onset	duration	trial_type	sample	stim_file	subject	experiment	session	trial	task	item_name	item_num	recog_conf	resp	answer	test_x	test_y	test_z	color_b	color_g	color_r	case	font
220.032	n/a	SESS_START	110016	n/a	LTP207	ltpFR	11	n/a	n/a	n/a	n/a	5	n/a	n/a	0	0	0	n/a	n/a	n/a	n/a	n/a
256.518	n/a	START	128259	n/a	LTP207	ltpFR	11	n/a	n/a	n/a	n/a	n/a	n/a	n/a	n/a	n/a	n/a	n/a	n/a	n/a	n/a	n/a
256.568	n/a	PROB	128284	n/a	LTP207	ltpFR	11	n/a	n/a	n/a	n/a	n/a	n/a	12	6	1	5	n/a	n/a	n/a	n/a	n/a
258.316	n/a	PROB	129158	n/a	LTP207	ltpFR	11	n/a	n/a	n/a	n/a	n/a	n/a	11	9	1	1	n/a	n/a	n/a	n/a	n/a
259.67	n/a	PROB	129835	n/a	LTP207	ltpFR	11	n/a	n/a	n/a	n/a	n/a	n/a	16	2	8	6	n/a	n/a	n/a	n/a	n/a
260.984	n/a	PROB	130492	n/a	LTP207	ltpFR	11	n/a	n/a	n/a	n/a	n/a	n/a	12	6	2	4	n/a	n/a	n/a	n/a	n/a
262.732	n/a	PROB	131366	n/a	LTP207	ltpFR	11	n/a	n/a	n/a	n/a	n/a	n/a	21	8	5	8	n/a	n/a	n/a	n/a	n/a
264.782	n/a	PROB	132391	n/a	LTP207	ltpFR	11	n/a	n/a	n/a	n/a	n/a	n/a	15	3	9	2	n/a	n/a	n/a	n/a	n/a
266.48	n/a	PROB	133240	n/a	LTP207	ltpFR	11	n/a	n/a	n/a	n/a	n/a	n/a	16	7	5	4	n/a	n/a	n/a	n/a	n/a
268.53	n/a	PROB	134265	n/a	LTP207	ltpFR	11	n/a	n/a	n/a	n/a	n/a	n/a	21	7	8	6	n/a	n/a	n/a	n/a	n/a
270.228	n/a	PROB	135114	n/a	LTP207	ltpFR	11	n/a	n/a	n/a	n/a	n/a	n/a	10	1	7	2	n/a	n/a	n/a	n/a	n/a
271.61	n/a	PROB	135805	n/a	LTP207	ltpFR	11	n/a	n/a	n/a	n/a	n/a	n/a	21	6	8	7	n/a	n/a	n/a	n/a	n/a
273.4	n/a	PROB	136700	n/a	LTP207	ltpFR	11	n/a	n/a	n/a	n/a	n/a	n/a	16	4	9	3	n/a	n/a	n/a	n/a	n/a
275.068	n/a	STOP	137534	n/a	LTP207	ltpFR	11	n/a	n/a	n/a	n/a	n/a	n/a	n/a	n/a	n/a	n/a	n/a	n/a	n/a	n/a	n/a
314.33	n/a	WORD	157165	wordpools/wasnorm_wordpool_less_exclusions.txt	LTP207	ltpFR	11	1	0	DOUGHNUT	490	5	0	n/a	0	0	0	0	0.5869140625	0.422607421875	lower	../fonts/amplitud.ttf
318.194	n/a	WORD	159097	wordpools/wasnorm_wordpool_less_exclusions.txt	LTP207	ltpFR	11	1	0	LIEUTENANT	818	n/a	1	n/a	0	0	0	0	0.5869140625	0.422607421875	lower	../fonts/amplitud.ttf
322.168	n/a	WORD	161084	wordpools/wasnorm_wordpool_less_exclusions.txt	LTP207	ltpFR	11	1	0	SPAGHETTI	1346	n/a	0	n/a	0	0	0	0	0.5869140625	0.422607421875	lower	../fonts/amplitud.ttf
326.158	n/a	WORD	163079	wordpools/wasnorm_wordpool_less_exclusions.txt	LTP207	ltpFR	11	1	0	TAIL	1430	n/a	0	n/a	0	0	0	0	0.5869140625	0.422607421875	lower	../fonts/amplitud.ttf
329.998	n/a	WORD	164999	wordpools/wasnorm_wordpool_less_exclusions.txt	LTP207	ltpFR	11	1	0	OCTOPUS	971	n/a	1	n/a	0	0	0	0	0.5869140625	0.422607421875	lower	../fonts/amplitud.ttf
334.216	n/a	WORD	167108	wordpools/wasnorm_wordpool_less_exclusions.txt	LTP207	ltpFR	11	1	0	RAZOR	1171	n/a	0	n/a	0	0	0	0	0.5869140625	0.422607421875	lower	../fonts/amplitud.ttf
338.086	n/a	WORD	169043	wordpools/wasnorm_wordpool_less_exclusions.txt	LTP207	ltpFR	11	1	0	MACARONI	851	n/a	0	n/a	0	0	0	0	0.5869140625	0.422607421875	lower	../fonts/amplitud.ttf
342.036	n/a	WORD	171018	wordpools/wasnorm_wordpool_less_exclusions.txt	LTP207	ltpFR	11	1	0	MOUNTAIN	924	n/a	1	n/a	0	0	0	0	0.5869140625	0.422607421875	lower	../fonts/amplitud.ttf
345.976	n/a	WORD	172988	wordpools/wasnorm_wordpool_less_exclusions.txt	LTP207	ltpFR	11	1	0	VALLEY	1545	n/a	1	n/a	0	0	0	0	0.5869140625	0.422607421875	lower	../fonts/amplitud.ttf
349.874	n/a	WORD	174937	wordpools/wasnorm_wordpool_less_exclusions.txt	LTP207	ltpFR	11	1	0	DINER	467	n/a	1	n/a	0	0	0	0	0.5869140625	0.422607421875	lower	../fonts/amplitud.ttf
353.84	n/a	WORD	176920	wordpools/wasnorm_wordpool_less_exclusions.txt	LTP207	ltpFR	11	1	0	WICK	1607	n/a	0	n/a	0	0	0	0	0.5869140625	0.422607421875	lower	../fonts/amplitud.ttf
357.988	n/a	WORD	178994	wordpools/wasnorm_wordpool_less_exclusions.txt	LTP207	ltpFR	11	1	0	WAX	1597	n/a	0	n/a	0	0	0	0	0.5869140625	0.422607421875	lower	../fonts/amplitud.ttf
361.938	n/a	WORD	180969	wordpools/wasnorm_wordpool_less_exclusions.txt	LTP207	ltpFR	11	1	0	SHORE	1291	n/a	1	n/a	0	0	0	0	0.5869140625	0.422607421875	lower	../fonts/amplitud.ttf
365.776	n/a	WORD	182888	wordpools/wasnorm_wordpool_less_exclusions.txt	LTP207	ltpFR	11	1	0	SHELL	1281	n/a	0	n/a	0	0	0	0	0.5869140625	0.422607421875	lower	../fonts/amplitud.ttf
369.884	n/a	WORD	184942	wordpools/wasnorm_wordpool_less_exclusions.txt	LTP207	ltpFR	11	1	0	CAVE	263	n/a	1	n/a	0	0	0	0	0.5869140625	0.422607421875	lower	../fonts/amplitud.ttf
373.84	n/a	WORD	186920	wordpools/wasnorm_wordpool_less_exclusions.txt	LTP207	ltpFR	11	1	0	MILITARY	894	n/a	1	n/a	0	0	0	0	0.5869140625	0.422607421875	lower	../fonts/amplitud.ttf
376.852	n/a	START	188426	n/a	LTP207	ltpFR	11	n/a	n/a	n/a	n/a	n/a	n/a	n/a	n/a	n/a	n/a	n/a	n/a	n/a	n/a	n/a
377.804	n/a	PROB	188902	n/a	LTP207	ltpFR	11	n/a	n/a	n/a	n/a	n/a	n/a	16	8	1	7	n/a	n/a	n/a	n/a	n/a
380.292	n/a	PROB	190146	n/a	LTP207	ltpFR	11	n/a	n/a	n/a	n/a	n/a	n/a	13	8	4	1	n/a	n/a	n/a	n/a	n/a
384.852	n/a	STOP	192426	n/a	LTP207	ltpFR	11	n/a	n/a	n/a	n/a	n/a	n/a	n/a	n/a	n/a	n/a	n/a	n/a	n/a	n/a	n/a
386.74	n/a	REC_START	193370	n/a	LTP207	ltpFR	11	1	n/a	n/a	n/a	n/a	n/a	n/a	0	0	0	n/a	n/a	n/a	n/a	n/a
388.766	n/a	REC_WORD	194383	wordpools/wasnorm_wordpool_less_exclusions.txt	LTP207	ltpFR	11	1	0	DOUGHNUT	490	n/a	0	n/a	0	0	0	n/a	n/a	n/a	n/a	n/a
390.732	n/a	REC_WORD	195366	wordpools/wasnorm_wordpool_less_exclusions.txt	LTP207	ltpFR	11	1	0	MILITARY	894	n/a	1	n/a	0	0	0	n/a	n/a	n/a	n/a	n/a
392.27	n/a	REC_WORD	196135	wordpools/wasnorm_wordpool_less_exclusions.txt	LTP207	ltpFR	11	1	0	LIEUTENANT	818	n/a	1	n/a	0	0	0	n/a	n/a	n/a	n/a	n/a
395.192	n/a	REC_WORD	197596	wordpools/wasnorm_wordpool_less_exclusions.txt	LTP207	ltpFR	11	1	0	CAVE	263	n/a	1	n/a	0	0	0	n/a	n/a	n/a	n/a	n/a
397.43	n/a	REC_WORD	198715	wordpools/wasnorm_wordpool_less_exclusions.txt	LTP207	ltpFR	11	1	0	TAIL	1430	n/a	0	n/a	0	0	0	n/a	n/a	n/a	n/a	n/a
402.894	n/a	REC_WORD	201447	wordpools/wasnorm_wordpool_less_exclusions.txt	LTP207	ltpFR	11	1	0	SHORE	1291	n/a	1	n/a	0	0	0	n/a	n/a	n/a	n/a	n/a
403.802	n/a	REC_WORD	201901	wordpools/wasnorm_wordpool_less_exclusions.txt	LTP207	ltpFR	11	1	0	SHELL	1281	n/a	0	n/a	0	0	0	n/a	n/a	n/a	n/a	n/a
409.41	n/a	REC_WORD	204705	wordpools/wasnorm_wordpool_less_exclusions.txt	LTP207	ltpFR	11	1	0	WICK	1607	n/a	0	n/a	0	0	0	n/a	n/a	n/a	n/a	n/a
410.656	n/a	REC_WORD	205328	wordpools/wasnorm_wordpool_less_exclusions.txt	LTP207	ltpFR	11	1	0	WAX	1597	n/a	0	n/a	0	0	0	n/a	n/a	n/a	n/a	n/a
413.79	n/a	REC_WORD	206895	wordpools/wasnorm_wordpool_less_exclusions.txt	LTP207	ltpFR	11	1	0	SPAGHETTI	1346	n/a	0	n/a	0	0	0	n/a	n/a	n/a	n/a	n/a
420.242	n/a	REC_WORD	210121	wordpools/wasnorm_wordpool_less_exclusions.txt	LTP207	ltpFR	11	1	0	MOUNTAIN	924	n/a	1	n/a	0	0	0	n/a	n/a	n/a	n/a	n/a
422.246	n/a	REC_WORD	211123	wordpools/wasnorm_wordpool_less_exclusions.txt	LTP207	ltpFR	11	1	0	VALLEY	1545	n/a	1	n/a	0	0	0	n/a	n/a	n/a	n/a	n/a
431.596	n/a	REC_WORD	215798	wordpools/wasnorm_wordpool_less_exclusions.txt	LTP207	ltpFR	11	1	0	RAZOR	1171	n/a	0	n/a	0	0	0	n/a	n/a	n/a	n/a	n/a
464.688	n/a	START	232344	n/a	LTP207	ltpFR	11	n/a	n/a	n/a	n/a	n/a	n/a	n/a	n/a	n/a	n/a	n/a	n/a	n/a	n/a	n/a
466.204	n/a	PROB	233102	n/a	LTP207	ltpFR	11	n/a	n/a	n/a	n/a	n/a	n/a	19	7	4	8	n/a	n/a	n/a	n/a	n/a
468.344	n/a	PROB	234172	n/a	LTP207	ltpFR	11	n/a	n/a	n/a	n/a	n/a	n/a	10	5	4	1	n/a	n/a	n/a	n/a	n/a
469.672	n/a	PROB	234836	n/a	LTP207	ltpFR	11	n/a	n/a	n/a	n/a	n/a	n/a	18	7	4	7	n/a	n/a	n/a	n/a	n/a
471.27	n/a	STOP	235635	n/a	LTP207	ltpFR	11	n/a	n/a	n/a	n/a	n/a	n/a	n/a	n/a	n/a	n/a	n/a	n/a	n/a	n/a	n/a
473.596	n/a	WORD	236798	wordpools/wasnorm_wordpool_less_exclusions.txt	LTP207	ltpFR	11	2	0	GOO	648	n/a	0	n/a	0	0	0	0	0.5869140625	0.422607421875	lower	../fonts/amplitud.ttf
476.61	n/a	START	238305	n/a	LTP207	ltpFR	11	n/a	n/a	n/a	n/a	n/a	n/a	n/a	n/a	n/a	n/a	n/a	n/a	n/a	n/a	n/a
477.43	n/a	PROB	238715	n/a	LTP207	ltpFR	11	n/a	n/a	n/a	n/a	n/a	n/a	15	3	8	4	n/a	n/a	n/a	n/a	n/a
479.594	n/a	PROB	239797	n/a	LTP207	ltpFR	11	n/a	n/a	n/a	n/a	n/a	n/a	18	9	6	3	n/a	n/a	n/a	n/a	n/a
481.518	n/a	PROB	240759	n/a	LTP207	ltpFR	11	n/a	n/a	n/a	n/a	n/a	n/a	8	5	1	2	n/a	n/a	n/a	n/a	n/a
482.99	n/a	PROB	241495	n/a	LTP207	ltpFR	11	n/a	n/a	n/a	n/a	n/a	n/a	19	3	7	9	n/a	n/a	n/a	n/a	n/a
484.086	n/a	STOP	242043	n/a	LTP207	ltpFR	11	n/a	n/a	n/a	n/a	n/a	n/a	n/a	n/a	n/a	n/a	n/a	n/a	n/a	n/a	n/a
485.684	n/a	WORD	242842	wordpools/wasnorm_wordpool_less_exclusions.txt	LTP207	ltpFR	11	2	0	SIDEWALK	1303	n/a	1	n/a	0	0	0	0	0.5869140625	0.422607421875	lower	../fonts/amplitud.ttf
488.696	n/a	START	244348	n/a	LTP207	ltpFR	11	n/a	n/a	n/a	n/a	n/a	n/a	n/a	n/a	n/a	n/a	n/a	n/a	n/a	n/a	n/a
489.608	n/a	PROB	244804	n/a	LTP207	ltpFR	11	n/a	n/a	n/a	n/a	n/a	n/a	22	7	8	7	n/a	n/a	n/a	n/a	n/a
491.29	n/a	PROB	245645	n/a	LTP207	ltpFR	11	n/a	n/a	n/a	n/a	n/a	n/a	11	3	5	3	n/a	n/a	n/a	n/a	n/a
492.82	n/a	PROB	246410	n/a	LTP207	ltpFR	11	n/a	n/a	n/a	n/a	n/a	n/a	20	6	6	8	n/a	n/a	n/a	n/a	n/a
494.494	n/a	PROB	247247	n/a	LTP207	ltpFR	11	n/a	n/a	n/a	n/a	n/a	n/a	12	5	3	4	n/a	n/a	n/a	n/a	n/a
495.944	n/a	STOP	247972	n/a	LTP207	ltpFR	11	n/a	n/a	n/a	n/a	n/a	n/a	n/a	n/a	n/a	n/a	n/a	n/a	n/a	n/a	n/a
497.898	n/a	WORD	248949	wordpools/wasnorm_wordpool_less_exclusions.txt	LTP207	ltpFR	11	2	0	OUTFIT	988	n/a	1	n/a	0	0	0	0	0.5869140625	0.422607421875	lower	../fonts/amplitud.ttf
500.91	n/a	START	250455	n/a	LTP207	ltpFR	11	n/a	n/a	n/a	n/a	n/a	n/a	n/a	n/a	n/a	n/a	n/a	n/a	n/a	n/a	n/a
501.822	n/a	PROB	250911	n/a	LTP207	ltpFR	11	n/a	n/a	n/a	n/a	n/a	n/a	19	3	8	8	n/a	n/a	n/a	n/a	n/a
503.462	n/a	PROB	251731	n/a	LTP207	ltpFR	11	n/a	n/a	n/a	n/a	n/a	n/a	12	4	5	4	n/a	n/a	n/a	n/a	n/a
506.256	n/a	PROB	253128	n/a	LTP207	ltpFR	11	n/a	n/a	n/a	n/a	n/a	n/a	19	8	4	7	n/a	n/a	n/a	n/a	n/a
508.176	n/a	STOP	254088	n/a	LTP207	ltpFR	11	n/a	n/a	n/a	n/a	n/a	n/a	n/a	n/a	n/a	n/a	n/a	n/a	n/a	n/a	n/a
510.076	n/a	WORD	255038	wordpools/wasnorm_wordpool_less_exclusions.txt	LTP207	ltpFR	11	2	0	GENERAL	630	n/a	1	n/a	0	0	0	0	0.5869140625	0.422607421875	lower	../fonts/amplitud.ttf
513.09	n/a	START	256545	n/a	LTP207	ltpFR	11	n/a	n/a	n/a	n/a	n/a	n/a	n/a	n/a	n/a	n/a	n/a	n/a	n/a	n/a	n/a
513.918	n/a	PROB	256959	n/a	LTP207	ltpFR	11	n/a	n/a	n/a	n/a	n/a	n/a	18	4	8	6	n/a	n/a	n/a	n/a	n/a
515.582	n/a	PROB	257791	n/a	LTP207	ltpFR	11	n/a	n/a	n/a	n/a	n/a	n/a	16	4	6	6	n/a	n/a	n/a	n/a	n/a
518.21	n/a	PROB	259105	n/a	LTP207	ltpFR	11	n/a	n/a	n/a	n/a	n/a	n/a	17	7	4	6	n/a	n/a	n/a	n/a	n/a
520.234	n/a	STOP	260117	n/a	LTP207	ltpFR	11	n/a	n/a	n/a	n/a	n/a	n/a	n/a	n/a	n/a	n/a	n/a	n/a	n/a	n/a	n/a
522.124	n/a	WORD	261062	wordpools/wasnorm_wordpool_less_exclusions.txt	LTP207	ltpFR	11	2	0	SERGEANT	1269	n/a	1	n/a	0	0	0	0	0.5869140625	0.422607421875	lower	../fonts/amplitud.ttf
525.136	n/a	START	262568	n/a	LTP207	ltpFR	11	n/a	n/a	n/a	n/a	n/a	n/a	n/a	n/a	n/a	n/a	n/a	n/a	n/a	n/a	n/a
526.132	n/a	PROB	263066	n/a	LTP207	ltpFR	11	n/a	n/a	n/a	n/a	n/a	n/a	13	6	2	5	n/a	n/a	n/a	n/a	n/a
527.922	n/a	PROB	263961	n/a	LTP207	ltpFR	11	n/a	n/a	n/a	n/a	n/a	n/a	9	2	5	2	n/a	n/a	n/a	n/a	n/a
529.278	n/a	PROB	264639	n/a	LTP207	ltpFR	11	n/a	n/a	n/a	n/a	n/a	n/a	19	7	3	9	n/a	n/a	n/a	n/a	n/a
530.422	n/a	PROB	265211	n/a	LTP207	ltpFR	11	n/a	n/a	n/a	n/a	n/a	n/a	13	8	3	2	n/a	n/a	n/a	n/a	n/a
532.25	n/a	STOP	266125	n/a	LTP207	ltpFR	11	n/a	n/a	n/a	n/a	n/a	n/a	n/a	n/a	n/a	n/a	n/a	n/a	n/a	n/a	n/a
534.272	n/a	WORD	267136	wordpools/wasnorm_wordpool_less_exclusions.txt	LTP207	ltpFR	11	2	1	PEACH	1031	n/a	0	n/a	0	0	0	1	0.412841796875	0.57763671875	upper	../fonts/zerothre.ttf
537.284	n/a	START	268642	n/a	LTP207	ltpFR	11	n/a	n/a	n/a	n/a	n/a	n/a	n/a	n/a	n/a	n/a	n/a	n/a	n/a	n/a	n/a
538.184	n/a	PROB	269092	n/a	LTP207	ltpFR	11	n/a	n/a	n/a	n/a	n/a	n/a	14	1	5	8	n/a	n/a	n/a	n/a	n/a
540.21	n/a	PROB	270105	n/a	LTP207	ltpFR	11	n/a	n/a	n/a	n/a	n/a	n/a	10	4	2	4	n/a	n/a	n/a	n/a	n/a
542.702	n/a	PROB	271351	n/a	LTP207	ltpFR	11	n/a	n/a	n/a	n/a	n/a	n/a	13	4	2	7	n/a	n/a	n/a	n/a	n/a
544.426	n/a	STOP	272213	n/a	LTP207	ltpFR	11	n/a	n/a	n/a	n/a	n/a	n/a	n/a	n/a	n/a	n/a	n/a	n/a	n/a	n/a	n/a
546.25	n/a	WORD	273125	wordpools/wasnorm_wordpool_less_exclusions.txt	LTP207	ltpFR	11	2	1	CUFF	423	n/a	0	n/a	0	0	0	1	0.412841796875	0.57763671875	upper	../fonts/zerothre.ttf
549.262	n/a	START	274631	n/a	LTP207	ltpFR	11	n/a	n/a	n/a	n/a	n/a	n/a	n/a	n/a	n/a	n/a	n/a	n/a	n/a	n/a	n/a
550.332	n/a	PROB	275166	n/a	LTP207	ltpFR	11	n/a	n/a	n/a	n/a	n/a	n/a	22	8	8	6	n/a	n/a	n/a	n/a	n/a
551.73	n/a	PROB	275865	n/a	LTP207	ltpFR	11	n/a	n/a	n/a	n/a	n/a	n/a	12	4	2	6	n/a	n/a	n/a	n/a	n/a
553.058	n/a	PROB	276529	n/a	LTP207	ltpFR	11	n/a	n/a	n/a	n/a	n/a	n/a	17	3	7	7	n/a	n/a	n/a	n/a	n/a
554.766	n/a	PROB	277383	n/a	LTP207	ltpFR	11	n/a	n/a	n/a	n/a	n/a	n/a	24	9	6	9	n/a	n/a	n/a	n/a	n/a
557.154	n/a	STOP	278577	n/a	LTP207	ltpFR	11	n/a	n/a	n/a	n/a	n/a	n/a	n/a	n/a	n/a	n/a	n/a	n/a	n/a	n/a	n/a
558.212	n/a	WORD	279106	wordpools/wasnorm_wordpool_less_exclusions.txt	LTP207	ltpFR	11	2	1	HOOD	714	n/a	0	n/a	0	0	0	1	0.412841796875	0.57763671875	upper	../fonts/zerothre.ttf
561.224	n/a	START	280612	n/a	LTP207	ltpFR	11	n/a	n/a	n/a	n/a	n/a	n/a	n/a	n/a	n/a	n/a	n/a	n/a	n/a	n/a	n/a
562.288	n/a	PROB	281144	n/a	LTP207	ltpFR	11	n/a	n/a	n/a	n/a	n/a	n/a	14	8	1	5	n/a	n/a	n/a	n/a	n/a
564.042	n/a	PROB	282021	n/a	LTP207	ltpFR	11	n/a	n/a	n/a	n/a	n/a	n/a	11	5	4	2	n/a	n/a	n/a	n/a	n/a
565.34	n/a	PROB	282670	n/a	LTP207	ltpFR	11	n/a	n/a	n/a	n/a	n/a	n/a	18	6	3	9	n/a	n/a	n/a	n/a	n/a
569.224	n/a	STOP	284612	n/a	LTP207	ltpFR	11	n/a	n/a	n/a	n/a	n/a	n/a	n/a	n/a	n/a	n/a	n/a	n/a	n/a	n/a	n/a
570.434	n/a	WORD	285217	wordpools/wasnorm_wordpool_less_exclusions.txt	LTP207	ltpFR	11	2	1	WAITER	1580	n/a	1	n/a	0	0	0	1	0.412841796875	0.57763671875	upper	../fonts/zerothre.ttf
573.446	n/a	START	286723	n/a	LTP207	ltpFR	11	n/a	n/a	n/a	n/a	n/a	n/a	n/a	n/a	n/a	n/a	n/a	n/a	n/a	n/a	n/a
574.608	n/a	PROB	287304	n/a	LTP207	ltpFR	11	n/a	n/a	n/a	n/a	n/a	n/a	13	4	8	1	n/a	n/a	n/a	n/a	n/a
576.29	n/a	PROB	288145	n/a	LTP207	ltpFR	11	n/a	n/a	n/a	n/a	n/a	n/a	21	5	7	9	n/a	n/a	n/a	n/a	n/a
578.146	n/a	PROB	289073	n/a	LTP207	ltpFR	11	n/a	n/a	n/a	n/a	n/a	n/a	14	5	1	8	n/a	n/a	n/a	n/a	n/a
579.436	n/a	PROB	289718	n/a	LTP207	ltpFR	11	n/a	n/a	n/a	n/a	n/a	n/a	16	7	3	6	n/a	n/a	n/a	n/a	n/a
580.404	n/a	STOP	290202	n/a	LTP207	ltpFR	11	n/a	n/a	n/a	n/a	n/a	n/a	n/a	n/a	n/a	n/a	n/a	n/a	n/a	n/a	n/a
582.396	n/a	WORD	291198	wordpools/wasnorm_wordpool_less_exclusions.txt	LTP207	ltpFR	11	2	0	ROAD	1196	n/a	1	n/a	0	0	0	0	0.5869140625	0.422607421875	lower	../fonts/amplitud.ttf
585.408	n/a	START	292704	n/a	LTP207	ltpFR	11	n/a	n/a	n/a	n/a	n/a	n/a	n/a	n/a	n/a	n/a	n/a	n/a	n/a	n/a	n/a
586.468	n/a	PROB	293234	n/a	LTP207	ltpFR	11	n/a	n/a	n/a	n/a	n/a	n/a	22	9	4	9	n/a	n/a	n/a	n/a	n/a
589.44	n/a	PROB	294720	n/a	LTP207	ltpFR	11	n/a	n/a	n/a	n/a	n/a	n/a	14	4	2	8	n/a	n/a	n/a	n/a	n/a
590.88	n/a	PROB	295440	n/a	LTP207	ltpFR	11	n/a	n/a	n/a	n/a	n/a	n/a	15	5	4	6	n/a	n/a	n/a	n/a	n/a
591.996	n/a	STOP	295998	n/a	LTP207	ltpFR	11	n/a	n/a	n/a	n/a	n/a	n/a	n/a	n/a	n/a	n/a	n/a	n/a	n/a	n/a	n/a
594.56	n/a	WORD	297280	wordpools/wasnorm_wordpool_less_exclusions.txt	LTP207	ltpFR	11	2	0	DETERGENT	455	n/a	0	n/a	0	0	0	0	0.5869140625	0.422607421875	lower	../fonts/amplitud.ttf
597.572	n/a	START	298786	n/a	LTP207	ltpFR	11	n/a	n/a	n/a	n/a	n/a	n/a	n/a	n/a	n/a	n/a	n/a	n/a	n/a	n/a	n/a
598.65	n/a	PROB	299325	n/a	LTP207	ltpFR	11	n/a	n/a	n/a	n/a	n/a	n/a	12	1	7	4	n/a	n/a	n/a	n/a	n/a
600.004	n/a	PROB	300002	n/a	LTP207	ltpFR	11	n/a	n/a	n/a	n/a	n/a	n/a	19	8	7	4	n/a	n/a	n/a	n/a	n/a
601.552	n/a	PROB	300776	n/a	LTP207	ltpFR	11	n/a	n/a	n/a	n/a	n/a	n/a	9	1	2	6	n/a	n/a	n/a	n/a	n/a
602.758	n/a	PROB	301379	n/a	LTP207	ltpFR	11	n/a	n/a	n/a	n/a	n/a	n/a	15	2	4	9	n/a	n/a	n/a	n/a	n/a
604.326	n/a	STOP	302163	n/a	LTP207	ltpFR	11	n/a	n/a	n/a	n/a	n/a	n/a	n/a	n/a	n/a	n/a	n/a	n/a	n/a	n/a	n/a
606.504	n/a	WORD	303252	wordpools/wasnorm_wordpool_less_exclusions.txt	LTP207	ltpFR	11	2	0	WART	1590	n/a	0	n/a	0	0	0	0	0.5869140625	0.422607421875	lower	../fonts/amplitud.ttf
609.518	n/a	START	304759	n/a	LTP207	ltpFR	11	n/a	n/a	n/a	n/a	n/a	n/a	n/a	n/a	n/a	n/a	n/a	n/a	n/a	n/a	n/a
610.704	n/a	PROB	305352	n/a	LTP207	ltpFR	11	n/a	n/a	n/a	n/a	n/a	n/a	17	9	6	2	n/a	n/a	n/a	n/a	n/a
612.914	n/a	PROB	306457	n/a	LTP207	ltpFR	11	n/a	n/a	n/a	n/a	n/a	n/a	23	7	8	8	n/a	n/a	n/a	n/a	n/a
614.744	n/a	PROB	307372	n/a	LTP207	ltpFR	11	n/a	n/a	n/a	n/a	n/a	n/a	9	2	1	6	n/a	n/a	n/a	n/a	n/a
616.246	n/a	STOP	308123	n/a	LTP207	ltpFR	11	n/a	n/a	n/a	n/a	n/a	n/a	n/a	n/a	n/a	n/a	n/a	n/a	n/a	n/a	n/a
618.626	n/a	WORD	309313	wordpools/wasnorm_wordpool_less_exclusions.txt	LTP207	ltpFR	11	2	1	CHEF	290	n/a	1	n/a	0	0	0	1	0.412841796875	0.57763671875	upper	../fonts/zerothre.ttf
621.638	n/a	START	310819	n/a	LTP207	ltpFR	11	n/a	n/a	n/a	n/a	n/a	n/a	n/a	n/a	n/a	n/a	n/a	n/a	n/a	n/a	n/a
622.582	n/a	PROB	311291	n/a	LTP207	ltpFR	11	n/a	n/a	n/a	n/a	n/a	n/a	15	4	9	2	n/a	n/a	n/a	n/a	n/a
624.022	n/a	PROB	312011	n/a	LTP207	ltpFR	11	n/a	n/a	n/a	n/a	n/a	n/a	14	4	4	6	n/a	n/a	n/a	n/a	n/a
625.662	n/a	PROB	312831	n/a	LTP207	ltpFR	11	n/a	n/a	n/a	n/a	n/a	n/a	22	9	9	6	n/a	n/a	n/a	n/a	n/a
627.502	n/a	PROB	313751	n/a	LTP207	ltpFR	11	n/a	n/a	n/a	n/a	n/a	n/a	13	7	1	5	n/a	n/a	n/a	n/a	n/a
628.998	n/a	STOP	314499	n/a	LTP207	ltpFR	11	n/a	n/a	n/a	n/a	n/a	n/a	n/a	n/a	n/a	n/a	n/a	n/a	n/a	n/a	n/a
630.856	n/a	WORD	315428	wordpools/wasnorm_wordpool_less_exclusions.txt	LTP207	ltpFR	11	2	1	DINNER	468	n/a	0	n/a	0	0	0	1	0.412841796875	0.57763671875	upper	../fonts/zerothre.ttf
633.868	n/a	START	316934	n/a	LTP207	ltpFR	11	n/a	n/a	n/a	n/a	n/a	n/a	n/a	n/a	n/a	n/a	n/a	n/a	n/a	n/a	n/a
634.77	n/a	PROB	317385	n/a	LTP207	ltpFR	11	n/a	n/a	n/a	n/a	n/a	n/a	19	6	8	5	n/a	n/a	n/a	n/a	n/a
636.56	n/a	PROB	318280	n/a	LTP207	ltpFR	11	n/a	n/a	n/a	n/a	n/a	n/a	17	3	9	5	n/a	n/a	n/a	n/a	n/a
638.218	n/a	PROB	319109	n/a	LTP207	ltpFR	11	n/a	n/a	n/a	n/a	n/a	n/a	25	9	7	9	n/a	n/a	n/a	n/a	n/a
640.2	n/a	PROB	320100	n/a	LTP207	ltpFR	11	n/a	n/a	n/a	n/a	n/a	n/a	22	9	8	4	n/a	n/a	n/a	n/a	n/a
641.79	n/a	STOP	320895	n/a	LTP207	ltpFR	11	n/a	n/a	n/a	n/a	n/a	n/a	n/a	n/a	n/a	n/a	n/a	n/a	n/a	n/a	n/a
642.718	n/a	WORD	321359	wordpools/wasnorm_wordpool_less_exclusions.txt	LTP207	ltpFR	11	2	1	TOWEL	1489	n/a	0	n/a	0	0	0	1	0.412841796875	0.57763671875	upper	../fonts/zerothre.ttf
645.73	n/a	START	322865	n/a	LTP207	ltpFR	11	n/a	n/a	n/a	n/a	n/a	n/a	n/a	n/a	n/a	n/a	n/a	n/a	n/a	n/a	n/a
646.876	n/a	PROB	323438	n/a	LTP207	ltpFR	11	n/a	n/a	n/a	n/a	n/a	n/a	16	8	4	4	n/a	n/a	n/a	n/a	n/a
649.118	n/a	PROB	324559	n/a	LTP207	ltpFR	11	n/a	n/a	n/a	n/a	n/a	n/a	16	2	7	7	n/a	n/a	n/a	n/a	n/a
651.134	n/a	PROB	325567	n/a	LTP207	ltpFR	11	n/a	n/a	n/a	n/a	n/a	n/a	21	8	8	5	n/a	n/a	n/a	n/a	n/a
652.64	n/a	STOP	326320	n/a	LTP207	ltpFR	11	n/a	n/a	n/a	n/a	n/a	n/a	n/a	n/a	n/a	n/a	n/a	n/a	n/a	n/a	n/a
654.898	n/a	WORD	327449	wordpools/wasnorm_wordpool_less_exclusions.txt	LTP207	ltpFR	11	2	1	BULLY	196	n/a	1	n/a	0	0	0	1	0.412841796875	0.57763671875	upper	../fonts/zerothre.ttf
657.908	n/a	START	328954	n/a	LTP207	ltpFR	11	n/a	n/a	n/a	n/a	n/a	n/a	n/a	n/a	n/a	n/a	n/a	n/a	n/a	n/a	n/a
659.046	n/a	PROB	329523	n/a	LTP207	ltpFR	11	n/a	n/a	n/a	n/a	n/a	n/a	12	6	2	4	n/a	n/a	n/a	n/a	n/a
660.512	n/a	PROB	330256	n/a	LTP207	ltpFR	11	n/a	n/a	n/a	n/a	n/a	n/a	11	4	3	4	n/a	n/a	n/a	n/a	n/a
662.174	n/a	PROB	331087	n/a	LTP207	ltpFR	11	n/a	n/a	n/a	n/a	n/a	n/a	21	8	7	6	n/a	n/a	n/a	n/a	n/a
663.714	n/a	PROB	331857	n/a	LTP207	ltpFR	11	n/a	n/a	n/a	n/a	n/a	n/a	22	5	8	9	n/a	n/a	n/a	n/a	n/a
665.608	n/a	STOP	332804	n/a	LTP207	ltpFR	11	n/a	n/a	n/a	n/a	n/a	n/a	n/a	n/a	n/a	n/a	n/a	n/a	n/a	n/a	n/a
667.706	n/a	REC_START	333853	n/a	LTP207	ltpFR	11	2	n/a	n/a	n/a	n/a	n/a	n/a	0	0	0	n/a	n/a	n/a	n/a	n/a
669.612	n/a	REC_WORD	334806	wordpools/wasnorm_wordpool_less_exclusions.txt	LTP207	ltpFR	11	2	1	HOOD	714	n/a	0	n/a	0	0	0	n/a	n/a	n/a	n/a	n/a
671.362	n/a	REC_WORD	335681	wordpools/wasnorm_wordpool_less_exclusions.txt	LTP207	ltpFR	11	2	1	CUFF	423	n/a	0	n/a	0	0	0	n/a	n/a	n/a	n/a	n/a
675.236	n/a	REC_WORD	337618	wordpools/wasnorm_wordpool_less_exclusions.txt	LTP207	ltpFR	11	2	0	DETERGENT	455	n/a	0	n/a	0	0	0	n/a	n/a	n/a	n/a	n/a
679.454	n/a	REC_WORD	339727	wordpools/wasnorm_wordpool_less_exclusions.txt	LTP207	ltpFR	11	2	0	GENERAL	630	n/a	1	n/a	0	0	0	n/a	n/a	n/a	n/a	n/a
682.358	n/a	REC_WORD	341179	wordpools/wasnorm_wordpool_less_exclusions.txt	LTP207	ltpFR	11	2	0	SIDEWALK	1303	n/a	1	n/a	0	0	0	n/a	n/a	n/a	n/a	n/a
684.34	n/a	REC_WORD	342170	wordpools/wasnorm_wordpool_less_exclusions.txt	LTP207	ltpFR	11	2	0	ROAD	1196	n/a	1	n/a	0	0	0	n/a	n/a	n/a	n/a	n/a
686.702	n/a	REC_WORD	343351	wordpools/wasnorm_wordpool_less_exclusions.txt	LTP207	ltpFR	11	2	0	GOO	648	n/a	0	n/a	0	0	0	n/a	n/a	n/a	n/a	n/a
689.348	n/a	REC_WORD	344674	wordpools/wasnorm_wordpool_less_exclusions.txt	LTP207	ltpFR	11	2	0	OUTFIT	988	n/a	1	n/a	0	0	0	n/a	n/a	n/a	n/a	n/a
749.344	n/a	START	374672	n/a	LTP207	ltpFR	11	n/a	n/a	n/a	n/a	n/a	n/a	n/a	n/a	n/a	n/a	n/a	n/a	n/a	n/a	n/a
750.856	n/a	PROB	375428	n/a	LTP207	ltpFR	11	n/a	n/a	n/a	n/a	n/a	n/a	12	5	5	2	n/a	n/a	n/a	n/a	n/a
752.052	n/a	PROB	376026	n/a	LTP207	ltpFR	11	n/a	n/a	n/a	n/a	n/a	n/a	17	4	4	9	n/a	n/a	n/a	n/a	n/a
753.802	n/a	PROB	376901	n/a	LTP207	ltpFR	11	n/a	n/a	n/a	n/a	n/a	n/a	9	4	4	1	n/a	n/a	n/a	n/a	n/a
755.432	n/a	PROB	377716	n/a	LTP207	ltpFR	11	n/a	n/a	n/a	n/a	n/a	n/a	16	7	1	8	n/a	n/a	n/a	n/a	n/a
756.746	n/a	PROB	378373	n/a	LTP207	ltpFR	11	n/a	n/a	n/a	n/a	n/a	n/a	16	4	8	4	n/a	n/a	n/a	n/a	n/a
758.636	n/a	PROB	379318	n/a	LTP207	ltpFR	11	n/a	n/a	n/a	n/a	n/a	n/a	14	6	7	1	n/a	n/a	n/a	n/a	n/a
760.11	n/a	PROB	380055	n/a	LTP207	ltpFR	11	n/a	n/a	n/a	n/a	n/a	n/a	17	2	9	6	n/a	n/a	n/a	n/a	n/a
762.15	n/a	PROB	381075	n/a	LTP207	ltpFR	11	n/a	n/a	n/a	n/a	n/a	n/a	20	7	4	9	n/a	n/a	n/a	n/a	n/a
765.344	n/a	STOP	382672	n/a	LTP207	ltpFR	11	n/a	n/a	n/a	n/a	n/a	n/a	n/a	n/a	n/a	n/a	n/a	n/a	n/a	n/a	n/a
766.358	n/a	WORD	383179	wordpools/wasnorm_wordpool_less_exclusions.txt	LTP207	ltpFR	11	3	1	CATCHER	258	n/a	1	n/a	0	0	0	1	0.412841796875	0.57763671875	upper	../fonts/zerothre.ttf
769.37	n/a	START	384685	n/a	LTP207	ltpFR	11	n/a	n/a	n/a	n/a	n/a	n/a	n/a	n/a	n/a	n/a	n/a	n/a	n/a	n/a	n/a
770.506	n/a	PROB	385253	n/a	LTP207	ltpFR	11	n/a	n/a	n/a	n/a	n/a	n/a	20	9	9	2	n/a	n/a	n/a	n/a	n/a
771.854	n/a	PROB	385927	n/a	LTP207	ltpFR	11	n/a	n/a	n/a	n/a	n/a	n/a	12	1	9	2	n/a	n/a	n/a	n/a	n/a
773.618	n/a	PROB	386809	n/a	LTP207	ltpFR	11	n/a	n/a	n/a	n/a	n/a	n/a	15	4	8	3	n/a	n/a	n/a	n/a	n/a
775.768	n/a	PROB	387884	n/a	LTP207	ltpFR	11	n/a	n/a	n/a	n/a	n/a	n/a	23	9	6	8	n/a	n/a	n/a	n/a	n/a
779.54	n/a	PROB	389770	n/a	LTP207	ltpFR	11	n/a	n/a	n/a	n/a	n/a	n/a	9	5	2	2	n/a	n/a	n/a	n/a	n/a
780.838	n/a	PROB	390419	n/a	LTP207	ltpFR	11	n/a	n/a	n/a	n/a	n/a	n/a	17	8	8	1	n/a	n/a	n/a	n/a	n/a
782.786	n/a	PROB	391393	n/a	LTP207	ltpFR	11	n/a	n/a	n/a	n/a	n/a	n/a	25	8	9	8	n/a	n/a	n/a	n/a	n/a
784.71	n/a	STOP	392355	n/a	LTP207	ltpFR	11	n/a	n/a	n/a	n/a	n/a	n/a	n/a	n/a	n/a	n/a	n/a	n/a	n/a	n/a	n/a
786.584	n/a	WORD	393292	wordpools/wasnorm_wordpool_less_exclusions.txt	LTP207	ltpFR	11	3	1	HOUND	724	n/a	1	n/a	0	0	0	1	0.412841796875	0.57763671875	upper	../fonts/zerothre.ttf
789.596	n/a	START	394798	n/a	LTP207	ltpFR	11	n/a	n/a	n/a	n/a	n/a	n/a	n/a	n/a	n/a	n/a	n/a	n/a	n/a	n/a	n/a
790.732	n/a	PROB	395366	n/a	LTP207	ltpFR	11	n/a	n/a	n/a	n/a	n/a	n/a	16	4	5	7	n/a	n/a	n/a	n/a	n/a
792.466	n/a	PROB	396233	n/a	LTP207	ltpFR	11	n/a	n/a	n/a	n/a	n/a	n/a	15	9	2	4	n/a	n/a	n/a	n/a	n/a
794.39	n/a	PROB	397195	n/a	LTP207	ltpFR	11	n/a	n/a	n/a	n/a	n/a	n/a	11	2	2	7	n/a	n/a	n/a	n/a	n/a
795.678	n/a	PROB	397839	n/a	LTP207	ltpFR	11	n/a	n/a	n/a	n/a	n/a	n/a	17	3	8	6	n/a	n/a	n/a	n/a	n/a
798.664	n/a	PROB	399332	n/a	LTP207	ltpFR	11	n/a	n/a	n/a	n/a	n/a	n/a	13	3	6	4	n/a	n/a	n/a	n/a	n/a
800.112	n/a	PROB	400056	n/a	LTP207	ltpFR	11	n/a	n/a	n/a	n/a	n/a	n/a	15	7	6	2	n/a	n/a	n/a	n/a	n/a
801.868	n/a	PROB	400934	n/a	LTP207	ltpFR	11	n/a	n/a	n/a	n/a	n/a	n/a	16	9	2	5	n/a	n/a	n/a	n/a	n/a
803.96	n/a	PROB	401980	n/a	LTP207	ltpFR	11	n/a	n/a	n/a	n/a	n/a	n/a	11	2	8	1	n/a	n/a	n/a	n/a	n/a
805.352	n/a	STOP	402676	n/a	LTP207	ltpFR	11	n/a	n/a	n/a	n/a	n/a	n/a	n/a	n/a	n/a	n/a	n/a	n/a	n/a	n/a	n/a
806.754	n/a	WORD	403377	wordpools/wasnorm_wordpool_less_exclusions.txt	LTP207	ltpFR	11	3	1	QUAIL	1147	n/a	1	n/a	0	0	0	1	0.412841796875	0.57763671875	upper	../fonts/zerothre.ttf
809.766	n/a	START	404883	n/a	LTP207	ltpFR	11	n/a	n/a	n/a	n/a	n/a	n/a	n/a	n/a	n/a	n/a	n/a	n/a	n/a	n/a	n/a
810.97	n/a	PROB	405485	n/a	LTP207	ltpFR	11	n/a	n/a	n/a	n/a	n/a	n/a	10	6	2	2	n/a	n/a	n/a	n/a	n/a
812.35	n/a	PROB	406175	n/a	LTP207	ltpFR	11	n/a	n/a	n/a	n/a	n/a	n/a	18	4	8	6	n/a	n/a	n/a	n/a	n/a
813.838	n/a	PROB	406919	n/a	LTP207	ltpFR	11	n/a	n/a	n/a	n/a	n/a	n/a	15	5	6	4	n/a	n/a	n/a	n/a	n/a
815.236	n/a	PROB	407618	n/a	LTP207	ltpFR	11	n/a	n/a	n/a	n/a	n/a	n/a	18	6	3	9	n/a	n/a	n/a	n/a	n/a
818.59	n/a	PROB	409295	n/a	LTP207	ltpFR	11	n/a	n/a	n/a	n/a	n/a	n/a	12	2	7	3	n/a	n/a	n/a	n/a	n/a
820.264	n/a	PROB	410132	n/a	LTP207	ltpFR	11	n/a	n/a	n/a	n/a	n/a	n/a	9	3	4	2	n/a	n/a	n/a	n/a	n/a
821.762	n/a	PROB	410881	n/a	LTP207	ltpFR	11	n/a	n/a	n/a	n/a	n/a	n/a	13	5	1	7	n/a	n/a	n/a	n/a	n/a
823.76	n/a	PROB	411880	n/a	LTP207	ltpFR	11	n/a	n/a	n/a	n/a	n/a	n/a	13	6	3	4	n/a	n/a	n/a	n/a	n/a
825.184	n/a	STOP	412592	n/a	LTP207	ltpFR	11	n/a	n/a	n/a	n/a	n/a	n/a	n/a	n/a	n/a	n/a	n/a	n/a	n/a	n/a	n/a
826.922	n/a	WORD	413461	wordpools/wasnorm_wordpool_less_exclusions.txt	LTP207	ltpFR	11	3	1	FORT	595	n/a	0	n/a	0	0	0	1	0.412841796875	0.57763671875	upper	../fonts/zerothre.ttf
829.934	n/a	START	414967	n/a	LTP207	ltpFR	11	n/a	n/a	n/a	n/a	n/a	n/a	n/a	n/a	n/a	n/a	n/a	n/a	n/a	n/a	n/a
830.986	n/a	PROB	415493	n/a	LTP207	ltpFR	11	n/a	n/a	n/a	n/a	n/a	n/a	14	6	1	7	n/a	n/a	n/a	n/a	n/a
832.368	n/a	PROB	416184	n/a	LTP207	ltpFR	11	n/a	n/a	n/a	n/a	n/a	n/a	9	1	7	1	n/a	n/a	n/a	n/a	n/a
833.54	n/a	PROB	416770	n/a	LTP207	ltpFR	11	n/a	n/a	n/a	n/a	n/a	n/a	13	7	2	4	n/a	n/a	n/a	n/a	n/a
835.036	n/a	PROB	417518	n/a	LTP207	ltpFR	11	n/a	n/a	n/a	n/a	n/a	n/a	21	8	8	5	n/a	n/a	n/a	n/a	n/a
836.468	n/a	PROB	418234	n/a	LTP207	ltpFR	11	n/a	n/a	n/a	n/a	n/a	n/a	19	5	7	7	n/a	n/a	n/a	n/a	n/a
838.148	n/a	PROB	419074	n/a	LTP207	ltpFR	11	n/a	n/a	n/a	n/a	n/a	n/a	5	2	2	1	n/a	n/a	n/a	n/a	n/a
840.432	n/a	PROB	420216	n/a	LTP207	ltpFR	11	n/a	n/a	n/a	n/a	n/a	n/a	18	9	7	2	n/a	n/a	n/a	n/a	n/a
843.852	n/a	PROB	421926	n/a	LTP207	ltpFR	11	n/a	n/a	n/a	n/a	n/a	n/a	22	9	9	4	n/a	n/a	n/a	n/a	n/a
845.45	n/a	STOP	422725	n/a	LTP207	ltpFR	11	n/a	n/a	n/a	n/a	n/a	n/a	n/a	n/a	n/a	n/a	n/a	n/a	n/a	n/a	n/a
846.774	n/a	WORD	423387	wordpools/wasnorm_wordpool_less_exclusions.txt	LTP207	ltpFR	11	3	0	MAILMAN	858	n/a	1	n/a	0	0	0	0	0.5869140625	0.422607421875	lower	../fonts/amplitud.ttf
849.786	n/a	START	424893	n/a	LTP207	ltpFR	11	n/a	n/a	n/a	n/a	n/a	n/a	n/a	n/a	n/a	n/a	n/a	n/a	n/a	n/a	n/a
850.812	n/a	PROB	425406	n/a	LTP207	ltpFR	11	n/a	n/a	n/a	n/a	n/a	n/a	11	7	2	2	n/a	n/a	n/a	n/a	n/a
852.562	n/a	PROB	426281	n/a	LTP207	ltpFR	11	n/a	n/a	n/a	n/a	n/a	n/a	20	5	6	9	n/a	n/a	n/a	n/a	n/a
854.168	n/a	PROB	427084	n/a	LTP207	ltpFR	11	n/a	n/a	n/a	n/a	n/a	n/a	12	6	2	4	n/a	n/a	n/a	n/a	n/a
856.126	n/a	PROB	428063	n/a	LTP207	ltpFR	11	n/a	n/a	n/a	n/a	n/a	n/a	12	5	1	6	n/a	n/a	n/a	n/a	n/a
857.522	n/a	PROB	428761	n/a	LTP207	ltpFR	11	n/a	n/a	n/a	n/a	n/a	n/a	14	9	4	1	n/a	n/a	n/a	n/a	n/a
859.438	n/a	PROB	429719	n/a	LTP207	ltpFR	11	n/a	n/a	n/a	n/a	n/a	n/a	16	8	5	3	n/a	n/a	n/a	n/a	n/a
861.086	n/a	PROB	430543	n/a	LTP207	ltpFR	11	n/a	n/a	n/a	n/a	n/a	n/a	17	5	4	8	n/a	n/a	n/a	n/a	n/a
862.842	n/a	PROB	431421	n/a	LTP207	ltpFR	11	n/a	n/a	n/a	n/a	n/a	n/a	18	2	9	7	n/a	n/a	n/a	n/a	n/a
865.034	n/a	STOP	432517	n/a	LTP207	ltpFR	11	n/a	n/a	n/a	n/a	n/a	n/a	n/a	n/a	n/a	n/a	n/a	n/a	n/a	n/a	n/a
866.616	n/a	WORD	433308	wordpools/wasnorm_wordpool_less_exclusions.txt	LTP207	ltpFR	11	3	0	STAMP	1370	n/a	0	n/a	0	0	0	0	0.5869140625	0.422607421875	lower	../fonts/amplitud.ttf
869.628	n/a	START	434814	n/a	LTP207	ltpFR	11	n/a	n/a	n/a	n/a	n/a	n/a	n/a	n/a	n/a	n/a	n/a	n/a	n/a	n/a	n/a
870.806	n/a	PROB	435403	n/a	LTP207	ltpFR	11	n/a	n/a	n/a	n/a	n/a	n/a	8	2	2	4	n/a	n/a	n/a	n/a	n/a
872.822	n/a	PROB	436411	n/a	LTP207	ltpFR	11	n/a	n/a	n/a	n/a	n/a	n/a	13	4	7	2	n/a	n/a	n/a	n/a	n/a
874.664	n/a	PROB	437332	n/a	LTP207	ltpFR	11	n/a	n/a	n/a	n/a	n/a	n/a	11	3	5	3	n/a	n/a	n/a	n/a	n/a
876.136	n/a	PROB	438068	n/a	LTP207	ltpFR	11	n/a	n/a	n/a	n/a	n/a	n/a	15	2	6	7	n/a	n/a	n/a	n/a	n/a
877.642	n/a	PROB	438821	n/a	LTP207	ltpFR	11	n/a	n/a	n/a	n/a	n/a	n/a	12	6	2	4	n/a	n/a	n/a	n/a	n/a
879.098	n/a	PROB	439549	n/a	LTP207	ltpFR	11	n/a	n/a	n/a	n/a	n/a	n/a	18	9	3	6	n/a	n/a	n/a	n/a	n/a
881.306	n/a	PROB	440653	n/a	LTP207	ltpFR	11	n/a	n/a	n/a	n/a	n/a	n/a	16	2	8	6	n/a	n/a	n/a	n/a	n/a
882.51	n/a	PROB	441255	n/a	LTP207	ltpFR	11	n/a	n/a	n/a	n/a	n/a	n/a	18	5	9	4	n/a	n/a	n/a	n/a	n/a
884.246	n/a	STOP	442123	n/a	LTP207	ltpFR	11	n/a	n/a	n/a	n/a	n/a	n/a	n/a	n/a	n/a	n/a	n/a	n/a	n/a	n/a	n/a
886.75	n/a	WORD	443375	wordpools/wasnorm_wordpool_less_exclusions.txt	LTP207	ltpFR	11	3	0	LOCK	838	n/a	0	n/a	0	0	0	0	0.5869140625	0.422607421875	lower	../fonts/amplitud.ttf
889.762	n/a	START	444881	n/a	LTP207	ltpFR	11	n/a	n/a	n/a	n/a	n/a	n/a	n/a	n/a	n/a	n/a	n/a	n/a	n/a	n/a	n/a
890.816	n/a	PROB	445408	n/a	LTP207	ltpFR	11	n/a	n/a	n/a	n/a	n/a	n/a	18	9	5	4	n/a	n/a	n/a	n/a	n/a
892.136	n/a	PROB	446068	n/a	LTP207	ltpFR	11	n/a	n/a	n/a	n/a	n/a	n/a	12	9	1	2	n/a	n/a	n/a	n/a	n/a
893.576	n/a	PROB	446788	n/a	LTP207	ltpFR	11	n/a	n/a	n/a	n/a	n/a	n/a	23	7	9	7	n/a	n/a	n/a	n/a	n/a
896.888	n/a	PROB	448444	n/a	LTP207	ltpFR	11	n/a	n/a	n/a	n/a	n/a	n/a	17	8	8	1	n/a	n/a	n/a	n/a	n/a
898.89	n/a	PROB	449445	n/a	LTP207	ltpFR	11	n/a	n/a	n/a	n/a	n/a	n/a	16	6	8	2	n/a	n/a	n/a	n/a	n/a
900.854	n/a	PROB	450427	n/a	LTP207	ltpFR	11	n/a	n/a	n/a	n/a	n/a	n/a	13	3	6	4	n/a	n/a	n/a	n/a	n/a
902.184	n/a	PROB	451092	n/a	LTP207	ltpFR	11	n/a	n/a	n/a	n/a	n/a	n/a	3	1	1	1	n/a	n/a	n/a	n/a	n/a
903.24	n/a	PROB	451620	n/a	LTP207	ltpFR	11	n/a	n/a	n/a	n/a	n/a	n/a	11	3	1	7	n/a	n/a	n/a	n/a	n/a
904.396	n/a	STOP	452198	n/a	LTP207	ltpFR	11	n/a	n/a	n/a	n/a	n/a	n/a	n/a	n/a	n/a	n/a	n/a	n/a	n/a	n/a	n/a
906.642	n/a	WORD	453321	wordpools/wasnorm_wordpool_less_exclusions.txt	LTP207	ltpFR	11	3	0	BRIDE	173	n/a	1	n/a	0	0	0	0	0.5869140625	0.422607421875	lower	../fonts/amplitud.ttf
909.654	n/a	START	454827	n/a	LTP207	ltpFR	11	n/a	n/a	n/a	n/a	n/a	n/a	n/a	n/a	n/a	n/a	n/a	n/a	n/a	n/a	n/a
910.674	n/a	PROB	455337	n/a	LTP207	ltpFR	11	n/a	n/a	n/a	n/a	n/a	n/a	14	2	9	3	n/a	n/a	n/a	n/a	n/a
913.01	n/a	PROB	456505	n/a	LTP207	ltpFR	11	n/a	n/a	n/a	n/a	n/a	n/a	16	4	9	3	n/a	n/a	n/a	n/a	n/a
914.724	n/a	PROB	457362	n/a	LTP207	ltpFR	11	n/a	n/a	n/a	n/a	n/a	n/a	15	6	8	1	n/a	n/a	n/a	n/a	n/a
916.264	n/a	PROB	458132	n/a	LTP207	ltpFR	11	n/a	n/a	n/a	n/a	n/a	n/a	4	1	1	2	n/a	n/a	n/a	n/a	n/a
917.578	n/a	PROB	458789	n/a	LTP207	ltpFR	11	n/a	n/a	n/a	n/a	n/a	n/a	17	6	5	6	n/a	n/a	n/a	n/a	n/a
919.86	n/a	PROB	459930	n/a	LTP207	ltpFR	11	n/a	n/a	n/a	n/a	n/a	n/a	13	5	6	2	n/a	n/a	n/a	n/a	n/a
922.254	n/a	PROB	461127	n/a	LTP207	ltpFR	11	n/a	n/a	n/a	n/a	n/a	n/a	14	4	4	6	n/a	n/a	n/a	n/a	n/a
924.278	n/a	STOP	462139	n/a	LTP207	ltpFR	11	n/a	n/a	n/a	n/a	n/a	n/a	n/a	n/a	n/a	n/a	n/a	n/a	n/a	n/a	n/a
926.536	n/a	WORD	463268	wordpools/wasnorm_wordpool_less_exclusions.txt	LTP207	ltpFR	11	3	0	TOMATO	1476	n/a	0	n/a	0	0	0	0	0.5869140625	0.422607421875	lower	../fonts/amplitud.ttf
929.546	n/a	START	464773	n/a	LTP207	ltpFR	11	n/a	n/a	n/a	n/a	n/a	n/a	n/a	n/a	n/a	n/a	n/a	n/a	n/a	n/a	n/a
930.668	n/a	PROB	465334	n/a	LTP207	ltpFR	11	n/a	n/a	n/a	n/a	n/a	n/a	20	6	5	9	n/a	n/a	n/a	n/a	n/a
932.336	n/a	PROB	466168	n/a	LTP207	ltpFR	11	n/a	n/a	n/a	n/a	n/a	n/a	12	2	3	7	n/a	n/a	n/a	n/a	n/a
934.944	n/a	PROB	467472	n/a	LTP207	ltpFR	11	n/a	n/a	n/a	n/a	n/a	n/a	14	2	3	9	n/a	n/a	n/a	n/a	n/a
937.254	n/a	PROB	468627	n/a	LTP207	ltpFR	11	n/a	n/a	n/a	n/a	n/a	n/a	5	2	1	2	n/a	n/a	n/a	n/a	n/a
938.282	n/a	PROB	469141	n/a	LTP207	ltpFR	11	n/a	n/a	n/a	n/a	n/a	n/a	20	5	8	7	n/a	n/a	n/a	n/a	n/a
941.336	n/a	PROB	470668	n/a	LTP207	ltpFR	11	n/a	n/a	n/a	n/a	n/a	n/a	14	2	7	5	n/a	n/a	n/a	n/a	n/a
942.78	n/a	PROB	471390	n/a	LTP207	ltpFR	11	n/a	n/a	n/a	n/a	n/a	n/a	9	1	3	5	n/a	n/a	n/a	n/a	n/a
944.264	n/a	STOP	472132	n/a	LTP207	ltpFR	11	n/a	n/a	n/a	n/a	n/a	n/a	n/a	n/a	n/a	n/a	n/a	n/a	n/a	n/a	n/a
946.704	n/a	WORD	473352	wordpools/wasnorm_wordpool_less_exclusions.txt	LTP207	ltpFR	11	3	1	PIGEON	1065	n/a	1	n/a	0	0	0	1	0.412841796875	0.57763671875	upper	../fonts/zerothre.ttf
949.718	n/a	START	474859	n/a	LTP207	ltpFR	11	n/a	n/a	n/a	n/a	n/a	n/a	n/a	n/a	n/a	n/a	n/a	n/a	n/a	n/a	n/a
950.728	n/a	PROB	475364	n/a	LTP207	ltpFR	11	n/a	n/a	n/a	n/a	n/a	n/a	13	2	5	6	n/a	n/a	n/a	n/a	n/a
952.986	n/a	PROB	476493	n/a	LTP207	ltpFR	11	n/a	n/a	n/a	n/a	n/a	n/a	17	6	2	9	n/a	n/a	n/a	n/a	n/a
954.86	n/a	PROB	477430	n/a	LTP207	ltpFR	11	n/a	n/a	n/a	n/a	n/a	n/a	15	2	7	6	n/a	n/a	n/a	n/a	n/a
956.132	n/a	PROB	478066	n/a	LTP207	ltpFR	11	n/a	n/a	n/a	n/a	n/a	n/a	8	5	1	2	n/a	n/a	n/a	n/a	n/a
957.804	n/a	PROB	478902	n/a	LTP207	ltpFR	11	n/a	n/a	n/a	n/a	n/a	n/a	22	5	9	8	n/a	n/a	n/a	n/a	n/a
959.47	n/a	PROB	479735	n/a	LTP207	ltpFR	11	n/a	n/a	n/a	n/a	n/a	n/a	13	5	3	5	n/a	n/a	n/a	n/a	n/a
961.134	n/a	PROB	480567	n/a	LTP207	ltpFR	11	n/a	n/a	n/a	n/a	n/a	n/a	11	4	1	6	n/a	n/a	n/a	n/a	n/a
962.466	n/a	PROB	481233	n/a	LTP207	ltpFR	11	n/a	n/a	n/a	n/a	n/a	n/a	8	2	4	2	n/a	n/a	n/a	n/a	n/a
964.192	n/a	STOP	482096	n/a	LTP207	ltpFR	11	n/a	n/a	n/a	n/a	n/a	n/a	n/a	n/a	n/a	n/a	n/a	n/a	n/a	n/a	n/a
966.948	n/a	WORD	483474	wordpools/wasnorm_wordpool_less_exclusions.txt	LTP207	ltpFR	11	3	1	COACH	331	n/a	1	n/a	0	0	0	1	0.412841796875	0.57763671875	upper	../fonts/zerothre.ttf
969.962	n/a	START	484981	n/a	LTP207	ltpFR	11	n/a	n/a	n/a	n/a	n/a	n/a	n/a	n/a	n/a	n/a	n/a	n/a	n/a	n/a	n/a
970.914	n/a	PROB	485457	n/a	LTP207	ltpFR	11	n/a	n/a	n/a	n/a	n/a	n/a	13	6	2	5	n/a	n/a	n/a	n/a	n/a
972.52	n/a	PROB	486260	n/a	LTP207	ltpFR	11	n/a	n/a	n/a	n/a	n/a	n/a	18	8	9	1	n/a	n/a	n/a	n/a	n/a
974.094	n/a	PROB	487047	n/a	LTP207	ltpFR	11	n/a	n/a	n/a	n/a	n/a	n/a	9	4	4	1	n/a	n/a	n/a	n/a	n/a
975.816	n/a	PROB	487908	n/a	LTP207	ltpFR	11	n/a	n/a	n/a	n/a	n/a	n/a	15	4	7	4	n/a	n/a	n/a	n/a	n/a
977.858	n/a	PROB	488929	n/a	LTP207	ltpFR	11	n/a	n/a	n/a	n/a	n/a	n/a	18	9	8	1	n/a	n/a	n/a	n/a	n/a
980.702	n/a	PROB	490351	n/a	LTP207	ltpFR	11	n/a	n/a	n/a	n/a	n/a	n/a	14	1	4	9	n/a	n/a	n/a	n/a	n/a
982.09	n/a	PROB	491045	n/a	LTP207	ltpFR	11	n/a	n/a	n/a	n/a	n/a	n/a	9	3	4	2	n/a	n/a	n/a	n/a	n/a
983.496	n/a	PROB	491748	n/a	LTP207	ltpFR	11	n/a	n/a	n/a	n/a	n/a	n/a	10	1	7	2	n/a	n/a	n/a	n/a	n/a
984.92	n/a	STOP	492460	n/a	LTP207	ltpFR	11	n/a	n/a	n/a	n/a	n/a	n/a	n/a	n/a	n/a	n/a	n/a	n/a	n/a	n/a	n/a
987.176	n/a	WORD	493588	wordpools/wasnorm_wordpool_less_exclusions.txt	LTP207	ltpFR	11	3	1	COMMITTEE	355	n/a	1	n/a	0	0	0	1	0.412841796875	0.57763671875	upper	../fonts/zerothre.ttf
990.188	n/a	START	495094	n/a	LTP207	ltpFR	11	n/a	n/a	n/a	n/a	n/a	n/a	n/a	n/a	n/a	n/a	n/a	n/a	n/a	n/a	n/a
991.192	n/a	PROB	495596	n/a	LTP207	ltpFR	11	n/a	n/a	n/a	n/a	n/a	n/a	17	1	9	7	n/a	n/a	n/a	n/a	n/a
992.772	n/a	PROB	496386	n/a	LTP207	ltpFR	11	n/a	n/a	n/a	n/a	n/a	n/a	16	2	7	7	n/a	n/a	n/a	n/a	n/a
994.964	n/a	PROB	497482	n/a	LTP207	ltpFR	11	n/a	n/a	n/a	n/a	n/a	n/a	12	4	1	7	n/a	n/a	n/a	n/a	n/a
996.252	n/a	PROB	498126	n/a	LTP207	ltpFR	11	n/a	n/a	n/a	n/a	n/a	n/a	16	3	6	7	n/a	n/a	n/a	n/a	n/a
998.108	n/a	PROB	499054	n/a	LTP207	ltpFR	11	n/a	n/a	n/a	n/a	n/a	n/a	19	9	2	8	n/a	n/a	n/a	n/a	n/a
999.658	n/a	PROB	499829	n/a	LTP207	ltpFR	11	n/a	n/a	n/a	n/a	n/a	n/a	22	9	6	7	n/a	n/a	n/a	n/a	n/a
1001.298	n/a	PROB	500649	n/a	LTP207	ltpFR	11	n/a	n/a	n/a	n/a	n/a	n/a	19	6	7	6	n/a	n/a	n/a	n/a	n/a
1003.212	n/a	PROB	501606	n/a	LTP207	ltpFR	11	n/a	n/a	n/a	n/a	n/a	n/a	10	4	1	5	n/a	n/a	n/a	n/a	n/a
1004.954	n/a	STOP	502477	n/a	LTP207	ltpFR	11	n/a	n/a	n/a	n/a	n/a	n/a	n/a	n/a	n/a	n/a	n/a	n/a	n/a	n/a	n/a
1007.322	n/a	WORD	503661	wordpools/wasnorm_wordpool_less_exclusions.txt	LTP207	ltpFR	11	3	1	BOOK	149	n/a	0	n/a	0	0	0	1	0.412841796875	0.57763671875	upper	../fonts/zerothre.ttf
1010.334	n/a	START	505167	n/a	LTP207	ltpFR	11	n/a	n/a	n/a	n/a	n/a	n/a	n/a	n/a	n/a	n/a	n/a	n/a	n/a	n/a	n/a
1011.528	n/a	PROB	505764	n/a	LTP207	ltpFR	11	n/a	n/a	n/a	n/a	n/a	n/a	17	9	7	1	n/a	n/a	n/a	n/a	n/a
1013.46	n/a	PROB	506730	n/a	LTP207	ltpFR	11	n/a	n/a	n/a	n/a	n/a	n/a	12	4	5	3	n/a	n/a	n/a	n/a	n/a
1014.748	n/a	PROB	507374	n/a	LTP207	ltpFR	11	n/a	n/a	n/a	n/a	n/a	n/a	8	1	1	6	n/a	n/a	n/a	n/a	n/a
1015.902	n/a	PROB	507951	n/a	LTP207	ltpFR	11	n/a	n/a	n/a	n/a	n/a	n/a	11	6	4	1	n/a	n/a	n/a	n/a	n/a
1016.998	n/a	PROB	508499	n/a	LTP207	ltpFR	11	n/a	n/a	n/a	n/a	n/a	n/a	12	1	4	7	n/a	n/a	n/a	n/a	n/a
1018.38	n/a	PROB	509190	n/a	LTP207	ltpFR	11	n/a	n/a	n/a	n/a	n/a	n/a	25	9	8	8	n/a	n/a	n/a	n/a	n/a
1020.722	n/a	PROB	510361	n/a	LTP207	ltpFR	11	n/a	n/a	n/a	n/a	n/a	n/a	14	6	7	1	n/a	n/a	n/a	n/a	n/a
1022.552	n/a	PROB	511276	n/a	LTP207	ltpFR	11	n/a	n/a	n/a	n/a	n/a	n/a	14	8	2	4	n/a	n/a	n/a	n/a	n/a
1023.732	n/a	PROB	511866	n/a	LTP207	ltpFR	11	n/a	n/a	n/a	n/a	n/a	n/a	14	2	3	9	n/a	n/a	n/a	n/a	n/a
1025.026	n/a	STOP	512513	n/a	LTP207	ltpFR	11	n/a	n/a	n/a	n/a	n/a	n/a	n/a	n/a	n/a	n/a	n/a	n/a	n/a	n/a	n/a
1027.204	n/a	WORD	513602	wordpools/wasnorm_wordpool_less_exclusions.txt	LTP207	ltpFR	11	3	0	CURTAIN	427	n/a	1	n/a	0	0	0	0	0.5869140625	0.422607421875	lower	../fonts/amplitud.ttf
1030.216	n/a	START	515108	n/a	LTP207	ltpFR	11	n/a	n/a	n/a	n/a	n/a	n/a	n/a	n/a	n/a	n/a	n/a	n/a	n/a	n/a	n/a
1031.402	n/a	PROB	515701	n/a	LTP207	ltpFR	11	n/a	n/a	n/a	n/a	n/a	n/a	21	5	8	8	n/a	n/a	n/a	n/a	n/a
1033.068	n/a	PROB	516534	n/a	LTP207	ltpFR	11	n/a	n/a	n/a	n/a	n/a	n/a	13	3	3	7	n/a	n/a	n/a	n/a	n/a
1034.498	n/a	PROB	517249	n/a	LTP207	ltpFR	11	n/a	n/a	n/a	n/a	n/a	n/a	17	6	3	8	n/a	n/a	n/a	n/a	n/a
1036.114	n/a	PROB	518057	n/a	LTP207	ltpFR	11	n/a	n/a	n/a	n/a	n/a	n/a	16	6	1	9	n/a	n/a	n/a	n/a	n/a
1037.552	n/a	PROB	518776	n/a	LTP207	ltpFR	11	n/a	n/a	n/a	n/a	n/a	n/a	17	4	9	4	n/a	n/a	n/a	n/a	n/a
1039.4	n/a	PROB	519700	n/a	LTP207	ltpFR	11	n/a	n/a	n/a	n/a	n/a	n/a	15	6	7	2	n/a	n/a	n/a	n/a	n/a
1040.814	n/a	PROB	520407	n/a	LTP207	ltpFR	11	n/a	n/a	n/a	n/a	n/a	n/a	11	4	4	3	n/a	n/a	n/a	n/a	n/a
1042.254	n/a	PROB	521127	n/a	LTP207	ltpFR	11	n/a	n/a	n/a	n/a	n/a	n/a	24	9	6	9	n/a	n/a	n/a	n/a	n/a
1045.188	n/a	STOP	522594	n/a	LTP207	ltpFR	11	n/a	n/a	n/a	n/a	n/a	n/a	n/a	n/a	n/a	n/a	n/a	n/a	n/a	n/a	n/a
1047.09	n/a	WORD	523545	wordpools/wasnorm_wordpool_less_exclusions.txt	LTP207	ltpFR	11	3	0	MUSTARD	935	n/a	0	n/a	0	0	0	0	0.5869140625	0.422607421875	lower	../fonts/amplitud.ttf
1050.1	n/a	START	525050	n/a	LTP207	ltpFR	11	n/a	n/a	n/a	n/a	n/a	n/a	n/a	n/a	n/a	n/a	n/a	n/a	n/a	n/a	n/a
1051.104	n/a	PROB	525552	n/a	LTP207	ltpFR	11	n/a	n/a	n/a	n/a	n/a	n/a	13	3	3	7	n/a	n/a	n/a	n/a	n/a
1052.802	n/a	PROB	526401	n/a	LTP207	ltpFR	11	n/a	n/a	n/a	n/a	n/a	n/a	12	2	6	4	n/a	n/a	n/a	n/a	n/a
1054.858	n/a	PROB	527429	n/a	LTP207	ltpFR	11	n/a	n/a	n/a	n/a	n/a	n/a	20	9	4	7	n/a	n/a	n/a	n/a	n/a
1057.78	n/a	PROB	528890	n/a	LTP207	ltpFR	11	n/a	n/a	n/a	n/a	n/a	n/a	14	1	4	9	n/a	n/a	n/a	n/a	n/a
1059.644	n/a	PROB	529822	n/a	LTP207	ltpFR	11	n/a	n/a	n/a	n/a	n/a	n/a	18	6	9	3	n/a	n/a	n/a	n/a	n/a
1061.176	n/a	PROB	530588	n/a	LTP207	ltpFR	11	n/a	n/a	n/a	n/a	n/a	n/a	11	2	2	7	n/a	n/a	n/a	n/a	n/a
1062.414	n/a	PROB	531207	n/a	LTP207	ltpFR	11	n/a	n/a	n/a	n/a	n/a	n/a	6	1	3	2	n/a	n/a	n/a	n/a	n/a
1063.702	n/a	PROB	531851	n/a	LTP207	ltpFR	11	n/a	n/a	n/a	n/a	n/a	n/a	17	3	5	8	n/a	n/a	n/a	n/a	n/a
1065.39	n/a	STOP	532695	n/a	LTP207	ltpFR	11	n/a	n/a	n/a	n/a	n/a	n/a	n/a	n/a	n/a	n/a	n/a	n/a	n/a	n/a	n/a
1066.99	n/a	WORD	533495	wordpools/wasnorm_wordpool_less_exclusions.txt	LTP207	ltpFR	11	3	0	BUYER	208	n/a	1	n/a	0	0	0	0	0.5869140625	0.422607421875	lower	../fonts/amplitud.ttf
1070.0	n/a	START	535000	n/a	LTP207	ltpFR	11	n/a	n/a	n/a	n/a	n/a	n/a	n/a	n/a	n/a	n/a	n/a	n/a	n/a	n/a	n/a
1071.18	n/a	PROB	535590	n/a	LTP207	ltpFR	11	n/a	n/a	n/a	n/a	n/a	n/a	19	8	6	5	n/a	n/a	n/a	n/a	n/a
1072.66	n/a	PROB	536330	n/a	LTP207	ltpFR	11	n/a	n/a	n/a	n/a	n/a	n/a	14	4	1	9	n/a	n/a	n/a	n/a	n/a
1074.734	n/a	PROB	537367	n/a	LTP207	ltpFR	11	n/a	n/a	n/a	n/a	n/a	n/a	8	4	3	1	n/a	n/a	n/a	n/a	n/a
1075.932	n/a	PROB	537966	n/a	LTP207	ltpFR	11	n/a	n/a	n/a	n/a	n/a	n/a	12	5	2	5	n/a	n/a	n/a	n/a	n/a
1077.338	n/a	PROB	538669	n/a	LTP207	ltpFR	11	n/a	n/a	n/a	n/a	n/a	n/a	18	6	5	7	n/a	n/a	n/a	n/a	n/a
1080.156	n/a	PROB	540078	n/a	LTP207	ltpFR	11	n/a	n/a	n/a	n/a	n/a	n/a	4	2	1	1	n/a	n/a	n/a	n/a	n/a
1081.344	n/a	PROB	540672	n/a	LTP207	ltpFR	11	n/a	n/a	n/a	n/a	n/a	n/a	9	1	4	4	n/a	n/a	n/a	n/a	n/a
1082.542	n/a	PROB	541271	n/a	LTP207	ltpFR	11	n/a	n/a	n/a	n/a	n/a	n/a	11	1	9	1	n/a	n/a	n/a	n/a	n/a
1083.678	n/a	PROB	541839	n/a	LTP207	ltpFR	11	n/a	n/a	n/a	n/a	n/a	n/a	11	5	1	3	n/a	n/a	n/a	n/a	n/a
1085.494	n/a	STOP	542747	n/a	LTP207	ltpFR	11	n/a	n/a	n/a	n/a	n/a	n/a	n/a	n/a	n/a	n/a	n/a	n/a	n/a	n/a	n/a
1087.886	n/a	REC_START	543943	n/a	LTP207	ltpFR	11	3	n/a	n/a	n/a	n/a	n/a	n/a	0	0	0	n/a	n/a	n/a	n/a	n/a
1089.752	n/a	REC_WORD	544876	wordpools/wasnorm_wordpool_less_exclusions.txt	LTP207	ltpFR	11	3	0	BUYER	208	n/a	1	n/a	0	0	0	n/a	n/a	n/a	n/a	n/a
1090.774	n/a	REC_WORD_VV	545387	wordpools/wasnorm_wordpool_less_exclusions.txt	LTP207	ltpFR	11	3	n/a	<>	-1	n/a	n/a	n/a	0	0	0	n/a	n/a	n/a	n/a	n/a
1092.994	n/a	REC_WORD	546497	wordpools/wasnorm_wordpool_less_exclusions.txt	LTP207	ltpFR	11	3	0	BRIDE	173	n/a	1	n/a	0	0	0	n/a	n/a	n/a	n/a	n/a
1095.06	n/a	REC_WORD	547530	wordpools/wasnorm_wordpool_less_exclusions.txt	LTP207	ltpFR	11	3	0	MAILMAN	858	n/a	1	n/a	0	0	0	n/a	n/a	n/a	n/a	n/a
1096.442	n/a	REC_WORD	548221	wordpools/wasnorm_wordpool_less_exclusions.txt	LTP207	ltpFR	11	3	0	STAMP	1370	n/a	0	n/a	0	0	0	n/a	n/a	n/a	n/a	n/a
1098.418	n/a	REC_WORD	549209	wordpools/wasnorm_wordpool_less_exclusions.txt	LTP207	ltpFR	11	3	0	LOCK	838	n/a	0	n/a	0	0	0	n/a	n/a	n/a	n/a	n/a
1100.29	n/a	REC_WORD	550145	wordpools/wasnorm_wordpool_less_exclusions.txt	LTP207	ltpFR	11	3	0	TOMATO	1476	n/a	0	n/a	0	0	0	n/a	n/a	n/a	n/a	n/a
1104.404	n/a	REC_WORD	552202	wordpools/wasnorm_wordpool_less_exclusions.txt	LTP207	ltpFR	11	3	1	QUAIL	1147	n/a	1	n/a	0	0	0	n/a	n/a	n/a	n/a	n/a
1115.2	n/a	REC_WORD	557600	wordpools/wasnorm_wordpool_less_exclusions.txt	LTP207	ltpFR	11	3	1	BOOK	149	n/a	0	n/a	0	0	0	n/a	n/a	n/a	n/a	n/a
1119.022	n/a	REC_WORD	559511	wordpools/wasnorm_wordpool_less_exclusions.txt	LTP207	ltpFR	11	3	0	CURTAIN	427	n/a	1	n/a	0	0	0	n/a	n/a	n/a	n/a	n/a
1123.966	n/a	REC_WORD	561983	wordpools/wasnorm_wordpool_less_exclusions.txt	LTP207	ltpFR	11	3	1	PIGEON	1065	n/a	1	n/a	0	0	0	n/a	n/a	n/a	n/a	n/a
1133.066	n/a	REC_WORD	566533	wordpools/wasnorm_wordpool_less_exclusions.txt	LTP207	ltpFR	11	3	1	COMMITTEE	355	n/a	1	n/a	0	0	0	n/a	n/a	n/a	n/a	n/a
1189.148	n/a	WORD	594574	wordpools/wasnorm_wordpool_less_exclusions.txt	LTP207	ltpFR	11	4	0	CAT	257	n/a	0	n/a	0	0	0	0	0.5869140625	0.422607421875	lower	../fonts/amplitud.ttf
1193.248	n/a	WORD	596624	wordpools/wasnorm_wordpool_less_exclusions.txt	LTP207	ltpFR	11	4	0	COOKIE	374	n/a	0	n/a	0	0	0	0	0.5869140625	0.422607421875	lower	../fonts/amplitud.ttf
1197.264	n/a	WORD	598632	wordpools/wasnorm_wordpool_less_exclusions.txt	LTP207	ltpFR	11	4	0	ALMOND	18	n/a	0	n/a	0	0	0	0	0.5869140625	0.422607421875	lower	../fonts/amplitud.ttf
1201.202	n/a	WORD	600601	wordpools/wasnorm_wordpool_less_exclusions.txt	LTP207	ltpFR	11	4	0	SWORD	1423	n/a	1	n/a	0	0	0	0	0.5869140625	0.422607421875	lower	../fonts/amplitud.ttf
1205.15	n/a	WORD	602575	wordpools/wasnorm_wordpool_less_exclusions.txt	LTP207	ltpFR	11	4	1	FOREST	593	n/a	0	n/a	0	0	0	1	0.412841796875	0.57763671875	upper	../fonts/zerothre.ttf
1209.208	n/a	WORD	604604	wordpools/wasnorm_wordpool_less_exclusions.txt	LTP207	ltpFR	11	4	1	KITTEN	780	n/a	2	n/a	0	0	0	1	0.412841796875	0.57763671875	upper	../fonts/zerothre.ttf
1210.62	n/a	KEY_MSG	605310	n/a	LTP207	ltpFR	11	4	n/a	n/a	n/a	n/a	n/a	n/a	0	0	0	n/a	n/a	n/a	n/a	n/a
1213.282	n/a	WORD	606641	wordpools/wasnorm_wordpool_less_exclusions.txt	LTP207	ltpFR	11	4	0	CAPE	237	n/a	1	n/a	0	0	0	0	0.5869140625	0.422607421875	lower	../fonts/amplitud.ttf
1217.448	n/a	WORD	608724	wordpools/wasnorm_wordpool_less_exclusions.txt	LTP207	ltpFR	11	4	0	ORNAMENT	985	n/a	0	n/a	0	0	0	0	0.5869140625	0.422607421875	lower	../fonts/amplitud.ttf
1221.38	n/a	WORD	610690	wordpools/wasnorm_wordpool_less_exclusions.txt	LTP207	ltpFR	11	4	0	TAXI	1438	n/a	1	n/a	0	0	0	0	0.5869140625	0.422607421875	lower	../fonts/amplitud.ttf
1225.262	n/a	WORD	612631	wordpools/wasnorm_wordpool_less_exclusions.txt	LTP207	ltpFR	11	4	0	CREATURE	403	n/a	1	n/a	0	0	0	0	0.5869140625	0.422607421875	lower	../fonts/amplitud.ttf
1229.292	n/a	WORD	614646	wordpools/wasnorm_wordpool_less_exclusions.txt	LTP207	ltpFR	11	4	1	POSSUM	1112	n/a	1	n/a	0	0	0	1	0.412841796875	0.57763671875	upper	../fonts/zerothre.ttf
1233.284	n/a	WORD	616642	wordpools/wasnorm_wordpool_less_exclusions.txt	LTP207	ltpFR	11	4	1	PROFESSIONAL	1130	n/a	1	n/a	0	0	0	1	0.412841796875	0.57763671875	upper	../fonts/zerothre.ttf
1237.156	n/a	WORD	618578	wordpools/wasnorm_wordpool_less_exclusions.txt	LTP207	ltpFR	11	4	1	SPIDER	1351	n/a	1	n/a	0	0	0	1	0.412841796875	0.57763671875	upper	../fonts/zerothre.ttf
1241.238	n/a	WORD	620619	wordpools/wasnorm_wordpool_less_exclusions.txt	LTP207	ltpFR	11	4	1	TANK	1432	n/a	0	n/a	0	0	0	1	0.412841796875	0.57763671875	upper	../fonts/zerothre.ttf
1245.322	n/a	WORD	622661	wordpools/wasnorm_wordpool_less_exclusions.txt	LTP207	ltpFR	11	4	1	TEAM	1441	n/a	1	n/a	0	0	0	1	0.412841796875	0.57763671875	upper	../fonts/zerothre.ttf
1249.496	n/a	WORD	624748	wordpools/wasnorm_wordpool_less_exclusions.txt	LTP207	ltpFR	11	4	1	FIELD	562	n/a	0	n/a	0	0	0	1	0.412841796875	0.57763671875	upper	../fonts/zerothre.ttf
1255.31	n/a	REC_START	627655	n/a	LTP207	ltpFR	11	4	n/a	n/a	n/a	n/a	n/a	n/a	0	0	0	n/a	n/a	n/a	n/a	n/a
1257.42	n/a	REC_WORD	628710	wordpools/wasnorm_wordpool_less_exclusions.txt	LTP207	ltpFR	11	4	1	POSSUM	1112	n/a	1	n/a	0	0	0	n/a	n/a	n/a	n/a	n/a
1258.784	n/a	REC_WORD	629392	wordpools/wasnorm_wordpool_less_exclusions.txt	LTP207	ltpFR	11	4	1	PROFESSIONAL	1130	n/a	1	n/a	0	0	0	n/a	n/a	n/a	n/a	n/a
1261.846	n/a	REC_WORD	630923	wordpools/wasnorm_wordpool_less_exclusions.txt	LTP207	ltpFR	11	4	1	SPIDER	1351	n/a	1	n/a	0	0	0	n/a	n/a	n/a	n/a	n/a
1264.58	n/a	REC_WORD	632290	wordpools/wasnorm_wordpool_less_exclusions.txt	LTP207	ltpFR	11	4	1	TANK	1432	n/a	0	n/a	0	0	0	n/a	n/a	n/a	n/a	n/a
1266.8	n/a	REC_WORD	633400	wordpools/wasnorm_wordpool_less_exclusions.txt	LTP207	ltpFR	11	4	1	FIELD	562	n/a	0	n/a	0	0	0	n/a	n/a	n/a	n/a	n/a
1269.608	n/a	REC_WORD	634804	wordpools/wasnorm_wordpool_less_exclusions.txt	LTP207	ltpFR	11	4	1	TEAM	1441	n/a	1	n/a	0	0	0	n/a	n/a	n/a	n/a	n/a
1273.106	n/a	REC_WORD	636553	wordpools/wasnorm_wordpool_less_exclusions.txt	LTP207	ltpFR	11	4	1	KITTEN	780	n/a	2	n/a	0	0	0	n/a	n/a	n/a	n/a	n/a
1274.876	n/a	REC_WORD	637438	wordpools/wasnorm_wordpool_less_exclusions.txt	LTP207	ltpFR	11	4	0	CAT	257	n/a	0	n/a	0	0	0	n/a	n/a	n/a	n/a	n/a
1277.126	n/a	REC_WORD	638563	wordpools/wasnorm_wordpool_less_exclusions.txt	LTP207	ltpFR	11	4	0	COOKIE	374	n/a	0	n/a	0	0	0	n/a	n/a	n/a	n/a	n/a
1279.506	n/a	REC_WORD	639753	wordpools/wasnorm_wordpool_less_exclusions.txt	LTP207	ltpFR	11	4	0	SWORD	1423	n/a	1	n/a	0	0	0	n/a	n/a	n/a	n/a	n/a
1282.576	n/a	REC_WORD	641288	wordpools/wasnorm_wordpool_less_exclusions.txt	LTP207	ltpFR	11	4	1	FOREST	593	n/a	0	n/a	0	0	0	n/a	n/a	n/a	n/a	n/a
1287.808	n/a	REC_WORD	643904	wordpools/wasnorm_wordpool_less_exclusions.txt	LTP207	ltpFR	11	4	0	CAPE	237	n/a	1	n/a	0	0	0	n/a	n/a	n/a	n/a	n/a
1291.326	n/a	REC_WORD	645663	wordpools/wasnorm_wordpool_less_exclusions.txt	LTP207	ltpFR	11	4	1	KITTEN	780	n/a	2	n/a	0	0	0	n/a	n/a	n/a	n/a	n/a
1333.524	n/a	WORD	666762	wordpools/wasnorm_wordpool_less_exclusions.txt	LTP207	ltpFR	11	5	1	MOVIE	927	n/a	0	n/a	0	0	0	1	0.412841796875	0.57763671875	upper	../fonts/zerothre.ttf
1337.39	n/a	WORD	668695	wordpools/wasnorm_wordpool_less_exclusions.txt	LTP207	ltpFR	11	5	1	SHARK	1275	n/a	1	n/a	0	0	0	1	0.412841796875	0.57763671875	upper	../fonts/zerothre.ttf
1341.504	n/a	WORD	670752	wordpools/wasnorm_wordpool_less_exclusions.txt	LTP207	ltpFR	11	5	1	PUB	1135	n/a	0	n/a	0	0	0	1	0.412841796875	0.57763671875	upper	../fonts/zerothre.ttf
1345.502	n/a	WORD	672751	wordpools/wasnorm_wordpool_less_exclusions.txt	LTP207	ltpFR	11	5	1	BARTENDER	92	n/a	1	n/a	0	0	0	1	0.412841796875	0.57763671875	upper	../fonts/zerothre.ttf
1349.67	n/a	WORD	674835	wordpools/wasnorm_wordpool_less_exclusions.txt	LTP207	ltpFR	11	5	1	BUSH	202	n/a	0	n/a	0	0	0	1	0.412841796875	0.57763671875	upper	../fonts/zerothre.ttf
1353.65	n/a	WORD	676825	wordpools/wasnorm_wordpool_less_exclusions.txt	LTP207	ltpFR	11	5	1	CATERPILLAR	259	n/a	1	n/a	0	0	0	1	0.412841796875	0.57763671875	upper	../fonts/zerothre.ttf
1357.65	n/a	WORD	678825	wordpools/wasnorm_wordpool_less_exclusions.txt	LTP207	ltpFR	11	5	1	AGENT	10	n/a	1	n/a	0	0	0	1	0.412841796875	0.57763671875	upper	../fonts/zerothre.ttf
1361.64	n/a	WORD	680820	wordpools/wasnorm_wordpool_less_exclusions.txt	LTP207	ltpFR	11	5	1	SPY	1360	n/a	1	n/a	0	0	0	1	0.412841796875	0.57763671875	upper	../fonts/zerothre.ttf
1365.68	n/a	WORD	682840	wordpools/wasnorm_wordpool_less_exclusions.txt	LTP207	ltpFR	11	5	1	VAN	1548	n/a	0	n/a	0	0	0	1	0.412841796875	0.57763671875	upper	../fonts/zerothre.ttf
1369.864	n/a	WORD	684932	wordpools/wasnorm_wordpool_less_exclusions.txt	LTP207	ltpFR	11	5	1	EXPLOSION	544	n/a	0	n/a	0	0	0	1	0.412841796875	0.57763671875	upper	../fonts/zerothre.ttf
1373.704	n/a	WORD	686852	wordpools/wasnorm_wordpool_less_exclusions.txt	LTP207	ltpFR	11	5	1	GROCERIES	663	n/a	0	n/a	0	0	0	1	0.412841796875	0.57763671875	upper	../fonts/zerothre.ttf
1377.742	n/a	WORD	688871	wordpools/wasnorm_wordpool_less_exclusions.txt	LTP207	ltpFR	11	5	1	CUPBOARD	425	n/a	0	n/a	0	0	0	1	0.412841796875	0.57763671875	upper	../fonts/zerothre.ttf
1381.69	n/a	WORD	690845	wordpools/wasnorm_wordpool_less_exclusions.txt	LTP207	ltpFR	11	5	1	RUM	1217	n/a	0	n/a	0	0	0	1	0.412841796875	0.57763671875	upper	../fonts/zerothre.ttf
1385.766	n/a	WORD	692883	wordpools/wasnorm_wordpool_less_exclusions.txt	LTP207	ltpFR	11	5	1	HAM	678	n/a	0	n/a	0	0	0	1	0.412841796875	0.57763671875	upper	../fonts/zerothre.ttf
1389.84	n/a	WORD	694920	wordpools/wasnorm_wordpool_less_exclusions.txt	LTP207	ltpFR	11	5	1	SAP	1233	n/a	0	n/a	0	0	0	1	0.412841796875	0.57763671875	upper	../fonts/zerothre.ttf
1393.72	n/a	WORD	696860	wordpools/wasnorm_wordpool_less_exclusions.txt	LTP207	ltpFR	11	5	1	PICNIC	1060	n/a	0	n/a	0	0	0	1	0.412841796875	0.57763671875	upper	../fonts/zerothre.ttf
1396.732	n/a	START	698366	n/a	LTP207	ltpFR	11	n/a	n/a	n/a	n/a	n/a	n/a	n/a	n/a	n/a	n/a	n/a	n/a	n/a	n/a	n/a
1397.896	n/a	PROB	698948	n/a	LTP207	ltpFR	11	n/a	n/a	n/a	n/a	n/a	n/a	13	3	7	3	n/a	n/a	n/a	n/a	n/a
1399.726	n/a	PROB	699863	n/a	LTP207	ltpFR	11	n/a	n/a	n/a	n/a	n/a	n/a	14	7	3	4	n/a	n/a	n/a	n/a	n/a
1401.61	n/a	PROB	700805	n/a	LTP207	ltpFR	11	n/a	n/a	n/a	n/a	n/a	n/a	18	9	2	7	n/a	n/a	n/a	n/a	n/a
1403.174	n/a	STOP	701587	n/a	LTP207	ltpFR	11	n/a	n/a	n/a	n/a	n/a	n/a	n/a	n/a	n/a	n/a	n/a	n/a	n/a	n/a	n/a
1406.648	n/a	REC_START	703324	n/a	LTP207	ltpFR	11	5	n/a	n/a	n/a	n/a	n/a	n/a	0	0	0	n/a	n/a	n/a	n/a	n/a
1409.072	n/a	REC_WORD	704536	wordpools/wasnorm_wordpool_less_exclusions.txt	LTP207	ltpFR	11	5	1	MOVIE	927	n/a	0	n/a	0	0	0	n/a	n/a	n/a	n/a	n/a
1410.624	n/a	REC_WORD	705312	wordpools/wasnorm_wordpool_less_exclusions.txt	LTP207	ltpFR	11	5	1	SHARK	1275	n/a	1	n/a	0	0	0	n/a	n/a	n/a	n/a	n/a
1412.598	n/a	REC_WORD	706299	wordpools/wasnorm_wordpool_less_exclusions.txt	LTP207	ltpFR	11	5	1	PUB	1135	n/a	0	n/a	0	0	0	n/a	n/a	n/a	n/a	n/a
1414.67	n/a	REC_WORD	707335	wordpools/wasnorm_wordpool_less_exclusions.txt	LTP207	ltpFR	11	5	1	BARTENDER	92	n/a	1	n/a	0	0	0	n/a	n/a	n/a	n/a	n/a
1418.92	n/a	REC_WORD	709460	wordpools/wasnorm_wordpool_less_exclusions.txt	LTP207	ltpFR	11	5	1	BUSH	202	n/a	0	n/a	0	0	0	n/a	n/a	n/a	n/a	n/a
1420.846	n/a	REC_WORD	710423	wordpools/wasnorm_wordpool_less_exclusions.txt	LTP207	ltpFR	11	5	1	SAP	1233	n/a	0	n/a	0	0	0	n/a	n/a	n/a	n/a	n/a
1422.79	n/a	REC_WORD	711395	wordpools/wasnorm_wordpool_less_exclusions.txt	LTP207	ltpFR	11	5	1	CATERPILLAR	259	n/a	1	n/a	0	0	0	n/a	n/a	n/a	n/a	n/a
1425.662	n/a	REC_WORD	712831	wordpools/wasnorm_wordpool_less_exclusions.txt	LTP207	ltpFR	11	5	1	SPY	1360	n/a	1	n/a	0	0	0	n/a	n/a	n/a	n/a	n/a
1427.954	n/a	REC_WORD	713977	wordpools/wasnorm_wordpool_less_exclusions.txt	LTP207	ltpFR	11	5	1	AGENT	10	n/a	1	n/a	0	0	0	n/a	n/a	n/a	n/a	n/a
1430.774	n/a	REC_WORD	715387	wordpools/wasnorm_wordpool_less_exclusions.txt	LTP207	ltpFR	11	5	1	VAN	1548	n/a	0	n/a	0	0	0	n/a	n/a	n/a	n/a	n/a
1432.684	n/a	REC_WORD	716342	wordpools/wasnorm_wordpool_less_exclusions.txt	LTP207	ltpFR	11	5	1	EXPLOSION	544	n/a	0	n/a	0	0	0	n/a	n/a	n/a	n/a	n/a
1436.012	n/a	REC_WORD	718006	wordpools/wasnorm_wordpool_less_exclusions.txt	LTP207	ltpFR	11	5	1	GROCERIES	663	n/a	0	n/a	0	0	0	n/a	n/a	n/a	n/a	n/a
1438.81	n/a	REC_WORD	719405	wordpools/wasnorm_wordpool_less_exclusions.txt	LTP207	ltpFR	11	5	1	CUPBOARD	425	n/a	0	n/a	0	0	0	n/a	n/a	n/a	n/a	n/a
1442.324	n/a	REC_WORD	721162	wordpools/wasnorm_wordpool_less_exclusions.txt	LTP207	ltpFR	11	5	1	RUM	1217	n/a	0	n/a	0	0	0	n/a	n/a	n/a	n/a	n/a
1445.842	n/a	REC_WORD	722921	wordpools/wasnorm_wordpool_less_exclusions.txt	LTP207	ltpFR	11	5	1	PICNIC	1060	n/a	0	n/a	0	0	0	n/a	n/a	n/a	n/a	n/a
1485.916	n/a	WORD	742958	wordpools/wasnorm_wordpool_less_exclusions.txt	LTP207	ltpFR	11	6	0	BUTLER	204	n/a	1	n/a	0	0	0	0	0.5869140625	0.422607421875	lower	../fonts/amplitud.ttf
1490.088	n/a	WORD	745044	wordpools/wasnorm_wordpool_less_exclusions.txt	LTP207	ltpFR	11	6	0	MAID	856	n/a	1	n/a	0	0	0	0	0.5869140625	0.422607421875	lower	../fonts/amplitud.ttf
1494.272	n/a	WORD	747136	wordpools/wasnorm_wordpool_less_exclusions.txt	LTP207	ltpFR	11	6	1	JAW	751	n/a	0	n/a	0	0	0	1	0.412841796875	0.57763671875	upper	../fonts/zerothre.ttf
1498.186	n/a	WORD	749093	wordpools/wasnorm_wordpool_less_exclusions.txt	LTP207	ltpFR	11	6	1	COCOON	339	n/a	0	n/a	0	0	0	1	0.412841796875	0.57763671875	upper	../fonts/zerothre.ttf
1502.312	n/a	WORD	751156	wordpools/wasnorm_wordpool_less_exclusions.txt	LTP207	ltpFR	11	6	0	DOUGH	489	n/a	0	n/a	0	0	0	0	0.5869140625	0.422607421875	lower	../fonts/amplitud.ttf
1506.244	n/a	WORD	753122	wordpools/wasnorm_wordpool_less_exclusions.txt	LTP207	ltpFR	11	6	0	BOY	161	n/a	0	n/a	0	0	0	0	0.5869140625	0.422607421875	lower	../fonts/amplitud.ttf
1510.232	n/a	WORD	755116	wordpools/wasnorm_wordpool_less_exclusions.txt	LTP207	ltpFR	11	6	1	TREASURE	1500	n/a	0	n/a	0	0	0	1	0.412841796875	0.57763671875	upper	../fonts/zerothre.ttf
1514.206	n/a	WORD	757103	wordpools/wasnorm_wordpool_less_exclusions.txt	LTP207	ltpFR	11	6	1	FOREHEAD	592	n/a	0	n/a	0	0	0	1	0.412841796875	0.57763671875	upper	../fonts/zerothre.ttf
1518.112	n/a	WORD	759056	wordpools/wasnorm_wordpool_less_exclusions.txt	LTP207	ltpFR	11	6	1	TUB	1514	n/a	0	n/a	0	0	0	1	0.412841796875	0.57763671875	upper	../fonts/zerothre.ttf
1522.296	n/a	WORD	761148	wordpools/wasnorm_wordpool_less_exclusions.txt	LTP207	ltpFR	11	6	1	UNIVERSE	1540	n/a	0	n/a	0	0	0	1	0.412841796875	0.57763671875	upper	../fonts/zerothre.ttf
1526.328	n/a	WORD	763164	wordpools/wasnorm_wordpool_less_exclusions.txt	LTP207	ltpFR	11	6	1	PLANET	1082	n/a	0	n/a	0	0	0	1	0.412841796875	0.57763671875	upper	../fonts/zerothre.ttf
1530.476	n/a	WORD	765238	wordpools/wasnorm_wordpool_less_exclusions.txt	LTP207	ltpFR	11	6	1	STAR	1373	n/a	0	n/a	0	0	0	1	0.412841796875	0.57763671875	upper	../fonts/zerothre.ttf
1534.658	n/a	WORD	767329	wordpools/wasnorm_wordpool_less_exclusions.txt	LTP207	ltpFR	11	6	0	FOUNTAIN	597	n/a	1	n/a	0	0	0	0	0.5869140625	0.422607421875	lower	../fonts/amplitud.ttf
1538.524	n/a	WORD	769262	wordpools/wasnorm_wordpool_less_exclusions.txt	LTP207	ltpFR	11	6	0	WALRUS	1585	n/a	1	n/a	0	0	0	0	0.5869140625	0.422607421875	lower	../fonts/amplitud.ttf
1542.472	n/a	WORD	771236	wordpools/wasnorm_wordpool_less_exclusions.txt	LTP207	ltpFR	11	6	0	SAGE	1222	n/a	0	n/a	0	0	0	0	0.5869140625	0.422607421875	lower	../fonts/amplitud.ttf
1546.388	n/a	WORD	773194	wordpools/wasnorm_wordpool_less_exclusions.txt	LTP207	ltpFR	11	6	0	DUNE	506	n/a	1	n/a	0	0	0	0	0.5869140625	0.422607421875	lower	../fonts/amplitud.ttf
1549.4	n/a	START	774700	n/a	LTP207	ltpFR	11	n/a	n/a	n/a	n/a	n/a	n/a	n/a	n/a	n/a	n/a	n/a	n/a	n/a	n/a	n/a
1550.502	n/a	PROB	775251	n/a	LTP207	ltpFR	11	n/a	n/a	n/a	n/a	n/a	n/a	11	3	6	2	n/a	n/a	n/a	n/a	n/a
1554.1	n/a	PROB	777050	n/a	LTP207	ltpFR	11	n/a	n/a	n/a	n/a	n/a	n/a	18	5	7	6	n/a	n/a	n/a	n/a	n/a
1555.832	n/a	PROB	777916	n/a	LTP207	ltpFR	11	n/a	n/a	n/a	n/a	n/a	n/a	18	8	5	5	n/a	n/a	n/a	n/a	n/a
1557.012	n/a	PROB	778506	n/a	LTP207	ltpFR	11	n/a	n/a	n/a	n/a	n/a	n/a	15	2	8	5	n/a	n/a	n/a	n/a	n/a
1558.116	n/a	PROB	779058	n/a	LTP207	ltpFR	11	n/a	n/a	n/a	n/a	n/a	n/a	25	9	7	9	n/a	n/a	n/a	n/a	n/a
1559.814	n/a	PROB	779907	n/a	LTP207	ltpFR	11	n/a	n/a	n/a	n/a	n/a	n/a	10	1	8	1	n/a	n/a	n/a	n/a	n/a
1561.154	n/a	PROB	780577	n/a	LTP207	ltpFR	11	n/a	n/a	n/a	n/a	n/a	n/a	25	6	9	9	n/a	n/a	n/a	n/a	n/a
1562.9	n/a	PROB	781450	n/a	LTP207	ltpFR	11	n/a	n/a	n/a	n/a	n/a	n/a	21	8	5	8	n/a	n/a	n/a	n/a	n/a
1565.136	n/a	STOP	782568	n/a	LTP207	ltpFR	11	n/a	n/a	n/a	n/a	n/a	n/a	n/a	n/a	n/a	n/a	n/a	n/a	n/a	n/a	n/a
1567.194	n/a	REC_START	783597	n/a	LTP207	ltpFR	11	6	n/a	n/a	n/a	n/a	n/a	n/a	0	0	0	n/a	n/a	n/a	n/a	n/a
1569.868	n/a	REC_WORD	784934	wordpools/wasnorm_wordpool_less_exclusions.txt	LTP207	ltpFR	11	6	0	DUNE	506	n/a	1	n/a	0	0	0	n/a	n/a	n/a	n/a	n/a
1571.374	n/a	REC_WORD	785687	wordpools/wasnorm_wordpool_less_exclusions.txt	LTP207	ltpFR	11	6	0	SAGE	1222	n/a	0	n/a	0	0	0	n/a	n/a	n/a	n/a	n/a
1576.024	n/a	REC_WORD	788012	wordpools/wasnorm_wordpool_less_exclusions.txt	LTP207	ltpFR	11	6	0	FOUNTAIN	597	n/a	1	n/a	0	0	0	n/a	n/a	n/a	n/a	n/a
1611.464	n/a	REC_WORD	805732	wordpools/wasnorm_wordpool_less_exclusions.txt	LTP207	ltpFR	11	6	0	BUTLER	204	n/a	1	n/a	0	0	0	n/a	n/a	n/a	n/a	n/a
1612.592	n/a	REC_WORD	806296	wordpools/wasnorm_wordpool_less_exclusions.txt	LTP207	ltpFR	11	6	0	MAID	856	n/a	1	n/a	0	0	0	n/a	n/a	n/a	n/a	n/a
1614.508	n/a	REC_WORD	807254	wordpools/wasnorm_wordpool_less_exclusions.txt	LTP207	ltpFR	11	6	1	JAW	751	n/a	0	n/a	0	0	0	n/a	n/a	n/a	n/a	n/a
1616.586	n/a	REC_WORD	808293	wordpools/wasnorm_wordpool_less_exclusions.txt	LTP207	ltpFR	11	6	1	COCOON	339	n/a	0	n/a	0	0	0	n/a	n/a	n/a	n/a	n/a
1628.79	n/a	REC_WORD	814395	wordpools/wasnorm_wordpool_less_exclusions.txt	LTP207	ltpFR	11	6	1	FOREHEAD	592	n/a	0	n/a	0	0	0	n/a	n/a	n/a	n/a	n/a
1630.042	n/a	REC_WORD	815021	wordpools/wasnorm_wordpool_less_exclusions.txt	LTP207	ltpFR	11	6	1	STAR	1373	n/a	0	n/a	0	0	0	n/a	n/a	n/a	n/a	n/a
1632.288	n/a	REC_WORD	816144	wordpools/wasnorm_wordpool_less_exclusions.txt	LTP207	ltpFR	11	6	1	PLANET	1082	n/a	0	n/a	0	0	0	n/a	n/a	n/a	n/a	n/a
1634.344	n/a	REC_WORD	817172	wordpools/wasnorm_wordpool_less_exclusions.txt	LTP207	ltpFR	11	6	1	UNIVERSE	1540	n/a	0	n/a	0	0	0	n/a	n/a	n/a	n/a	n/a
1637.822	n/a	REC_WORD	818911	wordpools/wasnorm_wordpool_less_exclusions.txt	LTP207	ltpFR	11	6	1	TREASURE	1500	n/a	0	n/a	0	0	0	n/a	n/a	n/a	n/a	n/a
1643.534	n/a	START	821767	n/a	LTP207	ltpFR	11	n/a	n/a	n/a	n/a	n/a	n/a	n/a	n/a	n/a	n/a	n/a	n/a	n/a	n/a	n/a
1645.048	n/a	PROB	822524	n/a	LTP207	ltpFR	11	n/a	n/a	n/a	n/a	n/a	n/a	25	9	7	9	n/a	n/a	n/a	n/a	n/a
1651.534	n/a	STOP	825767	n/a	LTP207	ltpFR	11	n/a	n/a	n/a	n/a	n/a	n/a	n/a	n/a	n/a	n/a	n/a	n/a	n/a	n/a	n/a
1652.728	n/a	WORD	826364	wordpools/wasnorm_wordpool_less_exclusions.txt	LTP207	ltpFR	11	7	1	FLY	586	n/a	0	n/a	0	0	0	1	0.412841796875	0.57763671875	upper	../fonts/zerothre.ttf
1655.74	n/a	START	827870	n/a	LTP207	ltpFR	11	n/a	n/a	n/a	n/a	n/a	n/a	n/a	n/a	n/a	n/a	n/a	n/a	n/a	n/a	n/a
1656.702	n/a	PROB	828351	n/a	LTP207	ltpFR	11	n/a	n/a	n/a	n/a	n/a	n/a	13	1	6	6	n/a	n/a	n/a	n/a	n/a
1659.236	n/a	PROB	829618	n/a	LTP207	ltpFR	11	n/a	n/a	n/a	n/a	n/a	n/a	8	1	4	3	n/a	n/a	n/a	n/a	n/a
1663.74	n/a	STOP	831870	n/a	LTP207	ltpFR	11	n/a	n/a	n/a	n/a	n/a	n/a	n/a	n/a	n/a	n/a	n/a	n/a	n/a	n/a	n/a
1664.89	n/a	WORD	832445	wordpools/wasnorm_wordpool_less_exclusions.txt	LTP207	ltpFR	11	7	1	OATS	968	n/a	0	n/a	0	0	0	1	0.412841796875	0.57763671875	upper	../fonts/zerothre.ttf
1667.902	n/a	START	833951	n/a	LTP207	ltpFR	11	n/a	n/a	n/a	n/a	n/a	n/a	n/a	n/a	n/a	n/a	n/a	n/a	n/a	n/a	n/a
1669.066	n/a	PROB	834533	n/a	LTP207	ltpFR	11	n/a	n/a	n/a	n/a	n/a	n/a	9	1	1	7	n/a	n/a	n/a	n/a	n/a
1670.388	n/a	PROB	835194	n/a	LTP207	ltpFR	11	n/a	n/a	n/a	n/a	n/a	n/a	13	8	3	2	n/a	n/a	n/a	n/a	n/a
1672.67	n/a	PROB	836335	n/a	LTP207	ltpFR	11	n/a	n/a	n/a	n/a	n/a	n/a	15	4	4	7	n/a	n/a	n/a	n/a	n/a
1674.136	n/a	PROB	837068	n/a	LTP207	ltpFR	11	n/a	n/a	n/a	n/a	n/a	n/a	16	6	6	4	n/a	n/a	n/a	n/a	n/a
1675.774	n/a	STOP	837887	n/a	LTP207	ltpFR	11	n/a	n/a	n/a	n/a	n/a	n/a	n/a	n/a	n/a	n/a	n/a	n/a	n/a	n/a	n/a
1676.886	n/a	WORD	838443	wordpools/wasnorm_wordpool_less_exclusions.txt	LTP207	ltpFR	11	7	1	JUGGLER	763	n/a	1	n/a	0	0	0	1	0.412841796875	0.57763671875	upper	../fonts/zerothre.ttf
1679.898	n/a	START	839949	n/a	LTP207	ltpFR	11	n/a	n/a	n/a	n/a	n/a	n/a	n/a	n/a	n/a	n/a	n/a	n/a	n/a	n/a	n/a
1680.726	n/a	PROB	840363	n/a	LTP207	ltpFR	11	n/a	n/a	n/a	n/a	n/a	n/a	21	8	5	8	n/a	n/a	n/a	n/a	n/a
1682.256	n/a	PROB	841128	n/a	LTP207	ltpFR	11	n/a	n/a	n/a	n/a	n/a	n/a	12	1	4	7	n/a	n/a	n/a	n/a	n/a
1683.67	n/a	PROB	841835	n/a	LTP207	ltpFR	11	n/a	n/a	n/a	n/a	n/a	n/a	13	6	6	1	n/a	n/a	n/a	n/a	n/a
1685.904	n/a	PROB	842952	n/a	LTP207	ltpFR	11	n/a	n/a	n/a	n/a	n/a	n/a	7	2	2	3	n/a	n/a	n/a	n/a	n/a
1687.734	n/a	STOP	843867	n/a	LTP207	ltpFR	11	n/a	n/a	n/a	n/a	n/a	n/a	n/a	n/a	n/a	n/a	n/a	n/a	n/a	n/a	n/a
1688.932	n/a	WORD	844466	wordpools/wasnorm_wordpool_less_exclusions.txt	LTP207	ltpFR	11	7	0	TIDE	1465	n/a	1	n/a	0	0	0	0	0.5869140625	0.422607421875	lower	../fonts/amplitud.ttf
1691.944	n/a	START	845972	n/a	LTP207	ltpFR	11	n/a	n/a	n/a	n/a	n/a	n/a	n/a	n/a	n/a	n/a	n/a	n/a	n/a	n/a	n/a
1692.88	n/a	PROB	846440	n/a	LTP207	ltpFR	11	n/a	n/a	n/a	n/a	n/a	n/a	14	7	2	5	n/a	n/a	n/a	n/a	n/a
1694.414	n/a	PROB	847207	n/a	LTP207	ltpFR	11	n/a	n/a	n/a	n/a	n/a	n/a	13	1	7	5	n/a	n/a	n/a	n/a	n/a
1696.412	n/a	PROB	848206	n/a	LTP207	ltpFR	11	n/a	n/a	n/a	n/a	n/a	n/a	19	3	7	9	n/a	n/a	n/a	n/a	n/a
1697.658	n/a	PROB	848829	n/a	LTP207	ltpFR	11	n/a	n/a	n/a	n/a	n/a	n/a	4	1	1	2	n/a	n/a	n/a	n/a	n/a
1698.79	n/a	STOP	849395	n/a	LTP207	ltpFR	11	n/a	n/a	n/a	n/a	n/a	n/a	n/a	n/a	n/a	n/a	n/a	n/a	n/a	n/a	n/a
1700.97	n/a	WORD	850485	wordpools/wasnorm_wordpool_less_exclusions.txt	LTP207	ltpFR	11	7	0	BEAVER	109	n/a	1	n/a	0	0	0	0	0.5869140625	0.422607421875	lower	../fonts/amplitud.ttf
1703.982	n/a	START	851991	n/a	LTP207	ltpFR	11	n/a	n/a	n/a	n/a	n/a	n/a	n/a	n/a	n/a	n/a	n/a	n/a	n/a	n/a	n/a
1704.926	n/a	PROB	852463	n/a	LTP207	ltpFR	11	n/a	n/a	n/a	n/a	n/a	n/a	9	5	1	3	n/a	n/a	n/a	n/a	n/a
1707.38	n/a	PROB	853690	n/a	LTP207	ltpFR	11	n/a	n/a	n/a	n/a	n/a	n/a	11	2	8	1	n/a	n/a	n/a	n/a	n/a
1708.616	n/a	PROB	854308	n/a	LTP207	ltpFR	11	n/a	n/a	n/a	n/a	n/a	n/a	23	8	6	9	n/a	n/a	n/a	n/a	n/a
1711.56	n/a	STOP	855780	n/a	LTP207	ltpFR	11	n/a	n/a	n/a	n/a	n/a	n/a	n/a	n/a	n/a	n/a	n/a	n/a	n/a	n/a	n/a
1713.174	n/a	WORD	856587	wordpools/wasnorm_wordpool_less_exclusions.txt	LTP207	ltpFR	11	7	0	RAFT	1159	n/a	1	n/a	0	0	0	0	0.5869140625	0.422607421875	lower	../fonts/amplitud.ttf
1716.186	n/a	START	858093	n/a	LTP207	ltpFR	11	n/a	n/a	n/a	n/a	n/a	n/a	n/a	n/a	n/a	n/a	n/a	n/a	n/a	n/a	n/a
1717.392	n/a	PROB	858696	n/a	LTP207	ltpFR	11	n/a	n/a	n/a	n/a	n/a	n/a	17	3	9	5	n/a	n/a	n/a	n/a	n/a
1719.96	n/a	PROB	859980	n/a	LTP207	ltpFR	11	n/a	n/a	n/a	n/a	n/a	n/a	9	3	3	3	n/a	n/a	n/a	n/a	n/a
1721.316	n/a	PROB	860658	n/a	LTP207	ltpFR	11	n/a	n/a	n/a	n/a	n/a	n/a	19	3	9	7	n/a	n/a	n/a	n/a	n/a
1722.92	n/a	STOP	861460	n/a	LTP207	ltpFR	11	n/a	n/a	n/a	n/a	n/a	n/a	n/a	n/a	n/a	n/a	n/a	n/a	n/a	n/a	n/a
1725.372	n/a	WORD	862686	wordpools/wasnorm_wordpool_less_exclusions.txt	LTP207	ltpFR	11	7	0	PIRATE	1074	n/a	1	n/a	0	0	0	0	0.5869140625	0.422607421875	lower	../fonts/amplitud.ttf
1728.384	n/a	START	864192	n/a	LTP207	ltpFR	11	n/a	n/a	n/a	n/a	n/a	n/a	n/a	n/a	n/a	n/a	n/a	n/a	n/a	n/a	n/a
1729.43	n/a	PROB	864715	n/a	LTP207	ltpFR	11	n/a	n/a	n/a	n/a	n/a	n/a	18	8	4	6	n/a	n/a	n/a	n/a	n/a
1731.152	n/a	PROB	865576	n/a	LTP207	ltpFR	11	n/a	n/a	n/a	n/a	n/a	n/a	17	8	7	2	n/a	n/a	n/a	n/a	n/a
1732.944	n/a	PROB	866472	n/a	LTP207	ltpFR	11	n/a	n/a	n/a	n/a	n/a	n/a	19	7	8	4	n/a	n/a	n/a	n/a	n/a
1736.362	n/a	STOP	868181	n/a	LTP207	ltpFR	11	n/a	n/a	n/a	n/a	n/a	n/a	n/a	n/a	n/a	n/a	n/a	n/a	n/a	n/a	n/a
1737.344	n/a	WORD	868672	wordpools/wasnorm_wordpool_less_exclusions.txt	LTP207	ltpFR	11	7	0	SKATE	1313	n/a	0	n/a	0	0	0	0	0.5869140625	0.422607421875	lower	../fonts/amplitud.ttf
1740.356	n/a	START	870178	n/a	LTP207	ltpFR	11	n/a	n/a	n/a	n/a	n/a	n/a	n/a	n/a	n/a	n/a	n/a	n/a	n/a	n/a	n/a
1741.224	n/a	PROB	870612	n/a	LTP207	ltpFR	11	n/a	n/a	n/a	n/a	n/a	n/a	18	9	6	3	n/a	n/a	n/a	n/a	n/a
1743.048	n/a	PROB	871524	n/a	LTP207	ltpFR	11	n/a	n/a	n/a	n/a	n/a	n/a	9	6	5	2	n/a	n/a	n/a	n/a	n/a
1744.838	n/a	PROB	872419	n/a	LTP207	ltpFR	11	n/a	n/a	n/a	n/a	n/a	n/a	15	8	4	3	n/a	n/a	n/a	n/a	n/a
1747.37	n/a	STOP	873685	n/a	LTP207	ltpFR	11	n/a	n/a	n/a	n/a	n/a	n/a	n/a	n/a	n/a	n/a	n/a	n/a	n/a	n/a	n/a
1749.514	n/a	WORD	874757	wordpools/wasnorm_wordpool_less_exclusions.txt	LTP207	ltpFR	11	7	1	ARM	38	n/a	0	n/a	0	0	0	1	0.412841796875	0.57763671875	upper	../fonts/zerothre.ttf
1752.526	n/a	START	876263	n/a	LTP207	ltpFR	11	n/a	n/a	n/a	n/a	n/a	n/a	n/a	n/a	n/a	n/a	n/a	n/a	n/a	n/a	n/a
1753.388	n/a	PROB	876694	n/a	LTP207	ltpFR	11	n/a	n/a	n/a	n/a	n/a	n/a	16	8	3	5	n/a	n/a	n/a	n/a	n/a
1755.212	n/a	PROB	877606	n/a	LTP207	ltpFR	11	n/a	n/a	n/a	n/a	n/a	n/a	21	3	9	9	n/a	n/a	n/a	n/a	n/a
1760.526	n/a	STOP	880263	n/a	LTP207	ltpFR	11	n/a	n/a	n/a	n/a	n/a	n/a	n/a	n/a	n/a	n/a	n/a	n/a	n/a	n/a	n/a
1761.518	n/a	WORD	880759	wordpools/wasnorm_wordpool_less_exclusions.txt	LTP207	ltpFR	11	7	1	LIMB	822	n/a	0	n/a	0	0	0	1	0.412841796875	0.57763671875	upper	../fonts/zerothre.ttf
1764.53	n/a	START	882265	n/a	LTP207	ltpFR	11	n/a	n/a	n/a	n/a	n/a	n/a	n/a	n/a	n/a	n/a	n/a	n/a	n/a	n/a	n/a
1765.684	n/a	PROB	882842	n/a	LTP207	ltpFR	11	n/a	n/a	n/a	n/a	n/a	n/a	16	7	7	2	n/a	n/a	n/a	n/a	n/a
1767.014	n/a	PROB	883507	n/a	LTP207	ltpFR	11	n/a	n/a	n/a	n/a	n/a	n/a	14	7	4	3	n/a	n/a	n/a	n/a	n/a
1768.654	n/a	PROB	884327	n/a	LTP207	ltpFR	11	n/a	n/a	n/a	n/a	n/a	n/a	16	7	7	2	n/a	n/a	n/a	n/a	n/a
1770.46	n/a	PROB	885230	n/a	LTP207	ltpFR	11	n/a	n/a	n/a	n/a	n/a	n/a	16	5	6	5	n/a	n/a	n/a	n/a	n/a
1772.258	n/a	STOP	886129	n/a	LTP207	ltpFR	11	n/a	n/a	n/a	n/a	n/a	n/a	n/a	n/a	n/a	n/a	n/a	n/a	n/a	n/a	n/a
1773.672	n/a	WORD	886836	wordpools/wasnorm_wordpool_less_exclusions.txt	LTP207	ltpFR	11	7	1	CLOWN	330	n/a	0	n/a	0	0	0	1	0.412841796875	0.57763671875	upper	../fonts/zerothre.ttf
1776.684	n/a	START	888342	n/a	LTP207	ltpFR	11	n/a	n/a	n/a	n/a	n/a	n/a	n/a	n/a	n/a	n/a	n/a	n/a	n/a	n/a	n/a
1777.588	n/a	PROB	888794	n/a	LTP207	ltpFR	11	n/a	n/a	n/a	n/a	n/a	n/a	11	8	2	1	n/a	n/a	n/a	n/a	n/a
1778.884	n/a	PROB	889442	n/a	LTP207	ltpFR	11	n/a	n/a	n/a	n/a	n/a	n/a	22	6	9	7	n/a	n/a	n/a	n/a	n/a
1780.916	n/a	PROB	890458	n/a	LTP207	ltpFR	11	n/a	n/a	n/a	n/a	n/a	n/a	16	8	6	2	n/a	n/a	n/a	n/a	n/a
1782.406	n/a	PROB	891203	n/a	LTP207	ltpFR	11	n/a	n/a	n/a	n/a	n/a	n/a	9	1	1	7	n/a	n/a	n/a	n/a	n/a
1783.42	n/a	STOP	891710	n/a	LTP207	ltpFR	11	n/a	n/a	n/a	n/a	n/a	n/a	n/a	n/a	n/a	n/a	n/a	n/a	n/a	n/a	n/a
1785.87	n/a	WORD	892935	wordpools/wasnorm_wordpool_less_exclusions.txt	LTP207	ltpFR	11	7	0	FARM	552	n/a	1	n/a	0	0	0	0	0.5869140625	0.422607421875	lower	../fonts/amplitud.ttf
1788.882	n/a	START	894441	n/a	LTP207	ltpFR	11	n/a	n/a	n/a	n/a	n/a	n/a	n/a	n/a	n/a	n/a	n/a	n/a	n/a	n/a	n/a
1789.902	n/a	PROB	894951	n/a	LTP207	ltpFR	11	n/a	n/a	n/a	n/a	n/a	n/a	13	1	3	9	n/a	n/a	n/a	n/a	n/a
1791.584	n/a	PROB	895792	n/a	LTP207	ltpFR	11	n/a	n/a	n/a	n/a	n/a	n/a	18	3	7	8	n/a	n/a	n/a	n/a	n/a
1792.938	n/a	PROB	896469	n/a	LTP207	ltpFR	11	n/a	n/a	n/a	n/a	n/a	n/a	16	3	7	6	n/a	n/a	n/a	n/a	n/a
1794.16	n/a	PROB	897080	n/a	LTP207	ltpFR	11	n/a	n/a	n/a	n/a	n/a	n/a	22	7	6	9	n/a	n/a	n/a	n/a	n/a
1796.332	n/a	STOP	898166	n/a	LTP207	ltpFR	11	n/a	n/a	n/a	n/a	n/a	n/a	n/a	n/a	n/a	n/a	n/a	n/a	n/a	n/a	n/a
1798.032	n/a	WORD	899016	wordpools/wasnorm_wordpool_less_exclusions.txt	LTP207	ltpFR	11	7	0	LID	817	n/a	0	n/a	0	0	0	0	0.5869140625	0.422607421875	lower	../fonts/amplitud.ttf
1801.044	n/a	START	900522	n/a	LTP207	ltpFR	11	n/a	n/a	n/a	n/a	n/a	n/a	n/a	n/a	n/a	n/a	n/a	n/a	n/a	n/a	n/a
1802.106	n/a	PROB	901053	n/a	LTP207	ltpFR	11	n/a	n/a	n/a	n/a	n/a	n/a	16	4	6	6	n/a	n/a	n/a	n/a	n/a
1804.088	n/a	PROB	902044	n/a	LTP207	ltpFR	11	n/a	n/a	n/a	n/a	n/a	n/a	13	8	2	3	n/a	n/a	n/a	n/a	n/a
1809.028	n/a	STOP	904514	n/a	LTP207	ltpFR	11	n/a	n/a	n/a	n/a	n/a	n/a	n/a	n/a	n/a	n/a	n/a	n/a	n/a	n/a	n/a
1809.91	n/a	WORD	904955	wordpools/wasnorm_wordpool_less_exclusions.txt	LTP207	ltpFR	11	7	0	TERMINAL	1450	n/a	1	n/a	0	0	0	0	0.5869140625	0.422607421875	lower	../fonts/amplitud.ttf
1812.922	n/a	START	906461	n/a	LTP207	ltpFR	11	n/a	n/a	n/a	n/a	n/a	n/a	n/a	n/a	n/a	n/a	n/a	n/a	n/a	n/a	n/a
1813.876	n/a	PROB	906938	n/a	LTP207	ltpFR	11	n/a	n/a	n/a	n/a	n/a	n/a	18	8	3	7	n/a	n/a	n/a	n/a	n/a
1815.726	n/a	PROB	907863	n/a	LTP207	ltpFR	11	n/a	n/a	n/a	n/a	n/a	n/a	19	7	5	7	n/a	n/a	n/a	n/a	n/a
1817.706	n/a	PROB	908853	n/a	LTP207	ltpFR	11	n/a	n/a	n/a	n/a	n/a	n/a	8	2	4	2	n/a	n/a	n/a	n/a	n/a
1819.78	n/a	STOP	909890	n/a	LTP207	ltpFR	11	n/a	n/a	n/a	n/a	n/a	n/a	n/a	n/a	n/a	n/a	n/a	n/a	n/a	n/a	n/a
1821.916	n/a	WORD	910958	wordpools/wasnorm_wordpool_less_exclusions.txt	LTP207	ltpFR	11	7	1	SAPPHIRE	1234	n/a	0	n/a	0	0	0	1	0.412841796875	0.57763671875	upper	../fonts/zerothre.ttf
1824.928	n/a	START	912464	n/a	LTP207	ltpFR	11	n/a	n/a	n/a	n/a	n/a	n/a	n/a	n/a	n/a	n/a	n/a	n/a	n/a	n/a	n/a
1825.914	n/a	PROB	912957	n/a	LTP207	ltpFR	11	n/a	n/a	n/a	n/a	n/a	n/a	13	3	8	2	n/a	n/a	n/a	n/a	n/a
1827.412	n/a	PROB	913706	n/a	LTP207	ltpFR	11	n/a	n/a	n/a	n/a	n/a	n/a	22	6	7	8	n/a	n/a	n/a	n/a	n/a
1829.026	n/a	PROB	914513	n/a	LTP207	ltpFR	11	n/a	n/a	n/a	n/a	n/a	n/a	11	3	5	3	n/a	n/a	n/a	n/a	n/a
1830.556	n/a	PROB	915278	n/a	LTP207	ltpFR	11	n/a	n/a	n/a	n/a	n/a	n/a	10	2	2	6	n/a	n/a	n/a	n/a	n/a
1831.718	n/a	STOP	915859	n/a	LTP207	ltpFR	11	n/a	n/a	n/a	n/a	n/a	n/a	n/a	n/a	n/a	n/a	n/a	n/a	n/a	n/a	n/a
1834.028	n/a	WORD	917014	wordpools/wasnorm_wordpool_less_exclusions.txt	LTP207	ltpFR	11	7	1	MOSQUITO	917	n/a	1	n/a	0	0	0	1	0.412841796875	0.57763671875	upper	../fonts/zerothre.ttf
1837.04	n/a	START	918520	n/a	LTP207	ltpFR	11	n/a	n/a	n/a	n/a	n/a	n/a	n/a	n/a	n/a	n/a	n/a	n/a	n/a	n/a	n/a
1838.118	n/a	PROB	919059	n/a	LTP207	ltpFR	11	n/a	n/a	n/a	n/a	n/a	n/a	17	5	8	4	n/a	n/a	n/a	n/a	n/a
1841.664	n/a	PROB	920832	n/a	LTP207	ltpFR	11	n/a	n/a	n/a	n/a	n/a	n/a	18	8	9	1	n/a	n/a	n/a	n/a	n/a
1843.894	n/a	STOP	921947	n/a	LTP207	ltpFR	11	n/a	n/a	n/a	n/a	n/a	n/a	n/a	n/a	n/a	n/a	n/a	n/a	n/a	n/a	n/a
1846.93	n/a	REC_START	923465	n/a	LTP207	ltpFR	11	7	n/a	n/a	n/a	n/a	n/a	n/a	0	0	0	n/a	n/a	n/a	n/a	n/a
1849.07	n/a	REC_WORD	924535	wordpools/wasnorm_wordpool_less_exclusions.txt	LTP207	ltpFR	11	7	1	SAPPHIRE	1234	n/a	0	n/a	0	0	0	n/a	n/a	n/a	n/a	n/a
1850.556	n/a	REC_WORD_VV	925278	wordpools/wasnorm_wordpool_less_exclusions.txt	LTP207	ltpFR	11	7	n/a	<>	-1	n/a	n/a	n/a	0	0	0	n/a	n/a	n/a	n/a	n/a
1852.062	n/a	REC_WORD	926031	wordpools/wasnorm_wordpool_less_exclusions.txt	LTP207	ltpFR	11	7	0	LID	817	n/a	0	n/a	0	0	0	n/a	n/a	n/a	n/a	n/a
1854.682	n/a	REC_WORD	927341	wordpools/wasnorm_wordpool_less_exclusions.txt	LTP207	ltpFR	11	7	1	JUGGLER	763	n/a	1	n/a	0	0	0	n/a	n/a	n/a	n/a	n/a
1857.786	n/a	REC_WORD	928893	wordpools/wasnorm_wordpool_less_exclusions.txt	LTP207	ltpFR	11	7	1	MOSQUITO	917	n/a	1	n/a	0	0	0	n/a	n/a	n/a	n/a	n/a
1859.42	n/a	REC_WORD	929710	wordpools/wasnorm_wordpool_less_exclusions.txt	LTP207	ltpFR	11	7	1	FLY	586	n/a	0	n/a	0	0	0	n/a	n/a	n/a	n/a	n/a
1872.666	n/a	REC_WORD	936333	wordpools/wasnorm_wordpool_less_exclusions.txt	LTP207	ltpFR	11	7	0	TIDE	1465	n/a	1	n/a	0	0	0	n/a	n/a	n/a	n/a	n/a
1947.948	n/a	WORD	973974	wordpools/wasnorm_wordpool_less_exclusions.txt	LTP207	ltpFR	11	8	1	CAP	236	n/a	0	n/a	0	0	0	1	0.412841796875	0.57763671875	upper	../fonts/zerothre.ttf
1952.036	n/a	WORD	976018	wordpools/wasnorm_wordpool_less_exclusions.txt	LTP207	ltpFR	11	8	1	MOTH	920	n/a	1	n/a	0	0	0	1	0.412841796875	0.57763671875	upper	../fonts/zerothre.ttf
1956.214	n/a	WORD	978107	wordpools/wasnorm_wordpool_less_exclusions.txt	LTP207	ltpFR	11	8	1	BUTTERFLY	206	n/a	1	n/a	0	0	0	1	0.412841796875	0.57763671875	upper	../fonts/zerothre.ttf
1960.388	n/a	WORD	980194	wordpools/wasnorm_wordpool_less_exclusions.txt	LTP207	ltpFR	11	8	1	CLAMP	316	n/a	0	n/a	0	0	0	1	0.412841796875	0.57763671875	upper	../fonts/zerothre.ttf
1964.294	n/a	WORD	982147	wordpools/wasnorm_wordpool_less_exclusions.txt	LTP207	ltpFR	11	8	1	PAIL	1002	n/a	0	n/a	0	0	0	1	0.412841796875	0.57763671875	upper	../fonts/zerothre.ttf
1968.484	n/a	WORD	984242	wordpools/wasnorm_wordpool_less_exclusions.txt	LTP207	ltpFR	11	8	1	NECKLACE	940	n/a	0	n/a	0	0	0	1	0.412841796875	0.57763671875	upper	../fonts/zerothre.ttf
1972.682	n/a	WORD	986341	wordpools/wasnorm_wordpool_less_exclusions.txt	LTP207	ltpFR	11	8	1	COLONEL	348	n/a	1	n/a	0	0	0	1	0.412841796875	0.57763671875	upper	../fonts/zerothre.ttf
1976.532	n/a	WORD	988266	wordpools/wasnorm_wordpool_less_exclusions.txt	LTP207	ltpFR	11	8	1	VETERAN	1561	n/a	1	n/a	0	0	0	1	0.412841796875	0.57763671875	upper	../fonts/zerothre.ttf
1980.73	n/a	WORD	990365	wordpools/wasnorm_wordpool_less_exclusions.txt	LTP207	ltpFR	11	8	1	RACKET	1155	n/a	0	n/a	0	0	0	1	0.412841796875	0.57763671875	upper	../fonts/zerothre.ttf
1984.672	n/a	WORD	992336	wordpools/wasnorm_wordpool_less_exclusions.txt	LTP207	ltpFR	11	8	1	OWNER	993	n/a	1	n/a	0	0	0	1	0.412841796875	0.57763671875	upper	../fonts/zerothre.ttf
1988.72	n/a	WORD	994360	wordpools/wasnorm_wordpool_less_exclusions.txt	LTP207	ltpFR	11	8	1	NEWSPAPER	948	n/a	0	n/a	0	0	0	1	0.412841796875	0.57763671875	upper	../fonts/zerothre.ttf
1992.708	n/a	WORD	996354	wordpools/wasnorm_wordpool_less_exclusions.txt	LTP207	ltpFR	11	8	1	REPORT	1184	n/a	0	n/a	0	0	0	1	0.412841796875	0.57763671875	upper	../fonts/zerothre.ttf
1996.776	n/a	WORD	998388	wordpools/wasnorm_wordpool_less_exclusions.txt	LTP207	ltpFR	11	8	1	JEWEL	757	n/a	0	n/a	0	0	0	1	0.412841796875	0.57763671875	upper	../fonts/zerothre.ttf
2000.756	n/a	WORD	1000378	wordpools/wasnorm_wordpool_less_exclusions.txt	LTP207	ltpFR	11	8	1	HEAD	695	n/a	0	n/a	0	0	0	1	0.412841796875	0.57763671875	upper	../fonts/zerothre.ttf
2004.654	n/a	WORD	1002327	wordpools/wasnorm_wordpool_less_exclusions.txt	LTP207	ltpFR	11	8	1	PADDLE	1000	n/a	0	n/a	0	0	0	1	0.412841796875	0.57763671875	upper	../fonts/zerothre.ttf
2008.854	n/a	WORD	1004427	wordpools/wasnorm_wordpool_less_exclusions.txt	LTP207	ltpFR	11	8	1	DEODORANT	448	n/a	0	n/a	0	0	0	1	0.412841796875	0.57763671875	upper	../fonts/zerothre.ttf
2014.704	n/a	REC_START	1007352	n/a	LTP207	ltpFR	11	8	n/a	n/a	n/a	n/a	n/a	n/a	0	0	0	n/a	n/a	n/a	n/a	n/a
2016.37	n/a	REC_WORD	1008185	wordpools/wasnorm_wordpool_less_exclusions.txt	LTP207	ltpFR	11	8	1	DEODORANT	448	n/a	0	n/a	0	0	0	n/a	n/a	n/a	n/a	n/a
2020.196	n/a	REC_WORD	1010098	wordpools/wasnorm_wordpool_less_exclusions.txt	LTP207	ltpFR	11	8	1	MOTH	920	n/a	1	n/a	0	0	0	n/a	n/a	n/a	n/a	n/a
2021.21	n/a	REC_WORD	1010605	wordpools/wasnorm_wordpool_less_exclusions.txt	LTP207	ltpFR	11	8	1	CAP	236	n/a	0	n/a	0	0	0	n/a	n/a	n/a	n/a	n/a
2023.24	n/a	REC_WORD	1011620	wordpools/wasnorm_wordpool_less_exclusions.txt	LTP207	ltpFR	11	8	1	BUTTERFLY	206	n/a	1	n/a	0	0	0	n/a	n/a	n/a	n/a	n/a
2025.64	n/a	REC_WORD	1012820	wordpools/wasnorm_wordpool_less_exclusions.txt	LTP207	ltpFR	11	8	1	NECKLACE	940	n/a	0	n/a	0	0	0	n/a	n/a	n/a	n/a	n/a
2027.684	n/a	REC_WORD	1013842	wordpools/wasnorm_wordpool_less_exclusions.txt	LTP207	ltpFR	11	8	1	JEWEL	757	n/a	0	n/a	0	0	0	n/a	n/a	n/a	n/a	n/a
2031.352	n/a	REC_WORD	1015676	wordpools/wasnorm_wordpool_less_exclusions.txt	LTP207	ltpFR	11	8	1	VETERAN	1561	n/a	1	n/a	0	0	0	n/a	n/a	n/a	n/a	n/a
2032.948	n/a	REC_WORD	1016474	wordpools/wasnorm_wordpool_less_exclusions.txt	LTP207	ltpFR	11	8	1	COLONEL	348	n/a	1	n/a	0	0	0	n/a	n/a	n/a	n/a	n/a
2035.364	n/a	REC_WORD	1017682	wordpools/wasnorm_wordpool_less_exclusions.txt	LTP207	ltpFR	11	8	1	RACKET	1155	n/a	0	n/a	0	0	0	n/a	n/a	n/a	n/a	n/a
2037.234	n/a	REC_WORD	1018617	wordpools/wasnorm_wordpool_less_exclusions.txt	LTP207	ltpFR	11	8	1	PADDLE	1000	n/a	0	n/a	0	0	0	n/a	n/a	n/a	n/a	n/a
2039.714	n/a	REC_WORD	1019857	wordpools/wasnorm_wordpool_less_exclusions.txt	LTP207	ltpFR	11	8	1	OWNER	993	n/a	1	n/a	0	0	0	n/a	n/a	n/a	n/a	n/a
2046.688	n/a	REC_WORD	1023344	wordpools/wasnorm_wordpool_less_exclusions.txt	LTP207	ltpFR	11	8	1	NEWSPAPER	948	n/a	0	n/a	0	0	0	n/a	n/a	n/a	n/a	n/a
2048.62	n/a	REC_WORD	1024310	wordpools/wasnorm_wordpool_less_exclusions.txt	LTP207	ltpFR	11	8	1	REPORT	1184	n/a	0	n/a	0	0	0	n/a	n/a	n/a	n/a	n/a
2051.744	n/a	REC_WORD	1025872	wordpools/wasnorm_wordpool_less_exclusions.txt	LTP207	ltpFR	11	8	1	CLAMP	316	n/a	0	n/a	0	0	0	n/a	n/a	n/a	n/a	n/a
2053.688	n/a	REC_WORD	1026844	wordpools/wasnorm_wordpool_less_exclusions.txt	LTP207	ltpFR	11	8	1	PAIL	1002	n/a	0	n/a	0	0	0	n/a	n/a	n/a	n/a	n/a
2062.528	n/a	REC_WORD	1031264	wordpools/wasnorm_wordpool_less_exclusions.txt	LTP207	ltpFR	11	8	1	HEAD	695	n/a	0	n/a	0	0	0	n/a	n/a	n/a	n/a	n/a
2110.536	n/a	WORD	1055268	wordpools/wasnorm_wordpool_less_exclusions.txt	LTP207	ltpFR	11	9	1	REEF	1177	n/a	0	n/a	0	0	0	1	0.412841796875	0.57763671875	upper	../fonts/zerothre.ttf
2114.684	n/a	WORD	1057342	wordpools/wasnorm_wordpool_less_exclusions.txt	LTP207	ltpFR	11	9	1	WAVE	1596	n/a	0	n/a	0	0	0	1	0.412841796875	0.57763671875	upper	../fonts/zerothre.ttf
2118.7	n/a	WORD	1059350	wordpools/wasnorm_wordpool_less_exclusions.txt	LTP207	ltpFR	11	9	1	DRIVER	499	n/a	1	n/a	0	0	0	1	0.412841796875	0.57763671875	upper	../fonts/zerothre.ttf
2122.832	n/a	WORD	1061416	wordpools/wasnorm_wordpool_less_exclusions.txt	LTP207	ltpFR	11	9	1	DONKEY	484	n/a	1	n/a	0	0	0	1	0.412841796875	0.57763671875	upper	../fonts/zerothre.ttf
2126.738	n/a	WORD	1063369	wordpools/wasnorm_wordpool_less_exclusions.txt	LTP207	ltpFR	11	9	1	ANTEATER	26	n/a	1	n/a	0	0	0	1	0.412841796875	0.57763671875	upper	../fonts/zerothre.ttf
2130.746	n/a	WORD	1065373	wordpools/wasnorm_wordpool_less_exclusions.txt	LTP207	ltpFR	11	9	1	BEAST	108	n/a	1	n/a	0	0	0	1	0.412841796875	0.57763671875	upper	../fonts/zerothre.ttf
2134.678	n/a	WORD	1067339	wordpools/wasnorm_wordpool_less_exclusions.txt	LTP207	ltpFR	11	9	1	CONE	363	n/a	0	n/a	0	0	0	1	0.412841796875	0.57763671875	upper	../fonts/zerothre.ttf
2138.884	n/a	WORD	1069442	wordpools/wasnorm_wordpool_less_exclusions.txt	LTP207	ltpFR	11	9	1	VEIN	1554	n/a	0	n/a	0	0	0	1	0.412841796875	0.57763671875	upper	../fonts/zerothre.ttf
2143.026	n/a	WORD	1071513	wordpools/wasnorm_wordpool_less_exclusions.txt	LTP207	ltpFR	11	9	1	GODDESS	646	n/a	0	n/a	0	0	0	1	0.412841796875	0.57763671875	upper	../fonts/zerothre.ttf
2147.008	n/a	WORD	1073504	wordpools/wasnorm_wordpool_less_exclusions.txt	LTP207	ltpFR	11	9	1	PIT	1077	n/a	0	n/a	0	0	0	1	0.412841796875	0.57763671875	upper	../fonts/zerothre.ttf
2151.032	n/a	WORD	1075516	wordpools/wasnorm_wordpool_less_exclusions.txt	LTP207	ltpFR	11	9	1	ICE	730	n/a	0	n/a	0	0	0	1	0.412841796875	0.57763671875	upper	../fonts/zerothre.ttf
2155.096	n/a	WORD	1077548	wordpools/wasnorm_wordpool_less_exclusions.txt	LTP207	ltpFR	11	9	1	FAUCET	555	n/a	0	n/a	0	0	0	1	0.412841796875	0.57763671875	upper	../fonts/zerothre.ttf
2159.172	n/a	WORD	1079586	wordpools/wasnorm_wordpool_less_exclusions.txt	LTP207	ltpFR	11	9	1	LOBBY	836	n/a	0	n/a	0	0	0	1	0.412841796875	0.57763671875	upper	../fonts/zerothre.ttf
2163.312	n/a	WORD	1081656	wordpools/wasnorm_wordpool_less_exclusions.txt	LTP207	ltpFR	11	9	1	PUMPKIN	1142	n/a	0	n/a	0	0	0	1	0.412841796875	0.57763671875	upper	../fonts/zerothre.ttf
2167.378	n/a	WORD	1083689	wordpools/wasnorm_wordpool_less_exclusions.txt	LTP207	ltpFR	11	9	1	PONY	1102	n/a	1	n/a	0	0	0	1	0.412841796875	0.57763671875	upper	../fonts/zerothre.ttf
2171.276	n/a	WORD	1085638	wordpools/wasnorm_wordpool_less_exclusions.txt	LTP207	ltpFR	11	9	1	WINDSHIELD	1612	n/a	0	n/a	0	0	0	1	0.412841796875	0.57763671875	upper	../fonts/zerothre.ttf
2174.286	n/a	START	1087143	n/a	LTP207	ltpFR	11	n/a	n/a	n/a	n/a	n/a	n/a	n/a	n/a	n/a	n/a	n/a	n/a	n/a	n/a	n/a
2175.24	n/a	PROB	1087620	n/a	LTP207	ltpFR	11	n/a	n/a	n/a	n/a	n/a	n/a	15	5	5	5	n/a	n/a	n/a	n/a	n/a
2176.756	n/a	PROB	1088378	n/a	LTP207	ltpFR	11	n/a	n/a	n/a	n/a	n/a	n/a	11	1	8	2	n/a	n/a	n/a	n/a	n/a
2178.044	n/a	PROB	1089022	n/a	LTP207	ltpFR	11	n/a	n/a	n/a	n/a	n/a	n/a	11	8	2	1	n/a	n/a	n/a	n/a	n/a
2179.282	n/a	PROB	1089641	n/a	LTP207	ltpFR	11	n/a	n/a	n/a	n/a	n/a	n/a	16	5	3	8	n/a	n/a	n/a	n/a	n/a
2180.754	n/a	PROB	1090377	n/a	LTP207	ltpFR	11	n/a	n/a	n/a	n/a	n/a	n/a	23	8	8	7	n/a	n/a	n/a	n/a	n/a
2182.762	n/a	PROB	1091381	n/a	LTP207	ltpFR	11	n/a	n/a	n/a	n/a	n/a	n/a	10	5	1	4	n/a	n/a	n/a	n/a	n/a
2184.174	n/a	PROB	1092087	n/a	LTP207	ltpFR	11	n/a	n/a	n/a	n/a	n/a	n/a	13	4	8	1	n/a	n/a	n/a	n/a	n/a
2185.798	n/a	PROB	1092899	n/a	LTP207	ltpFR	11	n/a	n/a	n/a	n/a	n/a	n/a	17	4	7	6	n/a	n/a	n/a	n/a	n/a
2188.216	n/a	PROB	1094108	n/a	LTP207	ltpFR	11	n/a	n/a	n/a	n/a	n/a	n/a	15	2	5	8	n/a	n/a	n/a	n/a	n/a
2189.616	n/a	STOP	1094808	n/a	LTP207	ltpFR	11	n/a	n/a	n/a	n/a	n/a	n/a	n/a	n/a	n/a	n/a	n/a	n/a	n/a	n/a	n/a
2192.172	n/a	REC_START	1096086	n/a	LTP207	ltpFR	11	9	n/a	n/a	n/a	n/a	n/a	n/a	0	0	0	n/a	n/a	n/a	n/a	n/a
2201.372	n/a	REC_WORD	1100686	wordpools/wasnorm_wordpool_less_exclusions.txt	LTP207	ltpFR	11	9	1	REEF	1177	n/a	0	n/a	0	0	0	n/a	n/a	n/a	n/a	n/a
2203.278	n/a	REC_WORD	1101639	wordpools/wasnorm_wordpool_less_exclusions.txt	LTP207	ltpFR	11	9	1	WAVE	1596	n/a	0	n/a	0	0	0	n/a	n/a	n/a	n/a	n/a
2206.5	n/a	REC_WORD	1103250	wordpools/wasnorm_wordpool_less_exclusions.txt	LTP207	ltpFR	11	9	1	DRIVER	499	n/a	1	n/a	0	0	0	n/a	n/a	n/a	n/a	n/a
2208.646	n/a	REC_WORD	1104323	wordpools/wasnorm_wordpool_less_exclusions.txt	LTP207	ltpFR	11	9	1	DONKEY	484	n/a	1	n/a	0	0	0	n/a	n/a	n/a	n/a	n/a
2211.434	n/a	REC_WORD	1105717	wordpools/wasnorm_wordpool_less_exclusions.txt	LTP207	ltpFR	11	9	1	ANTEATER	26	n/a	1	n/a	0	0	0	n/a	n/a	n/a	n/a	n/a
2213.71	n/a	REC_WORD	1106855	wordpools/wasnorm_wordpool_less_exclusions.txt	LTP207	ltpFR	11	9	1	BEAST	108	n/a	1	n/a	0	0	0	n/a	n/a	n/a	n/a	n/a
2216.144	n/a	REC_WORD	1108072	wordpools/wasnorm_wordpool_less_exclusions.txt	LTP207	ltpFR	11	9	1	CONE	363	n/a	0	n/a	0	0	0	n/a	n/a	n/a	n/a	n/a
2232.772	n/a	REC_WORD	1116386	wordpools/wasnorm_wordpool_less_exclusions.txt	LTP207	ltpFR	11	9	1	FAUCET	555	n/a	0	n/a	0	0	0	n/a	n/a	n/a	n/a	n/a
2281.356	n/a	WORD	1140678	wordpools/wasnorm_wordpool_less_exclusions.txt	LTP207	ltpFR	11	10	1	DIPLOMA	470	n/a	0	n/a	0	0	0	1	0.412841796875	0.57763671875	upper	../fonts/zerothre.ttf
2285.228	n/a	WORD	1142614	wordpools/wasnorm_wordpool_less_exclusions.txt	LTP207	ltpFR	11	10	1	OPERA	978	n/a	0	n/a	0	0	0	1	0.412841796875	0.57763671875	upper	../fonts/zerothre.ttf
2289.386	n/a	WORD	1144693	wordpools/wasnorm_wordpool_less_exclusions.txt	LTP207	ltpFR	11	10	1	GOAT	644	n/a	1	n/a	0	0	0	1	0.412841796875	0.57763671875	upper	../fonts/zerothre.ttf
2293.526	n/a	WORD	1146763	wordpools/wasnorm_wordpool_less_exclusions.txt	LTP207	ltpFR	11	10	0	EMPIRE	530	n/a	1	n/a	0	0	0	0	0.5869140625	0.422607421875	lower	../fonts/amplitud.ttf
2297.624	n/a	WORD	1148812	wordpools/wasnorm_wordpool_less_exclusions.txt	LTP207	ltpFR	11	10	0	FRUIT	610	n/a	0	n/a	0	0	0	0	0.5869140625	0.422607421875	lower	../fonts/amplitud.ttf
2301.522	n/a	WORD	1150761	wordpools/wasnorm_wordpool_less_exclusions.txt	LTP207	ltpFR	11	10	0	TREAT	1501	n/a	0	n/a	0	0	0	0	0.5869140625	0.422607421875	lower	../fonts/amplitud.ttf
2305.738	n/a	WORD	1152869	wordpools/wasnorm_wordpool_less_exclusions.txt	LTP207	ltpFR	11	10	0	VINEGAR	1569	n/a	0	n/a	0	0	0	0	0.5869140625	0.422607421875	lower	../fonts/amplitud.ttf
2309.686	n/a	WORD	1154843	wordpools/wasnorm_wordpool_less_exclusions.txt	LTP207	ltpFR	11	10	1	CLAM	315	n/a	1	n/a	0	0	0	1	0.412841796875	0.57763671875	upper	../fonts/zerothre.ttf
2313.552	n/a	WORD	1156776	wordpools/wasnorm_wordpool_less_exclusions.txt	LTP207	ltpFR	11	10	1	OYSTER	995	n/a	1	n/a	0	0	0	1	0.412841796875	0.57763671875	upper	../fonts/zerothre.ttf
2317.684	n/a	WORD	1158842	wordpools/wasnorm_wordpool_less_exclusions.txt	LTP207	ltpFR	11	10	1	WOMAN	1620	n/a	1	n/a	0	0	0	1	0.412841796875	0.57763671875	upper	../fonts/zerothre.ttf
2321.868	n/a	WORD	1160934	wordpools/wasnorm_wordpool_less_exclusions.txt	LTP207	ltpFR	11	10	1	FEMALE	559	n/a	1	n/a	0	0	0	1	0.412841796875	0.57763671875	upper	../fonts/zerothre.ttf
2325.824	n/a	WORD	1162912	wordpools/wasnorm_wordpool_less_exclusions.txt	LTP207	ltpFR	11	10	1	SHEEP	1278	n/a	1	n/a	0	0	0	1	0.412841796875	0.57763671875	upper	../fonts/zerothre.ttf
2329.664	n/a	WORD	1164832	wordpools/wasnorm_wordpool_less_exclusions.txt	LTP207	ltpFR	11	10	0	RECORD	1176	n/a	0	n/a	0	0	0	0	0.5869140625	0.422607421875	lower	../fonts/amplitud.ttf
2333.778	n/a	WORD	1166889	wordpools/wasnorm_wordpool_less_exclusions.txt	LTP207	ltpFR	11	10	0	BLUEBERRY	140	n/a	0	n/a	0	0	0	0	0.5869140625	0.422607421875	lower	../fonts/amplitud.ttf
2337.838	n/a	WORD	1168919	wordpools/wasnorm_wordpool_less_exclusions.txt	LTP207	ltpFR	11	10	0	FUR	615	n/a	0	n/a	0	0	0	0	0.5869140625	0.422607421875	lower	../fonts/amplitud.ttf
2341.86	n/a	WORD	1170930	wordpools/wasnorm_wordpool_less_exclusions.txt	LTP207	ltpFR	11	10	0	MOB	904	n/a	1	n/a	0	0	0	0	0.5869140625	0.422607421875	lower	../fonts/amplitud.ttf
2344.872	n/a	START	1172436	n/a	LTP207	ltpFR	11	n/a	n/a	n/a	n/a	n/a	n/a	n/a	n/a	n/a	n/a	n/a	n/a	n/a	n/a	n/a
2345.792	n/a	PROB	1172896	n/a	LTP207	ltpFR	11	n/a	n/a	n/a	n/a	n/a	n/a	14	6	2	6	n/a	n/a	n/a	n/a	n/a
2347.9	n/a	PROB	1173950	n/a	LTP207	ltpFR	11	n/a	n/a	n/a	n/a	n/a	n/a	8	2	3	3	n/a	n/a	n/a	n/a	n/a
2349.566	n/a	PROB	1174783	n/a	LTP207	ltpFR	11	n/a	n/a	n/a	n/a	n/a	n/a	15	1	6	8	n/a	n/a	n/a	n/a	n/a
2351.322	n/a	PROB	1175661	n/a	LTP207	ltpFR	11	n/a	n/a	n/a	n/a	n/a	n/a	9	1	6	2	n/a	n/a	n/a	n/a	n/a
2352.48	n/a	STOP	1176240	n/a	LTP207	ltpFR	11	n/a	n/a	n/a	n/a	n/a	n/a	n/a	n/a	n/a	n/a	n/a	n/a	n/a	n/a	n/a
2354.736	n/a	REC_START	1177368	n/a	LTP207	ltpFR	11	10	n/a	n/a	n/a	n/a	n/a	n/a	0	0	0	n/a	n/a	n/a	n/a	n/a
2367.762	n/a	REC_WORD	1183881	wordpools/wasnorm_wordpool_less_exclusions.txt	LTP207	ltpFR	11	10	1	GOAT	644	n/a	1	n/a	0	0	0	n/a	n/a	n/a	n/a	n/a
2368.67	n/a	REC_WORD	1184335	wordpools/wasnorm_wordpool_less_exclusions.txt	LTP207	ltpFR	11	10	1	SHEEP	1278	n/a	1	n/a	0	0	0	n/a	n/a	n/a	n/a	n/a
2370.63	n/a	REC_WORD	1185315	wordpools/wasnorm_wordpool_less_exclusions.txt	LTP207	ltpFR	11	10	1	DIPLOMA	470	n/a	0	n/a	0	0	0	n/a	n/a	n/a	n/a	n/a
2372.846	n/a	REC_WORD	1186423	wordpools/wasnorm_wordpool_less_exclusions.txt	LTP207	ltpFR	11	10	1	OPERA	978	n/a	0	n/a	0	0	0	n/a	n/a	n/a	n/a	n/a
2409.08	n/a	REC_WORD	1204540	wordpools/wasnorm_wordpool_less_exclusions.txt	LTP207	ltpFR	11	10	1	OYSTER	995	n/a	1	n/a	0	0	0	n/a	n/a	n/a	n/a	n/a
2410.748	n/a	REC_WORD	1205374	wordpools/wasnorm_wordpool_less_exclusions.txt	LTP207	ltpFR	11	10	1	CLAM	315	n/a	1	n/a	0	0	0	n/a	n/a	n/a	n/a	n/a
2430.382	n/a	REST_REWET	1215191	n/a	LTP207	ltpFR	11	10	n/a	n/a	n/a	n/a	n/a	n/a	0	0	0	n/a	n/a	n/a	n/a	n/a
2775.718	n/a	START	1387859	n/a	LTP207	ltpFR	11	n/a	n/a	n/a	n/a	n/a	n/a	n/a	n/a	n/a	n/a	n/a	n/a	n/a	n/a	n/a
2777.234	n/a	PROB	1388617	n/a	LTP207	ltpFR	11	n/a	n/a	n/a	n/a	n/a	n/a	14	6	6	2	n/a	n/a	n/a	n/a	n/a
2778.688	n/a	PROB	1389344	n/a	LTP207	ltpFR	11	n/a	n/a	n/a	n/a	n/a	n/a	19	7	8	4	n/a	n/a	n/a	n/a	n/a
2780.57	n/a	PROB	1390285	n/a	LTP207	ltpFR	11	n/a	n/a	n/a	n/a	n/a	n/a	14	1	7	6	n/a	n/a	n/a	n/a	n/a
2782.052	n/a	PROB	1391026	n/a	LTP207	ltpFR	11	n/a	n/a	n/a	n/a	n/a	n/a	16	3	8	5	n/a	n/a	n/a	n/a	n/a
2783.54	n/a	PROB	1391770	n/a	LTP207	ltpFR	11	n/a	n/a	n/a	n/a	n/a	n/a	15	2	7	6	n/a	n/a	n/a	n/a	n/a
2784.762	n/a	PROB	1392381	n/a	LTP207	ltpFR	11	n/a	n/a	n/a	n/a	n/a	n/a	12	6	4	2	n/a	n/a	n/a	n/a	n/a
2785.94	n/a	PROB	1392970	n/a	LTP207	ltpFR	11	n/a	n/a	n/a	n/a	n/a	n/a	12	5	3	4	n/a	n/a	n/a	n/a	n/a
2787.606	n/a	PROB	1393803	n/a	LTP207	ltpFR	11	n/a	n/a	n/a	n/a	n/a	n/a	18	3	9	6	n/a	n/a	n/a	n/a	n/a
2789.848	n/a	PROB	1394924	n/a	LTP207	ltpFR	11	n/a	n/a	n/a	n/a	n/a	n/a	18	6	5	7	n/a	n/a	n/a	n/a	n/a
2791.232	n/a	STOP	1395616	n/a	LTP207	ltpFR	11	n/a	n/a	n/a	n/a	n/a	n/a	n/a	n/a	n/a	n/a	n/a	n/a	n/a	n/a	n/a
2792.926	n/a	WORD	1396463	wordpools/wasnorm_wordpool_less_exclusions.txt	LTP207	ltpFR	11	11	0	ROOST	1208	n/a	1	n/a	0	0	0	0	0.5869140625	0.422607421875	lower	../fonts/amplitud.ttf
2795.938	n/a	START	1397969	n/a	LTP207	ltpFR	11	n/a	n/a	n/a	n/a	n/a	n/a	n/a	n/a	n/a	n/a	n/a	n/a	n/a	n/a	n/a
2797.026	n/a	PROB	1398513	n/a	LTP207	ltpFR	11	n/a	n/a	n/a	n/a	n/a	n/a	11	3	1	7	n/a	n/a	n/a	n/a	n/a
2798.204	n/a	PROB	1399102	n/a	LTP207	ltpFR	11	n/a	n/a	n/a	n/a	n/a	n/a	12	6	4	2	n/a	n/a	n/a	n/a	n/a
2799.418	n/a	PROB	1399709	n/a	LTP207	ltpFR	11	n/a	n/a	n/a	n/a	n/a	n/a	13	6	3	4	n/a	n/a	n/a	n/a	n/a
2801.074	n/a	PROB	1400537	n/a	LTP207	ltpFR	11	n/a	n/a	n/a	n/a	n/a	n/a	11	5	3	3	n/a	n/a	n/a	n/a	n/a
2802.764	n/a	PROB	1401382	n/a	LTP207	ltpFR	11	n/a	n/a	n/a	n/a	n/a	n/a	6	1	4	1	n/a	n/a	n/a	n/a	n/a
2803.892	n/a	PROB	1401946	n/a	LTP207	ltpFR	11	n/a	n/a	n/a	n/a	n/a	n/a	10	2	7	1	n/a	n/a	n/a	n/a	n/a
2805.24	n/a	PROB	1402620	n/a	LTP207	ltpFR	11	n/a	n/a	n/a	n/a	n/a	n/a	13	2	9	2	n/a	n/a	n/a	n/a	n/a
2807.366	n/a	PROB	1403683	n/a	LTP207	ltpFR	11	n/a	n/a	n/a	n/a	n/a	n/a	17	8	2	7	n/a	n/a	n/a	n/a	n/a
2808.778	n/a	PROB	1404389	n/a	LTP207	ltpFR	11	n/a	n/a	n/a	n/a	n/a	n/a	10	2	7	1	n/a	n/a	n/a	n/a	n/a
2811.94	n/a	STOP	1405970	n/a	LTP207	ltpFR	11	n/a	n/a	n/a	n/a	n/a	n/a	n/a	n/a	n/a	n/a	n/a	n/a	n/a	n/a	n/a
2812.91	n/a	WORD	1406455	wordpools/wasnorm_wordpool_less_exclusions.txt	LTP207	ltpFR	11	11	0	SLUG	1329	n/a	0	n/a	0	0	0	0	0.5869140625	0.422607421875	lower	../fonts/amplitud.ttf
2815.922	n/a	START	1407961	n/a	LTP207	ltpFR	11	n/a	n/a	n/a	n/a	n/a	n/a	n/a	n/a	n/a	n/a	n/a	n/a	n/a	n/a	n/a
2817.026	n/a	PROB	1408513	n/a	LTP207	ltpFR	11	n/a	n/a	n/a	n/a	n/a	n/a	6	4	1	1	n/a	n/a	n/a	n/a	n/a
2819.284	n/a	PROB	1409642	n/a	LTP207	ltpFR	11	n/a	n/a	n/a	n/a	n/a	n/a	10	4	4	2	n/a	n/a	n/a	n/a	n/a
2820.766	n/a	PROB	1410383	n/a	LTP207	ltpFR	11	n/a	n/a	n/a	n/a	n/a	n/a	12	5	3	4	n/a	n/a	n/a	n/a	n/a
2822.564	n/a	PROB	1411282	n/a	LTP207	ltpFR	11	n/a	n/a	n/a	n/a	n/a	n/a	9	6	1	2	n/a	n/a	n/a	n/a	n/a
2823.828	n/a	PROB	1411914	n/a	LTP207	ltpFR	11	n/a	n/a	n/a	n/a	n/a	n/a	20	1	9	9	n/a	n/a	n/a	n/a	n/a
2825.182	n/a	PROB	1412591	n/a	LTP207	ltpFR	11	n/a	n/a	n/a	n/a	n/a	n/a	19	3	7	9	n/a	n/a	n/a	n/a	n/a
2827.632	n/a	PROB	1413816	n/a	LTP207	ltpFR	11	n/a	n/a	n/a	n/a	n/a	n/a	8	3	3	2	n/a	n/a	n/a	n/a	n/a
2829.054	n/a	PROB	1414527	n/a	LTP207	ltpFR	11	n/a	n/a	n/a	n/a	n/a	n/a	14	5	4	5	n/a	n/a	n/a	n/a	n/a
2830.428	n/a	STOP	1415214	n/a	LTP207	ltpFR	11	n/a	n/a	n/a	n/a	n/a	n/a	n/a	n/a	n/a	n/a	n/a	n/a	n/a	n/a	n/a
2833.07	n/a	WORD	1416535	wordpools/wasnorm_wordpool_less_exclusions.txt	LTP207	ltpFR	11	11	0	VIOLA	1570	n/a	1	n/a	0	0	0	0	0.5869140625	0.422607421875	lower	../fonts/amplitud.ttf
2836.082	n/a	START	1418041	n/a	LTP207	ltpFR	11	n/a	n/a	n/a	n/a	n/a	n/a	n/a	n/a	n/a	n/a	n/a	n/a	n/a	n/a	n/a
2836.968	n/a	PROB	1418484	n/a	LTP207	ltpFR	11	n/a	n/a	n/a	n/a	n/a	n/a	17	7	1	9	n/a	n/a	n/a	n/a	n/a
2839.254	n/a	PROB	1419627	n/a	LTP207	ltpFR	11	n/a	n/a	n/a	n/a	n/a	n/a	20	6	7	7	n/a	n/a	n/a	n/a	n/a
2841.37	n/a	PROB	1420685	n/a	LTP207	ltpFR	11	n/a	n/a	n/a	n/a	n/a	n/a	12	8	2	2	n/a	n/a	n/a	n/a	n/a
2843.302	n/a	PROB	1421651	n/a	LTP207	ltpFR	11	n/a	n/a	n/a	n/a	n/a	n/a	10	4	4	2	n/a	n/a	n/a	n/a	n/a
2846.722	n/a	PROB	1423361	n/a	LTP207	ltpFR	11	n/a	n/a	n/a	n/a	n/a	n/a	24	9	6	9	n/a	n/a	n/a	n/a	n/a
2849.376	n/a	PROB	1424688	n/a	LTP207	ltpFR	11	n/a	n/a	n/a	n/a	n/a	n/a	15	5	3	7	n/a	n/a	n/a	n/a	n/a
2851.132	n/a	STOP	1425566	n/a	LTP207	ltpFR	11	n/a	n/a	n/a	n/a	n/a	n/a	n/a	n/a	n/a	n/a	n/a	n/a	n/a	n/a	n/a
2852.946	n/a	WORD	1426473	wordpools/wasnorm_wordpool_less_exclusions.txt	LTP207	ltpFR	11	11	0	CHESS	294	n/a	1	n/a	0	0	0	0	0.5869140625	0.422607421875	lower	../fonts/amplitud.ttf
2855.958	n/a	START	1427979	n/a	LTP207	ltpFR	11	n/a	n/a	n/a	n/a	n/a	n/a	n/a	n/a	n/a	n/a	n/a	n/a	n/a	n/a	n/a
2856.804	n/a	PROB	1428402	n/a	LTP207	ltpFR	11	n/a	n/a	n/a	n/a	n/a	n/a	15	2	4	9	n/a	n/a	n/a	n/a	n/a
2859.438	n/a	PROB	1429719	n/a	LTP207	ltpFR	11	n/a	n/a	n/a	n/a	n/a	n/a	17	5	3	9	n/a	n/a	n/a	n/a	n/a
2861.38	n/a	PROB	1430690	n/a	LTP207	ltpFR	11	n/a	n/a	n/a	n/a	n/a	n/a	11	3	1	7	n/a	n/a	n/a	n/a	n/a
2862.96	n/a	PROB	1431480	n/a	LTP207	ltpFR	11	n/a	n/a	n/a	n/a	n/a	n/a	18	4	5	9	n/a	n/a	n/a	n/a	n/a
2864.248	n/a	PROB	1432124	n/a	LTP207	ltpFR	11	n/a	n/a	n/a	n/a	n/a	n/a	16	5	7	4	n/a	n/a	n/a	n/a	n/a
2866.038	n/a	PROB	1433019	n/a	LTP207	ltpFR	11	n/a	n/a	n/a	n/a	n/a	n/a	8	1	1	6	n/a	n/a	n/a	n/a	n/a
2869.192	n/a	PROB	1434596	n/a	LTP207	ltpFR	11	n/a	n/a	n/a	n/a	n/a	n/a	10	4	4	2	n/a	n/a	n/a	n/a	n/a
2870.94	n/a	STOP	1435470	n/a	LTP207	ltpFR	11	n/a	n/a	n/a	n/a	n/a	n/a	n/a	n/a	n/a	n/a	n/a	n/a	n/a	n/a	n/a
2873.032	n/a	WORD	1436516	wordpools/wasnorm_wordpool_less_exclusions.txt	LTP207	ltpFR	11	11	0	MOAT	903	n/a	1	n/a	0	0	0	0	0.5869140625	0.422607421875	lower	../fonts/amplitud.ttf
2876.044	n/a	START	1438022	n/a	LTP207	ltpFR	11	n/a	n/a	n/a	n/a	n/a	n/a	n/a	n/a	n/a	n/a	n/a	n/a	n/a	n/a	n/a
2877.082	n/a	PROB	1438541	n/a	LTP207	ltpFR	11	n/a	n/a	n/a	n/a	n/a	n/a	15	8	4	3	n/a	n/a	n/a	n/a	n/a
2878.972	n/a	PROB	1439486	n/a	LTP207	ltpFR	11	n/a	n/a	n/a	n/a	n/a	n/a	24	7	8	9	n/a	n/a	n/a	n/a	n/a
2881.832	n/a	PROB	1440916	n/a	LTP207	ltpFR	11	n/a	n/a	n/a	n/a	n/a	n/a	12	3	5	4	n/a	n/a	n/a	n/a	n/a
2883.622	n/a	PROB	1441811	n/a	LTP207	ltpFR	11	n/a	n/a	n/a	n/a	n/a	n/a	22	9	5	8	n/a	n/a	n/a	n/a	n/a
2885.932	n/a	PROB	1442966	n/a	LTP207	ltpFR	11	n/a	n/a	n/a	n/a	n/a	n/a	13	2	2	9	n/a	n/a	n/a	n/a	n/a
2892.046	n/a	STOP	1446023	n/a	LTP207	ltpFR	11	n/a	n/a	n/a	n/a	n/a	n/a	n/a	n/a	n/a	n/a	n/a	n/a	n/a	n/a	n/a
2893.05	n/a	WORD	1446525	wordpools/wasnorm_wordpool_less_exclusions.txt	LTP207	ltpFR	11	11	0	CAR	241	n/a	1	n/a	0	0	0	0	0.5869140625	0.422607421875	lower	../fonts/amplitud.ttf
2896.062	n/a	START	1448031	n/a	LTP207	ltpFR	11	n/a	n/a	n/a	n/a	n/a	n/a	n/a	n/a	n/a	n/a	n/a	n/a	n/a	n/a	n/a
2897.014	n/a	PROB	1448507	n/a	LTP207	ltpFR	11	n/a	n/a	n/a	n/a	n/a	n/a	1	7	5	1	n/a	n/a	n/a	n/a	n/a
2899.374	n/a	PROB	1449687	n/a	LTP207	ltpFR	11	n/a	n/a	n/a	n/a	n/a	n/a	7	2	3	2	n/a	n/a	n/a	n/a	n/a
2902.218	n/a	PROB	1451109	n/a	LTP207	ltpFR	11	n/a	n/a	n/a	n/a	n/a	n/a	19	9	5	5	n/a	n/a	n/a	n/a	n/a
2905.028	n/a	PROB	1452514	n/a	LTP207	ltpFR	11	n/a	n/a	n/a	n/a	n/a	n/a	13	5	5	3	n/a	n/a	n/a	n/a	n/a
2907.054	n/a	PROB	1453527	n/a	LTP207	ltpFR	11	n/a	n/a	n/a	n/a	n/a	n/a	19	4	9	6	n/a	n/a	n/a	n/a	n/a
2908.86	n/a	PROB	1454430	n/a	LTP207	ltpFR	11	n/a	n/a	n/a	n/a	n/a	n/a	10	4	3	3	n/a	n/a	n/a	n/a	n/a
2910.552	n/a	STOP	1455276	n/a	LTP207	ltpFR	11	n/a	n/a	n/a	n/a	n/a	n/a	n/a	n/a	n/a	n/a	n/a	n/a	n/a	n/a	n/a
2913.22	n/a	WORD	1456610	wordpools/wasnorm_wordpool_less_exclusions.txt	LTP207	ltpFR	11	11	0	TRUCK	1512	n/a	1	n/a	0	0	0	0	0.5869140625	0.422607421875	lower	../fonts/amplitud.ttf
2916.232	n/a	START	1458116	n/a	LTP207	ltpFR	11	n/a	n/a	n/a	n/a	n/a	n/a	n/a	n/a	n/a	n/a	n/a	n/a	n/a	n/a	n/a
2917.174	n/a	PROB	1458587	n/a	LTP207	ltpFR	11	n/a	n/a	n/a	n/a	n/a	n/a	15	5	3	7	n/a	n/a	n/a	n/a	n/a
2919.484	n/a	PROB	1459742	n/a	LTP207	ltpFR	11	n/a	n/a	n/a	n/a	n/a	n/a	12	1	9	1	n/a	n/a	n/a	n/a	n/a
2921.718	n/a	PROB	1460859	n/a	LTP207	ltpFR	11	n/a	n/a	n/a	n/a	n/a	n/a	7	4	2	1	n/a	n/a	n/a	n/a	n/a
2923.866	n/a	PROB	1461933	n/a	LTP207	ltpFR	11	n/a	n/a	n/a	n/a	n/a	n/a	22	8	6	7	n/a	n/a	n/a	n/a	n/a
2926.252	n/a	PROB	1463126	n/a	LTP207	ltpFR	11	n/a	n/a	n/a	n/a	n/a	n/a	16	1	8	7	n/a	n/a	n/a	n/a	n/a
2928.034	n/a	PROB	1464017	n/a	LTP207	ltpFR	11	n/a	n/a	n/a	n/a	n/a	n/a	10	3	5	2	n/a	n/a	n/a	n/a	n/a
2932.232	n/a	STOP	1466116	n/a	LTP207	ltpFR	11	n/a	n/a	n/a	n/a	n/a	n/a	n/a	n/a	n/a	n/a	n/a	n/a	n/a	n/a	n/a
2933.472	n/a	WORD	1466736	wordpools/wasnorm_wordpool_less_exclusions.txt	LTP207	ltpFR	11	11	0	WORM	1623	n/a	0	n/a	0	0	0	0	0.5869140625	0.422607421875	lower	../fonts/amplitud.ttf
2936.484	n/a	START	1468242	n/a	LTP207	ltpFR	11	n/a	n/a	n/a	n/a	n/a	n/a	n/a	n/a	n/a	n/a	n/a	n/a	n/a	n/a	n/a
2937.528	n/a	PROB	1468764	n/a	LTP207	ltpFR	11	n/a	n/a	n/a	n/a	n/a	n/a	19	9	7	3	n/a	n/a	n/a	n/a	n/a
2939.594	n/a	PROB	1469797	n/a	LTP207	ltpFR	11	n/a	n/a	n/a	n/a	n/a	n/a	7	1	1	5	n/a	n/a	n/a	n/a	n/a
2941.008	n/a	PROB	1470504	n/a	LTP207	ltpFR	11	n/a	n/a	n/a	n/a	n/a	n/a	14	5	1	8	n/a	n/a	n/a	n/a	n/a
2942.832	n/a	PROB	1471416	n/a	LTP207	ltpFR	11	n/a	n/a	n/a	n/a	n/a	n/a	12	5	5	2	n/a	n/a	n/a	n/a	n/a
2943.92	n/a	PROB	1471960	n/a	LTP207	ltpFR	11	n/a	n/a	n/a	n/a	n/a	n/a	20	5	9	6	n/a	n/a	n/a	n/a	n/a
2946.764	n/a	PROB	1473382	n/a	LTP207	ltpFR	11	n/a	n/a	n/a	n/a	n/a	n/a	19	7	4	8	n/a	n/a	n/a	n/a	n/a
2948.446	n/a	PROB	1474223	n/a	LTP207	ltpFR	11	n/a	n/a	n/a	n/a	n/a	n/a	13	3	5	5	n/a	n/a	n/a	n/a	n/a
2949.776	n/a	PROB	1474888	n/a	LTP207	ltpFR	11	n/a	n/a	n/a	n/a	n/a	n/a	15	7	5	3	n/a	n/a	n/a	n/a	n/a
2951.184	n/a	STOP	1475592	n/a	LTP207	ltpFR	11	n/a	n/a	n/a	n/a	n/a	n/a	n/a	n/a	n/a	n/a	n/a	n/a	n/a	n/a	n/a
2953.69	n/a	WORD	1476845	wordpools/wasnorm_wordpool_less_exclusions.txt	LTP207	ltpFR	11	11	0	SPARROW	1347	n/a	0	n/a	0	0	0	0	0.5869140625	0.422607421875	lower	../fonts/amplitud.ttf
2956.702	n/a	START	1478351	n/a	LTP207	ltpFR	11	n/a	n/a	n/a	n/a	n/a	n/a	n/a	n/a	n/a	n/a	n/a	n/a	n/a	n/a	n/a
2957.83	n/a	PROB	1478915	n/a	LTP207	ltpFR	11	n/a	n/a	n/a	n/a	n/a	n/a	23	9	6	8	n/a	n/a	n/a	n/a	n/a
2960.056	n/a	PROB	1480028	n/a	LTP207	ltpFR	11	n/a	n/a	n/a	n/a	n/a	n/a	15	6	1	8	n/a	n/a	n/a	n/a	n/a
2961.326	n/a	PROB	1480663	n/a	LTP207	ltpFR	11	n/a	n/a	n/a	n/a	n/a	n/a	14	3	2	9	n/a	n/a	n/a	n/a	n/a
2963.352	n/a	PROB	1481676	n/a	LTP207	ltpFR	11	n/a	n/a	n/a	n/a	n/a	n/a	22	7	9	5	n/a	n/a	n/a	n/a	n/a
2965.302	n/a	PROB	1482651	n/a	LTP207	ltpFR	11	n/a	n/a	n/a	n/a	n/a	n/a	13	2	6	5	n/a	n/a	n/a	n/a	n/a
2968.062	n/a	PROB	1484031	n/a	LTP207	ltpFR	11	n/a	n/a	n/a	n/a	n/a	n/a	21	8	6	7	n/a	n/a	n/a	n/a	n/a
2970.244	n/a	PROB	1485122	n/a	LTP207	ltpFR	11	n/a	n/a	n/a	n/a	n/a	n/a	13	4	6	3	n/a	n/a	n/a	n/a	n/a
2971.356	n/a	STOP	1485678	n/a	LTP207	ltpFR	11	n/a	n/a	n/a	n/a	n/a	n/a	n/a	n/a	n/a	n/a	n/a	n/a	n/a	n/a	n/a
2973.55	n/a	WORD	1486775	wordpools/wasnorm_wordpool_less_exclusions.txt	LTP207	ltpFR	11	11	0	BILL	126	n/a	0	n/a	0	0	0	0	0.5869140625	0.422607421875	lower	../fonts/amplitud.ttf
2976.562	n/a	START	1488281	n/a	LTP207	ltpFR	11	n/a	n/a	n/a	n/a	n/a	n/a	n/a	n/a	n/a	n/a	n/a	n/a	n/a	n/a	n/a
2977.756	n/a	PROB	1488878	n/a	LTP207	ltpFR	11	n/a	n/a	n/a	n/a	n/a	n/a	21	6	7	8	n/a	n/a	n/a	n/a	n/a
2979.456	n/a	PROB	1489728	n/a	LTP207	ltpFR	11	n/a	n/a	n/a	n/a	n/a	n/a	9	5	3	1	n/a	n/a	n/a	n/a	n/a
2981.212	n/a	PROB	1490606	n/a	LTP207	ltpFR	11	n/a	n/a	n/a	n/a	n/a	n/a	23	8	6	9	n/a	n/a	n/a	n/a	n/a
2983.89	n/a	PROB	1491945	n/a	LTP207	ltpFR	11	n/a	n/a	n/a	n/a	n/a	n/a	17	4	5	8	n/a	n/a	n/a	n/a	n/a
2985.414	n/a	PROB	1492707	n/a	LTP207	ltpFR	11	n/a	n/a	n/a	n/a	n/a	n/a	24	8	9	7	n/a	n/a	n/a	n/a	n/a
2988.59	n/a	PROB	1494295	n/a	LTP207	ltpFR	11	n/a	n/a	n/a	n/a	n/a	n/a	7	3	3	1	n/a	n/a	n/a	n/a	n/a
2989.946	n/a	PROB	1494973	n/a	LTP207	ltpFR	11	n/a	n/a	n/a	n/a	n/a	n/a	12	4	7	1	n/a	n/a	n/a	n/a	n/a
2991.172	n/a	STOP	1495586	n/a	LTP207	ltpFR	11	n/a	n/a	n/a	n/a	n/a	n/a	n/a	n/a	n/a	n/a	n/a	n/a	n/a	n/a	n/a
2993.55	n/a	WORD	1496775	wordpools/wasnorm_wordpool_less_exclusions.txt	LTP207	ltpFR	11	11	0	MEAL	882	n/a	1	n/a	0	0	0	0	0.5869140625	0.422607421875	lower	../fonts/amplitud.ttf
2996.562	n/a	START	1498281	n/a	LTP207	ltpFR	11	n/a	n/a	n/a	n/a	n/a	n/a	n/a	n/a	n/a	n/a	n/a	n/a	n/a	n/a	n/a
2997.476	n/a	PROB	1498738	n/a	LTP207	ltpFR	11	n/a	n/a	n/a	n/a	n/a	n/a	17	7	2	8	n/a	n/a	n/a	n/a	n/a
2999.222	n/a	PROB	1499611	n/a	LTP207	ltpFR	11	n/a	n/a	n/a	n/a	n/a	n/a	19	5	8	6	n/a	n/a	n/a	n/a	n/a
3000.946	n/a	PROB	1500473	n/a	LTP207	ltpFR	11	n/a	n/a	n/a	n/a	n/a	n/a	13	1	4	8	n/a	n/a	n/a	n/a	n/a
3002.276	n/a	PROB	1501138	n/a	LTP207	ltpFR	11	n/a	n/a	n/a	n/a	n/a	n/a	16	2	8	6	n/a	n/a	n/a	n/a	n/a
3004.392	n/a	PROB	1502196	n/a	LTP207	ltpFR	11	n/a	n/a	n/a	n/a	n/a	n/a	14	6	6	2	n/a	n/a	n/a	n/a	n/a
3006.142	n/a	PROB	1503071	n/a	LTP207	ltpFR	11	n/a	n/a	n/a	n/a	n/a	n/a	22	9	5	7	n/a	n/a	n/a	n/a	n/a
3007.948	n/a	PROB	1503974	n/a	LTP207	ltpFR	11	n/a	n/a	n/a	n/a	n/a	n/a	17	7	7	3	n/a	n/a	n/a	n/a	n/a
3010.106	n/a	PROB	1505053	n/a	LTP207	ltpFR	11	n/a	n/a	n/a	n/a	n/a	n/a	12	3	7	2	n/a	n/a	n/a	n/a	n/a
3011.716	n/a	STOP	1505858	n/a	LTP207	ltpFR	11	n/a	n/a	n/a	n/a	n/a	n/a	n/a	n/a	n/a	n/a	n/a	n/a	n/a	n/a	n/a
3013.478	n/a	WORD	1506739	wordpools/wasnorm_wordpool_less_exclusions.txt	LTP207	ltpFR	11	11	0	GRILL	661	n/a	1	n/a	0	0	0	0	0.5869140625	0.422607421875	lower	../fonts/amplitud.ttf
3016.488	n/a	START	1508244	n/a	LTP207	ltpFR	11	n/a	n/a	n/a	n/a	n/a	n/a	n/a	n/a	n/a	n/a	n/a	n/a	n/a	n/a	n/a
3017.358	n/a	PROB	1508679	n/a	LTP207	ltpFR	11	n/a	n/a	n/a	n/a	n/a	n/a	6	2	3	1	n/a	n/a	n/a	n/a	n/a
3018.99	n/a	PROB	1509495	n/a	LTP207	ltpFR	11	n/a	n/a	n/a	n/a	n/a	n/a	5	1	1	3	n/a	n/a	n/a	n/a	n/a
3020.168	n/a	PROB	1510084	n/a	LTP207	ltpFR	11	n/a	n/a	n/a	n/a	n/a	n/a	15	9	1	5	n/a	n/a	n/a	n/a	n/a
3021.668	n/a	PROB	1510834	n/a	LTP207	ltpFR	11	n/a	n/a	n/a	n/a	n/a	n/a	8	2	4	2	n/a	n/a	n/a	n/a	n/a
3023.692	n/a	PROB	1511846	n/a	LTP207	ltpFR	11	n/a	n/a	n/a	n/a	n/a	n/a	11	1	5	5	n/a	n/a	n/a	n/a	n/a
3024.862	n/a	PROB	1512431	n/a	LTP207	ltpFR	11	n/a	n/a	n/a	n/a	n/a	n/a	14	7	2	5	n/a	n/a	n/a	n/a	n/a
3026.192	n/a	PROB	1513096	n/a	LTP207	ltpFR	11	n/a	n/a	n/a	n/a	n/a	n/a	20	3	8	9	n/a	n/a	n/a	n/a	n/a
3028.41	n/a	PROB	1514205	n/a	LTP207	ltpFR	11	n/a	n/a	n/a	n/a	n/a	n/a	15	8	5	2	n/a	n/a	n/a	n/a	n/a
3029.864	n/a	PROB	1514932	n/a	LTP207	ltpFR	11	n/a	n/a	n/a	n/a	n/a	n/a	23	9	8	6	n/a	n/a	n/a	n/a	n/a
3032.358	n/a	STOP	1516179	n/a	LTP207	ltpFR	11	n/a	n/a	n/a	n/a	n/a	n/a	n/a	n/a	n/a	n/a	n/a	n/a	n/a	n/a	n/a
3033.486	n/a	WORD	1516743	wordpools/wasnorm_wordpool_less_exclusions.txt	LTP207	ltpFR	11	11	0	DOVE	491	n/a	0	n/a	0	0	0	0	0.5869140625	0.422607421875	lower	../fonts/amplitud.ttf
3036.498	n/a	START	1518249	n/a	LTP207	ltpFR	11	n/a	n/a	n/a	n/a	n/a	n/a	n/a	n/a	n/a	n/a	n/a	n/a	n/a	n/a	n/a
3037.418	n/a	PROB	1518709	n/a	LTP207	ltpFR	11	n/a	n/a	n/a	n/a	n/a	n/a	18	5	8	5	n/a	n/a	n/a	n/a	n/a
3038.732	n/a	PROB	1519366	n/a	LTP207	ltpFR	11	n/a	n/a	n/a	n/a	n/a	n/a	18	9	4	5	n/a	n/a	n/a	n/a	n/a
3040.112	n/a	PROB	1520056	n/a	LTP207	ltpFR	11	n/a	n/a	n/a	n/a	n/a	n/a	12	1	2	9	n/a	n/a	n/a	n/a	n/a
