onset	duration	trial_type	sample	stim_file	subject	experiment	session	trial	item_name	item_num	list	answer	test_x	test_y	test_z
206.684	n/a	SESS_START	103342	n/a	LTP322	ltpFR2	9	n/a	n/a	n/a	n/a	n/a	0	0	0
223.718	n/a	START	111859	n/a	LTP322	ltpFR2	9	n/a	n/a	n/a	-1	n/a	n/a	n/a	n/a
223.75	n/a	PROB	111875	n/a	LTP322	ltpFR2	9	n/a	n/a	n/a	-1	23	8	7	8
226.452	n/a	PROB	113226	n/a	LTP322	ltpFR2	9	n/a	n/a	n/a	-1	12	2	4	6
228.02	n/a	PROB	114010	n/a	LTP322	ltpFR2	9	n/a	n/a	n/a	-1	15	2	4	9
229.654	n/a	PROB	114827	n/a	LTP322	ltpFR2	9	n/a	n/a	n/a	-1	15	1	6	8
231.106	n/a	PROB	115553	n/a	LTP322	ltpFR2	9	n/a	n/a	n/a	-1	14	5	7	2
233.108	n/a	PROB	116554	n/a	LTP322	ltpFR2	9	n/a	n/a	n/a	-1	15	4	8	3
234.576	n/a	STOP	117288	n/a	LTP322	ltpFR2	9	n/a	n/a	n/a	-1	n/a	n/a	n/a	n/a
271.706	n/a	WORD	135853	wordpools/wasnorm_wordpool_576.txt	LTP322	ltpFR2	9	1	NECKLACE	940	n/a	n/a	0	0	0
274.226	n/a	WORD	137113	wordpools/wasnorm_wordpool_576.txt	LTP322	ltpFR2	9	1	TRIBE	1505	n/a	n/a	0	0	0
277.044	n/a	WORD	138522	wordpools/wasnorm_wordpool_576.txt	LTP322	ltpFR2	9	1	TURKEY	1520	n/a	n/a	0	0	0
279.648	n/a	WORD	139824	wordpools/wasnorm_wordpool_576.txt	LTP322	ltpFR2	9	1	MEDAL	885	n/a	n/a	0	0	0
282.4	n/a	WORD	141200	wordpools/wasnorm_wordpool_576.txt	LTP322	ltpFR2	9	1	BULLET	194	n/a	n/a	0	0	0
285.1	n/a	WORD	142550	wordpools/wasnorm_wordpool_576.txt	LTP322	ltpFR2	9	1	COMET	353	n/a	n/a	0	0	0
287.87	n/a	WORD	143935	wordpools/wasnorm_wordpool_576.txt	LTP322	ltpFR2	9	1	WORLD	1622	n/a	n/a	0	0	0
290.656	n/a	WORD	145328	wordpools/wasnorm_wordpool_576.txt	LTP322	ltpFR2	9	1	CASKET	255	n/a	n/a	0	0	0
293.19	n/a	WORD	146595	wordpools/wasnorm_wordpool_576.txt	LTP322	ltpFR2	9	1	AIRPORT	13	n/a	n/a	0	0	0
295.644	n/a	WORD	147822	wordpools/wasnorm_wordpool_576.txt	LTP322	ltpFR2	9	1	SEAL	1262	n/a	n/a	0	0	0
298.194	n/a	WORD	149097	wordpools/wasnorm_wordpool_576.txt	LTP322	ltpFR2	9	1	HORNET	718	n/a	n/a	0	0	0
300.932	n/a	WORD	150466	wordpools/wasnorm_wordpool_576.txt	LTP322	ltpFR2	9	1	BACKBONE	66	n/a	n/a	0	0	0
303.434	n/a	WORD	151717	wordpools/wasnorm_wordpool_576.txt	LTP322	ltpFR2	9	1	INMATE	738	n/a	n/a	0	0	0
305.92	n/a	WORD	152960	wordpools/wasnorm_wordpool_576.txt	LTP322	ltpFR2	9	1	PILOT	1070	n/a	n/a	0	0	0
308.488	n/a	WORD	154244	wordpools/wasnorm_wordpool_576.txt	LTP322	ltpFR2	9	1	DONOR	485	n/a	n/a	0	0	0
311.124	n/a	WORD	155562	wordpools/wasnorm_wordpool_576.txt	LTP322	ltpFR2	9	1	KIDNEY	776	n/a	n/a	0	0	0
313.892	n/a	WORD	156946	wordpools/wasnorm_wordpool_576.txt	LTP322	ltpFR2	9	1	SURVEY	1414	n/a	n/a	0	0	0
316.428	n/a	WORD	158214	wordpools/wasnorm_wordpool_576.txt	LTP322	ltpFR2	9	1	CREATURE	403	n/a	n/a	0	0	0
319.148	n/a	WORD	159574	wordpools/wasnorm_wordpool_576.txt	LTP322	ltpFR2	9	1	BISON	131	n/a	n/a	0	0	0
321.95	n/a	WORD	160975	wordpools/wasnorm_wordpool_576.txt	LTP322	ltpFR2	9	1	PALACE	1006	n/a	n/a	0	0	0
324.452	n/a	WORD	162226	wordpools/wasnorm_wordpool_576.txt	LTP322	ltpFR2	9	1	SCOTCH	1251	n/a	n/a	0	0	0
326.986	n/a	WORD	163493	wordpools/wasnorm_wordpool_576.txt	LTP322	ltpFR2	9	1	BRANCH	168	n/a	n/a	0	0	0
329.806	n/a	WORD	164903	wordpools/wasnorm_wordpool_576.txt	LTP322	ltpFR2	9	1	NAPKIN	937	n/a	n/a	0	0	0
332.558	n/a	WORD	166279	wordpools/wasnorm_wordpool_576.txt	LTP322	ltpFR2	9	1	WINDOW	1611	n/a	n/a	0	0	0
334.176	n/a	START	167088	n/a	LTP322	ltpFR2	9	n/a	n/a	n/a	1	n/a	n/a	n/a	n/a
335.318	n/a	DISTRACTOR	167659	n/a	LTP322	ltpFR2	9	1	n/a	n/a	n/a	n/a	0	0	0
335.344	n/a	PROB	167672	n/a	LTP322	ltpFR2	9	n/a	n/a	n/a	1	16	4	5	7
337.712	n/a	PROB	168856	n/a	LTP322	ltpFR2	9	n/a	n/a	n/a	1	18	4	8	6
340.164	n/a	PROB	170082	n/a	LTP322	ltpFR2	9	n/a	n/a	n/a	1	18	8	3	7
341.6	n/a	PROB	170800	n/a	LTP322	ltpFR2	9	n/a	n/a	n/a	1	13	2	2	9
343.25	n/a	PROB	171625	n/a	LTP322	ltpFR2	9	n/a	n/a	n/a	1	16	4	9	2
345.118	n/a	PROB	172559	n/a	LTP322	ltpFR2	9	n/a	n/a	n/a	1	18	4	7	7
347.32	n/a	PROB	173660	n/a	LTP322	ltpFR2	9	n/a	n/a	n/a	1	11	2	7	2
348.972	n/a	PROB	174486	n/a	LTP322	ltpFR2	9	n/a	n/a	n/a	1	15	2	9	4
350.84	n/a	PROB	175420	n/a	LTP322	ltpFR2	9	n/a	n/a	n/a	1	20	9	2	9
352.326	n/a	PROB	176163	n/a	LTP322	ltpFR2	9	n/a	n/a	n/a	1	6	1	3	2
354.71	n/a	PROB	177355	n/a	LTP322	ltpFR2	9	n/a	n/a	n/a	1	18	5	8	5
356.328	n/a	PROB	178164	n/a	LTP322	ltpFR2	9	n/a	n/a	n/a	1	19	8	5	6
358.082	n/a	STOP	179041	n/a	LTP322	ltpFR2	9	n/a	n/a	n/a	1	n/a	n/a	n/a	n/a
360.082	n/a	REC_START	180041	n/a	LTP322	ltpFR2	9	1	n/a	n/a	n/a	n/a	0	0	0
376.946	n/a	REC_WORD	188473	wordpools/wasnorm_wordpool_576.txt	LTP322	ltpFR2	9	1	NECKLACE	940	n/a	n/a	0	0	0
378.288	n/a	REC_WORD	189144	wordpools/wasnorm_wordpool_576.txt	LTP322	ltpFR2	9	1	TURKEY	1520	n/a	n/a	0	0	0
379.496	n/a	REC_WORD	189748	wordpools/wasnorm_wordpool_576.txt	LTP322	ltpFR2	9	1	TRIBE	1505	n/a	n/a	0	0	0
384.626	n/a	REC_WORD	192313	wordpools/wasnorm_wordpool_576.txt	LTP322	ltpFR2	9	1	MEDAL	885	n/a	n/a	0	0	0
386.2	n/a	REC_WORD	193100	wordpools/wasnorm_wordpool_576.txt	LTP322	ltpFR2	9	1	BULLET	194	n/a	n/a	0	0	0
388.394	n/a	REC_WORD	194197	wordpools/wasnorm_wordpool_576.txt	LTP322	ltpFR2	9	1	COMET	353	n/a	n/a	0	0	0
390.072	n/a	REC_WORD	195036	wordpools/wasnorm_wordpool_576.txt	LTP322	ltpFR2	9	1	WORLD	1622	n/a	n/a	0	0	0
393.724	n/a	REC_WORD	196862	wordpools/wasnorm_wordpool_576.txt	LTP322	ltpFR2	9	1	AIRPORT	13	n/a	n/a	0	0	0
394.922	n/a	REC_WORD	197461	wordpools/wasnorm_wordpool_576.txt	LTP322	ltpFR2	9	1	CASKET	255	n/a	n/a	0	0	0
396.53	n/a	REC_WORD	198265	wordpools/wasnorm_wordpool_576.txt	LTP322	ltpFR2	9	1	SEAL	1262	n/a	n/a	0	0	0
398.672	n/a	REC_WORD	199336	wordpools/wasnorm_wordpool_576.txt	LTP322	ltpFR2	9	1	PILOT	1070	n/a	n/a	0	0	0
399.962	n/a	REC_WORD	199981	wordpools/wasnorm_wordpool_576.txt	LTP322	ltpFR2	9	1	INMATE	738	n/a	n/a	0	0	0
401.382	n/a	REC_WORD	200691	wordpools/wasnorm_wordpool_576.txt	LTP322	ltpFR2	9	1	DONOR	485	n/a	n/a	0	0	0
402.63	n/a	REC_WORD	201315	wordpools/wasnorm_wordpool_576.txt	LTP322	ltpFR2	9	1	KIDNEY	776	n/a	n/a	0	0	0
405.474	n/a	REC_WORD	202737	wordpools/wasnorm_wordpool_576.txt	LTP322	ltpFR2	9	1	SURVEY	1414	n/a	n/a	0	0	0
406.748	n/a	REC_WORD	203374	wordpools/wasnorm_wordpool_576.txt	LTP322	ltpFR2	9	1	CREATURE	403	n/a	n/a	0	0	0
407.966	n/a	REC_WORD	203983	wordpools/wasnorm_wordpool_576.txt	LTP322	ltpFR2	9	1	BISON	131	n/a	n/a	0	0	0
409.266	n/a	REC_WORD	204633	wordpools/wasnorm_wordpool_576.txt	LTP322	ltpFR2	9	1	PALACE	1006	n/a	n/a	0	0	0
411.526	n/a	REC_WORD	205763	wordpools/wasnorm_wordpool_576.txt	LTP322	ltpFR2	9	1	RANCH	1166	n/a	n/a	0	0	0
412.998	n/a	REC_WORD	206499	wordpools/wasnorm_wordpool_576.txt	LTP322	ltpFR2	9	1	WINDOW	1611	n/a	n/a	0	0	0
414.636	n/a	REC_WORD	207318	wordpools/wasnorm_wordpool_576.txt	LTP322	ltpFR2	9	1	NAPKIN	937	n/a	n/a	0	0	0
431.008	n/a	REC_WORD	215504	wordpools/wasnorm_wordpool_576.txt	LTP322	ltpFR2	9	1	BACKBONE	66	n/a	n/a	0	0	0
432.496	n/a	REC_WORD	216248	wordpools/wasnorm_wordpool_576.txt	LTP322	ltpFR2	9	1	HORNET	718	n/a	n/a	0	0	0
450.494	n/a	DISTRACTOR	225247	n/a	LTP322	ltpFR2	9	2	n/a	n/a	n/a	n/a	0	0	0
450.494	n/a	START	225247	n/a	LTP322	ltpFR2	9	n/a	n/a	n/a	2	n/a	n/a	n/a	n/a
450.51	n/a	PROB	225255	n/a	LTP322	ltpFR2	9	n/a	n/a	n/a	2	12	5	2	5
451.824	n/a	PROB	225912	n/a	LTP322	ltpFR2	9	n/a	n/a	n/a	2	13	3	5	5
452.956	n/a	PROB	226478	n/a	LTP322	ltpFR2	9	n/a	n/a	n/a	2	14	1	6	7
454.826	n/a	PROB	227413	n/a	LTP322	ltpFR2	9	n/a	n/a	n/a	2	10	7	2	1
456.16	n/a	PROB	228080	n/a	LTP322	ltpFR2	9	n/a	n/a	n/a	2	18	8	8	2
457.494	n/a	PROB	228747	n/a	LTP322	ltpFR2	9	n/a	n/a	n/a	2	15	3	3	9
459.726	n/a	PROB	229863	n/a	LTP322	ltpFR2	9	n/a	n/a	n/a	2	17	8	1	8
461.246	n/a	PROB	230623	n/a	LTP322	ltpFR2	9	n/a	n/a	n/a	2	10	5	1	4
462.946	n/a	PROB	231473	n/a	LTP322	ltpFR2	9	n/a	n/a	n/a	2	16	3	6	7
464.532	n/a	PROB	232266	n/a	LTP322	ltpFR2	9	n/a	n/a	n/a	2	26	9	8	9
466.366	n/a	PROB	233183	n/a	LTP322	ltpFR2	9	n/a	n/a	n/a	2	21	9	3	9
468.184	n/a	PROB	234092	n/a	LTP322	ltpFR2	9	n/a	n/a	n/a	2	17	3	7	7
470.07	n/a	PROB	235035	n/a	LTP322	ltpFR2	9	n/a	n/a	n/a	2	16	2	6	8
471.57	n/a	PROB	235785	n/a	LTP322	ltpFR2	9	n/a	n/a	n/a	2	12	5	1	6
472.872	n/a	PROB	236436	n/a	LTP322	ltpFR2	9	n/a	n/a	n/a	2	16	3	7	6
474.1	n/a	STOP	237050	n/a	LTP322	ltpFR2	9	n/a	n/a	n/a	2	n/a	n/a	n/a	n/a
475.474	n/a	WORD	237737	wordpools/wasnorm_wordpool_576.txt	LTP322	ltpFR2	9	2	CANYON	235	n/a	n/a	0	0	0
477.926	n/a	WORD	238963	wordpools/wasnorm_wordpool_576.txt	LTP322	ltpFR2	9	2	SCARECROW	1245	n/a	n/a	0	0	0
480.67	n/a	WORD	240335	wordpools/wasnorm_wordpool_576.txt	LTP322	ltpFR2	9	2	SUNRISE	1407	n/a	n/a	0	0	0
483.29	n/a	WORD	241645	wordpools/wasnorm_wordpool_576.txt	LTP322	ltpFR2	9	2	SPARROW	1347	n/a	n/a	0	0	0
486.058	n/a	WORD	243029	wordpools/wasnorm_wordpool_576.txt	LTP322	ltpFR2	9	2	CANAL	226	n/a	n/a	0	0	0
488.534	n/a	WORD	244267	wordpools/wasnorm_wordpool_576.txt	LTP322	ltpFR2	9	2	GIRL	637	n/a	n/a	0	0	0
491.236	n/a	WORD	245618	wordpools/wasnorm_wordpool_576.txt	LTP322	ltpFR2	9	2	GAZELLE	628	n/a	n/a	0	0	0
493.932	n/a	WORD	246966	wordpools/wasnorm_wordpool_576.txt	LTP322	ltpFR2	9	2	BIKE	125	n/a	n/a	0	0	0
496.416	n/a	WORD	248208	wordpools/wasnorm_wordpool_576.txt	LTP322	ltpFR2	9	2	CRITIC	410	n/a	n/a	0	0	0
499.002	n/a	WORD	249501	wordpools/wasnorm_wordpool_576.txt	LTP322	ltpFR2	9	2	DUSTPAN	509	n/a	n/a	0	0	0
501.57	n/a	WORD	250785	wordpools/wasnorm_wordpool_576.txt	LTP322	ltpFR2	9	2	CEILING	265	n/a	n/a	0	0	0
504.272	n/a	WORD	252136	wordpools/wasnorm_wordpool_576.txt	LTP322	ltpFR2	9	2	RAFT	1159	n/a	n/a	0	0	0
506.808	n/a	WORD	253404	wordpools/wasnorm_wordpool_576.txt	LTP322	ltpFR2	9	2	COLONEL	348	n/a	n/a	0	0	0
509.31	n/a	WORD	254655	wordpools/wasnorm_wordpool_576.txt	LTP322	ltpFR2	9	2	LACE	792	n/a	n/a	0	0	0
512.078	n/a	WORD	256039	wordpools/wasnorm_wordpool_576.txt	LTP322	ltpFR2	9	2	DRESS	495	n/a	n/a	0	0	0
514.832	n/a	WORD	257416	wordpools/wasnorm_wordpool_576.txt	LTP322	ltpFR2	9	2	GARLIC	624	n/a	n/a	0	0	0
517.54	n/a	WORD	258770	wordpools/wasnorm_wordpool_576.txt	LTP322	ltpFR2	9	2	LAPEL	800	n/a	n/a	0	0	0
520.052	n/a	WORD	260026	wordpools/wasnorm_wordpool_576.txt	LTP322	ltpFR2	9	2	CABIN	211	n/a	n/a	0	0	0
522.644	n/a	WORD	261322	wordpools/wasnorm_wordpool_576.txt	LTP322	ltpFR2	9	2	COTTAGE	384	n/a	n/a	0	0	0
525.312	n/a	WORD	262656	wordpools/wasnorm_wordpool_576.txt	LTP322	ltpFR2	9	2	CHILD	299	n/a	n/a	0	0	0
528.026	n/a	WORD	264013	wordpools/wasnorm_wordpool_576.txt	LTP322	ltpFR2	9	2	RECORD	1176	n/a	n/a	0	0	0
530.812	n/a	WORD	265406	wordpools/wasnorm_wordpool_576.txt	LTP322	ltpFR2	9	2	COCOON	339	n/a	n/a	0	0	0
533.416	n/a	WORD	266708	wordpools/wasnorm_wordpool_576.txt	LTP322	ltpFR2	9	2	PEANUT	1032	n/a	n/a	0	0	0
535.918	n/a	WORD	267959	wordpools/wasnorm_wordpool_576.txt	LTP322	ltpFR2	9	2	COUCH	386	n/a	n/a	0	0	0
537.524	n/a	START	268762	n/a	LTP322	ltpFR2	9	n/a	n/a	n/a	3	n/a	n/a	n/a	n/a
538.618	n/a	DISTRACTOR	269309	n/a	LTP322	ltpFR2	9	2	n/a	n/a	n/a	n/a	0	0	0
538.624	n/a	PROB	269312	n/a	LTP322	ltpFR2	9	n/a	n/a	n/a	3	14	3	3	8
540.776	n/a	PROB	270388	n/a	LTP322	ltpFR2	9	n/a	n/a	n/a	3	16	9	4	3
542.594	n/a	PROB	271297	n/a	LTP322	ltpFR2	9	n/a	n/a	n/a	3	21	5	7	9
544.596	n/a	PROB	272298	n/a	LTP322	ltpFR2	9	n/a	n/a	n/a	3	20	7	8	5
546.314	n/a	PROB	273157	n/a	LTP322	ltpFR2	9	n/a	n/a	n/a	3	14	3	2	9
547.782	n/a	PROB	273891	n/a	LTP322	ltpFR2	9	n/a	n/a	n/a	3	15	9	4	2
549.282	n/a	PROB	274641	n/a	LTP322	ltpFR2	9	n/a	n/a	n/a	3	18	8	3	7
550.9	n/a	PROB	275450	n/a	LTP322	ltpFR2	9	n/a	n/a	n/a	3	14	2	4	8
552.88	n/a	PROB	276440	n/a	LTP322	ltpFR2	9	n/a	n/a	n/a	3	22	7	6	9
555.148	n/a	PROB	277574	n/a	LTP322	ltpFR2	9	n/a	n/a	n/a	3	3	1	1	1
556.186	n/a	PROB	278093	n/a	LTP322	ltpFR2	9	n/a	n/a	n/a	3	19	5	7	7
558.088	n/a	PROB	279044	n/a	LTP322	ltpFR2	9	n/a	n/a	n/a	3	16	2	5	9
561.522	n/a	STOP	280761	n/a	LTP322	ltpFR2	9	n/a	n/a	n/a	3	n/a	n/a	n/a	n/a
563.362	n/a	REC_START	281681	n/a	LTP322	ltpFR2	9	2	n/a	n/a	n/a	n/a	0	0	0
566.202	n/a	REC_WORD	283101	wordpools/wasnorm_wordpool_576.txt	LTP322	ltpFR2	9	2	CANYON	235	n/a	n/a	0	0	0
567.588	n/a	REC_WORD	283794	wordpools/wasnorm_wordpool_576.txt	LTP322	ltpFR2	9	2	SCARECROW	1245	n/a	n/a	0	0	0
569.166	n/a	REC_WORD	284583	wordpools/wasnorm_wordpool_576.txt	LTP322	ltpFR2	9	2	SPARROW	1347	n/a	n/a	0	0	0
570.884	n/a	REC_WORD	285442	wordpools/wasnorm_wordpool_576.txt	LTP322	ltpFR2	9	2	SUNRISE	1407	n/a	n/a	0	0	0
573.376	n/a	REC_WORD	286688	wordpools/wasnorm_wordpool_576.txt	LTP322	ltpFR2	9	2	CANAL	226	n/a	n/a	0	0	0
575.224	n/a	REC_WORD	287612	wordpools/wasnorm_wordpool_576.txt	LTP322	ltpFR2	9	2	COLONEL	348	n/a	n/a	0	0	0
576.82	n/a	REC_WORD	288410	wordpools/wasnorm_wordpool_576.txt	LTP322	ltpFR2	9	2	RAFT	1159	n/a	n/a	0	0	0
578.366	n/a	REC_WORD	289183	wordpools/wasnorm_wordpool_576.txt	LTP322	ltpFR2	9	2	CABIN	211	n/a	n/a	0	0	0
580.026	n/a	REC_WORD	290013	wordpools/wasnorm_wordpool_576.txt	LTP322	ltpFR2	9	2	COTTAGE	384	n/a	n/a	0	0	0
583.798	n/a	REC_WORD	291899	wordpools/wasnorm_wordpool_576.txt	LTP322	ltpFR2	9	2	GIRL	637	n/a	n/a	0	0	0
585.2	n/a	REC_WORD	292600	wordpools/wasnorm_wordpool_576.txt	LTP322	ltpFR2	9	2	CHILD	299	n/a	n/a	0	0	0
586.558	n/a	REC_WORD	293279	wordpools/wasnorm_wordpool_576.txt	LTP322	ltpFR2	9	2	DRESS	495	n/a	n/a	0	0	0
587.99	n/a	REC_WORD	293995	wordpools/wasnorm_wordpool_576.txt	LTP322	ltpFR2	9	2	LACE	792	n/a	n/a	0	0	0
589.432	n/a	REC_WORD	294716	wordpools/wasnorm_wordpool_576.txt	LTP322	ltpFR2	9	2	GAZELLE	628	n/a	n/a	0	0	0
591.06	n/a	REC_WORD	295530	wordpools/wasnorm_wordpool_576.txt	LTP322	ltpFR2	9	2	BIKE	125	n/a	n/a	0	0	0
594.416	n/a	REC_WORD	297208	wordpools/wasnorm_wordpool_576.txt	LTP322	ltpFR2	9	2	CRITIC	410	n/a	n/a	0	0	0
595.94	n/a	REC_WORD	297970	wordpools/wasnorm_wordpool_576.txt	LTP322	ltpFR2	9	2	DUSTPAN	509	n/a	n/a	0	0	0
597.65	n/a	REC_WORD	298825	wordpools/wasnorm_wordpool_576.txt	LTP322	ltpFR2	9	2	CEILING	265	n/a	n/a	0	0	0
600.368	n/a	REC_WORD	300184	wordpools/wasnorm_wordpool_576.txt	LTP322	ltpFR2	9	2	GARLIC	624	n/a	n/a	0	0	0
602.708	n/a	REC_WORD	301354	wordpools/wasnorm_wordpool_576.txt	LTP322	ltpFR2	9	2	COUCH	386	n/a	n/a	0	0	0
653.818	n/a	DISTRACTOR	326909	n/a	LTP322	ltpFR2	9	3	n/a	n/a	n/a	n/a	0	0	0
653.818	n/a	START	326909	n/a	LTP322	ltpFR2	9	n/a	n/a	n/a	4	n/a	n/a	n/a	n/a
653.83	n/a	PROB	326915	n/a	LTP322	ltpFR2	9	n/a	n/a	n/a	4	12	5	2	5
655.162	n/a	PROB	327581	n/a	LTP322	ltpFR2	9	n/a	n/a	n/a	4	9	1	3	5
656.548	n/a	PROB	328274	n/a	LTP322	ltpFR2	9	n/a	n/a	n/a	4	17	8	2	7
658.018	n/a	PROB	329009	n/a	LTP322	ltpFR2	9	n/a	n/a	n/a	4	21	6	9	6
659.634	n/a	PROB	329817	n/a	LTP322	ltpFR2	9	n/a	n/a	n/a	4	10	6	2	2
661.236	n/a	PROB	330618	n/a	LTP322	ltpFR2	9	n/a	n/a	n/a	4	12	5	2	6
662.886	n/a	PROB	331443	n/a	LTP322	ltpFR2	9	n/a	n/a	n/a	4	19	9	7	3
667.44	n/a	PROB	333720	n/a	LTP322	ltpFR2	9	n/a	n/a	n/a	4	15	3	6	6
669.308	n/a	PROB	334654	n/a	LTP322	ltpFR2	9	n/a	n/a	n/a	4	19	7	4	8
671.578	n/a	PROB	335789	n/a	LTP322	ltpFR2	9	n/a	n/a	n/a	4	14	4	1	9
673.246	n/a	PROB	336623	n/a	LTP322	ltpFR2	9	n/a	n/a	n/a	4	17	6	4	7
674.778	n/a	PROB	337389	n/a	LTP322	ltpFR2	9	n/a	n/a	n/a	4	15	6	1	8
677.816	n/a	STOP	338908	n/a	LTP322	ltpFR2	9	n/a	n/a	n/a	4	n/a	n/a	n/a	n/a
678.782	n/a	WORD	339391	wordpools/wasnorm_wordpool_576.txt	LTP322	ltpFR2	9	3	FUNGUS	614	n/a	n/a	0	0	0
681.49	n/a	WORD	340745	wordpools/wasnorm_wordpool_576.txt	LTP322	ltpFR2	9	3	TABLET	1427	n/a	n/a	0	0	0
684.236	n/a	WORD	342118	wordpools/wasnorm_wordpool_576.txt	LTP322	ltpFR2	9	3	OFFICE	972	n/a	n/a	0	0	0
686.66	n/a	WORD	343330	wordpools/wasnorm_wordpool_576.txt	LTP322	ltpFR2	9	3	NOVEL	960	n/a	n/a	0	0	0
689.39	n/a	WORD	344695	wordpools/wasnorm_wordpool_576.txt	LTP322	ltpFR2	9	3	TORTOISE	1486	n/a	n/a	0	0	0
691.826	n/a	WORD	345913	wordpools/wasnorm_wordpool_576.txt	LTP322	ltpFR2	9	3	ANTLER	29	n/a	n/a	0	0	0
694.378	n/a	WORD	347189	wordpools/wasnorm_wordpool_576.txt	LTP322	ltpFR2	9	3	PERCH	1048	n/a	n/a	0	0	0
697.148	n/a	WORD	348574	wordpools/wasnorm_wordpool_576.txt	LTP322	ltpFR2	9	3	STONE	1385	n/a	n/a	0	0	0
699.748	n/a	WORD	349874	wordpools/wasnorm_wordpool_576.txt	LTP322	ltpFR2	9	3	PLIERS	1089	n/a	n/a	0	0	0
702.284	n/a	WORD	351142	wordpools/wasnorm_wordpool_576.txt	LTP322	ltpFR2	9	3	PORK	1108	n/a	n/a	0	0	0
704.76	n/a	WORD	352380	wordpools/wasnorm_wordpool_576.txt	LTP322	ltpFR2	9	3	VIRUS	1572	n/a	n/a	0	0	0
707.346	n/a	WORD	353673	wordpools/wasnorm_wordpool_576.txt	LTP322	ltpFR2	9	3	SHORTS	1293	n/a	n/a	0	0	0
709.874	n/a	WORD	354937	wordpools/wasnorm_wordpool_576.txt	LTP322	ltpFR2	9	3	CIGAR	308	n/a	n/a	0	0	0
712.684	n/a	WORD	356342	wordpools/wasnorm_wordpool_576.txt	LTP322	ltpFR2	9	3	SNACK	1331	n/a	n/a	0	0	0
715.202	n/a	WORD	357601	wordpools/wasnorm_wordpool_576.txt	LTP322	ltpFR2	9	3	PICNIC	1060	n/a	n/a	0	0	0
717.646	n/a	WORD	358823	wordpools/wasnorm_wordpool_576.txt	LTP322	ltpFR2	9	3	VALVE	1546	n/a	n/a	0	0	0
720.222	n/a	WORD	360111	wordpools/wasnorm_wordpool_576.txt	LTP322	ltpFR2	9	3	HOSTESS	723	n/a	n/a	0	0	0
722.9	n/a	WORD	361450	wordpools/wasnorm_wordpool_576.txt	LTP322	ltpFR2	9	3	TWEEZERS	1526	n/a	n/a	0	0	0
725.478	n/a	WORD	362739	wordpools/wasnorm_wordpool_576.txt	LTP322	ltpFR2	9	3	QUAIL	1147	n/a	n/a	0	0	0
727.972	n/a	WORD	363986	wordpools/wasnorm_wordpool_576.txt	LTP322	ltpFR2	9	3	SEAGULL	1261	n/a	n/a	0	0	0
730.706	n/a	WORD	365353	wordpools/wasnorm_wordpool_576.txt	LTP322	ltpFR2	9	3	PACKAGE	997	n/a	n/a	0	0	0
733.476	n/a	WORD	366738	wordpools/wasnorm_wordpool_576.txt	LTP322	ltpFR2	9	3	MAILMAN	858	n/a	n/a	0	0	0
735.92	n/a	WORD	367960	wordpools/wasnorm_wordpool_576.txt	LTP322	ltpFR2	9	3	ACTRESS	6	n/a	n/a	0	0	0
738.696	n/a	WORD	369348	wordpools/wasnorm_wordpool_576.txt	LTP322	ltpFR2	9	3	IDOL	733	n/a	n/a	0	0	0
740.308	n/a	START	370154	n/a	LTP322	ltpFR2	9	n/a	n/a	n/a	5	n/a	n/a	n/a	n/a
741.274	n/a	DISTRACTOR	370637	n/a	LTP322	ltpFR2	9	3	n/a	n/a	n/a	n/a	0	0	0
741.282	n/a	PROB	370641	n/a	LTP322	ltpFR2	9	n/a	n/a	n/a	5	14	4	1	9
743.582	n/a	PROB	371791	n/a	LTP322	ltpFR2	9	n/a	n/a	n/a	5	18	4	9	5
745.984	n/a	PROB	372992	n/a	LTP322	ltpFR2	9	n/a	n/a	n/a	5	18	7	5	4
747.852	n/a	PROB	373926	n/a	LTP322	ltpFR2	9	n/a	n/a	n/a	5	10	4	5	1
749.588	n/a	PROB	374794	n/a	LTP322	ltpFR2	9	n/a	n/a	n/a	5	13	2	6	5
751.222	n/a	PROB	375611	n/a	LTP322	ltpFR2	9	n/a	n/a	n/a	5	24	9	7	8
753.274	n/a	PROB	376637	n/a	LTP322	ltpFR2	9	n/a	n/a	n/a	5	10	1	7	2
754.974	n/a	PROB	377487	n/a	LTP322	ltpFR2	9	n/a	n/a	n/a	5	24	6	9	9
757.01	n/a	PROB	378505	n/a	LTP322	ltpFR2	9	n/a	n/a	n/a	5	18	9	6	3
758.678	n/a	PROB	379339	n/a	LTP322	ltpFR2	9	n/a	n/a	n/a	5	9	4	4	1
760.112	n/a	PROB	380056	n/a	LTP322	ltpFR2	9	n/a	n/a	n/a	5	14	4	2	8
761.58	n/a	PROB	380790	n/a	LTP322	ltpFR2	9	n/a	n/a	n/a	5	13	6	6	1
762.992	n/a	STOP	381496	n/a	LTP322	ltpFR2	9	n/a	n/a	n/a	5	n/a	n/a	n/a	n/a
766.084	n/a	REC_START	383042	n/a	LTP322	ltpFR2	9	3	n/a	n/a	n/a	n/a	0	0	0
769.318	n/a	REC_WORD	384659	wordpools/wasnorm_wordpool_576.txt	LTP322	ltpFR2	9	3	STONE	1385	n/a	n/a	0	0	0
770.824	n/a	REC_WORD	385412	wordpools/wasnorm_wordpool_576.txt	LTP322	ltpFR2	9	3	TABLET	1427	n/a	n/a	0	0	0
775.24	n/a	REC_WORD	387620	wordpools/wasnorm_wordpool_576.txt	LTP322	ltpFR2	9	3	OFFICE	972	n/a	n/a	0	0	0
777.096	n/a	REC_WORD	388548	wordpools/wasnorm_wordpool_576.txt	LTP322	ltpFR2	9	3	TORTOISE	1486	n/a	n/a	0	0	0
779.06	n/a	REC_WORD	389530	wordpools/wasnorm_wordpool_576.txt	LTP322	ltpFR2	9	3	ANTLER	29	n/a	n/a	0	0	0
781.89	n/a	REC_WORD	390945	wordpools/wasnorm_wordpool_576.txt	LTP322	ltpFR2	9	3	PERCH	1048	n/a	n/a	0	0	0
793.226	n/a	REC_WORD	396613	wordpools/wasnorm_wordpool_576.txt	LTP322	ltpFR2	9	3	PORK	1108	n/a	n/a	0	0	0
794.78	n/a	REC_WORD	397390	wordpools/wasnorm_wordpool_576.txt	LTP322	ltpFR2	9	3	SEAGULL	1261	n/a	n/a	0	0	0
796.864	n/a	REC_WORD	398432	wordpools/wasnorm_wordpool_576.txt	LTP322	ltpFR2	9	3	QUAIL	1147	n/a	n/a	0	0	0
799.634	n/a	REC_WORD	399817	wordpools/wasnorm_wordpool_576.txt	LTP322	ltpFR2	9	3	SNACK	1331	n/a	n/a	0	0	0
801.056	n/a	REC_WORD	400528	wordpools/wasnorm_wordpool_576.txt	LTP322	ltpFR2	9	3	PICNIC	1060	n/a	n/a	0	0	0
803.302	n/a	REC_WORD	401651	wordpools/wasnorm_wordpool_576.txt	LTP322	ltpFR2	9	3	CIGAR	308	n/a	n/a	0	0	0
804.664	n/a	REC_WORD	402332	wordpools/wasnorm_wordpool_576.txt	LTP322	ltpFR2	9	3	SHORTS	1293	n/a	n/a	0	0	0
807.562	n/a	REC_WORD	403781	wordpools/wasnorm_wordpool_576.txt	LTP322	ltpFR2	9	3	PACKAGE	997	n/a	n/a	0	0	0
809.934	n/a	REC_WORD	404967	wordpools/wasnorm_wordpool_576.txt	LTP322	ltpFR2	9	3	MAILMAN	858	n/a	n/a	0	0	0
811.702	n/a	REC_WORD	405851	wordpools/wasnorm_wordpool_576.txt	LTP322	ltpFR2	9	3	ACTRESS	6	n/a	n/a	0	0	0
813.264	n/a	REC_WORD	406632	wordpools/wasnorm_wordpool_576.txt	LTP322	ltpFR2	9	3	IDOL	733	n/a	n/a	0	0	0
856.554	n/a	WORD	428277	wordpools/wasnorm_wordpool_576.txt	LTP322	ltpFR2	9	4	COSTUME	383	n/a	n/a	0	0	0
859.256	n/a	WORD	429628	wordpools/wasnorm_wordpool_576.txt	LTP322	ltpFR2	9	4	TOURIST	1488	n/a	n/a	0	0	0
861.942	n/a	WORD	430971	wordpools/wasnorm_wordpool_576.txt	LTP322	ltpFR2	9	4	SPACE	1345	n/a	n/a	0	0	0
864.762	n/a	WORD	432381	wordpools/wasnorm_wordpool_576.txt	LTP322	ltpFR2	9	4	STAR	1373	n/a	n/a	0	0	0
867.364	n/a	WORD	433682	wordpools/wasnorm_wordpool_576.txt	LTP322	ltpFR2	9	4	GANGSTER	620	n/a	n/a	0	0	0
869.982	n/a	WORD	434991	wordpools/wasnorm_wordpool_576.txt	LTP322	ltpFR2	9	4	TWISTER	1530	n/a	n/a	0	0	0
872.8	n/a	WORD	436400	wordpools/wasnorm_wordpool_576.txt	LTP322	ltpFR2	9	4	BARLEY	88	n/a	n/a	0	0	0
875.504	n/a	WORD	437752	wordpools/wasnorm_wordpool_576.txt	LTP322	ltpFR2	9	4	CLOTHES	327	n/a	n/a	0	0	0
878.02	n/a	WORD	439010	wordpools/wasnorm_wordpool_576.txt	LTP322	ltpFR2	9	4	PUDDING	1139	n/a	n/a	0	0	0
880.556	n/a	WORD	440278	wordpools/wasnorm_wordpool_576.txt	LTP322	ltpFR2	9	4	IGLOO	734	n/a	n/a	0	0	0
883.262	n/a	WORD	441631	wordpools/wasnorm_wordpool_576.txt	LTP322	ltpFR2	9	4	UMPIRE	1535	n/a	n/a	0	0	0
885.878	n/a	WORD	442939	wordpools/wasnorm_wordpool_576.txt	LTP322	ltpFR2	9	4	PLAZA	1088	n/a	n/a	0	0	0
888.696	n/a	WORD	444348	wordpools/wasnorm_wordpool_576.txt	LTP322	ltpFR2	9	4	TEMPLE	1448	n/a	n/a	0	0	0
891.502	n/a	WORD	445751	wordpools/wasnorm_wordpool_576.txt	LTP322	ltpFR2	9	4	FLOWER	584	n/a	n/a	0	0	0
894.066	n/a	WORD	447033	wordpools/wasnorm_wordpool_576.txt	LTP322	ltpFR2	9	4	PUDDLE	1140	n/a	n/a	0	0	0
896.836	n/a	WORD	448418	wordpools/wasnorm_wordpool_576.txt	LTP322	ltpFR2	9	4	LAGOON	795	n/a	n/a	0	0	0
899.37	n/a	WORD	449685	wordpools/wasnorm_wordpool_576.txt	LTP322	ltpFR2	9	4	DIVER	476	n/a	n/a	0	0	0
901.978	n/a	WORD	450989	wordpools/wasnorm_wordpool_576.txt	LTP322	ltpFR2	9	4	SPHINX	1349	n/a	n/a	0	0	0
904.408	n/a	WORD	452204	wordpools/wasnorm_wordpool_576.txt	LTP322	ltpFR2	9	4	TOASTER	1472	n/a	n/a	0	0	0
907.126	n/a	WORD	453563	wordpools/wasnorm_wordpool_576.txt	LTP322	ltpFR2	9	4	SILK	1307	n/a	n/a	0	0	0
909.912	n/a	WORD	454956	wordpools/wasnorm_wordpool_576.txt	LTP322	ltpFR2	9	4	NIGHTGOWN	953	n/a	n/a	0	0	0
912.686	n/a	WORD	456343	wordpools/wasnorm_wordpool_576.txt	LTP322	ltpFR2	9	4	BOYFRIEND	162	n/a	n/a	0	0	0
915.334	n/a	WORD	457667	wordpools/wasnorm_wordpool_576.txt	LTP322	ltpFR2	9	4	BROOK	177	n/a	n/a	0	0	0
917.87	n/a	WORD	458935	wordpools/wasnorm_wordpool_576.txt	LTP322	ltpFR2	9	4	COMPASS	358	n/a	n/a	0	0	0
919.476	n/a	START	459738	n/a	LTP322	ltpFR2	9	n/a	n/a	n/a	6	n/a	n/a	n/a	n/a
920.638	n/a	DISTRACTOR	460319	n/a	LTP322	ltpFR2	9	4	n/a	n/a	n/a	n/a	0	0	0
920.644	n/a	PROB	460322	n/a	LTP322	ltpFR2	9	n/a	n/a	n/a	6	19	7	6	6
922.822	n/a	PROB	461411	n/a	LTP322	ltpFR2	9	n/a	n/a	n/a	6	19	6	7	6
925.324	n/a	PROB	462662	n/a	LTP322	ltpFR2	9	n/a	n/a	n/a	6	11	5	3	3
927.242	n/a	PROB	463621	n/a	LTP322	ltpFR2	9	n/a	n/a	n/a	6	9	3	3	3
928.676	n/a	PROB	464338	n/a	LTP322	ltpFR2	9	n/a	n/a	n/a	6	20	7	9	4
930.444	n/a	PROB	465222	n/a	LTP322	ltpFR2	9	n/a	n/a	n/a	6	18	8	6	4
931.946	n/a	PROB	465973	n/a	LTP322	ltpFR2	9	n/a	n/a	n/a	6	8	3	3	2
933.38	n/a	PROB	466690	n/a	LTP322	ltpFR2	9	n/a	n/a	n/a	6	9	1	3	5
935.048	n/a	PROB	467524	n/a	LTP322	ltpFR2	9	n/a	n/a	n/a	6	17	2	8	7
936.648	n/a	PROB	468324	n/a	LTP322	ltpFR2	9	n/a	n/a	n/a	6	17	4	5	8
938.684	n/a	PROB	469342	n/a	LTP322	ltpFR2	9	n/a	n/a	n/a	6	16	9	3	4
940.752	n/a	PROB	470376	n/a	LTP322	ltpFR2	9	n/a	n/a	n/a	6	15	1	6	8
942.1	n/a	STOP	471050	n/a	LTP322	ltpFR2	9	n/a	n/a	n/a	6	n/a	n/a	n/a	n/a
945.224	n/a	REC_START	472612	n/a	LTP322	ltpFR2	9	4	n/a	n/a	n/a	n/a	0	0	0
948.708	n/a	REC_WORD	474354	wordpools/wasnorm_wordpool_576.txt	LTP322	ltpFR2	9	4	PLAZA	1088	n/a	n/a	0	0	0
950.076	n/a	REC_WORD	475038	wordpools/wasnorm_wordpool_576.txt	LTP322	ltpFR2	9	4	SPHINX	1349	n/a	n/a	0	0	0
952.278	n/a	REC_WORD	476139	wordpools/wasnorm_wordpool_576.txt	LTP322	ltpFR2	9	4	IGLOO	734	n/a	n/a	0	0	0
954.488	n/a	REC_WORD	477244	wordpools/wasnorm_wordpool_576.txt	LTP322	ltpFR2	9	4	TEMPLE	1448	n/a	n/a	0	0	0
958.606	n/a	REC_WORD	479303	wordpools/wasnorm_wordpool_576.txt	LTP322	ltpFR2	9	4	BARLEY	88	n/a	n/a	0	0	0
960.084	n/a	REC_WORD	480042	wordpools/wasnorm_wordpool_576.txt	LTP322	ltpFR2	9	4	PUDDING	1139	n/a	n/a	0	0	0
961.2	n/a	REC_WORD	480600	wordpools/wasnorm_wordpool_576.txt	LTP322	ltpFR2	9	4	CLOTHES	327	n/a	n/a	0	0	0
964.488	n/a	REC_WORD	482244	wordpools/wasnorm_wordpool_576.txt	LTP322	ltpFR2	9	4	DIVER	476	n/a	n/a	0	0	0
965.618	n/a	REC_WORD	482809	wordpools/wasnorm_wordpool_576.txt	LTP322	ltpFR2	9	4	LAGOON	795	n/a	n/a	0	0	0
966.94	n/a	REC_WORD	483470	wordpools/wasnorm_wordpool_576.txt	LTP322	ltpFR2	9	4	NIGHTGOWN	953	n/a	n/a	0	0	0
968.278	n/a	REC_WORD	484139	wordpools/wasnorm_wordpool_576.txt	LTP322	ltpFR2	9	4	BOYFRIEND	162	n/a	n/a	0	0	0
976.656	n/a	REC_WORD	488328	wordpools/wasnorm_wordpool_576.txt	LTP322	ltpFR2	9	4	BROOK	177	n/a	n/a	0	0	0
982.062	n/a	REC_WORD	491031	wordpools/wasnorm_wordpool_576.txt	LTP322	ltpFR2	9	4	COSTUME	383	n/a	n/a	0	0	0
983.764	n/a	REC_WORD	491882	wordpools/wasnorm_wordpool_576.txt	LTP322	ltpFR2	9	4	TOURIST	1488	n/a	n/a	0	0	0
993.172	n/a	REC_WORD	496586	wordpools/wasnorm_wordpool_576.txt	LTP322	ltpFR2	9	4	STAR	1373	n/a	n/a	0	0	0
995.226	n/a	REC_WORD	497613	wordpools/wasnorm_wordpool_576.txt	LTP322	ltpFR2	9	4	GANGSTER	620	n/a	n/a	0	0	0
1035.64	n/a	DISTRACTOR	517820	n/a	LTP322	ltpFR2	9	5	n/a	n/a	n/a	n/a	0	0	0
1035.642	n/a	START	517821	n/a	LTP322	ltpFR2	9	n/a	n/a	n/a	7	n/a	n/a	n/a	n/a
1035.656	n/a	PROB	517828	n/a	LTP322	ltpFR2	9	n/a	n/a	n/a	7	11	5	3	3
1037.09	n/a	PROB	518545	n/a	LTP322	ltpFR2	9	n/a	n/a	n/a	7	15	1	7	7
1038.546	n/a	PROB	519273	n/a	LTP322	ltpFR2	9	n/a	n/a	n/a	7	11	3	4	4
1041.162	n/a	PROB	520581	n/a	LTP322	ltpFR2	9	n/a	n/a	n/a	7	17	3	6	8
1043.212	n/a	PROB	521606	n/a	LTP322	ltpFR2	9	n/a	n/a	n/a	7	11	1	9	1
1045.982	n/a	PROB	522991	n/a	LTP322	ltpFR2	9	n/a	n/a	n/a	7	15	5	8	2
1047.25	n/a	PROB	523625	n/a	LTP322	ltpFR2	9	n/a	n/a	n/a	7	15	9	5	1
1048.75	n/a	PROB	524375	n/a	LTP322	ltpFR2	9	n/a	n/a	n/a	7	15	7	6	2
1052.17	n/a	PROB	526085	n/a	LTP322	ltpFR2	9	n/a	n/a	n/a	7	21	7	7	7
1053.654	n/a	PROB	526827	n/a	LTP322	ltpFR2	9	n/a	n/a	n/a	7	8	1	5	2
1055.208	n/a	PROB	527604	n/a	LTP322	ltpFR2	9	n/a	n/a	n/a	7	11	2	2	7
1056.724	n/a	PROB	528362	n/a	LTP322	ltpFR2	9	n/a	n/a	n/a	7	11	4	3	4
1058.59	n/a	STOP	529295	n/a	LTP322	ltpFR2	9	n/a	n/a	n/a	7	n/a	n/a	n/a	n/a
1060.528	n/a	WORD	530264	wordpools/wasnorm_wordpool_576.txt	LTP322	ltpFR2	9	5	POWDER	1117	n/a	n/a	0	0	0
1063.03	n/a	WORD	531515	wordpools/wasnorm_wordpool_576.txt	LTP322	ltpFR2	9	5	NURSE	963	n/a	n/a	0	0	0
1065.566	n/a	WORD	532783	wordpools/wasnorm_wordpool_576.txt	LTP322	ltpFR2	9	5	PLASTER	1085	n/a	n/a	0	0	0
1068.1	n/a	WORD	534050	wordpools/wasnorm_wordpool_576.txt	LTP322	ltpFR2	9	5	QUEEN	1149	n/a	n/a	0	0	0
1070.804	n/a	WORD	535402	wordpools/wasnorm_wordpool_576.txt	LTP322	ltpFR2	9	5	TROMBONE	1508	n/a	n/a	0	0	0
1073.272	n/a	WORD	536636	wordpools/wasnorm_wordpool_576.txt	LTP322	ltpFR2	9	5	CURTAIN	427	n/a	n/a	0	0	0
1075.824	n/a	WORD	537912	wordpools/wasnorm_wordpool_576.txt	LTP322	ltpFR2	9	5	SUBWAY	1400	n/a	n/a	0	0	0
1078.41	n/a	WORD	539205	wordpools/wasnorm_wordpool_576.txt	LTP322	ltpFR2	9	5	JELLO	754	n/a	n/a	0	0	0
1080.862	n/a	WORD	540431	wordpools/wasnorm_wordpool_576.txt	LTP322	ltpFR2	9	5	WAITER	1580	n/a	n/a	0	0	0
1083.414	n/a	WORD	541707	wordpools/wasnorm_wordpool_576.txt	LTP322	ltpFR2	9	5	BATHTUB	100	n/a	n/a	0	0	0
1085.934	n/a	WORD	542967	wordpools/wasnorm_wordpool_576.txt	LTP322	ltpFR2	9	5	ISLAND	745	n/a	n/a	0	0	0
1088.502	n/a	WORD	544251	wordpools/wasnorm_wordpool_576.txt	LTP322	ltpFR2	9	5	OUTFIT	988	n/a	n/a	0	0	0
1091.038	n/a	WORD	545519	wordpools/wasnorm_wordpool_576.txt	LTP322	ltpFR2	9	5	HAMPER	682	n/a	n/a	0	0	0
1093.872	n/a	WORD	546936	wordpools/wasnorm_wordpool_576.txt	LTP322	ltpFR2	9	5	MUSTARD	935	n/a	n/a	0	0	0
1096.574	n/a	WORD	548287	wordpools/wasnorm_wordpool_576.txt	LTP322	ltpFR2	9	5	STUDENT	1395	n/a	n/a	0	0	0
1099.176	n/a	WORD	549588	wordpools/wasnorm_wordpool_576.txt	LTP322	ltpFR2	9	5	SCALPEL	1243	n/a	n/a	0	0	0
1101.846	n/a	WORD	550923	wordpools/wasnorm_wordpool_576.txt	LTP322	ltpFR2	9	5	INFANT	737	n/a	n/a	0	0	0
1104.582	n/a	WORD	552291	wordpools/wasnorm_wordpool_576.txt	LTP322	ltpFR2	9	5	KITCHEN	778	n/a	n/a	0	0	0
1107.166	n/a	WORD	553583	wordpools/wasnorm_wordpool_576.txt	LTP322	ltpFR2	9	5	SWAMP	1416	n/a	n/a	0	0	0
1109.652	n/a	WORD	554826	wordpools/wasnorm_wordpool_576.txt	LTP322	ltpFR2	9	5	CAMEL	223	n/a	n/a	0	0	0
1112.37	n/a	WORD	556185	wordpools/wasnorm_wordpool_576.txt	LTP322	ltpFR2	9	5	MUMMY	932	n/a	n/a	0	0	0
1115.09	n/a	WORD	557545	wordpools/wasnorm_wordpool_576.txt	LTP322	ltpFR2	9	5	SHIRT	1287	n/a	n/a	0	0	0
1117.676	n/a	WORD	558838	wordpools/wasnorm_wordpool_576.txt	LTP322	ltpFR2	9	5	PORTRAIT	1111	n/a	n/a	0	0	0
1120.426	n/a	WORD	560213	wordpools/wasnorm_wordpool_576.txt	LTP322	ltpFR2	9	5	THRONE	1461	n/a	n/a	0	0	0
1122.032	n/a	START	561016	n/a	LTP322	ltpFR2	9	n/a	n/a	n/a	8	n/a	n/a	n/a	n/a
1123.228	n/a	DISTRACTOR	561614	n/a	LTP322	ltpFR2	9	5	n/a	n/a	n/a	n/a	0	0	0
1123.246	n/a	PROB	561623	n/a	LTP322	ltpFR2	9	n/a	n/a	n/a	8	1	4	6	9
1125.162	n/a	PROB	562581	n/a	LTP322	ltpFR2	9	n/a	n/a	n/a	8	27	9	9	9
1127.432	n/a	PROB	563716	n/a	LTP322	ltpFR2	9	n/a	n/a	n/a	8	17	3	6	8
1129.4	n/a	PROB	564700	n/a	LTP322	ltpFR2	9	n/a	n/a	n/a	8	13	2	7	4
1131.868	n/a	PROB	565934	n/a	LTP322	ltpFR2	9	n/a	n/a	n/a	8	21	7	9	5
1133.604	n/a	PROB	566802	n/a	LTP322	ltpFR2	9	n/a	n/a	n/a	8	18	9	4	5
1135.254	n/a	PROB	567627	n/a	LTP322	ltpFR2	9	n/a	n/a	n/a	8	8	5	1	2
1138.056	n/a	PROB	569028	n/a	LTP322	ltpFR2	9	n/a	n/a	n/a	8	20	9	2	9
1139.742	n/a	PROB	569871	n/a	LTP322	ltpFR2	9	n/a	n/a	n/a	8	6	2	3	1
1141.444	n/a	PROB	570722	n/a	LTP322	ltpFR2	9	n/a	n/a	n/a	8	12	5	4	3
1146.032	n/a	STOP	573016	n/a	LTP322	ltpFR2	9	n/a	n/a	n/a	8	n/a	n/a	n/a	n/a
1147.882	n/a	REC_START	573941	n/a	LTP322	ltpFR2	9	5	n/a	n/a	n/a	n/a	0	0	0
1149.566	n/a	REC_WORD	574783	wordpools/wasnorm_wordpool_576.txt	LTP322	ltpFR2	9	5	SWAMP	1416	n/a	n/a	0	0	0
1151.318	n/a	REC_WORD	575659	wordpools/wasnorm_wordpool_576.txt	LTP322	ltpFR2	9	5	MUMMY	932	n/a	n/a	0	0	0
1153.036	n/a	REC_WORD	576518	wordpools/wasnorm_wordpool_576.txt	LTP322	ltpFR2	9	5	CAMEL	223	n/a	n/a	0	0	0
1154.804	n/a	REC_WORD	577402	wordpools/wasnorm_wordpool_576.txt	LTP322	ltpFR2	9	5	SHIRT	1287	n/a	n/a	0	0	0
1156.832	n/a	REC_WORD	578416	wordpools/wasnorm_wordpool_576.txt	LTP322	ltpFR2	9	5	PORTRAIT	1111	n/a	n/a	0	0	0
1159.266	n/a	REC_WORD	579633	wordpools/wasnorm_wordpool_576.txt	LTP322	ltpFR2	9	5	NURSE	963	n/a	n/a	0	0	0
1161.4	n/a	REC_WORD	580700	wordpools/wasnorm_wordpool_576.txt	LTP322	ltpFR2	9	5	INFANT	737	n/a	n/a	0	0	0
1163.332	n/a	REC_WORD	581666	wordpools/wasnorm_wordpool_576.txt	LTP322	ltpFR2	9	5	KITCHEN	778	n/a	n/a	0	0	0
1165.664	n/a	REC_WORD	582832	wordpools/wasnorm_wordpool_576.txt	LTP322	ltpFR2	9	5	SCALPEL	1243	n/a	n/a	0	0	0
1167.718	n/a	REC_WORD	583859	wordpools/wasnorm_wordpool_576.txt	LTP322	ltpFR2	9	5	STUDENT	1395	n/a	n/a	0	0	0
1170.388	n/a	REC_WORD	585194	wordpools/wasnorm_wordpool_576.txt	LTP322	ltpFR2	9	5	WAITER	1580	n/a	n/a	0	0	0
1171.974	n/a	REC_WORD	585987	wordpools/wasnorm_wordpool_576.txt	LTP322	ltpFR2	9	5	JELLO	754	n/a	n/a	0	0	0
1174.75	n/a	REC_WORD	587375	wordpools/wasnorm_wordpool_576.txt	LTP322	ltpFR2	9	5	SUBWAY	1400	n/a	n/a	0	0	0
1177.526	n/a	REC_WORD	588763	wordpools/wasnorm_wordpool_576.txt	LTP322	ltpFR2	9	5	ISLAND	745	n/a	n/a	0	0	0
1179.66	n/a	REC_WORD	589830	wordpools/wasnorm_wordpool_576.txt	LTP322	ltpFR2	9	5	QUEEN	1149	n/a	n/a	0	0	0
1181.124	n/a	REC_WORD	590562	wordpools/wasnorm_wordpool_576.txt	LTP322	ltpFR2	9	5	THRONE	1461	n/a	n/a	0	0	0
1186.664	n/a	REC_WORD	593332	wordpools/wasnorm_wordpool_576.txt	LTP322	ltpFR2	9	5	POWDER	1117	n/a	n/a	0	0	0
1238.312	n/a	DISTRACTOR	619156	n/a	LTP322	ltpFR2	9	6	n/a	n/a	n/a	n/a	0	0	0
1238.312	n/a	START	619156	n/a	LTP322	ltpFR2	9	n/a	n/a	n/a	9	n/a	n/a	n/a	n/a
1238.328	n/a	PROB	619164	n/a	LTP322	ltpFR2	9	n/a	n/a	n/a	9	22	8	9	5
1241.304	n/a	PROB	620652	n/a	LTP322	ltpFR2	9	n/a	n/a	n/a	9	13	3	6	4
1242.822	n/a	PROB	621411	n/a	LTP322	ltpFR2	9	n/a	n/a	n/a	9	21	7	6	8
1244.588	n/a	PROB	622294	n/a	LTP322	ltpFR2	9	n/a	n/a	n/a	9	16	9	1	6
1245.94	n/a	PROB	622970	n/a	LTP322	ltpFR2	9	n/a	n/a	n/a	9	12	3	4	5
1248.808	n/a	PROB	624404	n/a	LTP322	ltpFR2	9	n/a	n/a	n/a	9	18	5	3	9
1250.696	n/a	PROB	625348	n/a	LTP322	ltpFR2	9	n/a	n/a	n/a	9	11	4	3	4
1252.28	n/a	PROB	626140	n/a	LTP322	ltpFR2	9	n/a	n/a	n/a	9	10	1	5	4
1254.146	n/a	PROB	627073	n/a	LTP322	ltpFR2	9	n/a	n/a	n/a	9	12	3	3	6
1256.55	n/a	PROB	628275	n/a	LTP322	ltpFR2	9	n/a	n/a	n/a	9	22	8	6	8
1258.2	n/a	PROB	629100	n/a	LTP322	ltpFR2	9	n/a	n/a	n/a	9	16	1	6	9
1259.768	n/a	PROB	629884	n/a	LTP322	ltpFR2	9	n/a	n/a	n/a	9	7	1	2	4
1261.21	n/a	STOP	630605	n/a	LTP322	ltpFR2	9	n/a	n/a	n/a	9	n/a	n/a	n/a	n/a
1263.3	n/a	WORD	631650	wordpools/wasnorm_wordpool_576.txt	LTP322	ltpFR2	9	6	COD	340	n/a	n/a	0	0	0
1265.77	n/a	WORD	632885	wordpools/wasnorm_wordpool_576.txt	LTP322	ltpFR2	9	6	FARMER	553	n/a	n/a	0	0	0
1268.506	n/a	WORD	634253	wordpools/wasnorm_wordpool_576.txt	LTP322	ltpFR2	9	6	FEMALE	559	n/a	n/a	0	0	0
1271.16	n/a	WORD	635580	wordpools/wasnorm_wordpool_576.txt	LTP322	ltpFR2	9	6	COOK	372	n/a	n/a	0	0	0
1273.612	n/a	WORD	636806	wordpools/wasnorm_wordpool_576.txt	LTP322	ltpFR2	9	6	FLASK	576	n/a	n/a	0	0	0
1276.264	n/a	WORD	638132	wordpools/wasnorm_wordpool_576.txt	LTP322	ltpFR2	9	6	TART	1436	n/a	n/a	0	0	0
1278.88	n/a	WORD	639440	wordpools/wasnorm_wordpool_576.txt	LTP322	ltpFR2	9	6	CANDY	230	n/a	n/a	0	0	0
1281.398	n/a	WORD	640699	wordpools/wasnorm_wordpool_576.txt	LTP322	ltpFR2	9	6	BEAKER	104	n/a	n/a	0	0	0
1284.084	n/a	WORD	642042	wordpools/wasnorm_wordpool_576.txt	LTP322	ltpFR2	9	6	WASP	1593	n/a	n/a	0	0	0
1286.686	n/a	WORD	643343	wordpools/wasnorm_wordpool_576.txt	LTP322	ltpFR2	9	6	GARDEN	623	n/a	n/a	0	0	0
1289.304	n/a	WORD	644652	wordpools/wasnorm_wordpool_576.txt	LTP322	ltpFR2	9	6	PASSAGE	1019	n/a	n/a	0	0	0
1292.11	n/a	WORD	646055	wordpools/wasnorm_wordpool_576.txt	LTP322	ltpFR2	9	6	FIDDLE	561	n/a	n/a	0	0	0
1294.746	n/a	WORD	647373	wordpools/wasnorm_wordpool_576.txt	LTP322	ltpFR2	9	6	BELLY	119	n/a	n/a	0	0	0
1297.328	n/a	WORD	648664	wordpools/wasnorm_wordpool_576.txt	LTP322	ltpFR2	9	6	LIVER	833	n/a	n/a	0	0	0
1299.98	n/a	WORD	649990	wordpools/wasnorm_wordpool_576.txt	LTP322	ltpFR2	9	6	JEANS	752	n/a	n/a	0	0	0
1302.516	n/a	WORD	651258	wordpools/wasnorm_wordpool_576.txt	LTP322	ltpFR2	9	6	HAND	683	n/a	n/a	0	0	0
1305.036	n/a	WORD	652518	wordpools/wasnorm_wordpool_576.txt	LTP322	ltpFR2	9	6	DOUGHNUT	490	n/a	n/a	0	0	0
1307.488	n/a	WORD	653744	wordpools/wasnorm_wordpool_576.txt	LTP322	ltpFR2	9	6	TOMBSTONE	1478	n/a	n/a	0	0	0
1310.172	n/a	WORD	655086	wordpools/wasnorm_wordpool_576.txt	LTP322	ltpFR2	9	6	JUDGE	761	n/a	n/a	0	0	0
1312.642	n/a	WORD	656321	wordpools/wasnorm_wordpool_576.txt	LTP322	ltpFR2	9	6	SIBLING	1301	n/a	n/a	0	0	0
1315.26	n/a	WORD	657630	wordpools/wasnorm_wordpool_576.txt	LTP322	ltpFR2	9	6	PARENT	1013	n/a	n/a	0	0	0
1317.83	n/a	WORD	658915	wordpools/wasnorm_wordpool_576.txt	LTP322	ltpFR2	9	6	POISON	1096	n/a	n/a	0	0	0
1320.298	n/a	WORD	660149	wordpools/wasnorm_wordpool_576.txt	LTP322	ltpFR2	9	6	FLAG	573	n/a	n/a	0	0	0
1322.934	n/a	WORD	661467	wordpools/wasnorm_wordpool_576.txt	LTP322	ltpFR2	9	6	BROTHER	179	n/a	n/a	0	0	0
1324.552	n/a	START	662276	n/a	LTP322	ltpFR2	9	n/a	n/a	n/a	10	n/a	n/a	n/a	n/a
1325.428	n/a	DISTRACTOR	662714	n/a	LTP322	ltpFR2	9	6	n/a	n/a	n/a	n/a	0	0	0
1325.436	n/a	PROB	662718	n/a	LTP322	ltpFR2	9	n/a	n/a	n/a	10	16	4	6	6
1327.972	n/a	PROB	663986	n/a	LTP322	ltpFR2	9	n/a	n/a	n/a	10	19	5	9	5
1329.522	n/a	PROB	664761	n/a	LTP322	ltpFR2	9	n/a	n/a	n/a	10	13	9	2	2
1330.99	n/a	PROB	665495	n/a	LTP322	ltpFR2	9	n/a	n/a	n/a	10	8	5	1	2
1332.558	n/a	PROB	666279	n/a	LTP322	ltpFR2	9	n/a	n/a	n/a	10	12	8	1	3
1335.094	n/a	PROB	667547	n/a	LTP322	ltpFR2	9	n/a	n/a	n/a	10	23	9	8	6
1337.244	n/a	PROB	668622	n/a	LTP322	ltpFR2	9	n/a	n/a	n/a	10	17	9	6	2
1339.08	n/a	PROB	669540	n/a	LTP322	ltpFR2	9	n/a	n/a	n/a	10	14	6	4	4
1340.348	n/a	PROB	670174	n/a	LTP322	ltpFR2	9	n/a	n/a	n/a	10	22	9	4	9
1341.982	n/a	PROB	670991	n/a	LTP322	ltpFR2	9	n/a	n/a	n/a	10	22	4	9	9
1343.616	n/a	PROB	671808	n/a	LTP322	ltpFR2	9	n/a	n/a	n/a	10	21	9	3	9
1346.152	n/a	PROB	673076	n/a	LTP322	ltpFR2	9	n/a	n/a	n/a	10	21	4	8	9
1348.354	n/a	STOP	674177	n/a	LTP322	ltpFR2	9	n/a	n/a	n/a	10	n/a	n/a	n/a	n/a
1350.472	n/a	REC_START	675236	n/a	LTP322	ltpFR2	9	6	n/a	n/a	n/a	n/a	0	0	0
1351.756	n/a	REC_WORD	675878	wordpools/wasnorm_wordpool_576.txt	LTP322	ltpFR2	9	6	COD	340	n/a	n/a	0	0	0
1352.858	n/a	REC_WORD	676429	wordpools/wasnorm_wordpool_576.txt	LTP322	ltpFR2	9	6	FEMALE	559	n/a	n/a	0	0	0
1354.29	n/a	REC_WORD	677145	wordpools/wasnorm_wordpool_576.txt	LTP322	ltpFR2	9	6	FARMER	553	n/a	n/a	0	0	0
1356.286	n/a	REC_WORD	678143	wordpools/wasnorm_wordpool_576.txt	LTP322	ltpFR2	9	6	BELLY	119	n/a	n/a	0	0	0
1358.794	n/a	REC_WORD	679397	wordpools/wasnorm_wordpool_576.txt	LTP322	ltpFR2	9	6	HAND	683	n/a	n/a	0	0	0
1364.862	n/a	REC_WORD	682431	wordpools/wasnorm_wordpool_576.txt	LTP322	ltpFR2	9	6	COOK	372	n/a	n/a	0	0	0
1367.288	n/a	REC_WORD	683644	wordpools/wasnorm_wordpool_576.txt	LTP322	ltpFR2	9	6	LIVER	833	n/a	n/a	0	0	0
1369.512	n/a	REC_WORD	684756	wordpools/wasnorm_wordpool_576.txt	LTP322	ltpFR2	9	6	BEAKER	104	n/a	n/a	0	0	0
1370.844	n/a	REC_WORD	685422	wordpools/wasnorm_wordpool_576.txt	LTP322	ltpFR2	9	6	WASP	1593	n/a	n/a	0	0	0
1371.954	n/a	REC_WORD	685977	wordpools/wasnorm_wordpool_576.txt	LTP322	ltpFR2	9	6	GARDEN	623	n/a	n/a	0	0	0
1373.148	n/a	REC_WORD	686574	wordpools/wasnorm_wordpool_576.txt	LTP322	ltpFR2	9	6	PASSAGE	1019	n/a	n/a	0	0	0
1374.352	n/a	REC_WORD	687176	wordpools/wasnorm_wordpool_576.txt	LTP322	ltpFR2	9	6	FIDDLE	561	n/a	n/a	0	0	0
1385.538	n/a	REC_WORD	692769	wordpools/wasnorm_wordpool_576.txt	LTP322	ltpFR2	9	6	DOUGHNUT	490	n/a	n/a	0	0	0
1386.632	n/a	REC_WORD	693316	wordpools/wasnorm_wordpool_576.txt	LTP322	ltpFR2	9	6	JUDGE	761	n/a	n/a	0	0	0
1389.386	n/a	REC_WORD	694693	wordpools/wasnorm_wordpool_576.txt	LTP322	ltpFR2	9	6	SIBLING	1301	n/a	n/a	0	0	0
1390.866	n/a	REC_WORD	695433	wordpools/wasnorm_wordpool_576.txt	LTP322	ltpFR2	9	6	TOMBSTONE	1478	n/a	n/a	0	0	0
1393.912	n/a	REC_WORD	696956	wordpools/wasnorm_wordpool_576.txt	LTP322	ltpFR2	9	6	PARENT	1013	n/a	n/a	0	0	0
1395.078	n/a	REC_WORD	697539	wordpools/wasnorm_wordpool_576.txt	LTP322	ltpFR2	9	6	POISON	1096	n/a	n/a	0	0	0
1440.908	n/a	WORD	720454	wordpools/wasnorm_wordpool_576.txt	LTP322	ltpFR2	9	7	SHORTCAKE	1292	n/a	n/a	0	0	0
1443.62	n/a	WORD	721810	wordpools/wasnorm_wordpool_576.txt	LTP322	ltpFR2	9	7	YACHT	1629	n/a	n/a	0	0	0
1446.298	n/a	WORD	723149	wordpools/wasnorm_wordpool_576.txt	LTP322	ltpFR2	9	7	STOMACH	1384	n/a	n/a	0	0	0
1448.992	n/a	WORD	724496	wordpools/wasnorm_wordpool_576.txt	LTP322	ltpFR2	9	7	BODY	145	n/a	n/a	0	0	0
1451.56	n/a	WORD	725780	wordpools/wasnorm_wordpool_576.txt	LTP322	ltpFR2	9	7	TUNNEL	1519	n/a	n/a	0	0	0
1454.02	n/a	WORD	727010	wordpools/wasnorm_wordpool_576.txt	LTP322	ltpFR2	9	7	FREEZER	604	n/a	n/a	0	0	0
1456.598	n/a	WORD	728299	wordpools/wasnorm_wordpool_576.txt	LTP322	ltpFR2	9	7	PATROL	1027	n/a	n/a	0	0	0
1459.016	n/a	WORD	729508	wordpools/wasnorm_wordpool_576.txt	LTP322	ltpFR2	9	7	FOREST	593	n/a	n/a	0	0	0
1461.692	n/a	WORD	730846	wordpools/wasnorm_wordpool_576.txt	LTP322	ltpFR2	9	7	FLASHLIGHT	575	n/a	n/a	0	0	0
1464.428	n/a	WORD	732214	wordpools/wasnorm_wordpool_576.txt	LTP322	ltpFR2	9	7	BINDER	127	n/a	n/a	0	0	0
1466.872	n/a	WORD	733436	wordpools/wasnorm_wordpool_576.txt	LTP322	ltpFR2	9	7	GYMNAST	675	n/a	n/a	0	0	0
1469.676	n/a	WORD	734838	wordpools/wasnorm_wordpool_576.txt	LTP322	ltpFR2	9	7	PANTHER	1009	n/a	n/a	0	0	0
1472.16	n/a	WORD	736080	wordpools/wasnorm_wordpool_576.txt	LTP322	ltpFR2	9	7	GARBAGE	622	n/a	n/a	0	0	0
1474.63	n/a	WORD	737315	wordpools/wasnorm_wordpool_576.txt	LTP322	ltpFR2	9	7	COFFEE	341	n/a	n/a	0	0	0
1477.182	n/a	WORD	738591	wordpools/wasnorm_wordpool_576.txt	LTP322	ltpFR2	9	7	BUGGY	188	n/a	n/a	0	0	0
1479.666	n/a	WORD	739833	wordpools/wasnorm_wordpool_576.txt	LTP322	ltpFR2	9	7	CARRIAGE	248	n/a	n/a	0	0	0
1482.268	n/a	WORD	741134	wordpools/wasnorm_wordpool_576.txt	LTP322	ltpFR2	9	7	ORCHID	982	n/a	n/a	0	0	0
1485.06	n/a	WORD	742530	wordpools/wasnorm_wordpool_576.txt	LTP322	ltpFR2	9	7	KLEENEX	782	n/a	n/a	0	0	0
1487.624	n/a	WORD	743812	wordpools/wasnorm_wordpool_576.txt	LTP322	ltpFR2	9	7	VENUS	1557	n/a	n/a	0	0	0
1490.26	n/a	WORD	745130	wordpools/wasnorm_wordpool_576.txt	LTP322	ltpFR2	9	7	GLOBE	641	n/a	n/a	0	0	0
1492.894	n/a	WORD	746447	wordpools/wasnorm_wordpool_576.txt	LTP322	ltpFR2	9	7	PIZZA	1079	n/a	n/a	0	0	0
1495.364	n/a	WORD	747682	wordpools/wasnorm_wordpool_576.txt	LTP322	ltpFR2	9	7	GAVEL	627	n/a	n/a	0	0	0
1498.032	n/a	WORD	749016	wordpools/wasnorm_wordpool_576.txt	LTP322	ltpFR2	9	7	AIRPLANE	12	n/a	n/a	0	0	0
1500.584	n/a	WORD	750292	wordpools/wasnorm_wordpool_576.txt	LTP322	ltpFR2	9	7	NOTEBOOK	959	n/a	n/a	0	0	0
1502.192	n/a	START	751096	n/a	LTP322	ltpFR2	9	n/a	n/a	n/a	11	n/a	n/a	n/a	n/a
1503.13	n/a	DISTRACTOR	751565	n/a	LTP322	ltpFR2	9	7	n/a	n/a	n/a	n/a	0	0	0
1503.136	n/a	PROB	751568	n/a	LTP322	ltpFR2	9	n/a	n/a	n/a	11	18	4	5	9
1506.292	n/a	PROB	753146	n/a	LTP322	ltpFR2	9	n/a	n/a	n/a	11	15	9	2	4
1507.996	n/a	PROB	753998	n/a	LTP322	ltpFR2	9	n/a	n/a	n/a	11	19	4	8	7
1511.05	n/a	PROB	755525	n/a	LTP322	ltpFR2	9	n/a	n/a	n/a	11	12	4	2	6
1512.366	n/a	PROB	756183	n/a	LTP322	ltpFR2	9	n/a	n/a	n/a	11	14	5	2	7
1513.782	n/a	PROB	756891	n/a	LTP322	ltpFR2	9	n/a	n/a	n/a	11	20	2	9	9
1515.32	n/a	PROB	757660	n/a	LTP322	ltpFR2	9	n/a	n/a	n/a	11	9	1	6	2
1517.254	n/a	PROB	758627	n/a	LTP322	ltpFR2	9	n/a	n/a	n/a	11	20	9	2	9
1518.82	n/a	PROB	759410	n/a	LTP322	ltpFR2	9	n/a	n/a	n/a	11	13	6	3	4
1520.404	n/a	PROB	760202	n/a	LTP322	ltpFR2	9	n/a	n/a	n/a	11	18	9	1	8
1521.734	n/a	PROB	760867	n/a	LTP322	ltpFR2	9	n/a	n/a	n/a	11	11	4	2	5
1523.992	n/a	PROB	761996	n/a	LTP322	ltpFR2	9	n/a	n/a	n/a	11	15	7	6	2
1525.422	n/a	STOP	762711	n/a	LTP322	ltpFR2	9	n/a	n/a	n/a	11	n/a	n/a	n/a	n/a
1528.142	n/a	REC_START	764071	n/a	LTP322	ltpFR2	9	7	n/a	n/a	n/a	n/a	0	0	0
1529.474	n/a	REC_WORD	764737	wordpools/wasnorm_wordpool_576.txt	LTP322	ltpFR2	9	7	GYMNAST	675	n/a	n/a	0	0	0
1533.626	n/a	REC_WORD	766813	wordpools/wasnorm_wordpool_576.txt	LTP322	ltpFR2	9	7	VENUS	1557	n/a	n/a	0	0	0
1535.962	n/a	REC_WORD	767981	wordpools/wasnorm_wordpool_576.txt	LTP322	ltpFR2	9	7	PANTHER	1009	n/a	n/a	0	0	0
1539.506	n/a	REC_WORD	769753	wordpools/wasnorm_wordpool_576.txt	LTP322	ltpFR2	9	7	PIZZA	1079	n/a	n/a	0	0	0
1542.296	n/a	REC_WORD	771148	wordpools/wasnorm_wordpool_576.txt	LTP322	ltpFR2	9	7	GAVEL	627	n/a	n/a	0	0	0
1544.806	n/a	REC_WORD	772403	wordpools/wasnorm_wordpool_576.txt	LTP322	ltpFR2	9	7	AIRPLANE	12	n/a	n/a	0	0	0
1563.372	n/a	REC_WORD	781686	wordpools/wasnorm_wordpool_576.txt	LTP322	ltpFR2	9	7	KLEENEX	782	n/a	n/a	0	0	0
1564.372	n/a	REC_WORD_VV	782186	wordpools/wasnorm_wordpool_576.txt	LTP322	ltpFR2	9	7	<>	-1	n/a	n/a	0	0	0
1570.866	n/a	REC_WORD	785433	wordpools/wasnorm_wordpool_576.txt	LTP322	ltpFR2	9	7	YACHT	1629	n/a	n/a	0	0	0
1572.43	n/a	REC_WORD	786215	wordpools/wasnorm_wordpool_576.txt	LTP322	ltpFR2	9	7	SHORTCAKE	1292	n/a	n/a	0	0	0
1573.43	n/a	REC_WORD_VV	786715	wordpools/wasnorm_wordpool_576.txt	LTP322	ltpFR2	9	7	<>	-1	n/a	n/a	0	0	0
1575.036	n/a	REC_WORD	787518	wordpools/wasnorm_wordpool_576.txt	LTP322	ltpFR2	9	7	ORCHID	982	n/a	n/a	0	0	0
1577.268	n/a	REC_WORD	788634	wordpools/wasnorm_wordpool_576.txt	LTP322	ltpFR2	9	7	CARRIAGE	248	n/a	n/a	0	0	0
1579.486	n/a	REC_WORD	789743	wordpools/wasnorm_wordpool_576.txt	LTP322	ltpFR2	9	7	BUGGY	188	n/a	n/a	0	0	0
1581.258	n/a	REC_WORD	790629	wordpools/wasnorm_wordpool_576.txt	LTP322	ltpFR2	9	7	COFFEE	341	n/a	n/a	0	0	0
1584.204	n/a	REC_WORD	792102	wordpools/wasnorm_wordpool_576.txt	LTP322	ltpFR2	9	7	FOREST	593	n/a	n/a	0	0	0
1592.306	n/a	REC_WORD	796153	wordpools/wasnorm_wordpool_576.txt	LTP322	ltpFR2	9	7	YACHT	1629	n/a	n/a	0	0	0
1601.876	n/a	REC_WORD	800938	wordpools/wasnorm_wordpool_576.txt	LTP322	ltpFR2	9	7	PASSAGE	1019	n/a	n/a	0	0	0
1618.568	n/a	DISTRACTOR	809284	n/a	LTP322	ltpFR2	9	8	n/a	n/a	n/a	n/a	0	0	0
1618.568	n/a	START	809284	n/a	LTP322	ltpFR2	9	n/a	n/a	n/a	12	n/a	n/a	n/a	n/a
1618.582	n/a	PROB	809291	n/a	LTP322	ltpFR2	9	n/a	n/a	n/a	12	11	7	1	3
1620.184	n/a	PROB	810092	n/a	LTP322	ltpFR2	9	n/a	n/a	n/a	12	9	5	2	2
1621.484	n/a	PROB	810742	n/a	LTP322	ltpFR2	9	n/a	n/a	n/a	12	17	9	1	7
1622.85	n/a	PROB	811425	n/a	LTP322	ltpFR2	9	n/a	n/a	n/a	12	11	2	7	3
1624.404	n/a	PROB	812202	n/a	LTP322	ltpFR2	9	n/a	n/a	n/a	12	24	7	8	9
1628.036	n/a	PROB	814018	n/a	LTP322	ltpFR2	9	n/a	n/a	n/a	12	13	2	6	5
1629.522	n/a	PROB	814761	n/a	LTP322	ltpFR2	9	n/a	n/a	n/a	12	15	7	2	6
1631.606	n/a	PROB	815803	n/a	LTP322	ltpFR2	9	n/a	n/a	n/a	12	10	3	3	4
1633.91	n/a	PROB	816955	n/a	LTP322	ltpFR2	9	n/a	n/a	n/a	12	18	5	8	5
1635.412	n/a	PROB	817706	n/a	LTP322	ltpFR2	9	n/a	n/a	n/a	12	14	8	5	1
1637.514	n/a	PROB	818757	n/a	LTP322	ltpFR2	9	n/a	n/a	n/a	12	10	1	3	6
1638.846	n/a	PROB	819423	n/a	LTP322	ltpFR2	9	n/a	n/a	n/a	12	15	4	5	6
1640.348	n/a	PROB	820174	n/a	LTP322	ltpFR2	9	n/a	n/a	n/a	12	11	3	6	2
1642.096	n/a	STOP	821048	n/a	LTP322	ltpFR2	9	n/a	n/a	n/a	12	n/a	n/a	n/a	n/a
1643.416	n/a	WORD	821708	wordpools/wasnorm_wordpool_576.txt	LTP322	ltpFR2	9	8	GRAVEL	659	n/a	n/a	0	0	0
1645.958	n/a	WORD	822979	wordpools/wasnorm_wordpool_576.txt	LTP322	ltpFR2	9	8	JURY	766	n/a	n/a	0	0	0
1648.422	n/a	WORD	824211	wordpools/wasnorm_wordpool_576.txt	LTP322	ltpFR2	9	8	BLUEPRINT	142	n/a	n/a	0	0	0
1650.974	n/a	WORD	825487	wordpools/wasnorm_wordpool_576.txt	LTP322	ltpFR2	9	8	BRANDY	169	n/a	n/a	0	0	0
1653.542	n/a	WORD	826771	wordpools/wasnorm_wordpool_576.txt	LTP322	ltpFR2	9	8	CROSS	413	n/a	n/a	0	0	0
1656.118	n/a	WORD	828059	wordpools/wasnorm_wordpool_576.txt	LTP322	ltpFR2	9	8	BUNNY	198	n/a	n/a	0	0	0
1658.864	n/a	WORD	829432	wordpools/wasnorm_wordpool_576.txt	LTP322	ltpFR2	9	8	MILDEW	893	n/a	n/a	0	0	0
1661.482	n/a	WORD	830741	wordpools/wasnorm_wordpool_576.txt	LTP322	ltpFR2	9	8	PARSLEY	1016	n/a	n/a	0	0	0
1664.256	n/a	WORD	832128	wordpools/wasnorm_wordpool_576.txt	LTP322	ltpFR2	9	8	TABLE	1426	n/a	n/a	0	0	0
1666.902	n/a	WORD	833451	wordpools/wasnorm_wordpool_576.txt	LTP322	ltpFR2	9	8	FLIPPER	580	n/a	n/a	0	0	0
1669.438	n/a	WORD	834719	wordpools/wasnorm_wordpool_576.txt	LTP322	ltpFR2	9	8	MAMMAL	861	n/a	n/a	0	0	0
1671.956	n/a	WORD	835978	wordpools/wasnorm_wordpool_576.txt	LTP322	ltpFR2	9	8	CLOCK	325	n/a	n/a	0	0	0
1674.642	n/a	WORD	837321	wordpools/wasnorm_wordpool_576.txt	LTP322	ltpFR2	9	8	PLAYGROUND	1087	n/a	n/a	0	0	0
1677.31	n/a	WORD	838655	wordpools/wasnorm_wordpool_576.txt	LTP322	ltpFR2	9	8	FRAME	600	n/a	n/a	0	0	0
1679.746	n/a	WORD	839873	wordpools/wasnorm_wordpool_576.txt	LTP322	ltpFR2	9	8	CHURCH	307	n/a	n/a	0	0	0
1682.456	n/a	WORD	841228	wordpools/wasnorm_wordpool_576.txt	LTP322	ltpFR2	9	8	GLASS	639	n/a	n/a	0	0	0
1685.032	n/a	WORD	842516	wordpools/wasnorm_wordpool_576.txt	LTP322	ltpFR2	9	8	FLESH	579	n/a	n/a	0	0	0
1687.836	n/a	WORD	843918	wordpools/wasnorm_wordpool_576.txt	LTP322	ltpFR2	9	8	EGYPT	519	n/a	n/a	0	0	0
1690.638	n/a	WORD	845319	wordpools/wasnorm_wordpool_576.txt	LTP322	ltpFR2	9	8	PATIENT	1024	n/a	n/a	0	0	0
1693.372	n/a	WORD	846686	wordpools/wasnorm_wordpool_576.txt	LTP322	ltpFR2	9	8	TUTU	1524	n/a	n/a	0	0	0
1695.834	n/a	WORD	847917	wordpools/wasnorm_wordpool_576.txt	LTP322	ltpFR2	9	8	SLIME	1327	n/a	n/a	0	0	0
1698.468	n/a	WORD	849234	wordpools/wasnorm_wordpool_576.txt	LTP322	ltpFR2	9	8	MAILBOX	857	n/a	n/a	0	0	0
1701.19	n/a	WORD	850595	wordpools/wasnorm_wordpool_576.txt	LTP322	ltpFR2	9	8	MARKER	870	n/a	n/a	0	0	0
1703.824	n/a	WORD	851912	wordpools/wasnorm_wordpool_576.txt	LTP322	ltpFR2	9	8	PADDING	999	n/a	n/a	0	0	0
1705.434	n/a	START	852717	n/a	LTP322	ltpFR2	9	n/a	n/a	n/a	13	n/a	n/a	n/a	n/a
1706.39	n/a	DISTRACTOR	853195	n/a	LTP322	ltpFR2	9	8	n/a	n/a	n/a	n/a	0	0	0
1706.4	n/a	PROB	853200	n/a	LTP322	ltpFR2	9	n/a	n/a	n/a	13	11	1	5	5
1708.15	n/a	PROB	854075	n/a	LTP322	ltpFR2	9	n/a	n/a	n/a	13	12	3	1	8
1710.386	n/a	PROB	855193	n/a	LTP322	ltpFR2	9	n/a	n/a	n/a	13	3	1	1	1
1711.57	n/a	PROB	855785	n/a	LTP322	ltpFR2	9	n/a	n/a	n/a	13	15	7	4	4
1713.17	n/a	PROB	856585	n/a	LTP322	ltpFR2	9	n/a	n/a	n/a	13	14	5	3	6
1714.74	n/a	PROB	857370	n/a	LTP322	ltpFR2	9	n/a	n/a	n/a	13	9	1	7	1
1716.106	n/a	PROB	858053	n/a	LTP322	ltpFR2	9	n/a	n/a	n/a	13	13	7	5	1
1717.892	n/a	PROB	858946	n/a	LTP322	ltpFR2	9	n/a	n/a	n/a	13	17	3	8	6
1719.61	n/a	PROB	859805	n/a	LTP322	ltpFR2	9	n/a	n/a	n/a	13	15	7	6	2
1721.328	n/a	PROB	860664	n/a	LTP322	ltpFR2	9	n/a	n/a	n/a	13	21	7	9	5
1723.178	n/a	PROB	861589	n/a	LTP322	ltpFR2	9	n/a	n/a	n/a	13	16	2	8	6
1724.364	n/a	PROB	862182	n/a	LTP322	ltpFR2	9	n/a	n/a	n/a	13	14	5	2	7
1725.816	n/a	PROB	862908	n/a	LTP322	ltpFR2	9	n/a	n/a	n/a	13	26	9	9	8
1729.434	n/a	STOP	864717	n/a	LTP322	ltpFR2	9	n/a	n/a	n/a	13	n/a	n/a	n/a	n/a
1731.304	n/a	REC_START	865652	n/a	LTP322	ltpFR2	9	8	n/a	n/a	n/a	n/a	0	0	0
1732.664	n/a	REC_WORD	866332	wordpools/wasnorm_wordpool_576.txt	LTP322	ltpFR2	9	8	PADDING	999	n/a	n/a	0	0	0
1734.144	n/a	REC_WORD	867072	wordpools/wasnorm_wordpool_576.txt	LTP322	ltpFR2	9	8	MARKER	870	n/a	n/a	0	0	0
1735.654	n/a	REC_WORD	867827	wordpools/wasnorm_wordpool_576.txt	LTP322	ltpFR2	9	8	FLESH	579	n/a	n/a	0	0	0
1737.28	n/a	REC_WORD	868640	wordpools/wasnorm_wordpool_576.txt	LTP322	ltpFR2	9	8	CHURCH	307	n/a	n/a	0	0	0
1759.646	n/a	REC_WORD	879823	wordpools/wasnorm_wordpool_576.txt	LTP322	ltpFR2	9	8	GRAVEL	659	n/a	n/a	0	0	0
1761.48	n/a	REC_WORD	880740	wordpools/wasnorm_wordpool_576.txt	LTP322	ltpFR2	9	8	JURY	766	n/a	n/a	0	0	0
1764.904	n/a	REC_WORD	882452	wordpools/wasnorm_wordpool_576.txt	LTP322	ltpFR2	9	8	TABLE	1426	n/a	n/a	0	0	0
1767.13	n/a	REC_WORD	883565	wordpools/wasnorm_wordpool_576.txt	LTP322	ltpFR2	9	8	FRAME	600	n/a	n/a	0	0	0
1795.584	n/a	REC_WORD	897792	wordpools/wasnorm_wordpool_576.txt	LTP322	ltpFR2	9	8	BRANDY	169	n/a	n/a	0	0	0
1807.846	n/a	REST_REWET	903923	n/a	LTP322	ltpFR2	9	8	n/a	n/a	n/a	n/a	0	0	0
1998.078	n/a	WORD	999039	wordpools/wasnorm_wordpool_576.txt	LTP322	ltpFR2	9	9	SUSPECT	1415	n/a	n/a	0	0	0
2000.56	n/a	WORD	1000280	wordpools/wasnorm_wordpool_576.txt	LTP322	ltpFR2	9	9	WARDROBE	1587	n/a	n/a	0	0	0
2003.16	n/a	WORD	1001580	wordpools/wasnorm_wordpool_576.txt	LTP322	ltpFR2	9	9	ITEM	746	n/a	n/a	0	0	0
2005.65	n/a	WORD	1002825	wordpools/wasnorm_wordpool_576.txt	LTP322	ltpFR2	9	9	SOFTBALL	1343	n/a	n/a	0	0	0
2008.432	n/a	WORD	1004216	wordpools/wasnorm_wordpool_576.txt	LTP322	ltpFR2	9	9	ARM	38	n/a	n/a	0	0	0
2011.202	n/a	WORD	1005601	wordpools/wasnorm_wordpool_576.txt	LTP322	ltpFR2	9	9	GOBLIN	645	n/a	n/a	0	0	0
2013.788	n/a	WORD	1006894	wordpools/wasnorm_wordpool_576.txt	LTP322	ltpFR2	9	9	PICTURE	1061	n/a	n/a	0	0	0
2016.406	n/a	WORD	1008203	wordpools/wasnorm_wordpool_576.txt	LTP322	ltpFR2	9	9	WAITRESS	1581	n/a	n/a	0	0	0
2018.892	n/a	WORD	1009446	wordpools/wasnorm_wordpool_576.txt	LTP322	ltpFR2	9	9	RUG	1215	n/a	n/a	0	0	0
2021.326	n/a	WORD	1010663	wordpools/wasnorm_wordpool_576.txt	LTP322	ltpFR2	9	9	BADGE	68	n/a	n/a	0	0	0
2024.144	n/a	WORD	1012072	wordpools/wasnorm_wordpool_576.txt	LTP322	ltpFR2	9	9	LODGE	839	n/a	n/a	0	0	0
2026.88	n/a	WORD	1013440	wordpools/wasnorm_wordpool_576.txt	LTP322	ltpFR2	9	9	MAPLE	866	n/a	n/a	0	0	0
2029.618	n/a	WORD	1014809	wordpools/wasnorm_wordpool_576.txt	LTP322	ltpFR2	9	9	LIZARD	834	n/a	n/a	0	0	0
2032.168	n/a	WORD	1016084	wordpools/wasnorm_wordpool_576.txt	LTP322	ltpFR2	9	9	COBRA	336	n/a	n/a	0	0	0
2034.838	n/a	WORD	1017419	wordpools/wasnorm_wordpool_576.txt	LTP322	ltpFR2	9	9	PADDLE	1000	n/a	n/a	0	0	0
2037.39	n/a	WORD	1018695	wordpools/wasnorm_wordpool_576.txt	LTP322	ltpFR2	9	9	WASHER	1592	n/a	n/a	0	0	0
2040.142	n/a	WORD	1020071	wordpools/wasnorm_wordpool_576.txt	LTP322	ltpFR2	9	9	STATUE	1374	n/a	n/a	0	0	0
2042.828	n/a	WORD	1021414	wordpools/wasnorm_wordpool_576.txt	LTP322	ltpFR2	9	9	DRAWING	494	n/a	n/a	0	0	0
2045.398	n/a	WORD	1022699	wordpools/wasnorm_wordpool_576.txt	LTP322	ltpFR2	9	9	SHRUB	1299	n/a	n/a	0	0	0
2048.0	n/a	WORD	1024000	wordpools/wasnorm_wordpool_576.txt	LTP322	ltpFR2	9	9	BUCKET	184	n/a	n/a	0	0	0
2050.802	n/a	WORD	1025401	wordpools/wasnorm_wordpool_576.txt	LTP322	ltpFR2	9	9	OZONE	996	n/a	n/a	0	0	0
2053.388	n/a	WORD	1026694	wordpools/wasnorm_wordpool_576.txt	LTP322	ltpFR2	9	9	COWBOY	395	n/a	n/a	0	0	0
2056.072	n/a	WORD	1028036	wordpools/wasnorm_wordpool_576.txt	LTP322	ltpFR2	9	9	STALLION	1369	n/a	n/a	0	0	0
2058.858	n/a	WORD	1029429	wordpools/wasnorm_wordpool_576.txt	LTP322	ltpFR2	9	9	HONEY	713	n/a	n/a	0	0	0
2060.476	n/a	START	1030238	n/a	LTP322	ltpFR2	9	n/a	n/a	n/a	14	n/a	n/a	n/a	n/a
2061.508	n/a	DISTRACTOR	1030754	n/a	LTP322	ltpFR2	9	9	n/a	n/a	n/a	n/a	0	0	0
2061.526	n/a	PROB	1030763	n/a	LTP322	ltpFR2	9	n/a	n/a	n/a	14	23	5	8	9
2064.578	n/a	PROB	1032289	n/a	LTP322	ltpFR2	9	n/a	n/a	n/a	14	11	2	7	2
2066.714	n/a	PROB	1033357	n/a	LTP322	ltpFR2	9	n/a	n/a	n/a	14	12	2	6	4
2068.498	n/a	PROB	1034249	n/a	LTP322	ltpFR2	9	n/a	n/a	n/a	14	11	2	3	6
2070.566	n/a	PROB	1035283	n/a	LTP322	ltpFR2	9	n/a	n/a	n/a	14	21	8	4	9
2072.802	n/a	PROB	1036401	n/a	LTP322	ltpFR2	9	n/a	n/a	n/a	14	25	7	8	7
2074.602	n/a	PROB	1037301	n/a	LTP322	ltpFR2	9	n/a	n/a	n/a	14	14	5	7	2
2077.722	n/a	PROB	1038861	n/a	LTP322	ltpFR2	9	n/a	n/a	n/a	14	17	8	6	3
2079.94	n/a	PROB	1039970	n/a	LTP322	ltpFR2	9	n/a	n/a	n/a	14	23	9	7	7
2082.692	n/a	PROB	1041346	n/a	LTP322	ltpFR2	9	n/a	n/a	n/a	14	15	2	9	4
2084.334	n/a	STOP	1042167	n/a	LTP322	ltpFR2	9	n/a	n/a	n/a	14	n/a	n/a	n/a	n/a
2086.28	n/a	REC_START	1043140	n/a	LTP322	ltpFR2	9	9	n/a	n/a	n/a	n/a	0	0	0
2087.586	n/a	REC_WORD	1043793	wordpools/wasnorm_wordpool_576.txt	LTP322	ltpFR2	9	9	SUSPECT	1415	n/a	n/a	0	0	0
2088.586	n/a	REC_WORD_VV	1044293	wordpools/wasnorm_wordpool_576.txt	LTP322	ltpFR2	9	9	<>	-1	n/a	n/a	0	0	0
2089.894	n/a	REC_WORD	1044947	wordpools/wasnorm_wordpool_576.txt	LTP322	ltpFR2	9	9	ITEM	746	n/a	n/a	0	0	0
2091.324	n/a	REC_WORD	1045662	wordpools/wasnorm_wordpool_576.txt	LTP322	ltpFR2	9	9	WARDROBE	1587	n/a	n/a	0	0	0
2093.358	n/a	REC_WORD	1046679	wordpools/wasnorm_wordpool_576.txt	LTP322	ltpFR2	9	9	SOFTBALL	1343	n/a	n/a	0	0	0
2095.648	n/a	REC_WORD	1047824	wordpools/wasnorm_wordpool_576.txt	LTP322	ltpFR2	9	9	GOBLIN	645	n/a	n/a	0	0	0
2097.444	n/a	REC_WORD	1048722	wordpools/wasnorm_wordpool_576.txt	LTP322	ltpFR2	9	9	PICTURE	1061	n/a	n/a	0	0	0
2102.908	n/a	REC_WORD	1051454	wordpools/wasnorm_wordpool_576.txt	LTP322	ltpFR2	9	9	WAITRESS	1581	n/a	n/a	0	0	0
2104.256	n/a	REC_WORD	1052128	wordpools/wasnorm_wordpool_576.txt	LTP322	ltpFR2	9	9	BADGE	68	n/a	n/a	0	0	0
2105.99	n/a	REC_WORD	1052995	wordpools/wasnorm_wordpool_576.txt	LTP322	ltpFR2	9	9	RUG	1215	n/a	n/a	0	0	0
2107.606	n/a	REC_WORD	1053803	wordpools/wasnorm_wordpool_576.txt	LTP322	ltpFR2	9	9	LODGE	839	n/a	n/a	0	0	0
2109.712	n/a	REC_WORD	1054856	wordpools/wasnorm_wordpool_576.txt	LTP322	ltpFR2	9	9	MAPLE	866	n/a	n/a	0	0	0
2111.28	n/a	REC_WORD	1055640	wordpools/wasnorm_wordpool_576.txt	LTP322	ltpFR2	9	9	LIZARD	834	n/a	n/a	0	0	0
2112.864	n/a	REC_WORD	1056432	wordpools/wasnorm_wordpool_576.txt	LTP322	ltpFR2	9	9	COBRA	336	n/a	n/a	0	0	0
2114.592	n/a	REC_WORD	1057296	wordpools/wasnorm_wordpool_576.txt	LTP322	ltpFR2	9	9	PADDLE	1000	n/a	n/a	0	0	0
2116.136	n/a	REC_WORD	1058068	wordpools/wasnorm_wordpool_576.txt	LTP322	ltpFR2	9	9	STATUE	1374	n/a	n/a	0	0	0
2118.008	n/a	REC_WORD	1059004	wordpools/wasnorm_wordpool_576.txt	LTP322	ltpFR2	9	9	WASHER	1592	n/a	n/a	0	0	0
2125.898	n/a	REC_WORD	1062949	wordpools/wasnorm_wordpool_576.txt	LTP322	ltpFR2	9	9	OZONE	996	n/a	n/a	0	0	0
2138.594	n/a	REC_WORD	1069297	wordpools/wasnorm_wordpool_576.txt	LTP322	ltpFR2	9	9	DRAWING	494	n/a	n/a	0	0	0
2140.988	n/a	REC_WORD	1070494	wordpools/wasnorm_wordpool_576.txt	LTP322	ltpFR2	9	9	SHRUB	1299	n/a	n/a	0	0	0
2176.702	n/a	DISTRACTOR	1088351	n/a	LTP322	ltpFR2	9	10	n/a	n/a	n/a	n/a	0	0	0
2176.702	n/a	START	1088351	n/a	LTP322	ltpFR2	9	n/a	n/a	n/a	15	n/a	n/a	n/a	n/a
2176.718	n/a	PROB	1088359	n/a	LTP322	ltpFR2	9	n/a	n/a	n/a	15	13	2	5	6
2179.302	n/a	PROB	1089651	n/a	LTP322	ltpFR2	9	n/a	n/a	n/a	15	24	6	9	9
2181.32	n/a	PROB	1090660	n/a	LTP322	ltpFR2	9	n/a	n/a	n/a	15	5	1	3	1
2182.738	n/a	PROB	1091369	n/a	LTP322	ltpFR2	9	n/a	n/a	n/a	15	7	1	3	3
2184.988	n/a	PROB	1092494	n/a	LTP322	ltpFR2	9	n/a	n/a	n/a	15	10	2	6	2
2186.656	n/a	PROB	1093328	n/a	LTP322	ltpFR2	9	n/a	n/a	n/a	15	19	9	9	1
2188.342	n/a	PROB	1094171	n/a	LTP322	ltpFR2	9	n/a	n/a	n/a	15	7	3	1	3
2191.244	n/a	PROB	1095622	n/a	LTP322	ltpFR2	9	n/a	n/a	n/a	15	16	4	4	8
2193.878	n/a	PROB	1096939	n/a	LTP322	ltpFR2	9	n/a	n/a	n/a	15	9	4	4	1
2196.114	n/a	PROB	1098057	n/a	LTP322	ltpFR2	9	n/a	n/a	n/a	15	17	8	6	3
2198.55	n/a	PROB	1099275	n/a	LTP322	ltpFR2	9	n/a	n/a	n/a	15	8	1	5	2
2200.032	n/a	STOP	1100016	n/a	LTP322	ltpFR2	9	n/a	n/a	n/a	15	n/a	n/a	n/a	n/a
2201.596	n/a	WORD	1100798	wordpools/wasnorm_wordpool_576.txt	LTP322	ltpFR2	9	10	DAUGHTER	442	n/a	n/a	0	0	0
2204.388	n/a	WORD	1102194	wordpools/wasnorm_wordpool_576.txt	LTP322	ltpFR2	9	10	PEDAL	1037	n/a	n/a	0	0	0
2207.15	n/a	WORD	1103575	wordpools/wasnorm_wordpool_576.txt	LTP322	ltpFR2	9	10	SNAKE	1333	n/a	n/a	0	0	0
2209.57	n/a	WORD	1104785	wordpools/wasnorm_wordpool_576.txt	LTP322	ltpFR2	9	10	DINER	467	n/a	n/a	0	0	0
2212.026	n/a	WORD	1106013	wordpools/wasnorm_wordpool_576.txt	LTP322	ltpFR2	9	10	POPCORN	1104	n/a	n/a	0	0	0
2214.692	n/a	WORD	1107346	wordpools/wasnorm_wordpool_576.txt	LTP322	ltpFR2	9	10	LUNCH	849	n/a	n/a	0	0	0
2217.11	n/a	WORD	1108555	wordpools/wasnorm_wordpool_576.txt	LTP322	ltpFR2	9	10	SCISSORS	1250	n/a	n/a	0	0	0
2219.782	n/a	WORD	1109891	wordpools/wasnorm_wordpool_576.txt	LTP322	ltpFR2	9	10	HATCHET	691	n/a	n/a	0	0	0
2222.336	n/a	WORD	1111168	wordpools/wasnorm_wordpool_576.txt	LTP322	ltpFR2	9	10	PREACHER	1119	n/a	n/a	0	0	0
2225.082	n/a	WORD	1112541	wordpools/wasnorm_wordpool_576.txt	LTP322	ltpFR2	9	10	ATOM	55	n/a	n/a	0	0	0
2227.856	n/a	WORD	1113928	wordpools/wasnorm_wordpool_576.txt	LTP322	ltpFR2	9	10	NEUTRON	947	n/a	n/a	0	0	0
2230.422	n/a	WORD	1115211	wordpools/wasnorm_wordpool_576.txt	LTP322	ltpFR2	9	10	DRUG	501	n/a	n/a	0	0	0
2233.142	n/a	WORD	1116571	wordpools/wasnorm_wordpool_576.txt	LTP322	ltpFR2	9	10	STREAM	1392	n/a	n/a	0	0	0
2235.59	n/a	WORD	1117795	wordpools/wasnorm_wordpool_576.txt	LTP322	ltpFR2	9	10	CORAL	378	n/a	n/a	0	0	0
2238.014	n/a	WORD	1119007	wordpools/wasnorm_wordpool_576.txt	LTP322	ltpFR2	9	10	SPOUSE	1358	n/a	n/a	0	0	0
2240.682	n/a	WORD	1120341	wordpools/wasnorm_wordpool_576.txt	LTP322	ltpFR2	9	10	LILY	821	n/a	n/a	0	0	0
2243.264	n/a	WORD	1121632	wordpools/wasnorm_wordpool_576.txt	LTP322	ltpFR2	9	10	LIPSTICK	829	n/a	n/a	0	0	0
2246.05	n/a	WORD	1123025	wordpools/wasnorm_wordpool_576.txt	LTP322	ltpFR2	9	10	ICEBERG	731	n/a	n/a	0	0	0
2248.802	n/a	WORD	1124401	wordpools/wasnorm_wordpool_576.txt	LTP322	ltpFR2	9	10	LIGHTNING	820	n/a	n/a	0	0	0
2251.222	n/a	WORD	1125611	wordpools/wasnorm_wordpool_576.txt	LTP322	ltpFR2	9	10	SUPPER	1411	n/a	n/a	0	0	0
2253.744	n/a	WORD	1126872	wordpools/wasnorm_wordpool_576.txt	LTP322	ltpFR2	9	10	BUBBLE	183	n/a	n/a	0	0	0
2256.41	n/a	WORD	1128205	wordpools/wasnorm_wordpool_576.txt	LTP322	ltpFR2	9	10	RATTLE	1170	n/a	n/a	0	0	0
2259.162	n/a	WORD	1129581	wordpools/wasnorm_wordpool_576.txt	LTP322	ltpFR2	9	10	SCRIBBLE	1256	n/a	n/a	0	0	0
2261.75	n/a	WORD	1130875	wordpools/wasnorm_wordpool_576.txt	LTP322	ltpFR2	9	10	CLOUD	328	n/a	n/a	0	0	0
2263.366	n/a	START	1131683	n/a	LTP322	ltpFR2	9	n/a	n/a	n/a	16	n/a	n/a	n/a	n/a
2264.558	n/a	DISTRACTOR	1132279	n/a	LTP322	ltpFR2	9	10	n/a	n/a	n/a	n/a	0	0	0
2264.568	n/a	PROB	1132284	n/a	LTP322	ltpFR2	9	n/a	n/a	n/a	16	13	2	3	8
2266.468	n/a	PROB	1133234	n/a	LTP322	ltpFR2	9	n/a	n/a	n/a	16	20	6	8	6
2268.386	n/a	PROB	1134193	n/a	LTP322	ltpFR2	9	n/a	n/a	n/a	16	12	8	2	2
2270.086	n/a	PROB	1135043	n/a	LTP322	ltpFR2	9	n/a	n/a	n/a	16	11	1	6	4
2271.724	n/a	PROB	1135862	n/a	LTP322	ltpFR2	9	n/a	n/a	n/a	16	11	5	3	3
2273.126	n/a	PROB	1136563	n/a	LTP322	ltpFR2	9	n/a	n/a	n/a	16	13	1	3	9
2274.86	n/a	PROB	1137430	n/a	LTP322	ltpFR2	9	n/a	n/a	n/a	16	20	9	7	4
2276.894	n/a	PROB	1138447	n/a	LTP322	ltpFR2	9	n/a	n/a	n/a	16	13	1	8	4
2278.36	n/a	PROB	1139180	n/a	LTP322	ltpFR2	9	n/a	n/a	n/a	16	13	8	2	3
2279.898	n/a	PROB	1139949	n/a	LTP322	ltpFR2	9	n/a	n/a	n/a	16	11	1	9	1
2281.348	n/a	PROB	1140674	n/a	LTP322	ltpFR2	9	n/a	n/a	n/a	16	17	9	1	7
2283.032	n/a	PROB	1141516	n/a	LTP322	ltpFR2	9	n/a	n/a	n/a	16	13	3	5	5
2284.832	n/a	PROB	1142416	n/a	LTP322	ltpFR2	9	n/a	n/a	n/a	16	14	5	1	8
2286.242	n/a	STOP	1143121	n/a	LTP322	ltpFR2	9	n/a	n/a	n/a	16	n/a	n/a	n/a	n/a
2289.338	n/a	REC_START	1144669	n/a	LTP322	ltpFR2	9	10	n/a	n/a	n/a	n/a	0	0	0
2290.734	n/a	REC_WORD	1145367	wordpools/wasnorm_wordpool_576.txt	LTP322	ltpFR2	9	10	ATOM	55	n/a	n/a	0	0	0
2291.812	n/a	REC_WORD	1145906	wordpools/wasnorm_wordpool_576.txt	LTP322	ltpFR2	9	10	NEUTRON	947	n/a	n/a	0	0	0
2293.162	n/a	REC_WORD	1146581	wordpools/wasnorm_wordpool_576.txt	LTP322	ltpFR2	9	10	DRUG	501	n/a	n/a	0	0	0
2294.27	n/a	REC_WORD	1147135	wordpools/wasnorm_wordpool_576.txt	LTP322	ltpFR2	9	10	STREAM	1392	n/a	n/a	0	0	0
2297.06	n/a	REC_WORD	1148530	wordpools/wasnorm_wordpool_576.txt	LTP322	ltpFR2	9	10	SPOUSE	1358	n/a	n/a	0	0	0
2299.056	n/a	REC_WORD	1149528	wordpools/wasnorm_wordpool_576.txt	LTP322	ltpFR2	9	10	LILY	821	n/a	n/a	0	0	0
2300.414	n/a	REC_WORD	1150207	wordpools/wasnorm_wordpool_576.txt	LTP322	ltpFR2	9	10	CORAL	378	n/a	n/a	0	0	0
2302.014	n/a	REC_WORD	1151007	wordpools/wasnorm_wordpool_576.txt	LTP322	ltpFR2	9	10	LIPSTICK	829	n/a	n/a	0	0	0
2306.802	n/a	REC_WORD	1153401	wordpools/wasnorm_wordpool_576.txt	LTP322	ltpFR2	9	10	LUNCH	849	n/a	n/a	0	0	0
2308.682	n/a	REC_WORD	1154341	wordpools/wasnorm_wordpool_576.txt	LTP322	ltpFR2	9	10	DINER	467	n/a	n/a	0	0	0
2309.804	n/a	REC_WORD	1154902	wordpools/wasnorm_wordpool_576.txt	LTP322	ltpFR2	9	10	POPCORN	1104	n/a	n/a	0	0	0
2311.992	n/a	REC_WORD	1155996	wordpools/wasnorm_wordpool_576.txt	LTP322	ltpFR2	9	10	SUPPER	1411	n/a	n/a	0	0	0
2326.432	n/a	REC_WORD	1163216	wordpools/wasnorm_wordpool_576.txt	LTP322	ltpFR2	9	10	WAITRESS	1581	n/a	n/a	0	0	0
2379.774	n/a	WORD	1189887	wordpools/wasnorm_wordpool_576.txt	LTP322	ltpFR2	9	11	CHAMPAGNE	278	n/a	n/a	0	0	0
2382.2	n/a	WORD	1191100	wordpools/wasnorm_wordpool_576.txt	LTP322	ltpFR2	9	11	AWARD	63	n/a	n/a	0	0	0
2384.862	n/a	WORD	1192431	wordpools/wasnorm_wordpool_576.txt	LTP322	ltpFR2	9	11	PRINCE	1124	n/a	n/a	0	0	0
2387.638	n/a	WORD	1193819	wordpools/wasnorm_wordpool_576.txt	LTP322	ltpFR2	9	11	PLATE	1086	n/a	n/a	0	0	0
2390.216	n/a	WORD	1195108	wordpools/wasnorm_wordpool_576.txt	LTP322	ltpFR2	9	11	SERVANT	1271	n/a	n/a	0	0	0
2392.736	n/a	WORD	1196368	wordpools/wasnorm_wordpool_576.txt	LTP322	ltpFR2	9	11	NOMAD	955	n/a	n/a	0	0	0
2395.386	n/a	WORD	1197693	wordpools/wasnorm_wordpool_576.txt	LTP322	ltpFR2	9	11	STAKE	1368	n/a	n/a	0	0	0
2397.93	n/a	WORD	1198965	wordpools/wasnorm_wordpool_576.txt	LTP322	ltpFR2	9	11	COOKBOOK	373	n/a	n/a	0	0	0
2400.416	n/a	WORD	1200208	wordpools/wasnorm_wordpool_576.txt	LTP322	ltpFR2	9	11	CAFE	216	n/a	n/a	0	0	0
2402.95	n/a	WORD	1201475	wordpools/wasnorm_wordpool_576.txt	LTP322	ltpFR2	9	11	LUMBER	848	n/a	n/a	0	0	0
2405.528	n/a	WORD	1202764	wordpools/wasnorm_wordpool_576.txt	LTP322	ltpFR2	9	11	GROUND	666	n/a	n/a	0	0	0
2408.198	n/a	WORD	1204099	wordpools/wasnorm_wordpool_576.txt	LTP322	ltpFR2	9	11	TILE	1468	n/a	n/a	0	0	0
2410.706	n/a	WORD	1205353	wordpools/wasnorm_wordpool_576.txt	LTP322	ltpFR2	9	11	CHEMIST	292	n/a	n/a	0	0	0
2413.334	n/a	WORD	1206667	wordpools/wasnorm_wordpool_576.txt	LTP322	ltpFR2	9	11	MOTEL	919	n/a	n/a	0	0	0
2416.036	n/a	WORD	1208018	wordpools/wasnorm_wordpool_576.txt	LTP322	ltpFR2	9	11	XEROX	1628	n/a	n/a	0	0	0
2418.822	n/a	WORD	1209411	wordpools/wasnorm_wordpool_576.txt	LTP322	ltpFR2	9	11	YOLK	1633	n/a	n/a	0	0	0
2421.274	n/a	WORD	1210637	wordpools/wasnorm_wordpool_576.txt	LTP322	ltpFR2	9	11	MUFFIN	929	n/a	n/a	0	0	0
2423.692	n/a	WORD	1211846	wordpools/wasnorm_wordpool_576.txt	LTP322	ltpFR2	9	11	SALT	1229	n/a	n/a	0	0	0
2426.362	n/a	WORD	1213181	wordpools/wasnorm_wordpool_576.txt	LTP322	ltpFR2	9	11	ICING	732	n/a	n/a	0	0	0
2429.072	n/a	WORD	1214536	wordpools/wasnorm_wordpool_576.txt	LTP322	ltpFR2	9	11	TURTLE	1522	n/a	n/a	0	0	0
2431.532	n/a	WORD	1215766	wordpools/wasnorm_wordpool_576.txt	LTP322	ltpFR2	9	11	PASTRY	1022	n/a	n/a	0	0	0
2434.078	n/a	WORD	1217039	wordpools/wasnorm_wordpool_576.txt	LTP322	ltpFR2	9	11	ZEBRA	1635	n/a	n/a	0	0	0
2436.736	n/a	WORD	1218368	wordpools/wasnorm_wordpool_576.txt	LTP322	ltpFR2	9	11	PEPPER	1047	n/a	n/a	0	0	0
2439.214	n/a	WORD	1219607	wordpools/wasnorm_wordpool_576.txt	LTP322	ltpFR2	9	11	GHETTO	633	n/a	n/a	0	0	0
2440.822	n/a	START	1220411	n/a	LTP322	ltpFR2	9	n/a	n/a	n/a	17	n/a	n/a	n/a	n/a
2441.98	n/a	DISTRACTOR	1220990	n/a	LTP322	ltpFR2	9	11	n/a	n/a	n/a	n/a	0	0	0
2441.99	n/a	PROB	1220995	n/a	LTP322	ltpFR2	9	n/a	n/a	n/a	17	14	7	1	6
2445.026	n/a	PROB	1222513	n/a	LTP322	ltpFR2	9	n/a	n/a	n/a	17	18	8	8	2
2447.226	n/a	PROB	1223613	n/a	LTP322	ltpFR2	9	n/a	n/a	n/a	17	27	9	9	9
2448.978	n/a	PROB	1224489	n/a	LTP322	ltpFR2	9	n/a	n/a	n/a	17	21	5	7	9
2452.212	n/a	PROB	1226106	n/a	LTP322	ltpFR2	9	n/a	n/a	n/a	17	9	5	3	1
2453.998	n/a	PROB	1226999	n/a	LTP322	ltpFR2	9	n/a	n/a	n/a	17	21	9	8	4
2455.768	n/a	PROB	1227884	n/a	LTP322	ltpFR2	9	n/a	n/a	n/a	17	16	8	6	2
2457.868	n/a	PROB	1228934	n/a	LTP322	ltpFR2	9	n/a	n/a	n/a	17	12	6	1	5
2460.134	n/a	PROB	1230067	n/a	LTP322	ltpFR2	9	n/a	n/a	n/a	17	11	9	1	1
2462.54	n/a	PROB	1231270	n/a	LTP322	ltpFR2	9	n/a	n/a	n/a	17	18	8	5	5
2464.428	n/a	STOP	1232214	n/a	LTP322	ltpFR2	9	n/a	n/a	n/a	17	n/a	n/a	n/a	n/a
2466.574	n/a	REC_START	1233287	n/a	LTP322	ltpFR2	9	11	n/a	n/a	n/a	n/a	0	0	0
2469.744	n/a	REC_WORD	1234872	wordpools/wasnorm_wordpool_576.txt	LTP322	ltpFR2	9	11	PRINCE	1124	n/a	n/a	0	0	0
2471.37	n/a	REC_WORD	1235685	wordpools/wasnorm_wordpool_576.txt	LTP322	ltpFR2	9	11	PLATE	1086	n/a	n/a	0	0	0
2473.144	n/a	REC_WORD	1236572	wordpools/wasnorm_wordpool_576.txt	LTP322	ltpFR2	9	11	CHAMPAGNE	278	n/a	n/a	0	0	0
2475.224	n/a	REC_WORD	1237612	wordpools/wasnorm_wordpool_576.txt	LTP322	ltpFR2	9	11	AWARD	63	n/a	n/a	0	0	0
2478.1	n/a	REC_WORD	1239050	wordpools/wasnorm_wordpool_576.txt	LTP322	ltpFR2	9	11	SERVANT	1271	n/a	n/a	0	0	0
2480.21	n/a	REC_WORD	1240105	wordpools/wasnorm_wordpool_576.txt	LTP322	ltpFR2	9	11	COOKBOOK	373	n/a	n/a	0	0	0
2483.032	n/a	REC_WORD	1241516	wordpools/wasnorm_wordpool_576.txt	LTP322	ltpFR2	9	11	SALT	1229	n/a	n/a	0	0	0
2484.63	n/a	REC_WORD	1242315	wordpools/wasnorm_wordpool_576.txt	LTP322	ltpFR2	9	11	PEPPER	1047	n/a	n/a	0	0	0
2486.144	n/a	REC_WORD	1243072	wordpools/wasnorm_wordpool_576.txt	LTP322	ltpFR2	9	11	ZEBRA	1635	n/a	n/a	0	0	0
2488.29	n/a	REC_WORD	1244145	wordpools/wasnorm_wordpool_576.txt	LTP322	ltpFR2	9	11	TURTLE	1522	n/a	n/a	0	0	0
2490.732	n/a	REC_WORD	1245366	wordpools/wasnorm_wordpool_576.txt	LTP322	ltpFR2	9	11	MUFFIN	929	n/a	n/a	0	0	0
2492.858	n/a	REC_WORD	1246429	wordpools/wasnorm_wordpool_576.txt	LTP322	ltpFR2	9	11	PASTRY	1022	n/a	n/a	0	0	0
2495.118	n/a	REC_WORD	1247559	wordpools/wasnorm_wordpool_576.txt	LTP322	ltpFR2	9	11	ICING	732	n/a	n/a	0	0	0
2498.262	n/a	REC_WORD	1249131	wordpools/wasnorm_wordpool_576.txt	LTP322	ltpFR2	9	11	TILE	1468	n/a	n/a	0	0	0
2501.23	n/a	REC_WORD	1250615	wordpools/wasnorm_wordpool_576.txt	LTP322	ltpFR2	9	11	NOMAD	955	n/a	n/a	0	0	0
2502.704	n/a	REC_WORD	1251352	wordpools/wasnorm_wordpool_576.txt	LTP322	ltpFR2	9	11	GROUND	666	n/a	n/a	0	0	0
2504.276	n/a	REC_WORD	1252138	wordpools/wasnorm_wordpool_576.txt	LTP322	ltpFR2	9	11	LUMBER	848	n/a	n/a	0	0	0
2557.03	n/a	DISTRACTOR	1278515	n/a	LTP322	ltpFR2	9	12	n/a	n/a	n/a	n/a	0	0	0
2557.03	n/a	START	1278515	n/a	LTP322	ltpFR2	9	n/a	n/a	n/a	18	n/a	n/a	n/a	n/a
2557.044	n/a	PROB	1278522	n/a	LTP322	ltpFR2	9	n/a	n/a	n/a	18	13	2	3	8
2559.164	n/a	PROB	1279582	n/a	LTP322	ltpFR2	9	n/a	n/a	n/a	18	14	4	8	2
2560.6	n/a	PROB	1280300	n/a	LTP322	ltpFR2	9	n/a	n/a	n/a	18	16	9	6	1
2562.45	n/a	PROB	1281225	n/a	LTP322	ltpFR2	9	n/a	n/a	n/a	18	13	7	4	2
2564.618	n/a	PROB	1282309	n/a	LTP322	ltpFR2	9	n/a	n/a	n/a	18	21	4	8	9
2566.404	n/a	PROB	1283202	n/a	LTP322	ltpFR2	9	n/a	n/a	n/a	18	15	4	7	4
2569.388	n/a	PROB	1284694	n/a	LTP322	ltpFR2	9	n/a	n/a	n/a	18	10	4	3	3
2571.292	n/a	PROB	1285646	n/a	LTP322	ltpFR2	9	n/a	n/a	n/a	18	7	1	1	5
2572.742	n/a	PROB	1286371	n/a	LTP322	ltpFR2	9	n/a	n/a	n/a	18	17	9	7	1
2575.61	n/a	PROB	1287805	n/a	LTP322	ltpFR2	9	n/a	n/a	n/a	18	17	6	5	6
2577.528	n/a	PROB	1288764	n/a	LTP322	ltpFR2	9	n/a	n/a	n/a	18	18	8	4	6
2581.03	n/a	STOP	1290515	n/a	LTP322	ltpFR2	9	n/a	n/a	n/a	18	n/a	n/a	n/a	n/a
2582.048	n/a	WORD	1291024	wordpools/wasnorm_wordpool_576.txt	LTP322	ltpFR2	9	12	BACON	67	n/a	n/a	0	0	0
2584.804	n/a	WORD	1292402	wordpools/wasnorm_wordpool_576.txt	LTP322	ltpFR2	9	12	CAPTIVE	240	n/a	n/a	0	0	0
2587.256	n/a	WORD	1293628	wordpools/wasnorm_wordpool_576.txt	LTP322	ltpFR2	9	12	CRATER	400	n/a	n/a	0	0	0
2589.772	n/a	WORD	1294886	wordpools/wasnorm_wordpool_576.txt	LTP322	ltpFR2	9	12	LAVA	804	n/a	n/a	0	0	0
2592.362	n/a	WORD	1296181	wordpools/wasnorm_wordpool_576.txt	LTP322	ltpFR2	9	12	GRAVE	658	n/a	n/a	0	0	0
2594.808	n/a	WORD	1297404	wordpools/wasnorm_wordpool_576.txt	LTP322	ltpFR2	9	12	EXPERT	543	n/a	n/a	0	0	0
2597.278	n/a	WORD	1298639	wordpools/wasnorm_wordpool_576.txt	LTP322	ltpFR2	9	12	RIFLE	1192	n/a	n/a	0	0	0
2600.03	n/a	WORD	1300015	wordpools/wasnorm_wordpool_576.txt	LTP322	ltpFR2	9	12	CITRUS	313	n/a	n/a	0	0	0
2602.548	n/a	WORD	1301274	wordpools/wasnorm_wordpool_576.txt	LTP322	ltpFR2	9	12	STAPLE	1371	n/a	n/a	0	0	0
2605.25	n/a	WORD	1302625	wordpools/wasnorm_wordpool_576.txt	LTP322	ltpFR2	9	12	BANJO	82	n/a	n/a	0	0	0
2608.008	n/a	WORD	1304004	wordpools/wasnorm_wordpool_576.txt	LTP322	ltpFR2	9	12	OYSTER	995	n/a	n/a	0	0	0
2610.554	n/a	WORD	1305277	wordpools/wasnorm_wordpool_576.txt	LTP322	ltpFR2	9	12	CONTRACT	368	n/a	n/a	0	0	0
2613.212	n/a	WORD	1306606	wordpools/wasnorm_wordpool_576.txt	LTP322	ltpFR2	9	12	BOARD	143	n/a	n/a	0	0	0
2616.008	n/a	WORD	1308004	wordpools/wasnorm_wordpool_576.txt	LTP322	ltpFR2	9	12	BLACKBOARD	133	n/a	n/a	0	0	0
2618.8	n/a	WORD	1309400	wordpools/wasnorm_wordpool_576.txt	LTP322	ltpFR2	9	12	RAZOR	1171	n/a	n/a	0	0	0
2621.364	n/a	WORD	1310682	wordpools/wasnorm_wordpool_576.txt	LTP322	ltpFR2	9	12	FRECKLE	602	n/a	n/a	0	0	0
2624.016	n/a	WORD	1312008	wordpools/wasnorm_wordpool_576.txt	LTP322	ltpFR2	9	12	SWITCH	1422	n/a	n/a	0	0	0
2626.774	n/a	WORD	1313387	wordpools/wasnorm_wordpool_576.txt	LTP322	ltpFR2	9	12	CLAM	315	n/a	n/a	0	0	0
2629.226	n/a	WORD	1314613	wordpools/wasnorm_wordpool_576.txt	LTP322	ltpFR2	9	12	SEAFOOD	1260	n/a	n/a	0	0	0
2631.822	n/a	WORD	1315911	wordpools/wasnorm_wordpool_576.txt	LTP322	ltpFR2	9	12	OUTDOORS	987	n/a	n/a	0	0	0
2634.472	n/a	WORD	1317236	wordpools/wasnorm_wordpool_576.txt	LTP322	ltpFR2	9	12	RABBIT	1152	n/a	n/a	0	0	0
2637.182	n/a	WORD	1318591	wordpools/wasnorm_wordpool_576.txt	LTP322	ltpFR2	9	12	SERVER	1272	n/a	n/a	0	0	0
2639.912	n/a	WORD	1319956	wordpools/wasnorm_wordpool_576.txt	LTP322	ltpFR2	9	12	APPLE	33	n/a	n/a	0	0	0
2642.57	n/a	WORD	1321285	wordpools/wasnorm_wordpool_576.txt	LTP322	ltpFR2	9	12	RECEIPT	1173	n/a	n/a	0	0	0
2644.18	n/a	START	1322090	n/a	LTP322	ltpFR2	9	n/a	n/a	n/a	19	n/a	n/a	n/a	n/a
2645.11	n/a	DISTRACTOR	1322555	n/a	LTP322	ltpFR2	9	12	n/a	n/a	n/a	n/a	0	0	0
2645.116	n/a	PROB	1322558	n/a	LTP322	ltpFR2	9	n/a	n/a	n/a	19	10	3	2	5
2647.398	n/a	PROB	1323699	n/a	LTP322	ltpFR2	9	n/a	n/a	n/a	19	11	6	4	1
2649.184	n/a	PROB	1324592	n/a	LTP322	ltpFR2	9	n/a	n/a	n/a	19	20	9	6	5
2651.352	n/a	PROB	1325676	n/a	LTP322	ltpFR2	9	n/a	n/a	n/a	19	17	2	6	9
2653.054	n/a	PROB	1326527	n/a	LTP322	ltpFR2	9	n/a	n/a	n/a	19	17	4	4	9
2655.154	n/a	PROB	1327577	n/a	LTP322	ltpFR2	9	n/a	n/a	n/a	19	18	8	2	8
2656.84	n/a	PROB	1328420	n/a	LTP322	ltpFR2	9	n/a	n/a	n/a	19	13	6	4	3
2658.274	n/a	PROB	1329137	n/a	LTP322	ltpFR2	9	n/a	n/a	n/a	19	13	3	6	4
2660.308	n/a	PROB	1330154	n/a	LTP322	ltpFR2	9	n/a	n/a	n/a	19	16	6	5	5
2661.728	n/a	PROB	1330864	n/a	LTP322	ltpFR2	9	n/a	n/a	n/a	19	14	1	4	9
2663.246	n/a	PROB	1331623	n/a	LTP322	ltpFR2	9	n/a	n/a	n/a	19	16	5	2	9
2664.882	n/a	PROB	1332441	n/a	LTP322	ltpFR2	9	n/a	n/a	n/a	19	20	9	4	7
2667.464	n/a	STOP	1333732	n/a	LTP322	ltpFR2	9	n/a	n/a	n/a	19	n/a	n/a	n/a	n/a
2670.102	n/a	REC_START	1335051	n/a	LTP322	ltpFR2	9	12	n/a	n/a	n/a	n/a	0	0	0
2671.896	n/a	REC_WORD	1335948	wordpools/wasnorm_wordpool_576.txt	LTP322	ltpFR2	9	12	BACON	67	n/a	n/a	0	0	0
2672.564	n/a	REC_WORD	1336282	wordpools/wasnorm_wordpool_576.txt	LTP322	ltpFR2	9	12	EXPERT	543	n/a	n/a	0	0	0
2674.836	n/a	REC_WORD	1337418	wordpools/wasnorm_wordpool_576.txt	LTP322	ltpFR2	9	12	BLACKBOARD	133	n/a	n/a	0	0	0
2676.552	n/a	REC_WORD	1338276	wordpools/wasnorm_wordpool_576.txt	LTP322	ltpFR2	9	12	RAZOR	1171	n/a	n/a	0	0	0
2679.838	n/a	REC_WORD	1339919	wordpools/wasnorm_wordpool_576.txt	LTP322	ltpFR2	9	12	OYSTER	995	n/a	n/a	0	0	0
2681.03	n/a	REC_WORD	1340515	wordpools/wasnorm_wordpool_576.txt	LTP322	ltpFR2	9	12	CONTRACT	368	n/a	n/a	0	0	0
2682.216	n/a	REC_WORD	1341108	wordpools/wasnorm_wordpool_576.txt	LTP322	ltpFR2	9	12	CLAM	315	n/a	n/a	0	0	0
2683.354	n/a	REC_WORD	1341677	wordpools/wasnorm_wordpool_576.txt	LTP322	ltpFR2	9	12	SEAFOOD	1260	n/a	n/a	0	0	0
2686.648	n/a	REC_WORD	1343324	wordpools/wasnorm_wordpool_576.txt	LTP322	ltpFR2	9	12	LAVA	804	n/a	n/a	0	0	0
2688.68	n/a	REC_WORD	1344340	wordpools/wasnorm_wordpool_576.txt	LTP322	ltpFR2	9	12	CRATER	400	n/a	n/a	0	0	0
2691.112	n/a	REC_WORD	1345556	wordpools/wasnorm_wordpool_576.txt	LTP322	ltpFR2	9	12	CAPTIVE	240	n/a	n/a	0	0	0
2693.552	n/a	REC_WORD	1346776	wordpools/wasnorm_wordpool_576.txt	LTP322	ltpFR2	9	12	APPLE	33	n/a	n/a	0	0	0
2695.728	n/a	REC_WORD	1347864	wordpools/wasnorm_wordpool_576.txt	LTP322	ltpFR2	9	12	RECEIPT	1173	n/a	n/a	0	0	0
2705.972	n/a	REC_WORD	1352986	wordpools/wasnorm_wordpool_576.txt	LTP322	ltpFR2	9	12	BOARD	143	n/a	n/a	0	0	0
2760.57	n/a	WORD	1380285	wordpools/wasnorm_wordpool_576.txt	LTP322	ltpFR2	9	13	PARTNER	1017	n/a	n/a	0	0	0
2763.122	n/a	WORD	1381561	wordpools/wasnorm_wordpool_576.txt	LTP322	ltpFR2	9	13	GRAPE	654	n/a	n/a	0	0	0
2765.858	n/a	WORD	1382929	wordpools/wasnorm_wordpool_576.txt	LTP322	ltpFR2	9	13	EAGLE	512	n/a	n/a	0	0	0
2768.628	n/a	WORD	1384314	wordpools/wasnorm_wordpool_576.txt	LTP322	ltpFR2	9	13	EUROPE	541	n/a	n/a	0	0	0
2771.146	n/a	WORD	1385573	wordpools/wasnorm_wordpool_576.txt	LTP322	ltpFR2	9	13	TREAT	1501	n/a	n/a	0	0	0
2773.748	n/a	WORD	1386874	wordpools/wasnorm_wordpool_576.txt	LTP322	ltpFR2	9	13	PUPPY	1144	n/a	n/a	0	0	0
2776.4	n/a	WORD	1388200	wordpools/wasnorm_wordpool_576.txt	LTP322	ltpFR2	9	13	HOUND	724	n/a	n/a	0	0	0
2779.152	n/a	WORD	1389576	wordpools/wasnorm_wordpool_576.txt	LTP322	ltpFR2	9	13	PASTA	1021	n/a	n/a	0	0	0
2781.638	n/a	WORD	1390819	wordpools/wasnorm_wordpool_576.txt	LTP322	ltpFR2	9	13	POSTAGE	1113	n/a	n/a	0	0	0
2784.29	n/a	WORD	1392145	wordpools/wasnorm_wordpool_576.txt	LTP322	ltpFR2	9	13	RACKET	1155	n/a	n/a	0	0	0
2787.042	n/a	WORD	1393521	wordpools/wasnorm_wordpool_576.txt	LTP322	ltpFR2	9	13	BUREAU	199	n/a	n/a	0	0	0
2789.494	n/a	WORD	1394747	wordpools/wasnorm_wordpool_576.txt	LTP322	ltpFR2	9	13	CHEST	295	n/a	n/a	0	0	0
2792.214	n/a	WORD	1396107	wordpools/wasnorm_wordpool_576.txt	LTP322	ltpFR2	9	13	WIDOW	1608	n/a	n/a	0	0	0
2794.764	n/a	WORD	1397382	wordpools/wasnorm_wordpool_576.txt	LTP322	ltpFR2	9	13	HUSBAND	728	n/a	n/a	0	0	0
2797.368	n/a	WORD	1398684	wordpools/wasnorm_wordpool_576.txt	LTP322	ltpFR2	9	13	MARROW	872	n/a	n/a	0	0	0
2800.102	n/a	WORD	1400051	wordpools/wasnorm_wordpool_576.txt	LTP322	ltpFR2	9	13	FINGER	567	n/a	n/a	0	0	0
2802.654	n/a	WORD	1401327	wordpools/wasnorm_wordpool_576.txt	LTP322	ltpFR2	9	13	GRIZZLY	662	n/a	n/a	0	0	0
2805.24	n/a	WORD	1402620	wordpools/wasnorm_wordpool_576.txt	LTP322	ltpFR2	9	13	JELLY	755	n/a	n/a	0	0	0
2807.69	n/a	WORD	1403845	wordpools/wasnorm_wordpool_576.txt	LTP322	ltpFR2	9	13	BUTCHER	203	n/a	n/a	0	0	0
2810.128	n/a	WORD	1405064	wordpools/wasnorm_wordpool_576.txt	LTP322	ltpFR2	9	13	ASIA	46	n/a	n/a	0	0	0
2812.828	n/a	WORD	1406414	wordpools/wasnorm_wordpool_576.txt	LTP322	ltpFR2	9	13	FRUIT	610	n/a	n/a	0	0	0
2815.364	n/a	WORD	1407682	wordpools/wasnorm_wordpool_576.txt	LTP322	ltpFR2	9	13	HERO	706	n/a	n/a	0	0	0
2818.052	n/a	WORD	1409026	wordpools/wasnorm_wordpool_576.txt	LTP322	ltpFR2	9	13	KNIFE	785	n/a	n/a	0	0	0
2820.484	n/a	WORD	1410242	wordpools/wasnorm_wordpool_576.txt	LTP322	ltpFR2	9	13	SIDEWALK	1303	n/a	n/a	0	0	0
2822.09	n/a	START	1411045	n/a	LTP322	ltpFR2	9	n/a	n/a	n/a	20	n/a	n/a	n/a	n/a
2823.166	n/a	DISTRACTOR	1411583	n/a	LTP322	ltpFR2	9	13	n/a	n/a	n/a	n/a	0	0	0
2823.172	n/a	PROB	1411586	n/a	LTP322	ltpFR2	9	n/a	n/a	n/a	20	9	1	2	6
2824.786	n/a	PROB	1412393	n/a	LTP322	ltpFR2	9	n/a	n/a	n/a	20	10	2	3	5
2826.306	n/a	PROB	1413153	n/a	LTP322	ltpFR2	9	n/a	n/a	n/a	20	14	7	1	6
2828.14	n/a	PROB	1414070	n/a	LTP322	ltpFR2	9	n/a	n/a	n/a	20	17	2	6	9
2829.926	n/a	PROB	1414963	n/a	LTP322	ltpFR2	9	n/a	n/a	n/a	20	13	6	2	5
2832.01	n/a	PROB	1416005	n/a	LTP322	ltpFR2	9	n/a	n/a	n/a	20	14	8	1	5
2833.996	n/a	PROB	1416998	n/a	LTP322	ltpFR2	9	n/a	n/a	n/a	20	21	9	9	3
2835.964	n/a	PROB	1417982	n/a	LTP322	ltpFR2	9	n/a	n/a	n/a	20	23	9	7	7
2837.866	n/a	PROB	1418933	n/a	LTP322	ltpFR2	9	n/a	n/a	n/a	20	18	3	8	7
2839.484	n/a	PROB	1419742	n/a	LTP322	ltpFR2	9	n/a	n/a	n/a	20	17	9	2	6
2841.4	n/a	PROB	1420700	n/a	LTP322	ltpFR2	9	n/a	n/a	n/a	20	12	4	5	3
2843.202	n/a	PROB	1421601	n/a	LTP322	ltpFR2	9	n/a	n/a	n/a	20	11	6	2	3
2845.62	n/a	STOP	1422810	n/a	LTP322	ltpFR2	9	n/a	n/a	n/a	20	n/a	n/a	n/a	n/a
2847.89	n/a	REC_START	1423945	n/a	LTP322	ltpFR2	9	13	n/a	n/a	n/a	n/a	0	0	0
2850.472	n/a	REC_WORD	1425236	wordpools/wasnorm_wordpool_576.txt	LTP322	ltpFR2	9	13	ASIA	46	n/a	n/a	0	0	0
2851.46	n/a	REC_WORD	1425730	wordpools/wasnorm_wordpool_576.txt	LTP322	ltpFR2	9	13	FRUIT	610	n/a	n/a	0	0	0
2852.718	n/a	REC_WORD	1426359	wordpools/wasnorm_wordpool_576.txt	LTP322	ltpFR2	9	13	KNIFE	785	n/a	n/a	0	0	0
2854.756	n/a	REC_WORD	1427378	wordpools/wasnorm_wordpool_576.txt	LTP322	ltpFR2	9	13	HUSBAND	728	n/a	n/a	0	0	0
2856.052	n/a	REC_WORD	1428026	wordpools/wasnorm_wordpool_576.txt	LTP322	ltpFR2	9	13	CHEST	295	n/a	n/a	0	0	0
2857.458	n/a	REC_WORD	1428729	wordpools/wasnorm_wordpool_576.txt	LTP322	ltpFR2	9	13	WIDOW	1608	n/a	n/a	0	0	0
2860.714	n/a	REC_WORD	1430357	wordpools/wasnorm_wordpool_576.txt	LTP322	ltpFR2	9	13	EUROPE	541	n/a	n/a	0	0	0
2865.796	n/a	REC_WORD	1432898	wordpools/wasnorm_wordpool_576.txt	LTP322	ltpFR2	9	13	GRAPE	654	n/a	n/a	0	0	0
2866.94	n/a	REC_WORD	1433470	wordpools/wasnorm_wordpool_576.txt	LTP322	ltpFR2	9	13	PARTNER	1017	n/a	n/a	0	0	0
2868.844	n/a	REC_WORD	1434422	wordpools/wasnorm_wordpool_576.txt	LTP322	ltpFR2	9	13	EAGLE	512	n/a	n/a	0	0	0
2871.55	n/a	REC_WORD	1435775	wordpools/wasnorm_wordpool_576.txt	LTP322	ltpFR2	9	13	PASTA	1021	n/a	n/a	0	0	0
2877.078	n/a	REC_WORD	1438539	wordpools/wasnorm_wordpool_576.txt	LTP322	ltpFR2	9	13	PUPPY	1144	n/a	n/a	0	0	0
2878.678	n/a	REC_WORD	1439339	wordpools/wasnorm_wordpool_576.txt	LTP322	ltpFR2	9	13	HOUND	724	n/a	n/a	0	0	0
2938.312	n/a	DISTRACTOR	1469156	n/a	LTP322	ltpFR2	9	14	n/a	n/a	n/a	n/a	0	0	0
2938.312	n/a	START	1469156	n/a	LTP322	ltpFR2	9	n/a	n/a	n/a	21	n/a	n/a	n/a	n/a
2938.326	n/a	PROB	1469163	n/a	LTP322	ltpFR2	9	n/a	n/a	n/a	21	8	4	3	1
2939.96	n/a	PROB	1469980	n/a	LTP322	ltpFR2	9	n/a	n/a	n/a	21	15	9	3	3
2941.912	n/a	PROB	1470956	n/a	LTP322	ltpFR2	9	n/a	n/a	n/a	21	17	5	5	7
2943.23	n/a	PROB	1471615	n/a	LTP322	ltpFR2	9	n/a	n/a	n/a	21	17	9	6	1
2945.198	n/a	PROB	1472599	n/a	LTP322	ltpFR2	9	n/a	n/a	n/a	21	7	2	2	3
2947.468	n/a	PROB	1473734	n/a	LTP322	ltpFR2	9	n/a	n/a	n/a	21	13	4	7	2
2950.67	n/a	PROB	1475335	n/a	LTP322	ltpFR2	9	n/a	n/a	n/a	21	16	4	7	6
2953.756	n/a	PROB	1476878	n/a	LTP322	ltpFR2	9	n/a	n/a	n/a	21	7	5	1	1
2955.092	n/a	PROB	1477546	n/a	LTP322	ltpFR2	9	n/a	n/a	n/a	21	20	6	6	7
2957.39	n/a	PROB	1478695	n/a	LTP322	ltpFR2	9	n/a	n/a	n/a	21	16	4	7	5
2962.312	n/a	STOP	1481156	n/a	LTP322	ltpFR2	9	n/a	n/a	n/a	21	n/a	n/a	n/a	n/a
2963.296	n/a	WORD	1481648	wordpools/wasnorm_wordpool_576.txt	LTP322	ltpFR2	9	14	DRAGON	492	n/a	n/a	0	0	0
2965.896	n/a	WORD	1482948	wordpools/wasnorm_wordpool_576.txt	LTP322	ltpFR2	9	14	FIREPLACE	570	n/a	n/a	0	0	0
2968.564	n/a	WORD	1484282	wordpools/wasnorm_wordpool_576.txt	LTP322	ltpFR2	9	14	MARSH	874	n/a	n/a	0	0	0
2971.15	n/a	WORD	1485575	wordpools/wasnorm_wordpool_576.txt	LTP322	ltpFR2	9	14	CUPBOARD	425	n/a	n/a	0	0	0
2973.952	n/a	WORD	1486976	wordpools/wasnorm_wordpool_576.txt	LTP322	ltpFR2	9	14	CRIB	407	n/a	n/a	0	0	0
2976.586	n/a	WORD	1488293	wordpools/wasnorm_wordpool_576.txt	LTP322	ltpFR2	9	14	OUTLAW	989	n/a	n/a	0	0	0
2979.388	n/a	WORD	1489694	wordpools/wasnorm_wordpool_576.txt	LTP322	ltpFR2	9	14	GLOVE	642	n/a	n/a	0	0	0
2982.192	n/a	WORD	1491096	wordpools/wasnorm_wordpool_576.txt	LTP322	ltpFR2	9	14	BOX	159	n/a	n/a	0	0	0
2984.828	n/a	WORD	1492414	wordpools/wasnorm_wordpool_576.txt	LTP322	ltpFR2	9	14	DIME	466	n/a	n/a	0	0	0
2987.296	n/a	WORD	1493648	wordpools/wasnorm_wordpool_576.txt	LTP322	ltpFR2	9	14	MONEY	908	n/a	n/a	0	0	0
2990.032	n/a	WORD	1495016	wordpools/wasnorm_wordpool_576.txt	LTP322	ltpFR2	9	14	DOLPHIN	483	n/a	n/a	0	0	0
2992.652	n/a	WORD	1496326	wordpools/wasnorm_wordpool_576.txt	LTP322	ltpFR2	9	14	GIFT	635	n/a	n/a	0	0	0
2995.37	n/a	WORD	1497685	wordpools/wasnorm_wordpool_576.txt	LTP322	ltpFR2	9	14	BRIEFCASE	175	n/a	n/a	0	0	0
2997.822	n/a	WORD	1498911	wordpools/wasnorm_wordpool_576.txt	LTP322	ltpFR2	9	14	BABY	64	n/a	n/a	0	0	0
3000.424	n/a	WORD	1500212	wordpools/wasnorm_wordpool_576.txt	LTP322	ltpFR2	9	14	HELMET	702	n/a	n/a	0	0	0
3002.994	n/a	WORD	1501497	wordpools/wasnorm_wordpool_576.txt	LTP322	ltpFR2	9	14	MARKET	871	n/a	n/a	0	0	0
3005.528	n/a	WORD	1502764	wordpools/wasnorm_wordpool_576.txt	LTP322	ltpFR2	9	14	WHISKERS	1605	n/a	n/a	0	0	0
3008.064	n/a	WORD	1504032	wordpools/wasnorm_wordpool_576.txt	LTP322	ltpFR2	9	14	LION	827	n/a	n/a	0	0	0
3010.834	n/a	WORD	1505417	wordpools/wasnorm_wordpool_576.txt	LTP322	ltpFR2	9	14	FIREMAN	569	n/a	n/a	0	0	0
3013.418	n/a	WORD	1506709	wordpools/wasnorm_wordpool_576.txt	LTP322	ltpFR2	9	14	PARROT	1015	n/a	n/a	0	0	0
3016.186	n/a	WORD	1508093	wordpools/wasnorm_wordpool_576.txt	LTP322	ltpFR2	9	14	LASER	801	n/a	n/a	0	0	0
3018.872	n/a	WORD	1509436	wordpools/wasnorm_wordpool_576.txt	LTP322	ltpFR2	9	14	DRIVER	499	n/a	n/a	0	0	0
3021.692	n/a	WORD	1510846	wordpools/wasnorm_wordpool_576.txt	LTP322	ltpFR2	9	14	DUST	508	n/a	n/a	0	0	0
3024.276	n/a	WORD	1512138	wordpools/wasnorm_wordpool_576.txt	LTP322	ltpFR2	9	14	SHOVEL	1295	n/a	n/a	0	0	0
3025.896	n/a	START	1512948	n/a	LTP322	ltpFR2	9	n/a	n/a	n/a	22	n/a	n/a	n/a	n/a
3027.04	n/a	DISTRACTOR	1513520	n/a	LTP322	ltpFR2	9	14	n/a	n/a	n/a	n/a	0	0	0
3027.046	n/a	PROB	1513523	n/a	LTP322	ltpFR2	9	n/a	n/a	n/a	22	9	1	1	7
3028.598	n/a	PROB	1514299	n/a	LTP322	ltpFR2	9	n/a	n/a	n/a	22	18	2	8	8
3030.164	n/a	PROB	1515082	n/a	LTP322	ltpFR2	9	n/a	n/a	n/a	22	25	8	9	8
3032.782	n/a	PROB	1516391	n/a	LTP322	ltpFR2	9	n/a	n/a	n/a	22	17	7	7	3
3034.968	n/a	PROB	1517484	n/a	LTP322	ltpFR2	9	n/a	n/a	n/a	22	15	9	1	5
3036.32	n/a	PROB	1518160	n/a	LTP322	ltpFR2	9	n/a	n/a	n/a	22	21	8	4	9
3038.588	n/a	PROB	1519294	n/a	LTP322	ltpFR2	9	n/a	n/a	n/a	22	21	9	5	7
3040.572	n/a	PROB	1520286	n/a	LTP322	ltpFR2	9	n/a	n/a	n/a	22	7	1	4	2
3042.508	n/a	PROB	1521254	n/a	LTP322	ltpFR2	9	n/a	n/a	n/a	22	20	9	6	5
3044.726	n/a	PROB	1522363	n/a	LTP322	ltpFR2	9	n/a	n/a	n/a	22	23	8	7	8
3047.278	n/a	PROB	1523639	n/a	LTP322	ltpFR2	9	n/a	n/a	n/a	22	9	2	6	1
3048.952	n/a	STOP	1524476	n/a	LTP322	ltpFR2	9	n/a	n/a	n/a	22	n/a	n/a	n/a	n/a
3051.718	n/a	REC_START	1525859	n/a	LTP322	ltpFR2	9	14	n/a	n/a	n/a	n/a	0	0	0
3052.686	n/a	REC_WORD	1526343	wordpools/wasnorm_wordpool_576.txt	LTP322	ltpFR2	9	14	SHOVEL	1295	n/a	n/a	0	0	0
3054.47	n/a	REC_WORD	1527235	wordpools/wasnorm_wordpool_576.txt	LTP322	ltpFR2	9	14	DUST	508	n/a	n/a	0	0	0
3056.99	n/a	REC_WORD	1528495	wordpools/wasnorm_wordpool_576.txt	LTP322	ltpFR2	9	14	PARROT	1015	n/a	n/a	0	0	0
3058.286	n/a	REC_WORD	1529143	wordpools/wasnorm_wordpool_576.txt	LTP322	ltpFR2	9	14	FIREMAN	569	n/a	n/a	0	0	0
3060.66	n/a	REC_WORD	1530330	wordpools/wasnorm_wordpool_576.txt	LTP322	ltpFR2	9	14	DRAGON	492	n/a	n/a	0	0	0
3063.502	n/a	REC_WORD	1531751	wordpools/wasnorm_wordpool_576.txt	LTP322	ltpFR2	9	14	FIREPLACE	570	n/a	n/a	0	0	0
3067.948	n/a	REC_WORD	1533974	wordpools/wasnorm_wordpool_576.txt	LTP322	ltpFR2	9	14	CUPBOARD	425	n/a	n/a	0	0	0
3069.242	n/a	REC_WORD	1534621	wordpools/wasnorm_wordpool_576.txt	LTP322	ltpFR2	9	14	CRIB	407	n/a	n/a	0	0	0
3070.714	n/a	REC_WORD	1535357	wordpools/wasnorm_wordpool_576.txt	LTP322	ltpFR2	9	14	OUTLAW	989	n/a	n/a	0	0	0
3072.196	n/a	REC_WORD	1536098	wordpools/wasnorm_wordpool_576.txt	LTP322	ltpFR2	9	14	GLOVE	642	n/a	n/a	0	0	0
3073.578	n/a	REC_WORD	1536789	wordpools/wasnorm_wordpool_576.txt	LTP322	ltpFR2	9	14	MONEY	908	n/a	n/a	0	0	0
3075.076	n/a	REC_WORD	1537538	wordpools/wasnorm_wordpool_576.txt	LTP322	ltpFR2	9	14	DIME	466	n/a	n/a	0	0	0
3077.736	n/a	REC_WORD	1538868	wordpools/wasnorm_wordpool_576.txt	LTP322	ltpFR2	9	14	DOLPHIN	483	n/a	n/a	0	0	0
3079.576	n/a	REC_WORD	1539788	wordpools/wasnorm_wordpool_576.txt	LTP322	ltpFR2	9	14	GIFT	635	n/a	n/a	0	0	0
3081.32	n/a	REC_WORD	1540660	wordpools/wasnorm_wordpool_576.txt	LTP322	ltpFR2	9	14	BRIEFCASE	175	n/a	n/a	0	0	0
3084.38	n/a	REC_WORD	1542190	wordpools/wasnorm_wordpool_576.txt	LTP322	ltpFR2	9	14	BABY	64	n/a	n/a	0	0	0
3086.886	n/a	REC_WORD	1543443	wordpools/wasnorm_wordpool_576.txt	LTP322	ltpFR2	9	14	HELMET	702	n/a	n/a	0	0	0
3142.152	n/a	WORD	1571076	wordpools/wasnorm_wordpool_576.txt	LTP322	ltpFR2	9	15	LOVER	846	n/a	n/a	0	0	0
3144.864	n/a	WORD	1572432	wordpools/wasnorm_wordpool_576.txt	LTP322	ltpFR2	9	15	ROBBER	1197	n/a	n/a	0	0	0
3147.498	n/a	WORD	1573749	wordpools/wasnorm_wordpool_576.txt	LTP322	ltpFR2	9	15	SHARK	1275	n/a	n/a	0	0	0
3150.3	n/a	WORD	1575150	wordpools/wasnorm_wordpool_576.txt	LTP322	ltpFR2	9	15	SLUG	1329	n/a	n/a	0	0	0
3153.076	n/a	WORD	1576538	wordpools/wasnorm_wordpool_576.txt	LTP322	ltpFR2	9	15	BUG	187	n/a	n/a	0	0	0
3155.84	n/a	WORD	1577920	wordpools/wasnorm_wordpool_576.txt	LTP322	ltpFR2	9	15	HOOD	714	n/a	n/a	0	0	0
3158.632	n/a	WORD	1579316	wordpools/wasnorm_wordpool_576.txt	LTP322	ltpFR2	9	15	FRAGRANCE	599	n/a	n/a	0	0	0
3161.11	n/a	WORD	1580555	wordpools/wasnorm_wordpool_576.txt	LTP322	ltpFR2	9	15	PERFUME	1049	n/a	n/a	0	0	0
3163.536	n/a	WORD	1581768	wordpools/wasnorm_wordpool_576.txt	LTP322	ltpFR2	9	15	MARINE	869	n/a	n/a	0	0	0
3166.214	n/a	WORD	1583107	wordpools/wasnorm_wordpool_576.txt	LTP322	ltpFR2	9	15	SLOPE	1328	n/a	n/a	0	0	0
3168.816	n/a	WORD	1584408	wordpools/wasnorm_wordpool_576.txt	LTP322	ltpFR2	9	15	RELISH	1183	n/a	n/a	0	0	0
3171.502	n/a	WORD	1585751	wordpools/wasnorm_wordpool_576.txt	LTP322	ltpFR2	9	15	TAXI	1438	n/a	n/a	0	0	0
3174.136	n/a	WORD	1587068	wordpools/wasnorm_wordpool_576.txt	LTP322	ltpFR2	9	15	CLIMBER	323	n/a	n/a	0	0	0
3176.94	n/a	WORD	1588470	wordpools/wasnorm_wordpool_576.txt	LTP322	ltpFR2	9	15	LADDER	793	n/a	n/a	0	0	0
3179.676	n/a	WORD	1589838	wordpools/wasnorm_wordpool_576.txt	LTP322	ltpFR2	9	15	PIGMENT	1066	n/a	n/a	0	0	0
3182.128	n/a	WORD	1591064	wordpools/wasnorm_wordpool_576.txt	LTP322	ltpFR2	9	15	TUBA	1515	n/a	n/a	0	0	0
3184.78	n/a	WORD	1592390	wordpools/wasnorm_wordpool_576.txt	LTP322	ltpFR2	9	15	BOUQUET	157	n/a	n/a	0	0	0
3187.288	n/a	WORD	1593644	wordpools/wasnorm_wordpool_576.txt	LTP322	ltpFR2	9	15	BEAVER	109	n/a	n/a	0	0	0
3189.788	n/a	WORD	1594894	wordpools/wasnorm_wordpool_576.txt	LTP322	ltpFR2	9	15	LEOPARD	812	n/a	n/a	0	0	0
3192.336	n/a	WORD	1596168	wordpools/wasnorm_wordpool_576.txt	LTP322	ltpFR2	9	15	KETCHUP	771	n/a	n/a	0	0	0
3194.96	n/a	WORD	1597480	wordpools/wasnorm_wordpool_576.txt	LTP322	ltpFR2	9	15	HOOK	715	n/a	n/a	0	0	0
3197.642	n/a	WORD	1598821	wordpools/wasnorm_wordpool_576.txt	LTP322	ltpFR2	9	15	CRUTCH	417	n/a	n/a	0	0	0
3200.16	n/a	WORD	1600080	wordpools/wasnorm_wordpool_576.txt	LTP322	ltpFR2	9	15	RIVER	1194	n/a	n/a	0	0	0
3202.796	n/a	WORD	1601398	wordpools/wasnorm_wordpool_576.txt	LTP322	ltpFR2	9	15	CRAB	397	n/a	n/a	0	0	0
3204.402	n/a	START	1602201	n/a	LTP322	ltpFR2	9	n/a	n/a	n/a	23	n/a	n/a	n/a	n/a
3205.236	n/a	DISTRACTOR	1602618	n/a	LTP322	ltpFR2	9	15	n/a	n/a	n/a	n/a	0	0	0
3205.248	n/a	PROB	1602624	n/a	LTP322	ltpFR2	9	n/a	n/a	n/a	23	19	9	8	2
3207.202	n/a	PROB	1603601	n/a	LTP322	ltpFR2	9	n/a	n/a	n/a	23	9	3	5	1
3208.752	n/a	PROB	1604376	n/a	LTP322	ltpFR2	9	n/a	n/a	n/a	23	19	7	8	4
3210.652	n/a	PROB	1605326	n/a	LTP322	ltpFR2	9	n/a	n/a	n/a	23	16	7	2	7
3212.654	n/a	PROB	1606327	n/a	LTP322	ltpFR2	9	n/a	n/a	n/a	23	13	6	2	5
3214.756	n/a	PROB	1607378	n/a	LTP322	ltpFR2	9	n/a	n/a	n/a	23	20	7	7	6
3217.876	n/a	PROB	1608938	n/a	LTP322	ltpFR2	9	n/a	n/a	n/a	23	23	5	9	9
3219.944	n/a	PROB	1609972	n/a	LTP322	ltpFR2	9	n/a	n/a	n/a	23	16	1	8	7
3221.426	n/a	PROB	1610713	n/a	LTP322	ltpFR2	9	n/a	n/a	n/a	23	19	5	9	5
3223.314	n/a	PROB	1611657	n/a	LTP322	ltpFR2	9	n/a	n/a	n/a	23	13	3	7	3
3224.982	n/a	PROB	1612491	n/a	LTP322	ltpFR2	9	n/a	n/a	n/a	23	14	6	1	7
3227.954	n/a	STOP	1613977	n/a	LTP322	ltpFR2	9	n/a	n/a	n/a	23	n/a	n/a	n/a	n/a
3230.238	n/a	REC_START	1615119	n/a	LTP322	ltpFR2	9	15	n/a	n/a	n/a	n/a	0	0	0
3232.742	n/a	REC_WORD	1616371	wordpools/wasnorm_wordpool_576.txt	LTP322	ltpFR2	9	15	LOVER	846	n/a	n/a	0	0	0
3234.124	n/a	REC_WORD	1617062	wordpools/wasnorm_wordpool_576.txt	LTP322	ltpFR2	9	15	ROBBER	1197	n/a	n/a	0	0	0
3235.522	n/a	REC_WORD	1617761	wordpools/wasnorm_wordpool_576.txt	LTP322	ltpFR2	9	15	SHARK	1275	n/a	n/a	0	0	0
3237.238	n/a	REC_WORD	1618619	wordpools/wasnorm_wordpool_576.txt	LTP322	ltpFR2	9	15	SLUG	1329	n/a	n/a	0	0	0
3238.942	n/a	REC_WORD	1619471	wordpools/wasnorm_wordpool_576.txt	LTP322	ltpFR2	9	15	BUG	187	n/a	n/a	0	0	0
3240.702	n/a	REC_WORD	1620351	wordpools/wasnorm_wordpool_576.txt	LTP322	ltpFR2	9	15	HOOD	714	n/a	n/a	0	0	0
3242.512	n/a	REC_WORD	1621256	wordpools/wasnorm_wordpool_576.txt	LTP322	ltpFR2	9	15	TAXI	1438	n/a	n/a	0	0	0
3295.492	n/a	REC_WORD	1647746	wordpools/wasnorm_wordpool_576.txt	LTP322	ltpFR2	9	15	CRAB	397	n/a	n/a	0	0	0
3338.838	n/a	WORD	1669419	wordpools/wasnorm_wordpool_576.txt	LTP322	ltpFR2	9	16	POLICE	1098	n/a	n/a	0	0	0
3341.63	n/a	WORD	1670815	wordpools/wasnorm_wordpool_576.txt	LTP322	ltpFR2	9	16	THREAD	1460	n/a	n/a	0	0	0
3344.276	n/a	WORD	1672138	wordpools/wasnorm_wordpool_576.txt	LTP322	ltpFR2	9	16	ONION	977	n/a	n/a	0	0	0
3347.046	n/a	WORD	1673523	wordpools/wasnorm_wordpool_576.txt	LTP322	ltpFR2	9	16	ACTOR	5	n/a	n/a	0	0	0
3349.73	n/a	WORD	1674865	wordpools/wasnorm_wordpool_576.txt	LTP322	ltpFR2	9	16	QUARTER	1148	n/a	n/a	0	0	0
3352.466	n/a	WORD	1676233	wordpools/wasnorm_wordpool_576.txt	LTP322	ltpFR2	9	16	CREVICE	405	n/a	n/a	0	0	0
3355.202	n/a	WORD	1677601	wordpools/wasnorm_wordpool_576.txt	LTP322	ltpFR2	9	16	PEBBLE	1035	n/a	n/a	0	0	0
3357.644	n/a	WORD	1678822	wordpools/wasnorm_wordpool_576.txt	LTP322	ltpFR2	9	16	LAKE	796	n/a	n/a	0	0	0
3360.112	n/a	WORD	1680056	wordpools/wasnorm_wordpool_576.txt	LTP322	ltpFR2	9	16	ROBIN	1199	n/a	n/a	0	0	0
3362.624	n/a	WORD	1681312	wordpools/wasnorm_wordpool_576.txt	LTP322	ltpFR2	9	16	SPOOL	1356	n/a	n/a	0	0	0
3365.176	n/a	WORD	1682588	wordpools/wasnorm_wordpool_576.txt	LTP322	ltpFR2	9	16	PIGEON	1065	n/a	n/a	0	0	0
3367.994	n/a	WORD	1683997	wordpools/wasnorm_wordpool_576.txt	LTP322	ltpFR2	9	16	PRINCESS	1125	n/a	n/a	0	0	0
3370.662	n/a	WORD	1685331	wordpools/wasnorm_wordpool_576.txt	LTP322	ltpFR2	9	16	PIMPLE	1071	n/a	n/a	0	0	0
3373.382	n/a	WORD	1686691	wordpools/wasnorm_wordpool_576.txt	LTP322	ltpFR2	9	16	CABBAGE	210	n/a	n/a	0	0	0
3375.992	n/a	WORD	1687996	wordpools/wasnorm_wordpool_576.txt	LTP322	ltpFR2	9	16	TURNIP	1521	n/a	n/a	0	0	0
3378.71	n/a	WORD	1689355	wordpools/wasnorm_wordpool_576.txt	LTP322	ltpFR2	9	16	GUITAR	670	n/a	n/a	0	0	0
3381.496	n/a	WORD	1690748	wordpools/wasnorm_wordpool_576.txt	LTP322	ltpFR2	9	16	HARP	689	n/a	n/a	0	0	0
3383.924	n/a	WORD	1691962	wordpools/wasnorm_wordpool_576.txt	LTP322	ltpFR2	9	16	CUSTARD	429	n/a	n/a	0	0	0
3386.452	n/a	WORD	1693226	wordpools/wasnorm_wordpool_576.txt	LTP322	ltpFR2	9	16	ROOSTER	1209	n/a	n/a	0	0	0
3389.02	n/a	WORD	1694510	wordpools/wasnorm_wordpool_576.txt	LTP322	ltpFR2	9	16	ULCER	1533	n/a	n/a	0	0	0
3391.672	n/a	WORD	1695836	wordpools/wasnorm_wordpool_576.txt	LTP322	ltpFR2	9	16	BANQUET	86	n/a	n/a	0	0	0
3394.15	n/a	WORD	1697075	wordpools/wasnorm_wordpool_576.txt	LTP322	ltpFR2	9	16	PEACH	1031	n/a	n/a	0	0	0
3396.71	n/a	WORD	1698355	wordpools/wasnorm_wordpool_576.txt	LTP322	ltpFR2	9	16	SLIDE	1326	n/a	n/a	0	0	0
3399.404	n/a	WORD	1699702	wordpools/wasnorm_wordpool_576.txt	LTP322	ltpFR2	9	16	CROWN	415	n/a	n/a	0	0	0
3401.014	n/a	START	1700507	n/a	LTP322	ltpFR2	9	n/a	n/a	n/a	24	n/a	n/a	n/a	n/a
3401.95	n/a	DISTRACTOR	1700975	n/a	LTP322	ltpFR2	9	16	n/a	n/a	n/a	n/a	0	0	0
3401.956	n/a	PROB	1700978	n/a	LTP322	ltpFR2	9	n/a	n/a	n/a	24	16	7	4	5
3403.824	n/a	PROB	1701912	n/a	LTP322	ltpFR2	9	n/a	n/a	n/a	24	16	4	4	6
3406.09	n/a	PROB	1703045	n/a	LTP322	ltpFR2	9	n/a	n/a	n/a	24	15	5	9	1
3408.158	n/a	PROB	1704079	n/a	LTP322	ltpFR2	9	n/a	n/a	n/a	24	13	6	6	1
3410.328	n/a	PROB	1705164	n/a	LTP322	ltpFR2	9	n/a	n/a	n/a	24	13	4	3	6
3412.462	n/a	PROB	1706231	n/a	LTP322	ltpFR2	9	n/a	n/a	n/a	24	14	4	1	9
3414.13	n/a	PROB	1707065	n/a	LTP322	ltpFR2	9	n/a	n/a	n/a	24	14	5	5	4
3415.482	n/a	PROB	1707741	n/a	LTP322	ltpFR2	9	n/a	n/a	n/a	24	17	8	6	3
3417.268	n/a	PROB	1708634	n/a	LTP322	ltpFR2	9	n/a	n/a	n/a	24	11	2	8	1
3418.534	n/a	PROB	1709267	n/a	LTP322	ltpFR2	9	n/a	n/a	n/a	24	14	7	2	5
3421.736	n/a	PROB	1710868	n/a	LTP322	ltpFR2	9	n/a	n/a	n/a	24	24	7	8	9
3424.622	n/a	STOP	1712311	n/a	LTP322	ltpFR2	9	n/a	n/a	n/a	24	n/a	n/a	n/a	n/a
3426.906	n/a	REC_START	1713453	n/a	LTP322	ltpFR2	9	16	n/a	n/a	n/a	n/a	0	0	0
3429.102	n/a	REC_WORD	1714551	wordpools/wasnorm_wordpool_576.txt	LTP322	ltpFR2	9	16	ROBIN	1199	n/a	n/a	0	0	0
3430.82	n/a	REC_WORD	1715410	wordpools/wasnorm_wordpool_576.txt	LTP322	ltpFR2	9	16	POLICE	1098	n/a	n/a	0	0	0
3432.694	n/a	REC_WORD	1716347	wordpools/wasnorm_wordpool_576.txt	LTP322	ltpFR2	9	16	THREAD	1460	n/a	n/a	0	0	0
3434.884	n/a	REC_WORD	1717442	wordpools/wasnorm_wordpool_576.txt	LTP322	ltpFR2	9	16	SPOOL	1356	n/a	n/a	0	0	0
3438.648	n/a	REC_WORD	1719324	wordpools/wasnorm_wordpool_576.txt	LTP322	ltpFR2	9	16	ONION	977	n/a	n/a	0	0	0
3440.736	n/a	REC_WORD	1720368	wordpools/wasnorm_wordpool_576.txt	LTP322	ltpFR2	9	16	ACTOR	5	n/a	n/a	0	0	0
3443.088	n/a	REC_WORD	1721544	wordpools/wasnorm_wordpool_576.txt	LTP322	ltpFR2	9	16	QUARTER	1148	n/a	n/a	0	0	0
3445.576	n/a	REC_WORD	1722788	wordpools/wasnorm_wordpool_576.txt	LTP322	ltpFR2	9	16	CREVICE	405	n/a	n/a	0	0	0
3448.018	n/a	REC_WORD	1724009	wordpools/wasnorm_wordpool_576.txt	LTP322	ltpFR2	9	16	PIGEON	1065	n/a	n/a	0	0	0
3451.64	n/a	REC_WORD	1725820	wordpools/wasnorm_wordpool_576.txt	LTP322	ltpFR2	9	16	PRINCESS	1125	n/a	n/a	0	0	0
3453.554	n/a	REC_WORD	1726777	wordpools/wasnorm_wordpool_576.txt	LTP322	ltpFR2	9	16	PEACH	1031	n/a	n/a	0	0	0
3455.272	n/a	REC_WORD	1727636	wordpools/wasnorm_wordpool_576.txt	LTP322	ltpFR2	9	16	PIMPLE	1071	n/a	n/a	0	0	0
3456.97	n/a	REC_WORD	1728485	wordpools/wasnorm_wordpool_576.txt	LTP322	ltpFR2	9	16	CABBAGE	210	n/a	n/a	0	0	0
3458.878	n/a	REC_WORD	1729439	wordpools/wasnorm_wordpool_576.txt	LTP322	ltpFR2	9	16	TURNIP	1521	n/a	n/a	0	0	0
3480.832	n/a	REC_WORD	1740416	wordpools/wasnorm_wordpool_576.txt	LTP322	ltpFR2	9	16	HARP	689	n/a	n/a	0	0	0
3482.538	n/a	REC_WORD	1741269	wordpools/wasnorm_wordpool_576.txt	LTP322	ltpFR2	9	16	GUITAR	670	n/a	n/a	0	0	0
3489.908	n/a	REC_WORD	1744954	wordpools/wasnorm_wordpool_576.txt	LTP322	ltpFR2	9	16	CUSTARD	429	n/a	n/a	0	0	0
3503.45	n/a	REST_REWET	1751725	n/a	LTP322	ltpFR2	9	16	n/a	n/a	n/a	n/a	0	0	0
3730.344	n/a	DISTRACTOR	1865172	n/a	LTP322	ltpFR2	9	17	n/a	n/a	n/a	n/a	0	0	0
3730.344	n/a	START	1865172	n/a	LTP322	ltpFR2	9	n/a	n/a	n/a	25	n/a	n/a	n/a	n/a
3730.36	n/a	PROB	1865180	n/a	LTP322	ltpFR2	9	n/a	n/a	n/a	25	23	7	9	7
3732.478	n/a	PROB	1866239	n/a	LTP322	ltpFR2	9	n/a	n/a	n/a	25	174	9	4	4
3735.33	n/a	PROB	1867665	n/a	LTP322	ltpFR2	9	n/a	n/a	n/a	25	24	8	8	8
3737.482	n/a	PROB	1868741	n/a	LTP322	ltpFR2	9	n/a	n/a	n/a	25	10	2	3	5
3739.586	n/a	PROB	1869793	n/a	LTP322	ltpFR2	9	n/a	n/a	n/a	25	16	3	4	9
3741.252	n/a	PROB	1870626	n/a	LTP322	ltpFR2	9	n/a	n/a	n/a	25	11	2	5	4
3742.77	n/a	PROB	1871385	n/a	LTP322	ltpFR2	9	n/a	n/a	n/a	25	15	7	4	4
3744.838	n/a	PROB	1872419	n/a	LTP322	ltpFR2	9	n/a	n/a	n/a	25	9	4	2	3
3749.758	n/a	PROB	1874879	n/a	LTP322	ltpFR2	9	n/a	n/a	n/a	25	15	6	4	5
3751.092	n/a	PROB	1875546	n/a	LTP322	ltpFR2	9	n/a	n/a	n/a	25	17	6	6	5
3752.594	n/a	PROB	1876297	n/a	LTP322	ltpFR2	9	n/a	n/a	n/a	25	16	4	9	3
3754.098	n/a	STOP	1877049	n/a	LTP322	ltpFR2	9	n/a	n/a	n/a	25	n/a	n/a	n/a	n/a
3755.462	n/a	WORD	1877731	wordpools/wasnorm_wordpool_576.txt	LTP322	ltpFR2	9	17	BRICK	172	n/a	n/a	0	0	0
3758.282	n/a	WORD	1879141	wordpools/wasnorm_wordpool_576.txt	LTP322	ltpFR2	9	17	SPIDER	1351	n/a	n/a	0	0	0
3760.85	n/a	WORD	1880425	wordpools/wasnorm_wordpool_576.txt	LTP322	ltpFR2	9	17	WHISTLE	1606	n/a	n/a	0	0	0
3763.62	n/a	WORD	1881810	wordpools/wasnorm_wordpool_576.txt	LTP322	ltpFR2	9	17	ARMY	39	n/a	n/a	0	0	0
3766.44	n/a	WORD	1883220	wordpools/wasnorm_wordpool_576.txt	LTP322	ltpFR2	9	17	DRINK	498	n/a	n/a	0	0	0
3769.058	n/a	WORD	1884529	wordpools/wasnorm_wordpool_576.txt	LTP322	ltpFR2	9	17	VICTIM	1562	n/a	n/a	0	0	0
3771.51	n/a	WORD	1885755	wordpools/wasnorm_wordpool_576.txt	LTP322	ltpFR2	9	17	BLOUSE	139	n/a	n/a	0	0	0
3774.162	n/a	WORD	1887081	wordpools/wasnorm_wordpool_576.txt	LTP322	ltpFR2	9	17	TERMITE	1451	n/a	n/a	0	0	0
3776.88	n/a	WORD	1888440	wordpools/wasnorm_wordpool_576.txt	LTP322	ltpFR2	9	17	CRICKET	408	n/a	n/a	0	0	0
3779.698	n/a	WORD	1889849	wordpools/wasnorm_wordpool_576.txt	LTP322	ltpFR2	9	17	SALAD	1224	n/a	n/a	0	0	0
3782.202	n/a	WORD	1891101	wordpools/wasnorm_wordpool_576.txt	LTP322	ltpFR2	9	17	LEADER	807	n/a	n/a	0	0	0
3784.804	n/a	WORD	1892402	wordpools/wasnorm_wordpool_576.txt	LTP322	ltpFR2	9	17	BANK	83	n/a	n/a	0	0	0
3787.422	n/a	WORD	1893711	wordpools/wasnorm_wordpool_576.txt	LTP322	ltpFR2	9	17	PIANO	1057	n/a	n/a	0	0	0
3790.144	n/a	WORD	1895072	wordpools/wasnorm_wordpool_576.txt	LTP322	ltpFR2	9	17	SALMON	1227	n/a	n/a	0	0	0
3792.676	n/a	WORD	1896338	wordpools/wasnorm_wordpool_576.txt	LTP322	ltpFR2	9	17	ZIPPER	1636	n/a	n/a	0	0	0
3795.178	n/a	WORD	1897589	wordpools/wasnorm_wordpool_576.txt	LTP322	ltpFR2	9	17	YARN	1631	n/a	n/a	0	0	0
3797.996	n/a	WORD	1898998	wordpools/wasnorm_wordpool_576.txt	LTP322	ltpFR2	9	17	BURGLAR	200	n/a	n/a	0	0	0
3800.664	n/a	WORD	1900332	wordpools/wasnorm_wordpool_576.txt	LTP322	ltpFR2	9	17	CONVICT	371	n/a	n/a	0	0	0
3803.25	n/a	WORD	1901625	wordpools/wasnorm_wordpool_576.txt	LTP322	ltpFR2	9	17	CHIPMUNK	304	n/a	n/a	0	0	0
3805.824	n/a	WORD	1902912	wordpools/wasnorm_wordpool_576.txt	LTP322	ltpFR2	9	17	FOX	598	n/a	n/a	0	0	0
3808.61	n/a	WORD	1904305	wordpools/wasnorm_wordpool_576.txt	LTP322	ltpFR2	9	17	CATTLE	261	n/a	n/a	0	0	0
3811.174	n/a	WORD	1905587	wordpools/wasnorm_wordpool_576.txt	LTP322	ltpFR2	9	17	SANDWICH	1232	n/a	n/a	0	0	0
3813.626	n/a	WORD	1906813	wordpools/wasnorm_wordpool_576.txt	LTP322	ltpFR2	9	17	TROUT	1511	n/a	n/a	0	0	0
3816.244	n/a	WORD	1908122	wordpools/wasnorm_wordpool_576.txt	LTP322	ltpFR2	9	17	WORKER	1621	n/a	n/a	0	0	0
3817.852	n/a	START	1908926	n/a	LTP322	ltpFR2	9	n/a	n/a	n/a	26	n/a	n/a	n/a	n/a
3818.888	n/a	DISTRACTOR	1909444	n/a	LTP322	ltpFR2	9	17	n/a	n/a	n/a	n/a	0	0	0
3818.896	n/a	PROB	1909448	n/a	LTP322	ltpFR2	9	n/a	n/a	n/a	26	9	3	3	3
3820.264	n/a	PROB	1910132	n/a	LTP322	ltpFR2	9	n/a	n/a	n/a	26	18	8	5	5
3822.032	n/a	PROB	1911016	n/a	LTP322	ltpFR2	9	n/a	n/a	n/a	26	23	9	8	6
3824.066	n/a	PROB	1912033	n/a	LTP322	ltpFR2	9	n/a	n/a	n/a	26	17	7	8	2
3826.684	n/a	PROB	1913342	n/a	LTP322	ltpFR2	9	n/a	n/a	n/a	26	17	6	8	3
3828.37	n/a	PROB	1914185	n/a	LTP322	ltpFR2	9	n/a	n/a	n/a	26	14	9	1	4
3829.654	n/a	PROB	1914827	n/a	LTP322	ltpFR2	9	n/a	n/a	n/a	26	15	1	8	6
3831.524	n/a	PROB	1915762	n/a	LTP322	ltpFR2	9	n/a	n/a	n/a	26	16	7	5	4
3833.574	n/a	PROB	1916787	n/a	LTP322	ltpFR2	9	n/a	n/a	n/a	26	17	3	7	7
3836.244	n/a	PROB	1918122	n/a	LTP322	ltpFR2	9	n/a	n/a	n/a	26	13	3	2	8
3838.13	n/a	PROB	1919065	n/a	LTP322	ltpFR2	9	n/a	n/a	n/a	26	20	8	4	8
3841.012	n/a	STOP	1920506	n/a	LTP322	ltpFR2	9	n/a	n/a	n/a	26	n/a	n/a	n/a	n/a
3843.68	n/a	REC_START	1921840	n/a	LTP322	ltpFR2	9	17	n/a	n/a	n/a	n/a	0	0	0
3844.682	n/a	REC_WORD	1922341	wordpools/wasnorm_wordpool_576.txt	LTP322	ltpFR2	9	17	TROUT	1511	n/a	n/a	0	0	0
3845.682	n/a	REC_WORD_VV	1922841	wordpools/wasnorm_wordpool_576.txt	LTP322	ltpFR2	9	17	<>	-1	n/a	n/a	0	0	0
3846.302	n/a	REC_WORD	1923151	wordpools/wasnorm_wordpool_576.txt	LTP322	ltpFR2	9	17	SANDWICH	1232	n/a	n/a	0	0	0
3849.184	n/a	REC_WORD	1924592	wordpools/wasnorm_wordpool_576.txt	LTP322	ltpFR2	9	17	CATTLE	261	n/a	n/a	0	0	0
3850.14	n/a	REC_WORD	1925070	wordpools/wasnorm_wordpool_576.txt	LTP322	ltpFR2	9	17	FOX	598	n/a	n/a	0	0	0
3851.398	n/a	REC_WORD	1925699	wordpools/wasnorm_wordpool_576.txt	LTP322	ltpFR2	9	17	CHIPMUNK	304	n/a	n/a	0	0	0
3858.138	n/a	REC_WORD	1929069	wordpools/wasnorm_wordpool_576.txt	LTP322	ltpFR2	9	17	BRICK	172	n/a	n/a	0	0	0
3860.926	n/a	REC_WORD	1930463	wordpools/wasnorm_wordpool_576.txt	LTP322	ltpFR2	9	17	SPIDER	1351	n/a	n/a	0	0	0
3867.302	n/a	REC_WORD	1933651	wordpools/wasnorm_wordpool_576.txt	LTP322	ltpFR2	9	17	TERMITE	1451	n/a	n/a	0	0	0
3868.1	n/a	REC_WORD	1934050	wordpools/wasnorm_wordpool_576.txt	LTP322	ltpFR2	9	17	CRICKET	408	n/a	n/a	0	0	0
