mstime	trial_type	stim_file	subject	experiment	session	trial	task	item_name	item_num	recog_resp	recog_conf	resp	color_r	color_g	color_b	case	font
0	SESS_START	n/a	LTP225	ltpFR	1	n/a	n/a	n/a	n/a	0	1	n/a	n/a	n/a	n/a	n/a	n/a
153149	WORD	wordpools/wasnorm_wordpool_less_exclusions.txt	LTP225	ltpFR	1	1	1	OCTOPUS	971	1	3	1	0.57763671875	0.412841796875	1	upper	amplitud.ttf
157091	WORD	wordpools/wasnorm_wordpool_less_exclusions.txt	LTP225	ltpFR	1	1	1	SPIDER	1351	1	n/a	1	0.57763671875	0.412841796875	1	upper	amplitud.ttf
161230	WORD	wordpools/wasnorm_wordpool_less_exclusions.txt	LTP225	ltpFR	1	1	0	BLADE	134	n/a	n/a	1	0.422607421875	0.5869140625	0	lower	zerothre.ttf
165178	WORD	wordpools/wasnorm_wordpool_less_exclusions.txt	LTP225	ltpFR	1	1	0	RACK	1154	n/a	n/a	1	0.422607421875	0.5869140625	0	lower	zerothre.ttf
169270	WORD	wordpools/wasnorm_wordpool_less_exclusions.txt	LTP225	ltpFR	1	1	0	BUTTON	207	n/a	n/a	0	0.422607421875	0.5869140625	0	lower	zerothre.ttf
173108	WORD	wordpools/wasnorm_wordpool_less_exclusions.txt	LTP225	ltpFR	1	1	0	COLLAR	345	n/a	n/a	0	0.422607421875	0.5869140625	0	lower	zerothre.ttf
176938	WORD	wordpools/wasnorm_wordpool_less_exclusions.txt	LTP225	ltpFR	1	1	1	CROOK	412	n/a	n/a	1	0.57763671875	0.412841796875	1	upper	amplitud.ttf
180987	WORD	wordpools/wasnorm_wordpool_less_exclusions.txt	LTP225	ltpFR	1	1	1	GLOBE	641	n/a	n/a	0	0.57763671875	0.412841796875	1	upper	amplitud.ttf
185052	WORD	wordpools/wasnorm_wordpool_less_exclusions.txt	LTP225	ltpFR	1	1	1	VAN	1548	n/a	n/a	0	0.57763671875	0.412841796875	1	upper	amplitud.ttf
188983	WORD	wordpools/wasnorm_wordpool_less_exclusions.txt	LTP225	ltpFR	1	1	1	SHOELACE	1289	n/a	n/a	0	0.57763671875	0.412841796875	1	upper	amplitud.ttf
192824	WORD	wordpools/wasnorm_wordpool_less_exclusions.txt	LTP225	ltpFR	1	1	0	FUGITIVE	612	n/a	n/a	1	0.422607421875	0.5869140625	0	lower	zerothre.ttf
196956	WORD	wordpools/wasnorm_wordpool_less_exclusions.txt	LTP225	ltpFR	1	1	0	LIMOUSINE	824	n/a	n/a	1	0.422607421875	0.5869140625	0	lower	zerothre.ttf
200995	WORD	wordpools/wasnorm_wordpool_less_exclusions.txt	LTP225	ltpFR	1	1	0	STAFF	1365	n/a	n/a	1	0.422607421875	0.5869140625	0	lower	zerothre.ttf
204960	WORD	wordpools/wasnorm_wordpool_less_exclusions.txt	LTP225	ltpFR	1	1	0	SOCIETY	1338	n/a	n/a	1	0.422607421875	0.5869140625	0	lower	zerothre.ttf
208835	WORD	wordpools/wasnorm_wordpool_less_exclusions.txt	LTP225	ltpFR	1	1	1	ZOO	1637	n/a	n/a	0	0.57763671875	0.412841796875	1	upper	amplitud.ttf
212840	WORD	wordpools/wasnorm_wordpool_less_exclusions.txt	LTP225	ltpFR	1	1	1	FORK	594	n/a	n/a	0	0.57763671875	0.412841796875	1	upper	amplitud.ttf
218480	REC_START	n/a	LTP225	ltpFR	1	1	n/a	n/a	n/a	n/a	n/a	n/a	n/a	n/a	n/a	n/a	n/a
223758	REC_WORD_VV	wordpools/wasnorm_wordpool_less_exclusions.txt	LTP225	ltpFR	1	1	n/a	<>	-1	n/a	n/a	n/a	n/a	n/a	n/a	n/a	n/a
224746	REC_WORD_VV	wordpools/wasnorm_wordpool_less_exclusions.txt	LTP225	ltpFR	1	1	n/a	<>	-1	n/a	n/a	n/a	n/a	n/a	n/a	n/a	n/a
227046	REC_WORD_VV	wordpools/wasnorm_wordpool_less_exclusions.txt	LTP225	ltpFR	1	1	n/a	<>	-1	n/a	n/a	n/a	n/a	n/a	n/a	n/a	n/a
228238	REC_WORD	wordpools/wasnorm_wordpool_less_exclusions.txt	LTP225	ltpFR	1	1	1	FORK	594	n/a	n/a	0	n/a	n/a	n/a	n/a	n/a
229545	REC_WORD	wordpools/wasnorm_wordpool_less_exclusions.txt	LTP225	ltpFR	1	1	1	ZOO	1637	n/a	n/a	0	n/a	n/a	n/a	n/a	n/a
230527	REC_WORD	wordpools/wasnorm_wordpool_less_exclusions.txt	LTP225	ltpFR	1	1	0	SOCIETY	1338	n/a	n/a	1	n/a	n/a	n/a	n/a	n/a
231760	REC_WORD	wordpools/wasnorm_wordpool_less_exclusions.txt	LTP225	ltpFR	1	1	n/a	COMMITTEE	355	n/a	n/a	n/a	n/a	n/a	n/a	n/a	n/a
236414	REC_WORD	wordpools/wasnorm_wordpool_less_exclusions.txt	LTP225	ltpFR	1	1	0	BLADE	134	n/a	n/a	1	n/a	n/a	n/a	n/a	n/a
243463	REC_WORD	wordpools/wasnorm_wordpool_less_exclusions.txt	LTP225	ltpFR	1	1	1	GLOBE	641	n/a	n/a	0	n/a	n/a	n/a	n/a	n/a
272088	REC_WORD_VV	wordpools/wasnorm_wordpool_less_exclusions.txt	LTP225	ltpFR	1	1	n/a	<>	-1	n/a	n/a	n/a	n/a	n/a	n/a	n/a	n/a
276603	REC_WORD	wordpools/wasnorm_wordpool_less_exclusions.txt	LTP225	ltpFR	1	1	n/a	NECKLACE	940	n/a	n/a	n/a	n/a	n/a	n/a	n/a	n/a
284315	REC_WORD	wordpools/wasnorm_wordpool_less_exclusions.txt	LTP225	ltpFR	1	1	0	STAFF	1365	n/a	n/a	1	n/a	n/a	n/a	n/a	n/a
285319	REC_WORD_VV	wordpools/wasnorm_wordpool_less_exclusions.txt	LTP225	ltpFR	1	1	n/a	<>	-1	n/a	n/a	n/a	n/a	n/a	n/a	n/a	n/a
290292	REC_WORD	wordpools/wasnorm_wordpool_less_exclusions.txt	LTP225	ltpFR	1	1	0	FUGITIVE	612	n/a	n/a	1	n/a	n/a	n/a	n/a	n/a
329707	WORD	wordpools/wasnorm_wordpool_less_exclusions.txt	LTP225	ltpFR	1	2	0	CORD	379	n/a	n/a	1	0.422607421875	0.5869140625	0	lower	zerothre.ttf
333679	WORD	wordpools/wasnorm_wordpool_less_exclusions.txt	LTP225	ltpFR	1	2	0	SPONGE	1355	n/a	n/a	0	0.422607421875	0.5869140625	0	lower	zerothre.ttf
337570	WORD	wordpools/wasnorm_wordpool_less_exclusions.txt	LTP225	ltpFR	1	2	0	TIDE	1465	n/a	n/a	1	0.422607421875	0.5869140625	0	lower	zerothre.ttf
341685	WORD	wordpools/wasnorm_wordpool_less_exclusions.txt	LTP225	ltpFR	1	2	0	COD	340	n/a	n/a	0	0.422607421875	0.5869140625	0	lower	zerothre.ttf
345818	WORD	wordpools/wasnorm_wordpool_less_exclusions.txt	LTP225	ltpFR	1	2	0	REGISTER	1180	n/a	n/a	1	0.422607421875	0.5869140625	0	lower	zerothre.ttf
349983	WORD	wordpools/wasnorm_wordpool_less_exclusions.txt	LTP225	ltpFR	1	2	0	BANKER	84	n/a	n/a	1	0.422607421875	0.5869140625	0	lower	zerothre.ttf
354200	WORD	wordpools/wasnorm_wordpool_less_exclusions.txt	LTP225	ltpFR	1	2	1	BARN	89	n/a	n/a	0	0.57763671875	0.412841796875	1	upper	amplitud.ttf
358416	WORD	wordpools/wasnorm_wordpool_less_exclusions.txt	LTP225	ltpFR	1	2	1	BELL	118	n/a	n/a	0	0.57763671875	0.412841796875	1	upper	amplitud.ttf
362264	WORD	wordpools/wasnorm_wordpool_less_exclusions.txt	LTP225	ltpFR	1	2	1	BARRACUDA	90	n/a	n/a	1	0.57763671875	0.412841796875	1	upper	amplitud.ttf
366269	WORD	wordpools/wasnorm_wordpool_less_exclusions.txt	LTP225	ltpFR	1	2	0	DRESS	495	n/a	n/a	0	0.422607421875	0.5869140625	0	lower	zerothre.ttf
370177	WORD	wordpools/wasnorm_wordpool_less_exclusions.txt	LTP225	ltpFR	1	2	0	VICTOR	1563	n/a	n/a	1	0.422607421875	0.5869140625	0	lower	zerothre.ttf
374333	WORD	wordpools/wasnorm_wordpool_less_exclusions.txt	LTP225	ltpFR	1	2	1	HAMMER	680	n/a	n/a	0	0.57763671875	0.412841796875	1	upper	amplitud.ttf
378365	WORD	wordpools/wasnorm_wordpool_less_exclusions.txt	LTP225	ltpFR	1	2	1	ARCHITECT	36	n/a	n/a	1	0.57763671875	0.412841796875	1	upper	amplitud.ttf
382513	WORD	wordpools/wasnorm_wordpool_less_exclusions.txt	LTP225	ltpFR	1	2	1	SHINGLE	1285	n/a	n/a	0	0.57763671875	0.412841796875	1	upper	amplitud.ttf
386562	WORD	wordpools/wasnorm_wordpool_less_exclusions.txt	LTP225	ltpFR	1	2	1	COLT	349	n/a	n/a	1	0.57763671875	0.412841796875	1	upper	amplitud.ttf
390444	WORD	wordpools/wasnorm_wordpool_less_exclusions.txt	LTP225	ltpFR	1	2	1	STORE	1387	n/a	n/a	0	0.57763671875	0.412841796875	1	upper	amplitud.ttf
396460	REC_START	n/a	LTP225	ltpFR	1	2	n/a	n/a	n/a	n/a	n/a	n/a	n/a	n/a	n/a	n/a	n/a
399144	REC_WORD	wordpools/wasnorm_wordpool_less_exclusions.txt	LTP225	ltpFR	1	2	1	COLT	349	n/a	n/a	1	n/a	n/a	n/a	n/a	n/a
401349	REC_WORD_VV	wordpools/wasnorm_wordpool_less_exclusions.txt	LTP225	ltpFR	1	2	n/a	<>	-1	n/a	n/a	n/a	n/a	n/a	n/a	n/a	n/a
401917	REC_WORD	wordpools/wasnorm_wordpool_less_exclusions.txt	LTP225	ltpFR	1	2	1	STORE	1387	n/a	n/a	0	n/a	n/a	n/a	n/a	n/a
402945	REC_WORD	wordpools/wasnorm_wordpool_less_exclusions.txt	LTP225	ltpFR	1	2	0	COD	340	n/a	n/a	0	n/a	n/a	n/a	n/a	n/a
406856	REC_WORD_VV	wordpools/wasnorm_wordpool_less_exclusions.txt	LTP225	ltpFR	1	2	n/a	<>	-1	n/a	n/a	n/a	n/a	n/a	n/a	n/a	n/a
407858	REC_WORD_VV	wordpools/wasnorm_wordpool_less_exclusions.txt	LTP225	ltpFR	1	2	n/a	<>	-1	n/a	n/a	n/a	n/a	n/a	n/a	n/a	n/a
420405	REC_WORD	wordpools/wasnorm_wordpool_less_exclusions.txt	LTP225	ltpFR	1	2	0	TIDE	1465	n/a	n/a	1	n/a	n/a	n/a	n/a	n/a
425758	REC_WORD_VV	wordpools/wasnorm_wordpool_less_exclusions.txt	LTP225	ltpFR	1	2	n/a	<>	-1	n/a	n/a	n/a	n/a	n/a	n/a	n/a	n/a
426756	REC_WORD_VV	wordpools/wasnorm_wordpool_less_exclusions.txt	LTP225	ltpFR	1	2	n/a	<>	-1	n/a	n/a	n/a	n/a	n/a	n/a	n/a	n/a
429894	REC_WORD	wordpools/wasnorm_wordpool_less_exclusions.txt	LTP225	ltpFR	1	2	0	FUGITIVE	612	n/a	n/a	1	n/a	n/a	n/a	n/a	n/a
430895	REC_WORD_VV	wordpools/wasnorm_wordpool_less_exclusions.txt	LTP225	ltpFR	1	2	n/a	<>	-1	n/a	n/a	n/a	n/a	n/a	n/a	n/a	n/a
441767	REC_WORD	wordpools/wasnorm_wordpool_less_exclusions.txt	LTP225	ltpFR	1	2	1	COLT	349	n/a	n/a	1	n/a	n/a	n/a	n/a	n/a
488613	WORD	wordpools/wasnorm_wordpool_less_exclusions.txt	LTP225	ltpFR	1	3	-1	VEGETABLE	1552	n/a	n/a	-1	1.0	1.0	1	upper	Verdana.ttf
492745	WORD	wordpools/wasnorm_wordpool_less_exclusions.txt	LTP225	ltpFR	1	3	-1	SKETCH	1315	n/a	n/a	-1	1.0	1.0	1	upper	Verdana.ttf
496653	WORD	wordpools/wasnorm_wordpool_less_exclusions.txt	LTP225	ltpFR	1	3	-1	SPINE	1353	n/a	n/a	-1	1.0	1.0	1	upper	Verdana.ttf
500792	WORD	wordpools/wasnorm_wordpool_less_exclusions.txt	LTP225	ltpFR	1	3	-1	DECK	443	n/a	n/a	-1	1.0	1.0	1	upper	Verdana.ttf
504657	WORD	wordpools/wasnorm_wordpool_less_exclusions.txt	LTP225	ltpFR	1	3	-1	TOMATO	1476	n/a	n/a	-1	1.0	1.0	1	upper	Verdana.ttf
508605	WORD	wordpools/wasnorm_wordpool_less_exclusions.txt	LTP225	ltpFR	1	3	-1	CAGE	218	n/a	n/a	-1	1.0	1.0	1	upper	Verdana.ttf
512737	WORD	wordpools/wasnorm_wordpool_less_exclusions.txt	LTP225	ltpFR	1	3	-1	MECHANIC	884	n/a	n/a	-1	1.0	1.0	1	upper	Verdana.ttf
516635	WORD	wordpools/wasnorm_wordpool_less_exclusions.txt	LTP225	ltpFR	1	3	-1	GREASE	660	n/a	n/a	-1	1.0	1.0	1	upper	Verdana.ttf
520600	WORD	wordpools/wasnorm_wordpool_less_exclusions.txt	LTP225	ltpFR	1	3	-1	SPY	1360	n/a	n/a	-1	1.0	1.0	1	upper	Verdana.ttf
524665	WORD	wordpools/wasnorm_wordpool_less_exclusions.txt	LTP225	ltpFR	1	3	-1	TAXI	1438	n/a	n/a	-1	1.0	1.0	1	upper	Verdana.ttf
528507	WORD	wordpools/wasnorm_wordpool_less_exclusions.txt	LTP225	ltpFR	1	3	-1	CAB	209	n/a	n/a	-1	1.0	1.0	1	upper	Verdana.ttf
532629	WORD	wordpools/wasnorm_wordpool_less_exclusions.txt	LTP225	ltpFR	1	3	-1	REPORT	1184	n/a	n/a	-1	1.0	1.0	1	upper	Verdana.ttf
536527	WORD	wordpools/wasnorm_wordpool_less_exclusions.txt	LTP225	ltpFR	1	3	-1	BULB	192	n/a	n/a	-1	1.0	1.0	1	upper	Verdana.ttf
540592	WORD	wordpools/wasnorm_wordpool_less_exclusions.txt	LTP225	ltpFR	1	3	-1	WHEEL	1603	n/a	n/a	-1	1.0	1.0	1	upper	Verdana.ttf
544540	WORD	wordpools/wasnorm_wordpool_less_exclusions.txt	LTP225	ltpFR	1	3	-1	MAGAZINE	853	n/a	n/a	-1	1.0	1.0	1	upper	Verdana.ttf
548749	WORD	wordpools/wasnorm_wordpool_less_exclusions.txt	LTP225	ltpFR	1	3	-1	LIBRARY	816	n/a	n/a	-1	1.0	1.0	1	upper	Verdana.ttf
554555	REC_START	n/a	LTP225	ltpFR	1	3	n/a	n/a	n/a	n/a	n/a	n/a	n/a	n/a	n/a	n/a	n/a
555885	REC_WORD	wordpools/wasnorm_wordpool_less_exclusions.txt	LTP225	ltpFR	1	3	-1	LIBRARY	816	n/a	n/a	-1	n/a	n/a	n/a	n/a	n/a
556520	REC_WORD	wordpools/wasnorm_wordpool_less_exclusions.txt	LTP225	ltpFR	1	3	-1	MAGAZINE	853	n/a	n/a	-1	n/a	n/a	n/a	n/a	n/a
559070	REC_WORD_VV	wordpools/wasnorm_wordpool_less_exclusions.txt	LTP225	ltpFR	1	3	n/a	<>	-1	n/a	n/a	n/a	n/a	n/a	n/a	n/a	n/a
560071	REC_WORD_VV	wordpools/wasnorm_wordpool_less_exclusions.txt	LTP225	ltpFR	1	3	n/a	<>	-1	n/a	n/a	n/a	n/a	n/a	n/a	n/a	n/a
561235	REC_WORD	wordpools/wasnorm_wordpool_less_exclusions.txt	LTP225	ltpFR	1	3	-1	GREASE	660	n/a	n/a	-1	n/a	n/a	n/a	n/a	n/a
561870	REC_WORD	wordpools/wasnorm_wordpool_less_exclusions.txt	LTP225	ltpFR	1	3	-1	MECHANIC	884	n/a	n/a	-1	n/a	n/a	n/a	n/a	n/a
563015	REC_WORD	wordpools/wasnorm_wordpool_less_exclusions.txt	LTP225	ltpFR	1	3	-1	WHEEL	1603	n/a	n/a	-1	n/a	n/a	n/a	n/a	n/a
572848	REC_WORD_VV	wordpools/wasnorm_wordpool_less_exclusions.txt	LTP225	ltpFR	1	3	n/a	<>	-1	n/a	n/a	n/a	n/a	n/a	n/a	n/a	n/a
573542	REC_WORD	wordpools/wasnorm_wordpool_less_exclusions.txt	LTP225	ltpFR	1	3	-1	LIBRARY	816	n/a	n/a	-1	n/a	n/a	n/a	n/a	n/a
574582	REC_WORD	wordpools/wasnorm_wordpool_less_exclusions.txt	LTP225	ltpFR	1	3	-1	MAGAZINE	853	n/a	n/a	-1	n/a	n/a	n/a	n/a	n/a
594758	REC_WORD	wordpools/wasnorm_wordpool_less_exclusions.txt	LTP225	ltpFR	1	3	1	COLT	349	n/a	n/a	1	n/a	n/a	n/a	n/a	n/a
614778	REC_WORD	wordpools/wasnorm_wordpool_less_exclusions.txt	LTP225	ltpFR	1	3	-1	CAB	209	n/a	n/a	-1	n/a	n/a	n/a	n/a	n/a
615821	REC_WORD	wordpools/wasnorm_wordpool_less_exclusions.txt	LTP225	ltpFR	1	3	-1	TAXI	1438	n/a	n/a	-1	n/a	n/a	n/a	n/a	n/a
619258	REC_WORD	wordpools/wasnorm_wordpool_less_exclusions.txt	LTP225	ltpFR	1	3	n/a	COB	334	n/a	n/a	n/a	n/a	n/a	n/a	n/a	n/a
669554	WORD	wordpools/wasnorm_wordpool_less_exclusions.txt	LTP225	ltpFR	1	4	1	STRING	1394	n/a	n/a	0	0.57763671875	0.412841796875	1	upper	amplitud.ttf
673494	WORD	wordpools/wasnorm_wordpool_less_exclusions.txt	LTP225	ltpFR	1	4	1	ROPE	1211	n/a	n/a	0	0.57763671875	0.412841796875	1	upper	amplitud.ttf
677335	WORD	wordpools/wasnorm_wordpool_less_exclusions.txt	LTP225	ltpFR	1	4	1	GLASS	639	n/a	n/a	0	0.57763671875	0.412841796875	1	upper	amplitud.ttf
681290	WORD	wordpools/wasnorm_wordpool_less_exclusions.txt	LTP225	ltpFR	1	4	1	JELLO	754	n/a	n/a	0	0.57763671875	0.412841796875	1	upper	amplitud.ttf
685238	WORD	wordpools/wasnorm_wordpool_less_exclusions.txt	LTP225	ltpFR	1	4	1	PEACH	1031	n/a	n/a	0	0.57763671875	0.412841796875	1	upper	amplitud.ttf
689380	WORD	wordpools/wasnorm_wordpool_less_exclusions.txt	LTP225	ltpFR	1	4	1	RADISH	1158	n/a	n/a	0	0.57763671875	0.412841796875	1	upper	amplitud.ttf
693552	WORD	wordpools/wasnorm_wordpool_less_exclusions.txt	LTP225	ltpFR	1	4	1	WINE	1613	n/a	n/a	0	0.57763671875	0.412841796875	1	upper	amplitud.ttf
697694	WORD	wordpools/wasnorm_wordpool_less_exclusions.txt	LTP225	ltpFR	1	4	1	PENGUIN	1044	n/a	n/a	1	0.57763671875	0.412841796875	1	upper	amplitud.ttf
701716	WORD	wordpools/wasnorm_wordpool_less_exclusions.txt	LTP225	ltpFR	1	4	1	KING	777	n/a	n/a	1	0.57763671875	0.412841796875	1	upper	amplitud.ttf
705731	WORD	wordpools/wasnorm_wordpool_less_exclusions.txt	LTP225	ltpFR	1	4	1	PAD	998	n/a	n/a	0	0.57763671875	0.412841796875	1	upper	amplitud.ttf
709555	WORD	wordpools/wasnorm_wordpool_less_exclusions.txt	LTP225	ltpFR	1	4	1	PENCIL	1042	n/a	n/a	0	0.57763671875	0.412841796875	1	upper	amplitud.ttf
713594	WORD	wordpools/wasnorm_wordpool_less_exclusions.txt	LTP225	ltpFR	1	4	1	MAILMAN	858	n/a	n/a	1	0.57763671875	0.412841796875	1	upper	amplitud.ttf
717426	WORD	wordpools/wasnorm_wordpool_less_exclusions.txt	LTP225	ltpFR	1	4	1	BIRD	129	n/a	n/a	1	0.57763671875	0.412841796875	1	upper	amplitud.ttf
721541	WORD	wordpools/wasnorm_wordpool_less_exclusions.txt	LTP225	ltpFR	1	4	1	DICTATOR	462	n/a	n/a	1	0.57763671875	0.412841796875	1	upper	amplitud.ttf
725666	WORD	wordpools/wasnorm_wordpool_less_exclusions.txt	LTP225	ltpFR	1	4	1	RING	1193	n/a	n/a	0	0.57763671875	0.412841796875	1	upper	amplitud.ttf
729855	WORD	wordpools/wasnorm_wordpool_less_exclusions.txt	LTP225	ltpFR	1	4	1	STICKER	1382	n/a	n/a	0	0.57763671875	0.412841796875	1	upper	amplitud.ttf
735570	REC_START	n/a	LTP225	ltpFR	1	4	n/a	n/a	n/a	n/a	n/a	n/a	n/a	n/a	n/a	n/a	n/a
738962	REC_WORD	wordpools/wasnorm_wordpool_less_exclusions.txt	LTP225	ltpFR	1	4	1	STICKER	1382	n/a	n/a	0	n/a	n/a	n/a	n/a	n/a
740084	REC_WORD	wordpools/wasnorm_wordpool_less_exclusions.txt	LTP225	ltpFR	1	4	1	RING	1193	n/a	n/a	0	n/a	n/a	n/a	n/a	n/a
743571	REC_WORD_VV	wordpools/wasnorm_wordpool_less_exclusions.txt	LTP225	ltpFR	1	4	n/a	<>	-1	n/a	n/a	n/a	n/a	n/a	n/a	n/a	n/a
744569	REC_WORD_VV	wordpools/wasnorm_wordpool_less_exclusions.txt	LTP225	ltpFR	1	4	n/a	<>	-1	n/a	n/a	n/a	n/a	n/a	n/a	n/a	n/a
752237	REC_WORD_VV	wordpools/wasnorm_wordpool_less_exclusions.txt	LTP225	ltpFR	1	4	n/a	<>	-1	n/a	n/a	n/a	n/a	n/a	n/a	n/a	n/a
753249	REC_WORD_VV	wordpools/wasnorm_wordpool_less_exclusions.txt	LTP225	ltpFR	1	4	n/a	<>	-1	n/a	n/a	n/a	n/a	n/a	n/a	n/a	n/a
754911	REC_WORD	wordpools/wasnorm_wordpool_less_exclusions.txt	LTP225	ltpFR	1	4	1	RADISH	1158	n/a	n/a	0	n/a	n/a	n/a	n/a	n/a
756253	REC_WORD	wordpools/wasnorm_wordpool_less_exclusions.txt	LTP225	ltpFR	1	4	1	PEACH	1031	n/a	n/a	0	n/a	n/a	n/a	n/a	n/a
757809	REC_WORD	wordpools/wasnorm_wordpool_less_exclusions.txt	LTP225	ltpFR	1	4	-1	VEGETABLE	1552	n/a	n/a	-1	n/a	n/a	n/a	n/a	n/a
766265	REC_WORD_VV	wordpools/wasnorm_wordpool_less_exclusions.txt	LTP225	ltpFR	1	4	n/a	<>	-1	n/a	n/a	n/a	n/a	n/a	n/a	n/a	n/a
769218	REC_WORD	wordpools/wasnorm_wordpool_less_exclusions.txt	LTP225	ltpFR	1	4	n/a	SCRIPT	-1	n/a	n/a	n/a	n/a	n/a	n/a	n/a	n/a
775639	REC_WORD	wordpools/wasnorm_wordpool_less_exclusions.txt	LTP225	ltpFR	1	4	1	RADISH	1158	n/a	n/a	0	n/a	n/a	n/a	n/a	n/a
776638	REC_WORD_VV	wordpools/wasnorm_wordpool_less_exclusions.txt	LTP225	ltpFR	1	4	n/a	<>	-1	n/a	n/a	n/a	n/a	n/a	n/a	n/a	n/a
776896	REC_WORD	wordpools/wasnorm_wordpool_less_exclusions.txt	LTP225	ltpFR	1	4	-1	TOMATO	1476	n/a	n/a	-1	n/a	n/a	n/a	n/a	n/a
824422	WORD	wordpools/wasnorm_wordpool_less_exclusions.txt	LTP225	ltpFR	1	5	0	DIRECTOR	471	n/a	n/a	1	0.422607421875	0.5869140625	0	lower	zerothre.ttf
828544	WORD	wordpools/wasnorm_wordpool_less_exclusions.txt	LTP225	ltpFR	1	5	0	HOME	712	n/a	n/a	1	0.422607421875	0.5869140625	0	lower	zerothre.ttf
832535	WORD	wordpools/wasnorm_wordpool_less_exclusions.txt	LTP225	ltpFR	1	5	0	HUT	729	n/a	n/a	1	0.422607421875	0.5869140625	0	lower	zerothre.ttf
836374	WORD	wordpools/wasnorm_wordpool_less_exclusions.txt	LTP225	ltpFR	1	5	0	COMMANDER	354	n/a	n/a	1	0.422607421875	0.5869140625	0	lower	zerothre.ttf
840490	WORD	wordpools/wasnorm_wordpool_less_exclusions.txt	LTP225	ltpFR	1	5	0	BUFFALO	186	n/a	n/a	1	0.422607421875	0.5869140625	0	lower	zerothre.ttf
844671	WORD	wordpools/wasnorm_wordpool_less_exclusions.txt	LTP225	ltpFR	1	5	0	LIZARD	834	n/a	n/a	1	0.422607421875	0.5869140625	0	lower	zerothre.ttf
848787	WORD	wordpools/wasnorm_wordpool_less_exclusions.txt	LTP225	ltpFR	1	5	0	SHORTS	1293	n/a	n/a	0	0.422607421875	0.5869140625	0	lower	zerothre.ttf
852886	WORD	wordpools/wasnorm_wordpool_less_exclusions.txt	LTP225	ltpFR	1	5	0	CANDY	230	n/a	n/a	0	0.422607421875	0.5869140625	0	lower	zerothre.ttf
856850	WORD	wordpools/wasnorm_wordpool_less_exclusions.txt	LTP225	ltpFR	1	5	0	DAM	436	n/a	n/a	1	0.422607421875	0.5869140625	0	lower	zerothre.ttf
860892	WORD	wordpools/wasnorm_wordpool_less_exclusions.txt	LTP225	ltpFR	1	5	0	ISLAND	745	n/a	n/a	1	0.422607421875	0.5869140625	0	lower	zerothre.ttf
864747	WORD	wordpools/wasnorm_wordpool_less_exclusions.txt	LTP225	ltpFR	1	5	0	HANDBAG	684	n/a	n/a	0	0.422607421875	0.5869140625	0	lower	zerothre.ttf
868872	WORD	wordpools/wasnorm_wordpool_less_exclusions.txt	LTP225	ltpFR	1	5	0	SALIVA	1226	n/a	n/a	0	0.422607421875	0.5869140625	0	lower	zerothre.ttf
873071	WORD	wordpools/wasnorm_wordpool_less_exclusions.txt	LTP225	ltpFR	1	5	0	MILITARY	894	n/a	n/a	1	0.422607421875	0.5869140625	0	lower	zerothre.ttf
877205	WORD	wordpools/wasnorm_wordpool_less_exclusions.txt	LTP225	ltpFR	1	5	0	CUFF	423	n/a	n/a	0	0.422607421875	0.5869140625	0	lower	zerothre.ttf
881160	WORD	wordpools/wasnorm_wordpool_less_exclusions.txt	LTP225	ltpFR	1	5	0	LIVER	833	n/a	n/a	0	0.422607421875	0.5869140625	0	lower	zerothre.ttf
885007	WORD	wordpools/wasnorm_wordpool_less_exclusions.txt	LTP225	ltpFR	1	5	0	RAFT	1159	n/a	n/a	1	0.422607421875	0.5869140625	0	lower	zerothre.ttf
890906	REC_START	n/a	LTP225	ltpFR	1	5	n/a	n/a	n/a	n/a	n/a	n/a	n/a	n/a	n/a	n/a	n/a
892477	REC_WORD	wordpools/wasnorm_wordpool_less_exclusions.txt	LTP225	ltpFR	1	5	0	RAFT	1159	n/a	n/a	1	n/a	n/a	n/a	n/a	n/a
893345	REC_WORD	wordpools/wasnorm_wordpool_less_exclusions.txt	LTP225	ltpFR	1	5	0	COMMANDER	354	n/a	n/a	1	n/a	n/a	n/a	n/a	n/a
896797	REC_WORD_VV	wordpools/wasnorm_wordpool_less_exclusions.txt	LTP225	ltpFR	1	5	n/a	<>	-1	n/a	n/a	n/a	n/a	n/a	n/a	n/a	n/a
897842	REC_WORD_VV	wordpools/wasnorm_wordpool_less_exclusions.txt	LTP225	ltpFR	1	5	n/a	<>	-1	n/a	n/a	n/a	n/a	n/a	n/a	n/a	n/a
898329	REC_WORD	wordpools/wasnorm_wordpool_less_exclusions.txt	LTP225	ltpFR	1	5	0	CUFF	423	n/a	n/a	0	n/a	n/a	n/a	n/a	n/a
903737	REC_WORD	wordpools/wasnorm_wordpool_less_exclusions.txt	LTP225	ltpFR	1	5	0	BUFFALO	186	n/a	n/a	1	n/a	n/a	n/a	n/a	n/a
906392	REC_WORD	wordpools/wasnorm_wordpool_less_exclusions.txt	LTP225	ltpFR	1	5	0	LIVER	833	n/a	n/a	0	n/a	n/a	n/a	n/a	n/a
913100	REC_WORD_VV	wordpools/wasnorm_wordpool_less_exclusions.txt	LTP225	ltpFR	1	5	n/a	<>	-1	n/a	n/a	n/a	n/a	n/a	n/a	n/a	n/a
914666	REC_WORD	wordpools/wasnorm_wordpool_less_exclusions.txt	LTP225	ltpFR	1	5	1	DICTATOR	462	n/a	n/a	1	n/a	n/a	n/a	n/a	n/a
921066	REC_WORD_VV	wordpools/wasnorm_wordpool_less_exclusions.txt	LTP225	ltpFR	1	5	n/a	<>	-1	n/a	n/a	n/a	n/a	n/a	n/a	n/a	n/a
926774	REC_WORD	wordpools/wasnorm_wordpool_less_exclusions.txt	LTP225	ltpFR	1	5	0	RAFT	1159	n/a	n/a	1	n/a	n/a	n/a	n/a	n/a
930311	REC_WORD	wordpools/wasnorm_wordpool_less_exclusions.txt	LTP225	ltpFR	1	5	0	HANDBAG	684	n/a	n/a	0	n/a	n/a	n/a	n/a	n/a
953064	REC_WORD	wordpools/wasnorm_wordpool_less_exclusions.txt	LTP225	ltpFR	1	5	0	MILITARY	894	n/a	n/a	1	n/a	n/a	n/a	n/a	n/a
956645	REC_WORD	wordpools/wasnorm_wordpool_less_exclusions.txt	LTP225	ltpFR	1	5	0	REGISTER	1180	n/a	n/a	1	n/a	n/a	n/a	n/a	n/a
962922	REC_WORD	wordpools/wasnorm_wordpool_less_exclusions.txt	LTP225	ltpFR	1	5	1	DICTATOR	462	n/a	n/a	1	n/a	n/a	n/a	n/a	n/a
977632	WORD	wordpools/wasnorm_wordpool_less_exclusions.txt	LTP225	ltpFR	1	6	0	ROOT	1210	n/a	n/a	n/a	0.422607421875	0.5869140625	0	lower	zerothre.ttf
980677	SLOW_MSG	n/a	LTP225	ltpFR	1	6	n/a	n/a	n/a	n/a	n/a	n/a	n/a	n/a	n/a	n/a	n/a
983362	WORD	wordpools/wasnorm_wordpool_less_exclusions.txt	LTP225	ltpFR	1	6	0	HIGHWAY	707	n/a	n/a	1	0.422607421875	0.5869140625	0	lower	zerothre.ttf
987477	WORD	wordpools/wasnorm_wordpool_less_exclusions.txt	LTP225	ltpFR	1	6	0	ROAD	1196	n/a	n/a	1	0.422607421875	0.5869140625	0	lower	zerothre.ttf
991642	WORD	wordpools/wasnorm_wordpool_less_exclusions.txt	LTP225	ltpFR	1	6	0	MAPLE	866	n/a	n/a	0	0.422607421875	0.5869140625	0	lower	zerothre.ttf
995674	WORD	wordpools/wasnorm_wordpool_less_exclusions.txt	LTP225	ltpFR	1	6	0	BOARD	143	n/a	n/a	1	0.422607421875	0.5869140625	0	lower	zerothre.ttf
999572	WORD	wordpools/wasnorm_wordpool_less_exclusions.txt	LTP225	ltpFR	1	6	0	BONE	148	n/a	n/a	0	0.422607421875	0.5869140625	0	lower	zerothre.ttf
1003670	WORD	wordpools/wasnorm_wordpool_less_exclusions.txt	LTP225	ltpFR	1	6	0	CARTON	251	n/a	n/a	1	0.422607421875	0.5869140625	0	lower	zerothre.ttf
1007719	WORD	wordpools/wasnorm_wordpool_less_exclusions.txt	LTP225	ltpFR	1	6	0	TICK	1463	n/a	n/a	0	0.422607421875	0.5869140625	0	lower	zerothre.ttf
1011600	WORD	wordpools/wasnorm_wordpool_less_exclusions.txt	LTP225	ltpFR	1	6	0	HOUND	724	n/a	n/a	1	0.422607421875	0.5869140625	0	lower	zerothre.ttf
1015575	WORD	wordpools/wasnorm_wordpool_less_exclusions.txt	LTP225	ltpFR	1	6	0	SHELL	1281	n/a	n/a	0	0.422607421875	0.5869140625	0	lower	zerothre.ttf
1019514	WORD	wordpools/wasnorm_wordpool_less_exclusions.txt	LTP225	ltpFR	1	6	0	BIOLOGIST	128	n/a	n/a	1	0.422607421875	0.5869140625	0	lower	zerothre.ttf
1023496	WORD	wordpools/wasnorm_wordpool_less_exclusions.txt	LTP225	ltpFR	1	6	0	TOOTH	1481	n/a	n/a	0	0.422607421875	0.5869140625	0	lower	zerothre.ttf
1027678	WORD	wordpools/wasnorm_wordpool_less_exclusions.txt	LTP225	ltpFR	1	6	0	SEAFOOD	1260	n/a	n/a	1	0.422607421875	0.5869140625	0	lower	zerothre.ttf
1031643	WORD	wordpools/wasnorm_wordpool_less_exclusions.txt	LTP225	ltpFR	1	6	0	SCALPEL	1243	n/a	n/a	0	0.422607421875	0.5869140625	0	lower	zerothre.ttf
1035684	WORD	wordpools/wasnorm_wordpool_less_exclusions.txt	LTP225	ltpFR	1	6	0	BRANCH	168	n/a	n/a	1	0.422607421875	0.5869140625	0	lower	zerothre.ttf
1039549	WORD	wordpools/wasnorm_wordpool_less_exclusions.txt	LTP225	ltpFR	1	6	0	MINK	897	n/a	n/a	1	0.422607421875	0.5869140625	0	lower	zerothre.ttf
1045279	REC_START	n/a	LTP225	ltpFR	1	6	n/a	n/a	n/a	n/a	n/a	n/a	n/a	n/a	n/a	n/a	n/a
1046696	REC_WORD	wordpools/wasnorm_wordpool_less_exclusions.txt	LTP225	ltpFR	1	6	0	MINK	897	n/a	n/a	1	n/a	n/a	n/a	n/a	n/a
1047524	REC_WORD	wordpools/wasnorm_wordpool_less_exclusions.txt	LTP225	ltpFR	1	6	0	BRANCH	168	n/a	n/a	1	n/a	n/a	n/a	n/a	n/a
1048163	REC_WORD_VV	wordpools/wasnorm_wordpool_less_exclusions.txt	LTP225	ltpFR	1	6	n/a	<>	-1	n/a	n/a	n/a	n/a	n/a	n/a	n/a	n/a
1051121	REC_WORD	wordpools/wasnorm_wordpool_less_exclusions.txt	LTP225	ltpFR	1	6	0	SEAFOOD	1260	n/a	n/a	1	n/a	n/a	n/a	n/a	n/a
1056277	REC_WORD_VV	wordpools/wasnorm_wordpool_less_exclusions.txt	LTP225	ltpFR	1	6	n/a	<>	-1	n/a	n/a	n/a	n/a	n/a	n/a	n/a	n/a
1057282	REC_WORD_VV	wordpools/wasnorm_wordpool_less_exclusions.txt	LTP225	ltpFR	1	6	n/a	<>	-1	n/a	n/a	n/a	n/a	n/a	n/a	n/a	n/a
1068650	REC_WORD	wordpools/wasnorm_wordpool_less_exclusions.txt	LTP225	ltpFR	1	6	0	MINK	897	n/a	n/a	1	n/a	n/a	n/a	n/a	n/a
1073719	REC_WORD_VV	wordpools/wasnorm_wordpool_less_exclusions.txt	LTP225	ltpFR	1	6	n/a	<>	-1	n/a	n/a	n/a	n/a	n/a	n/a	n/a	n/a
1119470	REC_WORD_VV	wordpools/wasnorm_wordpool_less_exclusions.txt	LTP225	ltpFR	1	6	n/a	<>	-1	n/a	n/a	n/a	n/a	n/a	n/a	n/a	n/a
1133243	WORD	wordpools/wasnorm_wordpool_less_exclusions.txt	LTP225	ltpFR	1	7	0	AUTHOR	61	n/a	n/a	n/a	0.422607421875	0.5869140625	0	lower	zerothre.ttf
1136288	SLOW_MSG	n/a	LTP225	ltpFR	1	7	n/a	n/a	n/a	n/a	n/a	n/a	n/a	n/a	n/a	n/a	n/a
1138914	WORD	wordpools/wasnorm_wordpool_less_exclusions.txt	LTP225	ltpFR	1	7	0	WRITER	1627	n/a	n/a	1	0.422607421875	0.5869140625	0	lower	zerothre.ttf
1142745	WORD	wordpools/wasnorm_wordpool_less_exclusions.txt	LTP225	ltpFR	1	7	0	MERMAID	887	n/a	n/a	1	0.422607421875	0.5869140625	0	lower	zerothre.ttf
1146710	WORD	wordpools/wasnorm_wordpool_less_exclusions.txt	LTP225	ltpFR	1	7	0	BALLERINA	74	n/a	n/a	1	0.422607421875	0.5869140625	0	lower	zerothre.ttf
1150601	WORD	wordpools/wasnorm_wordpool_less_exclusions.txt	LTP225	ltpFR	1	7	0	STRAW	1390	n/a	n/a	0	0.422607421875	0.5869140625	0	lower	zerothre.ttf
1154817	WORD	wordpools/wasnorm_wordpool_less_exclusions.txt	LTP225	ltpFR	1	7	0	CYLINDER	432	n/a	n/a	1	0.422607421875	0.5869140625	0	lower	zerothre.ttf
1158798	WORD	wordpools/wasnorm_wordpool_less_exclusions.txt	LTP225	ltpFR	1	7	1	CAN	225	n/a	n/a	0	0.57763671875	0.412841796875	1	upper	amplitud.ttf
1162887	WORD	wordpools/wasnorm_wordpool_less_exclusions.txt	LTP225	ltpFR	1	7	1	DANCER	437	n/a	n/a	1	0.57763671875	0.412841796875	1	upper	amplitud.ttf
1166912	WORD	wordpools/wasnorm_wordpool_less_exclusions.txt	LTP225	ltpFR	1	7	1	TREASURE	1500	n/a	n/a	0	0.57763671875	0.412841796875	1	upper	amplitud.ttf
1170784	WORD	wordpools/wasnorm_wordpool_less_exclusions.txt	LTP225	ltpFR	1	7	1	FURNITURE	616	n/a	n/a	0	0.57763671875	0.412841796875	1	upper	amplitud.ttf
1174698	WORD	wordpools/wasnorm_wordpool_less_exclusions.txt	LTP225	ltpFR	1	7	0	STAKE	1368	n/a	n/a	0	0.422607421875	0.5869140625	0	lower	zerothre.ttf
1178814	WORD	wordpools/wasnorm_wordpool_less_exclusions.txt	LTP225	ltpFR	1	7	0	PEARL	1034	n/a	n/a	0	0.422607421875	0.5869140625	0	lower	zerothre.ttf
1182745	WORD	wordpools/wasnorm_wordpool_less_exclusions.txt	LTP225	ltpFR	1	7	1	CATHEDRAL	260	n/a	n/a	0	0.57763671875	0.412841796875	1	upper	amplitud.ttf
1186811	WORD	wordpools/wasnorm_wordpool_less_exclusions.txt	LTP225	ltpFR	1	7	1	RELATIVE	1182	n/a	n/a	1	0.57763671875	0.412841796875	1	upper	amplitud.ttf
1190675	WORD	wordpools/wasnorm_wordpool_less_exclusions.txt	LTP225	ltpFR	1	7	1	CART	250	n/a	n/a	0	0.57763671875	0.412841796875	1	upper	amplitud.ttf
1194884	WORD	wordpools/wasnorm_wordpool_less_exclusions.txt	LTP225	ltpFR	1	7	1	MOP	916	n/a	n/a	0	0.57763671875	0.412841796875	1	upper	amplitud.ttf
1200991	REC_START	n/a	LTP225	ltpFR	1	7	n/a	n/a	n/a	n/a	n/a	n/a	n/a	n/a	n/a	n/a	n/a
1202083	REC_WORD	wordpools/wasnorm_wordpool_less_exclusions.txt	LTP225	ltpFR	1	7	1	MOP	916	n/a	n/a	0	n/a	n/a	n/a	n/a	n/a
1202996	REC_WORD	wordpools/wasnorm_wordpool_less_exclusions.txt	LTP225	ltpFR	1	7	1	CATHEDRAL	260	n/a	n/a	0	n/a	n/a	n/a	n/a	n/a
1204717	REC_WORD	wordpools/wasnorm_wordpool_less_exclusions.txt	LTP225	ltpFR	1	7	1	RELATIVE	1182	n/a	n/a	1	n/a	n/a	n/a	n/a	n/a
1222114	REC_WORD	wordpools/wasnorm_wordpool_less_exclusions.txt	LTP225	ltpFR	1	7	0	AUTHOR	61	n/a	n/a	n/a	n/a	n/a	n/a	n/a	n/a
1223081	REC_WORD	wordpools/wasnorm_wordpool_less_exclusions.txt	LTP225	ltpFR	1	7	0	WRITER	1627	n/a	n/a	1	n/a	n/a	n/a	n/a	n/a
1224916	REC_WORD	wordpools/wasnorm_wordpool_less_exclusions.txt	LTP225	ltpFR	1	7	n/a	MANUSCRIPT	-1	n/a	n/a	n/a	n/a	n/a	n/a	n/a	n/a
1230309	REC_WORD	wordpools/wasnorm_wordpool_less_exclusions.txt	LTP225	ltpFR	1	7	0	STAKE	1368	n/a	n/a	0	n/a	n/a	n/a	n/a	n/a
1250675	REC_WORD	wordpools/wasnorm_wordpool_less_exclusions.txt	LTP225	ltpFR	1	7	0	CYLINDER	432	n/a	n/a	1	n/a	n/a	n/a	n/a	n/a
1260864	REC_WORD	wordpools/wasnorm_wordpool_less_exclusions.txt	LTP225	ltpFR	1	7	1	DICTATOR	462	n/a	n/a	1	n/a	n/a	n/a	n/a	n/a
1269839	REC_WORD	wordpools/wasnorm_wordpool_less_exclusions.txt	LTP225	ltpFR	1	7	0	STRAW	1390	n/a	n/a	0	n/a	n/a	n/a	n/a	n/a
1301871	WORD	wordpools/wasnorm_wordpool_less_exclusions.txt	LTP225	ltpFR	1	8	-1	CHOCOLATE	306	n/a	n/a	-1	1.0	1.0	1	upper	Verdana.ttf
1305960	WORD	wordpools/wasnorm_wordpool_less_exclusions.txt	LTP225	ltpFR	1	8	-1	PASTRY	1022	n/a	n/a	-1	1.0	1.0	1	upper	Verdana.ttf
1310153	WORD	wordpools/wasnorm_wordpool_less_exclusions.txt	LTP225	ltpFR	1	8	-1	COCOON	339	n/a	n/a	-1	1.0	1.0	1	upper	Verdana.ttf
1314268	WORD	wordpools/wasnorm_wordpool_less_exclusions.txt	LTP225	ltpFR	1	8	-1	CLOCK	325	n/a	n/a	-1	1.0	1.0	1	upper	Verdana.ttf
1318324	WORD	wordpools/wasnorm_wordpool_less_exclusions.txt	LTP225	ltpFR	1	8	-1	FOREHEAD	592	n/a	n/a	-1	1.0	1.0	1	upper	Verdana.ttf
1322506	WORD	wordpools/wasnorm_wordpool_less_exclusions.txt	LTP225	ltpFR	1	8	-1	SPINACH	1352	n/a	n/a	-1	1.0	1.0	1	upper	Verdana.ttf
1326448	WORD	wordpools/wasnorm_wordpool_less_exclusions.txt	LTP225	ltpFR	1	8	-1	SCROLL	1257	n/a	n/a	-1	1.0	1.0	1	upper	Verdana.ttf
1330319	WORD	wordpools/wasnorm_wordpool_less_exclusions.txt	LTP225	ltpFR	1	8	-1	EDITORIAL	517	n/a	n/a	-1	1.0	1.0	1	upper	Verdana.ttf
1334193	WORD	wordpools/wasnorm_wordpool_less_exclusions.txt	LTP225	ltpFR	1	8	-1	PEPPER	1047	n/a	n/a	-1	1.0	1.0	1	upper	Verdana.ttf
1338299	WORD	wordpools/wasnorm_wordpool_less_exclusions.txt	LTP225	ltpFR	1	8	-1	SAGE	1222	n/a	n/a	-1	1.0	1.0	1	upper	Verdana.ttf
1342498	WORD	wordpools/wasnorm_wordpool_less_exclusions.txt	LTP225	ltpFR	1	8	-1	JUG	762	n/a	n/a	-1	1.0	1.0	1	upper	Verdana.ttf
1346673	WORD	wordpools/wasnorm_wordpool_less_exclusions.txt	LTP225	ltpFR	1	8	-1	BELT	120	n/a	n/a	-1	1.0	1.0	1	upper	Verdana.ttf
1350537	WORD	wordpools/wasnorm_wordpool_less_exclusions.txt	LTP225	ltpFR	1	8	-1	CAP	236	n/a	n/a	-1	1.0	1.0	1	upper	Verdana.ttf
1354543	WORD	wordpools/wasnorm_wordpool_less_exclusions.txt	LTP225	ltpFR	1	8	-1	BATH	98	n/a	n/a	-1	1.0	1.0	1	upper	Verdana.ttf
1358442	WORD	wordpools/wasnorm_wordpool_less_exclusions.txt	LTP225	ltpFR	1	8	-1	CAULIFLOWER	262	n/a	n/a	-1	1.0	1.0	1	upper	Verdana.ttf
1362416	WORD	wordpools/wasnorm_wordpool_less_exclusions.txt	LTP225	ltpFR	1	8	-1	TOWER	1490	n/a	n/a	-1	1.0	1.0	1	upper	Verdana.ttf
1368340	REC_START	n/a	LTP225	ltpFR	1	8	n/a	n/a	n/a	n/a	n/a	n/a	n/a	n/a	n/a	n/a	n/a
1369353	REC_WORD	wordpools/wasnorm_wordpool_less_exclusions.txt	LTP225	ltpFR	1	8	-1	CAULIFLOWER	262	n/a	n/a	-1	n/a	n/a	n/a	n/a	n/a
1370250	REC_WORD	wordpools/wasnorm_wordpool_less_exclusions.txt	LTP225	ltpFR	1	8	-1	TOWER	1490	n/a	n/a	-1	n/a	n/a	n/a	n/a	n/a
1371014	REC_WORD	wordpools/wasnorm_wordpool_less_exclusions.txt	LTP225	ltpFR	1	8	-1	CAP	236	n/a	n/a	-1	n/a	n/a	n/a	n/a	n/a
1374680	REC_WORD	wordpools/wasnorm_wordpool_less_exclusions.txt	LTP225	ltpFR	1	8	-1	PASTRY	1022	n/a	n/a	-1	n/a	n/a	n/a	n/a	n/a
1375692	REC_WORD_VV	wordpools/wasnorm_wordpool_less_exclusions.txt	LTP225	ltpFR	1	8	n/a	<>	-1	n/a	n/a	n/a	n/a	n/a	n/a	n/a	n/a
1379549	REC_WORD	wordpools/wasnorm_wordpool_less_exclusions.txt	LTP225	ltpFR	1	8	-1	PEPPER	1047	n/a	n/a	-1	n/a	n/a	n/a	n/a	n/a
1384743	REC_WORD	wordpools/wasnorm_wordpool_less_exclusions.txt	LTP225	ltpFR	1	8	-1	SCROLL	1257	n/a	n/a	-1	n/a	n/a	n/a	n/a	n/a
1386439	REC_WORD	wordpools/wasnorm_wordpool_less_exclusions.txt	LTP225	ltpFR	1	8	n/a	SCRIPT	-1	n/a	n/a	n/a	n/a	n/a	n/a	n/a	n/a
1389327	REC_WORD	wordpools/wasnorm_wordpool_less_exclusions.txt	LTP225	ltpFR	1	8	-1	JUG	762	n/a	n/a	-1	n/a	n/a	n/a	n/a	n/a
1392345	REC_WORD	wordpools/wasnorm_wordpool_less_exclusions.txt	LTP225	ltpFR	1	8	-1	CAP	236	n/a	n/a	-1	n/a	n/a	n/a	n/a	n/a
1402512	REC_WORD	wordpools/wasnorm_wordpool_less_exclusions.txt	LTP225	ltpFR	1	8	n/a	PARSLEY	1016	n/a	n/a	n/a	n/a	n/a	n/a	n/a	n/a
1414987	REC_WORD	wordpools/wasnorm_wordpool_less_exclusions.txt	LTP225	ltpFR	1	8	-1	SCROLL	1257	n/a	n/a	-1	n/a	n/a	n/a	n/a	n/a
1443090	REC_WORD	wordpools/wasnorm_wordpool_less_exclusions.txt	LTP225	ltpFR	1	8	-1	SCROLL	1257	n/a	n/a	-1	n/a	n/a	n/a	n/a	n/a
1454998	WORD	wordpools/wasnorm_wordpool_less_exclusions.txt	LTP225	ltpFR	1	9	1	FOREST	593	n/a	n/a	0	0.57763671875	0.412841796875	1	upper	amplitud.ttf
1459188	WORD	wordpools/wasnorm_wordpool_less_exclusions.txt	LTP225	ltpFR	1	9	1	ELM	527	n/a	n/a	n/a	0.57763671875	0.412841796875	1	upper	amplitud.ttf
1462233	SLOW_MSG	n/a	LTP225	ltpFR	1	9	n/a	n/a	n/a	n/a	n/a	n/a	n/a	n/a	n/a	n/a	n/a
1464859	WORD	wordpools/wasnorm_wordpool_less_exclusions.txt	LTP225	ltpFR	1	9	1	NEST	945	n/a	n/a	0	0.57763671875	0.412841796875	1	upper	amplitud.ttf
1468757	WORD	wordpools/wasnorm_wordpool_less_exclusions.txt	LTP225	ltpFR	1	9	1	CATCHER	258	n/a	n/a	1	0.57763671875	0.412841796875	1	upper	amplitud.ttf
1472872	WORD	wordpools/wasnorm_wordpool_less_exclusions.txt	LTP225	ltpFR	1	9	1	COACH	331	n/a	n/a	1	0.57763671875	0.412841796875	1	upper	amplitud.ttf
1477055	WORD	wordpools/wasnorm_wordpool_less_exclusions.txt	LTP225	ltpFR	1	9	1	BLENDER	136	n/a	n/a	0	0.57763671875	0.412841796875	1	upper	amplitud.ttf
1480886	WORD	wordpools/wasnorm_wordpool_less_exclusions.txt	LTP225	ltpFR	1	9	1	NAIL	936	n/a	n/a	0	0.57763671875	0.412841796875	1	upper	amplitud.ttf
1484810	WORD	wordpools/wasnorm_wordpool_less_exclusions.txt	LTP225	ltpFR	1	9	1	DOLPHIN	483	n/a	n/a	1	0.57763671875	0.412841796875	1	upper	amplitud.ttf
1488815	WORD	wordpools/wasnorm_wordpool_less_exclusions.txt	LTP225	ltpFR	1	9	1	TUNA	1518	n/a	n/a	1	0.57763671875	0.412841796875	1	upper	amplitud.ttf
1492948	WORD	wordpools/wasnorm_wordpool_less_exclusions.txt	LTP225	ltpFR	1	9	1	ASH	44	n/a	n/a	0	0.57763671875	0.412841796875	1	upper	amplitud.ttf
1497030	WORD	wordpools/wasnorm_wordpool_less_exclusions.txt	LTP225	ltpFR	1	9	1	TUBA	1515	n/a	n/a	0	0.57763671875	0.412841796875	1	upper	amplitud.ttf
1500988	WORD	wordpools/wasnorm_wordpool_less_exclusions.txt	LTP225	ltpFR	1	9	1	MISTER	901	n/a	n/a	1	0.57763671875	0.412841796875	1	upper	amplitud.ttf
1505128	WORD	wordpools/wasnorm_wordpool_less_exclusions.txt	LTP225	ltpFR	1	9	1	FINGER	567	n/a	n/a	n/a	0.57763671875	0.412841796875	1	upper	amplitud.ttf
1508173	SLOW_MSG	n/a	LTP225	ltpFR	1	9	n/a	n/a	n/a	n/a	n/a	n/a	n/a	n/a	n/a	n/a	n/a
1510899	WORD	wordpools/wasnorm_wordpool_less_exclusions.txt	LTP225	ltpFR	1	9	1	GRATE	657	n/a	n/a	0	0.57763671875	0.412841796875	1	upper	amplitud.ttf
1514880	WORD	wordpools/wasnorm_wordpool_less_exclusions.txt	LTP225	ltpFR	1	9	1	NICOTINE	951	n/a	n/a	0	0.57763671875	0.412841796875	1	upper	amplitud.ttf
1518939	WORD	wordpools/wasnorm_wordpool_less_exclusions.txt	LTP225	ltpFR	1	9	1	APRON	35	n/a	n/a	0	0.57763671875	0.412841796875	1	upper	amplitud.ttf
1524929	REC_START	n/a	LTP225	ltpFR	1	9	n/a	n/a	n/a	n/a	n/a	n/a	n/a	n/a	n/a	n/a	n/a
1526734	REC_WORD	wordpools/wasnorm_wordpool_less_exclusions.txt	LTP225	ltpFR	1	9	1	NICOTINE	951	n/a	n/a	0	n/a	n/a	n/a	n/a	n/a
1527673	REC_WORD	wordpools/wasnorm_wordpool_less_exclusions.txt	LTP225	ltpFR	1	9	1	APRON	35	n/a	n/a	0	n/a	n/a	n/a	n/a	n/a
1530561	REC_WORD	wordpools/wasnorm_wordpool_less_exclusions.txt	LTP225	ltpFR	1	9	1	CATCHER	258	n/a	n/a	1	n/a	n/a	n/a	n/a	n/a
1531439	REC_WORD	wordpools/wasnorm_wordpool_less_exclusions.txt	LTP225	ltpFR	1	9	1	COACH	331	n/a	n/a	1	n/a	n/a	n/a	n/a	n/a
1538463	REC_WORD_VV	wordpools/wasnorm_wordpool_less_exclusions.txt	LTP225	ltpFR	1	9	n/a	<>	-1	n/a	n/a	n/a	n/a	n/a	n/a	n/a	n/a
1539461	REC_WORD_VV	wordpools/wasnorm_wordpool_less_exclusions.txt	LTP225	ltpFR	1	9	n/a	<>	-1	n/a	n/a	n/a	n/a	n/a	n/a	n/a	n/a
1544749	REC_WORD_VV	wordpools/wasnorm_wordpool_less_exclusions.txt	LTP225	ltpFR	1	9	n/a	<>	-1	n/a	n/a	n/a	n/a	n/a	n/a	n/a	n/a
1545751	REC_WORD_VV	wordpools/wasnorm_wordpool_less_exclusions.txt	LTP225	ltpFR	1	9	n/a	<>	-1	n/a	n/a	n/a	n/a	n/a	n/a	n/a	n/a
1549543	REC_WORD	wordpools/wasnorm_wordpool_less_exclusions.txt	LTP225	ltpFR	1	9	0	BUFFALO	186	n/a	n/a	1	n/a	n/a	n/a	n/a	n/a
1555015	REC_WORD	wordpools/wasnorm_wordpool_less_exclusions.txt	LTP225	ltpFR	1	9	1	TUNA	1518	n/a	n/a	1	n/a	n/a	n/a	n/a	n/a
1556761	REC_WORD	wordpools/wasnorm_wordpool_less_exclusions.txt	LTP225	ltpFR	1	9	1	TUBA	1515	n/a	n/a	0	n/a	n/a	n/a	n/a	n/a
1574051	REC_WORD	wordpools/wasnorm_wordpool_less_exclusions.txt	LTP225	ltpFR	1	9	1	TUBA	1515	n/a	n/a	0	n/a	n/a	n/a	n/a	n/a
1574717	REC_WORD	wordpools/wasnorm_wordpool_less_exclusions.txt	LTP225	ltpFR	1	9	1	TUNA	1518	n/a	n/a	1	n/a	n/a	n/a	n/a	n/a
1583174	REC_WORD	wordpools/wasnorm_wordpool_less_exclusions.txt	LTP225	ltpFR	1	9	1	TUBA	1515	n/a	n/a	0	n/a	n/a	n/a	n/a	n/a
1612073	WORD	wordpools/wasnorm_wordpool_less_exclusions.txt	LTP225	ltpFR	1	10	-1	LEADER	807	n/a	n/a	-1	1.0	1.0	1	upper	Verdana.ttf
1615961	WORD	wordpools/wasnorm_wordpool_less_exclusions.txt	LTP225	ltpFR	1	10	-1	TROUSERS	1510	n/a	n/a	-1	1.0	1.0	1	upper	Verdana.ttf
1620111	WORD	wordpools/wasnorm_wordpool_less_exclusions.txt	LTP225	ltpFR	1	10	-1	SLACKS	1323	n/a	n/a	-1	1.0	1.0	1	upper	Verdana.ttf
1624210	WORD	wordpools/wasnorm_wordpool_less_exclusions.txt	LTP225	ltpFR	1	10	-1	INCENSE	735	n/a	n/a	-1	1.0	1.0	1	upper	Verdana.ttf
1628326	WORD	wordpools/wasnorm_wordpool_less_exclusions.txt	LTP225	ltpFR	1	10	-1	GARLIC	624	n/a	n/a	-1	1.0	1.0	1	upper	Verdana.ttf
1632307	WORD	wordpools/wasnorm_wordpool_less_exclusions.txt	LTP225	ltpFR	1	10	-1	KEYBOARD	774	n/a	n/a	-1	1.0	1.0	1	upper	Verdana.ttf
1636406	WORD	wordpools/wasnorm_wordpool_less_exclusions.txt	LTP225	ltpFR	1	10	-1	DRAGON	492	n/a	n/a	-1	1.0	1.0	1	upper	Verdana.ttf
1640597	WORD	wordpools/wasnorm_wordpool_less_exclusions.txt	LTP225	ltpFR	1	10	-1	SAUCER	1237	n/a	n/a	-1	1.0	1.0	1	upper	Verdana.ttf
1644780	WORD	wordpools/wasnorm_wordpool_less_exclusions.txt	LTP225	ltpFR	1	10	-1	COMPUTER	359	n/a	n/a	-1	1.0	1.0	1	upper	Verdana.ttf
1648634	WORD	wordpools/wasnorm_wordpool_less_exclusions.txt	LTP225	ltpFR	1	10	-1	GOVERNOR	651	n/a	n/a	-1	1.0	1.0	1	upper	Verdana.ttf
1652683	WORD	wordpools/wasnorm_wordpool_less_exclusions.txt	LTP225	ltpFR	1	10	-1	BEAN	105	n/a	n/a	-1	1.0	1.0	1	upper	Verdana.ttf
1656581	WORD	wordpools/wasnorm_wordpool_less_exclusions.txt	LTP225	ltpFR	1	10	-1	CURTAIN	427	n/a	n/a	-1	1.0	1.0	1	upper	Verdana.ttf
1660757	WORD	wordpools/wasnorm_wordpool_less_exclusions.txt	LTP225	ltpFR	1	10	-1	TAR	1435	n/a	n/a	-1	1.0	1.0	1	upper	Verdana.ttf
1664788	WORD	wordpools/wasnorm_wordpool_less_exclusions.txt	LTP225	ltpFR	1	10	-1	CIGAR	308	n/a	n/a	-1	1.0	1.0	1	upper	Verdana.ttf
1668710	WORD	wordpools/wasnorm_wordpool_less_exclusions.txt	LTP225	ltpFR	1	10	-1	PROTON	1132	n/a	n/a	-1	1.0	1.0	1	upper	Verdana.ttf
1672752	WORD	wordpools/wasnorm_wordpool_less_exclusions.txt	LTP225	ltpFR	1	10	-1	SNEAKER	1334	n/a	n/a	-1	1.0	1.0	1	upper	Verdana.ttf
1678509	REC_START	n/a	LTP225	ltpFR	1	10	n/a	n/a	n/a	n/a	n/a	n/a	n/a	n/a	n/a	n/a	n/a
1679916	REC_WORD	wordpools/wasnorm_wordpool_less_exclusions.txt	LTP225	ltpFR	1	10	-1	PROTON	1132	n/a	n/a	-1	n/a	n/a	n/a	n/a	n/a
1680679	REC_WORD	wordpools/wasnorm_wordpool_less_exclusions.txt	LTP225	ltpFR	1	10	-1	SNEAKER	1334	n/a	n/a	-1	n/a	n/a	n/a	n/a	n/a
1681493	REC_WORD	wordpools/wasnorm_wordpool_less_exclusions.txt	LTP225	ltpFR	1	10	-1	CIGAR	308	n/a	n/a	-1	n/a	n/a	n/a	n/a	n/a
1682385	REC_WORD	wordpools/wasnorm_wordpool_less_exclusions.txt	LTP225	ltpFR	1	10	1	ASH	44	n/a	n/a	0	n/a	n/a	n/a	n/a	n/a
1683797	REC_WORD	wordpools/wasnorm_wordpool_less_exclusions.txt	LTP225	ltpFR	1	10	-1	LEADER	807	n/a	n/a	-1	n/a	n/a	n/a	n/a	n/a
1684660	REC_WORD	wordpools/wasnorm_wordpool_less_exclusions.txt	LTP225	ltpFR	1	10	-1	TROUSERS	1510	n/a	n/a	-1	n/a	n/a	n/a	n/a	n/a
1688551	REC_WORD	wordpools/wasnorm_wordpool_less_exclusions.txt	LTP225	ltpFR	1	10	n/a	PANTS	1010	n/a	n/a	n/a	n/a	n/a	n/a	n/a	n/a
1689548	REC_WORD_VV	wordpools/wasnorm_wordpool_less_exclusions.txt	LTP225	ltpFR	1	10	n/a	<>	-1	n/a	n/a	n/a	n/a	n/a	n/a	n/a	n/a
1691310	REC_WORD	wordpools/wasnorm_wordpool_less_exclusions.txt	LTP225	ltpFR	1	10	-1	GOVERNOR	651	n/a	n/a	-1	n/a	n/a	n/a	n/a	n/a
1696548	REC_WORD	wordpools/wasnorm_wordpool_less_exclusions.txt	LTP225	ltpFR	1	10	-1	GARLIC	624	n/a	n/a	-1	n/a	n/a	n/a	n/a	n/a
1701257	REC_WORD_VV	wordpools/wasnorm_wordpool_less_exclusions.txt	LTP225	ltpFR	1	10	n/a	<>	-1	n/a	n/a	n/a	n/a	n/a	n/a	n/a	n/a
1740054	REC_WORD_VV	wordpools/wasnorm_wordpool_less_exclusions.txt	LTP225	ltpFR	1	10	n/a	<>	-1	n/a	n/a	n/a	n/a	n/a	n/a	n/a	n/a
1741056	REC_WORD_VV	wordpools/wasnorm_wordpool_less_exclusions.txt	LTP225	ltpFR	1	10	n/a	<>	-1	n/a	n/a	n/a	n/a	n/a	n/a	n/a	n/a
1751129	REC_WORD	wordpools/wasnorm_wordpool_less_exclusions.txt	LTP225	ltpFR	1	10	-1	GOVERNOR	651	n/a	n/a	-1	n/a	n/a	n/a	n/a	n/a
1752129	REC_WORD_VV	wordpools/wasnorm_wordpool_less_exclusions.txt	LTP225	ltpFR	1	10	n/a	<>	-1	n/a	n/a	n/a	n/a	n/a	n/a	n/a	n/a
1752293	REC_WORD_VV	wordpools/wasnorm_wordpool_less_exclusions.txt	LTP225	ltpFR	1	10	n/a	<>	-1	n/a	n/a	n/a	n/a	n/a	n/a	n/a	n/a
1768196	WORD	wordpools/wasnorm_wordpool_less_exclusions.txt	LTP225	ltpFR	1	11	0	PALACE	1006	n/a	n/a	n/a	0.422607421875	0.5869140625	0	lower	zerothre.ttf
1771241	SLOW_MSG	n/a	LTP225	ltpFR	1	11	n/a	n/a	n/a	n/a	n/a	n/a	n/a	n/a	n/a	n/a	n/a
1773957	WORD	wordpools/wasnorm_wordpool_less_exclusions.txt	LTP225	ltpFR	1	11	0	CROWN	415	n/a	n/a	1	0.422607421875	0.5869140625	0	lower	zerothre.ttf
1778090	WORD	wordpools/wasnorm_wordpool_less_exclusions.txt	LTP225	ltpFR	1	11	0	COBBLER	335	n/a	n/a	1	0.422607421875	0.5869140625	0	lower	zerothre.ttf
1782087	WORD	wordpools/wasnorm_wordpool_less_exclusions.txt	LTP225	ltpFR	1	11	0	GIRAFFE	636	n/a	n/a	1	0.422607421875	0.5869140625	0	lower	zerothre.ttf
1786264	WORD	wordpools/wasnorm_wordpool_less_exclusions.txt	LTP225	ltpFR	1	11	1	ELEPHANT	523	n/a	n/a	3	0.57763671875	0.412841796875	1	upper	amplitud.ttf
1786973	KEY_MSG	n/a	LTP225	ltpFR	1	11	n/a	n/a	n/a	n/a	n/a	n/a	n/a	n/a	n/a	n/a	n/a
1790480	WORD	wordpools/wasnorm_wordpool_less_exclusions.txt	LTP225	ltpFR	1	11	1	MONKEY	911	n/a	n/a	1	0.57763671875	0.412841796875	1	upper	amplitud.ttf
1794402	WORD	wordpools/wasnorm_wordpool_less_exclusions.txt	LTP225	ltpFR	1	11	1	CUP	424	n/a	n/a	0	0.57763671875	0.412841796875	1	upper	amplitud.ttf
1798549	WORD	wordpools/wasnorm_wordpool_less_exclusions.txt	LTP225	ltpFR	1	11	1	DISC	473	n/a	n/a	0	0.57763671875	0.412841796875	1	upper	amplitud.ttf
1802775	WORD	wordpools/wasnorm_wordpool_less_exclusions.txt	LTP225	ltpFR	1	11	1	TRAITOR	1495	n/a	n/a	1	0.57763671875	0.412841796875	1	upper	amplitud.ttf
1806874	WORD	wordpools/wasnorm_wordpool_less_exclusions.txt	LTP225	ltpFR	1	11	0	MOTHER	921	n/a	n/a	3	0.422607421875	0.5869140625	0	lower	zerothre.ttf
1807801	KEY_MSG	n/a	LTP225	ltpFR	1	11	n/a	n/a	n/a	n/a	n/a	n/a	n/a	n/a	n/a	n/a	n/a
1811080	WORD	wordpools/wasnorm_wordpool_less_exclusions.txt	LTP225	ltpFR	1	11	0	SANDPAPER	1231	n/a	n/a	0	0.422607421875	0.5869140625	0	lower	zerothre.ttf
1814995	WORD	wordpools/wasnorm_wordpool_less_exclusions.txt	LTP225	ltpFR	1	11	1	POLITICIAN	1099	n/a	n/a	1	0.57763671875	0.412841796875	1	upper	amplitud.ttf
1818852	WORD	wordpools/wasnorm_wordpool_less_exclusions.txt	LTP225	ltpFR	1	11	1	BANANA	77	n/a	n/a	0	0.57763671875	0.412841796875	1	upper	amplitud.ttf
1822901	WORD	wordpools/wasnorm_wordpool_less_exclusions.txt	LTP225	ltpFR	1	11	1	DAD	433	n/a	n/a	1	0.57763671875	0.412841796875	1	upper	amplitud.ttf
1826906	WORD	wordpools/wasnorm_wordpool_less_exclusions.txt	LTP225	ltpFR	1	11	0	FUDGE	611	n/a	n/a	0	0.422607421875	0.5869140625	0	lower	zerothre.ttf
1831072	WORD	wordpools/wasnorm_wordpool_less_exclusions.txt	LTP225	ltpFR	1	11	0	DILL	465	n/a	n/a	0	0.422607421875	0.5869140625	0	lower	zerothre.ttf
1836838	REC_START	n/a	LTP225	ltpFR	1	11	n/a	n/a	n/a	n/a	n/a	n/a	n/a	n/a	n/a	n/a	n/a
1838664	REC_WORD	wordpools/wasnorm_wordpool_less_exclusions.txt	LTP225	ltpFR	1	11	0	DILL	465	n/a	n/a	0	n/a	n/a	n/a	n/a	n/a
1839101	REC_WORD	wordpools/wasnorm_wordpool_less_exclusions.txt	LTP225	ltpFR	1	11	0	FUDGE	611	n/a	n/a	0	n/a	n/a	n/a	n/a	n/a
1841098	REC_WORD_VV	wordpools/wasnorm_wordpool_less_exclusions.txt	LTP225	ltpFR	1	11	n/a	<>	-1	n/a	n/a	n/a	n/a	n/a	n/a	n/a	n/a
1843712	REC_WORD	wordpools/wasnorm_wordpool_less_exclusions.txt	LTP225	ltpFR	1	11	1	DAD	433	n/a	n/a	1	n/a	n/a	n/a	n/a	n/a
1845329	REC_WORD	wordpools/wasnorm_wordpool_less_exclusions.txt	LTP225	ltpFR	1	11	0	MOTHER	921	n/a	n/a	3	n/a	n/a	n/a	n/a	n/a
1849210	REC_WORD_VV	wordpools/wasnorm_wordpool_less_exclusions.txt	LTP225	ltpFR	1	11	n/a	<>	-1	n/a	n/a	n/a	n/a	n/a	n/a	n/a	n/a
1850209	REC_WORD_VV	wordpools/wasnorm_wordpool_less_exclusions.txt	LTP225	ltpFR	1	11	n/a	<>	-1	n/a	n/a	n/a	n/a	n/a	n/a	n/a	n/a
1856224	REC_WORD_VV	wordpools/wasnorm_wordpool_less_exclusions.txt	LTP225	ltpFR	1	11	n/a	<>	-1	n/a	n/a	n/a	n/a	n/a	n/a	n/a	n/a
1866560	REC_WORD	wordpools/wasnorm_wordpool_less_exclusions.txt	LTP225	ltpFR	1	11	0	CROWN	415	n/a	n/a	1	n/a	n/a	n/a	n/a	n/a
1870801	REC_WORD	wordpools/wasnorm_wordpool_less_exclusions.txt	LTP225	ltpFR	1	11	1	CATHEDRAL	260	n/a	n/a	0	n/a	n/a	n/a	n/a	n/a
1879302	REC_WORD	wordpools/wasnorm_wordpool_less_exclusions.txt	LTP225	ltpFR	1	11	0	DILL	465	n/a	n/a	0	n/a	n/a	n/a	n/a	n/a
1886610	REC_WORD	wordpools/wasnorm_wordpool_less_exclusions.txt	LTP225	ltpFR	1	11	-1	GARLIC	624	n/a	n/a	-1	n/a	n/a	n/a	n/a	n/a
1927386	WORD	wordpools/wasnorm_wordpool_less_exclusions.txt	LTP225	ltpFR	1	12	0	SCENERY	1247	n/a	n/a	1	0.422607421875	0.5869140625	0	lower	zerothre.ttf
1931517	WORD	wordpools/wasnorm_wordpool_less_exclusions.txt	LTP225	ltpFR	1	12	0	OPERA	978	n/a	n/a	1	0.422607421875	0.5869140625	0	lower	zerothre.ttf
1935566	WORD	wordpools/wasnorm_wordpool_less_exclusions.txt	LTP225	ltpFR	1	12	0	WRENCH	1625	n/a	n/a	0	0.422607421875	0.5869140625	0	lower	zerothre.ttf
1939531	WORD	wordpools/wasnorm_wordpool_less_exclusions.txt	LTP225	ltpFR	1	12	0	CHICKEN	297	n/a	n/a	1	0.422607421875	0.5869140625	0	lower	zerothre.ttf
1943440	WORD	wordpools/wasnorm_wordpool_less_exclusions.txt	LTP225	ltpFR	1	12	0	FARM	552	n/a	n/a	1	0.422607421875	0.5869140625	0	lower	zerothre.ttf
1947488	WORD	wordpools/wasnorm_wordpool_less_exclusions.txt	LTP225	ltpFR	1	12	0	GAZELLE	628	n/a	n/a	1	0.422607421875	0.5869140625	0	lower	zerothre.ttf
1951543	WORD	wordpools/wasnorm_wordpool_less_exclusions.txt	LTP225	ltpFR	1	12	0	PLIERS	1089	n/a	n/a	0	0.422607421875	0.5869140625	0	lower	zerothre.ttf
1955642	WORD	wordpools/wasnorm_wordpool_less_exclusions.txt	LTP225	ltpFR	1	12	0	POCKETBOOK	1094	n/a	n/a	0	0.422607421875	0.5869140625	0	lower	zerothre.ttf
1959841	WORD	wordpools/wasnorm_wordpool_less_exclusions.txt	LTP225	ltpFR	1	12	0	BOUILLON	154	n/a	n/a	0	0.422607421875	0.5869140625	0	lower	zerothre.ttf
1963739	WORD	wordpools/wasnorm_wordpool_less_exclusions.txt	LTP225	ltpFR	1	12	0	HAND	683	n/a	n/a	0	0.422607421875	0.5869140625	0	lower	zerothre.ttf
1967955	WORD	wordpools/wasnorm_wordpool_less_exclusions.txt	LTP225	ltpFR	1	12	0	BULLETIN	195	n/a	n/a	0	0.422607421875	0.5869140625	0	lower	zerothre.ttf
1972138	WORD	wordpools/wasnorm_wordpool_less_exclusions.txt	LTP225	ltpFR	1	12	0	DART	440	n/a	n/a	0	0.422607421875	0.5869140625	0	lower	zerothre.ttf
1976002	WORD	wordpools/wasnorm_wordpool_less_exclusions.txt	LTP225	ltpFR	1	12	0	LINT	826	n/a	n/a	0	0.422607421875	0.5869140625	0	lower	zerothre.ttf
1980228	WORD	wordpools/wasnorm_wordpool_less_exclusions.txt	LTP225	ltpFR	1	12	0	BRUNETTE	181	n/a	n/a	1	0.422607421875	0.5869140625	0	lower	zerothre.ttf
1984384	WORD	wordpools/wasnorm_wordpool_less_exclusions.txt	LTP225	ltpFR	1	12	0	CHECK	284	n/a	n/a	0	0.422607421875	0.5869140625	0	lower	zerothre.ttf
1988442	WORD	wordpools/wasnorm_wordpool_less_exclusions.txt	LTP225	ltpFR	1	12	0	ELECTRON	522	n/a	n/a	0	0.422607421875	0.5869140625	0	lower	zerothre.ttf
1994232	REC_START	n/a	LTP225	ltpFR	1	12	n/a	n/a	n/a	n/a	n/a	n/a	n/a	n/a	n/a	n/a	n/a
1995484	REC_WORD	wordpools/wasnorm_wordpool_less_exclusions.txt	LTP225	ltpFR	1	12	0	ELECTRON	522	n/a	n/a	0	n/a	n/a	n/a	n/a	n/a
1997923	REC_WORD_VV	wordpools/wasnorm_wordpool_less_exclusions.txt	LTP225	ltpFR	1	12	n/a	<>	-1	n/a	n/a	n/a	n/a	n/a	n/a	n/a	n/a
1998936	REC_WORD_VV	wordpools/wasnorm_wordpool_less_exclusions.txt	LTP225	ltpFR	1	12	n/a	<>	-1	n/a	n/a	n/a	n/a	n/a	n/a	n/a	n/a
2002907	REC_WORD	wordpools/wasnorm_wordpool_less_exclusions.txt	LTP225	ltpFR	1	12	0	DART	440	n/a	n/a	0	n/a	n/a	n/a	n/a	n/a
2004139	REC_WORD	wordpools/wasnorm_wordpool_less_exclusions.txt	LTP225	ltpFR	1	12	0	GAZELLE	628	n/a	n/a	1	n/a	n/a	n/a	n/a	n/a
2006509	REC_WORD_VV	wordpools/wasnorm_wordpool_less_exclusions.txt	LTP225	ltpFR	1	12	n/a	<>	-1	n/a	n/a	n/a	n/a	n/a	n/a	n/a	n/a
2007177	REC_WORD	wordpools/wasnorm_wordpool_less_exclusions.txt	LTP225	ltpFR	1	12	0	ELECTRON	522	n/a	n/a	0	n/a	n/a	n/a	n/a	n/a
2011034	REC_WORD	wordpools/wasnorm_wordpool_less_exclusions.txt	LTP225	ltpFR	1	12	0	POCKETBOOK	1094	n/a	n/a	0	n/a	n/a	n/a	n/a	n/a
2015543	REC_WORD_VV	wordpools/wasnorm_wordpool_less_exclusions.txt	LTP225	ltpFR	1	12	n/a	<>	-1	n/a	n/a	n/a	n/a	n/a	n/a	n/a	n/a
2016431	REC_WORD	wordpools/wasnorm_wordpool_less_exclusions.txt	LTP225	ltpFR	1	12	0	POCKETBOOK	1094	n/a	n/a	0	n/a	n/a	n/a	n/a	n/a
2017183	REC_WORD	wordpools/wasnorm_wordpool_less_exclusions.txt	LTP225	ltpFR	1	12	0	ELECTRON	522	n/a	n/a	0	n/a	n/a	n/a	n/a	n/a
2024678	REC_WORD	wordpools/wasnorm_wordpool_less_exclusions.txt	LTP225	ltpFR	1	12	0	GIRAFFE	636	n/a	n/a	1	n/a	n/a	n/a	n/a	n/a
2027347	REC_WORD	wordpools/wasnorm_wordpool_less_exclusions.txt	LTP225	ltpFR	1	12	0	CHECK	284	n/a	n/a	0	n/a	n/a	n/a	n/a	n/a
2031946	REC_WORD	wordpools/wasnorm_wordpool_less_exclusions.txt	LTP225	ltpFR	1	12	0	WRENCH	1625	n/a	n/a	0	n/a	n/a	n/a	n/a	n/a
2033313	REC_WORD	wordpools/wasnorm_wordpool_less_exclusions.txt	LTP225	ltpFR	1	12	0	PLIERS	1089	n/a	n/a	0	n/a	n/a	n/a	n/a	n/a
2039369	REC_WORD_VV	wordpools/wasnorm_wordpool_less_exclusions.txt	LTP225	ltpFR	1	12	n/a	<>	-1	n/a	n/a	n/a	n/a	n/a	n/a	n/a	n/a
2042048	REC_WORD	wordpools/wasnorm_wordpool_less_exclusions.txt	LTP225	ltpFR	1	12	n/a	MANUSCRIPT	-1	n/a	n/a	n/a	n/a	n/a	n/a	n/a	n/a
2043052	REC_WORD_VV	wordpools/wasnorm_wordpool_less_exclusions.txt	LTP225	ltpFR	1	12	n/a	<>	-1	n/a	n/a	n/a	n/a	n/a	n/a	n/a	n/a
2069872	REST_REWET	n/a	LTP225	ltpFR	1	12	n/a	n/a	n/a	n/a	n/a	n/a	n/a	n/a	n/a	n/a	n/a
2335189	WORD	wordpools/wasnorm_wordpool_less_exclusions.txt	LTP225	ltpFR	1	13	1	SOFA	1342	n/a	n/a	0	0.57763671875	0.412841796875	1	upper	amplitud.ttf
2339405	WORD	wordpools/wasnorm_wordpool_less_exclusions.txt	LTP225	ltpFR	1	13	1	TROUT	1511	n/a	n/a	1	0.57763671875	0.412841796875	1	upper	amplitud.ttf
2343587	WORD	wordpools/wasnorm_wordpool_less_exclusions.txt	LTP225	ltpFR	1	13	1	GOOSE	649	n/a	n/a	1	0.57763671875	0.412841796875	1	upper	amplitud.ttf
2347686	WORD	wordpools/wasnorm_wordpool_less_exclusions.txt	LTP225	ltpFR	1	13	1	PRAIRIE	1118	n/a	n/a	0	0.57763671875	0.412841796875	1	upper	amplitud.ttf
2351761	WORD	wordpools/wasnorm_wordpool_less_exclusions.txt	LTP225	ltpFR	1	13	1	THRONE	1461	n/a	n/a	0	0.57763671875	0.412841796875	1	upper	amplitud.ttf
2355716	WORD	wordpools/wasnorm_wordpool_less_exclusions.txt	LTP225	ltpFR	1	13	1	SHEET	1279	n/a	n/a	0	0.57763671875	0.412841796875	1	upper	amplitud.ttf
2359882	WORD	wordpools/wasnorm_wordpool_less_exclusions.txt	LTP225	ltpFR	1	13	0	TREE	1502	n/a	n/a	1	0.422607421875	0.5869140625	0	lower	zerothre.ttf
2363773	WORD	wordpools/wasnorm_wordpool_less_exclusions.txt	LTP225	ltpFR	1	13	0	STUMP	1396	n/a	n/a	1	0.422607421875	0.5869140625	0	lower	zerothre.ttf
2367778	WORD	wordpools/wasnorm_wordpool_less_exclusions.txt	LTP225	ltpFR	1	13	0	SEAT	1264	n/a	n/a	1	0.422607421875	0.5869140625	0	lower	zerothre.ttf
2371903	WORD	wordpools/wasnorm_wordpool_less_exclusions.txt	LTP225	ltpFR	1	13	0	PEOPLE	1046	n/a	n/a	1	0.422607421875	0.5869140625	0	lower	zerothre.ttf
2375935	WORD	wordpools/wasnorm_wordpool_less_exclusions.txt	LTP225	ltpFR	1	13	1	SIDING	1304	n/a	n/a	0	0.57763671875	0.412841796875	1	upper	amplitud.ttf
2379756	WORD	wordpools/wasnorm_wordpool_less_exclusions.txt	LTP225	ltpFR	1	13	1	BOOK	149	n/a	n/a	0	0.57763671875	0.412841796875	1	upper	amplitud.ttf
2383898	WORD	wordpools/wasnorm_wordpool_less_exclusions.txt	LTP225	ltpFR	1	13	0	SEAL	1262	n/a	n/a	3	0.422607421875	0.5869140625	0	lower	zerothre.ttf
2385076	KEY_MSG	n/a	LTP225	ltpFR	1	13	n/a	n/a	n/a	n/a	n/a	n/a	n/a	n/a	n/a	n/a	n/a
2388071	WORD	wordpools/wasnorm_wordpool_less_exclusions.txt	LTP225	ltpFR	1	13	0	FLIPPER	580	n/a	n/a	1	0.422607421875	0.5869140625	0	lower	zerothre.ttf
2392255	WORD	wordpools/wasnorm_wordpool_less_exclusions.txt	LTP225	ltpFR	1	13	0	PASSAGE	1019	n/a	n/a	1	0.422607421875	0.5869140625	0	lower	zerothre.ttf
2396320	WORD	wordpools/wasnorm_wordpool_less_exclusions.txt	LTP225	ltpFR	1	13	0	SLIDE	1326	n/a	n/a	1	0.422607421875	0.5869140625	0	lower	zerothre.ttf
2402243	REC_START	n/a	LTP225	ltpFR	1	13	n/a	n/a	n/a	n/a	n/a	n/a	n/a	n/a	n/a	n/a	n/a
2403729	REC_WORD	wordpools/wasnorm_wordpool_less_exclusions.txt	LTP225	ltpFR	1	13	0	SLIDE	1326	n/a	n/a	1	n/a	n/a	n/a	n/a	n/a
2404730	REC_WORD_VV	wordpools/wasnorm_wordpool_less_exclusions.txt	LTP225	ltpFR	1	13	n/a	<>	-1	n/a	n/a	n/a	n/a	n/a	n/a	n/a	n/a
2405695	REC_WORD_VV	wordpools/wasnorm_wordpool_less_exclusions.txt	LTP225	ltpFR	1	13	n/a	<>	-1	n/a	n/a	n/a	n/a	n/a	n/a	n/a	n/a
2406698	REC_WORD_VV	wordpools/wasnorm_wordpool_less_exclusions.txt	LTP225	ltpFR	1	13	n/a	<>	-1	n/a	n/a	n/a	n/a	n/a	n/a	n/a	n/a
2407769	REC_WORD	wordpools/wasnorm_wordpool_less_exclusions.txt	LTP225	ltpFR	1	13	0	FLIPPER	580	n/a	n/a	1	n/a	n/a	n/a	n/a	n/a
2409915	REC_WORD	wordpools/wasnorm_wordpool_less_exclusions.txt	LTP225	ltpFR	1	13	1	TROUT	1511	n/a	n/a	1	n/a	n/a	n/a	n/a	n/a
2413562	REC_WORD_VV	wordpools/wasnorm_wordpool_less_exclusions.txt	LTP225	ltpFR	1	13	n/a	<>	-1	n/a	n/a	n/a	n/a	n/a	n/a	n/a	n/a
2414558	REC_WORD_VV	wordpools/wasnorm_wordpool_less_exclusions.txt	LTP225	ltpFR	1	13	n/a	<>	-1	n/a	n/a	n/a	n/a	n/a	n/a	n/a	n/a
2419314	REC_WORD_VV	wordpools/wasnorm_wordpool_less_exclusions.txt	LTP225	ltpFR	1	13	n/a	<>	-1	n/a	n/a	n/a	n/a	n/a	n/a	n/a	n/a
2434465	REC_WORD	wordpools/wasnorm_wordpool_less_exclusions.txt	LTP225	ltpFR	1	13	1	SIDING	1304	n/a	n/a	0	n/a	n/a	n/a	n/a	n/a
2443240	REC_WORD_VV	wordpools/wasnorm_wordpool_less_exclusions.txt	LTP225	ltpFR	1	13	n/a	<>	-1	n/a	n/a	n/a	n/a	n/a	n/a	n/a	n/a
2444246	REC_WORD_VV	wordpools/wasnorm_wordpool_less_exclusions.txt	LTP225	ltpFR	1	13	n/a	<>	-1	n/a	n/a	n/a	n/a	n/a	n/a	n/a	n/a
2445400	REC_WORD	wordpools/wasnorm_wordpool_less_exclusions.txt	LTP225	ltpFR	1	13	1	BOOK	149	n/a	n/a	0	n/a	n/a	n/a	n/a	n/a
2452658	REC_WORD_VV	wordpools/wasnorm_wordpool_less_exclusions.txt	LTP225	ltpFR	1	13	n/a	<>	-1	n/a	n/a	n/a	n/a	n/a	n/a	n/a	n/a
2453671	REC_WORD_VV	wordpools/wasnorm_wordpool_less_exclusions.txt	LTP225	ltpFR	1	13	n/a	<>	-1	n/a	n/a	n/a	n/a	n/a	n/a	n/a	n/a
2454669	REC_WORD_VV	wordpools/wasnorm_wordpool_less_exclusions.txt	LTP225	ltpFR	1	13	n/a	<>	-1	n/a	n/a	n/a	n/a	n/a	n/a	n/a	n/a
2455673	REC_WORD_VV	wordpools/wasnorm_wordpool_less_exclusions.txt	LTP225	ltpFR	1	13	n/a	<>	-1	n/a	n/a	n/a	n/a	n/a	n/a	n/a	n/a
2456933	REC_WORD	wordpools/wasnorm_wordpool_less_exclusions.txt	LTP225	ltpFR	1	13	0	GIRAFFE	636	n/a	n/a	1	n/a	n/a	n/a	n/a	n/a
2461763	REC_WORD	wordpools/wasnorm_wordpool_less_exclusions.txt	LTP225	ltpFR	1	13	1	TROUT	1511	n/a	n/a	1	n/a	n/a	n/a	n/a	n/a
2506495	WORD	wordpools/wasnorm_wordpool_less_exclusions.txt	LTP225	ltpFR	1	14	1	HOUSE	725	n/a	n/a	0	0.57763671875	0.412841796875	1	upper	amplitud.ttf
2510493	WORD	wordpools/wasnorm_wordpool_less_exclusions.txt	LTP225	ltpFR	1	14	1	DOUGH	489	n/a	n/a	0	0.57763671875	0.412841796875	1	upper	amplitud.ttf
2514615	WORD	wordpools/wasnorm_wordpool_less_exclusions.txt	LTP225	ltpFR	1	14	1	OBOE	969	n/a	n/a	0	0.57763671875	0.412841796875	1	upper	amplitud.ttf
2518522	WORD	wordpools/wasnorm_wordpool_less_exclusions.txt	LTP225	ltpFR	1	14	1	BUGLE	189	n/a	n/a	0	0.57763671875	0.412841796875	1	upper	amplitud.ttf
2522612	WORD	wordpools/wasnorm_wordpool_less_exclusions.txt	LTP225	ltpFR	1	14	1	HAMPER	682	n/a	n/a	0	0.57763671875	0.412841796875	1	upper	amplitud.ttf
2526777	WORD	wordpools/wasnorm_wordpool_less_exclusions.txt	LTP225	ltpFR	1	14	1	BISON	131	n/a	n/a	1	0.57763671875	0.412841796875	1	upper	amplitud.ttf
2530752	WORD	wordpools/wasnorm_wordpool_less_exclusions.txt	LTP225	ltpFR	1	14	1	CREATURE	403	n/a	n/a	1	0.57763671875	0.412841796875	1	upper	amplitud.ttf
2534640	WORD	wordpools/wasnorm_wordpool_less_exclusions.txt	LTP225	ltpFR	1	14	1	ATTIRE	57	n/a	n/a	0	0.57763671875	0.412841796875	1	upper	amplitud.ttf
2538482	WORD	wordpools/wasnorm_wordpool_less_exclusions.txt	LTP225	ltpFR	1	14	1	HAM	678	n/a	n/a	0	0.57763671875	0.412841796875	1	upper	amplitud.ttf
2542480	WORD	wordpools/wasnorm_wordpool_less_exclusions.txt	LTP225	ltpFR	1	14	1	PORCH	1106	n/a	n/a	0	0.57763671875	0.412841796875	1	upper	amplitud.ttf
2546378	WORD	wordpools/wasnorm_wordpool_less_exclusions.txt	LTP225	ltpFR	1	14	1	PHILOSOPHER	1054	n/a	n/a	1	0.57763671875	0.412841796875	1	upper	amplitud.ttf
2550360	WORD	wordpools/wasnorm_wordpool_less_exclusions.txt	LTP225	ltpFR	1	14	1	FARMER	553	n/a	n/a	1	0.57763671875	0.412841796875	1	upper	amplitud.ttf
2554483	WORD	wordpools/wasnorm_wordpool_less_exclusions.txt	LTP225	ltpFR	1	14	1	MOB	904	n/a	n/a	1	0.57763671875	0.412841796875	1	upper	amplitud.ttf
2558557	WORD	wordpools/wasnorm_wordpool_less_exclusions.txt	LTP225	ltpFR	1	14	1	STAPLE	1371	n/a	n/a	0	0.57763671875	0.412841796875	1	upper	amplitud.ttf
2562655	WORD	wordpools/wasnorm_wordpool_less_exclusions.txt	LTP225	ltpFR	1	14	1	UNIFORM	1539	n/a	n/a	0	0.57763671875	0.412841796875	1	upper	amplitud.ttf
2566627	WORD	wordpools/wasnorm_wordpool_less_exclusions.txt	LTP225	ltpFR	1	14	1	FREEZER	604	n/a	n/a	0	0.57763671875	0.412841796875	1	upper	amplitud.ttf
2572434	REC_START	n/a	LTP225	ltpFR	1	14	n/a	n/a	n/a	n/a	n/a	n/a	n/a	n/a	n/a	n/a	n/a
2574011	REC_WORD	wordpools/wasnorm_wordpool_less_exclusions.txt	LTP225	ltpFR	1	14	1	UNIFORM	1539	n/a	n/a	0	n/a	n/a	n/a	n/a	n/a
2575362	REC_WORD	wordpools/wasnorm_wordpool_less_exclusions.txt	LTP225	ltpFR	1	14	1	FREEZER	604	n/a	n/a	0	n/a	n/a	n/a	n/a	n/a
2576205	REC_WORD	wordpools/wasnorm_wordpool_less_exclusions.txt	LTP225	ltpFR	1	14	1	MOB	904	n/a	n/a	1	n/a	n/a	n/a	n/a	n/a
2577667	REC_WORD	wordpools/wasnorm_wordpool_less_exclusions.txt	LTP225	ltpFR	1	14	1	FARMER	553	n/a	n/a	1	n/a	n/a	n/a	n/a	n/a
2579453	REC_WORD	wordpools/wasnorm_wordpool_less_exclusions.txt	LTP225	ltpFR	1	14	1	PHILOSOPHER	1054	n/a	n/a	1	n/a	n/a	n/a	n/a	n/a
2592164	REC_WORD_VV	wordpools/wasnorm_wordpool_less_exclusions.txt	LTP225	ltpFR	1	14	n/a	<>	-1	n/a	n/a	n/a	n/a	n/a	n/a	n/a	n/a
2593166	REC_WORD_VV	wordpools/wasnorm_wordpool_less_exclusions.txt	LTP225	ltpFR	1	14	n/a	<>	-1	n/a	n/a	n/a	n/a	n/a	n/a	n/a	n/a
2597726	REC_WORD	wordpools/wasnorm_wordpool_less_exclusions.txt	LTP225	ltpFR	1	14	1	BISON	131	n/a	n/a	1	n/a	n/a	n/a	n/a	n/a
2601617	REC_WORD	wordpools/wasnorm_wordpool_less_exclusions.txt	LTP225	ltpFR	1	14	1	HAM	678	n/a	n/a	0	n/a	n/a	n/a	n/a	n/a
2606905	REC_WORD_VV	wordpools/wasnorm_wordpool_less_exclusions.txt	LTP225	ltpFR	1	14	n/a	<>	-1	n/a	n/a	n/a	n/a	n/a	n/a	n/a	n/a
2628192	REC_WORD	wordpools/wasnorm_wordpool_less_exclusions.txt	LTP225	ltpFR	1	14	0	FLIPPER	580	n/a	n/a	1	n/a	n/a	n/a	n/a	n/a
2639076	REC_WORD	wordpools/wasnorm_wordpool_less_exclusions.txt	LTP225	ltpFR	1	14	1	DOUGH	489	n/a	n/a	0	n/a	n/a	n/a	n/a	n/a
2678994	WORD	wordpools/wasnorm_wordpool_less_exclusions.txt	LTP225	ltpFR	1	15	1	WATERFALL	1595	n/a	n/a	0	0.57763671875	0.412841796875	1	upper	amplitud.ttf
2682909	WORD	wordpools/wasnorm_wordpool_less_exclusions.txt	LTP225	ltpFR	1	15	1	CALF	222	n/a	n/a	1	0.57763671875	0.412841796875	1	upper	amplitud.ttf
2686807	WORD	wordpools/wasnorm_wordpool_less_exclusions.txt	LTP225	ltpFR	1	15	0	SADDLE	1221	n/a	n/a	1	0.422607421875	0.5869140625	0	lower	zerothre.ttf
2690879	WORD	wordpools/wasnorm_wordpool_less_exclusions.txt	LTP225	ltpFR	1	15	0	REFEREE	1178	n/a	n/a	1	0.422607421875	0.5869140625	0	lower	zerothre.ttf
2695061	WORD	wordpools/wasnorm_wordpool_less_exclusions.txt	LTP225	ltpFR	1	15	0	LACE	792	n/a	n/a	0	0.422607421875	0.5869140625	0	lower	zerothre.ttf
2699238	WORD	wordpools/wasnorm_wordpool_less_exclusions.txt	LTP225	ltpFR	1	15	0	SHOE	1288	n/a	n/a	0	0.422607421875	0.5869140625	0	lower	zerothre.ttf
2703260	WORD	wordpools/wasnorm_wordpool_less_exclusions.txt	LTP225	ltpFR	1	15	1	TILE	1468	n/a	n/a	0	0.57763671875	0.412841796875	1	upper	amplitud.ttf
2707409	WORD	wordpools/wasnorm_wordpool_less_exclusions.txt	LTP225	ltpFR	1	15	1	PERMIT	1051	n/a	n/a	0	0.57763671875	0.412841796875	1	upper	amplitud.ttf
2711600	WORD	wordpools/wasnorm_wordpool_less_exclusions.txt	LTP225	ltpFR	1	15	1	BASKETBALL	96	n/a	n/a	0	0.57763671875	0.412841796875	1	upper	amplitud.ttf
2715615	WORD	wordpools/wasnorm_wordpool_less_exclusions.txt	LTP225	ltpFR	1	15	0	VOLLEYBALL	1576	n/a	n/a	1	0.422607421875	0.5869140625	0	lower	zerothre.ttf
2719504	WORD	wordpools/wasnorm_wordpool_less_exclusions.txt	LTP225	ltpFR	1	15	0	WHALE	1601	n/a	n/a	1	0.422607421875	0.5869140625	0	lower	zerothre.ttf
2723436	WORD	wordpools/wasnorm_wordpool_less_exclusions.txt	LTP225	ltpFR	1	15	0	CHEERLEADER	288	n/a	n/a	1	0.422607421875	0.5869140625	0	lower	zerothre.ttf
2727377	WORD	wordpools/wasnorm_wordpool_less_exclusions.txt	LTP225	ltpFR	1	15	0	FRECKLE	602	n/a	n/a	0	0.422607421875	0.5869140625	0	lower	zerothre.ttf
2731258	WORD	wordpools/wasnorm_wordpool_less_exclusions.txt	LTP225	ltpFR	1	15	1	OATS	968	n/a	n/a	0	0.57763671875	0.412841796875	1	upper	amplitud.ttf
2735307	WORD	wordpools/wasnorm_wordpool_less_exclusions.txt	LTP225	ltpFR	1	15	1	JUGGLER	763	n/a	n/a	1	0.57763671875	0.412841796875	1	upper	amplitud.ttf
2739329	WORD	wordpools/wasnorm_wordpool_less_exclusions.txt	LTP225	ltpFR	1	15	1	ARTERY	41	n/a	n/a	0	0.57763671875	0.412841796875	1	upper	amplitud.ttf
2745102	REC_START	n/a	LTP225	ltpFR	1	15	n/a	n/a	n/a	n/a	n/a	n/a	n/a	n/a	n/a	n/a	n/a
2746923	REC_WORD	wordpools/wasnorm_wordpool_less_exclusions.txt	LTP225	ltpFR	1	15	1	ARTERY	41	n/a	n/a	0	n/a	n/a	n/a	n/a	n/a
2747726	REC_WORD_VV	wordpools/wasnorm_wordpool_less_exclusions.txt	LTP225	ltpFR	1	15	n/a	<>	-1	n/a	n/a	n/a	n/a	n/a	n/a	n/a	n/a
2748180	REC_WORD	wordpools/wasnorm_wordpool_less_exclusions.txt	LTP225	ltpFR	1	15	1	JUGGLER	763	n/a	n/a	1	n/a	n/a	n/a	n/a	n/a
2751787	REC_WORD	wordpools/wasnorm_wordpool_less_exclusions.txt	LTP225	ltpFR	1	15	0	CHEERLEADER	288	n/a	n/a	1	n/a	n/a	n/a	n/a	n/a
2753512	REC_WORD	wordpools/wasnorm_wordpool_less_exclusions.txt	LTP225	ltpFR	1	15	0	FRECKLE	602	n/a	n/a	0	n/a	n/a	n/a	n/a	n/a
2768207	REC_WORD	wordpools/wasnorm_wordpool_less_exclusions.txt	LTP225	ltpFR	1	15	0	WHALE	1601	n/a	n/a	1	n/a	n/a	n/a	n/a	n/a
2781374	REC_WORD	wordpools/wasnorm_wordpool_less_exclusions.txt	LTP225	ltpFR	1	15	1	ARTERY	41	n/a	n/a	0	n/a	n/a	n/a	n/a	n/a
2810334	REC_WORD	wordpools/wasnorm_wordpool_less_exclusions.txt	LTP225	ltpFR	1	15	1	CALF	222	n/a	n/a	1	n/a	n/a	n/a	n/a	n/a
2819720	REC_WORD	wordpools/wasnorm_wordpool_less_exclusions.txt	LTP225	ltpFR	1	15	1	WATERFALL	1595	n/a	n/a	0	n/a	n/a	n/a	n/a	n/a
2854947	WORD	wordpools/wasnorm_wordpool_less_exclusions.txt	LTP225	ltpFR	1	16	-1	JAW	751	n/a	n/a	-1	1.0	1.0	1	upper	Verdana.ttf
2859147	WORD	wordpools/wasnorm_wordpool_less_exclusions.txt	LTP225	ltpFR	1	16	-1	PRESIDENT	1121	n/a	n/a	-1	1.0	1.0	1	upper	Verdana.ttf
2863155	WORD	wordpools/wasnorm_wordpool_less_exclusions.txt	LTP225	ltpFR	1	16	-1	PLAID	1080	n/a	n/a	-1	1.0	1.0	1	upper	Verdana.ttf
2867228	WORD	wordpools/wasnorm_wordpool_less_exclusions.txt	LTP225	ltpFR	1	16	-1	TAVERN	1437	n/a	n/a	-1	1.0	1.0	1	upper	Verdana.ttf
2871202	WORD	wordpools/wasnorm_wordpool_less_exclusions.txt	LTP225	ltpFR	1	16	-1	ANTEATER	26	n/a	n/a	-1	1.0	1.0	1	upper	Verdana.ttf
2875101	WORD	wordpools/wasnorm_wordpool_less_exclusions.txt	LTP225	ltpFR	1	16	-1	BUTTERFLY	206	n/a	n/a	-1	1.0	1.0	1	upper	Verdana.ttf
2879273	WORD	wordpools/wasnorm_wordpool_less_exclusions.txt	LTP225	ltpFR	1	16	-1	ENVELOPE	537	n/a	n/a	-1	1.0	1.0	1	upper	Verdana.ttf
2883231	WORD	wordpools/wasnorm_wordpool_less_exclusions.txt	LTP225	ltpFR	1	16	-1	WAGON	1578	n/a	n/a	-1	1.0	1.0	1	upper	Verdana.ttf
2887196	WORD	wordpools/wasnorm_wordpool_less_exclusions.txt	LTP225	ltpFR	1	16	-1	STEWARDESS	1381	n/a	n/a	-1	1.0	1.0	1	upper	Verdana.ttf
2891111	WORD	wordpools/wasnorm_wordpool_less_exclusions.txt	LTP225	ltpFR	1	16	-1	RUNNER	1218	n/a	n/a	-1	1.0	1.0	1	upper	Verdana.ttf
2895334	WORD	wordpools/wasnorm_wordpool_less_exclusions.txt	LTP225	ltpFR	1	16	-1	TERMINAL	1450	n/a	n/a	-1	1.0	1.0	1	upper	Verdana.ttf
2899308	WORD	wordpools/wasnorm_wordpool_less_exclusions.txt	LTP225	ltpFR	1	16	-1	PRINTER	1126	n/a	n/a	-1	1.0	1.0	1	upper	Verdana.ttf
2903431	WORD	wordpools/wasnorm_wordpool_less_exclusions.txt	LTP225	ltpFR	1	16	-1	MOUTH	926	n/a	n/a	-1	1.0	1.0	1	upper	Verdana.ttf
2907295	WORD	wordpools/wasnorm_wordpool_less_exclusions.txt	LTP225	ltpFR	1	16	-1	FOLLOWER	589	n/a	n/a	-1	1.0	1.0	1	upper	Verdana.ttf
2911504	WORD	wordpools/wasnorm_wordpool_less_exclusions.txt	LTP225	ltpFR	1	16	-1	PAINTER	1004	n/a	n/a	-1	1.0	1.0	1	upper	Verdana.ttf
2915609	WORD	wordpools/wasnorm_wordpool_less_exclusions.txt	LTP225	ltpFR	1	16	-1	SCULPTURE	1258	n/a	n/a	-1	1.0	1.0	1	upper	Verdana.ttf
2921383	REC_START	n/a	LTP225	ltpFR	1	16	n/a	n/a	n/a	n/a	n/a	n/a	n/a	n/a	n/a	n/a	n/a
2922929	REC_WORD	wordpools/wasnorm_wordpool_less_exclusions.txt	LTP225	ltpFR	1	16	-1	TERMINAL	1450	n/a	n/a	-1	n/a	n/a	n/a	n/a	n/a
2923907	REC_WORD	wordpools/wasnorm_wordpool_less_exclusions.txt	LTP225	ltpFR	1	16	-1	FOLLOWER	589	n/a	n/a	-1	n/a	n/a	n/a	n/a	n/a
2926157	REC_WORD	wordpools/wasnorm_wordpool_less_exclusions.txt	LTP225	ltpFR	1	16	-1	SCULPTURE	1258	n/a	n/a	-1	n/a	n/a	n/a	n/a	n/a
2927644	REC_WORD	wordpools/wasnorm_wordpool_less_exclusions.txt	LTP225	ltpFR	1	16	-1	PRESIDENT	1121	n/a	n/a	-1	n/a	n/a	n/a	n/a	n/a
2931210	REC_WORD	wordpools/wasnorm_wordpool_less_exclusions.txt	LTP225	ltpFR	1	16	1	PAD	998	n/a	n/a	0	n/a	n/a	n/a	n/a	n/a
2932852	REC_WORD	wordpools/wasnorm_wordpool_less_exclusions.txt	LTP225	ltpFR	1	16	-1	TAVERN	1437	n/a	n/a	-1	n/a	n/a	n/a	n/a	n/a
2942320	REC_WORD	wordpools/wasnorm_wordpool_less_exclusions.txt	LTP225	ltpFR	1	16	-1	PLAID	1080	n/a	n/a	-1	n/a	n/a	n/a	n/a	n/a
2953156	REC_WORD	wordpools/wasnorm_wordpool_less_exclusions.txt	LTP225	ltpFR	1	16	-1	PAINTER	1004	n/a	n/a	-1	n/a	n/a	n/a	n/a	n/a
2989039	REC_WORD	wordpools/wasnorm_wordpool_less_exclusions.txt	LTP225	ltpFR	1	16	-1	FOLLOWER	589	n/a	n/a	-1	n/a	n/a	n/a	n/a	n/a
3122307	REC_START	n/a	LTP225	ltpFR	1	1	n/a	n/a	n/a	n/a	n/a	n/a	n/a	n/a	n/a	n/a	n/a
3122366	RECOG_TARGET	n/a	LTP225	ltpFR	1	1	0	FARM	552	1	5	1	n/a	n/a	n/a	n/a	n/a
3123803	RECOG_RESP	n/a	LTP225	ltpFR	1	1	0	FARM	552	1	n/a	1	n/a	n/a	n/a	n/a	n/a
3124942	RECOG_RESP_VV	n/a	LTP225	ltpFR	1	1	0	FARM	552	n/a	5	1	n/a	n/a	n/a	n/a	n/a
3128916	RECOG_CONF	n/a	LTP225	ltpFR	1	1	0	FARM	552	n/a	5	1	n/a	n/a	n/a	n/a	n/a
3134059	RECOG_TARGET	n/a	LTP225	ltpFR	1	1	-1	SCULPTURE	1258	1	5	-1	n/a	n/a	n/a	n/a	n/a
3135615	RECOG_RESP	n/a	LTP225	ltpFR	1	1	-1	SCULPTURE	1258	1	n/a	-1	n/a	n/a	n/a	n/a	n/a
3138063	RECOG_CONF	n/a	LTP225	ltpFR	1	1	-1	SCULPTURE	1258	n/a	5	-1	n/a	n/a	n/a	n/a	n/a
3140133	RECOG_LURE	n/a	LTP225	ltpFR	1	1	n/a	PORPOISE	1109	0	3	n/a	n/a	n/a	n/a	n/a	n/a
3142106	RECOG_RESP	n/a	LTP225	ltpFR	1	1	n/a	PORPOISE	1109	0	n/a	n/a	n/a	n/a	n/a	n/a	n/a
3144808	RECOG_CONF	n/a	LTP225	ltpFR	1	1	n/a	PORPOISE	1109	n/a	3	n/a	n/a	n/a	n/a	n/a	n/a
3147159	RECOG_TARGET	n/a	LTP225	ltpFR	1	1	1	OBOE	969	1	5	0	n/a	n/a	n/a	n/a	n/a
3148569	RECOG_RESP	n/a	LTP225	ltpFR	1	1	1	OBOE	969	1	n/a	0	n/a	n/a	n/a	n/a	n/a
3150646	RECOG_CONF	n/a	LTP225	ltpFR	1	1	1	OBOE	969	n/a	5	0	n/a	n/a	n/a	n/a	n/a
3152636	RECOG_LURE	n/a	LTP225	ltpFR	1	1	n/a	SHUTTER	1300	0	3	n/a	n/a	n/a	n/a	n/a	n/a
3154089	RECOG_RESP	n/a	LTP225	ltpFR	1	1	n/a	SHUTTER	1300	0	n/a	n/a	n/a	n/a	n/a	n/a	n/a
3156607	RECOG_CONF	n/a	LTP225	ltpFR	1	1	n/a	SHUTTER	1300	n/a	3	n/a	n/a	n/a	n/a	n/a	n/a
3158568	RECOG_TARGET	n/a	LTP225	ltpFR	1	1	1	BASKETBALL	96	1	4	0	n/a	n/a	n/a	n/a	n/a
3161097	RECOG_RESP	n/a	LTP225	ltpFR	1	1	1	BASKETBALL	96	1	n/a	0	n/a	n/a	n/a	n/a	n/a
3163008	RECOG_CONF	n/a	LTP225	ltpFR	1	1	1	BASKETBALL	96	n/a	4	0	n/a	n/a	n/a	n/a	n/a
3164448	RECOG_TARGET	n/a	LTP225	ltpFR	1	1	1	SOFA	1342	1	3	0	n/a	n/a	n/a	n/a	n/a
3168202	RECOG_RESP	n/a	LTP225	ltpFR	1	1	1	SOFA	1342	1	n/a	0	n/a	n/a	n/a	n/a	n/a
3170111	RECOG_CONF	n/a	LTP225	ltpFR	1	1	1	SOFA	1342	n/a	3	0	n/a	n/a	n/a	n/a	n/a
3171908	RECOG_TARGET	n/a	LTP225	ltpFR	1	1	-1	BUTTERFLY	206	1	5	-1	n/a	n/a	n/a	n/a	n/a
3173823	RECOG_RESP	n/a	LTP225	ltpFR	1	1	-1	BUTTERFLY	206	1	n/a	-1	n/a	n/a	n/a	n/a	n/a
3175243	RECOG_CONF	n/a	LTP225	ltpFR	1	1	-1	BUTTERFLY	206	n/a	5	-1	n/a	n/a	n/a	n/a	n/a
3177239	RECOG_TARGET	n/a	LTP225	ltpFR	1	1	-1	STEWARDESS	1381	1	5	-1	n/a	n/a	n/a	n/a	n/a
3178634	RECOG_RESP	n/a	LTP225	ltpFR	1	1	-1	STEWARDESS	1381	1	n/a	-1	n/a	n/a	n/a	n/a	n/a
3180092	RECOG_CONF	n/a	LTP225	ltpFR	1	1	-1	STEWARDESS	1381	n/a	5	-1	n/a	n/a	n/a	n/a	n/a
3182375	RECOG_LURE	n/a	LTP225	ltpFR	1	1	n/a	NOTE	958	0	3	n/a	n/a	n/a	n/a	n/a	n/a
3184981	RECOG_RESP	n/a	LTP225	ltpFR	1	1	n/a	NOTE	958	0	n/a	n/a	n/a	n/a	n/a	n/a	n/a
3186648	RECOG_CONF	n/a	LTP225	ltpFR	1	1	n/a	NOTE	958	n/a	3	n/a	n/a	n/a	n/a	n/a	n/a
3188638	RECOG_TARGET	n/a	LTP225	ltpFR	1	1	-1	KEYBOARD	774	1	5	-1	n/a	n/a	n/a	n/a	n/a
3190155	RECOG_RESP	n/a	LTP225	ltpFR	1	1	-1	KEYBOARD	774	1	n/a	-1	n/a	n/a	n/a	n/a	n/a
3191398	RECOG_CONF	n/a	LTP225	ltpFR	1	1	-1	KEYBOARD	774	n/a	5	-1	n/a	n/a	n/a	n/a	n/a
3193407	RECOG_TARGET	n/a	LTP225	ltpFR	1	1	-1	TOWER	1490	0	2	-1	n/a	n/a	n/a	n/a	n/a
3195195	RECOG_RESP	n/a	LTP225	ltpFR	1	1	-1	TOWER	1490	0	n/a	-1	n/a	n/a	n/a	n/a	n/a
3197035	RECOG_CONF	n/a	LTP225	ltpFR	1	1	-1	TOWER	1490	n/a	2	-1	n/a	n/a	n/a	n/a	n/a
3199027	RECOG_TARGET	n/a	LTP225	ltpFR	1	1	-1	DRAGON	492	1	5	-1	n/a	n/a	n/a	n/a	n/a
3200347	RECOG_RESP	n/a	LTP225	ltpFR	1	1	-1	DRAGON	492	1	n/a	-1	n/a	n/a	n/a	n/a	n/a
3201485	RECOG_CONF	n/a	LTP225	ltpFR	1	1	-1	DRAGON	492	n/a	5	-1	n/a	n/a	n/a	n/a	n/a
3203587	RECOG_TARGET	n/a	LTP225	ltpFR	1	1	1	STRING	1394	1	5	0	n/a	n/a	n/a	n/a	n/a
3204848	RECOG_RESP	n/a	LTP225	ltpFR	1	1	1	STRING	1394	1	n/a	0	n/a	n/a	n/a	n/a	n/a
3206255	RECOG_CONF	n/a	LTP225	ltpFR	1	1	1	STRING	1394	n/a	5	0	n/a	n/a	n/a	n/a	n/a
3208647	RECOG_LURE	n/a	LTP225	ltpFR	1	1	n/a	SKIN	1318	0	4	n/a	n/a	n/a	n/a	n/a	n/a
3210141	RECOG_RESP	n/a	LTP225	ltpFR	1	1	n/a	SKIN	1318	0	n/a	n/a	n/a	n/a	n/a	n/a	n/a
3211969	RECOG_CONF	n/a	LTP225	ltpFR	1	1	n/a	SKIN	1318	n/a	4	n/a	n/a	n/a	n/a	n/a	n/a
3213716	RECOG_LURE	n/a	LTP225	ltpFR	1	1	n/a	SNAIL	1332	0	4	n/a	n/a	n/a	n/a	n/a	n/a
3215338	RECOG_RESP	n/a	LTP225	ltpFR	1	1	n/a	SNAIL	1332	0	n/a	n/a	n/a	n/a	n/a	n/a	n/a
3216937	RECOG_CONF	n/a	LTP225	ltpFR	1	1	n/a	SNAIL	1332	n/a	4	n/a	n/a	n/a	n/a	n/a	n/a
3218862	RECOG_TARGET	n/a	LTP225	ltpFR	1	1	1	CALF	222	1	5	1	n/a	n/a	n/a	n/a	n/a
3220322	RECOG_RESP	n/a	LTP225	ltpFR	1	1	1	CALF	222	1	n/a	1	n/a	n/a	n/a	n/a	n/a
3221504	RECOG_CONF	n/a	LTP225	ltpFR	1	1	1	CALF	222	n/a	5	1	n/a	n/a	n/a	n/a	n/a
3223787	RECOG_LURE	n/a	LTP225	ltpFR	1	1	n/a	LAGOON	795	0	5	n/a	n/a	n/a	n/a	n/a	n/a
3225572	RECOG_RESP	n/a	LTP225	ltpFR	1	1	n/a	LAGOON	795	0	n/a	n/a	n/a	n/a	n/a	n/a	n/a
3227074	RECOG_CONF	n/a	LTP225	ltpFR	1	1	n/a	LAGOON	795	n/a	5	n/a	n/a	n/a	n/a	n/a	n/a
3228923	RECOG_LURE	n/a	LTP225	ltpFR	1	1	n/a	CRATER	400	0	4	n/a	n/a	n/a	n/a	n/a	n/a
3230682	RECOG_RESP	n/a	LTP225	ltpFR	1	1	n/a	CRATER	400	0	n/a	n/a	n/a	n/a	n/a	n/a	n/a
3232485	RECOG_CONF	n/a	LTP225	ltpFR	1	1	n/a	CRATER	400	n/a	4	n/a	n/a	n/a	n/a	n/a	n/a
3234421	RECOG_LURE	n/a	LTP225	ltpFR	1	1	n/a	BOTTLE	153	0	3	n/a	n/a	n/a	n/a	n/a	n/a
3235870	RECOG_RESP	n/a	LTP225	ltpFR	1	1	n/a	BOTTLE	153	0	n/a	n/a	n/a	n/a	n/a	n/a	n/a
3237936	RECOG_CONF	n/a	LTP225	ltpFR	1	1	n/a	BOTTLE	153	n/a	3	n/a	n/a	n/a	n/a	n/a	n/a
3281675	REC_START	n/a	LTP225	ltpFR	1	2	n/a	n/a	n/a	n/a	n/a	n/a	n/a	n/a	n/a	n/a	n/a
3281722	RECOG_LURE	n/a	LTP225	ltpFR	1	2	n/a	POLICE	1098	0	3	n/a	n/a	n/a	n/a	n/a	n/a
3283470	RECOG_RESP	n/a	LTP225	ltpFR	1	2	n/a	POLICE	1098	0	n/a	n/a	n/a	n/a	n/a	n/a	n/a
3284511	RECOG_RESP_VV	n/a	LTP225	ltpFR	1	2	n/a	POLICE	1098	n/a	3	n/a	n/a	n/a	n/a	n/a	n/a
3286577	RECOG_CONF	n/a	LTP225	ltpFR	1	2	n/a	POLICE	1098	n/a	3	n/a	n/a	n/a	n/a	n/a	n/a
3288348	RECOG_TARGET	n/a	LTP225	ltpFR	1	2	0	LINT	826	1	5	0	n/a	n/a	n/a	n/a	n/a
3289850	RECOG_RESP	n/a	LTP225	ltpFR	1	2	0	LINT	826	1	n/a	0	n/a	n/a	n/a	n/a	n/a
3290939	RECOG_CONF	n/a	LTP225	ltpFR	1	2	0	LINT	826	n/a	5	0	n/a	n/a	n/a	n/a	n/a
3292914	RECOG_LURE	n/a	LTP225	ltpFR	1	2	n/a	HARP	689	0	4	n/a	n/a	n/a	n/a	n/a	n/a
3294256	RECOG_RESP	n/a	LTP225	ltpFR	1	2	n/a	HARP	689	0	n/a	n/a	n/a	n/a	n/a	n/a	n/a
3296166	RECOG_CONF	n/a	LTP225	ltpFR	1	2	n/a	HARP	689	n/a	4	n/a	n/a	n/a	n/a	n/a	n/a
3298152	RECOG_TARGET	n/a	LTP225	ltpFR	1	2	1	HAMMER	680	0	3	0	n/a	n/a	n/a	n/a	n/a
3300636	RECOG_RESP	n/a	LTP225	ltpFR	1	2	1	HAMMER	680	0	n/a	0	n/a	n/a	n/a	n/a	n/a
3302266	RECOG_CONF	n/a	LTP225	ltpFR	1	2	1	HAMMER	680	n/a	3	0	n/a	n/a	n/a	n/a	n/a
3304208	RECOG_TARGET	n/a	LTP225	ltpFR	1	2	0	POCKETBOOK	1094	1	5	0	n/a	n/a	n/a	n/a	n/a
3306003	RECOG_RESP	n/a	LTP225	ltpFR	1	2	0	POCKETBOOK	1094	1	n/a	0	n/a	n/a	n/a	n/a	n/a
3307074	RECOG_CONF	n/a	LTP225	ltpFR	1	2	0	POCKETBOOK	1094	n/a	5	0	n/a	n/a	n/a	n/a	n/a
3309059	RECOG_LURE	n/a	LTP225	ltpFR	1	2	n/a	FAUCET	555	0	5	n/a	n/a	n/a	n/a	n/a	n/a
3310240	RECOG_RESP	n/a	LTP225	ltpFR	1	2	n/a	FAUCET	555	0	n/a	n/a	n/a	n/a	n/a	n/a	n/a
3311218	RECOG_CONF	n/a	LTP225	ltpFR	1	2	n/a	FAUCET	555	n/a	5	n/a	n/a	n/a	n/a	n/a	n/a
3313376	RECOG_LURE	n/a	LTP225	ltpFR	1	2	n/a	PUMPKIN	1142	0	5	n/a	n/a	n/a	n/a	n/a	n/a
3314615	RECOG_RESP	n/a	LTP225	ltpFR	1	2	n/a	PUMPKIN	1142	0	n/a	n/a	n/a	n/a	n/a	n/a	n/a
3316023	RECOG_CONF	n/a	LTP225	ltpFR	1	2	n/a	PUMPKIN	1142	n/a	5	n/a	n/a	n/a	n/a	n/a	n/a
3317909	RECOG_LURE	n/a	LTP225	ltpFR	1	2	n/a	SCARECROW	1245	0	4	n/a	n/a	n/a	n/a	n/a	n/a
3319268	RECOG_RESP	n/a	LTP225	ltpFR	1	2	n/a	SCARECROW	1245	0	n/a	n/a	n/a	n/a	n/a	n/a	n/a
3321066	RECOG_CONF	n/a	LTP225	ltpFR	1	2	n/a	SCARECROW	1245	n/a	4	n/a	n/a	n/a	n/a	n/a	n/a
3322971	RECOG_LURE	n/a	LTP225	ltpFR	1	2	n/a	CARRIAGE	248	0	3	n/a	n/a	n/a	n/a	n/a	n/a
3324181	RECOG_RESP	n/a	LTP225	ltpFR	1	2	n/a	CARRIAGE	248	0	n/a	n/a	n/a	n/a	n/a	n/a	n/a
3325569	RECOG_CONF	n/a	LTP225	ltpFR	1	2	n/a	CARRIAGE	248	n/a	3	n/a	n/a	n/a	n/a	n/a	n/a
3327395	RECOG_LURE	n/a	LTP225	ltpFR	1	2	n/a	SAILOR	1223	0	4	n/a	n/a	n/a	n/a	n/a	n/a
3328780	RECOG_RESP	n/a	LTP225	ltpFR	1	2	n/a	SAILOR	1223	0	n/a	n/a	n/a	n/a	n/a	n/a	n/a
3330751	RECOG_CONF	n/a	LTP225	ltpFR	1	2	n/a	SAILOR	1223	n/a	4	n/a	n/a	n/a	n/a	n/a	n/a
3332564	RECOG_LURE	n/a	LTP225	ltpFR	1	2	n/a	LAMB	797	0	3	n/a	n/a	n/a	n/a	n/a	n/a
3334397	RECOG_RESP	n/a	LTP225	ltpFR	1	2	n/a	LAMB	797	0	n/a	n/a	n/a	n/a	n/a	n/a	n/a
3335687	RECOG_CONF	n/a	LTP225	ltpFR	1	2	n/a	LAMB	797	n/a	3	n/a	n/a	n/a	n/a	n/a	n/a
3337242	RECOG_TARGET	n/a	LTP225	ltpFR	1	2	1	DANCER	437	1	3	1	n/a	n/a	n/a	n/a	n/a
3341603	RECOG_RESP	n/a	LTP225	ltpFR	1	2	1	DANCER	437	1	n/a	1	n/a	n/a	n/a	n/a	n/a
3343395	RECOG_CONF	n/a	LTP225	ltpFR	1	2	1	DANCER	437	n/a	3	1	n/a	n/a	n/a	n/a	n/a
3345330	RECOG_LURE	n/a	LTP225	ltpFR	1	2	n/a	NAVIGATOR	938	0	2	n/a	n/a	n/a	n/a	n/a	n/a
3346907	RECOG_RESP	n/a	LTP225	ltpFR	1	2	n/a	NAVIGATOR	938	0	n/a	n/a	n/a	n/a	n/a	n/a	n/a
3349403	RECOG_CONF	n/a	LTP225	ltpFR	1	2	n/a	NAVIGATOR	938	n/a	2	n/a	n/a	n/a	n/a	n/a	n/a
3351379	RECOG_TARGET	n/a	LTP225	ltpFR	1	2	1	HOUSE	725	1	4	0	n/a	n/a	n/a	n/a	n/a
3353721	RECOG_RESP	n/a	LTP225	ltpFR	1	2	1	HOUSE	725	1	n/a	0	n/a	n/a	n/a	n/a	n/a
3355431	RECOG_CONF	n/a	LTP225	ltpFR	1	2	1	HOUSE	725	n/a	4	0	n/a	n/a	n/a	n/a	n/a
3357375	RECOG_LURE	n/a	LTP225	ltpFR	1	2	n/a	DOUGHNUT	490	0	3	n/a	n/a	n/a	n/a	n/a	n/a
3358887	RECOG_RESP	n/a	LTP225	ltpFR	1	2	n/a	DOUGHNUT	490	0	n/a	n/a	n/a	n/a	n/a	n/a	n/a
3361092	RECOG_CONF	n/a	LTP225	ltpFR	1	2	n/a	DOUGHNUT	490	n/a	3	n/a	n/a	n/a	n/a	n/a	n/a
3362871	RECOG_TARGET	n/a	LTP225	ltpFR	1	2	1	ARCHITECT	36	0	4	1	n/a	n/a	n/a	n/a	n/a
3364279	RECOG_RESP	n/a	LTP225	ltpFR	1	2	1	ARCHITECT	36	0	n/a	1	n/a	n/a	n/a	n/a	n/a
3366112	RECOG_CONF	n/a	LTP225	ltpFR	1	2	1	ARCHITECT	36	n/a	4	1	n/a	n/a	n/a	n/a	n/a
3368031	RECOG_LURE	n/a	LTP225	ltpFR	1	2	n/a	PERSON	1052	0	3	n/a	n/a	n/a	n/a	n/a	n/a
3370385	RECOG_RESP	n/a	LTP225	ltpFR	1	2	n/a	PERSON	1052	0	n/a	n/a	n/a	n/a	n/a	n/a	n/a
3372343	RECOG_CONF	n/a	LTP225	ltpFR	1	2	n/a	PERSON	1052	n/a	3	n/a	n/a	n/a	n/a	n/a	n/a
3374222	RECOG_TARGET	n/a	LTP225	ltpFR	1	2	0	FRECKLE	602	1	5	0	n/a	n/a	n/a	n/a	n/a
3375659	RECOG_RESP	n/a	LTP225	ltpFR	1	2	0	FRECKLE	602	1	n/a	0	n/a	n/a	n/a	n/a	n/a
3377357	RECOG_CONF	n/a	LTP225	ltpFR	1	2	0	FRECKLE	602	n/a	5	0	n/a	n/a	n/a	n/a	n/a
3379742	RECOG_TARGET	n/a	LTP225	ltpFR	1	2	1	COLT	349	1	5	1	n/a	n/a	n/a	n/a	n/a
3381178	RECOG_RESP	n/a	LTP225	ltpFR	1	2	1	COLT	349	1	n/a	1	n/a	n/a	n/a	n/a	n/a
3382431	RECOG_CONF	n/a	LTP225	ltpFR	1	2	1	COLT	349	n/a	5	1	n/a	n/a	n/a	n/a	n/a
3384487	RECOG_LURE	n/a	LTP225	ltpFR	1	2	n/a	STAMP	1370	0	4	n/a	n/a	n/a	n/a	n/a	n/a
3385660	RECOG_RESP	n/a	LTP225	ltpFR	1	2	n/a	STAMP	1370	0	n/a	n/a	n/a	n/a	n/a	n/a	n/a
3387153	RECOG_CONF	n/a	LTP225	ltpFR	1	2	n/a	STAMP	1370	n/a	4	n/a	n/a	n/a	n/a	n/a	n/a
3394961	REC_START	n/a	LTP225	ltpFR	1	3	n/a	n/a	n/a	n/a	n/a	n/a	n/a	n/a	n/a	n/a	n/a
3395009	RECOG_TARGET	n/a	LTP225	ltpFR	1	3	-1	SAGE	1222	1	3	-1	n/a	n/a	n/a	n/a	n/a
3399228	RECOG_RESP_VV	n/a	LTP225	ltpFR	1	3	-1	SAGE	1222	1	n/a	-1	n/a	n/a	n/a	n/a	n/a
3400366	RECOG_RESP_VV	n/a	LTP225	ltpFR	1	3	-1	SAGE	1222	n/a	3	-1	n/a	n/a	n/a	n/a	n/a
3400974	RECOG_RESP	n/a	LTP225	ltpFR	1	3	-1	SAGE	1222	1	n/a	-1	n/a	n/a	n/a	n/a	n/a
3401752	RECOG_CONF	n/a	LTP225	ltpFR	1	3	-1	SAGE	1222	n/a	3	-1	n/a	n/a	n/a	n/a	n/a
3403114	RECOG_LURE	n/a	LTP225	ltpFR	1	3	n/a	BLOUSE	139	0	4	n/a	n/a	n/a	n/a	n/a	n/a
3404607	RECOG_RESP	n/a	LTP225	ltpFR	1	3	n/a	BLOUSE	139	0	n/a	n/a	n/a	n/a	n/a	n/a	n/a
3406999	RECOG_CONF	n/a	LTP225	ltpFR	1	3	n/a	BLOUSE	139	n/a	4	n/a	n/a	n/a	n/a	n/a	n/a
3408660	RECOG_TARGET	n/a	LTP225	ltpFR	1	3	1	APRON	35	0	3	0	n/a	n/a	n/a	n/a	n/a
3412782	RECOG_RESP	n/a	LTP225	ltpFR	1	3	1	APRON	35	0	n/a	0	n/a	n/a	n/a	n/a	n/a
3414785	RECOG_CONF	n/a	LTP225	ltpFR	1	3	1	APRON	35	n/a	3	0	n/a	n/a	n/a	n/a	n/a
3416590	RECOG_LURE	n/a	LTP225	ltpFR	1	3	n/a	UTENSIL	1542	0	5	n/a	n/a	n/a	n/a	n/a	n/a
3418016	RECOG_RESP	n/a	LTP225	ltpFR	1	3	n/a	UTENSIL	1542	0	n/a	n/a	n/a	n/a	n/a	n/a	n/a
3419677	RECOG_CONF	n/a	LTP225	ltpFR	1	3	n/a	UTENSIL	1542	n/a	5	n/a	n/a	n/a	n/a	n/a	n/a
3421659	RECOG_LURE	n/a	LTP225	ltpFR	1	3	n/a	ARTIST	43	0	3	n/a	n/a	n/a	n/a	n/a	n/a
3423200	RECOG_RESP	n/a	LTP225	ltpFR	1	3	n/a	ARTIST	43	0	n/a	n/a	n/a	n/a	n/a	n/a	n/a
3424837	RECOG_CONF	n/a	LTP225	ltpFR	1	3	n/a	ARTIST	43	n/a	3	n/a	n/a	n/a	n/a	n/a	n/a
3426635	RECOG_LURE	n/a	LTP225	ltpFR	1	3	n/a	YOUTH	1634	0	4	n/a	n/a	n/a	n/a	n/a	n/a
3428110	RECOG_RESP	n/a	LTP225	ltpFR	1	3	n/a	YOUTH	1634	0	n/a	n/a	n/a	n/a	n/a	n/a	n/a
3429827	RECOG_CONF	n/a	LTP225	ltpFR	1	3	n/a	YOUTH	1634	n/a	4	n/a	n/a	n/a	n/a	n/a	n/a
3431654	RECOG_LURE	n/a	LTP225	ltpFR	1	3	n/a	CROSS	413	0	4	n/a	n/a	n/a	n/a	n/a	n/a
3433021	RECOG_RESP	n/a	LTP225	ltpFR	1	3	n/a	CROSS	413	0	n/a	n/a	n/a	n/a	n/a	n/a	n/a
3435545	RECOG_CONF	n/a	LTP225	ltpFR	1	3	n/a	CROSS	413	n/a	4	n/a	n/a	n/a	n/a	n/a	n/a
3437586	RECOG_TARGET	n/a	LTP225	ltpFR	1	3	-1	CAP	236	1	5	-1	n/a	n/a	n/a	n/a	n/a
3439273	RECOG_RESP	n/a	LTP225	ltpFR	1	3	-1	CAP	236	1	n/a	-1	n/a	n/a	n/a	n/a	n/a
3440537	RECOG_CONF	n/a	LTP225	ltpFR	1	3	-1	CAP	236	n/a	5	-1	n/a	n/a	n/a	n/a	n/a
3442645	RECOG_TARGET	n/a	LTP225	ltpFR	1	3	0	SCALPEL	1243	1	5	0	n/a	n/a	n/a	n/a	n/a
3444210	RECOG_RESP	n/a	LTP225	ltpFR	1	3	0	SCALPEL	1243	1	n/a	0	n/a	n/a	n/a	n/a	n/a
3445776	RECOG_CONF	n/a	LTP225	ltpFR	1	3	0	SCALPEL	1243	n/a	5	0	n/a	n/a	n/a	n/a	n/a
3447714	RECOG_TARGET	n/a	LTP225	ltpFR	1	3	-1	CURTAIN	427	0	3	-1	n/a	n/a	n/a	n/a	n/a
3449914	RECOG_RESP	n/a	LTP225	ltpFR	1	3	-1	CURTAIN	427	0	n/a	-1	n/a	n/a	n/a	n/a	n/a
3451810	RECOG_CONF	n/a	LTP225	ltpFR	1	3	-1	CURTAIN	427	n/a	3	-1	n/a	n/a	n/a	n/a	n/a
3452968	RECOG_TARGET	n/a	LTP225	ltpFR	1	3	1	BIRD	129	0	3	1	n/a	n/a	n/a	n/a	n/a
3455284	RECOG_RESP	n/a	LTP225	ltpFR	1	3	1	BIRD	129	0	n/a	1	n/a	n/a	n/a	n/a	n/a
3457055	RECOG_CONF	n/a	LTP225	ltpFR	1	3	1	BIRD	129	n/a	3	1	n/a	n/a	n/a	n/a	n/a
3458840	RECOG_LURE	n/a	LTP225	ltpFR	1	3	n/a	MOTORCYCLE	923	0	5	n/a	n/a	n/a	n/a	n/a	n/a
3460399	RECOG_RESP	n/a	LTP225	ltpFR	1	3	n/a	MOTORCYCLE	923	0	n/a	n/a	n/a	n/a	n/a	n/a	n/a
3461761	RECOG_CONF	n/a	LTP225	ltpFR	1	3	n/a	MOTORCYCLE	923	n/a	5	n/a	n/a	n/a	n/a	n/a	n/a
3463725	RECOG_TARGET	n/a	LTP225	ltpFR	1	3	0	SHELL	1281	1	5	0	n/a	n/a	n/a	n/a	n/a
3467485	RECOG_RESP	n/a	LTP225	ltpFR	1	3	0	SHELL	1281	1	n/a	0	n/a	n/a	n/a	n/a	n/a
3468928	RECOG_CONF	n/a	LTP225	ltpFR	1	3	0	SHELL	1281	n/a	5	0	n/a	n/a	n/a	n/a	n/a
3470952	RECOG_TARGET	n/a	LTP225	ltpFR	1	3	1	BANANA	77	1	5	0	n/a	n/a	n/a	n/a	n/a
3472195	RECOG_RESP	n/a	LTP225	ltpFR	1	3	1	BANANA	77	1	n/a	0	n/a	n/a	n/a	n/a	n/a
3473536	RECOG_CONF	n/a	LTP225	ltpFR	1	3	1	BANANA	77	n/a	5	0	n/a	n/a	n/a	n/a	n/a
3475613	RECOG_LURE	n/a	LTP225	ltpFR	1	3	n/a	EMPLOYEE	531	0	4	n/a	n/a	n/a	n/a	n/a	n/a
3476836	RECOG_RESP	n/a	LTP225	ltpFR	1	3	n/a	EMPLOYEE	531	0	n/a	n/a	n/a	n/a	n/a	n/a	n/a
3478857	RECOG_CONF	n/a	LTP225	ltpFR	1	3	n/a	EMPLOYEE	531	n/a	4	n/a	n/a	n/a	n/a	n/a	n/a
3480789	RECOG_LURE	n/a	LTP225	ltpFR	1	3	n/a	CUBE	420	0	4	n/a	n/a	n/a	n/a	n/a	n/a
3483227	RECOG_RESP	n/a	LTP225	ltpFR	1	3	n/a	CUBE	420	0	n/a	n/a	n/a	n/a	n/a	n/a	n/a
3484880	RECOG_CONF	n/a	LTP225	ltpFR	1	3	n/a	CUBE	420	n/a	4	n/a	n/a	n/a	n/a	n/a	n/a
3486661	RECOG_TARGET	n/a	LTP225	ltpFR	1	3	1	COACH	331	1	5	1	n/a	n/a	n/a	n/a	n/a
3488955	RECOG_RESP	n/a	LTP225	ltpFR	1	3	1	COACH	331	1	n/a	1	n/a	n/a	n/a	n/a	n/a
3490115	RECOG_CONF	n/a	LTP225	ltpFR	1	3	1	COACH	331	n/a	5	1	n/a	n/a	n/a	n/a	n/a
3492200	RECOG_LURE	n/a	LTP225	ltpFR	1	3	n/a	BODY	145	0	3	n/a	n/a	n/a	n/a	n/a	n/a
3493656	RECOG_RESP	n/a	LTP225	ltpFR	1	3	n/a	BODY	145	0	n/a	n/a	n/a	n/a	n/a	n/a	n/a
3495789	RECOG_CONF	n/a	LTP225	ltpFR	1	3	n/a	BODY	145	n/a	3	n/a	n/a	n/a	n/a	n/a	n/a
3497780	RECOG_TARGET	n/a	LTP225	ltpFR	1	3	1	BARN	89	0	4	0	n/a	n/a	n/a	n/a	n/a
3499374	RECOG_RESP	n/a	LTP225	ltpFR	1	3	1	BARN	89	0	n/a	0	n/a	n/a	n/a	n/a	n/a
3500905	RECOG_CONF	n/a	LTP225	ltpFR	1	3	1	BARN	89	n/a	4	0	n/a	n/a	n/a	n/a	n/a
3502856	RECOG_TARGET	n/a	LTP225	ltpFR	1	3	1	PRAIRIE	1118	1	5	0	n/a	n/a	n/a	n/a	n/a
3504643	RECOG_RESP	n/a	LTP225	ltpFR	1	3	1	PRAIRIE	1118	1	n/a	0	n/a	n/a	n/a	n/a	n/a
3505771	RECOG_CONF	n/a	LTP225	ltpFR	1	3	1	PRAIRIE	1118	n/a	5	0	n/a	n/a	n/a	n/a	n/a
3513592	REC_START	n/a	LTP225	ltpFR	1	4	n/a	n/a	n/a	n/a	n/a	n/a	n/a	n/a	n/a	n/a	n/a
3513639	RECOG_LURE	n/a	LTP225	ltpFR	1	4	n/a	FAIRY	549	0	4	n/a	n/a	n/a	n/a	n/a	n/a
3514994	RECOG_RESP	n/a	LTP225	ltpFR	1	4	n/a	FAIRY	549	0	n/a	n/a	n/a	n/a	n/a	n/a	n/a
3516261	RECOG_CONF	n/a	LTP225	ltpFR	1	4	n/a	FAIRY	549	n/a	4	n/a	n/a	n/a	n/a	n/a	n/a
3518046	RECOG_LURE	n/a	LTP225	ltpFR	1	4	n/a	CRIMINAL	409	1	5	n/a	n/a	n/a	n/a	n/a	n/a
3520768	RECOG_RESP	n/a	LTP225	ltpFR	1	4	n/a	CRIMINAL	409	1	n/a	n/a	n/a	n/a	n/a	n/a	n/a
3521695	RECOG_CONF	n/a	LTP225	ltpFR	1	4	n/a	CRIMINAL	409	n/a	5	n/a	n/a	n/a	n/a	n/a	n/a
3523651	RECOG_TARGET	n/a	LTP225	ltpFR	1	4	-1	WAGON	1578	0	3	-1	n/a	n/a	n/a	n/a	n/a
3525472	RECOG_RESP	n/a	LTP225	ltpFR	1	4	-1	WAGON	1578	0	n/a	-1	n/a	n/a	n/a	n/a	n/a
3526567	RECOG_CONF	n/a	LTP225	ltpFR	1	4	-1	WAGON	1578	n/a	3	-1	n/a	n/a	n/a	n/a	n/a
3528386	RECOG_LURE	n/a	LTP225	ltpFR	1	4	n/a	MAGICIAN	854	0	3	n/a	n/a	n/a	n/a	n/a	n/a
3529672	RECOG_RESP	n/a	LTP225	ltpFR	1	4	n/a	MAGICIAN	854	0	n/a	n/a	n/a	n/a	n/a	n/a	n/a
3530956	RECOG_CONF	n/a	LTP225	ltpFR	1	4	n/a	MAGICIAN	854	n/a	3	n/a	n/a	n/a	n/a	n/a	n/a
3532795	RECOG_LURE	n/a	LTP225	ltpFR	1	4	n/a	SHEEP	1278	0	3	n/a	n/a	n/a	n/a	n/a	n/a
3534040	RECOG_RESP	n/a	LTP225	ltpFR	1	4	n/a	SHEEP	1278	0	n/a	n/a	n/a	n/a	n/a	n/a	n/a
3535321	RECOG_CONF	n/a	LTP225	ltpFR	1	4	n/a	SHEEP	1278	n/a	3	n/a	n/a	n/a	n/a	n/a	n/a
3537051	RECOG_TARGET	n/a	LTP225	ltpFR	1	4	1	OCTOPUS	971	0	2	1	n/a	n/a	n/a	n/a	n/a
3538795	RECOG_RESP	n/a	LTP225	ltpFR	1	4	1	OCTOPUS	971	0	n/a	1	n/a	n/a	n/a	n/a	n/a
3541254	RECOG_CONF	n/a	LTP225	ltpFR	1	4	1	OCTOPUS	971	n/a	2	1	n/a	n/a	n/a	n/a	n/a
3543033	RECOG_TARGET	n/a	LTP225	ltpFR	1	4	0	SADDLE	1221	1	5	1	n/a	n/a	n/a	n/a	n/a
3544545	RECOG_RESP	n/a	LTP225	ltpFR	1	4	0	SADDLE	1221	1	n/a	1	n/a	n/a	n/a	n/a	n/a
3545670	RECOG_CONF	n/a	LTP225	ltpFR	1	4	0	SADDLE	1221	n/a	5	1	n/a	n/a	n/a	n/a	n/a
3547875	RECOG_TARGET	n/a	LTP225	ltpFR	1	4	0	DART	440	1	5	0	n/a	n/a	n/a	n/a	n/a
3549686	RECOG_RESP	n/a	LTP225	ltpFR	1	4	0	DART	440	1	n/a	0	n/a	n/a	n/a	n/a	n/a
3550737	RECOG_CONF	n/a	LTP225	ltpFR	1	4	0	DART	440	n/a	5	0	n/a	n/a	n/a	n/a	n/a
3552586	RECOG_TARGET	n/a	LTP225	ltpFR	1	4	0	WRENCH	1625	1	5	0	n/a	n/a	n/a	n/a	n/a
3553596	RECOG_RESP	n/a	LTP225	ltpFR	1	4	0	WRENCH	1625	1	n/a	0	n/a	n/a	n/a	n/a	n/a
3555048	RECOG_CONF	n/a	LTP225	ltpFR	1	4	0	WRENCH	1625	n/a	5	0	n/a	n/a	n/a	n/a	n/a
3557104	RECOG_LURE	n/a	LTP225	ltpFR	1	4	n/a	NERVE	944	0	4	n/a	n/a	n/a	n/a	n/a	n/a
3558244	RECOG_RESP	n/a	LTP225	ltpFR	1	4	n/a	NERVE	944	0	n/a	n/a	n/a	n/a	n/a	n/a	n/a
3560218	RECOG_CONF	n/a	LTP225	ltpFR	1	4	n/a	NERVE	944	n/a	4	n/a	n/a	n/a	n/a	n/a	n/a
3562045	RECOG_TARGET	n/a	LTP225	ltpFR	1	4	-1	REPORT	1184	0	3	-1	n/a	n/a	n/a	n/a	n/a
3564752	RECOG_RESP	n/a	LTP225	ltpFR	1	4	-1	REPORT	1184	0	n/a	-1	n/a	n/a	n/a	n/a	n/a
3566507	RECOG_CONF	n/a	LTP225	ltpFR	1	4	-1	REPORT	1184	n/a	3	-1	n/a	n/a	n/a	n/a	n/a
3568397	RECOG_LURE	n/a	LTP225	ltpFR	1	4	n/a	BEET	115	0	4	n/a	n/a	n/a	n/a	n/a	n/a
3569934	RECOG_RESP	n/a	LTP225	ltpFR	1	4	n/a	BEET	115	0	n/a	n/a	n/a	n/a	n/a	n/a	n/a
3572074	RECOG_CONF	n/a	LTP225	ltpFR	1	4	n/a	BEET	115	n/a	4	n/a	n/a	n/a	n/a	n/a	n/a
3573933	RECOG_LURE	n/a	LTP225	ltpFR	1	4	n/a	CREW	406	0	4	n/a	n/a	n/a	n/a	n/a	n/a
3575192	RECOG_RESP	n/a	LTP225	ltpFR	1	4	n/a	CREW	406	0	n/a	n/a	n/a	n/a	n/a	n/a	n/a
3576616	RECOG_CONF	n/a	LTP225	ltpFR	1	4	n/a	CREW	406	n/a	4	n/a	n/a	n/a	n/a	n/a	n/a
3578675	RECOG_LURE	n/a	LTP225	ltpFR	1	4	n/a	OFFICER	973	0	4	n/a	n/a	n/a	n/a	n/a	n/a
3579927	RECOG_RESP	n/a	LTP225	ltpFR	1	4	n/a	OFFICER	973	0	n/a	n/a	n/a	n/a	n/a	n/a	n/a
3581600	RECOG_CONF	n/a	LTP225	ltpFR	1	4	n/a	OFFICER	973	n/a	4	n/a	n/a	n/a	n/a	n/a	n/a
3583586	RECOG_TARGET	n/a	LTP225	ltpFR	1	4	-1	BEAN	105	0	2	-1	n/a	n/a	n/a	n/a	n/a
3587738	RECOG_RESP	n/a	LTP225	ltpFR	1	4	-1	BEAN	105	0	n/a	-1	n/a	n/a	n/a	n/a	n/a
3590368	RECOG_CONF	n/a	LTP225	ltpFR	1	4	-1	BEAN	105	n/a	2	-1	n/a	n/a	n/a	n/a	n/a
3592354	RECOG_TARGET	n/a	LTP225	ltpFR	1	4	0	GIRAFFE	636	1	5	1	n/a	n/a	n/a	n/a	n/a
3593553	RECOG_RESP	n/a	LTP225	ltpFR	1	4	0	GIRAFFE	636	1	n/a	1	n/a	n/a	n/a	n/a	n/a
3594839	RECOG_CONF	n/a	LTP225	ltpFR	1	4	0	GIRAFFE	636	n/a	5	1	n/a	n/a	n/a	n/a	n/a
3596987	RECOG_TARGET	n/a	LTP225	ltpFR	1	4	0	BUFFALO	186	1	5	1	n/a	n/a	n/a	n/a	n/a
3597941	RECOG_RESP	n/a	LTP225	ltpFR	1	4	0	BUFFALO	186	1	n/a	1	n/a	n/a	n/a	n/a	n/a
3599388	RECOG_CONF	n/a	LTP225	ltpFR	1	4	0	BUFFALO	186	n/a	5	1	n/a	n/a	n/a	n/a	n/a
3602926	RECOG_TARGET	n/a	LTP225	ltpFR	1	4	-1	SNEAKER	1334	0	3	-1	n/a	n/a	n/a	n/a	n/a
3605344	RECOG_RESP	n/a	LTP225	ltpFR	1	4	-1	SNEAKER	1334	0	n/a	-1	n/a	n/a	n/a	n/a	n/a
3606588	RECOG_CONF	n/a	LTP225	ltpFR	1	4	-1	SNEAKER	1334	n/a	3	-1	n/a	n/a	n/a	n/a	n/a
3608681	RECOG_TARGET	n/a	LTP225	ltpFR	1	4	0	PALACE	1006	1	5	n/a	n/a	n/a	n/a	n/a	n/a
3610838	RECOG_RESP	n/a	LTP225	ltpFR	1	4	0	PALACE	1006	1	n/a	n/a	n/a	n/a	n/a	n/a	n/a
3612064	RECOG_CONF	n/a	LTP225	ltpFR	1	4	0	PALACE	1006	n/a	5	n/a	n/a	n/a	n/a	n/a	n/a
3614320	RECOG_LURE	n/a	LTP225	ltpFR	1	4	n/a	CAMEL	223	0	5	n/a	n/a	n/a	n/a	n/a	n/a
3615521	RECOG_RESP	n/a	LTP225	ltpFR	1	4	n/a	CAMEL	223	0	n/a	n/a	n/a	n/a	n/a	n/a	n/a
3616747	RECOG_CONF	n/a	LTP225	ltpFR	1	4	n/a	CAMEL	223	n/a	5	n/a	n/a	n/a	n/a	n/a	n/a
3623490	REC_START	n/a	LTP225	ltpFR	1	5	n/a	n/a	n/a	n/a	n/a	n/a	n/a	n/a	n/a	n/a	n/a
3623544	RECOG_LURE	n/a	LTP225	ltpFR	1	5	n/a	PENDULUM	1043	0	4	n/a	n/a	n/a	n/a	n/a	n/a
3625172	RECOG_RESP	n/a	LTP225	ltpFR	1	5	n/a	PENDULUM	1043	0	n/a	n/a	n/a	n/a	n/a	n/a	n/a
3626438	RECOG_CONF	n/a	LTP225	ltpFR	1	5	n/a	PENDULUM	1043	n/a	4	n/a	n/a	n/a	n/a	n/a	n/a
3628256	RECOG_LURE	n/a	LTP225	ltpFR	1	5	n/a	MALL	860	0	4	n/a	n/a	n/a	n/a	n/a	n/a
3629619	RECOG_RESP	n/a	LTP225	ltpFR	1	5	n/a	MALL	860	0	n/a	n/a	n/a	n/a	n/a	n/a	n/a
3631268	RECOG_CONF	n/a	LTP225	ltpFR	1	5	n/a	MALL	860	n/a	4	n/a	n/a	n/a	n/a	n/a	n/a
3633482	RECOG_TARGET	n/a	LTP225	ltpFR	1	5	-1	FOREHEAD	592	0	4	-1	n/a	n/a	n/a	n/a	n/a
3634712	RECOG_RESP	n/a	LTP225	ltpFR	1	5	-1	FOREHEAD	592	0	n/a	-1	n/a	n/a	n/a	n/a	n/a
3636057	RECOG_CONF	n/a	LTP225	ltpFR	1	5	-1	FOREHEAD	592	n/a	4	-1	n/a	n/a	n/a	n/a	n/a
3637864	RECOG_TARGET	n/a	LTP225	ltpFR	1	5	1	GLASS	639	1	5	0	n/a	n/a	n/a	n/a	n/a
3639422	RECOG_RESP	n/a	LTP225	ltpFR	1	5	1	GLASS	639	1	n/a	0	n/a	n/a	n/a	n/a	n/a
3640511	RECOG_CONF	n/a	LTP225	ltpFR	1	5	1	GLASS	639	n/a	5	0	n/a	n/a	n/a	n/a	n/a
3642242	RECOG_LURE	n/a	LTP225	ltpFR	1	5	n/a	KLEENEX	782	0	5	n/a	n/a	n/a	n/a	n/a	n/a
3643423	RECOG_RESP	n/a	LTP225	ltpFR	1	5	n/a	KLEENEX	782	0	n/a	n/a	n/a	n/a	n/a	n/a	n/a
3645167	RECOG_CONF	n/a	LTP225	ltpFR	1	5	n/a	KLEENEX	782	n/a	5	n/a	n/a	n/a	n/a	n/a	n/a
3646815	RECOG_LURE	n/a	LTP225	ltpFR	1	5	n/a	EUROPE	541	0	5	n/a	n/a	n/a	n/a	n/a	n/a
3647955	RECOG_RESP	n/a	LTP225	ltpFR	1	5	n/a	EUROPE	541	0	n/a	n/a	n/a	n/a	n/a	n/a	n/a
3649168	RECOG_CONF	n/a	LTP225	ltpFR	1	5	n/a	EUROPE	541	n/a	5	n/a	n/a	n/a	n/a	n/a	n/a
3651047	RECOG_TARGET	n/a	LTP225	ltpFR	1	5	1	FREEZER	604	1	5	0	n/a	n/a	n/a	n/a	n/a
3652278	RECOG_RESP	n/a	LTP225	ltpFR	1	5	1	FREEZER	604	1	n/a	0	n/a	n/a	n/a	n/a	n/a
3653439	RECOG_CONF	n/a	LTP225	ltpFR	1	5	1	FREEZER	604	n/a	5	0	n/a	n/a	n/a	n/a	n/a
3655365	RECOG_LURE	n/a	LTP225	ltpFR	1	5	n/a	COWBOY	395	0	3	n/a	n/a	n/a	n/a	n/a	n/a
3656521	RECOG_RESP	n/a	LTP225	ltpFR	1	5	n/a	COWBOY	395	0	n/a	n/a	n/a	n/a	n/a	n/a	n/a
3659162	RECOG_CONF	n/a	LTP225	ltpFR	1	5	n/a	COWBOY	395	n/a	3	n/a	n/a	n/a	n/a	n/a	n/a
3661146	RECOG_TARGET	n/a	LTP225	ltpFR	1	5	-1	SPY	1360	1	5	-1	n/a	n/a	n/a	n/a	n/a
3662645	RECOG_RESP	n/a	LTP225	ltpFR	1	5	-1	SPY	1360	1	n/a	-1	n/a	n/a	n/a	n/a	n/a
3663741	RECOG_CONF	n/a	LTP225	ltpFR	1	5	-1	SPY	1360	n/a	5	-1	n/a	n/a	n/a	n/a	n/a
3665703	RECOG_LURE	n/a	LTP225	ltpFR	1	5	n/a	SIREN	1310	0	4	n/a	n/a	n/a	n/a	n/a	n/a
3666784	RECOG_RESP	n/a	LTP225	ltpFR	1	5	n/a	SIREN	1310	0	n/a	n/a	n/a	n/a	n/a	n/a	n/a
3668288	RECOG_CONF	n/a	LTP225	ltpFR	1	5	n/a	SIREN	1310	n/a	4	n/a	n/a	n/a	n/a	n/a	n/a
3670154	RECOG_LURE	n/a	LTP225	ltpFR	1	5	n/a	MICROPHONE	890	0	4	n/a	n/a	n/a	n/a	n/a	n/a
3671470	RECOG_RESP	n/a	LTP225	ltpFR	1	5	n/a	MICROPHONE	890	0	n/a	n/a	n/a	n/a	n/a	n/a	n/a
3672746	RECOG_CONF	n/a	LTP225	ltpFR	1	5	n/a	MICROPHONE	890	n/a	4	n/a	n/a	n/a	n/a	n/a	n/a
3674613	RECOG_TARGET	n/a	LTP225	ltpFR	1	5	0	HIGHWAY	707	1	5	1	n/a	n/a	n/a	n/a	n/a
3675891	RECOG_RESP	n/a	LTP225	ltpFR	1	5	0	HIGHWAY	707	1	n/a	1	n/a	n/a	n/a	n/a	n/a
3677030	RECOG_CONF	n/a	LTP225	ltpFR	1	5	0	HIGHWAY	707	n/a	5	1	n/a	n/a	n/a	n/a	n/a
3679197	RECOG_TARGET	n/a	LTP225	ltpFR	1	5	1	KING	777	1	5	1	n/a	n/a	n/a	n/a	n/a
3680466	RECOG_RESP	n/a	LTP225	ltpFR	1	5	1	KING	777	1	n/a	1	n/a	n/a	n/a	n/a	n/a
3681623	RECOG_CONF	n/a	LTP225	ltpFR	1	5	1	KING	777	n/a	5	1	n/a	n/a	n/a	n/a	n/a
3683603	RECOG_LURE	n/a	LTP225	ltpFR	1	5	n/a	BRUISE	180	0	4	n/a	n/a	n/a	n/a	n/a	n/a
3684852	RECOG_RESP	n/a	LTP225	ltpFR	1	5	n/a	BRUISE	180	0	n/a	n/a	n/a	n/a	n/a	n/a	n/a
3686384	RECOG_CONF	n/a	LTP225	ltpFR	1	5	n/a	BRUISE	180	n/a	4	n/a	n/a	n/a	n/a	n/a	n/a
3688198	RECOG_LURE	n/a	LTP225	ltpFR	1	5	n/a	PEDAL	1037	0	4	n/a	n/a	n/a	n/a	n/a	n/a
3689601	RECOG_RESP	n/a	LTP225	ltpFR	1	5	n/a	PEDAL	1037	0	n/a	n/a	n/a	n/a	n/a	n/a	n/a
3690963	RECOG_CONF	n/a	LTP225	ltpFR	1	5	n/a	PEDAL	1037	n/a	4	n/a	n/a	n/a	n/a	n/a	n/a
3693015	RECOG_LURE	n/a	LTP225	ltpFR	1	5	n/a	SIGNATURE	1306	0	5	n/a	n/a	n/a	n/a	n/a	n/a
3694268	RECOG_RESP	n/a	LTP225	ltpFR	1	5	n/a	SIGNATURE	1306	0	n/a	n/a	n/a	n/a	n/a	n/a	n/a
3695431	RECOG_CONF	n/a	LTP225	ltpFR	1	5	n/a	SIGNATURE	1306	n/a	5	n/a	n/a	n/a	n/a	n/a	n/a
3697406	RECOG_TARGET	n/a	LTP225	ltpFR	1	5	0	BOARD	143	0	3	1	n/a	n/a	n/a	n/a	n/a
3701527	RECOG_RESP	n/a	LTP225	ltpFR	1	5	0	BOARD	143	0	n/a	1	n/a	n/a	n/a	n/a	n/a
3703761	RECOG_CONF	n/a	LTP225	ltpFR	1	5	0	BOARD	143	n/a	3	1	n/a	n/a	n/a	n/a	n/a
3705897	RECOG_LURE	n/a	LTP225	ltpFR	1	5	n/a	BLOCKADE	137	0	3	n/a	n/a	n/a	n/a	n/a	n/a
3707339	RECOG_RESP	n/a	LTP225	ltpFR	1	5	n/a	BLOCKADE	137	0	n/a	n/a	n/a	n/a	n/a	n/a	n/a
3709137	RECOG_CONF	n/a	LTP225	ltpFR	1	5	n/a	BLOCKADE	137	n/a	3	n/a	n/a	n/a	n/a	n/a	n/a
3710990	RECOG_TARGET	n/a	LTP225	ltpFR	1	5	-1	MAGAZINE	853	1	5	-1	n/a	n/a	n/a	n/a	n/a
3712545	RECOG_RESP	n/a	LTP225	ltpFR	1	5	-1	MAGAZINE	853	1	n/a	-1	n/a	n/a	n/a	n/a	n/a
3713775	RECOG_CONF	n/a	LTP225	ltpFR	1	5	-1	MAGAZINE	853	n/a	5	-1	n/a	n/a	n/a	n/a	n/a
3715942	RECOG_LURE	n/a	LTP225	ltpFR	1	5	n/a	VILLAIN	1567	0	4	n/a	n/a	n/a	n/a	n/a	n/a
3716993	RECOG_RESP	n/a	LTP225	ltpFR	1	5	n/a	VILLAIN	1567	0	n/a	n/a	n/a	n/a	n/a	n/a	n/a
3718299	RECOG_CONF	n/a	LTP225	ltpFR	1	5	n/a	VILLAIN	1567	n/a	4	n/a	n/a	n/a	n/a	n/a	n/a
3750235	REC_START	n/a	LTP225	ltpFR	1	6	n/a	n/a	n/a	n/a	n/a	n/a	n/a	n/a	n/a	n/a	n/a
3750289	RECOG_LURE	n/a	LTP225	ltpFR	1	6	n/a	THUMB	1462	0	3	n/a	n/a	n/a	n/a	n/a	n/a
3751679	RECOG_RESP	n/a	LTP225	ltpFR	1	6	n/a	THUMB	1462	0	n/a	n/a	n/a	n/a	n/a	n/a	n/a
3753243	RECOG_CONF	n/a	LTP225	ltpFR	1	6	n/a	THUMB	1462	n/a	3	n/a	n/a	n/a	n/a	n/a	n/a
3754839	RECOG_LURE	n/a	LTP225	ltpFR	1	6	n/a	CIGARETTE	309	0	4	n/a	n/a	n/a	n/a	n/a	n/a
3755871	RECOG_RESP	n/a	LTP225	ltpFR	1	6	n/a	CIGARETTE	309	0	n/a	n/a	n/a	n/a	n/a	n/a	n/a
3757552	RECOG_CONF	n/a	LTP225	ltpFR	1	6	n/a	CIGARETTE	309	n/a	4	n/a	n/a	n/a	n/a	n/a	n/a
3759273	RECOG_TARGET	n/a	LTP225	ltpFR	1	6	-1	WHEEL	1603	1	5	-1	n/a	n/a	n/a	n/a	n/a
3760534	RECOG_RESP	n/a	LTP225	ltpFR	1	6	-1	WHEEL	1603	1	n/a	-1	n/a	n/a	n/a	n/a	n/a
3761613	RECOG_CONF	n/a	LTP225	ltpFR	1	6	-1	WHEEL	1603	n/a	5	-1	n/a	n/a	n/a	n/a	n/a
3763638	RECOG_TARGET	n/a	LTP225	ltpFR	1	6	-1	FOLLOWER	589	1	4	-1	n/a	n/a	n/a	n/a	n/a
3766390	RECOG_RESP	n/a	LTP225	ltpFR	1	6	-1	FOLLOWER	589	1	n/a	-1	n/a	n/a	n/a	n/a	n/a
3767667	RECOG_CONF	n/a	LTP225	ltpFR	1	6	-1	FOLLOWER	589	n/a	4	-1	n/a	n/a	n/a	n/a	n/a
3769795	RECOG_TARGET	n/a	LTP225	ltpFR	1	6	1	ASH	44	1	5	0	n/a	n/a	n/a	n/a	n/a
3770914	RECOG_RESP	n/a	LTP225	ltpFR	1	6	1	ASH	44	1	n/a	0	n/a	n/a	n/a	n/a	n/a
3772010	RECOG_CONF	n/a	LTP225	ltpFR	1	6	1	ASH	44	n/a	5	0	n/a	n/a	n/a	n/a	n/a
3773877	RECOG_TARGET	n/a	LTP225	ltpFR	1	6	0	COD	340	1	5	0	n/a	n/a	n/a	n/a	n/a
3774979	RECOG_RESP	n/a	LTP225	ltpFR	1	6	0	COD	340	1	n/a	0	n/a	n/a	n/a	n/a	n/a
3776300	RECOG_CONF	n/a	LTP225	ltpFR	1	6	0	COD	340	n/a	5	0	n/a	n/a	n/a	n/a	n/a
3778104	RECOG_TARGET	n/a	LTP225	ltpFR	1	6	0	COMMANDER	354	1	4	1	n/a	n/a	n/a	n/a	n/a
3779716	RECOG_RESP	n/a	LTP225	ltpFR	1	6	0	COMMANDER	354	1	n/a	1	n/a	n/a	n/a	n/a	n/a
3780885	RECOG_CONF	n/a	LTP225	ltpFR	1	6	0	COMMANDER	354	n/a	4	1	n/a	n/a	n/a	n/a	n/a
3782777	RECOG_LURE	n/a	LTP225	ltpFR	1	6	n/a	KEEPER	769	0	3	n/a	n/a	n/a	n/a	n/a	n/a
3784125	RECOG_RESP	n/a	LTP225	ltpFR	1	6	n/a	KEEPER	769	0	n/a	n/a	n/a	n/a	n/a	n/a	n/a
3786285	RECOG_CONF	n/a	LTP225	ltpFR	1	6	n/a	KEEPER	769	n/a	3	n/a	n/a	n/a	n/a	n/a	n/a
3788249	RECOG_TARGET	n/a	LTP225	ltpFR	1	6	-1	RUNNER	1218	1	3	-1	n/a	n/a	n/a	n/a	n/a
3791042	RECOG_RESP	n/a	LTP225	ltpFR	1	6	-1	RUNNER	1218	1	n/a	-1	n/a	n/a	n/a	n/a	n/a
3792513	RECOG_CONF	n/a	LTP225	ltpFR	1	6	-1	RUNNER	1218	n/a	3	-1	n/a	n/a	n/a	n/a	n/a
3794514	RECOG_LURE	n/a	LTP225	ltpFR	1	6	n/a	SCIENTIST	1249	0	4	n/a	n/a	n/a	n/a	n/a	n/a
3796527	RECOG_RESP	n/a	LTP225	ltpFR	1	6	n/a	SCIENTIST	1249	0	n/a	n/a	n/a	n/a	n/a	n/a	n/a
3798471	RECOG_CONF	n/a	LTP225	ltpFR	1	6	n/a	SCIENTIST	1249	n/a	4	n/a	n/a	n/a	n/a	n/a	n/a
3800404	RECOG_TARGET	n/a	LTP225	ltpFR	1	6	1	DICTATOR	462	1	5	1	n/a	n/a	n/a	n/a	n/a
3803061	RECOG_RESP	n/a	LTP225	ltpFR	1	6	1	DICTATOR	462	1	n/a	1	n/a	n/a	n/a	n/a	n/a
3804438	RECOG_CONF	n/a	LTP225	ltpFR	1	6	1	DICTATOR	462	n/a	5	1	n/a	n/a	n/a	n/a	n/a
3806360	RECOG_TARGET	n/a	LTP225	ltpFR	1	6	0	SPONGE	1355	1	4	0	n/a	n/a	n/a	n/a	n/a
3809389	RECOG_RESP	n/a	LTP225	ltpFR	1	6	0	SPONGE	1355	1	n/a	0	n/a	n/a	n/a	n/a	n/a
3810581	RECOG_CONF	n/a	LTP225	ltpFR	1	6	0	SPONGE	1355	n/a	4	0	n/a	n/a	n/a	n/a	n/a
3812539	RECOG_LURE	n/a	LTP225	ltpFR	1	6	n/a	GRIZZLY	662	1	2	n/a	n/a	n/a	n/a	n/a	n/a
3816322	RECOG_RESP	n/a	LTP225	ltpFR	1	6	n/a	GRIZZLY	662	1	n/a	n/a	n/a	n/a	n/a	n/a	n/a
3818393	RECOG_CONF	n/a	LTP225	ltpFR	1	6	n/a	GRIZZLY	662	n/a	2	n/a	n/a	n/a	n/a	n/a	n/a
3820413	RECOG_LURE	n/a	LTP225	ltpFR	1	6	n/a	FEMALE	559	1	3	n/a	n/a	n/a	n/a	n/a	n/a
3823090	RECOG_RESP	n/a	LTP225	ltpFR	1	6	n/a	FEMALE	559	1	n/a	n/a	n/a	n/a	n/a	n/a	n/a
3825486	RECOG_CONF	n/a	LTP225	ltpFR	1	6	n/a	FEMALE	559	n/a	3	n/a	n/a	n/a	n/a	n/a	n/a
3827146	RECOG_LURE	n/a	LTP225	ltpFR	1	6	n/a	PEDESTRIAN	1038	0	4	n/a	n/a	n/a	n/a	n/a	n/a
3829017	RECOG_RESP	n/a	LTP225	ltpFR	1	6	n/a	PEDESTRIAN	1038	0	n/a	n/a	n/a	n/a	n/a	n/a	n/a
3830214	RECOG_CONF	n/a	LTP225	ltpFR	1	6	n/a	PEDESTRIAN	1038	n/a	4	n/a	n/a	n/a	n/a	n/a	n/a
3832023	RECOG_LURE	n/a	LTP225	ltpFR	1	6	n/a	RECIPE	1175	0	3	n/a	n/a	n/a	n/a	n/a	n/a
3833280	RECOG_RESP	n/a	LTP225	ltpFR	1	6	n/a	RECIPE	1175	0	n/a	n/a	n/a	n/a	n/a	n/a	n/a
3834456	RECOG_CONF	n/a	LTP225	ltpFR	1	6	n/a	RECIPE	1175	n/a	3	n/a	n/a	n/a	n/a	n/a	n/a
3836273	RECOG_LURE	n/a	LTP225	ltpFR	1	6	n/a	CANDIDATE	228	0	4	n/a	n/a	n/a	n/a	n/a	n/a
3837536	RECOG_RESP	n/a	LTP225	ltpFR	1	6	n/a	CANDIDATE	228	0	n/a	n/a	n/a	n/a	n/a	n/a	n/a
3839885	RECOG_CONF	n/a	LTP225	ltpFR	1	6	n/a	CANDIDATE	228	n/a	4	n/a	n/a	n/a	n/a	n/a	n/a
3841666	RECOG_TARGET	n/a	LTP225	ltpFR	1	6	0	SCENERY	1247	1	5	1	n/a	n/a	n/a	n/a	n/a
3843113	RECOG_RESP	n/a	LTP225	ltpFR	1	6	0	SCENERY	1247	1	n/a	1	n/a	n/a	n/a	n/a	n/a
3844216	RECOG_CONF	n/a	LTP225	ltpFR	1	6	0	SCENERY	1247	n/a	5	1	n/a	n/a	n/a	n/a	n/a
3846194	RECOG_TARGET	n/a	LTP225	ltpFR	1	6	1	JELLO	754	1	5	0	n/a	n/a	n/a	n/a	n/a
3848291	RECOG_RESP	n/a	LTP225	ltpFR	1	6	1	JELLO	754	1	n/a	0	n/a	n/a	n/a	n/a	n/a
3849664	RECOG_CONF	n/a	LTP225	ltpFR	1	6	1	JELLO	754	n/a	5	0	n/a	n/a	n/a	n/a	n/a
3851653	RECOG_TARGET	n/a	LTP225	ltpFR	1	6	0	SALIVA	1226	1	5	0	n/a	n/a	n/a	n/a	n/a
3852793	RECOG_RESP	n/a	LTP225	ltpFR	1	6	0	SALIVA	1226	1	n/a	0	n/a	n/a	n/a	n/a	n/a
3854111	RECOG_CONF	n/a	LTP225	ltpFR	1	6	0	SALIVA	1226	n/a	5	0	n/a	n/a	n/a	n/a	n/a
3861760	REC_START	n/a	LTP225	ltpFR	1	7	n/a	n/a	n/a	n/a	n/a	n/a	n/a	n/a	n/a	n/a	n/a
3861808	RECOG_LURE	n/a	LTP225	ltpFR	1	7	n/a	FIREMAN	569	0	3	n/a	n/a	n/a	n/a	n/a	n/a
3863301	RECOG_RESP	n/a	LTP225	ltpFR	1	7	n/a	FIREMAN	569	0	n/a	n/a	n/a	n/a	n/a	n/a	n/a
3864469	RECOG_CONF	n/a	LTP225	ltpFR	1	7	n/a	FIREMAN	569	n/a	3	n/a	n/a	n/a	n/a	n/a	n/a
3866303	RECOG_LURE	n/a	LTP225	ltpFR	1	7	n/a	POPE	1105	0	4	n/a	n/a	n/a	n/a	n/a	n/a
3868183	RECOG_RESP	n/a	LTP225	ltpFR	1	7	n/a	POPE	1105	0	n/a	n/a	n/a	n/a	n/a	n/a	n/a
3869993	RECOG_CONF	n/a	LTP225	ltpFR	1	7	n/a	POPE	1105	n/a	4	n/a	n/a	n/a	n/a	n/a	n/a
3871880	RECOG_TARGET	n/a	LTP225	ltpFR	1	7	1	DAD	433	1	5	1	n/a	n/a	n/a	n/a	n/a
3873852	RECOG_RESP	n/a	LTP225	ltpFR	1	7	1	DAD	433	1	n/a	1	n/a	n/a	n/a	n/a	n/a
3875051	RECOG_CONF	n/a	LTP225	ltpFR	1	7	1	DAD	433	n/a	5	1	n/a	n/a	n/a	n/a	n/a
3876959	RECOG_LURE	n/a	LTP225	ltpFR	1	7	n/a	BUCKLE	185	0	3	n/a	n/a	n/a	n/a	n/a	n/a
3878182	RECOG_RESP	n/a	LTP225	ltpFR	1	7	n/a	BUCKLE	185	0	n/a	n/a	n/a	n/a	n/a	n/a	n/a
3879350	RECOG_CONF	n/a	LTP225	ltpFR	1	7	n/a	BUCKLE	185	n/a	3	n/a	n/a	n/a	n/a	n/a	n/a
3881343	RECOG_TARGET	n/a	LTP225	ltpFR	1	7	1	ELEPHANT	523	1	5	3	n/a	n/a	n/a	n/a	n/a
3882756	RECOG_RESP	n/a	LTP225	ltpFR	1	7	1	ELEPHANT	523	1	n/a	3	n/a	n/a	n/a	n/a	n/a
3884148	RECOG_CONF	n/a	LTP225	ltpFR	1	7	1	ELEPHANT	523	n/a	5	3	n/a	n/a	n/a	n/a	n/a
3886094	RECOG_LURE	n/a	LTP225	ltpFR	1	7	n/a	TAPIOCA	1434	0	4	n/a	n/a	n/a	n/a	n/a	n/a
3887180	RECOG_RESP	n/a	LTP225	ltpFR	1	7	n/a	TAPIOCA	1434	0	n/a	n/a	n/a	n/a	n/a	n/a	n/a
3888407	RECOG_CONF	n/a	LTP225	ltpFR	1	7	n/a	TAPIOCA	1434	n/a	4	n/a	n/a	n/a	n/a	n/a	n/a
3890360	RECOG_TARGET	n/a	LTP225	ltpFR	1	7	-1	GOVERNOR	651	1	5	-1	n/a	n/a	n/a	n/a	n/a
3891757	RECOG_RESP	n/a	LTP225	ltpFR	1	7	-1	GOVERNOR	651	1	n/a	-1	n/a	n/a	n/a	n/a	n/a
3893017	RECOG_CONF	n/a	LTP225	ltpFR	1	7	-1	GOVERNOR	651	n/a	5	-1	n/a	n/a	n/a	n/a	n/a
3894909	RECOG_LURE	n/a	LTP225	ltpFR	1	7	n/a	WINGS	1614	0	3	n/a	n/a	n/a	n/a	n/a	n/a
3896012	RECOG_RESP	n/a	LTP225	ltpFR	1	7	n/a	WINGS	1614	0	n/a	n/a	n/a	n/a	n/a	n/a	n/a
3897400	RECOG_CONF	n/a	LTP225	ltpFR	1	7	n/a	WINGS	1614	n/a	3	n/a	n/a	n/a	n/a	n/a	n/a
3899418	RECOG_TARGET	n/a	LTP225	ltpFR	1	7	0	MINK	897	1	5	1	n/a	n/a	n/a	n/a	n/a
3900698	RECOG_RESP	n/a	LTP225	ltpFR	1	7	0	MINK	897	1	n/a	1	n/a	n/a	n/a	n/a	n/a
3901688	RECOG_CONF	n/a	LTP225	ltpFR	1	7	0	MINK	897	n/a	5	1	n/a	n/a	n/a	n/a	n/a
3903592	RECOG_LURE	n/a	LTP225	ltpFR	1	7	n/a	PIANO	1057	0	5	n/a	n/a	n/a	n/a	n/a	n/a
3904530	RECOG_RESP	n/a	LTP225	ltpFR	1	7	n/a	PIANO	1057	0	n/a	n/a	n/a	n/a	n/a	n/a	n/a
3905727	RECOG_CONF	n/a	LTP225	ltpFR	1	7	n/a	PIANO	1057	n/a	5	n/a	n/a	n/a	n/a	n/a	n/a
3907631	RECOG_LURE	n/a	LTP225	ltpFR	1	7	n/a	CUSTARD	429	0	3	n/a	n/a	n/a	n/a	n/a	n/a
3908723	RECOG_RESP_VV	n/a	LTP225	ltpFR	1	7	n/a	CUSTARD	429	1	n/a	n/a	n/a	n/a	n/a	n/a	n/a
3909715	RECOG_RESP	n/a	LTP225	ltpFR	1	7	n/a	CUSTARD	429	0	n/a	n/a	n/a	n/a	n/a	n/a	n/a
3912329	RECOG_CONF	n/a	LTP225	ltpFR	1	7	n/a	CUSTARD	429	n/a	3	n/a	n/a	n/a	n/a	n/a	n/a
3914183	RECOG_TARGET	n/a	LTP225	ltpFR	1	7	-1	CAGE	218	1	4	-1	n/a	n/a	n/a	n/a	n/a
3915912	RECOG_RESP	n/a	LTP225	ltpFR	1	7	-1	CAGE	218	1	n/a	-1	n/a	n/a	n/a	n/a	n/a
3917065	RECOG_CONF	n/a	LTP225	ltpFR	1	7	-1	CAGE	218	n/a	4	-1	n/a	n/a	n/a	n/a	n/a
3919092	RECOG_TARGET	n/a	LTP225	ltpFR	1	7	0	ELECTRON	522	1	5	0	n/a	n/a	n/a	n/a	n/a
