onset	duration	trial_type	sample	stim_file	subject	experiment	session	trial	task	item_name	item_num	recog_resp	recog_conf	resp	color_r	color_g	color_b	case	font
339.934	n/a	SESS_START	169967	n/a	LTP154	ltpFR	2	n/a	n/a	n/a	n/a	1	2	n/a	n/a	n/a	n/a	n/a	n/a
477.668	n/a	WORD	238834	wordpools/wasnorm_wordpool.txt	LTP154	ltpFR	2	1	1	WOLF	1619	0	n/a	1	0.422607421875	0.5869140625	0	lower	zerothre.ttf
481.858	n/a	WORD	240929	wordpools/wasnorm_wordpool.txt	LTP154	ltpFR	2	1	1	JACKET	747	n/a	n/a	0	0.422607421875	0.5869140625	0	lower	zerothre.ttf
485.982	n/a	WORD	242991	wordpools/wasnorm_wordpool.txt	LTP154	ltpFR	2	1	1	PUDDLE	1140	n/a	n/a	0	0.422607421875	0.5869140625	0	lower	zerothre.ttf
489.88	n/a	WORD	244940	wordpools/wasnorm_wordpool.txt	LTP154	ltpFR	2	1	0	TREAD	1499	n/a	n/a	1	0.57763671875	0.412841796875	1	upper	amplitud.ttf
493.938	n/a	WORD	246969	wordpools/wasnorm_wordpool.txt	LTP154	ltpFR	2	1	0	POLICE	1098	n/a	n/a	1	0.57763671875	0.412841796875	1	upper	amplitud.ttf
497.812	n/a	WORD	248906	wordpools/wasnorm_wordpool.txt	LTP154	ltpFR	2	1	0	OTTER	986	n/a	n/a	1	0.57763671875	0.412841796875	1	upper	amplitud.ttf
501.67	n/a	WORD	250835	wordpools/wasnorm_wordpool.txt	LTP154	ltpFR	2	1	1	DIAGRAM	456	n/a	n/a	0	0.422607421875	0.5869140625	0	lower	zerothre.ttf
505.858	n/a	WORD	252929	wordpools/wasnorm_wordpool.txt	LTP154	ltpFR	2	1	1	VESSEL	1558	n/a	n/a	0	0.422607421875	0.5869140625	0	lower	zerothre.ttf
509.926	n/a	WORD	254963	wordpools/wasnorm_wordpool.txt	LTP154	ltpFR	2	1	1	PIER	1063	n/a	n/a	0	0.422607421875	0.5869140625	0	lower	zerothre.ttf
513.824	n/a	WORD	256912	wordpools/wasnorm_wordpool.txt	LTP154	ltpFR	2	1	0	TOAST	1471	n/a	n/a	1	0.57763671875	0.412841796875	1	upper	amplitud.ttf
517.988	n/a	WORD	258994	wordpools/wasnorm_wordpool.txt	LTP154	ltpFR	2	1	0	UNIVERSITY	1541	n/a	n/a	1	0.57763671875	0.412841796875	1	upper	amplitud.ttf
521.962	n/a	WORD	260981	wordpools/wasnorm_wordpool.txt	LTP154	ltpFR	2	1	0	DESIGNER	451	n/a	n/a	1	0.57763671875	0.412841796875	1	upper	amplitud.ttf
526.12	n/a	WORD	263060	wordpools/wasnorm_wordpool.txt	LTP154	ltpFR	2	1	0	COW	393	n/a	n/a	1	0.57763671875	0.412841796875	1	upper	amplitud.ttf
530.118	n/a	WORD	265059	wordpools/wasnorm_wordpool.txt	LTP154	ltpFR	2	1	0	RAM	1165	n/a	n/a	n/a	0.57763671875	0.412841796875	1	upper	amplitud.ttf
533.142	n/a	SLOW_MSG	266571	n/a	LTP154	ltpFR	2	1	n/a	n/a	n/a	n/a	n/a	n/a	n/a	n/a	n/a	n/a	n/a
535.784	n/a	WORD	267892	wordpools/wasnorm_wordpool.txt	LTP154	ltpFR	2	1	1	MASCARA	875	n/a	n/a	0	0.422607421875	0.5869140625	0	lower	zerothre.ttf
539.6	n/a	WORD	269800	wordpools/wasnorm_wordpool.txt	LTP154	ltpFR	2	1	1	PICTURE	1061	n/a	n/a	0	0.422607421875	0.5869140625	0	lower	zerothre.ttf
545.29	n/a	REC_START	272645	n/a	LTP154	ltpFR	2	1	n/a	n/a	n/a	n/a	n/a	n/a	n/a	n/a	n/a	n/a	n/a
546.178	n/a	REC_WORD	273089	wordpools/wasnorm_wordpool.txt	LTP154	ltpFR	2	1	1	PICTURE	1061	n/a	n/a	0	n/a	n/a	n/a	n/a	n/a
546.856	n/a	REC_WORD	273428	wordpools/wasnorm_wordpool.txt	LTP154	ltpFR	2	1	1	MASCARA	875	n/a	n/a	0	n/a	n/a	n/a	n/a	n/a
548.318	n/a	REC_WORD	274159	wordpools/wasnorm_wordpool.txt	LTP154	ltpFR	2	1	0	RAM	1165	n/a	n/a	n/a	n/a	n/a	n/a	n/a	n/a
555.308	n/a	REC_WORD	277654	wordpools/wasnorm_wordpool.txt	LTP154	ltpFR	2	1	1	WOLF	1619	n/a	n/a	1	n/a	n/a	n/a	n/a	n/a
563.814	n/a	REC_WORD	281907	wordpools/wasnorm_wordpool.txt	LTP154	ltpFR	2	1	1	VESSEL	1558	n/a	n/a	0	n/a	n/a	n/a	n/a	n/a
576.25	n/a	REC_WORD	288125	wordpools/wasnorm_wordpool.txt	LTP154	ltpFR	2	1	0	UNIVERSITY	1541	n/a	n/a	1	n/a	n/a	n/a	n/a	n/a
607.742	n/a	REC_WORD	303871	wordpools/wasnorm_wordpool.txt	LTP154	ltpFR	2	1	0	COW	393	n/a	n/a	1	n/a	n/a	n/a	n/a	n/a
635.678	n/a	WORD	317839	wordpools/wasnorm_wordpool.txt	LTP154	ltpFR	2	2	0	CROW	414	n/a	n/a	1	0.57763671875	0.412841796875	1	upper	amplitud.ttf
639.802	n/a	WORD	319901	wordpools/wasnorm_wordpool.txt	LTP154	ltpFR	2	2	0	ORCHID	982	n/a	n/a	1	0.57763671875	0.412841796875	1	upper	amplitud.ttf
643.652	n/a	WORD	321826	wordpools/wasnorm_wordpool.txt	LTP154	ltpFR	2	2	1	CUE	422	n/a	n/a	0	0.422607421875	0.5869140625	0	lower	zerothre.ttf
647.766	n/a	WORD	323883	wordpools/wasnorm_wordpool.txt	LTP154	ltpFR	2	2	1	SALAD	1224	n/a	n/a	0	0.422607421875	0.5869140625	0	lower	zerothre.ttf
651.74	n/a	WORD	325870	wordpools/wasnorm_wordpool.txt	LTP154	ltpFR	2	2	1	GROCERY	664	n/a	n/a	0	0.422607421875	0.5869140625	0	lower	zerothre.ttf
655.956	n/a	WORD	327978	wordpools/wasnorm_wordpool.txt	LTP154	ltpFR	2	2	0	BARREL	91	n/a	n/a	1	0.57763671875	0.412841796875	1	upper	amplitud.ttf
659.92	n/a	WORD	329960	wordpools/wasnorm_wordpool.txt	LTP154	ltpFR	2	2	0	MOTH	920	n/a	n/a	0	0.57763671875	0.412841796875	1	upper	amplitud.ttf
663.828	n/a	WORD	331914	wordpools/wasnorm_wordpool.txt	LTP154	ltpFR	2	2	0	GERM	632	n/a	n/a	0	0.57763671875	0.412841796875	1	upper	amplitud.ttf
667.768	n/a	WORD	333884	wordpools/wasnorm_wordpool.txt	LTP154	ltpFR	2	2	1	VIRUS	1572	n/a	n/a	1	0.422607421875	0.5869140625	0	lower	zerothre.ttf
671.942	n/a	WORD	335971	wordpools/wasnorm_wordpool.txt	LTP154	ltpFR	2	2	1	DINER	467	n/a	n/a	0	0.422607421875	0.5869140625	0	lower	zerothre.ttf
675.832	n/a	WORD	337916	wordpools/wasnorm_wordpool.txt	LTP154	ltpFR	2	2	1	MICROWAVE	892	n/a	n/a	0	0.422607421875	0.5869140625	0	lower	zerothre.ttf
679.806	n/a	WORD	339903	wordpools/wasnorm_wordpool.txt	LTP154	ltpFR	2	2	1	GARDEN	623	n/a	n/a	1	0.422607421875	0.5869140625	0	lower	zerothre.ttf
684.014	n/a	WORD	342007	wordpools/wasnorm_wordpool.txt	LTP154	ltpFR	2	2	1	PUB	1135	n/a	n/a	0	0.422607421875	0.5869140625	0	lower	zerothre.ttf
688.07	n/a	WORD	344035	wordpools/wasnorm_wordpool.txt	LTP154	ltpFR	2	2	0	VOLCANO	1575	n/a	n/a	1	0.57763671875	0.412841796875	1	upper	amplitud.ttf
692.086	n/a	WORD	346043	wordpools/wasnorm_wordpool.txt	LTP154	ltpFR	2	2	0	WAVE	1596	n/a	n/a	1	0.57763671875	0.412841796875	1	upper	amplitud.ttf
696.176	n/a	WORD	348088	wordpools/wasnorm_wordpool.txt	LTP154	ltpFR	2	2	0	OCTOPUS	971	n/a	n/a	1	0.57763671875	0.412841796875	1	upper	amplitud.ttf
701.876	n/a	REC_START	350938	n/a	LTP154	ltpFR	2	2	n/a	n/a	n/a	n/a	n/a	n/a	n/a	n/a	n/a	n/a	n/a
702.844	n/a	REC_WORD	351422	wordpools/wasnorm_wordpool.txt	LTP154	ltpFR	2	2	0	OCTOPUS	971	n/a	n/a	1	n/a	n/a	n/a	n/a	n/a
703.642	n/a	REC_WORD	351821	wordpools/wasnorm_wordpool.txt	LTP154	ltpFR	2	2	0	WAVE	1596	n/a	n/a	1	n/a	n/a	n/a	n/a	n/a
704.1	n/a	REC_WORD	352050	wordpools/wasnorm_wordpool.txt	LTP154	ltpFR	2	2	0	VOLCANO	1575	n/a	n/a	1	n/a	n/a	n/a	n/a	n/a
713.02	n/a	REC_WORD	356510	wordpools/wasnorm_wordpool.txt	LTP154	ltpFR	2	2	1	DINER	467	n/a	n/a	0	n/a	n/a	n/a	n/a	n/a
713.992	n/a	REC_WORD	356996	wordpools/wasnorm_wordpool.txt	LTP154	ltpFR	2	2	1	VIRUS	1572	n/a	n/a	1	n/a	n/a	n/a	n/a	n/a
716.592	n/a	REC_WORD_VV	358296	wordpools/wasnorm_wordpool.txt	LTP154	ltpFR	2	2	n/a	<>	-1	n/a	n/a	n/a	n/a	n/a	n/a	n/a	n/a
718.892	n/a	REC_WORD	359446	wordpools/wasnorm_wordpool.txt	LTP154	ltpFR	2	2	1	PUB	1135	n/a	n/a	0	n/a	n/a	n/a	n/a	n/a
720.34	n/a	REC_WORD	360170	wordpools/wasnorm_wordpool.txt	LTP154	ltpFR	2	2	1	MICROWAVE	892	n/a	n/a	0	n/a	n/a	n/a	n/a	n/a
722.53	n/a	REC_WORD	361265	wordpools/wasnorm_wordpool.txt	LTP154	ltpFR	2	2	1	GROCERY	664	n/a	n/a	0	n/a	n/a	n/a	n/a	n/a
723.198	n/a	REC_WORD	361599	wordpools/wasnorm_wordpool.txt	LTP154	ltpFR	2	2	1	SALAD	1224	n/a	n/a	0	n/a	n/a	n/a	n/a	n/a
734.332	n/a	REC_WORD	367166	wordpools/wasnorm_wordpool.txt	LTP154	ltpFR	2	2	1	GARDEN	623	n/a	n/a	1	n/a	n/a	n/a	n/a	n/a
834.57	n/a	WORD	417285	wordpools/wasnorm_wordpool.txt	LTP154	ltpFR	2	3	1	SUMMIT	1405	n/a	n/a	0	0.422607421875	0.5869140625	0	lower	zerothre.ttf
838.774	n/a	WORD	419387	wordpools/wasnorm_wordpool.txt	LTP154	ltpFR	2	3	1	BRACES	164	n/a	n/a	0	0.422607421875	0.5869140625	0	lower	zerothre.ttf
842.79	n/a	WORD	421395	wordpools/wasnorm_wordpool.txt	LTP154	ltpFR	2	3	1	CREW	406	n/a	n/a	0	0.422607421875	0.5869140625	0	lower	zerothre.ttf
846.78	n/a	WORD	423390	wordpools/wasnorm_wordpool.txt	LTP154	ltpFR	2	3	1	GIRAFFE	636	n/a	n/a	1	0.422607421875	0.5869140625	0	lower	zerothre.ttf
850.738	n/a	WORD	425369	wordpools/wasnorm_wordpool.txt	LTP154	ltpFR	2	3	0	UNIVERSE	1540	n/a	n/a	1	0.57763671875	0.412841796875	1	upper	amplitud.ttf
854.588	n/a	WORD	427294	wordpools/wasnorm_wordpool.txt	LTP154	ltpFR	2	3	0	CAN	225	n/a	n/a	0	0.57763671875	0.412841796875	1	upper	amplitud.ttf
858.536	n/a	WORD	429268	wordpools/wasnorm_wordpool.txt	LTP154	ltpFR	2	3	0	SPIT	1354	n/a	n/a	0	0.57763671875	0.412841796875	1	upper	amplitud.ttf
862.718	n/a	WORD	431359	wordpools/wasnorm_wordpool.txt	LTP154	ltpFR	2	3	0	VAN	1548	n/a	n/a	1	0.57763671875	0.412841796875	1	upper	amplitud.ttf
866.592	n/a	WORD	433296	wordpools/wasnorm_wordpool.txt	LTP154	ltpFR	2	3	0	CHAUFFEUR	283	n/a	n/a	1	0.57763671875	0.412841796875	1	upper	amplitud.ttf
870.574	n/a	WORD	435287	wordpools/wasnorm_wordpool.txt	LTP154	ltpFR	2	3	0	DIME	466	n/a	n/a	0	0.57763671875	0.412841796875	1	upper	amplitud.ttf
874.682	n/a	WORD	437341	wordpools/wasnorm_wordpool.txt	LTP154	ltpFR	2	3	1	CANNON	232	n/a	n/a	0	0.422607421875	0.5869140625	0	lower	zerothre.ttf
878.872	n/a	WORD	439436	wordpools/wasnorm_wordpool.txt	LTP154	ltpFR	2	3	1	RIFLE	1192	n/a	n/a	0	0.422607421875	0.5869140625	0	lower	zerothre.ttf
883.028	n/a	WORD	441514	wordpools/wasnorm_wordpool.txt	LTP154	ltpFR	2	3	0	GOLD	647	n/a	n/a	1	0.57763671875	0.412841796875	1	upper	amplitud.ttf
886.994	n/a	WORD	443497	wordpools/wasnorm_wordpool.txt	LTP154	ltpFR	2	3	0	VICTIM	1562	n/a	n/a	1	0.57763671875	0.412841796875	1	upper	amplitud.ttf
891.126	n/a	WORD	445563	wordpools/wasnorm_wordpool.txt	LTP154	ltpFR	2	3	1	THORN	1459	n/a	n/a	0	0.422607421875	0.5869140625	0	lower	zerothre.ttf
895.142	n/a	WORD	447571	wordpools/wasnorm_wordpool.txt	LTP154	ltpFR	2	3	1	PORT	1110	n/a	n/a	0	0.422607421875	0.5869140625	0	lower	zerothre.ttf
900.714	n/a	REC_START	450357	n/a	LTP154	ltpFR	2	3	n/a	n/a	n/a	n/a	n/a	n/a	n/a	n/a	n/a	n/a	n/a
901.238	n/a	REC_WORD	450619	wordpools/wasnorm_wordpool.txt	LTP154	ltpFR	2	3	1	THORN	1459	n/a	n/a	0	n/a	n/a	n/a	n/a	n/a
902.376	n/a	REC_WORD	451188	wordpools/wasnorm_wordpool.txt	LTP154	ltpFR	2	3	1	PORT	1110	n/a	n/a	0	n/a	n/a	n/a	n/a	n/a
912.124	n/a	REC_WORD	456062	wordpools/wasnorm_wordpool.txt	LTP154	ltpFR	2	3	0	UNIVERSE	1540	n/a	n/a	1	n/a	n/a	n/a	n/a	n/a
917.298	n/a	REC_WORD	458649	wordpools/wasnorm_wordpool.txt	LTP154	ltpFR	2	3	1	RIFLE	1192	n/a	n/a	0	n/a	n/a	n/a	n/a	n/a
918.206	n/a	REC_WORD	459103	wordpools/wasnorm_wordpool.txt	LTP154	ltpFR	2	3	1	CANNON	232	n/a	n/a	0	n/a	n/a	n/a	n/a	n/a
924.406	n/a	REC_WORD	462203	wordpools/wasnorm_wordpool.txt	LTP154	ltpFR	2	3	1	GIRAFFE	636	n/a	n/a	1	n/a	n/a	n/a	n/a	n/a
958.616	n/a	REC_WORD	479308	wordpools/wasnorm_wordpool.txt	LTP154	ltpFR	2	3	1	PORT	1110	n/a	n/a	0	n/a	n/a	n/a	n/a	n/a
969.232	n/a	REC_WORD	484616	wordpools/wasnorm_wordpool.txt	LTP154	ltpFR	2	3	0	CHAUFFEUR	283	n/a	n/a	1	n/a	n/a	n/a	n/a	n/a
971.488	n/a	REC_WORD	485744	wordpools/wasnorm_wordpool.txt	LTP154	ltpFR	2	3	0	VAN	1548	n/a	n/a	1	n/a	n/a	n/a	n/a	n/a
1036.532	n/a	WORD	518266	wordpools/wasnorm_wordpool.txt	LTP154	ltpFR	2	4	0	FENCE	560	n/a	n/a	1	0.57763671875	0.412841796875	1	upper	amplitud.ttf
1040.566	n/a	WORD	520283	wordpools/wasnorm_wordpool.txt	LTP154	ltpFR	2	4	0	INDIAN	736	n/a	n/a	1	0.57763671875	0.412841796875	1	upper	amplitud.ttf
1044.656	n/a	WORD	522328	wordpools/wasnorm_wordpool.txt	LTP154	ltpFR	2	4	0	DESSERT	453	n/a	n/a	1	0.57763671875	0.412841796875	1	upper	amplitud.ttf
1048.512	n/a	WORD	524256	wordpools/wasnorm_wordpool.txt	LTP154	ltpFR	2	4	1	BED	110	n/a	n/a	0	0.422607421875	0.5869140625	0	lower	zerothre.ttf
1052.394	n/a	WORD	526197	wordpools/wasnorm_wordpool.txt	LTP154	ltpFR	2	4	1	CLOSET	326	n/a	n/a	0	0.422607421875	0.5869140625	0	lower	zerothre.ttf
1056.276	n/a	WORD	528138	wordpools/wasnorm_wordpool.txt	LTP154	ltpFR	2	4	0	LIVER	833	n/a	n/a	1	0.57763671875	0.412841796875	1	upper	amplitud.ttf
1060.316	n/a	WORD	530158	wordpools/wasnorm_wordpool.txt	LTP154	ltpFR	2	4	0	RESTAURANT	1187	n/a	n/a	1	0.57763671875	0.412841796875	1	upper	amplitud.ttf
1064.382	n/a	WORD	532191	wordpools/wasnorm_wordpool.txt	LTP154	ltpFR	2	4	1	BEAVER	109	n/a	n/a	1	0.422607421875	0.5869140625	0	lower	zerothre.ttf
1068.356	n/a	WORD	534178	wordpools/wasnorm_wordpool.txt	LTP154	ltpFR	2	4	1	KANGAROO	768	n/a	n/a	1	0.422607421875	0.5869140625	0	lower	zerothre.ttf
1072.228	n/a	WORD	536114	wordpools/wasnorm_wordpool.txt	LTP154	ltpFR	2	4	1	TAPIOCA	1434	n/a	n/a	0	0.422607421875	0.5869140625	0	lower	zerothre.ttf
1076.344	n/a	WORD	538172	wordpools/wasnorm_wordpool.txt	LTP154	ltpFR	2	4	1	TENT	1449	n/a	n/a	0	0.422607421875	0.5869140625	0	lower	zerothre.ttf
1080.252	n/a	WORD	540126	wordpools/wasnorm_wordpool.txt	LTP154	ltpFR	2	4	1	PISTOL	1075	n/a	n/a	0	0.422607421875	0.5869140625	0	lower	zerothre.ttf
1084.334	n/a	WORD	542167	wordpools/wasnorm_wordpool.txt	LTP154	ltpFR	2	4	1	GUN	673	n/a	n/a	0	0.422607421875	0.5869140625	0	lower	zerothre.ttf
1088.166	n/a	WORD	544083	wordpools/wasnorm_wordpool.txt	LTP154	ltpFR	2	4	0	SWORD	1423	n/a	n/a	1	0.57763671875	0.412841796875	1	upper	amplitud.ttf
1092.232	n/a	WORD	546116	wordpools/wasnorm_wordpool.txt	LTP154	ltpFR	2	4	0	KITTEN	780	n/a	n/a	0	0.57763671875	0.412841796875	1	upper	amplitud.ttf
1096.288	n/a	WORD	548144	wordpools/wasnorm_wordpool.txt	LTP154	ltpFR	2	4	0	TAIL	1430	n/a	n/a	0	0.57763671875	0.412841796875	1	upper	amplitud.ttf
1102.162	n/a	REC_START	551081	n/a	LTP154	ltpFR	2	4	n/a	n/a	n/a	n/a	n/a	n/a	n/a	n/a	n/a	n/a	n/a
1103.304	n/a	REC_WORD	551652	wordpools/wasnorm_wordpool.txt	LTP154	ltpFR	2	4	0	TAIL	1430	n/a	n/a	0	n/a	n/a	n/a	n/a	n/a
1104.028	n/a	REC_WORD	552014	wordpools/wasnorm_wordpool.txt	LTP154	ltpFR	2	4	0	KITTEN	780	n/a	n/a	0	n/a	n/a	n/a	n/a	n/a
1107.48	n/a	REC_WORD	553740	wordpools/wasnorm_wordpool.txt	LTP154	ltpFR	2	4	1	BEAVER	109	n/a	n/a	1	n/a	n/a	n/a	n/a	n/a
1109.016	n/a	REC_WORD	554508	wordpools/wasnorm_wordpool.txt	LTP154	ltpFR	2	4	0	LIVER	833	n/a	n/a	1	n/a	n/a	n/a	n/a	n/a
1111.646	n/a	REC_WORD	555823	wordpools/wasnorm_wordpool.txt	LTP154	ltpFR	2	4	1	GUN	673	n/a	n/a	0	n/a	n/a	n/a	n/a	n/a
1112.224	n/a	REC_WORD	556112	wordpools/wasnorm_wordpool.txt	LTP154	ltpFR	2	4	1	PISTOL	1075	n/a	n/a	0	n/a	n/a	n/a	n/a	n/a
1117.972	n/a	REC_WORD	558986	wordpools/wasnorm_wordpool.txt	LTP154	ltpFR	2	4	0	RESTAURANT	1187	n/a	n/a	1	n/a	n/a	n/a	n/a	n/a
1134.056	n/a	REC_WORD	567028	wordpools/wasnorm_wordpool.txt	LTP154	ltpFR	2	4	0	SWORD	1423	n/a	n/a	1	n/a	n/a	n/a	n/a	n/a
1140.522	n/a	REC_WORD	570261	wordpools/wasnorm_wordpool.txt	LTP154	ltpFR	2	4	1	BED	110	n/a	n/a	0	n/a	n/a	n/a	n/a	n/a
1141.216	n/a	REC_WORD	570608	wordpools/wasnorm_wordpool.txt	LTP154	ltpFR	2	4	1	CLOSET	326	n/a	n/a	0	n/a	n/a	n/a	n/a	n/a
1150.05	n/a	REC_WORD	575025	wordpools/wasnorm_wordpool.txt	LTP154	ltpFR	2	4	0	FENCE	560	n/a	n/a	1	n/a	n/a	n/a	n/a	n/a
1151.474	n/a	REC_WORD	575737	wordpools/wasnorm_wordpool.txt	LTP154	ltpFR	2	4	0	INDIAN	736	n/a	n/a	1	n/a	n/a	n/a	n/a	n/a
1192.026	n/a	WORD	596013	wordpools/wasnorm_wordpool.txt	LTP154	ltpFR	2	5	1	HERD	705	n/a	n/a	1	0.422607421875	0.5869140625	0	lower	zerothre.ttf
1195.924	n/a	WORD	597962	wordpools/wasnorm_wordpool.txt	LTP154	ltpFR	2	5	1	SANDWICH	1232	n/a	n/a	0	0.422607421875	0.5869140625	0	lower	zerothre.ttf
1199.882	n/a	WORD	599941	wordpools/wasnorm_wordpool.txt	LTP154	ltpFR	2	5	1	BATTERY	101	n/a	n/a	0	0.422607421875	0.5869140625	0	lower	zerothre.ttf
1204.08	n/a	WORD	602040	wordpools/wasnorm_wordpool.txt	LTP154	ltpFR	2	5	1	PHILOSOPHER	1054	n/a	n/a	1	0.422607421875	0.5869140625	0	lower	zerothre.ttf
1208.154	n/a	WORD	604077	wordpools/wasnorm_wordpool.txt	LTP154	ltpFR	2	5	1	BUFFALO	186	n/a	n/a	1	0.422607421875	0.5869140625	0	lower	zerothre.ttf
1212.254	n/a	WORD	606127	wordpools/wasnorm_wordpool.txt	LTP154	ltpFR	2	5	1	CABBAGE	210	n/a	n/a	1	0.422607421875	0.5869140625	0	lower	zerothre.ttf
1216.378	n/a	WORD	608189	wordpools/wasnorm_wordpool.txt	LTP154	ltpFR	2	5	1	LIST	830	n/a	n/a	0	0.422607421875	0.5869140625	0	lower	zerothre.ttf
1220.476	n/a	WORD	610238	wordpools/wasnorm_wordpool.txt	LTP154	ltpFR	2	5	1	NAPKIN	937	n/a	n/a	0	0.422607421875	0.5869140625	0	lower	zerothre.ttf
1224.534	n/a	WORD	612267	wordpools/wasnorm_wordpool.txt	LTP154	ltpFR	2	5	1	NIECE	952	n/a	n/a	1	0.422607421875	0.5869140625	0	lower	zerothre.ttf
1228.348	n/a	WORD	614174	wordpools/wasnorm_wordpool.txt	LTP154	ltpFR	2	5	1	UNCLE	1536	n/a	n/a	1	0.422607421875	0.5869140625	0	lower	zerothre.ttf
1232.556	n/a	WORD	616278	wordpools/wasnorm_wordpool.txt	LTP154	ltpFR	2	5	1	VALVE	1546	n/a	n/a	0	0.422607421875	0.5869140625	0	lower	zerothre.ttf
1236.53	n/a	WORD	618265	wordpools/wasnorm_wordpool.txt	LTP154	ltpFR	2	5	1	ASHTRAY	45	n/a	n/a	0	0.422607421875	0.5869140625	0	lower	zerothre.ttf
1240.62	n/a	WORD	620310	wordpools/wasnorm_wordpool.txt	LTP154	ltpFR	2	5	1	UNDERWEAR	1537	n/a	n/a	0	0.422607421875	0.5869140625	0	lower	zerothre.ttf
1244.578	n/a	WORD	622289	wordpools/wasnorm_wordpool.txt	LTP154	ltpFR	2	5	1	WARDROBE	1587	n/a	n/a	0	0.422607421875	0.5869140625	0	lower	zerothre.ttf
1248.734	n/a	WORD	624367	wordpools/wasnorm_wordpool.txt	LTP154	ltpFR	2	5	1	PENGUIN	1044	n/a	n/a	1	0.422607421875	0.5869140625	0	lower	zerothre.ttf
1252.8	n/a	WORD	626400	wordpools/wasnorm_wordpool.txt	LTP154	ltpFR	2	5	1	SERGEANT	1269	n/a	n/a	1	0.422607421875	0.5869140625	0	lower	zerothre.ttf
1258.558	n/a	REC_START	629279	n/a	LTP154	ltpFR	2	5	n/a	n/a	n/a	n/a	n/a	n/a	n/a	n/a	n/a	n/a	n/a
1259.994	n/a	REC_WORD	629997	wordpools/wasnorm_wordpool.txt	LTP154	ltpFR	2	5	1	PENGUIN	1044	n/a	n/a	1	n/a	n/a	n/a	n/a	n/a
1260.736	n/a	REC_WORD	630368	wordpools/wasnorm_wordpool.txt	LTP154	ltpFR	2	5	1	SERGEANT	1269	n/a	n/a	1	n/a	n/a	n/a	n/a	n/a
1262.672	n/a	REC_WORD	631336	wordpools/wasnorm_wordpool.txt	LTP154	ltpFR	2	5	1	UNCLE	1536	n/a	n/a	1	n/a	n/a	n/a	n/a	n/a
1263.476	n/a	REC_WORD	631738	wordpools/wasnorm_wordpool.txt	LTP154	ltpFR	2	5	1	NIECE	952	n/a	n/a	1	n/a	n/a	n/a	n/a	n/a
1268.332	n/a	REC_WORD	634166	wordpools/wasnorm_wordpool.txt	LTP154	ltpFR	2	5	1	UNDERWEAR	1537	n/a	n/a	0	n/a	n/a	n/a	n/a	n/a
1268.994	n/a	REC_WORD	634497	wordpools/wasnorm_wordpool.txt	LTP154	ltpFR	2	5	1	WARDROBE	1587	n/a	n/a	0	n/a	n/a	n/a	n/a	n/a
1278.148	n/a	REC_WORD	639074	wordpools/wasnorm_wordpool.txt	LTP154	ltpFR	2	5	0	CROW	414	n/a	n/a	1	n/a	n/a	n/a	n/a	n/a
1279.35	n/a	REC_WORD_VV	639675	wordpools/wasnorm_wordpool.txt	LTP154	ltpFR	2	5	n/a	<>	-1	n/a	n/a	n/a	n/a	n/a	n/a	n/a	n/a
1280.498	n/a	REC_WORD_VV	640249	wordpools/wasnorm_wordpool.txt	LTP154	ltpFR	2	5	n/a	<>	-1	n/a	n/a	n/a	n/a	n/a	n/a	n/a	n/a
1295.356	n/a	REC_WORD	647678	wordpools/wasnorm_wordpool.txt	LTP154	ltpFR	2	5	1	PHILOSOPHER	1054	n/a	n/a	1	n/a	n/a	n/a	n/a	n/a
1302.784	n/a	REC_WORD	651392	wordpools/wasnorm_wordpool.txt	LTP154	ltpFR	2	5	1	LIST	830	n/a	n/a	0	n/a	n/a	n/a	n/a	n/a
1303.638	n/a	REC_WORD	651819	wordpools/wasnorm_wordpool.txt	LTP154	ltpFR	2	5	1	VALVE	1546	n/a	n/a	0	n/a	n/a	n/a	n/a	n/a
1309.55	n/a	REC_WORD	654775	wordpools/wasnorm_wordpool.txt	LTP154	ltpFR	2	5	1	BUFFALO	186	n/a	n/a	1	n/a	n/a	n/a	n/a	n/a
1374.688	n/a	WORD	687344	wordpools/wasnorm_wordpool.txt	LTP154	ltpFR	2	6	-1	ROCKET	1202	n/a	n/a	-1	1.0	1.0	1	upper	Verdana.ttf
1378.538	n/a	WORD	689269	wordpools/wasnorm_wordpool.txt	LTP154	ltpFR	2	6	-1	BANDANNA	80	n/a	n/a	-1	1.0	1.0	1	upper	Verdana.ttf
1382.62	n/a	WORD	691310	wordpools/wasnorm_wordpool.txt	LTP154	ltpFR	2	6	-1	FARM	552	n/a	n/a	-1	1.0	1.0	1	upper	Verdana.ttf
1386.502	n/a	WORD	693251	wordpools/wasnorm_wordpool.txt	LTP154	ltpFR	2	6	-1	PRAIRIE	1118	n/a	n/a	-1	1.0	1.0	1	upper	Verdana.ttf
1390.442	n/a	WORD	695221	wordpools/wasnorm_wordpool.txt	LTP154	ltpFR	2	6	-1	CHIPMUNK	304	n/a	n/a	-1	1.0	1.0	1	upper	Verdana.ttf
1394.356	n/a	WORD	697178	wordpools/wasnorm_wordpool.txt	LTP154	ltpFR	2	6	-1	RACCOON	1153	n/a	n/a	-1	1.0	1.0	1	upper	Verdana.ttf
1398.206	n/a	WORD	699103	wordpools/wasnorm_wordpool.txt	LTP154	ltpFR	2	6	-1	SPACE	1345	n/a	n/a	-1	1.0	1.0	1	upper	Verdana.ttf
1402.27	n/a	WORD	701135	wordpools/wasnorm_wordpool.txt	LTP154	ltpFR	2	6	-1	SIGN	1305	n/a	n/a	-1	1.0	1.0	1	upper	Verdana.ttf
1406.394	n/a	WORD	703197	wordpools/wasnorm_wordpool.txt	LTP154	ltpFR	2	6	-1	PLUTO	1092	n/a	n/a	-1	1.0	1.0	1	upper	Verdana.ttf
1410.41	n/a	WORD	705205	wordpools/wasnorm_wordpool.txt	LTP154	ltpFR	2	6	-1	GAZELLE	628	n/a	n/a	-1	1.0	1.0	1	upper	Verdana.ttf
1414.576	n/a	WORD	707288	wordpools/wasnorm_wordpool.txt	LTP154	ltpFR	2	6	-1	RACKET	1155	n/a	n/a	-1	1.0	1.0	1	upper	Verdana.ttf
1418.608	n/a	WORD	709304	wordpools/wasnorm_wordpool.txt	LTP154	ltpFR	2	6	-1	CAP	236	n/a	n/a	-1	1.0	1.0	1	upper	Verdana.ttf
1422.748	n/a	WORD	711374	wordpools/wasnorm_wordpool.txt	LTP154	ltpFR	2	6	-1	WHISTLE	1606	n/a	n/a	-1	1.0	1.0	1	upper	Verdana.ttf
1426.896	n/a	WORD	713448	wordpools/wasnorm_wordpool.txt	LTP154	ltpFR	2	6	-1	WORM	1623	n/a	n/a	-1	1.0	1.0	1	upper	Verdana.ttf
1430.87	n/a	WORD	715435	wordpools/wasnorm_wordpool.txt	LTP154	ltpFR	2	6	-1	BAIT	70	n/a	n/a	-1	1.0	1.0	1	upper	Verdana.ttf
1434.928	n/a	WORD	717464	wordpools/wasnorm_wordpool.txt	LTP154	ltpFR	2	6	-1	SCULPTURE	1258	n/a	n/a	-1	1.0	1.0	1	upper	Verdana.ttf
1440.876	n/a	REC_START	720438	n/a	LTP154	ltpFR	2	6	n/a	n/a	n/a	n/a	n/a	n/a	n/a	n/a	n/a	n/a	n/a
1441.216	n/a	REC_WORD	720608	wordpools/wasnorm_wordpool.txt	LTP154	ltpFR	2	6	-1	SCULPTURE	1258	n/a	n/a	-1	n/a	n/a	n/a	n/a	n/a
1442.224	n/a	REC_WORD	721112	wordpools/wasnorm_wordpool.txt	LTP154	ltpFR	2	6	-1	CAP	236	n/a	n/a	-1	n/a	n/a	n/a	n/a	n/a
1443.944	n/a	REC_WORD	721972	wordpools/wasnorm_wordpool.txt	LTP154	ltpFR	2	6	-1	PRAIRIE	1118	n/a	n/a	-1	n/a	n/a	n/a	n/a	n/a
1444.482	n/a	REC_WORD	722241	wordpools/wasnorm_wordpool.txt	LTP154	ltpFR	2	6	-1	FARM	552	n/a	n/a	-1	n/a	n/a	n/a	n/a	n/a
1446.922	n/a	REC_WORD	723461	wordpools/wasnorm_wordpool.txt	LTP154	ltpFR	2	6	-1	RACCOON	1153	n/a	n/a	-1	n/a	n/a	n/a	n/a	n/a
1447.796	n/a	REC_WORD	723898	wordpools/wasnorm_wordpool.txt	LTP154	ltpFR	2	6	-1	CHIPMUNK	304	n/a	n/a	-1	n/a	n/a	n/a	n/a	n/a
1448.504	n/a	REC_WORD	724252	wordpools/wasnorm_wordpool.txt	LTP154	ltpFR	2	6	-1	GAZELLE	628	n/a	n/a	-1	n/a	n/a	n/a	n/a	n/a
1452.386	n/a	REC_WORD	726193	wordpools/wasnorm_wordpool.txt	LTP154	ltpFR	2	6	-1	WHISTLE	1606	n/a	n/a	-1	n/a	n/a	n/a	n/a	n/a
1453.128	n/a	REC_WORD	726564	wordpools/wasnorm_wordpool.txt	LTP154	ltpFR	2	6	-1	WORM	1623	n/a	n/a	-1	n/a	n/a	n/a	n/a	n/a
1457.964	n/a	REC_WORD	728982	wordpools/wasnorm_wordpool.txt	LTP154	ltpFR	2	6	-1	SPACE	1345	n/a	n/a	-1	n/a	n/a	n/a	n/a	n/a
1458.896	n/a	REC_WORD	729448	wordpools/wasnorm_wordpool.txt	LTP154	ltpFR	2	6	-1	PLUTO	1092	n/a	n/a	-1	n/a	n/a	n/a	n/a	n/a
1464.788	n/a	REC_WORD	732394	wordpools/wasnorm_wordpool.txt	LTP154	ltpFR	2	6	-1	RACKET	1155	n/a	n/a	-1	n/a	n/a	n/a	n/a	n/a
1467.148	n/a	REC_WORD	733574	wordpools/wasnorm_wordpool.txt	LTP154	ltpFR	2	6	-1	CAP	236	n/a	n/a	-1	n/a	n/a	n/a	n/a	n/a
1581.466	n/a	WORD	790733	wordpools/wasnorm_wordpool.txt	LTP154	ltpFR	2	7	1	COUSIN	392	n/a	n/a	1	0.422607421875	0.5869140625	0	lower	zerothre.ttf
1585.642	n/a	WORD	792821	wordpools/wasnorm_wordpool.txt	LTP154	ltpFR	2	7	1	TWIN	1528	n/a	n/a	1	0.422607421875	0.5869140625	0	lower	zerothre.ttf
1589.848	n/a	WORD	794924	wordpools/wasnorm_wordpool.txt	LTP154	ltpFR	2	7	1	LADY	794	n/a	n/a	1	0.422607421875	0.5869140625	0	lower	zerothre.ttf
1593.962	n/a	WORD	796981	wordpools/wasnorm_wordpool.txt	LTP154	ltpFR	2	7	1	STEW	1380	n/a	n/a	0	0.422607421875	0.5869140625	0	lower	zerothre.ttf
1597.82	n/a	WORD	798910	wordpools/wasnorm_wordpool.txt	LTP154	ltpFR	2	7	1	GUARDIAN	668	n/a	n/a	1	0.422607421875	0.5869140625	0	lower	zerothre.ttf
1601.678	n/a	WORD	800839	wordpools/wasnorm_wordpool.txt	LTP154	ltpFR	2	7	1	COLLAR	345	n/a	n/a	0	0.422607421875	0.5869140625	0	lower	zerothre.ttf
1605.594	n/a	WORD	802797	wordpools/wasnorm_wordpool.txt	LTP154	ltpFR	2	7	1	LAPEL	800	n/a	n/a	0	0.422607421875	0.5869140625	0	lower	zerothre.ttf
1609.508	n/a	WORD	804754	wordpools/wasnorm_wordpool.txt	LTP154	ltpFR	2	7	1	TURKEY	1520	n/a	n/a	1	0.422607421875	0.5869140625	0	lower	zerothre.ttf
1613.54	n/a	WORD	806770	wordpools/wasnorm_wordpool.txt	LTP154	ltpFR	2	7	1	DICTATOR	462	n/a	n/a	1	0.422607421875	0.5869140625	0	lower	zerothre.ttf
1617.732	n/a	WORD	808866	wordpools/wasnorm_wordpool.txt	LTP154	ltpFR	2	7	1	BUYER	208	n/a	n/a	1	0.422607421875	0.5869140625	0	lower	zerothre.ttf
1621.87	n/a	WORD	810935	wordpools/wasnorm_wordpool.txt	LTP154	ltpFR	2	7	1	ACTOR	5	n/a	n/a	1	0.422607421875	0.5869140625	0	lower	zerothre.ttf
1625.97	n/a	WORD	812985	wordpools/wasnorm_wordpool.txt	LTP154	ltpFR	2	7	1	ANCHOR	21	n/a	n/a	0	0.422607421875	0.5869140625	0	lower	zerothre.ttf
1629.86	n/a	WORD	814930	wordpools/wasnorm_wordpool.txt	LTP154	ltpFR	2	7	1	DIVER	476	n/a	n/a	1	0.422607421875	0.5869140625	0	lower	zerothre.ttf
1633.966	n/a	WORD	816983	wordpools/wasnorm_wordpool.txt	LTP154	ltpFR	2	7	1	CORAL	378	n/a	n/a	0	0.422607421875	0.5869140625	0	lower	zerothre.ttf
1637.982	n/a	WORD	818991	wordpools/wasnorm_wordpool.txt	LTP154	ltpFR	2	7	1	OAR	966	n/a	n/a	0	0.422607421875	0.5869140625	0	lower	zerothre.ttf
1642.022	n/a	WORD	821011	wordpools/wasnorm_wordpool.txt	LTP154	ltpFR	2	7	1	COOKBOOK	373	n/a	n/a	0	0.422607421875	0.5869140625	0	lower	zerothre.ttf
1647.788	n/a	REC_START	823894	n/a	LTP154	ltpFR	2	7	n/a	n/a	n/a	n/a	n/a	n/a	n/a	n/a	n/a	n/a	n/a
1648.272	n/a	REC_WORD	824136	wordpools/wasnorm_wordpool.txt	LTP154	ltpFR	2	7	1	COOKBOOK	373	n/a	n/a	0	n/a	n/a	n/a	n/a	n/a
1648.92	n/a	REC_WORD	824460	wordpools/wasnorm_wordpool.txt	LTP154	ltpFR	2	7	1	CORAL	378	n/a	n/a	0	n/a	n/a	n/a	n/a	n/a
1649.964	n/a	REC_WORD	824982	wordpools/wasnorm_wordpool.txt	LTP154	ltpFR	2	7	1	OAR	966	n/a	n/a	0	n/a	n/a	n/a	n/a	n/a
1650.826	n/a	REC_WORD	825413	wordpools/wasnorm_wordpool.txt	LTP154	ltpFR	2	7	1	DIVER	476	n/a	n/a	1	n/a	n/a	n/a	n/a	n/a
1652.508	n/a	REC_WORD	826254	wordpools/wasnorm_wordpool.txt	LTP154	ltpFR	2	7	1	CORAL	378	n/a	n/a	0	n/a	n/a	n/a	n/a	n/a
1654.448	n/a	REC_WORD_VV	827224	wordpools/wasnorm_wordpool.txt	LTP154	ltpFR	2	7	n/a	<>	-1	n/a	n/a	n/a	n/a	n/a	n/a	n/a	n/a
1660.718	n/a	REC_WORD	830359	wordpools/wasnorm_wordpool.txt	LTP154	ltpFR	2	7	1	GUARDIAN	668	n/a	n/a	1	n/a	n/a	n/a	n/a	n/a
1661.582	n/a	REC_WORD	830791	wordpools/wasnorm_wordpool.txt	LTP154	ltpFR	2	7	1	TWIN	1528	n/a	n/a	1	n/a	n/a	n/a	n/a	n/a
1662.74	n/a	REC_WORD	831370	wordpools/wasnorm_wordpool.txt	LTP154	ltpFR	2	7	1	LADY	794	n/a	n/a	1	n/a	n/a	n/a	n/a	n/a
1665.304	n/a	REC_WORD	832652	wordpools/wasnorm_wordpool.txt	LTP154	ltpFR	2	7	1	COUSIN	392	n/a	n/a	1	n/a	n/a	n/a	n/a	n/a
1670.826	n/a	REC_WORD	835413	wordpools/wasnorm_wordpool.txt	LTP154	ltpFR	2	7	1	ANCHOR	21	n/a	n/a	0	n/a	n/a	n/a	n/a	n/a
1671.824	n/a	REC_WORD	835912	wordpools/wasnorm_wordpool.txt	LTP154	ltpFR	2	7	1	ACTOR	5	n/a	n/a	1	n/a	n/a	n/a	n/a	n/a
1672.742	n/a	REC_WORD	836371	wordpools/wasnorm_wordpool.txt	LTP154	ltpFR	2	7	1	BUYER	208	n/a	n/a	1	n/a	n/a	n/a	n/a	n/a
1677.542	n/a	REC_WORD	838771	wordpools/wasnorm_wordpool.txt	LTP154	ltpFR	2	7	1	COLLAR	345	n/a	n/a	0	n/a	n/a	n/a	n/a	n/a
1678.324	n/a	REC_WORD	839162	wordpools/wasnorm_wordpool.txt	LTP154	ltpFR	2	7	1	LAPEL	800	n/a	n/a	0	n/a	n/a	n/a	n/a	n/a
1681.13	n/a	REC_WORD	840565	wordpools/wasnorm_wordpool.txt	LTP154	ltpFR	2	7	1	COOKBOOK	373	n/a	n/a	0	n/a	n/a	n/a	n/a	n/a
1779.34	n/a	WORD	889670	wordpools/wasnorm_wordpool.txt	LTP154	ltpFR	2	8	-1	VEST	1559	n/a	n/a	-1	1.0	1.0	1	upper	Verdana.ttf
1783.222	n/a	WORD	891611	wordpools/wasnorm_wordpool.txt	LTP154	ltpFR	2	8	-1	SOLDIER	1344	n/a	n/a	-1	1.0	1.0	1	upper	Verdana.ttf
1787.32	n/a	WORD	893660	wordpools/wasnorm_wordpool.txt	LTP154	ltpFR	2	8	-1	LOBSTER	837	n/a	n/a	-1	1.0	1.0	1	upper	Verdana.ttf
1791.386	n/a	WORD	895693	wordpools/wasnorm_wordpool.txt	LTP154	ltpFR	2	8	-1	SKIRT	1319	n/a	n/a	-1	1.0	1.0	1	upper	Verdana.ttf
1795.386	n/a	WORD	897693	wordpools/wasnorm_wordpool.txt	LTP154	ltpFR	2	8	-1	OATS	968	n/a	n/a	-1	1.0	1.0	1	upper	Verdana.ttf
1799.484	n/a	WORD	899742	wordpools/wasnorm_wordpool.txt	LTP154	ltpFR	2	8	-1	ISLAND	745	n/a	n/a	-1	1.0	1.0	1	upper	Verdana.ttf
1803.624	n/a	WORD	901812	wordpools/wasnorm_wordpool.txt	LTP154	ltpFR	2	8	-1	ROBBER	1197	n/a	n/a	-1	1.0	1.0	1	upper	Verdana.ttf
1807.798	n/a	WORD	903899	wordpools/wasnorm_wordpool.txt	LTP154	ltpFR	2	8	-1	CUSTARD	429	n/a	n/a	-1	1.0	1.0	1	upper	Verdana.ttf
1811.896	n/a	WORD	905948	wordpools/wasnorm_wordpool.txt	LTP154	ltpFR	2	8	-1	RASPBERRY	1168	n/a	n/a	-1	1.0	1.0	1	upper	Verdana.ttf
1816.054	n/a	WORD	908027	wordpools/wasnorm_wordpool.txt	LTP154	ltpFR	2	8	-1	HOUSE	725	n/a	n/a	-1	1.0	1.0	1	upper	Verdana.ttf
1820.094	n/a	WORD	910047	wordpools/wasnorm_wordpool.txt	LTP154	ltpFR	2	8	-1	MANSION	864	n/a	n/a	-1	1.0	1.0	1	upper	Verdana.ttf
1824.142	n/a	WORD	912071	wordpools/wasnorm_wordpool.txt	LTP154	ltpFR	2	8	-1	DOORBELL	487	n/a	n/a	-1	1.0	1.0	1	upper	Verdana.ttf
1828.142	n/a	WORD	914071	wordpools/wasnorm_wordpool.txt	LTP154	ltpFR	2	8	-1	GANG	619	n/a	n/a	-1	1.0	1.0	1	upper	Verdana.ttf
1832.024	n/a	WORD	916012	wordpools/wasnorm_wordpool.txt	LTP154	ltpFR	2	8	-1	SQUID	1361	n/a	n/a	-1	1.0	1.0	1	upper	Verdana.ttf
1836.048	n/a	WORD	918024	wordpools/wasnorm_wordpool.txt	LTP154	ltpFR	2	8	-1	DETERGENT	455	n/a	n/a	-1	1.0	1.0	1	upper	Verdana.ttf
1840.062	n/a	WORD	920031	wordpools/wasnorm_wordpool.txt	LTP154	ltpFR	2	8	-1	CLOTHES	327	n/a	n/a	-1	1.0	1.0	1	upper	Verdana.ttf
1845.886	n/a	REC_START	922943	n/a	LTP154	ltpFR	2	8	n/a	n/a	n/a	n/a	n/a	n/a	n/a	n/a	n/a	n/a	n/a
1846.404	n/a	REC_WORD	923202	wordpools/wasnorm_wordpool.txt	LTP154	ltpFR	2	8	-1	DETERGENT	455	n/a	n/a	-1	n/a	n/a	n/a	n/a	n/a
1847.098	n/a	REC_WORD	923549	wordpools/wasnorm_wordpool.txt	LTP154	ltpFR	2	8	-1	CLOTHES	327	n/a	n/a	-1	n/a	n/a	n/a	n/a	n/a
1847.736	n/a	REC_WORD	923868	wordpools/wasnorm_wordpool.txt	LTP154	ltpFR	2	8	-1	LOBSTER	837	n/a	n/a	-1	n/a	n/a	n/a	n/a	n/a
1848.374	n/a	REC_WORD	924187	wordpools/wasnorm_wordpool.txt	LTP154	ltpFR	2	8	-1	ROBBER	1197	n/a	n/a	-1	n/a	n/a	n/a	n/a	n/a
1849.538	n/a	REC_WORD	924769	wordpools/wasnorm_wordpool.txt	LTP154	ltpFR	2	8	-1	ISLAND	745	n/a	n/a	-1	n/a	n/a	n/a	n/a	n/a
1850.132	n/a	REC_WORD	925066	wordpools/wasnorm_wordpool.txt	LTP154	ltpFR	2	8	-1	HOUSE	725	n/a	n/a	-1	n/a	n/a	n/a	n/a	n/a
1850.88	n/a	REC_WORD	925440	wordpools/wasnorm_wordpool.txt	LTP154	ltpFR	2	8	-1	MANSION	864	n/a	n/a	-1	n/a	n/a	n/a	n/a	n/a
1851.63	n/a	REC_WORD	925815	wordpools/wasnorm_wordpool.txt	LTP154	ltpFR	2	8	-1	DOORBELL	487	n/a	n/a	-1	n/a	n/a	n/a	n/a	n/a
1855.436	n/a	REC_WORD	927718	wordpools/wasnorm_wordpool.txt	LTP154	ltpFR	2	8	-1	SQUID	1361	n/a	n/a	-1	n/a	n/a	n/a	n/a	n/a
1884.002	n/a	REC_WORD	942001	wordpools/wasnorm_wordpool.txt	LTP154	ltpFR	2	8	-1	SKIRT	1319	n/a	n/a	-1	n/a	n/a	n/a	n/a	n/a
1884.694	n/a	REC_WORD	942347	wordpools/wasnorm_wordpool.txt	LTP154	ltpFR	2	8	-1	VEST	1559	n/a	n/a	-1	n/a	n/a	n/a	n/a	n/a
1885.404	n/a	REC_WORD	942702	wordpools/wasnorm_wordpool.txt	LTP154	ltpFR	2	8	-1	SOLDIER	1344	n/a	n/a	-1	n/a	n/a	n/a	n/a	n/a
1914.59	n/a	REC_WORD	957295	wordpools/wasnorm_wordpool.txt	LTP154	ltpFR	2	8	-1	GANG	619	n/a	n/a	-1	n/a	n/a	n/a	n/a	n/a
1960.918	n/a	WORD	980459	wordpools/wasnorm_wordpool.txt	LTP154	ltpFR	2	9	-1	CROCODILE	411	n/a	n/a	-1	1.0	1.0	1	upper	Verdana.ttf
1964.76	n/a	WORD	982380	wordpools/wasnorm_wordpool.txt	LTP154	ltpFR	2	9	-1	CABLE	213	n/a	n/a	-1	1.0	1.0	1	upper	Verdana.ttf
1968.924	n/a	WORD	984462	wordpools/wasnorm_wordpool.txt	LTP154	ltpFR	2	9	-1	WIRE	1616	n/a	n/a	-1	1.0	1.0	1	upper	Verdana.ttf
1972.998	n/a	WORD	986499	wordpools/wasnorm_wordpool.txt	LTP154	ltpFR	2	9	-1	BARLEY	88	n/a	n/a	-1	1.0	1.0	1	upper	Verdana.ttf
1976.98	n/a	WORD	988490	wordpools/wasnorm_wordpool.txt	LTP154	ltpFR	2	9	-1	PUCK	1138	n/a	n/a	-1	1.0	1.0	1	upper	Verdana.ttf
1980.986	n/a	WORD	990493	wordpools/wasnorm_wordpool.txt	LTP154	ltpFR	2	9	-1	JOINT	758	n/a	n/a	-1	1.0	1.0	1	upper	Verdana.ttf
1984.936	n/a	WORD	992468	wordpools/wasnorm_wordpool.txt	LTP154	ltpFR	2	9	-1	HORSE	719	n/a	n/a	-1	1.0	1.0	1	upper	Verdana.ttf
1988.876	n/a	WORD	994438	wordpools/wasnorm_wordpool.txt	LTP154	ltpFR	2	9	-1	PEACH	1031	n/a	n/a	-1	1.0	1.0	1	upper	Verdana.ttf
1992.908	n/a	WORD	996454	wordpools/wasnorm_wordpool.txt	LTP154	ltpFR	2	9	-1	APPLE	33	n/a	n/a	-1	1.0	1.0	1	upper	Verdana.ttf
1996.832	n/a	WORD	998416	wordpools/wasnorm_wordpool.txt	LTP154	ltpFR	2	9	-1	HEN	703	n/a	n/a	-1	1.0	1.0	1	upper	Verdana.ttf
2001.046	n/a	WORD	1000523	wordpools/wasnorm_wordpool.txt	LTP154	ltpFR	2	9	-1	PORPOISE	1109	n/a	n/a	-1	1.0	1.0	1	upper	Verdana.ttf
2005.022	n/a	WORD	1002511	wordpools/wasnorm_wordpool.txt	LTP154	ltpFR	2	9	-1	SERPENT	1270	n/a	n/a	-1	1.0	1.0	1	upper	Verdana.ttf
2008.986	n/a	WORD	1004493	wordpools/wasnorm_wordpool.txt	LTP154	ltpFR	2	9	-1	FLUTE	585	n/a	n/a	-1	1.0	1.0	1	upper	Verdana.ttf
2012.876	n/a	WORD	1006438	wordpools/wasnorm_wordpool.txt	LTP154	ltpFR	2	9	-1	ORGAN	984	n/a	n/a	-1	1.0	1.0	1	upper	Verdana.ttf
2016.702	n/a	WORD	1008351	wordpools/wasnorm_wordpool.txt	LTP154	ltpFR	2	9	-1	STY	1397	n/a	n/a	-1	1.0	1.0	1	upper	Verdana.ttf
2020.602	n/a	WORD	1010301	wordpools/wasnorm_wordpool.txt	LTP154	ltpFR	2	9	-1	SHOULDER	1294	n/a	n/a	-1	1.0	1.0	1	upper	Verdana.ttf
2026.458	n/a	REC_START	1013229	n/a	LTP154	ltpFR	2	9	n/a	n/a	n/a	n/a	n/a	n/a	n/a	n/a	n/a	n/a	n/a
2027.046	n/a	REC_WORD	1013523	wordpools/wasnorm_wordpool.txt	LTP154	ltpFR	2	9	-1	SHOULDER	1294	n/a	n/a	-1	n/a	n/a	n/a	n/a	n/a
2027.95	n/a	REC_WORD	1013975	wordpools/wasnorm_wordpool.txt	LTP154	ltpFR	2	9	-1	STY	1397	n/a	n/a	-1	n/a	n/a	n/a	n/a	n/a
2028.968	n/a	REC_WORD	1014484	wordpools/wasnorm_wordpool.txt	LTP154	ltpFR	2	9	-1	PORPOISE	1109	n/a	n/a	-1	n/a	n/a	n/a	n/a	n/a
2029.71	n/a	REC_WORD	1014855	wordpools/wasnorm_wordpool.txt	LTP154	ltpFR	2	9	-1	SERPENT	1270	n/a	n/a	-1	n/a	n/a	n/a	n/a	n/a
2033.612	n/a	REC_WORD	1016806	wordpools/wasnorm_wordpool.txt	LTP154	ltpFR	2	9	-1	CROCODILE	411	n/a	n/a	-1	n/a	n/a	n/a	n/a	n/a
2034.944	n/a	REC_WORD	1017472	wordpools/wasnorm_wordpool.txt	LTP154	ltpFR	2	9	-1	CABLE	213	n/a	n/a	-1	n/a	n/a	n/a	n/a	n/a
2046.738	n/a	REC_WORD	1023369	wordpools/wasnorm_wordpool.txt	LTP154	ltpFR	2	9	-1	SHOULDER	1294	n/a	n/a	-1	n/a	n/a	n/a	n/a	n/a
2050.33	n/a	REC_WORD	1025165	wordpools/wasnorm_wordpool.txt	LTP154	ltpFR	2	9	-1	STY	1397	n/a	n/a	-1	n/a	n/a	n/a	n/a	n/a
2055.324	n/a	REC_WORD	1027662	wordpools/wasnorm_wordpool.txt	LTP154	ltpFR	2	9	-1	BARLEY	88	n/a	n/a	-1	n/a	n/a	n/a	n/a	n/a
2066.638	n/a	REC_WORD	1033319	wordpools/wasnorm_wordpool.txt	LTP154	ltpFR	2	9	-1	APPLE	33	n/a	n/a	-1	n/a	n/a	n/a	n/a	n/a
2067.268	n/a	REC_WORD	1033634	wordpools/wasnorm_wordpool.txt	LTP154	ltpFR	2	9	-1	PEACH	1031	n/a	n/a	-1	n/a	n/a	n/a	n/a	n/a
2067.906	n/a	REC_WORD	1033953	wordpools/wasnorm_wordpool.txt	LTP154	ltpFR	2	9	-1	HORSE	719	n/a	n/a	-1	n/a	n/a	n/a	n/a	n/a
2250.422	n/a	WORD	1125211	wordpools/wasnorm_wordpool.txt	LTP154	ltpFR	2	10	-1	NICOTINE	951	n/a	n/a	-1	1.0	1.0	1	upper	Verdana.ttf
2254.622	n/a	WORD	1127311	wordpools/wasnorm_wordpool.txt	LTP154	ltpFR	2	10	-1	CIGAR	308	n/a	n/a	-1	1.0	1.0	1	upper	Verdana.ttf
2258.562	n/a	WORD	1129281	wordpools/wasnorm_wordpool.txt	LTP154	ltpFR	2	10	-1	RAISIN	1163	n/a	n/a	-1	1.0	1.0	1	upper	Verdana.ttf
2262.51	n/a	WORD	1131255	wordpools/wasnorm_wordpool.txt	LTP154	ltpFR	2	10	-1	EDITORIAL	517	n/a	n/a	-1	1.0	1.0	1	upper	Verdana.ttf
2266.376	n/a	WORD	1133188	wordpools/wasnorm_wordpool.txt	LTP154	ltpFR	2	10	-1	SLIDE	1326	n/a	n/a	-1	1.0	1.0	1	upper	Verdana.ttf
2270.332	n/a	WORD	1135166	wordpools/wasnorm_wordpool.txt	LTP154	ltpFR	2	10	-1	MEDICINE	886	n/a	n/a	-1	1.0	1.0	1	upper	Verdana.ttf
2274.222	n/a	WORD	1137111	wordpools/wasnorm_wordpool.txt	LTP154	ltpFR	2	10	-1	SURGEON	1413	n/a	n/a	-1	1.0	1.0	1	upper	Verdana.ttf
2278.196	n/a	WORD	1139098	wordpools/wasnorm_wordpool.txt	LTP154	ltpFR	2	10	-1	OATMEAL	967	n/a	n/a	-1	1.0	1.0	1	upper	Verdana.ttf
2282.112	n/a	WORD	1141056	wordpools/wasnorm_wordpool.txt	LTP154	ltpFR	2	10	-1	SHOE	1288	n/a	n/a	-1	1.0	1.0	1	upper	Verdana.ttf
2285.952	n/a	WORD	1142976	wordpools/wasnorm_wordpool.txt	LTP154	ltpFR	2	10	-1	CANDY	230	n/a	n/a	-1	1.0	1.0	1	upper	Verdana.ttf
2290.118	n/a	WORD	1145059	wordpools/wasnorm_wordpool.txt	LTP154	ltpFR	2	10	-1	ASTRONAUT	51	n/a	n/a	-1	1.0	1.0	1	upper	Verdana.ttf
2294.308	n/a	WORD	1147154	wordpools/wasnorm_wordpool.txt	LTP154	ltpFR	2	10	-1	YARD	1630	n/a	n/a	-1	1.0	1.0	1	upper	Verdana.ttf
2298.366	n/a	WORD	1149183	wordpools/wasnorm_wordpool.txt	LTP154	ltpFR	2	10	-1	SHRUB	1299	n/a	n/a	-1	1.0	1.0	1	upper	Verdana.ttf
2302.206	n/a	WORD	1151103	wordpools/wasnorm_wordpool.txt	LTP154	ltpFR	2	10	-1	MAGAZINE	853	n/a	n/a	-1	1.0	1.0	1	upper	Verdana.ttf
2306.072	n/a	WORD	1153036	wordpools/wasnorm_wordpool.txt	LTP154	ltpFR	2	10	-1	FOLDER	588	n/a	n/a	-1	1.0	1.0	1	upper	Verdana.ttf
2310.162	n/a	WORD	1155081	wordpools/wasnorm_wordpool.txt	LTP154	ltpFR	2	10	-1	PUMP	1141	n/a	n/a	-1	1.0	1.0	1	upper	Verdana.ttf
2316.018	n/a	REC_START	1158009	n/a	LTP154	ltpFR	2	10	n/a	n/a	n/a	n/a	n/a	n/a	n/a	n/a	n/a	n/a	n/a
2316.956	n/a	REC_WORD	1158478	wordpools/wasnorm_wordpool.txt	LTP154	ltpFR	2	10	-1	PUMP	1141	n/a	n/a	-1	n/a	n/a	n/a	n/a	n/a
2317.29	n/a	REC_WORD	1158645	wordpools/wasnorm_wordpool.txt	LTP154	ltpFR	2	10	-1	SLIDE	1326	n/a	n/a	-1	n/a	n/a	n/a	n/a	n/a
2318.412	n/a	REC_WORD	1159206	wordpools/wasnorm_wordpool.txt	LTP154	ltpFR	2	10	-1	NICOTINE	951	n/a	n/a	-1	n/a	n/a	n/a	n/a	n/a
2319.22	n/a	REC_WORD	1159610	wordpools/wasnorm_wordpool.txt	LTP154	ltpFR	2	10	-1	CIGAR	308	n/a	n/a	-1	n/a	n/a	n/a	n/a	n/a
2321.656	n/a	REC_WORD	1160828	wordpools/wasnorm_wordpool.txt	LTP154	ltpFR	2	10	-1	MEDICINE	886	n/a	n/a	-1	n/a	n/a	n/a	n/a	n/a
2322.188	n/a	REC_WORD	1161094	wordpools/wasnorm_wordpool.txt	LTP154	ltpFR	2	10	-1	SURGEON	1413	n/a	n/a	-1	n/a	n/a	n/a	n/a	n/a
2329.822	n/a	REC_WORD	1164911	wordpools/wasnorm_wordpool.txt	LTP154	ltpFR	2	10	-1	YARD	1630	n/a	n/a	-1	n/a	n/a	n/a	n/a	n/a
2336.034	n/a	REC_WORD	1168017	wordpools/wasnorm_wordpool.txt	LTP154	ltpFR	2	10	-1	ASTRONAUT	51	n/a	n/a	-1	n/a	n/a	n/a	n/a	n/a
2455.252	n/a	WORD	1227626	wordpools/wasnorm_wordpool.txt	LTP154	ltpFR	2	11	1	FISH	571	n/a	n/a	1	0.422607421875	0.5869140625	0	lower	zerothre.ttf
2459.284	n/a	WORD	1229642	wordpools/wasnorm_wordpool.txt	LTP154	ltpFR	2	11	1	TIDE	1465	n/a	n/a	0	0.422607421875	0.5869140625	0	lower	zerothre.ttf
2463.274	n/a	WORD	1231637	wordpools/wasnorm_wordpool.txt	LTP154	ltpFR	2	11	1	TRUMPET	1513	n/a	n/a	0	0.422607421875	0.5869140625	0	lower	zerothre.ttf
2467.406	n/a	WORD	1233703	wordpools/wasnorm_wordpool.txt	LTP154	ltpFR	2	11	1	PRUNE	1134	n/a	n/a	0	0.422607421875	0.5869140625	0	lower	zerothre.ttf
2471.546	n/a	WORD	1235773	wordpools/wasnorm_wordpool.txt	LTP154	ltpFR	2	11	1	GRAPE	654	n/a	n/a	0	0.422607421875	0.5869140625	0	lower	zerothre.ttf
2475.412	n/a	WORD	1237706	wordpools/wasnorm_wordpool.txt	LTP154	ltpFR	2	11	1	DISC	473	n/a	n/a	0	0.422607421875	0.5869140625	0	lower	zerothre.ttf
2479.344	n/a	WORD	1239672	wordpools/wasnorm_wordpool.txt	LTP154	ltpFR	2	11	1	HAWK	692	n/a	n/a	1	0.422607421875	0.5869140625	0	lower	zerothre.ttf
2483.192	n/a	WORD	1241596	wordpools/wasnorm_wordpool.txt	LTP154	ltpFR	2	11	1	SKATE	1313	n/a	n/a	0	0.422607421875	0.5869140625	0	lower	zerothre.ttf
2487.224	n/a	WORD	1243612	wordpools/wasnorm_wordpool.txt	LTP154	ltpFR	2	11	1	FROST	609	n/a	n/a	0	0.422607421875	0.5869140625	0	lower	zerothre.ttf
2491.056	n/a	WORD	1245528	wordpools/wasnorm_wordpool.txt	LTP154	ltpFR	2	11	1	BIKE	125	n/a	n/a	0	0.422607421875	0.5869140625	0	lower	zerothre.ttf
2495.214	n/a	WORD	1247607	wordpools/wasnorm_wordpool.txt	LTP154	ltpFR	2	11	1	OUTDOORS	987	n/a	n/a	0	0.422607421875	0.5869140625	0	lower	zerothre.ttf
2499.196	n/a	WORD	1249598	wordpools/wasnorm_wordpool.txt	LTP154	ltpFR	2	11	1	GROOM	665	n/a	n/a	1	0.422607421875	0.5869140625	0	lower	zerothre.ttf
2503.254	n/a	WORD	1251627	wordpools/wasnorm_wordpool.txt	LTP154	ltpFR	2	11	1	DOOR	486	n/a	n/a	0	0.422607421875	0.5869140625	0	lower	zerothre.ttf
2507.144	n/a	WORD	1253572	wordpools/wasnorm_wordpool.txt	LTP154	ltpFR	2	11	1	SEAGULL	1261	n/a	n/a	1	0.422607421875	0.5869140625	0	lower	zerothre.ttf
2511.292	n/a	WORD	1255646	wordpools/wasnorm_wordpool.txt	LTP154	ltpFR	2	11	1	BUS	201	n/a	n/a	0	0.422607421875	0.5869140625	0	lower	zerothre.ttf
2515.142	n/a	WORD	1257571	wordpools/wasnorm_wordpool.txt	LTP154	ltpFR	2	11	1	SUPERVISOR	1410	n/a	n/a	1	0.422607421875	0.5869140625	0	lower	zerothre.ttf
2520.782	n/a	REC_START	1260391	n/a	LTP154	ltpFR	2	11	n/a	n/a	n/a	n/a	n/a	n/a	n/a	n/a	n/a	n/a	n/a
2521.52	n/a	REC_WORD	1260760	wordpools/wasnorm_wordpool.txt	LTP154	ltpFR	2	11	1	SUPERVISOR	1410	n/a	n/a	1	n/a	n/a	n/a	n/a	n/a
2522.52	n/a	REC_WORD_VV	1261260	wordpools/wasnorm_wordpool.txt	LTP154	ltpFR	2	11	n/a	<>	-1	n/a	n/a	n/a	n/a	n/a	n/a	n/a	n/a
2522.678	n/a	REC_WORD	1261339	wordpools/wasnorm_wordpool.txt	LTP154	ltpFR	2	11	1	BUS	201	n/a	n/a	0	n/a	n/a	n/a	n/a	n/a
2523.416	n/a	REC_WORD	1261708	wordpools/wasnorm_wordpool.txt	LTP154	ltpFR	2	11	1	TRUMPET	1513	n/a	n/a	0	n/a	n/a	n/a	n/a	n/a
2524.254	n/a	REC_WORD	1262127	wordpools/wasnorm_wordpool.txt	LTP154	ltpFR	2	11	1	BIKE	125	n/a	n/a	0	n/a	n/a	n/a	n/a	n/a
2526.136	n/a	REC_WORD	1263068	wordpools/wasnorm_wordpool.txt	LTP154	ltpFR	2	11	1	SEAGULL	1261	n/a	n/a	1	n/a	n/a	n/a	n/a	n/a
2558.668	n/a	REC_WORD	1279334	wordpools/wasnorm_wordpool.txt	LTP154	ltpFR	2	11	1	SUPERVISOR	1410	n/a	n/a	1	n/a	n/a	n/a	n/a	n/a
2591.76	n/a	REC_WORD	1295880	wordpools/wasnorm_wordpool.txt	LTP154	ltpFR	2	11	1	GRAPE	654	n/a	n/a	0	n/a	n/a	n/a	n/a	n/a
2593.176	n/a	REC_WORD	1296588	wordpools/wasnorm_wordpool.txt	LTP154	ltpFR	2	11	1	PRUNE	1134	n/a	n/a	0	n/a	n/a	n/a	n/a	n/a
2648.46	n/a	WORD	1324230	wordpools/wasnorm_wordpool.txt	LTP154	ltpFR	2	12	1	MONARCH	906	n/a	n/a	1	0.422607421875	0.5869140625	0	lower	zerothre.ttf
2652.584	n/a	WORD	1326292	wordpools/wasnorm_wordpool.txt	LTP154	ltpFR	2	12	1	CONTRACTOR	369	n/a	n/a	1	0.422607421875	0.5869140625	0	lower	zerothre.ttf
2656.716	n/a	WORD	1328358	wordpools/wasnorm_wordpool.txt	LTP154	ltpFR	2	12	1	TABLE	1426	n/a	n/a	0	0.422607421875	0.5869140625	0	lower	zerothre.ttf
2660.556	n/a	WORD	1330278	wordpools/wasnorm_wordpool.txt	LTP154	ltpFR	2	12	1	SAW	1239	n/a	n/a	0	0.422607421875	0.5869140625	0	lower	zerothre.ttf
2664.572	n/a	WORD	1332286	wordpools/wasnorm_wordpool.txt	LTP154	ltpFR	2	12	1	CENT	270	n/a	n/a	0	0.422607421875	0.5869140625	0	lower	zerothre.ttf
2668.596	n/a	WORD	1334298	wordpools/wasnorm_wordpool.txt	LTP154	ltpFR	2	12	0	LAWYER	806	n/a	n/a	1	0.57763671875	0.412841796875	1	upper	amplitud.ttf
2672.628	n/a	WORD	1336314	wordpools/wasnorm_wordpool.txt	LTP154	ltpFR	2	12	0	POTATO	1115	n/a	n/a	0	0.57763671875	0.412841796875	1	upper	amplitud.ttf
2676.51	n/a	WORD	1338255	wordpools/wasnorm_wordpool.txt	LTP154	ltpFR	2	12	0	ROACH	1195	n/a	n/a	0	0.57763671875	0.412841796875	1	upper	amplitud.ttf
2680.566	n/a	WORD	1340283	wordpools/wasnorm_wordpool.txt	LTP154	ltpFR	2	12	0	FRIEND	606	n/a	n/a	1	0.57763671875	0.412841796875	1	upper	amplitud.ttf
2684.492	n/a	WORD	1342246	wordpools/wasnorm_wordpool.txt	LTP154	ltpFR	2	12	0	LOVER	846	n/a	n/a	1	0.57763671875	0.412841796875	1	upper	amplitud.ttf
2688.674	n/a	WORD	1344337	wordpools/wasnorm_wordpool.txt	LTP154	ltpFR	2	12	1	LUMBER	848	n/a	n/a	0	0.422607421875	0.5869140625	0	lower	zerothre.ttf
2692.82	n/a	WORD	1346410	wordpools/wasnorm_wordpool.txt	LTP154	ltpFR	2	12	1	APPENDAGE	32	n/a	n/a	0	0.422607421875	0.5869140625	0	lower	zerothre.ttf
2696.886	n/a	WORD	1348443	wordpools/wasnorm_wordpool.txt	LTP154	ltpFR	2	12	1	SLIME	1327	n/a	n/a	0	0.422607421875	0.5869140625	0	lower	zerothre.ttf
2700.81	n/a	WORD	1350405	wordpools/wasnorm_wordpool.txt	LTP154	ltpFR	2	12	0	CUPBOARD	425	n/a	n/a	1	0.57763671875	0.412841796875	1	upper	amplitud.ttf
2704.744	n/a	WORD	1352372	wordpools/wasnorm_wordpool.txt	LTP154	ltpFR	2	12	0	BOWL	158	n/a	n/a	0	0.57763671875	0.412841796875	1	upper	amplitud.ttf
2708.766	n/a	WORD	1354383	wordpools/wasnorm_wordpool.txt	LTP154	ltpFR	2	12	0	SOFA	1342	n/a	n/a	1	0.57763671875	0.412841796875	1	upper	amplitud.ttf
2714.524	n/a	REC_START	1357262	n/a	LTP154	ltpFR	2	12	n/a	n/a	n/a	n/a	n/a	n/a	n/a	n/a	n/a	n/a	n/a
2715.112	n/a	REC_WORD	1357556	wordpools/wasnorm_wordpool.txt	LTP154	ltpFR	2	12	0	CUPBOARD	425	n/a	n/a	1	n/a	n/a	n/a	n/a	n/a
2716.1	n/a	REC_WORD	1358050	wordpools/wasnorm_wordpool.txt	LTP154	ltpFR	2	12	0	SOFA	1342	n/a	n/a	1	n/a	n/a	n/a	n/a	n/a
2717.482	n/a	REC_WORD	1358741	wordpools/wasnorm_wordpool.txt	LTP154	ltpFR	2	12	0	BOWL	158	n/a	n/a	0	n/a	n/a	n/a	n/a	n/a
2720.052	n/a	REC_WORD	1360026	wordpools/wasnorm_wordpool.txt	LTP154	ltpFR	2	12	0	LAWYER	806	n/a	n/a	1	n/a	n/a	n/a	n/a	n/a
2721.464	n/a	REC_WORD	1360732	wordpools/wasnorm_wordpool.txt	LTP154	ltpFR	2	12	0	LOVER	846	n/a	n/a	1	n/a	n/a	n/a	n/a	n/a
2722.076	n/a	REC_WORD	1361038	wordpools/wasnorm_wordpool.txt	LTP154	ltpFR	2	12	0	FRIEND	606	n/a	n/a	1	n/a	n/a	n/a	n/a	n/a
2723.798	n/a	REC_WORD	1361899	wordpools/wasnorm_wordpool.txt	LTP154	ltpFR	2	12	1	APPENDAGE	32	n/a	n/a	0	n/a	n/a	n/a	n/a	n/a
2727.58	n/a	REC_WORD_VV	1363790	wordpools/wasnorm_wordpool.txt	LTP154	ltpFR	2	12	n/a	<>	-1	n/a	n/a	n/a	n/a	n/a	n/a	n/a	n/a
2727.974	n/a	REC_WORD	1363987	wordpools/wasnorm_wordpool.txt	LTP154	ltpFR	2	12	0	ROACH	1195	n/a	n/a	0	n/a	n/a	n/a	n/a	n/a
2728.96	n/a	REC_WORD_VV	1364480	wordpools/wasnorm_wordpool.txt	LTP154	ltpFR	2	12	n/a	<>	-1	n/a	n/a	n/a	n/a	n/a	n/a	n/a	n/a
2774.634	n/a	REC_WORD	1387317	wordpools/wasnorm_wordpool.txt	LTP154	ltpFR	2	12	1	SLIME	1327	n/a	n/a	0	n/a	n/a	n/a	n/a	n/a
2790.132	n/a	REST_REWET	1395066	n/a	LTP154	ltpFR	2	12	n/a	n/a	n/a	n/a	n/a	n/a	n/a	n/a	n/a	n/a	n/a
3266.304	n/a	WORD	1633152	wordpools/wasnorm_wordpool.txt	LTP154	ltpFR	2	13	0	CORK	380	n/a	n/a	1	0.57763671875	0.412841796875	1	upper	amplitud.ttf
3270.27	n/a	WORD	1635135	wordpools/wasnorm_wordpool.txt	LTP154	ltpFR	2	13	0	BRIDE	173	n/a	n/a	1	0.57763671875	0.412841796875	1	upper	amplitud.ttf
3274.236	n/a	WORD	1637118	wordpools/wasnorm_wordpool.txt	LTP154	ltpFR	2	13	0	OX	994	n/a	n/a	1	0.57763671875	0.412841796875	1	upper	amplitud.ttf
3278.31	n/a	WORD	1639155	wordpools/wasnorm_wordpool.txt	LTP154	ltpFR	2	13	0	GIFT	635	n/a	n/a	0	0.57763671875	0.412841796875	1	upper	amplitud.ttf
3282.358	n/a	WORD	1641179	wordpools/wasnorm_wordpool.txt	LTP154	ltpFR	2	13	0	BONE	148	n/a	n/a	0	0.57763671875	0.412841796875	1	upper	amplitud.ttf
3286.542	n/a	WORD	1643271	wordpools/wasnorm_wordpool.txt	LTP154	ltpFR	2	13	0	ANIMAL	23	n/a	n/a	1	0.57763671875	0.412841796875	1	upper	amplitud.ttf
3290.54	n/a	WORD	1645270	wordpools/wasnorm_wordpool.txt	LTP154	ltpFR	2	13	0	PAGE	1001	n/a	n/a	0	0.57763671875	0.412841796875	1	upper	amplitud.ttf
3294.488	n/a	WORD	1647244	wordpools/wasnorm_wordpool.txt	LTP154	ltpFR	2	13	0	NOTEBOOK	959	n/a	n/a	1	0.57763671875	0.412841796875	1	upper	amplitud.ttf
3298.346	n/a	WORD	1649173	wordpools/wasnorm_wordpool.txt	LTP154	ltpFR	2	13	0	FRIAR	605	n/a	n/a	1	0.57763671875	0.412841796875	1	upper	amplitud.ttf
3302.378	n/a	WORD	1651189	wordpools/wasnorm_wordpool.txt	LTP154	ltpFR	2	13	0	MONASTERY	907	n/a	n/a	1	0.57763671875	0.412841796875	1	upper	amplitud.ttf
3306.344	n/a	WORD	1653172	wordpools/wasnorm_wordpool.txt	LTP154	ltpFR	2	13	0	WINNER	1615	n/a	n/a	1	0.57763671875	0.412841796875	1	upper	amplitud.ttf
3310.276	n/a	WORD	1655138	wordpools/wasnorm_wordpool.txt	LTP154	ltpFR	2	13	0	HIP	710	n/a	n/a	1	0.57763671875	0.412841796875	1	upper	amplitud.ttf
3314.298	n/a	WORD	1657149	wordpools/wasnorm_wordpool.txt	LTP154	ltpFR	2	13	0	BRAN	167	n/a	n/a	0	0.57763671875	0.412841796875	1	upper	amplitud.ttf
3318.364	n/a	WORD	1659182	wordpools/wasnorm_wordpool.txt	LTP154	ltpFR	2	13	0	BIBLE	124	n/a	n/a	0	0.57763671875	0.412841796875	1	upper	amplitud.ttf
3322.362	n/a	WORD	1661181	wordpools/wasnorm_wordpool.txt	LTP154	ltpFR	2	13	0	INVENTOR	743	n/a	n/a	1	0.57763671875	0.412841796875	1	upper	amplitud.ttf
3326.32	n/a	WORD	1663160	wordpools/wasnorm_wordpool.txt	LTP154	ltpFR	2	13	0	TANGERINE	1431	n/a	n/a	0	0.57763671875	0.412841796875	1	upper	amplitud.ttf
3332.036	n/a	REC_START	1666018	n/a	LTP154	ltpFR	2	13	n/a	n/a	n/a	n/a	n/a	n/a	n/a	n/a	n/a	n/a	n/a
3332.708	n/a	REC_WORD	1666354	wordpools/wasnorm_wordpool.txt	LTP154	ltpFR	2	13	0	TANGERINE	1431	n/a	n/a	0	n/a	n/a	n/a	n/a	n/a
3333.596	n/a	REC_WORD	1666798	wordpools/wasnorm_wordpool.txt	LTP154	ltpFR	2	13	0	INVENTOR	743	n/a	n/a	1	n/a	n/a	n/a	n/a	n/a
3335.932	n/a	REC_WORD	1667966	wordpools/wasnorm_wordpool.txt	LTP154	ltpFR	2	13	0	CORK	380	n/a	n/a	1	n/a	n/a	n/a	n/a	n/a
3353.922	n/a	REC_WORD	1676961	wordpools/wasnorm_wordpool.txt	LTP154	ltpFR	2	13	0	BIBLE	124	n/a	n/a	0	n/a	n/a	n/a	n/a	n/a
3370.15	n/a	REC_WORD	1685075	wordpools/wasnorm_wordpool.txt	LTP154	ltpFR	2	13	0	HIP	710	n/a	n/a	1	n/a	n/a	n/a	n/a	n/a
3399.94	n/a	REC_WORD	1699970	wordpools/wasnorm_wordpool.txt	LTP154	ltpFR	2	13	0	NOTEBOOK	959	n/a	n/a	1	n/a	n/a	n/a	n/a	n/a
3400.544	n/a	REC_WORD	1700272	wordpools/wasnorm_wordpool.txt	LTP154	ltpFR	2	13	0	PAGE	1001	n/a	n/a	0	n/a	n/a	n/a	n/a	n/a
3403.532	n/a	REC_WORD	1701766	wordpools/wasnorm_wordpool.txt	LTP154	ltpFR	2	13	0	FRIAR	605	n/a	n/a	1	n/a	n/a	n/a	n/a	n/a
3403.964	n/a	REC_WORD	1701982	wordpools/wasnorm_wordpool.txt	LTP154	ltpFR	2	13	0	MONASTERY	907	n/a	n/a	1	n/a	n/a	n/a	n/a	n/a
3451.634	n/a	WORD	1725817	wordpools/wasnorm_wordpool.txt	LTP154	ltpFR	2	14	0	CEMETERY	269	n/a	n/a	1	0.57763671875	0.412841796875	1	upper	amplitud.ttf
3455.75	n/a	WORD	1727875	wordpools/wasnorm_wordpool.txt	LTP154	ltpFR	2	14	0	PASSENGER	1020	n/a	n/a	1	0.57763671875	0.412841796875	1	upper	amplitud.ttf
3459.656	n/a	WORD	1729828	wordpools/wasnorm_wordpool.txt	LTP154	ltpFR	2	14	0	TICKET	1464	n/a	n/a	0	0.57763671875	0.412841796875	1	upper	amplitud.ttf
3463.704	n/a	WORD	1731852	wordpools/wasnorm_wordpool.txt	LTP154	ltpFR	2	14	0	HEDGE	699	n/a	n/a	1	0.57763671875	0.412841796875	1	upper	amplitud.ttf
3467.82	n/a	WORD	1733910	wordpools/wasnorm_wordpool.txt	LTP154	ltpFR	2	14	0	CHERRY	293	n/a	n/a	0	0.57763671875	0.412841796875	1	upper	amplitud.ttf
3471.844	n/a	WORD	1735922	wordpools/wasnorm_wordpool.txt	LTP154	ltpFR	2	14	0	HOOK	715	n/a	n/a	0	0.57763671875	0.412841796875	1	upper	amplitud.ttf
3475.668	n/a	WORD	1737834	wordpools/wasnorm_wordpool.txt	LTP154	ltpFR	2	14	1	NEEDLE	941	n/a	n/a	0	0.422607421875	0.5869140625	0	lower	zerothre.ttf
3479.776	n/a	WORD	1739888	wordpools/wasnorm_wordpool.txt	LTP154	ltpFR	2	14	1	TROPHY	1509	n/a	n/a	0	0.422607421875	0.5869140625	0	lower	zerothre.ttf
3483.798	n/a	WORD	1741899	wordpools/wasnorm_wordpool.txt	LTP154	ltpFR	2	14	0	FIN	566	n/a	n/a	0	0.57763671875	0.412841796875	1	upper	amplitud.ttf
3487.904	n/a	WORD	1743952	wordpools/wasnorm_wordpool.txt	LTP154	ltpFR	2	14	0	SALMON	1227	n/a	n/a	1	0.57763671875	0.412841796875	1	upper	amplitud.ttf
3491.746	n/a	WORD	1745873	wordpools/wasnorm_wordpool.txt	LTP154	ltpFR	2	14	1	BULLY	196	n/a	n/a	1	0.422607421875	0.5869140625	0	lower	zerothre.ttf
3495.604	n/a	WORD	1747802	wordpools/wasnorm_wordpool.txt	LTP154	ltpFR	2	14	1	CHEERLEADER	288	n/a	n/a	1	0.422607421875	0.5869140625	0	lower	zerothre.ttf
3499.544	n/a	WORD	1749772	wordpools/wasnorm_wordpool.txt	LTP154	ltpFR	2	14	1	WIDOW	1608	n/a	n/a	1	0.422607421875	0.5869140625	0	lower	zerothre.ttf
3503.466	n/a	WORD	1751733	wordpools/wasnorm_wordpool.txt	LTP154	ltpFR	2	14	1	CALF	222	n/a	n/a	1	0.422607421875	0.5869140625	0	lower	zerothre.ttf
3507.324	n/a	WORD	1753662	wordpools/wasnorm_wordpool.txt	LTP154	ltpFR	2	14	1	TUNA	1518	n/a	n/a	1	0.422607421875	0.5869140625	0	lower	zerothre.ttf
3511.156	n/a	WORD	1755578	wordpools/wasnorm_wordpool.txt	LTP154	ltpFR	2	14	1	DOUGH	489	n/a	n/a	0	0.422607421875	0.5869140625	0	lower	zerothre.ttf
3517.056	n/a	REC_START	1758528	n/a	LTP154	ltpFR	2	14	n/a	n/a	n/a	n/a	n/a	n/a	n/a	n/a	n/a	n/a	n/a
3517.728	n/a	REC_WORD	1758864	wordpools/wasnorm_wordpool.txt	LTP154	ltpFR	2	14	1	DOUGH	489	n/a	n/a	0	n/a	n/a	n/a	n/a	n/a
3518.258	n/a	REC_WORD	1759129	wordpools/wasnorm_wordpool.txt	LTP154	ltpFR	2	14	1	TUNA	1518	n/a	n/a	1	n/a	n/a	n/a	n/a	n/a
3519.898	n/a	REC_WORD	1759949	wordpools/wasnorm_wordpool.txt	LTP154	ltpFR	2	14	0	SALMON	1227	n/a	n/a	1	n/a	n/a	n/a	n/a	n/a
3520.986	n/a	REC_WORD	1760493	wordpools/wasnorm_wordpool.txt	LTP154	ltpFR	2	14	0	FIN	566	n/a	n/a	0	n/a	n/a	n/a	n/a	n/a
3526.922	n/a	REC_WORD	1763461	wordpools/wasnorm_wordpool.txt	LTP154	ltpFR	2	14	1	CHEERLEADER	288	n/a	n/a	1	n/a	n/a	n/a	n/a	n/a
3528.07	n/a	REC_WORD_VV	1764035	wordpools/wasnorm_wordpool.txt	LTP154	ltpFR	2	14	n/a	<>	-1	n/a	n/a	n/a	n/a	n/a	n/a	n/a	n/a
3539.53	n/a	REC_WORD	1769765	wordpools/wasnorm_wordpool.txt	LTP154	ltpFR	2	14	1	WIDOW	1608	n/a	n/a	1	n/a	n/a	n/a	n/a	n/a
3542.484	n/a	REC_WORD	1771242	wordpools/wasnorm_wordpool.txt	LTP154	ltpFR	2	14	0	CEMETERY	269	n/a	n/a	1	n/a	n/a	n/a	n/a	n/a
3581.262	n/a	REC_WORD	1790631	wordpools/wasnorm_wordpool.txt	LTP154	ltpFR	2	14	0	HOOK	715	n/a	n/a	0	n/a	n/a	n/a	n/a	n/a
3584.894	n/a	REC_WORD	1792447	wordpools/wasnorm_wordpool.txt	LTP154	ltpFR	2	14	1	NEEDLE	941	n/a	n/a	0	n/a	n/a	n/a	n/a	n/a
3602.762	n/a	WORD	1801381	wordpools/wasnorm_wordpool.txt	LTP154	ltpFR	2	15	0	BRICK	172	n/a	n/a	0	0.57763671875	0.412841796875	1	upper	amplitud.ttf
3606.646	n/a	WORD	1803323	wordpools/wasnorm_wordpool.txt	LTP154	ltpFR	2	15	0	ROOM	1206	n/a	n/a	1	0.57763671875	0.412841796875	1	upper	amplitud.ttf
3610.66	n/a	WORD	1805330	wordpools/wasnorm_wordpool.txt	LTP154	ltpFR	2	15	0	GATE	625	n/a	n/a	1	0.57763671875	0.412841796875	1	upper	amplitud.ttf
3614.7	n/a	WORD	1807350	wordpools/wasnorm_wordpool.txt	LTP154	ltpFR	2	15	0	BASEBALL	93	n/a	n/a	0	0.57763671875	0.412841796875	1	upper	amplitud.ttf
3618.566	n/a	WORD	1809283	wordpools/wasnorm_wordpool.txt	LTP154	ltpFR	2	15	0	ARENA	37	n/a	n/a	1	0.57763671875	0.412841796875	1	upper	amplitud.ttf
3622.756	n/a	WORD	1811378	wordpools/wasnorm_wordpool.txt	LTP154	ltpFR	2	15	0	PEAR	1033	n/a	n/a	0	0.57763671875	0.412841796875	1	upper	amplitud.ttf
3626.88	n/a	WORD	1813440	wordpools/wasnorm_wordpool.txt	LTP154	ltpFR	2	15	0	BUTLER	204	n/a	n/a	1	0.57763671875	0.412841796875	1	upper	amplitud.ttf
3630.878	n/a	WORD	1815439	wordpools/wasnorm_wordpool.txt	LTP154	ltpFR	2	15	0	DUNGEON	507	n/a	n/a	1	0.57763671875	0.412841796875	1	upper	amplitud.ttf
3634.976	n/a	WORD	1817488	wordpools/wasnorm_wordpool.txt	LTP154	ltpFR	2	15	0	MOTOR	922	n/a	n/a	1	0.57763671875	0.412841796875	1	upper	amplitud.ttf
3638.818	n/a	WORD	1819409	wordpools/wasnorm_wordpool.txt	LTP154	ltpFR	2	15	0	ABDOMEN	1	n/a	n/a	1	0.57763671875	0.412841796875	1	upper	amplitud.ttf
3642.724	n/a	WORD	1821362	wordpools/wasnorm_wordpool.txt	LTP154	ltpFR	2	15	0	SEED	1266	n/a	n/a	0	0.57763671875	0.412841796875	1	upper	amplitud.ttf
3646.666	n/a	WORD	1823333	wordpools/wasnorm_wordpool.txt	LTP154	ltpFR	2	15	0	FREEWAY	603	n/a	n/a	1	0.57763671875	0.412841796875	1	upper	amplitud.ttf
3650.564	n/a	WORD	1825282	wordpools/wasnorm_wordpool.txt	LTP154	ltpFR	2	15	0	SHRINE	1298	n/a	n/a	1	0.57763671875	0.412841796875	1	upper	amplitud.ttf
3654.73	n/a	WORD	1827365	wordpools/wasnorm_wordpool.txt	LTP154	ltpFR	2	15	0	PLASTER	1085	n/a	n/a	1	0.57763671875	0.412841796875	1	upper	amplitud.ttf
3658.586	n/a	WORD	1829293	wordpools/wasnorm_wordpool.txt	LTP154	ltpFR	2	15	0	PADDLE	1000	n/a	n/a	1	0.57763671875	0.412841796875	1	upper	amplitud.ttf
3662.794	n/a	WORD	1831397	wordpools/wasnorm_wordpool.txt	LTP154	ltpFR	2	15	0	DECK	443	n/a	n/a	1	0.57763671875	0.412841796875	1	upper	amplitud.ttf
3668.676	n/a	REC_START	1834338	n/a	LTP154	ltpFR	2	15	n/a	n/a	n/a	n/a	n/a	n/a	n/a	n/a	n/a	n/a	n/a
3669.44	n/a	REC_WORD	1834720	wordpools/wasnorm_wordpool.txt	LTP154	ltpFR	2	15	0	PADDLE	1000	n/a	n/a	1	n/a	n/a	n/a	n/a	n/a
3670.018	n/a	REC_WORD	1835009	wordpools/wasnorm_wordpool.txt	LTP154	ltpFR	2	15	0	DECK	443	n/a	n/a	1	n/a	n/a	n/a	n/a	n/a
3670.274	n/a	REC_WORD	1835137	wordpools/wasnorm_wordpool.txt	LTP154	ltpFR	2	15	0	SHRINE	1298	n/a	n/a	1	n/a	n/a	n/a	n/a	n/a
3671.584	n/a	REC_WORD	1835792	wordpools/wasnorm_wordpool.txt	LTP154	ltpFR	2	15	0	FREEWAY	603	n/a	n/a	1	n/a	n/a	n/a	n/a	n/a
3674.532	n/a	REC_WORD	1837266	wordpools/wasnorm_wordpool.txt	LTP154	ltpFR	2	15	0	ABDOMEN	1	n/a	n/a	1	n/a	n/a	n/a	n/a	n/a
3679.646	n/a	REC_WORD	1839823	wordpools/wasnorm_wordpool.txt	LTP154	ltpFR	2	15	0	PEAR	1033	n/a	n/a	0	n/a	n/a	n/a	n/a	n/a
3710.378	n/a	REC_WORD	1855189	wordpools/wasnorm_wordpool.txt	LTP154	ltpFR	2	15	0	BRICK	172	n/a	n/a	0	n/a	n/a	n/a	n/a	n/a
3779.05	n/a	WORD	1889525	wordpools/wasnorm_wordpool.txt	LTP154	ltpFR	2	16	0	INMATE	738	n/a	n/a	1	0.57763671875	0.412841796875	1	upper	amplitud.ttf
3783.132	n/a	WORD	1891566	wordpools/wasnorm_wordpool.txt	LTP154	ltpFR	2	16	0	BRANDY	169	n/a	n/a	0	0.57763671875	0.412841796875	1	upper	amplitud.ttf
3787.214	n/a	WORD	1893607	wordpools/wasnorm_wordpool.txt	LTP154	ltpFR	2	16	0	CONTAINER	366	n/a	n/a	1	0.57763671875	0.412841796875	1	upper	amplitud.ttf
3791.37	n/a	WORD	1895685	wordpools/wasnorm_wordpool.txt	LTP154	ltpFR	2	16	0	JEWEL	757	n/a	n/a	0	0.57763671875	0.412841796875	1	upper	amplitud.ttf
3795.562	n/a	WORD	1897781	wordpools/wasnorm_wordpool.txt	LTP154	ltpFR	2	16	0	VET	1560	n/a	n/a	1	0.57763671875	0.412841796875	1	upper	amplitud.ttf
3799.636	n/a	WORD	1899818	wordpools/wasnorm_wordpool.txt	LTP154	ltpFR	2	16	0	PUPPY	1144	n/a	n/a	1	0.57763671875	0.412841796875	1	upper	amplitud.ttf
3803.834	n/a	WORD	1901917	wordpools/wasnorm_wordpool.txt	LTP154	ltpFR	2	16	0	COMMUNITY	356	n/a	n/a	1	0.57763671875	0.412841796875	1	upper	amplitud.ttf
3808.0	n/a	WORD	1904000	wordpools/wasnorm_wordpool.txt	LTP154	ltpFR	2	16	0	GUEST	669	n/a	n/a	1	0.57763671875	0.412841796875	1	upper	amplitud.ttf
3811.998	n/a	WORD	1905999	wordpools/wasnorm_wordpool.txt	LTP154	ltpFR	2	16	0	FOREHEAD	592	n/a	n/a	0	0.57763671875	0.412841796875	1	upper	amplitud.ttf
3816.164	n/a	WORD	1908082	wordpools/wasnorm_wordpool.txt	LTP154	ltpFR	2	16	0	TWEEZERS	1526	n/a	n/a	0	0.57763671875	0.412841796875	1	upper	amplitud.ttf
3820.138	n/a	WORD	1910069	wordpools/wasnorm_wordpool.txt	LTP154	ltpFR	2	16	0	RADIATOR	1156	n/a	n/a	1	0.57763671875	0.412841796875	1	upper	amplitud.ttf
3824.044	n/a	WORD	1912022	wordpools/wasnorm_wordpool.txt	LTP154	ltpFR	2	16	0	TOTE	1487	n/a	n/a	1	0.57763671875	0.412841796875	1	upper	amplitud.ttf
3827.926	n/a	WORD	1913963	wordpools/wasnorm_wordpool.txt	LTP154	ltpFR	2	16	0	MINK	897	n/a	n/a	1	0.57763671875	0.412841796875	1	upper	amplitud.ttf
3831.992	n/a	WORD	1915996	wordpools/wasnorm_wordpool.txt	LTP154	ltpFR	2	16	0	GARAGE	621	n/a	n/a	1	0.57763671875	0.412841796875	1	upper	amplitud.ttf
3835.85	n/a	WORD	1917925	wordpools/wasnorm_wordpool.txt	LTP154	ltpFR	2	16	0	NURSE	963	n/a	n/a	1	0.57763671875	0.412841796875	1	upper	amplitud.ttf
3839.85	n/a	WORD	1919925	wordpools/wasnorm_wordpool.txt	LTP154	ltpFR	2	16	0	HOOD	714	n/a	n/a	1	0.57763671875	0.412841796875	1	upper	amplitud.ttf
3845.73	n/a	REC_START	1922865	n/a	LTP154	ltpFR	2	16	n/a	n/a	n/a	n/a	n/a	n/a	n/a	n/a	n/a	n/a	n/a
3847.062	n/a	REC_WORD	1923531	wordpools/wasnorm_wordpool.txt	LTP154	ltpFR	2	16	0	INMATE	738	n/a	n/a	1	n/a	n/a	n/a	n/a	n/a
3847.552	n/a	REC_WORD	1923776	wordpools/wasnorm_wordpool.txt	LTP154	ltpFR	2	16	0	GARAGE	621	n/a	n/a	1	n/a	n/a	n/a	n/a	n/a
3848.19	n/a	REC_WORD	1924095	wordpools/wasnorm_wordpool.txt	LTP154	ltpFR	2	16	0	NURSE	963	n/a	n/a	1	n/a	n/a	n/a	n/a	n/a
3848.788	n/a	REC_WORD	1924394	wordpools/wasnorm_wordpool.txt	LTP154	ltpFR	2	16	0	HOOD	714	n/a	n/a	1	n/a	n/a	n/a	n/a	n/a
3871.898	n/a	REC_WORD	1935949	wordpools/wasnorm_wordpool.txt	LTP154	ltpFR	2	16	0	TOTE	1487	n/a	n/a	1	n/a	n/a	n/a	n/a	n/a
3873.32	n/a	REC_WORD	1936660	wordpools/wasnorm_wordpool.txt	LTP154	ltpFR	2	16	0	MINK	897	n/a	n/a	1	n/a	n/a	n/a	n/a	n/a
3875.854	n/a	REC_WORD	1937927	wordpools/wasnorm_wordpool.txt	LTP154	ltpFR	2	16	0	FOREHEAD	592	n/a	n/a	0	n/a	n/a	n/a	n/a	n/a
3878.264	n/a	REC_WORD	1939132	wordpools/wasnorm_wordpool.txt	LTP154	ltpFR	2	16	0	TWEEZERS	1526	n/a	n/a	0	n/a	n/a	n/a	n/a	n/a
3907.748	n/a	REC_WORD	1953874	wordpools/wasnorm_wordpool.txt	LTP154	ltpFR	2	16	0	COMMUNITY	356	n/a	n/a	1	n/a	n/a	n/a	n/a	n/a
3913.246	n/a	REC_WORD	1956623	wordpools/wasnorm_wordpool.txt	LTP154	ltpFR	2	16	0	HOOD	714	n/a	n/a	1	n/a	n/a	n/a	n/a	n/a
4010.322	n/a	REC_START	2005161	n/a	LTP154	ltpFR	2	n/a	n/a	n/a	n/a	n/a	n/a	n/a	n/a	n/a	n/a	n/a	n/a
4012.222	n/a	FFR_REC_WORD_VV	2006111	wordpools/wasnorm_wordpool.txt	LTP154	ltpFR	2	n/a	n/a	<>	-1	n/a	n/a	n/a	n/a	n/a	n/a	n/a	n/a
4012.698	n/a	FFR_REC_WORD	2006349	wordpools/wasnorm_wordpool.txt	LTP154	ltpFR	2	n/a	0	VAN	1548	n/a	n/a	1	n/a	n/a	n/a	n/a	n/a
4015.18	n/a	FFR_REC_WORD	2007590	wordpools/wasnorm_wordpool.txt	LTP154	ltpFR	2	n/a	1	GIRAFFE	636	n/a	n/a	1	n/a	n/a	n/a	n/a	n/a
4017.82	n/a	FFR_REC_WORD	2008910	wordpools/wasnorm_wordpool.txt	LTP154	ltpFR	2	n/a	-1	PEACH	1031	n/a	n/a	-1	n/a	n/a	n/a	n/a	n/a
4018.806	n/a	FFR_REC_WORD	2009403	wordpools/wasnorm_wordpool.txt	LTP154	ltpFR	2	n/a	-1	APPLE	33	n/a	n/a	-1	n/a	n/a	n/a	n/a	n/a
4019.98	n/a	FFR_REC_WORD	2009990	wordpools/wasnorm_wordpool.txt	LTP154	ltpFR	2	n/a	1	PRUNE	1134	n/a	n/a	0	n/a	n/a	n/a	n/a	n/a
4020.628	n/a	FFR_REC_WORD	2010314	wordpools/wasnorm_wordpool.txt	LTP154	ltpFR	2	n/a	1	GRAPE	654	n/a	n/a	0	n/a	n/a	n/a	n/a	n/a
4021.92	n/a	FFR_REC_WORD	2010960	wordpools/wasnorm_wordpool.txt	LTP154	ltpFR	2	n/a	-1	RAISIN	1163	n/a	n/a	-1	n/a	n/a	n/a	n/a	n/a
4022.58	n/a	FFR_REC_WORD	2011290	wordpools/wasnorm_wordpool.txt	LTP154	ltpFR	2	n/a	-1	OATMEAL	967	n/a	n/a	-1	n/a	n/a	n/a	n/a	n/a
4023.282	n/a	FFR_REC_WORD	2011641	wordpools/wasnorm_wordpool.txt	LTP154	ltpFR	2	n/a	-1	OATS	968	n/a	n/a	-1	n/a	n/a	n/a	n/a	n/a
4023.886	n/a	FFR_REC_WORD	2011943	wordpools/wasnorm_wordpool.txt	LTP154	ltpFR	2	n/a	-1	BARLEY	88	n/a	n/a	-1	n/a	n/a	n/a	n/a	n/a
4026.884	n/a	FFR_REC_WORD	2013442	wordpools/wasnorm_wordpool.txt	LTP154	ltpFR	2	n/a	0	TANGERINE	1431	n/a	n/a	0	n/a	n/a	n/a	n/a	n/a
4029.014	n/a	FFR_REC_WORD	2014507	wordpools/wasnorm_wordpool.txt	LTP154	ltpFR	2	n/a	-1	RASPBERRY	1168	n/a	n/a	-1	n/a	n/a	n/a	n/a	n/a
4032.98	n/a	FFR_REC_WORD	2016490	wordpools/wasnorm_wordpool.txt	LTP154	ltpFR	2	n/a	0	CEMETERY	269	n/a	n/a	1	n/a	n/a	n/a	n/a	n/a
4033.866	n/a	FFR_REC_WORD	2016933	wordpools/wasnorm_wordpool.txt	LTP154	ltpFR	2	n/a	1	WIDOW	1608	n/a	n/a	1	n/a	n/a	n/a	n/a	n/a
4035.654	n/a	FFR_REC_WORD	2017827	wordpools/wasnorm_wordpool.txt	LTP154	ltpFR	2	n/a	0	INMATE	738	n/a	n/a	1	n/a	n/a	n/a	n/a	n/a
4036.298	n/a	FFR_REC_WORD	2018149	wordpools/wasnorm_wordpool.txt	LTP154	ltpFR	2	n/a	n/a	PRISON	1127	n/a	n/a	n/a	n/a	n/a	n/a	n/a	n/a
4038.978	n/a	FFR_REC_WORD	2019489	wordpools/wasnorm_wordpool.txt	LTP154	ltpFR	2	n/a	0	NURSE	963	n/a	n/a	1	n/a	n/a	n/a	n/a	n/a
4039.804	n/a	FFR_REC_WORD	2019902	wordpools/wasnorm_wordpool.txt	LTP154	ltpFR	2	n/a	0	HOOD	714	n/a	n/a	1	n/a	n/a	n/a	n/a	n/a
4047.718	n/a	FFR_REC_WORD	2023859	wordpools/wasnorm_wordpool.txt	LTP154	ltpFR	2	n/a	-1	CHIPMUNK	304	n/a	n/a	-1	n/a	n/a	n/a	n/a	n/a
4048.198	n/a	FFR_REC_WORD	2024099	wordpools/wasnorm_wordpool.txt	LTP154	ltpFR	2	n/a	-1	RACCOON	1153	n/a	n/a	-1	n/a	n/a	n/a	n/a	n/a
4050.582	n/a	FFR_REC_WORD	2025291	wordpools/wasnorm_wordpool.txt	LTP154	ltpFR	2	n/a	-1	CROCODILE	411	n/a	n/a	-1	n/a	n/a	n/a	n/a	n/a
4052.118	n/a	FFR_REC_WORD	2026059	wordpools/wasnorm_wordpool.txt	LTP154	ltpFR	2	n/a	1	BUFFALO	186	n/a	n/a	1	n/a	n/a	n/a	n/a	n/a
4053.042	n/a	FFR_REC_WORD	2026521	wordpools/wasnorm_wordpool.txt	LTP154	ltpFR	2	n/a	-1	HORSE	719	n/a	n/a	-1	n/a	n/a	n/a	n/a	n/a
4063.554	n/a	FFR_REC_WORD	2031777	wordpools/wasnorm_wordpool.txt	LTP154	ltpFR	2	n/a	0	COMMUNITY	356	n/a	n/a	1	n/a	n/a	n/a	n/a	n/a
4067.688	n/a	FFR_REC_WORD	2033844	wordpools/wasnorm_wordpool.txt	LTP154	ltpFR	2	n/a	0	ABDOMEN	1	n/a	n/a	1	n/a	n/a	n/a	n/a	n/a
4068.408	n/a	FFR_REC_WORD	2034204	wordpools/wasnorm_wordpool.txt	LTP154	ltpFR	2	n/a	0	FOREHEAD	592	n/a	n/a	0	n/a	n/a	n/a	n/a	n/a
4070.078	n/a	FFR_REC_WORD	2035039	wordpools/wasnorm_wordpool.txt	LTP154	ltpFR	2	n/a	0	LIVER	833	n/a	n/a	1	n/a	n/a	n/a	n/a	n/a
4075.69	n/a	FFR_REC_WORD	2037845	wordpools/wasnorm_wordpool.txt	LTP154	ltpFR	2	n/a	0	TWEEZERS	1526	n/a	n/a	0	n/a	n/a	n/a	n/a	n/a
4078.668	n/a	FFR_REC_WORD	2039334	wordpools/wasnorm_wordpool.txt	LTP154	ltpFR	2	n/a	0	HOOK	715	n/a	n/a	0	n/a	n/a	n/a	n/a	n/a
4079.464	n/a	FFR_REC_WORD	2039732	wordpools/wasnorm_wordpool.txt	LTP154	ltpFR	2	n/a	1	NEEDLE	941	n/a	n/a	0	n/a	n/a	n/a	n/a	n/a
4084.486	n/a	FFR_REC_WORD	2042243	wordpools/wasnorm_wordpool.txt	LTP154	ltpFR	2	n/a	0	TOTE	1487	n/a	n/a	1	n/a	n/a	n/a	n/a	n/a
4087.614	n/a	FFR_REC_WORD	2043807	wordpools/wasnorm_wordpool.txt	LTP154	ltpFR	2	n/a	-1	YARD	1630	n/a	n/a	-1	n/a	n/a	n/a	n/a	n/a
4094.888	n/a	FFR_REC_WORD	2047444	wordpools/wasnorm_wordpool.txt	LTP154	ltpFR	2	n/a	-1	RAISIN	1163	n/a	n/a	-1	n/a	n/a	n/a	n/a	n/a
4099.628	n/a	FFR_REC_WORD	2049814	wordpools/wasnorm_wordpool.txt	LTP154	ltpFR	2	n/a	1	GRAPE	654	n/a	n/a	0	n/a	n/a	n/a	n/a	n/a
4100.092	n/a	FFR_REC_WORD	2050046	wordpools/wasnorm_wordpool.txt	LTP154	ltpFR	2	n/a	1	PRUNE	1134	n/a	n/a	0	n/a	n/a	n/a	n/a	n/a
4111.816	n/a	FFR_REC_WORD	2055908	wordpools/wasnorm_wordpool.txt	LTP154	ltpFR	2	n/a	1	BUS	201	n/a	n/a	0	n/a	n/a	n/a	n/a	n/a
4114.43	n/a	FFR_REC_WORD	2057215	wordpools/wasnorm_wordpool.txt	LTP154	ltpFR	2	n/a	1	TRUMPET	1513	n/a	n/a	0	n/a	n/a	n/a	n/a	n/a
4115.508	n/a	FFR_REC_WORD	2057754	wordpools/wasnorm_wordpool.txt	LTP154	ltpFR	2	n/a	1	BIKE	125	n/a	n/a	0	n/a	n/a	n/a	n/a	n/a
4117.514	n/a	FFR_REC_WORD	2058757	wordpools/wasnorm_wordpool.txt	LTP154	ltpFR	2	n/a	0	PASSENGER	1020	n/a	n/a	1	n/a	n/a	n/a	n/a	n/a
4118.276	n/a	FFR_REC_WORD	2059138	wordpools/wasnorm_wordpool.txt	LTP154	ltpFR	2	n/a	0	TICKET	1464	n/a	n/a	0	n/a	n/a	n/a	n/a	n/a
4132.1	n/a	FFR_REC_WORD	2066050	wordpools/wasnorm_wordpool.txt	LTP154	ltpFR	2	n/a	0	MINK	897	n/a	n/a	1	n/a	n/a	n/a	n/a	n/a
4141.46	n/a	FFR_REC_WORD	2070730	wordpools/wasnorm_wordpool.txt	LTP154	ltpFR	2	n/a	0	HEDGE	699	n/a	n/a	1	n/a	n/a	n/a	n/a	n/a
4143.62	n/a	FFR_REC_WORD	2071810	wordpools/wasnorm_wordpool.txt	LTP154	ltpFR	2	n/a	0	BRICK	172	n/a	n/a	0	n/a	n/a	n/a	n/a	n/a
4144.712	n/a	FFR_REC_WORD	2072356	wordpools/wasnorm_wordpool.txt	LTP154	ltpFR	2	n/a	1	CONTRACTOR	369	n/a	n/a	1	n/a	n/a	n/a	n/a	n/a
4148.006	n/a	FFR_REC_WORD	2074003	wordpools/wasnorm_wordpool.txt	LTP154	ltpFR	2	n/a	-1	HOUSE	725	n/a	n/a	-1	n/a	n/a	n/a	n/a	n/a
4149.028	n/a	FFR_REC_WORD	2074514	wordpools/wasnorm_wordpool.txt	LTP154	ltpFR	2	n/a	-1	MANSION	864	n/a	n/a	-1	n/a	n/a	n/a	n/a	n/a
4149.772	n/a	FFR_REC_WORD	2074886	wordpools/wasnorm_wordpool.txt	LTP154	ltpFR	2	n/a	0	FRIAR	605	n/a	n/a	1	n/a	n/a	n/a	n/a	n/a
4150.58	n/a	FFR_REC_WORD	2075290	wordpools/wasnorm_wordpool.txt	LTP154	ltpFR	2	n/a	0	MONASTERY	907	n/a	n/a	1	n/a	n/a	n/a	n/a	n/a
4162.318	n/a	FFR_REC_WORD	2081159	wordpools/wasnorm_wordpool.txt	LTP154	ltpFR	2	n/a	0	CUPBOARD	425	n/a	n/a	1	n/a	n/a	n/a	n/a	n/a
4165.476	n/a	FFR_REC_WORD	2082738	wordpools/wasnorm_wordpool.txt	LTP154	ltpFR	2	n/a	0	SOFA	1342	n/a	n/a	1	n/a	n/a	n/a	n/a	n/a
4173.728	n/a	FFR_REC_WORD	2086864	wordpools/wasnorm_wordpool.txt	LTP154	ltpFR	2	n/a	-1	PORPOISE	1109	n/a	n/a	-1	n/a	n/a	n/a	n/a	n/a
4175.07	n/a	FFR_REC_WORD	2087535	wordpools/wasnorm_wordpool.txt	LTP154	ltpFR	2	n/a	-1	SERPENT	1270	n/a	n/a	-1	n/a	n/a	n/a	n/a	n/a
4188.092	n/a	FFR_REC_WORD	2094046	wordpools/wasnorm_wordpool.txt	LTP154	ltpFR	2	n/a	0	BASEBALL	93	n/a	n/a	0	n/a	n/a	n/a	n/a	n/a
4195.142	n/a	FFR_REC_WORD	2097571	wordpools/wasnorm_wordpool.txt	LTP154	ltpFR	2	n/a	0	BIBLE	124	n/a	n/a	0	n/a	n/a	n/a	n/a	n/a
4196.024	n/a	FFR_REC_WORD	2098012	wordpools/wasnorm_wordpool.txt	LTP154	ltpFR	2	n/a	0	NOTEBOOK	959	n/a	n/a	1	n/a	n/a	n/a	n/a	n/a
4196.658	n/a	FFR_REC_WORD	2098329	wordpools/wasnorm_wordpool.txt	LTP154	ltpFR	2	n/a	0	PAGE	1001	n/a	n/a	0	n/a	n/a	n/a	n/a	n/a
4221.268	n/a	FFR_REC_WORD	2110634	wordpools/wasnorm_wordpool.txt	LTP154	ltpFR	2	n/a	0	TWEEZERS	1526	n/a	n/a	0	n/a	n/a	n/a	n/a	n/a
4225.678	n/a	FFR_REC_WORD_VV	2112839	wordpools/wasnorm_wordpool.txt	LTP154	ltpFR	2	n/a	n/a	<>	-1	n/a	n/a	n/a	n/a	n/a	n/a	n/a	n/a
4230.164	n/a	FFR_REC_WORD	2115082	wordpools/wasnorm_wordpool.txt	LTP154	ltpFR	2	n/a	n/a	FILE	-1	n/a	n/a	n/a	n/a	n/a	n/a	n/a	n/a
4242.9	n/a	FFR_REC_WORD	2121450	wordpools/wasnorm_wordpool.txt	LTP154	ltpFR	2	n/a	1	NEEDLE	941	n/a	n/a	0	n/a	n/a	n/a	n/a	n/a
4243.268	n/a	FFR_REC_WORD	2121634	wordpools/wasnorm_wordpool.txt	LTP154	ltpFR	2	n/a	0	HOOK	715	n/a	n/a	0	n/a	n/a	n/a	n/a	n/a
4256.998	n/a	FFR_REC_WORD	2128499	wordpools/wasnorm_wordpool.txt	LTP154	ltpFR	2	n/a	1	CHEERLEADER	288	n/a	n/a	1	n/a	n/a	n/a	n/a	n/a
4259.154	n/a	FFR_REC_WORD	2129577	wordpools/wasnorm_wordpool.txt	LTP154	ltpFR	2	n/a	1	UNCLE	1536	n/a	n/a	1	n/a	n/a	n/a	n/a	n/a
4259.972	n/a	FFR_REC_WORD	2129986	wordpools/wasnorm_wordpool.txt	LTP154	ltpFR	2	n/a	1	NIECE	952	n/a	n/a	1	n/a	n/a	n/a	n/a	n/a
4260.776	n/a	FFR_REC_WORD	2130388	wordpools/wasnorm_wordpool.txt	LTP154	ltpFR	2	n/a	1	WIDOW	1608	n/a	n/a	1	n/a	n/a	n/a	n/a	n/a
4263.084	n/a	FFR_REC_WORD	2131542	wordpools/wasnorm_wordpool.txt	LTP154	ltpFR	2	n/a	1	GROOM	665	n/a	n/a	1	n/a	n/a	n/a	n/a	n/a
4283.674	n/a	FFR_REC_WORD	2141837	wordpools/wasnorm_wordpool.txt	LTP154	ltpFR	2	n/a	1	SLIME	1327	n/a	n/a	0	n/a	n/a	n/a	n/a	n/a
4285.002	n/a	FFR_REC_WORD	2142501	wordpools/wasnorm_wordpool.txt	LTP154	ltpFR	2	n/a	0	ROACH	1195	n/a	n/a	0	n/a	n/a	n/a	n/a	n/a
4298.356	n/a	FFR_REC_WORD	2149178	wordpools/wasnorm_wordpool.txt	LTP154	ltpFR	2	n/a	-1	YARD	1630	n/a	n/a	-1	n/a	n/a	n/a	n/a	n/a
4301.61	n/a	FFR_REC_WORD	2150805	wordpools/wasnorm_wordpool.txt	LTP154	ltpFR	2	n/a	0	TOTE	1487	n/a	n/a	1	n/a	n/a	n/a	n/a	n/a
4307.606	n/a	FFR_REC_WORD	2153803	wordpools/wasnorm_wordpool.txt	LTP154	ltpFR	2	n/a	0	FREEWAY	603	n/a	n/a	1	n/a	n/a	n/a	n/a	n/a
4394.122	n/a	REC_START	2197061	n/a	LTP154	ltpFR	2	1	n/a	n/a	n/a	n/a	n/a	n/a	n/a	n/a	n/a	n/a	n/a
4394.162	n/a	RECOG_TARGET	2197081	n/a	LTP154	ltpFR	2	1	-1	CHIPMUNK	304	1	3	-1	n/a	n/a	n/a	n/a	n/a
4395.724	n/a	RECOG_RESP	2197862	n/a	LTP154	ltpFR	2	1	-1	CHIPMUNK	304	1	n/a	-1	n/a	n/a	n/a	n/a	n/a
4398.208	n/a	RECOG_CONF	2199104	n/a	LTP154	ltpFR	2	1	-1	CHIPMUNK	304	n/a	3	-1	n/a	n/a	n/a	n/a	n/a
4399.862	n/a	RECOG_TARGET	2199931	n/a	LTP154	ltpFR	2	1	0	SEED	1266	1	5	0	n/a	n/a	n/a	n/a	n/a
4401.274	n/a	RECOG_RESP	2200637	n/a	LTP154	ltpFR	2	1	0	SEED	1266	1	n/a	0	n/a	n/a	n/a	n/a	n/a
4402.658	n/a	RECOG_CONF	2201329	n/a	LTP154	ltpFR	2	1	0	SEED	1266	n/a	5	0	n/a	n/a	n/a	n/a	n/a
4404.386	n/a	RECOG_TARGET	2202193	n/a	LTP154	ltpFR	2	1	0	GUEST	669	1	3	1	n/a	n/a	n/a	n/a	n/a
4405.93	n/a	RECOG_RESP	2202965	n/a	LTP154	ltpFR	2	1	0	GUEST	669	1	n/a	1	n/a	n/a	n/a	n/a	n/a
4407.228	n/a	RECOG_CONF	2203614	n/a	LTP154	ltpFR	2	1	0	GUEST	669	n/a	3	1	n/a	n/a	n/a	n/a	n/a
4409.034	n/a	RECOG_TARGET	2204517	n/a	LTP154	ltpFR	2	1	-1	BAIT	70	1	5	-1	n/a	n/a	n/a	n/a	n/a
4410.27	n/a	RECOG_RESP	2205135	n/a	LTP154	ltpFR	2	1	-1	BAIT	70	1	n/a	-1	n/a	n/a	n/a	n/a	n/a
4411.508	n/a	RECOG_CONF	2205754	n/a	LTP154	ltpFR	2	1	-1	BAIT	70	n/a	5	-1	n/a	n/a	n/a	n/a	n/a
4413.34	n/a	RECOG_TARGET	2206670	n/a	LTP154	ltpFR	2	1	1	DIVER	476	1	5	1	n/a	n/a	n/a	n/a	n/a
4414.318	n/a	RECOG_RESP	2207159	n/a	LTP154	ltpFR	2	1	1	DIVER	476	1	n/a	1	n/a	n/a	n/a	n/a	n/a
4415.728	n/a	RECOG_CONF	2207864	n/a	LTP154	ltpFR	2	1	1	DIVER	476	n/a	5	1	n/a	n/a	n/a	n/a	n/a
4417.514	n/a	RECOG_TARGET	2208757	n/a	LTP154	ltpFR	2	1	1	GARDEN	623	1	5	1	n/a	n/a	n/a	n/a	n/a
4418.572	n/a	RECOG_RESP	2209286	n/a	LTP154	ltpFR	2	1	1	GARDEN	623	1	n/a	1	n/a	n/a	n/a	n/a	n/a
4419.91	n/a	RECOG_CONF	2209955	n/a	LTP154	ltpFR	2	1	1	GARDEN	623	n/a	5	1	n/a	n/a	n/a	n/a	n/a
4421.632	n/a	RECOG_LURE	2210816	n/a	LTP154	ltpFR	2	1	n/a	PERFUME	1049	1	2	n/a	n/a	n/a	n/a	n/a	n/a
4423.338	n/a	RECOG_RESP	2211669	n/a	LTP154	ltpFR	2	1	n/a	PERFUME	1049	1	n/a	n/a	n/a	n/a	n/a	n/a	n/a
4426.286	n/a	RECOG_CONF	2213143	n/a	LTP154	ltpFR	2	1	n/a	PERFUME	1049	n/a	2	n/a	n/a	n/a	n/a	n/a	n/a
4427.986	n/a	RECOG_LURE	2213993	n/a	LTP154	ltpFR	2	1	n/a	BEAD	103	0	3	n/a	n/a	n/a	n/a	n/a	n/a
4429.608	n/a	RECOG_RESP	2214804	n/a	LTP154	ltpFR	2	1	n/a	BEAD	103	0	n/a	n/a	n/a	n/a	n/a	n/a	n/a
4431.264	n/a	RECOG_CONF	2215632	n/a	LTP154	ltpFR	2	1	n/a	BEAD	103	n/a	3	n/a	n/a	n/a	n/a	n/a	n/a
4432.976	n/a	RECOG_TARGET	2216488	n/a	LTP154	ltpFR	2	1	-1	FLUTE	585	1	4	-1	n/a	n/a	n/a	n/a	n/a
4433.96	n/a	RECOG_RESP	2216980	n/a	LTP154	ltpFR	2	1	-1	FLUTE	585	1	n/a	-1	n/a	n/a	n/a	n/a	n/a
4435.944	n/a	RECOG_CONF	2217972	n/a	LTP154	ltpFR	2	1	-1	FLUTE	585	n/a	4	-1	n/a	n/a	n/a	n/a	n/a
4437.576	n/a	RECOG_TARGET	2218788	n/a	LTP154	ltpFR	2	1	0	COMMUNITY	356	1	5	1	n/a	n/a	n/a	n/a	n/a
4438.674	n/a	RECOG_RESP	2219337	n/a	LTP154	ltpFR	2	1	0	COMMUNITY	356	1	n/a	1	n/a	n/a	n/a	n/a	n/a
4440.892	n/a	RECOG_CONF	2220446	n/a	LTP154	ltpFR	2	1	0	COMMUNITY	356	n/a	5	1	n/a	n/a	n/a	n/a	n/a
4442.998	n/a	RECOG_LURE	2221499	n/a	LTP154	ltpFR	2	1	n/a	POLITICIAN	1099	1	4	n/a	n/a	n/a	n/a	n/a	n/a
4444.04	n/a	RECOG_RESP	2222020	n/a	LTP154	ltpFR	2	1	n/a	POLITICIAN	1099	1	n/a	n/a	n/a	n/a	n/a	n/a	n/a
4445.352	n/a	RECOG_CONF	2222676	n/a	LTP154	ltpFR	2	1	n/a	POLITICIAN	1099	n/a	4	n/a	n/a	n/a	n/a	n/a	n/a
4447.046	n/a	RECOG_TARGET	2223523	n/a	LTP154	ltpFR	2	1	1	TUNA	1518	1	5	1	n/a	n/a	n/a	n/a	n/a
4448.02	n/a	RECOG_RESP	2224010	n/a	LTP154	ltpFR	2	1	1	TUNA	1518	1	n/a	1	n/a	n/a	n/a	n/a	n/a
4449.538	n/a	RECOG_CONF	2224769	n/a	LTP154	ltpFR	2	1	1	TUNA	1518	n/a	5	1	n/a	n/a	n/a	n/a	n/a
4451.37	n/a	RECOG_LURE	2225685	n/a	LTP154	ltpFR	2	1	n/a	CALENDAR	221	0	5	n/a	n/a	n/a	n/a	n/a	n/a
4452.864	n/a	RECOG_RESP	2226432	n/a	LTP154	ltpFR	2	1	n/a	CALENDAR	221	0	n/a	n/a	n/a	n/a	n/a	n/a	n/a
4454.196	n/a	RECOG_CONF	2227098	n/a	LTP154	ltpFR	2	1	n/a	CALENDAR	221	n/a	5	n/a	n/a	n/a	n/a	n/a	n/a
4456.036	n/a	RECOG_TARGET	2228018	n/a	LTP154	ltpFR	2	1	1	BED	110	1	2	0	n/a	n/a	n/a	n/a	n/a
4458.044	n/a	RECOG_RESP	2229022	n/a	LTP154	ltpFR	2	1	1	BED	110	1	n/a	0	n/a	n/a	n/a	n/a	n/a
4459.852	n/a	RECOG_CONF	2229926	n/a	LTP154	ltpFR	2	1	1	BED	110	n/a	2	0	n/a	n/a	n/a	n/a	n/a
4461.76	n/a	RECOG_TARGET	2230880	n/a	LTP154	ltpFR	2	1	-1	APPLE	33	1	5	-1	n/a	n/a	n/a	n/a	n/a
4462.778	n/a	RECOG_RESP	2231389	n/a	LTP154	ltpFR	2	1	-1	APPLE	33	1	n/a	-1	n/a	n/a	n/a	n/a	n/a
4464.182	n/a	RECOG_CONF	2232091	n/a	LTP154	ltpFR	2	1	-1	APPLE	33	n/a	5	-1	n/a	n/a	n/a	n/a	n/a
4465.892	n/a	RECOG_TARGET	2232946	n/a	LTP154	ltpFR	2	1	1	PENGUIN	1044	1	5	1	n/a	n/a	n/a	n/a	n/a
4466.76	n/a	RECOG_RESP	2233380	n/a	LTP154	ltpFR	2	1	1	PENGUIN	1044	1	n/a	1	n/a	n/a	n/a	n/a	n/a
4468.17	n/a	RECOG_CONF	2234085	n/a	LTP154	ltpFR	2	1	1	PENGUIN	1044	n/a	5	1	n/a	n/a	n/a	n/a	n/a
4469.99	n/a	RECOG_LURE	2234995	n/a	LTP154	ltpFR	2	1	n/a	PILL	1068	0	5	n/a	n/a	n/a	n/a	n/a	n/a
4471.232	n/a	RECOG_RESP	2235616	n/a	LTP154	ltpFR	2	1	n/a	PILL	1068	0	n/a	n/a	n/a	n/a	n/a	n/a	n/a
4472.862	n/a	RECOG_CONF	2236431	n/a	LTP154	ltpFR	2	1	n/a	PILL	1068	n/a	5	n/a	n/a	n/a	n/a	n/a	n/a
4474.496	n/a	RECOG_TARGET	2237248	n/a	LTP154	ltpFR	2	1	1	DIAGRAM	456	1	2	0	n/a	n/a	n/a	n/a	n/a
4477.598	n/a	RECOG_RESP	2238799	n/a	LTP154	ltpFR	2	1	1	DIAGRAM	456	1	n/a	0	n/a	n/a	n/a	n/a	n/a
4479.148	n/a	RECOG_CONF	2239574	n/a	LTP154	ltpFR	2	1	1	DIAGRAM	456	n/a	2	0	n/a	n/a	n/a	n/a	n/a
4481.028	n/a	RECOG_TARGET	2240514	n/a	LTP154	ltpFR	2	1	0	CONTAINER	366	1	5	1	n/a	n/a	n/a	n/a	n/a
4482.104	n/a	RECOG_RESP	2241052	n/a	LTP154	ltpFR	2	1	0	CONTAINER	366	1	n/a	1	n/a	n/a	n/a	n/a	n/a
4483.988	n/a	RECOG_CONF	2241994	n/a	LTP154	ltpFR	2	1	0	CONTAINER	366	n/a	5	1	n/a	n/a	n/a	n/a	n/a
4485.862	n/a	RECOG_TARGET	2242931	n/a	LTP154	ltpFR	2	1	1	PORT	1110	1	5	0	n/a	n/a	n/a	n/a	n/a
4486.902	n/a	RECOG_RESP	2243451	n/a	LTP154	ltpFR	2	1	1	PORT	1110	1	n/a	0	n/a	n/a	n/a	n/a	n/a
4489.026	n/a	RECOG_CONF	2244513	n/a	LTP154	ltpFR	2	1	1	PORT	1110	n/a	5	0	n/a	n/a	n/a	n/a	n/a
4510.658	n/a	REC_START	2255329	n/a	LTP154	ltpFR	2	2	n/a	n/a	n/a	n/a	n/a	n/a	n/a	n/a	n/a	n/a	n/a
4510.696	n/a	RECOG_LURE	2255348	n/a	LTP154	ltpFR	2	2	n/a	FUNGUS	614	0	5	n/a	n/a	n/a	n/a	n/a	n/a
4512.202	n/a	RECOG_RESP	2256101	n/a	LTP154	ltpFR	2	2	n/a	FUNGUS	614	0	n/a	n/a	n/a	n/a	n/a	n/a	n/a
4513.878	n/a	RECOG_CONF	2256939	n/a	LTP154	ltpFR	2	2	n/a	FUNGUS	614	n/a	5	n/a	n/a	n/a	n/a	n/a	n/a
4515.494	n/a	RECOG_TARGET	2257747	n/a	LTP154	ltpFR	2	2	-1	CIGAR	308	1	5	-1	n/a	n/a	n/a	n/a	n/a
4516.412	n/a	RECOG_RESP	2258206	n/a	LTP154	ltpFR	2	2	-1	CIGAR	308	1	n/a	-1	n/a	n/a	n/a	n/a	n/a
4518.836	n/a	RECOG_CONF	2259418	n/a	LTP154	ltpFR	2	2	-1	CIGAR	308	n/a	5	-1	n/a	n/a	n/a	n/a	n/a
4520.668	n/a	RECOG_TARGET	2260334	n/a	LTP154	ltpFR	2	2	0	KITTEN	780	1	5	0	n/a	n/a	n/a	n/a	n/a
4521.572	n/a	RECOG_RESP	2260786	n/a	LTP154	ltpFR	2	2	0	KITTEN	780	1	n/a	0	n/a	n/a	n/a	n/a	n/a
4523.252	n/a	RECOG_CONF	2261626	n/a	LTP154	ltpFR	2	2	0	KITTEN	780	n/a	5	0	n/a	n/a	n/a	n/a	n/a
4525.074	n/a	RECOG_LURE	2262537	n/a	LTP154	ltpFR	2	2	n/a	MITTEN	902	0	3	n/a	n/a	n/a	n/a	n/a	n/a
4527.312	n/a	RECOG_RESP	2263656	n/a	LTP154	ltpFR	2	2	n/a	MITTEN	902	0	n/a	n/a	n/a	n/a	n/a	n/a	n/a
4528.968	n/a	RECOG_CONF	2264484	n/a	LTP154	ltpFR	2	2	n/a	MITTEN	902	n/a	3	n/a	n/a	n/a	n/a	n/a	n/a
4530.748	n/a	RECOG_TARGET	2265374	n/a	LTP154	ltpFR	2	2	0	SWORD	1423	1	5	1	n/a	n/a	n/a	n/a	n/a
4531.74	n/a	RECOG_RESP	2265870	n/a	LTP154	ltpFR	2	2	0	SWORD	1423	1	n/a	1	n/a	n/a	n/a	n/a	n/a
4533.066	n/a	RECOG_CONF	2266533	n/a	LTP154	ltpFR	2	2	0	SWORD	1423	n/a	5	1	n/a	n/a	n/a	n/a	n/a
4534.738	n/a	RECOG_TARGET	2267369	n/a	LTP154	ltpFR	2	2	-1	VEST	1559	1	5	-1	n/a	n/a	n/a	n/a	n/a
4535.646	n/a	RECOG_RESP	2267823	n/a	LTP154	ltpFR	2	2	-1	VEST	1559	1	n/a	-1	n/a	n/a	n/a	n/a	n/a
4537.076	n/a	RECOG_CONF	2268538	n/a	LTP154	ltpFR	2	2	-1	VEST	1559	n/a	5	-1	n/a	n/a	n/a	n/a	n/a
4538.812	n/a	RECOG_LURE	2269406	n/a	LTP154	ltpFR	2	2	n/a	LIMOUSINE	824	0	4	n/a	n/a	n/a	n/a	n/a	n/a
4540.64	n/a	RECOG_RESP	2270320	n/a	LTP154	ltpFR	2	2	n/a	LIMOUSINE	824	0	n/a	n/a	n/a	n/a	n/a	n/a	n/a
4542.338	n/a	RECOG_CONF	2271169	n/a	LTP154	ltpFR	2	2	n/a	LIMOUSINE	824	n/a	4	n/a	n/a	n/a	n/a	n/a	n/a
4544.168	n/a	RECOG_TARGET	2272084	n/a	LTP154	ltpFR	2	2	1	VIRUS	1572	1	5	1	n/a	n/a	n/a	n/a	n/a
4545.018	n/a	RECOG_RESP	2272509	n/a	LTP154	ltpFR	2	2	1	VIRUS	1572	1	n/a	1	n/a	n/a	n/a	n/a	n/a
4546.724	n/a	RECOG_CONF	2273362	n/a	LTP154	ltpFR	2	2	1	VIRUS	1572	n/a	5	1	n/a	n/a	n/a	n/a	n/a
4548.408	n/a	RECOG_TARGET	2274204	n/a	LTP154	ltpFR	2	2	1	MICROWAVE	892	1	2	0	n/a	n/a	n/a	n/a	n/a
4549.37	n/a	RECOG_RESP	2274685	n/a	LTP154	ltpFR	2	2	1	MICROWAVE	892	1	n/a	0	n/a	n/a	n/a	n/a	n/a
4555.11	n/a	RECOG_CONF	2277555	n/a	LTP154	ltpFR	2	2	1	MICROWAVE	892	n/a	2	0	n/a	n/a	n/a	n/a	n/a
4556.856	n/a	RECOG_TARGET	2278428	n/a	LTP154	ltpFR	2	2	1	DOUGH	489	1	4	0	n/a	n/a	n/a	n/a	n/a
4558.02	n/a	RECOG_RESP	2279010	n/a	LTP154	ltpFR	2	2	1	DOUGH	489	1	n/a	0	n/a	n/a	n/a	n/a	n/a
4559.512	n/a	RECOG_CONF	2279756	n/a	LTP154	ltpFR	2	2	1	DOUGH	489	n/a	4	0	n/a	n/a	n/a	n/a	n/a
4561.078	n/a	RECOG_LURE	2280539	n/a	LTP154	ltpFR	2	2	n/a	SWAMP	1416	0	4	n/a	n/a	n/a	n/a	n/a	n/a
4562.444	n/a	RECOG_RESP	2281222	n/a	LTP154	ltpFR	2	2	n/a	SWAMP	1416	0	n/a	n/a	n/a	n/a	n/a	n/a	n/a
4563.752	n/a	RECOG_CONF	2281876	n/a	LTP154	ltpFR	2	2	n/a	SWAMP	1416	n/a	4	n/a	n/a	n/a	n/a	n/a	n/a
4565.47	n/a	RECOG_TARGET	2282735	n/a	LTP154	ltpFR	2	2	0	HOOK	715	1	2	0	n/a	n/a	n/a	n/a	n/a
4566.374	n/a	RECOG_RESP	2283187	n/a	LTP154	ltpFR	2	2	0	HOOK	715	1	n/a	0	n/a	n/a	n/a	n/a	n/a
4571.05	n/a	RECOG_CONF	2285525	n/a	LTP154	ltpFR	2	2	0	HOOK	715	n/a	2	0	n/a	n/a	n/a	n/a	n/a
4572.66	n/a	RECOG_TARGET	2286330	n/a	LTP154	ltpFR	2	2	1	SEAGULL	1261	1	5	1	n/a	n/a	n/a	n/a	n/a
4573.628	n/a	RECOG_RESP	2286814	n/a	LTP154	ltpFR	2	2	1	SEAGULL	1261	1	n/a	1	n/a	n/a	n/a	n/a	n/a
4574.958	n/a	RECOG_CONF	2287479	n/a	LTP154	ltpFR	2	2	1	SEAGULL	1261	n/a	5	1	n/a	n/a	n/a	n/a	n/a
4576.65	n/a	RECOG_LURE	2288325	n/a	LTP154	ltpFR	2	2	n/a	JAW	751	0	5	n/a	n/a	n/a	n/a	n/a	n/a
4577.7	n/a	RECOG_RESP	2288850	n/a	LTP154	ltpFR	2	2	n/a	JAW	751	0	n/a	n/a	n/a	n/a	n/a	n/a	n/a
4578.982	n/a	RECOG_CONF	2289491	n/a	LTP154	ltpFR	2	2	n/a	JAW	751	n/a	5	n/a	n/a	n/a	n/a	n/a	n/a
4580.674	n/a	RECOG_TARGET	2290337	n/a	LTP154	ltpFR	2	2	1	CONTRACTOR	369	1	5	1	n/a	n/a	n/a	n/a	n/a
4581.56	n/a	RECOG_RESP	2290780	n/a	LTP154	ltpFR	2	2	1	CONTRACTOR	369	1	n/a	1	n/a	n/a	n/a	n/a	n/a
4582.842	n/a	RECOG_CONF	2291421	n/a	LTP154	ltpFR	2	2	1	CONTRACTOR	369	n/a	5	1	n/a	n/a	n/a	n/a	n/a
4584.506	n/a	RECOG_TARGET	2292253	n/a	LTP154	ltpFR	2	2	0	HEDGE	699	1	5	1	n/a	n/a	n/a	n/a	n/a
4585.392	n/a	RECOG_RESP	2292696	n/a	LTP154	ltpFR	2	2	0	HEDGE	699	1	n/a	1	n/a	n/a	n/a	n/a	n/a
4586.846	n/a	RECOG_CONF	2293423	n/a	LTP154	ltpFR	2	2	0	HEDGE	699	n/a	5	1	n/a	n/a	n/a	n/a	n/a
4588.404	n/a	RECOG_LURE	2294202	n/a	LTP154	ltpFR	2	2	n/a	CART	250	0	5	n/a	n/a	n/a	n/a	n/a	n/a
4589.438	n/a	RECOG_RESP	2294719	n/a	LTP154	ltpFR	2	2	n/a	CART	250	0	n/a	n/a	n/a	n/a	n/a	n/a	n/a
4590.598	n/a	RECOG_CONF	2295299	n/a	LTP154	ltpFR	2	2	n/a	CART	250	n/a	5	n/a	n/a	n/a	n/a	n/a	n/a
4592.362	n/a	RECOG_TARGET	2296181	n/a	LTP154	ltpFR	2	2	-1	PUMP	1141	1	2	-1	n/a	n/a	n/a	n/a	n/a
4594.778	n/a	RECOG_RESP	2297389	n/a	LTP154	ltpFR	2	2	-1	PUMP	1141	1	n/a	-1	n/a	n/a	n/a	n/a	n/a
4596.156	n/a	RECOG_CONF	2298078	n/a	LTP154	ltpFR	2	2	-1	PUMP	1141	n/a	2	-1	n/a	n/a	n/a	n/a	n/a
4597.81	n/a	RECOG_TARGET	2298905	n/a	LTP154	ltpFR	2	2	1	SANDWICH	1232	1	4	0	n/a	n/a	n/a	n/a	n/a
4598.876	n/a	RECOG_RESP	2299438	n/a	LTP154	ltpFR	2	2	1	SANDWICH	1232	1	n/a	0	n/a	n/a	n/a	n/a	n/a
4600.274	n/a	RECOG_CONF	2300137	n/a	LTP154	ltpFR	2	2	1	SANDWICH	1232	n/a	4	0	n/a	n/a	n/a	n/a	n/a
4601.908	n/a	RECOG_TARGET	2300954	n/a	LTP154	ltpFR	2	2	1	STEW	1380	1	5	0	n/a	n/a	n/a	n/a	n/a
4603.174	n/a	RECOG_RESP	2301587	n/a	LTP154	ltpFR	2	2	1	STEW	1380	1	n/a	0	n/a	n/a	n/a	n/a	n/a
4604.506	n/a	RECOG_CONF	2302253	n/a	LTP154	ltpFR	2	2	1	STEW	1380	n/a	5	0	n/a	n/a	n/a	n/a	n/a
4620.216	n/a	REC_START	2310108	n/a	LTP154	ltpFR	2	3	n/a	n/a	n/a	n/a	n/a	n/a	n/a	n/a	n/a	n/a	n/a
4620.252	n/a	RECOG_LURE	2310126	n/a	LTP154	ltpFR	2	3	n/a	CANDIDATE	228	0	3	n/a	n/a	n/a	n/a	n/a	n/a
4621.648	n/a	RECOG_RESP	2310824	n/a	LTP154	ltpFR	2	3	n/a	CANDIDATE	228	0	n/a	n/a	n/a	n/a	n/a	n/a	n/a
4623.34	n/a	RECOG_CONF	2311670	n/a	LTP154	ltpFR	2	3	n/a	CANDIDATE	228	n/a	3	n/a	n/a	n/a	n/a	n/a	n/a
4625.0	n/a	RECOG_TARGET	2312500	n/a	LTP154	ltpFR	2	3	1	UNCLE	1536	1	5	1	n/a	n/a	n/a	n/a	n/a
4626.262	n/a	RECOG_RESP	2313131	n/a	LTP154	ltpFR	2	3	1	UNCLE	1536	1	n/a	1	n/a	n/a	n/a	n/a	n/a
4627.582	n/a	RECOG_CONF	2313791	n/a	LTP154	ltpFR	2	3	1	UNCLE	1536	n/a	5	1	n/a	n/a	n/a	n/a	n/a
4629.168	n/a	RECOG_TARGET	2314584	n/a	LTP154	ltpFR	2	3	0	SALMON	1227	1	5	1	n/a	n/a	n/a	n/a	n/a
4630.014	n/a	RECOG_RESP	2315007	n/a	LTP154	ltpFR	2	3	0	SALMON	1227	1	n/a	1	n/a	n/a	n/a	n/a	n/a
4631.212	n/a	RECOG_CONF	2315606	n/a	LTP154	ltpFR	2	3	0	SALMON	1227	n/a	5	1	n/a	n/a	n/a	n/a	n/a
4633.05	n/a	RECOG_TARGET	2316525	n/a	LTP154	ltpFR	2	3	1	CABBAGE	210	1	5	1	n/a	n/a	n/a	n/a	n/a
4633.914	n/a	RECOG_RESP	2316957	n/a	LTP154	ltpFR	2	3	1	CABBAGE	210	1	n/a	1	n/a	n/a	n/a	n/a	n/a
4635.71	n/a	RECOG_CONF	2317855	n/a	LTP154	ltpFR	2	3	1	CABBAGE	210	n/a	5	1	n/a	n/a	n/a	n/a	n/a
4637.38	n/a	RECOG_TARGET	2318690	n/a	LTP154	ltpFR	2	3	1	PICTURE	1061	0	3	0	n/a	n/a	n/a	n/a	n/a
4638.578	n/a	RECOG_RESP	2319289	n/a	LTP154	ltpFR	2	3	1	PICTURE	1061	0	n/a	0	n/a	n/a	n/a	n/a	n/a
4639.842	n/a	RECOG_CONF	2319921	n/a	LTP154	ltpFR	2	3	1	PICTURE	1061	n/a	3	0	n/a	n/a	n/a	n/a	n/a
4641.538	n/a	RECOG_TARGET	2320769	n/a	LTP154	ltpFR	2	3	-1	LOBSTER	837	1	5	-1	n/a	n/a	n/a	n/a	n/a
4642.3	n/a	RECOG_RESP	2321150	n/a	LTP154	ltpFR	2	3	-1	LOBSTER	837	1	n/a	-1	n/a	n/a	n/a	n/a	n/a
4643.586	n/a	RECOG_CONF	2321793	n/a	LTP154	ltpFR	2	3	-1	LOBSTER	837	n/a	5	-1	n/a	n/a	n/a	n/a	n/a
4645.152	n/a	RECOG_TARGET	2322576	n/a	LTP154	ltpFR	2	3	1	COLLAR	345	1	5	0	n/a	n/a	n/a	n/a	n/a
4646.132	n/a	RECOG_RESP	2323066	n/a	LTP154	ltpFR	2	3	1	COLLAR	345	1	n/a	0	n/a	n/a	n/a	n/a	n/a
4647.574	n/a	RECOG_CONF	2323787	n/a	LTP154	ltpFR	2	3	1	COLLAR	345	n/a	5	0	n/a	n/a	n/a	n/a	n/a
4649.186	n/a	RECOG_TARGET	2324593	n/a	LTP154	ltpFR	2	3	0	POLICE	1098	0	5	1	n/a	n/a	n/a	n/a	n/a
4650.296	n/a	RECOG_RESP	2325148	n/a	LTP154	ltpFR	2	3	0	POLICE	1098	0	n/a	1	n/a	n/a	n/a	n/a	n/a
4651.448	n/a	RECOG_CONF	2325724	n/a	LTP154	ltpFR	2	3	0	POLICE	1098	n/a	5	1	n/a	n/a	n/a	n/a	n/a
4653.628	n/a	RECOG_TARGET	2326814	n/a	LTP154	ltpFR	2	3	0	FOREHEAD	592	1	5	0	n/a	n/a	n/a	n/a	n/a
4654.498	n/a	RECOG_RESP	2327249	n/a	LTP154	ltpFR	2	3	0	FOREHEAD	592	1	n/a	0	n/a	n/a	n/a	n/a	n/a
4656.714	n/a	RECOG_CONF	2328357	n/a	LTP154	ltpFR	2	3	0	FOREHEAD	592	n/a	5	0	n/a	n/a	n/a	n/a	n/a
4658.608	n/a	RECOG_TARGET	2329304	n/a	LTP154	ltpFR	2	3	1	BULLY	196	1	5	1	n/a	n/a	n/a	n/a	n/a
4659.692	n/a	RECOG_RESP	2329846	n/a	LTP154	ltpFR	2	3	1	BULLY	196	1	n/a	1	n/a	n/a	n/a	n/a	n/a
4661.096	n/a	RECOG_CONF	2330548	n/a	LTP154	ltpFR	2	3	1	BULLY	196	n/a	5	1	n/a	n/a	n/a	n/a	n/a
4662.858	n/a	RECOG_TARGET	2331429	n/a	LTP154	ltpFR	2	3	1	WARDROBE	1587	0	n/a	0	n/a	n/a	n/a	n/a	n/a
4664.978	n/a	RECOG_RESP_VV	2332489	n/a	LTP154	ltpFR	2	3	1	WARDROBE	1587	0	n/a	0	n/a	n/a	n/a	n/a	n/a
4666.496	n/a	RECOG_RESP	2333248	n/a	LTP154	ltpFR	2	3	1	WARDROBE	1587	0	n/a	0	n/a	n/a	n/a	n/a	n/a
4668.53	n/a	RECOG_TARGET	2334265	n/a	LTP154	ltpFR	2	3	-1	CABLE	213	1	5	-1	n/a	n/a	n/a	n/a	n/a
4669.552	n/a	RECOG_RESP	2334776	n/a	LTP154	ltpFR	2	3	-1	CABLE	213	1	n/a	-1	n/a	n/a	n/a	n/a	n/a
4670.926	n/a	RECOG_CONF	2335463	n/a	LTP154	ltpFR	2	3	-1	CABLE	213	n/a	5	-1	n/a	n/a	n/a	n/a	n/a
4672.512	n/a	RECOG_LURE	2336256	n/a	LTP154	ltpFR	2	3	n/a	VEIN	1554	0	5	n/a	n/a	n/a	n/a	n/a	n/a
4673.72	n/a	RECOG_RESP	2336860	n/a	LTP154	ltpFR	2	3	n/a	VEIN	1554	0	n/a	n/a	n/a	n/a	n/a	n/a	n/a
4675.08	n/a	RECOG_CONF	2337540	n/a	LTP154	ltpFR	2	3	n/a	VEIN	1554	n/a	5	n/a	n/a	n/a	n/a	n/a	n/a
4676.654	n/a	RECOG_TARGET	2338327	n/a	LTP154	ltpFR	2	3	0	BUTLER	204	1	5	1	n/a	n/a	n/a	n/a	n/a
4677.452	n/a	RECOG_RESP	2338726	n/a	LTP154	ltpFR	2	3	0	BUTLER	204	1	n/a	1	n/a	n/a	n/a	n/a	n/a
4678.89	n/a	RECOG_CONF	2339445	n/a	LTP154	ltpFR	2	3	0	BUTLER	204	n/a	5	1	n/a	n/a	n/a	n/a	n/a
4680.434	n/a	RECOG_TARGET	2340217	n/a	LTP154	ltpFR	2	3	-1	CANDY	230	1	5	-1	n/a	n/a	n/a	n/a	n/a
4681.9	n/a	RECOG_RESP	2340950	n/a	LTP154	ltpFR	2	3	-1	CANDY	230	1	n/a	-1	n/a	n/a	n/a	n/a	n/a
4683.366	n/a	RECOG_CONF	2341683	n/a	LTP154	ltpFR	2	3	-1	CANDY	230	n/a	5	-1	n/a	n/a	n/a	n/a	n/a
4685.108	n/a	RECOG_TARGET	2342554	n/a	LTP154	ltpFR	2	3	1	LAPEL	800	1	5	0	n/a	n/a	n/a	n/a	n/a
4685.862	n/a	RECOG_RESP	2342931	n/a	LTP154	ltpFR	2	3	1	LAPEL	800	1	n/a	0	n/a	n/a	n/a	n/a	n/a
4687.176	n/a	RECOG_CONF	2343588	n/a	LTP154	ltpFR	2	3	1	LAPEL	800	n/a	5	0	n/a	n/a	n/a	n/a	n/a
4688.834	n/a	RECOG_TARGET	2344417	n/a	LTP154	ltpFR	2	3	0	SPIT	1354	1	5	0	n/a	n/a	n/a	n/a	n/a
4689.718	n/a	RECOG_RESP	2344859	n/a	LTP154	ltpFR	2	3	0	SPIT	1354	1	n/a	0	n/a	n/a	n/a	n/a	n/a
4691.026	n/a	RECOG_CONF	2345513	n/a	LTP154	ltpFR	2	3	0	SPIT	1354	n/a	5	0	n/a	n/a	n/a	n/a	n/a
4692.756	n/a	RECOG_TARGET	2346378	n/a	LTP154	ltpFR	2	3	0	GATE	625	1	4	1	n/a	n/a	n/a	n/a	n/a
4694.562	n/a	RECOG_RESP	2347281	n/a	LTP154	ltpFR	2	3	0	GATE	625	1	n/a	1	n/a	n/a	n/a	n/a	n/a
4695.784	n/a	RECOG_CONF	2347892	n/a	LTP154	ltpFR	2	3	0	GATE	625	n/a	4	1	n/a	n/a	n/a	n/a	n/a
4697.57	n/a	RECOG_TARGET	2348785	n/a	LTP154	ltpFR	2	3	1	BATTERY	101	0	5	0	n/a	n/a	n/a	n/a	n/a
4699.112	n/a	RECOG_RESP	2349556	n/a	LTP154	ltpFR	2	3	1	BATTERY	101	0	n/a	0	n/a	n/a	n/a	n/a	n/a
4700.478	n/a	RECOG_CONF	2350239	n/a	LTP154	ltpFR	2	3	1	BATTERY	101	n/a	5	0	n/a	n/a	n/a	n/a	n/a
4702.204	n/a	RECOG_TARGET	2351102	n/a	LTP154	ltpFR	2	3	-1	CAP	236	1	5	-1	n/a	n/a	n/a	n/a	n/a
4702.97	n/a	RECOG_RESP	2351485	n/a	LTP154	ltpFR	2	3	-1	CAP	236	1	n/a	-1	n/a	n/a	n/a	n/a	n/a
4704.292	n/a	RECOG_CONF	2352146	n/a	LTP154	ltpFR	2	3	-1	CAP	236	n/a	5	-1	n/a	n/a	n/a	n/a	n/a
4719.562	n/a	REC_START	2359781	n/a	LTP154	ltpFR	2	4	n/a	n/a	n/a	n/a	n/a	n/a	n/a	n/a	n/a	n/a	n/a
4719.598	n/a	RECOG_TARGET	2359799	n/a	LTP154	ltpFR	2	4	-1	CROCODILE	411	1	5	-1	n/a	n/a	n/a	n/a	n/a
4720.562	n/a	RECOG_RESP	2360281	n/a	LTP154	ltpFR	2	4	-1	CROCODILE	411	1	n/a	-1	n/a	n/a	n/a	n/a	n/a
4722.09	n/a	RECOG_CONF	2361045	n/a	LTP154	ltpFR	2	4	-1	CROCODILE	411	n/a	5	-1	n/a	n/a	n/a	n/a	n/a
4723.848	n/a	RECOG_TARGET	2361924	n/a	LTP154	ltpFR	2	4	0	OX	994	0	4	1	n/a	n/a	n/a	n/a	n/a
4724.976	n/a	RECOG_RESP	2362488	n/a	LTP154	ltpFR	2	4	0	OX	994	0	n/a	1	n/a	n/a	n/a	n/a	n/a
4726.504	n/a	RECOG_CONF	2363252	n/a	LTP154	ltpFR	2	4	0	OX	994	n/a	4	1	n/a	n/a	n/a	n/a	n/a
4728.204	n/a	RECOG_TARGET	2364102	n/a	LTP154	ltpFR	2	4	1	APPENDAGE	32	1	5	0	n/a	n/a	n/a	n/a	n/a
4728.952	n/a	RECOG_RESP	2364476	n/a	LTP154	ltpFR	2	4	1	APPENDAGE	32	1	n/a	0	n/a	n/a	n/a	n/a	n/a
4730.394	n/a	RECOG_CONF	2365197	n/a	LTP154	ltpFR	2	4	1	APPENDAGE	32	n/a	5	0	n/a	n/a	n/a	n/a	n/a
4732.152	n/a	RECOG_TARGET	2366076	n/a	LTP154	ltpFR	2	4	0	DECK	443	1	3	1	n/a	n/a	n/a	n/a	n/a
4733.306	n/a	RECOG_RESP	2366653	n/a	LTP154	ltpFR	2	4	0	DECK	443	1	n/a	1	n/a	n/a	n/a	n/a	n/a
4734.716	n/a	RECOG_CONF	2367358	n/a	LTP154	ltpFR	2	4	0	DECK	443	n/a	3	1	n/a	n/a	n/a	n/a	n/a
4736.368	n/a	RECOG_TARGET	2368184	n/a	LTP154	ltpFR	2	4	0	RESTAURANT	1187	1	4	1	n/a	n/a	n/a	n/a	n/a
4737.212	n/a	RECOG_RESP	2368606	n/a	LTP154	ltpFR	2	4	0	RESTAURANT	1187	1	n/a	1	n/a	n/a	n/a	n/a	n/a
4738.534	n/a	RECOG_CONF	2369267	n/a	LTP154	ltpFR	2	4	0	RESTAURANT	1187	n/a	4	1	n/a	n/a	n/a	n/a	n/a
4740.134	n/a	RECOG_TARGET	2370067	n/a	LTP154	ltpFR	2	4	0	TICKET	1464	1	5	0	n/a	n/a	n/a	n/a	n/a
4741.054	n/a	RECOG_RESP	2370527	n/a	LTP154	ltpFR	2	4	0	TICKET	1464	1	n/a	0	n/a	n/a	n/a	n/a	n/a
4743.104	n/a	RECOG_CONF	2371552	n/a	LTP154	ltpFR	2	4	0	TICKET	1464	n/a	5	0	n/a	n/a	n/a	n/a	n/a
4744.916	n/a	RECOG_TARGET	2372458	n/a	LTP154	ltpFR	2	4	-1	SQUID	1361	1	5	-1	n/a	n/a	n/a	n/a	n/a
4745.958	n/a	RECOG_RESP	2372979	n/a	LTP154	ltpFR	2	4	-1	SQUID	1361	1	n/a	-1	n/a	n/a	n/a	n/a	n/a
4747.482	n/a	RECOG_CONF	2373741	n/a	LTP154	ltpFR	2	4	-1	SQUID	1361	n/a	5	-1	n/a	n/a	n/a	n/a	n/a
4749.122	n/a	RECOG_TARGET	2374561	n/a	LTP154	ltpFR	2	4	-1	HORSE	719	1	5	-1	n/a	n/a	n/a	n/a	n/a
4749.828	n/a	RECOG_RESP	2374914	n/a	LTP154	ltpFR	2	4	-1	HORSE	719	1	n/a	-1	n/a	n/a	n/a	n/a	n/a
4751.504	n/a	RECOG_CONF	2375752	n/a	LTP154	ltpFR	2	4	-1	HORSE	719	n/a	5	-1	n/a	n/a	n/a	n/a	n/a
4753.146	n/a	RECOG_TARGET	2376573	n/a	LTP154	ltpFR	2	4	-1	PUCK	1138	1	5	-1	n/a	n/a	n/a	n/a	n/a
4753.868	n/a	RECOG_RESP	2376934	n/a	LTP154	ltpFR	2	4	-1	PUCK	1138	1	n/a	-1	n/a	n/a	n/a	n/a	n/a
4755.542	n/a	RECOG_CONF	2377771	n/a	LTP154	ltpFR	2	4	-1	PUCK	1138	n/a	5	-1	n/a	n/a	n/a	n/a	n/a
4757.11	n/a	RECOG_LURE	2378555	n/a	LTP154	ltpFR	2	4	n/a	QUILL	1150	0	5	n/a	n/a	n/a	n/a	n/a	n/a
4758.342	n/a	RECOG_RESP	2379171	n/a	LTP154	ltpFR	2	4	n/a	QUILL	1150	0	n/a	n/a	n/a	n/a	n/a	n/a	n/a
4759.968	n/a	RECOG_CONF	2379984	n/a	LTP154	ltpFR	2	4	n/a	QUILL	1150	n/a	5	n/a	n/a	n/a	n/a	n/a	n/a
4761.852	n/a	RECOG_TARGET	2380926	n/a	LTP154	ltpFR	2	4	-1	FARM	552	1	5	-1	n/a	n/a	n/a	n/a	n/a
4762.83	n/a	RECOG_RESP	2381415	n/a	LTP154	ltpFR	2	4	-1	FARM	552	1	n/a	-1	n/a	n/a	n/a	n/a	n/a
4764.176	n/a	RECOG_CONF	2382088	n/a	LTP154	ltpFR	2	4	-1	FARM	552	n/a	5	-1	n/a	n/a	n/a	n/a	n/a
4766.008	n/a	RECOG_TARGET	2383004	n/a	LTP154	ltpFR	2	4	0	SOFA	1342	1	5	1	n/a	n/a	n/a	n/a	n/a
4767.348	n/a	RECOG_RESP	2383674	n/a	LTP154	ltpFR	2	4	0	SOFA	1342	1	n/a	1	n/a	n/a	n/a	n/a	n/a
4768.758	n/a	RECOG_CONF	2384379	n/a	LTP154	ltpFR	2	4	0	SOFA	1342	n/a	5	1	n/a	n/a	n/a	n/a	n/a
4770.574	n/a	RECOG_TARGET	2385287	n/a	LTP154	ltpFR	2	4	-1	RACKET	1155	1	4	-1	n/a	n/a	n/a	n/a	n/a
4771.332	n/a	RECOG_RESP	2385666	n/a	LTP154	ltpFR	2	4	-1	RACKET	1155	1	n/a	-1	n/a	n/a	n/a	n/a	n/a
4772.742	n/a	RECOG_CONF	2386371	n/a	LTP154	ltpFR	2	4	-1	RACKET	1155	n/a	4	-1	n/a	n/a	n/a	n/a	n/a
4774.414	n/a	RECOG_TARGET	2387207	n/a	LTP154	ltpFR	2	4	-1	WORM	1623	1	5	-1	n/a	n/a	n/a	n/a	n/a
4775.14	n/a	RECOG_RESP	2387570	n/a	LTP154	ltpFR	2	4	-1	WORM	1623	1	n/a	-1	n/a	n/a	n/a	n/a	n/a
4776.62	n/a	RECOG_CONF	2388310	n/a	LTP154	ltpFR	2	4	-1	WORM	1623	n/a	5	-1	n/a	n/a	n/a	n/a	n/a
4778.28	n/a	RECOG_TARGET	2389140	n/a	LTP154	ltpFR	2	4	0	ROACH	1195	1	5	0	n/a	n/a	n/a	n/a	n/a
4779.06	n/a	RECOG_RESP	2389530	n/a	LTP154	ltpFR	2	4	0	ROACH	1195	1	n/a	0	n/a	n/a	n/a	n/a	n/a
4780.398	n/a	RECOG_CONF	2390199	n/a	LTP154	ltpFR	2	4	0	ROACH	1195	n/a	5	0	n/a	n/a	n/a	n/a	n/a
4782.128	n/a	RECOG_TARGET	2391064	n/a	LTP154	ltpFR	2	4	1	BUS	201	1	5	0	n/a	n/a	n/a	n/a	n/a
4782.764	n/a	RECOG_RESP	2391382	n/a	LTP154	ltpFR	2	4	1	BUS	201	1	n/a	0	n/a	n/a	n/a	n/a	n/a
4784.036	n/a	RECOG_CONF	2392018	n/a	LTP154	ltpFR	2	4	1	BUS	201	n/a	5	0	n/a	n/a	n/a	n/a	n/a
4785.712	n/a	RECOG_TARGET	2392856	n/a	LTP154	ltpFR	2	4	1	GROOM	665	1	5	1	n/a	n/a	n/a	n/a	n/a
4786.494	n/a	RECOG_RESP	2393247	n/a	LTP154	ltpFR	2	4	1	GROOM	665	1	n/a	1	n/a	n/a	n/a	n/a	n/a
4787.778	n/a	RECOG_CONF	2393889	n/a	LTP154	ltpFR	2	4	1	GROOM	665	n/a	5	1	n/a	n/a	n/a	n/a	n/a
4789.628	n/a	RECOG_TARGET	2394814	n/a	LTP154	ltpFR	2	4	1	CREW	406	1	4	0	n/a	n/a	n/a	n/a	n/a
4790.554	n/a	RECOG_RESP	2395277	n/a	LTP154	ltpFR	2	4	1	CREW	406	1	n/a	0	n/a	n/a	n/a	n/a	n/a
4791.822	n/a	RECOG_CONF	2395911	n/a	LTP154	ltpFR	2	4	1	CREW	406	n/a	4	0	n/a	n/a	n/a	n/a	n/a
4793.566	n/a	RECOG_TARGET	2396783	n/a	LTP154	ltpFR	2	4	1	HAWK	692	1	5	1	n/a	n/a	n/a	n/a	n/a
4794.31	n/a	RECOG_RESP	2397155	n/a	LTP154	ltpFR	2	4	1	HAWK	692	1	n/a	1	n/a	n/a	n/a	n/a	n/a
4795.632	n/a	RECOG_CONF	2397816	n/a	LTP154	ltpFR	2	4	1	HAWK	692	n/a	5	1	n/a	n/a	n/a	n/a	n/a
4797.374	n/a	RECOG_LURE	2398687	n/a	LTP154	ltpFR	2	4	n/a	CUB	419	1	3	n/a	n/a	n/a	n/a	n/a	n/a
4798.054	n/a	RECOG_RESP	2399027	n/a	LTP154	ltpFR	2	4	n/a	CUB	419	1	n/a	n/a	n/a	n/a	n/a	n/a	n/a
4799.352	n/a	RECOG_CONF	2399676	n/a	LTP154	ltpFR	2	4	n/a	CUB	419	n/a	3	n/a	n/a	n/a	n/a	n/a	n/a
4811.43	n/a	REC_START	2405715	n/a	LTP154	ltpFR	2	5	n/a	n/a	n/a	n/a	n/a	n/a	n/a	n/a	n/a	n/a	n/a
4811.47	n/a	RECOG_TARGET	2405735	n/a	LTP154	ltpFR	2	5	-1	SHOULDER	1294	1	5	-1	n/a	n/a	n/a	n/a	n/a
4812.384	n/a	RECOG_RESP	2406192	n/a	LTP154	ltpFR	2	5	-1	SHOULDER	1294	1	n/a	-1	n/a	n/a	n/a	n/a	n/a
4813.668	n/a	RECOG_CONF	2406834	n/a	LTP154	ltpFR	2	5	-1	SHOULDER	1294	n/a	5	-1	n/a	n/a	n/a	n/a	n/a
4815.754	n/a	RECOG_TARGET	2407877	n/a	LTP154	ltpFR	2	5	-1	SCULPTURE	1258	1	5	-1	n/a	n/a	n/a	n/a	n/a
4816.816	n/a	RECOG_RESP	2408408	n/a	LTP154	ltpFR	2	5	-1	SCULPTURE	1258	1	n/a	-1	n/a	n/a	n/a	n/a	n/a
4818.082	n/a	RECOG_CONF	2409041	n/a	LTP154	ltpFR	2	5	-1	SCULPTURE	1258	n/a	5	-1	n/a	n/a	n/a	n/a	n/a
4819.802	n/a	RECOG_LURE	2409901	n/a	LTP154	ltpFR	2	5	n/a	NUT	965	0	3	n/a	n/a	n/a	n/a	n/a	n/a
4820.848	n/a	RECOG_RESP	2410424	n/a	LTP154	ltpFR	2	5	n/a	NUT	965	0	n/a	n/a	n/a	n/a	n/a	n/a	n/a
4822.39	n/a	RECOG_CONF	2411195	n/a	LTP154	ltpFR	2	5	n/a	NUT	965	n/a	3	n/a	n/a	n/a	n/a	n/a	n/a
4824.04	n/a	RECOG_LURE	2412020	n/a	LTP154	ltpFR	2	5	n/a	BOX	159	0	3	n/a	n/a	n/a	n/a	n/a	n/a
4825.156	n/a	RECOG_RESP	2412578	n/a	LTP154	ltpFR	2	5	n/a	BOX	159	0	n/a	n/a	n/a	n/a	n/a	n/a	n/a
4826.846	n/a	RECOG_CONF	2413423	n/a	LTP154	ltpFR	2	5	n/a	BOX	159	n/a	3	n/a	n/a	n/a	n/a	n/a	n/a
4828.582	n/a	RECOG_LURE	2414291	n/a	LTP154	ltpFR	2	5	n/a	MARROW	872	0	5	n/a	n/a	n/a	n/a	n/a	n/a
4829.558	n/a	RECOG_RESP	2414779	n/a	LTP154	ltpFR	2	5	n/a	MARROW	872	0	n/a	n/a	n/a	n/a	n/a	n/a	n/a
4831.03	n/a	RECOG_CONF	2415515	n/a	LTP154	ltpFR	2	5	n/a	MARROW	872	n/a	5	n/a	n/a	n/a	n/a	n/a	n/a
4832.806	n/a	RECOG_TARGET	2416403	n/a	LTP154	ltpFR	2	5	0	HIP	710	1	5	1	n/a	n/a	n/a	n/a	n/a
4833.606	n/a	RECOG_RESP	2416803	n/a	LTP154	ltpFR	2	5	0	HIP	710	1	n/a	1	n/a	n/a	n/a	n/a	n/a
4834.922	n/a	RECOG_CONF	2417461	n/a	LTP154	ltpFR	2	5	0	HIP	710	n/a	5	1	n/a	n/a	n/a	n/a	n/a
4836.638	n/a	RECOG_TARGET	2418319	n/a	LTP154	ltpFR	2	5	0	FRIAR	605	1	5	1	n/a	n/a	n/a	n/a	n/a
4837.45	n/a	RECOG_RESP	2418725	n/a	LTP154	ltpFR	2	5	0	FRIAR	605	1	n/a	1	n/a	n/a	n/a	n/a	n/a
4839.068	n/a	RECOG_CONF	2419534	n/a	LTP154	ltpFR	2	5	0	FRIAR	605	n/a	5	1	n/a	n/a	n/a	n/a	n/a
4840.846	n/a	RECOG_TARGET	2420423	n/a	LTP154	ltpFR	2	5	-1	OATMEAL	967	1	5	-1	n/a	n/a	n/a	n/a	n/a
4841.548	n/a	RECOG_RESP	2420774	n/a	LTP154	ltpFR	2	5	-1	OATMEAL	967	1	n/a	-1	n/a	n/a	n/a	n/a	n/a
4843.14	n/a	RECOG_CONF	2421570	n/a	LTP154	ltpFR	2	5	-1	OATMEAL	967	n/a	5	-1	n/a	n/a	n/a	n/a	n/a
4844.852	n/a	RECOG_TARGET	2422426	n/a	LTP154	ltpFR	2	5	-1	SPACE	1345	1	5	-1	n/a	n/a	n/a	n/a	n/a
4845.5	n/a	RECOG_RESP	2422750	n/a	LTP154	ltpFR	2	5	-1	SPACE	1345	1	n/a	-1	n/a	n/a	n/a	n/a	n/a
4846.936	n/a	RECOG_CONF	2423468	n/a	LTP154	ltpFR	2	5	-1	SPACE	1345	n/a	5	-1	n/a	n/a	n/a	n/a	n/a
4848.6	n/a	RECOG_LURE	2424300	n/a	LTP154	ltpFR	2	5	n/a	TEAPOT	1442	0	5	n/a	n/a	n/a	n/a	n/a	n/a
4849.512	n/a	RECOG_RESP	2424756	n/a	LTP154	ltpFR	2	5	n/a	TEAPOT	1442	0	n/a	n/a	n/a	n/a	n/a	n/a	n/a
4851.042	n/a	RECOG_CONF	2425521	n/a	LTP154	ltpFR	2	5	n/a	TEAPOT	1442	n/a	5	n/a	n/a	n/a	n/a	n/a	n/a
4852.716	n/a	RECOG_TARGET	2426358	n/a	LTP154	ltpFR	2	5	0	CHAUFFEUR	283	1	5	1	n/a	n/a	n/a	n/a	n/a
4853.684	n/a	RECOG_RESP	2426842	n/a	LTP154	ltpFR	2	5	0	CHAUFFEUR	283	1	n/a	1	n/a	n/a	n/a	n/a	n/a
4855.624	n/a	RECOG_CONF	2427812	n/a	LTP154	ltpFR	2	5	0	CHAUFFEUR	283	n/a	5	1	n/a	n/a	n/a	n/a	n/a
4857.372	n/a	RECOG_LURE	2428686	n/a	LTP154	ltpFR	2	5	n/a	ACROBAT	4	0	4	n/a	n/a	n/a	n/a	n/a	n/a
4858.302	n/a	RECOG_RESP	2429151	n/a	LTP154	ltpFR	2	5	n/a	ACROBAT	4	0	n/a	n/a	n/a	n/a	n/a	n/a	n/a
4859.976	n/a	RECOG_CONF	2429988	n/a	LTP154	ltpFR	2	5	n/a	ACROBAT	4	n/a	4	n/a	n/a	n/a	n/a	n/a	n/a
4861.698	n/a	RECOG_TARGET	2430849	n/a	LTP154	ltpFR	2	5	1	VALVE	1546	1	5	0	n/a	n/a	n/a	n/a	n/a
4862.606	n/a	RECOG_RESP	2431303	n/a	LTP154	ltpFR	2	5	1	VALVE	1546	1	n/a	0	n/a	n/a	n/a	n/a	n/a
4864.138	n/a	RECOG_CONF	2432069	n/a	LTP154	ltpFR	2	5	1	VALVE	1546	n/a	5	0	n/a	n/a	n/a	n/a	n/a
4865.78	n/a	RECOG_TARGET	2432890	n/a	LTP154	ltpFR	2	5	0	DUNGEON	507	1	5	1	n/a	n/a	n/a	n/a	n/a
4866.646	n/a	RECOG_RESP	2433323	n/a	LTP154	ltpFR	2	5	0	DUNGEON	507	1	n/a	1	n/a	n/a	n/a	n/a	n/a
4868.088	n/a	RECOG_CONF	2434044	n/a	LTP154	ltpFR	2	5	0	DUNGEON	507	n/a	5	1	n/a	n/a	n/a	n/a	n/a
4869.752	n/a	RECOG_LURE	2434876	n/a	LTP154	ltpFR	2	5	n/a	LIP	828	0	4	n/a	n/a	n/a	n/a	n/a	n/a
4870.786	n/a	RECOG_RESP	2435393	n/a	LTP154	ltpFR	2	5	n/a	LIP	828	0	n/a	n/a	n/a	n/a	n/a	n/a	n/a
4872.258	n/a	RECOG_CONF	2436129	n/a	LTP154	ltpFR	2	5	n/a	LIP	828	n/a	4	n/a	n/a	n/a	n/a	n/a	n/a
4873.984	n/a	RECOG_TARGET	2436992	n/a	LTP154	ltpFR	2	5	1	SUPERVISOR	1410	1	4	1	n/a	n/a	n/a	n/a	n/a
4876.006	n/a	RECOG_RESP	2438003	n/a	LTP154	ltpFR	2	5	1	SUPERVISOR	1410	1	n/a	1	n/a	n/a	n/a	n/a	n/a
4877.618	n/a	RECOG_CONF	2438809	n/a	LTP154	ltpFR	2	5	1	SUPERVISOR	1410	n/a	4	1	n/a	n/a	n/a	n/a	n/a
4879.266	n/a	RECOG_TARGET	2439633	n/a	LTP154	ltpFR	2	5	0	FENCE	560	1	5	1	n/a	n/a	n/a	n/a	n/a
4880.256	n/a	RECOG_RESP	2440128	n/a	LTP154	ltpFR	2	5	0	FENCE	560	1	n/a	1	n/a	n/a	n/a	n/a	n/a
4882.084	n/a	RECOG_CONF	2441042	n/a	LTP154	ltpFR	2	5	0	FENCE	560	n/a	5	1	n/a	n/a	n/a	n/a	n/a
4883.774	n/a	RECOG_LURE	2441887	n/a	LTP154	ltpFR	2	5	n/a	RIBBON	1189	1	5	n/a	n/a	n/a	n/a	n/a	n/a
4884.602	n/a	RECOG_RESP	2442301	n/a	LTP154	ltpFR	2	5	n/a	RIBBON	1189	1	n/a	n/a	n/a	n/a	n/a	n/a	n/a
4886.056	n/a	RECOG_CONF	2443028	n/a	LTP154	ltpFR	2	5	n/a	RIBBON	1189	n/a	5	n/a	n/a	n/a	n/a	n/a	n/a
4887.756	n/a	RECOG_LURE	2443878	n/a	LTP154	ltpFR	2	5	n/a	TRIANGLE	1504	0	5	n/a	n/a	n/a	n/a	n/a	n/a
4888.924	n/a	RECOG_RESP	2444462	n/a	LTP154	ltpFR	2	5	n/a	TRIANGLE	1504	0	n/a	n/a	n/a	n/a	n/a	n/a	n/a
4891.128	n/a	RECOG_CONF	2445564	n/a	LTP154	ltpFR	2	5	n/a	TRIANGLE	1504	n/a	5	n/a	n/a	n/a	n/a	n/a	n/a
4892.896	n/a	RECOG_LURE	2446448	n/a	LTP154	ltpFR	2	5	n/a	BALL	73	0	3	n/a	n/a	n/a	n/a	n/a	n/a
4894.572	n/a	RECOG_RESP	2447286	n/a	LTP154	ltpFR	2	5	n/a	BALL	73	0	n/a	n/a	n/a	n/a	n/a	n/a	n/a
4896.008	n/a	RECOG_CONF	2448004	n/a	LTP154	ltpFR	2	5	n/a	BALL	73	n/a	3	n/a	n/a	n/a	n/a	n/a	n/a
4909.342	n/a	REC_START	2454671	n/a	LTP154	ltpFR	2	6	n/a	n/a	n/a	n/a	n/a	n/a	n/a	n/a	n/a	n/a	n/a
4909.382	n/a	RECOG_TARGET	2454691	n/a	LTP154	ltpFR	2	6	1	COUSIN	392	1	5	1	n/a	n/a	n/a	n/a	n/a
4910.874	n/a	RECOG_RESP	2455437	n/a	LTP154	ltpFR	2	6	1	COUSIN	392	1	n/a	1	n/a	n/a	n/a	n/a	n/a
4912.65	n/a	RECOG_CONF	2456325	n/a	LTP154	ltpFR	2	6	1	COUSIN	392	n/a	5	1	n/a	n/a	n/a	n/a	n/a
4914.238	n/a	RECOG_LURE	2457119	n/a	LTP154	ltpFR	2	6	n/a	PRODUCER	1129	0	3	n/a	n/a	n/a	n/a	n/a	n/a
4915.452	n/a	RECOG_RESP	2457726	n/a	LTP154	ltpFR	2	6	n/a	PRODUCER	1129	0	n/a	n/a	n/a	n/a	n/a	n/a	n/a
4916.712	n/a	RECOG_CONF	2458356	n/a	LTP154	ltpFR	2	6	n/a	PRODUCER	1129	n/a	3	n/a	n/a	n/a	n/a	n/a	n/a
4918.38	n/a	RECOG_TARGET	2459190	n/a	LTP154	ltpFR	2	6	0	TANGERINE	1431	1	5	0	n/a	n/a	n/a	n/a	n/a
4919.156	n/a	RECOG_RESP	2459578	n/a	LTP154	ltpFR	2	6	0	TANGERINE	1431	1	n/a	0	n/a	n/a	n/a	n/a	n/a
4920.608	n/a	RECOG_CONF	2460304	n/a	LTP154	ltpFR	2	6	0	TANGERINE	1431	n/a	5	0	n/a	n/a	n/a	n/a	n/a
4922.228	n/a	RECOG_LURE	2461114	n/a	LTP154	ltpFR	2	6	n/a	GLASS	639	0	4	n/a	n/a	n/a	n/a	n/a	n/a
4923.148	n/a	RECOG_RESP	2461574	n/a	LTP154	ltpFR	2	6	n/a	GLASS	639	0	n/a	n/a	n/a	n/a	n/a	n/a	n/a
4924.948	n/a	RECOG_CONF	2462474	n/a	LTP154	ltpFR	2	6	n/a	GLASS	639	n/a	4	n/a	n/a	n/a	n/a	n/a	n/a
4926.442	n/a	RECOG_TARGET	2463221	n/a	LTP154	ltpFR	2	6	0	HOOD	714	1	5	1	n/a	n/a	n/a	n/a	n/a
4927.352	n/a	RECOG_RESP	2463676	n/a	LTP154	ltpFR	2	6	0	HOOD	714	1	n/a	1	n/a	n/a	n/a	n/a	n/a
4928.718	n/a	RECOG_CONF	2464359	n/a	LTP154	ltpFR	2	6	0	HOOD	714	n/a	5	1	n/a	n/a	n/a	n/a	n/a
4930.384	n/a	RECOG_TARGET	2465192	n/a	LTP154	ltpFR	2	6	-1	ROCKET	1202	0	4	-1	n/a	n/a	n/a	n/a	n/a
4932.302	n/a	RECOG_RESP	2466151	n/a	LTP154	ltpFR	2	6	-1	ROCKET	1202	0	n/a	-1	n/a	n/a	n/a	n/a	n/a
4933.966	n/a	RECOG_CONF	2466983	n/a	LTP154	ltpFR	2	6	-1	ROCKET	1202	n/a	4	-1	n/a	n/a	n/a	n/a	n/a
4935.532	n/a	RECOG_LURE	2467766	n/a	LTP154	ltpFR	2	6	n/a	COMPANION	357	1	3	n/a	n/a	n/a	n/a	n/a	n/a
4937.684	n/a	RECOG_RESP	2468842	n/a	LTP154	ltpFR	2	6	n/a	COMPANION	357	1	n/a	n/a	n/a	n/a	n/a	n/a	n/a
4939.124	n/a	RECOG_CONF	2469562	n/a	LTP154	ltpFR	2	6	n/a	COMPANION	357	n/a	3	n/a	n/a	n/a	n/a	n/a	n/a
4940.69	n/a	RECOG_TARGET	2470345	n/a	LTP154	ltpFR	2	6	0	OTTER	986	0	4	1	n/a	n/a	n/a	n/a	n/a
4942.076	n/a	RECOG_RESP	2471038	n/a	LTP154	ltpFR	2	6	0	OTTER	986	0	n/a	1	n/a	n/a	n/a	n/a	n/a
4943.968	n/a	RECOG_CONF	2471984	n/a	LTP154	ltpFR	2	6	0	OTTER	986	n/a	4	1	n/a	n/a	n/a	n/a	n/a
4945.788	n/a	RECOG_TARGET	2472894	n/a	LTP154	ltpFR	2	6	0	PADDLE	1000	1	5	1	n/a	n/a	n/a	n/a	n/a
4946.884	n/a	RECOG_RESP	2473442	n/a	LTP154	ltpFR	2	6	0	PADDLE	1000	1	n/a	1	n/a	n/a	n/a	n/a	n/a
4948.258	n/a	RECOG_CONF	2474129	n/a	LTP154	ltpFR	2	6	0	PADDLE	1000	n/a	5	1	n/a	n/a	n/a	n/a	n/a
4950.054	n/a	RECOG_TARGET	2475027	n/a	LTP154	ltpFR	2	6	1	TABLE	1426	1	4	0	n/a	n/a	n/a	n/a	n/a
4950.89	n/a	RECOG_RESP	2475445	n/a	LTP154	ltpFR	2	6	1	TABLE	1426	1	n/a	0	n/a	n/a	n/a	n/a	n/a
