mstime	trial_type	stim_file	subject	experiment	session	trial	task	item_name	item_num	recog_resp	recog_conf	resp	color_r	color_g	color_b	case	font
0	SESS_START	n/a	LTP079	ltpFR	6	n/a	n/a	n/a	n/a	1	n/a	n/a	n/a	n/a	n/a	n/a	n/a
102308	WORD	wordpools/wasnorm_wordpool.txt	LTP079	ltpFR	6	1	0	FRIAR	605	n/a	n/a	0	0.57763671875	0.412841796875	1	lower	amplitud.ttf
106233	WORD	wordpools/wasnorm_wordpool.txt	LTP079	ltpFR	6	1	0	GROCERIES	663	n/a	n/a	0	0.57763671875	0.412841796875	1	lower	amplitud.ttf
110282	WORD	wordpools/wasnorm_wordpool.txt	LTP079	ltpFR	6	1	0	TWIN	1528	n/a	n/a	1	0.57763671875	0.412841796875	1	lower	amplitud.ttf
114149	WORD	wordpools/wasnorm_wordpool.txt	LTP079	ltpFR	6	1	0	VISITOR	1573	n/a	n/a	1	0.57763671875	0.412841796875	1	lower	amplitud.ttf
118123	WORD	wordpools/wasnorm_wordpool.txt	LTP079	ltpFR	6	1	1	SLEEVE	1324	n/a	n/a	0	0.422607421875	0.5869140625	0	upper	zerothre.ttf
122148	WORD	wordpools/wasnorm_wordpool.txt	LTP079	ltpFR	6	1	1	SLACKS	1323	n/a	n/a	0	0.422607421875	0.5869140625	0	upper	zerothre.ttf
126048	WORD	wordpools/wasnorm_wordpool.txt	LTP079	ltpFR	6	1	1	TOENAIL	1474	n/a	n/a	0	0.422607421875	0.5869140625	0	upper	zerothre.ttf
130039	WORD	wordpools/wasnorm_wordpool.txt	LTP079	ltpFR	6	1	1	MOTOR	922	n/a	n/a	0	0.422607421875	0.5869140625	0	upper	zerothre.ttf
134106	WORD	wordpools/wasnorm_wordpool.txt	LTP079	ltpFR	6	1	1	MOTORCYCLE	923	n/a	n/a	0	0.422607421875	0.5869140625	0	upper	zerothre.ttf
138030	WORD	wordpools/wasnorm_wordpool.txt	LTP079	ltpFR	6	1	0	SIBLING	1301	n/a	n/a	1	0.57763671875	0.412841796875	1	lower	amplitud.ttf
142197	WORD	wordpools/wasnorm_wordpool.txt	LTP079	ltpFR	6	1	0	BUFFALO	186	n/a	n/a	1	0.57763671875	0.412841796875	1	lower	amplitud.ttf
146313	WORD	wordpools/wasnorm_wordpool.txt	LTP079	ltpFR	6	1	1	SERVER	1272	n/a	n/a	1	0.422607421875	0.5869140625	0	upper	zerothre.ttf
150163	WORD	wordpools/wasnorm_wordpool.txt	LTP079	ltpFR	6	1	1	BUTTERFLY	206	n/a	n/a	1	0.422607421875	0.5869140625	0	upper	zerothre.ttf
154312	WORD	wordpools/wasnorm_wordpool.txt	LTP079	ltpFR	6	1	1	BUG	187	n/a	n/a	1	0.422607421875	0.5869140625	0	upper	zerothre.ttf
158162	WORD	wordpools/wasnorm_wordpool.txt	LTP079	ltpFR	6	1	0	LOVER	846	n/a	n/a	1	0.57763671875	0.412841796875	1	lower	amplitud.ttf
162328	WORD	wordpools/wasnorm_wordpool.txt	LTP079	ltpFR	6	1	0	GAZELLE	628	n/a	n/a	1	0.57763671875	0.412841796875	1	lower	amplitud.ttf
168087	REC_START	n/a	LTP079	ltpFR	6	1	n/a	n/a	n/a	n/a	n/a	n/a	n/a	n/a	n/a	n/a	n/a
169224	REC_WORD	wordpools/wasnorm_wordpool.txt	LTP079	ltpFR	6	1	0	GAZELLE	628	n/a	n/a	1	n/a	n/a	n/a	n/a	n/a
170716	REC_WORD	wordpools/wasnorm_wordpool.txt	LTP079	ltpFR	6	1	1	BUG	187	n/a	n/a	1	n/a	n/a	n/a	n/a	n/a
172073	REC_WORD	wordpools/wasnorm_wordpool.txt	LTP079	ltpFR	6	1	1	BUTTERFLY	206	n/a	n/a	1	n/a	n/a	n/a	n/a	n/a
173559	REC_WORD	wordpools/wasnorm_wordpool.txt	LTP079	ltpFR	6	1	0	LOVER	846	n/a	n/a	1	n/a	n/a	n/a	n/a	n/a
174797	REC_WORD	wordpools/wasnorm_wordpool.txt	LTP079	ltpFR	6	1	1	SERVER	1272	n/a	n/a	1	n/a	n/a	n/a	n/a	n/a
176228	REC_WORD	wordpools/wasnorm_wordpool.txt	LTP079	ltpFR	6	1	0	SIBLING	1301	n/a	n/a	1	n/a	n/a	n/a	n/a	n/a
177660	REC_WORD	wordpools/wasnorm_wordpool.txt	LTP079	ltpFR	6	1	0	BUFFALO	186	n/a	n/a	1	n/a	n/a	n/a	n/a	n/a
179117	REC_WORD	wordpools/wasnorm_wordpool.txt	LTP079	ltpFR	6	1	0	VISITOR	1573	n/a	n/a	1	n/a	n/a	n/a	n/a	n/a
180354	REC_WORD	wordpools/wasnorm_wordpool.txt	LTP079	ltpFR	6	1	1	SLEEVE	1324	n/a	n/a	0	n/a	n/a	n/a	n/a	n/a
181795	REC_WORD	wordpools/wasnorm_wordpool.txt	LTP079	ltpFR	6	1	1	SLACKS	1323	n/a	n/a	0	n/a	n/a	n/a	n/a	n/a
183297	REC_WORD	wordpools/wasnorm_wordpool.txt	LTP079	ltpFR	6	1	0	FRIAR	605	n/a	n/a	0	n/a	n/a	n/a	n/a	n/a
184724	REC_WORD	wordpools/wasnorm_wordpool.txt	LTP079	ltpFR	6	1	0	TWIN	1528	n/a	n/a	1	n/a	n/a	n/a	n/a	n/a
186181	REC_WORD	wordpools/wasnorm_wordpool.txt	LTP079	ltpFR	6	1	0	GROCERIES	663	n/a	n/a	0	n/a	n/a	n/a	n/a	n/a
247656	WORD	wordpools/wasnorm_wordpool.txt	LTP079	ltpFR	6	2	1	COD	340	n/a	n/a	1	0.422607421875	0.5869140625	0	upper	zerothre.ttf
251513	WORD	wordpools/wasnorm_wordpool.txt	LTP079	ltpFR	6	2	1	SHRIMP	1297	n/a	n/a	1	0.422607421875	0.5869140625	0	upper	zerothre.ttf
255480	WORD	wordpools/wasnorm_wordpool.txt	LTP079	ltpFR	6	2	0	BIKE	125	n/a	n/a	1	0.57763671875	0.412841796875	1	lower	amplitud.ttf
259647	WORD	wordpools/wasnorm_wordpool.txt	LTP079	ltpFR	6	2	0	WHEEL	1603	n/a	n/a	0	0.57763671875	0.412841796875	1	lower	amplitud.ttf
263739	WORD	wordpools/wasnorm_wordpool.txt	LTP079	ltpFR	6	2	0	HEDGE	699	n/a	n/a	1	0.57763671875	0.412841796875	1	lower	amplitud.ttf
267912	WORD	wordpools/wasnorm_wordpool.txt	LTP079	ltpFR	6	2	0	PADDING	999	n/a	n/a	1	0.57763671875	0.412841796875	1	lower	amplitud.ttf
271987	WORD	wordpools/wasnorm_wordpool.txt	LTP079	ltpFR	6	2	1	SCREEN	1253	n/a	n/a	0	0.422607421875	0.5869140625	0	upper	zerothre.ttf
276103	WORD	wordpools/wasnorm_wordpool.txt	LTP079	ltpFR	6	2	1	BLACKBERRY	132	n/a	n/a	0	0.422607421875	0.5869140625	0	upper	zerothre.ttf
279936	WORD	wordpools/wasnorm_wordpool.txt	LTP079	ltpFR	6	2	1	LAWN	805	n/a	n/a	1	0.422607421875	0.5869140625	0	upper	zerothre.ttf
284094	WORD	wordpools/wasnorm_wordpool.txt	LTP079	ltpFR	6	2	1	THIGH	1457	n/a	n/a	0	0.422607421875	0.5869140625	0	upper	zerothre.ttf
288211	WORD	wordpools/wasnorm_wordpool.txt	LTP079	ltpFR	6	2	0	ANTLER	29	n/a	n/a	1	0.57763671875	0.412841796875	1	lower	amplitud.ttf
292144	WORD	wordpools/wasnorm_wordpool.txt	LTP079	ltpFR	6	2	0	HUT	729	n/a	n/a	1	0.57763671875	0.412841796875	1	lower	amplitud.ttf
296343	WORD	wordpools/wasnorm_wordpool.txt	LTP079	ltpFR	6	2	0	HAMBURGER	679	n/a	n/a	0	0.57763671875	0.412841796875	1	lower	amplitud.ttf
300418	WORD	wordpools/wasnorm_wordpool.txt	LTP079	ltpFR	6	2	0	COOK	372	n/a	n/a	0	0.57763671875	0.412841796875	1	lower	amplitud.ttf
304401	WORD	wordpools/wasnorm_wordpool.txt	LTP079	ltpFR	6	2	1	PREDATOR	1120	n/a	n/a	1	0.422607421875	0.5869140625	0	upper	zerothre.ttf
308317	WORD	wordpools/wasnorm_wordpool.txt	LTP079	ltpFR	6	2	1	KIWI	781	n/a	n/a	1	0.422607421875	0.5869140625	0	upper	zerothre.ttf
314193	REC_START	n/a	LTP079	ltpFR	6	2	n/a	n/a	n/a	n/a	n/a	n/a	n/a	n/a	n/a	n/a	n/a
315360	REC_WORD	wordpools/wasnorm_wordpool.txt	LTP079	ltpFR	6	2	1	KIWI	781	n/a	n/a	1	n/a	n/a	n/a	n/a	n/a
316737	REC_WORD	wordpools/wasnorm_wordpool.txt	LTP079	ltpFR	6	2	1	PREDATOR	1120	n/a	n/a	1	n/a	n/a	n/a	n/a	n/a
318313	REC_WORD	wordpools/wasnorm_wordpool.txt	LTP079	ltpFR	6	2	0	HUT	729	n/a	n/a	1	n/a	n/a	n/a	n/a	n/a
319935	REC_WORD	wordpools/wasnorm_wordpool.txt	LTP079	ltpFR	6	2	0	ANTLER	29	n/a	n/a	1	n/a	n/a	n/a	n/a	n/a
358737	REC_WORD	wordpools/wasnorm_wordpool.txt	LTP079	ltpFR	6	2	0	HAMBURGER	679	n/a	n/a	0	n/a	n/a	n/a	n/a	n/a
360877	REC_WORD	wordpools/wasnorm_wordpool.txt	LTP079	ltpFR	6	2	0	COOK	372	n/a	n/a	0	n/a	n/a	n/a	n/a	n/a
364873	REC_WORD	wordpools/wasnorm_wordpool.txt	LTP079	ltpFR	6	2	1	SHRIMP	1297	n/a	n/a	1	n/a	n/a	n/a	n/a	n/a
366180	REC_WORD	wordpools/wasnorm_wordpool.txt	LTP079	ltpFR	6	2	1	COD	340	n/a	n/a	1	n/a	n/a	n/a	n/a	n/a
367512	REC_WORD	wordpools/wasnorm_wordpool.txt	LTP079	ltpFR	6	2	0	WHEEL	1603	n/a	n/a	0	n/a	n/a	n/a	n/a	n/a
368829	REC_WORD	wordpools/wasnorm_wordpool.txt	LTP079	ltpFR	6	2	0	PADDING	999	n/a	n/a	1	n/a	n/a	n/a	n/a	n/a
370091	REC_WORD	wordpools/wasnorm_wordpool.txt	LTP079	ltpFR	6	2	0	HEDGE	699	n/a	n/a	1	n/a	n/a	n/a	n/a	n/a
372186	REC_WORD	wordpools/wasnorm_wordpool.txt	LTP079	ltpFR	6	2	0	BIKE	125	n/a	n/a	1	n/a	n/a	n/a	n/a	n/a
393386	WORD	wordpools/wasnorm_wordpool.txt	LTP079	ltpFR	6	3	-1	BOSS	152	n/a	n/a	-1	1.0	1.0	1	upper	Verdana.ttf
397419	WORD	wordpools/wasnorm_wordpool.txt	LTP079	ltpFR	6	3	-1	ROOSTER	1209	n/a	n/a	-1	1.0	1.0	1	upper	Verdana.ttf
401620	WORD	wordpools/wasnorm_wordpool.txt	LTP079	ltpFR	6	3	-1	YOLK	1633	n/a	n/a	-1	1.0	1.0	1	upper	Verdana.ttf
405545	WORD	wordpools/wasnorm_wordpool.txt	LTP079	ltpFR	6	3	-1	TRIBE	1505	n/a	n/a	-1	1.0	1.0	1	upper	Verdana.ttf
409561	WORD	wordpools/wasnorm_wordpool.txt	LTP079	ltpFR	6	3	-1	JACKET	747	n/a	n/a	-1	1.0	1.0	1	upper	Verdana.ttf
413527	WORD	wordpools/wasnorm_wordpool.txt	LTP079	ltpFR	6	3	-1	APPENDAGE	32	n/a	n/a	-1	1.0	1.0	1	upper	Verdana.ttf
417434	WORD	wordpools/wasnorm_wordpool.txt	LTP079	ltpFR	6	3	-1	ARM	38	n/a	n/a	-1	1.0	1.0	1	upper	Verdana.ttf
421292	WORD	wordpools/wasnorm_wordpool.txt	LTP079	ltpFR	6	3	-1	MEDICINE	886	n/a	n/a	-1	1.0	1.0	1	upper	Verdana.ttf
425442	WORD	wordpools/wasnorm_wordpool.txt	LTP079	ltpFR	6	3	-1	FIGHTER	564	n/a	n/a	-1	1.0	1.0	1	upper	Verdana.ttf
429543	WORD	wordpools/wasnorm_wordpool.txt	LTP079	ltpFR	6	3	-1	CHAIRPERSON	275	n/a	n/a	-1	1.0	1.0	1	upper	Verdana.ttf
433559	WORD	wordpools/wasnorm_wordpool.txt	LTP079	ltpFR	6	3	-1	PLATE	1086	n/a	n/a	-1	1.0	1.0	1	upper	Verdana.ttf
437650	WORD	wordpools/wasnorm_wordpool.txt	LTP079	ltpFR	6	3	-1	AFRICA	9	n/a	n/a	-1	1.0	1.0	1	upper	Verdana.ttf
441499	WORD	wordpools/wasnorm_wordpool.txt	LTP079	ltpFR	6	3	-1	STATUE	1374	n/a	n/a	-1	1.0	1.0	1	upper	Verdana.ttf
445357	WORD	wordpools/wasnorm_wordpool.txt	LTP079	ltpFR	6	3	-1	DRAWER	493	n/a	n/a	-1	1.0	1.0	1	upper	Verdana.ttf
449415	WORD	wordpools/wasnorm_wordpool.txt	LTP079	ltpFR	6	3	-1	ASHTRAY	45	n/a	n/a	-1	1.0	1.0	1	upper	Verdana.ttf
453315	WORD	wordpools/wasnorm_wordpool.txt	LTP079	ltpFR	6	3	-1	FEAST	556	n/a	n/a	-1	1.0	1.0	1	upper	Verdana.ttf
459007	REC_START	n/a	LTP079	ltpFR	6	3	n/a	n/a	n/a	n/a	n/a	n/a	n/a	n/a	n/a	n/a	n/a
459875	REC_WORD	wordpools/wasnorm_wordpool.txt	LTP079	ltpFR	6	3	-1	FEAST	556	n/a	n/a	-1	n/a	n/a	n/a	n/a	n/a
461067	REC_WORD	wordpools/wasnorm_wordpool.txt	LTP079	ltpFR	6	3	-1	STATUE	1374	n/a	n/a	-1	n/a	n/a	n/a	n/a	n/a
462409	REC_WORD	wordpools/wasnorm_wordpool.txt	LTP079	ltpFR	6	3	-1	DRAWER	493	n/a	n/a	-1	n/a	n/a	n/a	n/a	n/a
463791	REC_WORD	wordpools/wasnorm_wordpool.txt	LTP079	ltpFR	6	3	-1	ASHTRAY	45	n/a	n/a	-1	n/a	n/a	n/a	n/a	n/a
465128	REC_WORD	wordpools/wasnorm_wordpool.txt	LTP079	ltpFR	6	3	-1	CHAIRPERSON	275	n/a	n/a	-1	n/a	n/a	n/a	n/a	n/a
466559	REC_WORD	wordpools/wasnorm_wordpool.txt	LTP079	ltpFR	6	3	-1	PLATE	1086	n/a	n/a	-1	n/a	n/a	n/a	n/a	n/a
467922	REC_WORD	wordpools/wasnorm_wordpool.txt	LTP079	ltpFR	6	3	-1	AFRICA	9	n/a	n/a	-1	n/a	n/a	n/a	n/a	n/a
469538	REC_WORD	wordpools/wasnorm_wordpool.txt	LTP079	ltpFR	6	3	-1	BOSS	152	n/a	n/a	-1	n/a	n/a	n/a	n/a	n/a
470765	REC_WORD	wordpools/wasnorm_wordpool.txt	LTP079	ltpFR	6	3	-1	ROOSTER	1209	n/a	n/a	-1	n/a	n/a	n/a	n/a	n/a
472037	REC_WORD	wordpools/wasnorm_wordpool.txt	LTP079	ltpFR	6	3	-1	YOLK	1633	n/a	n/a	-1	n/a	n/a	n/a	n/a	n/a
473210	REC_WORD	wordpools/wasnorm_wordpool.txt	LTP079	ltpFR	6	3	-1	APPENDAGE	32	n/a	n/a	-1	n/a	n/a	n/a	n/a	n/a
474601	REC_WORD	wordpools/wasnorm_wordpool.txt	LTP079	ltpFR	6	3	-1	TRIBE	1505	n/a	n/a	-1	n/a	n/a	n/a	n/a	n/a
475804	REC_WORD	wordpools/wasnorm_wordpool.txt	LTP079	ltpFR	6	3	-1	JACKET	747	n/a	n/a	-1	n/a	n/a	n/a	n/a	n/a
509627	REC_WORD	wordpools/wasnorm_wordpool.txt	LTP079	ltpFR	6	3	-1	ARM	38	n/a	n/a	-1	n/a	n/a	n/a	n/a	n/a
511363	REC_WORD	wordpools/wasnorm_wordpool.txt	LTP079	ltpFR	6	3	-1	MEDICINE	886	n/a	n/a	-1	n/a	n/a	n/a	n/a	n/a
513832	REC_WORD	wordpools/wasnorm_wordpool.txt	LTP079	ltpFR	6	3	-1	FIGHTER	564	n/a	n/a	-1	n/a	n/a	n/a	n/a	n/a
537792	WORD	wordpools/wasnorm_wordpool.txt	LTP079	ltpFR	6	4	1	OCTOPUS	971	n/a	n/a	1	0.422607421875	0.5869140625	0	upper	zerothre.ttf
541892	WORD	wordpools/wasnorm_wordpool.txt	LTP079	ltpFR	6	4	1	CRAB	397	n/a	n/a	1	0.422607421875	0.5869140625	0	upper	zerothre.ttf
546025	WORD	wordpools/wasnorm_wordpool.txt	LTP079	ltpFR	6	4	1	COACH	331	n/a	n/a	1	0.422607421875	0.5869140625	0	upper	zerothre.ttf
550016	WORD	wordpools/wasnorm_wordpool.txt	LTP079	ltpFR	6	4	1	COWARD	394	n/a	n/a	1	0.422607421875	0.5869140625	0	upper	zerothre.ttf
553966	WORD	wordpools/wasnorm_wordpool.txt	LTP079	ltpFR	6	4	0	EXPERT	543	n/a	n/a	1	0.57763671875	0.412841796875	1	lower	amplitud.ttf
557865	WORD	wordpools/wasnorm_wordpool.txt	LTP079	ltpFR	6	4	0	GRAVEL	659	n/a	n/a	0	0.57763671875	0.412841796875	1	lower	amplitud.ttf
562015	WORD	wordpools/wasnorm_wordpool.txt	LTP079	ltpFR	6	4	0	SPATULA	1348	n/a	n/a	0	0.57763671875	0.412841796875	1	lower	amplitud.ttf
566148	WORD	wordpools/wasnorm_wordpool.txt	LTP079	ltpFR	6	4	1	SANDWICH	1232	n/a	n/a	0	0.422607421875	0.5869140625	0	upper	zerothre.ttf
570189	WORD	wordpools/wasnorm_wordpool.txt	LTP079	ltpFR	6	4	1	HALL	677	n/a	n/a	0	0.422607421875	0.5869140625	0	upper	zerothre.ttf
574031	WORD	wordpools/wasnorm_wordpool.txt	LTP079	ltpFR	6	4	1	SERGEANT	1269	n/a	n/a	1	0.422607421875	0.5869140625	0	upper	zerothre.ttf
578197	WORD	wordpools/wasnorm_wordpool.txt	LTP079	ltpFR	6	4	1	COLONEL	348	n/a	n/a	1	0.422607421875	0.5869140625	0	upper	zerothre.ttf
582397	WORD	wordpools/wasnorm_wordpool.txt	LTP079	ltpFR	6	4	0	RUNNER	1218	n/a	n/a	1	0.57763671875	0.412841796875	1	lower	amplitud.ttf
586347	WORD	wordpools/wasnorm_wordpool.txt	LTP079	ltpFR	6	4	0	VACUUM	1543	n/a	n/a	1	0.57763671875	0.412841796875	1	lower	amplitud.ttf
590355	WORD	wordpools/wasnorm_wordpool.txt	LTP079	ltpFR	6	4	0	TWIG	1527	n/a	n/a	0	0.57763671875	0.412841796875	1	lower	amplitud.ttf
594338	WORD	wordpools/wasnorm_wordpool.txt	LTP079	ltpFR	6	4	0	STADIUM	1364	n/a	n/a	1	0.57763671875	0.412841796875	1	lower	amplitud.ttf
598304	WORD	wordpools/wasnorm_wordpool.txt	LTP079	ltpFR	6	4	0	DISHWASHER	475	n/a	n/a	1	0.57763671875	0.412841796875	1	lower	amplitud.ttf
603904	REC_START	n/a	LTP079	ltpFR	6	4	n/a	n/a	n/a	n/a	n/a	n/a	n/a	n/a	n/a	n/a	n/a
604892	REC_WORD	wordpools/wasnorm_wordpool.txt	LTP079	ltpFR	6	4	0	DISHWASHER	475	n/a	n/a	1	n/a	n/a	n/a	n/a	n/a
606114	REC_WORD	wordpools/wasnorm_wordpool.txt	LTP079	ltpFR	6	4	0	STADIUM	1364	n/a	n/a	1	n/a	n/a	n/a	n/a	n/a
607476	REC_WORD	wordpools/wasnorm_wordpool.txt	LTP079	ltpFR	6	4	0	TWIG	1527	n/a	n/a	0	n/a	n/a	n/a	n/a	n/a
608633	REC_WORD	wordpools/wasnorm_wordpool.txt	LTP079	ltpFR	6	4	1	SERGEANT	1269	n/a	n/a	1	n/a	n/a	n/a	n/a	n/a
609895	REC_WORD	wordpools/wasnorm_wordpool.txt	LTP079	ltpFR	6	4	1	COLONEL	348	n/a	n/a	1	n/a	n/a	n/a	n/a	n/a
611083	REC_WORD	wordpools/wasnorm_wordpool.txt	LTP079	ltpFR	6	4	0	RUNNER	1218	n/a	n/a	1	n/a	n/a	n/a	n/a	n/a
612240	REC_WORD	wordpools/wasnorm_wordpool.txt	LTP079	ltpFR	6	4	0	VACUUM	1543	n/a	n/a	1	n/a	n/a	n/a	n/a	n/a
614934	REC_WORD	wordpools/wasnorm_wordpool.txt	LTP079	ltpFR	6	4	1	OCTOPUS	971	n/a	n/a	1	n/a	n/a	n/a	n/a	n/a
616166	REC_WORD	wordpools/wasnorm_wordpool.txt	LTP079	ltpFR	6	4	1	CRAB	397	n/a	n/a	1	n/a	n/a	n/a	n/a	n/a
617258	REC_WORD	wordpools/wasnorm_wordpool.txt	LTP079	ltpFR	6	4	1	COACH	331	n/a	n/a	1	n/a	n/a	n/a	n/a	n/a
660216	REC_WORD	wordpools/wasnorm_wordpool.txt	LTP079	ltpFR	6	4	1	COWARD	394	n/a	n/a	1	n/a	n/a	n/a	n/a	n/a
661887	REC_WORD	wordpools/wasnorm_wordpool.txt	LTP079	ltpFR	6	4	0	EXPERT	543	n/a	n/a	1	n/a	n/a	n/a	n/a	n/a
664072	REC_WORD	wordpools/wasnorm_wordpool.txt	LTP079	ltpFR	6	4	0	GRAVEL	659	n/a	n/a	0	n/a	n/a	n/a	n/a	n/a
690297	WORD	wordpools/wasnorm_wordpool.txt	LTP079	ltpFR	6	5	-1	CABINET	212	n/a	n/a	-1	1.0	1.0	1	upper	Verdana.ttf
694455	WORD	wordpools/wasnorm_wordpool.txt	LTP079	ltpFR	6	5	-1	CART	250	n/a	n/a	-1	1.0	1.0	1	upper	Verdana.ttf
698338	WORD	wordpools/wasnorm_wordpool.txt	LTP079	ltpFR	6	5	-1	DUNGEON	507	n/a	n/a	-1	1.0	1.0	1	upper	Verdana.ttf
702430	WORD	wordpools/wasnorm_wordpool.txt	LTP079	ltpFR	6	5	-1	ARENA	37	n/a	n/a	-1	1.0	1.0	1	upper	Verdana.ttf
706622	WORD	wordpools/wasnorm_wordpool.txt	LTP079	ltpFR	6	5	-1	BILL	126	n/a	n/a	-1	1.0	1.0	1	upper	Verdana.ttf
710613	WORD	wordpools/wasnorm_wordpool.txt	LTP079	ltpFR	6	5	-1	BOWL	158	n/a	n/a	-1	1.0	1.0	1	upper	Verdana.ttf
714495	WORD	wordpools/wasnorm_wordpool.txt	LTP079	ltpFR	6	5	-1	FIN	566	n/a	n/a	-1	1.0	1.0	1	upper	Verdana.ttf
718704	WORD	wordpools/wasnorm_wordpool.txt	LTP079	ltpFR	6	5	-1	SALMON	1227	n/a	n/a	-1	1.0	1.0	1	upper	Verdana.ttf
722895	WORD	wordpools/wasnorm_wordpool.txt	LTP079	ltpFR	6	5	-1	SCULPTURE	1258	n/a	n/a	-1	1.0	1.0	1	upper	Verdana.ttf
727078	WORD	wordpools/wasnorm_wordpool.txt	LTP079	ltpFR	6	5	-1	SCENERY	1247	n/a	n/a	-1	1.0	1.0	1	upper	Verdana.ttf
731069	WORD	wordpools/wasnorm_wordpool.txt	LTP079	ltpFR	6	5	-1	VOLLEYBALL	1576	n/a	n/a	-1	1.0	1.0	1	upper	Verdana.ttf
735269	WORD	wordpools/wasnorm_wordpool.txt	LTP079	ltpFR	6	5	-1	MARKET	871	n/a	n/a	-1	1.0	1.0	1	upper	Verdana.ttf
739360	WORD	wordpools/wasnorm_wordpool.txt	LTP079	ltpFR	6	5	-1	DINER	467	n/a	n/a	-1	1.0	1.0	1	upper	Verdana.ttf
743376	WORD	wordpools/wasnorm_wordpool.txt	LTP079	ltpFR	6	5	-1	CAPTIVE	240	n/a	n/a	-1	1.0	1.0	1	upper	Verdana.ttf
747393	WORD	wordpools/wasnorm_wordpool.txt	LTP079	ltpFR	6	5	-1	PARROT	1015	n/a	n/a	-1	1.0	1.0	1	upper	Verdana.ttf
751544	WORD	wordpools/wasnorm_wordpool.txt	LTP079	ltpFR	6	5	-1	RANCH	1166	n/a	n/a	-1	1.0	1.0	1	upper	Verdana.ttf
757493	REC_START	n/a	LTP079	ltpFR	6	5	n/a	n/a	n/a	n/a	n/a	n/a	n/a	n/a	n/a	n/a	n/a
758396	REC_WORD	wordpools/wasnorm_wordpool.txt	LTP079	ltpFR	6	5	-1	RANCH	1166	n/a	n/a	-1	n/a	n/a	n/a	n/a	n/a
759633	REC_WORD	wordpools/wasnorm_wordpool.txt	LTP079	ltpFR	6	5	-1	PARROT	1015	n/a	n/a	-1	n/a	n/a	n/a	n/a	n/a
760880	REC_WORD	wordpools/wasnorm_wordpool.txt	LTP079	ltpFR	6	5	-1	CAPTIVE	240	n/a	n/a	-1	n/a	n/a	n/a	n/a	n/a
762212	REC_WORD	wordpools/wasnorm_wordpool.txt	LTP079	ltpFR	6	5	-1	DINER	467	n/a	n/a	-1	n/a	n/a	n/a	n/a	n/a
763225	REC_WORD	wordpools/wasnorm_wordpool.txt	LTP079	ltpFR	6	5	-1	ARENA	37	n/a	n/a	-1	n/a	n/a	n/a	n/a	n/a
764721	REC_WORD	wordpools/wasnorm_wordpool.txt	LTP079	ltpFR	6	5	-1	BILL	126	n/a	n/a	-1	n/a	n/a	n/a	n/a	n/a
765974	REC_WORD	wordpools/wasnorm_wordpool.txt	LTP079	ltpFR	6	5	-1	BOWL	158	n/a	n/a	-1	n/a	n/a	n/a	n/a	n/a
767625	REC_WORD	wordpools/wasnorm_wordpool.txt	LTP079	ltpFR	6	5	-1	CABINET	212	n/a	n/a	-1	n/a	n/a	n/a	n/a	n/a
769017	REC_WORD	wordpools/wasnorm_wordpool.txt	LTP079	ltpFR	6	5	-1	CART	250	n/a	n/a	-1	n/a	n/a	n/a	n/a	n/a
774948	REC_WORD	wordpools/wasnorm_wordpool.txt	LTP079	ltpFR	6	5	-1	DUNGEON	507	n/a	n/a	-1	n/a	n/a	n/a	n/a	n/a
776929	REC_WORD	wordpools/wasnorm_wordpool.txt	LTP079	ltpFR	6	5	-1	SCULPTURE	1258	n/a	n/a	-1	n/a	n/a	n/a	n/a	n/a
778281	REC_WORD	wordpools/wasnorm_wordpool.txt	LTP079	ltpFR	6	5	-1	SALMON	1227	n/a	n/a	-1	n/a	n/a	n/a	n/a	n/a
779488	REC_WORD	wordpools/wasnorm_wordpool.txt	LTP079	ltpFR	6	5	-1	FIN	566	n/a	n/a	-1	n/a	n/a	n/a	n/a	n/a
836286	WORD	wordpools/wasnorm_wordpool.txt	LTP079	ltpFR	6	6	1	SNAIL	1332	n/a	n/a	1	0.422607421875	0.5869140625	0	upper	zerothre.ttf
840278	WORD	wordpools/wasnorm_wordpool.txt	LTP079	ltpFR	6	6	1	SLUG	1329	n/a	n/a	1	0.422607421875	0.5869140625	0	upper	zerothre.ttf
844369	WORD	wordpools/wasnorm_wordpool.txt	LTP079	ltpFR	6	6	0	ROCKET	1202	n/a	n/a	1	0.57763671875	0.412841796875	1	lower	amplitud.ttf
848360	WORD	wordpools/wasnorm_wordpool.txt	LTP079	ltpFR	6	6	0	MAILMAN	858	n/a	n/a	1	0.57763671875	0.412841796875	1	lower	amplitud.ttf
852193	WORD	wordpools/wasnorm_wordpool.txt	LTP079	ltpFR	6	6	0	LIVER	833	n/a	n/a	0	0.57763671875	0.412841796875	1	lower	amplitud.ttf
856251	WORD	wordpools/wasnorm_wordpool.txt	LTP079	ltpFR	6	6	0	MECHANIC	884	n/a	n/a	1	0.57763671875	0.412841796875	1	lower	amplitud.ttf
860118	WORD	wordpools/wasnorm_wordpool.txt	LTP079	ltpFR	6	6	1	MAILBOX	857	n/a	n/a	0	0.422607421875	0.5869140625	0	upper	zerothre.ttf
864159	WORD	wordpools/wasnorm_wordpool.txt	LTP079	ltpFR	6	6	1	BOULDER	155	n/a	n/a	0	0.422607421875	0.5869140625	0	upper	zerothre.ttf
868067	WORD	wordpools/wasnorm_wordpool.txt	LTP079	ltpFR	6	6	1	MISSILE	900	n/a	n/a	0	0.422607421875	0.5869140625	0	upper	zerothre.ttf
872267	WORD	wordpools/wasnorm_wordpool.txt	LTP079	ltpFR	6	6	1	CLASS	318	n/a	n/a	0	0.422607421875	0.5869140625	0	upper	zerothre.ttf
876325	WORD	wordpools/wasnorm_wordpool.txt	LTP079	ltpFR	6	6	0	TEACHER	1440	n/a	n/a	1	0.57763671875	0.412841796875	1	lower	amplitud.ttf
880208	WORD	wordpools/wasnorm_wordpool.txt	LTP079	ltpFR	6	6	0	COLESLAW	344	n/a	n/a	0	0.57763671875	0.412841796875	1	lower	amplitud.ttf
884141	WORD	wordpools/wasnorm_wordpool.txt	LTP079	ltpFR	6	6	0	DOUGHNUT	490	n/a	n/a	0	0.57763671875	0.412841796875	1	lower	amplitud.ttf
888191	WORD	wordpools/wasnorm_wordpool.txt	LTP079	ltpFR	6	6	0	HERO	706	n/a	n/a	1	0.57763671875	0.412841796875	1	lower	amplitud.ttf
892357	WORD	wordpools/wasnorm_wordpool.txt	LTP079	ltpFR	6	6	1	TRACTOR	1493	n/a	n/a	0	0.422607421875	0.5869140625	0	upper	zerothre.ttf
896415	WORD	wordpools/wasnorm_wordpool.txt	LTP079	ltpFR	6	6	1	GLASSES	640	n/a	n/a	0	0.422607421875	0.5869140625	0	upper	zerothre.ttf
902290	REC_START	n/a	LTP079	ltpFR	6	6	n/a	n/a	n/a	n/a	n/a	n/a	n/a	n/a	n/a	n/a	n/a
903178	REC_WORD	wordpools/wasnorm_wordpool.txt	LTP079	ltpFR	6	6	1	GLASSES	640	n/a	n/a	0	n/a	n/a	n/a	n/a	n/a
904550	REC_WORD	wordpools/wasnorm_wordpool.txt	LTP079	ltpFR	6	6	1	TRACTOR	1493	n/a	n/a	0	n/a	n/a	n/a	n/a	n/a
905937	REC_WORD	wordpools/wasnorm_wordpool.txt	LTP079	ltpFR	6	6	0	HERO	706	n/a	n/a	1	n/a	n/a	n/a	n/a	n/a
907328	REC_WORD	wordpools/wasnorm_wordpool.txt	LTP079	ltpFR	6	6	0	DOUGHNUT	490	n/a	n/a	0	n/a	n/a	n/a	n/a	n/a
908561	REC_WORD	wordpools/wasnorm_wordpool.txt	LTP079	ltpFR	6	6	1	CLASS	318	n/a	n/a	0	n/a	n/a	n/a	n/a	n/a
910037	REC_WORD	wordpools/wasnorm_wordpool.txt	LTP079	ltpFR	6	6	0	TEACHER	1440	n/a	n/a	1	n/a	n/a	n/a	n/a	n/a
911394	REC_WORD	wordpools/wasnorm_wordpool.txt	LTP079	ltpFR	6	6	0	COLESLAW	344	n/a	n/a	0	n/a	n/a	n/a	n/a	n/a
932117	REC_WORD	wordpools/wasnorm_wordpool.txt	LTP079	ltpFR	6	6	1	BOULDER	155	n/a	n/a	0	n/a	n/a	n/a	n/a	n/a
933444	REC_WORD	wordpools/wasnorm_wordpool.txt	LTP079	ltpFR	6	6	1	MAILBOX	857	n/a	n/a	0	n/a	n/a	n/a	n/a	n/a
935030	REC_WORD	wordpools/wasnorm_wordpool.txt	LTP079	ltpFR	6	6	1	MISSILE	900	n/a	n/a	0	n/a	n/a	n/a	n/a	n/a
936337	REC_WORD	wordpools/wasnorm_wordpool.txt	LTP079	ltpFR	6	6	0	MAILMAN	858	n/a	n/a	1	n/a	n/a	n/a	n/a	n/a
947058	REC_WORD	wordpools/wasnorm_wordpool.txt	LTP079	ltpFR	6	6	0	MECHANIC	884	n/a	n/a	1	n/a	n/a	n/a	n/a	n/a
990133	WORD	wordpools/wasnorm_wordpool.txt	LTP079	ltpFR	6	7	0	MULE	931	n/a	n/a	1	0.57763671875	0.412841796875	1	lower	amplitud.ttf
994216	WORD	wordpools/wasnorm_wordpool.txt	LTP079	ltpFR	6	7	0	GUARDIAN	668	n/a	n/a	1	0.57763671875	0.412841796875	1	lower	amplitud.ttf
998099	WORD	wordpools/wasnorm_wordpool.txt	LTP079	ltpFR	6	7	0	SCARF	1246	n/a	n/a	0	0.57763671875	0.412841796875	1	lower	amplitud.ttf
1002132	WORD	wordpools/wasnorm_wordpool.txt	LTP079	ltpFR	6	7	0	COAT	333	n/a	n/a	0	0.57763671875	0.412841796875	1	lower	amplitud.ttf
1006198	WORD	wordpools/wasnorm_wordpool.txt	LTP079	ltpFR	6	7	0	PECAN	1036	n/a	n/a	0	0.57763671875	0.412841796875	1	lower	amplitud.ttf
1010398	WORD	wordpools/wasnorm_wordpool.txt	LTP079	ltpFR	6	7	0	AUTHOR	61	n/a	n/a	1	0.57763671875	0.412841796875	1	lower	amplitud.ttf
1014456	WORD	wordpools/wasnorm_wordpool.txt	LTP079	ltpFR	6	7	0	ENGINE	535	n/a	n/a	0	0.57763671875	0.412841796875	1	lower	amplitud.ttf
1018574	WORD	wordpools/wasnorm_wordpool.txt	LTP079	ltpFR	6	7	0	TAIL	1430	n/a	n/a	0	0.57763671875	0.412841796875	1	lower	amplitud.ttf
1022765	WORD	wordpools/wasnorm_wordpool.txt	LTP079	ltpFR	6	7	0	FLEA	577	n/a	n/a	0	0.57763671875	0.412841796875	1	lower	amplitud.ttf
1026830	WORD	wordpools/wasnorm_wordpool.txt	LTP079	ltpFR	6	7	0	TREAD	1499	n/a	n/a	0	0.57763671875	0.412841796875	1	lower	amplitud.ttf
1030955	WORD	wordpools/wasnorm_wordpool.txt	LTP079	ltpFR	6	7	0	FAMILY	550	n/a	n/a	1	0.57763671875	0.412841796875	1	lower	amplitud.ttf
1035021	WORD	wordpools/wasnorm_wordpool.txt	LTP079	ltpFR	6	7	0	BUGGY	188	n/a	n/a	1	0.57763671875	0.412841796875	1	lower	amplitud.ttf
1039213	WORD	wordpools/wasnorm_wordpool.txt	LTP079	ltpFR	6	7	0	FRUIT	610	n/a	n/a	0	0.57763671875	0.412841796875	1	lower	amplitud.ttf
1043237	WORD	wordpools/wasnorm_wordpool.txt	LTP079	ltpFR	6	7	0	CELERY	266	n/a	n/a	0	0.57763671875	0.412841796875	1	lower	amplitud.ttf
1047412	WORD	wordpools/wasnorm_wordpool.txt	LTP079	ltpFR	6	7	0	TIDE	1465	n/a	n/a	1	0.57763671875	0.412841796875	1	lower	amplitud.ttf
1051437	WORD	wordpools/wasnorm_wordpool.txt	LTP079	ltpFR	6	7	0	COMMUNITY	356	n/a	n/a	1	0.57763671875	0.412841796875	1	lower	amplitud.ttf
1057162	REC_START	n/a	LTP079	ltpFR	6	7	n/a	n/a	n/a	n/a	n/a	n/a	n/a	n/a	n/a	n/a	n/a
1058005	REC_WORD	wordpools/wasnorm_wordpool.txt	LTP079	ltpFR	6	7	0	COMMUNITY	356	n/a	n/a	1	n/a	n/a	n/a	n/a	n/a
1059402	REC_WORD	wordpools/wasnorm_wordpool.txt	LTP079	ltpFR	6	7	0	TIDE	1465	n/a	n/a	1	n/a	n/a	n/a	n/a	n/a
1060739	REC_WORD	wordpools/wasnorm_wordpool.txt	LTP079	ltpFR	6	7	0	FAMILY	550	n/a	n/a	1	n/a	n/a	n/a	n/a	n/a
1062245	REC_WORD	wordpools/wasnorm_wordpool.txt	LTP079	ltpFR	6	7	0	BUGGY	188	n/a	n/a	1	n/a	n/a	n/a	n/a	n/a
1063482	REC_WORD	wordpools/wasnorm_wordpool.txt	LTP079	ltpFR	6	7	0	CELERY	266	n/a	n/a	0	n/a	n/a	n/a	n/a	n/a
1064969	REC_WORD	wordpools/wasnorm_wordpool.txt	LTP079	ltpFR	6	7	0	FRUIT	610	n/a	n/a	0	n/a	n/a	n/a	n/a	n/a
1067992	REC_WORD	wordpools/wasnorm_wordpool.txt	LTP079	ltpFR	6	7	0	FLEA	577	n/a	n/a	0	n/a	n/a	n/a	n/a	n/a
1069429	REC_WORD	wordpools/wasnorm_wordpool.txt	LTP079	ltpFR	6	7	0	TAIL	1430	n/a	n/a	0	n/a	n/a	n/a	n/a	n/a
1070696	REC_WORD	wordpools/wasnorm_wordpool.txt	LTP079	ltpFR	6	7	0	TREAD	1499	n/a	n/a	0	n/a	n/a	n/a	n/a	n/a
1076199	REC_WORD	wordpools/wasnorm_wordpool.txt	LTP079	ltpFR	6	7	0	AUTHOR	61	n/a	n/a	1	n/a	n/a	n/a	n/a	n/a
1077436	REC_WORD	wordpools/wasnorm_wordpool.txt	LTP079	ltpFR	6	7	0	ENGINE	535	n/a	n/a	0	n/a	n/a	n/a	n/a	n/a
1079247	REC_WORD	wordpools/wasnorm_wordpool.txt	LTP079	ltpFR	6	7	0	PECAN	1036	n/a	n/a	0	n/a	n/a	n/a	n/a	n/a
1089723	REC_WORD	wordpools/wasnorm_wordpool.txt	LTP079	ltpFR	6	7	0	MULE	931	n/a	n/a	1	n/a	n/a	n/a	n/a	n/a
1091209	REC_WORD	wordpools/wasnorm_wordpool.txt	LTP079	ltpFR	6	7	0	GUARDIAN	668	n/a	n/a	1	n/a	n/a	n/a	n/a	n/a
1092696	REC_WORD	wordpools/wasnorm_wordpool.txt	LTP079	ltpFR	6	7	0	COAT	333	n/a	n/a	0	n/a	n/a	n/a	n/a	n/a
1093863	REC_WORD	wordpools/wasnorm_wordpool.txt	LTP079	ltpFR	6	7	0	SCARF	1246	n/a	n/a	0	n/a	n/a	n/a	n/a	n/a
1143155	WORD	wordpools/wasnorm_wordpool.txt	LTP079	ltpFR	6	8	1	CHERRY	293	n/a	n/a	1	0.422607421875	0.5869140625	0	upper	zerothre.ttf
1147330	WORD	wordpools/wasnorm_wordpool.txt	LTP079	ltpFR	6	8	1	TICK	1463	n/a	n/a	1	0.422607421875	0.5869140625	0	upper	zerothre.ttf
1151146	WORD	wordpools/wasnorm_wordpool.txt	LTP079	ltpFR	6	8	1	CREEK	404	n/a	n/a	0	0.422607421875	0.5869140625	0	upper	zerothre.ttf
1155137	WORD	wordpools/wasnorm_wordpool.txt	LTP079	ltpFR	6	8	1	MAT	877	n/a	n/a	0	0.422607421875	0.5869140625	0	upper	zerothre.ttf
1159070	WORD	wordpools/wasnorm_wordpool.txt	LTP079	ltpFR	6	8	1	WELL	1600	n/a	n/a	0	0.422607421875	0.5869140625	0	upper	zerothre.ttf
1163145	WORD	wordpools/wasnorm_wordpool.txt	LTP079	ltpFR	6	8	1	TOWER	1490	n/a	n/a	0	0.422607421875	0.5869140625	0	upper	zerothre.ttf
1167128	WORD	wordpools/wasnorm_wordpool.txt	LTP079	ltpFR	6	8	1	ELEPHANT	523	n/a	n/a	1	0.422607421875	0.5869140625	0	upper	zerothre.ttf
1171011	WORD	wordpools/wasnorm_wordpool.txt	LTP079	ltpFR	6	8	1	ROACH	1195	n/a	n/a	1	0.422607421875	0.5869140625	0	upper	zerothre.ttf
1175077	WORD	wordpools/wasnorm_wordpool.txt	LTP079	ltpFR	6	8	1	PUMPKIN	1142	n/a	n/a	1	0.422607421875	0.5869140625	0	upper	zerothre.ttf
1179277	WORD	wordpools/wasnorm_wordpool.txt	LTP079	ltpFR	6	8	1	STRAWBERRY	1391	n/a	n/a	1	0.422607421875	0.5869140625	0	upper	zerothre.ttf
1183285	WORD	wordpools/wasnorm_wordpool.txt	LTP079	ltpFR	6	8	1	TERMITE	1451	n/a	n/a	1	0.422607421875	0.5869140625	0	upper	zerothre.ttf
1187368	WORD	wordpools/wasnorm_wordpool.txt	LTP079	ltpFR	6	8	1	COCOON	339	n/a	n/a	0	0.422607421875	0.5869140625	0	upper	zerothre.ttf
1191577	WORD	wordpools/wasnorm_wordpool.txt	LTP079	ltpFR	6	8	1	SUBMARINE	1398	n/a	n/a	0	0.422607421875	0.5869140625	0	upper	zerothre.ttf
1195501	WORD	wordpools/wasnorm_wordpool.txt	LTP079	ltpFR	6	8	1	BOAT	144	n/a	n/a	0	0.422607421875	0.5869140625	0	upper	zerothre.ttf
1199434	WORD	wordpools/wasnorm_wordpool.txt	LTP079	ltpFR	6	8	1	SWIMMER	1420	n/a	n/a	1	0.422607421875	0.5869140625	0	upper	zerothre.ttf
1203284	WORD	wordpools/wasnorm_wordpool.txt	LTP079	ltpFR	6	8	1	SWAMP	1416	n/a	n/a	0	0.422607421875	0.5869140625	0	upper	zerothre.ttf
1208992	REC_START	n/a	LTP079	ltpFR	6	8	n/a	n/a	n/a	n/a	n/a	n/a	n/a	n/a	n/a	n/a	n/a
1209755	REC_WORD	wordpools/wasnorm_wordpool.txt	LTP079	ltpFR	6	8	1	SWAMP	1416	n/a	n/a	0	n/a	n/a	n/a	n/a	n/a
1211112	REC_WORD	wordpools/wasnorm_wordpool.txt	LTP079	ltpFR	6	8	1	SUBMARINE	1398	n/a	n/a	0	n/a	n/a	n/a	n/a	n/a
1212818	REC_WORD	wordpools/wasnorm_wordpool.txt	LTP079	ltpFR	6	8	1	SWIMMER	1420	n/a	n/a	1	n/a	n/a	n/a	n/a	n/a
1214385	REC_WORD	wordpools/wasnorm_wordpool.txt	LTP079	ltpFR	6	8	1	BOAT	144	n/a	n/a	0	n/a	n/a	n/a	n/a	n/a
1215482	REC_WORD	wordpools/wasnorm_wordpool.txt	LTP079	ltpFR	6	8	1	STRAWBERRY	1391	n/a	n/a	1	n/a	n/a	n/a	n/a	n/a
1216994	REC_WORD	wordpools/wasnorm_wordpool.txt	LTP079	ltpFR	6	8	1	CHERRY	293	n/a	n/a	1	n/a	n/a	n/a	n/a	n/a
1218196	REC_WORD	wordpools/wasnorm_wordpool.txt	LTP079	ltpFR	6	8	1	TERMITE	1451	n/a	n/a	1	n/a	n/a	n/a	n/a	n/a
1219453	REC_WORD	wordpools/wasnorm_wordpool.txt	LTP079	ltpFR	6	8	1	TICK	1463	n/a	n/a	1	n/a	n/a	n/a	n/a	n/a
1220670	REC_WORD	wordpools/wasnorm_wordpool.txt	LTP079	ltpFR	6	8	1	CREEK	404	n/a	n/a	0	n/a	n/a	n/a	n/a	n/a
1228024	REC_WORD	wordpools/wasnorm_wordpool.txt	LTP079	ltpFR	6	8	1	ELEPHANT	523	n/a	n/a	1	n/a	n/a	n/a	n/a	n/a
1229440	REC_WORD	wordpools/wasnorm_wordpool.txt	LTP079	ltpFR	6	8	1	ROACH	1195	n/a	n/a	1	n/a	n/a	n/a	n/a	n/a
1233376	REC_WORD	wordpools/wasnorm_wordpool.txt	LTP079	ltpFR	6	8	1	TOWER	1490	n/a	n/a	0	n/a	n/a	n/a	n/a	n/a
1234778	REC_WORD	wordpools/wasnorm_wordpool.txt	LTP079	ltpFR	6	8	1	WELL	1600	n/a	n/a	0	n/a	n/a	n/a	n/a	n/a
1235946	REC_WORD	wordpools/wasnorm_wordpool.txt	LTP079	ltpFR	6	8	1	MAT	877	n/a	n/a	0	n/a	n/a	n/a	n/a	n/a
1292085	WORD	wordpools/wasnorm_wordpool.txt	LTP079	ltpFR	6	9	1	FARM	552	n/a	n/a	0	0.422607421875	0.5869140625	0	upper	zerothre.ttf
1296210	WORD	wordpools/wasnorm_wordpool.txt	LTP079	ltpFR	6	9	1	TAPIOCA	1434	n/a	n/a	0	0.422607421875	0.5869140625	0	upper	zerothre.ttf
1300343	WORD	wordpools/wasnorm_wordpool.txt	LTP079	ltpFR	6	9	1	PUBLISHER	1137	n/a	n/a	1	0.422607421875	0.5869140625	0	upper	zerothre.ttf
1304501	WORD	wordpools/wasnorm_wordpool.txt	LTP079	ltpFR	6	9	1	APPLICATION	34	n/a	n/a	0	0.422607421875	0.5869140625	0	upper	zerothre.ttf
1308610	WORD	wordpools/wasnorm_wordpool.txt	LTP079	ltpFR	6	9	1	FUDGE	611	n/a	n/a	0	0.422607421875	0.5869140625	0	upper	zerothre.ttf
1312701	WORD	wordpools/wasnorm_wordpool.txt	LTP079	ltpFR	6	9	1	GLASS	639	n/a	n/a	0	0.422607421875	0.5869140625	0	upper	zerothre.ttf
1316584	WORD	wordpools/wasnorm_wordpool.txt	LTP079	ltpFR	6	9	1	BONE	148	n/a	n/a	1	0.422607421875	0.5869140625	0	upper	zerothre.ttf
1320467	WORD	wordpools/wasnorm_wordpool.txt	LTP079	ltpFR	6	9	1	ARCHITECT	36	n/a	n/a	1	0.422607421875	0.5869140625	0	upper	zerothre.ttf
1324300	WORD	wordpools/wasnorm_wordpool.txt	LTP079	ltpFR	6	9	1	CONTRACTOR	369	n/a	n/a	1	0.422607421875	0.5869140625	0	upper	zerothre.ttf
1328124	WORD	wordpools/wasnorm_wordpool.txt	LTP079	ltpFR	6	9	1	SUSPECT	1415	n/a	n/a	1	0.422607421875	0.5869140625	0	upper	zerothre.ttf
1332007	WORD	wordpools/wasnorm_wordpool.txt	LTP079	ltpFR	6	9	1	FLOWER	584	n/a	n/a	1	0.422607421875	0.5869140625	0	upper	zerothre.ttf
1335915	WORD	wordpools/wasnorm_wordpool.txt	LTP079	ltpFR	6	9	1	MILDEW	893	n/a	n/a	0	0.422607421875	0.5869140625	0	upper	zerothre.ttf
1339758	WORD	wordpools/wasnorm_wordpool.txt	LTP079	ltpFR	6	9	1	BEAN	105	n/a	n/a	0	0.422607421875	0.5869140625	0	upper	zerothre.ttf
1343856	WORD	wordpools/wasnorm_wordpool.txt	LTP079	ltpFR	6	9	1	LITERATURE	831	n/a	n/a	0	0.422607421875	0.5869140625	0	upper	zerothre.ttf
1347781	WORD	wordpools/wasnorm_wordpool.txt	LTP079	ltpFR	6	9	1	WINDSHIELD	1612	n/a	n/a	0	0.422607421875	0.5869140625	0	upper	zerothre.ttf
1351632	WORD	wordpools/wasnorm_wordpool.txt	LTP079	ltpFR	6	9	1	STRAW	1390	n/a	n/a	0	0.422607421875	0.5869140625	0	upper	zerothre.ttf
1357373	REC_START	n/a	LTP079	ltpFR	6	9	n/a	n/a	n/a	n/a	n/a	n/a	n/a	n/a	n/a	n/a	n/a
1358166	REC_WORD	wordpools/wasnorm_wordpool.txt	LTP079	ltpFR	6	9	1	STRAW	1390	n/a	n/a	0	n/a	n/a	n/a	n/a	n/a
1359762	REC_WORD	wordpools/wasnorm_wordpool.txt	LTP079	ltpFR	6	9	1	LITERATURE	831	n/a	n/a	0	n/a	n/a	n/a	n/a	n/a
1361538	REC_WORD	wordpools/wasnorm_wordpool.txt	LTP079	ltpFR	6	9	1	BEAN	105	n/a	n/a	0	n/a	n/a	n/a	n/a	n/a
1362955	REC_WORD	wordpools/wasnorm_wordpool.txt	LTP079	ltpFR	6	9	1	WINDSHIELD	1612	n/a	n/a	0	n/a	n/a	n/a	n/a	n/a
1365060	REC_WORD	wordpools/wasnorm_wordpool.txt	LTP079	ltpFR	6	9	1	MILDEW	893	n/a	n/a	0	n/a	n/a	n/a	n/a	n/a
1371376	REC_WORD	wordpools/wasnorm_wordpool.txt	LTP079	ltpFR	6	9	1	ARCHITECT	36	n/a	n/a	1	n/a	n/a	n/a	n/a	n/a
1372643	REC_WORD	wordpools/wasnorm_wordpool.txt	LTP079	ltpFR	6	9	1	SUSPECT	1415	n/a	n/a	1	n/a	n/a	n/a	n/a	n/a
1373990	REC_WORD	wordpools/wasnorm_wordpool.txt	LTP079	ltpFR	6	9	1	CONTRACTOR	369	n/a	n/a	1	n/a	n/a	n/a	n/a	n/a
1375636	REC_WORD	wordpools/wasnorm_wordpool.txt	LTP079	ltpFR	6	9	1	BONE	148	n/a	n/a	1	n/a	n/a	n/a	n/a	n/a
1407888	REC_WORD	wordpools/wasnorm_wordpool.txt	LTP079	ltpFR	6	9	1	FLOWER	584	n/a	n/a	1	n/a	n/a	n/a	n/a	n/a
1436449	WORD	wordpools/wasnorm_wordpool.txt	LTP079	ltpFR	6	10	0	STRING	1394	n/a	n/a	0	0.57763671875	0.412841796875	1	lower	amplitud.ttf
1440358	WORD	wordpools/wasnorm_wordpool.txt	LTP079	ltpFR	6	10	0	GRASS	655	n/a	n/a	0	0.57763671875	0.412841796875	1	lower	amplitud.ttf
1444324	WORD	wordpools/wasnorm_wordpool.txt	LTP079	ltpFR	6	10	0	GHETTO	633	n/a	n/a	1	0.57763671875	0.412841796875	1	lower	amplitud.ttf
1448165	WORD	wordpools/wasnorm_wordpool.txt	LTP079	ltpFR	6	10	0	CONE	363	n/a	n/a	0	0.57763671875	0.412841796875	1	lower	amplitud.ttf
1451982	WORD	wordpools/wasnorm_wordpool.txt	LTP079	ltpFR	6	10	0	METEOR	889	n/a	n/a	1	0.57763671875	0.412841796875	1	lower	amplitud.ttf
1455998	WORD	wordpools/wasnorm_wordpool.txt	LTP079	ltpFR	6	10	0	ROCK	1201	n/a	n/a	0	0.57763671875	0.412841796875	1	lower	amplitud.ttf
1460181	WORD	wordpools/wasnorm_wordpool.txt	LTP079	ltpFR	6	10	0	TRENCH	1503	n/a	n/a	1	0.57763671875	0.412841796875	1	lower	amplitud.ttf
1464047	WORD	wordpools/wasnorm_wordpool.txt	LTP079	ltpFR	6	10	0	BIRD	129	n/a	n/a	0	0.57763671875	0.412841796875	1	lower	amplitud.ttf
1468122	WORD	wordpools/wasnorm_wordpool.txt	LTP079	ltpFR	6	10	0	MOSS	918	n/a	n/a	0	0.57763671875	0.412841796875	1	lower	amplitud.ttf
1472122	WORD	wordpools/wasnorm_wordpool.txt	LTP079	ltpFR	6	10	0	SHRUB	1299	n/a	n/a	0	0.57763671875	0.412841796875	1	lower	amplitud.ttf
1476197	WORD	wordpools/wasnorm_wordpool.txt	LTP079	ltpFR	6	10	0	AWARD	63	n/a	n/a	0	0.57763671875	0.412841796875	1	lower	amplitud.ttf
1480063	WORD	wordpools/wasnorm_wordpool.txt	LTP079	ltpFR	6	10	0	RACK	1154	n/a	n/a	0	0.57763671875	0.412841796875	1	lower	amplitud.ttf
1483888	WORD	wordpools/wasnorm_wordpool.txt	LTP079	ltpFR	6	10	0	CLOTHES	327	n/a	n/a	1	0.57763671875	0.412841796875	1	lower	amplitud.ttf
1487929	WORD	wordpools/wasnorm_wordpool.txt	LTP079	ltpFR	6	10	0	CROW	414	n/a	n/a	0	0.57763671875	0.412841796875	1	lower	amplitud.ttf
1491763	WORD	wordpools/wasnorm_wordpool.txt	LTP079	ltpFR	6	10	0	FOX	598	n/a	n/a	1	0.57763671875	0.412841796875	1	lower	amplitud.ttf
1495654	WORD	wordpools/wasnorm_wordpool.txt	LTP079	ltpFR	6	10	0	CHIP	303	n/a	n/a	0	0.57763671875	0.412841796875	1	lower	amplitud.ttf
1501212	REC_START	n/a	LTP079	ltpFR	6	10	n/a	n/a	n/a	n/a	n/a	n/a	n/a	n/a	n/a	n/a	n/a
1502254	REC_WORD	wordpools/wasnorm_wordpool.txt	LTP079	ltpFR	6	10	0	CHIP	303	n/a	n/a	0	n/a	n/a	n/a	n/a	n/a
1503571	REC_WORD	wordpools/wasnorm_wordpool.txt	LTP079	ltpFR	6	10	0	FOX	598	n/a	n/a	1	n/a	n/a	n/a	n/a	n/a
1504903	REC_WORD	wordpools/wasnorm_wordpool.txt	LTP079	ltpFR	6	10	0	CROW	414	n/a	n/a	0	n/a	n/a	n/a	n/a	n/a
1506245	REC_WORD	wordpools/wasnorm_wordpool.txt	LTP079	ltpFR	6	10	0	CLOTHES	327	n/a	n/a	1	n/a	n/a	n/a	n/a	n/a
1507642	REC_WORD	wordpools/wasnorm_wordpool.txt	LTP079	ltpFR	6	10	0	AWARD	63	n/a	n/a	0	n/a	n/a	n/a	n/a	n/a
1508899	REC_WORD	wordpools/wasnorm_wordpool.txt	LTP079	ltpFR	6	10	0	SHRUB	1299	n/a	n/a	0	n/a	n/a	n/a	n/a	n/a
1510326	REC_WORD	wordpools/wasnorm_wordpool.txt	LTP079	ltpFR	6	10	0	RACK	1154	n/a	n/a	0	n/a	n/a	n/a	n/a	n/a
1533593	REC_WORD	wordpools/wasnorm_wordpool.txt	LTP079	ltpFR	6	10	0	METEOR	889	n/a	n/a	1	n/a	n/a	n/a	n/a	n/a
1534950	REC_WORD	wordpools/wasnorm_wordpool.txt	LTP079	ltpFR	6	10	0	ROCK	1201	n/a	n/a	0	n/a	n/a	n/a	n/a	n/a
1538033	REC_WORD	wordpools/wasnorm_wordpool.txt	LTP079	ltpFR	6	10	0	TRENCH	1503	n/a	n/a	1	n/a	n/a	n/a	n/a	n/a
1539260	REC_WORD	wordpools/wasnorm_wordpool.txt	LTP079	ltpFR	6	10	0	MOSS	918	n/a	n/a	0	n/a	n/a	n/a	n/a	n/a
1540488	REC_WORD	wordpools/wasnorm_wordpool.txt	LTP079	ltpFR	6	10	0	BIRD	129	n/a	n/a	0	n/a	n/a	n/a	n/a	n/a
1551642	REC_WORD	wordpools/wasnorm_wordpool.txt	LTP079	ltpFR	6	10	0	CONE	363	n/a	n/a	0	n/a	n/a	n/a	n/a	n/a
1587238	WORD	wordpools/wasnorm_wordpool.txt	LTP079	ltpFR	6	11	0	STUDENT	1395	n/a	n/a	1	0.57763671875	0.412841796875	1	lower	amplitud.ttf
1591396	WORD	wordpools/wasnorm_wordpool.txt	LTP079	ltpFR	6	11	0	EMPEROR	529	n/a	n/a	1	0.57763671875	0.412841796875	1	lower	amplitud.ttf
1595539	WORD	wordpools/wasnorm_wordpool.txt	LTP079	ltpFR	6	11	1	NEST	945	n/a	n/a	0	0.422607421875	0.5869140625	0	upper	zerothre.ttf
1599462	WORD	wordpools/wasnorm_wordpool.txt	LTP079	ltpFR	6	11	1	RACKET	1155	n/a	n/a	0	0.422607421875	0.5869140625	0	upper	zerothre.ttf
1603530	WORD	wordpools/wasnorm_wordpool.txt	LTP079	ltpFR	6	11	1	SOFTBALL	1343	n/a	n/a	0	0.422607421875	0.5869140625	0	upper	zerothre.ttf
1607428	WORD	wordpools/wasnorm_wordpool.txt	LTP079	ltpFR	6	11	1	NAIL	936	n/a	n/a	0	0.422607421875	0.5869140625	0	upper	zerothre.ttf
1611303	WORD	wordpools/wasnorm_wordpool.txt	LTP079	ltpFR	6	11	0	TECHNICIAN	1443	n/a	n/a	1	0.57763671875	0.412841796875	1	lower	amplitud.ttf
1615294	WORD	wordpools/wasnorm_wordpool.txt	LTP079	ltpFR	6	11	0	CHALK	276	n/a	n/a	0	0.57763671875	0.412841796875	1	lower	amplitud.ttf
1619319	WORD	wordpools/wasnorm_wordpool.txt	LTP079	ltpFR	6	11	0	CUPBOARD	425	n/a	n/a	1	0.57763671875	0.412841796875	1	lower	amplitud.ttf
1623485	WORD	wordpools/wasnorm_wordpool.txt	LTP079	ltpFR	6	11	1	TEA	1439	n/a	n/a	0	0.422607421875	0.5869140625	0	upper	zerothre.ttf
1627594	WORD	wordpools/wasnorm_wordpool.txt	LTP079	ltpFR	6	11	1	GRASSHOPPER	656	n/a	n/a	1	0.422607421875	0.5869140625	0	upper	zerothre.ttf
1631727	WORD	wordpools/wasnorm_wordpool.txt	LTP079	ltpFR	6	11	1	CRICKET	408	n/a	n/a	1	0.422607421875	0.5869140625	0	upper	zerothre.ttf
1635893	WORD	wordpools/wasnorm_wordpool.txt	LTP079	ltpFR	6	11	1	BULLETIN	195	n/a	n/a	0	0.422607421875	0.5869140625	0	upper	zerothre.ttf
1639876	WORD	wordpools/wasnorm_wordpool.txt	LTP079	ltpFR	6	11	0	SQUID	1361	n/a	n/a	1	0.57763671875	0.412841796875	1	lower	amplitud.ttf
1643702	WORD	wordpools/wasnorm_wordpool.txt	LTP079	ltpFR	6	11	0	COCKTAIL	338	n/a	n/a	0	0.57763671875	0.412841796875	1	lower	amplitud.ttf
1647517	WORD	wordpools/wasnorm_wordpool.txt	LTP079	ltpFR	6	11	0	MUG	930	n/a	n/a	0	0.57763671875	0.412841796875	1	lower	amplitud.ttf
1653392	REC_START	n/a	LTP079	ltpFR	6	11	n/a	n/a	n/a	n/a	n/a	n/a	n/a	n/a	n/a	n/a	n/a
1654275	REC_WORD	wordpools/wasnorm_wordpool.txt	LTP079	ltpFR	6	11	0	SQUID	1361	n/a	n/a	1	n/a	n/a	n/a	n/a	n/a
1655751	REC_WORD	wordpools/wasnorm_wordpool.txt	LTP079	ltpFR	6	11	1	BULLETIN	195	n/a	n/a	0	n/a	n/a	n/a	n/a	n/a
1657208	REC_WORD	wordpools/wasnorm_wordpool.txt	LTP079	ltpFR	6	11	0	MUG	930	n/a	n/a	0	n/a	n/a	n/a	n/a	n/a
1659478	REC_WORD	wordpools/wasnorm_wordpool.txt	LTP079	ltpFR	6	11	0	COCKTAIL	338	n/a	n/a	0	n/a	n/a	n/a	n/a	n/a
1672039	REC_WORD	wordpools/wasnorm_wordpool.txt	LTP079	ltpFR	6	11	0	CUPBOARD	425	n/a	n/a	1	n/a	n/a	n/a	n/a	n/a
1673042	REC_WORD	wordpools/wasnorm_wordpool.txt	LTP079	ltpFR	6	11	0	TECHNICIAN	1443	n/a	n/a	1	n/a	n/a	n/a	n/a	n/a
1675776	REC_WORD	wordpools/wasnorm_wordpool.txt	LTP079	ltpFR	6	11	0	CHALK	276	n/a	n/a	0	n/a	n/a	n/a	n/a	n/a
1678869	REC_WORD	wordpools/wasnorm_wordpool.txt	LTP079	ltpFR	6	11	0	EMPEROR	529	n/a	n/a	1	n/a	n/a	n/a	n/a	n/a
1679961	REC_WORD	wordpools/wasnorm_wordpool.txt	LTP079	ltpFR	6	11	0	STUDENT	1395	n/a	n/a	1	n/a	n/a	n/a	n/a	n/a
1681313	REC_WORD	wordpools/wasnorm_wordpool.txt	LTP079	ltpFR	6	11	1	NEST	945	n/a	n/a	0	n/a	n/a	n/a	n/a	n/a
1733969	WORD	wordpools/wasnorm_wordpool.txt	LTP079	ltpFR	6	12	-1	QUARTER	1148	n/a	n/a	-1	1.0	1.0	1	upper	Verdana.ttf
1737835	WORD	wordpools/wasnorm_wordpool.txt	LTP079	ltpFR	6	12	-1	COIN	343	n/a	n/a	-1	1.0	1.0	1	upper	Verdana.ttf
1741661	WORD	wordpools/wasnorm_wordpool.txt	LTP079	ltpFR	6	12	-1	SHEET	1279	n/a	n/a	-1	1.0	1.0	1	upper	Verdana.ttf
1745761	WORD	wordpools/wasnorm_wordpool.txt	LTP079	ltpFR	6	12	-1	CONDUCTOR	362	n/a	n/a	-1	1.0	1.0	1	upper	Verdana.ttf
1749744	WORD	wordpools/wasnorm_wordpool.txt	LTP079	ltpFR	6	12	-1	TROMBONE	1508	n/a	n/a	-1	1.0	1.0	1	upper	Verdana.ttf
1753718	WORD	wordpools/wasnorm_wordpool.txt	LTP079	ltpFR	6	12	-1	GRAVE	658	n/a	n/a	-1	1.0	1.0	1	upper	Verdana.ttf
1757635	WORD	wordpools/wasnorm_wordpool.txt	LTP079	ltpFR	6	12	-1	FAIRY	549	n/a	n/a	-1	1.0	1.0	1	upper	Verdana.ttf
1761842	WORD	wordpools/wasnorm_wordpool.txt	LTP079	ltpFR	6	12	-1	MAGICIAN	854	n/a	n/a	-1	1.0	1.0	1	upper	Verdana.ttf
1765726	WORD	wordpools/wasnorm_wordpool.txt	LTP079	ltpFR	6	12	-1	OREGANO	983	n/a	n/a	-1	1.0	1.0	1	upper	Verdana.ttf
1769709	WORD	wordpools/wasnorm_wordpool.txt	LTP079	ltpFR	6	12	-1	MUSHROOM	934	n/a	n/a	-1	1.0	1.0	1	upper	Verdana.ttf
1773759	WORD	wordpools/wasnorm_wordpool.txt	LTP079	ltpFR	6	12	-1	SECRETARY	1265	n/a	n/a	-1	1.0	1.0	1	upper	Verdana.ttf
1777891	WORD	wordpools/wasnorm_wordpool.txt	LTP079	ltpFR	6	12	-1	PUPIL	1143	n/a	n/a	-1	1.0	1.0	1	upper	Verdana.ttf
1782082	WORD	wordpools/wasnorm_wordpool.txt	LTP079	ltpFR	6	12	-1	RUBY	1214	n/a	n/a	-1	1.0	1.0	1	upper	Verdana.ttf
1786015	WORD	wordpools/wasnorm_wordpool.txt	LTP079	ltpFR	6	12	-1	GUITAR	670	n/a	n/a	-1	1.0	1.0	1	upper	Verdana.ttf
1789923	WORD	wordpools/wasnorm_wordpool.txt	LTP079	ltpFR	6	12	-1	MICROPHONE	890	n/a	n/a	-1	1.0	1.0	1	upper	Verdana.ttf
1793881	WORD	wordpools/wasnorm_wordpool.txt	LTP079	ltpFR	6	12	-1	ESSAY	540	n/a	n/a	-1	1.0	1.0	1	upper	Verdana.ttf
1799856	REC_START	n/a	LTP079	ltpFR	6	12	n/a	n/a	n/a	n/a	n/a	n/a	n/a	n/a	n/a	n/a	n/a
1800619	REC_WORD	wordpools/wasnorm_wordpool.txt	LTP079	ltpFR	6	12	-1	RUBY	1214	n/a	n/a	-1	n/a	n/a	n/a	n/a	n/a
1801926	REC_WORD	wordpools/wasnorm_wordpool.txt	LTP079	ltpFR	6	12	-1	ESSAY	540	n/a	n/a	-1	n/a	n/a	n/a	n/a	n/a
1802984	REC_WORD	wordpools/wasnorm_wordpool.txt	LTP079	ltpFR	6	12	-1	MICROPHONE	890	n/a	n/a	-1	n/a	n/a	n/a	n/a	n/a
1804331	REC_WORD	wordpools/wasnorm_wordpool.txt	LTP079	ltpFR	6	12	-1	GUITAR	670	n/a	n/a	-1	n/a	n/a	n/a	n/a	n/a
1805348	REC_WORD	wordpools/wasnorm_wordpool.txt	LTP079	ltpFR	6	12	-1	SECRETARY	1265	n/a	n/a	-1	n/a	n/a	n/a	n/a	n/a
1806705	REC_WORD	wordpools/wasnorm_wordpool.txt	LTP079	ltpFR	6	12	-1	PUPIL	1143	n/a	n/a	-1	n/a	n/a	n/a	n/a	n/a
1807713	REC_WORD	wordpools/wasnorm_wordpool.txt	LTP079	ltpFR	6	12	-1	QUARTER	1148	n/a	n/a	-1	n/a	n/a	n/a	n/a	n/a
1808651	REC_WORD	wordpools/wasnorm_wordpool.txt	LTP079	ltpFR	6	12	-1	COIN	343	n/a	n/a	-1	n/a	n/a	n/a	n/a	n/a
1809629	REC_WORD	wordpools/wasnorm_wordpool.txt	LTP079	ltpFR	6	12	-1	SHEET	1279	n/a	n/a	-1	n/a	n/a	n/a	n/a	n/a
1814677	REC_WORD	wordpools/wasnorm_wordpool.txt	LTP079	ltpFR	6	12	-1	CONDUCTOR	362	n/a	n/a	-1	n/a	n/a	n/a	n/a	n/a
1815715	REC_WORD	wordpools/wasnorm_wordpool.txt	LTP079	ltpFR	6	12	-1	TROMBONE	1508	n/a	n/a	-1	n/a	n/a	n/a	n/a	n/a
1817027	REC_WORD	wordpools/wasnorm_wordpool.txt	LTP079	ltpFR	6	12	-1	GRAVE	658	n/a	n/a	-1	n/a	n/a	n/a	n/a	n/a
1874406	REC_WORD_VV	wordpools/wasnorm_wordpool.txt	LTP079	ltpFR	6	12	n/a	<>	-1	n/a	n/a	n/a	n/a	n/a	n/a	n/a	n/a
1875467	REST_REWET	n/a	LTP079	ltpFR	6	12	n/a	n/a	n/a	n/a	n/a	n/a	n/a	n/a	n/a	n/a	n/a
2200167	WORD	wordpools/wasnorm_wordpool.txt	LTP079	ltpFR	6	13	0	HEART	697	n/a	n/a	0	0.57763671875	0.412841796875	1	lower	amplitud.ttf
2204317	WORD	wordpools/wasnorm_wordpool.txt	LTP079	ltpFR	6	13	0	BAY	102	n/a	n/a	1	0.57763671875	0.412841796875	1	lower	amplitud.ttf
2208483	WORD	wordpools/wasnorm_wordpool.txt	LTP079	ltpFR	6	13	0	MARINE	869	n/a	n/a	1	0.57763671875	0.412841796875	1	lower	amplitud.ttf
2212676	WORD	wordpools/wasnorm_wordpool.txt	LTP079	ltpFR	6	13	0	JEEP	753	n/a	n/a	1	0.57763671875	0.412841796875	1	lower	amplitud.ttf
2216824	WORD	wordpools/wasnorm_wordpool.txt	LTP079	ltpFR	6	13	0	SWAN	1417	n/a	n/a	0	0.57763671875	0.412841796875	1	lower	amplitud.ttf
2220799	WORD	wordpools/wasnorm_wordpool.txt	LTP079	ltpFR	6	13	1	DONOR	485	n/a	n/a	1	0.422607421875	0.5869140625	0	upper	zerothre.ttf
2224641	WORD	wordpools/wasnorm_wordpool.txt	LTP079	ltpFR	6	13	1	BLUEPRINT	142	n/a	n/a	0	0.422607421875	0.5869140625	0	upper	zerothre.ttf
2228641	WORD	wordpools/wasnorm_wordpool.txt	LTP079	ltpFR	6	13	0	LOFT	840	n/a	n/a	0	0.57763671875	0.412841796875	1	lower	amplitud.ttf
2232798	WORD	wordpools/wasnorm_wordpool.txt	LTP079	ltpFR	6	13	0	WASHCLOTH	1591	n/a	n/a	0	0.57763671875	0.412841796875	1	lower	amplitud.ttf
2236765	WORD	wordpools/wasnorm_wordpool.txt	LTP079	ltpFR	6	13	0	DRILL	497	n/a	n/a	0	0.57763671875	0.412841796875	1	lower	amplitud.ttf
2240847	WORD	wordpools/wasnorm_wordpool.txt	LTP079	ltpFR	6	13	1	KITCHEN	778	n/a	n/a	0	0.422607421875	0.5869140625	0	upper	zerothre.ttf
2244906	WORD	wordpools/wasnorm_wordpool.txt	LTP079	ltpFR	6	13	1	SUPPER	1411	n/a	n/a	0	0.422607421875	0.5869140625	0	upper	zerothre.ttf
2249113	WORD	wordpools/wasnorm_wordpool.txt	LTP079	ltpFR	6	13	1	CANYON	235	n/a	n/a	0	0.422607421875	0.5869140625	0	upper	zerothre.ttf
2252922	WORD	wordpools/wasnorm_wordpool.txt	LTP079	ltpFR	6	13	1	WINGS	1614	n/a	n/a	0	0.422607421875	0.5869140625	0	upper	zerothre.ttf
2256796	WORD	wordpools/wasnorm_wordpool.txt	LTP079	ltpFR	6	13	1	PORK	1108	n/a	n/a	0	0.422607421875	0.5869140625	0	upper	zerothre.ttf
2260689	WORD	wordpools/wasnorm_wordpool.txt	LTP079	ltpFR	6	13	1	IDOL	733	n/a	n/a	0	0.422607421875	0.5869140625	0	upper	zerothre.ttf
2266513	REC_START	n/a	LTP079	ltpFR	6	13	n/a	n/a	n/a	n/a	n/a	n/a	n/a	n/a	n/a	n/a	n/a
2267645	REC_WORD	wordpools/wasnorm_wordpool.txt	LTP079	ltpFR	6	13	1	IDOL	733	n/a	n/a	0	n/a	n/a	n/a	n/a	n/a
2268778	REC_WORD	wordpools/wasnorm_wordpool.txt	LTP079	ltpFR	6	13	1	CANYON	235	n/a	n/a	0	n/a	n/a	n/a	n/a	n/a
2270080	REC_WORD	wordpools/wasnorm_wordpool.txt	LTP079	ltpFR	6	13	1	WINGS	1614	n/a	n/a	0	n/a	n/a	n/a	n/a	n/a
2271342	REC_WORD	wordpools/wasnorm_wordpool.txt	LTP079	ltpFR	6	13	1	PORK	1108	n/a	n/a	0	n/a	n/a	n/a	n/a	n/a
2272923	REC_WORD	wordpools/wasnorm_wordpool.txt	LTP079	ltpFR	6	13	1	KITCHEN	778	n/a	n/a	0	n/a	n/a	n/a	n/a	n/a
2276256	REC_WORD	wordpools/wasnorm_wordpool.txt	LTP079	ltpFR	6	13	1	SUPPER	1411	n/a	n/a	0	n/a	n/a	n/a	n/a	n/a
2283539	REC_WORD	wordpools/wasnorm_wordpool.txt	LTP079	ltpFR	6	13	1	BLUEPRINT	142	n/a	n/a	0	n/a	n/a	n/a	n/a	n/a
2284597	REC_WORD	wordpools/wasnorm_wordpool.txt	LTP079	ltpFR	6	13	0	LOFT	840	n/a	n/a	0	n/a	n/a	n/a	n/a	n/a
2286093	REC_WORD	wordpools/wasnorm_wordpool.txt	LTP079	ltpFR	6	13	0	WASHCLOTH	1591	n/a	n/a	0	n/a	n/a	n/a	n/a	n/a
2291950	REC_WORD	wordpools/wasnorm_wordpool.txt	LTP079	ltpFR	6	13	1	DONOR	485	n/a	n/a	1	n/a	n/a	n/a	n/a	n/a
2293197	REC_WORD	wordpools/wasnorm_wordpool.txt	LTP079	ltpFR	6	13	0	JEEP	753	n/a	n/a	1	n/a	n/a	n/a	n/a	n/a
2294374	REC_WORD	wordpools/wasnorm_wordpool.txt	LTP079	ltpFR	6	13	0	SWAN	1417	n/a	n/a	0	n/a	n/a	n/a	n/a	n/a
2295931	REC_WORD	wordpools/wasnorm_wordpool.txt	LTP079	ltpFR	6	13	0	BAY	102	n/a	n/a	1	n/a	n/a	n/a	n/a	n/a
2297108	REC_WORD	wordpools/wasnorm_wordpool.txt	LTP079	ltpFR	6	13	0	MARINE	869	n/a	n/a	1	n/a	n/a	n/a	n/a	n/a
2298405	REC_WORD	wordpools/wasnorm_wordpool.txt	LTP079	ltpFR	6	13	0	HEART	697	n/a	n/a	0	n/a	n/a	n/a	n/a	n/a
2353472	WORD	wordpools/wasnorm_wordpool.txt	LTP079	ltpFR	6	14	1	RAFT	1159	n/a	n/a	0	0.422607421875	0.5869140625	0	upper	zerothre.ttf
2357556	WORD	wordpools/wasnorm_wordpool.txt	LTP079	ltpFR	6	14	1	BROOK	177	n/a	n/a	0	0.422607421875	0.5869140625	0	upper	zerothre.ttf
2361573	WORD	wordpools/wasnorm_wordpool.txt	LTP079	ltpFR	6	14	1	MUSEUM	933	n/a	n/a	0	0.422607421875	0.5869140625	0	upper	zerothre.ttf
2365396	WORD	wordpools/wasnorm_wordpool.txt	LTP079	ltpFR	6	14	1	MEDAL	885	n/a	n/a	0	0.422607421875	0.5869140625	0	upper	zerothre.ttf
2369572	WORD	wordpools/wasnorm_wordpool.txt	LTP079	ltpFR	6	14	1	ENGINEER	536	n/a	n/a	1	0.422607421875	0.5869140625	0	upper	zerothre.ttf
2373588	WORD	wordpools/wasnorm_wordpool.txt	LTP079	ltpFR	6	14	1	POOL	1103	n/a	n/a	0	0.422607421875	0.5869140625	0	upper	zerothre.ttf
2377671	WORD	wordpools/wasnorm_wordpool.txt	LTP079	ltpFR	6	14	1	BUGLE	189	n/a	n/a	0	0.422607421875	0.5869140625	0	upper	zerothre.ttf
2381779	WORD	wordpools/wasnorm_wordpool.txt	LTP079	ltpFR	6	14	1	LIEUTENANT	818	n/a	n/a	1	0.422607421875	0.5869140625	0	upper	zerothre.ttf
2385721	WORD	wordpools/wasnorm_wordpool.txt	LTP079	ltpFR	6	14	1	NIECE	952	n/a	n/a	1	0.422607421875	0.5869140625	0	upper	zerothre.ttf
2389679	WORD	wordpools/wasnorm_wordpool.txt	LTP079	ltpFR	6	14	1	ANCESTOR	20	n/a	n/a	1	0.422607421875	0.5869140625	0	upper	zerothre.ttf
2393712	WORD	wordpools/wasnorm_wordpool.txt	LTP079	ltpFR	6	14	1	GOLD	647	n/a	n/a	0	0.422607421875	0.5869140625	0	upper	zerothre.ttf
2397894	WORD	wordpools/wasnorm_wordpool.txt	LTP079	ltpFR	6	14	1	TUB	1514	n/a	n/a	0	0.422607421875	0.5869140625	0	upper	zerothre.ttf
2401977	WORD	wordpools/wasnorm_wordpool.txt	LTP079	ltpFR	6	14	1	BUS	201	n/a	n/a	0	0.422607421875	0.5869140625	0	upper	zerothre.ttf
2405935	WORD	wordpools/wasnorm_wordpool.txt	LTP079	ltpFR	6	14	1	CAMEL	223	n/a	n/a	1	0.422607421875	0.5869140625	0	upper	zerothre.ttf
2409761	WORD	wordpools/wasnorm_wordpool.txt	LTP079	ltpFR	6	14	1	DANCER	437	n/a	n/a	1	0.422607421875	0.5869140625	0	upper	zerothre.ttf
2413959	WORD	wordpools/wasnorm_wordpool.txt	LTP079	ltpFR	6	14	1	SIREN	1310	n/a	n/a	0	0.422607421875	0.5869140625	0	upper	zerothre.ttf
2419561	REC_START	n/a	LTP079	ltpFR	6	14	n/a	n/a	n/a	n/a	n/a	n/a	n/a	n/a	n/a	n/a	n/a
2420374	REC_WORD	wordpools/wasnorm_wordpool.txt	LTP079	ltpFR	6	14	1	SIREN	1310	n/a	n/a	0	n/a	n/a	n/a	n/a	n/a
2421851	REC_WORD	wordpools/wasnorm_wordpool.txt	LTP079	ltpFR	6	14	1	DANCER	437	n/a	n/a	1	n/a	n/a	n/a	n/a	n/a
2423168	REC_WORD	wordpools/wasnorm_wordpool.txt	LTP079	ltpFR	6	14	1	BUS	201	n/a	n/a	0	n/a	n/a	n/a	n/a	n/a
2424375	REC_WORD	wordpools/wasnorm_wordpool.txt	LTP079	ltpFR	6	14	1	CAMEL	223	n/a	n/a	1	n/a	n/a	n/a	n/a	n/a
2425582	REC_WORD	wordpools/wasnorm_wordpool.txt	LTP079	ltpFR	6	14	1	ANCESTOR	20	n/a	n/a	1	n/a	n/a	n/a	n/a	n/a
2426949	REC_WORD	wordpools/wasnorm_wordpool.txt	LTP079	ltpFR	6	14	1	GOLD	647	n/a	n/a	0	n/a	n/a	n/a	n/a	n/a
2428106	REC_WORD	wordpools/wasnorm_wordpool.txt	LTP079	ltpFR	6	14	1	TUB	1514	n/a	n/a	0	n/a	n/a	n/a	n/a	n/a
2429214	REC_WORD	wordpools/wasnorm_wordpool.txt	LTP079	ltpFR	6	14	1	NIECE	952	n/a	n/a	1	n/a	n/a	n/a	n/a	n/a
2430361	REC_WORD	wordpools/wasnorm_wordpool.txt	LTP079	ltpFR	6	14	1	LIEUTENANT	818	n/a	n/a	1	n/a	n/a	n/a	n/a	n/a
2431579	REC_WORD	wordpools/wasnorm_wordpool.txt	LTP079	ltpFR	6	14	1	BUGLE	189	n/a	n/a	0	n/a	n/a	n/a	n/a	n/a
2434507	REC_WORD	wordpools/wasnorm_wordpool.txt	LTP079	ltpFR	6	14	1	ENGINEER	536	n/a	n/a	1	n/a	n/a	n/a	n/a	n/a
2435839	REC_WORD	wordpools/wasnorm_wordpool.txt	LTP079	ltpFR	6	14	1	MEDAL	885	n/a	n/a	0	n/a	n/a	n/a	n/a	n/a
2436996	REC_WORD	wordpools/wasnorm_wordpool.txt	LTP079	ltpFR	6	14	1	POOL	1103	n/a	n/a	0	n/a	n/a	n/a	n/a	n/a
2498311	WORD	wordpools/wasnorm_wordpool.txt	LTP079	ltpFR	6	15	-1	EMERALD	528	n/a	n/a	-1	1.0	1.0	1	upper	Verdana.ttf
2502269	WORD	wordpools/wasnorm_wordpool.txt	LTP079	ltpFR	6	15	-1	PRINCE	1124	n/a	n/a	-1	1.0	1.0	1	upper	Verdana.ttf
2506194	WORD	wordpools/wasnorm_wordpool.txt	LTP079	ltpFR	6	15	-1	QUEEN	1149	n/a	n/a	-1	1.0	1.0	1	upper	Verdana.ttf
2510111	WORD	wordpools/wasnorm_wordpool.txt	LTP079	ltpFR	6	15	-1	PATH	1023	n/a	n/a	-1	1.0	1.0	1	upper	Verdana.ttf
2514010	WORD	wordpools/wasnorm_wordpool.txt	LTP079	ltpFR	6	15	-1	CLARINET	317	n/a	n/a	-1	1.0	1.0	1	upper	Verdana.ttf
2517985	WORD	wordpools/wasnorm_wordpool.txt	LTP079	ltpFR	6	15	-1	LEMON	810	n/a	n/a	-1	1.0	1.0	1	upper	Verdana.ttf
2522010	WORD	wordpools/wasnorm_wordpool.txt	LTP079	ltpFR	6	15	-1	CARPET	247	n/a	n/a	-1	1.0	1.0	1	upper	Verdana.ttf
2525859	WORD	wordpools/wasnorm_wordpool.txt	LTP079	ltpFR	6	15	-1	TILE	1468	n/a	n/a	-1	1.0	1.0	1	upper	Verdana.ttf
2529752	WORD	wordpools/wasnorm_wordpool.txt	LTP079	ltpFR	6	15	-1	VALVE	1546	n/a	n/a	-1	1.0	1.0	1	upper	Verdana.ttf
2533568	WORD	wordpools/wasnorm_wordpool.txt	LTP079	ltpFR	6	15	-1	CRIMINAL	409	n/a	n/a	-1	1.0	1.0	1	upper	Verdana.ttf
2537760	WORD	wordpools/wasnorm_wordpool.txt	LTP079	ltpFR	6	15	-1	CLAW	319	n/a	n/a	-1	1.0	1.0	1	upper	Verdana.ttf
2541950	WORD	wordpools/wasnorm_wordpool.txt	LTP079	ltpFR	6	15	-1	WHISKERS	1605	n/a	n/a	-1	1.0	1.0	1	upper	Verdana.ttf
2545891	WORD	wordpools/wasnorm_wordpool.txt	LTP079	ltpFR	6	15	-1	SPY	1360	n/a	n/a	-1	1.0	1.0	1	upper	Verdana.ttf
2549866	WORD	wordpools/wasnorm_wordpool.txt	LTP079	ltpFR	6	15	-1	TART	1436	n/a	n/a	-1	1.0	1.0	1	upper	Verdana.ttf
2553807	WORD	wordpools/wasnorm_wordpool.txt	LTP079	ltpFR	6	15	-1	TAXI	1438	n/a	n/a	-1	1.0	1.0	1	upper	Verdana.ttf
2557949	WORD	wordpools/wasnorm_wordpool.txt	LTP079	ltpFR	6	15	-1	KETCHUP	771	n/a	n/a	-1	1.0	1.0	1	upper	Verdana.ttf
2563799	REC_START	n/a	LTP079	ltpFR	6	15	n/a	n/a	n/a	n/a	n/a	n/a	n/a	n/a	n/a	n/a	n/a
2564572	REC_WORD	wordpools/wasnorm_wordpool.txt	LTP079	ltpFR	6	15	-1	KETCHUP	771	n/a	n/a	-1	n/a	n/a	n/a	n/a	n/a
2565645	REC_WORD	wordpools/wasnorm_wordpool.txt	LTP079	ltpFR	6	15	-1	TAXI	1438	n/a	n/a	-1	n/a	n/a	n/a	n/a	n/a
2566992	REC_WORD	wordpools/wasnorm_wordpool.txt	LTP079	ltpFR	6	15	-1	TART	1436	n/a	n/a	-1	n/a	n/a	n/a	n/a	n/a
2568158	REC_WORD	wordpools/wasnorm_wordpool.txt	LTP079	ltpFR	6	15	-1	SPY	1360	n/a	n/a	-1	n/a	n/a	n/a	n/a	n/a
2569700	REC_WORD	wordpools/wasnorm_wordpool.txt	LTP079	ltpFR	6	15	-1	EMERALD	528	n/a	n/a	-1	n/a	n/a	n/a	n/a	n/a
2571017	REC_WORD	wordpools/wasnorm_wordpool.txt	LTP079	ltpFR	6	15	-1	PRINCE	1124	n/a	n/a	-1	n/a	n/a	n/a	n/a	n/a
2572354	REC_WORD	wordpools/wasnorm_wordpool.txt	LTP079	ltpFR	6	15	-1	QUEEN	1149	n/a	n/a	-1	n/a	n/a	n/a	n/a	n/a
2576435	REC_WORD	wordpools/wasnorm_wordpool.txt	LTP079	ltpFR	6	15	-1	LEMON	810	n/a	n/a	-1	n/a	n/a	n/a	n/a	n/a
2577662	REC_WORD	wordpools/wasnorm_wordpool.txt	LTP079	ltpFR	6	15	-1	CLARINET	317	n/a	n/a	-1	n/a	n/a	n/a	n/a	n/a
2579089	REC_WORD	wordpools/wasnorm_wordpool.txt	LTP079	ltpFR	6	15	-1	PATH	1023	n/a	n/a	-1	n/a	n/a	n/a	n/a	n/a
2583000	REC_WORD	wordpools/wasnorm_wordpool.txt	LTP079	ltpFR	6	15	-1	CLAW	319	n/a	n/a	-1	n/a	n/a	n/a	n/a	n/a
2584297	REC_WORD	wordpools/wasnorm_wordpool.txt	LTP079	ltpFR	6	15	-1	WHISKERS	1605	n/a	n/a	-1	n/a	n/a	n/a	n/a	n/a
2585704	REC_WORD	wordpools/wasnorm_wordpool.txt	LTP079	ltpFR	6	15	-1	CRIMINAL	409	n/a	n/a	-1	n/a	n/a	n/a	n/a	n/a
2649433	WORD	wordpools/wasnorm_wordpool.txt	LTP079	ltpFR	6	16	0	HANGER	687	n/a	n/a	0	0.57763671875	0.412841796875	1	lower	amplitud.ttf
2653559	WORD	wordpools/wasnorm_wordpool.txt	LTP079	ltpFR	6	16	0	SWING	1421	n/a	n/a	0	0.57763671875	0.412841796875	1	lower	amplitud.ttf
2657601	WORD	wordpools/wasnorm_wordpool.txt	LTP079	ltpFR	6	16	0	KING	777	n/a	n/a	1	0.57763671875	0.412841796875	1	lower	amplitud.ttf
2661692	WORD	wordpools/wasnorm_wordpool.txt	LTP079	ltpFR	6	16	0	LAPEL	800	n/a	n/a	0	0.57763671875	0.412841796875	1	lower	amplitud.ttf
2665592	WORD	wordpools/wasnorm_wordpool.txt	LTP079	ltpFR	6	16	0	CAP	236	n/a	n/a	0	0.57763671875	0.412841796875	1	lower	amplitud.ttf
2669774	WORD	wordpools/wasnorm_wordpool.txt	LTP079	ltpFR	6	16	0	NECK	939	n/a	n/a	0	0.57763671875	0.412841796875	1	lower	amplitud.ttf
2673599	WORD	wordpools/wasnorm_wordpool.txt	LTP079	ltpFR	6	16	0	MEADOW	881	n/a	n/a	1	0.57763671875	0.412841796875	1	lower	amplitud.ttf
2677674	WORD	wordpools/wasnorm_wordpool.txt	LTP079	ltpFR	6	16	0	BARLEY	88	n/a	n/a	1	0.57763671875	0.412841796875	1	lower	amplitud.ttf
2681699	WORD	wordpools/wasnorm_wordpool.txt	LTP079	ltpFR	6	16	0	CUE	422	n/a	n/a	0	0.57763671875	0.412841796875	1	lower	amplitud.ttf
2685632	WORD	wordpools/wasnorm_wordpool.txt	LTP079	ltpFR	6	16	0	POLYESTER	1100	n/a	n/a	0	0.57763671875	0.412841796875	1	lower	amplitud.ttf
2689765	WORD	wordpools/wasnorm_wordpool.txt	LTP079	ltpFR	6	16	0	GLACIER	638	n/a	n/a	1	0.57763671875	0.412841796875	1	lower	amplitud.ttf
2693930	WORD	wordpools/wasnorm_wordpool.txt	LTP079	ltpFR	6	16	0	ICEBERG	731	n/a	n/a	1	0.57763671875	0.412841796875	1	lower	amplitud.ttf
2697838	WORD	wordpools/wasnorm_wordpool.txt	LTP079	ltpFR	6	16	0	FLANNEL	574	n/a	n/a	0	0.57763671875	0.412841796875	1	lower	amplitud.ttf
2701963	WORD	wordpools/wasnorm_wordpool.txt	LTP079	ltpFR	6	16	0	JOKER	759	n/a	n/a	1	0.57763671875	0.412841796875	1	lower	amplitud.ttf
2706029	WORD	wordpools/wasnorm_wordpool.txt	LTP079	ltpFR	6	16	0	CRATER	400	n/a	n/a	1	0.57763671875	0.412841796875	1	lower	amplitud.ttf
2710154	WORD	wordpools/wasnorm_wordpool.txt	LTP079	ltpFR	6	16	0	CARRIAGE	248	n/a	n/a	0	0.57763671875	0.412841796875	1	lower	amplitud.ttf
2716004	REC_START	n/a	LTP079	ltpFR	6	16	n/a	n/a	n/a	n/a	n/a	n/a	n/a	n/a	n/a	n/a	n/a
2716727	REC_WORD	wordpools/wasnorm_wordpool.txt	LTP079	ltpFR	6	16	0	CARRIAGE	248	n/a	n/a	0	n/a	n/a	n/a	n/a	n/a
2718129	REC_WORD	wordpools/wasnorm_wordpool.txt	LTP079	ltpFR	6	16	0	CRATER	400	n/a	n/a	1	n/a	n/a	n/a	n/a	n/a
2719461	REC_WORD	wordpools/wasnorm_wordpool.txt	LTP079	ltpFR	6	16	0	FLANNEL	574	n/a	n/a	0	n/a	n/a	n/a	n/a	n/a
2720888	REC_WORD	wordpools/wasnorm_wordpool.txt	LTP079	ltpFR	6	16	0	JOKER	759	n/a	n/a	1	n/a	n/a	n/a	n/a	n/a
2740054	REC_WORD	wordpools/wasnorm_wordpool.txt	LTP079	ltpFR	6	16	0	LAPEL	800	n/a	n/a	0	n/a	n/a	n/a	n/a	n/a
2741376	REC_WORD	wordpools/wasnorm_wordpool.txt	LTP079	ltpFR	6	16	0	CAP	236	n/a	n/a	0	n/a	n/a	n/a	n/a	n/a
2742578	REC_WORD	wordpools/wasnorm_wordpool.txt	LTP079	ltpFR	6	16	0	NECK	939	n/a	n/a	0	n/a	n/a	n/a	n/a	n/a
2743776	REC_WORD	wordpools/wasnorm_wordpool.txt	LTP079	ltpFR	6	16	0	MEADOW	881	n/a	n/a	1	n/a	n/a	n/a	n/a	n/a
2744953	REC_WORD	wordpools/wasnorm_wordpool.txt	LTP079	ltpFR	6	16	0	BARLEY	88	n/a	n/a	1	n/a	n/a	n/a	n/a	n/a
2746190	REC_WORD	wordpools/wasnorm_wordpool.txt	LTP079	ltpFR	6	16	0	CUE	422	n/a	n/a	0	n/a	n/a	n/a	n/a	n/a
2747378	REC_WORD	wordpools/wasnorm_wordpool.txt	LTP079	ltpFR	6	16	0	POLYESTER	1100	n/a	n/a	0	n/a	n/a	n/a	n/a	n/a
2748834	REC_WORD	wordpools/wasnorm_wordpool.txt	LTP079	ltpFR	6	16	0	GLACIER	638	n/a	n/a	1	n/a	n/a	n/a	n/a	n/a
2749992	REC_WORD	wordpools/wasnorm_wordpool.txt	LTP079	ltpFR	6	16	0	ICEBERG	731	n/a	n/a	1	n/a	n/a	n/a	n/a	n/a
2809956	REC_START	n/a	LTP079	ltpFR	6	1	n/a	n/a	n/a	n/a	n/a	n/a	n/a	n/a	n/a	n/a	n/a
2809988	RECOG_TARGET	n/a	LTP079	ltpFR	6	1	-1	FIGHTER	564	1	5	-1	n/a	n/a	n/a	n/a	n/a
2812016	RECOG_RESP	n/a	LTP079	ltpFR	6	1	-1	FIGHTER	564	1	n/a	-1	n/a	n/a	n/a	n/a	n/a
2814441	RECOG_CONF	n/a	LTP079	ltpFR	6	1	-1	FIGHTER	564	n/a	5	-1	n/a	n/a	n/a	n/a	n/a
2816354	RECOG_LURE	n/a	LTP079	ltpFR	6	1	n/a	MONK	910	0	4	n/a	n/a	n/a	n/a	n/a	n/a
2817139	RECOG_RESP	n/a	LTP079	ltpFR	6	1	n/a	MONK	910	0	n/a	n/a	n/a	n/a	n/a	n/a	n/a
2818521	RECOG_CONF	n/a	LTP079	ltpFR	6	1	n/a	MONK	910	n/a	4	n/a	n/a	n/a	n/a	n/a	n/a
2820396	RECOG_TARGET	n/a	LTP079	ltpFR	6	1	1	MILDEW	893	1	5	0	n/a	n/a	n/a	n/a	n/a
2821235	RECOG_RESP	n/a	LTP079	ltpFR	6	1	1	MILDEW	893	1	n/a	0	n/a	n/a	n/a	n/a	n/a
2822522	RECOG_CONF	n/a	LTP079	ltpFR	6	1	1	MILDEW	893	n/a	5	0	n/a	n/a	n/a	n/a	n/a
2824337	RECOG_TARGET	n/a	LTP079	ltpFR	6	1	1	CLASS	318	1	5	0	n/a	n/a	n/a	n/a	n/a
2825286	RECOG_RESP	n/a	LTP079	ltpFR	6	1	1	CLASS	318	1	n/a	0	n/a	n/a	n/a	n/a	n/a
2826533	RECOG_CONF	n/a	LTP079	ltpFR	6	1	1	CLASS	318	n/a	5	0	n/a	n/a	n/a	n/a	n/a
2828328	RECOG_LURE	n/a	LTP079	ltpFR	6	1	n/a	TEAPOT	1442	0	3	n/a	n/a	n/a	n/a	n/a	n/a
2829905	RECOG_RESP	n/a	LTP079	ltpFR	6	1	n/a	TEAPOT	1442	0	n/a	n/a	n/a	n/a	n/a	n/a	n/a
2831352	RECOG_CONF	n/a	LTP079	ltpFR	6	1	n/a	TEAPOT	1442	n/a	3	n/a	n/a	n/a	n/a	n/a	n/a
2833495	RECOG_TARGET	n/a	LTP079	ltpFR	6	1	1	SERGEANT	1269	1	5	1	n/a	n/a	n/a	n/a	n/a
2834166	RECOG_RESP	n/a	LTP079	ltpFR	6	1	1	SERGEANT	1269	1	n/a	1	n/a	n/a	n/a	n/a	n/a
2835513	RECOG_CONF	n/a	LTP079	ltpFR	6	1	1	SERGEANT	1269	n/a	5	1	n/a	n/a	n/a	n/a	n/a
2837153	RECOG_TARGET	n/a	LTP079	ltpFR	6	1	0	TAIL	1430	1	5	0	n/a	n/a	n/a	n/a	n/a
2837857	RECOG_RESP	n/a	LTP079	ltpFR	6	1	0	TAIL	1430	1	n/a	0	n/a	n/a	n/a	n/a	n/a
2839135	RECOG_CONF	n/a	LTP079	ltpFR	6	1	0	TAIL	1430	n/a	5	0	n/a	n/a	n/a	n/a	n/a
2840811	RECOG_LURE	n/a	LTP079	ltpFR	6	1	n/a	RAIL	1161	0	4	n/a	n/a	n/a	n/a	n/a	n/a
2841639	RECOG_RESP	n/a	LTP079	ltpFR	6	1	n/a	RAIL	1161	0	n/a	n/a	n/a	n/a	n/a	n/a	n/a
2842906	RECOG_CONF	n/a	LTP079	ltpFR	6	1	n/a	RAIL	1161	n/a	4	n/a	n/a	n/a	n/a	n/a	n/a
2844720	RECOG_LURE	n/a	LTP079	ltpFR	6	1	n/a	HOOK	715	0	4	n/a	n/a	n/a	n/a	n/a	n/a
2845530	RECOG_RESP	n/a	LTP079	ltpFR	6	1	n/a	HOOK	715	0	n/a	n/a	n/a	n/a	n/a	n/a	n/a
2846707	RECOG_CONF	n/a	LTP079	ltpFR	6	1	n/a	HOOK	715	n/a	4	n/a	n/a	n/a	n/a	n/a	n/a
2848528	RECOG_LURE	n/a	LTP079	ltpFR	6	1	n/a	POISON	1096	0	4	n/a	n/a	n/a	n/a	n/a	n/a
2849281	RECOG_RESP	n/a	LTP079	ltpFR	6	1	n/a	POISON	1096	0	n/a	n/a	n/a	n/a	n/a	n/a	n/a
2850618	RECOG_CONF	n/a	LTP079	ltpFR	6	1	n/a	POISON	1096	n/a	4	n/a	n/a	n/a	n/a	n/a	n/a
2852594	RECOG_TARGET	n/a	LTP079	ltpFR	6	1	0	CHIP	303	1	5	0	n/a	n/a	n/a	n/a	n/a
2853592	RECOG_RESP	n/a	LTP079	ltpFR	6	1	0	CHIP	303	1	n/a	0	n/a	n/a	n/a	n/a	n/a
2854969	RECOG_CONF	n/a	LTP079	ltpFR	6	1	0	CHIP	303	n/a	5	0	n/a	n/a	n/a	n/a	n/a
2856702	RECOG_TARGET	n/a	LTP079	ltpFR	6	1	1	IDOL	733	1	5	0	n/a	n/a	n/a	n/a	n/a
2857418	RECOG_RESP	n/a	LTP079	ltpFR	6	1	1	IDOL	733	1	n/a	0	n/a	n/a	n/a	n/a	n/a
2858760	RECOG_CONF	n/a	LTP079	ltpFR	6	1	1	IDOL	733	n/a	5	0	n/a	n/a	n/a	n/a	n/a
2860585	RECOG_TARGET	n/a	LTP079	ltpFR	6	1	0	COCKTAIL	338	1	5	0	n/a	n/a	n/a	n/a	n/a
2861374	RECOG_RESP	n/a	LTP079	ltpFR	6	1	0	COCKTAIL	338	1	n/a	0	n/a	n/a	n/a	n/a	n/a
2862771	RECOG_CONF	n/a	LTP079	ltpFR	6	1	0	COCKTAIL	338	n/a	5	0	n/a	n/a	n/a	n/a	n/a
2864509	RECOG_TARGET	n/a	LTP079	ltpFR	6	1	-1	CONDUCTOR	362	1	5	-1	n/a	n/a	n/a	n/a	n/a
2865225	RECOG_RESP	n/a	LTP079	ltpFR	6	1	-1	CONDUCTOR	362	1	n/a	-1	n/a	n/a	n/a	n/a	n/a
2866672	RECOG_CONF	n/a	LTP079	ltpFR	6	1	-1	CONDUCTOR	362	n/a	5	-1	n/a	n/a	n/a	n/a	n/a
2868509	RECOG_LURE	n/a	LTP079	ltpFR	6	1	n/a	BANQUET	86	0	4	n/a	n/a	n/a	n/a	n/a	n/a
2869625	RECOG_RESP	n/a	LTP079	ltpFR	6	1	n/a	BANQUET	86	0	n/a	n/a	n/a	n/a	n/a	n/a	n/a
2870892	RECOG_CONF	n/a	LTP079	ltpFR	6	1	n/a	BANQUET	86	n/a	4	n/a	n/a	n/a	n/a	n/a	n/a
2872775	RECOG_TARGET	n/a	LTP079	ltpFR	6	1	1	POOL	1103	1	5	0	n/a	n/a	n/a	n/a	n/a
2873437	RECOG_RESP	n/a	LTP079	ltpFR	6	1	1	POOL	1103	1	n/a	0	n/a	n/a	n/a	n/a	n/a
2874813	RECOG_CONF	n/a	LTP079	ltpFR	6	1	1	POOL	1103	n/a	5	0	n/a	n/a	n/a	n/a	n/a
2876526	RECOG_LURE	n/a	LTP079	ltpFR	6	1	n/a	NOVEL	960	0	4	n/a	n/a	n/a	n/a	n/a	n/a
2877627	RECOG_RESP	n/a	LTP079	ltpFR	6	1	n/a	NOVEL	960	0	n/a	n/a	n/a	n/a	n/a	n/a	n/a
2878844	RECOG_CONF	n/a	LTP079	ltpFR	6	1	n/a	NOVEL	960	n/a	4	n/a	n/a	n/a	n/a	n/a	n/a
2880692	RECOG_TARGET	n/a	LTP079	ltpFR	6	1	-1	SPY	1360	1	5	-1	n/a	n/a	n/a	n/a	n/a
2881289	RECOG_RESP	n/a	LTP079	ltpFR	6	1	-1	SPY	1360	1	n/a	-1	n/a	n/a	n/a	n/a	n/a
2882656	RECOG_CONF	n/a	LTP079	ltpFR	6	1	-1	SPY	1360	n/a	5	-1	n/a	n/a	n/a	n/a	n/a
2884457	RECOG_TARGET	n/a	LTP079	ltpFR	6	1	0	SQUID	1361	1	5	1	n/a	n/a	n/a	n/a	n/a
2885185	RECOG_RESP	n/a	LTP079	ltpFR	6	1	0	SQUID	1361	1	n/a	1	n/a	n/a	n/a	n/a	n/a
2886527	RECOG_CONF	n/a	LTP079	ltpFR	6	1	0	SQUID	1361	n/a	5	1	n/a	n/a	n/a	n/a	n/a
2888207	RECOG_TARGET	n/a	LTP079	ltpFR	6	1	1	KIWI	781	1	4	1	n/a	n/a	n/a	n/a	n/a
2889819	RECOG_RESP	n/a	LTP079	ltpFR	6	1	1	KIWI	781	1	n/a	1	n/a	n/a	n/a	n/a	n/a
2891426	RECOG_CONF	n/a	LTP079	ltpFR	6	1	1	KIWI	781	n/a	4	1	n/a	n/a	n/a	n/a	n/a
2896883	REC_START	n/a	LTP079	ltpFR	6	2	n/a	n/a	n/a	n/a	n/a	n/a	n/a	n/a	n/a	n/a	n/a
2896915	RECOG_TARGET	n/a	LTP079	ltpFR	6	2	-1	FIN	566	1	5	-1	n/a	n/a	n/a	n/a	n/a
2897676	RECOG_RESP	n/a	LTP079	ltpFR	6	2	-1	FIN	566	1	n/a	-1	n/a	n/a	n/a	n/a	n/a
2899003	RECOG_CONF	n/a	LTP079	ltpFR	6	2	-1	FIN	566	n/a	5	-1	n/a	n/a	n/a	n/a	n/a
2900641	RECOG_TARGET	n/a	LTP079	ltpFR	6	2	1	GLASS	639	1	4	0	n/a	n/a	n/a	n/a	n/a
2901886	RECOG_RESP	n/a	LTP079	ltpFR	6	2	1	GLASS	639	1	n/a	0	n/a	n/a	n/a	n/a	n/a
2903024	RECOG_CONF	n/a	LTP079	ltpFR	6	2	1	GLASS	639	n/a	4	0	n/a	n/a	n/a	n/a	n/a
2904839	RECOG_TARGET	n/a	LTP079	ltpFR	6	2	0	SIBLING	1301	1	5	1	n/a	n/a	n/a	n/a	n/a
2905558	RECOG_RESP	n/a	LTP079	ltpFR	6	2	0	SIBLING	1301	1	n/a	1	n/a	n/a	n/a	n/a	n/a
2906945	RECOG_CONF	n/a	LTP079	ltpFR	6	2	0	SIBLING	1301	n/a	5	1	n/a	n/a	n/a	n/a	n/a
2908623	RECOG_LURE	n/a	LTP079	ltpFR	6	2	n/a	CUSHION	428	0	4	n/a	n/a	n/a	n/a	n/a	n/a
2909429	RECOG_RESP	n/a	LTP079	ltpFR	6	2	n/a	CUSHION	428	0	n/a	n/a	n/a	n/a	n/a	n/a	n/a
2910846	RECOG_CONF	n/a	LTP079	ltpFR	6	2	n/a	CUSHION	428	n/a	4	n/a	n/a	n/a	n/a	n/a	n/a
2912548	RECOG_TARGET	n/a	LTP079	ltpFR	6	2	0	TIDE	1465	1	5	1	n/a	n/a	n/a	n/a	n/a
2913271	RECOG_RESP	n/a	LTP079	ltpFR	6	2	0	TIDE	1465	1	n/a	1	n/a	n/a	n/a	n/a	n/a
2914657	RECOG_CONF	n/a	LTP079	ltpFR	6	2	0	TIDE	1465	n/a	5	1	n/a	n/a	n/a	n/a	n/a
2916405	RECOG_TARGET	n/a	LTP079	ltpFR	6	2	-1	YOLK	1633	1	5	-1	n/a	n/a	n/a	n/a	n/a
2917132	RECOG_RESP	n/a	LTP079	ltpFR	6	2	-1	YOLK	1633	1	n/a	-1	n/a	n/a	n/a	n/a	n/a
2918479	RECOG_CONF	n/a	LTP079	ltpFR	6	2	-1	YOLK	1633	n/a	5	-1	n/a	n/a	n/a	n/a	n/a
2920155	RECOG_TARGET	n/a	LTP079	ltpFR	6	2	0	TRENCH	1503	1	5	1	n/a	n/a	n/a	n/a	n/a
2920903	RECOG_RESP	n/a	LTP079	ltpFR	6	2	0	TRENCH	1503	1	n/a	1	n/a	n/a	n/a	n/a	n/a
2922150	RECOG_CONF	n/a	LTP079	ltpFR	6	2	0	TRENCH	1503	n/a	5	1	n/a	n/a	n/a	n/a	n/a
2923813	RECOG_TARGET	n/a	LTP079	ltpFR	6	2	0	CELERY	266	1	5	0	n/a	n/a	n/a	n/a	n/a
2924515	RECOG_RESP	n/a	LTP079	ltpFR	6	2	0	CELERY	266	1	n/a	0	n/a	n/a	n/a	n/a	n/a
2925702	RECOG_CONF	n/a	LTP079	ltpFR	6	2	0	CELERY	266	n/a	5	0	n/a	n/a	n/a	n/a	n/a
2927413	RECOG_TARGET	n/a	LTP079	ltpFR	6	2	-1	ARM	38	1	5	-1	n/a	n/a	n/a	n/a	n/a
2928142	RECOG_RESP	n/a	LTP079	ltpFR	6	2	-1	ARM	38	1	n/a	-1	n/a	n/a	n/a	n/a	n/a
2929434	RECOG_CONF	n/a	LTP079	ltpFR	6	2	-1	ARM	38	n/a	5	-1	n/a	n/a	n/a	n/a	n/a
2931196	RECOG_TARGET	n/a	LTP079	ltpFR	6	2	0	AWARD	63	1	5	0	n/a	n/a	n/a	n/a	n/a
2931878	RECOG_RESP	n/a	LTP079	ltpFR	6	2	0	AWARD	63	1	n/a	0	n/a	n/a	n/a	n/a	n/a
2933195	RECOG_CONF	n/a	LTP079	ltpFR	6	2	0	AWARD	63	n/a	5	0	n/a	n/a	n/a	n/a	n/a
2934920	RECOG_TARGET	n/a	LTP079	ltpFR	6	2	0	LAPEL	800	1	5	0	n/a	n/a	n/a	n/a	n/a
2935550	RECOG_RESP	n/a	LTP079	ltpFR	6	2	0	LAPEL	800	1	n/a	0	n/a	n/a	n/a	n/a	n/a
2936827	RECOG_CONF	n/a	LTP079	ltpFR	6	2	0	LAPEL	800	n/a	5	0	n/a	n/a	n/a	n/a	n/a
2938529	RECOG_TARGET	n/a	LTP079	ltpFR	6	2	0	SCARF	1246	1	4	0	n/a	n/a	n/a	n/a	n/a
2940658	RECOG_RESP	n/a	LTP079	ltpFR	6	2	0	SCARF	1246	1	n/a	0	n/a	n/a	n/a	n/a	n/a
2941965	RECOG_CONF	n/a	LTP079	ltpFR	6	2	0	SCARF	1246	n/a	4	0	n/a	n/a	n/a	n/a	n/a
2943671	RECOG_LURE	n/a	LTP079	ltpFR	6	2	n/a	SUPERVISOR	1410	0	4	n/a	n/a	n/a	n/a	n/a	n/a
2945348	RECOG_RESP	n/a	LTP079	ltpFR	6	2	n/a	SUPERVISOR	1410	0	n/a	n/a	n/a	n/a	n/a	n/a	n/a
2946695	RECOG_CONF	n/a	LTP079	ltpFR	6	2	n/a	SUPERVISOR	1410	n/a	4	n/a	n/a	n/a	n/a	n/a	n/a
2948461	RECOG_TARGET	n/a	LTP079	ltpFR	6	2	1	COLONEL	348	1	5	1	n/a	n/a	n/a	n/a	n/a
2949109	RECOG_RESP	n/a	LTP079	ltpFR	6	2	1	COLONEL	348	1	n/a	1	n/a	n/a	n/a	n/a	n/a
2950526	RECOG_CONF	n/a	LTP079	ltpFR	6	2	1	COLONEL	348	n/a	5	1	n/a	n/a	n/a	n/a	n/a
2952302	RECOG_TARGET	n/a	LTP079	ltpFR	6	2	0	DRILL	497	1	5	0	n/a	n/a	n/a	n/a	n/a
2953050	RECOG_RESP	n/a	LTP079	ltpFR	6	2	0	DRILL	497	1	n/a	0	n/a	n/a	n/a	n/a	n/a
2954307	RECOG_CONF	n/a	LTP079	ltpFR	6	2	0	DRILL	497	n/a	5	0	n/a	n/a	n/a	n/a	n/a
2956010	RECOG_TARGET	n/a	LTP079	ltpFR	6	2	1	MISSILE	900	1	5	0	n/a	n/a	n/a	n/a	n/a
2956742	RECOG_RESP	n/a	LTP079	ltpFR	6	2	1	MISSILE	900	1	n/a	0	n/a	n/a	n/a	n/a	n/a
2958049	RECOG_CONF	n/a	LTP079	ltpFR	6	2	1	MISSILE	900	n/a	5	0	n/a	n/a	n/a	n/a	n/a
2959770	RECOG_TARGET	n/a	LTP079	ltpFR	6	2	1	CONTRACTOR	369	1	5	1	n/a	n/a	n/a	n/a	n/a
2960423	RECOG_RESP	n/a	LTP079	ltpFR	6	2	1	CONTRACTOR	369	1	n/a	1	n/a	n/a	n/a	n/a	n/a
2961691	RECOG_CONF	n/a	LTP079	ltpFR	6	2	1	CONTRACTOR	369	n/a	5	1	n/a	n/a	n/a	n/a	n/a
2963402	RECOG_TARGET	n/a	LTP079	ltpFR	6	2	0	STUDENT	1395	0	3	1	n/a	n/a	n/a	n/a	n/a
2965721	RECOG_RESP	n/a	LTP079	ltpFR	6	2	0	STUDENT	1395	0	n/a	1	n/a	n/a	n/a	n/a	n/a
2967128	RECOG_CONF	n/a	LTP079	ltpFR	6	2	0	STUDENT	1395	n/a	3	1	n/a	n/a	n/a	n/a	n/a
2968993	RECOG_LURE	n/a	LTP079	ltpFR	6	2	n/a	CONVENT	370	0	4	n/a	n/a	n/a	n/a	n/a	n/a
2970066	RECOG_RESP	n/a	LTP079	ltpFR	6	2	n/a	CONVENT	370	0	n/a	n/a	n/a	n/a	n/a	n/a	n/a
2971309	RECOG_CONF	n/a	LTP079	ltpFR	6	2	n/a	CONVENT	370	n/a	4	n/a	n/a	n/a	n/a	n/a	n/a
2973059	RECOG_TARGET	n/a	LTP079	ltpFR	6	2	-1	PATH	1023	1	5	-1	n/a	n/a	n/a	n/a	n/a
2973713	RECOG_RESP	n/a	LTP079	ltpFR	6	2	-1	PATH	1023	1	n/a	-1	n/a	n/a	n/a	n/a	n/a
2974960	RECOG_CONF	n/a	LTP079	ltpFR	6	2	-1	PATH	1023	n/a	5	-1	n/a	n/a	n/a	n/a	n/a
2980082	REC_START	n/a	LTP079	ltpFR	6	3	n/a	n/a	n/a	n/a	n/a	n/a	n/a	n/a	n/a	n/a	n/a
2980117	RECOG_LURE	n/a	LTP079	ltpFR	6	3	n/a	BARREL	91	0	4	n/a	n/a	n/a	n/a	n/a	n/a
2980945	RECOG_RESP	n/a	LTP079	ltpFR	6	3	n/a	BARREL	91	0	n/a	n/a	n/a	n/a	n/a	n/a	n/a
2982322	RECOG_CONF	n/a	LTP079	ltpFR	6	3	n/a	BARREL	91	n/a	4	n/a	n/a	n/a	n/a	n/a	n/a
2984067	RECOG_TARGET	n/a	LTP079	ltpFR	6	3	1	SHRIMP	1297	1	5	1	n/a	n/a	n/a	n/a	n/a
2984706	RECOG_RESP	n/a	LTP079	ltpFR	6	3	1	SHRIMP	1297	1	n/a	1	n/a	n/a	n/a	n/a	n/a
2985953	RECOG_CONF	n/a	LTP079	ltpFR	6	3	1	SHRIMP	1297	n/a	5	1	n/a	n/a	n/a	n/a	n/a
2987659	RECOG_TARGET	n/a	LTP079	ltpFR	6	3	0	GUARDIAN	668	1	5	1	n/a	n/a	n/a	n/a	n/a
2988288	RECOG_RESP	n/a	LTP079	ltpFR	6	3	0	GUARDIAN	668	1	n/a	1	n/a	n/a	n/a	n/a	n/a
2989675	RECOG_CONF	n/a	LTP079	ltpFR	6	3	0	GUARDIAN	668	n/a	5	1	n/a	n/a	n/a	n/a	n/a
2991391	RECOG_TARGET	n/a	LTP079	ltpFR	6	3	-1	SALMON	1227	1	5	-1	n/a	n/a	n/a	n/a	n/a
2992070	RECOG_RESP	n/a	LTP079	ltpFR	6	3	-1	SALMON	1227	1	n/a	-1	n/a	n/a	n/a	n/a	n/a
2993367	RECOG_CONF	n/a	LTP079	ltpFR	6	3	-1	SALMON	1227	n/a	5	-1	n/a	n/a	n/a	n/a	n/a
2995291	RECOG_TARGET	n/a	LTP079	ltpFR	6	3	0	CUE	422	1	5	0	n/a	n/a	n/a	n/a	n/a
2995941	RECOG_RESP	n/a	LTP079	ltpFR	6	3	0	CUE	422	1	n/a	0	n/a	n/a	n/a	n/a	n/a
2997278	RECOG_CONF	n/a	LTP079	ltpFR	6	3	0	CUE	422	n/a	5	0	n/a	n/a	n/a	n/a	n/a
2998924	RECOG_LURE	n/a	LTP079	ltpFR	6	3	n/a	FILM	565	0	5	n/a	n/a	n/a	n/a	n/a	n/a
2999722	RECOG_RESP	n/a	LTP079	ltpFR	6	3	n/a	FILM	565	0	n/a	n/a	n/a	n/a	n/a	n/a	n/a
3000959	RECOG_CONF	n/a	LTP079	ltpFR	6	3	n/a	FILM	565	n/a	5	n/a	n/a	n/a	n/a	n/a	n/a
3002815	RECOG_TARGET	n/a	LTP079	ltpFR	6	3	0	JEEP	753	1	5	1	n/a	n/a	n/a	n/a	n/a
3003414	RECOG_RESP	n/a	LTP079	ltpFR	6	3	0	JEEP	753	1	n/a	1	n/a	n/a	n/a	n/a	n/a
3004751	RECOG_CONF	n/a	LTP079	ltpFR	6	3	0	JEEP	753	n/a	5	1	n/a	n/a	n/a	n/a	n/a
3006357	RECOG_TARGET	n/a	LTP079	ltpFR	6	3	0	WHEEL	1603	1	5	0	n/a	n/a	n/a	n/a	n/a
3007175	RECOG_RESP	n/a	LTP079	ltpFR	6	3	0	WHEEL	1603	1	n/a	0	n/a	n/a	n/a	n/a	n/a
3008333	RECOG_CONF	n/a	LTP079	ltpFR	6	3	0	WHEEL	1603	n/a	5	0	n/a	n/a	n/a	n/a	n/a
3010056	RECOG_TARGET	n/a	LTP079	ltpFR	6	3	1	NAIL	936	1	4	0	n/a	n/a	n/a	n/a	n/a
3010907	RECOG_RESP	n/a	LTP079	ltpFR	6	3	1	NAIL	936	1	n/a	0	n/a	n/a	n/a	n/a	n/a
3012044	RECOG_CONF	n/a	LTP079	ltpFR	6	3	1	NAIL	936	n/a	4	0	n/a	n/a	n/a	n/a	n/a
3013757	RECOG_TARGET	n/a	LTP079	ltpFR	6	3	1	MAT	877	1	5	0	n/a	n/a	n/a	n/a	n/a
3014349	RECOG_RESP	n/a	LTP079	ltpFR	6	3	1	MAT	877	1	n/a	0	n/a	n/a	n/a	n/a	n/a
3015666	RECOG_CONF	n/a	LTP079	ltpFR	6	3	1	MAT	877	n/a	5	0	n/a	n/a	n/a	n/a	n/a
3017248	RECOG_TARGET	n/a	LTP079	ltpFR	6	3	-1	PARROT	1015	1	4	-1	n/a	n/a	n/a	n/a	n/a
3018090	RECOG_RESP	n/a	LTP079	ltpFR	6	3	-1	PARROT	1015	1	n/a	-1	n/a	n/a	n/a	n/a	n/a
3019358	RECOG_CONF	n/a	LTP079	ltpFR	6	3	-1	PARROT	1015	n/a	4	-1	n/a	n/a	n/a	n/a	n/a
3020922	RECOG_TARGET	n/a	LTP079	ltpFR	6	3	-1	VOLLEYBALL	1576	1	4	-1	n/a	n/a	n/a	n/a	n/a
3021632	RECOG_RESP	n/a	LTP079	ltpFR	6	3	-1	VOLLEYBALL	1576	1	n/a	-1	n/a	n/a	n/a	n/a	n/a
3022919	RECOG_CONF	n/a	LTP079	ltpFR	6	3	-1	VOLLEYBALL	1576	n/a	4	-1	n/a	n/a	n/a	n/a	n/a
3024748	RECOG_TARGET	n/a	LTP079	ltpFR	6	3	1	MUSEUM	933	1	5	0	n/a	n/a	n/a	n/a	n/a
3025374	RECOG_RESP	n/a	LTP079	ltpFR	6	3	1	MUSEUM	933	1	n/a	0	n/a	n/a	n/a	n/a	n/a
3026601	RECOG_CONF	n/a	LTP079	ltpFR	6	3	1	MUSEUM	933	n/a	5	0	n/a	n/a	n/a	n/a	n/a
3028388	RECOG_LURE	n/a	LTP079	ltpFR	6	3	n/a	ASTEROID	50	0	4	n/a	n/a	n/a	n/a	n/a	n/a
3029235	RECOG_RESP	n/a	LTP079	ltpFR	6	3	n/a	ASTEROID	50	0	n/a	n/a	n/a	n/a	n/a	n/a	n/a
3030442	RECOG_CONF	n/a	LTP079	ltpFR	6	3	n/a	ASTEROID	50	n/a	4	n/a	n/a	n/a	n/a	n/a	n/a
3032296	RECOG_TARGET	n/a	LTP079	ltpFR	6	3	1	MOTOR	922	1	5	0	n/a	n/a	n/a	n/a	n/a
3033017	RECOG_RESP	n/a	LTP079	ltpFR	6	3	1	MOTOR	922	1	n/a	0	n/a	n/a	n/a	n/a	n/a
3034234	RECOG_CONF	n/a	LTP079	ltpFR	6	3	1	MOTOR	922	n/a	5	0	n/a	n/a	n/a	n/a	n/a
3035971	RECOG_LURE	n/a	LTP079	ltpFR	6	3	n/a	TOAD	1470	0	4	n/a	n/a	n/a	n/a	n/a	n/a
3036748	RECOG_RESP	n/a	LTP079	ltpFR	6	3	n/a	TOAD	1470	0	n/a	n/a	n/a	n/a	n/a	n/a	n/a
3037905	RECOG_CONF	n/a	LTP079	ltpFR	6	3	n/a	TOAD	1470	n/a	4	n/a	n/a	n/a	n/a	n/a	n/a
3039680	RECOG_TARGET	n/a	LTP079	ltpFR	6	3	-1	GUITAR	670	1	5	-1	n/a	n/a	n/a	n/a	n/a
3040360	RECOG_RESP	n/a	LTP079	ltpFR	6	3	-1	GUITAR	670	1	n/a	-1	n/a	n/a	n/a	n/a	n/a
3041597	RECOG_CONF	n/a	LTP079	ltpFR	6	3	-1	GUITAR	670	n/a	5	-1	n/a	n/a	n/a	n/a	n/a
3043396	RECOG_TARGET	n/a	LTP079	ltpFR	6	3	0	ROCK	1201	1	4	0	n/a	n/a	n/a	n/a	n/a
3045119	RECOG_RESP	n/a	LTP079	ltpFR	6	3	0	ROCK	1201	1	n/a	0	n/a	n/a	n/a	n/a	n/a
3046486	RECOG_CONF	n/a	LTP079	ltpFR	6	3	0	ROCK	1201	n/a	4	0	n/a	n/a	n/a	n/a	n/a
3048228	RECOG_TARGET	n/a	LTP079	ltpFR	6	3	-1	ROOSTER	1209	1	5	-1	n/a	n/a	n/a	n/a	n/a
3048960	RECOG_RESP	n/a	LTP079	ltpFR	6	3	-1	ROOSTER	1209	1	n/a	-1	n/a	n/a	n/a	n/a	n/a
3050367	RECOG_CONF	n/a	LTP079	ltpFR	6	3	-1	ROOSTER	1209	n/a	5	-1	n/a	n/a	n/a	n/a	n/a
3051995	RECOG_TARGET	n/a	LTP079	ltpFR	6	3	1	HALL	677	1	4	0	n/a	n/a	n/a	n/a	n/a
3053111	RECOG_RESP	n/a	LTP079	ltpFR	6	3	1	HALL	677	1	n/a	0	n/a	n/a	n/a	n/a	n/a
3054298	RECOG_CONF	n/a	LTP079	ltpFR	6	3	1	HALL	677	n/a	4	0	n/a	n/a	n/a	n/a	n/a
3058038	REC_START	n/a	LTP079	ltpFR	6	4	n/a	n/a	n/a	n/a	n/a	n/a	n/a	n/a	n/a	n/a	n/a
3058069	RECOG_TARGET	n/a	LTP079	ltpFR	6	4	0	BUGGY	188	1	5	1	n/a	n/a	n/a	n/a	n/a
3058761	RECOG_RESP	n/a	LTP079	ltpFR	6	4	0	BUGGY	188	1	n/a	1	n/a	n/a	n/a	n/a	n/a
3060058	RECOG_CONF	n/a	LTP079	ltpFR	6	4	0	BUGGY	188	n/a	5	1	n/a	n/a	n/a	n/a	n/a
3061770	RECOG_TARGET	n/a	LTP079	ltpFR	6	4	0	HAMBURGER	679	1	5	0	n/a	n/a	n/a	n/a	n/a
3062373	RECOG_RESP	n/a	LTP079	ltpFR	6	4	0	HAMBURGER	679	1	n/a	0	n/a	n/a	n/a	n/a	n/a
3063630	RECOG_CONF	n/a	LTP079	ltpFR	6	4	0	HAMBURGER	679	n/a	5	0	n/a	n/a	n/a	n/a	n/a
3065194	RECOG_TARGET	n/a	LTP079	ltpFR	6	4	-1	PUPIL	1143	1	5	-1	n/a	n/a	n/a	n/a	n/a
3065830	RECOG_RESP	n/a	LTP079	ltpFR	6	4	-1	PUPIL	1143	1	n/a	-1	n/a	n/a	n/a	n/a	n/a
3067062	RECOG_CONF	n/a	LTP079	ltpFR	6	4	-1	PUPIL	1143	n/a	5	-1	n/a	n/a	n/a	n/a	n/a
3068753	RECOG_LURE	n/a	LTP079	ltpFR	6	4	n/a	ROBE	1198	0	4	n/a	n/a	n/a	n/a	n/a	n/a
3069502	RECOG_RESP	n/a	LTP079	ltpFR	6	4	n/a	ROBE	1198	0	n/a	n/a	n/a	n/a	n/a	n/a	n/a
3070724	RECOG_CONF	n/a	LTP079	ltpFR	6	4	n/a	ROBE	1198	n/a	4	n/a	n/a	n/a	n/a	n/a	n/a
3072518	RECOG_LURE	n/a	LTP079	ltpFR	6	4	n/a	SHERIFF	1284	0	4	n/a	n/a	n/a	n/a	n/a	n/a
3073318	RECOG_RESP	n/a	LTP079	ltpFR	6	4	n/a	SHERIFF	1284	0	n/a	n/a	n/a	n/a	n/a	n/a	n/a
3074475	RECOG_CONF	n/a	LTP079	ltpFR	6	4	n/a	SHERIFF	1284	n/a	4	n/a	n/a	n/a	n/a	n/a	n/a
3076285	RECOG_TARGET	n/a	LTP079	ltpFR	6	4	0	EXPERT	543	1	5	1	n/a	n/a	n/a	n/a	n/a
3076960	RECOG_RESP	n/a	LTP079	ltpFR	6	4	0	EXPERT	543	1	n/a	1	n/a	n/a	n/a	n/a	n/a
3078257	RECOG_CONF	n/a	LTP079	ltpFR	6	4	0	EXPERT	543	n/a	5	1	n/a	n/a	n/a	n/a	n/a
3079959	RECOG_TARGET	n/a	LTP079	ltpFR	6	4	1	SERVER	1272	1	5	1	n/a	n/a	n/a	n/a	n/a
3080711	RECOG_RESP	n/a	LTP079	ltpFR	6	4	1	SERVER	1272	1	n/a	1	n/a	n/a	n/a	n/a	n/a
3081909	RECOG_CONF	n/a	LTP079	ltpFR	6	4	1	SERVER	1272	n/a	5	1	n/a	n/a	n/a	n/a	n/a
3083668	RECOG_LURE	n/a	LTP079	ltpFR	6	4	n/a	HEAD	695	0	5	n/a	n/a	n/a	n/a	n/a	n/a
3084413	RECOG_RESP	n/a	LTP079	ltpFR	6	4	n/a	HEAD	695	0	n/a	n/a	n/a	n/a	n/a	n/a	n/a
3085620	RECOG_CONF	n/a	LTP079	ltpFR	6	4	n/a	HEAD	695	n/a	5	n/a	n/a	n/a	n/a	n/a	n/a
3087334	RECOG_TARGET	n/a	LTP079	ltpFR	6	4	1	WELL	1600	1	5	0	n/a	n/a	n/a	n/a	n/a
3087925	RECOG_RESP	n/a	LTP079	ltpFR	6	4	1	WELL	1600	1	n/a	0	n/a	n/a	n/a	n/a	n/a
3089272	RECOG_CONF	n/a	LTP079	ltpFR	6	4	1	WELL	1600	n/a	5	0	n/a	n/a	n/a	n/a	n/a
3091009	RECOG_TARGET	n/a	LTP079	ltpFR	6	4	1	TRACTOR	1493	1	4	0	n/a	n/a	n/a	n/a	n/a
3091886	RECOG_RESP	n/a	LTP079	ltpFR	6	4	1	TRACTOR	1493	1	n/a	0	n/a	n/a	n/a	n/a	n/a
3093163	RECOG_CONF	n/a	LTP079	ltpFR	6	4	1	TRACTOR	1493	n/a	4	0	n/a	n/a	n/a	n/a	n/a
3094768	RECOG_LURE	n/a	LTP079	ltpFR	6	4	n/a	PLAID	1080	0	4	n/a	n/a	n/a	n/a	n/a	n/a
3095677	RECOG_RESP	n/a	LTP079	ltpFR	6	4	n/a	PLAID	1080	0	n/a	n/a	n/a	n/a	n/a	n/a	n/a
3096904	RECOG_CONF	n/a	LTP079	ltpFR	6	4	n/a	PLAID	1080	n/a	4	n/a	n/a	n/a	n/a	n/a	n/a
3098667	RECOG_LURE	n/a	LTP079	ltpFR	6	4	n/a	GAUZE	626	0	4	n/a	n/a	n/a	n/a	n/a	n/a
3099364	RECOG_RESP	n/a	LTP079	ltpFR	6	4	n/a	GAUZE	626	0	n/a	n/a	n/a	n/a	n/a	n/a	n/a
3100656	RECOG_CONF	n/a	LTP079	ltpFR	6	4	n/a	GAUZE	626	n/a	4	n/a	n/a	n/a	n/a	n/a	n/a
3102483	RECOG_LURE	n/a	LTP079	ltpFR	6	4	n/a	MONKEY	911	0	4	n/a	n/a	n/a	n/a	n/a	n/a
3103160	RECOG_RESP	n/a	LTP079	ltpFR	6	4	n/a	MONKEY	911	0	n/a	n/a	n/a	n/a	n/a	n/a	n/a
3104387	RECOG_CONF	n/a	LTP079	ltpFR	6	4	n/a	MONKEY	911	n/a	4	n/a	n/a	n/a	n/a	n/a	n/a
3106082	RECOG_TARGET	n/a	LTP079	ltpFR	6	4	0	TWIN	1528	1	5	1	n/a	n/a	n/a	n/a	n/a
3106712	RECOG_RESP	n/a	LTP079	ltpFR	6	4	0	TWIN	1528	1	n/a	1	n/a	n/a	n/a	n/a	n/a
3107999	RECOG_CONF	n/a	LTP079	ltpFR	6	4	0	TWIN	1528	n/a	5	1	n/a	n/a	n/a	n/a	n/a
3109767	RECOG_TARGET	n/a	LTP079	ltpFR	6	4	0	ICEBERG	731	1	5	1	n/a	n/a	n/a	n/a	n/a
3110434	RECOG_RESP	n/a	LTP079	ltpFR	6	4	0	ICEBERG	731	1	n/a	1	n/a	n/a	n/a	n/a	n/a
3111591	RECOG_CONF	n/a	LTP079	ltpFR	6	4	0	ICEBERG	731	n/a	5	1	n/a	n/a	n/a	n/a	n/a
3113349	RECOG_TARGET	n/a	LTP079	ltpFR	6	4	0	KING	777	1	5	1	n/a	n/a	n/a	n/a	n/a
3114385	RECOG_RESP	n/a	LTP079	ltpFR	6	4	0	KING	777	1	n/a	1	n/a	n/a	n/a	n/a	n/a
3115552	RECOG_CONF	n/a	LTP079	ltpFR	6	4	0	KING	777	n/a	5	1	n/a	n/a	n/a	n/a	n/a
3117232	RECOG_TARGET	n/a	LTP079	ltpFR	6	4	1	BOAT	144	1	5	0	n/a	n/a	n/a	n/a	n/a
3118106	RECOG_RESP	n/a	LTP079	ltpFR	6	4	1	BOAT	144	1	n/a	0	n/a	n/a	n/a	n/a	n/a
3119224	RECOG_CONF	n/a	LTP079	ltpFR	6	4	1	BOAT	144	n/a	5	0	n/a	n/a	n/a	n/a	n/a
3121006	RECOG_TARGET	n/a	LTP079	ltpFR	6	4	-1	GRAVE	658	1	5	-1	n/a	n/a	n/a	n/a	n/a
3121698	RECOG_RESP	n/a	LTP079	ltpFR	6	4	-1	GRAVE	658	1	n/a	-1	n/a	n/a	n/a	n/a	n/a
3123165	RECOG_CONF	n/a	LTP079	ltpFR	6	4	-1	GRAVE	658	n/a	5	-1	n/a	n/a	n/a	n/a	n/a
3124873	RECOG_TARGET	n/a	LTP079	ltpFR	6	4	1	NEST	945	1	4	0	n/a	n/a	n/a	n/a	n/a
3125679	RECOG_RESP	n/a	LTP079	ltpFR	6	4	1	NEST	945	1	n/a	0	n/a	n/a	n/a	n/a	n/a
3126886	RECOG_CONF	n/a	LTP079	ltpFR	6	4	1	NEST	945	n/a	4	0	n/a	n/a	n/a	n/a	n/a
3128615	RECOG_TARGET	n/a	LTP079	ltpFR	6	4	-1	CLAW	319	1	4	-1	n/a	n/a	n/a	n/a	n/a
3129276	RECOG_RESP	n/a	LTP079	ltpFR	6	4	-1	CLAW	319	1	n/a	-1	n/a	n/a	n/a	n/a	n/a
3130628	RECOG_CONF	n/a	LTP079	ltpFR	6	4	-1	CLAW	319	n/a	4	-1	n/a	n/a	n/a	n/a	n/a
3136276	REC_START	n/a	LTP079	ltpFR	6	5	n/a	n/a	n/a	n/a	n/a	n/a	n/a	n/a	n/a	n/a	n/a
3136314	RECOG_LURE	n/a	LTP079	ltpFR	6	5	n/a	SINK	1309	0	4	n/a	n/a	n/a	n/a	n/a	n/a
3137987	RECOG_RESP	n/a	LTP079	ltpFR	6	5	n/a	SINK	1309	0	n/a	n/a	n/a	n/a	n/a	n/a	n/a
3139154	RECOG_CONF	n/a	LTP079	ltpFR	6	5	n/a	SINK	1309	n/a	4	n/a	n/a	n/a	n/a	n/a	n/a
3141046	RECOG_TARGET	n/a	LTP079	ltpFR	6	5	1	SWAMP	1416	1	5	0	n/a	n/a	n/a	n/a	n/a
3141728	RECOG_RESP	n/a	LTP079	ltpFR	6	5	1	SWAMP	1416	1	n/a	0	n/a	n/a	n/a	n/a	n/a
3142886	RECOG_CONF	n/a	LTP079	ltpFR	6	5	1	SWAMP	1416	n/a	5	0	n/a	n/a	n/a	n/a	n/a
3144656	RECOG_LURE	n/a	LTP079	ltpFR	6	5	n/a	SISTER	1312	0	4	n/a	n/a	n/a	n/a	n/a	n/a
3145610	RECOG_RESP	n/a	LTP079	ltpFR	6	5	n/a	SISTER	1312	0	n/a	n/a	n/a	n/a	n/a	n/a	n/a
3146897	RECOG_CONF	n/a	LTP079	ltpFR	6	5	n/a	SISTER	1312	n/a	4	n/a	n/a	n/a	n/a	n/a	n/a
3148680	RECOG_TARGET	n/a	LTP079	ltpFR	6	5	0	MOSS	918	1	5	0	n/a	n/a	n/a	n/a	n/a
3149331	RECOG_RESP	n/a	LTP079	ltpFR	6	5	0	MOSS	918	1	n/a	0	n/a	n/a	n/a	n/a	n/a
3150538	RECOG_CONF	n/a	LTP079	ltpFR	6	5	0	MOSS	918	n/a	5	0	n/a	n/a	n/a	n/a	n/a
3152321	RECOG_TARGET	n/a	LTP079	ltpFR	6	5	1	BONE	148	1	5	1	n/a	n/a	n/a	n/a	n/a
3153222	RECOG_RESP	n/a	LTP079	ltpFR	6	5	1	BONE	148	1	n/a	1	n/a	n/a	n/a	n/a	n/a
3154489	RECOG_CONF	n/a	LTP079	ltpFR	6	5	1	BONE	148	n/a	5	1	n/a	n/a	n/a	n/a	n/a
3156237	RECOG_TARGET	n/a	LTP079	ltpFR	6	5	1	PUBLISHER	1137	1	5	1	n/a	n/a	n/a	n/a	n/a
3156994	RECOG_RESP	n/a	LTP079	ltpFR	6	5	1	PUBLISHER	1137	1	n/a	1	n/a	n/a	n/a	n/a	n/a
3158241	RECOG_CONF	n/a	LTP079	ltpFR	6	5	1	PUBLISHER	1137	n/a	5	1	n/a	n/a	n/a	n/a	n/a
3159945	RECOG_LURE	n/a	LTP079	ltpFR	6	5	n/a	NOTEBOOK	959	0	4	n/a	n/a	n/a	n/a	n/a	n/a
3160675	RECOG_RESP	n/a	LTP079	ltpFR	6	5	n/a	NOTEBOOK	959	0	n/a	n/a	n/a	n/a	n/a	n/a	n/a
3161863	RECOG_CONF	n/a	LTP079	ltpFR	6	5	n/a	NOTEBOOK	959	n/a	4	n/a	n/a	n/a	n/a	n/a	n/a
3163579	RECOG_TARGET	n/a	LTP079	ltpFR	6	5	0	FOX	598	1	5	1	n/a	n/a	n/a	n/a	n/a
3164307	RECOG_RESP	n/a	LTP079	ltpFR	6	5	0	FOX	598	1	n/a	1	n/a	n/a	n/a	n/a	n/a
3165484	RECOG_CONF	n/a	LTP079	ltpFR	6	5	0	FOX	598	n/a	5	1	n/a	n/a	n/a	n/a	n/a
3167120	RECOG_TARGET	n/a	LTP079	ltpFR	6	5	1	STRAWBERRY	1391	1	5	1	n/a	n/a	n/a	n/a	n/a
3167799	RECOG_RESP	n/a	LTP079	ltpFR	6	5	1	STRAWBERRY	1391	1	n/a	1	n/a	n/a	n/a	n/a	n/a
3168947	RECOG_CONF	n/a	LTP079	ltpFR	6	5	1	STRAWBERRY	1391	n/a	5	1	n/a	n/a	n/a	n/a	n/a
3170704	RECOG_TARGET	n/a	LTP079	ltpFR	6	5	0	VISITOR	1573	1	5	1	n/a	n/a	n/a	n/a	n/a
3171321	RECOG_RESP	n/a	LTP079	ltpFR	6	5	0	VISITOR	1573	1	n/a	1	n/a	n/a	n/a	n/a	n/a
3172658	RECOG_CONF	n/a	LTP079	ltpFR	6	5	0	VISITOR	1573	n/a	5	1	n/a	n/a	n/a	n/a	n/a
3174377	RECOG_TARGET	n/a	LTP079	ltpFR	6	5	1	BOULDER	155	1	5	0	n/a	n/a	n/a	n/a	n/a
3175053	RECOG_RESP	n/a	LTP079	ltpFR	6	5	1	BOULDER	155	1	n/a	0	n/a	n/a	n/a	n/a	n/a
3176210	RECOG_CONF	n/a	LTP079	ltpFR	6	5	1	BOULDER	155	n/a	5	0	n/a	n/a	n/a	n/a	n/a
3177969	RECOG_TARGET	n/a	LTP079	ltpFR	6	5	0	FAMILY	550	1	5	1	n/a	n/a	n/a	n/a	n/a
3178615	RECOG_RESP	n/a	LTP079	ltpFR	6	5	0	FAMILY	550	1	n/a	1	n/a	n/a	n/a	n/a	n/a
3179802	RECOG_CONF	n/a	LTP079	ltpFR	6	5	0	FAMILY	550	n/a	5	1	n/a	n/a	n/a	n/a	n/a
3181469	RECOG_TARGET	n/a	LTP079	ltpFR	6	5	1	BUS	201	1	4	0	n/a	n/a	n/a	n/a	n/a
3182097	RECOG_RESP	n/a	LTP079	ltpFR	6	5	1	BUS	201	1	n/a	0	n/a	n/a	n/a	n/a	n/a
3183224	RECOG_CONF	n/a	LTP079	ltpFR	6	5	1	BUS	201	n/a	4	0	n/a	n/a	n/a	n/a	n/a
3184977	RECOG_LURE	n/a	LTP079	ltpFR	6	5	n/a	LANDSCAPE	799	0	4	n/a	n/a	n/a	n/a	n/a	n/a
3185938	RECOG_RESP	n/a	LTP079	ltpFR	6	5	n/a	LANDSCAPE	799	0	n/a	n/a	n/a	n/a	n/a	n/a	n/a
3187175	RECOG_CONF	n/a	LTP079	ltpFR	6	5	n/a	LANDSCAPE	799	n/a	4	n/a	n/a	n/a	n/a	n/a	n/a
3188910	RECOG_TARGET	n/a	LTP079	ltpFR	6	5	0	STRING	1394	1	5	0	n/a	n/a	n/a	n/a	n/a
3189545	RECOG_RESP	n/a	LTP079	ltpFR	6	5	0	STRING	1394	1	n/a	0	n/a	n/a	n/a	n/a	n/a
3190837	RECOG_CONF	n/a	LTP079	ltpFR	6	5	0	STRING	1394	n/a	5	0	n/a	n/a	n/a	n/a	n/a
3192434	RECOG_TARGET	n/a	LTP079	ltpFR	6	5	1	COD	340	1	5	1	n/a	n/a	n/a	n/a	n/a
3193122	RECOG_RESP	n/a	LTP079	ltpFR	6	5	1	COD	340	1	n/a	1	n/a	n/a	n/a	n/a	n/a
3194259	RECOG_CONF	n/a	LTP079	ltpFR	6	5	1	COD	340	n/a	5	1	n/a	n/a	n/a	n/a	n/a
3195959	RECOG_LURE	n/a	LTP079	ltpFR	6	5	n/a	WHIP	1604	0	4	n/a	n/a	n/a	n/a	n/a	n/a
3196773	RECOG_RESP	n/a	LTP079	ltpFR	6	5	n/a	WHIP	1604	0	n/a	n/a	n/a	n/a	n/a	n/a	n/a
3197951	RECOG_CONF	n/a	LTP079	ltpFR	6	5	n/a	WHIP	1604	n/a	4	n/a	n/a	n/a	n/a	n/a	n/a
3199618	RECOG_TARGET	n/a	LTP079	ltpFR	6	5	1	FARM	552	1	5	0	n/a	n/a	n/a	n/a	n/a
3200225	RECOG_RESP	n/a	LTP079	ltpFR	6	5	1	FARM	552	1	n/a	0	n/a	n/a	n/a	n/a	n/a
3201523	RECOG_CONF	n/a	LTP079	ltpFR	6	5	1	FARM	552	n/a	5	0	n/a	n/a	n/a	n/a	n/a
3203242	RECOG_TARGET	n/a	LTP079	ltpFR	6	5	1	GLASSES	640	1	5	0	n/a	n/a	n/a	n/a	n/a
3203897	RECOG_RESP	n/a	LTP079	ltpFR	6	5	1	GLASSES	640	1	n/a	0	n/a	n/a	n/a	n/a	n/a
3205214	RECOG_CONF	n/a	LTP079	ltpFR	6	5	1	GLASSES	640	n/a	5	0	n/a	n/a	n/a	n/a	n/a
3206825	RECOG_TARGET	n/a	LTP079	ltpFR	6	5	1	TUB	1514	1	5	0	n/a	n/a	n/a	n/a	n/a
3207454	RECOG_RESP	n/a	LTP079	ltpFR	6	5	1	TUB	1514	1	n/a	0	n/a	n/a	n/a	n/a	n/a
3208636	RECOG_CONF	n/a	LTP079	ltpFR	6	5	1	TUB	1514	n/a	5	0	n/a	n/a	n/a	n/a	n/a
3213441	REC_START	n/a	LTP079	ltpFR	6	6	n/a	n/a	n/a	n/a	n/a	n/a	n/a	n/a	n/a	n/a	n/a
3213474	RECOG_TARGET	n/a	LTP079	ltpFR	6	6	-1	STATUE	1374	1	5	-1	n/a	n/a	n/a	n/a	n/a
3214254	RECOG_RESP	n/a	LTP079	ltpFR	6	6	-1	STATUE	1374	1	n/a	-1	n/a	n/a	n/a	n/a	n/a
3215491	RECOG_CONF	n/a	LTP079	ltpFR	6	6	-1	STATUE	1374	n/a	5	-1	n/a	n/a	n/a	n/a	n/a
3217207	RECOG_TARGET	n/a	LTP079	ltpFR	6	6	1	BUTTERFLY	206	1	5	1	n/a	n/a	n/a	n/a	n/a
3217836	RECOG_RESP	n/a	LTP079	ltpFR	6	6	1	BUTTERFLY	206	1	n/a	1	n/a	n/a	n/a	n/a	n/a
3219073	RECOG_CONF	n/a	LTP079	ltpFR	6	6	1	BUTTERFLY	206	n/a	5	1	n/a	n/a	n/a	n/a	n/a
3220874	RECOG_TARGET	n/a	LTP079	ltpFR	6	6	0	TEACHER	1440	1	3	1	n/a	n/a	n/a	n/a	n/a
3222376	RECOG_RESP	n/a	LTP079	ltpFR	6	6	0	TEACHER	1440	1	n/a	1	n/a	n/a	n/a	n/a	n/a
3223732	RECOG_CONF	n/a	LTP079	ltpFR	6	6	0	TEACHER	1440	n/a	3	1	n/a	n/a	n/a	n/a	n/a
3225423	RECOG_TARGET	n/a	LTP079	ltpFR	6	6	1	COACH	331	1	5	1	n/a	n/a	n/a	n/a	n/a
3226017	RECOG_RESP	n/a	LTP079	ltpFR	6	6	1	COACH	331	1	n/a	1	n/a	n/a	n/a	n/a	n/a
3227195	RECOG_CONF	n/a	LTP079	ltpFR	6	6	1	COACH	331	n/a	5	1	n/a	n/a	n/a	n/a	n/a
3228823	RECOG_LURE	n/a	LTP079	ltpFR	6	6	n/a	CUB	419	0	4	n/a	n/a	n/a	n/a	n/a	n/a
3229918	RECOG_RESP	n/a	LTP079	ltpFR	6	6	n/a	CUB	419	0	n/a	n/a	n/a	n/a	n/a	n/a	n/a
3231305	RECOG_CONF	n/a	LTP079	ltpFR	6	6	n/a	CUB	419	n/a	4	n/a	n/a	n/a	n/a	n/a	n/a
3232948	RECOG_LURE	n/a	LTP079	ltpFR	6	6	n/a	TURNIP	1521	0	4	n/a	n/a	n/a	n/a	n/a	n/a
3234278	RECOG_RESP	n/a	LTP079	ltpFR	6	6	n/a	TURNIP	1521	0	n/a	n/a	n/a	n/a	n/a	n/a	n/a
3235685	RECOG_CONF	n/a	LTP079	ltpFR	6	6	n/a	TURNIP	1521	n/a	4	n/a	n/a	n/a	n/a	n/a	n/a
3237298	RECOG_TARGET	n/a	LTP079	ltpFR	6	6	0	CONE	363	1	5	0	n/a	n/a	n/a	n/a	n/a
3237950	RECOG_RESP	n/a	LTP079	ltpFR	6	6	0	CONE	363	1	n/a	0	n/a	n/a	n/a	n/a	n/a
3239207	RECOG_CONF	n/a	LTP079	ltpFR	6	6	0	CONE	363	n/a	5	0	n/a	n/a	n/a	n/a	n/a
3240964	RECOG_TARGET	n/a	LTP079	ltpFR	6	6	0	STADIUM	1364	1	5	1	n/a	n/a	n/a	n/a	n/a
3241552	RECOG_RESP	n/a	LTP079	ltpFR	6	6	0	STADIUM	1364	1	n/a	1	n/a	n/a	n/a	n/a	n/a
3242639	RECOG_CONF	n/a	LTP079	ltpFR	6	6	0	STADIUM	1364	n/a	5	1	n/a	n/a	n/a	n/a	n/a
3244372	RECOG_TARGET	n/a	LTP079	ltpFR	6	6	1	BUG	187	1	3	1	n/a	n/a	n/a	n/a	n/a
3245478	RECOG_RESP	n/a	LTP079	ltpFR	6	6	1	BUG	187	1	n/a	1	n/a	n/a	n/a	n/a	n/a
3246930	RECOG_CONF	n/a	LTP079	ltpFR	6	6	1	BUG	187	n/a	3	1	n/a	n/a	n/a	n/a	n/a
3248573	RECOG_TARGET	n/a	LTP079	ltpFR	6	6	-1	DUNGEON	507	1	5	-1	n/a	n/a	n/a	n/a	n/a
3249165	RECOG_RESP	n/a	LTP079	ltpFR	6	6	-1	DUNGEON	507	1	n/a	-1	n/a	n/a	n/a	n/a	n/a
3250352	RECOG_CONF	n/a	LTP079	ltpFR	6	6	-1	DUNGEON	507	n/a	5	-1	n/a	n/a	n/a	n/a	n/a
3252038	RECOG_TARGET	n/a	LTP079	ltpFR	6	6	1	SNAIL	1332	1	5	1	n/a	n/a	n/a	n/a	n/a
3252796	RECOG_RESP	n/a	LTP079	ltpFR	6	6	1	SNAIL	1332	1	n/a	1	n/a	n/a	n/a	n/a	n/a
3253974	RECOG_CONF	n/a	LTP079	ltpFR	6	6	1	SNAIL	1332	n/a	5	1	n/a	n/a	n/a	n/a	n/a
3255606	RECOG_TARGET	n/a	LTP079	ltpFR	6	6	1	NIECE	952	1	5	1	n/a	n/a	n/a	n/a	n/a
3256278	RECOG_RESP	n/a	LTP079	ltpFR	6	6	1	NIECE	952	1	n/a	1	n/a	n/a	n/a	n/a	n/a
3257486	RECOG_CONF	n/a	LTP079	ltpFR	6	6	1	NIECE	952	n/a	5	1	n/a	n/a	n/a	n/a	n/a
3259271	RECOG_TARGET	n/a	LTP079	ltpFR	6	6	0	SHRUB	1299	1	5	0	n/a	n/a	n/a	n/a	n/a
3259990	RECOG_RESP	n/a	LTP079	ltpFR	6	6	0	SHRUB	1299	1	n/a	0	n/a	n/a	n/a	n/a	n/a
3261247	RECOG_CONF	n/a	LTP079	ltpFR	6	6	0	SHRUB	1299	n/a	5	0	n/a	n/a	n/a	n/a	n/a
3263046	RECOG_TARGET	n/a	LTP079	ltpFR	6	6	0	EMPEROR	529	1	5	1	n/a	n/a	n/a	n/a	n/a
3263622	RECOG_RESP	n/a	LTP079	ltpFR	6	6	0	EMPEROR	529	1	n/a	1	n/a	n/a	n/a	n/a	n/a
3264819	RECOG_CONF	n/a	LTP079	ltpFR	6	6	0	EMPEROR	529	n/a	5	1	n/a	n/a	n/a	n/a	n/a
3266621	RECOG_TARGET	n/a	LTP079	ltpFR	6	6	1	RAFT	1159	1	5	0	n/a	n/a	n/a	n/a	n/a
3267393	RECOG_RESP	n/a	LTP079	ltpFR	6	6	1	RAFT	1159	1	n/a	0	n/a	n/a	n/a	n/a	n/a
3268531	RECOG_CONF	n/a	LTP079	ltpFR	6	6	1	RAFT	1159	n/a	5	0	n/a	n/a	n/a	n/a	n/a
3270328	RECOG_TARGET	n/a	LTP079	ltpFR	6	6	-1	DINER	467	1	5	-1	n/a	n/a	n/a	n/a	n/a
3270935	RECOG_RESP	n/a	LTP079	ltpFR	6	6	-1	DINER	467	1	n/a	-1	n/a	n/a	n/a	n/a	n/a
3272073	RECOG_CONF	n/a	LTP079	ltpFR	6	6	-1	DINER	467	n/a	5	-1	n/a	n/a	n/a	n/a	n/a
3273878	RECOG_TARGET	n/a	LTP079	ltpFR	6	6	0	CAP	236	1	5	0	n/a	n/a	n/a	n/a	n/a
3274547	RECOG_RESP	n/a	LTP079	ltpFR	6	6	0	CAP	236	1	n/a	0	n/a	n/a	n/a	n/a	n/a
3275654	RECOG_CONF	n/a	LTP079	ltpFR	6	6	0	CAP	236	n/a	5	0	n/a	n/a	n/a	n/a	n/a
3277386	RECOG_TARGET	n/a	LTP079	ltpFR	6	6	1	TERMITE	1451	1	5	1	n/a	n/a	n/a	n/a	n/a
3278518	RECOG_RESP	n/a	LTP079	ltpFR	6	6	1	TERMITE	1451	1	n/a	1	n/a	n/a	n/a	n/a	n/a
3279615	RECOG_CONF	n/a	LTP079	ltpFR	6	6	1	TERMITE	1451	n/a	5	1	n/a	n/a	n/a	n/a	n/a
3281369	RECOG_TARGET	n/a	LTP079	ltpFR	6	6	1	CAMEL	223	1	5	1	n/a	n/a	n/a	n/a	n/a
3282050	RECOG_RESP	n/a	LTP079	ltpFR	6	6	1	CAMEL	223	1	n/a	1	n/a	n/a	n/a	n/a	n/a
3283197	RECOG_CONF	n/a	LTP079	ltpFR	6	6	1	CAMEL	223	n/a	5	1	n/a	n/a	n/a	n/a	n/a
3284877	RECOG_TARGET	n/a	LTP079	ltpFR	6	6	1	APPLICATION	34	1	5	0	n/a	n/a	n/a	n/a	n/a
3285682	RECOG_RESP	n/a	LTP079	ltpFR	6	6	1	APPLICATION	34	1	n/a	0	n/a	n/a	n/a	n/a	n/a
3286829	RECOG_CONF	n/a	LTP079	ltpFR	6	6	1	APPLICATION	34	n/a	5	0	n/a	n/a	n/a	n/a	n/a
3291069	REC_START	n/a	LTP079	ltpFR	6	7	n/a	n/a	n/a	n/a	n/a	n/a	n/a	n/a	n/a	n/a	n/a
3291102	RECOG_TARGET	n/a	LTP079	ltpFR	6	7	1	THIGH	1457	1	4	0	n/a	n/a	n/a	n/a	n/a
3292281	RECOG_RESP	n/a	LTP079	ltpFR	6	7	1	THIGH	1457	1	n/a	0	n/a	n/a	n/a	n/a	n/a
3293558	RECOG_CONF	n/a	LTP079	ltpFR	6	7	1	THIGH	1457	n/a	4	0	n/a	n/a	n/a	n/a	n/a
3295177	RECOG_TARGET	n/a	LTP079	ltpFR	6	7	0	COOK	372	1	4	0	n/a	n/a	n/a	n/a	n/a
3295923	RECOG_RESP	n/a	LTP079	ltpFR	6	7	0	COOK	372	1	n/a	0	n/a	n/a	n/a	n/a	n/a
3297080	RECOG_CONF	n/a	LTP079	ltpFR	6	7	0	COOK	372	n/a	4	0	n/a	n/a	n/a	n/a	n/a
3298843	RECOG_LURE	n/a	LTP079	ltpFR	6	7	n/a	HEATER	698	0	4	n/a	n/a	n/a	n/a	n/a	n/a
3299624	RECOG_RESP	n/a	LTP079	ltpFR	6	7	n/a	HEATER	698	0	n/a	n/a	n/a	n/a	n/a	n/a	n/a
3300941	RECOG_CONF	n/a	LTP079	ltpFR	6	7	n/a	HEATER	698	n/a	4	n/a	n/a	n/a	n/a	n/a	n/a
3302694	RECOG_TARGET	n/a	LTP079	ltpFR	6	7	0	TWIG	1527	1	5	0	n/a	n/a	n/a	n/a	n/a
3303416	RECOG_RESP	n/a	LTP079	ltpFR	6	7	0	TWIG	1527	1	n/a	0	n/a	n/a	n/a	n/a	n/a
3304563	RECOG_CONF	n/a	LTP079	ltpFR	6	7	0	TWIG	1527	n/a	5	0	n/a	n/a	n/a	n/a	n/a
3306251	RECOG_TARGET	n/a	LTP079	ltpFR	6	7	1	BLUEPRINT	142	1	5	0	n/a	n/a	n/a	n/a	n/a
3307018	RECOG_RESP	n/a	LTP079	ltpFR	6	7	1	BLUEPRINT	142	1	n/a	0	n/a	n/a	n/a	n/a	n/a
3308025	RECOG_CONF	n/a	LTP079	ltpFR	6	7	1	BLUEPRINT	142	n/a	5	0	n/a	n/a	n/a	n/a	n/a
3309776	RECOG_TARGET	n/a	LTP079	ltpFR	6	7	0	CHALK	276	1	5	0	n/a	n/a	n/a	n/a	n/a
3310380	RECOG_RESP	n/a	LTP079	ltpFR	6	7	0	CHALK	276	1	n/a	0	n/a	n/a	n/a	n/a	n/a
3311547	RECOG_CONF	n/a	LTP079	ltpFR	6	7	0	CHALK	276	n/a	5	0	n/a	n/a	n/a	n/a	n/a
3313192	RECOG_TARGET	n/a	LTP079	ltpFR	6	7	1	LIEUTENANT	818	1	5	1	n/a	n/a	n/a	n/a	n/a
3313822	RECOG_RESP	n/a	LTP079	ltpFR	6	7	1	LIEUTENANT	818	1	n/a	1	n/a	n/a	n/a	n/a	n/a
3314890	RECOG_CONF	n/a	LTP079	ltpFR	6	7	1	LIEUTENANT	818	n/a	5	1	n/a	n/a	n/a	n/a	n/a
3316543	RECOG_TARGET	n/a	LTP079	ltpFR	6	7	0	GLACIER	638	1	5	1	n/a	n/a	n/a	n/a	n/a
3317194	RECOG_RESP	n/a	LTP079	ltpFR	6	7	0	GLACIER	638	1	n/a	1	n/a	n/a	n/a	n/a	n/a
3318322	RECOG_CONF	n/a	LTP079	ltpFR	6	7	0	GLACIER	638	n/a	5	1	n/a	n/a	n/a	n/a	n/a
3320000	RECOG_TARGET	n/a	LTP079	ltpFR	6	7	0	BUFFALO	186	0	4	1	n/a	n/a	n/a	n/a	n/a
3320861	RECOG_RESP	n/a	LTP079	ltpFR	6	7	0	BUFFALO	186	0	n/a	1	n/a	n/a	n/a	n/a	n/a
3322133	RECOG_CONF	n/a	LTP079	ltpFR	6	7	0	BUFFALO	186	n/a	4	1	n/a	n/a	n/a	n/a	n/a
3323841	RECOG_TARGET	n/a	LTP079	ltpFR	6	7	1	LAWN	805	1	5	1	n/a	n/a	n/a	n/a	n/a
3324972	RECOG_RESP	n/a	LTP079	ltpFR	6	7	1	LAWN	805	1	n/a	1	n/a	n/a	n/a	n/a	n/a
3326304	RECOG_CONF	n/a	LTP079	ltpFR	6	7	1	LAWN	805	n/a	5	1	n/a	n/a	n/a	n/a	n/a
3327933	RECOG_TARGET	n/a	LTP079	ltpFR	6	7	0	TECHNICIAN	1443	1	5	1	n/a	n/a	n/a	n/a	n/a
3328559	RECOG_RESP	n/a	LTP079	ltpFR	6	7	0	TECHNICIAN	1443	1	n/a	1	n/a	n/a	n/a	n/a	n/a
3329676	RECOG_CONF	n/a	LTP079	ltpFR	6	7	0	TECHNICIAN	1443	n/a	5	1	n/a	n/a	n/a	n/a	n/a
3331432	RECOG_LURE	n/a	LTP079	ltpFR	6	7	n/a	HOSPITAL	721	0	4	n/a	n/a	n/a	n/a	n/a	n/a
3332170	RECOG_RESP	n/a	LTP079	ltpFR	6	7	n/a	HOSPITAL	721	0	n/a	n/a	n/a	n/a	n/a	n/a	n/a
3333338	RECOG_CONF	n/a	LTP079	ltpFR	6	7	n/a	HOSPITAL	721	n/a	4	n/a	n/a	n/a	n/a	n/a	n/a
3335099	RECOG_LURE	n/a	LTP079	ltpFR	6	7	n/a	CAFETERIA	217	0	4	n/a	n/a	n/a	n/a	n/a	n/a
3335822	RECOG_RESP	n/a	LTP079	ltpFR	6	7	n/a	CAFETERIA	217	0	n/a	n/a	n/a	n/a	n/a	n/a	n/a
3336900	RECOG_CONF	n/a	LTP079	ltpFR	6	7	n/a	CAFETERIA	217	n/a	4	n/a	n/a	n/a	n/a	n/a	n/a
3338649	RECOG_LURE	n/a	LTP079	ltpFR	6	7	n/a	STEAM	1375	0	4	n/a	n/a	n/a	n/a	n/a	n/a
3339424	RECOG_RESP	n/a	LTP079	ltpFR	6	7	n/a	STEAM	1375	0	n/a	n/a	n/a	n/a	n/a	n/a	n/a
3340581	RECOG_CONF	n/a	LTP079	ltpFR	6	7	n/a	STEAM	1375	n/a	4	n/a	n/a	n/a	n/a	n/a	n/a
3342340	RECOG_TARGET	n/a	LTP079	ltpFR	6	7	0	ROCKET	1202	1	4	1	n/a	n/a	n/a	n/a	n/a
3344792	RECOG_RESP	n/a	LTP079	ltpFR	6	7	0	ROCKET	1202	1	n/a	1	n/a	n/a	n/a	n/a	n/a
3345999	RECOG_CONF	n/a	LTP079	ltpFR	6	7	0	ROCKET	1202	n/a	4	1	n/a	n/a	n/a	n/a	n/a
3347814	RECOG_LURE	n/a	LTP079	ltpFR	6	7	n/a	SCOTCH	1251	0	4	n/a	n/a	n/a	n/a	n/a	n/a
3348693	RECOG_RESP	n/a	LTP079	ltpFR	6	7	n/a	SCOTCH	1251	0	n/a	n/a	n/a	n/a	n/a	n/a	n/a
3349820	RECOG_CONF	n/a	LTP079	ltpFR	6	7	n/a	SCOTCH	1251	n/a	4	n/a	n/a	n/a	n/a	n/a	n/a
3351532	RECOG_LURE	n/a	LTP079	ltpFR	6	7	n/a	BANDANNA	80	0	4	n/a	n/a	n/a	n/a	n/a	n/a
3352384	RECOG_RESP	n/a	LTP079	ltpFR	6	7	n/a	BANDANNA	80	0	n/a	n/a	n/a	n/a	n/a	n/a	n/a
3353721	RECOG_CONF	n/a	LTP079	ltpFR	6	7	n/a	BANDANNA	80	n/a	4	n/a	n/a	n/a	n/a	n/a	n/a
3355355	RECOG_TARGET	n/a	LTP079	ltpFR	6	7	0	COMMUNITY	356	1	5	1	n/a	n/a	n/a	n/a	n/a
3356056	RECOG_RESP	n/a	LTP079	ltpFR	6	7	0	COMMUNITY	356	1	n/a	1	n/a	n/a	n/a	n/a	n/a
3357064	RECOG_CONF	n/a	LTP079	ltpFR	6	7	0	COMMUNITY	356	n/a	5	1	n/a	n/a	n/a	n/a	n/a
3358789	RECOG_TARGET	n/a	LTP079	ltpFR	6	7	0	METEOR	889	1	5	1	n/a	n/a	n/a	n/a	n/a
3359409	RECOG_RESP	n/a	LTP079	ltpFR	6	7	0	METEOR	889	1	n/a	1	n/a	n/a	n/a	n/a	n/a
3360416	RECOG_CONF	n/a	LTP079	ltpFR	6	7	0	METEOR	889	n/a	5	1	n/a	n/a	n/a	n/a	n/a
3361955	RECOG_TARGET	n/a	LTP079	ltpFR	6	7	0	POLYESTER	1100	1	5	0	n/a	n/a	n/a	n/a	n/a
3362631	RECOG_RESP	n/a	LTP079	ltpFR	6	7	0	POLYESTER	1100	1	n/a	0	n/a	n/a	n/a	n/a	n/a
3363579	RECOG_CONF	n/a	LTP079	ltpFR	6	7	0	POLYESTER	1100	n/a	5	0	n/a	n/a	n/a	n/a	n/a
3368231	REC_START	n/a	LTP079	ltpFR	6	8	n/a	n/a	n/a	n/a	n/a	n/a	n/a	n/a	n/a	n/a	n/a
3368263	RECOG_TARGET	n/a	LTP079	ltpFR	6	8	-1	JACKET	747	0	4	-1	n/a	n/a	n/a	n/a	n/a
3369194	RECOG_RESP	n/a	LTP079	ltpFR	6	8	-1	JACKET	747	0	n/a	-1	n/a	n/a	n/a	n/a	n/a
3370261	RECOG_CONF	n/a	LTP079	ltpFR	6	8	-1	JACKET	747	n/a	4	-1	n/a	n/a	n/a	n/a	n/a
3371954	RECOG_TARGET	n/a	LTP079	ltpFR	6	8	0	DISHWASHER	475	0	4	1	n/a	n/a	n/a	n/a	n/a
3373504	RECOG_RESP	n/a	LTP079	ltpFR	6	8	0	DISHWASHER	475	0	n/a	1	n/a	n/a	n/a	n/a	n/a
3374571	RECOG_CONF	n/a	LTP079	ltpFR	6	8	0	DISHWASHER	475	n/a	4	1	n/a	n/a	n/a	n/a	n/a
3376329	RECOG_TARGET	n/a	LTP079	ltpFR	6	8	1	PORK	1108	1	5	0	n/a	n/a	n/a	n/a	n/a
3377156	RECOG_RESP	n/a	LTP079	ltpFR	6	8	1	PORK	1108	1	n/a	0	n/a	n/a	n/a	n/a	n/a
3378183	RECOG_CONF	n/a	LTP079	ltpFR	6	8	1	PORK	1108	n/a	5	0	n/a	n/a	n/a	n/a	n/a
3379912	RECOG_TARGET	n/a	LTP079	ltpFR	6	8	-1	BILL	126	1	5	-1	n/a	n/a	n/a	n/a	n/a
3380528	RECOG_RESP	n/a	LTP079	ltpFR	6	8	-1	BILL	126	1	n/a	-1	n/a	n/a	n/a	n/a	n/a
3381536	RECOG_CONF	n/a	LTP079	ltpFR	6	8	-1	BILL	126	n/a	5	-1	n/a	n/a	n/a	n/a	n/a
3383220	RECOG_TARGET	n/a	LTP079	ltpFR	6	8	0	FLEA	577	1	4	0	n/a	n/a	n/a	n/a	n/a
3383920	RECOG_RESP	n/a	LTP079	ltpFR	6	8	0	FLEA	577	1	n/a	0	n/a	n/a	n/a	n/a	n/a
3384848	RECOG_CONF	n/a	LTP079	ltpFR	6	8	0	FLEA	577	n/a	4	0	n/a	n/a	n/a	n/a	n/a
3386571	RECOG_TARGET	n/a	LTP079	ltpFR	6	8	-1	APPENDAGE	32	1	5	-1	n/a	n/a	n/a	n/a	n/a
3387143	RECOG_RESP	n/a	LTP079	ltpFR	6	8	-1	APPENDAGE	32	1	n/a	-1	n/a	n/a	n/a	n/a	n/a
3388131	RECOG_CONF	n/a	LTP079	ltpFR	6	8	-1	APPENDAGE	32	n/a	5	-1	n/a	n/a	n/a	n/a	n/a
3389803	RECOG_TARGET	n/a	LTP079	ltpFR	6	8	0	BIKE	125	1	5	1	n/a	n/a	n/a	n/a	n/a
3390415	RECOG_RESP	n/a	LTP079	ltpFR	6	8	0	BIKE	125	1	n/a	1	n/a	n/a	n/a	n/a	n/a
3391423	RECOG_CONF	n/a	LTP079	ltpFR	6	8	0	BIKE	125	n/a	5	1	n/a	n/a	n/a	n/a	n/a
3393153	RECOG_TARGET	n/a	LTP079	ltpFR	6	8	-1	TROMBONE	1508	1	5	-1	n/a	n/a	n/a	n/a	n/a
3393788	RECOG_RESP	n/a	LTP079	ltpFR	6	8	-1	TROMBONE	1508	1	n/a	-1	n/a	n/a	n/a	n/a	n/a
3394716	RECOG_CONF	n/a	LTP079	ltpFR	6	8	-1	TROMBONE	1508	n/a	5	-1	n/a	n/a	n/a	n/a	n/a
3396461	RECOG_TARGET	n/a	LTP079	ltpFR	6	8	0	COLESLAW	344	1	5	0	n/a	n/a	n/a	n/a	n/a
3397110	RECOG_RESP	n/a	LTP079	ltpFR	6	8	0	COLESLAW	344	1	n/a	0	n/a	n/a	n/a	n/a	n/a
3398088	RECOG_CONF	n/a	LTP079	ltpFR	6	8	0	COLESLAW	344	n/a	5	0	n/a	n/a	n/a	n/a	n/a
3399910	RECOG_TARGET	n/a	LTP079	ltpFR	6	8	-1	MAGICIAN	854	1	5	-1	n/a	n/a	n/a	n/a	n/a
3400512	RECOG_RESP	n/a	LTP079	ltpFR	6	8	-1	MAGICIAN	854	1	n/a	-1	n/a	n/a	n/a	n/a	n/a
3401590	RECOG_CONF	n/a	LTP079	ltpFR	6	8	-1	MAGICIAN	854	n/a	5	-1	n/a	n/a	n/a	n/a	n/a
3403260	RECOG_TARGET	n/a	LTP079	ltpFR	6	8	0	FRIAR	605	1	5	0	n/a	n/a	n/a	n/a	n/a
3403835	RECOG_RESP	n/a	LTP079	ltpFR	6	8	0	FRIAR	605	1	n/a	0	n/a	n/a	n/a	n/a	n/a
3404773	RECOG_CONF	n/a	LTP079	ltpFR	6	8	0	FRIAR	605	n/a	5	0	n/a	n/a	n/a	n/a	n/a
3406510	RECOG_TARGET	n/a	LTP079	ltpFR	6	8	0	PADDING	999	1	5	1	n/a	n/a	n/a	n/a	n/a
3407157	RECOG_RESP	n/a	LTP079	ltpFR	6	8	0	PADDING	999	1	n/a	1	n/a	n/a	n/a	n/a	n/a
3408235	RECOG_CONF	n/a	LTP079	ltpFR	6	8	0	PADDING	999	n/a	5	1	n/a	n/a	n/a	n/a	n/a
3410076	RECOG_TARGET	n/a	LTP079	ltpFR	6	8	1	FUDGE	611	1	5	0	n/a	n/a	n/a	n/a	n/a
3410689	RECOG_RESP	n/a	LTP079	ltpFR	6	8	1	FUDGE	611	1	n/a	0	n/a	n/a	n/a	n/a	n/a
3411737	RECOG_CONF	n/a	LTP079	ltpFR	6	8	1	FUDGE	611	n/a	5	0	n/a	n/a	n/a	n/a	n/a
3413418	RECOG_LURE	n/a	LTP079	ltpFR	6	8	n/a	TWEEZERS	1526	0	4	n/a	n/a	n/a	n/a	n/a	n/a
3414341	RECOG_RESP	n/a	LTP079	ltpFR	6	8	n/a	TWEEZERS	1526	0	n/a	n/a	n/a	n/a	n/a	n/a	n/a
3415588	RECOG_CONF	n/a	LTP079	ltpFR	6	8	n/a	TWEEZERS	1526	n/a	4	n/a	n/a	n/a	n/a	n/a	n/a
3417142	RECOG_LURE	n/a	LTP079	ltpFR	6	8	n/a	TROPHY	1509	0	4	n/a	n/a	n/a	n/a	n/a	n/a
3417923	RECOG_RESP	n/a	LTP079	ltpFR	6	8	n/a	TROPHY	1509	0	n/a	n/a	n/a	n/a	n/a	n/a	n/a
3418881	RECOG_CONF	n/a	LTP079	ltpFR	6	8	n/a	TROPHY	1509	n/a	4	n/a	n/a	n/a	n/a	n/a	n/a
3420610	RECOG_TARGET	n/a	LTP079	ltpFR	6	8	-1	CART	250	1	5	-1	n/a	n/a	n/a	n/a	n/a
3421195	RECOG_RESP	n/a	LTP079	ltpFR	6	8	-1	CART	250	1	n/a	-1	n/a	n/a	n/a	n/a	n/a
3422213	RECOG_CONF	n/a	LTP079	ltpFR	6	8	-1	CART	250	n/a	5	-1	n/a	n/a	n/a	n/a	n/a
3423909	RECOG_TARGET	n/a	LTP079	ltpFR	6	8	1	TOWER	1490	1	5	0	n/a	n/a	n/a	n/a	n/a
3424538	RECOG_RESP	n/a	LTP079	ltpFR	6	8	1	TOWER	1490	1	n/a	0	n/a	n/a	n/a	n/a	n/a
3425605	RECOG_CONF	n/a	LTP079	ltpFR	6	8	1	TOWER	1490	n/a	5	0	n/a	n/a	n/a	n/a	n/a
3427258	RECOG_LURE	n/a	LTP079	ltpFR	6	8	n/a	GREASE	660	0	4	n/a	n/a	n/a	n/a	n/a	n/a
3427965	RECOG_RESP	n/a	LTP079	ltpFR	6	8	n/a	GREASE	660	0	n/a	n/a	n/a	n/a	n/a	n/a	n/a
3428988	RECOG_CONF	n/a	LTP079	ltpFR	6	8	n/a	GREASE	660	n/a	4	n/a	n/a	n/a	n/a	n/a	n/a
3430692	RECOG_LURE	n/a	LTP079	ltpFR	6	8	n/a	JUNGLE	764	0	5	n/a	n/a	n/a	n/a	n/a	n/a
3431352	RECOG_RESP	n/a	LTP079	ltpFR	6	8	n/a	JUNGLE	764	0	n/a	n/a	n/a	n/a	n/a	n/a	n/a
3432410	RECOG_CONF	n/a	LTP079	ltpFR	6	8	n/a	JUNGLE	764	n/a	5	n/a	n/a	n/a	n/a	n/a	n/a
3434066	RECOG_TARGET	n/a	LTP079	ltpFR	6	8	1	WINGS	1614	1	5	0	n/a	n/a	n/a	n/a	n/a
3434625	RECOG_RESP	n/a	LTP079	ltpFR	6	8	1	WINGS	1614	1	n/a	0	n/a	n/a	n/a	n/a	n/a
3435732	RECOG_CONF	n/a	LTP079	ltpFR	6	8	1	WINGS	1614	n/a	5	0	n/a	n/a	n/a	n/a	n/a
3444599	REC_START	n/a	LTP079	ltpFR	6	9	n/a	n/a	n/a	n/a	n/a	n/a	n/a	n/a	n/a	n/a	n/a
3444633	RECOG_TARGET	n/a	LTP079	ltpFR	6	9	0	JOKER	759	1	5	1	n/a	n/a	n/a	n/a	n/a
3445382	RECOG_RESP	n/a	LTP079	ltpFR	6	9	0	JOKER	759	1	n/a	1	n/a	n/a	n/a	n/a	n/a
3446490	RECOG_CONF	n/a	LTP079	ltpFR	6	9	0	JOKER	759	n/a	5	1	n/a	n/a	n/a	n/a	n/a
3448123	RECOG_TARGET	n/a	LTP079	ltpFR	6	9	0	MUG	930	1	4	0	n/a	n/a	n/a	n/a	n/a
3449143	RECOG_RESP	n/a	LTP079	ltpFR	6	9	0	MUG	930	1	n/a	0	n/a	n/a	n/a	n/a	n/a
3450081	RECOG_CONF	n/a	LTP079	ltpFR	6	9	0	MUG	930	n/a	4	0	n/a	n/a	n/a	n/a	n/a
3451790	RECOG_TARGET	n/a	LTP079	ltpFR	6	9	1	DONOR	485	1	5	1	n/a	n/a	n/a	n/a	n/a
3452556	RECOG_RESP	n/a	LTP079	ltpFR	6	9	1	DONOR	485	1	n/a	1	n/a	n/a	n/a	n/a	n/a
3453524	RECOG_CONF	n/a	LTP079	ltpFR	6	9	1	DONOR	485	n/a	5	1	n/a	n/a	n/a	n/a	n/a
3455265	RECOG_TARGET	n/a	LTP079	ltpFR	6	9	-1	LEMON	810	1	5	-1	n/a	n/a	n/a	n/a	n/a
3455918	RECOG_RESP	n/a	LTP079	ltpFR	6	9	-1	LEMON	810	1	n/a	-1	n/a	n/a	n/a	n/a	n/a
3456876	RECOG_CONF	n/a	LTP079	ltpFR	6	9	-1	LEMON	810	n/a	5	-1	n/a	n/a	n/a	n/a	n/a
3458599	RECOG_TARGET	n/a	LTP079	ltpFR	6	9	1	BEAN	105	1	5	0	n/a	n/a	n/a	n/a	n/a
3459231	RECOG_RESP	n/a	LTP079	ltpFR	6	9	1	BEAN	105	1	n/a	0	n/a	n/a	n/a	n/a	n/a
3460288	RECOG_CONF	n/a	LTP079	ltpFR	6	9	1	BEAN	105	n/a	5	0	n/a	n/a	n/a	n/a	n/a
3462039	RECOG_TARGET	n/a	LTP079	ltpFR	6	9	0	BARLEY	88	1	5	1	n/a	n/a	n/a	n/a	n/a
3462643	RECOG_RESP	n/a	LTP079	ltpFR	6	9	0	BARLEY	88	1	n/a	1	n/a	n/a	n/a	n/a	n/a
3463680	RECOG_CONF	n/a	LTP079	ltpFR	6	9	0	BARLEY	88	n/a	5	1	n/a	n/a	n/a	n/a	n/a
3465380	RECOG_LURE	n/a	LTP079	ltpFR	6	9	n/a	CAVITY	264	0	5	n/a	n/a	n/a	n/a	n/a	n/a
3466075	RECOG_RESP	n/a	LTP079	ltpFR	6	9	n/a	CAVITY	264	0	n/a	n/a	n/a	n/a	n/a	n/a	n/a
3467083	RECOG_CONF	n/a	LTP079	ltpFR	6	9	n/a	CAVITY	264	n/a	5	n/a	n/a	n/a	n/a	n/a	n/a
3468740	RECOG_LURE	n/a	LTP079	ltpFR	6	9	n/a	LONDON	843	0	5	n/a	n/a	n/a	n/a	n/a	n/a
3469427	RECOG_RESP	n/a	LTP079	ltpFR	6	9	n/a	LONDON	843	0	n/a	n/a	n/a	n/a	n/a	n/a	n/a
3470405	RECOG_CONF	n/a	LTP079	ltpFR	6	9	n/a	LONDON	843	n/a	5	n/a	n/a	n/a	n/a	n/a	n/a
3472113	RECOG_TARGET	n/a	LTP079	ltpFR	6	9	-1	AFRICA	9	1	5	-1	n/a	n/a	n/a	n/a	n/a
3472790	RECOG_RESP	n/a	LTP079	ltpFR	6	9	-1	AFRICA	9	1	n/a	-1	n/a	n/a	n/a	n/a	n/a
3473827	RECOG_CONF	n/a	LTP079	ltpFR	6	9	-1	AFRICA	9	n/a	5	-1	n/a	n/a	n/a	n/a	n/a
3475455	RECOG_TARGET	n/a	LTP079	ltpFR	6	9	-1	KETCHUP	771	1	4	-1	n/a	n/a	n/a	n/a	n/a
3476182	RECOG_RESP	n/a	LTP079	ltpFR	6	9	-1	KETCHUP	771	1	n/a	-1	n/a	n/a	n/a	n/a	n/a
3477290	RECOG_CONF	n/a	LTP079	ltpFR	6	9	-1	KETCHUP	771	n/a	4	-1	n/a	n/a	n/a	n/a	n/a
