mstime	trial_type	stim_file	subject	experiment	session	trial	item_name	item_num	list	answer	test_x	test_y	test_z
0	SESS_START	n/a	LTP310	ltpFR2	19	n/a	n/a	n/a	n/a	n/a	0	0	0
9389	START	n/a	LTP310	ltpFR2	19	n/a	n/a	n/a	-1	n/a	n/a	n/a	n/a
9404	PROB	n/a	LTP310	ltpFR2	19	n/a	n/a	n/a	-1	25	9	8	8
12875	PROB	n/a	LTP310	ltpFR2	19	n/a	n/a	n/a	-1	12	2	5	5
14192	PROB	n/a	LTP310	ltpFR2	19	n/a	n/a	n/a	-1	19	5	7	7
15594	PROB	n/a	LTP310	ltpFR2	19	n/a	n/a	n/a	-1	20	7	8	5
17260	PROB	n/a	LTP310	ltpFR2	19	n/a	n/a	n/a	-1	12	2	7	3
18912	PROB	n/a	LTP310	ltpFR2	19	n/a	n/a	n/a	-1	11	3	2	6
20942	STOP	n/a	LTP310	ltpFR2	19	n/a	n/a	n/a	-1	n/a	n/a	n/a	n/a
39530	WORD	wordpools/wasnorm_wordpool_576.txt	LTP310	ltpFR2	19	1	NURSE	963	n/a	n/a	0	0	0
42299	WORD	wordpools/wasnorm_wordpool_576.txt	LTP310	ltpFR2	19	1	PATIENT	1024	n/a	n/a	0	0	0
44835	WORD	wordpools/wasnorm_wordpool_576.txt	LTP310	ltpFR2	19	1	SCARECROW	1245	n/a	n/a	0	0	0
47587	WORD	wordpools/wasnorm_wordpool_576.txt	LTP310	ltpFR2	19	1	TOURIST	1488	n/a	n/a	0	0	0
50006	WORD	wordpools/wasnorm_wordpool_576.txt	LTP310	ltpFR2	19	1	DRAWING	494	n/a	n/a	0	0	0
52646	WORD	wordpools/wasnorm_wordpool_576.txt	LTP310	ltpFR2	19	1	MOTEL	919	n/a	n/a	0	0	0
55430	WORD	wordpools/wasnorm_wordpool_576.txt	LTP310	ltpFR2	19	1	POPCORN	1104	n/a	n/a	0	0	0
58012	WORD	wordpools/wasnorm_wordpool_576.txt	LTP310	ltpFR2	19	1	BOUQUET	157	n/a	n/a	0	0	0
60647	WORD	wordpools/wasnorm_wordpool_576.txt	LTP310	ltpFR2	19	1	SOFTBALL	1343	n/a	n/a	0	0	0
63099	WORD	wordpools/wasnorm_wordpool_576.txt	LTP310	ltpFR2	19	1	LIVER	833	n/a	n/a	0	0	0
65784	WORD	wordpools/wasnorm_wordpool_576.txt	LTP310	ltpFR2	19	1	BANKER	84	n/a	n/a	0	0	0
68352	WORD	wordpools/wasnorm_wordpool_576.txt	LTP310	ltpFR2	19	1	LASER	801	n/a	n/a	0	0	0
71139	WORD	wordpools/wasnorm_wordpool_576.txt	LTP310	ltpFR2	19	1	SILK	1307	n/a	n/a	0	0	0
73825	WORD	wordpools/wasnorm_wordpool_576.txt	LTP310	ltpFR2	19	1	NIGHTGOWN	953	n/a	n/a	0	0	0
76616	WORD	wordpools/wasnorm_wordpool_576.txt	LTP310	ltpFR2	19	1	OINTMENT	974	n/a	n/a	0	0	0
79184	WORD	wordpools/wasnorm_wordpool_576.txt	LTP310	ltpFR2	19	1	ITEM	746	n/a	n/a	0	0	0
81821	WORD	wordpools/wasnorm_wordpool_576.txt	LTP310	ltpFR2	19	1	TRENCH	1503	n/a	n/a	0	0	0
84322	WORD	wordpools/wasnorm_wordpool_576.txt	LTP310	ltpFR2	19	1	COCOON	339	n/a	n/a	0	0	0
86802	WORD	wordpools/wasnorm_wordpool_576.txt	LTP310	ltpFR2	19	1	STATUE	1374	n/a	n/a	0	0	0
89510	WORD	wordpools/wasnorm_wordpool_576.txt	LTP310	ltpFR2	19	1	IDOL	733	n/a	n/a	0	0	0
92030	WORD	wordpools/wasnorm_wordpool_576.txt	LTP310	ltpFR2	19	1	PICTURE	1061	n/a	n/a	0	0	0
94825	WORD	wordpools/wasnorm_wordpool_576.txt	LTP310	ltpFR2	19	1	CRITIC	410	n/a	n/a	0	0	0
97310	WORD	wordpools/wasnorm_wordpool_576.txt	LTP310	ltpFR2	19	1	RAZOR	1171	n/a	n/a	0	0	0
99812	WORD	wordpools/wasnorm_wordpool_576.txt	LTP310	ltpFR2	19	1	SWITCH	1422	n/a	n/a	0	0	0
101421	START	n/a	LTP310	ltpFR2	19	n/a	n/a	n/a	1	n/a	n/a	n/a	n/a
102272	DISTRACTOR	n/a	LTP310	ltpFR2	19	1	n/a	n/a	n/a	n/a	0	0	0
102280	PROB	n/a	LTP310	ltpFR2	19	n/a	n/a	n/a	1	9	1	4	4
103814	PROB	n/a	LTP310	ltpFR2	19	n/a	n/a	n/a	1	16	3	7	6
104949	PROB	n/a	LTP310	ltpFR2	19	n/a	n/a	n/a	1	6	3	2	1
106199	PROB	n/a	LTP310	ltpFR2	19	n/a	n/a	n/a	1	10	2	2	6
107583	PROB	n/a	LTP310	ltpFR2	19	n/a	n/a	n/a	1	18	3	6	9
109035	PROB	n/a	LTP310	ltpFR2	19	n/a	n/a	n/a	1	18	1	8	9
110436	PROB	n/a	LTP310	ltpFR2	19	n/a	n/a	n/a	1	21	6	6	9
112137	PROB	n/a	LTP310	ltpFR2	19	n/a	n/a	n/a	1	11	7	1	3
113554	PROB	n/a	LTP310	ltpFR2	19	n/a	n/a	n/a	1	12	3	7	2
114857	PROB	n/a	LTP310	ltpFR2	19	n/a	n/a	n/a	1	13	8	2	3
116159	PROB	n/a	LTP310	ltpFR2	19	n/a	n/a	n/a	1	24	6	9	6
118341	PROB	n/a	LTP310	ltpFR2	19	n/a	n/a	n/a	1	10	1	2	7
119828	PROB	n/a	LTP310	ltpFR2	19	n/a	n/a	n/a	1	16	3	8	5
121278	PROB	n/a	LTP310	ltpFR2	19	n/a	n/a	n/a	1	20	9	8	3
122930	PROB	n/a	LTP310	ltpFR2	19	n/a	n/a	n/a	1	10	2	1	7
124273	STOP	n/a	LTP310	ltpFR2	19	n/a	n/a	n/a	1	n/a	n/a	n/a	n/a
127250	REC_START	n/a	LTP310	ltpFR2	19	1	n/a	n/a	n/a	n/a	0	0	0
132453	REC_WORD	wordpools/wasnorm_wordpool_576.txt	LTP310	ltpFR2	19	1	NURSE	963	n/a	n/a	0	0	0
133595	REC_WORD	wordpools/wasnorm_wordpool_576.txt	LTP310	ltpFR2	19	1	PATIENT	1024	n/a	n/a	0	0	0
134595	REC_WORD_VV	wordpools/wasnorm_wordpool_576.txt	LTP310	ltpFR2	19	1	<>	-1	n/a	n/a	0	0	0
136822	REC_WORD	wordpools/wasnorm_wordpool_576.txt	LTP310	ltpFR2	19	1	SCARECROW	1245	n/a	n/a	0	0	0
137822	REC_WORD_VV	wordpools/wasnorm_wordpool_576.txt	LTP310	ltpFR2	19	1	<>	-1	n/a	n/a	0	0	0
139450	REC_WORD	wordpools/wasnorm_wordpool_576.txt	LTP310	ltpFR2	19	1	TOURIST	1488	n/a	n/a	0	0	0
140450	REC_WORD_VV	wordpools/wasnorm_wordpool_576.txt	LTP310	ltpFR2	19	1	<>	-1	n/a	n/a	0	0	0
140702	REC_WORD	wordpools/wasnorm_wordpool_576.txt	LTP310	ltpFR2	19	1	MOTEL	919	n/a	n/a	0	0	0
141702	REC_WORD_VV	wordpools/wasnorm_wordpool_576.txt	LTP310	ltpFR2	19	1	<>	-1	n/a	n/a	0	0	0
143647	REC_WORD	wordpools/wasnorm_wordpool_576.txt	LTP310	ltpFR2	19	1	POPCORN	1104	n/a	n/a	0	0	0
144647	REC_WORD_VV	wordpools/wasnorm_wordpool_576.txt	LTP310	ltpFR2	19	1	<>	-1	n/a	n/a	0	0	0
144912	REC_WORD	wordpools/wasnorm_wordpool_576.txt	LTP310	ltpFR2	19	1	BOUQUET	157	n/a	n/a	0	0	0
145807	REC_WORD	wordpools/wasnorm_wordpool_576.txt	LTP310	ltpFR2	19	1	SOFTBALL	1343	n/a	n/a	0	0	0
147400	REC_WORD	wordpools/wasnorm_wordpool_576.txt	LTP310	ltpFR2	19	1	LIVER	833	n/a	n/a	0	0	0
148409	REC_WORD	wordpools/wasnorm_wordpool_576.txt	LTP310	ltpFR2	19	1	LASER	801	n/a	n/a	0	0	0
149409	REC_WORD_VV	wordpools/wasnorm_wordpool_576.txt	LTP310	ltpFR2	19	1	<>	-1	n/a	n/a	0	0	0
180465	REC_WORD	wordpools/wasnorm_wordpool_576.txt	LTP310	ltpFR2	19	1	SILK	1307	n/a	n/a	0	0	0
183184	REC_WORD	wordpools/wasnorm_wordpool_576.txt	LTP310	ltpFR2	19	1	COCOON	339	n/a	n/a	0	0	0
184126	REC_WORD	wordpools/wasnorm_wordpool_576.txt	LTP310	ltpFR2	19	1	OINTMENT	974	n/a	n/a	0	0	0
185819	REC_WORD	wordpools/wasnorm_wordpool_576.txt	LTP310	ltpFR2	19	1	NIGHTGOWN	953	n/a	n/a	0	0	0
217706	DISTRACTOR	n/a	LTP310	ltpFR2	19	2	n/a	n/a	n/a	n/a	0	0	0
217706	START	n/a	LTP310	ltpFR2	19	n/a	n/a	n/a	2	n/a	n/a	n/a	n/a
217724	PROB	n/a	LTP310	ltpFR2	19	n/a	n/a	n/a	2	8	2	1	5
219125	PROB	n/a	LTP310	ltpFR2	19	n/a	n/a	n/a	2	17	8	3	6
221174	PROB	n/a	LTP310	ltpFR2	19	n/a	n/a	n/a	2	13	8	3	2
222593	PROB	n/a	LTP310	ltpFR2	19	n/a	n/a	n/a	2	20	8	7	5
224261	PROB	n/a	LTP310	ltpFR2	19	n/a	n/a	n/a	2	22	7	9	6
225946	PROB	n/a	LTP310	ltpFR2	19	n/a	n/a	n/a	2	13	8	2	3
227129	PROB	n/a	LTP310	ltpFR2	19	n/a	n/a	n/a	2	16	9	6	1
228866	PROB	n/a	LTP310	ltpFR2	19	n/a	n/a	n/a	2	5	1	2	2
230100	PROB	n/a	LTP310	ltpFR2	19	n/a	n/a	n/a	2	22	7	7	8
232083	PROB	n/a	LTP310	ltpFR2	19	n/a	n/a	n/a	2	5	1	3	1
233318	PROB	n/a	LTP310	ltpFR2	19	n/a	n/a	n/a	2	19	9	5	5
235319	PROB	n/a	LTP310	ltpFR2	19	n/a	n/a	n/a	2	8	3	4	1
236755	PROB	n/a	LTP310	ltpFR2	19	n/a	n/a	n/a	2	21	3	4	9
238440	PROB	n/a	LTP310	ltpFR2	19	n/a	n/a	n/a	2	19	2	9	8
240023	PROB	n/a	LTP310	ltpFR2	19	n/a	n/a	n/a	2	11	1	9	1
241631	STOP	n/a	LTP310	ltpFR2	19	n/a	n/a	n/a	2	n/a	n/a	n/a	n/a
242795	WORD	wordpools/wasnorm_wordpool_576.txt	LTP310	ltpFR2	19	2	PLATE	1086	n/a	n/a	0	0	0
245262	WORD	wordpools/wasnorm_wordpool_576.txt	LTP310	ltpFR2	19	2	SALAD	1224	n/a	n/a	0	0	0
248065	WORD	wordpools/wasnorm_wordpool_576.txt	LTP310	ltpFR2	19	2	TROMBONE	1508	n/a	n/a	0	0	0
250851	WORD	wordpools/wasnorm_wordpool_576.txt	LTP310	ltpFR2	19	2	SODA	1341	n/a	n/a	0	0	0
253302	WORD	wordpools/wasnorm_wordpool_576.txt	LTP310	ltpFR2	19	2	GAVEL	627	n/a	n/a	0	0	0
255788	WORD	wordpools/wasnorm_wordpool_576.txt	LTP310	ltpFR2	19	2	BATHTUB	100	n/a	n/a	0	0	0
258371	WORD	wordpools/wasnorm_wordpool_576.txt	LTP310	ltpFR2	19	2	SPONGE	1355	n/a	n/a	0	0	0
260941	WORD	wordpools/wasnorm_wordpool_576.txt	LTP310	ltpFR2	19	2	LETTUCE	814	n/a	n/a	0	0	0
263626	WORD	wordpools/wasnorm_wordpool_576.txt	LTP310	ltpFR2	19	2	LAMP	798	n/a	n/a	0	0	0
266363	WORD	wordpools/wasnorm_wordpool_576.txt	LTP310	ltpFR2	19	2	PASTRY	1022	n/a	n/a	0	0	0
268997	WORD	wordpools/wasnorm_wordpool_576.txt	LTP310	ltpFR2	19	2	FLAG	573	n/a	n/a	0	0	0
271448	WORD	wordpools/wasnorm_wordpool_576.txt	LTP310	ltpFR2	19	2	WAITER	1580	n/a	n/a	0	0	0
274052	WORD	wordpools/wasnorm_wordpool_576.txt	LTP310	ltpFR2	19	2	SUPPER	1411	n/a	n/a	0	0	0
276805	WORD	wordpools/wasnorm_wordpool_576.txt	LTP310	ltpFR2	19	2	FRANCE	601	n/a	n/a	0	0	0
279607	WORD	wordpools/wasnorm_wordpool_576.txt	LTP310	ltpFR2	19	2	SLOPE	1328	n/a	n/a	0	0	0
282174	WORD	wordpools/wasnorm_wordpool_576.txt	LTP310	ltpFR2	19	2	NECKLACE	940	n/a	n/a	0	0	0
284660	WORD	wordpools/wasnorm_wordpool_576.txt	LTP310	ltpFR2	19	2	NOTEBOOK	959	n/a	n/a	0	0	0
287166	WORD	wordpools/wasnorm_wordpool_576.txt	LTP310	ltpFR2	19	2	SCRIBBLE	1256	n/a	n/a	0	0	0
289747	WORD	wordpools/wasnorm_wordpool_576.txt	LTP310	ltpFR2	19	2	HUSBAND	728	n/a	n/a	0	0	0
292315	WORD	wordpools/wasnorm_wordpool_576.txt	LTP310	ltpFR2	19	2	TORTOISE	1486	n/a	n/a	0	0	0
294802	WORD	wordpools/wasnorm_wordpool_576.txt	LTP310	ltpFR2	19	2	FOX	598	n/a	n/a	0	0	0
297219	WORD	wordpools/wasnorm_wordpool_576.txt	LTP310	ltpFR2	19	2	COURSE	390	n/a	n/a	0	0	0
299656	WORD	wordpools/wasnorm_wordpool_576.txt	LTP310	ltpFR2	19	2	BRANCH	168	n/a	n/a	0	0	0
302141	WORD	wordpools/wasnorm_wordpool_576.txt	LTP310	ltpFR2	19	2	CUPBOARD	425	n/a	n/a	0	0	0
303748	START	n/a	LTP310	ltpFR2	19	n/a	n/a	n/a	3	n/a	n/a	n/a	n/a
304630	DISTRACTOR	n/a	LTP310	ltpFR2	19	2	n/a	n/a	n/a	n/a	0	0	0
304643	PROB	n/a	LTP310	ltpFR2	19	n/a	n/a	n/a	3	20	6	6	8
306460	PROB	n/a	LTP310	ltpFR2	19	n/a	n/a	n/a	3	16	9	1	6
307527	PROB	n/a	LTP310	ltpFR2	19	n/a	n/a	n/a	3	19	6	8	5
309047	PROB	n/a	LTP310	ltpFR2	19	n/a	n/a	n/a	3	11	2	8	1
310462	PROB	n/a	LTP310	ltpFR2	19	n/a	n/a	n/a	3	10	1	2	7
311664	PROB	n/a	LTP310	ltpFR2	19	n/a	n/a	n/a	3	24	6	9	9
313182	PROB	n/a	LTP310	ltpFR2	19	n/a	n/a	n/a	3	15	6	6	3
314833	PROB	n/a	LTP310	ltpFR2	19	n/a	n/a	n/a	3	10	1	7	2
316001	PROB	n/a	LTP310	ltpFR2	19	n/a	n/a	n/a	3	12	7	3	2
317435	PROB	n/a	LTP310	ltpFR2	19	n/a	n/a	n/a	3	10	2	6	2
319320	PROB	n/a	LTP310	ltpFR2	19	n/a	n/a	n/a	3	21	8	7	6
320855	PROB	n/a	LTP310	ltpFR2	19	n/a	n/a	n/a	3	12	1	2	9
321924	PROB	n/a	LTP310	ltpFR2	19	n/a	n/a	n/a	3	14	1	7	6
323456	PROB	n/a	LTP310	ltpFR2	19	n/a	n/a	n/a	3	22	8	5	9
324992	PROB	n/a	LTP310	ltpFR2	19	n/a	n/a	n/a	3	22	8	7	7
326498	STOP	n/a	LTP310	ltpFR2	19	n/a	n/a	n/a	3	n/a	n/a	n/a	n/a
329663	REC_START	n/a	LTP310	ltpFR2	19	2	n/a	n/a	n/a	n/a	0	0	0
346191	REC_WORD	wordpools/wasnorm_wordpool_576.txt	LTP310	ltpFR2	19	2	TORTOISE	1486	n/a	n/a	0	0	0
347160	REC_WORD	wordpools/wasnorm_wordpool_576.txt	LTP310	ltpFR2	19	2	HUSBAND	728	n/a	n/a	0	0	0
348522	REC_WORD	wordpools/wasnorm_wordpool_576.txt	LTP310	ltpFR2	19	2	FOX	598	n/a	n/a	0	0	0
349752	REC_WORD	wordpools/wasnorm_wordpool_576.txt	LTP310	ltpFR2	19	2	COURSE	390	n/a	n/a	0	0	0
351304	REC_WORD	wordpools/wasnorm_wordpool_576.txt	LTP310	ltpFR2	19	2	BRANCH	168	n/a	n/a	0	0	0
352858	REC_WORD	wordpools/wasnorm_wordpool_576.txt	LTP310	ltpFR2	19	2	CUPBOARD	425	n/a	n/a	0	0	0
356297	REC_WORD	wordpools/wasnorm_wordpool_576.txt	LTP310	ltpFR2	19	2	PLATE	1086	n/a	n/a	0	0	0
357113	REC_WORD	wordpools/wasnorm_wordpool_576.txt	LTP310	ltpFR2	19	2	SALAD	1224	n/a	n/a	0	0	0
358292	REC_WORD	wordpools/wasnorm_wordpool_576.txt	LTP310	ltpFR2	19	2	TROMBONE	1508	n/a	n/a	0	0	0
359191	REC_WORD	wordpools/wasnorm_wordpool_576.txt	LTP310	ltpFR2	19	2	SODA	1341	n/a	n/a	0	0	0
360984	REC_WORD	wordpools/wasnorm_wordpool_576.txt	LTP310	ltpFR2	19	2	GAVEL	627	n/a	n/a	0	0	0
362804	REC_WORD	wordpools/wasnorm_wordpool_576.txt	LTP310	ltpFR2	19	2	GRAVEL	659	n/a	n/a	0	0	0
364567	REC_WORD	wordpools/wasnorm_wordpool_576.txt	LTP310	ltpFR2	19	2	BATHTUB	100	n/a	n/a	0	0	0
365527	REC_WORD	wordpools/wasnorm_wordpool_576.txt	LTP310	ltpFR2	19	2	SPONGE	1355	n/a	n/a	0	0	0
366462	REC_WORD	wordpools/wasnorm_wordpool_576.txt	LTP310	ltpFR2	19	2	LETTUCE	814	n/a	n/a	0	0	0
367517	REC_WORD	wordpools/wasnorm_wordpool_576.txt	LTP310	ltpFR2	19	2	LAMP	798	n/a	n/a	0	0	0
368398	REC_WORD	wordpools/wasnorm_wordpool_576.txt	LTP310	ltpFR2	19	2	PASTRY	1022	n/a	n/a	0	0	0
370232	REC_WORD	wordpools/wasnorm_wordpool_576.txt	LTP310	ltpFR2	19	2	FLAG	573	n/a	n/a	0	0	0
386663	REC_WORD	wordpools/wasnorm_wordpool_576.txt	LTP310	ltpFR2	19	2	SWITCH	1422	n/a	n/a	0	0	0
388103	REC_WORD	wordpools/wasnorm_wordpool_576.txt	LTP310	ltpFR2	19	2	WAITER	1580	n/a	n/a	0	0	0
420083	DISTRACTOR	n/a	LTP310	ltpFR2	19	3	n/a	n/a	n/a	n/a	0	0	0
420083	START	n/a	LTP310	ltpFR2	19	n/a	n/a	n/a	4	n/a	n/a	n/a	n/a
420098	PROB	n/a	LTP310	ltpFR2	19	n/a	n/a	n/a	4	10	5	3	2
422116	PROB	n/a	LTP310	ltpFR2	19	n/a	n/a	n/a	4	11	1	1	9
423200	PROB	n/a	LTP310	ltpFR2	19	n/a	n/a	n/a	4	10	4	3	3
424552	PROB	n/a	LTP310	ltpFR2	19	n/a	n/a	n/a	4	17	5	6	6
426737	PROB	n/a	LTP310	ltpFR2	19	n/a	n/a	n/a	4	13	3	1	9
428220	PROB	n/a	LTP310	ltpFR2	19	n/a	n/a	n/a	4	17	9	6	2
430057	PROB	n/a	LTP310	ltpFR2	19	n/a	n/a	n/a	4	10	4	5	1
431473	PROB	n/a	LTP310	ltpFR2	19	n/a	n/a	n/a	4	16	2	9	5
432959	PROB	n/a	LTP310	ltpFR2	19	n/a	n/a	n/a	4	11	1	2	8
434060	PROB	n/a	LTP310	ltpFR2	19	n/a	n/a	n/a	4	21	9	7	5
436679	PROB	n/a	LTP310	ltpFR2	19	n/a	n/a	n/a	4	7	4	2	1
438280	PROB	n/a	LTP310	ltpFR2	19	n/a	n/a	n/a	4	16	3	9	4
440033	PROB	n/a	LTP310	ltpFR2	19	n/a	n/a	n/a	4	13	5	2	6
441733	PROB	n/a	LTP310	ltpFR2	19	n/a	n/a	n/a	4	15	1	8	6
443887	STOP	n/a	LTP310	ltpFR2	19	n/a	n/a	n/a	4	n/a	n/a	n/a	n/a
445021	WORD	wordpools/wasnorm_wordpool_576.txt	LTP310	ltpFR2	19	3	CUSTARD	429	n/a	n/a	0	0	0
447522	WORD	wordpools/wasnorm_wordpool_576.txt	LTP310	ltpFR2	19	3	CRIB	407	n/a	n/a	0	0	0
450224	WORD	wordpools/wasnorm_wordpool_576.txt	LTP310	ltpFR2	19	3	PARENT	1013	n/a	n/a	0	0	0
452744	WORD	wordpools/wasnorm_wordpool_576.txt	LTP310	ltpFR2	19	3	QUEEN	1149	n/a	n/a	0	0	0
455395	WORD	wordpools/wasnorm_wordpool_576.txt	LTP310	ltpFR2	19	3	PRINCESS	1125	n/a	n/a	0	0	0
458116	WORD	wordpools/wasnorm_wordpool_576.txt	LTP310	ltpFR2	19	3	PIZZA	1079	n/a	n/a	0	0	0
460634	WORD	wordpools/wasnorm_wordpool_576.txt	LTP310	ltpFR2	19	3	BRICK	172	n/a	n/a	0	0	0
463336	WORD	wordpools/wasnorm_wordpool_576.txt	LTP310	ltpFR2	19	3	INFANT	737	n/a	n/a	0	0	0
465789	WORD	wordpools/wasnorm_wordpool_576.txt	LTP310	ltpFR2	19	3	MEAT	883	n/a	n/a	0	0	0
468323	WORD	wordpools/wasnorm_wordpool_576.txt	LTP310	ltpFR2	19	3	APRON	35	n/a	n/a	0	0	0
470877	WORD	wordpools/wasnorm_wordpool_576.txt	LTP310	ltpFR2	19	3	BRAKE	166	n/a	n/a	0	0	0
473378	WORD	wordpools/wasnorm_wordpool_576.txt	LTP310	ltpFR2	19	3	BELLY	119	n/a	n/a	0	0	0
475864	WORD	wordpools/wasnorm_wordpool_576.txt	LTP310	ltpFR2	19	3	SKILLET	1317	n/a	n/a	0	0	0
478483	WORD	wordpools/wasnorm_wordpool_576.txt	LTP310	ltpFR2	19	3	LEADER	807	n/a	n/a	0	0	0
480968	WORD	wordpools/wasnorm_wordpool_576.txt	LTP310	ltpFR2	19	3	OUTFIT	988	n/a	n/a	0	0	0
483771	WORD	wordpools/wasnorm_wordpool_576.txt	LTP310	ltpFR2	19	3	LUGGAGE	847	n/a	n/a	0	0	0
486237	WORD	wordpools/wasnorm_wordpool_576.txt	LTP310	ltpFR2	19	3	AGENT	10	n/a	n/a	0	0	0
488742	WORD	wordpools/wasnorm_wordpool_576.txt	LTP310	ltpFR2	19	3	BRANDY	169	n/a	n/a	0	0	0
491342	WORD	wordpools/wasnorm_wordpool_576.txt	LTP310	ltpFR2	19	3	PLUTO	1092	n/a	n/a	0	0	0
494112	WORD	wordpools/wasnorm_wordpool_576.txt	LTP310	ltpFR2	19	3	VENUS	1557	n/a	n/a	0	0	0
496715	WORD	wordpools/wasnorm_wordpool_576.txt	LTP310	ltpFR2	19	3	AUTHOR	61	n/a	n/a	0	0	0
499516	WORD	wordpools/wasnorm_wordpool_576.txt	LTP310	ltpFR2	19	3	TUTU	1524	n/a	n/a	0	0	0
502301	WORD	wordpools/wasnorm_wordpool_576.txt	LTP310	ltpFR2	19	3	LONDON	843	n/a	n/a	0	0	0
504889	WORD	wordpools/wasnorm_wordpool_576.txt	LTP310	ltpFR2	19	3	WORKER	1621	n/a	n/a	0	0	0
506505	START	n/a	LTP310	ltpFR2	19	n/a	n/a	n/a	5	n/a	n/a	n/a	n/a
507378	DISTRACTOR	n/a	LTP310	ltpFR2	19	3	n/a	n/a	n/a	n/a	0	0	0
507388	PROB	n/a	LTP310	ltpFR2	19	n/a	n/a	n/a	5	10	3	5	2
508989	PROB	n/a	LTP310	ltpFR2	19	n/a	n/a	n/a	5	21	5	7	9
510406	PROB	n/a	LTP310	ltpFR2	19	n/a	n/a	n/a	5	14	4	8	2
511858	PROB	n/a	LTP310	ltpFR2	19	n/a	n/a	n/a	5	25	9	9	7
513494	PROB	n/a	LTP310	ltpFR2	19	n/a	n/a	n/a	5	6	3	1	2
514861	PROB	n/a	LTP310	ltpFR2	19	n/a	n/a	n/a	5	10	1	4	5
516345	PROB	n/a	LTP310	ltpFR2	19	n/a	n/a	n/a	5	8	5	1	2
517779	PROB	n/a	LTP310	ltpFR2	19	n/a	n/a	n/a	5	11	5	3	3
519432	PROB	n/a	LTP310	ltpFR2	19	n/a	n/a	n/a	5	14	2	6	6
521584	PROB	n/a	LTP310	ltpFR2	19	n/a	n/a	n/a	5	14	2	7	5
523118	PROB	n/a	LTP310	ltpFR2	19	n/a	n/a	n/a	5	18	4	9	5
524903	PROB	n/a	LTP310	ltpFR2	19	n/a	n/a	n/a	5	19	7	7	5
526989	PROB	n/a	LTP310	ltpFR2	19	n/a	n/a	n/a	5	16	5	7	4
528656	PROB	n/a	LTP310	ltpFR2	19	n/a	n/a	n/a	5	15	8	3	4
530378	STOP	n/a	LTP310	ltpFR2	19	n/a	n/a	n/a	5	n/a	n/a	n/a	n/a
532376	REC_START	n/a	LTP310	ltpFR2	19	3	n/a	n/a	n/a	n/a	0	0	0
536078	REC_WORD	wordpools/wasnorm_wordpool_576.txt	LTP310	ltpFR2	19	3	CUSTARD	429	n/a	n/a	0	0	0
537373	REC_WORD	wordpools/wasnorm_wordpool_576.txt	LTP310	ltpFR2	19	3	CRIB	407	n/a	n/a	0	0	0
539845	REC_WORD	wordpools/wasnorm_wordpool_576.txt	LTP310	ltpFR2	19	3	QUEEN	1149	n/a	n/a	0	0	0
540976	REC_WORD	wordpools/wasnorm_wordpool_576.txt	LTP310	ltpFR2	19	3	PARENT	1013	n/a	n/a	0	0	0
542517	REC_WORD	wordpools/wasnorm_wordpool_576.txt	LTP310	ltpFR2	19	3	PRINCESS	1125	n/a	n/a	0	0	0
543929	REC_WORD	wordpools/wasnorm_wordpool_576.txt	LTP310	ltpFR2	19	3	BRICK	172	n/a	n/a	0	0	0
544773	REC_WORD	wordpools/wasnorm_wordpool_576.txt	LTP310	ltpFR2	19	3	PIZZA	1079	n/a	n/a	0	0	0
547928	REC_WORD	wordpools/wasnorm_wordpool_576.txt	LTP310	ltpFR2	19	3	TUTU	1524	n/a	n/a	0	0	0
551654	REC_WORD	wordpools/wasnorm_wordpool_576.txt	LTP310	ltpFR2	19	3	APRON	35	n/a	n/a	0	0	0
552532	REC_WORD	wordpools/wasnorm_wordpool_576.txt	LTP310	ltpFR2	19	3	MEAT	883	n/a	n/a	0	0	0
564867	REC_WORD	wordpools/wasnorm_wordpool_576.txt	LTP310	ltpFR2	19	3	SKILLET	1317	n/a	n/a	0	0	0
572913	REC_WORD	wordpools/wasnorm_wordpool_576.txt	LTP310	ltpFR2	19	3	AUTHOR	61	n/a	n/a	0	0	0
573619	REC_WORD	wordpools/wasnorm_wordpool_576.txt	LTP310	ltpFR2	19	3	VENUS	1557	n/a	n/a	0	0	0
574539	REC_WORD	wordpools/wasnorm_wordpool_576.txt	LTP310	ltpFR2	19	3	PLUTO	1092	n/a	n/a	0	0	0
575255	REC_WORD	wordpools/wasnorm_wordpool_576.txt	LTP310	ltpFR2	19	3	BRANDY	169	n/a	n/a	0	0	0
576111	REC_WORD	wordpools/wasnorm_wordpool_576.txt	LTP310	ltpFR2	19	3	AGENT	10	n/a	n/a	0	0	0
622814	WORD	wordpools/wasnorm_wordpool_576.txt	LTP310	ltpFR2	19	4	SNAKE	1333	n/a	n/a	0	0	0
625510	WORD	wordpools/wasnorm_wordpool_576.txt	LTP310	ltpFR2	19	4	GRAVE	658	n/a	n/a	0	0	0
628179	WORD	wordpools/wasnorm_wordpool_576.txt	LTP310	ltpFR2	19	4	KEEPER	769	n/a	n/a	0	0	0
630916	WORD	wordpools/wasnorm_wordpool_576.txt	LTP310	ltpFR2	19	4	LAVA	804	n/a	n/a	0	0	0
633456	WORD	wordpools/wasnorm_wordpool_576.txt	LTP310	ltpFR2	19	4	SHARK	1275	n/a	n/a	0	0	0
636252	WORD	wordpools/wasnorm_wordpool_576.txt	LTP310	ltpFR2	19	4	SPOON	1357	n/a	n/a	0	0	0
638822	WORD	wordpools/wasnorm_wordpool_576.txt	LTP310	ltpFR2	19	4	HATCHET	691	n/a	n/a	0	0	0
641546	WORD	wordpools/wasnorm_wordpool_576.txt	LTP310	ltpFR2	19	4	BUNNY	198	n/a	n/a	0	0	0
644145	WORD	wordpools/wasnorm_wordpool_576.txt	LTP310	ltpFR2	19	4	KITCHEN	778	n/a	n/a	0	0	0
646914	WORD	wordpools/wasnorm_wordpool_576.txt	LTP310	ltpFR2	19	4	PRIMATE	1123	n/a	n/a	0	0	0
649565	WORD	wordpools/wasnorm_wordpool_576.txt	LTP310	ltpFR2	19	4	REBEL	1172	n/a	n/a	0	0	0
652367	WORD	wordpools/wasnorm_wordpool_576.txt	LTP310	ltpFR2	19	4	EXPERT	543	n/a	n/a	0	0	0
655074	WORD	wordpools/wasnorm_wordpool_576.txt	LTP310	ltpFR2	19	4	JUNGLE	764	n/a	n/a	0	0	0
657794	WORD	wordpools/wasnorm_wordpool_576.txt	LTP310	ltpFR2	19	4	OYSTER	995	n/a	n/a	0	0	0
660524	WORD	wordpools/wasnorm_wordpool_576.txt	LTP310	ltpFR2	19	4	PLAID	1080	n/a	n/a	0	0	0
663259	WORD	wordpools/wasnorm_wordpool_576.txt	LTP310	ltpFR2	19	4	SHIRT	1287	n/a	n/a	0	0	0
665780	WORD	wordpools/wasnorm_wordpool_576.txt	LTP310	ltpFR2	19	4	BRIEFCASE	175	n/a	n/a	0	0	0
668450	WORD	wordpools/wasnorm_wordpool_576.txt	LTP310	ltpFR2	19	4	SALT	1229	n/a	n/a	0	0	0
670885	WORD	wordpools/wasnorm_wordpool_576.txt	LTP310	ltpFR2	19	4	ATOM	55	n/a	n/a	0	0	0
673603	WORD	wordpools/wasnorm_wordpool_576.txt	LTP310	ltpFR2	19	4	COMPASS	358	n/a	n/a	0	0	0
676373	WORD	wordpools/wasnorm_wordpool_576.txt	LTP310	ltpFR2	19	4	MOTOR	922	n/a	n/a	0	0	0
679174	WORD	wordpools/wasnorm_wordpool_576.txt	LTP310	ltpFR2	19	4	HIKER	708	n/a	n/a	0	0	0
681695	WORD	wordpools/wasnorm_wordpool_576.txt	LTP310	ltpFR2	19	4	BARLEY	88	n/a	n/a	0	0	0
684178	WORD	wordpools/wasnorm_wordpool_576.txt	LTP310	ltpFR2	19	4	MISSILE	900	n/a	n/a	0	0	0
685783	START	n/a	LTP310	ltpFR2	19	n/a	n/a	n/a	6	n/a	n/a	n/a	n/a
686726	DISTRACTOR	n/a	LTP310	ltpFR2	19	4	n/a	n/a	n/a	n/a	0	0	0
686732	PROB	n/a	LTP310	ltpFR2	19	n/a	n/a	n/a	6	17	3	5	9
688482	PROB	n/a	LTP310	ltpFR2	19	n/a	n/a	n/a	6	15	5	2	8
690036	PROB	n/a	LTP310	ltpFR2	19	n/a	n/a	n/a	6	13	4	1	8
692170	PROB	n/a	LTP310	ltpFR2	19	n/a	n/a	n/a	6	11	5	2	4
694906	PROB	n/a	LTP310	ltpFR2	19	n/a	n/a	n/a	6	22	9	7	6
697173	PROB	n/a	LTP310	ltpFR2	19	n/a	n/a	n/a	6	10	2	2	6
698524	PROB	n/a	LTP310	ltpFR2	19	n/a	n/a	n/a	6	8	3	3	2
700009	PROB	n/a	LTP310	ltpFR2	19	n/a	n/a	n/a	6	14	2	3	7
701879	PROB	n/a	LTP310	ltpFR2	19	n/a	n/a	n/a	6	9	2	3	4
703697	PROB	n/a	LTP310	ltpFR2	19	n/a	n/a	n/a	6	20	8	8	4
705247	PROB	n/a	LTP310	ltpFR2	19	n/a	n/a	n/a	6	12	2	1	9
706481	PROB	n/a	LTP310	ltpFR2	19	n/a	n/a	n/a	6	17	4	9	4
708762	STOP	n/a	LTP310	ltpFR2	19	n/a	n/a	n/a	6	n/a	n/a	n/a	n/a
711588	REC_START	n/a	LTP310	ltpFR2	19	4	n/a	n/a	n/a	n/a	0	0	0
720582	REC_WORD	wordpools/wasnorm_wordpool_576.txt	LTP310	ltpFR2	19	4	PRIMATE	1123	n/a	n/a	0	0	0
721705	REC_WORD	wordpools/wasnorm_wordpool_576.txt	LTP310	ltpFR2	19	4	REBEL	1172	n/a	n/a	0	0	0
725125	REC_WORD	wordpools/wasnorm_wordpool_576.txt	LTP310	ltpFR2	19	4	EXPERT	543	n/a	n/a	0	0	0
730916	REC_WORD	wordpools/wasnorm_wordpool_576.txt	LTP310	ltpFR2	19	4	HIKER	708	n/a	n/a	0	0	0
733975	REC_WORD	wordpools/wasnorm_wordpool_576.txt	LTP310	ltpFR2	19	4	BARLEY	88	n/a	n/a	0	0	0
735545	REC_WORD	wordpools/wasnorm_wordpool_576.txt	LTP310	ltpFR2	19	4	MISSILE	900	n/a	n/a	0	0	0
736767	REC_WORD	wordpools/wasnorm_wordpool_576.txt	LTP310	ltpFR2	19	4	OYSTER	995	n/a	n/a	0	0	0
737941	REC_WORD	wordpools/wasnorm_wordpool_576.txt	LTP310	ltpFR2	19	4	PLAID	1080	n/a	n/a	0	0	0
739906	REC_WORD	wordpools/wasnorm_wordpool_576.txt	LTP310	ltpFR2	19	4	SHIRT	1287	n/a	n/a	0	0	0
761521	REC_WORD	wordpools/wasnorm_wordpool_576.txt	LTP310	ltpFR2	19	4	SNAKE	1333	n/a	n/a	0	0	0
762521	REC_WORD_VV	wordpools/wasnorm_wordpool_576.txt	LTP310	ltpFR2	19	4	<>	-1	n/a	n/a	0	0	0
802016	DISTRACTOR	n/a	LTP310	ltpFR2	19	5	n/a	n/a	n/a	n/a	0	0	0
802016	START	n/a	LTP310	ltpFR2	19	n/a	n/a	n/a	7	n/a	n/a	n/a	n/a
802032	PROB	n/a	LTP310	ltpFR2	19	n/a	n/a	n/a	7	16	8	6	2
805060	PROB	n/a	LTP310	ltpFR2	19	n/a	n/a	n/a	7	12	3	5	4
807278	PROB	n/a	LTP310	ltpFR2	19	n/a	n/a	n/a	7	11	2	4	5
808596	PROB	n/a	LTP310	ltpFR2	19	n/a	n/a	n/a	7	20	3	9	8
810065	PROB	n/a	LTP310	ltpFR2	19	n/a	n/a	n/a	7	14	1	8	5
811515	PROB	n/a	LTP310	ltpFR2	19	n/a	n/a	n/a	7	21	9	3	9
813432	PROB	n/a	LTP310	ltpFR2	19	n/a	n/a	n/a	7	9	7	1	1
814869	PROB	n/a	LTP310	ltpFR2	19	n/a	n/a	n/a	7	12	2	9	1
816586	PROB	n/a	LTP310	ltpFR2	19	n/a	n/a	n/a	7	16	8	7	1
818604	PROB	n/a	LTP310	ltpFR2	19	n/a	n/a	n/a	7	25	9	8	8
820390	PROB	n/a	LTP310	ltpFR2	19	n/a	n/a	n/a	7	19	8	4	7
822440	PROB	n/a	LTP310	ltpFR2	19	n/a	n/a	n/a	7	14	6	1	7
826016	STOP	n/a	LTP310	ltpFR2	19	n/a	n/a	n/a	7	n/a	n/a	n/a	n/a
827046	WORD	wordpools/wasnorm_wordpool_576.txt	LTP310	ltpFR2	19	5	FOREHEAD	592	n/a	n/a	0	0	0
829471	WORD	wordpools/wasnorm_wordpool_576.txt	LTP310	ltpFR2	19	5	STAMP	1370	n/a	n/a	0	0	0
832133	WORD	wordpools/wasnorm_wordpool_576.txt	LTP310	ltpFR2	19	5	FLIPPER	580	n/a	n/a	0	0	0
834936	WORD	wordpools/wasnorm_wordpool_576.txt	LTP310	ltpFR2	19	5	DOLPHIN	483	n/a	n/a	0	0	0
837646	WORD	wordpools/wasnorm_wordpool_576.txt	LTP310	ltpFR2	19	5	POISON	1096	n/a	n/a	0	0	0
840272	WORD	wordpools/wasnorm_wordpool_576.txt	LTP310	ltpFR2	19	5	MESSAGE	888	n/a	n/a	0	0	0
842984	WORD	wordpools/wasnorm_wordpool_576.txt	LTP310	ltpFR2	19	5	FRECKLE	602	n/a	n/a	0	0	0
845570	WORD	wordpools/wasnorm_wordpool_576.txt	LTP310	ltpFR2	19	5	COSTUME	383	n/a	n/a	0	0	0
848079	WORD	wordpools/wasnorm_wordpool_576.txt	LTP310	ltpFR2	19	5	TRIBE	1505	n/a	n/a	0	0	0
850608	WORD	wordpools/wasnorm_wordpool_576.txt	LTP310	ltpFR2	19	5	COLONEL	348	n/a	n/a	0	0	0
853216	WORD	wordpools/wasnorm_wordpool_576.txt	LTP310	ltpFR2	19	5	TREAT	1501	n/a	n/a	0	0	0
855768	WORD	wordpools/wasnorm_wordpool_576.txt	LTP310	ltpFR2	19	5	LIZARD	834	n/a	n/a	0	0	0
858530	WORD	wordpools/wasnorm_wordpool_576.txt	LTP310	ltpFR2	19	5	SUBWAY	1400	n/a	n/a	0	0	0
861100	WORD	wordpools/wasnorm_wordpool_576.txt	LTP310	ltpFR2	19	5	JOURNAL	760	n/a	n/a	0	0	0
863551	WORD	wordpools/wasnorm_wordpool_576.txt	LTP310	ltpFR2	19	5	DANCER	437	n/a	n/a	0	0	0
865988	WORD	wordpools/wasnorm_wordpool_576.txt	LTP310	ltpFR2	19	5	FRAGRANCE	599	n/a	n/a	0	0	0
868544	WORD	wordpools/wasnorm_wordpool_576.txt	LTP310	ltpFR2	19	5	DRESS	495	n/a	n/a	0	0	0
870981	WORD	wordpools/wasnorm_wordpool_576.txt	LTP310	ltpFR2	19	5	BULLET	194	n/a	n/a	0	0	0
873549	WORD	wordpools/wasnorm_wordpool_576.txt	LTP310	ltpFR2	19	5	GANGSTER	620	n/a	n/a	0	0	0
876235	WORD	wordpools/wasnorm_wordpool_576.txt	LTP310	ltpFR2	19	5	WRENCH	1625	n/a	n/a	0	0	0
878766	WORD	wordpools/wasnorm_wordpool_576.txt	LTP310	ltpFR2	19	5	SCULPTURE	1258	n/a	n/a	0	0	0
881250	WORD	wordpools/wasnorm_wordpool_576.txt	LTP310	ltpFR2	19	5	WRIST	1626	n/a	n/a	0	0	0
884020	WORD	wordpools/wasnorm_wordpool_576.txt	LTP310	ltpFR2	19	5	BANK	83	n/a	n/a	0	0	0
886643	WORD	wordpools/wasnorm_wordpool_576.txt	LTP310	ltpFR2	19	5	ROBBER	1197	n/a	n/a	0	0	0
888257	START	n/a	LTP310	ltpFR2	19	n/a	n/a	n/a	8	n/a	n/a	n/a	n/a
889175	DISTRACTOR	n/a	LTP310	ltpFR2	19	5	n/a	n/a	n/a	n/a	0	0	0
889190	PROB	n/a	LTP310	ltpFR2	19	n/a	n/a	n/a	8	8	3	1	4
891058	PROB	n/a	LTP310	ltpFR2	19	n/a	n/a	n/a	8	16	5	5	6
893164	PROB	n/a	LTP310	ltpFR2	19	n/a	n/a	n/a	8	16	3	9	4
894650	PROB	n/a	LTP310	ltpFR2	19	n/a	n/a	n/a	8	13	6	6	1
896267	PROB	n/a	LTP310	ltpFR2	19	n/a	n/a	n/a	8	12	9	2	1
897535	PROB	n/a	LTP310	ltpFR2	19	n/a	n/a	n/a	8	22	9	4	9
899604	PROB	n/a	LTP310	ltpFR2	19	n/a	n/a	n/a	8	17	8	9	5
902351	PROB	n/a	LTP310	ltpFR2	19	n/a	n/a	n/a	8	13	7	5	1
904424	PROB	n/a	LTP310	ltpFR2	19	n/a	n/a	n/a	8	15	4	5	6
907339	PROB	n/a	LTP310	ltpFR2	19	n/a	n/a	n/a	8	6	2	3	1
909062	PROB	n/a	LTP310	ltpFR2	19	n/a	n/a	n/a	8	11	3	1	7
910946	STOP	n/a	LTP310	ltpFR2	19	n/a	n/a	n/a	8	n/a	n/a	n/a	n/a
914129	REC_START	n/a	LTP310	ltpFR2	19	5	n/a	n/a	n/a	n/a	0	0	0
915954	REC_WORD	wordpools/wasnorm_wordpool_576.txt	LTP310	ltpFR2	19	5	BANK	83	n/a	n/a	0	0	0
916871	REC_WORD	wordpools/wasnorm_wordpool_576.txt	LTP310	ltpFR2	19	5	ROBBER	1197	n/a	n/a	0	0	0
917881	REC_WORD	wordpools/wasnorm_wordpool_576.txt	LTP310	ltpFR2	19	5	GANGSTER	620	n/a	n/a	0	0	0
918808	REC_WORD	wordpools/wasnorm_wordpool_576.txt	LTP310	ltpFR2	19	5	BULLET	194	n/a	n/a	0	0	0
920070	REC_WORD	wordpools/wasnorm_wordpool_576.txt	LTP310	ltpFR2	19	5	DANCER	437	n/a	n/a	0	0	0
921017	REC_WORD	wordpools/wasnorm_wordpool_576.txt	LTP310	ltpFR2	19	5	JOURNAL	760	n/a	n/a	0	0	0
923363	REC_WORD	wordpools/wasnorm_wordpool_576.txt	LTP310	ltpFR2	19	5	FRAGRANCE	599	n/a	n/a	0	0	0
924363	REC_WORD_VV	wordpools/wasnorm_wordpool_576.txt	LTP310	ltpFR2	19	5	<>	-1	n/a	n/a	0	0	0
924638	REC_WORD	wordpools/wasnorm_wordpool_576.txt	LTP310	ltpFR2	19	5	DRESS	495	n/a	n/a	0	0	0
926536	REC_WORD_VV	wordpools/wasnorm_wordpool_576.txt	LTP310	ltpFR2	19	5	<>	-1	n/a	n/a	0	0	0
927322	REC_WORD	wordpools/wasnorm_wordpool_576.txt	LTP310	ltpFR2	19	5	POLICE	1098	n/a	n/a	0	0	0
930424	REC_WORD	wordpools/wasnorm_wordpool_576.txt	LTP310	ltpFR2	19	5	LIZARD	834	n/a	n/a	0	0	0
931610	REC_WORD	wordpools/wasnorm_wordpool_576.txt	LTP310	ltpFR2	19	5	TREAT	1501	n/a	n/a	0	0	0
932605	REC_WORD	wordpools/wasnorm_wordpool_576.txt	LTP310	ltpFR2	19	5	SUBWAY	1400	n/a	n/a	0	0	0
1004589	WORD	wordpools/wasnorm_wordpool_576.txt	LTP310	ltpFR2	19	6	RATTLE	1170	n/a	n/a	0	0	0
1007124	WORD	wordpools/wasnorm_wordpool_576.txt	LTP310	ltpFR2	19	6	RABBIT	1152	n/a	n/a	0	0	0
1009693	WORD	wordpools/wasnorm_wordpool_576.txt	LTP310	ltpFR2	19	6	TURTLE	1522	n/a	n/a	0	0	0
1012211	WORD	wordpools/wasnorm_wordpool_576.txt	LTP310	ltpFR2	19	6	CANYON	235	n/a	n/a	0	0	0
1014646	WORD	wordpools/wasnorm_wordpool_576.txt	LTP310	ltpFR2	19	6	TYPIST	1532	n/a	n/a	0	0	0
1017386	WORD	wordpools/wasnorm_wordpool_576.txt	LTP310	ltpFR2	19	6	LIPSTICK	829	n/a	n/a	0	0	0
1020067	WORD	wordpools/wasnorm_wordpool_576.txt	LTP310	ltpFR2	19	6	GARLIC	624	n/a	n/a	0	0	0
1022675	WORD	wordpools/wasnorm_wordpool_576.txt	LTP310	ltpFR2	19	6	PEANUT	1032	n/a	n/a	0	0	0
1025271	WORD	wordpools/wasnorm_wordpool_576.txt	LTP310	ltpFR2	19	6	HERO	706	n/a	n/a	0	0	0
1027757	WORD	wordpools/wasnorm_wordpool_576.txt	LTP310	ltpFR2	19	6	ONION	977	n/a	n/a	0	0	0
1030531	WORD	wordpools/wasnorm_wordpool_576.txt	LTP310	ltpFR2	19	6	CASHEW	253	n/a	n/a	0	0	0
1033215	WORD	wordpools/wasnorm_wordpool_576.txt	LTP310	ltpFR2	19	6	PLAZA	1088	n/a	n/a	0	0	0
1035713	WORD	wordpools/wasnorm_wordpool_576.txt	LTP310	ltpFR2	19	6	WHISKERS	1605	n/a	n/a	0	0	0
1038232	WORD	wordpools/wasnorm_wordpool_576.txt	LTP310	ltpFR2	19	6	ICEBERG	731	n/a	n/a	0	0	0
1040901	WORD	wordpools/wasnorm_wordpool_576.txt	LTP310	ltpFR2	19	6	IGLOO	734	n/a	n/a	0	0	0
1043452	WORD	wordpools/wasnorm_wordpool_576.txt	LTP310	ltpFR2	19	6	LUMBER	848	n/a	n/a	0	0	0
1046139	WORD	wordpools/wasnorm_wordpool_576.txt	LTP310	ltpFR2	19	6	LAKE	796	n/a	n/a	0	0	0
1048658	WORD	wordpools/wasnorm_wordpool_576.txt	LTP310	ltpFR2	19	6	FLASK	576	n/a	n/a	0	0	0
1051448	WORD	wordpools/wasnorm_wordpool_576.txt	LTP310	ltpFR2	19	6	DUST	508	n/a	n/a	0	0	0
1054177	WORD	wordpools/wasnorm_wordpool_576.txt	LTP310	ltpFR2	19	6	CLOTHES	327	n/a	n/a	0	0	0
1056647	WORD	wordpools/wasnorm_wordpool_576.txt	LTP310	ltpFR2	19	6	PLASTER	1085	n/a	n/a	0	0	0
1059365	WORD	wordpools/wasnorm_wordpool_576.txt	LTP310	ltpFR2	19	6	RIFLE	1192	n/a	n/a	0	0	0
1062175	WORD	wordpools/wasnorm_wordpool_576.txt	LTP310	ltpFR2	19	6	STUDENT	1395	n/a	n/a	0	0	0
1064987	WORD	wordpools/wasnorm_wordpool_576.txt	LTP310	ltpFR2	19	6	LILY	821	n/a	n/a	0	0	0
1066597	START	n/a	LTP310	ltpFR2	19	n/a	n/a	n/a	9	n/a	n/a	n/a	n/a
1067644	DISTRACTOR	n/a	LTP310	ltpFR2	19	6	n/a	n/a	n/a	n/a	0	0	0
1067656	PROB	n/a	LTP310	ltpFR2	19	n/a	n/a	n/a	9	13	1	5	7
1070372	PROB	n/a	LTP310	ltpFR2	19	n/a	n/a	n/a	9	15	8	3	3
1072323	PROB	n/a	LTP310	ltpFR2	19	n/a	n/a	n/a	9	22	7	9	6
1076995	PROB	n/a	LTP310	ltpFR2	19	n/a	n/a	n/a	9	8	5	2	1
1078446	PROB	n/a	LTP310	ltpFR2	19	n/a	n/a	n/a	9	23	9	9	5
1080147	PROB	n/a	LTP310	ltpFR2	19	n/a	n/a	n/a	9	19	5	5	9
1081431	PROB	n/a	LTP310	ltpFR2	19	n/a	n/a	n/a	9	11	5	2	4
1083001	PROB	n/a	LTP310	ltpFR2	19	n/a	n/a	n/a	9	10	1	5	4
1084501	PROB	n/a	LTP310	ltpFR2	19	n/a	n/a	n/a	9	14	2	5	7
1086038	PROB	n/a	LTP310	ltpFR2	19	n/a	n/a	n/a	9	15	6	8	1
1088437	PROB	n/a	LTP310	ltpFR2	19	n/a	n/a	n/a	9	17	7	5	5
1090280	STOP	n/a	LTP310	ltpFR2	19	n/a	n/a	n/a	9	n/a	n/a	n/a	n/a
1092375	REC_START	n/a	LTP310	ltpFR2	19	6	n/a	n/a	n/a	n/a	0	0	0
1097756	REC_WORD	wordpools/wasnorm_wordpool_576.txt	LTP310	ltpFR2	19	6	PLASTER	1085	n/a	n/a	0	0	0
1098756	REC_WORD_VV	wordpools/wasnorm_wordpool_576.txt	LTP310	ltpFR2	19	6	<>	-1	n/a	n/a	0	0	0
1099268	REC_WORD	wordpools/wasnorm_wordpool_576.txt	LTP310	ltpFR2	19	6	RIFLE	1192	n/a	n/a	0	0	0
1100253	REC_WORD	wordpools/wasnorm_wordpool_576.txt	LTP310	ltpFR2	19	6	STUDENT	1395	n/a	n/a	0	0	0
1101138	REC_WORD	wordpools/wasnorm_wordpool_576.txt	LTP310	ltpFR2	19	6	LILY	821	n/a	n/a	0	0	0
1102475	REC_WORD	wordpools/wasnorm_wordpool_576.txt	LTP310	ltpFR2	19	6	LUMBER	848	n/a	n/a	0	0	0
1103138	REC_WORD	wordpools/wasnorm_wordpool_576.txt	LTP310	ltpFR2	19	6	FLASK	576	n/a	n/a	0	0	0
1104304	REC_WORD	wordpools/wasnorm_wordpool_576.txt	LTP310	ltpFR2	19	6	LAKE	796	n/a	n/a	0	0	0
1105614	REC_WORD	wordpools/wasnorm_wordpool_576.txt	LTP310	ltpFR2	19	6	DUST	508	n/a	n/a	0	0	0
1107994	REC_WORD	wordpools/wasnorm_wordpool_576.txt	LTP310	ltpFR2	19	6	RATTLE	1170	n/a	n/a	0	0	0
1108679	REC_WORD	wordpools/wasnorm_wordpool_576.txt	LTP310	ltpFR2	19	6	RABBIT	1152	n/a	n/a	0	0	0
1110793	REC_WORD	wordpools/wasnorm_wordpool_576.txt	LTP310	ltpFR2	19	6	TURTLE	1522	n/a	n/a	0	0	0
1111593	REC_WORD	wordpools/wasnorm_wordpool_576.txt	LTP310	ltpFR2	19	6	CANYON	235	n/a	n/a	0	0	0
1112519	REC_WORD	wordpools/wasnorm_wordpool_576.txt	LTP310	ltpFR2	19	6	TYPIST	1532	n/a	n/a	0	0	0
1182831	DISTRACTOR	n/a	LTP310	ltpFR2	19	7	n/a	n/a	n/a	n/a	0	0	0
1182831	START	n/a	LTP310	ltpFR2	19	n/a	n/a	n/a	10	n/a	n/a	n/a	n/a
1182849	PROB	n/a	LTP310	ltpFR2	19	n/a	n/a	n/a	10	20	7	7	6
1185616	PROB	n/a	LTP310	ltpFR2	19	n/a	n/a	n/a	10	7	2	1	4
1187451	PROB	n/a	LTP310	ltpFR2	19	n/a	n/a	n/a	10	16	5	9	2
1189604	PROB	n/a	LTP310	ltpFR2	19	n/a	n/a	n/a	10	21	7	9	5
1191437	PROB	n/a	LTP310	ltpFR2	19	n/a	n/a	n/a	10	16	7	5	4
1193874	PROB	n/a	LTP310	ltpFR2	19	n/a	n/a	n/a	10	12	3	2	7
1195356	PROB	n/a	LTP310	ltpFR2	19	n/a	n/a	n/a	10	23	6	9	8
1197009	PROB	n/a	LTP310	ltpFR2	19	n/a	n/a	n/a	10	11	1	4	6
1198260	PROB	n/a	LTP310	ltpFR2	19	n/a	n/a	n/a	10	12	7	4	1
1200260	PROB	n/a	LTP310	ltpFR2	19	n/a	n/a	n/a	10	17	9	1	7
1202046	PROB	n/a	LTP310	ltpFR2	19	n/a	n/a	n/a	10	17	2	6	9
1203747	PROB	n/a	LTP310	ltpFR2	19	n/a	n/a	n/a	10	15	2	5	8
1205726	STOP	n/a	LTP310	ltpFR2	19	n/a	n/a	n/a	10	n/a	n/a	n/a	n/a
1207869	WORD	wordpools/wasnorm_wordpool_576.txt	LTP310	ltpFR2	19	7	BOARD	143	n/a	n/a	0	0	0
1210587	WORD	wordpools/wasnorm_wordpool_576.txt	LTP310	ltpFR2	19	7	TURNIP	1521	n/a	n/a	0	0	0
1213322	WORD	wordpools/wasnorm_wordpool_576.txt	LTP310	ltpFR2	19	7	GUITAR	670	n/a	n/a	0	0	0
1215992	WORD	wordpools/wasnorm_wordpool_576.txt	LTP310	ltpFR2	19	7	TURKEY	1520	n/a	n/a	0	0	0
1218760	WORD	wordpools/wasnorm_wordpool_576.txt	LTP310	ltpFR2	19	7	PUPIL	1143	n/a	n/a	0	0	0
1221297	WORD	wordpools/wasnorm_wordpool_576.txt	LTP310	ltpFR2	19	7	SPOOL	1356	n/a	n/a	0	0	0
1223967	WORD	wordpools/wasnorm_wordpool_576.txt	LTP310	ltpFR2	19	7	RUST	1219	n/a	n/a	0	0	0
1226633	WORD	wordpools/wasnorm_wordpool_576.txt	LTP310	ltpFR2	19	7	COOK	372	n/a	n/a	0	0	0
1229418	WORD	wordpools/wasnorm_wordpool_576.txt	LTP310	ltpFR2	19	7	YARN	1631	n/a	n/a	0	0	0
1232055	WORD	wordpools/wasnorm_wordpool_576.txt	LTP310	ltpFR2	19	7	TABLE	1426	n/a	n/a	0	0	0
1234824	WORD	wordpools/wasnorm_wordpool_576.txt	LTP310	ltpFR2	19	7	HOOK	715	n/a	n/a	0	0	0
1237275	WORD	wordpools/wasnorm_wordpool_576.txt	LTP310	ltpFR2	19	7	MAMMAL	861	n/a	n/a	0	0	0
1240078	WORD	wordpools/wasnorm_wordpool_576.txt	LTP310	ltpFR2	19	7	GRILL	661	n/a	n/a	0	0	0
1242729	WORD	wordpools/wasnorm_wordpool_576.txt	LTP310	ltpFR2	19	7	CRATER	400	n/a	n/a	0	0	0
1245164	WORD	wordpools/wasnorm_wordpool_576.txt	LTP310	ltpFR2	19	7	TWIG	1527	n/a	n/a	0	0	0
1247850	WORD	wordpools/wasnorm_wordpool_576.txt	LTP310	ltpFR2	19	7	PRINCE	1124	n/a	n/a	0	0	0
1250652	WORD	wordpools/wasnorm_wordpool_576.txt	LTP310	ltpFR2	19	7	CEILING	265	n/a	n/a	0	0	0
1253470	WORD	wordpools/wasnorm_wordpool_576.txt	LTP310	ltpFR2	19	7	RUG	1215	n/a	n/a	0	0	0
1255941	WORD	wordpools/wasnorm_wordpool_576.txt	LTP310	ltpFR2	19	7	WARDROBE	1587	n/a	n/a	0	0	0
1258592	WORD	wordpools/wasnorm_wordpool_576.txt	LTP310	ltpFR2	19	7	SNACK	1331	n/a	n/a	0	0	0
1261095	WORD	wordpools/wasnorm_wordpool_576.txt	LTP310	ltpFR2	19	7	BLENDER	136	n/a	n/a	0	0	0
1263717	WORD	wordpools/wasnorm_wordpool_576.txt	LTP310	ltpFR2	19	7	LABEL	790	n/a	n/a	0	0	0
1266185	WORD	wordpools/wasnorm_wordpool_576.txt	LTP310	ltpFR2	19	7	POCKET	1093	n/a	n/a	0	0	0
1268733	WORD	wordpools/wasnorm_wordpool_576.txt	LTP310	ltpFR2	19	7	HANDBAG	684	n/a	n/a	0	0	0
1270339	START	n/a	LTP310	ltpFR2	19	n/a	n/a	n/a	11	n/a	n/a	n/a	n/a
1271202	DISTRACTOR	n/a	LTP310	ltpFR2	19	7	n/a	n/a	n/a	n/a	0	0	0
1271207	PROB	n/a	LTP310	ltpFR2	19	n/a	n/a	n/a	11	6	1	3	2
1273587	PROB	n/a	LTP310	ltpFR2	19	n/a	n/a	n/a	11	6	1	3	2
1274672	PROB	n/a	LTP310	ltpFR2	19	n/a	n/a	n/a	11	19	6	6	7
1276205	PROB	n/a	LTP310	ltpFR2	19	n/a	n/a	n/a	11	12	2	2	8
1277756	PROB	n/a	LTP310	ltpFR2	19	n/a	n/a	n/a	11	21	8	9	4
1280775	PROB	n/a	LTP310	ltpFR2	19	n/a	n/a	n/a	11	8	5	1	2
1282242	PROB	n/a	LTP310	ltpFR2	19	n/a	n/a	n/a	11	22	9	5	8
1283912	PROB	n/a	LTP310	ltpFR2	19	n/a	n/a	n/a	11	23	9	8	6
1285764	PROB	n/a	LTP310	ltpFR2	19	n/a	n/a	n/a	11	16	5	6	5
1287179	PROB	n/a	LTP310	ltpFR2	19	n/a	n/a	n/a	11	20	8	5	7
1288917	PROB	n/a	LTP310	ltpFR2	19	n/a	n/a	n/a	11	20	4	9	7
1290482	PROB	n/a	LTP310	ltpFR2	19	n/a	n/a	n/a	11	12	5	4	3
1292002	PROB	n/a	LTP310	ltpFR2	19	n/a	n/a	n/a	11	10	3	6	1
1293561	STOP	n/a	LTP310	ltpFR2	19	n/a	n/a	n/a	11	n/a	n/a	n/a	n/a
1296123	REC_START	n/a	LTP310	ltpFR2	19	7	n/a	n/a	n/a	n/a	0	0	0
1308800	REC_WORD	wordpools/wasnorm_wordpool_576.txt	LTP310	ltpFR2	19	7	WARDROBE	1587	n/a	n/a	0	0	0
1311241	REC_WORD	wordpools/wasnorm_wordpool_576.txt	LTP310	ltpFR2	19	7	SNACK	1331	n/a	n/a	0	0	0
1312241	REC_WORD_VV	wordpools/wasnorm_wordpool_576.txt	LTP310	ltpFR2	19	7	<>	-1	n/a	n/a	0	0	0
1314503	REC_WORD	wordpools/wasnorm_wordpool_576.txt	LTP310	ltpFR2	19	7	BLENDER	136	n/a	n/a	0	0	0
1315503	REC_WORD_VV	wordpools/wasnorm_wordpool_576.txt	LTP310	ltpFR2	19	7	<>	-1	n/a	n/a	0	0	0
1316582	REC_WORD	wordpools/wasnorm_wordpool_576.txt	LTP310	ltpFR2	19	7	CEILING	265	n/a	n/a	0	0	0
1319075	REC_WORD	wordpools/wasnorm_wordpool_576.txt	LTP310	ltpFR2	19	7	RUG	1215	n/a	n/a	0	0	0
1386556	WORD	wordpools/wasnorm_wordpool_576.txt	LTP310	ltpFR2	19	8	EUROPE	541	n/a	n/a	0	0	0
1389060	WORD	wordpools/wasnorm_wordpool_576.txt	LTP310	ltpFR2	19	8	COUNTY	389	n/a	n/a	0	0	0
1391511	WORD	wordpools/wasnorm_wordpool_576.txt	LTP310	ltpFR2	19	8	PENGUIN	1044	n/a	n/a	0	0	0
1394132	WORD	wordpools/wasnorm_wordpool_576.txt	LTP310	ltpFR2	19	8	PORK	1108	n/a	n/a	0	0	0
1396583	WORD	wordpools/wasnorm_wordpool_576.txt	LTP310	ltpFR2	19	8	SHELTER	1282	n/a	n/a	0	0	0
1399401	WORD	wordpools/wasnorm_wordpool_576.txt	LTP310	ltpFR2	19	8	OX	994	n/a	n/a	0	0	0
1402220	WORD	wordpools/wasnorm_wordpool_576.txt	LTP310	ltpFR2	19	8	SCALPEL	1243	n/a	n/a	0	0	0
1404891	WORD	wordpools/wasnorm_wordpool_576.txt	LTP310	ltpFR2	19	8	STREAM	1392	n/a	n/a	0	0	0
1407560	WORD	wordpools/wasnorm_wordpool_576.txt	LTP310	ltpFR2	19	8	BANQUET	86	n/a	n/a	0	0	0
1410311	WORD	wordpools/wasnorm_wordpool_576.txt	LTP310	ltpFR2	19	8	PICNIC	1060	n/a	n/a	0	0	0
1412981	WORD	wordpools/wasnorm_wordpool_576.txt	LTP310	ltpFR2	19	8	QUARTER	1148	n/a	n/a	0	0	0
1415801	WORD	wordpools/wasnorm_wordpool_576.txt	LTP310	ltpFR2	19	8	RECORD	1176	n/a	n/a	0	0	0
1418252	WORD	wordpools/wasnorm_wordpool_576.txt	LTP310	ltpFR2	19	8	RADISH	1158	n/a	n/a	0	0	0
1421055	WORD	wordpools/wasnorm_wordpool_576.txt	LTP310	ltpFR2	19	8	MAPLE	866	n/a	n/a	0	0	0
1423674	WORD	wordpools/wasnorm_wordpool_576.txt	LTP310	ltpFR2	19	8	UMPIRE	1535	n/a	n/a	0	0	0
1426359	WORD	wordpools/wasnorm_wordpool_576.txt	LTP310	ltpFR2	19	8	FOOTBALL	591	n/a	n/a	0	0	0
1428811	WORD	wordpools/wasnorm_wordpool_576.txt	LTP310	ltpFR2	19	8	MARS	873	n/a	n/a	0	0	0
1431329	WORD	wordpools/wasnorm_wordpool_576.txt	LTP310	ltpFR2	19	8	CHEST	295	n/a	n/a	0	0	0
1434000	WORD	wordpools/wasnorm_wordpool_576.txt	LTP310	ltpFR2	19	8	GIRL	637	n/a	n/a	0	0	0
1436668	WORD	wordpools/wasnorm_wordpool_576.txt	LTP310	ltpFR2	19	8	CRAB	397	n/a	n/a	0	0	0
1439387	WORD	wordpools/wasnorm_wordpool_576.txt	LTP310	ltpFR2	19	8	MONEY	908	n/a	n/a	0	0	0
1442205	WORD	wordpools/wasnorm_wordpool_576.txt	LTP310	ltpFR2	19	8	KETCHUP	771	n/a	n/a	0	0	0
1444842	WORD	wordpools/wasnorm_wordpool_576.txt	LTP310	ltpFR2	19	8	PIANO	1057	n/a	n/a	0	0	0
1447611	WORD	wordpools/wasnorm_wordpool_576.txt	LTP310	ltpFR2	19	8	LADDER	793	n/a	n/a	0	0	0
1449228	START	n/a	LTP310	ltpFR2	19	n/a	n/a	n/a	12	n/a	n/a	n/a	n/a
1450113	DISTRACTOR	n/a	LTP310	ltpFR2	19	8	n/a	n/a	n/a	n/a	0	0	0
1450129	PROB	n/a	LTP310	ltpFR2	19	n/a	n/a	n/a	12	16	8	3	4
1452966	PROB	n/a	LTP310	ltpFR2	19	n/a	n/a	n/a	12	19	6	6	7
1454464	PROB	n/a	LTP310	ltpFR2	19	n/a	n/a	n/a	12	13	1	4	8
1456086	PROB	n/a	LTP310	ltpFR2	19	n/a	n/a	n/a	12	13	3	4	6
1458001	PROB	n/a	LTP310	ltpFR2	19	n/a	n/a	n/a	12	19	9	7	3
1459452	PROB	n/a	LTP310	ltpFR2	19	n/a	n/a	n/a	12	20	8	3	9
1461154	PROB	n/a	LTP310	ltpFR2	19	n/a	n/a	n/a	12	8	3	4	1
1462538	PROB	n/a	LTP310	ltpFR2	19	n/a	n/a	n/a	12	16	6	7	3
1463941	PROB	n/a	LTP310	ltpFR2	19	n/a	n/a	n/a	12	11	6	2	3
1467743	PROB	n/a	LTP310	ltpFR2	19	n/a	n/a	n/a	12	13	7	5	1
1470128	PROB	n/a	LTP310	ltpFR2	19	n/a	n/a	n/a	12	22	9	6	7
1472153	STOP	n/a	LTP310	ltpFR2	19	n/a	n/a	n/a	12	n/a	n/a	n/a	n/a
1475182	REC_START	n/a	LTP310	ltpFR2	19	8	n/a	n/a	n/a	n/a	0	0	0
1475182	REC_WORD_VV	wordpools/wasnorm_wordpool_576.txt	LTP310	ltpFR2	19	8	<>	-1	n/a	n/a	0	0	0
1551711	REST_REWET	n/a	LTP310	ltpFR2	19	8	n/a	n/a	n/a	n/a	0	0	0
1882641	DISTRACTOR	n/a	LTP310	ltpFR2	19	9	n/a	n/a	n/a	n/a	0	0	0
1882641	START	n/a	LTP310	ltpFR2	19	n/a	n/a	n/a	13	n/a	n/a	n/a	n/a
1882658	PROB	n/a	LTP310	ltpFR2	19	n/a	n/a	n/a	13	17	1	7	9
1885194	PROB	n/a	LTP310	ltpFR2	19	n/a	n/a	n/a	13	14	6	3	5
1886627	PROB	n/a	LTP310	ltpFR2	19	n/a	n/a	n/a	13	18	2	8	8
1888210	PROB	n/a	LTP310	ltpFR2	19	n/a	n/a	n/a	13	20	6	6	8
1889779	PROB	n/a	LTP310	ltpFR2	19	n/a	n/a	n/a	13	18	4	5	9
1891265	PROB	n/a	LTP310	ltpFR2	19	n/a	n/a	n/a	13	17	8	1	8
1893532	PROB	n/a	LTP310	ltpFR2	19	n/a	n/a	n/a	13	6	2	2	2
1895069	PROB	n/a	LTP310	ltpFR2	19	n/a	n/a	n/a	13	17	8	7	2
1896738	PROB	n/a	LTP310	ltpFR2	19	n/a	n/a	n/a	13	17	9	2	6
1899906	PROB	n/a	LTP310	ltpFR2	19	n/a	n/a	n/a	13	19	8	2	9
1901590	PROB	n/a	LTP310	ltpFR2	19	n/a	n/a	n/a	13	12	2	8	2
1903159	PROB	n/a	LTP310	ltpFR2	19	n/a	n/a	n/a	13	9	1	3	5
1904425	PROB	n/a	LTP310	ltpFR2	19	n/a	n/a	n/a	13	19	7	8	4
1906154	STOP	n/a	LTP310	ltpFR2	19	n/a	n/a	n/a	13	n/a	n/a	n/a	n/a
1907579	WORD	wordpools/wasnorm_wordpool_576.txt	LTP310	ltpFR2	19	9	PIGEON	1065	n/a	n/a	0	0	0
1910031	WORD	wordpools/wasnorm_wordpool_576.txt	LTP310	ltpFR2	19	9	BISON	131	n/a	n/a	0	0	0
1912634	WORD	wordpools/wasnorm_wordpool_576.txt	LTP310	ltpFR2	19	9	SIBLING	1301	n/a	n/a	0	0	0
1915102	WORD	wordpools/wasnorm_wordpool_576.txt	LTP310	ltpFR2	19	9	SISTER	1312	n/a	n/a	0	0	0
1917888	WORD	wordpools/wasnorm_wordpool_576.txt	LTP310	ltpFR2	19	9	SADDLE	1221	n/a	n/a	0	0	0
1920523	WORD	wordpools/wasnorm_wordpool_576.txt	LTP310	ltpFR2	19	9	PLIERS	1089	n/a	n/a	0	0	0
1923191	WORD	wordpools/wasnorm_wordpool_576.txt	LTP310	ltpFR2	19	9	SHOVEL	1295	n/a	n/a	0	0	0
1925744	WORD	wordpools/wasnorm_wordpool_576.txt	LTP310	ltpFR2	19	9	WAGON	1578	n/a	n/a	0	0	0
1928363	WORD	wordpools/wasnorm_wordpool_576.txt	LTP310	ltpFR2	19	9	POLICE	1098	n/a	n/a	0	0	0
1930799	WORD	wordpools/wasnorm_wordpool_576.txt	LTP310	ltpFR2	19	9	ZEBRA	1635	n/a	n/a	0	0	0
1933382	WORD	wordpools/wasnorm_wordpool_576.txt	LTP310	ltpFR2	19	9	EMPIRE	530	n/a	n/a	0	0	0
1935819	WORD	wordpools/wasnorm_wordpool_576.txt	LTP310	ltpFR2	19	9	BIKE	125	n/a	n/a	0	0	0
1938487	WORD	wordpools/wasnorm_wordpool_576.txt	LTP310	ltpFR2	19	9	LEOPARD	812	n/a	n/a	0	0	0
1940990	WORD	wordpools/wasnorm_wordpool_576.txt	LTP310	ltpFR2	19	9	NAPKIN	937	n/a	n/a	0	0	0
1943527	WORD	wordpools/wasnorm_wordpool_576.txt	LTP310	ltpFR2	19	9	SWAMP	1416	n/a	n/a	0	0	0
1945962	WORD	wordpools/wasnorm_wordpool_576.txt	LTP310	ltpFR2	19	9	TABLET	1427	n/a	n/a	0	0	0
1948746	WORD	wordpools/wasnorm_wordpool_576.txt	LTP310	ltpFR2	19	9	CROWN	415	n/a	n/a	0	0	0
1951531	WORD	wordpools/wasnorm_wordpool_576.txt	LTP310	ltpFR2	19	9	QUAIL	1147	n/a	n/a	0	0	0
1954118	WORD	wordpools/wasnorm_wordpool_576.txt	LTP310	ltpFR2	19	9	CLOUD	328	n/a	n/a	0	0	0
1956886	WORD	wordpools/wasnorm_wordpool_576.txt	LTP310	ltpFR2	19	9	LUNCH	849	n/a	n/a	0	0	0
1959506	WORD	wordpools/wasnorm_wordpool_576.txt	LTP310	ltpFR2	19	9	SANDWICH	1232	n/a	n/a	0	0	0
1962160	WORD	wordpools/wasnorm_wordpool_576.txt	LTP310	ltpFR2	19	9	SURVEY	1414	n/a	n/a	0	0	0
1964876	WORD	wordpools/wasnorm_wordpool_576.txt	LTP310	ltpFR2	19	9	CONVICT	371	n/a	n/a	0	0	0
1967578	WORD	wordpools/wasnorm_wordpool_576.txt	LTP310	ltpFR2	19	9	SHELF	1280	n/a	n/a	0	0	0
1969196	START	n/a	LTP310	ltpFR2	19	n/a	n/a	n/a	14	n/a	n/a	n/a	n/a
1970362	DISTRACTOR	n/a	LTP310	ltpFR2	19	9	n/a	n/a	n/a	n/a	0	0	0
1970366	PROB	n/a	LTP310	ltpFR2	19	n/a	n/a	n/a	14	12	8	1	3
1974249	PROB	n/a	LTP310	ltpFR2	19	n/a	n/a	n/a	14	18	5	8	5
1975667	PROB	n/a	LTP310	ltpFR2	19	n/a	n/a	n/a	14	10	6	1	3
1977167	PROB	n/a	LTP310	ltpFR2	19	n/a	n/a	n/a	14	10	2	2	6
1978485	PROB	n/a	LTP310	ltpFR2	19	n/a	n/a	n/a	14	14	2	9	3
1980071	PROB	n/a	LTP310	ltpFR2	19	n/a	n/a	n/a	14	21	7	6	8
1981773	PROB	n/a	LTP310	ltpFR2	19	n/a	n/a	n/a	14	22	6	9	7
1983740	PROB	n/a	LTP310	ltpFR2	19	n/a	n/a	n/a	14	22	8	6	8
1985492	PROB	n/a	LTP310	ltpFR2	19	n/a	n/a	n/a	14	18	4	8	6
1987193	PROB	n/a	LTP310	ltpFR2	19	n/a	n/a	n/a	14	15	1	9	5
1988461	PROB	n/a	LTP310	ltpFR2	19	n/a	n/a	n/a	14	16	5	4	7
1989944	PROB	n/a	LTP310	ltpFR2	19	n/a	n/a	n/a	14	12	1	5	6
1991774	STOP	n/a	LTP310	ltpFR2	19	n/a	n/a	n/a	14	n/a	n/a	n/a	n/a
1995100	REC_START	n/a	LTP310	ltpFR2	19	9	n/a	n/a	n/a	n/a	0	0	0
1998878	REC_WORD	wordpools/wasnorm_wordpool_576.txt	LTP310	ltpFR2	19	9	BISON	131	n/a	n/a	0	0	0
1999648	REC_WORD	wordpools/wasnorm_wordpool_576.txt	LTP310	ltpFR2	19	9	PIGEON	1065	n/a	n/a	0	0	0
2000359	REC_WORD	wordpools/wasnorm_wordpool_576.txt	LTP310	ltpFR2	19	9	SIBLING	1301	n/a	n/a	0	0	0
2001229	REC_WORD	wordpools/wasnorm_wordpool_576.txt	LTP310	ltpFR2	19	9	SISTER	1312	n/a	n/a	0	0	0
2005423	REC_WORD	wordpools/wasnorm_wordpool_576.txt	LTP310	ltpFR2	19	9	POLICE	1098	n/a	n/a	0	0	0
2006182	REC_WORD	wordpools/wasnorm_wordpool_576.txt	LTP310	ltpFR2	19	9	ZEBRA	1635	n/a	n/a	0	0	0
2006996	REC_WORD	wordpools/wasnorm_wordpool_576.txt	LTP310	ltpFR2	19	9	EMPIRE	530	n/a	n/a	0	0	0
2007901	REC_WORD	wordpools/wasnorm_wordpool_576.txt	LTP310	ltpFR2	19	9	SADDLE	1221	n/a	n/a	0	0	0
2008568	REC_WORD	wordpools/wasnorm_wordpool_576.txt	LTP310	ltpFR2	19	9	PLIERS	1089	n/a	n/a	0	0	0
2009413	REC_WORD	wordpools/wasnorm_wordpool_576.txt	LTP310	ltpFR2	19	9	SHOVEL	1295	n/a	n/a	0	0	0
2011102	REC_WORD	wordpools/wasnorm_wordpool_576.txt	LTP310	ltpFR2	19	9	WAGON	1578	n/a	n/a	0	0	0
2085538	WORD	wordpools/wasnorm_wordpool_576.txt	LTP310	ltpFR2	19	10	GRAPE	654	n/a	n/a	0	0	0
2088202	WORD	wordpools/wasnorm_wordpool_576.txt	LTP310	ltpFR2	19	10	HUMAN	726	n/a	n/a	0	0	0
2090978	WORD	wordpools/wasnorm_wordpool_576.txt	LTP310	ltpFR2	19	10	BLOUSE	139	n/a	n/a	0	0	0
2093792	WORD	wordpools/wasnorm_wordpool_576.txt	LTP310	ltpFR2	19	10	VALLEY	1545	n/a	n/a	0	0	0
2096259	WORD	wordpools/wasnorm_wordpool_576.txt	LTP310	ltpFR2	19	10	SUMMIT	1405	n/a	n/a	0	0	0
2098695	WORD	wordpools/wasnorm_wordpool_576.txt	LTP310	ltpFR2	19	10	DENIM	446	n/a	n/a	0	0	0
2101196	WORD	wordpools/wasnorm_wordpool_576.txt	LTP310	ltpFR2	19	10	ELBOW	520	n/a	n/a	0	0	0
2103616	WORD	wordpools/wasnorm_wordpool_576.txt	LTP310	ltpFR2	19	10	CLIMBER	323	n/a	n/a	0	0	0
2106119	WORD	wordpools/wasnorm_wordpool_576.txt	LTP310	ltpFR2	19	10	FLOWER	584	n/a	n/a	0	0	0
2108854	WORD	wordpools/wasnorm_wordpool_576.txt	LTP310	ltpFR2	19	10	FILM	565	n/a	n/a	0	0	0
2111443	WORD	wordpools/wasnorm_wordpool_576.txt	LTP310	ltpFR2	19	10	ACTOR	5	n/a	n/a	0	0	0
2114242	WORD	wordpools/wasnorm_wordpool_576.txt	LTP310	ltpFR2	19	10	OZONE	996	n/a	n/a	0	0	0
2116945	WORD	wordpools/wasnorm_wordpool_576.txt	LTP310	ltpFR2	19	10	JURY	766	n/a	n/a	0	0	0
2119496	WORD	wordpools/wasnorm_wordpool_576.txt	LTP310	ltpFR2	19	10	BOX	159	n/a	n/a	0	0	0
2121966	WORD	wordpools/wasnorm_wordpool_576.txt	LTP310	ltpFR2	19	10	BRACES	164	n/a	n/a	0	0	0
2124569	WORD	wordpools/wasnorm_wordpool_576.txt	LTP310	ltpFR2	19	10	SIDEWALK	1303	n/a	n/a	0	0	0
2127070	WORD	wordpools/wasnorm_wordpool_576.txt	LTP310	ltpFR2	19	10	CARRIAGE	248	n/a	n/a	0	0	0
2129790	WORD	wordpools/wasnorm_wordpool_576.txt	LTP310	ltpFR2	19	10	VELVET	1555	n/a	n/a	0	0	0
2132274	WORD	wordpools/wasnorm_wordpool_576.txt	LTP310	ltpFR2	19	10	TWISTER	1530	n/a	n/a	0	0	0
2134728	WORD	wordpools/wasnorm_wordpool_576.txt	LTP310	ltpFR2	19	10	CYCLONE	431	n/a	n/a	0	0	0
2137362	WORD	wordpools/wasnorm_wordpool_576.txt	LTP310	ltpFR2	19	10	JUDGE	761	n/a	n/a	0	0	0
2139932	WORD	wordpools/wasnorm_wordpool_576.txt	LTP310	ltpFR2	19	10	GRAVEL	659	n/a	n/a	0	0	0
2142449	WORD	wordpools/wasnorm_wordpool_576.txt	LTP310	ltpFR2	19	10	WOMAN	1620	n/a	n/a	0	0	0
2145153	WORD	wordpools/wasnorm_wordpool_576.txt	LTP310	ltpFR2	19	10	DRUG	501	n/a	n/a	0	0	0
2146772	START	n/a	LTP310	ltpFR2	19	n/a	n/a	n/a	15	n/a	n/a	n/a	n/a
2147889	DISTRACTOR	n/a	LTP310	ltpFR2	19	10	n/a	n/a	n/a	n/a	0	0	0
2147905	PROB	n/a	LTP310	ltpFR2	19	n/a	n/a	n/a	15	8	5	1	2
2150024	PROB	n/a	LTP310	ltpFR2	19	n/a	n/a	n/a	15	13	3	8	2
2151375	PROB	n/a	LTP310	ltpFR2	19	n/a	n/a	n/a	15	11	3	3	5
2152892	PROB	n/a	LTP310	ltpFR2	19	n/a	n/a	n/a	15	15	6	5	4
2154593	PROB	n/a	LTP310	ltpFR2	19	n/a	n/a	n/a	15	7	4	1	2
2156179	PROB	n/a	LTP310	ltpFR2	19	n/a	n/a	n/a	15	16	9	6	1
2157864	PROB	n/a	LTP310	ltpFR2	19	n/a	n/a	n/a	15	17	4	4	9
2160766	PROB	n/a	LTP310	ltpFR2	19	n/a	n/a	n/a	15	20	9	7	4
2163417	PROB	n/a	LTP310	ltpFR2	19	n/a	n/a	n/a	15	15	3	6	6
2167089	PROB	n/a	LTP310	ltpFR2	19	n/a	n/a	n/a	15	18	9	7	2
2170772	STOP	n/a	LTP310	ltpFR2	19	n/a	n/a	n/a	15	n/a	n/a	n/a	n/a
2172543	REC_START	n/a	LTP310	ltpFR2	19	10	n/a	n/a	n/a	n/a	0	0	0
2176044	REC_WORD	wordpools/wasnorm_wordpool_576.txt	LTP310	ltpFR2	19	10	HUMAN	726	n/a	n/a	0	0	0
2177069	REC_WORD	wordpools/wasnorm_wordpool_576.txt	LTP310	ltpFR2	19	10	GRAPE	654	n/a	n/a	0	0	0
2178066	REC_WORD	wordpools/wasnorm_wordpool_576.txt	LTP310	ltpFR2	19	10	VALLEY	1545	n/a	n/a	0	0	0
2178910	REC_WORD	wordpools/wasnorm_wordpool_576.txt	LTP310	ltpFR2	19	10	DENIM	446	n/a	n/a	0	0	0
2179487	REC_WORD	wordpools/wasnorm_wordpool_576.txt	LTP310	ltpFR2	19	10	SUMMIT	1405	n/a	n/a	0	0	0
2188284	REC_WORD	wordpools/wasnorm_wordpool_576.txt	LTP310	ltpFR2	19	10	ELBOW	520	n/a	n/a	0	0	0
2190303	REC_WORD	wordpools/wasnorm_wordpool_576.txt	LTP310	ltpFR2	19	10	FLOWER	584	n/a	n/a	0	0	0
2191303	REC_WORD_VV	wordpools/wasnorm_wordpool_576.txt	LTP310	ltpFR2	19	10	<>	-1	n/a	n/a	0	0	0
2193735	REC_WORD	wordpools/wasnorm_wordpool_576.txt	LTP310	ltpFR2	19	10	ACTOR	5	n/a	n/a	0	0	0
2195519	REC_WORD	wordpools/wasnorm_wordpool_576.txt	LTP310	ltpFR2	19	10	FILM	565	n/a	n/a	0	0	0
2262980	WORD	wordpools/wasnorm_wordpool_576.txt	LTP310	ltpFR2	19	11	HORSE	719	n/a	n/a	0	0	0
2265659	WORD	wordpools/wasnorm_wordpool_576.txt	LTP310	ltpFR2	19	11	CANDY	230	n/a	n/a	0	0	0
2268426	WORD	wordpools/wasnorm_wordpool_576.txt	LTP310	ltpFR2	19	11	OMELET	976	n/a	n/a	0	0	0
2271122	WORD	wordpools/wasnorm_wordpool_576.txt	LTP310	ltpFR2	19	11	DASHBOARD	441	n/a	n/a	0	0	0
2273590	WORD	wordpools/wasnorm_wordpool_576.txt	LTP310	ltpFR2	19	11	CLAMP	316	n/a	n/a	0	0	0
2276309	WORD	wordpools/wasnorm_wordpool_576.txt	LTP310	ltpFR2	19	11	TROUT	1511	n/a	n/a	0	0	0
2279053	WORD	wordpools/wasnorm_wordpool_576.txt	LTP310	ltpFR2	19	11	SEAFOOD	1260	n/a	n/a	0	0	0
2281839	WORD	wordpools/wasnorm_wordpool_576.txt	LTP310	ltpFR2	19	11	ORANGE	980	n/a	n/a	0	0	0
2284465	WORD	wordpools/wasnorm_wordpool_576.txt	LTP310	ltpFR2	19	11	TAXI	1438	n/a	n/a	0	0	0
2287117	WORD	wordpools/wasnorm_wordpool_576.txt	LTP310	ltpFR2	19	11	LAPEL	800	n/a	n/a	0	0	0
2289870	WORD	wordpools/wasnorm_wordpool_576.txt	LTP310	ltpFR2	19	11	WINDOW	1611	n/a	n/a	0	0	0
2292371	WORD	wordpools/wasnorm_wordpool_576.txt	LTP310	ltpFR2	19	11	COUCH	386	n/a	n/a	0	0	0
2294850	WORD	wordpools/wasnorm_wordpool_576.txt	LTP310	ltpFR2	19	11	GHETTO	633	n/a	n/a	0	0	0
2297509	WORD	wordpools/wasnorm_wordpool_576.txt	LTP310	ltpFR2	19	11	SUNSET	1408	n/a	n/a	0	0	0
2300204	WORD	wordpools/wasnorm_wordpool_576.txt	LTP310	ltpFR2	19	11	OFFICE	972	n/a	n/a	0	0	0
2303008	WORD	wordpools/wasnorm_wordpool_576.txt	LTP310	ltpFR2	19	11	JAPAN	749	n/a	n/a	0	0	0
2305726	WORD	wordpools/wasnorm_wordpool_576.txt	LTP310	ltpFR2	19	11	HOOD	714	n/a	n/a	0	0	0
2308301	WORD	wordpools/wasnorm_wordpool_576.txt	LTP310	ltpFR2	19	11	ICING	732	n/a	n/a	0	0	0
2311048	WORD	wordpools/wasnorm_wordpool_576.txt	LTP310	ltpFR2	19	11	SHORTCAKE	1292	n/a	n/a	0	0	0
2313750	WORD	wordpools/wasnorm_wordpool_576.txt	LTP310	ltpFR2	19	11	BANJO	82	n/a	n/a	0	0	0
2316318	WORD	wordpools/wasnorm_wordpool_576.txt	LTP310	ltpFR2	19	11	TART	1436	n/a	n/a	0	0	0
2319021	WORD	wordpools/wasnorm_wordpool_576.txt	LTP310	ltpFR2	19	11	SKETCH	1315	n/a	n/a	0	0	0
2321646	WORD	wordpools/wasnorm_wordpool_576.txt	LTP310	ltpFR2	19	11	CURTAIN	427	n/a	n/a	0	0	0
2324115	WORD	wordpools/wasnorm_wordpool_576.txt	LTP310	ltpFR2	19	11	SUNRISE	1407	n/a	n/a	0	0	0
2325728	START	n/a	LTP310	ltpFR2	19	n/a	n/a	n/a	16	n/a	n/a	n/a	n/a
2326678	DISTRACTOR	n/a	LTP310	ltpFR2	19	11	n/a	n/a	n/a	n/a	0	0	0
2326682	PROB	n/a	LTP310	ltpFR2	19	n/a	n/a	n/a	16	18	5	7	6
2329150	PROB	n/a	LTP310	ltpFR2	19	n/a	n/a	n/a	16	19	6	4	9
2330568	PROB	n/a	LTP310	ltpFR2	19	n/a	n/a	n/a	16	18	6	4	8
2331853	PROB	n/a	LTP310	ltpFR2	19	n/a	n/a	n/a	16	17	7	4	6
2333705	PROB	n/a	LTP310	ltpFR2	19	n/a	n/a	n/a	16	15	3	5	7
2335388	PROB	n/a	LTP310	ltpFR2	19	n/a	n/a	n/a	16	19	7	4	8
2337440	PROB	n/a	LTP310	ltpFR2	19	n/a	n/a	n/a	16	21	6	9	6
2339059	PROB	n/a	LTP310	ltpFR2	19	n/a	n/a	n/a	16	10	4	2	4
2341044	PROB	n/a	LTP310	ltpFR2	19	n/a	n/a	n/a	16	12	1	4	7
2343665	PROB	n/a	LTP310	ltpFR2	19	n/a	n/a	n/a	16	23	6	8	9
2345347	PROB	n/a	LTP310	ltpFR2	19	n/a	n/a	n/a	16	23	5	8	9
2346998	PROB	n/a	LTP310	ltpFR2	19	n/a	n/a	n/a	16	9	3	3	3
2348315	STOP	n/a	LTP310	ltpFR2	19	n/a	n/a	n/a	16	n/a	n/a	n/a	n/a
2351533	REC_START	n/a	LTP310	ltpFR2	19	11	n/a	n/a	n/a	n/a	0	0	0
2354593	REC_WORD	wordpools/wasnorm_wordpool_576.txt	LTP310	ltpFR2	19	11	HORSE	719	n/a	n/a	0	0	0
2355425	REC_WORD	wordpools/wasnorm_wordpool_576.txt	LTP310	ltpFR2	19	11	OMELET	976	n/a	n/a	0	0	0
2356271	REC_WORD	wordpools/wasnorm_wordpool_576.txt	LTP310	ltpFR2	19	11	CANDY	230	n/a	n/a	0	0	0
2357804	REC_WORD	wordpools/wasnorm_wordpool_576.txt	LTP310	ltpFR2	19	11	CLAMP	316	n/a	n/a	0	0	0
2358759	REC_WORD	wordpools/wasnorm_wordpool_576.txt	LTP310	ltpFR2	19	11	TROUT	1511	n/a	n/a	0	0	0
2362007	REC_WORD	wordpools/wasnorm_wordpool_576.txt	LTP310	ltpFR2	19	11	SEAFOOD	1260	n/a	n/a	0	0	0
2364055	REC_WORD	wordpools/wasnorm_wordpool_576.txt	LTP310	ltpFR2	19	11	LAPEL	800	n/a	n/a	0	0	0
2365049	REC_WORD	wordpools/wasnorm_wordpool_576.txt	LTP310	ltpFR2	19	11	GHETTO	633	n/a	n/a	0	0	0
2370346	REC_WORD	wordpools/wasnorm_wordpool_576.txt	LTP310	ltpFR2	19	11	SUNRISE	1407	n/a	n/a	0	0	0
2371173	REC_WORD	wordpools/wasnorm_wordpool_576.txt	LTP310	ltpFR2	19	11	SUNSET	1408	n/a	n/a	0	0	0
2372427	REC_WORD	wordpools/wasnorm_wordpool_576.txt	LTP310	ltpFR2	19	11	OFFICE	972	n/a	n/a	0	0	0
2373297	REC_WORD	wordpools/wasnorm_wordpool_576.txt	LTP310	ltpFR2	19	11	JAPAN	749	n/a	n/a	0	0	0
2375018	REC_WORD	wordpools/wasnorm_wordpool_576.txt	LTP310	ltpFR2	19	11	ICING	732	n/a	n/a	0	0	0
2375833	REC_WORD	wordpools/wasnorm_wordpool_576.txt	LTP310	ltpFR2	19	11	SHORTCAKE	1292	n/a	n/a	0	0	0
2377143	REC_WORD	wordpools/wasnorm_wordpool_576.txt	LTP310	ltpFR2	19	11	HOOD	714	n/a	n/a	0	0	0
2380926	REC_WORD	wordpools/wasnorm_wordpool_576.txt	LTP310	ltpFR2	19	11	CURTAIN	427	n/a	n/a	0	0	0
2382503	REC_WORD	wordpools/wasnorm_wordpool_576.txt	LTP310	ltpFR2	19	11	SKETCH	1315	n/a	n/a	0	0	0
2383724	REC_WORD	wordpools/wasnorm_wordpool_576.txt	LTP310	ltpFR2	19	11	TART	1436	n/a	n/a	0	0	0
2385073	REC_WORD	wordpools/wasnorm_wordpool_576.txt	LTP310	ltpFR2	19	11	BANJO	82	n/a	n/a	0	0	0
2441975	WORD	wordpools/wasnorm_wordpool_576.txt	LTP310	ltpFR2	19	12	GUARD	667	n/a	n/a	0	0	0
2444543	WORD	wordpools/wasnorm_wordpool_576.txt	LTP310	ltpFR2	19	12	CASKET	255	n/a	n/a	0	0	0
2447279	WORD	wordpools/wasnorm_wordpool_576.txt	LTP310	ltpFR2	19	12	WIDOW	1608	n/a	n/a	0	0	0
2449749	WORD	wordpools/wasnorm_wordpool_576.txt	LTP310	ltpFR2	19	12	CASHIER	254	n/a	n/a	0	0	0
2452283	WORD	wordpools/wasnorm_wordpool_576.txt	LTP310	ltpFR2	19	12	HAND	683	n/a	n/a	0	0	0
2454907	WORD	wordpools/wasnorm_wordpool_576.txt	LTP310	ltpFR2	19	12	SKIRT	1319	n/a	n/a	0	0	0
2457638	WORD	wordpools/wasnorm_wordpool_576.txt	LTP310	ltpFR2	19	12	PUPPY	1144	n/a	n/a	0	0	0
2460373	WORD	wordpools/wasnorm_wordpool_576.txt	LTP310	ltpFR2	19	12	MUSTARD	935	n/a	n/a	0	0	0
2463147	WORD	wordpools/wasnorm_wordpool_576.txt	LTP310	ltpFR2	19	12	HIGHWAY	707	n/a	n/a	0	0	0
2465644	WORD	wordpools/wasnorm_wordpool_576.txt	LTP310	ltpFR2	19	12	BACON	67	n/a	n/a	0	0	0
2468330	WORD	wordpools/wasnorm_wordpool_576.txt	LTP310	ltpFR2	19	12	BALLOON	75	n/a	n/a	0	0	0
2471082	WORD	wordpools/wasnorm_wordpool_576.txt	LTP310	ltpFR2	19	12	SHERIFF	1284	n/a	n/a	0	0	0
2473751	WORD	wordpools/wasnorm_wordpool_576.txt	LTP310	ltpFR2	19	12	COUSIN	392	n/a	n/a	0	0	0
2476318	WORD	wordpools/wasnorm_wordpool_576.txt	LTP310	ltpFR2	19	12	OUTLAW	989	n/a	n/a	0	0	0
2478838	WORD	wordpools/wasnorm_wordpool_576.txt	LTP310	ltpFR2	19	12	PORTRAIT	1111	n/a	n/a	0	0	0
2481356	WORD	wordpools/wasnorm_wordpool_576.txt	LTP310	ltpFR2	19	12	STICKER	1382	n/a	n/a	0	0	0
2483999	WORD	wordpools/wasnorm_wordpool_576.txt	LTP310	ltpFR2	19	12	SPOUSE	1358	n/a	n/a	0	0	0
2486728	WORD	wordpools/wasnorm_wordpool_576.txt	LTP310	ltpFR2	19	12	THIEF	1456	n/a	n/a	0	0	0
2489147	WORD	wordpools/wasnorm_wordpool_576.txt	LTP310	ltpFR2	19	12	LACE	792	n/a	n/a	0	0	0
2491782	WORD	wordpools/wasnorm_wordpool_576.txt	LTP310	ltpFR2	19	12	CHAUFFEUR	283	n/a	n/a	0	0	0
2494300	WORD	wordpools/wasnorm_wordpool_576.txt	LTP310	ltpFR2	19	12	PISTON	1076	n/a	n/a	0	0	0
2497043	WORD	wordpools/wasnorm_wordpool_576.txt	LTP310	ltpFR2	19	12	CAPTIVE	240	n/a	n/a	0	0	0
2499838	WORD	wordpools/wasnorm_wordpool_576.txt	LTP310	ltpFR2	19	12	JELLO	754	n/a	n/a	0	0	0
2502390	WORD	wordpools/wasnorm_wordpool_576.txt	LTP310	ltpFR2	19	12	SUSPECT	1415	n/a	n/a	0	0	0
2503999	START	n/a	LTP310	ltpFR2	19	n/a	n/a	n/a	17	n/a	n/a	n/a	n/a
2504901	DISTRACTOR	n/a	LTP310	ltpFR2	19	12	n/a	n/a	n/a	n/a	0	0	0
2504910	PROB	n/a	LTP310	ltpFR2	19	n/a	n/a	n/a	17	19	1	9	9
2506994	PROB	n/a	LTP310	ltpFR2	19	n/a	n/a	n/a	17	21	4	9	8
2508579	PROB	n/a	LTP310	ltpFR2	19	n/a	n/a	n/a	17	17	1	7	9
2511748	PROB	n/a	LTP310	ltpFR2	19	n/a	n/a	n/a	17	11	7	1	3
2513264	PROB	n/a	LTP310	ltpFR2	19	n/a	n/a	n/a	17	20	9	3	8
2515016	PROB	n/a	LTP310	ltpFR2	19	n/a	n/a	n/a	17	17	6	3	8
2516501	PROB	n/a	LTP310	ltpFR2	19	n/a	n/a	n/a	17	18	8	4	6
2518804	PROB	n/a	LTP310	ltpFR2	19	n/a	n/a	n/a	17	16	8	1	7
2520671	PROB	n/a	LTP310	ltpFR2	19	n/a	n/a	n/a	17	5	1	2	2
2522138	PROB	n/a	LTP310	ltpFR2	19	n/a	n/a	n/a	17	9	4	1	4
2523339	PROB	n/a	LTP310	ltpFR2	19	n/a	n/a	n/a	17	16	7	2	8
2525826	PROB	n/a	LTP310	ltpFR2	19	n/a	n/a	n/a	17	18	5	9	4
2527546	STOP	n/a	LTP310	ltpFR2	19	n/a	n/a	n/a	17	n/a	n/a	n/a	n/a
2529780	REC_START	n/a	LTP310	ltpFR2	19	12	n/a	n/a	n/a	n/a	0	0	0
2531991	REC_WORD	wordpools/wasnorm_wordpool_576.txt	LTP310	ltpFR2	19	12	GUARD	667	n/a	n/a	0	0	0
2532667	REC_WORD	wordpools/wasnorm_wordpool_576.txt	LTP310	ltpFR2	19	12	CASKET	255	n/a	n/a	0	0	0
2533574	REC_WORD	wordpools/wasnorm_wordpool_576.txt	LTP310	ltpFR2	19	12	WINDOW	1611	n/a	n/a	0	0	0
2534442	REC_WORD	wordpools/wasnorm_wordpool_576.txt	LTP310	ltpFR2	19	12	WIDOW	1608	n/a	n/a	0	0	0
2536929	REC_WORD	wordpools/wasnorm_wordpool_576.txt	LTP310	ltpFR2	19	12	HAND	683	n/a	n/a	0	0	0
2537962	REC_WORD	wordpools/wasnorm_wordpool_576.txt	LTP310	ltpFR2	19	12	PUPPY	1144	n/a	n/a	0	0	0
2538790	REC_WORD	wordpools/wasnorm_wordpool_576.txt	LTP310	ltpFR2	19	12	SKIRT	1319	n/a	n/a	0	0	0
2543154	REC_WORD	wordpools/wasnorm_wordpool_576.txt	LTP310	ltpFR2	19	12	MUSTARD	935	n/a	n/a	0	0	0
2545987	REC_WORD	wordpools/wasnorm_wordpool_576.txt	LTP310	ltpFR2	19	12	HIGHWAY	707	n/a	n/a	0	0	0
2547212	REC_WORD	wordpools/wasnorm_wordpool_576.txt	LTP310	ltpFR2	19	12	BACON	67	n/a	n/a	0	0	0
2550568	REC_WORD	wordpools/wasnorm_wordpool_576.txt	LTP310	ltpFR2	19	12	SHERIFF	1284	n/a	n/a	0	0	0
2551990	REC_WORD	wordpools/wasnorm_wordpool_576.txt	LTP310	ltpFR2	19	12	COUSIN	392	n/a	n/a	0	0	0
2552936	REC_WORD	wordpools/wasnorm_wordpool_576.txt	LTP310	ltpFR2	19	12	OUTLAW	989	n/a	n/a	0	0	0
2555543	REC_WORD	wordpools/wasnorm_wordpool_576.txt	LTP310	ltpFR2	19	12	JELLO	754	n/a	n/a	0	0	0
2556302	REC_WORD	wordpools/wasnorm_wordpool_576.txt	LTP310	ltpFR2	19	12	PISTON	1076	n/a	n/a	0	0	0
2558776	REC_WORD	wordpools/wasnorm_wordpool_576.txt	LTP310	ltpFR2	19	12	STICKER	1382	n/a	n/a	0	0	0
2559782	REC_WORD	wordpools/wasnorm_wordpool_576.txt	LTP310	ltpFR2	19	12	SPOUSE	1358	n/a	n/a	0	0	0
2560782	REC_WORD_VV	wordpools/wasnorm_wordpool_576.txt	LTP310	ltpFR2	19	12	<>	-1	n/a	n/a	0	0	0
2561872	REC_WORD	wordpools/wasnorm_wordpool_576.txt	LTP310	ltpFR2	19	12	THIEF	1456	n/a	n/a	0	0	0
2562882	REC_WORD	wordpools/wasnorm_wordpool_576.txt	LTP310	ltpFR2	19	12	LACE	792	n/a	n/a	0	0	0
2572490	REC_WORD	wordpools/wasnorm_wordpool_576.txt	LTP310	ltpFR2	19	12	VICTIM	1562	n/a	n/a	0	0	0
2573323	REC_WORD	wordpools/wasnorm_wordpool_576.txt	LTP310	ltpFR2	19	12	JELLO	754	n/a	n/a	0	0	0
2620251	WORD	wordpools/wasnorm_wordpool_576.txt	LTP310	ltpFR2	19	13	ACTRESS	6	n/a	n/a	0	0	0
2622835	WORD	wordpools/wasnorm_wordpool_576.txt	LTP310	ltpFR2	19	13	VALVE	1546	n/a	n/a	0	0	0
2625538	WORD	wordpools/wasnorm_wordpool_576.txt	LTP310	ltpFR2	19	13	WHISTLE	1606	n/a	n/a	0	0	0
2628158	WORD	wordpools/wasnorm_wordpool_576.txt	LTP310	ltpFR2	19	13	SPACE	1345	n/a	n/a	0	0	0
2630810	WORD	wordpools/wasnorm_wordpool_576.txt	LTP310	ltpFR2	19	13	SERVER	1272	n/a	n/a	0	0	0
2633478	WORD	wordpools/wasnorm_wordpool_576.txt	LTP310	ltpFR2	19	13	TEACHER	1440	n/a	n/a	0	0	0
2635931	WORD	wordpools/wasnorm_wordpool_576.txt	LTP310	ltpFR2	19	13	PILOT	1070	n/a	n/a	0	0	0
2638633	WORD	wordpools/wasnorm_wordpool_576.txt	LTP310	ltpFR2	19	13	AIRPORT	13	n/a	n/a	0	0	0
2641218	WORD	wordpools/wasnorm_wordpool_576.txt	LTP310	ltpFR2	19	13	BLACKBOARD	133	n/a	n/a	0	0	0
2643670	WORD	wordpools/wasnorm_wordpool_576.txt	LTP310	ltpFR2	19	13	FRIEND	606	n/a	n/a	0	0	0
2646205	WORD	wordpools/wasnorm_wordpool_576.txt	LTP310	ltpFR2	19	13	SPHINX	1349	n/a	n/a	0	0	0
2648891	WORD	wordpools/wasnorm_wordpool_576.txt	LTP310	ltpFR2	19	13	YACHT	1629	n/a	n/a	0	0	0
2651694	WORD	wordpools/wasnorm_wordpool_576.txt	LTP310	ltpFR2	19	13	FREEZER	604	n/a	n/a	0	0	0
2654295	WORD	wordpools/wasnorm_wordpool_576.txt	LTP310	ltpFR2	19	13	ROBOT	1200	n/a	n/a	0	0	0
2656882	WORD	wordpools/wasnorm_wordpool_576.txt	LTP310	ltpFR2	19	13	VIKING	1565	n/a	n/a	0	0	0
2659617	WORD	wordpools/wasnorm_wordpool_576.txt	LTP310	ltpFR2	19	13	PECAN	1036	n/a	n/a	0	0	0
2662335	WORD	wordpools/wasnorm_wordpool_576.txt	LTP310	ltpFR2	19	13	FRUIT	610	n/a	n/a	0	0	0
2664821	WORD	wordpools/wasnorm_wordpool_576.txt	LTP310	ltpFR2	19	13	PROTON	1132	n/a	n/a	0	0	0
2667539	WORD	wordpools/wasnorm_wordpool_576.txt	LTP310	ltpFR2	19	13	PADDLE	1000	n/a	n/a	0	0	0
2670176	WORD	wordpools/wasnorm_wordpool_576.txt	LTP310	ltpFR2	19	13	MARINE	869	n/a	n/a	0	0	0
2672812	WORD	wordpools/wasnorm_wordpool_576.txt	LTP310	ltpFR2	19	13	GLASS	639	n/a	n/a	0	0	0
2675246	WORD	wordpools/wasnorm_wordpool_576.txt	LTP310	ltpFR2	19	13	CONTRACT	368	n/a	n/a	0	0	0
2677914	WORD	wordpools/wasnorm_wordpool_576.txt	LTP310	ltpFR2	19	13	BADGE	68	n/a	n/a	0	0	0
2680350	WORD	wordpools/wasnorm_wordpool_576.txt	LTP310	ltpFR2	19	13	WASHER	1592	n/a	n/a	0	0	0
2681956	START	n/a	LTP310	ltpFR2	19	n/a	n/a	n/a	18	n/a	n/a	n/a	n/a
2683076	DISTRACTOR	n/a	LTP310	ltpFR2	19	13	n/a	n/a	n/a	n/a	0	0	0
2683086	PROB	n/a	LTP310	ltpFR2	19	n/a	n/a	n/a	18	13	4	4	5
2686671	PROB	n/a	LTP310	ltpFR2	19	n/a	n/a	n/a	18	14	3	5	6
2688222	PROB	n/a	LTP310	ltpFR2	19	n/a	n/a	n/a	18	18	5	6	7
2689590	PROB	n/a	LTP310	ltpFR2	19	n/a	n/a	n/a	18	14	4	4	6
2690708	PROB	n/a	LTP310	ltpFR2	19	n/a	n/a	n/a	18	14	2	6	6
2692441	PROB	n/a	LTP310	ltpFR2	19	n/a	n/a	n/a	18	15	9	1	5
2693676	PROB	n/a	LTP310	ltpFR2	19	n/a	n/a	n/a	18	14	8	1	5
2695243	PROB	n/a	LTP310	ltpFR2	19	n/a	n/a	n/a	18	13	4	6	3
2696595	PROB	n/a	LTP310	ltpFR2	19	n/a	n/a	n/a	18	13	5	3	5
2698380	PROB	n/a	LTP310	ltpFR2	19	n/a	n/a	n/a	18	14	5	1	8
2699899	PROB	n/a	LTP310	ltpFR2	19	n/a	n/a	n/a	18	23	6	9	7
2701766	PROB	n/a	LTP310	ltpFR2	19	n/a	n/a	n/a	18	13	9	2	2
2703651	PROB	n/a	LTP310	ltpFR2	19	n/a	n/a	n/a	18	17	9	5	8
2705417	STOP	n/a	LTP310	ltpFR2	19	n/a	n/a	n/a	18	n/a	n/a	n/a	n/a
2707738	REC_START	n/a	LTP310	ltpFR2	19	13	n/a	n/a	n/a	n/a	0	0	0
2710344	REC_WORD	wordpools/wasnorm_wordpool_576.txt	LTP310	ltpFR2	19	13	MARINE	869	n/a	n/a	0	0	0
2711167	REC_WORD	wordpools/wasnorm_wordpool_576.txt	LTP310	ltpFR2	19	13	BADGE	68	n/a	n/a	0	0	0
2712072	REC_WORD	wordpools/wasnorm_wordpool_576.txt	LTP310	ltpFR2	19	13	WASHER	1592	n/a	n/a	0	0	0
2798162	DISTRACTOR	n/a	LTP310	ltpFR2	19	14	n/a	n/a	n/a	n/a	0	0	0
2798163	START	n/a	LTP310	ltpFR2	19	n/a	n/a	n/a	19	n/a	n/a	n/a	n/a
2798176	PROB	n/a	LTP310	ltpFR2	19	n/a	n/a	n/a	19	13	2	5	6
2800477	PROB	n/a	LTP310	ltpFR2	19	n/a	n/a	n/a	19	12	8	2	2
2801764	PROB	n/a	LTP310	ltpFR2	19	n/a	n/a	n/a	19	14	2	8	4
2802931	PROB	n/a	LTP310	ltpFR2	19	n/a	n/a	n/a	19	16	3	8	5
2804414	PROB	n/a	LTP310	ltpFR2	19	n/a	n/a	n/a	19	20	8	6	6
2808317	PROB	n/a	LTP310	ltpFR2	19	n/a	n/a	n/a	19	13	4	4	5
2809803	PROB	n/a	LTP310	ltpFR2	19	n/a	n/a	n/a	19	21	9	5	7
2811422	PROB	n/a	LTP310	ltpFR2	19	n/a	n/a	n/a	19	18	4	5	9
2812756	PROB	n/a	LTP310	ltpFR2	19	n/a	n/a	n/a	19	19	9	1	9
2813957	PROB	n/a	LTP310	ltpFR2	19	n/a	n/a	n/a	19	13	3	3	7
2815256	PROB	n/a	LTP310	ltpFR2	19	n/a	n/a	n/a	19	13	3	8	2
2816775	PROB	n/a	LTP310	ltpFR2	19	n/a	n/a	n/a	19	16	5	4	7
2818310	PROB	n/a	LTP310	ltpFR2	19	n/a	n/a	n/a	19	12	4	4	4
2819645	PROB	n/a	LTP310	ltpFR2	19	n/a	n/a	n/a	19	19	2	9	8
2821039	STOP	n/a	LTP310	ltpFR2	19	n/a	n/a	n/a	19	n/a	n/a	n/a	n/a
2823143	WORD	wordpools/wasnorm_wordpool_576.txt	LTP310	ltpFR2	19	14	STALLION	1369	n/a	n/a	0	0	0
2825862	WORD	wordpools/wasnorm_wordpool_576.txt	LTP310	ltpFR2	19	14	DAISY	435	n/a	n/a	0	0	0
2828498	WORD	wordpools/wasnorm_wordpool_576.txt	LTP310	ltpFR2	19	14	FIREPLACE	570	n/a	n/a	0	0	0
2830968	WORD	wordpools/wasnorm_wordpool_576.txt	LTP310	ltpFR2	19	14	KIDNEY	776	n/a	n/a	0	0	0
2833687	WORD	wordpools/wasnorm_wordpool_576.txt	LTP310	ltpFR2	19	14	SAUSAGE	1238	n/a	n/a	0	0	0
2836238	WORD	wordpools/wasnorm_wordpool_576.txt	LTP310	ltpFR2	19	14	SEAGULL	1261	n/a	n/a	0	0	0
2838707	WORD	wordpools/wasnorm_wordpool_576.txt	LTP310	ltpFR2	19	14	CHAPEL	280	n/a	n/a	0	0	0
2841509	WORD	wordpools/wasnorm_wordpool_576.txt	LTP310	ltpFR2	19	14	HARP	689	n/a	n/a	0	0	0
2844211	WORD	wordpools/wasnorm_wordpool_576.txt	LTP310	ltpFR2	19	14	CHILD	299	n/a	n/a	0	0	0
2846731	WORD	wordpools/wasnorm_wordpool_576.txt	LTP310	ltpFR2	19	14	ROOSTER	1209	n/a	n/a	0	0	0
2849349	WORD	wordpools/wasnorm_wordpool_576.txt	LTP310	ltpFR2	19	14	LAGOON	795	n/a	n/a	0	0	0
2852102	WORD	wordpools/wasnorm_wordpool_576.txt	LTP310	ltpFR2	19	14	CANAL	226	n/a	n/a	0	0	0
2854722	WORD	wordpools/wasnorm_wordpool_576.txt	LTP310	ltpFR2	19	14	CAFE	216	n/a	n/a	0	0	0
2857206	WORD	wordpools/wasnorm_wordpool_576.txt	LTP310	ltpFR2	19	14	BUGGY	188	n/a	n/a	0	0	0
2859626	WORD	wordpools/wasnorm_wordpool_576.txt	LTP310	ltpFR2	19	14	PASSAGE	1019	n/a	n/a	0	0	0
2862111	WORD	wordpools/wasnorm_wordpool_576.txt	LTP310	ltpFR2	19	14	HELMET	702	n/a	n/a	0	0	0
2864747	WORD	wordpools/wasnorm_wordpool_576.txt	LTP310	ltpFR2	19	14	SCARF	1246	n/a	n/a	0	0	0
2867215	WORD	wordpools/wasnorm_wordpool_576.txt	LTP310	ltpFR2	19	14	DINER	467	n/a	n/a	0	0	0
2869852	WORD	wordpools/wasnorm_wordpool_576.txt	LTP310	ltpFR2	19	14	ANTLER	29	n/a	n/a	0	0	0
2872286	WORD	wordpools/wasnorm_wordpool_576.txt	LTP310	ltpFR2	19	14	GRIZZLY	662	n/a	n/a	0	0	0
2874773	WORD	wordpools/wasnorm_wordpool_576.txt	LTP310	ltpFR2	19	14	SUITCASE	1403	n/a	n/a	0	0	0
2877575	WORD	wordpools/wasnorm_wordpool_576.txt	LTP310	ltpFR2	19	14	KNIFE	785	n/a	n/a	0	0	0
2880393	WORD	wordpools/wasnorm_wordpool_576.txt	LTP310	ltpFR2	19	14	BUTCHER	203	n/a	n/a	0	0	0
2882845	WORD	wordpools/wasnorm_wordpool_576.txt	LTP310	ltpFR2	19	14	CROSS	413	n/a	n/a	0	0	0
2884464	START	n/a	LTP310	ltpFR2	19	n/a	n/a	n/a	20	n/a	n/a	n/a	n/a
2885290	DISTRACTOR	n/a	LTP310	ltpFR2	19	14	n/a	n/a	n/a	n/a	0	0	0
2885297	PROB	n/a	LTP310	ltpFR2	19	n/a	n/a	n/a	20	18	7	7	4
2887098	PROB	n/a	LTP310	ltpFR2	19	n/a	n/a	n/a	20	10	3	3	4
2888499	PROB	n/a	LTP310	ltpFR2	19	n/a	n/a	n/a	20	22	6	8	8
2890585	PROB	n/a	LTP310	ltpFR2	19	n/a	n/a	n/a	20	19	9	2	8
2892369	PROB	n/a	LTP310	ltpFR2	19	n/a	n/a	n/a	20	10	2	6	2
2894370	PROB	n/a	LTP310	ltpFR2	19	n/a	n/a	n/a	20	17	6	4	7
2896038	PROB	n/a	LTP310	ltpFR2	19	n/a	n/a	n/a	20	10	1	5	4
2897573	PROB	n/a	LTP310	ltpFR2	19	n/a	n/a	n/a	20	15	7	4	5
2899358	PROB	n/a	LTP310	ltpFR2	19	n/a	n/a	n/a	20	21	9	9	3
2901293	PROB	n/a	LTP310	ltpFR2	19	n/a	n/a	n/a	20	19	8	5	6
2903494	PROB	n/a	LTP310	ltpFR2	19	n/a	n/a	n/a	20	17	5	3	9
2904962	PROB	n/a	LTP310	ltpFR2	19	n/a	n/a	n/a	20	19	9	6	4
2906280	PROB	n/a	LTP310	ltpFR2	19	n/a	n/a	n/a	20	18	1	9	8
2907626	STOP	n/a	LTP310	ltpFR2	19	n/a	n/a	n/a	20	n/a	n/a	n/a	n/a
2910418	REC_START	n/a	LTP310	ltpFR2	19	14	n/a	n/a	n/a	n/a	0	0	0
2918099	REC_WORD	wordpools/wasnorm_wordpool_576.txt	LTP310	ltpFR2	19	14	BUTCHER	203	n/a	n/a	0	0	0
2919169	REC_WORD	wordpools/wasnorm_wordpool_576.txt	LTP310	ltpFR2	19	14	KNIFE	785	n/a	n/a	0	0	0
2920569	REC_WORD	wordpools/wasnorm_wordpool_576.txt	LTP310	ltpFR2	19	14	LUGGAGE	847	n/a	n/a	0	0	0
2921692	REC_WORD	wordpools/wasnorm_wordpool_576.txt	LTP310	ltpFR2	19	14	ANTLER	29	n/a	n/a	0	0	0
2922772	REC_WORD	wordpools/wasnorm_wordpool_576.txt	LTP310	ltpFR2	19	14	GRIZZLY	662	n/a	n/a	0	0	0
2924032	REC_WORD	wordpools/wasnorm_wordpool_576.txt	LTP310	ltpFR2	19	14	STALLION	1369	n/a	n/a	0	0	0
2924963	REC_WORD	wordpools/wasnorm_wordpool_576.txt	LTP310	ltpFR2	19	14	DAISY	435	n/a	n/a	0	0	0
2925683	REC_WORD	wordpools/wasnorm_wordpool_576.txt	LTP310	ltpFR2	19	14	FIREPLACE	570	n/a	n/a	0	0	0
2926683	REC_WORD_VV	wordpools/wasnorm_wordpool_576.txt	LTP310	ltpFR2	19	14	<>	-1	n/a	n/a	0	0	0
2927648	REC_WORD	wordpools/wasnorm_wordpool_576.txt	LTP310	ltpFR2	19	14	KIDNEY	776	n/a	n/a	0	0	0
2928908	REC_WORD	wordpools/wasnorm_wordpool_576.txt	LTP310	ltpFR2	19	14	PIE	1062	n/a	n/a	0	0	0
2930823	REC_WORD	wordpools/wasnorm_wordpool_576.txt	LTP310	ltpFR2	19	14	ROOSTER	1209	n/a	n/a	0	0	0
2931688	REC_WORD	wordpools/wasnorm_wordpool_576.txt	LTP310	ltpFR2	19	14	LAGOON	795	n/a	n/a	0	0	0
2932771	REC_WORD	wordpools/wasnorm_wordpool_576.txt	LTP310	ltpFR2	19	14	CHAPEL	280	n/a	n/a	0	0	0
3000842	DISTRACTOR	n/a	LTP310	ltpFR2	19	15	n/a	n/a	n/a	n/a	0	0	0
3000842	START	n/a	LTP310	ltpFR2	19	n/a	n/a	n/a	21	n/a	n/a	n/a	n/a
3000857	PROB	n/a	LTP310	ltpFR2	19	n/a	n/a	n/a	21	7	5	1	1
3002474	PROB	n/a	LTP310	ltpFR2	19	n/a	n/a	n/a	21	12	6	4	2
3003658	PROB	n/a	LTP310	ltpFR2	19	n/a	n/a	n/a	21	12	8	3	1
3005661	PROB	n/a	LTP310	ltpFR2	19	n/a	n/a	n/a	21	14	5	4	5
3007177	PROB	n/a	LTP310	ltpFR2	19	n/a	n/a	n/a	21	15	9	4	2
3009297	PROB	n/a	LTP310	ltpFR2	19	n/a	n/a	n/a	21	14	6	2	6
3010815	PROB	n/a	LTP310	ltpFR2	19	n/a	n/a	n/a	21	15	1	7	7
3013181	PROB	n/a	LTP310	ltpFR2	19	n/a	n/a	n/a	21	13	3	5	5
3014668	PROB	n/a	LTP310	ltpFR2	19	n/a	n/a	n/a	21	16	5	6	5
3017286	PROB	n/a	LTP310	ltpFR2	19	n/a	n/a	n/a	21	17	5	3	9
3019054	PROB	n/a	LTP310	ltpFR2	19	n/a	n/a	n/a	21	6	2	2	2
3020388	PROB	n/a	LTP310	ltpFR2	19	n/a	n/a	n/a	21	14	3	2	9
3022524	PROB	n/a	LTP310	ltpFR2	19	n/a	n/a	n/a	21	18	5	5	8
3023751	STOP	n/a	LTP310	ltpFR2	19	n/a	n/a	n/a	21	n/a	n/a	n/a	n/a
3025787	WORD	wordpools/wasnorm_wordpool_576.txt	LTP310	ltpFR2	19	15	CAMEL	223	n/a	n/a	0	0	0
3028271	WORD	wordpools/wasnorm_wordpool_576.txt	LTP310	ltpFR2	19	15	SHOULDER	1294	n/a	n/a	0	0	0
3030825	WORD	wordpools/wasnorm_wordpool_576.txt	LTP310	ltpFR2	19	15	RAFT	1159	n/a	n/a	0	0	0
3033376	WORD	wordpools/wasnorm_wordpool_576.txt	LTP310	ltpFR2	19	15	LADY	794	n/a	n/a	0	0	0
3035896	WORD	wordpools/wasnorm_wordpool_576.txt	LTP310	ltpFR2	19	15	LOFT	840	n/a	n/a	0	0	0
3038705	WORD	wordpools/wasnorm_wordpool_576.txt	LTP310	ltpFR2	19	15	MATTRESS	879	n/a	n/a	0	0	0
3041383	WORD	wordpools/wasnorm_wordpool_576.txt	LTP310	ltpFR2	19	15	DRINK	498	n/a	n/a	0	0	0
3044119	WORD	wordpools/wasnorm_wordpool_576.txt	LTP310	ltpFR2	19	15	PAIL	1002	n/a	n/a	0	0	0
3046761	WORD	wordpools/wasnorm_wordpool_576.txt	LTP310	ltpFR2	19	15	LION	827	n/a	n/a	0	0	0
3049407	WORD	wordpools/wasnorm_wordpool_576.txt	LTP310	ltpFR2	19	15	XEROX	1628	n/a	n/a	0	0	0
3052027	WORD	wordpools/wasnorm_wordpool_576.txt	LTP310	ltpFR2	19	15	COLLEGE	346	n/a	n/a	0	0	0
3054612	WORD	wordpools/wasnorm_wordpool_576.txt	LTP310	ltpFR2	19	15	WORLD	1622	n/a	n/a	0	0	0
3057180	WORD	wordpools/wasnorm_wordpool_576.txt	LTP310	ltpFR2	19	15	DONKEY	484	n/a	n/a	0	0	0
3059822	WORD	wordpools/wasnorm_wordpool_576.txt	LTP310	ltpFR2	19	15	FOOT	590	n/a	n/a	0	0	0
3062301	WORD	wordpools/wasnorm_wordpool_576.txt	LTP310	ltpFR2	19	15	PEBBLE	1035	n/a	n/a	0	0	0
3064888	WORD	wordpools/wasnorm_wordpool_576.txt	LTP310	ltpFR2	19	15	CORAL	378	n/a	n/a	0	0	0
3067608	WORD	wordpools/wasnorm_wordpool_576.txt	LTP310	ltpFR2	19	15	GLOBE	641	n/a	n/a	0	0	0
3070379	WORD	wordpools/wasnorm_wordpool_576.txt	LTP310	ltpFR2	19	15	CRUTCH	417	n/a	n/a	0	0	0
3072931	WORD	wordpools/wasnorm_wordpool_576.txt	LTP310	ltpFR2	19	15	DORM	488	n/a	n/a	0	0	0
3075730	WORD	wordpools/wasnorm_wordpool_576.txt	LTP310	ltpFR2	19	15	LEG	809	n/a	n/a	0	0	0
3078170	WORD	wordpools/wasnorm_wordpool_576.txt	LTP310	ltpFR2	19	15	CREVICE	405	n/a	n/a	0	0	0
3080635	WORD	wordpools/wasnorm_wordpool_576.txt	LTP310	ltpFR2	19	15	AIRPLANE	12	n/a	n/a	0	0	0
3083073	WORD	wordpools/wasnorm_wordpool_576.txt	LTP310	ltpFR2	19	15	MATCH	878	n/a	n/a	0	0	0
3085609	WORD	wordpools/wasnorm_wordpool_576.txt	LTP310	ltpFR2	19	15	ISLAND	745	n/a	n/a	0	0	0
3087224	START	n/a	LTP310	ltpFR2	19	n/a	n/a	n/a	22	n/a	n/a	n/a	n/a
3088089	DISTRACTOR	n/a	LTP310	ltpFR2	19	15	n/a	n/a	n/a	n/a	0	0	0
3088095	PROB	n/a	LTP310	ltpFR2	19	n/a	n/a	n/a	22	19	6	6	7
3090543	PROB	n/a	LTP310	ltpFR2	19	n/a	n/a	n/a	22	13	5	7	6
3092094	PROB	n/a	LTP310	ltpFR2	19	n/a	n/a	n/a	22	14	1	5	8
3093946	PROB	n/a	LTP310	ltpFR2	19	n/a	n/a	n/a	22	15	5	8	2
3095080	PROB	n/a	LTP310	ltpFR2	19	n/a	n/a	n/a	22	22	6	7	9
3096914	PROB	n/a	LTP310	ltpFR2	19	n/a	n/a	n/a	22	13	4	8	1
3099501	PROB	n/a	LTP310	ltpFR2	19	n/a	n/a	n/a	22	11	7	1	3
3100787	PROB	n/a	LTP310	ltpFR2	19	n/a	n/a	n/a	22	17	5	5	7
3102155	PROB	n/a	LTP310	ltpFR2	19	n/a	n/a	n/a	22	20	6	7	7
3103807	PROB	n/a	LTP310	ltpFR2	19	n/a	n/a	n/a	22	16	2	9	5
3105272	PROB	n/a	LTP310	ltpFR2	19	n/a	n/a	n/a	22	17	7	6	4
3107058	PROB	n/a	LTP310	ltpFR2	19	n/a	n/a	n/a	22	19	8	2	9
3108243	PROB	n/a	LTP310	ltpFR2	19	n/a	n/a	n/a	22	10	4	2	4
3109819	STOP	n/a	LTP310	ltpFR2	19	n/a	n/a	n/a	22	n/a	n/a	n/a	n/a
3113015	REC_START	n/a	LTP310	ltpFR2	19	15	n/a	n/a	n/a	n/a	0	0	0
3115451	REC_WORD	wordpools/wasnorm_wordpool_576.txt	LTP310	ltpFR2	19	15	SHOULDER	1294	n/a	n/a	0	0	0
3116451	REC_WORD_VV	wordpools/wasnorm_wordpool_576.txt	LTP310	ltpFR2	19	15	<>	-1	n/a	n/a	0	0	0
3116940	REC_WORD	wordpools/wasnorm_wordpool_576.txt	LTP310	ltpFR2	19	15	RAFT	1159	n/a	n/a	0	0	0
3118694	REC_WORD	wordpools/wasnorm_wordpool_576.txt	LTP310	ltpFR2	19	15	LADY	794	n/a	n/a	0	0	0
3119884	REC_WORD	wordpools/wasnorm_wordpool_576.txt	LTP310	ltpFR2	19	15	MATTRESS	879	n/a	n/a	0	0	0
3120859	REC_WORD	wordpools/wasnorm_wordpool_576.txt	LTP310	ltpFR2	19	15	LOFT	840	n/a	n/a	0	0	0
3122334	REC_WORD	wordpools/wasnorm_wordpool_576.txt	LTP310	ltpFR2	19	15	DRINK	498	n/a	n/a	0	0	0
3123142	REC_WORD	wordpools/wasnorm_wordpool_576.txt	LTP310	ltpFR2	19	15	PAIL	1002	n/a	n/a	0	0	0
3123814	REC_WORD_VV	wordpools/wasnorm_wordpool_576.txt	LTP310	ltpFR2	19	15	<>	-1	n/a	n/a	0	0	0
3125276	REC_WORD	wordpools/wasnorm_wordpool_576.txt	LTP310	ltpFR2	19	15	XEROX	1628	n/a	n/a	0	0	0
3126231	REC_WORD	wordpools/wasnorm_wordpool_576.txt	LTP310	ltpFR2	19	15	LION	827	n/a	n/a	0	0	0
3128377	REC_WORD	wordpools/wasnorm_wordpool_576.txt	LTP310	ltpFR2	19	15	COLLEGE	346	n/a	n/a	0	0	0
3129416	REC_WORD	wordpools/wasnorm_wordpool_576.txt	LTP310	ltpFR2	19	15	DONKEY	484	n/a	n/a	0	0	0
3130601	REC_WORD	wordpools/wasnorm_wordpool_576.txt	LTP310	ltpFR2	19	15	FOOT	590	n/a	n/a	0	0	0
3137466	REC_WORD	wordpools/wasnorm_wordpool_576.txt	LTP310	ltpFR2	19	15	AIRPLANE	12	n/a	n/a	0	0	0
3138430	REC_WORD	wordpools/wasnorm_wordpool_576.txt	LTP310	ltpFR2	19	15	ISLAND	745	n/a	n/a	0	0	0
3139430	REC_WORD_VV	wordpools/wasnorm_wordpool_576.txt	LTP310	ltpFR2	19	15	<>	-1	n/a	n/a	0	0	0
3143909	REC_WORD	wordpools/wasnorm_wordpool_576.txt	LTP310	ltpFR2	19	15	CANAL	226	n/a	n/a	0	0	0
3146960	REC_WORD	wordpools/wasnorm_wordpool_576.txt	LTP310	ltpFR2	19	15	CREVICE	405	n/a	n/a	0	0	0
3148246	REC_WORD	wordpools/wasnorm_wordpool_576.txt	LTP310	ltpFR2	19	15	LEG	809	n/a	n/a	0	0	0
3203452	WORD	wordpools/wasnorm_wordpool_576.txt	LTP310	ltpFR2	19	16	COMET	353	n/a	n/a	0	0	0
3206162	WORD	wordpools/wasnorm_wordpool_576.txt	LTP310	ltpFR2	19	16	KLEENEX	782	n/a	n/a	0	0	0
3208908	WORD	wordpools/wasnorm_wordpool_576.txt	LTP310	ltpFR2	19	16	ROCKET	1202	n/a	n/a	0	0	0
3211593	WORD	wordpools/wasnorm_wordpool_576.txt	LTP310	ltpFR2	19	16	POSSUM	1112	n/a	n/a	0	0	0
3214278	WORD	wordpools/wasnorm_wordpool_576.txt	LTP310	ltpFR2	19	16	BUREAU	199	n/a	n/a	0	0	0
3216780	WORD	wordpools/wasnorm_wordpool_576.txt	LTP310	ltpFR2	19	16	DRESSER	496	n/a	n/a	0	0	0
3219281	WORD	wordpools/wasnorm_wordpool_576.txt	LTP310	ltpFR2	19	16	FRAME	600	n/a	n/a	0	0	0
3221975	WORD	wordpools/wasnorm_wordpool_576.txt	LTP310	ltpFR2	19	16	SLUG	1329	n/a	n/a	0	0	0
3224503	WORD	wordpools/wasnorm_wordpool_576.txt	LTP310	ltpFR2	19	16	MACHINE	852	n/a	n/a	0	0	0
3227195	WORD	wordpools/wasnorm_wordpool_576.txt	LTP310	ltpFR2	19	16	LOVER	846	n/a	n/a	0	0	0
3229916	WORD	wordpools/wasnorm_wordpool_576.txt	LTP310	ltpFR2	19	16	BROTHER	179	n/a	n/a	0	0	0
3232359	WORD	wordpools/wasnorm_wordpool_576.txt	LTP310	ltpFR2	19	16	SCALLOP	1242	n/a	n/a	0	0	0
3235095	WORD	wordpools/wasnorm_wordpool_576.txt	LTP310	ltpFR2	19	16	PARTNER	1017	n/a	n/a	0	0	0
3237764	WORD	wordpools/wasnorm_wordpool_576.txt	LTP310	ltpFR2	19	16	CABBAGE	210	n/a	n/a	0	0	0
3240248	WORD	wordpools/wasnorm_wordpool_576.txt	LTP310	ltpFR2	19	16	CARROT	249	n/a	n/a	0	0	0
3242736	WORD	wordpools/wasnorm_wordpool_576.txt	LTP310	ltpFR2	19	16	PAPER	1011	n/a	n/a	0	0	0
3245395	WORD	wordpools/wasnorm_wordpool_576.txt	LTP310	ltpFR2	19	16	BINDER	127	n/a	n/a	0	0	0
3248090	WORD	wordpools/wasnorm_wordpool_576.txt	LTP310	ltpFR2	19	16	BODY	145	n/a	n/a	0	0	0
3250532	WORD	wordpools/wasnorm_wordpool_576.txt	LTP310	ltpFR2	19	16	WIFE	1609	n/a	n/a	0	0	0
3253036	WORD	wordpools/wasnorm_wordpool_576.txt	LTP310	ltpFR2	19	16	JELLY	755	n/a	n/a	0	0	0
3255679	WORD	wordpools/wasnorm_wordpool_576.txt	LTP310	ltpFR2	19	16	SEAL	1262	n/a	n/a	0	0	0
3258489	WORD	wordpools/wasnorm_wordpool_576.txt	LTP310	ltpFR2	19	16	PUDDLE	1140	n/a	n/a	0	0	0
3261132	WORD	wordpools/wasnorm_wordpool_576.txt	LTP310	ltpFR2	19	16	BABY	64	n/a	n/a	0	0	0
3263651	WORD	wordpools/wasnorm_wordpool_576.txt	LTP310	ltpFR2	19	16	CLAM	315	n/a	n/a	0	0	0
3265262	START	n/a	LTP310	ltpFR2	19	n/a	n/a	n/a	23	n/a	n/a	n/a	n/a
3266241	DISTRACTOR	n/a	LTP310	ltpFR2	19	16	n/a	n/a	n/a	n/a	0	0	0
3266246	PROB	n/a	LTP310	ltpFR2	19	n/a	n/a	n/a	23	19	8	2	9
3268338	PROB	n/a	LTP310	ltpFR2	19	n/a	n/a	n/a	23	11	4	4	3
3270256	PROB	n/a	LTP310	ltpFR2	19	n/a	n/a	n/a	23	21	9	3	9
3272191	PROB	n/a	LTP310	ltpFR2	19	n/a	n/a	n/a	23	16	5	4	7
3274326	PROB	n/a	LTP310	ltpFR2	19	n/a	n/a	n/a	23	18	9	1	8
3275492	PROB	n/a	LTP310	ltpFR2	19	n/a	n/a	n/a	23	19	6	5	8
3276944	PROB	n/a	LTP310	ltpFR2	19	n/a	n/a	n/a	23	14	1	7	6
3278512	PROB	n/a	LTP310	ltpFR2	19	n/a	n/a	n/a	23	16	1	8	7
3280164	PROB	n/a	LTP310	ltpFR2	19	n/a	n/a	n/a	23	10	3	1	6
3281531	PROB	n/a	LTP310	ltpFR2	19	n/a	n/a	n/a	23	24	9	9	6
3283400	PROB	n/a	LTP310	ltpFR2	19	n/a	n/a	n/a	23	11	1	1	9
3284884	PROB	n/a	LTP310	ltpFR2	19	n/a	n/a	n/a	23	10	2	2	6
3286269	PROB	n/a	LTP310	ltpFR2	19	n/a	n/a	n/a	23	12	3	1	8
3287620	PROB	n/a	LTP310	ltpFR2	19	n/a	n/a	n/a	23	16	9	6	1
3289185	STOP	n/a	LTP310	ltpFR2	19	n/a	n/a	n/a	23	n/a	n/a	n/a	n/a
3291023	REC_START	n/a	LTP310	ltpFR2	19	16	n/a	n/a	n/a	n/a	0	0	0
3294571	REC_WORD	wordpools/wasnorm_wordpool_576.txt	LTP310	ltpFR2	19	16	POSSUM	1112	n/a	n/a	0	0	0
3295571	REC_WORD_VV	wordpools/wasnorm_wordpool_576.txt	LTP310	ltpFR2	19	16	<>	-1	n/a	n/a	0	0	0
3295823	REC_WORD	wordpools/wasnorm_wordpool_576.txt	LTP310	ltpFR2	19	16	COMET	353	n/a	n/a	0	0	0
3299602	REC_WORD	wordpools/wasnorm_wordpool_576.txt	LTP310	ltpFR2	19	16	ROCKET	1202	n/a	n/a	0	0	0
3302446	REC_WORD	wordpools/wasnorm_wordpool_576.txt	LTP310	ltpFR2	19	16	KLEENEX	782	n/a	n/a	0	0	0
3303591	REC_WORD	wordpools/wasnorm_wordpool_576.txt	LTP310	ltpFR2	19	16	BUREAU	199	n/a	n/a	0	0	0
3304596	REC_WORD	wordpools/wasnorm_wordpool_576.txt	LTP310	ltpFR2	19	16	DRESSER	496	n/a	n/a	0	0	0
3305432	REC_WORD	wordpools/wasnorm_wordpool_576.txt	LTP310	ltpFR2	19	16	FRAME	600	n/a	n/a	0	0	0
3306922	REC_WORD	wordpools/wasnorm_wordpool_576.txt	LTP310	ltpFR2	19	16	SLUG	1329	n/a	n/a	0	0	0
3307892	REC_WORD	wordpools/wasnorm_wordpool_576.txt	LTP310	ltpFR2	19	16	MACHINE	852	n/a	n/a	0	0	0
3308950	REC_WORD	wordpools/wasnorm_wordpool_576.txt	LTP310	ltpFR2	19	16	LOVER	846	n/a	n/a	0	0	0
3310356	REC_WORD	wordpools/wasnorm_wordpool_576.txt	LTP310	ltpFR2	19	16	BROTHER	179	n/a	n/a	0	0	0
3315690	REC_WORD	wordpools/wasnorm_wordpool_576.txt	LTP310	ltpFR2	19	16	SCALLOP	1242	n/a	n/a	0	0	0
3316789	REC_WORD	wordpools/wasnorm_wordpool_576.txt	LTP310	ltpFR2	19	16	PARTNER	1017	n/a	n/a	0	0	0
3317789	REC_WORD_VV	wordpools/wasnorm_wordpool_576.txt	LTP310	ltpFR2	19	16	<>	-1	n/a	n/a	0	0	0
3318319	REC_WORD	wordpools/wasnorm_wordpool_576.txt	LTP310	ltpFR2	19	16	CABBAGE	210	n/a	n/a	0	0	0
3319167	REC_WORD	wordpools/wasnorm_wordpool_576.txt	LTP310	ltpFR2	19	16	CARROT	249	n/a	n/a	0	0	0
3319932	REC_WORD	wordpools/wasnorm_wordpool_576.txt	LTP310	ltpFR2	19	16	PAPER	1011	n/a	n/a	0	0	0
3320907	REC_WORD	wordpools/wasnorm_wordpool_576.txt	LTP310	ltpFR2	19	16	BINDER	127	n/a	n/a	0	0	0
3323467	REC_WORD	wordpools/wasnorm_wordpool_576.txt	LTP310	ltpFR2	19	16	BODY	145	n/a	n/a	0	0	0
3324176	REC_WORD	wordpools/wasnorm_wordpool_576.txt	LTP310	ltpFR2	19	16	WIFE	1609	n/a	n/a	0	0	0
3325184	REC_WORD	wordpools/wasnorm_wordpool_576.txt	LTP310	ltpFR2	19	16	JELLY	755	n/a	n/a	0	0	0
3326328	REC_WORD	wordpools/wasnorm_wordpool_576.txt	LTP310	ltpFR2	19	16	SEAL	1262	n/a	n/a	0	0	0
3328322	REC_WORD	wordpools/wasnorm_wordpool_576.txt	LTP310	ltpFR2	19	16	PUDDLE	1140	n/a	n/a	0	0	0
3329221	REC_WORD	wordpools/wasnorm_wordpool_576.txt	LTP310	ltpFR2	19	16	BABY	64	n/a	n/a	0	0	0
3329833	REC_WORD	wordpools/wasnorm_wordpool_576.txt	LTP310	ltpFR2	19	16	CLAM	315	n/a	n/a	0	0	0
3367568	REST_REWET	n/a	LTP310	ltpFR2	19	16	n/a	n/a	n/a	n/a	0	0	0
3657067	WORD	wordpools/wasnorm_wordpool_576.txt	LTP310	ltpFR2	19	17	GLOVE	642	n/a	n/a	0	0	0
3659670	WORD	wordpools/wasnorm_wordpool_576.txt	LTP310	ltpFR2	19	17	FINGER	567	n/a	n/a	0	0	0
3662108	WORD	wordpools/wasnorm_wordpool_576.txt	LTP310	ltpFR2	19	17	BREAST	171	n/a	n/a	0	0	0
3664590	WORD	wordpools/wasnorm_wordpool_576.txt	LTP310	ltpFR2	19	17	CRAYON	401	n/a	n/a	0	0	0
3667076	WORD	wordpools/wasnorm_wordpool_576.txt	LTP310	ltpFR2	19	17	PIGMENT	1066	n/a	n/a	0	0	0
3669811	WORD	wordpools/wasnorm_wordpool_576.txt	LTP310	ltpFR2	19	17	SHORTS	1293	n/a	n/a	0	0	0
3672429	WORD	wordpools/wasnorm_wordpool_576.txt	LTP310	ltpFR2	19	17	SMOG	1330	n/a	n/a	0	0	0
3675049	WORD	wordpools/wasnorm_wordpool_576.txt	LTP310	ltpFR2	19	17	GARDEN	623	n/a	n/a	0	0	0
3677638	WORD	wordpools/wasnorm_wordpool_576.txt	LTP310	ltpFR2	19	17	FARMER	553	n/a	n/a	0	0	0
3680202	WORD	wordpools/wasnorm_wordpool_576.txt	LTP310	ltpFR2	19	17	MOP	916	n/a	n/a	0	0	0
3682905	WORD	wordpools/wasnorm_wordpool_576.txt	LTP310	ltpFR2	19	17	TILE	1468	n/a	n/a	0	0	0
3685456	WORD	wordpools/wasnorm_wordpool_576.txt	LTP310	ltpFR2	19	17	DRAGON	492	n/a	n/a	0	0	0
3688042	WORD	wordpools/wasnorm_wordpool_576.txt	LTP310	ltpFR2	19	17	SLIME	1327	n/a	n/a	0	0	0
3690794	WORD	wordpools/wasnorm_wordpool_576.txt	LTP310	ltpFR2	19	17	JEANS	752	n/a	n/a	0	0	0
3693378	WORD	wordpools/wasnorm_wordpool_576.txt	LTP310	ltpFR2	19	17	BUG	187	n/a	n/a	0	0	0
3696016	WORD	wordpools/wasnorm_wordpool_576.txt	LTP310	ltpFR2	19	17	CLOCK	325	n/a	n/a	0	0	0
3698484	WORD	wordpools/wasnorm_wordpool_576.txt	LTP310	ltpFR2	19	17	COFFEE	341	n/a	n/a	0	0	0
3701286	WORD	wordpools/wasnorm_wordpool_576.txt	LTP310	ltpFR2	19	17	MARKER	870	n/a	n/a	0	0	0
3703822	WORD	wordpools/wasnorm_wordpool_576.txt	LTP310	ltpFR2	19	17	BUBBLE	183	n/a	n/a	0	0	0
3706440	WORD	wordpools/wasnorm_wordpool_576.txt	LTP310	ltpFR2	19	17	CHIPMUNK	304	n/a	n/a	0	0	0
3709248	WORD	wordpools/wasnorm_wordpool_576.txt	LTP310	ltpFR2	19	17	GYMNAST	675	n/a	n/a	0	0	0
3711769	WORD	wordpools/wasnorm_wordpool_576.txt	LTP310	ltpFR2	19	17	PARROT	1015	n/a	n/a	0	0	0
3714379	WORD	wordpools/wasnorm_wordpool_576.txt	LTP310	ltpFR2	19	17	KNAPSACK	783	n/a	n/a	0	0	0
3717073	WORD	wordpools/wasnorm_wordpool_576.txt	LTP310	ltpFR2	19	17	NOVEL	960	n/a	n/a	0	0	0
3718684	START	n/a	LTP310	ltpFR2	19	n/a	n/a	n/a	24	n/a	n/a	n/a	n/a
3719737	DISTRACTOR	n/a	LTP310	ltpFR2	19	17	n/a	n/a	n/a	n/a	0	0	0
3719743	PROB	n/a	LTP310	ltpFR2	19	n/a	n/a	n/a	24	18	9	2	7
3722435	PROB	n/a	LTP310	ltpFR2	19	n/a	n/a	n/a	24	13	2	5	6
3724171	PROB	n/a	LTP310	ltpFR2	19	n/a	n/a	n/a	24	13	8	3	2
3725688	PROB	n/a	LTP310	ltpFR2	19	n/a	n/a	n/a	24	16	5	9	2
3727607	PROB	n/a	LTP310	ltpFR2	19	n/a	n/a	n/a	24	19	5	7	7
3729207	PROB	n/a	LTP310	ltpFR2	19	n/a	n/a	n/a	24	19	6	7	6
3731710	PROB	n/a	LTP310	ltpFR2	19	n/a	n/a	n/a	24	17	5	9	3
3733411	PROB	n/a	LTP310	ltpFR2	19	n/a	n/a	n/a	24	16	6	9	1
3734846	PROB	n/a	LTP310	ltpFR2	19	n/a	n/a	n/a	24	9	2	6	1
3737331	PROB	n/a	LTP310	ltpFR2	19	n/a	n/a	n/a	24	18	9	7	2
3739264	PROB	n/a	LTP310	ltpFR2	19	n/a	n/a	n/a	24	22	6	9	7
3741419	STOP	n/a	LTP310	ltpFR2	19	n/a	n/a	n/a	24	n/a	n/a	n/a	n/a
3744454	REC_START	n/a	LTP310	ltpFR2	19	17	n/a	n/a	n/a	n/a	0	0	0
3750147	REC_WORD	wordpools/wasnorm_wordpool_576.txt	LTP310	ltpFR2	19	17	GLOVE	642	n/a	n/a	0	0	0
3750929	REC_WORD	wordpools/wasnorm_wordpool_576.txt	LTP310	ltpFR2	19	17	FINGER	567	n/a	n/a	0	0	0
3751814	REC_WORD	wordpools/wasnorm_wordpool_576.txt	LTP310	ltpFR2	19	17	BREAST	171	n/a	n/a	0	0	0
3752690	REC_WORD_VV	wordpools/wasnorm_wordpool_576.txt	LTP310	ltpFR2	19	17	<>	-1	n/a	n/a	0	0	0
3753383	REC_WORD	wordpools/wasnorm_wordpool_576.txt	LTP310	ltpFR2	19	17	CRAYON	401	n/a	n/a	0	0	0
3755462	REC_WORD	wordpools/wasnorm_wordpool_576.txt	LTP310	ltpFR2	19	17	PIGMENT	1066	n/a	n/a	0	0	0
3756449	REC_WORD	wordpools/wasnorm_wordpool_576.txt	LTP310	ltpFR2	19	17	SHORTS	1293	n/a	n/a	0	0	0
3761245	REC_WORD	wordpools/wasnorm_wordpool_576.txt	LTP310	ltpFR2	19	17	SMOG	1330	n/a	n/a	0	0	0
3763741	REC_WORD	wordpools/wasnorm_wordpool_576.txt	LTP310	ltpFR2	19	17	GARDEN	623	n/a	n/a	0	0	0
3768454	REC_WORD	wordpools/wasnorm_wordpool_576.txt	LTP310	ltpFR2	19	17	FARMER	553	n/a	n/a	0	0	0
3770504	REC_WORD	wordpools/wasnorm_wordpool_576.txt	LTP310	ltpFR2	19	17	DRAGON	492	n/a	n/a	0	0	0
3771324	REC_WORD	wordpools/wasnorm_wordpool_576.txt	LTP310	ltpFR2	19	17	SLIME	1327	n/a	n/a	0	0	0
3772282	REC_WORD	wordpools/wasnorm_wordpool_576.txt	LTP310	ltpFR2	19	17	MOP	916	n/a	n/a	0	0	0
3773134	REC_WORD	wordpools/wasnorm_wordpool_576.txt	LTP310	ltpFR2	19	17	TILE	1468	n/a	n/a	0	0	0
3774580	REC_WORD	wordpools/wasnorm_wordpool_576.txt	LTP310	ltpFR2	19	17	CHIPMUNK	304	n/a	n/a	0	0	0
3775531	REC_WORD	wordpools/wasnorm_wordpool_576.txt	LTP310	ltpFR2	19	17	BUBBLE	183	n/a	n/a	0	0	0
3776156	REC_WORD	wordpools/wasnorm_wordpool_576.txt	LTP310	ltpFR2	19	17	GYMNAST	675	n/a	n/a	0	0	0
3777453	REC_WORD	wordpools/wasnorm_wordpool_576.txt	LTP310	ltpFR2	19	17	BUG	187	n/a	n/a	0	0	0
3778224	REC_WORD	wordpools/wasnorm_wordpool_576.txt	LTP310	ltpFR2	19	17	JEANS	752	n/a	n/a	0	0	0
3782273	REC_WORD	wordpools/wasnorm_wordpool_576.txt	LTP310	ltpFR2	19	17	PARROT	1015	n/a	n/a	0	0	0
3782922	REC_WORD	wordpools/wasnorm_wordpool_576.txt	LTP310	ltpFR2	19	17	KNAPSACK	783	n/a	n/a	0	0	0
3784151	REC_WORD	wordpools/wasnorm_wordpool_576.txt	LTP310	ltpFR2	19	17	NOVEL	960	n/a	n/a	0	0	0
3806816	REC_WORD	wordpools/wasnorm_wordpool_576.txt	LTP310	ltpFR2	19	17	COFFEE	341	n/a	n/a	0	0	0
3807401	REC_WORD	wordpools/wasnorm_wordpool_576.txt	LTP310	ltpFR2	19	17	MARKER	870	n/a	n/a	0	0	0
3809630	REC_WORD	wordpools/wasnorm_wordpool_576.txt	LTP310	ltpFR2	19	17	CLOCK	325	n/a	n/a	0	0	0
3834927	WORD	wordpools/wasnorm_wordpool_576.txt	LTP310	ltpFR2	19	18	NOMAD	955	n/a	n/a	0	0	0
3837410	WORD	wordpools/wasnorm_wordpool_576.txt	LTP310	ltpFR2	19	18	COOKBOOK	373	n/a	n/a	0	0	0
3840098	WORD	wordpools/wasnorm_wordpool_576.txt	LTP310	ltpFR2	19	18	COWBOY	395	n/a	n/a	0	0	0
3842917	WORD	wordpools/wasnorm_wordpool_576.txt	LTP310	ltpFR2	19	18	TUBA	1515	n/a	n/a	0	0	0
3845534	WORD	wordpools/wasnorm_wordpool_576.txt	LTP310	ltpFR2	19	18	INMATE	738	n/a	n/a	0	0	0
3848054	WORD	wordpools/wasnorm_wordpool_576.txt	LTP310	ltpFR2	19	18	CREATURE	403	n/a	n/a	0	0	0
3850722	WORD	wordpools/wasnorm_wordpool_576.txt	LTP310	ltpFR2	19	18	SPIDER	1351	n/a	n/a	0	0	0
3853407	WORD	wordpools/wasnorm_wordpool_576.txt	LTP310	ltpFR2	19	18	CRICKET	408	n/a	n/a	0	0	0
3855860	WORD	wordpools/wasnorm_wordpool_576.txt	LTP310	ltpFR2	19	18	TRACTOR	1493	n/a	n/a	0	0	0
3858428	WORD	wordpools/wasnorm_wordpool_576.txt	LTP310	ltpFR2	19	18	VAGRANT	1544	n/a	n/a	0	0	0
3861048	WORD	wordpools/wasnorm_wordpool_576.txt	LTP310	ltpFR2	19	18	HONEY	713	n/a	n/a	0	0	0
3863867	WORD	wordpools/wasnorm_wordpool_576.txt	LTP310	ltpFR2	19	18	STAKE	1368	n/a	n/a	0	0	0
3866369	WORD	wordpools/wasnorm_wordpool_576.txt	LTP310	ltpFR2	19	18	STAR	1373	n/a	n/a	0	0	0
3868988	WORD	wordpools/wasnorm_wordpool_576.txt	LTP310	ltpFR2	19	18	MUMMY	932	n/a	n/a	0	0	0
3871707	WORD	wordpools/wasnorm_wordpool_576.txt	LTP310	ltpFR2	19	18	EGYPT	519	n/a	n/a	0	0	0
3874191	WORD	wordpools/wasnorm_wordpool_576.txt	LTP310	ltpFR2	19	18	HAMPER	682	n/a	n/a	0	0	0
3876694	WORD	wordpools/wasnorm_wordpool_576.txt	LTP310	ltpFR2	19	18	RACKET	1155	n/a	n/a	0	0	0
3879195	WORD	wordpools/wasnorm_wordpool_576.txt	LTP310	ltpFR2	19	18	JUGGLER	763	n/a	n/a	0	0	0
3881748	WORD	wordpools/wasnorm_wordpool_576.txt	LTP310	ltpFR2	19	18	MISTER	901	n/a	n/a	0	0	0
3884569	WORD	wordpools/wasnorm_wordpool_576.txt	LTP310	ltpFR2	19	18	POWDER	1117	n/a	n/a	0	0	0
3887385	WORD	wordpools/wasnorm_wordpool_576.txt	LTP310	ltpFR2	19	18	DAUGHTER	442	n/a	n/a	0	0	0
3889904	WORD	wordpools/wasnorm_wordpool_576.txt	LTP310	ltpFR2	19	18	WASP	1593	n/a	n/a	0	0	0
3892391	WORD	wordpools/wasnorm_wordpool_576.txt	LTP310	ltpFR2	19	18	CIGAR	308	n/a	n/a	0	0	0
3894858	WORD	wordpools/wasnorm_wordpool_576.txt	LTP310	ltpFR2	19	18	MAILBOX	857	n/a	n/a	0	0	0
3896463	START	n/a	LTP310	ltpFR2	19	n/a	n/a	n/a	25	n/a	n/a	n/a	n/a
3897296	DISTRACTOR	n/a	LTP310	ltpFR2	19	18	n/a	n/a	n/a	n/a	0	0	0
3897310	PROB	n/a	LTP310	ltpFR2	19	n/a	n/a	n/a	25	7	3	3	1
3899193	PROB	n/a	LTP310	ltpFR2	19	n/a	n/a	n/a	25	22	7	9	7
3901796	PROB	n/a	LTP310	ltpFR2	19	n/a	n/a	n/a	25	16	6	7	3
3903164	PROB	n/a	LTP310	ltpFR2	19	n/a	n/a	n/a	25	20	8	5	7
3904782	PROB	n/a	LTP310	ltpFR2	19	n/a	n/a	n/a	25	21	6	7	8
3906952	PROB	n/a	LTP310	ltpFR2	19	n/a	n/a	n/a	25	16	4	5	7
3908670	PROB	n/a	LTP310	ltpFR2	19	n/a	n/a	n/a	25	19	6	5	8
3910486	PROB	n/a	LTP310	ltpFR2	19	n/a	n/a	n/a	25	19	9	8	2
3911822	PROB	n/a	LTP310	ltpFR2	19	n/a	n/a	n/a	25	12	5	5	2
3913038	PROB	n/a	LTP310	ltpFR2	19	n/a	n/a	n/a	25	15	6	5	4
3914690	PROB	n/a	LTP310	ltpFR2	19	n/a	n/a	n/a	25	16	6	3	7
3915958	PROB	n/a	LTP310	ltpFR2	19	n/a	n/a	n/a	25	10	8	1	1
3917374	PROB	n/a	LTP310	ltpFR2	19	n/a	n/a	n/a	25	17	7	3	7
3918793	PROB	n/a	LTP310	ltpFR2	19	n/a	n/a	n/a	25	15	5	4	6
3920402	STOP	n/a	LTP310	ltpFR2	19	n/a	n/a	n/a	25	n/a	n/a	n/a	n/a
3922214	REC_START	n/a	LTP310	ltpFR2	19	18	n/a	n/a	n/a	n/a	0	0	0
3925924	REC_WORD	wordpools/wasnorm_wordpool_576.txt	LTP310	ltpFR2	19	18	NOMAD	955	n/a	n/a	0	0	0
3926744	REC_WORD	wordpools/wasnorm_wordpool_576.txt	LTP310	ltpFR2	19	18	COOKBOOK	373	n/a	n/a	0	0	0
3927759	REC_WORD	wordpools/wasnorm_wordpool_576.txt	LTP310	ltpFR2	19	18	COWBOY	395	n/a	n/a	0	0	0
3928992	REC_WORD	wordpools/wasnorm_wordpool_576.txt	LTP310	ltpFR2	19	18	VAGRANT	1544	n/a	n/a	0	0	0
3929787	REC_WORD	wordpools/wasnorm_wordpool_576.txt	LTP310	ltpFR2	19	18	TRACTOR	1493	n/a	n/a	0	0	0
3931539	REC_WORD	wordpools/wasnorm_wordpool_576.txt	LTP310	ltpFR2	19	18	TUBA	1515	n/a	n/a	0	0	0
3932275	REC_WORD	wordpools/wasnorm_wordpool_576.txt	LTP310	ltpFR2	19	18	INMATE	738	n/a	n/a	0	0	0
3934235	REC_WORD	wordpools/wasnorm_wordpool_576.txt	LTP310	ltpFR2	19	18	CREATURE	403	n/a	n/a	0	0	0
3934908	REC_WORD	wordpools/wasnorm_wordpool_576.txt	LTP310	ltpFR2	19	18	SPIDER	1351	n/a	n/a	0	0	0
3935953	REC_WORD	wordpools/wasnorm_wordpool_576.txt	LTP310	ltpFR2	19	18	CRICKET	408	n/a	n/a	0	0	0
3938003	REC_WORD	wordpools/wasnorm_wordpool_576.txt	LTP310	ltpFR2	19	18	WASP	1593	n/a	n/a	0	0	0
3939141	REC_WORD	wordpools/wasnorm_wordpool_576.txt	LTP310	ltpFR2	19	18	DAUGHTER	442	n/a	n/a	0	0	0
3940059	REC_WORD	wordpools/wasnorm_wordpool_576.txt	LTP310	ltpFR2	19	18	MISTER	901	n/a	n/a	0	0	0
3940771	REC_WORD	wordpools/wasnorm_wordpool_576.txt	LTP310	ltpFR2	19	18	POWDER	1117	n/a	n/a	0	0	0
3942666	REC_WORD	wordpools/wasnorm_wordpool_576.txt	LTP310	ltpFR2	19	18	JUGGLER	763	n/a	n/a	0	0	0
3944868	REC_WORD	wordpools/wasnorm_wordpool_576.txt	LTP310	ltpFR2	19	18	MAILBOX	857	n/a	n/a	0	0	0
3945868	REC_WORD_VV	wordpools/wasnorm_wordpool_576.txt	LTP310	ltpFR2	19	18	<>	-1	n/a	n/a	0	0	0
3949418	REC_WORD	wordpools/wasnorm_wordpool_576.txt	LTP310	ltpFR2	19	18	TRACTOR	1493	n/a	n/a	0	0	0
3950247	REC_WORD	wordpools/wasnorm_wordpool_576.txt	LTP310	ltpFR2	19	18	HONEY	713	n/a	n/a	0	0	0
3951686	REC_WORD	wordpools/wasnorm_wordpool_576.txt	LTP310	ltpFR2	19	18	STAKE	1368	n/a	n/a	0	0	0
3952626	REC_WORD	wordpools/wasnorm_wordpool_576.txt	LTP310	ltpFR2	19	18	STAR	1373	n/a	n/a	0	0	0
3953626	REC_WORD_VV	wordpools/wasnorm_wordpool_576.txt	LTP310	ltpFR2	19	18	<>	-1	n/a	n/a	0	0	0
3960564	REC_WORD	wordpools/wasnorm_wordpool_576.txt	LTP310	ltpFR2	19	18	MUMMY	932	n/a	n/a	0	0	0
3961268	REC_WORD	wordpools/wasnorm_wordpool_576.txt	LTP310	ltpFR2	19	18	EGYPT	519	n/a	n/a	0	0	0
4012648	DISTRACTOR	n/a	LTP310	ltpFR2	19	19	n/a	n/a	n/a	n/a	0	0	0
4012649	START	n/a	LTP310	ltpFR2	19	n/a	n/a	n/a	26	n/a	n/a	n/a	n/a
4012663	PROB	n/a	LTP310	ltpFR2	19	n/a	n/a	n/a	26	18	5	9	4
4015020	PROB	n/a	LTP310	ltpFR2	19	n/a	n/a	n/a	26	15	4	8	3
4016606	PROB	n/a	LTP310	ltpFR2	19	n/a	n/a	n/a	26	13	4	3	6
4018840	PROB	n/a	LTP310	ltpFR2	19	n/a	n/a	n/a	26	15	2	5	8
4020207	PROB	n/a	LTP310	ltpFR2	19	n/a	n/a	n/a	26	7	2	4	1
4021955	PROB	n/a	LTP310	ltpFR2	19	n/a	n/a	n/a	26	14	4	3	7
4023411	PROB	n/a	LTP310	ltpFR2	19	n/a	n/a	n/a	26	20	9	8	3
4025228	PROB	n/a	LTP310	ltpFR2	19	n/a	n/a	n/a	26	18	5	6	7
4026780	PROB	n/a	LTP310	ltpFR2	19	n/a	n/a	n/a	26	15	5	9	1
4027964	PROB	n/a	LTP310	ltpFR2	19	n/a	n/a	n/a	26	9	1	3	5
4029315	PROB	n/a	LTP310	ltpFR2	19	n/a	n/a	n/a	26	24	8	9	7
4031268	PROB	n/a	LTP310	ltpFR2	19	n/a	n/a	n/a	26	16	9	1	6
4032480	PROB	n/a	LTP310	ltpFR2	19	n/a	n/a	n/a	26	20	6	9	5
4034331	PROB	n/a	LTP310	ltpFR2	19	n/a	n/a	n/a	26	18	6	6	6
4035664	STOP	n/a	LTP310	ltpFR2	19	n/a	n/a	n/a	26	n/a	n/a	n/a	n/a
4037770	WORD	wordpools/wasnorm_wordpool_576.txt	LTP310	ltpFR2	19	19	DRILL	497	n/a	n/a	0	0	0
4040254	WORD	wordpools/wasnorm_wordpool_576.txt	LTP310	ltpFR2	19	19	ZIPPER	1636	n/a	n/a	0	0	0
4042940	WORD	wordpools/wasnorm_wordpool_576.txt	LTP310	ltpFR2	19	19	FEMALE	559	n/a	n/a	0	0	0
4045392	WORD	wordpools/wasnorm_wordpool_576.txt	LTP310	ltpFR2	19	19	HORNET	718	n/a	n/a	0	0	0
4047831	WORD	wordpools/wasnorm_wordpool_576.txt	LTP310	ltpFR2	19	19	POET	1095	n/a	n/a	0	0	0
4050263	WORD	wordpools/wasnorm_wordpool_576.txt	LTP310	ltpFR2	19	19	PATROL	1027	n/a	n/a	0	0	0
4052882	WORD	wordpools/wasnorm_wordpool_576.txt	LTP310	ltpFR2	19	19	THRONE	1461	n/a	n/a	0	0	0
4055651	WORD	wordpools/wasnorm_wordpool_576.txt	LTP310	ltpFR2	19	19	PALACE	1006	n/a	n/a	0	0	0
4058104	WORD	wordpools/wasnorm_wordpool_576.txt	LTP310	ltpFR2	19	19	AWARD	63	n/a	n/a	0	0	0
4060690	WORD	wordpools/wasnorm_wordpool_576.txt	LTP310	ltpFR2	19	19	HEART	697	n/a	n/a	0	0	0
4063424	WORD	wordpools/wasnorm_wordpool_576.txt	LTP310	ltpFR2	19	19	GROUND	666	n/a	n/a	0	0	0
4065961	WORD	wordpools/wasnorm_wordpool_576.txt	LTP310	ltpFR2	19	19	VIRUS	1572	n/a	n/a	0	0	0
4068496	WORD	wordpools/wasnorm_wordpool_576.txt	LTP310	ltpFR2	19	19	BEAST	108	n/a	n/a	0	0	0
4071099	WORD	wordpools/wasnorm_wordpool_576.txt	LTP310	ltpFR2	19	19	MONSTER	912	n/a	n/a	0	0	0
4073685	WORD	wordpools/wasnorm_wordpool_576.txt	LTP310	ltpFR2	19	19	MEDAL	885	n/a	n/a	0	0	0
4076120	WORD	wordpools/wasnorm_wordpool_576.txt	LTP310	ltpFR2	19	19	PANTHER	1009	n/a	n/a	0	0	0
4078554	WORD	wordpools/wasnorm_wordpool_576.txt	LTP310	ltpFR2	19	19	ORCHID	982	n/a	n/a	0	0	0
4081190	WORD	wordpools/wasnorm_wordpool_576.txt	LTP310	ltpFR2	19	19	BURGLAR	200	n/a	n/a	0	0	0
4083676	WORD	wordpools/wasnorm_wordpool_576.txt	LTP310	ltpFR2	19	19	MASK	876	n/a	n/a	0	0	0
4086460	WORD	wordpools/wasnorm_wordpool_576.txt	LTP310	ltpFR2	19	19	GREASE	660	n/a	n/a	0	0	0
4088915	WORD	wordpools/wasnorm_wordpool_576.txt	LTP310	ltpFR2	19	19	BEEF	113	n/a	n/a	0	0	0
4091399	WORD	wordpools/wasnorm_wordpool_576.txt	LTP310	ltpFR2	19	19	FIREMAN	569	n/a	n/a	0	0	0
4093985	WORD	wordpools/wasnorm_wordpool_576.txt	LTP310	ltpFR2	19	19	TWEEZERS	1526	n/a	n/a	0	0	0
4096754	WORD	wordpools/wasnorm_wordpool_576.txt	LTP310	ltpFR2	19	19	POSTAGE	1113	n/a	n/a	0	0	0
4098372	START	n/a	LTP310	ltpFR2	19	n/a	n/a	n/a	27	n/a	n/a	n/a	n/a
4099184	DISTRACTOR	n/a	LTP310	ltpFR2	19	19	n/a	n/a	n/a	n/a	0	0	0
4099188	PROB	n/a	LTP310	ltpFR2	19	n/a	n/a	n/a	27	23	8	9	6
4101891	PROB	n/a	LTP310	ltpFR2	19	n/a	n/a	n/a	27	5	3	1	1
4103041	PROB	n/a	LTP310	ltpFR2	19	n/a	n/a	n/a	27	19	9	5	5
4104557	PROB	n/a	LTP310	ltpFR2	19	n/a	n/a	n/a	27	17	6	9	2
4106426	PROB	n/a	LTP310	ltpFR2	19	n/a	n/a	n/a	27	15	6	2	7
4108477	PROB	n/a	LTP310	ltpFR2	19	n/a	n/a	n/a	27	17	7	6	4
4109797	PROB	n/a	LTP310	ltpFR2	19	n/a	n/a	n/a	27	14	6	7	1
4111397	PROB	n/a	LTP310	ltpFR2	19	n/a	n/a	n/a	27	13	1	6	6
4113349	PROB	n/a	LTP310	ltpFR2	19	n/a	n/a	n/a	27	22	4	9	9
4115017	PROB	n/a	LTP310	ltpFR2	19	n/a	n/a	n/a	27	20	7	7	6
4116803	PROB	n/a	LTP310	ltpFR2	19	n/a	n/a	n/a	27	16	8	1	7
4118552	PROB	n/a	LTP310	ltpFR2	19	n/a	n/a	n/a	27	14	5	1	8
4120023	PROB	n/a	LTP310	ltpFR2	19	n/a	n/a	n/a	27	15	7	7	1
4121266	STOP	n/a	LTP310	ltpFR2	19	n/a	n/a	n/a	27	n/a	n/a	n/a	n/a
4124226	REC_START	n/a	LTP310	ltpFR2	19	19	n/a	n/a	n/a	n/a	0	0	0
4129839	REC_WORD	wordpools/wasnorm_wordpool_576.txt	LTP310	ltpFR2	19	19	VIRUS	1572	n/a	n/a	0	0	0
4130753	REC_WORD	wordpools/wasnorm_wordpool_576.txt	LTP310	ltpFR2	19	19	BEAST	108	n/a	n/a	0	0	0
4131579	REC_WORD	wordpools/wasnorm_wordpool_576.txt	LTP310	ltpFR2	19	19	MONSTER	912	n/a	n/a	0	0	0
4132579	REC_WORD_VV	wordpools/wasnorm_wordpool_576.txt	LTP310	ltpFR2	19	19	<>	-1	n/a	n/a	0	0	0
4134057	REC_WORD	wordpools/wasnorm_wordpool_576.txt	LTP310	ltpFR2	19	19	MEDAL	885	n/a	n/a	0	0	0
4134730	REC_WORD	wordpools/wasnorm_wordpool_576.txt	LTP310	ltpFR2	19	19	HEART	697	n/a	n/a	0	0	0
4137351	REC_WORD	wordpools/wasnorm_wordpool_576.txt	LTP310	ltpFR2	19	19	MONSTER	912	n/a	n/a	0	0	0
4138080	REC_WORD	wordpools/wasnorm_wordpool_576.txt	LTP310	ltpFR2	19	19	FEMALE	559	n/a	n/a	0	0	0
4138936	REC_WORD	wordpools/wasnorm_wordpool_576.txt	LTP310	ltpFR2	19	19	THRONE	1461	n/a	n/a	0	0	0
4141537	REC_WORD	wordpools/wasnorm_wordpool_576.txt	LTP310	ltpFR2	19	19	ZIPPER	1636	n/a	n/a	0	0	0
4147990	REC_WORD	wordpools/wasnorm_wordpool_576.txt	LTP310	ltpFR2	19	19	HEART	697	n/a	n/a	0	0	0
4149457	REC_WORD	wordpools/wasnorm_wordpool_576.txt	LTP310	ltpFR2	19	19	MEDAL	885	n/a	n/a	0	0	0
4152583	REC_WORD	wordpools/wasnorm_wordpool_576.txt	LTP310	ltpFR2	19	19	ORCHID	982	n/a	n/a	0	0	0
4153378	REC_WORD	wordpools/wasnorm_wordpool_576.txt	LTP310	ltpFR2	19	19	PANTHER	1009	n/a	n/a	0	0	0
4154432	REC_WORD	wordpools/wasnorm_wordpool_576.txt	LTP310	ltpFR2	19	19	GREASE	660	n/a	n/a	0	0	0
4155343	REC_WORD	wordpools/wasnorm_wordpool_576.txt	LTP310	ltpFR2	19	19	BEEF	113	n/a	n/a	0	0	0
4156793	REC_WORD	wordpools/wasnorm_wordpool_576.txt	LTP310	ltpFR2	19	19	MAIL	-1	n/a	n/a	0	0	0
4157583	REC_WORD	wordpools/wasnorm_wordpool_576.txt	LTP310	ltpFR2	19	19	TWEEZERS	1526	n/a	n/a	0	0	0
4159333	REC_WORD	wordpools/wasnorm_wordpool_576.txt	LTP310	ltpFR2	19	19	FIREMAN	569	n/a	n/a	0	0	0
4214658	DISTRACTOR	n/a	LTP310	ltpFR2	19	20	n/a	n/a	n/a	n/a	0	0	0
4214658	START	n/a	LTP310	ltpFR2	19	n/a	n/a	n/a	28	n/a	n/a	n/a	n/a
4214675	PROB	n/a	LTP310	ltpFR2	19	n/a	n/a	n/a	28	13	2	7	4
4216633	PROB	n/a	LTP310	ltpFR2	19	n/a	n/a	n/a	28	13	1	7	5
4218450	PROB	n/a	LTP310	ltpFR2	19	n/a	n/a	n/a	28	18	3	8	7
4220068	PROB	n/a	LTP310	ltpFR2	19	n/a	n/a	n/a	28	13	8	3	2
4223388	PROB	n/a	LTP310	ltpFR2	19	n/a	n/a	n/a	28	7	1	5	1
4224755	PROB	n/a	LTP310	ltpFR2	19	n/a	n/a	n/a	28	17	5	7	5
4226272	PROB	n/a	LTP310	ltpFR2	19	n/a	n/a	n/a	28	15	8	2	5
4227473	PROB	n/a	LTP310	ltpFR2	19	n/a	n/a	n/a	28	21	7	9	5
4229492	PROB	n/a	LTP310	ltpFR2	19	n/a	n/a	n/a	28	6	1	2	3
4230612	PROB	n/a	LTP310	ltpFR2	19	n/a	n/a	n/a	28	19	4	6	9
4231877	PROB	n/a	LTP310	ltpFR2	19	n/a	n/a	n/a	28	15	2	5	8
4234130	PROB	n/a	LTP310	ltpFR2	19	n/a	n/a	n/a	28	18	5	6	7
4235849	PROB	n/a	LTP310	ltpFR2	19	n/a	n/a	n/a	28	18	3	7	8
4237303	STOP	n/a	LTP310	ltpFR2	19	n/a	n/a	n/a	28	n/a	n/a	n/a	n/a
4239618	WORD	wordpools/wasnorm_wordpool_576.txt	LTP310	ltpFR2	19	20	TEMPLE	1448	n/a	n/a	0	0	0
4242071	WORD	wordpools/wasnorm_wordpool_576.txt	LTP310	ltpFR2	19	20	PREACHER	1119	n/a	n/a	0	0	0
4244539	WORD	wordpools/wasnorm_wordpool_576.txt	LTP310	ltpFR2	19	20	SWIMMER	1420	n/a	n/a	0	0	0
4247024	WORD	wordpools/wasnorm_wordpool_576.txt	LTP310	ltpFR2	19	20	HAWK	692	n/a	n/a	0	0	0
4249805	WORD	wordpools/wasnorm_wordpool_576.txt	LTP310	ltpFR2	19	20	PUDDING	1139	n/a	n/a	0	0	0
4252245	WORD	wordpools/wasnorm_wordpool_576.txt	LTP310	ltpFR2	19	20	CHEMIST	292	n/a	n/a	0	0	0
4255059	WORD	wordpools/wasnorm_wordpool_576.txt	LTP310	ltpFR2	19	20	BLOCKADE	137	n/a	n/a	0	0	0
4257632	WORD	wordpools/wasnorm_wordpool_576.txt	LTP310	ltpFR2	19	20	TERMITE	1451	n/a	n/a	0	0	0
4260113	WORD	wordpools/wasnorm_wordpool_576.txt	LTP310	ltpFR2	19	20	ULCER	1533	n/a	n/a	0	0	0
4262803	WORD	wordpools/wasnorm_wordpool_576.txt	LTP310	ltpFR2	19	20	FIDDLE	561	n/a	n/a	0	0	0
4265484	WORD	wordpools/wasnorm_wordpool_576.txt	LTP310	ltpFR2	19	20	BLUEPRINT	142	n/a	n/a	0	0	0
4267970	WORD	wordpools/wasnorm_wordpool_576.txt	LTP310	ltpFR2	19	20	GAZELLE	628	n/a	n/a	0	0	0
4270454	WORD	wordpools/wasnorm_wordpool_576.txt	LTP310	ltpFR2	19	20	BEAVER	109	n/a	n/a	0	0	0
4273041	WORD	wordpools/wasnorm_wordpool_576.txt	LTP310	ltpFR2	19	20	ANKLE	24	n/a	n/a	0	0	0
4275627	WORD	wordpools/wasnorm_wordpool_576.txt	LTP310	ltpFR2	19	20	BUCKET	184	n/a	n/a	0	0	0
