onset	duration	trial_type	sample	stim_file	subject	experiment	session	trial	task	item_name	item_num	recog_conf	resp	color_b	color_g	color_r	case	font
329.366	n/a	SESS_START	164683	n/a	LTP283	ltpFR	17	n/a	n/a	n/a	n/a	3	n/a	n/a	n/a	n/a	n/a	n/a
367.618	n/a	WORD	183809	wordpools/wasnorm_wordpool_less_exclusions.txt	LTP283	ltpFR	17	1	0	FATHER	554	n/a	1	1	0.412841796875	0.57763671875	lower	../fonts/zerothre.ttf
371.526	n/a	WORD	185763	wordpools/wasnorm_wordpool_less_exclusions.txt	LTP283	ltpFR	17	1	0	CANNON	232	n/a	1	1	0.412841796875	0.57763671875	lower	../fonts/zerothre.ttf
375.716	n/a	WORD	187858	wordpools/wasnorm_wordpool_less_exclusions.txt	LTP283	ltpFR	17	1	0	STEREO	1378	n/a	1	1	0.412841796875	0.57763671875	lower	../fonts/zerothre.ttf
379.546	n/a	WORD	189773	wordpools/wasnorm_wordpool_less_exclusions.txt	LTP283	ltpFR	17	1	0	JUNGLE	764	n/a	1	1	0.412841796875	0.57763671875	lower	../fonts/zerothre.ttf
383.544	n/a	WORD	191772	wordpools/wasnorm_wordpool_less_exclusions.txt	LTP283	ltpFR	17	1	1	SARDINE	1235	n/a	1	0	0.5869140625	0.422607421875	upper	../fonts/amplitud.ttf
387.392	n/a	WORD	193696	wordpools/wasnorm_wordpool_less_exclusions.txt	LTP283	ltpFR	17	1	1	SHRIMP	1297	n/a	1	0	0.5869140625	0.422607421875	upper	../fonts/amplitud.ttf
391.436	n/a	WORD	195718	wordpools/wasnorm_wordpool_less_exclusions.txt	LTP283	ltpFR	17	1	1	ITEM	746	n/a	0	0	0.5869140625	0.422607421875	upper	../fonts/amplitud.ttf
395.602	n/a	WORD	197801	wordpools/wasnorm_wordpool_less_exclusions.txt	LTP283	ltpFR	17	1	1	CUE	422	n/a	0	0	0.5869140625	0.422607421875	upper	../fonts/amplitud.ttf
399.74	n/a	WORD	199870	wordpools/wasnorm_wordpool_less_exclusions.txt	LTP283	ltpFR	17	1	1	DOUGHNUT	490	n/a	0	0	0.5869140625	0.422607421875	upper	../fonts/amplitud.ttf
403.656	n/a	WORD	201828	wordpools/wasnorm_wordpool_less_exclusions.txt	LTP283	ltpFR	17	1	1	SQUIRREL	1362	n/a	1	0	0.5869140625	0.422607421875	upper	../fonts/amplitud.ttf
407.682	n/a	WORD	203841	wordpools/wasnorm_wordpool_less_exclusions.txt	LTP283	ltpFR	17	1	0	SHOP	1290	n/a	1	1	0.412841796875	0.57763671875	lower	../fonts/zerothre.ttf
411.77	n/a	WORD	205885	wordpools/wasnorm_wordpool_less_exclusions.txt	LTP283	ltpFR	17	1	0	ORNAMENT	985	n/a	0	1	0.412841796875	0.57763671875	lower	../fonts/zerothre.ttf
415.918	n/a	WORD	207959	wordpools/wasnorm_wordpool_less_exclusions.txt	LTP283	ltpFR	17	1	0	VETERAN	1561	n/a	1	1	0.412841796875	0.57763671875	lower	../fonts/zerothre.ttf
419.76	n/a	WORD	209880	wordpools/wasnorm_wordpool_less_exclusions.txt	LTP283	ltpFR	17	1	0	PARENT	1013	n/a	1	1	0.412841796875	0.57763671875	lower	../fonts/zerothre.ttf
423.664	n/a	WORD	211832	wordpools/wasnorm_wordpool_less_exclusions.txt	LTP283	ltpFR	17	1	1	EYELASH	546	n/a	0	0	0.5869140625	0.422607421875	upper	../fonts/amplitud.ttf
427.648	n/a	WORD	213824	wordpools/wasnorm_wordpool_less_exclusions.txt	LTP283	ltpFR	17	1	1	FRECKLE	602	n/a	0	0	0.5869140625	0.422607421875	upper	../fonts/amplitud.ttf
433.608	n/a	REC_START	216804	n/a	LTP283	ltpFR	17	1	n/a	n/a	n/a	n/a	n/a	n/a	n/a	n/a	n/a	n/a
435.646	n/a	REC_WORD	217823	wordpools/wasnorm_wordpool_less_exclusions.txt	LTP283	ltpFR	17	1	1	EYELASH	546	n/a	0	n/a	n/a	n/a	n/a	n/a
436.446	n/a	REC_WORD	218223	wordpools/wasnorm_wordpool_less_exclusions.txt	LTP283	ltpFR	17	1	1	FRECKLE	602	n/a	0	n/a	n/a	n/a	n/a	n/a
438.42	n/a	REC_WORD	219210	wordpools/wasnorm_wordpool_less_exclusions.txt	LTP283	ltpFR	17	1	0	VETERAN	1561	n/a	1	n/a	n/a	n/a	n/a	n/a
439.422	n/a	REC_WORD	219711	wordpools/wasnorm_wordpool_less_exclusions.txt	LTP283	ltpFR	17	1	0	PARENT	1013	n/a	1	n/a	n/a	n/a	n/a	n/a
440.296	n/a	REC_WORD	220148	wordpools/wasnorm_wordpool_less_exclusions.txt	LTP283	ltpFR	17	1	1	SQUIRREL	1362	n/a	1	n/a	n/a	n/a	n/a	n/a
441.358	n/a	REC_WORD	220679	wordpools/wasnorm_wordpool_less_exclusions.txt	LTP283	ltpFR	17	1	1	SARDINE	1235	n/a	1	n/a	n/a	n/a	n/a	n/a
443.328	n/a	REC_WORD	221664	wordpools/wasnorm_wordpool_less_exclusions.txt	LTP283	ltpFR	17	1	1	SHRIMP	1297	n/a	1	n/a	n/a	n/a	n/a	n/a
444.938	n/a	REC_WORD	222469	wordpools/wasnorm_wordpool_less_exclusions.txt	LTP283	ltpFR	17	1	1	DOUGHNUT	490	n/a	0	n/a	n/a	n/a	n/a	n/a
445.954	n/a	REC_WORD	222977	wordpools/wasnorm_wordpool_less_exclusions.txt	LTP283	ltpFR	17	1	0	CANNON	232	n/a	1	n/a	n/a	n/a	n/a	n/a
450.12	n/a	REC_WORD	225060	wordpools/wasnorm_wordpool_less_exclusions.txt	LTP283	ltpFR	17	1	0	ORNAMENT	985	n/a	0	n/a	n/a	n/a	n/a	n/a
452.064	n/a	REC_WORD	226032	wordpools/wasnorm_wordpool_less_exclusions.txt	LTP283	ltpFR	17	1	0	FATHER	554	n/a	1	n/a	n/a	n/a	n/a	n/a
454.696	n/a	REC_WORD_VV	227348	wordpools/wasnorm_wordpool_less_exclusions.txt	LTP283	ltpFR	17	1	n/a	<>	-1	n/a	n/a	n/a	n/a	n/a	n/a	n/a
457.412	n/a	REC_WORD	228706	wordpools/wasnorm_wordpool_less_exclusions.txt	LTP283	ltpFR	17	1	0	SHOP	1290	n/a	1	n/a	n/a	n/a	n/a	n/a
467.742	n/a	REC_WORD	233871	wordpools/wasnorm_wordpool_less_exclusions.txt	LTP283	ltpFR	17	1	1	ITEM	746	n/a	0	n/a	n/a	n/a	n/a	n/a
469.968	n/a	REC_WORD	234984	wordpools/wasnorm_wordpool_less_exclusions.txt	LTP283	ltpFR	17	1	0	STEREO	1378	n/a	1	n/a	n/a	n/a	n/a	n/a
511.902	n/a	WORD	255951	wordpools/wasnorm_wordpool_less_exclusions.txt	LTP283	ltpFR	17	2	1	FEAST	556	n/a	0	0	0.5869140625	0.422607421875	upper	../fonts/amplitud.ttf
516.12	n/a	WORD	258060	wordpools/wasnorm_wordpool_less_exclusions.txt	LTP283	ltpFR	17	2	1	TEAM	1441	n/a	0	0	0.5869140625	0.422607421875	upper	../fonts/amplitud.ttf
520.336	n/a	WORD	260168	wordpools/wasnorm_wordpool_less_exclusions.txt	LTP283	ltpFR	17	2	0	BOULEVARD	156	n/a	1	1	0.412841796875	0.57763671875	lower	../fonts/zerothre.ttf
524.334	n/a	WORD	262167	wordpools/wasnorm_wordpool_less_exclusions.txt	LTP283	ltpFR	17	2	0	NOTEBOOK	959	n/a	0	1	0.412841796875	0.57763671875	lower	../fonts/zerothre.ttf
528.25	n/a	WORD	264125	wordpools/wasnorm_wordpool_less_exclusions.txt	LTP283	ltpFR	17	2	0	CABINET	212	n/a	1	1	0.412841796875	0.57763671875	lower	../fonts/zerothre.ttf
532.158	n/a	WORD	266079	wordpools/wasnorm_wordpool_less_exclusions.txt	LTP283	ltpFR	17	2	0	LOFT	840	n/a	1	1	0.412841796875	0.57763671875	lower	../fonts/zerothre.ttf
536.362	n/a	WORD	268181	wordpools/wasnorm_wordpool_less_exclusions.txt	LTP283	ltpFR	17	2	0	DOVE	491	n/a	1	1	0.412841796875	0.57763671875	lower	../fonts/zerothre.ttf
540.562	n/a	WORD	270281	wordpools/wasnorm_wordpool_less_exclusions.txt	LTP283	ltpFR	17	2	0	RECIPE	1175	n/a	0	1	0.412841796875	0.57763671875	lower	../fonts/zerothre.ttf
544.41	n/a	WORD	272205	wordpools/wasnorm_wordpool_less_exclusions.txt	LTP283	ltpFR	17	2	1	LIVER	833	n/a	1	0	0.5869140625	0.422607421875	upper	../fonts/amplitud.ttf
548.342	n/a	WORD	274171	wordpools/wasnorm_wordpool_less_exclusions.txt	LTP283	ltpFR	17	2	1	WHALE	1601	n/a	1	0	0.5869140625	0.422607421875	upper	../fonts/amplitud.ttf
552.356	n/a	WORD	276178	wordpools/wasnorm_wordpool_less_exclusions.txt	LTP283	ltpFR	17	2	0	PIKE	1067	n/a	1	1	0.412841796875	0.57763671875	lower	../fonts/zerothre.ttf
556.432	n/a	WORD	278216	wordpools/wasnorm_wordpool_less_exclusions.txt	LTP283	ltpFR	17	2	0	FOLLOWER	589	n/a	1	1	0.412841796875	0.57763671875	lower	../fonts/zerothre.ttf
560.498	n/a	WORD	280249	wordpools/wasnorm_wordpool_less_exclusions.txt	LTP283	ltpFR	17	2	1	CHAIRPERSON	275	n/a	1	0	0.5869140625	0.422607421875	upper	../fonts/amplitud.ttf
564.62	n/a	WORD	282310	wordpools/wasnorm_wordpool_less_exclusions.txt	LTP283	ltpFR	17	2	1	VEAL	1551	n/a	1	0	0.5869140625	0.422607421875	upper	../fonts/amplitud.ttf
568.72	n/a	WORD	284360	wordpools/wasnorm_wordpool_less_exclusions.txt	LTP283	ltpFR	17	2	1	TOWER	1490	n/a	0	0	0.5869140625	0.422607421875	upper	../fonts/amplitud.ttf
572.618	n/a	WORD	286309	wordpools/wasnorm_wordpool_less_exclusions.txt	LTP283	ltpFR	17	2	1	JAW	751	n/a	1	0	0.5869140625	0.422607421875	upper	../fonts/amplitud.ttf
578.352	n/a	REC_START	289176	n/a	LTP283	ltpFR	17	2	n/a	n/a	n/a	n/a	n/a	n/a	n/a	n/a	n/a	n/a
580.152	n/a	REC_WORD	290076	wordpools/wasnorm_wordpool_less_exclusions.txt	LTP283	ltpFR	17	2	1	TOWER	1490	n/a	0	n/a	n/a	n/a	n/a	n/a
581.008	n/a	REC_WORD	290504	wordpools/wasnorm_wordpool_less_exclusions.txt	LTP283	ltpFR	17	2	1	JAW	751	n/a	1	n/a	n/a	n/a	n/a	n/a
581.768	n/a	REC_WORD	290884	wordpools/wasnorm_wordpool_less_exclusions.txt	LTP283	ltpFR	17	2	1	VEAL	1551	n/a	1	n/a	n/a	n/a	n/a	n/a
582.706	n/a	REC_WORD	291353	wordpools/wasnorm_wordpool_less_exclusions.txt	LTP283	ltpFR	17	2	1	CHAIRPERSON	275	n/a	1	n/a	n/a	n/a	n/a	n/a
584.914	n/a	REC_WORD	292457	wordpools/wasnorm_wordpool_less_exclusions.txt	LTP283	ltpFR	17	2	0	DOVE	491	n/a	1	n/a	n/a	n/a	n/a	n/a
585.792	n/a	REC_WORD	292896	wordpools/wasnorm_wordpool_less_exclusions.txt	LTP283	ltpFR	17	2	0	LOFT	840	n/a	1	n/a	n/a	n/a	n/a	n/a
586.89	n/a	REC_WORD	293445	wordpools/wasnorm_wordpool_less_exclusions.txt	LTP283	ltpFR	17	2	0	RECIPE	1175	n/a	0	n/a	n/a	n/a	n/a	n/a
587.782	n/a	REC_WORD	293891	wordpools/wasnorm_wordpool_less_exclusions.txt	LTP283	ltpFR	17	2	0	CABINET	212	n/a	1	n/a	n/a	n/a	n/a	n/a
590.088	n/a	REC_WORD	295044	wordpools/wasnorm_wordpool_less_exclusions.txt	LTP283	ltpFR	17	2	1	WHALE	1601	n/a	1	n/a	n/a	n/a	n/a	n/a
594.08	n/a	REC_WORD	297040	wordpools/wasnorm_wordpool_less_exclusions.txt	LTP283	ltpFR	17	2	1	LIVER	833	n/a	1	n/a	n/a	n/a	n/a	n/a
595.774	n/a	REC_WORD	297887	wordpools/wasnorm_wordpool_less_exclusions.txt	LTP283	ltpFR	17	2	1	FEAST	556	n/a	0	n/a	n/a	n/a	n/a	n/a
597.072	n/a	REC_WORD	298536	wordpools/wasnorm_wordpool_less_exclusions.txt	LTP283	ltpFR	17	2	1	TEAM	1441	n/a	0	n/a	n/a	n/a	n/a	n/a
614.17	n/a	REC_WORD	307085	wordpools/wasnorm_wordpool_less_exclusions.txt	LTP283	ltpFR	17	2	0	PIKE	1067	n/a	1	n/a	n/a	n/a	n/a	n/a
615.144	n/a	REC_WORD	307572	wordpools/wasnorm_wordpool_less_exclusions.txt	LTP283	ltpFR	17	2	0	BOULEVARD	156	n/a	1	n/a	n/a	n/a	n/a	n/a
616.01	n/a	REC_WORD	308005	wordpools/wasnorm_wordpool_less_exclusions.txt	LTP283	ltpFR	17	2	0	NOTEBOOK	959	n/a	0	n/a	n/a	n/a	n/a	n/a
620.352	n/a	REC_WORD	310176	wordpools/wasnorm_wordpool_less_exclusions.txt	LTP283	ltpFR	17	2	0	FOLLOWER	589	n/a	1	n/a	n/a	n/a	n/a	n/a
656.232	n/a	WORD	328116	wordpools/wasnorm_wordpool_less_exclusions.txt	LTP283	ltpFR	17	3	-1	DRAWING	494	n/a	-1	1	1.0	1.0	upper	../fonts/Verdana.ttf
660.136	n/a	WORD	330068	wordpools/wasnorm_wordpool_less_exclusions.txt	LTP283	ltpFR	17	3	-1	APARTMENT	30	n/a	-1	1	1.0	1.0	upper	../fonts/Verdana.ttf
664.0	n/a	WORD	332000	wordpools/wasnorm_wordpool_less_exclusions.txt	LTP283	ltpFR	17	3	-1	ROOM	1206	n/a	-1	1	1.0	1.0	upper	../fonts/Verdana.ttf
668.2	n/a	WORD	334100	wordpools/wasnorm_wordpool_less_exclusions.txt	LTP283	ltpFR	17	3	-1	POTATO	1115	n/a	-1	1	1.0	1.0	upper	../fonts/Verdana.ttf
672.394	n/a	WORD	336197	wordpools/wasnorm_wordpool_less_exclusions.txt	LTP283	ltpFR	17	3	-1	MOB	904	n/a	-1	1	1.0	1.0	upper	../fonts/Verdana.ttf
676.608	n/a	WORD	338304	wordpools/wasnorm_wordpool_less_exclusions.txt	LTP283	ltpFR	17	3	-1	HUMAN	726	n/a	-1	1	1.0	1.0	upper	../fonts/Verdana.ttf
680.664	n/a	WORD	340332	wordpools/wasnorm_wordpool_less_exclusions.txt	LTP283	ltpFR	17	3	-1	TERMITE	1451	n/a	-1	1	1.0	1.0	upper	../fonts/Verdana.ttf
684.746	n/a	WORD	342373	wordpools/wasnorm_wordpool_less_exclusions.txt	LTP283	ltpFR	17	3	-1	DESSERT	453	n/a	-1	1	1.0	1.0	upper	../fonts/Verdana.ttf
688.912	n/a	WORD	344456	wordpools/wasnorm_wordpool_less_exclusions.txt	LTP283	ltpFR	17	3	-1	OBOE	969	n/a	-1	1	1.0	1.0	upper	../fonts/Verdana.ttf
693.046	n/a	WORD	346523	wordpools/wasnorm_wordpool_less_exclusions.txt	LTP283	ltpFR	17	3	-1	MACHINE	852	n/a	-1	1	1.0	1.0	upper	../fonts/Verdana.ttf
696.976	n/a	WORD	348488	wordpools/wasnorm_wordpool_less_exclusions.txt	LTP283	ltpFR	17	3	-1	COMPUTER	359	n/a	-1	1	1.0	1.0	upper	../fonts/Verdana.ttf
700.858	n/a	WORD	350429	wordpools/wasnorm_wordpool_less_exclusions.txt	LTP283	ltpFR	17	3	-1	PHOTO	1055	n/a	-1	1	1.0	1.0	upper	../fonts/Verdana.ttf
704.99	n/a	WORD	352495	wordpools/wasnorm_wordpool_less_exclusions.txt	LTP283	ltpFR	17	3	-1	GUITAR	670	n/a	-1	1	1.0	1.0	upper	../fonts/Verdana.ttf
709.106	n/a	WORD	354553	wordpools/wasnorm_wordpool_less_exclusions.txt	LTP283	ltpFR	17	3	-1	BUN	197	n/a	-1	1	1.0	1.0	upper	../fonts/Verdana.ttf
713.122	n/a	WORD	356561	wordpools/wasnorm_wordpool_less_exclusions.txt	LTP283	ltpFR	17	3	-1	ATOM	55	n/a	-1	1	1.0	1.0	upper	../fonts/Verdana.ttf
717.07	n/a	WORD	358535	wordpools/wasnorm_wordpool_less_exclusions.txt	LTP283	ltpFR	17	3	-1	GRASSHOPPER	656	n/a	-1	1	1.0	1.0	upper	../fonts/Verdana.ttf
722.802	n/a	REC_START	361401	n/a	LTP283	ltpFR	17	3	n/a	n/a	n/a	n/a	n/a	n/a	n/a	n/a	n/a	n/a
725.052	n/a	REC_WORD	362526	wordpools/wasnorm_wordpool_less_exclusions.txt	LTP283	ltpFR	17	3	-1	GRASSHOPPER	656	n/a	-1	n/a	n/a	n/a	n/a	n/a
726.738	n/a	REC_WORD	363369	wordpools/wasnorm_wordpool_less_exclusions.txt	LTP283	ltpFR	17	3	-1	BUN	197	n/a	-1	n/a	n/a	n/a	n/a	n/a
728.296	n/a	REC_WORD	364148	wordpools/wasnorm_wordpool_less_exclusions.txt	LTP283	ltpFR	17	3	-1	TERMITE	1451	n/a	-1	n/a	n/a	n/a	n/a	n/a
730.092	n/a	REC_WORD	365046	wordpools/wasnorm_wordpool_less_exclusions.txt	LTP283	ltpFR	17	3	-1	DESSERT	453	n/a	-1	n/a	n/a	n/a	n/a	n/a
731.998	n/a	REC_WORD	365999	wordpools/wasnorm_wordpool_less_exclusions.txt	LTP283	ltpFR	17	3	-1	OBOE	969	n/a	-1	n/a	n/a	n/a	n/a	n/a
733.224	n/a	REC_WORD	366612	wordpools/wasnorm_wordpool_less_exclusions.txt	LTP283	ltpFR	17	3	-1	GUITAR	670	n/a	-1	n/a	n/a	n/a	n/a	n/a
734.646	n/a	REC_WORD	367323	wordpools/wasnorm_wordpool_less_exclusions.txt	LTP283	ltpFR	17	3	-1	POTATO	1115	n/a	-1	n/a	n/a	n/a	n/a	n/a
736.368	n/a	REC_WORD	368184	wordpools/wasnorm_wordpool_less_exclusions.txt	LTP283	ltpFR	17	3	-1	MOB	904	n/a	-1	n/a	n/a	n/a	n/a	n/a
737.61	n/a	REC_WORD	368805	wordpools/wasnorm_wordpool_less_exclusions.txt	LTP283	ltpFR	17	3	-1	HUMAN	726	n/a	-1	n/a	n/a	n/a	n/a	n/a
739.466	n/a	REC_WORD	369733	wordpools/wasnorm_wordpool_less_exclusions.txt	LTP283	ltpFR	17	3	-1	COMPUTER	359	n/a	-1	n/a	n/a	n/a	n/a	n/a
742.264	n/a	REC_WORD	371132	wordpools/wasnorm_wordpool_less_exclusions.txt	LTP283	ltpFR	17	3	-1	ROOM	1206	n/a	-1	n/a	n/a	n/a	n/a	n/a
743.498	n/a	REC_WORD	371749	wordpools/wasnorm_wordpool_less_exclusions.txt	LTP283	ltpFR	17	3	-1	APARTMENT	30	n/a	-1	n/a	n/a	n/a	n/a	n/a
745.442	n/a	REC_WORD	372721	wordpools/wasnorm_wordpool_less_exclusions.txt	LTP283	ltpFR	17	3	-1	DRAWING	494	n/a	-1	n/a	n/a	n/a	n/a	n/a
752.788	n/a	REC_WORD	376394	wordpools/wasnorm_wordpool_less_exclusions.txt	LTP283	ltpFR	17	3	-1	MACHINE	852	n/a	-1	n/a	n/a	n/a	n/a	n/a
800.522	n/a	WORD	400261	wordpools/wasnorm_wordpool_less_exclusions.txt	LTP283	ltpFR	17	4	0	FROST	609	n/a	1	1	0.412841796875	0.57763671875	lower	../fonts/zerothre.ttf
804.37	n/a	WORD	402185	wordpools/wasnorm_wordpool_less_exclusions.txt	LTP283	ltpFR	17	4	0	SKATE	1313	n/a	1	1	0.412841796875	0.57763671875	lower	../fonts/zerothre.ttf
808.502	n/a	WORD	404251	wordpools/wasnorm_wordpool_less_exclusions.txt	LTP283	ltpFR	17	4	0	CABIN	211	n/a	1	1	0.412841796875	0.57763671875	lower	../fonts/zerothre.ttf
812.534	n/a	WORD	406267	wordpools/wasnorm_wordpool_less_exclusions.txt	LTP283	ltpFR	17	4	0	TRACTOR	1493	n/a	1	1	0.412841796875	0.57763671875	lower	../fonts/zerothre.ttf
816.584	n/a	WORD	408292	wordpools/wasnorm_wordpool_less_exclusions.txt	LTP283	ltpFR	17	4	0	NUCLEUS	961	n/a	0	1	0.412841796875	0.57763671875	lower	../fonts/zerothre.ttf
820.482	n/a	WORD	410241	wordpools/wasnorm_wordpool_less_exclusions.txt	LTP283	ltpFR	17	4	0	NEUTRON	947	n/a	0	1	0.412841796875	0.57763671875	lower	../fonts/zerothre.ttf
824.624	n/a	WORD	412312	wordpools/wasnorm_wordpool_less_exclusions.txt	LTP283	ltpFR	17	4	0	GLOBE	641	n/a	1	1	0.412841796875	0.57763671875	lower	../fonts/zerothre.ttf
828.714	n/a	WORD	414357	wordpools/wasnorm_wordpool_less_exclusions.txt	LTP283	ltpFR	17	4	0	COOKIE	374	n/a	0	1	0.412841796875	0.57763671875	lower	../fonts/zerothre.ttf
832.89	n/a	WORD	416445	wordpools/wasnorm_wordpool_less_exclusions.txt	LTP283	ltpFR	17	4	0	PREACHER	1119	n/a	1	1	0.412841796875	0.57763671875	lower	../fonts/zerothre.ttf
836.894	n/a	WORD	418447	wordpools/wasnorm_wordpool_less_exclusions.txt	LTP283	ltpFR	17	4	0	BABY	64	n/a	1	1	0.412841796875	0.57763671875	lower	../fonts/zerothre.ttf
841.112	n/a	WORD	420556	wordpools/wasnorm_wordpool_less_exclusions.txt	LTP283	ltpFR	17	4	0	ICING	732	n/a	0	1	0.412841796875	0.57763671875	lower	../fonts/zerothre.ttf
845.328	n/a	WORD	422664	wordpools/wasnorm_wordpool_less_exclusions.txt	LTP283	ltpFR	17	4	0	PRIEST	1122	n/a	1	1	0.412841796875	0.57763671875	lower	../fonts/zerothre.ttf
849.292	n/a	WORD	424646	wordpools/wasnorm_wordpool_less_exclusions.txt	LTP283	ltpFR	17	4	0	HAT	690	n/a	0	1	0.412841796875	0.57763671875	lower	../fonts/zerothre.ttf
853.252	n/a	WORD	426626	wordpools/wasnorm_wordpool_less_exclusions.txt	LTP283	ltpFR	17	4	0	SYRUP	1425	n/a	0	1	0.412841796875	0.57763671875	lower	../fonts/zerothre.ttf
857.19	n/a	WORD	428595	wordpools/wasnorm_wordpool_less_exclusions.txt	LTP283	ltpFR	17	4	0	AFRICA	9	n/a	1	1	0.412841796875	0.57763671875	lower	../fonts/zerothre.ttf
861.322	n/a	WORD	430661	wordpools/wasnorm_wordpool_less_exclusions.txt	LTP283	ltpFR	17	4	0	ACORN	3	n/a	0	1	0.412841796875	0.57763671875	lower	../fonts/zerothre.ttf
866.944	n/a	REC_START	433472	n/a	LTP283	ltpFR	17	4	n/a	n/a	n/a	n/a	n/a	n/a	n/a	n/a	n/a	n/a
868.148	n/a	REC_WORD	434074	wordpools/wasnorm_wordpool_less_exclusions.txt	LTP283	ltpFR	17	4	0	ACORN	3	n/a	0	n/a	n/a	n/a	n/a	n/a
869.196	n/a	REC_WORD	434598	wordpools/wasnorm_wordpool_less_exclusions.txt	LTP283	ltpFR	17	4	0	AFRICA	9	n/a	1	n/a	n/a	n/a	n/a	n/a
870.952	n/a	REC_WORD	435476	wordpools/wasnorm_wordpool_less_exclusions.txt	LTP283	ltpFR	17	4	0	HAT	690	n/a	0	n/a	n/a	n/a	n/a	n/a
872.818	n/a	REC_WORD	436409	wordpools/wasnorm_wordpool_less_exclusions.txt	LTP283	ltpFR	17	4	0	PRIEST	1122	n/a	1	n/a	n/a	n/a	n/a	n/a
873.424	n/a	REC_WORD	436712	wordpools/wasnorm_wordpool_less_exclusions.txt	LTP283	ltpFR	17	4	0	PREACHER	1119	n/a	1	n/a	n/a	n/a	n/a	n/a
874.32	n/a	REC_WORD	437160	wordpools/wasnorm_wordpool_less_exclusions.txt	LTP283	ltpFR	17	4	0	GLOBE	641	n/a	1	n/a	n/a	n/a	n/a	n/a
875.56	n/a	REC_WORD	437780	wordpools/wasnorm_wordpool_less_exclusions.txt	LTP283	ltpFR	17	4	0	SYRUP	1425	n/a	0	n/a	n/a	n/a	n/a	n/a
877.64	n/a	REC_WORD	438820	wordpools/wasnorm_wordpool_less_exclusions.txt	LTP283	ltpFR	17	4	0	ICING	732	n/a	0	n/a	n/a	n/a	n/a	n/a
879.328	n/a	REC_WORD	439664	wordpools/wasnorm_wordpool_less_exclusions.txt	LTP283	ltpFR	17	4	0	COOKIE	374	n/a	0	n/a	n/a	n/a	n/a	n/a
880.788	n/a	REC_WORD	440394	wordpools/wasnorm_wordpool_less_exclusions.txt	LTP283	ltpFR	17	4	0	NUCLEUS	961	n/a	0	n/a	n/a	n/a	n/a	n/a
881.728	n/a	REC_WORD	440864	wordpools/wasnorm_wordpool_less_exclusions.txt	LTP283	ltpFR	17	4	0	NEUTRON	947	n/a	0	n/a	n/a	n/a	n/a	n/a
888.362	n/a	REC_WORD	444181	wordpools/wasnorm_wordpool_less_exclusions.txt	LTP283	ltpFR	17	4	0	TRACTOR	1493	n/a	1	n/a	n/a	n/a	n/a	n/a
889.288	n/a	REC_WORD	444644	wordpools/wasnorm_wordpool_less_exclusions.txt	LTP283	ltpFR	17	4	0	FROST	609	n/a	1	n/a	n/a	n/a	n/a	n/a
890.102	n/a	REC_WORD	445051	wordpools/wasnorm_wordpool_less_exclusions.txt	LTP283	ltpFR	17	4	0	SKATE	1313	n/a	1	n/a	n/a	n/a	n/a	n/a
892.754	n/a	REC_WORD	446377	wordpools/wasnorm_wordpool_less_exclusions.txt	LTP283	ltpFR	17	4	0	CABIN	211	n/a	1	n/a	n/a	n/a	n/a	n/a
944.716	n/a	WORD	472358	wordpools/wasnorm_wordpool_less_exclusions.txt	LTP283	ltpFR	17	5	-1	SAP	1233	n/a	-1	1	1.0	1.0	upper	../fonts/Verdana.ttf
948.882	n/a	WORD	474441	wordpools/wasnorm_wordpool_less_exclusions.txt	LTP283	ltpFR	17	5	-1	GLACIER	638	n/a	-1	1	1.0	1.0	upper	../fonts/Verdana.ttf
952.888	n/a	WORD	476444	wordpools/wasnorm_wordpool_less_exclusions.txt	LTP283	ltpFR	17	5	-1	CHOCOLATE	306	n/a	-1	1	1.0	1.0	upper	../fonts/Verdana.ttf
957.004	n/a	WORD	478502	wordpools/wasnorm_wordpool_less_exclusions.txt	LTP283	ltpFR	17	5	-1	MOON	914	n/a	-1	1	1.0	1.0	upper	../fonts/Verdana.ttf
960.886	n/a	WORD	480443	wordpools/wasnorm_wordpool_less_exclusions.txt	LTP283	ltpFR	17	5	-1	FREEWAY	603	n/a	-1	1	1.0	1.0	upper	../fonts/Verdana.ttf
965.096	n/a	WORD	482548	wordpools/wasnorm_wordpool_less_exclusions.txt	LTP283	ltpFR	17	5	-1	SKUNK	1321	n/a	-1	1	1.0	1.0	upper	../fonts/Verdana.ttf
969.168	n/a	WORD	484584	wordpools/wasnorm_wordpool_less_exclusions.txt	LTP283	ltpFR	17	5	-1	TAPIOCA	1434	n/a	-1	1	1.0	1.0	upper	../fonts/Verdana.ttf
973.098	n/a	WORD	486549	wordpools/wasnorm_wordpool_less_exclusions.txt	LTP283	ltpFR	17	5	-1	CREVICE	405	n/a	-1	1	1.0	1.0	upper	../fonts/Verdana.ttf
977.006	n/a	WORD	488503	wordpools/wasnorm_wordpool_less_exclusions.txt	LTP283	ltpFR	17	5	-1	PACKAGE	997	n/a	-1	1	1.0	1.0	upper	../fonts/Verdana.ttf
980.878	n/a	WORD	490439	wordpools/wasnorm_wordpool_less_exclusions.txt	LTP283	ltpFR	17	5	-1	CURB	426	n/a	-1	1	1.0	1.0	upper	../fonts/Verdana.ttf
985.088	n/a	WORD	492544	wordpools/wasnorm_wordpool_less_exclusions.txt	LTP283	ltpFR	17	5	-1	EDITOR	516	n/a	-1	1	1.0	1.0	upper	../fonts/Verdana.ttf
989.278	n/a	WORD	494639	wordpools/wasnorm_wordpool_less_exclusions.txt	LTP283	ltpFR	17	5	-1	COLUMN	350	n/a	-1	1	1.0	1.0	upper	../fonts/Verdana.ttf
993.236	n/a	WORD	496618	wordpools/wasnorm_wordpool_less_exclusions.txt	LTP283	ltpFR	17	5	-1	CONTAINER	366	n/a	-1	1	1.0	1.0	upper	../fonts/Verdana.ttf
997.342	n/a	WORD	498671	wordpools/wasnorm_wordpool_less_exclusions.txt	LTP283	ltpFR	17	5	-1	SUPPER	1411	n/a	-1	1	1.0	1.0	upper	../fonts/Verdana.ttf
1001.474	n/a	WORD	500737	wordpools/wasnorm_wordpool_less_exclusions.txt	LTP283	ltpFR	17	5	-1	LIMB	822	n/a	-1	1	1.0	1.0	upper	../fonts/Verdana.ttf
1005.354	n/a	WORD	502677	wordpools/wasnorm_wordpool_less_exclusions.txt	LTP283	ltpFR	17	5	-1	BUSH	202	n/a	-1	1	1.0	1.0	upper	../fonts/Verdana.ttf
1011.372	n/a	REC_START	505686	n/a	LTP283	ltpFR	17	5	n/a	n/a	n/a	n/a	n/a	n/a	n/a	n/a	n/a	n/a
1013.522	n/a	REC_WORD	506761	wordpools/wasnorm_wordpool_less_exclusions.txt	LTP283	ltpFR	17	5	-1	BUSH	202	n/a	-1	n/a	n/a	n/a	n/a	n/a
1014.308	n/a	REC_WORD	507154	wordpools/wasnorm_wordpool_less_exclusions.txt	LTP283	ltpFR	17	5	-1	LIMB	822	n/a	-1	n/a	n/a	n/a	n/a	n/a
1015.186	n/a	REC_WORD	507593	wordpools/wasnorm_wordpool_less_exclusions.txt	LTP283	ltpFR	17	5	-1	SUPPER	1411	n/a	-1	n/a	n/a	n/a	n/a	n/a
1016.544	n/a	REC_WORD	508272	wordpools/wasnorm_wordpool_less_exclusions.txt	LTP283	ltpFR	17	5	-1	CONTAINER	366	n/a	-1	n/a	n/a	n/a	n/a	n/a
1017.588	n/a	REC_WORD	508794	wordpools/wasnorm_wordpool_less_exclusions.txt	LTP283	ltpFR	17	5	-1	PACKAGE	997	n/a	-1	n/a	n/a	n/a	n/a	n/a
1019.24	n/a	REC_WORD	509620	wordpools/wasnorm_wordpool_less_exclusions.txt	LTP283	ltpFR	17	5	-1	COLUMN	350	n/a	-1	n/a	n/a	n/a	n/a	n/a
1020.304	n/a	REC_WORD	510152	wordpools/wasnorm_wordpool_less_exclusions.txt	LTP283	ltpFR	17	5	-1	EDITOR	516	n/a	-1	n/a	n/a	n/a	n/a	n/a
1024.058	n/a	REC_WORD	512029	wordpools/wasnorm_wordpool_less_exclusions.txt	LTP283	ltpFR	17	5	-1	CURB	426	n/a	-1	n/a	n/a	n/a	n/a	n/a
1025.02	n/a	REC_WORD	512510	wordpools/wasnorm_wordpool_less_exclusions.txt	LTP283	ltpFR	17	5	-1	FREEWAY	603	n/a	-1	n/a	n/a	n/a	n/a	n/a
1026.042	n/a	REC_WORD	513021	wordpools/wasnorm_wordpool_less_exclusions.txt	LTP283	ltpFR	17	5	-1	SKUNK	1321	n/a	-1	n/a	n/a	n/a	n/a	n/a
1027.356	n/a	REC_WORD	513678	wordpools/wasnorm_wordpool_less_exclusions.txt	LTP283	ltpFR	17	5	-1	BUSH	202	n/a	-1	n/a	n/a	n/a	n/a	n/a
1031.036	n/a	REC_WORD	515518	wordpools/wasnorm_wordpool_less_exclusions.txt	LTP283	ltpFR	17	5	-1	SAP	1233	n/a	-1	n/a	n/a	n/a	n/a	n/a
1032.064	n/a	REC_WORD	516032	wordpools/wasnorm_wordpool_less_exclusions.txt	LTP283	ltpFR	17	5	-1	CHOCOLATE	306	n/a	-1	n/a	n/a	n/a	n/a	n/a
1032.986	n/a	REC_WORD	516493	wordpools/wasnorm_wordpool_less_exclusions.txt	LTP283	ltpFR	17	5	-1	TAPIOCA	1434	n/a	-1	n/a	n/a	n/a	n/a	n/a
1035.166	n/a	REC_WORD	517583	wordpools/wasnorm_wordpool_less_exclusions.txt	LTP283	ltpFR	17	5	-1	GLACIER	638	n/a	-1	n/a	n/a	n/a	n/a	n/a
1036.694	n/a	REC_WORD	518347	wordpools/wasnorm_wordpool_less_exclusions.txt	LTP283	ltpFR	17	5	-1	CREVICE	405	n/a	-1	n/a	n/a	n/a	n/a	n/a
1050.746	n/a	REC_WORD	525373	wordpools/wasnorm_wordpool_less_exclusions.txt	LTP283	ltpFR	17	5	-1	FREEWAY	603	n/a	-1	n/a	n/a	n/a	n/a	n/a
1061.662	n/a	REC_WORD	530831	wordpools/wasnorm_wordpool_less_exclusions.txt	LTP283	ltpFR	17	5	-1	SKUNK	1321	n/a	-1	n/a	n/a	n/a	n/a	n/a
1089.47	n/a	WORD	544735	wordpools/wasnorm_wordpool_less_exclusions.txt	LTP283	ltpFR	17	6	0	POSSUM	1112	n/a	1	1	0.412841796875	0.57763671875	lower	../fonts/zerothre.ttf
1093.426	n/a	WORD	546713	wordpools/wasnorm_wordpool_less_exclusions.txt	LTP283	ltpFR	17	6	0	GAZELLE	628	n/a	1	1	0.412841796875	0.57763671875	lower	../fonts/zerothre.ttf
1097.634	n/a	WORD	548817	wordpools/wasnorm_wordpool_less_exclusions.txt	LTP283	ltpFR	17	6	0	SALIVA	1226	n/a	0	1	0.412841796875	0.57763671875	lower	../fonts/zerothre.ttf
1101.75	n/a	WORD	550875	wordpools/wasnorm_wordpool_less_exclusions.txt	LTP283	ltpFR	17	6	1	CABLE	213	n/a	0	0	0.5869140625	0.422607421875	upper	../fonts/amplitud.ttf
1105.788	n/a	WORD	552894	wordpools/wasnorm_wordpool_less_exclusions.txt	LTP283	ltpFR	17	6	1	LOLLIPOP	842	n/a	0	0	0.5869140625	0.422607421875	upper	../fonts/amplitud.ttf
1109.648	n/a	WORD	554824	wordpools/wasnorm_wordpool_less_exclusions.txt	LTP283	ltpFR	17	6	1	CLOVE	329	n/a	0	0	0.5869140625	0.422607421875	upper	../fonts/amplitud.ttf
1113.636	n/a	WORD	556818	wordpools/wasnorm_wordpool_less_exclusions.txt	LTP283	ltpFR	17	6	0	FIREMAN	569	n/a	1	1	0.412841796875	0.57763671875	lower	../fonts/zerothre.ttf
1117.51	n/a	WORD	558755	wordpools/wasnorm_wordpool_less_exclusions.txt	LTP283	ltpFR	17	6	0	SAILOR	1223	n/a	1	1	0.412841796875	0.57763671875	lower	../fonts/zerothre.ttf
1121.566	n/a	WORD	560783	wordpools/wasnorm_wordpool_less_exclusions.txt	LTP283	ltpFR	17	6	1	TILE	1468	n/a	0	0	0.5869140625	0.422607421875	upper	../fonts/amplitud.ttf
1125.708	n/a	WORD	562854	wordpools/wasnorm_wordpool_less_exclusions.txt	LTP283	ltpFR	17	6	1	CREATURE	403	n/a	1	0	0.5869140625	0.422607421875	upper	../fonts/amplitud.ttf
1129.574	n/a	WORD	564787	wordpools/wasnorm_wordpool_less_exclusions.txt	LTP283	ltpFR	17	6	1	CAGE	218	n/a	0	0	0.5869140625	0.422607421875	upper	../fonts/amplitud.ttf
1133.412	n/a	WORD	566706	wordpools/wasnorm_wordpool_less_exclusions.txt	LTP283	ltpFR	17	6	1	TUBA	1515	n/a	0	0	0.5869140625	0.422607421875	upper	../fonts/amplitud.ttf
1137.386	n/a	WORD	568693	wordpools/wasnorm_wordpool_less_exclusions.txt	LTP283	ltpFR	17	6	1	WILDERNESS	1610	n/a	0	0	0.5869140625	0.422607421875	upper	../fonts/amplitud.ttf
1141.552	n/a	WORD	570776	wordpools/wasnorm_wordpool_less_exclusions.txt	LTP283	ltpFR	17	6	0	CANOE	233	n/a	1	1	0.412841796875	0.57763671875	lower	../fonts/zerothre.ttf
1145.758	n/a	WORD	572879	wordpools/wasnorm_wordpool_less_exclusions.txt	LTP283	ltpFR	17	6	0	DISC	473	n/a	0	1	0.412841796875	0.57763671875	lower	../fonts/zerothre.ttf
1149.884	n/a	WORD	574942	wordpools/wasnorm_wordpool_less_exclusions.txt	LTP283	ltpFR	17	6	0	NAVIGATOR	938	n/a	1	1	0.412841796875	0.57763671875	lower	../fonts/zerothre.ttf
1155.874	n/a	REC_START	577937	n/a	LTP283	ltpFR	17	6	n/a	n/a	n/a	n/a	n/a	n/a	n/a	n/a	n/a	n/a
1158.108	n/a	REC_WORD	579054	wordpools/wasnorm_wordpool_less_exclusions.txt	LTP283	ltpFR	17	6	0	NAVIGATOR	938	n/a	1	n/a	n/a	n/a	n/a	n/a
1159.368	n/a	REC_WORD	579684	wordpools/wasnorm_wordpool_less_exclusions.txt	LTP283	ltpFR	17	6	0	CANOE	233	n/a	1	n/a	n/a	n/a	n/a	n/a
1160.756	n/a	REC_WORD	580378	wordpools/wasnorm_wordpool_less_exclusions.txt	LTP283	ltpFR	17	6	0	DISC	473	n/a	0	n/a	n/a	n/a	n/a	n/a
1162.848	n/a	REC_WORD	581424	wordpools/wasnorm_wordpool_less_exclusions.txt	LTP283	ltpFR	17	6	0	FIREMAN	569	n/a	1	n/a	n/a	n/a	n/a	n/a
1164.124	n/a	REC_WORD	582062	wordpools/wasnorm_wordpool_less_exclusions.txt	LTP283	ltpFR	17	6	0	SAILOR	1223	n/a	1	n/a	n/a	n/a	n/a	n/a
1167.44	n/a	REC_WORD	583720	wordpools/wasnorm_wordpool_less_exclusions.txt	LTP283	ltpFR	17	6	1	WILDERNESS	1610	n/a	0	n/a	n/a	n/a	n/a	n/a
1169.284	n/a	REC_WORD	584642	wordpools/wasnorm_wordpool_less_exclusions.txt	LTP283	ltpFR	17	6	1	LOLLIPOP	842	n/a	0	n/a	n/a	n/a	n/a	n/a
1170.806	n/a	REC_WORD	585403	wordpools/wasnorm_wordpool_less_exclusions.txt	LTP283	ltpFR	17	6	0	SALIVA	1226	n/a	0	n/a	n/a	n/a	n/a	n/a
1172.538	n/a	REC_WORD	586269	wordpools/wasnorm_wordpool_less_exclusions.txt	LTP283	ltpFR	17	6	1	CABLE	213	n/a	0	n/a	n/a	n/a	n/a	n/a
1174.344	n/a	REC_WORD	587172	wordpools/wasnorm_wordpool_less_exclusions.txt	LTP283	ltpFR	17	6	0	GAZELLE	628	n/a	1	n/a	n/a	n/a	n/a	n/a
1175.878	n/a	REC_WORD	587939	wordpools/wasnorm_wordpool_less_exclusions.txt	LTP283	ltpFR	17	6	1	CLOVE	329	n/a	0	n/a	n/a	n/a	n/a	n/a
1179.494	n/a	REC_WORD	589747	wordpools/wasnorm_wordpool_less_exclusions.txt	LTP283	ltpFR	17	6	0	POSSUM	1112	n/a	1	n/a	n/a	n/a	n/a	n/a
1205.772	n/a	REC_WORD	602886	wordpools/wasnorm_wordpool_less_exclusions.txt	LTP283	ltpFR	17	6	1	CREATURE	403	n/a	1	n/a	n/a	n/a	n/a	n/a
1207.158	n/a	REC_WORD	603579	wordpools/wasnorm_wordpool_less_exclusions.txt	LTP283	ltpFR	17	6	1	CAGE	218	n/a	0	n/a	n/a	n/a	n/a	n/a
1213.546	n/a	REC_WORD	606773	wordpools/wasnorm_wordpool_less_exclusions.txt	LTP283	ltpFR	17	6	1	TILE	1468	n/a	0	n/a	n/a	n/a	n/a	n/a
1233.694	n/a	WORD	616847	wordpools/wasnorm_wordpool_less_exclusions.txt	LTP283	ltpFR	17	7	0	CUSTARD	429	n/a	0	1	0.412841796875	0.57763671875	lower	../fonts/zerothre.ttf
1237.742	n/a	WORD	618871	wordpools/wasnorm_wordpool_less_exclusions.txt	LTP283	ltpFR	17	7	0	CURTAIN	427	n/a	1	1	0.412841796875	0.57763671875	lower	../fonts/zerothre.ttf
1241.574	n/a	WORD	620787	wordpools/wasnorm_wordpool_less_exclusions.txt	LTP283	ltpFR	17	7	0	PIGMENT	1066	n/a	0	1	0.412841796875	0.57763671875	lower	../fonts/zerothre.ttf
1245.69	n/a	WORD	622845	wordpools/wasnorm_wordpool_less_exclusions.txt	LTP283	ltpFR	17	7	0	PLANET	1082	n/a	1	1	0.412841796875	0.57763671875	lower	../fonts/zerothre.ttf
1249.538	n/a	WORD	624769	wordpools/wasnorm_wordpool_less_exclusions.txt	LTP283	ltpFR	17	7	0	KITTEN	780	n/a	0	1	0.412841796875	0.57763671875	lower	../fonts/zerothre.ttf
1253.362	n/a	WORD	626681	wordpools/wasnorm_wordpool_less_exclusions.txt	LTP283	ltpFR	17	7	0	TIDE	1465	n/a	1	1	0.412841796875	0.57763671875	lower	../fonts/zerothre.ttf
1257.528	n/a	WORD	628764	wordpools/wasnorm_wordpool_less_exclusions.txt	LTP283	ltpFR	17	7	0	DIVER	476	n/a	1	1	0.412841796875	0.57763671875	lower	../fonts/zerothre.ttf
1261.702	n/a	WORD	630851	wordpools/wasnorm_wordpool_less_exclusions.txt	LTP283	ltpFR	17	7	0	BACK	65	n/a	1	1	0.412841796875	0.57763671875	lower	../fonts/zerothre.ttf
1265.9	n/a	WORD	632950	wordpools/wasnorm_wordpool_less_exclusions.txt	LTP283	ltpFR	17	7	0	NEPTUNE	943	n/a	1	1	0.412841796875	0.57763671875	lower	../fonts/zerothre.ttf
1269.982	n/a	WORD	634991	wordpools/wasnorm_wordpool_less_exclusions.txt	LTP283	ltpFR	17	7	0	OVEN	991	n/a	1	1	0.412841796875	0.57763671875	lower	../fonts/zerothre.ttf
1273.932	n/a	WORD	636966	wordpools/wasnorm_wordpool_less_exclusions.txt	LTP283	ltpFR	17	7	0	FAN	551	n/a	1	1	0.412841796875	0.57763671875	lower	../fonts/zerothre.ttf
1277.88	n/a	WORD	638940	wordpools/wasnorm_wordpool_less_exclusions.txt	LTP283	ltpFR	17	7	0	TAR	1435	n/a	0	1	0.412841796875	0.57763671875	lower	../fonts/zerothre.ttf
1281.862	n/a	WORD	640931	wordpools/wasnorm_wordpool_less_exclusions.txt	LTP283	ltpFR	17	7	0	FLESH	579	n/a	0	1	0.412841796875	0.57763671875	lower	../fonts/zerothre.ttf
1285.86	n/a	WORD	642930	wordpools/wasnorm_wordpool_less_exclusions.txt	LTP283	ltpFR	17	7	0	CHIPMUNK	304	n/a	0	1	0.412841796875	0.57763671875	lower	../fonts/zerothre.ttf
1289.742	n/a	WORD	644871	wordpools/wasnorm_wordpool_less_exclusions.txt	LTP283	ltpFR	17	7	0	BEVERAGE	123	n/a	0	1	0.412841796875	0.57763671875	lower	../fonts/zerothre.ttf
1293.858	n/a	WORD	646929	wordpools/wasnorm_wordpool_less_exclusions.txt	LTP283	ltpFR	17	7	0	COOLER	375	n/a	1	1	0.412841796875	0.57763671875	lower	../fonts/zerothre.ttf
1299.826	n/a	REC_START	649913	n/a	LTP283	ltpFR	17	7	n/a	n/a	n/a	n/a	n/a	n/a	n/a	n/a	n/a	n/a
1301.698	n/a	REC_WORD	650849	wordpools/wasnorm_wordpool_less_exclusions.txt	LTP283	ltpFR	17	7	0	COOLER	375	n/a	1	n/a	n/a	n/a	n/a	n/a
1302.71	n/a	REC_WORD	651355	wordpools/wasnorm_wordpool_less_exclusions.txt	LTP283	ltpFR	17	7	0	BEVERAGE	123	n/a	0	n/a	n/a	n/a	n/a	n/a
1304.05	n/a	REC_WORD	652025	wordpools/wasnorm_wordpool_less_exclusions.txt	LTP283	ltpFR	17	7	0	FAN	551	n/a	1	n/a	n/a	n/a	n/a	n/a
1305.258	n/a	REC_WORD	652629	wordpools/wasnorm_wordpool_less_exclusions.txt	LTP283	ltpFR	17	7	0	CUSTARD	429	n/a	0	n/a	n/a	n/a	n/a	n/a
1306.918	n/a	REC_WORD	653459	wordpools/wasnorm_wordpool_less_exclusions.txt	LTP283	ltpFR	17	7	0	TAR	1435	n/a	0	n/a	n/a	n/a	n/a	n/a
1308.14	n/a	REC_WORD	654070	wordpools/wasnorm_wordpool_less_exclusions.txt	LTP283	ltpFR	17	7	0	FLESH	579	n/a	0	n/a	n/a	n/a	n/a	n/a
1310.204	n/a	REC_WORD	655102	wordpools/wasnorm_wordpool_less_exclusions.txt	LTP283	ltpFR	17	7	0	OVEN	991	n/a	1	n/a	n/a	n/a	n/a	n/a
1313.218	n/a	REC_WORD	656609	wordpools/wasnorm_wordpool_less_exclusions.txt	LTP283	ltpFR	17	7	0	KITTEN	780	n/a	0	n/a	n/a	n/a	n/a	n/a
1314.244	n/a	REC_WORD	657122	wordpools/wasnorm_wordpool_less_exclusions.txt	LTP283	ltpFR	17	7	0	BACK	65	n/a	1	n/a	n/a	n/a	n/a	n/a
1315.964	n/a	REC_WORD	657982	wordpools/wasnorm_wordpool_less_exclusions.txt	LTP283	ltpFR	17	7	0	NEPTUNE	943	n/a	1	n/a	n/a	n/a	n/a	n/a
1316.898	n/a	REC_WORD	658449	wordpools/wasnorm_wordpool_less_exclusions.txt	LTP283	ltpFR	17	7	0	PLANET	1082	n/a	1	n/a	n/a	n/a	n/a	n/a
1319.596	n/a	REC_WORD	659798	wordpools/wasnorm_wordpool_less_exclusions.txt	LTP283	ltpFR	17	7	0	DIVER	476	n/a	1	n/a	n/a	n/a	n/a	n/a
1320.476	n/a	REC_WORD	660238	wordpools/wasnorm_wordpool_less_exclusions.txt	LTP283	ltpFR	17	7	0	TIDE	1465	n/a	1	n/a	n/a	n/a	n/a	n/a
1335.06	n/a	REC_WORD	667530	wordpools/wasnorm_wordpool_less_exclusions.txt	LTP283	ltpFR	17	7	0	CURTAIN	427	n/a	1	n/a	n/a	n/a	n/a	n/a
1335.876	n/a	REC_WORD	667938	wordpools/wasnorm_wordpool_less_exclusions.txt	LTP283	ltpFR	17	7	0	PIGMENT	1066	n/a	0	n/a	n/a	n/a	n/a	n/a
1340.85	n/a	REC_WORD	670425	wordpools/wasnorm_wordpool_less_exclusions.txt	LTP283	ltpFR	17	7	0	FAN	551	n/a	1	n/a	n/a	n/a	n/a	n/a
1351.672	n/a	REC_WORD	675836	wordpools/wasnorm_wordpool_less_exclusions.txt	LTP283	ltpFR	17	7	0	CHIPMUNK	304	n/a	0	n/a	n/a	n/a	n/a	n/a
1382.362	n/a	WORD	691181	wordpools/wasnorm_wordpool_less_exclusions.txt	LTP283	ltpFR	17	8	1	RUNNER	1218	n/a	1	0	0.5869140625	0.422607421875	upper	../fonts/amplitud.ttf
1386.188	n/a	WORD	693094	wordpools/wasnorm_wordpool_less_exclusions.txt	LTP283	ltpFR	17	8	1	COTTAGE	384	n/a	0	0	0.5869140625	0.422607421875	upper	../fonts/amplitud.ttf
1390.186	n/a	WORD	695093	wordpools/wasnorm_wordpool_less_exclusions.txt	LTP283	ltpFR	17	8	1	MACARONI	851	n/a	0	0	0.5869140625	0.422607421875	upper	../fonts/amplitud.ttf
1394.086	n/a	WORD	697043	wordpools/wasnorm_wordpool_less_exclusions.txt	LTP283	ltpFR	17	8	1	FARMER	553	n/a	0	0	0.5869140625	0.422607421875	upper	../fonts/amplitud.ttf
1398.218	n/a	WORD	699109	wordpools/wasnorm_wordpool_less_exclusions.txt	LTP283	ltpFR	17	8	1	BROTHER	179	n/a	1	0	0.5869140625	0.422607421875	upper	../fonts/amplitud.ttf
1402.306	n/a	WORD	701153	wordpools/wasnorm_wordpool_less_exclusions.txt	LTP283	ltpFR	17	8	1	BOOTH	151	n/a	0	0	0.5869140625	0.422607421875	upper	../fonts/amplitud.ttf
1406.488	n/a	WORD	703244	wordpools/wasnorm_wordpool_less_exclusions.txt	LTP283	ltpFR	17	8	1	FAIRY	549	n/a	1	0	0.5869140625	0.422607421875	upper	../fonts/amplitud.ttf
1410.688	n/a	WORD	705344	wordpools/wasnorm_wordpool_less_exclusions.txt	LTP283	ltpFR	17	8	1	FOOTBALL	591	n/a	0	0	0.5869140625	0.422607421875	upper	../fonts/amplitud.ttf
1414.72	n/a	WORD	707360	wordpools/wasnorm_wordpool_less_exclusions.txt	LTP283	ltpFR	17	8	1	SURVEY	1414	n/a	0	0	0.5869140625	0.422607421875	upper	../fonts/amplitud.ttf
1418.55	n/a	WORD	709275	wordpools/wasnorm_wordpool_less_exclusions.txt	LTP283	ltpFR	17	8	1	GLOVE	642	n/a	0	0	0.5869140625	0.422607421875	upper	../fonts/amplitud.ttf
1422.6	n/a	WORD	711300	wordpools/wasnorm_wordpool_less_exclusions.txt	LTP283	ltpFR	17	8	1	ICEBERG	731	n/a	0	0	0.5869140625	0.422607421875	upper	../fonts/amplitud.ttf
1426.548	n/a	WORD	713274	wordpools/wasnorm_wordpool_less_exclusions.txt	LTP283	ltpFR	17	8	1	FIN	566	n/a	1	0	0.5869140625	0.422607421875	upper	../fonts/amplitud.ttf
1430.406	n/a	WORD	715203	wordpools/wasnorm_wordpool_less_exclusions.txt	LTP283	ltpFR	17	8	1	SIBLING	1301	n/a	1	0	0.5869140625	0.422607421875	upper	../fonts/amplitud.ttf
1434.262	n/a	WORD	717131	wordpools/wasnorm_wordpool_less_exclusions.txt	LTP283	ltpFR	17	8	1	CRICKET	408	n/a	0	0	0.5869140625	0.422607421875	upper	../fonts/amplitud.ttf
1438.386	n/a	WORD	719193	wordpools/wasnorm_wordpool_less_exclusions.txt	LTP283	ltpFR	17	8	1	BEETLE	116	n/a	1	0	0.5869140625	0.422607421875	upper	../fonts/amplitud.ttf
1442.208	n/a	WORD	721104	wordpools/wasnorm_wordpool_less_exclusions.txt	LTP283	ltpFR	17	8	1	FIELD	562	n/a	0	0	0.5869140625	0.422607421875	upper	../fonts/amplitud.ttf
1448.048	n/a	REC_START	724024	n/a	LTP283	ltpFR	17	8	n/a	n/a	n/a	n/a	n/a	n/a	n/a	n/a	n/a	n/a
1449.882	n/a	REC_WORD	724941	wordpools/wasnorm_wordpool_less_exclusions.txt	LTP283	ltpFR	17	8	1	FIELD	562	n/a	0	n/a	n/a	n/a	n/a	n/a
1451.12	n/a	REC_WORD	725560	wordpools/wasnorm_wordpool_less_exclusions.txt	LTP283	ltpFR	17	8	1	CRICKET	408	n/a	0	n/a	n/a	n/a	n/a	n/a
1452.144	n/a	REC_WORD	726072	wordpools/wasnorm_wordpool_less_exclusions.txt	LTP283	ltpFR	17	8	1	BEETLE	116	n/a	1	n/a	n/a	n/a	n/a	n/a
1453.234	n/a	REC_WORD	726617	wordpools/wasnorm_wordpool_less_exclusions.txt	LTP283	ltpFR	17	8	1	GLOVE	642	n/a	0	n/a	n/a	n/a	n/a	n/a
1454.186	n/a	REC_WORD	727093	wordpools/wasnorm_wordpool_less_exclusions.txt	LTP283	ltpFR	17	8	1	FOOTBALL	591	n/a	0	n/a	n/a	n/a	n/a	n/a
1457.306	n/a	REC_WORD	728653	wordpools/wasnorm_wordpool_less_exclusions.txt	LTP283	ltpFR	17	8	1	BOOTH	151	n/a	0	n/a	n/a	n/a	n/a	n/a
1457.996	n/a	REC_WORD	728998	wordpools/wasnorm_wordpool_less_exclusions.txt	LTP283	ltpFR	17	8	1	SURVEY	1414	n/a	0	n/a	n/a	n/a	n/a	n/a
1459.198	n/a	REC_WORD	729599	wordpools/wasnorm_wordpool_less_exclusions.txt	LTP283	ltpFR	17	8	1	SIBLING	1301	n/a	1	n/a	n/a	n/a	n/a	n/a
1460.258	n/a	REC_WORD	730129	wordpools/wasnorm_wordpool_less_exclusions.txt	LTP283	ltpFR	17	8	1	BROTHER	179	n/a	1	n/a	n/a	n/a	n/a	n/a
1461.084	n/a	REC_WORD	730542	wordpools/wasnorm_wordpool_less_exclusions.txt	LTP283	ltpFR	17	8	1	FARMER	553	n/a	0	n/a	n/a	n/a	n/a	n/a
1462.748	n/a	REC_WORD	731374	wordpools/wasnorm_wordpool_less_exclusions.txt	LTP283	ltpFR	17	8	1	RUNNER	1218	n/a	1	n/a	n/a	n/a	n/a	n/a
1463.736	n/a	REC_WORD	731868	wordpools/wasnorm_wordpool_less_exclusions.txt	LTP283	ltpFR	17	8	1	FAIRY	549	n/a	1	n/a	n/a	n/a	n/a	n/a
1523.714	n/a	REST_REWET	761857	n/a	LTP283	ltpFR	17	8	n/a	n/a	n/a	n/a	n/a	n/a	n/a	n/a	n/a	n/a
2040.896	n/a	WORD	1020448	wordpools/wasnorm_wordpool_less_exclusions.txt	LTP283	ltpFR	17	9	1	HEADBAND	696	n/a	0	0	0.5869140625	0.422607421875	upper	../fonts/amplitud.ttf
2045.044	n/a	WORD	1022522	wordpools/wasnorm_wordpool_less_exclusions.txt	LTP283	ltpFR	17	9	1	BADGE	68	n/a	0	0	0.5869140625	0.422607421875	upper	../fonts/amplitud.ttf
2049.162	n/a	WORD	1024581	wordpools/wasnorm_wordpool_less_exclusions.txt	LTP283	ltpFR	17	9	1	BARRACUDA	90	n/a	1	0	0.5869140625	0.422607421875	upper	../fonts/amplitud.ttf
2053.32	n/a	WORD	1026660	wordpools/wasnorm_wordpool_less_exclusions.txt	LTP283	ltpFR	17	9	1	NET	946	n/a	0	0	0.5869140625	0.422607421875	upper	../fonts/amplitud.ttf
2057.152	n/a	WORD	1028576	wordpools/wasnorm_wordpool_less_exclusions.txt	LTP283	ltpFR	17	9	1	ACROBAT	4	n/a	1	0	0.5869140625	0.422607421875	upper	../fonts/amplitud.ttf
2061.072	n/a	WORD	1030536	wordpools/wasnorm_wordpool_less_exclusions.txt	LTP283	ltpFR	17	9	1	CHICKEN	297	n/a	1	0	0.5869140625	0.422607421875	upper	../fonts/amplitud.ttf
2064.98	n/a	WORD	1032490	wordpools/wasnorm_wordpool_less_exclusions.txt	LTP283	ltpFR	17	9	1	DETERGENT	455	n/a	0	0	0.5869140625	0.422607421875	upper	../fonts/amplitud.ttf
2068.862	n/a	WORD	1034431	wordpools/wasnorm_wordpool_less_exclusions.txt	LTP283	ltpFR	17	9	1	BATHTUB	100	n/a	0	0	0.5869140625	0.422607421875	upper	../fonts/amplitud.ttf
2072.734	n/a	WORD	1036367	wordpools/wasnorm_wordpool_less_exclusions.txt	LTP283	ltpFR	17	9	1	EGG	518	n/a	1	0	0.5869140625	0.422607421875	upper	../fonts/amplitud.ttf
2076.934	n/a	WORD	1038467	wordpools/wasnorm_wordpool_less_exclusions.txt	LTP283	ltpFR	17	9	1	TOOTH	1481	n/a	1	0	0.5869140625	0.422607421875	upper	../fonts/amplitud.ttf
2080.764	n/a	WORD	1040382	wordpools/wasnorm_wordpool_less_exclusions.txt	LTP283	ltpFR	17	9	1	COP	376	n/a	1	0	0.5869140625	0.422607421875	upper	../fonts/amplitud.ttf
2084.746	n/a	WORD	1042373	wordpools/wasnorm_wordpool_less_exclusions.txt	LTP283	ltpFR	17	9	1	TERRITORY	1452	n/a	0	0	0.5869140625	0.422607421875	upper	../fonts/amplitud.ttf
2088.906	n/a	WORD	1044453	wordpools/wasnorm_wordpool_less_exclusions.txt	LTP283	ltpFR	17	9	1	MANSION	864	n/a	0	0	0.5869140625	0.422607421875	upper	../fonts/amplitud.ttf
2092.862	n/a	WORD	1046431	wordpools/wasnorm_wordpool_less_exclusions.txt	LTP283	ltpFR	17	9	1	POLICE	1098	n/a	1	0	0.5869140625	0.422607421875	upper	../fonts/amplitud.ttf
2096.776	n/a	WORD	1048388	wordpools/wasnorm_wordpool_less_exclusions.txt	LTP283	ltpFR	17	9	1	BUFFALO	186	n/a	1	0	0.5869140625	0.422607421875	upper	../fonts/amplitud.ttf
2100.968	n/a	WORD	1050484	wordpools/wasnorm_wordpool_less_exclusions.txt	LTP283	ltpFR	17	9	1	TOURIST	1488	n/a	1	0	0.5869140625	0.422607421875	upper	../fonts/amplitud.ttf
2106.814	n/a	REC_START	1053407	n/a	LTP283	ltpFR	17	9	n/a	n/a	n/a	n/a	n/a	n/a	n/a	n/a	n/a	n/a
2109.27	n/a	REC_WORD	1054635	wordpools/wasnorm_wordpool_less_exclusions.txt	LTP283	ltpFR	17	9	1	TOURIST	1488	n/a	1	n/a	n/a	n/a	n/a	n/a
2110.57	n/a	REC_WORD	1055285	wordpools/wasnorm_wordpool_less_exclusions.txt	LTP283	ltpFR	17	9	1	BUFFALO	186	n/a	1	n/a	n/a	n/a	n/a	n/a
2114.386	n/a	REC_WORD	1057193	wordpools/wasnorm_wordpool_less_exclusions.txt	LTP283	ltpFR	17	9	1	COP	376	n/a	1	n/a	n/a	n/a	n/a	n/a
2115.144	n/a	REC_WORD	1057572	wordpools/wasnorm_wordpool_less_exclusions.txt	LTP283	ltpFR	17	9	1	POLICE	1098	n/a	1	n/a	n/a	n/a	n/a	n/a
2116.03	n/a	REC_WORD	1058015	wordpools/wasnorm_wordpool_less_exclusions.txt	LTP283	ltpFR	17	9	1	TERRITORY	1452	n/a	0	n/a	n/a	n/a	n/a	n/a
2116.844	n/a	REC_WORD	1058422	wordpools/wasnorm_wordpool_less_exclusions.txt	LTP283	ltpFR	17	9	1	MANSION	864	n/a	0	n/a	n/a	n/a	n/a	n/a
2119.278	n/a	REC_WORD	1059639	wordpools/wasnorm_wordpool_less_exclusions.txt	LTP283	ltpFR	17	9	1	EGG	518	n/a	1	n/a	n/a	n/a	n/a	n/a
2119.978	n/a	REC_WORD	1059989	wordpools/wasnorm_wordpool_less_exclusions.txt	LTP283	ltpFR	17	9	1	CHICKEN	297	n/a	1	n/a	n/a	n/a	n/a	n/a
2121.542	n/a	REC_WORD	1060771	wordpools/wasnorm_wordpool_less_exclusions.txt	LTP283	ltpFR	17	9	1	BARRACUDA	90	n/a	1	n/a	n/a	n/a	n/a	n/a
2122.722	n/a	REC_WORD	1061361	wordpools/wasnorm_wordpool_less_exclusions.txt	LTP283	ltpFR	17	9	1	NET	946	n/a	0	n/a	n/a	n/a	n/a	n/a
2123.548	n/a	REC_WORD	1061774	wordpools/wasnorm_wordpool_less_exclusions.txt	LTP283	ltpFR	17	9	1	ACROBAT	4	n/a	1	n/a	n/a	n/a	n/a	n/a
2126.722	n/a	REC_WORD	1063361	wordpools/wasnorm_wordpool_less_exclusions.txt	LTP283	ltpFR	17	9	1	BATHTUB	100	n/a	0	n/a	n/a	n/a	n/a	n/a
2127.648	n/a	REC_WORD	1063824	wordpools/wasnorm_wordpool_less_exclusions.txt	LTP283	ltpFR	17	9	1	DETERGENT	455	n/a	0	n/a	n/a	n/a	n/a	n/a
2128.892	n/a	REC_WORD	1064446	wordpools/wasnorm_wordpool_less_exclusions.txt	LTP283	ltpFR	17	9	1	BADGE	68	n/a	0	n/a	n/a	n/a	n/a	n/a
2167.15	n/a	REC_WORD	1083575	wordpools/wasnorm_wordpool_less_exclusions.txt	LTP283	ltpFR	17	9	1	TOOTH	1481	n/a	1	n/a	n/a	n/a	n/a	n/a
2184.938	n/a	WORD	1092469	wordpools/wasnorm_wordpool_less_exclusions.txt	LTP283	ltpFR	17	10	1	BARTENDER	92	n/a	1	0	0.5869140625	0.422607421875	upper	../fonts/amplitud.ttf
2188.794	n/a	WORD	1094397	wordpools/wasnorm_wordpool_less_exclusions.txt	LTP283	ltpFR	17	10	1	BEER	114	n/a	0	0	0.5869140625	0.422607421875	upper	../fonts/amplitud.ttf
2192.86	n/a	WORD	1096430	wordpools/wasnorm_wordpool_less_exclusions.txt	LTP283	ltpFR	17	10	1	VOLLEYBALL	1576	n/a	0	0	0.5869140625	0.422607421875	upper	../fonts/amplitud.ttf
2196.724	n/a	WORD	1098362	wordpools/wasnorm_wordpool_less_exclusions.txt	LTP283	ltpFR	17	10	1	ARENA	37	n/a	0	0	0.5869140625	0.422607421875	upper	../fonts/amplitud.ttf
2200.548	n/a	WORD	1100274	wordpools/wasnorm_wordpool_less_exclusions.txt	LTP283	ltpFR	17	10	0	MAID	856	n/a	1	1	0.412841796875	0.57763671875	lower	../fonts/zerothre.ttf
2204.504	n/a	WORD	1102252	wordpools/wasnorm_wordpool_less_exclusions.txt	LTP283	ltpFR	17	10	0	CATERPILLAR	259	n/a	0	1	0.412841796875	0.57763671875	lower	../fonts/zerothre.ttf
2208.336	n/a	WORD	1104168	wordpools/wasnorm_wordpool_less_exclusions.txt	LTP283	ltpFR	17	10	0	KNAPSACK	783	n/a	1	1	0.412841796875	0.57763671875	lower	../fonts/zerothre.ttf
2212.402	n/a	WORD	1106201	wordpools/wasnorm_wordpool_less_exclusions.txt	LTP283	ltpFR	17	10	0	MOTOR	922	n/a	1	1	0.412841796875	0.57763671875	lower	../fonts/zerothre.ttf
2216.45	n/a	WORD	1108225	wordpools/wasnorm_wordpool_less_exclusions.txt	LTP283	ltpFR	17	10	0	COWBOY	395	n/a	1	1	0.412841796875	0.57763671875	lower	../fonts/zerothre.ttf
2220.582	n/a	WORD	1110291	wordpools/wasnorm_wordpool_less_exclusions.txt	LTP283	ltpFR	17	10	1	WAREHOUSE	1588	n/a	0	0	0.5869140625	0.422607421875	upper	../fonts/amplitud.ttf
2224.642	n/a	WORD	1112321	wordpools/wasnorm_wordpool_less_exclusions.txt	LTP283	ltpFR	17	10	1	CROW	414	n/a	1	0	0.5869140625	0.422607421875	upper	../fonts/amplitud.ttf
2228.64	n/a	WORD	1114320	wordpools/wasnorm_wordpool_less_exclusions.txt	LTP283	ltpFR	17	10	1	TAIL	1430	n/a	1	0	0.5869140625	0.422607421875	upper	../fonts/amplitud.ttf
2232.538	n/a	WORD	1116269	wordpools/wasnorm_wordpool_less_exclusions.txt	LTP283	ltpFR	17	10	1	HAY	693	n/a	0	0	0.5869140625	0.422607421875	upper	../fonts/amplitud.ttf
2236.554	n/a	WORD	1118277	wordpools/wasnorm_wordpool_less_exclusions.txt	LTP283	ltpFR	17	10	0	SEAGULL	1261	n/a	1	1	0.412841796875	0.57763671875	lower	../fonts/zerothre.ttf
2240.702	n/a	WORD	1120351	wordpools/wasnorm_wordpool_less_exclusions.txt	LTP283	ltpFR	17	10	0	MAGICIAN	854	n/a	1	1	0.412841796875	0.57763671875	lower	../fonts/zerothre.ttf
2244.702	n/a	WORD	1122351	wordpools/wasnorm_wordpool_less_exclusions.txt	LTP283	ltpFR	17	10	0	FUR	615	n/a	0	1	0.412841796875	0.57763671875	lower	../fonts/zerothre.ttf
2250.574	n/a	REC_START	1125287	n/a	LTP283	ltpFR	17	10	n/a	n/a	n/a	n/a	n/a	n/a	n/a	n/a	n/a	n/a
2252.42	n/a	REC_WORD_VV	1126210	wordpools/wasnorm_wordpool_less_exclusions.txt	LTP283	ltpFR	17	10	n/a	<>	-1	n/a	n/a	n/a	n/a	n/a	n/a	n/a
2254.456	n/a	REC_WORD	1127228	wordpools/wasnorm_wordpool_less_exclusions.txt	LTP283	ltpFR	17	10	0	FUR	615	n/a	0	n/a	n/a	n/a	n/a	n/a
2255.612	n/a	REC_WORD	1127806	wordpools/wasnorm_wordpool_less_exclusions.txt	LTP283	ltpFR	17	10	0	MAGICIAN	854	n/a	1	n/a	n/a	n/a	n/a	n/a
2256.796	n/a	REC_WORD	1128398	wordpools/wasnorm_wordpool_less_exclusions.txt	LTP283	ltpFR	17	10	0	SEAGULL	1261	n/a	1	n/a	n/a	n/a	n/a	n/a
2257.9	n/a	REC_WORD	1128950	wordpools/wasnorm_wordpool_less_exclusions.txt	LTP283	ltpFR	17	10	1	CROW	414	n/a	1	n/a	n/a	n/a	n/a	n/a
2259.098	n/a	REC_WORD	1129549	wordpools/wasnorm_wordpool_less_exclusions.txt	LTP283	ltpFR	17	10	1	TAIL	1430	n/a	1	n/a	n/a	n/a	n/a	n/a
2261.666	n/a	REC_WORD	1130833	wordpools/wasnorm_wordpool_less_exclusions.txt	LTP283	ltpFR	17	10	1	ARENA	37	n/a	0	n/a	n/a	n/a	n/a	n/a
2263.088	n/a	REC_WORD	1131544	wordpools/wasnorm_wordpool_less_exclusions.txt	LTP283	ltpFR	17	10	1	WAREHOUSE	1588	n/a	0	n/a	n/a	n/a	n/a	n/a
2264.088	n/a	REC_WORD_VV	1132044	wordpools/wasnorm_wordpool_less_exclusions.txt	LTP283	ltpFR	17	10	n/a	<>	-1	n/a	n/a	n/a	n/a	n/a	n/a	n/a
2264.67	n/a	REC_WORD	1132335	wordpools/wasnorm_wordpool_less_exclusions.txt	LTP283	ltpFR	17	10	1	VOLLEYBALL	1576	n/a	0	n/a	n/a	n/a	n/a	n/a
2266.434	n/a	REC_WORD	1133217	wordpools/wasnorm_wordpool_less_exclusions.txt	LTP283	ltpFR	17	10	1	BEER	114	n/a	0	n/a	n/a	n/a	n/a	n/a
2267.614	n/a	REC_WORD	1133807	wordpools/wasnorm_wordpool_less_exclusions.txt	LTP283	ltpFR	17	10	1	BARTENDER	92	n/a	1	n/a	n/a	n/a	n/a	n/a
2269.478	n/a	REC_WORD	1134739	wordpools/wasnorm_wordpool_less_exclusions.txt	LTP283	ltpFR	17	10	0	MAID	856	n/a	1	n/a	n/a	n/a	n/a	n/a
2270.696	n/a	REC_WORD	1135348	wordpools/wasnorm_wordpool_less_exclusions.txt	LTP283	ltpFR	17	10	0	COWBOY	395	n/a	1	n/a	n/a	n/a	n/a	n/a
2272.556	n/a	REC_WORD	1136278	wordpools/wasnorm_wordpool_less_exclusions.txt	LTP283	ltpFR	17	10	0	MOTOR	922	n/a	1	n/a	n/a	n/a	n/a	n/a
2273.872	n/a	REC_WORD	1136936	wordpools/wasnorm_wordpool_less_exclusions.txt	LTP283	ltpFR	17	10	0	FUR	615	n/a	0	n/a	n/a	n/a	n/a	n/a
2276.718	n/a	REC_WORD	1138359	wordpools/wasnorm_wordpool_less_exclusions.txt	LTP283	ltpFR	17	10	0	KNAPSACK	783	n/a	1	n/a	n/a	n/a	n/a	n/a
2280.748	n/a	REC_WORD	1140374	wordpools/wasnorm_wordpool_less_exclusions.txt	LTP283	ltpFR	17	10	0	CATERPILLAR	259	n/a	0	n/a	n/a	n/a	n/a	n/a
2282.88	n/a	REC_WORD	1141440	wordpools/wasnorm_wordpool_less_exclusions.txt	LTP283	ltpFR	17	10	1	HAY	693	n/a	0	n/a	n/a	n/a	n/a	n/a
2328.822	n/a	WORD	1164411	wordpools/wasnorm_wordpool_less_exclusions.txt	LTP283	ltpFR	17	11	1	STICKER	1382	n/a	0	0	0.5869140625	0.422607421875	upper	../fonts/amplitud.ttf
2332.744	n/a	WORD	1166372	wordpools/wasnorm_wordpool_less_exclusions.txt	LTP283	ltpFR	17	11	1	PERSON	1052	n/a	1	0	0.5869140625	0.422607421875	upper	../fonts/amplitud.ttf
2336.876	n/a	WORD	1168438	wordpools/wasnorm_wordpool_less_exclusions.txt	LTP283	ltpFR	17	11	1	OREGANO	983	n/a	1	0	0.5869140625	0.422607421875	upper	../fonts/amplitud.ttf
2340.776	n/a	WORD	1170388	wordpools/wasnorm_wordpool_less_exclusions.txt	LTP283	ltpFR	17	11	1	REFRIGERATOR	1179	n/a	0	0	0.5869140625	0.422607421875	upper	../fonts/amplitud.ttf
2344.624	n/a	WORD	1172312	wordpools/wasnorm_wordpool_less_exclusions.txt	LTP283	ltpFR	17	11	1	PASSENGER	1020	n/a	1	0	0.5869140625	0.422607421875	upper	../fonts/amplitud.ttf
2348.504	n/a	WORD	1174252	wordpools/wasnorm_wordpool_less_exclusions.txt	LTP283	ltpFR	17	11	1	POET	1095	n/a	1	0	0.5869140625	0.422607421875	upper	../fonts/amplitud.ttf
2352.704	n/a	WORD	1176352	wordpools/wasnorm_wordpool_less_exclusions.txt	LTP283	ltpFR	17	11	1	LABEL	790	n/a	0	0	0.5869140625	0.422607421875	upper	../fonts/amplitud.ttf
2356.886	n/a	WORD	1178443	wordpools/wasnorm_wordpool_less_exclusions.txt	LTP283	ltpFR	17	11	1	CITRUS	313	n/a	1	0	0.5869140625	0.422607421875	upper	../fonts/amplitud.ttf
2360.828	n/a	WORD	1180414	wordpools/wasnorm_wordpool_less_exclusions.txt	LTP283	ltpFR	17	11	1	GLUE	643	n/a	0	0	0.5869140625	0.422607421875	upper	../fonts/amplitud.ttf
2364.776	n/a	WORD	1182388	wordpools/wasnorm_wordpool_less_exclusions.txt	LTP283	ltpFR	17	11	1	STEAM	1375	n/a	0	0	0.5869140625	0.422607421875	upper	../fonts/amplitud.ttf
2368.932	n/a	WORD	1184466	wordpools/wasnorm_wordpool_less_exclusions.txt	LTP283	ltpFR	17	11	1	HAMBURGER	679	n/a	0	0	0.5869140625	0.422607421875	upper	../fonts/amplitud.ttf
2372.848	n/a	WORD	1186424	wordpools/wasnorm_wordpool_less_exclusions.txt	LTP283	ltpFR	17	11	1	ATTORNEY	58	n/a	1	0	0.5869140625	0.422607421875	upper	../fonts/amplitud.ttf
2376.88	n/a	WORD	1188440	wordpools/wasnorm_wordpool_less_exclusions.txt	LTP283	ltpFR	17	11	1	WITNESS	1618	n/a	1	0	0.5869140625	0.422607421875	upper	../fonts/amplitud.ttf
2380.822	n/a	WORD	1190411	wordpools/wasnorm_wordpool_less_exclusions.txt	LTP283	ltpFR	17	11	1	MARINE	869	n/a	1	0	0.5869140625	0.422607421875	upper	../fonts/amplitud.ttf
2384.676	n/a	WORD	1192338	wordpools/wasnorm_wordpool_less_exclusions.txt	LTP283	ltpFR	17	11	1	CATCHER	258	n/a	1	0	0.5869140625	0.422607421875	upper	../fonts/amplitud.ttf
2388.858	n/a	WORD	1194429	wordpools/wasnorm_wordpool_less_exclusions.txt	LTP283	ltpFR	17	11	1	REFEREE	1178	n/a	1	0	0.5869140625	0.422607421875	upper	../fonts/amplitud.ttf
2395.0	n/a	REC_START	1197500	n/a	LTP283	ltpFR	17	11	n/a	n/a	n/a	n/a	n/a	n/a	n/a	n/a	n/a	n/a
2397.568	n/a	REC_WORD	1198784	wordpools/wasnorm_wordpool_less_exclusions.txt	LTP283	ltpFR	17	11	1	REFEREE	1178	n/a	1	n/a	n/a	n/a	n/a	n/a
2398.872	n/a	REC_WORD	1199436	wordpools/wasnorm_wordpool_less_exclusions.txt	LTP283	ltpFR	17	11	1	CATCHER	258	n/a	1	n/a	n/a	n/a	n/a	n/a
2399.882	n/a	REC_WORD	1199941	wordpools/wasnorm_wordpool_less_exclusions.txt	LTP283	ltpFR	17	11	1	MARINE	869	n/a	1	n/a	n/a	n/a	n/a	n/a
2401.596	n/a	REC_WORD	1200798	wordpools/wasnorm_wordpool_less_exclusions.txt	LTP283	ltpFR	17	11	1	POET	1095	n/a	1	n/a	n/a	n/a	n/a	n/a
2402.534	n/a	REC_WORD	1201267	wordpools/wasnorm_wordpool_less_exclusions.txt	LTP283	ltpFR	17	11	1	WITNESS	1618	n/a	1	n/a	n/a	n/a	n/a	n/a
2403.51	n/a	REC_WORD	1201755	wordpools/wasnorm_wordpool_less_exclusions.txt	LTP283	ltpFR	17	11	1	PASSENGER	1020	n/a	1	n/a	n/a	n/a	n/a	n/a
2404.584	n/a	REC_WORD	1202292	wordpools/wasnorm_wordpool_less_exclusions.txt	LTP283	ltpFR	17	11	1	ATTORNEY	58	n/a	1	n/a	n/a	n/a	n/a	n/a
2407.038	n/a	REC_WORD	1203519	wordpools/wasnorm_wordpool_less_exclusions.txt	LTP283	ltpFR	17	11	1	HAMBURGER	679	n/a	0	n/a	n/a	n/a	n/a	n/a
2408.576	n/a	REC_WORD	1204288	wordpools/wasnorm_wordpool_less_exclusions.txt	LTP283	ltpFR	17	11	1	OREGANO	983	n/a	1	n/a	n/a	n/a	n/a	n/a
2409.716	n/a	REC_WORD	1204858	wordpools/wasnorm_wordpool_less_exclusions.txt	LTP283	ltpFR	17	11	1	LABEL	790	n/a	0	n/a	n/a	n/a	n/a	n/a
2410.712	n/a	REC_WORD	1205356	wordpools/wasnorm_wordpool_less_exclusions.txt	LTP283	ltpFR	17	11	1	STICKER	1382	n/a	0	n/a	n/a	n/a	n/a	n/a
2412.32	n/a	REC_WORD	1206160	wordpools/wasnorm_wordpool_less_exclusions.txt	LTP283	ltpFR	17	11	1	REFRIGERATOR	1179	n/a	0	n/a	n/a	n/a	n/a	n/a
2421.082	n/a	REC_WORD	1210541	wordpools/wasnorm_wordpool_less_exclusions.txt	LTP283	ltpFR	17	11	1	PERSON	1052	n/a	1	n/a	n/a	n/a	n/a	n/a
2473.542	n/a	WORD	1236771	wordpools/wasnorm_wordpool_less_exclusions.txt	LTP283	ltpFR	17	12	-1	JEWEL	757	n/a	-1	1	1.0	1.0	upper	../fonts/Verdana.ttf
2477.448	n/a	WORD	1238724	wordpools/wasnorm_wordpool_less_exclusions.txt	LTP283	ltpFR	17	12	-1	GEM	629	n/a	-1	1	1.0	1.0	upper	../fonts/Verdana.ttf
2481.646	n/a	WORD	1240823	wordpools/wasnorm_wordpool_less_exclusions.txt	LTP283	ltpFR	17	12	-1	GOAT	644	n/a	-1	1	1.0	1.0	upper	../fonts/Verdana.ttf
2485.494	n/a	WORD	1242747	wordpools/wasnorm_wordpool_less_exclusions.txt	LTP283	ltpFR	17	12	-1	CARTON	251	n/a	-1	1	1.0	1.0	upper	../fonts/Verdana.ttf
2489.36	n/a	WORD	1244680	wordpools/wasnorm_wordpool_less_exclusions.txt	LTP283	ltpFR	17	12	-1	ATLAS	53	n/a	-1	1	1.0	1.0	upper	../fonts/Verdana.ttf
2493.486	n/a	WORD	1246743	wordpools/wasnorm_wordpool_less_exclusions.txt	LTP283	ltpFR	17	12	-1	OFFICER	973	n/a	-1	1	1.0	1.0	upper	../fonts/Verdana.ttf
2497.358	n/a	WORD	1248679	wordpools/wasnorm_wordpool_less_exclusions.txt	LTP283	ltpFR	17	12	-1	FOE	587	n/a	-1	1	1.0	1.0	upper	../fonts/Verdana.ttf
2501.206	n/a	WORD	1250603	wordpools/wasnorm_wordpool_less_exclusions.txt	LTP283	ltpFR	17	12	-1	CHISEL	305	n/a	-1	1	1.0	1.0	upper	../fonts/Verdana.ttf
2505.304	n/a	WORD	1252652	wordpools/wasnorm_wordpool_less_exclusions.txt	LTP283	ltpFR	17	12	-1	CHART	282	n/a	-1	1	1.0	1.0	upper	../fonts/Verdana.ttf
2509.486	n/a	WORD	1254743	wordpools/wasnorm_wordpool_less_exclusions.txt	LTP283	ltpFR	17	12	-1	SHERIFF	1284	n/a	-1	1	1.0	1.0	upper	../fonts/Verdana.ttf
2513.652	n/a	WORD	1256826	wordpools/wasnorm_wordpool_less_exclusions.txt	LTP283	ltpFR	17	12	-1	CHIP	303	n/a	-1	1	1.0	1.0	upper	../fonts/Verdana.ttf
2517.6	n/a	WORD	1258800	wordpools/wasnorm_wordpool_less_exclusions.txt	LTP283	ltpFR	17	12	-1	CRAB	397	n/a	-1	1	1.0	1.0	upper	../fonts/Verdana.ttf
2521.582	n/a	WORD	1260791	wordpools/wasnorm_wordpool_less_exclusions.txt	LTP283	ltpFR	17	12	-1	VALVE	1546	n/a	-1	1	1.0	1.0	upper	../fonts/Verdana.ttf
2525.59	n/a	WORD	1262795	wordpools/wasnorm_wordpool_less_exclusions.txt	LTP283	ltpFR	17	12	-1	PAIL	1002	n/a	-1	1	1.0	1.0	upper	../fonts/Verdana.ttf
2529.54	n/a	WORD	1264770	wordpools/wasnorm_wordpool_less_exclusions.txt	LTP283	ltpFR	17	12	-1	BUILDING	191	n/a	-1	1	1.0	1.0	upper	../fonts/Verdana.ttf
2533.378	n/a	WORD	1266689	wordpools/wasnorm_wordpool_less_exclusions.txt	LTP283	ltpFR	17	12	-1	SHEPHERD	1283	n/a	-1	1	1.0	1.0	upper	../fonts/Verdana.ttf
2539.418	n/a	REC_START	1269709	n/a	LTP283	ltpFR	17	12	n/a	n/a	n/a	n/a	n/a	n/a	n/a	n/a	n/a	n/a
2540.796	n/a	REC_WORD	1270398	wordpools/wasnorm_wordpool_less_exclusions.txt	LTP283	ltpFR	17	12	-1	BUILDING	191	n/a	-1	n/a	n/a	n/a	n/a	n/a
2541.648	n/a	REC_WORD	1270824	wordpools/wasnorm_wordpool_less_exclusions.txt	LTP283	ltpFR	17	12	-1	SHEPHERD	1283	n/a	-1	n/a	n/a	n/a	n/a	n/a
2543.042	n/a	REC_WORD	1271521	wordpools/wasnorm_wordpool_less_exclusions.txt	LTP283	ltpFR	17	12	-1	VALVE	1546	n/a	-1	n/a	n/a	n/a	n/a	n/a
2544.21	n/a	REC_WORD	1272105	wordpools/wasnorm_wordpool_less_exclusions.txt	LTP283	ltpFR	17	12	-1	PAIL	1002	n/a	-1	n/a	n/a	n/a	n/a	n/a
2546.644	n/a	REC_WORD	1273322	wordpools/wasnorm_wordpool_less_exclusions.txt	LTP283	ltpFR	17	12	-1	FOE	587	n/a	-1	n/a	n/a	n/a	n/a	n/a
2548.04	n/a	REC_WORD	1274020	wordpools/wasnorm_wordpool_less_exclusions.txt	LTP283	ltpFR	17	12	-1	CRAB	397	n/a	-1	n/a	n/a	n/a	n/a	n/a
2549.154	n/a	REC_WORD	1274577	wordpools/wasnorm_wordpool_less_exclusions.txt	LTP283	ltpFR	17	12	-1	SHERIFF	1284	n/a	-1	n/a	n/a	n/a	n/a	n/a
2550.358	n/a	REC_WORD	1275179	wordpools/wasnorm_wordpool_less_exclusions.txt	LTP283	ltpFR	17	12	-1	OFFICER	973	n/a	-1	n/a	n/a	n/a	n/a	n/a
2572.114	n/a	REC_WORD	1286057	wordpools/wasnorm_wordpool_less_exclusions.txt	LTP283	ltpFR	17	12	-1	JEWEL	757	n/a	-1	n/a	n/a	n/a	n/a	n/a
2573.652	n/a	REC_WORD	1286826	wordpools/wasnorm_wordpool_less_exclusions.txt	LTP283	ltpFR	17	12	-1	GEM	629	n/a	-1	n/a	n/a	n/a	n/a	n/a
2590.6	n/a	REC_WORD	1295300	wordpools/wasnorm_wordpool_less_exclusions.txt	LTP283	ltpFR	17	12	-1	GOAT	644	n/a	-1	n/a	n/a	n/a	n/a	n/a
2591.92	n/a	REC_WORD	1295960	wordpools/wasnorm_wordpool_less_exclusions.txt	LTP283	ltpFR	17	12	-1	CHIP	303	n/a	-1	n/a	n/a	n/a	n/a	n/a
2592.846	n/a	REC_WORD	1296423	wordpools/wasnorm_wordpool_less_exclusions.txt	LTP283	ltpFR	17	12	-1	CHISEL	305	n/a	-1	n/a	n/a	n/a	n/a	n/a
2593.802	n/a	REC_WORD	1296901	wordpools/wasnorm_wordpool_less_exclusions.txt	LTP283	ltpFR	17	12	-1	CARTON	251	n/a	-1	n/a	n/a	n/a	n/a	n/a
2603.458	n/a	REC_WORD	1301729	wordpools/wasnorm_wordpool_less_exclusions.txt	LTP283	ltpFR	17	12	-1	SHEPHERD	1283	n/a	-1	n/a	n/a	n/a	n/a	n/a
2617.6	n/a	WORD	1308800	wordpools/wasnorm_wordpool_less_exclusions.txt	LTP283	ltpFR	17	13	1	MARGARINE	868	n/a	0	0	0.5869140625	0.422607421875	upper	../fonts/amplitud.ttf
2621.816	n/a	WORD	1310908	wordpools/wasnorm_wordpool_less_exclusions.txt	LTP283	ltpFR	17	13	1	GRAVEL	659	n/a	0	0	0.5869140625	0.422607421875	upper	../fonts/amplitud.ttf
2625.948	n/a	WORD	1312974	wordpools/wasnorm_wordpool_less_exclusions.txt	LTP283	ltpFR	17	13	1	NAPKIN	937	n/a	0	0	0.5869140625	0.422607421875	upper	../fonts/amplitud.ttf
2629.914	n/a	WORD	1314957	wordpools/wasnorm_wordpool_less_exclusions.txt	LTP283	ltpFR	17	13	0	STREAM	1392	n/a	1	1	0.412841796875	0.57763671875	lower	../fonts/zerothre.ttf
2633.922	n/a	WORD	1316961	wordpools/wasnorm_wordpool_less_exclusions.txt	LTP283	ltpFR	17	13	0	PIRATE	1074	n/a	1	1	0.412841796875	0.57763671875	lower	../fonts/zerothre.ttf
2637.76	n/a	WORD	1318880	wordpools/wasnorm_wordpool_less_exclusions.txt	LTP283	ltpFR	17	13	0	TOWEL	1489	n/a	0	1	0.412841796875	0.57763671875	lower	../fonts/zerothre.ttf
2641.96	n/a	WORD	1320980	wordpools/wasnorm_wordpool_less_exclusions.txt	LTP283	ltpFR	17	13	1	COAL	332	n/a	0	0	0.5869140625	0.422607421875	upper	../fonts/amplitud.ttf
2645.834	n/a	WORD	1322917	wordpools/wasnorm_wordpool_less_exclusions.txt	LTP283	ltpFR	17	13	1	RUST	1219	n/a	0	0	0.5869140625	0.422607421875	upper	../fonts/amplitud.ttf
2649.666	n/a	WORD	1324833	wordpools/wasnorm_wordpool_less_exclusions.txt	LTP283	ltpFR	17	13	1	PAW	1029	n/a	1	0	0.5869140625	0.422607421875	upper	../fonts/amplitud.ttf
2653.564	n/a	WORD	1326782	wordpools/wasnorm_wordpool_less_exclusions.txt	LTP283	ltpFR	17	13	0	BUCKET	184	n/a	1	1	0.412841796875	0.57763671875	lower	../fonts/zerothre.ttf
2657.736	n/a	WORD	1328868	wordpools/wasnorm_wordpool_less_exclusions.txt	LTP283	ltpFR	17	13	0	OUTLAW	989	n/a	1	1	0.412841796875	0.57763671875	lower	../fonts/zerothre.ttf
2661.902	n/a	WORD	1330951	wordpools/wasnorm_wordpool_less_exclusions.txt	LTP283	ltpFR	17	13	0	BEAKER	104	n/a	0	1	0.412841796875	0.57763671875	lower	../fonts/zerothre.ttf
2666.084	n/a	WORD	1333042	wordpools/wasnorm_wordpool_less_exclusions.txt	LTP283	ltpFR	17	13	0	BIOLOGIST	128	n/a	1	1	0.412841796875	0.57763671875	lower	../fonts/zerothre.ttf
2670.134	n/a	WORD	1335067	wordpools/wasnorm_wordpool_less_exclusions.txt	LTP283	ltpFR	17	13	0	BAND	78	n/a	1	1	0.412841796875	0.57763671875	lower	../fonts/zerothre.ttf
2674.092	n/a	WORD	1337046	wordpools/wasnorm_wordpool_less_exclusions.txt	LTP283	ltpFR	17	13	1	RADIO	1157	n/a	0	0	0.5869140625	0.422607421875	upper	../fonts/amplitud.ttf
2678.04	n/a	WORD	1339020	wordpools/wasnorm_wordpool_less_exclusions.txt	LTP283	ltpFR	17	13	1	PEOPLE	1046	n/a	1	0	0.5869140625	0.422607421875	upper	../fonts/amplitud.ttf
2683.98	n/a	REC_START	1341990	n/a	LTP283	ltpFR	17	13	n/a	n/a	n/a	n/a	n/a	n/a	n/a	n/a	n/a	n/a
2686.418	n/a	REC_WORD	1343209	wordpools/wasnorm_wordpool_less_exclusions.txt	LTP283	ltpFR	17	13	1	PEOPLE	1046	n/a	1	n/a	n/a	n/a	n/a	n/a
2687.376	n/a	REC_WORD	1343688	wordpools/wasnorm_wordpool_less_exclusions.txt	LTP283	ltpFR	17	13	1	RADIO	1157	n/a	0	n/a	n/a	n/a	n/a	n/a
2688.704	n/a	REC_WORD	1344352	wordpools/wasnorm_wordpool_less_exclusions.txt	LTP283	ltpFR	17	13	0	BIOLOGIST	128	n/a	1	n/a	n/a	n/a	n/a	n/a
2689.846	n/a	REC_WORD	1344923	wordpools/wasnorm_wordpool_less_exclusions.txt	LTP283	ltpFR	17	13	0	BEAKER	104	n/a	0	n/a	n/a	n/a	n/a	n/a
2691.402	n/a	REC_WORD	1345701	wordpools/wasnorm_wordpool_less_exclusions.txt	LTP283	ltpFR	17	13	0	PIRATE	1074	n/a	1	n/a	n/a	n/a	n/a	n/a
2692.2	n/a	REC_WORD	1346100	wordpools/wasnorm_wordpool_less_exclusions.txt	LTP283	ltpFR	17	13	0	OUTLAW	989	n/a	1	n/a	n/a	n/a	n/a	n/a
2692.852	n/a	REC_WORD	1346426	wordpools/wasnorm_wordpool_less_exclusions.txt	LTP283	ltpFR	17	13	0	STREAM	1392	n/a	1	n/a	n/a	n/a	n/a	n/a
2709.144	n/a	REC_WORD	1354572	wordpools/wasnorm_wordpool_less_exclusions.txt	LTP283	ltpFR	17	13	1	MARGARINE	868	n/a	0	n/a	n/a	n/a	n/a	n/a
2710.326	n/a	REC_WORD	1355163	wordpools/wasnorm_wordpool_less_exclusions.txt	LTP283	ltpFR	17	13	1	NAPKIN	937	n/a	0	n/a	n/a	n/a	n/a	n/a
2723.594	n/a	REC_WORD	1361797	wordpools/wasnorm_wordpool_less_exclusions.txt	LTP283	ltpFR	17	13	1	COAL	332	n/a	0	n/a	n/a	n/a	n/a	n/a
2724.756	n/a	REC_WORD	1362378	wordpools/wasnorm_wordpool_less_exclusions.txt	LTP283	ltpFR	17	13	0	BUCKET	184	n/a	1	n/a	n/a	n/a	n/a	n/a
2726.874	n/a	REC_WORD	1363437	wordpools/wasnorm_wordpool_less_exclusions.txt	LTP283	ltpFR	17	13	1	RUST	1219	n/a	0	n/a	n/a	n/a	n/a	n/a
2730.108	n/a	REC_WORD	1365054	wordpools/wasnorm_wordpool_less_exclusions.txt	LTP283	ltpFR	17	13	1	PAW	1029	n/a	1	n/a	n/a	n/a	n/a	n/a
2735.068	n/a	REC_WORD	1367534	wordpools/wasnorm_wordpool_less_exclusions.txt	LTP283	ltpFR	17	13	1	GRAVEL	659	n/a	0	n/a	n/a	n/a	n/a	n/a
2763.124	n/a	WORD	1381562	wordpools/wasnorm_wordpool_less_exclusions.txt	LTP283	ltpFR	17	14	0	BEAD	103	n/a	0	1	0.412841796875	0.57763671875	lower	../fonts/zerothre.ttf
2766.954	n/a	WORD	1383477	wordpools/wasnorm_wordpool_less_exclusions.txt	LTP283	ltpFR	17	14	0	SCREW	1254	n/a	0	1	0.412841796875	0.57763671875	lower	../fonts/zerothre.ttf
2771.18	n/a	WORD	1385590	wordpools/wasnorm_wordpool_less_exclusions.txt	LTP283	ltpFR	17	14	0	TRAY	1498	n/a	1	1	0.412841796875	0.57763671875	lower	../fonts/zerothre.ttf
2775.18	n/a	WORD	1387590	wordpools/wasnorm_wordpool_less_exclusions.txt	LTP283	ltpFR	17	14	0	EARRING	514	n/a	0	1	0.412841796875	0.57763671875	lower	../fonts/zerothre.ttf
2779.128	n/a	WORD	1389564	wordpools/wasnorm_wordpool_less_exclusions.txt	LTP283	ltpFR	17	14	0	BLUEBERRY	140	n/a	0	1	0.412841796875	0.57763671875	lower	../fonts/zerothre.ttf
2782.964	n/a	WORD	1391482	wordpools/wasnorm_wordpool_less_exclusions.txt	LTP283	ltpFR	17	14	0	DRAWER	493	n/a	1	1	0.412841796875	0.57763671875	lower	../fonts/zerothre.ttf
2786.88	n/a	WORD	1393440	wordpools/wasnorm_wordpool_less_exclusions.txt	LTP283	ltpFR	17	14	0	WARDROBE	1587	n/a	1	1	0.412841796875	0.57763671875	lower	../fonts/zerothre.ttf
2790.82	n/a	WORD	1395410	wordpools/wasnorm_wordpool_less_exclusions.txt	LTP283	ltpFR	17	14	0	FOREST	593	n/a	1	1	0.412841796875	0.57763671875	lower	../fonts/zerothre.ttf
2794.67	n/a	WORD	1397335	wordpools/wasnorm_wordpool_less_exclusions.txt	LTP283	ltpFR	17	14	0	MAPLE	866	n/a	1	1	0.412841796875	0.57763671875	lower	../fonts/zerothre.ttf
2798.776	n/a	WORD	1399388	wordpools/wasnorm_wordpool_less_exclusions.txt	LTP283	ltpFR	17	14	0	WIRE	1616	n/a	0	1	0.412841796875	0.57763671875	lower	../fonts/zerothre.ttf
2802.984	n/a	WORD	1401492	wordpools/wasnorm_wordpool_less_exclusions.txt	LTP283	ltpFR	17	14	0	MITTEN	902	n/a	0	1	0.412841796875	0.57763671875	lower	../fonts/zerothre.ttf
2806.972	n/a	WORD	1403486	wordpools/wasnorm_wordpool_less_exclusions.txt	LTP283	ltpFR	17	14	0	MEAL	882	n/a	1	1	0.412841796875	0.57763671875	lower	../fonts/zerothre.ttf
2810.932	n/a	WORD	1405466	wordpools/wasnorm_wordpool_less_exclusions.txt	LTP283	ltpFR	17	14	0	GRAPE	654	n/a	0	1	0.412841796875	0.57763671875	lower	../fonts/zerothre.ttf
2814.83	n/a	WORD	1407415	wordpools/wasnorm_wordpool_less_exclusions.txt	LTP283	ltpFR	17	14	0	KEYBOARD	774	n/a	1	1	0.412841796875	0.57763671875	lower	../fonts/zerothre.ttf
2818.668	n/a	WORD	1409334	wordpools/wasnorm_wordpool_less_exclusions.txt	LTP283	ltpFR	17	14	0	SKIN	1318	n/a	0	1	0.412841796875	0.57763671875	lower	../fonts/zerothre.ttf
2822.498	n/a	WORD	1411249	wordpools/wasnorm_wordpool_less_exclusions.txt	LTP283	ltpFR	17	14	0	VAMPIRE	1547	n/a	1	1	0.412841796875	0.57763671875	lower	../fonts/zerothre.ttf
2828.466	n/a	REC_START	1414233	n/a	LTP283	ltpFR	17	14	n/a	n/a	n/a	n/a	n/a	n/a	n/a	n/a	n/a	n/a
2830.688	n/a	REC_WORD	1415344	wordpools/wasnorm_wordpool_less_exclusions.txt	LTP283	ltpFR	17	14	0	VAMPIRE	1547	n/a	1	n/a	n/a	n/a	n/a	n/a
2831.452	n/a	REC_WORD	1415726	wordpools/wasnorm_wordpool_less_exclusions.txt	LTP283	ltpFR	17	14	0	SKIN	1318	n/a	0	n/a	n/a	n/a	n/a	n/a
2832.622	n/a	REC_WORD	1416311	wordpools/wasnorm_wordpool_less_exclusions.txt	LTP283	ltpFR	17	14	0	KEYBOARD	774	n/a	1	n/a	n/a	n/a	n/a	n/a
2835.55	n/a	REC_WORD	1417775	wordpools/wasnorm_wordpool_less_exclusions.txt	LTP283	ltpFR	17	14	0	MAPLE	866	n/a	1	n/a	n/a	n/a	n/a	n/a
2840.69	n/a	REC_WORD	1420345	wordpools/wasnorm_wordpool_less_exclusions.txt	LTP283	ltpFR	17	14	0	FOREST	593	n/a	1	n/a	n/a	n/a	n/a	n/a
2847.912	n/a	REC_WORD	1423956	wordpools/wasnorm_wordpool_less_exclusions.txt	LTP283	ltpFR	17	14	0	WARDROBE	1587	n/a	1	n/a	n/a	n/a	n/a	n/a
2851.472	n/a	REC_WORD	1425736	wordpools/wasnorm_wordpool_less_exclusions.txt	LTP283	ltpFR	17	14	0	DRAWER	493	n/a	1	n/a	n/a	n/a	n/a	n/a
2870.266	n/a	REC_WORD	1435133	wordpools/wasnorm_wordpool_less_exclusions.txt	LTP283	ltpFR	17	14	0	BLUEBERRY	140	n/a	0	n/a	n/a	n/a	n/a	n/a
2871.658	n/a	REC_WORD	1435829	wordpools/wasnorm_wordpool_less_exclusions.txt	LTP283	ltpFR	17	14	0	GRAPE	654	n/a	0	n/a	n/a	n/a	n/a	n/a
2872.43	n/a	REC_WORD	1436215	wordpools/wasnorm_wordpool_less_exclusions.txt	LTP283	ltpFR	17	14	0	TRAY	1498	n/a	1	n/a	n/a	n/a	n/a	n/a
2873.246	n/a	REC_WORD	1436623	wordpools/wasnorm_wordpool_less_exclusions.txt	LTP283	ltpFR	17	14	0	MEAL	882	n/a	1	n/a	n/a	n/a	n/a	n/a
2874.092	n/a	REC_WORD	1437046	wordpools/wasnorm_wordpool_less_exclusions.txt	LTP283	ltpFR	17	14	0	SCREW	1254	n/a	0	n/a	n/a	n/a	n/a	n/a
2880.926	n/a	REC_WORD	1440463	wordpools/wasnorm_wordpool_less_exclusions.txt	LTP283	ltpFR	17	14	0	EARRING	514	n/a	0	n/a	n/a	n/a	n/a	n/a
2907.24	n/a	WORD	1453620	wordpools/wasnorm_wordpool_less_exclusions.txt	LTP283	ltpFR	17	15	0	VINEGAR	1569	n/a	0	1	0.412841796875	0.57763671875	lower	../fonts/zerothre.ttf
2911.232	n/a	WORD	1455616	wordpools/wasnorm_wordpool_less_exclusions.txt	LTP283	ltpFR	17	15	0	ROOF	1205	n/a	1	1	0.412841796875	0.57763671875	lower	../fonts/zerothre.ttf
2915.288	n/a	WORD	1457644	wordpools/wasnorm_wordpool_less_exclusions.txt	LTP283	ltpFR	17	15	0	SIDING	1304	n/a	1	1	0.412841796875	0.57763671875	lower	../fonts/zerothre.ttf
2919.202	n/a	WORD	1459601	wordpools/wasnorm_wordpool_less_exclusions.txt	LTP283	ltpFR	17	15	1	ROOMMATE	1207	n/a	1	0	0.5869140625	0.422607421875	upper	../fonts/amplitud.ttf
2923.428	n/a	WORD	1461714	wordpools/wasnorm_wordpool_less_exclusions.txt	LTP283	ltpFR	17	15	1	SHIRT	1287	n/a	0	0	0.5869140625	0.422607421875	upper	../fonts/amplitud.ttf
2927.534	n/a	WORD	1463767	wordpools/wasnorm_wordpool_less_exclusions.txt	LTP283	ltpFR	17	15	1	TRENCH	1503	n/a	0	0	0.5869140625	0.422607421875	upper	../fonts/amplitud.ttf
2931.71	n/a	WORD	1465855	wordpools/wasnorm_wordpool_less_exclusions.txt	LTP283	ltpFR	17	15	1	SPACE	1345	n/a	0	0	0.5869140625	0.422607421875	upper	../fonts/amplitud.ttf
2935.842	n/a	WORD	1467921	wordpools/wasnorm_wordpool_less_exclusions.txt	LTP283	ltpFR	17	15	1	MOSS	918	n/a	1	0	0.5869140625	0.422607421875	upper	../fonts/amplitud.ttf
2940.014	n/a	WORD	1470007	wordpools/wasnorm_wordpool_less_exclusions.txt	LTP283	ltpFR	17	15	1	SHORE	1291	n/a	0	0	0.5869140625	0.422607421875	upper	../fonts/amplitud.ttf
2943.89	n/a	WORD	1471945	wordpools/wasnorm_wordpool_less_exclusions.txt	LTP283	ltpFR	17	15	0	WATERFALL	1595	n/a	1	1	0.412841796875	0.57763671875	lower	../fonts/zerothre.ttf
2947.728	n/a	WORD	1473864	wordpools/wasnorm_wordpool_less_exclusions.txt	LTP283	ltpFR	17	15	0	VISITOR	1573	n/a	1	1	0.412841796875	0.57763671875	lower	../fonts/zerothre.ttf
2951.77	n/a	WORD	1475885	wordpools/wasnorm_wordpool_less_exclusions.txt	LTP283	ltpFR	17	15	0	LEVER	815	n/a	1	1	0.412841796875	0.57763671875	lower	../fonts/zerothre.ttf
2955.926	n/a	WORD	1477963	wordpools/wasnorm_wordpool_less_exclusions.txt	LTP283	ltpFR	17	15	0	FRAGRANCE	599	n/a	0	1	0.412841796875	0.57763671875	lower	../fonts/zerothre.ttf
2959.84	n/a	WORD	1479920	wordpools/wasnorm_wordpool_less_exclusions.txt	LTP283	ltpFR	17	15	0	BEAVER	109	n/a	1	1	0.412841796875	0.57763671875	lower	../fonts/zerothre.ttf
2963.772	n/a	WORD	1481886	wordpools/wasnorm_wordpool_less_exclusions.txt	LTP283	ltpFR	17	15	1	SUPERVISOR	1410	n/a	1	0	0.5869140625	0.422607421875	upper	../fonts/amplitud.ttf
2967.838	n/a	WORD	1483919	wordpools/wasnorm_wordpool_less_exclusions.txt	LTP283	ltpFR	17	15	1	WORKER	1621	n/a	1	0	0.5869140625	0.422607421875	upper	../fonts/amplitud.ttf
2973.912	n/a	REC_START	1486956	n/a	LTP283	ltpFR	17	15	n/a	n/a	n/a	n/a	n/a	n/a	n/a	n/a	n/a	n/a
2976.23	n/a	REC_WORD	1488115	wordpools/wasnorm_wordpool_less_exclusions.txt	LTP283	ltpFR	17	15	1	SUPERVISOR	1410	n/a	1	n/a	n/a	n/a	n/a	n/a
2977.634	n/a	REC_WORD	1488817	wordpools/wasnorm_wordpool_less_exclusions.txt	LTP283	ltpFR	17	15	1	WORKER	1621	n/a	1	n/a	n/a	n/a	n/a	n/a
2979.8	n/a	REC_WORD	1489900	wordpools/wasnorm_wordpool_less_exclusions.txt	LTP283	ltpFR	17	15	0	VISITOR	1573	n/a	1	n/a	n/a	n/a	n/a	n/a
2980.872	n/a	REC_WORD	1490436	wordpools/wasnorm_wordpool_less_exclusions.txt	LTP283	ltpFR	17	15	1	ROOMMATE	1207	n/a	1	n/a	n/a	n/a	n/a	n/a
2982.398	n/a	REC_WORD	1491199	wordpools/wasnorm_wordpool_less_exclusions.txt	LTP283	ltpFR	17	15	0	SIDING	1304	n/a	1	n/a	n/a	n/a	n/a	n/a
2983.448	n/a	REC_WORD	1491724	wordpools/wasnorm_wordpool_less_exclusions.txt	LTP283	ltpFR	17	15	1	MOSS	918	n/a	1	n/a	n/a	n/a	n/a	n/a
2985.834	n/a	REC_WORD	1492917	wordpools/wasnorm_wordpool_less_exclusions.txt	LTP283	ltpFR	17	15	1	SPACE	1345	n/a	0	n/a	n/a	n/a	n/a	n/a
2998.922	n/a	REC_WORD	1499461	wordpools/wasnorm_wordpool_less_exclusions.txt	LTP283	ltpFR	17	15	0	ROOF	1205	n/a	1	n/a	n/a	n/a	n/a	n/a
2999.858	n/a	REC_WORD	1499929	wordpools/wasnorm_wordpool_less_exclusions.txt	LTP283	ltpFR	17	15	0	VINEGAR	1569	n/a	0	n/a	n/a	n/a	n/a	n/a
3025.258	n/a	REC_WORD	1512629	wordpools/wasnorm_wordpool_less_exclusions.txt	LTP283	ltpFR	17	15	0	LEVER	815	n/a	1	n/a	n/a	n/a	n/a	n/a
3052.93	n/a	WORD	1526465	wordpools/wasnorm_wordpool_less_exclusions.txt	LTP283	ltpFR	17	16	-1	PERMIT	1051	n/a	-1	1	1.0	1.0	upper	../fonts/Verdana.ttf
3057.004	n/a	WORD	1528502	wordpools/wasnorm_wordpool_less_exclusions.txt	LTP283	ltpFR	17	16	-1	TAG	1429	n/a	-1	1	1.0	1.0	upper	../fonts/Verdana.ttf
3061.18	n/a	WORD	1530590	wordpools/wasnorm_wordpool_less_exclusions.txt	LTP283	ltpFR	17	16	-1	CHIMNEY	301	n/a	-1	1	1.0	1.0	upper	../fonts/Verdana.ttf
3065.16	n/a	WORD	1532580	wordpools/wasnorm_wordpool_less_exclusions.txt	LTP283	ltpFR	17	16	-1	NICOTINE	951	n/a	-1	1	1.0	1.0	upper	../fonts/Verdana.ttf
3069.26	n/a	WORD	1534630	wordpools/wasnorm_wordpool_less_exclusions.txt	LTP283	ltpFR	17	16	-1	SACK	1220	n/a	-1	1	1.0	1.0	upper	../fonts/Verdana.ttf
3073.174	n/a	WORD	1536587	wordpools/wasnorm_wordpool_less_exclusions.txt	LTP283	ltpFR	17	16	-1	BRICK	172	n/a	-1	1	1.0	1.0	upper	../fonts/Verdana.ttf
3077.14	n/a	WORD	1538570	wordpools/wasnorm_wordpool_less_exclusions.txt	LTP283	ltpFR	17	16	-1	FROG	608	n/a	-1	1	1.0	1.0	upper	../fonts/Verdana.ttf
3081.29	n/a	WORD	1540645	wordpools/wasnorm_wordpool_less_exclusions.txt	LTP283	ltpFR	17	16	-1	ICE	730	n/a	-1	1	1.0	1.0	upper	../fonts/Verdana.ttf
3085.404	n/a	WORD	1542702	wordpools/wasnorm_wordpool_less_exclusions.txt	LTP283	ltpFR	17	16	-1	SWING	1421	n/a	-1	1	1.0	1.0	upper	../fonts/Verdana.ttf
3089.396	n/a	WORD	1544698	wordpools/wasnorm_wordpool_less_exclusions.txt	LTP283	ltpFR	17	16	-1	PORCH	1106	n/a	-1	1	1.0	1.0	upper	../fonts/Verdana.ttf
3093.302	n/a	WORD	1546651	wordpools/wasnorm_wordpool_less_exclusions.txt	LTP283	ltpFR	17	16	-1	SATURN	1236	n/a	-1	1	1.0	1.0	upper	../fonts/Verdana.ttf
3097.4	n/a	WORD	1548700	wordpools/wasnorm_wordpool_less_exclusions.txt	LTP283	ltpFR	17	16	-1	MARS	873	n/a	-1	1	1.0	1.0	upper	../fonts/Verdana.ttf
3101.432	n/a	WORD	1550716	wordpools/wasnorm_wordpool_less_exclusions.txt	LTP283	ltpFR	17	16	-1	TOTE	1487	n/a	-1	1	1.0	1.0	upper	../fonts/Verdana.ttf
3105.414	n/a	WORD	1552707	wordpools/wasnorm_wordpool_less_exclusions.txt	LTP283	ltpFR	17	16	-1	BUILDER	190	n/a	-1	1	1.0	1.0	upper	../fonts/Verdana.ttf
3109.256	n/a	WORD	1554628	wordpools/wasnorm_wordpool_less_exclusions.txt	LTP283	ltpFR	17	16	-1	WEED	1599	n/a	-1	1	1.0	1.0	upper	../fonts/Verdana.ttf
3113.47	n/a	WORD	1556735	wordpools/wasnorm_wordpool_less_exclusions.txt	LTP283	ltpFR	17	16	-1	WATER	1594	n/a	-1	1	1.0	1.0	upper	../fonts/Verdana.ttf
3119.496	n/a	REC_START	1559748	n/a	LTP283	ltpFR	17	16	n/a	n/a	n/a	n/a	n/a	n/a	n/a	n/a	n/a	n/a
3121.076	n/a	REC_WORD	1560538	wordpools/wasnorm_wordpool_less_exclusions.txt	LTP283	ltpFR	17	16	-1	WEED	1599	n/a	-1	n/a	n/a	n/a	n/a	n/a
3121.856	n/a	REC_WORD	1560928	wordpools/wasnorm_wordpool_less_exclusions.txt	LTP283	ltpFR	17	16	-1	WATER	1594	n/a	-1	n/a	n/a	n/a	n/a	n/a
3122.814	n/a	REC_WORD	1561407	wordpools/wasnorm_wordpool_less_exclusions.txt	LTP283	ltpFR	17	16	-1	BUILDER	190	n/a	-1	n/a	n/a	n/a	n/a	n/a
3125.21	n/a	REC_WORD	1562605	wordpools/wasnorm_wordpool_less_exclusions.txt	LTP283	ltpFR	17	16	-1	FROG	608	n/a	-1	n/a	n/a	n/a	n/a	n/a
3126.034	n/a	REC_WORD	1563017	wordpools/wasnorm_wordpool_less_exclusions.txt	LTP283	ltpFR	17	16	-1	TOTE	1487	n/a	-1	n/a	n/a	n/a	n/a	n/a
3127.448	n/a	REC_WORD	1563724	wordpools/wasnorm_wordpool_less_exclusions.txt	LTP283	ltpFR	17	16	-1	SATURN	1236	n/a	-1	n/a	n/a	n/a	n/a	n/a
3130.214	n/a	REC_WORD	1565107	wordpools/wasnorm_wordpool_less_exclusions.txt	LTP283	ltpFR	17	16	-1	MARS	873	n/a	-1	n/a	n/a	n/a	n/a	n/a
3133.604	n/a	REC_WORD	1566802	wordpools/wasnorm_wordpool_less_exclusions.txt	LTP283	ltpFR	17	16	-1	SWING	1421	n/a	-1	n/a	n/a	n/a	n/a	n/a
3134.568	n/a	REC_WORD	1567284	wordpools/wasnorm_wordpool_less_exclusions.txt	LTP283	ltpFR	17	16	-1	PORCH	1106	n/a	-1	n/a	n/a	n/a	n/a	n/a
3145.482	n/a	REC_WORD	1572741	wordpools/wasnorm_wordpool_less_exclusions.txt	LTP283	ltpFR	17	16	-1	NICOTINE	951	n/a	-1	n/a	n/a	n/a	n/a	n/a
3146.342	n/a	REC_WORD	1573171	wordpools/wasnorm_wordpool_less_exclusions.txt	LTP283	ltpFR	17	16	-1	CHIMNEY	301	n/a	-1	n/a	n/a	n/a	n/a	n/a
3147.032	n/a	REC_WORD	1573516	wordpools/wasnorm_wordpool_less_exclusions.txt	LTP283	ltpFR	17	16	-1	BRICK	172	n/a	-1	n/a	n/a	n/a	n/a	n/a
3152.604	n/a	REC_WORD	1576302	wordpools/wasnorm_wordpool_less_exclusions.txt	LTP283	ltpFR	17	16	-1	PERMIT	1051	n/a	-1	n/a	n/a	n/a	n/a	n/a
3153.502	n/a	REC_WORD	1576751	wordpools/wasnorm_wordpool_less_exclusions.txt	LTP283	ltpFR	17	16	-1	TAG	1429	n/a	-1	n/a	n/a	n/a	n/a	n/a
3481.67	n/a	REC_START	1740835	n/a	LTP283	ltpFR	17	1	n/a	n/a	n/a	n/a	n/a	n/a	n/a	n/a	n/a	n/a
3481.734	n/a	RECOG_LURE	1740867	n/a	LTP283	ltpFR	17	1	n/a	CABBAGE	210	5	n/a	n/a	n/a	n/a	n/a	n/a
3482.61	n/a	RECOG_RESP	1741305	n/a	LTP283	ltpFR	17	1	n/a	CABBAGE	210	n/a	n/a	n/a	n/a	n/a	n/a	n/a
3483.526	n/a	RECOG_CONF	1741763	n/a	LTP283	ltpFR	17	1	n/a	CABBAGE	210	5	n/a	n/a	n/a	n/a	n/a	n/a
3485.158	n/a	RECOG_TARGET	1742579	n/a	LTP283	ltpFR	17	1	-1	MACHINE	852	5	-1	n/a	n/a	n/a	n/a	n/a
3485.866	n/a	RECOG_RESP	1742933	n/a	LTP283	ltpFR	17	1	-1	MACHINE	852	n/a	-1	n/a	n/a	n/a	n/a	n/a
3486.656	n/a	RECOG_CONF	1743328	n/a	LTP283	ltpFR	17	1	-1	MACHINE	852	5	-1	n/a	n/a	n/a	n/a	n/a
3488.254	n/a	RECOG_TARGET	1744127	n/a	LTP283	ltpFR	17	1	0	TRACTOR	1493	5	1	n/a	n/a	n/a	n/a	n/a
3488.88	n/a	RECOG_RESP	1744440	n/a	LTP283	ltpFR	17	1	0	TRACTOR	1493	n/a	1	n/a	n/a	n/a	n/a	n/a
3489.706	n/a	RECOG_CONF	1744853	n/a	LTP283	ltpFR	17	1	0	TRACTOR	1493	5	1	n/a	n/a	n/a	n/a	n/a
3491.366	n/a	RECOG_TARGET	1745683	n/a	LTP283	ltpFR	17	1	1	VOLLEYBALL	1576	5	0	n/a	n/a	n/a	n/a	n/a
3492.006	n/a	RECOG_RESP	1746003	n/a	LTP283	ltpFR	17	1	1	VOLLEYBALL	1576	n/a	0	n/a	n/a	n/a	n/a	n/a
3492.736	n/a	RECOG_CONF	1746368	n/a	LTP283	ltpFR	17	1	1	VOLLEYBALL	1576	5	0	n/a	n/a	n/a	n/a	n/a
3494.45	n/a	RECOG_TARGET	1747225	n/a	LTP283	ltpFR	17	1	0	SHOP	1290	4	1	n/a	n/a	n/a	n/a	n/a
3495.366	n/a	RECOG_RESP	1747683	n/a	LTP283	ltpFR	17	1	0	SHOP	1290	n/a	1	n/a	n/a	n/a	n/a	n/a
3496.06	n/a	RECOG_CONF	1748030	n/a	LTP283	ltpFR	17	1	0	SHOP	1290	4	1	n/a	n/a	n/a	n/a	n/a
3497.756	n/a	RECOG_TARGET	1748878	n/a	LTP283	ltpFR	17	1	1	RUST	1219	5	0	n/a	n/a	n/a	n/a	n/a
3498.386	n/a	RECOG_RESP	1749193	n/a	LTP283	ltpFR	17	1	1	RUST	1219	n/a	0	n/a	n/a	n/a	n/a	n/a
3499.038	n/a	RECOG_CONF	1749519	n/a	LTP283	ltpFR	17	1	1	RUST	1219	5	0	n/a	n/a	n/a	n/a	n/a
3500.618	n/a	RECOG_TARGET	1750309	n/a	LTP283	ltpFR	17	1	1	SPACE	1345	5	0	n/a	n/a	n/a	n/a	n/a
3501.276	n/a	RECOG_RESP	1750638	n/a	LTP283	ltpFR	17	1	1	SPACE	1345	n/a	0	n/a	n/a	n/a	n/a	n/a
3502.086	n/a	RECOG_CONF	1751043	n/a	LTP283	ltpFR	17	1	1	SPACE	1345	5	0	n/a	n/a	n/a	n/a	n/a
3503.378	n/a	RECOG_TARGET	1751689	n/a	LTP283	ltpFR	17	1	1	WILDERNESS	1610	5	0	n/a	n/a	n/a	n/a	n/a
3504.106	n/a	RECOG_RESP	1752053	n/a	LTP283	ltpFR	17	1	1	WILDERNESS	1610	n/a	0	n/a	n/a	n/a	n/a	n/a
3504.756	n/a	RECOG_CONF	1752378	n/a	LTP283	ltpFR	17	1	1	WILDERNESS	1610	5	0	n/a	n/a	n/a	n/a	n/a
3506.19	n/a	RECOG_TARGET	1753095	n/a	LTP283	ltpFR	17	1	-1	BUSH	202	4	-1	n/a	n/a	n/a	n/a	n/a
3506.822	n/a	RECOG_RESP	1753411	n/a	LTP283	ltpFR	17	1	-1	BUSH	202	n/a	-1	n/a	n/a	n/a	n/a	n/a
3507.444	n/a	RECOG_CONF	1753722	n/a	LTP283	ltpFR	17	1	-1	BUSH	202	4	-1	n/a	n/a	n/a	n/a	n/a
3508.966	n/a	RECOG_LURE	1754483	n/a	LTP283	ltpFR	17	1	n/a	COFFEE	341	4	n/a	n/a	n/a	n/a	n/a	n/a
3509.73	n/a	RECOG_RESP	1754865	n/a	LTP283	ltpFR	17	1	n/a	COFFEE	341	n/a	n/a	n/a	n/a	n/a	n/a	n/a
3510.36	n/a	RECOG_CONF	1755180	n/a	LTP283	ltpFR	17	1	n/a	COFFEE	341	4	n/a	n/a	n/a	n/a	n/a	n/a
3511.95	n/a	RECOG_TARGET	1755975	n/a	LTP283	ltpFR	17	1	1	BADGE	68	5	0	n/a	n/a	n/a	n/a	n/a
3512.622	n/a	RECOG_RESP	1756311	n/a	LTP283	ltpFR	17	1	1	BADGE	68	n/a	0	n/a	n/a	n/a	n/a	n/a
3513.208	n/a	RECOG_CONF	1756604	n/a	LTP283	ltpFR	17	1	1	BADGE	68	5	0	n/a	n/a	n/a	n/a	n/a
3514.654	n/a	RECOG_TARGET	1757327	n/a	LTP283	ltpFR	17	1	-1	CHOCOLATE	306	5	-1	n/a	n/a	n/a	n/a	n/a
3515.278	n/a	RECOG_RESP	1757639	n/a	LTP283	ltpFR	17	1	-1	CHOCOLATE	306	n/a	-1	n/a	n/a	n/a	n/a	n/a
3515.918	n/a	RECOG_CONF	1757959	n/a	LTP283	ltpFR	17	1	-1	CHOCOLATE	306	5	-1	n/a	n/a	n/a	n/a	n/a
3517.506	n/a	RECOG_LURE	1758753	n/a	LTP283	ltpFR	17	1	n/a	WAGON	1578	5	n/a	n/a	n/a	n/a	n/a	n/a
3518.246	n/a	RECOG_RESP	1759123	n/a	LTP283	ltpFR	17	1	n/a	WAGON	1578	n/a	n/a	n/a	n/a	n/a	n/a	n/a
3518.938	n/a	RECOG_CONF	1759469	n/a	LTP283	ltpFR	17	1	n/a	WAGON	1578	5	n/a	n/a	n/a	n/a	n/a	n/a
3520.4	n/a	RECOG_TARGET	1760200	n/a	LTP283	ltpFR	17	1	0	BEAKER	104	4	0	n/a	n/a	n/a	n/a	n/a
3521.072	n/a	RECOG_RESP	1760536	n/a	LTP283	ltpFR	17	1	0	BEAKER	104	n/a	0	n/a	n/a	n/a	n/a	n/a
3521.73	n/a	RECOG_CONF	1760865	n/a	LTP283	ltpFR	17	1	0	BEAKER	104	4	0	n/a	n/a	n/a	n/a	n/a
3523.304	n/a	RECOG_LURE	1761652	n/a	LTP283	ltpFR	17	1	n/a	SCALE	1241	5	n/a	n/a	n/a	n/a	n/a	n/a
3524.256	n/a	RECOG_RESP	1762128	n/a	LTP283	ltpFR	17	1	n/a	SCALE	1241	n/a	n/a	n/a	n/a	n/a	n/a	n/a
3524.948	n/a	RECOG_CONF	1762474	n/a	LTP283	ltpFR	17	1	n/a	SCALE	1241	5	n/a	n/a	n/a	n/a	n/a	n/a
3526.65	n/a	RECOG_LURE	1763325	n/a	LTP283	ltpFR	17	1	n/a	TENT	1449	3	n/a	n/a	n/a	n/a	n/a	n/a
3527.562	n/a	RECOG_RESP	1763781	n/a	LTP283	ltpFR	17	1	n/a	TENT	1449	n/a	n/a	n/a	n/a	n/a	n/a	n/a
3528.198	n/a	RECOG_CONF	1764099	n/a	LTP283	ltpFR	17	1	n/a	TENT	1449	3	n/a	n/a	n/a	n/a	n/a	n/a
3529.828	n/a	RECOG_TARGET	1764914	n/a	LTP283	ltpFR	17	1	1	HEADBAND	696	5	0	n/a	n/a	n/a	n/a	n/a
3530.552	n/a	RECOG_RESP	1765276	n/a	LTP283	ltpFR	17	1	1	HEADBAND	696	n/a	0	n/a	n/a	n/a	n/a	n/a
3531.258	n/a	RECOG_CONF	1765629	n/a	LTP283	ltpFR	17	1	1	HEADBAND	696	5	0	n/a	n/a	n/a	n/a	n/a
3532.664	n/a	RECOG_TARGET	1766332	n/a	LTP283	ltpFR	17	1	0	SCREW	1254	4	0	n/a	n/a	n/a	n/a	n/a
3533.604	n/a	RECOG_RESP	1766802	n/a	LTP283	ltpFR	17	1	0	SCREW	1254	n/a	0	n/a	n/a	n/a	n/a	n/a
3534.322	n/a	RECOG_CONF	1767161	n/a	LTP283	ltpFR	17	1	0	SCREW	1254	4	0	n/a	n/a	n/a	n/a	n/a
3536.042	n/a	RECOG_TARGET	1768021	n/a	LTP283	ltpFR	17	1	0	CANOE	233	5	1	n/a	n/a	n/a	n/a	n/a
3536.714	n/a	RECOG_RESP	1768357	n/a	LTP283	ltpFR	17	1	0	CANOE	233	n/a	1	n/a	n/a	n/a	n/a	n/a
3537.39	n/a	RECOG_CONF	1768695	n/a	LTP283	ltpFR	17	1	0	CANOE	233	5	1	n/a	n/a	n/a	n/a	n/a
3538.98	n/a	RECOG_TARGET	1769490	n/a	LTP283	ltpFR	17	1	0	ICING	732	5	0	n/a	n/a	n/a	n/a	n/a
3539.678	n/a	RECOG_RESP	1769839	n/a	LTP283	ltpFR	17	1	0	ICING	732	n/a	0	n/a	n/a	n/a	n/a	n/a
3540.328	n/a	RECOG_CONF	1770164	n/a	LTP283	ltpFR	17	1	0	ICING	732	5	0	n/a	n/a	n/a	n/a	n/a
3544.018	n/a	REC_START	1772009	n/a	LTP283	ltpFR	17	2	n/a	n/a	n/a	n/a	n/a	n/a	n/a	n/a	n/a	n/a
3544.072	n/a	RECOG_LURE	1772036	n/a	LTP283	ltpFR	17	2	n/a	BEAN	105	4	n/a	n/a	n/a	n/a	n/a	n/a
3544.832	n/a	RECOG_RESP	1772416	n/a	LTP283	ltpFR	17	2	n/a	BEAN	105	n/a	n/a	n/a	n/a	n/a	n/a	n/a
3545.456	n/a	RECOG_CONF	1772728	n/a	LTP283	ltpFR	17	2	n/a	BEAN	105	4	n/a	n/a	n/a	n/a	n/a	n/a
3547.186	n/a	RECOG_TARGET	1773593	n/a	LTP283	ltpFR	17	2	1	BOOTH	151	5	0	n/a	n/a	n/a	n/a	n/a
3547.884	n/a	RECOG_RESP	1773942	n/a	LTP283	ltpFR	17	2	1	BOOTH	151	n/a	0	n/a	n/a	n/a	n/a	n/a
3548.494	n/a	RECOG_CONF	1774247	n/a	LTP283	ltpFR	17	2	1	BOOTH	151	5	0	n/a	n/a	n/a	n/a	n/a
3550.164	n/a	RECOG_TARGET	1775082	n/a	LTP283	ltpFR	17	2	-1	SWING	1421	5	-1	n/a	n/a	n/a	n/a	n/a
3550.84	n/a	RECOG_RESP	1775420	n/a	LTP283	ltpFR	17	2	-1	SWING	1421	n/a	-1	n/a	n/a	n/a	n/a	n/a
3551.484	n/a	RECOG_CONF	1775742	n/a	LTP283	ltpFR	17	2	-1	SWING	1421	5	-1	n/a	n/a	n/a	n/a	n/a
3553.108	n/a	RECOG_TARGET	1776554	n/a	LTP283	ltpFR	17	2	1	ITEM	746	5	0	n/a	n/a	n/a	n/a	n/a
3553.764	n/a	RECOG_RESP	1776882	n/a	LTP283	ltpFR	17	2	1	ITEM	746	n/a	0	n/a	n/a	n/a	n/a	n/a
3554.354	n/a	RECOG_CONF	1777177	n/a	LTP283	ltpFR	17	2	1	ITEM	746	5	0	n/a	n/a	n/a	n/a	n/a
3555.896	n/a	RECOG_TARGET	1777948	n/a	LTP283	ltpFR	17	2	0	VETERAN	1561	5	1	n/a	n/a	n/a	n/a	n/a
3556.67	n/a	RECOG_RESP	1778335	n/a	LTP283	ltpFR	17	2	0	VETERAN	1561	n/a	1	n/a	n/a	n/a	n/a	n/a
3557.294	n/a	RECOG_CONF	1778647	n/a	LTP283	ltpFR	17	2	0	VETERAN	1561	5	1	n/a	n/a	n/a	n/a	n/a
3558.956	n/a	RECOG_TARGET	1779478	n/a	LTP283	ltpFR	17	2	-1	CHIP	303	5	-1	n/a	n/a	n/a	n/a	n/a
3559.624	n/a	RECOG_RESP	1779812	n/a	LTP283	ltpFR	17	2	-1	CHIP	303	n/a	-1	n/a	n/a	n/a	n/a	n/a
3560.294	n/a	RECOG_CONF	1780147	n/a	LTP283	ltpFR	17	2	-1	CHIP	303	5	-1	n/a	n/a	n/a	n/a	n/a
3561.874	n/a	RECOG_LURE	1780937	n/a	LTP283	ltpFR	17	2	n/a	DRILL	497	4	n/a	n/a	n/a	n/a	n/a	n/a
3562.724	n/a	RECOG_RESP	1781362	n/a	LTP283	ltpFR	17	2	n/a	DRILL	497	n/a	n/a	n/a	n/a	n/a	n/a	n/a
3563.268	n/a	RECOG_CONF	1781634	n/a	LTP283	ltpFR	17	2	n/a	DRILL	497	4	n/a	n/a	n/a	n/a	n/a	n/a
3564.986	n/a	RECOG_TARGET	1782493	n/a	LTP283	ltpFR	17	2	-1	VALVE	1546	5	-1	n/a	n/a	n/a	n/a	n/a
3565.74	n/a	RECOG_RESP	1782870	n/a	LTP283	ltpFR	17	2	-1	VALVE	1546	n/a	-1	n/a	n/a	n/a	n/a	n/a
3566.314	n/a	RECOG_CONF	1783157	n/a	LTP283	ltpFR	17	2	-1	VALVE	1546	5	-1	n/a	n/a	n/a	n/a	n/a
3567.93	n/a	RECOG_TARGET	1783965	n/a	LTP283	ltpFR	17	2	-1	SATURN	1236	5	-1	n/a	n/a	n/a	n/a	n/a
3568.63	n/a	RECOG_RESP	1784315	n/a	LTP283	ltpFR	17	2	-1	SATURN	1236	n/a	-1	n/a	n/a	n/a	n/a	n/a
3569.276	n/a	RECOG_CONF	1784638	n/a	LTP283	ltpFR	17	2	-1	SATURN	1236	5	-1	n/a	n/a	n/a	n/a	n/a
3570.952	n/a	RECOG_TARGET	1785476	n/a	LTP283	ltpFR	17	2	0	STREAM	1392	5	1	n/a	n/a	n/a	n/a	n/a
3571.626	n/a	RECOG_RESP	1785813	n/a	LTP283	ltpFR	17	2	0	STREAM	1392	n/a	1	n/a	n/a	n/a	n/a	n/a
3572.196	n/a	RECOG_CONF	1786098	n/a	LTP283	ltpFR	17	2	0	STREAM	1392	5	1	n/a	n/a	n/a	n/a	n/a
3573.754	n/a	RECOG_TARGET	1786877	n/a	LTP283	ltpFR	17	2	1	FOOTBALL	591	5	0	n/a	n/a	n/a	n/a	n/a
3574.566	n/a	RECOG_RESP	1787283	n/a	LTP283	ltpFR	17	2	1	FOOTBALL	591	n/a	0	n/a	n/a	n/a	n/a	n/a
3575.186	n/a	RECOG_CONF	1787593	n/a	LTP283	ltpFR	17	2	1	FOOTBALL	591	5	0	n/a	n/a	n/a	n/a	n/a
3576.798	n/a	RECOG_LURE	1788399	n/a	LTP283	ltpFR	17	2	n/a	AUTOMOBILE	62	5	n/a	n/a	n/a	n/a	n/a	n/a
3577.734	n/a	RECOG_RESP	1788867	n/a	LTP283	ltpFR	17	2	n/a	AUTOMOBILE	62	n/a	n/a	n/a	n/a	n/a	n/a	n/a
3578.416	n/a	RECOG_CONF	1789208	n/a	LTP283	ltpFR	17	2	n/a	AUTOMOBILE	62	5	n/a	n/a	n/a	n/a	n/a	n/a
3580.028	n/a	RECOG_TARGET	1790014	n/a	LTP283	ltpFR	17	2	1	HAY	693	5	0	n/a	n/a	n/a	n/a	n/a
3580.686	n/a	RECOG_RESP	1790343	n/a	LTP283	ltpFR	17	2	1	HAY	693	n/a	0	n/a	n/a	n/a	n/a	n/a
3581.368	n/a	RECOG_CONF	1790684	n/a	LTP283	ltpFR	17	2	1	HAY	693	5	0	n/a	n/a	n/a	n/a	n/a
3583.072	n/a	RECOG_TARGET	1791536	n/a	LTP283	ltpFR	17	2	1	TOOTH	1481	5	1	n/a	n/a	n/a	n/a	n/a
3583.786	n/a	RECOG_RESP	1791893	n/a	LTP283	ltpFR	17	2	1	TOOTH	1481	n/a	1	n/a	n/a	n/a	n/a	n/a
3584.396	n/a	RECOG_CONF	1792198	n/a	LTP283	ltpFR	17	2	1	TOOTH	1481	5	1	n/a	n/a	n/a	n/a	n/a
3586.11	n/a	RECOG_TARGET	1793055	n/a	LTP283	ltpFR	17	2	0	OUTLAW	989	3	1	n/a	n/a	n/a	n/a	n/a
3587.046	n/a	RECOG_RESP	1793523	n/a	LTP283	ltpFR	17	2	0	OUTLAW	989	n/a	1	n/a	n/a	n/a	n/a	n/a
3587.648	n/a	RECOG_CONF	1793824	n/a	LTP283	ltpFR	17	2	0	OUTLAW	989	3	1	n/a	n/a	n/a	n/a	n/a
3589.364	n/a	RECOG_TARGET	1794682	n/a	LTP283	ltpFR	17	2	-1	HUMAN	726	4	-1	n/a	n/a	n/a	n/a	n/a
3590.082	n/a	RECOG_RESP	1795041	n/a	LTP283	ltpFR	17	2	-1	HUMAN	726	n/a	-1	n/a	n/a	n/a	n/a	n/a
3590.62	n/a	RECOG_CONF	1795310	n/a	LTP283	ltpFR	17	2	-1	HUMAN	726	4	-1	n/a	n/a	n/a	n/a	n/a
3592.268	n/a	RECOG_TARGET	1796134	n/a	LTP283	ltpFR	17	2	1	NET	946	4	0	n/a	n/a	n/a	n/a	n/a
3593.026	n/a	RECOG_RESP	1796513	n/a	LTP283	ltpFR	17	2	1	NET	946	n/a	0	n/a	n/a	n/a	n/a	n/a
3593.62	n/a	RECOG_CONF	1796810	n/a	LTP283	ltpFR	17	2	1	NET	946	4	0	n/a	n/a	n/a	n/a	n/a
3595.246	n/a	RECOG_LURE	1797623	n/a	LTP283	ltpFR	17	2	n/a	MINT	898	3	n/a	n/a	n/a	n/a	n/a	n/a
3596.186	n/a	RECOG_RESP	1798093	n/a	LTP283	ltpFR	17	2	n/a	MINT	898	n/a	n/a	n/a	n/a	n/a	n/a	n/a
3596.938	n/a	RECOG_CONF	1798469	n/a	LTP283	ltpFR	17	2	n/a	MINT	898	3	n/a	n/a	n/a	n/a	n/a	n/a
3598.726	n/a	RECOG_TARGET	1799363	n/a	LTP283	ltpFR	17	2	1	FEAST	556	5	0	n/a	n/a	n/a	n/a	n/a
3599.456	n/a	RECOG_RESP	1799728	n/a	LTP283	ltpFR	17	2	1	FEAST	556	n/a	0	n/a	n/a	n/a	n/a	n/a
3600.068	n/a	RECOG_CONF	1800034	n/a	LTP283	ltpFR	17	2	1	FEAST	556	5	0	n/a	n/a	n/a	n/a	n/a
3601.86	n/a	RECOG_TARGET	1800930	n/a	LTP283	ltpFR	17	2	-1	FREEWAY	603	5	-1	n/a	n/a	n/a	n/a	n/a
3602.532	n/a	RECOG_RESP	1801266	n/a	LTP283	ltpFR	17	2	-1	FREEWAY	603	n/a	-1	n/a	n/a	n/a	n/a	n/a
3603.178	n/a	RECOG_CONF	1801589	n/a	LTP283	ltpFR	17	2	-1	FREEWAY	603	5	-1	n/a	n/a	n/a	n/a	n/a
3606.536	n/a	REC_START	1803268	n/a	LTP283	ltpFR	17	3	n/a	n/a	n/a	n/a	n/a	n/a	n/a	n/a	n/a	n/a
3606.59	n/a	RECOG_LURE	1803295	n/a	LTP283	ltpFR	17	3	n/a	STREET	1393	2	n/a	n/a	n/a	n/a	n/a	n/a
3608.03	n/a	RECOG_RESP	1804015	n/a	LTP283	ltpFR	17	3	n/a	STREET	1393	n/a	n/a	n/a	n/a	n/a	n/a	n/a
3609.338	n/a	RECOG_CONF	1804669	n/a	LTP283	ltpFR	17	3	n/a	STREET	1393	2	n/a	n/a	n/a	n/a	n/a	n/a
3611.046	n/a	RECOG_TARGET	1805523	n/a	LTP283	ltpFR	17	3	1	CHAIRPERSON	275	3	1	n/a	n/a	n/a	n/a	n/a
3611.852	n/a	RECOG_RESP	1805926	n/a	LTP283	ltpFR	17	3	1	CHAIRPERSON	275	n/a	1	n/a	n/a	n/a	n/a	n/a
3612.602	n/a	RECOG_CONF	1806301	n/a	LTP283	ltpFR	17	3	1	CHAIRPERSON	275	3	1	n/a	n/a	n/a	n/a	n/a
3614.326	n/a	RECOG_TARGET	1807163	n/a	LTP283	ltpFR	17	3	1	ARENA	37	4	0	n/a	n/a	n/a	n/a	n/a
3614.982	n/a	RECOG_RESP	1807491	n/a	LTP283	ltpFR	17	3	1	ARENA	37	n/a	0	n/a	n/a	n/a	n/a	n/a
3615.534	n/a	RECOG_CONF	1807767	n/a	LTP283	ltpFR	17	3	1	ARENA	37	4	0	n/a	n/a	n/a	n/a	n/a
3617.314	n/a	RECOG_LURE	1808657	n/a	LTP283	ltpFR	17	3	n/a	RULER	1216	3	n/a	n/a	n/a	n/a	n/a	n/a
3618.366	n/a	RECOG_RESP	1809183	n/a	LTP283	ltpFR	17	3	n/a	RULER	1216	n/a	n/a	n/a	n/a	n/a	n/a	n/a
3619.712	n/a	RECOG_CONF	1809856	n/a	LTP283	ltpFR	17	3	n/a	RULER	1216	3	n/a	n/a	n/a	n/a	n/a	n/a
3621.37	n/a	RECOG_LURE	1810685	n/a	LTP283	ltpFR	17	3	n/a	TULIP	1517	5	n/a	n/a	n/a	n/a	n/a	n/a
3622.136	n/a	RECOG_RESP	1811068	n/a	LTP283	ltpFR	17	3	n/a	TULIP	1517	n/a	n/a	n/a	n/a	n/a	n/a	n/a
3622.802	n/a	RECOG_CONF	1811401	n/a	LTP283	ltpFR	17	3	n/a	TULIP	1517	5	n/a	n/a	n/a	n/a	n/a	n/a
3624.53	n/a	RECOG_TARGET	1812265	n/a	LTP283	ltpFR	17	3	1	LOLLIPOP	842	5	0	n/a	n/a	n/a	n/a	n/a
3625.272	n/a	RECOG_RESP	1812636	n/a	LTP283	ltpFR	17	3	1	LOLLIPOP	842	n/a	0	n/a	n/a	n/a	n/a	n/a
3626.002	n/a	RECOG_CONF	1813001	n/a	LTP283	ltpFR	17	3	1	LOLLIPOP	842	5	0	n/a	n/a	n/a	n/a	n/a
3627.694	n/a	RECOG_LURE	1813847	n/a	LTP283	ltpFR	17	3	n/a	BILL	126	4	n/a	n/a	n/a	n/a	n/a	n/a
3628.466	n/a	RECOG_RESP	1814233	n/a	LTP283	ltpFR	17	3	n/a	BILL	126	n/a	n/a	n/a	n/a	n/a	n/a	n/a
3629.156	n/a	RECOG_CONF	1814578	n/a	LTP283	ltpFR	17	3	n/a	BILL	126	4	n/a	n/a	n/a	n/a	n/a	n/a
3630.804	n/a	RECOG_TARGET	1815402	n/a	LTP283	ltpFR	17	3	1	TUBA	1515	5	0	n/a	n/a	n/a	n/a	n/a
3631.438	n/a	RECOG_RESP	1815719	n/a	LTP283	ltpFR	17	3	1	TUBA	1515	n/a	0	n/a	n/a	n/a	n/a	n/a
3632.052	n/a	RECOG_CONF	1816026	n/a	LTP283	ltpFR	17	3	1	TUBA	1515	5	0	n/a	n/a	n/a	n/a	n/a
3633.742	n/a	RECOG_TARGET	1816871	n/a	LTP283	ltpFR	17	3	-1	GRASSHOPPER	656	5	-1	n/a	n/a	n/a	n/a	n/a
3634.392	n/a	RECOG_RESP	1817196	n/a	LTP283	ltpFR	17	3	-1	GRASSHOPPER	656	n/a	-1	n/a	n/a	n/a	n/a	n/a
3635.032	n/a	RECOG_CONF	1817516	n/a	LTP283	ltpFR	17	3	-1	GRASSHOPPER	656	5	-1	n/a	n/a	n/a	n/a	n/a
3636.62	n/a	RECOG_TARGET	1818310	n/a	LTP283	ltpFR	17	3	1	CLOVE	329	5	0	n/a	n/a	n/a	n/a	n/a
3637.212	n/a	RECOG_RESP	1818606	n/a	LTP283	ltpFR	17	3	1	CLOVE	329	n/a	0	n/a	n/a	n/a	n/a	n/a
3637.832	n/a	RECOG_CONF	1818916	n/a	LTP283	ltpFR	17	3	1	CLOVE	329	5	0	n/a	n/a	n/a	n/a	n/a
3639.372	n/a	RECOG_TARGET	1819686	n/a	LTP283	ltpFR	17	3	0	DISC	473	5	0	n/a	n/a	n/a	n/a	n/a
3640.132	n/a	RECOG_RESP	1820066	n/a	LTP283	ltpFR	17	3	0	DISC	473	n/a	0	n/a	n/a	n/a	n/a	n/a
3640.734	n/a	RECOG_CONF	1820367	n/a	LTP283	ltpFR	17	3	0	DISC	473	5	0	n/a	n/a	n/a	n/a	n/a
3642.458	n/a	RECOG_TARGET	1821229	n/a	LTP283	ltpFR	17	3	0	VISITOR	1573	4	1	n/a	n/a	n/a	n/a	n/a
3643.122	n/a	RECOG_RESP	1821561	n/a	LTP283	ltpFR	17	3	0	VISITOR	1573	n/a	1	n/a	n/a	n/a	n/a	n/a
3643.746	n/a	RECOG_CONF	1821873	n/a	LTP283	ltpFR	17	3	0	VISITOR	1573	4	1	n/a	n/a	n/a	n/a	n/a
3645.494	n/a	RECOG_TARGET	1822747	n/a	LTP283	ltpFR	17	3	0	SYRUP	1425	5	0	n/a	n/a	n/a	n/a	n/a
3646.124	n/a	RECOG_RESP	1823062	n/a	LTP283	ltpFR	17	3	0	SYRUP	1425	n/a	0	n/a	n/a	n/a	n/a	n/a
3646.704	n/a	RECOG_CONF	1823352	n/a	LTP283	ltpFR	17	3	0	SYRUP	1425	5	0	n/a	n/a	n/a	n/a	n/a
3648.456	n/a	RECOG_TARGET	1824228	n/a	LTP283	ltpFR	17	3	0	PIGMENT	1066	5	0	n/a	n/a	n/a	n/a	n/a
3649.294	n/a	RECOG_RESP	1824647	n/a	LTP283	ltpFR	17	3	0	PIGMENT	1066	n/a	0	n/a	n/a	n/a	n/a	n/a
3649.864	n/a	RECOG_CONF	1824932	n/a	LTP283	ltpFR	17	3	0	PIGMENT	1066	5	0	n/a	n/a	n/a	n/a	n/a
3651.568	n/a	RECOG_TARGET	1825784	n/a	LTP283	ltpFR	17	3	1	WAREHOUSE	1588	4	0	n/a	n/a	n/a	n/a	n/a
3652.208	n/a	RECOG_RESP	1826104	n/a	LTP283	ltpFR	17	3	1	WAREHOUSE	1588	n/a	0	n/a	n/a	n/a	n/a	n/a
3652.776	n/a	RECOG_CONF	1826388	n/a	LTP283	ltpFR	17	3	1	WAREHOUSE	1588	4	0	n/a	n/a	n/a	n/a	n/a
3654.396	n/a	RECOG_TARGET	1827198	n/a	LTP283	ltpFR	17	3	-1	PORCH	1106	5	-1	n/a	n/a	n/a	n/a	n/a
3655.108	n/a	RECOG_RESP	1827554	n/a	LTP283	ltpFR	17	3	-1	PORCH	1106	n/a	-1	n/a	n/a	n/a	n/a	n/a
3655.674	n/a	RECOG_CONF	1827837	n/a	LTP283	ltpFR	17	3	-1	PORCH	1106	5	-1	n/a	n/a	n/a	n/a	n/a
3657.206	n/a	RECOG_TARGET	1828603	n/a	LTP283	ltpFR	17	3	0	NUCLEUS	961	5	0	n/a	n/a	n/a	n/a	n/a
3657.874	n/a	RECOG_RESP	1828937	n/a	LTP283	ltpFR	17	3	0	NUCLEUS	961	n/a	0	n/a	n/a	n/a	n/a	n/a
3658.474	n/a	RECOG_CONF	1829237	n/a	LTP283	ltpFR	17	3	0	NUCLEUS	961	5	0	n/a	n/a	n/a	n/a	n/a
3660.076	n/a	RECOG_TARGET	1830038	n/a	LTP283	ltpFR	17	3	0	NOTEBOOK	959	5	0	n/a	n/a	n/a	n/a	n/a
3660.598	n/a	RECOG_RESP	1830299	n/a	LTP283	ltpFR	17	3	0	NOTEBOOK	959	n/a	0	n/a	n/a	n/a	n/a	n/a
3661.224	n/a	RECOG_CONF	1830612	n/a	LTP283	ltpFR	17	3	0	NOTEBOOK	959	5	0	n/a	n/a	n/a	n/a	n/a
3662.792	n/a	RECOG_TARGET	1831396	n/a	LTP283	ltpFR	17	3	1	STICKER	1382	5	0	n/a	n/a	n/a	n/a	n/a
3663.424	n/a	RECOG_RESP	1831712	n/a	LTP283	ltpFR	17	3	1	STICKER	1382	n/a	0	n/a	n/a	n/a	n/a	n/a
3663.986	n/a	RECOG_CONF	1831993	n/a	LTP283	ltpFR	17	3	1	STICKER	1382	5	0	n/a	n/a	n/a	n/a	n/a
3665.698	n/a	RECOG_TARGET	1832849	n/a	LTP283	ltpFR	17	3	-1	GLACIER	638	5	-1	n/a	n/a	n/a	n/a	n/a
3666.26	n/a	RECOG_RESP	1833130	n/a	LTP283	ltpFR	17	3	-1	GLACIER	638	n/a	-1	n/a	n/a	n/a	n/a	n/a
3666.834	n/a	RECOG_CONF	1833417	n/a	LTP283	ltpFR	17	3	-1	GLACIER	638	5	-1	n/a	n/a	n/a	n/a	n/a
3670.258	n/a	REC_START	1835129	n/a	LTP283	ltpFR	17	4	n/a	n/a	n/a	n/a	n/a	n/a	n/a	n/a	n/a	n/a
3670.316	n/a	RECOG_LURE	1835158	n/a	LTP283	ltpFR	17	4	n/a	PASTRY	1022	5	n/a	n/a	n/a	n/a	n/a	n/a
3671.108	n/a	RECOG_RESP	1835554	n/a	LTP283	ltpFR	17	4	n/a	PASTRY	1022	n/a	n/a	n/a	n/a	n/a	n/a	n/a
3671.774	n/a	RECOG_CONF	1835887	n/a	LTP283	ltpFR	17	4	n/a	PASTRY	1022	5	n/a	n/a	n/a	n/a	n/a	n/a
3673.434	n/a	RECOG_TARGET	1836717	n/a	LTP283	ltpFR	17	4	1	FRECKLE	602	5	0	n/a	n/a	n/a	n/a	n/a
3674.084	n/a	RECOG_RESP	1837042	n/a	LTP283	ltpFR	17	4	1	FRECKLE	602	n/a	0	n/a	n/a	n/a	n/a	n/a
3674.644	n/a	RECOG_CONF	1837322	n/a	LTP283	ltpFR	17	4	1	FRECKLE	602	5	0	n/a	n/a	n/a	n/a	n/a
3676.322	n/a	RECOG_TARGET	1838161	n/a	LTP283	ltpFR	17	4	1	FAIRY	549	5	1	n/a	n/a	n/a	n/a	n/a
3676.924	n/a	RECOG_RESP	1838462	n/a	LTP283	ltpFR	17	4	1	FAIRY	549	n/a	1	n/a	n/a	n/a	n/a	n/a
3677.504	n/a	RECOG_CONF	1838752	n/a	LTP283	ltpFR	17	4	1	FAIRY	549	5	1	n/a	n/a	n/a	n/a	n/a
3679.19	n/a	RECOG_LURE	1839595	n/a	LTP283	ltpFR	17	4	n/a	RUG	1215	4	n/a	n/a	n/a	n/a	n/a	n/a
3679.962	n/a	RECOG_RESP	1839981	n/a	LTP283	ltpFR	17	4	n/a	RUG	1215	n/a	n/a	n/a	n/a	n/a	n/a	n/a
3680.666	n/a	RECOG_CONF	1840333	n/a	LTP283	ltpFR	17	4	n/a	RUG	1215	4	n/a	n/a	n/a	n/a	n/a	n/a
3682.414	n/a	RECOG_TARGET	1841207	n/a	LTP283	ltpFR	17	4	-1	SKUNK	1321	5	-1	n/a	n/a	n/a	n/a	n/a
3683.054	n/a	RECOG_RESP	1841527	n/a	LTP283	ltpFR	17	4	-1	SKUNK	1321	n/a	-1	n/a	n/a	n/a	n/a	n/a
3683.668	n/a	RECOG_CONF	1841834	n/a	LTP283	ltpFR	17	4	-1	SKUNK	1321	5	-1	n/a	n/a	n/a	n/a	n/a
3685.258	n/a	RECOG_LURE	1842629	n/a	LTP283	ltpFR	17	4	n/a	TUSK	1523	3	n/a	n/a	n/a	n/a	n/a	n/a
3686.018	n/a	RECOG_RESP	1843009	n/a	LTP283	ltpFR	17	4	n/a	TUSK	1523	n/a	n/a	n/a	n/a	n/a	n/a	n/a
3686.716	n/a	RECOG_CONF	1843358	n/a	LTP283	ltpFR	17	4	n/a	TUSK	1523	3	n/a	n/a	n/a	n/a	n/a	n/a
3688.486	n/a	RECOG_LURE	1844243	n/a	LTP283	ltpFR	17	4	n/a	PARTY	1018	4	n/a	n/a	n/a	n/a	n/a	n/a
3689.218	n/a	RECOG_RESP	1844609	n/a	LTP283	ltpFR	17	4	n/a	PARTY	1018	n/a	n/a	n/a	n/a	n/a	n/a	n/a
3689.748	n/a	RECOG_CONF	1844874	n/a	LTP283	ltpFR	17	4	n/a	PARTY	1018	4	n/a	n/a	n/a	n/a	n/a	n/a
3691.57	n/a	RECOG_LURE	1845785	n/a	LTP283	ltpFR	17	4	n/a	WAVE	1596	5	n/a	n/a	n/a	n/a	n/a	n/a
3692.278	n/a	RECOG_RESP	1846139	n/a	LTP283	ltpFR	17	4	n/a	WAVE	1596	n/a	n/a	n/a	n/a	n/a	n/a	n/a
3692.884	n/a	RECOG_CONF	1846442	n/a	LTP283	ltpFR	17	4	n/a	WAVE	1596	5	n/a	n/a	n/a	n/a	n/a	n/a
3694.548	n/a	RECOG_LURE	1847274	n/a	LTP283	ltpFR	17	4	n/a	SPY	1360	3	n/a	n/a	n/a	n/a	n/a	n/a
3695.264	n/a	RECOG_RESP	1847632	n/a	LTP283	ltpFR	17	4	n/a	SPY	1360	n/a	n/a	n/a	n/a	n/a	n/a	n/a
3695.856	n/a	RECOG_CONF	1847928	n/a	LTP283	ltpFR	17	4	n/a	SPY	1360	3	n/a	n/a	n/a	n/a	n/a	n/a
3697.526	n/a	RECOG_LURE	1848763	n/a	LTP283	ltpFR	17	4	n/a	ROCK	1201	4	n/a	n/a	n/a	n/a	n/a	n/a
3698.224	n/a	RECOG_RESP	1849112	n/a	LTP283	ltpFR	17	4	n/a	ROCK	1201	n/a	n/a	n/a	n/a	n/a	n/a	n/a
3698.898	n/a	RECOG_CONF	1849449	n/a	LTP283	ltpFR	17	4	n/a	ROCK	1201	4	n/a	n/a	n/a	n/a	n/a	n/a
3700.554	n/a	RECOG_TARGET	1850277	n/a	LTP283	ltpFR	17	4	1	REFEREE	1178	5	1	n/a	n/a	n/a	n/a	n/a
3701.44	n/a	RECOG_RESP	1850720	n/a	LTP283	ltpFR	17	4	1	REFEREE	1178	n/a	1	n/a	n/a	n/a	n/a	n/a
3702.046	n/a	RECOG_CONF	1851023	n/a	LTP283	ltpFR	17	4	1	REFEREE	1178	5	1	n/a	n/a	n/a	n/a	n/a
3703.666	n/a	RECOG_LURE	1851833	n/a	LTP283	ltpFR	17	4	n/a	BRACES	164	5	n/a	n/a	n/a	n/a	n/a	n/a
3704.434	n/a	RECOG_RESP	1852217	n/a	LTP283	ltpFR	17	4	n/a	BRACES	164	n/a	n/a	n/a	n/a	n/a	n/a	n/a
3705.096	n/a	RECOG_CONF	1852548	n/a	LTP283	ltpFR	17	4	n/a	BRACES	164	5	n/a	n/a	n/a	n/a	n/a	n/a
3706.728	n/a	RECOG_LURE	1853364	n/a	LTP283	ltpFR	17	4	n/a	INMATE	738	5	n/a	n/a	n/a	n/a	n/a	n/a
3707.59	n/a	RECOG_RESP	1853795	n/a	LTP283	ltpFR	17	4	n/a	INMATE	738	n/a	n/a	n/a	n/a	n/a	n/a	n/a
3708.206	n/a	RECOG_CONF	1854103	n/a	LTP283	ltpFR	17	4	n/a	INMATE	738	5	n/a	n/a	n/a	n/a	n/a	n/a
3709.95	n/a	RECOG_TARGET	1854975	n/a	LTP283	ltpFR	17	4	-1	BUILDING	191	5	-1	n/a	n/a	n/a	n/a	n/a
3710.7	n/a	RECOG_RESP	1855350	n/a	LTP283	ltpFR	17	4	-1	BUILDING	191	n/a	-1	n/a	n/a	n/a	n/a	n/a
3711.256	n/a	RECOG_CONF	1855628	n/a	LTP283	ltpFR	17	4	-1	BUILDING	191	5	-1	n/a	n/a	n/a	n/a	n/a
3712.978	n/a	RECOG_LURE	1856489	n/a	LTP283	ltpFR	17	4	n/a	CROOK	412	5	n/a	n/a	n/a	n/a	n/a	n/a
3713.67	n/a	RECOG_RESP	1856835	n/a	LTP283	ltpFR	17	4	n/a	CROOK	412	n/a	n/a	n/a	n/a	n/a	n/a	n/a
3714.286	n/a	RECOG_CONF	1857143	n/a	LTP283	ltpFR	17	4	n/a	CROOK	412	5	n/a	n/a	n/a	n/a	n/a	n/a
3715.964	n/a	RECOG_TARGET	1857982	n/a	LTP283	ltpFR	17	4	-1	BUILDER	190	4	-1	n/a	n/a	n/a	n/a	n/a
3716.626	n/a	RECOG_RESP	1858313	n/a	LTP283	ltpFR	17	4	-1	BUILDER	190	n/a	-1	n/a	n/a	n/a	n/a	n/a
3717.168	n/a	RECOG_CONF	1858584	n/a	LTP283	ltpFR	17	4	-1	BUILDER	190	4	-1	n/a	n/a	n/a	n/a	n/a
3718.756	n/a	RECOG_LURE	1859378	n/a	LTP283	ltpFR	17	4	n/a	LIGHTNING	820	4	n/a	n/a	n/a	n/a	n/a	n/a
3719.52	n/a	RECOG_RESP	1859760	n/a	LTP283	ltpFR	17	4	n/a	LIGHTNING	820	n/a	n/a	n/a	n/a	n/a	n/a	n/a
3720.13	n/a	RECOG_CONF	1860065	n/a	LTP283	ltpFR	17	4	n/a	LIGHTNING	820	4	n/a	n/a	n/a	n/a	n/a	n/a
3721.88	n/a	RECOG_TARGET	1860940	n/a	LTP283	ltpFR	17	4	1	SQUIRREL	1362	2	1	n/a	n/a	n/a	n/a	n/a
3722.512	n/a	RECOG_RESP	1861256	n/a	LTP283	ltpFR	17	4	1	SQUIRREL	1362	n/a	1	n/a	n/a	n/a	n/a	n/a
3724.124	n/a	RECOG_CONF	1862062	n/a	LTP283	ltpFR	17	4	1	SQUIRREL	1362	2	1	n/a	n/a	n/a	n/a	n/a
3725.918	n/a	RECOG_TARGET	1862959	n/a	LTP283	ltpFR	17	4	-1	OBOE	969	5	-1	n/a	n/a	n/a	n/a	n/a
3726.582	n/a	RECOG_RESP	1863291	n/a	LTP283	ltpFR	17	4	-1	OBOE	969	n/a	-1	n/a	n/a	n/a	n/a	n/a
3727.266	n/a	RECOG_CONF	1863633	n/a	LTP283	ltpFR	17	4	-1	OBOE	969	5	-1	n/a	n/a	n/a	n/a	n/a
3728.912	n/a	RECOG_TARGET	1864456	n/a	LTP283	ltpFR	17	4	-1	OFFICER	973	5	-1	n/a	n/a	n/a	n/a	n/a
3729.562	n/a	RECOG_RESP	1864781	n/a	LTP283	ltpFR	17	4	-1	OFFICER	973	n/a	-1	n/a	n/a	n/a	n/a	n/a
3730.186	n/a	RECOG_CONF	1865093	n/a	LTP283	ltpFR	17	4	-1	OFFICER	973	5	-1	n/a	n/a	n/a	n/a	n/a
3733.454	n/a	REC_START	1866727	n/a	LTP283	ltpFR	17	5	n/a	n/a	n/a	n/a	n/a	n/a	n/a	n/a	n/a	n/a
3733.506	n/a	RECOG_TARGET	1866753	n/a	LTP283	ltpFR	17	5	0	BAND	78	2	1	n/a	n/a	n/a	n/a	n/a
3734.588	n/a	RECOG_RESP	1867294	n/a	LTP283	ltpFR	17	5	0	BAND	78	n/a	1	n/a	n/a	n/a	n/a	n/a
3735.296	n/a	RECOG_CONF	1867648	n/a	LTP283	ltpFR	17	5	0	BAND	78	2	1	n/a	n/a	n/a	n/a	n/a
3736.96	n/a	RECOG_TARGET	1868480	n/a	LTP283	ltpFR	17	5	0	WIRE	1616	5	0	n/a	n/a	n/a	n/a	n/a
3737.66	n/a	RECOG_RESP	1868830	n/a	LTP283	ltpFR	17	5	0	WIRE	1616	n/a	0	n/a	n/a	n/a	n/a	n/a
3738.31	n/a	RECOG_CONF	1869155	n/a	LTP283	ltpFR	17	5	0	WIRE	1616	5	0	n/a	n/a	n/a	n/a	n/a
3739.948	n/a	RECOG_TARGET	1869974	n/a	LTP283	ltpFR	17	5	0	FATHER	554	4	1	n/a	n/a	n/a	n/a	n/a
3740.606	n/a	RECOG_RESP	1870303	n/a	LTP283	ltpFR	17	5	0	FATHER	554	n/a	1	n/a	n/a	n/a	n/a	n/a
3741.274	n/a	RECOG_CONF	1870637	n/a	LTP283	ltpFR	17	5	0	FATHER	554	4	1	n/a	n/a	n/a	n/a	n/a
3742.934	n/a	RECOG_TARGET	1871467	n/a	LTP283	ltpFR	17	5	1	HAMBURGER	679	5	0	n/a	n/a	n/a	n/a	n/a
3743.506	n/a	RECOG_RESP	1871753	n/a	LTP283	ltpFR	17	5	1	HAMBURGER	679	n/a	0	n/a	n/a	n/a	n/a	n/a
3744.13	n/a	RECOG_CONF	1872065	n/a	LTP283	ltpFR	17	5	1	HAMBURGER	679	5	0	n/a	n/a	n/a	n/a	n/a
3745.67	n/a	RECOG_TARGET	1872835	n/a	LTP283	ltpFR	17	5	-1	SAP	1233	5	-1	n/a	n/a	n/a	n/a	n/a
3746.756	n/a	RECOG_RESP	1873378	n/a	LTP283	ltpFR	17	5	-1	SAP	1233	n/a	-1	n/a	n/a	n/a	n/a	n/a
3747.282	n/a	RECOG_CONF	1873641	n/a	LTP283	ltpFR	17	5	-1	SAP	1233	5	-1	n/a	n/a	n/a	n/a	n/a
3748.89	n/a	RECOG_TARGET	1874445	n/a	LTP283	ltpFR	17	5	0	MOTOR	922	5	1	n/a	n/a	n/a	n/a	n/a
3749.646	n/a	RECOG_RESP	1874823	n/a	LTP283	ltpFR	17	5	0	MOTOR	922	n/a	1	n/a	n/a	n/a	n/a	n/a
3750.26	n/a	RECOG_CONF	1875130	n/a	LTP283	ltpFR	17	5	0	MOTOR	922	5	1	n/a	n/a	n/a	n/a	n/a
3751.866	n/a	RECOG_TARGET	1875933	n/a	LTP283	ltpFR	17	5	1	PAW	1029	5	1	n/a	n/a	n/a	n/a	n/a
3752.416	n/a	RECOG_RESP	1876208	n/a	LTP283	ltpFR	17	5	1	PAW	1029	n/a	1	n/a	n/a	n/a	n/a	n/a
