mstime	trial_type	stim_file	subject	experiment	session	trial	task	item_name	item_num	recog_resp	recog_conf	resp	color_r	color_g	color_b	case	font
0	SESS_START	n/a	LTP139	ltpFR	5	n/a	n/a	n/a	n/a	1	4	n/a	n/a	n/a	n/a	n/a	n/a
53190	WORD	wordpools/wasnorm_wordpool.txt	LTP139	ltpFR	5	1	0	CRUMB	416	1	n/a	0	0.57763671875	0.412841796875	1	lower	amplitud.ttf
57243	WORD	wordpools/wasnorm_wordpool.txt	LTP139	ltpFR	5	1	0	ROBOT	1200	n/a	n/a	1	0.57763671875	0.412841796875	1	lower	amplitud.ttf
61230	WORD	wordpools/wasnorm_wordpool.txt	LTP139	ltpFR	5	1	0	TYPEWRITER	1531	n/a	n/a	1	0.57763671875	0.412841796875	1	lower	amplitud.ttf
65075	WORD	wordpools/wasnorm_wordpool.txt	LTP139	ltpFR	5	1	0	HARP	689	n/a	n/a	1	0.57763671875	0.412841796875	1	lower	amplitud.ttf
69279	WORD	wordpools/wasnorm_wordpool.txt	LTP139	ltpFR	5	1	1	MUSTARD	935	n/a	n/a	0	0.422607421875	0.5869140625	0	upper	zerothre.ttf
73208	WORD	wordpools/wasnorm_wordpool.txt	LTP139	ltpFR	5	1	1	GANGSTER	620	n/a	n/a	1	0.422607421875	0.5869140625	0	upper	zerothre.ttf
77128	WORD	wordpools/wasnorm_wordpool.txt	LTP139	ltpFR	5	1	1	RIB	1188	n/a	n/a	0	0.422607421875	0.5869140625	0	upper	zerothre.ttf
80998	WORD	wordpools/wasnorm_wordpool.txt	LTP139	ltpFR	5	1	1	HERD	705	n/a	n/a	1	0.422607421875	0.5869140625	0	upper	zerothre.ttf
84952	WORD	wordpools/wasnorm_wordpool.txt	LTP139	ltpFR	5	1	1	SNAIL	1332	n/a	n/a	1	0.422607421875	0.5869140625	0	upper	zerothre.ttf
88798	WORD	wordpools/wasnorm_wordpool.txt	LTP139	ltpFR	5	1	0	SLUG	1329	n/a	n/a	0	0.57763671875	0.412841796875	1	lower	amplitud.ttf
92868	WORD	wordpools/wasnorm_wordpool.txt	LTP139	ltpFR	5	1	0	THIGH	1457	n/a	n/a	1	0.57763671875	0.412841796875	1	lower	amplitud.ttf
97046	WORD	wordpools/wasnorm_wordpool.txt	LTP139	ltpFR	5	1	0	HAIL	676	n/a	n/a	0	0.57763671875	0.412841796875	1	lower	amplitud.ttf
101100	WORD	wordpools/wasnorm_wordpool.txt	LTP139	ltpFR	5	1	0	GLACIER	638	n/a	n/a	1	0.57763671875	0.412841796875	1	lower	amplitud.ttf
105020	WORD	wordpools/wasnorm_wordpool.txt	LTP139	ltpFR	5	1	1	DOUGH	489	n/a	n/a	0	0.422607421875	0.5869140625	0	upper	zerothre.ttf
108883	WORD	wordpools/wasnorm_wordpool.txt	LTP139	ltpFR	5	1	1	FOOT	590	n/a	n/a	0	0.422607421875	0.5869140625	0	upper	zerothre.ttf
112828	WORD	wordpools/wasnorm_wordpool.txt	LTP139	ltpFR	5	1	1	FARMER	553	n/a	n/a	1	0.422607421875	0.5869140625	0	upper	zerothre.ttf
118555	REC_START	n/a	LTP139	ltpFR	5	1	n/a	n/a	n/a	n/a	n/a	n/a	n/a	n/a	n/a	n/a	n/a
119523	REC_WORD	wordpools/wasnorm_wordpool.txt	LTP139	ltpFR	5	1	1	DOUGH	489	n/a	n/a	0	n/a	n/a	n/a	n/a	n/a
120021	REC_WORD	wordpools/wasnorm_wordpool.txt	LTP139	ltpFR	5	1	1	FOOT	590	n/a	n/a	0	n/a	n/a	n/a	n/a	n/a
120749	REC_WORD	wordpools/wasnorm_wordpool.txt	LTP139	ltpFR	5	1	1	FARMER	553	n/a	n/a	1	n/a	n/a	n/a	n/a	n/a
121528	REC_WORD	wordpools/wasnorm_wordpool.txt	LTP139	ltpFR	5	1	0	THIGH	1457	n/a	n/a	1	n/a	n/a	n/a	n/a	n/a
122366	REC_WORD	wordpools/wasnorm_wordpool.txt	LTP139	ltpFR	5	1	1	SNAIL	1332	n/a	n/a	1	n/a	n/a	n/a	n/a	n/a
123034	REC_WORD	wordpools/wasnorm_wordpool.txt	LTP139	ltpFR	5	1	0	HAIL	676	n/a	n/a	0	n/a	n/a	n/a	n/a	n/a
123667	REC_WORD	wordpools/wasnorm_wordpool.txt	LTP139	ltpFR	5	1	0	SLUG	1329	n/a	n/a	0	n/a	n/a	n/a	n/a	n/a
124920	REC_WORD	wordpools/wasnorm_wordpool.txt	LTP139	ltpFR	5	1	0	CRUMB	416	n/a	n/a	0	n/a	n/a	n/a	n/a	n/a
125579	REC_WORD	wordpools/wasnorm_wordpool.txt	LTP139	ltpFR	5	1	1	MUSTARD	935	n/a	n/a	0	n/a	n/a	n/a	n/a	n/a
126502	REC_WORD	wordpools/wasnorm_wordpool.txt	LTP139	ltpFR	5	1	1	RIB	1188	n/a	n/a	0	n/a	n/a	n/a	n/a	n/a
127674	REC_WORD	wordpools/wasnorm_wordpool.txt	LTP139	ltpFR	5	1	0	ROBOT	1200	n/a	n/a	1	n/a	n/a	n/a	n/a	n/a
129121	REC_WORD	wordpools/wasnorm_wordpool.txt	LTP139	ltpFR	5	1	0	TYPEWRITER	1531	n/a	n/a	1	n/a	n/a	n/a	n/a	n/a
130952	REC_WORD	wordpools/wasnorm_wordpool.txt	LTP139	ltpFR	5	1	1	GANGSTER	620	n/a	n/a	1	n/a	n/a	n/a	n/a	n/a
135541	REC_WORD	wordpools/wasnorm_wordpool.txt	LTP139	ltpFR	5	1	0	HARP	689	n/a	n/a	1	n/a	n/a	n/a	n/a	n/a
142670	REC_WORD	wordpools/wasnorm_wordpool.txt	LTP139	ltpFR	5	1	0	GLACIER	638	n/a	n/a	1	n/a	n/a	n/a	n/a	n/a
153410	REC_WORD	wordpools/wasnorm_wordpool.txt	LTP139	ltpFR	5	1	1	HERD	705	n/a	n/a	1	n/a	n/a	n/a	n/a	n/a
163897	REC_WORD	wordpools/wasnorm_wordpool.txt	LTP139	ltpFR	5	1	1	DOUGH	489	n/a	n/a	0	n/a	n/a	n/a	n/a	n/a
209949	WORD	wordpools/wasnorm_wordpool.txt	LTP139	ltpFR	5	2	1	STRAW	1390	n/a	n/a	0	0.422607421875	0.5869140625	0	upper	zerothre.ttf
213853	WORD	wordpools/wasnorm_wordpool.txt	LTP139	ltpFR	5	2	1	ZEBRA	1635	n/a	n/a	1	0.422607421875	0.5869140625	0	upper	zerothre.ttf
217756	WORD	wordpools/wasnorm_wordpool.txt	LTP139	ltpFR	5	2	1	CAT	257	n/a	n/a	1	0.422607421875	0.5869140625	0	upper	zerothre.ttf
221660	WORD	wordpools/wasnorm_wordpool.txt	LTP139	ltpFR	5	2	0	LITERATURE	831	n/a	n/a	1	0.57763671875	0.412841796875	1	lower	amplitud.ttf
225830	WORD	wordpools/wasnorm_wordpool.txt	LTP139	ltpFR	5	2	0	JUGGLER	763	n/a	n/a	1	0.57763671875	0.412841796875	1	lower	amplitud.ttf
229859	WORD	wordpools/wasnorm_wordpool.txt	LTP139	ltpFR	5	2	0	LAKE	796	n/a	n/a	1	0.57763671875	0.412841796875	1	lower	amplitud.ttf
233688	WORD	wordpools/wasnorm_wordpool.txt	LTP139	ltpFR	5	2	0	MANAGER	863	n/a	n/a	1	0.57763671875	0.412841796875	1	lower	amplitud.ttf
237633	WORD	wordpools/wasnorm_wordpool.txt	LTP139	ltpFR	5	2	1	RECEPTIONIST	1174	n/a	n/a	1	0.422607421875	0.5869140625	0	upper	zerothre.ttf
241621	WORD	wordpools/wasnorm_wordpool.txt	LTP139	ltpFR	5	2	1	PRAIRIE	1118	n/a	n/a	0	0.422607421875	0.5869140625	0	upper	zerothre.ttf
245766	WORD	wordpools/wasnorm_wordpool.txt	LTP139	ltpFR	5	2	1	SEASHORE	1263	n/a	n/a	0	0.422607421875	0.5869140625	0	upper	zerothre.ttf
249595	WORD	wordpools/wasnorm_wordpool.txt	LTP139	ltpFR	5	2	1	VEGETABLE	1552	n/a	n/a	1	0.422607421875	0.5869140625	0	upper	zerothre.ttf
253682	WORD	wordpools/wasnorm_wordpool.txt	LTP139	ltpFR	5	2	1	QUEEN	1149	n/a	n/a	1	0.422607421875	0.5869140625	0	upper	zerothre.ttf
257511	WORD	wordpools/wasnorm_wordpool.txt	LTP139	ltpFR	5	2	0	SWORD	1423	n/a	n/a	1	0.57763671875	0.412841796875	1	lower	amplitud.ttf
261589	WORD	wordpools/wasnorm_wordpool.txt	LTP139	ltpFR	5	2	0	BLADE	134	n/a	n/a	0	0.57763671875	0.412841796875	1	lower	amplitud.ttf
265568	WORD	wordpools/wasnorm_wordpool.txt	LTP139	ltpFR	5	2	0	COSTUME	383	n/a	n/a	0	0.57763671875	0.412841796875	1	lower	amplitud.ttf
269546	WORD	wordpools/wasnorm_wordpool.txt	LTP139	ltpFR	5	2	0	BRIDGE	174	n/a	n/a	1	0.57763671875	0.412841796875	1	lower	amplitud.ttf
275490	REC_START	n/a	LTP139	ltpFR	5	2	n/a	n/a	n/a	n/a	n/a	n/a	n/a	n/a	n/a	n/a	n/a
276313	REC_WORD	wordpools/wasnorm_wordpool.txt	LTP139	ltpFR	5	2	0	BRIDGE	174	n/a	n/a	1	n/a	n/a	n/a	n/a	n/a
276820	REC_WORD	wordpools/wasnorm_wordpool.txt	LTP139	ltpFR	5	2	1	SEASHORE	1263	n/a	n/a	0	n/a	n/a	n/a	n/a	n/a
277745	REC_WORD	wordpools/wasnorm_wordpool.txt	LTP139	ltpFR	5	2	0	LAKE	796	n/a	n/a	1	n/a	n/a	n/a	n/a	n/a
278453	REC_WORD	wordpools/wasnorm_wordpool.txt	LTP139	ltpFR	5	2	1	PRAIRIE	1118	n/a	n/a	0	n/a	n/a	n/a	n/a	n/a
279321	REC_WORD	wordpools/wasnorm_wordpool.txt	LTP139	ltpFR	5	2	1	QUEEN	1149	n/a	n/a	1	n/a	n/a	n/a	n/a	n/a
280269	REC_WORD	wordpools/wasnorm_wordpool.txt	LTP139	ltpFR	5	2	0	COSTUME	383	n/a	n/a	0	n/a	n/a	n/a	n/a	n/a
283312	REC_WORD	wordpools/wasnorm_wordpool.txt	LTP139	ltpFR	5	2	1	ZEBRA	1635	n/a	n/a	1	n/a	n/a	n/a	n/a	n/a
284035	REC_WORD	wordpools/wasnorm_wordpool.txt	LTP139	ltpFR	5	2	1	STRAW	1390	n/a	n/a	0	n/a	n/a	n/a	n/a	n/a
285195	REC_WORD	wordpools/wasnorm_wordpool.txt	LTP139	ltpFR	5	2	1	CAT	257	n/a	n/a	1	n/a	n/a	n/a	n/a	n/a
287029	REC_WORD	wordpools/wasnorm_wordpool.txt	LTP139	ltpFR	5	2	0	LITERATURE	831	n/a	n/a	1	n/a	n/a	n/a	n/a	n/a
288076	REC_WORD	wordpools/wasnorm_wordpool.txt	LTP139	ltpFR	5	2	0	JUGGLER	763	n/a	n/a	1	n/a	n/a	n/a	n/a	n/a
289273	REC_WORD	wordpools/wasnorm_wordpool.txt	LTP139	ltpFR	5	2	0	MANAGER	863	n/a	n/a	1	n/a	n/a	n/a	n/a	n/a
289902	REC_WORD	wordpools/wasnorm_wordpool.txt	LTP139	ltpFR	5	2	1	RECEPTIONIST	1174	n/a	n/a	1	n/a	n/a	n/a	n/a	n/a
296357	REC_WORD	wordpools/wasnorm_wordpool.txt	LTP139	ltpFR	5	2	0	SWORD	1423	n/a	n/a	1	n/a	n/a	n/a	n/a	n/a
297230	REC_WORD	wordpools/wasnorm_wordpool.txt	LTP139	ltpFR	5	2	0	BLADE	134	n/a	n/a	0	n/a	n/a	n/a	n/a	n/a
362106	WORD	wordpools/wasnorm_wordpool.txt	LTP139	ltpFR	5	3	1	WALRUS	1585	n/a	n/a	1	0.422607421875	0.5869140625	0	upper	zerothre.ttf
366143	WORD	wordpools/wasnorm_wordpool.txt	LTP139	ltpFR	5	3	1	DRILL	497	n/a	n/a	0	0.422607421875	0.5869140625	0	upper	zerothre.ttf
370214	WORD	wordpools/wasnorm_wordpool.txt	LTP139	ltpFR	5	3	1	PIRATE	1074	n/a	n/a	1	0.422607421875	0.5869140625	0	upper	zerothre.ttf
374310	WORD	wordpools/wasnorm_wordpool.txt	LTP139	ltpFR	5	3	1	JUPITER	765	n/a	n/a	0	0.422607421875	0.5869140625	0	upper	zerothre.ttf
378330	WORD	wordpools/wasnorm_wordpool.txt	LTP139	ltpFR	5	3	1	CEILING	265	n/a	n/a	0	0.422607421875	0.5869140625	0	upper	zerothre.ttf
382499	WORD	wordpools/wasnorm_wordpool.txt	LTP139	ltpFR	5	3	1	NET	946	n/a	n/a	0	0.422607421875	0.5869140625	0	upper	zerothre.ttf
386586	WORD	wordpools/wasnorm_wordpool.txt	LTP139	ltpFR	5	3	1	TUNA	1518	n/a	n/a	1	0.422607421875	0.5869140625	0	upper	zerothre.ttf
390483	WORD	wordpools/wasnorm_wordpool.txt	LTP139	ltpFR	5	3	1	TIGER	1467	n/a	n/a	1	0.422607421875	0.5869140625	0	upper	zerothre.ttf
394328	WORD	wordpools/wasnorm_wordpool.txt	LTP139	ltpFR	5	3	1	HUT	729	n/a	n/a	0	0.422607421875	0.5869140625	0	upper	zerothre.ttf
398382	WORD	wordpools/wasnorm_wordpool.txt	LTP139	ltpFR	5	3	1	CHISEL	305	n/a	n/a	0	0.422607421875	0.5869140625	0	upper	zerothre.ttf
402477	WORD	wordpools/wasnorm_wordpool.txt	LTP139	ltpFR	5	3	1	SURF	1412	n/a	n/a	0	0.422607421875	0.5869140625	0	upper	zerothre.ttf
406356	WORD	wordpools/wasnorm_wordpool.txt	LTP139	ltpFR	5	3	1	MERMAID	887	n/a	n/a	1	0.422607421875	0.5869140625	0	upper	zerothre.ttf
410168	WORD	wordpools/wasnorm_wordpool.txt	LTP139	ltpFR	5	3	1	FELLOW	558	n/a	n/a	1	0.422607421875	0.5869140625	0	upper	zerothre.ttf
414163	WORD	wordpools/wasnorm_wordpool.txt	LTP139	ltpFR	5	3	1	PUMP	1141	n/a	n/a	0	0.422607421875	0.5869140625	0	upper	zerothre.ttf
418367	WORD	wordpools/wasnorm_wordpool.txt	LTP139	ltpFR	5	3	1	ATMOSPHERE	54	n/a	n/a	0	0.422607421875	0.5869140625	0	upper	zerothre.ttf
422544	WORD	wordpools/wasnorm_wordpool.txt	LTP139	ltpFR	5	3	1	ASSOCIATE	49	n/a	n/a	1	0.422607421875	0.5869140625	0	upper	zerothre.ttf
428530	REC_START	n/a	LTP139	ltpFR	5	3	n/a	n/a	n/a	n/a	n/a	n/a	n/a	n/a	n/a	n/a	n/a
429348	REC_WORD	wordpools/wasnorm_wordpool.txt	LTP139	ltpFR	5	3	1	ASSOCIATE	49	n/a	n/a	1	n/a	n/a	n/a	n/a	n/a
430420	REC_WORD	wordpools/wasnorm_wordpool.txt	LTP139	ltpFR	5	3	1	TUNA	1518	n/a	n/a	1	n/a	n/a	n/a	n/a	n/a
431009	REC_WORD	wordpools/wasnorm_wordpool.txt	LTP139	ltpFR	5	3	1	SURF	1412	n/a	n/a	0	n/a	n/a	n/a	n/a	n/a
431972	REC_WORD	wordpools/wasnorm_wordpool.txt	LTP139	ltpFR	5	3	1	NET	946	n/a	n/a	0	n/a	n/a	n/a	n/a	n/a
432820	REC_WORD	wordpools/wasnorm_wordpool.txt	LTP139	ltpFR	5	3	1	PUMP	1141	n/a	n/a	0	n/a	n/a	n/a	n/a	n/a
433608	REC_WORD	wordpools/wasnorm_wordpool.txt	LTP139	ltpFR	5	3	1	ATMOSPHERE	54	n/a	n/a	0	n/a	n/a	n/a	n/a	n/a
434421	REC_WORD	wordpools/wasnorm_wordpool.txt	LTP139	ltpFR	5	3	1	CEILING	265	n/a	n/a	0	n/a	n/a	n/a	n/a	n/a
435449	REC_WORD	wordpools/wasnorm_wordpool.txt	LTP139	ltpFR	5	3	1	HUT	729	n/a	n/a	0	n/a	n/a	n/a	n/a	n/a
435868	REC_WORD	wordpools/wasnorm_wordpool.txt	LTP139	ltpFR	5	3	1	JUPITER	765	n/a	n/a	0	n/a	n/a	n/a	n/a	n/a
445805	REC_WORD	wordpools/wasnorm_wordpool.txt	LTP139	ltpFR	5	3	1	WALRUS	1585	n/a	n/a	1	n/a	n/a	n/a	n/a	n/a
469377	REC_WORD	wordpools/wasnorm_wordpool.txt	LTP139	ltpFR	5	3	1	ASSOCIATE	49	n/a	n/a	1	n/a	n/a	n/a	n/a	n/a
524010	WORD	wordpools/wasnorm_wordpool.txt	LTP139	ltpFR	5	4	0	PADDLE	1000	n/a	n/a	1	0.57763671875	0.412841796875	1	lower	amplitud.ttf
528005	WORD	wordpools/wasnorm_wordpool.txt	LTP139	ltpFR	5	4	0	CAPTAIN	239	n/a	n/a	1	0.57763671875	0.412841796875	1	lower	amplitud.ttf
531834	WORD	wordpools/wasnorm_wordpool.txt	LTP139	ltpFR	5	4	0	ASTRONAUT	51	n/a	n/a	1	0.57763671875	0.412841796875	1	lower	amplitud.ttf
535738	WORD	wordpools/wasnorm_wordpool.txt	LTP139	ltpFR	5	4	0	TIMBER	1469	n/a	n/a	1	0.57763671875	0.412841796875	1	lower	amplitud.ttf
539900	WORD	wordpools/wasnorm_wordpool.txt	LTP139	ltpFR	5	4	0	BLACKBOARD	133	n/a	n/a	1	0.57763671875	0.412841796875	1	lower	amplitud.ttf
543845	WORD	wordpools/wasnorm_wordpool.txt	LTP139	ltpFR	5	4	1	FUNGUS	614	n/a	n/a	1	0.422607421875	0.5869140625	0	upper	zerothre.ttf
548049	WORD	wordpools/wasnorm_wordpool.txt	LTP139	ltpFR	5	4	1	ADULT	8	n/a	n/a	1	0.422607421875	0.5869140625	0	upper	zerothre.ttf
552220	WORD	wordpools/wasnorm_wordpool.txt	LTP139	ltpFR	5	4	1	NICKEL	950	n/a	n/a	0	0.422607421875	0.5869140625	0	upper	zerothre.ttf
556382	WORD	wordpools/wasnorm_wordpool.txt	LTP139	ltpFR	5	4	1	PLUTO	1092	n/a	n/a	0	0.422607421875	0.5869140625	0	upper	zerothre.ttf
560377	WORD	wordpools/wasnorm_wordpool.txt	LTP139	ltpFR	5	4	0	PUPPY	1144	n/a	n/a	1	0.57763671875	0.412841796875	1	lower	amplitud.ttf
564281	WORD	wordpools/wasnorm_wordpool.txt	LTP139	ltpFR	5	4	0	VIRUS	1572	n/a	n/a	0	0.57763671875	0.412841796875	1	lower	amplitud.ttf
568343	WORD	wordpools/wasnorm_wordpool.txt	LTP139	ltpFR	5	4	0	VENT	1556	n/a	n/a	1	0.57763671875	0.412841796875	1	lower	amplitud.ttf
572314	WORD	wordpools/wasnorm_wordpool.txt	LTP139	ltpFR	5	4	1	STAKE	1368	n/a	n/a	0	0.422607421875	0.5869140625	0	upper	zerothre.ttf
576326	WORD	wordpools/wasnorm_wordpool.txt	LTP139	ltpFR	5	4	1	COMET	353	n/a	n/a	0	0.422607421875	0.5869140625	0	upper	zerothre.ttf
580313	WORD	wordpools/wasnorm_wordpool.txt	LTP139	ltpFR	5	4	1	PASSAGE	1019	n/a	n/a	0	0.422607421875	0.5869140625	0	upper	zerothre.ttf
584132	WORD	wordpools/wasnorm_wordpool.txt	LTP139	ltpFR	5	4	1	KEY	773	n/a	n/a	0	0.422607421875	0.5869140625	0	upper	zerothre.ttf
589893	REC_START	n/a	LTP139	ltpFR	5	4	n/a	n/a	n/a	n/a	n/a	n/a	n/a	n/a	n/a	n/a	n/a
590751	REC_WORD	wordpools/wasnorm_wordpool.txt	LTP139	ltpFR	5	4	1	KEY	773	n/a	n/a	0	n/a	n/a	n/a	n/a	n/a
591269	REC_WORD	wordpools/wasnorm_wordpool.txt	LTP139	ltpFR	5	4	1	STAKE	1368	n/a	n/a	0	n/a	n/a	n/a	n/a	n/a
592108	REC_WORD	wordpools/wasnorm_wordpool.txt	LTP139	ltpFR	5	4	1	COMET	353	n/a	n/a	0	n/a	n/a	n/a	n/a	n/a
592776	REC_WORD	wordpools/wasnorm_wordpool.txt	LTP139	ltpFR	5	4	1	PASSAGE	1019	n/a	n/a	0	n/a	n/a	n/a	n/a	n/a
593683	REC_WORD	wordpools/wasnorm_wordpool.txt	LTP139	ltpFR	5	4	1	PLUTO	1092	n/a	n/a	0	n/a	n/a	n/a	n/a	n/a
594477	REC_WORD	wordpools/wasnorm_wordpool.txt	LTP139	ltpFR	5	4	0	VENT	1556	n/a	n/a	1	n/a	n/a	n/a	n/a	n/a
597326	REC_WORD	wordpools/wasnorm_wordpool.txt	LTP139	ltpFR	5	4	0	ASTRONAUT	51	n/a	n/a	1	n/a	n/a	n/a	n/a	n/a
598024	REC_WORD	wordpools/wasnorm_wordpool.txt	LTP139	ltpFR	5	4	0	CAPTAIN	239	n/a	n/a	1	n/a	n/a	n/a	n/a	n/a
598807	REC_WORD	wordpools/wasnorm_wordpool.txt	LTP139	ltpFR	5	4	0	PADDLE	1000	n/a	n/a	1	n/a	n/a	n/a	n/a	n/a
599476	REC_WORD	wordpools/wasnorm_wordpool.txt	LTP139	ltpFR	5	4	0	TIMBER	1469	n/a	n/a	1	n/a	n/a	n/a	n/a	n/a
600234	REC_WORD	wordpools/wasnorm_wordpool.txt	LTP139	ltpFR	5	4	1	NICKEL	950	n/a	n/a	0	n/a	n/a	n/a	n/a	n/a
601446	REC_WORD	wordpools/wasnorm_wordpool.txt	LTP139	ltpFR	5	4	0	BLACKBOARD	133	n/a	n/a	1	n/a	n/a	n/a	n/a	n/a
604674	REC_WORD	wordpools/wasnorm_wordpool.txt	LTP139	ltpFR	5	4	0	PUPPY	1144	n/a	n/a	1	n/a	n/a	n/a	n/a	n/a
614295	REC_WORD	wordpools/wasnorm_wordpool.txt	LTP139	ltpFR	5	4	1	PLUTO	1092	n/a	n/a	0	n/a	n/a	n/a	n/a	n/a
618253	REC_WORD	wordpools/wasnorm_wordpool.txt	LTP139	ltpFR	5	4	0	VIRUS	1572	n/a	n/a	0	n/a	n/a	n/a	n/a	n/a
621910	REC_WORD	wordpools/wasnorm_wordpool.txt	LTP139	ltpFR	5	4	1	FUNGUS	614	n/a	n/a	1	n/a	n/a	n/a	n/a	n/a
622823	REC_WORD	wordpools/wasnorm_wordpool.txt	LTP139	ltpFR	5	4	1	ADULT	8	n/a	n/a	1	n/a	n/a	n/a	n/a	n/a
683401	WORD	wordpools/wasnorm_wordpool.txt	LTP139	ltpFR	5	5	0	BLUEBERRY	140	n/a	n/a	0	0.57763671875	0.412841796875	1	lower	amplitud.ttf
687587	WORD	wordpools/wasnorm_wordpool.txt	LTP139	ltpFR	5	5	0	PUMPKIN	1142	n/a	n/a	1	0.57763671875	0.412841796875	1	lower	amplitud.ttf
691558	WORD	wordpools/wasnorm_wordpool.txt	LTP139	ltpFR	5	5	0	VAULT	1550	n/a	n/a	1	0.57763671875	0.412841796875	1	lower	amplitud.ttf
695520	WORD	wordpools/wasnorm_wordpool.txt	LTP139	ltpFR	5	5	0	JEWEL	757	n/a	n/a	0	0.57763671875	0.412841796875	1	lower	amplitud.ttf
699515	WORD	wordpools/wasnorm_wordpool.txt	LTP139	ltpFR	5	5	0	STATUE	1374	n/a	n/a	1	0.57763671875	0.412841796875	1	lower	amplitud.ttf
703644	WORD	wordpools/wasnorm_wordpool.txt	LTP139	ltpFR	5	5	0	STEM	1376	n/a	n/a	0	0.57763671875	0.412841796875	1	lower	amplitud.ttf
707556	WORD	wordpools/wasnorm_wordpool.txt	LTP139	ltpFR	5	5	0	ENCYCLOPEDIA	533	n/a	n/a	1	0.57763671875	0.412841796875	1	lower	amplitud.ttf
711651	WORD	wordpools/wasnorm_wordpool.txt	LTP139	ltpFR	5	5	0	SUPPER	1411	n/a	n/a	0	0.57763671875	0.412841796875	1	lower	amplitud.ttf
715696	WORD	wordpools/wasnorm_wordpool.txt	LTP139	ltpFR	5	5	0	GRILL	661	n/a	n/a	1	0.57763671875	0.412841796875	1	lower	amplitud.ttf
719534	WORD	wordpools/wasnorm_wordpool.txt	LTP139	ltpFR	5	5	0	CALCULATOR	220	n/a	n/a	0	0.57763671875	0.412841796875	1	lower	amplitud.ttf
723654	WORD	wordpools/wasnorm_wordpool.txt	LTP139	ltpFR	5	5	0	COOKBOOK	373	n/a	n/a	0	0.57763671875	0.412841796875	1	lower	amplitud.ttf
727633	WORD	wordpools/wasnorm_wordpool.txt	LTP139	ltpFR	5	5	0	TOWER	1490	n/a	n/a	1	0.57763671875	0.412841796875	1	lower	amplitud.ttf
731636	WORD	wordpools/wasnorm_wordpool.txt	LTP139	ltpFR	5	5	0	RUBY	1214	n/a	n/a	0	0.57763671875	0.412841796875	1	lower	amplitud.ttf
735515	WORD	wordpools/wasnorm_wordpool.txt	LTP139	ltpFR	5	5	0	UTENSIL	1542	n/a	n/a	0	0.57763671875	0.412841796875	1	lower	amplitud.ttf
739669	WORD	wordpools/wasnorm_wordpool.txt	LTP139	ltpFR	5	5	0	VILLAGE	1566	n/a	n/a	1	0.57763671875	0.412841796875	1	lower	amplitud.ttf
743482	WORD	wordpools/wasnorm_wordpool.txt	LTP139	ltpFR	5	5	0	CORPORATION	382	n/a	n/a	1	0.57763671875	0.412841796875	1	lower	amplitud.ttf
749217	REC_START	n/a	LTP139	ltpFR	5	5	n/a	n/a	n/a	n/a	n/a	n/a	n/a	n/a	n/a	n/a	n/a
750349	REC_WORD	wordpools/wasnorm_wordpool.txt	LTP139	ltpFR	5	5	0	CORPORATION	382	n/a	n/a	1	n/a	n/a	n/a	n/a	n/a
751332	REC_WORD	wordpools/wasnorm_wordpool.txt	LTP139	ltpFR	5	5	0	VILLAGE	1566	n/a	n/a	1	n/a	n/a	n/a	n/a	n/a
752000	REC_WORD	wordpools/wasnorm_wordpool.txt	LTP139	ltpFR	5	5	0	RUBY	1214	n/a	n/a	0	n/a	n/a	n/a	n/a	n/a
752723	REC_WORD	wordpools/wasnorm_wordpool.txt	LTP139	ltpFR	5	5	0	COOKBOOK	373	n/a	n/a	0	n/a	n/a	n/a	n/a	n/a
753592	REC_WORD	wordpools/wasnorm_wordpool.txt	LTP139	ltpFR	5	5	0	GRILL	661	n/a	n/a	1	n/a	n/a	n/a	n/a	n/a
754244	REC_WORD	wordpools/wasnorm_wordpool.txt	LTP139	ltpFR	5	5	0	SUPPER	1411	n/a	n/a	0	n/a	n/a	n/a	n/a	n/a
756156	REC_WORD	wordpools/wasnorm_wordpool.txt	LTP139	ltpFR	5	5	0	ENCYCLOPEDIA	533	n/a	n/a	1	n/a	n/a	n/a	n/a	n/a
757156	REC_WORD_VV	wordpools/wasnorm_wordpool.txt	LTP139	ltpFR	5	5	n/a	<>	-1	n/a	n/a	n/a	n/a	n/a	n/a	n/a	n/a
757482	REC_WORD	wordpools/wasnorm_wordpool.txt	LTP139	ltpFR	5	5	0	STEM	1376	n/a	n/a	0	n/a	n/a	n/a	n/a	n/a
761194	REC_WORD	wordpools/wasnorm_wordpool.txt	LTP139	ltpFR	5	5	0	VAULT	1550	n/a	n/a	1	n/a	n/a	n/a	n/a	n/a
762028	REC_WORD	wordpools/wasnorm_wordpool.txt	LTP139	ltpFR	5	5	0	BLUEBERRY	140	n/a	n/a	0	n/a	n/a	n/a	n/a	n/a
762771	REC_WORD	wordpools/wasnorm_wordpool.txt	LTP139	ltpFR	5	5	0	PUMPKIN	1142	n/a	n/a	1	n/a	n/a	n/a	n/a	n/a
764227	REC_WORD	wordpools/wasnorm_wordpool.txt	LTP139	ltpFR	5	5	0	STATUE	1374	n/a	n/a	1	n/a	n/a	n/a	n/a	n/a
765974	REC_WORD	wordpools/wasnorm_wordpool.txt	LTP139	ltpFR	5	5	n/a	GEM	629	n/a	n/a	n/a	n/a	n/a	n/a	n/a	n/a
771700	REC_WORD	wordpools/wasnorm_wordpool.txt	LTP139	ltpFR	5	5	n/a	DINNER	468	n/a	n/a	n/a	n/a	n/a	n/a	n/a	n/a
792433	REC_WORD	wordpools/wasnorm_wordpool.txt	LTP139	ltpFR	5	5	0	CORPORATION	382	n/a	n/a	1	n/a	n/a	n/a	n/a	n/a
800116	REC_WORD	wordpools/wasnorm_wordpool.txt	LTP139	ltpFR	5	5	0	TOWER	1490	n/a	n/a	1	n/a	n/a	n/a	n/a	n/a
835508	WORD	wordpools/wasnorm_wordpool.txt	LTP139	ltpFR	5	6	1	WINDOW	1611	n/a	n/a	0	0.422607421875	0.5869140625	0	upper	zerothre.ttf
839620	WORD	wordpools/wasnorm_wordpool.txt	LTP139	ltpFR	5	6	1	LIST	830	n/a	n/a	0	0.422607421875	0.5869140625	0	upper	zerothre.ttf
843823	WORD	wordpools/wasnorm_wordpool.txt	LTP139	ltpFR	5	6	1	MARKET	871	n/a	n/a	0	0.422607421875	0.5869140625	0	upper	zerothre.ttf
847669	WORD	wordpools/wasnorm_wordpool.txt	LTP139	ltpFR	5	6	1	SPONGE	1355	n/a	n/a	1	0.422607421875	0.5869140625	0	upper	zerothre.ttf
851597	WORD	wordpools/wasnorm_wordpool.txt	LTP139	ltpFR	5	6	1	RICE	1190	n/a	n/a	1	0.422607421875	0.5869140625	0	upper	zerothre.ttf
855493	WORD	wordpools/wasnorm_wordpool.txt	LTP139	ltpFR	5	6	1	UMPIRE	1535	n/a	n/a	1	0.422607421875	0.5869140625	0	upper	zerothre.ttf
859646	WORD	wordpools/wasnorm_wordpool.txt	LTP139	ltpFR	5	6	1	BEDROOM	111	n/a	n/a	0	0.422607421875	0.5869140625	0	upper	zerothre.ttf
863575	WORD	wordpools/wasnorm_wordpool.txt	LTP139	ltpFR	5	6	1	CAMEL	223	n/a	n/a	1	0.422607421875	0.5869140625	0	upper	zerothre.ttf
867687	WORD	wordpools/wasnorm_wordpool.txt	LTP139	ltpFR	5	6	1	DINER	467	n/a	n/a	0	0.422607421875	0.5869140625	0	upper	zerothre.ttf
871824	WORD	wordpools/wasnorm_wordpool.txt	LTP139	ltpFR	5	6	1	SPY	1360	n/a	n/a	1	0.422607421875	0.5869140625	0	upper	zerothre.ttf
875861	WORD	wordpools/wasnorm_wordpool.txt	LTP139	ltpFR	5	6	1	STREAM	1392	n/a	n/a	0	0.422607421875	0.5869140625	0	upper	zerothre.ttf
880039	WORD	wordpools/wasnorm_wordpool.txt	LTP139	ltpFR	5	6	1	MINT	898	n/a	n/a	0	0.422607421875	0.5869140625	0	upper	zerothre.ttf
884060	WORD	wordpools/wasnorm_wordpool.txt	LTP139	ltpFR	5	6	1	RAKE	1164	n/a	n/a	0	0.422607421875	0.5869140625	0	upper	zerothre.ttf
887930	WORD	wordpools/wasnorm_wordpool.txt	LTP139	ltpFR	5	6	1	MOWER	928	n/a	n/a	0	0.422607421875	0.5869140625	0	upper	zerothre.ttf
891809	WORD	wordpools/wasnorm_wordpool.txt	LTP139	ltpFR	5	6	1	INMATE	738	n/a	n/a	1	0.422607421875	0.5869140625	0	upper	zerothre.ttf
895713	WORD	wordpools/wasnorm_wordpool.txt	LTP139	ltpFR	5	6	1	CAPTIVE	240	n/a	n/a	1	0.422607421875	0.5869140625	0	upper	zerothre.ttf
901441	REC_START	n/a	LTP139	ltpFR	5	6	n/a	n/a	n/a	n/a	n/a	n/a	n/a	n/a	n/a	n/a	n/a
902763	REC_WORD	wordpools/wasnorm_wordpool.txt	LTP139	ltpFR	5	6	1	INMATE	738	n/a	n/a	1	n/a	n/a	n/a	n/a	n/a
903376	REC_WORD	wordpools/wasnorm_wordpool.txt	LTP139	ltpFR	5	6	1	CAPTIVE	240	n/a	n/a	1	n/a	n/a	n/a	n/a	n/a
904294	REC_WORD	wordpools/wasnorm_wordpool.txt	LTP139	ltpFR	5	6	1	DINER	467	n/a	n/a	0	n/a	n/a	n/a	n/a	n/a
904863	REC_WORD	wordpools/wasnorm_wordpool.txt	LTP139	ltpFR	5	6	1	SPY	1360	n/a	n/a	1	n/a	n/a	n/a	n/a	n/a
906060	REC_WORD	wordpools/wasnorm_wordpool.txt	LTP139	ltpFR	5	6	1	MINT	898	n/a	n/a	0	n/a	n/a	n/a	n/a	n/a
910276	REC_WORD	wordpools/wasnorm_wordpool.txt	LTP139	ltpFR	5	6	1	RICE	1190	n/a	n/a	1	n/a	n/a	n/a	n/a	n/a
910814	REC_WORD	wordpools/wasnorm_wordpool.txt	LTP139	ltpFR	5	6	1	MARKET	871	n/a	n/a	0	n/a	n/a	n/a	n/a	n/a
911732	REC_WORD	wordpools/wasnorm_wordpool.txt	LTP139	ltpFR	5	6	1	CAMEL	223	n/a	n/a	1	n/a	n/a	n/a	n/a	n/a
912281	REC_WORD	wordpools/wasnorm_wordpool.txt	LTP139	ltpFR	5	6	1	LIST	830	n/a	n/a	0	n/a	n/a	n/a	n/a	n/a
913668	REC_WORD	wordpools/wasnorm_wordpool.txt	LTP139	ltpFR	5	6	1	SPONGE	1355	n/a	n/a	1	n/a	n/a	n/a	n/a	n/a
915179	REC_WORD	wordpools/wasnorm_wordpool.txt	LTP139	ltpFR	5	6	1	WINDOW	1611	n/a	n/a	0	n/a	n/a	n/a	n/a	n/a
948708	REC_WORD	wordpools/wasnorm_wordpool.txt	LTP139	ltpFR	5	6	1	UMPIRE	1535	n/a	n/a	1	n/a	n/a	n/a	n/a	n/a
950200	REC_WORD	wordpools/wasnorm_wordpool.txt	LTP139	ltpFR	5	6	1	BEDROOM	111	n/a	n/a	0	n/a	n/a	n/a	n/a	n/a
995656	WORD	wordpools/wasnorm_wordpool.txt	LTP139	ltpFR	5	7	-1	LAVA	804	n/a	n/a	-1	1.0	1.0	1	upper	Verdana.ttf
999842	WORD	wordpools/wasnorm_wordpool.txt	LTP139	ltpFR	5	7	-1	FRAME	600	n/a	n/a	-1	1.0	1.0	1	upper	Verdana.ttf
1003688	WORD	wordpools/wasnorm_wordpool.txt	LTP139	ltpFR	5	7	-1	ALBUM	14	n/a	n/a	-1	1.0	1.0	1	upper	Verdana.ttf
1007617	WORD	wordpools/wasnorm_wordpool.txt	LTP139	ltpFR	5	7	-1	MINK	897	n/a	n/a	-1	1.0	1.0	1	upper	Verdana.ttf
1011812	WORD	wordpools/wasnorm_wordpool.txt	LTP139	ltpFR	5	7	-1	DRIVER	499	n/a	n/a	-1	1.0	1.0	1	upper	Verdana.ttf
1015666	WORD	wordpools/wasnorm_wordpool.txt	LTP139	ltpFR	5	7	-1	ARTICLE	42	n/a	n/a	-1	1.0	1.0	1	upper	Verdana.ttf
1019536	WORD	wordpools/wasnorm_wordpool.txt	LTP139	ltpFR	5	7	-1	FENCE	560	n/a	n/a	-1	1.0	1.0	1	upper	Verdana.ttf
1023366	WORD	wordpools/wasnorm_wordpool.txt	LTP139	ltpFR	5	7	-1	CAR	241	n/a	n/a	-1	1.0	1.0	1	upper	Verdana.ttf
1027328	WORD	wordpools/wasnorm_wordpool.txt	LTP139	ltpFR	5	7	-1	WOLF	1619	n/a	n/a	-1	1.0	1.0	1	upper	Verdana.ttf
1031489	WORD	wordpools/wasnorm_wordpool.txt	LTP139	ltpFR	5	7	-1	COMPUTER	359	n/a	n/a	-1	1.0	1.0	1	upper	Verdana.ttf
1035311	WORD	wordpools/wasnorm_wordpool.txt	LTP139	ltpFR	5	7	-1	COPIER	377	n/a	n/a	-1	1.0	1.0	1	upper	Verdana.ttf
1039264	WORD	wordpools/wasnorm_wordpool.txt	LTP139	ltpFR	5	7	-1	SICKLE	1302	n/a	n/a	-1	1.0	1.0	1	upper	Verdana.ttf
1043251	WORD	wordpools/wasnorm_wordpool.txt	LTP139	ltpFR	5	7	-1	THORN	1459	n/a	n/a	-1	1.0	1.0	1	upper	Verdana.ttf
1047297	WORD	wordpools/wasnorm_wordpool.txt	LTP139	ltpFR	5	7	-1	DOOR	486	n/a	n/a	-1	1.0	1.0	1	upper	Verdana.ttf
1051467	WORD	wordpools/wasnorm_wordpool.txt	LTP139	ltpFR	5	7	-1	MAGICIAN	854	n/a	n/a	-1	1.0	1.0	1	upper	Verdana.ttf
1055544	WORD	wordpools/wasnorm_wordpool.txt	LTP139	ltpFR	5	7	-1	LINT	826	n/a	n/a	-1	1.0	1.0	1	upper	Verdana.ttf
1061365	REC_START	n/a	LTP139	ltpFR	5	7	n/a	n/a	n/a	n/a	n/a	n/a	n/a	n/a	n/a	n/a	n/a
1062263	REC_WORD	wordpools/wasnorm_wordpool.txt	LTP139	ltpFR	5	7	-1	LINT	826	n/a	n/a	-1	n/a	n/a	n/a	n/a	n/a
1062876	REC_WORD	wordpools/wasnorm_wordpool.txt	LTP139	ltpFR	5	7	-1	MINK	897	n/a	n/a	-1	n/a	n/a	n/a	n/a	n/a
1063520	REC_WORD	wordpools/wasnorm_wordpool.txt	LTP139	ltpFR	5	7	-1	WOLF	1619	n/a	n/a	-1	n/a	n/a	n/a	n/a	n/a
1064038	REC_WORD	wordpools/wasnorm_wordpool.txt	LTP139	ltpFR	5	7	-1	MAGICIAN	854	n/a	n/a	-1	n/a	n/a	n/a	n/a	n/a
1065829	REC_WORD	wordpools/wasnorm_wordpool.txt	LTP139	ltpFR	5	7	-1	CAR	241	n/a	n/a	-1	n/a	n/a	n/a	n/a	n/a
1066503	REC_WORD	wordpools/wasnorm_wordpool.txt	LTP139	ltpFR	5	7	-1	DOOR	486	n/a	n/a	-1	n/a	n/a	n/a	n/a	n/a
1067112	REC_WORD	wordpools/wasnorm_wordpool.txt	LTP139	ltpFR	5	7	-1	DRIVER	499	n/a	n/a	-1	n/a	n/a	n/a	n/a	n/a
1067994	REC_WORD	wordpools/wasnorm_wordpool.txt	LTP139	ltpFR	5	7	-1	COPIER	377	n/a	n/a	-1	n/a	n/a	n/a	n/a	n/a
1068822	REC_WORD	wordpools/wasnorm_wordpool.txt	LTP139	ltpFR	5	7	-1	COMPUTER	359	n/a	n/a	-1	n/a	n/a	n/a	n/a	n/a
1069831	REC_WORD	wordpools/wasnorm_wordpool.txt	LTP139	ltpFR	5	7	-1	ARTICLE	42	n/a	n/a	-1	n/a	n/a	n/a	n/a	n/a
1073377	REC_WORD	wordpools/wasnorm_wordpool.txt	LTP139	ltpFR	5	7	-1	LAVA	804	n/a	n/a	-1	n/a	n/a	n/a	n/a	n/a
1074190	REC_WORD	wordpools/wasnorm_wordpool.txt	LTP139	ltpFR	5	7	-1	FRAME	600	n/a	n/a	-1	n/a	n/a	n/a	n/a	n/a
1074934	REC_WORD	wordpools/wasnorm_wordpool.txt	LTP139	ltpFR	5	7	-1	ALBUM	14	n/a	n/a	-1	n/a	n/a	n/a	n/a	n/a
1077718	REC_WORD	wordpools/wasnorm_wordpool.txt	LTP139	ltpFR	5	7	n/a	YARD	1630	n/a	n/a	n/a	n/a	n/a	n/a	n/a	n/a
1157701	WORD	wordpools/wasnorm_wordpool.txt	LTP139	ltpFR	5	8	-1	VEIN	1554	n/a	n/a	-1	1.0	1.0	1	upper	Verdana.ttf
1161630	WORD	wordpools/wasnorm_wordpool.txt	LTP139	ltpFR	5	8	-1	WORKER	1621	n/a	n/a	-1	1.0	1.0	1	upper	Verdana.ttf
1165650	WORD	wordpools/wasnorm_wordpool.txt	LTP139	ltpFR	5	8	-1	CARRIAGE	248	n/a	n/a	-1	1.0	1.0	1	upper	Verdana.ttf
1169480	WORD	wordpools/wasnorm_wordpool.txt	LTP139	ltpFR	5	8	-1	GLUE	643	n/a	n/a	-1	1.0	1.0	1	upper	Verdana.ttf
1173549	WORD	wordpools/wasnorm_wordpool.txt	LTP139	ltpFR	5	8	-1	GUM	672	n/a	n/a	-1	1.0	1.0	1	upper	Verdana.ttf
1177413	WORD	wordpools/wasnorm_wordpool.txt	LTP139	ltpFR	5	8	-1	BANK	83	n/a	n/a	-1	1.0	1.0	1	upper	Verdana.ttf
1181325	WORD	wordpools/wasnorm_wordpool.txt	LTP139	ltpFR	5	8	-1	SHOP	1290	n/a	n/a	-1	1.0	1.0	1	upper	Verdana.ttf
1185502	WORD	wordpools/wasnorm_wordpool.txt	LTP139	ltpFR	5	8	-1	DEPARTMENT	449	n/a	n/a	-1	1.0	1.0	1	upper	Verdana.ttf
1189589	WORD	wordpools/wasnorm_wordpool.txt	LTP139	ltpFR	5	8	-1	MANSION	864	n/a	n/a	-1	1.0	1.0	1	upper	Verdana.ttf
1193568	WORD	wordpools/wasnorm_wordpool.txt	LTP139	ltpFR	5	8	-1	BISON	131	n/a	n/a	-1	1.0	1.0	1	upper	Verdana.ttf
1197638	WORD	wordpools/wasnorm_wordpool.txt	LTP139	ltpFR	5	8	-1	SNACK	1331	n/a	n/a	-1	1.0	1.0	1	upper	Verdana.ttf
1201750	WORD	wordpools/wasnorm_wordpool.txt	LTP139	ltpFR	5	8	-1	DISHWASHER	475	n/a	n/a	-1	1.0	1.0	1	upper	Verdana.ttf
1205887	WORD	wordpools/wasnorm_wordpool.txt	LTP139	ltpFR	5	8	-1	DINOSAUR	469	n/a	n/a	-1	1.0	1.0	1	upper	Verdana.ttf
1209724	WORD	wordpools/wasnorm_wordpool.txt	LTP139	ltpFR	5	8	-1	BLUEPRINT	142	n/a	n/a	-1	1.0	1.0	1	upper	Verdana.ttf
1213603	WORD	wordpools/wasnorm_wordpool.txt	LTP139	ltpFR	5	8	-1	BUGGY	188	n/a	n/a	-1	1.0	1.0	1	upper	Verdana.ttf
1217615	WORD	wordpools/wasnorm_wordpool.txt	LTP139	ltpFR	5	8	-1	CONSOLE	364	n/a	n/a	-1	1.0	1.0	1	upper	Verdana.ttf
1223452	REC_START	n/a	LTP139	ltpFR	5	8	n/a	n/a	n/a	n/a	n/a	n/a	n/a	n/a	n/a	n/a	n/a
1224449	REC_WORD	wordpools/wasnorm_wordpool.txt	LTP139	ltpFR	5	8	-1	BLUEPRINT	142	n/a	n/a	-1	n/a	n/a	n/a	n/a	n/a
1225138	REC_WORD	wordpools/wasnorm_wordpool.txt	LTP139	ltpFR	5	8	-1	CONSOLE	364	n/a	n/a	-1	n/a	n/a	n/a	n/a	n/a
1226026	REC_WORD	wordpools/wasnorm_wordpool.txt	LTP139	ltpFR	5	8	-1	DINOSAUR	469	n/a	n/a	-1	n/a	n/a	n/a	n/a	n/a
1227034	REC_WORD	wordpools/wasnorm_wordpool.txt	LTP139	ltpFR	5	8	-1	BUGGY	188	n/a	n/a	-1	n/a	n/a	n/a	n/a	n/a
1227582	REC_WORD	wordpools/wasnorm_wordpool.txt	LTP139	ltpFR	5	8	-1	CARRIAGE	248	n/a	n/a	-1	n/a	n/a	n/a	n/a	n/a
1229433	REC_WORD	wordpools/wasnorm_wordpool.txt	LTP139	ltpFR	5	8	-1	WORKER	1621	n/a	n/a	-1	n/a	n/a	n/a	n/a	n/a
1230306	REC_WORD	wordpools/wasnorm_wordpool.txt	LTP139	ltpFR	5	8	-1	BANK	83	n/a	n/a	-1	n/a	n/a	n/a	n/a	n/a
1230720	REC_WORD	wordpools/wasnorm_wordpool.txt	LTP139	ltpFR	5	8	-1	SHOP	1290	n/a	n/a	-1	n/a	n/a	n/a	n/a	n/a
1234871	REC_WORD	wordpools/wasnorm_wordpool.txt	LTP139	ltpFR	5	8	-1	LINT	826	n/a	n/a	-1	n/a	n/a	n/a	n/a	n/a
1238612	REC_WORD	wordpools/wasnorm_wordpool.txt	LTP139	ltpFR	5	8	-1	VEIN	1554	n/a	n/a	-1	n/a	n/a	n/a	n/a	n/a
1239635	REC_WORD	wordpools/wasnorm_wordpool.txt	LTP139	ltpFR	5	8	-1	GUM	672	n/a	n/a	-1	n/a	n/a	n/a	n/a	n/a
1240149	REC_WORD	wordpools/wasnorm_wordpool.txt	LTP139	ltpFR	5	8	-1	GLUE	643	n/a	n/a	-1	n/a	n/a	n/a	n/a	n/a
1250720	REC_WORD	wordpools/wasnorm_wordpool.txt	LTP139	ltpFR	5	8	-1	BISON	131	n/a	n/a	-1	n/a	n/a	n/a	n/a	n/a
1251373	REC_WORD	wordpools/wasnorm_wordpool.txt	LTP139	ltpFR	5	8	-1	DISHWASHER	475	n/a	n/a	-1	n/a	n/a	n/a	n/a	n/a
1252037	REC_WORD	wordpools/wasnorm_wordpool.txt	LTP139	ltpFR	5	8	-1	SNACK	1331	n/a	n/a	-1	n/a	n/a	n/a	n/a	n/a
1269706	REC_WORD	wordpools/wasnorm_wordpool.txt	LTP139	ltpFR	5	8	-1	MANSION	864	n/a	n/a	-1	n/a	n/a	n/a	n/a	n/a
1282437	REC_WORD	wordpools/wasnorm_wordpool.txt	LTP139	ltpFR	5	8	-1	DEPARTMENT	449	n/a	n/a	-1	n/a	n/a	n/a	n/a	n/a
1314886	WORD	wordpools/wasnorm_wordpool.txt	LTP139	ltpFR	5	9	-1	RADISH	1158	n/a	n/a	-1	1.0	1.0	1	upper	Verdana.ttf
1318964	WORD	wordpools/wasnorm_wordpool.txt	LTP139	ltpFR	5	9	-1	CELERY	266	n/a	n/a	-1	1.0	1.0	1	upper	Verdana.ttf
1322877	WORD	wordpools/wasnorm_wordpool.txt	LTP139	ltpFR	5	9	-1	STAR	1373	n/a	n/a	-1	1.0	1.0	1	upper	Verdana.ttf
1326897	WORD	wordpools/wasnorm_wordpool.txt	LTP139	ltpFR	5	9	-1	CINNAMON	310	n/a	n/a	-1	1.0	1.0	1	upper	Verdana.ttf
1331017	WORD	wordpools/wasnorm_wordpool.txt	LTP139	ltpFR	5	9	-1	JUNGLE	764	n/a	n/a	-1	1.0	1.0	1	upper	Verdana.ttf
1335137	WORD	wordpools/wasnorm_wordpool.txt	LTP139	ltpFR	5	9	-1	CHIMPANZEE	302	n/a	n/a	-1	1.0	1.0	1	upper	Verdana.ttf
1339033	WORD	wordpools/wasnorm_wordpool.txt	LTP139	ltpFR	5	9	-1	SHELTER	1282	n/a	n/a	-1	1.0	1.0	1	upper	Verdana.ttf
1343103	WORD	wordpools/wasnorm_wordpool.txt	LTP139	ltpFR	5	9	-1	SHED	1277	n/a	n/a	-1	1.0	1.0	1	upper	Verdana.ttf
1347283	WORD	wordpools/wasnorm_wordpool.txt	LTP139	ltpFR	5	9	-1	PLASTER	1085	n/a	n/a	-1	1.0	1.0	1	upper	Verdana.ttf
1351436	WORD	wordpools/wasnorm_wordpool.txt	LTP139	ltpFR	5	9	-1	SUPERMARKET	1409	n/a	n/a	-1	1.0	1.0	1	upper	Verdana.ttf
1355398	WORD	wordpools/wasnorm_wordpool.txt	LTP139	ltpFR	5	9	-1	PLATE	1086	n/a	n/a	-1	1.0	1.0	1	upper	Verdana.ttf
1359285	WORD	wordpools/wasnorm_wordpool.txt	LTP139	ltpFR	5	9	-1	KNOB	787	n/a	n/a	-1	1.0	1.0	1	upper	Verdana.ttf
1363364	WORD	wordpools/wasnorm_wordpool.txt	LTP139	ltpFR	5	9	-1	GROCERY	664	n/a	n/a	-1	1.0	1.0	1	upper	Verdana.ttf
1367517	WORD	wordpools/wasnorm_wordpool.txt	LTP139	ltpFR	5	9	-1	WALL	1582	n/a	n/a	-1	1.0	1.0	1	upper	Verdana.ttf
1371645	WORD	wordpools/wasnorm_wordpool.txt	LTP139	ltpFR	5	9	-1	PLANE	1081	n/a	n/a	-1	1.0	1.0	1	upper	Verdana.ttf
1375740	WORD	wordpools/wasnorm_wordpool.txt	LTP139	ltpFR	5	9	-1	ZUCCHINI	1638	n/a	n/a	-1	1.0	1.0	1	upper	Verdana.ttf
1381592	REC_START	n/a	LTP139	ltpFR	5	9	n/a	n/a	n/a	n/a	n/a	n/a	n/a	n/a	n/a	n/a	n/a
1382335	REC_WORD	wordpools/wasnorm_wordpool.txt	LTP139	ltpFR	5	9	-1	ZUCCHINI	1638	n/a	n/a	-1	n/a	n/a	n/a	n/a	n/a
1383193	REC_WORD	wordpools/wasnorm_wordpool.txt	LTP139	ltpFR	5	9	-1	CELERY	266	n/a	n/a	-1	n/a	n/a	n/a	n/a	n/a
1384216	REC_WORD	wordpools/wasnorm_wordpool.txt	LTP139	ltpFR	5	9	-1	RADISH	1158	n/a	n/a	-1	n/a	n/a	n/a	n/a	n/a
1385159	REC_WORD	wordpools/wasnorm_wordpool.txt	LTP139	ltpFR	5	9	-1	CHIMPANZEE	302	n/a	n/a	-1	n/a	n/a	n/a	n/a	n/a
1386460	REC_WORD	wordpools/wasnorm_wordpool.txt	LTP139	ltpFR	5	9	-1	JUNGLE	764	n/a	n/a	-1	n/a	n/a	n/a	n/a	n/a
1387089	REC_WORD	wordpools/wasnorm_wordpool.txt	LTP139	ltpFR	5	9	-1	SHELTER	1282	n/a	n/a	-1	n/a	n/a	n/a	n/a	n/a
1388117	REC_WORD	wordpools/wasnorm_wordpool.txt	LTP139	ltpFR	5	9	-1	SHED	1277	n/a	n/a	-1	n/a	n/a	n/a	n/a	n/a
1388731	REC_WORD	wordpools/wasnorm_wordpool.txt	LTP139	ltpFR	5	9	-1	SUPERMARKET	1409	n/a	n/a	-1	n/a	n/a	n/a	n/a	n/a
1389678	REC_WORD	wordpools/wasnorm_wordpool.txt	LTP139	ltpFR	5	9	-1	GROCERY	664	n/a	n/a	-1	n/a	n/a	n/a	n/a	n/a
1391125	REC_WORD	wordpools/wasnorm_wordpool.txt	LTP139	ltpFR	5	9	-1	WALL	1582	n/a	n/a	-1	n/a	n/a	n/a	n/a	n/a
1391724	REC_WORD	wordpools/wasnorm_wordpool.txt	LTP139	ltpFR	5	9	-1	PLASTER	1085	n/a	n/a	-1	n/a	n/a	n/a	n/a	n/a
1392507	REC_WORD	wordpools/wasnorm_wordpool.txt	LTP139	ltpFR	5	9	-1	PLATE	1086	n/a	n/a	-1	n/a	n/a	n/a	n/a	n/a
1393185	REC_WORD	wordpools/wasnorm_wordpool.txt	LTP139	ltpFR	5	9	-1	KNOB	787	n/a	n/a	-1	n/a	n/a	n/a	n/a	n/a
1405243	REC_WORD	wordpools/wasnorm_wordpool.txt	LTP139	ltpFR	5	9	-1	CINNAMON	310	n/a	n/a	-1	n/a	n/a	n/a	n/a	n/a
1476016	WORD	wordpools/wasnorm_wordpool.txt	LTP139	ltpFR	5	10	0	FUGITIVE	612	n/a	n/a	1	0.57763671875	0.412841796875	1	lower	amplitud.ttf
1480061	WORD	wordpools/wasnorm_wordpool.txt	LTP139	ltpFR	5	10	0	CHAIN	273	n/a	n/a	0	0.57763671875	0.412841796875	1	lower	amplitud.ttf
1484123	WORD	wordpools/wasnorm_wordpool.txt	LTP139	ltpFR	5	10	0	FAUCET	555	n/a	n/a	1	0.57763671875	0.412841796875	1	lower	amplitud.ttf
1487960	WORD	wordpools/wasnorm_wordpool.txt	LTP139	ltpFR	5	10	1	ELECTRON	522	n/a	n/a	0	0.422607421875	0.5869140625	0	upper	zerothre.ttf
1492039	WORD	wordpools/wasnorm_wordpool.txt	LTP139	ltpFR	5	10	1	TOOTHPASTE	1483	n/a	n/a	0	0.422607421875	0.5869140625	0	upper	zerothre.ttf
1496142	WORD	wordpools/wasnorm_wordpool.txt	LTP139	ltpFR	5	10	0	BRUSH	182	n/a	n/a	0	0.57763671875	0.412841796875	1	lower	amplitud.ttf
1500272	WORD	wordpools/wasnorm_wordpool.txt	LTP139	ltpFR	5	10	0	RACKET	1155	n/a	n/a	1	0.57763671875	0.412841796875	1	lower	amplitud.ttf
1504142	WORD	wordpools/wasnorm_wordpool.txt	LTP139	ltpFR	5	10	1	SOFTBALL	1343	n/a	n/a	0	0.422607421875	0.5869140625	0	upper	zerothre.ttf
1508154	WORD	wordpools/wasnorm_wordpool.txt	LTP139	ltpFR	5	10	1	OTTER	986	n/a	n/a	1	0.422607421875	0.5869140625	0	upper	zerothre.ttf
1512316	WORD	wordpools/wasnorm_wordpool.txt	LTP139	ltpFR	5	10	1	BUFFALO	186	n/a	n/a	1	0.422607421875	0.5869140625	0	upper	zerothre.ttf
1516220	WORD	wordpools/wasnorm_wordpool.txt	LTP139	ltpFR	5	10	1	GHETTO	633	n/a	n/a	0	0.422607421875	0.5869140625	0	upper	zerothre.ttf
1520191	WORD	wordpools/wasnorm_wordpool.txt	LTP139	ltpFR	5	10	1	BASEMENT	94	n/a	n/a	0	0.422607421875	0.5869140625	0	upper	zerothre.ttf
1524311	WORD	wordpools/wasnorm_wordpool.txt	LTP139	ltpFR	5	10	1	DRAGON	492	n/a	n/a	1	0.422607421875	0.5869140625	0	upper	zerothre.ttf
1528456	WORD	wordpools/wasnorm_wordpool.txt	LTP139	ltpFR	5	10	0	SWAMP	1416	n/a	n/a	1	0.57763671875	0.412841796875	1	lower	amplitud.ttf
1532525	WORD	wordpools/wasnorm_wordpool.txt	LTP139	ltpFR	5	10	0	TOASTER	1472	n/a	n/a	0	0.57763671875	0.412841796875	1	lower	amplitud.ttf
1536662	WORD	wordpools/wasnorm_wordpool.txt	LTP139	ltpFR	5	10	0	PROTON	1132	n/a	n/a	0	0.57763671875	0.412841796875	1	lower	amplitud.ttf
1542539	REC_START	n/a	LTP139	ltpFR	5	10	n/a	n/a	n/a	n/a	n/a	n/a	n/a	n/a	n/a	n/a	n/a
1543402	REC_WORD	wordpools/wasnorm_wordpool.txt	LTP139	ltpFR	5	10	0	PROTON	1132	n/a	n/a	0	n/a	n/a	n/a	n/a	n/a
1544164	REC_WORD	wordpools/wasnorm_wordpool.txt	LTP139	ltpFR	5	10	1	ELECTRON	522	n/a	n/a	0	n/a	n/a	n/a	n/a	n/a
1545203	REC_WORD	wordpools/wasnorm_wordpool.txt	LTP139	ltpFR	5	10	0	SWAMP	1416	n/a	n/a	1	n/a	n/a	n/a	n/a	n/a
1546530	REC_WORD	wordpools/wasnorm_wordpool.txt	LTP139	ltpFR	5	10	0	TOASTER	1472	n/a	n/a	0	n/a	n/a	n/a	n/a	n/a
1549318	REC_WORD	wordpools/wasnorm_wordpool.txt	LTP139	ltpFR	5	10	0	RACKET	1155	n/a	n/a	1	n/a	n/a	n/a	n/a	n/a
1550255	REC_WORD	wordpools/wasnorm_wordpool.txt	LTP139	ltpFR	5	10	1	TOOTHPASTE	1483	n/a	n/a	0	n/a	n/a	n/a	n/a	n/a
1551399	REC_WORD	wordpools/wasnorm_wordpool.txt	LTP139	ltpFR	5	10	0	BRUSH	182	n/a	n/a	0	n/a	n/a	n/a	n/a	n/a
1552042	REC_WORD	wordpools/wasnorm_wordpool.txt	LTP139	ltpFR	5	10	0	FAUCET	555	n/a	n/a	1	n/a	n/a	n/a	n/a	n/a
1576561	REC_WORD	wordpools/wasnorm_wordpool.txt	LTP139	ltpFR	5	10	0	FUGITIVE	612	n/a	n/a	1	n/a	n/a	n/a	n/a	n/a
1617503	REC_WORD_VV	wordpools/wasnorm_wordpool.txt	LTP139	ltpFR	5	10	n/a	<>	-1	n/a	n/a	n/a	n/a	n/a	n/a	n/a	n/a
1640343	WORD	wordpools/wasnorm_wordpool.txt	LTP139	ltpFR	5	11	0	UNDERWEAR	1537	n/a	n/a	0	0.57763671875	0.412841796875	1	lower	amplitud.ttf
1644239	WORD	wordpools/wasnorm_wordpool.txt	LTP139	ltpFR	5	11	0	HEDGE	699	n/a	n/a	1	0.57763671875	0.412841796875	1	lower	amplitud.ttf
1648417	WORD	wordpools/wasnorm_wordpool.txt	LTP139	ltpFR	5	11	0	SALESMAN	1225	n/a	n/a	1	0.57763671875	0.412841796875	1	lower	amplitud.ttf
1652520	WORD	wordpools/wasnorm_wordpool.txt	LTP139	ltpFR	5	11	0	ENGINE	535	n/a	n/a	1	0.57763671875	0.412841796875	1	lower	amplitud.ttf
1656557	WORD	wordpools/wasnorm_wordpool.txt	LTP139	ltpFR	5	11	0	GLOVE	642	n/a	n/a	0	0.57763671875	0.412841796875	1	lower	amplitud.ttf
1660760	WORD	wordpools/wasnorm_wordpool.txt	LTP139	ltpFR	5	11	0	TURKEY	1520	n/a	n/a	1	0.57763671875	0.412841796875	1	lower	amplitud.ttf
1664897	WORD	wordpools/wasnorm_wordpool.txt	LTP139	ltpFR	5	11	0	SHELL	1281	n/a	n/a	0	0.57763671875	0.412841796875	1	lower	amplitud.ttf
1668817	WORD	wordpools/wasnorm_wordpool.txt	LTP139	ltpFR	5	11	0	CLAM	315	n/a	n/a	0	0.57763671875	0.412841796875	1	lower	amplitud.ttf
1672763	WORD	wordpools/wasnorm_wordpool.txt	LTP139	ltpFR	5	11	0	RUNNER	1218	n/a	n/a	1	0.57763671875	0.412841796875	1	lower	amplitud.ttf
1676750	WORD	wordpools/wasnorm_wordpool.txt	LTP139	ltpFR	5	11	0	CLOTHES	327	n/a	n/a	0	0.57763671875	0.412841796875	1	lower	amplitud.ttf
1680720	WORD	wordpools/wasnorm_wordpool.txt	LTP139	ltpFR	5	11	0	VEHICLE	1553	n/a	n/a	1	0.57763671875	0.412841796875	1	lower	amplitud.ttf
1684907	WORD	wordpools/wasnorm_wordpool.txt	LTP139	ltpFR	5	11	0	BUNNY	198	n/a	n/a	0	0.57763671875	0.412841796875	1	lower	amplitud.ttf
1688811	WORD	wordpools/wasnorm_wordpool.txt	LTP139	ltpFR	5	11	0	POTATO	1115	n/a	n/a	0	0.57763671875	0.412841796875	1	lower	amplitud.ttf
1692706	WORD	wordpools/wasnorm_wordpool.txt	LTP139	ltpFR	5	11	0	FRIES	607	n/a	n/a	0	0.57763671875	0.412841796875	1	lower	amplitud.ttf
1696644	WORD	wordpools/wasnorm_wordpool.txt	LTP139	ltpFR	5	11	0	CONE	363	n/a	n/a	0	0.57763671875	0.412841796875	1	lower	amplitud.ttf
1700564	WORD	wordpools/wasnorm_wordpool.txt	LTP139	ltpFR	5	11	0	BANDANNA	80	n/a	n/a	0	0.57763671875	0.412841796875	1	lower	amplitud.ttf
1706524	REC_START	n/a	LTP139	ltpFR	5	11	n/a	n/a	n/a	n/a	n/a	n/a	n/a	n/a	n/a	n/a	n/a
1707417	REC_WORD	wordpools/wasnorm_wordpool.txt	LTP139	ltpFR	5	11	0	BUNNY	198	n/a	n/a	0	n/a	n/a	n/a	n/a	n/a
1707836	REC_WORD	wordpools/wasnorm_wordpool.txt	LTP139	ltpFR	5	11	0	POTATO	1115	n/a	n/a	0	n/a	n/a	n/a	n/a	n/a
1708434	REC_WORD	wordpools/wasnorm_wordpool.txt	LTP139	ltpFR	5	11	0	FRIES	607	n/a	n/a	0	n/a	n/a	n/a	n/a	n/a
1709242	REC_WORD	wordpools/wasnorm_wordpool.txt	LTP139	ltpFR	5	11	n/a	COMB	351	n/a	n/a	n/a	n/a	n/a	n/a	n/a	n/a
1709851	REC_WORD	wordpools/wasnorm_wordpool.txt	LTP139	ltpFR	5	11	0	BANDANNA	80	n/a	n/a	0	n/a	n/a	n/a	n/a	n/a
1712236	REC_WORD	wordpools/wasnorm_wordpool.txt	LTP139	ltpFR	5	11	0	CONE	363	n/a	n/a	0	n/a	n/a	n/a	n/a	n/a
1715089	REC_WORD	wordpools/wasnorm_wordpool.txt	LTP139	ltpFR	5	11	0	SHELL	1281	n/a	n/a	0	n/a	n/a	n/a	n/a	n/a
1715847	REC_WORD	wordpools/wasnorm_wordpool.txt	LTP139	ltpFR	5	11	0	CLAM	315	n/a	n/a	0	n/a	n/a	n/a	n/a	n/a
1718187	REC_WORD	wordpools/wasnorm_wordpool.txt	LTP139	ltpFR	5	11	0	TURKEY	1520	n/a	n/a	1	n/a	n/a	n/a	n/a	n/a
1721759	REC_WORD	wordpools/wasnorm_wordpool.txt	LTP139	ltpFR	5	11	0	RUNNER	1218	n/a	n/a	1	n/a	n/a	n/a	n/a	n/a
1722841	REC_WORD	wordpools/wasnorm_wordpool.txt	LTP139	ltpFR	5	11	0	SALESMAN	1225	n/a	n/a	1	n/a	n/a	n/a	n/a	n/a
1723884	REC_WORD	wordpools/wasnorm_wordpool.txt	LTP139	ltpFR	5	11	0	GLOVE	642	n/a	n/a	0	n/a	n/a	n/a	n/a	n/a
1724663	REC_WORD	wordpools/wasnorm_wordpool.txt	LTP139	ltpFR	5	11	0	UNDERWEAR	1537	n/a	n/a	0	n/a	n/a	n/a	n/a	n/a
1725391	REC_WORD	wordpools/wasnorm_wordpool.txt	LTP139	ltpFR	5	11	0	CLOTHES	327	n/a	n/a	0	n/a	n/a	n/a	n/a	n/a
1729072	REC_WORD	wordpools/wasnorm_wordpool.txt	LTP139	ltpFR	5	11	0	VEHICLE	1553	n/a	n/a	1	n/a	n/a	n/a	n/a	n/a
1730360	REC_WORD	wordpools/wasnorm_wordpool.txt	LTP139	ltpFR	5	11	0	ENGINE	535	n/a	n/a	1	n/a	n/a	n/a	n/a	n/a
1799168	WORD	wordpools/wasnorm_wordpool.txt	LTP139	ltpFR	5	12	-1	PAN	1008	n/a	n/a	-1	1.0	1.0	1	upper	Verdana.ttf
1803045	WORD	wordpools/wasnorm_wordpool.txt	LTP139	ltpFR	5	12	-1	STUDENT	1395	n/a	n/a	-1	1.0	1.0	1	upper	Verdana.ttf
1807208	WORD	wordpools/wasnorm_wordpool.txt	LTP139	ltpFR	5	12	-1	REFRIGERATOR	1179	n/a	n/a	-1	1.0	1.0	1	upper	Verdana.ttf
1811187	WORD	wordpools/wasnorm_wordpool.txt	LTP139	ltpFR	5	12	-1	TAVERN	1437	n/a	n/a	-1	1.0	1.0	1	upper	Verdana.ttf
1815315	WORD	wordpools/wasnorm_wordpool.txt	LTP139	ltpFR	5	12	-1	SNORKEL	1336	n/a	n/a	-1	1.0	1.0	1	upper	Verdana.ttf
1819477	WORD	wordpools/wasnorm_wordpool.txt	LTP139	ltpFR	5	12	-1	COD	340	n/a	n/a	-1	1.0	1.0	1	upper	Verdana.ttf
1823571	WORD	wordpools/wasnorm_wordpool.txt	LTP139	ltpFR	5	12	-1	FREEWAY	603	n/a	n/a	-1	1.0	1.0	1	upper	Verdana.ttf
1827667	WORD	wordpools/wasnorm_wordpool.txt	LTP139	ltpFR	5	12	-1	BLACKBERRY	132	n/a	n/a	-1	1.0	1.0	1	upper	Verdana.ttf
1831504	WORD	wordpools/wasnorm_wordpool.txt	LTP139	ltpFR	5	12	-1	FIDDLE	561	n/a	n/a	-1	1.0	1.0	1	upper	Verdana.ttf
1835508	WORD	wordpools/wasnorm_wordpool.txt	LTP139	ltpFR	5	12	-1	DRUM	502	n/a	n/a	-1	1.0	1.0	1	upper	Verdana.ttf
1839495	WORD	wordpools/wasnorm_wordpool.txt	LTP139	ltpFR	5	12	-1	BUGLE	189	n/a	n/a	-1	1.0	1.0	1	upper	Verdana.ttf
1843341	WORD	wordpools/wasnorm_wordpool.txt	LTP139	ltpFR	5	12	-1	BAND	78	n/a	n/a	-1	1.0	1.0	1	upper	Verdana.ttf
1847220	WORD	wordpools/wasnorm_wordpool.txt	LTP139	ltpFR	5	12	-1	POT	1114	n/a	n/a	-1	1.0	1.0	1	upper	Verdana.ttf
1851232	WORD	wordpools/wasnorm_wordpool.txt	LTP139	ltpFR	5	12	-1	COACH	331	n/a	n/a	-1	1.0	1.0	1	upper	Verdana.ttf
1855252	WORD	wordpools/wasnorm_wordpool.txt	LTP139	ltpFR	5	12	-1	SCARF	1246	n/a	n/a	-1	1.0	1.0	1	upper	Verdana.ttf
1859130	WORD	wordpools/wasnorm_wordpool.txt	LTP139	ltpFR	5	12	-1	STREET	1393	n/a	n/a	-1	1.0	1.0	1	upper	Verdana.ttf
1865032	REC_START	n/a	LTP139	ltpFR	5	12	n/a	n/a	n/a	n/a	n/a	n/a	n/a	n/a	n/a	n/a	n/a
1865960	REC_WORD	wordpools/wasnorm_wordpool.txt	LTP139	ltpFR	5	12	-1	STREET	1393	n/a	n/a	-1	n/a	n/a	n/a	n/a	n/a
1866827	REC_WORD	wordpools/wasnorm_wordpool.txt	LTP139	ltpFR	5	12	-1	FREEWAY	603	n/a	n/a	-1	n/a	n/a	n/a	n/a	n/a
1867850	REC_WORD	wordpools/wasnorm_wordpool.txt	LTP139	ltpFR	5	12	-1	COD	340	n/a	n/a	-1	n/a	n/a	n/a	n/a	n/a
1868404	REC_WORD	wordpools/wasnorm_wordpool.txt	LTP139	ltpFR	5	12	-1	SNORKEL	1336	n/a	n/a	-1	n/a	n/a	n/a	n/a	n/a
1869790	REC_WORD	wordpools/wasnorm_wordpool.txt	LTP139	ltpFR	5	12	-1	FIDDLE	561	n/a	n/a	-1	n/a	n/a	n/a	n/a	n/a
1870659	REC_WORD	wordpools/wasnorm_wordpool.txt	LTP139	ltpFR	5	12	-1	DRUM	502	n/a	n/a	-1	n/a	n/a	n/a	n/a	n/a
1875328	REC_WORD	wordpools/wasnorm_wordpool.txt	LTP139	ltpFR	5	12	-1	BAND	78	n/a	n/a	-1	n/a	n/a	n/a	n/a	n/a
1877179	REC_WORD	wordpools/wasnorm_wordpool.txt	LTP139	ltpFR	5	12	-1	STUDENT	1395	n/a	n/a	-1	n/a	n/a	n/a	n/a	n/a
1878242	REC_WORD	wordpools/wasnorm_wordpool.txt	LTP139	ltpFR	5	12	-1	COACH	331	n/a	n/a	-1	n/a	n/a	n/a	n/a	n/a
1879045	REC_WORD	wordpools/wasnorm_wordpool.txt	LTP139	ltpFR	5	12	-1	POT	1114	n/a	n/a	-1	n/a	n/a	n/a	n/a	n/a
1879448	REC_WORD	wordpools/wasnorm_wordpool.txt	LTP139	ltpFR	5	12	-1	PAN	1008	n/a	n/a	-1	n/a	n/a	n/a	n/a	n/a
1880656	REC_WORD	wordpools/wasnorm_wordpool.txt	LTP139	ltpFR	5	12	-1	TAVERN	1437	n/a	n/a	-1	n/a	n/a	n/a	n/a	n/a
1881479	REC_WORD	wordpools/wasnorm_wordpool.txt	LTP139	ltpFR	5	12	-1	REFRIGERATOR	1179	n/a	n/a	-1	n/a	n/a	n/a	n/a	n/a
1892273	REC_WORD	wordpools/wasnorm_wordpool.txt	LTP139	ltpFR	5	12	-1	BUGLE	189	n/a	n/a	-1	n/a	n/a	n/a	n/a	n/a
1940619	REST_REWET	n/a	LTP139	ltpFR	5	12	n/a	n/a	n/a	n/a	n/a	n/a	n/a	n/a	n/a	n/a	n/a
2266260	WORD	wordpools/wasnorm_wordpool.txt	LTP139	ltpFR	5	13	1	TRAY	1498	n/a	n/a	0	0.422607421875	0.5869140625	0	upper	zerothre.ttf
2270113	WORD	wordpools/wasnorm_wordpool.txt	LTP139	ltpFR	5	13	1	ORANGE	980	n/a	n/a	1	0.422607421875	0.5869140625	0	upper	zerothre.ttf
2274259	WORD	wordpools/wasnorm_wordpool.txt	LTP139	ltpFR	5	13	0	PICNIC	1060	n/a	n/a	1	0.57763671875	0.412841796875	1	lower	amplitud.ttf
2278346	WORD	wordpools/wasnorm_wordpool.txt	LTP139	ltpFR	5	13	0	SERVER	1272	n/a	n/a	1	0.57763671875	0.412841796875	1	lower	amplitud.ttf
2282424	WORD	wordpools/wasnorm_wordpool.txt	LTP139	ltpFR	5	13	0	BARK	87	n/a	n/a	0	0.57763671875	0.412841796875	1	lower	amplitud.ttf
2286320	WORD	wordpools/wasnorm_wordpool.txt	LTP139	ltpFR	5	13	0	PARTNER	1017	n/a	n/a	1	0.57763671875	0.412841796875	1	lower	amplitud.ttf
2290274	WORD	wordpools/wasnorm_wordpool.txt	LTP139	ltpFR	5	13	1	FRIEND	606	n/a	n/a	1	0.422607421875	0.5869140625	0	upper	zerothre.ttf
2294244	WORD	wordpools/wasnorm_wordpool.txt	LTP139	ltpFR	5	13	1	SKUNK	1321	n/a	n/a	1	0.422607421875	0.5869140625	0	upper	zerothre.ttf
2298256	WORD	wordpools/wasnorm_wordpool.txt	LTP139	ltpFR	5	13	1	SCREEN	1253	n/a	n/a	0	0.422607421875	0.5869140625	0	upper	zerothre.ttf
2302343	WORD	wordpools/wasnorm_wordpool.txt	LTP139	ltpFR	5	13	1	CITRUS	313	n/a	n/a	1	0.422607421875	0.5869140625	0	upper	zerothre.ttf
2306255	WORD	wordpools/wasnorm_wordpool.txt	LTP139	ltpFR	5	13	1	FORK	594	n/a	n/a	0	0.422607421875	0.5869140625	0	upper	zerothre.ttf
2310242	WORD	wordpools/wasnorm_wordpool.txt	LTP139	ltpFR	5	13	1	TICK	1463	n/a	n/a	1	0.422607421875	0.5869140625	0	upper	zerothre.ttf
2314421	WORD	wordpools/wasnorm_wordpool.txt	LTP139	ltpFR	5	13	0	SADDLE	1221	n/a	n/a	1	0.57763671875	0.412841796875	1	lower	amplitud.ttf
2318458	WORD	wordpools/wasnorm_wordpool.txt	LTP139	ltpFR	5	13	0	SUGAR	1401	n/a	n/a	0	0.57763671875	0.412841796875	1	lower	amplitud.ttf
2322527	WORD	wordpools/wasnorm_wordpool.txt	LTP139	ltpFR	5	13	0	SPRINKLE	1359	n/a	n/a	0	0.57763671875	0.412841796875	1	lower	amplitud.ttf
2326589	WORD	wordpools/wasnorm_wordpool.txt	LTP139	ltpFR	5	13	0	FLEA	577	n/a	n/a	0	0.57763671875	0.412841796875	1	lower	amplitud.ttf
2332475	REC_START	n/a	LTP139	ltpFR	5	13	n/a	n/a	n/a	n/a	n/a	n/a	n/a	n/a	n/a	n/a	n/a
2333208	REC_WORD	wordpools/wasnorm_wordpool.txt	LTP139	ltpFR	5	13	0	SADDLE	1221	n/a	n/a	1	n/a	n/a	n/a	n/a	n/a
2333742	REC_WORD	wordpools/wasnorm_wordpool.txt	LTP139	ltpFR	5	13	0	SUGAR	1401	n/a	n/a	0	n/a	n/a	n/a	n/a	n/a
2334365	REC_WORD	wordpools/wasnorm_wordpool.txt	LTP139	ltpFR	5	13	0	SPRINKLE	1359	n/a	n/a	0	n/a	n/a	n/a	n/a	n/a
2335273	REC_WORD	wordpools/wasnorm_wordpool.txt	LTP139	ltpFR	5	13	1	TICK	1463	n/a	n/a	1	n/a	n/a	n/a	n/a	n/a
2335947	REC_WORD	wordpools/wasnorm_wordpool.txt	LTP139	ltpFR	5	13	n/a	TEA	1439	n/a	n/a	n/a	n/a	n/a	n/a	n/a	n/a
2336775	REC_WORD	wordpools/wasnorm_wordpool.txt	LTP139	ltpFR	5	13	0	PARTNER	1017	n/a	n/a	1	n/a	n/a	n/a	n/a	n/a
2337328	REC_WORD	wordpools/wasnorm_wordpool.txt	LTP139	ltpFR	5	13	0	SERVER	1272	n/a	n/a	1	n/a	n/a	n/a	n/a	n/a
2338291	REC_WORD	wordpools/wasnorm_wordpool.txt	LTP139	ltpFR	5	13	1	FRIEND	606	n/a	n/a	1	n/a	n/a	n/a	n/a	n/a
2340023	REC_WORD	wordpools/wasnorm_wordpool.txt	LTP139	ltpFR	5	13	0	PICNIC	1060	n/a	n/a	1	n/a	n/a	n/a	n/a	n/a
2340931	REC_WORD	wordpools/wasnorm_wordpool.txt	LTP139	ltpFR	5	13	1	TRAY	1498	n/a	n/a	0	n/a	n/a	n/a	n/a	n/a
2342023	REC_WORD	wordpools/wasnorm_wordpool.txt	LTP139	ltpFR	5	13	0	BARK	87	n/a	n/a	0	n/a	n/a	n/a	n/a	n/a
2343659	REC_WORD	wordpools/wasnorm_wordpool.txt	LTP139	ltpFR	5	13	1	ORANGE	980	n/a	n/a	1	n/a	n/a	n/a	n/a	n/a
2344383	REC_WORD	wordpools/wasnorm_wordpool.txt	LTP139	ltpFR	5	13	1	CITRUS	313	n/a	n/a	1	n/a	n/a	n/a	n/a	n/a
2359259	REC_WORD	wordpools/wasnorm_wordpool.txt	LTP139	ltpFR	5	13	0	SUGAR	1401	n/a	n/a	0	n/a	n/a	n/a	n/a	n/a
2366153	REC_WORD	wordpools/wasnorm_wordpool.txt	LTP139	ltpFR	5	13	0	SADDLE	1221	n/a	n/a	1	n/a	n/a	n/a	n/a	n/a
2422287	WORD	wordpools/wasnorm_wordpool.txt	LTP139	ltpFR	5	14	1	CHAUFFEUR	283	n/a	n/a	1	0.422607421875	0.5869140625	0	upper	zerothre.ttf
2426399	WORD	wordpools/wasnorm_wordpool.txt	LTP139	ltpFR	5	14	1	PISTON	1076	n/a	n/a	0	0.422607421875	0.5869140625	0	upper	zerothre.ttf
2430568	WORD	wordpools/wasnorm_wordpool.txt	LTP139	ltpFR	5	14	1	MINER	896	n/a	n/a	1	0.422607421875	0.5869140625	0	upper	zerothre.ttf
2434614	WORD	wordpools/wasnorm_wordpool.txt	LTP139	ltpFR	5	14	0	AFRICA	9	n/a	n/a	1	0.57763671875	0.412841796875	1	lower	amplitud.ttf
2438817	WORD	wordpools/wasnorm_wordpool.txt	LTP139	ltpFR	5	14	0	CHEF	290	n/a	n/a	1	0.57763671875	0.412841796875	1	lower	amplitud.ttf
2442663	WORD	wordpools/wasnorm_wordpool.txt	LTP139	ltpFR	5	14	0	GENERAL	630	n/a	n/a	1	0.57763671875	0.412841796875	1	lower	amplitud.ttf
2446658	WORD	wordpools/wasnorm_wordpool.txt	LTP139	ltpFR	5	14	0	SQUID	1361	n/a	n/a	1	0.57763671875	0.412841796875	1	lower	amplitud.ttf
2450545	WORD	wordpools/wasnorm_wordpool.txt	LTP139	ltpFR	5	14	0	MOAT	903	n/a	n/a	1	0.57763671875	0.412841796875	1	lower	amplitud.ttf
2454574	WORD	wordpools/wasnorm_wordpool.txt	LTP139	ltpFR	5	14	1	KETTLE	772	n/a	n/a	0	0.422607421875	0.5869140625	0	upper	zerothre.ttf
2458487	WORD	wordpools/wasnorm_wordpool.txt	LTP139	ltpFR	5	14	1	SCALLOP	1242	n/a	n/a	1	0.422607421875	0.5869140625	0	upper	zerothre.ttf
2462374	WORD	wordpools/wasnorm_wordpool.txt	LTP139	ltpFR	5	14	0	FILM	565	n/a	n/a	0	0.57763671875	0.412841796875	1	lower	amplitud.ttf
2466195	WORD	wordpools/wasnorm_wordpool.txt	LTP139	ltpFR	5	14	0	COCOON	339	n/a	n/a	0	0.57763671875	0.412841796875	1	lower	amplitud.ttf
2470039	WORD	wordpools/wasnorm_wordpool.txt	LTP139	ltpFR	5	14	0	MILITARY	894	n/a	n/a	1	0.57763671875	0.412841796875	1	lower	amplitud.ttf
2474068	WORD	wordpools/wasnorm_wordpool.txt	LTP139	ltpFR	5	14	1	BRIDE	173	n/a	n/a	1	0.422607421875	0.5869140625	0	upper	zerothre.ttf
2478214	WORD	wordpools/wasnorm_wordpool.txt	LTP139	ltpFR	5	14	1	PEN	1041	n/a	n/a	0	0.422607421875	0.5869140625	0	upper	zerothre.ttf
2482168	WORD	wordpools/wasnorm_wordpool.txt	LTP139	ltpFR	5	14	1	PARTY	1018	n/a	n/a	0	0.422607421875	0.5869140625	0	upper	zerothre.ttf
2488162	REC_START	n/a	LTP139	ltpFR	5	14	n/a	n/a	n/a	n/a	n/a	n/a	n/a	n/a	n/a	n/a	n/a
2488805	REC_WORD	wordpools/wasnorm_wordpool.txt	LTP139	ltpFR	5	14	0	MILITARY	894	n/a	n/a	1	n/a	n/a	n/a	n/a	n/a
2489584	REC_WORD	wordpools/wasnorm_wordpool.txt	LTP139	ltpFR	5	14	0	GENERAL	630	n/a	n/a	1	n/a	n/a	n/a	n/a	n/a
2490342	REC_WORD	wordpools/wasnorm_wordpool.txt	LTP139	ltpFR	5	14	1	BRIDE	173	n/a	n/a	1	n/a	n/a	n/a	n/a	n/a
2490831	REC_WORD	wordpools/wasnorm_wordpool.txt	LTP139	ltpFR	5	14	1	PEN	1041	n/a	n/a	0	n/a	n/a	n/a	n/a	n/a
2491255	REC_WORD	wordpools/wasnorm_wordpool.txt	LTP139	ltpFR	5	14	1	PARTY	1018	n/a	n/a	0	n/a	n/a	n/a	n/a	n/a
2492078	REC_WORD	wordpools/wasnorm_wordpool.txt	LTP139	ltpFR	5	14	0	AFRICA	9	n/a	n/a	1	n/a	n/a	n/a	n/a	n/a
2492923	REC_WORD	wordpools/wasnorm_wordpool.txt	LTP139	ltpFR	5	14	0	MOAT	903	n/a	n/a	1	n/a	n/a	n/a	n/a	n/a
2495400	REC_WORD	wordpools/wasnorm_wordpool.txt	LTP139	ltpFR	5	14	1	PISTON	1076	n/a	n/a	0	n/a	n/a	n/a	n/a	n/a
2496149	REC_WORD	wordpools/wasnorm_wordpool.txt	LTP139	ltpFR	5	14	1	MINER	896	n/a	n/a	1	n/a	n/a	n/a	n/a	n/a
2499809	REC_WORD	wordpools/wasnorm_wordpool.txt	LTP139	ltpFR	5	14	1	CHAUFFEUR	283	n/a	n/a	1	n/a	n/a	n/a	n/a	n/a
2506739	REC_WORD	wordpools/wasnorm_wordpool.txt	LTP139	ltpFR	5	14	1	BRIDE	173	n/a	n/a	1	n/a	n/a	n/a	n/a	n/a
2520328	REC_WORD	wordpools/wasnorm_wordpool.txt	LTP139	ltpFR	5	14	1	SCALLOP	1242	n/a	n/a	1	n/a	n/a	n/a	n/a	n/a
2534871	REC_WORD	wordpools/wasnorm_wordpool.txt	LTP139	ltpFR	5	14	0	CHEF	290	n/a	n/a	1	n/a	n/a	n/a	n/a	n/a
2584998	WORD	wordpools/wasnorm_wordpool.txt	LTP139	ltpFR	5	15	0	GIRL	637	n/a	n/a	1	0.57763671875	0.412841796875	1	lower	amplitud.ttf
2589060	WORD	wordpools/wasnorm_wordpool.txt	LTP139	ltpFR	5	15	0	PAIL	1002	n/a	n/a	1	0.57763671875	0.412841796875	1	lower	amplitud.ttf
2593047	WORD	wordpools/wasnorm_wordpool.txt	LTP139	ltpFR	5	15	0	TRENCH	1503	n/a	n/a	1	0.57763671875	0.412841796875	1	lower	amplitud.ttf
2597201	WORD	wordpools/wasnorm_wordpool.txt	LTP139	ltpFR	5	15	0	STALLION	1369	n/a	n/a	1	0.57763671875	0.412841796875	1	lower	amplitud.ttf
2601172	WORD	wordpools/wasnorm_wordpool.txt	LTP139	ltpFR	5	15	0	FISH	571	n/a	n/a	0	0.57763671875	0.412841796875	1	lower	amplitud.ttf
2605124	WORD	wordpools/wasnorm_wordpool.txt	LTP139	ltpFR	5	15	0	WAVE	1596	n/a	n/a	1	0.57763671875	0.412841796875	1	lower	amplitud.ttf
2609078	WORD	wordpools/wasnorm_wordpool.txt	LTP139	ltpFR	5	15	0	PEANUT	1032	n/a	n/a	0	0.57763671875	0.412841796875	1	lower	amplitud.ttf
2612924	WORD	wordpools/wasnorm_wordpool.txt	LTP139	ltpFR	5	15	0	GRASS	655	n/a	n/a	0	0.57763671875	0.412841796875	1	lower	amplitud.ttf
2616819	WORD	wordpools/wasnorm_wordpool.txt	LTP139	ltpFR	5	15	0	PIN	1072	n/a	n/a	0	0.57763671875	0.412841796875	1	lower	amplitud.ttf
2620965	WORD	wordpools/wasnorm_wordpool.txt	LTP139	ltpFR	5	15	0	THIMBLE	1458	n/a	n/a	0	0.57763671875	0.412841796875	1	lower	amplitud.ttf
2624985	WORD	wordpools/wasnorm_wordpool.txt	LTP139	ltpFR	5	15	0	SUBMARINE	1398	n/a	n/a	1	0.57763671875	0.412841796875	1	lower	amplitud.ttf
2628814	WORD	wordpools/wasnorm_wordpool.txt	LTP139	ltpFR	5	15	0	CARNIVAL	245	n/a	n/a	1	0.57763671875	0.412841796875	1	lower	amplitud.ttf
2632668	WORD	wordpools/wasnorm_wordpool.txt	LTP139	ltpFR	5	15	0	CUBE	420	n/a	n/a	0	0.57763671875	0.412841796875	1	lower	amplitud.ttf
2636771	WORD	wordpools/wasnorm_wordpool.txt	LTP139	ltpFR	5	15	0	LOOP	844	n/a	n/a	0	0.57763671875	0.412841796875	1	lower	amplitud.ttf
2640833	WORD	wordpools/wasnorm_wordpool.txt	LTP139	ltpFR	5	15	0	CRATER	400	n/a	n/a	1	0.57763671875	0.412841796875	1	lower	amplitud.ttf
2644903	WORD	wordpools/wasnorm_wordpool.txt	LTP139	ltpFR	5	15	0	CUE	422	n/a	n/a	1	0.57763671875	0.412841796875	1	lower	amplitud.ttf
2650589	REC_START	n/a	LTP139	ltpFR	5	15	n/a	n/a	n/a	n/a	n/a	n/a	n/a	n/a	n/a	n/a	n/a
2651636	REC_WORD	wordpools/wasnorm_wordpool.txt	LTP139	ltpFR	5	15	0	CUE	422	n/a	n/a	1	n/a	n/a	n/a	n/a	n/a
2652315	REC_WORD	wordpools/wasnorm_wordpool.txt	LTP139	ltpFR	5	15	0	CRATER	400	n/a	n/a	1	n/a	n/a	n/a	n/a	n/a
2652873	REC_WORD	wordpools/wasnorm_wordpool.txt	LTP139	ltpFR	5	15	0	TRENCH	1503	n/a	n/a	1	n/a	n/a	n/a	n/a	n/a
2653522	REC_WORD	wordpools/wasnorm_wordpool.txt	LTP139	ltpFR	5	15	0	FISH	571	n/a	n/a	0	n/a	n/a	n/a	n/a	n/a
2654071	REC_WORD	wordpools/wasnorm_wordpool.txt	LTP139	ltpFR	5	15	0	WAVE	1596	n/a	n/a	1	n/a	n/a	n/a	n/a	n/a
2654799	REC_WORD	wordpools/wasnorm_wordpool.txt	LTP139	ltpFR	5	15	0	GIRL	637	n/a	n/a	1	n/a	n/a	n/a	n/a	n/a
2655328	REC_WORD	wordpools/wasnorm_wordpool.txt	LTP139	ltpFR	5	15	0	PAIL	1002	n/a	n/a	1	n/a	n/a	n/a	n/a	n/a
2655981	REC_WORD	wordpools/wasnorm_wordpool.txt	LTP139	ltpFR	5	15	0	SUBMARINE	1398	n/a	n/a	1	n/a	n/a	n/a	n/a	n/a
2657717	REC_WORD	wordpools/wasnorm_wordpool.txt	LTP139	ltpFR	5	15	0	PIN	1072	n/a	n/a	0	n/a	n/a	n/a	n/a	n/a
2658556	REC_WORD	wordpools/wasnorm_wordpool.txt	LTP139	ltpFR	5	15	0	THIMBLE	1458	n/a	n/a	0	n/a	n/a	n/a	n/a	n/a
2675806	REC_WORD	wordpools/wasnorm_wordpool.txt	LTP139	ltpFR	5	15	0	TRENCH	1503	n/a	n/a	1	n/a	n/a	n/a	n/a	n/a
2676273	REC_WORD	wordpools/wasnorm_wordpool.txt	LTP139	ltpFR	5	15	0	CRATER	400	n/a	n/a	1	n/a	n/a	n/a	n/a	n/a
2736830	WORD	wordpools/wasnorm_wordpool.txt	LTP139	ltpFR	5	16	1	PERSON	1052	n/a	n/a	1	0.422607421875	0.5869140625	0	upper	zerothre.ttf
2741025	WORD	wordpools/wasnorm_wordpool.txt	LTP139	ltpFR	5	16	1	HAYSTACK	694	n/a	n/a	0	0.422607421875	0.5869140625	0	upper	zerothre.ttf
2745062	WORD	wordpools/wasnorm_wordpool.txt	LTP139	ltpFR	5	16	1	FLANNEL	574	n/a	n/a	0	0.422607421875	0.5869140625	0	upper	zerothre.ttf
2749259	WORD	wordpools/wasnorm_wordpool.txt	LTP139	ltpFR	5	16	1	LEAF	808	n/a	n/a	1	0.422607421875	0.5869140625	0	upper	zerothre.ttf
2753187	WORD	wordpools/wasnorm_wordpool.txt	LTP139	ltpFR	5	16	1	FIG	563	n/a	n/a	1	0.422607421875	0.5869140625	0	upper	zerothre.ttf
2757015	WORD	wordpools/wasnorm_wordpool.txt	LTP139	ltpFR	5	16	1	OATMEAL	967	n/a	n/a	1	0.422607421875	0.5869140625	0	upper	zerothre.ttf
2760919	WORD	wordpools/wasnorm_wordpool.txt	LTP139	ltpFR	5	16	1	SWEATER	1419	n/a	n/a	0	0.422607421875	0.5869140625	0	upper	zerothre.ttf
2765006	WORD	wordpools/wasnorm_wordpool.txt	LTP139	ltpFR	5	16	1	EWE	542	n/a	n/a	1	0.422607421875	0.5869140625	0	upper	zerothre.ttf
2769210	WORD	wordpools/wasnorm_wordpool.txt	LTP139	ltpFR	5	16	1	BABY	64	n/a	n/a	1	0.422607421875	0.5869140625	0	upper	zerothre.ttf
2773055	WORD	wordpools/wasnorm_wordpool.txt	LTP139	ltpFR	5	16	1	RATTLE	1170	n/a	n/a	0	0.422607421875	0.5869140625	0	upper	zerothre.ttf
2777017	WORD	wordpools/wasnorm_wordpool.txt	LTP139	ltpFR	5	16	1	SPOOL	1356	n/a	n/a	0	0.422607421875	0.5869140625	0	upper	zerothre.ttf
2780996	WORD	wordpools/wasnorm_wordpool.txt	LTP139	ltpFR	5	16	1	SOCIETY	1338	n/a	n/a	0	0.422607421875	0.5869140625	0	upper	zerothre.ttf
2784858	WORD	wordpools/wasnorm_wordpool.txt	LTP139	ltpFR	5	16	1	SACK	1220	n/a	n/a	0	0.422607421875	0.5869140625	0	upper	zerothre.ttf
2788878	WORD	wordpools/wasnorm_wordpool.txt	LTP139	ltpFR	5	16	1	GODDESS	646	n/a	n/a	1	0.422607421875	0.5869140625	0	upper	zerothre.ttf
2792715	WORD	wordpools/wasnorm_wordpool.txt	LTP139	ltpFR	5	16	1	GENTLEMAN	631	n/a	n/a	1	0.422607421875	0.5869140625	0	upper	zerothre.ttf
2796844	WORD	wordpools/wasnorm_wordpool.txt	LTP139	ltpFR	5	16	1	CHIPMUNK	304	n/a	n/a	1	0.422607421875	0.5869140625	0	upper	zerothre.ttf
2802746	REC_START	n/a	LTP139	ltpFR	5	16	n/a	n/a	n/a	n/a	n/a	n/a	n/a	n/a	n/a	n/a	n/a
2803599	REC_WORD	wordpools/wasnorm_wordpool.txt	LTP139	ltpFR	5	16	1	GODDESS	646	n/a	n/a	1	n/a	n/a	n/a	n/a	n/a
2804202	REC_WORD	wordpools/wasnorm_wordpool.txt	LTP139	ltpFR	5	16	1	GENTLEMAN	631	n/a	n/a	1	n/a	n/a	n/a	n/a	n/a
2804706	REC_WORD	wordpools/wasnorm_wordpool.txt	LTP139	ltpFR	5	16	1	CHIPMUNK	304	n/a	n/a	1	n/a	n/a	n/a	n/a	n/a
2805933	REC_WORD	wordpools/wasnorm_wordpool.txt	LTP139	ltpFR	5	16	1	ADULT	8	n/a	n/a	1	n/a	n/a	n/a	n/a	n/a
2807934	REC_WORD	wordpools/wasnorm_wordpool.txt	LTP139	ltpFR	5	16	1	PERSON	1052	n/a	n/a	1	n/a	n/a	n/a	n/a	n/a
2808593	REC_WORD	wordpools/wasnorm_wordpool.txt	LTP139	ltpFR	5	16	1	BABY	64	n/a	n/a	1	n/a	n/a	n/a	n/a	n/a
2809336	REC_WORD	wordpools/wasnorm_wordpool.txt	LTP139	ltpFR	5	16	1	EWE	542	n/a	n/a	1	n/a	n/a	n/a	n/a	n/a
2810438	REC_WORD	wordpools/wasnorm_wordpool.txt	LTP139	ltpFR	5	16	1	FIG	563	n/a	n/a	1	n/a	n/a	n/a	n/a	n/a
2811656	REC_WORD	wordpools/wasnorm_wordpool.txt	LTP139	ltpFR	5	16	1	OATMEAL	967	n/a	n/a	1	n/a	n/a	n/a	n/a	n/a
2817526	REC_WORD	wordpools/wasnorm_wordpool.txt	LTP139	ltpFR	5	16	1	LEAF	808	n/a	n/a	1	n/a	n/a	n/a	n/a	n/a
2818450	REC_WORD	wordpools/wasnorm_wordpool.txt	LTP139	ltpFR	5	16	1	HAYSTACK	694	n/a	n/a	0	n/a	n/a	n/a	n/a	n/a
2846077	REC_WORD	wordpools/wasnorm_wordpool.txt	LTP139	ltpFR	5	16	1	SOCIETY	1338	n/a	n/a	0	n/a	n/a	n/a	n/a	n/a
2896071	REC_START	n/a	LTP139	ltpFR	5	n/a	n/a	n/a	n/a	n/a	n/a	n/a	n/a	n/a	n/a	n/a	n/a
2896585	FFR_REC_WORD	wordpools/wasnorm_wordpool.txt	LTP139	ltpFR	5	n/a	1	SOCIETY	1338	n/a	n/a	0	n/a	n/a	n/a	n/a	n/a
2897552	FFR_REC_WORD	wordpools/wasnorm_wordpool.txt	LTP139	ltpFR	5	n/a	0	GLOVE	642	n/a	n/a	0	n/a	n/a	n/a	n/a	n/a
2898285	FFR_REC_WORD	wordpools/wasnorm_wordpool.txt	LTP139	ltpFR	5	n/a	0	UNDERWEAR	1537	n/a	n/a	0	n/a	n/a	n/a	n/a	n/a
2899553	FFR_REC_WORD	wordpools/wasnorm_wordpool.txt	LTP139	ltpFR	5	n/a	-1	REFRIGERATOR	1179	n/a	n/a	-1	n/a	n/a	n/a	n/a	n/a
2901109	FFR_REC_WORD	wordpools/wasnorm_wordpool.txt	LTP139	ltpFR	5	n/a	1	HERD	705	n/a	n/a	1	n/a	n/a	n/a	n/a	n/a
2902521	FFR_REC_WORD	wordpools/wasnorm_wordpool.txt	LTP139	ltpFR	5	n/a	-1	SHED	1277	n/a	n/a	-1	n/a	n/a	n/a	n/a	n/a
2903667	FFR_REC_WORD	wordpools/wasnorm_wordpool.txt	LTP139	ltpFR	5	n/a	-1	SHELTER	1282	n/a	n/a	-1	n/a	n/a	n/a	n/a	n/a
2905023	FFR_REC_WORD	wordpools/wasnorm_wordpool.txt	LTP139	ltpFR	5	n/a	-1	JUNGLE	764	n/a	n/a	-1	n/a	n/a	n/a	n/a	n/a
2905564	FFR_REC_WORD	wordpools/wasnorm_wordpool.txt	LTP139	ltpFR	5	n/a	-1	CHIMPANZEE	302	n/a	n/a	-1	n/a	n/a	n/a	n/a	n/a
2907615	FFR_REC_WORD	wordpools/wasnorm_wordpool.txt	LTP139	ltpFR	5	n/a	1	DRAGON	492	n/a	n/a	1	n/a	n/a	n/a	n/a	n/a
2908859	FFR_REC_WORD	wordpools/wasnorm_wordpool.txt	LTP139	ltpFR	5	n/a	-1	PLATE	1086	n/a	n/a	-1	n/a	n/a	n/a	n/a	n/a
2910133	FFR_REC_WORD	wordpools/wasnorm_wordpool.txt	LTP139	ltpFR	5	n/a	0	PUMPKIN	1142	n/a	n/a	1	n/a	n/a	n/a	n/a	n/a
2910972	FFR_REC_WORD	wordpools/wasnorm_wordpool.txt	LTP139	ltpFR	5	n/a	n/a	RASPBERRY	1168	n/a	n/a	n/a	n/a	n/a	n/a	n/a	n/a
2912418	FFR_REC_WORD	wordpools/wasnorm_wordpool.txt	LTP139	ltpFR	5	n/a	1	FIG	563	n/a	n/a	1	n/a	n/a	n/a	n/a	n/a
2913166	FFR_REC_WORD	wordpools/wasnorm_wordpool.txt	LTP139	ltpFR	5	n/a	-1	CINNAMON	310	n/a	n/a	-1	n/a	n/a	n/a	n/a	n/a
2916150	FFR_REC_WORD	wordpools/wasnorm_wordpool.txt	LTP139	ltpFR	5	n/a	0	VENT	1556	n/a	n/a	1	n/a	n/a	n/a	n/a	n/a
2917108	FFR_REC_WORD	wordpools/wasnorm_wordpool.txt	LTP139	ltpFR	5	n/a	0	VIRUS	1572	n/a	n/a	0	n/a	n/a	n/a	n/a	n/a
2918145	FFR_REC_WORD	wordpools/wasnorm_wordpool.txt	LTP139	ltpFR	5	n/a	1	PLUTO	1092	n/a	n/a	0	n/a	n/a	n/a	n/a	n/a
2918906	FFR_REC_WORD	wordpools/wasnorm_wordpool.txt	LTP139	ltpFR	5	n/a	1	JUPITER	765	n/a	n/a	0	n/a	n/a	n/a	n/a	n/a
2919936	FFR_REC_WORD	wordpools/wasnorm_wordpool.txt	LTP139	ltpFR	5	n/a	1	ATMOSPHERE	54	n/a	n/a	0	n/a	n/a	n/a	n/a	n/a
2921388	FFR_REC_WORD	wordpools/wasnorm_wordpool.txt	LTP139	ltpFR	5	n/a	1	PUMP	1141	n/a	n/a	0	n/a	n/a	n/a	n/a	n/a
2925304	FFR_REC_WORD	wordpools/wasnorm_wordpool.txt	LTP139	ltpFR	5	n/a	0	MANAGER	863	n/a	n/a	1	n/a	n/a	n/a	n/a	n/a
2925964	FFR_REC_WORD	wordpools/wasnorm_wordpool.txt	LTP139	ltpFR	5	n/a	0	ENCYCLOPEDIA	533	n/a	n/a	1	n/a	n/a	n/a	n/a	n/a
2927319	FFR_REC_WORD	wordpools/wasnorm_wordpool.txt	LTP139	ltpFR	5	n/a	0	COOKBOOK	373	n/a	n/a	0	n/a	n/a	n/a	n/a	n/a
2931116	FFR_REC_WORD	wordpools/wasnorm_wordpool.txt	LTP139	ltpFR	5	n/a	0	GLOVE	642	n/a	n/a	0	n/a	n/a	n/a	n/a	n/a
2932258	FFR_REC_WORD	wordpools/wasnorm_wordpool.txt	LTP139	ltpFR	5	n/a	0	UNDERWEAR	1537	n/a	n/a	0	n/a	n/a	n/a	n/a	n/a
2933710	FFR_REC_WORD	wordpools/wasnorm_wordpool.txt	LTP139	ltpFR	5	n/a	0	JUGGLER	763	n/a	n/a	1	n/a	n/a	n/a	n/a	n/a
2938829	FFR_REC_WORD	wordpools/wasnorm_wordpool.txt	LTP139	ltpFR	5	n/a	1	BABY	64	n/a	n/a	1	n/a	n/a	n/a	n/a	n/a
2939642	FFR_REC_WORD	wordpools/wasnorm_wordpool.txt	LTP139	ltpFR	5	n/a	1	EWE	542	n/a	n/a	1	n/a	n/a	n/a	n/a	n/a
2941108	FFR_REC_WORD	wordpools/wasnorm_wordpool.txt	LTP139	ltpFR	5	n/a	1	CHAUFFEUR	283	n/a	n/a	1	n/a	n/a	n/a	n/a	n/a
2946556	FFR_REC_WORD	wordpools/wasnorm_wordpool.txt	LTP139	ltpFR	5	n/a	0	SWORD	1423	n/a	n/a	1	n/a	n/a	n/a	n/a	n/a
2947484	FFR_REC_WORD	wordpools/wasnorm_wordpool.txt	LTP139	ltpFR	5	n/a	0	BLADE	134	n/a	n/a	0	n/a	n/a	n/a	n/a	n/a
2949180	FFR_REC_WORD	wordpools/wasnorm_wordpool.txt	LTP139	ltpFR	5	n/a	0	CUE	422	n/a	n/a	1	n/a	n/a	n/a	n/a	n/a
2954433	FFR_REC_WORD	wordpools/wasnorm_wordpool.txt	LTP139	ltpFR	5	n/a	0	PUPPY	1144	n/a	n/a	1	n/a	n/a	n/a	n/a	n/a
2963732	FFR_REC_WORD	wordpools/wasnorm_wordpool.txt	LTP139	ltpFR	5	n/a	0	VEHICLE	1553	n/a	n/a	1	n/a	n/a	n/a	n/a	n/a
2965084	FFR_REC_WORD	wordpools/wasnorm_wordpool.txt	LTP139	ltpFR	5	n/a	0	ENGINE	535	n/a	n/a	1	n/a	n/a	n/a	n/a	n/a
2966760	FFR_REC_WORD	wordpools/wasnorm_wordpool.txt	LTP139	ltpFR	5	n/a	-1	DRIVER	499	n/a	n/a	-1	n/a	n/a	n/a	n/a	n/a
2974762	FFR_REC_WORD	wordpools/wasnorm_wordpool.txt	LTP139	ltpFR	5	n/a	0	GLACIER	638	n/a	n/a	1	n/a	n/a	n/a	n/a	n/a
2976852	FFR_REC_WORD	wordpools/wasnorm_wordpool.txt	LTP139	ltpFR	5	n/a	0	VILLAGE	1566	n/a	n/a	1	n/a	n/a	n/a	n/a	n/a
2977640	FFR_REC_WORD	wordpools/wasnorm_wordpool.txt	LTP139	ltpFR	5	n/a	0	AFRICA	9	n/a	n/a	1	n/a	n/a	n/a	n/a	n/a
2981791	FFR_REC_WORD	wordpools/wasnorm_wordpool.txt	LTP139	ltpFR	5	n/a	1	NICKEL	950	n/a	n/a	0	n/a	n/a	n/a	n/a	n/a
2987333	FFR_REC_WORD	wordpools/wasnorm_wordpool.txt	LTP139	ltpFR	5	n/a	-1	COMPUTER	359	n/a	n/a	-1	n/a	n/a	n/a	n/a	n/a
2988076	FFR_REC_WORD	wordpools/wasnorm_wordpool.txt	LTP139	ltpFR	5	n/a	0	TYPEWRITER	1531	n/a	n/a	1	n/a	n/a	n/a	n/a	n/a
2990351	FFR_REC_WORD	wordpools/wasnorm_wordpool.txt	LTP139	ltpFR	5	n/a	0	ROBOT	1200	n/a	n/a	1	n/a	n/a	n/a	n/a	n/a
2993479	FFR_REC_WORD	wordpools/wasnorm_wordpool.txt	LTP139	ltpFR	5	n/a	0	SHELL	1281	n/a	n/a	0	n/a	n/a	n/a	n/a	n/a
2994272	FFR_REC_WORD	wordpools/wasnorm_wordpool.txt	LTP139	ltpFR	5	n/a	1	SCALLOP	1242	n/a	n/a	1	n/a	n/a	n/a	n/a	n/a
2996732	FFR_REC_WORD	wordpools/wasnorm_wordpool.txt	LTP139	ltpFR	5	n/a	-1	COD	340	n/a	n/a	-1	n/a	n/a	n/a	n/a	n/a
2998642	FFR_REC_WORD	wordpools/wasnorm_wordpool.txt	LTP139	ltpFR	5	n/a	0	WAVE	1596	n/a	n/a	1	n/a	n/a	n/a	n/a	n/a
2999451	FFR_REC_WORD	wordpools/wasnorm_wordpool.txt	LTP139	ltpFR	5	n/a	0	TRENCH	1503	n/a	n/a	1	n/a	n/a	n/a	n/a	n/a
3000139	FFR_REC_WORD	wordpools/wasnorm_wordpool.txt	LTP139	ltpFR	5	n/a	0	CRATER	400	n/a	n/a	1	n/a	n/a	n/a	n/a	n/a
3003486	FFR_REC_WORD	wordpools/wasnorm_wordpool.txt	LTP139	ltpFR	5	n/a	0	VAULT	1550	n/a	n/a	1	n/a	n/a	n/a	n/a	n/a
3004270	FFR_REC_WORD	wordpools/wasnorm_wordpool.txt	LTP139	ltpFR	5	n/a	0	TOWER	1490	n/a	n/a	1	n/a	n/a	n/a	n/a	n/a
3005791	FFR_REC_WORD	wordpools/wasnorm_wordpool.txt	LTP139	ltpFR	5	n/a	0	RUBY	1214	n/a	n/a	0	n/a	n/a	n/a	n/a	n/a
3009817	FFR_REC_WORD	wordpools/wasnorm_wordpool.txt	LTP139	ltpFR	5	n/a	1	DRAGON	492	n/a	n/a	1	n/a	n/a	n/a	n/a	n/a
3012601	FFR_REC_WORD	wordpools/wasnorm_wordpool.txt	LTP139	ltpFR	5	n/a	0	FISH	571	n/a	n/a	0	n/a	n/a	n/a	n/a	n/a
3013284	FFR_REC_WORD	wordpools/wasnorm_wordpool.txt	LTP139	ltpFR	5	n/a	0	GIRL	637	n/a	n/a	1	n/a	n/a	n/a	n/a	n/a
3013693	FFR_REC_WORD	wordpools/wasnorm_wordpool.txt	LTP139	ltpFR	5	n/a	0	PAIL	1002	n/a	n/a	1	n/a	n/a	n/a	n/a	n/a
3020463	FFR_REC_WORD	wordpools/wasnorm_wordpool.txt	LTP139	ltpFR	5	n/a	-1	STAR	1373	n/a	n/a	-1	n/a	n/a	n/a	n/a	n/a
3024698	FFR_REC_WORD	wordpools/wasnorm_wordpool.txt	LTP139	ltpFR	5	n/a	1	FRIEND	606	n/a	n/a	1	n/a	n/a	n/a	n/a	n/a
3025506	FFR_REC_WORD	wordpools/wasnorm_wordpool.txt	LTP139	ltpFR	5	n/a	-1	LAVA	804	n/a	n/a	-1	n/a	n/a	n/a	n/a	n/a
3026913	FFR_REC_WORD	wordpools/wasnorm_wordpool.txt	LTP139	ltpFR	5	n/a	1	WINDOW	1611	n/a	n/a	0	n/a	n/a	n/a	n/a	n/a
3033787	FFR_REC_WORD	wordpools/wasnorm_wordpool.txt	LTP139	ltpFR	5	n/a	1	SPONGE	1355	n/a	n/a	1	n/a	n/a	n/a	n/a	n/a
3035329	FFR_REC_WORD	wordpools/wasnorm_wordpool.txt	LTP139	ltpFR	5	n/a	1	MARKET	871	n/a	n/a	0	n/a	n/a	n/a	n/a	n/a
3042976	FFR_REC_WORD	wordpools/wasnorm_wordpool.txt	LTP139	ltpFR	5	n/a	1	FIG	563	n/a	n/a	1	n/a	n/a	n/a	n/a	n/a
3043610	FFR_REC_WORD	wordpools/wasnorm_wordpool.txt	LTP139	ltpFR	5	n/a	1	OATMEAL	967	n/a	n/a	1	n/a	n/a	n/a	n/a	n/a
3045911	FFR_REC_WORD	wordpools/wasnorm_wordpool.txt	LTP139	ltpFR	5	n/a	1	MINT	898	n/a	n/a	0	n/a	n/a	n/a	n/a	n/a
3051163	FFR_REC_WORD	wordpools/wasnorm_wordpool.txt	LTP139	ltpFR	5	n/a	-1	STUDENT	1395	n/a	n/a	-1	n/a	n/a	n/a	n/a	n/a
3052131	FFR_REC_WORD	wordpools/wasnorm_wordpool.txt	LTP139	ltpFR	5	n/a	-1	COACH	331	n/a	n/a	-1	n/a	n/a	n/a	n/a	n/a
3058586	FFR_REC_WORD	wordpools/wasnorm_wordpool.txt	LTP139	ltpFR	5	n/a	1	SOCIETY	1338	n/a	n/a	0	n/a	n/a	n/a	n/a	n/a
3068275	FFR_REC_WORD	wordpools/wasnorm_wordpool.txt	LTP139	ltpFR	5	n/a	0	BARK	87	n/a	n/a	0	n/a	n/a	n/a	n/a	n/a
3069890	FFR_REC_WORD	wordpools/wasnorm_wordpool.txt	LTP139	ltpFR	5	n/a	0	STALLION	1369	n/a	n/a	1	n/a	n/a	n/a	n/a	n/a
3070888	FFR_REC_WORD	wordpools/wasnorm_wordpool.txt	LTP139	ltpFR	5	n/a	0	SADDLE	1221	n/a	n/a	1	n/a	n/a	n/a	n/a	n/a
3076859	FFR_REC_WORD	wordpools/wasnorm_wordpool.txt	LTP139	ltpFR	5	n/a	0	PICNIC	1060	n/a	n/a	1	n/a	n/a	n/a	n/a	n/a
3077473	FFR_REC_WORD	wordpools/wasnorm_wordpool.txt	LTP139	ltpFR	5	n/a	1	TRAY	1498	n/a	n/a	0	n/a	n/a	n/a	n/a	n/a
3079409	FFR_REC_WORD	wordpools/wasnorm_wordpool.txt	LTP139	ltpFR	5	n/a	1	ORANGE	980	n/a	n/a	1	n/a	n/a	n/a	n/a	n/a
3080182	FFR_REC_WORD	wordpools/wasnorm_wordpool.txt	LTP139	ltpFR	5	n/a	1	CITRUS	313	n/a	n/a	1	n/a	n/a	n/a	n/a	n/a
3093921	FFR_REC_WORD	wordpools/wasnorm_wordpool.txt	LTP139	ltpFR	5	n/a	0	THIGH	1457	n/a	n/a	1	n/a	n/a	n/a	n/a	n/a
3100156	FFR_REC_WORD	wordpools/wasnorm_wordpool.txt	LTP139	ltpFR	5	n/a	0	TURKEY	1520	n/a	n/a	1	n/a	n/a	n/a	n/a	n/a
3109740	FFR_REC_WORD	wordpools/wasnorm_wordpool.txt	LTP139	ltpFR	5	n/a	1	CEILING	265	n/a	n/a	0	n/a	n/a	n/a	n/a	n/a
3110603	FFR_REC_WORD	wordpools/wasnorm_wordpool.txt	LTP139	ltpFR	5	n/a	-1	PLASTER	1085	n/a	n/a	-1	n/a	n/a	n/a	n/a	n/a
3127150	FFR_REC_WORD	wordpools/wasnorm_wordpool.txt	LTP139	ltpFR	5	n/a	1	CAMEL	223	n/a	n/a	1	n/a	n/a	n/a	n/a	n/a
3141692	FFR_REC_WORD	wordpools/wasnorm_wordpool.txt	LTP139	ltpFR	5	n/a	1	FUNGUS	614	n/a	n/a	1	n/a	n/a	n/a	n/a	n/a
3148168	FFR_REC_WORD	wordpools/wasnorm_wordpool.txt	LTP139	ltpFR	5	n/a	0	BLACKBOARD	133	n/a	n/a	1	n/a	n/a	n/a	n/a	n/a
3157796	FFR_REC_WORD	wordpools/wasnorm_wordpool.txt	LTP139	ltpFR	5	n/a	0	RACKET	1155	n/a	n/a	1	n/a	n/a	n/a	n/a	n/a
3175555	FFR_REC_WORD	wordpools/wasnorm_wordpool.txt	LTP139	ltpFR	5	n/a	1	BRIDE	173	n/a	n/a	1	n/a	n/a	n/a	n/a	n/a
3185393	FFR_REC_WORD	wordpools/wasnorm_wordpool.txt	LTP139	ltpFR	5	n/a	0	FILM	565	n/a	n/a	0	n/a	n/a	n/a	n/a	n/a
3186345	FFR_REC_WORD	wordpools/wasnorm_wordpool.txt	LTP139	ltpFR	5	n/a	0	LITERATURE	831	n/a	n/a	1	n/a	n/a	n/a	n/a	n/a
3215835	REC_START	n/a	LTP139	ltpFR	5	1	n/a	n/a	n/a	n/a	n/a	n/a	n/a	n/a	n/a	n/a	n/a
3215867	RECOG_TARGET	n/a	LTP139	ltpFR	5	1	1	PLUTO	1092	1	5	0	n/a	n/a	n/a	n/a	n/a
3217030	RECOG_RESP	n/a	LTP139	ltpFR	5	1	1	PLUTO	1092	1	n/a	0	n/a	n/a	n/a	n/a	n/a
3218196	RECOG_CONF	n/a	LTP139	ltpFR	5	1	1	PLUTO	1092	n/a	5	0	n/a	n/a	n/a	n/a	n/a
3219896	RECOG_TARGET	n/a	LTP139	ltpFR	5	1	1	BABY	64	1	5	1	n/a	n/a	n/a	n/a	n/a
3220854	RECOG_RESP	n/a	LTP139	ltpFR	5	1	1	BABY	64	1	n/a	1	n/a	n/a	n/a	n/a	n/a
3221736	RECOG_CONF	n/a	LTP139	ltpFR	5	1	1	BABY	64	n/a	5	1	n/a	n/a	n/a	n/a	n/a
3223284	RECOG_TARGET	n/a	LTP139	ltpFR	5	1	0	PARTNER	1017	1	5	1	n/a	n/a	n/a	n/a	n/a
3224081	RECOG_RESP	n/a	LTP139	ltpFR	5	1	0	PARTNER	1017	1	n/a	1	n/a	n/a	n/a	n/a	n/a
3225029	RECOG_CONF	n/a	LTP139	ltpFR	5	1	0	PARTNER	1017	n/a	5	1	n/a	n/a	n/a	n/a	n/a
3226563	RECOG_TARGET	n/a	LTP139	ltpFR	5	1	1	RICE	1190	1	3	1	n/a	n/a	n/a	n/a	n/a
3227418	RECOG_RESP	n/a	LTP139	ltpFR	5	1	1	RICE	1190	1	n/a	1	n/a	n/a	n/a	n/a	n/a
3228381	RECOG_CONF	n/a	LTP139	ltpFR	5	1	1	RICE	1190	n/a	3	1	n/a	n/a	n/a	n/a	n/a
3229967	RECOG_TARGET	n/a	LTP139	ltpFR	5	1	1	DRILL	497	1	5	0	n/a	n/a	n/a	n/a	n/a
3231914	RECOG_RESP	n/a	LTP139	ltpFR	5	1	1	DRILL	497	1	n/a	0	n/a	n/a	n/a	n/a	n/a
3232841	RECOG_CONF	n/a	LTP139	ltpFR	5	1	1	DRILL	497	n/a	5	0	n/a	n/a	n/a	n/a	n/a
3234347	RECOG_TARGET	n/a	LTP139	ltpFR	5	1	1	FOOT	590	0	3	0	n/a	n/a	n/a	n/a	n/a
3235904	RECOG_RESP	n/a	LTP139	ltpFR	5	1	1	FOOT	590	0	n/a	0	n/a	n/a	n/a	n/a	n/a
3236967	RECOG_CONF	n/a	LTP139	ltpFR	5	1	1	FOOT	590	n/a	3	0	n/a	n/a	n/a	n/a	n/a
3238409	RECOG_TARGET	n/a	LTP139	ltpFR	5	1	-1	FRAME	600	1	5	-1	n/a	n/a	n/a	n/a	n/a
3239182	RECOG_RESP	n/a	LTP139	ltpFR	5	1	-1	FRAME	600	1	n/a	-1	n/a	n/a	n/a	n/a	n/a
3240184	RECOG_CONF	n/a	LTP139	ltpFR	5	1	-1	FRAME	600	n/a	5	-1	n/a	n/a	n/a	n/a	n/a
3241779	RECOG_LURE	n/a	LTP139	ltpFR	5	1	n/a	DISC	473	0	4	n/a	n/a	n/a	n/a	n/a	n/a
3242684	RECOG_RESP	n/a	LTP139	ltpFR	5	1	n/a	DISC	473	0	n/a	n/a	n/a	n/a	n/a	n/a	n/a
3243526	RECOG_CONF	n/a	LTP139	ltpFR	5	1	n/a	DISC	473	n/a	4	n/a	n/a	n/a	n/a	n/a	n/a
3245133	RECOG_TARGET	n/a	LTP139	ltpFR	5	1	1	SCALLOP	1242	1	5	1	n/a	n/a	n/a	n/a	n/a
3245833	RECOG_RESP	n/a	LTP139	ltpFR	5	1	1	SCALLOP	1242	1	n/a	1	n/a	n/a	n/a	n/a	n/a
3246659	RECOG_CONF	n/a	LTP139	ltpFR	5	1	1	SCALLOP	1242	n/a	5	1	n/a	n/a	n/a	n/a	n/a
3248222	RECOG_TARGET	n/a	LTP139	ltpFR	5	1	0	UTENSIL	1542	1	5	0	n/a	n/a	n/a	n/a	n/a
3249079	RECOG_RESP	n/a	LTP139	ltpFR	5	1	0	UTENSIL	1542	1	n/a	0	n/a	n/a	n/a	n/a	n/a
3250012	RECOG_CONF	n/a	LTP139	ltpFR	5	1	0	UTENSIL	1542	n/a	5	0	n/a	n/a	n/a	n/a	n/a
3251435	RECOG_TARGET	n/a	LTP139	ltpFR	5	1	0	HARP	689	1	5	1	n/a	n/a	n/a	n/a	n/a
3252112	RECOG_RESP	n/a	LTP139	ltpFR	5	1	0	HARP	689	1	n/a	1	n/a	n/a	n/a	n/a	n/a
3253015	RECOG_CONF	n/a	LTP139	ltpFR	5	1	0	HARP	689	n/a	5	1	n/a	n/a	n/a	n/a	n/a
3254432	RECOG_LURE	n/a	LTP139	ltpFR	5	1	n/a	CAGE	218	0	4	n/a	n/a	n/a	n/a	n/a	n/a
3255684	RECOG_RESP	n/a	LTP139	ltpFR	5	1	n/a	CAGE	218	0	n/a	n/a	n/a	n/a	n/a	n/a	n/a
3256642	RECOG_CONF	n/a	LTP139	ltpFR	5	1	n/a	CAGE	218	n/a	4	n/a	n/a	n/a	n/a	n/a	n/a
3258135	RECOG_TARGET	n/a	LTP139	ltpFR	5	1	0	SALESMAN	1225	1	5	1	n/a	n/a	n/a	n/a	n/a
3258832	RECOG_RESP	n/a	LTP139	ltpFR	5	1	0	SALESMAN	1225	1	n/a	1	n/a	n/a	n/a	n/a	n/a
3259780	RECOG_CONF	n/a	LTP139	ltpFR	5	1	0	SALESMAN	1225	n/a	5	1	n/a	n/a	n/a	n/a	n/a
3261282	RECOG_LURE	n/a	LTP139	ltpFR	5	1	n/a	MONARCH	906	1	3	n/a	n/a	n/a	n/a	n/a	n/a
3263307	RECOG_RESP	n/a	LTP139	ltpFR	5	1	n/a	MONARCH	906	1	n/a	n/a	n/a	n/a	n/a	n/a	n/a
3264289	RECOG_CONF	n/a	LTP139	ltpFR	5	1	n/a	MONARCH	906	n/a	3	n/a	n/a	n/a	n/a	n/a	n/a
3265859	RECOG_TARGET	n/a	LTP139	ltpFR	5	1	-1	BUGLE	189	1	5	-1	n/a	n/a	n/a	n/a	n/a
3266537	RECOG_RESP	n/a	LTP139	ltpFR	5	1	-1	BUGLE	189	1	n/a	-1	n/a	n/a	n/a	n/a	n/a
3267502	RECOG_CONF	n/a	LTP139	ltpFR	5	1	-1	BUGLE	189	n/a	5	-1	n/a	n/a	n/a	n/a	n/a
3269105	RECOG_TARGET	n/a	LTP139	ltpFR	5	1	1	KETTLE	772	1	2	0	n/a	n/a	n/a	n/a	n/a
3272162	RECOG_RESP	n/a	LTP139	ltpFR	5	1	1	KETTLE	772	1	n/a	0	n/a	n/a	n/a	n/a	n/a
3273189	RECOG_CONF	n/a	LTP139	ltpFR	5	1	1	KETTLE	772	n/a	2	0	n/a	n/a	n/a	n/a	n/a
3274815	RECOG_LURE	n/a	LTP139	ltpFR	5	1	n/a	LENS	811	0	4	n/a	n/a	n/a	n/a	n/a	n/a
3275674	RECOG_RESP	n/a	LTP139	ltpFR	5	1	n/a	LENS	811	0	n/a	n/a	n/a	n/a	n/a	n/a	n/a
3276541	RECOG_CONF	n/a	LTP139	ltpFR	5	1	n/a	LENS	811	n/a	4	n/a	n/a	n/a	n/a	n/a	n/a
3278229	RECOG_TARGET	n/a	LTP139	ltpFR	5	1	1	FLANNEL	574	1	4	0	n/a	n/a	n/a	n/a	n/a
3278991	RECOG_RESP	n/a	LTP139	ltpFR	5	1	1	FLANNEL	574	1	n/a	0	n/a	n/a	n/a	n/a	n/a
3279844	RECOG_CONF	n/a	LTP139	ltpFR	5	1	1	FLANNEL	574	n/a	4	0	n/a	n/a	n/a	n/a	n/a
3281367	RECOG_LURE	n/a	LTP139	ltpFR	5	1	n/a	KNAPSACK	783	0	5	n/a	n/a	n/a	n/a	n/a	n/a
3282164	RECOG_RESP	n/a	LTP139	ltpFR	5	1	n/a	KNAPSACK	783	0	n/a	n/a	n/a	n/a	n/a	n/a	n/a
3283077	RECOG_CONF	n/a	LTP139	ltpFR	5	1	n/a	KNAPSACK	783	n/a	5	n/a	n/a	n/a	n/a	n/a	n/a
3284587	RECOG_TARGET	n/a	LTP139	ltpFR	5	1	-1	SICKLE	1302	1	5	-1	n/a	n/a	n/a	n/a	n/a
3285327	RECOG_RESP	n/a	LTP139	ltpFR	5	1	-1	SICKLE	1302	1	n/a	-1	n/a	n/a	n/a	n/a	n/a
3286270	RECOG_CONF	n/a	LTP139	ltpFR	5	1	-1	SICKLE	1302	n/a	5	-1	n/a	n/a	n/a	n/a	n/a
3297466	REC_START	n/a	LTP139	ltpFR	5	2	n/a	n/a	n/a	n/a	n/a	n/a	n/a	n/a	n/a	n/a	n/a
3297489	RECOG_TARGET	n/a	LTP139	ltpFR	5	2	0	RUBY	1214	1	4	0	n/a	n/a	n/a	n/a	n/a
3298313	RECOG_RESP	n/a	LTP139	ltpFR	5	2	0	RUBY	1214	1	n/a	0	n/a	n/a	n/a	n/a	n/a
3299182	RECOG_CONF	n/a	LTP139	ltpFR	5	2	0	RUBY	1214	n/a	4	0	n/a	n/a	n/a	n/a	n/a
3300652	RECOG_LURE	n/a	LTP139	ltpFR	5	2	n/a	TROUT	1511	0	4	n/a	n/a	n/a	n/a	n/a	n/a
3301402	RECOG_RESP	n/a	LTP139	ltpFR	5	2	n/a	TROUT	1511	0	n/a	n/a	n/a	n/a	n/a	n/a	n/a
3302110	RECOG_CONF	n/a	LTP139	ltpFR	5	2	n/a	TROUT	1511	n/a	4	n/a	n/a	n/a	n/a	n/a	n/a
3303715	RECOG_LURE	n/a	LTP139	ltpFR	5	2	n/a	HOUSE	725	1	2	n/a	n/a	n/a	n/a	n/a	n/a
3305248	RECOG_RESP	n/a	LTP139	ltpFR	5	2	n/a	HOUSE	725	1	n/a	n/a	n/a	n/a	n/a	n/a	n/a
3306216	RECOG_CONF	n/a	LTP139	ltpFR	5	2	n/a	HOUSE	725	n/a	2	n/a	n/a	n/a	n/a	n/a	n/a
3307711	RECOG_LURE	n/a	LTP139	ltpFR	5	2	n/a	VAGRANT	1544	0	4	n/a	n/a	n/a	n/a	n/a	n/a
3308844	RECOG_RESP	n/a	LTP139	ltpFR	5	2	n/a	VAGRANT	1544	0	n/a	n/a	n/a	n/a	n/a	n/a	n/a
3309772	RECOG_CONF	n/a	LTP139	ltpFR	5	2	n/a	VAGRANT	1544	n/a	4	n/a	n/a	n/a	n/a	n/a	n/a
3311432	RECOG_TARGET	n/a	LTP139	ltpFR	5	2	-1	DOOR	486	1	4	-1	n/a	n/a	n/a	n/a	n/a
3312262	RECOG_RESP	n/a	LTP139	ltpFR	5	2	-1	DOOR	486	1	n/a	-1	n/a	n/a	n/a	n/a	n/a
3313175	RECOG_CONF	n/a	LTP139	ltpFR	5	2	-1	DOOR	486	n/a	4	-1	n/a	n/a	n/a	n/a	n/a
3314736	RECOG_TARGET	n/a	LTP139	ltpFR	5	2	-1	FREEWAY	603	1	5	-1	n/a	n/a	n/a	n/a	n/a
3315443	RECOG_RESP	n/a	LTP139	ltpFR	5	2	-1	FREEWAY	603	1	n/a	-1	n/a	n/a	n/a	n/a	n/a
3316368	RECOG_CONF	n/a	LTP139	ltpFR	5	2	-1	FREEWAY	603	n/a	5	-1	n/a	n/a	n/a	n/a	n/a
3317907	RECOG_TARGET	n/a	LTP139	ltpFR	5	2	0	BANDANNA	80	1	5	0	n/a	n/a	n/a	n/a	n/a
3318714	RECOG_RESP	n/a	LTP139	ltpFR	5	2	0	BANDANNA	80	1	n/a	0	n/a	n/a	n/a	n/a	n/a
3319650	RECOG_CONF	n/a	LTP139	ltpFR	5	2	0	BANDANNA	80	n/a	5	0	n/a	n/a	n/a	n/a	n/a
3321163	RECOG_TARGET	n/a	LTP139	ltpFR	5	2	-1	LAVA	804	1	5	-1	n/a	n/a	n/a	n/a	n/a
3321850	RECOG_RESP	n/a	LTP139	ltpFR	5	2	-1	LAVA	804	1	n/a	-1	n/a	n/a	n/a	n/a	n/a
3322743	RECOG_CONF	n/a	LTP139	ltpFR	5	2	-1	LAVA	804	n/a	5	-1	n/a	n/a	n/a	n/a	n/a
3324201	RECOG_TARGET	n/a	LTP139	ltpFR	5	2	-1	BLACKBERRY	132	1	5	-1	n/a	n/a	n/a	n/a	n/a
3324903	RECOG_RESP	n/a	LTP139	ltpFR	5	2	-1	BLACKBERRY	132	1	n/a	-1	n/a	n/a	n/a	n/a	n/a
3325786	RECOG_CONF	n/a	LTP139	ltpFR	5	2	-1	BLACKBERRY	132	n/a	5	-1	n/a	n/a	n/a	n/a	n/a
3327314	RECOG_TARGET	n/a	LTP139	ltpFR	5	2	0	FUGITIVE	612	1	5	1	n/a	n/a	n/a	n/a	n/a
3327986	RECOG_RESP	n/a	LTP139	ltpFR	5	2	0	FUGITIVE	612	1	n/a	1	n/a	n/a	n/a	n/a	n/a
3329029	RECOG_CONF	n/a	LTP139	ltpFR	5	2	0	FUGITIVE	612	n/a	5	1	n/a	n/a	n/a	n/a	n/a
3330435	RECOG_TARGET	n/a	LTP139	ltpFR	5	2	1	MINT	898	1	5	0	n/a	n/a	n/a	n/a	n/a
3331094	RECOG_RESP	n/a	LTP139	ltpFR	5	2	1	MINT	898	1	n/a	0	n/a	n/a	n/a	n/a	n/a
3332072	RECOG_CONF	n/a	LTP139	ltpFR	5	2	1	MINT	898	n/a	5	0	n/a	n/a	n/a	n/a	n/a
3333572	RECOG_TARGET	n/a	LTP139	ltpFR	5	2	1	BASEMENT	94	1	5	0	n/a	n/a	n/a	n/a	n/a
3334417	RECOG_RESP	n/a	LTP139	ltpFR	5	2	1	BASEMENT	94	1	n/a	0	n/a	n/a	n/a	n/a	n/a
3335365	RECOG_CONF	n/a	LTP139	ltpFR	5	2	1	BASEMENT	94	n/a	5	0	n/a	n/a	n/a	n/a	n/a
3336794	RECOG_TARGET	n/a	LTP139	ltpFR	5	2	1	TICK	1463	1	5	1	n/a	n/a	n/a	n/a	n/a
3337490	RECOG_RESP	n/a	LTP139	ltpFR	5	2	1	TICK	1463	1	n/a	1	n/a	n/a	n/a	n/a	n/a
3338447	RECOG_CONF	n/a	LTP139	ltpFR	5	2	1	TICK	1463	n/a	5	1	n/a	n/a	n/a	n/a	n/a
3340006	RECOG_TARGET	n/a	LTP139	ltpFR	5	2	-1	STREET	1393	1	5	-1	n/a	n/a	n/a	n/a	n/a
3341082	RECOG_RESP	n/a	LTP139	ltpFR	5	2	-1	STREET	1393	1	n/a	-1	n/a	n/a	n/a	n/a	n/a
3341939	RECOG_CONF	n/a	LTP139	ltpFR	5	2	-1	STREET	1393	n/a	5	-1	n/a	n/a	n/a	n/a	n/a
3343544	RECOG_TARGET	n/a	LTP139	ltpFR	5	2	1	ELECTRON	522	1	5	0	n/a	n/a	n/a	n/a	n/a
3344346	RECOG_RESP	n/a	LTP139	ltpFR	5	2	1	ELECTRON	522	1	n/a	0	n/a	n/a	n/a	n/a	n/a
3345292	RECOG_CONF	n/a	LTP139	ltpFR	5	2	1	ELECTRON	522	n/a	5	0	n/a	n/a	n/a	n/a	n/a
3346790	RECOG_LURE	n/a	LTP139	ltpFR	5	2	n/a	CREW	406	0	4	n/a	n/a	n/a	n/a	n/a	n/a
3347916	RECOG_RESP	n/a	LTP139	ltpFR	5	2	n/a	CREW	406	0	n/a	n/a	n/a	n/a	n/a	n/a	n/a
3348864	RECOG_CONF	n/a	LTP139	ltpFR	5	2	n/a	CREW	406	n/a	4	n/a	n/a	n/a	n/a	n/a	n/a
3350412	RECOG_TARGET	n/a	LTP139	ltpFR	5	2	-1	CAR	241	1	4	-1	n/a	n/a	n/a	n/a	n/a
3351320	RECOG_RESP	n/a	LTP139	ltpFR	5	2	-1	CAR	241	1	n/a	-1	n/a	n/a	n/a	n/a	n/a
3352236	RECOG_CONF	n/a	LTP139	ltpFR	5	2	-1	CAR	241	n/a	4	-1	n/a	n/a	n/a	n/a	n/a
3353924	RECOG_LURE	n/a	LTP139	ltpFR	5	2	n/a	WELL	1600	0	5	n/a	n/a	n/a	n/a	n/a	n/a
3354790	RECOG_RESP	n/a	LTP139	ltpFR	5	2	n/a	WELL	1600	0	n/a	n/a	n/a	n/a	n/a	n/a	n/a
3355800	RECOG_CONF	n/a	LTP139	ltpFR	5	2	n/a	WELL	1600	n/a	5	n/a	n/a	n/a	n/a	n/a	n/a
3357262	RECOG_TARGET	n/a	LTP139	ltpFR	5	2	1	WINDOW	1611	1	5	0	n/a	n/a	n/a	n/a	n/a
3358175	RECOG_RESP	n/a	LTP139	ltpFR	5	2	1	WINDOW	1611	1	n/a	0	n/a	n/a	n/a	n/a	n/a
3359081	RECOG_CONF	n/a	LTP139	ltpFR	5	2	1	WINDOW	1611	n/a	5	0	n/a	n/a	n/a	n/a	n/a
3360649	RECOG_TARGET	n/a	LTP139	ltpFR	5	2	0	RUNNER	1218	0	2	1	n/a	n/a	n/a	n/a	n/a
3363461	RECOG_RESP	n/a	LTP139	ltpFR	5	2	0	RUNNER	1218	0	n/a	1	n/a	n/a	n/a	n/a	n/a
3364469	RECOG_CONF	n/a	LTP139	ltpFR	5	2	0	RUNNER	1218	n/a	2	1	n/a	n/a	n/a	n/a	n/a
3372014	REC_START	n/a	LTP139	ltpFR	5	3	n/a	n/a	n/a	n/a	n/a	n/a	n/a	n/a	n/a	n/a	n/a
3372044	RECOG_TARGET	n/a	LTP139	ltpFR	5	3	0	MANAGER	863	1	4	1	n/a	n/a	n/a	n/a	n/a
3373124	RECOG_RESP	n/a	LTP139	ltpFR	5	3	0	MANAGER	863	1	n/a	1	n/a	n/a	n/a	n/a	n/a
3373969	RECOG_CONF	n/a	LTP139	ltpFR	5	3	0	MANAGER	863	n/a	4	1	n/a	n/a	n/a	n/a	n/a
3375590	RECOG_LURE	n/a	LTP139	ltpFR	5	3	n/a	RELISH	1183	0	4	n/a	n/a	n/a	n/a	n/a	n/a
3376543	RECOG_RESP	n/a	LTP139	ltpFR	5	3	n/a	RELISH	1183	0	n/a	n/a	n/a	n/a	n/a	n/a	n/a
3377536	RECOG_CONF	n/a	LTP139	ltpFR	5	3	n/a	RELISH	1183	n/a	4	n/a	n/a	n/a	n/a	n/a	n/a
3379011	RECOG_TARGET	n/a	LTP139	ltpFR	5	3	-1	STUDENT	1395	1	5	-1	n/a	n/a	n/a	n/a	n/a
3379656	RECOG_RESP	n/a	LTP139	ltpFR	5	3	-1	STUDENT	1395	1	n/a	-1	n/a	n/a	n/a	n/a	n/a
3380439	RECOG_CONF	n/a	LTP139	ltpFR	5	3	-1	STUDENT	1395	n/a	5	-1	n/a	n/a	n/a	n/a	n/a
3382000	RECOG_TARGET	n/a	LTP139	ltpFR	5	3	0	TOWER	1490	1	5	1	n/a	n/a	n/a	n/a	n/a
3382635	RECOG_RESP	n/a	LTP139	ltpFR	5	3	0	TOWER	1490	1	n/a	1	n/a	n/a	n/a	n/a	n/a
3383448	RECOG_CONF	n/a	LTP139	ltpFR	5	3	0	TOWER	1490	n/a	5	1	n/a	n/a	n/a	n/a	n/a
3384988	RECOG_TARGET	n/a	LTP139	ltpFR	5	3	-1	WOLF	1619	1	5	-1	n/a	n/a	n/a	n/a	n/a
3385568	RECOG_RESP	n/a	LTP139	ltpFR	5	3	-1	WOLF	1619	1	n/a	-1	n/a	n/a	n/a	n/a	n/a
3386406	RECOG_CONF	n/a	LTP139	ltpFR	5	3	-1	WOLF	1619	n/a	5	-1	n/a	n/a	n/a	n/a	n/a
3387976	RECOG_TARGET	n/a	LTP139	ltpFR	5	3	0	CHEF	290	1	5	1	n/a	n/a	n/a	n/a	n/a
3388701	RECOG_RESP	n/a	LTP139	ltpFR	5	3	0	CHEF	290	1	n/a	1	n/a	n/a	n/a	n/a	n/a
3389669	RECOG_CONF	n/a	LTP139	ltpFR	5	3	0	CHEF	290	n/a	5	1	n/a	n/a	n/a	n/a	n/a
3391240	RECOG_LURE	n/a	LTP139	ltpFR	5	3	n/a	NUCLEUS	961	0	4	n/a	n/a	n/a	n/a	n/a	n/a
3392253	RECOG_RESP	n/a	LTP139	ltpFR	5	3	n/a	NUCLEUS	961	0	n/a	n/a	n/a	n/a	n/a	n/a	n/a
3393285	RECOG_CONF	n/a	LTP139	ltpFR	5	3	n/a	NUCLEUS	961	n/a	4	n/a	n/a	n/a	n/a	n/a	n/a
3394826	RECOG_TARGET	n/a	LTP139	ltpFR	5	3	-1	COMPUTER	359	1	5	-1	n/a	n/a	n/a	n/a	n/a
3395485	RECOG_RESP	n/a	LTP139	ltpFR	5	3	-1	COMPUTER	359	1	n/a	-1	n/a	n/a	n/a	n/a	n/a
3396373	RECOG_CONF	n/a	LTP139	ltpFR	5	3	-1	COMPUTER	359	n/a	5	-1	n/a	n/a	n/a	n/a	n/a
3397939	RECOG_TARGET	n/a	LTP139	ltpFR	5	3	1	FUNGUS	614	1	5	1	n/a	n/a	n/a	n/a	n/a
3398543	RECOG_RESP	n/a	LTP139	ltpFR	5	3	1	FUNGUS	614	1	n/a	1	n/a	n/a	n/a	n/a	n/a
3399556	RECOG_CONF	n/a	LTP139	ltpFR	5	3	1	FUNGUS	614	n/a	5	1	n/a	n/a	n/a	n/a	n/a
3401119	RECOG_TARGET	n/a	LTP139	ltpFR	5	3	1	PIRATE	1074	1	2	1	n/a	n/a	n/a	n/a	n/a
3401966	RECOG_RESP	n/a	LTP139	ltpFR	5	3	1	PIRATE	1074	1	n/a	1	n/a	n/a	n/a	n/a	n/a
3404789	RECOG_CONF	n/a	LTP139	ltpFR	5	3	1	PIRATE	1074	n/a	2	1	n/a	n/a	n/a	n/a	n/a
3406281	RECOG_TARGET	n/a	LTP139	ltpFR	5	3	-1	BAND	78	1	5	-1	n/a	n/a	n/a	n/a	n/a
3407556	RECOG_RESP	n/a	LTP139	ltpFR	5	3	-1	BAND	78	1	n/a	-1	n/a	n/a	n/a	n/a	n/a
3408306	RECOG_CONF	n/a	LTP139	ltpFR	5	3	-1	BAND	78	n/a	5	-1	n/a	n/a	n/a	n/a	n/a
3409917	RECOG_TARGET	n/a	LTP139	ltpFR	5	3	0	GRASS	655	1	4	0	n/a	n/a	n/a	n/a	n/a
3410916	RECOG_RESP	n/a	LTP139	ltpFR	5	3	0	GRASS	655	1	n/a	0	n/a	n/a	n/a	n/a	n/a
3412068	RECOG_CONF	n/a	LTP139	ltpFR	5	3	0	GRASS	655	n/a	4	0	n/a	n/a	n/a	n/a	n/a
3413488	RECOG_LURE	n/a	LTP139	ltpFR	5	3	n/a	MONKEY	911	0	4	n/a	n/a	n/a	n/a	n/a	n/a
3414402	RECOG_RESP	n/a	LTP139	ltpFR	5	3	n/a	MONKEY	911	0	n/a	n/a	n/a	n/a	n/a	n/a	n/a
3415388	RECOG_CONF	n/a	LTP139	ltpFR	5	3	n/a	MONKEY	911	n/a	4	n/a	n/a	n/a	n/a	n/a	n/a
3417026	RECOG_TARGET	n/a	LTP139	ltpFR	5	3	1	CHIPMUNK	304	1	2	1	n/a	n/a	n/a	n/a	n/a
3419234	RECOG_RESP	n/a	LTP139	ltpFR	5	3	1	CHIPMUNK	304	1	n/a	1	n/a	n/a	n/a	n/a	n/a
3420273	RECOG_CONF	n/a	LTP139	ltpFR	5	3	1	CHIPMUNK	304	n/a	2	1	n/a	n/a	n/a	n/a	n/a
3421728	RECOG_TARGET	n/a	LTP139	ltpFR	5	3	1	PRAIRIE	1118	0	2	0	n/a	n/a	n/a	n/a	n/a
3423212	RECOG_RESP	n/a	LTP139	ltpFR	5	3	1	PRAIRIE	1118	0	n/a	0	n/a	n/a	n/a	n/a	n/a
3424321	RECOG_CONF	n/a	LTP139	ltpFR	5	3	1	PRAIRIE	1118	n/a	2	0	n/a	n/a	n/a	n/a	n/a
3425749	RECOG_LURE	n/a	LTP139	ltpFR	5	3	n/a	OUTLAW	989	0	2	n/a	n/a	n/a	n/a	n/a	n/a
3427837	RECOG_RESP	n/a	LTP139	ltpFR	5	3	n/a	OUTLAW	989	0	n/a	n/a	n/a	n/a	n/a	n/a	n/a
3428974	RECOG_CONF	n/a	LTP139	ltpFR	5	3	n/a	OUTLAW	989	n/a	2	n/a	n/a	n/a	n/a	n/a	n/a
3430518	RECOG_TARGET	n/a	LTP139	ltpFR	5	3	0	PAIL	1002	1	4	1	n/a	n/a	n/a	n/a	n/a
3431199	RECOG_RESP	n/a	LTP139	ltpFR	5	3	0	PAIL	1002	1	n/a	1	n/a	n/a	n/a	n/a	n/a
3432152	RECOG_CONF	n/a	LTP139	ltpFR	5	3	0	PAIL	1002	n/a	4	1	n/a	n/a	n/a	n/a	n/a
3433531	RECOG_TARGET	n/a	LTP139	ltpFR	5	3	-1	CARRIAGE	248	1	5	-1	n/a	n/a	n/a	n/a	n/a
3434197	RECOG_RESP	n/a	LTP139	ltpFR	5	3	-1	CARRIAGE	248	1	n/a	-1	n/a	n/a	n/a	n/a	n/a
3435111	RECOG_CONF	n/a	LTP139	ltpFR	5	3	-1	CARRIAGE	248	n/a	5	-1	n/a	n/a	n/a	n/a	n/a
3436578	RECOG_TARGET	n/a	LTP139	ltpFR	5	3	0	STEM	1376	1	5	0	n/a	n/a	n/a	n/a	n/a
3437235	RECOG_RESP	n/a	LTP139	ltpFR	5	3	0	STEM	1376	1	n/a	0	n/a	n/a	n/a	n/a	n/a
3438148	RECOG_CONF	n/a	LTP139	ltpFR	5	3	0	STEM	1376	n/a	5	0	n/a	n/a	n/a	n/a	n/a
3439649	RECOG_LURE	n/a	LTP139	ltpFR	5	3	n/a	CABIN	211	0	1	n/a	n/a	n/a	n/a	n/a	n/a
3443506	RECOG_RESP	n/a	LTP139	ltpFR	5	3	n/a	CABIN	211	0	n/a	n/a	n/a	n/a	n/a	n/a	n/a
3444504	RECOG_CONF	n/a	LTP139	ltpFR	5	3	n/a	CABIN	211	n/a	1	n/a	n/a	n/a	n/a	n/a	n/a
3454066	REC_START	n/a	LTP139	ltpFR	5	4	n/a	n/a	n/a	n/a	n/a	n/a	n/a	n/a	n/a	n/a	n/a
3454091	RECOG_TARGET	n/a	LTP139	ltpFR	5	4	-1	ARTICLE	42	1	2	-1	n/a	n/a	n/a	n/a	n/a
3454927	RECOG_RESP	n/a	LTP139	ltpFR	5	4	-1	ARTICLE	42	1	n/a	-1	n/a	n/a	n/a	n/a	n/a
3456150	RECOG_CONF	n/a	LTP139	ltpFR	5	4	-1	ARTICLE	42	n/a	2	-1	n/a	n/a	n/a	n/a	n/a
3457645	RECOG_LURE	n/a	LTP139	ltpFR	5	4	n/a	LEG	809	0	4	n/a	n/a	n/a	n/a	n/a	n/a
3458612	RECOG_RESP	n/a	LTP139	ltpFR	5	4	n/a	LEG	809	0	n/a	n/a	n/a	n/a	n/a	n/a	n/a
3459678	RECOG_CONF	n/a	LTP139	ltpFR	5	4	n/a	LEG	809	n/a	4	n/a	n/a	n/a	n/a	n/a	n/a
3461225	RECOG_TARGET	n/a	LTP139	ltpFR	5	4	0	VILLAGE	1566	1	4	1	n/a	n/a	n/a	n/a	n/a
3462097	RECOG_RESP	n/a	LTP139	ltpFR	5	4	0	VILLAGE	1566	1	n/a	1	n/a	n/a	n/a	n/a	n/a
3462980	RECOG_CONF	n/a	LTP139	ltpFR	5	4	0	VILLAGE	1566	n/a	4	1	n/a	n/a	n/a	n/a	n/a
3464537	RECOG_TARGET	n/a	LTP139	ltpFR	5	4	-1	COD	340	1	5	-1	n/a	n/a	n/a	n/a	n/a
3465141	RECOG_RESP	n/a	LTP139	ltpFR	5	4	-1	COD	340	1	n/a	-1	n/a	n/a	n/a	n/a	n/a
3465884	RECOG_CONF	n/a	LTP139	ltpFR	5	4	-1	COD	340	n/a	5	-1	n/a	n/a	n/a	n/a	n/a
3467476	RECOG_LURE	n/a	LTP139	ltpFR	5	4	n/a	COOK	372	0	4	n/a	n/a	n/a	n/a	n/a	n/a
3468398	RECOG_RESP	n/a	LTP139	ltpFR	5	4	n/a	COOK	372	0	n/a	n/a	n/a	n/a	n/a	n/a	n/a
3469346	RECOG_CONF	n/a	LTP139	ltpFR	5	4	n/a	COOK	372	n/a	4	n/a	n/a	n/a	n/a	n/a	n/a
3470847	RECOG_TARGET	n/a	LTP139	ltpFR	5	4	0	LOOP	844	1	5	0	n/a	n/a	n/a	n/a	n/a
3471516	RECOG_RESP	n/a	LTP139	ltpFR	5	4	0	LOOP	844	1	n/a	0	n/a	n/a	n/a	n/a	n/a
3472419	RECOG_CONF	n/a	LTP139	ltpFR	5	4	0	LOOP	844	n/a	5	0	n/a	n/a	n/a	n/a	n/a
3473810	RECOG_TARGET	n/a	LTP139	ltpFR	5	4	-1	MANSION	864	1	5	-1	n/a	n/a	n/a	n/a	n/a
3474544	RECOG_RESP	n/a	LTP139	ltpFR	5	4	-1	MANSION	864	1	n/a	-1	n/a	n/a	n/a	n/a	n/a
3475407	RECOG_CONF	n/a	LTP139	ltpFR	5	4	-1	MANSION	864	n/a	5	-1	n/a	n/a	n/a	n/a	n/a
3476998	RECOG_TARGET	n/a	LTP139	ltpFR	5	4	0	ROBOT	1200	1	5	1	n/a	n/a	n/a	n/a	n/a
3477564	RECOG_RESP	n/a	LTP139	ltpFR	5	4	0	ROBOT	1200	1	n/a	1	n/a	n/a	n/a	n/a	n/a
3478370	RECOG_CONF	n/a	LTP139	ltpFR	5	4	0	ROBOT	1200	n/a	5	1	n/a	n/a	n/a	n/a	n/a
3480003	RECOG_TARGET	n/a	LTP139	ltpFR	5	4	-1	DISHWASHER	475	1	5	-1	n/a	n/a	n/a	n/a	n/a
3480675	RECOG_RESP	n/a	LTP139	ltpFR	5	4	-1	DISHWASHER	475	1	n/a	-1	n/a	n/a	n/a	n/a	n/a
3481558	RECOG_CONF	n/a	LTP139	ltpFR	5	4	-1	DISHWASHER	475	n/a	5	-1	n/a	n/a	n/a	n/a	n/a
3483008	RECOG_TARGET	n/a	LTP139	ltpFR	5	4	-1	PAN	1008	1	5	-1	n/a	n/a	n/a	n/a	n/a
3483741	RECOG_RESP	n/a	LTP139	ltpFR	5	4	-1	PAN	1008	1	n/a	-1	n/a	n/a	n/a	n/a	n/a
3484701	RECOG_CONF	n/a	LTP139	ltpFR	5	4	-1	PAN	1008	n/a	5	-1	n/a	n/a	n/a	n/a	n/a
3486104	RECOG_TARGET	n/a	LTP139	ltpFR	5	4	1	WALRUS	1585	1	5	1	n/a	n/a	n/a	n/a	n/a
3486637	RECOG_RESP	n/a	LTP139	ltpFR	5	4	1	WALRUS	1585	1	n/a	1	n/a	n/a	n/a	n/a	n/a
3487564	RECOG_CONF	n/a	LTP139	ltpFR	5	4	1	WALRUS	1585	n/a	5	1	n/a	n/a	n/a	n/a	n/a
3489150	RECOG_TARGET	n/a	LTP139	ltpFR	5	4	1	FRIEND	606	1	5	1	n/a	n/a	n/a	n/a	n/a
3489929	RECOG_RESP	n/a	LTP139	ltpFR	5	4	1	FRIEND	606	1	n/a	1	n/a	n/a	n/a	n/a	n/a
3490747	RECOG_CONF	n/a	LTP139	ltpFR	5	4	1	FRIEND	606	n/a	5	1	n/a	n/a	n/a	n/a	n/a
3492439	RECOG_TARGET	n/a	LTP139	ltpFR	5	4	0	CRATER	400	1	5	1	n/a	n/a	n/a	n/a	n/a
3493097	RECOG_RESP	n/a	LTP139	ltpFR	5	4	0	CRATER	400	1	n/a	1	n/a	n/a	n/a	n/a	n/a
3494080	RECOG_CONF	n/a	LTP139	ltpFR	5	4	0	CRATER	400	n/a	5	1	n/a	n/a	n/a	n/a	n/a
3495551	RECOG_TARGET	n/a	LTP139	ltpFR	5	4	1	SURF	1412	1	1	0	n/a	n/a	n/a	n/a	n/a
3496225	RECOG_RESP	n/a	LTP139	ltpFR	5	4	1	SURF	1412	1	n/a	0	n/a	n/a	n/a	n/a	n/a
3498498	RECOG_CONF	n/a	LTP139	ltpFR	5	4	1	SURF	1412	n/a	1	0	n/a	n/a	n/a	n/a	n/a
3500121	RECOG_TARGET	n/a	LTP139	ltpFR	5	4	0	SUBMARINE	1398	1	5	1	n/a	n/a	n/a	n/a	n/a
3500824	RECOG_RESP	n/a	LTP139	ltpFR	5	4	0	SUBMARINE	1398	1	n/a	1	n/a	n/a	n/a	n/a	n/a
3501700	RECOG_CONF	n/a	LTP139	ltpFR	5	4	0	SUBMARINE	1398	n/a	5	1	n/a	n/a	n/a	n/a	n/a
3503177	RECOG_TARGET	n/a	LTP139	ltpFR	5	4	0	SERVER	1272	1	5	1	n/a	n/a	n/a	n/a	n/a
3504052	RECOG_RESP	n/a	LTP139	ltpFR	5	4	0	SERVER	1272	1	n/a	1	n/a	n/a	n/a	n/a	n/a
3504945	RECOG_CONF	n/a	LTP139	ltpFR	5	4	0	SERVER	1272	n/a	5	1	n/a	n/a	n/a	n/a	n/a
3506505	RECOG_TARGET	n/a	LTP139	ltpFR	5	4	0	BRUSH	182	1	5	0	n/a	n/a	n/a	n/a	n/a
3507125	RECOG_RESP	n/a	LTP139	ltpFR	5	4	0	BRUSH	182	1	n/a	0	n/a	n/a	n/a	n/a	n/a
3507959	RECOG_CONF	n/a	LTP139	ltpFR	5	4	0	BRUSH	182	n/a	5	0	n/a	n/a	n/a	n/a	n/a
3509486	RECOG_TARGET	n/a	LTP139	ltpFR	5	4	1	SCREEN	1253	0	4	0	n/a	n/a	n/a	n/a	n/a
3510547	RECOG_RESP	n/a	LTP139	ltpFR	5	4	1	SCREEN	1253	0	n/a	0	n/a	n/a	n/a	n/a	n/a
3511485	RECOG_CONF	n/a	LTP139	ltpFR	5	4	1	SCREEN	1253	n/a	4	0	n/a	n/a	n/a	n/a	n/a
3513031	RECOG_LURE	n/a	LTP139	ltpFR	5	4	n/a	INSTRUCTOR	741	0	4	n/a	n/a	n/a	n/a	n/a	n/a
3514154	RECOG_RESP	n/a	LTP139	ltpFR	5	4	n/a	INSTRUCTOR	741	0	n/a	n/a	n/a	n/a	n/a	n/a	n/a
3515042	RECOG_CONF	n/a	LTP139	ltpFR	5	4	n/a	INSTRUCTOR	741	n/a	4	n/a	n/a	n/a	n/a	n/a	n/a
3516610	RECOG_TARGET	n/a	LTP139	ltpFR	5	4	-1	SNORKEL	1336	1	5	-1	n/a	n/a	n/a	n/a	n/a
3517347	RECOG_RESP	n/a	LTP139	ltpFR	5	4	-1	SNORKEL	1336	1	n/a	-1	n/a	n/a	n/a	n/a	n/a
3518295	RECOG_CONF	n/a	LTP139	ltpFR	5	4	-1	SNORKEL	1336	n/a	5	-1	n/a	n/a	n/a	n/a	n/a
3531884	REC_START	n/a	LTP139	ltpFR	5	5	n/a	n/a	n/a	n/a	n/a	n/a	n/a	n/a	n/a	n/a	n/a
3531917	RECOG_TARGET	n/a	LTP139	ltpFR	5	5	0	MILITARY	894	1	5	1	n/a	n/a	n/a	n/a	n/a
3532875	RECOG_RESP	n/a	LTP139	ltpFR	5	5	0	MILITARY	894	1	n/a	1	n/a	n/a	n/a	n/a	n/a
3533615	RECOG_CONF	n/a	LTP139	ltpFR	5	5	0	MILITARY	894	n/a	5	1	n/a	n/a	n/a	n/a	n/a
3535206	RECOG_LURE	n/a	LTP139	ltpFR	5	5	n/a	CUPBOARD	425	0	4	n/a	n/a	n/a	n/a	n/a	n/a
3537122	RECOG_RESP	n/a	LTP139	ltpFR	5	5	n/a	CUPBOARD	425	0	n/a	n/a	n/a	n/a	n/a	n/a	n/a
3538059	RECOG_CONF	n/a	LTP139	ltpFR	5	5	n/a	CUPBOARD	425	n/a	4	n/a	n/a	n/a	n/a	n/a	n/a
3539767	RECOG_TARGET	n/a	LTP139	ltpFR	5	5	0	SQUID	1361	1	5	1	n/a	n/a	n/a	n/a	n/a
3540619	RECOG_RESP	n/a	LTP139	ltpFR	5	5	0	SQUID	1361	1	n/a	1	n/a	n/a	n/a	n/a	n/a
3541537	RECOG_CONF	n/a	LTP139	ltpFR	5	5	0	SQUID	1361	n/a	5	1	n/a	n/a	n/a	n/a	n/a
3543164	RECOG_TARGET	n/a	LTP139	ltpFR	5	5	-1	COACH	331	1	4	-1	n/a	n/a	n/a	n/a	n/a
3543896	RECOG_RESP	n/a	LTP139	ltpFR	5	5	-1	COACH	331	1	n/a	-1	n/a	n/a	n/a	n/a	n/a
3544869	RECOG_CONF	n/a	LTP139	ltpFR	5	5	-1	COACH	331	n/a	4	-1	n/a	n/a	n/a	n/a	n/a
3546427	RECOG_TARGET	n/a	LTP139	ltpFR	5	5	-1	DINOSAUR	469	1	5	-1	n/a	n/a	n/a	n/a	n/a
3546969	RECOG_RESP	n/a	LTP139	ltpFR	5	5	-1	DINOSAUR	469	1	n/a	-1	n/a	n/a	n/a	n/a	n/a
3547812	RECOG_CONF	n/a	LTP139	ltpFR	5	5	-1	DINOSAUR	469	n/a	5	-1	n/a	n/a	n/a	n/a	n/a
3549298	RECOG_TARGET	n/a	LTP139	ltpFR	5	5	1	CAMEL	223	1	5	1	n/a	n/a	n/a	n/a	n/a
3549917	RECOG_RESP	n/a	LTP139	ltpFR	5	5	1	CAMEL	223	1	n/a	1	n/a	n/a	n/a	n/a	n/a
3550696	RECOG_CONF	n/a	LTP139	ltpFR	5	5	1	CAMEL	223	n/a	5	1	n/a	n/a	n/a	n/a	n/a
3552253	RECOG_TARGET	n/a	LTP139	ltpFR	5	5	-1	JUNGLE	764	1	5	-1	n/a	n/a	n/a	n/a	n/a
3552991	RECOG_RESP	n/a	LTP139	ltpFR	5	5	-1	JUNGLE	764	1	n/a	-1	n/a	n/a	n/a	n/a	n/a
3553859	RECOG_CONF	n/a	LTP139	ltpFR	5	5	-1	JUNGLE	764	n/a	5	-1	n/a	n/a	n/a	n/a	n/a
3555341	RECOG_TARGET	n/a	LTP139	ltpFR	5	5	1	INMATE	738	1	3	1	n/a	n/a	n/a	n/a	n/a
3556488	RECOG_RESP	n/a	LTP139	ltpFR	5	5	1	INMATE	738	1	n/a	1	n/a	n/a	n/a	n/a	n/a
3557470	RECOG_CONF	n/a	LTP139	ltpFR	5	5	1	INMATE	738	n/a	3	1	n/a	n/a	n/a	n/a	n/a
3559019	RECOG_LURE	n/a	LTP139	ltpFR	5	5	n/a	MATCH	878	0	1	n/a	n/a	n/a	n/a	n/a	n/a
3560324	RECOG_RESP	n/a	LTP139	ltpFR	5	5	n/a	MATCH	878	0	n/a	n/a	n/a	n/a	n/a	n/a	n/a
3561721	RECOG_CONF	n/a	LTP139	ltpFR	5	5	n/a	MATCH	878	n/a	1	n/a	n/a	n/a	n/a	n/a	n/a
3563157	RECOG_TARGET	n/a	LTP139	ltpFR	5	5	0	BRIDGE	174	0	4	1	n/a	n/a	n/a	n/a	n/a
3564654	RECOG_RESP	n/a	LTP139	ltpFR	5	5	0	BRIDGE	174	0	n/a	1	n/a	n/a	n/a	n/a	n/a
3565612	RECOG_CONF	n/a	LTP139	ltpFR	5	5	0	BRIDGE	174	n/a	4	1	n/a	n/a	n/a	n/a	n/a
3567135	RECOG_TARGET	n/a	LTP139	ltpFR	5	5	-1	BLUEPRINT	142	1	5	-1	n/a	n/a	n/a	n/a	n/a
3567982	RECOG_RESP	n/a	LTP139	ltpFR	5	5	-1	BLUEPRINT	142	1	n/a	-1	n/a	n/a	n/a	n/a	n/a
3568944	RECOG_CONF	n/a	LTP139	ltpFR	5	5	-1	BLUEPRINT	142	n/a	5	-1	n/a	n/a	n/a	n/a	n/a
3570498	RECOG_LURE	n/a	LTP139	ltpFR	5	5	n/a	OVAL	990	0	5	n/a	n/a	n/a	n/a	n/a	n/a
3571224	RECOG_RESP	n/a	LTP139	ltpFR	5	5	n/a	OVAL	990	0	n/a	n/a	n/a	n/a	n/a	n/a	n/a
3572147	RECOG_CONF	n/a	LTP139	ltpFR	5	5	n/a	OVAL	990	n/a	5	n/a	n/a	n/a	n/a	n/a	n/a
3573752	RECOG_TARGET	n/a	LTP139	ltpFR	5	5	-1	SHED	1277	1	4	-1	n/a	n/a	n/a	n/a	n/a
3574443	RECOG_RESP	n/a	LTP139	ltpFR	5	5	-1	SHED	1277	1	n/a	-1	n/a	n/a	n/a	n/a	n/a
3575350	RECOG_CONF	n/a	LTP139	ltpFR	5	5	-1	SHED	1277	n/a	4	-1	n/a	n/a	n/a	n/a	n/a
3576882	RECOG_TARGET	n/a	LTP139	ltpFR	5	5	0	FAUCET	555	1	5	1	n/a	n/a	n/a	n/a	n/a
3577476	RECOG_RESP	n/a	LTP139	ltpFR	5	5	0	FAUCET	555	1	n/a	1	n/a	n/a	n/a	n/a	n/a
3578428	RECOG_CONF	n/a	LTP139	ltpFR	5	5	0	FAUCET	555	n/a	5	1	n/a	n/a	n/a	n/a	n/a
3579937	RECOG_TARGET	n/a	LTP139	ltpFR	5	5	0	HAIL	676	1	4	0	n/a	n/a	n/a	n/a	n/a
3582983	RECOG_RESP	n/a	LTP139	ltpFR	5	5	0	HAIL	676	1	n/a	0	n/a	n/a	n/a	n/a	n/a
3583810	RECOG_CONF	n/a	LTP139	ltpFR	5	5	0	HAIL	676	n/a	4	0	n/a	n/a	n/a	n/a	n/a
3585539	RECOG_TARGET	n/a	LTP139	ltpFR	5	5	1	BEDROOM	111	1	5	0	n/a	n/a	n/a	n/a	n/a
3586254	RECOG_RESP	n/a	LTP139	ltpFR	5	5	1	BEDROOM	111	1	n/a	0	n/a	n/a	n/a	n/a	n/a
3587093	RECOG_CONF	n/a	LTP139	ltpFR	5	5	1	BEDROOM	111	n/a	5	0	n/a	n/a	n/a	n/a	n/a
3588643	RECOG_TARGET	n/a	LTP139	ltpFR	5	5	1	LIST	830	1	5	0	n/a	n/a	n/a	n/a	n/a
3590069	RECOG_RESP	n/a	LTP139	ltpFR	5	5	1	LIST	830	1	n/a	0	n/a	n/a	n/a	n/a	n/a
3590954	RECOG_CONF	n/a	LTP139	ltpFR	5	5	1	LIST	830	n/a	5	0	n/a	n/a	n/a	n/a	n/a
3592448	RECOG_TARGET	n/a	LTP139	ltpFR	5	5	-1	DRUM	502	1	5	-1	n/a	n/a	n/a	n/a	n/a
3593474	RECOG_RESP	n/a	LTP139	ltpFR	5	5	-1	DRUM	502	1	n/a	-1	n/a	n/a	n/a	n/a	n/a
3594497	RECOG_CONF	n/a	LTP139	ltpFR	5	5	-1	DRUM	502	n/a	5	-1	n/a	n/a	n/a	n/a	n/a
3596002	RECOG_TARGET	n/a	LTP139	ltpFR	5	5	1	TRAY	1498	1	5	0	n/a	n/a	n/a	n/a	n/a
3596696	RECOG_RESP	n/a	LTP139	ltpFR	5	5	1	TRAY	1498	1	n/a	0	n/a	n/a	n/a	n/a	n/a
3597599	RECOG_CONF	n/a	LTP139	ltpFR	5	5	1	TRAY	1498	n/a	5	0	n/a	n/a	n/a	n/a	n/a
3599307	RECOG_LURE	n/a	LTP139	ltpFR	5	5	n/a	CYLINDER	432	0	5	n/a	n/a	n/a	n/a	n/a	n/a
3599994	RECOG_RESP	n/a	LTP139	ltpFR	5	5	n/a	CYLINDER	432	0	n/a	n/a	n/a	n/a	n/a	n/a	n/a
3600782	RECOG_CONF	n/a	LTP139	ltpFR	5	5	n/a	CYLINDER	432	n/a	5	n/a	n/a	n/a	n/a	n/a	n/a
3610912	REC_START	n/a	LTP139	ltpFR	5	6	n/a	n/a	n/a	n/a	n/a	n/a	n/a	n/a	n/a	n/a	n/a
3610943	RECOG_LURE	n/a	LTP139	ltpFR	5	6	n/a	WIFE	1609	0	3	n/a	n/a	n/a	n/a	n/a	n/a
3612207	RECOG_RESP	n/a	LTP139	ltpFR	5	6	n/a	WIFE	1609	0	n/a	n/a	n/a	n/a	n/a	n/a	n/a
3613121	RECOG_CONF	n/a	LTP139	ltpFR	5	6	n/a	WIFE	1609	n/a	3	n/a	n/a	n/a	n/a	n/a	n/a
3614780	RECOG_TARGET	n/a	LTP139	ltpFR	5	6	1	OTTER	986	1	5	1	n/a	n/a	n/a	n/a	n/a
3615725	RECOG_RESP	n/a	LTP139	ltpFR	5	6	1	OTTER	986	1	n/a	1	n/a	n/a	n/a	n/a	n/a
3616584	RECOG_CONF	n/a	LTP139	ltpFR	5	6	1	OTTER	986	n/a	5	1	n/a	n/a	n/a	n/a	n/a
3618177	RECOG_LURE	n/a	LTP139	ltpFR	5	6	n/a	PURSE	1145	0	4	n/a	n/a	n/a	n/a	n/a	n/a
3618864	RECOG_RESP	n/a	LTP139	ltpFR	5	6	n/a	PURSE	1145	0	n/a	n/a	n/a	n/a	n/a	n/a	n/a
3619736	RECOG_CONF	n/a	LTP139	ltpFR	5	6	n/a	PURSE	1145	n/a	4	n/a	n/a	n/a	n/a	n/a	n/a
3621398	RECOG_TARGET	n/a	LTP139	ltpFR	5	6	0	LAKE	796	1	2	1	n/a	n/a	n/a	n/a	n/a
3624516	RECOG_RESP	n/a	LTP139	ltpFR	5	6	0	LAKE	796	1	n/a	1	n/a	n/a	n/a	n/a	n/a
3625493	RECOG_CONF	n/a	LTP139	ltpFR	5	6	0	LAKE	796	n/a	2	1	n/a	n/a	n/a	n/a	n/a
3626982	RECOG_LURE	n/a	LTP139	ltpFR	5	6	n/a	PERISCOPE	1050	1	1	n/a	n/a	n/a	n/a	n/a	n/a
3628786	RECOG_RESP	n/a	LTP139	ltpFR	5	6	n/a	PERISCOPE	1050	1	n/a	n/a	n/a	n/a	n/a	n/a	n/a
3629894	RECOG_CONF	n/a	LTP139	ltpFR	5	6	n/a	PERISCOPE	1050	n/a	1	n/a	n/a	n/a	n/a	n/a	n/a
3631387	RECOG_TARGET	n/a	LTP139	ltpFR	5	6	-1	STAR	1373	1	5	-1	n/a	n/a	n/a	n/a	n/a
3632019	RECOG_RESP	n/a	LTP139	ltpFR	5	6	-1	STAR	1373	1	n/a	-1	n/a	n/a	n/a	n/a	n/a
3632866	RECOG_CONF	n/a	LTP139	ltpFR	5	6	-1	STAR	1373	n/a	5	-1	n/a	n/a	n/a	n/a	n/a
3634475	RECOG_TARGET	n/a	LTP139	ltpFR	5	6	0	THIGH	1457	1	5	1	n/a	n/a	n/a	n/a	n/a
3635157	RECOG_RESP	n/a	LTP139	ltpFR	5	6	0	THIGH	1457	1	n/a	1	n/a	n/a	n/a	n/a	n/a
3635980	RECOG_CONF	n/a	LTP139	ltpFR	5	6	0	THIGH	1457	n/a	5	1	n/a	n/a	n/a	n/a	n/a
3637645	RECOG_TARGET	n/a	LTP139	ltpFR	5	6	0	JEWEL	757	1	4	0	n/a	n/a	n/a	n/a	n/a
3638814	RECOG_RESP	n/a	LTP139	ltpFR	5	6	0	JEWEL	757	1	n/a	0	n/a	n/a	n/a	n/a	n/a
3639741	RECOG_CONF	n/a	LTP139	ltpFR	5	6	0	JEWEL	757	n/a	4	0	n/a	n/a	n/a	n/a	n/a
3641242	RECOG_LURE	n/a	LTP139	ltpFR	5	6	n/a	SILVERWARE	1308	0	4	n/a	n/a	n/a	n/a	n/a	n/a
3642418	RECOG_RESP	n/a	LTP139	ltpFR	5	6	n/a	SILVERWARE	1308	0	n/a	n/a	n/a	n/a	n/a	n/a	n/a
3643303	RECOG_CONF	n/a	LTP139	ltpFR	5	6	n/a	SILVERWARE	1308	n/a	4	n/a	n/a	n/a	n/a	n/a	n/a
3644962	RECOG_TARGET	n/a	LTP139	ltpFR	5	6	1	HERD	705	1	4	1	n/a	n/a	n/a	n/a	n/a
3646293	RECOG_RESP	n/a	LTP139	ltpFR	5	6	1	HERD	705	1	n/a	1	n/a	n/a	n/a	n/a	n/a
3647184	RECOG_CONF	n/a	LTP139	ltpFR	5	6	1	HERD	705	n/a	4	1	n/a	n/a	n/a	n/a	n/a
3648815	RECOG_LURE	n/a	LTP139	ltpFR	5	6	n/a	DORM	488	0	5	n/a	n/a	n/a	n/a	n/a	n/a
3649614	RECOG_RESP	n/a	LTP139	ltpFR	5	6	n/a	DORM	488	0	n/a	n/a	n/a	n/a	n/a	n/a	n/a
3650526	RECOG_CONF	n/a	LTP139	ltpFR	5	6	n/a	DORM	488	n/a	5	n/a	n/a	n/a	n/a	n/a	n/a
3652053	RECOG_LURE	n/a	LTP139	ltpFR	5	6	n/a	SHRUB	1299	0	4	n/a	n/a	n/a	n/a	n/a	n/a
3652826	RECOG_RESP_VV	n/a	LTP139	ltpFR	5	6	n/a	SHRUB	1299	1	n/a	n/a	n/a	n/a	n/a	n/a	n/a
3653425	RECOG_RESP	n/a	LTP139	ltpFR	5	6	n/a	SHRUB	1299	0	n/a	n/a	n/a	n/a	n/a	n/a	n/a
3654278	RECOG_CONF	n/a	LTP139	ltpFR	5	6	n/a	SHRUB	1299	n/a	4	n/a	n/a	n/a	n/a	n/a	n/a
3655907	RECOG_TARGET	n/a	LTP139	ltpFR	5	6	1	FIG	563	1	5	1	n/a	n/a	n/a	n/a	n/a
3656563	RECOG_RESP	n/a	LTP139	ltpFR	5	6	1	FIG	563	1	n/a	1	n/a	n/a	n/a	n/a	n/a
3657411	RECOG_CONF	n/a	LTP139	ltpFR	5	6	1	FIG	563	n/a	5	1	n/a	n/a	n/a	n/a	n/a
3658995	RECOG_TARGET	n/a	LTP139	ltpFR	5	6	0	SUPPER	1411	1	5	0	n/a	n/a	n/a	n/a	n/a
3659891	RECOG_RESP	n/a	LTP139	ltpFR	5	6	0	SUPPER	1411	1	n/a	0	n/a	n/a	n/a	n/a	n/a
3660703	RECOG_CONF	n/a	LTP139	ltpFR	5	6	0	SUPPER	1411	n/a	5	0	n/a	n/a	n/a	n/a	n/a
3662309	RECOG_TARGET	n/a	LTP139	ltpFR	5	6	1	RECEPTIONIST	1174	1	2	1	n/a	n/a	n/a	n/a	n/a
3664176	RECOG_RESP	n/a	LTP139	ltpFR	5	6	1	RECEPTIONIST	1174	1	n/a	1	n/a	n/a	n/a	n/a	n/a
3665148	RECOG_CONF	n/a	LTP139	ltpFR	5	6	1	RECEPTIONIST	1174	n/a	2	1	n/a	n/a	n/a	n/a	n/a
3666595	RECOG_TARGET	n/a	LTP139	ltpFR	5	6	1	SWEATER	1419	1	4	0	n/a	n/a	n/a	n/a	n/a
3667583	RECOG_RESP	n/a	LTP139	ltpFR	5	6	1	SWEATER	1419	1	n/a	0	n/a	n/a	n/a	n/a	n/a
3668456	RECOG_CONF	n/a	LTP139	ltpFR	5	6	1	SWEATER	1419	n/a	4	0	n/a	n/a	n/a	n/a	n/a
3669958	RECOG_TARGET	n/a	LTP139	ltpFR	5	6	0	TYPEWRITER	1531	1	4	1	n/a	n/a	n/a	n/a	n/a
3670729	RECOG_RESP	n/a	LTP139	ltpFR	5	6	0	TYPEWRITER	1531	1	n/a	1	n/a	n/a	n/a	n/a	n/a
3672936	RECOG_CONF	n/a	LTP139	ltpFR	5	6	0	TYPEWRITER	1531	n/a	4	1	n/a	n/a	n/a	n/a	n/a
3674610	RECOG_LURE	n/a	LTP139	ltpFR	5	6	n/a	PERFUME	1049	0	5	n/a	n/a	n/a	n/a	n/a	n/a
3675360	RECOG_RESP	n/a	LTP139	ltpFR	5	6	n/a	PERFUME	1049	0	n/a	n/a	n/a	n/a	n/a	n/a	n/a
3676208	RECOG_CONF	n/a	LTP139	ltpFR	5	6	n/a	PERFUME	1049	n/a	5	n/a	n/a	n/a	n/a	n/a	n/a
3677757	RECOG_TARGET	n/a	LTP139	ltpFR	5	6	0	CLAM	315	0	2	0	n/a	n/a	n/a	n/a	n/a
3680389	RECOG_RESP	n/a	LTP139	ltpFR	5	6	0	CLAM	315	0	n/a	0	n/a	n/a	n/a	n/a	n/a
3681455	RECOG_CONF	n/a	LTP139	ltpFR	5	6	0	CLAM	315	n/a	2	0	n/a	n/a	n/a	n/a	n/a
3682918	RECOG_TARGET	n/a	LTP139	ltpFR	5	6	0	TURKEY	1520	1	5	1	n/a	n/a	n/a	n/a	n/a
3683652	RECOG_RESP	n/a	LTP139	ltpFR	5	6	0	TURKEY	1520	1	n/a	1	n/a	n/a	n/a	n/a	n/a
3684340	RECOG_CONF	n/a	LTP139	ltpFR	5	6	0	TURKEY	1520	n/a	5	1	n/a	n/a	n/a	n/a	n/a
3688961	REC_START	n/a	LTP139	ltpFR	5	7	n/a	n/a	n/a	n/a	n/a	n/a	n/a	n/a	n/a	n/a	n/a
3688994	RECOG_TARGET	n/a	LTP139	ltpFR	5	7	1	JUPITER	765	1	5	0	n/a	n/a	n/a	n/a	n/a
3689647	RECOG_RESP	n/a	LTP139	ltpFR	5	7	1	JUPITER	765	1	n/a	0	n/a	n/a	n/a	n/a	n/a
