mstime	trial_type	stim_file	subject	experiment	session	trial	item_name	item_num	list	answer	test_x	test_y	test_z
0	SESS_START	n/a	LTP317	ltpFR2	18	n/a	n/a	n/a	n/a	n/a	0	0	0
13044	START	n/a	LTP317	ltpFR2	18	n/a	n/a	n/a	-1	n/a	n/a	n/a	n/a
13059	PROB	n/a	LTP317	ltpFR2	18	n/a	n/a	n/a	-1	8	3	1	4
15160	PROB	n/a	LTP317	ltpFR2	18	n/a	n/a	n/a	-1	15	1	8	6
16812	PROB	n/a	LTP317	ltpFR2	18	n/a	n/a	n/a	-1	16	1	7	9
18081	PROB	n/a	LTP317	ltpFR2	18	n/a	n/a	n/a	-1	11	2	4	5
19516	PROB	n/a	LTP317	ltpFR2	18	n/a	n/a	n/a	-1	13	5	5	3
20616	PROB	n/a	LTP317	ltpFR2	18	n/a	n/a	n/a	-1	19	3	8	8
22032	PROB	n/a	LTP317	ltpFR2	18	n/a	n/a	n/a	-1	13	4	5	4
23579	STOP	n/a	LTP317	ltpFR2	18	n/a	n/a	n/a	-1	n/a	n/a	n/a	n/a
54478	DISTRACTOR	n/a	LTP317	ltpFR2	18	1	n/a	n/a	n/a	n/a	0	0	0
54478	START	n/a	LTP317	ltpFR2	18	n/a	n/a	n/a	1	n/a	n/a	n/a	n/a
54493	PROB	n/a	LTP317	ltpFR2	18	n/a	n/a	n/a	1	18	4	7	7
56361	PROB	n/a	LTP317	ltpFR2	18	n/a	n/a	n/a	1	12	1	5	6
57512	PROB	n/a	LTP317	ltpFR2	18	n/a	n/a	n/a	1	18	9	8	1
58862	PROB	n/a	LTP317	ltpFR2	18	n/a	n/a	n/a	1	18	6	4	8
60398	PROB	n/a	LTP317	ltpFR2	18	n/a	n/a	n/a	1	12	1	3	8
61532	PROB	n/a	LTP317	ltpFR2	18	n/a	n/a	n/a	1	22	5	9	8
63551	PROB	n/a	LTP317	ltpFR2	18	n/a	n/a	n/a	1	12	6	3	3
64718	PROB	n/a	LTP317	ltpFR2	18	n/a	n/a	n/a	1	7	4	2	1
66151	PROB	n/a	LTP317	ltpFR2	18	n/a	n/a	n/a	1	14	2	6	6
69405	PROB	n/a	LTP317	ltpFR2	18	n/a	n/a	n/a	1	14	2	6	6
71173	PROB	n/a	LTP317	ltpFR2	18	n/a	n/a	n/a	1	17	6	5	6
73842	PROB	n/a	LTP317	ltpFR2	18	n/a	n/a	n/a	1	14	1	6	7
75377	PROB	n/a	LTP317	ltpFR2	18	n/a	n/a	n/a	1	17	9	4	4
76810	PROB	n/a	LTP317	ltpFR2	18	n/a	n/a	n/a	1	15	8	5	2
78269	STOP	n/a	LTP317	ltpFR2	18	n/a	n/a	n/a	1	n/a	n/a	n/a	n/a
79297	WORD	wordpools/wasnorm_wordpool_576.txt	LTP317	ltpFR2	18	1	HEART	697	n/a	n/a	0	0	0
81882	WORD	wordpools/wasnorm_wordpool_576.txt	LTP317	ltpFR2	18	1	ATOM	55	n/a	n/a	0	0	0
84569	WORD	wordpools/wasnorm_wordpool_576.txt	LTP317	ltpFR2	18	1	CATTLE	261	n/a	n/a	0	0	0
87380	WORD	wordpools/wasnorm_wordpool_576.txt	LTP317	ltpFR2	18	1	POWDER	1117	n/a	n/a	0	0	0
89915	WORD	wordpools/wasnorm_wordpool_576.txt	LTP317	ltpFR2	18	1	PARENT	1013	n/a	n/a	0	0	0
92485	WORD	wordpools/wasnorm_wordpool_576.txt	LTP317	ltpFR2	18	1	FLASK	576	n/a	n/a	0	0	0
95237	WORD	wordpools/wasnorm_wordpool_576.txt	LTP317	ltpFR2	18	1	BINDER	127	n/a	n/a	0	0	0
97921	WORD	wordpools/wasnorm_wordpool_576.txt	LTP317	ltpFR2	18	1	PIZZA	1079	n/a	n/a	0	0	0
100475	WORD	wordpools/wasnorm_wordpool_576.txt	LTP317	ltpFR2	18	1	JUGGLER	763	n/a	n/a	0	0	0
103283	WORD	wordpools/wasnorm_wordpool_576.txt	LTP317	ltpFR2	18	1	MISSILE	900	n/a	n/a	0	0	0
105979	WORD	wordpools/wasnorm_wordpool_576.txt	LTP317	ltpFR2	18	1	STAR	1373	n/a	n/a	0	0	0
108449	WORD	wordpools/wasnorm_wordpool_576.txt	LTP317	ltpFR2	18	1	DRINK	498	n/a	n/a	0	0	0
111150	WORD	wordpools/wasnorm_wordpool_576.txt	LTP317	ltpFR2	18	1	OX	994	n/a	n/a	0	0	0
113720	WORD	wordpools/wasnorm_wordpool_576.txt	LTP317	ltpFR2	18	1	CLIMBER	323	n/a	n/a	0	0	0
116289	WORD	wordpools/wasnorm_wordpool_576.txt	LTP317	ltpFR2	18	1	SHERIFF	1284	n/a	n/a	0	0	0
118990	WORD	wordpools/wasnorm_wordpool_576.txt	LTP317	ltpFR2	18	1	PATROL	1027	n/a	n/a	0	0	0
121610	WORD	wordpools/wasnorm_wordpool_576.txt	LTP317	ltpFR2	18	1	PERFUME	1049	n/a	n/a	0	0	0
124362	WORD	wordpools/wasnorm_wordpool_576.txt	LTP317	ltpFR2	18	1	MILDEW	893	n/a	n/a	0	0	0
126930	WORD	wordpools/wasnorm_wordpool_576.txt	LTP317	ltpFR2	18	1	CUPBOARD	425	n/a	n/a	0	0	0
129551	WORD	wordpools/wasnorm_wordpool_576.txt	LTP317	ltpFR2	18	1	GRAVEL	659	n/a	n/a	0	0	0
132340	WORD	wordpools/wasnorm_wordpool_576.txt	LTP317	ltpFR2	18	1	GROUND	666	n/a	n/a	0	0	0
135104	WORD	wordpools/wasnorm_wordpool_576.txt	LTP317	ltpFR2	18	1	STUDENT	1395	n/a	n/a	0	0	0
137591	WORD	wordpools/wasnorm_wordpool_576.txt	LTP317	ltpFR2	18	1	MARKER	870	n/a	n/a	0	0	0
140078	WORD	wordpools/wasnorm_wordpool_576.txt	LTP317	ltpFR2	18	1	ROCKET	1202	n/a	n/a	0	0	0
141695	START	n/a	LTP317	ltpFR2	18	n/a	n/a	n/a	2	n/a	n/a	n/a	n/a
142826	DISTRACTOR	n/a	LTP317	ltpFR2	18	1	n/a	n/a	n/a	n/a	0	0	0
142832	PROB	n/a	LTP317	ltpFR2	18	n/a	n/a	n/a	2	15	5	3	7
144148	PROB	n/a	LTP317	ltpFR2	18	n/a	n/a	n/a	2	15	3	9	3
145632	PROB	n/a	LTP317	ltpFR2	18	n/a	n/a	n/a	2	13	5	5	3
146680	PROB	n/a	LTP317	ltpFR2	18	n/a	n/a	n/a	2	9	4	3	2
147984	PROB	n/a	LTP317	ltpFR2	18	n/a	n/a	n/a	2	11	1	8	2
149451	PROB	n/a	LTP317	ltpFR2	18	n/a	n/a	n/a	2	12	1	3	8
150602	PROB	n/a	LTP317	ltpFR2	18	n/a	n/a	n/a	2	15	5	1	9
151719	PROB	n/a	LTP317	ltpFR2	18	n/a	n/a	n/a	2	17	7	2	8
152969	PROB	n/a	LTP317	ltpFR2	18	n/a	n/a	n/a	2	10	1	4	5
154572	PROB	n/a	LTP317	ltpFR2	18	n/a	n/a	n/a	2	22	7	7	8
155826	PROB	n/a	LTP317	ltpFR2	18	n/a	n/a	n/a	2	13	4	4	5
157124	PROB	n/a	LTP317	ltpFR2	18	n/a	n/a	n/a	2	5	2	2	1
158090	PROB	n/a	LTP317	ltpFR2	18	n/a	n/a	n/a	2	14	7	3	4
159260	PROB	n/a	LTP317	ltpFR2	18	n/a	n/a	n/a	2	8	1	1	6
160295	PROB	n/a	LTP317	ltpFR2	18	n/a	n/a	n/a	2	15	8	2	5
161394	PROB	n/a	LTP317	ltpFR2	18	n/a	n/a	n/a	2	14	3	8	3
163181	PROB	n/a	LTP317	ltpFR2	18	n/a	n/a	n/a	2	10	1	6	3
164409	STOP	n/a	LTP317	ltpFR2	18	n/a	n/a	n/a	2	n/a	n/a	n/a	n/a
167584	REC_START	n/a	LTP317	ltpFR2	18	1	n/a	n/a	n/a	n/a	0	0	0
170059	REC_WORD	wordpools/wasnorm_wordpool_576.txt	LTP317	ltpFR2	18	1	HEART	697	n/a	n/a	0	0	0
174168	REC_WORD	wordpools/wasnorm_wordpool_576.txt	LTP317	ltpFR2	18	1	ATOM	55	n/a	n/a	0	0	0
175304	REC_WORD	wordpools/wasnorm_wordpool_576.txt	LTP317	ltpFR2	18	1	MISSILE	900	n/a	n/a	0	0	0
178959	REC_WORD	wordpools/wasnorm_wordpool_576.txt	LTP317	ltpFR2	18	1	CATTLE	261	n/a	n/a	0	0	0
180191	REC_WORD	wordpools/wasnorm_wordpool_576.txt	LTP317	ltpFR2	18	1	POWDER	1117	n/a	n/a	0	0	0
182521	REC_WORD	wordpools/wasnorm_wordpool_576.txt	LTP317	ltpFR2	18	1	DRINK	498	n/a	n/a	0	0	0
183777	REC_WORD	wordpools/wasnorm_wordpool_576.txt	LTP317	ltpFR2	18	1	OX	994	n/a	n/a	0	0	0
185326	REC_WORD	wordpools/wasnorm_wordpool_576.txt	LTP317	ltpFR2	18	1	MILDEW	893	n/a	n/a	0	0	0
186031	REC_WORD	wordpools/wasnorm_wordpool_576.txt	LTP317	ltpFR2	18	1	PERFUME	1049	n/a	n/a	0	0	0
186738	REC_WORD	wordpools/wasnorm_wordpool_576.txt	LTP317	ltpFR2	18	1	STUDENT	1395	n/a	n/a	0	0	0
187325	REC_WORD	wordpools/wasnorm_wordpool_576.txt	LTP317	ltpFR2	18	1	MARKER	870	n/a	n/a	0	0	0
190056	REC_WORD	wordpools/wasnorm_wordpool_576.txt	LTP317	ltpFR2	18	1	GROUND	666	n/a	n/a	0	0	0
190858	REC_WORD	wordpools/wasnorm_wordpool_576.txt	LTP317	ltpFR2	18	1	GRAVEL	659	n/a	n/a	0	0	0
191751	REC_WORD	wordpools/wasnorm_wordpool_576.txt	LTP317	ltpFR2	18	1	PIZZA	1079	n/a	n/a	0	0	0
192451	REC_WORD	wordpools/wasnorm_wordpool_576.txt	LTP317	ltpFR2	18	1	FLASK	576	n/a	n/a	0	0	0
196528	REC_WORD	wordpools/wasnorm_wordpool_576.txt	LTP317	ltpFR2	18	1	JUGGLER	763	n/a	n/a	0	0	0
258021	WORD	wordpools/wasnorm_wordpool_576.txt	LTP317	ltpFR2	18	2	TRANSPLANT	1496	n/a	n/a	0	0	0
260443	WORD	wordpools/wasnorm_wordpool_576.txt	LTP317	ltpFR2	18	2	SPIDER	1351	n/a	n/a	0	0	0
263227	WORD	wordpools/wasnorm_wordpool_576.txt	LTP317	ltpFR2	18	2	DONOR	485	n/a	n/a	0	0	0
265686	WORD	wordpools/wasnorm_wordpool_576.txt	LTP317	ltpFR2	18	2	KIDNEY	776	n/a	n/a	0	0	0
268437	WORD	wordpools/wasnorm_wordpool_576.txt	LTP317	ltpFR2	18	2	SCULPTURE	1258	n/a	n/a	0	0	0
270983	WORD	wordpools/wasnorm_wordpool_576.txt	LTP317	ltpFR2	18	2	BIKE	125	n/a	n/a	0	0	0
273752	WORD	wordpools/wasnorm_wordpool_576.txt	LTP317	ltpFR2	18	2	HELMET	702	n/a	n/a	0	0	0
276428	WORD	wordpools/wasnorm_wordpool_576.txt	LTP317	ltpFR2	18	2	SCALPEL	1243	n/a	n/a	0	0	0
279156	WORD	wordpools/wasnorm_wordpool_576.txt	LTP317	ltpFR2	18	2	BUG	187	n/a	n/a	0	0	0
281592	WORD	wordpools/wasnorm_wordpool_576.txt	LTP317	ltpFR2	18	2	HAWK	692	n/a	n/a	0	0	0
284150	WORD	wordpools/wasnorm_wordpool_576.txt	LTP317	ltpFR2	18	2	PARROT	1015	n/a	n/a	0	0	0
286902	WORD	wordpools/wasnorm_wordpool_576.txt	LTP317	ltpFR2	18	2	TWEEZERS	1526	n/a	n/a	0	0	0
289649	WORD	wordpools/wasnorm_wordpool_576.txt	LTP317	ltpFR2	18	2	BREAST	171	n/a	n/a	0	0	0
292442	WORD	wordpools/wasnorm_wordpool_576.txt	LTP317	ltpFR2	18	2	LABEL	790	n/a	n/a	0	0	0
295228	WORD	wordpools/wasnorm_wordpool_576.txt	LTP317	ltpFR2	18	2	HARP	689	n/a	n/a	0	0	0
297763	WORD	wordpools/wasnorm_wordpool_576.txt	LTP317	ltpFR2	18	2	SERVER	1272	n/a	n/a	0	0	0
300475	WORD	wordpools/wasnorm_wordpool_576.txt	LTP317	ltpFR2	18	2	WAITER	1580	n/a	n/a	0	0	0
303059	WORD	wordpools/wasnorm_wordpool_576.txt	LTP317	ltpFR2	18	2	BACKBONE	66	n/a	n/a	0	0	0
305704	WORD	wordpools/wasnorm_wordpool_576.txt	LTP317	ltpFR2	18	2	ACTRESS	6	n/a	n/a	0	0	0
308147	WORD	wordpools/wasnorm_wordpool_576.txt	LTP317	ltpFR2	18	2	GUITAR	670	n/a	n/a	0	0	0
310791	WORD	wordpools/wasnorm_wordpool_576.txt	LTP317	ltpFR2	18	2	CONCERT	360	n/a	n/a	0	0	0
313519	WORD	wordpools/wasnorm_wordpool_576.txt	LTP317	ltpFR2	18	2	SKETCH	1315	n/a	n/a	0	0	0
316128	WORD	wordpools/wasnorm_wordpool_576.txt	LTP317	ltpFR2	18	2	CHAUFFEUR	283	n/a	n/a	0	0	0
318623	WORD	wordpools/wasnorm_wordpool_576.txt	LTP317	ltpFR2	18	2	WOMAN	1620	n/a	n/a	0	0	0
320234	START	n/a	LTP317	ltpFR2	18	n/a	n/a	n/a	3	n/a	n/a	n/a	n/a
321279	DISTRACTOR	n/a	LTP317	ltpFR2	18	2	n/a	n/a	n/a	n/a	0	0	0
321283	PROB	n/a	LTP317	ltpFR2	18	n/a	n/a	n/a	3	13	2	6	5
323176	PROB	n/a	LTP317	ltpFR2	18	n/a	n/a	n/a	3	24	7	9	8
327328	PROB	n/a	LTP317	ltpFR2	18	n/a	n/a	n/a	3	19	7	8	4
328713	PROB	n/a	LTP317	ltpFR2	18	n/a	n/a	n/a	3	19	3	7	9
329862	PROB	n/a	LTP317	ltpFR2	18	n/a	n/a	n/a	3	18	4	6	8
331031	PROB	n/a	LTP317	ltpFR2	18	n/a	n/a	n/a	3	19	1	9	9
332615	PROB	n/a	LTP317	ltpFR2	18	n/a	n/a	n/a	3	21	7	9	5
335501	PROB	n/a	LTP317	ltpFR2	18	n/a	n/a	n/a	3	14	8	4	4
337919	PROB	n/a	LTP317	ltpFR2	18	n/a	n/a	n/a	3	7	2	3	2
340239	PROB	n/a	LTP317	ltpFR2	18	n/a	n/a	n/a	3	9	3	5	1
341556	PROB	n/a	LTP317	ltpFR2	18	n/a	n/a	n/a	3	17	6	7	4
343191	STOP	n/a	LTP317	ltpFR2	18	n/a	n/a	n/a	3	n/a	n/a	n/a	n/a
346161	REC_START	n/a	LTP317	ltpFR2	18	2	n/a	n/a	n/a	n/a	0	0	0
349953	REC_WORD	wordpools/wasnorm_wordpool_576.txt	LTP317	ltpFR2	18	2	KIDNEY	776	n/a	n/a	0	0	0
350974	REC_WORD	wordpools/wasnorm_wordpool_576.txt	LTP317	ltpFR2	18	2	TRANSPLANT	1496	n/a	n/a	0	0	0
352611	REC_WORD	wordpools/wasnorm_wordpool_576.txt	LTP317	ltpFR2	18	2	DONOR	485	n/a	n/a	0	0	0
353429	REC_WORD	wordpools/wasnorm_wordpool_576.txt	LTP317	ltpFR2	18	2	SPIDER	1351	n/a	n/a	0	0	0
354407	REC_WORD	wordpools/wasnorm_wordpool_576.txt	LTP317	ltpFR2	18	2	SCALPEL	1243	n/a	n/a	0	0	0
356959	REC_WORD	wordpools/wasnorm_wordpool_576.txt	LTP317	ltpFR2	18	2	GUITAR	670	n/a	n/a	0	0	0
357722	REC_WORD	wordpools/wasnorm_wordpool_576.txt	LTP317	ltpFR2	18	2	ACTRESS	6	n/a	n/a	0	0	0
358616	REC_WORD	wordpools/wasnorm_wordpool_576.txt	LTP317	ltpFR2	18	2	CONCERT	360	n/a	n/a	0	0	0
361675	REC_WORD	wordpools/wasnorm_wordpool_576.txt	LTP317	ltpFR2	18	2	SERVER	1272	n/a	n/a	0	0	0
364862	REC_WORD	wordpools/wasnorm_wordpool_576.txt	LTP317	ltpFR2	18	2	WAITER	1580	n/a	n/a	0	0	0
436617	DISTRACTOR	n/a	LTP317	ltpFR2	18	3	n/a	n/a	n/a	n/a	0	0	0
436617	START	n/a	LTP317	ltpFR2	18	n/a	n/a	n/a	4	n/a	n/a	n/a	n/a
436632	PROB	n/a	LTP317	ltpFR2	18	n/a	n/a	n/a	4	11	7	3	1
438117	PROB	n/a	LTP317	ltpFR2	18	n/a	n/a	n/a	4	17	7	3	7
439752	PROB	n/a	LTP317	ltpFR2	18	n/a	n/a	n/a	4	15	9	4	2
441453	PROB	n/a	LTP317	ltpFR2	18	n/a	n/a	n/a	4	11	3	3	5
442754	PROB	n/a	LTP317	ltpFR2	18	n/a	n/a	n/a	4	18	7	4	7
444372	PROB	n/a	LTP317	ltpFR2	18	n/a	n/a	n/a	4	21	8	6	7
446089	PROB	n/a	LTP317	ltpFR2	18	n/a	n/a	n/a	4	8	2	3	3
447376	PROB	n/a	LTP317	ltpFR2	18	n/a	n/a	n/a	4	17	9	7	1
449058	PROB	n/a	LTP317	ltpFR2	18	n/a	n/a	n/a	4	19	4	7	8
450376	PROB	n/a	LTP317	ltpFR2	18	n/a	n/a	n/a	4	9	3	4	2
451662	PROB	n/a	LTP317	ltpFR2	18	n/a	n/a	n/a	4	17	8	6	3
453395	PROB	n/a	LTP317	ltpFR2	18	n/a	n/a	n/a	4	18	5	9	4
455681	PROB	n/a	LTP317	ltpFR2	18	n/a	n/a	n/a	4	14	8	4	2
457082	PROB	n/a	LTP317	ltpFR2	18	n/a	n/a	n/a	4	12	8	1	3
458600	PROB	n/a	LTP317	ltpFR2	18	n/a	n/a	n/a	4	15	4	3	8
459907	STOP	n/a	LTP317	ltpFR2	18	n/a	n/a	n/a	4	n/a	n/a	n/a	n/a
461721	WORD	wordpools/wasnorm_wordpool_576.txt	LTP317	ltpFR2	18	3	RECORD	1176	n/a	n/a	0	0	0
464489	WORD	wordpools/wasnorm_wordpool_576.txt	LTP317	ltpFR2	18	3	EXPERT	543	n/a	n/a	0	0	0
467041	WORD	wordpools/wasnorm_wordpool_576.txt	LTP317	ltpFR2	18	3	GREASE	660	n/a	n/a	0	0	0
469644	WORD	wordpools/wasnorm_wordpool_576.txt	LTP317	ltpFR2	18	3	TRUCK	1512	n/a	n/a	0	0	0
472215	WORD	wordpools/wasnorm_wordpool_576.txt	LTP317	ltpFR2	18	3	MOTEL	919	n/a	n/a	0	0	0
474667	WORD	wordpools/wasnorm_wordpool_576.txt	LTP317	ltpFR2	18	3	PENGUIN	1044	n/a	n/a	0	0	0
477183	WORD	wordpools/wasnorm_wordpool_576.txt	LTP317	ltpFR2	18	3	MAILMAN	858	n/a	n/a	0	0	0
479618	WORD	wordpools/wasnorm_wordpool_576.txt	LTP317	ltpFR2	18	3	SLOPE	1328	n/a	n/a	0	0	0
482404	WORD	wordpools/wasnorm_wordpool_576.txt	LTP317	ltpFR2	18	3	CRATER	400	n/a	n/a	0	0	0
485075	WORD	wordpools/wasnorm_wordpool_576.txt	LTP317	ltpFR2	18	3	SOFTBALL	1343	n/a	n/a	0	0	0
487841	WORD	wordpools/wasnorm_wordpool_576.txt	LTP317	ltpFR2	18	3	PISTOL	1075	n/a	n/a	0	0	0
490615	WORD	wordpools/wasnorm_wordpool_576.txt	LTP317	ltpFR2	18	3	LASER	801	n/a	n/a	0	0	0
493246	WORD	wordpools/wasnorm_wordpool_576.txt	LTP317	ltpFR2	18	3	WRENCH	1625	n/a	n/a	0	0	0
496046	WORD	wordpools/wasnorm_wordpool_576.txt	LTP317	ltpFR2	18	3	TOURIST	1488	n/a	n/a	0	0	0
498788	WORD	wordpools/wasnorm_wordpool_576.txt	LTP317	ltpFR2	18	3	WAGON	1578	n/a	n/a	0	0	0
501390	WORD	wordpools/wasnorm_wordpool_576.txt	LTP317	ltpFR2	18	3	NECKLACE	940	n/a	n/a	0	0	0
503974	WORD	wordpools/wasnorm_wordpool_576.txt	LTP317	ltpFR2	18	3	PLUTO	1092	n/a	n/a	0	0	0
506794	WORD	wordpools/wasnorm_wordpool_576.txt	LTP317	ltpFR2	18	3	CARROT	249	n/a	n/a	0	0	0
509247	WORD	wordpools/wasnorm_wordpool_576.txt	LTP317	ltpFR2	18	3	FLUTE	585	n/a	n/a	0	0	0
511909	WORD	wordpools/wasnorm_wordpool_576.txt	LTP317	ltpFR2	18	3	MOTOR	922	n/a	n/a	0	0	0
514645	WORD	wordpools/wasnorm_wordpool_576.txt	LTP317	ltpFR2	18	3	DOLPHIN	483	n/a	n/a	0	0	0
517349	WORD	wordpools/wasnorm_wordpool_576.txt	LTP317	ltpFR2	18	3	FLIPPER	580	n/a	n/a	0	0	0
520038	WORD	wordpools/wasnorm_wordpool_576.txt	LTP317	ltpFR2	18	3	STONE	1385	n/a	n/a	0	0	0
522508	WORD	wordpools/wasnorm_wordpool_576.txt	LTP317	ltpFR2	18	3	THRONE	1461	n/a	n/a	0	0	0
524119	START	n/a	LTP317	ltpFR2	18	n/a	n/a	n/a	5	n/a	n/a	n/a	n/a
525290	DISTRACTOR	n/a	LTP317	ltpFR2	18	3	n/a	n/a	n/a	n/a	0	0	0
525294	PROB	n/a	LTP317	ltpFR2	18	n/a	n/a	n/a	5	13	7	4	2
527423	PROB	n/a	LTP317	ltpFR2	18	n/a	n/a	n/a	5	26	9	8	9
531242	PROB	n/a	LTP317	ltpFR2	18	n/a	n/a	n/a	5	17	8	5	4
533026	PROB	n/a	LTP317	ltpFR2	18	n/a	n/a	n/a	5	20	7	4	9
534893	PROB	n/a	LTP317	ltpFR2	18	n/a	n/a	n/a	5	22	9	6	7
537813	PROB	n/a	LTP317	ltpFR2	18	n/a	n/a	n/a	5	24	8	8	8
538963	PROB	n/a	LTP317	ltpFR2	18	n/a	n/a	n/a	5	19	7	5	7
540432	PROB	n/a	LTP317	ltpFR2	18	n/a	n/a	n/a	5	23	9	5	9
543001	PROB	n/a	LTP317	ltpFR2	18	n/a	n/a	n/a	5	11	3	1	7
544535	PROB	n/a	LTP317	ltpFR2	18	n/a	n/a	n/a	5	7	2	3	2
545838	PROB	n/a	LTP317	ltpFR2	18	n/a	n/a	n/a	5	7	4	1	2
547567	STOP	n/a	LTP317	ltpFR2	18	n/a	n/a	n/a	5	n/a	n/a	n/a	n/a
549889	REC_START	n/a	LTP317	ltpFR2	18	3	n/a	n/a	n/a	n/a	0	0	0
551447	REC_WORD	wordpools/wasnorm_wordpool_576.txt	LTP317	ltpFR2	18	3	RECORD	1176	n/a	n/a	0	0	0
552731	REC_WORD	wordpools/wasnorm_wordpool_576.txt	LTP317	ltpFR2	18	3	EXPERT	543	n/a	n/a	0	0	0
553740	REC_WORD	wordpools/wasnorm_wordpool_576.txt	LTP317	ltpFR2	18	3	GREASE	660	n/a	n/a	0	0	0
554679	REC_WORD	wordpools/wasnorm_wordpool_576.txt	LTP317	ltpFR2	18	3	TRUCK	1512	n/a	n/a	0	0	0
555695	REC_WORD	wordpools/wasnorm_wordpool_576.txt	LTP317	ltpFR2	18	3	WAGON	1578	n/a	n/a	0	0	0
556697	REC_WORD	wordpools/wasnorm_wordpool_576.txt	LTP317	ltpFR2	18	3	PENGUIN	1044	n/a	n/a	0	0	0
558814	REC_WORD	wordpools/wasnorm_wordpool_576.txt	LTP317	ltpFR2	18	3	PLUTO	1092	n/a	n/a	0	0	0
561857	REC_WORD	wordpools/wasnorm_wordpool_576.txt	LTP317	ltpFR2	18	3	DOLPHIN	483	n/a	n/a	0	0	0
562892	REC_WORD	wordpools/wasnorm_wordpool_576.txt	LTP317	ltpFR2	18	3	FLIPPER	580	n/a	n/a	0	0	0
640331	DISTRACTOR	n/a	LTP317	ltpFR2	18	4	n/a	n/a	n/a	n/a	0	0	0
640331	START	n/a	LTP317	ltpFR2	18	n/a	n/a	n/a	6	n/a	n/a	n/a	n/a
640346	PROB	n/a	LTP317	ltpFR2	18	n/a	n/a	n/a	6	18	4	9	5
643045	PROB	n/a	LTP317	ltpFR2	18	n/a	n/a	n/a	6	16	5	6	5
644580	PROB	n/a	LTP317	ltpFR2	18	n/a	n/a	n/a	6	12	7	3	2
646448	PROB	n/a	LTP317	ltpFR2	18	n/a	n/a	n/a	6	11	3	6	2
647770	PROB	n/a	LTP317	ltpFR2	18	n/a	n/a	n/a	6	19	6	7	6
649619	PROB	n/a	LTP317	ltpFR2	18	n/a	n/a	n/a	6	8	4	3	1
650854	PROB	n/a	LTP317	ltpFR2	18	n/a	n/a	n/a	6	12	2	1	9
652773	PROB	n/a	LTP317	ltpFR2	18	n/a	n/a	n/a	6	20	7	7	6
654140	PROB	n/a	LTP317	ltpFR2	18	n/a	n/a	n/a	6	13	1	7	5
655491	PROB	n/a	LTP317	ltpFR2	18	n/a	n/a	n/a	6	5	1	3	1
656526	PROB	n/a	LTP317	ltpFR2	18	n/a	n/a	n/a	6	21	3	9	9
658060	PROB	n/a	LTP317	ltpFR2	18	n/a	n/a	n/a	6	10	1	7	2
660027	PROB	n/a	LTP317	ltpFR2	18	n/a	n/a	n/a	6	9	4	4	1
661180	PROB	n/a	LTP317	ltpFR2	18	n/a	n/a	n/a	6	14	7	5	7
663099	STOP	n/a	LTP317	ltpFR2	18	n/a	n/a	n/a	6	n/a	n/a	n/a	n/a
665165	WORD	wordpools/wasnorm_wordpool_576.txt	LTP317	ltpFR2	18	4	TERMITE	1451	n/a	n/a	0	0	0
667735	WORD	wordpools/wasnorm_wordpool_576.txt	LTP317	ltpFR2	18	4	STREAM	1392	n/a	n/a	0	0	0
670271	WORD	wordpools/wasnorm_wordpool_576.txt	LTP317	ltpFR2	18	4	OUTFIT	988	n/a	n/a	0	0	0
672755	WORD	wordpools/wasnorm_wordpool_576.txt	LTP317	ltpFR2	18	4	OFFICE	972	n/a	n/a	0	0	0
675357	WORD	wordpools/wasnorm_wordpool_576.txt	LTP317	ltpFR2	18	4	YARN	1631	n/a	n/a	0	0	0
678177	WORD	wordpools/wasnorm_wordpool_576.txt	LTP317	ltpFR2	18	4	MEDAL	885	n/a	n/a	0	0	0
680995	WORD	wordpools/wasnorm_wordpool_576.txt	LTP317	ltpFR2	18	4	AWARD	63	n/a	n/a	0	0	0
683498	WORD	wordpools/wasnorm_wordpool_576.txt	LTP317	ltpFR2	18	4	SCALLOP	1242	n/a	n/a	0	0	0
686132	WORD	wordpools/wasnorm_wordpool_576.txt	LTP317	ltpFR2	18	4	UMPIRE	1535	n/a	n/a	0	0	0
688735	WORD	wordpools/wasnorm_wordpool_576.txt	LTP317	ltpFR2	18	4	MAILBOX	857	n/a	n/a	0	0	0
691470	WORD	wordpools/wasnorm_wordpool_576.txt	LTP317	ltpFR2	18	4	GIFT	635	n/a	n/a	0	0	0
694072	WORD	wordpools/wasnorm_wordpool_576.txt	LTP317	ltpFR2	18	4	RAFT	1159	n/a	n/a	0	0	0
696809	WORD	wordpools/wasnorm_wordpool_576.txt	LTP317	ltpFR2	18	4	JAPAN	749	n/a	n/a	0	0	0
699527	WORD	wordpools/wasnorm_wordpool_576.txt	LTP317	ltpFR2	18	4	MARINE	869	n/a	n/a	0	0	0
702180	WORD	wordpools/wasnorm_wordpool_576.txt	LTP317	ltpFR2	18	4	LUMBER	848	n/a	n/a	0	0	0
704881	WORD	wordpools/wasnorm_wordpool_576.txt	LTP317	ltpFR2	18	4	BALLOON	75	n/a	n/a	0	0	0
707634	WORD	wordpools/wasnorm_wordpool_576.txt	LTP317	ltpFR2	18	4	LAGOON	795	n/a	n/a	0	0	0
710302	WORD	wordpools/wasnorm_wordpool_576.txt	LTP317	ltpFR2	18	4	COMET	353	n/a	n/a	0	0	0
712789	WORD	wordpools/wasnorm_wordpool_576.txt	LTP317	ltpFR2	18	4	DENTIST	447	n/a	n/a	0	0	0
715407	WORD	wordpools/wasnorm_wordpool_576.txt	LTP317	ltpFR2	18	4	VELVET	1555	n/a	n/a	0	0	0
717891	WORD	wordpools/wasnorm_wordpool_576.txt	LTP317	ltpFR2	18	4	FLESH	579	n/a	n/a	0	0	0
720677	WORD	wordpools/wasnorm_wordpool_576.txt	LTP317	ltpFR2	18	4	PILOT	1070	n/a	n/a	0	0	0
723350	WORD	wordpools/wasnorm_wordpool_576.txt	LTP317	ltpFR2	18	4	PIGMENT	1066	n/a	n/a	0	0	0
726164	WORD	wordpools/wasnorm_wordpool_576.txt	LTP317	ltpFR2	18	4	WORKER	1621	n/a	n/a	0	0	0
727771	START	n/a	LTP317	ltpFR2	18	n/a	n/a	n/a	7	n/a	n/a	n/a	n/a
728702	DISTRACTOR	n/a	LTP317	ltpFR2	18	4	n/a	n/a	n/a	n/a	0	0	0
728718	PROB	n/a	LTP317	ltpFR2	18	n/a	n/a	n/a	7	20	7	9	4
730901	PROB	n/a	LTP317	ltpFR2	18	n/a	n/a	n/a	7	18	3	6	9
732437	PROB	n/a	LTP317	ltpFR2	18	n/a	n/a	n/a	7	17	7	1	9
735773	PROB	n/a	LTP317	ltpFR2	18	n/a	n/a	n/a	7	17	9	4	4
737289	PROB	n/a	LTP317	ltpFR2	18	n/a	n/a	n/a	7	13	1	6	6
738791	PROB	n/a	LTP317	ltpFR2	18	n/a	n/a	n/a	7	14	4	6	4
740243	PROB	n/a	LTP317	ltpFR2	18	n/a	n/a	n/a	7	8	4	3	1
741795	PROB	n/a	LTP317	ltpFR2	18	n/a	n/a	n/a	7	14	7	4	3
744028	PROB	n/a	LTP317	ltpFR2	18	n/a	n/a	n/a	7	16	3	6	7
745296	PROB	n/a	LTP317	ltpFR2	18	n/a	n/a	n/a	7	9	3	3	3
746380	PROB	n/a	LTP317	ltpFR2	18	n/a	n/a	n/a	7	15	5	8	2
748250	PROB	n/a	LTP317	ltpFR2	18	n/a	n/a	n/a	7	10	2	6	2
751771	STOP	n/a	LTP317	ltpFR2	18	n/a	n/a	n/a	7	n/a	n/a	n/a	n/a
753653	REC_START	n/a	LTP317	ltpFR2	18	4	n/a	n/a	n/a	n/a	0	0	0
761768	REC_WORD	wordpools/wasnorm_wordpool_576.txt	LTP317	ltpFR2	18	4	PILOT	1070	n/a	n/a	0	0	0
762705	REC_WORD	wordpools/wasnorm_wordpool_576.txt	LTP317	ltpFR2	18	4	PIGMENT	1066	n/a	n/a	0	0	0
764025	REC_WORD	wordpools/wasnorm_wordpool_576.txt	LTP317	ltpFR2	18	4	SCALLOP	1242	n/a	n/a	0	0	0
766819	REC_WORD	wordpools/wasnorm_wordpool_576.txt	LTP317	ltpFR2	18	4	TURNIP	1521	n/a	n/a	0	0	0
767545	REC_WORD	wordpools/wasnorm_wordpool_576.txt	LTP317	ltpFR2	18	4	STREAM	1392	n/a	n/a	0	0	0
768740	REC_WORD	wordpools/wasnorm_wordpool_576.txt	LTP317	ltpFR2	18	4	OUTFIT	988	n/a	n/a	0	0	0
769444	REC_WORD	wordpools/wasnorm_wordpool_576.txt	LTP317	ltpFR2	18	4	OFFICE	972	n/a	n/a	0	0	0
777788	REC_WORD	wordpools/wasnorm_wordpool_576.txt	LTP317	ltpFR2	18	4	JAPAN	749	n/a	n/a	0	0	0
779428	REC_WORD	wordpools/wasnorm_wordpool_576.txt	LTP317	ltpFR2	18	4	DENTIST	447	n/a	n/a	0	0	0
780568	REC_WORD	wordpools/wasnorm_wordpool_576.txt	LTP317	ltpFR2	18	4	VELVET	1555	n/a	n/a	0	0	0
844086	WORD	wordpools/wasnorm_wordpool_576.txt	LTP317	ltpFR2	18	5	LEOPARD	812	n/a	n/a	0	0	0
846824	WORD	wordpools/wasnorm_wordpool_576.txt	LTP317	ltpFR2	18	5	PANTHER	1009	n/a	n/a	0	0	0
849610	WORD	wordpools/wasnorm_wordpool_576.txt	LTP317	ltpFR2	18	5	KNIFE	785	n/a	n/a	0	0	0
852212	WORD	wordpools/wasnorm_wordpool_576.txt	LTP317	ltpFR2	18	5	BRAKE	166	n/a	n/a	0	0	0
854831	WORD	wordpools/wasnorm_wordpool_576.txt	LTP317	ltpFR2	18	5	TUTU	1524	n/a	n/a	0	0	0
857450	WORD	wordpools/wasnorm_wordpool_576.txt	LTP317	ltpFR2	18	5	PIMPLE	1071	n/a	n/a	0	0	0
859871	WORD	wordpools/wasnorm_wordpool_576.txt	LTP317	ltpFR2	18	5	FRECKLE	602	n/a	n/a	0	0	0
862554	WORD	wordpools/wasnorm_wordpool_576.txt	LTP317	ltpFR2	18	5	CROSS	413	n/a	n/a	0	0	0
865055	WORD	wordpools/wasnorm_wordpool_576.txt	LTP317	ltpFR2	18	5	JELLY	755	n/a	n/a	0	0	0
867845	WORD	wordpools/wasnorm_wordpool_576.txt	LTP317	ltpFR2	18	5	TOASTER	1472	n/a	n/a	0	0	0
870461	WORD	wordpools/wasnorm_wordpool_576.txt	LTP317	ltpFR2	18	5	PRINCE	1124	n/a	n/a	0	0	0
872895	WORD	wordpools/wasnorm_wordpool_576.txt	LTP317	ltpFR2	18	5	SHELTER	1282	n/a	n/a	0	0	0
875666	WORD	wordpools/wasnorm_wordpool_576.txt	LTP317	ltpFR2	18	5	OYSTER	995	n/a	n/a	0	0	0
878385	WORD	wordpools/wasnorm_wordpool_576.txt	LTP317	ltpFR2	18	5	SODA	1341	n/a	n/a	0	0	0
880987	WORD	wordpools/wasnorm_wordpool_576.txt	LTP317	ltpFR2	18	5	CLAM	315	n/a	n/a	0	0	0
883423	WORD	wordpools/wasnorm_wordpool_576.txt	LTP317	ltpFR2	18	5	DASHBOARD	441	n/a	n/a	0	0	0
885991	WORD	wordpools/wasnorm_wordpool_576.txt	LTP317	ltpFR2	18	5	BOX	159	n/a	n/a	0	0	0
888428	WORD	wordpools/wasnorm_wordpool_576.txt	LTP317	ltpFR2	18	5	TRACTOR	1493	n/a	n/a	0	0	0
890878	WORD	wordpools/wasnorm_wordpool_576.txt	LTP317	ltpFR2	18	5	BRICK	172	n/a	n/a	0	0	0
893648	WORD	wordpools/wasnorm_wordpool_576.txt	LTP317	ltpFR2	18	5	BUREAU	199	n/a	n/a	0	0	0
896100	WORD	wordpools/wasnorm_wordpool_576.txt	LTP317	ltpFR2	18	5	JEANS	752	n/a	n/a	0	0	0
898536	WORD	wordpools/wasnorm_wordpool_576.txt	LTP317	ltpFR2	18	5	BLENDER	136	n/a	n/a	0	0	0
900970	WORD	wordpools/wasnorm_wordpool_576.txt	LTP317	ltpFR2	18	5	SCISSORS	1250	n/a	n/a	0	0	0
903490	WORD	wordpools/wasnorm_wordpool_576.txt	LTP317	ltpFR2	18	5	NURSE	963	n/a	n/a	0	0	0
905107	START	n/a	LTP317	ltpFR2	18	n/a	n/a	n/a	8	n/a	n/a	n/a	n/a
906013	DISTRACTOR	n/a	LTP317	ltpFR2	18	5	n/a	n/a	n/a	n/a	0	0	0
906025	PROB	n/a	LTP317	ltpFR2	18	n/a	n/a	n/a	8	17	3	7	7
907660	PROB	n/a	LTP317	ltpFR2	18	n/a	n/a	n/a	8	22	7	6	9
909994	PROB	n/a	LTP317	ltpFR2	18	n/a	n/a	n/a	8	12	6	5	1
911380	PROB	n/a	LTP317	ltpFR2	18	n/a	n/a	n/a	8	18	5	8	5
912747	PROB	n/a	LTP317	ltpFR2	18	n/a	n/a	n/a	8	16	2	7	7
914332	PROB	n/a	LTP317	ltpFR2	18	n/a	n/a	n/a	8	10	1	7	2
916065	PROB	n/a	LTP317	ltpFR2	18	n/a	n/a	n/a	8	16	5	4	7
917601	PROB	n/a	LTP317	ltpFR2	18	n/a	n/a	n/a	8	12	8	3	1
919218	PROB	n/a	LTP317	ltpFR2	18	n/a	n/a	n/a	8	15	2	5	8
920886	PROB	n/a	LTP317	ltpFR2	18	n/a	n/a	n/a	8	17	6	6	5
923389	PROB	n/a	LTP317	ltpFR2	18	n/a	n/a	n/a	8	21	9	7	5
925691	PROB	n/a	LTP317	ltpFR2	18	n/a	n/a	n/a	8	16	2	6	8
927292	PROB	n/a	LTP317	ltpFR2	18	n/a	n/a	n/a	8	20	3	8	9
929045	STOP	n/a	LTP317	ltpFR2	18	n/a	n/a	n/a	8	n/a	n/a	n/a	n/a
930930	REC_START	n/a	LTP317	ltpFR2	18	5	n/a	n/a	n/a	n/a	0	0	0
932466	REC_WORD	wordpools/wasnorm_wordpool_576.txt	LTP317	ltpFR2	18	5	LEOPARD	812	n/a	n/a	0	0	0
933293	REC_WORD	wordpools/wasnorm_wordpool_576.txt	LTP317	ltpFR2	18	5	PANTHER	1009	n/a	n/a	0	0	0
934179	REC_WORD	wordpools/wasnorm_wordpool_576.txt	LTP317	ltpFR2	18	5	KNIFE	785	n/a	n/a	0	0	0
934916	REC_WORD	wordpools/wasnorm_wordpool_576.txt	LTP317	ltpFR2	18	5	BRAKE	166	n/a	n/a	0	0	0
935883	REC_WORD	wordpools/wasnorm_wordpool_576.txt	LTP317	ltpFR2	18	5	TUTU	1524	n/a	n/a	0	0	0
937105	REC_WORD	wordpools/wasnorm_wordpool_576.txt	LTP317	ltpFR2	18	5	JELLY	755	n/a	n/a	0	0	0
938840	REC_WORD	wordpools/wasnorm_wordpool_576.txt	LTP317	ltpFR2	18	5	OYSTER	995	n/a	n/a	0	0	0
939794	REC_WORD	wordpools/wasnorm_wordpool_576.txt	LTP317	ltpFR2	18	5	PRINCE	1124	n/a	n/a	0	0	0
940702	REC_WORD	wordpools/wasnorm_wordpool_576.txt	LTP317	ltpFR2	18	5	CLAM	315	n/a	n/a	0	0	0
944115	REC_WORD	wordpools/wasnorm_wordpool_576.txt	LTP317	ltpFR2	18	5	CROSS	413	n/a	n/a	0	0	0
945115	REC_WORD_VV	wordpools/wasnorm_wordpool_576.txt	LTP317	ltpFR2	18	5	<>	-1	n/a	n/a	0	0	0
950446	REC_WORD	wordpools/wasnorm_wordpool_576.txt	LTP317	ltpFR2	18	5	BRICK	172	n/a	n/a	0	0	0
951120	REC_WORD	wordpools/wasnorm_wordpool_576.txt	LTP317	ltpFR2	18	5	TRACTOR	1493	n/a	n/a	0	0	0
952050	REC_WORD	wordpools/wasnorm_wordpool_576.txt	LTP317	ltpFR2	18	5	BUREAU	199	n/a	n/a	0	0	0
955361	REC_WORD	wordpools/wasnorm_wordpool_576.txt	LTP317	ltpFR2	18	5	BOX	159	n/a	n/a	0	0	0
1021367	WORD	wordpools/wasnorm_wordpool_576.txt	LTP317	ltpFR2	18	6	IDOL	733	n/a	n/a	0	0	0
1024060	WORD	wordpools/wasnorm_wordpool_576.txt	LTP317	ltpFR2	18	6	BOARD	143	n/a	n/a	0	0	0
1026547	WORD	wordpools/wasnorm_wordpool_576.txt	LTP317	ltpFR2	18	6	ROBOT	1200	n/a	n/a	0	0	0
1029107	WORD	wordpools/wasnorm_wordpool_576.txt	LTP317	ltpFR2	18	6	WASHER	1592	n/a	n/a	0	0	0
1031926	WORD	wordpools/wasnorm_wordpool_576.txt	LTP317	ltpFR2	18	6	BEEF	113	n/a	n/a	0	0	0
1034645	WORD	wordpools/wasnorm_wordpool_576.txt	LTP317	ltpFR2	18	6	GARBAGE	622	n/a	n/a	0	0	0
1037097	WORD	wordpools/wasnorm_wordpool_576.txt	LTP317	ltpFR2	18	6	GIRL	637	n/a	n/a	0	0	0
1039826	WORD	wordpools/wasnorm_wordpool_576.txt	LTP317	ltpFR2	18	6	BLACKBOARD	133	n/a	n/a	0	0	0
1042352	WORD	wordpools/wasnorm_wordpool_576.txt	LTP317	ltpFR2	18	6	PUPIL	1143	n/a	n/a	0	0	0
1044870	WORD	wordpools/wasnorm_wordpool_576.txt	LTP317	ltpFR2	18	6	CRAYON	401	n/a	n/a	0	0	0
1047449	WORD	wordpools/wasnorm_wordpool_576.txt	LTP317	ltpFR2	18	6	BATHTUB	100	n/a	n/a	0	0	0
1049883	WORD	wordpools/wasnorm_wordpool_576.txt	LTP317	ltpFR2	18	6	MARSH	874	n/a	n/a	0	0	0
1052477	WORD	wordpools/wasnorm_wordpool_576.txt	LTP317	ltpFR2	18	6	COURSE	390	n/a	n/a	0	0	0
1055112	WORD	wordpools/wasnorm_wordpool_576.txt	LTP317	ltpFR2	18	6	CLAMP	316	n/a	n/a	0	0	0
1057657	WORD	wordpools/wasnorm_wordpool_576.txt	LTP317	ltpFR2	18	6	BUTCHER	203	n/a	n/a	0	0	0
1060344	WORD	wordpools/wasnorm_wordpool_576.txt	LTP317	ltpFR2	18	6	MEAT	883	n/a	n/a	0	0	0
1063051	WORD	wordpools/wasnorm_wordpool_576.txt	LTP317	ltpFR2	18	6	CAFE	216	n/a	n/a	0	0	0
1065481	WORD	wordpools/wasnorm_wordpool_576.txt	LTP317	ltpFR2	18	6	BUNNY	198	n/a	n/a	0	0	0
1068284	WORD	wordpools/wasnorm_wordpool_576.txt	LTP317	ltpFR2	18	6	COUNTRY	388	n/a	n/a	0	0	0
1070808	WORD	wordpools/wasnorm_wordpool_576.txt	LTP317	ltpFR2	18	6	DRAGON	492	n/a	n/a	0	0	0
1073237	WORD	wordpools/wasnorm_wordpool_576.txt	LTP317	ltpFR2	18	6	GRILL	661	n/a	n/a	0	0	0
1075812	WORD	wordpools/wasnorm_wordpool_576.txt	LTP317	ltpFR2	18	6	WRIST	1626	n/a	n/a	0	0	0
1078575	WORD	wordpools/wasnorm_wordpool_576.txt	LTP317	ltpFR2	18	6	ROD	1203	n/a	n/a	0	0	0
1081160	WORD	wordpools/wasnorm_wordpool_576.txt	LTP317	ltpFR2	18	6	CAPTIVE	240	n/a	n/a	0	0	0
1082768	START	n/a	LTP317	ltpFR2	18	n/a	n/a	n/a	9	n/a	n/a	n/a	n/a
1083893	DISTRACTOR	n/a	LTP317	ltpFR2	18	6	n/a	n/a	n/a	n/a	0	0	0
1083901	PROB	n/a	LTP317	ltpFR2	18	n/a	n/a	n/a	9	16	7	6	3
1085605	PROB	n/a	LTP317	ltpFR2	18	n/a	n/a	n/a	9	21	6	7	8
1087221	PROB	n/a	LTP317	ltpFR2	18	n/a	n/a	n/a	9	15	9	4	2
1088923	PROB	n/a	LTP317	ltpFR2	18	n/a	n/a	n/a	9	18	6	4	8
1090206	PROB	n/a	LTP317	ltpFR2	18	n/a	n/a	n/a	9	22	9	6	7
1093907	PROB	n/a	LTP317	ltpFR2	18	n/a	n/a	n/a	9	21	8	8	5
1095361	PROB	n/a	LTP317	ltpFR2	18	n/a	n/a	n/a	9	17	9	2	6
1097498	PROB	n/a	LTP317	ltpFR2	18	n/a	n/a	n/a	9	14	7	1	6
1099564	PROB	n/a	LTP317	ltpFR2	18	n/a	n/a	n/a	9	13	5	1	7
1101860	PROB	n/a	LTP317	ltpFR2	18	n/a	n/a	n/a	9	26	9	9	8
1104046	PROB	n/a	LTP317	ltpFR2	18	n/a	n/a	n/a	9	22	8	8	6
1106501	STOP	n/a	LTP317	ltpFR2	18	n/a	n/a	n/a	9	n/a	n/a	n/a	n/a
1108573	REC_START	n/a	LTP317	ltpFR2	18	6	n/a	n/a	n/a	n/a	0	0	0
1110829	REC_WORD	wordpools/wasnorm_wordpool_576.txt	LTP317	ltpFR2	18	6	DRAGON	492	n/a	n/a	0	0	0
1111852	REC_WORD	wordpools/wasnorm_wordpool_576.txt	LTP317	ltpFR2	18	6	WRIST	1626	n/a	n/a	0	0	0
1112930	REC_WORD	wordpools/wasnorm_wordpool_576.txt	LTP317	ltpFR2	18	6	CLAMP	316	n/a	n/a	0	0	0
1113815	REC_WORD	wordpools/wasnorm_wordpool_576.txt	LTP317	ltpFR2	18	6	CAPTIVE	240	n/a	n/a	0	0	0
1199025	WORD	wordpools/wasnorm_wordpool_576.txt	LTP317	ltpFR2	18	7	MUFFIN	929	n/a	n/a	0	0	0
1201580	WORD	wordpools/wasnorm_wordpool_576.txt	LTP317	ltpFR2	18	7	SKIRT	1319	n/a	n/a	0	0	0
1204135	WORD	wordpools/wasnorm_wordpool_576.txt	LTP317	ltpFR2	18	7	BULLET	194	n/a	n/a	0	0	0
1206733	WORD	wordpools/wasnorm_wordpool_576.txt	LTP317	ltpFR2	18	7	PEANUT	1032	n/a	n/a	0	0	0
1209502	WORD	wordpools/wasnorm_wordpool_576.txt	LTP317	ltpFR2	18	7	HOSTESS	723	n/a	n/a	0	0	0
1211987	WORD	wordpools/wasnorm_wordpool_576.txt	LTP317	ltpFR2	18	7	PORTRAIT	1111	n/a	n/a	0	0	0
1214606	WORD	wordpools/wasnorm_wordpool_576.txt	LTP317	ltpFR2	18	7	DRUG	501	n/a	n/a	0	0	0
1217175	WORD	wordpools/wasnorm_wordpool_576.txt	LTP317	ltpFR2	18	7	BRANDY	169	n/a	n/a	0	0	0
1219698	WORD	wordpools/wasnorm_wordpool_576.txt	LTP317	ltpFR2	18	7	RIFLE	1192	n/a	n/a	0	0	0
1222512	WORD	wordpools/wasnorm_wordpool_576.txt	LTP317	ltpFR2	18	7	UNCLE	1536	n/a	n/a	0	0	0
1225198	WORD	wordpools/wasnorm_wordpool_576.txt	LTP317	ltpFR2	18	7	VIKING	1565	n/a	n/a	0	0	0
1227750	WORD	wordpools/wasnorm_wordpool_576.txt	LTP317	ltpFR2	18	7	FOOTBALL	591	n/a	n/a	0	0	0
1230353	WORD	wordpools/wasnorm_wordpool_576.txt	LTP317	ltpFR2	18	7	LEG	809	n/a	n/a	0	0	0
1232804	WORD	wordpools/wasnorm_wordpool_576.txt	LTP317	ltpFR2	18	7	GARDEN	623	n/a	n/a	0	0	0
1235296	WORD	wordpools/wasnorm_wordpool_576.txt	LTP317	ltpFR2	18	7	DAISY	435	n/a	n/a	0	0	0
1238057	WORD	wordpools/wasnorm_wordpool_576.txt	LTP317	ltpFR2	18	7	GHETTO	633	n/a	n/a	0	0	0
1240783	WORD	wordpools/wasnorm_wordpool_576.txt	LTP317	ltpFR2	18	7	PERCH	1048	n/a	n/a	0	0	0
1243436	WORD	wordpools/wasnorm_wordpool_576.txt	LTP317	ltpFR2	18	7	SERVANT	1271	n/a	n/a	0	0	0
1245998	WORD	wordpools/wasnorm_wordpool_576.txt	LTP317	ltpFR2	18	7	TROUT	1511	n/a	n/a	0	0	0
1248423	WORD	wordpools/wasnorm_wordpool_576.txt	LTP317	ltpFR2	18	7	POSSUM	1112	n/a	n/a	0	0	0
1250858	WORD	wordpools/wasnorm_wordpool_576.txt	LTP317	ltpFR2	18	7	FOX	598	n/a	n/a	0	0	0
1253512	WORD	wordpools/wasnorm_wordpool_576.txt	LTP317	ltpFR2	18	7	COCKTAIL	338	n/a	n/a	0	0	0
1256323	WORD	wordpools/wasnorm_wordpool_576.txt	LTP317	ltpFR2	18	7	TORTOISE	1486	n/a	n/a	0	0	0
1259008	WORD	wordpools/wasnorm_wordpool_576.txt	LTP317	ltpFR2	18	7	PROTON	1132	n/a	n/a	0	0	0
1260619	START	n/a	LTP317	ltpFR2	18	n/a	n/a	n/a	10	n/a	n/a	n/a	n/a
1261808	DISTRACTOR	n/a	LTP317	ltpFR2	18	7	n/a	n/a	n/a	n/a	0	0	0
1261818	PROB	n/a	LTP317	ltpFR2	18	n/a	n/a	n/a	10	17	6	6	5
1263344	PROB	n/a	LTP317	ltpFR2	18	n/a	n/a	n/a	10	18	5	7	6
1265046	PROB	n/a	LTP317	ltpFR2	18	n/a	n/a	n/a	10	21	9	9	3
1267265	PROB	n/a	LTP317	ltpFR2	18	n/a	n/a	n/a	10	18	6	8	4
1269100	PROB	n/a	LTP317	ltpFR2	18	n/a	n/a	n/a	10	11	3	3	5
1270819	PROB	n/a	LTP317	ltpFR2	18	n/a	n/a	n/a	10	11	4	6	1
1272085	PROB	n/a	LTP317	ltpFR2	18	n/a	n/a	n/a	10	6	3	1	2
1273386	PROB	n/a	LTP317	ltpFR2	18	n/a	n/a	n/a	10	15	3	9	3
1275136	PROB	n/a	LTP317	ltpFR2	18	n/a	n/a	n/a	10	18	9	1	8
1276672	PROB	n/a	LTP317	ltpFR2	18	n/a	n/a	n/a	10	11	6	3	2
1278072	PROB	n/a	LTP317	ltpFR2	18	n/a	n/a	n/a	10	12	5	6	1
1280174	PROB	n/a	LTP317	ltpFR2	18	n/a	n/a	n/a	10	1	8	2	6
1281344	PROB	n/a	LTP317	ltpFR2	18	n/a	n/a	n/a	10	18	7	9	2
1283588	STOP	n/a	LTP317	ltpFR2	18	n/a	n/a	n/a	10	n/a	n/a	n/a	n/a
1286565	REC_START	n/a	LTP317	ltpFR2	18	7	n/a	n/a	n/a	n/a	0	0	0
1287367	REC_WORD	wordpools/wasnorm_wordpool_576.txt	LTP317	ltpFR2	18	7	MUFFIN	929	n/a	n/a	0	0	0
1288074	REC_WORD	wordpools/wasnorm_wordpool_576.txt	LTP317	ltpFR2	18	7	BULLET	194	n/a	n/a	0	0	0
1288528	REC_WORD	wordpools/wasnorm_wordpool_576.txt	LTP317	ltpFR2	18	7	SKIRT	1319	n/a	n/a	0	0	0
1289318	REC_WORD	wordpools/wasnorm_wordpool_576.txt	LTP317	ltpFR2	18	7	PEANUT	1032	n/a	n/a	0	0	0
1289885	REC_WORD	wordpools/wasnorm_wordpool_576.txt	LTP317	ltpFR2	18	7	VIKING	1565	n/a	n/a	0	0	0
1296552	REC_WORD	wordpools/wasnorm_wordpool_576.txt	LTP317	ltpFR2	18	7	FOX	598	n/a	n/a	0	0	0
1297983	REC_WORD	wordpools/wasnorm_wordpool_576.txt	LTP317	ltpFR2	18	7	COCKTAIL	338	n/a	n/a	0	0	0
1309267	REC_WORD	wordpools/wasnorm_wordpool_576.txt	LTP317	ltpFR2	18	7	RIFLE	1192	n/a	n/a	0	0	0
1377036	WORD	wordpools/wasnorm_wordpool_576.txt	LTP317	ltpFR2	18	8	ORANGE	980	n/a	n/a	0	0	0
1379588	WORD	wordpools/wasnorm_wordpool_576.txt	LTP317	ltpFR2	18	8	CASHEW	253	n/a	n/a	0	0	0
1382224	WORD	wordpools/wasnorm_wordpool_576.txt	LTP317	ltpFR2	18	8	CHEST	295	n/a	n/a	0	0	0
1384924	WORD	wordpools/wasnorm_wordpool_576.txt	LTP317	ltpFR2	18	8	EAGLE	512	n/a	n/a	0	0	0
1387561	WORD	wordpools/wasnorm_wordpool_576.txt	LTP317	ltpFR2	18	8	ROBIN	1199	n/a	n/a	0	0	0
1390397	WORD	wordpools/wasnorm_wordpool_576.txt	LTP317	ltpFR2	18	8	MUMMY	932	n/a	n/a	0	0	0
1392998	WORD	wordpools/wasnorm_wordpool_576.txt	LTP317	ltpFR2	18	8	TWIG	1527	n/a	n/a	0	0	0
1395801	WORD	wordpools/wasnorm_wordpool_576.txt	LTP317	ltpFR2	18	8	MOP	916	n/a	n/a	0	0	0
1398504	WORD	wordpools/wasnorm_wordpool_576.txt	LTP317	ltpFR2	18	8	ULCER	1533	n/a	n/a	0	0	0
1401004	WORD	wordpools/wasnorm_wordpool_576.txt	LTP317	ltpFR2	18	8	ANKLE	24	n/a	n/a	0	0	0
1403758	WORD	wordpools/wasnorm_wordpool_576.txt	LTP317	ltpFR2	18	8	MARROW	872	n/a	n/a	0	0	0
1406361	WORD	wordpools/wasnorm_wordpool_576.txt	LTP317	ltpFR2	18	8	BLADE	134	n/a	n/a	0	0	0
1408911	WORD	wordpools/wasnorm_wordpool_576.txt	LTP317	ltpFR2	18	8	HATCHET	691	n/a	n/a	0	0	0
1411481	WORD	wordpools/wasnorm_wordpool_576.txt	LTP317	ltpFR2	18	8	OUTDOORS	987	n/a	n/a	0	0	0
1414284	WORD	wordpools/wasnorm_wordpool_576.txt	LTP317	ltpFR2	18	8	TILE	1468	n/a	n/a	0	0	0
1416852	WORD	wordpools/wasnorm_wordpool_576.txt	LTP317	ltpFR2	18	8	JURY	766	n/a	n/a	0	0	0
1419670	WORD	wordpools/wasnorm_wordpool_576.txt	LTP317	ltpFR2	18	8	LETTUCE	814	n/a	n/a	0	0	0
1422239	WORD	wordpools/wasnorm_wordpool_576.txt	LTP317	ltpFR2	18	8	CRUTCH	417	n/a	n/a	0	0	0
1424940	WORD	wordpools/wasnorm_wordpool_576.txt	LTP317	ltpFR2	18	8	BROOK	177	n/a	n/a	0	0	0
1427711	WORD	wordpools/wasnorm_wordpool_576.txt	LTP317	ltpFR2	18	8	SALAD	1224	n/a	n/a	0	0	0
1430279	WORD	wordpools/wasnorm_wordpool_576.txt	LTP317	ltpFR2	18	8	PREACHER	1119	n/a	n/a	0	0	0
1432881	WORD	wordpools/wasnorm_wordpool_576.txt	LTP317	ltpFR2	18	8	FRIAR	605	n/a	n/a	0	0	0
1435517	WORD	wordpools/wasnorm_wordpool_576.txt	LTP317	ltpFR2	18	8	DUSTPAN	509	n/a	n/a	0	0	0
1437984	WORD	wordpools/wasnorm_wordpool_576.txt	LTP317	ltpFR2	18	8	PUDDLE	1140	n/a	n/a	0	0	0
1439592	START	n/a	LTP317	ltpFR2	18	n/a	n/a	n/a	11	n/a	n/a	n/a	n/a
1440513	DISTRACTOR	n/a	LTP317	ltpFR2	18	8	n/a	n/a	n/a	n/a	0	0	0
1440521	PROB	n/a	LTP317	ltpFR2	18	n/a	n/a	n/a	11	15	5	2	8
1442121	PROB	n/a	LTP317	ltpFR2	18	n/a	n/a	n/a	11	20	4	8	8
1444840	PROB	n/a	LTP317	ltpFR2	18	n/a	n/a	n/a	11	12	1	5	6
1446342	PROB	n/a	LTP317	ltpFR2	18	n/a	n/a	n/a	11	9	3	1	5
1448827	PROB	n/a	LTP317	ltpFR2	18	n/a	n/a	n/a	11	14	1	7	6
1450595	PROB	n/a	LTP317	ltpFR2	18	n/a	n/a	n/a	11	22	8	8	6
1452446	PROB	n/a	LTP317	ltpFR2	18	n/a	n/a	n/a	11	11	7	1	3
1454130	PROB	n/a	LTP317	ltpFR2	18	n/a	n/a	n/a	11	18	9	1	8
1455498	PROB	n/a	LTP317	ltpFR2	18	n/a	n/a	n/a	11	17	9	2	6
1457334	PROB	n/a	LTP317	ltpFR2	18	n/a	n/a	n/a	11	11	8	2	1
1458651	PROB	n/a	LTP317	ltpFR2	18	n/a	n/a	n/a	11	11	1	1	9
1459885	PROB	n/a	LTP317	ltpFR2	18	n/a	n/a	n/a	11	7	2	3	2
1461588	PROB	n/a	LTP317	ltpFR2	18	n/a	n/a	n/a	11	11	1	5	5
1462802	STOP	n/a	LTP317	ltpFR2	18	n/a	n/a	n/a	11	n/a	n/a	n/a	n/a
1465491	REC_START	n/a	LTP317	ltpFR2	18	8	n/a	n/a	n/a	n/a	0	0	0
1466229	REC_WORD	wordpools/wasnorm_wordpool_576.txt	LTP317	ltpFR2	18	8	ORANGE	980	n/a	n/a	0	0	0
1466974	REC_WORD	wordpools/wasnorm_wordpool_576.txt	LTP317	ltpFR2	18	8	CASHEW	253	n/a	n/a	0	0	0
1468046	REC_WORD	wordpools/wasnorm_wordpool_576.txt	LTP317	ltpFR2	18	8	CHEST	295	n/a	n/a	0	0	0
1468840	REC_WORD	wordpools/wasnorm_wordpool_576.txt	LTP317	ltpFR2	18	8	EAGLE	512	n/a	n/a	0	0	0
1469626	REC_WORD	wordpools/wasnorm_wordpool_576.txt	LTP317	ltpFR2	18	8	ROBIN	1199	n/a	n/a	0	0	0
1470608	REC_WORD	wordpools/wasnorm_wordpool_576.txt	LTP317	ltpFR2	18	8	MUMMY	932	n/a	n/a	0	0	0
1473065	REC_WORD	wordpools/wasnorm_wordpool_576.txt	LTP317	ltpFR2	18	8	JURY	766	n/a	n/a	0	0	0
1477025	REC_WORD	wordpools/wasnorm_wordpool_576.txt	LTP317	ltpFR2	18	8	CRUTCH	417	n/a	n/a	0	0	0
1478376	REC_WORD	wordpools/wasnorm_wordpool_576.txt	LTP317	ltpFR2	18	8	BROOK	177	n/a	n/a	0	0	0
1499291	REC_WORD	wordpools/wasnorm_wordpool_576.txt	LTP317	ltpFR2	18	8	FRIAR	605	n/a	n/a	0	0	0
1501045	REC_WORD	wordpools/wasnorm_wordpool_576.txt	LTP317	ltpFR2	18	8	PREACHER	1119	n/a	n/a	0	0	0
1531017	REC_WORD	wordpools/wasnorm_wordpool_576.txt	LTP317	ltpFR2	18	8	ROD	1203	n/a	n/a	0	0	0
1542018	REST_REWET	n/a	LTP317	ltpFR2	18	8	n/a	n/a	n/a	n/a	0	0	0
1664466	WORD	wordpools/wasnorm_wordpool_576.txt	LTP317	ltpFR2	18	9	AIRPORT	13	n/a	n/a	0	0	0
1667101	WORD	wordpools/wasnorm_wordpool_576.txt	LTP317	ltpFR2	18	9	SUITCASE	1403	n/a	n/a	0	0	0
1669724	WORD	wordpools/wasnorm_wordpool_576.txt	LTP317	ltpFR2	18	9	DRESSER	496	n/a	n/a	0	0	0
1672274	WORD	wordpools/wasnorm_wordpool_576.txt	LTP317	ltpFR2	18	9	PASSAGE	1019	n/a	n/a	0	0	0
1674941	WORD	wordpools/wasnorm_wordpool_576.txt	LTP317	ltpFR2	18	9	LOFT	840	n/a	n/a	0	0	0
1677614	WORD	wordpools/wasnorm_wordpool_576.txt	LTP317	ltpFR2	18	9	FOOT	590	n/a	n/a	0	0	0
1680179	WORD	wordpools/wasnorm_wordpool_576.txt	LTP317	ltpFR2	18	9	WARDROBE	1587	n/a	n/a	0	0	0
1682766	WORD	wordpools/wasnorm_wordpool_576.txt	LTP317	ltpFR2	18	9	CANDY	230	n/a	n/a	0	0	0
1685483	WORD	wordpools/wasnorm_wordpool_576.txt	LTP317	ltpFR2	18	9	PASTRY	1022	n/a	n/a	0	0	0
1688287	WORD	wordpools/wasnorm_wordpool_576.txt	LTP317	ltpFR2	18	9	LILY	821	n/a	n/a	0	0	0
1690992	WORD	wordpools/wasnorm_wordpool_576.txt	LTP317	ltpFR2	18	9	PIANO	1057	n/a	n/a	0	0	0
1693724	WORD	wordpools/wasnorm_wordpool_576.txt	LTP317	ltpFR2	18	9	MONEY	908	n/a	n/a	0	0	0
1696381	WORD	wordpools/wasnorm_wordpool_576.txt	LTP317	ltpFR2	18	9	PRIMATE	1123	n/a	n/a	0	0	0
1698860	WORD	wordpools/wasnorm_wordpool_576.txt	LTP317	ltpFR2	18	9	NIGHTGOWN	953	n/a	n/a	0	0	0
1701513	WORD	wordpools/wasnorm_wordpool_576.txt	LTP317	ltpFR2	18	9	CHILD	299	n/a	n/a	0	0	0
1704131	WORD	wordpools/wasnorm_wordpool_576.txt	LTP317	ltpFR2	18	9	HORSE	719	n/a	n/a	0	0	0
1706784	WORD	wordpools/wasnorm_wordpool_576.txt	LTP317	ltpFR2	18	9	ELBOW	520	n/a	n/a	0	0	0
1709570	WORD	wordpools/wasnorm_wordpool_576.txt	LTP317	ltpFR2	18	9	LADY	794	n/a	n/a	0	0	0
1712020	WORD	wordpools/wasnorm_wordpool_576.txt	LTP317	ltpFR2	18	9	DAUGHTER	442	n/a	n/a	0	0	0
1714507	WORD	wordpools/wasnorm_wordpool_576.txt	LTP317	ltpFR2	18	9	FIDDLE	561	n/a	n/a	0	0	0
1717075	WORD	wordpools/wasnorm_wordpool_576.txt	LTP317	ltpFR2	18	9	DONKEY	484	n/a	n/a	0	0	0
1719711	WORD	wordpools/wasnorm_wordpool_576.txt	LTP317	ltpFR2	18	9	OUTLAW	989	n/a	n/a	0	0	0
1722286	WORD	wordpools/wasnorm_wordpool_576.txt	LTP317	ltpFR2	18	9	SUSPECT	1415	n/a	n/a	0	0	0
1724887	WORD	wordpools/wasnorm_wordpool_576.txt	LTP317	ltpFR2	18	9	SHRUB	1299	n/a	n/a	0	0	0
1726501	START	n/a	LTP317	ltpFR2	18	n/a	n/a	n/a	12	n/a	n/a	n/a	n/a
1727416	DISTRACTOR	n/a	LTP317	ltpFR2	18	9	n/a	n/a	n/a	n/a	0	0	0
1727424	PROB	n/a	LTP317	ltpFR2	18	n/a	n/a	n/a	12	15	9	5	1
1729035	PROB	n/a	LTP317	ltpFR2	18	n/a	n/a	n/a	12	9	3	3	3
1730202	PROB	n/a	LTP317	ltpFR2	18	n/a	n/a	n/a	12	24	6	9	9
1731936	PROB	n/a	LTP317	ltpFR2	18	n/a	n/a	n/a	12	20	9	3	8
1733888	PROB	n/a	LTP317	ltpFR2	18	n/a	n/a	n/a	12	10	3	6	1
1737106	PROB	n/a	LTP317	ltpFR2	18	n/a	n/a	n/a	12	19	5	5	9
1738493	PROB	n/a	LTP317	ltpFR2	18	n/a	n/a	n/a	12	25	9	9	7
1740309	PROB	n/a	LTP317	ltpFR2	18	n/a	n/a	n/a	12	11	5	3	3
1741944	PROB	n/a	LTP317	ltpFR2	18	n/a	n/a	n/a	12	14	3	5	6
1743329	PROB	n/a	LTP317	ltpFR2	18	n/a	n/a	n/a	12	7	1	3	3
1746215	PROB	n/a	LTP317	ltpFR2	18	n/a	n/a	n/a	12	21	7	7	7
1747416	PROB	n/a	LTP317	ltpFR2	18	n/a	n/a	n/a	12	10	2	3	5
1750501	STOP	n/a	LTP317	ltpFR2	18	n/a	n/a	n/a	12	n/a	n/a	n/a	n/a
1752270	REC_START	n/a	LTP317	ltpFR2	18	9	n/a	n/a	n/a	n/a	0	0	0
1753188	REC_WORD	wordpools/wasnorm_wordpool_576.txt	LTP317	ltpFR2	18	9	AIRPORT	13	n/a	n/a	0	0	0
1753776	REC_WORD	wordpools/wasnorm_wordpool_576.txt	LTP317	ltpFR2	18	9	SUITCASE	1403	n/a	n/a	0	0	0
1754810	REC_WORD	wordpools/wasnorm_wordpool_576.txt	LTP317	ltpFR2	18	9	RIVER	1194	n/a	n/a	0	0	0
1755457	REC_WORD	wordpools/wasnorm_wordpool_576.txt	LTP317	ltpFR2	18	9	PASSAGE	1019	n/a	n/a	0	0	0
1756457	REC_WORD_VV	wordpools/wasnorm_wordpool_576.txt	LTP317	ltpFR2	18	9	<>	-1	n/a	n/a	0	0	0
1757012	REC_WORD	wordpools/wasnorm_wordpool_576.txt	LTP317	ltpFR2	18	9	ELBOW	520	n/a	n/a	0	0	0
1757749	REC_WORD	wordpools/wasnorm_wordpool_576.txt	LTP317	ltpFR2	18	9	DAUGHTER	442	n/a	n/a	0	0	0
1762358	REC_WORD	wordpools/wasnorm_wordpool_576.txt	LTP317	ltpFR2	18	9	NIGHTGOWN	953	n/a	n/a	0	0	0
1763848	REC_WORD	wordpools/wasnorm_wordpool_576.txt	LTP317	ltpFR2	18	9	FOOT	590	n/a	n/a	0	0	0
1842724	DISTRACTOR	n/a	LTP317	ltpFR2	18	10	n/a	n/a	n/a	n/a	0	0	0
1842724	START	n/a	LTP317	ltpFR2	18	n/a	n/a	n/a	13	n/a	n/a	n/a	n/a
1842739	PROB	n/a	LTP317	ltpFR2	18	n/a	n/a	n/a	13	24	9	6	9
1845609	PROB	n/a	LTP317	ltpFR2	18	n/a	n/a	n/a	13	13	7	4	2
1847146	PROB	n/a	LTP317	ltpFR2	18	n/a	n/a	n/a	13	10	3	1	6
1848612	PROB	n/a	LTP317	ltpFR2	18	n/a	n/a	n/a	13	19	8	8	3
1850112	PROB	n/a	LTP317	ltpFR2	18	n/a	n/a	n/a	13	18	2	9	7
1852232	PROB	n/a	LTP317	ltpFR2	18	n/a	n/a	n/a	13	16	3	8	5
1853552	PROB	n/a	LTP317	ltpFR2	18	n/a	n/a	n/a	13	14	9	3	2
1854852	PROB	n/a	LTP317	ltpFR2	18	n/a	n/a	n/a	13	17	6	3	8
1857622	PROB	n/a	LTP317	ltpFR2	18	n/a	n/a	n/a	13	16	4	4	8
1859972	PROB	n/a	LTP317	ltpFR2	18	n/a	n/a	n/a	13	9	1	5	3
1861742	PROB	n/a	LTP317	ltpFR2	18	n/a	n/a	n/a	13	13	2	9	2
1864727	PROB	n/a	LTP317	ltpFR2	18	n/a	n/a	n/a	13	18	7	4	7
1866258	STOP	n/a	LTP317	ltpFR2	18	n/a	n/a	n/a	13	n/a	n/a	n/a	n/a
1867730	WORD	wordpools/wasnorm_wordpool_576.txt	LTP317	ltpFR2	18	10	SUMMIT	1405	n/a	n/a	0	0	0
1870398	WORD	wordpools/wasnorm_wordpool_576.txt	LTP317	ltpFR2	18	10	DINER	467	n/a	n/a	0	0	0
1873000	WORD	wordpools/wasnorm_wordpool_576.txt	LTP317	ltpFR2	18	10	FILM	565	n/a	n/a	0	0	0
1875620	WORD	wordpools/wasnorm_wordpool_576.txt	LTP317	ltpFR2	18	10	WORLD	1622	n/a	n/a	0	0	0
1878288	WORD	wordpools/wasnorm_wordpool_576.txt	LTP317	ltpFR2	18	10	GALLON	618	n/a	n/a	0	0	0
1880990	WORD	wordpools/wasnorm_wordpool_576.txt	LTP317	ltpFR2	18	10	YACHT	1629	n/a	n/a	0	0	0
1883509	WORD	wordpools/wasnorm_wordpool_576.txt	LTP317	ltpFR2	18	10	HIKER	708	n/a	n/a	0	0	0
1886177	WORD	wordpools/wasnorm_wordpool_576.txt	LTP317	ltpFR2	18	10	PICTURE	1061	n/a	n/a	0	0	0
1888631	WORD	wordpools/wasnorm_wordpool_576.txt	LTP317	ltpFR2	18	10	DRAWING	494	n/a	n/a	0	0	0
1891283	WORD	wordpools/wasnorm_wordpool_576.txt	LTP317	ltpFR2	18	10	PATIENT	1024	n/a	n/a	0	0	0
1893834	WORD	wordpools/wasnorm_wordpool_576.txt	LTP317	ltpFR2	18	10	FOREST	593	n/a	n/a	0	0	0
1896603	WORD	wordpools/wasnorm_wordpool_576.txt	LTP317	ltpFR2	18	10	EUROPE	541	n/a	n/a	0	0	0
1899121	WORD	wordpools/wasnorm_wordpool_576.txt	LTP317	ltpFR2	18	10	PEACH	1031	n/a	n/a	0	0	0
1901773	WORD	wordpools/wasnorm_wordpool_576.txt	LTP317	ltpFR2	18	10	MAPLE	866	n/a	n/a	0	0	0
1904242	WORD	wordpools/wasnorm_wordpool_576.txt	LTP317	ltpFR2	18	10	HOOD	714	n/a	n/a	0	0	0
1906994	WORD	wordpools/wasnorm_wordpool_576.txt	LTP317	ltpFR2	18	10	WIDOW	1608	n/a	n/a	0	0	0
1909763	WORD	wordpools/wasnorm_wordpool_576.txt	LTP317	ltpFR2	18	10	MILK	895	n/a	n/a	0	0	0
1912249	WORD	wordpools/wasnorm_wordpool_576.txt	LTP317	ltpFR2	18	10	LOVER	846	n/a	n/a	0	0	0
1914933	WORD	wordpools/wasnorm_wordpool_576.txt	LTP317	ltpFR2	18	10	FEMALE	559	n/a	n/a	0	0	0
1917690	WORD	wordpools/wasnorm_wordpool_576.txt	LTP317	ltpFR2	18	10	BLUEPRINT	142	n/a	n/a	0	0	0
1920456	WORD	wordpools/wasnorm_wordpool_576.txt	LTP317	ltpFR2	18	10	OMELET	976	n/a	n/a	0	0	0
1922890	WORD	wordpools/wasnorm_wordpool_576.txt	LTP317	ltpFR2	18	10	COOK	372	n/a	n/a	0	0	0
1925546	WORD	wordpools/wasnorm_wordpool_576.txt	LTP317	ltpFR2	18	10	DUST	508	n/a	n/a	0	0	0
1928028	WORD	wordpools/wasnorm_wordpool_576.txt	LTP317	ltpFR2	18	10	INMATE	738	n/a	n/a	0	0	0
1929634	START	n/a	LTP317	ltpFR2	18	n/a	n/a	n/a	14	n/a	n/a	n/a	n/a
1930758	DISTRACTOR	n/a	LTP317	ltpFR2	18	10	n/a	n/a	n/a	n/a	0	0	0
1930764	PROB	n/a	LTP317	ltpFR2	18	n/a	n/a	n/a	14	13	1	7	5
1932497	PROB	n/a	LTP317	ltpFR2	18	n/a	n/a	n/a	14	16	7	1	8
1934049	PROB	n/a	LTP317	ltpFR2	18	n/a	n/a	n/a	14	15	6	3	6
1937351	PROB	n/a	LTP317	ltpFR2	18	n/a	n/a	n/a	14	14	7	2	5
1939302	PROB	n/a	LTP317	ltpFR2	18	n/a	n/a	n/a	14	24	7	9	8
1942221	PROB	n/a	LTP317	ltpFR2	18	n/a	n/a	n/a	14	16	4	6	6
1943639	PROB	n/a	LTP317	ltpFR2	18	n/a	n/a	n/a	14	18	8	4	6
1945225	PROB	n/a	LTP317	ltpFR2	18	n/a	n/a	n/a	14	13	1	3	9
1946857	PROB	n/a	LTP317	ltpFR2	18	n/a	n/a	n/a	14	22	8	7	7
1948227	PROB	n/a	LTP317	ltpFR2	18	n/a	n/a	n/a	14	12	7	4	1
1950262	PROB	n/a	LTP317	ltpFR2	18	n/a	n/a	n/a	14	21	6	6	9
1952429	STOP	n/a	LTP317	ltpFR2	18	n/a	n/a	n/a	14	n/a	n/a	n/a	n/a
1955434	REC_START	n/a	LTP317	ltpFR2	18	10	n/a	n/a	n/a	n/a	0	0	0
1957398	REC_WORD	wordpools/wasnorm_wordpool_576.txt	LTP317	ltpFR2	18	10	SUMMER	-1	n/a	n/a	0	0	0
1958405	REC_WORD	wordpools/wasnorm_wordpool_576.txt	LTP317	ltpFR2	18	10	DINER	467	n/a	n/a	0	0	0
1960153	REC_WORD	wordpools/wasnorm_wordpool_576.txt	LTP317	ltpFR2	18	10	FILM	565	n/a	n/a	0	0	0
1968499	REC_WORD	wordpools/wasnorm_wordpool_576.txt	LTP317	ltpFR2	18	10	DRAWING	494	n/a	n/a	0	0	0
1969930	REC_WORD	wordpools/wasnorm_wordpool_576.txt	LTP317	ltpFR2	18	10	PATIENT	1024	n/a	n/a	0	0	0
1998200	REC_WORD	wordpools/wasnorm_wordpool_576.txt	LTP317	ltpFR2	18	10	EUROPE	541	n/a	n/a	0	0	0
2045865	WORD	wordpools/wasnorm_wordpool_576.txt	LTP317	ltpFR2	18	11	REBEL	1172	n/a	n/a	0	0	0
2048437	WORD	wordpools/wasnorm_wordpool_576.txt	LTP317	ltpFR2	18	11	SPONGE	1355	n/a	n/a	0	0	0
2051088	WORD	wordpools/wasnorm_wordpool_576.txt	LTP317	ltpFR2	18	11	BUBBLE	183	n/a	n/a	0	0	0
2053791	WORD	wordpools/wasnorm_wordpool_576.txt	LTP317	ltpFR2	18	11	QUAIL	1147	n/a	n/a	0	0	0
2056264	WORD	wordpools/wasnorm_wordpool_576.txt	LTP317	ltpFR2	18	11	NAPKIN	937	n/a	n/a	0	0	0
2058850	WORD	wordpools/wasnorm_wordpool_576.txt	LTP317	ltpFR2	18	11	TROMBONE	1508	n/a	n/a	0	0	0
2061414	WORD	wordpools/wasnorm_wordpool_576.txt	LTP317	ltpFR2	18	11	PASTA	1021	n/a	n/a	0	0	0
2063965	WORD	wordpools/wasnorm_wordpool_576.txt	LTP317	ltpFR2	18	11	SISTER	1312	n/a	n/a	0	0	0
2066435	WORD	wordpools/wasnorm_wordpool_576.txt	LTP317	ltpFR2	18	11	COLLEGE	346	n/a	n/a	0	0	0
2069238	WORD	wordpools/wasnorm_wordpool_576.txt	LTP317	ltpFR2	18	11	RIVER	1194	n/a	n/a	0	0	0
2071756	WORD	wordpools/wasnorm_wordpool_576.txt	LTP317	ltpFR2	18	11	HONEY	713	n/a	n/a	0	0	0
2074375	WORD	wordpools/wasnorm_wordpool_576.txt	LTP317	ltpFR2	18	11	HANDBAG	684	n/a	n/a	0	0	0
2076797	WORD	wordpools/wasnorm_wordpool_576.txt	LTP317	ltpFR2	18	11	NOVEL	960	n/a	n/a	0	0	0
2079396	WORD	wordpools/wasnorm_wordpool_576.txt	LTP317	ltpFR2	18	11	MAMMAL	861	n/a	n/a	0	0	0
2082050	WORD	wordpools/wasnorm_wordpool_576.txt	LTP317	ltpFR2	18	11	CHIPMUNK	304	n/a	n/a	0	0	0
2084485	WORD	wordpools/wasnorm_wordpool_576.txt	LTP317	ltpFR2	18	11	GRIZZLY	662	n/a	n/a	0	0	0
2087003	WORD	wordpools/wasnorm_wordpool_576.txt	LTP317	ltpFR2	18	11	NEUTRON	947	n/a	n/a	0	0	0
2089522	WORD	wordpools/wasnorm_wordpool_576.txt	LTP317	ltpFR2	18	11	HORNET	718	n/a	n/a	0	0	0
2092075	WORD	wordpools/wasnorm_wordpool_576.txt	LTP317	ltpFR2	18	11	TEACHER	1440	n/a	n/a	0	0	0
2094811	WORD	wordpools/wasnorm_wordpool_576.txt	LTP317	ltpFR2	18	11	CHEMIST	292	n/a	n/a	0	0	0
2097396	WORD	wordpools/wasnorm_wordpool_576.txt	LTP317	ltpFR2	18	11	BEAKER	104	n/a	n/a	0	0	0
2099930	WORD	wordpools/wasnorm_wordpool_576.txt	LTP317	ltpFR2	18	11	PIGEON	1065	n/a	n/a	0	0	0
2102684	WORD	wordpools/wasnorm_wordpool_576.txt	LTP317	ltpFR2	18	11	STICKER	1382	n/a	n/a	0	0	0
2105118	WORD	wordpools/wasnorm_wordpool_576.txt	LTP317	ltpFR2	18	11	PERMIT	1051	n/a	n/a	0	0	0
2106738	START	n/a	LTP317	ltpFR2	18	n/a	n/a	n/a	15	n/a	n/a	n/a	n/a
2107860	DISTRACTOR	n/a	LTP317	ltpFR2	18	11	n/a	n/a	n/a	n/a	0	0	0
2107871	PROB	n/a	LTP317	ltpFR2	18	n/a	n/a	n/a	15	23	9	7	7
2109640	PROB	n/a	LTP317	ltpFR2	18	n/a	n/a	n/a	15	15	3	4	8
2110923	PROB	n/a	LTP317	ltpFR2	18	n/a	n/a	n/a	15	24	9	6	9
2113925	PROB	n/a	LTP317	ltpFR2	18	n/a	n/a	n/a	15	15	5	2	8
2115260	PROB	n/a	LTP317	ltpFR2	18	n/a	n/a	n/a	15	9	1	6	2
2117146	PROB	n/a	LTP317	ltpFR2	18	n/a	n/a	n/a	15	14	4	9	1
2118665	PROB	n/a	LTP317	ltpFR2	18	n/a	n/a	n/a	15	17	7	2	8
2120197	PROB	n/a	LTP317	ltpFR2	18	n/a	n/a	n/a	15	17	5	5	7
2121498	PROB	n/a	LTP317	ltpFR2	18	n/a	n/a	n/a	15	6	2	3	1
2122549	PROB	n/a	LTP317	ltpFR2	18	n/a	n/a	n/a	15	22	8	6	8
2124586	PROB	n/a	LTP317	ltpFR2	18	n/a	n/a	n/a	15	13	3	7	3
2125786	PROB	n/a	LTP317	ltpFR2	18	n/a	n/a	n/a	15	13	4	7	2
2127353	PROB	n/a	LTP317	ltpFR2	18	n/a	n/a	n/a	15	12	1	4	7
2130738	STOP	n/a	LTP317	ltpFR2	18	n/a	n/a	n/a	15	n/a	n/a	n/a	n/a
2132693	REC_START	n/a	LTP317	ltpFR2	18	11	n/a	n/a	n/a	n/a	0	0	0
2134379	REC_WORD	wordpools/wasnorm_wordpool_576.txt	LTP317	ltpFR2	18	11	REBEL	1172	n/a	n/a	0	0	0
2135395	REC_WORD	wordpools/wasnorm_wordpool_576.txt	LTP317	ltpFR2	18	11	BUBBLE	183	n/a	n/a	0	0	0
2137087	REC_WORD	wordpools/wasnorm_wordpool_576.txt	LTP317	ltpFR2	18	11	QUAIL	1147	n/a	n/a	0	0	0
2137875	REC_WORD	wordpools/wasnorm_wordpool_576.txt	LTP317	ltpFR2	18	11	SPONGE	1355	n/a	n/a	0	0	0
2138913	REC_WORD	wordpools/wasnorm_wordpool_576.txt	LTP317	ltpFR2	18	11	RIVER	1194	n/a	n/a	0	0	0
2139956	REC_WORD	wordpools/wasnorm_wordpool_576.txt	LTP317	ltpFR2	18	11	MAMMAL	861	n/a	n/a	0	0	0
2141075	REC_WORD	wordpools/wasnorm_wordpool_576.txt	LTP317	ltpFR2	18	11	CHIPMUNK	304	n/a	n/a	0	0	0
2142264	REC_WORD	wordpools/wasnorm_wordpool_576.txt	LTP317	ltpFR2	18	11	GRIZZLY	662	n/a	n/a	0	0	0
2148151	REC_WORD	wordpools/wasnorm_wordpool_576.txt	LTP317	ltpFR2	18	11	CHEMIST	292	n/a	n/a	0	0	0
2149156	REC_WORD	wordpools/wasnorm_wordpool_576.txt	LTP317	ltpFR2	18	11	NEUTRON	947	n/a	n/a	0	0	0
2150760	REC_WORD	wordpools/wasnorm_wordpool_576.txt	LTP317	ltpFR2	18	11	BEAKER	104	n/a	n/a	0	0	0
2223131	DISTRACTOR	n/a	LTP317	ltpFR2	18	12	n/a	n/a	n/a	n/a	0	0	0
2223131	START	n/a	LTP317	ltpFR2	18	n/a	n/a	n/a	16	n/a	n/a	n/a	n/a
2223146	PROB	n/a	LTP317	ltpFR2	18	n/a	n/a	n/a	16	18	7	7	4
2224600	PROB	n/a	LTP317	ltpFR2	18	n/a	n/a	n/a	16	20	7	8	5
2226432	PROB	n/a	LTP317	ltpFR2	18	n/a	n/a	n/a	16	13	5	7	1
2227967	PROB	n/a	LTP317	ltpFR2	18	n/a	n/a	n/a	16	7	1	1	5
2229287	PROB	n/a	LTP317	ltpFR2	18	n/a	n/a	n/a	16	13	9	1	3
2231052	PROB	n/a	LTP317	ltpFR2	18	n/a	n/a	n/a	16	14	6	7	1
2232705	PROB	n/a	LTP317	ltpFR2	18	n/a	n/a	n/a	16	16	5	6	5
2233838	PROB	n/a	LTP317	ltpFR2	18	n/a	n/a	n/a	16	16	6	2	8
2235675	PROB	n/a	LTP317	ltpFR2	18	n/a	n/a	n/a	16	20	9	3	8
2237158	PROB	n/a	LTP317	ltpFR2	18	n/a	n/a	n/a	16	21	3	9	9
2238777	PROB	n/a	LTP317	ltpFR2	18	n/a	n/a	n/a	16	13	5	2	6
2239961	PROB	n/a	LTP317	ltpFR2	18	n/a	n/a	n/a	16	10	4	2	4
2242764	PROB	n/a	LTP317	ltpFR2	18	n/a	n/a	n/a	16	15	4	8	3
2244146	PROB	n/a	LTP317	ltpFR2	18	n/a	n/a	n/a	16	11	8	9	2
2246449	STOP	n/a	LTP317	ltpFR2	18	n/a	n/a	n/a	16	n/a	n/a	n/a	n/a
2248319	WORD	wordpools/wasnorm_wordpool_576.txt	LTP317	ltpFR2	18	12	GAVEL	627	n/a	n/a	0	0	0
2251078	WORD	wordpools/wasnorm_wordpool_576.txt	LTP317	ltpFR2	18	12	SCARECROW	1245	n/a	n/a	0	0	0
2253672	WORD	wordpools/wasnorm_wordpool_576.txt	LTP317	ltpFR2	18	12	CASKET	255	n/a	n/a	0	0	0
2256149	WORD	wordpools/wasnorm_wordpool_576.txt	LTP317	ltpFR2	18	12	RUST	1219	n/a	n/a	0	0	0
2258626	WORD	wordpools/wasnorm_wordpool_576.txt	LTP317	ltpFR2	18	12	GANGSTER	620	n/a	n/a	0	0	0
2261406	WORD	wordpools/wasnorm_wordpool_576.txt	LTP317	ltpFR2	18	12	BROTHER	179	n/a	n/a	0	0	0
2263930	WORD	wordpools/wasnorm_wordpool_576.txt	LTP317	ltpFR2	18	12	ROBBER	1197	n/a	n/a	0	0	0
2266500	WORD	wordpools/wasnorm_wordpool_576.txt	LTP317	ltpFR2	18	12	BARREL	91	n/a	n/a	0	0	0
2269201	WORD	wordpools/wasnorm_wordpool_576.txt	LTP317	ltpFR2	18	12	ICEBERG	731	n/a	n/a	0	0	0
2271896	WORD	wordpools/wasnorm_wordpool_576.txt	LTP317	ltpFR2	18	12	SEAGULL	1261	n/a	n/a	0	0	0
2274501	WORD	wordpools/wasnorm_wordpool_576.txt	LTP317	ltpFR2	18	12	POLICE	1098	n/a	n/a	0	0	0
2277017	WORD	wordpools/wasnorm_wordpool_576.txt	LTP317	ltpFR2	18	12	AGENT	10	n/a	n/a	0	0	0
2279788	WORD	wordpools/wasnorm_wordpool_576.txt	LTP317	ltpFR2	18	12	BELLY	119	n/a	n/a	0	0	0
2282524	WORD	wordpools/wasnorm_wordpool_576.txt	LTP317	ltpFR2	18	12	SALT	1229	n/a	n/a	0	0	0
2285259	WORD	wordpools/wasnorm_wordpool_576.txt	LTP317	ltpFR2	18	12	BURGLAR	200	n/a	n/a	0	0	0
2288044	WORD	wordpools/wasnorm_wordpool_576.txt	LTP317	ltpFR2	18	12	HIGHWAY	707	n/a	n/a	0	0	0
2290564	WORD	wordpools/wasnorm_wordpool_576.txt	LTP317	ltpFR2	18	12	GYMNAST	675	n/a	n/a	0	0	0
2293032	WORD	wordpools/wasnorm_wordpool_576.txt	LTP317	ltpFR2	18	12	STOMACH	1384	n/a	n/a	0	0	0
2295722	WORD	wordpools/wasnorm_wordpool_576.txt	LTP317	ltpFR2	18	12	CHAMPAGNE	278	n/a	n/a	0	0	0
2298471	WORD	wordpools/wasnorm_wordpool_576.txt	LTP317	ltpFR2	18	12	SHARK	1275	n/a	n/a	0	0	0
2301006	WORD	wordpools/wasnorm_wordpool_576.txt	LTP317	ltpFR2	18	12	HOOK	715	n/a	n/a	0	0	0
2303808	WORD	wordpools/wasnorm_wordpool_576.txt	LTP317	ltpFR2	18	12	BABY	64	n/a	n/a	0	0	0
2306565	WORD	wordpools/wasnorm_wordpool_576.txt	LTP317	ltpFR2	18	12	SWIMMER	1420	n/a	n/a	0	0	0
2309063	WORD	wordpools/wasnorm_wordpool_576.txt	LTP317	ltpFR2	18	12	CAMEL	223	n/a	n/a	0	0	0
2310669	START	n/a	LTP317	ltpFR2	18	n/a	n/a	n/a	17	n/a	n/a	n/a	n/a
2311752	DISTRACTOR	n/a	LTP317	ltpFR2	18	12	n/a	n/a	n/a	n/a	0	0	0
2311766	PROB	n/a	LTP317	ltpFR2	18	n/a	n/a	n/a	17	10	8	1	1
2313048	PROB	n/a	LTP317	ltpFR2	18	n/a	n/a	n/a	17	8	1	3	4
2314851	PROB	n/a	LTP317	ltpFR2	18	n/a	n/a	n/a	17	18	9	1	8
2316153	PROB	n/a	LTP317	ltpFR2	18	n/a	n/a	n/a	17	20	6	6	7
2319904	PROB	n/a	LTP317	ltpFR2	18	n/a	n/a	n/a	17	13	4	8	1
2322022	PROB	n/a	LTP317	ltpFR2	18	n/a	n/a	n/a	17	17	5	4	8
2323792	PROB	n/a	LTP317	ltpFR2	18	n/a	n/a	n/a	17	7	3	1	3
2325512	PROB	n/a	LTP317	ltpFR2	18	n/a	n/a	n/a	17	16	1	6	9
2327112	PROB	n/a	LTP317	ltpFR2	18	n/a	n/a	n/a	17	14	3	3	8
2328713	PROB	n/a	LTP317	ltpFR2	18	n/a	n/a	n/a	17	18	6	8	4
2330566	PROB	n/a	LTP317	ltpFR2	18	n/a	n/a	n/a	17	15	2	9	4
2332064	PROB	n/a	LTP317	ltpFR2	18	n/a	n/a	n/a	17	5	2	1	2
2333404	STOP	n/a	LTP317	ltpFR2	18	n/a	n/a	n/a	17	n/a	n/a	n/a	n/a
2336589	REC_START	n/a	LTP317	ltpFR2	18	12	n/a	n/a	n/a	n/a	0	0	0
2338826	REC_WORD	wordpools/wasnorm_wordpool_576.txt	LTP317	ltpFR2	18	12	SCARECROW	1245	n/a	n/a	0	0	0
2339826	REC_WORD_VV	wordpools/wasnorm_wordpool_576.txt	LTP317	ltpFR2	18	12	<>	-1	n/a	n/a	0	0	0
2340597	REC_WORD	wordpools/wasnorm_wordpool_576.txt	LTP317	ltpFR2	18	12	GAVEL	627	n/a	n/a	0	0	0
2342584	REC_WORD	wordpools/wasnorm_wordpool_576.txt	LTP317	ltpFR2	18	12	CASKET	255	n/a	n/a	0	0	0
2344095	REC_WORD	wordpools/wasnorm_wordpool_576.txt	LTP317	ltpFR2	18	12	RUST	1219	n/a	n/a	0	0	0
2345373	REC_WORD	wordpools/wasnorm_wordpool_576.txt	LTP317	ltpFR2	18	12	POLICE	1098	n/a	n/a	0	0	0
2427026	WORD	wordpools/wasnorm_wordpool_576.txt	LTP317	ltpFR2	18	13	KLEENEX	782	n/a	n/a	0	0	0
2429680	WORD	wordpools/wasnorm_wordpool_576.txt	LTP317	ltpFR2	18	13	BEAST	108	n/a	n/a	0	0	0
2432482	WORD	wordpools/wasnorm_wordpool_576.txt	LTP317	ltpFR2	18	13	STALLION	1369	n/a	n/a	0	0	0
2435256	WORD	wordpools/wasnorm_wordpool_576.txt	LTP317	ltpFR2	18	13	LAVA	804	n/a	n/a	0	0	0
2437875	WORD	wordpools/wasnorm_wordpool_576.txt	LTP317	ltpFR2	18	13	CONTRACT	368	n/a	n/a	0	0	0
2440527	WORD	wordpools/wasnorm_wordpool_576.txt	LTP317	ltpFR2	18	13	PORK	1108	n/a	n/a	0	0	0
2443291	WORD	wordpools/wasnorm_wordpool_576.txt	LTP317	ltpFR2	18	13	MATTRESS	879	n/a	n/a	0	0	0
2445959	WORD	wordpools/wasnorm_wordpool_576.txt	LTP317	ltpFR2	18	13	COUNTY	389	n/a	n/a	0	0	0
2448495	WORD	wordpools/wasnorm_wordpool_576.txt	LTP317	ltpFR2	18	13	BADGE	68	n/a	n/a	0	0	0
2450996	WORD	wordpools/wasnorm_wordpool_576.txt	LTP317	ltpFR2	18	13	VAGRANT	1544	n/a	n/a	0	0	0
2453739	WORD	wordpools/wasnorm_wordpool_576.txt	LTP317	ltpFR2	18	13	GUARD	667	n/a	n/a	0	0	0
2456551	WORD	wordpools/wasnorm_wordpool_576.txt	LTP317	ltpFR2	18	13	LUGGAGE	847	n/a	n/a	0	0	0
2458977	WORD	wordpools/wasnorm_wordpool_576.txt	LTP317	ltpFR2	18	13	CONVICT	371	n/a	n/a	0	0	0
2461455	WORD	wordpools/wasnorm_wordpool_576.txt	LTP317	ltpFR2	18	13	VICTIM	1562	n/a	n/a	0	0	0
2463990	WORD	wordpools/wasnorm_wordpool_576.txt	LTP317	ltpFR2	18	13	PECAN	1036	n/a	n/a	0	0	0
2466776	WORD	wordpools/wasnorm_wordpool_576.txt	LTP317	ltpFR2	18	13	COBRA	336	n/a	n/a	0	0	0
2469370	WORD	wordpools/wasnorm_wordpool_576.txt	LTP317	ltpFR2	18	13	COWBOY	395	n/a	n/a	0	0	0
2472137	WORD	wordpools/wasnorm_wordpool_576.txt	LTP317	ltpFR2	18	13	SILK	1307	n/a	n/a	0	0	0
2474683	WORD	wordpools/wasnorm_wordpool_576.txt	LTP317	ltpFR2	18	13	TEMPLE	1448	n/a	n/a	0	0	0
2477210	WORD	wordpools/wasnorm_wordpool_576.txt	LTP317	ltpFR2	18	13	CHURCH	307	n/a	n/a	0	0	0
2479720	WORD	wordpools/wasnorm_wordpool_576.txt	LTP317	ltpFR2	18	13	BISON	131	n/a	n/a	0	0	0
2482406	WORD	wordpools/wasnorm_wordpool_576.txt	LTP317	ltpFR2	18	13	SWITCH	1422	n/a	n/a	0	0	0
2484915	WORD	wordpools/wasnorm_wordpool_576.txt	LTP317	ltpFR2	18	13	FLAG	573	n/a	n/a	0	0	0
2487577	WORD	wordpools/wasnorm_wordpool_576.txt	LTP317	ltpFR2	18	13	STATUE	1374	n/a	n/a	0	0	0
2489188	START	n/a	LTP317	ltpFR2	18	n/a	n/a	n/a	18	n/a	n/a	n/a	n/a
2490178	DISTRACTOR	n/a	LTP317	ltpFR2	18	13	n/a	n/a	n/a	n/a	0	0	0
2490188	PROB	n/a	LTP317	ltpFR2	18	n/a	n/a	n/a	18	14	3	6	5
2491995	PROB	n/a	LTP317	ltpFR2	18	n/a	n/a	n/a	18	12	1	6	5
2493363	PROB	n/a	LTP317	ltpFR2	18	n/a	n/a	n/a	18	17	5	3	9
2494831	PROB	n/a	LTP317	ltpFR2	18	n/a	n/a	n/a	18	11	1	8	2
2496716	PROB	n/a	LTP317	ltpFR2	18	n/a	n/a	n/a	18	17	6	6	5
2498000	PROB	n/a	LTP317	ltpFR2	18	n/a	n/a	n/a	18	17	5	5	7
2499852	PROB	n/a	LTP317	ltpFR2	18	n/a	n/a	n/a	18	16	3	4	9
2501118	PROB	n/a	LTP317	ltpFR2	18	n/a	n/a	n/a	18	17	9	7	1
2502937	PROB	n/a	LTP317	ltpFR2	18	n/a	n/a	n/a	18	11	7	1	3
2504507	PROB	n/a	LTP317	ltpFR2	18	n/a	n/a	n/a	18	17	5	6	6
2505889	PROB	n/a	LTP317	ltpFR2	18	n/a	n/a	n/a	18	20	5	9	6
2508141	PROB	n/a	LTP317	ltpFR2	18	n/a	n/a	n/a	18	16	6	4	6
2509527	PROB	n/a	LTP317	ltpFR2	18	n/a	n/a	n/a	18	6	1	3	2
2510561	PROB	n/a	LTP317	ltpFR2	18	n/a	n/a	n/a	18	21	7	7	7
2511661	PROB	n/a	LTP317	ltpFR2	18	n/a	n/a	n/a	18	8	2	2	4
2513146	STOP	n/a	LTP317	ltpFR2	18	n/a	n/a	n/a	18	n/a	n/a	n/a	n/a
2515065	REC_START	n/a	LTP317	ltpFR2	18	13	n/a	n/a	n/a	n/a	0	0	0
2515929	REC_WORD	wordpools/wasnorm_wordpool_576.txt	LTP317	ltpFR2	18	13	KLEENEX	782	n/a	n/a	0	0	0
2527056	REC_WORD	wordpools/wasnorm_wordpool_576.txt	LTP317	ltpFR2	18	13	BEAST	108	n/a	n/a	0	0	0
2528082	REC_WORD	wordpools/wasnorm_wordpool_576.txt	LTP317	ltpFR2	18	13	STALLION	1369	n/a	n/a	0	0	0
2529955	REC_WORD	wordpools/wasnorm_wordpool_576.txt	LTP317	ltpFR2	18	13	LAVA	804	n/a	n/a	0	0	0
2531086	REC_WORD	wordpools/wasnorm_wordpool_576.txt	LTP317	ltpFR2	18	13	VICTIM	1562	n/a	n/a	0	0	0
2537079	REC_WORD	wordpools/wasnorm_wordpool_576.txt	LTP317	ltpFR2	18	13	BISON	131	n/a	n/a	0	0	0
2537968	REC_WORD	wordpools/wasnorm_wordpool_576.txt	LTP317	ltpFR2	18	13	CHURCH	307	n/a	n/a	0	0	0
2550888	REC_WORD	wordpools/wasnorm_wordpool_576.txt	LTP317	ltpFR2	18	13	VAGRANT	1544	n/a	n/a	0	0	0
2605522	DISTRACTOR	n/a	LTP317	ltpFR2	18	14	n/a	n/a	n/a	n/a	0	0	0
2605523	START	n/a	LTP317	ltpFR2	18	n/a	n/a	n/a	19	n/a	n/a	n/a	n/a
2605538	PROB	n/a	LTP317	ltpFR2	18	n/a	n/a	n/a	19	8	1	5	2
2607088	PROB	n/a	LTP317	ltpFR2	18	n/a	n/a	n/a	19	16	5	9	2
2608921	PROB	n/a	LTP317	ltpFR2	18	n/a	n/a	n/a	19	26	8	9	9
2610741	PROB	n/a	LTP317	ltpFR2	18	n/a	n/a	n/a	19	15	1	8	6
2612326	PROB	n/a	LTP317	ltpFR2	18	n/a	n/a	n/a	19	13	6	6	1
2613610	PROB	n/a	LTP317	ltpFR2	18	n/a	n/a	n/a	19	14	4	2	8
2615463	PROB	n/a	LTP317	ltpFR2	18	n/a	n/a	n/a	19	16	9	1	6
2616613	PROB	n/a	LTP317	ltpFR2	18	n/a	n/a	n/a	19	13	1	4	8
2618297	PROB	n/a	LTP317	ltpFR2	18	n/a	n/a	n/a	19	22	7	8	7
2620481	PROB	n/a	LTP317	ltpFR2	18	n/a	n/a	n/a	19	13	6	6	1
2622016	PROB	n/a	LTP317	ltpFR2	18	n/a	n/a	n/a	19	3	1	1	1
2623117	PROB	n/a	LTP317	ltpFR2	18	n/a	n/a	n/a	19	16	4	8	4
2625286	PROB	n/a	LTP317	ltpFR2	18	n/a	n/a	n/a	19	12	2	9	1
2626986	PROB	n/a	LTP317	ltpFR2	18	n/a	n/a	n/a	19	12	1	5	6
2629360	STOP	n/a	LTP317	ltpFR2	18	n/a	n/a	n/a	19	n/a	n/a	n/a	n/a
2630610	WORD	wordpools/wasnorm_wordpool_576.txt	LTP317	ltpFR2	18	14	SIDEWALK	1303	n/a	n/a	0	0	0
2633193	WORD	wordpools/wasnorm_wordpool_576.txt	LTP317	ltpFR2	18	14	TRIBE	1505	n/a	n/a	0	0	0
2635762	WORD	wordpools/wasnorm_wordpool_576.txt	LTP317	ltpFR2	18	14	FRAME	600	n/a	n/a	0	0	0
2638313	WORD	wordpools/wasnorm_wordpool_576.txt	LTP317	ltpFR2	18	14	EMPIRE	530	n/a	n/a	0	0	0
2641049	WORD	wordpools/wasnorm_wordpool_576.txt	LTP317	ltpFR2	18	14	DIME	466	n/a	n/a	0	0	0
2643819	WORD	wordpools/wasnorm_wordpool_576.txt	LTP317	ltpFR2	18	14	CRAB	397	n/a	n/a	0	0	0
2646354	WORD	wordpools/wasnorm_wordpool_576.txt	LTP317	ltpFR2	18	14	BARLEY	88	n/a	n/a	0	0	0
2648858	WORD	wordpools/wasnorm_wordpool_576.txt	LTP317	ltpFR2	18	14	STAMP	1370	n/a	n/a	0	0	0
2651608	WORD	wordpools/wasnorm_wordpool_576.txt	LTP317	ltpFR2	18	14	PACKAGE	997	n/a	n/a	0	0	0
2654043	WORD	wordpools/wasnorm_wordpool_576.txt	LTP317	ltpFR2	18	14	STAPLE	1371	n/a	n/a	0	0	0
2656582	WORD	wordpools/wasnorm_wordpool_576.txt	LTP317	ltpFR2	18	14	VENUS	1557	n/a	n/a	0	0	0
2659129	WORD	wordpools/wasnorm_wordpool_576.txt	LTP317	ltpFR2	18	14	MARS	873	n/a	n/a	0	0	0
2661683	WORD	wordpools/wasnorm_wordpool_576.txt	LTP317	ltpFR2	18	14	NOMAD	955	n/a	n/a	0	0	0
2664101	WORD	wordpools/wasnorm_wordpool_576.txt	LTP317	ltpFR2	18	14	QUARTER	1148	n/a	n/a	0	0	0
2666653	WORD	wordpools/wasnorm_wordpool_576.txt	LTP317	ltpFR2	18	14	BUGGY	188	n/a	n/a	0	0	0
2669422	WORD	wordpools/wasnorm_wordpool_576.txt	LTP317	ltpFR2	18	14	SWORD	1423	n/a	n/a	0	0	0
2672107	WORD	wordpools/wasnorm_wordpool_576.txt	LTP317	ltpFR2	18	14	SNAKE	1333	n/a	n/a	0	0	0
2674527	WORD	wordpools/wasnorm_wordpool_576.txt	LTP317	ltpFR2	18	14	BRIEFCASE	175	n/a	n/a	0	0	0
2677077	WORD	wordpools/wasnorm_wordpool_576.txt	LTP317	ltpFR2	18	14	FLEET	578	n/a	n/a	0	0	0
2679647	WORD	wordpools/wasnorm_wordpool_576.txt	LTP317	ltpFR2	18	14	LEADER	807	n/a	n/a	0	0	0
2682454	WORD	wordpools/wasnorm_wordpool_576.txt	LTP317	ltpFR2	18	14	CARRIAGE	248	n/a	n/a	0	0	0
2685257	WORD	wordpools/wasnorm_wordpool_576.txt	LTP317	ltpFR2	18	14	COD	340	n/a	n/a	0	0	0
2687936	WORD	wordpools/wasnorm_wordpool_576.txt	LTP317	ltpFR2	18	14	TURTLE	1522	n/a	n/a	0	0	0
2690662	WORD	wordpools/wasnorm_wordpool_576.txt	LTP317	ltpFR2	18	14	SCRIBBLE	1256	n/a	n/a	0	0	0
2692275	START	n/a	LTP317	ltpFR2	18	n/a	n/a	n/a	20	n/a	n/a	n/a	n/a
2693277	DISTRACTOR	n/a	LTP317	ltpFR2	18	14	n/a	n/a	n/a	n/a	0	0	0
2693281	PROB	n/a	LTP317	ltpFR2	18	n/a	n/a	n/a	20	23	9	6	8
2695875	PROB	n/a	LTP317	ltpFR2	18	n/a	n/a	n/a	20	16	7	6	3
2697412	PROB	n/a	LTP317	ltpFR2	18	n/a	n/a	n/a	20	17	2	9	6
2699110	PROB	n/a	LTP317	ltpFR2	18	n/a	n/a	n/a	20	15	7	3	5
2700262	PROB	n/a	LTP317	ltpFR2	18	n/a	n/a	n/a	20	10	5	2	3
2701764	PROB	n/a	LTP317	ltpFR2	18	n/a	n/a	n/a	20	22	5	8	8
2703931	PROB	n/a	LTP317	ltpFR2	18	n/a	n/a	n/a	20	18	6	8	4
2706368	PROB	n/a	LTP317	ltpFR2	18	n/a	n/a	n/a	20	15	4	5	6
2707635	PROB	n/a	LTP317	ltpFR2	18	n/a	n/a	n/a	20	15	8	5	2
2709438	PROB	n/a	LTP317	ltpFR2	18	n/a	n/a	n/a	20	24	8	9	8
2711371	PROB	n/a	LTP317	ltpFR2	18	n/a	n/a	n/a	20	9	3	2	4
2713174	PROB	n/a	LTP317	ltpFR2	18	n/a	n/a	n/a	20	7	3	1	3
2714457	PROB	n/a	LTP317	ltpFR2	18	n/a	n/a	n/a	20	21	7	5	9
2715866	STOP	n/a	LTP317	ltpFR2	18	n/a	n/a	n/a	20	n/a	n/a	n/a	n/a
2718045	REC_START	n/a	LTP317	ltpFR2	18	14	n/a	n/a	n/a	n/a	0	0	0
2718891	REC_WORD	wordpools/wasnorm_wordpool_576.txt	LTP317	ltpFR2	18	14	SIDEWALK	1303	n/a	n/a	0	0	0
2722938	REC_WORD	wordpools/wasnorm_wordpool_576.txt	LTP317	ltpFR2	18	14	TRIBE	1505	n/a	n/a	0	0	0
2724451	REC_WORD	wordpools/wasnorm_wordpool_576.txt	LTP317	ltpFR2	18	14	CRAB	397	n/a	n/a	0	0	0
2725680	REC_WORD	wordpools/wasnorm_wordpool_576.txt	LTP317	ltpFR2	18	14	DIME	466	n/a	n/a	0	0	0
2726729	REC_WORD	wordpools/wasnorm_wordpool_576.txt	LTP317	ltpFR2	18	14	VENUS	1557	n/a	n/a	0	0	0
2728181	REC_WORD	wordpools/wasnorm_wordpool_576.txt	LTP317	ltpFR2	18	14	MARS	873	n/a	n/a	0	0	0
2732008	REC_WORD	wordpools/wasnorm_wordpool_576.txt	LTP317	ltpFR2	18	14	CARRIAGE	248	n/a	n/a	0	0	0
2733181	REC_WORD	wordpools/wasnorm_wordpool_576.txt	LTP317	ltpFR2	18	14	COD	340	n/a	n/a	0	0	0
2808484	DISTRACTOR	n/a	LTP317	ltpFR2	18	15	n/a	n/a	n/a	n/a	0	0	0
2808484	START	n/a	LTP317	ltpFR2	18	n/a	n/a	n/a	21	n/a	n/a	n/a	n/a
2808499	PROB	n/a	LTP317	ltpFR2	18	n/a	n/a	n/a	21	16	1	6	9
2810967	PROB	n/a	LTP317	ltpFR2	18	n/a	n/a	n/a	21	21	7	8	6
2812686	PROB	n/a	LTP317	ltpFR2	18	n/a	n/a	n/a	21	17	4	5	8
2814151	PROB	n/a	LTP317	ltpFR2	18	n/a	n/a	n/a	21	12	5	3	4
2815439	PROB	n/a	LTP317	ltpFR2	18	n/a	n/a	n/a	21	16	2	9	5
2816772	PROB	n/a	LTP317	ltpFR2	18	n/a	n/a	n/a	21	14	3	6	5
2818942	PROB	n/a	LTP317	ltpFR2	18	n/a	n/a	n/a	21	19	8	7	4
2821310	PROB	n/a	LTP317	ltpFR2	18	n/a	n/a	n/a	21	14	3	6	5
2822945	PROB	n/a	LTP317	ltpFR2	18	n/a	n/a	n/a	21	22	4	9	9
2824679	PROB	n/a	LTP317	ltpFR2	18	n/a	n/a	n/a	21	13	1	5	7
2826699	PROB	n/a	LTP317	ltpFR2	18	n/a	n/a	n/a	21	11	6	1	4
2828466	PROB	n/a	LTP317	ltpFR2	18	n/a	n/a	n/a	21	11	1	3	7
2829982	PROB	n/a	LTP317	ltpFR2	18	n/a	n/a	n/a	21	13	5	5	3
2831095	STOP	n/a	LTP317	ltpFR2	18	n/a	n/a	n/a	21	n/a	n/a	n/a	n/a
2833403	WORD	wordpools/wasnorm_wordpool_576.txt	LTP317	ltpFR2	18	15	HEADBAND	696	n/a	n/a	0	0	0
2835988	WORD	wordpools/wasnorm_wordpool_576.txt	LTP317	ltpFR2	18	15	DOUGHNUT	490	n/a	n/a	0	0	0
2838624	WORD	wordpools/wasnorm_wordpool_576.txt	LTP317	ltpFR2	18	15	CANAL	226	n/a	n/a	0	0	0
2841092	WORD	wordpools/wasnorm_wordpool_576.txt	LTP317	ltpFR2	18	15	SLIDE	1326	n/a	n/a	0	0	0
2843812	WORD	wordpools/wasnorm_wordpool_576.txt	LTP317	ltpFR2	18	15	SALMON	1227	n/a	n/a	0	0	0
2846348	WORD	wordpools/wasnorm_wordpool_576.txt	LTP317	ltpFR2	18	15	PLIERS	1089	n/a	n/a	0	0	0
2848981	WORD	wordpools/wasnorm_wordpool_576.txt	LTP317	ltpFR2	18	15	AUTHOR	61	n/a	n/a	0	0	0
2851685	WORD	wordpools/wasnorm_wordpool_576.txt	LTP317	ltpFR2	18	15	BRACES	164	n/a	n/a	0	0	0
2854253	WORD	wordpools/wasnorm_wordpool_576.txt	LTP317	ltpFR2	18	15	CRITIC	410	n/a	n/a	0	0	0
2856706	WORD	wordpools/wasnorm_wordpool_576.txt	LTP317	ltpFR2	18	15	GRAVE	658	n/a	n/a	0	0	0
2859308	WORD	wordpools/wasnorm_wordpool_576.txt	LTP317	ltpFR2	18	15	KETCHUP	771	n/a	n/a	0	0	0
2862092	WORD	wordpools/wasnorm_wordpool_576.txt	LTP317	ltpFR2	18	15	SANDWICH	1232	n/a	n/a	0	0	0
2864562	WORD	wordpools/wasnorm_wordpool_576.txt	LTP317	ltpFR2	18	15	GOBLIN	645	n/a	n/a	0	0	0
2867198	WORD	wordpools/wasnorm_wordpool_576.txt	LTP317	ltpFR2	18	15	BASEMENT	94	n/a	n/a	0	0	0
2869884	WORD	wordpools/wasnorm_wordpool_576.txt	LTP317	ltpFR2	18	15	SIBLING	1301	n/a	n/a	0	0	0
2872384	WORD	wordpools/wasnorm_wordpool_576.txt	LTP317	ltpFR2	18	15	MUSTARD	935	n/a	n/a	0	0	0
2874905	WORD	wordpools/wasnorm_wordpool_576.txt	LTP317	ltpFR2	18	15	DRIVER	499	n/a	n/a	0	0	0
2877622	WORD	wordpools/wasnorm_wordpool_576.txt	LTP317	ltpFR2	18	15	FIREPLACE	570	n/a	n/a	0	0	0
2880425	WORD	wordpools/wasnorm_wordpool_576.txt	LTP317	ltpFR2	18	15	MISTER	901	n/a	n/a	0	0	0
2883193	WORD	wordpools/wasnorm_wordpool_576.txt	LTP317	ltpFR2	18	15	ZEBRA	1635	n/a	n/a	0	0	0
2885645	WORD	wordpools/wasnorm_wordpool_576.txt	LTP317	ltpFR2	18	15	SADDLE	1221	n/a	n/a	0	0	0
2888247	WORD	wordpools/wasnorm_wordpool_576.txt	LTP317	ltpFR2	18	15	TOMBSTONE	1478	n/a	n/a	0	0	0
2890783	WORD	wordpools/wasnorm_wordpool_576.txt	LTP317	ltpFR2	18	15	CELLAR	267	n/a	n/a	0	0	0
2893518	WORD	wordpools/wasnorm_wordpool_576.txt	LTP317	ltpFR2	18	15	POPCORN	1104	n/a	n/a	0	0	0
2895123	START	n/a	LTP317	ltpFR2	18	n/a	n/a	n/a	22	n/a	n/a	n/a	n/a
2896146	DISTRACTOR	n/a	LTP317	ltpFR2	18	15	n/a	n/a	n/a	n/a	0	0	0
2896153	PROB	n/a	LTP317	ltpFR2	18	n/a	n/a	n/a	22	13	8	1	4
2897971	PROB	n/a	LTP317	ltpFR2	18	n/a	n/a	n/a	22	19	9	3	7
2901490	PROB	n/a	LTP317	ltpFR2	18	n/a	n/a	n/a	22	8	3	2	3
2903892	PROB	n/a	LTP317	ltpFR2	18	n/a	n/a	n/a	22	15	8	2	5
2905378	PROB	n/a	LTP317	ltpFR2	18	n/a	n/a	n/a	22	8	2	2	4
2906943	PROB	n/a	LTP317	ltpFR2	18	n/a	n/a	n/a	22	12	6	2	4
2908429	PROB	n/a	LTP317	ltpFR2	18	n/a	n/a	n/a	22	20	6	6	8
2910181	PROB	n/a	LTP317	ltpFR2	18	n/a	n/a	n/a	22	15	5	1	9
2911550	PROB	n/a	LTP317	ltpFR2	18	n/a	n/a	n/a	22	11	4	6	1
2912733	PROB	n/a	LTP317	ltpFR2	18	n/a	n/a	n/a	22	10	2	5	3
2914619	PROB	n/a	LTP317	ltpFR2	18	n/a	n/a	n/a	22	14	2	7	5
2916303	PROB	n/a	LTP317	ltpFR2	18	n/a	n/a	n/a	22	20	7	8	5
2918251	STOP	n/a	LTP317	ltpFR2	18	n/a	n/a	n/a	22	n/a	n/a	n/a	n/a
2920906	REC_START	n/a	LTP317	ltpFR2	18	15	n/a	n/a	n/a	n/a	0	0	0
2922620	REC_WORD	wordpools/wasnorm_wordpool_576.txt	LTP317	ltpFR2	18	15	HEADBAND	696	n/a	n/a	0	0	0
2923607	REC_WORD	wordpools/wasnorm_wordpool_576.txt	LTP317	ltpFR2	18	15	DOUGHNUT	490	n/a	n/a	0	0	0
2925106	REC_WORD	wordpools/wasnorm_wordpool_576.txt	LTP317	ltpFR2	18	15	CANAL	226	n/a	n/a	0	0	0
2926961	REC_WORD	wordpools/wasnorm_wordpool_576.txt	LTP317	ltpFR2	18	15	SLIDE	1326	n/a	n/a	0	0	0
2931851	REC_WORD	wordpools/wasnorm_wordpool_576.txt	LTP317	ltpFR2	18	15	GRAVE	658	n/a	n/a	0	0	0
2932733	REC_WORD	wordpools/wasnorm_wordpool_576.txt	LTP317	ltpFR2	18	15	TROMBONE	1508	n/a	n/a	0	0	0
2934204	REC_WORD	wordpools/wasnorm_wordpool_576.txt	LTP317	ltpFR2	18	15	ZEBRA	1635	n/a	n/a	0	0	0
2934841	REC_WORD	wordpools/wasnorm_wordpool_576.txt	LTP317	ltpFR2	18	15	MISTER	901	n/a	n/a	0	0	0
2935504	REC_WORD	wordpools/wasnorm_wordpool_576.txt	LTP317	ltpFR2	18	15	FIREPLACE	570	n/a	n/a	0	0	0
2936504	REC_WORD_VV	wordpools/wasnorm_wordpool_576.txt	LTP317	ltpFR2	18	15	<>	-1	n/a	n/a	0	0	0
2964217	REC_WORD	wordpools/wasnorm_wordpool_576.txt	LTP317	ltpFR2	18	15	KETCHUP	771	n/a	n/a	0	0	0
2965061	REC_WORD	wordpools/wasnorm_wordpool_576.txt	LTP317	ltpFR2	18	15	MUSTARD	935	n/a	n/a	0	0	0
3011342	DISTRACTOR	n/a	LTP317	ltpFR2	18	16	n/a	n/a	n/a	n/a	0	0	0
3011342	START	n/a	LTP317	ltpFR2	18	n/a	n/a	n/a	23	n/a	n/a	n/a	n/a
3011357	PROB	n/a	LTP317	ltpFR2	18	n/a	n/a	n/a	23	6	2	1	3
3012431	PROB	n/a	LTP317	ltpFR2	18	n/a	n/a	n/a	23	8	2	2	4
3013597	PROB	n/a	LTP317	ltpFR2	18	n/a	n/a	n/a	23	16	8	2	6
3015183	PROB	n/a	LTP317	ltpFR2	18	n/a	n/a	n/a	23	2	5	9	9
3018000	PROB	n/a	LTP317	ltpFR2	18	n/a	n/a	n/a	23	22	9	8	5
3020503	PROB	n/a	LTP317	ltpFR2	18	n/a	n/a	n/a	23	8	1	5	2
3022355	PROB	n/a	LTP317	ltpFR2	18	n/a	n/a	n/a	23	200	5	8	7
3023806	PROB	n/a	LTP317	ltpFR2	18	n/a	n/a	n/a	23	22	8	6	7
3025770	PROB	n/a	LTP317	ltpFR2	18	n/a	n/a	n/a	23	10	2	1	7
3027471	PROB	n/a	LTP317	ltpFR2	18	n/a	n/a	n/a	23	20	6	8	6
3029205	PROB	n/a	LTP317	ltpFR2	18	n/a	n/a	n/a	23	11	2	7	2
3031425	PROB	n/a	LTP317	ltpFR2	18	n/a	n/a	n/a	23	16	7	7	2
3032777	PROB	n/a	LTP317	ltpFR2	18	n/a	n/a	n/a	23	11	7	1	3
3034263	STOP	n/a	LTP317	ltpFR2	18	n/a	n/a	n/a	23	n/a	n/a	n/a	n/a
3036396	WORD	wordpools/wasnorm_wordpool_576.txt	LTP317	ltpFR2	18	16	COOKBOOK	373	n/a	n/a	0	0	0
3038848	WORD	wordpools/wasnorm_wordpool_576.txt	LTP317	ltpFR2	18	16	PLAID	1080	n/a	n/a	0	0	0
3041434	WORD	wordpools/wasnorm_wordpool_576.txt	LTP317	ltpFR2	18	16	SHORTS	1293	n/a	n/a	0	0	0
3044085	WORD	wordpools/wasnorm_wordpool_576.txt	LTP317	ltpFR2	18	16	WHISKERS	1605	n/a	n/a	0	0	0
3046857	WORD	wordpools/wasnorm_wordpool_576.txt	LTP317	ltpFR2	18	16	COUSIN	392	n/a	n/a	0	0	0
3049674	WORD	wordpools/wasnorm_wordpool_576.txt	LTP317	ltpFR2	18	16	LUNCH	849	n/a	n/a	0	0	0
3052343	WORD	wordpools/wasnorm_wordpool_576.txt	LTP317	ltpFR2	18	16	FRAGRANCE	599	n/a	n/a	0	0	0
3055062	WORD	wordpools/wasnorm_wordpool_576.txt	LTP317	ltpFR2	18	16	OINTMENT	974	n/a	n/a	0	0	0
3057682	WORD	wordpools/wasnorm_wordpool_576.txt	LTP317	ltpFR2	18	16	RABBIT	1152	n/a	n/a	0	0	0
3060434	WORD	wordpools/wasnorm_wordpool_576.txt	LTP317	ltpFR2	18	16	PARTNER	1017	n/a	n/a	0	0	0
3063187	WORD	wordpools/wasnorm_wordpool_576.txt	LTP317	ltpFR2	18	16	ONION	977	n/a	n/a	0	0	0
3065822	WORD	wordpools/wasnorm_wordpool_576.txt	LTP317	ltpFR2	18	16	SPARROW	1347	n/a	n/a	0	0	0
3068357	WORD	wordpools/wasnorm_wordpool_576.txt	LTP317	ltpFR2	18	16	SPOUSE	1358	n/a	n/a	0	0	0
3070892	WORD	wordpools/wasnorm_wordpool_576.txt	LTP317	ltpFR2	18	16	NOTEBOOK	959	n/a	n/a	0	0	0
3073428	WORD	wordpools/wasnorm_wordpool_576.txt	LTP317	ltpFR2	18	16	TABLET	1427	n/a	n/a	0	0	0
3075930	WORD	wordpools/wasnorm_wordpool_576.txt	LTP317	ltpFR2	18	16	JUNGLE	764	n/a	n/a	0	0	0
3078750	WORD	wordpools/wasnorm_wordpool_576.txt	LTP317	ltpFR2	18	16	VALLEY	1545	n/a	n/a	0	0	0
3081569	WORD	wordpools/wasnorm_wordpool_576.txt	LTP317	ltpFR2	18	16	PALACE	1006	n/a	n/a	0	0	0
3084254	WORD	wordpools/wasnorm_wordpool_576.txt	LTP317	ltpFR2	18	16	KEEPER	769	n/a	n/a	0	0	0
3086856	WORD	wordpools/wasnorm_wordpool_576.txt	LTP317	ltpFR2	18	16	CORAL	378	n/a	n/a	0	0	0
3089492	WORD	wordpools/wasnorm_wordpool_576.txt	LTP317	ltpFR2	18	16	SPACE	1345	n/a	n/a	0	0	0
3092060	WORD	wordpools/wasnorm_wordpool_576.txt	LTP317	ltpFR2	18	16	CHAPEL	280	n/a	n/a	0	0	0
3094713	WORD	wordpools/wasnorm_wordpool_576.txt	LTP317	ltpFR2	18	16	LACE	792	n/a	n/a	0	0	0
3097182	WORD	wordpools/wasnorm_wordpool_576.txt	LTP317	ltpFR2	18	16	DIVER	476	n/a	n/a	0	0	0
3098801	START	n/a	LTP317	ltpFR2	18	n/a	n/a	n/a	24	n/a	n/a	n/a	n/a
3099953	DISTRACTOR	n/a	LTP317	ltpFR2	18	16	n/a	n/a	n/a	n/a	0	0	0
3099967	PROB	n/a	LTP317	ltpFR2	18	n/a	n/a	n/a	24	13	1	4	8
3101451	PROB	n/a	LTP317	ltpFR2	18	n/a	n/a	n/a	24	9	1	3	5
3103286	PROB	n/a	LTP317	ltpFR2	18	n/a	n/a	n/a	24	20	5	7	8
3106654	PROB	n/a	LTP317	ltpFR2	18	n/a	n/a	n/a	24	15	3	4	8
3107939	PROB	n/a	LTP317	ltpFR2	18	n/a	n/a	n/a	24	11	3	2	6
3110659	PROB	n/a	LTP317	ltpFR2	18	n/a	n/a	n/a	24	23	8	6	9
3113144	PROB	n/a	LTP317	ltpFR2	18	n/a	n/a	n/a	24	13	5	3	5
3114444	PROB	n/a	LTP317	ltpFR2	18	n/a	n/a	n/a	24	21	4	8	9
3116162	PROB	n/a	LTP317	ltpFR2	18	n/a	n/a	n/a	24	16	5	2	9
3118531	PROB	n/a	LTP317	ltpFR2	18	n/a	n/a	n/a	24	5	2	1	2
3119832	PROB	n/a	LTP317	ltpFR2	18	n/a	n/a	n/a	24	11	4	6	1
3121015	PROB	n/a	LTP317	ltpFR2	18	n/a	n/a	n/a	24	1	4	3	6
3122243	STOP	n/a	LTP317	ltpFR2	18	n/a	n/a	n/a	24	n/a	n/a	n/a	n/a
3124652	REC_START	n/a	LTP317	ltpFR2	18	16	n/a	n/a	n/a	n/a	0	0	0
3125920	REC_WORD	wordpools/wasnorm_wordpool_576.txt	LTP317	ltpFR2	18	16	KEEPER	769	n/a	n/a	0	0	0
3126970	REC_WORD	wordpools/wasnorm_wordpool_576.txt	LTP317	ltpFR2	18	16	CORAL	378	n/a	n/a	0	0	0
3128513	REC_WORD	wordpools/wasnorm_wordpool_576.txt	LTP317	ltpFR2	18	16	SPACE	1345	n/a	n/a	0	0	0
3133916	REC_WORD	wordpools/wasnorm_wordpool_576.txt	LTP317	ltpFR2	18	16	FRAGRANCE	599	n/a	n/a	0	0	0
3134916	REC_WORD_VV	wordpools/wasnorm_wordpool_576.txt	LTP317	ltpFR2	18	16	<>	-1	n/a	n/a	0	0	0
3153417	REC_WORD	wordpools/wasnorm_wordpool_576.txt	LTP317	ltpFR2	18	16	OINTMENT	974	n/a	n/a	0	0	0
3160602	REC_WORD	wordpools/wasnorm_wordpool_576.txt	LTP317	ltpFR2	18	16	RABBIT	1152	n/a	n/a	0	0	0
3201181	REST_REWET	n/a	LTP317	ltpFR2	18	16	n/a	n/a	n/a	n/a	0	0	0
3462384	DISTRACTOR	n/a	LTP317	ltpFR2	18	17	n/a	n/a	n/a	n/a	0	0	0
3462384	START	n/a	LTP317	ltpFR2	18	n/a	n/a	n/a	25	n/a	n/a	n/a	n/a
3462400	PROB	n/a	LTP317	ltpFR2	18	n/a	n/a	n/a	25	20	6	8	6
3464090	PROB	n/a	LTP317	ltpFR2	18	n/a	n/a	n/a	25	14	7	5	2
3466795	PROB	n/a	LTP317	ltpFR2	18	n/a	n/a	n/a	25	17	4	7	6
3468379	PROB	n/a	LTP317	ltpFR2	18	n/a	n/a	n/a	25	16	5	6	5
3469680	PROB	n/a	LTP317	ltpFR2	18	n/a	n/a	n/a	25	17	7	8	2
3471413	PROB	n/a	LTP317	ltpFR2	18	n/a	n/a	n/a	25	24	9	6	9
3475033	PROB	n/a	LTP317	ltpFR2	18	n/a	n/a	n/a	25	14	7	4	3
3476634	PROB	n/a	LTP317	ltpFR2	18	n/a	n/a	n/a	25	16	5	8	3
3478886	PROB	n/a	LTP317	ltpFR2	18	n/a	n/a	n/a	25	12	2	4	6
3480172	PROB	n/a	LTP317	ltpFR2	18	n/a	n/a	n/a	25	13	6	6	1
3482223	PROB	n/a	LTP317	ltpFR2	18	n/a	n/a	n/a	25	11	3	6	2
3483474	PROB	n/a	LTP317	ltpFR2	18	n/a	n/a	n/a	25	13	9	3	1
3486305	STOP	n/a	LTP317	ltpFR2	18	n/a	n/a	n/a	25	n/a	n/a	n/a	n/a
3487356	WORD	wordpools/wasnorm_wordpool_576.txt	LTP317	ltpFR2	18	17	CRICKET	408	n/a	n/a	0	0	0
3489923	WORD	wordpools/wasnorm_wordpool_576.txt	LTP317	ltpFR2	18	17	PLATE	1086	n/a	n/a	0	0	0
3492676	WORD	wordpools/wasnorm_wordpool_576.txt	LTP317	ltpFR2	18	17	GRAPE	654	n/a	n/a	0	0	0
3495161	WORD	wordpools/wasnorm_wordpool_576.txt	LTP317	ltpFR2	18	17	BANKER	84	n/a	n/a	0	0	0
3497931	WORD	wordpools/wasnorm_wordpool_576.txt	LTP317	ltpFR2	18	17	RECEIPT	1173	n/a	n/a	0	0	0
3500672	WORD	wordpools/wasnorm_wordpool_576.txt	LTP317	ltpFR2	18	17	TART	1436	n/a	n/a	0	0	0
3503270	WORD	wordpools/wasnorm_wordpool_576.txt	LTP317	ltpFR2	18	17	TURNIP	1521	n/a	n/a	0	0	0
3506071	WORD	wordpools/wasnorm_wordpool_576.txt	LTP317	ltpFR2	18	17	SNAIL	1332	n/a	n/a	0	0	0
3508791	WORD	wordpools/wasnorm_wordpool_576.txt	LTP317	ltpFR2	18	17	PICNIC	1060	n/a	n/a	0	0	0
3511594	WORD	wordpools/wasnorm_wordpool_576.txt	LTP317	ltpFR2	18	17	MARKET	871	n/a	n/a	0	0	0
3514061	WORD	wordpools/wasnorm_wordpool_576.txt	LTP317	ltpFR2	18	17	SPOON	1357	n/a	n/a	0	0	0
3516514	WORD	wordpools/wasnorm_wordpool_576.txt	LTP317	ltpFR2	18	17	BEAVER	109	n/a	n/a	0	0	0
3519032	WORD	wordpools/wasnorm_wordpool_576.txt	LTP317	ltpFR2	18	17	ASIA	46	n/a	n/a	0	0	0
3521819	WORD	wordpools/wasnorm_wordpool_576.txt	LTP317	ltpFR2	18	17	BANK	83	n/a	n/a	0	0	0
3524321	WORD	wordpools/wasnorm_wordpool_576.txt	LTP317	ltpFR2	18	17	DORM	488	n/a	n/a	0	0	0
3527006	WORD	wordpools/wasnorm_wordpool_576.txt	LTP317	ltpFR2	18	17	EYELASH	546	n/a	n/a	0	0	0
3529425	WORD	wordpools/wasnorm_wordpool_576.txt	LTP317	ltpFR2	18	17	JOURNAL	760	n/a	n/a	0	0	0
3532060	WORD	wordpools/wasnorm_wordpool_576.txt	LTP317	ltpFR2	18	17	CUSTARD	429	n/a	n/a	0	0	0
3534479	WORD	wordpools/wasnorm_wordpool_576.txt	LTP317	ltpFR2	18	17	ICING	732	n/a	n/a	0	0	0
3537199	WORD	wordpools/wasnorm_wordpool_576.txt	LTP317	ltpFR2	18	17	PEBBLE	1035	n/a	n/a	0	0	0
3539851	WORD	wordpools/wasnorm_wordpool_576.txt	LTP317	ltpFR2	18	17	COFFEE	341	n/a	n/a	0	0	0
3542403	WORD	wordpools/wasnorm_wordpool_576.txt	LTP317	ltpFR2	18	17	TREAT	1501	n/a	n/a	0	0	0
3545021	WORD	wordpools/wasnorm_wordpool_576.txt	LTP317	ltpFR2	18	17	CREATURE	403	n/a	n/a	0	0	0
3547793	WORD	wordpools/wasnorm_wordpool_576.txt	LTP317	ltpFR2	18	17	CIGAR	308	n/a	n/a	0	0	0
3549411	START	n/a	LTP317	ltpFR2	18	n/a	n/a	n/a	26	n/a	n/a	n/a	n/a
3550497	DISTRACTOR	n/a	LTP317	ltpFR2	18	17	n/a	n/a	n/a	n/a	0	0	0
3550511	PROB	n/a	LTP317	ltpFR2	18	n/a	n/a	n/a	26	9	5	2	2
3552096	PROB	n/a	LTP317	ltpFR2	18	n/a	n/a	n/a	26	10	6	1	3
3553564	PROB	n/a	LTP317	ltpFR2	18	n/a	n/a	n/a	26	18	3	6	9
3555081	PROB	n/a	LTP317	ltpFR2	18	n/a	n/a	n/a	26	19	4	6	9
3559049	PROB	n/a	LTP317	ltpFR2	18	n/a	n/a	n/a	26	22	9	7	6
3562454	PROB	n/a	LTP317	ltpFR2	18	n/a	n/a	n/a	26	27	9	9	9
3564322	PROB	n/a	LTP317	ltpFR2	18	n/a	n/a	n/a	26	8	4	1	3
3566806	PROB	n/a	LTP317	ltpFR2	18	n/a	n/a	n/a	26	15	7	3	5
3568057	PROB	n/a	LTP317	ltpFR2	18	n/a	n/a	n/a	26	14	6	3	5
3569709	PROB	n/a	LTP317	ltpFR2	18	n/a	n/a	n/a	26	23	6	9	8
3572804	STOP	n/a	LTP317	ltpFR2	18	n/a	n/a	n/a	26	n/a	n/a	n/a	n/a
3575215	REC_START	n/a	LTP317	ltpFR2	18	17	n/a	n/a	n/a	n/a	0	0	0
3578852	REC_WORD	wordpools/wasnorm_wordpool_576.txt	LTP317	ltpFR2	18	17	CRICKET	408	n/a	n/a	0	0	0
3579802	REC_WORD	wordpools/wasnorm_wordpool_576.txt	LTP317	ltpFR2	18	17	GRAPE	654	n/a	n/a	0	0	0
3580895	REC_WORD	wordpools/wasnorm_wordpool_576.txt	LTP317	ltpFR2	18	17	PLATE	1086	n/a	n/a	0	0	0
3581946	REC_WORD	wordpools/wasnorm_wordpool_576.txt	LTP317	ltpFR2	18	17	BANK	83	n/a	n/a	0	0	0
3582838	REC_WORD	wordpools/wasnorm_wordpool_576.txt	LTP317	ltpFR2	18	17	BANKER	84	n/a	n/a	0	0	0
3583869	REC_WORD	wordpools/wasnorm_wordpool_576.txt	LTP317	ltpFR2	18	17	EYELASH	546	n/a	n/a	0	0	0
3584728	REC_WORD	wordpools/wasnorm_wordpool_576.txt	LTP317	ltpFR2	18	17	JOURNAL	760	n/a	n/a	0	0	0
3588364	REC_WORD	wordpools/wasnorm_wordpool_576.txt	LTP317	ltpFR2	18	17	ASIA	46	n/a	n/a	0	0	0
3597737	REC_WORD	wordpools/wasnorm_wordpool_576.txt	LTP317	ltpFR2	18	17	MARKET	871	n/a	n/a	0	0	0
3599075	REC_WORD	wordpools/wasnorm_wordpool_576.txt	LTP317	ltpFR2	18	17	SPOON	1357	n/a	n/a	0	0	0
3600075	REC_WORD_VV	wordpools/wasnorm_wordpool_576.txt	LTP317	ltpFR2	18	17	<>	-1	n/a	n/a	0	0	0
3665654	WORD	wordpools/wasnorm_wordpool_576.txt	LTP317	ltpFR2	18	18	FINGER	567	n/a	n/a	0	0	0
3668456	WORD	wordpools/wasnorm_wordpool_576.txt	LTP317	ltpFR2	18	18	GLOVE	642	n/a	n/a	0	0	0
3671090	WORD	wordpools/wasnorm_wordpool_576.txt	LTP317	ltpFR2	18	18	ATLAS	53	n/a	n/a	0	0	0
3673584	WORD	wordpools/wasnorm_wordpool_576.txt	LTP317	ltpFR2	18	18	FRANCE	601	n/a	n/a	0	0	0
3676387	WORD	wordpools/wasnorm_wordpool_576.txt	LTP317	ltpFR2	18	18	COSTUME	383	n/a	n/a	0	0	0
3678830	WORD	wordpools/wasnorm_wordpool_576.txt	LTP317	ltpFR2	18	18	FUNGUS	614	n/a	n/a	0	0	0
3681341	WORD	wordpools/wasnorm_wordpool_576.txt	LTP317	ltpFR2	18	18	CREVICE	405	n/a	n/a	0	0	0
3684009	WORD	wordpools/wasnorm_wordpool_576.txt	LTP317	ltpFR2	18	18	PAPER	1011	n/a	n/a	0	0	0
3686521	WORD	wordpools/wasnorm_wordpool_576.txt	LTP317	ltpFR2	18	18	TABLE	1426	n/a	n/a	0	0	0
3689298	WORD	wordpools/wasnorm_wordpool_576.txt	LTP317	ltpFR2	18	18	QUEEN	1149	n/a	n/a	0	0	0
3692066	WORD	wordpools/wasnorm_wordpool_576.txt	LTP317	ltpFR2	18	18	HERO	706	n/a	n/a	0	0	0
3694677	WORD	wordpools/wasnorm_wordpool_576.txt	LTP317	ltpFR2	18	18	GLOBE	641	n/a	n/a	0	0	0
3697472	WORD	wordpools/wasnorm_wordpool_576.txt	LTP317	ltpFR2	18	18	FARMER	553	n/a	n/a	0	0	0
3699956	WORD	wordpools/wasnorm_wordpool_576.txt	LTP317	ltpFR2	18	18	AIRPLANE	12	n/a	n/a	0	0	0
3702643	WORD	wordpools/wasnorm_wordpool_576.txt	LTP317	ltpFR2	18	18	ZIPPER	1636	n/a	n/a	0	0	0
3705419	WORD	wordpools/wasnorm_wordpool_576.txt	LTP317	ltpFR2	18	18	SNACK	1331	n/a	n/a	0	0	0
3708231	WORD	wordpools/wasnorm_wordpool_576.txt	LTP317	ltpFR2	18	18	PUPPY	1144	n/a	n/a	0	0	0
3710750	WORD	wordpools/wasnorm_wordpool_576.txt	LTP317	ltpFR2	18	18	ORCHID	982	n/a	n/a	0	0	0
3713509	WORD	wordpools/wasnorm_wordpool_576.txt	LTP317	ltpFR2	18	18	RADISH	1158	n/a	n/a	0	0	0
3716304	WORD	wordpools/wasnorm_wordpool_576.txt	LTP317	ltpFR2	18	18	PARSLEY	1016	n/a	n/a	0	0	0
3718928	WORD	wordpools/wasnorm_wordpool_576.txt	LTP317	ltpFR2	18	18	VALVE	1546	n/a	n/a	0	0	0
3721410	WORD	wordpools/wasnorm_wordpool_576.txt	LTP317	ltpFR2	18	18	PRINCESS	1125	n/a	n/a	0	0	0
3724133	WORD	wordpools/wasnorm_wordpool_576.txt	LTP317	ltpFR2	18	18	TYPIST	1532	n/a	n/a	0	0	0
3726847	WORD	wordpools/wasnorm_wordpool_576.txt	LTP317	ltpFR2	18	18	ARMY	39	n/a	n/a	0	0	0
3728455	START	n/a	LTP317	ltpFR2	18	n/a	n/a	n/a	27	n/a	n/a	n/a	n/a
3729336	DISTRACTOR	n/a	LTP317	ltpFR2	18	18	n/a	n/a	n/a	n/a	0	0	0
3729350	PROB	n/a	LTP317	ltpFR2	18	n/a	n/a	n/a	27	16	5	2	9
3731473	PROB	n/a	LTP317	ltpFR2	18	n/a	n/a	n/a	27	19	5	5	9
3732691	PROB	n/a	LTP317	ltpFR2	18	n/a	n/a	n/a	27	13	7	4	2
3735693	PROB	n/a	LTP317	ltpFR2	18	n/a	n/a	n/a	27	6	1	4	1
3737328	PROB	n/a	LTP317	ltpFR2	18	n/a	n/a	n/a	27	12	6	1	5
3739179	PROB	n/a	LTP317	ltpFR2	18	n/a	n/a	n/a	27	9	1	1	7
3740548	PROB	n/a	LTP317	ltpFR2	18	n/a	n/a	n/a	27	17	9	3	5
3742080	PROB	n/a	LTP317	ltpFR2	18	n/a	n/a	n/a	27	12	1	3	8
3743584	PROB	n/a	LTP317	ltpFR2	18	n/a	n/a	n/a	27	12	1	6	5
3745619	PROB	n/a	LTP317	ltpFR2	18	n/a	n/a	n/a	27	12	5	2	5
3746951	PROB	n/a	LTP317	ltpFR2	18	n/a	n/a	n/a	27	10	4	4	2
3750403	PROB	n/a	LTP317	ltpFR2	18	n/a	n/a	n/a	27	12	1	4	7
3751819	STOP	n/a	LTP317	ltpFR2	18	n/a	n/a	n/a	27	n/a	n/a	n/a	n/a
3754222	REC_START	n/a	LTP317	ltpFR2	18	18	n/a	n/a	n/a	n/a	0	0	0
3755716	REC_WORD	wordpools/wasnorm_wordpool_576.txt	LTP317	ltpFR2	18	18	FINGER	567	n/a	n/a	0	0	0
3756392	REC_WORD	wordpools/wasnorm_wordpool_576.txt	LTP317	ltpFR2	18	18	GLOVE	642	n/a	n/a	0	0	0
3757671	REC_WORD	wordpools/wasnorm_wordpool_576.txt	LTP317	ltpFR2	18	18	ATLAS	53	n/a	n/a	0	0	0
3758333	REC_WORD	wordpools/wasnorm_wordpool_576.txt	LTP317	ltpFR2	18	18	FRANCE	601	n/a	n/a	0	0	0
3758834	REC_WORD	wordpools/wasnorm_wordpool_576.txt	LTP317	ltpFR2	18	18	QUEEN	1149	n/a	n/a	0	0	0
3759157	REC_WORD	wordpools/wasnorm_wordpool_576.txt	LTP317	ltpFR2	18	18	QUEEN	1149	n/a	n/a	0	0	0
3760834	REC_WORD_VV	wordpools/wasnorm_wordpool_576.txt	LTP317	ltpFR2	18	18	<>	-1	n/a	n/a	0	0	0
3761834	REC_WORD_VV	wordpools/wasnorm_wordpool_576.txt	LTP317	ltpFR2	18	18	<>	-1	n/a	n/a	0	0	0
3765169	REC_WORD	wordpools/wasnorm_wordpool_576.txt	LTP317	ltpFR2	18	18	FUNGUS	614	n/a	n/a	0	0	0
3766323	REC_WORD	wordpools/wasnorm_wordpool_576.txt	LTP317	ltpFR2	18	18	CREVICE	405	n/a	n/a	0	0	0
3799094	REC_WORD	wordpools/wasnorm_wordpool_576.txt	LTP317	ltpFR2	18	18	TYPIST	1532	n/a	n/a	0	0	0
3844663	WORD	wordpools/wasnorm_wordpool_576.txt	LTP317	ltpFR2	18	19	LONDON	843	n/a	n/a	0	0	0
3847316	WORD	wordpools/wasnorm_wordpool_576.txt	LTP317	ltpFR2	18	19	CRIB	407	n/a	n/a	0	0	0
3849867	WORD	wordpools/wasnorm_wordpool_576.txt	LTP317	ltpFR2	18	19	BANQUET	86	n/a	n/a	0	0	0
3852470	WORD	wordpools/wasnorm_wordpool_576.txt	LTP317	ltpFR2	18	19	SWAMP	1416	n/a	n/a	0	0	0
3854970	WORD	wordpools/wasnorm_wordpool_576.txt	LTP317	ltpFR2	18	19	PLASTER	1085	n/a	n/a	0	0	0
3857574	WORD	wordpools/wasnorm_wordpool_576.txt	LTP317	ltpFR2	18	19	HEDGE	699	n/a	n/a	0	0	0
3860360	WORD	wordpools/wasnorm_wordpool_576.txt	LTP317	ltpFR2	18	19	BLOUSE	139	n/a	n/a	0	0	0
3862995	WORD	wordpools/wasnorm_wordpool_576.txt	LTP317	ltpFR2	18	19	THREAD	1460	n/a	n/a	0	0	0
3865417	WORD	wordpools/wasnorm_wordpool_576.txt	LTP317	ltpFR2	18	19	SCARF	1246	n/a	n/a	0	0	0
3867968	WORD	wordpools/wasnorm_wordpool_576.txt	LTP317	ltpFR2	18	19	HAMPER	682	n/a	n/a	0	0	0
3870751	WORD	wordpools/wasnorm_wordpool_576.txt	LTP317	ltpFR2	18	19	CYCLONE	431	n/a	n/a	0	0	0
3873337	WORD	wordpools/wasnorm_wordpool_576.txt	LTP317	ltpFR2	18	19	TWISTER	1530	n/a	n/a	0	0	0
3876055	WORD	wordpools/wasnorm_wordpool_576.txt	LTP317	ltpFR2	18	19	CLOCK	325	n/a	n/a	0	0	0
3878629	WORD	wordpools/wasnorm_wordpool_576.txt	LTP317	ltpFR2	18	19	LION	827	n/a	n/a	0	0	0
3881232	WORD	wordpools/wasnorm_wordpool_576.txt	LTP317	ltpFR2	18	19	RATTLE	1170	n/a	n/a	0	0	0
3883851	WORD	wordpools/wasnorm_wordpool_576.txt	LTP317	ltpFR2	18	19	CASHIER	254	n/a	n/a	0	0	0
3886280	WORD	wordpools/wasnorm_wordpool_576.txt	LTP317	ltpFR2	18	19	CROWN	415	n/a	n/a	0	0	0
3888854	WORD	wordpools/wasnorm_wordpool_576.txt	LTP317	ltpFR2	18	19	LIZARD	834	n/a	n/a	0	0	0
3891351	WORD	wordpools/wasnorm_wordpool_576.txt	LTP317	ltpFR2	18	19	POISON	1096	n/a	n/a	0	0	0
3894008	WORD	wordpools/wasnorm_wordpool_576.txt	LTP317	ltpFR2	18	19	COIN	343	n/a	n/a	0	0	0
3896578	WORD	wordpools/wasnorm_wordpool_576.txt	LTP317	ltpFR2	18	19	JUDGE	761	n/a	n/a	0	0	0
3899257	WORD	wordpools/wasnorm_wordpool_576.txt	LTP317	ltpFR2	18	19	KNAPSACK	783	n/a	n/a	0	0	0
3901949	WORD	wordpools/wasnorm_wordpool_576.txt	LTP317	ltpFR2	18	19	LODGE	839	n/a	n/a	0	0	0
3904411	WORD	wordpools/wasnorm_wordpool_576.txt	LTP317	ltpFR2	18	19	SPOOL	1356	n/a	n/a	0	0	0
3906019	START	n/a	LTP317	ltpFR2	18	n/a	n/a	n/a	28	n/a	n/a	n/a	n/a
3906980	DISTRACTOR	n/a	LTP317	ltpFR2	18	19	n/a	n/a	n/a	n/a	0	0	0
3906987	PROB	n/a	LTP317	ltpFR2	18	n/a	n/a	n/a	28	20	2	9	9
3908780	PROB	n/a	LTP317	ltpFR2	18	n/a	n/a	n/a	28	11	3	2	6
3912951	PROB	n/a	LTP317	ltpFR2	18	n/a	n/a	n/a	28	11	5	2	4
3914487	PROB	n/a	LTP317	ltpFR2	18	n/a	n/a	n/a	28	19	2	9	8
3916386	PROB	n/a	LTP317	ltpFR2	18	n/a	n/a	n/a	28	15	6	2	7
3918389	PROB	n/a	LTP317	ltpFR2	18	n/a	n/a	n/a	28	13	8	1	4
3921074	PROB	n/a	LTP317	ltpFR2	18	n/a	n/a	n/a	28	12	1	2	9
3922542	PROB	n/a	LTP317	ltpFR2	18	n/a	n/a	n/a	28	17	9	6	2
3925644	PROB	n/a	LTP317	ltpFR2	18	n/a	n/a	n/a	28	8	3	4	1
3930019	STOP	n/a	LTP317	ltpFR2	18	n/a	n/a	n/a	28	n/a	n/a	n/a	n/a
3931882	REC_START	n/a	LTP317	ltpFR2	18	19	n/a	n/a	n/a	n/a	0	0	0
3934905	REC_WORD	wordpools/wasnorm_wordpool_576.txt	LTP317	ltpFR2	18	19	CYCLONE	431	n/a	n/a	0	0	0
3936311	REC_WORD	wordpools/wasnorm_wordpool_576.txt	LTP317	ltpFR2	18	19	TWISTER	1530	n/a	n/a	0	0	0
3939411	REC_WORD	wordpools/wasnorm_wordpool_576.txt	LTP317	ltpFR2	18	19	RATTLE	1170	n/a	n/a	0	0	0
3940804	REC_WORD	wordpools/wasnorm_wordpool_576.txt	LTP317	ltpFR2	18	19	LION	827	n/a	n/a	0	0	0
3942111	REC_WORD	wordpools/wasnorm_wordpool_576.txt	LTP317	ltpFR2	18	19	CASHIER	254	n/a	n/a	0	0	0
3943758	REC_WORD	wordpools/wasnorm_wordpool_576.txt	LTP317	ltpFR2	18	19	JUDGE	761	n/a	n/a	0	0	0
3944610	REC_WORD	wordpools/wasnorm_wordpool_576.txt	LTP317	ltpFR2	18	19	LODGE	839	n/a	n/a	0	0	0
3946354	REC_WORD	wordpools/wasnorm_wordpool_576.txt	LTP317	ltpFR2	18	19	BLOUSE	139	n/a	n/a	0	0	0
3959597	REC_WORD	wordpools/wasnorm_wordpool_576.txt	LTP317	ltpFR2	18	19	ARMY	39	n/a	n/a	0	0	0
3965402	REC_WORD	wordpools/wasnorm_wordpool_576.txt	LTP317	ltpFR2	18	19	THREAD	1460	n/a	n/a	0	0	0
3966658	REC_WORD	wordpools/wasnorm_wordpool_576.txt	LTP317	ltpFR2	18	19	SPOOL	1356	n/a	n/a	0	0	0
4022338	DISTRACTOR	n/a	LTP317	ltpFR2	18	20	n/a	n/a	n/a	n/a	0	0	0
4022339	START	n/a	LTP317	ltpFR2	18	n/a	n/a	n/a	29	n/a	n/a	n/a	n/a
4022356	PROB	n/a	LTP317	ltpFR2	18	n/a	n/a	n/a	29	12	4	1	7
4023838	PROB	n/a	LTP317	ltpFR2	18	n/a	n/a	n/a	29	10	2	6	2
4025407	PROB	n/a	LTP317	ltpFR2	18	n/a	n/a	n/a	29	12	6	4	2
4026593	PROB	n/a	LTP317	ltpFR2	18	n/a	n/a	n/a	29	13	2	7	4
4030196	PROB	n/a	LTP317	ltpFR2	18	n/a	n/a	n/a	29	19	2	9	8
4032430	PROB	n/a	LTP317	ltpFR2	18	n/a	n/a	n/a	29	13	3	2	8
4033630	PROB	n/a	LTP317	ltpFR2	18	n/a	n/a	n/a	29	11	4	3	4
4035184	PROB	n/a	LTP317	ltpFR2	18	n/a	n/a	n/a	29	18	6	7	5
4036800	PROB	n/a	LTP317	ltpFR2	18	n/a	n/a	n/a	29	11	1	7	3
4038150	PROB	n/a	LTP317	ltpFR2	18	n/a	n/a	n/a	29	10	2	4	4
4039537	PROB	n/a	LTP317	ltpFR2	18	n/a	n/a	n/a	29	12	5	4	3
4041339	PROB	n/a	LTP317	ltpFR2	18	n/a	n/a	n/a	29	14	4	5	5
4042655	PROB	n/a	LTP317	ltpFR2	18	n/a	n/a	n/a	29	16	8	3	5
4044323	PROB	n/a	LTP317	ltpFR2	18	n/a	n/a	n/a	29	20	2	9	9
4045775	STOP	n/a	LTP317	ltpFR2	18	n/a	n/a	n/a	29	n/a	n/a	n/a	n/a
4047443	WORD	wordpools/wasnorm_wordpool_576.txt	LTP317	ltpFR2	18	20	OZONE	996	n/a	n/a	0	0	0
4050044	WORD	wordpools/wasnorm_wordpool_576.txt	LTP317	ltpFR2	18	20	SPHINX	1349	n/a	n/a	0	0	0
4052563	WORD	wordpools/wasnorm_wordpool_576.txt	LTP317	ltpFR2	18	20	TUNNEL	1519	n/a	n/a	0	0	0
4055299	WORD	wordpools/wasnorm_wordpool_576.txt	LTP317	ltpFR2	18	20	TAXI	1438	n/a	n/a	0	0	0
4057851	WORD	wordpools/wasnorm_wordpool_576.txt	LTP317	ltpFR2	18	20	WITNESS	1618	n/a	n/a	0	0	0
4060604	WORD	wordpools/wasnorm_wordpool_576.txt	LTP317	ltpFR2	18	20	RUG	1215	n/a	n/a	0	0	0
4063205	WORD	wordpools/wasnorm_wordpool_576.txt	LTP317	ltpFR2	18	20	CEILING	265	n/a	n/a	0	0	0
4065825	WORD	wordpools/wasnorm_wordpool_576.txt	LTP317	ltpFR2	18	20	PISTON	1076	n/a	n/a	0	0	0
4068560	WORD	wordpools/wasnorm_wordpool_576.txt	LTP317	ltpFR2	18	20	PLAZA	1088	n/a	n/a	0	0	0
4071195	WORD	wordpools/wasnorm_wordpool_576.txt	LTP317	ltpFR2	18	20	CLOTHES	327	n/a	n/a	0	0	0
4073797	WORD	wordpools/wasnorm_wordpool_576.txt	LTP317	ltpFR2	18	20	ROOSTER	1209	n/a	n/a	0	0	0
4076367	WORD	wordpools/wasnorm_wordpool_576.txt	LTP317	ltpFR2	18	20	TURKEY	1520	n/a	n/a	0	0	0
4079001	WORD	wordpools/wasnorm_wordpool_576.txt	LTP317	ltpFR2	18	20	BUCKET	184	n/a	n/a	0	0	0
4081587	WORD	wordpools/wasnorm_wordpool_576.txt	LTP317	ltpFR2	18	20	REPORT	1184	n/a	n/a	0	0	0
4084104	WORD	wordpools/wasnorm_wordpool_576.txt	LTP317	ltpFR2	18	20	ITEM	746	n/a	n/a	0	0	0
4086857	WORD	wordpools/wasnorm_wordpool_576.txt	LTP317	ltpFR2	18	20	MONSTER	912	n/a	n/a	0	0	0
4089676	WORD	wordpools/wasnorm_wordpool_576.txt	LTP317	ltpFR2	18	20	FIREMAN	569	n/a	n/a	0	0	0
4092329	WORD	wordpools/wasnorm_wordpool_576.txt	LTP317	ltpFR2	18	20	RAZOR	1171	n/a	n/a	0	0	0
4095030	WORD	wordpools/wasnorm_wordpool_576.txt	LTP317	ltpFR2	18	20	LAKE	796	n/a	n/a	0	0	0
4097583	WORD	wordpools/wasnorm_wordpool_576.txt	LTP317	ltpFR2	18	20	SUBWAY	1400	n/a	n/a	0	0	0
4100285	WORD	wordpools/wasnorm_wordpool_576.txt	LTP317	ltpFR2	18	20	PAIL	1002	n/a	n/a	0	0	0
4102757	WORD	wordpools/wasnorm_wordpool_576.txt	LTP317	ltpFR2	18	20	HOUND	724	n/a	n/a	0	0	0
4105543	WORD	wordpools/wasnorm_wordpool_576.txt	LTP317	ltpFR2	18	20	SUNRISE	1407	n/a	n/a	0	0	0
4108229	WORD	wordpools/wasnorm_wordpool_576.txt	LTP317	ltpFR2	18	20	SEAFOOD	1260	n/a	n/a	0	0	0
4109844	START	n/a	LTP317	ltpFR2	18	n/a	n/a	n/a	30	n/a	n/a	n/a	n/a
4110799	DISTRACTOR	n/a	LTP317	ltpFR2	18	20	n/a	n/a	n/a	n/a	0	0	0
4110810	PROB	n/a	LTP317	ltpFR2	18	n/a	n/a	n/a	30	13	8	3	2
4112460	PROB	n/a	LTP317	ltpFR2	18	n/a	n/a	n/a	30	15	2	8	5
4114395	PROB	n/a	LTP317	ltpFR2	18	n/a	n/a	n/a	30	18	8	3	7
4116014	PROB	n/a	LTP317	ltpFR2	18	n/a	n/a	n/a	30	7	5	1	1
4117096	PROB	n/a	LTP317	ltpFR2	18	n/a	n/a	n/a	30	22	7	6	9
4121116	PROB	n/a	LTP317	ltpFR2	18	n/a	n/a	n/a	30	14	8	2	4
4122520	PROB	n/a	LTP317	ltpFR2	18	n/a	n/a	n/a	30	12	2	5	5
4123968	PROB	n/a	LTP317	ltpFR2	18	n/a	n/a	n/a	30	26	9	8	9
4126639	PROB	n/a	LTP317	ltpFR2	18	n/a	n/a	n/a	30	11	1	1	9
4127773	PROB	n/a	LTP317	ltpFR2	18	n/a	n/a	n/a	30	21	7	8	6
4129974	PROB	n/a	LTP317	ltpFR2	18	n/a	n/a	n/a	30	18	9	8	1
4131809	PROB	n/a	LTP317	ltpFR2	18	n/a	n/a	n/a	30	7	3	3	1
4133049	STOP	n/a	LTP317	ltpFR2	18	n/a	n/a	n/a	30	n/a	n/a	n/a	n/a
4135679	REC_START	n/a	LTP317	ltpFR2	18	20	n/a	n/a	n/a	n/a	0	0	0
4136593	REC_WORD	wordpools/wasnorm_wordpool_576.txt	LTP317	ltpFR2	18	20	OZONE	996	n/a	n/a	0	0	0
4137432	REC_WORD	wordpools/wasnorm_wordpool_576.txt	LTP317	ltpFR2	18	20	SPHINX	1349	n/a	n/a	0	0	0
4138484	REC_WORD	wordpools/wasnorm_wordpool_576.txt	LTP317	ltpFR2	18	20	TUNNEL	1519	n/a	n/a	0	0	0
4139418	REC_WORD	wordpools/wasnorm_wordpool_576.txt	LTP317	ltpFR2	18	20	TAXI	1438	n/a	n/a	0	0	0
4142318	REC_WORD	wordpools/wasnorm_wordpool_576.txt	LTP317	ltpFR2	18	20	TURKEY	1520	n/a	n/a	0	0	0
4145000	REC_WORD	wordpools/wasnorm_wordpool_576.txt	LTP317	ltpFR2	18	20	ROOSTER	1209	n/a	n/a	0	0	0
4150602	REC_WORD	wordpools/wasnorm_wordpool_576.txt	LTP317	ltpFR2	18	20	MONSTER	912	n/a	n/a	0	0	0
4226115	WORD	wordpools/wasnorm_wordpool_576.txt	LTP317	ltpFR2	18	21	FLOWER	584	n/a	n/a	0	0	0
4228583	WORD	wordpools/wasnorm_wordpool_576.txt	LTP317	ltpFR2	18	21	KITCHEN	778	n/a	n/a	0	0	0
4231203	WORD	wordpools/wasnorm_wordpool_576.txt	LTP317	ltpFR2	18	21	EGYPT	519	n/a	n/a	0	0	0
4233659	WORD	wordpools/wasnorm_wordpool_576.txt	LTP317	ltpFR2	18	21	FOREHEAD	592	n/a	n/a	0	0	0
4236107	WORD	wordpools/wasnorm_wordpool_576.txt	LTP317	ltpFR2	18	21	PUDDING	1139	n/a	n/a	0	0	0
4238875	WORD	wordpools/wasnorm_wordpool_576.txt	LTP317	ltpFR2	18	21	BLOCKADE	137	n/a	n/a	0	0	0
4241696	WORD	wordpools/wasnorm_wordpool_576.txt	LTP317	ltpFR2	18	21	WHISTLE	1606	n/a	n/a	0	0	0
4244302	WORD	wordpools/wasnorm_wordpool_576.txt	LTP317	ltpFR2	18	21	RACKET	1155	n/a	n/a	0	0	0
4246983	WORD	wordpools/wasnorm_wordpool_576.txt	LTP317	ltpFR2	18	21	PEPPER	1047	n/a	n/a	0	0	0
4249402	WORD	wordpools/wasnorm_wordpool_576.txt	LTP317	ltpFR2	18	21	POSTAGE	1113	n/a	n/a	0	0	0
4251838	WORD	wordpools/wasnorm_wordpool_576.txt	LTP317	ltpFR2	18	21	MESSAGE	888	n/a	n/a	0	0	0
4254443	WORD	wordpools/wasnorm_wordpool_576.txt	LTP317	ltpFR2	18	21	MASK	876	n/a	n/a	0	0	0
4257074	WORD	wordpools/wasnorm_wordpool_576.txt	LTP317	ltpFR2	18	21	JELLO	754	n/a	n/a	0	0	0
4259828	WORD	wordpools/wasnorm_wordpool_576.txt	LTP317	ltpFR2	18	21	BACON	67	n/a	n/a	0	0	0
4262348	WORD	wordpools/wasnorm_wordpool_576.txt	LTP317	ltpFR2	18	21	SLUG	1329	n/a	n/a	0	0	0
4264864	WORD	wordpools/wasnorm_wordpool_576.txt	LTP317	ltpFR2	18	21	GLASS	639	n/a	n/a	0	0	0
4267567	WORD	wordpools/wasnorm_wordpool_576.txt	LTP317	ltpFR2	18	21	COCOON	339	n/a	n/a	0	0	0
4270270	WORD	wordpools/wasnorm_wordpool_576.txt	LTP317	ltpFR2	18	21	SCOTCH	1251	n/a	n/a	0	0	0
4272756	WORD	wordpools/wasnorm_wordpool_576.txt	LTP317	ltpFR2	18	21	BRANCH	168	n/a	n/a	0	0	0
4275408	WORD	wordpools/wasnorm_wordpool_576.txt	LTP317	ltpFR2	18	21	SHORTCAKE	1292	n/a	n/a	0	0	0
4278126	WORD	wordpools/wasnorm_wordpool_576.txt	LTP317	ltpFR2	18	21	SEAL	1262	n/a	n/a	0	0	0
4280945	WORD	wordpools/wasnorm_wordpool_576.txt	LTP317	ltpFR2	18	21	GAZELLE	628	n/a	n/a	0	0	0
4283398	WORD	wordpools/wasnorm_wordpool_576.txt	LTP317	ltpFR2	18	21	ANTLER	29	n/a	n/a	0	0	0
4286116	WORD	wordpools/wasnorm_wordpool_576.txt	LTP317	ltpFR2	18	21	THIEF	1456	n/a	n/a	0	0	0
4287737	START	n/a	LTP317	ltpFR2	18	n/a	n/a	n/a	31	n/a	n/a	n/a	n/a
4288738	DISTRACTOR	n/a	LTP317	ltpFR2	18	21	n/a	n/a	n/a	n/a	0	0	0
4288754	PROB	n/a	LTP317	ltpFR2	18	n/a	n/a	n/a	31	17	4	4	9
4290220	PROB	n/a	LTP317	ltpFR2	18	n/a	n/a	n/a	31	6	2	1	3
4291288	PROB	n/a	LTP317	ltpFR2	18	n/a	n/a	n/a	31	18	5	6	7
4292789	PROB	n/a	LTP317	ltpFR2	18	n/a	n/a	n/a	31	22	9	5	8
4295357	PROB	n/a	LTP317	ltpFR2	18	n/a	n/a	n/a	31	12	7	3	2
4297925	PROB	n/a	LTP317	ltpFR2	18	n/a	n/a	n/a	31	14	9	3	3
4299927	PROB	n/a	LTP317	ltpFR2	18	n/a	n/a	n/a	31	18	2	5	7
4301912	PROB	n/a	LTP317	ltpFR2	18	n/a	n/a	n/a	31	15	2	7	6
4303413	PROB	n/a	LTP317	ltpFR2	18	n/a	n/a	n/a	31	22	5	8	9
4307032	PROB	n/a	LTP317	ltpFR2	18	n/a	n/a	n/a	31	22	8	9	5
4310513	STOP	n/a	LTP317	ltpFR2	18	n/a	n/a	n/a	31	n/a	n/a	n/a	n/a
4313672	REC_START	n/a	LTP317	ltpFR2	18	21	n/a	n/a	n/a	n/a	0	0	0
4314233	REC_WORD	wordpools/wasnorm_wordpool_576.txt	LTP317	ltpFR2	18	21	FLOWER	584	n/a	n/a	0	0	0
4322090	REC_WORD	wordpools/wasnorm_wordpool_576.txt	LTP317	ltpFR2	18	21	FLOWER	584	n/a	n/a	0	0	0
4322604	REC_WORD	wordpools/wasnorm_wordpool_576.txt	LTP317	ltpFR2	18	21	KITCHEN	778	n/a	n/a	0	0	0
4323021	REC_WORD	wordpools/wasnorm_wordpool_576.txt	LTP317	ltpFR2	18	21	EGYPT	519	n/a	n/a	0	0	0
4323425	REC_WORD	wordpools/wasnorm_wordpool_576.txt	LTP317	ltpFR2	18	21	FOREHEAD	592	n/a	n/a	0	0	0
4326284	REC_WORD	wordpools/wasnorm_wordpool_576.txt	LTP317	ltpFR2	18	21	GAZELLE	628	n/a	n/a	0	0	0
4326809	REC_WORD	wordpools/wasnorm_wordpool_576.txt	LTP317	ltpFR2	18	21	ANTLER	29	n/a	n/a	0	0	0
4331045	REC_WORD	wordpools/wasnorm_wordpool_576.txt	LTP317	ltpFR2	18	21	WHISTLE	1606	n/a	n/a	0	0	0
4404096	DISTRACTOR	n/a	LTP317	ltpFR2	18	22	n/a	n/a	n/a	n/a	0	0	0
4404096	START	n/a	LTP317	ltpFR2	18	n/a	n/a	n/a	32	n/a	n/a	n/a	n/a
4404110	PROB	n/a	LTP317	ltpFR2	18	n/a	n/a	n/a	32	19	8	7	4
4406382	PROB	n/a	LTP317	ltpFR2	18	n/a	n/a	n/a	32	22	9	5	8
4409047	PROB	n/a	LTP317	ltpFR2	18	n/a	n/a	n/a	32	13	7	5	1
4410716	PROB	n/a	LTP317	ltpFR2	18	n/a	n/a	n/a	32	12	2	8	2
4412082	PROB	n/a	LTP317	ltpFR2	18	n/a	n/a	n/a	32	19	2	9	8
4413752	PROB	n/a	LTP317	ltpFR2	18	n/a	n/a	n/a	32	19	9	3	7
4415303	PROB	n/a	LTP317	ltpFR2	18	n/a	n/a	n/a	32	17	4	9	4
4416870	PROB	n/a	LTP317	ltpFR2	18	n/a	n/a	n/a	32	13	2	2	9
4418840	PROB	n/a	LTP317	ltpFR2	18	n/a	n/a	n/a	32	16	6	2	8
4420642	PROB	n/a	LTP317	ltpFR2	18	n/a	n/a	n/a	32	11	2	1	8
4421940	PROB	n/a	LTP317	ltpFR2	18	n/a	n/a	n/a	32	20	9	2	9
4423811	PROB	n/a	LTP317	ltpFR2	18	n/a	n/a	n/a	32	15	6	3	6
4425211	PROB	n/a	LTP317	ltpFR2	18	n/a	n/a	n/a	32	12	5	5	2
4426313	PROB	n/a	LTP317	ltpFR2	18	n/a	n/a	n/a	32	10	6	2	2
4427717	STOP	n/a	LTP317	ltpFR2	18	n/a	n/a	n/a	32	n/a	n/a	n/a	n/a
4429131	WORD	wordpools/wasnorm_wordpool_576.txt	LTP317	ltpFR2	18	22	CITRUS	313	n/a	n/a	0	0	0
4431727	WORD	wordpools/wasnorm_wordpool_576.txt	LTP317	ltpFR2	18	22	CURTAIN	427	n/a	n/a	0	0	0
4434262	WORD	wordpools/wasnorm_wordpool_576.txt	LTP317	ltpFR2	18	22	APRON	35	n/a	n/a	0	0	0
4437003	WORD	wordpools/wasnorm_wordpool_576.txt	LTP317	ltpFR2	18	22	BODY	145	n/a	n/a	0	0	0
4439701	WORD	wordpools/wasnorm_wordpool_576.txt	LTP317	ltpFR2	18	22	HUMAN	726	n/a	n/a	0	0	0
4442520	WORD	wordpools/wasnorm_wordpool_576.txt	LTP317	ltpFR2	18	22	PLAYGROUND	1087	n/a	n/a	0	0	0
4445228	WORD	wordpools/wasnorm_wordpool_576.txt	LTP317	ltpFR2	18	22	SHOULDER	1294	n/a	n/a	0	0	0
4447774	WORD	wordpools/wasnorm_wordpool_576.txt	LTP317	ltpFR2	18	22	ARM	38	n/a	n/a	0	0	0
4450360	WORD	wordpools/wasnorm_wordpool_576.txt	LTP317	ltpFR2	18	22	STAKE	1368	n/a	n/a	0	0	0
4453045	WORD	wordpools/wasnorm_wordpool_576.txt	LTP317	ltpFR2	18	22	LIVER	833	n/a	n/a	0	0	0
4455549	WORD	wordpools/wasnorm_wordpool_576.txt	LTP317	ltpFR2	18	22	MACHINE	852	n/a	n/a	0	0	0
4458221	WORD	wordpools/wasnorm_wordpool_576.txt	LTP317	ltpFR2	18	22	STOVE	1388	n/a	n/a	0	0	0
4460753	WORD	wordpools/wasnorm_wordpool_576.txt	LTP317	ltpFR2	18	22	DENIM	446	n/a	n/a	0	0	0
4463322	WORD	wordpools/wasnorm_wordpool_576.txt	LTP317	ltpFR2	18	22	SURVEY	1414	n/a	n/a	0	0	0
4466043	WORD	wordpools/wasnorm_wordpool_576.txt	LTP317	ltpFR2	18	22	COLONEL	348	n/a	n/a	0	0	0
4468630	WORD	wordpools/wasnorm_wordpool_576.txt	LTP317	ltpFR2	18	22	FLASHLIGHT	575	n/a	n/a	0	0	0
4471399	WORD	wordpools/wasnorm_wordpool_576.txt	LTP317	ltpFR2	18	22	GARLIC	624	n/a	n/a	0	0	0
4474014	WORD	wordpools/wasnorm_wordpool_576.txt	LTP317	ltpFR2	18	22	WAITRESS	1581	n/a	n/a	0	0	0
4476517	WORD	wordpools/wasnorm_wordpool_576.txt	LTP317	ltpFR2	18	22	WINDOW	1611	n/a	n/a	0	0	0
4479336	WORD	wordpools/wasnorm_wordpool_576.txt	LTP317	ltpFR2	18	22	PEDAL	1037	n/a	n/a	0	0	0
4482054	WORD	wordpools/wasnorm_wordpool_576.txt	LTP317	ltpFR2	18	22	LAPEL	800	n/a	n/a	0	0	0
4484574	WORD	wordpools/wasnorm_wordpool_576.txt	LTP317	ltpFR2	18	22	COTTAGE	384	n/a	n/a	0	0	0
4487378	WORD	wordpools/wasnorm_wordpool_576.txt	LTP317	ltpFR2	18	22	XEROX	1628	n/a	n/a	0	0	0
4490179	WORD	wordpools/wasnorm_wordpool_576.txt	LTP317	ltpFR2	18	22	CABBAGE	210	n/a	n/a	0	0	0
4491797	START	n/a	LTP317	ltpFR2	18	n/a	n/a	n/a	33	n/a	n/a	n/a	n/a
4492750	DISTRACTOR	n/a	LTP317	ltpFR2	18	22	n/a	n/a	n/a	n/a	0	0	0
4492764	PROB	n/a	LTP317	ltpFR2	18	n/a	n/a	n/a	33	18	8	2	8
4494698	PROB	n/a	LTP317	ltpFR2	18	n/a	n/a	n/a	33	9	1	2	6
4496335	PROB	n/a	LTP317	ltpFR2	18	n/a	n/a	n/a	33	16	4	9	3
4498149	PROB	n/a	LTP317	ltpFR2	18	n/a	n/a	n/a	33	15	2	4	9
4501354	PROB	n/a	LTP317	ltpFR2	18	n/a	n/a	n/a	33	16	8	7	1
4502772	PROB	n/a	LTP317	ltpFR2	18	n/a	n/a	n/a	33	17	5	9	3
