onset	duration	trial_type	sample	stim_file	subject	experiment	session	trial	task	item_name	item_num	recog_conf	resp	answer	test_x	test_y	test_z	color_b	color_g	color_r	case	font
295.152	n/a	SESS_START	147576	n/a	LTP233	ltpFR	13	n/a	n/a	n/a	n/a	1	n/a	n/a	0	0	0	n/a	n/a	n/a	n/a	n/a
319.632	n/a	START	159816	n/a	LTP233	ltpFR	13	n/a	n/a	n/a	n/a	n/a	n/a	n/a	n/a	n/a	n/a	n/a	n/a	n/a	n/a	n/a
319.686	n/a	PROB	159843	n/a	LTP233	ltpFR	13	n/a	n/a	n/a	n/a	n/a	n/a	13	1	3	9	n/a	n/a	n/a	n/a	n/a
321.476	n/a	PROB	160738	n/a	LTP233	ltpFR	13	n/a	n/a	n/a	n/a	n/a	n/a	20	6	5	9	n/a	n/a	n/a	n/a	n/a
322.798	n/a	PROB	161399	n/a	LTP233	ltpFR	13	n/a	n/a	n/a	n/a	n/a	n/a	6	2	3	1	n/a	n/a	n/a	n/a	n/a
324.054	n/a	PROB	162027	n/a	LTP233	ltpFR	13	n/a	n/a	n/a	n/a	n/a	n/a	19	7	3	9	n/a	n/a	n/a	n/a	n/a
325.292	n/a	PROB	162646	n/a	LTP233	ltpFR	13	n/a	n/a	n/a	n/a	n/a	n/a	20	8	3	9	n/a	n/a	n/a	n/a	n/a
326.462	n/a	PROB	163231	n/a	LTP233	ltpFR	13	n/a	n/a	n/a	n/a	n/a	n/a	12	4	6	2	n/a	n/a	n/a	n/a	n/a
327.984	n/a	PROB	163992	n/a	LTP233	ltpFR	13	n/a	n/a	n/a	n/a	n/a	n/a	17	7	7	3	n/a	n/a	n/a	n/a	n/a
329.356	n/a	PROB	164678	n/a	LTP233	ltpFR	13	n/a	n/a	n/a	n/a	n/a	n/a	10	5	1	4	n/a	n/a	n/a	n/a	n/a
330.69	n/a	PROB	165345	n/a	LTP233	ltpFR	13	n/a	n/a	n/a	n/a	n/a	n/a	17	3	8	6	n/a	n/a	n/a	n/a	n/a
332.134	n/a	PROB	166067	n/a	LTP233	ltpFR	13	n/a	n/a	n/a	n/a	n/a	n/a	13	8	1	4	n/a	n/a	n/a	n/a	n/a
333.474	n/a	PROB	166737	n/a	LTP233	ltpFR	13	n/a	n/a	n/a	n/a	n/a	n/a	14	4	8	1	n/a	n/a	n/a	n/a	n/a
334.842	n/a	PROB	167421	n/a	LTP233	ltpFR	13	n/a	n/a	n/a	n/a	n/a	n/a	11	1	9	1	n/a	n/a	n/a	n/a	n/a
336.13	n/a	PROB	168065	n/a	LTP233	ltpFR	13	n/a	n/a	n/a	n/a	n/a	n/a	10	5	3	2	n/a	n/a	n/a	n/a	n/a
337.304	n/a	PROB	168652	n/a	LTP233	ltpFR	13	n/a	n/a	n/a	n/a	n/a	n/a	17	2	9	6	n/a	n/a	n/a	n/a	n/a
338.64	n/a	STOP	169320	n/a	LTP233	ltpFR	13	n/a	n/a	n/a	n/a	n/a	n/a	n/a	n/a	n/a	n/a	n/a	n/a	n/a	n/a	n/a
368.324	n/a	START	184162	n/a	LTP233	ltpFR	13	n/a	n/a	n/a	n/a	n/a	n/a	n/a	n/a	n/a	n/a	n/a	n/a	n/a	n/a	n/a
369.84	n/a	PROB	184920	n/a	LTP233	ltpFR	13	n/a	n/a	n/a	n/a	n/a	n/a	14	5	6	3	n/a	n/a	n/a	n/a	n/a
371.1	n/a	PROB	185550	n/a	LTP233	ltpFR	13	n/a	n/a	n/a	n/a	n/a	n/a	10	1	5	4	n/a	n/a	n/a	n/a	n/a
372.288	n/a	PROB	186144	n/a	LTP233	ltpFR	13	n/a	n/a	n/a	n/a	n/a	n/a	13	7	5	1	n/a	n/a	n/a	n/a	n/a
376.324	n/a	STOP	188162	n/a	LTP233	ltpFR	13	n/a	n/a	n/a	n/a	n/a	n/a	n/a	n/a	n/a	n/a	n/a	n/a	n/a	n/a	n/a
377.358	n/a	WORD	188679	wordpools/wasnorm_wordpool_less_exclusions.txt	LTP233	ltpFR	13	1	0	TERMITE	1451	n/a	0	n/a	0	0	0	1	0.412841796875	0.57763671875	lower	../fonts/amplitud.ttf
380.37	n/a	START	190185	n/a	LTP233	ltpFR	13	n/a	n/a	n/a	n/a	n/a	n/a	n/a	n/a	n/a	n/a	n/a	n/a	n/a	n/a	n/a
381.506	n/a	PROB	190753	n/a	LTP233	ltpFR	13	n/a	n/a	n/a	n/a	n/a	n/a	16	9	5	2	n/a	n/a	n/a	n/a	n/a
382.794	n/a	PROB	191397	n/a	LTP233	ltpFR	13	n/a	n/a	n/a	n/a	n/a	n/a	15	6	5	4	n/a	n/a	n/a	n/a	n/a
384.016	n/a	PROB	192008	n/a	LTP233	ltpFR	13	n/a	n/a	n/a	n/a	n/a	n/a	18	8	5	5	n/a	n/a	n/a	n/a	n/a
385.554	n/a	PROB	192777	n/a	LTP233	ltpFR	13	n/a	n/a	n/a	n/a	n/a	n/a	15	4	3	8	n/a	n/a	n/a	n/a	n/a
386.704	n/a	PROB	193352	n/a	LTP233	ltpFR	13	n/a	n/a	n/a	n/a	n/a	n/a	156	5	7	3	n/a	n/a	n/a	n/a	n/a
388.25	n/a	STOP	194125	n/a	LTP233	ltpFR	13	n/a	n/a	n/a	n/a	n/a	n/a	n/a	n/a	n/a	n/a	n/a	n/a	n/a	n/a	n/a
389.37	n/a	WORD	194685	wordpools/wasnorm_wordpool_less_exclusions.txt	LTP233	ltpFR	13	1	0	CORN	381	n/a	0	n/a	0	0	0	1	0.412841796875	0.57763671875	lower	../fonts/amplitud.ttf
392.382	n/a	START	196191	n/a	LTP233	ltpFR	13	n/a	n/a	n/a	n/a	n/a	n/a	n/a	n/a	n/a	n/a	n/a	n/a	n/a	n/a	n/a
393.214	n/a	PROB	196607	n/a	LTP233	ltpFR	13	n/a	n/a	n/a	n/a	n/a	n/a	19	7	3	9	n/a	n/a	n/a	n/a	n/a
395.41	n/a	PROB	197705	n/a	LTP233	ltpFR	13	n/a	n/a	n/a	n/a	n/a	n/a	11	2	5	4	n/a	n/a	n/a	n/a	n/a
396.764	n/a	PROB	198382	n/a	LTP233	ltpFR	13	n/a	n/a	n/a	n/a	n/a	n/a	9	1	3	5	n/a	n/a	n/a	n/a	n/a
398.166	n/a	PROB	199083	n/a	LTP233	ltpFR	13	n/a	n/a	n/a	n/a	n/a	n/a	10	2	5	3	n/a	n/a	n/a	n/a	n/a
400.028	n/a	STOP	200014	n/a	LTP233	ltpFR	13	n/a	n/a	n/a	n/a	n/a	n/a	n/a	n/a	n/a	n/a	n/a	n/a	n/a	n/a	n/a
401.582	n/a	WORD	200791	wordpools/wasnorm_wordpool_less_exclusions.txt	LTP233	ltpFR	13	1	0	DIAMOND	458	n/a	0	n/a	0	0	0	1	0.412841796875	0.57763671875	lower	../fonts/amplitud.ttf
404.594	n/a	START	202297	n/a	LTP233	ltpFR	13	n/a	n/a	n/a	n/a	n/a	n/a	n/a	n/a	n/a	n/a	n/a	n/a	n/a	n/a	n/a
405.764	n/a	PROB	202882	n/a	LTP233	ltpFR	13	n/a	n/a	n/a	n/a	n/a	n/a	19	9	6	4	n/a	n/a	n/a	n/a	n/a
407.334	n/a	PROB	203667	n/a	LTP233	ltpFR	13	n/a	n/a	n/a	n/a	n/a	n/a	18	4	5	9	n/a	n/a	n/a	n/a	n/a
408.81	n/a	PROB	204405	n/a	LTP233	ltpFR	13	n/a	n/a	n/a	n/a	n/a	n/a	11	5	4	2	n/a	n/a	n/a	n/a	n/a
410.35	n/a	PROB	205175	n/a	LTP233	ltpFR	13	n/a	n/a	n/a	n/a	n/a	n/a	13	2	2	9	n/a	n/a	n/a	n/a	n/a
411.356	n/a	STOP	205678	n/a	LTP233	ltpFR	13	n/a	n/a	n/a	n/a	n/a	n/a	n/a	n/a	n/a	n/a	n/a	n/a	n/a	n/a	n/a
413.594	n/a	WORD	206797	wordpools/wasnorm_wordpool_less_exclusions.txt	LTP233	ltpFR	13	1	1	COOLER	375	n/a	0	n/a	0	0	0	0	0.5869140625	0.422607421875	upper	../fonts/zerothre.ttf
416.606	n/a	START	208303	n/a	LTP233	ltpFR	13	n/a	n/a	n/a	n/a	n/a	n/a	n/a	n/a	n/a	n/a	n/a	n/a	n/a	n/a	n/a
417.51	n/a	PROB	208755	n/a	LTP233	ltpFR	13	n/a	n/a	n/a	n/a	n/a	n/a	15	2	4	9	n/a	n/a	n/a	n/a	n/a
418.978	n/a	PROB	209489	n/a	LTP233	ltpFR	13	n/a	n/a	n/a	n/a	n/a	n/a	15	8	2	5	n/a	n/a	n/a	n/a	n/a
420.216	n/a	PROB	210108	n/a	LTP233	ltpFR	13	n/a	n/a	n/a	n/a	n/a	n/a	10	1	7	2	n/a	n/a	n/a	n/a	n/a
421.488	n/a	PROB	210744	n/a	LTP233	ltpFR	13	n/a	n/a	n/a	n/a	n/a	n/a	15	3	4	8	n/a	n/a	n/a	n/a	n/a
424.606	n/a	STOP	212303	n/a	LTP233	ltpFR	13	n/a	n/a	n/a	n/a	n/a	n/a	n/a	n/a	n/a	n/a	n/a	n/a	n/a	n/a	n/a
425.624	n/a	WORD	212812	wordpools/wasnorm_wordpool_less_exclusions.txt	LTP233	ltpFR	13	1	1	CAT	257	n/a	1	n/a	0	0	0	0	0.5869140625	0.422607421875	upper	../fonts/zerothre.ttf
428.636	n/a	START	214318	n/a	LTP233	ltpFR	13	n/a	n/a	n/a	n/a	n/a	n/a	n/a	n/a	n/a	n/a	n/a	n/a	n/a	n/a	n/a
429.49	n/a	PROB	214745	n/a	LTP233	ltpFR	13	n/a	n/a	n/a	n/a	n/a	n/a	12	4	5	3	n/a	n/a	n/a	n/a	n/a
430.846	n/a	PROB	215423	n/a	LTP233	ltpFR	13	n/a	n/a	n/a	n/a	n/a	n/a	8	4	2	2	n/a	n/a	n/a	n/a	n/a
432.296	n/a	PROB	216148	n/a	LTP233	ltpFR	13	n/a	n/a	n/a	n/a	n/a	n/a	20	7	7	6	n/a	n/a	n/a	n/a	n/a
433.418	n/a	PROB	216709	n/a	LTP233	ltpFR	13	n/a	n/a	n/a	n/a	n/a	n/a	16	5	7	4	n/a	n/a	n/a	n/a	n/a
435.09	n/a	PROB	217545	n/a	LTP233	ltpFR	13	n/a	n/a	n/a	n/a	n/a	n/a	9	6	2	1	n/a	n/a	n/a	n/a	n/a
436.134	n/a	STOP	218067	n/a	LTP233	ltpFR	13	n/a	n/a	n/a	n/a	n/a	n/a	n/a	n/a	n/a	n/a	n/a	n/a	n/a	n/a	n/a
437.7	n/a	WORD	218850	wordpools/wasnorm_wordpool_less_exclusions.txt	LTP233	ltpFR	13	1	1	BEE	112	n/a	1	n/a	0	0	0	0	0.5869140625	0.422607421875	upper	../fonts/zerothre.ttf
440.716	n/a	START	220358	n/a	LTP233	ltpFR	13	n/a	n/a	n/a	n/a	n/a	n/a	n/a	n/a	n/a	n/a	n/a	n/a	n/a	n/a	n/a
441.786	n/a	PROB	220893	n/a	LTP233	ltpFR	13	n/a	n/a	n/a	n/a	n/a	n/a	6	3	1	2	n/a	n/a	n/a	n/a	n/a
443.79	n/a	PROB	221895	n/a	LTP233	ltpFR	13	n/a	n/a	n/a	n/a	n/a	n/a	9	4	1	4	n/a	n/a	n/a	n/a	n/a
445.128	n/a	PROB	222564	n/a	LTP233	ltpFR	13	n/a	n/a	n/a	n/a	n/a	n/a	21	6	9	6	n/a	n/a	n/a	n/a	n/a
446.768	n/a	PROB	223384	n/a	LTP233	ltpFR	13	n/a	n/a	n/a	n/a	n/a	n/a	12	9	2	1	n/a	n/a	n/a	n/a	n/a
448.262	n/a	STOP	224131	n/a	LTP233	ltpFR	13	n/a	n/a	n/a	n/a	n/a	n/a	n/a	n/a	n/a	n/a	n/a	n/a	n/a	n/a	n/a
449.884	n/a	WORD	224942	wordpools/wasnorm_wordpool_less_exclusions.txt	LTP233	ltpFR	13	1	1	LIEUTENANT	818	n/a	1	n/a	0	0	0	0	0.5869140625	0.422607421875	upper	../fonts/zerothre.ttf
452.896	n/a	START	226448	n/a	LTP233	ltpFR	13	n/a	n/a	n/a	n/a	n/a	n/a	n/a	n/a	n/a	n/a	n/a	n/a	n/a	n/a	n/a
453.832	n/a	PROB	226916	n/a	LTP233	ltpFR	13	n/a	n/a	n/a	n/a	n/a	n/a	11	2	8	1	n/a	n/a	n/a	n/a	n/a
455.184	n/a	PROB	227592	n/a	LTP233	ltpFR	13	n/a	n/a	n/a	n/a	n/a	n/a	18	8	4	6	n/a	n/a	n/a	n/a	n/a
456.84	n/a	PROB	228420	n/a	LTP233	ltpFR	13	n/a	n/a	n/a	n/a	n/a	n/a	1	1	2	9	n/a	n/a	n/a	n/a	n/a
457.894	n/a	PROB	228947	n/a	LTP233	ltpFR	13	n/a	n/a	n/a	n/a	n/a	n/a	5	1	1	3	n/a	n/a	n/a	n/a	n/a
458.982	n/a	PROB	229491	n/a	LTP233	ltpFR	13	n/a	n/a	n/a	n/a	n/a	n/a	15	9	2	4	n/a	n/a	n/a	n/a	n/a
460.414	n/a	STOP	230207	n/a	LTP233	ltpFR	13	n/a	n/a	n/a	n/a	n/a	n/a	n/a	n/a	n/a	n/a	n/a	n/a	n/a	n/a	n/a
461.942	n/a	WORD	230971	wordpools/wasnorm_wordpool_less_exclusions.txt	LTP233	ltpFR	13	1	1	OUTFIT	988	n/a	0	n/a	0	0	0	0	0.5869140625	0.422607421875	upper	../fonts/zerothre.ttf
464.958	n/a	START	232479	n/a	LTP233	ltpFR	13	n/a	n/a	n/a	n/a	n/a	n/a	n/a	n/a	n/a	n/a	n/a	n/a	n/a	n/a	n/a
465.946	n/a	PROB	232973	n/a	LTP233	ltpFR	13	n/a	n/a	n/a	n/a	n/a	n/a	21	6	7	8	n/a	n/a	n/a	n/a	n/a
467.732	n/a	PROB	233866	n/a	LTP233	ltpFR	13	n/a	n/a	n/a	n/a	n/a	n/a	10	1	1	8	n/a	n/a	n/a	n/a	n/a
468.836	n/a	PROB	234418	n/a	LTP233	ltpFR	13	n/a	n/a	n/a	n/a	n/a	n/a	15	2	4	9	n/a	n/a	n/a	n/a	n/a
469.978	n/a	PROB	234989	n/a	LTP233	ltpFR	13	n/a	n/a	n/a	n/a	n/a	n/a	11	7	1	3	n/a	n/a	n/a	n/a	n/a
471.312	n/a	PROB	235656	n/a	LTP233	ltpFR	13	n/a	n/a	n/a	n/a	n/a	n/a	16	8	6	2	n/a	n/a	n/a	n/a	n/a
472.416	n/a	STOP	236208	n/a	LTP233	ltpFR	13	n/a	n/a	n/a	n/a	n/a	n/a	n/a	n/a	n/a	n/a	n/a	n/a	n/a	n/a	n/a
473.976	n/a	WORD	236988	wordpools/wasnorm_wordpool_less_exclusions.txt	LTP233	ltpFR	13	1	1	MOTH	920	n/a	1	n/a	0	0	0	0	0.5869140625	0.422607421875	upper	../fonts/zerothre.ttf
476.988	n/a	START	238494	n/a	LTP233	ltpFR	13	n/a	n/a	n/a	n/a	n/a	n/a	n/a	n/a	n/a	n/a	n/a	n/a	n/a	n/a	n/a
478.024	n/a	PROB	239012	n/a	LTP233	ltpFR	13	n/a	n/a	n/a	n/a	n/a	n/a	19	7	8	4	n/a	n/a	n/a	n/a	n/a
479.38	n/a	PROB	239690	n/a	LTP233	ltpFR	13	n/a	n/a	n/a	n/a	n/a	n/a	15	6	8	1	n/a	n/a	n/a	n/a	n/a
480.6	n/a	PROB	240300	n/a	LTP233	ltpFR	13	n/a	n/a	n/a	n/a	n/a	n/a	23	9	7	7	n/a	n/a	n/a	n/a	n/a
482.104	n/a	PROB	241052	n/a	LTP233	ltpFR	13	n/a	n/a	n/a	n/a	n/a	n/a	19	8	3	8	n/a	n/a	n/a	n/a	n/a
483.344	n/a	PROB	241672	n/a	LTP233	ltpFR	13	n/a	n/a	n/a	n/a	n/a	n/a	23	9	5	9	n/a	n/a	n/a	n/a	n/a
484.632	n/a	STOP	242316	n/a	LTP233	ltpFR	13	n/a	n/a	n/a	n/a	n/a	n/a	n/a	n/a	n/a	n/a	n/a	n/a	n/a	n/a	n/a
486.072	n/a	WORD	243036	wordpools/wasnorm_wordpool_less_exclusions.txt	LTP233	ltpFR	13	1	0	DART	440	n/a	0	n/a	0	0	0	1	0.412841796875	0.57763671875	lower	../fonts/amplitud.ttf
489.084	n/a	START	244542	n/a	LTP233	ltpFR	13	n/a	n/a	n/a	n/a	n/a	n/a	n/a	n/a	n/a	n/a	n/a	n/a	n/a	n/a	n/a
490.222	n/a	PROB	245111	n/a	LTP233	ltpFR	13	n/a	n/a	n/a	n/a	n/a	n/a	13	2	9	2	n/a	n/a	n/a	n/a	n/a
491.506	n/a	PROB	245753	n/a	LTP233	ltpFR	13	n/a	n/a	n/a	n/a	n/a	n/a	14	7	2	5	n/a	n/a	n/a	n/a	n/a
493.514	n/a	PROB	246757	n/a	LTP233	ltpFR	13	n/a	n/a	n/a	n/a	n/a	n/a	21	9	9	3	n/a	n/a	n/a	n/a	n/a
494.906	n/a	PROB	247453	n/a	LTP233	ltpFR	13	n/a	n/a	n/a	n/a	n/a	n/a	6	2	2	2	n/a	n/a	n/a	n/a	n/a
495.768	n/a	STOP	247884	n/a	LTP233	ltpFR	13	n/a	n/a	n/a	n/a	n/a	n/a	n/a	n/a	n/a	n/a	n/a	n/a	n/a	n/a	n/a
498.268	n/a	WORD	249134	wordpools/wasnorm_wordpool_less_exclusions.txt	LTP233	ltpFR	13	1	0	CHALK	276	n/a	0	n/a	0	0	0	1	0.412841796875	0.57763671875	lower	../fonts/amplitud.ttf
501.28	n/a	START	250640	n/a	LTP233	ltpFR	13	n/a	n/a	n/a	n/a	n/a	n/a	n/a	n/a	n/a	n/a	n/a	n/a	n/a	n/a	n/a
502.384	n/a	PROB	251192	n/a	LTP233	ltpFR	13	n/a	n/a	n/a	n/a	n/a	n/a	17	3	6	9	n/a	n/a	n/a	n/a	n/a
503.858	n/a	PROB	251929	n/a	LTP233	ltpFR	13	n/a	n/a	n/a	n/a	n/a	n/a	13	2	2	9	n/a	n/a	n/a	n/a	n/a
505.13	n/a	PROB	252565	n/a	LTP233	ltpFR	13	n/a	n/a	n/a	n/a	n/a	n/a	18	2	7	9	n/a	n/a	n/a	n/a	n/a
506.73	n/a	PROB	253365	n/a	LTP233	ltpFR	13	n/a	n/a	n/a	n/a	n/a	n/a	8	1	3	4	n/a	n/a	n/a	n/a	n/a
507.832	n/a	STOP	253916	n/a	LTP233	ltpFR	13	n/a	n/a	n/a	n/a	n/a	n/a	n/a	n/a	n/a	n/a	n/a	n/a	n/a	n/a	n/a
510.45	n/a	WORD	255225	wordpools/wasnorm_wordpool_less_exclusions.txt	LTP233	ltpFR	13	1	0	PAN	1008	n/a	0	n/a	0	0	0	1	0.412841796875	0.57763671875	lower	../fonts/amplitud.ttf
513.46	n/a	START	256730	n/a	LTP233	ltpFR	13	n/a	n/a	n/a	n/a	n/a	n/a	n/a	n/a	n/a	n/a	n/a	n/a	n/a	n/a	n/a
514.514	n/a	PROB	257257	n/a	LTP233	ltpFR	13	n/a	n/a	n/a	n/a	n/a	n/a	22	8	8	6	n/a	n/a	n/a	n/a	n/a
515.832	n/a	PROB	257916	n/a	LTP233	ltpFR	13	n/a	n/a	n/a	n/a	n/a	n/a	20	7	6	7	n/a	n/a	n/a	n/a	n/a
517.138	n/a	PROB	258569	n/a	LTP233	ltpFR	13	n/a	n/a	n/a	n/a	n/a	n/a	18	9	8	1	n/a	n/a	n/a	n/a	n/a
518.292	n/a	PROB	259146	n/a	LTP233	ltpFR	13	n/a	n/a	n/a	n/a	n/a	n/a	17	7	3	7	n/a	n/a	n/a	n/a	n/a
519.282	n/a	PROB	259641	n/a	LTP233	ltpFR	13	n/a	n/a	n/a	n/a	n/a	n/a	22	6	8	8	n/a	n/a	n/a	n/a	n/a
520.616	n/a	STOP	260308	n/a	LTP233	ltpFR	13	n/a	n/a	n/a	n/a	n/a	n/a	n/a	n/a	n/a	n/a	n/a	n/a	n/a	n/a	n/a
522.378	n/a	WORD	261189	wordpools/wasnorm_wordpool_less_exclusions.txt	LTP233	ltpFR	13	1	0	SPATULA	1348	n/a	0	n/a	0	0	0	1	0.412841796875	0.57763671875	lower	../fonts/amplitud.ttf
525.39	n/a	START	262695	n/a	LTP233	ltpFR	13	n/a	n/a	n/a	n/a	n/a	n/a	n/a	n/a	n/a	n/a	n/a	n/a	n/a	n/a	n/a
526.36	n/a	PROB	263180	n/a	LTP233	ltpFR	13	n/a	n/a	n/a	n/a	n/a	n/a	5	3	1	1	n/a	n/a	n/a	n/a	n/a
530.22	n/a	PROB	265110	n/a	LTP233	ltpFR	13	n/a	n/a	n/a	n/a	n/a	n/a	19	8	2	9	n/a	n/a	n/a	n/a	n/a
531.308	n/a	PROB	265654	n/a	LTP233	ltpFR	13	n/a	n/a	n/a	n/a	n/a	n/a	14	5	7	2	n/a	n/a	n/a	n/a	n/a
532.266	n/a	STOP	266133	n/a	LTP233	ltpFR	13	n/a	n/a	n/a	n/a	n/a	n/a	n/a	n/a	n/a	n/a	n/a	n/a	n/a	n/a	n/a
534.508	n/a	WORD	267254	wordpools/wasnorm_wordpool_less_exclusions.txt	LTP233	ltpFR	13	1	0	SERGEANT	1269	n/a	1	n/a	0	0	0	1	0.412841796875	0.57763671875	lower	../fonts/amplitud.ttf
537.52	n/a	START	268760	n/a	LTP233	ltpFR	13	n/a	n/a	n/a	n/a	n/a	n/a	n/a	n/a	n/a	n/a	n/a	n/a	n/a	n/a	n/a
538.638	n/a	PROB	269319	n/a	LTP233	ltpFR	13	n/a	n/a	n/a	n/a	n/a	n/a	11	6	2	3	n/a	n/a	n/a	n/a	n/a
539.94	n/a	PROB	269970	n/a	LTP233	ltpFR	13	n/a	n/a	n/a	n/a	n/a	n/a	3	1	1	1	n/a	n/a	n/a	n/a	n/a
540.826	n/a	PROB	270413	n/a	LTP233	ltpFR	13	n/a	n/a	n/a	n/a	n/a	n/a	18	7	1	9	n/a	n/a	n/a	n/a	n/a
545.52	n/a	STOP	272760	n/a	LTP233	ltpFR	13	n/a	n/a	n/a	n/a	n/a	n/a	n/a	n/a	n/a	n/a	n/a	n/a	n/a	n/a	n/a
546.67	n/a	WORD	273335	wordpools/wasnorm_wordpool_less_exclusions.txt	LTP233	ltpFR	13	1	1	LAVA	804	n/a	0	n/a	0	0	0	0	0.5869140625	0.422607421875	upper	../fonts/zerothre.ttf
549.682	n/a	START	274841	n/a	LTP233	ltpFR	13	n/a	n/a	n/a	n/a	n/a	n/a	n/a	n/a	n/a	n/a	n/a	n/a	n/a	n/a	n/a
550.586	n/a	PROB	275293	n/a	LTP233	ltpFR	13	n/a	n/a	n/a	n/a	n/a	n/a	21	9	5	7	n/a	n/a	n/a	n/a	n/a
553.178	n/a	PROB	276589	n/a	LTP233	ltpFR	13	n/a	n/a	n/a	n/a	n/a	n/a	10	3	5	2	n/a	n/a	n/a	n/a	n/a
554.666	n/a	PROB	277333	n/a	LTP233	ltpFR	13	n/a	n/a	n/a	n/a	n/a	n/a	1	4	7	2	n/a	n/a	n/a	n/a	n/a
555.7	n/a	PROB	277850	n/a	LTP233	ltpFR	13	n/a	n/a	n/a	n/a	n/a	n/a	20	4	9	7	n/a	n/a	n/a	n/a	n/a
557.084	n/a	STOP	278542	n/a	LTP233	ltpFR	13	n/a	n/a	n/a	n/a	n/a	n/a	n/a	n/a	n/a	n/a	n/a	n/a	n/a	n/a	n/a
558.712	n/a	WORD	279356	wordpools/wasnorm_wordpool_less_exclusions.txt	LTP233	ltpFR	13	1	1	MOUSE	925	n/a	0	n/a	0	0	0	0	0.5869140625	0.422607421875	upper	../fonts/zerothre.ttf
561.728	n/a	START	280864	n/a	LTP233	ltpFR	13	n/a	n/a	n/a	n/a	n/a	n/a	n/a	n/a	n/a	n/a	n/a	n/a	n/a	n/a	n/a
562.798	n/a	PROB	281399	n/a	LTP233	ltpFR	13	n/a	n/a	n/a	n/a	n/a	n/a	25	9	8	9	n/a	n/a	n/a	n/a	n/a
564.218	n/a	PROB	282109	n/a	LTP233	ltpFR	13	n/a	n/a	n/a	n/a	n/a	n/a	13	8	3	2	n/a	n/a	n/a	n/a	n/a
565.326	n/a	PROB	282663	n/a	LTP233	ltpFR	13	n/a	n/a	n/a	n/a	n/a	n/a	16	6	8	2	n/a	n/a	n/a	n/a	n/a
566.862	n/a	PROB	283431	n/a	LTP233	ltpFR	13	n/a	n/a	n/a	n/a	n/a	n/a	15	8	2	5	n/a	n/a	n/a	n/a	n/a
567.83	n/a	PROB	283915	n/a	LTP233	ltpFR	13	n/a	n/a	n/a	n/a	n/a	n/a	9	2	1	6	n/a	n/a	n/a	n/a	n/a
568.94	n/a	STOP	284470	n/a	LTP233	ltpFR	13	n/a	n/a	n/a	n/a	n/a	n/a	n/a	n/a	n/a	n/a	n/a	n/a	n/a	n/a	n/a
571.566	n/a	REC_START	285783	n/a	LTP233	ltpFR	13	1	n/a	n/a	n/a	n/a	n/a	n/a	0	0	0	n/a	n/a	n/a	n/a	n/a
573.532	n/a	REC_WORD	286766	wordpools/wasnorm_wordpool_less_exclusions.txt	LTP233	ltpFR	13	1	1	LAVA	804	n/a	0	n/a	0	0	0	n/a	n/a	n/a	n/a	n/a
574.564	n/a	REC_WORD	287282	wordpools/wasnorm_wordpool_less_exclusions.txt	LTP233	ltpFR	13	1	0	SPATULA	1348	n/a	0	n/a	0	0	0	n/a	n/a	n/a	n/a	n/a
575.946	n/a	REC_WORD	287973	wordpools/wasnorm_wordpool_less_exclusions.txt	LTP233	ltpFR	13	1	0	PAN	1008	n/a	0	n/a	0	0	0	n/a	n/a	n/a	n/a	n/a
576.97	n/a	REC_WORD	288485	wordpools/wasnorm_wordpool_less_exclusions.txt	LTP233	ltpFR	13	1	0	CHALK	276	n/a	0	n/a	0	0	0	n/a	n/a	n/a	n/a	n/a
578.132	n/a	REC_WORD	289066	wordpools/wasnorm_wordpool_less_exclusions.txt	LTP233	ltpFR	13	1	0	DART	440	n/a	0	n/a	0	0	0	n/a	n/a	n/a	n/a	n/a
579.036	n/a	REC_WORD	289518	wordpools/wasnorm_wordpool_less_exclusions.txt	LTP233	ltpFR	13	1	1	LIEUTENANT	818	n/a	1	n/a	0	0	0	n/a	n/a	n/a	n/a	n/a
579.994	n/a	REC_WORD	289997	wordpools/wasnorm_wordpool_less_exclusions.txt	LTP233	ltpFR	13	1	0	SERGEANT	1269	n/a	1	n/a	0	0	0	n/a	n/a	n/a	n/a	n/a
583.012	n/a	REC_WORD	291506	wordpools/wasnorm_wordpool_less_exclusions.txt	LTP233	ltpFR	13	1	1	MOTH	920	n/a	1	n/a	0	0	0	n/a	n/a	n/a	n/a	n/a
584.0	n/a	REC_WORD	292000	wordpools/wasnorm_wordpool_less_exclusions.txt	LTP233	ltpFR	13	1	1	BEE	112	n/a	1	n/a	0	0	0	n/a	n/a	n/a	n/a	n/a
584.992	n/a	REC_WORD	292496	wordpools/wasnorm_wordpool_less_exclusions.txt	LTP233	ltpFR	13	1	1	OUTFIT	988	n/a	0	n/a	0	0	0	n/a	n/a	n/a	n/a	n/a
586.568	n/a	REC_WORD	293284	wordpools/wasnorm_wordpool_less_exclusions.txt	LTP233	ltpFR	13	1	1	COOLER	375	n/a	0	n/a	0	0	0	n/a	n/a	n/a	n/a	n/a
593.184	n/a	REC_WORD	296592	wordpools/wasnorm_wordpool_less_exclusions.txt	LTP233	ltpFR	13	1	0	TERMITE	1451	n/a	0	n/a	0	0	0	n/a	n/a	n/a	n/a	n/a
594.226	n/a	REC_WORD	297113	wordpools/wasnorm_wordpool_less_exclusions.txt	LTP233	ltpFR	13	1	0	DIAMOND	458	n/a	0	n/a	0	0	0	n/a	n/a	n/a	n/a	n/a
595.268	n/a	REC_WORD	297634	wordpools/wasnorm_wordpool_less_exclusions.txt	LTP233	ltpFR	13	1	0	CORN	381	n/a	0	n/a	0	0	0	n/a	n/a	n/a	n/a	n/a
597.638	n/a	REC_WORD	298819	wordpools/wasnorm_wordpool_less_exclusions.txt	LTP233	ltpFR	13	1	1	CAT	257	n/a	1	n/a	0	0	0	n/a	n/a	n/a	n/a	n/a
650.684	n/a	WORD	325342	wordpools/wasnorm_wordpool_less_exclusions.txt	LTP233	ltpFR	13	2	0	ARCHITECT	36	n/a	1	n/a	0	0	0	1	0.412841796875	0.57763671875	lower	../fonts/amplitud.ttf
654.65	n/a	WORD	327325	wordpools/wasnorm_wordpool_less_exclusions.txt	LTP233	ltpFR	13	2	0	BLACKBERRY	132	n/a	0	n/a	0	0	0	1	0.412841796875	0.57763671875	lower	../fonts/amplitud.ttf
658.748	n/a	WORD	329374	wordpools/wasnorm_wordpool_less_exclusions.txt	LTP233	ltpFR	13	2	0	SWITCH	1422	n/a	0	n/a	0	0	0	1	0.412841796875	0.57763671875	lower	../fonts/amplitud.ttf
662.916	n/a	WORD	331458	wordpools/wasnorm_wordpool_less_exclusions.txt	LTP233	ltpFR	13	2	0	PEDESTRIAN	1038	n/a	1	n/a	0	0	0	1	0.412841796875	0.57763671875	lower	../fonts/amplitud.ttf
666.896	n/a	WORD	333448	wordpools/wasnorm_wordpool_less_exclusions.txt	LTP233	ltpFR	13	2	0	GUITAR	670	n/a	0	n/a	0	0	0	1	0.412841796875	0.57763671875	lower	../fonts/amplitud.ttf
670.76	n/a	WORD	335380	wordpools/wasnorm_wordpool_less_exclusions.txt	LTP233	ltpFR	13	2	0	TRUMPET	1513	n/a	0	n/a	0	0	0	1	0.412841796875	0.57763671875	lower	../fonts/amplitud.ttf
674.642	n/a	WORD	337321	wordpools/wasnorm_wordpool_less_exclusions.txt	LTP233	ltpFR	13	2	0	ROAD	1196	n/a	1	n/a	0	0	0	1	0.412841796875	0.57763671875	lower	../fonts/amplitud.ttf
678.824	n/a	WORD	339412	wordpools/wasnorm_wordpool_less_exclusions.txt	LTP233	ltpFR	13	2	0	CHAIR	274	n/a	0	n/a	0	0	0	1	0.412841796875	0.57763671875	lower	../fonts/amplitud.ttf
682.924	n/a	WORD	341462	wordpools/wasnorm_wordpool_less_exclusions.txt	LTP233	ltpFR	13	2	0	ASH	44	n/a	0	n/a	0	0	0	1	0.412841796875	0.57763671875	lower	../fonts/amplitud.ttf
687.136	n/a	WORD	343568	wordpools/wasnorm_wordpool_less_exclusions.txt	LTP233	ltpFR	13	2	0	CONTRACT	368	n/a	0	n/a	0	0	0	1	0.412841796875	0.57763671875	lower	../fonts/amplitud.ttf
691.202	n/a	WORD	345601	wordpools/wasnorm_wordpool_less_exclusions.txt	LTP233	ltpFR	13	2	0	MARGARINE	868	n/a	0	n/a	0	0	0	1	0.412841796875	0.57763671875	lower	../fonts/amplitud.ttf
695.352	n/a	WORD	347676	wordpools/wasnorm_wordpool_less_exclusions.txt	LTP233	ltpFR	13	2	0	JELLY	755	n/a	0	n/a	0	0	0	1	0.412841796875	0.57763671875	lower	../fonts/amplitud.ttf
699.2	n/a	WORD	349600	wordpools/wasnorm_wordpool_less_exclusions.txt	LTP233	ltpFR	13	2	0	BROCCOLI	176	n/a	0	n/a	0	0	0	1	0.412841796875	0.57763671875	lower	../fonts/amplitud.ttf
703.114	n/a	WORD	351557	wordpools/wasnorm_wordpool_less_exclusions.txt	LTP233	ltpFR	13	2	0	PICKLE	1059	n/a	0	n/a	0	0	0	1	0.412841796875	0.57763671875	lower	../fonts/amplitud.ttf
707.15	n/a	WORD	353575	wordpools/wasnorm_wordpool_less_exclusions.txt	LTP233	ltpFR	13	2	0	BULB	192	n/a	0	n/a	0	0	0	1	0.412841796875	0.57763671875	lower	../fonts/amplitud.ttf
711.216	n/a	WORD	355608	wordpools/wasnorm_wordpool_less_exclusions.txt	LTP233	ltpFR	13	2	0	PUMPKIN	1142	n/a	1	n/a	0	0	0	1	0.412841796875	0.57763671875	lower	../fonts/amplitud.ttf
714.228	n/a	START	357114	n/a	LTP233	ltpFR	13	n/a	n/a	n/a	n/a	n/a	n/a	n/a	n/a	n/a	n/a	n/a	n/a	n/a	n/a	n/a
715.262	n/a	PROB	357631	n/a	LTP233	ltpFR	13	n/a	n/a	n/a	n/a	n/a	n/a	18	1	9	8	n/a	n/a	n/a	n/a	n/a
716.602	n/a	PROB	358301	n/a	LTP233	ltpFR	13	n/a	n/a	n/a	n/a	n/a	n/a	8	3	1	4	n/a	n/a	n/a	n/a	n/a
717.652	n/a	PROB	358826	n/a	LTP233	ltpFR	13	n/a	n/a	n/a	n/a	n/a	n/a	23	9	9	5	n/a	n/a	n/a	n/a	n/a
719.092	n/a	PROB	359546	n/a	LTP233	ltpFR	13	n/a	n/a	n/a	n/a	n/a	n/a	3	1	1	1	n/a	n/a	n/a	n/a	n/a
719.896	n/a	PROB	359948	n/a	LTP233	ltpFR	13	n/a	n/a	n/a	n/a	n/a	n/a	24	8	8	8	n/a	n/a	n/a	n/a	n/a
721.164	n/a	STOP	360582	n/a	LTP233	ltpFR	13	n/a	n/a	n/a	n/a	n/a	n/a	n/a	n/a	n/a	n/a	n/a	n/a	n/a	n/a	n/a
724.0	n/a	REC_START	362000	n/a	LTP233	ltpFR	13	2	n/a	n/a	n/a	n/a	n/a	n/a	0	0	0	n/a	n/a	n/a	n/a	n/a
726.524	n/a	REC_WORD	363262	wordpools/wasnorm_wordpool_less_exclusions.txt	LTP233	ltpFR	13	2	0	TRUMPET	1513	n/a	0	n/a	0	0	0	n/a	n/a	n/a	n/a	n/a
728.256	n/a	REC_WORD	364128	wordpools/wasnorm_wordpool_less_exclusions.txt	LTP233	ltpFR	13	2	0	GUITAR	670	n/a	0	n/a	0	0	0	n/a	n/a	n/a	n/a	n/a
729.636	n/a	REC_WORD	364818	wordpools/wasnorm_wordpool_less_exclusions.txt	LTP233	ltpFR	13	2	0	PUMPKIN	1142	n/a	1	n/a	0	0	0	n/a	n/a	n/a	n/a	n/a
731.594	n/a	REC_WORD	365797	wordpools/wasnorm_wordpool_less_exclusions.txt	LTP233	ltpFR	13	2	0	BULB	192	n/a	0	n/a	0	0	0	n/a	n/a	n/a	n/a	n/a
735.864	n/a	REC_WORD	367932	wordpools/wasnorm_wordpool_less_exclusions.txt	LTP233	ltpFR	13	2	0	JELLY	755	n/a	0	n/a	0	0	0	n/a	n/a	n/a	n/a	n/a
743.646	n/a	REC_WORD	371823	wordpools/wasnorm_wordpool_less_exclusions.txt	LTP233	ltpFR	13	2	0	MARGARINE	868	n/a	0	n/a	0	0	0	n/a	n/a	n/a	n/a	n/a
755.944	n/a	REC_WORD	377972	wordpools/wasnorm_wordpool_less_exclusions.txt	LTP233	ltpFR	13	2	0	SWITCH	1422	n/a	0	n/a	0	0	0	n/a	n/a	n/a	n/a	n/a
757.6	n/a	REC_WORD	378800	wordpools/wasnorm_wordpool_less_exclusions.txt	LTP233	ltpFR	13	2	0	BLACKBERRY	132	n/a	0	n/a	0	0	0	n/a	n/a	n/a	n/a	n/a
763.682	n/a	REC_WORD	381841	wordpools/wasnorm_wordpool_less_exclusions.txt	LTP233	ltpFR	13	2	0	PEDESTRIAN	1038	n/a	1	n/a	0	0	0	n/a	n/a	n/a	n/a	n/a
777.796	n/a	REC_WORD	388898	wordpools/wasnorm_wordpool_less_exclusions.txt	LTP233	ltpFR	13	2	n/a	KIWI	781	n/a	n/a	n/a	0	0	0	n/a	n/a	n/a	n/a	n/a
809.238	n/a	START	404619	n/a	LTP233	ltpFR	13	n/a	n/a	n/a	n/a	n/a	n/a	n/a	n/a	n/a	n/a	n/a	n/a	n/a	n/a	n/a
810.758	n/a	PROB	405379	n/a	LTP233	ltpFR	13	n/a	n/a	n/a	n/a	n/a	n/a	10	1	5	4	n/a	n/a	n/a	n/a	n/a
812.202	n/a	PROB	406101	n/a	LTP233	ltpFR	13	n/a	n/a	n/a	n/a	n/a	n/a	20	2	9	9	n/a	n/a	n/a	n/a	n/a
813.486	n/a	PROB	406743	n/a	LTP233	ltpFR	13	n/a	n/a	n/a	n/a	n/a	n/a	8	4	3	1	n/a	n/a	n/a	n/a	n/a
814.69	n/a	PROB	407345	n/a	LTP233	ltpFR	13	n/a	n/a	n/a	n/a	n/a	n/a	8	4	3	1	n/a	n/a	n/a	n/a	n/a
817.238	n/a	STOP	408619	n/a	LTP233	ltpFR	13	n/a	n/a	n/a	n/a	n/a	n/a	n/a	n/a	n/a	n/a	n/a	n/a	n/a	n/a	n/a
818.07	n/a	WORD	409035	wordpools/wasnorm_wordpool_less_exclusions.txt	LTP233	ltpFR	13	3	1	DESSERT	453	n/a	0	n/a	0	0	0	0	0.5869140625	0.422607421875	upper	../fonts/zerothre.ttf
821.086	n/a	START	410543	n/a	LTP233	ltpFR	13	n/a	n/a	n/a	n/a	n/a	n/a	n/a	n/a	n/a	n/a	n/a	n/a	n/a	n/a	n/a
821.968	n/a	PROB	410984	n/a	LTP233	ltpFR	13	n/a	n/a	n/a	n/a	n/a	n/a	14	1	9	4	n/a	n/a	n/a	n/a	n/a
823.026	n/a	PROB	411513	n/a	LTP233	ltpFR	13	n/a	n/a	n/a	n/a	n/a	n/a	11	6	4	1	n/a	n/a	n/a	n/a	n/a
824.362	n/a	PROB	412181	n/a	LTP233	ltpFR	13	n/a	n/a	n/a	n/a	n/a	n/a	16	7	3	6	n/a	n/a	n/a	n/a	n/a
825.35	n/a	PROB	412675	n/a	LTP233	ltpFR	13	n/a	n/a	n/a	n/a	n/a	n/a	18	5	5	8	n/a	n/a	n/a	n/a	n/a
826.404	n/a	PROB	413202	n/a	LTP233	ltpFR	13	n/a	n/a	n/a	n/a	n/a	n/a	17	5	9	3	n/a	n/a	n/a	n/a	n/a
827.826	n/a	STOP	413913	n/a	LTP233	ltpFR	13	n/a	n/a	n/a	n/a	n/a	n/a	n/a	n/a	n/a	n/a	n/a	n/a	n/a	n/a	n/a
830.17	n/a	WORD	415085	wordpools/wasnorm_wordpool_less_exclusions.txt	LTP233	ltpFR	13	3	1	ORNAMENT	985	n/a	0	n/a	0	0	0	0	0.5869140625	0.422607421875	upper	../fonts/zerothre.ttf
833.184	n/a	START	416592	n/a	LTP233	ltpFR	13	n/a	n/a	n/a	n/a	n/a	n/a	n/a	n/a	n/a	n/a	n/a	n/a	n/a	n/a	n/a
834.07	n/a	PROB	417035	n/a	LTP233	ltpFR	13	n/a	n/a	n/a	n/a	n/a	n/a	10	3	2	5	n/a	n/a	n/a	n/a	n/a
835.29	n/a	PROB	417645	n/a	LTP233	ltpFR	13	n/a	n/a	n/a	n/a	n/a	n/a	11	2	3	6	n/a	n/a	n/a	n/a	n/a
836.558	n/a	PROB	418279	n/a	LTP233	ltpFR	13	n/a	n/a	n/a	n/a	n/a	n/a	11	3	3	5	n/a	n/a	n/a	n/a	n/a
837.644	n/a	PROB	418822	n/a	LTP233	ltpFR	13	n/a	n/a	n/a	n/a	n/a	n/a	13	2	7	4	n/a	n/a	n/a	n/a	n/a
839.118	n/a	PROB	419559	n/a	LTP233	ltpFR	13	n/a	n/a	n/a	n/a	n/a	n/a	10	3	3	4	n/a	n/a	n/a	n/a	n/a
840.066	n/a	STOP	420033	n/a	LTP233	ltpFR	13	n/a	n/a	n/a	n/a	n/a	n/a	n/a	n/a	n/a	n/a	n/a	n/a	n/a	n/a	n/a
842.15	n/a	WORD	421075	wordpools/wasnorm_wordpool_less_exclusions.txt	LTP233	ltpFR	13	3	1	TURKEY	1520	n/a	1	n/a	0	0	0	0	0.5869140625	0.422607421875	upper	../fonts/zerothre.ttf
845.162	n/a	START	422581	n/a	LTP233	ltpFR	13	n/a	n/a	n/a	n/a	n/a	n/a	n/a	n/a	n/a	n/a	n/a	n/a	n/a	n/a	n/a
846.3	n/a	PROB	423150	n/a	LTP233	ltpFR	13	n/a	n/a	n/a	n/a	n/a	n/a	13	8	3	2	n/a	n/a	n/a	n/a	n/a
847.27	n/a	PROB	423635	n/a	LTP233	ltpFR	13	n/a	n/a	n/a	n/a	n/a	n/a	12	9	1	2	n/a	n/a	n/a	n/a	n/a
848.658	n/a	PROB	424329	n/a	LTP233	ltpFR	13	n/a	n/a	n/a	n/a	n/a	n/a	10	4	3	3	n/a	n/a	n/a	n/a	n/a
849.742	n/a	PROB	424871	n/a	LTP233	ltpFR	13	n/a	n/a	n/a	n/a	n/a	n/a	19	7	7	5	n/a	n/a	n/a	n/a	n/a
851.98	n/a	STOP	425990	n/a	LTP233	ltpFR	13	n/a	n/a	n/a	n/a	n/a	n/a	n/a	n/a	n/a	n/a	n/a	n/a	n/a	n/a	n/a
854.13	n/a	WORD	427065	wordpools/wasnorm_wordpool_less_exclusions.txt	LTP233	ltpFR	13	3	1	PONY	1102	n/a	1	n/a	0	0	0	0	0.5869140625	0.422607421875	upper	../fonts/zerothre.ttf
857.142	n/a	START	428571	n/a	LTP233	ltpFR	13	n/a	n/a	n/a	n/a	n/a	n/a	n/a	n/a	n/a	n/a	n/a	n/a	n/a	n/a	n/a
858.028	n/a	PROB	429014	n/a	LTP233	ltpFR	13	n/a	n/a	n/a	n/a	n/a	n/a	14	9	4	1	n/a	n/a	n/a	n/a	n/a
859.9	n/a	PROB	429950	n/a	LTP233	ltpFR	13	n/a	n/a	n/a	n/a	n/a	n/a	14	3	2	9	n/a	n/a	n/a	n/a	n/a
861.118	n/a	PROB	430559	n/a	LTP233	ltpFR	13	n/a	n/a	n/a	n/a	n/a	n/a	13	9	2	2	n/a	n/a	n/a	n/a	n/a
862.34	n/a	PROB	431170	n/a	LTP233	ltpFR	13	n/a	n/a	n/a	n/a	n/a	n/a	18	7	9	2	n/a	n/a	n/a	n/a	n/a
864.524	n/a	STOP	432262	n/a	LTP233	ltpFR	13	n/a	n/a	n/a	n/a	n/a	n/a	n/a	n/a	n/a	n/a	n/a	n/a	n/a	n/a	n/a
866.024	n/a	WORD	433012	wordpools/wasnorm_wordpool_less_exclusions.txt	LTP233	ltpFR	13	3	1	HEART	697	n/a	0	n/a	0	0	0	0	0.5869140625	0.422607421875	upper	../fonts/zerothre.ttf
869.036	n/a	START	434518	n/a	LTP233	ltpFR	13	n/a	n/a	n/a	n/a	n/a	n/a	n/a	n/a	n/a	n/a	n/a	n/a	n/a	n/a	n/a
870.04	n/a	PROB	435020	n/a	LTP233	ltpFR	13	n/a	n/a	n/a	n/a	n/a	n/a	11	8	2	1	n/a	n/a	n/a	n/a	n/a
871.09	n/a	PROB	435545	n/a	LTP233	ltpFR	13	n/a	n/a	n/a	n/a	n/a	n/a	13	5	6	2	n/a	n/a	n/a	n/a	n/a
872.178	n/a	PROB	436089	n/a	LTP233	ltpFR	13	n/a	n/a	n/a	n/a	n/a	n/a	20	9	7	4	n/a	n/a	n/a	n/a	n/a
873.55	n/a	PROB	436775	n/a	LTP233	ltpFR	13	n/a	n/a	n/a	n/a	n/a	n/a	16	7	2	7	n/a	n/a	n/a	n/a	n/a
875.088	n/a	PROB	437544	n/a	LTP233	ltpFR	13	n/a	n/a	n/a	n/a	n/a	n/a	13	3	2	8	n/a	n/a	n/a	n/a	n/a
876.452	n/a	STOP	438226	n/a	LTP233	ltpFR	13	n/a	n/a	n/a	n/a	n/a	n/a	n/a	n/a	n/a	n/a	n/a	n/a	n/a	n/a	n/a
878.204	n/a	WORD	439102	wordpools/wasnorm_wordpool_less_exclusions.txt	LTP233	ltpFR	13	3	1	NET	946	n/a	0	n/a	0	0	0	0	0.5869140625	0.422607421875	upper	../fonts/zerothre.ttf
881.216	n/a	START	440608	n/a	LTP233	ltpFR	13	n/a	n/a	n/a	n/a	n/a	n/a	n/a	n/a	n/a	n/a	n/a	n/a	n/a	n/a	n/a
882.236	n/a	PROB	441118	n/a	LTP233	ltpFR	13	n/a	n/a	n/a	n/a	n/a	n/a	25	7	9	9	n/a	n/a	n/a	n/a	n/a
883.708	n/a	PROB	441854	n/a	LTP233	ltpFR	13	n/a	n/a	n/a	n/a	n/a	n/a	11	3	3	5	n/a	n/a	n/a	n/a	n/a
884.758	n/a	PROB	442379	n/a	LTP233	ltpFR	13	n/a	n/a	n/a	n/a	n/a	n/a	15	9	5	1	n/a	n/a	n/a	n/a	n/a
886.186	n/a	PROB	443093	n/a	LTP233	ltpFR	13	n/a	n/a	n/a	n/a	n/a	n/a	19	5	8	6	n/a	n/a	n/a	n/a	n/a
887.59	n/a	PROB	443795	n/a	LTP233	ltpFR	13	n/a	n/a	n/a	n/a	n/a	n/a	19	9	7	3	n/a	n/a	n/a	n/a	n/a
888.796	n/a	STOP	444398	n/a	LTP233	ltpFR	13	n/a	n/a	n/a	n/a	n/a	n/a	n/a	n/a	n/a	n/a	n/a	n/a	n/a	n/a	n/a
890.216	n/a	WORD	445108	wordpools/wasnorm_wordpool_less_exclusions.txt	LTP233	ltpFR	13	3	1	STREAM	1392	n/a	0	n/a	0	0	0	0	0.5869140625	0.422607421875	upper	../fonts/zerothre.ttf
893.228	n/a	START	446614	n/a	LTP233	ltpFR	13	n/a	n/a	n/a	n/a	n/a	n/a	n/a	n/a	n/a	n/a	n/a	n/a	n/a	n/a	n/a
894.048	n/a	PROB	447024	n/a	LTP233	ltpFR	13	n/a	n/a	n/a	n/a	n/a	n/a	21	4	9	8	n/a	n/a	n/a	n/a	n/a
895.666	n/a	PROB	447833	n/a	LTP233	ltpFR	13	n/a	n/a	n/a	n/a	n/a	n/a	19	9	7	3	n/a	n/a	n/a	n/a	n/a
897.324	n/a	PROB	448662	n/a	LTP233	ltpFR	13	n/a	n/a	n/a	n/a	n/a	n/a	16	3	5	8	n/a	n/a	n/a	n/a	n/a
898.41	n/a	PROB	449205	n/a	LTP233	ltpFR	13	n/a	n/a	n/a	n/a	n/a	n/a	19	9	7	3	n/a	n/a	n/a	n/a	n/a
899.998	n/a	STOP	449999	n/a	LTP233	ltpFR	13	n/a	n/a	n/a	n/a	n/a	n/a	n/a	n/a	n/a	n/a	n/a	n/a	n/a	n/a	n/a
902.414	n/a	WORD	451207	wordpools/wasnorm_wordpool_less_exclusions.txt	LTP233	ltpFR	13	3	1	WELL	1600	n/a	0	n/a	0	0	0	0	0.5869140625	0.422607421875	upper	../fonts/zerothre.ttf
905.426	n/a	START	452713	n/a	LTP233	ltpFR	13	n/a	n/a	n/a	n/a	n/a	n/a	n/a	n/a	n/a	n/a	n/a	n/a	n/a	n/a	n/a
906.246	n/a	PROB	453123	n/a	LTP233	ltpFR	13	n/a	n/a	n/a	n/a	n/a	n/a	11	5	2	4	n/a	n/a	n/a	n/a	n/a
907.864	n/a	PROB	453932	n/a	LTP233	ltpFR	13	n/a	n/a	n/a	n/a	n/a	n/a	13	4	6	3	n/a	n/a	n/a	n/a	n/a
908.934	n/a	PROB	454467	n/a	LTP233	ltpFR	13	n/a	n/a	n/a	n/a	n/a	n/a	23	5	9	9	n/a	n/a	n/a	n/a	n/a
910.29	n/a	PROB	455145	n/a	LTP233	ltpFR	13	n/a	n/a	n/a	n/a	n/a	n/a	14	6	1	7	n/a	n/a	n/a	n/a	n/a
911.448	n/a	PROB	455724	n/a	LTP233	ltpFR	13	n/a	n/a	n/a	n/a	n/a	n/a	19	5	5	8	n/a	n/a	n/a	n/a	n/a
912.766	n/a	STOP	456383	n/a	LTP233	ltpFR	13	n/a	n/a	n/a	n/a	n/a	n/a	n/a	n/a	n/a	n/a	n/a	n/a	n/a	n/a	n/a
914.41	n/a	WORD	457205	wordpools/wasnorm_wordpool_less_exclusions.txt	LTP233	ltpFR	13	3	1	THICKET	1455	n/a	0	n/a	0	0	0	0	0.5869140625	0.422607421875	upper	../fonts/zerothre.ttf
917.422	n/a	START	458711	n/a	LTP233	ltpFR	13	n/a	n/a	n/a	n/a	n/a	n/a	n/a	n/a	n/a	n/a	n/a	n/a	n/a	n/a	n/a
918.24	n/a	PROB	459120	n/a	LTP233	ltpFR	13	n/a	n/a	n/a	n/a	n/a	n/a	16	1	9	6	n/a	n/a	n/a	n/a	n/a
919.328	n/a	PROB	459664	n/a	LTP233	ltpFR	13	n/a	n/a	n/a	n/a	n/a	n/a	15	4	5	6	n/a	n/a	n/a	n/a	n/a
920.898	n/a	PROB	460449	n/a	LTP233	ltpFR	13	n/a	n/a	n/a	n/a	n/a	n/a	13	9	3	1	n/a	n/a	n/a	n/a	n/a
922.136	n/a	PROB	461068	n/a	LTP233	ltpFR	13	n/a	n/a	n/a	n/a	n/a	n/a	16	6	8	2	n/a	n/a	n/a	n/a	n/a
924.864	n/a	STOP	462432	n/a	LTP233	ltpFR	13	n/a	n/a	n/a	n/a	n/a	n/a	n/a	n/a	n/a	n/a	n/a	n/a	n/a	n/a	n/a
926.522	n/a	WORD	463261	wordpools/wasnorm_wordpool_less_exclusions.txt	LTP233	ltpFR	13	3	1	YARD	1630	n/a	0	n/a	0	0	0	0	0.5869140625	0.422607421875	upper	../fonts/zerothre.ttf
929.534	n/a	START	464767	n/a	LTP233	ltpFR	13	n/a	n/a	n/a	n/a	n/a	n/a	n/a	n/a	n/a	n/a	n/a	n/a	n/a	n/a	n/a
930.518	n/a	PROB	465259	n/a	LTP233	ltpFR	13	n/a	n/a	n/a	n/a	n/a	n/a	17	5	8	4	n/a	n/a	n/a	n/a	n/a
931.972	n/a	PROB	465986	n/a	LTP233	ltpFR	13	n/a	n/a	n/a	n/a	n/a	n/a	16	3	8	5	n/a	n/a	n/a	n/a	n/a
933.026	n/a	PROB	466513	n/a	LTP233	ltpFR	13	n/a	n/a	n/a	n/a	n/a	n/a	13	4	3	6	n/a	n/a	n/a	n/a	n/a
934.72	n/a	PROB	467360	n/a	LTP233	ltpFR	13	n/a	n/a	n/a	n/a	n/a	n/a	20	7	7	6	n/a	n/a	n/a	n/a	n/a
937.534	n/a	STOP	468767	n/a	LTP233	ltpFR	13	n/a	n/a	n/a	n/a	n/a	n/a	n/a	n/a	n/a	n/a	n/a	n/a	n/a	n/a	n/a
938.602	n/a	WORD	469301	wordpools/wasnorm_wordpool_less_exclusions.txt	LTP233	ltpFR	13	3	1	DONOR	485	n/a	0	n/a	0	0	0	0	0.5869140625	0.422607421875	upper	../fonts/zerothre.ttf
941.614	n/a	START	470807	n/a	LTP233	ltpFR	13	n/a	n/a	n/a	n/a	n/a	n/a	n/a	n/a	n/a	n/a	n/a	n/a	n/a	n/a	n/a
942.616	n/a	PROB	471308	n/a	LTP233	ltpFR	13	n/a	n/a	n/a	n/a	n/a	n/a	9	1	3	5	n/a	n/a	n/a	n/a	n/a
943.7	n/a	PROB	471850	n/a	LTP233	ltpFR	13	n/a	n/a	n/a	n/a	n/a	n/a	20	6	8	6	n/a	n/a	n/a	n/a	n/a
945.11	n/a	PROB	472555	n/a	LTP233	ltpFR	13	n/a	n/a	n/a	n/a	n/a	n/a	14	4	3	7	n/a	n/a	n/a	n/a	n/a
946.782	n/a	PROB	473391	n/a	LTP233	ltpFR	13	n/a	n/a	n/a	n/a	n/a	n/a	24	9	7	8	n/a	n/a	n/a	n/a	n/a
948.144	n/a	STOP	474072	n/a	LTP233	ltpFR	13	n/a	n/a	n/a	n/a	n/a	n/a	n/a	n/a	n/a	n/a	n/a	n/a	n/a	n/a	n/a
950.53	n/a	WORD	475265	wordpools/wasnorm_wordpool_less_exclusions.txt	LTP233	ltpFR	13	3	1	PAD	998	n/a	0	n/a	0	0	0	0	0.5869140625	0.422607421875	upper	../fonts/zerothre.ttf
953.542	n/a	START	476771	n/a	LTP233	ltpFR	13	n/a	n/a	n/a	n/a	n/a	n/a	n/a	n/a	n/a	n/a	n/a	n/a	n/a	n/a	n/a
954.508	n/a	PROB	477254	n/a	LTP233	ltpFR	13	n/a	n/a	n/a	n/a	n/a	n/a	17	8	4	5	n/a	n/a	n/a	n/a	n/a
957.152	n/a	PROB	478576	n/a	LTP233	ltpFR	13	n/a	n/a	n/a	n/a	n/a	n/a	18	8	1	9	n/a	n/a	n/a	n/a	n/a
958.662	n/a	PROB	479331	n/a	LTP233	ltpFR	13	n/a	n/a	n/a	n/a	n/a	n/a	16	5	6	5	n/a	n/a	n/a	n/a	n/a
959.862	n/a	PROB	479931	n/a	LTP233	ltpFR	13	n/a	n/a	n/a	n/a	n/a	n/a	10	3	6	1	n/a	n/a	n/a	n/a	n/a
961.01	n/a	STOP	480505	n/a	LTP233	ltpFR	13	n/a	n/a	n/a	n/a	n/a	n/a	n/a	n/a	n/a	n/a	n/a	n/a	n/a	n/a	n/a
962.544	n/a	WORD	481272	wordpools/wasnorm_wordpool_less_exclusions.txt	LTP233	ltpFR	13	3	1	DUCK	504	n/a	1	n/a	0	0	0	0	0.5869140625	0.422607421875	upper	../fonts/zerothre.ttf
965.556	n/a	START	482778	n/a	LTP233	ltpFR	13	n/a	n/a	n/a	n/a	n/a	n/a	n/a	n/a	n/a	n/a	n/a	n/a	n/a	n/a	n/a
966.424	n/a	PROB	483212	n/a	LTP233	ltpFR	13	n/a	n/a	n/a	n/a	n/a	n/a	17	1	8	8	n/a	n/a	n/a	n/a	n/a
967.858	n/a	PROB	483929	n/a	LTP233	ltpFR	13	n/a	n/a	n/a	n/a	n/a	n/a	25	8	9	8	n/a	n/a	n/a	n/a	n/a
969.75	n/a	PROB	484875	n/a	LTP233	ltpFR	13	n/a	n/a	n/a	n/a	n/a	n/a	15	6	3	6	n/a	n/a	n/a	n/a	n/a
971.106	n/a	PROB	485553	n/a	LTP233	ltpFR	13	n/a	n/a	n/a	n/a	n/a	n/a	15	2	8	5	n/a	n/a	n/a	n/a	n/a
972.202	n/a	STOP	486101	n/a	LTP233	ltpFR	13	n/a	n/a	n/a	n/a	n/a	n/a	n/a	n/a	n/a	n/a	n/a	n/a	n/a	n/a	n/a
974.456	n/a	WORD	487228	wordpools/wasnorm_wordpool_less_exclusions.txt	LTP233	ltpFR	13	3	1	SEA	1259	n/a	0	n/a	0	0	0	0	0.5869140625	0.422607421875	upper	../fonts/zerothre.ttf
977.468	n/a	START	488734	n/a	LTP233	ltpFR	13	n/a	n/a	n/a	n/a	n/a	n/a	n/a	n/a	n/a	n/a	n/a	n/a	n/a	n/a	n/a
978.288	n/a	PROB	489144	n/a	LTP233	ltpFR	13	n/a	n/a	n/a	n/a	n/a	n/a	19	8	2	9	n/a	n/a	n/a	n/a	n/a
979.354	n/a	PROB	489677	n/a	LTP233	ltpFR	13	n/a	n/a	n/a	n/a	n/a	n/a	18	6	9	3	n/a	n/a	n/a	n/a	n/a
980.812	n/a	PROB	490406	n/a	LTP233	ltpFR	13	n/a	n/a	n/a	n/a	n/a	n/a	11	1	1	9	n/a	n/a	n/a	n/a	n/a
982.048	n/a	PROB	491024	n/a	LTP233	ltpFR	13	n/a	n/a	n/a	n/a	n/a	n/a	13	2	7	4	n/a	n/a	n/a	n/a	n/a
983.34	n/a	PROB	491670	n/a	LTP233	ltpFR	13	n/a	n/a	n/a	n/a	n/a	n/a	11	1	7	3	n/a	n/a	n/a	n/a	n/a
984.29	n/a	STOP	492145	n/a	LTP233	ltpFR	13	n/a	n/a	n/a	n/a	n/a	n/a	n/a	n/a	n/a	n/a	n/a	n/a	n/a	n/a	n/a
986.618	n/a	WORD	493309	wordpools/wasnorm_wordpool_less_exclusions.txt	LTP233	ltpFR	13	3	1	FLIPPER	580	n/a	0	n/a	0	0	0	0	0.5869140625	0.422607421875	upper	../fonts/zerothre.ttf
989.63	n/a	START	494815	n/a	LTP233	ltpFR	13	n/a	n/a	n/a	n/a	n/a	n/a	n/a	n/a	n/a	n/a	n/a	n/a	n/a	n/a	n/a
990.564	n/a	PROB	495282	n/a	LTP233	ltpFR	13	n/a	n/a	n/a	n/a	n/a	n/a	15	5	5	5	n/a	n/a	n/a	n/a	n/a
991.366	n/a	PROB	495683	n/a	LTP233	ltpFR	13	n/a	n/a	n/a	n/a	n/a	n/a	19	9	2	8	n/a	n/a	n/a	n/a	n/a
992.588	n/a	PROB	496294	n/a	LTP233	ltpFR	13	n/a	n/a	n/a	n/a	n/a	n/a	8	3	1	4	n/a	n/a	n/a	n/a	n/a
993.592	n/a	PROB	496796	n/a	LTP233	ltpFR	13	n/a	n/a	n/a	n/a	n/a	n/a	15	8	4	3	n/a	n/a	n/a	n/a	n/a
994.694	n/a	PROB	497347	n/a	LTP233	ltpFR	13	n/a	n/a	n/a	n/a	n/a	n/a	16	9	6	1	n/a	n/a	n/a	n/a	n/a
995.85	n/a	PROB	497925	n/a	LTP233	ltpFR	13	n/a	n/a	n/a	n/a	n/a	n/a	19	8	9	2	n/a	n/a	n/a	n/a	n/a
997.228	n/a	STOP	498614	n/a	LTP233	ltpFR	13	n/a	n/a	n/a	n/a	n/a	n/a	n/a	n/a	n/a	n/a	n/a	n/a	n/a	n/a	n/a
998.678	n/a	WORD	499339	wordpools/wasnorm_wordpool_less_exclusions.txt	LTP233	ltpFR	13	3	1	DOLPHIN	483	n/a	1	n/a	0	0	0	0	0.5869140625	0.422607421875	upper	../fonts/zerothre.ttf
1001.692	n/a	START	500846	n/a	LTP233	ltpFR	13	n/a	n/a	n/a	n/a	n/a	n/a	n/a	n/a	n/a	n/a	n/a	n/a	n/a	n/a	n/a
1002.542	n/a	PROB	501271	n/a	LTP233	ltpFR	13	n/a	n/a	n/a	n/a	n/a	n/a	15	1	6	8	n/a	n/a	n/a	n/a	n/a
1003.564	n/a	PROB	501782	n/a	LTP233	ltpFR	13	n/a	n/a	n/a	n/a	n/a	n/a	9	1	4	4	n/a	n/a	n/a	n/a	n/a
1004.784	n/a	PROB	502392	n/a	LTP233	ltpFR	13	n/a	n/a	n/a	n/a	n/a	n/a	17	5	3	9	n/a	n/a	n/a	n/a	n/a
1006.072	n/a	PROB	503036	n/a	LTP233	ltpFR	13	n/a	n/a	n/a	n/a	n/a	n/a	21	7	7	7	n/a	n/a	n/a	n/a	n/a
1007.328	n/a	PROB	503664	n/a	LTP233	ltpFR	13	n/a	n/a	n/a	n/a	n/a	n/a	16	9	1	6	n/a	n/a	n/a	n/a	n/a
1008.308	n/a	STOP	504154	n/a	LTP233	ltpFR	13	n/a	n/a	n/a	n/a	n/a	n/a	n/a	n/a	n/a	n/a	n/a	n/a	n/a	n/a	n/a
1011.514	n/a	REC_START	505757	n/a	LTP233	ltpFR	13	3	n/a	n/a	n/a	n/a	n/a	n/a	0	0	0	n/a	n/a	n/a	n/a	n/a
1014.922	n/a	REC_WORD	507461	wordpools/wasnorm_wordpool_less_exclusions.txt	LTP233	ltpFR	13	3	1	SEA	1259	n/a	0	n/a	0	0	0	n/a	n/a	n/a	n/a	n/a
1015.936	n/a	REC_WORD	507968	wordpools/wasnorm_wordpool_less_exclusions.txt	LTP233	ltpFR	13	3	1	STREAM	1392	n/a	0	n/a	0	0	0	n/a	n/a	n/a	n/a	n/a
1018.61	n/a	REC_WORD	509305	wordpools/wasnorm_wordpool_less_exclusions.txt	LTP233	ltpFR	13	3	1	WELL	1600	n/a	0	n/a	0	0	0	n/a	n/a	n/a	n/a	n/a
1019.536	n/a	REC_WORD	509768	wordpools/wasnorm_wordpool_less_exclusions.txt	LTP233	ltpFR	13	3	1	THICKET	1455	n/a	0	n/a	0	0	0	n/a	n/a	n/a	n/a	n/a
1022.176	n/a	REC_WORD	511088	wordpools/wasnorm_wordpool_less_exclusions.txt	LTP233	ltpFR	13	3	1	YARD	1630	n/a	0	n/a	0	0	0	n/a	n/a	n/a	n/a	n/a
1023.932	n/a	REC_WORD	511966	wordpools/wasnorm_wordpool_less_exclusions.txt	LTP233	ltpFR	13	3	1	DONOR	485	n/a	0	n/a	0	0	0	n/a	n/a	n/a	n/a	n/a
1025.318	n/a	REC_WORD	512659	wordpools/wasnorm_wordpool_less_exclusions.txt	LTP233	ltpFR	13	3	1	HEART	697	n/a	0	n/a	0	0	0	n/a	n/a	n/a	n/a	n/a
1026.72	n/a	REC_WORD	513360	wordpools/wasnorm_wordpool_less_exclusions.txt	LTP233	ltpFR	13	3	1	TURKEY	1520	n/a	1	n/a	0	0	0	n/a	n/a	n/a	n/a	n/a
1027.824	n/a	REC_WORD	513912	wordpools/wasnorm_wordpool_less_exclusions.txt	LTP233	ltpFR	13	3	1	PONY	1102	n/a	1	n/a	0	0	0	n/a	n/a	n/a	n/a	n/a
1029.016	n/a	REC_WORD	514508	wordpools/wasnorm_wordpool_less_exclusions.txt	LTP233	ltpFR	13	3	1	DESSERT	453	n/a	0	n/a	0	0	0	n/a	n/a	n/a	n/a	n/a
1030.202	n/a	REC_WORD	515101	wordpools/wasnorm_wordpool_less_exclusions.txt	LTP233	ltpFR	13	3	1	ORNAMENT	985	n/a	0	n/a	0	0	0	n/a	n/a	n/a	n/a	n/a
1032.988	n/a	REC_WORD	516494	wordpools/wasnorm_wordpool_less_exclusions.txt	LTP233	ltpFR	13	3	1	NET	946	n/a	0	n/a	0	0	0	n/a	n/a	n/a	n/a	n/a
1037.762	n/a	REC_WORD	518881	wordpools/wasnorm_wordpool_less_exclusions.txt	LTP233	ltpFR	13	3	1	DUCK	504	n/a	1	n/a	0	0	0	n/a	n/a	n/a	n/a	n/a
1089.676	n/a	START	544838	n/a	LTP233	ltpFR	13	n/a	n/a	n/a	n/a	n/a	n/a	n/a	n/a	n/a	n/a	n/a	n/a	n/a	n/a	n/a
1091.186	n/a	PROB	545593	n/a	LTP233	ltpFR	13	n/a	n/a	n/a	n/a	n/a	n/a	11	4	4	3	n/a	n/a	n/a	n/a	n/a
1092.47	n/a	PROB	546235	n/a	LTP233	ltpFR	13	n/a	n/a	n/a	n/a	n/a	n/a	12	6	2	3	n/a	n/a	n/a	n/a	n/a
1093.996	n/a	PROB	546998	n/a	LTP233	ltpFR	13	n/a	n/a	n/a	n/a	n/a	n/a	7	1	5	1	n/a	n/a	n/a	n/a	n/a
1095.364	n/a	PROB	547682	n/a	LTP233	ltpFR	13	n/a	n/a	n/a	n/a	n/a	n/a	19	8	9	2	n/a	n/a	n/a	n/a	n/a
1096.652	n/a	PROB	548326	n/a	LTP233	ltpFR	13	n/a	n/a	n/a	n/a	n/a	n/a	13	3	7	3	n/a	n/a	n/a	n/a	n/a
1097.706	n/a	PROB	548853	n/a	LTP233	ltpFR	13	n/a	n/a	n/a	n/a	n/a	n/a	9	5	3	1	n/a	n/a	n/a	n/a	n/a
1098.86	n/a	PROB	549430	n/a	LTP233	ltpFR	13	n/a	n/a	n/a	n/a	n/a	n/a	15	3	8	4	n/a	n/a	n/a	n/a	n/a
1100.336	n/a	PROB	550168	n/a	LTP233	ltpFR	13	n/a	n/a	n/a	n/a	n/a	n/a	15	2	4	9	n/a	n/a	n/a	n/a	n/a
1101.386	n/a	PROB	550693	n/a	LTP233	ltpFR	13	n/a	n/a	n/a	n/a	n/a	n/a	17	2	7	8	n/a	n/a	n/a	n/a	n/a
1102.674	n/a	PROB	551337	n/a	LTP233	ltpFR	13	n/a	n/a	n/a	n/a	n/a	n/a	8	1	5	2	n/a	n/a	n/a	n/a	n/a
1103.946	n/a	PROB	551973	n/a	LTP233	ltpFR	13	n/a	n/a	n/a	n/a	n/a	n/a	16	5	9	1	n/a	n/a	n/a	n/a	n/a
1105.384	n/a	STOP	552692	n/a	LTP233	ltpFR	13	n/a	n/a	n/a	n/a	n/a	n/a	n/a	n/a	n/a	n/a	n/a	n/a	n/a	n/a	n/a
1106.676	n/a	WORD	553338	wordpools/wasnorm_wordpool_less_exclusions.txt	LTP233	ltpFR	13	4	1	LENS	811	n/a	0	n/a	0	0	0	0	0.5869140625	0.422607421875	upper	../fonts/zerothre.ttf
1109.688	n/a	START	554844	n/a	LTP233	ltpFR	13	n/a	n/a	n/a	n/a	n/a	n/a	n/a	n/a	n/a	n/a	n/a	n/a	n/a	n/a	n/a
1110.776	n/a	PROB	555388	n/a	LTP233	ltpFR	13	n/a	n/a	n/a	n/a	n/a	n/a	21	8	9	4	n/a	n/a	n/a	n/a	n/a
1112.028	n/a	PROB	556014	n/a	LTP233	ltpFR	13	n/a	n/a	n/a	n/a	n/a	n/a	14	3	5	6	n/a	n/a	n/a	n/a	n/a
1113.584	n/a	PROB	556792	n/a	LTP233	ltpFR	13	n/a	n/a	n/a	n/a	n/a	n/a	14	4	6	4	n/a	n/a	n/a	n/a	n/a
1115.04	n/a	PROB	557520	n/a	LTP233	ltpFR	13	n/a	n/a	n/a	n/a	n/a	n/a	21	5	8	8	n/a	n/a	n/a	n/a	n/a
1118.07	n/a	PROB	559035	n/a	LTP233	ltpFR	13	n/a	n/a	n/a	n/a	n/a	n/a	56	4	2	1	n/a	n/a	n/a	n/a	n/a
1119.89	n/a	PROB	559945	n/a	LTP233	ltpFR	13	n/a	n/a	n/a	n/a	n/a	n/a	12	4	4	4	n/a	n/a	n/a	n/a	n/a
1121.012	n/a	PROB	560506	n/a	LTP233	ltpFR	13	n/a	n/a	n/a	n/a	n/a	n/a	8	3	4	1	n/a	n/a	n/a	n/a	n/a
1122.186	n/a	PROB	561093	n/a	LTP233	ltpFR	13	n/a	n/a	n/a	n/a	n/a	n/a	11	5	3	3	n/a	n/a	n/a	n/a	n/a
1123.308	n/a	PROB	561654	n/a	LTP233	ltpFR	13	n/a	n/a	n/a	n/a	n/a	n/a	16	4	5	7	n/a	n/a	n/a	n/a	n/a
1124.562	n/a	STOP	562281	n/a	LTP233	ltpFR	13	n/a	n/a	n/a	n/a	n/a	n/a	n/a	n/a	n/a	n/a	n/a	n/a	n/a	n/a	n/a
1126.686	n/a	WORD	563343	wordpools/wasnorm_wordpool_less_exclusions.txt	LTP233	ltpFR	13	4	1	EUROPE	541	n/a	0	n/a	0	0	0	0	0.5869140625	0.422607421875	upper	../fonts/zerothre.ttf
1129.698	n/a	START	564849	n/a	LTP233	ltpFR	13	n/a	n/a	n/a	n/a	n/a	n/a	n/a	n/a	n/a	n/a	n/a	n/a	n/a	n/a	n/a
1130.786	n/a	PROB	565393	n/a	LTP233	ltpFR	13	n/a	n/a	n/a	n/a	n/a	n/a	14	8	2	4	n/a	n/a	n/a	n/a	n/a
1132.072	n/a	PROB	566036	n/a	LTP233	ltpFR	13	n/a	n/a	n/a	n/a	n/a	n/a	1	8	1	7	n/a	n/a	n/a	n/a	n/a
1133.258	n/a	PROB	566629	n/a	LTP233	ltpFR	13	n/a	n/a	n/a	n/a	n/a	n/a	14	5	8	1	n/a	n/a	n/a	n/a	n/a
1135.684	n/a	PROB	567842	n/a	LTP233	ltpFR	13	n/a	n/a	n/a	n/a	n/a	n/a	1	7	2	3	n/a	n/a	n/a	n/a	n/a
1136.772	n/a	PROB	568386	n/a	LTP233	ltpFR	13	n/a	n/a	n/a	n/a	n/a	n/a	18	5	8	5	n/a	n/a	n/a	n/a	n/a
1139.014	n/a	PROB	569507	n/a	LTP233	ltpFR	13	n/a	n/a	n/a	n/a	n/a	n/a	14	1	8	5	n/a	n/a	n/a	n/a	n/a
1140.102	n/a	PROB	570051	n/a	LTP233	ltpFR	13	n/a	n/a	n/a	n/a	n/a	n/a	21	5	9	7	n/a	n/a	n/a	n/a	n/a
1141.444	n/a	PROB	570722	n/a	LTP233	ltpFR	13	n/a	n/a	n/a	n/a	n/a	n/a	18	7	2	9	n/a	n/a	n/a	n/a	n/a
1142.598	n/a	PROB	571299	n/a	LTP233	ltpFR	13	n/a	n/a	n/a	n/a	n/a	n/a	14	3	6	5	n/a	n/a	n/a	n/a	n/a
1144.016	n/a	PROB	572008	n/a	LTP233	ltpFR	13	n/a	n/a	n/a	n/a	n/a	n/a	13	6	6	3	n/a	n/a	n/a	n/a	n/a
1145.17	n/a	STOP	572585	n/a	LTP233	ltpFR	13	n/a	n/a	n/a	n/a	n/a	n/a	n/a	n/a	n/a	n/a	n/a	n/a	n/a	n/a	n/a
1146.796	n/a	WORD	573398	wordpools/wasnorm_wordpool_less_exclusions.txt	LTP233	ltpFR	13	4	1	COMPANION	357	n/a	1	n/a	0	0	0	0	0.5869140625	0.422607421875	upper	../fonts/zerothre.ttf
1149.808	n/a	START	574904	n/a	LTP233	ltpFR	13	n/a	n/a	n/a	n/a	n/a	n/a	n/a	n/a	n/a	n/a	n/a	n/a	n/a	n/a	n/a
1150.742	n/a	PROB	575371	n/a	LTP233	ltpFR	13	n/a	n/a	n/a	n/a	n/a	n/a	13	7	3	3	n/a	n/a	n/a	n/a	n/a
1151.616	n/a	PROB	575808	n/a	LTP233	ltpFR	13	n/a	n/a	n/a	n/a	n/a	n/a	20	8	8	4	n/a	n/a	n/a	n/a	n/a
1153.222	n/a	PROB	576611	n/a	LTP233	ltpFR	13	n/a	n/a	n/a	n/a	n/a	n/a	16	8	3	5	n/a	n/a	n/a	n/a	n/a
1154.256	n/a	PROB	577128	n/a	LTP233	ltpFR	13	n/a	n/a	n/a	n/a	n/a	n/a	10	2	3	5	n/a	n/a	n/a	n/a	n/a
1155.464	n/a	PROB	577732	n/a	LTP233	ltpFR	13	n/a	n/a	n/a	n/a	n/a	n/a	18	7	5	6	n/a	n/a	n/a	n/a	n/a
1156.748	n/a	PROB	578374	n/a	LTP233	ltpFR	13	n/a	n/a	n/a	n/a	n/a	n/a	11	2	3	6	n/a	n/a	n/a	n/a	n/a
1157.974	n/a	PROB	578987	n/a	LTP233	ltpFR	13	n/a	n/a	n/a	n/a	n/a	n/a	15	3	8	2	n/a	n/a	n/a	n/a	n/a
1159.374	n/a	PROB	579687	n/a	LTP233	ltpFR	13	n/a	n/a	n/a	n/a	n/a	n/a	12	9	2	1	n/a	n/a	n/a	n/a	n/a
1160.83	n/a	PROB	580415	n/a	LTP233	ltpFR	13	n/a	n/a	n/a	n/a	n/a	n/a	9	2	3	4	n/a	n/a	n/a	n/a	n/a
1162.102	n/a	PROB	581051	n/a	LTP233	ltpFR	13	n/a	n/a	n/a	n/a	n/a	n/a	17	4	6	7	n/a	n/a	n/a	n/a	n/a
1163.406	n/a	PROB	581703	n/a	LTP233	ltpFR	13	n/a	n/a	n/a	n/a	n/a	n/a	21	5	7	9	n/a	n/a	n/a	n/a	n/a
1164.666	n/a	STOP	582333	n/a	LTP233	ltpFR	13	n/a	n/a	n/a	n/a	n/a	n/a	n/a	n/a	n/a	n/a	n/a	n/a	n/a	n/a	n/a
1166.924	n/a	WORD	583462	wordpools/wasnorm_wordpool_less_exclusions.txt	LTP233	ltpFR	13	4	0	TOURIST	1488	n/a	0	n/a	0	0	0	1	0.412841796875	0.57763671875	lower	../fonts/amplitud.ttf
1169.936	n/a	START	584968	n/a	LTP233	ltpFR	13	n/a	n/a	n/a	n/a	n/a	n/a	n/a	n/a	n/a	n/a	n/a	n/a	n/a	n/a	n/a
1170.89	n/a	PROB	585445	n/a	LTP233	ltpFR	13	n/a	n/a	n/a	n/a	n/a	n/a	21	6	9	6	n/a	n/a	n/a	n/a	n/a
1172.094	n/a	PROB	586047	n/a	LTP233	ltpFR	13	n/a	n/a	n/a	n/a	n/a	n/a	21	9	4	8	n/a	n/a	n/a	n/a	n/a
1173.496	n/a	PROB	586748	n/a	LTP233	ltpFR	13	n/a	n/a	n/a	n/a	n/a	n/a	17	2	8	7	n/a	n/a	n/a	n/a	n/a
1174.5	n/a	PROB	587250	n/a	LTP233	ltpFR	13	n/a	n/a	n/a	n/a	n/a	n/a	18	9	5	4	n/a	n/a	n/a	n/a	n/a
1177.01	n/a	PROB	588505	n/a	LTP233	ltpFR	13	n/a	n/a	n/a	n/a	n/a	n/a	14	8	5	1	n/a	n/a	n/a	n/a	n/a
1178.2	n/a	PROB	589100	n/a	LTP233	ltpFR	13	n/a	n/a	n/a	n/a	n/a	n/a	23	8	9	6	n/a	n/a	n/a	n/a	n/a
1179.856	n/a	PROB	589928	n/a	LTP233	ltpFR	13	n/a	n/a	n/a	n/a	n/a	n/a	16	7	5	4	n/a	n/a	n/a	n/a	n/a
1181.178	n/a	PROB	590589	n/a	LTP233	ltpFR	13	n/a	n/a	n/a	n/a	n/a	n/a	25	6	8	9	n/a	n/a	n/a	n/a	n/a
1183.086	n/a	PROB	591543	n/a	LTP233	ltpFR	13	n/a	n/a	n/a	n/a	n/a	n/a	18	5	7	7	n/a	n/a	n/a	n/a	n/a
1184.542	n/a	STOP	592271	n/a	LTP233	ltpFR	13	n/a	n/a	n/a	n/a	n/a	n/a	n/a	n/a	n/a	n/a	n/a	n/a	n/a	n/a	n/a
1186.846	n/a	WORD	593423	wordpools/wasnorm_wordpool_less_exclusions.txt	LTP233	ltpFR	13	4	0	WART	1590	n/a	0	n/a	0	0	0	1	0.412841796875	0.57763671875	lower	../fonts/amplitud.ttf
1189.862	n/a	START	594931	n/a	LTP233	ltpFR	13	n/a	n/a	n/a	n/a	n/a	n/a	n/a	n/a	n/a	n/a	n/a	n/a	n/a	n/a	n/a
1190.814	n/a	PROB	595407	n/a	LTP233	ltpFR	13	n/a	n/a	n/a	n/a	n/a	n/a	18	2	8	8	n/a	n/a	n/a	n/a	n/a
1192.168	n/a	PROB	596084	n/a	LTP233	ltpFR	13	n/a	n/a	n/a	n/a	n/a	n/a	8	1	2	5	n/a	n/a	n/a	n/a	n/a
1193.376	n/a	PROB	596688	n/a	LTP233	ltpFR	13	n/a	n/a	n/a	n/a	n/a	n/a	9	3	1	5	n/a	n/a	n/a	n/a	n/a
1194.56	n/a	PROB	597280	n/a	LTP233	ltpFR	13	n/a	n/a	n/a	n/a	n/a	n/a	16	6	8	2	n/a	n/a	n/a	n/a	n/a
1196.266	n/a	PROB	598133	n/a	LTP233	ltpFR	13	n/a	n/a	n/a	n/a	n/a	n/a	8	1	5	2	n/a	n/a	n/a	n/a	n/a
1197.304	n/a	PROB	598652	n/a	LTP233	ltpFR	13	n/a	n/a	n/a	n/a	n/a	n/a	20	6	6	8	n/a	n/a	n/a	n/a	n/a
1198.494	n/a	PROB	599247	n/a	LTP233	ltpFR	13	n/a	n/a	n/a	n/a	n/a	n/a	15	5	7	2	n/a	n/a	n/a	n/a	n/a
1199.712	n/a	PROB	599856	n/a	LTP233	ltpFR	13	n/a	n/a	n/a	n/a	n/a	n/a	16	8	7	1	n/a	n/a	n/a	n/a	n/a
1201.172	n/a	PROB	600586	n/a	LTP233	ltpFR	13	n/a	n/a	n/a	n/a	n/a	n/a	18	8	3	7	n/a	n/a	n/a	n/a	n/a
1202.208	n/a	PROB	601104	n/a	LTP233	ltpFR	13	n/a	n/a	n/a	n/a	n/a	n/a	5	2	2	3	n/a	n/a	n/a	n/a	n/a
1203.142	n/a	PROB	601571	n/a	LTP233	ltpFR	13	n/a	n/a	n/a	n/a	n/a	n/a	17	6	8	3	n/a	n/a	n/a	n/a	n/a
1205.286	n/a	STOP	602643	n/a	LTP233	ltpFR	13	n/a	n/a	n/a	n/a	n/a	n/a	n/a	n/a	n/a	n/a	n/a	n/a	n/a	n/a	n/a
1207.012	n/a	WORD	603506	wordpools/wasnorm_wordpool_less_exclusions.txt	LTP233	ltpFR	13	4	0	CUPBOARD	425	n/a	1	n/a	0	0	0	1	0.412841796875	0.57763671875	lower	../fonts/amplitud.ttf
1210.024	n/a	START	605012	n/a	LTP233	ltpFR	13	n/a	n/a	n/a	n/a	n/a	n/a	n/a	n/a	n/a	n/a	n/a	n/a	n/a	n/a	n/a
1211.24	n/a	PROB	605620	n/a	LTP233	ltpFR	13	n/a	n/a	n/a	n/a	n/a	n/a	10	2	7	1	n/a	n/a	n/a	n/a	n/a
1212.662	n/a	PROB	606331	n/a	LTP233	ltpFR	13	n/a	n/a	n/a	n/a	n/a	n/a	15	4	8	3	n/a	n/a	n/a	n/a	n/a
1213.848	n/a	PROB	606924	n/a	LTP233	ltpFR	13	n/a	n/a	n/a	n/a	n/a	n/a	25	7	9	9	n/a	n/a	n/a	n/a	n/a
1215.208	n/a	PROB	607604	n/a	LTP233	ltpFR	13	n/a	n/a	n/a	n/a	n/a	n/a	13	3	5	5	n/a	n/a	n/a	n/a	n/a
1218.316	n/a	PROB	609158	n/a	LTP233	ltpFR	13	n/a	n/a	n/a	n/a	n/a	n/a	19	7	8	6	n/a	n/a	n/a	n/a	n/a
1219.922	n/a	PROB	609961	n/a	LTP233	ltpFR	13	n/a	n/a	n/a	n/a	n/a	n/a	22	8	6	8	n/a	n/a	n/a	n/a	n/a
1221.528	n/a	PROB	610764	n/a	LTP233	ltpFR	13	n/a	n/a	n/a	n/a	n/a	n/a	13	5	4	4	n/a	n/a	n/a	n/a	n/a
1222.634	n/a	PROB	611317	n/a	LTP233	ltpFR	13	n/a	n/a	n/a	n/a	n/a	n/a	13	6	2	5	n/a	n/a	n/a	n/a	n/a
1223.854	n/a	PROB	611927	n/a	LTP233	ltpFR	13	n/a	n/a	n/a	n/a	n/a	n/a	10	2	2	6	n/a	n/a	n/a	n/a	n/a
1224.88	n/a	STOP	612440	n/a	LTP233	ltpFR	13	n/a	n/a	n/a	n/a	n/a	n/a	n/a	n/a	n/a	n/a	n/a	n/a	n/a	n/a	n/a
1227.188	n/a	WORD	613594	wordpools/wasnorm_wordpool_less_exclusions.txt	LTP233	ltpFR	13	4	0	CHEF	290	n/a	1	n/a	0	0	0	1	0.412841796875	0.57763671875	lower	../fonts/amplitud.ttf
1230.2	n/a	START	615100	n/a	LTP233	ltpFR	13	n/a	n/a	n/a	n/a	n/a	n/a	n/a	n/a	n/a	n/a	n/a	n/a	n/a	n/a	n/a
1231.17	n/a	PROB	615585	n/a	LTP233	ltpFR	13	n/a	n/a	n/a	n/a	n/a	n/a	15	6	6	3	n/a	n/a	n/a	n/a	n/a
1232.308	n/a	PROB	616154	n/a	LTP233	ltpFR	13	n/a	n/a	n/a	n/a	n/a	n/a	12	3	4	5	n/a	n/a	n/a	n/a	n/a
1233.492	n/a	PROB	616746	n/a	LTP233	ltpFR	13	n/a	n/a	n/a	n/a	n/a	n/a	20	6	9	5	n/a	n/a	n/a	n/a	n/a
1235.666	n/a	PROB	617833	n/a	LTP233	ltpFR	13	n/a	n/a	n/a	n/a	n/a	n/a	14	3	8	3	n/a	n/a	n/a	n/a	n/a
1237.322	n/a	PROB	618661	n/a	LTP233	ltpFR	13	n/a	n/a	n/a	n/a	n/a	n/a	21	5	9	9	n/a	n/a	n/a	n/a	n/a
1238.782	n/a	PROB	619391	n/a	LTP233	ltpFR	13	n/a	n/a	n/a	n/a	n/a	n/a	16	9	3	4	n/a	n/a	n/a	n/a	n/a
1240.756	n/a	PROB	620378	n/a	LTP233	ltpFR	13	n/a	n/a	n/a	n/a	n/a	n/a	14	2	5	7	n/a	n/a	n/a	n/a	n/a
1241.89	n/a	PROB	620945	n/a	LTP233	ltpFR	13	n/a	n/a	n/a	n/a	n/a	n/a	15	5	5	5	n/a	n/a	n/a	n/a	n/a
1242.814	n/a	PROB	621407	n/a	LTP233	ltpFR	13	n/a	n/a	n/a	n/a	n/a	n/a	12	6	5	1	n/a	n/a	n/a	n/a	n/a
1243.966	n/a	PROB	621983	n/a	LTP233	ltpFR	13	n/a	n/a	n/a	n/a	n/a	n/a	19	4	7	8	n/a	n/a	n/a	n/a	n/a
1245.512	n/a	STOP	622756	n/a	LTP233	ltpFR	13	n/a	n/a	n/a	n/a	n/a	n/a	n/a	n/a	n/a	n/a	n/a	n/a	n/a	n/a	n/a
1247.416	n/a	WORD	623708	wordpools/wasnorm_wordpool_less_exclusions.txt	LTP233	ltpFR	13	4	1	PIER	1063	n/a	0	n/a	0	0	0	0	0.5869140625	0.422607421875	upper	../fonts/zerothre.ttf
1250.428	n/a	START	625214	n/a	LTP233	ltpFR	13	n/a	n/a	n/a	n/a	n/a	n/a	n/a	n/a	n/a	n/a	n/a	n/a	n/a	n/a	n/a
1251.598	n/a	PROB	625799	n/a	LTP233	ltpFR	13	n/a	n/a	n/a	n/a	n/a	n/a	14	3	6	5	n/a	n/a	n/a	n/a	n/a
1253.684	n/a	PROB	626842	n/a	LTP233	ltpFR	13	n/a	n/a	n/a	n/a	n/a	n/a	13	3	4	6	n/a	n/a	n/a	n/a	n/a
1255.194	n/a	PROB	627597	n/a	LTP233	ltpFR	13	n/a	n/a	n/a	n/a	n/a	n/a	11	1	2	8	n/a	n/a	n/a	n/a	n/a
1256.244	n/a	PROB	628122	n/a	LTP233	ltpFR	13	n/a	n/a	n/a	n/a	n/a	n/a	17	8	7	2	n/a	n/a	n/a	n/a	n/a
1257.604	n/a	PROB	628802	n/a	LTP233	ltpFR	13	n/a	n/a	n/a	n/a	n/a	n/a	10	1	7	2	n/a	n/a	n/a	n/a	n/a
1258.774	n/a	PROB	629387	n/a	LTP233	ltpFR	13	n/a	n/a	n/a	n/a	n/a	n/a	24	9	9	8	n/a	n/a	n/a	n/a	n/a
1261.316	n/a	PROB	630658	n/a	LTP233	ltpFR	13	n/a	n/a	n/a	n/a	n/a	n/a	16	9	2	5	n/a	n/a	n/a	n/a	n/a
1263.61	n/a	PROB	631805	n/a	LTP233	ltpFR	13	n/a	n/a	n/a	n/a	n/a	n/a	13	2	9	2	n/a	n/a	n/a	n/a	n/a
1264.898	n/a	STOP	632449	n/a	LTP233	ltpFR	13	n/a	n/a	n/a	n/a	n/a	n/a	n/a	n/a	n/a	n/a	n/a	n/a	n/a	n/a	n/a
1267.274	n/a	WORD	633637	wordpools/wasnorm_wordpool_less_exclusions.txt	LTP233	ltpFR	13	4	1	PARTY	1018	n/a	0	n/a	0	0	0	0	0.5869140625	0.422607421875	upper	../fonts/zerothre.ttf
1270.286	n/a	START	635143	n/a	LTP233	ltpFR	13	n/a	n/a	n/a	n/a	n/a	n/a	n/a	n/a	n/a	n/a	n/a	n/a	n/a	n/a	n/a
1271.424	n/a	PROB	635712	n/a	LTP233	ltpFR	13	n/a	n/a	n/a	n/a	n/a	n/a	24	9	6	9	n/a	n/a	n/a	n/a	n/a
1272.808	n/a	PROB	636404	n/a	LTP233	ltpFR	13	n/a	n/a	n/a	n/a	n/a	n/a	15	3	5	7	n/a	n/a	n/a	n/a	n/a
1273.95	n/a	PROB	636975	n/a	LTP233	ltpFR	13	n/a	n/a	n/a	n/a	n/a	n/a	12	5	5	2	n/a	n/a	n/a	n/a	n/a
1275.384	n/a	PROB	637692	n/a	LTP233	ltpFR	13	n/a	n/a	n/a	n/a	n/a	n/a	19	2	8	9	n/a	n/a	n/a	n/a	n/a
1276.856	n/a	PROB	638428	n/a	LTP233	ltpFR	13	n/a	n/a	n/a	n/a	n/a	n/a	22	9	4	9	n/a	n/a	n/a	n/a	n/a
1278.43	n/a	PROB	639215	n/a	LTP233	ltpFR	13	n/a	n/a	n/a	n/a	n/a	n/a	18	7	8	3	n/a	n/a	n/a	n/a	n/a
1279.734	n/a	PROB	639867	n/a	LTP233	ltpFR	13	n/a	n/a	n/a	n/a	n/a	n/a	13	4	8	1	n/a	n/a	n/a	n/a	n/a
1280.89	n/a	PROB	640445	n/a	LTP233	ltpFR	13	n/a	n/a	n/a	n/a	n/a	n/a	1	3	2	8	n/a	n/a	n/a	n/a	n/a
1282.06	n/a	PROB	641030	n/a	LTP233	ltpFR	13	n/a	n/a	n/a	n/a	n/a	n/a	22	5	8	9	n/a	n/a	n/a	n/a	n/a
1283.866	n/a	PROB	641933	n/a	LTP233	ltpFR	13	n/a	n/a	n/a	n/a	n/a	n/a	26	4	9	3	n/a	n/a	n/a	n/a	n/a
1286.154	n/a	STOP	643077	n/a	LTP233	ltpFR	13	n/a	n/a	n/a	n/a	n/a	n/a	n/a	n/a	n/a	n/a	n/a	n/a	n/a	n/a	n/a
1287.15	n/a	WORD	643575	wordpools/wasnorm_wordpool_less_exclusions.txt	LTP233	ltpFR	13	4	1	BOAT	144	n/a	0	n/a	0	0	0	0	0.5869140625	0.422607421875	upper	../fonts/zerothre.ttf
1290.162	n/a	START	645081	n/a	LTP233	ltpFR	13	n/a	n/a	n/a	n/a	n/a	n/a	n/a	n/a	n/a	n/a	n/a	n/a	n/a	n/a	n/a
1291.33	n/a	PROB	645665	n/a	LTP233	ltpFR	13	n/a	n/a	n/a	n/a	n/a	n/a	16	9	5	2	n/a	n/a	n/a	n/a	n/a
1292.5	n/a	PROB	646250	n/a	LTP233	ltpFR	13	n/a	n/a	n/a	n/a	n/a	n/a	17	9	2	6	n/a	n/a	n/a	n/a	n/a
1293.96	n/a	PROB	646980	n/a	LTP233	ltpFR	13	n/a	n/a	n/a	n/a	n/a	n/a	8	1	2	5	n/a	n/a	n/a	n/a	n/a
1294.994	n/a	PROB	647497	n/a	LTP233	ltpFR	13	n/a	n/a	n/a	n/a	n/a	n/a	12	1	6	5	n/a	n/a	n/a	n/a	n/a
1296.732	n/a	PROB	648366	n/a	LTP233	ltpFR	13	n/a	n/a	n/a	n/a	n/a	n/a	9	4	2	3	n/a	n/a	n/a	n/a	n/a
1298.01	n/a	PROB	649005	n/a	LTP233	ltpFR	13	n/a	n/a	n/a	n/a	n/a	n/a	15	1	5	9	n/a	n/a	n/a	n/a	n/a
1299.644	n/a	PROB	649822	n/a	LTP233	ltpFR	13	n/a	n/a	n/a	n/a	n/a	n/a	13	6	1	6	n/a	n/a	n/a	n/a	n/a
1300.9	n/a	PROB	650450	n/a	LTP233	ltpFR	13	n/a	n/a	n/a	n/a	n/a	n/a	19	5	6	8	n/a	n/a	n/a	n/a	n/a
1302.56	n/a	PROB	651280	n/a	LTP233	ltpFR	13	n/a	n/a	n/a	n/a	n/a	n/a	15	2	4	9	n/a	n/a	n/a	n/a	n/a
1303.676	n/a	PROB	651838	n/a	LTP233	ltpFR	13	n/a	n/a	n/a	n/a	n/a	n/a	11	3	4	4	n/a	n/a	n/a	n/a	n/a
1304.738	n/a	STOP	652369	n/a	LTP233	ltpFR	13	n/a	n/a	n/a	n/a	n/a	n/a	n/a	n/a	n/a	n/a	n/a	n/a	n/a	n/a	n/a
1307.228	n/a	WORD	653614	wordpools/wasnorm_wordpool_less_exclusions.txt	LTP233	ltpFR	13	4	0	PRESIDENT	1121	n/a	1	n/a	0	0	0	1	0.412841796875	0.57763671875	lower	../fonts/amplitud.ttf
1310.24	n/a	START	655120	n/a	LTP233	ltpFR	13	n/a	n/a	n/a	n/a	n/a	n/a	n/a	n/a	n/a	n/a	n/a	n/a	n/a	n/a	n/a
1311.158	n/a	PROB	655579	n/a	LTP233	ltpFR	13	n/a	n/a	n/a	n/a	n/a	n/a	22	9	7	6	n/a	n/a	n/a	n/a	n/a
1312.642	n/a	PROB	656321	n/a	LTP233	ltpFR	13	n/a	n/a	n/a	n/a	n/a	n/a	16	1	9	6	n/a	n/a	n/a	n/a	n/a
1313.764	n/a	PROB	656882	n/a	LTP233	ltpFR	13	n/a	n/a	n/a	n/a	n/a	n/a	17	7	8	2	n/a	n/a	n/a	n/a	n/a
1314.986	n/a	PROB	657493	n/a	LTP233	ltpFR	13	n/a	n/a	n/a	n/a	n/a	n/a	19	8	3	8	n/a	n/a	n/a	n/a	n/a
1316.294	n/a	PROB	658147	n/a	LTP233	ltpFR	13	n/a	n/a	n/a	n/a	n/a	n/a	15	7	7	1	n/a	n/a	n/a	n/a	n/a
1317.278	n/a	PROB	658639	n/a	LTP233	ltpFR	13	n/a	n/a	n/a	n/a	n/a	n/a	19	8	9	2	n/a	n/a	n/a	n/a	n/a
1319.04	n/a	PROB	659520	n/a	LTP233	ltpFR	13	n/a	n/a	n/a	n/a	n/a	n/a	13	3	7	2	n/a	n/a	n/a	n/a	n/a
1320.126	n/a	PROB	660063	n/a	LTP233	ltpFR	13	n/a	n/a	n/a	n/a	n/a	n/a	15	1	6	9	n/a	n/a	n/a	n/a	n/a
1321.494	n/a	PROB	660747	n/a	LTP233	ltpFR	13	n/a	n/a	n/a	n/a	n/a	n/a	14	6	1	7	n/a	n/a	n/a	n/a	n/a
1322.77	n/a	PROB	661385	n/a	LTP233	ltpFR	13	n/a	n/a	n/a	n/a	n/a	n/a	6	1	4	1	n/a	n/a	n/a	n/a	n/a
1323.938	n/a	PROB	661969	n/a	LTP233	ltpFR	13	n/a	n/a	n/a	n/a	n/a	n/a	19	2	9	8	n/a	n/a	n/a	n/a	n/a
1325.18	n/a	STOP	662590	n/a	LTP233	ltpFR	13	n/a	n/a	n/a	n/a	n/a	n/a	n/a	n/a	n/a	n/a	n/a	n/a	n/a	n/a	n/a
1327.186	n/a	WORD	663593	wordpools/wasnorm_wordpool_less_exclusions.txt	LTP233	ltpFR	13	4	0	POLITICIAN	1099	n/a	1	n/a	0	0	0	1	0.412841796875	0.57763671875	lower	../fonts/amplitud.ttf
1330.198	n/a	START	665099	n/a	LTP233	ltpFR	13	n/a	n/a	n/a	n/a	n/a	n/a	n/a	n/a	n/a	n/a	n/a	n/a	n/a	n/a	n/a
1331.164	n/a	PROB	665582	n/a	LTP233	ltpFR	13	n/a	n/a	n/a	n/a	n/a	n/a	15	2	7	6	n/a	n/a	n/a	n/a	n/a
1332.452	n/a	PROB	666226	n/a	LTP233	ltpFR	13	n/a	n/a	n/a	n/a	n/a	n/a	7	1	1	5	n/a	n/a	n/a	n/a	n/a
1333.608	n/a	PROB	666804	n/a	LTP233	ltpFR	13	n/a	n/a	n/a	n/a	n/a	n/a	10	7	2	1	n/a	n/a	n/a	n/a	n/a
1334.694	n/a	PROB	667347	n/a	LTP233	ltpFR	13	n/a	n/a	n/a	n/a	n/a	n/a	13	3	5	5	n/a	n/a	n/a	n/a	n/a
1336.752	n/a	PROB	668376	n/a	LTP233	ltpFR	13	n/a	n/a	n/a	n/a	n/a	n/a	19	8	7	4	n/a	n/a	n/a	n/a	n/a
1338.096	n/a	PROB	669048	n/a	LTP233	ltpFR	13	n/a	n/a	n/a	n/a	n/a	n/a	17	1	7	9	n/a	n/a	n/a	n/a	n/a
1339.296	n/a	PROB	669648	n/a	LTP233	ltpFR	13	n/a	n/a	n/a	n/a	n/a	n/a	14	4	9	1	n/a	n/a	n/a	n/a	n/a
1340.552	n/a	PROB	670276	n/a	LTP233	ltpFR	13	n/a	n/a	n/a	n/a	n/a	n/a	13	5	3	5	n/a	n/a	n/a	n/a	n/a
1341.944	n/a	PROB	670972	n/a	LTP233	ltpFR	13	n/a	n/a	n/a	n/a	n/a	n/a	21	5	9	7	n/a	n/a	n/a	n/a	n/a
1343.616	n/a	PROB	671808	n/a	LTP233	ltpFR	13	n/a	n/a	n/a	n/a	n/a	n/a	19	8	2	9	n/a	n/a	n/a	n/a	n/a
1344.716	n/a	STOP	672358	n/a	LTP233	ltpFR	13	n/a	n/a	n/a	n/a	n/a	n/a	n/a	n/a	n/a	n/a	n/a	n/a	n/a	n/a	n/a
1347.192	n/a	WORD	673596	wordpools/wasnorm_wordpool_less_exclusions.txt	LTP233	ltpFR	13	4	0	SPONGE	1355	n/a	0	n/a	0	0	0	1	0.412841796875	0.57763671875	lower	../fonts/amplitud.ttf
1350.208	n/a	START	675104	n/a	LTP233	ltpFR	13	n/a	n/a	n/a	n/a	n/a	n/a	n/a	n/a	n/a	n/a	n/a	n/a	n/a	n/a	n/a
1351.328	n/a	PROB	675664	n/a	LTP233	ltpFR	13	n/a	n/a	n/a	n/a	n/a	n/a	20	9	4	7	n/a	n/a	n/a	n/a	n/a
1352.512	n/a	PROB	676256	n/a	LTP233	ltpFR	13	n/a	n/a	n/a	n/a	n/a	n/a	10	3	6	1	n/a	n/a	n/a	n/a	n/a
1353.766	n/a	PROB	676883	n/a	LTP233	ltpFR	13	n/a	n/a	n/a	n/a	n/a	n/a	18	1	9	8	n/a	n/a	n/a	n/a	n/a
1354.922	n/a	PROB	677461	n/a	LTP233	ltpFR	13	n/a	n/a	n/a	n/a	n/a	n/a	9	2	6	1	n/a	n/a	n/a	n/a	n/a
1355.994	n/a	PROB	677997	n/a	LTP233	ltpFR	13	n/a	n/a	n/a	n/a	n/a	n/a	14	7	6	1	n/a	n/a	n/a	n/a	n/a
1357.536	n/a	PROB	678768	n/a	LTP233	ltpFR	13	n/a	n/a	n/a	n/a	n/a	n/a	6	2	2	2	n/a	n/a	n/a	n/a	n/a
1358.436	n/a	PROB	679218	n/a	LTP233	ltpFR	13	n/a	n/a	n/a	n/a	n/a	n/a	18	6	6	6	n/a	n/a	n/a	n/a	n/a
1359.41	n/a	PROB	679705	n/a	LTP233	ltpFR	13	n/a	n/a	n/a	n/a	n/a	n/a	14	3	3	8	n/a	n/a	n/a	n/a	n/a
1360.664	n/a	PROB	680332	n/a	LTP233	ltpFR	13	n/a	n/a	n/a	n/a	n/a	n/a	9	1	6	2	n/a	n/a	n/a	n/a	n/a
1361.986	n/a	PROB	680993	n/a	LTP233	ltpFR	13	n/a	n/a	n/a	n/a	n/a	n/a	7	3	2	2	n/a	n/a	n/a	n/a	n/a
1363.338	n/a	PROB	681669	n/a	LTP233	ltpFR	13	n/a	n/a	n/a	n/a	n/a	n/a	16	4	7	5	n/a	n/a	n/a	n/a	n/a
1364.862	n/a	STOP	682431	n/a	LTP233	ltpFR	13	n/a	n/a	n/a	n/a	n/a	n/a	n/a	n/a	n/a	n/a	n/a	n/a	n/a	n/a	n/a
1367.374	n/a	WORD	683687	wordpools/wasnorm_wordpool_less_exclusions.txt	LTP233	ltpFR	13	4	0	KNUCKLE	789	n/a	0	n/a	0	0	0	1	0.412841796875	0.57763671875	lower	../fonts/amplitud.ttf
1370.386	n/a	START	685193	n/a	LTP233	ltpFR	13	n/a	n/a	n/a	n/a	n/a	n/a	n/a	n/a	n/a	n/a	n/a	n/a	n/a	n/a	n/a
1371.204	n/a	PROB	685602	n/a	LTP233	ltpFR	13	n/a	n/a	n/a	n/a	n/a	n/a	18	3	6	9	n/a	n/a	n/a	n/a	n/a
1372.41	n/a	PROB	686205	n/a	LTP233	ltpFR	13	n/a	n/a	n/a	n/a	n/a	n/a	6	1	4	1	n/a	n/a	n/a	n/a	n/a
1373.51	n/a	PROB	686755	n/a	LTP233	ltpFR	13	n/a	n/a	n/a	n/a	n/a	n/a	17	4	7	6	n/a	n/a	n/a	n/a	n/a
1374.802	n/a	PROB	687401	n/a	LTP233	ltpFR	13	n/a	n/a	n/a	n/a	n/a	n/a	14	3	3	7	n/a	n/a	n/a	n/a	n/a
1376.058	n/a	PROB	688029	n/a	LTP233	ltpFR	13	n/a	n/a	n/a	n/a	n/a	n/a	13	5	4	4	n/a	n/a	n/a	n/a	n/a
1377.692	n/a	PROB	688846	n/a	LTP233	ltpFR	13	n/a	n/a	n/a	n/a	n/a	n/a	15	9	2	4	n/a	n/a	n/a	n/a	n/a
1378.712	n/a	PROB	689356	n/a	LTP233	ltpFR	13	n/a	n/a	n/a	n/a	n/a	n/a	13	4	7	2	n/a	n/a	n/a	n/a	n/a
1379.816	n/a	PROB	689908	n/a	LTP233	ltpFR	13	n/a	n/a	n/a	n/a	n/a	n/a	23	9	9	4	n/a	n/a	n/a	n/a	n/a
1381.222	n/a	PROB	690611	n/a	LTP233	ltpFR	13	n/a	n/a	n/a	n/a	n/a	n/a	14	6	3	5	n/a	n/a	n/a	n/a	n/a
1386.386	n/a	STOP	693193	n/a	LTP233	ltpFR	13	n/a	n/a	n/a	n/a	n/a	n/a	n/a	n/a	n/a	n/a	n/a	n/a	n/a	n/a	n/a
1387.466	n/a	WORD	693733	wordpools/wasnorm_wordpool_less_exclusions.txt	LTP233	ltpFR	13	4	1	VESSEL	1558	n/a	0	n/a	0	0	0	0	0.5869140625	0.422607421875	upper	../fonts/zerothre.ttf
1390.478	n/a	START	695239	n/a	LTP233	ltpFR	13	n/a	n/a	n/a	n/a	n/a	n/a	n/a	n/a	n/a	n/a	n/a	n/a	n/a	n/a	n/a
1391.348	n/a	PROB	695674	n/a	LTP233	ltpFR	13	n/a	n/a	n/a	n/a	n/a	n/a	19	8	5	6	n/a	n/a	n/a	n/a	n/a
1392.988	n/a	PROB	696494	n/a	LTP233	ltpFR	13	n/a	n/a	n/a	n/a	n/a	n/a	11	1	9	1	n/a	n/a	n/a	n/a	n/a
1394.156	n/a	PROB	697078	n/a	LTP233	ltpFR	13	n/a	n/a	n/a	n/a	n/a	n/a	9	2	1	6	n/a	n/a	n/a	n/a	n/a
1395.328	n/a	PROB	697664	n/a	LTP233	ltpFR	13	n/a	n/a	n/a	n/a	n/a	n/a	14	3	4	7	n/a	n/a	n/a	n/a	n/a
1396.866	n/a	PROB	698433	n/a	LTP233	ltpFR	13	n/a	n/a	n/a	n/a	n/a	n/a	19	5	5	9	n/a	n/a	n/a	n/a	n/a
1398.172	n/a	PROB	699086	n/a	LTP233	ltpFR	13	n/a	n/a	n/a	n/a	n/a	n/a	16	9	1	6	n/a	n/a	n/a	n/a	n/a
1399.092	n/a	PROB	699546	n/a	LTP233	ltpFR	13	n/a	n/a	n/a	n/a	n/a	n/a	11	7	1	2	n/a	n/a	n/a	n/a	n/a
1400.162	n/a	PROB	700081	n/a	LTP233	ltpFR	13	n/a	n/a	n/a	n/a	n/a	n/a	16	5	3	8	n/a	n/a	n/a	n/a	n/a
1401.634	n/a	PROB	700817	n/a	LTP233	ltpFR	13	n/a	n/a	n/a	n/a	n/a	n/a	18	7	7	4	n/a	n/a	n/a	n/a	n/a
1403.34	n/a	PROB	701670	n/a	LTP233	ltpFR	13	n/a	n/a	n/a	n/a	n/a	n/a	23	8	6	5	n/a	n/a	n/a	n/a	n/a
1405.304	n/a	STOP	702652	n/a	LTP233	ltpFR	13	n/a	n/a	n/a	n/a	n/a	n/a	n/a	n/a	n/a	n/a	n/a	n/a	n/a	n/a	n/a
1407.36	n/a	WORD	703680	wordpools/wasnorm_wordpool_less_exclusions.txt	LTP233	ltpFR	13	4	1	BEVERAGE	123	n/a	0	n/a	0	0	0	0	0.5869140625	0.422607421875	upper	../fonts/zerothre.ttf
1410.372	n/a	START	705186	n/a	LTP233	ltpFR	13	n/a	n/a	n/a	n/a	n/a	n/a	n/a	n/a	n/a	n/a	n/a	n/a	n/a	n/a	n/a
1411.258	n/a	PROB	705629	n/a	LTP233	ltpFR	13	n/a	n/a	n/a	n/a	n/a	n/a	14	3	6	5	n/a	n/a	n/a	n/a	n/a
1412.76	n/a	PROB	706380	n/a	LTP233	ltpFR	13	n/a	n/a	n/a	n/a	n/a	n/a	17	8	4	5	n/a	n/a	n/a	n/a	n/a
1414.086	n/a	PROB	707043	n/a	LTP233	ltpFR	13	n/a	n/a	n/a	n/a	n/a	n/a	18	8	7	3	n/a	n/a	n/a	n/a	n/a
1415.492	n/a	PROB	707746	n/a	LTP233	ltpFR	13	n/a	n/a	n/a	n/a	n/a	n/a	14	7	3	4	n/a	n/a	n/a	n/a	n/a
1417.014	n/a	PROB	708507	n/a	LTP233	ltpFR	13	n/a	n/a	n/a	n/a	n/a	n/a	19	7	5	7	n/a	n/a	n/a	n/a	n/a
1418.18	n/a	PROB	709090	n/a	LTP233	ltpFR	13	n/a	n/a	n/a	n/a	n/a	n/a	14	6	1	7	n/a	n/a	n/a	n/a	n/a
1420.74	n/a	PROB	710370	n/a	LTP233	ltpFR	13	n/a	n/a	n/a	n/a	n/a	n/a	22	8	8	6	n/a	n/a	n/a	n/a	n/a
1422.346	n/a	PROB	711173	n/a	LTP233	ltpFR	13	n/a	n/a	n/a	n/a	n/a	n/a	13	4	5	4	n/a	n/a	n/a	n/a	n/a
1423.554	n/a	PROB	711777	n/a	LTP233	ltpFR	13	n/a	n/a	n/a	n/a	n/a	n/a	21	5	8	8	n/a	n/a	n/a	n/a	n/a
1424.824	n/a	STOP	712412	n/a	LTP233	ltpFR	13	n/a	n/a	n/a	n/a	n/a	n/a	n/a	n/a	n/a	n/a	n/a	n/a	n/a	n/a	n/a
1428.24	n/a	REC_START	714120	n/a	LTP233	ltpFR	13	4	n/a	n/a	n/a	n/a	n/a	n/a	0	0	0	n/a	n/a	n/a	n/a	n/a
1429.842	n/a	REC_WORD	714921	wordpools/wasnorm_wordpool_less_exclusions.txt	LTP233	ltpFR	13	4	1	BEVERAGE	123	n/a	0	n/a	0	0	0	n/a	n/a	n/a	n/a	n/a
1431.842	n/a	REC_WORD	715921	wordpools/wasnorm_wordpool_less_exclusions.txt	LTP233	ltpFR	13	4	1	VESSEL	1558	n/a	0	n/a	0	0	0	n/a	n/a	n/a	n/a	n/a
1432.986	n/a	REC_WORD	716493	wordpools/wasnorm_wordpool_less_exclusions.txt	LTP233	ltpFR	13	4	0	SPONGE	1355	n/a	0	n/a	0	0	0	n/a	n/a	n/a	n/a	n/a
1434.168	n/a	REC_WORD	717084	wordpools/wasnorm_wordpool_less_exclusions.txt	LTP233	ltpFR	13	4	0	KNUCKLE	789	n/a	0	n/a	0	0	0	n/a	n/a	n/a	n/a	n/a
1436.658	n/a	REC_WORD	718329	wordpools/wasnorm_wordpool_less_exclusions.txt	LTP233	ltpFR	13	4	0	CHEF	290	n/a	1	n/a	0	0	0	n/a	n/a	n/a	n/a	n/a
1439.606	n/a	REC_WORD	719803	wordpools/wasnorm_wordpool_less_exclusions.txt	LTP233	ltpFR	13	4	1	PARTY	1018	n/a	0	n/a	0	0	0	n/a	n/a	n/a	n/a	n/a
1441.526	n/a	REC_WORD	720763	wordpools/wasnorm_wordpool_less_exclusions.txt	LTP233	ltpFR	13	4	0	CUPBOARD	425	n/a	1	n/a	0	0	0	n/a	n/a	n/a	n/a	n/a
1447.134	n/a	REC_WORD	723567	wordpools/wasnorm_wordpool_less_exclusions.txt	LTP233	ltpFR	13	4	1	COMPANION	357	n/a	1	n/a	0	0	0	n/a	n/a	n/a	n/a	n/a
1448.506	n/a	REC_WORD	724253	wordpools/wasnorm_wordpool_less_exclusions.txt	LTP233	ltpFR	13	4	0	WART	1590	n/a	0	n/a	0	0	0	n/a	n/a	n/a	n/a	n/a
1449.774	n/a	REC_WORD	724887	wordpools/wasnorm_wordpool_less_exclusions.txt	LTP233	ltpFR	13	4	0	TOURIST	1488	n/a	0	n/a	0	0	0	n/a	n/a	n/a	n/a	n/a
1451.998	n/a	REC_WORD	725999	wordpools/wasnorm_wordpool_less_exclusions.txt	LTP233	ltpFR	13	4	1	EUROPE	541	n/a	0	n/a	0	0	0	n/a	n/a	n/a	n/a	n/a
1453.68	n/a	REC_WORD	726840	wordpools/wasnorm_wordpool_less_exclusions.txt	LTP233	ltpFR	13	4	1	LENS	811	n/a	0	n/a	0	0	0	n/a	n/a	n/a	n/a	n/a
1488.024	n/a	REC_WORD	744012	wordpools/wasnorm_wordpool_less_exclusions.txt	LTP233	ltpFR	13	4	0	PRESIDENT	1121	n/a	1	n/a	0	0	0	n/a	n/a	n/a	n/a	n/a
1493.148	n/a	REC_WORD	746574	wordpools/wasnorm_wordpool_less_exclusions.txt	LTP233	ltpFR	13	4	n/a	GOVERNOR	651	n/a	n/a	n/a	0	0	0	n/a	n/a	n/a	n/a	n/a
1519.32	n/a	WORD	759660	wordpools/wasnorm_wordpool_less_exclusions.txt	LTP233	ltpFR	13	5	1	PIPE	1073	n/a	0	n/a	0	0	0	0	0.5869140625	0.422607421875	upper	../fonts/zerothre.ttf
1523.27	n/a	WORD	761635	wordpools/wasnorm_wordpool_less_exclusions.txt	LTP233	ltpFR	13	5	1	CLARINET	317	n/a	0	n/a	0	0	0	0	0.5869140625	0.422607421875	upper	../fonts/zerothre.ttf
1527.152	n/a	WORD	763576	wordpools/wasnorm_wordpool_less_exclusions.txt	LTP233	ltpFR	13	5	1	VALVE	1546	n/a	0	n/a	0	0	0	0	0.5869140625	0.422607421875	upper	../fonts/zerothre.ttf
1531.212	n/a	WORD	765606	wordpools/wasnorm_wordpool_less_exclusions.txt	LTP233	ltpFR	13	5	1	DASHBOARD	441	n/a	0	n/a	0	0	0	0	0.5869140625	0.422607421875	upper	../fonts/zerothre.ttf
1535.082	n/a	WORD	767541	wordpools/wasnorm_wordpool_less_exclusions.txt	LTP233	ltpFR	13	5	1	SWING	1421	n/a	0	n/a	0	0	0	0	0.5869140625	0.422607421875	upper	../fonts/zerothre.ttf
1539.264	n/a	WORD	769632	wordpools/wasnorm_wordpool_less_exclusions.txt	LTP233	ltpFR	13	5	1	MOSS	918	n/a	0	n/a	0	0	0	0	0.5869140625	0.422607421875	upper	../fonts/zerothre.ttf
1543.124	n/a	WORD	771562	wordpools/wasnorm_wordpool_less_exclusions.txt	LTP233	ltpFR	13	5	1	DIVER	476	n/a	1	n/a	0	0	0	0	0.5869140625	0.422607421875	upper	../fonts/zerothre.ttf
1547.262	n/a	WORD	773631	wordpools/wasnorm_wordpool_less_exclusions.txt	LTP233	ltpFR	13	5	1	CROCODILE	411	n/a	1	n/a	0	0	0	0	0.5869140625	0.422607421875	upper	../fonts/zerothre.ttf
1551.46	n/a	WORD	775730	wordpools/wasnorm_wordpool_less_exclusions.txt	LTP233	ltpFR	13	5	1	SNORKEL	1336	n/a	0	n/a	0	0	0	0	0.5869140625	0.422607421875	upper	../fonts/zerothre.ttf
1555.658	n/a	WORD	777829	wordpools/wasnorm_wordpool_less_exclusions.txt	LTP233	ltpFR	13	5	1	WINGS	1614	n/a	0	n/a	0	0	0	0	0.5869140625	0.422607421875	upper	../fonts/zerothre.ttf
1559.69	n/a	WORD	779845	wordpools/wasnorm_wordpool_less_exclusions.txt	LTP233	ltpFR	13	5	1	FLY	586	n/a	0	n/a	0	0	0	0	0.5869140625	0.422607421875	upper	../fonts/zerothre.ttf
1563.72	n/a	WORD	781860	wordpools/wasnorm_wordpool_less_exclusions.txt	LTP233	ltpFR	13	5	1	GUM	672	n/a	0	n/a	0	0	0	0	0.5869140625	0.422607421875	upper	../fonts/zerothre.ttf
1567.756	n/a	WORD	783878	wordpools/wasnorm_wordpool_less_exclusions.txt	LTP233	ltpFR	13	5	1	STUMP	1396	n/a	0	n/a	0	0	0	0	0.5869140625	0.422607421875	upper	../fonts/zerothre.ttf
1571.704	n/a	WORD	785852	wordpools/wasnorm_wordpool_less_exclusions.txt	LTP233	ltpFR	13	5	1	SUSPECT	1415	n/a	1	n/a	0	0	0	0	0.5869140625	0.422607421875	upper	../fonts/zerothre.ttf
1575.57	n/a	WORD	787785	wordpools/wasnorm_wordpool_less_exclusions.txt	LTP233	ltpFR	13	5	1	RAKE	1164	n/a	0	n/a	0	0	0	0	0.5869140625	0.422607421875	upper	../fonts/zerothre.ttf
1579.5	n/a	WORD	789750	wordpools/wasnorm_wordpool_less_exclusions.txt	LTP233	ltpFR	13	5	1	LOLLIPOP	842	n/a	0	n/a	0	0	0	0	0.5869140625	0.422607421875	upper	../fonts/zerothre.ttf
1585.474	n/a	REC_START	792737	n/a	LTP233	ltpFR	13	5	n/a	n/a	n/a	n/a	n/a	n/a	0	0	0	n/a	n/a	n/a	n/a	n/a
1586.462	n/a	REC_WORD	793231	wordpools/wasnorm_wordpool_less_exclusions.txt	LTP233	ltpFR	13	5	1	SUSPECT	1415	n/a	1	n/a	0	0	0	n/a	n/a	n/a	n/a	n/a
1587.804	n/a	REC_WORD	793902	wordpools/wasnorm_wordpool_less_exclusions.txt	LTP233	ltpFR	13	5	1	RAKE	1164	n/a	0	n/a	0	0	0	n/a	n/a	n/a	n/a	n/a
1588.932	n/a	REC_WORD	794466	wordpools/wasnorm_wordpool_less_exclusions.txt	LTP233	ltpFR	13	5	1	LOLLIPOP	842	n/a	0	n/a	0	0	0	n/a	n/a	n/a	n/a	n/a
1591.126	n/a	REC_WORD	795563	wordpools/wasnorm_wordpool_less_exclusions.txt	LTP233	ltpFR	13	5	1	SWING	1421	n/a	0	n/a	0	0	0	n/a	n/a	n/a	n/a	n/a
1596.07	n/a	REC_WORD	798035	wordpools/wasnorm_wordpool_less_exclusions.txt	LTP233	ltpFR	13	5	1	DASHBOARD	441	n/a	0	n/a	0	0	0	n/a	n/a	n/a	n/a	n/a
1597.252	n/a	REC_WORD	798626	wordpools/wasnorm_wordpool_less_exclusions.txt	LTP233	ltpFR	13	5	1	CLARINET	317	n/a	0	n/a	0	0	0	n/a	n/a	n/a	n/a	n/a
1598.6	n/a	REC_WORD	799300	wordpools/wasnorm_wordpool_less_exclusions.txt	LTP233	ltpFR	13	5	1	PIPE	1073	n/a	0	n/a	0	0	0	n/a	n/a	n/a	n/a	n/a
1600.412	n/a	REC_WORD	800206	wordpools/wasnorm_wordpool_less_exclusions.txt	LTP233	ltpFR	13	5	1	VALVE	1546	n/a	0	n/a	0	0	0	n/a	n/a	n/a	n/a	n/a
1604.088	n/a	REC_WORD	802044	wordpools/wasnorm_wordpool_less_exclusions.txt	LTP233	ltpFR	13	5	1	DIVER	476	n/a	1	n/a	0	0	0	n/a	n/a	n/a	n/a	n/a
1613.162	n/a	REC_WORD	806581	wordpools/wasnorm_wordpool_less_exclusions.txt	LTP233	ltpFR	13	5	1	SNORKEL	1336	n/a	0	n/a	0	0	0	n/a	n/a	n/a	n/a	n/a
1615.842	n/a	REC_WORD	807921	wordpools/wasnorm_wordpool_less_exclusions.txt	LTP233	ltpFR	13	5	1	WINGS	1614	n/a	0	n/a	0	0	0	n/a	n/a	n/a	n/a	n/a
1616.824	n/a	REC_WORD	808412	wordpools/wasnorm_wordpool_less_exclusions.txt	LTP233	ltpFR	13	5	1	GUM	672	n/a	0	n/a	0	0	0	n/a	n/a	n/a	n/a	n/a
1617.716	n/a	REC_WORD	808858	wordpools/wasnorm_wordpool_less_exclusions.txt	LTP233	ltpFR	13	5	1	FLY	586	n/a	0	n/a	0	0	0	n/a	n/a	n/a	n/a	n/a
1635.442	n/a	REC_WORD	817721	wordpools/wasnorm_wordpool_less_exclusions.txt	LTP233	ltpFR	13	5	1	LOLLIPOP	842	n/a	0	n/a	0	0	0	n/a	n/a	n/a	n/a	n/a
1636.37	n/a	REC_WORD	818185	wordpools/wasnorm_wordpool_less_exclusions.txt	LTP233	ltpFR	13	5	1	RAKE	1164	n/a	0	n/a	0	0	0	n/a	n/a	n/a	n/a	n/a
1637.442	n/a	REC_WORD	818721	wordpools/wasnorm_wordpool_less_exclusions.txt	LTP233	ltpFR	13	5	1	STUMP	1396	n/a	0	n/a	0	0	0	n/a	n/a	n/a	n/a	n/a
1638.502	n/a	REC_WORD	819251	wordpools/wasnorm_wordpool_less_exclusions.txt	LTP233	ltpFR	13	5	1	SUSPECT	1415	n/a	1	n/a	0	0	0	n/a	n/a	n/a	n/a	n/a
1664.576	n/a	WORD	832288	wordpools/wasnorm_wordpool_less_exclusions.txt	LTP233	ltpFR	13	6	0	BARTENDER	92	n/a	0	n/a	0	0	0	1	0.412841796875	0.57763671875	lower	../fonts/amplitud.ttf
1668.642	n/a	WORD	834321	wordpools/wasnorm_wordpool_less_exclusions.txt	LTP233	ltpFR	13	6	0	JACKET	747	n/a	1	n/a	0	0	0	1	0.412841796875	0.57763671875	lower	../fonts/amplitud.ttf
1672.672	n/a	WORD	836336	wordpools/wasnorm_wordpool_less_exclusions.txt	LTP233	ltpFR	13	6	0	HOOD	714	n/a	1	n/a	0	0	0	1	0.412841796875	0.57763671875	lower	../fonts/amplitud.ttf
1676.756	n/a	WORD	838378	wordpools/wasnorm_wordpool_less_exclusions.txt	LTP233	ltpFR	13	6	0	BASKETBALL	96	n/a	0	n/a	0	0	0	1	0.412841796875	0.57763671875	lower	../fonts/amplitud.ttf
1680.888	n/a	WORD	840444	wordpools/wasnorm_wordpool_less_exclusions.txt	LTP233	ltpFR	13	6	0	CUE	422	n/a	0	n/a	0	0	0	1	0.412841796875	0.57763671875	lower	../fonts/amplitud.ttf
1685.038	n/a	WORD	842519	wordpools/wasnorm_wordpool_less_exclusions.txt	LTP233	ltpFR	13	6	0	SLEIGH	1325	n/a	1	n/a	0	0	0	1	0.412841796875	0.57763671875	lower	../fonts/amplitud.ttf
1689.236	n/a	WORD	844618	wordpools/wasnorm_wordpool_less_exclusions.txt	LTP233	ltpFR	13	6	0	POTATO	1115	n/a	0	n/a	0	0	0	1	0.412841796875	0.57763671875	lower	../fonts/amplitud.ttf
1693.302	n/a	WORD	846651	wordpools/wasnorm_wordpool_less_exclusions.txt	LTP233	ltpFR	13	6	0	SHORE	1291	n/a	0	n/a	0	0	0	1	0.412841796875	0.57763671875	lower	../fonts/amplitud.ttf
1697.184	n/a	WORD	848592	wordpools/wasnorm_wordpool_less_exclusions.txt	LTP233	ltpFR	13	6	0	DETECTIVE	454	n/a	1	n/a	0	0	0	1	0.412841796875	0.57763671875	lower	../fonts/amplitud.ttf
1701.032	n/a	WORD	850516	wordpools/wasnorm_wordpool_less_exclusions.txt	LTP233	ltpFR	13	6	0	HEADBAND	696	n/a	0	n/a	0	0	0	1	0.412841796875	0.57763671875	lower	../fonts/amplitud.ttf
1704.93	n/a	WORD	852465	wordpools/wasnorm_wordpool_less_exclusions.txt	LTP233	ltpFR	13	6	0	OCEAN	970	n/a	1	n/a	0	0	0	1	0.412841796875	0.57763671875	lower	../fonts/amplitud.ttf
1708.928	n/a	WORD	854464	wordpools/wasnorm_wordpool_less_exclusions.txt	LTP233	ltpFR	13	6	0	VEHICLE	1553	n/a	0	n/a	0	0	0	1	0.412841796875	0.57763671875	lower	../fonts/amplitud.ttf
1713.14	n/a	WORD	856570	wordpools/wasnorm_wordpool_less_exclusions.txt	LTP233	ltpFR	13	6	0	MECHANIC	884	n/a	1	n/a	0	0	0	1	0.412841796875	0.57763671875	lower	../fonts/amplitud.ttf
1717.076	n/a	WORD	858538	wordpools/wasnorm_wordpool_less_exclusions.txt	LTP233	ltpFR	13	6	0	SANDWICH	1232	n/a	0	n/a	0	0	0	1	0.412841796875	0.57763671875	lower	../fonts/amplitud.ttf
1721.21	n/a	WORD	860605	wordpools/wasnorm_wordpool_less_exclusions.txt	LTP233	ltpFR	13	6	0	LABEL	790	n/a	0	n/a	0	0	0	1	0.412841796875	0.57763671875	lower	../fonts/amplitud.ttf
1725.238	n/a	WORD	862619	wordpools/wasnorm_wordpool_less_exclusions.txt	LTP233	ltpFR	13	6	0	BARLEY	88	n/a	0	n/a	0	0	0	1	0.412841796875	0.57763671875	lower	../fonts/amplitud.ttf
1728.252	n/a	START	864126	n/a	LTP233	ltpFR	13	n/a	n/a	n/a	n/a	n/a	n/a	n/a	n/a	n/a	n/a	n/a	n/a	n/a	n/a	n/a
1729.14	n/a	PROB	864570	n/a	LTP233	ltpFR	13	n/a	n/a	n/a	n/a	n/a	n/a	18	9	6	3	n/a	n/a	n/a	n/a	n/a
1731.514	n/a	PROB	865757	n/a	LTP233	ltpFR	13	n/a	n/a	n/a	n/a	n/a	n/a	11	8	1	2	n/a	n/a	n/a	n/a	n/a
1732.782	n/a	PROB	866391	n/a	LTP233	ltpFR	13	n/a	n/a	n/a	n/a	n/a	n/a	14	2	5	7	n/a	n/a	n/a	n/a	n/a
1734.524	n/a	PROB	867262	n/a	LTP233	ltpFR	13	n/a	n/a	n/a	n/a	n/a	n/a	21	8	7	6	n/a	n/a	n/a	n/a	n/a
1735.966	n/a	PROB	867983	n/a	LTP233	ltpFR	13	n/a	n/a	n/a	n/a	n/a	n/a	10	2	1	7	n/a	n/a	n/a	n/a	n/a
1737.086	n/a	PROB	868543	n/a	LTP233	ltpFR	13	n/a	n/a	n/a	n/a	n/a	n/a	19	7	5	7	n/a	n/a	n/a	n/a	n/a
1738.422	n/a	PROB	869211	n/a	LTP233	ltpFR	13	n/a	n/a	n/a	n/a	n/a	n/a	21	4	8	9	n/a	n/a	n/a	n/a	n/a
1739.612	n/a	PROB	869806	n/a	LTP233	ltpFR	13	n/a	n/a	n/a	n/a	n/a	n/a	15	6	2	7	n/a	n/a	n/a	n/a	n/a
1740.716	n/a	PROB	870358	n/a	LTP233	ltpFR	13	n/a	n/a	n/a	n/a	n/a	n/a	18	4	5	7	n/a	n/a	n/a	n/a	n/a
1742.002	n/a	PROB	871001	n/a	LTP233	ltpFR	13	n/a	n/a	n/a	n/a	n/a	n/a	6	1	2	3	n/a	n/a	n/a	n/a	n/a
1743.082	n/a	STOP	871541	n/a	LTP233	ltpFR	13	n/a	n/a	n/a	n/a	n/a	n/a	n/a	n/a	n/a	n/a	n/a	n/a	n/a	n/a	n/a
1746.054	n/a	REC_START	873027	n/a	LTP233	ltpFR	13	6	n/a	n/a	n/a	n/a	n/a	n/a	0	0	0	n/a	n/a	n/a	n/a	n/a
1747.636	n/a	REC_WORD	873818	wordpools/wasnorm_wordpool_less_exclusions.txt	LTP233	ltpFR	13	6	0	SANDWICH	1232	n/a	0	n/a	0	0	0	n/a	n/a	n/a	n/a	n/a
1748.918	n/a	REC_WORD	874459	wordpools/wasnorm_wordpool_less_exclusions.txt	LTP233	ltpFR	13	6	0	LABEL	790	n/a	0	n/a	0	0	0	n/a	n/a	n/a	n/a	n/a
1750.18	n/a	REC_WORD	875090	wordpools/wasnorm_wordpool_less_exclusions.txt	LTP233	ltpFR	13	6	0	MECHANIC	884	n/a	1	n/a	0	0	0	n/a	n/a	n/a	n/a	n/a
1753.2	n/a	REC_WORD	876600	wordpools/wasnorm_wordpool_less_exclusions.txt	LTP233	ltpFR	13	6	0	BARLEY	88	n/a	0	n/a	0	0	0	n/a	n/a	n/a	n/a	n/a
1758.522	n/a	REC_WORD	879261	wordpools/wasnorm_wordpool_less_exclusions.txt	LTP233	ltpFR	13	6	n/a	MACHINE	852	n/a	n/a	n/a	0	0	0	n/a	n/a	n/a	n/a	n/a
1760.822	n/a	REC_WORD	880411	wordpools/wasnorm_wordpool_less_exclusions.txt	LTP233	ltpFR	13	6	0	SLEIGH	1325	n/a	1	n/a	0	0	0	n/a	n/a	n/a	n/a	n/a
1762.454	n/a	REC_WORD	881227	wordpools/wasnorm_wordpool_less_exclusions.txt	LTP233	ltpFR	13	6	0	SHORE	1291	n/a	0	n/a	0	0	0	n/a	n/a	n/a	n/a	n/a
1764.15	n/a	REC_WORD	882075	wordpools/wasnorm_wordpool_less_exclusions.txt	LTP233	ltpFR	13	6	0	OCEAN	970	n/a	1	n/a	0	0	0	n/a	n/a	n/a	n/a	n/a
1766.32	n/a	REC_WORD	883160	wordpools/wasnorm_wordpool_less_exclusions.txt	LTP233	ltpFR	13	6	0	CUE	422	n/a	0	n/a	0	0	0	n/a	n/a	n/a	n/a	n/a
1771.752	n/a	REC_WORD	885876	wordpools/wasnorm_wordpool_less_exclusions.txt	LTP233	ltpFR	13	6	0	BASKETBALL	96	n/a	0	n/a	0	0	0	n/a	n/a	n/a	n/a	n/a
1772.894	n/a	REC_WORD	886447	wordpools/wasnorm_wordpool_less_exclusions.txt	LTP233	ltpFR	13	6	0	DETECTIVE	454	n/a	1	n/a	0	0	0	n/a	n/a	n/a	n/a	n/a
1774.128	n/a	REC_WORD	887064	wordpools/wasnorm_wordpool_less_exclusions.txt	LTP233	ltpFR	13	6	0	BARTENDER	92	n/a	0	n/a	0	0	0	n/a	n/a	n/a	n/a	n/a
1777.21	n/a	REC_WORD	888605	wordpools/wasnorm_wordpool_less_exclusions.txt	LTP233	ltpFR	13	6	0	HEADBAND	696	n/a	0	n/a	0	0	0	n/a	n/a	n/a	n/a	n/a
1825.274	n/a	WORD	912637	wordpools/wasnorm_wordpool_less_exclusions.txt	LTP233	ltpFR	13	7	1	PRINTER	1126	n/a	0	n/a	0	0	0	0	0.5869140625	0.422607421875	upper	../fonts/zerothre.ttf
1829.424	n/a	WORD	914712	wordpools/wasnorm_wordpool_less_exclusions.txt	LTP233	ltpFR	13	7	1	CHEERLEADER	288	n/a	1	n/a	0	0	0	0	0.5869140625	0.422607421875	upper	../fonts/zerothre.ttf
1833.35	n/a	WORD	916675	wordpools/wasnorm_wordpool_less_exclusions.txt	LTP233	ltpFR	13	7	1	DOG	480	n/a	1	n/a	0	0	0	0	0.5869140625	0.422607421875	upper	../fonts/zerothre.ttf
1837.47	n/a	WORD	918735	wordpools/wasnorm_wordpool_less_exclusions.txt	LTP233	ltpFR	13	7	0	PAPER	1011	n/a	0	n/a	0	0	0	1	0.412841796875	0.57763671875	lower	../fonts/amplitud.ttf
1841.668	n/a	WORD	920834	wordpools/wasnorm_wordpool_less_exclusions.txt	LTP233	ltpFR	13	7	0	MAN	862	n/a	1	n/a	0	0	0	1	0.412841796875	0.57763671875	lower	../fonts/amplitud.ttf
1845.634	n/a	WORD	922817	wordpools/wasnorm_wordpool_less_exclusions.txt	LTP233	ltpFR	13	7	0	HOSE	720	n/a	1	n/a	0	0	0	1	0.412841796875	0.57763671875	lower	../fonts/amplitud.ttf
1849.784	n/a	WORD	924892	wordpools/wasnorm_wordpool_less_exclusions.txt	LTP233	ltpFR	13	7	1	COYOTE	396	n/a	0	n/a	0	0	0	0	0.5869140625	0.422607421875	upper	../fonts/zerothre.ttf
1853.798	n/a	WORD	926899	wordpools/wasnorm_wordpool_less_exclusions.txt	LTP233	ltpFR	13	7	1	MULE	931	n/a	1	n/a	0	0	0	0	0.5869140625	0.422607421875	upper	../fonts/zerothre.ttf
1857.83	n/a	WORD	928915	wordpools/wasnorm_wordpool_less_exclusions.txt	LTP233	ltpFR	13	7	1	CUCUMBER	421	n/a	1	n/a	0	0	0	0	0.5869140625	0.422607421875	upper	../fonts/zerothre.ttf
1862.014	n/a	WORD	931007	wordpools/wasnorm_wordpool_less_exclusions.txt	LTP233	ltpFR	13	7	1	CAMEL	223	n/a	1	n/a	0	0	0	0	0.5869140625	0.422607421875	upper	../fonts/zerothre.ttf
1866.096	n/a	WORD	933048	wordpools/wasnorm_wordpool_less_exclusions.txt	LTP233	ltpFR	13	7	1	CHIMNEY	301	n/a	0	n/a	0	0	0	0	0.5869140625	0.422607421875	upper	../fonts/zerothre.ttf
1870.28	n/a	WORD	935140	wordpools/wasnorm_wordpool_less_exclusions.txt	LTP233	ltpFR	13	7	0	BARRACUDA	90	n/a	0	n/a	0	0	0	1	0.412841796875	0.57763671875	lower	../fonts/amplitud.ttf
1874.462	n/a	WORD	937231	wordpools/wasnorm_wordpool_less_exclusions.txt	LTP233	ltpFR	13	7	0	SHARK	1275	n/a	1	n/a	0	0	0	1	0.412841796875	0.57763671875	lower	../fonts/amplitud.ttf
1878.494	n/a	WORD	939247	wordpools/wasnorm_wordpool_less_exclusions.txt	LTP233	ltpFR	13	7	0	WASHER	1592	n/a	0	n/a	0	0	0	1	0.412841796875	0.57763671875	lower	../fonts/amplitud.ttf
1882.342	n/a	WORD	941171	wordpools/wasnorm_wordpool_less_exclusions.txt	LTP233	ltpFR	13	7	0	NAPKIN	937	n/a	0	n/a	0	0	0	1	0.412841796875	0.57763671875	lower	../fonts/amplitud.ttf
1886.256	n/a	WORD	943128	wordpools/wasnorm_wordpool_less_exclusions.txt	LTP233	ltpFR	13	7	0	MUSHROOM	934	n/a	0	n/a	0	0	0	1	0.412841796875	0.57763671875	lower	../fonts/amplitud.ttf
1889.268	n/a	START	944634	n/a	LTP233	ltpFR	13	n/a	n/a	n/a	n/a	n/a	n/a	n/a	n/a	n/a	n/a	n/a	n/a	n/a	n/a	n/a
1890.172	n/a	PROB	945086	n/a	LTP233	ltpFR	13	n/a	n/a	n/a	n/a	n/a	n/a	20	4	7	9	n/a	n/a	n/a	n/a	n/a
1891.706	n/a	PROB	945853	n/a	LTP233	ltpFR	13	n/a	n/a	n/a	n/a	n/a	n/a	11	4	5	2	n/a	n/a	n/a	n/a	n/a
1894.552	n/a	PROB	947276	n/a	LTP233	ltpFR	13	n/a	n/a	n/a	n/a	n/a	n/a	23	9	7	8	n/a	n/a	n/a	n/a	n/a
1895.762	n/a	STOP	947881	n/a	LTP233	ltpFR	13	n/a	n/a	n/a	n/a	n/a	n/a	n/a	n/a	n/a	n/a	n/a	n/a	n/a	n/a	n/a
1899.09	n/a	REC_START	949545	n/a	LTP233	ltpFR	13	7	n/a	n/a	n/a	n/a	n/a	n/a	0	0	0	n/a	n/a	n/a	n/a	n/a
1902.262	n/a	REC_WORD	951131	wordpools/wasnorm_wordpool_less_exclusions.txt	LTP233	ltpFR	13	7	0	WASHER	1592	n/a	0	n/a	0	0	0	n/a	n/a	n/a	n/a	n/a
1903.62	n/a	REC_WORD	951810	wordpools/wasnorm_wordpool_less_exclusions.txt	LTP233	ltpFR	13	7	0	MUSHROOM	934	n/a	0	n/a	0	0	0	n/a	n/a	n/a	n/a	n/a
1904.802	n/a	REC_WORD	952401	wordpools/wasnorm_wordpool_less_exclusions.txt	LTP233	ltpFR	13	7	0	SHARK	1275	n/a	1	n/a	0	0	0	n/a	n/a	n/a	n/a	n/a
1905.844	n/a	REC_WORD	952922	wordpools/wasnorm_wordpool_less_exclusions.txt	LTP233	ltpFR	13	7	0	BARRACUDA	90	n/a	0	n/a	0	0	0	n/a	n/a	n/a	n/a	n/a
1907.108	n/a	REC_WORD	953554	wordpools/wasnorm_wordpool_less_exclusions.txt	LTP233	ltpFR	13	7	1	CHIMNEY	301	n/a	0	n/a	0	0	0	n/a	n/a	n/a	n/a	n/a
1908.4	n/a	REC_WORD	954200	wordpools/wasnorm_wordpool_less_exclusions.txt	LTP233	ltpFR	13	7	1	CUCUMBER	421	n/a	1	n/a	0	0	0	n/a	n/a	n/a	n/a	n/a
1909.616	n/a	REC_WORD	954808	wordpools/wasnorm_wordpool_less_exclusions.txt	LTP233	ltpFR	13	7	1	MULE	931	n/a	1	n/a	0	0	0	n/a	n/a	n/a	n/a	n/a
1910.63	n/a	REC_WORD	955315	wordpools/wasnorm_wordpool_less_exclusions.txt	LTP233	ltpFR	13	7	1	CAMEL	223	n/a	1	n/a	0	0	0	n/a	n/a	n/a	n/a	n/a
1933.338	n/a	REC_WORD	966669	wordpools/wasnorm_wordpool_less_exclusions.txt	LTP233	ltpFR	13	7	0	MAN	862	n/a	1	n/a	0	0	0	n/a	n/a	n/a	n/a	n/a
1938.612	n/a	REC_WORD	969306	wordpools/wasnorm_wordpool_less_exclusions.txt	LTP233	ltpFR	13	7	1	DOG	480	n/a	1	n/a	0	0	0	n/a	n/a	n/a	n/a	n/a
1939.774	n/a	REC_WORD	969887	wordpools/wasnorm_wordpool_less_exclusions.txt	LTP233	ltpFR	13	7	0	PAPER	1011	n/a	0	n/a	0	0	0	n/a	n/a	n/a	n/a	n/a
1940.632	n/a	REC_WORD	970316	wordpools/wasnorm_wordpool_less_exclusions.txt	LTP233	ltpFR	13	7	1	PRINTER	1126	n/a	0	n/a	0	0	0	n/a	n/a	n/a	n/a	n/a
2008.59	n/a	WORD	1004295	wordpools/wasnorm_wordpool_less_exclusions.txt	LTP233	ltpFR	13	8	0	BUGLE	189	n/a	0	n/a	0	0	0	1	0.412841796875	0.57763671875	lower	../fonts/amplitud.ttf
2012.572	n/a	WORD	1006286	wordpools/wasnorm_wordpool_less_exclusions.txt	LTP233	ltpFR	13	8	0	LIPSTICK	829	n/a	0	n/a	0	0	0	1	0.412841796875	0.57763671875	lower	../fonts/amplitud.ttf
2016.772	n/a	WORD	1008386	wordpools/wasnorm_wordpool_less_exclusions.txt	LTP233	ltpFR	13	8	0	STEWARDESS	1381	n/a	1	n/a	0	0	0	1	0.412841796875	0.57763671875	lower	../fonts/amplitud.ttf
2020.954	n/a	WORD	1010477	wordpools/wasnorm_wordpool_less_exclusions.txt	LTP233	ltpFR	13	8	1	WAVE	1596	n/a	0	n/a	0	0	0	0	0.5869140625	0.422607421875	upper	../fonts/zerothre.ttf
2025.116	n/a	WORD	1012558	wordpools/wasnorm_wordpool_less_exclusions.txt	LTP233	ltpFR	13	8	1	BANNER	85	n/a	0	n/a	0	0	0	0	0.5869140625	0.422607421875	upper	../fonts/zerothre.ttf
2029.036	n/a	WORD	1014518	wordpools/wasnorm_wordpool_less_exclusions.txt	LTP233	ltpFR	13	8	1	FEATHER	557	n/a	0	n/a	0	0	0	0	0.5869140625	0.422607421875	upper	../fonts/zerothre.ttf
2033.15	n/a	WORD	1016575	wordpools/wasnorm_wordpool_less_exclusions.txt	LTP233	ltpFR	13	8	1	CROW	414	n/a	1	n/a	0	0	0	0	0.5869140625	0.422607421875	upper	../fonts/zerothre.ttf
2037.368	n/a	WORD	1018684	wordpools/wasnorm_wordpool_less_exclusions.txt	LTP233	ltpFR	13	8	0	ROBIN	1199	n/a	0	n/a	0	0	0	1	0.412841796875	0.57763671875	lower	../fonts/amplitud.ttf
2041.382	n/a	WORD	1020691	wordpools/wasnorm_wordpool_less_exclusions.txt	LTP233	ltpFR	13	8	0	ICEBERG	731	n/a	1	n/a	0	0	0	1	0.412841796875	0.57763671875	lower	../fonts/amplitud.ttf
2045.464	n/a	WORD	1022732	wordpools/wasnorm_wordpool_less_exclusions.txt	LTP233	ltpFR	13	8	1	FLOWER	584	n/a	0	n/a	0	0	0	0	0.5869140625	0.422607421875	upper	../fonts/zerothre.ttf
2049.53	n/a	WORD	1024765	wordpools/wasnorm_wordpool_less_exclusions.txt	LTP233	ltpFR	13	8	1	QUAIL	1147	n/a	1	n/a	0	0	0	0	0.5869140625	0.422607421875	upper	../fonts/zerothre.ttf
2053.578	n/a	WORD	1026789	wordpools/wasnorm_wordpool_less_exclusions.txt	LTP233	ltpFR	13	8	1	JAW	751	n/a	0	n/a	0	0	0	0	0.5869140625	0.422607421875	upper	../fonts/zerothre.ttf
2057.728	n/a	WORD	1028864	wordpools/wasnorm_wordpool_less_exclusions.txt	LTP233	ltpFR	13	8	1	PAINT	1003	n/a	0	n/a	0	0	0	0	0.5869140625	0.422607421875	upper	../fonts/zerothre.ttf
2061.844	n/a	WORD	1030922	wordpools/wasnorm_wordpool_less_exclusions.txt	LTP233	ltpFR	13	8	0	ORCHESTRA	981	n/a	0	n/a	0	0	0	1	0.412841796875	0.57763671875	lower	../fonts/amplitud.ttf
2065.944	n/a	WORD	1032972	wordpools/wasnorm_wordpool_less_exclusions.txt	LTP233	ltpFR	13	8	0	STAR	1373	n/a	1	n/a	0	0	0	1	0.412841796875	0.57763671875	lower	../fonts/amplitud.ttf
2069.774	n/a	WORD	1034887	wordpools/wasnorm_wordpool_less_exclusions.txt	LTP233	ltpFR	13	8	0	ATMOSPHERE	54	n/a	1	n/a	0	0	0	1	0.412841796875	0.57763671875	lower	../fonts/amplitud.ttf
2072.786	n/a	START	1036393	n/a	LTP233	ltpFR	13	n/a	n/a	n/a	n/a	n/a	n/a	n/a	n/a	n/a	n/a	n/a	n/a	n/a	n/a	n/a
2073.872	n/a	PROB	1036936	n/a	LTP233	ltpFR	13	n/a	n/a	n/a	n/a	n/a	n/a	14	8	1	5	n/a	n/a	n/a	n/a	n/a
2075.292	n/a	PROB	1037646	n/a	LTP233	ltpFR	13	n/a	n/a	n/a	n/a	n/a	n/a	14	2	7	5	n/a	n/a	n/a	n/a	n/a
2076.45	n/a	PROB	1038225	n/a	LTP233	ltpFR	13	n/a	n/a	n/a	n/a	n/a	n/a	14	1	5	8	n/a	n/a	n/a	n/a	n/a
2078.32	n/a	PROB	1039160	n/a	LTP233	ltpFR	13	n/a	n/a	n/a	n/a	n/a	n/a	14	2	9	3	n/a	n/a	n/a	n/a	n/a
2079.468	n/a	STOP	1039734	n/a	LTP233	ltpFR	13	n/a	n/a	n/a	n/a	n/a	n/a	n/a	n/a	n/a	n/a	n/a	n/a	n/a	n/a	n/a
2082.74	n/a	REC_START	1041370	n/a	LTP233	ltpFR	13	8	n/a	n/a	n/a	n/a	n/a	n/a	0	0	0	n/a	n/a	n/a	n/a	n/a
2084.316	n/a	REC_WORD	1042158	wordpools/wasnorm_wordpool_less_exclusions.txt	LTP233	ltpFR	13	8	0	ORCHESTRA	981	n/a	0	n/a	0	0	0	n/a	n/a	n/a	n/a	n/a
2085.37	n/a	REC_WORD	1042685	wordpools/wasnorm_wordpool_less_exclusions.txt	LTP233	ltpFR	13	8	0	STAR	1373	n/a	1	n/a	0	0	0	n/a	n/a	n/a	n/a	n/a
2086.612	n/a	REC_WORD	1043306	wordpools/wasnorm_wordpool_less_exclusions.txt	LTP233	ltpFR	13	8	0	ATMOSPHERE	54	n/a	1	n/a	0	0	0	n/a	n/a	n/a	n/a	n/a
2089.852	n/a	REC_WORD	1044926	wordpools/wasnorm_wordpool_less_exclusions.txt	LTP233	ltpFR	13	8	0	STEWARDESS	1381	n/a	1	n/a	0	0	0	n/a	n/a	n/a	n/a	n/a
2091.066	n/a	REC_WORD	1045533	wordpools/wasnorm_wordpool_less_exclusions.txt	LTP233	ltpFR	13	8	0	LIPSTICK	829	n/a	0	n/a	0	0	0	n/a	n/a	n/a	n/a	n/a
2092.124	n/a	REC_WORD	1046062	wordpools/wasnorm_wordpool_less_exclusions.txt	LTP233	ltpFR	13	8	0	BUGLE	189	n/a	0	n/a	0	0	0	n/a	n/a	n/a	n/a	n/a
2094.29	n/a	REC_WORD	1047145	wordpools/wasnorm_wordpool_less_exclusions.txt	LTP233	ltpFR	13	8	1	WAVE	1596	n/a	0	n/a	0	0	0	n/a	n/a	n/a	n/a	n/a
2095.192	n/a	REC_WORD	1047596	wordpools/wasnorm_wordpool_less_exclusions.txt	LTP233	ltpFR	13	8	1	BANNER	85	n/a	0	n/a	0	0	0	n/a	n/a	n/a	n/a	n/a
2096.31	n/a	REC_WORD	1048155	wordpools/wasnorm_wordpool_less_exclusions.txt	LTP233	ltpFR	13	8	1	QUAIL	1147	n/a	1	n/a	0	0	0	n/a	n/a	n/a	n/a	n/a
2097.652	n/a	REC_WORD	1048826	wordpools/wasnorm_wordpool_less_exclusions.txt	LTP233	ltpFR	13	8	0	ROBIN	1199	n/a	0	n/a	0	0	0	n/a	n/a	n/a	n/a	n/a
2098.606	n/a	REC_WORD	1049303	wordpools/wasnorm_wordpool_less_exclusions.txt	LTP233	ltpFR	13	8	1	CROW	414	n/a	1	n/a	0	0	0	n/a	n/a	n/a	n/a	n/a
2099.612	n/a	REC_WORD	1049806	wordpools/wasnorm_wordpool_less_exclusions.txt	LTP233	ltpFR	13	8	1	FEATHER	557	n/a	0	n/a	0	0	0	n/a	n/a	n/a	n/a	n/a
2105.724	n/a	REC_WORD	1052862	wordpools/wasnorm_wordpool_less_exclusions.txt	LTP233	ltpFR	13	8	1	PAINT	1003	n/a	0	n/a	0	0	0	n/a	n/a	n/a	n/a	n/a
2113.852	n/a	REC_WORD	1056926	wordpools/wasnorm_wordpool_less_exclusions.txt	LTP233	ltpFR	13	8	n/a	MOUTH	926	n/a	n/a	n/a	0	0	0	n/a	n/a	n/a	n/a	n/a
2128.144	n/a	REC_WORD	1064072	wordpools/wasnorm_wordpool_less_exclusions.txt	LTP233	ltpFR	13	8	0	ICEBERG	731	n/a	1	n/a	0	0	0	n/a	n/a	n/a	n/a	n/a
2161.758	n/a	START	1080879	n/a	LTP233	ltpFR	13	n/a	n/a	n/a	n/a	n/a	n/a	n/a	n/a	n/a	n/a	n/a	n/a	n/a	n/a	n/a
2163.264	n/a	PROB	1081632	n/a	LTP233	ltpFR	13	n/a	n/a	n/a	n/a	n/a	n/a	7	2	3	1	n/a	n/a	n/a	n/a	n/a
2164.916	n/a	PROB	1082458	n/a	LTP233	ltpFR	13	n/a	n/a	n/a	n/a	n/a	n/a	15	7	1	4	n/a	n/a	n/a	n/a	n/a
2166.91	n/a	PROB	1083455	n/a	LTP233	ltpFR	13	n/a	n/a	n/a	n/a	n/a	n/a	10	3	6	1	n/a	n/a	n/a	n/a	n/a
2168.682	n/a	PROB	1084341	n/a	LTP233	ltpFR	13	n/a	n/a	n/a	n/a	n/a	n/a	5	1	3	2	n/a	n/a	n/a	n/a	n/a
2169.752	n/a	PROB	1084876	n/a	LTP233	ltpFR	13	n/a	n/a	n/a	n/a	n/a	n/a	8	4	2	2	n/a	n/a	n/a	n/a	n/a
2171.226	n/a	PROB	1085613	n/a	LTP233	ltpFR	13	n/a	n/a	n/a	n/a	n/a	n/a	18	3	7	9	n/a	n/a	n/a	n/a	n/a
2172.284	n/a	PROB	1086142	n/a	LTP233	ltpFR	13	n/a	n/a	n/a	n/a	n/a	n/a	16	5	6	5	n/a	n/a	n/a	n/a	n/a
2174.02	n/a	PROB	1087010	n/a	LTP233	ltpFR	13	n/a	n/a	n/a	n/a	n/a	n/a	9	2	1	6	n/a	n/a	n/a	n/a	n/a
2175.29	n/a	PROB	1087645	n/a	LTP233	ltpFR	13	n/a	n/a	n/a	n/a	n/a	n/a	11	1	8	2	n/a	n/a	n/a	n/a	n/a
2176.354	n/a	STOP	1088177	n/a	LTP233	ltpFR	13	n/a	n/a	n/a	n/a	n/a	n/a	n/a	n/a	n/a	n/a	n/a	n/a	n/a	n/a	n/a
2178.59	n/a	WORD	1089295	wordpools/wasnorm_wordpool_less_exclusions.txt	LTP233	ltpFR	13	9	1	DOVE	491	n/a	0	n/a	0	0	0	0	0.5869140625	0.422607421875	upper	../fonts/zerothre.ttf
2181.602	n/a	START	1090801	n/a	LTP233	ltpFR	13	n/a	n/a	n/a	n/a	n/a	n/a	n/a	n/a	n/a	n/a	n/a	n/a	n/a	n/a	n/a
2182.538	n/a	PROB	1091269	n/a	LTP233	ltpFR	13	n/a	n/a	n/a	n/a	n/a	n/a	5	1	2	2	n/a	n/a	n/a	n/a	n/a
2183.626	n/a	PROB	1091813	n/a	LTP233	ltpFR	13	n/a	n/a	n/a	n/a	n/a	n/a	11	2	6	3	n/a	n/a	n/a	n/a	n/a
2185.266	n/a	PROB	1092633	n/a	LTP233	ltpFR	13	n/a	n/a	n/a	n/a	n/a	n/a	11	2	4	5	n/a	n/a	n/a	n/a	n/a
2186.434	n/a	PROB	1093217	n/a	LTP233	ltpFR	13	n/a	n/a	n/a	n/a	n/a	n/a	11	3	3	5	n/a	n/a	n/a	n/a	n/a
2187.822	n/a	PROB	1093911	n/a	LTP233	ltpFR	13	n/a	n/a	n/a	n/a	n/a	n/a	11	7	3	1	n/a	n/a	n/a	n/a	n/a
2188.876	n/a	PROB	1094438	n/a	LTP233	ltpFR	13	n/a	n/a	n/a	n/a	n/a	n/a	20	9	5	6	n/a	n/a	n/a	n/a	n/a
2190.854	n/a	PROB	1095427	n/a	LTP233	ltpFR	13	n/a	n/a	n/a	n/a	n/a	n/a	7	2	1	4	n/a	n/a	n/a	n/a	n/a
2193.414	n/a	PROB	1096707	n/a	LTP233	ltpFR	13	n/a	n/a	n/a	n/a	n/a	n/a	17	6	6	5	n/a	n/a	n/a	n/a	n/a
2194.698	n/a	PROB	1097349	n/a	LTP233	ltpFR	13	n/a	n/a	n/a	n/a	n/a	n/a	16	5	8	3	n/a	n/a	n/a	n/a	n/a
2196.106	n/a	STOP	1098053	n/a	LTP233	ltpFR	13	n/a	n/a	n/a	n/a	n/a	n/a	n/a	n/a	n/a	n/a	n/a	n/a	n/a	n/a	n/a
2198.664	n/a	WORD	1099332	wordpools/wasnorm_wordpool_less_exclusions.txt	LTP233	ltpFR	13	9	1	KITE	779	n/a	0	n/a	0	0	0	0	0.5869140625	0.422607421875	upper	../fonts/zerothre.ttf
2201.678	n/a	START	1100839	n/a	LTP233	ltpFR	13	n/a	n/a	n/a	n/a	n/a	n/a	n/a	n/a	n/a	n/a	n/a	n/a	n/a	n/a	n/a
2202.514	n/a	PROB	1101257	n/a	LTP233	ltpFR	13	n/a	n/a	n/a	n/a	n/a	n/a	15	5	9	1	n/a	n/a	n/a	n/a	n/a
2203.984	n/a	PROB	1101992	n/a	LTP233	ltpFR	13	n/a	n/a	n/a	n/a	n/a	n/a	12	5	3	4	n/a	n/a	n/a	n/a	n/a
2205.126	n/a	PROB	1102563	n/a	LTP233	ltpFR	13	n/a	n/a	n/a	n/a	n/a	n/a	15	6	7	2	n/a	n/a	n/a	n/a	n/a
2206.276	n/a	PROB	1103138	n/a	LTP233	ltpFR	13	n/a	n/a	n/a	n/a	n/a	n/a	19	9	3	6	n/a	n/a	n/a	n/a	n/a
2207.582	n/a	PROB	1103791	n/a	LTP233	ltpFR	13	n/a	n/a	n/a	n/a	n/a	n/a	13	7	5	1	n/a	n/a	n/a	n/a	n/a
2209.024	n/a	PROB	1104512	n/a	LTP233	ltpFR	13	n/a	n/a	n/a	n/a	n/a	n/a	8	4	3	1	n/a	n/a	n/a	n/a	n/a
2210.078	n/a	PROB	1105039	n/a	LTP233	ltpFR	13	n/a	n/a	n/a	n/a	n/a	n/a	11	2	2	7	n/a	n/a	n/a	n/a	n/a
2211.164	n/a	PROB	1105582	n/a	LTP233	ltpFR	13	n/a	n/a	n/a	n/a	n/a	n/a	9	2	5	2	n/a	n/a	n/a	n/a	n/a
2212.6	n/a	PROB	1106300	n/a	LTP233	ltpFR	13	n/a	n/a	n/a	n/a	n/a	n/a	15	5	6	4	n/a	n/a	n/a	n/a	n/a
2213.654	n/a	PROB	1106827	n/a	LTP233	ltpFR	13	n/a	n/a	n/a	n/a	n/a	n/a	13	3	7	3	n/a	n/a	n/a	n/a	n/a
2214.79	n/a	PROB	1107395	n/a	LTP233	ltpFR	13	n/a	n/a	n/a	n/a	n/a	n/a	10	2	7	1	n/a	n/a	n/a	n/a	n/a
2216.012	n/a	PROB	1108006	n/a	LTP233	ltpFR	13	n/a	n/a	n/a	n/a	n/a	n/a	12	5	4	3	n/a	n/a	n/a	n/a	n/a
2216.964	n/a	STOP	1108482	n/a	LTP233	ltpFR	13	n/a	n/a	n/a	n/a	n/a	n/a	n/a	n/a	n/a	n/a	n/a	n/a	n/a	n/a	n/a
2218.71	n/a	WORD	1109355	wordpools/wasnorm_wordpool_less_exclusions.txt	LTP233	ltpFR	13	9	1	RAG	1160	n/a	0	n/a	0	0	0	0	0.5869140625	0.422607421875	upper	../fonts/zerothre.ttf
2221.722	n/a	START	1110861	n/a	LTP233	ltpFR	13	n/a	n/a	n/a	n/a	n/a	n/a	n/a	n/a	n/a	n/a	n/a	n/a	n/a	n/a	n/a
2222.642	n/a	PROB	1111321	n/a	LTP233	ltpFR	13	n/a	n/a	n/a	n/a	n/a	n/a	20	5	9	6	n/a	n/a	n/a	n/a	n/a
2224.58	n/a	PROB	1112290	n/a	LTP233	ltpFR	13	n/a	n/a	n/a	n/a	n/a	n/a	15	7	5	2	n/a	n/a	n/a	n/a	n/a
2225.686	n/a	PROB	1112843	n/a	LTP233	ltpFR	13	n/a	n/a	n/a	n/a	n/a	n/a	19	3	8	8	n/a	n/a	n/a	n/a	n/a
2227.256	n/a	PROB	1113628	n/a	LTP233	ltpFR	13	n/a	n/a	n/a	n/a	n/a	n/a	16	4	6	5	n/a	n/a	n/a	n/a	n/a
2228.616	n/a	PROB	1114308	n/a	LTP233	ltpFR	13	n/a	n/a	n/a	n/a	n/a	n/a	22	9	7	6	n/a	n/a	n/a	n/a	n/a
2230.268	n/a	PROB	1115134	n/a	LTP233	ltpFR	13	n/a	n/a	n/a	n/a	n/a	n/a	19	9	3	7	n/a	n/a	n/a	n/a	n/a
2231.722	n/a	PROB	1115861	n/a	LTP233	ltpFR	13	n/a	n/a	n/a	n/a	n/a	n/a	13	3	1	9	n/a	n/a	n/a	n/a	n/a
2232.842	n/a	PROB	1116421	n/a	LTP233	ltpFR	13	n/a	n/a	n/a	n/a	n/a	n/a	12	2	1	9	n/a	n/a	n/a	n/a	n/a
2233.918	n/a	PROB	1116959	n/a	LTP233	ltpFR	13	n/a	n/a	n/a	n/a	n/a	n/a	12	1	4	7	n/a	n/a	n/a	n/a	n/a
2235.052	n/a	PROB	1117526	n/a	LTP233	ltpFR	13	n/a	n/a	n/a	n/a	n/a	n/a	20	6	7	7	n/a	n/a	n/a	n/a	n/a
2236.244	n/a	STOP	1118122	n/a	LTP233	ltpFR	13	n/a	n/a	n/a	n/a	n/a	n/a	n/a	n/a	n/a	n/a	n/a	n/a	n/a	n/a	n/a
2238.766	n/a	WORD	1119383	wordpools/wasnorm_wordpool_less_exclusions.txt	LTP233	ltpFR	13	9	1	VOLLEYBALL	1576	n/a	0	n/a	0	0	0	0	0.5869140625	0.422607421875	upper	../fonts/zerothre.ttf
2241.78	n/a	START	1120890	n/a	LTP233	ltpFR	13	n/a	n/a	n/a	n/a	n/a	n/a	n/a	n/a	n/a	n/a	n/a	n/a	n/a	n/a	n/a
2242.602	n/a	PROB	1121301	n/a	LTP233	ltpFR	13	n/a	n/a	n/a	n/a	n/a	n/a	24	9	7	8	n/a	n/a	n/a	n/a	n/a
2244.322	n/a	PROB	1122161	n/a	LTP233	ltpFR	13	n/a	n/a	n/a	n/a	n/a	n/a	14	4	6	4	n/a	n/a	n/a	n/a	n/a
2245.426	n/a	PROB	1122713	n/a	LTP233	ltpFR	13	n/a	n/a	n/a	n/a	n/a	n/a	15	9	4	2	n/a	n/a	n/a	n/a	n/a
2246.664	n/a	PROB	1123332	n/a	LTP233	ltpFR	13	n/a	n/a	n/a	n/a	n/a	n/a	22	6	9	7	n/a	n/a	n/a	n/a	n/a
2248.404	n/a	PROB	1124202	n/a	LTP233	ltpFR	13	n/a	n/a	n/a	n/a	n/a	n/a	8	4	1	3	n/a	n/a	n/a	n/a	n/a
2249.678	n/a	PROB	1124839	n/a	LTP233	ltpFR	13	n/a	n/a	n/a	n/a	n/a	n/a	11	1	3	7	n/a	n/a	n/a	n/a	n/a
2250.846	n/a	PROB	1125423	n/a	LTP233	ltpFR	13	n/a	n/a	n/a	n/a	n/a	n/a	17	9	5	1	n/a	n/a	n/a	n/a	n/a
2253.242	n/a	PROB	1126621	n/a	LTP233	ltpFR	13	n/a	n/a	n/a	n/a	n/a	n/a	25	8	9	8	n/a	n/a	n/a	n/a	n/a
2255.096	n/a	PROB	1127548	n/a	LTP233	ltpFR	13	n/a	n/a	n/a	n/a	n/a	n/a	14	1	5	9	n/a	n/a	n/a	n/a	n/a
2256.31	n/a	STOP	1128155	n/a	LTP233	ltpFR	13	n/a	n/a	n/a	n/a	n/a	n/a	n/a	n/a	n/a	n/a	n/a	n/a	n/a	n/a	n/a
2258.746	n/a	WORD	1129373	wordpools/wasnorm_wordpool_less_exclusions.txt	LTP233	ltpFR	13	9	1	BALL	73	n/a	0	n/a	0	0	0	0	0.5869140625	0.422607421875	upper	../fonts/zerothre.ttf
2261.758	n/a	START	1130879	n/a	LTP233	ltpFR	13	n/a	n/a	n/a	n/a	n/a	n/a	n/a	n/a	n/a	n/a	n/a	n/a	n/a	n/a	n/a
2262.828	n/a	PROB	1131414	n/a	LTP233	ltpFR	13	n/a	n/a	n/a	n/a	n/a	n/a	12	4	1	7	n/a	n/a	n/a	n/a	n/a
2263.878	n/a	PROB	1131939	n/a	LTP233	ltpFR	13	n/a	n/a	n/a	n/a	n/a	n/a	12	9	2	1	n/a	n/a	n/a	n/a	n/a
2265.802	n/a	PROB	1132901	n/a	LTP233	ltpFR	13	n/a	n/a	n/a	n/a	n/a	n/a	17	6	2	9	n/a	n/a	n/a	n/a	n/a
2267.444	n/a	PROB	1133722	n/a	LTP233	ltpFR	13	n/a	n/a	n/a	n/a	n/a	n/a	19	9	4	6	n/a	n/a	n/a	n/a	n/a
2268.936	n/a	PROB	1134468	n/a	LTP233	ltpFR	13	n/a	n/a	n/a	n/a	n/a	n/a	18	5	7	6	n/a	n/a	n/a	n/a	n/a
2270.106	n/a	PROB	1135053	n/a	LTP233	ltpFR	13	n/a	n/a	n/a	n/a	n/a	n/a	16	1	7	8	n/a	n/a	n/a	n/a	n/a
2272.862	n/a	PROB	1136431	n/a	LTP233	ltpFR	13	n/a	n/a	n/a	n/a	n/a	n/a	14	3	3	8	n/a	n/a	n/a	n/a	n/a
2274.022	n/a	PROB	1137011	n/a	LTP233	ltpFR	13	n/a	n/a	n/a	n/a	n/a	n/a	15	4	5	6	n/a	n/a	n/a	n/a	n/a
2275.256	n/a	PROB	1137628	n/a	LTP233	ltpFR	13	n/a	n/a	n/a	n/a	n/a	n/a	16	8	5	3	n/a	n/a	n/a	n/a	n/a
2276.43	n/a	STOP	1138215	n/a	LTP233	ltpFR	13	n/a	n/a	n/a	n/a	n/a	n/a	n/a	n/a	n/a	n/a	n/a	n/a	n/a	n/a	n/a
2278.756	n/a	WORD	1139378	wordpools/wasnorm_wordpool_less_exclusions.txt	LTP233	ltpFR	13	9	1	CHAIN	273	n/a	0	n/a	0	0	0	0	0.5869140625	0.422607421875	upper	../fonts/zerothre.ttf
2281.768	n/a	START	1140884	n/a	LTP233	ltpFR	13	n/a	n/a	n/a	n/a	n/a	n/a	n/a	n/a	n/a	n/a	n/a	n/a	n/a	n/a	n/a
2282.956	n/a	PROB	1141478	n/a	LTP233	ltpFR	13	n/a	n/a	n/a	n/a	n/a	n/a	10	1	5	4	n/a	n/a	n/a	n/a	n/a
2284.542	n/a	PROB	1142271	n/a	LTP233	ltpFR	13	n/a	n/a	n/a	n/a	n/a	n/a	14	3	8	3	n/a	n/a	n/a	n/a	n/a
2285.632	n/a	PROB	1142816	n/a	LTP233	ltpFR	13	n/a	n/a	n/a	n/a	n/a	n/a	11	3	4	4	n/a	n/a	n/a	n/a	n/a
2286.87	n/a	PROB	1143435	n/a	LTP233	ltpFR	13	n/a	n/a	n/a	n/a	n/a	n/a	20	8	4	8	n/a	n/a	n/a	n/a	n/a
2288.46	n/a	PROB	1144230	n/a	LTP233	ltpFR	13	n/a	n/a	n/a	n/a	n/a	n/a	17	4	5	8	n/a	n/a	n/a	n/a	n/a
2289.644	n/a	PROB	1144822	n/a	LTP233	ltpFR	13	n/a	n/a	n/a	n/a	n/a	n/a	19	6	7	6	n/a	n/a	n/a	n/a	n/a
2290.97	n/a	PROB	1145485	n/a	LTP233	ltpFR	13	n/a	n/a	n/a	n/a	n/a	n/a	14	3	6	5	n/a	n/a	n/a	n/a	n/a
2293.324	n/a	PROB	1146662	n/a	LTP233	ltpFR	13	n/a	n/a	n/a	n/a	n/a	n/a	16	7	3	6	n/a	n/a	n/a	n/a	n/a
2294.682	n/a	PROB	1147341	n/a	LTP233	ltpFR	13	n/a	n/a	n/a	n/a	n/a	n/a	17	7	1	9	n/a	n/a	n/a	n/a	n/a
2295.916	n/a	PROB	1147958	n/a	LTP233	ltpFR	13	n/a	n/a	n/a	n/a	n/a	n/a	12	3	2	7	n/a	n/a	n/a	n/a	n/a
2296.846	n/a	STOP	1148423	n/a	LTP233	ltpFR	13	n/a	n/a	n/a	n/a	n/a	n/a	n/a	n/a	n/a	n/a	n/a	n/a	n/a	n/a	n/a
2298.832	n/a	WORD	1149416	wordpools/wasnorm_wordpool_less_exclusions.txt	LTP233	ltpFR	13	9	1	STRING	1394	n/a	0	n/a	0	0	0	0	0.5869140625	0.422607421875	upper	../fonts/zerothre.ttf
2301.844	n/a	START	1150922	n/a	LTP233	ltpFR	13	n/a	n/a	n/a	n/a	n/a	n/a	n/a	n/a	n/a	n/a	n/a	n/a	n/a	n/a	n/a
2302.764	n/a	PROB	1151382	n/a	LTP233	ltpFR	13	n/a	n/a	n/a	n/a	n/a	n/a	12	2	8	2	n/a	n/a	n/a	n/a	n/a
2304.184	n/a	PROB	1152092	n/a	LTP233	ltpFR	13	n/a	n/a	n/a	n/a	n/a	n/a	22	5	9	8	n/a	n/a	n/a	n/a	n/a
2305.692	n/a	PROB	1152846	n/a	LTP233	ltpFR	13	n/a	n/a	n/a	n/a	n/a	n/a	9	3	3	3	n/a	n/a	n/a	n/a	n/a
2306.926	n/a	PROB	1153463	n/a	LTP233	ltpFR	13	n/a	n/a	n/a	n/a	n/a	n/a	17	3	9	5	n/a	n/a	n/a	n/a	n/a
2308.516	n/a	PROB	1154258	n/a	LTP233	ltpFR	13	n/a	n/a	n/a	n/a	n/a	n/a	16	9	3	4	n/a	n/a	n/a	n/a	n/a
2309.972	n/a	PROB	1154986	n/a	LTP233	ltpFR	13	n/a	n/a	n/a	n/a	n/a	n/a	10	3	2	5	n/a	n/a	n/a	n/a	n/a
2311.912	n/a	PROB	1155956	n/a	LTP233	ltpFR	13	n/a	n/a	n/a	n/a	n/a	n/a	16	5	8	3	n/a	n/a	n/a	n/a	n/a
2313.618	n/a	PROB	1156809	n/a	LTP233	ltpFR	13	n/a	n/a	n/a	n/a	n/a	n/a	11	2	7	2	n/a	n/a	n/a	n/a	n/a
2315.876	n/a	PROB	1157938	n/a	LTP233	ltpFR	13	n/a	n/a	n/a	n/a	n/a	n/a	16	2	9	5	n/a	n/a	n/a	n/a	n/a
2317.08	n/a	STOP	1158540	n/a	LTP233	ltpFR	13	n/a	n/a	n/a	n/a	n/a	n/a	n/a	n/a	n/a	n/a	n/a	n/a	n/a	n/a	n/a
2318.81	n/a	WORD	1159405	wordpools/wasnorm_wordpool_less_exclusions.txt	LTP233	ltpFR	13	9	1	HERO	706	n/a	1	n/a	0	0	0	0	0.5869140625	0.422607421875	upper	../fonts/zerothre.ttf
2321.82	n/a	START	1160910	n/a	LTP233	ltpFR	13	n/a	n/a	n/a	n/a	n/a	n/a	n/a	n/a	n/a	n/a	n/a	n/a	n/a	n/a	n/a
2322.808	n/a	PROB	1161404	n/a	LTP233	ltpFR	13	n/a	n/a	n/a	n/a	n/a	n/a	13	2	9	2	n/a	n/a	n/a	n/a	n/a
2323.874	n/a	PROB	1161937	n/a	LTP233	ltpFR	13	n/a	n/a	n/a	n/a	n/a	n/a	11	1	4	6	n/a	n/a	n/a	n/a	n/a
2324.966	n/a	PROB	1162483	n/a	LTP233	ltpFR	13	n/a	n/a	n/a	n/a	n/a	n/a	16	4	6	6	n/a	n/a	n/a	n/a	n/a
2326.134	n/a	PROB	1163067	n/a	LTP233	ltpFR	13	n/a	n/a	n/a	n/a	n/a	n/a	19	7	5	7	n/a	n/a	n/a	n/a	n/a
2327.288	n/a	PROB	1163644	n/a	LTP233	ltpFR	13	n/a	n/a	n/a	n/a	n/a	n/a	13	9	4	2	n/a	n/a	n/a	n/a	n/a
2328.342	n/a	PROB	1164171	n/a	LTP233	ltpFR	13	n/a	n/a	n/a	n/a	n/a	n/a	13	4	7	2	n/a	n/a	n/a	n/a	n/a
2329.764	n/a	PROB	1164882	n/a	LTP233	ltpFR	13	n/a	n/a	n/a	n/a	n/a	n/a	11	1	4	6	n/a	n/a	n/a	n/a	n/a
2330.99	n/a	PROB	1165495	n/a	LTP233	ltpFR	13	n/a	n/a	n/a	n/a	n/a	n/a	21	8	9	4	n/a	n/a	n/a	n/a	n/a
2332.206	n/a	PROB	1166103	n/a	LTP233	ltpFR	13	n/a	n/a	n/a	n/a	n/a	n/a	19	7	4	8	n/a	n/a	n/a	n/a	n/a
2333.716	n/a	PROB	1166858	n/a	LTP233	ltpFR	13	n/a	n/a	n/a	n/a	n/a	n/a	15	3	9	3	n/a	n/a	n/a	n/a	n/a
2334.85	n/a	PROB	1167425	n/a	LTP233	ltpFR	13	n/a	n/a	n/a	n/a	n/a	n/a	13	2	3	8	n/a	n/a	n/a	n/a	n/a
2336.004	n/a	PROB	1168002	n/a	LTP233	ltpFR	13	n/a	n/a	n/a	n/a	n/a	n/a	10	3	2	5	n/a	n/a	n/a	n/a	n/a
2337.138	n/a	STOP	1168569	n/a	LTP233	ltpFR	13	n/a	n/a	n/a	n/a	n/a	n/a	n/a	n/a	n/a	n/a	n/a	n/a	n/a	n/a	n/a
2338.886	n/a	WORD	1169443	wordpools/wasnorm_wordpool_less_exclusions.txt	LTP233	ltpFR	13	9	1	TROUSERS	1510	n/a	0	n/a	0	0	0	0	0.5869140625	0.422607421875	upper	../fonts/zerothre.ttf
2341.898	n/a	START	1170949	n/a	LTP233	ltpFR	13	n/a	n/a	n/a	n/a	n/a	n/a	n/a	n/a	n/a	n/a	n/a	n/a	n/a	n/a	n/a
2342.834	n/a	PROB	1171417	n/a	LTP233	ltpFR	13	n/a	n/a	n/a	n/a	n/a	n/a	21	8	9	2	n/a	n/a	n/a	n/a	n/a
2344.358	n/a	PROB	1172179	n/a	LTP233	ltpFR	13	n/a	n/a	n/a	n/a	n/a	n/a	19	8	2	9	n/a	n/a	n/a	n/a	n/a
2345.676	n/a	PROB	1172838	n/a	LTP233	ltpFR	13	n/a	n/a	n/a	n/a	n/a	n/a	19	3	7	9	n/a	n/a	n/a	n/a	n/a
2346.796	n/a	PROB	1173398	n/a	LTP233	ltpFR	13	n/a	n/a	n/a	n/a	n/a	n/a	11	1	3	7	n/a	n/a	n/a	n/a	n/a
2347.798	n/a	PROB	1173899	n/a	LTP233	ltpFR	13	n/a	n/a	n/a	n/a	n/a	n/a	13	3	1	9	n/a	n/a	n/a	n/a	n/a
2348.902	n/a	PROB	1174451	n/a	LTP233	ltpFR	13	n/a	n/a	n/a	n/a	n/a	n/a	14	7	2	5	n/a	n/a	n/a	n/a	n/a
2350.46	n/a	PROB	1175230	n/a	LTP233	ltpFR	13	n/a	n/a	n/a	n/a	n/a	n/a	6	1	2	3	n/a	n/a	n/a	n/a	n/a
2351.602	n/a	PROB	1175801	n/a	LTP233	ltpFR	13	n/a	n/a	n/a	n/a	n/a	n/a	17	9	5	3	n/a	n/a	n/a	n/a	n/a
2352.99	n/a	PROB	1176495	n/a	LTP233	ltpFR	13	n/a	n/a	n/a	n/a	n/a	n/a	7	2	3	2	n/a	n/a	n/a	n/a	n/a
2354.976	n/a	PROB	1177488	n/a	LTP233	ltpFR	13	n/a	n/a	n/a	n/a	n/a	n/a	10	4	5	1	n/a	n/a	n/a	n/a	n/a
2356.118	n/a	PROB	1178059	n/a	LTP233	ltpFR	13	n/a	n/a	n/a	n/a	n/a	n/a	19	8	5	6	n/a	n/a	n/a	n/a	n/a
2357.212	n/a	STOP	1178606	n/a	LTP233	ltpFR	13	n/a	n/a	n/a	n/a	n/a	n/a	n/a	n/a	n/a	n/a	n/a	n/a	n/a	n/a	n/a
2358.762	n/a	WORD	1179381	wordpools/wasnorm_wordpool_less_exclusions.txt	LTP233	ltpFR	13	9	1	SQUID	1361	n/a	1	n/a	0	0	0	0	0.5869140625	0.422607421875	upper	../fonts/zerothre.ttf
2361.774	n/a	START	1180887	n/a	LTP233	ltpFR	13	n/a	n/a	n/a	n/a	n/a	n/a	n/a	n/a	n/a	n/a	n/a	n/a	n/a	n/a	n/a
2362.894	n/a	PROB	1181447	n/a	LTP233	ltpFR	13	n/a	n/a	n/a	n/a	n/a	n/a	17	4	6	7	n/a	n/a	n/a	n/a	n/a
2364.062	n/a	PROB	1182031	n/a	LTP233	ltpFR	13	n/a	n/a	n/a	n/a	n/a	n/a	18	8	9	1	n/a	n/a	n/a	n/a	n/a
2365.288	n/a	PROB	1182644	n/a	LTP233	ltpFR	13	n/a	n/a	n/a	n/a	n/a	n/a	22	8	8	6	n/a	n/a	n/a	n/a	n/a
2366.638	n/a	PROB	1183319	n/a	LTP233	ltpFR	13	n/a	n/a	n/a	n/a	n/a	n/a	17	2	9	6	n/a	n/a	n/a	n/a	n/a
2367.96	n/a	PROB	1183980	n/a	LTP233	ltpFR	13	n/a	n/a	n/a	n/a	n/a	n/a	16	6	7	3	n/a	n/a	n/a	n/a	n/a
2369.114	n/a	PROB	1184557	n/a	LTP233	ltpFR	13	n/a	n/a	n/a	n/a	n/a	n/a	20	6	9	5	n/a	n/a	n/a	n/a	n/a
2370.84	n/a	PROB	1185420	n/a	LTP233	ltpFR	13	n/a	n/a	n/a	n/a	n/a	n/a	17	5	3	9	n/a	n/a	n/a	n/a	n/a
