mstime	trial_type	stim_file	subject	experiment	session	trial	item_name	item_num	list	answer	test_x	test_y	test_z
0	SESS_START	n/a	LTP283	ltpFR2	14	n/a	n/a	n/a	n/a	n/a	0	0	0
18534	START	n/a	LTP283	ltpFR2	14	n/a	n/a	n/a	-1	n/a	n/a	n/a	n/a
18563	PROB	n/a	LTP283	ltpFR2	14	n/a	n/a	n/a	-1	18	9	2	7
20105	PROB	n/a	LTP283	ltpFR2	14	n/a	n/a	n/a	-1	15	5	1	9
21416	PROB	n/a	LTP283	ltpFR2	14	n/a	n/a	n/a	-1	20	9	2	9
22686	PROB	n/a	LTP283	ltpFR2	14	n/a	n/a	n/a	-1	16	5	3	8
24047	PROB	n/a	LTP283	ltpFR2	14	n/a	n/a	n/a	-1	20	7	5	8
25297	PROB	n/a	LTP283	ltpFR2	14	n/a	n/a	n/a	-1	19	5	6	8
26748	PROB	n/a	LTP283	ltpFR2	14	n/a	n/a	n/a	-1	20	8	8	4
28499	PROB	n/a	LTP283	ltpFR2	14	n/a	n/a	n/a	-1	11	6	3	2
29971	STOP	n/a	LTP283	ltpFR2	14	n/a	n/a	n/a	-1	n/a	n/a	n/a	n/a
71118	WORD	wordpools/wasnorm_wordpool_576.txt	LTP283	ltpFR2	14	1	MONEY	908	n/a	n/a	0	0	0
73942	WORD	wordpools/wasnorm_wordpool_576.txt	LTP283	ltpFR2	14	1	BRIEFCASE	175	n/a	n/a	0	0	0
76710	WORD	wordpools/wasnorm_wordpool_576.txt	LTP283	ltpFR2	14	1	HOOK	715	n/a	n/a	0	0	0
79212	WORD	wordpools/wasnorm_wordpool_576.txt	LTP283	ltpFR2	14	1	RAZOR	1171	n/a	n/a	0	0	0
81982	WORD	wordpools/wasnorm_wordpool_576.txt	LTP283	ltpFR2	14	1	PRINCESS	1125	n/a	n/a	0	0	0
84699	WORD	wordpools/wasnorm_wordpool_576.txt	LTP283	ltpFR2	14	1	BELLY	119	n/a	n/a	0	0	0
87235	WORD	wordpools/wasnorm_wordpool_576.txt	LTP283	ltpFR2	14	1	DASHBOARD	441	n/a	n/a	0	0	0
89804	WORD	wordpools/wasnorm_wordpool_576.txt	LTP283	ltpFR2	14	1	GIFT	635	n/a	n/a	0	0	0
92558	WORD	wordpools/wasnorm_wordpool_576.txt	LTP283	ltpFR2	14	1	CASHEW	253	n/a	n/a	0	0	0
95161	WORD	wordpools/wasnorm_wordpool_576.txt	LTP283	ltpFR2	14	1	PECAN	1036	n/a	n/a	0	0	0
97676	WORD	wordpools/wasnorm_wordpool_576.txt	LTP283	ltpFR2	14	1	DRESS	495	n/a	n/a	0	0	0
100212	WORD	wordpools/wasnorm_wordpool_576.txt	LTP283	ltpFR2	14	1	CRATER	400	n/a	n/a	0	0	0
102799	WORD	wordpools/wasnorm_wordpool_576.txt	LTP283	ltpFR2	14	1	TROMBONE	1508	n/a	n/a	0	0	0
105384	WORD	wordpools/wasnorm_wordpool_576.txt	LTP283	ltpFR2	14	1	LAPEL	800	n/a	n/a	0	0	0
108170	WORD	wordpools/wasnorm_wordpool_576.txt	LTP283	ltpFR2	14	1	LACE	792	n/a	n/a	0	0	0
110890	WORD	wordpools/wasnorm_wordpool_576.txt	LTP283	ltpFR2	14	1	TOASTER	1472	n/a	n/a	0	0	0
113356	WORD	wordpools/wasnorm_wordpool_576.txt	LTP283	ltpFR2	14	1	SKIRT	1319	n/a	n/a	0	0	0
115943	WORD	wordpools/wasnorm_wordpool_576.txt	LTP283	ltpFR2	14	1	LEOPARD	812	n/a	n/a	0	0	0
118527	WORD	wordpools/wasnorm_wordpool_576.txt	LTP283	ltpFR2	14	1	BEAST	108	n/a	n/a	0	0	0
121262	WORD	wordpools/wasnorm_wordpool_576.txt	LTP283	ltpFR2	14	1	BOARD	143	n/a	n/a	0	0	0
123798	WORD	wordpools/wasnorm_wordpool_576.txt	LTP283	ltpFR2	14	1	BUTCHER	203	n/a	n/a	0	0	0
126566	WORD	wordpools/wasnorm_wordpool_576.txt	LTP283	ltpFR2	14	1	BANQUET	86	n/a	n/a	0	0	0
129235	WORD	wordpools/wasnorm_wordpool_576.txt	LTP283	ltpFR2	14	1	COMPASS	358	n/a	n/a	0	0	0
131805	WORD	wordpools/wasnorm_wordpool_576.txt	LTP283	ltpFR2	14	1	CLOCK	325	n/a	n/a	0	0	0
133423	START	n/a	LTP283	ltpFR2	14	n/a	n/a	n/a	1	n/a	n/a	n/a	n/a
134329	DISTRACTOR	n/a	LTP283	ltpFR2	14	1	n/a	n/a	n/a	n/a	0	0	0
134340	PROB	n/a	LTP283	ltpFR2	14	n/a	n/a	n/a	1	12	1	8	3
135802	PROB	n/a	LTP283	ltpFR2	14	n/a	n/a	n/a	1	13	2	9	2
137327	PROB	n/a	LTP283	ltpFR2	14	n/a	n/a	n/a	1	16	3	8	5
138989	PROB	n/a	LTP283	ltpFR2	14	n/a	n/a	n/a	1	17	4	7	6
140410	PROB	n/a	LTP283	ltpFR2	14	n/a	n/a	n/a	1	8	3	1	4
141590	PROB	n/a	LTP283	ltpFR2	14	n/a	n/a	n/a	1	9	2	2	5
142863	PROB	n/a	LTP283	ltpFR2	14	n/a	n/a	n/a	1	14	3	9	2
144280	PROB	n/a	LTP283	ltpFR2	14	n/a	n/a	n/a	1	11	5	4	2
146011	PROB	n/a	LTP283	ltpFR2	14	n/a	n/a	n/a	1	17	8	2	7
149451	PROB	n/a	LTP283	ltpFR2	14	n/a	n/a	n/a	1	12	7	3	2
150831	PROB	n/a	LTP283	ltpFR2	14	n/a	n/a	n/a	1	21	5	9	7
153867	PROB	n/a	LTP283	ltpFR2	14	n/a	n/a	n/a	1	11	4	4	3
155140	PROB	n/a	LTP283	ltpFR2	14	n/a	n/a	n/a	1	9	4	3	2
156615	STOP	n/a	LTP283	ltpFR2	14	n/a	n/a	n/a	1	n/a	n/a	n/a	n/a
159205	REC_START	n/a	LTP283	ltpFR2	14	1	n/a	n/a	n/a	n/a	0	0	0
162673	REC_WORD	wordpools/wasnorm_wordpool_576.txt	LTP283	ltpFR2	14	1	BEAST	108	n/a	n/a	0	0	0
163437	REC_WORD	wordpools/wasnorm_wordpool_576.txt	LTP283	ltpFR2	14	1	BOARD	143	n/a	n/a	0	0	0
164410	REC_WORD	wordpools/wasnorm_wordpool_576.txt	LTP283	ltpFR2	14	1	BANQUET	86	n/a	n/a	0	0	0
165257	REC_WORD	wordpools/wasnorm_wordpool_576.txt	LTP283	ltpFR2	14	1	BUTCHER	203	n/a	n/a	0	0	0
168032	REC_WORD	wordpools/wasnorm_wordpool_576.txt	LTP283	ltpFR2	14	1	DRESS	495	n/a	n/a	0	0	0
168741	REC_WORD	wordpools/wasnorm_wordpool_576.txt	LTP283	ltpFR2	14	1	SKIRT	1319	n/a	n/a	0	0	0
169869	REC_WORD	wordpools/wasnorm_wordpool_576.txt	LTP283	ltpFR2	14	1	LEOPARD	812	n/a	n/a	0	0	0
170613	REC_WORD	wordpools/wasnorm_wordpool_576.txt	LTP283	ltpFR2	14	1	TOASTER	1472	n/a	n/a	0	0	0
172279	REC_WORD	wordpools/wasnorm_wordpool_576.txt	LTP283	ltpFR2	14	1	LAPEL	800	n/a	n/a	0	0	0
173183	REC_WORD	wordpools/wasnorm_wordpool_576.txt	LTP283	ltpFR2	14	1	LACE	792	n/a	n/a	0	0	0
175758	REC_WORD	wordpools/wasnorm_wordpool_576.txt	LTP283	ltpFR2	14	1	MONEY	908	n/a	n/a	0	0	0
176395	REC_WORD	wordpools/wasnorm_wordpool_576.txt	LTP283	ltpFR2	14	1	BRIEFCASE	175	n/a	n/a	0	0	0
177318	REC_WORD	wordpools/wasnorm_wordpool_576.txt	LTP283	ltpFR2	14	1	RAZOR	1171	n/a	n/a	0	0	0
184197	REC_WORD	wordpools/wasnorm_wordpool_576.txt	LTP283	ltpFR2	14	1	DASHBOARD	441	n/a	n/a	0	0	0
185308	REC_WORD_VV	wordpools/wasnorm_wordpool_576.txt	LTP283	ltpFR2	14	1	<>	-1	n/a	n/a	0	0	0
197945	REC_WORD	wordpools/wasnorm_wordpool_576.txt	LTP283	ltpFR2	14	1	CLOCK	325	n/a	n/a	0	0	0
199084	REC_WORD	wordpools/wasnorm_wordpool_576.txt	LTP283	ltpFR2	14	1	COMPASS	358	n/a	n/a	0	0	0
229347	REC_WORD	wordpools/wasnorm_wordpool_576.txt	LTP283	ltpFR2	14	1	CRATER	400	n/a	n/a	0	0	0
249699	DISTRACTOR	n/a	LTP283	ltpFR2	14	2	n/a	n/a	n/a	n/a	0	0	0
249699	START	n/a	LTP283	ltpFR2	14	n/a	n/a	n/a	2	n/a	n/a	n/a	n/a
249730	PROB	n/a	LTP283	ltpFR2	14	n/a	n/a	n/a	2	13	3	2	8
251152	PROB	n/a	LTP283	ltpFR2	14	n/a	n/a	n/a	2	18	8	9	1
252346	PROB	n/a	LTP283	ltpFR2	14	n/a	n/a	n/a	2	15	4	7	4
253896	PROB	n/a	LTP283	ltpFR2	14	n/a	n/a	n/a	2	22	6	7	9
256040	PROB	n/a	LTP283	ltpFR2	14	n/a	n/a	n/a	2	10	2	3	5
257287	PROB	n/a	LTP283	ltpFR2	14	n/a	n/a	n/a	2	21	8	4	9
258499	PROB	n/a	LTP283	ltpFR2	14	n/a	n/a	n/a	2	12	1	4	7
260223	PROB	n/a	LTP283	ltpFR2	14	n/a	n/a	n/a	2	14	6	5	3
263192	PROB	n/a	LTP283	ltpFR2	14	n/a	n/a	n/a	2	12	4	6	2
264560	PROB	n/a	LTP283	ltpFR2	14	n/a	n/a	n/a	2	8	6	1	1
265706	PROB	n/a	LTP283	ltpFR2	14	n/a	n/a	n/a	2	24	9	8	7
269299	PROB	n/a	LTP283	ltpFR2	14	n/a	n/a	n/a	2	11	1	5	5
270547	PROB	n/a	LTP283	ltpFR2	14	n/a	n/a	n/a	2	20	8	5	7
271799	PROB	n/a	LTP283	ltpFR2	14	n/a	n/a	n/a	2	8	5	2	1
272979	STOP	n/a	LTP283	ltpFR2	14	n/a	n/a	n/a	2	n/a	n/a	n/a	n/a
274717	WORD	wordpools/wasnorm_wordpool_576.txt	LTP283	ltpFR2	14	2	PACKAGE	997	n/a	n/a	0	0	0
277254	WORD	wordpools/wasnorm_wordpool_576.txt	LTP283	ltpFR2	14	2	GALLON	618	n/a	n/a	0	0	0
279806	WORD	wordpools/wasnorm_wordpool_576.txt	LTP283	ltpFR2	14	2	MILK	895	n/a	n/a	0	0	0
282473	WORD	wordpools/wasnorm_wordpool_576.txt	LTP283	ltpFR2	14	2	GARLIC	624	n/a	n/a	0	0	0
285095	WORD	wordpools/wasnorm_wordpool_576.txt	LTP283	ltpFR2	14	2	BRANDY	169	n/a	n/a	0	0	0
287862	WORD	wordpools/wasnorm_wordpool_576.txt	LTP283	ltpFR2	14	2	PLAID	1080	n/a	n/a	0	0	0
290482	WORD	wordpools/wasnorm_wordpool_576.txt	LTP283	ltpFR2	14	2	PEANUT	1032	n/a	n/a	0	0	0
293101	WORD	wordpools/wasnorm_wordpool_576.txt	LTP283	ltpFR2	14	2	COLONEL	348	n/a	n/a	0	0	0
295751	WORD	wordpools/wasnorm_wordpool_576.txt	LTP283	ltpFR2	14	2	ANKLE	24	n/a	n/a	0	0	0
298436	WORD	wordpools/wasnorm_wordpool_576.txt	LTP283	ltpFR2	14	2	OMELET	976	n/a	n/a	0	0	0
301172	WORD	wordpools/wasnorm_wordpool_576.txt	LTP283	ltpFR2	14	2	TEACHER	1440	n/a	n/a	0	0	0
303895	WORD	wordpools/wasnorm_wordpool_576.txt	LTP283	ltpFR2	14	2	SEAL	1262	n/a	n/a	0	0	0
306693	WORD	wordpools/wasnorm_wordpool_576.txt	LTP283	ltpFR2	14	2	WRENCH	1625	n/a	n/a	0	0	0
309245	WORD	wordpools/wasnorm_wordpool_576.txt	LTP283	ltpFR2	14	2	DRILL	497	n/a	n/a	0	0	0
312032	WORD	wordpools/wasnorm_wordpool_576.txt	LTP283	ltpFR2	14	2	PERFUME	1049	n/a	n/a	0	0	0
314618	WORD	wordpools/wasnorm_wordpool_576.txt	LTP283	ltpFR2	14	2	TREAT	1501	n/a	n/a	0	0	0
317053	WORD	wordpools/wasnorm_wordpool_576.txt	LTP283	ltpFR2	14	2	PUPIL	1143	n/a	n/a	0	0	0
319771	WORD	wordpools/wasnorm_wordpool_576.txt	LTP283	ltpFR2	14	2	FRUIT	610	n/a	n/a	0	0	0
322205	WORD	wordpools/wasnorm_wordpool_576.txt	LTP283	ltpFR2	14	2	PATIENT	1024	n/a	n/a	0	0	0
324926	WORD	wordpools/wasnorm_wordpool_576.txt	LTP283	ltpFR2	14	2	LABEL	790	n/a	n/a	0	0	0
327377	WORD	wordpools/wasnorm_wordpool_576.txt	LTP283	ltpFR2	14	2	DRESSER	496	n/a	n/a	0	0	0
330113	WORD	wordpools/wasnorm_wordpool_576.txt	LTP283	ltpFR2	14	2	BACON	67	n/a	n/a	0	0	0
332631	WORD	wordpools/wasnorm_wordpool_576.txt	LTP283	ltpFR2	14	2	STUDENT	1395	n/a	n/a	0	0	0
335334	WORD	wordpools/wasnorm_wordpool_576.txt	LTP283	ltpFR2	14	2	COLLEGE	346	n/a	n/a	0	0	0
336952	START	n/a	LTP283	ltpFR2	14	n/a	n/a	n/a	3	n/a	n/a	n/a	n/a
338098	DISTRACTOR	n/a	LTP283	ltpFR2	14	2	n/a	n/a	n/a	n/a	0	0	0
338119	PROB	n/a	LTP283	ltpFR2	14	n/a	n/a	n/a	3	18	8	3	7
339531	PROB	n/a	LTP283	ltpFR2	14	n/a	n/a	n/a	3	18	8	3	7
340788	PROB	n/a	LTP283	ltpFR2	14	n/a	n/a	n/a	3	17	4	4	9
342134	PROB	n/a	LTP283	ltpFR2	14	n/a	n/a	n/a	3	10	3	3	4
343768	PROB	n/a	LTP283	ltpFR2	14	n/a	n/a	n/a	3	5	3	1	1
345005	PROB	n/a	LTP283	ltpFR2	14	n/a	n/a	n/a	3	18	2	9	7
347137	PROB	n/a	LTP283	ltpFR2	14	n/a	n/a	n/a	3	17	1	7	9
348654	PROB	n/a	LTP283	ltpFR2	14	n/a	n/a	n/a	3	12	9	2	1
349995	PROB	n/a	LTP283	ltpFR2	14	n/a	n/a	n/a	3	12	2	3	7
351307	PROB	n/a	LTP283	ltpFR2	14	n/a	n/a	n/a	3	15	7	1	7
352726	PROB	n/a	LTP283	ltpFR2	14	n/a	n/a	n/a	3	15	1	7	7
353848	PROB	n/a	LTP283	ltpFR2	14	n/a	n/a	n/a	3	17	1	7	9
355902	PROB	n/a	LTP283	ltpFR2	14	n/a	n/a	n/a	3	11	8	1	2
357736	PROB	n/a	LTP283	ltpFR2	14	n/a	n/a	n/a	3	13	8	2	3
359477	STOP	n/a	LTP283	ltpFR2	14	n/a	n/a	n/a	3	n/a	n/a	n/a	n/a
362739	REC_START	n/a	LTP283	ltpFR2	14	2	n/a	n/a	n/a	n/a	0	0	0
365081	REC_WORD	wordpools/wasnorm_wordpool_576.txt	LTP283	ltpFR2	14	2	PACKAGE	997	n/a	n/a	0	0	0
365750	REC_WORD	wordpools/wasnorm_wordpool_576.txt	LTP283	ltpFR2	14	2	GALLON	618	n/a	n/a	0	0	0
366171	REC_WORD	wordpools/wasnorm_wordpool_576.txt	LTP283	ltpFR2	14	2	MILK	895	n/a	n/a	0	0	0
367219	REC_WORD	wordpools/wasnorm_wordpool_576.txt	LTP283	ltpFR2	14	2	GARLIC	624	n/a	n/a	0	0	0
367722	REC_WORD	wordpools/wasnorm_wordpool_576.txt	LTP283	ltpFR2	14	2	BRANDY	169	n/a	n/a	0	0	0
369258	REC_WORD	wordpools/wasnorm_wordpool_576.txt	LTP283	ltpFR2	14	2	PEANUT	1032	n/a	n/a	0	0	0
372898	REC_WORD	wordpools/wasnorm_wordpool_576.txt	LTP283	ltpFR2	14	2	ANKLE	24	n/a	n/a	0	0	0
373413	REC_WORD	wordpools/wasnorm_wordpool_576.txt	LTP283	ltpFR2	14	2	COLONEL	348	n/a	n/a	0	0	0
373804	REC_WORD	wordpools/wasnorm_wordpool_576.txt	LTP283	ltpFR2	14	2	SEAL	1262	n/a	n/a	0	0	0
374833	REC_WORD	wordpools/wasnorm_wordpool_576.txt	LTP283	ltpFR2	14	2	TEACHER	1440	n/a	n/a	0	0	0
377151	REC_WORD	wordpools/wasnorm_wordpool_576.txt	LTP283	ltpFR2	14	2	PUPIL	1143	n/a	n/a	0	0	0
377918	REC_WORD	wordpools/wasnorm_wordpool_576.txt	LTP283	ltpFR2	14	2	STUDENT	1395	n/a	n/a	0	0	0
385552	REC_WORD	wordpools/wasnorm_wordpool_576.txt	LTP283	ltpFR2	14	2	PATIENT	1024	n/a	n/a	0	0	0
386304	REC_WORD	wordpools/wasnorm_wordpool_576.txt	LTP283	ltpFR2	14	2	FRUIT	610	n/a	n/a	0	0	0
387304	REC_WORD_VV	wordpools/wasnorm_wordpool_576.txt	LTP283	ltpFR2	14	2	<>	-1	n/a	n/a	0	0	0
389234	REC_WORD	wordpools/wasnorm_wordpool_576.txt	LTP283	ltpFR2	14	2	OMELET	976	n/a	n/a	0	0	0
389718	REC_WORD	wordpools/wasnorm_wordpool_576.txt	LTP283	ltpFR2	14	2	BACON	67	n/a	n/a	0	0	0
390306	REC_WORD	wordpools/wasnorm_wordpool_576.txt	LTP283	ltpFR2	14	2	TREAT	1501	n/a	n/a	0	0	0
394247	REC_WORD	wordpools/wasnorm_wordpool_576.txt	LTP283	ltpFR2	14	2	WRENCH	1625	n/a	n/a	0	0	0
395330	REC_WORD	wordpools/wasnorm_wordpool_576.txt	LTP283	ltpFR2	14	2	DRILL	497	n/a	n/a	0	0	0
395935	REC_WORD	wordpools/wasnorm_wordpool_576.txt	LTP283	ltpFR2	14	2	DRESSER	496	n/a	n/a	0	0	0
405871	REC_WORD	wordpools/wasnorm_wordpool_576.txt	LTP283	ltpFR2	14	2	COLLEGE	346	n/a	n/a	0	0	0
410178	REC_WORD	wordpools/wasnorm_wordpool_576.txt	LTP283	ltpFR2	14	2	ANKLE	24	n/a	n/a	0	0	0
453261	DISTRACTOR	n/a	LTP283	ltpFR2	14	3	n/a	n/a	n/a	n/a	0	0	0
453261	START	n/a	LTP283	ltpFR2	14	n/a	n/a	n/a	4	n/a	n/a	n/a	n/a
453293	PROB	n/a	LTP283	ltpFR2	14	n/a	n/a	n/a	4	21	7	5	9
456206	PROB	n/a	LTP283	ltpFR2	14	n/a	n/a	n/a	4	16	7	6	3
458076	PROB	n/a	LTP283	ltpFR2	14	n/a	n/a	n/a	4	7	1	5	1
459647	PROB	n/a	LTP283	ltpFR2	14	n/a	n/a	n/a	4	14	6	4	4
461700	PROB	n/a	LTP283	ltpFR2	14	n/a	n/a	n/a	4	11	2	6	3
463096	PROB	n/a	LTP283	ltpFR2	14	n/a	n/a	n/a	4	7	2	2	3
464803	PROB	n/a	LTP283	ltpFR2	14	n/a	n/a	n/a	4	13	2	5	6
466470	PROB	n/a	LTP283	ltpFR2	14	n/a	n/a	n/a	4	21	8	6	7
467883	PROB	n/a	LTP283	ltpFR2	14	n/a	n/a	n/a	4	14	8	5	1
469534	PROB	n/a	LTP283	ltpFR2	14	n/a	n/a	n/a	4	19	9	1	9
471303	PROB	n/a	LTP283	ltpFR2	14	n/a	n/a	n/a	4	15	5	1	9
472960	PROB	n/a	LTP283	ltpFR2	14	n/a	n/a	n/a	4	21	9	8	6
474304	PROB	n/a	LTP283	ltpFR2	14	n/a	n/a	n/a	4	12	1	6	5
475882	STOP	n/a	LTP283	ltpFR2	14	n/a	n/a	n/a	4	n/a	n/a	n/a	n/a
478446	WORD	wordpools/wasnorm_wordpool_576.txt	LTP283	ltpFR2	14	3	ANTLER	29	n/a	n/a	0	0	0
481232	WORD	wordpools/wasnorm_wordpool_576.txt	LTP283	ltpFR2	14	3	GAZELLE	628	n/a	n/a	0	0	0
483736	WORD	wordpools/wasnorm_wordpool_576.txt	LTP283	ltpFR2	14	3	WORLD	1622	n/a	n/a	0	0	0
486187	WORD	wordpools/wasnorm_wordpool_576.txt	LTP283	ltpFR2	14	3	SHORTS	1293	n/a	n/a	0	0	0
488956	WORD	wordpools/wasnorm_wordpool_576.txt	LTP283	ltpFR2	14	3	PROTON	1132	n/a	n/a	0	0	0
491474	WORD	wordpools/wasnorm_wordpool_576.txt	LTP283	ltpFR2	14	3	LONDON	843	n/a	n/a	0	0	0
494242	WORD	wordpools/wasnorm_wordpool_576.txt	LTP283	ltpFR2	14	3	VICTIM	1562	n/a	n/a	0	0	0
497063	WORD	wordpools/wasnorm_wordpool_576.txt	LTP283	ltpFR2	14	3	OUTLAW	989	n/a	n/a	0	0	0
499714	WORD	wordpools/wasnorm_wordpool_576.txt	LTP283	ltpFR2	14	3	OX	994	n/a	n/a	0	0	0
502349	WORD	wordpools/wasnorm_wordpool_576.txt	LTP283	ltpFR2	14	3	TYPIST	1532	n/a	n/a	0	0	0
504902	WORD	wordpools/wasnorm_wordpool_576.txt	LTP283	ltpFR2	14	3	PLUTO	1092	n/a	n/a	0	0	0
507353	WORD	wordpools/wasnorm_wordpool_576.txt	LTP283	ltpFR2	14	3	PIANO	1057	n/a	n/a	0	0	0
509856	WORD	wordpools/wasnorm_wordpool_576.txt	LTP283	ltpFR2	14	3	GARBAGE	622	n/a	n/a	0	0	0
512407	WORD	wordpools/wasnorm_wordpool_576.txt	LTP283	ltpFR2	14	3	WRIST	1626	n/a	n/a	0	0	0
515226	WORD	wordpools/wasnorm_wordpool_576.txt	LTP283	ltpFR2	14	3	FUNGUS	614	n/a	n/a	0	0	0
517929	WORD	wordpools/wasnorm_wordpool_576.txt	LTP283	ltpFR2	14	3	VIKING	1565	n/a	n/a	0	0	0
520580	WORD	wordpools/wasnorm_wordpool_576.txt	LTP283	ltpFR2	14	3	DENTIST	447	n/a	n/a	0	0	0
523400	WORD	wordpools/wasnorm_wordpool_576.txt	LTP283	ltpFR2	14	3	SHELTER	1282	n/a	n/a	0	0	0
526121	WORD	wordpools/wasnorm_wordpool_576.txt	LTP283	ltpFR2	14	3	LOFT	840	n/a	n/a	0	0	0
528871	WORD	wordpools/wasnorm_wordpool_576.txt	LTP283	ltpFR2	14	3	LADDER	793	n/a	n/a	0	0	0
531522	WORD	wordpools/wasnorm_wordpool_576.txt	LTP283	ltpFR2	14	3	COUNTRY	388	n/a	n/a	0	0	0
534307	WORD	wordpools/wasnorm_wordpool_576.txt	LTP283	ltpFR2	14	3	MESSAGE	888	n/a	n/a	0	0	0
536862	WORD	wordpools/wasnorm_wordpool_576.txt	LTP283	ltpFR2	14	3	CATTLE	261	n/a	n/a	0	0	0
539581	WORD	wordpools/wasnorm_wordpool_576.txt	LTP283	ltpFR2	14	3	TABLET	1427	n/a	n/a	0	0	0
541199	START	n/a	LTP283	ltpFR2	14	n/a	n/a	n/a	5	n/a	n/a	n/a	n/a
541998	DISTRACTOR	n/a	LTP283	ltpFR2	14	3	n/a	n/a	n/a	n/a	0	0	0
542015	PROB	n/a	LTP283	ltpFR2	14	n/a	n/a	n/a	5	14	9	3	2
543919	PROB	n/a	LTP283	ltpFR2	14	n/a	n/a	n/a	5	12	3	3	6
545987	PROB	n/a	LTP283	ltpFR2	14	n/a	n/a	n/a	5	14	6	6	2
547367	PROB	n/a	LTP283	ltpFR2	14	n/a	n/a	n/a	5	17	7	9	1
548654	PROB	n/a	LTP283	ltpFR2	14	n/a	n/a	n/a	5	11	1	1	9
549866	PROB	n/a	LTP283	ltpFR2	14	n/a	n/a	n/a	5	16	6	7	3
551158	PROB	n/a	LTP283	ltpFR2	14	n/a	n/a	n/a	5	8	4	2	2
552383	PROB	n/a	LTP283	ltpFR2	14	n/a	n/a	n/a	5	6	1	4	1
553518	PROB	n/a	LTP283	ltpFR2	14	n/a	n/a	n/a	5	18	7	7	4
555638	PROB	n/a	LTP283	ltpFR2	14	n/a	n/a	n/a	5	18	8	1	9
557572	PROB	n/a	LTP283	ltpFR2	14	n/a	n/a	n/a	5	12	2	4	6
558755	PROB	n/a	LTP283	ltpFR2	14	n/a	n/a	n/a	5	14	3	2	9
560156	PROB	n/a	LTP283	ltpFR2	14	n/a	n/a	n/a	5	20	5	6	9
561496	PROB	n/a	LTP283	ltpFR2	14	n/a	n/a	n/a	5	6	3	2	1
562660	PROB	n/a	LTP283	ltpFR2	14	n/a	n/a	n/a	5	22	5	9	8
564925	STOP	n/a	LTP283	ltpFR2	14	n/a	n/a	n/a	5	n/a	n/a	n/a	n/a
567096	REC_START	n/a	LTP283	ltpFR2	14	3	n/a	n/a	n/a	n/a	0	0	0
568607	REC_WORD	wordpools/wasnorm_wordpool_576.txt	LTP283	ltpFR2	14	3	CATTLE	261	n/a	n/a	0	0	0
569284	REC_WORD	wordpools/wasnorm_wordpool_576.txt	LTP283	ltpFR2	14	3	TABLET	1427	n/a	n/a	0	0	0
569877	REC_WORD	wordpools/wasnorm_wordpool_576.txt	LTP283	ltpFR2	14	3	MESSAGE	888	n/a	n/a	0	0	0
571147	REC_WORD	wordpools/wasnorm_wordpool_576.txt	LTP283	ltpFR2	14	3	ANTLER	29	n/a	n/a	0	0	0
571611	REC_WORD	wordpools/wasnorm_wordpool_576.txt	LTP283	ltpFR2	14	3	GAZELLE	628	n/a	n/a	0	0	0
572340	REC_WORD	wordpools/wasnorm_wordpool_576.txt	LTP283	ltpFR2	14	3	WORLD	1622	n/a	n/a	0	0	0
572840	REC_WORD	wordpools/wasnorm_wordpool_576.txt	LTP283	ltpFR2	14	3	LONDON	843	n/a	n/a	0	0	0
575933	REC_WORD	wordpools/wasnorm_wordpool_576.txt	LTP283	ltpFR2	14	3	OX	994	n/a	n/a	0	0	0
576597	REC_WORD	wordpools/wasnorm_wordpool_576.txt	LTP283	ltpFR2	14	3	PIANO	1057	n/a	n/a	0	0	0
577461	REC_WORD	wordpools/wasnorm_wordpool_576.txt	LTP283	ltpFR2	14	3	TYPIST	1532	n/a	n/a	0	0	0
581303	REC_WORD	wordpools/wasnorm_wordpool_576.txt	LTP283	ltpFR2	14	3	VICTIM	1562	n/a	n/a	0	0	0
584743	REC_WORD	wordpools/wasnorm_wordpool_576.txt	LTP283	ltpFR2	14	3	GARBAGE	622	n/a	n/a	0	0	0
585347	REC_WORD	wordpools/wasnorm_wordpool_576.txt	LTP283	ltpFR2	14	3	FUNGUS	614	n/a	n/a	0	0	0
588136	REC_WORD	wordpools/wasnorm_wordpool_576.txt	LTP283	ltpFR2	14	3	DENTIST	447	n/a	n/a	0	0	0
588758	REC_WORD	wordpools/wasnorm_wordpool_576.txt	LTP283	ltpFR2	14	3	VIKING	1565	n/a	n/a	0	0	0
589320	REC_WORD	wordpools/wasnorm_wordpool_576.txt	LTP283	ltpFR2	14	3	LOFT	840	n/a	n/a	0	0	0
591702	REC_WORD	wordpools/wasnorm_wordpool_576.txt	LTP283	ltpFR2	14	3	SHELTER	1282	n/a	n/a	0	0	0
592282	REC_WORD	wordpools/wasnorm_wordpool_576.txt	LTP283	ltpFR2	14	3	LADDER	793	n/a	n/a	0	0	0
596358	REC_WORD	wordpools/wasnorm_wordpool_576.txt	LTP283	ltpFR2	14	3	PLUTO	1092	n/a	n/a	0	0	0
597055	REC_WORD	wordpools/wasnorm_wordpool_576.txt	LTP283	ltpFR2	14	3	PROTON	1132	n/a	n/a	0	0	0
597761	REC_WORD	wordpools/wasnorm_wordpool_576.txt	LTP283	ltpFR2	14	3	COUNTRY	388	n/a	n/a	0	0	0
657606	DISTRACTOR	n/a	LTP283	ltpFR2	14	4	n/a	n/a	n/a	n/a	0	0	0
657607	START	n/a	LTP283	ltpFR2	14	n/a	n/a	n/a	6	n/a	n/a	n/a	n/a
657639	PROB	n/a	LTP283	ltpFR2	14	n/a	n/a	n/a	6	16	3	8	5
659306	PROB	n/a	LTP283	ltpFR2	14	n/a	n/a	n/a	6	13	4	4	5
661171	PROB	n/a	LTP283	ltpFR2	14	n/a	n/a	n/a	6	8	1	3	4
662421	PROB	n/a	LTP283	ltpFR2	14	n/a	n/a	n/a	6	19	3	8	8
664123	PROB	n/a	LTP283	ltpFR2	14	n/a	n/a	n/a	6	23	6	8	9
667910	PROB	n/a	LTP283	ltpFR2	14	n/a	n/a	n/a	6	24	9	7	8
670011	PROB	n/a	LTP283	ltpFR2	14	n/a	n/a	n/a	6	15	2	9	4
671763	PROB	n/a	LTP283	ltpFR2	14	n/a	n/a	n/a	6	18	5	7	6
674663	PROB	n/a	LTP283	ltpFR2	14	n/a	n/a	n/a	6	9	2	5	2
676232	PROB	n/a	LTP283	ltpFR2	14	n/a	n/a	n/a	6	18	7	3	8
677588	PROB	n/a	LTP283	ltpFR2	14	n/a	n/a	n/a	6	12	1	6	5
678786	PROB	n/a	LTP283	ltpFR2	14	n/a	n/a	n/a	6	14	9	2	3
680169	STOP	n/a	LTP283	ltpFR2	14	n/a	n/a	n/a	6	n/a	n/a	n/a	n/a
682576	WORD	wordpools/wasnorm_wordpool_576.txt	LTP283	ltpFR2	14	4	KEEPER	769	n/a	n/a	0	0	0
685411	WORD	wordpools/wasnorm_wordpool_576.txt	LTP283	ltpFR2	14	4	STOMACH	1384	n/a	n/a	0	0	0
688197	WORD	wordpools/wasnorm_wordpool_576.txt	LTP283	ltpFR2	14	4	PORK	1108	n/a	n/a	0	0	0
690966	WORD	wordpools/wasnorm_wordpool_576.txt	LTP283	ltpFR2	14	4	MARROW	872	n/a	n/a	0	0	0
693768	WORD	wordpools/wasnorm_wordpool_576.txt	LTP283	ltpFR2	14	4	BASEMENT	94	n/a	n/a	0	0	0
696570	WORD	wordpools/wasnorm_wordpool_576.txt	LTP283	ltpFR2	14	4	CIGAR	308	n/a	n/a	0	0	0
699140	WORD	wordpools/wasnorm_wordpool_576.txt	LTP283	ltpFR2	14	4	CAMEL	223	n/a	n/a	0	0	0
701825	WORD	wordpools/wasnorm_wordpool_576.txt	LTP283	ltpFR2	14	4	MASK	876	n/a	n/a	0	0	0
704262	WORD	wordpools/wasnorm_wordpool_576.txt	LTP283	ltpFR2	14	4	RABBIT	1152	n/a	n/a	0	0	0
707046	WORD	wordpools/wasnorm_wordpool_576.txt	LTP283	ltpFR2	14	4	RADISH	1158	n/a	n/a	0	0	0
709563	WORD	wordpools/wasnorm_wordpool_576.txt	LTP283	ltpFR2	14	4	TURNIP	1521	n/a	n/a	0	0	0
712035	WORD	wordpools/wasnorm_wordpool_576.txt	LTP283	ltpFR2	14	4	GARDEN	623	n/a	n/a	0	0	0
714469	WORD	wordpools/wasnorm_wordpool_576.txt	LTP283	ltpFR2	14	4	PARENT	1013	n/a	n/a	0	0	0
717236	WORD	wordpools/wasnorm_wordpool_576.txt	LTP283	ltpFR2	14	4	ULCER	1533	n/a	n/a	0	0	0
719973	WORD	wordpools/wasnorm_wordpool_576.txt	LTP283	ltpFR2	14	4	BLACKBOARD	133	n/a	n/a	0	0	0
722794	WORD	wordpools/wasnorm_wordpool_576.txt	LTP283	ltpFR2	14	4	EGYPT	519	n/a	n/a	0	0	0
725310	WORD	wordpools/wasnorm_wordpool_576.txt	LTP283	ltpFR2	14	4	SCARECROW	1245	n/a	n/a	0	0	0
727913	WORD	wordpools/wasnorm_wordpool_576.txt	LTP283	ltpFR2	14	4	FLOWER	584	n/a	n/a	0	0	0
730598	WORD	wordpools/wasnorm_wordpool_576.txt	LTP283	ltpFR2	14	4	FINGER	567	n/a	n/a	0	0	0
733266	WORD	wordpools/wasnorm_wordpool_576.txt	LTP283	ltpFR2	14	4	ELBOW	520	n/a	n/a	0	0	0
736019	WORD	wordpools/wasnorm_wordpool_576.txt	LTP283	ltpFR2	14	4	MUSTARD	935	n/a	n/a	0	0	0
738806	WORD	wordpools/wasnorm_wordpool_576.txt	LTP283	ltpFR2	14	4	EAGLE	512	n/a	n/a	0	0	0
741575	WORD	wordpools/wasnorm_wordpool_576.txt	LTP283	ltpFR2	14	4	SIBLING	1301	n/a	n/a	0	0	0
744092	WORD	wordpools/wasnorm_wordpool_576.txt	LTP283	ltpFR2	14	4	PIGMENT	1066	n/a	n/a	0	0	0
745711	START	n/a	LTP283	ltpFR2	14	n/a	n/a	n/a	7	n/a	n/a	n/a	n/a
746671	DISTRACTOR	n/a	LTP283	ltpFR2	14	4	n/a	n/a	n/a	n/a	0	0	0
746693	PROB	n/a	LTP283	ltpFR2	14	n/a	n/a	n/a	7	18	7	9	2
748473	PROB	n/a	LTP283	ltpFR2	14	n/a	n/a	n/a	7	10	4	1	5
749782	PROB	n/a	LTP283	ltpFR2	14	n/a	n/a	n/a	7	15	9	5	1
751028	PROB	n/a	LTP283	ltpFR2	14	n/a	n/a	n/a	7	15	6	1	8
753615	PROB	n/a	LTP283	ltpFR2	14	n/a	n/a	n/a	7	12	5	6	1
755147	PROB	n/a	LTP283	ltpFR2	14	n/a	n/a	n/a	7	17	5	3	9
756664	PROB	n/a	LTP283	ltpFR2	14	n/a	n/a	n/a	7	11	3	6	2
757903	PROB	n/a	LTP283	ltpFR2	14	n/a	n/a	n/a	7	15	6	1	8
759431	PROB	n/a	LTP283	ltpFR2	14	n/a	n/a	n/a	7	15	9	1	5
760654	PROB	n/a	LTP283	ltpFR2	14	n/a	n/a	n/a	7	10	2	6	2
762219	PROB	n/a	LTP283	ltpFR2	14	n/a	n/a	n/a	7	16	5	3	8
764191	PROB	n/a	LTP283	ltpFR2	14	n/a	n/a	n/a	7	14	2	7	5
766037	PROB	n/a	LTP283	ltpFR2	14	n/a	n/a	n/a	7	15	2	5	8
769710	STOP	n/a	LTP283	ltpFR2	14	n/a	n/a	n/a	7	n/a	n/a	n/a	n/a
771509	REC_START	n/a	LTP283	ltpFR2	14	4	n/a	n/a	n/a	n/a	0	0	0
773142	REC_WORD	wordpools/wasnorm_wordpool_576.txt	LTP283	ltpFR2	14	4	PIGMENT	1066	n/a	n/a	0	0	0
774134	REC_WORD	wordpools/wasnorm_wordpool_576.txt	LTP283	ltpFR2	14	4	EAGLE	512	n/a	n/a	0	0	0
774782	REC_WORD	wordpools/wasnorm_wordpool_576.txt	LTP283	ltpFR2	14	4	SIBLING	1301	n/a	n/a	0	0	0
778134	REC_WORD	wordpools/wasnorm_wordpool_576.txt	LTP283	ltpFR2	14	4	PARENT	1013	n/a	n/a	0	0	0
778723	REC_WORD	wordpools/wasnorm_wordpool_576.txt	LTP283	ltpFR2	14	4	ULCER	1533	n/a	n/a	0	0	0
779270	REC_WORD	wordpools/wasnorm_wordpool_576.txt	LTP283	ltpFR2	14	4	BLACKBOARD	133	n/a	n/a	0	0	0
779904	REC_WORD	wordpools/wasnorm_wordpool_576.txt	LTP283	ltpFR2	14	4	FINGER	567	n/a	n/a	0	0	0
780455	REC_WORD	wordpools/wasnorm_wordpool_576.txt	LTP283	ltpFR2	14	4	ELBOW	520	n/a	n/a	0	0	0
783261	REC_WORD	wordpools/wasnorm_wordpool_576.txt	LTP283	ltpFR2	14	4	KEEPER	769	n/a	n/a	0	0	0
783971	REC_WORD	wordpools/wasnorm_wordpool_576.txt	LTP283	ltpFR2	14	4	STOMACH	1384	n/a	n/a	0	0	0
784939	REC_WORD	wordpools/wasnorm_wordpool_576.txt	LTP283	ltpFR2	14	4	ULCER	1533	n/a	n/a	0	0	0
786777	REC_WORD	wordpools/wasnorm_wordpool_576.txt	LTP283	ltpFR2	14	4	PORK	1108	n/a	n/a	0	0	0
787283	REC_WORD	wordpools/wasnorm_wordpool_576.txt	LTP283	ltpFR2	14	4	MARROW	872	n/a	n/a	0	0	0
788923	REC_WORD	wordpools/wasnorm_wordpool_576.txt	LTP283	ltpFR2	14	4	BASEMENT	94	n/a	n/a	0	0	0
789424	REC_WORD	wordpools/wasnorm_wordpool_576.txt	LTP283	ltpFR2	14	4	RABBIT	1152	n/a	n/a	0	0	0
790086	REC_WORD	wordpools/wasnorm_wordpool_576.txt	LTP283	ltpFR2	14	4	RADISH	1158	n/a	n/a	0	0	0
790830	REC_WORD	wordpools/wasnorm_wordpool_576.txt	LTP283	ltpFR2	14	4	TURNIP	1521	n/a	n/a	0	0	0
797850	REC_WORD	wordpools/wasnorm_wordpool_576.txt	LTP283	ltpFR2	14	4	GARDEN	623	n/a	n/a	0	0	0
798351	REC_WORD	wordpools/wasnorm_wordpool_576.txt	LTP283	ltpFR2	14	4	MUSTARD	935	n/a	n/a	0	0	0
799378	REC_WORD	wordpools/wasnorm_wordpool_576.txt	LTP283	ltpFR2	14	4	SCARECROW	1245	n/a	n/a	0	0	0
814645	REC_WORD	wordpools/wasnorm_wordpool_576.txt	LTP283	ltpFR2	14	4	EGYPT	519	n/a	n/a	0	0	0
825370	REC_WORD	wordpools/wasnorm_wordpool_576.txt	LTP283	ltpFR2	14	4	FLOWER	584	n/a	n/a	0	0	0
862054	DISTRACTOR	n/a	LTP283	ltpFR2	14	5	n/a	n/a	n/a	n/a	0	0	0
862054	START	n/a	LTP283	ltpFR2	14	n/a	n/a	n/a	8	n/a	n/a	n/a	n/a
862086	PROB	n/a	LTP283	ltpFR2	14	n/a	n/a	n/a	8	13	3	7	3
863898	PROB	n/a	LTP283	ltpFR2	14	n/a	n/a	n/a	8	17	1	9	7
865237	PROB	n/a	LTP283	ltpFR2	14	n/a	n/a	n/a	8	18	7	3	8
866719	PROB	n/a	LTP283	ltpFR2	14	n/a	n/a	n/a	8	13	7	3	3
868057	PROB	n/a	LTP283	ltpFR2	14	n/a	n/a	n/a	8	16	7	5	4
870486	PROB	n/a	LTP283	ltpFR2	14	n/a	n/a	n/a	8	10	6	1	3
871771	PROB	n/a	LTP283	ltpFR2	14	n/a	n/a	n/a	8	14	2	9	3
873293	PROB	n/a	LTP283	ltpFR2	14	n/a	n/a	n/a	8	15	6	7	2
875158	PROB	n/a	LTP283	ltpFR2	14	n/a	n/a	n/a	8	12	7	1	4
877065	PROB	n/a	LTP283	ltpFR2	14	n/a	n/a	n/a	8	21	7	6	9
879010	PROB	n/a	LTP283	ltpFR2	14	n/a	n/a	n/a	8	19	8	8	3
882304	PROB	n/a	LTP283	ltpFR2	14	n/a	n/a	n/a	8	10	4	1	5
883480	PROB	n/a	LTP283	ltpFR2	14	n/a	n/a	n/a	8	15	8	2	5
885160	STOP	n/a	LTP283	ltpFR2	14	n/a	n/a	n/a	8	n/a	n/a	n/a	n/a
886956	WORD	wordpools/wasnorm_wordpool_576.txt	LTP283	ltpFR2	14	5	ORCHID	982	n/a	n/a	0	0	0
889474	WORD	wordpools/wasnorm_wordpool_576.txt	LTP283	ltpFR2	14	5	NOTEBOOK	959	n/a	n/a	0	0	0
891977	WORD	wordpools/wasnorm_wordpool_576.txt	LTP283	ltpFR2	14	5	BACKBONE	66	n/a	n/a	0	0	0
894745	WORD	wordpools/wasnorm_wordpool_576.txt	LTP283	ltpFR2	14	5	DAISY	435	n/a	n/a	0	0	0
897414	WORD	wordpools/wasnorm_wordpool_576.txt	LTP283	ltpFR2	14	5	ROBIN	1199	n/a	n/a	0	0	0
900183	WORD	wordpools/wasnorm_wordpool_576.txt	LTP283	ltpFR2	14	5	SEAGULL	1261	n/a	n/a	0	0	0
902803	WORD	wordpools/wasnorm_wordpool_576.txt	LTP283	ltpFR2	14	5	BRAKE	166	n/a	n/a	0	0	0
905422	WORD	wordpools/wasnorm_wordpool_576.txt	LTP283	ltpFR2	14	5	PAIL	1002	n/a	n/a	0	0	0
908123	WORD	wordpools/wasnorm_wordpool_576.txt	LTP283	ltpFR2	14	5	COWBOY	395	n/a	n/a	0	0	0
910707	WORD	wordpools/wasnorm_wordpool_576.txt	LTP283	ltpFR2	14	5	MACHINE	852	n/a	n/a	0	0	0
913209	WORD	wordpools/wasnorm_wordpool_576.txt	LTP283	ltpFR2	14	5	REPORT	1184	n/a	n/a	0	0	0
915678	WORD	wordpools/wasnorm_wordpool_576.txt	LTP283	ltpFR2	14	5	BLENDER	136	n/a	n/a	0	0	0
918480	WORD	wordpools/wasnorm_wordpool_576.txt	LTP283	ltpFR2	14	5	SCISSORS	1250	n/a	n/a	0	0	0
921016	WORD	wordpools/wasnorm_wordpool_576.txt	LTP283	ltpFR2	14	5	STALLION	1369	n/a	n/a	0	0	0
923667	WORD	wordpools/wasnorm_wordpool_576.txt	LTP283	ltpFR2	14	5	CARRIAGE	248	n/a	n/a	0	0	0
926137	WORD	wordpools/wasnorm_wordpool_576.txt	LTP283	ltpFR2	14	5	VALVE	1546	n/a	n/a	0	0	0
928806	WORD	wordpools/wasnorm_wordpool_576.txt	LTP283	ltpFR2	14	5	REBEL	1172	n/a	n/a	0	0	0
931574	WORD	wordpools/wasnorm_wordpool_576.txt	LTP283	ltpFR2	14	5	FILM	565	n/a	n/a	0	0	0
934209	WORD	wordpools/wasnorm_wordpool_576.txt	LTP283	ltpFR2	14	5	GOBLIN	645	n/a	n/a	0	0	0
936947	WORD	wordpools/wasnorm_wordpool_576.txt	LTP283	ltpFR2	14	5	SNACK	1331	n/a	n/a	0	0	0
939547	WORD	wordpools/wasnorm_wordpool_576.txt	LTP283	ltpFR2	14	5	FLASHLIGHT	575	n/a	n/a	0	0	0
942349	WORD	wordpools/wasnorm_wordpool_576.txt	LTP283	ltpFR2	14	5	SWITCH	1422	n/a	n/a	0	0	0
945036	WORD	wordpools/wasnorm_wordpool_576.txt	LTP283	ltpFR2	14	5	COIN	343	n/a	n/a	0	0	0
947824	WORD	wordpools/wasnorm_wordpool_576.txt	LTP283	ltpFR2	14	5	MISTER	901	n/a	n/a	0	0	0
949439	START	n/a	LTP283	ltpFR2	14	n/a	n/a	n/a	9	n/a	n/a	n/a	n/a
950254	DISTRACTOR	n/a	LTP283	ltpFR2	14	5	n/a	n/a	n/a	n/a	0	0	0
950272	PROB	n/a	LTP283	ltpFR2	14	n/a	n/a	n/a	9	22	7	8	7
953188	PROB	n/a	LTP283	ltpFR2	14	n/a	n/a	n/a	9	12	6	4	2
954537	PROB	n/a	LTP283	ltpFR2	14	n/a	n/a	n/a	9	17	6	5	7
957339	PROB	n/a	LTP283	ltpFR2	14	n/a	n/a	n/a	9	19	4	9	6
958807	PROB	n/a	LTP283	ltpFR2	14	n/a	n/a	n/a	9	17	4	6	7
960247	PROB	n/a	LTP283	ltpFR2	14	n/a	n/a	n/a	9	9	5	2	2
961410	PROB	n/a	LTP283	ltpFR2	14	n/a	n/a	n/a	9	7	2	4	1
962817	PROB	n/a	LTP283	ltpFR2	14	n/a	n/a	n/a	9	14	3	4	7
964130	PROB	n/a	LTP283	ltpFR2	14	n/a	n/a	n/a	9	8	5	2	1
965303	PROB	n/a	LTP283	ltpFR2	14	n/a	n/a	n/a	9	19	8	3	8
966698	PROB	n/a	LTP283	ltpFR2	14	n/a	n/a	n/a	9	20	5	6	9
967998	PROB	n/a	LTP283	ltpFR2	14	n/a	n/a	n/a	9	16	9	3	4
970249	PROB	n/a	LTP283	ltpFR2	14	n/a	n/a	n/a	9	12	1	5	6
971416	PROB	n/a	LTP283	ltpFR2	14	n/a	n/a	n/a	9	12	6	1	5
972498	STOP	n/a	LTP283	ltpFR2	14	n/a	n/a	n/a	9	n/a	n/a	n/a	n/a
975319	REC_START	n/a	LTP283	ltpFR2	14	5	n/a	n/a	n/a	n/a	0	0	0
977825	REC_WORD	wordpools/wasnorm_wordpool_576.txt	LTP283	ltpFR2	14	5	COIN	343	n/a	n/a	0	0	0
978397	REC_WORD	wordpools/wasnorm_wordpool_576.txt	LTP283	ltpFR2	14	5	SWITCH	1422	n/a	n/a	0	0	0
979277	REC_WORD	wordpools/wasnorm_wordpool_576.txt	LTP283	ltpFR2	14	5	MISTER	901	n/a	n/a	0	0	0
980805	REC_WORD	wordpools/wasnorm_wordpool_576.txt	LTP283	ltpFR2	14	5	GOBLIN	645	n/a	n/a	0	0	0
982680	REC_WORD	wordpools/wasnorm_wordpool_576.txt	LTP283	ltpFR2	14	5	FILM	565	n/a	n/a	0	0	0
983172	REC_WORD	wordpools/wasnorm_wordpool_576.txt	LTP283	ltpFR2	14	5	SNACK	1331	n/a	n/a	0	0	0
984797	REC_WORD	wordpools/wasnorm_wordpool_576.txt	LTP283	ltpFR2	14	5	COWBOY	395	n/a	n/a	0	0	0
985385	REC_WORD	wordpools/wasnorm_wordpool_576.txt	LTP283	ltpFR2	14	5	MACHINE	852	n/a	n/a	0	0	0
986198	REC_WORD	wordpools/wasnorm_wordpool_576.txt	LTP283	ltpFR2	14	5	SCISSORS	1250	n/a	n/a	0	0	0
988487	REC_WORD	wordpools/wasnorm_wordpool_576.txt	LTP283	ltpFR2	14	5	CARRIAGE	248	n/a	n/a	0	0	0
989067	REC_WORD	wordpools/wasnorm_wordpool_576.txt	LTP283	ltpFR2	14	5	REBEL	1172	n/a	n/a	0	0	0
989621	REC_WORD	wordpools/wasnorm_wordpool_576.txt	LTP283	ltpFR2	14	5	STALLION	1369	n/a	n/a	0	0	0
993804	REC_WORD	wordpools/wasnorm_wordpool_576.txt	LTP283	ltpFR2	14	5	ORCHID	982	n/a	n/a	0	0	0
994418	REC_WORD	wordpools/wasnorm_wordpool_576.txt	LTP283	ltpFR2	14	5	DAISY	435	n/a	n/a	0	0	0
995018	REC_WORD	wordpools/wasnorm_wordpool_576.txt	LTP283	ltpFR2	14	5	ROBIN	1199	n/a	n/a	0	0	0
996674	REC_WORD	wordpools/wasnorm_wordpool_576.txt	LTP283	ltpFR2	14	5	BACKBONE	66	n/a	n/a	0	0	0
997218	REC_WORD	wordpools/wasnorm_wordpool_576.txt	LTP283	ltpFR2	14	5	NOTEBOOK	959	n/a	n/a	0	0	0
1003162	REC_WORD	wordpools/wasnorm_wordpool_576.txt	LTP283	ltpFR2	14	5	BRAKE	166	n/a	n/a	0	0	0
1003838	REC_WORD	wordpools/wasnorm_wordpool_576.txt	LTP283	ltpFR2	14	5	PAIL	1002	n/a	n/a	0	0	0
1010801	REC_WORD	wordpools/wasnorm_wordpool_576.txt	LTP283	ltpFR2	14	5	REPORT	1184	n/a	n/a	0	0	0
1038681	REC_WORD	wordpools/wasnorm_wordpool_576.txt	LTP283	ltpFR2	14	5	VALVE	1546	n/a	n/a	0	0	0
1049215	REC_WORD	wordpools/wasnorm_wordpool_576.txt	LTP283	ltpFR2	14	5	FLASHLIGHT	575	n/a	n/a	0	0	0
1065849	DISTRACTOR	n/a	LTP283	ltpFR2	14	6	n/a	n/a	n/a	n/a	0	0	0
1065849	START	n/a	LTP283	ltpFR2	14	n/a	n/a	n/a	10	n/a	n/a	n/a	n/a
1065881	PROB	n/a	LTP283	ltpFR2	14	n/a	n/a	n/a	10	22	5	8	9
1068449	PROB	n/a	LTP283	ltpFR2	14	n/a	n/a	n/a	10	10	1	1	8
1069613	PROB	n/a	LTP283	ltpFR2	14	n/a	n/a	n/a	10	10	2	7	1
1070813	PROB	n/a	LTP283	ltpFR2	14	n/a	n/a	n/a	10	21	5	7	9
1073547	PROB	n/a	LTP283	ltpFR2	14	n/a	n/a	n/a	10	21	8	7	6
1074991	PROB	n/a	LTP283	ltpFR2	14	n/a	n/a	n/a	10	16	8	1	7
1076368	PROB	n/a	LTP283	ltpFR2	14	n/a	n/a	n/a	10	11	7	3	1
1077453	PROB	n/a	LTP283	ltpFR2	14	n/a	n/a	n/a	10	13	4	5	4
1078920	PROB	n/a	LTP283	ltpFR2	14	n/a	n/a	n/a	10	13	4	2	7
1080520	PROB	n/a	LTP283	ltpFR2	14	n/a	n/a	n/a	10	10	5	4	1
1081655	PROB	n/a	LTP283	ltpFR2	14	n/a	n/a	n/a	10	4	2	1	1
1082775	PROB	n/a	LTP283	ltpFR2	14	n/a	n/a	n/a	10	9	3	4	4
1084348	PROB	n/a	LTP283	ltpFR2	14	n/a	n/a	n/a	10	15	8	2	5
1085776	PROB	n/a	LTP283	ltpFR2	14	n/a	n/a	n/a	10	21	9	3	9
1087725	PROB	n/a	LTP283	ltpFR2	14	n/a	n/a	n/a	10	20	8	5	7
1088983	STOP	n/a	LTP283	ltpFR2	14	n/a	n/a	n/a	10	n/a	n/a	n/a	n/a
1090856	WORD	wordpools/wasnorm_wordpool_576.txt	LTP283	ltpFR2	14	6	BARLEY	88	n/a	n/a	0	0	0
1093589	WORD	wordpools/wasnorm_wordpool_576.txt	LTP283	ltpFR2	14	6	TOMBSTONE	1478	n/a	n/a	0	0	0
1096238	WORD	wordpools/wasnorm_wordpool_576.txt	LTP283	ltpFR2	14	6	PIZZA	1079	n/a	n/a	0	0	0
1098707	WORD	wordpools/wasnorm_wordpool_576.txt	LTP283	ltpFR2	14	6	CRAB	397	n/a	n/a	0	0	0
1101278	WORD	wordpools/wasnorm_wordpool_576.txt	LTP283	ltpFR2	14	6	GYMNAST	675	n/a	n/a	0	0	0
1104079	WORD	wordpools/wasnorm_wordpool_576.txt	LTP283	ltpFR2	14	6	SWIMMER	1420	n/a	n/a	0	0	0
1106898	WORD	wordpools/wasnorm_wordpool_576.txt	LTP283	ltpFR2	14	6	HEART	697	n/a	n/a	0	0	0
1109649	WORD	wordpools/wasnorm_wordpool_576.txt	LTP283	ltpFR2	14	6	RELISH	1183	n/a	n/a	0	0	0
1112301	WORD	wordpools/wasnorm_wordpool_576.txt	LTP283	ltpFR2	14	6	ROCKET	1202	n/a	n/a	0	0	0
1114821	WORD	wordpools/wasnorm_wordpool_576.txt	LTP283	ltpFR2	14	6	VALLEY	1545	n/a	n/a	0	0	0
1117306	WORD	wordpools/wasnorm_wordpool_576.txt	LTP283	ltpFR2	14	6	SCOTCH	1251	n/a	n/a	0	0	0
1120008	WORD	wordpools/wasnorm_wordpool_576.txt	LTP283	ltpFR2	14	6	SALAD	1224	n/a	n/a	0	0	0
1122810	WORD	wordpools/wasnorm_wordpool_576.txt	LTP283	ltpFR2	14	6	SHARK	1275	n/a	n/a	0	0	0
1125363	WORD	wordpools/wasnorm_wordpool_576.txt	LTP283	ltpFR2	14	6	CHEMIST	292	n/a	n/a	0	0	0
1128015	WORD	wordpools/wasnorm_wordpool_576.txt	LTP283	ltpFR2	14	6	DONOR	485	n/a	n/a	0	0	0
1130683	WORD	wordpools/wasnorm_wordpool_576.txt	LTP283	ltpFR2	14	6	JEANS	752	n/a	n/a	0	0	0
1133451	WORD	wordpools/wasnorm_wordpool_576.txt	LTP283	ltpFR2	14	6	KNIFE	785	n/a	n/a	0	0	0
1135905	WORD	wordpools/wasnorm_wordpool_576.txt	LTP283	ltpFR2	14	6	BANKER	84	n/a	n/a	0	0	0
1138622	WORD	wordpools/wasnorm_wordpool_576.txt	LTP283	ltpFR2	14	6	DIME	466	n/a	n/a	0	0	0
1141058	WORD	wordpools/wasnorm_wordpool_576.txt	LTP283	ltpFR2	14	6	BLOUSE	139	n/a	n/a	0	0	0
1143593	WORD	wordpools/wasnorm_wordpool_576.txt	LTP283	ltpFR2	14	6	GRAVEL	659	n/a	n/a	0	0	0
1146112	WORD	wordpools/wasnorm_wordpool_576.txt	LTP283	ltpFR2	14	6	MILDEW	893	n/a	n/a	0	0	0
1148564	WORD	wordpools/wasnorm_wordpool_576.txt	LTP283	ltpFR2	14	6	CANAL	226	n/a	n/a	0	0	0
1151249	WORD	wordpools/wasnorm_wordpool_576.txt	LTP283	ltpFR2	14	6	WORKER	1621	n/a	n/a	0	0	0
1152868	START	n/a	LTP283	ltpFR2	14	n/a	n/a	n/a	11	n/a	n/a	n/a	n/a
1153896	DISTRACTOR	n/a	LTP283	ltpFR2	14	6	n/a	n/a	n/a	n/a	0	0	0
1153918	PROB	n/a	LTP283	ltpFR2	14	n/a	n/a	n/a	11	14	5	5	4
1155814	PROB	n/a	LTP283	ltpFR2	14	n/a	n/a	n/a	11	16	1	8	7
1157420	PROB	n/a	LTP283	ltpFR2	14	n/a	n/a	n/a	11	20	2	9	9
1158671	PROB	n/a	LTP283	ltpFR2	14	n/a	n/a	n/a	11	16	4	8	4
1160085	PROB	n/a	LTP283	ltpFR2	14	n/a	n/a	n/a	11	23	9	5	9
1162087	PROB	n/a	LTP283	ltpFR2	14	n/a	n/a	n/a	11	9	2	1	6
1163469	PROB	n/a	LTP283	ltpFR2	14	n/a	n/a	n/a	11	18	8	5	5
1164755	PROB	n/a	LTP283	ltpFR2	14	n/a	n/a	n/a	11	8	1	4	3
1165957	PROB	n/a	LTP283	ltpFR2	14	n/a	n/a	n/a	11	22	6	7	9
1168481	PROB	n/a	LTP283	ltpFR2	14	n/a	n/a	n/a	11	15	5	5	5
1169657	PROB	n/a	LTP283	ltpFR2	14	n/a	n/a	n/a	11	18	7	9	2
1171362	PROB	n/a	LTP283	ltpFR2	14	n/a	n/a	n/a	11	16	5	2	9
1173061	PROB	n/a	LTP283	ltpFR2	14	n/a	n/a	n/a	11	12	2	5	5
1174245	PROB	n/a	LTP283	ltpFR2	14	n/a	n/a	n/a	11	9	2	6	1
1175882	STOP	n/a	LTP283	ltpFR2	14	n/a	n/a	n/a	11	n/a	n/a	n/a	n/a
1178789	REC_START	n/a	LTP283	ltpFR2	14	6	n/a	n/a	n/a	n/a	0	0	0
1180420	REC_WORD	wordpools/wasnorm_wordpool_576.txt	LTP283	ltpFR2	14	6	CANAL	226	n/a	n/a	0	0	0
1181080	REC_WORD	wordpools/wasnorm_wordpool_576.txt	LTP283	ltpFR2	14	6	WORKER	1621	n/a	n/a	0	0	0
1181633	REC_WORD	wordpools/wasnorm_wordpool_576.txt	LTP283	ltpFR2	14	6	MILDEW	893	n/a	n/a	0	0	0
1182316	REC_WORD	wordpools/wasnorm_wordpool_576.txt	LTP283	ltpFR2	14	6	GRAVEL	659	n/a	n/a	0	0	0
1184491	REC_WORD	wordpools/wasnorm_wordpool_576.txt	LTP283	ltpFR2	14	6	TOMBSTONE	1478	n/a	n/a	0	0	0
1185166	REC_WORD	wordpools/wasnorm_wordpool_576.txt	LTP283	ltpFR2	14	6	BARLEY	88	n/a	n/a	0	0	0
1185704	REC_WORD	wordpools/wasnorm_wordpool_576.txt	LTP283	ltpFR2	14	6	PIZZA	1079	n/a	n/a	0	0	0
1188722	REC_WORD	wordpools/wasnorm_wordpool_576.txt	LTP283	ltpFR2	14	6	SWIMMER	1420	n/a	n/a	0	0	0
1189389	REC_WORD	wordpools/wasnorm_wordpool_576.txt	LTP283	ltpFR2	14	6	GYMNAST	675	n/a	n/a	0	0	0
1190999	REC_WORD	wordpools/wasnorm_wordpool_576.txt	LTP283	ltpFR2	14	6	RELISH	1183	n/a	n/a	0	0	0
1195610	REC_WORD	wordpools/wasnorm_wordpool_576.txt	LTP283	ltpFR2	14	6	VALLEY	1545	n/a	n/a	0	0	0
1197119	REC_WORD	wordpools/wasnorm_wordpool_576.txt	LTP283	ltpFR2	14	6	SCOTCH	1251	n/a	n/a	0	0	0
1198119	REC_WORD_VV	wordpools/wasnorm_wordpool_576.txt	LTP283	ltpFR2	14	6	<>	-1	n/a	n/a	0	0	0
1200595	REC_WORD	wordpools/wasnorm_wordpool_576.txt	LTP283	ltpFR2	14	6	SALAD	1224	n/a	n/a	0	0	0
1204300	REC_WORD	wordpools/wasnorm_wordpool_576.txt	LTP283	ltpFR2	14	6	BANKER	84	n/a	n/a	0	0	0
1204905	REC_WORD	wordpools/wasnorm_wordpool_576.txt	LTP283	ltpFR2	14	6	DIME	466	n/a	n/a	0	0	0
1206228	REC_WORD	wordpools/wasnorm_wordpool_576.txt	LTP283	ltpFR2	14	6	BLOUSE	139	n/a	n/a	0	0	0
1208991	REC_WORD	wordpools/wasnorm_wordpool_576.txt	LTP283	ltpFR2	14	6	JEANS	752	n/a	n/a	0	0	0
1209552	REC_WORD	wordpools/wasnorm_wordpool_576.txt	LTP283	ltpFR2	14	6	SCISSORS	1250	n/a	n/a	0	0	0
1210661	REC_WORD_VV	wordpools/wasnorm_wordpool_576.txt	LTP283	ltpFR2	14	6	<>	-1	n/a	n/a	0	0	0
1212877	REC_WORD	wordpools/wasnorm_wordpool_576.txt	LTP283	ltpFR2	14	6	KNIFE	785	n/a	n/a	0	0	0
1214209	REC_WORD	wordpools/wasnorm_wordpool_576.txt	LTP283	ltpFR2	14	6	CHEMIST	292	n/a	n/a	0	0	0
1215275	REC_WORD	wordpools/wasnorm_wordpool_576.txt	LTP283	ltpFR2	14	6	DONOR	485	n/a	n/a	0	0	0
1232912	REC_WORD	wordpools/wasnorm_wordpool_576.txt	LTP283	ltpFR2	14	6	SHARK	1275	n/a	n/a	0	0	0
1269303	WORD	wordpools/wasnorm_wordpool_576.txt	LTP283	ltpFR2	14	7	PADDLE	1000	n/a	n/a	0	0	0
1272048	WORD	wordpools/wasnorm_wordpool_576.txt	LTP283	ltpFR2	14	7	LUMBER	848	n/a	n/a	0	0	0
1274632	WORD	wordpools/wasnorm_wordpool_576.txt	LTP283	ltpFR2	14	7	BOX	159	n/a	n/a	0	0	0
1277299	WORD	wordpools/wasnorm_wordpool_576.txt	LTP283	ltpFR2	14	7	ROBOT	1200	n/a	n/a	0	0	0
1279969	WORD	wordpools/wasnorm_wordpool_576.txt	LTP283	ltpFR2	14	7	LEG	809	n/a	n/a	0	0	0
1282804	WORD	wordpools/wasnorm_wordpool_576.txt	LTP283	ltpFR2	14	7	TORTOISE	1486	n/a	n/a	0	0	0
1285589	WORD	wordpools/wasnorm_wordpool_576.txt	LTP283	ltpFR2	14	7	VIRUS	1572	n/a	n/a	0	0	0
1288325	WORD	wordpools/wasnorm_wordpool_576.txt	LTP283	ltpFR2	14	7	BODY	145	n/a	n/a	0	0	0
1291029	WORD	wordpools/wasnorm_wordpool_576.txt	LTP283	ltpFR2	14	7	CABBAGE	210	n/a	n/a	0	0	0
1293630	WORD	wordpools/wasnorm_wordpool_576.txt	LTP283	ltpFR2	14	7	LETTUCE	814	n/a	n/a	0	0	0
1296084	WORD	wordpools/wasnorm_wordpool_576.txt	LTP283	ltpFR2	14	7	PARSLEY	1016	n/a	n/a	0	0	0
1298716	WORD	wordpools/wasnorm_wordpool_576.txt	LTP283	ltpFR2	14	7	SLUG	1329	n/a	n/a	0	0	0
1301351	WORD	wordpools/wasnorm_wordpool_576.txt	LTP283	ltpFR2	14	7	CYCLONE	431	n/a	n/a	0	0	0
1303838	WORD	wordpools/wasnorm_wordpool_576.txt	LTP283	ltpFR2	14	7	PENGUIN	1044	n/a	n/a	0	0	0
1306339	WORD	wordpools/wasnorm_wordpool_576.txt	LTP283	ltpFR2	14	7	ATOM	55	n/a	n/a	0	0	0
1309126	WORD	wordpools/wasnorm_wordpool_576.txt	LTP283	ltpFR2	14	7	FREEZER	604	n/a	n/a	0	0	0
1311578	WORD	wordpools/wasnorm_wordpool_576.txt	LTP283	ltpFR2	14	7	FLUTE	585	n/a	n/a	0	0	0
1314346	WORD	wordpools/wasnorm_wordpool_576.txt	LTP283	ltpFR2	14	7	INMATE	738	n/a	n/a	0	0	0
1316867	WORD	wordpools/wasnorm_wordpool_576.txt	LTP283	ltpFR2	14	7	CONVICT	371	n/a	n/a	0	0	0
1319566	WORD	wordpools/wasnorm_wordpool_576.txt	LTP283	ltpFR2	14	7	NEUTRON	947	n/a	n/a	0	0	0
1322269	WORD	wordpools/wasnorm_wordpool_576.txt	LTP283	ltpFR2	14	7	SHRUB	1299	n/a	n/a	0	0	0
1324771	WORD	wordpools/wasnorm_wordpool_576.txt	LTP283	ltpFR2	14	7	COUSIN	392	n/a	n/a	0	0	0
1327456	WORD	wordpools/wasnorm_wordpool_576.txt	LTP283	ltpFR2	14	7	ICING	732	n/a	n/a	0	0	0
1329941	WORD	wordpools/wasnorm_wordpool_576.txt	LTP283	ltpFR2	14	7	MUFFIN	929	n/a	n/a	0	0	0
1331559	START	n/a	LTP283	ltpFR2	14	n/a	n/a	n/a	12	n/a	n/a	n/a	n/a
1332459	DISTRACTOR	n/a	LTP283	ltpFR2	14	7	n/a	n/a	n/a	n/a	0	0	0
1332476	PROB	n/a	LTP283	ltpFR2	14	n/a	n/a	n/a	12	11	4	1	6
1333939	PROB	n/a	LTP283	ltpFR2	14	n/a	n/a	n/a	12	13	1	4	8
1335757	PROB	n/a	LTP283	ltpFR2	14	n/a	n/a	n/a	12	21	9	7	5
1338053	PROB	n/a	LTP283	ltpFR2	14	n/a	n/a	n/a	12	21	8	7	6
1340462	PROB	n/a	LTP283	ltpFR2	14	n/a	n/a	n/a	12	10	6	3	1
1341680	PROB	n/a	LTP283	ltpFR2	14	n/a	n/a	n/a	12	18	4	6	8
1342963	PROB	n/a	LTP283	ltpFR2	14	n/a	n/a	n/a	12	20	8	6	6
1344920	PROB	n/a	LTP283	ltpFR2	14	n/a	n/a	n/a	12	14	3	7	4
1346506	PROB	n/a	LTP283	ltpFR2	14	n/a	n/a	n/a	12	20	6	7	7
1348217	PROB	n/a	LTP283	ltpFR2	14	n/a	n/a	n/a	12	12	4	7	1
1349518	PROB	n/a	LTP283	ltpFR2	14	n/a	n/a	n/a	12	17	6	2	9
1351091	PROB	n/a	LTP283	ltpFR2	14	n/a	n/a	n/a	12	13	2	8	3
1352421	PROB	n/a	LTP283	ltpFR2	14	n/a	n/a	n/a	12	3	1	1	1
1355559	STOP	n/a	LTP283	ltpFR2	14	n/a	n/a	n/a	12	n/a	n/a	n/a	n/a
1357491	REC_START	n/a	LTP283	ltpFR2	14	7	n/a	n/a	n/a	n/a	0	0	0
1360936	REC_WORD	wordpools/wasnorm_wordpool_576.txt	LTP283	ltpFR2	14	7	ICING	732	n/a	n/a	0	0	0
1361768	REC_WORD	wordpools/wasnorm_wordpool_576.txt	LTP283	ltpFR2	14	7	MUFFIN	929	n/a	n/a	0	0	0
1362724	REC_WORD	wordpools/wasnorm_wordpool_576.txt	LTP283	ltpFR2	14	7	COUSIN	392	n/a	n/a	0	0	0
1366467	REC_WORD	wordpools/wasnorm_wordpool_576.txt	LTP283	ltpFR2	14	7	CONVICT	371	n/a	n/a	0	0	0
1367218	REC_WORD	wordpools/wasnorm_wordpool_576.txt	LTP283	ltpFR2	14	7	INMATE	738	n/a	n/a	0	0	0
1368052	REC_WORD	wordpools/wasnorm_wordpool_576.txt	LTP283	ltpFR2	14	7	SHRUB	1299	n/a	n/a	0	0	0
1369153	REC_WORD_VV	wordpools/wasnorm_wordpool_576.txt	LTP283	ltpFR2	14	7	<>	-1	n/a	n/a	0	0	0
1376281	REC_WORD	wordpools/wasnorm_wordpool_576.txt	LTP283	ltpFR2	14	7	FREEZER	604	n/a	n/a	0	0	0
1384073	REC_WORD	wordpools/wasnorm_wordpool_576.txt	LTP283	ltpFR2	14	7	ROBOT	1200	n/a	n/a	0	0	0
1385247	REC_WORD	wordpools/wasnorm_wordpool_576.txt	LTP283	ltpFR2	14	7	BOX	159	n/a	n/a	0	0	0
1387578	REC_WORD	wordpools/wasnorm_wordpool_576.txt	LTP283	ltpFR2	14	7	VIRUS	1572	n/a	n/a	0	0	0
1388660	REC_WORD	wordpools/wasnorm_wordpool_576.txt	LTP283	ltpFR2	14	7	TORTOISE	1486	n/a	n/a	0	0	0
1393496	REC_WORD	wordpools/wasnorm_wordpool_576.txt	LTP283	ltpFR2	14	7	PADDLE	1000	n/a	n/a	0	0	0
1395058	REC_WORD	wordpools/wasnorm_wordpool_576.txt	LTP283	ltpFR2	14	7	LUMBER	848	n/a	n/a	0	0	0
1401843	REC_WORD	wordpools/wasnorm_wordpool_576.txt	LTP283	ltpFR2	14	7	CABBAGE	210	n/a	n/a	0	0	0
1402629	REC_WORD	wordpools/wasnorm_wordpool_576.txt	LTP283	ltpFR2	14	7	LETTUCE	814	n/a	n/a	0	0	0
1403747	REC_WORD	wordpools/wasnorm_wordpool_576.txt	LTP283	ltpFR2	14	7	PARSLEY	1016	n/a	n/a	0	0	0
1404507	REC_WORD	wordpools/wasnorm_wordpool_576.txt	LTP283	ltpFR2	14	7	SLUG	1329	n/a	n/a	0	0	0
1407330	REC_WORD	wordpools/wasnorm_wordpool_576.txt	LTP283	ltpFR2	14	7	FLUTE	585	n/a	n/a	0	0	0
1410452	REC_WORD	wordpools/wasnorm_wordpool_576.txt	LTP283	ltpFR2	14	7	ATOM	55	n/a	n/a	0	0	0
1411052	REC_WORD	wordpools/wasnorm_wordpool_576.txt	LTP283	ltpFR2	14	7	NEUTRON	947	n/a	n/a	0	0	0
1448013	WORD	wordpools/wasnorm_wordpool_576.txt	LTP283	ltpFR2	14	8	OYSTER	995	n/a	n/a	0	0	0
1450487	WORD	wordpools/wasnorm_wordpool_576.txt	LTP283	ltpFR2	14	8	BIKE	125	n/a	n/a	0	0	0
1453056	WORD	wordpools/wasnorm_wordpool_576.txt	LTP283	ltpFR2	14	8	SHORTCAKE	1292	n/a	n/a	0	0	0
1455524	WORD	wordpools/wasnorm_wordpool_576.txt	LTP283	ltpFR2	14	8	CHAMPAGNE	278	n/a	n/a	0	0	0
1458277	WORD	wordpools/wasnorm_wordpool_576.txt	LTP283	ltpFR2	14	8	BARREL	91	n/a	n/a	0	0	0
1460829	WORD	wordpools/wasnorm_wordpool_576.txt	LTP283	ltpFR2	14	8	AIRPLANE	12	n/a	n/a	0	0	0
1463563	WORD	wordpools/wasnorm_wordpool_576.txt	LTP283	ltpFR2	14	8	ORANGE	980	n/a	n/a	0	0	0
1466167	WORD	wordpools/wasnorm_wordpool_576.txt	LTP283	ltpFR2	14	8	VENUS	1557	n/a	n/a	0	0	0
1468835	WORD	wordpools/wasnorm_wordpool_576.txt	LTP283	ltpFR2	14	8	RIFLE	1192	n/a	n/a	0	0	0
1471455	WORD	wordpools/wasnorm_wordpool_576.txt	LTP283	ltpFR2	14	8	CRAYON	401	n/a	n/a	0	0	0
1473990	WORD	wordpools/wasnorm_wordpool_576.txt	LTP283	ltpFR2	14	8	PORTRAIT	1111	n/a	n/a	0	0	0
1476575	WORD	wordpools/wasnorm_wordpool_576.txt	LTP283	ltpFR2	14	8	NOMAD	955	n/a	n/a	0	0	0
1479146	WORD	wordpools/wasnorm_wordpool_576.txt	LTP283	ltpFR2	14	8	CHEST	295	n/a	n/a	0	0	0
1481712	WORD	wordpools/wasnorm_wordpool_576.txt	LTP283	ltpFR2	14	8	POWDER	1117	n/a	n/a	0	0	0
1484397	WORD	wordpools/wasnorm_wordpool_576.txt	LTP283	ltpFR2	14	8	PISTON	1076	n/a	n/a	0	0	0
1487216	WORD	wordpools/wasnorm_wordpool_576.txt	LTP283	ltpFR2	14	8	MEAT	883	n/a	n/a	0	0	0
1489786	WORD	wordpools/wasnorm_wordpool_576.txt	LTP283	ltpFR2	14	8	RECEIPT	1173	n/a	n/a	0	0	0
1492554	WORD	wordpools/wasnorm_wordpool_576.txt	LTP283	ltpFR2	14	8	MARS	873	n/a	n/a	0	0	0
1495090	WORD	wordpools/wasnorm_wordpool_576.txt	LTP283	ltpFR2	14	8	PILOT	1070	n/a	n/a	0	0	0
1497826	WORD	wordpools/wasnorm_wordpool_576.txt	LTP283	ltpFR2	14	8	COMET	353	n/a	n/a	0	0	0
1500529	WORD	wordpools/wasnorm_wordpool_576.txt	LTP283	ltpFR2	14	8	STAR	1373	n/a	n/a	0	0	0
1503030	WORD	wordpools/wasnorm_wordpool_576.txt	LTP283	ltpFR2	14	8	SPONGE	1355	n/a	n/a	0	0	0
1505497	WORD	wordpools/wasnorm_wordpool_576.txt	LTP283	ltpFR2	14	8	SOFTBALL	1343	n/a	n/a	0	0	0
1508218	WORD	wordpools/wasnorm_wordpool_576.txt	LTP283	ltpFR2	14	8	TWIG	1527	n/a	n/a	0	0	0
1509836	START	n/a	LTP283	ltpFR2	14	n/a	n/a	n/a	13	n/a	n/a	n/a	n/a
1510766	DISTRACTOR	n/a	LTP283	ltpFR2	14	8	n/a	n/a	n/a	n/a	0	0	0
1510786	PROB	n/a	LTP283	ltpFR2	14	n/a	n/a	n/a	13	16	8	5	3
1512917	PROB	n/a	LTP283	ltpFR2	14	n/a	n/a	n/a	13	11	5	2	4
1515990	PROB	n/a	LTP283	ltpFR2	14	n/a	n/a	n/a	13	13	1	9	3
1517191	PROB	n/a	LTP283	ltpFR2	14	n/a	n/a	n/a	13	10	2	4	4
1518959	PROB	n/a	LTP283	ltpFR2	14	n/a	n/a	n/a	13	15	5	6	4
1520242	PROB	n/a	LTP283	ltpFR2	14	n/a	n/a	n/a	13	9	4	2	3
1523790	PROB	n/a	LTP283	ltpFR2	14	n/a	n/a	n/a	13	15	5	2	8
1525111	PROB	n/a	LTP283	ltpFR2	14	n/a	n/a	n/a	13	16	6	4	6
1526324	PROB	n/a	LTP283	ltpFR2	14	n/a	n/a	n/a	13	15	4	9	2
1529183	PROB	n/a	LTP283	ltpFR2	14	n/a	n/a	n/a	13	14	1	7	6
1530617	PROB	n/a	LTP283	ltpFR2	14	n/a	n/a	n/a	13	9	1	4	4
1531734	PROB	n/a	LTP283	ltpFR2	14	n/a	n/a	n/a	13	15	2	5	8
1532910	STOP	n/a	LTP283	ltpFR2	14	n/a	n/a	n/a	13	n/a	n/a	n/a	n/a
1535616	REC_START	n/a	LTP283	ltpFR2	14	8	n/a	n/a	n/a	n/a	0	0	0
1537171	REC_WORD	wordpools/wasnorm_wordpool_576.txt	LTP283	ltpFR2	14	8	TWIG	1527	n/a	n/a	0	0	0
1537795	REC_WORD	wordpools/wasnorm_wordpool_576.txt	LTP283	ltpFR2	14	8	SOFTBALL	1343	n/a	n/a	0	0	0
1538591	REC_WORD	wordpools/wasnorm_wordpool_576.txt	LTP283	ltpFR2	14	8	SPONGE	1355	n/a	n/a	0	0	0
1540492	REC_WORD	wordpools/wasnorm_wordpool_576.txt	LTP283	ltpFR2	14	8	STAR	1373	n/a	n/a	0	0	0
1541123	REC_WORD	wordpools/wasnorm_wordpool_576.txt	LTP283	ltpFR2	14	8	COMET	353	n/a	n/a	0	0	0
1541547	REC_WORD	wordpools/wasnorm_wordpool_576.txt	LTP283	ltpFR2	14	8	RECEIPT	1173	n/a	n/a	0	0	0
1543595	REC_WORD	wordpools/wasnorm_wordpool_576.txt	LTP283	ltpFR2	14	8	PILOT	1070	n/a	n/a	0	0	0
1548226	REC_WORD	wordpools/wasnorm_wordpool_576.txt	LTP283	ltpFR2	14	8	ROCKET	1202	n/a	n/a	0	0	0
1550653	REC_WORD	wordpools/wasnorm_wordpool_576.txt	LTP283	ltpFR2	14	8	PLANE	1081	n/a	n/a	0	0	0
1551913	REC_WORD	wordpools/wasnorm_wordpool_576.txt	LTP283	ltpFR2	14	8	NOMAD	955	n/a	n/a	0	0	0
1555330	REC_WORD	wordpools/wasnorm_wordpool_576.txt	LTP283	ltpFR2	14	8	CHEST	295	n/a	n/a	0	0	0
1556008	REC_WORD	wordpools/wasnorm_wordpool_576.txt	LTP283	ltpFR2	14	8	POWDER	1117	n/a	n/a	0	0	0
1562496	REC_WORD	wordpools/wasnorm_wordpool_576.txt	LTP283	ltpFR2	14	8	MEAT	883	n/a	n/a	0	0	0
1563034	REC_WORD	wordpools/wasnorm_wordpool_576.txt	LTP283	ltpFR2	14	8	PISTON	1076	n/a	n/a	0	0	0
1567763	REC_WORD	wordpools/wasnorm_wordpool_576.txt	LTP283	ltpFR2	14	8	VENUS	1557	n/a	n/a	0	0	0
1569562	REC_WORD	wordpools/wasnorm_wordpool_576.txt	LTP283	ltpFR2	14	8	ORANGE	980	n/a	n/a	0	0	0
1570044	REC_WORD	wordpools/wasnorm_wordpool_576.txt	LTP283	ltpFR2	14	8	MARS	873	n/a	n/a	0	0	0
1570534	REC_WORD	wordpools/wasnorm_wordpool_576.txt	LTP283	ltpFR2	14	8	VENUS	1557	n/a	n/a	0	0	0
1572486	REC_WORD	wordpools/wasnorm_wordpool_576.txt	LTP283	ltpFR2	14	8	CHAMPAGNE	278	n/a	n/a	0	0	0
1573766	REC_WORD	wordpools/wasnorm_wordpool_576.txt	LTP283	ltpFR2	14	8	BARREL	91	n/a	n/a	0	0	0
1582619	REC_WORD	wordpools/wasnorm_wordpool_576.txt	LTP283	ltpFR2	14	8	OYSTER	995	n/a	n/a	0	0	0
1583110	REC_WORD	wordpools/wasnorm_wordpool_576.txt	LTP283	ltpFR2	14	8	SHORTCAKE	1292	n/a	n/a	0	0	0
1587906	REC_WORD	wordpools/wasnorm_wordpool_576.txt	LTP283	ltpFR2	14	8	CRAYON	401	n/a	n/a	0	0	0
1588598	REC_WORD	wordpools/wasnorm_wordpool_576.txt	LTP283	ltpFR2	14	8	PORTRAIT	1111	n/a	n/a	0	0	0
1590565	REC_WORD	wordpools/wasnorm_wordpool_576.txt	LTP283	ltpFR2	14	8	BIKE	125	n/a	n/a	0	0	0
1612166	REST_REWET	n/a	LTP283	ltpFR2	14	8	n/a	n/a	n/a	n/a	0	0	0
1999042	DISTRACTOR	n/a	LTP283	ltpFR2	14	9	n/a	n/a	n/a	n/a	0	0	0
1999042	START	n/a	LTP283	ltpFR2	14	n/a	n/a	n/a	14	n/a	n/a	n/a	n/a
1999074	PROB	n/a	LTP283	ltpFR2	14	n/a	n/a	n/a	14	16	6	4	6
2000286	PROB	n/a	LTP283	ltpFR2	14	n/a	n/a	n/a	14	15	6	8	1
2003630	PROB	n/a	LTP283	ltpFR2	14	n/a	n/a	n/a	14	20	7	6	7
2005207	PROB	n/a	LTP283	ltpFR2	14	n/a	n/a	n/a	14	11	1	1	9
2006591	PROB	n/a	LTP283	ltpFR2	14	n/a	n/a	n/a	14	18	3	9	6
2008280	PROB	n/a	LTP283	ltpFR2	14	n/a	n/a	n/a	14	14	8	1	5
2010245	PROB	n/a	LTP283	ltpFR2	14	n/a	n/a	n/a	14	7	2	2	3
2012051	PROB	n/a	LTP283	ltpFR2	14	n/a	n/a	n/a	14	9	3	4	2
2013562	PROB	n/a	LTP283	ltpFR2	14	n/a	n/a	n/a	14	17	6	5	6
2015767	PROB	n/a	LTP283	ltpFR2	14	n/a	n/a	n/a	14	12	3	1	8
2017168	PROB	n/a	LTP283	ltpFR2	14	n/a	n/a	n/a	14	12	5	6	1
2018516	PROB	n/a	LTP283	ltpFR2	14	n/a	n/a	n/a	14	5	1	3	1
2019686	PROB	n/a	LTP283	ltpFR2	14	n/a	n/a	n/a	14	20	7	6	7
2021208	PROB	n/a	LTP283	ltpFR2	14	n/a	n/a	n/a	14	21	7	9	5
2022701	STOP	n/a	LTP283	ltpFR2	14	n/a	n/a	n/a	14	n/a	n/a	n/a	n/a
2024278	WORD	wordpools/wasnorm_wordpool_576.txt	LTP283	ltpFR2	14	9	CLAM	315	n/a	n/a	0	0	0
2026797	WORD	wordpools/wasnorm_wordpool_576.txt	LTP283	ltpFR2	14	9	NECKLACE	940	n/a	n/a	0	0	0
2029298	WORD	wordpools/wasnorm_wordpool_576.txt	LTP283	ltpFR2	14	9	AIRPORT	13	n/a	n/a	0	0	0
2031834	WORD	wordpools/wasnorm_wordpool_576.txt	LTP283	ltpFR2	14	9	TRACTOR	1493	n/a	n/a	0	0	0
2034435	WORD	wordpools/wasnorm_wordpool_576.txt	LTP283	ltpFR2	14	9	CLIMBER	323	n/a	n/a	0	0	0
2037138	WORD	wordpools/wasnorm_wordpool_576.txt	LTP283	ltpFR2	14	9	GUARD	667	n/a	n/a	0	0	0
2039656	WORD	wordpools/wasnorm_wordpool_576.txt	LTP283	ltpFR2	14	9	TRANSPLANT	1496	n/a	n/a	0	0	0
2042391	WORD	wordpools/wasnorm_wordpool_576.txt	LTP283	ltpFR2	14	9	KIDNEY	776	n/a	n/a	0	0	0
2044845	WORD	wordpools/wasnorm_wordpool_576.txt	LTP283	ltpFR2	14	9	BLUEPRINT	142	n/a	n/a	0	0	0
2047412	WORD	wordpools/wasnorm_wordpool_576.txt	LTP283	ltpFR2	14	9	COTTAGE	384	n/a	n/a	0	0	0
2049948	WORD	wordpools/wasnorm_wordpool_576.txt	LTP283	ltpFR2	14	9	OUTFIT	988	n/a	n/a	0	0	0
2052533	WORD	wordpools/wasnorm_wordpool_576.txt	LTP283	ltpFR2	14	9	BEEF	113	n/a	n/a	0	0	0
2055318	WORD	wordpools/wasnorm_wordpool_576.txt	LTP283	ltpFR2	14	9	CABIN	211	n/a	n/a	0	0	0
2057840	WORD	wordpools/wasnorm_wordpool_576.txt	LTP283	ltpFR2	14	9	CREATURE	403	n/a	n/a	0	0	0
2060605	WORD	wordpools/wasnorm_wordpool_576.txt	LTP283	ltpFR2	14	9	STAPLE	1371	n/a	n/a	0	0	0
2063391	WORD	wordpools/wasnorm_wordpool_576.txt	LTP283	ltpFR2	14	9	SISTER	1312	n/a	n/a	0	0	0
2066128	WORD	wordpools/wasnorm_wordpool_576.txt	LTP283	ltpFR2	14	9	WHISTLE	1606	n/a	n/a	0	0	0
2068763	WORD	wordpools/wasnorm_wordpool_576.txt	LTP283	ltpFR2	14	9	GIRL	637	n/a	n/a	0	0	0
2071281	WORD	wordpools/wasnorm_wordpool_576.txt	LTP283	ltpFR2	14	9	BRICK	172	n/a	n/a	0	0	0
2073984	WORD	wordpools/wasnorm_wordpool_576.txt	LTP283	ltpFR2	14	9	EUROPE	541	n/a	n/a	0	0	0
2076805	WORD	wordpools/wasnorm_wordpool_576.txt	LTP283	ltpFR2	14	9	LIVER	833	n/a	n/a	0	0	0
2079425	WORD	wordpools/wasnorm_wordpool_576.txt	LTP283	ltpFR2	14	9	PATROL	1027	n/a	n/a	0	0	0
2082256	WORD	wordpools/wasnorm_wordpool_576.txt	LTP283	ltpFR2	14	9	SPOOL	1356	n/a	n/a	0	0	0
2084859	WORD	wordpools/wasnorm_wordpool_576.txt	LTP283	ltpFR2	14	9	TWEEZERS	1526	n/a	n/a	0	0	0
2086478	START	n/a	LTP283	ltpFR2	14	n/a	n/a	n/a	15	n/a	n/a	n/a	n/a
2087595	DISTRACTOR	n/a	LTP283	ltpFR2	14	9	n/a	n/a	n/a	n/a	0	0	0
2087610	PROB	n/a	LTP283	ltpFR2	14	n/a	n/a	n/a	15	7	4	1	2
2089241	PROB	n/a	LTP283	ltpFR2	14	n/a	n/a	n/a	15	7	4	1	2
2090959	PROB	n/a	LTP283	ltpFR2	14	n/a	n/a	n/a	15	23	7	9	7
2093292	PROB	n/a	LTP283	ltpFR2	14	n/a	n/a	n/a	15	10	6	2	2
2094461	PROB	n/a	LTP283	ltpFR2	14	n/a	n/a	n/a	15	13	6	4	3
2095713	PROB	n/a	LTP283	ltpFR2	14	n/a	n/a	n/a	15	16	7	2	7
2097197	PROB	n/a	LTP283	ltpFR2	14	n/a	n/a	n/a	15	17	2	9	6
2098999	PROB	n/a	LTP283	ltpFR2	14	n/a	n/a	n/a	15	20	9	5	6
2100266	PROB	n/a	LTP283	ltpFR2	14	n/a	n/a	n/a	15	7	1	1	5
2101424	PROB	n/a	LTP283	ltpFR2	14	n/a	n/a	n/a	15	14	7	5	2
2102907	PROB	n/a	LTP283	ltpFR2	14	n/a	n/a	n/a	15	8	2	1	5
2104452	PROB	n/a	LTP283	ltpFR2	14	n/a	n/a	n/a	15	18	5	9	4
2106521	PROB	n/a	LTP283	ltpFR2	14	n/a	n/a	n/a	15	13	9	2	2
2108139	PROB	n/a	LTP283	ltpFR2	14	n/a	n/a	n/a	15	13	3	4	6
2109344	STOP	n/a	LTP283	ltpFR2	14	n/a	n/a	n/a	15	n/a	n/a	n/a	n/a
2112425	REC_START	n/a	LTP283	ltpFR2	14	9	n/a	n/a	n/a	n/a	0	0	0
2115261	REC_WORD	wordpools/wasnorm_wordpool_576.txt	LTP283	ltpFR2	14	9	SPOOL	1356	n/a	n/a	0	0	0
2116358	REC_WORD	wordpools/wasnorm_wordpool_576.txt	LTP283	ltpFR2	14	9	TWEEZERS	1526	n/a	n/a	0	0	0
2117052	REC_WORD	wordpools/wasnorm_wordpool_576.txt	LTP283	ltpFR2	14	9	PATROL	1027	n/a	n/a	0	0	0
2117896	REC_WORD	wordpools/wasnorm_wordpool_576.txt	LTP283	ltpFR2	14	9	GUARD	667	n/a	n/a	0	0	0
2118497	REC_WORD	wordpools/wasnorm_wordpool_576.txt	LTP283	ltpFR2	14	9	SISTER	1312	n/a	n/a	0	0	0
2119495	REC_WORD	wordpools/wasnorm_wordpool_576.txt	LTP283	ltpFR2	14	9	GIRL	637	n/a	n/a	0	0	0
2120268	REC_WORD	wordpools/wasnorm_wordpool_576.txt	LTP283	ltpFR2	14	9	EUROPE	541	n/a	n/a	0	0	0
2121102	REC_WORD	wordpools/wasnorm_wordpool_576.txt	LTP283	ltpFR2	14	9	BRICK	172	n/a	n/a	0	0	0
2121837	REC_WORD	wordpools/wasnorm_wordpool_576.txt	LTP283	ltpFR2	14	9	SUITCASE	1403	n/a	n/a	0	0	0
2122837	REC_WORD_VV	wordpools/wasnorm_wordpool_576.txt	LTP283	ltpFR2	14	9	<>	-1	n/a	n/a	0	0	0
2128171	REC_WORD	wordpools/wasnorm_wordpool_576.txt	LTP283	ltpFR2	14	9	KIDNEY	776	n/a	n/a	0	0	0
2128659	REC_WORD	wordpools/wasnorm_wordpool_576.txt	LTP283	ltpFR2	14	9	LIVER	833	n/a	n/a	0	0	0
2129257	REC_WORD	wordpools/wasnorm_wordpool_576.txt	LTP283	ltpFR2	14	9	TRANSPLANT	1496	n/a	n/a	0	0	0
2132316	REC_WORD	wordpools/wasnorm_wordpool_576.txt	LTP283	ltpFR2	14	9	TRACTOR	1493	n/a	n/a	0	0	0
2132845	REC_WORD	wordpools/wasnorm_wordpool_576.txt	LTP283	ltpFR2	14	9	CLIMBER	323	n/a	n/a	0	0	0
2135022	REC_WORD	wordpools/wasnorm_wordpool_576.txt	LTP283	ltpFR2	14	9	GUARD	667	n/a	n/a	0	0	0
2136985	REC_WORD	wordpools/wasnorm_wordpool_576.txt	LTP283	ltpFR2	14	9	MEAT	883	n/a	n/a	0	0	0
2137846	REC_WORD	wordpools/wasnorm_wordpool_576.txt	LTP283	ltpFR2	14	9	STAPLE	1371	n/a	n/a	0	0	0
2138846	REC_WORD_VV	wordpools/wasnorm_wordpool_576.txt	LTP283	ltpFR2	14	9	<>	-1	n/a	n/a	0	0	0
2139147	REC_WORD	wordpools/wasnorm_wordpool_576.txt	LTP283	ltpFR2	14	9	CREATURE	403	n/a	n/a	0	0	0
2140083	REC_WORD	wordpools/wasnorm_wordpool_576.txt	LTP283	ltpFR2	14	9	BEEF	113	n/a	n/a	0	0	0
2148083	REC_WORD	wordpools/wasnorm_wordpool_576.txt	LTP283	ltpFR2	14	9	AIRPORT	13	n/a	n/a	0	0	0
2148609	REC_WORD	wordpools/wasnorm_wordpool_576.txt	LTP283	ltpFR2	14	9	TRACTOR	1493	n/a	n/a	0	0	0
2156237	REC_WORD	wordpools/wasnorm_wordpool_576.txt	LTP283	ltpFR2	14	9	BLUEPRINT	142	n/a	n/a	0	0	0
2162298	REC_WORD	wordpools/wasnorm_wordpool_576.txt	LTP283	ltpFR2	14	9	CABIN	211	n/a	n/a	0	0	0
2162845	REC_WORD	wordpools/wasnorm_wordpool_576.txt	LTP283	ltpFR2	14	9	COTTAGE	384	n/a	n/a	0	0	0
2170908	REC_WORD	wordpools/wasnorm_wordpool_576.txt	LTP283	ltpFR2	14	9	CLAM	315	n/a	n/a	0	0	0
2171421	REC_WORD	wordpools/wasnorm_wordpool_576.txt	LTP283	ltpFR2	14	9	NECKLACE	940	n/a	n/a	0	0	0
2202955	DISTRACTOR	n/a	LTP283	ltpFR2	14	10	n/a	n/a	n/a	n/a	0	0	0
2202955	START	n/a	LTP283	ltpFR2	14	n/a	n/a	n/a	16	n/a	n/a	n/a	n/a
2202987	PROB	n/a	LTP283	ltpFR2	14	n/a	n/a	n/a	16	17	2	8	7
2206135	PROB	n/a	LTP283	ltpFR2	14	n/a	n/a	n/a	16	23	8	6	9
2208041	PROB	n/a	LTP283	ltpFR2	14	n/a	n/a	n/a	16	8	5	1	2
2209324	PROB	n/a	LTP283	ltpFR2	14	n/a	n/a	n/a	16	16	7	6	3
2210888	PROB	n/a	LTP283	ltpFR2	14	n/a	n/a	n/a	16	13	2	5	6
2213189	PROB	n/a	LTP283	ltpFR2	14	n/a	n/a	n/a	16	20	5	9	6
2215877	PROB	n/a	LTP283	ltpFR2	14	n/a	n/a	n/a	16	20	6	7	7
2217333	PROB	n/a	LTP283	ltpFR2	14	n/a	n/a	n/a	16	17	2	8	7
2219494	PROB	n/a	LTP283	ltpFR2	14	n/a	n/a	n/a	16	23	9	6	8
2221267	PROB	n/a	LTP283	ltpFR2	14	n/a	n/a	n/a	16	16	4	9	3
2223563	PROB	n/a	LTP283	ltpFR2	14	n/a	n/a	n/a	16	16	2	9	5
2226604	STOP	n/a	LTP283	ltpFR2	14	n/a	n/a	n/a	16	n/a	n/a	n/a	n/a
2228023	WORD	wordpools/wasnorm_wordpool_576.txt	LTP283	ltpFR2	14	10	FIREPLACE	570	n/a	n/a	0	0	0
2230842	WORD	wordpools/wasnorm_wordpool_576.txt	LTP283	ltpFR2	14	10	WAITER	1580	n/a	n/a	0	0	0
2233294	WORD	wordpools/wasnorm_wordpool_576.txt	LTP283	ltpFR2	14	10	CUPBOARD	425	n/a	n/a	0	0	0
2235846	WORD	wordpools/wasnorm_wordpool_576.txt	LTP283	ltpFR2	14	10	GRAPE	654	n/a	n/a	0	0	0
2238617	WORD	wordpools/wasnorm_wordpool_576.txt	LTP283	ltpFR2	14	10	CANYON	235	n/a	n/a	0	0	0
2241317	WORD	wordpools/wasnorm_wordpool_576.txt	LTP283	ltpFR2	14	10	SUMMIT	1405	n/a	n/a	0	0	0
2244020	WORD	wordpools/wasnorm_wordpool_576.txt	LTP283	ltpFR2	14	10	WASHER	1592	n/a	n/a	0	0	0
2246571	WORD	wordpools/wasnorm_wordpool_576.txt	LTP283	ltpFR2	14	10	NIGHTGOWN	953	n/a	n/a	0	0	0
2249308	WORD	wordpools/wasnorm_wordpool_576.txt	LTP283	ltpFR2	14	10	MATTRESS	879	n/a	n/a	0	0	0
2252026	WORD	wordpools/wasnorm_wordpool_576.txt	LTP283	ltpFR2	14	10	KETCHUP	771	n/a	n/a	0	0	0
2254610	WORD	wordpools/wasnorm_wordpool_576.txt	LTP283	ltpFR2	14	10	MARKER	870	n/a	n/a	0	0	0
2257096	WORD	wordpools/wasnorm_wordpool_576.txt	LTP283	ltpFR2	14	10	GRILL	661	n/a	n/a	0	0	0
2259699	WORD	wordpools/wasnorm_wordpool_576.txt	LTP283	ltpFR2	14	10	BOYFRIEND	162	n/a	n/a	0	0	0
2262517	WORD	wordpools/wasnorm_wordpool_576.txt	LTP283	ltpFR2	14	10	ATLAS	53	n/a	n/a	0	0	0
2265236	WORD	wordpools/wasnorm_wordpool_576.txt	LTP283	ltpFR2	14	10	MARINE	869	n/a	n/a	0	0	0
2267788	WORD	wordpools/wasnorm_wordpool_576.txt	LTP283	ltpFR2	14	10	STAKE	1368	n/a	n/a	0	0	0
2270422	WORD	wordpools/wasnorm_wordpool_576.txt	LTP283	ltpFR2	14	10	HIKER	708	n/a	n/a	0	0	0
2273160	WORD	wordpools/wasnorm_wordpool_576.txt	LTP283	ltpFR2	14	10	JAPAN	749	n/a	n/a	0	0	0
2275661	WORD	wordpools/wasnorm_wordpool_576.txt	LTP283	ltpFR2	14	10	SKETCH	1315	n/a	n/a	0	0	0
2278130	WORD	wordpools/wasnorm_wordpool_576.txt	LTP283	ltpFR2	14	10	FRECKLE	602	n/a	n/a	0	0	0
2280799	WORD	wordpools/wasnorm_wordpool_576.txt	LTP283	ltpFR2	14	10	SMOG	1330	n/a	n/a	0	0	0
2283600	WORD	wordpools/wasnorm_wordpool_576.txt	LTP283	ltpFR2	14	10	LOVER	846	n/a	n/a	0	0	0
2286403	WORD	wordpools/wasnorm_wordpool_576.txt	LTP283	ltpFR2	14	10	CREVICE	405	n/a	n/a	0	0	0
2288939	WORD	wordpools/wasnorm_wordpool_576.txt	LTP283	ltpFR2	14	10	BINDER	127	n/a	n/a	0	0	0
2290557	START	n/a	LTP283	ltpFR2	14	n/a	n/a	n/a	17	n/a	n/a	n/a	n/a
2291525	DISTRACTOR	n/a	LTP283	ltpFR2	14	10	n/a	n/a	n/a	n/a	0	0	0
2291539	PROB	n/a	LTP283	ltpFR2	14	n/a	n/a	n/a	17	21	4	8	9
2293235	PROB	n/a	LTP283	ltpFR2	14	n/a	n/a	n/a	17	18	9	5	4
2294688	PROB	n/a	LTP283	ltpFR2	14	n/a	n/a	n/a	17	17	8	5	4
2296823	PROB	n/a	LTP283	ltpFR2	14	n/a	n/a	n/a	17	12	3	6	3
2298440	PROB	n/a	LTP283	ltpFR2	14	n/a	n/a	n/a	17	18	2	7	9
2299925	PROB	n/a	LTP283	ltpFR2	14	n/a	n/a	n/a	17	23	7	9	7
2301508	PROB	n/a	LTP283	ltpFR2	14	n/a	n/a	n/a	17	15	1	9	5
2302861	PROB	n/a	LTP283	ltpFR2	14	n/a	n/a	n/a	17	15	5	8	2
2304064	PROB	n/a	LTP283	ltpFR2	14	n/a	n/a	n/a	17	11	8	2	1
2305296	PROB	n/a	LTP283	ltpFR2	14	n/a	n/a	n/a	17	9	4	3	2
2306781	PROB	n/a	LTP283	ltpFR2	14	n/a	n/a	n/a	17	10	4	1	5
2308020	PROB	n/a	LTP283	ltpFR2	14	n/a	n/a	n/a	17	9	2	3	4
2309698	PROB	n/a	LTP283	ltpFR2	14	n/a	n/a	n/a	17	11	7	3	1
2311033	PROB	n/a	LTP283	ltpFR2	14	n/a	n/a	n/a	17	16	5	3	8
2312819	PROB	n/a	LTP283	ltpFR2	14	n/a	n/a	n/a	17	9	1	6	2
2314040	STOP	n/a	LTP283	ltpFR2	14	n/a	n/a	n/a	17	n/a	n/a	n/a	n/a
2316355	REC_START	n/a	LTP283	ltpFR2	14	10	n/a	n/a	n/a	n/a	0	0	0
2319848	REC_WORD	wordpools/wasnorm_wordpool_576.txt	LTP283	ltpFR2	14	10	CREVICE	405	n/a	n/a	0	0	0
2320459	REC_WORD	wordpools/wasnorm_wordpool_576.txt	LTP283	ltpFR2	14	10	SMOG	1330	n/a	n/a	0	0	0
2326603	REC_WORD	wordpools/wasnorm_wordpool_576.txt	LTP283	ltpFR2	14	10	CANYON	235	n/a	n/a	0	0	0
2327140	REC_WORD	wordpools/wasnorm_wordpool_576.txt	LTP283	ltpFR2	14	10	SUMMIT	1405	n/a	n/a	0	0	0
2327775	REC_WORD	wordpools/wasnorm_wordpool_576.txt	LTP283	ltpFR2	14	10	FIREPLACE	570	n/a	n/a	0	0	0
2328798	REC_WORD	wordpools/wasnorm_wordpool_576.txt	LTP283	ltpFR2	14	10	WAITER	1580	n/a	n/a	0	0	0
2330696	REC_WORD	wordpools/wasnorm_wordpool_576.txt	LTP283	ltpFR2	14	10	CUPBOARD	425	n/a	n/a	0	0	0
2331240	REC_WORD	wordpools/wasnorm_wordpool_576.txt	LTP283	ltpFR2	14	10	GRAPE	654	n/a	n/a	0	0	0
2333377	REC_WORD	wordpools/wasnorm_wordpool_576.txt	LTP283	ltpFR2	14	10	GRILL	661	n/a	n/a	0	0	0
2336225	REC_WORD	wordpools/wasnorm_wordpool_576.txt	LTP283	ltpFR2	14	10	BOYFRIEND	162	n/a	n/a	0	0	0
2336964	REC_WORD	wordpools/wasnorm_wordpool_576.txt	LTP283	ltpFR2	14	10	ATLAS	53	n/a	n/a	0	0	0
2338543	REC_WORD	wordpools/wasnorm_wordpool_576.txt	LTP283	ltpFR2	14	10	MARKER	870	n/a	n/a	0	0	0
2339884	REC_WORD	wordpools/wasnorm_wordpool_576.txt	LTP283	ltpFR2	14	10	KETCHUP	771	n/a	n/a	0	0	0
2340759	REC_WORD	wordpools/wasnorm_wordpool_576.txt	LTP283	ltpFR2	14	10	JAPAN	749	n/a	n/a	0	0	0
2342234	REC_WORD	wordpools/wasnorm_wordpool_576.txt	LTP283	ltpFR2	14	10	STAKE	1368	n/a	n/a	0	0	0
2347594	REC_WORD	wordpools/wasnorm_wordpool_576.txt	LTP283	ltpFR2	14	10	WASHER	1592	n/a	n/a	0	0	0
2348290	REC_WORD	wordpools/wasnorm_wordpool_576.txt	LTP283	ltpFR2	14	10	NIGHTGOWN	953	n/a	n/a	0	0	0
2351217	REC_WORD	wordpools/wasnorm_wordpool_576.txt	LTP283	ltpFR2	14	10	HIKER	708	n/a	n/a	0	0	0
2357594	REC_WORD	wordpools/wasnorm_wordpool_576.txt	LTP283	ltpFR2	14	10	LOVER	846	n/a	n/a	0	0	0
2406866	DISTRACTOR	n/a	LTP283	ltpFR2	14	11	n/a	n/a	n/a	n/a	0	0	0
2406867	START	n/a	LTP283	ltpFR2	14	n/a	n/a	n/a	18	n/a	n/a	n/a	n/a
2406899	PROB	n/a	LTP283	ltpFR2	14	n/a	n/a	n/a	18	17	2	8	7
2408461	PROB	n/a	LTP283	ltpFR2	14	n/a	n/a	n/a	18	11	7	3	1
2409530	PROB	n/a	LTP283	ltpFR2	14	n/a	n/a	n/a	18	16	6	4	6
2410734	PROB	n/a	LTP283	ltpFR2	14	n/a	n/a	n/a	18	23	9	9	5
2413398	PROB	n/a	LTP283	ltpFR2	14	n/a	n/a	n/a	18	11	1	5	5
2414565	PROB	n/a	LTP283	ltpFR2	14	n/a	n/a	n/a	18	18	6	3	9
2415933	PROB	n/a	LTP283	ltpFR2	14	n/a	n/a	n/a	18	20	4	9	7
2417351	PROB	n/a	LTP283	ltpFR2	14	n/a	n/a	n/a	18	17	2	8	7
2418937	PROB	n/a	LTP283	ltpFR2	14	n/a	n/a	n/a	18	24	9	6	9
2421327	PROB	n/a	LTP283	ltpFR2	14	n/a	n/a	n/a	18	17	8	8	1
2422724	PROB	n/a	LTP283	ltpFR2	14	n/a	n/a	n/a	18	13	6	1	6
2424208	PROB	n/a	LTP283	ltpFR2	14	n/a	n/a	n/a	18	16	1	9	6
2425496	PROB	n/a	LTP283	ltpFR2	14	n/a	n/a	n/a	18	17	6	2	9
2426932	PROB	n/a	LTP283	ltpFR2	14	n/a	n/a	n/a	18	18	8	6	4
2429095	PROB	n/a	LTP283	ltpFR2	14	n/a	n/a	n/a	18	17	7	8	2
2430435	STOP	n/a	LTP283	ltpFR2	14	n/a	n/a	n/a	18	n/a	n/a	n/a	n/a
2431802	WORD	wordpools/wasnorm_wordpool_576.txt	LTP283	ltpFR2	14	11	MOTOR	922	n/a	n/a	0	0	0
2434506	WORD	wordpools/wasnorm_wordpool_576.txt	LTP283	ltpFR2	14	11	CARROT	249	n/a	n/a	0	0	0
2437023	WORD	wordpools/wasnorm_wordpool_576.txt	LTP283	ltpFR2	14	11	LIGHTNING	820	n/a	n/a	0	0	0
2439574	WORD	wordpools/wasnorm_wordpool_576.txt	LTP283	ltpFR2	14	11	SIDEWALK	1303	n/a	n/a	0	0	0
2442260	WORD	wordpools/wasnorm_wordpool_576.txt	LTP283	ltpFR2	14	11	BUGGY	188	n/a	n/a	0	0	0
2444695	WORD	wordpools/wasnorm_wordpool_576.txt	LTP283	ltpFR2	14	11	WAGON	1578	n/a	n/a	0	0	0
2447498	WORD	wordpools/wasnorm_wordpool_576.txt	LTP283	ltpFR2	14	11	HEADBAND	696	n/a	n/a	0	0	0
2450084	WORD	wordpools/wasnorm_wordpool_576.txt	LTP283	ltpFR2	14	11	LIZARD	834	n/a	n/a	0	0	0
2452752	WORD	wordpools/wasnorm_wordpool_576.txt	LTP283	ltpFR2	14	11	PEDAL	1037	n/a	n/a	0	0	0
2455239	WORD	wordpools/wasnorm_wordpool_576.txt	LTP283	ltpFR2	14	11	STATUE	1374	n/a	n/a	0	0	0
2457859	WORD	wordpools/wasnorm_wordpool_576.txt	LTP283	ltpFR2	14	11	PREACHER	1119	n/a	n/a	0	0	0
2460541	WORD	wordpools/wasnorm_wordpool_576.txt	LTP283	ltpFR2	14	11	TRUCK	1512	n/a	n/a	0	0	0
2463194	WORD	wordpools/wasnorm_wordpool_576.txt	LTP283	ltpFR2	14	11	COOKBOOK	373	n/a	n/a	0	0	0
2465763	WORD	wordpools/wasnorm_wordpool_576.txt	LTP283	ltpFR2	14	11	WAITRESS	1581	n/a	n/a	0	0	0
2468216	WORD	wordpools/wasnorm_wordpool_576.txt	LTP283	ltpFR2	14	11	HIGHWAY	707	n/a	n/a	0	0	0
2470800	WORD	wordpools/wasnorm_wordpool_576.txt	LTP283	ltpFR2	14	11	SERVANT	1271	n/a	n/a	0	0	0
2473251	WORD	wordpools/wasnorm_wordpool_576.txt	LTP283	ltpFR2	14	11	NOVEL	960	n/a	n/a	0	0	0
2476006	WORD	wordpools/wasnorm_wordpool_576.txt	LTP283	ltpFR2	14	11	HANDBAG	684	n/a	n/a	0	0	0
2478655	WORD	wordpools/wasnorm_wordpool_576.txt	LTP283	ltpFR2	14	11	HAND	683	n/a	n/a	0	0	0
2481092	WORD	wordpools/wasnorm_wordpool_576.txt	LTP283	ltpFR2	14	11	GLOVE	642	n/a	n/a	0	0	0
2483743	WORD	wordpools/wasnorm_wordpool_576.txt	LTP283	ltpFR2	14	11	KNAPSACK	783	n/a	n/a	0	0	0
2486245	WORD	wordpools/wasnorm_wordpool_576.txt	LTP283	ltpFR2	14	11	HELMET	702	n/a	n/a	0	0	0
2488932	WORD	wordpools/wasnorm_wordpool_576.txt	LTP283	ltpFR2	14	11	FARMER	553	n/a	n/a	0	0	0
2491516	WORD	wordpools/wasnorm_wordpool_576.txt	LTP283	ltpFR2	14	11	RIVER	1194	n/a	n/a	0	0	0
2493136	START	n/a	LTP283	ltpFR2	14	n/a	n/a	n/a	19	n/a	n/a	n/a	n/a
2493946	DISTRACTOR	n/a	LTP283	ltpFR2	14	11	n/a	n/a	n/a	n/a	0	0	0
2493968	PROB	n/a	LTP283	ltpFR2	14	n/a	n/a	n/a	19	21	9	8	4
2495864	PROB	n/a	LTP283	ltpFR2	14	n/a	n/a	n/a	19	17	8	7	2
2497603	PROB	n/a	LTP283	ltpFR2	14	n/a	n/a	n/a	19	11	7	2	2
2498967	PROB	n/a	LTP283	ltpFR2	14	n/a	n/a	n/a	19	21	8	4	9
2500701	PROB	n/a	LTP283	ltpFR2	14	n/a	n/a	n/a	19	13	2	3	8
2502058	PROB	n/a	LTP283	ltpFR2	14	n/a	n/a	n/a	19	16	2	6	8
2503608	PROB	n/a	LTP283	ltpFR2	14	n/a	n/a	n/a	19	16	5	8	3
2505459	PROB	n/a	LTP283	ltpFR2	14	n/a	n/a	n/a	19	19	9	9	1
2506841	PROB	n/a	LTP283	ltpFR2	14	n/a	n/a	n/a	19	10	8	1	1
2508142	PROB	n/a	LTP283	ltpFR2	14	n/a	n/a	n/a	19	15	9	3	3
2509682	PROB	n/a	LTP283	ltpFR2	14	n/a	n/a	n/a	19	17	9	6	2
2511459	PROB	n/a	LTP283	ltpFR2	14	n/a	n/a	n/a	19	220	9	2	9
2513086	PROB	n/a	LTP283	ltpFR2	14	n/a	n/a	n/a	19	18	8	7	3
2514630	PROB	n/a	LTP283	ltpFR2	14	n/a	n/a	n/a	19	17	9	2	6
2516654	STOP	n/a	LTP283	ltpFR2	14	n/a	n/a	n/a	19	n/a	n/a	n/a	n/a
2519066	REC_START	n/a	LTP283	ltpFR2	14	11	n/a	n/a	n/a	n/a	0	0	0
2523755	REC_WORD	wordpools/wasnorm_wordpool_576.txt	LTP283	ltpFR2	14	11	KNAPSACK	783	n/a	n/a	0	0	0
2524796	REC_WORD	wordpools/wasnorm_wordpool_576.txt	LTP283	ltpFR2	14	11	RIVER	1194	n/a	n/a	0	0	0
2527815	REC_WORD	wordpools/wasnorm_wordpool_576.txt	LTP283	ltpFR2	14	11	HANDBAG	684	n/a	n/a	0	0	0
2528919	REC_WORD	wordpools/wasnorm_wordpool_576.txt	LTP283	ltpFR2	14	11	HAND	683	n/a	n/a	0	0	0
2529472	REC_WORD	wordpools/wasnorm_wordpool_576.txt	LTP283	ltpFR2	14	11	GLOVE	642	n/a	n/a	0	0	0
2532206	REC_WORD	wordpools/wasnorm_wordpool_576.txt	LTP283	ltpFR2	14	11	FARMER	553	n/a	n/a	0	0	0
2532964	REC_WORD	wordpools/wasnorm_wordpool_576.txt	LTP283	ltpFR2	14	11	COOKBOOK	373	n/a	n/a	0	0	0
2533520	REC_WORD	wordpools/wasnorm_wordpool_576.txt	LTP283	ltpFR2	14	11	NOVEL	960	n/a	n/a	0	0	0
2536819	REC_WORD	wordpools/wasnorm_wordpool_576.txt	LTP283	ltpFR2	14	11	SERVANT	1271	n/a	n/a	0	0	0
2537819	REC_WORD_VV	wordpools/wasnorm_wordpool_576.txt	LTP283	ltpFR2	14	11	<>	-1	n/a	n/a	0	0	0
2545434	REC_WORD	wordpools/wasnorm_wordpool_576.txt	LTP283	ltpFR2	14	11	PREACHER	1119	n/a	n/a	0	0	0
2546028	REC_WORD	wordpools/wasnorm_wordpool_576.txt	LTP283	ltpFR2	14	11	HIGHWAY	707	n/a	n/a	0	0	0
2549697	REC_WORD	wordpools/wasnorm_wordpool_576.txt	LTP283	ltpFR2	14	11	BUGGY	188	n/a	n/a	0	0	0
2550136	REC_WORD	wordpools/wasnorm_wordpool_576.txt	LTP283	ltpFR2	14	11	WAGON	1578	n/a	n/a	0	0	0
2550723	REC_WORD	wordpools/wasnorm_wordpool_576.txt	LTP283	ltpFR2	14	11	SIDEWALK	1303	n/a	n/a	0	0	0
2564223	REC_WORD	wordpools/wasnorm_wordpool_576.txt	LTP283	ltpFR2	14	11	MOTOR	922	n/a	n/a	0	0	0
2564919	REC_WORD	wordpools/wasnorm_wordpool_576.txt	LTP283	ltpFR2	14	11	CARROT	249	n/a	n/a	0	0	0
2566610	REC_WORD	wordpools/wasnorm_wordpool_576.txt	LTP283	ltpFR2	14	11	LIZARD	834	n/a	n/a	0	0	0
2567310	REC_WORD	wordpools/wasnorm_wordpool_576.txt	LTP283	ltpFR2	14	11	HEADBAND	696	n/a	n/a	0	0	0
2571856	REC_WORD	wordpools/wasnorm_wordpool_576.txt	LTP283	ltpFR2	14	11	LIGHTNING	820	n/a	n/a	0	0	0
2609587	WORD	wordpools/wasnorm_wordpool_576.txt	LTP283	ltpFR2	14	12	BURGLAR	200	n/a	n/a	0	0	0
2612278	WORD	wordpools/wasnorm_wordpool_576.txt	LTP283	ltpFR2	14	12	BADGE	68	n/a	n/a	0	0	0
2614865	WORD	wordpools/wasnorm_wordpool_576.txt	LTP283	ltpFR2	14	12	DRAGON	492	n/a	n/a	0	0	0
2617582	WORD	wordpools/wasnorm_wordpool_576.txt	LTP283	ltpFR2	14	12	TRENCH	1503	n/a	n/a	0	0	0
2620354	WORD	wordpools/wasnorm_wordpool_576.txt	LTP283	ltpFR2	14	12	DOUGHNUT	490	n/a	n/a	0	0	0
2622988	WORD	wordpools/wasnorm_wordpool_576.txt	LTP283	ltpFR2	14	12	DINER	467	n/a	n/a	0	0	0
2625690	WORD	wordpools/wasnorm_wordpool_576.txt	LTP283	ltpFR2	14	12	INFANT	737	n/a	n/a	0	0	0
2628377	WORD	wordpools/wasnorm_wordpool_576.txt	LTP283	ltpFR2	14	12	HONEY	713	n/a	n/a	0	0	0
2630997	WORD	wordpools/wasnorm_wordpool_576.txt	LTP283	ltpFR2	14	12	OUTDOORS	987	n/a	n/a	0	0	0
2633646	WORD	wordpools/wasnorm_wordpool_576.txt	LTP283	ltpFR2	14	12	PASTA	1021	n/a	n/a	0	0	0
2636166	WORD	wordpools/wasnorm_wordpool_576.txt	LTP283	ltpFR2	14	12	CRITIC	410	n/a	n/a	0	0	0
2639001	WORD	wordpools/wasnorm_wordpool_576.txt	LTP283	ltpFR2	14	12	FRAGRANCE	599	n/a	n/a	0	0	0
2641620	WORD	wordpools/wasnorm_wordpool_576.txt	LTP283	ltpFR2	14	12	CROWN	415	n/a	n/a	0	0	0
2644188	WORD	wordpools/wasnorm_wordpool_576.txt	LTP283	ltpFR2	14	12	MUMMY	932	n/a	n/a	0	0	0
2646808	WORD	wordpools/wasnorm_wordpool_576.txt	LTP283	ltpFR2	14	12	STAMP	1370	n/a	n/a	0	0	0
2649525	WORD	wordpools/wasnorm_wordpool_576.txt	LTP283	ltpFR2	14	12	SPACE	1345	n/a	n/a	0	0	0
2652361	WORD	wordpools/wasnorm_wordpool_576.txt	LTP283	ltpFR2	14	12	BEAKER	104	n/a	n/a	0	0	0
2654949	WORD	wordpools/wasnorm_wordpool_576.txt	LTP283	ltpFR2	14	12	SUSPECT	1415	n/a	n/a	0	0	0
2657698	WORD	wordpools/wasnorm_wordpool_576.txt	LTP283	ltpFR2	14	12	TABLE	1426	n/a	n/a	0	0	0
2660367	WORD	wordpools/wasnorm_wordpool_576.txt	LTP283	ltpFR2	14	12	PUPPY	1144	n/a	n/a	0	0	0
2663070	WORD	wordpools/wasnorm_wordpool_576.txt	LTP283	ltpFR2	14	12	NURSE	963	n/a	n/a	0	0	0
2665671	WORD	wordpools/wasnorm_wordpool_576.txt	LTP283	ltpFR2	14	12	SCALPEL	1243	n/a	n/a	0	0	0
2668141	WORD	wordpools/wasnorm_wordpool_576.txt	LTP283	ltpFR2	14	12	CHILD	299	n/a	n/a	0	0	0
2670778	WORD	wordpools/wasnorm_wordpool_576.txt	LTP283	ltpFR2	14	12	FLASK	576	n/a	n/a	0	0	0
2672394	START	n/a	LTP283	ltpFR2	14	n/a	n/a	n/a	20	n/a	n/a	n/a	n/a
2673445	DISTRACTOR	n/a	LTP283	ltpFR2	14	12	n/a	n/a	n/a	n/a	0	0	0
2673460	PROB	n/a	LTP283	ltpFR2	14	n/a	n/a	n/a	20	11	5	2	4
2675925	PROB	n/a	LTP283	ltpFR2	14	n/a	n/a	n/a	20	18	3	6	9
2677458	PROB	n/a	LTP283	ltpFR2	14	n/a	n/a	n/a	20	19	8	7	4
2679927	PROB	n/a	LTP283	ltpFR2	14	n/a	n/a	n/a	20	13	5	7	1
2682051	PROB	n/a	LTP283	ltpFR2	14	n/a	n/a	n/a	20	13	7	2	4
2684186	PROB	n/a	LTP283	ltpFR2	14	n/a	n/a	n/a	20	20	4	9	7
2685614	PROB	n/a	LTP283	ltpFR2	14	n/a	n/a	n/a	20	23	8	8	7
2688422	PROB	n/a	LTP283	ltpFR2	14	n/a	n/a	n/a	20	14	4	7	3
2690356	PROB	n/a	LTP283	ltpFR2	14	n/a	n/a	n/a	20	15	1	7	7
2691635	PROB	n/a	LTP283	ltpFR2	14	n/a	n/a	n/a	20	17	4	6	7
2693021	PROB	n/a	LTP283	ltpFR2	14	n/a	n/a	n/a	20	12	7	1	4
2694338	PROB	n/a	LTP283	ltpFR2	14	n/a	n/a	n/a	20	14	6	2	6
2695789	STOP	n/a	LTP283	ltpFR2	14	n/a	n/a	n/a	20	n/a	n/a	n/a	n/a
2698341	REC_START	n/a	LTP283	ltpFR2	14	12	n/a	n/a	n/a	n/a	0	0	0
2701304	REC_WORD	wordpools/wasnorm_wordpool_576.txt	LTP283	ltpFR2	14	12	NURSE	963	n/a	n/a	0	0	0
2702281	REC_WORD	wordpools/wasnorm_wordpool_576.txt	LTP283	ltpFR2	14	12	SCALPEL	1243	n/a	n/a	0	0	0
2703238	REC_WORD	wordpools/wasnorm_wordpool_576.txt	LTP283	ltpFR2	14	12	CHILD	299	n/a	n/a	0	0	0
2703919	REC_WORD	wordpools/wasnorm_wordpool_576.txt	LTP283	ltpFR2	14	12	INFANT	737	n/a	n/a	0	0	0
2706426	REC_WORD	wordpools/wasnorm_wordpool_576.txt	LTP283	ltpFR2	14	12	BURGLAR	200	n/a	n/a	0	0	0
2707591	REC_WORD	wordpools/wasnorm_wordpool_576.txt	LTP283	ltpFR2	14	12	BADGE	68	n/a	n/a	0	0	0
2708237	REC_WORD	wordpools/wasnorm_wordpool_576.txt	LTP283	ltpFR2	14	12	TRENCH	1503	n/a	n/a	0	0	0
2711340	REC_WORD	wordpools/wasnorm_wordpool_576.txt	LTP283	ltpFR2	14	12	DRAGON	492	n/a	n/a	0	0	0
2714046	REC_WORD	wordpools/wasnorm_wordpool_576.txt	LTP283	ltpFR2	14	12	DOUGHNUT	490	n/a	n/a	0	0	0
2714620	REC_WORD	wordpools/wasnorm_wordpool_576.txt	LTP283	ltpFR2	14	12	PASTA	1021	n/a	n/a	0	0	0
2715178	REC_WORD	wordpools/wasnorm_wordpool_576.txt	LTP283	ltpFR2	14	12	HONEY	713	n/a	n/a	0	0	0
2717028	REC_WORD	wordpools/wasnorm_wordpool_576.txt	LTP283	ltpFR2	14	12	INFANT	737	n/a	n/a	0	0	0
2720398	REC_WORD	wordpools/wasnorm_wordpool_576.txt	LTP283	ltpFR2	14	12	MUMMY	932	n/a	n/a	0	0	0
2720934	REC_WORD	wordpools/wasnorm_wordpool_576.txt	LTP283	ltpFR2	14	12	CROWN	415	n/a	n/a	0	0	0
2721605	REC_WORD	wordpools/wasnorm_wordpool_576.txt	LTP283	ltpFR2	14	12	OUTDOORS	987	n/a	n/a	0	0	0
2722718	REC_WORD	wordpools/wasnorm_wordpool_576.txt	LTP283	ltpFR2	14	12	SPACE	1345	n/a	n/a	0	0	0
2723741	REC_WORD	wordpools/wasnorm_wordpool_576.txt	LTP283	ltpFR2	14	12	BEAKER	104	n/a	n/a	0	0	0
2728173	REC_WORD	wordpools/wasnorm_wordpool_576.txt	LTP283	ltpFR2	14	12	TABLE	1426	n/a	n/a	0	0	0
2767903	REC_WORD	wordpools/wasnorm_wordpool_576.txt	LTP283	ltpFR2	14	12	PUPPY	1144	n/a	n/a	0	0	0
2788870	DISTRACTOR	n/a	LTP283	ltpFR2	14	13	n/a	n/a	n/a	n/a	0	0	0
2788871	START	n/a	LTP283	ltpFR2	14	n/a	n/a	n/a	21	n/a	n/a	n/a	n/a
2788903	PROB	n/a	LTP283	ltpFR2	14	n/a	n/a	n/a	21	15	2	9	4
2791188	PROB	n/a	LTP283	ltpFR2	14	n/a	n/a	n/a	21	20	8	9	3
2792835	PROB	n/a	LTP283	ltpFR2	14	n/a	n/a	n/a	21	10	2	7	1
2794168	PROB	n/a	LTP283	ltpFR2	14	n/a	n/a	n/a	21	9	1	5	3
2795687	PROB	n/a	LTP283	ltpFR2	14	n/a	n/a	n/a	21	16	9	3	4
2797705	PROB	n/a	LTP283	ltpFR2	14	n/a	n/a	n/a	21	17	9	1	7
2799173	PROB	n/a	LTP283	ltpFR2	14	n/a	n/a	n/a	21	17	8	3	6
2800792	PROB	n/a	LTP283	ltpFR2	14	n/a	n/a	n/a	21	17	8	5	4
2803148	PROB	n/a	LTP283	ltpFR2	14	n/a	n/a	n/a	21	14	4	6	4
2804548	PROB	n/a	LTP283	ltpFR2	14	n/a	n/a	n/a	21	12	3	3	6
2805944	PROB	n/a	LTP283	ltpFR2	14	n/a	n/a	n/a	21	12	3	6	3
2807611	PROB	n/a	LTP283	ltpFR2	14	n/a	n/a	n/a	21	20	8	6	6
2809432	PROB	n/a	LTP283	ltpFR2	14	n/a	n/a	n/a	21	26	9	8	9
2811833	STOP	n/a	LTP283	ltpFR2	14	n/a	n/a	n/a	21	n/a	n/a	n/a	n/a
2813823	WORD	wordpools/wasnorm_wordpool_576.txt	LTP283	ltpFR2	14	13	COCKTAIL	338	n/a	n/a	0	0	0
2816324	WORD	wordpools/wasnorm_wordpool_576.txt	LTP283	ltpFR2	14	13	FRANCE	601	n/a	n/a	0	0	0
2818794	WORD	wordpools/wasnorm_wordpool_576.txt	LTP283	ltpFR2	14	13	BEAVER	109	n/a	n/a	0	0	0
2821461	WORD	wordpools/wasnorm_wordpool_576.txt	LTP283	ltpFR2	14	13	BISON	131	n/a	n/a	0	0	0
2824231	WORD	wordpools/wasnorm_wordpool_576.txt	LTP283	ltpFR2	14	13	BOUQUET	157	n/a	n/a	0	0	0
2826983	WORD	wordpools/wasnorm_wordpool_576.txt	LTP283	ltpFR2	14	13	PLASTER	1085	n/a	n/a	0	0	0
2829469	WORD	wordpools/wasnorm_wordpool_576.txt	LTP283	ltpFR2	14	13	CORAL	378	n/a	n/a	0	0	0
2832005	WORD	wordpools/wasnorm_wordpool_576.txt	LTP283	ltpFR2	14	13	SPOON	1357	n/a	n/a	0	0	0
2834689	WORD	wordpools/wasnorm_wordpool_576.txt	LTP283	ltpFR2	14	13	TWISTER	1530	n/a	n/a	0	0	0
2837241	WORD	wordpools/wasnorm_wordpool_576.txt	LTP283	ltpFR2	14	13	MAMMAL	861	n/a	n/a	0	0	0
2839928	WORD	wordpools/wasnorm_wordpool_576.txt	LTP283	ltpFR2	14	13	BUNNY	198	n/a	n/a	0	0	0
2842547	WORD	wordpools/wasnorm_wordpool_576.txt	LTP283	ltpFR2	14	13	PERCH	1048	n/a	n/a	0	0	0
2845032	WORD	wordpools/wasnorm_wordpool_576.txt	LTP283	ltpFR2	14	13	BANK	83	n/a	n/a	0	0	0
2847515	WORD	wordpools/wasnorm_wordpool_576.txt	LTP283	ltpFR2	14	13	SKILLET	1317	n/a	n/a	0	0	0
2850251	WORD	wordpools/wasnorm_wordpool_576.txt	LTP283	ltpFR2	14	13	YOLK	1633	n/a	n/a	0	0	0
2852971	WORD	wordpools/wasnorm_wordpool_576.txt	LTP283	ltpFR2	14	13	THRONE	1461	n/a	n/a	0	0	0
2855590	WORD	wordpools/wasnorm_wordpool_576.txt	LTP283	ltpFR2	14	13	SUITCASE	1403	n/a	n/a	0	0	0
2858159	WORD	wordpools/wasnorm_wordpool_576.txt	LTP283	ltpFR2	14	13	WARDROBE	1587	n/a	n/a	0	0	0
2860894	WORD	wordpools/wasnorm_wordpool_576.txt	LTP283	ltpFR2	14	13	TOURIST	1488	n/a	n/a	0	0	0
2863515	WORD	wordpools/wasnorm_wordpool_576.txt	LTP283	ltpFR2	14	13	DOLPHIN	483	n/a	n/a	0	0	0
2866133	WORD	wordpools/wasnorm_wordpool_576.txt	LTP283	ltpFR2	14	13	FIDDLE	561	n/a	n/a	0	0	0
2868784	WORD	wordpools/wasnorm_wordpool_576.txt	LTP283	ltpFR2	14	13	QUARTER	1148	n/a	n/a	0	0	0
2871435	WORD	wordpools/wasnorm_wordpool_576.txt	LTP283	ltpFR2	14	13	LAGOON	795	n/a	n/a	0	0	0
2873888	WORD	wordpools/wasnorm_wordpool_576.txt	LTP283	ltpFR2	14	13	BLOCKADE	137	n/a	n/a	0	0	0
2875506	START	n/a	LTP283	ltpFR2	14	n/a	n/a	n/a	22	n/a	n/a	n/a	n/a
2876588	DISTRACTOR	n/a	LTP283	ltpFR2	14	13	n/a	n/a	n/a	n/a	0	0	0
2876605	PROB	n/a	LTP283	ltpFR2	14	n/a	n/a	n/a	22	13	4	8	1
2879588	PROB	n/a	LTP283	ltpFR2	14	n/a	n/a	n/a	22	14	3	2	9
2881476	PROB	n/a	LTP283	ltpFR2	14	n/a	n/a	n/a	22	6	3	2	1
2882773	PROB	n/a	LTP283	ltpFR2	14	n/a	n/a	n/a	22	25	8	8	9
2884825	PROB	n/a	LTP283	ltpFR2	14	n/a	n/a	n/a	22	24	9	9	6
2887632	PROB	n/a	LTP283	ltpFR2	14	n/a	n/a	n/a	22	6	2	2	2
2888760	PROB	n/a	LTP283	ltpFR2	14	n/a	n/a	n/a	22	12	2	3	7
2890144	PROB	n/a	LTP283	ltpFR2	14	n/a	n/a	n/a	22	10	3	2	5
2891467	PROB	n/a	LTP283	ltpFR2	14	n/a	n/a	n/a	22	23	9	9	5
2893297	PROB	n/a	LTP283	ltpFR2	14	n/a	n/a	n/a	22	14	1	8	5
2895483	PROB	n/a	LTP283	ltpFR2	14	n/a	n/a	n/a	22	20	8	3	9
2897040	PROB	n/a	LTP283	ltpFR2	14	n/a	n/a	n/a	22	13	5	3	5
2898290	STOP	n/a	LTP283	ltpFR2	14	n/a	n/a	n/a	22	n/a	n/a	n/a	n/a
2901436	REC_START	n/a	LTP283	ltpFR2	14	13	n/a	n/a	n/a	n/a	0	0	0
2904305	REC_WORD	wordpools/wasnorm_wordpool_576.txt	LTP283	ltpFR2	14	13	BLOCKADE	137	n/a	n/a	0	0	0
2905121	REC_WORD	wordpools/wasnorm_wordpool_576.txt	LTP283	ltpFR2	14	13	QUARTER	1148	n/a	n/a	0	0	0
2905625	REC_WORD	wordpools/wasnorm_wordpool_576.txt	LTP283	ltpFR2	14	13	LAGOON	795	n/a	n/a	0	0	0
2906287	REC_WORD	wordpools/wasnorm_wordpool_576.txt	LTP283	ltpFR2	14	13	DOLPHIN	483	n/a	n/a	0	0	0
2906890	REC_WORD	wordpools/wasnorm_wordpool_576.txt	LTP283	ltpFR2	14	13	TOURIST	1488	n/a	n/a	0	0	0
2914243	REC_WORD	wordpools/wasnorm_wordpool_576.txt	LTP283	ltpFR2	14	13	WARDROBE	1587	n/a	n/a	0	0	0
2914861	REC_WORD	wordpools/wasnorm_wordpool_576.txt	LTP283	ltpFR2	14	13	SUITCASE	1403	n/a	n/a	0	0	0
2991965	DISTRACTOR	n/a	LTP283	ltpFR2	14	14	n/a	n/a	n/a	n/a	0	0	0
2991966	START	n/a	LTP283	ltpFR2	14	n/a	n/a	n/a	23	n/a	n/a	n/a	n/a
2991999	PROB	n/a	LTP283	ltpFR2	14	n/a	n/a	n/a	23	11	1	3	7
2993445	PROB	n/a	LTP283	ltpFR2	14	n/a	n/a	n/a	23	17	7	5	5
2994911	PROB	n/a	LTP283	ltpFR2	14	n/a	n/a	n/a	23	17	4	6	7
2996311	PROB	n/a	LTP283	ltpFR2	14	n/a	n/a	n/a	23	14	2	8	4
2997664	PROB	n/a	LTP283	ltpFR2	14	n/a	n/a	n/a	23	14	5	8	1
2999381	PROB	n/a	LTP283	ltpFR2	14	n/a	n/a	n/a	23	16	9	4	3
3000918	PROB	n/a	LTP283	ltpFR2	14	n/a	n/a	n/a	23	20	4	8	8
3002201	PROB	n/a	LTP283	ltpFR2	14	n/a	n/a	n/a	23	14	6	6	2
3003685	PROB	n/a	LTP283	ltpFR2	14	n/a	n/a	n/a	23	16	6	4	6
3004969	PROB	n/a	LTP283	ltpFR2	14	n/a	n/a	n/a	23	15	3	6	6
3006857	PROB	n/a	LTP283	ltpFR2	14	n/a	n/a	n/a	23	8	5	1	2
3008204	PROB	n/a	LTP283	ltpFR2	14	n/a	n/a	n/a	23	22	8	6	8
3010512	PROB	n/a	LTP283	ltpFR2	14	n/a	n/a	n/a	23	19	5	6	7
3014115	PROB	n/a	LTP283	ltpFR2	14	n/a	n/a	n/a	23	14	4	1	9
3015662	STOP	n/a	LTP283	ltpFR2	14	n/a	n/a	n/a	23	n/a	n/a	n/a	n/a
3016918	WORD	wordpools/wasnorm_wordpool_576.txt	LTP283	ltpFR2	14	14	SUBWAY	1400	n/a	n/a	0	0	0
3019503	WORD	wordpools/wasnorm_wordpool_576.txt	LTP283	ltpFR2	14	14	COUNTY	389	n/a	n/a	0	0	0
3022039	WORD	wordpools/wasnorm_wordpool_576.txt	LTP283	ltpFR2	14	14	STOVE	1388	n/a	n/a	0	0	0
3024808	WORD	wordpools/wasnorm_wordpool_576.txt	LTP283	ltpFR2	14	14	SCALLOP	1242	n/a	n/a	0	0	0
3027309	WORD	wordpools/wasnorm_wordpool_576.txt	LTP283	ltpFR2	14	14	MARKET	871	n/a	n/a	0	0	0
3030014	WORD	wordpools/wasnorm_wordpool_576.txt	LTP283	ltpFR2	14	14	CAFE	216	n/a	n/a	0	0	0
3032464	WORD	wordpools/wasnorm_wordpool_576.txt	LTP283	ltpFR2	14	14	CHAUFFEUR	283	n/a	n/a	0	0	0
3035183	WORD	wordpools/wasnorm_wordpool_576.txt	LTP283	ltpFR2	14	14	MATCH	878	n/a	n/a	0	0	0
3037668	WORD	wordpools/wasnorm_wordpool_576.txt	LTP283	ltpFR2	14	14	PUDDLE	1140	n/a	n/a	0	0	0
3040204	WORD	wordpools/wasnorm_wordpool_576.txt	LTP283	ltpFR2	14	14	SLIME	1327	n/a	n/a	0	0	0
3042956	WORD	wordpools/wasnorm_wordpool_576.txt	LTP283	ltpFR2	14	14	EYELASH	546	n/a	n/a	0	0	0
3045575	WORD	wordpools/wasnorm_wordpool_576.txt	LTP283	ltpFR2	14	14	RATTLE	1170	n/a	n/a	0	0	0
3048194	WORD	wordpools/wasnorm_wordpool_576.txt	LTP283	ltpFR2	14	14	POSTAGE	1113	n/a	n/a	0	0	0
3050931	WORD	wordpools/wasnorm_wordpool_576.txt	LTP283	ltpFR2	14	14	CROSS	413	n/a	n/a	0	0	0
3053597	WORD	wordpools/wasnorm_wordpool_576.txt	LTP283	ltpFR2	14	14	GHETTO	633	n/a	n/a	0	0	0
3056066	WORD	wordpools/wasnorm_wordpool_576.txt	LTP283	ltpFR2	14	14	BRACES	164	n/a	n/a	0	0	0
3058620	WORD	wordpools/wasnorm_wordpool_576.txt	LTP283	ltpFR2	14	14	SPARROW	1347	n/a	n/a	0	0	0
3061436	WORD	wordpools/wasnorm_wordpool_576.txt	LTP283	ltpFR2	14	14	ROOSTER	1209	n/a	n/a	0	0	0
3063989	WORD	wordpools/wasnorm_wordpool_576.txt	LTP283	ltpFR2	14	14	IDOL	733	n/a	n/a	0	0	0
3066557	WORD	wordpools/wasnorm_wordpool_576.txt	LTP283	ltpFR2	14	14	COOK	372	n/a	n/a	0	0	0
3069359	WORD	wordpools/wasnorm_wordpool_576.txt	LTP283	ltpFR2	14	14	KITCHEN	778	n/a	n/a	0	0	0
3071963	WORD	wordpools/wasnorm_wordpool_576.txt	LTP283	ltpFR2	14	14	COURSE	390	n/a	n/a	0	0	0
3074430	WORD	wordpools/wasnorm_wordpool_576.txt	LTP283	ltpFR2	14	14	FIREMAN	569	n/a	n/a	0	0	0
3076983	WORD	wordpools/wasnorm_wordpool_576.txt	LTP283	ltpFR2	14	14	EMPIRE	530	n/a	n/a	0	0	0
3078601	START	n/a	LTP283	ltpFR2	14	n/a	n/a	n/a	24	n/a	n/a	n/a	n/a
3079708	DISTRACTOR	n/a	LTP283	ltpFR2	14	14	n/a	n/a	n/a	n/a	0	0	0
3079718	PROB	n/a	LTP283	ltpFR2	14	n/a	n/a	n/a	24	12	7	1	4
3082804	PROB	n/a	LTP283	ltpFR2	14	n/a	n/a	n/a	24	23	9	5	9
3084799	PROB	n/a	LTP283	ltpFR2	14	n/a	n/a	n/a	24	20	2	9	9
3086190	PROB	n/a	LTP283	ltpFR2	14	n/a	n/a	n/a	24	20	4	9	7
3087591	PROB	n/a	LTP283	ltpFR2	14	n/a	n/a	n/a	24	16	5	6	5
3089070	PROB	n/a	LTP283	ltpFR2	14	n/a	n/a	n/a	24	22	9	9	4
3090455	PROB	n/a	LTP283	ltpFR2	14	n/a	n/a	n/a	24	12	2	2	8
3091909	PROB	n/a	LTP283	ltpFR2	14	n/a	n/a	n/a	24	13	7	1	5
3093691	PROB	n/a	LTP283	ltpFR2	14	n/a	n/a	n/a	24	20	9	2	9
3095109	PROB	n/a	LTP283	ltpFR2	14	n/a	n/a	n/a	24	10	5	4	1
3096375	PROB	n/a	LTP283	ltpFR2	14	n/a	n/a	n/a	24	15	3	3	9
3097762	PROB	n/a	LTP283	ltpFR2	14	n/a	n/a	n/a	24	19	8	2	9
3099395	PROB	n/a	LTP283	ltpFR2	14	n/a	n/a	n/a	24	11	4	3	4
3101046	PROB	n/a	LTP283	ltpFR2	14	n/a	n/a	n/a	24	5	2	1	2
3102082	STOP	n/a	LTP283	ltpFR2	14	n/a	n/a	n/a	24	n/a	n/a	n/a	n/a
3104482	REC_START	n/a	LTP283	ltpFR2	14	14	n/a	n/a	n/a	n/a	0	0	0
3106938	REC_WORD	wordpools/wasnorm_wordpool_576.txt	LTP283	ltpFR2	14	14	EMPIRE	530	n/a	n/a	0	0	0
3107749	REC_WORD	wordpools/wasnorm_wordpool_576.txt	LTP283	ltpFR2	14	14	KITCHEN	778	n/a	n/a	0	0	0
3108438	REC_WORD	wordpools/wasnorm_wordpool_576.txt	LTP283	ltpFR2	14	14	IDOL	733	n/a	n/a	0	0	0
3111765	REC_WORD	wordpools/wasnorm_wordpool_576.txt	LTP283	ltpFR2	14	14	POSTAGE	1113	n/a	n/a	0	0	0
3113272	REC_WORD	wordpools/wasnorm_wordpool_576.txt	LTP283	ltpFR2	14	14	RATTLE	1170	n/a	n/a	0	0	0
3114274	REC_WORD	wordpools/wasnorm_wordpool_576.txt	LTP283	ltpFR2	14	14	CROSS	413	n/a	n/a	0	0	0
3117331	REC_WORD	wordpools/wasnorm_wordpool_576.txt	LTP283	ltpFR2	14	14	CHAUFFEUR	283	n/a	n/a	0	0	0
3118404	REC_WORD	wordpools/wasnorm_wordpool_576.txt	LTP283	ltpFR2	14	14	COUNTY	389	n/a	n/a	0	0	0
3119810	REC_WORD	wordpools/wasnorm_wordpool_576.txt	LTP283	ltpFR2	14	14	SUBWAY	1400	n/a	n/a	0	0	0
3120760	REC_WORD	wordpools/wasnorm_wordpool_576.txt	LTP283	ltpFR2	14	14	CAFE	216	n/a	n/a	0	0	0
3121420	REC_WORD	wordpools/wasnorm_wordpool_576.txt	LTP283	ltpFR2	14	14	MARKET	871	n/a	n/a	0	0	0
3125120	REC_WORD	wordpools/wasnorm_wordpool_576.txt	LTP283	ltpFR2	14	14	SCALLOP	1242	n/a	n/a	0	0	0
3127802	REC_WORD	wordpools/wasnorm_wordpool_576.txt	LTP283	ltpFR2	14	14	STOVE	1388	n/a	n/a	0	0	0
3145146	REC_WORD	wordpools/wasnorm_wordpool_576.txt	LTP283	ltpFR2	14	14	GHETTO	633	n/a	n/a	0	0	0
3151325	REC_WORD	wordpools/wasnorm_wordpool_576.txt	LTP283	ltpFR2	14	14	MATCH	878	n/a	n/a	0	0	0
3154656	REC_WORD	wordpools/wasnorm_wordpool_576.txt	LTP283	ltpFR2	14	14	PUDDLE	1140	n/a	n/a	0	0	0
3155077	REC_WORD	wordpools/wasnorm_wordpool_576.txt	LTP283	ltpFR2	14	14	SLIME	1327	n/a	n/a	0	0	0
3159201	REC_WORD	wordpools/wasnorm_wordpool_576.txt	LTP283	ltpFR2	14	14	EYELASH	546	n/a	n/a	0	0	0
3195012	DISTRACTOR	n/a	LTP283	ltpFR2	14	15	n/a	n/a	n/a	n/a	0	0	0
3195012	START	n/a	LTP283	ltpFR2	14	n/a	n/a	n/a	25	n/a	n/a	n/a	n/a
3195044	PROB	n/a	LTP283	ltpFR2	14	n/a	n/a	n/a	25	13	4	6	3
3196460	PROB	n/a	LTP283	ltpFR2	14	n/a	n/a	n/a	25	18	9	3	6
3198091	PROB	n/a	LTP283	ltpFR2	14	n/a	n/a	n/a	25	9	3	5	1
3199492	PROB	n/a	LTP283	ltpFR2	14	n/a	n/a	n/a	25	21	6	8	7
3201225	PROB	n/a	LTP283	ltpFR2	14	n/a	n/a	n/a	25	8	3	4	1
3202601	PROB	n/a	LTP283	ltpFR2	14	n/a	n/a	n/a	25	17	8	2	7
3204233	PROB	n/a	LTP283	ltpFR2	14	n/a	n/a	n/a	25	12	1	3	8
3205584	PROB	n/a	LTP283	ltpFR2	14	n/a	n/a	n/a	25	13	1	7	5
3207120	PROB	n/a	LTP283	ltpFR2	14	n/a	n/a	n/a	25	13	4	6	3
3208369	PROB	n/a	LTP283	ltpFR2	14	n/a	n/a	n/a	25	6	1	3	2
3209866	PROB	n/a	LTP283	ltpFR2	14	n/a	n/a	n/a	25	13	3	6	4
3211173	PROB	n/a	LTP283	ltpFR2	14	n/a	n/a	n/a	25	16	7	1	8
3212819	PROB	n/a	LTP283	ltpFR2	14	n/a	n/a	n/a	25	26	8	9	9
3214637	PROB	n/a	LTP283	ltpFR2	14	n/a	n/a	n/a	25	12	2	6	4
3216038	PROB	n/a	LTP283	ltpFR2	14	n/a	n/a	n/a	25	16	8	1	7
3217645	STOP	n/a	LTP283	ltpFR2	14	n/a	n/a	n/a	25	n/a	n/a	n/a	n/a
3220197	WORD	wordpools/wasnorm_wordpool_576.txt	LTP283	ltpFR2	14	15	TURTLE	1522	n/a	n/a	0	0	0
3222783	WORD	wordpools/wasnorm_wordpool_576.txt	LTP283	ltpFR2	14	15	PIMPLE	1071	n/a	n/a	0	0	0
3225417	WORD	wordpools/wasnorm_wordpool_576.txt	LTP283	ltpFR2	14	15	WHISKERS	1605	n/a	n/a	0	0	0
3228087	WORD	wordpools/wasnorm_wordpool_576.txt	LTP283	ltpFR2	14	15	OINTMENT	974	n/a	n/a	0	0	0
3230839	WORD	wordpools/wasnorm_wordpool_576.txt	LTP283	ltpFR2	14	15	DRUG	501	n/a	n/a	0	0	0
3233442	WORD	wordpools/wasnorm_wordpool_576.txt	LTP283	ltpFR2	14	15	PIGEON	1065	n/a	n/a	0	0	0
3236160	WORD	wordpools/wasnorm_wordpool_576.txt	LTP283	ltpFR2	14	15	QUAIL	1147	n/a	n/a	0	0	0
3238694	WORD	wordpools/wasnorm_wordpool_576.txt	LTP283	ltpFR2	14	15	SWAMP	1416	n/a	n/a	0	0	0
3241297	WORD	wordpools/wasnorm_wordpool_576.txt	LTP283	ltpFR2	14	15	KLEENEX	782	n/a	n/a	0	0	0
3243900	WORD	wordpools/wasnorm_wordpool_576.txt	LTP283	ltpFR2	14	15	DRINK	498	n/a	n/a	0	0	0
3246519	WORD	wordpools/wasnorm_wordpool_576.txt	LTP283	ltpFR2	14	15	NAPKIN	937	n/a	n/a	0	0	0
3249352	WORD	wordpools/wasnorm_wordpool_576.txt	LTP283	ltpFR2	14	15	MARSH	874	n/a	n/a	0	0	0
3252006	WORD	wordpools/wasnorm_wordpool_576.txt	LTP283	ltpFR2	14	15	LILY	821	n/a	n/a	0	0	0
3254491	WORD	wordpools/wasnorm_wordpool_576.txt	LTP283	ltpFR2	14	15	SNAIL	1332	n/a	n/a	0	0	0
3257225	WORD	wordpools/wasnorm_wordpool_576.txt	LTP283	ltpFR2	14	15	BULLET	194	n/a	n/a	0	0	0
3259862	WORD	wordpools/wasnorm_wordpool_576.txt	LTP283	ltpFR2	14	15	STREAM	1392	n/a	n/a	0	0	0
3262613	WORD	wordpools/wasnorm_wordpool_576.txt	LTP283	ltpFR2	14	15	GROUND	666	n/a	n/a	0	0	0
3265182	WORD	wordpools/wasnorm_wordpool_576.txt	LTP283	ltpFR2	14	15	PICTURE	1061	n/a	n/a	0	0	0
3267952	WORD	wordpools/wasnorm_wordpool_576.txt	LTP283	ltpFR2	14	15	HOUND	724	n/a	n/a	0	0	0
3270519	WORD	wordpools/wasnorm_wordpool_576.txt	LTP283	ltpFR2	14	15	FRIEND	606	n/a	n/a	0	0	0
3273089	WORD	wordpools/wasnorm_wordpool_576.txt	LTP283	ltpFR2	14	15	OFFICE	972	n/a	n/a	0	0	0
3275691	WORD	wordpools/wasnorm_wordpool_576.txt	LTP283	ltpFR2	14	15	COBRA	336	n/a	n/a	0	0	0
3278193	WORD	wordpools/wasnorm_wordpool_576.txt	LTP283	ltpFR2	14	15	SILK	1307	n/a	n/a	0	0	0
3280762	WORD	wordpools/wasnorm_wordpool_576.txt	LTP283	ltpFR2	14	15	DANDRUFF	439	n/a	n/a	0	0	0
3282380	START	n/a	LTP283	ltpFR2	14	n/a	n/a	n/a	26	n/a	n/a	n/a	n/a
3283459	DISTRACTOR	n/a	LTP283	ltpFR2	14	15	n/a	n/a	n/a	n/a	0	0	0
3283480	PROB	n/a	LTP283	ltpFR2	14	n/a	n/a	n/a	26	17	7	2	8
3285560	PROB	n/a	LTP283	ltpFR2	14	n/a	n/a	n/a	26	17	1	8	8
3287533	PROB	n/a	LTP283	ltpFR2	14	n/a	n/a	n/a	26	18	5	9	4
3289651	PROB	n/a	LTP283	ltpFR2	14	n/a	n/a	n/a	26	16	8	4	4
3291181	PROB	n/a	LTP283	ltpFR2	14	n/a	n/a	n/a	26	20	7	9	4
3292415	PROB	n/a	LTP283	ltpFR2	14	n/a	n/a	n/a	26	24	9	8	7
3294750	PROB	n/a	LTP283	ltpFR2	14	n/a	n/a	n/a	26	14	1	5	8
3296351	PROB	n/a	LTP283	ltpFR2	14	n/a	n/a	n/a	26	15	5	5	5
3297569	PROB	n/a	LTP283	ltpFR2	14	n/a	n/a	n/a	26	11	5	5	1
3298719	PROB	n/a	LTP283	ltpFR2	14	n/a	n/a	n/a	26	11	4	2	5
3300421	PROB	n/a	LTP283	ltpFR2	14	n/a	n/a	n/a	26	21	9	4	8
3302441	PROB	n/a	LTP283	ltpFR2	14	n/a	n/a	n/a	26	23	7	6	9
3306380	STOP	n/a	LTP283	ltpFR2	14	n/a	n/a	n/a	26	n/a	n/a	n/a	n/a
3308278	REC_START	n/a	LTP283	ltpFR2	14	15	n/a	n/a	n/a	n/a	0	0	0
3315388	REC_WORD	wordpools/wasnorm_wordpool_576.txt	LTP283	ltpFR2	14	15	SWAMP	1416	n/a	n/a	0	0	0
3316388	REC_WORD_VV	wordpools/wasnorm_wordpool_576.txt	LTP283	ltpFR2	14	15	<>	-1	n/a	n/a	0	0	0
3316987	REC_WORD	wordpools/wasnorm_wordpool_576.txt	LTP283	ltpFR2	14	15	MARSH	874	n/a	n/a	0	0	0
3321190	REC_WORD	wordpools/wasnorm_wordpool_576.txt	LTP283	ltpFR2	14	15	SNAIL	1332	n/a	n/a	0	0	0
3322190	REC_WORD_VV	wordpools/wasnorm_wordpool_576.txt	LTP283	ltpFR2	14	15	<>	-1	n/a	n/a	0	0	0
3323139	REC_WORD	wordpools/wasnorm_wordpool_576.txt	LTP283	ltpFR2	14	15	COBRA	336	n/a	n/a	0	0	0
3323703	REC_WORD	wordpools/wasnorm_wordpool_576.txt	LTP283	ltpFR2	14	15	SILK	1307	n/a	n/a	0	0	0
3324368	REC_WORD	wordpools/wasnorm_wordpool_576.txt	LTP283	ltpFR2	14	15	DANDRUFF	439	n/a	n/a	0	0	0
3327776	REC_WORD	wordpools/wasnorm_wordpool_576.txt	LTP283	ltpFR2	14	15	PICTURE	1061	n/a	n/a	0	0	0
3330048	REC_WORD	wordpools/wasnorm_wordpool_576.txt	LTP283	ltpFR2	14	15	BULLET	194	n/a	n/a	0	0	0
3334619	REC_WORD	wordpools/wasnorm_wordpool_576.txt	LTP283	ltpFR2	14	15	PIMPLE	1071	n/a	n/a	0	0	0
3335221	REC_WORD	wordpools/wasnorm_wordpool_576.txt	LTP283	ltpFR2	14	15	TURTLE	1522	n/a	n/a	0	0	0
3335871	REC_WORD	wordpools/wasnorm_wordpool_576.txt	LTP283	ltpFR2	14	15	WHISKERS	1605	n/a	n/a	0	0	0
3336691	REC_WORD_VV	wordpools/wasnorm_wordpool_576.txt	LTP283	ltpFR2	14	15	<>	-1	n/a	n/a	0	0	0
3337111	REC_WORD	wordpools/wasnorm_wordpool_576.txt	LTP283	ltpFR2	14	15	DRUG	501	n/a	n/a	0	0	0
3337650	REC_WORD	wordpools/wasnorm_wordpool_576.txt	LTP283	ltpFR2	14	15	OINTMENT	974	n/a	n/a	0	0	0
3338717	REC_WORD	wordpools/wasnorm_wordpool_576.txt	LTP283	ltpFR2	14	15	PIGEON	1065	n/a	n/a	0	0	0
3339175	REC_WORD	wordpools/wasnorm_wordpool_576.txt	LTP283	ltpFR2	14	15	QUAIL	1147	n/a	n/a	0	0	0
3340972	REC_WORD	wordpools/wasnorm_wordpool_576.txt	LTP283	ltpFR2	14	15	NAPKIN	937	n/a	n/a	0	0	0
3341526	REC_WORD	wordpools/wasnorm_wordpool_576.txt	LTP283	ltpFR2	14	15	KLEENEX	782	n/a	n/a	0	0	0
3344310	REC_WORD	wordpools/wasnorm_wordpool_576.txt	LTP283	ltpFR2	14	15	DRINK	498	n/a	n/a	0	0	0
3351717	REC_WORD_VV	wordpools/wasnorm_wordpool_576.txt	LTP283	ltpFR2	14	15	<>	-1	n/a	n/a	0	0	0
3353385	REC_WORD	wordpools/wasnorm_wordpool_576.txt	LTP283	ltpFR2	14	15	COBRA	336	n/a	n/a	0	0	0
3354966	REC_WORD	wordpools/wasnorm_wordpool_576.txt	LTP283	ltpFR2	14	15	SCARF	1246	n/a	n/a	0	0	0
3398818	WORD	wordpools/wasnorm_wordpool_576.txt	LTP283	ltpFR2	14	16	JURY	766	n/a	n/a	0	0	0
3401460	WORD	wordpools/wasnorm_wordpool_576.txt	LTP283	ltpFR2	14	16	WIFE	1609	n/a	n/a	0	0	0
3404127	WORD	wordpools/wasnorm_wordpool_576.txt	LTP283	ltpFR2	14	16	YACHT	1629	n/a	n/a	0	0	0
3406812	WORD	wordpools/wasnorm_wordpool_576.txt	LTP283	ltpFR2	14	16	APPLE	33	n/a	n/a	0	0	0
3409614	WORD	wordpools/wasnorm_wordpool_576.txt	LTP283	ltpFR2	14	16	PEACH	1031	n/a	n/a	0	0	0
3412119	WORD	wordpools/wasnorm_wordpool_576.txt	LTP283	ltpFR2	14	16	BUREAU	199	n/a	n/a	0	0	0
3414852	WORD	wordpools/wasnorm_wordpool_576.txt	LTP283	ltpFR2	14	16	STONE	1385	n/a	n/a	0	0	0
3417554	WORD	wordpools/wasnorm_wordpool_576.txt	LTP283	ltpFR2	14	16	CRUTCH	417	n/a	n/a	0	0	0
3420140	WORD	wordpools/wasnorm_wordpool_576.txt	LTP283	ltpFR2	14	16	ARM	38	n/a	n/a	0	0	0
3422724	WORD	wordpools/wasnorm_wordpool_576.txt	LTP283	ltpFR2	14	16	OZONE	996	n/a	n/a	0	0	0
3425293	WORD	wordpools/wasnorm_wordpool_576.txt	LTP283	ltpFR2	14	16	GLOBE	641	n/a	n/a	0	0	0
3427728	WORD	wordpools/wasnorm_wordpool_576.txt	LTP283	ltpFR2	14	16	FOX	598	n/a	n/a	0	0	0
3430447	WORD	wordpools/wasnorm_wordpool_576.txt	LTP283	ltpFR2	14	16	BROTHER	179	n/a	n/a	0	0	0
3432933	WORD	wordpools/wasnorm_wordpool_576.txt	LTP283	ltpFR2	14	16	WIDOW	1608	n/a	n/a	0	0	0
3435451	WORD	wordpools/wasnorm_wordpool_576.txt	LTP283	ltpFR2	14	16	POLICE	1098	n/a	n/a	0	0	0
3438221	WORD	wordpools/wasnorm_wordpool_576.txt	LTP283	ltpFR2	14	16	CRICKET	408	n/a	n/a	0	0	0
3440956	WORD	wordpools/wasnorm_wordpool_576.txt	LTP283	ltpFR2	14	16	RAFT	1159	n/a	n/a	0	0	0
3443407	WORD	wordpools/wasnorm_wordpool_576.txt	LTP283	ltpFR2	14	16	CASKET	255	n/a	n/a	0	0	0
3445911	WORD	wordpools/wasnorm_wordpool_576.txt	LTP283	ltpFR2	14	16	SPOUSE	1358	n/a	n/a	0	0	0
3448495	WORD	wordpools/wasnorm_wordpool_576.txt	LTP283	ltpFR2	14	16	DENIM	446	n/a	n/a	0	0	0
3451230	WORD	wordpools/wasnorm_wordpool_576.txt	LTP283	ltpFR2	14	16	GRAVE	658	n/a	n/a	0	0	0
3453950	WORD	wordpools/wasnorm_wordpool_576.txt	LTP283	ltpFR2	14	16	CHIPMUNK	304	n/a	n/a	0	0	0
3456770	WORD	wordpools/wasnorm_wordpool_576.txt	LTP283	ltpFR2	14	16	PEPPER	1047	n/a	n/a	0	0	0
3459520	WORD	wordpools/wasnorm_wordpool_576.txt	LTP283	ltpFR2	14	16	CANDY	230	n/a	n/a	0	0	0
3461141	START	n/a	LTP283	ltpFR2	14	n/a	n/a	n/a	27	n/a	n/a	n/a	n/a
3462302	DISTRACTOR	n/a	LTP283	ltpFR2	14	16	n/a	n/a	n/a	n/a	0	0	0
3462322	PROB	n/a	LTP283	ltpFR2	14	n/a	n/a	n/a	27	17	7	1	9
3464120	PROB	n/a	LTP283	ltpFR2	14	n/a	n/a	n/a	27	7	3	3	1
3465537	PROB	n/a	LTP283	ltpFR2	14	n/a	n/a	n/a	27	13	4	6	3
3468271	PROB	n/a	LTP283	ltpFR2	14	n/a	n/a	n/a	27	17	5	9	3
3471975	PROB	n/a	LTP283	ltpFR2	14	n/a	n/a	n/a	27	13	3	1	9
3473344	PROB	n/a	LTP283	ltpFR2	14	n/a	n/a	n/a	27	19	2	8	9
3475079	PROB	n/a	LTP283	ltpFR2	14	n/a	n/a	n/a	27	20	7	4	9
3476394	PROB	n/a	LTP283	ltpFR2	14	n/a	n/a	n/a	27	17	3	5	9
3477930	PROB	n/a	LTP283	ltpFR2	14	n/a	n/a	n/a	27	14	1	5	8
3479598	PROB	n/a	LTP283	ltpFR2	14	n/a	n/a	n/a	27	20	7	4	9
3481054	PROB	n/a	LTP283	ltpFR2	14	n/a	n/a	n/a	27	22	5	8	9
3485141	STOP	n/a	LTP283	ltpFR2	14	n/a	n/a	n/a	27	n/a	n/a	n/a	n/a
3486937	REC_START	n/a	LTP283	ltpFR2	14	16	n/a	n/a	n/a	n/a	0	0	0
3490124	REC_WORD	wordpools/wasnorm_wordpool_576.txt	LTP283	ltpFR2	14	16	WIDOW	1608	n/a	n/a	0	0	0
3491221	REC_WORD	wordpools/wasnorm_wordpool_576.txt	LTP283	ltpFR2	14	16	GRAVE	658	n/a	n/a	0	0	0
3491682	REC_WORD	wordpools/wasnorm_wordpool_576.txt	LTP283	ltpFR2	14	16	SPOUSE	1358	n/a	n/a	0	0	0
3492785	REC_WORD	wordpools/wasnorm_wordpool_576.txt	LTP283	ltpFR2	14	16	DENIM	446	n/a	n/a	0	0	0
3493420	REC_WORD	wordpools/wasnorm_wordpool_576.txt	LTP283	ltpFR2	14	16	RAFT	1159	n/a	n/a	0	0	0
3494224	REC_WORD	wordpools/wasnorm_wordpool_576.txt	LTP283	ltpFR2	14	16	CASKET	255	n/a	n/a	0	0	0
3497736	REC_WORD	wordpools/wasnorm_wordpool_576.txt	LTP283	ltpFR2	14	16	CHIPMUNK	304	n/a	n/a	0	0	0
3498599	REC_WORD	wordpools/wasnorm_wordpool_576.txt	LTP283	ltpFR2	14	16	CHEEK	287	n/a	n/a	0	0	0
3499741	REC_WORD	wordpools/wasnorm_wordpool_576.txt	LTP283	ltpFR2	14	16	CANDY	230	n/a	n/a	0	0	0
3501759	REC_WORD	wordpools/wasnorm_wordpool_576.txt	LTP283	ltpFR2	14	16	FOX	598	n/a	n/a	0	0	0
3502759	REC_WORD_VV	wordpools/wasnorm_wordpool_576.txt	LTP283	ltpFR2	14	16	<>	-1	n/a	n/a	0	0	0
3503117	REC_WORD	wordpools/wasnorm_wordpool_576.txt	LTP283	ltpFR2	14	16	PEACH	1031	n/a	n/a	0	0	0
3504175	REC_WORD	wordpools/wasnorm_wordpool_576.txt	LTP283	ltpFR2	14	16	APPLE	33	n/a	n/a	0	0	0
3504893	REC_WORD	wordpools/wasnorm_wordpool_576.txt	LTP283	ltpFR2	14	16	YACHT	1629	n/a	n/a	0	0	0
3506990	REC_WORD	wordpools/wasnorm_wordpool_576.txt	LTP283	ltpFR2	14	16	JURY	766	n/a	n/a	0	0	0
3509515	REC_WORD	wordpools/wasnorm_wordpool_576.txt	LTP283	ltpFR2	14	16	WIFE	1609	n/a	n/a	0	0	0
3512078	REC_WORD	wordpools/wasnorm_wordpool_576.txt	LTP283	ltpFR2	14	16	CRUTCH	417	n/a	n/a	0	0	0
3516543	REC_WORD	wordpools/wasnorm_wordpool_576.txt	LTP283	ltpFR2	14	16	ARM	38	n/a	n/a	0	0	0
3518001	REC_WORD	wordpools/wasnorm_wordpool_576.txt	LTP283	ltpFR2	14	16	OZONE	996	n/a	n/a	0	0	0
3519117	REC_WORD	wordpools/wasnorm_wordpool_576.txt	LTP283	ltpFR2	14	16	GLOBE	641	n/a	n/a	0	0	0
3563487	REST_REWET	n/a	LTP283	ltpFR2	14	16	n/a	n/a	n/a	n/a	0	0	0
3961747	WORD	wordpools/wasnorm_wordpool_576.txt	LTP283	ltpFR2	14	17	LIPSTICK	829	n/a	n/a	0	0	0
3964258	WORD	wordpools/wasnorm_wordpool_576.txt	LTP283	ltpFR2	14	17	LAVA	804	n/a	n/a	0	0	0
3966776	WORD	wordpools/wasnorm_wordpool_576.txt	LTP283	ltpFR2	14	17	STICKER	1382	n/a	n/a	0	0	0
3969376	WORD	wordpools/wasnorm_wordpool_576.txt	LTP283	ltpFR2	14	17	ZEBRA	1635	n/a	n/a	0	0	0
3971946	WORD	wordpools/wasnorm_wordpool_576.txt	LTP283	ltpFR2	14	17	HORSE	719	n/a	n/a	0	0	0
3974782	WORD	wordpools/wasnorm_wordpool_576.txt	LTP283	ltpFR2	14	17	JUNGLE	764	n/a	n/a	0	0	0
3977566	WORD	wordpools/wasnorm_wordpool_576.txt	LTP283	ltpFR2	14	17	GREASE	660	n/a	n/a	0	0	0
3980187	WORD	wordpools/wasnorm_wordpool_576.txt	LTP283	ltpFR2	14	17	COCOON	339	n/a	n/a	0	0	0
3982905	WORD	wordpools/wasnorm_wordpool_576.txt	LTP283	ltpFR2	14	17	TUTU	1524	n/a	n/a	0	0	0
3985339	WORD	wordpools/wasnorm_wordpool_576.txt	LTP283	ltpFR2	14	17	PLAYGROUND	1087	n/a	n/a	0	0	0
3987960	WORD	wordpools/wasnorm_wordpool_576.txt	LTP283	ltpFR2	14	17	ITEM	746	n/a	n/a	0	0	0
3990427	WORD	wordpools/wasnorm_wordpool_576.txt	LTP283	ltpFR2	14	17	POCKET	1093	n/a	n/a	0	0	0
3993164	WORD	wordpools/wasnorm_wordpool_576.txt	LTP283	ltpFR2	14	17	PASTRY	1022	n/a	n/a	0	0	0
3995665	WORD	wordpools/wasnorm_wordpool_576.txt	LTP283	ltpFR2	14	17	SLIDE	1326	n/a	n/a	0	0	0
3998316	WORD	wordpools/wasnorm_wordpool_576.txt	LTP283	ltpFR2	14	17	DIVER	476	n/a	n/a	0	0	0
4000919	WORD	wordpools/wasnorm_wordpool_576.txt	LTP283	ltpFR2	14	17	PEBBLE	1035	n/a	n/a	0	0	0
4003688	WORD	wordpools/wasnorm_wordpool_576.txt	LTP283	ltpFR2	14	17	TERMITE	1451	n/a	n/a	0	0	0
4006289	WORD	wordpools/wasnorm_wordpool_576.txt	LTP283	ltpFR2	14	17	ASIA	46	n/a	n/a	0	0	0
4008993	WORD	wordpools/wasnorm_wordpool_576.txt	LTP283	ltpFR2	14	17	HAMPER	682	n/a	n/a	0	0	0
4011711	WORD	wordpools/wasnorm_wordpool_576.txt	LTP283	ltpFR2	14	17	HEDGE	699	n/a	n/a	0	0	0
4014212	WORD	wordpools/wasnorm_wordpool_576.txt	LTP283	ltpFR2	14	17	RUST	1219	n/a	n/a	0	0	0
4016648	WORD	wordpools/wasnorm_wordpool_576.txt	LTP283	ltpFR2	14	17	MEDAL	885	n/a	n/a	0	0	0
4019383	WORD	wordpools/wasnorm_wordpool_576.txt	LTP283	ltpFR2	14	17	DANCER	437	n/a	n/a	0	0	0
4022153	WORD	wordpools/wasnorm_wordpool_576.txt	LTP283	ltpFR2	14	17	XEROX	1628	n/a	n/a	0	0	0
4023772	START	n/a	LTP283	ltpFR2	14	n/a	n/a	n/a	28	n/a	n/a	n/a	n/a
4024804	DISTRACTOR	n/a	LTP283	ltpFR2	14	17	n/a	n/a	n/a	n/a	0	0	0
4024822	PROB	n/a	LTP283	ltpFR2	14	n/a	n/a	n/a	28	13	9	1	3
4026767	PROB	n/a	LTP283	ltpFR2	14	n/a	n/a	n/a	28	17	6	7	4
4028375	PROB	n/a	LTP283	ltpFR2	14	n/a	n/a	n/a	28	19	8	2	9
4029770	PROB	n/a	LTP283	ltpFR2	14	n/a	n/a	n/a	28	12	3	7	2
4031854	PROB	n/a	LTP283	ltpFR2	14	n/a	n/a	n/a	28	17	4	9	4
4033404	PROB	n/a	LTP283	ltpFR2	14	n/a	n/a	n/a	28	15	8	3	4
4035439	PROB	n/a	LTP283	ltpFR2	14	n/a	n/a	n/a	28	15	6	7	2
4037865	PROB	n/a	LTP283	ltpFR2	14	n/a	n/a	n/a	28	20	6	9	5
4039293	PROB	n/a	LTP283	ltpFR2	14	n/a	n/a	n/a	28	17	6	6	5
4042068	PROB	n/a	LTP283	ltpFR2	14	n/a	n/a	n/a	28	10	5	1	4
4043481	PROB	n/a	LTP283	ltpFR2	14	n/a	n/a	n/a	28	16	1	7	8
4044932	PROB	n/a	LTP283	ltpFR2	14	n/a	n/a	n/a	28	18	2	7	8
4046570	STOP	n/a	LTP283	ltpFR2	14	n/a	n/a	n/a	28	n/a	n/a	n/a	n/a
4049585	REC_START	n/a	LTP283	ltpFR2	14	17	n/a	n/a	n/a	n/a	0	0	0
4051843	REC_WORD	wordpools/wasnorm_wordpool_576.txt	LTP283	ltpFR2	14	17	XEROX	1628	n/a	n/a	0	0	0
4052671	REC_WORD	wordpools/wasnorm_wordpool_576.txt	LTP283	ltpFR2	14	17	HEDGE	699	n/a	n/a	0	0	0
4053385	REC_WORD	wordpools/wasnorm_wordpool_576.txt	LTP283	ltpFR2	14	17	HAMPER	682	n/a	n/a	0	0	0
4054317	REC_WORD	wordpools/wasnorm_wordpool_576.txt	LTP283	ltpFR2	14	17	RUST	1219	n/a	n/a	0	0	0
4055902	REC_WORD	wordpools/wasnorm_wordpool_576.txt	LTP283	ltpFR2	14	17	ASIA	46	n/a	n/a	0	0	0
4056426	REC_WORD	wordpools/wasnorm_wordpool_576.txt	LTP283	ltpFR2	14	17	MEDAL	885	n/a	n/a	0	0	0
4057434	REC_WORD	wordpools/wasnorm_wordpool_576.txt	LTP283	ltpFR2	14	17	DIVER	476	n/a	n/a	0	0	0
4058985	REC_WORD	wordpools/wasnorm_wordpool_576.txt	LTP283	ltpFR2	14	17	SLIDE	1326	n/a	n/a	0	0	0
4060030	REC_WORD	wordpools/wasnorm_wordpool_576.txt	LTP283	ltpFR2	14	17	PEBBLE	1035	n/a	n/a	0	0	0
4062265	REC_WORD	wordpools/wasnorm_wordpool_576.txt	LTP283	ltpFR2	14	17	TERMITE	1451	n/a	n/a	0	0	0
4063634	REC_WORD	wordpools/wasnorm_wordpool_576.txt	LTP283	ltpFR2	14	17	PASTRY	1022	n/a	n/a	0	0	0
4066191	REC_WORD	wordpools/wasnorm_wordpool_576.txt	LTP283	ltpFR2	14	17	LIPSTICK	829	n/a	n/a	0	0	0
4066758	REC_WORD	wordpools/wasnorm_wordpool_576.txt	LTP283	ltpFR2	14	17	STICKER	1382	n/a	n/a	0	0	0
4067554	REC_WORD	wordpools/wasnorm_wordpool_576.txt	LTP283	ltpFR2	14	17	LAVA	804	n/a	n/a	0	0	0
4068878	REC_WORD	wordpools/wasnorm_wordpool_576.txt	LTP283	ltpFR2	14	17	ZEBRA	1635	n/a	n/a	0	0	0
4069488	REC_WORD	wordpools/wasnorm_wordpool_576.txt	LTP283	ltpFR2	14	17	HORSE	719	n/a	n/a	0	0	0
4071353	REC_WORD	wordpools/wasnorm_wordpool_576.txt	LTP283	ltpFR2	14	17	JUNGLE	764	n/a	n/a	0	0	0
