onset	duration	trial_type	sample	stim_file	subject	experiment	session	trial	item_name	item_num	list	answer	test_x	test_y	test_z
-0.002	n/a	SESS_START	-1	n/a	LTP210	ltpFR2	19	n/a	n/a	n/a	n/a	n/a	0	0	0
-0.002	n/a	START	-1	n/a	LTP210	ltpFR2	19	n/a	n/a	n/a	-1	n/a	n/a	n/a	n/a
-0.002	n/a	PROB	-1	n/a	LTP210	ltpFR2	19	n/a	n/a	n/a	-1	9	2	4	3
-0.002	n/a	PROB	-1	n/a	LTP210	ltpFR2	19	n/a	n/a	n/a	-1	20	8	6	6
-0.002	n/a	PROB	-1	n/a	LTP210	ltpFR2	19	n/a	n/a	n/a	-1	12	6	3	3
-0.002	n/a	PROB	-1	n/a	LTP210	ltpFR2	19	n/a	n/a	n/a	-1	13	3	3	7
-0.002	n/a	PROB	-1	n/a	LTP210	ltpFR2	19	n/a	n/a	n/a	-1	14	2	4	8
-0.002	n/a	PROB	-1	n/a	LTP210	ltpFR2	19	n/a	n/a	n/a	-1	17	6	3	8
-0.002	n/a	PROB	-1	n/a	LTP210	ltpFR2	19	n/a	n/a	n/a	-1	23	5	9	9
-0.002	n/a	STOP	-1	n/a	LTP210	ltpFR2	19	n/a	n/a	n/a	-1	n/a	n/a	n/a	n/a
-0.002	n/a	WORD	-1	wordpools/wasnorm_wordpool_576.txt	LTP210	ltpFR2	19	1	BARREL	91	n/a	n/a	0	0	0
-0.002	n/a	WORD	-1	wordpools/wasnorm_wordpool_576.txt	LTP210	ltpFR2	19	1	STICKER	1382	n/a	n/a	0	0	0
-0.002	n/a	WORD	-1	wordpools/wasnorm_wordpool_576.txt	LTP210	ltpFR2	19	1	FRUIT	610	n/a	n/a	0	0	0
-0.002	n/a	WORD	-1	wordpools/wasnorm_wordpool_576.txt	LTP210	ltpFR2	19	1	SPONGE	1355	n/a	n/a	0	0	0
-0.002	n/a	WORD	-1	wordpools/wasnorm_wordpool_576.txt	LTP210	ltpFR2	19	1	SEAL	1262	n/a	n/a	0	0	0
-0.002	n/a	WORD	-1	wordpools/wasnorm_wordpool_576.txt	LTP210	ltpFR2	19	1	THIEF	1456	n/a	n/a	0	0	0
-0.002	n/a	WORD	-1	wordpools/wasnorm_wordpool_576.txt	LTP210	ltpFR2	19	1	SCARECROW	1245	n/a	n/a	0	0	0
-0.002	n/a	WORD	-1	wordpools/wasnorm_wordpool_576.txt	LTP210	ltpFR2	19	1	BARLEY	88	n/a	n/a	0	0	0
-0.002	n/a	WORD	-1	wordpools/wasnorm_wordpool_576.txt	LTP210	ltpFR2	19	1	JEANS	752	n/a	n/a	0	0	0
-0.002	n/a	WORD	-1	wordpools/wasnorm_wordpool_576.txt	LTP210	ltpFR2	19	1	TWEEZERS	1526	n/a	n/a	0	0	0
-0.002	n/a	WORD	-1	wordpools/wasnorm_wordpool_576.txt	LTP210	ltpFR2	19	1	PEACH	1031	n/a	n/a	0	0	0
-0.002	n/a	WORD	-1	wordpools/wasnorm_wordpool_576.txt	LTP210	ltpFR2	19	1	SHOVEL	1295	n/a	n/a	0	0	0
-0.002	n/a	WORD	-1	wordpools/wasnorm_wordpool_576.txt	LTP210	ltpFR2	19	1	VELVET	1555	n/a	n/a	0	0	0
-0.002	n/a	WORD	-1	wordpools/wasnorm_wordpool_576.txt	LTP210	ltpFR2	19	1	CHAMPAGNE	278	n/a	n/a	0	0	0
-0.002	n/a	WORD	-1	wordpools/wasnorm_wordpool_576.txt	LTP210	ltpFR2	19	1	CONVICT	371	n/a	n/a	0	0	0
-0.002	n/a	WORD	-1	wordpools/wasnorm_wordpool_576.txt	LTP210	ltpFR2	19	1	PUPPY	1144	n/a	n/a	0	0	0
-0.002	n/a	WORD	-1	wordpools/wasnorm_wordpool_576.txt	LTP210	ltpFR2	19	1	BUBBLE	183	n/a	n/a	0	0	0
-0.002	n/a	WORD	-1	wordpools/wasnorm_wordpool_576.txt	LTP210	ltpFR2	19	1	HOUND	724	n/a	n/a	0	0	0
-0.002	n/a	WORD	-1	wordpools/wasnorm_wordpool_576.txt	LTP210	ltpFR2	19	1	HIKER	708	n/a	n/a	0	0	0
-0.002	n/a	WORD	-1	wordpools/wasnorm_wordpool_576.txt	LTP210	ltpFR2	19	1	CANYON	235	n/a	n/a	0	0	0
-0.002	n/a	WORD	-1	wordpools/wasnorm_wordpool_576.txt	LTP210	ltpFR2	19	1	HARP	689	n/a	n/a	0	0	0
-0.002	n/a	WORD	-1	wordpools/wasnorm_wordpool_576.txt	LTP210	ltpFR2	19	1	DASHBOARD	441	n/a	n/a	0	0	0
-0.002	n/a	WORD	-1	wordpools/wasnorm_wordpool_576.txt	LTP210	ltpFR2	19	1	HERO	706	n/a	n/a	0	0	0
-0.002	n/a	WORD	-1	wordpools/wasnorm_wordpool_576.txt	LTP210	ltpFR2	19	1	PIMPLE	1071	n/a	n/a	0	0	0
-0.002	n/a	START	-1	n/a	LTP210	ltpFR2	19	n/a	n/a	n/a	1	n/a	n/a	n/a	n/a
-0.002	n/a	DISTRACTOR	-1	n/a	LTP210	ltpFR2	19	1	n/a	n/a	n/a	n/a	0	0	0
-0.002	n/a	PROB	-1	n/a	LTP210	ltpFR2	19	n/a	n/a	n/a	1	14	5	8	1
-0.002	n/a	PROB	-1	n/a	LTP210	ltpFR2	19	n/a	n/a	n/a	1	16	5	6	5
-0.002	n/a	PROB	-1	n/a	LTP210	ltpFR2	19	n/a	n/a	n/a	1	11	3	3	5
-0.002	n/a	PROB	-1	n/a	LTP210	ltpFR2	19	n/a	n/a	n/a	1	14	7	2	5
-0.002	n/a	PROB	-1	n/a	LTP210	ltpFR2	19	n/a	n/a	n/a	1	13	5	6	2
-0.002	n/a	PROB	-1	n/a	LTP210	ltpFR2	19	n/a	n/a	n/a	1	14	8	1	5
-0.002	n/a	PROB	-1	n/a	LTP210	ltpFR2	19	n/a	n/a	n/a	1	9	1	6	2
-0.002	n/a	PROB	-1	n/a	LTP210	ltpFR2	19	n/a	n/a	n/a	1	9	2	3	4
-0.002	n/a	PROB	-1	n/a	LTP210	ltpFR2	19	n/a	n/a	n/a	1	15	6	2	7
-0.002	n/a	PROB	-1	n/a	LTP210	ltpFR2	19	n/a	n/a	n/a	1	12	4	5	3
-0.002	n/a	PROB	-1	n/a	LTP210	ltpFR2	19	n/a	n/a	n/a	1	22	9	8	5
-0.002	n/a	STOP	-1	n/a	LTP210	ltpFR2	19	n/a	n/a	n/a	1	n/a	n/a	n/a	n/a
-0.002	n/a	REC_START	-1	n/a	LTP210	ltpFR2	19	1	n/a	n/a	n/a	n/a	0	0	0
-0.002	n/a	REC_WORD	-1	wordpools/wasnorm_wordpool_576.txt	LTP210	ltpFR2	19	1	HIKE	-1	n/a	n/a	0	0	0
-0.002	n/a	REC_WORD	-1	wordpools/wasnorm_wordpool_576.txt	LTP210	ltpFR2	19	1	HIKER	708	n/a	n/a	0	0	0
-0.002	n/a	REC_WORD	-1	wordpools/wasnorm_wordpool_576.txt	LTP210	ltpFR2	19	1	CANYON	235	n/a	n/a	0	0	0
-0.002	n/a	REC_WORD	-1	wordpools/wasnorm_wordpool_576.txt	LTP210	ltpFR2	19	1	HOUND	724	n/a	n/a	0	0	0
-0.002	n/a	REC_WORD	-1	wordpools/wasnorm_wordpool_576.txt	LTP210	ltpFR2	19	1	PUPPY	1144	n/a	n/a	0	0	0
-0.002	n/a	REC_WORD	-1	wordpools/wasnorm_wordpool_576.txt	LTP210	ltpFR2	19	1	BARREL	91	n/a	n/a	0	0	0
-0.002	n/a	REC_WORD	-1	wordpools/wasnorm_wordpool_576.txt	LTP210	ltpFR2	19	1	STICKER	1382	n/a	n/a	0	0	0
-0.002	n/a	REC_WORD	-1	wordpools/wasnorm_wordpool_576.txt	LTP210	ltpFR2	19	1	CONVICT	371	n/a	n/a	0	0	0
-0.002	n/a	DISTRACTOR	-1	n/a	LTP210	ltpFR2	19	2	n/a	n/a	n/a	n/a	0	0	0
-0.002	n/a	START	-1	n/a	LTP210	ltpFR2	19	n/a	n/a	n/a	2	n/a	n/a	n/a	n/a
-0.002	n/a	PROB	-1	n/a	LTP210	ltpFR2	19	n/a	n/a	n/a	2	12	7	2	3
-0.002	n/a	PROB	-1	n/a	LTP210	ltpFR2	19	n/a	n/a	n/a	2	15	3	9	3
-0.002	n/a	PROB	-1	n/a	LTP210	ltpFR2	19	n/a	n/a	n/a	2	27	9	9	9
-0.002	n/a	PROB	-1	n/a	LTP210	ltpFR2	19	n/a	n/a	n/a	2	22	5	9	8
-0.002	n/a	PROB	-1	n/a	LTP210	ltpFR2	19	n/a	n/a	n/a	2	25	7	9	9
-0.002	n/a	PROB	-1	n/a	LTP210	ltpFR2	19	n/a	n/a	n/a	2	15	8	5	2
-0.002	n/a	PROB	-1	n/a	LTP210	ltpFR2	19	n/a	n/a	n/a	2	22	9	4	9
-0.002	n/a	PROB	-1	n/a	LTP210	ltpFR2	19	n/a	n/a	n/a	2	24	9	8	7
-0.002	n/a	PROB	-1	n/a	LTP210	ltpFR2	19	n/a	n/a	n/a	2	22	9	4	9
-0.002	n/a	PROB	-1	n/a	LTP210	ltpFR2	19	n/a	n/a	n/a	2	18	7	9	2
-0.002	n/a	PROB	-1	n/a	LTP210	ltpFR2	19	n/a	n/a	n/a	2	20	7	5	8
-0.002	n/a	PROB	-1	n/a	LTP210	ltpFR2	19	n/a	n/a	n/a	2	19	4	7	8
-0.002	n/a	PROB	-1	n/a	LTP210	ltpFR2	19	n/a	n/a	n/a	2	18	8	9	1
-0.002	n/a	STOP	-1	n/a	LTP210	ltpFR2	19	n/a	n/a	n/a	2	n/a	n/a	n/a	n/a
-0.002	n/a	WORD	-1	wordpools/wasnorm_wordpool_576.txt	LTP210	ltpFR2	19	2	REPORT	1184	n/a	n/a	0	0	0
-0.002	n/a	WORD	-1	wordpools/wasnorm_wordpool_576.txt	LTP210	ltpFR2	19	2	IGLOO	734	n/a	n/a	0	0	0
-0.002	n/a	WORD	-1	wordpools/wasnorm_wordpool_576.txt	LTP210	ltpFR2	19	2	MAPLE	866	n/a	n/a	0	0	0
-0.002	n/a	WORD	-1	wordpools/wasnorm_wordpool_576.txt	LTP210	ltpFR2	19	2	COSTUME	383	n/a	n/a	0	0	0
-0.002	n/a	WORD	-1	wordpools/wasnorm_wordpool_576.txt	LTP210	ltpFR2	19	2	OFFICE	972	n/a	n/a	0	0	0
-0.002	n/a	WORD	-1	wordpools/wasnorm_wordpool_576.txt	LTP210	ltpFR2	19	2	STOVE	1388	n/a	n/a	0	0	0
-0.002	n/a	WORD	-1	wordpools/wasnorm_wordpool_576.txt	LTP210	ltpFR2	19	2	BUTCHER	203	n/a	n/a	0	0	0
-0.002	n/a	WORD	-1	wordpools/wasnorm_wordpool_576.txt	LTP210	ltpFR2	19	2	VALVE	1546	n/a	n/a	0	0	0
-0.002	n/a	WORD	-1	wordpools/wasnorm_wordpool_576.txt	LTP210	ltpFR2	19	2	DUST	508	n/a	n/a	0	0	0
-0.002	n/a	WORD	-1	wordpools/wasnorm_wordpool_576.txt	LTP210	ltpFR2	19	2	CLOTHES	327	n/a	n/a	0	0	0
-0.002	n/a	WORD	-1	wordpools/wasnorm_wordpool_576.txt	LTP210	ltpFR2	19	2	SUITCASE	1403	n/a	n/a	0	0	0
-0.002	n/a	WORD	-1	wordpools/wasnorm_wordpool_576.txt	LTP210	ltpFR2	19	2	YARN	1631	n/a	n/a	0	0	0
-0.002	n/a	WORD	-1	wordpools/wasnorm_wordpool_576.txt	LTP210	ltpFR2	19	2	STAR	1373	n/a	n/a	0	0	0
-0.002	n/a	WORD	-1	wordpools/wasnorm_wordpool_576.txt	LTP210	ltpFR2	19	2	PLUTO	1092	n/a	n/a	0	0	0
-0.002	n/a	WORD	-1	wordpools/wasnorm_wordpool_576.txt	LTP210	ltpFR2	19	2	HOSTESS	723	n/a	n/a	0	0	0
-0.002	n/a	WORD	-1	wordpools/wasnorm_wordpool_576.txt	LTP210	ltpFR2	19	2	BROTHER	179	n/a	n/a	0	0	0
-0.002	n/a	WORD	-1	wordpools/wasnorm_wordpool_576.txt	LTP210	ltpFR2	19	2	KLEENEX	782	n/a	n/a	0	0	0
-0.002	n/a	WORD	-1	wordpools/wasnorm_wordpool_576.txt	LTP210	ltpFR2	19	2	TYPIST	1532	n/a	n/a	0	0	0
-0.002	n/a	WORD	-1	wordpools/wasnorm_wordpool_576.txt	LTP210	ltpFR2	19	2	FRIEND	606	n/a	n/a	0	0	0
-0.002	n/a	WORD	-1	wordpools/wasnorm_wordpool_576.txt	LTP210	ltpFR2	19	2	BOYFRIEND	162	n/a	n/a	0	0	0
-0.002	n/a	WORD	-1	wordpools/wasnorm_wordpool_576.txt	LTP210	ltpFR2	19	2	SPOOL	1356	n/a	n/a	0	0	0
-0.002	n/a	WORD	-1	wordpools/wasnorm_wordpool_576.txt	LTP210	ltpFR2	19	2	THREAD	1460	n/a	n/a	0	0	0
-0.002	n/a	WORD	-1	wordpools/wasnorm_wordpool_576.txt	LTP210	ltpFR2	19	2	HAMPER	682	n/a	n/a	0	0	0
-0.002	n/a	WORD	-1	wordpools/wasnorm_wordpool_576.txt	LTP210	ltpFR2	19	2	RAZOR	1171	n/a	n/a	0	0	0
-0.002	n/a	START	-1	n/a	LTP210	ltpFR2	19	n/a	n/a	n/a	3	n/a	n/a	n/a	n/a
-0.002	n/a	DISTRACTOR	-1	n/a	LTP210	ltpFR2	19	2	n/a	n/a	n/a	n/a	0	0	0
-0.002	n/a	PROB	-1	n/a	LTP210	ltpFR2	19	n/a	n/a	n/a	3	9	3	3	3
-0.002	n/a	PROB	-1	n/a	LTP210	ltpFR2	19	n/a	n/a	n/a	3	18	9	3	3
-0.002	n/a	PROB	-1	n/a	LTP210	ltpFR2	19	n/a	n/a	n/a	3	18	6	6	6
-0.002	n/a	PROB	-1	n/a	LTP210	ltpFR2	19	n/a	n/a	n/a	3	13	1	5	7
-0.002	n/a	PROB	-1	n/a	LTP210	ltpFR2	19	n/a	n/a	n/a	3	9	4	4	1
-0.002	n/a	PROB	-1	n/a	LTP210	ltpFR2	19	n/a	n/a	n/a	3	21	9	7	5
-0.002	n/a	PROB	-1	n/a	LTP210	ltpFR2	19	n/a	n/a	n/a	3	22	9	6	7
-0.002	n/a	PROB	-1	n/a	LTP210	ltpFR2	19	n/a	n/a	n/a	3	9	1	6	2
-0.002	n/a	PROB	-1	n/a	LTP210	ltpFR2	19	n/a	n/a	n/a	3	14	1	6	7
-0.002	n/a	PROB	-1	n/a	LTP210	ltpFR2	19	n/a	n/a	n/a	3	17	7	2	8
-0.002	n/a	PROB	-1	n/a	LTP210	ltpFR2	19	n/a	n/a	n/a	3	11	5	2	4
-0.002	n/a	PROB	-1	n/a	LTP210	ltpFR2	19	n/a	n/a	n/a	3	18	5	6	7
-0.002	n/a	PROB	-1	n/a	LTP210	ltpFR2	19	n/a	n/a	n/a	3	9	2	3	4
-0.002	n/a	STOP	-1	n/a	LTP210	ltpFR2	19	n/a	n/a	n/a	3	n/a	n/a	n/a	n/a
-0.002	n/a	REC_START	-1	n/a	LTP210	ltpFR2	19	2	n/a	n/a	n/a	n/a	0	0	0
-0.002	n/a	REC_WORD	-1	wordpools/wasnorm_wordpool_576.txt	LTP210	ltpFR2	19	2	RAZOR	1171	n/a	n/a	0	0	0
-0.002	n/a	REC_WORD	-1	wordpools/wasnorm_wordpool_576.txt	LTP210	ltpFR2	19	2	FRIEND	606	n/a	n/a	0	0	0
-0.002	n/a	REC_WORD	-1	wordpools/wasnorm_wordpool_576.txt	LTP210	ltpFR2	19	2	BOYFRIEND	162	n/a	n/a	0	0	0
-0.002	n/a	REC_WORD	-1	wordpools/wasnorm_wordpool_576.txt	LTP210	ltpFR2	19	2	REPORT	1184	n/a	n/a	0	0	0
-0.002	n/a	REC_WORD	-1	wordpools/wasnorm_wordpool_576.txt	LTP210	ltpFR2	19	2	SPOOL	1356	n/a	n/a	0	0	0
-0.002	n/a	REC_WORD	-1	wordpools/wasnorm_wordpool_576.txt	LTP210	ltpFR2	19	2	YARN	1631	n/a	n/a	0	0	0
-0.002	n/a	REC_WORD	-1	wordpools/wasnorm_wordpool_576.txt	LTP210	ltpFR2	19	2	CLOTHES	327	n/a	n/a	0	0	0
-0.002	n/a	REC_WORD	-1	wordpools/wasnorm_wordpool_576.txt	LTP210	ltpFR2	19	2	SUITCASE	1403	n/a	n/a	0	0	0
-0.002	n/a	REC_WORD	-1	wordpools/wasnorm_wordpool_576.txt	LTP210	ltpFR2	19	2	VALVE	1546	n/a	n/a	0	0	0
-0.002	n/a	WORD	-1	wordpools/wasnorm_wordpool_576.txt	LTP210	ltpFR2	19	3	COTTAGE	384	n/a	n/a	0	0	0
-0.002	n/a	WORD	-1	wordpools/wasnorm_wordpool_576.txt	LTP210	ltpFR2	19	3	RECEIPT	1173	n/a	n/a	0	0	0
-0.002	n/a	WORD	-1	wordpools/wasnorm_wordpool_576.txt	LTP210	ltpFR2	19	3	TUNNEL	1519	n/a	n/a	0	0	0
-0.002	n/a	WORD	-1	wordpools/wasnorm_wordpool_576.txt	LTP210	ltpFR2	19	3	BADGE	68	n/a	n/a	0	0	0
-0.002	n/a	WORD	-1	wordpools/wasnorm_wordpool_576.txt	LTP210	ltpFR2	19	3	MOTOR	922	n/a	n/a	0	0	0
-0.002	n/a	WORD	-1	wordpools/wasnorm_wordpool_576.txt	LTP210	ltpFR2	19	3	HELMET	702	n/a	n/a	0	0	0
-0.002	n/a	WORD	-1	wordpools/wasnorm_wordpool_576.txt	LTP210	ltpFR2	19	3	TWIG	1527	n/a	n/a	0	0	0
-0.002	n/a	WORD	-1	wordpools/wasnorm_wordpool_576.txt	LTP210	ltpFR2	19	3	GANGSTER	620	n/a	n/a	0	0	0
-0.002	n/a	WORD	-1	wordpools/wasnorm_wordpool_576.txt	LTP210	ltpFR2	19	3	FLESH	579	n/a	n/a	0	0	0
-0.002	n/a	WORD	-1	wordpools/wasnorm_wordpool_576.txt	LTP210	ltpFR2	19	3	SAUSAGE	1238	n/a	n/a	0	0	0
-0.002	n/a	WORD	-1	wordpools/wasnorm_wordpool_576.txt	LTP210	ltpFR2	19	3	HOOK	715	n/a	n/a	0	0	0
-0.002	n/a	WORD	-1	wordpools/wasnorm_wordpool_576.txt	LTP210	ltpFR2	19	3	LADDER	793	n/a	n/a	0	0	0
-0.002	n/a	WORD	-1	wordpools/wasnorm_wordpool_576.txt	LTP210	ltpFR2	19	3	SLIDE	1326	n/a	n/a	0	0	0
-0.002	n/a	WORD	-1	wordpools/wasnorm_wordpool_576.txt	LTP210	ltpFR2	19	3	OMELET	976	n/a	n/a	0	0	0
-0.002	n/a	WORD	-1	wordpools/wasnorm_wordpool_576.txt	LTP210	ltpFR2	19	3	MUFFIN	929	n/a	n/a	0	0	0
-0.002	n/a	WORD	-1	wordpools/wasnorm_wordpool_576.txt	LTP210	ltpFR2	19	3	TOASTER	1472	n/a	n/a	0	0	0
-0.002	n/a	WORD	-1	wordpools/wasnorm_wordpool_576.txt	LTP210	ltpFR2	19	3	PLASTER	1085	n/a	n/a	0	0	0
-0.002	n/a	WORD	-1	wordpools/wasnorm_wordpool_576.txt	LTP210	ltpFR2	19	3	SKETCH	1315	n/a	n/a	0	0	0
-0.002	n/a	WORD	-1	wordpools/wasnorm_wordpool_576.txt	LTP210	ltpFR2	19	3	PORTRAIT	1111	n/a	n/a	0	0	0
-0.002	n/a	WORD	-1	wordpools/wasnorm_wordpool_576.txt	LTP210	ltpFR2	19	3	SCALPEL	1243	n/a	n/a	0	0	0
-0.002	n/a	WORD	-1	wordpools/wasnorm_wordpool_576.txt	LTP210	ltpFR2	19	3	HEADBAND	696	n/a	n/a	0	0	0
-0.002	n/a	WORD	-1	wordpools/wasnorm_wordpool_576.txt	LTP210	ltpFR2	19	3	BIKE	125	n/a	n/a	0	0	0
-0.002	n/a	WORD	-1	wordpools/wasnorm_wordpool_576.txt	LTP210	ltpFR2	19	3	WINDOW	1611	n/a	n/a	0	0	0
-0.002	n/a	WORD	-1	wordpools/wasnorm_wordpool_576.txt	LTP210	ltpFR2	19	3	PORK	1108	n/a	n/a	0	0	0
-0.002	n/a	START	-1	n/a	LTP210	ltpFR2	19	n/a	n/a	n/a	4	n/a	n/a	n/a	n/a
-0.002	n/a	DISTRACTOR	-1	n/a	LTP210	ltpFR2	19	3	n/a	n/a	n/a	n/a	0	0	0
-0.002	n/a	PROB	-1	n/a	LTP210	ltpFR2	19	n/a	n/a	n/a	4	11	6	2	3
-0.002	n/a	PROB	-1	n/a	LTP210	ltpFR2	19	n/a	n/a	n/a	4	18	9	3	6
-0.002	n/a	PROB	-1	n/a	LTP210	ltpFR2	19	n/a	n/a	n/a	4	11	1	5	5
-0.002	n/a	PROB	-1	n/a	LTP210	ltpFR2	19	n/a	n/a	n/a	4	21	9	9	3
-0.002	n/a	PROB	-1	n/a	LTP210	ltpFR2	19	n/a	n/a	n/a	4	7	1	5	1
-0.002	n/a	PROB	-1	n/a	LTP210	ltpFR2	19	n/a	n/a	n/a	4	16	1	6	9
-0.002	n/a	PROB	-1	n/a	LTP210	ltpFR2	19	n/a	n/a	n/a	4	5	1	1	3
-0.002	n/a	PROB	-1	n/a	LTP210	ltpFR2	19	n/a	n/a	n/a	4	19	4	7	8
-0.002	n/a	PROB	-1	n/a	LTP210	ltpFR2	19	n/a	n/a	n/a	4	12	7	1	4
-0.002	n/a	PROB	-1	n/a	LTP210	ltpFR2	19	n/a	n/a	n/a	4	14	6	4	4
-0.002	n/a	PROB	-1	n/a	LTP210	ltpFR2	19	n/a	n/a	n/a	4	17	5	7	5
-0.002	n/a	PROB	-1	n/a	LTP210	ltpFR2	19	n/a	n/a	n/a	4	15	3	6	6
-0.002	n/a	PROB	-1	n/a	LTP210	ltpFR2	19	n/a	n/a	n/a	4	16	4	8	4
-0.002	n/a	STOP	-1	n/a	LTP210	ltpFR2	19	n/a	n/a	n/a	4	n/a	n/a	n/a	n/a
-0.002	n/a	REC_START	-1	n/a	LTP210	ltpFR2	19	3	n/a	n/a	n/a	n/a	0	0	0
-0.002	n/a	REC_WORD	-1	wordpools/wasnorm_wordpool_576.txt	LTP210	ltpFR2	19	3	PORK	1108	n/a	n/a	0	0	0
-0.002	n/a	REC_WORD	-1	wordpools/wasnorm_wordpool_576.txt	LTP210	ltpFR2	19	3	SAUSAGE	1238	n/a	n/a	0	0	0
-0.002	n/a	REC_WORD	-1	wordpools/wasnorm_wordpool_576.txt	LTP210	ltpFR2	19	3	HOOK	715	n/a	n/a	0	0	0
-0.002	n/a	REC_WORD	-1	wordpools/wasnorm_wordpool_576.txt	LTP210	ltpFR2	19	3	MUFFIN	929	n/a	n/a	0	0	0
-0.002	n/a	REC_WORD	-1	wordpools/wasnorm_wordpool_576.txt	LTP210	ltpFR2	19	3	TOASTER	1472	n/a	n/a	0	0	0
73.976	n/a	DISTRACTOR	36988	n/a	LTP210	ltpFR2	19	4	n/a	n/a	n/a	n/a	0	0	0
73.976	n/a	START	36988	n/a	LTP210	ltpFR2	19	n/a	n/a	n/a	5	n/a	n/a	n/a	n/a
74.026	n/a	PROB	37013	n/a	LTP210	ltpFR2	19	n/a	n/a	n/a	5	15	8	3	4
75.728	n/a	PROB	37864	n/a	LTP210	ltpFR2	19	n/a	n/a	n/a	5	13	3	5	5
76.932	n/a	PROB	38466	n/a	LTP210	ltpFR2	19	n/a	n/a	n/a	5	11	4	2	5
80.282	n/a	PROB	40141	n/a	LTP210	ltpFR2	19	n/a	n/a	n/a	5	10	5	4	1
82.538	n/a	PROB	41269	n/a	LTP210	ltpFR2	19	n/a	n/a	n/a	5	11	1	1	9
83.646	n/a	PROB	41823	n/a	LTP210	ltpFR2	19	n/a	n/a	n/a	5	7	1	3	3
85.284	n/a	PROB	42642	n/a	LTP210	ltpFR2	19	n/a	n/a	n/a	5	25	8	8	9
88.042	n/a	PROB	44021	n/a	LTP210	ltpFR2	19	n/a	n/a	n/a	5	20	7	4	9
89.48	n/a	PROB	44740	n/a	LTP210	ltpFR2	19	n/a	n/a	n/a	5	16	4	5	7
91.136	n/a	PROB	45568	n/a	LTP210	ltpFR2	19	n/a	n/a	n/a	5	15	5	9	1
94.13	n/a	PROB	47065	n/a	LTP210	ltpFR2	19	n/a	n/a	n/a	5	13	4	4	5
95.976	n/a	PROB	47988	n/a	LTP210	ltpFR2	19	n/a	n/a	n/a	5	12	5	2	5
97.16	n/a	STOP	48580	n/a	LTP210	ltpFR2	19	n/a	n/a	n/a	5	n/a	n/a	n/a	n/a
99.088	n/a	WORD	49544	wordpools/wasnorm_wordpool_576.txt	LTP210	ltpFR2	19	4	BREAST	171	n/a	n/a	0	0	0
101.716	n/a	WORD	50858	wordpools/wasnorm_wordpool_576.txt	LTP210	ltpFR2	19	4	PLAZA	1088	n/a	n/a	0	0	0
104.374	n/a	WORD	52187	wordpools/wasnorm_wordpool_576.txt	LTP210	ltpFR2	19	4	APPLE	33	n/a	n/a	0	0	0
106.796	n/a	WORD	53398	wordpools/wasnorm_wordpool_576.txt	LTP210	ltpFR2	19	4	FILM	565	n/a	n/a	0	0	0
109.51	n/a	WORD	54755	wordpools/wasnorm_wordpool_576.txt	LTP210	ltpFR2	19	4	RECORD	1176	n/a	n/a	0	0	0
112.038	n/a	WORD	56019	wordpools/wasnorm_wordpool_576.txt	LTP210	ltpFR2	19	4	LEADER	807	n/a	n/a	0	0	0
114.682	n/a	WORD	57341	wordpools/wasnorm_wordpool_576.txt	LTP210	ltpFR2	19	4	PRINCESS	1125	n/a	n/a	0	0	0
117.492	n/a	WORD	58746	wordpools/wasnorm_wordpool_576.txt	LTP210	ltpFR2	19	4	MATTRESS	879	n/a	n/a	0	0	0
120.018	n/a	WORD	60009	wordpools/wasnorm_wordpool_576.txt	LTP210	ltpFR2	19	4	CRITIC	410	n/a	n/a	0	0	0
122.762	n/a	WORD	61381	wordpools/wasnorm_wordpool_576.txt	LTP210	ltpFR2	19	4	SEAFOOD	1260	n/a	n/a	0	0	0
125.534	n/a	WORD	62767	wordpools/wasnorm_wordpool_576.txt	LTP210	ltpFR2	19	4	SHARK	1275	n/a	n/a	0	0	0
128.216	n/a	WORD	64108	wordpools/wasnorm_wordpool_576.txt	LTP210	ltpFR2	19	4	SPOUSE	1358	n/a	n/a	0	0	0
130.86	n/a	WORD	65430	wordpools/wasnorm_wordpool_576.txt	LTP210	ltpFR2	19	4	HUSBAND	728	n/a	n/a	0	0	0
133.318	n/a	WORD	66659	wordpools/wasnorm_wordpool_576.txt	LTP210	ltpFR2	19	4	CYCLONE	431	n/a	n/a	0	0	0
135.88	n/a	WORD	67940	wordpools/wasnorm_wordpool_576.txt	LTP210	ltpFR2	19	4	SNACK	1331	n/a	n/a	0	0	0
138.64	n/a	WORD	69320	wordpools/wasnorm_wordpool_576.txt	LTP210	ltpFR2	19	4	WAITER	1580	n/a	n/a	0	0	0
141.148	n/a	WORD	70574	wordpools/wasnorm_wordpool_576.txt	LTP210	ltpFR2	19	4	CONTRACT	368	n/a	n/a	0	0	0
143.688	n/a	WORD	71844	wordpools/wasnorm_wordpool_576.txt	LTP210	ltpFR2	19	4	EMPIRE	530	n/a	n/a	0	0	0
146.402	n/a	WORD	73201	wordpools/wasnorm_wordpool_576.txt	LTP210	ltpFR2	19	4	ROOSTER	1209	n/a	n/a	0	0	0
148.928	n/a	WORD	74464	wordpools/wasnorm_wordpool_576.txt	LTP210	ltpFR2	19	4	DENTIST	447	n/a	n/a	0	0	0
151.534	n/a	WORD	75767	wordpools/wasnorm_wordpool_576.txt	LTP210	ltpFR2	19	4	PALACE	1006	n/a	n/a	0	0	0
154.048	n/a	WORD	77024	wordpools/wasnorm_wordpool_576.txt	LTP210	ltpFR2	19	4	ASIA	46	n/a	n/a	0	0	0
156.688	n/a	WORD	78344	wordpools/wasnorm_wordpool_576.txt	LTP210	ltpFR2	19	4	TROUT	1511	n/a	n/a	0	0	0
159.352	n/a	WORD	79676	wordpools/wasnorm_wordpool_576.txt	LTP210	ltpFR2	19	4	AWARD	63	n/a	n/a	0	0	0
160.958	n/a	START	80479	n/a	LTP210	ltpFR2	19	n/a	n/a	n/a	6	n/a	n/a	n/a	n/a
161.822	n/a	DISTRACTOR	80911	n/a	LTP210	ltpFR2	19	4	n/a	n/a	n/a	n/a	0	0	0
161.828	n/a	PROB	80914	n/a	LTP210	ltpFR2	19	n/a	n/a	n/a	6	10	3	2	5
163.534	n/a	PROB	81767	n/a	LTP210	ltpFR2	19	n/a	n/a	n/a	6	16	6	2	8
165.006	n/a	PROB	82503	n/a	LTP210	ltpFR2	19	n/a	n/a	n/a	6	13	2	5	6
167.596	n/a	PROB	83798	n/a	LTP210	ltpFR2	19	n/a	n/a	n/a	6	18	3	6	9
169.318	n/a	PROB	84659	n/a	LTP210	ltpFR2	19	n/a	n/a	n/a	6	12	5	6	1
170.998	n/a	PROB	85499	n/a	LTP210	ltpFR2	19	n/a	n/a	n/a	6	24	7	9	8
174.186	n/a	PROB	87093	n/a	LTP210	ltpFR2	19	n/a	n/a	n/a	6	26	9	9	8
175.86	n/a	PROB	87930	n/a	LTP210	ltpFR2	19	n/a	n/a	n/a	6	14	4	6	4
177.27	n/a	PROB	88635	n/a	LTP210	ltpFR2	19	n/a	n/a	n/a	6	11	7	1	3
178.436	n/a	PROB	89218	n/a	LTP210	ltpFR2	19	n/a	n/a	n/a	6	22	9	9	4
180.242	n/a	PROB	90121	n/a	LTP210	ltpFR2	19	n/a	n/a	n/a	6	13	4	5	4
181.8	n/a	PROB	90900	n/a	LTP210	ltpFR2	19	n/a	n/a	n/a	6	8	2	4	2
183.604	n/a	STOP	91802	n/a	LTP210	ltpFR2	19	n/a	n/a	n/a	6	n/a	n/a	n/a	n/a
186.752	n/a	REC_START	93376	n/a	LTP210	ltpFR2	19	4	n/a	n/a	n/a	n/a	0	0	0
194.802	n/a	REC_WORD	97401	wordpools/wasnorm_wordpool_576.txt	LTP210	ltpFR2	19	4	BREAST	171	n/a	n/a	0	0	0
277.838	n/a	WORD	138919	wordpools/wasnorm_wordpool_576.txt	LTP210	ltpFR2	19	5	BODY	145	n/a	n/a	0	0	0
280.464	n/a	WORD	140232	wordpools/wasnorm_wordpool_576.txt	LTP210	ltpFR2	19	5	HUMAN	726	n/a	n/a	0	0	0
283.238	n/a	WORD	141619	wordpools/wasnorm_wordpool_576.txt	LTP210	ltpFR2	19	5	PERMIT	1051	n/a	n/a	0	0	0
285.87	n/a	WORD	142935	wordpools/wasnorm_wordpool_576.txt	LTP210	ltpFR2	19	5	BASEMENT	94	n/a	n/a	0	0	0
288.344	n/a	WORD	144172	wordpools/wasnorm_wordpool_576.txt	LTP210	ltpFR2	19	5	WITNESS	1618	n/a	n/a	0	0	0
290.854	n/a	WORD	145427	wordpools/wasnorm_wordpool_576.txt	LTP210	ltpFR2	19	5	MARROW	872	n/a	n/a	0	0	0
293.544	n/a	WORD	146772	wordpools/wasnorm_wordpool_576.txt	LTP210	ltpFR2	19	5	LASER	801	n/a	n/a	0	0	0
296.042	n/a	WORD	148021	wordpools/wasnorm_wordpool_576.txt	LTP210	ltpFR2	19	5	CLAMP	316	n/a	n/a	0	0	0
298.68	n/a	WORD	149340	wordpools/wasnorm_wordpool_576.txt	LTP210	ltpFR2	19	5	ORANGE	980	n/a	n/a	0	0	0
301.34	n/a	WORD	150670	wordpools/wasnorm_wordpool_576.txt	LTP210	ltpFR2	19	5	DRESSER	496	n/a	n/a	0	0	0
304.09	n/a	WORD	152045	wordpools/wasnorm_wordpool_576.txt	LTP210	ltpFR2	19	5	GAVEL	627	n/a	n/a	0	0	0
306.616	n/a	WORD	153308	wordpools/wasnorm_wordpool_576.txt	LTP210	ltpFR2	19	5	RADISH	1158	n/a	n/a	0	0	0
309.19	n/a	WORD	154595	wordpools/wasnorm_wordpool_576.txt	LTP210	ltpFR2	19	5	CABIN	211	n/a	n/a	0	0	0
311.88	n/a	WORD	155940	wordpools/wasnorm_wordpool_576.txt	LTP210	ltpFR2	19	5	ROBOT	1200	n/a	n/a	0	0	0
314.546	n/a	WORD	157273	wordpools/wasnorm_wordpool_576.txt	LTP210	ltpFR2	19	5	GREASE	660	n/a	n/a	0	0	0
317.154	n/a	WORD	158577	wordpools/wasnorm_wordpool_576.txt	LTP210	ltpFR2	19	5	COUCH	386	n/a	n/a	0	0	0
319.878	n/a	WORD	159939	wordpools/wasnorm_wordpool_576.txt	LTP210	ltpFR2	19	5	DRAWING	494	n/a	n/a	0	0	0
322.694	n/a	WORD	161347	wordpools/wasnorm_wordpool_576.txt	LTP210	ltpFR2	19	5	PIGMENT	1066	n/a	n/a	0	0	0
325.336	n/a	WORD	162668	wordpools/wasnorm_wordpool_576.txt	LTP210	ltpFR2	19	5	BLUEPRINT	142	n/a	n/a	0	0	0
328.098	n/a	WORD	164049	wordpools/wasnorm_wordpool_576.txt	LTP210	ltpFR2	19	5	PASSAGE	1019	n/a	n/a	0	0	0
330.574	n/a	WORD	165287	wordpools/wasnorm_wordpool_576.txt	LTP210	ltpFR2	19	5	SWORD	1423	n/a	n/a	0	0	0
333.248	n/a	WORD	166624	wordpools/wasnorm_wordpool_576.txt	LTP210	ltpFR2	19	5	STOMACH	1384	n/a	n/a	0	0	0
335.91	n/a	WORD	167955	wordpools/wasnorm_wordpool_576.txt	LTP210	ltpFR2	19	5	PERCH	1048	n/a	n/a	0	0	0
338.332	n/a	WORD	169166	wordpools/wasnorm_wordpool_576.txt	LTP210	ltpFR2	19	5	SPARROW	1347	n/a	n/a	0	0	0
339.944	n/a	START	169972	n/a	LTP210	ltpFR2	19	n/a	n/a	n/a	7	n/a	n/a	n/a	n/a
340.99	n/a	DISTRACTOR	170495	n/a	LTP210	ltpFR2	19	5	n/a	n/a	n/a	n/a	0	0	0
340.996	n/a	PROB	170498	n/a	LTP210	ltpFR2	19	n/a	n/a	n/a	7	15	3	8	4
343.3	n/a	PROB	171650	n/a	LTP210	ltpFR2	19	n/a	n/a	n/a	7	15	4	5	6
345.108	n/a	PROB	172554	n/a	LTP210	ltpFR2	19	n/a	n/a	n/a	7	15	2	5	8
346.564	n/a	PROB	173282	n/a	LTP210	ltpFR2	19	n/a	n/a	n/a	7	9	3	3	3
347.718	n/a	PROB	173859	n/a	LTP210	ltpFR2	19	n/a	n/a	n/a	7	14	6	1	7
349.078	n/a	PROB	174539	n/a	LTP210	ltpFR2	19	n/a	n/a	n/a	7	17	8	6	3
350.83	n/a	PROB	175415	n/a	LTP210	ltpFR2	19	n/a	n/a	n/a	7	27	9	9	9
352.118	n/a	PROB	176059	n/a	LTP210	ltpFR2	19	n/a	n/a	n/a	7	12	4	1	7
353.64	n/a	PROB	176820	n/a	LTP210	ltpFR2	19	n/a	n/a	n/a	7	20	9	6	5
355.23	n/a	PROB	177615	n/a	LTP210	ltpFR2	19	n/a	n/a	n/a	7	16	9	1	6
356.552	n/a	PROB	178276	n/a	LTP210	ltpFR2	19	n/a	n/a	n/a	7	17	7	3	7
359.232	n/a	PROB	179616	n/a	LTP210	ltpFR2	19	n/a	n/a	n/a	7	17	7	5	5
363.944	n/a	STOP	181972	n/a	LTP210	ltpFR2	19	n/a	n/a	n/a	7	n/a	n/a	n/a	n/a
365.82	n/a	REC_START	182910	n/a	LTP210	ltpFR2	19	5	n/a	n/a	n/a	n/a	0	0	0
366.496	n/a	REC_WORD	183248	wordpools/wasnorm_wordpool_576.txt	LTP210	ltpFR2	19	5	PORCH	1106	n/a	n/a	0	0	0
368.844	n/a	REC_WORD	184422	wordpools/wasnorm_wordpool_576.txt	LTP210	ltpFR2	19	5	MARROW	872	n/a	n/a	0	0	0
456.89	n/a	WORD	228445	wordpools/wasnorm_wordpool_576.txt	LTP210	ltpFR2	19	6	COMPASS	358	n/a	n/a	0	0	0
459.36	n/a	WORD	229680	wordpools/wasnorm_wordpool_576.txt	LTP210	ltpFR2	19	6	BABY	64	n/a	n/a	0	0	0
461.808	n/a	WORD	230904	wordpools/wasnorm_wordpool_576.txt	LTP210	ltpFR2	19	6	LONDON	843	n/a	n/a	0	0	0
464.384	n/a	WORD	232192	wordpools/wasnorm_wordpool_576.txt	LTP210	ltpFR2	19	6	BINDER	127	n/a	n/a	0	0	0
467.096	n/a	WORD	233548	wordpools/wasnorm_wordpool_576.txt	LTP210	ltpFR2	19	6	CUPBOARD	425	n/a	n/a	0	0	0
469.588	n/a	WORD	234794	wordpools/wasnorm_wordpool_576.txt	LTP210	ltpFR2	19	6	PIZZA	1079	n/a	n/a	0	0	0
472.36	n/a	WORD	236180	wordpools/wasnorm_wordpool_576.txt	LTP210	ltpFR2	19	6	VIRUS	1572	n/a	n/a	0	0	0
475.11	n/a	WORD	237555	wordpools/wasnorm_wordpool_576.txt	LTP210	ltpFR2	19	6	TRIBE	1505	n/a	n/a	0	0	0
477.836	n/a	WORD	238918	wordpools/wasnorm_wordpool_576.txt	LTP210	ltpFR2	19	6	RAFT	1159	n/a	n/a	0	0	0
480.462	n/a	WORD	240231	wordpools/wasnorm_wordpool_576.txt	LTP210	ltpFR2	19	6	VENUS	1557	n/a	n/a	0	0	0
482.988	n/a	WORD	241494	wordpools/wasnorm_wordpool_576.txt	LTP210	ltpFR2	19	6	QUAIL	1147	n/a	n/a	0	0	0
485.482	n/a	WORD	242741	wordpools/wasnorm_wordpool_576.txt	LTP210	ltpFR2	19	6	PARROT	1015	n/a	n/a	0	0	0
488.226	n/a	WORD	244113	wordpools/wasnorm_wordpool_576.txt	LTP210	ltpFR2	19	6	TOURIST	1488	n/a	n/a	0	0	0
490.82	n/a	WORD	245410	wordpools/wasnorm_wordpool_576.txt	LTP210	ltpFR2	19	6	PILOT	1070	n/a	n/a	0	0	0
493.54	n/a	WORD	246770	wordpools/wasnorm_wordpool_576.txt	LTP210	ltpFR2	19	6	LAKE	796	n/a	n/a	0	0	0
496.122	n/a	WORD	248061	wordpools/wasnorm_wordpool_576.txt	LTP210	ltpFR2	19	6	BRAKE	166	n/a	n/a	0	0	0
498.816	n/a	WORD	249408	wordpools/wasnorm_wordpool_576.txt	LTP210	ltpFR2	19	6	SERVER	1272	n/a	n/a	0	0	0
501.336	n/a	WORD	250668	wordpools/wasnorm_wordpool_576.txt	LTP210	ltpFR2	19	6	LIZARD	834	n/a	n/a	0	0	0
504.066	n/a	WORD	252033	wordpools/wasnorm_wordpool_576.txt	LTP210	ltpFR2	19	6	BLOCKADE	137	n/a	n/a	0	0	0
506.73	n/a	WORD	253365	wordpools/wasnorm_wordpool_576.txt	LTP210	ltpFR2	19	6	ISLAND	745	n/a	n/a	0	0	0
509.302	n/a	WORD	254651	wordpools/wasnorm_wordpool_576.txt	LTP210	ltpFR2	19	6	OINTMENT	974	n/a	n/a	0	0	0
511.9	n/a	WORD	255950	wordpools/wasnorm_wordpool_576.txt	LTP210	ltpFR2	19	6	PENGUIN	1044	n/a	n/a	0	0	0
514.47	n/a	WORD	257235	wordpools/wasnorm_wordpool_576.txt	LTP210	ltpFR2	19	6	CARROT	249	n/a	n/a	0	0	0
517.186	n/a	WORD	258593	wordpools/wasnorm_wordpool_576.txt	LTP210	ltpFR2	19	6	LETTUCE	814	n/a	n/a	0	0	0
518.792	n/a	START	259396	n/a	LTP210	ltpFR2	19	n/a	n/a	n/a	8	n/a	n/a	n/a	n/a
519.824	n/a	DISTRACTOR	259912	n/a	LTP210	ltpFR2	19	6	n/a	n/a	n/a	n/a	0	0	0
519.842	n/a	PROB	259921	n/a	LTP210	ltpFR2	19	n/a	n/a	n/a	8	13	2	5	6
521.598	n/a	PROB	260799	n/a	LTP210	ltpFR2	19	n/a	n/a	n/a	8	17	6	8	3
523.394	n/a	PROB	261697	n/a	LTP210	ltpFR2	19	n/a	n/a	n/a	8	19	7	4	8
524.962	n/a	PROB	262481	n/a	LTP210	ltpFR2	19	n/a	n/a	n/a	8	18	9	7	2
526.836	n/a	PROB	263418	n/a	LTP210	ltpFR2	19	n/a	n/a	n/a	8	16	4	8	4
528.664	n/a	PROB	264332	n/a	LTP210	ltpFR2	19	n/a	n/a	n/a	8	22	6	9	7
530.756	n/a	PROB	265378	n/a	LTP210	ltpFR2	19	n/a	n/a	n/a	8	8	2	1	5
532.14	n/a	PROB	266070	n/a	LTP210	ltpFR2	19	n/a	n/a	n/a	8	14	6	5	3
533.946	n/a	PROB	266973	n/a	LTP210	ltpFR2	19	n/a	n/a	n/a	8	7	4	1	2
535.438	n/a	PROB	267719	n/a	LTP210	ltpFR2	19	n/a	n/a	n/a	8	8	3	4	1
537.632	n/a	PROB	268816	n/a	LTP210	ltpFR2	19	n/a	n/a	n/a	8	16	3	6	7
542.794	n/a	STOP	271397	n/a	LTP210	ltpFR2	19	n/a	n/a	n/a	8	n/a	n/a	n/a	n/a
544.672	n/a	REC_START	272336	n/a	LTP210	ltpFR2	19	6	n/a	n/a	n/a	n/a	0	0	0
545.646	n/a	REC_WORD	272823	wordpools/wasnorm_wordpool_576.txt	LTP210	ltpFR2	19	6	CARROT	249	n/a	n/a	0	0	0
547.088	n/a	REC_WORD	273544	wordpools/wasnorm_wordpool_576.txt	LTP210	ltpFR2	19	6	LETTUCE	814	n/a	n/a	0	0	0
548.916	n/a	REC_WORD	274458	wordpools/wasnorm_wordpool_576.txt	LTP210	ltpFR2	19	6	TRIBE	1505	n/a	n/a	0	0	0
550.568	n/a	REC_WORD	275284	wordpools/wasnorm_wordpool_576.txt	LTP210	ltpFR2	19	6	VENUS	1557	n/a	n/a	0	0	0
585.208	n/a	REC_WORD	292604	wordpools/wasnorm_wordpool_576.txt	LTP210	ltpFR2	19	6	PIZZA	1079	n/a	n/a	0	0	0
587.12	n/a	REC_WORD	293560	wordpools/wasnorm_wordpool_576.txt	LTP210	ltpFR2	19	6	SERVER	1272	n/a	n/a	0	0	0
635.706	n/a	WORD	317853	wordpools/wasnorm_wordpool_576.txt	LTP210	ltpFR2	19	7	COURSE	390	n/a	n/a	0	0	0
638.516	n/a	WORD	319258	wordpools/wasnorm_wordpool_576.txt	LTP210	ltpFR2	19	7	SPACE	1345	n/a	n/a	0	0	0
641.176	n/a	WORD	320588	wordpools/wasnorm_wordpool_576.txt	LTP210	ltpFR2	19	7	CHAUFFEUR	283	n/a	n/a	0	0	0
643.654	n/a	WORD	321827	wordpools/wasnorm_wordpool_576.txt	LTP210	ltpFR2	19	7	POSSUM	1112	n/a	n/a	0	0	0
646.212	n/a	WORD	323106	wordpools/wasnorm_wordpool_576.txt	LTP210	ltpFR2	19	7	RABBIT	1152	n/a	n/a	0	0	0
648.722	n/a	WORD	324361	wordpools/wasnorm_wordpool_576.txt	LTP210	ltpFR2	19	7	SODA	1341	n/a	n/a	0	0	0
651.282	n/a	WORD	325641	wordpools/wasnorm_wordpool_576.txt	LTP210	ltpFR2	19	7	GLASS	639	n/a	n/a	0	0	0
653.894	n/a	WORD	326947	wordpools/wasnorm_wordpool_576.txt	LTP210	ltpFR2	19	7	CURTAIN	427	n/a	n/a	0	0	0
656.434	n/a	WORD	328217	wordpools/wasnorm_wordpool_576.txt	LTP210	ltpFR2	19	7	PUDDING	1139	n/a	n/a	0	0	0
659.228	n/a	WORD	329614	wordpools/wasnorm_wordpool_576.txt	LTP210	ltpFR2	19	7	PASTRY	1022	n/a	n/a	0	0	0
661.924	n/a	WORD	330962	wordpools/wasnorm_wordpool_576.txt	LTP210	ltpFR2	19	7	TRACTOR	1493	n/a	n/a	0	0	0
664.734	n/a	WORD	332367	wordpools/wasnorm_wordpool_576.txt	LTP210	ltpFR2	19	7	SHORTCAKE	1292	n/a	n/a	0	0	0
667.488	n/a	WORD	333744	wordpools/wasnorm_wordpool_576.txt	LTP210	ltpFR2	19	7	GRAVEL	659	n/a	n/a	0	0	0
670.132	n/a	WORD	335066	wordpools/wasnorm_wordpool_576.txt	LTP210	ltpFR2	19	7	BLACKBOARD	133	n/a	n/a	0	0	0
672.782	n/a	WORD	336391	wordpools/wasnorm_wordpool_576.txt	LTP210	ltpFR2	19	7	FLUTE	585	n/a	n/a	0	0	0
675.408	n/a	WORD	337704	wordpools/wasnorm_wordpool_576.txt	LTP210	ltpFR2	19	7	SHELTER	1282	n/a	n/a	0	0	0
677.93	n/a	WORD	338965	wordpools/wasnorm_wordpool_576.txt	LTP210	ltpFR2	19	7	BRICK	172	n/a	n/a	0	0	0
680.59	n/a	WORD	340295	wordpools/wasnorm_wordpool_576.txt	LTP210	ltpFR2	19	7	DAUGHTER	442	n/a	n/a	0	0	0
683.35	n/a	WORD	341675	wordpools/wasnorm_wordpool_576.txt	LTP210	ltpFR2	19	7	CONCERT	360	n/a	n/a	0	0	0
686.016	n/a	WORD	343008	wordpools/wasnorm_wordpool_576.txt	LTP210	ltpFR2	19	7	SIDEWALK	1303	n/a	n/a	0	0	0
688.636	n/a	WORD	344318	wordpools/wasnorm_wordpool_576.txt	LTP210	ltpFR2	19	7	BUNNY	198	n/a	n/a	0	0	0
691.152	n/a	WORD	345576	wordpools/wasnorm_wordpool_576.txt	LTP210	ltpFR2	19	7	MASK	876	n/a	n/a	0	0	0
693.578	n/a	WORD	346789	wordpools/wasnorm_wordpool_576.txt	LTP210	ltpFR2	19	7	BUGGY	188	n/a	n/a	0	0	0
696.338	n/a	WORD	348169	wordpools/wasnorm_wordpool_576.txt	LTP210	ltpFR2	19	7	NOMAD	955	n/a	n/a	0	0	0
697.944	n/a	START	348972	n/a	LTP210	ltpFR2	19	n/a	n/a	n/a	9	n/a	n/a	n/a	n/a
698.794	n/a	DISTRACTOR	349397	n/a	LTP210	ltpFR2	19	7	n/a	n/a	n/a	n/a	0	0	0
698.81	n/a	PROB	349405	n/a	LTP210	ltpFR2	19	n/a	n/a	n/a	9	23	9	5	9
700.432	n/a	PROB	350216	n/a	LTP210	ltpFR2	19	n/a	n/a	n/a	9	13	4	2	7
703.042	n/a	PROB	351521	n/a	LTP210	ltpFR2	19	n/a	n/a	n/a	9	18	3	6	9
704.766	n/a	PROB	352383	n/a	LTP210	ltpFR2	19	n/a	n/a	n/a	9	16	2	9	5
707.158	n/a	PROB	353579	n/a	LTP210	ltpFR2	19	n/a	n/a	n/a	9	15	4	5	6
710.86	n/a	PROB	355430	n/a	LTP210	ltpFR2	19	n/a	n/a	n/a	9	12	4	2	6
712.214	n/a	PROB	356107	n/a	LTP210	ltpFR2	19	n/a	n/a	n/a	9	18	3	9	6
714.72	n/a	PROB	357360	n/a	LTP210	ltpFR2	19	n/a	n/a	n/a	9	17	6	4	7
715.926	n/a	PROB	357963	n/a	LTP210	ltpFR2	19	n/a	n/a	n/a	9	15	3	5	7
717.284	n/a	PROB	358642	n/a	LTP210	ltpFR2	19	n/a	n/a	n/a	9	14	3	9	2
719.036	n/a	PROB	359518	n/a	LTP210	ltpFR2	19	n/a	n/a	n/a	9	15	9	5	1
720.278	n/a	PROB	360139	n/a	LTP210	ltpFR2	19	n/a	n/a	n/a	9	14	7	4	3
721.552	n/a	STOP	360776	n/a	LTP210	ltpFR2	19	n/a	n/a	n/a	9	n/a	n/a	n/a	n/a
723.822	n/a	REC_START	361911	n/a	LTP210	ltpFR2	19	7	n/a	n/a	n/a	n/a	0	0	0
724.59	n/a	REC_WORD	362295	wordpools/wasnorm_wordpool_576.txt	LTP210	ltpFR2	19	7	NOMAD	955	n/a	n/a	0	0	0
726.254	n/a	REC_WORD	363127	wordpools/wasnorm_wordpool_576.txt	LTP210	ltpFR2	19	7	BUNNY	198	n/a	n/a	0	0	0
727.71	n/a	REC_WORD	363855	wordpools/wasnorm_wordpool_576.txt	LTP210	ltpFR2	19	7	RABBIT	1152	n/a	n/a	0	0	0
729.226	n/a	REC_WORD	364613	wordpools/wasnorm_wordpool_576.txt	LTP210	ltpFR2	19	7	POSSUM	1112	n/a	n/a	0	0	0
730.988	n/a	REC_WORD	365494	wordpools/wasnorm_wordpool_576.txt	LTP210	ltpFR2	19	7	BUGGY	188	n/a	n/a	0	0	0
745.568	n/a	REC_WORD	372784	wordpools/wasnorm_wordpool_576.txt	LTP210	ltpFR2	19	7	MASK	876	n/a	n/a	0	0	0
814.892	n/a	DISTRACTOR	407446	n/a	LTP210	ltpFR2	19	8	n/a	n/a	n/a	n/a	0	0	0
814.892	n/a	START	407446	n/a	LTP210	ltpFR2	19	n/a	n/a	n/a	10	n/a	n/a	n/a	n/a
814.942	n/a	PROB	407471	n/a	LTP210	ltpFR2	19	n/a	n/a	n/a	10	16	3	8	5
816.698	n/a	PROB	408349	n/a	LTP210	ltpFR2	19	n/a	n/a	n/a	10	20	8	8	4
818.768	n/a	PROB	409384	n/a	LTP210	ltpFR2	19	n/a	n/a	n/a	10	14	5	3	6
820.978	n/a	PROB	410489	n/a	LTP210	ltpFR2	19	n/a	n/a	n/a	10	16	3	7	6
822.236	n/a	PROB	411118	n/a	LTP210	ltpFR2	19	n/a	n/a	n/a	10	10	5	3	2
823.604	n/a	PROB	411802	n/a	LTP210	ltpFR2	19	n/a	n/a	n/a	10	13	2	4	7
825.264	n/a	PROB	412632	n/a	LTP210	ltpFR2	19	n/a	n/a	n/a	10	19	9	2	8
826.782	n/a	PROB	413391	n/a	LTP210	ltpFR2	19	n/a	n/a	n/a	10	14	2	9	3
828.258	n/a	PROB	414129	n/a	LTP210	ltpFR2	19	n/a	n/a	n/a	10	22	6	8	8
829.828	n/a	PROB	414914	n/a	LTP210	ltpFR2	19	n/a	n/a	n/a	10	11	3	3	5
831.756	n/a	PROB	415878	n/a	LTP210	ltpFR2	19	n/a	n/a	n/a	10	19	8	3	8
833.26	n/a	PROB	416630	n/a	LTP210	ltpFR2	19	n/a	n/a	n/a	10	20	7	9	4
834.83	n/a	PROB	417415	n/a	LTP210	ltpFR2	19	n/a	n/a	n/a	10	10	3	6	1
836.034	n/a	PROB	418017	n/a	LTP210	ltpFR2	19	n/a	n/a	n/a	10	18	8	4	6
837.856	n/a	STOP	418928	n/a	LTP210	ltpFR2	19	n/a	n/a	n/a	10	n/a	n/a	n/a	n/a
839.954	n/a	WORD	419977	wordpools/wasnorm_wordpool_576.txt	LTP210	ltpFR2	19	8	FIREMAN	569	n/a	n/a	0	0	0
842.558	n/a	WORD	421279	wordpools/wasnorm_wordpool_576.txt	LTP210	ltpFR2	19	8	JOURNAL	760	n/a	n/a	0	0	0
845.318	n/a	WORD	422659	wordpools/wasnorm_wordpool_576.txt	LTP210	ltpFR2	19	8	SHELF	1280	n/a	n/a	0	0	0
847.946	n/a	WORD	423973	wordpools/wasnorm_wordpool_576.txt	LTP210	ltpFR2	19	8	MAILMAN	858	n/a	n/a	0	0	0
850.422	n/a	WORD	425211	wordpools/wasnorm_wordpool_576.txt	LTP210	ltpFR2	19	8	AIRPORT	13	n/a	n/a	0	0	0
852.986	n/a	WORD	426493	wordpools/wasnorm_wordpool_576.txt	LTP210	ltpFR2	19	8	BEEF	113	n/a	n/a	0	0	0
855.596	n/a	WORD	427798	wordpools/wasnorm_wordpool_576.txt	LTP210	ltpFR2	19	8	BEAST	108	n/a	n/a	0	0	0
858.24	n/a	WORD	429120	wordpools/wasnorm_wordpool_576.txt	LTP210	ltpFR2	19	8	PIANO	1057	n/a	n/a	0	0	0
860.93	n/a	WORD	430465	wordpools/wasnorm_wordpool_576.txt	LTP210	ltpFR2	19	8	STAKE	1368	n/a	n/a	0	0	0
863.376	n/a	WORD	431688	wordpools/wasnorm_wordpool_576.txt	LTP210	ltpFR2	19	8	POISON	1096	n/a	n/a	0	0	0
865.836	n/a	WORD	432918	wordpools/wasnorm_wordpool_576.txt	LTP210	ltpFR2	19	8	RUG	1215	n/a	n/a	0	0	0
868.626	n/a	WORD	434313	wordpools/wasnorm_wordpool_576.txt	LTP210	ltpFR2	19	8	FIREPLACE	570	n/a	n/a	0	0	0
871.272	n/a	WORD	435636	wordpools/wasnorm_wordpool_576.txt	LTP210	ltpFR2	19	8	ATLAS	53	n/a	n/a	0	0	0
873.832	n/a	WORD	436916	wordpools/wasnorm_wordpool_576.txt	LTP210	ltpFR2	19	8	TRUCK	1512	n/a	n/a	0	0	0
876.276	n/a	WORD	438138	wordpools/wasnorm_wordpool_576.txt	LTP210	ltpFR2	19	8	LUMBER	848	n/a	n/a	0	0	0
878.936	n/a	WORD	439468	wordpools/wasnorm_wordpool_576.txt	LTP210	ltpFR2	19	8	TERMITE	1451	n/a	n/a	0	0	0
881.646	n/a	WORD	440823	wordpools/wasnorm_wordpool_576.txt	LTP210	ltpFR2	19	8	WIFE	1609	n/a	n/a	0	0	0
884.222	n/a	WORD	442111	wordpools/wasnorm_wordpool_576.txt	LTP210	ltpFR2	19	8	HATCHET	691	n/a	n/a	0	0	0
886.816	n/a	WORD	443408	wordpools/wasnorm_wordpool_576.txt	LTP210	ltpFR2	19	8	GUITAR	670	n/a	n/a	0	0	0
889.258	n/a	WORD	444629	wordpools/wasnorm_wordpool_576.txt	LTP210	ltpFR2	19	8	CROWN	415	n/a	n/a	0	0	0
891.836	n/a	WORD	445918	wordpools/wasnorm_wordpool_576.txt	LTP210	ltpFR2	19	8	MUMMY	932	n/a	n/a	0	0	0
894.328	n/a	WORD	447164	wordpools/wasnorm_wordpool_576.txt	LTP210	ltpFR2	19	8	CASKET	255	n/a	n/a	0	0	0
897.022	n/a	WORD	448511	wordpools/wasnorm_wordpool_576.txt	LTP210	ltpFR2	19	8	TOMBSTONE	1478	n/a	n/a	0	0	0
899.766	n/a	WORD	449883	wordpools/wasnorm_wordpool_576.txt	LTP210	ltpFR2	19	8	COBRA	336	n/a	n/a	0	0	0
901.372	n/a	START	450686	n/a	LTP210	ltpFR2	19	n/a	n/a	n/a	11	n/a	n/a	n/a	n/a
902.204	n/a	DISTRACTOR	451102	n/a	LTP210	ltpFR2	19	8	n/a	n/a	n/a	n/a	0	0	0
902.22	n/a	PROB	451110	n/a	LTP210	ltpFR2	19	n/a	n/a	n/a	11	21	8	4	9
909.414	n/a	PROB	454707	n/a	LTP210	ltpFR2	19	n/a	n/a	n/a	11	21	7	5	9
914.266	n/a	PROB	457133	n/a	LTP210	ltpFR2	19	n/a	n/a	n/a	11	18	5	7	6
917.248	n/a	PROB	458624	n/a	LTP210	ltpFR2	19	n/a	n/a	n/a	11	13	2	3	8
919.19	n/a	PROB	459595	n/a	LTP210	ltpFR2	19	n/a	n/a	n/a	11	17	7	8	2
920.624	n/a	PROB	460312	n/a	LTP210	ltpFR2	19	n/a	n/a	n/a	11	21	6	9	6
922.164	n/a	PROB	461082	n/a	LTP210	ltpFR2	19	n/a	n/a	n/a	11	18	8	8	2
924.476	n/a	STOP	462238	n/a	LTP210	ltpFR2	19	n/a	n/a	n/a	11	n/a	n/a	n/a	n/a
927.186	n/a	REC_START	463593	n/a	LTP210	ltpFR2	19	8	n/a	n/a	n/a	n/a	0	0	0
928.962	n/a	REC_WORD	464481	wordpools/wasnorm_wordpool_576.txt	LTP210	ltpFR2	19	8	BEAST	108	n/a	n/a	0	0	0
1003.998	n/a	REST_REWET	501999	n/a	LTP210	ltpFR2	19	8	n/a	n/a	n/a	n/a	0	0	0
1367.368	n/a	WORD	683684	wordpools/wasnorm_wordpool_576.txt	LTP210	ltpFR2	19	9	GRAPE	654	n/a	n/a	0	0	0
1370.08	n/a	WORD	685040	wordpools/wasnorm_wordpool_576.txt	LTP210	ltpFR2	19	9	GHETTO	633	n/a	n/a	0	0	0
1372.538	n/a	WORD	686269	wordpools/wasnorm_wordpool_576.txt	LTP210	ltpFR2	19	9	SERVANT	1271	n/a	n/a	0	0	0
1375.032	n/a	WORD	687516	wordpools/wasnorm_wordpool_576.txt	LTP210	ltpFR2	19	9	SMOG	1330	n/a	n/a	0	0	0
1377.626	n/a	WORD	688813	wordpools/wasnorm_wordpool_576.txt	LTP210	ltpFR2	19	9	TAXI	1438	n/a	n/a	0	0	0
1380.436	n/a	WORD	690218	wordpools/wasnorm_wordpool_576.txt	LTP210	ltpFR2	19	9	HORNET	718	n/a	n/a	0	0	0
1382.912	n/a	WORD	691456	wordpools/wasnorm_wordpool_576.txt	LTP210	ltpFR2	19	9	RIVER	1194	n/a	n/a	0	0	0
1385.366	n/a	WORD	692683	wordpools/wasnorm_wordpool_576.txt	LTP210	ltpFR2	19	9	SHERIFF	1284	n/a	n/a	0	0	0
1388.048	n/a	WORD	694024	wordpools/wasnorm_wordpool_576.txt	LTP210	ltpFR2	19	9	DORM	488	n/a	n/a	0	0	0
1390.842	n/a	WORD	695421	wordpools/wasnorm_wordpool_576.txt	LTP210	ltpFR2	19	9	CUSTARD	429	n/a	n/a	0	0	0
1393.484	n/a	WORD	696742	wordpools/wasnorm_wordpool_576.txt	LTP210	ltpFR2	19	9	COUNTY	389	n/a	n/a	0	0	0
1396.164	n/a	WORD	698082	wordpools/wasnorm_wordpool_576.txt	LTP210	ltpFR2	19	9	TABLE	1426	n/a	n/a	0	0	0
1398.768	n/a	WORD	699384	wordpools/wasnorm_wordpool_576.txt	LTP210	ltpFR2	19	9	FOOTBALL	591	n/a	n/a	0	0	0
1401.466	n/a	WORD	700733	wordpools/wasnorm_wordpool_576.txt	LTP210	ltpFR2	19	9	DRUG	501	n/a	n/a	0	0	0
1403.976	n/a	WORD	701988	wordpools/wasnorm_wordpool_576.txt	LTP210	ltpFR2	19	9	CRAB	397	n/a	n/a	0	0	0
1406.788	n/a	WORD	703394	wordpools/wasnorm_wordpool_576.txt	LTP210	ltpFR2	19	9	BUCKET	184	n/a	n/a	0	0	0
1409.53	n/a	WORD	704765	wordpools/wasnorm_wordpool_576.txt	LTP210	ltpFR2	19	9	CLOCK	325	n/a	n/a	0	0	0
1412.174	n/a	WORD	706087	wordpools/wasnorm_wordpool_576.txt	LTP210	ltpFR2	19	9	INFANT	737	n/a	n/a	0	0	0
1414.936	n/a	WORD	707468	wordpools/wasnorm_wordpool_576.txt	LTP210	ltpFR2	19	9	CRIB	407	n/a	n/a	0	0	0
1417.478	n/a	WORD	708739	wordpools/wasnorm_wordpool_576.txt	LTP210	ltpFR2	19	9	CATCHER	258	n/a	n/a	0	0	0
1420.222	n/a	WORD	710111	wordpools/wasnorm_wordpool_576.txt	LTP210	ltpFR2	19	9	EXPERT	543	n/a	n/a	0	0	0
1422.714	n/a	WORD	711357	wordpools/wasnorm_wordpool_576.txt	LTP210	ltpFR2	19	9	PADDING	999	n/a	n/a	0	0	0
1425.524	n/a	WORD	712762	wordpools/wasnorm_wordpool_576.txt	LTP210	ltpFR2	19	9	PACKAGE	997	n/a	n/a	0	0	0
1428.018	n/a	WORD	714009	wordpools/wasnorm_wordpool_576.txt	LTP210	ltpFR2	19	9	STAMP	1370	n/a	n/a	0	0	0
1429.624	n/a	START	714812	n/a	LTP210	ltpFR2	19	n/a	n/a	n/a	12	n/a	n/a	n/a	n/a
1430.454	n/a	DISTRACTOR	715227	n/a	LTP210	ltpFR2	19	9	n/a	n/a	n/a	n/a	0	0	0
1430.472	n/a	PROB	715236	n/a	LTP210	ltpFR2	19	n/a	n/a	n/a	12	18	7	3	8
1432.03	n/a	PROB	716015	n/a	LTP210	ltpFR2	19	n/a	n/a	n/a	12	17	4	9	4
1434.51	n/a	PROB	717255	n/a	LTP210	ltpFR2	19	n/a	n/a	n/a	12	18	5	9	4
1436.3	n/a	PROB	718150	n/a	LTP210	ltpFR2	19	n/a	n/a	n/a	12	12	2	2	8
1437.432	n/a	PROB	718716	n/a	LTP210	ltpFR2	19	n/a	n/a	n/a	12	15	5	7	3
1438.71	n/a	PROB	719355	n/a	LTP210	ltpFR2	19	n/a	n/a	n/a	12	18	7	3	8
1440.276	n/a	PROB	720138	n/a	LTP210	ltpFR2	19	n/a	n/a	n/a	12	19	4	8	7
1443.674	n/a	PROB	721837	n/a	LTP210	ltpFR2	19	n/a	n/a	n/a	12	6	1	4	1
1444.932	n/a	PROB	722466	n/a	LTP210	ltpFR2	19	n/a	n/a	n/a	12	19	8	5	6
1446.516	n/a	PROB	723258	n/a	LTP210	ltpFR2	19	n/a	n/a	n/a	12	19	9	4	6
1447.84	n/a	PROB	723920	n/a	LTP210	ltpFR2	19	n/a	n/a	n/a	12	13	6	4	3
1449.478	n/a	PROB	724739	n/a	LTP210	ltpFR2	19	n/a	n/a	n/a	12	10	1	4	5
1450.768	n/a	PROB	725384	n/a	LTP210	ltpFR2	19	n/a	n/a	n/a	12	16	1	9	6
1452.06	n/a	PROB	726030	n/a	LTP210	ltpFR2	19	n/a	n/a	n/a	12	6	1	3	2
1453.208	n/a	STOP	726604	n/a	LTP210	ltpFR2	19	n/a	n/a	n/a	12	n/a	n/a	n/a	n/a
1455.402	n/a	REC_START	727701	n/a	LTP210	ltpFR2	19	9	n/a	n/a	n/a	n/a	0	0	0
1485.954	n/a	REC_WORD	742977	wordpools/wasnorm_wordpool_576.txt	LTP210	ltpFR2	19	9	COUNTY	389	n/a	n/a	0	0	0
1546.436	n/a	WORD	773218	wordpools/wasnorm_wordpool_576.txt	LTP210	ltpFR2	19	10	AGENT	10	n/a	n/a	0	0	0
1548.864	n/a	WORD	774432	wordpools/wasnorm_wordpool_576.txt	LTP210	ltpFR2	19	10	LIGHTNING	820	n/a	n/a	0	0	0
1551.356	n/a	WORD	775678	wordpools/wasnorm_wordpool_576.txt	LTP210	ltpFR2	19	10	VALLEY	1545	n/a	n/a	0	0	0
1553.782	n/a	WORD	776891	wordpools/wasnorm_wordpool_576.txt	LTP210	ltpFR2	19	10	CRATER	400	n/a	n/a	0	0	0
1556.22	n/a	WORD	778110	wordpools/wasnorm_wordpool_576.txt	LTP210	ltpFR2	19	10	BRANCH	168	n/a	n/a	0	0	0
1558.752	n/a	WORD	779376	wordpools/wasnorm_wordpool_576.txt	LTP210	ltpFR2	19	10	EUROPE	541	n/a	n/a	0	0	0
1561.478	n/a	WORD	780739	wordpools/wasnorm_wordpool_576.txt	LTP210	ltpFR2	19	10	DINER	467	n/a	n/a	0	0	0
1564.168	n/a	WORD	782084	wordpools/wasnorm_wordpool_576.txt	LTP210	ltpFR2	19	10	COUNTRY	388	n/a	n/a	0	0	0
1566.648	n/a	WORD	783324	wordpools/wasnorm_wordpool_576.txt	LTP210	ltpFR2	19	10	TROMBONE	1508	n/a	n/a	0	0	0
1569.192	n/a	WORD	784596	wordpools/wasnorm_wordpool_576.txt	LTP210	ltpFR2	19	10	JAPAN	749	n/a	n/a	0	0	0
1571.618	n/a	WORD	785809	wordpools/wasnorm_wordpool_576.txt	LTP210	ltpFR2	19	10	MAMMAL	861	n/a	n/a	0	0	0
1574.344	n/a	WORD	787172	wordpools/wasnorm_wordpool_576.txt	LTP210	ltpFR2	19	10	DOLPHIN	483	n/a	n/a	0	0	0
1577.016	n/a	WORD	788508	wordpools/wasnorm_wordpool_576.txt	LTP210	ltpFR2	19	10	NOTEBOOK	959	n/a	n/a	0	0	0
1579.68	n/a	WORD	789840	wordpools/wasnorm_wordpool_576.txt	LTP210	ltpFR2	19	10	TABLET	1427	n/a	n/a	0	0	0
1582.424	n/a	WORD	791212	wordpools/wasnorm_wordpool_576.txt	LTP210	ltpFR2	19	10	PROTON	1132	n/a	n/a	0	0	0
1585.12	n/a	WORD	792560	wordpools/wasnorm_wordpool_576.txt	LTP210	ltpFR2	19	10	PREACHER	1119	n/a	n/a	0	0	0
1587.812	n/a	WORD	793906	wordpools/wasnorm_wordpool_576.txt	LTP210	ltpFR2	19	10	SALMON	1227	n/a	n/a	0	0	0
1590.538	n/a	WORD	795269	wordpools/wasnorm_wordpool_576.txt	LTP210	ltpFR2	19	10	FOREST	593	n/a	n/a	0	0	0
1593.016	n/a	WORD	796508	wordpools/wasnorm_wordpool_576.txt	LTP210	ltpFR2	19	10	COLLEGE	346	n/a	n/a	0	0	0
1595.458	n/a	WORD	797729	wordpools/wasnorm_wordpool_576.txt	LTP210	ltpFR2	19	10	HOOD	714	n/a	n/a	0	0	0
1598.186	n/a	WORD	799093	wordpools/wasnorm_wordpool_576.txt	LTP210	ltpFR2	19	10	BUG	187	n/a	n/a	0	0	0
1600.712	n/a	WORD	800356	wordpools/wasnorm_wordpool_576.txt	LTP210	ltpFR2	19	10	KETCHUP	771	n/a	n/a	0	0	0
1603.204	n/a	WORD	801602	wordpools/wasnorm_wordpool_576.txt	LTP210	ltpFR2	19	10	DIVER	476	n/a	n/a	0	0	0
1605.694	n/a	WORD	802847	wordpools/wasnorm_wordpool_576.txt	LTP210	ltpFR2	19	10	SLOPE	1328	n/a	n/a	0	0	0
1607.304	n/a	START	803652	n/a	LTP210	ltpFR2	19	n/a	n/a	n/a	13	n/a	n/a	n/a	n/a
1608.198	n/a	DISTRACTOR	804099	n/a	LTP210	ltpFR2	19	10	n/a	n/a	n/a	n/a	0	0	0
1608.208	n/a	PROB	804104	n/a	LTP210	ltpFR2	19	n/a	n/a	n/a	13	17	8	6	3
1611.246	n/a	PROB	805623	n/a	LTP210	ltpFR2	19	n/a	n/a	n/a	13	22	7	7	8
1612.67	n/a	PROB	806335	n/a	LTP210	ltpFR2	19	n/a	n/a	n/a	13	22	9	6	7
1614.346	n/a	PROB	807173	n/a	LTP210	ltpFR2	19	n/a	n/a	n/a	13	17	3	8	6
1616.784	n/a	PROB	808392	n/a	LTP210	ltpFR2	19	n/a	n/a	n/a	13	16	5	7	4
1618.68	n/a	PROB	809340	n/a	LTP210	ltpFR2	19	n/a	n/a	n/a	13	10	3	5	2
1620.332	n/a	PROB	810166	n/a	LTP210	ltpFR2	19	n/a	n/a	n/a	13	17	3	6	8
1622.372	n/a	PROB	811186	n/a	LTP210	ltpFR2	19	n/a	n/a	n/a	13	16	7	2	7
1623.862	n/a	PROB	811931	n/a	LTP210	ltpFR2	19	n/a	n/a	n/a	13	8	1	6	1
1625.072	n/a	PROB	812536	n/a	LTP210	ltpFR2	19	n/a	n/a	n/a	13	5	1	1	3
1626.292	n/a	PROB	813146	n/a	LTP210	ltpFR2	19	n/a	n/a	n/a	13	17	5	8	4
1628.2	n/a	PROB	814100	n/a	LTP210	ltpFR2	19	n/a	n/a	n/a	13	6	2	1	3
1629.404	n/a	PROB	814702	n/a	LTP210	ltpFR2	19	n/a	n/a	n/a	13	8	5	2	1
1630.658	n/a	STOP	815329	n/a	LTP210	ltpFR2	19	n/a	n/a	n/a	13	n/a	n/a	n/a	n/a
1633.132	n/a	REC_START	816566	n/a	LTP210	ltpFR2	19	10	n/a	n/a	n/a	n/a	0	0	0
1633.954	n/a	REC_WORD	816977	wordpools/wasnorm_wordpool_576.txt	LTP210	ltpFR2	19	10	COUNTRY	388	n/a	n/a	0	0	0
1635.402	n/a	REC_WORD	817701	wordpools/wasnorm_wordpool_576.txt	LTP210	ltpFR2	19	10	SLOPE	1328	n/a	n/a	0	0	0
1637.064	n/a	REC_WORD	818532	wordpools/wasnorm_wordpool_576.txt	LTP210	ltpFR2	19	10	JAPAN	749	n/a	n/a	0	0	0
1724.166	n/a	DISTRACTOR	862083	n/a	LTP210	ltpFR2	19	11	n/a	n/a	n/a	n/a	0	0	0
1724.168	n/a	START	862084	n/a	LTP210	ltpFR2	19	n/a	n/a	n/a	14	n/a	n/a	n/a	n/a
1724.216	n/a	PROB	862108	n/a	LTP210	ltpFR2	19	n/a	n/a	n/a	14	15	7	6	2
1725.974	n/a	PROB	862987	n/a	LTP210	ltpFR2	19	n/a	n/a	n/a	14	14	4	8	2
1727.156	n/a	PROB	863578	n/a	LTP210	ltpFR2	19	n/a	n/a	n/a	14	16	7	5	4
1730.106	n/a	PROB	865053	n/a	LTP210	ltpFR2	19	n/a	n/a	n/a	14	16	7	3	6
1731.406	n/a	PROB	865703	n/a	LTP210	ltpFR2	19	n/a	n/a	n/a	14	8	4	2	2
1732.796	n/a	PROB	866398	n/a	LTP210	ltpFR2	19	n/a	n/a	n/a	14	13	3	1	9
1734.068	n/a	PROB	867034	n/a	LTP210	ltpFR2	19	n/a	n/a	n/a	14	12	5	1	6
1735.588	n/a	PROB	867794	n/a	LTP210	ltpFR2	19	n/a	n/a	n/a	14	19	9	1	9
1736.778	n/a	PROB	868389	n/a	LTP210	ltpFR2	19	n/a	n/a	n/a	14	24	9	9	6
1738.768	n/a	PROB	869384	n/a	LTP210	ltpFR2	19	n/a	n/a	n/a	14	19	2	8	9
1739.972	n/a	PROB	869986	n/a	LTP210	ltpFR2	19	n/a	n/a	n/a	14	4	1	2	1
1741.132	n/a	PROB	870566	n/a	LTP210	ltpFR2	19	n/a	n/a	n/a	14	19	5	5	9
1742.464	n/a	PROB	871232	n/a	LTP210	ltpFR2	19	n/a	n/a	n/a	14	14	1	7	5
1744.042	n/a	PROB	872021	n/a	LTP210	ltpFR2	19	n/a	n/a	n/a	14	14	3	7	4
1745.698	n/a	PROB	872849	n/a	LTP210	ltpFR2	19	n/a	n/a	n/a	14	7	2	2	3
1747.89	n/a	STOP	873945	n/a	LTP210	ltpFR2	19	n/a	n/a	n/a	14	n/a	n/a	n/a	n/a
1749.03	n/a	WORD	874515	wordpools/wasnorm_wordpool_576.txt	LTP210	ltpFR2	19	11	POPCORN	1104	n/a	n/a	0	0	0
1751.588	n/a	WORD	875794	wordpools/wasnorm_wordpool_576.txt	LTP210	ltpFR2	19	11	CITRUS	313	n/a	n/a	0	0	0
1754.216	n/a	WORD	877108	wordpools/wasnorm_wordpool_576.txt	LTP210	ltpFR2	19	11	SCULPTURE	1258	n/a	n/a	0	0	0
1756.642	n/a	WORD	878321	wordpools/wasnorm_wordpool_576.txt	LTP210	ltpFR2	19	11	DONOR	485	n/a	n/a	0	0	0
1759.168	n/a	WORD	879584	wordpools/wasnorm_wordpool_576.txt	LTP210	ltpFR2	19	11	TRANSPLANT	1496	n/a	n/a	0	0	0
1761.844	n/a	WORD	880922	wordpools/wasnorm_wordpool_576.txt	LTP210	ltpFR2	19	11	JUNGLE	764	n/a	n/a	0	0	0
1764.598	n/a	WORD	882299	wordpools/wasnorm_wordpool_576.txt	LTP210	ltpFR2	19	11	SCARF	1246	n/a	n/a	0	0	0
1767.232	n/a	WORD	883616	wordpools/wasnorm_wordpool_576.txt	LTP210	ltpFR2	19	11	PARSLEY	1016	n/a	n/a	0	0	0
1769.776	n/a	WORD	884888	wordpools/wasnorm_wordpool_576.txt	LTP210	ltpFR2	19	11	CHILD	299	n/a	n/a	0	0	0
1772.266	n/a	WORD	886133	wordpools/wasnorm_wordpool_576.txt	LTP210	ltpFR2	19	11	CAFE	216	n/a	n/a	0	0	0
1775.062	n/a	WORD	887531	wordpools/wasnorm_wordpool_576.txt	LTP210	ltpFR2	19	11	SUMMIT	1405	n/a	n/a	0	0	0
1777.788	n/a	WORD	888894	wordpools/wasnorm_wordpool_576.txt	LTP210	ltpFR2	19	11	KITCHEN	778	n/a	n/a	0	0	0
1780.23	n/a	WORD	890115	wordpools/wasnorm_wordpool_576.txt	LTP210	ltpFR2	19	11	TUBA	1515	n/a	n/a	0	0	0
1782.656	n/a	WORD	891328	wordpools/wasnorm_wordpool_576.txt	LTP210	ltpFR2	19	11	KNAPSACK	783	n/a	n/a	0	0	0
1785.266	n/a	WORD	892633	wordpools/wasnorm_wordpool_576.txt	LTP210	ltpFR2	19	11	HEDGE	699	n/a	n/a	0	0	0
1788.012	n/a	WORD	894006	wordpools/wasnorm_wordpool_576.txt	LTP210	ltpFR2	19	11	SUBWAY	1400	n/a	n/a	0	0	0
1790.684	n/a	WORD	895342	wordpools/wasnorm_wordpool_576.txt	LTP210	ltpFR2	19	11	TEMPLE	1448	n/a	n/a	0	0	0
1793.38	n/a	WORD	896690	wordpools/wasnorm_wordpool_576.txt	LTP210	ltpFR2	19	11	SPHINX	1349	n/a	n/a	0	0	0
1795.974	n/a	WORD	897987	wordpools/wasnorm_wordpool_576.txt	LTP210	ltpFR2	19	11	STATUE	1374	n/a	n/a	0	0	0
1798.718	n/a	WORD	899359	wordpools/wasnorm_wordpool_576.txt	LTP210	ltpFR2	19	11	FIDDLE	561	n/a	n/a	0	0	0
1801.41	n/a	WORD	900705	wordpools/wasnorm_wordpool_576.txt	LTP210	ltpFR2	19	11	TREAT	1501	n/a	n/a	0	0	0
1804.072	n/a	WORD	902036	wordpools/wasnorm_wordpool_576.txt	LTP210	ltpFR2	19	11	CRICKET	408	n/a	n/a	0	0	0
1806.514	n/a	WORD	903257	wordpools/wasnorm_wordpool_576.txt	LTP210	ltpFR2	19	11	BACON	67	n/a	n/a	0	0	0
1809.108	n/a	WORD	904554	wordpools/wasnorm_wordpool_576.txt	LTP210	ltpFR2	19	11	FRANCE	601	n/a	n/a	0	0	0
1810.714	n/a	START	905357	n/a	LTP210	ltpFR2	19	n/a	n/a	n/a	15	n/a	n/a	n/a	n/a
1811.622	n/a	DISTRACTOR	905811	n/a	LTP210	ltpFR2	19	11	n/a	n/a	n/a	n/a	0	0	0
1811.634	n/a	PROB	905817	n/a	LTP210	ltpFR2	19	n/a	n/a	n/a	15	12	8	3	1
1815.784	n/a	PROB	907892	n/a	LTP210	ltpFR2	19	n/a	n/a	n/a	15	18	7	9	2
1818.204	n/a	PROB	909102	n/a	LTP210	ltpFR2	19	n/a	n/a	n/a	15	21	8	9	4
1819.928	n/a	PROB	909964	n/a	LTP210	ltpFR2	19	n/a	n/a	n/a	15	21	7	8	6
1822.12	n/a	PROB	911060	n/a	LTP210	ltpFR2	19	n/a	n/a	n/a	15	20	6	5	9
1824.814	n/a	PROB	912407	n/a	LTP210	ltpFR2	19	n/a	n/a	n/a	15	12	5	5	2
1825.952	n/a	PROB	912976	n/a	LTP210	ltpFR2	19	n/a	n/a	n/a	15	13	5	1	7
1828.51	n/a	PROB	914255	n/a	LTP210	ltpFR2	19	n/a	n/a	n/a	15	16	8	4	4
1829.95	n/a	PROB	914975	n/a	LTP210	ltpFR2	19	n/a	n/a	n/a	15	16	8	1	7
1831.74	n/a	PROB	915870	n/a	LTP210	ltpFR2	19	n/a	n/a	n/a	15	18	9	1	8
1833.196	n/a	PROB	916598	n/a	LTP210	ltpFR2	19	n/a	n/a	n/a	15	16	4	6	6
1834.434	n/a	STOP	917217	n/a	LTP210	ltpFR2	19	n/a	n/a	n/a	15	n/a	n/a	n/a	n/a
1836.676	n/a	REC_START	918338	n/a	LTP210	ltpFR2	19	11	n/a	n/a	n/a	n/a	0	0	0
1837.39	n/a	REC_WORD	918695	wordpools/wasnorm_wordpool_576.txt	LTP210	ltpFR2	19	11	SCULPTURE	1258	n/a	n/a	0	0	0
1839.164	n/a	REC_WORD	919582	wordpools/wasnorm_wordpool_576.txt	LTP210	ltpFR2	19	11	SPHINX	1349	n/a	n/a	0	0	0
1840.82	n/a	REC_WORD	920410	wordpools/wasnorm_wordpool_576.txt	LTP210	ltpFR2	19	11	STATUE	1374	n/a	n/a	0	0	0
1843.884	n/a	REC_WORD	921942	wordpools/wasnorm_wordpool_576.txt	LTP210	ltpFR2	19	11	EUROPE	541	n/a	n/a	0	0	0
1845.68	n/a	REC_WORD	922840	wordpools/wasnorm_wordpool_576.txt	LTP210	ltpFR2	19	11	FRANCE	601	n/a	n/a	0	0	0
1848.158	n/a	REC_WORD	924079	wordpools/wasnorm_wordpool_576.txt	LTP210	ltpFR2	19	11	BACON	67	n/a	n/a	0	0	0
1853.308	n/a	REC_WORD	926654	wordpools/wasnorm_wordpool_576.txt	LTP210	ltpFR2	19	11	TUBA	1515	n/a	n/a	0	0	0
1855.15	n/a	REC_WORD	927575	wordpools/wasnorm_wordpool_576.txt	LTP210	ltpFR2	19	11	CAFE	216	n/a	n/a	0	0	0
1927.712	n/a	WORD	963856	wordpools/wasnorm_wordpool_576.txt	LTP210	ltpFR2	19	12	MESSAGE	888	n/a	n/a	0	0	0
1930.32	n/a	WORD	965160	wordpools/wasnorm_wordpool_576.txt	LTP210	ltpFR2	19	12	POSTAGE	1113	n/a	n/a	0	0	0
1933.048	n/a	WORD	966524	wordpools/wasnorm_wordpool_576.txt	LTP210	ltpFR2	19	12	MILK	895	n/a	n/a	0	0	0
1935.592	n/a	WORD	967796	wordpools/wasnorm_wordpool_576.txt	LTP210	ltpFR2	19	12	DAISY	435	n/a	n/a	0	0	0
1938.018	n/a	WORD	969009	wordpools/wasnorm_wordpool_576.txt	LTP210	ltpFR2	19	12	OUTLAW	989	n/a	n/a	0	0	0
1940.628	n/a	WORD	970314	wordpools/wasnorm_wordpool_576.txt	LTP210	ltpFR2	19	12	SKIRT	1319	n/a	n/a	0	0	0
1943.354	n/a	WORD	971677	wordpools/wasnorm_wordpool_576.txt	LTP210	ltpFR2	19	12	SILK	1307	n/a	n/a	0	0	0
1945.81	n/a	WORD	972905	wordpools/wasnorm_wordpool_576.txt	LTP210	ltpFR2	19	12	CANDY	230	n/a	n/a	0	0	0
1948.372	n/a	WORD	974186	wordpools/wasnorm_wordpool_576.txt	LTP210	ltpFR2	19	12	EAGLE	512	n/a	n/a	0	0	0
1951.0	n/a	WORD	975500	wordpools/wasnorm_wordpool_576.txt	LTP210	ltpFR2	19	12	RATTLE	1170	n/a	n/a	0	0	0
1953.544	n/a	WORD	976772	wordpools/wasnorm_wordpool_576.txt	LTP210	ltpFR2	19	12	CARRIAGE	248	n/a	n/a	0	0	0
1956.266	n/a	WORD	978133	wordpools/wasnorm_wordpool_576.txt	LTP210	ltpFR2	19	12	BISON	131	n/a	n/a	0	0	0
1958.814	n/a	WORD	979407	wordpools/wasnorm_wordpool_576.txt	LTP210	ltpFR2	19	12	TILE	1468	n/a	n/a	0	0	0
1961.252	n/a	WORD	980626	wordpools/wasnorm_wordpool_576.txt	LTP210	ltpFR2	19	12	ROBIN	1199	n/a	n/a	0	0	0
1963.716	n/a	WORD	981858	wordpools/wasnorm_wordpool_576.txt	LTP210	ltpFR2	19	12	SCALLOP	1242	n/a	n/a	0	0	0
1966.342	n/a	WORD	983171	wordpools/wasnorm_wordpool_576.txt	LTP210	ltpFR2	19	12	MARS	873	n/a	n/a	0	0	0
1968.898	n/a	WORD	984449	wordpools/wasnorm_wordpool_576.txt	LTP210	ltpFR2	19	12	CASHIER	254	n/a	n/a	0	0	0
1971.596	n/a	WORD	985798	wordpools/wasnorm_wordpool_576.txt	LTP210	ltpFR2	19	12	JELLO	754	n/a	n/a	0	0	0
1974.218	n/a	WORD	987109	wordpools/wasnorm_wordpool_576.txt	LTP210	ltpFR2	19	12	LACE	792	n/a	n/a	0	0	0
1976.744	n/a	WORD	988372	wordpools/wasnorm_wordpool_576.txt	LTP210	ltpFR2	19	12	STREAM	1392	n/a	n/a	0	0	0
1979.27	n/a	WORD	989635	wordpools/wasnorm_wordpool_576.txt	LTP210	ltpFR2	19	12	PUDDLE	1140	n/a	n/a	0	0	0
1981.734	n/a	WORD	990867	wordpools/wasnorm_wordpool_576.txt	LTP210	ltpFR2	19	12	SISTER	1312	n/a	n/a	0	0	0
1984.494	n/a	WORD	992247	wordpools/wasnorm_wordpool_576.txt	LTP210	ltpFR2	19	12	SCISSORS	1250	n/a	n/a	0	0	0
1987.188	n/a	WORD	993594	wordpools/wasnorm_wordpool_576.txt	LTP210	ltpFR2	19	12	LOVER	846	n/a	n/a	0	0	0
1988.796	n/a	START	994398	n/a	LTP210	ltpFR2	19	n/a	n/a	n/a	16	n/a	n/a	n/a	n/a
1989.736	n/a	DISTRACTOR	994868	n/a	LTP210	ltpFR2	19	12	n/a	n/a	n/a	n/a	0	0	0
1989.75	n/a	PROB	994875	n/a	LTP210	ltpFR2	19	n/a	n/a	n/a	16	18	8	6	4
1992.304	n/a	PROB	996152	n/a	LTP210	ltpFR2	19	n/a	n/a	n/a	16	16	7	1	8
1994.412	n/a	PROB	997206	n/a	LTP210	ltpFR2	19	n/a	n/a	n/a	16	19	5	7	7
1996.336	n/a	PROB	998168	n/a	LTP210	ltpFR2	19	n/a	n/a	n/a	16	18	8	8	2
1997.658	n/a	PROB	998829	n/a	LTP210	ltpFR2	19	n/a	n/a	n/a	16	13	1	3	9
1998.93	n/a	PROB	999465	n/a	LTP210	ltpFR2	19	n/a	n/a	n/a	16	12	6	2	4
2000.338	n/a	PROB	1000169	n/a	LTP210	ltpFR2	19	n/a	n/a	n/a	16	14	5	7	2
2002.074	n/a	PROB	1001037	n/a	LTP210	ltpFR2	19	n/a	n/a	n/a	16	20	8	6	6
2004.668	n/a	PROB	1002334	n/a	LTP210	ltpFR2	19	n/a	n/a	n/a	16	23	7	9	7
2006.306	n/a	PROB	1003153	n/a	LTP210	ltpFR2	19	n/a	n/a	n/a	16	18	2	9	7
2009.268	n/a	PROB	1004634	n/a	LTP210	ltpFR2	19	n/a	n/a	n/a	16	16	4	8	4
2010.658	n/a	PROB	1005329	n/a	LTP210	ltpFR2	19	n/a	n/a	n/a	16	17	2	7	8
2012.606	n/a	STOP	1006303	n/a	LTP210	ltpFR2	19	n/a	n/a	n/a	16	n/a	n/a	n/a	n/a
2014.662	n/a	REC_START	1007331	n/a	LTP210	ltpFR2	19	12	n/a	n/a	n/a	n/a	0	0	0
2027.254	n/a	REC_WORD	1013627	wordpools/wasnorm_wordpool_576.txt	LTP210	ltpFR2	19	12	RIDDLE	-1	n/a	n/a	0	0	0
2048.484	n/a	REC_WORD	1024242	wordpools/wasnorm_wordpool_576.txt	LTP210	ltpFR2	19	12	MESSAGE	888	n/a	n/a	0	0	0
2050.658	n/a	REC_WORD	1025329	wordpools/wasnorm_wordpool_576.txt	LTP210	ltpFR2	19	12	POSTAGE	1113	n/a	n/a	0	0	0
2105.676	n/a	DISTRACTOR	1052838	n/a	LTP210	ltpFR2	19	13	n/a	n/a	n/a	n/a	0	0	0
2105.676	n/a	START	1052838	n/a	LTP210	ltpFR2	19	n/a	n/a	n/a	17	n/a	n/a	n/a	n/a
2105.726	n/a	PROB	1052863	n/a	LTP210	ltpFR2	19	n/a	n/a	n/a	17	19	4	7	8
2107.628	n/a	PROB	1053814	n/a	LTP210	ltpFR2	19	n/a	n/a	n/a	17	10	1	2	7
2108.8	n/a	PROB	1054400	n/a	LTP210	ltpFR2	19	n/a	n/a	n/a	17	8	3	1	4
2110.192	n/a	PROB	1055096	n/a	LTP210	ltpFR2	19	n/a	n/a	n/a	17	16	7	4	5
2111.844	n/a	PROB	1055922	n/a	LTP210	ltpFR2	19	n/a	n/a	n/a	17	12	2	7	3
2113.182	n/a	PROB	1056591	n/a	LTP210	ltpFR2	19	n/a	n/a	n/a	17	17	8	4	5
2115.162	n/a	PROB	1057581	n/a	LTP210	ltpFR2	19	n/a	n/a	n/a	17	8	5	2	1
2116.478	n/a	PROB	1058239	n/a	LTP210	ltpFR2	19	n/a	n/a	n/a	17	14	2	3	9
2118.318	n/a	PROB	1059159	n/a	LTP210	ltpFR2	19	n/a	n/a	n/a	17	12	5	2	5
2119.562	n/a	PROB	1059781	n/a	LTP210	ltpFR2	19	n/a	n/a	n/a	17	9	1	6	2
2120.896	n/a	PROB	1060448	n/a	LTP210	ltpFR2	19	n/a	n/a	n/a	17	21	5	7	9
2122.606	n/a	PROB	1061303	n/a	LTP210	ltpFR2	19	n/a	n/a	n/a	17	20	5	8	7
2125.216	n/a	PROB	1062608	n/a	LTP210	ltpFR2	19	n/a	n/a	n/a	17	20	9	2	9
2126.856	n/a	PROB	1063428	n/a	LTP210	ltpFR2	19	n/a	n/a	n/a	17	16	7	6	3
2129.444	n/a	STOP	1064722	n/a	LTP210	ltpFR2	19	n/a	n/a	n/a	17	n/a	n/a	n/a	n/a
2130.9	n/a	WORD	1065450	wordpools/wasnorm_wordpool_576.txt	LTP210	ltpFR2	19	13	HORSE	719	n/a	n/a	0	0	0
2133.526	n/a	WORD	1066763	wordpools/wasnorm_wordpool_576.txt	LTP210	ltpFR2	19	13	WAGON	1578	n/a	n/a	0	0	0
2136.158	n/a	WORD	1068079	wordpools/wasnorm_wordpool_576.txt	LTP210	ltpFR2	19	13	NOVEL	960	n/a	n/a	0	0	0
2138.584	n/a	WORD	1069292	wordpools/wasnorm_wordpool_576.txt	LTP210	ltpFR2	19	13	MARINE	869	n/a	n/a	0	0	0
2141.044	n/a	WORD	1070522	wordpools/wasnorm_wordpool_576.txt	LTP210	ltpFR2	19	13	WORKER	1621	n/a	n/a	0	0	0
2143.754	n/a	WORD	1071877	wordpools/wasnorm_wordpool_576.txt	LTP210	ltpFR2	19	13	CIGAR	308	n/a	n/a	0	0	0
2146.396	n/a	WORD	1073198	wordpools/wasnorm_wordpool_576.txt	LTP210	ltpFR2	19	13	ONION	977	n/a	n/a	0	0	0
2148.874	n/a	WORD	1074437	wordpools/wasnorm_wordpool_576.txt	LTP210	ltpFR2	19	13	SALT	1229	n/a	n/a	0	0	0
2151.5	n/a	WORD	1075750	wordpools/wasnorm_wordpool_576.txt	LTP210	ltpFR2	19	13	SCOTCH	1251	n/a	n/a	0	0	0
2154.144	n/a	WORD	1077072	wordpools/wasnorm_wordpool_576.txt	LTP210	ltpFR2	19	13	BATHTUB	100	n/a	n/a	0	0	0
2156.57	n/a	WORD	1078285	wordpools/wasnorm_wordpool_576.txt	LTP210	ltpFR2	19	13	PADDLE	1000	n/a	n/a	0	0	0
2159.198	n/a	WORD	1079599	wordpools/wasnorm_wordpool_576.txt	LTP210	ltpFR2	19	13	YACHT	1629	n/a	n/a	0	0	0
2161.94	n/a	WORD	1080970	wordpools/wasnorm_wordpool_576.txt	LTP210	ltpFR2	19	13	ACTRESS	6	n/a	n/a	0	0	0
2164.668	n/a	WORD	1082334	wordpools/wasnorm_wordpool_576.txt	LTP210	ltpFR2	19	13	LODGE	839	n/a	n/a	0	0	0
2167.444	n/a	WORD	1083722	wordpools/wasnorm_wordpool_576.txt	LTP210	ltpFR2	19	13	HEART	697	n/a	n/a	0	0	0
2170.222	n/a	WORD	1085111	wordpools/wasnorm_wordpool_576.txt	LTP210	ltpFR2	19	13	LAGOON	795	n/a	n/a	0	0	0
2172.978	n/a	WORD	1086489	wordpools/wasnorm_wordpool_576.txt	LTP210	ltpFR2	19	13	HAND	683	n/a	n/a	0	0	0
2175.688	n/a	WORD	1087844	wordpools/wasnorm_wordpool_576.txt	LTP210	ltpFR2	19	13	PAPER	1011	n/a	n/a	0	0	0
2178.152	n/a	WORD	1089076	wordpools/wasnorm_wordpool_576.txt	LTP210	ltpFR2	19	13	CATTLE	261	n/a	n/a	0	0	0
2180.796	n/a	WORD	1090398	wordpools/wasnorm_wordpool_576.txt	LTP210	ltpFR2	19	13	ACTOR	5	n/a	n/a	0	0	0
2183.404	n/a	WORD	1091702	wordpools/wasnorm_wordpool_576.txt	LTP210	ltpFR2	19	13	WRIST	1626	n/a	n/a	0	0	0
2185.882	n/a	WORD	1092941	wordpools/wasnorm_wordpool_576.txt	LTP210	ltpFR2	19	13	DRESS	495	n/a	n/a	0	0	0
2188.66	n/a	WORD	1094330	wordpools/wasnorm_wordpool_576.txt	LTP210	ltpFR2	19	13	PLAID	1080	n/a	n/a	0	0	0
2191.264	n/a	WORD	1095632	wordpools/wasnorm_wordpool_576.txt	LTP210	ltpFR2	19	13	ICEBERG	731	n/a	n/a	0	0	0
2192.876	n/a	START	1096438	n/a	LTP210	ltpFR2	19	n/a	n/a	n/a	18	n/a	n/a	n/a	n/a
2194.046	n/a	DISTRACTOR	1097023	n/a	LTP210	ltpFR2	19	13	n/a	n/a	n/a	n/a	0	0	0
2194.06	n/a	PROB	1097030	n/a	LTP210	ltpFR2	19	n/a	n/a	n/a	18	18	9	5	3
2197.17	n/a	PROB	1098585	n/a	LTP210	ltpFR2	19	n/a	n/a	n/a	18	9	1	4	4
2200.166	n/a	PROB	1100083	n/a	LTP210	ltpFR2	19	n/a	n/a	n/a	18	15	1	7	7
2201.642	n/a	PROB	1100821	n/a	LTP210	ltpFR2	19	n/a	n/a	n/a	18	19	8	7	4
2203.514	n/a	PROB	1101757	n/a	LTP210	ltpFR2	19	n/a	n/a	n/a	18	20	4	9	7
2205.418	n/a	PROB	1102709	n/a	LTP210	ltpFR2	19	n/a	n/a	n/a	18	16	7	5	4
2209.702	n/a	PROB	1104851	n/a	LTP210	ltpFR2	19	n/a	n/a	n/a	18	14	6	4	4
2211.174	n/a	PROB	1105587	n/a	LTP210	ltpFR2	19	n/a	n/a	n/a	18	6	1	4	1
2212.294	n/a	PROB	1106147	n/a	LTP210	ltpFR2	19	n/a	n/a	n/a	18	21	9	4	8
2214.654	n/a	PROB	1107327	n/a	LTP210	ltpFR2	19	n/a	n/a	n/a	18	11	1	3	7
2215.682	n/a	STOP	1107841	n/a	LTP210	ltpFR2	19	n/a	n/a	n/a	18	n/a	n/a	n/a	n/a
2218.838	n/a	REC_START	1109419	n/a	LTP210	ltpFR2	19	13	n/a	n/a	n/a	n/a	0	0	0
2219.89	n/a	REC_WORD	1109945	wordpools/wasnorm_wordpool_576.txt	LTP210	ltpFR2	19	13	WRIST	1626	n/a	n/a	0	0	0
2221.85	n/a	REC_WORD	1110925	wordpools/wasnorm_wordpool_576.txt	LTP210	ltpFR2	19	13	SALT	1229	n/a	n/a	0	0	0
2223.534	n/a	REC_WORD	1111767	wordpools/wasnorm_wordpool_576.txt	LTP210	ltpFR2	19	13	ONION	977	n/a	n/a	0	0	0
2309.89	n/a	DISTRACTOR	1154945	n/a	LTP210	ltpFR2	19	14	n/a	n/a	n/a	n/a	0	0	0
2309.89	n/a	START	1154945	n/a	LTP210	ltpFR2	19	n/a	n/a	n/a	19	n/a	n/a	n/a	n/a
2309.94	n/a	PROB	1154970	n/a	LTP210	ltpFR2	19	n/a	n/a	n/a	19	19	4	8	7
2311.876	n/a	PROB	1155938	n/a	LTP210	ltpFR2	19	n/a	n/a	n/a	19	15	6	1	8
2313.816	n/a	PROB	1156908	n/a	LTP210	ltpFR2	19	n/a	n/a	n/a	19	21	6	8	7
2315.556	n/a	PROB	1157778	n/a	LTP210	ltpFR2	19	n/a	n/a	n/a	19	12	3	7	2
2316.794	n/a	PROB	1158397	n/a	LTP210	ltpFR2	19	n/a	n/a	n/a	19	23	8	8	7
2319.554	n/a	PROB	1159777	n/a	LTP210	ltpFR2	19	n/a	n/a	n/a	19	21	4	9	8
2321.578	n/a	PROB	1160789	n/a	LTP210	ltpFR2	19	n/a	n/a	n/a	19	10	1	1	8
2322.784	n/a	PROB	1161392	n/a	LTP210	ltpFR2	19	n/a	n/a	n/a	19	24	8	8	8
2324.06	n/a	PROB	1162030	n/a	LTP210	ltpFR2	19	n/a	n/a	n/a	19	20	7	5	8
2326.218	n/a	PROB	1163109	n/a	LTP210	ltpFR2	19	n/a	n/a	n/a	19	11	2	6	3
2329.812	n/a	PROB	1164906	n/a	LTP210	ltpFR2	19	n/a	n/a	n/a	19	18	5	6	7
2332.22	n/a	PROB	1166110	n/a	LTP210	ltpFR2	19	n/a	n/a	n/a	19	11	7	2	2
2333.248	n/a	STOP	1166624	n/a	LTP210	ltpFR2	19	n/a	n/a	n/a	19	n/a	n/a	n/a	n/a
2335.102	n/a	WORD	1167551	wordpools/wasnorm_wordpool_576.txt	LTP210	ltpFR2	19	14	MILDEW	893	n/a	n/a	0	0	0
2337.628	n/a	WORD	1168814	wordpools/wasnorm_wordpool_576.txt	LTP210	ltpFR2	19	14	GIRL	637	n/a	n/a	0	0	0
2340.32	n/a	WORD	1170160	wordpools/wasnorm_wordpool_576.txt	LTP210	ltpFR2	19	14	TURTLE	1522	n/a	n/a	0	0	0
2342.85	n/a	WORD	1171425	wordpools/wasnorm_wordpool_576.txt	LTP210	ltpFR2	19	14	CLAM	315	n/a	n/a	0	0	0
2345.542	n/a	WORD	1172771	wordpools/wasnorm_wordpool_576.txt	LTP210	ltpFR2	19	14	GIFT	635	n/a	n/a	0	0	0
2348.268	n/a	WORD	1174134	wordpools/wasnorm_wordpool_576.txt	LTP210	ltpFR2	19	14	NAPKIN	937	n/a	n/a	0	0	0
2350.88	n/a	WORD	1175440	wordpools/wasnorm_wordpool_576.txt	LTP210	ltpFR2	19	14	SADDLE	1221	n/a	n/a	0	0	0
2353.618	n/a	WORD	1176809	wordpools/wasnorm_wordpool_576.txt	LTP210	ltpFR2	19	14	SNAKE	1333	n/a	n/a	0	0	0
2356.1	n/a	WORD	1178050	wordpools/wasnorm_wordpool_576.txt	LTP210	ltpFR2	19	14	VIKING	1565	n/a	n/a	0	0	0
2358.776	n/a	WORD	1179388	wordpools/wasnorm_wordpool_576.txt	LTP210	ltpFR2	19	14	REBEL	1172	n/a	n/a	0	0	0
2361.52	n/a	WORD	1180760	wordpools/wasnorm_wordpool_576.txt	LTP210	ltpFR2	19	14	FLAG	573	n/a	n/a	0	0	0
2364.248	n/a	WORD	1182124	wordpools/wasnorm_wordpool_576.txt	LTP210	ltpFR2	19	14	NECKLACE	940	n/a	n/a	0	0	0
2366.724	n/a	WORD	1183362	wordpools/wasnorm_wordpool_576.txt	LTP210	ltpFR2	19	14	JURY	766	n/a	n/a	0	0	0
2369.516	n/a	WORD	1184758	wordpools/wasnorm_wordpool_576.txt	LTP210	ltpFR2	19	14	BOX	159	n/a	n/a	0	0	0
2371.944	n/a	WORD	1185972	wordpools/wasnorm_wordpool_576.txt	LTP210	ltpFR2	19	14	CHAPEL	280	n/a	n/a	0	0	0
2374.486	n/a	WORD	1187243	wordpools/wasnorm_wordpool_576.txt	LTP210	ltpFR2	19	14	CHURCH	307	n/a	n/a	0	0	0
2377.062	n/a	WORD	1188531	wordpools/wasnorm_wordpool_576.txt	LTP210	ltpFR2	19	14	ZEBRA	1635	n/a	n/a	0	0	0
2379.588	n/a	WORD	1189794	wordpools/wasnorm_wordpool_576.txt	LTP210	ltpFR2	19	14	MOP	916	n/a	n/a	0	0	0
2382.31	n/a	WORD	1191155	wordpools/wasnorm_wordpool_576.txt	LTP210	ltpFR2	19	14	FINGER	567	n/a	n/a	0	0	0
2384.944	n/a	WORD	1192472	wordpools/wasnorm_wordpool_576.txt	LTP210	ltpFR2	19	14	UNCLE	1536	n/a	n/a	0	0	0
2387.452	n/a	WORD	1193726	wordpools/wasnorm_wordpool_576.txt	LTP210	ltpFR2	19	14	ROD	1203	n/a	n/a	0	0	0
2390.046	n/a	WORD	1195023	wordpools/wasnorm_wordpool_576.txt	LTP210	ltpFR2	19	14	PLAYGROUND	1087	n/a	n/a	0	0	0
2392.516	n/a	WORD	1196258	wordpools/wasnorm_wordpool_576.txt	LTP210	ltpFR2	19	14	DUSTPAN	509	n/a	n/a	0	0	0
2395.178	n/a	WORD	1197589	wordpools/wasnorm_wordpool_576.txt	LTP210	ltpFR2	19	14	SUNRISE	1407	n/a	n/a	0	0	0
2396.788	n/a	START	1198394	n/a	LTP210	ltpFR2	19	n/a	n/a	n/a	20	n/a	n/a	n/a	n/a
2397.666	n/a	DISTRACTOR	1198833	n/a	LTP210	ltpFR2	19	14	n/a	n/a	n/a	n/a	0	0	0
2397.676	n/a	PROB	1198838	n/a	LTP210	ltpFR2	19	n/a	n/a	n/a	20	22	9	7	6
2402.37	n/a	PROB	1201185	n/a	LTP210	ltpFR2	19	n/a	n/a	n/a	20	18	7	7	4
2403.798	n/a	PROB	1201899	n/a	LTP210	ltpFR2	19	n/a	n/a	n/a	20	9	4	2	3
2406.57	n/a	PROB	1203285	n/a	LTP210	ltpFR2	19	n/a	n/a	n/a	20	20	2	9	9
2408.178	n/a	PROB	1204089	n/a	LTP210	ltpFR2	19	n/a	n/a	n/a	20	25	9	7	9
2410.018	n/a	PROB	1205009	n/a	LTP210	ltpFR2	19	n/a	n/a	n/a	20	12	1	3	8
2411.694	n/a	PROB	1205847	n/a	LTP210	ltpFR2	19	n/a	n/a	n/a	20	10	1	5	4
2412.928	n/a	PROB	1206464	n/a	LTP210	ltpFR2	19	n/a	n/a	n/a	20	13	5	7	1
2414.718	n/a	PROB	1207359	n/a	LTP210	ltpFR2	19	n/a	n/a	n/a	20	13	5	6	2
2416.898	n/a	PROB	1208449	n/a	LTP210	ltpFR2	19	n/a	n/a	n/a	20	17	9	7	1
2418.416	n/a	PROB	1209208	n/a	LTP210	ltpFR2	19	n/a	n/a	n/a	20	16	5	4	7
2419.998	n/a	STOP	1209999	n/a	LTP210	ltpFR2	19	n/a	n/a	n/a	20	n/a	n/a	n/a	n/a
2422.75	n/a	REC_START	1211375	n/a	LTP210	ltpFR2	19	14	n/a	n/a	n/a	n/a	0	0	0
2497.75	n/a	REC_WORD_VV	1248875	wordpools/wasnorm_wordpool_576.txt	LTP210	ltpFR2	19	14	<>	-1	n/a	n/a	0	0	0
2513.768	n/a	DISTRACTOR	1256884	n/a	LTP210	ltpFR2	19	15	n/a	n/a	n/a	n/a	0	0	0
2513.77	n/a	START	1256885	n/a	LTP210	ltpFR2	19	n/a	n/a	n/a	21	n/a	n/a	n/a	n/a
2513.82	n/a	PROB	1256910	n/a	LTP210	ltpFR2	19	n/a	n/a	n/a	21	14	8	3	3
2515.71	n/a	PROB	1257855	n/a	LTP210	ltpFR2	19	n/a	n/a	n/a	21	14	1	6	7
2517.194	n/a	PROB	1258597	n/a	LTP210	ltpFR2	19	n/a	n/a	n/a	21	16	5	4	7
2520.122	n/a	PROB	1260061	n/a	LTP210	ltpFR2	19	n/a	n/a	n/a	21	12	3	7	2
2521.358	n/a	PROB	1260679	n/a	LTP210	ltpFR2	19	n/a	n/a	n/a	21	14	2	4	8
2523.2	n/a	PROB	1261600	n/a	LTP210	ltpFR2	19	n/a	n/a	n/a	21	15	7	2	6
2525.174	n/a	PROB	1262587	n/a	LTP210	ltpFR2	19	n/a	n/a	n/a	21	13	1	4	8
2527.332	n/a	PROB	1263666	n/a	LTP210	ltpFR2	19	n/a	n/a	n/a	21	15	5	8	2
2528.772	n/a	PROB	1264386	n/a	LTP210	ltpFR2	19	n/a	n/a	n/a	21	7	1	3	3
2530.082	n/a	PROB	1265041	n/a	LTP210	ltpFR2	19	n/a	n/a	n/a	21	4	2	1	1
2531.822	n/a	PROB	1265911	n/a	LTP210	ltpFR2	19	n/a	n/a	n/a	21	13	7	5	1
2534.928	n/a	PROB	1267464	n/a	LTP210	ltpFR2	19	n/a	n/a	n/a	21	12	3	3	6
2536.496	n/a	STOP	1268248	n/a	LTP210	ltpFR2	19	n/a	n/a	n/a	21	n/a	n/a	n/a	n/a
2538.876	n/a	WORD	1269438	wordpools/wasnorm_wordpool_576.txt	LTP210	ltpFR2	19	15	FOOT	590	n/a	n/a	0	0	0
2541.352	n/a	WORD	1270676	wordpools/wasnorm_wordpool_576.txt	LTP210	ltpFR2	19	15	ARMY	39	n/a	n/a	0	0	0
2544.034	n/a	WORD	1272017	wordpools/wasnorm_wordpool_576.txt	LTP210	ltpFR2	19	15	OZONE	996	n/a	n/a	0	0	0
2546.758	n/a	WORD	1273379	wordpools/wasnorm_wordpool_576.txt	LTP210	ltpFR2	19	15	LOFT	840	n/a	n/a	0	0	0
2549.438	n/a	WORD	1274719	wordpools/wasnorm_wordpool_576.txt	LTP210	ltpFR2	19	15	MATCH	878	n/a	n/a	0	0	0
2552.082	n/a	WORD	1276041	wordpools/wasnorm_wordpool_576.txt	LTP210	ltpFR2	19	15	PERFUME	1049	n/a	n/a	0	0	0
2554.888	n/a	WORD	1277444	wordpools/wasnorm_wordpool_576.txt	LTP210	ltpFR2	19	15	FRAGRANCE	599	n/a	n/a	0	0	0
2557.63	n/a	WORD	1278815	wordpools/wasnorm_wordpool_576.txt	LTP210	ltpFR2	19	15	TRENCH	1503	n/a	n/a	0	0	0
2560.13	n/a	WORD	1280065	wordpools/wasnorm_wordpool_576.txt	LTP210	ltpFR2	19	15	BANK	83	n/a	n/a	0	0	0
2562.638	n/a	WORD	1281319	wordpools/wasnorm_wordpool_576.txt	LTP210	ltpFR2	19	15	PRINCE	1124	n/a	n/a	0	0	0
2565.06	n/a	WORD	1282530	wordpools/wasnorm_wordpool_576.txt	LTP210	ltpFR2	19	15	ITEM	746	n/a	n/a	0	0	0
2567.72	n/a	WORD	1283860	wordpools/wasnorm_wordpool_576.txt	LTP210	ltpFR2	19	15	PEBBLE	1035	n/a	n/a	0	0	0
2570.184	n/a	WORD	1285092	wordpools/wasnorm_wordpool_576.txt	LTP210	ltpFR2	19	15	STONE	1385	n/a	n/a	0	0	0
2572.878	n/a	WORD	1286439	wordpools/wasnorm_wordpool_576.txt	LTP210	ltpFR2	19	15	KIDNEY	776	n/a	n/a	0	0	0
2575.386	n/a	WORD	1287693	wordpools/wasnorm_wordpool_576.txt	LTP210	ltpFR2	19	15	SOFTBALL	1343	n/a	n/a	0	0	0
2578.114	n/a	WORD	1289057	wordpools/wasnorm_wordpool_576.txt	LTP210	ltpFR2	19	15	DRAGON	492	n/a	n/a	0	0	0
2580.804	n/a	WORD	1290402	wordpools/wasnorm_wordpool_576.txt	LTP210	ltpFR2	19	15	TORTOISE	1486	n/a	n/a	0	0	0
2583.484	n/a	WORD	1291742	wordpools/wasnorm_wordpool_576.txt	LTP210	ltpFR2	19	15	GLOVE	642	n/a	n/a	0	0	0
2585.99	n/a	WORD	1292995	wordpools/wasnorm_wordpool_576.txt	LTP210	ltpFR2	19	15	SNAIL	1332	n/a	n/a	0	0	0
2588.654	n/a	WORD	1294327	wordpools/wasnorm_wordpool_576.txt	LTP210	ltpFR2	19	15	GYMNAST	675	n/a	n/a	0	0	0
2591.364	n/a	WORD	1295682	wordpools/wasnorm_wordpool_576.txt	LTP210	ltpFR2	19	15	MEDAL	885	n/a	n/a	0	0	0
2594.058	n/a	WORD	1297029	wordpools/wasnorm_wordpool_576.txt	LTP210	ltpFR2	19	15	NIGHTGOWN	953	n/a	n/a	0	0	0
2596.748	n/a	WORD	1298374	wordpools/wasnorm_wordpool_576.txt	LTP210	ltpFR2	19	15	BANKER	84	n/a	n/a	0	0	0
2599.328	n/a	WORD	1299664	wordpools/wasnorm_wordpool_576.txt	LTP210	ltpFR2	19	15	SWITCH	1422	n/a	n/a	0	0	0
2600.936	n/a	START	1300468	n/a	LTP210	ltpFR2	19	n/a	n/a	n/a	22	n/a	n/a	n/a	n/a
2602.116	n/a	DISTRACTOR	1301058	n/a	LTP210	ltpFR2	19	15	n/a	n/a	n/a	n/a	0	0	0
2602.124	n/a	PROB	1301062	n/a	LTP210	ltpFR2	19	n/a	n/a	n/a	22	14	3	8	3
2604.46	n/a	PROB	1302230	n/a	LTP210	ltpFR2	19	n/a	n/a	n/a	22	19	9	9	1
2606.084	n/a	PROB	1303042	n/a	LTP210	ltpFR2	19	n/a	n/a	n/a	22	19	7	9	3
2607.94	n/a	PROB	1303970	n/a	LTP210	ltpFR2	19	n/a	n/a	n/a	22	15	8	6	1
2610.116	n/a	PROB	1305058	n/a	LTP210	ltpFR2	19	n/a	n/a	n/a	22	24	7	8	9
2612.162	n/a	PROB	1306081	n/a	LTP210	ltpFR2	19	n/a	n/a	n/a	22	21	6	7	8
2613.98	n/a	PROB	1306990	n/a	LTP210	ltpFR2	19	n/a	n/a	n/a	22	9	1	1	7
2615.172	n/a	PROB	1307586	n/a	LTP210	ltpFR2	19	n/a	n/a	n/a	22	19	4	9	6
2617.314	n/a	PROB	1308657	n/a	LTP210	ltpFR2	19	n/a	n/a	n/a	22	20	5	7	9
2624.936	n/a	STOP	1312468	n/a	LTP210	ltpFR2	19	n/a	n/a	n/a	22	n/a	n/a	n/a	n/a
2626.864	n/a	REC_START	1313432	n/a	LTP210	ltpFR2	19	15	n/a	n/a	n/a	n/a	0	0	0
2627.85	n/a	REC_WORD	1313925	wordpools/wasnorm_wordpool_576.txt	LTP210	ltpFR2	19	15	FRAGRANCE	599	n/a	n/a	0	0	0
2629.444	n/a	REC_WORD	1314722	wordpools/wasnorm_wordpool_576.txt	LTP210	ltpFR2	19	15	PERFUME	1049	n/a	n/a	0	0	0
2631.112	n/a	REC_WORD	1315556	wordpools/wasnorm_wordpool_576.txt	LTP210	ltpFR2	19	15	LOFT	840	n/a	n/a	0	0	0
2632.808	n/a	REC_WORD	1316404	wordpools/wasnorm_wordpool_576.txt	LTP210	ltpFR2	19	15	GYMNAST	675	n/a	n/a	0	0	0
2634.434	n/a	REC_WORD	1317217	wordpools/wasnorm_wordpool_576.txt	LTP210	ltpFR2	19	15	MEDAL	885	n/a	n/a	0	0	0
2717.916	n/a	DISTRACTOR	1358958	n/a	LTP210	ltpFR2	19	16	n/a	n/a	n/a	n/a	0	0	0
2717.916	n/a	START	1358958	n/a	LTP210	ltpFR2	19	n/a	n/a	n/a	23	n/a	n/a	n/a	n/a
2717.966	n/a	PROB	1358983	n/a	LTP210	ltpFR2	19	n/a	n/a	n/a	23	13	1	4	8
2720.27	n/a	PROB	1360135	n/a	LTP210	ltpFR2	19	n/a	n/a	n/a	23	11	1	8	2
2721.608	n/a	PROB	1360804	n/a	LTP210	ltpFR2	19	n/a	n/a	n/a	23	15	4	7	4
2723.482	n/a	PROB	1361741	n/a	LTP210	ltpFR2	19	n/a	n/a	n/a	23	12	3	8	1
2725.138	n/a	PROB	1362569	n/a	LTP210	ltpFR2	19	n/a	n/a	n/a	23	16	9	3	4
2726.778	n/a	PROB	1363389	n/a	LTP210	ltpFR2	19	n/a	n/a	n/a	23	11	4	6	1
2727.966	n/a	PROB	1363983	n/a	LTP210	ltpFR2	19	n/a	n/a	n/a	23	14	8	3	3
2729.874	n/a	PROB	1364937	n/a	LTP210	ltpFR2	19	n/a	n/a	n/a	23	24	9	9	6
2731.986	n/a	PROB	1365993	n/a	LTP210	ltpFR2	19	n/a	n/a	n/a	23	10	7	1	2
2733.236	n/a	PROB	1366618	n/a	LTP210	ltpFR2	19	n/a	n/a	n/a	23	14	3	2	9
2735.16	n/a	PROB	1367580	n/a	LTP210	ltpFR2	19	n/a	n/a	n/a	23	18	5	8	5
2736.536	n/a	PROB	1368268	n/a	LTP210	ltpFR2	19	n/a	n/a	n/a	23	7	2	4	1
2737.624	n/a	PROB	1368812	n/a	LTP210	ltpFR2	19	n/a	n/a	n/a	23	18	5	5	8
2738.774	n/a	PROB	1369387	n/a	LTP210	ltpFR2	19	n/a	n/a	n/a	23	3	1	1	1
2739.846	n/a	PROB	1369923	n/a	LTP210	ltpFR2	19	n/a	n/a	n/a	23	18	9	1	8
2740.942	n/a	STOP	1370471	n/a	LTP210	ltpFR2	19	n/a	n/a	n/a	23	n/a	n/a	n/a	n/a
2742.86	n/a	WORD	1371430	wordpools/wasnorm_wordpool_576.txt	LTP210	ltpFR2	19	16	WHISTLE	1606	n/a	n/a	0	0	0
2745.57	n/a	WORD	1372785	wordpools/wasnorm_wordpool_576.txt	LTP210	ltpFR2	19	16	CAPTIVE	240	n/a	n/a	0	0	0
2748.042	n/a	WORD	1374021	wordpools/wasnorm_wordpool_576.txt	LTP210	ltpFR2	19	16	SUPPER	1411	n/a	n/a	0	0	0
2750.858	n/a	WORD	1375429	wordpools/wasnorm_wordpool_576.txt	LTP210	ltpFR2	19	16	PRIMATE	1123	n/a	n/a	0	0	0
2753.534	n/a	WORD	1376767	wordpools/wasnorm_wordpool_576.txt	LTP210	ltpFR2	19	16	WIDOW	1608	n/a	n/a	0	0	0
2756.012	n/a	WORD	1378006	wordpools/wasnorm_wordpool_576.txt	LTP210	ltpFR2	19	16	GRAVE	658	n/a	n/a	0	0	0
2758.482	n/a	WORD	1379241	wordpools/wasnorm_wordpool_576.txt	LTP210	ltpFR2	19	16	THRONE	1461	n/a	n/a	0	0	0
2761.214	n/a	WORD	1380607	wordpools/wasnorm_wordpool_576.txt	LTP210	ltpFR2	19	16	PICTURE	1061	n/a	n/a	0	0	0
2763.79	n/a	WORD	1381895	wordpools/wasnorm_wordpool_576.txt	LTP210	ltpFR2	19	16	STUDENT	1395	n/a	n/a	0	0	0
2766.568	n/a	WORD	1383284	wordpools/wasnorm_wordpool_576.txt	LTP210	ltpFR2	19	16	ORCHID	982	n/a	n/a	0	0	0
2769.374	n/a	WORD	1384687	wordpools/wasnorm_wordpool_576.txt	LTP210	ltpFR2	19	16	LUGGAGE	847	n/a	n/a	0	0	0
2771.838	n/a	WORD	1385919	wordpools/wasnorm_wordpool_576.txt	LTP210	ltpFR2	19	16	LILY	821	n/a	n/a	0	0	0
2774.514	n/a	WORD	1387257	wordpools/wasnorm_wordpool_576.txt	LTP210	ltpFR2	19	16	MOTEL	919	n/a	n/a	0	0	0
2777.21	n/a	WORD	1388605	wordpools/wasnorm_wordpool_576.txt	LTP210	ltpFR2	19	16	FLOWER	584	n/a	n/a	0	0	0
2779.902	n/a	WORD	1389951	wordpools/wasnorm_wordpool_576.txt	LTP210	ltpFR2	19	16	RIFLE	1192	n/a	n/a	0	0	0
2782.596	n/a	WORD	1391298	wordpools/wasnorm_wordpool_576.txt	LTP210	ltpFR2	19	16	PISTOL	1075	n/a	n/a	0	0	0
2785.256	n/a	WORD	1392628	wordpools/wasnorm_wordpool_576.txt	LTP210	ltpFR2	19	16	ROCKET	1202	n/a	n/a	0	0	0
2787.784	n/a	WORD	1393892	wordpools/wasnorm_wordpool_576.txt	LTP210	ltpFR2	19	16	LEG	809	n/a	n/a	0	0	0
2790.56	n/a	WORD	1395280	wordpools/wasnorm_wordpool_576.txt	LTP210	ltpFR2	19	16	COCOON	339	n/a	n/a	0	0	0
2793.298	n/a	WORD	1396649	wordpools/wasnorm_wordpool_576.txt	LTP210	ltpFR2	19	16	WAITRESS	1581	n/a	n/a	0	0	0
2795.892	n/a	WORD	1397946	wordpools/wasnorm_wordpool_576.txt	LTP210	ltpFR2	19	16	FLASK	576	n/a	n/a	0	0	0
2798.522	n/a	WORD	1399261	wordpools/wasnorm_wordpool_576.txt	LTP210	ltpFR2	19	16	PAIL	1002	n/a	n/a	0	0	0
2801.05	n/a	WORD	1400525	wordpools/wasnorm_wordpool_576.txt	LTP210	ltpFR2	19	16	FRAME	600	n/a	n/a	0	0	0
2803.626	n/a	WORD	1401813	wordpools/wasnorm_wordpool_576.txt	LTP210	ltpFR2	19	16	HAWK	692	n/a	n/a	0	0	0
2805.232	n/a	START	1402616	n/a	LTP210	ltpFR2	19	n/a	n/a	n/a	24	n/a	n/a	n/a	n/a
2806.048	n/a	DISTRACTOR	1403024	n/a	LTP210	ltpFR2	19	16	n/a	n/a	n/a	n/a	0	0	0
2806.066	n/a	PROB	1403033	n/a	LTP210	ltpFR2	19	n/a	n/a	n/a	24	21	8	4	9
2807.94	n/a	PROB	1403970	n/a	LTP210	ltpFR2	19	n/a	n/a	n/a	24	17	5	5	7
2810.164	n/a	PROB	1405082	n/a	LTP210	ltpFR2	19	n/a	n/a	n/a	24	11	5	5	1
2811.334	n/a	PROB	1405667	n/a	LTP210	ltpFR2	19	n/a	n/a	n/a	24	10	2	6	2
2812.824	n/a	PROB	1406412	n/a	LTP210	ltpFR2	19	n/a	n/a	n/a	24	13	4	6	3
2814.078	n/a	PROB	1407039	n/a	LTP210	ltpFR2	19	n/a	n/a	n/a	24	17	6	6	5
2815.756	n/a	PROB	1407878	n/a	LTP210	ltpFR2	19	n/a	n/a	n/a	24	22	8	8	6
2819.7	n/a	PROB	1409850	n/a	LTP210	ltpFR2	19	n/a	n/a	n/a	24	16	6	3	7
2821.758	n/a	PROB	1410879	n/a	LTP210	ltpFR2	19	n/a	n/a	n/a	24	22	9	9	4
2823.668	n/a	PROB	1411834	n/a	LTP210	ltpFR2	19	n/a	n/a	n/a	24	21	6	7	8
2825.342	n/a	PROB	1412671	n/a	LTP210	ltpFR2	19	n/a	n/a	n/a	24	17	7	8	2
2826.812	n/a	PROB	1413406	n/a	LTP210	ltpFR2	19	n/a	n/a	n/a	24	15	8	2	5
2828.1	n/a	STOP	1414050	n/a	LTP210	ltpFR2	19	n/a	n/a	n/a	24	n/a	n/a	n/a	n/a
2831.132	n/a	REC_START	1415566	n/a	LTP210	ltpFR2	19	16	n/a	n/a	n/a	n/a	0	0	0
2836.976	n/a	REC_WORD	1418488	wordpools/wasnorm_wordpool_576.txt	LTP210	ltpFR2	19	16	LILY	821	n/a	n/a	0	0	0
2838.658	n/a	REC_WORD	1419329	wordpools/wasnorm_wordpool_576.txt	LTP210	ltpFR2	19	16	ORCHID	982	n/a	n/a	0	0	0
2840.434	n/a	REC_WORD	1420217	wordpools/wasnorm_wordpool_576.txt	LTP210	ltpFR2	19	16	FLOWER	584	n/a	n/a	0	0	0
2907.926	n/a	REST_REWET	1453963	n/a	LTP210	ltpFR2	19	16	n/a	n/a	n/a	n/a	0	0	0
3210.396	n/a	DISTRACTOR	1605198	n/a	LTP210	ltpFR2	19	17	n/a	n/a	n/a	n/a	0	0	0
3210.398	n/a	START	1605199	n/a	LTP210	ltpFR2	19	n/a	n/a	n/a	25	n/a	n/a	n/a	n/a
3210.448	n/a	PROB	1605224	n/a	LTP210	ltpFR2	19	n/a	n/a	n/a	25	16	4	6	6
3211.716	n/a	PROB	1605858	n/a	LTP210	ltpFR2	19	n/a	n/a	n/a	25	11	1	9	1
3212.852	n/a	PROB	1606426	n/a	LTP210	ltpFR2	19	n/a	n/a	n/a	25	16	5	8	3
3215.112	n/a	PROB	1607556	n/a	LTP210	ltpFR2	19	n/a	n/a	n/a	25	17	3	8	6
3217.002	n/a	PROB	1608501	n/a	LTP210	ltpFR2	19	n/a	n/a	n/a	25	15	8	6	1
3218.658	n/a	PROB	1609329	n/a	LTP210	ltpFR2	19	n/a	n/a	n/a	25	9	2	3	4
3221.084	n/a	PROB	1610542	n/a	LTP210	ltpFR2	19	n/a	n/a	n/a	25	7	3	2	2
3223.026	n/a	PROB	1611513	n/a	LTP210	ltpFR2	19	n/a	n/a	n/a	25	14	9	4	1
3224.3	n/a	PROB	1612150	n/a	LTP210	ltpFR2	19	n/a	n/a	n/a	25	23	6	8	9
3226.688	n/a	PROB	1613344	n/a	LTP210	ltpFR2	19	n/a	n/a	n/a	25	12	2	7	3
3227.826	n/a	PROB	1613913	n/a	LTP210	ltpFR2	19	n/a	n/a	n/a	25	15	6	4	5
3229.07	n/a	PROB	1614535	n/a	LTP210	ltpFR2	19	n/a	n/a	n/a	25	18	4	9	5
3230.804	n/a	PROB	1615402	n/a	LTP210	ltpFR2	19	n/a	n/a	n/a	25	15	3	3	9
3234.4	n/a	STOP	1617200	n/a	LTP210	ltpFR2	19	n/a	n/a	n/a	25	n/a	n/a	n/a	n/a
3235.388	n/a	WORD	1617694	wordpools/wasnorm_wordpool_576.txt	LTP210	ltpFR2	19	17	COWBOY	395	n/a	n/a	0	0	0
3237.886	n/a	WORD	1618943	wordpools/wasnorm_wordpool_576.txt	LTP210	ltpFR2	19	17	INMATE	738	n/a	n/a	0	0	0
3240.408	n/a	WORD	1620204	wordpools/wasnorm_wordpool_576.txt	LTP210	ltpFR2	19	17	GRILL	661	n/a	n/a	0	0	0
3243.074	n/a	WORD	1621537	wordpools/wasnorm_wordpool_576.txt	LTP210	ltpFR2	19	17	CORAL	378	n/a	n/a	0	0	0
3245.7	n/a	WORD	1622850	wordpools/wasnorm_wordpool_576.txt	LTP210	ltpFR2	19	17	GROUND	666	n/a	n/a	0	0	0
3248.226	n/a	WORD	1624113	wordpools/wasnorm_wordpool_576.txt	LTP210	ltpFR2	19	17	MISTER	901	n/a	n/a	0	0	0
3250.718	n/a	WORD	1625359	wordpools/wasnorm_wordpool_576.txt	LTP210	ltpFR2	19	17	CREVICE	405	n/a	n/a	0	0	0
3253.23	n/a	WORD	1626615	wordpools/wasnorm_wordpool_576.txt	LTP210	ltpFR2	19	17	POWDER	1117	n/a	n/a	0	0	0
3255.972	n/a	WORD	1627986	wordpools/wasnorm_wordpool_576.txt	LTP210	ltpFR2	19	17	PEPPER	1047	n/a	n/a	0	0	0
3258.666	n/a	WORD	1629333	wordpools/wasnorm_wordpool_576.txt	LTP210	ltpFR2	19	17	PARENT	1013	n/a	n/a	0	0	0
3261.12	n/a	WORD	1630560	wordpools/wasnorm_wordpool_576.txt	LTP210	ltpFR2	19	17	PLIERS	1089	n/a	n/a	0	0	0
3263.902	n/a	WORD	1631951	wordpools/wasnorm_wordpool_576.txt	LTP210	ltpFR2	19	17	DRILL	497	n/a	n/a	0	0	0
3266.708	n/a	WORD	1633354	wordpools/wasnorm_wordpool_576.txt	LTP210	ltpFR2	19	17	LIPSTICK	829	n/a	n/a	0	0	0
3269.3	n/a	WORD	1634650	wordpools/wasnorm_wordpool_576.txt	LTP210	ltpFR2	19	17	MARKER	870	n/a	n/a	0	0	0
3271.868	n/a	WORD	1635934	wordpools/wasnorm_wordpool_576.txt	LTP210	ltpFR2	19	17	CRAYON	401	n/a	n/a	0	0	0
3274.51	n/a	WORD	1637255	wordpools/wasnorm_wordpool_576.txt	LTP210	ltpFR2	19	17	CEILING	265	n/a	n/a	0	0	0
3277.116	n/a	WORD	1638558	wordpools/wasnorm_wordpool_576.txt	LTP210	ltpFR2	19	17	DIME	466	n/a	n/a	0	0	0
3279.808	n/a	WORD	1639904	wordpools/wasnorm_wordpool_576.txt	LTP210	ltpFR2	19	17	GLOBE	641	n/a	n/a	0	0	0
3282.484	n/a	WORD	1641242	wordpools/wasnorm_wordpool_576.txt	LTP210	ltpFR2	19	17	FUNGUS	614	n/a	n/a	0	0	0
3285.016	n/a	WORD	1642508	wordpools/wasnorm_wordpool_576.txt	LTP210	ltpFR2	19	17	PICNIC	1060	n/a	n/a	0	0	0
3287.508	n/a	WORD	1643754	wordpools/wasnorm_wordpool_576.txt	LTP210	ltpFR2	19	17	BLENDER	136	n/a	n/a	0	0	0
3290.12	n/a	WORD	1645060	wordpools/wasnorm_wordpool_576.txt	LTP210	ltpFR2	19	17	COOK	372	n/a	n/a	0	0	0
3292.898	n/a	WORD	1646449	wordpools/wasnorm_wordpool_576.txt	LTP210	ltpFR2	19	17	LADY	794	n/a	n/a	0	0	0
3295.556	n/a	WORD	1647778	wordpools/wasnorm_wordpool_576.txt	LTP210	ltpFR2	19	17	LAVA	804	n/a	n/a	0	0	0
3297.164	n/a	START	1648582	n/a	LTP210	ltpFR2	19	n/a	n/a	n/a	26	n/a	n/a	n/a	n/a
3298.058	n/a	DISTRACTOR	1649029	n/a	LTP210	ltpFR2	19	17	n/a	n/a	n/a	n/a	0	0	0
3298.066	n/a	PROB	1649033	n/a	LTP210	ltpFR2	19	n/a	n/a	n/a	26	11	2	6	3
3300.192	n/a	PROB	1650096	n/a	LTP210	ltpFR2	19	n/a	n/a	n/a	26	9	2	5	2
3301.714	n/a	PROB	1650857	n/a	LTP210	ltpFR2	19	n/a	n/a	n/a	26	16	2	9	5
3303.666	n/a	PROB	1651833	n/a	LTP210	ltpFR2	19	n/a	n/a	n/a	26	3	1	1	1
3304.804	n/a	PROB	1652402	n/a	LTP210	ltpFR2	19	n/a	n/a	n/a	26	7	2	3	2
3306.626	n/a	PROB	1653313	n/a	LTP210	ltpFR2	19	n/a	n/a	n/a	26	16	1	7	8
3309.004	n/a	PROB	1654502	n/a	LTP210	ltpFR2	19	n/a	n/a	n/a	26	19	1	9	9
3310.292	n/a	PROB	1655146	n/a	LTP210	ltpFR2	19	n/a	n/a	n/a	26	17	3	9	5
3314.208	n/a	PROB	1657104	n/a	LTP210	ltpFR2	19	n/a	n/a	n/a	26	25	7	8	8
3316.432	n/a	PROB	1658216	n/a	LTP210	ltpFR2	19	n/a	n/a	n/a	26	9	1	4	4
3320.206	n/a	STOP	1660103	n/a	LTP210	ltpFR2	19	n/a	n/a	n/a	26	n/a	n/a	n/a	n/a
3322.958	n/a	REC_START	1661479	n/a	LTP210	ltpFR2	19	17	n/a	n/a	n/a	n/a	0	0	0
3324.286	n/a	REC_WORD	1662143	wordpools/wasnorm_wordpool_576.txt	LTP210	ltpFR2	19	17	LADY	794	n/a	n/a	0	0	0
3325.936	n/a	REC_WORD	1662968	wordpools/wasnorm_wordpool_576.txt	LTP210	ltpFR2	19	17	CRAYON	401	n/a	n/a	0	0	0
3327.426	n/a	REC_WORD	1663713	wordpools/wasnorm_wordpool_576.txt	LTP210	ltpFR2	19	17	MARKER	870	n/a	n/a	0	0	0
3335.764	n/a	REC_WORD	1667882	wordpools/wasnorm_wordpool_576.txt	LTP210	ltpFR2	19	17	INMATE	738	n/a	n/a	0	0	0
3414.044	n/a	WORD	1707022	wordpools/wasnorm_wordpool_576.txt	LTP210	ltpFR2	19	18	ANTLER	29	n/a	n/a	0	0	0
3416.866	n/a	WORD	1708433	wordpools/wasnorm_wordpool_576.txt	LTP210	ltpFR2	19	18	SIBLING	1301	n/a	n/a	0	0	0
3419.408	n/a	WORD	1709704	wordpools/wasnorm_wordpool_576.txt	LTP210	ltpFR2	19	18	LAMP	798	n/a	n/a	0	0	0
3421.874	n/a	WORD	1710937	wordpools/wasnorm_wordpool_576.txt	LTP210	ltpFR2	19	18	ELBOW	520	n/a	n/a	0	0	0
3424.478	n/a	WORD	1712239	wordpools/wasnorm_wordpool_576.txt	LTP210	ltpFR2	19	18	BRACES	164	n/a	n/a	0	0	0
3426.942	n/a	WORD	1713471	wordpools/wasnorm_wordpool_576.txt	LTP210	ltpFR2	19	18	COFFEE	341	n/a	n/a	0	0	0
3429.72	n/a	WORD	1714860	wordpools/wasnorm_wordpool_576.txt	LTP210	ltpFR2	19	18	APRON	35	n/a	n/a	0	0	0
3432.43	n/a	WORD	1716215	wordpools/wasnorm_wordpool_576.txt	LTP210	ltpFR2	19	18	VAGRANT	1544	n/a	n/a	0	0	0
3435.174	n/a	WORD	1717587	wordpools/wasnorm_wordpool_576.txt	LTP210	ltpFR2	19	18	SALAD	1224	n/a	n/a	0	0	0
3437.986	n/a	WORD	1718993	wordpools/wasnorm_wordpool_576.txt	LTP210	ltpFR2	19	18	FLASHLIGHT	575	n/a	n/a	0	0	0
3440.712	n/a	WORD	1720356	wordpools/wasnorm_wordpool_576.txt	LTP210	ltpFR2	19	18	COOKBOOK	373	n/a	n/a	0	0	0
3443.184	n/a	WORD	1721592	wordpools/wasnorm_wordpool_576.txt	LTP210	ltpFR2	19	18	BANJO	82	n/a	n/a	0	0	0
3445.848	n/a	WORD	1722924	wordpools/wasnorm_wordpool_576.txt	LTP210	ltpFR2	19	18	BRIEFCASE	175	n/a	n/a	0	0	0
3448.524	n/a	WORD	1724262	wordpools/wasnorm_wordpool_576.txt	LTP210	ltpFR2	19	18	BUREAU	199	n/a	n/a	0	0	0
3451.186	n/a	WORD	1725593	wordpools/wasnorm_wordpool_576.txt	LTP210	ltpFR2	19	18	OUTFIT	988	n/a	n/a	0	0	0
3453.94	n/a	WORD	1726970	wordpools/wasnorm_wordpool_576.txt	LTP210	ltpFR2	19	18	MAILBOX	857	n/a	n/a	0	0	0
3456.472	n/a	WORD	1728236	wordpools/wasnorm_wordpool_576.txt	LTP210	ltpFR2	19	18	BEAKER	104	n/a	n/a	0	0	0
3459.262	n/a	WORD	1729631	wordpools/wasnorm_wordpool_576.txt	LTP210	ltpFR2	19	18	CHEMIST	292	n/a	n/a	0	0	0
3461.742	n/a	WORD	1730871	wordpools/wasnorm_wordpool_576.txt	LTP210	ltpFR2	19	18	ICING	732	n/a	n/a	0	0	0
3464.384	n/a	WORD	1732192	wordpools/wasnorm_wordpool_576.txt	LTP210	ltpFR2	19	18	BEAVER	109	n/a	n/a	0	0	0
3466.808	n/a	WORD	1733404	wordpools/wasnorm_wordpool_576.txt	LTP210	ltpFR2	19	18	WHISKERS	1605	n/a	n/a	0	0	0
3469.588	n/a	WORD	1734794	wordpools/wasnorm_wordpool_576.txt	LTP210	ltpFR2	19	18	FRECKLE	602	n/a	n/a	0	0	0
3472.278	n/a	WORD	1736139	wordpools/wasnorm_wordpool_576.txt	LTP210	ltpFR2	19	18	PISTON	1076	n/a	n/a	0	0	0
3474.754	n/a	WORD	1737377	wordpools/wasnorm_wordpool_576.txt	LTP210	ltpFR2	19	18	DENIM	446	n/a	n/a	0	0	0
3476.364	n/a	START	1738182	n/a	LTP210	ltpFR2	19	n/a	n/a	n/a	27	n/a	n/a	n/a	n/a
3477.488	n/a	DISTRACTOR	1738744	n/a	LTP210	ltpFR2	19	18	n/a	n/a	n/a	n/a	0	0	0
3477.502	n/a	PROB	1738751	n/a	LTP210	ltpFR2	19	n/a	n/a	n/a	27	11	5	4	2
3479.572	n/a	PROB	1739786	n/a	LTP210	ltpFR2	19	n/a	n/a	n/a	27	15	3	5	7
3481.178	n/a	PROB	1740589	n/a	LTP210	ltpFR2	19	n/a	n/a	n/a	27	14	4	1	9
3482.45	n/a	PROB	1741225	n/a	LTP210	ltpFR2	19	n/a	n/a	n/a	27	21	9	3	9
3484.59	n/a	PROB	1742295	n/a	LTP210	ltpFR2	19	n/a	n/a	n/a	27	16	9	1	6
3485.762	n/a	PROB	1742881	n/a	LTP210	ltpFR2	19	n/a	n/a	n/a	27	19	9	4	6
3487.018	n/a	PROB	1743509	n/a	LTP210	ltpFR2	19	n/a	n/a	n/a	27	19	6	8	5
3488.69	n/a	PROB	1744345	n/a	LTP210	ltpFR2	19	n/a	n/a	n/a	27	11	2	5	4
3491.082	n/a	PROB	1745541	n/a	LTP210	ltpFR2	19	n/a	n/a	n/a	27	16	8	3	5
3492.724	n/a	PROB	1746362	n/a	LTP210	ltpFR2	19	n/a	n/a	n/a	27	10	3	4	3
3494.782	n/a	PROB	1747391	n/a	LTP210	ltpFR2	19	n/a	n/a	n/a	27	16	8	7	1
3496.386	n/a	PROB	1748193	n/a	LTP210	ltpFR2	19	n/a	n/a	n/a	27	18	8	2	8
3497.708	n/a	PROB	1748854	n/a	LTP210	ltpFR2	19	n/a	n/a	n/a	27	7	5	1	1
3498.864	n/a	PROB	1749432	n/a	LTP210	ltpFR2	19	n/a	n/a	n/a	27	19	8	5	6
3500.208	n/a	STOP	1750104	n/a	LTP210	ltpFR2	19	n/a	n/a	n/a	27	n/a	n/a	n/a	n/a
3502.176	n/a	REC_START	1751088	n/a	LTP210	ltpFR2	19	18	n/a	n/a	n/a	n/a	0	0	0
3508.236	n/a	REC_WORD	1754118	wordpools/wasnorm_wordpool_576.txt	LTP210	ltpFR2	19	18	FRECKLE	602	n/a	n/a	0	0	0
3520.64	n/a	REC_WORD	1760320	wordpools/wasnorm_wordpool_576.txt	LTP210	ltpFR2	19	18	SIBLING	1301	n/a	n/a	0	0	0
3525.11	n/a	REC_WORD	1762555	wordpools/wasnorm_wordpool_576.txt	LTP210	ltpFR2	19	18	PISTON	1076	n/a	n/a	0	0	0
3593.262	n/a	DISTRACTOR	1796631	n/a	LTP210	ltpFR2	19	19	n/a	n/a	n/a	n/a	0	0	0
3593.262	n/a	START	1796631	n/a	LTP210	ltpFR2	19	n/a	n/a	n/a	28	n/a	n/a	n/a	n/a
3593.312	n/a	PROB	1796656	n/a	LTP210	ltpFR2	19	n/a	n/a	n/a	28	22	8	6	8
3595.198	n/a	PROB	1797599	n/a	LTP210	ltpFR2	19	n/a	n/a	n/a	28	12	4	1	7
3597.038	n/a	PROB	1798519	n/a	LTP210	ltpFR2	19	n/a	n/a	n/a	28	12	1	5	6
3598.526	n/a	PROB	1799263	n/a	LTP210	ltpFR2	19	n/a	n/a	n/a	28	18	7	3	8
3600.366	n/a	PROB	1800183	n/a	LTP210	ltpFR2	19	n/a	n/a	n/a	28	13	3	1	9
3601.71	n/a	PROB	1800855	n/a	LTP210	ltpFR2	19	n/a	n/a	n/a	28	12	8	2	2
3603.094	n/a	PROB	1801547	n/a	LTP210	ltpFR2	19	n/a	n/a	n/a	28	17	6	3	8
3604.84	n/a	PROB	1802420	n/a	LTP210	ltpFR2	19	n/a	n/a	n/a	28	14	1	5	7
3606.658	n/a	PROB	1803329	n/a	LTP210	ltpFR2	19	n/a	n/a	n/a	28	11	6	1	4
3608.888	n/a	PROB	1804444	n/a	LTP210	ltpFR2	19	n/a	n/a	n/a	28	18	1	8	9
3610.306	n/a	PROB	1805153	n/a	LTP210	ltpFR2	19	n/a	n/a	n/a	28	16	5	9	2
3612.234	n/a	PROB	1806117	n/a	LTP210	ltpFR2	19	n/a	n/a	n/a	28	17	7	2	8
3613.768	n/a	PROB	1806884	n/a	LTP210	ltpFR2	19	n/a	n/a	n/a	28	22	7	7	8
3616.07	n/a	STOP	1808035	n/a	LTP210	ltpFR2	19	n/a	n/a	n/a	28	n/a	n/a	n/a	n/a
3618.29	n/a	WORD	1809145	wordpools/wasnorm_wordpool_576.txt	LTP210	ltpFR2	19	19	POCKET	1093	n/a	n/a	0	0	0
3620.716	n/a	WORD	1810358	wordpools/wasnorm_wordpool_576.txt	LTP210	ltpFR2	19	19	EGYPT	519	n/a	n/a	0	0	0
3623.176	n/a	WORD	1811588	wordpools/wasnorm_wordpool_576.txt	LTP210	ltpFR2	19	19	CAMEL	223	n/a	n/a	0	0	0
3625.804	n/a	WORD	1812902	wordpools/wasnorm_wordpool_576.txt	LTP210	ltpFR2	19	19	BLADE	134	n/a	n/a	0	0	0
3628.612	n/a	WORD	1814306	wordpools/wasnorm_wordpool_576.txt	LTP210	ltpFR2	19	19	PATIENT	1024	n/a	n/a	0	0	0
3631.14	n/a	WORD	1815570	wordpools/wasnorm_wordpool_576.txt	LTP210	ltpFR2	19	19	NURSE	963	n/a	n/a	0	0	0
3633.912	n/a	WORD	1816956	wordpools/wasnorm_wordpool_576.txt	LTP210	ltpFR2	19	19	ZIPPER	1636	n/a	n/a	0	0	0
3636.626	n/a	WORD	1818313	wordpools/wasnorm_wordpool_576.txt	LTP210	ltpFR2	19	19	DANDRUFF	439	n/a	n/a	0	0	0
3639.136	n/a	WORD	1819568	wordpools/wasnorm_wordpool_576.txt	LTP210	ltpFR2	19	19	CHEST	295	n/a	n/a	0	0	0
3641.898	n/a	WORD	1820949	wordpools/wasnorm_wordpool_576.txt	LTP210	ltpFR2	19	19	SHIRT	1287	n/a	n/a	0	0	0
3644.674	n/a	WORD	1822337	wordpools/wasnorm_wordpool_576.txt	LTP210	ltpFR2	19	19	BLOUSE	139	n/a	n/a	0	0	0
3647.434	n/a	WORD	1823717	wordpools/wasnorm_wordpool_576.txt	LTP210	ltpFR2	19	19	FREEZER	604	n/a	n/a	0	0	0
3650.096	n/a	WORD	1825048	wordpools/wasnorm_wordpool_576.txt	LTP210	ltpFR2	19	19	PLATE	1086	n/a	n/a	0	0	0
3652.906	n/a	WORD	1826453	wordpools/wasnorm_wordpool_576.txt	LTP210	ltpFR2	19	19	AUTHOR	61	n/a	n/a	0	0	0
3655.444	n/a	WORD	1827722	wordpools/wasnorm_wordpool_576.txt	LTP210	ltpFR2	19	19	POLICE	1098	n/a	n/a	0	0	0
3658.042	n/a	WORD	1829021	wordpools/wasnorm_wordpool_576.txt	LTP210	ltpFR2	19	19	DOUGHNUT	490	n/a	n/a	0	0	0
3660.502	n/a	WORD	1830251	wordpools/wasnorm_wordpool_576.txt	LTP210	ltpFR2	19	19	CROSS	413	n/a	n/a	0	0	0
3662.99	n/a	WORD	1831495	wordpools/wasnorm_wordpool_576.txt	LTP210	ltpFR2	19	19	SCRIBBLE	1256	n/a	n/a	0	0	0
3665.57	n/a	WORD	1832785	wordpools/wasnorm_wordpool_576.txt	LTP210	ltpFR2	19	19	WARDROBE	1587	n/a	n/a	0	0	0
3668.148	n/a	WORD	1834074	wordpools/wasnorm_wordpool_576.txt	LTP210	ltpFR2	19	19	POET	1095	n/a	n/a	0	0	0
3670.858	n/a	WORD	1835429	wordpools/wasnorm_wordpool_576.txt	LTP210	ltpFR2	19	19	FRIAR	605	n/a	n/a	0	0	0
3673.5	n/a	WORD	1836750	wordpools/wasnorm_wordpool_576.txt	LTP210	ltpFR2	19	19	AIRPLANE	12	n/a	n/a	0	0	0
3676.056	n/a	WORD	1838028	wordpools/wasnorm_wordpool_576.txt	LTP210	ltpFR2	19	19	HANDBAG	684	n/a	n/a	0	0	0
3678.666	n/a	WORD	1839333	wordpools/wasnorm_wordpool_576.txt	LTP210	ltpFR2	19	19	LAPEL	800	n/a	n/a	0	0	0
3680.278	n/a	START	1840139	n/a	LTP210	ltpFR2	19	n/a	n/a	n/a	29	n/a	n/a	n/a	n/a
3681.212	n/a	DISTRACTOR	1840606	n/a	LTP210	ltpFR2	19	19	n/a	n/a	n/a	n/a	0	0	0
3681.228	n/a	PROB	1840614	n/a	LTP210	ltpFR2	19	n/a	n/a	n/a	29	8	3	2	3
3684.142	n/a	PROB	1842071	n/a	LTP210	ltpFR2	19	n/a	n/a	n/a	29	12	3	4	5
3685.894	n/a	PROB	1842947	n/a	LTP210	ltpFR2	19	n/a	n/a	n/a	29	19	1	9	9
3687.132	n/a	PROB	1843566	n/a	LTP210	ltpFR2	19	n/a	n/a	n/a	29	12	1	3	8
3688.722	n/a	PROB	1844361	n/a	LTP210	ltpFR2	19	n/a	n/a	n/a	29	18	8	7	3
3690.428	n/a	PROB	1845214	n/a	LTP210	ltpFR2	19	n/a	n/a	n/a	29	11	2	6	3
3692.236	n/a	PROB	1846118	n/a	LTP210	ltpFR2	19	n/a	n/a	n/a	29	16	2	7	7
3693.846	n/a	PROB	1846923	n/a	LTP210	ltpFR2	19	n/a	n/a	n/a	29	24	9	8	7
3698.024	n/a	PROB	1849012	n/a	LTP210	ltpFR2	19	n/a	n/a	n/a	29	10	8	1	1
3699.28	n/a	PROB	1849640	n/a	LTP210	ltpFR2	19	n/a	n/a	n/a	29	21	6	6	9
3700.852	n/a	PROB	1850426	n/a	LTP210	ltpFR2	19	n/a	n/a	n/a	29	20	6	9	5
3703.274	n/a	STOP	1851637	n/a	LTP210	ltpFR2	19	n/a	n/a	n/a	29	n/a	n/a	n/a	n/a
3706.16	n/a	REC_START	1853080	n/a	LTP210	ltpFR2	19	19	n/a	n/a	n/a	n/a	0	0	0
3708.516	n/a	REC_WORD	1854258	wordpools/wasnorm_wordpool_576.txt	LTP210	ltpFR2	19	19	AIRPLANE	12	n/a	n/a	0	0	0
3710.334	n/a	REC_WORD	1855167	wordpools/wasnorm_wordpool_576.txt	LTP210	ltpFR2	19	19	LAPEL	800	n/a	n/a	0	0	0
3712.332	n/a	REC_WORD	1856166	wordpools/wasnorm_wordpool_576.txt	LTP210	ltpFR2	19	19	CAMEL	223	n/a	n/a	0	0	0
3714.066	n/a	REC_WORD	1857033	wordpools/wasnorm_wordpool_576.txt	LTP210	ltpFR2	19	19	EGYPT	519	n/a	n/a	0	0	0
3797.242	n/a	DISTRACTOR	1898621	n/a	LTP210	ltpFR2	19	20	n/a	n/a	n/a	n/a	0	0	0
3797.242	n/a	START	1898621	n/a	LTP210	ltpFR2	19	n/a	n/a	n/a	30	n/a	n/a	n/a	n/a
3797.292	n/a	PROB	1898646	n/a	LTP210	ltpFR2	19	n/a	n/a	n/a	30	11	1	7	3
3798.86	n/a	PROB	1899430	n/a	LTP210	ltpFR2	19	n/a	n/a	n/a	30	21	6	9	6
3800.586	n/a	PROB	1900293	n/a	LTP210	ltpFR2	19	n/a	n/a	n/a	30	19	6	7	6
3802.222	n/a	PROB	1901111	n/a	LTP210	ltpFR2	19	n/a	n/a	n/a	30	17	3	9	5
3804.568	n/a	PROB	1902284	n/a	LTP210	ltpFR2	19	n/a	n/a	n/a	30	20	5	8	7
3806.672	n/a	PROB	1903336	n/a	LTP210	ltpFR2	19	n/a	n/a	n/a	30	15	7	3	5
3808.128	n/a	PROB	1904064	n/a	LTP210	ltpFR2	19	n/a	n/a	n/a	30	22	8	6	8
3810.604	n/a	PROB	1905302	n/a	LTP210	ltpFR2	19	n/a	n/a	n/a	30	8	4	3	1
3811.826	n/a	PROB	1905913	n/a	LTP210	ltpFR2	19	n/a	n/a	n/a	30	20	2	9	9
3813.482	n/a	PROB	1906741	n/a	LTP210	ltpFR2	19	n/a	n/a	n/a	30	14	5	4	5
3814.674	n/a	PROB	1907337	n/a	LTP210	ltpFR2	19	n/a	n/a	n/a	30	17	8	3	6
3816.41	n/a	PROB	1908205	n/a	LTP210	ltpFR2	19	n/a	n/a	n/a	30	8	4	3	1
3817.766	n/a	PROB	1908883	n/a	LTP210	ltpFR2	19	n/a	n/a	n/a	30	21	6	9	6
3819.238	n/a	PROB	1909619	n/a	LTP210	ltpFR2	19	n/a	n/a	n/a	30	22	9	9	4
3820.488	n/a	STOP	1910244	n/a	LTP210	ltpFR2	19	n/a	n/a	n/a	30	n/a	n/a	n/a	n/a
3822.17	n/a	WORD	1911085	wordpools/wasnorm_wordpool_576.txt	LTP210	ltpFR2	19	20	SUNSET	1408	n/a	n/a	0	0	0
3824.926	n/a	WORD	1912463	wordpools/wasnorm_wordpool_576.txt	LTP210	ltpFR2	19	20	BOUQUET	157	n/a	n/a	0	0	0
3827.556	n/a	WORD	1913778	wordpools/wasnorm_wordpool_576.txt	LTP210	ltpFR2	19	20	FLIPPER	580	n/a	n/a	0	0	0
3830.35	n/a	WORD	1915175	wordpools/wasnorm_wordpool_576.txt	LTP210	ltpFR2	19	20	DONKEY	484	n/a	n/a	0	0	0
3832.94	n/a	WORD	1916470	wordpools/wasnorm_wordpool_576.txt	LTP210	ltpFR2	19	20	TEACHER	1440	n/a	n/a	0	0	0
3835.582	n/a	WORD	1917791	wordpools/wasnorm_wordpool_576.txt	LTP210	ltpFR2	19	20	RUST	1219	n/a	n/a	0	0	0
3838.382	n/a	WORD	1919191	wordpools/wasnorm_wordpool_576.txt	LTP210	ltpFR2	19	20	GARBAGE	622	n/a	n/a	0	0	0
3840.854	n/a	WORD	1920427	wordpools/wasnorm_wordpool_576.txt	LTP210	ltpFR2	19	20	LABEL	790	n/a	n/a	0	0	0
3843.484	n/a	WORD	1921742	wordpools/wasnorm_wordpool_576.txt	LTP210	ltpFR2	19	20	COLONEL	348	n/a	n/a	0	0	0
3846.296	n/a	WORD	1923148	wordpools/wasnorm_wordpool_576.txt	LTP210	ltpFR2	19	20	TART	1436	n/a	n/a	0	0	0
3848.806	n/a	WORD	1924403	wordpools/wasnorm_wordpool_576.txt	LTP210	ltpFR2	19	20	JUDGE	761	n/a	n/a	0	0	0
3851.394	n/a	WORD	1925697	wordpools/wasnorm_wordpool_576.txt	LTP210	ltpFR2	19	20	COMET	353	n/a	n/a	0	0	0
3854.038	n/a	WORD	1927019	wordpools/wasnorm_wordpool_576.txt	LTP210	ltpFR2	19	20	BOARD	143	n/a	n/a	0	0	0
3856.466	n/a	WORD	1928233	wordpools/wasnorm_wordpool_576.txt	LTP210	ltpFR2	19	20	STALLION	1369	n/a	n/a	0	0	0
3858.91	n/a	WORD	1929455	wordpools/wasnorm_wordpool_576.txt	LTP210	ltpFR2	19	20	OX	994	n/a	n/a	0	0	0
3861.666	n/a	WORD	1930833	wordpools/wasnorm_wordpool_576.txt	LTP210	ltpFR2	19	20	BURGLAR	200	n/a	n/a	0	0	0
3864.36	n/a	WORD	1932180	wordpools/wasnorm_wordpool_576.txt	LTP210	ltpFR2	19	20	ROBBER	1197	n/a	n/a	0	0	0
3867.076	n/a	WORD	1933538	wordpools/wasnorm_wordpool_576.txt	LTP210	ltpFR2	19	20	OYSTER	995	n/a	n/a	0	0	0
3869.518	n/a	WORD	1934759	wordpools/wasnorm_wordpool_576.txt	LTP210	ltpFR2	19	20	SHOULDER	1294	n/a	n/a	0	0	0
3872.274	n/a	WORD	1936137	wordpools/wasnorm_wordpool_576.txt	LTP210	ltpFR2	19	20	CRUTCH	417	n/a	n/a	0	0	0
3874.904	n/a	WORD	1937452	wordpools/wasnorm_wordpool_576.txt	LTP210	ltpFR2	19	20	HIGHWAY	707	n/a	n/a	0	0	0
3877.442	n/a	WORD	1938721	wordpools/wasnorm_wordpool_576.txt	LTP210	ltpFR2	19	20	SANDWICH	1232	n/a	n/a	0	0	0
3880.02	n/a	WORD	1940010	wordpools/wasnorm_wordpool_576.txt	LTP210	ltpFR2	19	20	PASTA	1021	n/a	n/a	0	0	0
3882.718	n/a	WORD	1941359	wordpools/wasnorm_wordpool_576.txt	LTP210	ltpFR2	19	20	FLEET	578	n/a	n/a	0	0	0
3884.326	n/a	START	1942163	n/a	LTP210	ltpFR2	19	n/a	n/a	n/a	31	n/a	n/a	n/a	n/a
3885.296	n/a	DISTRACTOR	1942648	n/a	LTP210	ltpFR2	19	20	n/a	n/a	n/a	n/a	0	0	0
3885.312	n/a	PROB	1942656	n/a	LTP210	ltpFR2	19	n/a	n/a	n/a	31	21	5	7	9
3887.816	n/a	PROB	1943908	n/a	LTP210	ltpFR2	19	n/a	n/a	n/a	31	26	8	9	9
3889.722	n/a	PROB	1944861	n/a	LTP210	ltpFR2	19	n/a	n/a	n/a	31	9	5	3	1
3892.304	n/a	PROB	1946152	n/a	LTP210	ltpFR2	19	n/a	n/a	n/a	31	9	3	1	5
3894.174	n/a	PROB	1947087	n/a	LTP210	ltpFR2	19	n/a	n/a	n/a	31	16	9	1	6
3895.45	n/a	PROB	1947725	n/a	LTP210	ltpFR2	19	n/a	n/a	n/a	31	13	6	6	1
3896.704	n/a	PROB	1948352	n/a	LTP210	ltpFR2	19	n/a	n/a	n/a	31	18	2	7	9
3898.194	n/a	PROB	1949097	n/a	LTP210	ltpFR2	19	n/a	n/a	n/a	31	15	4	8	1
3900.184	n/a	PROB	1950092	n/a	LTP210	ltpFR2	19	n/a	n/a	n/a	31	9	1	4	4
3902.824	n/a	PROB	1951412	n/a	LTP210	ltpFR2	19	n/a	n/a	n/a	31	3	1	1	1
3903.894	n/a	PROB	1951947	n/a	LTP210	ltpFR2	19	n/a	n/a	n/a	31	17	7	3	7
3905.184	n/a	PROB	1952592	n/a	LTP210	ltpFR2	19	n/a	n/a	n/a	31	18	9	5	4
3906.806	n/a	PROB	1953403	n/a	LTP210	ltpFR2	19	n/a	n/a	n/a	31	10	1	4	5
3907.99	n/a	STOP	1953995	n/a	LTP210	ltpFR2	19	n/a	n/a	n/a	31	n/a	n/a	n/a	n/a
3910.136	n/a	REC_START	1955068	n/a	LTP210	ltpFR2	19	20	n/a	n/a	n/a	n/a	0	0	0
3962.846	n/a	REC_WORD	1981423	wordpools/wasnorm_wordpool_576.txt	LTP210	ltpFR2	19	20	BOUQUET	157	n/a	n/a	0	0	0
3976.012	n/a	REC_WORD	1988006	wordpools/wasnorm_wordpool_576.txt	LTP210	ltpFR2	19	20	HIGHWAY	707	n/a	n/a	0	0	0
4001.188	n/a	WORD	2000594	wordpools/wasnorm_wordpool_576.txt	LTP210	ltpFR2	19	21	WORLD	1622	n/a	n/a	0	0	0
4003.882	n/a	WORD	2001941	wordpools/wasnorm_wordpool_576.txt	LTP210	ltpFR2	19	21	TWISTER	1530	n/a	n/a	0	0	0
4006.64	n/a	WORD	2003320	wordpools/wasnorm_wordpool_576.txt	LTP210	ltpFR2	19	21	DRINK	498	n/a	n/a	0	0	0
4009.368	n/a	WORD	2004684	wordpools/wasnorm_wordpool_576.txt	LTP210	ltpFR2	19	21	WRENCH	1625	n/a	n/a	0	0	0
4012.024	n/a	WORD	2006012	wordpools/wasnorm_wordpool_576.txt	LTP210	ltpFR2	19	21	IDOL	733	n/a	n/a	0	0	0
4014.622	n/a	WORD	2007311	wordpools/wasnorm_wordpool_576.txt	LTP210	ltpFR2	19	21	CHIPMUNK	304	n/a	n/a	0	0	0
4017.094	n/a	WORD	2008547	wordpools/wasnorm_wordpool_576.txt	LTP210	ltpFR2	19	21	LIVER	833	n/a	n/a	0	0	0
4019.754	n/a	WORD	2009877	wordpools/wasnorm_wordpool_576.txt	LTP210	ltpFR2	19	21	ATOM	55	n/a	n/a	0	0	0
4022.418	n/a	WORD	2011209	wordpools/wasnorm_wordpool_576.txt	LTP210	ltpFR2	19	21	MISSILE	900	n/a	n/a	0	0	0
4025.23	n/a	WORD	2012615	wordpools/wasnorm_wordpool_576.txt	LTP210	ltpFR2	19	21	CREATURE	403	n/a	n/a	0	0	0
4027.722	n/a	WORD	2013861	wordpools/wasnorm_wordpool_576.txt	LTP210	ltpFR2	19	21	GRIZZLY	662	n/a	n/a	0	0	0
4030.332	n/a	WORD	2015166	wordpools/wasnorm_wordpool_576.txt	LTP210	ltpFR2	19	21	NEUTRON	947	n/a	n/a	0	0	0
4032.942	n/a	WORD	2016471	wordpools/wasnorm_wordpool_576.txt	LTP210	ltpFR2	19	21	MUSTARD	935	n/a	n/a	0	0	0
4035.468	n/a	WORD	2017734	wordpools/wasnorm_wordpool_576.txt	LTP210	ltpFR2	19	21	RELISH	1183	n/a	n/a	0	0	0
4037.894	n/a	WORD	2018947	wordpools/wasnorm_wordpool_576.txt	LTP210	ltpFR2	19	21	SLUG	1329	n/a	n/a	0	0	0
4040.338	n/a	WORD	2020169	wordpools/wasnorm_wordpool_576.txt	LTP210	ltpFR2	19	21	GAZELLE	628	n/a	n/a	0	0	0
4042.964	n/a	WORD	2021482	wordpools/wasnorm_wordpool_576.txt	LTP210	ltpFR2	19	21	WOMAN	1620	n/a	n/a	0	0	0
4045.406	n/a	WORD	2022703	wordpools/wasnorm_wordpool_576.txt	LTP210	ltpFR2	19	21	FEMALE	559	n/a	n/a	0	0	0
4047.866	n/a	WORD	2023933	wordpools/wasnorm_wordpool_576.txt	LTP210	ltpFR2	19	21	MONEY	908	n/a	n/a	0	0	0
4050.458	n/a	WORD	2025229	wordpools/wasnorm_wordpool_576.txt	LTP210	ltpFR2	19	21	PECAN	1036	n/a	n/a	0	0	0
4053.238	n/a	WORD	2026619	wordpools/wasnorm_wordpool_576.txt	LTP210	ltpFR2	19	21	MONSTER	912	n/a	n/a	0	0	0
4055.88	n/a	WORD	2027940	wordpools/wasnorm_wordpool_576.txt	LTP210	ltpFR2	19	21	QUEEN	1149	n/a	n/a	0	0	0
4058.618	n/a	WORD	2029309	wordpools/wasnorm_wordpool_576.txt	LTP210	ltpFR2	19	21	SLIME	1327	n/a	n/a	0	0	0
4061.378	n/a	WORD	2030689	wordpools/wasnorm_wordpool_576.txt	LTP210	ltpFR2	19	21	CLOUD	328	n/a	n/a	0	0	0
4062.99	n/a	START	2031495	n/a	LTP210	ltpFR2	19	n/a	n/a	n/a	32	n/a	n/a	n/a	n/a
4063.918	n/a	DISTRACTOR	2031959	n/a	LTP210	ltpFR2	19	21	n/a	n/a	n/a	n/a	0	0	0
4063.928	n/a	PROB	2031964	n/a	LTP210	ltpFR2	19	n/a	n/a	n/a	32	13	5	4	4
4066.282	n/a	PROB	2033141	n/a	LTP210	ltpFR2	19	n/a	n/a	n/a	32	12	3	8	1
4067.586	n/a	PROB	2033793	n/a	LTP210	ltpFR2	19	n/a	n/a	n/a	32	4	1	1	2
4068.708	n/a	PROB	2034354	n/a	LTP210	ltpFR2	19	n/a	n/a	n/a	32	14	7	5	2
4070.298	n/a	PROB	2035149	n/a	LTP210	ltpFR2	19	n/a	n/a	n/a	32	17	7	4	6
4072.192	n/a	PROB	2036096	n/a	LTP210	ltpFR2	19	n/a	n/a	n/a	32	20	7	7	6
4073.882	n/a	PROB	2036941	n/a	LTP210	ltpFR2	19	n/a	n/a	n/a	32	16	6	5	5
4074.998	n/a	PROB	2037499	n/a	LTP210	ltpFR2	19	n/a	n/a	n/a	32	10	5	4	1
4076.236	n/a	PROB	2038118	n/a	LTP210	ltpFR2	19	n/a	n/a	n/a	32	15	3	8	4
4078.294	n/a	PROB	2039147	n/a	LTP210	ltpFR2	19	n/a	n/a	n/a	32	20	8	6	6
4081.076	n/a	PROB	2040538	n/a	LTP210	ltpFR2	19	n/a	n/a	n/a	32	9	1	7	1
4082.358	n/a	PROB	2041179	n/a	LTP210	ltpFR2	19	n/a	n/a	n/a	32	15	1	7	7
4083.614	n/a	PROB	2041807	n/a	LTP210	ltpFR2	19	n/a	n/a	n/a	32	20	9	5	6
4085.12	n/a	PROB	2042560	n/a	LTP210	ltpFR2	19	n/a	n/a	n/a	32	7	3	1	3
4086.43	n/a	STOP	2043215	n/a	LTP210	ltpFR2	19	n/a	n/a	n/a	32	n/a	n/a	n/a	n/a
4088.836	n/a	REC_START	2044418	n/a	LTP210	ltpFR2	19	21	n/a	n/a	n/a	n/a	0	0	0
4089.826	n/a	REC_WORD	2044913	wordpools/wasnorm_wordpool_576.txt	LTP210	ltpFR2	19	21	WORLD	1622	n/a	n/a	0	0	0
4091.364	n/a	REC_WORD	2045682	wordpools/wasnorm_wordpool_576.txt	LTP210	ltpFR2	19	21	ATOM	55	n/a	n/a	0	0	0
4092.996	n/a	REC_WORD	2046498	wordpools/wasnorm_wordpool_576.txt	LTP210	ltpFR2	19	21	NEUTRON	947	n/a	n/a	0	0	0
4110.936	n/a	REC_WORD	2055468	wordpools/wasnorm_wordpool_576.txt	LTP210	ltpFR2	19	21	MUSTARD	935	n/a	n/a	0	0	0
4112.436	n/a	REC_WORD	2056218	wordpools/wasnorm_wordpool_576.txt	LTP210	ltpFR2	19	21	RELISH	1183	n/a	n/a	0	0	0
4124.886	n/a	REC_WORD	2062443	wordpools/wasnorm_wordpool_576.txt	LTP210	ltpFR2	19	21	WOMAN	1620	n/a	n/a	0	0	0
4126.154	n/a	REC_WORD	2063077	wordpools/wasnorm_wordpool_576.txt	LTP210	ltpFR2	19	21	FEMALE	559	n/a	n/a	0	0	0
4179.904	n/a	WORD	2089952	wordpools/wasnorm_wordpool_576.txt	LTP210	ltpFR2	19	22	BACKBONE	66	n/a	n/a	0	0	0
4182.58	n/a	WORD	2091290	wordpools/wasnorm_wordpool_576.txt	LTP210	ltpFR2	19	22	SPOON	1357	n/a	n/a	0	0	0
4185.276	n/a	WORD	2092638	wordpools/wasnorm_wordpool_576.txt	LTP210	ltpFR2	19	22	FOREHEAD	592	n/a	n/a	0	0	0
4187.998	n/a	WORD	2093999	wordpools/wasnorm_wordpool_576.txt	LTP210	ltpFR2	19	22	MEAT	883	n/a	n/a	0	0	0
4190.494	n/a	WORD	2095247	wordpools/wasnorm_wordpool_576.txt	LTP210	ltpFR2	19	22	COD	340	n/a	n/a	0	0	0
4193.072	n/a	WORD	2096536	wordpools/wasnorm_wordpool_576.txt	LTP210	ltpFR2	19	22	JUGGLER	763	n/a	n/a	0	0	0
4195.58	n/a	WORD	2097790	wordpools/wasnorm_wordpool_576.txt	LTP210	ltpFR2	19	22	WASP	1593	n/a	n/a	0	0	0
4198.024	n/a	WORD	2099012	wordpools/wasnorm_wordpool_576.txt	LTP210	ltpFR2	19	22	COUSIN	392	n/a	n/a	0	0	0
4200.6	n/a	WORD	2100300	wordpools/wasnorm_wordpool_576.txt	LTP210	ltpFR2	19	22	CASHEW	253	n/a	n/a	0	0	0
4203.29	n/a	WORD	2101645	wordpools/wasnorm_wordpool_576.txt	LTP210	ltpFR2	19	22	PARTNER	1017	n/a	n/a	0	0	0
4205.92	n/a	WORD	2102960	wordpools/wasnorm_wordpool_576.txt	LTP210	ltpFR2	19	22	SUSPECT	1415	n/a	n/a	0	0	0
4208.362	n/a	WORD	2104181	wordpools/wasnorm_wordpool_576.txt	LTP210	ltpFR2	19	22	CELLAR	267	n/a	n/a	0	0	0
4210.868	n/a	WORD	2105434	wordpools/wasnorm_wordpool_576.txt	LTP210	ltpFR2	19	22	HONEY	713	n/a	n/a	0	0	0
4213.666	n/a	WORD	2106833	wordpools/wasnorm_wordpool_576.txt	LTP210	ltpFR2	19	22	SWAMP	1416	n/a	n/a	0	0	0
4216.338	n/a	WORD	2108169	wordpools/wasnorm_wordpool_576.txt	LTP210	ltpFR2	19	22	BALLOON	75	n/a	n/a	0	0	0
