onset	duration	trial_type	sample	stim_file	subject	experiment	session	trial	item_name	item_num	list	answer	test_x	test_y	test_z
207.892	n/a	SESS_START	103946	n/a	LTP317	ltpFR2	5	n/a	n/a	n/a	n/a	n/a	0	0	0
221.842	n/a	START	110921	n/a	LTP317	ltpFR2	5	n/a	n/a	n/a	-1	n/a	n/a	n/a	n/a
221.856	n/a	PROB	110928	n/a	LTP317	ltpFR2	5	n/a	n/a	n/a	-1	21	8	6	7
224.606	n/a	PROB	112303	n/a	LTP317	ltpFR2	5	n/a	n/a	n/a	-1	16	4	6	6
226.392	n/a	PROB	113196	n/a	LTP317	ltpFR2	5	n/a	n/a	n/a	-1	6	2	1	3
227.658	n/a	PROB	113829	n/a	LTP317	ltpFR2	5	n/a	n/a	n/a	-1	12	2	2	8
229.61	n/a	PROB	114805	n/a	LTP317	ltpFR2	5	n/a	n/a	n/a	-1	16	7	8	1
230.894	n/a	PROB	115447	n/a	LTP317	ltpFR2	5	n/a	n/a	n/a	-1	16	3	5	8
232.4	n/a	STOP	116200	n/a	LTP317	ltpFR2	5	n/a	n/a	n/a	-1	n/a	n/a	n/a	n/a
263.372	n/a	WORD	131686	wordpools/wasnorm_wordpool_576.txt	LTP317	ltpFR2	5	1	BURGLAR	200	n/a	n/a	0	0	0
266.042	n/a	WORD	133021	wordpools/wasnorm_wordpool_576.txt	LTP317	ltpFR2	5	1	SUSPECT	1415	n/a	n/a	0	0	0
268.844	n/a	WORD	134422	wordpools/wasnorm_wordpool_576.txt	LTP317	ltpFR2	5	1	SHRUB	1299	n/a	n/a	0	0	0
271.462	n/a	WORD	135731	wordpools/wasnorm_wordpool_576.txt	LTP317	ltpFR2	5	1	HAND	683	n/a	n/a	0	0	0
273.914	n/a	WORD	136957	wordpools/wasnorm_wordpool_576.txt	LTP317	ltpFR2	5	1	PALACE	1006	n/a	n/a	0	0	0
276.416	n/a	WORD	138208	wordpools/wasnorm_wordpool_576.txt	LTP317	ltpFR2	5	1	DONOR	485	n/a	n/a	0	0	0
278.902	n/a	WORD	139451	wordpools/wasnorm_wordpool_576.txt	LTP317	ltpFR2	5	1	BANJO	82	n/a	n/a	0	0	0
281.538	n/a	WORD	140769	wordpools/wasnorm_wordpool_576.txt	LTP317	ltpFR2	5	1	TRANSPLANT	1496	n/a	n/a	0	0	0
284.09	n/a	WORD	142045	wordpools/wasnorm_wordpool_576.txt	LTP317	ltpFR2	5	1	KIDNEY	776	n/a	n/a	0	0	0
286.84	n/a	WORD	143420	wordpools/wasnorm_wordpool_576.txt	LTP317	ltpFR2	5	1	FLESH	579	n/a	n/a	0	0	0
289.444	n/a	WORD	144722	wordpools/wasnorm_wordpool_576.txt	LTP317	ltpFR2	5	1	PEBBLE	1035	n/a	n/a	0	0	0
292.13	n/a	WORD	146065	wordpools/wasnorm_wordpool_576.txt	LTP317	ltpFR2	5	1	MILDEW	893	n/a	n/a	0	0	0
294.932	n/a	WORD	147466	wordpools/wasnorm_wordpool_576.txt	LTP317	ltpFR2	5	1	FUNGUS	614	n/a	n/a	0	0	0
297.4	n/a	WORD	148700	wordpools/wasnorm_wordpool_576.txt	LTP317	ltpFR2	5	1	SANDWICH	1232	n/a	n/a	0	0	0
299.952	n/a	WORD	149976	wordpools/wasnorm_wordpool_576.txt	LTP317	ltpFR2	5	1	LETTUCE	814	n/a	n/a	0	0	0
302.42	n/a	WORD	151210	wordpools/wasnorm_wordpool_576.txt	LTP317	ltpFR2	5	1	WORLD	1622	n/a	n/a	0	0	0
305.074	n/a	WORD	152537	wordpools/wasnorm_wordpool_576.txt	LTP317	ltpFR2	5	1	MARKER	870	n/a	n/a	0	0	0
307.628	n/a	WORD	153814	wordpools/wasnorm_wordpool_576.txt	LTP317	ltpFR2	5	1	FINGER	567	n/a	n/a	0	0	0
310.13	n/a	WORD	155065	wordpools/wasnorm_wordpool_576.txt	LTP317	ltpFR2	5	1	SILK	1307	n/a	n/a	0	0	0
312.828	n/a	WORD	156414	wordpools/wasnorm_wordpool_576.txt	LTP317	ltpFR2	5	1	RECORD	1176	n/a	n/a	0	0	0
315.318	n/a	WORD	157659	wordpools/wasnorm_wordpool_576.txt	LTP317	ltpFR2	5	1	PEACH	1031	n/a	n/a	0	0	0
318.032	n/a	WORD	159016	wordpools/wasnorm_wordpool_576.txt	LTP317	ltpFR2	5	1	SWITCH	1422	n/a	n/a	0	0	0
320.7	n/a	WORD	160350	wordpools/wasnorm_wordpool_576.txt	LTP317	ltpFR2	5	1	BUTCHER	203	n/a	n/a	0	0	0
323.336	n/a	WORD	161668	wordpools/wasnorm_wordpool_576.txt	LTP317	ltpFR2	5	1	MARKET	871	n/a	n/a	0	0	0
324.944	n/a	START	162472	n/a	LTP317	ltpFR2	5	n/a	n/a	n/a	1	n/a	n/a	n/a	n/a
326.048	n/a	DISTRACTOR	163024	n/a	LTP317	ltpFR2	5	1	n/a	n/a	n/a	n/a	0	0	0
326.056	n/a	PROB	163028	n/a	LTP317	ltpFR2	5	n/a	n/a	n/a	1	12	2	8	2
328.056	n/a	PROB	164028	n/a	LTP317	ltpFR2	5	n/a	n/a	n/a	1	16	4	7	5
330.944	n/a	PROB	165472	n/a	LTP317	ltpFR2	5	n/a	n/a	n/a	1	16	1	7	9
332.642	n/a	PROB	166321	n/a	LTP317	ltpFR2	5	n/a	n/a	n/a	1	13	6	2	5
335.796	n/a	PROB	167898	n/a	LTP317	ltpFR2	5	n/a	n/a	n/a	1	16	6	7	3
337.13	n/a	PROB	168565	n/a	LTP317	ltpFR2	5	n/a	n/a	n/a	1	18	2	8	8
339.198	n/a	PROB	169599	n/a	LTP317	ltpFR2	5	n/a	n/a	n/a	1	20	6	9	5
340.9	n/a	PROB	170450	n/a	LTP317	ltpFR2	5	n/a	n/a	n/a	1	18	4	7	7
342.416	n/a	PROB	171208	n/a	LTP317	ltpFR2	5	n/a	n/a	n/a	1	12	3	1	8
343.986	n/a	PROB	171993	n/a	LTP317	ltpFR2	5	n/a	n/a	n/a	1	13	3	5	5
345.404	n/a	PROB	172702	n/a	LTP317	ltpFR2	5	n/a	n/a	n/a	1	8	1	4	3
348.944	n/a	STOP	174472	n/a	LTP317	ltpFR2	5	n/a	n/a	n/a	1	n/a	n/a	n/a	n/a
350.742	n/a	REC_START	175371	n/a	LTP317	ltpFR2	5	1	n/a	n/a	n/a	n/a	0	0	0
352.694	n/a	REC_WORD	176347	wordpools/wasnorm_wordpool_576.txt	LTP317	ltpFR2	5	1	BURGLAR	200	n/a	n/a	0	0	0
353.672	n/a	REC_WORD	176836	wordpools/wasnorm_wordpool_576.txt	LTP317	ltpFR2	5	1	SUSPECT	1415	n/a	n/a	0	0	0
355.404	n/a	REC_WORD	177702	wordpools/wasnorm_wordpool_576.txt	LTP317	ltpFR2	5	1	SHRUB	1299	n/a	n/a	0	0	0
358.974	n/a	REC_WORD	179487	wordpools/wasnorm_wordpool_576.txt	LTP317	ltpFR2	5	1	MILDEW	893	n/a	n/a	0	0	0
360.978	n/a	REC_WORD	180489	wordpools/wasnorm_wordpool_576.txt	LTP317	ltpFR2	5	1	FUNGUS	614	n/a	n/a	0	0	0
362.172	n/a	REC_WORD	181086	wordpools/wasnorm_wordpool_576.txt	LTP317	ltpFR2	5	1	SPINE	1353	n/a	n/a	0	0	0
364.714	n/a	REC_WORD	182357	wordpools/wasnorm_wordpool_576.txt	LTP317	ltpFR2	5	1	MARKER	870	n/a	n/a	0	0	0
365.754	n/a	REC_WORD	182877	wordpools/wasnorm_wordpool_576.txt	LTP317	ltpFR2	5	1	MARKET	871	n/a	n/a	0	0	0
369.776	n/a	REC_WORD	184888	wordpools/wasnorm_wordpool_576.txt	LTP317	ltpFR2	5	1	BUTCHER	203	n/a	n/a	0	0	0
375.132	n/a	REC_WORD	187566	wordpools/wasnorm_wordpool_576.txt	LTP317	ltpFR2	5	1	SANDWICH	1232	n/a	n/a	0	0	0
375.912	n/a	REC_WORD	187956	wordpools/wasnorm_wordpool_576.txt	LTP317	ltpFR2	5	1	LETTUCE	814	n/a	n/a	0	0	0
378.616	n/a	REC_WORD	189308	wordpools/wasnorm_wordpool_576.txt	LTP317	ltpFR2	5	1	PEACH	1031	n/a	n/a	0	0	0
401.004	n/a	REC_WORD	200502	wordpools/wasnorm_wordpool_576.txt	LTP317	ltpFR2	5	1	WORLD	1622	n/a	n/a	0	0	0
441.158	n/a	DISTRACTOR	220579	n/a	LTP317	ltpFR2	5	2	n/a	n/a	n/a	n/a	0	0	0
441.158	n/a	START	220579	n/a	LTP317	ltpFR2	5	n/a	n/a	n/a	2	n/a	n/a	n/a	n/a
441.174	n/a	PROB	220587	n/a	LTP317	ltpFR2	5	n/a	n/a	n/a	2	23	8	9	6
444.792	n/a	PROB	222396	n/a	LTP317	ltpFR2	5	n/a	n/a	n/a	2	10	6	1	3
446.198	n/a	PROB	223099	n/a	LTP317	ltpFR2	5	n/a	n/a	n/a	2	19	9	3	7
447.716	n/a	PROB	223858	n/a	LTP317	ltpFR2	5	n/a	n/a	n/a	2	11	4	2	5
450.948	n/a	PROB	225474	n/a	LTP317	ltpFR2	5	n/a	n/a	n/a	2	1	1	2	8
452.35	n/a	PROB	226175	n/a	LTP317	ltpFR2	5	n/a	n/a	n/a	2	15	8	3	4
455.268	n/a	PROB	227634	n/a	LTP317	ltpFR2	5	n/a	n/a	n/a	2	11	8	1	2
456.904	n/a	PROB	228452	n/a	LTP317	ltpFR2	5	n/a	n/a	n/a	2	12	3	5	4
458.522	n/a	PROB	229261	n/a	LTP317	ltpFR2	5	n/a	n/a	n/a	2	9	4	2	3
460.206	n/a	PROB	230103	n/a	LTP317	ltpFR2	5	n/a	n/a	n/a	2	21	7	6	8
461.808	n/a	PROB	230904	n/a	LTP317	ltpFR2	5	n/a	n/a	n/a	2	11	1	3	7
463.392	n/a	PROB	231696	n/a	LTP317	ltpFR2	5	n/a	n/a	n/a	2	16	2	5	9
464.89	n/a	STOP	232445	n/a	LTP317	ltpFR2	5	n/a	n/a	n/a	2	n/a	n/a	n/a	n/a
466.262	n/a	WORD	233131	wordpools/wasnorm_wordpool_576.txt	LTP317	ltpFR2	5	2	BATHTUB	100	n/a	n/a	0	0	0
468.73	n/a	WORD	234365	wordpools/wasnorm_wordpool_576.txt	LTP317	ltpFR2	5	2	BODY	145	n/a	n/a	0	0	0
471.334	n/a	WORD	235667	wordpools/wasnorm_wordpool_576.txt	LTP317	ltpFR2	5	2	CABIN	211	n/a	n/a	0	0	0
474.068	n/a	WORD	237034	wordpools/wasnorm_wordpool_576.txt	LTP317	ltpFR2	5	2	OUTDOORS	987	n/a	n/a	0	0	0
476.788	n/a	WORD	238394	wordpools/wasnorm_wordpool_576.txt	LTP317	ltpFR2	5	2	BRANDY	169	n/a	n/a	0	0	0
479.524	n/a	WORD	239762	wordpools/wasnorm_wordpool_576.txt	LTP317	ltpFR2	5	2	FLASK	576	n/a	n/a	0	0	0
482.042	n/a	WORD	241021	wordpools/wasnorm_wordpool_576.txt	LTP317	ltpFR2	5	2	BLOCKADE	137	n/a	n/a	0	0	0
484.512	n/a	WORD	242256	wordpools/wasnorm_wordpool_576.txt	LTP317	ltpFR2	5	2	FILM	565	n/a	n/a	0	0	0
487.046	n/a	WORD	243523	wordpools/wasnorm_wordpool_576.txt	LTP317	ltpFR2	5	2	STOMACH	1384	n/a	n/a	0	0	0
489.848	n/a	WORD	244924	wordpools/wasnorm_wordpool_576.txt	LTP317	ltpFR2	5	2	HAWK	692	n/a	n/a	0	0	0
492.666	n/a	WORD	246333	wordpools/wasnorm_wordpool_576.txt	LTP317	ltpFR2	5	2	PENGUIN	1044	n/a	n/a	0	0	0
495.136	n/a	WORD	247568	wordpools/wasnorm_wordpool_576.txt	LTP317	ltpFR2	5	2	CAMEL	223	n/a	n/a	0	0	0
497.588	n/a	WORD	248794	wordpools/wasnorm_wordpool_576.txt	LTP317	ltpFR2	5	2	GIFT	635	n/a	n/a	0	0	0
500.292	n/a	WORD	250146	wordpools/wasnorm_wordpool_576.txt	LTP317	ltpFR2	5	2	LAVA	804	n/a	n/a	0	0	0
502.892	n/a	WORD	251446	wordpools/wasnorm_wordpool_576.txt	LTP317	ltpFR2	5	2	PIZZA	1079	n/a	n/a	0	0	0
505.446	n/a	WORD	252723	wordpools/wasnorm_wordpool_576.txt	LTP317	ltpFR2	5	2	MISSILE	900	n/a	n/a	0	0	0
507.948	n/a	WORD	253974	wordpools/wasnorm_wordpool_576.txt	LTP317	ltpFR2	5	2	PEANUT	1032	n/a	n/a	0	0	0
510.682	n/a	WORD	255341	wordpools/wasnorm_wordpool_576.txt	LTP317	ltpFR2	5	2	SHERIFF	1284	n/a	n/a	0	0	0
513.484	n/a	WORD	256742	wordpools/wasnorm_wordpool_576.txt	LTP317	ltpFR2	5	2	CRIB	407	n/a	n/a	0	0	0
516.038	n/a	WORD	258019	wordpools/wasnorm_wordpool_576.txt	LTP317	ltpFR2	5	2	BRAKE	166	n/a	n/a	0	0	0
518.788	n/a	WORD	259394	wordpools/wasnorm_wordpool_576.txt	LTP317	ltpFR2	5	2	CHIPMUNK	304	n/a	n/a	0	0	0
521.442	n/a	WORD	260721	wordpools/wasnorm_wordpool_576.txt	LTP317	ltpFR2	5	2	BLOUSE	139	n/a	n/a	0	0	0
524.094	n/a	WORD	262047	wordpools/wasnorm_wordpool_576.txt	LTP317	ltpFR2	5	2	JEANS	752	n/a	n/a	0	0	0
526.798	n/a	WORD	263399	wordpools/wasnorm_wordpool_576.txt	LTP317	ltpFR2	5	2	JURY	766	n/a	n/a	0	0	0
528.414	n/a	START	264207	n/a	LTP317	ltpFR2	5	n/a	n/a	n/a	3	n/a	n/a	n/a	n/a
529.252	n/a	DISTRACTOR	264626	n/a	LTP317	ltpFR2	5	2	n/a	n/a	n/a	n/a	0	0	0
529.264	n/a	PROB	264632	n/a	LTP317	ltpFR2	5	n/a	n/a	n/a	3	9	4	5	2
531.1	n/a	PROB	265550	n/a	LTP317	ltpFR2	5	n/a	n/a	n/a	3	17	7	2	8
533.55	n/a	PROB	266775	n/a	LTP317	ltpFR2	5	n/a	n/a	n/a	3	10	6	1	3
534.952	n/a	PROB	267476	n/a	LTP317	ltpFR2	5	n/a	n/a	n/a	3	16	9	6	1
536.7	n/a	PROB	268350	n/a	LTP317	ltpFR2	5	n/a	n/a	n/a	3	10	7	1	2
538.37	n/a	PROB	269185	n/a	LTP317	ltpFR2	5	n/a	n/a	n/a	3	24	9	6	9
541.29	n/a	PROB	270645	n/a	LTP317	ltpFR2	5	n/a	n/a	n/a	3	13	2	2	9
542.838	n/a	PROB	271419	n/a	LTP317	ltpFR2	5	n/a	n/a	n/a	3	14	2	3	9
545.126	n/a	PROB	272563	n/a	LTP317	ltpFR2	5	n/a	n/a	n/a	3	13	5	6	2
546.592	n/a	PROB	273296	n/a	LTP317	ltpFR2	5	n/a	n/a	n/a	3	9	1	3	5
548.61	n/a	PROB	274305	n/a	LTP317	ltpFR2	5	n/a	n/a	n/a	3	13	1	4	8
550.876	n/a	STOP	275438	n/a	LTP317	ltpFR2	5	n/a	n/a	n/a	3	n/a	n/a	n/a	n/a
554.25	n/a	REC_START	277125	n/a	LTP317	ltpFR2	5	2	n/a	n/a	n/a	n/a	0	0	0
557.242	n/a	REC_WORD	278621	wordpools/wasnorm_wordpool_576.txt	LTP317	ltpFR2	5	2	BATHTUB	100	n/a	n/a	0	0	0
558.982	n/a	REC_WORD	279491	wordpools/wasnorm_wordpool_576.txt	LTP317	ltpFR2	5	2	BODY	145	n/a	n/a	0	0	0
563.658	n/a	REC_WORD	281829	wordpools/wasnorm_wordpool_576.txt	LTP317	ltpFR2	5	2	CAMPING	-1	n/a	n/a	0	0	0
568.076	n/a	REC_WORD	284038	wordpools/wasnorm_wordpool_576.txt	LTP317	ltpFR2	5	2	HAWK	692	n/a	n/a	0	0	0
569.128	n/a	REC_WORD	284564	wordpools/wasnorm_wordpool_576.txt	LTP317	ltpFR2	5	2	MISSILE	900	n/a	n/a	0	0	0
574.994	n/a	REC_WORD	287497	wordpools/wasnorm_wordpool_576.txt	LTP317	ltpFR2	5	2	STOMACH	1384	n/a	n/a	0	0	0
577.794	n/a	REC_WORD	288897	wordpools/wasnorm_wordpool_576.txt	LTP317	ltpFR2	5	2	FILM	565	n/a	n/a	0	0	0
578.644	n/a	REC_WORD	289322	wordpools/wasnorm_wordpool_576.txt	LTP317	ltpFR2	5	2	PIZZA	1079	n/a	n/a	0	0	0
580.978	n/a	REC_WORD	290489	wordpools/wasnorm_wordpool_576.txt	LTP317	ltpFR2	5	2	JURY	766	n/a	n/a	0	0	0
644.686	n/a	WORD	322343	wordpools/wasnorm_wordpool_576.txt	LTP317	ltpFR2	5	3	PICTURE	1061	n/a	n/a	0	0	0
647.35	n/a	WORD	323675	wordpools/wasnorm_wordpool_576.txt	LTP317	ltpFR2	5	3	BADGE	68	n/a	n/a	0	0	0
649.958	n/a	WORD	324979	wordpools/wasnorm_wordpool_576.txt	LTP317	ltpFR2	5	3	MESSAGE	888	n/a	n/a	0	0	0
652.46	n/a	WORD	326230	wordpools/wasnorm_wordpool_576.txt	LTP317	ltpFR2	5	3	CANDY	230	n/a	n/a	0	0	0
655.04	n/a	WORD	327520	wordpools/wasnorm_wordpool_576.txt	LTP317	ltpFR2	5	3	PADDING	999	n/a	n/a	0	0	0
657.83	n/a	WORD	328915	wordpools/wasnorm_wordpool_576.txt	LTP317	ltpFR2	5	3	LACE	792	n/a	n/a	0	0	0
660.546	n/a	WORD	330273	wordpools/wasnorm_wordpool_576.txt	LTP317	ltpFR2	5	3	ASIA	46	n/a	n/a	0	0	0
663.262	n/a	WORD	331631	wordpools/wasnorm_wordpool_576.txt	LTP317	ltpFR2	5	3	KETCHUP	771	n/a	n/a	0	0	0
665.764	n/a	WORD	332882	wordpools/wasnorm_wordpool_576.txt	LTP317	ltpFR2	5	3	TRUCK	1512	n/a	n/a	0	0	0
668.338	n/a	WORD	334169	wordpools/wasnorm_wordpool_576.txt	LTP317	ltpFR2	5	3	STAKE	1368	n/a	n/a	0	0	0
671.002	n/a	WORD	335501	wordpools/wasnorm_wordpool_576.txt	LTP317	ltpFR2	5	3	DENTIST	447	n/a	n/a	0	0	0
673.426	n/a	WORD	336713	wordpools/wasnorm_wordpool_576.txt	LTP317	ltpFR2	5	3	DRILL	497	n/a	n/a	0	0	0
676.04	n/a	WORD	338020	wordpools/wasnorm_wordpool_576.txt	LTP317	ltpFR2	5	3	BEAKER	104	n/a	n/a	0	0	0
678.776	n/a	WORD	339388	wordpools/wasnorm_wordpool_576.txt	LTP317	ltpFR2	5	3	CHEMIST	292	n/a	n/a	0	0	0
681.298	n/a	WORD	340649	wordpools/wasnorm_wordpool_576.txt	LTP317	ltpFR2	5	3	CHEST	295	n/a	n/a	0	0	0
684.114	n/a	WORD	342057	wordpools/wasnorm_wordpool_576.txt	LTP317	ltpFR2	5	3	CRAYON	401	n/a	n/a	0	0	0
686.702	n/a	WORD	343351	wordpools/wasnorm_wordpool_576.txt	LTP317	ltpFR2	5	3	OX	994	n/a	n/a	0	0	0
689.172	n/a	WORD	344586	wordpools/wasnorm_wordpool_576.txt	LTP317	ltpFR2	5	3	CLIMBER	323	n/a	n/a	0	0	0
691.87	n/a	WORD	345935	wordpools/wasnorm_wordpool_576.txt	LTP317	ltpFR2	5	3	DRIVER	499	n/a	n/a	0	0	0
694.374	n/a	WORD	347187	wordpools/wasnorm_wordpool_576.txt	LTP317	ltpFR2	5	3	LONDON	843	n/a	n/a	0	0	0
697.142	n/a	WORD	348571	wordpools/wasnorm_wordpool_576.txt	LTP317	ltpFR2	5	3	NEUTRON	947	n/a	n/a	0	0	0
699.962	n/a	WORD	349981	wordpools/wasnorm_wordpool_576.txt	LTP317	ltpFR2	5	3	LADDER	793	n/a	n/a	0	0	0
702.696	n/a	WORD	351348	wordpools/wasnorm_wordpool_576.txt	LTP317	ltpFR2	5	3	MEDAL	885	n/a	n/a	0	0	0
705.482	n/a	WORD	352741	wordpools/wasnorm_wordpool_576.txt	LTP317	ltpFR2	5	3	DRAGON	492	n/a	n/a	0	0	0
707.086	n/a	START	353543	n/a	LTP317	ltpFR2	5	n/a	n/a	n/a	4	n/a	n/a	n/a	n/a
707.928	n/a	DISTRACTOR	353964	n/a	LTP317	ltpFR2	5	3	n/a	n/a	n/a	n/a	0	0	0
707.934	n/a	PROB	353967	n/a	LTP317	ltpFR2	5	n/a	n/a	n/a	4	7	2	3	2
709.7	n/a	PROB	354850	n/a	LTP317	ltpFR2	5	n/a	n/a	n/a	4	11	7	1	3
712.554	n/a	PROB	356277	n/a	LTP317	ltpFR2	5	n/a	n/a	n/a	4	16	3	8	5
714.588	n/a	PROB	357294	n/a	LTP317	ltpFR2	5	n/a	n/a	n/a	4	2	5	9	7
719.446	n/a	PROB	359723	n/a	LTP317	ltpFR2	5	n/a	n/a	n/a	4	16	1	7	8
721.18	n/a	PROB	360590	n/a	LTP317	ltpFR2	5	n/a	n/a	n/a	4	12	1	4	7
722.962	n/a	PROB	361481	n/a	LTP317	ltpFR2	5	n/a	n/a	n/a	4	17	6	5	6
724.898	n/a	PROB	362449	n/a	LTP317	ltpFR2	5	n/a	n/a	n/a	4	13	6	3	4
726.968	n/a	PROB	363484	n/a	LTP317	ltpFR2	5	n/a	n/a	n/a	4	21	9	7	5
729.104	n/a	PROB	364552	n/a	LTP317	ltpFR2	5	n/a	n/a	n/a	4	15	5	4	6
731.04	n/a	STOP	365520	n/a	LTP317	ltpFR2	5	n/a	n/a	n/a	4	n/a	n/a	n/a	n/a
733.024	n/a	REC_START	366512	n/a	LTP317	ltpFR2	5	3	n/a	n/a	n/a	n/a	0	0	0
734.306	n/a	REC_WORD	367153	wordpools/wasnorm_wordpool_576.txt	LTP317	ltpFR2	5	3	DRAGON	492	n/a	n/a	0	0	0
743.682	n/a	REC_WORD	371841	wordpools/wasnorm_wordpool_576.txt	LTP317	ltpFR2	5	3	OX	994	n/a	n/a	0	0	0
748.088	n/a	REC_WORD	374044	wordpools/wasnorm_wordpool_576.txt	LTP317	ltpFR2	5	3	NEUTRON	947	n/a	n/a	0	0	0
749.338	n/a	REC_WORD	374669	wordpools/wasnorm_wordpool_576.txt	LTP317	ltpFR2	5	3	CHEMIST	292	n/a	n/a	0	0	0
750.608	n/a	REC_WORD	375304	wordpools/wasnorm_wordpool_576.txt	LTP317	ltpFR2	5	3	BEAKER	104	n/a	n/a	0	0	0
752.13	n/a	REC_WORD	376065	wordpools/wasnorm_wordpool_576.txt	LTP317	ltpFR2	5	3	FLASK	576	n/a	n/a	0	0	0
756.572	n/a	REC_WORD	378286	wordpools/wasnorm_wordpool_576.txt	LTP317	ltpFR2	5	3	ASIA	46	n/a	n/a	0	0	0
757.87	n/a	REC_WORD	378935	wordpools/wasnorm_wordpool_576.txt	LTP317	ltpFR2	5	3	LONDON	843	n/a	n/a	0	0	0
773.47	n/a	REC_WORD	386735	wordpools/wasnorm_wordpool_576.txt	LTP317	ltpFR2	5	3	MESSAGE	888	n/a	n/a	0	0	0
823.444	n/a	DISTRACTOR	411722	n/a	LTP317	ltpFR2	5	4	n/a	n/a	n/a	n/a	0	0	0
823.444	n/a	START	411722	n/a	LTP317	ltpFR2	5	n/a	n/a	n/a	5	n/a	n/a	n/a	n/a
823.46	n/a	PROB	411730	n/a	LTP317	ltpFR2	5	n/a	n/a	n/a	5	17	1	9	7
825.478	n/a	PROB	412739	n/a	LTP317	ltpFR2	5	n/a	n/a	n/a	5	15	2	7	6
827.044	n/a	PROB	413522	n/a	LTP317	ltpFR2	5	n/a	n/a	n/a	5	14	1	7	6
828.53	n/a	PROB	414265	n/a	LTP317	ltpFR2	5	n/a	n/a	n/a	5	13	6	4	3
830.016	n/a	PROB	415008	n/a	LTP317	ltpFR2	5	n/a	n/a	n/a	5	14	4	9	1
831.882	n/a	PROB	415941	n/a	LTP317	ltpFR2	5	n/a	n/a	n/a	5	15	4	9	2
833.734	n/a	PROB	416867	n/a	LTP317	ltpFR2	5	n/a	n/a	n/a	5	13	5	1	7
835.368	n/a	PROB	417684	n/a	LTP317	ltpFR2	5	n/a	n/a	n/a	5	4	1	2	1
836.586	n/a	PROB	418293	n/a	LTP317	ltpFR2	5	n/a	n/a	n/a	5	21	5	9	7
839.004	n/a	PROB	419502	n/a	LTP317	ltpFR2	5	n/a	n/a	n/a	5	19	8	9	2
840.956	n/a	PROB	420478	n/a	LTP317	ltpFR2	5	n/a	n/a	n/a	5	15	2	8	5
842.206	n/a	PROB	421103	n/a	LTP317	ltpFR2	5	n/a	n/a	n/a	5	13	6	3	4
843.84	n/a	PROB	421920	n/a	LTP317	ltpFR2	5	n/a	n/a	n/a	5	13	6	2	5
847.442	n/a	STOP	423721	n/a	LTP317	ltpFR2	5	n/a	n/a	n/a	5	n/a	n/a	n/a	n/a
848.48	n/a	WORD	424240	wordpools/wasnorm_wordpool_576.txt	LTP317	ltpFR2	5	4	COCKTAIL	338	n/a	n/a	0	0	0
851.206	n/a	WORD	425603	wordpools/wasnorm_wordpool_576.txt	LTP317	ltpFR2	5	4	BOYFRIEND	162	n/a	n/a	0	0	0
853.89	n/a	WORD	426945	wordpools/wasnorm_wordpool_576.txt	LTP317	ltpFR2	5	4	GRIZZLY	662	n/a	n/a	0	0	0
856.618	n/a	WORD	428309	wordpools/wasnorm_wordpool_576.txt	LTP317	ltpFR2	5	4	EGYPT	519	n/a	n/a	0	0	0
859.162	n/a	WORD	429581	wordpools/wasnorm_wordpool_576.txt	LTP317	ltpFR2	5	4	TEMPLE	1448	n/a	n/a	0	0	0
861.614	n/a	WORD	430807	wordpools/wasnorm_wordpool_576.txt	LTP317	ltpFR2	5	4	OMELET	976	n/a	n/a	0	0	0
864.25	n/a	WORD	432125	wordpools/wasnorm_wordpool_576.txt	LTP317	ltpFR2	5	4	MARINE	869	n/a	n/a	0	0	0
866.844	n/a	WORD	433422	wordpools/wasnorm_wordpool_576.txt	LTP317	ltpFR2	5	4	TOMBSTONE	1478	n/a	n/a	0	0	0
869.278	n/a	WORD	434639	wordpools/wasnorm_wordpool_576.txt	LTP317	ltpFR2	5	4	BREAST	171	n/a	n/a	0	0	0
872.024	n/a	WORD	436012	wordpools/wasnorm_wordpool_576.txt	LTP317	ltpFR2	5	4	CYCLONE	431	n/a	n/a	0	0	0
874.518	n/a	WORD	437259	wordpools/wasnorm_wordpool_576.txt	LTP317	ltpFR2	5	4	TWISTER	1530	n/a	n/a	0	0	0
877.112	n/a	WORD	438556	wordpools/wasnorm_wordpool_576.txt	LTP317	ltpFR2	5	4	AIRPORT	13	n/a	n/a	0	0	0
879.836	n/a	WORD	439918	wordpools/wasnorm_wordpool_576.txt	LTP317	ltpFR2	5	4	SALAD	1224	n/a	n/a	0	0	0
882.482	n/a	WORD	441241	wordpools/wasnorm_wordpool_576.txt	LTP317	ltpFR2	5	4	CHILD	299	n/a	n/a	0	0	0
884.958	n/a	WORD	442479	wordpools/wasnorm_wordpool_576.txt	LTP317	ltpFR2	5	4	ROOSTER	1209	n/a	n/a	0	0	0
887.41	n/a	WORD	443705	wordpools/wasnorm_wordpool_576.txt	LTP317	ltpFR2	5	4	KEEPER	769	n/a	n/a	0	0	0
890.012	n/a	WORD	445006	wordpools/wasnorm_wordpool_576.txt	LTP317	ltpFR2	5	4	OZONE	996	n/a	n/a	0	0	0
892.574	n/a	WORD	446287	wordpools/wasnorm_wordpool_576.txt	LTP317	ltpFR2	5	4	PARENT	1013	n/a	n/a	0	0	0
895.092	n/a	WORD	447546	wordpools/wasnorm_wordpool_576.txt	LTP317	ltpFR2	5	4	MATTRESS	879	n/a	n/a	0	0	0
897.834	n/a	WORD	448917	wordpools/wasnorm_wordpool_576.txt	LTP317	ltpFR2	5	4	IGLOO	734	n/a	n/a	0	0	0
900.612	n/a	WORD	450306	wordpools/wasnorm_wordpool_576.txt	LTP317	ltpFR2	5	4	SHELF	1280	n/a	n/a	0	0	0
903.384	n/a	WORD	451692	wordpools/wasnorm_wordpool_576.txt	LTP317	ltpFR2	5	4	HELMET	702	n/a	n/a	0	0	0
906.086	n/a	WORD	453043	wordpools/wasnorm_wordpool_576.txt	LTP317	ltpFR2	5	4	MOTOR	922	n/a	n/a	0	0	0
908.57	n/a	WORD	454285	wordpools/wasnorm_wordpool_576.txt	LTP317	ltpFR2	5	4	HOOK	715	n/a	n/a	0	0	0
910.18	n/a	START	455090	n/a	LTP317	ltpFR2	5	n/a	n/a	n/a	6	n/a	n/a	n/a	n/a
911.326	n/a	DISTRACTOR	455663	n/a	LTP317	ltpFR2	5	4	n/a	n/a	n/a	n/a	0	0	0
911.34	n/a	PROB	455670	n/a	LTP317	ltpFR2	5	n/a	n/a	n/a	6	11	7	1	3
913.778	n/a	PROB	456889	n/a	LTP317	ltpFR2	5	n/a	n/a	n/a	6	15	4	6	5
915.098	n/a	PROB	457549	n/a	LTP317	ltpFR2	5	n/a	n/a	n/a	6	13	5	7	1
916.366	n/a	PROB	458183	n/a	LTP317	ltpFR2	5	n/a	n/a	n/a	6	21	9	4	8
919.682	n/a	PROB	459841	n/a	LTP317	ltpFR2	5	n/a	n/a	n/a	6	21	6	7	8
921.97	n/a	PROB	460985	n/a	LTP317	ltpFR2	5	n/a	n/a	n/a	6	10	1	2	7
923.388	n/a	PROB	461694	n/a	LTP317	ltpFR2	5	n/a	n/a	n/a	6	24	8	7	8
926.57	n/a	PROB	463285	n/a	LTP317	ltpFR2	5	n/a	n/a	n/a	6	15	5	7	3
927.976	n/a	PROB	463988	n/a	LTP317	ltpFR2	5	n/a	n/a	n/a	6	16	4	5	7
929.438	n/a	PROB	464719	n/a	LTP317	ltpFR2	5	n/a	n/a	n/a	6	20	9	4	7
932.34	n/a	PROB	466170	n/a	LTP317	ltpFR2	5	n/a	n/a	n/a	6	13	2	4	7
933.842	n/a	STOP	466921	n/a	LTP317	ltpFR2	5	n/a	n/a	n/a	6	n/a	n/a	n/a	n/a
936.114	n/a	REC_START	468057	n/a	LTP317	ltpFR2	5	4	n/a	n/a	n/a	n/a	0	0	0
938.318	n/a	REC_WORD	469159	wordpools/wasnorm_wordpool_576.txt	LTP317	ltpFR2	5	4	CYCLONE	431	n/a	n/a	0	0	0
939.45	n/a	REC_WORD	469725	wordpools/wasnorm_wordpool_576.txt	LTP317	ltpFR2	5	4	TWISTER	1530	n/a	n/a	0	0	0
940.234	n/a	REC_WORD	470117	wordpools/wasnorm_wordpool_576.txt	LTP317	ltpFR2	5	4	KEEPER	769	n/a	n/a	0	0	0
941.352	n/a	REC_WORD	470676	wordpools/wasnorm_wordpool_576.txt	LTP317	ltpFR2	5	4	AIRPORT	13	n/a	n/a	0	0	0
942.114	n/a	REC_WORD	471057	wordpools/wasnorm_wordpool_576.txt	LTP317	ltpFR2	5	4	SALAD	1224	n/a	n/a	0	0	0
943.682	n/a	REC_WORD	471841	wordpools/wasnorm_wordpool_576.txt	LTP317	ltpFR2	5	4	COCKTAIL	338	n/a	n/a	0	0	0
944.43	n/a	REC_WORD	472215	wordpools/wasnorm_wordpool_576.txt	LTP317	ltpFR2	5	4	BOYFRIEND	162	n/a	n/a	0	0	0
960.472	n/a	REC_WORD	480236	wordpools/wasnorm_wordpool_576.txt	LTP317	ltpFR2	5	4	MATTRESS	879	n/a	n/a	0	0	0
962.964	n/a	REC_WORD	481482	wordpools/wasnorm_wordpool_576.txt	LTP317	ltpFR2	5	4	BREAST	171	n/a	n/a	0	0	0
1026.582	n/a	WORD	513291	wordpools/wasnorm_wordpool_576.txt	LTP317	ltpFR2	5	5	SNAIL	1332	n/a	n/a	0	0	0
1029.256	n/a	WORD	514628	wordpools/wasnorm_wordpool_576.txt	LTP317	ltpFR2	5	5	INFANT	737	n/a	n/a	0	0	0
1031.938	n/a	WORD	515969	wordpools/wasnorm_wordpool_576.txt	LTP317	ltpFR2	5	5	KNIFE	785	n/a	n/a	0	0	0
1034.392	n/a	WORD	517196	wordpools/wasnorm_wordpool_576.txt	LTP317	ltpFR2	5	5	GLOBE	641	n/a	n/a	0	0	0
1036.998	n/a	WORD	518499	wordpools/wasnorm_wordpool_576.txt	LTP317	ltpFR2	5	5	ZIPPER	1636	n/a	n/a	0	0	0
1039.778	n/a	WORD	519889	wordpools/wasnorm_wordpool_576.txt	LTP317	ltpFR2	5	5	PLAID	1080	n/a	n/a	0	0	0
1042.232	n/a	WORD	521116	wordpools/wasnorm_wordpool_576.txt	LTP317	ltpFR2	5	5	WINDOW	1611	n/a	n/a	0	0	0
1044.836	n/a	WORD	522418	wordpools/wasnorm_wordpool_576.txt	LTP317	ltpFR2	5	5	PRINCE	1124	n/a	n/a	0	0	0
1047.602	n/a	WORD	523801	wordpools/wasnorm_wordpool_576.txt	LTP317	ltpFR2	5	5	HERO	706	n/a	n/a	0	0	0
1050.026	n/a	WORD	525013	wordpools/wasnorm_wordpool_576.txt	LTP317	ltpFR2	5	5	CURTAIN	427	n/a	n/a	0	0	0
1052.49	n/a	WORD	526245	wordpools/wasnorm_wordpool_576.txt	LTP317	ltpFR2	5	5	BALLOON	75	n/a	n/a	0	0	0
1054.956	n/a	WORD	527478	wordpools/wasnorm_wordpool_576.txt	LTP317	ltpFR2	5	5	CLOUD	328	n/a	n/a	0	0	0
1057.626	n/a	WORD	528813	wordpools/wasnorm_wordpool_576.txt	LTP317	ltpFR2	5	5	APRON	35	n/a	n/a	0	0	0
1060.162	n/a	WORD	530081	wordpools/wasnorm_wordpool_576.txt	LTP317	ltpFR2	5	5	GLASS	639	n/a	n/a	0	0	0
1062.8	n/a	WORD	531400	wordpools/wasnorm_wordpool_576.txt	LTP317	ltpFR2	5	5	CASHIER	254	n/a	n/a	0	0	0
1065.598	n/a	WORD	532799	wordpools/wasnorm_wordpool_576.txt	LTP317	ltpFR2	5	5	CASHEW	253	n/a	n/a	0	0	0
1068.39	n/a	WORD	534195	wordpools/wasnorm_wordpool_576.txt	LTP317	ltpFR2	5	5	BUGGY	188	n/a	n/a	0	0	0
1071.12	n/a	WORD	535560	wordpools/wasnorm_wordpool_576.txt	LTP317	ltpFR2	5	5	SERVANT	1271	n/a	n/a	0	0	0
1073.738	n/a	WORD	536869	wordpools/wasnorm_wordpool_576.txt	LTP317	ltpFR2	5	5	ICEBERG	731	n/a	n/a	0	0	0
1076.38	n/a	WORD	538190	wordpools/wasnorm_wordpool_576.txt	LTP317	ltpFR2	5	5	FREEZER	604	n/a	n/a	0	0	0
1078.926	n/a	WORD	539463	wordpools/wasnorm_wordpool_576.txt	LTP317	ltpFR2	5	5	SCALLOP	1242	n/a	n/a	0	0	0
1081.594	n/a	WORD	540797	wordpools/wasnorm_wordpool_576.txt	LTP317	ltpFR2	5	5	MUFFIN	929	n/a	n/a	0	0	0
1084.046	n/a	WORD	542023	wordpools/wasnorm_wordpool_576.txt	LTP317	ltpFR2	5	5	DRAWING	494	n/a	n/a	0	0	0
1086.788	n/a	WORD	543394	wordpools/wasnorm_wordpool_576.txt	LTP317	ltpFR2	5	5	ATLAS	53	n/a	n/a	0	0	0
1088.4	n/a	START	544200	n/a	LTP317	ltpFR2	5	n/a	n/a	n/a	7	n/a	n/a	n/a	n/a
1089.49	n/a	DISTRACTOR	544745	n/a	LTP317	ltpFR2	5	5	n/a	n/a	n/a	n/a	0	0	0
1089.5	n/a	PROB	544750	n/a	LTP317	ltpFR2	5	n/a	n/a	n/a	7	24	6	8	8
1091.952	n/a	PROB	545976	n/a	LTP317	ltpFR2	5	n/a	n/a	n/a	7	21	6	6	9
1094.204	n/a	PROB	547102	n/a	LTP317	ltpFR2	5	n/a	n/a	n/a	7	22	7	8	7
1096.638	n/a	PROB	548319	n/a	LTP317	ltpFR2	5	n/a	n/a	n/a	7	18	9	5	4
1099.374	n/a	PROB	549687	n/a	LTP317	ltpFR2	5	n/a	n/a	n/a	7	10	2	6	2
1100.992	n/a	PROB	550496	n/a	LTP317	ltpFR2	5	n/a	n/a	n/a	7	21	8	7	6
1102.51	n/a	PROB	551255	n/a	LTP317	ltpFR2	5	n/a	n/a	n/a	7	24	8	9	7
1104.944	n/a	PROB	552472	n/a	LTP317	ltpFR2	5	n/a	n/a	n/a	7	11	2	6	3
1107.398	n/a	PROB	553699	n/a	LTP317	ltpFR2	5	n/a	n/a	n/a	7	14	1	5	8
1108.796	n/a	PROB	554398	n/a	LTP317	ltpFR2	5	n/a	n/a	n/a	7	17	4	7	6
1111.246	n/a	STOP	555623	n/a	LTP317	ltpFR2	5	n/a	n/a	n/a	7	n/a	n/a	n/a	n/a
1114.338	n/a	REC_START	557169	n/a	LTP317	ltpFR2	5	5	n/a	n/a	n/a	n/a	0	0	0
1115.444	n/a	REC_WORD	557722	wordpools/wasnorm_wordpool_576.txt	LTP317	ltpFR2	5	5	SNAIL	1332	n/a	n/a	0	0	0
1116.822	n/a	REC_WORD	558411	wordpools/wasnorm_wordpool_576.txt	LTP317	ltpFR2	5	5	INFANT	737	n/a	n/a	0	0	0
1118.174	n/a	REC_WORD	559087	wordpools/wasnorm_wordpool_576.txt	LTP317	ltpFR2	5	5	KNIFE	785	n/a	n/a	0	0	0
1119.546	n/a	REC_WORD	559773	wordpools/wasnorm_wordpool_576.txt	LTP317	ltpFR2	5	5	GLOBE	641	n/a	n/a	0	0	0
1120.908	n/a	REC_WORD	560454	wordpools/wasnorm_wordpool_576.txt	LTP317	ltpFR2	5	5	ZIPPER	1636	n/a	n/a	0	0	0
1122.11	n/a	REC_WORD	561055	wordpools/wasnorm_wordpool_576.txt	LTP317	ltpFR2	5	5	FREEZER	604	n/a	n/a	0	0	0
1127.954	n/a	REC_WORD	563977	wordpools/wasnorm_wordpool_576.txt	LTP317	ltpFR2	5	5	ICEBERG	731	n/a	n/a	0	0	0
1129.948	n/a	REC_WORD	564974	wordpools/wasnorm_wordpool_576.txt	LTP317	ltpFR2	5	5	PRINCE	1124	n/a	n/a	0	0	0
1131.042	n/a	REC_WORD	565521	wordpools/wasnorm_wordpool_576.txt	LTP317	ltpFR2	5	5	WINDOW	1611	n/a	n/a	0	0	0
1132.334	n/a	REC_WORD	566167	wordpools/wasnorm_wordpool_576.txt	LTP317	ltpFR2	5	5	CASHIER	254	n/a	n/a	0	0	0
1133.788	n/a	REC_WORD	566894	wordpools/wasnorm_wordpool_576.txt	LTP317	ltpFR2	5	5	GLASS	639	n/a	n/a	0	0	0
1204.79	n/a	DISTRACTOR	602395	n/a	LTP317	ltpFR2	5	6	n/a	n/a	n/a	n/a	0	0	0
1204.79	n/a	START	602395	n/a	LTP317	ltpFR2	5	n/a	n/a	n/a	8	n/a	n/a	n/a	n/a
1204.806	n/a	PROB	602403	n/a	LTP317	ltpFR2	5	n/a	n/a	n/a	8	20	7	4	9
1206.624	n/a	PROB	603312	n/a	LTP317	ltpFR2	5	n/a	n/a	n/a	8	18	9	2	7
1208.308	n/a	PROB	604154	n/a	LTP317	ltpFR2	5	n/a	n/a	n/a	8	12	8	2	2
1210.592	n/a	PROB	605296	n/a	LTP317	ltpFR2	5	n/a	n/a	n/a	8	20	7	6	7
1212.214	n/a	PROB	606107	n/a	LTP317	ltpFR2	5	n/a	n/a	n/a	8	10	3	6	1
1213.998	n/a	PROB	606999	n/a	LTP317	ltpFR2	5	n/a	n/a	n/a	8	11	1	5	5
1216.032	n/a	PROB	608016	n/a	LTP317	ltpFR2	5	n/a	n/a	n/a	8	12	2	6	4
1217.634	n/a	PROB	608817	n/a	LTP317	ltpFR2	5	n/a	n/a	n/a	8	21	4	8	9
1221.02	n/a	PROB	610510	n/a	LTP317	ltpFR2	5	n/a	n/a	n/a	8	20	9	4	7
1223.12	n/a	PROB	611560	n/a	LTP317	ltpFR2	5	n/a	n/a	n/a	8	16	7	3	6
1224.59	n/a	PROB	612295	n/a	LTP317	ltpFR2	5	n/a	n/a	n/a	8	9	2	6	1
1226.024	n/a	PROB	613012	n/a	LTP317	ltpFR2	5	n/a	n/a	n/a	8	11	5	5	1
1227.14	n/a	PROB	613570	n/a	LTP317	ltpFR2	5	n/a	n/a	n/a	8	16	8	7	1
1228.44	n/a	STOP	614220	n/a	LTP317	ltpFR2	5	n/a	n/a	n/a	8	n/a	n/a	n/a	n/a
1229.91	n/a	WORD	614955	wordpools/wasnorm_wordpool_576.txt	LTP317	ltpFR2	5	6	FIDDLE	561	n/a	n/a	0	0	0
1232.346	n/a	WORD	616173	wordpools/wasnorm_wordpool_576.txt	LTP317	ltpFR2	5	6	CORAL	378	n/a	n/a	0	0	0
1235.164	n/a	WORD	617582	wordpools/wasnorm_wordpool_576.txt	LTP317	ltpFR2	5	6	COOK	372	n/a	n/a	0	0	0
1237.864	n/a	WORD	618932	wordpools/wasnorm_wordpool_576.txt	LTP317	ltpFR2	5	6	SKETCH	1315	n/a	n/a	0	0	0
1240.318	n/a	WORD	620159	wordpools/wasnorm_wordpool_576.txt	LTP317	ltpFR2	5	6	BRICK	172	n/a	n/a	0	0	0
1242.752	n/a	WORD	621376	wordpools/wasnorm_wordpool_576.txt	LTP317	ltpFR2	5	6	COUNTY	389	n/a	n/a	0	0	0
1245.456	n/a	WORD	622728	wordpools/wasnorm_wordpool_576.txt	LTP317	ltpFR2	5	6	GHETTO	633	n/a	n/a	0	0	0
1248.058	n/a	WORD	624029	wordpools/wasnorm_wordpool_576.txt	LTP317	ltpFR2	5	6	SUBWAY	1400	n/a	n/a	0	0	0
1250.544	n/a	WORD	625272	wordpools/wasnorm_wordpool_576.txt	LTP317	ltpFR2	5	6	POISON	1096	n/a	n/a	0	0	0
1253.148	n/a	WORD	626574	wordpools/wasnorm_wordpool_576.txt	LTP317	ltpFR2	5	6	SNAKE	1333	n/a	n/a	0	0	0
1255.78	n/a	WORD	627890	wordpools/wasnorm_wordpool_576.txt	LTP317	ltpFR2	5	6	NAPKIN	937	n/a	n/a	0	0	0
1258.398	n/a	WORD	629199	wordpools/wasnorm_wordpool_576.txt	LTP317	ltpFR2	5	6	MOP	916	n/a	n/a	0	0	0
1261.034	n/a	WORD	630517	wordpools/wasnorm_wordpool_576.txt	LTP317	ltpFR2	5	6	CIGAR	308	n/a	n/a	0	0	0
1263.854	n/a	WORD	631927	wordpools/wasnorm_wordpool_576.txt	LTP317	ltpFR2	5	6	GARDEN	623	n/a	n/a	0	0	0
1266.606	n/a	WORD	633303	wordpools/wasnorm_wordpool_576.txt	LTP317	ltpFR2	5	6	COUNTRY	388	n/a	n/a	0	0	0
1269.41	n/a	WORD	634705	wordpools/wasnorm_wordpool_576.txt	LTP317	ltpFR2	5	6	VIKING	1565	n/a	n/a	0	0	0
1272.192	n/a	WORD	636096	wordpools/wasnorm_wordpool_576.txt	LTP317	ltpFR2	5	6	JOURNAL	760	n/a	n/a	0	0	0
1274.644	n/a	WORD	637322	wordpools/wasnorm_wordpool_576.txt	LTP317	ltpFR2	5	6	NOTEBOOK	959	n/a	n/a	0	0	0
1277.114	n/a	WORD	638557	wordpools/wasnorm_wordpool_576.txt	LTP317	ltpFR2	5	6	RAFT	1159	n/a	n/a	0	0	0
1279.598	n/a	WORD	639799	wordpools/wasnorm_wordpool_576.txt	LTP317	ltpFR2	5	6	ONION	977	n/a	n/a	0	0	0
1282.034	n/a	WORD	641017	wordpools/wasnorm_wordpool_576.txt	LTP317	ltpFR2	5	6	MAMMAL	861	n/a	n/a	0	0	0
1284.688	n/a	WORD	642344	wordpools/wasnorm_wordpool_576.txt	LTP317	ltpFR2	5	6	CHAUFFEUR	283	n/a	n/a	0	0	0
1287.372	n/a	WORD	643686	wordpools/wasnorm_wordpool_576.txt	LTP317	ltpFR2	5	6	MILK	895	n/a	n/a	0	0	0
1289.84	n/a	WORD	644920	wordpools/wasnorm_wordpool_576.txt	LTP317	ltpFR2	5	6	COOKBOOK	373	n/a	n/a	0	0	0
1291.446	n/a	START	645723	n/a	LTP317	ltpFR2	5	n/a	n/a	n/a	9	n/a	n/a	n/a	n/a
1292.602	n/a	DISTRACTOR	646301	n/a	LTP317	ltpFR2	5	6	n/a	n/a	n/a	n/a	0	0	0
1292.608	n/a	PROB	646304	n/a	LTP317	ltpFR2	5	n/a	n/a	n/a	9	15	9	5	1
1295.644	n/a	PROB	647822	n/a	LTP317	ltpFR2	5	n/a	n/a	n/a	9	17	5	9	3
1298.014	n/a	PROB	649007	n/a	LTP317	ltpFR2	5	n/a	n/a	n/a	9	11	1	5	5
1300.3	n/a	PROB	650150	n/a	LTP317	ltpFR2	5	n/a	n/a	n/a	9	15	7	2	6
1301.7	n/a	PROB	650850	n/a	LTP317	ltpFR2	5	n/a	n/a	n/a	9	16	8	3	5
1303.3	n/a	PROB	651650	n/a	LTP317	ltpFR2	5	n/a	n/a	n/a	9	17	1	8	8
1305.334	n/a	PROB	652667	n/a	LTP317	ltpFR2	5	n/a	n/a	n/a	9	16	7	4	5
1307.17	n/a	PROB	653585	n/a	LTP317	ltpFR2	5	n/a	n/a	n/a	9	12	3	4	5
1308.722	n/a	PROB	654361	n/a	LTP317	ltpFR2	5	n/a	n/a	n/a	9	17	8	3	6
1310.322	n/a	PROB	655161	n/a	LTP317	ltpFR2	5	n/a	n/a	n/a	9	9	4	4	1
1312.024	n/a	PROB	656012	n/a	LTP317	ltpFR2	5	n/a	n/a	n/a	9	25	8	8	9
1313.986	n/a	STOP	656993	n/a	LTP317	ltpFR2	5	n/a	n/a	n/a	9	n/a	n/a	n/a	n/a
1317.276	n/a	REC_START	658638	n/a	LTP317	ltpFR2	5	6	n/a	n/a	n/a	n/a	0	0	0
1318.28	n/a	REC_WORD	659140	wordpools/wasnorm_wordpool_576.txt	LTP317	ltpFR2	5	6	FIDDLE	561	n/a	n/a	0	0	0
1319.67	n/a	REC_WORD	659835	wordpools/wasnorm_wordpool_576.txt	LTP317	ltpFR2	5	6	CORAL	378	n/a	n/a	0	0	0
1321.408	n/a	REC_WORD	660704	wordpools/wasnorm_wordpool_576.txt	LTP317	ltpFR2	5	6	COOK	372	n/a	n/a	0	0	0
1322.71	n/a	REC_WORD	661355	wordpools/wasnorm_wordpool_576.txt	LTP317	ltpFR2	5	6	SKETCH	1315	n/a	n/a	0	0	0
1324.19	n/a	REC_WORD	662095	wordpools/wasnorm_wordpool_576.txt	LTP317	ltpFR2	5	6	BRICK	172	n/a	n/a	0	0	0
1327.428	n/a	REC_WORD	663714	wordpools/wasnorm_wordpool_576.txt	LTP317	ltpFR2	5	6	COOKBOOK	373	n/a	n/a	0	0	0
1335.664	n/a	REC_WORD	667832	wordpools/wasnorm_wordpool_576.txt	LTP317	ltpFR2	5	6	RAFT	1159	n/a	n/a	0	0	0
1375.1	n/a	REC_WORD	687550	wordpools/wasnorm_wordpool_576.txt	LTP317	ltpFR2	5	6	POISON	1096	n/a	n/a	0	0	0
1376.238	n/a	REC_WORD	688119	wordpools/wasnorm_wordpool_576.txt	LTP317	ltpFR2	5	6	GARDEN	623	n/a	n/a	0	0	0
1407.708	n/a	WORD	703854	wordpools/wasnorm_wordpool_576.txt	LTP317	ltpFR2	5	7	HOOD	714	n/a	n/a	0	0	0
1410.48	n/a	WORD	705240	wordpools/wasnorm_wordpool_576.txt	LTP317	ltpFR2	5	7	PISTON	1076	n/a	n/a	0	0	0
1412.898	n/a	WORD	706449	wordpools/wasnorm_wordpool_576.txt	LTP317	ltpFR2	5	7	RAZOR	1171	n/a	n/a	0	0	0
1415.588	n/a	WORD	707794	wordpools/wasnorm_wordpool_576.txt	LTP317	ltpFR2	5	7	PARSLEY	1016	n/a	n/a	0	0	0
1418.238	n/a	WORD	709119	wordpools/wasnorm_wordpool_576.txt	LTP317	ltpFR2	5	7	SCULPTURE	1258	n/a	n/a	0	0	0
1421.01	n/a	WORD	710505	wordpools/wasnorm_wordpool_576.txt	LTP317	ltpFR2	5	7	LADY	794	n/a	n/a	0	0	0
1423.624	n/a	WORD	711812	wordpools/wasnorm_wordpool_576.txt	LTP317	ltpFR2	5	7	CATTLE	261	n/a	n/a	0	0	0
1426.044	n/a	WORD	713022	wordpools/wasnorm_wordpool_576.txt	LTP317	ltpFR2	5	7	SIDEWALK	1303	n/a	n/a	0	0	0
1428.796	n/a	WORD	714398	wordpools/wasnorm_wordpool_576.txt	LTP317	ltpFR2	5	7	BARLEY	88	n/a	n/a	0	0	0
1431.58	n/a	WORD	715790	wordpools/wasnorm_wordpool_576.txt	LTP317	ltpFR2	5	7	CRAB	397	n/a	n/a	0	0	0
1434.218	n/a	WORD	717109	wordpools/wasnorm_wordpool_576.txt	LTP317	ltpFR2	5	7	LABEL	790	n/a	n/a	0	0	0
1436.936	n/a	WORD	718468	wordpools/wasnorm_wordpool_576.txt	LTP317	ltpFR2	5	7	SWORD	1423	n/a	n/a	0	0	0
1439.54	n/a	WORD	719770	wordpools/wasnorm_wordpool_576.txt	LTP317	ltpFR2	5	7	HUMAN	726	n/a	n/a	0	0	0
1442.108	n/a	WORD	721054	wordpools/wasnorm_wordpool_576.txt	LTP317	ltpFR2	5	7	REPORT	1184	n/a	n/a	0	0	0
1444.626	n/a	WORD	722313	wordpools/wasnorm_wordpool_576.txt	LTP317	ltpFR2	5	7	COIN	343	n/a	n/a	0	0	0
1447.294	n/a	WORD	723647	wordpools/wasnorm_wordpool_576.txt	LTP317	ltpFR2	5	7	TUBA	1515	n/a	n/a	0	0	0
1449.83	n/a	WORD	724915	wordpools/wasnorm_wordpool_576.txt	LTP317	ltpFR2	5	7	NIGHTGOWN	953	n/a	n/a	0	0	0
1452.582	n/a	WORD	726291	wordpools/wasnorm_wordpool_576.txt	LTP317	ltpFR2	5	7	VELVET	1555	n/a	n/a	0	0	0
1455.284	n/a	WORD	727642	wordpools/wasnorm_wordpool_576.txt	LTP317	ltpFR2	5	7	GUARD	667	n/a	n/a	0	0	0
1458.104	n/a	WORD	729052	wordpools/wasnorm_wordpool_576.txt	LTP317	ltpFR2	5	7	HIGHWAY	707	n/a	n/a	0	0	0
1460.538	n/a	WORD	730269	wordpools/wasnorm_wordpool_576.txt	LTP317	ltpFR2	5	7	FLASHLIGHT	575	n/a	n/a	0	0	0
1463.192	n/a	WORD	731596	wordpools/wasnorm_wordpool_576.txt	LTP317	ltpFR2	5	7	DANCER	437	n/a	n/a	0	0	0
1465.642	n/a	WORD	732821	wordpools/wasnorm_wordpool_576.txt	LTP317	ltpFR2	5	7	TUTU	1524	n/a	n/a	0	0	0
1468.096	n/a	WORD	734048	wordpools/wasnorm_wordpool_576.txt	LTP317	ltpFR2	5	7	EAGLE	512	n/a	n/a	0	0	0
1469.714	n/a	START	734857	n/a	LTP317	ltpFR2	5	n/a	n/a	n/a	10	n/a	n/a	n/a	n/a
1470.546	n/a	DISTRACTOR	735273	n/a	LTP317	ltpFR2	5	7	n/a	n/a	n/a	n/a	0	0	0
1470.564	n/a	PROB	735282	n/a	LTP317	ltpFR2	5	n/a	n/a	n/a	10	8	1	1	6
1472.014	n/a	PROB	736007	n/a	LTP317	ltpFR2	5	n/a	n/a	n/a	10	13	1	4	9
1474.1	n/a	PROB	737050	n/a	LTP317	ltpFR2	5	n/a	n/a	n/a	10	6	4	1	1
1475.684	n/a	PROB	737842	n/a	LTP317	ltpFR2	5	n/a	n/a	n/a	10	10	1	8	1
1478.752	n/a	PROB	739376	n/a	LTP317	ltpFR2	5	n/a	n/a	n/a	10	19	6	9	4
1480.838	n/a	PROB	740419	n/a	LTP317	ltpFR2	5	n/a	n/a	n/a	10	16	1	6	9
1484.724	n/a	PROB	742362	n/a	LTP317	ltpFR2	5	n/a	n/a	n/a	10	19	4	5	7
1486.108	n/a	PROB	743054	n/a	LTP317	ltpFR2	5	n/a	n/a	n/a	10	13	4	3	6
1488.012	n/a	PROB	744006	n/a	LTP317	ltpFR2	5	n/a	n/a	n/a	10	17	5	4	8
1489.66	n/a	PROB	744830	n/a	LTP317	ltpFR2	5	n/a	n/a	n/a	10	10	1	4	5
1491.098	n/a	PROB	745549	n/a	LTP317	ltpFR2	5	n/a	n/a	n/a	10	15	2	7	6
1492.66	n/a	STOP	746330	n/a	LTP317	ltpFR2	5	n/a	n/a	n/a	10	n/a	n/a	n/a	n/a
1495.648	n/a	REC_START	747824	n/a	LTP317	ltpFR2	5	7	n/a	n/a	n/a	n/a	0	0	0
1496.728	n/a	REC_WORD	748364	wordpools/wasnorm_wordpool_576.txt	LTP317	ltpFR2	5	7	HOOD	714	n/a	n/a	0	0	0
1497.712	n/a	REC_WORD	748856	wordpools/wasnorm_wordpool_576.txt	LTP317	ltpFR2	5	7	PISTON	1076	n/a	n/a	0	0	0
1502.866	n/a	REC_WORD	751433	wordpools/wasnorm_wordpool_576.txt	LTP317	ltpFR2	5	7	RAZOR	1171	n/a	n/a	0	0	0
1506.386	n/a	REC_WORD	753193	wordpools/wasnorm_wordpool_576.txt	LTP317	ltpFR2	5	7	PARSLEY	1016	n/a	n/a	0	0	0
1508.632	n/a	REC_WORD	754316	wordpools/wasnorm_wordpool_576.txt	LTP317	ltpFR2	5	7	BARLEY	88	n/a	n/a	0	0	0
1509.804	n/a	REC_WORD	754902	wordpools/wasnorm_wordpool_576.txt	LTP317	ltpFR2	5	7	SCULPTURE	1258	n/a	n/a	0	0	0
1512.6	n/a	REC_WORD	756300	wordpools/wasnorm_wordpool_576.txt	LTP317	ltpFR2	5	7	LABEL	790	n/a	n/a	0	0	0
1516.79	n/a	REC_WORD	758395	wordpools/wasnorm_wordpool_576.txt	LTP317	ltpFR2	5	7	VELVET	1555	n/a	n/a	0	0	0
1518.1	n/a	REC_WORD	759050	wordpools/wasnorm_wordpool_576.txt	LTP317	ltpFR2	5	7	LADY	794	n/a	n/a	0	0	0
1520.184	n/a	REC_WORD	760092	wordpools/wasnorm_wordpool_576.txt	LTP317	ltpFR2	5	7	CATTLE	261	n/a	n/a	0	0	0
1534.402	n/a	REC_WORD	767201	wordpools/wasnorm_wordpool_576.txt	LTP317	ltpFR2	5	7	EAGLE	512	n/a	n/a	0	0	0
1543.61	n/a	REC_WORD	771805	wordpools/wasnorm_wordpool_576.txt	LTP317	ltpFR2	5	7	NIGHTGOWN	953	n/a	n/a	0	0	0
1544.79	n/a	REC_WORD	772395	wordpools/wasnorm_wordpool_576.txt	LTP317	ltpFR2	5	7	FLASHLIGHT	575	n/a	n/a	0	0	0
1545.754	n/a	REC_WORD	772877	wordpools/wasnorm_wordpool_576.txt	LTP317	ltpFR2	5	7	SIDEWALK	1303	n/a	n/a	0	0	0
1586.088	n/a	WORD	793044	wordpools/wasnorm_wordpool_576.txt	LTP317	ltpFR2	5	8	JUDGE	761	n/a	n/a	0	0	0
1588.672	n/a	WORD	794336	wordpools/wasnorm_wordpool_576.txt	LTP317	ltpFR2	5	8	RELISH	1183	n/a	n/a	0	0	0
1591.366	n/a	WORD	795683	wordpools/wasnorm_wordpool_576.txt	LTP317	ltpFR2	5	8	CARROT	249	n/a	n/a	0	0	0
1594.178	n/a	WORD	797089	wordpools/wasnorm_wordpool_576.txt	LTP317	ltpFR2	5	8	COTTAGE	384	n/a	n/a	0	0	0
1596.804	n/a	WORD	798402	wordpools/wasnorm_wordpool_576.txt	LTP317	ltpFR2	5	8	DORM	488	n/a	n/a	0	0	0
1599.624	n/a	WORD	799812	wordpools/wasnorm_wordpool_576.txt	LTP317	ltpFR2	5	8	COBRA	336	n/a	n/a	0	0	0
1602.416	n/a	WORD	801208	wordpools/wasnorm_wordpool_576.txt	LTP317	ltpFR2	5	8	LION	827	n/a	n/a	0	0	0
1605.03	n/a	WORD	802515	wordpools/wasnorm_wordpool_576.txt	LTP317	ltpFR2	5	8	PERFUME	1049	n/a	n/a	0	0	0
1607.686	n/a	WORD	803843	wordpools/wasnorm_wordpool_576.txt	LTP317	ltpFR2	5	8	BUBBLE	183	n/a	n/a	0	0	0
1610.184	n/a	WORD	805092	wordpools/wasnorm_wordpool_576.txt	LTP317	ltpFR2	5	8	MUSTARD	935	n/a	n/a	0	0	0
1612.958	n/a	WORD	806479	wordpools/wasnorm_wordpool_576.txt	LTP317	ltpFR2	5	8	ROD	1203	n/a	n/a	0	0	0
1615.488	n/a	WORD	807744	wordpools/wasnorm_wordpool_576.txt	LTP317	ltpFR2	5	8	ITEM	746	n/a	n/a	0	0	0
1618.024	n/a	WORD	809012	wordpools/wasnorm_wordpool_576.txt	LTP317	ltpFR2	5	8	APPLE	33	n/a	n/a	0	0	0
1620.762	n/a	WORD	810381	wordpools/wasnorm_wordpool_576.txt	LTP317	ltpFR2	5	8	PLATE	1086	n/a	n/a	0	0	0
1623.516	n/a	WORD	811758	wordpools/wasnorm_wordpool_576.txt	LTP317	ltpFR2	5	8	TURNIP	1521	n/a	n/a	0	0	0
1626.236	n/a	WORD	813118	wordpools/wasnorm_wordpool_576.txt	LTP317	ltpFR2	5	8	ROBOT	1200	n/a	n/a	0	0	0
1628.898	n/a	WORD	814449	wordpools/wasnorm_wordpool_576.txt	LTP317	ltpFR2	5	8	EUROPE	541	n/a	n/a	0	0	0
1631.684	n/a	WORD	815842	wordpools/wasnorm_wordpool_576.txt	LTP317	ltpFR2	5	8	SERVER	1272	n/a	n/a	0	0	0
1634.454	n/a	WORD	817227	wordpools/wasnorm_wordpool_576.txt	LTP317	ltpFR2	5	8	SUPPER	1411	n/a	n/a	0	0	0
1636.956	n/a	WORD	818478	wordpools/wasnorm_wordpool_576.txt	LTP317	ltpFR2	5	8	GRAVEL	659	n/a	n/a	0	0	0
1639.59	n/a	WORD	819795	wordpools/wasnorm_wordpool_576.txt	LTP317	ltpFR2	5	8	TUNNEL	1519	n/a	n/a	0	0	0
1642.266	n/a	WORD	821133	wordpools/wasnorm_wordpool_576.txt	LTP317	ltpFR2	5	8	PIGEON	1065	n/a	n/a	0	0	0
1645.03	n/a	WORD	822515	wordpools/wasnorm_wordpool_576.txt	LTP317	ltpFR2	5	8	ROBIN	1199	n/a	n/a	0	0	0
1647.648	n/a	WORD	823824	wordpools/wasnorm_wordpool_576.txt	LTP317	ltpFR2	5	8	LOVER	846	n/a	n/a	0	0	0
1649.256	n/a	START	824628	n/a	LTP317	ltpFR2	5	n/a	n/a	n/a	11	n/a	n/a	n/a	n/a
1650.078	n/a	DISTRACTOR	825039	n/a	LTP317	ltpFR2	5	8	n/a	n/a	n/a	n/a	0	0	0
1650.084	n/a	PROB	825042	n/a	LTP317	ltpFR2	5	n/a	n/a	n/a	11	20	2	9	9
1652.456	n/a	PROB	826228	n/a	LTP317	ltpFR2	5	n/a	n/a	n/a	11	12	6	1	5
1653.824	n/a	PROB	826912	n/a	LTP317	ltpFR2	5	n/a	n/a	n/a	11	9	3	5	1
1655.226	n/a	PROB	827613	n/a	LTP317	ltpFR2	5	n/a	n/a	n/a	11	12	7	2	3
1657.338	n/a	PROB	828669	n/a	LTP317	ltpFR2	5	n/a	n/a	n/a	11	14	4	9	1
1659.858	n/a	PROB	829929	n/a	LTP317	ltpFR2	5	n/a	n/a	n/a	11	12	1	3	8
1664.46	n/a	PROB	832230	n/a	LTP317	ltpFR2	5	n/a	n/a	n/a	11	15	4	8	3
1665.81	n/a	PROB	832905	n/a	LTP317	ltpFR2	5	n/a	n/a	n/a	11	18	9	7	2
1667.464	n/a	PROB	833732	n/a	LTP317	ltpFR2	5	n/a	n/a	n/a	11	12	5	5	2
1668.73	n/a	PROB	834365	n/a	LTP317	ltpFR2	5	n/a	n/a	n/a	11	24	9	6	9
1670.684	n/a	PROB	835342	n/a	LTP317	ltpFR2	5	n/a	n/a	n/a	11	21	9	5	7
1673.016	n/a	STOP	836508	n/a	LTP317	ltpFR2	5	n/a	n/a	n/a	11	n/a	n/a	n/a	n/a
1675.108	n/a	REC_START	837554	n/a	LTP317	ltpFR2	5	8	n/a	n/a	n/a	n/a	0	0	0
1675.836	n/a	REC_WORD	837918	wordpools/wasnorm_wordpool_576.txt	LTP317	ltpFR2	5	8	JUDGE	761	n/a	n/a	0	0	0
1676.882	n/a	REC_WORD	838441	wordpools/wasnorm_wordpool_576.txt	LTP317	ltpFR2	5	8	CARROT	249	n/a	n/a	0	0	0
1677.752	n/a	REC_WORD	838876	wordpools/wasnorm_wordpool_576.txt	LTP317	ltpFR2	5	8	COTTAGE	384	n/a	n/a	0	0	0
1679.074	n/a	REC_WORD	839537	wordpools/wasnorm_wordpool_576.txt	LTP317	ltpFR2	5	8	DORM	488	n/a	n/a	0	0	0
1680.254	n/a	REC_WORD	840127	wordpools/wasnorm_wordpool_576.txt	LTP317	ltpFR2	5	8	APPLE	33	n/a	n/a	0	0	0
1681.862	n/a	REC_WORD	840931	wordpools/wasnorm_wordpool_576.txt	LTP317	ltpFR2	5	8	EUROPE	541	n/a	n/a	0	0	0
1689.914	n/a	REC_WORD	844957	wordpools/wasnorm_wordpool_576.txt	LTP317	ltpFR2	5	8	GRAVEL	659	n/a	n/a	0	0	0
1691.28	n/a	REC_WORD	845640	wordpools/wasnorm_wordpool_576.txt	LTP317	ltpFR2	5	8	PIGEON	1065	n/a	n/a	0	0	0
1751.648	n/a	REST_REWET	875824	n/a	LTP317	ltpFR2	5	8	n/a	n/a	n/a	n/a	0	0	0
2029.014	n/a	WORD	1014507	wordpools/wasnorm_wordpool_576.txt	LTP317	ltpFR2	5	9	CHAMPAGNE	278	n/a	n/a	0	0	0
2031.724	n/a	WORD	1015862	wordpools/wasnorm_wordpool_576.txt	LTP317	ltpFR2	5	9	VENUS	1557	n/a	n/a	0	0	0
2034.386	n/a	WORD	1017193	wordpools/wasnorm_wordpool_576.txt	LTP317	ltpFR2	5	9	ARMY	39	n/a	n/a	0	0	0
2036.972	n/a	WORD	1018486	wordpools/wasnorm_wordpool_576.txt	LTP317	ltpFR2	5	9	COLONEL	348	n/a	n/a	0	0	0
2039.74	n/a	WORD	1019870	wordpools/wasnorm_wordpool_576.txt	LTP317	ltpFR2	5	9	SIBLING	1301	n/a	n/a	0	0	0
2042.4	n/a	WORD	1021200	wordpools/wasnorm_wordpool_576.txt	LTP317	ltpFR2	5	9	TRACTOR	1493	n/a	n/a	0	0	0
2044.886	n/a	WORD	1022443	wordpools/wasnorm_wordpool_576.txt	LTP317	ltpFR2	5	9	BEEF	113	n/a	n/a	0	0	0
2047.488	n/a	WORD	1023744	wordpools/wasnorm_wordpool_576.txt	LTP317	ltpFR2	5	9	CONVICT	371	n/a	n/a	0	0	0
2050.084	n/a	WORD	1025042	wordpools/wasnorm_wordpool_576.txt	LTP317	ltpFR2	5	9	CLAMP	316	n/a	n/a	0	0	0
2052.534	n/a	WORD	1026267	wordpools/wasnorm_wordpool_576.txt	LTP317	ltpFR2	5	9	FOOTBALL	591	n/a	n/a	0	0	0
2054.986	n/a	WORD	1027493	wordpools/wasnorm_wordpool_576.txt	LTP317	ltpFR2	5	9	AIRPLANE	12	n/a	n/a	0	0	0
2057.686	n/a	WORD	1028843	wordpools/wasnorm_wordpool_576.txt	LTP317	ltpFR2	5	9	STALLION	1369	n/a	n/a	0	0	0
2060.406	n/a	WORD	1030203	wordpools/wasnorm_wordpool_576.txt	LTP317	ltpFR2	5	9	GAZELLE	628	n/a	n/a	0	0	0
2062.934	n/a	WORD	1031467	wordpools/wasnorm_wordpool_576.txt	LTP317	ltpFR2	5	9	SISTER	1312	n/a	n/a	0	0	0
2065.602	n/a	WORD	1032801	wordpools/wasnorm_wordpool_576.txt	LTP317	ltpFR2	5	9	TEACHER	1440	n/a	n/a	0	0	0
2068.146	n/a	WORD	1034073	wordpools/wasnorm_wordpool_576.txt	LTP317	ltpFR2	5	9	COLLEGE	346	n/a	n/a	0	0	0
2070.564	n/a	WORD	1035282	wordpools/wasnorm_wordpool_576.txt	LTP317	ltpFR2	5	9	FLIPPER	580	n/a	n/a	0	0	0
2073.184	n/a	WORD	1036592	wordpools/wasnorm_wordpool_576.txt	LTP317	ltpFR2	5	9	PLAZA	1088	n/a	n/a	0	0	0
2075.896	n/a	WORD	1037948	wordpools/wasnorm_wordpool_576.txt	LTP317	ltpFR2	5	9	STREAM	1392	n/a	n/a	0	0	0
2078.538	n/a	WORD	1039269	wordpools/wasnorm_wordpool_576.txt	LTP317	ltpFR2	5	9	CASKET	255	n/a	n/a	0	0	0
2081.25	n/a	WORD	1040625	wordpools/wasnorm_wordpool_576.txt	LTP317	ltpFR2	5	9	VICTIM	1562	n/a	n/a	0	0	0
2083.674	n/a	WORD	1041837	wordpools/wasnorm_wordpool_576.txt	LTP317	ltpFR2	5	9	PIGMENT	1066	n/a	n/a	0	0	0
2086.194	n/a	WORD	1043097	wordpools/wasnorm_wordpool_576.txt	LTP317	ltpFR2	5	9	DRESSER	496	n/a	n/a	0	0	0
2088.874	n/a	WORD	1044437	wordpools/wasnorm_wordpool_576.txt	LTP317	ltpFR2	5	9	LIVER	833	n/a	n/a	0	0	0
2090.482	n/a	START	1045241	n/a	LTP317	ltpFR2	5	n/a	n/a	n/a	12	n/a	n/a	n/a	n/a
2091.396	n/a	DISTRACTOR	1045698	n/a	LTP317	ltpFR2	5	9	n/a	n/a	n/a	n/a	0	0	0
2091.408	n/a	PROB	1045704	n/a	LTP317	ltpFR2	5	n/a	n/a	n/a	12	24	7	8	9
2093.832	n/a	PROB	1046916	n/a	LTP317	ltpFR2	5	n/a	n/a	n/a	12	18	4	7	7
2095.718	n/a	PROB	1047859	n/a	LTP317	ltpFR2	5	n/a	n/a	n/a	12	11	8	2	1
2097.67	n/a	PROB	1048835	n/a	LTP317	ltpFR2	5	n/a	n/a	n/a	12	16	1	6	9
2099.152	n/a	PROB	1049576	n/a	LTP317	ltpFR2	5	n/a	n/a	n/a	12	8	5	2	1
2100.904	n/a	PROB	1050452	n/a	LTP317	ltpFR2	5	n/a	n/a	n/a	12	10	5	3	2
2102.374	n/a	PROB	1051187	n/a	LTP317	ltpFR2	5	n/a	n/a	n/a	12	9	3	3	3
2103.456	n/a	PROB	1051728	n/a	LTP317	ltpFR2	5	n/a	n/a	n/a	12	9	2	2	5
2104.806	n/a	PROB	1052403	n/a	LTP317	ltpFR2	5	n/a	n/a	n/a	12	23	5	7	8
2106.774	n/a	PROB	1053387	n/a	LTP317	ltpFR2	5	n/a	n/a	n/a	12	15	2	4	9
2109.794	n/a	PROB	1054897	n/a	LTP317	ltpFR2	5	n/a	n/a	n/a	12	17	8	7	2
2111.512	n/a	PROB	1055756	n/a	LTP317	ltpFR2	5	n/a	n/a	n/a	12	9	5	2	2
2114.48	n/a	STOP	1057240	n/a	LTP317	ltpFR2	5	n/a	n/a	n/a	12	n/a	n/a	n/a	n/a
2116.268	n/a	REC_START	1058134	n/a	LTP317	ltpFR2	5	9	n/a	n/a	n/a	n/a	0	0	0
2117.752	n/a	REC_WORD	1058876	wordpools/wasnorm_wordpool_576.txt	LTP317	ltpFR2	5	9	SIBLING	1301	n/a	n/a	0	0	0
2121.344	n/a	REC_WORD	1060672	wordpools/wasnorm_wordpool_576.txt	LTP317	ltpFR2	5	9	VENUS	1557	n/a	n/a	0	0	0
2122.154	n/a	REC_WORD	1061077	wordpools/wasnorm_wordpool_576.txt	LTP317	ltpFR2	5	9	ARMY	39	n/a	n/a	0	0	0
2125.75	n/a	REC_WORD	1062875	wordpools/wasnorm_wordpool_576.txt	LTP317	ltpFR2	5	9	COLONEL	348	n/a	n/a	0	0	0
2126.83	n/a	REC_WORD	1063415	wordpools/wasnorm_wordpool_576.txt	LTP317	ltpFR2	5	9	TRACTOR	1493	n/a	n/a	0	0	0
2128.196	n/a	REC_WORD	1064098	wordpools/wasnorm_wordpool_576.txt	LTP317	ltpFR2	5	9	CHAMPAGNE	278	n/a	n/a	0	0	0
2130.06	n/a	REC_WORD	1065030	wordpools/wasnorm_wordpool_576.txt	LTP317	ltpFR2	5	9	FOOTBALL	591	n/a	n/a	0	0	0
2132.65	n/a	REC_WORD	1066325	wordpools/wasnorm_wordpool_576.txt	LTP317	ltpFR2	5	9	CASKET	255	n/a	n/a	0	0	0
2139.086	n/a	REC_WORD	1069543	wordpools/wasnorm_wordpool_576.txt	LTP317	ltpFR2	5	9	FLIPPER	580	n/a	n/a	0	0	0
2206.722	n/a	DISTRACTOR	1103361	n/a	LTP317	ltpFR2	5	10	n/a	n/a	n/a	n/a	0	0	0
2206.722	n/a	START	1103361	n/a	LTP317	ltpFR2	5	n/a	n/a	n/a	13	n/a	n/a	n/a	n/a
2206.736	n/a	PROB	1103368	n/a	LTP317	ltpFR2	5	n/a	n/a	n/a	13	22	8	7	7
2209.256	n/a	PROB	1104628	n/a	LTP317	ltpFR2	5	n/a	n/a	n/a	13	16	2	8	6
2210.806	n/a	PROB	1105403	n/a	LTP317	ltpFR2	5	n/a	n/a	n/a	13	15	8	5	2
2212.26	n/a	PROB	1106130	n/a	LTP317	ltpFR2	5	n/a	n/a	n/a	13	14	5	3	6
2213.794	n/a	PROB	1106897	n/a	LTP317	ltpFR2	5	n/a	n/a	n/a	13	16	6	7	3
2215.378	n/a	PROB	1107689	n/a	LTP317	ltpFR2	5	n/a	n/a	n/a	13	19	7	7	5
2217.162	n/a	PROB	1108581	n/a	LTP317	ltpFR2	5	n/a	n/a	n/a	13	21	4	9	6
2219.214	n/a	PROB	1109607	n/a	LTP317	ltpFR2	5	n/a	n/a	n/a	13	12	1	2	9
2220.58	n/a	PROB	1110290	n/a	LTP317	ltpFR2	5	n/a	n/a	n/a	13	17	5	5	7
2221.966	n/a	PROB	1110983	n/a	LTP317	ltpFR2	5	n/a	n/a	n/a	13	22	8	9	5
2224.7	n/a	PROB	1112350	n/a	LTP317	ltpFR2	5	n/a	n/a	n/a	13	14	5	7	2
2225.986	n/a	PROB	1112993	n/a	LTP317	ltpFR2	5	n/a	n/a	n/a	13	14	4	8	2
2227.47	n/a	PROB	1113735	n/a	LTP317	ltpFR2	5	n/a	n/a	n/a	13	18	6	6	6
2228.72	n/a	PROB	1114360	n/a	LTP317	ltpFR2	5	n/a	n/a	n/a	13	11	6	3	2
2230.138	n/a	STOP	1115069	n/a	LTP317	ltpFR2	5	n/a	n/a	n/a	13	n/a	n/a	n/a	n/a
2231.84	n/a	WORD	1115920	wordpools/wasnorm_wordpool_576.txt	LTP317	ltpFR2	5	10	WARDROBE	1587	n/a	n/a	0	0	0
2234.41	n/a	WORD	1117205	wordpools/wasnorm_wordpool_576.txt	LTP317	ltpFR2	5	10	BABY	64	n/a	n/a	0	0	0
2237.032	n/a	WORD	1118516	wordpools/wasnorm_wordpool_576.txt	LTP317	ltpFR2	5	10	FLUTE	585	n/a	n/a	0	0	0
2239.612	n/a	WORD	1119806	wordpools/wasnorm_wordpool_576.txt	LTP317	ltpFR2	5	10	LASER	801	n/a	n/a	0	0	0
2242.42	n/a	WORD	1121210	wordpools/wasnorm_wordpool_576.txt	LTP317	ltpFR2	5	10	SMOG	1330	n/a	n/a	0	0	0
2245.018	n/a	WORD	1122509	wordpools/wasnorm_wordpool_576.txt	LTP317	ltpFR2	5	10	GRAVE	658	n/a	n/a	0	0	0
2247.752	n/a	WORD	1123876	wordpools/wasnorm_wordpool_576.txt	LTP317	ltpFR2	5	10	SHOULDER	1294	n/a	n/a	0	0	0
2250.572	n/a	WORD	1125286	wordpools/wasnorm_wordpool_576.txt	LTP317	ltpFR2	5	10	PUDDLE	1140	n/a	n/a	0	0	0
2253.308	n/a	WORD	1126654	wordpools/wasnorm_wordpool_576.txt	LTP317	ltpFR2	5	10	RIFLE	1192	n/a	n/a	0	0	0
2255.796	n/a	WORD	1127898	wordpools/wasnorm_wordpool_576.txt	LTP317	ltpFR2	5	10	EMPIRE	530	n/a	n/a	0	0	0
2258.296	n/a	WORD	1129148	wordpools/wasnorm_wordpool_576.txt	LTP317	ltpFR2	5	10	WIDOW	1608	n/a	n/a	0	0	0
2260.764	n/a	WORD	1130382	wordpools/wasnorm_wordpool_576.txt	LTP317	ltpFR2	5	10	PLASTER	1085	n/a	n/a	0	0	0
2263.272	n/a	WORD	1131636	wordpools/wasnorm_wordpool_576.txt	LTP317	ltpFR2	5	10	BUNNY	198	n/a	n/a	0	0	0
2265.95	n/a	WORD	1132975	wordpools/wasnorm_wordpool_576.txt	LTP317	ltpFR2	5	10	WRENCH	1625	n/a	n/a	0	0	0
2268.436	n/a	WORD	1134218	wordpools/wasnorm_wordpool_576.txt	LTP317	ltpFR2	5	10	HATCHET	691	n/a	n/a	0	0	0
2271.106	n/a	WORD	1135553	wordpools/wasnorm_wordpool_576.txt	LTP317	ltpFR2	5	10	PEDAL	1037	n/a	n/a	0	0	0
2273.74	n/a	WORD	1136870	wordpools/wasnorm_wordpool_576.txt	LTP317	ltpFR2	5	10	WASHER	1592	n/a	n/a	0	0	0
2276.208	n/a	WORD	1138104	wordpools/wasnorm_wordpool_576.txt	LTP317	ltpFR2	5	10	LEG	809	n/a	n/a	0	0	0
2278.744	n/a	WORD	1139372	wordpools/wasnorm_wordpool_576.txt	LTP317	ltpFR2	5	10	CRUTCH	417	n/a	n/a	0	0	0
2281.502	n/a	WORD	1140751	wordpools/wasnorm_wordpool_576.txt	LTP317	ltpFR2	5	10	BOX	159	n/a	n/a	0	0	0
2284.182	n/a	WORD	1142091	wordpools/wasnorm_wordpool_576.txt	LTP317	ltpFR2	5	10	GALLON	618	n/a	n/a	0	0	0
2286.822	n/a	WORD	1143411	wordpools/wasnorm_wordpool_576.txt	LTP317	ltpFR2	5	10	BLADE	134	n/a	n/a	0	0	0
2289.292	n/a	WORD	1144646	wordpools/wasnorm_wordpool_576.txt	LTP317	ltpFR2	5	10	HARP	689	n/a	n/a	0	0	0
2291.72	n/a	WORD	1145860	wordpools/wasnorm_wordpool_576.txt	LTP317	ltpFR2	5	10	BUREAU	199	n/a	n/a	0	0	0
2293.33	n/a	START	1146665	n/a	LTP317	ltpFR2	5	n/a	n/a	n/a	14	n/a	n/a	n/a	n/a
2294.222	n/a	DISTRACTOR	1147111	n/a	LTP317	ltpFR2	5	10	n/a	n/a	n/a	n/a	0	0	0
2294.23	n/a	PROB	1147115	n/a	LTP317	ltpFR2	5	n/a	n/a	n/a	14	17	4	4	9
2297.024	n/a	PROB	1148512	n/a	LTP317	ltpFR2	5	n/a	n/a	n/a	14	16	4	5	7
2298.758	n/a	PROB	1149379	n/a	LTP317	ltpFR2	5	n/a	n/a	n/a	14	15	4	2	9
2300.144	n/a	PROB	1150072	n/a	LTP317	ltpFR2	5	n/a	n/a	n/a	14	17	1	8	8
2301.71	n/a	PROB	1150855	n/a	LTP317	ltpFR2	5	n/a	n/a	n/a	14	16	2	5	9
2303.214	n/a	PROB	1151607	n/a	LTP317	ltpFR2	5	n/a	n/a	n/a	14	16	3	8	5
2306.214	n/a	PROB	1153107	n/a	LTP317	ltpFR2	5	n/a	n/a	n/a	14	11	1	8	2
2307.716	n/a	PROB	1153858	n/a	LTP317	ltpFR2	5	n/a	n/a	n/a	14	13	8	2	3
2309.068	n/a	PROB	1154534	n/a	LTP317	ltpFR2	5	n/a	n/a	n/a	14	16	8	4	4
2311.136	n/a	PROB	1155568	n/a	LTP317	ltpFR2	5	n/a	n/a	n/a	14	12	3	1	8
2312.52	n/a	PROB	1156260	n/a	LTP317	ltpFR2	5	n/a	n/a	n/a	14	8	5	1	2
2314.154	n/a	PROB	1157077	n/a	LTP317	ltpFR2	5	n/a	n/a	n/a	14	21	9	4	8
2316.81	n/a	STOP	1158405	n/a	LTP317	ltpFR2	5	n/a	n/a	n/a	14	n/a	n/a	n/a	n/a
2319.258	n/a	REC_START	1159629	n/a	LTP317	ltpFR2	5	10	n/a	n/a	n/a	n/a	0	0	0
2320.736	n/a	REC_WORD	1160368	wordpools/wasnorm_wordpool_576.txt	LTP317	ltpFR2	5	10	WARDROBE	1587	n/a	n/a	0	0	0
2321.628	n/a	REC_WORD	1160814	wordpools/wasnorm_wordpool_576.txt	LTP317	ltpFR2	5	10	BABY	64	n/a	n/a	0	0	0
2322.38	n/a	REC_WORD	1161190	wordpools/wasnorm_wordpool_576.txt	LTP317	ltpFR2	5	10	FRUIT	610	n/a	n/a	0	0	0
2324.13	n/a	REC_WORD	1162065	wordpools/wasnorm_wordpool_576.txt	LTP317	ltpFR2	5	10	LASER	801	n/a	n/a	0	0	0
2351.66	n/a	REC_WORD	1175830	wordpools/wasnorm_wordpool_576.txt	LTP317	ltpFR2	5	10	LEG	809	n/a	n/a	0	0	0
2352.636	n/a	REC_WORD	1176318	wordpools/wasnorm_wordpool_576.txt	LTP317	ltpFR2	5	10	CRUTCH	417	n/a	n/a	0	0	0
2409.712	n/a	DISTRACTOR	1204856	n/a	LTP317	ltpFR2	5	11	n/a	n/a	n/a	n/a	0	0	0
2409.712	n/a	START	1204856	n/a	LTP317	ltpFR2	5	n/a	n/a	n/a	15	n/a	n/a	n/a	n/a
2409.728	n/a	PROB	1204864	n/a	LTP317	ltpFR2	5	n/a	n/a	n/a	15	16	1	6	9
2412.048	n/a	PROB	1206024	n/a	LTP317	ltpFR2	5	n/a	n/a	n/a	15	15	6	4	5
2413.882	n/a	PROB	1206941	n/a	LTP317	ltpFR2	5	n/a	n/a	n/a	15	24	8	6	8
2415.932	n/a	PROB	1207966	n/a	LTP317	ltpFR2	5	n/a	n/a	n/a	15	16	6	2	8
2417.834	n/a	PROB	1208917	n/a	LTP317	ltpFR2	5	n/a	n/a	n/a	15	16	6	6	4
2420.338	n/a	PROB	1210169	n/a	LTP317	ltpFR2	5	n/a	n/a	n/a	15	19	7	5	7
2422.022	n/a	PROB	1211011	n/a	LTP317	ltpFR2	5	n/a	n/a	n/a	15	19	3	7	9
2423.34	n/a	PROB	1211670	n/a	LTP317	ltpFR2	5	n/a	n/a	n/a	15	14	8	4	2
2424.772	n/a	PROB	1212386	n/a	LTP317	ltpFR2	5	n/a	n/a	n/a	15	17	3	6	8
2426.358	n/a	PROB	1213179	n/a	LTP317	ltpFR2	5	n/a	n/a	n/a	15	15	5	2	8
2427.674	n/a	PROB	1213837	n/a	LTP317	ltpFR2	5	n/a	n/a	n/a	15	15	5	3	7
2429.094	n/a	PROB	1214547	n/a	LTP317	ltpFR2	5	n/a	n/a	n/a	15	12	2	5	5
2430.644	n/a	PROB	1215322	n/a	LTP317	ltpFR2	5	n/a	n/a	n/a	15	10	6	3	1
2432.166	n/a	STOP	1216083	n/a	LTP317	ltpFR2	5	n/a	n/a	n/a	15	n/a	n/a	n/a	n/a
2434.782	n/a	WORD	1217391	wordpools/wasnorm_wordpool_576.txt	LTP317	ltpFR2	5	11	SKIRT	1319	n/a	n/a	0	0	0
2437.436	n/a	WORD	1218718	wordpools/wasnorm_wordpool_576.txt	LTP317	ltpFR2	5	11	BINDER	127	n/a	n/a	0	0	0
2440.054	n/a	WORD	1220027	wordpools/wasnorm_wordpool_576.txt	LTP317	ltpFR2	5	11	STAPLE	1371	n/a	n/a	0	0	0
2442.538	n/a	WORD	1221269	wordpools/wasnorm_wordpool_576.txt	LTP317	ltpFR2	5	11	SHORTCAKE	1292	n/a	n/a	0	0	0
2445.124	n/a	WORD	1222562	wordpools/wasnorm_wordpool_576.txt	LTP317	ltpFR2	5	11	FRUIT	610	n/a	n/a	0	0	0
2447.942	n/a	WORD	1223971	wordpools/wasnorm_wordpool_576.txt	LTP317	ltpFR2	5	11	GARLIC	624	n/a	n/a	0	0	0
2450.478	n/a	WORD	1225239	wordpools/wasnorm_wordpool_576.txt	LTP317	ltpFR2	5	11	SOFTBALL	1343	n/a	n/a	0	0	0
2453.096	n/a	WORD	1226548	wordpools/wasnorm_wordpool_576.txt	LTP317	ltpFR2	5	11	CEILING	265	n/a	n/a	0	0	0
2455.732	n/a	WORD	1227866	wordpools/wasnorm_wordpool_576.txt	LTP317	ltpFR2	5	11	ICING	732	n/a	n/a	0	0	0
2458.434	n/a	WORD	1229217	wordpools/wasnorm_wordpool_576.txt	LTP317	ltpFR2	5	11	POCKET	1093	n/a	n/a	0	0	0
2461.254	n/a	WORD	1230627	wordpools/wasnorm_wordpool_576.txt	LTP317	ltpFR2	5	11	ATOM	55	n/a	n/a	0	0	0
2464.022	n/a	WORD	1232011	wordpools/wasnorm_wordpool_576.txt	LTP317	ltpFR2	5	11	TORTOISE	1486	n/a	n/a	0	0	0
2466.492	n/a	WORD	1233246	wordpools/wasnorm_wordpool_576.txt	LTP317	ltpFR2	5	11	WASP	1593	n/a	n/a	0	0	0
2469.176	n/a	WORD	1234588	wordpools/wasnorm_wordpool_576.txt	LTP317	ltpFR2	5	11	ANTLER	29	n/a	n/a	0	0	0
2471.748	n/a	WORD	1235874	wordpools/wasnorm_wordpool_576.txt	LTP317	ltpFR2	5	11	YACHT	1629	n/a	n/a	0	0	0
2474.346	n/a	WORD	1237173	wordpools/wasnorm_wordpool_576.txt	LTP317	ltpFR2	5	11	HUSBAND	728	n/a	n/a	0	0	0
2477.066	n/a	WORD	1238533	wordpools/wasnorm_wordpool_576.txt	LTP317	ltpFR2	5	11	SUMMIT	1405	n/a	n/a	0	0	0
2479.516	n/a	WORD	1239758	wordpools/wasnorm_wordpool_576.txt	LTP317	ltpFR2	5	11	LEADER	807	n/a	n/a	0	0	0
2481.974	n/a	WORD	1240987	wordpools/wasnorm_wordpool_576.txt	LTP317	ltpFR2	5	11	WORKER	1621	n/a	n/a	0	0	0
2484.654	n/a	WORD	1242327	wordpools/wasnorm_wordpool_576.txt	LTP317	ltpFR2	5	11	PADDLE	1000	n/a	n/a	0	0	0
2487.408	n/a	WORD	1243704	wordpools/wasnorm_wordpool_576.txt	LTP317	ltpFR2	5	11	FRAGRANCE	599	n/a	n/a	0	0	0
2490.01	n/a	WORD	1245005	wordpools/wasnorm_wordpool_576.txt	LTP317	ltpFR2	5	11	PARTNER	1017	n/a	n/a	0	0	0
2492.726	n/a	WORD	1246363	wordpools/wasnorm_wordpool_576.txt	LTP317	ltpFR2	5	11	DANDRUFF	439	n/a	n/a	0	0	0
2495.284	n/a	WORD	1247642	wordpools/wasnorm_wordpool_576.txt	LTP317	ltpFR2	5	11	COD	340	n/a	n/a	0	0	0
2496.898	n/a	START	1248449	n/a	LTP317	ltpFR2	5	n/a	n/a	n/a	16	n/a	n/a	n/a	n/a
2497.82	n/a	DISTRACTOR	1248910	n/a	LTP317	ltpFR2	5	11	n/a	n/a	n/a	n/a	0	0	0
2497.83	n/a	PROB	1248915	n/a	LTP317	ltpFR2	5	n/a	n/a	n/a	16	15	3	4	8
2499.732	n/a	PROB	1249866	n/a	LTP317	ltpFR2	5	n/a	n/a	n/a	16	25	9	7	9
2501.884	n/a	PROB	1250942	n/a	LTP317	ltpFR2	5	n/a	n/a	n/a	16	13	6	2	5
2503.518	n/a	PROB	1251759	n/a	LTP317	ltpFR2	5	n/a	n/a	n/a	16	1	2	7	7
2504.768	n/a	PROB	1252384	n/a	LTP317	ltpFR2	5	n/a	n/a	n/a	16	17	5	6	6
2506.488	n/a	PROB	1253244	n/a	LTP317	ltpFR2	5	n/a	n/a	n/a	16	14	6	1	7
2507.938	n/a	PROB	1253969	n/a	LTP317	ltpFR2	5	n/a	n/a	n/a	16	16	4	8	4
2510.19	n/a	PROB	1255095	n/a	LTP317	ltpFR2	5	n/a	n/a	n/a	16	11	1	5	5
2511.774	n/a	PROB	1255887	n/a	LTP317	ltpFR2	5	n/a	n/a	n/a	16	15	5	1	9
2513.192	n/a	PROB	1256596	n/a	LTP317	ltpFR2	5	n/a	n/a	n/a	16	17	9	7	1
2514.894	n/a	PROB	1257447	n/a	LTP317	ltpFR2	5	n/a	n/a	n/a	16	20	6	8	6
2517.062	n/a	PROB	1258531	n/a	LTP317	ltpFR2	5	n/a	n/a	n/a	16	16	9	6	1
2518.664	n/a	PROB	1259332	n/a	LTP317	ltpFR2	5	n/a	n/a	n/a	16	17	9	4	4
2520.358	n/a	STOP	1260179	n/a	LTP317	ltpFR2	5	n/a	n/a	n/a	16	n/a	n/a	n/a	n/a
2522.716	n/a	REC_START	1261358	n/a	LTP317	ltpFR2	5	11	n/a	n/a	n/a	n/a	0	0	0
2523.172	n/a	REC_WORD	1261586	wordpools/wasnorm_wordpool_576.txt	LTP317	ltpFR2	5	11	SKIRT	1319	n/a	n/a	0	0	0
2524.004	n/a	REC_WORD	1262002	wordpools/wasnorm_wordpool_576.txt	LTP317	ltpFR2	5	11	BINDER	127	n/a	n/a	0	0	0
2524.552	n/a	REC_WORD	1262276	wordpools/wasnorm_wordpool_576.txt	LTP317	ltpFR2	5	11	SHORTCAKE	1292	n/a	n/a	0	0	0
2525.6	n/a	REC_WORD	1262800	wordpools/wasnorm_wordpool_576.txt	LTP317	ltpFR2	5	11	FRUIT	610	n/a	n/a	0	0	0
2527.804	n/a	REC_WORD	1263902	wordpools/wasnorm_wordpool_576.txt	LTP317	ltpFR2	5	11	FRAGRANCE	599	n/a	n/a	0	0	0
2530.146	n/a	REC_WORD	1265073	wordpools/wasnorm_wordpool_576.txt	LTP317	ltpFR2	5	11	ATOM	55	n/a	n/a	0	0	0
2553.746	n/a	REC_WORD	1276873	wordpools/wasnorm_wordpool_576.txt	LTP317	ltpFR2	5	11	HUSBAND	728	n/a	n/a	0	0	0
2563.372	n/a	REC_WORD	1281686	wordpools/wasnorm_wordpool_576.txt	LTP317	ltpFR2	5	11	ANTLER	29	n/a	n/a	0	0	0
2577.328	n/a	REC_WORD	1288664	wordpools/wasnorm_wordpool_576.txt	LTP317	ltpFR2	5	11	WIDOW	1608	n/a	n/a	0	0	0
2613.172	n/a	WORD	1306586	wordpools/wasnorm_wordpool_576.txt	LTP317	ltpFR2	5	12	BLUEPRINT	142	n/a	n/a	0	0	0
2615.936	n/a	WORD	1307968	wordpools/wasnorm_wordpool_576.txt	LTP317	ltpFR2	5	12	VAGRANT	1544	n/a	n/a	0	0	0
2618.422	n/a	WORD	1309211	wordpools/wasnorm_wordpool_576.txt	LTP317	ltpFR2	5	12	DONKEY	484	n/a	n/a	0	0	0
2620.908	n/a	WORD	1310454	wordpools/wasnorm_wordpool_576.txt	LTP317	ltpFR2	5	12	SADDLE	1221	n/a	n/a	0	0	0
2623.628	n/a	WORD	1311814	wordpools/wasnorm_wordpool_576.txt	LTP317	ltpFR2	5	12	ZEBRA	1635	n/a	n/a	0	0	0
2626.098	n/a	WORD	1313049	wordpools/wasnorm_wordpool_576.txt	LTP317	ltpFR2	5	12	SURVEY	1414	n/a	n/a	0	0	0
2628.53	n/a	WORD	1314265	wordpools/wasnorm_wordpool_576.txt	LTP317	ltpFR2	5	12	WITNESS	1618	n/a	n/a	0	0	0
2631.2	n/a	WORD	1315600	wordpools/wasnorm_wordpool_576.txt	LTP317	ltpFR2	5	12	PECAN	1036	n/a	n/a	0	0	0
2633.868	n/a	WORD	1316934	wordpools/wasnorm_wordpool_576.txt	LTP317	ltpFR2	5	12	BEAST	108	n/a	n/a	0	0	0
2636.572	n/a	WORD	1318286	wordpools/wasnorm_wordpool_576.txt	LTP317	ltpFR2	5	12	BUCKET	184	n/a	n/a	0	0	0
2639.322	n/a	WORD	1319661	wordpools/wasnorm_wordpool_576.txt	LTP317	ltpFR2	5	12	ISLAND	745	n/a	n/a	0	0	0
2641.874	n/a	WORD	1320937	wordpools/wasnorm_wordpool_576.txt	LTP317	ltpFR2	5	12	COURSE	390	n/a	n/a	0	0	0
2644.478	n/a	WORD	1322239	wordpools/wasnorm_wordpool_576.txt	LTP317	ltpFR2	5	12	WRIST	1626	n/a	n/a	0	0	0
2647.196	n/a	WORD	1323598	wordpools/wasnorm_wordpool_576.txt	LTP317	ltpFR2	5	12	HORNET	718	n/a	n/a	0	0	0
2649.9	n/a	WORD	1324950	wordpools/wasnorm_wordpool_576.txt	LTP317	ltpFR2	5	12	NOMAD	955	n/a	n/a	0	0	0
2652.5	n/a	WORD	1326250	wordpools/wasnorm_wordpool_576.txt	LTP317	ltpFR2	5	12	GAVEL	627	n/a	n/a	0	0	0
2654.97	n/a	WORD	1327485	wordpools/wasnorm_wordpool_576.txt	LTP317	ltpFR2	5	12	CROSS	413	n/a	n/a	0	0	0
2657.404	n/a	WORD	1328702	wordpools/wasnorm_wordpool_576.txt	LTP317	ltpFR2	5	12	PERMIT	1051	n/a	n/a	0	0	0
2659.974	n/a	WORD	1329987	wordpools/wasnorm_wordpool_576.txt	LTP317	ltpFR2	5	12	CITRUS	313	n/a	n/a	0	0	0
2662.51	n/a	WORD	1331255	wordpools/wasnorm_wordpool_576.txt	LTP317	ltpFR2	5	12	RUG	1215	n/a	n/a	0	0	0
2665.228	n/a	WORD	1332614	wordpools/wasnorm_wordpool_576.txt	LTP317	ltpFR2	5	12	POSSUM	1112	n/a	n/a	0	0	0
2667.68	n/a	WORD	1333840	wordpools/wasnorm_wordpool_576.txt	LTP317	ltpFR2	5	12	HEART	697	n/a	n/a	0	0	0
2670.266	n/a	WORD	1335133	wordpools/wasnorm_wordpool_576.txt	LTP317	ltpFR2	5	12	PIANO	1057	n/a	n/a	0	0	0
2672.816	n/a	WORD	1336408	wordpools/wasnorm_wordpool_576.txt	LTP317	ltpFR2	5	12	LEOPARD	812	n/a	n/a	0	0	0
2674.436	n/a	START	1337218	n/a	LTP317	ltpFR2	5	n/a	n/a	n/a	17	n/a	n/a	n/a	n/a
2675.438	n/a	DISTRACTOR	1337719	n/a	LTP317	ltpFR2	5	12	n/a	n/a	n/a	n/a	0	0	0
2675.452	n/a	PROB	1337726	n/a	LTP317	ltpFR2	5	n/a	n/a	n/a	17	17	3	5	9
2677.488	n/a	PROB	1338744	n/a	LTP317	ltpFR2	5	n/a	n/a	n/a	17	16	3	9	4
2679.356	n/a	PROB	1339678	n/a	LTP317	ltpFR2	5	n/a	n/a	n/a	17	12	1	3	8
2680.69	n/a	PROB	1340345	n/a	LTP317	ltpFR2	5	n/a	n/a	n/a	17	10	1	3	6
2683.108	n/a	PROB	1341554	n/a	LTP317	ltpFR2	5	n/a	n/a	n/a	17	11	8	2	1
2684.476	n/a	PROB	1342238	n/a	LTP317	ltpFR2	5	n/a	n/a	n/a	17	15	6	6	3
2685.728	n/a	PROB	1342864	n/a	LTP317	ltpFR2	5	n/a	n/a	n/a	17	15	1	6	8
2687.028	n/a	PROB	1343514	n/a	LTP317	ltpFR2	5	n/a	n/a	n/a	17	14	6	6	2
2689.046	n/a	PROB	1344523	n/a	LTP317	ltpFR2	5	n/a	n/a	n/a	17	16	5	7	4
2690.864	n/a	PROB	1345432	n/a	LTP317	ltpFR2	5	n/a	n/a	n/a	17	13	8	2	3
2692.484	n/a	PROB	1346242	n/a	LTP317	ltpFR2	5	n/a	n/a	n/a	17	14	4	5	5
2698.436	n/a	STOP	1349218	n/a	LTP317	ltpFR2	5	n/a	n/a	n/a	17	n/a	n/a	n/a	n/a
2700.324	n/a	REC_START	1350162	n/a	LTP317	ltpFR2	5	12	n/a	n/a	n/a	n/a	0	0	0
2701.028	n/a	REC_WORD	1350514	wordpools/wasnorm_wordpool_576.txt	LTP317	ltpFR2	5	12	BLUEPRINT	142	n/a	n/a	0	0	0
2703.046	n/a	REC_WORD	1351523	wordpools/wasnorm_wordpool_576.txt	LTP317	ltpFR2	5	12	VAGRANT	1544	n/a	n/a	0	0	0
2712.204	n/a	REC_WORD	1356102	wordpools/wasnorm_wordpool_576.txt	LTP317	ltpFR2	5	12	SADDLE	1221	n/a	n/a	0	0	0
2715.612	n/a	REC_WORD	1357806	wordpools/wasnorm_wordpool_576.txt	LTP317	ltpFR2	5	12	CITRUS	313	n/a	n/a	0	0	0
2716.92	n/a	REC_WORD	1358460	wordpools/wasnorm_wordpool_576.txt	LTP317	ltpFR2	5	12	COURSE	390	n/a	n/a	0	0	0
2718.134	n/a	REC_WORD	1359067	wordpools/wasnorm_wordpool_576.txt	LTP317	ltpFR2	5	12	GAVEL	627	n/a	n/a	0	0	0
2719.51	n/a	REC_WORD	1359755	wordpools/wasnorm_wordpool_576.txt	LTP317	ltpFR2	5	12	HEART	697	n/a	n/a	0	0	0
2748.97	n/a	REC_WORD	1374485	wordpools/wasnorm_wordpool_576.txt	LTP317	ltpFR2	5	12	BEAST	108	n/a	n/a	0	0	0
2757.234	n/a	REC_WORD	1378617	wordpools/wasnorm_wordpool_576.txt	LTP317	ltpFR2	5	12	CROSS	413	n/a	n/a	0	0	0
2790.742	n/a	DISTRACTOR	1395371	n/a	LTP317	ltpFR2	5	13	n/a	n/a	n/a	n/a	0	0	0
2790.744	n/a	START	1395372	n/a	LTP317	ltpFR2	5	n/a	n/a	n/a	18	n/a	n/a	n/a	n/a
2790.758	n/a	PROB	1395379	n/a	LTP317	ltpFR2	5	n/a	n/a	n/a	18	3	1	1	1
2791.96	n/a	PROB	1395980	n/a	LTP317	ltpFR2	5	n/a	n/a	n/a	18	13	1	8	4
2793.912	n/a	PROB	1396956	n/a	LTP317	ltpFR2	5	n/a	n/a	n/a	18	12	3	8	1
2795.38	n/a	PROB	1397690	n/a	LTP317	ltpFR2	5	n/a	n/a	n/a	18	21	8	6	7
2799.032	n/a	PROB	1399516	n/a	LTP317	ltpFR2	5	n/a	n/a	n/a	18	10	6	2	2
2801.282	n/a	PROB	1400641	n/a	LTP317	ltpFR2	5	n/a	n/a	n/a	18	9	3	3	3
2802.516	n/a	PROB	1401258	n/a	LTP317	ltpFR2	5	n/a	n/a	n/a	18	18	7	2	9
2804.652	n/a	PROB	1402326	n/a	LTP317	ltpFR2	5	n/a	n/a	n/a	18	22	9	6	7
2806.838	n/a	PROB	1403419	n/a	LTP317	ltpFR2	5	n/a	n/a	n/a	18	22	7	7	8
2808.572	n/a	PROB	1404286	n/a	LTP317	ltpFR2	5	n/a	n/a	n/a	18	25	9	8	8
2810.64	n/a	PROB	1405320	n/a	LTP317	ltpFR2	5	n/a	n/a	n/a	18	17	6	8	3
2812.644	n/a	PROB	1406322	n/a	LTP317	ltpFR2	5	n/a	n/a	n/a	18	18	9	4	5
2814.428	n/a	STOP	1407214	n/a	LTP317	ltpFR2	5	n/a	n/a	n/a	18	n/a	n/a	n/a	n/a
2815.606	n/a	WORD	1407803	wordpools/wasnorm_wordpool_576.txt	LTP317	ltpFR2	5	13	CROWN	415	n/a	n/a	0	0	0
2818.408	n/a	WORD	1409204	wordpools/wasnorm_wordpool_576.txt	LTP317	ltpFR2	5	13	PRINCESS	1125	n/a	n/a	0	0	0
2821.166	n/a	WORD	1410583	wordpools/wasnorm_wordpool_576.txt	LTP317	ltpFR2	5	13	LILY	821	n/a	n/a	0	0	0
2823.762	n/a	WORD	1411881	wordpools/wasnorm_wordpool_576.txt	LTP317	ltpFR2	5	13	EXPERT	543	n/a	n/a	0	0	0
2826.498	n/a	WORD	1413249	wordpools/wasnorm_wordpool_576.txt	LTP317	ltpFR2	5	13	PASSAGE	1019	n/a	n/a	0	0	0
2829.218	n/a	WORD	1414609	wordpools/wasnorm_wordpool_576.txt	LTP317	ltpFR2	5	13	SALT	1229	n/a	n/a	0	0	0
2831.636	n/a	WORD	1415818	wordpools/wasnorm_wordpool_576.txt	LTP317	ltpFR2	5	13	DAISY	435	n/a	n/a	0	0	0
2834.372	n/a	WORD	1417186	wordpools/wasnorm_wordpool_576.txt	LTP317	ltpFR2	5	13	COMPASS	358	n/a	n/a	0	0	0
2836.824	n/a	WORD	1418412	wordpools/wasnorm_wordpool_576.txt	LTP317	ltpFR2	5	13	MARROW	872	n/a	n/a	0	0	0
2839.558	n/a	WORD	1419779	wordpools/wasnorm_wordpool_576.txt	LTP317	ltpFR2	5	13	HONEY	713	n/a	n/a	0	0	0
2842.362	n/a	WORD	1421181	wordpools/wasnorm_wordpool_576.txt	LTP317	ltpFR2	5	13	BASEMENT	94	n/a	n/a	0	0	0
2844.964	n/a	WORD	1422482	wordpools/wasnorm_wordpool_576.txt	LTP317	ltpFR2	5	13	BACKBONE	66	n/a	n/a	0	0	0
2847.614	n/a	WORD	1423807	wordpools/wasnorm_wordpool_576.txt	LTP317	ltpFR2	5	13	ROCKET	1202	n/a	n/a	0	0	0
2850.268	n/a	WORD	1425134	wordpools/wasnorm_wordpool_576.txt	LTP317	ltpFR2	5	13	TOASTER	1472	n/a	n/a	0	0	0
2852.904	n/a	WORD	1426452	wordpools/wasnorm_wordpool_576.txt	LTP317	ltpFR2	5	13	KNAPSACK	783	n/a	n/a	0	0	0
2855.456	n/a	WORD	1427728	wordpools/wasnorm_wordpool_576.txt	LTP317	ltpFR2	5	13	SWAMP	1416	n/a	n/a	0	0	0
2857.908	n/a	WORD	1428954	wordpools/wasnorm_wordpool_576.txt	LTP317	ltpFR2	5	13	FOREHEAD	592	n/a	n/a	0	0	0
2860.514	n/a	WORD	1430257	wordpools/wasnorm_wordpool_576.txt	LTP317	ltpFR2	5	13	COSTUME	383	n/a	n/a	0	0	0
2863.196	n/a	WORD	1431598	wordpools/wasnorm_wordpool_576.txt	LTP317	ltpFR2	5	13	FIREPLACE	570	n/a	n/a	0	0	0
2865.916	n/a	WORD	1432958	wordpools/wasnorm_wordpool_576.txt	LTP317	ltpFR2	5	13	BOARD	143	n/a	n/a	0	0	0
2868.718	n/a	WORD	1434359	wordpools/wasnorm_wordpool_576.txt	LTP317	ltpFR2	5	13	PROTON	1132	n/a	n/a	0	0	0
2871.352	n/a	WORD	1435676	wordpools/wasnorm_wordpool_576.txt	LTP317	ltpFR2	5	13	QUARTER	1148	n/a	n/a	0	0	0
2874.14	n/a	WORD	1437070	wordpools/wasnorm_wordpool_576.txt	LTP317	ltpFR2	5	13	DIME	466	n/a	n/a	0	0	0
2876.944	n/a	WORD	1438472	wordpools/wasnorm_wordpool_576.txt	LTP317	ltpFR2	5	13	TRIBE	1505	n/a	n/a	0	0	0
2878.558	n/a	START	1439279	n/a	LTP317	ltpFR2	5	n/a	n/a	n/a	19	n/a	n/a	n/a	n/a
2879.742	n/a	DISTRACTOR	1439871	n/a	LTP317	ltpFR2	5	13	n/a	n/a	n/a	n/a	0	0	0
2879.76	n/a	PROB	1439880	n/a	LTP317	ltpFR2	5	n/a	n/a	n/a	19	20	2	9	9
2883.378	n/a	PROB	1441689	n/a	LTP317	ltpFR2	5	n/a	n/a	n/a	19	12	1	5	6
2884.748	n/a	PROB	1442374	n/a	LTP317	ltpFR2	5	n/a	n/a	n/a	19	15	7	7	1
2885.916	n/a	PROB	1442958	n/a	LTP317	ltpFR2	5	n/a	n/a	n/a	19	9	1	6	2
2887.868	n/a	PROB	1443934	n/a	LTP317	ltpFR2	5	n/a	n/a	n/a	19	11	1	2	8
2889.134	n/a	PROB	1444567	n/a	LTP317	ltpFR2	5	n/a	n/a	n/a	19	6	1	2	3
2890.3	n/a	PROB	1445150	n/a	LTP317	ltpFR2	5	n/a	n/a	n/a	19	5	1	1	3
2891.838	n/a	PROB	1445919	n/a	LTP317	ltpFR2	5	n/a	n/a	n/a	19	23	8	7	5
2895.942	n/a	PROB	1447971	n/a	LTP317	ltpFR2	5	n/a	n/a	n/a	19	18	2	7	9
2897.394	n/a	PROB	1448697	n/a	LTP317	ltpFR2	5	n/a	n/a	n/a	19	12	3	7	2
2898.842	n/a	PROB	1449421	n/a	LTP317	ltpFR2	5	n/a	n/a	n/a	19	13	4	1	9
2901.124	n/a	STOP	1450562	n/a	LTP317	ltpFR2	5	n/a	n/a	n/a	19	n/a	n/a	n/a	n/a
2904.416	n/a	REC_START	1452208	n/a	LTP317	ltpFR2	5	13	n/a	n/a	n/a	n/a	0	0	0
2904.908	n/a	REC_WORD	1452454	wordpools/wasnorm_wordpool_576.txt	LTP317	ltpFR2	5	13	CROWN	415	n/a	n/a	0	0	0
2905.866	n/a	REC_WORD	1452933	wordpools/wasnorm_wordpool_576.txt	LTP317	ltpFR2	5	13	PRINCESS	1125	n/a	n/a	0	0	0
2906.942	n/a	REC_WORD	1453471	wordpools/wasnorm_wordpool_576.txt	LTP317	ltpFR2	5	13	LILY	821	n/a	n/a	0	0	0
2908.624	n/a	REC_WORD	1454312	wordpools/wasnorm_wordpool_576.txt	LTP317	ltpFR2	5	13	EXPERT	543	n/a	n/a	0	0	0
2911.76	n/a	REC_WORD	1455880	wordpools/wasnorm_wordpool_576.txt	LTP317	ltpFR2	5	13	FOREHEAD	592	n/a	n/a	0	0	0
2928.318	n/a	REC_WORD	1464159	wordpools/wasnorm_wordpool_576.txt	LTP317	ltpFR2	5	13	PROTON	1132	n/a	n/a	0	0	0
2929.808	n/a	REC_WORD	1464904	wordpools/wasnorm_wordpool_576.txt	LTP317	ltpFR2	5	13	QUARTER	1148	n/a	n/a	0	0	0
2931.694	n/a	REC_WORD	1465847	wordpools/wasnorm_wordpool_576.txt	LTP317	ltpFR2	5	13	DIME	466	n/a	n/a	0	0	0
2972.334	n/a	REC_WORD	1486167	wordpools/wasnorm_wordpool_576.txt	LTP317	ltpFR2	5	13	BOARD	143	n/a	n/a	0	0	0
2994.836	n/a	DISTRACTOR	1497418	n/a	LTP317	ltpFR2	5	14	n/a	n/a	n/a	n/a	0	0	0
2994.836	n/a	START	1497418	n/a	LTP317	ltpFR2	5	n/a	n/a	n/a	20	n/a	n/a	n/a	n/a
2994.852	n/a	PROB	1497426	n/a	LTP317	ltpFR2	5	n/a	n/a	n/a	20	7	4	1	2
2996.72	n/a	PROB	1498360	n/a	LTP317	ltpFR2	5	n/a	n/a	n/a	20	17	9	1	7
2998.27	n/a	PROB	1499135	n/a	LTP317	ltpFR2	5	n/a	n/a	n/a	20	7	4	1	2
2999.77	n/a	PROB	1499885	n/a	LTP317	ltpFR2	5	n/a	n/a	n/a	20	19	5	8	6
3001.406	n/a	PROB	1500703	n/a	LTP317	ltpFR2	5	n/a	n/a	n/a	20	21	8	9	4
3004.376	n/a	PROB	1502188	n/a	LTP317	ltpFR2	5	n/a	n/a	n/a	20	18	5	9	4
3006.526	n/a	PROB	1503263	n/a	LTP317	ltpFR2	5	n/a	n/a	n/a	20	17	3	9	5
3008.012	n/a	PROB	1504006	n/a	LTP317	ltpFR2	5	n/a	n/a	n/a	20	16	8	4	4
3010.014	n/a	PROB	1505007	n/a	LTP317	ltpFR2	5	n/a	n/a	n/a	20	20	9	8	3
3011.666	n/a	PROB	1505833	n/a	LTP317	ltpFR2	5	n/a	n/a	n/a	20	13	4	1	9
3013.082	n/a	PROB	1506541	n/a	LTP317	ltpFR2	5	n/a	n/a	n/a	20	13	7	2	4
3014.682	n/a	PROB	1507341	n/a	LTP317	ltpFR2	5	n/a	n/a	n/a	20	13	7	2	4
3016.768	n/a	PROB	1508384	n/a	LTP317	ltpFR2	5	n/a	n/a	n/a	20	12	6	4	2
3018.254	n/a	STOP	1509127	n/a	LTP317	ltpFR2	5	n/a	n/a	n/a	20	n/a	n/a	n/a	n/a
3019.704	n/a	WORD	1509852	wordpools/wasnorm_wordpool_576.txt	LTP317	ltpFR2	5	14	TABLE	1426	n/a	n/a	0	0	0
3022.19	n/a	WORD	1511095	wordpools/wasnorm_wordpool_576.txt	LTP317	ltpFR2	5	14	LUNCH	849	n/a	n/a	0	0	0
3024.608	n/a	WORD	1512304	wordpools/wasnorm_wordpool_576.txt	LTP317	ltpFR2	5	14	PICNIC	1060	n/a	n/a	0	0	0
3027.06	n/a	WORD	1513530	wordpools/wasnorm_wordpool_576.txt	LTP317	ltpFR2	5	14	BIKE	125	n/a	n/a	0	0	0
3029.696	n/a	WORD	1514848	wordpools/wasnorm_wordpool_576.txt	LTP317	ltpFR2	5	14	HAMPER	682	n/a	n/a	0	0	0
3032.432	n/a	WORD	1516216	wordpools/wasnorm_wordpool_576.txt	LTP317	ltpFR2	5	14	UNCLE	1536	n/a	n/a	0	0	0
3034.934	n/a	WORD	1517467	wordpools/wasnorm_wordpool_576.txt	LTP317	ltpFR2	5	14	MONEY	908	n/a	n/a	0	0	0
3037.42	n/a	WORD	1518710	wordpools/wasnorm_wordpool_576.txt	LTP317	ltpFR2	5	14	SEAFOOD	1260	n/a	n/a	0	0	0
3039.93	n/a	WORD	1519965	wordpools/wasnorm_wordpool_576.txt	LTP317	ltpFR2	5	14	SNACK	1331	n/a	n/a	0	0	0
3042.698	n/a	WORD	1521349	wordpools/wasnorm_wordpool_576.txt	LTP317	ltpFR2	5	14	CUPBOARD	425	n/a	n/a	0	0	0
3045.174	n/a	WORD	1522587	wordpools/wasnorm_wordpool_576.txt	LTP317	ltpFR2	5	14	SKILLET	1317	n/a	n/a	0	0	0
3047.944	n/a	WORD	1523972	wordpools/wasnorm_wordpool_576.txt	LTP317	ltpFR2	5	14	TYPIST	1532	n/a	n/a	0	0	0
3050.746	n/a	WORD	1525373	wordpools/wasnorm_wordpool_576.txt	LTP317	ltpFR2	5	14	RIVER	1194	n/a	n/a	0	0	0
3053.514	n/a	WORD	1526757	wordpools/wasnorm_wordpool_576.txt	LTP317	ltpFR2	5	14	AUTHOR	61	n/a	n/a	0	0	0
3056.11	n/a	WORD	1528055	wordpools/wasnorm_wordpool_576.txt	LTP317	ltpFR2	5	14	SPOON	1357	n/a	n/a	0	0	0
3058.61	n/a	WORD	1529305	wordpools/wasnorm_wordpool_576.txt	LTP317	ltpFR2	5	14	CAFE	216	n/a	n/a	0	0	0
3061.148	n/a	WORD	1530574	wordpools/wasnorm_wordpool_576.txt	LTP317	ltpFR2	5	14	SLIME	1327	n/a	n/a	0	0	0
3063.738	n/a	WORD	1531869	wordpools/wasnorm_wordpool_576.txt	LTP317	ltpFR2	5	14	LAKE	796	n/a	n/a	0	0	0
3066.34	n/a	WORD	1533170	wordpools/wasnorm_wordpool_576.txt	LTP317	ltpFR2	5	14	BANK	83	n/a	n/a	0	0	0
3068.876	n/a	WORD	1534438	wordpools/wasnorm_wordpool_576.txt	LTP317	ltpFR2	5	14	FRIAR	605	n/a	n/a	0	0	0
3071.424	n/a	WORD	1535712	wordpools/wasnorm_wordpool_576.txt	LTP317	ltpFR2	5	14	STOVE	1388	n/a	n/a	0	0	0
3074.208	n/a	WORD	1537104	wordpools/wasnorm_wordpool_576.txt	LTP317	ltpFR2	5	14	SODA	1341	n/a	n/a	0	0	0
3076.748	n/a	WORD	1538374	wordpools/wasnorm_wordpool_576.txt	LTP317	ltpFR2	5	14	KLEENEX	782	n/a	n/a	0	0	0
3079.528	n/a	WORD	1539764	wordpools/wasnorm_wordpool_576.txt	LTP317	ltpFR2	5	14	JUNGLE	764	n/a	n/a	0	0	0
3081.138	n/a	START	1540569	n/a	LTP317	ltpFR2	5	n/a	n/a	n/a	21	n/a	n/a	n/a	n/a
3081.986	n/a	DISTRACTOR	1540993	n/a	LTP317	ltpFR2	5	14	n/a	n/a	n/a	n/a	0	0	0
3081.998	n/a	PROB	1540999	n/a	LTP317	ltpFR2	5	n/a	n/a	n/a	21	15	2	7	6
3083.654	n/a	PROB	1541827	n/a	LTP317	ltpFR2	5	n/a	n/a	n/a	21	19	6	8	5
3085.224	n/a	PROB	1542612	n/a	LTP317	ltpFR2	5	n/a	n/a	n/a	21	17	2	9	6
3088.41	n/a	PROB	1544205	n/a	LTP317	ltpFR2	5	n/a	n/a	n/a	21	16	2	9	5
3091.21	n/a	PROB	1545605	n/a	LTP317	ltpFR2	5	n/a	n/a	n/a	21	20	8	6	6
3093.062	n/a	PROB	1546531	n/a	LTP317	ltpFR2	5	n/a	n/a	n/a	21	14	6	2	6
3095.514	n/a	PROB	1547757	n/a	LTP317	ltpFR2	5	n/a	n/a	n/a	21	12	4	7	1
3097.714	n/a	PROB	1548857	n/a	LTP317	ltpFR2	5	n/a	n/a	n/a	21	10	3	3	4
3099.366	n/a	PROB	1549683	n/a	LTP317	ltpFR2	5	n/a	n/a	n/a	21	11	1	8	3
3100.694	n/a	PROB	1550347	n/a	LTP317	ltpFR2	5	n/a	n/a	n/a	21	15	9	2	4
3102.302	n/a	PROB	1551151	n/a	LTP317	ltpFR2	5	n/a	n/a	n/a	21	21	9	9	3
3104.36	n/a	STOP	1552180	n/a	LTP317	ltpFR2	5	n/a	n/a	n/a	21	n/a	n/a	n/a	n/a
3107.024	n/a	REC_START	1553512	n/a	LTP317	ltpFR2	5	14	n/a	n/a	n/a	n/a	0	0	0
3108.394	n/a	REC_WORD	1554197	wordpools/wasnorm_wordpool_576.txt	LTP317	ltpFR2	5	14	LUNCH	849	n/a	n/a	0	0	0
3109.494	n/a	REC_WORD	1554747	wordpools/wasnorm_wordpool_576.txt	LTP317	ltpFR2	5	14	TABLE	1426	n/a	n/a	0	0	0
3111.132	n/a	REC_WORD	1555566	wordpools/wasnorm_wordpool_576.txt	LTP317	ltpFR2	5	14	BIKE	125	n/a	n/a	0	0	0
3116.588	n/a	REC_WORD	1558294	wordpools/wasnorm_wordpool_576.txt	LTP317	ltpFR2	5	14	PICNIC	1060	n/a	n/a	0	0	0
3126.194	n/a	REC_WORD	1563097	wordpools/wasnorm_wordpool_576.txt	LTP317	ltpFR2	5	14	AUTHOR	61	n/a	n/a	0	0	0
3127.416	n/a	REC_WORD	1563708	wordpools/wasnorm_wordpool_576.txt	LTP317	ltpFR2	5	14	TYPIST	1532	n/a	n/a	0	0	0
3153.69	n/a	REC_WORD	1576845	wordpools/wasnorm_wordpool_576.txt	LTP317	ltpFR2	5	14	SNACK	1331	n/a	n/a	0	0	0
3154.762	n/a	REC_WORD	1577381	wordpools/wasnorm_wordpool_576.txt	LTP317	ltpFR2	5	14	CUPBOARD	425	n/a	n/a	0	0	0
3197.476	n/a	WORD	1598738	wordpools/wasnorm_wordpool_576.txt	LTP317	ltpFR2	5	15	SHIRT	1287	n/a	n/a	0	0	0
3200.228	n/a	WORD	1600114	wordpools/wasnorm_wordpool_576.txt	LTP317	ltpFR2	5	15	DRESS	495	n/a	n/a	0	0	0
3202.684	n/a	WORD	1601342	wordpools/wasnorm_wordpool_576.txt	LTP317	ltpFR2	5	15	WAGON	1578	n/a	n/a	0	0	0
3205.216	n/a	WORD	1602608	wordpools/wasnorm_wordpool_576.txt	LTP317	ltpFR2	5	15	FRANCE	601	n/a	n/a	0	0	0
3207.654	n/a	WORD	1603827	wordpools/wasnorm_wordpool_576.txt	LTP317	ltpFR2	5	15	HOUND	724	n/a	n/a	0	0	0
3210.12	n/a	WORD	1605060	wordpools/wasnorm_wordpool_576.txt	LTP317	ltpFR2	5	15	PERCH	1048	n/a	n/a	0	0	0
3212.638	n/a	WORD	1606319	wordpools/wasnorm_wordpool_576.txt	LTP317	ltpFR2	5	15	FIREMAN	569	n/a	n/a	0	0	0
3215.128	n/a	WORD	1607564	wordpools/wasnorm_wordpool_576.txt	LTP317	ltpFR2	5	15	GRILL	661	n/a	n/a	0	0	0
3217.892	n/a	WORD	1608946	wordpools/wasnorm_wordpool_576.txt	LTP317	ltpFR2	5	15	LOFT	840	n/a	n/a	0	0	0
3220.366	n/a	WORD	1610183	wordpools/wasnorm_wordpool_576.txt	LTP317	ltpFR2	5	15	PIMPLE	1071	n/a	n/a	0	0	0
3223.18	n/a	WORD	1611590	wordpools/wasnorm_wordpool_576.txt	LTP317	ltpFR2	5	15	PATIENT	1024	n/a	n/a	0	0	0
3225.85	n/a	WORD	1612925	wordpools/wasnorm_wordpool_576.txt	LTP317	ltpFR2	5	15	DUST	508	n/a	n/a	0	0	0
3228.486	n/a	WORD	1614243	wordpools/wasnorm_wordpool_576.txt	LTP317	ltpFR2	5	15	PRIMATE	1123	n/a	n/a	0	0	0
3231.24	n/a	WORD	1615620	wordpools/wasnorm_wordpool_576.txt	LTP317	ltpFR2	5	15	FEMALE	559	n/a	n/a	0	0	0
3233.804	n/a	WORD	1616902	wordpools/wasnorm_wordpool_576.txt	LTP317	ltpFR2	5	15	WIFE	1609	n/a	n/a	0	0	0
3236.414	n/a	WORD	1618207	wordpools/wasnorm_wordpool_576.txt	LTP317	ltpFR2	5	15	SPOUSE	1358	n/a	n/a	0	0	0
3238.848	n/a	WORD	1619424	wordpools/wasnorm_wordpool_576.txt	LTP317	ltpFR2	5	15	RATTLE	1170	n/a	n/a	0	0	0
3241.576	n/a	WORD	1620788	wordpools/wasnorm_wordpool_576.txt	LTP317	ltpFR2	5	15	NURSE	963	n/a	n/a	0	0	0
3244.12	n/a	WORD	1622060	wordpools/wasnorm_wordpool_576.txt	LTP317	ltpFR2	5	15	SUNRISE	1407	n/a	n/a	0	0	0
3246.754	n/a	WORD	1623377	wordpools/wasnorm_wordpool_576.txt	LTP317	ltpFR2	5	15	RADISH	1158	n/a	n/a	0	0	0
3249.416	n/a	WORD	1624708	wordpools/wasnorm_wordpool_576.txt	LTP317	ltpFR2	5	15	RABBIT	1152	n/a	n/a	0	0	0
3251.858	n/a	WORD	1625929	wordpools/wasnorm_wordpool_576.txt	LTP317	ltpFR2	5	15	TROMBONE	1508	n/a	n/a	0	0	0
3254.57	n/a	WORD	1627285	wordpools/wasnorm_wordpool_576.txt	LTP317	ltpFR2	5	15	WHISTLE	1606	n/a	n/a	0	0	0
3257.03	n/a	WORD	1628515	wordpools/wasnorm_wordpool_576.txt	LTP317	ltpFR2	5	15	DUSTPAN	509	n/a	n/a	0	0	0
3258.642	n/a	START	1629321	n/a	LTP317	ltpFR2	5	n/a	n/a	n/a	22	n/a	n/a	n/a	n/a
3259.788	n/a	DISTRACTOR	1629894	n/a	LTP317	ltpFR2	5	15	n/a	n/a	n/a	n/a	0	0	0
3259.808	n/a	PROB	1629904	n/a	LTP317	ltpFR2	5	n/a	n/a	n/a	22	17	8	5	4
3261.944	n/a	PROB	1630972	n/a	LTP317	ltpFR2	5	n/a	n/a	n/a	22	20	9	4	7
3263.878	n/a	PROB	1631939	n/a	LTP317	ltpFR2	5	n/a	n/a	n/a	22	20	7	4	9
3266.18	n/a	PROB	1633090	n/a	LTP317	ltpFR2	5	n/a	n/a	n/a	22	13	5	1	7
3267.898	n/a	PROB	1633949	n/a	LTP317	ltpFR2	5	n/a	n/a	n/a	22	20	6	7	7
3269.714	n/a	PROB	1634857	n/a	LTP317	ltpFR2	5	n/a	n/a	n/a	22	12	1	7	4
3271.7	n/a	PROB	1635850	n/a	LTP317	ltpFR2	5	n/a	n/a	n/a	22	17	8	4	5
3273.6	n/a	PROB	1636800	n/a	LTP317	ltpFR2	5	n/a	n/a	n/a	22	20	9	3	8
3275.502	n/a	PROB	1637751	n/a	LTP317	ltpFR2	5	n/a	n/a	n/a	22	10	8	1	1
3277.104	n/a	PROB	1638552	n/a	LTP317	ltpFR2	5	n/a	n/a	n/a	22	7	1	1	5
3280.458	n/a	PROB	1640229	n/a	LTP317	ltpFR2	5	n/a	n/a	n/a	22	13	9	1	3
3282.194	n/a	STOP	1641097	n/a	LTP317	ltpFR2	5	n/a	n/a	n/a	22	n/a	n/a	n/a	n/a
3284.496	n/a	REC_START	1642248	n/a	LTP317	ltpFR2	5	15	n/a	n/a	n/a	n/a	0	0	0
3287.442	n/a	REC_WORD	1643721	wordpools/wasnorm_wordpool_576.txt	LTP317	ltpFR2	5	15	SHIRT	1287	n/a	n/a	0	0	0
3289.462	n/a	REC_WORD	1644731	wordpools/wasnorm_wordpool_576.txt	LTP317	ltpFR2	5	15	WAGON	1578	n/a	n/a	0	0	0
3292.108	n/a	REC_WORD	1646054	wordpools/wasnorm_wordpool_576.txt	LTP317	ltpFR2	5	15	FRANCE	601	n/a	n/a	0	0	0
3293.268	n/a	REC_WORD	1646634	wordpools/wasnorm_wordpool_576.txt	LTP317	ltpFR2	5	15	DUSTPAN	509	n/a	n/a	0	0	0
3315.23	n/a	REC_WORD	1657615	wordpools/wasnorm_wordpool_576.txt	LTP317	ltpFR2	5	15	WIFE	1609	n/a	n/a	0	0	0
3315.966	n/a	REC_WORD	1657983	wordpools/wasnorm_wordpool_576.txt	LTP317	ltpFR2	5	15	SPOUSE	1358	n/a	n/a	0	0	0
3374.964	n/a	WORD	1687482	wordpools/wasnorm_wordpool_576.txt	LTP317	ltpFR2	5	16	OUTLAW	989	n/a	n/a	0	0	0
3377.632	n/a	WORD	1688816	wordpools/wasnorm_wordpool_576.txt	LTP317	ltpFR2	5	16	POLICE	1098	n/a	n/a	0	0	0
3380.286	n/a	WORD	1690143	wordpools/wasnorm_wordpool_576.txt	LTP317	ltpFR2	5	16	PASTA	1021	n/a	n/a	0	0	0
3382.838	n/a	WORD	1691419	wordpools/wasnorm_wordpool_576.txt	LTP317	ltpFR2	5	16	TRENCH	1503	n/a	n/a	0	0	0
3385.622	n/a	WORD	1692811	wordpools/wasnorm_wordpool_576.txt	LTP317	ltpFR2	5	16	CAPTIVE	240	n/a	n/a	0	0	0
3388.358	n/a	WORD	1694179	wordpools/wasnorm_wordpool_576.txt	LTP317	ltpFR2	5	16	ARM	38	n/a	n/a	0	0	0
3390.878	n/a	WORD	1695439	wordpools/wasnorm_wordpool_576.txt	LTP317	ltpFR2	5	16	FRAME	600	n/a	n/a	0	0	0
3393.462	n/a	WORD	1696731	wordpools/wasnorm_wordpool_576.txt	LTP317	ltpFR2	5	16	OYSTER	995	n/a	n/a	0	0	0
3396.098	n/a	WORD	1698049	wordpools/wasnorm_wordpool_576.txt	LTP317	ltpFR2	5	16	SWIMMER	1420	n/a	n/a	0	0	0
3398.75	n/a	WORD	1699375	wordpools/wasnorm_wordpool_576.txt	LTP317	ltpFR2	5	16	SLUG	1329	n/a	n/a	0	0	0
3401.452	n/a	WORD	1700726	wordpools/wasnorm_wordpool_576.txt	LTP317	ltpFR2	5	16	COCOON	339	n/a	n/a	0	0	0
3403.988	n/a	WORD	1701994	wordpools/wasnorm_wordpool_576.txt	LTP317	ltpFR2	5	16	ACTRESS	6	n/a	n/a	0	0	0
3406.422	n/a	WORD	1703211	wordpools/wasnorm_wordpool_576.txt	LTP317	ltpFR2	5	16	ACTOR	5	n/a	n/a	0	0	0
3409.224	n/a	WORD	1704612	wordpools/wasnorm_wordpool_576.txt	LTP317	ltpFR2	5	16	COUSIN	392	n/a	n/a	0	0	0
3412.01	n/a	WORD	1706005	wordpools/wasnorm_wordpool_576.txt	LTP317	ltpFR2	5	16	ANKLE	24	n/a	n/a	0	0	0
3414.628	n/a	WORD	1707314	wordpools/wasnorm_wordpool_576.txt	LTP317	ltpFR2	5	16	PLUTO	1092	n/a	n/a	0	0	0
3417.13	n/a	WORD	1708565	wordpools/wasnorm_wordpool_576.txt	LTP317	ltpFR2	5	16	OFFICE	972	n/a	n/a	0	0	0
3419.916	n/a	WORD	1709958	wordpools/wasnorm_wordpool_576.txt	LTP317	ltpFR2	5	16	POWDER	1117	n/a	n/a	0	0	0
3422.468	n/a	WORD	1711234	wordpools/wasnorm_wordpool_576.txt	LTP317	ltpFR2	5	16	PATROL	1027	n/a	n/a	0	0	0
3424.954	n/a	WORD	1712477	wordpools/wasnorm_wordpool_576.txt	LTP317	ltpFR2	5	16	TWIG	1527	n/a	n/a	0	0	0
3427.554	n/a	WORD	1713777	wordpools/wasnorm_wordpool_576.txt	LTP317	ltpFR2	5	16	HEDGE	699	n/a	n/a	0	0	0
3430.076	n/a	WORD	1715038	wordpools/wasnorm_wordpool_576.txt	LTP317	ltpFR2	5	16	VALLEY	1545	n/a	n/a	0	0	0
3432.712	n/a	WORD	1716356	wordpools/wasnorm_wordpool_576.txt	LTP317	ltpFR2	5	16	FLAG	573	n/a	n/a	0	0	0
3435.362	n/a	WORD	1717681	wordpools/wasnorm_wordpool_576.txt	LTP317	ltpFR2	5	16	GANGSTER	620	n/a	n/a	0	0	0
3436.968	n/a	START	1718484	n/a	LTP317	ltpFR2	5	n/a	n/a	n/a	23	n/a	n/a	n/a	n/a
3437.822	n/a	DISTRACTOR	1718911	n/a	LTP317	ltpFR2	5	16	n/a	n/a	n/a	n/a	0	0	0
3437.83	n/a	PROB	1718915	n/a	LTP317	ltpFR2	5	n/a	n/a	n/a	23	14	3	4	7
3439.732	n/a	PROB	1719866	n/a	LTP317	ltpFR2	5	n/a	n/a	n/a	23	21	4	8	9
3442.682	n/a	PROB	1721341	n/a	LTP317	ltpFR2	5	n/a	n/a	n/a	23	16	1	8	7
3444.334	n/a	PROB	1722167	n/a	LTP317	ltpFR2	5	n/a	n/a	n/a	23	15	2	5	8
3445.77	n/a	PROB	1722885	n/a	LTP317	ltpFR2	5	n/a	n/a	n/a	23	27	9	9	9
3448.438	n/a	PROB	1724219	n/a	LTP317	ltpFR2	5	n/a	n/a	n/a	23	15	5	2	8
3451.04	n/a	PROB	1725520	n/a	LTP317	ltpFR2	5	n/a	n/a	n/a	23	17	8	1	8
3452.924	n/a	PROB	1726462	n/a	LTP317	ltpFR2	5	n/a	n/a	n/a	23	14	5	1	8
3454.858	n/a	PROB	1727429	n/a	LTP317	ltpFR2	5	n/a	n/a	n/a	23	18	9	1	8
3457.544	n/a	PROB	1728772	n/a	LTP317	ltpFR2	5	n/a	n/a	n/a	23	15	6	5	4
3459.886	n/a	STOP	1729943	n/a	LTP317	ltpFR2	5	n/a	n/a	n/a	23	n/a	n/a	n/a	n/a
3462.834	n/a	REC_START	1731417	n/a	LTP317	ltpFR2	5	16	n/a	n/a	n/a	n/a	0	0	0
3463.806	n/a	REC_WORD	1731903	wordpools/wasnorm_wordpool_576.txt	LTP317	ltpFR2	5	16	OUTLAW	989	n/a	n/a	0	0	0
3464.584	n/a	REC_WORD	1732292	wordpools/wasnorm_wordpool_576.txt	LTP317	ltpFR2	5	16	POLICE	1098	n/a	n/a	0	0	0
3465.456	n/a	REC_WORD	1732728	wordpools/wasnorm_wordpool_576.txt	LTP317	ltpFR2	5	16	PASTA	1021	n/a	n/a	0	0	0
3466.202	n/a	REC_WORD	1733101	wordpools/wasnorm_wordpool_576.txt	LTP317	ltpFR2	5	16	TRENCH	1503	n/a	n/a	0	0	0
3467.092	n/a	REC_WORD	1733546	wordpools/wasnorm_wordpool_576.txt	LTP317	ltpFR2	5	16	ANKLE	24	n/a	n/a	0	0	0
3468.154	n/a	REC_WORD	1734077	wordpools/wasnorm_wordpool_576.txt	LTP317	ltpFR2	5	16	GANGSTER	620	n/a	n/a	0	0	0
3479.508	n/a	REC_WORD	1739754	wordpools/wasnorm_wordpool_576.txt	LTP317	ltpFR2	5	16	ACTOR	5	n/a	n/a	0	0	0
3480.606	n/a	REC_WORD	1740303	wordpools/wasnorm_wordpool_576.txt	LTP317	ltpFR2	5	16	ACTRESS	6	n/a	n/a	0	0	0
3539.36	n/a	REST_REWET	1769680	n/a	LTP317	ltpFR2	5	16	n/a	n/a	n/a	n/a	0	0	0
3752.118	n/a	DISTRACTOR	1876059	n/a	LTP317	ltpFR2	5	17	n/a	n/a	n/a	n/a	0	0	0
3752.118	n/a	START	1876059	n/a	LTP317	ltpFR2	5	n/a	n/a	n/a	24	n/a	n/a	n/a	n/a
3752.132	n/a	PROB	1876066	n/a	LTP317	ltpFR2	5	n/a	n/a	n/a	24	22	5	8	9
3754.958	n/a	PROB	1877479	n/a	LTP317	ltpFR2	5	n/a	n/a	n/a	24	18	7	8	3
3756.626	n/a	PROB	1878313	n/a	LTP317	ltpFR2	5	n/a	n/a	n/a	24	17	2	6	9
3758.146	n/a	PROB	1879073	n/a	LTP317	ltpFR2	5	n/a	n/a	n/a	24	16	9	5	2
3760.714	n/a	PROB	1880357	n/a	LTP317	ltpFR2	5	n/a	n/a	n/a	24	21	6	9	6
3763.418	n/a	PROB	1881709	n/a	LTP317	ltpFR2	5	n/a	n/a	n/a	24	12	3	4	5
3765.052	n/a	PROB	1882526	n/a	LTP317	ltpFR2	5	n/a	n/a	n/a	24	19	7	9	3
3766.718	n/a	PROB	1883359	n/a	LTP317	ltpFR2	5	n/a	n/a	n/a	24	17	7	6	4
3768.27	n/a	PROB	1884135	n/a	LTP317	ltpFR2	5	n/a	n/a	n/a	24	11	7	3	1
3770.406	n/a	PROB	1885203	n/a	LTP317	ltpFR2	5	n/a	n/a	n/a	24	25	9	7	9
3772.54	n/a	PROB	1886270	n/a	LTP317	ltpFR2	5	n/a	n/a	n/a	24	10	6	1	3
3776.116	n/a	STOP	1888058	n/a	LTP317	ltpFR2	5	n/a	n/a	n/a	24	n/a	n/a	n/a	n/a
3777.228	n/a	WORD	1888614	wordpools/wasnorm_wordpool_576.txt	LTP317	ltpFR2	5	17	THRONE	1461	n/a	n/a	0	0	0
3779.874	n/a	WORD	1889937	wordpools/wasnorm_wordpool_576.txt	LTP317	ltpFR2	5	17	JUGGLER	763	n/a	n/a	0	0	0
3782.61	n/a	WORD	1891305	wordpools/wasnorm_wordpool_576.txt	LTP317	ltpFR2	5	17	YARN	1631	n/a	n/a	0	0	0
3785.196	n/a	WORD	1892598	wordpools/wasnorm_wordpool_576.txt	LTP317	ltpFR2	5	17	RACKET	1155	n/a	n/a	0	0	0
3787.652	n/a	WORD	1893826	wordpools/wasnorm_wordpool_576.txt	LTP317	ltpFR2	5	17	SEAL	1262	n/a	n/a	0	0	0
3790.234	n/a	WORD	1895117	wordpools/wasnorm_wordpool_576.txt	LTP317	ltpFR2	5	17	SCARECROW	1245	n/a	n/a	0	0	0
3793.02	n/a	WORD	1896510	wordpools/wasnorm_wordpool_576.txt	LTP317	ltpFR2	5	17	COWBOY	395	n/a	n/a	0	0	0
3795.828	n/a	WORD	1897914	wordpools/wasnorm_wordpool_576.txt	LTP317	ltpFR2	5	17	PEPPER	1047	n/a	n/a	0	0	0
3798.554	n/a	WORD	1899277	wordpools/wasnorm_wordpool_576.txt	LTP317	ltpFR2	5	17	AGENT	10	n/a	n/a	0	0	0
3801.18	n/a	WORD	1900590	wordpools/wasnorm_wordpool_576.txt	LTP317	ltpFR2	5	17	CREATURE	403	n/a	n/a	0	0	0
3803.928	n/a	WORD	1901964	wordpools/wasnorm_wordpool_576.txt	LTP317	ltpFR2	5	17	GREASE	660	n/a	n/a	0	0	0
3806.662	n/a	WORD	1903331	wordpools/wasnorm_wordpool_576.txt	LTP317	ltpFR2	5	17	WOMAN	1620	n/a	n/a	0	0	0
3809.102	n/a	WORD	1904551	wordpools/wasnorm_wordpool_576.txt	LTP317	ltpFR2	5	17	MISTER	901	n/a	n/a	0	0	0
3811.816	n/a	WORD	1905908	wordpools/wasnorm_wordpool_576.txt	LTP317	ltpFR2	5	17	SPARROW	1347	n/a	n/a	0	0	0
3814.47	n/a	WORD	1907235	wordpools/wasnorm_wordpool_576.txt	LTP317	ltpFR2	5	17	PANTHER	1009	n/a	n/a	0	0	0
3817.072	n/a	WORD	1908536	wordpools/wasnorm_wordpool_576.txt	LTP317	ltpFR2	5	17	JELLO	754	n/a	n/a	0	0	0
3819.756	n/a	WORD	1909878	wordpools/wasnorm_wordpool_576.txt	LTP317	ltpFR2	5	17	MAILBOX	857	n/a	n/a	0	0	0
3822.526	n/a	WORD	1911263	wordpools/wasnorm_wordpool_576.txt	LTP317	ltpFR2	5	17	GIRL	637	n/a	n/a	0	0	0
3825.048	n/a	WORD	1912524	wordpools/wasnorm_wordpool_576.txt	LTP317	ltpFR2	5	17	FRECKLE	602	n/a	n/a	0	0	0
3827.78	n/a	WORD	1913890	wordpools/wasnorm_wordpool_576.txt	LTP317	ltpFR2	5	17	LIPSTICK	829	n/a	n/a	0	0	0
3830.216	n/a	WORD	1915108	wordpools/wasnorm_wordpool_576.txt	LTP317	ltpFR2	5	17	BISON	131	n/a	n/a	0	0	0
3832.768	n/a	WORD	1916384	wordpools/wasnorm_wordpool_576.txt	LTP317	ltpFR2	5	17	BLACKBOARD	133	n/a	n/a	0	0	0
3835.49	n/a	WORD	1917745	wordpools/wasnorm_wordpool_576.txt	LTP317	ltpFR2	5	17	QUAIL	1147	n/a	n/a	0	0	0
3838.074	n/a	WORD	1919037	wordpools/wasnorm_wordpool_576.txt	LTP317	ltpFR2	5	17	PACKAGE	997	n/a	n/a	0	0	0
3839.69	n/a	START	1919845	n/a	LTP317	ltpFR2	5	n/a	n/a	n/a	25	n/a	n/a	n/a	n/a
3840.76	n/a	DISTRACTOR	1920380	n/a	LTP317	ltpFR2	5	17	n/a	n/a	n/a	n/a	0	0	0
3840.774	n/a	PROB	1920387	n/a	LTP317	ltpFR2	5	n/a	n/a	n/a	25	21	9	4	8
3844.66	n/a	PROB	1922330	n/a	LTP317	ltpFR2	5	n/a	n/a	n/a	25	17	3	9	5
3846.212	n/a	PROB	1923106	n/a	LTP317	ltpFR2	5	n/a	n/a	n/a	25	19	9	5	5
3848.096	n/a	PROB	1924048	n/a	LTP317	ltpFR2	5	n/a	n/a	n/a	25	8	5	2	1
3849.634	n/a	PROB	1924817	n/a	LTP317	ltpFR2	5	n/a	n/a	n/a	25	24	9	8	7
3854.304	n/a	PROB	1927152	n/a	LTP317	ltpFR2	5	n/a	n/a	n/a	25	21	8	4	9
3856.454	n/a	PROB	1928227	n/a	LTP317	ltpFR2	5	n/a	n/a	n/a	25	21	9	9	3
3858.04	n/a	PROB	1929020	n/a	LTP317	ltpFR2	5	n/a	n/a	n/a	25	25	9	9	7
3862.532	n/a	STOP	1931266	n/a	LTP317	ltpFR2	5	n/a	n/a	n/a	25	n/a	n/a	n/a	n/a
3865.564	n/a	REC_START	1932782	n/a	LTP317	ltpFR2	5	17	n/a	n/a	n/a	n/a	0	0	0
3866.754	n/a	REC_WORD	1933377	wordpools/wasnorm_wordpool_576.txt	LTP317	ltpFR2	5	17	CREATURE	403	n/a	n/a	0	0	0
3867.45	n/a	REC_WORD	1933725	wordpools/wasnorm_wordpool_576.txt	LTP317	ltpFR2	5	17	WOMAN	1620	n/a	n/a	0	0	0
3868.328	n/a	REC_WORD	1934164	wordpools/wasnorm_wordpool_576.txt	LTP317	ltpFR2	5	17	MISTER	901	n/a	n/a	0	0	0
3868.728	n/a	REC_WORD	1934364	wordpools/wasnorm_wordpool_576.txt	LTP317	ltpFR2	5	17	SPARROW	1347	n/a	n/a	0	0	0
3871.664	n/a	REC_WORD	1935832	wordpools/wasnorm_wordpool_576.txt	LTP317	ltpFR2	5	17	QUAIL	1147	n/a	n/a	0	0	0
3876.786	n/a	REC_WORD	1938393	wordpools/wasnorm_wordpool_576.txt	LTP317	ltpFR2	5	17	THRONE	1461	n/a	n/a	0	0	0
3911.07	n/a	REC_WORD	1955535	wordpools/wasnorm_wordpool_576.txt	LTP317	ltpFR2	5	17	SCARECROW	1245	n/a	n/a	0	0	0
3912.048	n/a	REC_WORD	1956024	wordpools/wasnorm_wordpool_576.txt	LTP317	ltpFR2	5	17	BLACKBOARD	133	n/a	n/a	0	0	0
3955.984	n/a	DISTRACTOR	1977992	n/a	LTP317	ltpFR2	5	18	n/a	n/a	n/a	n/a	0	0	0
3955.986	n/a	START	1977993	n/a	LTP317	ltpFR2	5	n/a	n/a	n/a	26	n/a	n/a	n/a	n/a
3956.002	n/a	PROB	1978001	n/a	LTP317	ltpFR2	5	n/a	n/a	n/a	26	18	7	6	5
3958.486	n/a	PROB	1979243	n/a	LTP317	ltpFR2	5	n/a	n/a	n/a	26	17	6	6	5
3960.304	n/a	PROB	1980152	n/a	LTP317	ltpFR2	5	n/a	n/a	n/a	26	18	9	6	3
3962.388	n/a	PROB	1981194	n/a	LTP317	ltpFR2	5	n/a	n/a	n/a	26	15	4	7	4
3964.156	n/a	PROB	1982078	n/a	LTP317	ltpFR2	5	n/a	n/a	n/a	26	13	7	1	5
3966.392	n/a	PROB	1983196	n/a	LTP317	ltpFR2	5	n/a	n/a	n/a	26	8	6	1	1
3967.71	n/a	PROB	1983855	n/a	LTP317	ltpFR2	5	n/a	n/a	n/a	26	17	7	1	9
3969.362	n/a	PROB	1984681	n/a	LTP317	ltpFR2	5	n/a	n/a	n/a	26	6	1	2	3
3970.512	n/a	PROB	1985256	n/a	LTP317	ltpFR2	5	n/a	n/a	n/a	26	19	6	8	5
3973.048	n/a	PROB	1986524	n/a	LTP317	ltpFR2	5	n/a	n/a	n/a	26	12	1	7	4
3974.498	n/a	PROB	1987249	n/a	LTP317	ltpFR2	5	n/a	n/a	n/a	26	22	7	7	8
3977.05	n/a	PROB	1988525	n/a	LTP317	ltpFR2	5	n/a	n/a	n/a	26	24	7	7	9
3979.142	n/a	STOP	1989571	n/a	LTP317	ltpFR2	5	n/a	n/a	n/a	26	n/a	n/a	n/a	n/a
3981.086	n/a	WORD	1990543	wordpools/wasnorm_wordpool_576.txt	LTP317	ltpFR2	5	18	FLEET	578	n/a	n/a	0	0	0
3983.604	n/a	WORD	1991802	wordpools/wasnorm_wordpool_576.txt	LTP317	ltpFR2	5	18	PUPIL	1143	n/a	n/a	0	0	0
3986.064	n/a	WORD	1993032	wordpools/wasnorm_wordpool_576.txt	LTP317	ltpFR2	5	18	PREACHER	1119	n/a	n/a	0	0	0
3988.708	n/a	WORD	1994354	wordpools/wasnorm_wordpool_576.txt	LTP317	ltpFR2	5	18	MARS	873	n/a	n/a	0	0	0
3991.412	n/a	WORD	1995706	wordpools/wasnorm_wordpool_576.txt	LTP317	ltpFR2	5	18	TWEEZERS	1526	n/a	n/a	0	0	0
3994.048	n/a	WORD	1997024	wordpools/wasnorm_wordpool_576.txt	LTP317	ltpFR2	5	18	GUITAR	670	n/a	n/a	0	0	0
3996.69	n/a	WORD	1998345	wordpools/wasnorm_wordpool_576.txt	LTP317	ltpFR2	5	18	HOSTESS	723	n/a	n/a	0	0	0
3999.268	n/a	WORD	1999634	wordpools/wasnorm_wordpool_576.txt	LTP317	ltpFR2	5	18	UMPIRE	1535	n/a	n/a	0	0	0
4001.97	n/a	WORD	2000985	wordpools/wasnorm_wordpool_576.txt	LTP317	ltpFR2	5	18	GLOVE	642	n/a	n/a	0	0	0
4004.58	n/a	WORD	2002290	wordpools/wasnorm_wordpool_576.txt	LTP317	ltpFR2	5	18	GYMNAST	675	n/a	n/a	0	0	0
4007.034	n/a	WORD	2003517	wordpools/wasnorm_wordpool_576.txt	LTP317	ltpFR2	5	18	DRUG	501	n/a	n/a	0	0	0
4009.518	n/a	WORD	2004759	wordpools/wasnorm_wordpool_576.txt	LTP317	ltpFR2	5	18	STONE	1385	n/a	n/a	0	0	0
4012.154	n/a	WORD	2006077	wordpools/wasnorm_wordpool_576.txt	LTP317	ltpFR2	5	18	CLOCK	325	n/a	n/a	0	0	0
4014.738	n/a	WORD	2007369	wordpools/wasnorm_wordpool_576.txt	LTP317	ltpFR2	5	18	ORCHID	982	n/a	n/a	0	0	0
4017.548	n/a	WORD	2008774	wordpools/wasnorm_wordpool_576.txt	LTP317	ltpFR2	5	18	STATUE	1374	n/a	n/a	0	0	0
4020.3	n/a	WORD	2010150	wordpools/wasnorm_wordpool_576.txt	LTP317	ltpFR2	5	18	SHORTS	1293	n/a	n/a	0	0	0
4022.88	n/a	WORD	2011440	wordpools/wasnorm_wordpool_576.txt	LTP317	ltpFR2	5	18	DENIM	446	n/a	n/a	0	0	0
4025.416	n/a	WORD	2012708	wordpools/wasnorm_wordpool_576.txt	LTP317	ltpFR2	5	18	SUITCASE	1403	n/a	n/a	0	0	0
4027.99	n/a	WORD	2013995	wordpools/wasnorm_wordpool_576.txt	LTP317	ltpFR2	5	18	TOURIST	1488	n/a	n/a	0	0	0
4030.454	n/a	WORD	2015227	wordpools/wasnorm_wordpool_576.txt	LTP317	ltpFR2	5	18	STUDENT	1395	n/a	n/a	0	0	0
4032.922	n/a	WORD	2016461	wordpools/wasnorm_wordpool_576.txt	LTP317	ltpFR2	5	18	CATCHER	258	n/a	n/a	0	0	0
4035.728	n/a	WORD	2017864	wordpools/wasnorm_wordpool_576.txt	LTP317	ltpFR2	5	18	PARROT	1015	n/a	n/a	0	0	0
4038.508	n/a	WORD	2019254	wordpools/wasnorm_wordpool_576.txt	LTP317	ltpFR2	5	18	PLIERS	1089	n/a	n/a	0	0	0
4041.062	n/a	WORD	2020531	wordpools/wasnorm_wordpool_576.txt	LTP317	ltpFR2	5	18	PLAYGROUND	1087	n/a	n/a	0	0	0
4042.668	n/a	START	2021334	n/a	LTP317	ltpFR2	5	n/a	n/a	n/a	27	n/a	n/a	n/a	n/a
4043.752	n/a	DISTRACTOR	2021876	n/a	LTP317	ltpFR2	5	18	n/a	n/a	n/a	n/a	0	0	0
4043.764	n/a	PROB	2021882	n/a	LTP317	ltpFR2	5	n/a	n/a	n/a	27	9	2	6	1
4045.936	n/a	PROB	2022968	n/a	LTP317	ltpFR2	5	n/a	n/a	n/a	27	21	9	3	9
4048.406	n/a	PROB	2024203	n/a	LTP317	ltpFR2	5	n/a	n/a	n/a	27	18	4	5	9
4049.774	n/a	PROB	2024887	n/a	LTP317	ltpFR2	5	n/a	n/a	n/a	27	9	3	1	5
4051.176	n/a	PROB	2025588	n/a	LTP317	ltpFR2	5	n/a	n/a	n/a	27	6	1	1	4
4053.278	n/a	PROB	2026639	n/a	LTP317	ltpFR2	5	n/a	n/a	n/a	27	24	8	9	7
4056.578	n/a	PROB	2028289	n/a	LTP317	ltpFR2	5	n/a	n/a	n/a	27	12	6	3	3
4058.164	n/a	PROB	2029082	n/a	LTP317	ltpFR2	5	n/a	n/a	n/a	27	14	6	3	5
4059.896	n/a	PROB	2029948	n/a	LTP317	ltpFR2	5	n/a	n/a	n/a	27	13	3	3	7
4062.016	n/a	PROB	2031008	n/a	LTP317	ltpFR2	5	n/a	n/a	n/a	27	17	6	2	9
4064.302	n/a	PROB	2032151	n/a	LTP317	ltpFR2	5	n/a	n/a	n/a	27	8	4	3	1
4066.24	n/a	STOP	2033120	n/a	LTP317	ltpFR2	5	n/a	n/a	n/a	27	n/a	n/a	n/a	n/a
4068.424	n/a	REC_START	2034212	n/a	LTP317	ltpFR2	5	18	n/a	n/a	n/a	n/a	0	0	0
4069.37	n/a	REC_WORD	2034685	wordpools/wasnorm_wordpool_576.txt	LTP317	ltpFR2	5	18	FLEET	578	n/a	n/a	0	0	0
4070.26	n/a	REC_WORD	2035130	wordpools/wasnorm_wordpool_576.txt	LTP317	ltpFR2	5	18	PUPIL	1143	n/a	n/a	0	0	0
4071.886	n/a	REC_WORD	2035943	wordpools/wasnorm_wordpool_576.txt	LTP317	ltpFR2	5	18	PREACHER	1119	n/a	n/a	0	0	0
4073.022	n/a	REC_WORD	2036511	wordpools/wasnorm_wordpool_576.txt	LTP317	ltpFR2	5	18	MARS	873	n/a	n/a	0	0	0
4073.958	n/a	REC_WORD	2036979	wordpools/wasnorm_wordpool_576.txt	LTP317	ltpFR2	5	18	TWEEZERS	1526	n/a	n/a	0	0	0
4074.838	n/a	REC_WORD	2037419	wordpools/wasnorm_wordpool_576.txt	LTP317	ltpFR2	5	18	PLIERS	1089	n/a	n/a	0	0	0
4158.874	n/a	WORD	2079437	wordpools/wasnorm_wordpool_576.txt	LTP317	ltpFR2	5	19	TROUT	1511	n/a	n/a	0	0	0
4161.56	n/a	WORD	2080780	wordpools/wasnorm_wordpool_576.txt	LTP317	ltpFR2	5	19	REBEL	1172	n/a	n/a	0	0	0
4164.314	n/a	WORD	2082157	wordpools/wasnorm_wordpool_576.txt	LTP317	ltpFR2	5	19	MACHINE	852	n/a	n/a	0	0	0
4166.998	n/a	WORD	2083499	wordpools/wasnorm_wordpool_576.txt	LTP317	ltpFR2	5	19	HORSE	719	n/a	n/a	0	0	0
4169.75	n/a	WORD	2084875	wordpools/wasnorm_wordpool_576.txt	LTP317	ltpFR2	5	19	BROOK	177	n/a	n/a	0	0	0
4172.406	n/a	WORD	2086203	wordpools/wasnorm_wordpool_576.txt	LTP317	ltpFR2	5	19	CANAL	226	n/a	n/a	0	0	0
4175.138	n/a	WORD	2087569	wordpools/wasnorm_wordpool_576.txt	LTP317	ltpFR2	5	19	LAGOON	795	n/a	n/a	0	0	0
4177.89	n/a	WORD	2088945	wordpools/wasnorm_wordpool_576.txt	LTP317	ltpFR2	5	19	BEAVER	109	n/a	n/a	0	0	0
4180.33	n/a	WORD	2090165	wordpools/wasnorm_wordpool_576.txt	LTP317	ltpFR2	5	19	CLAM	315	n/a	n/a	0	0	0
4182.932	n/a	WORD	2091466	wordpools/wasnorm_wordpool_576.txt	LTP317	ltpFR2	5	19	FOREST	593	n/a	n/a	0	0	0
4185.646	n/a	WORD	2092823	wordpools/wasnorm_wordpool_576.txt	LTP317	ltpFR2	5	19	LUMBER	848	n/a	n/a	0	0	0
4188.416	n/a	WORD	2094208	wordpools/wasnorm_wordpool_576.txt	LTP317	ltpFR2	5	19	CARRIAGE	248	n/a	n/a	0	0	0
4190.9	n/a	WORD	2095450	wordpools/wasnorm_wordpool_576.txt	LTP317	ltpFR2	5	19	TURKEY	1520	n/a	n/a	0	0	0
4193.484	n/a	WORD	2096742	wordpools/wasnorm_wordpool_576.txt	LTP317	ltpFR2	5	19	LAMP	798	n/a	n/a	0	0	0
4196.192	n/a	WORD	2098096	wordpools/wasnorm_wordpool_576.txt	LTP317	ltpFR2	5	19	JELLY	755	n/a	n/a	0	0	0
4198.738	n/a	WORD	2099369	wordpools/wasnorm_wordpool_576.txt	LTP317	ltpFR2	5	19	STICKER	1382	n/a	n/a	0	0	0
4201.192	n/a	WORD	2100596	wordpools/wasnorm_wordpool_576.txt	LTP317	ltpFR2	5	19	YOLK	1633	n/a	n/a	0	0	0
4203.676	n/a	WORD	2101838	wordpools/wasnorm_wordpool_576.txt	LTP317	ltpFR2	5	19	SPIDER	1351	n/a	n/a	0	0	0
4206.412	n/a	WORD	2103206	wordpools/wasnorm_wordpool_576.txt	LTP317	ltpFR2	5	19	CLOTHES	327	n/a	n/a	0	0	0
4209.098	n/a	WORD	2104549	wordpools/wasnorm_wordpool_576.txt	LTP317	ltpFR2	5	19	CRATER	400	n/a	n/a	0	0	0
4211.532	n/a	WORD	2105766	wordpools/wasnorm_wordpool_576.txt	LTP317	ltpFR2	5	19	TILE	1468	n/a	n/a	0	0	0
4214.22	n/a	WORD	2107110	wordpools/wasnorm_wordpool_576.txt	LTP317	ltpFR2	5	19	EYELASH	546	n/a	n/a	0	0	0
4216.704	n/a	WORD	2108352	wordpools/wasnorm_wordpool_576.txt	LTP317	ltpFR2	5	19	TREAT	1501	n/a	n/a	0	0	0
4219.34	n/a	WORD	2109670	wordpools/wasnorm_wordpool_576.txt	LTP317	ltpFR2	5	19	GROUND	666	n/a	n/a	0	0	0
4220.95	n/a	START	2110475	n/a	LTP317	ltpFR2	5	n/a	n/a	n/a	28	n/a	n/a	n/a	n/a
4221.778	n/a	DISTRACTOR	2110889	n/a	LTP317	ltpFR2	5	19	n/a	n/a	n/a	n/a	0	0	0
4221.79	n/a	PROB	2110895	n/a	LTP317	ltpFR2	5	n/a	n/a	n/a	28	17	7	6	4
4225.826	n/a	PROB	2112913	n/a	LTP317	ltpFR2	5	n/a	n/a	n/a	28	9	3	5	1
4227.412	n/a	PROB	2113706	n/a	LTP317	ltpFR2	5	n/a	n/a	n/a	28	18	3	9	6
4230.514	n/a	PROB	2115257	n/a	LTP317	ltpFR2	5	n/a	n/a	n/a	28	21	7	9	5
4234.35	n/a	PROB	2117175	n/a	LTP317	ltpFR2	5	n/a	n/a	n/a	28	14	2	7	5
4236.02	n/a	PROB	2118010	n/a	LTP317	ltpFR2	5	n/a	n/a	n/a	28	22	6	7	9
4238.286	n/a	PROB	2119143	n/a	LTP317	ltpFR2	5	n/a	n/a	n/a	28	14	7	1	6
4240.354	n/a	PROB	2120177	n/a	LTP317	ltpFR2	5	n/a	n/a	n/a	28	13	2	9	2
4242.438	n/a	PROB	2121219	n/a	LTP317	ltpFR2	5	n/a	n/a	n/a	28	15	1	7	7
4244.01	n/a	STOP	2122005	n/a	LTP317	ltpFR2	5	n/a	n/a	n/a	28	n/a	n/a	n/a	n/a
4246.826	n/a	REC_START	2123413	n/a	LTP317	ltpFR2	5	19	n/a	n/a	n/a	n/a	0	0	0
4247.918	n/a	REC_WORD	2123959	wordpools/wasnorm_wordpool_576.txt	LTP317	ltpFR2	5	19	TROUT	1511	n/a	n/a	0	0	0
4248.716	n/a	REC_WORD	2124358	wordpools/wasnorm_wordpool_576.txt	LTP317	ltpFR2	5	19	REBEL	1172	n/a	n/a	0	0	0
4249.778	n/a	REC_WORD	2124889	wordpools/wasnorm_wordpool_576.txt	LTP317	ltpFR2	5	19	MACHINE	852	n/a	n/a	0	0	0
4250.742	n/a	REC_WORD	2125371	wordpools/wasnorm_wordpool_576.txt	LTP317	ltpFR2	5	19	HORSE	719	n/a	n/a	0	0	0
4267.124	n/a	REC_WORD	2133562	wordpools/wasnorm_wordpool_576.txt	LTP317	ltpFR2	5	19	BROOK	177	n/a	n/a	0	0	0
4268.12	n/a	REC_WORD	2134060	wordpools/wasnorm_wordpool_576.txt	LTP317	ltpFR2	5	19	CANAL	226	n/a	n/a	0	0	0
4269.158	n/a	REC_WORD	2134579	wordpools/wasnorm_wordpool_576.txt	LTP317	ltpFR2	5	19	LUMBER	848	n/a	n/a	0	0	0
4270.072	n/a	REC_WORD	2135036	wordpools/wasnorm_wordpool_576.txt	LTP317	ltpFR2	5	19	TURKEY	1520	n/a	n/a	0	0	0
4337.266	n/a	DISTRACTOR	2168633	n/a	LTP317	ltpFR2	5	20	n/a	n/a	n/a	n/a	0	0	0
4337.266	n/a	START	2168633	n/a	LTP317	ltpFR2	5	n/a	n/a	n/a	29	n/a	n/a	n/a	n/a
4337.28	n/a	PROB	2168640	n/a	LTP317	ltpFR2	5	n/a	n/a	n/a	29	15	2	6	7
4339.282	n/a	PROB	2169641	n/a	LTP317	ltpFR2	5	n/a	n/a	n/a	29	9	1	3	5
4340.698	n/a	PROB	2170349	n/a	LTP317	ltpFR2	5	n/a	n/a	n/a	29	1	3	7	2
4342.102	n/a	PROB	2171051	n/a	LTP317	ltpFR2	5	n/a	n/a	n/a	29	16	6	6	4
4343.532	n/a	PROB	2171766	n/a	LTP317	ltpFR2	5	n/a	n/a	n/a	29	20	8	4	8
4345.42	n/a	PROB	2172710	n/a	LTP317	ltpFR2	5	n/a	n/a	n/a	29	10	1	6	3
4346.938	n/a	PROB	2173469	n/a	LTP317	ltpFR2	5	n/a	n/a	n/a	29	14	4	6	4
4348.772	n/a	PROB	2174386	n/a	LTP317	ltpFR2	5	n/a	n/a	n/a	29	8	1	2	5
4350.508	n/a	PROB	2175254	n/a	LTP317	ltpFR2	5	n/a	n/a	n/a	29	10	6	2	2
4352.076	n/a	PROB	2176038	n/a	LTP317	ltpFR2	5	n/a	n/a	n/a	29	12	5	4	3
4353.376	n/a	PROB	2176688	n/a	LTP317	ltpFR2	5	n/a	n/a	n/a	29	8	3	1	4
4355.428	n/a	PROB	2177714	n/a	LTP317	ltpFR2	5	n/a	n/a	n/a	29	9	3	4	4
4357.512	n/a	PROB	2178756	n/a	LTP317	ltpFR2	5	n/a	n/a	n/a	29	5	3	1	2
4361.266	n/a	STOP	2180633	n/a	LTP317	ltpFR2	5	n/a	n/a	n/a	29	n/a	n/a	n/a	n/a
4362.118	n/a	WORD	2181059	wordpools/wasnorm_wordpool_576.txt	LTP317	ltpFR2	5	20	COFFEE	341	n/a	n/a	0	0	0
4364.55	n/a	WORD	2182275	wordpools/wasnorm_wordpool_576.txt	LTP317	ltpFR2	5	20	CONTRACT	368	n/a	n/a	0	0	0
4366.986	n/a	WORD	2183493	wordpools/wasnorm_wordpool_576.txt	LTP317	ltpFR2	5	20	GARBAGE	622	n/a	n/a	0	0	0
4369.488	n/a	WORD	2184744	wordpools/wasnorm_wordpool_576.txt	LTP317	ltpFR2	5	20	PISTOL	1075	n/a	n/a	0	0	0
4372.058	n/a	WORD	2186029	wordpools/wasnorm_wordpool_576.txt	LTP317	ltpFR2	5	20	MAILMAN	858	n/a	n/a	0	0	0
4374.508	n/a	WORD	2187254	wordpools/wasnorm_wordpool_576.txt	LTP317	ltpFR2	5	20	STAMP	1370	n/a	n/a	0	0	0
4377.312	n/a	WORD	2188656	wordpools/wasnorm_wordpool_576.txt	LTP317	ltpFR2	5	20	DOLPHIN	483	n/a	n/a	0	0	0
4380.03	n/a	WORD	2190015	wordpools/wasnorm_wordpool_576.txt	LTP317	ltpFR2	5	20	SHELTER	1282	n/a	n/a	0	0	0
4382.75	n/a	WORD	2191375	wordpools/wasnorm_wordpool_576.txt	LTP317	ltpFR2	5	20	PAPER	1011	n/a	n/a	0	0	0
4385.286	n/a	WORD	2192643	wordpools/wasnorm_wordpool_576.txt	LTP317	ltpFR2	5	20	SCRIBBLE	1256	n/a	n/a	0	0	0
4387.72	n/a	WORD	2193860	wordpools/wasnorm_wordpool_576.txt	LTP317	ltpFR2	5	20	WAITRESS	1581	n/a	n/a	0	0	0
4390.522	n/a	WORD	2195261	wordpools/wasnorm_wordpool_576.txt	LTP317	ltpFR2	5	20	NOVEL	960	n/a	n/a	0	0	0
4393.192	n/a	WORD	2196596	wordpools/wasnorm_wordpool_576.txt	LTP317	ltpFR2	5	20	VIRUS	1572	n/a	n/a	0	0	0
4395.776	n/a	WORD	2197888	wordpools/wasnorm_wordpool_576.txt	LTP317	ltpFR2	5	20	BOUQUET	157	n/a	n/a	0	0	0
4398.512	n/a	WORD	2199256	wordpools/wasnorm_wordpool_576.txt	LTP317	ltpFR2	5	20	SUNSET	1408	n/a	n/a	0	0	0
4401.082	n/a	WORD	2200541	wordpools/wasnorm_wordpool_576.txt	LTP317	ltpFR2	5	20	BULLET	194	n/a	n/a	0	0	0
4403.884	n/a	WORD	2201942	wordpools/wasnorm_wordpool_576.txt	LTP317	ltpFR2	5	20	DRINK	498	n/a	n/a	0	0	0
4406.402	n/a	WORD	2203201	wordpools/wasnorm_wordpool_576.txt	LTP317	ltpFR2	5	20	SCISSORS	1250	n/a	n/a	0	0	0
4409.186	n/a	WORD	2204593	wordpools/wasnorm_wordpool_576.txt	LTP317	ltpFR2	5	20	CHAPEL	280	n/a	n/a	0	0	0
4411.672	n/a	WORD	2205836	wordpools/wasnorm_wordpool_576.txt	LTP317	ltpFR2	5	20	WAITER	1580	n/a	n/a	0	0	0
4414.212	n/a	WORD	2207106	wordpools/wasnorm_wordpool_576.txt	LTP317	ltpFR2	5	20	COUCH	386	n/a	n/a	0	0	0
4416.876	n/a	WORD	2208438	wordpools/wasnorm_wordpool_576.txt	LTP317	ltpFR2	5	20	GRAPE	654	n/a	n/a	0	0	0
4419.516	n/a	WORD	2209758	wordpools/wasnorm_wordpool_576.txt	LTP317	ltpFR2	5	20	PUPPY	1144	n/a	n/a	0	0	0
4422.214	n/a	WORD	2211107	wordpools/wasnorm_wordpool_576.txt	LTP317	ltpFR2	5	20	SCALPEL	1243	n/a	n/a	0	0	0
4423.82	n/a	START	2211910	n/a	LTP317	ltpFR2	5	n/a	n/a	n/a	30	n/a	n/a	n/a	n/a
4424.754	n/a	DISTRACTOR	2212377	n/a	LTP317	ltpFR2	5	20	n/a	n/a	n/a	n/a	0	0	0
4424.766	n/a	PROB	2212383	n/a	LTP317	ltpFR2	5	n/a	n/a	n/a	30	18	9	5	4
