onset	duration	trial_type	sample	stim_file	subject	experiment	session	trial	task	item_name	item_num	recog_conf	resp	color_b	color_g	color_r	case	font
359.45	n/a	SESS_START	179725	n/a	LTP286	ltpFR	0	n/a	n/a	n/a	n/a	n/a	n/a	n/a	n/a	n/a	n/a	n/a
456.992	n/a	WORD	228496	wordpools/wasnorm_wordpool_less_exclusions.txt	LTP286	ltpFR	0	1	-1	TRIANGLE	1504	n/a	-1	1	1.0	1.0	upper	../fonts/Verdana.ttf
460.886	n/a	WORD	230443	wordpools/wasnorm_wordpool_less_exclusions.txt	LTP286	ltpFR	0	1	-1	SHRINE	1298	n/a	-1	1	1.0	1.0	upper	../fonts/Verdana.ttf
464.762	n/a	WORD	232381	wordpools/wasnorm_wordpool_less_exclusions.txt	LTP286	ltpFR	0	1	-1	CREEK	404	n/a	-1	1	1.0	1.0	upper	../fonts/Verdana.ttf
468.824	n/a	WORD	234412	wordpools/wasnorm_wordpool_less_exclusions.txt	LTP286	ltpFR	0	1	-1	RUST	1219	n/a	-1	1	1.0	1.0	upper	../fonts/Verdana.ttf
472.968	n/a	WORD	236484	wordpools/wasnorm_wordpool_less_exclusions.txt	LTP286	ltpFR	0	1	-1	VEHICLE	1553	n/a	-1	1	1.0	1.0	upper	../fonts/Verdana.ttf
476.844	n/a	WORD	238422	wordpools/wasnorm_wordpool_less_exclusions.txt	LTP286	ltpFR	0	1	-1	TOWER	1490	n/a	-1	1	1.0	1.0	upper	../fonts/Verdana.ttf
481.006	n/a	WORD	240503	wordpools/wasnorm_wordpool_less_exclusions.txt	LTP286	ltpFR	0	1	-1	HONEY	713	n/a	-1	1	1.0	1.0	upper	../fonts/Verdana.ttf
484.95	n/a	WORD	242475	wordpools/wasnorm_wordpool_less_exclusions.txt	LTP286	ltpFR	0	1	-1	FOLDER	588	n/a	-1	1	1.0	1.0	upper	../fonts/Verdana.ttf
489.06	n/a	WORD	244530	wordpools/wasnorm_wordpool_less_exclusions.txt	LTP286	ltpFR	0	1	-1	RIVER	1194	n/a	-1	1	1.0	1.0	upper	../fonts/Verdana.ttf
493.022	n/a	WORD	246511	wordpools/wasnorm_wordpool_less_exclusions.txt	LTP286	ltpFR	0	1	-1	CAULIFLOWER	262	n/a	-1	1	1.0	1.0	upper	../fonts/Verdana.ttf
497.232	n/a	WORD	248616	wordpools/wasnorm_wordpool_less_exclusions.txt	LTP286	ltpFR	0	1	-1	FUDGE	611	n/a	-1	1	1.0	1.0	upper	../fonts/Verdana.ttf
501.392	n/a	WORD	250696	wordpools/wasnorm_wordpool_less_exclusions.txt	LTP286	ltpFR	0	1	-1	CAGE	218	n/a	-1	1	1.0	1.0	upper	../fonts/Verdana.ttf
505.304	n/a	WORD	252652	wordpools/wasnorm_wordpool_less_exclusions.txt	LTP286	ltpFR	0	1	-1	COLESLAW	344	n/a	-1	1	1.0	1.0	upper	../fonts/Verdana.ttf
509.198	n/a	WORD	254599	wordpools/wasnorm_wordpool_less_exclusions.txt	LTP286	ltpFR	0	1	-1	PAGE	1001	n/a	-1	1	1.0	1.0	upper	../fonts/Verdana.ttf
513.358	n/a	WORD	256679	wordpools/wasnorm_wordpool_less_exclusions.txt	LTP286	ltpFR	0	1	-1	BUFFALO	186	n/a	-1	1	1.0	1.0	upper	../fonts/Verdana.ttf
517.336	n/a	WORD	258668	wordpools/wasnorm_wordpool_less_exclusions.txt	LTP286	ltpFR	0	1	-1	POSSUM	1112	n/a	-1	1	1.0	1.0	upper	../fonts/Verdana.ttf
523.178	n/a	REC_START	261589	n/a	LTP286	ltpFR	0	1	n/a	n/a	n/a	n/a	n/a	n/a	n/a	n/a	n/a	n/a
524.24	n/a	REC_WORD	262120	wordpools/wasnorm_wordpool_less_exclusions.txt	LTP286	ltpFR	0	1	-1	POSSUM	1112	n/a	-1	n/a	n/a	n/a	n/a	n/a
525.59	n/a	REC_WORD	262795	wordpools/wasnorm_wordpool_less_exclusions.txt	LTP286	ltpFR	0	1	-1	VEHICLE	1553	n/a	-1	n/a	n/a	n/a	n/a	n/a
527.038	n/a	REC_WORD	263519	wordpools/wasnorm_wordpool_less_exclusions.txt	LTP286	ltpFR	0	1	-1	RUST	1219	n/a	-1	n/a	n/a	n/a	n/a	n/a
529.366	n/a	REC_WORD	264683	wordpools/wasnorm_wordpool_less_exclusions.txt	LTP286	ltpFR	0	1	-1	HONEY	713	n/a	-1	n/a	n/a	n/a	n/a	n/a
530.472	n/a	REC_WORD	265236	wordpools/wasnorm_wordpool_less_exclusions.txt	LTP286	ltpFR	0	1	-1	TOWER	1490	n/a	-1	n/a	n/a	n/a	n/a	n/a
533.44	n/a	REC_WORD	266720	wordpools/wasnorm_wordpool_less_exclusions.txt	LTP286	ltpFR	0	1	-1	BUFFALO	186	n/a	-1	n/a	n/a	n/a	n/a	n/a
538.922	n/a	REC_WORD	269461	wordpools/wasnorm_wordpool_less_exclusions.txt	LTP286	ltpFR	0	1	-1	RIVER	1194	n/a	-1	n/a	n/a	n/a	n/a	n/a
546.646	n/a	REC_WORD	273323	wordpools/wasnorm_wordpool_less_exclusions.txt	LTP286	ltpFR	0	1	-1	FUDGE	611	n/a	-1	n/a	n/a	n/a	n/a	n/a
564.604	n/a	REC_WORD	282302	wordpools/wasnorm_wordpool_less_exclusions.txt	LTP286	ltpFR	0	1	-1	CAULIFLOWER	262	n/a	-1	n/a	n/a	n/a	n/a	n/a
615.358	n/a	WORD	307679	wordpools/wasnorm_wordpool_less_exclusions.txt	LTP286	ltpFR	0	2	-1	TROUSERS	1510	n/a	-1	1	1.0	1.0	upper	../fonts/Verdana.ttf
619.518	n/a	WORD	309759	wordpools/wasnorm_wordpool_less_exclusions.txt	LTP286	ltpFR	0	2	-1	SLACKS	1323	n/a	-1	1	1.0	1.0	upper	../fonts/Verdana.ttf
623.512	n/a	WORD	311756	wordpools/wasnorm_wordpool_less_exclusions.txt	LTP286	ltpFR	0	2	-1	VEGETABLE	1552	n/a	-1	1	1.0	1.0	upper	../fonts/Verdana.ttf
627.49	n/a	WORD	313745	wordpools/wasnorm_wordpool_less_exclusions.txt	LTP286	ltpFR	0	2	-1	SPINE	1353	n/a	-1	1	1.0	1.0	upper	../fonts/Verdana.ttf
631.5	n/a	WORD	315750	wordpools/wasnorm_wordpool_less_exclusions.txt	LTP286	ltpFR	0	2	-1	SEAT	1264	n/a	-1	1	1.0	1.0	upper	../fonts/Verdana.ttf
635.544	n/a	WORD	317772	wordpools/wasnorm_wordpool_less_exclusions.txt	LTP286	ltpFR	0	2	-1	DUST	508	n/a	-1	1	1.0	1.0	upper	../fonts/Verdana.ttf
639.572	n/a	WORD	319786	wordpools/wasnorm_wordpool_less_exclusions.txt	LTP286	ltpFR	0	2	-1	GARAGE	621	n/a	-1	1	1.0	1.0	upper	../fonts/Verdana.ttf
643.532	n/a	WORD	321766	wordpools/wasnorm_wordpool_less_exclusions.txt	LTP286	ltpFR	0	2	-1	PASSENGER	1020	n/a	-1	1	1.0	1.0	upper	../fonts/Verdana.ttf
647.66	n/a	WORD	323830	wordpools/wasnorm_wordpool_less_exclusions.txt	LTP286	ltpFR	0	2	-1	GLACIER	638	n/a	-1	1	1.0	1.0	upper	../fonts/Verdana.ttf
651.786	n/a	WORD	325893	wordpools/wasnorm_wordpool_less_exclusions.txt	LTP286	ltpFR	0	2	-1	ENCYCLOPEDIA	533	n/a	-1	1	1.0	1.0	upper	../fonts/Verdana.ttf
655.746	n/a	WORD	327873	wordpools/wasnorm_wordpool_less_exclusions.txt	LTP286	ltpFR	0	2	-1	TRENCH	1503	n/a	-1	1	1.0	1.0	upper	../fonts/Verdana.ttf
659.574	n/a	WORD	329787	wordpools/wasnorm_wordpool_less_exclusions.txt	LTP286	ltpFR	0	2	-1	CAPTAIN	239	n/a	-1	1	1.0	1.0	upper	../fonts/Verdana.ttf
663.702	n/a	WORD	331851	wordpools/wasnorm_wordpool_less_exclusions.txt	LTP286	ltpFR	0	2	-1	BERRY	122	n/a	-1	1	1.0	1.0	upper	../fonts/Verdana.ttf
667.846	n/a	WORD	333923	wordpools/wasnorm_wordpool_less_exclusions.txt	LTP286	ltpFR	0	2	-1	STOOL	1386	n/a	-1	1	1.0	1.0	upper	../fonts/Verdana.ttf
671.856	n/a	WORD	335928	wordpools/wasnorm_wordpool_less_exclusions.txt	LTP286	ltpFR	0	2	-1	KEY	773	n/a	-1	1	1.0	1.0	upper	../fonts/Verdana.ttf
675.916	n/a	WORD	337958	wordpools/wasnorm_wordpool_less_exclusions.txt	LTP286	ltpFR	0	2	-1	CHAUFFEUR	283	n/a	-1	1	1.0	1.0	upper	../fonts/Verdana.ttf
681.642	n/a	REC_START	340821	n/a	LTP286	ltpFR	0	2	n/a	n/a	n/a	n/a	n/a	n/a	n/a	n/a	n/a	n/a
682.366	n/a	REC_WORD	341183	wordpools/wasnorm_wordpool_less_exclusions.txt	LTP286	ltpFR	0	2	-1	CHAUFFEUR	283	n/a	-1	n/a	n/a	n/a	n/a	n/a
683.7	n/a	REC_WORD	341850	wordpools/wasnorm_wordpool_less_exclusions.txt	LTP286	ltpFR	0	2	-1	GARAGE	621	n/a	-1	n/a	n/a	n/a	n/a	n/a
684.926	n/a	REC_WORD	342463	wordpools/wasnorm_wordpool_less_exclusions.txt	LTP286	ltpFR	0	2	-1	STOOL	1386	n/a	-1	n/a	n/a	n/a	n/a	n/a
686.714	n/a	REC_WORD	343357	wordpools/wasnorm_wordpool_less_exclusions.txt	LTP286	ltpFR	0	2	-1	DUST	508	n/a	-1	n/a	n/a	n/a	n/a	n/a
704.942	n/a	REC_WORD	352471	wordpools/wasnorm_wordpool_less_exclusions.txt	LTP286	ltpFR	0	2	-1	VEGETABLE	1552	n/a	-1	n/a	n/a	n/a	n/a	n/a
706.122	n/a	REC_WORD	353061	wordpools/wasnorm_wordpool_less_exclusions.txt	LTP286	ltpFR	0	2	-1	TROUSERS	1510	n/a	-1	n/a	n/a	n/a	n/a	n/a
707.122	n/a	REC_WORD_VV	353561	wordpools/wasnorm_wordpool_less_exclusions.txt	LTP286	ltpFR	0	2	n/a	<>	-1	n/a	n/a	n/a	n/a	n/a	n/a	n/a
707.336	n/a	REC_WORD	353668	wordpools/wasnorm_wordpool_less_exclusions.txt	LTP286	ltpFR	0	2	-1	SLACKS	1323	n/a	-1	n/a	n/a	n/a	n/a	n/a
709.318	n/a	REC_WORD	354659	wordpools/wasnorm_wordpool_less_exclusions.txt	LTP286	ltpFR	0	2	-1	SEAT	1264	n/a	-1	n/a	n/a	n/a	n/a	n/a
710.356	n/a	REC_WORD	355178	wordpools/wasnorm_wordpool_less_exclusions.txt	LTP286	ltpFR	0	2	-1	SPINE	1353	n/a	-1	n/a	n/a	n/a	n/a	n/a
716.954	n/a	REC_WORD	358477	wordpools/wasnorm_wordpool_less_exclusions.txt	LTP286	ltpFR	0	2	-1	BERRY	122	n/a	-1	n/a	n/a	n/a	n/a	n/a
717.812	n/a	REC_WORD	358906	wordpools/wasnorm_wordpool_less_exclusions.txt	LTP286	ltpFR	0	2	-1	CAPTAIN	239	n/a	-1	n/a	n/a	n/a	n/a	n/a
726.198	n/a	REC_WORD	363099	wordpools/wasnorm_wordpool_less_exclusions.txt	LTP286	ltpFR	0	2	-1	ENCYCLOPEDIA	533	n/a	-1	n/a	n/a	n/a	n/a	n/a
727.198	n/a	REC_WORD_VV	363599	wordpools/wasnorm_wordpool_less_exclusions.txt	LTP286	ltpFR	0	2	n/a	<>	-1	n/a	n/a	n/a	n/a	n/a	n/a	n/a
727.674	n/a	REC_WORD	363837	wordpools/wasnorm_wordpool_less_exclusions.txt	LTP286	ltpFR	0	2	-1	GLACIER	638	n/a	-1	n/a	n/a	n/a	n/a	n/a
764.154	n/a	WORD	382077	wordpools/wasnorm_wordpool_less_exclusions.txt	LTP286	ltpFR	0	3	-1	PASTRY	1022	n/a	-1	1	1.0	1.0	upper	../fonts/Verdana.ttf
768.164	n/a	WORD	384082	wordpools/wasnorm_wordpool_less_exclusions.txt	LTP286	ltpFR	0	3	-1	KITCHEN	778	n/a	-1	1	1.0	1.0	upper	../fonts/Verdana.ttf
772.108	n/a	WORD	386054	wordpools/wasnorm_wordpool_less_exclusions.txt	LTP286	ltpFR	0	3	-1	STICKER	1382	n/a	-1	1	1.0	1.0	upper	../fonts/Verdana.ttf
776.186	n/a	WORD	388093	wordpools/wasnorm_wordpool_less_exclusions.txt	LTP286	ltpFR	0	3	-1	STAR	1373	n/a	-1	1	1.0	1.0	upper	../fonts/Verdana.ttf
780.098	n/a	WORD	390049	wordpools/wasnorm_wordpool_less_exclusions.txt	LTP286	ltpFR	0	3	-1	RAG	1160	n/a	-1	1	1.0	1.0	upper	../fonts/Verdana.ttf
783.956	n/a	WORD	391978	wordpools/wasnorm_wordpool_less_exclusions.txt	LTP286	ltpFR	0	3	-1	CASH	252	n/a	-1	1	1.0	1.0	upper	../fonts/Verdana.ttf
787.802	n/a	WORD	393901	wordpools/wasnorm_wordpool_less_exclusions.txt	LTP286	ltpFR	0	3	-1	TREASURE	1500	n/a	-1	1	1.0	1.0	upper	../fonts/Verdana.ttf
791.828	n/a	WORD	395914	wordpools/wasnorm_wordpool_less_exclusions.txt	LTP286	ltpFR	0	3	-1	BAKER	71	n/a	-1	1	1.0	1.0	upper	../fonts/Verdana.ttf
795.706	n/a	WORD	397853	wordpools/wasnorm_wordpool_less_exclusions.txt	LTP286	ltpFR	0	3	-1	TEAM	1441	n/a	-1	1	1.0	1.0	upper	../fonts/Verdana.ttf
799.85	n/a	WORD	399925	wordpools/wasnorm_wordpool_less_exclusions.txt	LTP286	ltpFR	0	3	-1	GLUE	643	n/a	-1	1	1.0	1.0	upper	../fonts/Verdana.ttf
804.044	n/a	WORD	402022	wordpools/wasnorm_wordpool_less_exclusions.txt	LTP286	ltpFR	0	3	-1	GROCERIES	663	n/a	-1	1	1.0	1.0	upper	../fonts/Verdana.ttf
807.888	n/a	WORD	403944	wordpools/wasnorm_wordpool_less_exclusions.txt	LTP286	ltpFR	0	3	-1	DINER	467	n/a	-1	1	1.0	1.0	upper	../fonts/Verdana.ttf
811.932	n/a	WORD	405966	wordpools/wasnorm_wordpool_less_exclusions.txt	LTP286	ltpFR	0	3	-1	JUG	762	n/a	-1	1	1.0	1.0	upper	../fonts/Verdana.ttf
816.06	n/a	WORD	408030	wordpools/wasnorm_wordpool_less_exclusions.txt	LTP286	ltpFR	0	3	-1	MERMAID	887	n/a	-1	1	1.0	1.0	upper	../fonts/Verdana.ttf
820.17	n/a	WORD	410085	wordpools/wasnorm_wordpool_less_exclusions.txt	LTP286	ltpFR	0	3	-1	HOOP	716	n/a	-1	1	1.0	1.0	upper	../fonts/Verdana.ttf
824.164	n/a	WORD	412082	wordpools/wasnorm_wordpool_less_exclusions.txt	LTP286	ltpFR	0	3	-1	NAPKIN	937	n/a	-1	1	1.0	1.0	upper	../fonts/Verdana.ttf
829.906	n/a	REC_START	414953	n/a	LTP286	ltpFR	0	3	n/a	n/a	n/a	n/a	n/a	n/a	n/a	n/a	n/a	n/a
830.814	n/a	REC_WORD	415407	wordpools/wasnorm_wordpool_less_exclusions.txt	LTP286	ltpFR	0	3	-1	HOOP	716	n/a	-1	n/a	n/a	n/a	n/a	n/a
832.55	n/a	REC_WORD	416275	wordpools/wasnorm_wordpool_less_exclusions.txt	LTP286	ltpFR	0	3	-1	JUG	762	n/a	-1	n/a	n/a	n/a	n/a	n/a
833.662	n/a	REC_WORD	416831	wordpools/wasnorm_wordpool_less_exclusions.txt	LTP286	ltpFR	0	3	-1	NAPKIN	937	n/a	-1	n/a	n/a	n/a	n/a	n/a
836.282	n/a	REC_WORD	418141	wordpools/wasnorm_wordpool_less_exclusions.txt	LTP286	ltpFR	0	3	-1	RAG	1160	n/a	-1	n/a	n/a	n/a	n/a	n/a
837.572	n/a	REC_WORD	418786	wordpools/wasnorm_wordpool_less_exclusions.txt	LTP286	ltpFR	0	3	-1	KITCHEN	778	n/a	-1	n/a	n/a	n/a	n/a	n/a
838.872	n/a	REC_WORD	419436	wordpools/wasnorm_wordpool_less_exclusions.txt	LTP286	ltpFR	0	3	-1	DINER	467	n/a	-1	n/a	n/a	n/a	n/a	n/a
840.494	n/a	REC_WORD	420247	wordpools/wasnorm_wordpool_less_exclusions.txt	LTP286	ltpFR	0	3	-1	PASTRY	1022	n/a	-1	n/a	n/a	n/a	n/a	n/a
841.994	n/a	REC_WORD	420997	wordpools/wasnorm_wordpool_less_exclusions.txt	LTP286	ltpFR	0	3	-1	BAKER	71	n/a	-1	n/a	n/a	n/a	n/a	n/a
845.438	n/a	REC_WORD	422719	wordpools/wasnorm_wordpool_less_exclusions.txt	LTP286	ltpFR	0	3	-1	CASH	252	n/a	-1	n/a	n/a	n/a	n/a	n/a
850.094	n/a	REC_WORD	425047	wordpools/wasnorm_wordpool_less_exclusions.txt	LTP286	ltpFR	0	3	-1	TEAM	1441	n/a	-1	n/a	n/a	n/a	n/a	n/a
879.262	n/a	REC_WORD	439631	wordpools/wasnorm_wordpool_less_exclusions.txt	LTP286	ltpFR	0	3	-1	TREASURE	1500	n/a	-1	n/a	n/a	n/a	n/a	n/a
911.734	n/a	WORD	455867	wordpools/wasnorm_wordpool_less_exclusions.txt	LTP286	ltpFR	0	4	-1	PARTY	1018	n/a	-1	1	1.0	1.0	upper	../fonts/Verdana.ttf
915.678	n/a	WORD	457839	wordpools/wasnorm_wordpool_less_exclusions.txt	LTP286	ltpFR	0	4	-1	TROPHY	1509	n/a	-1	1	1.0	1.0	upper	../fonts/Verdana.ttf
919.89	n/a	WORD	459945	wordpools/wasnorm_wordpool_less_exclusions.txt	LTP286	ltpFR	0	4	-1	RIBBON	1189	n/a	-1	1	1.0	1.0	upper	../fonts/Verdana.ttf
923.784	n/a	WORD	461892	wordpools/wasnorm_wordpool_less_exclusions.txt	LTP286	ltpFR	0	4	-1	SUBMARINE	1398	n/a	-1	1	1.0	1.0	upper	../fonts/Verdana.ttf
927.662	n/a	WORD	463831	wordpools/wasnorm_wordpool_less_exclusions.txt	LTP286	ltpFR	0	4	-1	TORTOISE	1486	n/a	-1	1	1.0	1.0	upper	../fonts/Verdana.ttf
931.522	n/a	WORD	465761	wordpools/wasnorm_wordpool_less_exclusions.txt	LTP286	ltpFR	0	4	-1	PORT	1110	n/a	-1	1	1.0	1.0	upper	../fonts/Verdana.ttf
935.634	n/a	WORD	467817	wordpools/wasnorm_wordpool_less_exclusions.txt	LTP286	ltpFR	0	4	-1	HEN	703	n/a	-1	1	1.0	1.0	upper	../fonts/Verdana.ttf
939.71	n/a	WORD	469855	wordpools/wasnorm_wordpool_less_exclusions.txt	LTP286	ltpFR	0	4	-1	CHICK	296	n/a	-1	1	1.0	1.0	upper	../fonts/Verdana.ttf
943.688	n/a	WORD	471844	wordpools/wasnorm_wordpool_less_exclusions.txt	LTP286	ltpFR	0	4	-1	BUN	197	n/a	-1	1	1.0	1.0	upper	../fonts/Verdana.ttf
947.73	n/a	WORD	473865	wordpools/wasnorm_wordpool_less_exclusions.txt	LTP286	ltpFR	0	4	-1	TACK	1428	n/a	-1	1	1.0	1.0	upper	../fonts/Verdana.ttf
951.808	n/a	WORD	475904	wordpools/wasnorm_wordpool_less_exclusions.txt	LTP286	ltpFR	0	4	-1	TOENAIL	1474	n/a	-1	1	1.0	1.0	upper	../fonts/Verdana.ttf
955.818	n/a	WORD	477909	wordpools/wasnorm_wordpool_less_exclusions.txt	LTP286	ltpFR	0	4	-1	HOSTESS	723	n/a	-1	1	1.0	1.0	upper	../fonts/Verdana.ttf
959.746	n/a	WORD	479873	wordpools/wasnorm_wordpool_less_exclusions.txt	LTP286	ltpFR	0	4	-1	APARTMENT	30	n/a	-1	1	1.0	1.0	upper	../fonts/Verdana.ttf
963.956	n/a	WORD	481978	wordpools/wasnorm_wordpool_less_exclusions.txt	LTP286	ltpFR	0	4	-1	BARTENDER	92	n/a	-1	1	1.0	1.0	upper	../fonts/Verdana.ttf
967.868	n/a	WORD	483934	wordpools/wasnorm_wordpool_less_exclusions.txt	LTP286	ltpFR	0	4	-1	DECK	443	n/a	-1	1	1.0	1.0	upper	../fonts/Verdana.ttf
971.712	n/a	WORD	485856	wordpools/wasnorm_wordpool_less_exclusions.txt	LTP286	ltpFR	0	4	-1	WAITER	1580	n/a	-1	1	1.0	1.0	upper	../fonts/Verdana.ttf
977.438	n/a	REC_START	488719	n/a	LTP286	ltpFR	0	4	n/a	n/a	n/a	n/a	n/a	n/a	n/a	n/a	n/a	n/a
978.262	n/a	REC_WORD	489131	wordpools/wasnorm_wordpool_less_exclusions.txt	LTP286	ltpFR	0	4	-1	WAITER	1580	n/a	-1	n/a	n/a	n/a	n/a	n/a
979.228	n/a	REC_WORD	489614	wordpools/wasnorm_wordpool_less_exclusions.txt	LTP286	ltpFR	0	4	-1	BARTENDER	92	n/a	-1	n/a	n/a	n/a	n/a	n/a
980.33	n/a	REC_WORD	490165	wordpools/wasnorm_wordpool_less_exclusions.txt	LTP286	ltpFR	0	4	-1	DECK	443	n/a	-1	n/a	n/a	n/a	n/a	n/a
981.2	n/a	REC_WORD	490600	wordpools/wasnorm_wordpool_less_exclusions.txt	LTP286	ltpFR	0	4	-1	PARTY	1018	n/a	-1	n/a	n/a	n/a	n/a	n/a
987.094	n/a	REC_WORD	493547	wordpools/wasnorm_wordpool_less_exclusions.txt	LTP286	ltpFR	0	4	-1	TROPHY	1509	n/a	-1	n/a	n/a	n/a	n/a	n/a
991.966	n/a	REC_WORD	495983	wordpools/wasnorm_wordpool_less_exclusions.txt	LTP286	ltpFR	0	4	-1	RIBBON	1189	n/a	-1	n/a	n/a	n/a	n/a	n/a
1005.494	n/a	REC_WORD	502747	wordpools/wasnorm_wordpool_less_exclusions.txt	LTP286	ltpFR	0	4	-1	TOENAIL	1474	n/a	-1	n/a	n/a	n/a	n/a	n/a
1006.298	n/a	REC_WORD	503149	wordpools/wasnorm_wordpool_less_exclusions.txt	LTP286	ltpFR	0	4	-1	APARTMENT	30	n/a	-1	n/a	n/a	n/a	n/a	n/a
1007.77	n/a	REC_WORD	503885	wordpools/wasnorm_wordpool_less_exclusions.txt	LTP286	ltpFR	0	4	-1	TACK	1428	n/a	-1	n/a	n/a	n/a	n/a	n/a
1433.612	n/a	WORD	716806	wordpools/wasnorm_wordpool_less_exclusions.txt	LTP286	ltpFR	0	5	0	CLOTHES	327	n/a	1	1	0.412841796875	0.57763671875	upper	../fonts/zerothre.ttf
1437.556	n/a	WORD	718778	wordpools/wasnorm_wordpool_less_exclusions.txt	LTP286	ltpFR	0	5	0	SHARK	1275	n/a	1	1	0.412841796875	0.57763671875	upper	../fonts/zerothre.ttf
1441.7	n/a	WORD	720850	wordpools/wasnorm_wordpool_less_exclusions.txt	LTP286	ltpFR	0	5	0	MAP	865	n/a	0	1	0.412841796875	0.57763671875	upper	../fonts/zerothre.ttf
1445.594	n/a	WORD	722797	wordpools/wasnorm_wordpool_less_exclusions.txt	LTP286	ltpFR	0	5	0	COURSE	390	n/a	1	1	0.412841796875	0.57763671875	upper	../fonts/zerothre.ttf
1449.488	n/a	WORD	724744	wordpools/wasnorm_wordpool_less_exclusions.txt	LTP286	ltpFR	0	5	0	VEST	1559	n/a	0	1	0.412841796875	0.57763671875	upper	../fonts/zerothre.ttf
1453.566	n/a	WORD	726783	wordpools/wasnorm_wordpool_less_exclusions.txt	LTP286	ltpFR	0	5	0	SUIT	1402	n/a	1	1	0.412841796875	0.57763671875	upper	../fonts/zerothre.ttf
1457.526	n/a	WORD	728763	wordpools/wasnorm_wordpool_less_exclusions.txt	LTP286	ltpFR	0	5	0	ESSAY	540	n/a	0	1	0.412841796875	0.57763671875	upper	../fonts/zerothre.ttf
1461.538	n/a	WORD	730769	wordpools/wasnorm_wordpool_less_exclusions.txt	LTP286	ltpFR	0	5	0	RESTAURANT	1187	n/a	1	1	0.412841796875	0.57763671875	upper	../fonts/zerothre.ttf
1465.648	n/a	WORD	732824	wordpools/wasnorm_wordpool_less_exclusions.txt	LTP286	ltpFR	0	5	0	SKIN	1318	n/a	1	1	0.412841796875	0.57763671875	upper	../fonts/zerothre.ttf
1469.526	n/a	WORD	734763	wordpools/wasnorm_wordpool_less_exclusions.txt	LTP286	ltpFR	0	5	0	SINK	1309	n/a	1	1	0.412841796875	0.57763671875	upper	../fonts/zerothre.ttf
1473.388	n/a	WORD	736694	wordpools/wasnorm_wordpool_less_exclusions.txt	LTP286	ltpFR	0	5	0	CANAL	226	n/a	1	1	0.412841796875	0.57763671875	upper	../fonts/zerothre.ttf
1477.364	n/a	WORD	738682	wordpools/wasnorm_wordpool_less_exclusions.txt	LTP286	ltpFR	0	5	0	STEREO	1378	n/a	1	1	0.412841796875	0.57763671875	upper	../fonts/zerothre.ttf
1481.308	n/a	WORD	740654	wordpools/wasnorm_wordpool_less_exclusions.txt	LTP286	ltpFR	0	5	0	SAXOPHONE	1240	n/a	1	1	0.412841796875	0.57763671875	upper	../fonts/zerothre.ttf
1485.22	n/a	WORD	742610	wordpools/wasnorm_wordpool_less_exclusions.txt	LTP286	ltpFR	0	5	0	BLUEJAY	141	n/a	0	1	0.412841796875	0.57763671875	upper	../fonts/zerothre.ttf
1489.13	n/a	WORD	744565	wordpools/wasnorm_wordpool_less_exclusions.txt	LTP286	ltpFR	0	5	0	BARRACUDA	90	n/a	1	1	0.412841796875	0.57763671875	upper	../fonts/zerothre.ttf
1493.158	n/a	WORD	746579	wordpools/wasnorm_wordpool_less_exclusions.txt	LTP286	ltpFR	0	5	0	MARROW	872	n/a	0	1	0.412841796875	0.57763671875	upper	../fonts/zerothre.ttf
1499.034	n/a	REC_START	749517	n/a	LTP286	ltpFR	0	5	n/a	n/a	n/a	n/a	n/a	n/a	n/a	n/a	n/a	n/a
1500.32	n/a	REC_WORD	750160	wordpools/wasnorm_wordpool_less_exclusions.txt	LTP286	ltpFR	0	5	0	MARROW	872	n/a	0	n/a	n/a	n/a	n/a	n/a
1501.528	n/a	REC_WORD	750764	wordpools/wasnorm_wordpool_less_exclusions.txt	LTP286	ltpFR	0	5	0	RESTAURANT	1187	n/a	1	n/a	n/a	n/a	n/a	n/a
1502.832	n/a	REC_WORD	751416	wordpools/wasnorm_wordpool_less_exclusions.txt	LTP286	ltpFR	0	5	0	CLOTHES	327	n/a	1	n/a	n/a	n/a	n/a	n/a
1503.948	n/a	REC_WORD	751974	wordpools/wasnorm_wordpool_less_exclusions.txt	LTP286	ltpFR	0	5	0	SHARK	1275	n/a	1	n/a	n/a	n/a	n/a	n/a
1506.132	n/a	REC_WORD	753066	wordpools/wasnorm_wordpool_less_exclusions.txt	LTP286	ltpFR	0	5	0	BARRACUDA	90	n/a	1	n/a	n/a	n/a	n/a	n/a
1518.55	n/a	REC_WORD	759275	wordpools/wasnorm_wordpool_less_exclusions.txt	LTP286	ltpFR	0	5	0	BLUEJAY	141	n/a	0	n/a	n/a	n/a	n/a	n/a
1539.156	n/a	REC_WORD	769578	wordpools/wasnorm_wordpool_less_exclusions.txt	LTP286	ltpFR	0	5	0	SUIT	1402	n/a	1	n/a	n/a	n/a	n/a	n/a
1622.682	n/a	WORD	811341	wordpools/wasnorm_wordpool_less_exclusions.txt	LTP286	ltpFR	0	6	0	VELVET	1555	n/a	1	1	0.412841796875	0.57763671875	upper	../fonts/zerothre.ttf
1626.776	n/a	WORD	813388	wordpools/wasnorm_wordpool_less_exclusions.txt	LTP286	ltpFR	0	6	0	SCALLOP	1242	n/a	0	1	0.412841796875	0.57763671875	upper	../fonts/zerothre.ttf
1630.904	n/a	WORD	815452	wordpools/wasnorm_wordpool_less_exclusions.txt	LTP286	ltpFR	0	6	0	SPATULA	1348	n/a	0	1	0.412841796875	0.57763671875	upper	../fonts/zerothre.ttf
1635.064	n/a	WORD	817532	wordpools/wasnorm_wordpool_less_exclusions.txt	LTP286	ltpFR	0	6	0	COYOTE	396	n/a	1	1	0.412841796875	0.57763671875	upper	../fonts/zerothre.ttf
1639.292	n/a	WORD	819646	wordpools/wasnorm_wordpool_less_exclusions.txt	LTP286	ltpFR	0	6	0	CABIN	211	n/a	1	1	0.412841796875	0.57763671875	upper	../fonts/zerothre.ttf
1643.402	n/a	WORD	821701	wordpools/wasnorm_wordpool_less_exclusions.txt	LTP286	ltpFR	0	6	0	OWNER	993	n/a	1	1	0.412841796875	0.57763671875	upper	../fonts/zerothre.ttf
1647.346	n/a	WORD	823673	wordpools/wasnorm_wordpool_less_exclusions.txt	LTP286	ltpFR	0	6	0	SPOON	1357	n/a	0	1	0.412841796875	0.57763671875	upper	../fonts/zerothre.ttf
1651.374	n/a	WORD	825687	wordpools/wasnorm_wordpool_less_exclusions.txt	LTP286	ltpFR	0	6	0	FLEA	577	n/a	0	1	0.412841796875	0.57763671875	upper	../fonts/zerothre.ttf
1655.434	n/a	WORD	827717	wordpools/wasnorm_wordpool_less_exclusions.txt	LTP286	ltpFR	0	6	0	BRACELET	163	n/a	0	1	0.412841796875	0.57763671875	upper	../fonts/zerothre.ttf
1659.644	n/a	WORD	829822	wordpools/wasnorm_wordpool_less_exclusions.txt	LTP286	ltpFR	0	6	0	CIRCUS	311	n/a	1	1	0.412841796875	0.57763671875	upper	../fonts/zerothre.ttf
1663.706	n/a	WORD	831853	wordpools/wasnorm_wordpool_less_exclusions.txt	LTP286	ltpFR	0	6	0	STEM	1376	n/a	0	1	0.412841796875	0.57763671875	upper	../fonts/zerothre.ttf
1667.682	n/a	WORD	833841	wordpools/wasnorm_wordpool_less_exclusions.txt	LTP286	ltpFR	0	6	0	BLOSSOM	138	n/a	0	1	0.412841796875	0.57763671875	upper	../fonts/zerothre.ttf
1671.71	n/a	WORD	835855	wordpools/wasnorm_wordpool_less_exclusions.txt	LTP286	ltpFR	0	6	0	TILE	1468	n/a	0	1	0.412841796875	0.57763671875	upper	../fonts/zerothre.ttf
1675.704	n/a	WORD	837852	wordpools/wasnorm_wordpool_less_exclusions.txt	LTP286	ltpFR	0	6	0	TREAT	1501	n/a	0	1	0.412841796875	0.57763671875	upper	../fonts/zerothre.ttf
1679.88	n/a	WORD	839940	wordpools/wasnorm_wordpool_less_exclusions.txt	LTP286	ltpFR	0	6	0	WAND	1586	n/a	0	1	0.412841796875	0.57763671875	upper	../fonts/zerothre.ttf
1683.924	n/a	WORD	841962	wordpools/wasnorm_wordpool_less_exclusions.txt	LTP286	ltpFR	0	6	0	FLANNEL	574	n/a	0	1	0.412841796875	0.57763671875	upper	../fonts/zerothre.ttf
1689.882	n/a	REC_START	844941	n/a	LTP286	ltpFR	0	6	n/a	n/a	n/a	n/a	n/a	n/a	n/a	n/a	n/a	n/a
1690.868	n/a	REC_WORD	845434	wordpools/wasnorm_wordpool_less_exclusions.txt	LTP286	ltpFR	0	6	0	FLANNEL	574	n/a	0	n/a	n/a	n/a	n/a	n/a
1691.848	n/a	REC_WORD	845924	wordpools/wasnorm_wordpool_less_exclusions.txt	LTP286	ltpFR	0	6	0	VELVET	1555	n/a	1	n/a	n/a	n/a	n/a	n/a
1701.06	n/a	REC_WORD	850530	wordpools/wasnorm_wordpool_less_exclusions.txt	LTP286	ltpFR	0	6	0	SCALLOP	1242	n/a	0	n/a	n/a	n/a	n/a	n/a
1703.292	n/a	REC_WORD	851646	wordpools/wasnorm_wordpool_less_exclusions.txt	LTP286	ltpFR	0	6	0	OWNER	993	n/a	1	n/a	n/a	n/a	n/a	n/a
1705.084	n/a	REC_WORD	852542	wordpools/wasnorm_wordpool_less_exclusions.txt	LTP286	ltpFR	0	6	0	TILE	1468	n/a	0	n/a	n/a	n/a	n/a	n/a
1706.17	n/a	REC_WORD	853085	wordpools/wasnorm_wordpool_less_exclusions.txt	LTP286	ltpFR	0	6	0	STEM	1376	n/a	0	n/a	n/a	n/a	n/a	n/a
1707.76	n/a	REC_WORD	853880	wordpools/wasnorm_wordpool_less_exclusions.txt	LTP286	ltpFR	0	6	0	BLOSSOM	138	n/a	0	n/a	n/a	n/a	n/a	n/a
1730.848	n/a	REC_WORD	865424	wordpools/wasnorm_wordpool_less_exclusions.txt	LTP286	ltpFR	0	6	0	CABIN	211	n/a	1	n/a	n/a	n/a	n/a	n/a
1790.766	n/a	WORD	895383	wordpools/wasnorm_wordpool_less_exclusions.txt	LTP286	ltpFR	0	7	0	HAMPER	682	n/a	1	1	0.412841796875	0.57763671875	upper	../fonts/zerothre.ttf
1794.678	n/a	WORD	897339	wordpools/wasnorm_wordpool_less_exclusions.txt	LTP286	ltpFR	0	7	0	INTESTINE	742	n/a	1	1	0.412841796875	0.57763671875	upper	../fonts/zerothre.ttf
1798.904	n/a	WORD	899452	wordpools/wasnorm_wordpool_less_exclusions.txt	LTP286	ltpFR	0	7	0	BEARD	107	n/a	0	1	0.412841796875	0.57763671875	upper	../fonts/zerothre.ttf
1803.014	n/a	WORD	901507	wordpools/wasnorm_wordpool_less_exclusions.txt	LTP286	ltpFR	0	7	0	SALAD	1224	n/a	0	1	0.412841796875	0.57763671875	upper	../fonts/zerothre.ttf
1807.044	n/a	WORD	903522	wordpools/wasnorm_wordpool_less_exclusions.txt	LTP286	ltpFR	0	7	0	ZUCCHINI	1638	n/a	0	1	0.412841796875	0.57763671875	upper	../fonts/zerothre.ttf
1811.188	n/a	WORD	905594	wordpools/wasnorm_wordpool_less_exclusions.txt	LTP286	ltpFR	0	7	0	CHIMNEY	301	n/a	1	1	0.412841796875	0.57763671875	upper	../fonts/zerothre.ttf
1815.132	n/a	WORD	907566	wordpools/wasnorm_wordpool_less_exclusions.txt	LTP286	ltpFR	0	7	0	CEILING	265	n/a	1	1	0.412841796875	0.57763671875	upper	../fonts/zerothre.ttf
1819.076	n/a	WORD	909538	wordpools/wasnorm_wordpool_less_exclusions.txt	LTP286	ltpFR	0	7	0	CABINET	212	n/a	1	1	0.412841796875	0.57763671875	upper	../fonts/zerothre.ttf
1823.252	n/a	WORD	911626	wordpools/wasnorm_wordpool_less_exclusions.txt	LTP286	ltpFR	0	7	0	DRESSER	496	n/a	1	1	0.412841796875	0.57763671875	upper	../fonts/zerothre.ttf
1827.096	n/a	WORD	913548	wordpools/wasnorm_wordpool_less_exclusions.txt	LTP286	ltpFR	0	7	0	FUGITIVE	612	n/a	1	1	0.412841796875	0.57763671875	upper	../fonts/zerothre.ttf
1831.09	n/a	WORD	915545	wordpools/wasnorm_wordpool_less_exclusions.txt	LTP286	ltpFR	0	7	0	CAFETERIA	217	n/a	1	1	0.412841796875	0.57763671875	upper	../fonts/zerothre.ttf
1835.102	n/a	WORD	917551	wordpools/wasnorm_wordpool_less_exclusions.txt	LTP286	ltpFR	0	7	0	TOOL	1480	n/a	0	1	0.412841796875	0.57763671875	upper	../fonts/zerothre.ttf
1839.162	n/a	WORD	919581	wordpools/wasnorm_wordpool_less_exclusions.txt	LTP286	ltpFR	0	7	0	APPENDAGE	32	n/a	1	1	0.412841796875	0.57763671875	upper	../fonts/zerothre.ttf
1843.356	n/a	WORD	921678	wordpools/wasnorm_wordpool_less_exclusions.txt	LTP286	ltpFR	0	7	0	BRUNETTE	181	n/a	1	1	0.412841796875	0.57763671875	upper	../fonts/zerothre.ttf
1847.35	n/a	WORD	923675	wordpools/wasnorm_wordpool_less_exclusions.txt	LTP286	ltpFR	0	7	0	STEW	1380	n/a	0	1	0.412841796875	0.57763671875	upper	../fonts/zerothre.ttf
1851.576	n/a	WORD	925788	wordpools/wasnorm_wordpool_less_exclusions.txt	LTP286	ltpFR	0	7	0	RIB	1188	n/a	0	1	0.412841796875	0.57763671875	upper	../fonts/zerothre.ttf
1857.502	n/a	REC_START	928751	n/a	LTP286	ltpFR	0	7	n/a	n/a	n/a	n/a	n/a	n/a	n/a	n/a	n/a	n/a
1858.396	n/a	REC_WORD	929198	wordpools/wasnorm_wordpool_less_exclusions.txt	LTP286	ltpFR	0	7	0	RIB	1188	n/a	0	n/a	n/a	n/a	n/a	n/a
1859.4	n/a	REC_WORD	929700	wordpools/wasnorm_wordpool_less_exclusions.txt	LTP286	ltpFR	0	7	0	APPENDAGE	32	n/a	1	n/a	n/a	n/a	n/a	n/a
1860.538	n/a	REC_WORD	930269	wordpools/wasnorm_wordpool_less_exclusions.txt	LTP286	ltpFR	0	7	0	INTESTINE	742	n/a	1	n/a	n/a	n/a	n/a	n/a
1864.79	n/a	REC_WORD	932395	wordpools/wasnorm_wordpool_less_exclusions.txt	LTP286	ltpFR	0	7	0	ZUCCHINI	1638	n/a	0	n/a	n/a	n/a	n/a	n/a
1865.916	n/a	REC_WORD	932958	wordpools/wasnorm_wordpool_less_exclusions.txt	LTP286	ltpFR	0	7	0	SALAD	1224	n/a	0	n/a	n/a	n/a	n/a	n/a
1867.756	n/a	REC_WORD	933878	wordpools/wasnorm_wordpool_less_exclusions.txt	LTP286	ltpFR	0	7	0	CAFETERIA	217	n/a	1	n/a	n/a	n/a	n/a	n/a
1868.756	n/a	REC_WORD_VV	934378	wordpools/wasnorm_wordpool_less_exclusions.txt	LTP286	ltpFR	0	7	n/a	<>	-1	n/a	n/a	n/a	n/a	n/a	n/a	n/a
1878.812	n/a	REC_WORD	939406	wordpools/wasnorm_wordpool_less_exclusions.txt	LTP286	ltpFR	0	7	0	FUGITIVE	612	n/a	1	n/a	n/a	n/a	n/a	n/a
1890.394	n/a	REC_WORD	945197	wordpools/wasnorm_wordpool_less_exclusions.txt	LTP286	ltpFR	0	7	0	TOOL	1480	n/a	0	n/a	n/a	n/a	n/a	n/a
1908.51	n/a	REC_WORD	954255	wordpools/wasnorm_wordpool_less_exclusions.txt	LTP286	ltpFR	0	7	0	HAMPER	682	n/a	1	n/a	n/a	n/a	n/a	n/a
1917.684	n/a	REC_WORD	958842	wordpools/wasnorm_wordpool_less_exclusions.txt	LTP286	ltpFR	0	7	0	BRUNETTE	181	n/a	1	n/a	n/a	n/a	n/a	n/a
1941.328	n/a	WORD	970664	wordpools/wasnorm_wordpool_less_exclusions.txt	LTP286	ltpFR	0	8	0	BUCKET	184	n/a	0	1	0.412841796875	0.57763671875	upper	../fonts/zerothre.ttf
1945.338	n/a	WORD	972669	wordpools/wasnorm_wordpool_less_exclusions.txt	LTP286	ltpFR	0	8	0	PUMP	1141	n/a	1	1	0.412841796875	0.57763671875	upper	../fonts/zerothre.ttf
1949.232	n/a	WORD	974616	wordpools/wasnorm_wordpool_less_exclusions.txt	LTP286	ltpFR	0	8	0	BUGGY	188	n/a	1	1	0.412841796875	0.57763671875	upper	../fonts/zerothre.ttf
1953.144	n/a	WORD	976572	wordpools/wasnorm_wordpool_less_exclusions.txt	LTP286	ltpFR	0	8	0	SALOON	1228	n/a	1	1	0.412841796875	0.57763671875	upper	../fonts/zerothre.ttf
1957.138	n/a	WORD	978569	wordpools/wasnorm_wordpool_less_exclusions.txt	LTP286	ltpFR	0	8	0	OATS	968	n/a	0	1	0.412841796875	0.57763671875	upper	../fonts/zerothre.ttf
1960.964	n/a	WORD	980482	wordpools/wasnorm_wordpool_less_exclusions.txt	LTP286	ltpFR	0	8	0	CONTINENT	367	n/a	1	1	0.412841796875	0.57763671875	upper	../fonts/zerothre.ttf
1964.792	n/a	WORD	982396	wordpools/wasnorm_wordpool_less_exclusions.txt	LTP286	ltpFR	0	8	0	SPY	1360	n/a	1	1	0.412841796875	0.57763671875	upper	../fonts/zerothre.ttf
1968.638	n/a	WORD	984319	wordpools/wasnorm_wordpool_less_exclusions.txt	LTP286	ltpFR	0	8	0	OATMEAL	967	n/a	0	1	0.412841796875	0.57763671875	upper	../fonts/zerothre.ttf
1972.498	n/a	WORD	986249	wordpools/wasnorm_wordpool_less_exclusions.txt	LTP286	ltpFR	0	8	0	CARRIAGE	248	n/a	1	1	0.412841796875	0.57763671875	upper	../fonts/zerothre.ttf
1976.476	n/a	WORD	988238	wordpools/wasnorm_wordpool_less_exclusions.txt	LTP286	ltpFR	0	8	0	CROSS	413	n/a	0	1	0.412841796875	0.57763671875	upper	../fonts/zerothre.ttf
1980.686	n/a	WORD	990343	wordpools/wasnorm_wordpool_less_exclusions.txt	LTP286	ltpFR	0	8	0	BADGE	68	n/a	0	1	0.412841796875	0.57763671875	upper	../fonts/zerothre.ttf
1984.878	n/a	WORD	992439	wordpools/wasnorm_wordpool_less_exclusions.txt	LTP286	ltpFR	0	8	0	SUSPECT	1415	n/a	1	1	0.412841796875	0.57763671875	upper	../fonts/zerothre.ttf
1988.972	n/a	WORD	994486	wordpools/wasnorm_wordpool_less_exclusions.txt	LTP286	ltpFR	0	8	0	HEADBAND	696	n/a	0	1	0.412841796875	0.57763671875	upper	../fonts/zerothre.ttf
1992.834	n/a	WORD	996417	wordpools/wasnorm_wordpool_less_exclusions.txt	LTP286	ltpFR	0	8	0	COMPASS	358	n/a	0	1	0.412841796875	0.57763671875	upper	../fonts/zerothre.ttf
1996.944	n/a	WORD	998472	wordpools/wasnorm_wordpool_less_exclusions.txt	LTP286	ltpFR	0	8	0	PERCH	1048	n/a	1	1	0.412841796875	0.57763671875	upper	../fonts/zerothre.ttf
2000.904	n/a	WORD	1000452	wordpools/wasnorm_wordpool_less_exclusions.txt	LTP286	ltpFR	0	8	0	QUAIL	1147	n/a	0	1	0.412841796875	0.57763671875	upper	../fonts/zerothre.ttf
2006.746	n/a	REC_START	1003373	n/a	LTP286	ltpFR	0	8	n/a	n/a	n/a	n/a	n/a	n/a	n/a	n/a	n/a	n/a
2008.03	n/a	REC_WORD	1004015	wordpools/wasnorm_wordpool_less_exclusions.txt	LTP286	ltpFR	0	8	0	QUAIL	1147	n/a	0	n/a	n/a	n/a	n/a	n/a
2009.18	n/a	REC_WORD	1004590	wordpools/wasnorm_wordpool_less_exclusions.txt	LTP286	ltpFR	0	8	0	SUSPECT	1415	n/a	1	n/a	n/a	n/a	n/a	n/a
2010.18	n/a	REC_WORD_VV	1005090	wordpools/wasnorm_wordpool_less_exclusions.txt	LTP286	ltpFR	0	8	n/a	<>	-1	n/a	n/a	n/a	n/a	n/a	n/a	n/a
2010.67	n/a	REC_WORD	1005335	wordpools/wasnorm_wordpool_less_exclusions.txt	LTP286	ltpFR	0	8	0	PERCH	1048	n/a	1	n/a	n/a	n/a	n/a	n/a
2060.482	n/a	REC_WORD	1030241	wordpools/wasnorm_wordpool_less_exclusions.txt	LTP286	ltpFR	0	8	0	CARRIAGE	248	n/a	1	n/a	n/a	n/a	n/a	n/a
2061.98	n/a	REC_WORD	1030990	wordpools/wasnorm_wordpool_less_exclusions.txt	LTP286	ltpFR	0	8	0	BUGGY	188	n/a	1	n/a	n/a	n/a	n/a	n/a
2068.498	n/a	REC_WORD	1034249	wordpools/wasnorm_wordpool_less_exclusions.txt	LTP286	ltpFR	0	8	0	SALOON	1228	n/a	1	n/a	n/a	n/a	n/a	n/a
2082.352	n/a	REST_REWET	1041176	n/a	LTP286	ltpFR	0	8	n/a	n/a	n/a	n/a	n/a	n/a	n/a	n/a	n/a	n/a
2561.492	n/a	WORD	1280746	wordpools/wasnorm_wordpool_less_exclusions.txt	LTP286	ltpFR	0	9	1	KIWI	781	n/a	1	0	0.5869140625	0.422607421875	lower	../fonts/amplitud.ttf
2565.336	n/a	WORD	1282668	wordpools/wasnorm_wordpool_less_exclusions.txt	LTP286	ltpFR	0	9	1	GAZELLE	628	n/a	1	0	0.5869140625	0.422607421875	lower	../fonts/amplitud.ttf
2569.464	n/a	WORD	1284732	wordpools/wasnorm_wordpool_less_exclusions.txt	LTP286	ltpFR	0	9	1	COTTON	385	n/a	1	0	0.5869140625	0.422607421875	lower	../fonts/amplitud.ttf
2573.392	n/a	WORD	1286696	wordpools/wasnorm_wordpool_less_exclusions.txt	LTP286	ltpFR	0	9	1	SCREW	1254	n/a	0	0	0.5869140625	0.422607421875	lower	../fonts/amplitud.ttf
2577.386	n/a	WORD	1288693	wordpools/wasnorm_wordpool_less_exclusions.txt	LTP286	ltpFR	0	9	1	PARENT	1013	n/a	1	0	0.5869140625	0.422607421875	lower	../fonts/amplitud.ttf
2581.314	n/a	WORD	1290657	wordpools/wasnorm_wordpool_less_exclusions.txt	LTP286	ltpFR	0	9	1	BEAST	108	n/a	1	0	0.5869140625	0.422607421875	lower	../fonts/amplitud.ttf
2585.158	n/a	WORD	1292579	wordpools/wasnorm_wordpool_less_exclusions.txt	LTP286	ltpFR	0	9	1	COBBLER	335	n/a	1	0	0.5869140625	0.422607421875	lower	../fonts/amplitud.ttf
2589.336	n/a	WORD	1294668	wordpools/wasnorm_wordpool_less_exclusions.txt	LTP286	ltpFR	0	9	1	RAFT	1159	n/a	0	0	0.5869140625	0.422607421875	lower	../fonts/amplitud.ttf
2593.346	n/a	WORD	1296673	wordpools/wasnorm_wordpool_less_exclusions.txt	LTP286	ltpFR	0	9	1	MOAT	903	n/a	0	0	0.5869140625	0.422607421875	lower	../fonts/amplitud.ttf
2597.256	n/a	WORD	1298628	wordpools/wasnorm_wordpool_less_exclusions.txt	LTP286	ltpFR	0	9	1	KNEE	784	n/a	1	0	0.5869140625	0.422607421875	lower	../fonts/amplitud.ttf
2601.284	n/a	WORD	1300642	wordpools/wasnorm_wordpool_less_exclusions.txt	LTP286	ltpFR	0	9	1	BASKET	95	n/a	0	0	0.5869140625	0.422607421875	lower	../fonts/amplitud.ttf
2605.428	n/a	WORD	1302714	wordpools/wasnorm_wordpool_less_exclusions.txt	LTP286	ltpFR	0	9	1	SCAPEGOAT	1244	n/a	1	0	0.5869140625	0.422607421875	lower	../fonts/amplitud.ttf
2609.388	n/a	WORD	1304694	wordpools/wasnorm_wordpool_less_exclusions.txt	LTP286	ltpFR	0	9	1	AIRCRAFT	11	n/a	0	0	0.5869140625	0.422607421875	lower	../fonts/amplitud.ttf
2613.616	n/a	WORD	1306808	wordpools/wasnorm_wordpool_less_exclusions.txt	LTP286	ltpFR	0	9	1	CONDUCTOR	362	n/a	1	0	0.5869140625	0.422607421875	lower	../fonts/amplitud.ttf
2617.642	n/a	WORD	1308821	wordpools/wasnorm_wordpool_less_exclusions.txt	LTP286	ltpFR	0	9	1	TROMBONE	1508	n/a	0	0	0.5869140625	0.422607421875	lower	../fonts/amplitud.ttf
2621.67	n/a	WORD	1310835	wordpools/wasnorm_wordpool_less_exclusions.txt	LTP286	ltpFR	0	9	1	BANANA	77	n/a	1	0	0.5869140625	0.422607421875	lower	../fonts/amplitud.ttf
2627.562	n/a	REC_START	1313781	n/a	LTP286	ltpFR	0	9	n/a	n/a	n/a	n/a	n/a	n/a	n/a	n/a	n/a	n/a
2628.922	n/a	REC_WORD	1314461	wordpools/wasnorm_wordpool_less_exclusions.txt	LTP286	ltpFR	0	9	1	BANANA	77	n/a	1	n/a	n/a	n/a	n/a	n/a
2629.926	n/a	REC_WORD	1314963	wordpools/wasnorm_wordpool_less_exclusions.txt	LTP286	ltpFR	0	9	1	KIWI	781	n/a	1	n/a	n/a	n/a	n/a	n/a
2630.906	n/a	REC_WORD	1315453	wordpools/wasnorm_wordpool_less_exclusions.txt	LTP286	ltpFR	0	9	1	CONDUCTOR	362	n/a	1	n/a	n/a	n/a	n/a	n/a
2632.504	n/a	REC_WORD	1316252	wordpools/wasnorm_wordpool_less_exclusions.txt	LTP286	ltpFR	0	9	1	SCAPEGOAT	1244	n/a	1	n/a	n/a	n/a	n/a	n/a
2641.168	n/a	REC_WORD	1320584	wordpools/wasnorm_wordpool_less_exclusions.txt	LTP286	ltpFR	0	9	1	KNEE	784	n/a	1	n/a	n/a	n/a	n/a	n/a
2644.792	n/a	REC_WORD	1322396	wordpools/wasnorm_wordpool_less_exclusions.txt	LTP286	ltpFR	0	9	1	PARENT	1013	n/a	1	n/a	n/a	n/a	n/a	n/a
2661.526	n/a	REC_WORD	1330763	wordpools/wasnorm_wordpool_less_exclusions.txt	LTP286	ltpFR	0	9	1	SCREW	1254	n/a	0	n/a	n/a	n/a	n/a	n/a
2668.136	n/a	REC_WORD	1334068	wordpools/wasnorm_wordpool_less_exclusions.txt	LTP286	ltpFR	0	9	1	BASKET	95	n/a	0	n/a	n/a	n/a	n/a	n/a
2711.188	n/a	WORD	1355594	wordpools/wasnorm_wordpool_less_exclusions.txt	LTP286	ltpFR	0	10	1	SHEEP	1278	n/a	1	0	0.5869140625	0.422607421875	lower	../fonts/amplitud.ttf
2715.03	n/a	WORD	1357515	wordpools/wasnorm_wordpool_less_exclusions.txt	LTP286	ltpFR	0	10	1	RECIPE	1175	n/a	0	0	0.5869140625	0.422607421875	lower	../fonts/amplitud.ttf
2718.942	n/a	WORD	1359471	wordpools/wasnorm_wordpool_less_exclusions.txt	LTP286	ltpFR	0	10	1	LUNCH	849	n/a	0	0	0.5869140625	0.422607421875	lower	../fonts/amplitud.ttf
2723.036	n/a	WORD	1361518	wordpools/wasnorm_wordpool_less_exclusions.txt	LTP286	ltpFR	0	10	1	VIDEO	1564	n/a	0	0	0.5869140625	0.422607421875	lower	../fonts/amplitud.ttf
2727.164	n/a	WORD	1363582	wordpools/wasnorm_wordpool_less_exclusions.txt	LTP286	ltpFR	0	10	1	RADISH	1158	n/a	1	0	0.5869140625	0.422607421875	lower	../fonts/amplitud.ttf
2731.308	n/a	WORD	1365654	wordpools/wasnorm_wordpool_less_exclusions.txt	LTP286	ltpFR	0	10	1	BROCCOLI	176	n/a	1	0	0.5869140625	0.422607421875	lower	../fonts/amplitud.ttf
2735.436	n/a	WORD	1367718	wordpools/wasnorm_wordpool_less_exclusions.txt	LTP286	ltpFR	0	10	1	LIZARD	834	n/a	1	0	0.5869140625	0.422607421875	lower	../fonts/amplitud.ttf
2739.346	n/a	WORD	1369673	wordpools/wasnorm_wordpool_less_exclusions.txt	LTP286	ltpFR	0	10	1	ACTOR	5	n/a	1	0	0.5869140625	0.422607421875	lower	../fonts/amplitud.ttf
2743.556	n/a	WORD	1371778	wordpools/wasnorm_wordpool_less_exclusions.txt	LTP286	ltpFR	0	10	1	RACCOON	1153	n/a	1	0	0.5869140625	0.422607421875	lower	../fonts/amplitud.ttf
2747.45	n/a	WORD	1373725	wordpools/wasnorm_wordpool_less_exclusions.txt	LTP286	ltpFR	0	10	1	HARE	688	n/a	1	0	0.5869140625	0.422607421875	lower	../fonts/amplitud.ttf
2751.562	n/a	WORD	1375781	wordpools/wasnorm_wordpool_less_exclusions.txt	LTP286	ltpFR	0	10	1	NICKEL	950	n/a	0	0	0.5869140625	0.422607421875	lower	../fonts/amplitud.ttf
2755.722	n/a	WORD	1377861	wordpools/wasnorm_wordpool_less_exclusions.txt	LTP286	ltpFR	0	10	1	SPRINKLE	1359	n/a	0	0	0.5869140625	0.422607421875	lower	../fonts/amplitud.ttf
2759.814	n/a	WORD	1379907	wordpools/wasnorm_wordpool_less_exclusions.txt	LTP286	ltpFR	0	10	1	CLERK	321	n/a	1	0	0.5869140625	0.422607421875	lower	../fonts/amplitud.ttf
2763.694	n/a	WORD	1381847	wordpools/wasnorm_wordpool_less_exclusions.txt	LTP286	ltpFR	0	10	1	BILL	126	n/a	0	0	0.5869140625	0.422607421875	lower	../fonts/amplitud.ttf
2767.886	n/a	WORD	1383943	wordpools/wasnorm_wordpool_less_exclusions.txt	LTP286	ltpFR	0	10	1	RABBIT	1152	n/a	1	0	0.5869140625	0.422607421875	lower	../fonts/amplitud.ttf
2771.896	n/a	WORD	1385948	wordpools/wasnorm_wordpool_less_exclusions.txt	LTP286	ltpFR	0	10	1	SERVANT	1271	n/a	1	0	0.5869140625	0.422607421875	lower	../fonts/amplitud.ttf
2777.706	n/a	REC_START	1388853	n/a	LTP286	ltpFR	0	10	n/a	n/a	n/a	n/a	n/a	n/a	n/a	n/a	n/a	n/a
2778.63	n/a	REC_WORD	1389315	wordpools/wasnorm_wordpool_less_exclusions.txt	LTP286	ltpFR	0	10	1	SERVANT	1271	n/a	1	n/a	n/a	n/a	n/a	n/a
2780.536	n/a	REC_WORD	1390268	wordpools/wasnorm_wordpool_less_exclusions.txt	LTP286	ltpFR	0	10	1	RABBIT	1152	n/a	1	n/a	n/a	n/a	n/a	n/a
2781.71	n/a	REC_WORD	1390855	wordpools/wasnorm_wordpool_less_exclusions.txt	LTP286	ltpFR	0	10	1	HARE	688	n/a	1	n/a	n/a	n/a	n/a	n/a
2804.568	n/a	REC_WORD	1402284	wordpools/wasnorm_wordpool_less_exclusions.txt	LTP286	ltpFR	0	10	1	NICKEL	950	n/a	0	n/a	n/a	n/a	n/a	n/a
2805.96	n/a	REC_WORD	1402980	wordpools/wasnorm_wordpool_less_exclusions.txt	LTP286	ltpFR	0	10	1	BROCCOLI	176	n/a	1	n/a	n/a	n/a	n/a	n/a
2808.18	n/a	REC_WORD	1404090	wordpools/wasnorm_wordpool_less_exclusions.txt	LTP286	ltpFR	0	10	1	LIZARD	834	n/a	1	n/a	n/a	n/a	n/a	n/a
2812.418	n/a	REC_WORD	1406209	wordpools/wasnorm_wordpool_less_exclusions.txt	LTP286	ltpFR	0	10	1	RADISH	1158	n/a	1	n/a	n/a	n/a	n/a	n/a
2816.766	n/a	REC_WORD	1408383	wordpools/wasnorm_wordpool_less_exclusions.txt	LTP286	ltpFR	0	10	1	LUNCH	849	n/a	0	n/a	n/a	n/a	n/a	n/a
2860.998	n/a	WORD	1430499	wordpools/wasnorm_wordpool_less_exclusions.txt	LTP286	ltpFR	0	11	1	SIGN	1305	n/a	0	0	0.5869140625	0.422607421875	lower	../fonts/amplitud.ttf
2864.992	n/a	WORD	1432496	wordpools/wasnorm_wordpool_less_exclusions.txt	LTP286	ltpFR	0	11	1	PADDLE	1000	n/a	0	0	0.5869140625	0.422607421875	lower	../fonts/amplitud.ttf
2869.104	n/a	WORD	1434552	wordpools/wasnorm_wordpool_less_exclusions.txt	LTP286	ltpFR	0	11	1	ATTIC	56	n/a	0	0	0.5869140625	0.422607421875	lower	../fonts/amplitud.ttf
2873.064	n/a	WORD	1436532	wordpools/wasnorm_wordpool_less_exclusions.txt	LTP286	ltpFR	0	11	1	ROOM	1206	n/a	0	0	0.5869140625	0.422607421875	lower	../fonts/amplitud.ttf
2876.958	n/a	WORD	1438479	wordpools/wasnorm_wordpool_less_exclusions.txt	LTP286	ltpFR	0	11	1	VIKING	1565	n/a	1	0	0.5869140625	0.422607421875	lower	../fonts/amplitud.ttf
2880.902	n/a	WORD	1440451	wordpools/wasnorm_wordpool_less_exclusions.txt	LTP286	ltpFR	0	11	1	FORT	595	n/a	0	0	0.5869140625	0.422607421875	lower	../fonts/amplitud.ttf
2884.914	n/a	WORD	1442457	wordpools/wasnorm_wordpool_less_exclusions.txt	LTP286	ltpFR	0	11	1	TEACHER	1440	n/a	1	0	0.5869140625	0.422607421875	lower	../fonts/amplitud.ttf
2888.858	n/a	WORD	1444429	wordpools/wasnorm_wordpool_less_exclusions.txt	LTP286	ltpFR	0	11	1	GRIZZLY	662	n/a	1	0	0.5869140625	0.422607421875	lower	../fonts/amplitud.ttf
2892.952	n/a	WORD	1446476	wordpools/wasnorm_wordpool_less_exclusions.txt	LTP286	ltpFR	0	11	1	PEACH	1031	n/a	1	0	0.5869140625	0.422607421875	lower	../fonts/amplitud.ttf
2897.13	n/a	WORD	1448565	wordpools/wasnorm_wordpool_less_exclusions.txt	LTP286	ltpFR	0	11	1	SHORTCAKE	1292	n/a	0	0	0.5869140625	0.422607421875	lower	../fonts/amplitud.ttf
2901.34	n/a	WORD	1450670	wordpools/wasnorm_wordpool_less_exclusions.txt	LTP286	ltpFR	0	11	1	PAPER	1011	n/a	0	0	0.5869140625	0.422607421875	lower	../fonts/amplitud.ttf
2905.5	n/a	WORD	1452750	wordpools/wasnorm_wordpool_less_exclusions.txt	LTP286	ltpFR	0	11	1	LIEUTENANT	818	n/a	1	0	0.5869140625	0.422607421875	lower	../fonts/amplitud.ttf
2909.578	n/a	WORD	1454789	wordpools/wasnorm_wordpool_less_exclusions.txt	LTP286	ltpFR	0	11	1	STREAM	1392	n/a	0	0	0.5869140625	0.422607421875	lower	../fonts/amplitud.ttf
2913.754	n/a	WORD	1456877	wordpools/wasnorm_wordpool_less_exclusions.txt	LTP286	ltpFR	0	11	1	AUTHOR	61	n/a	1	0	0.5869140625	0.422607421875	lower	../fonts/amplitud.ttf
2917.914	n/a	WORD	1458957	wordpools/wasnorm_wordpool_less_exclusions.txt	LTP286	ltpFR	0	11	1	ELECTRICIAN	521	n/a	1	0	0.5869140625	0.422607421875	lower	../fonts/amplitud.ttf
2921.742	n/a	WORD	1460871	wordpools/wasnorm_wordpool_less_exclusions.txt	LTP286	ltpFR	0	11	1	CASHIER	254	n/a	1	0	0.5869140625	0.422607421875	lower	../fonts/amplitud.ttf
2927.85	n/a	REC_START	1463925	n/a	LTP286	ltpFR	0	11	n/a	n/a	n/a	n/a	n/a	n/a	n/a	n/a	n/a	n/a
2928.574	n/a	REC_WORD	1464287	wordpools/wasnorm_wordpool_less_exclusions.txt	LTP286	ltpFR	0	11	1	CASHIER	254	n/a	1	n/a	n/a	n/a	n/a	n/a
2929.734	n/a	REC_WORD	1464867	wordpools/wasnorm_wordpool_less_exclusions.txt	LTP286	ltpFR	0	11	1	LIEUTENANT	818	n/a	1	n/a	n/a	n/a	n/a	n/a
2932.05	n/a	REC_WORD	1466025	wordpools/wasnorm_wordpool_less_exclusions.txt	LTP286	ltpFR	0	11	1	GRIZZLY	662	n/a	1	n/a	n/a	n/a	n/a	n/a
2934.01	n/a	REC_WORD	1467005	wordpools/wasnorm_wordpool_less_exclusions.txt	LTP286	ltpFR	0	11	1	PAPER	1011	n/a	0	n/a	n/a	n/a	n/a	n/a
2947.084	n/a	REC_WORD	1473542	wordpools/wasnorm_wordpool_less_exclusions.txt	LTP286	ltpFR	0	11	1	ELECTRICIAN	521	n/a	1	n/a	n/a	n/a	n/a	n/a
2965.574	n/a	REC_WORD	1482787	wordpools/wasnorm_wordpool_less_exclusions.txt	LTP286	ltpFR	0	11	1	STREAM	1392	n/a	0	n/a	n/a	n/a	n/a	n/a
2968.876	n/a	REC_WORD	1484438	wordpools/wasnorm_wordpool_less_exclusions.txt	LTP286	ltpFR	0	11	1	PADDLE	1000	n/a	0	n/a	n/a	n/a	n/a	n/a
2969.886	n/a	REC_WORD	1484943	wordpools/wasnorm_wordpool_less_exclusions.txt	LTP286	ltpFR	0	11	1	VIKING	1565	n/a	1	n/a	n/a	n/a	n/a	n/a
2973.618	n/a	REC_WORD	1486809	wordpools/wasnorm_wordpool_less_exclusions.txt	LTP286	ltpFR	0	11	1	ATTIC	56	n/a	0	n/a	n/a	n/a	n/a	n/a
2974.718	n/a	REC_WORD	1487359	wordpools/wasnorm_wordpool_less_exclusions.txt	LTP286	ltpFR	0	11	1	ROOM	1206	n/a	0	n/a	n/a	n/a	n/a	n/a
2977.304	n/a	REC_WORD	1488652	wordpools/wasnorm_wordpool_less_exclusions.txt	LTP286	ltpFR	0	11	1	FORT	595	n/a	0	n/a	n/a	n/a	n/a	n/a
2994.904	n/a	REC_WORD	1497452	wordpools/wasnorm_wordpool_less_exclusions.txt	LTP286	ltpFR	0	11	1	AUTHOR	61	n/a	1	n/a	n/a	n/a	n/a	n/a
3020.346	n/a	WORD	1510173	wordpools/wasnorm_wordpool_less_exclusions.txt	LTP286	ltpFR	0	12	1	PICK	1058	n/a	0	0	0.5869140625	0.422607421875	lower	../fonts/amplitud.ttf
3024.274	n/a	WORD	1512137	wordpools/wasnorm_wordpool_less_exclusions.txt	LTP286	ltpFR	0	12	1	SWITCH	1422	n/a	0	0	0.5869140625	0.422607421875	lower	../fonts/amplitud.ttf
3028.318	n/a	WORD	1514159	wordpools/wasnorm_wordpool_less_exclusions.txt	LTP286	ltpFR	0	12	1	PORCUPINE	1107	n/a	1	0	0.5869140625	0.422607421875	lower	../fonts/amplitud.ttf
3032.328	n/a	WORD	1516164	wordpools/wasnorm_wordpool_less_exclusions.txt	LTP286	ltpFR	0	12	1	MILK	895	n/a	0	0	0.5869140625	0.422607421875	lower	../fonts/amplitud.ttf
3036.172	n/a	WORD	1518086	wordpools/wasnorm_wordpool_less_exclusions.txt	LTP286	ltpFR	0	12	1	CARTON	251	n/a	0	0	0.5869140625	0.422607421875	lower	../fonts/amplitud.ttf
3040.034	n/a	WORD	1520017	wordpools/wasnorm_wordpool_less_exclusions.txt	LTP286	ltpFR	0	12	1	FRIEND	606	n/a	1	0	0.5869140625	0.422607421875	lower	../fonts/amplitud.ttf
3044.212	n/a	WORD	1522106	wordpools/wasnorm_wordpool_less_exclusions.txt	LTP286	ltpFR	0	12	1	ZOO	1637	n/a	0	0	0.5869140625	0.422607421875	lower	../fonts/amplitud.ttf
3048.122	n/a	WORD	1524061	wordpools/wasnorm_wordpool_less_exclusions.txt	LTP286	ltpFR	0	12	1	POLYESTER	1100	n/a	0	0	0.5869140625	0.422607421875	lower	../fonts/amplitud.ttf
3052.15	n/a	WORD	1526075	wordpools/wasnorm_wordpool_less_exclusions.txt	LTP286	ltpFR	0	12	1	NIGHTGOWN	953	n/a	0	0	0.5869140625	0.422607421875	lower	../fonts/amplitud.ttf
3056.16	n/a	WORD	1528080	wordpools/wasnorm_wordpool_less_exclusions.txt	LTP286	ltpFR	0	12	1	LITERATURE	831	n/a	0	0	0.5869140625	0.422607421875	lower	../fonts/amplitud.ttf
3060.072	n/a	WORD	1530036	wordpools/wasnorm_wordpool_less_exclusions.txt	LTP286	ltpFR	0	12	1	WRITER	1627	n/a	1	0	0.5869140625	0.422607421875	lower	../fonts/amplitud.ttf
3064.098	n/a	WORD	1532049	wordpools/wasnorm_wordpool_less_exclusions.txt	LTP286	ltpFR	0	12	1	ROCK	1201	n/a	0	0	0.5869140625	0.422607421875	lower	../fonts/amplitud.ttf
3068.076	n/a	WORD	1534038	wordpools/wasnorm_wordpool_less_exclusions.txt	LTP286	ltpFR	0	12	1	CONCRETE	361	n/a	0	0	0.5869140625	0.422607421875	lower	../fonts/amplitud.ttf
3072.036	n/a	WORD	1536018	wordpools/wasnorm_wordpool_less_exclusions.txt	LTP286	ltpFR	0	12	1	ROOMMATE	1207	n/a	1	0	0.5869140625	0.422607421875	lower	../fonts/amplitud.ttf
3075.914	n/a	WORD	1537957	wordpools/wasnorm_wordpool_less_exclusions.txt	LTP286	ltpFR	0	12	1	TUXEDO	1525	n/a	0	0	0.5869140625	0.422607421875	lower	../fonts/amplitud.ttf
3080.124	n/a	WORD	1540062	wordpools/wasnorm_wordpool_less_exclusions.txt	LTP286	ltpFR	0	12	1	MOLECULE	905	n/a	1	0	0.5869140625	0.422607421875	lower	../fonts/amplitud.ttf
3086.0	n/a	REC_START	1543000	n/a	LTP286	ltpFR	0	12	n/a	n/a	n/a	n/a	n/a	n/a	n/a	n/a	n/a	n/a
3087.044	n/a	REC_WORD	1543522	wordpools/wasnorm_wordpool_less_exclusions.txt	LTP286	ltpFR	0	12	1	MOLECULE	905	n/a	1	n/a	n/a	n/a	n/a	n/a
3088.044	n/a	REC_WORD_VV	1544022	wordpools/wasnorm_wordpool_less_exclusions.txt	LTP286	ltpFR	0	12	n/a	<>	-1	n/a	n/a	n/a	n/a	n/a	n/a	n/a
3088.514	n/a	REC_WORD	1544257	wordpools/wasnorm_wordpool_less_exclusions.txt	LTP286	ltpFR	0	12	1	CONCRETE	361	n/a	0	n/a	n/a	n/a	n/a	n/a
3089.93	n/a	REC_WORD	1544965	wordpools/wasnorm_wordpool_less_exclusions.txt	LTP286	ltpFR	0	12	1	ROCK	1201	n/a	0	n/a	n/a	n/a	n/a	n/a
3091.23	n/a	REC_WORD	1545615	wordpools/wasnorm_wordpool_less_exclusions.txt	LTP286	ltpFR	0	12	1	ZOO	1637	n/a	0	n/a	n/a	n/a	n/a	n/a
3093.508	n/a	REC_WORD	1546754	wordpools/wasnorm_wordpool_less_exclusions.txt	LTP286	ltpFR	0	12	1	ROOMMATE	1207	n/a	1	n/a	n/a	n/a	n/a	n/a
3123.1	n/a	REC_WORD	1561550	wordpools/wasnorm_wordpool_less_exclusions.txt	LTP286	ltpFR	0	12	1	WRITER	1627	n/a	1	n/a	n/a	n/a	n/a	n/a
3130.544	n/a	REC_WORD	1565272	wordpools/wasnorm_wordpool_less_exclusions.txt	LTP286	ltpFR	0	12	1	FRIEND	606	n/a	1	n/a	n/a	n/a	n/a	n/a
3152.926	n/a	REC_WORD	1576463	wordpools/wasnorm_wordpool_less_exclusions.txt	LTP286	ltpFR	0	12	1	MILK	895	n/a	0	n/a	n/a	n/a	n/a	n/a
3168.876	n/a	WORD	1584438	wordpools/wasnorm_wordpool_less_exclusions.txt	LTP286	ltpFR	0	13	1	OCTOPUS	971	n/a	1	0	0.5869140625	0.422607421875	lower	../fonts/amplitud.ttf
3172.754	n/a	WORD	1586377	wordpools/wasnorm_wordpool_less_exclusions.txt	LTP286	ltpFR	0	13	1	MISSILE	900	n/a	0	0	0.5869140625	0.422607421875	lower	../fonts/amplitud.ttf
3176.698	n/a	WORD	1588349	wordpools/wasnorm_wordpool_less_exclusions.txt	LTP286	ltpFR	0	13	0	MOTH	920	n/a	0	1	0.412841796875	0.57763671875	upper	../fonts/zerothre.ttf
3180.692	n/a	WORD	1590346	wordpools/wasnorm_wordpool_less_exclusions.txt	LTP286	ltpFR	0	13	0	LOBSTER	837	n/a	0	1	0.412841796875	0.57763671875	upper	../fonts/zerothre.ttf
3184.736	n/a	WORD	1592368	wordpools/wasnorm_wordpool_less_exclusions.txt	LTP286	ltpFR	0	13	0	CASHEW	253	n/a	0	1	0.412841796875	0.57763671875	upper	../fonts/zerothre.ttf
3188.812	n/a	WORD	1594406	wordpools/wasnorm_wordpool_less_exclusions.txt	LTP286	ltpFR	0	13	0	ALMOND	18	n/a	0	1	0.412841796875	0.57763671875	upper	../fonts/zerothre.ttf
3192.708	n/a	WORD	1596354	wordpools/wasnorm_wordpool_less_exclusions.txt	LTP286	ltpFR	0	13	0	ABDOMEN	1	n/a	1	1	0.412841796875	0.57763671875	upper	../fonts/zerothre.ttf
3196.768	n/a	WORD	1598384	wordpools/wasnorm_wordpool_less_exclusions.txt	LTP286	ltpFR	0	13	0	THIGH	1457	n/a	1	1	0.412841796875	0.57763671875	upper	../fonts/zerothre.ttf
3200.828	n/a	WORD	1600414	wordpools/wasnorm_wordpool_less_exclusions.txt	LTP286	ltpFR	0	13	1	DOG	480	n/a	1	0	0.5869140625	0.422607421875	lower	../fonts/amplitud.ttf
3204.922	n/a	WORD	1602461	wordpools/wasnorm_wordpool_less_exclusions.txt	LTP286	ltpFR	0	13	1	TRIGGER	1507	n/a	0	0	0.5869140625	0.422607421875	lower	../fonts/amplitud.ttf
3208.85	n/a	WORD	1604425	wordpools/wasnorm_wordpool_less_exclusions.txt	LTP286	ltpFR	0	13	1	VOLCANO	1575	n/a	0	0	0.5869140625	0.422607421875	lower	../fonts/amplitud.ttf
3212.762	n/a	WORD	1606381	wordpools/wasnorm_wordpool_less_exclusions.txt	LTP286	ltpFR	0	13	0	PRINCE	1124	n/a	1	1	0.412841796875	0.57763671875	upper	../fonts/zerothre.ttf
3216.69	n/a	WORD	1608345	wordpools/wasnorm_wordpool_less_exclusions.txt	LTP286	ltpFR	0	13	0	MOSQUITO	917	n/a	1	1	0.412841796875	0.57763671875	upper	../fonts/zerothre.ttf
3220.866	n/a	WORD	1610433	wordpools/wasnorm_wordpool_less_exclusions.txt	LTP286	ltpFR	0	13	1	RACK	1154	n/a	0	0	0.5869140625	0.422607421875	lower	../fonts/amplitud.ttf
3224.992	n/a	WORD	1612496	wordpools/wasnorm_wordpool_less_exclusions.txt	LTP286	ltpFR	0	13	1	MARSH	874	n/a	1	0	0.5869140625	0.422607421875	lower	../fonts/amplitud.ttf
3228.888	n/a	WORD	1614444	wordpools/wasnorm_wordpool_less_exclusions.txt	LTP286	ltpFR	0	13	1	WATER	1594	n/a	0	0	0.5869140625	0.422607421875	lower	../fonts/amplitud.ttf
3234.946	n/a	REC_START	1617473	n/a	LTP286	ltpFR	0	13	n/a	n/a	n/a	n/a	n/a	n/a	n/a	n/a	n/a	n/a
3237.618	n/a	REC_WORD	1618809	wordpools/wasnorm_wordpool_less_exclusions.txt	LTP286	ltpFR	0	13	1	WATER	1594	n/a	0	n/a	n/a	n/a	n/a	n/a
3244.432	n/a	REC_WORD	1622216	wordpools/wasnorm_wordpool_less_exclusions.txt	LTP286	ltpFR	0	13	0	MOSQUITO	917	n/a	1	n/a	n/a	n/a	n/a	n/a
3246.108	n/a	REC_WORD	1623054	wordpools/wasnorm_wordpool_less_exclusions.txt	LTP286	ltpFR	0	13	0	MOTH	920	n/a	0	n/a	n/a	n/a	n/a	n/a
3250.652	n/a	REC_WORD	1625326	wordpools/wasnorm_wordpool_less_exclusions.txt	LTP286	ltpFR	0	13	0	ABDOMEN	1	n/a	1	n/a	n/a	n/a	n/a	n/a
3251.7	n/a	REC_WORD	1625850	wordpools/wasnorm_wordpool_less_exclusions.txt	LTP286	ltpFR	0	13	0	THIGH	1457	n/a	1	n/a	n/a	n/a	n/a	n/a
3260.022	n/a	REC_WORD	1630011	wordpools/wasnorm_wordpool_less_exclusions.txt	LTP286	ltpFR	0	13	1	MARSH	874	n/a	1	n/a	n/a	n/a	n/a	n/a
3285.58	n/a	REC_WORD	1642790	wordpools/wasnorm_wordpool_less_exclusions.txt	LTP286	ltpFR	0	13	1	TRIGGER	1507	n/a	0	n/a	n/a	n/a	n/a	n/a
3287.896	n/a	REC_WORD	1643948	wordpools/wasnorm_wordpool_less_exclusions.txt	LTP286	ltpFR	0	13	1	DOG	480	n/a	1	n/a	n/a	n/a	n/a	n/a
3332.084	n/a	WORD	1666042	wordpools/wasnorm_wordpool_less_exclusions.txt	LTP286	ltpFR	0	14	0	JOURNAL	760	n/a	0	1	0.412841796875	0.57763671875	upper	../fonts/zerothre.ttf
3336.196	n/a	WORD	1668098	wordpools/wasnorm_wordpool_less_exclusions.txt	LTP286	ltpFR	0	14	0	ARMY	39	n/a	1	1	0.412841796875	0.57763671875	upper	../fonts/zerothre.ttf
3340.356	n/a	WORD	1670178	wordpools/wasnorm_wordpool_less_exclusions.txt	LTP286	ltpFR	0	14	0	GOVERNOR	651	n/a	1	1	0.412841796875	0.57763671875	upper	../fonts/zerothre.ttf
3344.484	n/a	WORD	1672242	wordpools/wasnorm_wordpool_less_exclusions.txt	LTP286	ltpFR	0	14	0	FORK	594	n/a	0	1	0.412841796875	0.57763671875	upper	../fonts/zerothre.ttf
3348.344	n/a	WORD	1674172	wordpools/wasnorm_wordpool_less_exclusions.txt	LTP286	ltpFR	0	14	1	COOK	372	n/a	1	0	0.5869140625	0.422607421875	lower	../fonts/amplitud.ttf
3352.254	n/a	WORD	1676127	wordpools/wasnorm_wordpool_less_exclusions.txt	LTP286	ltpFR	0	14	1	NEST	945	n/a	0	0	0.5869140625	0.422607421875	lower	../fonts/amplitud.ttf
3356.45	n/a	WORD	1678225	wordpools/wasnorm_wordpool_less_exclusions.txt	LTP286	ltpFR	0	14	1	ATLAS	53	n/a	0	0	0.5869140625	0.422607421875	lower	../fonts/amplitud.ttf
3360.294	n/a	WORD	1680147	wordpools/wasnorm_wordpool_less_exclusions.txt	LTP286	ltpFR	0	14	1	TORCH	1484	n/a	0	0	0.5869140625	0.422607421875	lower	../fonts/amplitud.ttf
3364.488	n/a	WORD	1682244	wordpools/wasnorm_wordpool_less_exclusions.txt	LTP286	ltpFR	0	14	0	LAMP	798	n/a	1	1	0.412841796875	0.57763671875	upper	../fonts/zerothre.ttf
3368.348	n/a	WORD	1684174	wordpools/wasnorm_wordpool_less_exclusions.txt	LTP286	ltpFR	0	14	0	RAISIN	1163	n/a	0	1	0.412841796875	0.57763671875	upper	../fonts/zerothre.ttf
3372.576	n/a	WORD	1686288	wordpools/wasnorm_wordpool_less_exclusions.txt	LTP286	ltpFR	0	14	1	COUCH	386	n/a	0	0	0.5869140625	0.422607421875	lower	../fonts/amplitud.ttf
3376.702	n/a	WORD	1688351	wordpools/wasnorm_wordpool_less_exclusions.txt	LTP286	ltpFR	0	14	1	TABLE	1426	n/a	0	0	0.5869140625	0.422607421875	lower	../fonts/amplitud.ttf
3380.646	n/a	WORD	1690323	wordpools/wasnorm_wordpool_less_exclusions.txt	LTP286	ltpFR	0	14	1	ASSOCIATE	49	n/a	1	0	0.5869140625	0.422607421875	lower	../fonts/amplitud.ttf
3384.474	n/a	WORD	1692237	wordpools/wasnorm_wordpool_less_exclusions.txt	LTP286	ltpFR	0	14	1	CITRUS	313	n/a	1	0	0.5869140625	0.422607421875	lower	../fonts/amplitud.ttf
3388.352	n/a	WORD	1694176	wordpools/wasnorm_wordpool_less_exclusions.txt	LTP286	ltpFR	0	14	0	SAILOR	1223	n/a	1	1	0.412841796875	0.57763671875	upper	../fonts/zerothre.ttf
3392.262	n/a	WORD	1696131	wordpools/wasnorm_wordpool_less_exclusions.txt	LTP286	ltpFR	0	14	0	STRANGER	1389	n/a	1	1	0.412841796875	0.57763671875	upper	../fonts/zerothre.ttf
3398.288	n/a	REC_START	1699144	n/a	LTP286	ltpFR	0	14	n/a	n/a	n/a	n/a	n/a	n/a	n/a	n/a	n/a	n/a
3399.294	n/a	REC_WORD	1699647	wordpools/wasnorm_wordpool_less_exclusions.txt	LTP286	ltpFR	0	14	0	SAILOR	1223	n/a	1	n/a	n/a	n/a	n/a	n/a
3400.174	n/a	REC_WORD	1700087	wordpools/wasnorm_wordpool_less_exclusions.txt	LTP286	ltpFR	0	14	0	STRANGER	1389	n/a	1	n/a	n/a	n/a	n/a	n/a
3401.174	n/a	REC_WORD_VV	1700587	wordpools/wasnorm_wordpool_less_exclusions.txt	LTP286	ltpFR	0	14	n/a	<>	-1	n/a	n/a	n/a	n/a	n/a	n/a	n/a
3403.332	n/a	REC_WORD	1701666	wordpools/wasnorm_wordpool_less_exclusions.txt	LTP286	ltpFR	0	14	1	CITRUS	313	n/a	1	n/a	n/a	n/a	n/a	n/a
3404.332	n/a	REC_WORD_VV	1702166	wordpools/wasnorm_wordpool_less_exclusions.txt	LTP286	ltpFR	0	14	n/a	<>	-1	n/a	n/a	n/a	n/a	n/a	n/a	n/a
3404.914	n/a	REC_WORD	1702457	wordpools/wasnorm_wordpool_less_exclusions.txt	LTP286	ltpFR	0	14	0	RAISIN	1163	n/a	0	n/a	n/a	n/a	n/a	n/a
3412.638	n/a	REC_WORD	1706319	wordpools/wasnorm_wordpool_less_exclusions.txt	LTP286	ltpFR	0	14	0	GOVERNOR	651	n/a	1	n/a	n/a	n/a	n/a	n/a
3415.55	n/a	REC_WORD	1707775	wordpools/wasnorm_wordpool_less_exclusions.txt	LTP286	ltpFR	0	14	1	ATLAS	53	n/a	0	n/a	n/a	n/a	n/a	n/a
3428.814	n/a	REC_WORD	1714407	wordpools/wasnorm_wordpool_less_exclusions.txt	LTP286	ltpFR	0	14	0	ARMY	39	n/a	1	n/a	n/a	n/a	n/a	n/a
3462.608	n/a	REC_WORD	1731304	wordpools/wasnorm_wordpool_less_exclusions.txt	LTP286	ltpFR	0	14	0	STRANGER	1389	n/a	1	n/a	n/a	n/a	n/a	n/a
3481.78	n/a	WORD	1740890	wordpools/wasnorm_wordpool_less_exclusions.txt	LTP286	ltpFR	0	15	0	BOOTH	151	n/a	1	1	0.412841796875	0.57763671875	upper	../fonts/zerothre.ttf
3485.724	n/a	WORD	1742862	wordpools/wasnorm_wordpool_less_exclusions.txt	LTP286	ltpFR	0	15	0	SPIT	1354	n/a	0	1	0.412841796875	0.57763671875	upper	../fonts/zerothre.ttf
3489.552	n/a	WORD	1744776	wordpools/wasnorm_wordpool_less_exclusions.txt	LTP286	ltpFR	0	15	0	VAMPIRE	1547	n/a	1	1	0.412841796875	0.57763671875	upper	../fonts/zerothre.ttf
3493.762	n/a	WORD	1746881	wordpools/wasnorm_wordpool_less_exclusions.txt	LTP286	ltpFR	0	15	0	PRESIDENT	1121	n/a	1	1	0.412841796875	0.57763671875	upper	../fonts/zerothre.ttf
3497.856	n/a	WORD	1748928	wordpools/wasnorm_wordpool_less_exclusions.txt	LTP286	ltpFR	0	15	0	HUT	729	n/a	1	1	0.412841796875	0.57763671875	upper	../fonts/zerothre.ttf
3501.734	n/a	WORD	1750867	wordpools/wasnorm_wordpool_less_exclusions.txt	LTP286	ltpFR	0	15	0	ROOSTER	1209	n/a	1	1	0.412841796875	0.57763671875	upper	../fonts/zerothre.ttf
3505.644	n/a	WORD	1752822	wordpools/wasnorm_wordpool_less_exclusions.txt	LTP286	ltpFR	0	15	1	SIRLOIN	1311	n/a	0	0	0.5869140625	0.422607421875	lower	../fonts/amplitud.ttf
3509.804	n/a	WORD	1754902	wordpools/wasnorm_wordpool_less_exclusions.txt	LTP286	ltpFR	0	15	1	SHELF	1280	n/a	0	0	0.5869140625	0.422607421875	lower	../fonts/amplitud.ttf
3513.782	n/a	WORD	1756891	wordpools/wasnorm_wordpool_less_exclusions.txt	LTP286	ltpFR	0	15	1	MAGAZINE	853	n/a	0	0	0.5869140625	0.422607421875	lower	../fonts/amplitud.ttf
3517.91	n/a	WORD	1758955	wordpools/wasnorm_wordpool_less_exclusions.txt	LTP286	ltpFR	0	15	1	CUSTOMER	430	n/a	1	0	0.5869140625	0.422607421875	lower	../fonts/amplitud.ttf
3521.754	n/a	WORD	1760877	wordpools/wasnorm_wordpool_less_exclusions.txt	LTP286	ltpFR	0	15	1	FUR	615	n/a	0	0	0.5869140625	0.422607421875	lower	../fonts/amplitud.ttf
3525.582	n/a	WORD	1762791	wordpools/wasnorm_wordpool_less_exclusions.txt	LTP286	ltpFR	0	15	1	HORNET	718	n/a	1	0	0.5869140625	0.422607421875	lower	../fonts/amplitud.ttf
3529.792	n/a	WORD	1764896	wordpools/wasnorm_wordpool_less_exclusions.txt	LTP286	ltpFR	0	15	0	HANGER	687	n/a	0	1	0.412841796875	0.57763671875	upper	../fonts/zerothre.ttf
3533.886	n/a	WORD	1766943	wordpools/wasnorm_wordpool_less_exclusions.txt	LTP286	ltpFR	0	15	0	OUTFIT	988	n/a	0	1	0.412841796875	0.57763671875	upper	../fonts/zerothre.ttf
3538.012	n/a	WORD	1769006	wordpools/wasnorm_wordpool_less_exclusions.txt	LTP286	ltpFR	0	15	1	HOUSE	725	n/a	0	0	0.5869140625	0.422607421875	lower	../fonts/amplitud.ttf
3542.124	n/a	WORD	1771062	wordpools/wasnorm_wordpool_less_exclusions.txt	LTP286	ltpFR	0	15	1	HEART	697	n/a	1	0	0.5869140625	0.422607421875	lower	../fonts/amplitud.ttf
3548.1	n/a	REC_START	1774050	n/a	LTP286	ltpFR	0	15	n/a	n/a	n/a	n/a	n/a	n/a	n/a	n/a	n/a	n/a
3549.266	n/a	REC_WORD	1774633	wordpools/wasnorm_wordpool_less_exclusions.txt	LTP286	ltpFR	0	15	1	HOUSE	725	n/a	0	n/a	n/a	n/a	n/a	n/a
3550.376	n/a	REC_WORD	1775188	wordpools/wasnorm_wordpool_less_exclusions.txt	LTP286	ltpFR	0	15	1	HEART	697	n/a	1	n/a	n/a	n/a	n/a	n/a
3551.878	n/a	REC_WORD	1775939	wordpools/wasnorm_wordpool_less_exclusions.txt	LTP286	ltpFR	0	15	0	PRESIDENT	1121	n/a	1	n/a	n/a	n/a	n/a	n/a
3583.512	n/a	REC_WORD	1791756	wordpools/wasnorm_wordpool_less_exclusions.txt	LTP286	ltpFR	0	15	1	HORNET	718	n/a	1	n/a	n/a	n/a	n/a	n/a
3592.656	n/a	REC_WORD	1796328	wordpools/wasnorm_wordpool_less_exclusions.txt	LTP286	ltpFR	0	15	0	OUTFIT	988	n/a	0	n/a	n/a	n/a	n/a	n/a
3593.63	n/a	REC_WORD	1796815	wordpools/wasnorm_wordpool_less_exclusions.txt	LTP286	ltpFR	0	15	0	HANGER	687	n/a	0	n/a	n/a	n/a	n/a	n/a
3607.286	n/a	REC_WORD	1803643	wordpools/wasnorm_wordpool_less_exclusions.txt	LTP286	ltpFR	0	15	1	CUSTOMER	430	n/a	1	n/a	n/a	n/a	n/a	n/a
3630.46	n/a	WORD	1815230	wordpools/wasnorm_wordpool_less_exclusions.txt	LTP286	ltpFR	0	16	1	SQUID	1361	n/a	1	0	0.5869140625	0.422607421875	lower	../fonts/amplitud.ttf
3634.438	n/a	WORD	1817219	wordpools/wasnorm_wordpool_less_exclusions.txt	LTP286	ltpFR	0	16	1	NET	946	n/a	0	0	0.5869140625	0.422607421875	lower	../fonts/amplitud.ttf
3638.432	n/a	WORD	1819216	wordpools/wasnorm_wordpool_less_exclusions.txt	LTP286	ltpFR	0	16	1	DRILL	497	n/a	0	0	0.5869140625	0.422607421875	lower	../fonts/amplitud.ttf
3642.476	n/a	WORD	1821238	wordpools/wasnorm_wordpool_less_exclusions.txt	LTP286	ltpFR	0	16	1	PROFESSIONAL	1130	n/a	1	0	0.5869140625	0.422607421875	lower	../fonts/amplitud.ttf
3646.452	n/a	WORD	1823226	wordpools/wasnorm_wordpool_less_exclusions.txt	LTP286	ltpFR	0	16	1	TWINE	1529	n/a	0	0	0.5869140625	0.422607421875	lower	../fonts/amplitud.ttf
3650.348	n/a	WORD	1825174	wordpools/wasnorm_wordpool_less_exclusions.txt	LTP286	ltpFR	0	16	0	ANTELOPE	27	n/a	1	1	0.412841796875	0.57763671875	upper	../fonts/zerothre.ttf
3654.54	n/a	WORD	1827270	wordpools/wasnorm_wordpool_less_exclusions.txt	LTP286	ltpFR	0	16	0	RAM	1165	n/a	1	1	0.412841796875	0.57763671875	upper	../fonts/zerothre.ttf
3658.386	n/a	WORD	1829193	wordpools/wasnorm_wordpool_less_exclusions.txt	LTP286	ltpFR	0	16	0	OVEN	991	n/a	1	1	0.412841796875	0.57763671875	upper	../fonts/zerothre.ttf
3662.562	n/a	WORD	1831281	wordpools/wasnorm_wordpool_less_exclusions.txt	LTP286	ltpFR	0	16	0	MAN	862	n/a	1	1	0.412841796875	0.57763671875	upper	../fonts/zerothre.ttf
3666.724	n/a	WORD	1833362	wordpools/wasnorm_wordpool_less_exclusions.txt	LTP286	ltpFR	0	16	0	SAUSAGE	1238	n/a	0	1	0.412841796875	0.57763671875	upper	../fonts/zerothre.ttf
3670.816	n/a	WORD	1835408	wordpools/wasnorm_wordpool_less_exclusions.txt	LTP286	ltpFR	0	16	0	STOVE	1388	n/a	1	1	0.412841796875	0.57763671875	upper	../fonts/zerothre.ttf
3674.744	n/a	WORD	1837372	wordpools/wasnorm_wordpool_less_exclusions.txt	LTP286	ltpFR	0	16	1	FLASK	576	n/a	0	0	0.5869140625	0.422607421875	lower	../fonts/amplitud.ttf
3678.938	n/a	WORD	1839469	wordpools/wasnorm_wordpool_less_exclusions.txt	LTP286	ltpFR	0	16	1	PIZZA	1079	n/a	0	0	0.5869140625	0.422607421875	lower	../fonts/amplitud.ttf
3682.966	n/a	WORD	1841483	wordpools/wasnorm_wordpool_less_exclusions.txt	LTP286	ltpFR	0	16	1	CARROT	249	n/a	1	0	0.5869140625	0.422607421875	lower	../fonts/amplitud.ttf
3687.026	n/a	WORD	1843513	wordpools/wasnorm_wordpool_less_exclusions.txt	LTP286	ltpFR	0	16	0	ORANGE	980	n/a	0	1	0.412841796875	0.57763671875	upper	../fonts/zerothre.ttf
3691.12	n/a	WORD	1845560	wordpools/wasnorm_wordpool_less_exclusions.txt	LTP286	ltpFR	0	16	0	STRAW	1390	n/a	0	1	0.412841796875	0.57763671875	upper	../fonts/zerothre.ttf
3697.096	n/a	REC_START	1848548	n/a	LTP286	ltpFR	0	16	n/a	n/a	n/a	n/a	n/a	n/a	n/a	n/a	n/a	n/a
3697.968	n/a	REC_WORD	1848984	wordpools/wasnorm_wordpool_less_exclusions.txt	LTP286	ltpFR	0	16	0	STRAW	1390	n/a	0	n/a	n/a	n/a	n/a	n/a
3699.324	n/a	REC_WORD	1849662	wordpools/wasnorm_wordpool_less_exclusions.txt	LTP286	ltpFR	0	16	0	ORANGE	980	n/a	0	n/a	n/a	n/a	n/a	n/a
3701.064	n/a	REC_WORD	1850532	wordpools/wasnorm_wordpool_less_exclusions.txt	LTP286	ltpFR	0	16	1	CARROT	249	n/a	1	n/a	n/a	n/a	n/a	n/a
3702.266	n/a	REC_WORD	1851133	wordpools/wasnorm_wordpool_less_exclusions.txt	LTP286	ltpFR	0	16	1	PIZZA	1079	n/a	0	n/a	n/a	n/a	n/a	n/a
3704.136	n/a	REC_WORD	1852068	wordpools/wasnorm_wordpool_less_exclusions.txt	LTP286	ltpFR	0	16	1	SQUID	1361	n/a	1	n/a	n/a	n/a	n/a	n/a
3707.348	n/a	REC_WORD	1853674	wordpools/wasnorm_wordpool_less_exclusions.txt	LTP286	ltpFR	0	16	0	ANTELOPE	27	n/a	1	n/a	n/a	n/a	n/a	n/a
3708.782	n/a	REC_WORD	1854391	wordpools/wasnorm_wordpool_less_exclusions.txt	LTP286	ltpFR	0	16	0	RAM	1165	n/a	1	n/a	n/a	n/a	n/a	n/a
3738.45	n/a	REC_WORD	1869225	wordpools/wasnorm_wordpool_less_exclusions.txt	LTP286	ltpFR	0	16	1	PROFESSIONAL	1130	n/a	1	n/a	n/a	n/a	n/a	n/a
3818.014	n/a	REC_START	1909007	n/a	LTP286	ltpFR	0	n/a	n/a	n/a	n/a	n/a	n/a	n/a	n/a	n/a	n/a	n/a
3819.008	n/a	FFR_REC_WORD	1909504	wordpools/wasnorm_wordpool_less_exclusions.txt	LTP286	ltpFR	0	n/a	0	PRESIDENT	1121	n/a	1	n/a	n/a	n/a	n/a	n/a
3820.594	n/a	FFR_REC_WORD	1910297	wordpools/wasnorm_wordpool_less_exclusions.txt	LTP286	ltpFR	0	n/a	0	GOVERNOR	651	n/a	1	n/a	n/a	n/a	n/a	n/a
3822.03	n/a	FFR_REC_WORD	1911015	wordpools/wasnorm_wordpool_less_exclusions.txt	LTP286	ltpFR	0	n/a	0	ARMY	39	n/a	1	n/a	n/a	n/a	n/a	n/a
3824.764	n/a	FFR_REC_WORD	1912382	wordpools/wasnorm_wordpool_less_exclusions.txt	LTP286	ltpFR	0	n/a	-1	TORTOISE	1486	n/a	-1	n/a	n/a	n/a	n/a	n/a
3826.984	n/a	FFR_REC_WORD	1913492	wordpools/wasnorm_wordpool_less_exclusions.txt	LTP286	ltpFR	0	n/a	-1	RIVER	1194	n/a	-1	n/a	n/a	n/a	n/a	n/a
3828.79	n/a	FFR_REC_WORD	1914395	wordpools/wasnorm_wordpool_less_exclusions.txt	LTP286	ltpFR	0	n/a	1	WATER	1594	n/a	0	n/a	n/a	n/a	n/a	n/a
3831.62	n/a	FFR_REC_WORD	1915810	wordpools/wasnorm_wordpool_less_exclusions.txt	LTP286	ltpFR	0	n/a	-1	DUST	508	n/a	-1	n/a	n/a	n/a	n/a	n/a
3832.896	n/a	FFR_REC_WORD	1916448	wordpools/wasnorm_wordpool_less_exclusions.txt	LTP286	ltpFR	0	n/a	-1	STOOL	1386	n/a	-1	n/a	n/a	n/a	n/a	n/a
3835.076	n/a	FFR_REC_WORD	1917538	wordpools/wasnorm_wordpool_less_exclusions.txt	LTP286	ltpFR	0	n/a	0	BLUEJAY	141	n/a	0	n/a	n/a	n/a	n/a	n/a
3837.112	n/a	FFR_REC_WORD	1918556	wordpools/wasnorm_wordpool_less_exclusions.txt	LTP286	ltpFR	0	n/a	-1	TOENAIL	1474	n/a	-1	n/a	n/a	n/a	n/a	n/a
3838.224	n/a	FFR_REC_WORD	1919112	wordpools/wasnorm_wordpool_less_exclusions.txt	LTP286	ltpFR	0	n/a	-1	APARTMENT	30	n/a	-1	n/a	n/a	n/a	n/a	n/a
3839.73	n/a	FFR_REC_WORD	1919865	wordpools/wasnorm_wordpool_less_exclusions.txt	LTP286	ltpFR	0	n/a	-1	TACK	1428	n/a	-1	n/a	n/a	n/a	n/a	n/a
3843.382	n/a	FFR_REC_WORD	1921691	wordpools/wasnorm_wordpool_less_exclusions.txt	LTP286	ltpFR	0	n/a	0	ANTELOPE	27	n/a	1	n/a	n/a	n/a	n/a	n/a
3844.674	n/a	FFR_REC_WORD	1922337	wordpools/wasnorm_wordpool_less_exclusions.txt	LTP286	ltpFR	0	n/a	0	RAM	1165	n/a	1	n/a	n/a	n/a	n/a	n/a
3847.184	n/a	FFR_REC_WORD	1923592	wordpools/wasnorm_wordpool_less_exclusions.txt	LTP286	ltpFR	0	n/a	0	ORANGE	980	n/a	0	n/a	n/a	n/a	n/a	n/a
3848.232	n/a	FFR_REC_WORD	1924116	wordpools/wasnorm_wordpool_less_exclusions.txt	LTP286	ltpFR	0	n/a	1	KIWI	781	n/a	1	n/a	n/a	n/a	n/a	n/a
3849.368	n/a	FFR_REC_WORD	1924684	wordpools/wasnorm_wordpool_less_exclusions.txt	LTP286	ltpFR	0	n/a	0	STRAW	1390	n/a	0	n/a	n/a	n/a	n/a	n/a
3850.896	n/a	FFR_REC_WORD	1925448	wordpools/wasnorm_wordpool_less_exclusions.txt	LTP286	ltpFR	0	n/a	-1	VEGETABLE	1552	n/a	-1	n/a	n/a	n/a	n/a	n/a
3857.44	n/a	FFR_REC_WORD	1928720	wordpools/wasnorm_wordpool_less_exclusions.txt	LTP286	ltpFR	0	n/a	1	LIZARD	834	n/a	1	n/a	n/a	n/a	n/a	n/a
3861.906	n/a	FFR_REC_WORD	1930953	wordpools/wasnorm_wordpool_less_exclusions.txt	LTP286	ltpFR	0	n/a	-1	VEHICLE	1553	n/a	-1	n/a	n/a	n/a	n/a	n/a
3863.228	n/a	FFR_REC_WORD	1931614	wordpools/wasnorm_wordpool_less_exclusions.txt	LTP286	ltpFR	0	n/a	-1	RUST	1219	n/a	-1	n/a	n/a	n/a	n/a	n/a
3865.018	n/a	FFR_REC_WORD	1932509	wordpools/wasnorm_wordpool_less_exclusions.txt	LTP286	ltpFR	0	n/a	-1	GARAGE	621	n/a	-1	n/a	n/a	n/a	n/a	n/a
3866.072	n/a	FFR_REC_WORD	1933036	wordpools/wasnorm_wordpool_less_exclusions.txt	LTP286	ltpFR	0	n/a	-1	CHAUFFEUR	283	n/a	-1	n/a	n/a	n/a	n/a	n/a
3868.052	n/a	FFR_REC_WORD	1934026	wordpools/wasnorm_wordpool_less_exclusions.txt	LTP286	ltpFR	0	n/a	1	ELECTRICIAN	521	n/a	1	n/a	n/a	n/a	n/a	n/a
3870.9	n/a	FFR_REC_WORD	1935450	wordpools/wasnorm_wordpool_less_exclusions.txt	LTP286	ltpFR	0	n/a	1	CUSTOMER	430	n/a	1	n/a	n/a	n/a	n/a	n/a
3872.102	n/a	FFR_REC_WORD	1936051	wordpools/wasnorm_wordpool_less_exclusions.txt	LTP286	ltpFR	0	n/a	1	PROFESSIONAL	1130	n/a	1	n/a	n/a	n/a	n/a	n/a
3873.668	n/a	FFR_REC_WORD	1936834	wordpools/wasnorm_wordpool_less_exclusions.txt	LTP286	ltpFR	0	n/a	1	AUTHOR	61	n/a	1	n/a	n/a	n/a	n/a	n/a
3874.956	n/a	FFR_REC_WORD	1937478	wordpools/wasnorm_wordpool_less_exclusions.txt	LTP286	ltpFR	0	n/a	1	WRITER	1627	n/a	1	n/a	n/a	n/a	n/a	n/a
3885.048	n/a	FFR_REC_WORD	1942524	wordpools/wasnorm_wordpool_less_exclusions.txt	LTP286	ltpFR	0	n/a	1	DOG	480	n/a	1	n/a	n/a	n/a	n/a	n/a
3886.414	n/a	FFR_REC_WORD	1943207	wordpools/wasnorm_wordpool_less_exclusions.txt	LTP286	ltpFR	0	n/a	1	TRIGGER	1507	n/a	0	n/a	n/a	n/a	n/a	n/a
3895.634	n/a	FFR_REC_WORD	1947817	wordpools/wasnorm_wordpool_less_exclusions.txt	LTP286	ltpFR	0	n/a	1	RADISH	1158	n/a	1	n/a	n/a	n/a	n/a	n/a
3897.854	n/a	FFR_REC_WORD	1948927	wordpools/wasnorm_wordpool_less_exclusions.txt	LTP286	ltpFR	0	n/a	0	CAFETERIA	217	n/a	1	n/a	n/a	n/a	n/a	n/a
3898.854	n/a	FFR_REC_WORD_VV	1949427	wordpools/wasnorm_wordpool_less_exclusions.txt	LTP286	ltpFR	0	n/a	n/a	<>	-1	n/a	n/a	n/a	n/a	n/a	n/a	n/a
3899.27	n/a	FFR_REC_WORD	1949635	wordpools/wasnorm_wordpool_less_exclusions.txt	LTP286	ltpFR	0	n/a	1	ATTIC	56	n/a	0	n/a	n/a	n/a	n/a	n/a
3900.344	n/a	FFR_REC_WORD	1950172	wordpools/wasnorm_wordpool_less_exclusions.txt	LTP286	ltpFR	0	n/a	1	ROOM	1206	n/a	0	n/a	n/a	n/a	n/a	n/a
3901.57	n/a	FFR_REC_WORD	1950785	wordpools/wasnorm_wordpool_less_exclusions.txt	LTP286	ltpFR	0	n/a	1	PADDLE	1000	n/a	0	n/a	n/a	n/a	n/a	n/a
3902.908	n/a	FFR_REC_WORD	1951454	wordpools/wasnorm_wordpool_less_exclusions.txt	LTP286	ltpFR	0	n/a	1	VIKING	1565	n/a	1	n/a	n/a	n/a	n/a	n/a
3910.89	n/a	FFR_REC_WORD	1955445	wordpools/wasnorm_wordpool_less_exclusions.txt	LTP286	ltpFR	0	n/a	1	LUNCH	849	n/a	0	n/a	n/a	n/a	n/a	n/a
3914.178	n/a	FFR_REC_WORD	1957089	wordpools/wasnorm_wordpool_less_exclusions.txt	LTP286	ltpFR	0	n/a	1	PIZZA	1079	n/a	0	n/a	n/a	n/a	n/a	n/a
3915.19	n/a	FFR_REC_WORD	1957595	wordpools/wasnorm_wordpool_less_exclusions.txt	LTP286	ltpFR	0	n/a	1	CARROT	249	n/a	1	n/a	n/a	n/a	n/a	n/a
3932.192	n/a	FFR_REC_WORD	1966096	wordpools/wasnorm_wordpool_less_exclusions.txt	LTP286	ltpFR	0	n/a	0	MARROW	872	n/a	0	n/a	n/a	n/a	n/a	n/a
3934.306	n/a	FFR_REC_WORD	1967153	wordpools/wasnorm_wordpool_less_exclusions.txt	LTP286	ltpFR	0	n/a	1	HEART	697	n/a	1	n/a	n/a	n/a	n/a	n/a
3935.474	n/a	FFR_REC_WORD	1967737	wordpools/wasnorm_wordpool_less_exclusions.txt	LTP286	ltpFR	0	n/a	0	ABDOMEN	1	n/a	1	n/a	n/a	n/a	n/a	n/a
3936.572	n/a	FFR_REC_WORD	1968286	wordpools/wasnorm_wordpool_less_exclusions.txt	LTP286	ltpFR	0	n/a	0	INTESTINE	742	n/a	1	n/a	n/a	n/a	n/a	n/a
3937.572	n/a	FFR_REC_WORD_VV	1968786	wordpools/wasnorm_wordpool_less_exclusions.txt	LTP286	ltpFR	0	n/a	n/a	<>	-1	n/a	n/a	n/a	n/a	n/a	n/a	n/a
3941.296	n/a	FFR_REC_WORD	1970648	wordpools/wasnorm_wordpool_less_exclusions.txt	LTP286	ltpFR	0	n/a	0	THIGH	1457	n/a	1	n/a	n/a	n/a	n/a	n/a
3944.788	n/a	FFR_REC_WORD	1972394	wordpools/wasnorm_wordpool_less_exclusions.txt	LTP286	ltpFR	0	n/a	0	APPENDAGE	32	n/a	1	n/a	n/a	n/a	n/a	n/a
3945.788	n/a	FFR_REC_WORD_VV	1972894	wordpools/wasnorm_wordpool_less_exclusions.txt	LTP286	ltpFR	0	n/a	n/a	<>	-1	n/a	n/a	n/a	n/a	n/a	n/a	n/a
3947.496	n/a	FFR_REC_WORD	1973748	wordpools/wasnorm_wordpool_less_exclusions.txt	LTP286	ltpFR	0	n/a	0	MOSQUITO	917	n/a	1	n/a	n/a	n/a	n/a	n/a
3948.496	n/a	FFR_REC_WORD_VV	1974248	wordpools/wasnorm_wordpool_less_exclusions.txt	LTP286	ltpFR	0	n/a	n/a	<>	-1	n/a	n/a	n/a	n/a	n/a	n/a	n/a
3951.738	n/a	FFR_REC_WORD	1975869	wordpools/wasnorm_wordpool_less_exclusions.txt	LTP286	ltpFR	0	n/a	0	MOTH	920	n/a	0	n/a	n/a	n/a	n/a	n/a
3955.04	n/a	FFR_REC_WORD	1977520	wordpools/wasnorm_wordpool_less_exclusions.txt	LTP286	ltpFR	0	n/a	0	QUAIL	1147	n/a	0	n/a	n/a	n/a	n/a	n/a
3960.866	n/a	FFR_REC_WORD	1980433	wordpools/wasnorm_wordpool_less_exclusions.txt	LTP286	ltpFR	0	n/a	0	TOOL	1480	n/a	0	n/a	n/a	n/a	n/a	n/a
3964.558	n/a	FFR_REC_WORD	1982279	wordpools/wasnorm_wordpool_less_exclusions.txt	LTP286	ltpFR	0	n/a	1	PAPER	1011	n/a	0	n/a	n/a	n/a	n/a	n/a
3968.61	n/a	FFR_REC_WORD	1984305	wordpools/wasnorm_wordpool_less_exclusions.txt	LTP286	ltpFR	0	n/a	0	HANGER	687	n/a	0	n/a	n/a	n/a	n/a	n/a
3969.508	n/a	FFR_REC_WORD	1984754	wordpools/wasnorm_wordpool_less_exclusions.txt	LTP286	ltpFR	0	n/a	0	OUTFIT	988	n/a	0	n/a	n/a	n/a	n/a	n/a
3970.628	n/a	FFR_REC_WORD	1985314	wordpools/wasnorm_wordpool_less_exclusions.txt	LTP286	ltpFR	0	n/a	0	CLOTHES	327	n/a	1	n/a	n/a	n/a	n/a	n/a
3974.49	n/a	FFR_REC_WORD	1987245	wordpools/wasnorm_wordpool_less_exclusions.txt	LTP286	ltpFR	0	n/a	-1	SLACKS	1323	n/a	-1	n/a	n/a	n/a	n/a	n/a
3975.692	n/a	FFR_REC_WORD	1987846	wordpools/wasnorm_wordpool_less_exclusions.txt	LTP286	ltpFR	0	n/a	-1	TROUSERS	1510	n/a	-1	n/a	n/a	n/a	n/a	n/a
3976.692	n/a	FFR_REC_WORD_VV	1988346	wordpools/wasnorm_wordpool_less_exclusions.txt	LTP286	ltpFR	0	n/a	n/a	<>	-1	n/a	n/a	n/a	n/a	n/a	n/a	n/a
3989.558	n/a	FFR_REC_WORD	1994779	wordpools/wasnorm_wordpool_less_exclusions.txt	LTP286	ltpFR	0	n/a	1	PARENT	1013	n/a	1	n/a	n/a	n/a	n/a	n/a
3990.556	n/a	FFR_REC_WORD	1995278	wordpools/wasnorm_wordpool_less_exclusions.txt	LTP286	ltpFR	0	n/a	1	FRIEND	606	n/a	1	n/a	n/a	n/a	n/a	n/a
3991.812	n/a	FFR_REC_WORD	1995906	wordpools/wasnorm_wordpool_less_exclusions.txt	LTP286	ltpFR	0	n/a	0	STRANGER	1389	n/a	1	n/a	n/a	n/a	n/a	n/a
4002.642	n/a	FFR_REC_WORD	2001321	wordpools/wasnorm_wordpool_less_exclusions.txt	LTP286	ltpFR	0	n/a	1	LIEUTENANT	818	n/a	1	n/a	n/a	n/a	n/a	n/a
4023.596	n/a	FFR_REC_WORD	2011798	wordpools/wasnorm_wordpool_less_exclusions.txt	LTP286	ltpFR	0	n/a	1	RABBIT	1152	n/a	1	n/a	n/a	n/a	n/a	n/a
4024.568	n/a	FFR_REC_WORD	2012284	wordpools/wasnorm_wordpool_less_exclusions.txt	LTP286	ltpFR	0	n/a	1	HARE	688	n/a	1	n/a	n/a	n/a	n/a	n/a
4027.996	n/a	FFR_REC_WORD	2013998	wordpools/wasnorm_wordpool_less_exclusions.txt	LTP286	ltpFR	0	n/a	0	BRUNETTE	181	n/a	1	n/a	n/a	n/a	n/a	n/a
4049.002	n/a	FFR_REC_WORD	2024501	wordpools/wasnorm_wordpool_less_exclusions.txt	LTP286	ltpFR	0	n/a	1	ROCK	1201	n/a	0	n/a	n/a	n/a	n/a	n/a
4049.96	n/a	FFR_REC_WORD_VV	2024980	wordpools/wasnorm_wordpool_less_exclusions.txt	LTP286	ltpFR	0	n/a	n/a	<>	-1	n/a	n/a	n/a	n/a	n/a	n/a	n/a
4051.392	n/a	FFR_REC_WORD	2025696	wordpools/wasnorm_wordpool_less_exclusions.txt	LTP286	ltpFR	0	n/a	1	CONCRETE	361	n/a	0	n/a	n/a	n/a	n/a	n/a
4061.066	n/a	FFR_REC_WORD	2030533	wordpools/wasnorm_wordpool_less_exclusions.txt	LTP286	ltpFR	0	n/a	0	BLOSSOM	138	n/a	0	n/a	n/a	n/a	n/a	n/a
4062.004	n/a	FFR_REC_WORD	2031002	wordpools/wasnorm_wordpool_less_exclusions.txt	LTP286	ltpFR	0	n/a	0	STEM	1376	n/a	0	n/a	n/a	n/a	n/a	n/a
4105.03	n/a	FFR_REC_WORD	2052515	wordpools/wasnorm_wordpool_less_exclusions.txt	LTP286	ltpFR	0	n/a	-1	FUDGE	611	n/a	-1	n/a	n/a	n/a	n/a	n/a
4962.372	n/a	REC_START	2481186	n/a	LTP286	ltpFR	0	1	n/a	n/a	n/a	n/a	n/a	n/a	n/a	n/a	n/a	n/a
4962.404	n/a	RECOG_LURE	2481202	n/a	LTP286	ltpFR	0	1	n/a	KANGAROO	768	5	n/a	n/a	n/a	n/a	n/a	n/a
4967.938	n/a	RECOG_RESP	2483969	n/a	LTP286	ltpFR	0	1	n/a	KANGAROO	768	n/a	n/a	n/a	n/a	n/a	n/a	n/a
4971.232	n/a	RECOG_CONF	2485616	n/a	LTP286	ltpFR	0	1	n/a	KANGAROO	768	5	n/a	n/a	n/a	n/a	n/a	n/a
4974.818	n/a	RECOG_LURE	2487409	n/a	LTP286	ltpFR	0	1	n/a	WART	1590	5	n/a	n/a	n/a	n/a	n/a	n/a
4976.942	n/a	RECOG_RESP	2488471	n/a	LTP286	ltpFR	0	1	n/a	WART	1590	n/a	n/a	n/a	n/a	n/a	n/a	n/a
4979.362	n/a	RECOG_CONF	2489681	n/a	LTP286	ltpFR	0	1	n/a	WART	1590	5	n/a	n/a	n/a	n/a	n/a	n/a
4981.958	n/a	RECOG_LURE	2490979	n/a	LTP286	ltpFR	0	1	n/a	DRIVER	499	3	n/a	n/a	n/a	n/a	n/a	n/a
4984.358	n/a	RECOG_RESP	2492179	n/a	LTP286	ltpFR	0	1	n/a	DRIVER	499	n/a	n/a	n/a	n/a	n/a	n/a	n/a
4987.652	n/a	RECOG_CONF	2493826	n/a	LTP286	ltpFR	0	1	n/a	DRIVER	499	3	n/a	n/a	n/a	n/a	n/a	n/a
4989.996	n/a	RECOG_TARGET	2494998	n/a	LTP286	ltpFR	0	1	0	SINK	1309	4	1	n/a	n/a	n/a	n/a	n/a
4991.792	n/a	RECOG_RESP	2495896	n/a	LTP286	ltpFR	0	1	0	SINK	1309	n/a	1	n/a	n/a	n/a	n/a	n/a
4995.652	n/a	RECOG_CONF	2497826	n/a	LTP286	ltpFR	0	1	0	SINK	1309	4	1	n/a	n/a	n/a	n/a	n/a
4998.634	n/a	RECOG_TARGET	2499317	n/a	LTP286	ltpFR	0	1	1	PARENT	1013	5	1	n/a	n/a	n/a	n/a	n/a
4999.732	n/a	RECOG_RESP	2499866	n/a	LTP286	ltpFR	0	1	1	PARENT	1013	n/a	1	n/a	n/a	n/a	n/a	n/a
5001.682	n/a	RECOG_CONF	2500841	n/a	LTP286	ltpFR	0	1	1	PARENT	1013	5	1	n/a	n/a	n/a	n/a	n/a
5003.96	n/a	RECOG_TARGET	2501980	n/a	LTP286	ltpFR	0	1	1	COTTON	385	5	1	n/a	n/a	n/a	n/a	n/a
5005.004	n/a	RECOG_RESP	2502502	n/a	LTP286	ltpFR	0	1	1	COTTON	385	n/a	1	n/a	n/a	n/a	n/a	n/a
5007.064	n/a	RECOG_CONF	2503532	n/a	LTP286	ltpFR	0	1	1	COTTON	385	5	1	n/a	n/a	n/a	n/a	n/a
5009.152	n/a	RECOG_TARGET	2504576	n/a	LTP286	ltpFR	0	1	0	SPATULA	1348	4	0	n/a	n/a	n/a	n/a	n/a
5010.054	n/a	RECOG_RESP	2505027	n/a	LTP286	ltpFR	0	1	0	SPATULA	1348	n/a	0	n/a	n/a	n/a	n/a	n/a
5011.814	n/a	RECOG_CONF	2505907	n/a	LTP286	ltpFR	0	1	0	SPATULA	1348	4	0	n/a	n/a	n/a	n/a	n/a
5014.162	n/a	RECOG_TARGET	2507081	n/a	LTP286	ltpFR	0	1	1	VIKING	1565	5	1	n/a	n/a	n/a	n/a	n/a
5014.948	n/a	RECOG_RESP	2507474	n/a	LTP286	ltpFR	0	1	1	VIKING	1565	n/a	1	n/a	n/a	n/a	n/a	n/a
5016.634	n/a	RECOG_CONF	2508317	n/a	LTP286	ltpFR	0	1	1	VIKING	1565	5	1	n/a	n/a	n/a	n/a	n/a
5019.222	n/a	RECOG_TARGET	2509611	n/a	LTP286	ltpFR	0	1	-1	TRIANGLE	1504	3	-1	n/a	n/a	n/a	n/a	n/a
5020.814	n/a	RECOG_RESP	2510407	n/a	LTP286	ltpFR	0	1	-1	TRIANGLE	1504	n/a	-1	n/a	n/a	n/a	n/a	n/a
5023.084	n/a	RECOG_CONF	2511542	n/a	LTP286	ltpFR	0	1	-1	TRIANGLE	1504	3	-1	n/a	n/a	n/a	n/a	n/a
5025.462	n/a	RECOG_LURE	2512731	n/a	LTP286	ltpFR	0	1	n/a	RESORT	1186	3	n/a	n/a	n/a	n/a	n/a	n/a
5027.644	n/a	RECOG_RESP	2513822	n/a	LTP286	ltpFR	0	1	n/a	RESORT	1186	n/a	n/a	n/a	n/a	n/a	n/a	n/a
5030.714	n/a	RECOG_CONF	2515357	n/a	LTP286	ltpFR	0	1	n/a	RESORT	1186	3	n/a	n/a	n/a	n/a	n/a	n/a
5032.766	n/a	RECOG_TARGET	2516383	n/a	LTP286	ltpFR	0	1	1	TWINE	1529	2	0	n/a	n/a	n/a	n/a	n/a
5034.554	n/a	RECOG_RESP	2517277	n/a	LTP286	ltpFR	0	1	1	TWINE	1529	n/a	0	n/a	n/a	n/a	n/a	n/a
5037.114	n/a	RECOG_CONF	2518557	n/a	LTP286	ltpFR	0	1	1	TWINE	1529	2	0	n/a	n/a	n/a	n/a	n/a
5039.242	n/a	RECOG_LURE	2519621	n/a	LTP286	ltpFR	0	1	n/a	ARTIST	43	2	n/a	n/a	n/a	n/a	n/a	n/a
5041.028	n/a	RECOG_RESP	2520514	n/a	LTP286	ltpFR	0	1	n/a	ARTIST	43	n/a	n/a	n/a	n/a	n/a	n/a	n/a
5042.904	n/a	RECOG_CONF	2521452	n/a	LTP286	ltpFR	0	1	n/a	ARTIST	43	2	n/a	n/a	n/a	n/a	n/a	n/a
5045.066	n/a	RECOG_TARGET	2522533	n/a	LTP286	ltpFR	0	1	0	HUT	729	4	1	n/a	n/a	n/a	n/a	n/a
5046.494	n/a	RECOG_RESP	2523247	n/a	LTP286	ltpFR	0	1	0	HUT	729	n/a	1	n/a	n/a	n/a	n/a	n/a
5048.484	n/a	RECOG_CONF	2524242	n/a	LTP286	ltpFR	0	1	0	HUT	729	4	1	n/a	n/a	n/a	n/a	n/a
5050.558	n/a	RECOG_TARGET	2525279	n/a	LTP286	ltpFR	0	1	-1	VEHICLE	1553	5	-1	n/a	n/a	n/a	n/a	n/a
5051.484	n/a	RECOG_RESP	2525742	n/a	LTP286	ltpFR	0	1	-1	VEHICLE	1553	n/a	-1	n/a	n/a	n/a	n/a	n/a
5053.014	n/a	RECOG_CONF	2526507	n/a	LTP286	ltpFR	0	1	-1	VEHICLE	1553	5	-1	n/a	n/a	n/a	n/a	n/a
5055.6	n/a	RECOG_LURE	2527800	n/a	LTP286	ltpFR	0	1	n/a	ZEBRA	1635	3	n/a	n/a	n/a	n/a	n/a	n/a
5058.224	n/a	RECOG_RESP	2529112	n/a	LTP286	ltpFR	0	1	n/a	ZEBRA	1635	n/a	n/a	n/a	n/a	n/a	n/a	n/a
5060.604	n/a	RECOG_CONF	2530302	n/a	LTP286	ltpFR	0	1	n/a	ZEBRA	1635	3	n/a	n/a	n/a	n/a	n/a	n/a
5062.972	n/a	RECOG_TARGET	2531486	n/a	LTP286	ltpFR	0	1	-1	BERRY	122	4	-1	n/a	n/a	n/a	n/a	n/a
5064.148	n/a	RECOG_RESP	2532074	n/a	LTP286	ltpFR	0	1	-1	BERRY	122	n/a	-1	n/a	n/a	n/a	n/a	n/a
5067.274	n/a	RECOG_CONF	2533637	n/a	LTP286	ltpFR	0	1	-1	BERRY	122	4	-1	n/a	n/a	n/a	n/a	n/a
5069.362	n/a	RECOG_LURE	2534681	n/a	LTP286	ltpFR	0	1	n/a	OPERATOR	979	2	n/a	n/a	n/a	n/a	n/a	n/a
5071.414	n/a	RECOG_RESP	2535707	n/a	LTP286	ltpFR	0	1	n/a	OPERATOR	979	n/a	n/a	n/a	n/a	n/a	n/a	n/a
5073.094	n/a	RECOG_CONF	2536547	n/a	LTP286	ltpFR	0	1	n/a	OPERATOR	979	2	n/a	n/a	n/a	n/a	n/a	n/a
5075.072	n/a	RECOG_LURE	2537536	n/a	LTP286	ltpFR	0	1	n/a	SHEET	1279	2	n/a	n/a	n/a	n/a	n/a	n/a
5077.204	n/a	RECOG_RESP	2538602	n/a	LTP286	ltpFR	0	1	n/a	SHEET	1279	n/a	n/a	n/a	n/a	n/a	n/a	n/a
5078.764	n/a	RECOG_CONF	2539382	n/a	LTP286	ltpFR	0	1	n/a	SHEET	1279	2	n/a	n/a	n/a	n/a	n/a	n/a
5080.896	n/a	RECOG_TARGET	2540448	n/a	LTP286	ltpFR	0	1	0	ALMOND	18	4	0	n/a	n/a	n/a	n/a	n/a
5081.784	n/a	RECOG_RESP	2540892	n/a	LTP286	ltpFR	0	1	0	ALMOND	18	n/a	0	n/a	n/a	n/a	n/a	n/a
5083.434	n/a	RECOG_CONF	2541717	n/a	LTP286	ltpFR	0	1	0	ALMOND	18	4	0	n/a	n/a	n/a	n/a	n/a
5085.822	n/a	RECOG_LURE	2542911	n/a	LTP286	ltpFR	0	1	n/a	ISLAND	745	3	n/a	n/a	n/a	n/a	n/a	n/a
5087.744	n/a	RECOG_RESP	2543872	n/a	LTP286	ltpFR	0	1	n/a	ISLAND	745	n/a	n/a	n/a	n/a	n/a	n/a	n/a
5089.534	n/a	RECOG_CONF	2544767	n/a	LTP286	ltpFR	0	1	n/a	ISLAND	745	3	n/a	n/a	n/a	n/a	n/a	n/a
5149.586	n/a	REC_START	2574793	n/a	LTP286	ltpFR	0	2	n/a	n/a	n/a	n/a	n/a	n/a	n/a	n/a	n/a	n/a
5149.628	n/a	RECOG_LURE	2574814	n/a	LTP286	ltpFR	0	2	n/a	CARPET	247	3	n/a	n/a	n/a	n/a	n/a	n/a
5151.196	n/a	RECOG_RESP	2575598	n/a	LTP286	ltpFR	0	2	n/a	CARPET	247	n/a	n/a	n/a	n/a	n/a	n/a	n/a
5152.966	n/a	RECOG_CONF	2576483	n/a	LTP286	ltpFR	0	2	n/a	CARPET	247	3	n/a	n/a	n/a	n/a	n/a	n/a
5155.186	n/a	RECOG_LURE	2577593	n/a	LTP286	ltpFR	0	2	n/a	TOAST	1471	3	n/a	n/a	n/a	n/a	n/a	n/a
5156.766	n/a	RECOG_RESP	2578383	n/a	LTP286	ltpFR	0	2	n/a	TOAST	1471	n/a	n/a	n/a	n/a	n/a	n/a	n/a
5158.626	n/a	RECOG_CONF	2579313	n/a	LTP286	ltpFR	0	2	n/a	TOAST	1471	3	n/a	n/a	n/a	n/a	n/a	n/a
5160.844	n/a	RECOG_LURE	2580422	n/a	LTP286	ltpFR	0	2	n/a	FRAGRANCE	599	3	n/a	n/a	n/a	n/a	n/a	n/a
5162.668	n/a	RECOG_RESP	2581334	n/a	LTP286	ltpFR	0	2	n/a	FRAGRANCE	599	n/a	n/a	n/a	n/a	n/a	n/a	n/a
5164.708	n/a	RECOG_CONF	2582354	n/a	LTP286	ltpFR	0	2	n/a	FRAGRANCE	599	3	n/a	n/a	n/a	n/a	n/a	n/a
5166.72	n/a	RECOG_TARGET	2583360	n/a	LTP286	ltpFR	0	2	0	BADGE	68	4	0	n/a	n/a	n/a	n/a	n/a
5167.788	n/a	RECOG_RESP	2583894	n/a	LTP286	ltpFR	0	2	0	BADGE	68	n/a	0	n/a	n/a	n/a	n/a	n/a
5169.168	n/a	RECOG_CONF	2584584	n/a	LTP286	ltpFR	0	2	0	BADGE	68	4	0	n/a	n/a	n/a	n/a	n/a
5171.446	n/a	RECOG_TARGET	2585723	n/a	LTP286	ltpFR	0	2	0	ROOSTER	1209	4	1	n/a	n/a	n/a	n/a	n/a
5172.232	n/a	RECOG_RESP	2586116	n/a	LTP286	ltpFR	0	2	0	ROOSTER	1209	n/a	1	n/a	n/a	n/a	n/a	n/a
5173.598	n/a	RECOG_CONF	2586799	n/a	LTP286	ltpFR	0	2	0	ROOSTER	1209	4	1	n/a	n/a	n/a	n/a	n/a
5175.804	n/a	RECOG_TARGET	2587902	n/a	LTP286	ltpFR	0	2	0	JOURNAL	760	4	0	n/a	n/a	n/a	n/a	n/a
5176.708	n/a	RECOG_RESP	2588354	n/a	LTP286	ltpFR	0	2	0	JOURNAL	760	n/a	0	n/a	n/a	n/a	n/a	n/a
5178.128	n/a	RECOG_CONF	2589064	n/a	LTP286	ltpFR	0	2	0	JOURNAL	760	4	0	n/a	n/a	n/a	n/a	n/a
5180.116	n/a	RECOG_TARGET	2590058	n/a	LTP286	ltpFR	0	2	-1	TACK	1428	5	-1	n/a	n/a	n/a	n/a	n/a
5180.888	n/a	RECOG_RESP	2590444	n/a	LTP286	ltpFR	0	2	-1	TACK	1428	n/a	-1	n/a	n/a	n/a	n/a	n/a
5182.428	n/a	RECOG_CONF	2591214	n/a	LTP286	ltpFR	0	2	-1	TACK	1428	5	-1	n/a	n/a	n/a	n/a	n/a
5184.66	n/a	RECOG_TARGET	2592330	n/a	LTP286	ltpFR	0	2	1	ROOMMATE	1207	5	1	n/a	n/a	n/a	n/a	n/a
5185.338	n/a	RECOG_RESP	2592669	n/a	LTP286	ltpFR	0	2	1	ROOMMATE	1207	n/a	1	n/a	n/a	n/a	n/a	n/a
5186.898	n/a	RECOG_CONF	2593449	n/a	LTP286	ltpFR	0	2	1	ROOMMATE	1207	5	1	n/a	n/a	n/a	n/a	n/a
5188.986	n/a	RECOG_TARGET	2594493	n/a	LTP286	ltpFR	0	2	0	SPIT	1354	5	0	n/a	n/a	n/a	n/a	n/a
5189.742	n/a	RECOG_RESP	2594871	n/a	LTP286	ltpFR	0	2	0	SPIT	1354	n/a	0	n/a	n/a	n/a	n/a	n/a
5191.328	n/a	RECOG_CONF	2595664	n/a	LTP286	ltpFR	0	2	0	SPIT	1354	5	0	n/a	n/a	n/a	n/a	n/a
5193.546	n/a	RECOG_LURE	2596773	n/a	LTP286	ltpFR	0	2	n/a	RANCH	1166	2	n/a	n/a	n/a	n/a	n/a	n/a
5194.968	n/a	RECOG_RESP	2597484	n/a	LTP286	ltpFR	0	2	n/a	RANCH	1166	n/a	n/a	n/a	n/a	n/a	n/a	n/a
5197.098	n/a	RECOG_CONF	2598549	n/a	LTP286	ltpFR	0	2	n/a	RANCH	1166	2	n/a	n/a	n/a	n/a	n/a	n/a
5199.072	n/a	RECOG_TARGET	2599536	n/a	LTP286	ltpFR	0	2	1	PORCUPINE	1107	2	1	n/a	n/a	n/a	n/a	n/a
5200.642	n/a	RECOG_RESP	2600321	n/a	LTP286	ltpFR	0	2	1	PORCUPINE	1107	n/a	1	n/a	n/a	n/a	n/a	n/a
5202.618	n/a	RECOG_CONF	2601309	n/a	LTP286	ltpFR	0	2	1	PORCUPINE	1107	2	1	n/a	n/a	n/a	n/a	n/a
5204.514	n/a	RECOG_TARGET	2602257	n/a	LTP286	ltpFR	0	2	1	SWITCH	1422	4	0	n/a	n/a	n/a	n/a	n/a
5205.892	n/a	RECOG_RESP	2602946	n/a	LTP286	ltpFR	0	2	1	SWITCH	1422	n/a	0	n/a	n/a	n/a	n/a	n/a
5207.468	n/a	RECOG_CONF	2603734	n/a	LTP286	ltpFR	0	2	1	SWITCH	1422	4	0	n/a	n/a	n/a	n/a	n/a
5209.672	n/a	RECOG_TARGET	2604836	n/a	LTP286	ltpFR	0	2	-1	BUFFALO	186	4	-1	n/a	n/a	n/a	n/a	n/a
5210.358	n/a	RECOG_RESP	2605179	n/a	LTP286	ltpFR	0	2	-1	BUFFALO	186	n/a	-1	n/a	n/a	n/a	n/a	n/a
5212.008	n/a	RECOG_CONF	2606004	n/a	LTP286	ltpFR	0	2	-1	BUFFALO	186	4	-1	n/a	n/a	n/a	n/a	n/a
5214.032	n/a	RECOG_LURE	2607016	n/a	LTP286	ltpFR	0	2	n/a	TANGERINE	1431	2	n/a	n/a	n/a	n/a	n/a	n/a
5216.122	n/a	RECOG_RESP	2608061	n/a	LTP286	ltpFR	0	2	n/a	TANGERINE	1431	n/a	n/a	n/a	n/a	n/a	n/a	n/a
5218.168	n/a	RECOG_CONF	2609084	n/a	LTP286	ltpFR	0	2	n/a	TANGERINE	1431	2	n/a	n/a	n/a	n/a	n/a	n/a
5220.39	n/a	RECOG_TARGET	2610195	n/a	LTP286	ltpFR	0	2	-1	TRENCH	1503	4	-1	n/a	n/a	n/a	n/a	n/a
5221.248	n/a	RECOG_RESP	2610624	n/a	LTP286	ltpFR	0	2	-1	TRENCH	1503	n/a	-1	n/a	n/a	n/a	n/a	n/a
5222.668	n/a	RECOG_CONF	2611334	n/a	LTP286	ltpFR	0	2	-1	TRENCH	1503	4	-1	n/a	n/a	n/a	n/a	n/a
5224.964	n/a	RECOG_TARGET	2612482	n/a	LTP286	ltpFR	0	2	0	CANAL	226	4	1	n/a	n/a	n/a	n/a	n/a
5225.938	n/a	RECOG_RESP	2612969	n/a	LTP286	ltpFR	0	2	0	CANAL	226	n/a	1	n/a	n/a	n/a	n/a	n/a
5227.288	n/a	RECOG_CONF	2613644	n/a	LTP286	ltpFR	0	2	0	CANAL	226	4	1	n/a	n/a	n/a	n/a	n/a
5229.476	n/a	RECOG_TARGET	2614738	n/a	LTP286	ltpFR	0	2	1	TEACHER	1440	4	1	n/a	n/a	n/a	n/a	n/a
5230.538	n/a	RECOG_RESP	2615269	n/a	LTP286	ltpFR	0	2	1	TEACHER	1440	n/a	1	n/a	n/a	n/a	n/a	n/a
5231.988	n/a	RECOG_CONF	2615994	n/a	LTP286	ltpFR	0	2	1	TEACHER	1440	4	1	n/a	n/a	n/a	n/a	n/a
5234.136	n/a	RECOG_TARGET	2617068	n/a	LTP286	ltpFR	0	2	1	POLYESTER	1100	3	0	n/a	n/a	n/a	n/a	n/a
5235.118	n/a	RECOG_RESP	2617559	n/a	LTP286	ltpFR	0	2	1	POLYESTER	1100	n/a	0	n/a	n/a	n/a	n/a	n/a
5237.008	n/a	RECOG_CONF	2618504	n/a	LTP286	ltpFR	0	2	1	POLYESTER	1100	3	0	n/a	n/a	n/a	n/a	n/a
5238.928	n/a	RECOG_LURE	2619464	n/a	LTP286	ltpFR	0	2	n/a	LONDON	843	3	n/a	n/a	n/a	n/a	n/a	n/a
5240.418	n/a	RECOG_RESP	2620209	n/a	LTP286	ltpFR	0	2	n/a	LONDON	843	n/a	n/a	n/a	n/a	n/a	n/a	n/a
5241.968	n/a	RECOG_CONF	2620984	n/a	LTP286	ltpFR	0	2	n/a	LONDON	843	3	n/a	n/a	n/a	n/a	n/a	n/a
5244.172	n/a	RECOG_LURE	2622086	n/a	LTP286	ltpFR	0	2	n/a	MUSHROOM	934	3	n/a	n/a	n/a	n/a	n/a	n/a
5245.208	n/a	RECOG_RESP	2622604	n/a	LTP286	ltpFR	0	2	n/a	MUSHROOM	934	n/a	n/a	n/a	n/a	n/a	n/a	n/a
5247.318	n/a	RECOG_CONF	2623659	n/a	LTP286	ltpFR	0	2	n/a	MUSHROOM	934	3	n/a	n/a	n/a	n/a	n/a	n/a
5325.31	n/a	REC_START	2662655	n/a	LTP286	ltpFR	0	3	n/a	n/a	n/a	n/a	n/a	n/a	n/a	n/a	n/a	n/a
5325.334	n/a	RECOG_TARGET	2662667	n/a	LTP286	ltpFR	0	3	0	STEM	1376	5	0	n/a	n/a	n/a	n/a	n/a
5326.28	n/a	RECOG_RESP	2663140	n/a	LTP286	ltpFR	0	3	0	STEM	1376	n/a	0	n/a	n/a	n/a	n/a	n/a
5327.94	n/a	RECOG_CONF	2663970	n/a	LTP286	ltpFR	0	3	0	STEM	1376	5	0	n/a	n/a	n/a	n/a	n/a
5330.078	n/a	RECOG_TARGET	2665039	n/a	LTP286	ltpFR	0	3	0	PRESIDENT	1121	5	1	n/a	n/a	n/a	n/a	n/a
5330.854	n/a	RECOG_RESP	2665427	n/a	LTP286	ltpFR	0	3	0	PRESIDENT	1121	n/a	1	n/a	n/a	n/a	n/a	n/a
5332.61	n/a	RECOG_CONF	2666305	n/a	LTP286	ltpFR	0	3	0	PRESIDENT	1121	5	1	n/a	n/a	n/a	n/a	n/a
5334.57	n/a	RECOG_LURE	2667285	n/a	LTP286	ltpFR	0	3	n/a	GALAXY	617	4	n/a	n/a	n/a	n/a	n/a	n/a
5335.77	n/a	RECOG_RESP	2667885	n/a	LTP286	ltpFR	0	3	n/a	GALAXY	617	n/a	n/a	n/a	n/a	n/a	n/a	n/a
5337.33	n/a	RECOG_CONF	2668665	n/a	LTP286	ltpFR	0	3	n/a	GALAXY	617	4	n/a	n/a	n/a	n/a	n/a	n/a
5339.496	n/a	RECOG_TARGET	2669748	n/a	LTP286	ltpFR	0	3	1	ELECTRICIAN	521	5	1	n/a	n/a	n/a	n/a	n/a
5340.25	n/a	RECOG_RESP	2670125	n/a	LTP286	ltpFR	0	3	1	ELECTRICIAN	521	n/a	1	n/a	n/a	n/a	n/a	n/a
5341.61	n/a	RECOG_CONF	2670805	n/a	LTP286	ltpFR	0	3	1	ELECTRICIAN	521	5	1	n/a	n/a	n/a	n/a	n/a
5343.59	n/a	RECOG_LURE	2671795	n/a	LTP286	ltpFR	0	3	n/a	JUNGLE	764	2	n/a	n/a	n/a	n/a	n/a	n/a
5345.084	n/a	RECOG_RESP	2672542	n/a	LTP286	ltpFR	0	3	n/a	JUNGLE	764	n/a	n/a	n/a	n/a	n/a	n/a	n/a
5346.59	n/a	RECOG_CONF	2673295	n/a	LTP286	ltpFR	0	3	n/a	JUNGLE	764	2	n/a	n/a	n/a	n/a	n/a	n/a
5348.684	n/a	RECOG_TARGET	2674342	n/a	LTP286	ltpFR	0	3	0	GOVERNOR	651	5	1	n/a	n/a	n/a	n/a	n/a
5349.494	n/a	RECOG_RESP	2674747	n/a	LTP286	ltpFR	0	3	0	GOVERNOR	651	n/a	1	n/a	n/a	n/a	n/a	n/a
5350.95	n/a	RECOG_CONF	2675475	n/a	LTP286	ltpFR	0	3	0	GOVERNOR	651	5	1	n/a	n/a	n/a	n/a	n/a
5353.026	n/a	RECOG_TARGET	2676513	n/a	LTP286	ltpFR	0	3	1	GAZELLE	628	4	1	n/a	n/a	n/a	n/a	n/a
5354.324	n/a	RECOG_RESP	2677162	n/a	LTP286	ltpFR	0	3	1	GAZELLE	628	n/a	1	n/a	n/a	n/a	n/a	n/a
5356.03	n/a	RECOG_CONF	2678015	n/a	LTP286	ltpFR	0	3	1	GAZELLE	628	4	1	n/a	n/a	n/a	n/a	n/a
5358.102	n/a	RECOG_TARGET	2679051	n/a	LTP286	ltpFR	0	3	1	COBBLER	335	5	1	n/a	n/a	n/a	n/a	n/a
5359.06	n/a	RECOG_RESP	2679530	n/a	LTP286	ltpFR	0	3	1	COBBLER	335	n/a	1	n/a	n/a	n/a	n/a	n/a
5360.4	n/a	RECOG_CONF	2680200	n/a	LTP286	ltpFR	0	3	1	COBBLER	335	5	1	n/a	n/a	n/a	n/a	n/a
5362.662	n/a	RECOG_TARGET	2681331	n/a	LTP286	ltpFR	0	3	1	WATER	1594	5	0	n/a	n/a	n/a	n/a	n/a
5363.504	n/a	RECOG_RESP	2681752	n/a	LTP286	ltpFR	0	3	1	WATER	1594	n/a	0	n/a	n/a	n/a	n/a	n/a
5364.76	n/a	RECOG_CONF	2682380	n/a	LTP286	ltpFR	0	3	1	WATER	1594	5	0	n/a	n/a	n/a	n/a	n/a
5367.09	n/a	RECOG_TARGET	2683545	n/a	LTP286	ltpFR	0	3	1	STREAM	1392	5	0	n/a	n/a	n/a	n/a	n/a
5367.814	n/a	RECOG_RESP	2683907	n/a	LTP286	ltpFR	0	3	1	STREAM	1392	n/a	0	n/a	n/a	n/a	n/a	n/a
5369.32	n/a	RECOG_CONF	2684660	n/a	LTP286	ltpFR	0	3	1	STREAM	1392	5	0	n/a	n/a	n/a	n/a	n/a
5371.698	n/a	RECOG_TARGET	2685849	n/a	LTP286	ltpFR	0	3	1	PEACH	1031	5	1	n/a	n/a	n/a	n/a	n/a
5372.324	n/a	RECOG_RESP	2686162	n/a	LTP286	ltpFR	0	3	1	PEACH	1031	n/a	1	n/a	n/a	n/a	n/a	n/a
5373.69	n/a	RECOG_CONF	2686845	n/a	LTP286	ltpFR	0	3	1	PEACH	1031	5	1	n/a	n/a	n/a	n/a	n/a
5376.042	n/a	RECOG_TARGET	2688021	n/a	LTP286	ltpFR	0	3	-1	DUST	508	5	-1	n/a	n/a	n/a	n/a	n/a
5376.88	n/a	RECOG_RESP	2688440	n/a	LTP286	ltpFR	0	3	-1	DUST	508	n/a	-1	n/a	n/a	n/a	n/a	n/a
5378.3	n/a	RECOG_CONF	2689150	n/a	LTP286	ltpFR	0	3	-1	DUST	508	5	-1	n/a	n/a	n/a	n/a	n/a
5380.518	n/a	RECOG_LURE	2690259	n/a	LTP286	ltpFR	0	3	n/a	FUNGUS	614	3	n/a	n/a	n/a	n/a	n/a	n/a
5381.51	n/a	RECOG_RESP	2690755	n/a	LTP286	ltpFR	0	3	n/a	FUNGUS	614	n/a	n/a	n/a	n/a	n/a	n/a	n/a
5383.24	n/a	RECOG_CONF	2691620	n/a	LTP286	ltpFR	0	3	n/a	FUNGUS	614	3	n/a	n/a	n/a	n/a	n/a	n/a
5385.346	n/a	RECOG_LURE	2692673	n/a	LTP286	ltpFR	0	3	n/a	MAJOR	859	1	n/a	n/a	n/a	n/a	n/a	n/a
5387.27	n/a	RECOG_RESP	2693635	n/a	LTP286	ltpFR	0	3	n/a	MAJOR	859	n/a	n/a	n/a	n/a	n/a	n/a	n/a
5388.8	n/a	RECOG_CONF	2694400	n/a	LTP286	ltpFR	0	3	n/a	MAJOR	859	1	n/a	n/a	n/a	n/a	n/a	n/a
5390.87	n/a	RECOG_LURE	2695435	n/a	LTP286	ltpFR	0	3	n/a	VENUS	1557	4	n/a	n/a	n/a	n/a	n/a	n/a
5391.744	n/a	RECOG_RESP	2695872	n/a	LTP286	ltpFR	0	3	n/a	VENUS	1557	n/a	n/a	n/a	n/a	n/a	n/a	n/a
5393.29	n/a	RECOG_CONF	2696645	n/a	LTP286	ltpFR	0	3	n/a	VENUS	1557	4	n/a	n/a	n/a	n/a	n/a	n/a
5395.282	n/a	RECOG_TARGET	2697641	n/a	LTP286	ltpFR	0	3	-1	HOSTESS	723	1	-1	n/a	n/a	n/a	n/a	n/a
5396.396	n/a	RECOG_RESP	2698198	n/a	LTP286	ltpFR	0	3	-1	HOSTESS	723	n/a	-1	n/a	n/a	n/a	n/a	n/a
5398.85	n/a	RECOG_CONF	2699425	n/a	LTP286	ltpFR	0	3	-1	HOSTESS	723	1	-1	n/a	n/a	n/a	n/a	n/a
5400.956	n/a	RECOG_TARGET	2700478	n/a	LTP286	ltpFR	0	3	-1	CAPTAIN	239	4	-1	n/a	n/a	n/a	n/a	n/a
5402.24	n/a	RECOG_RESP	2701120	n/a	LTP286	ltpFR	0	3	-1	CAPTAIN	239	n/a	-1	n/a	n/a	n/a	n/a	n/a
5404.58	n/a	RECOG_CONF	2702290	n/a	LTP286	ltpFR	0	3	-1	CAPTAIN	239	4	-1	n/a	n/a	n/a	n/a	n/a
5406.846	n/a	RECOG_TARGET	2703423	n/a	LTP286	ltpFR	0	3	-1	TROUSERS	1510	5	-1	n/a	n/a	n/a	n/a	n/a
5407.596	n/a	RECOG_RESP	2703798	n/a	LTP286	ltpFR	0	3	-1	TROUSERS	1510	n/a	-1	n/a	n/a	n/a	n/a	n/a
5409.41	n/a	RECOG_CONF	2704705	n/a	LTP286	ltpFR	0	3	-1	TROUSERS	1510	5	-1	n/a	n/a	n/a	n/a	n/a
5411.574	n/a	RECOG_TARGET	2705787	n/a	LTP286	ltpFR	0	3	1	CONDUCTOR	362	4	1	n/a	n/a	n/a	n/a	n/a
5412.49	n/a	RECOG_RESP	2706245	n/a	LTP286	ltpFR	0	3	1	CONDUCTOR	362	n/a	1	n/a	n/a	n/a	n/a	n/a
5413.91	n/a	RECOG_CONF	2706955	n/a	LTP286	ltpFR	0	3	1	CONDUCTOR	362	4	1	n/a	n/a	n/a	n/a	n/a
5416.2	n/a	RECOG_TARGET	2708100	n/a	LTP286	ltpFR	0	3	0	ABDOMEN	1	5	1	n/a	n/a	n/a	n/a	n/a
5416.99	n/a	RECOG_RESP	2708495	n/a	LTP286	ltpFR	0	3	0	ABDOMEN	1	n/a	1	n/a	n/a	n/a	n/a	n/a
5418.51	n/a	RECOG_CONF	2709255	n/a	LTP286	ltpFR	0	3	0	ABDOMEN	1	5	1	n/a	n/a	n/a	n/a	n/a
5429.666	n/a	REC_START	2714833	n/a	LTP286	ltpFR	0	4	n/a	n/a	n/a	n/a	n/a	n/a	n/a	n/a	n/a	n/a
5429.696	n/a	RECOG_TARGET	2714848	n/a	LTP286	ltpFR	0	4	-1	POSSUM	1112	3	-1	n/a	n/a	n/a	n/a	n/a
5430.636	n/a	RECOG_RESP	2715318	n/a	LTP286	ltpFR	0	4	-1	POSSUM	1112	n/a	-1	n/a	n/a	n/a	n/a	n/a
5432.266	n/a	RECOG_CONF	2716133	n/a	LTP286	ltpFR	0	4	-1	POSSUM	1112	3	-1	n/a	n/a	n/a	n/a	n/a
5434.556	n/a	RECOG_TARGET	2717278	n/a	LTP286	ltpFR	0	4	1	SERVANT	1271	5	1	n/a	n/a	n/a	n/a	n/a
5435.212	n/a	RECOG_RESP	2717606	n/a	LTP286	ltpFR	0	4	1	SERVANT	1271	n/a	1	n/a	n/a	n/a	n/a	n/a
5436.546	n/a	RECOG_CONF	2718273	n/a	LTP286	ltpFR	0	4	1	SERVANT	1271	5	1	n/a	n/a	n/a	n/a	n/a
5438.766	n/a	RECOG_LURE	2719383	n/a	LTP286	ltpFR	0	4	n/a	ANTLER	29	1	n/a	n/a	n/a	n/a	n/a	n/a
5440.296	n/a	RECOG_RESP	2720148	n/a	LTP286	ltpFR	0	4	n/a	ANTLER	29	n/a	n/a	n/a	n/a	n/a	n/a	n/a
5442.336	n/a	RECOG_CONF	2721168	n/a	LTP286	ltpFR	0	4	n/a	ANTLER	29	1	n/a	n/a	n/a	n/a	n/a	n/a
5444.442	n/a	RECOG_TARGET	2722221	n/a	LTP286	ltpFR	0	4	1	LIEUTENANT	818	4	1	n/a	n/a	n/a	n/a	n/a
5445.222	n/a	RECOG_RESP	2722611	n/a	LTP286	ltpFR	0	4	1	LIEUTENANT	818	n/a	1	n/a	n/a	n/a	n/a	n/a
5447.026	n/a	RECOG_CONF	2723513	n/a	LTP286	ltpFR	0	4	1	LIEUTENANT	818	4	1	n/a	n/a	n/a	n/a	n/a
5449.218	n/a	RECOG_TARGET	2724609	n/a	LTP286	ltpFR	0	4	1	CUSTOMER	430	4	1	n/a	n/a	n/a	n/a	n/a
5450.126	n/a	RECOG_RESP	2725063	n/a	LTP286	ltpFR	0	4	1	CUSTOMER	430	n/a	1	n/a	n/a	n/a	n/a	n/a
5451.776	n/a	RECOG_CONF	2725888	n/a	LTP286	ltpFR	0	4	1	CUSTOMER	430	4	1	n/a	n/a	n/a	n/a	n/a
5453.678	n/a	RECOG_TARGET	2726839	n/a	LTP286	ltpFR	0	4	1	PICK	1058	3	0	n/a	n/a	n/a	n/a	n/a
5454.636	n/a	RECOG_RESP	2727318	n/a	LTP286	ltpFR	0	4	1	PICK	1058	n/a	0	n/a	n/a	n/a	n/a	n/a
5456.236	n/a	RECOG_CONF	2728118	n/a	LTP286	ltpFR	0	4	1	PICK	1058	3	0	n/a	n/a	n/a	n/a	n/a
5458.188	n/a	RECOG_TARGET	2729094	n/a	LTP286	ltpFR	0	4	1	MARSH	874	4	1	n/a	n/a	n/a	n/a	n/a
5459.216	n/a	RECOG_RESP	2729608	n/a	LTP286	ltpFR	0	4	1	MARSH	874	n/a	1	n/a	n/a	n/a	n/a	n/a
5460.966	n/a	RECOG_CONF	2730483	n/a	LTP286	ltpFR	0	4	1	MARSH	874	4	1	n/a	n/a	n/a	n/a	n/a
5463.214	n/a	RECOG_TARGET	2731607	n/a	LTP286	ltpFR	0	4	0	ESSAY	540	4	0	n/a	n/a	n/a	n/a	n/a
5463.956	n/a	RECOG_RESP	2731978	n/a	LTP286	ltpFR	0	4	0	ESSAY	540	n/a	0	n/a	n/a	n/a	n/a	n/a
5465.516	n/a	RECOG_CONF	2732758	n/a	LTP286	ltpFR	0	4	0	ESSAY	540	4	0	n/a	n/a	n/a	n/a	n/a
5467.69	n/a	RECOG_TARGET	2733845	n/a	LTP286	ltpFR	0	4	1	TABLE	1426	2	0	n/a	n/a	n/a	n/a	n/a
5468.776	n/a	RECOG_RESP	2734388	n/a	LTP286	ltpFR	0	4	1	TABLE	1426	n/a	0	n/a	n/a	n/a	n/a	n/a
5470.416	n/a	RECOG_CONF	2735208	n/a	LTP286	ltpFR	0	4	1	TABLE	1426	2	0	n/a	n/a	n/a	n/a	n/a
5472.382	n/a	RECOG_LURE	2736191	n/a	LTP286	ltpFR	0	4	n/a	LID	817	3	n/a	n/a	n/a	n/a	n/a	n/a
5474.008	n/a	RECOG_RESP	2737004	n/a	LTP286	ltpFR	0	4	n/a	LID	817	n/a	n/a	n/a	n/a	n/a	n/a	n/a
5477.118	n/a	RECOG_CONF	2738559	n/a	LTP286	ltpFR	0	4	n/a	LID	817	3	n/a	n/a	n/a	n/a	n/a	n/a
5479.174	n/a	RECOG_TARGET	2739587	n/a	LTP286	ltpFR	0	4	1	LUNCH	849	4	0	n/a	n/a	n/a	n/a	n/a
5480.072	n/a	RECOG_RESP	2740036	n/a	LTP286	ltpFR	0	4	1	LUNCH	849	n/a	0	n/a	n/a	n/a	n/a	n/a
5482.128	n/a	RECOG_CONF	2741064	n/a	LTP286	ltpFR	0	4	1	LUNCH	849	4	0	n/a	n/a	n/a	n/a	n/a
5484.15	n/a	RECOG_TARGET	2742075	n/a	LTP286	ltpFR	0	4	0	LOBSTER	837	3	0	n/a	n/a	n/a	n/a	n/a
5485.078	n/a	RECOG_RESP	2742539	n/a	LTP286	ltpFR	0	4	0	LOBSTER	837	n/a	0	n/a	n/a	n/a	n/a	n/a
5486.818	n/a	RECOG_CONF	2743409	n/a	LTP286	ltpFR	0	4	0	LOBSTER	837	3	0	n/a	n/a	n/a	n/a	n/a
5488.824	n/a	RECOG_LURE	2744412	n/a	LTP286	ltpFR	0	4	n/a	LUGGAGE	847	1	n/a	n/a	n/a	n/a	n/a	n/a
5490.082	n/a	RECOG_RESP	2745041	n/a	LTP286	ltpFR	0	4	n/a	LUGGAGE	847	n/a	n/a	n/a	n/a	n/a	n/a	n/a
5491.568	n/a	RECOG_CONF	2745784	n/a	LTP286	ltpFR	0	4	n/a	LUGGAGE	847	1	n/a	n/a	n/a	n/a	n/a	n/a
5493.686	n/a	RECOG_TARGET	2746843	n/a	LTP286	ltpFR	0	4	-1	BUN	197	3	-1	n/a	n/a	n/a	n/a	n/a
5495.062	n/a	RECOG_RESP	2747531	n/a	LTP286	ltpFR	0	4	-1	BUN	197	n/a	-1	n/a	n/a	n/a	n/a	n/a
5496.708	n/a	RECOG_CONF	2748354	n/a	LTP286	ltpFR	0	4	-1	BUN	197	3	-1	n/a	n/a	n/a	n/a	n/a
5498.662	n/a	RECOG_TARGET	2749331	n/a	LTP286	ltpFR	0	4	1	FUR	615	4	0	n/a	n/a	n/a	n/a	n/a
5499.438	n/a	RECOG_RESP	2749719	n/a	LTP286	ltpFR	0	4	1	FUR	615	n/a	0	n/a	n/a	n/a	n/a	n/a
5500.888	n/a	RECOG_CONF	2750444	n/a	LTP286	ltpFR	0	4	1	FUR	615	4	0	n/a	n/a	n/a	n/a	n/a
5503.072	n/a	RECOG_LURE	2751536	n/a	LTP286	ltpFR	0	4	n/a	INFANT	737	4	n/a	n/a	n/a	n/a	n/a	n/a
5504.098	n/a	RECOG_RESP	2752049	n/a	LTP286	ltpFR	0	4	n/a	INFANT	737	n/a	n/a	n/a	n/a	n/a	n/a	n/a
5505.558	n/a	RECOG_CONF	2752779	n/a	LTP286	ltpFR	0	4	n/a	INFANT	737	4	n/a	n/a	n/a	n/a	n/a	n/a
5507.598	n/a	RECOG_TARGET	2753799	n/a	LTP286	ltpFR	0	4	-1	SEAT	1264	3	-1	n/a	n/a	n/a	n/a	n/a
5508.458	n/a	RECOG_RESP	2754229	n/a	LTP286	ltpFR	0	4	-1	SEAT	1264	n/a	-1	n/a	n/a	n/a	n/a	n/a
5510.148	n/a	RECOG_CONF	2755074	n/a	LTP286	ltpFR	0	4	-1	SEAT	1264	3	-1	n/a	n/a	n/a	n/a	n/a
5512.006	n/a	RECOG_LURE	2756003	n/a	LTP286	ltpFR	0	4	n/a	DRAGON	492	5	n/a	n/a	n/a	n/a	n/a	n/a
5512.908	n/a	RECOG_RESP	2756454	n/a	LTP286	ltpFR	0	4	n/a	DRAGON	492	n/a	n/a	n/a	n/a	n/a	n/a	n/a
5514.218	n/a	RECOG_CONF	2757109	n/a	LTP286	ltpFR	0	4	n/a	DRAGON	492	5	n/a	n/a	n/a	n/a	n/a	n/a
5516.352	n/a	RECOG_TARGET	2758176	n/a	LTP286	ltpFR	0	4	1	ATTIC	56	5	0	n/a	n/a	n/a	n/a	n/a
5517.212	n/a	RECOG_RESP	2758606	n/a	LTP286	ltpFR	0	4	1	ATTIC	56	n/a	0	n/a	n/a	n/a	n/a	n/a
5518.528	n/a	RECOG_CONF	2759264	n/a	LTP286	ltpFR	0	4	1	ATTIC	56	5	0	n/a	n/a	n/a	n/a	n/a
5520.578	n/a	RECOG_LURE	2760289	n/a	LTP286	ltpFR	0	4	n/a	CALF	222	1	n/a	n/a	n/a	n/a	n/a	n/a
5521.702	n/a	RECOG_RESP	2760851	n/a	LTP286	ltpFR	0	4	n/a	CALF	222	n/a	n/a	n/a	n/a	n/a	n/a	n/a
5523.298	n/a	RECOG_CONF	2761649	n/a	LTP286	ltpFR	0	4	n/a	CALF	222	1	n/a	n/a	n/a	n/a	n/a	n/a
5532.056	n/a	REC_START	2766028	n/a	LTP286	ltpFR	0	5	n/a	n/a	n/a	n/a	n/a	n/a	n/a	n/a	n/a	n/a
5532.094	n/a	RECOG_LURE	2766047	n/a	LTP286	ltpFR	0	5	n/a	FOUNTAIN	597	1	n/a	n/a	n/a	n/a	n/a	n/a
5533.216	n/a	RECOG_RESP	2766608	n/a	LTP286	ltpFR	0	5	n/a	FOUNTAIN	597	n/a	n/a	n/a	n/a	n/a	n/a	n/a
5534.826	n/a	RECOG_CONF	2767413	n/a	LTP286	ltpFR	0	5	n/a	FOUNTAIN	597	1	n/a	n/a	n/a	n/a	n/a	n/a
5536.654	n/a	RECOG_TARGET	2768327	n/a	LTP286	ltpFR	0	5	0	HAMPER	682	4	1	n/a	n/a	n/a	n/a	n/a
5537.54	n/a	RECOG_RESP	2768770	n/a	LTP286	ltpFR	0	5	0	HAMPER	682	n/a	1	n/a	n/a	n/a	n/a	n/a
5538.996	n/a	RECOG_CONF	2769498	n/a	LTP286	ltpFR	0	5	0	HAMPER	682	4	1	n/a	n/a	n/a	n/a	n/a
5540.964	n/a	RECOG_TARGET	2770482	n/a	LTP286	ltpFR	0	5	1	SCREW	1254	4	0	n/a	n/a	n/a	n/a	n/a
5541.66	n/a	RECOG_RESP	2770830	n/a	LTP286	ltpFR	0	5	1	SCREW	1254	n/a	0	n/a	n/a	n/a	n/a	n/a
5543.006	n/a	RECOG_CONF	2771503	n/a	LTP286	ltpFR	0	5	1	SCREW	1254	4	0	n/a	n/a	n/a	n/a	n/a
5544.892	n/a	RECOG_LURE	2772446	n/a	LTP286	ltpFR	0	5	n/a	BOTTLE	153	4	n/a	n/a	n/a	n/a	n/a	n/a
5545.71	n/a	RECOG_RESP	2772855	n/a	LTP286	ltpFR	0	5	n/a	BOTTLE	153	n/a	n/a	n/a	n/a	n/a	n/a	n/a
5547.176	n/a	RECOG_CONF	2773588	n/a	LTP286	ltpFR	0	5	n/a	BOTTLE	153	4	n/a	n/a	n/a	n/a	n/a	n/a
5549.668	n/a	RECOG_LURE	2774834	n/a	LTP286	ltpFR	0	5	n/a	GRASSHOPPER	656	2	n/a	n/a	n/a	n/a	n/a	n/a
5550.64	n/a	RECOG_RESP	2775320	n/a	LTP286	ltpFR	0	5	n/a	GRASSHOPPER	656	n/a	n/a	n/a	n/a	n/a	n/a	n/a
5552.266	n/a	RECOG_CONF	2776133	n/a	LTP286	ltpFR	0	5	n/a	GRASSHOPPER	656	2	n/a	n/a	n/a	n/a	n/a	n/a
5554.296	n/a	RECOG_TARGET	2777148	n/a	LTP286	ltpFR	0	5	0	BARRACUDA	90	5	1	n/a	n/a	n/a	n/a	n/a
5555.276	n/a	RECOG_RESP	2777638	n/a	LTP286	ltpFR	0	5	0	BARRACUDA	90	n/a	1	n/a	n/a	n/a	n/a	n/a
5556.756	n/a	RECOG_CONF	2778378	n/a	LTP286	ltpFR	0	5	0	BARRACUDA	90	5	1	n/a	n/a	n/a	n/a	n/a
5558.988	n/a	RECOG_TARGET	2779494	n/a	LTP286	ltpFR	0	5	0	STRAW	1390	4	0	n/a	n/a	n/a	n/a	n/a
5559.682	n/a	RECOG_RESP	2779841	n/a	LTP286	ltpFR	0	5	0	STRAW	1390	n/a	0	n/a	n/a	n/a	n/a	n/a
5561.156	n/a	RECOG_CONF	2780578	n/a	LTP286	ltpFR	0	5	0	STRAW	1390	4	0	n/a	n/a	n/a	n/a	n/a
5563.166	n/a	RECOG_LURE	2781583	n/a	LTP286	ltpFR	0	5	n/a	BLACKBOARD	133	1	n/a	n/a	n/a	n/a	n/a	n/a
5564.526	n/a	RECOG_RESP	2782263	n/a	LTP286	ltpFR	0	5	n/a	BLACKBOARD	133	n/a	n/a	n/a	n/a	n/a	n/a	n/a
5565.946	n/a	RECOG_CONF	2782973	n/a	LTP286	ltpFR	0	5	n/a	BLACKBOARD	133	1	n/a	n/a	n/a	n/a	n/a	n/a
5567.99	n/a	RECOG_TARGET	2783995	n/a	LTP286	ltpFR	0	5	1	TORCH	1484	3	0	n/a	n/a	n/a	n/a	n/a
5568.832	n/a	RECOG_RESP	2784416	n/a	LTP286	ltpFR	0	5	1	TORCH	1484	n/a	0	n/a	n/a	n/a	n/a	n/a
5570.196	n/a	RECOG_CONF	2785098	n/a	LTP286	ltpFR	0	5	1	TORCH	1484	3	0	n/a	n/a	n/a	n/a	n/a
5572.302	n/a	RECOG_LURE	2786151	n/a	LTP286	ltpFR	0	5	n/a	ACROBAT	4	2	n/a	n/a	n/a	n/a	n/a	n/a
5573.252	n/a	RECOG_RESP	2786626	n/a	LTP286	ltpFR	0	5	n/a	ACROBAT	4	n/a	n/a	n/a	n/a	n/a	n/a	n/a
5574.776	n/a	RECOG_CONF	2787388	n/a	LTP286	ltpFR	0	5	n/a	ACROBAT	4	2	n/a	n/a	n/a	n/a	n/a	n/a
5576.944	n/a	RECOG_TARGET	2788472	n/a	LTP286	ltpFR	0	5	1	BEAST	108	2	1	n/a	n/a	n/a	n/a	n/a
5578.186	n/a	RECOG_RESP	2789093	n/a	LTP286	ltpFR	0	5	1	BEAST	108	n/a	1	n/a	n/a	n/a	n/a	n/a
5579.706	n/a	RECOG_CONF	2789853	n/a	LTP286	ltpFR	0	5	1	BEAST	108	2	1	n/a	n/a	n/a	n/a	n/a
5581.704	n/a	RECOG_TARGET	2790852	n/a	LTP286	ltpFR	0	5	1	VOLCANO	1575	4	0	n/a	n/a	n/a	n/a	n/a
5582.542	n/a	RECOG_RESP	2791271	n/a	LTP286	ltpFR	0	5	1	VOLCANO	1575	n/a	0	n/a	n/a	n/a	n/a	n/a
5583.796	n/a	RECOG_CONF	2791898	n/a	LTP286	ltpFR	0	5	1	VOLCANO	1575	4	0	n/a	n/a	n/a	n/a	n/a
5585.948	n/a	RECOG_TARGET	2792974	n/a	LTP286	ltpFR	0	5	1	TUXEDO	1525	4	0	n/a	n/a	n/a	n/a	n/a
5586.676	n/a	RECOG_RESP	2793338	n/a	LTP286	ltpFR	0	5	1	TUXEDO	1525	n/a	0	n/a	n/a	n/a	n/a	n/a
5587.986	n/a	RECOG_CONF	2793993	n/a	LTP286	ltpFR	0	5	1	TUXEDO	1525	4	0	n/a	n/a	n/a	n/a	n/a
5590.226	n/a	RECOG_TARGET	2795113	n/a	LTP286	ltpFR	0	5	0	BLUEJAY	141	5	0	n/a	n/a	n/a	n/a	n/a
5590.952	n/a	RECOG_RESP	2795476	n/a	LTP286	ltpFR	0	5	0	BLUEJAY	141	n/a	0	n/a	n/a	n/a	n/a	n/a
