onset	duration	trial_type	sample	stim_file	subject	experiment	session	trial	task	item_name	item_num	recog_resp	recog_conf	resp	color_r	color_g	color_b	case	font
396.602	n/a	SESS_START	198301	n/a	LTP252	ltpFR	1	n/a	n/a	n/a	n/a	0	n/a	n/a	n/a	n/a	n/a	n/a	n/a
493.774	n/a	WORD	246887	wordpools/wasnorm_wordpool_less_exclusions.txt	LTP252	ltpFR	1	1	0	SUN	1406	n/a	n/a	1	0.422607421875	0.5869140625	0	lower	amplitud.ttf
497.704	n/a	WORD	248852	wordpools/wasnorm_wordpool_less_exclusions.txt	LTP252	ltpFR	1	1	0	CERAMICS	271	n/a	n/a	0	0.422607421875	0.5869140625	0	lower	amplitud.ttf
501.67	n/a	WORD	250835	wordpools/wasnorm_wordpool_less_exclusions.txt	LTP252	ltpFR	1	1	0	GUARDIAN	668	n/a	n/a	1	0.422607421875	0.5869140625	0	lower	amplitud.ttf
505.502	n/a	WORD	252751	wordpools/wasnorm_wordpool_less_exclusions.txt	LTP252	ltpFR	1	1	0	BOWL	158	n/a	n/a	0	0.422607421875	0.5869140625	0	lower	amplitud.ttf
509.568	n/a	WORD	254784	wordpools/wasnorm_wordpool_less_exclusions.txt	LTP252	ltpFR	1	1	0	TELEPHONE	1445	n/a	n/a	0	0.422607421875	0.5869140625	0	lower	amplitud.ttf
513.766	n/a	WORD	256883	wordpools/wasnorm_wordpool_less_exclusions.txt	LTP252	ltpFR	1	1	1	BUGLE	189	n/a	n/a	0	0.57763671875	0.412841796875	1	upper	zerothre.ttf
517.664	n/a	WORD	258832	wordpools/wasnorm_wordpool_less_exclusions.txt	LTP252	ltpFR	1	1	1	COLONEL	348	n/a	n/a	1	0.57763671875	0.412841796875	1	upper	zerothre.ttf
521.596	n/a	WORD	260798	wordpools/wasnorm_wordpool_less_exclusions.txt	LTP252	ltpFR	1	1	1	TUTU	1524	n/a	n/a	0	0.57763671875	0.412841796875	1	upper	zerothre.ttf
525.746	n/a	WORD	262873	wordpools/wasnorm_wordpool_less_exclusions.txt	LTP252	ltpFR	1	1	1	STEWARDESS	1381	n/a	n/a	1	0.57763671875	0.412841796875	1	upper	zerothre.ttf
529.644	n/a	WORD	264822	wordpools/wasnorm_wordpool_less_exclusions.txt	LTP252	ltpFR	1	1	0	NAVIGATOR	938	n/a	n/a	1	0.422607421875	0.5869140625	0	lower	amplitud.ttf
533.626	n/a	WORD	266813	wordpools/wasnorm_wordpool_less_exclusions.txt	LTP252	ltpFR	1	1	0	BASEBALL	93	n/a	n/a	0	0.422607421875	0.5869140625	0	lower	amplitud.ttf
537.592	n/a	WORD	268796	wordpools/wasnorm_wordpool_less_exclusions.txt	LTP252	ltpFR	1	1	0	FOOTBALL	591	n/a	n/a	0	0.422607421875	0.5869140625	0	lower	amplitud.ttf
541.504	n/a	WORD	270752	wordpools/wasnorm_wordpool_less_exclusions.txt	LTP252	ltpFR	1	1	1	CREVICE	405	n/a	n/a	0	0.57763671875	0.412841796875	1	upper	zerothre.ttf
545.454	n/a	WORD	272727	wordpools/wasnorm_wordpool_less_exclusions.txt	LTP252	ltpFR	1	1	1	ROCKET	1202	n/a	n/a	0	0.57763671875	0.412841796875	1	upper	zerothre.ttf
549.536	n/a	WORD	274768	wordpools/wasnorm_wordpool_less_exclusions.txt	LTP252	ltpFR	1	1	1	MOTHER	921	n/a	n/a	1	0.57763671875	0.412841796875	1	upper	zerothre.ttf
553.552	n/a	WORD	276776	wordpools/wasnorm_wordpool_less_exclusions.txt	LTP252	ltpFR	1	1	1	BALLERINA	74	n/a	n/a	1	0.57763671875	0.412841796875	1	upper	zerothre.ttf
559.51	n/a	REC_START	279755	n/a	LTP252	ltpFR	1	1	n/a	n/a	n/a	n/a	n/a	n/a	n/a	n/a	n/a	n/a	n/a
560.5	n/a	REC_WORD	280250	wordpools/wasnorm_wordpool_less_exclusions.txt	LTP252	ltpFR	1	1	1	BALLERINA	74	n/a	n/a	1	n/a	n/a	n/a	n/a	n/a
561.666	n/a	REC_WORD	280833	wordpools/wasnorm_wordpool_less_exclusions.txt	LTP252	ltpFR	1	1	1	MOTHER	921	n/a	n/a	1	n/a	n/a	n/a	n/a	n/a
562.652	n/a	REC_WORD	281326	wordpools/wasnorm_wordpool_less_exclusions.txt	LTP252	ltpFR	1	1	1	CREVICE	405	n/a	n/a	0	n/a	n/a	n/a	n/a	n/a
563.932	n/a	REC_WORD	281966	wordpools/wasnorm_wordpool_less_exclusions.txt	LTP252	ltpFR	1	1	0	FOOTBALL	591	n/a	n/a	0	n/a	n/a	n/a	n/a	n/a
565.562	n/a	REC_WORD	282781	wordpools/wasnorm_wordpool_less_exclusions.txt	LTP252	ltpFR	1	1	0	BASEBALL	93	n/a	n/a	0	n/a	n/a	n/a	n/a	n/a
567.664	n/a	REC_WORD	283832	wordpools/wasnorm_wordpool_less_exclusions.txt	LTP252	ltpFR	1	1	1	TUTU	1524	n/a	n/a	0	n/a	n/a	n/a	n/a	n/a
581.484	n/a	REC_WORD	290742	wordpools/wasnorm_wordpool_less_exclusions.txt	LTP252	ltpFR	1	1	1	COLONEL	348	n/a	n/a	1	n/a	n/a	n/a	n/a	n/a
600.992	n/a	REC_WORD	300496	wordpools/wasnorm_wordpool_less_exclusions.txt	LTP252	ltpFR	1	1	1	STEWARDESS	1381	n/a	n/a	1	n/a	n/a	n/a	n/a	n/a
622.784	n/a	REC_WORD	311392	wordpools/wasnorm_wordpool_less_exclusions.txt	LTP252	ltpFR	1	1	1	CREVICE	405	n/a	n/a	0	n/a	n/a	n/a	n/a	n/a
648.498	n/a	WORD	324249	wordpools/wasnorm_wordpool_less_exclusions.txt	LTP252	ltpFR	1	2	1	MONARCH	906	n/a	n/a	1	0.57763671875	0.412841796875	1	upper	zerothre.ttf
652.528	n/a	WORD	326264	wordpools/wasnorm_wordpool_less_exclusions.txt	LTP252	ltpFR	1	2	1	TRENCH	1503	n/a	n/a	0	0.57763671875	0.412841796875	1	upper	zerothre.ttf
656.446	n/a	WORD	328223	wordpools/wasnorm_wordpool_less_exclusions.txt	LTP252	ltpFR	1	2	0	FLANNEL	574	n/a	n/a	0	0.422607421875	0.5869140625	0	lower	amplitud.ttf
660.528	n/a	WORD	330264	wordpools/wasnorm_wordpool_less_exclusions.txt	LTP252	ltpFR	1	2	0	EMPEROR	529	n/a	n/a	1	0.422607421875	0.5869140625	0	lower	amplitud.ttf
664.61	n/a	WORD	332305	wordpools/wasnorm_wordpool_less_exclusions.txt	LTP252	ltpFR	1	2	0	SUNRISE	1407	n/a	n/a	1	0.422607421875	0.5869140625	0	lower	amplitud.ttf
668.756	n/a	WORD	334378	wordpools/wasnorm_wordpool_less_exclusions.txt	LTP252	ltpFR	1	2	1	COOKBOOK	373	n/a	n/a	0	0.57763671875	0.412841796875	1	upper	zerothre.ttf
672.908	n/a	WORD	336454	wordpools/wasnorm_wordpool_less_exclusions.txt	LTP252	ltpFR	1	2	1	SUPPER	1411	n/a	n/a	0	0.57763671875	0.412841796875	1	upper	zerothre.ttf
676.94	n/a	WORD	338470	wordpools/wasnorm_wordpool_less_exclusions.txt	LTP252	ltpFR	1	2	0	PUCK	1138	n/a	n/a	0	0.422607421875	0.5869140625	0	lower	amplitud.ttf
681.022	n/a	WORD	340511	wordpools/wasnorm_wordpool_less_exclusions.txt	LTP252	ltpFR	1	2	0	ICING	732	n/a	n/a	0	0.422607421875	0.5869140625	0	lower	amplitud.ttf
685.154	n/a	WORD	342577	wordpools/wasnorm_wordpool_less_exclusions.txt	LTP252	ltpFR	1	2	0	GENERAL	630	n/a	n/a	1	0.422607421875	0.5869140625	0	lower	amplitud.ttf
689.32	n/a	WORD	344660	wordpools/wasnorm_wordpool_less_exclusions.txt	LTP252	ltpFR	1	2	0	GLUE	643	n/a	n/a	0	0.422607421875	0.5869140625	0	lower	amplitud.ttf
693.302	n/a	WORD	346651	wordpools/wasnorm_wordpool_less_exclusions.txt	LTP252	ltpFR	1	2	0	FUGITIVE	612	n/a	n/a	1	0.422607421875	0.5869140625	0	lower	amplitud.ttf
697.418	n/a	WORD	348709	wordpools/wasnorm_wordpool_less_exclusions.txt	LTP252	ltpFR	1	2	1	BANDIT	81	n/a	n/a	1	0.57763671875	0.412841796875	1	upper	zerothre.ttf
701.434	n/a	WORD	350717	wordpools/wasnorm_wordpool_less_exclusions.txt	LTP252	ltpFR	1	2	1	PURSE	1145	n/a	n/a	0	0.57763671875	0.412841796875	1	upper	zerothre.ttf
705.582	n/a	WORD	352791	wordpools/wasnorm_wordpool_less_exclusions.txt	LTP252	ltpFR	1	2	1	WAIST	1579	n/a	n/a	0	0.57763671875	0.412841796875	1	upper	zerothre.ttf
709.716	n/a	WORD	354858	wordpools/wasnorm_wordpool_less_exclusions.txt	LTP252	ltpFR	1	2	1	JEANS	752	n/a	n/a	0	0.57763671875	0.412841796875	1	upper	zerothre.ttf
715.69	n/a	REC_START	357845	n/a	LTP252	ltpFR	1	2	n/a	n/a	n/a	n/a	n/a	n/a	n/a	n/a	n/a	n/a	n/a
716.842	n/a	REC_WORD	358421	wordpools/wasnorm_wordpool_less_exclusions.txt	LTP252	ltpFR	1	2	1	WAIST	1579	n/a	n/a	0	n/a	n/a	n/a	n/a	n/a
717.982	n/a	REC_WORD	358991	wordpools/wasnorm_wordpool_less_exclusions.txt	LTP252	ltpFR	1	2	1	JEANS	752	n/a	n/a	0	n/a	n/a	n/a	n/a	n/a
719.618	n/a	REC_WORD	359809	wordpools/wasnorm_wordpool_less_exclusions.txt	LTP252	ltpFR	1	2	1	BANDIT	81	n/a	n/a	1	n/a	n/a	n/a	n/a	n/a
724.106	n/a	REC_WORD	362053	wordpools/wasnorm_wordpool_less_exclusions.txt	LTP252	ltpFR	1	2	0	GENERAL	630	n/a	n/a	1	n/a	n/a	n/a	n/a	n/a
727.544	n/a	REC_WORD	363772	wordpools/wasnorm_wordpool_less_exclusions.txt	LTP252	ltpFR	1	2	1	TUTU	1524	n/a	n/a	0	n/a	n/a	n/a	n/a	n/a
739.18	n/a	REC_WORD	369590	wordpools/wasnorm_wordpool_less_exclusions.txt	LTP252	ltpFR	1	2	0	PUCK	1138	n/a	n/a	0	n/a	n/a	n/a	n/a	n/a
741.26	n/a	REC_WORD	370630	wordpools/wasnorm_wordpool_less_exclusions.txt	LTP252	ltpFR	1	2	n/a	PANTS	1010	n/a	n/a	n/a	n/a	n/a	n/a	n/a	n/a
746.426	n/a	REC_WORD	373213	wordpools/wasnorm_wordpool_less_exclusions.txt	LTP252	ltpFR	1	2	n/a	SUNSET	1408	n/a	n/a	n/a	n/a	n/a	n/a	n/a	n/a
750.252	n/a	REC_WORD	375126	wordpools/wasnorm_wordpool_less_exclusions.txt	LTP252	ltpFR	1	2	0	FLANNEL	574	n/a	n/a	0	n/a	n/a	n/a	n/a	n/a
798.822	n/a	WORD	399411	wordpools/wasnorm_wordpool_less_exclusions.txt	LTP252	ltpFR	1	3	-1	SCAPEGOAT	1244	n/a	n/a	-1	1.0	1.0	1	upper	Verdana.ttf
802.872	n/a	WORD	401436	wordpools/wasnorm_wordpool_less_exclusions.txt	LTP252	ltpFR	1	3	-1	RAM	1165	n/a	n/a	-1	1.0	1.0	1	upper	Verdana.ttf
807.004	n/a	WORD	403502	wordpools/wasnorm_wordpool_less_exclusions.txt	LTP252	ltpFR	1	3	-1	WATER	1594	n/a	n/a	-1	1.0	1.0	1	upper	Verdana.ttf
810.886	n/a	WORD	405443	wordpools/wasnorm_wordpool_less_exclusions.txt	LTP252	ltpFR	1	3	-1	LID	817	n/a	n/a	-1	1.0	1.0	1	upper	Verdana.ttf
814.766	n/a	WORD	407383	wordpools/wasnorm_wordpool_less_exclusions.txt	LTP252	ltpFR	1	3	-1	PANTS	1010	n/a	n/a	-1	1.0	1.0	1	upper	Verdana.ttf
818.866	n/a	WORD	409433	wordpools/wasnorm_wordpool_less_exclusions.txt	LTP252	ltpFR	1	3	-1	VAMPIRE	1547	n/a	n/a	-1	1.0	1.0	1	upper	Verdana.ttf
823.064	n/a	WORD	411532	wordpools/wasnorm_wordpool_less_exclusions.txt	LTP252	ltpFR	1	3	-1	GAZELLE	628	n/a	n/a	-1	1.0	1.0	1	upper	Verdana.ttf
827.232	n/a	WORD	413616	wordpools/wasnorm_wordpool_less_exclusions.txt	LTP252	ltpFR	1	3	-1	CALF	222	n/a	n/a	-1	1.0	1.0	1	upper	Verdana.ttf
831.23	n/a	WORD	415615	wordpools/wasnorm_wordpool_less_exclusions.txt	LTP252	ltpFR	1	3	-1	BISON	131	n/a	n/a	-1	1.0	1.0	1	upper	Verdana.ttf
835.296	n/a	WORD	417648	wordpools/wasnorm_wordpool_less_exclusions.txt	LTP252	ltpFR	1	3	-1	PARROT	1015	n/a	n/a	-1	1.0	1.0	1	upper	Verdana.ttf
839.128	n/a	WORD	419564	wordpools/wasnorm_wordpool_less_exclusions.txt	LTP252	ltpFR	1	3	-1	MOUTH	926	n/a	n/a	-1	1.0	1.0	1	upper	Verdana.ttf
843.056	n/a	WORD	421528	wordpools/wasnorm_wordpool_less_exclusions.txt	LTP252	ltpFR	1	3	-1	DRESS	495	n/a	n/a	-1	1.0	1.0	1	upper	Verdana.ttf
846.956	n/a	WORD	423478	wordpools/wasnorm_wordpool_less_exclusions.txt	LTP252	ltpFR	1	3	-1	BRANCH	168	n/a	n/a	-1	1.0	1.0	1	upper	Verdana.ttf
850.938	n/a	WORD	425469	wordpools/wasnorm_wordpool_less_exclusions.txt	LTP252	ltpFR	1	3	-1	TWIG	1527	n/a	n/a	-1	1.0	1.0	1	upper	Verdana.ttf
855.136	n/a	WORD	427568	wordpools/wasnorm_wordpool_less_exclusions.txt	LTP252	ltpFR	1	3	-1	FEATHER	557	n/a	n/a	-1	1.0	1.0	1	upper	Verdana.ttf
859.004	n/a	WORD	429502	wordpools/wasnorm_wordpool_less_exclusions.txt	LTP252	ltpFR	1	3	-1	PAINTING	1005	n/a	n/a	-1	1.0	1.0	1	upper	Verdana.ttf
864.876	n/a	REC_START	432438	n/a	LTP252	ltpFR	1	3	n/a	n/a	n/a	n/a	n/a	n/a	n/a	n/a	n/a	n/a	n/a
865.906	n/a	REC_WORD	432953	wordpools/wasnorm_wordpool_less_exclusions.txt	LTP252	ltpFR	1	3	-1	PAINTING	1005	n/a	n/a	-1	n/a	n/a	n/a	n/a	n/a
866.968	n/a	REC_WORD	433484	wordpools/wasnorm_wordpool_less_exclusions.txt	LTP252	ltpFR	1	3	-1	FEATHER	557	n/a	n/a	-1	n/a	n/a	n/a	n/a	n/a
868.554	n/a	REC_WORD	434277	wordpools/wasnorm_wordpool_less_exclusions.txt	LTP252	ltpFR	1	3	-1	TWIG	1527	n/a	n/a	-1	n/a	n/a	n/a	n/a	n/a
869.792	n/a	REC_WORD	434896	wordpools/wasnorm_wordpool_less_exclusions.txt	LTP252	ltpFR	1	3	-1	BRANCH	168	n/a	n/a	-1	n/a	n/a	n/a	n/a	n/a
871.44	n/a	REC_WORD	435720	wordpools/wasnorm_wordpool_less_exclusions.txt	LTP252	ltpFR	1	3	-1	PARROT	1015	n/a	n/a	-1	n/a	n/a	n/a	n/a	n/a
872.952	n/a	REC_WORD	436476	wordpools/wasnorm_wordpool_less_exclusions.txt	LTP252	ltpFR	1	3	-1	RAM	1165	n/a	n/a	-1	n/a	n/a	n/a	n/a	n/a
875.192	n/a	REC_WORD	437596	wordpools/wasnorm_wordpool_less_exclusions.txt	LTP252	ltpFR	1	3	-1	GAZELLE	628	n/a	n/a	-1	n/a	n/a	n/a	n/a	n/a
878.4	n/a	REC_WORD	439200	wordpools/wasnorm_wordpool_less_exclusions.txt	LTP252	ltpFR	1	3	-1	CALF	222	n/a	n/a	-1	n/a	n/a	n/a	n/a	n/a
886.28	n/a	REC_WORD	443140	wordpools/wasnorm_wordpool_less_exclusions.txt	LTP252	ltpFR	1	3	-1	PANTS	1010	n/a	n/a	-1	n/a	n/a	n/a	n/a	n/a
902.434	n/a	REC_WORD	451217	wordpools/wasnorm_wordpool_less_exclusions.txt	LTP252	ltpFR	1	3	-1	FEATHER	557	n/a	n/a	-1	n/a	n/a	n/a	n/a	n/a
904.862	n/a	REC_WORD	452431	wordpools/wasnorm_wordpool_less_exclusions.txt	LTP252	ltpFR	1	3	-1	MOUTH	926	n/a	n/a	-1	n/a	n/a	n/a	n/a	n/a
920.098	n/a	REC_WORD	460049	wordpools/wasnorm_wordpool_less_exclusions.txt	LTP252	ltpFR	1	3	-1	SCAPEGOAT	1244	n/a	n/a	-1	n/a	n/a	n/a	n/a	n/a
949.95	n/a	WORD	474975	wordpools/wasnorm_wordpool_less_exclusions.txt	LTP252	ltpFR	1	4	0	CHEF	290	n/a	n/a	1	0.422607421875	0.5869140625	0	lower	amplitud.ttf
954.166	n/a	WORD	477083	wordpools/wasnorm_wordpool_less_exclusions.txt	LTP252	ltpFR	1	4	0	GRASSHOPPER	656	n/a	n/a	0	0.422607421875	0.5869140625	0	lower	amplitud.ttf
958.198	n/a	WORD	479099	wordpools/wasnorm_wordpool_less_exclusions.txt	LTP252	ltpFR	1	4	1	SPINACH	1352	n/a	n/a	1	0.57763671875	0.412841796875	1	upper	zerothre.ttf
962.146	n/a	WORD	481073	wordpools/wasnorm_wordpool_less_exclusions.txt	LTP252	ltpFR	1	4	1	NECK	939	n/a	n/a	0	0.57763671875	0.412841796875	1	upper	zerothre.ttf
966.31	n/a	WORD	483155	wordpools/wasnorm_wordpool_less_exclusions.txt	LTP252	ltpFR	1	4	1	TORNADO	1485	n/a	n/a	0	0.57763671875	0.412841796875	1	upper	zerothre.ttf
970.378	n/a	WORD	485189	wordpools/wasnorm_wordpool_less_exclusions.txt	LTP252	ltpFR	1	4	1	MASK	876	n/a	n/a	0	0.57763671875	0.412841796875	1	upper	zerothre.ttf
974.578	n/a	WORD	487289	wordpools/wasnorm_wordpool_less_exclusions.txt	LTP252	ltpFR	1	4	1	RACCOON	1153	n/a	n/a	1	0.57763671875	0.412841796875	1	upper	zerothre.ttf
978.492	n/a	WORD	489246	wordpools/wasnorm_wordpool_less_exclusions.txt	LTP252	ltpFR	1	4	0	JACKET	747	n/a	n/a	0	0.422607421875	0.5869140625	0	lower	amplitud.ttf
982.574	n/a	WORD	491287	wordpools/wasnorm_wordpool_less_exclusions.txt	LTP252	ltpFR	1	4	0	KEY	773	n/a	n/a	0	0.422607421875	0.5869140625	0	lower	amplitud.ttf
986.59	n/a	WORD	493295	wordpools/wasnorm_wordpool_less_exclusions.txt	LTP252	ltpFR	1	4	0	GRATE	657	n/a	n/a	1	0.422607421875	0.5869140625	0	lower	amplitud.ttf
990.59	n/a	WORD	495295	wordpools/wasnorm_wordpool_less_exclusions.txt	LTP252	ltpFR	1	4	0	SPHINX	1349	n/a	n/a	1	0.422607421875	0.5869140625	0	lower	amplitud.ttf
994.52	n/a	WORD	497260	wordpools/wasnorm_wordpool_less_exclusions.txt	LTP252	ltpFR	1	4	0	MAT	877	n/a	n/a	1	0.422607421875	0.5869140625	0	lower	amplitud.ttf
998.67	n/a	WORD	499335	wordpools/wasnorm_wordpool_less_exclusions.txt	LTP252	ltpFR	1	4	0	OVEN	991	n/a	n/a	1	0.422607421875	0.5869140625	0	lower	amplitud.ttf
1002.5	n/a	WORD	501250	wordpools/wasnorm_wordpool_less_exclusions.txt	LTP252	ltpFR	1	4	1	SPIT	1354	n/a	n/a	0	0.57763671875	0.412841796875	1	upper	zerothre.ttf
1006.684	n/a	WORD	503342	wordpools/wasnorm_wordpool_less_exclusions.txt	LTP252	ltpFR	1	4	1	GORILLA	650	n/a	n/a	1	0.57763671875	0.412841796875	1	upper	zerothre.ttf
1010.75	n/a	WORD	505375	wordpools/wasnorm_wordpool_less_exclusions.txt	LTP252	ltpFR	1	4	1	MONKEY	911	n/a	n/a	1	0.57763671875	0.412841796875	1	upper	zerothre.ttf
1016.79	n/a	REC_START	508395	n/a	LTP252	ltpFR	1	4	n/a	n/a	n/a	n/a	n/a	n/a	n/a	n/a	n/a	n/a	n/a
1017.83	n/a	REC_WORD	508915	wordpools/wasnorm_wordpool_less_exclusions.txt	LTP252	ltpFR	1	4	1	GORILLA	650	n/a	n/a	1	n/a	n/a	n/a	n/a	n/a
1018.746	n/a	REC_WORD	509373	wordpools/wasnorm_wordpool_less_exclusions.txt	LTP252	ltpFR	1	4	1	MONKEY	911	n/a	n/a	1	n/a	n/a	n/a	n/a	n/a
1019.774	n/a	REC_WORD	509887	wordpools/wasnorm_wordpool_less_exclusions.txt	LTP252	ltpFR	1	4	1	SPIT	1354	n/a	n/a	0	n/a	n/a	n/a	n/a	n/a
1024.666	n/a	REC_WORD	512333	wordpools/wasnorm_wordpool_less_exclusions.txt	LTP252	ltpFR	1	4	0	GRATE	657	n/a	n/a	1	n/a	n/a	n/a	n/a	n/a
1027.17	n/a	REC_WORD	513585	wordpools/wasnorm_wordpool_less_exclusions.txt	LTP252	ltpFR	1	4	0	SPHINX	1349	n/a	n/a	1	n/a	n/a	n/a	n/a	n/a
1031.178	n/a	REC_WORD	515589	wordpools/wasnorm_wordpool_less_exclusions.txt	LTP252	ltpFR	1	4	0	GRASSHOPPER	656	n/a	n/a	0	n/a	n/a	n/a	n/a	n/a
1063.348	n/a	REC_WORD	531674	wordpools/wasnorm_wordpool_less_exclusions.txt	LTP252	ltpFR	1	4	1	SPINACH	1352	n/a	n/a	1	n/a	n/a	n/a	n/a	n/a
1079.372	n/a	REC_WORD	539686	wordpools/wasnorm_wordpool_less_exclusions.txt	LTP252	ltpFR	1	4	0	KEY	773	n/a	n/a	0	n/a	n/a	n/a	n/a	n/a
1080.918	n/a	REC_WORD	540459	wordpools/wasnorm_wordpool_less_exclusions.txt	LTP252	ltpFR	1	4	0	FLANNEL	574	n/a	n/a	0	n/a	n/a	n/a	n/a	n/a
1095.122	n/a	WORD	547561	wordpools/wasnorm_wordpool_less_exclusions.txt	LTP252	ltpFR	1	5	1	SUBWAY	1400	n/a	n/a	0	0.57763671875	0.412841796875	1	upper	zerothre.ttf
1098.952	n/a	WORD	549476	wordpools/wasnorm_wordpool_less_exclusions.txt	LTP252	ltpFR	1	5	1	CABOOSE	214	n/a	n/a	0	0.57763671875	0.412841796875	1	upper	zerothre.ttf
1103.12	n/a	WORD	551560	wordpools/wasnorm_wordpool_less_exclusions.txt	LTP252	ltpFR	1	5	1	DRAGON	492	n/a	n/a	1	0.57763671875	0.412841796875	1	upper	zerothre.ttf
1107.218	n/a	WORD	553609	wordpools/wasnorm_wordpool_less_exclusions.txt	LTP252	ltpFR	1	5	1	EMPLOYEE	531	n/a	n/a	1	0.57763671875	0.412841796875	1	upper	zerothre.ttf
1111.368	n/a	WORD	555684	wordpools/wasnorm_wordpool_less_exclusions.txt	LTP252	ltpFR	1	5	1	BLUEJAY	141	n/a	n/a	1	0.57763671875	0.412841796875	1	upper	zerothre.ttf
1115.5	n/a	WORD	557750	wordpools/wasnorm_wordpool_less_exclusions.txt	LTP252	ltpFR	1	5	1	ROCK	1201	n/a	n/a	0	0.57763671875	0.412841796875	1	upper	zerothre.ttf
1119.328	n/a	WORD	559664	wordpools/wasnorm_wordpool_less_exclusions.txt	LTP252	ltpFR	1	5	1	VALVE	1546	n/a	n/a	0	0.57763671875	0.412841796875	1	upper	zerothre.ttf
1123.498	n/a	WORD	561749	wordpools/wasnorm_wordpool_less_exclusions.txt	LTP252	ltpFR	1	5	1	SQUID	1361	n/a	n/a	1	0.57763671875	0.412841796875	1	upper	zerothre.ttf
1127.662	n/a	WORD	563831	wordpools/wasnorm_wordpool_less_exclusions.txt	LTP252	ltpFR	1	5	1	SWATTER	1418	n/a	n/a	0	0.57763671875	0.412841796875	1	upper	zerothre.ttf
1131.544	n/a	WORD	565772	wordpools/wasnorm_wordpool_less_exclusions.txt	LTP252	ltpFR	1	5	1	COCOON	339	n/a	n/a	0	0.57763671875	0.412841796875	1	upper	zerothre.ttf
1135.426	n/a	WORD	567713	wordpools/wasnorm_wordpool_less_exclusions.txt	LTP252	ltpFR	1	5	1	PERSONNEL	1053	n/a	n/a	0	0.57763671875	0.412841796875	1	upper	zerothre.ttf
1139.44	n/a	WORD	569720	wordpools/wasnorm_wordpool_less_exclusions.txt	LTP252	ltpFR	1	5	1	EAGLE	512	n/a	n/a	1	0.57763671875	0.412841796875	1	upper	zerothre.ttf
1143.288	n/a	WORD	571644	wordpools/wasnorm_wordpool_less_exclusions.txt	LTP252	ltpFR	1	5	1	CARPENTER	246	n/a	n/a	1	0.57763671875	0.412841796875	1	upper	zerothre.ttf
1147.12	n/a	WORD	573560	wordpools/wasnorm_wordpool_less_exclusions.txt	LTP252	ltpFR	1	5	1	AIRPORT	13	n/a	n/a	0	0.57763671875	0.412841796875	1	upper	zerothre.ttf
1151.152	n/a	WORD	575576	wordpools/wasnorm_wordpool_less_exclusions.txt	LTP252	ltpFR	1	5	1	SAILOR	1223	n/a	n/a	1	0.57763671875	0.412841796875	1	upper	zerothre.ttf
1155.034	n/a	WORD	577517	wordpools/wasnorm_wordpool_less_exclusions.txt	LTP252	ltpFR	1	5	1	MOTOR	922	n/a	n/a	0	0.57763671875	0.412841796875	1	upper	zerothre.ttf
1160.942	n/a	REC_START	580471	n/a	LTP252	ltpFR	1	5	n/a	n/a	n/a	n/a	n/a	n/a	n/a	n/a	n/a	n/a	n/a
1161.964	n/a	REC_WORD	580982	wordpools/wasnorm_wordpool_less_exclusions.txt	LTP252	ltpFR	1	5	1	MOTOR	922	n/a	n/a	0	n/a	n/a	n/a	n/a	n/a
1162.97	n/a	REC_WORD	581485	wordpools/wasnorm_wordpool_less_exclusions.txt	LTP252	ltpFR	1	5	1	SAILOR	1223	n/a	n/a	1	n/a	n/a	n/a	n/a	n/a
1165.346	n/a	REC_WORD	582673	wordpools/wasnorm_wordpool_less_exclusions.txt	LTP252	ltpFR	1	5	1	SUBWAY	1400	n/a	n/a	0	n/a	n/a	n/a	n/a	n/a
1167.04	n/a	REC_WORD	583520	wordpools/wasnorm_wordpool_less_exclusions.txt	LTP252	ltpFR	1	5	1	CABOOSE	214	n/a	n/a	0	n/a	n/a	n/a	n/a	n/a
1170.536	n/a	REC_WORD	585268	wordpools/wasnorm_wordpool_less_exclusions.txt	LTP252	ltpFR	1	5	1	EMPLOYEE	531	n/a	n/a	1	n/a	n/a	n/a	n/a	n/a
1172.274	n/a	REC_WORD	586137	wordpools/wasnorm_wordpool_less_exclusions.txt	LTP252	ltpFR	1	5	1	PERSONNEL	1053	n/a	n/a	0	n/a	n/a	n/a	n/a	n/a
1174.334	n/a	REC_WORD	587167	wordpools/wasnorm_wordpool_less_exclusions.txt	LTP252	ltpFR	1	5	1	SAILOR	1223	n/a	n/a	1	n/a	n/a	n/a	n/a	n/a
1186.334	n/a	REC_WORD	593167	wordpools/wasnorm_wordpool_less_exclusions.txt	LTP252	ltpFR	1	5	1	RACCOON	1153	n/a	n/a	1	n/a	n/a	n/a	n/a	n/a
1199.256	n/a	REC_WORD	599628	wordpools/wasnorm_wordpool_less_exclusions.txt	LTP252	ltpFR	1	5	1	PERSONNEL	1053	n/a	n/a	0	n/a	n/a	n/a	n/a	n/a
1213.77	n/a	REC_WORD	606885	wordpools/wasnorm_wordpool_less_exclusions.txt	LTP252	ltpFR	1	5	1	GORILLA	650	n/a	n/a	1	n/a	n/a	n/a	n/a	n/a
1222.038	n/a	REC_WORD	611019	wordpools/wasnorm_wordpool_less_exclusions.txt	LTP252	ltpFR	1	5	1	MONKEY	911	n/a	n/a	1	n/a	n/a	n/a	n/a	n/a
1246.08	n/a	WORD	623040	wordpools/wasnorm_wordpool_less_exclusions.txt	LTP252	ltpFR	1	6	1	BONE	148	n/a	n/a	0	0.57763671875	0.412841796875	1	upper	zerothre.ttf
1249.98	n/a	WORD	624990	wordpools/wasnorm_wordpool_less_exclusions.txt	LTP252	ltpFR	1	6	1	SHEEP	1278	n/a	n/a	1	0.57763671875	0.412841796875	1	upper	zerothre.ttf
1254.13	n/a	WORD	627065	wordpools/wasnorm_wordpool_less_exclusions.txt	LTP252	ltpFR	1	6	0	RAIL	1161	n/a	n/a	1	0.422607421875	0.5869140625	0	lower	amplitud.ttf
1258.11	n/a	WORD	629055	wordpools/wasnorm_wordpool_less_exclusions.txt	LTP252	ltpFR	1	6	0	CRUMB	416	n/a	n/a	0	0.422607421875	0.5869140625	0	lower	amplitud.ttf
1262.144	n/a	WORD	631072	wordpools/wasnorm_wordpool_less_exclusions.txt	LTP252	ltpFR	1	6	0	COMPANION	357	n/a	n/a	1	0.422607421875	0.5869140625	0	lower	amplitud.ttf
1266.126	n/a	WORD	633063	wordpools/wasnorm_wordpool_less_exclusions.txt	LTP252	ltpFR	1	6	1	MOB	904	n/a	n/a	1	0.57763671875	0.412841796875	1	upper	zerothre.ttf
1270.19	n/a	WORD	635095	wordpools/wasnorm_wordpool_less_exclusions.txt	LTP252	ltpFR	1	6	1	CANNON	232	n/a	n/a	0	0.57763671875	0.412841796875	1	upper	zerothre.ttf
1274.19	n/a	WORD	637095	wordpools/wasnorm_wordpool_less_exclusions.txt	LTP252	ltpFR	1	6	1	HEADBAND	696	n/a	n/a	0	0.57763671875	0.412841796875	1	upper	zerothre.ttf
1278.104	n/a	WORD	639052	wordpools/wasnorm_wordpool_less_exclusions.txt	LTP252	ltpFR	1	6	0	HEAD	695	n/a	n/a	1	0.422607421875	0.5869140625	0	lower	amplitud.ttf
1282.32	n/a	WORD	641160	wordpools/wasnorm_wordpool_less_exclusions.txt	LTP252	ltpFR	1	6	0	STRANGER	1389	n/a	n/a	1	0.422607421875	0.5869140625	0	lower	amplitud.ttf
1286.502	n/a	WORD	643251	wordpools/wasnorm_wordpool_less_exclusions.txt	LTP252	ltpFR	1	6	0	BUFFALO	186	n/a	n/a	1	0.422607421875	0.5869140625	0	lower	amplitud.ttf
1290.452	n/a	WORD	645226	wordpools/wasnorm_wordpool_less_exclusions.txt	LTP252	ltpFR	1	6	0	THIGH	1457	n/a	n/a	1	0.422607421875	0.5869140625	0	lower	amplitud.ttf
1294.5	n/a	WORD	647250	wordpools/wasnorm_wordpool_less_exclusions.txt	LTP252	ltpFR	1	6	0	SHORTCAKE	1292	n/a	n/a	0	0.422607421875	0.5869140625	0	lower	amplitud.ttf
1298.616	n/a	WORD	649308	wordpools/wasnorm_wordpool_less_exclusions.txt	LTP252	ltpFR	1	6	1	LIBRARY	816	n/a	n/a	0	0.57763671875	0.412841796875	1	upper	zerothre.ttf
1302.53	n/a	WORD	651265	wordpools/wasnorm_wordpool_less_exclusions.txt	LTP252	ltpFR	1	6	1	CHECK	284	n/a	n/a	0	0.57763671875	0.412841796875	1	upper	zerothre.ttf
1306.48	n/a	WORD	653240	wordpools/wasnorm_wordpool_less_exclusions.txt	LTP252	ltpFR	1	6	1	CENT	270	n/a	n/a	0	0.57763671875	0.412841796875	1	upper	zerothre.ttf
1312.47	n/a	REC_START	656235	n/a	LTP252	ltpFR	1	6	n/a	n/a	n/a	n/a	n/a	n/a	n/a	n/a	n/a	n/a	n/a
1313.52	n/a	REC_WORD	656760	wordpools/wasnorm_wordpool_less_exclusions.txt	LTP252	ltpFR	1	6	1	CENT	270	n/a	n/a	0	n/a	n/a	n/a	n/a	n/a
1314.604	n/a	REC_WORD	657302	wordpools/wasnorm_wordpool_less_exclusions.txt	LTP252	ltpFR	1	6	1	LIBRARY	816	n/a	n/a	0	n/a	n/a	n/a	n/a	n/a
1315.632	n/a	REC_WORD	657816	wordpools/wasnorm_wordpool_less_exclusions.txt	LTP252	ltpFR	1	6	0	SHORTCAKE	1292	n/a	n/a	0	n/a	n/a	n/a	n/a	n/a
1318.352	n/a	REC_WORD	659176	wordpools/wasnorm_wordpool_less_exclusions.txt	LTP252	ltpFR	1	6	0	THIGH	1457	n/a	n/a	1	n/a	n/a	n/a	n/a	n/a
1323.7	n/a	REC_WORD	661850	wordpools/wasnorm_wordpool_less_exclusions.txt	LTP252	ltpFR	1	6	0	RAIL	1161	n/a	n/a	1	n/a	n/a	n/a	n/a	n/a
1327.768	n/a	REC_WORD	663884	wordpools/wasnorm_wordpool_less_exclusions.txt	LTP252	ltpFR	1	6	0	STRANGER	1389	n/a	n/a	1	n/a	n/a	n/a	n/a	n/a
1394.348	n/a	WORD	697174	wordpools/wasnorm_wordpool_less_exclusions.txt	LTP252	ltpFR	1	7	0	FISH	571	n/a	n/a	0	0.422607421875	0.5869140625	0	lower	amplitud.ttf
1398.328	n/a	WORD	699164	wordpools/wasnorm_wordpool_less_exclusions.txt	LTP252	ltpFR	1	7	0	WORM	1623	n/a	n/a	0	0.422607421875	0.5869140625	0	lower	amplitud.ttf
1402.496	n/a	WORD	701248	wordpools/wasnorm_wordpool_less_exclusions.txt	LTP252	ltpFR	1	7	0	VINEGAR	1569	n/a	n/a	0	0.422607421875	0.5869140625	0	lower	amplitud.ttf
1406.662	n/a	WORD	703331	wordpools/wasnorm_wordpool_less_exclusions.txt	LTP252	ltpFR	1	7	0	NITROGEN	954	n/a	n/a	0	0.422607421875	0.5869140625	0	lower	amplitud.ttf
1410.662	n/a	WORD	705331	wordpools/wasnorm_wordpool_less_exclusions.txt	LTP252	ltpFR	1	7	0	KITE	779	n/a	n/a	1	0.422607421875	0.5869140625	0	lower	amplitud.ttf
1414.61	n/a	WORD	707305	wordpools/wasnorm_wordpool_less_exclusions.txt	LTP252	ltpFR	1	7	0	FLY	586	n/a	n/a	0	0.422607421875	0.5869140625	0	lower	amplitud.ttf
1418.774	n/a	WORD	709387	wordpools/wasnorm_wordpool_less_exclusions.txt	LTP252	ltpFR	1	7	0	DINNER	468	n/a	n/a	0	0.422607421875	0.5869140625	0	lower	amplitud.ttf
1422.908	n/a	WORD	711454	wordpools/wasnorm_wordpool_less_exclusions.txt	LTP252	ltpFR	1	7	0	QUARTER	1148	n/a	n/a	0	0.422607421875	0.5869140625	0	lower	amplitud.ttf
1427.04	n/a	WORD	713520	wordpools/wasnorm_wordpool_less_exclusions.txt	LTP252	ltpFR	1	7	0	ELEPHANT	523	n/a	n/a	1	0.422607421875	0.5869140625	0	lower	amplitud.ttf
1430.888	n/a	WORD	715444	wordpools/wasnorm_wordpool_less_exclusions.txt	LTP252	ltpFR	1	7	0	LADDER	793	n/a	n/a	1	0.422607421875	0.5869140625	0	lower	amplitud.ttf
1434.752	n/a	WORD	717376	wordpools/wasnorm_wordpool_less_exclusions.txt	LTP252	ltpFR	1	7	0	TOOTH	1481	n/a	n/a	0	0.422607421875	0.5869140625	0	lower	amplitud.ttf
1438.702	n/a	WORD	719351	wordpools/wasnorm_wordpool_less_exclusions.txt	LTP252	ltpFR	1	7	0	HOOD	714	n/a	n/a	1	0.422607421875	0.5869140625	0	lower	amplitud.ttf
1442.632	n/a	WORD	721316	wordpools/wasnorm_wordpool_less_exclusions.txt	LTP252	ltpFR	1	7	0	HAMMOCK	681	n/a	n/a	1	0.422607421875	0.5869140625	0	lower	amplitud.ttf
1446.464	n/a	WORD	723232	wordpools/wasnorm_wordpool_less_exclusions.txt	LTP252	ltpFR	1	7	0	ABDOMEN	1	n/a	n/a	1	0.422607421875	0.5869140625	0	lower	amplitud.ttf
1450.394	n/a	WORD	725197	wordpools/wasnorm_wordpool_less_exclusions.txt	LTP252	ltpFR	1	7	0	FEAST	556	n/a	n/a	1	0.422607421875	0.5869140625	0	lower	amplitud.ttf
1454.546	n/a	WORD	727273	wordpools/wasnorm_wordpool_less_exclusions.txt	LTP252	ltpFR	1	7	0	DRIVER	499	n/a	n/a	1	0.422607421875	0.5869140625	0	lower	amplitud.ttf
1460.552	n/a	REC_START	730276	n/a	LTP252	ltpFR	1	7	n/a	n/a	n/a	n/a	n/a	n/a	n/a	n/a	n/a	n/a	n/a
1461.936	n/a	REC_WORD	730968	wordpools/wasnorm_wordpool_less_exclusions.txt	LTP252	ltpFR	1	7	0	FEAST	556	n/a	n/a	1	n/a	n/a	n/a	n/a	n/a
1463.086	n/a	REC_WORD	731543	wordpools/wasnorm_wordpool_less_exclusions.txt	LTP252	ltpFR	1	7	0	DRIVER	499	n/a	n/a	1	n/a	n/a	n/a	n/a	n/a
1464.558	n/a	REC_WORD	732279	wordpools/wasnorm_wordpool_less_exclusions.txt	LTP252	ltpFR	1	7	0	DINNER	468	n/a	n/a	0	n/a	n/a	n/a	n/a	n/a
1465.816	n/a	REC_WORD	732908	wordpools/wasnorm_wordpool_less_exclusions.txt	LTP252	ltpFR	1	7	0	ELEPHANT	523	n/a	n/a	1	n/a	n/a	n/a	n/a	n/a
1467.842	n/a	REC_WORD	733921	wordpools/wasnorm_wordpool_less_exclusions.txt	LTP252	ltpFR	1	7	n/a	HOOK	715	n/a	n/a	n/a	n/a	n/a	n/a	n/a	n/a
1469.19	n/a	REC_WORD	734595	wordpools/wasnorm_wordpool_less_exclusions.txt	LTP252	ltpFR	1	7	0	FISH	571	n/a	n/a	0	n/a	n/a	n/a	n/a	n/a
1470.828	n/a	REC_WORD	735414	wordpools/wasnorm_wordpool_less_exclusions.txt	LTP252	ltpFR	1	7	0	WORM	1623	n/a	n/a	0	n/a	n/a	n/a	n/a	n/a
1472.232	n/a	REC_WORD	736116	wordpools/wasnorm_wordpool_less_exclusions.txt	LTP252	ltpFR	1	7	0	VINEGAR	1569	n/a	n/a	0	n/a	n/a	n/a	n/a	n/a
1476.206	n/a	REC_WORD	738103	wordpools/wasnorm_wordpool_less_exclusions.txt	LTP252	ltpFR	1	7	0	FEAST	556	n/a	n/a	1	n/a	n/a	n/a	n/a	n/a
1482.7	n/a	REC_WORD	741350	wordpools/wasnorm_wordpool_less_exclusions.txt	LTP252	ltpFR	1	7	0	TOOTH	1481	n/a	n/a	0	n/a	n/a	n/a	n/a	n/a
1483.862	n/a	REC_WORD	741931	wordpools/wasnorm_wordpool_less_exclusions.txt	LTP252	ltpFR	1	7	0	ABDOMEN	1	n/a	n/a	1	n/a	n/a	n/a	n/a	n/a
1506.36	n/a	REC_WORD	753180	wordpools/wasnorm_wordpool_less_exclusions.txt	LTP252	ltpFR	1	7	0	LADDER	793	n/a	n/a	1	n/a	n/a	n/a	n/a	n/a
1541.378	n/a	WORD	770689	wordpools/wasnorm_wordpool_less_exclusions.txt	LTP252	ltpFR	1	8	1	DESIGNER	451	n/a	n/a	1	0.57763671875	0.412841796875	1	upper	zerothre.ttf
1545.51	n/a	WORD	772755	wordpools/wasnorm_wordpool_less_exclusions.txt	LTP252	ltpFR	1	8	1	SUPERMARKET	1409	n/a	n/a	0	0.57763671875	0.412841796875	1	upper	zerothre.ttf
1549.692	n/a	WORD	774846	wordpools/wasnorm_wordpool_less_exclusions.txt	LTP252	ltpFR	1	8	1	VEGETABLE	1552	n/a	n/a	1	0.57763671875	0.412841796875	1	upper	zerothre.ttf
1553.808	n/a	WORD	776904	wordpools/wasnorm_wordpool_less_exclusions.txt	LTP252	ltpFR	1	8	1	LEADER	807	n/a	n/a	1	0.57763671875	0.412841796875	1	upper	zerothre.ttf
1557.84	n/a	WORD	778920	wordpools/wasnorm_wordpool_less_exclusions.txt	LTP252	ltpFR	1	8	1	FOLLOWER	589	n/a	n/a	1	0.57763671875	0.412841796875	1	upper	zerothre.ttf
1562.04	n/a	WORD	781020	wordpools/wasnorm_wordpool_less_exclusions.txt	LTP252	ltpFR	1	8	1	GARLIC	624	n/a	n/a	1	0.57763671875	0.412841796875	1	upper	zerothre.ttf
1566.12	n/a	WORD	783060	wordpools/wasnorm_wordpool_less_exclusions.txt	LTP252	ltpFR	1	8	1	LINT	826	n/a	n/a	0	0.57763671875	0.412841796875	1	upper	zerothre.ttf
1570.118	n/a	WORD	785059	wordpools/wasnorm_wordpool_less_exclusions.txt	LTP252	ltpFR	1	8	1	COLT	349	n/a	n/a	1	0.57763671875	0.412841796875	1	upper	zerothre.ttf
1574.336	n/a	WORD	787168	wordpools/wasnorm_wordpool_less_exclusions.txt	LTP252	ltpFR	1	8	1	COWBOY	395	n/a	n/a	1	0.57763671875	0.412841796875	1	upper	zerothre.ttf
1578.318	n/a	WORD	789159	wordpools/wasnorm_wordpool_less_exclusions.txt	LTP252	ltpFR	1	8	1	LIEUTENANT	818	n/a	n/a	1	0.57763671875	0.412841796875	1	upper	zerothre.ttf
1582.384	n/a	WORD	791192	wordpools/wasnorm_wordpool_less_exclusions.txt	LTP252	ltpFR	1	8	1	BEARD	107	n/a	n/a	0	0.57763671875	0.412841796875	1	upper	zerothre.ttf
1586.416	n/a	WORD	793208	wordpools/wasnorm_wordpool_less_exclusions.txt	LTP252	ltpFR	1	8	1	DRAWER	493	n/a	n/a	0	0.57763671875	0.412841796875	1	upper	zerothre.ttf
1590.246	n/a	WORD	795123	wordpools/wasnorm_wordpool_less_exclusions.txt	LTP252	ltpFR	1	8	1	MICROWAVE	892	n/a	n/a	0	0.57763671875	0.412841796875	1	upper	zerothre.ttf
1594.08	n/a	WORD	797040	wordpools/wasnorm_wordpool_less_exclusions.txt	LTP252	ltpFR	1	8	1	LEOPARD	812	n/a	n/a	1	0.57763671875	0.412841796875	1	upper	zerothre.ttf
1598.228	n/a	WORD	799114	wordpools/wasnorm_wordpool_less_exclusions.txt	LTP252	ltpFR	1	8	1	DIRT	472	n/a	n/a	0	0.57763671875	0.412841796875	1	upper	zerothre.ttf
1602.16	n/a	WORD	801080	wordpools/wasnorm_wordpool_less_exclusions.txt	LTP252	ltpFR	1	8	1	CHIP	303	n/a	n/a	0	0.57763671875	0.412841796875	1	upper	zerothre.ttf
1607.948	n/a	REC_START	803974	n/a	LTP252	ltpFR	1	8	n/a	n/a	n/a	n/a	n/a	n/a	n/a	n/a	n/a	n/a	n/a
1609.186	n/a	REC_WORD	804593	wordpools/wasnorm_wordpool_less_exclusions.txt	LTP252	ltpFR	1	8	1	CHIP	303	n/a	n/a	0	n/a	n/a	n/a	n/a	n/a
1610.566	n/a	REC_WORD	805283	wordpools/wasnorm_wordpool_less_exclusions.txt	LTP252	ltpFR	1	8	1	DIRT	472	n/a	n/a	0	n/a	n/a	n/a	n/a	n/a
1612.016	n/a	REC_WORD	806008	wordpools/wasnorm_wordpool_less_exclusions.txt	LTP252	ltpFR	1	8	1	LEADER	807	n/a	n/a	1	n/a	n/a	n/a	n/a	n/a
1613.2	n/a	REC_WORD	806600	wordpools/wasnorm_wordpool_less_exclusions.txt	LTP252	ltpFR	1	8	1	FOLLOWER	589	n/a	n/a	1	n/a	n/a	n/a	n/a	n/a
1614.806	n/a	REC_WORD	807403	wordpools/wasnorm_wordpool_less_exclusions.txt	LTP252	ltpFR	1	8	1	LIEUTENANT	818	n/a	n/a	1	n/a	n/a	n/a	n/a	n/a
1618.076	n/a	REC_WORD	809038	wordpools/wasnorm_wordpool_less_exclusions.txt	LTP252	ltpFR	1	8	1	VEGETABLE	1552	n/a	n/a	1	n/a	n/a	n/a	n/a	n/a
1620.952	n/a	REC_WORD	810476	wordpools/wasnorm_wordpool_less_exclusions.txt	LTP252	ltpFR	1	8	1	CHIP	303	n/a	n/a	0	n/a	n/a	n/a	n/a	n/a
1624.128	n/a	REC_WORD	812064	wordpools/wasnorm_wordpool_less_exclusions.txt	LTP252	ltpFR	1	8	1	GARLIC	624	n/a	n/a	1	n/a	n/a	n/a	n/a	n/a
1634.37	n/a	REC_WORD	817185	wordpools/wasnorm_wordpool_less_exclusions.txt	LTP252	ltpFR	1	8	n/a	WRITER	1627	n/a	n/a	n/a	n/a	n/a	n/a	n/a	n/a
1689.494	n/a	WORD	844747	wordpools/wasnorm_wordpool_less_exclusions.txt	LTP252	ltpFR	1	9	0	DANDELION	438	n/a	n/a	0	0.422607421875	0.5869140625	0	lower	amplitud.ttf
1693.624	n/a	WORD	846812	wordpools/wasnorm_wordpool_less_exclusions.txt	LTP252	ltpFR	1	9	0	PUPIL	1143	n/a	n/a	0	0.422607421875	0.5869140625	0	lower	amplitud.ttf
1697.59	n/a	WORD	848795	wordpools/wasnorm_wordpool_less_exclusions.txt	LTP252	ltpFR	1	9	0	QUILL	1150	n/a	n/a	0	0.422607421875	0.5869140625	0	lower	amplitud.ttf
1701.52	n/a	WORD	850760	wordpools/wasnorm_wordpool_less_exclusions.txt	LTP252	ltpFR	1	9	0	JUG	762	n/a	n/a	0	0.422607421875	0.5869140625	0	lower	amplitud.ttf
1705.672	n/a	WORD	852836	wordpools/wasnorm_wordpool_less_exclusions.txt	LTP252	ltpFR	1	9	1	GARDEN	623	n/a	n/a	1	0.57763671875	0.412841796875	1	upper	zerothre.ttf
1709.586	n/a	WORD	854793	wordpools/wasnorm_wordpool_less_exclusions.txt	LTP252	ltpFR	1	9	1	COD	340	n/a	n/a	1	0.57763671875	0.412841796875	1	upper	zerothre.ttf
1713.452	n/a	WORD	856726	wordpools/wasnorm_wordpool_less_exclusions.txt	LTP252	ltpFR	1	9	1	WHISKERS	1605	n/a	n/a	0	0.57763671875	0.412841796875	1	upper	zerothre.ttf
1717.534	n/a	WORD	858767	wordpools/wasnorm_wordpool_less_exclusions.txt	LTP252	ltpFR	1	9	1	WAITRESS	1581	n/a	n/a	1	0.57763671875	0.412841796875	1	upper	zerothre.ttf
1721.682	n/a	WORD	860841	wordpools/wasnorm_wordpool_less_exclusions.txt	LTP252	ltpFR	1	9	0	SHRIMP	1297	n/a	n/a	0	0.422607421875	0.5869140625	0	lower	amplitud.ttf
1725.732	n/a	WORD	862866	wordpools/wasnorm_wordpool_less_exclusions.txt	LTP252	ltpFR	1	9	0	SEAL	1262	n/a	n/a	1	0.422607421875	0.5869140625	0	lower	amplitud.ttf
1729.698	n/a	WORD	864849	wordpools/wasnorm_wordpool_less_exclusions.txt	LTP252	ltpFR	1	9	1	HEDGE	699	n/a	n/a	0	0.57763671875	0.412841796875	1	upper	zerothre.ttf
1733.728	n/a	WORD	866864	wordpools/wasnorm_wordpool_less_exclusions.txt	LTP252	ltpFR	1	9	1	SAP	1233	n/a	n/a	0	0.57763671875	0.412841796875	1	upper	zerothre.ttf
1737.594	n/a	WORD	868797	wordpools/wasnorm_wordpool_less_exclusions.txt	LTP252	ltpFR	1	9	1	CHIPMUNK	304	n/a	n/a	1	0.57763671875	0.412841796875	1	upper	zerothre.ttf
1741.742	n/a	WORD	870871	wordpools/wasnorm_wordpool_less_exclusions.txt	LTP252	ltpFR	1	9	1	WALRUS	1585	n/a	n/a	1	0.57763671875	0.412841796875	1	upper	zerothre.ttf
1745.842	n/a	WORD	872921	wordpools/wasnorm_wordpool_less_exclusions.txt	LTP252	ltpFR	1	9	0	STAMP	1370	n/a	n/a	0	0.422607421875	0.5869140625	0	lower	amplitud.ttf
1749.79	n/a	WORD	874895	wordpools/wasnorm_wordpool_less_exclusions.txt	LTP252	ltpFR	1	9	0	LION	827	n/a	n/a	1	0.422607421875	0.5869140625	0	lower	amplitud.ttf
1755.496	n/a	REC_START	877748	n/a	LTP252	ltpFR	1	9	n/a	n/a	n/a	n/a	n/a	n/a	n/a	n/a	n/a	n/a	n/a
1756.462	n/a	REC_WORD	878231	wordpools/wasnorm_wordpool_less_exclusions.txt	LTP252	ltpFR	1	9	0	LION	827	n/a	n/a	1	n/a	n/a	n/a	n/a	n/a
1757.642	n/a	REC_WORD	878821	wordpools/wasnorm_wordpool_less_exclusions.txt	LTP252	ltpFR	1	9	1	WALRUS	1585	n/a	n/a	1	n/a	n/a	n/a	n/a	n/a
1758.88	n/a	REC_WORD	879440	wordpools/wasnorm_wordpool_less_exclusions.txt	LTP252	ltpFR	1	9	0	STAMP	1370	n/a	n/a	0	n/a	n/a	n/a	n/a	n/a
1761.68	n/a	REC_WORD	880840	wordpools/wasnorm_wordpool_less_exclusions.txt	LTP252	ltpFR	1	9	1	HEDGE	699	n/a	n/a	0	n/a	n/a	n/a	n/a	n/a
1769.036	n/a	REC_WORD	884518	wordpools/wasnorm_wordpool_less_exclusions.txt	LTP252	ltpFR	1	9	1	CHIPMUNK	304	n/a	n/a	1	n/a	n/a	n/a	n/a	n/a
1789.644	n/a	REC_WORD	894822	wordpools/wasnorm_wordpool_less_exclusions.txt	LTP252	ltpFR	1	9	1	LEOPARD	812	n/a	n/a	1	n/a	n/a	n/a	n/a	n/a
1808.678	n/a	REC_WORD	904339	wordpools/wasnorm_wordpool_less_exclusions.txt	LTP252	ltpFR	1	9	0	DANDELION	438	n/a	n/a	0	n/a	n/a	n/a	n/a	n/a
1836.236	n/a	WORD	918118	wordpools/wasnorm_wordpool_less_exclusions.txt	LTP252	ltpFR	1	10	0	SHOE	1288	n/a	n/a	0	0.422607421875	0.5869140625	0	lower	amplitud.ttf
1840.418	n/a	WORD	920209	wordpools/wasnorm_wordpool_less_exclusions.txt	LTP252	ltpFR	1	10	0	DRUM	502	n/a	n/a	1	0.422607421875	0.5869140625	0	lower	amplitud.ttf
1844.418	n/a	WORD	922209	wordpools/wasnorm_wordpool_less_exclusions.txt	LTP252	ltpFR	1	10	0	PICTURE	1061	n/a	n/a	0	0.422607421875	0.5869140625	0	lower	amplitud.ttf
1848.568	n/a	WORD	924284	wordpools/wasnorm_wordpool_less_exclusions.txt	LTP252	ltpFR	1	10	0	SCENERY	1247	n/a	n/a	1	0.422607421875	0.5869140625	0	lower	amplitud.ttf
1852.45	n/a	WORD	926225	wordpools/wasnorm_wordpool_less_exclusions.txt	LTP252	ltpFR	1	10	0	EDITORIAL	517	n/a	n/a	1	0.422607421875	0.5869140625	0	lower	amplitud.ttf
1856.648	n/a	WORD	928324	wordpools/wasnorm_wordpool_less_exclusions.txt	LTP252	ltpFR	1	10	0	ARTICLE	42	n/a	n/a	1	0.422607421875	0.5869140625	0	lower	amplitud.ttf
1860.53	n/a	WORD	930265	wordpools/wasnorm_wordpool_less_exclusions.txt	LTP252	ltpFR	1	10	0	STREAM	1392	n/a	n/a	1	0.422607421875	0.5869140625	0	lower	amplitud.ttf
1864.496	n/a	WORD	932248	wordpools/wasnorm_wordpool_less_exclusions.txt	LTP252	ltpFR	1	10	0	CUSTOMER	430	n/a	n/a	1	0.422607421875	0.5869140625	0	lower	amplitud.ttf
1868.61	n/a	WORD	934305	wordpools/wasnorm_wordpool_less_exclusions.txt	LTP252	ltpFR	1	10	0	PARTY	1018	n/a	n/a	1	0.422607421875	0.5869140625	0	lower	amplitud.ttf
1872.66	n/a	WORD	936330	wordpools/wasnorm_wordpool_less_exclusions.txt	LTP252	ltpFR	1	10	0	CANVAS	234	n/a	n/a	1	0.422607421875	0.5869140625	0	lower	amplitud.ttf
1876.792	n/a	WORD	938396	wordpools/wasnorm_wordpool_less_exclusions.txt	LTP252	ltpFR	1	10	0	POLE	1097	n/a	n/a	1	0.422607421875	0.5869140625	0	lower	amplitud.ttf
1880.926	n/a	WORD	940463	wordpools/wasnorm_wordpool_less_exclusions.txt	LTP252	ltpFR	1	10	0	GALAXY	617	n/a	n/a	1	0.422607421875	0.5869140625	0	lower	amplitud.ttf
1885.058	n/a	WORD	942529	wordpools/wasnorm_wordpool_less_exclusions.txt	LTP252	ltpFR	1	10	0	PAINT	1003	n/a	n/a	1	0.422607421875	0.5869140625	0	lower	amplitud.ttf
1889.022	n/a	WORD	944511	wordpools/wasnorm_wordpool_less_exclusions.txt	LTP252	ltpFR	1	10	0	SALESMAN	1225	n/a	n/a	1	0.422607421875	0.5869140625	0	lower	amplitud.ttf
1893.12	n/a	WORD	946560	wordpools/wasnorm_wordpool_less_exclusions.txt	LTP252	ltpFR	1	10	0	CORAL	378	n/a	n/a	1	0.422607421875	0.5869140625	0	lower	amplitud.ttf
1897.322	n/a	WORD	948661	wordpools/wasnorm_wordpool_less_exclusions.txt	LTP252	ltpFR	1	10	0	SWORD	1423	n/a	n/a	1	0.422607421875	0.5869140625	0	lower	amplitud.ttf
1903.16	n/a	REC_START	951580	n/a	LTP252	ltpFR	1	10	n/a	n/a	n/a	n/a	n/a	n/a	n/a	n/a	n/a	n/a	n/a
1904.168	n/a	REC_WORD	952084	wordpools/wasnorm_wordpool_less_exclusions.txt	LTP252	ltpFR	1	10	0	SWORD	1423	n/a	n/a	1	n/a	n/a	n/a	n/a	n/a
1905.104	n/a	REC_WORD	952552	wordpools/wasnorm_wordpool_less_exclusions.txt	LTP252	ltpFR	1	10	0	SALESMAN	1225	n/a	n/a	1	n/a	n/a	n/a	n/a	n/a
1906.708	n/a	REC_WORD	953354	wordpools/wasnorm_wordpool_less_exclusions.txt	LTP252	ltpFR	1	10	0	CORAL	378	n/a	n/a	1	n/a	n/a	n/a	n/a	n/a
1907.96	n/a	REC_WORD	953980	wordpools/wasnorm_wordpool_less_exclusions.txt	LTP252	ltpFR	1	10	0	GALAXY	617	n/a	n/a	1	n/a	n/a	n/a	n/a	n/a
1910.06	n/a	REC_WORD	955030	wordpools/wasnorm_wordpool_less_exclusions.txt	LTP252	ltpFR	1	10	0	ARTICLE	42	n/a	n/a	1	n/a	n/a	n/a	n/a	n/a
1911.174	n/a	REC_WORD	955587	wordpools/wasnorm_wordpool_less_exclusions.txt	LTP252	ltpFR	1	10	0	EDITORIAL	517	n/a	n/a	1	n/a	n/a	n/a	n/a	n/a
1916.044	n/a	REC_WORD	958022	wordpools/wasnorm_wordpool_less_exclusions.txt	LTP252	ltpFR	1	10	n/a	SUNSET	1408	n/a	n/a	n/a	n/a	n/a	n/a	n/a	n/a
1920.392	n/a	REC_WORD	960196	wordpools/wasnorm_wordpool_less_exclusions.txt	LTP252	ltpFR	1	10	0	SCENERY	1247	n/a	n/a	1	n/a	n/a	n/a	n/a	n/a
1927.854	n/a	REC_WORD	963927	wordpools/wasnorm_wordpool_less_exclusions.txt	LTP252	ltpFR	1	10	0	PAINT	1003	n/a	n/a	1	n/a	n/a	n/a	n/a	n/a
1974.446	n/a	REC_WORD	987223	wordpools/wasnorm_wordpool_less_exclusions.txt	LTP252	ltpFR	1	10	0	SWORD	1423	n/a	n/a	1	n/a	n/a	n/a	n/a	n/a
1984.956	n/a	WORD	992478	wordpools/wasnorm_wordpool_less_exclusions.txt	LTP252	ltpFR	1	11	1	CROCODILE	411	n/a	n/a	1	0.57763671875	0.412841796875	1	upper	zerothre.ttf
1988.92	n/a	WORD	994460	wordpools/wasnorm_wordpool_less_exclusions.txt	LTP252	ltpFR	1	11	1	FLASK	576	n/a	n/a	0	0.57763671875	0.412841796875	1	upper	zerothre.ttf
1992.836	n/a	WORD	996418	wordpools/wasnorm_wordpool_less_exclusions.txt	LTP252	ltpFR	1	11	0	CAPITAL	238	n/a	n/a	1	0.422607421875	0.5869140625	0	lower	amplitud.ttf
1996.966	n/a	WORD	998483	wordpools/wasnorm_wordpool_less_exclusions.txt	LTP252	ltpFR	1	11	0	BANANA	77	n/a	n/a	0	0.422607421875	0.5869140625	0	lower	amplitud.ttf
2001.048	n/a	WORD	1000524	wordpools/wasnorm_wordpool_less_exclusions.txt	LTP252	ltpFR	1	11	0	CRAB	397	n/a	n/a	0	0.422607421875	0.5869140625	0	lower	amplitud.ttf
2005.014	n/a	WORD	1002507	wordpools/wasnorm_wordpool_less_exclusions.txt	LTP252	ltpFR	1	11	0	HAM	678	n/a	n/a	0	0.422607421875	0.5869140625	0	lower	amplitud.ttf
2009.232	n/a	WORD	1004616	wordpools/wasnorm_wordpool_less_exclusions.txt	LTP252	ltpFR	1	11	0	TIDE	1465	n/a	n/a	1	0.422607421875	0.5869140625	0	lower	amplitud.ttf
2013.298	n/a	WORD	1006649	wordpools/wasnorm_wordpool_less_exclusions.txt	LTP252	ltpFR	1	11	1	PRIMATE	1123	n/a	n/a	1	0.57763671875	0.412841796875	1	upper	zerothre.ttf
2017.494	n/a	WORD	1008747	wordpools/wasnorm_wordpool_less_exclusions.txt	LTP252	ltpFR	1	11	1	BALLOON	75	n/a	n/a	0	0.57763671875	0.412841796875	1	upper	zerothre.ttf
2021.412	n/a	WORD	1010706	wordpools/wasnorm_wordpool_less_exclusions.txt	LTP252	ltpFR	1	11	1	PUMP	1141	n/a	n/a	0	0.57763671875	0.412841796875	1	upper	zerothre.ttf
2025.326	n/a	WORD	1012663	wordpools/wasnorm_wordpool_less_exclusions.txt	LTP252	ltpFR	1	11	1	CLAM	315	n/a	n/a	1	0.57763671875	0.412841796875	1	upper	zerothre.ttf
2029.292	n/a	WORD	1014646	wordpools/wasnorm_wordpool_less_exclusions.txt	LTP252	ltpFR	1	11	1	BADGE	68	n/a	n/a	0	0.57763671875	0.412841796875	1	upper	zerothre.ttf
2033.358	n/a	WORD	1016679	wordpools/wasnorm_wordpool_less_exclusions.txt	LTP252	ltpFR	1	11	1	CASTLE	256	n/a	n/a	0	0.57763671875	0.412841796875	1	upper	zerothre.ttf
2037.188	n/a	WORD	1018594	wordpools/wasnorm_wordpool_less_exclusions.txt	LTP252	ltpFR	1	11	0	QUEEN	1149	n/a	n/a	1	0.422607421875	0.5869140625	0	lower	amplitud.ttf
2041.136	n/a	WORD	1020568	wordpools/wasnorm_wordpool_less_exclusions.txt	LTP252	ltpFR	1	11	0	POLICE	1098	n/a	n/a	1	0.422607421875	0.5869140625	0	lower	amplitud.ttf
2045.136	n/a	WORD	1022568	wordpools/wasnorm_wordpool_less_exclusions.txt	LTP252	ltpFR	1	11	0	COAL	332	n/a	n/a	0	0.422607421875	0.5869140625	0	lower	amplitud.ttf
2050.926	n/a	REC_START	1025463	n/a	LTP252	ltpFR	1	11	n/a	n/a	n/a	n/a	n/a	n/a	n/a	n/a	n/a	n/a	n/a
2051.716	n/a	REC_WORD	1025858	wordpools/wasnorm_wordpool_less_exclusions.txt	LTP252	ltpFR	1	11	0	COAL	332	n/a	n/a	0	n/a	n/a	n/a	n/a	n/a
2052.676	n/a	REC_WORD	1026338	wordpools/wasnorm_wordpool_less_exclusions.txt	LTP252	ltpFR	1	11	0	QUEEN	1149	n/a	n/a	1	n/a	n/a	n/a	n/a	n/a
2053.648	n/a	REC_WORD	1026824	wordpools/wasnorm_wordpool_less_exclusions.txt	LTP252	ltpFR	1	11	0	POLICE	1098	n/a	n/a	1	n/a	n/a	n/a	n/a	n/a
2054.894	n/a	REC_WORD	1027447	wordpools/wasnorm_wordpool_less_exclusions.txt	LTP252	ltpFR	1	11	1	BADGE	68	n/a	n/a	0	n/a	n/a	n/a	n/a	n/a
2057.374	n/a	REC_WORD	1028687	wordpools/wasnorm_wordpool_less_exclusions.txt	LTP252	ltpFR	1	11	1	CROCODILE	411	n/a	n/a	1	n/a	n/a	n/a	n/a	n/a
2059.338	n/a	REC_WORD	1029669	wordpools/wasnorm_wordpool_less_exclusions.txt	LTP252	ltpFR	1	11	1	CLAM	315	n/a	n/a	1	n/a	n/a	n/a	n/a	n/a
2134.544	n/a	WORD	1067272	wordpools/wasnorm_wordpool_less_exclusions.txt	LTP252	ltpFR	1	12	1	SHELL	1281	n/a	n/a	0	0.57763671875	0.412841796875	1	upper	zerothre.ttf
2138.458	n/a	WORD	1069229	wordpools/wasnorm_wordpool_less_exclusions.txt	LTP252	ltpFR	1	12	1	NET	946	n/a	n/a	0	0.57763671875	0.412841796875	1	upper	zerothre.ttf
2142.542	n/a	WORD	1071271	wordpools/wasnorm_wordpool_less_exclusions.txt	LTP252	ltpFR	1	12	1	FOREST	593	n/a	n/a	1	0.57763671875	0.412841796875	1	upper	zerothre.ttf
2146.606	n/a	WORD	1073303	wordpools/wasnorm_wordpool_less_exclusions.txt	LTP252	ltpFR	1	12	1	STAKE	1368	n/a	n/a	0	0.57763671875	0.412841796875	1	upper	zerothre.ttf
2150.622	n/a	WORD	1075311	wordpools/wasnorm_wordpool_less_exclusions.txt	LTP252	ltpFR	1	12	1	FRIEND	606	n/a	n/a	1	0.57763671875	0.412841796875	1	upper	zerothre.ttf
2154.754	n/a	WORD	1077377	wordpools/wasnorm_wordpool_less_exclusions.txt	LTP252	ltpFR	1	12	1	PUMPKIN	1142	n/a	n/a	1	0.57763671875	0.412841796875	1	upper	zerothre.ttf
2158.654	n/a	WORD	1079327	wordpools/wasnorm_wordpool_less_exclusions.txt	LTP252	ltpFR	1	12	1	POTATO	1115	n/a	n/a	1	0.57763671875	0.412841796875	1	upper	zerothre.ttf
2162.518	n/a	WORD	1081259	wordpools/wasnorm_wordpool_less_exclusions.txt	LTP252	ltpFR	1	12	1	SALAD	1224	n/a	n/a	1	0.57763671875	0.412841796875	1	upper	zerothre.ttf
2166.432	n/a	WORD	1083216	wordpools/wasnorm_wordpool_less_exclusions.txt	LTP252	ltpFR	1	12	1	CAT	257	n/a	n/a	1	0.57763671875	0.412841796875	1	upper	zerothre.ttf
2170.514	n/a	WORD	1085257	wordpools/wasnorm_wordpool_less_exclusions.txt	LTP252	ltpFR	1	12	1	APRON	35	n/a	n/a	0	0.57763671875	0.412841796875	1	upper	zerothre.ttf
2174.646	n/a	WORD	1087323	wordpools/wasnorm_wordpool_less_exclusions.txt	LTP252	ltpFR	1	12	1	PARENT	1013	n/a	n/a	1	0.57763671875	0.412841796875	1	upper	zerothre.ttf
2178.696	n/a	WORD	1089348	wordpools/wasnorm_wordpool_less_exclusions.txt	LTP252	ltpFR	1	12	1	KITTEN	780	n/a	n/a	1	0.57763671875	0.412841796875	1	upper	zerothre.ttf
2182.592	n/a	WORD	1091296	wordpools/wasnorm_wordpool_less_exclusions.txt	LTP252	ltpFR	1	12	1	PEAR	1033	n/a	n/a	1	0.57763671875	0.412841796875	1	upper	zerothre.ttf
2186.442	n/a	WORD	1093221	wordpools/wasnorm_wordpool_less_exclusions.txt	LTP252	ltpFR	1	12	1	PRUNE	1134	n/a	n/a	1	0.57763671875	0.412841796875	1	upper	zerothre.ttf
2190.356	n/a	WORD	1095178	wordpools/wasnorm_wordpool_less_exclusions.txt	LTP252	ltpFR	1	12	1	ACORN	3	n/a	n/a	1	0.57763671875	0.412841796875	1	upper	zerothre.ttf
2194.522	n/a	WORD	1097261	wordpools/wasnorm_wordpool_less_exclusions.txt	LTP252	ltpFR	1	12	1	DAUGHTER	442	n/a	n/a	1	0.57763671875	0.412841796875	1	upper	zerothre.ttf
2200.28	n/a	REC_START	1100140	n/a	LTP252	ltpFR	1	12	n/a	n/a	n/a	n/a	n/a	n/a	n/a	n/a	n/a	n/a	n/a
2201.436	n/a	REC_WORD	1100718	wordpools/wasnorm_wordpool_less_exclusions.txt	LTP252	ltpFR	1	12	1	DAUGHTER	442	n/a	n/a	1	n/a	n/a	n/a	n/a	n/a
2202.406	n/a	REC_WORD	1101203	wordpools/wasnorm_wordpool_less_exclusions.txt	LTP252	ltpFR	1	12	1	ACORN	3	n/a	n/a	1	n/a	n/a	n/a	n/a	n/a
2203.892	n/a	REC_WORD	1101946	wordpools/wasnorm_wordpool_less_exclusions.txt	LTP252	ltpFR	1	12	1	CAT	257	n/a	n/a	1	n/a	n/a	n/a	n/a	n/a
2205.046	n/a	REC_WORD	1102523	wordpools/wasnorm_wordpool_less_exclusions.txt	LTP252	ltpFR	1	12	1	KITTEN	780	n/a	n/a	1	n/a	n/a	n/a	n/a	n/a
2206.912	n/a	REC_WORD	1103456	wordpools/wasnorm_wordpool_less_exclusions.txt	LTP252	ltpFR	1	12	1	PARENT	1013	n/a	n/a	1	n/a	n/a	n/a	n/a	n/a
2208.232	n/a	REC_WORD	1104116	wordpools/wasnorm_wordpool_less_exclusions.txt	LTP252	ltpFR	1	12	1	FOREST	593	n/a	n/a	1	n/a	n/a	n/a	n/a	n/a
2220.598	n/a	REC_WORD	1110299	wordpools/wasnorm_wordpool_less_exclusions.txt	LTP252	ltpFR	1	12	n/a	SHELLFISH	-1	n/a	n/a	n/a	n/a	n/a	n/a	n/a	n/a
2226.978	n/a	REC_WORD	1113489	wordpools/wasnorm_wordpool_less_exclusions.txt	LTP252	ltpFR	1	12	1	SALAD	1224	n/a	n/a	1	n/a	n/a	n/a	n/a	n/a
2229.818	n/a	REC_WORD	1114909	wordpools/wasnorm_wordpool_less_exclusions.txt	LTP252	ltpFR	1	12	n/a	PEACH	1031	n/a	n/a	n/a	n/a	n/a	n/a	n/a	n/a
2273.35	n/a	REC_WORD	1136675	wordpools/wasnorm_wordpool_less_exclusions.txt	LTP252	ltpFR	1	12	1	PRUNE	1134	n/a	n/a	1	n/a	n/a	n/a	n/a	n/a
2275.934	n/a	REST_REWET	1137967	n/a	LTP252	ltpFR	1	12	n/a	n/a	n/a	n/a	n/a	n/a	n/a	n/a	n/a	n/a	n/a
2750.548	n/a	WORD	1375274	wordpools/wasnorm_wordpool_less_exclusions.txt	LTP252	ltpFR	1	13	-1	RADISH	1158	n/a	n/a	-1	1.0	1.0	1	upper	Verdana.ttf
2754.48	n/a	WORD	1377240	wordpools/wasnorm_wordpool_less_exclusions.txt	LTP252	ltpFR	1	13	-1	PIER	1063	n/a	n/a	-1	1.0	1.0	1	upper	Verdana.ttf
2758.562	n/a	WORD	1379281	wordpools/wasnorm_wordpool_less_exclusions.txt	LTP252	ltpFR	1	13	-1	LAGOON	795	n/a	n/a	-1	1.0	1.0	1	upper	Verdana.ttf
2762.678	n/a	WORD	1381339	wordpools/wasnorm_wordpool_less_exclusions.txt	LTP252	ltpFR	1	13	-1	CAFETERIA	217	n/a	n/a	-1	1.0	1.0	1	upper	Verdana.ttf
2766.71	n/a	WORD	1383355	wordpools/wasnorm_wordpool_less_exclusions.txt	LTP252	ltpFR	1	13	-1	VAULT	1550	n/a	n/a	-1	1.0	1.0	1	upper	Verdana.ttf
2770.676	n/a	WORD	1385338	wordpools/wasnorm_wordpool_less_exclusions.txt	LTP252	ltpFR	1	13	-1	CLIFF	322	n/a	n/a	-1	1.0	1.0	1	upper	Verdana.ttf
2774.64	n/a	WORD	1387320	wordpools/wasnorm_wordpool_less_exclusions.txt	LTP252	ltpFR	1	13	-1	ASH	44	n/a	n/a	-1	1.0	1.0	1	upper	Verdana.ttf
2778.688	n/a	WORD	1389344	wordpools/wasnorm_wordpool_less_exclusions.txt	LTP252	ltpFR	1	13	-1	FIREMAN	569	n/a	n/a	-1	1.0	1.0	1	upper	Verdana.ttf
2782.638	n/a	WORD	1391319	wordpools/wasnorm_wordpool_less_exclusions.txt	LTP252	ltpFR	1	13	-1	SIRLOIN	1311	n/a	n/a	-1	1.0	1.0	1	upper	Verdana.ttf
2786.62	n/a	WORD	1393310	wordpools/wasnorm_wordpool_less_exclusions.txt	LTP252	ltpFR	1	13	-1	VEAL	1551	n/a	n/a	-1	1.0	1.0	1	upper	Verdana.ttf
2790.518	n/a	WORD	1395259	wordpools/wasnorm_wordpool_less_exclusions.txt	LTP252	ltpFR	1	13	-1	LACE	792	n/a	n/a	-1	1.0	1.0	1	upper	Verdana.ttf
2794.566	n/a	WORD	1397283	wordpools/wasnorm_wordpool_less_exclusions.txt	LTP252	ltpFR	1	13	-1	SKIN	1318	n/a	n/a	-1	1.0	1.0	1	upper	Verdana.ttf
2798.464	n/a	WORD	1399232	wordpools/wasnorm_wordpool_less_exclusions.txt	LTP252	ltpFR	1	13	-1	CAULIFLOWER	262	n/a	n/a	-1	1.0	1.0	1	upper	Verdana.ttf
2802.53	n/a	WORD	1401265	wordpools/wasnorm_wordpool_less_exclusions.txt	LTP252	ltpFR	1	13	-1	WRIST	1626	n/a	n/a	-1	1.0	1.0	1	upper	Verdana.ttf
2806.696	n/a	WORD	1403348	wordpools/wasnorm_wordpool_less_exclusions.txt	LTP252	ltpFR	1	13	-1	PASTRY	1022	n/a	n/a	-1	1.0	1.0	1	upper	Verdana.ttf
2810.544	n/a	WORD	1405272	wordpools/wasnorm_wordpool_less_exclusions.txt	LTP252	ltpFR	1	13	-1	POND	1101	n/a	n/a	-1	1.0	1.0	1	upper	Verdana.ttf
2816.266	n/a	REC_START	1408133	n/a	LTP252	ltpFR	1	13	n/a	n/a	n/a	n/a	n/a	n/a	n/a	n/a	n/a	n/a	n/a
2817.656	n/a	REC_WORD	1408828	wordpools/wasnorm_wordpool_less_exclusions.txt	LTP252	ltpFR	1	13	-1	POND	1101	n/a	n/a	-1	n/a	n/a	n/a	n/a	n/a
2818.642	n/a	REC_WORD	1409321	wordpools/wasnorm_wordpool_less_exclusions.txt	LTP252	ltpFR	1	13	-1	WRIST	1626	n/a	n/a	-1	n/a	n/a	n/a	n/a	n/a
2819.896	n/a	REC_WORD	1409948	wordpools/wasnorm_wordpool_less_exclusions.txt	LTP252	ltpFR	1	13	-1	CAULIFLOWER	262	n/a	n/a	-1	n/a	n/a	n/a	n/a	n/a
2822.548	n/a	REC_WORD	1411274	wordpools/wasnorm_wordpool_less_exclusions.txt	LTP252	ltpFR	1	13	-1	LACE	792	n/a	n/a	-1	n/a	n/a	n/a	n/a	n/a
2823.582	n/a	REC_WORD	1411791	wordpools/wasnorm_wordpool_less_exclusions.txt	LTP252	ltpFR	1	13	-1	SKIN	1318	n/a	n/a	-1	n/a	n/a	n/a	n/a	n/a
2827.044	n/a	REC_WORD	1413522	wordpools/wasnorm_wordpool_less_exclusions.txt	LTP252	ltpFR	1	13	-1	PIER	1063	n/a	n/a	-1	n/a	n/a	n/a	n/a	n/a
2827.946	n/a	REC_WORD	1413973	wordpools/wasnorm_wordpool_less_exclusions.txt	LTP252	ltpFR	1	13	-1	LAGOON	795	n/a	n/a	-1	n/a	n/a	n/a	n/a	n/a
2832.588	n/a	REC_WORD	1416294	wordpools/wasnorm_wordpool_less_exclusions.txt	LTP252	ltpFR	1	13	-1	ASH	44	n/a	n/a	-1	n/a	n/a	n/a	n/a	n/a
2833.506	n/a	REC_WORD	1416753	wordpools/wasnorm_wordpool_less_exclusions.txt	LTP252	ltpFR	1	13	n/a	FIREFIGHTER	-1	n/a	n/a	n/a	n/a	n/a	n/a	n/a	n/a
2842.87	n/a	REC_WORD	1421435	wordpools/wasnorm_wordpool_less_exclusions.txt	LTP252	ltpFR	1	13	-1	RADISH	1158	n/a	n/a	-1	n/a	n/a	n/a	n/a	n/a
2849.342	n/a	REC_WORD	1424671	wordpools/wasnorm_wordpool_less_exclusions.txt	LTP252	ltpFR	1	13	n/a	SALOON	1228	n/a	n/a	n/a	n/a	n/a	n/a	n/a	n/a
2850.594	n/a	REC_WORD	1425297	wordpools/wasnorm_wordpool_less_exclusions.txt	LTP252	ltpFR	1	13	-1	SIRLOIN	1311	n/a	n/a	-1	n/a	n/a	n/a	n/a	n/a
2853.174	n/a	REC_WORD	1426587	wordpools/wasnorm_wordpool_less_exclusions.txt	LTP252	ltpFR	1	13	-1	VEAL	1551	n/a	n/a	-1	n/a	n/a	n/a	n/a	n/a
2897.794	n/a	WORD	1448897	wordpools/wasnorm_wordpool_less_exclusions.txt	LTP252	ltpFR	1	14	0	COMET	353	n/a	n/a	1	0.422607421875	0.5869140625	0	lower	amplitud.ttf
2901.926	n/a	WORD	1450963	wordpools/wasnorm_wordpool_less_exclusions.txt	LTP252	ltpFR	1	14	0	HAY	693	n/a	n/a	1	0.422607421875	0.5869140625	0	lower	amplitud.ttf
2905.992	n/a	WORD	1452996	wordpools/wasnorm_wordpool_less_exclusions.txt	LTP252	ltpFR	1	14	0	PUB	1135	n/a	n/a	1	0.422607421875	0.5869140625	0	lower	amplitud.ttf
2909.89	n/a	WORD	1454945	wordpools/wasnorm_wordpool_less_exclusions.txt	LTP252	ltpFR	1	14	0	WINE	1613	n/a	n/a	1	0.422607421875	0.5869140625	0	lower	amplitud.ttf
2914.106	n/a	WORD	1457053	wordpools/wasnorm_wordpool_less_exclusions.txt	LTP252	ltpFR	1	14	0	SADDLE	1221	n/a	n/a	1	0.422607421875	0.5869140625	0	lower	amplitud.ttf
2917.936	n/a	WORD	1458968	wordpools/wasnorm_wordpool_less_exclusions.txt	LTP252	ltpFR	1	14	0	BUTTERFLY	206	n/a	n/a	0	0.422607421875	0.5869140625	0	lower	amplitud.ttf
2921.904	n/a	WORD	1460952	wordpools/wasnorm_wordpool_less_exclusions.txt	LTP252	ltpFR	1	14	0	JELLY	755	n/a	n/a	0	0.422607421875	0.5869140625	0	lower	amplitud.ttf
2925.768	n/a	WORD	1462884	wordpools/wasnorm_wordpool_less_exclusions.txt	LTP252	ltpFR	1	14	0	SUITE	1404	n/a	n/a	1	0.422607421875	0.5869140625	0	lower	amplitud.ttf
2929.632	n/a	WORD	1464816	wordpools/wasnorm_wordpool_less_exclusions.txt	LTP252	ltpFR	1	14	0	HANDKERCHIEF	686	n/a	n/a	0	0.422607421875	0.5869140625	0	lower	amplitud.ttf
2933.766	n/a	WORD	1466883	wordpools/wasnorm_wordpool_less_exclusions.txt	LTP252	ltpFR	1	14	0	KLEENEX	782	n/a	n/a	0	0.422607421875	0.5869140625	0	lower	amplitud.ttf
2937.63	n/a	WORD	1468815	wordpools/wasnorm_wordpool_less_exclusions.txt	LTP252	ltpFR	1	14	0	DRINK	498	n/a	n/a	0	0.422607421875	0.5869140625	0	lower	amplitud.ttf
2941.83	n/a	WORD	1470915	wordpools/wasnorm_wordpool_less_exclusions.txt	LTP252	ltpFR	1	14	0	DECK	443	n/a	n/a	1	0.422607421875	0.5869140625	0	lower	amplitud.ttf
2945.978	n/a	WORD	1472989	wordpools/wasnorm_wordpool_less_exclusions.txt	LTP252	ltpFR	1	14	0	MOVIE	927	n/a	n/a	1	0.422607421875	0.5869140625	0	lower	amplitud.ttf
2949.86	n/a	WORD	1474930	wordpools/wasnorm_wordpool_less_exclusions.txt	LTP252	ltpFR	1	14	0	BEET	115	n/a	n/a	0	0.422607421875	0.5869140625	0	lower	amplitud.ttf
2953.776	n/a	WORD	1476888	wordpools/wasnorm_wordpool_less_exclusions.txt	LTP252	ltpFR	1	14	0	BANDANNA	80	n/a	n/a	0	0.422607421875	0.5869140625	0	lower	amplitud.ttf
2957.858	n/a	WORD	1478929	wordpools/wasnorm_wordpool_less_exclusions.txt	LTP252	ltpFR	1	14	0	DORM	488	n/a	n/a	1	0.422607421875	0.5869140625	0	lower	amplitud.ttf
2963.53	n/a	REC_START	1481765	n/a	LTP252	ltpFR	1	14	n/a	n/a	n/a	n/a	n/a	n/a	n/a	n/a	n/a	n/a	n/a
2964.73	n/a	REC_WORD	1482365	wordpools/wasnorm_wordpool_less_exclusions.txt	LTP252	ltpFR	1	14	0	DORM	488	n/a	n/a	1	n/a	n/a	n/a	n/a	n/a
2965.772	n/a	REC_WORD	1482886	wordpools/wasnorm_wordpool_less_exclusions.txt	LTP252	ltpFR	1	14	0	HANDKERCHIEF	686	n/a	n/a	0	n/a	n/a	n/a	n/a	n/a
2966.994	n/a	REC_WORD	1483497	wordpools/wasnorm_wordpool_less_exclusions.txt	LTP252	ltpFR	1	14	0	KLEENEX	782	n/a	n/a	0	n/a	n/a	n/a	n/a	n/a
2968.458	n/a	REC_WORD	1484229	wordpools/wasnorm_wordpool_less_exclusions.txt	LTP252	ltpFR	1	14	n/a	TISSUE	-1	n/a	n/a	n/a	n/a	n/a	n/a	n/a	n/a
2970.0	n/a	REC_WORD	1485000	wordpools/wasnorm_wordpool_less_exclusions.txt	LTP252	ltpFR	1	14	0	COMET	353	n/a	n/a	1	n/a	n/a	n/a	n/a	n/a
2971.442	n/a	REC_WORD	1485721	wordpools/wasnorm_wordpool_less_exclusions.txt	LTP252	ltpFR	1	14	0	BUTTERFLY	206	n/a	n/a	0	n/a	n/a	n/a	n/a	n/a
2976.32	n/a	REC_WORD	1488160	wordpools/wasnorm_wordpool_less_exclusions.txt	LTP252	ltpFR	1	14	0	DORM	488	n/a	n/a	1	n/a	n/a	n/a	n/a	n/a
2984.036	n/a	REC_WORD	1492018	wordpools/wasnorm_wordpool_less_exclusions.txt	LTP252	ltpFR	1	14	0	WINE	1613	n/a	n/a	1	n/a	n/a	n/a	n/a	n/a
2990.354	n/a	REC_WORD	1495177	wordpools/wasnorm_wordpool_less_exclusions.txt	LTP252	ltpFR	1	14	0	DRINK	498	n/a	n/a	0	n/a	n/a	n/a	n/a	n/a
2994.19	n/a	REC_WORD	1497095	wordpools/wasnorm_wordpool_less_exclusions.txt	LTP252	ltpFR	1	14	0	BEET	115	n/a	n/a	0	n/a	n/a	n/a	n/a	n/a
3044.02	n/a	WORD	1522010	wordpools/wasnorm_wordpool_less_exclusions.txt	LTP252	ltpFR	1	15	-1	COMB	351	n/a	n/a	-1	1.0	1.0	1	upper	Verdana.ttf
3048.184	n/a	WORD	1524092	wordpools/wasnorm_wordpool_less_exclusions.txt	LTP252	ltpFR	1	15	-1	WILDERNESS	1610	n/a	n/a	-1	1.0	1.0	1	upper	Verdana.ttf
3052.334	n/a	WORD	1526167	wordpools/wasnorm_wordpool_less_exclusions.txt	LTP252	ltpFR	1	15	-1	DRESSER	496	n/a	n/a	-1	1.0	1.0	1	upper	Verdana.ttf
3056.35	n/a	WORD	1528175	wordpools/wasnorm_wordpool_less_exclusions.txt	LTP252	ltpFR	1	15	-1	SCREEN	1253	n/a	n/a	-1	1.0	1.0	1	upper	Verdana.ttf
3060.396	n/a	WORD	1530198	wordpools/wasnorm_wordpool_less_exclusions.txt	LTP252	ltpFR	1	15	-1	TELEVISION	1447	n/a	n/a	-1	1.0	1.0	1	upper	Verdana.ttf
3064.332	n/a	WORD	1532166	wordpools/wasnorm_wordpool_less_exclusions.txt	LTP252	ltpFR	1	15	-1	RIVER	1194	n/a	n/a	-1	1.0	1.0	1	upper	Verdana.ttf
3068.364	n/a	WORD	1534182	wordpools/wasnorm_wordpool_less_exclusions.txt	LTP252	ltpFR	1	15	-1	BENCH	121	n/a	n/a	-1	1.0	1.0	1	upper	Verdana.ttf
3072.328	n/a	WORD	1536164	wordpools/wasnorm_wordpool_less_exclusions.txt	LTP252	ltpFR	1	15	-1	MONK	910	n/a	n/a	-1	1.0	1.0	1	upper	Verdana.ttf
3076.426	n/a	WORD	1538213	wordpools/wasnorm_wordpool_less_exclusions.txt	LTP252	ltpFR	1	15	-1	LIVER	833	n/a	n/a	-1	1.0	1.0	1	upper	Verdana.ttf
3080.358	n/a	WORD	1540179	wordpools/wasnorm_wordpool_less_exclusions.txt	LTP252	ltpFR	1	15	-1	REFRIGERATOR	1179	n/a	n/a	-1	1.0	1.0	1	upper	Verdana.ttf
3084.306	n/a	WORD	1542153	wordpools/wasnorm_wordpool_less_exclusions.txt	LTP252	ltpFR	1	15	-1	NEUTRON	947	n/a	n/a	-1	1.0	1.0	1	upper	Verdana.ttf
3088.138	n/a	WORD	1544069	wordpools/wasnorm_wordpool_less_exclusions.txt	LTP252	ltpFR	1	15	-1	PROTON	1132	n/a	n/a	-1	1.0	1.0	1	upper	Verdana.ttf
3092.136	n/a	WORD	1546068	wordpools/wasnorm_wordpool_less_exclusions.txt	LTP252	ltpFR	1	15	-1	PARSLEY	1016	n/a	n/a	-1	1.0	1.0	1	upper	Verdana.ttf
3095.968	n/a	WORD	1547984	wordpools/wasnorm_wordpool_less_exclusions.txt	LTP252	ltpFR	1	15	-1	LIMB	822	n/a	n/a	-1	1.0	1.0	1	upper	Verdana.ttf
3100.016	n/a	WORD	1550008	wordpools/wasnorm_wordpool_less_exclusions.txt	LTP252	ltpFR	1	15	-1	PREACHER	1119	n/a	n/a	-1	1.0	1.0	1	upper	Verdana.ttf
3104.216	n/a	WORD	1552108	wordpools/wasnorm_wordpool_less_exclusions.txt	LTP252	ltpFR	1	15	-1	COLESLAW	344	n/a	n/a	-1	1.0	1.0	1	upper	Verdana.ttf
3109.972	n/a	REC_START	1554986	n/a	LTP252	ltpFR	1	15	n/a	n/a	n/a	n/a	n/a	n/a	n/a	n/a	n/a	n/a	n/a
3110.884	n/a	REC_WORD	1555442	wordpools/wasnorm_wordpool_less_exclusions.txt	LTP252	ltpFR	1	15	-1	COLESLAW	344	n/a	n/a	-1	n/a	n/a	n/a	n/a	n/a
3111.974	n/a	REC_WORD	1555987	wordpools/wasnorm_wordpool_less_exclusions.txt	LTP252	ltpFR	1	15	-1	PREACHER	1119	n/a	n/a	-1	n/a	n/a	n/a	n/a	n/a
3113.014	n/a	REC_WORD	1556507	wordpools/wasnorm_wordpool_less_exclusions.txt	LTP252	ltpFR	1	15	-1	LIMB	822	n/a	n/a	-1	n/a	n/a	n/a	n/a	n/a
3114.354	n/a	REC_WORD	1557177	wordpools/wasnorm_wordpool_less_exclusions.txt	LTP252	ltpFR	1	15	-1	LIVER	833	n/a	n/a	-1	n/a	n/a	n/a	n/a	n/a
3123.372	n/a	REC_WORD	1561686	wordpools/wasnorm_wordpool_less_exclusions.txt	LTP252	ltpFR	1	15	-1	WILDERNESS	1610	n/a	n/a	-1	n/a	n/a	n/a	n/a	n/a
3131.882	n/a	REC_WORD	1565941	wordpools/wasnorm_wordpool_less_exclusions.txt	LTP252	ltpFR	1	15	-1	RIVER	1194	n/a	n/a	-1	n/a	n/a	n/a	n/a	n/a
3143.362	n/a	REC_WORD	1571681	wordpools/wasnorm_wordpool_less_exclusions.txt	LTP252	ltpFR	1	15	-1	PREACHER	1119	n/a	n/a	-1	n/a	n/a	n/a	n/a	n/a
3156.222	n/a	REC_WORD	1578111	wordpools/wasnorm_wordpool_less_exclusions.txt	LTP252	ltpFR	1	15	-1	COMB	351	n/a	n/a	-1	n/a	n/a	n/a	n/a	n/a
3184.438	n/a	REC_WORD	1592219	wordpools/wasnorm_wordpool_less_exclusions.txt	LTP252	ltpFR	1	15	-1	REFRIGERATOR	1179	n/a	n/a	-1	n/a	n/a	n/a	n/a	n/a
3193.858	n/a	WORD	1596929	wordpools/wasnorm_wordpool_less_exclusions.txt	LTP252	ltpFR	1	16	-1	DUNGEON	507	n/a	n/a	-1	1.0	1.0	1	upper	Verdana.ttf
3197.958	n/a	WORD	1598979	wordpools/wasnorm_wordpool_less_exclusions.txt	LTP252	ltpFR	1	16	-1	TUNNEL	1519	n/a	n/a	-1	1.0	1.0	1	upper	Verdana.ttf
3201.806	n/a	WORD	1600903	wordpools/wasnorm_wordpool_less_exclusions.txt	LTP252	ltpFR	1	16	-1	COOLER	375	n/a	n/a	-1	1.0	1.0	1	upper	Verdana.ttf
3205.988	n/a	WORD	1602994	wordpools/wasnorm_wordpool_less_exclusions.txt	LTP252	ltpFR	1	16	-1	CLOTHES	327	n/a	n/a	-1	1.0	1.0	1	upper	Verdana.ttf
3209.87	n/a	WORD	1604935	wordpools/wasnorm_wordpool_less_exclusions.txt	LTP252	ltpFR	1	16	-1	OUTFIT	988	n/a	n/a	-1	1.0	1.0	1	upper	Verdana.ttf
3213.97	n/a	WORD	1606985	wordpools/wasnorm_wordpool_less_exclusions.txt	LTP252	ltpFR	1	16	-1	CREAM	402	n/a	n/a	-1	1.0	1.0	1	upper	Verdana.ttf
3218.102	n/a	WORD	1609051	wordpools/wasnorm_wordpool_less_exclusions.txt	LTP252	ltpFR	1	16	-1	FATHER	554	n/a	n/a	-1	1.0	1.0	1	upper	Verdana.ttf
3222.268	n/a	WORD	1611134	wordpools/wasnorm_wordpool_less_exclusions.txt	LTP252	ltpFR	1	16	-1	SINK	1309	n/a	n/a	-1	1.0	1.0	1	upper	Verdana.ttf
3226.416	n/a	WORD	1613208	wordpools/wasnorm_wordpool_less_exclusions.txt	LTP252	ltpFR	1	16	-1	BATH	98	n/a	n/a	-1	1.0	1.0	1	upper	Verdana.ttf
3230.414	n/a	WORD	1615207	wordpools/wasnorm_wordpool_less_exclusions.txt	LTP252	ltpFR	1	16	-1	VEHICLE	1553	n/a	n/a	-1	1.0	1.0	1	upper	Verdana.ttf
3234.498	n/a	WORD	1617249	wordpools/wasnorm_wordpool_less_exclusions.txt	LTP252	ltpFR	1	16	-1	ICEBERG	731	n/a	n/a	-1	1.0	1.0	1	upper	Verdana.ttf
3238.58	n/a	WORD	1619290	wordpools/wasnorm_wordpool_less_exclusions.txt	LTP252	ltpFR	1	16	-1	PIG	1064	n/a	n/a	-1	1.0	1.0	1	upper	Verdana.ttf
3242.444	n/a	WORD	1621222	wordpools/wasnorm_wordpool_less_exclusions.txt	LTP252	ltpFR	1	16	-1	WINDSHIELD	1612	n/a	n/a	-1	1.0	1.0	1	upper	Verdana.ttf
3246.494	n/a	WORD	1623247	wordpools/wasnorm_wordpool_less_exclusions.txt	LTP252	ltpFR	1	16	-1	SHED	1277	n/a	n/a	-1	1.0	1.0	1	upper	Verdana.ttf
3250.676	n/a	WORD	1625338	wordpools/wasnorm_wordpool_less_exclusions.txt	LTP252	ltpFR	1	16	-1	CANAL	226	n/a	n/a	-1	1.0	1.0	1	upper	Verdana.ttf
3254.658	n/a	WORD	1627329	wordpools/wasnorm_wordpool_less_exclusions.txt	LTP252	ltpFR	1	16	-1	SUBMARINE	1398	n/a	n/a	-1	1.0	1.0	1	upper	Verdana.ttf
3260.33	n/a	REC_START	1630165	n/a	LTP252	ltpFR	1	16	n/a	n/a	n/a	n/a	n/a	n/a	n/a	n/a	n/a	n/a	n/a
3261.324	n/a	REC_WORD	1630662	wordpools/wasnorm_wordpool_less_exclusions.txt	LTP252	ltpFR	1	16	-1	SUBMARINE	1398	n/a	n/a	-1	n/a	n/a	n/a	n/a	n/a
3262.638	n/a	REC_WORD	1631319	wordpools/wasnorm_wordpool_less_exclusions.txt	LTP252	ltpFR	1	16	-1	CANAL	226	n/a	n/a	-1	n/a	n/a	n/a	n/a	n/a
3264.06	n/a	REC_WORD	1632030	wordpools/wasnorm_wordpool_less_exclusions.txt	LTP252	ltpFR	1	16	-1	TUNNEL	1519	n/a	n/a	-1	n/a	n/a	n/a	n/a	n/a
3265.214	n/a	REC_WORD	1632607	wordpools/wasnorm_wordpool_less_exclusions.txt	LTP252	ltpFR	1	16	-1	DUNGEON	507	n/a	n/a	-1	n/a	n/a	n/a	n/a	n/a
3266.642	n/a	REC_WORD	1633321	wordpools/wasnorm_wordpool_less_exclusions.txt	LTP252	ltpFR	1	16	-1	COOLER	375	n/a	n/a	-1	n/a	n/a	n/a	n/a	n/a
3268.47	n/a	REC_WORD	1634235	wordpools/wasnorm_wordpool_less_exclusions.txt	LTP252	ltpFR	1	16	-1	BATH	98	n/a	n/a	-1	n/a	n/a	n/a	n/a	n/a
3270.224	n/a	REC_WORD	1635112	wordpools/wasnorm_wordpool_less_exclusions.txt	LTP252	ltpFR	1	16	-1	SINK	1309	n/a	n/a	-1	n/a	n/a	n/a	n/a	n/a
3272.212	n/a	REC_WORD	1636106	wordpools/wasnorm_wordpool_less_exclusions.txt	LTP252	ltpFR	1	16	-1	VEHICLE	1553	n/a	n/a	-1	n/a	n/a	n/a	n/a	n/a
3273.914	n/a	REC_WORD	1636957	wordpools/wasnorm_wordpool_less_exclusions.txt	LTP252	ltpFR	1	16	-1	WINDSHIELD	1612	n/a	n/a	-1	n/a	n/a	n/a	n/a	n/a
3275.556	n/a	REC_WORD	1637778	wordpools/wasnorm_wordpool_less_exclusions.txt	LTP252	ltpFR	1	16	-1	FATHER	554	n/a	n/a	-1	n/a	n/a	n/a	n/a	n/a
3292.674	n/a	REC_WORD	1646337	wordpools/wasnorm_wordpool_less_exclusions.txt	LTP252	ltpFR	1	16	-1	CREAM	402	n/a	n/a	-1	n/a	n/a	n/a	n/a	n/a
3296.07	n/a	REC_WORD	1648035	wordpools/wasnorm_wordpool_less_exclusions.txt	LTP252	ltpFR	1	16	-1	OUTFIT	988	n/a	n/a	-1	n/a	n/a	n/a	n/a	n/a
3297.394	n/a	REC_WORD	1648697	wordpools/wasnorm_wordpool_less_exclusions.txt	LTP252	ltpFR	1	16	-1	CLOTHES	327	n/a	n/a	-1	n/a	n/a	n/a	n/a	n/a
3306.066	n/a	REC_WORD	1653033	wordpools/wasnorm_wordpool_less_exclusions.txt	LTP252	ltpFR	1	16	-1	SUBMARINE	1398	n/a	n/a	-1	n/a	n/a	n/a	n/a	n/a
3357.402	n/a	REC_START	1678701	n/a	LTP252	ltpFR	1	n/a	n/a	n/a	n/a	n/a	n/a	n/a	n/a	n/a	n/a	n/a	n/a
3358.492	n/a	FFR_REC_WORD	1679246	wordpools/wasnorm_wordpool_less_exclusions.txt	LTP252	ltpFR	1	n/a	-1	SUBMARINE	1398	n/a	n/a	-1	n/a	n/a	n/a	n/a	n/a
3360.02	n/a	FFR_REC_WORD	1680010	wordpools/wasnorm_wordpool_less_exclusions.txt	LTP252	ltpFR	1	n/a	-1	FATHER	554	n/a	n/a	-1	n/a	n/a	n/a	n/a	n/a
3360.994	n/a	FFR_REC_WORD	1680497	wordpools/wasnorm_wordpool_less_exclusions.txt	LTP252	ltpFR	1	n/a	-1	OUTFIT	988	n/a	n/a	-1	n/a	n/a	n/a	n/a	n/a
3361.816	n/a	FFR_REC_WORD	1680908	wordpools/wasnorm_wordpool_less_exclusions.txt	LTP252	ltpFR	1	n/a	-1	CLOTHES	327	n/a	n/a	-1	n/a	n/a	n/a	n/a	n/a
3363.208	n/a	FFR_REC_WORD	1681604	wordpools/wasnorm_wordpool_less_exclusions.txt	LTP252	ltpFR	1	n/a	-1	TUNNEL	1519	n/a	n/a	-1	n/a	n/a	n/a	n/a	n/a
3364.636	n/a	FFR_REC_WORD	1682318	wordpools/wasnorm_wordpool_less_exclusions.txt	LTP252	ltpFR	1	n/a	1	SUBWAY	1400	n/a	n/a	0	n/a	n/a	n/a	n/a	n/a
3366.03	n/a	FFR_REC_WORD	1683015	wordpools/wasnorm_wordpool_less_exclusions.txt	LTP252	ltpFR	1	n/a	-1	COOLER	375	n/a	n/a	-1	n/a	n/a	n/a	n/a	n/a
3366.956	n/a	FFR_REC_WORD	1683478	wordpools/wasnorm_wordpool_less_exclusions.txt	LTP252	ltpFR	1	n/a	-1	DUNGEON	507	n/a	n/a	-1	n/a	n/a	n/a	n/a	n/a
3373.4	n/a	FFR_REC_WORD	1686700	wordpools/wasnorm_wordpool_less_exclusions.txt	LTP252	ltpFR	1	n/a	-1	SINK	1309	n/a	n/a	-1	n/a	n/a	n/a	n/a	n/a
3374.674	n/a	FFR_REC_WORD	1687337	wordpools/wasnorm_wordpool_less_exclusions.txt	LTP252	ltpFR	1	n/a	n/a	TUB	1514	n/a	n/a	n/a	n/a	n/a	n/a	n/a	n/a
3375.996	n/a	FFR_REC_WORD	1687998	wordpools/wasnorm_wordpool_less_exclusions.txt	LTP252	ltpFR	1	n/a	-1	BATH	98	n/a	n/a	-1	n/a	n/a	n/a	n/a	n/a
3382.216	n/a	FFR_REC_WORD	1691108	wordpools/wasnorm_wordpool_less_exclusions.txt	LTP252	ltpFR	1	n/a	-1	CANAL	226	n/a	n/a	-1	n/a	n/a	n/a	n/a	n/a
3385.538	n/a	FFR_REC_WORD	1692769	wordpools/wasnorm_wordpool_less_exclusions.txt	LTP252	ltpFR	1	n/a	1	STAKE	1368	n/a	n/a	0	n/a	n/a	n/a	n/a	n/a
3386.676	n/a	FFR_REC_WORD	1693338	wordpools/wasnorm_wordpool_less_exclusions.txt	LTP252	ltpFR	1	n/a	-1	SIRLOIN	1311	n/a	n/a	-1	n/a	n/a	n/a	n/a	n/a
3387.684	n/a	FFR_REC_WORD	1693842	wordpools/wasnorm_wordpool_less_exclusions.txt	LTP252	ltpFR	1	n/a	-1	VEAL	1551	n/a	n/a	-1	n/a	n/a	n/a	n/a	n/a
3391.356	n/a	FFR_REC_WORD	1695678	wordpools/wasnorm_wordpool_less_exclusions.txt	LTP252	ltpFR	1	n/a	n/a	PASSAGE	1019	n/a	n/a	n/a	n/a	n/a	n/a	n/a	n/a
3392.43	n/a	FFR_REC_WORD	1696215	wordpools/wasnorm_wordpool_less_exclusions.txt	LTP252	ltpFR	1	n/a	1	LIEUTENANT	818	n/a	n/a	1	n/a	n/a	n/a	n/a	n/a
3393.546	n/a	FFR_REC_WORD	1696773	wordpools/wasnorm_wordpool_less_exclusions.txt	LTP252	ltpFR	1	n/a	1	LEADER	807	n/a	n/a	1	n/a	n/a	n/a	n/a	n/a
3394.668	n/a	FFR_REC_WORD	1697334	wordpools/wasnorm_wordpool_less_exclusions.txt	LTP252	ltpFR	1	n/a	1	FOLLOWER	589	n/a	n/a	1	n/a	n/a	n/a	n/a	n/a
3402.042	n/a	FFR_REC_WORD	1701021	wordpools/wasnorm_wordpool_less_exclusions.txt	LTP252	ltpFR	1	n/a	-1	RADISH	1158	n/a	n/a	-1	n/a	n/a	n/a	n/a	n/a
3403.214	n/a	FFR_REC_WORD	1701607	wordpools/wasnorm_wordpool_less_exclusions.txt	LTP252	ltpFR	1	n/a	0	BEET	115	n/a	n/a	0	n/a	n/a	n/a	n/a	n/a
3404.966	n/a	FFR_REC_WORD	1702483	wordpools/wasnorm_wordpool_less_exclusions.txt	LTP252	ltpFR	1	n/a	1	SALAD	1224	n/a	n/a	1	n/a	n/a	n/a	n/a	n/a
3408.698	n/a	FFR_REC_WORD	1704349	wordpools/wasnorm_wordpool_less_exclusions.txt	LTP252	ltpFR	1	n/a	-1	LIVER	833	n/a	n/a	-1	n/a	n/a	n/a	n/a	n/a
3409.934	n/a	FFR_REC_WORD	1704967	wordpools/wasnorm_wordpool_less_exclusions.txt	LTP252	ltpFR	1	n/a	-1	WRIST	1626	n/a	n/a	-1	n/a	n/a	n/a	n/a	n/a
3411.312	n/a	FFR_REC_WORD	1705656	wordpools/wasnorm_wordpool_less_exclusions.txt	LTP252	ltpFR	1	n/a	n/a	SILK	1307	n/a	n/a	n/a	n/a	n/a	n/a	n/a	n/a
3412.26	n/a	FFR_REC_WORD	1706130	wordpools/wasnorm_wordpool_less_exclusions.txt	LTP252	ltpFR	1	n/a	-1	CAULIFLOWER	262	n/a	n/a	-1	n/a	n/a	n/a	n/a	n/a
3415.532	n/a	FFR_REC_WORD	1707766	wordpools/wasnorm_wordpool_less_exclusions.txt	LTP252	ltpFR	1	n/a	-1	SKIN	1318	n/a	n/a	-1	n/a	n/a	n/a	n/a	n/a
3422.024	n/a	FFR_REC_WORD	1711012	wordpools/wasnorm_wordpool_less_exclusions.txt	LTP252	ltpFR	1	n/a	-1	PIER	1063	n/a	n/a	-1	n/a	n/a	n/a	n/a	n/a
3423.172	n/a	FFR_REC_WORD	1711586	wordpools/wasnorm_wordpool_less_exclusions.txt	LTP252	ltpFR	1	n/a	-1	LAGOON	795	n/a	n/a	-1	n/a	n/a	n/a	n/a	n/a
3424.478	n/a	FFR_REC_WORD	1712239	wordpools/wasnorm_wordpool_less_exclusions.txt	LTP252	ltpFR	1	n/a	-1	RIVER	1194	n/a	n/a	-1	n/a	n/a	n/a	n/a	n/a
3428.076	n/a	FFR_REC_WORD	1714038	wordpools/wasnorm_wordpool_less_exclusions.txt	LTP252	ltpFR	1	n/a	n/a	SUNSET	1408	n/a	n/a	n/a	n/a	n/a	n/a	n/a	n/a
3430.06	n/a	FFR_REC_WORD	1715030	wordpools/wasnorm_wordpool_less_exclusions.txt	LTP252	ltpFR	1	n/a	0	SCENERY	1247	n/a	n/a	1	n/a	n/a	n/a	n/a	n/a
3431.47	n/a	FFR_REC_WORD	1715735	wordpools/wasnorm_wordpool_less_exclusions.txt	LTP252	ltpFR	1	n/a	0	HANDKERCHIEF	686	n/a	n/a	0	n/a	n/a	n/a	n/a	n/a
3432.516	n/a	FFR_REC_WORD	1716258	wordpools/wasnorm_wordpool_less_exclusions.txt	LTP252	ltpFR	1	n/a	0	KLEENEX	782	n/a	n/a	0	n/a	n/a	n/a	n/a	n/a
3434.37	n/a	FFR_REC_WORD	1717185	wordpools/wasnorm_wordpool_less_exclusions.txt	LTP252	ltpFR	1	n/a	n/a	TISSUE	-1	n/a	n/a	n/a	n/a	n/a	n/a	n/a	n/a
3440.902	n/a	FFR_REC_WORD	1720451	wordpools/wasnorm_wordpool_less_exclusions.txt	LTP252	ltpFR	1	n/a	0	BASEBALL	93	n/a	n/a	0	n/a	n/a	n/a	n/a	n/a
3442.37	n/a	FFR_REC_WORD	1721185	wordpools/wasnorm_wordpool_less_exclusions.txt	LTP252	ltpFR	1	n/a	0	FOOTBALL	591	n/a	n/a	0	n/a	n/a	n/a	n/a	n/a
3443.83	n/a	FFR_REC_WORD	1721915	wordpools/wasnorm_wordpool_less_exclusions.txt	LTP252	ltpFR	1	n/a	0	SHOE	1288	n/a	n/a	0	n/a	n/a	n/a	n/a	n/a
3446.354	n/a	FFR_REC_WORD	1723177	wordpools/wasnorm_wordpool_less_exclusions.txt	LTP252	ltpFR	1	n/a	0	LADDER	793	n/a	n/a	1	n/a	n/a	n/a	n/a	n/a
3450.644	n/a	FFR_REC_WORD	1725322	wordpools/wasnorm_wordpool_less_exclusions.txt	LTP252	ltpFR	1	n/a	0	SPHINX	1349	n/a	n/a	1	n/a	n/a	n/a	n/a	n/a
3462.494	n/a	FFR_REC_WORD	1731247	wordpools/wasnorm_wordpool_less_exclusions.txt	LTP252	ltpFR	1	n/a	-1	ICEBERG	731	n/a	n/a	-1	n/a	n/a	n/a	n/a	n/a
3465.572	n/a	FFR_REC_WORD	1732786	wordpools/wasnorm_wordpool_less_exclusions.txt	LTP252	ltpFR	1	n/a	1	PRUNE	1134	n/a	n/a	1	n/a	n/a	n/a	n/a	n/a
3466.606	n/a	FFR_REC_WORD	1733303	wordpools/wasnorm_wordpool_less_exclusions.txt	LTP252	ltpFR	1	n/a	n/a	PEACH	1031	n/a	n/a	n/a	n/a	n/a	n/a	n/a	n/a
3470.586	n/a	FFR_REC_WORD	1735293	wordpools/wasnorm_wordpool_less_exclusions.txt	LTP252	ltpFR	1	n/a	0	LADDER	793	n/a	n/a	1	n/a	n/a	n/a	n/a	n/a
3472.964	n/a	FFR_REC_WORD	1736482	wordpools/wasnorm_wordpool_less_exclusions.txt	LTP252	ltpFR	1	n/a	n/a	FIREFIGHTER	-1	n/a	n/a	n/a	n/a	n/a	n/a	n/a	n/a
3474.21	n/a	FFR_REC_WORD	1737105	wordpools/wasnorm_wordpool_less_exclusions.txt	LTP252	ltpFR	1	n/a	-1	ASH	44	n/a	n/a	-1	n/a	n/a	n/a	n/a	n/a
3494.342	n/a	FFR_REC_WORD	1747171	wordpools/wasnorm_wordpool_less_exclusions.txt	LTP252	ltpFR	1	n/a	1	TUTU	1524	n/a	n/a	0	n/a	n/a	n/a	n/a	n/a
3499.118	n/a	FFR_REC_WORD	1749559	wordpools/wasnorm_wordpool_less_exclusions.txt	LTP252	ltpFR	1	n/a	0	COMET	353	n/a	n/a	1	n/a	n/a	n/a	n/a	n/a
3503.308	n/a	FFR_REC_WORD	1751654	wordpools/wasnorm_wordpool_less_exclusions.txt	LTP252	ltpFR	1	n/a	0	DORM	488	n/a	n/a	1	n/a	n/a	n/a	n/a	n/a
3519.092	n/a	FFR_REC_WORD	1759546	wordpools/wasnorm_wordpool_less_exclusions.txt	LTP252	ltpFR	1	n/a	0	ELEPHANT	523	n/a	n/a	1	n/a	n/a	n/a	n/a	n/a
3520.942	n/a	FFR_REC_WORD	1760471	wordpools/wasnorm_wordpool_less_exclusions.txt	LTP252	ltpFR	1	n/a	-1	REFRIGERATOR	1179	n/a	n/a	-1	n/a	n/a	n/a	n/a	n/a
3525.508	n/a	FFR_REC_WORD	1762754	wordpools/wasnorm_wordpool_less_exclusions.txt	LTP252	ltpFR	1	n/a	-1	RAM	1165	n/a	n/a	-1	n/a	n/a	n/a	n/a	n/a
3530.9	n/a	FFR_REC_WORD	1765450	wordpools/wasnorm_wordpool_less_exclusions.txt	LTP252	ltpFR	1	n/a	-1	GAZELLE	628	n/a	n/a	-1	n/a	n/a	n/a	n/a	n/a
3549.654	n/a	FFR_REC_WORD	1774827	wordpools/wasnorm_wordpool_less_exclusions.txt	LTP252	ltpFR	1	n/a	0	BUTTERFLY	206	n/a	n/a	0	n/a	n/a	n/a	n/a	n/a
3556.14	n/a	FFR_REC_WORD	1778070	wordpools/wasnorm_wordpool_less_exclusions.txt	LTP252	ltpFR	1	n/a	1	CAT	257	n/a	n/a	1	n/a	n/a	n/a	n/a	n/a
3556.888	n/a	FFR_REC_WORD	1778444	wordpools/wasnorm_wordpool_less_exclusions.txt	LTP252	ltpFR	1	n/a	1	KITTEN	780	n/a	n/a	1	n/a	n/a	n/a	n/a	n/a
3565.564	n/a	FFR_REC_WORD	1782782	wordpools/wasnorm_wordpool_less_exclusions.txt	LTP252	ltpFR	1	n/a	0	WORM	1623	n/a	n/a	0	n/a	n/a	n/a	n/a	n/a
3587.23	n/a	FFR_REC_WORD	1793615	wordpools/wasnorm_wordpool_less_exclusions.txt	LTP252	ltpFR	1	n/a	0	QUEEN	1149	n/a	n/a	1	n/a	n/a	n/a	n/a	n/a
3591.636	n/a	FFR_REC_WORD	1795818	wordpools/wasnorm_wordpool_less_exclusions.txt	LTP252	ltpFR	1	n/a	0	ARTICLE	42	n/a	n/a	1	n/a	n/a	n/a	n/a	n/a
3593.216	n/a	FFR_REC_WORD	1796608	wordpools/wasnorm_wordpool_less_exclusions.txt	LTP252	ltpFR	1	n/a	n/a	PAPER	1011	n/a	n/a	n/a	n/a	n/a	n/a	n/a	n/a
3595.702	n/a	FFR_REC_WORD	1797851	wordpools/wasnorm_wordpool_less_exclusions.txt	LTP252	ltpFR	1	n/a	n/a	WRITER	1627	n/a	n/a	n/a	n/a	n/a	n/a	n/a	n/a
3602.158	n/a	FFR_REC_WORD	1801079	wordpools/wasnorm_wordpool_less_exclusions.txt	LTP252	ltpFR	1	n/a	0	KEY	773	n/a	n/a	0	n/a	n/a	n/a	n/a	n/a
3615.154	n/a	FFR_REC_WORD	1807577	wordpools/wasnorm_wordpool_less_exclusions.txt	LTP252	ltpFR	1	n/a	0	FLANNEL	574	n/a	n/a	0	n/a	n/a	n/a	n/a	n/a
3617.2	n/a	FFR_REC_WORD	1808600	wordpools/wasnorm_wordpool_less_exclusions.txt	LTP252	ltpFR	1	n/a	-1	PANTS	1010	n/a	n/a	-1	n/a	n/a	n/a	n/a	n/a
3625.136	n/a	FFR_REC_WORD	1812568	wordpools/wasnorm_wordpool_less_exclusions.txt	LTP252	ltpFR	1	n/a	n/a	GANG	619	n/a	n/a	n/a	n/a	n/a	n/a	n/a	n/a
3635.35	n/a	FFR_REC_WORD	1817675	wordpools/wasnorm_wordpool_less_exclusions.txt	LTP252	ltpFR	1	n/a	1	MOTHER	921	n/a	n/a	1	n/a	n/a	n/a	n/a	n/a
3636.338	n/a	FFR_REC_WORD	1818169	wordpools/wasnorm_wordpool_less_exclusions.txt	LTP252	ltpFR	1	n/a	1	PARENT	1013	n/a	n/a	1	n/a	n/a	n/a	n/a	n/a
3638.148	n/a	FFR_REC_WORD	1819074	wordpools/wasnorm_wordpool_less_exclusions.txt	LTP252	ltpFR	1	n/a	1	DAUGHTER	442	n/a	n/a	1	n/a	n/a	n/a	n/a	n/a
3727.116	n/a	REC_START	1863558	n/a	LTP252	ltpFR	1	1	n/a	n/a	n/a	n/a	n/a	n/a	n/a	n/a	n/a	n/a	n/a
3727.164	n/a	RECOG_LURE	1863582	n/a	LTP252	ltpFR	1	1	n/a	MAGNET	855	0	2	n/a	n/a	n/a	n/a	n/a	n/a
3730.654	n/a	RECOG_RESP	1865327	n/a	LTP252	ltpFR	1	1	n/a	MAGNET	855	0	n/a	n/a	n/a	n/a	n/a	n/a	n/a
3733.168	n/a	RECOG_CONF	1866584	n/a	LTP252	ltpFR	1	1	n/a	MAGNET	855	n/a	2	n/a	n/a	n/a	n/a	n/a	n/a
3735.428	n/a	RECOG_TARGET	1867714	n/a	LTP252	ltpFR	1	1	-1	PREACHER	1119	1	4	-1	n/a	n/a	n/a	n/a	n/a
3736.69	n/a	RECOG_RESP	1868345	n/a	LTP252	ltpFR	1	1	-1	PREACHER	1119	1	n/a	-1	n/a	n/a	n/a	n/a	n/a
3738.692	n/a	RECOG_CONF	1869346	n/a	LTP252	ltpFR	1	1	-1	PREACHER	1119	n/a	4	-1	n/a	n/a	n/a	n/a	n/a
3740.714	n/a	RECOG_TARGET	1870357	n/a	LTP252	ltpFR	1	1	-1	PARSLEY	1016	0	2	-1	n/a	n/a	n/a	n/a	n/a
3742.14	n/a	RECOG_RESP	1871070	n/a	LTP252	ltpFR	1	1	-1	PARSLEY	1016	0	n/a	-1	n/a	n/a	n/a	n/a	n/a
3743.67	n/a	RECOG_CONF	1871835	n/a	LTP252	ltpFR	1	1	-1	PARSLEY	1016	n/a	2	-1	n/a	n/a	n/a	n/a	n/a
3745.602	n/a	RECOG_TARGET	1872801	n/a	LTP252	ltpFR	1	1	1	BADGE	68	1	5	0	n/a	n/a	n/a	n/a	n/a
3746.966	n/a	RECOG_RESP	1873483	n/a	LTP252	ltpFR	1	1	1	BADGE	68	1	n/a	0	n/a	n/a	n/a	n/a	n/a
3748.516	n/a	RECOG_CONF	1874258	n/a	LTP252	ltpFR	1	1	1	BADGE	68	n/a	5	0	n/a	n/a	n/a	n/a	n/a
3750.386	n/a	RECOG_TARGET	1875193	n/a	LTP252	ltpFR	1	1	0	ICING	732	1	3	0	n/a	n/a	n/a	n/a	n/a
3751.654	n/a	RECOG_RESP	1875827	n/a	LTP252	ltpFR	1	1	0	ICING	732	1	n/a	0	n/a	n/a	n/a	n/a	n/a
3753.05	n/a	RECOG_CONF	1876525	n/a	LTP252	ltpFR	1	1	0	ICING	732	n/a	3	0	n/a	n/a	n/a	n/a	n/a
3754.97	n/a	RECOG_TARGET	1877485	n/a	LTP252	ltpFR	1	1	0	VINEGAR	1569	1	5	0	n/a	n/a	n/a	n/a	n/a
3755.806	n/a	RECOG_RESP	1877903	n/a	LTP252	ltpFR	1	1	0	VINEGAR	1569	1	n/a	0	n/a	n/a	n/a	n/a	n/a
3757.312	n/a	RECOG_CONF	1878656	n/a	LTP252	ltpFR	1	1	0	VINEGAR	1569	n/a	5	0	n/a	n/a	n/a	n/a	n/a
3759.302	n/a	RECOG_TARGET	1879651	n/a	LTP252	ltpFR	1	1	0	SPHINX	1349	1	5	1	n/a	n/a	n/a	n/a	n/a
3760.212	n/a	RECOG_RESP	1880106	n/a	LTP252	ltpFR	1	1	0	SPHINX	1349	1	n/a	1	n/a	n/a	n/a	n/a	n/a
3761.584	n/a	RECOG_CONF	1880792	n/a	LTP252	ltpFR	1	1	0	SPHINX	1349	n/a	5	1	n/a	n/a	n/a	n/a	n/a
3763.502	n/a	RECOG_TARGET	1881751	n/a	LTP252	ltpFR	1	1	0	SCENERY	1247	1	5	1	n/a	n/a	n/a	n/a	n/a
3764.418	n/a	RECOG_RESP	1882209	n/a	LTP252	ltpFR	1	1	0	SCENERY	1247	1	n/a	1	n/a	n/a	n/a	n/a	n/a
3765.718	n/a	RECOG_CONF	1882859	n/a	LTP252	ltpFR	1	1	0	SCENERY	1247	n/a	5	1	n/a	n/a	n/a	n/a	n/a
3767.566	n/a	RECOG_TARGET	1883783	n/a	LTP252	ltpFR	1	1	0	HAMMOCK	681	1	3	1	n/a	n/a	n/a	n/a	n/a
3768.66	n/a	RECOG_RESP	1884330	n/a	LTP252	ltpFR	1	1	0	HAMMOCK	681	1	n/a	1	n/a	n/a	n/a	n/a	n/a
3770.01	n/a	RECOG_CONF	1885005	n/a	LTP252	ltpFR	1	1	0	HAMMOCK	681	n/a	3	1	n/a	n/a	n/a	n/a	n/a
3771.7	n/a	RECOG_TARGET	1885850	n/a	LTP252	ltpFR	1	1	0	NAVIGATOR	938	1	1	1	n/a	n/a	n/a	n/a	n/a
3774.272	n/a	RECOG_RESP	1887136	n/a	LTP252	ltpFR	1	1	0	NAVIGATOR	938	1	n/a	1	n/a	n/a	n/a	n/a	n/a
3775.592	n/a	RECOG_CONF	1887796	n/a	LTP252	ltpFR	1	1	0	NAVIGATOR	938	n/a	1	1	n/a	n/a	n/a	n/a	n/a
3777.472	n/a	RECOG_TARGET	1888736	n/a	LTP252	ltpFR	1	1	0	SHORTCAKE	1292	1	4	0	n/a	n/a	n/a	n/a	n/a
3778.596	n/a	RECOG_RESP	1889298	n/a	LTP252	ltpFR	1	1	0	SHORTCAKE	1292	1	n/a	0	n/a	n/a	n/a	n/a	n/a
3779.864	n/a	RECOG_CONF	1889932	n/a	LTP252	ltpFR	1	1	0	SHORTCAKE	1292	n/a	4	0	n/a	n/a	n/a	n/a	n/a
3781.67	n/a	RECOG_LURE	1890835	n/a	LTP252	ltpFR	1	1	n/a	CHESS	294	0	2	n/a	n/a	n/a	n/a	n/a	n/a
3783.026	n/a	RECOG_RESP	1891513	n/a	LTP252	ltpFR	1	1	n/a	CHESS	294	0	n/a	n/a	n/a	n/a	n/a	n/a	n/a
3784.528	n/a	RECOG_CONF	1892264	n/a	LTP252	ltpFR	1	1	n/a	CHESS	294	n/a	2	n/a	n/a	n/a	n/a	n/a	n/a
3786.29	n/a	RECOG_TARGET	1893145	n/a	LTP252	ltpFR	1	1	0	CRAB	397	0	2	0	n/a	n/a	n/a	n/a	n/a
3787.806	n/a	RECOG_RESP	1893903	n/a	LTP252	ltpFR	1	1	0	CRAB	397	0	n/a	0	n/a	n/a	n/a	n/a	n/a
3789.154	n/a	RECOG_CONF	1894577	n/a	LTP252	ltpFR	1	1	0	CRAB	397	n/a	2	0	n/a	n/a	n/a	n/a	n/a
3790.89	n/a	RECOG_TARGET	1895445	n/a	LTP252	ltpFR	1	1	1	MOTHER	921	1	4	1	n/a	n/a	n/a	n/a	n/a
3791.86	n/a	RECOG_RESP	1895930	n/a	LTP252	ltpFR	1	1	1	MOTHER	921	1	n/a	1	n/a	n/a	n/a	n/a	n/a
3793.144	n/a	RECOG_CONF	1896572	n/a	LTP252	ltpFR	1	1	1	MOTHER	921	n/a	4	1	n/a	n/a	n/a	n/a	n/a
3794.822	n/a	RECOG_LURE	1897411	n/a	LTP252	ltpFR	1	1	n/a	THERMOMETER	1453	0	5	n/a	n/a	n/a	n/a	n/a	n/a
3795.76	n/a	RECOG_RESP	1897880	n/a	LTP252	ltpFR	1	1	n/a	THERMOMETER	1453	0	n/a	n/a	n/a	n/a	n/a	n/a	n/a
3797.014	n/a	RECOG_CONF	1898507	n/a	LTP252	ltpFR	1	1	n/a	THERMOMETER	1453	n/a	5	n/a	n/a	n/a	n/a	n/a	n/a
3798.922	n/a	RECOG_LURE	1899461	n/a	LTP252	ltpFR	1	1	n/a	MACARONI	851	0	1	n/a	n/a	n/a	n/a	n/a	n/a
3800.178	n/a	RECOG_RESP	1900089	n/a	LTP252	ltpFR	1	1	n/a	MACARONI	851	0	n/a	n/a	n/a	n/a	n/a	n/a	n/a
3801.448	n/a	RECOG_CONF	1900724	n/a	LTP252	ltpFR	1	1	n/a	MACARONI	851	n/a	1	n/a	n/a	n/a	n/a	n/a	n/a
3803.204	n/a	RECOG_TARGET	1901602	n/a	LTP252	ltpFR	1	1	1	MASK	876	1	1	0	n/a	n/a	n/a	n/a	n/a
3804.88	n/a	RECOG_RESP	1902440	n/a	LTP252	ltpFR	1	1	1	MASK	876	1	n/a	0	n/a	n/a	n/a	n/a	n/a
3806.172	n/a	RECOG_CONF	1903086	n/a	LTP252	ltpFR	1	1	1	MASK	876	n/a	1	0	n/a	n/a	n/a	n/a	n/a
3807.856	n/a	RECOG_LURE	1903928	n/a	LTP252	ltpFR	1	1	n/a	SPICE	1350	0	2	n/a	n/a	n/a	n/a	n/a	n/a
3808.952	n/a	RECOG_RESP	1904476	n/a	LTP252	ltpFR	1	1	n/a	SPICE	1350	0	n/a	n/a	n/a	n/a	n/a	n/a	n/a
3810.194	n/a	RECOG_CONF	1905097	n/a	LTP252	ltpFR	1	1	n/a	SPICE	1350	n/a	2	n/a	n/a	n/a	n/a	n/a	n/a
3811.92	n/a	RECOG_LURE	1905960	n/a	LTP252	ltpFR	1	1	n/a	COMPUTER	359	0	3	n/a	n/a	n/a	n/a	n/a	n/a
3813.15	n/a	RECOG_RESP	1906575	n/a	LTP252	ltpFR	1	1	n/a	COMPUTER	359	0	n/a	n/a	n/a	n/a	n/a	n/a	n/a
3814.478	n/a	RECOG_CONF	1907239	n/a	LTP252	ltpFR	1	1	n/a	COMPUTER	359	n/a	3	n/a	n/a	n/a	n/a	n/a	n/a
3816.136	n/a	RECOG_TARGET	1908068	n/a	LTP252	ltpFR	1	1	0	GRASSHOPPER	656	1	3	0	n/a	n/a	n/a	n/a	n/a
3817.336	n/a	RECOG_RESP	1908668	n/a	LTP252	ltpFR	1	1	0	GRASSHOPPER	656	1	n/a	0	n/a	n/a	n/a	n/a	n/a
3818.674	n/a	RECOG_CONF	1909337	n/a	LTP252	ltpFR	1	1	0	GRASSHOPPER	656	n/a	3	0	n/a	n/a	n/a	n/a	n/a
3826.784	n/a	REC_START	1913392	n/a	LTP252	ltpFR	1	2	n/a	n/a	n/a	n/a	n/a	n/a	n/a	n/a	n/a	n/a	n/a
3826.844	n/a	RECOG_TARGET	1913422	n/a	LTP252	ltpFR	1	2	0	EMPEROR	529	1	2	1	n/a	n/a	n/a	n/a	n/a
3828.586	n/a	RECOG_RESP	1914293	n/a	LTP252	ltpFR	1	2	0	EMPEROR	529	1	n/a	1	n/a	n/a	n/a	n/a	n/a
3830.708	n/a	RECOG_CONF	1915354	n/a	LTP252	ltpFR	1	2	0	EMPEROR	529	n/a	2	1	n/a	n/a	n/a	n/a	n/a
3832.298	n/a	RECOG_TARGET	1916149	n/a	LTP252	ltpFR	1	2	-1	VEHICLE	1553	1	5	-1	n/a	n/a	n/a	n/a	n/a
3833.19	n/a	RECOG_RESP	1916595	n/a	LTP252	ltpFR	1	2	-1	VEHICLE	1553	1	n/a	-1	n/a	n/a	n/a	n/a	n/a
3834.398	n/a	RECOG_CONF	1917199	n/a	LTP252	ltpFR	1	2	-1	VEHICLE	1553	n/a	5	-1	n/a	n/a	n/a	n/a	n/a
3836.262	n/a	RECOG_TARGET	1918131	n/a	LTP252	ltpFR	1	2	0	BANANA	77	0	1	0	n/a	n/a	n/a	n/a	n/a
3838.164	n/a	RECOG_RESP	1919082	n/a	LTP252	ltpFR	1	2	0	BANANA	77	0	n/a	0	n/a	n/a	n/a	n/a	n/a
3839.762	n/a	RECOG_CONF	1919881	n/a	LTP252	ltpFR	1	2	0	BANANA	77	n/a	1	0	n/a	n/a	n/a	n/a	n/a
3841.532	n/a	RECOG_TARGET	1920766	n/a	LTP252	ltpFR	1	2	0	LION	827	1	3	1	n/a	n/a	n/a	n/a	n/a
3842.934	n/a	RECOG_RESP	1921467	n/a	LTP252	ltpFR	1	2	0	LION	827	1	n/a	1	n/a	n/a	n/a	n/a	n/a
3844.262	n/a	RECOG_CONF	1922131	n/a	LTP252	ltpFR	1	2	0	LION	827	n/a	3	1	n/a	n/a	n/a	n/a	n/a
3845.9	n/a	RECOG_TARGET	1922950	n/a	LTP252	ltpFR	1	2	-1	RADISH	1158	1	5	-1	n/a	n/a	n/a	n/a	n/a
3846.676	n/a	RECOG_RESP	1923338	n/a	LTP252	ltpFR	1	2	-1	RADISH	1158	1	n/a	-1	n/a	n/a	n/a	n/a	n/a
3847.854	n/a	RECOG_CONF	1923927	n/a	LTP252	ltpFR	1	2	-1	RADISH	1158	n/a	5	-1	n/a	n/a	n/a	n/a	n/a
3849.664	n/a	RECOG_TARGET	1924832	n/a	LTP252	ltpFR	1	2	0	OVEN	991	1	4	1	n/a	n/a	n/a	n/a	n/a
3850.504	n/a	RECOG_RESP	1925252	n/a	LTP252	ltpFR	1	2	0	OVEN	991	1	n/a	1	n/a	n/a	n/a	n/a	n/a
3851.944	n/a	RECOG_CONF	1925972	n/a	LTP252	ltpFR	1	2	0	OVEN	991	n/a	4	1	n/a	n/a	n/a	n/a	n/a
3853.664	n/a	RECOG_TARGET	1926832	n/a	LTP252	ltpFR	1	2	-1	LIVER	833	1	5	-1	n/a	n/a	n/a	n/a	n/a
3854.368	n/a	RECOG_RESP	1927184	n/a	LTP252	ltpFR	1	2	-1	LIVER	833	1	n/a	-1	n/a	n/a	n/a	n/a	n/a
3855.716	n/a	RECOG_CONF	1927858	n/a	LTP252	ltpFR	1	2	-1	LIVER	833	n/a	5	-1	n/a	n/a	n/a	n/a	n/a
3857.662	n/a	RECOG_TARGET	1928831	n/a	LTP252	ltpFR	1	2	1	FOLLOWER	589	1	5	1	n/a	n/a	n/a	n/a	n/a
3858.5	n/a	RECOG_RESP	1929250	n/a	LTP252	ltpFR	1	2	1	FOLLOWER	589	1	n/a	1	n/a	n/a	n/a	n/a	n/a
3859.76	n/a	RECOG_CONF	1929880	n/a	LTP252	ltpFR	1	2	1	FOLLOWER	589	n/a	5	1	n/a	n/a	n/a	n/a	n/a
3861.51	n/a	RECOG_LURE	1930755	n/a	LTP252	ltpFR	1	2	n/a	OPERA	978	0	2	n/a	n/a	n/a	n/a	n/a	n/a
3862.624	n/a	RECOG_RESP	1931312	n/a	LTP252	ltpFR	1	2	n/a	OPERA	978	0	n/a	n/a	n/a	n/a	n/a	n/a	n/a
3863.874	n/a	RECOG_CONF	1931937	n/a	LTP252	ltpFR	1	2	n/a	OPERA	978	n/a	2	n/a	n/a	n/a	n/a	n/a	n/a
3865.542	n/a	RECOG_TARGET	1932771	n/a	LTP252	ltpFR	1	2	1	EAGLE	512	0	1	1	n/a	n/a	n/a	n/a	n/a
3868.196	n/a	RECOG_RESP	1934098	n/a	LTP252	ltpFR	1	2	1	EAGLE	512	0	n/a	1	n/a	n/a	n/a	n/a	n/a
3869.56	n/a	RECOG_CONF	1934780	n/a	LTP252	ltpFR	1	2	1	EAGLE	512	n/a	1	1	n/a	n/a	n/a	n/a	n/a
3871.498	n/a	RECOG_LURE	1935749	n/a	LTP252	ltpFR	1	2	n/a	CLOWN	330	0	4	n/a	n/a	n/a	n/a	n/a	n/a
3872.676	n/a	RECOG_RESP	1936338	n/a	LTP252	ltpFR	1	2	n/a	CLOWN	330	0	n/a	n/a	n/a	n/a	n/a	n/a	n/a
3873.866	n/a	RECOG_CONF	1936933	n/a	LTP252	ltpFR	1	2	n/a	CLOWN	330	n/a	4	n/a	n/a	n/a	n/a	n/a	n/a
3875.716	n/a	RECOG_TARGET	1937858	n/a	LTP252	ltpFR	1	2	1	DAUGHTER	442	1	4	1	n/a	n/a	n/a	n/a	n/a
3876.694	n/a	RECOG_RESP	1938347	n/a	LTP252	ltpFR	1	2	1	DAUGHTER	442	1	n/a	1	n/a	n/a	n/a	n/a	n/a
3878.346	n/a	RECOG_CONF	1939173	n/a	LTP252	ltpFR	1	2	1	DAUGHTER	442	n/a	4	1	n/a	n/a	n/a	n/a	n/a
3880.096	n/a	RECOG_TARGET	1940048	n/a	LTP252	ltpFR	1	2	0	PUCK	1138	1	3	0	n/a	n/a	n/a	n/a	n/a
3883.05	n/a	RECOG_RESP	1941525	n/a	LTP252	ltpFR	1	2	0	PUCK	1138	1	n/a	0	n/a	n/a	n/a	n/a	n/a
3885.476	n/a	RECOG_CONF	1942738	n/a	LTP252	ltpFR	1	2	0	PUCK	1138	n/a	3	0	n/a	n/a	n/a	n/a	n/a
3887.292	n/a	RECOG_TARGET	1943646	n/a	LTP252	ltpFR	1	2	-1	DRESSER	496	1	4	-1	n/a	n/a	n/a	n/a	n/a
3888.134	n/a	RECOG_RESP	1944067	n/a	LTP252	ltpFR	1	2	-1	DRESSER	496	1	n/a	-1	n/a	n/a	n/a	n/a	n/a
3889.48	n/a	RECOG_CONF	1944740	n/a	LTP252	ltpFR	1	2	-1	DRESSER	496	n/a	4	-1	n/a	n/a	n/a	n/a	n/a
3891.39	n/a	RECOG_LURE	1945695	n/a	LTP252	ltpFR	1	2	n/a	EGG	518	0	2	n/a	n/a	n/a	n/a	n/a	n/a
3892.42	n/a	RECOG_RESP	1946210	n/a	LTP252	ltpFR	1	2	n/a	EGG	518	0	n/a	n/a	n/a	n/a	n/a	n/a	n/a
3893.676	n/a	RECOG_CONF	1946838	n/a	LTP252	ltpFR	1	2	n/a	EGG	518	n/a	2	n/a	n/a	n/a	n/a	n/a	n/a
3895.44	n/a	RECOG_TARGET	1947720	n/a	LTP252	ltpFR	1	2	-1	PARROT	1015	1	5	-1	n/a	n/a	n/a	n/a	n/a
3896.246	n/a	RECOG_RESP	1948123	n/a	LTP252	ltpFR	1	2	-1	PARROT	1015	1	n/a	-1	n/a	n/a	n/a	n/a	n/a
3897.462	n/a	RECOG_CONF	1948731	n/a	LTP252	ltpFR	1	2	-1	PARROT	1015	n/a	5	-1	n/a	n/a	n/a	n/a	n/a
3899.07	n/a	RECOG_TARGET	1949535	n/a	LTP252	ltpFR	1	2	0	PICTURE	1061	1	4	0	n/a	n/a	n/a	n/a	n/a
3900.284	n/a	RECOG_RESP	1950142	n/a	LTP252	ltpFR	1	2	0	PICTURE	1061	1	n/a	0	n/a	n/a	n/a	n/a	n/a
3901.634	n/a	RECOG_CONF	1950817	n/a	LTP252	ltpFR	1	2	0	PICTURE	1061	n/a	4	0	n/a	n/a	n/a	n/a	n/a
3903.37	n/a	RECOG_TARGET	1951685	n/a	LTP252	ltpFR	1	2	0	EDITORIAL	517	1	2	1	n/a	n/a	n/a	n/a	n/a
3905.244	n/a	RECOG_RESP	1952622	n/a	LTP252	ltpFR	1	2	0	EDITORIAL	517	1	n/a	1	n/a	n/a	n/a	n/a	n/a
3906.604	n/a	RECOG_CONF	1953302	n/a	LTP252	ltpFR	1	2	0	EDITORIAL	517	n/a	2	1	n/a	n/a	n/a	n/a	n/a
3908.49	n/a	RECOG_LURE	1954245	n/a	LTP252	ltpFR	1	2	n/a	JAR	750	1	1	n/a	n/a	n/a	n/a	n/a	n/a
3910.926	n/a	RECOG_RESP	1955463	n/a	LTP252	ltpFR	1	2	n/a	JAR	750	1	n/a	n/a	n/a	n/a	n/a	n/a	n/a
3912.272	n/a	RECOG_CONF	1956136	n/a	LTP252	ltpFR	1	2	n/a	JAR	750	n/a	1	n/a	n/a	n/a	n/a	n/a	n/a
3914.062	n/a	RECOG_LURE	1957031	n/a	LTP252	ltpFR	1	2	n/a	PISTOL	1075	0	3	n/a	n/a	n/a	n/a	n/a	n/a
3915.74	n/a	RECOG_RESP	1957870	n/a	LTP252	ltpFR	1	2	n/a	PISTOL	1075	0	n/a	n/a	n/a	n/a	n/a	n/a	n/a
3917.458	n/a	RECOG_CONF	1958729	n/a	LTP252	ltpFR	1	2	n/a	PISTOL	1075	n/a	3	n/a	n/a	n/a	n/a	n/a	n/a
3931.174	n/a	REC_START	1965587	n/a	LTP252	ltpFR	1	3	n/a	n/a	n/a	n/a	n/a	n/a	n/a	n/a	n/a	n/a	n/a
3931.226	n/a	RECOG_LURE	1965613	n/a	LTP252	ltpFR	1	3	n/a	ALMANAC	17	0	4	n/a	n/a	n/a	n/a	n/a	n/a
3932.348	n/a	RECOG_RESP	1966174	n/a	LTP252	ltpFR	1	3	n/a	ALMANAC	17	0	n/a	n/a	n/a	n/a	n/a	n/a	n/a
3933.516	n/a	RECOG_CONF	1966758	n/a	LTP252	ltpFR	1	3	n/a	ALMANAC	17	n/a	4	n/a	n/a	n/a	n/a	n/a	n/a
3935.31	n/a	RECOG_LURE	1967655	n/a	LTP252	ltpFR	1	3	n/a	TWEEZERS	1526	0	4	n/a	n/a	n/a	n/a	n/a	n/a
3936.208	n/a	RECOG_RESP	1968104	n/a	LTP252	ltpFR	1	3	n/a	TWEEZERS	1526	0	n/a	n/a	n/a	n/a	n/a	n/a	n/a
3937.578	n/a	RECOG_CONF	1968789	n/a	LTP252	ltpFR	1	3	n/a	TWEEZERS	1526	n/a	4	n/a	n/a	n/a	n/a	n/a	n/a
3939.274	n/a	RECOG_TARGET	1969637	n/a	LTP252	ltpFR	1	3	-1	POND	1101	1	4	-1	n/a	n/a	n/a	n/a	n/a
3940.208	n/a	RECOG_RESP	1970104	n/a	LTP252	ltpFR	1	3	-1	POND	1101	1	n/a	-1	n/a	n/a	n/a	n/a	n/a
3941.322	n/a	RECOG_CONF	1970661	n/a	LTP252	ltpFR	1	3	-1	POND	1101	n/a	4	-1	n/a	n/a	n/a	n/a	n/a
3943.12	n/a	RECOG_TARGET	1971560	n/a	LTP252	ltpFR	1	3	0	RAIL	1161	1	5	1	n/a	n/a	n/a	n/a	n/a
3943.99	n/a	RECOG_RESP	1971995	n/a	LTP252	ltpFR	1	3	0	RAIL	1161	1	n/a	1	n/a	n/a	n/a	n/a	n/a
3945.082	n/a	RECOG_CONF	1972541	n/a	LTP252	ltpFR	1	3	0	RAIL	1161	n/a	5	1	n/a	n/a	n/a	n/a	n/a
3946.886	n/a	RECOG_TARGET	1973443	n/a	LTP252	ltpFR	1	3	0	CRUMB	416	1	3	0	n/a	n/a	n/a	n/a	n/a
3948.246	n/a	RECOG_RESP	1974123	n/a	LTP252	ltpFR	1	3	0	CRUMB	416	1	n/a	0	n/a	n/a	n/a	n/a	n/a
3949.502	n/a	RECOG_CONF	1974751	n/a	LTP252	ltpFR	1	3	0	CRUMB	416	n/a	3	0	n/a	n/a	n/a	n/a	n/a
3951.338	n/a	RECOG_TARGET	1975669	n/a	LTP252	ltpFR	1	3	0	ARTICLE	42	1	4	1	n/a	n/a	n/a	n/a	n/a
3952.146	n/a	RECOG_RESP	1976073	n/a	LTP252	ltpFR	1	3	0	ARTICLE	42	1	n/a	1	n/a	n/a	n/a	n/a	n/a
3953.41	n/a	RECOG_CONF	1976705	n/a	LTP252	ltpFR	1	3	0	ARTICLE	42	n/a	4	1	n/a	n/a	n/a	n/a	n/a
3955.134	n/a	RECOG_TARGET	1977567	n/a	LTP252	ltpFR	1	3	-1	RAM	1165	1	5	-1	n/a	n/a	n/a	n/a	n/a
3955.984	n/a	RECOG_RESP	1977992	n/a	LTP252	ltpFR	1	3	-1	RAM	1165	1	n/a	-1	n/a	n/a	n/a	n/a	n/a
3957.182	n/a	RECOG_CONF	1978591	n/a	LTP252	ltpFR	1	3	-1	RAM	1165	n/a	5	-1	n/a	n/a	n/a	n/a	n/a
3959.084	n/a	RECOG_LURE	1979542	n/a	LTP252	ltpFR	1	3	n/a	SHARK	1275	0	3	n/a	n/a	n/a	n/a	n/a	n/a
3960.076	n/a	RECOG_RESP	1980038	n/a	LTP252	ltpFR	1	3	n/a	SHARK	1275	0	n/a	n/a	n/a	n/a	n/a	n/a	n/a
3961.392	n/a	RECOG_CONF	1980696	n/a	LTP252	ltpFR	1	3	n/a	SHARK	1275	n/a	3	n/a	n/a	n/a	n/a	n/a	n/a
3963.148	n/a	RECOG_TARGET	1981574	n/a	LTP252	ltpFR	1	3	0	ABDOMEN	1	1	2	1	n/a	n/a	n/a	n/a	n/a
3964.756	n/a	RECOG_RESP	1982378	n/a	LTP252	ltpFR	1	3	0	ABDOMEN	1	1	n/a	1	n/a	n/a	n/a	n/a	n/a
3966.02	n/a	RECOG_CONF	1983010	n/a	LTP252	ltpFR	1	3	0	ABDOMEN	1	n/a	2	1	n/a	n/a	n/a	n/a	n/a
3967.9	n/a	RECOG_TARGET	1983950	n/a	LTP252	ltpFR	1	3	-1	WINDSHIELD	1612	1	5	-1	n/a	n/a	n/a	n/a	n/a
3968.796	n/a	RECOG_RESP	1984398	n/a	LTP252	ltpFR	1	3	-1	WINDSHIELD	1612	1	n/a	-1	n/a	n/a	n/a	n/a	n/a
3969.988	n/a	RECOG_CONF	1984994	n/a	LTP252	ltpFR	1	3	-1	WINDSHIELD	1612	n/a	5	-1	n/a	n/a	n/a	n/a	n/a
3971.732	n/a	RECOG_TARGET	1985866	n/a	LTP252	ltpFR	1	3	-1	BISON	131	1	2	-1	n/a	n/a	n/a	n/a	n/a
3973.05	n/a	RECOG_RESP	1986525	n/a	LTP252	ltpFR	1	3	-1	BISON	131	1	n/a	-1	n/a	n/a	n/a	n/a	n/a
3974.244	n/a	RECOG_CONF	1987122	n/a	LTP252	ltpFR	1	3	-1	BISON	131	n/a	2	-1	n/a	n/a	n/a	n/a	n/a
3976.082	n/a	RECOG_TARGET	1988041	n/a	LTP252	ltpFR	1	3	0	CERAMICS	271	0	1	0	n/a	n/a	n/a	n/a	n/a
3978.784	n/a	RECOG_RESP	1989392	n/a	LTP252	ltpFR	1	3	0	CERAMICS	271	0	n/a	0	n/a	n/a	n/a	n/a	n/a
3980.12	n/a	RECOG_CONF	1990060	n/a	LTP252	ltpFR	1	3	0	CERAMICS	271	n/a	1	0	n/a	n/a	n/a	n/a	n/a
3981.92	n/a	RECOG_LURE	1990960	n/a	LTP252	ltpFR	1	3	n/a	NICOTINE	951	0	4	n/a	n/a	n/a	n/a	n/a	n/a
3982.876	n/a	RECOG_RESP	1991438	n/a	LTP252	ltpFR	1	3	n/a	NICOTINE	951	0	n/a	n/a	n/a	n/a	n/a	n/a	n/a
3984.06	n/a	RECOG_CONF	1992030	n/a	LTP252	ltpFR	1	3	n/a	NICOTINE	951	n/a	4	n/a	n/a	n/a	n/a	n/a	n/a
3985.802	n/a	RECOG_LURE	1992901	n/a	LTP252	ltpFR	1	3	n/a	BED	110	0	1	n/a	n/a	n/a	n/a	n/a	n/a
3988.566	n/a	RECOG_RESP	1994283	n/a	LTP252	ltpFR	1	3	n/a	BED	110	0	n/a	n/a	n/a	n/a	n/a	n/a	n/a
3989.752	n/a	RECOG_CONF	1994876	n/a	LTP252	ltpFR	1	3	n/a	BED	110	n/a	1	n/a	n/a	n/a	n/a	n/a	n/a
3991.39	n/a	RECOG_LURE	1995695	n/a	LTP252	ltpFR	1	3	n/a	COWARD	394	0	1	n/a	n/a	n/a	n/a	n/a	n/a
3992.686	n/a	RECOG_RESP	1996343	n/a	LTP252	ltpFR	1	3	n/a	COWARD	394	0	n/a	n/a	n/a	n/a	n/a	n/a	n/a
3993.906	n/a	RECOG_CONF	1996953	n/a	LTP252	ltpFR	1	3	n/a	COWARD	394	n/a	1	n/a	n/a	n/a	n/a	n/a	n/a
3995.606	n/a	RECOG_LURE	1997803	n/a	LTP252	ltpFR	1	3	n/a	GROCERY	664	0	3	n/a	n/a	n/a	n/a	n/a	n/a
3996.564	n/a	RECOG_RESP	1998282	n/a	LTP252	ltpFR	1	3	n/a	GROCERY	664	0	n/a	n/a	n/a	n/a	n/a	n/a	n/a
3997.75	n/a	RECOG_CONF	1998875	n/a	LTP252	ltpFR	1	3	n/a	GROCERY	664	n/a	3	n/a	n/a	n/a	n/a	n/a	n/a
3999.42	n/a	RECOG_LURE	1999710	n/a	LTP252	ltpFR	1	3	n/a	ROPE	1211	0	2	n/a	n/a	n/a	n/a	n/a	n/a
4000.628	n/a	RECOG_RESP	2000314	n/a	LTP252	ltpFR	1	3	n/a	ROPE	1211	0	n/a	n/a	n/a	n/a	n/a	n/a	n/a
4001.796	n/a	RECOG_CONF	2000898	n/a	LTP252	ltpFR	1	3	n/a	ROPE	1211	n/a	2	n/a	n/a	n/a	n/a	n/a	n/a
4003.386	n/a	RECOG_TARGET	2001693	n/a	LTP252	ltpFR	1	3	1	GARLIC	624	0	1	1	n/a	n/a	n/a	n/a	n/a
4007.604	n/a	RECOG_RESP	2003802	n/a	LTP252	ltpFR	1	3	1	GARLIC	624	0	n/a	1	n/a	n/a	n/a	n/a	n/a
4008.884	n/a	RECOG_CONF	2004442	n/a	LTP252	ltpFR	1	3	1	GARLIC	624	n/a	1	1	n/a	n/a	n/a	n/a	n/a
4010.798	n/a	RECOG_TARGET	2005399	n/a	LTP252	ltpFR	1	3	-1	TELEVISION	1447	1	4	-1	n/a	n/a	n/a	n/a	n/a
4012.236	n/a	RECOG_RESP	2006118	n/a	LTP252	ltpFR	1	3	-1	TELEVISION	1447	1	n/a	-1	n/a	n/a	n/a	n/a	n/a
4013.858	n/a	RECOG_CONF	2006929	n/a	LTP252	ltpFR	1	3	-1	TELEVISION	1447	n/a	4	-1	n/a	n/a	n/a	n/a	n/a
4015.498	n/a	RECOG_TARGET	2007749	n/a	LTP252	ltpFR	1	3	1	BLUEJAY	141	1	3	1	n/a	n/a	n/a	n/a	n/a
4016.474	n/a	RECOG_RESP	2008237	n/a	LTP252	ltpFR	1	3	1	BLUEJAY	141	1	n/a	1	n/a	n/a	n/a	n/a	n/a
4017.588	n/a	RECOG_CONF	2008794	n/a	LTP252	ltpFR	1	3	1	BLUEJAY	141	n/a	3	1	n/a	n/a	n/a	n/a	n/a
4024.556	n/a	REC_START	2012278	n/a	LTP252	ltpFR	1	4	n/a	n/a	n/a	n/a	n/a	n/a	n/a	n/a	n/a	n/a	n/a
4024.6	n/a	RECOG_LURE	2012300	n/a	LTP252	ltpFR	1	4	n/a	PRODUCER	1129	1	2	n/a	n/a	n/a	n/a	n/a	n/a
4027.362	n/a	RECOG_RESP	2013681	n/a	LTP252	ltpFR	1	4	n/a	PRODUCER	1129	1	n/a	n/a	n/a	n/a	n/a	n/a	n/a
4028.59	n/a	RECOG_CONF	2014295	n/a	LTP252	ltpFR	1	4	n/a	PRODUCER	1129	n/a	2	n/a	n/a	n/a	n/a	n/a	n/a
4030.372	n/a	RECOG_LURE	2015186	n/a	LTP252	ltpFR	1	4	n/a	DRILL	497	0	3	n/a	n/a	n/a	n/a	n/a	n/a
4031.244	n/a	RECOG_RESP	2015622	n/a	LTP252	ltpFR	1	4	n/a	DRILL	497	0	n/a	n/a	n/a	n/a	n/a	n/a	n/a
4032.472	n/a	RECOG_CONF	2016236	n/a	LTP252	ltpFR	1	4	n/a	DRILL	497	n/a	3	n/a	n/a	n/a	n/a	n/a	n/a
4034.054	n/a	RECOG_TARGET	2017027	n/a	LTP252	ltpFR	1	4	1	MOTOR	922	0	3	0	n/a	n/a	n/a	n/a	n/a
4036.372	n/a	RECOG_RESP	2018186	n/a	LTP252	ltpFR	1	4	1	MOTOR	922	0	n/a	0	n/a	n/a	n/a	n/a	n/a
4037.554	n/a	RECOG_CONF	2018777	n/a	LTP252	ltpFR	1	4	1	MOTOR	922	n/a	3	0	n/a	n/a	n/a	n/a	n/a
4039.34	n/a	RECOG_TARGET	2019670	n/a	LTP252	ltpFR	1	4	-1	CLIFF	322	1	4	-1	n/a	n/a	n/a	n/a	n/a
4040.47	n/a	RECOG_RESP	2020235	n/a	LTP252	ltpFR	1	4	-1	CLIFF	322	1	n/a	-1	n/a	n/a	n/a	n/a	n/a
4041.602	n/a	RECOG_CONF	2020801	n/a	LTP252	ltpFR	1	4	-1	CLIFF	322	n/a	4	-1	n/a	n/a	n/a	n/a	n/a
4043.288	n/a	RECOG_TARGET	2021644	n/a	LTP252	ltpFR	1	4	-1	SCAPEGOAT	1244	1	5	-1	n/a	n/a	n/a	n/a	n/a
4044.378	n/a	RECOG_RESP	2022189	n/a	LTP252	ltpFR	1	4	-1	SCAPEGOAT	1244	1	n/a	-1	n/a	n/a	n/a	n/a	n/a
4045.578	n/a	RECOG_CONF	2022789	n/a	LTP252	ltpFR	1	4	-1	SCAPEGOAT	1244	n/a	5	-1	n/a	n/a	n/a	n/a	n/a
4047.304	n/a	RECOG_TARGET	2023652	n/a	LTP252	ltpFR	1	4	0	KEY	773	1	5	0	n/a	n/a	n/a	n/a	n/a
4048.444	n/a	RECOG_RESP	2024222	n/a	LTP252	ltpFR	1	4	0	KEY	773	1	n/a	0	n/a	n/a	n/a	n/a	n/a
4049.498	n/a	RECOG_CONF	2024749	n/a	LTP252	ltpFR	1	4	0	KEY	773	n/a	5	0	n/a	n/a	n/a	n/a	n/a
4051.27	n/a	RECOG_TARGET	2025635	n/a	LTP252	ltpFR	1	4	0	SUNRISE	1407	1	3	1	n/a	n/a	n/a	n/a	n/a
4053.03	n/a	RECOG_RESP	2026515	n/a	LTP252	ltpFR	1	4	0	SUNRISE	1407	1	n/a	1	n/a	n/a	n/a	n/a	n/a
4054.266	n/a	RECOG_CONF	2027133	n/a	LTP252	ltpFR	1	4	0	SUNRISE	1407	n/a	3	1	n/a	n/a	n/a	n/a	n/a
4055.936	n/a	RECOG_LURE	2027968	n/a	LTP252	ltpFR	1	4	n/a	CLARINET	317	0	4	n/a	n/a	n/a	n/a	n/a	n/a
4056.822	n/a	RECOG_RESP	2028411	n/a	LTP252	ltpFR	1	4	n/a	CLARINET	317	0	n/a	n/a	n/a	n/a	n/a	n/a	n/a
4057.996	n/a	RECOG_CONF	2028998	n/a	LTP252	ltpFR	1	4	n/a	CLARINET	317	n/a	4	n/a	n/a	n/a	n/a	n/a	n/a
4059.598	n/a	RECOG_TARGET	2029799	n/a	LTP252	ltpFR	1	4	-1	WATER	1594	0	1	-1	n/a	n/a	n/a	n/a	n/a
4060.996	n/a	RECOG_RESP	2030498	n/a	LTP252	ltpFR	1	4	-1	WATER	1594	0	n/a	-1	n/a	n/a	n/a	n/a	n/a
4062.288	n/a	RECOG_CONF	2031144	n/a	LTP252	ltpFR	1	4	-1	WATER	1594	n/a	1	-1	n/a	n/a	n/a	n/a	n/a
4063.984	n/a	RECOG_LURE	2031992	n/a	LTP252	ltpFR	1	4	n/a	PACKAGE	997	1	2	n/a	n/a	n/a	n/a	n/a	n/a
4065.638	n/a	RECOG_RESP	2032819	n/a	LTP252	ltpFR	1	4	n/a	PACKAGE	997	1	n/a	n/a	n/a	n/a	n/a	n/a	n/a
4066.794	n/a	RECOG_CONF	2033397	n/a	LTP252	ltpFR	1	4	n/a	PACKAGE	997	n/a	2	n/a	n/a	n/a	n/a	n/a	n/a
4068.636	n/a	RECOG_TARGET	2034318	n/a	LTP252	ltpFR	1	4	1	CHIP	303	1	4	0	n/a	n/a	n/a	n/a	n/a
4070.258	n/a	RECOG_RESP	2035129	n/a	LTP252	ltpFR	1	4	1	CHIP	303	1	n/a	0	n/a	n/a	n/a	n/a	n/a
4071.438	n/a	RECOG_CONF	2035719	n/a	LTP252	ltpFR	1	4	1	CHIP	303	n/a	4	0	n/a	n/a	n/a	n/a	n/a
4073.236	n/a	RECOG_TARGET	2036618	n/a	LTP252	ltpFR	1	4	0	STREAM	1392	1	4	1	n/a	n/a	n/a	n/a	n/a
4074.442	n/a	RECOG_RESP	2037221	n/a	LTP252	ltpFR	1	4	0	STREAM	1392	1	n/a	1	n/a	n/a	n/a	n/a	n/a
4075.698	n/a	RECOG_CONF	2037849	n/a	LTP252	ltpFR	1	4	0	STREAM	1392	n/a	4	1	n/a	n/a	n/a	n/a	n/a
4077.418	n/a	RECOG_LURE	2038709	n/a	LTP252	ltpFR	1	4	n/a	BARTENDER	92	0	2	n/a	n/a	n/a	n/a	n/a	n/a
4080.146	n/a	RECOG_RESP	2040073	n/a	LTP252	ltpFR	1	4	n/a	BARTENDER	92	0	n/a	n/a	n/a	n/a	n/a	n/a	n/a
4081.546	n/a	RECOG_CONF	2040773	n/a	LTP252	ltpFR	1	4	n/a	BARTENDER	92	n/a	2	n/a	n/a	n/a	n/a	n/a	n/a
4083.46	n/a	RECOG_TARGET	2041730	n/a	LTP252	ltpFR	1	4	-1	COMB	351	1	4	-1	n/a	n/a	n/a	n/a	n/a
4084.36	n/a	RECOG_RESP	2042180	n/a	LTP252	ltpFR	1	4	-1	COMB	351	1	n/a	-1	n/a	n/a	n/a	n/a	n/a
4085.536	n/a	RECOG_CONF	2042768	n/a	LTP252	ltpFR	1	4	-1	COMB	351	n/a	4	-1	n/a	n/a	n/a	n/a	n/a
4087.29	n/a	RECOG_TARGET	2043645	n/a	LTP252	ltpFR	1	4	0	MOVIE	927	0	2	1	n/a	n/a	n/a	n/a	n/a
4089.894	n/a	RECOG_RESP	2044947	n/a	LTP252	ltpFR	1	4	0	MOVIE	927	0	n/a	1	n/a	n/a	n/a	n/a	n/a
4091.922	n/a	RECOG_CONF	2045961	n/a	LTP252	ltpFR	1	4	0	MOVIE	927	n/a	2	1	n/a	n/a	n/a	n/a	n/a
4093.732	n/a	RECOG_TARGET	2046866	n/a	LTP252	ltpFR	1	4	0	WINE	1613	1	5	1	n/a	n/a	n/a	n/a	n/a
4094.566	n/a	RECOG_RESP	2047283	n/a	LTP252	ltpFR	1	4	0	WINE	1613	1	n/a	1	n/a	n/a	n/a	n/a	n/a
4095.62	n/a	RECOG_CONF	2047810	n/a	LTP252	ltpFR	1	4	0	WINE	1613	n/a	5	1	n/a	n/a	n/a	n/a	n/a
4097.294	n/a	RECOG_LURE	2048647	n/a	LTP252	ltpFR	1	4	n/a	EARRING	514	0	4	n/a	n/a	n/a	n/a	n/a	n/a
4098.284	n/a	RECOG_RESP	2049142	n/a	LTP252	ltpFR	1	4	n/a	EARRING	514	0	n/a	n/a	n/a	n/a	n/a	n/a	n/a
4099.386	n/a	RECOG_CONF	2049693	n/a	LTP252	ltpFR	1	4	n/a	EARRING	514	n/a	4	n/a	n/a	n/a	n/a	n/a	n/a
4101.194	n/a	RECOG_LURE	2050597	n/a	LTP252	ltpFR	1	4	n/a	THREAD	1460	0	2	n/a	n/a	n/a	n/a	n/a	n/a
4103.758	n/a	RECOG_RESP	2051879	n/a	LTP252	ltpFR	1	4	n/a	THREAD	1460	0	n/a	n/a	n/a	n/a	n/a	n/a	n/a
4105.03	n/a	RECOG_CONF	2052515	n/a	LTP252	ltpFR	1	4	n/a	THREAD	1460	n/a	2	n/a	n/a	n/a	n/a	n/a	n/a
4106.764	n/a	RECOG_LURE	2053382	n/a	LTP252	ltpFR	1	4	n/a	OZONE	996	0	5	n/a	n/a	n/a	n/a	n/a	n/a
4107.736	n/a	RECOG_RESP	2053868	n/a	LTP252	ltpFR	1	4	n/a	OZONE	996	0	n/a	n/a	n/a	n/a	n/a	n/a	n/a
4108.884	n/a	RECOG_CONF	2054442	n/a	LTP252	ltpFR	1	4	n/a	OZONE	996	n/a	5	n/a	n/a	n/a	n/a	n/a	n/a
4110.562	n/a	RECOG_TARGET	2055281	n/a	LTP252	ltpFR	1	4	1	PEAR	1033	1	4	1	n/a	n/a	n/a	n/a	n/a
4113.142	n/a	RECOG_RESP	2056571	n/a	LTP252	ltpFR	1	4	1	PEAR	1033	1	n/a	1	n/a	n/a	n/a	n/a	n/a
4114.522	n/a	RECOG_CONF	2057261	n/a	LTP252	ltpFR	1	4	1	PEAR	1033	n/a	4	1	n/a	n/a	n/a	n/a	n/a
4120.564	n/a	REC_START	2060282	n/a	LTP252	ltpFR	1	5	n/a	n/a	n/a	n/a	n/a	n/a	n/a	n/a	n/a	n/a	n/a
4120.618	n/a	RECOG_LURE	2060309	n/a	LTP252	ltpFR	1	5	n/a	HOSE	720	0	2	n/a	n/a	n/a	n/a	n/a	n/a
4123.174	n/a	RECOG_RESP	2061587	n/a	LTP252	ltpFR	1	5	n/a	HOSE	720	0	n/a	n/a	n/a	n/a	n/a	n/a	n/a
4124.332	n/a	RECOG_CONF	2062166	n/a	LTP252	ltpFR	1	5	n/a	HOSE	720	n/a	2	n/a	n/a	n/a	n/a	n/a	n/a
4126.138	n/a	RECOG_TARGET	2063069	n/a	LTP252	ltpFR	1	5	1	BALLOON	75	0	1	0	n/a	n/a	n/a	n/a	n/a
4128.974	n/a	RECOG_RESP	2064487	n/a	LTP252	ltpFR	1	5	1	BALLOON	75	0	n/a	0	n/a	n/a	n/a	n/a	n/a
4130.092	n/a	RECOG_CONF	2065046	n/a	LTP252	ltpFR	1	5	1	BALLOON	75	n/a	1	0	n/a	n/a	n/a	n/a	n/a
4131.844	n/a	RECOG_TARGET	2065922	n/a	LTP252	ltpFR	1	5	0	POLICE	1098	0	1	1	n/a	n/a	n/a	n/a	n/a
4135.904	n/a	RECOG_RESP	2067952	n/a	LTP252	ltpFR	1	5	0	POLICE	1098	0	n/a	1	n/a	n/a	n/a	n/a	n/a
4137.132	n/a	RECOG_CONF	2068566	n/a	LTP252	ltpFR	1	5	0	POLICE	1098	n/a	1	1	n/a	n/a	n/a	n/a	n/a
4138.838	n/a	RECOG_LURE	2069419	n/a	LTP252	ltpFR	1	5	n/a	COBBLER	335	0	3	n/a	n/a	n/a	n/a	n/a	n/a
4141.602	n/a	RECOG_RESP	2070801	n/a	LTP252	ltpFR	1	5	n/a	COBBLER	335	0	n/a	n/a	n/a	n/a	n/a	n/a	n/a
4142.9	n/a	RECOG_CONF	2071450	n/a	LTP252	ltpFR	1	5	n/a	COBBLER	335	n/a	3	n/a	n/a	n/a	n/a	n/a	n/a
4144.676	n/a	RECOG_LURE	2072338	n/a	LTP252	ltpFR	1	5	n/a	TRUMPET	1513	0	2	n/a	n/a	n/a	n/a	n/a	n/a
4147.936	n/a	RECOG_RESP	2073968	n/a	LTP252	ltpFR	1	5	n/a	TRUMPET	1513	0	n/a	n/a	n/a	n/a	n/a	n/a	n/a
4149.238	n/a	RECOG_CONF	2074619	n/a	LTP252	ltpFR	1	5	n/a	TRUMPET	1513	n/a	2	n/a	n/a	n/a	n/a	n/a	n/a
4151.066	n/a	RECOG_TARGET	2075533	n/a	LTP252	ltpFR	1	5	1	STEWARDESS	1381	0	3	1	n/a	n/a	n/a	n/a	n/a
4154.668	n/a	RECOG_RESP	2077334	n/a	LTP252	ltpFR	1	5	1	STEWARDESS	1381	0	n/a	1	n/a	n/a	n/a	n/a	n/a
4155.93	n/a	RECOG_CONF	2077965	n/a	LTP252	ltpFR	1	5	1	STEWARDESS	1381	n/a	3	1	n/a	n/a	n/a	n/a	n/a
4157.592	n/a	RECOG_TARGET	2078796	n/a	LTP252	ltpFR	1	5	1	SUPERMARKET	1409	1	3	0	n/a	n/a	n/a	n/a	n/a
4159.112	n/a	RECOG_RESP	2079556	n/a	LTP252	ltpFR	1	5	1	SUPERMARKET	1409	1	n/a	0	n/a	n/a	n/a	n/a	n/a
4160.34	n/a	RECOG_CONF	2080170	n/a	LTP252	ltpFR	1	5	1	SUPERMARKET	1409	n/a	3	0	n/a	n/a	n/a	n/a	n/a
4161.976	n/a	RECOG_TARGET	2080988	n/a	LTP252	ltpFR	1	5	1	CHECK	284	1	4	0	n/a	n/a	n/a	n/a	n/a
4162.944	n/a	RECOG_RESP	2081472	n/a	LTP252	ltpFR	1	5	1	CHECK	284	1	n/a	0	n/a	n/a	n/a	n/a	n/a
4163.962	n/a	RECOG_CONF	2081981	n/a	LTP252	ltpFR	1	5	1	CHECK	284	n/a	4	0	n/a	n/a	n/a	n/a	n/a
4165.724	n/a	RECOG_LURE	2082862	n/a	LTP252	ltpFR	1	5	n/a	JET	756	1	3	n/a	n/a	n/a	n/a	n/a	n/a
4167.424	n/a	RECOG_RESP	2083712	n/a	LTP252	ltpFR	1	5	n/a	JET	756	1	n/a	n/a	n/a	n/a	n/a	n/a	n/a
4168.742	n/a	RECOG_CONF	2084371	n/a	LTP252	ltpFR	1	5	n/a	JET	756	n/a	3	n/a	n/a	n/a	n/a	n/a	n/a
4170.44	n/a	RECOG_LURE	2085220	n/a	LTP252	ltpFR	1	5	n/a	MULE	931	0	2	n/a	n/a	n/a	n/a	n/a	n/a
4172.58	n/a	RECOG_RESP	2086290	n/a	LTP252	ltpFR	1	5	n/a	MULE	931	0	n/a	n/a	n/a	n/a	n/a	n/a	n/a
4173.832	n/a	RECOG_CONF	2086916	n/a	LTP252	ltpFR	1	5	n/a	MULE	931	n/a	2	n/a	n/a	n/a	n/a	n/a	n/a
4175.712	n/a	RECOG_LURE	2087856	n/a	LTP252	ltpFR	1	5	n/a	CHURCH	307	0	3	n/a	n/a	n/a	n/a	n/a	n/a
