mstime	trial_type	stim_file	subject	experiment	session	trial	task	item_name	item_num	recog_resp	recog_conf	resp	answer	test_x	test_y	test_z	color_r	color_g	color_b	case	font
0	SESS_START	n/a	LTP130	ltpFR	13	n/a	n/a	n/a	n/a	1	n/a	n/a	n/a	0	0	0	n/a	n/a	n/a	n/a	n/a
34838	START	n/a	LTP130	ltpFR	13	n/a	n/a	n/a	n/a	n/a	n/a	n/a	n/a	n/a	n/a	n/a	n/a	n/a	n/a	n/a	n/a
34862	PROB	n/a	LTP130	ltpFR	13	n/a	n/a	n/a	n/a	n/a	n/a	n/a	11	4	5	2	n/a	n/a	n/a	n/a	n/a
36752	PROB	n/a	LTP130	ltpFR	13	n/a	n/a	n/a	n/a	n/a	n/a	n/a	21	9	4	8	n/a	n/a	n/a	n/a	n/a
38502	PROB	n/a	LTP130	ltpFR	13	n/a	n/a	n/a	n/a	n/a	n/a	n/a	11	4	4	3	n/a	n/a	n/a	n/a	n/a
39936	PROB	n/a	LTP130	ltpFR	13	n/a	n/a	n/a	n/a	n/a	n/a	n/a	7	2	2	3	n/a	n/a	n/a	n/a	n/a
42043	PROB	n/a	LTP130	ltpFR	13	n/a	n/a	n/a	n/a	n/a	n/a	n/a	23	8	9	6	n/a	n/a	n/a	n/a	n/a
44034	PROB	n/a	LTP130	ltpFR	13	n/a	n/a	n/a	n/a	n/a	n/a	n/a	19	2	8	9	n/a	n/a	n/a	n/a	n/a
46541	PROB	n/a	LTP130	ltpFR	13	n/a	n/a	n/a	n/a	n/a	n/a	n/a	13	3	6	4	n/a	n/a	n/a	n/a	n/a
49049	PROB	n/a	LTP130	ltpFR	13	n/a	n/a	n/a	n/a	n/a	n/a	n/a	17	6	2	9	n/a	n/a	n/a	n/a	n/a
50857	PROB	n/a	LTP130	ltpFR	13	n/a	n/a	n/a	n/a	n/a	n/a	n/a	22	5	8	9	n/a	n/a	n/a	n/a	n/a
54784	STOP	n/a	LTP130	ltpFR	13	n/a	n/a	n/a	n/a	n/a	n/a	n/a	n/a	n/a	n/a	n/a	n/a	n/a	n/a	n/a	n/a
78622	START	n/a	LTP130	ltpFR	13	n/a	n/a	n/a	n/a	n/a	n/a	n/a	n/a	n/a	n/a	n/a	n/a	n/a	n/a	n/a	n/a
80130	PROB	n/a	LTP130	ltpFR	13	n/a	n/a	n/a	n/a	n/a	n/a	n/a	13	9	2	2	n/a	n/a	n/a	n/a	n/a
82254	PROB	n/a	LTP130	ltpFR	13	n/a	n/a	n/a	n/a	n/a	n/a	n/a	18	9	6	3	n/a	n/a	n/a	n/a	n/a
83853	PROB	n/a	LTP130	ltpFR	13	n/a	n/a	n/a	n/a	n/a	n/a	n/a	14	4	5	5	n/a	n/a	n/a	n/a	n/a
85679	STOP	n/a	LTP130	ltpFR	13	n/a	n/a	n/a	n/a	n/a	n/a	n/a	n/a	n/a	n/a	n/a	n/a	n/a	n/a	n/a	n/a
87626	WORD	wordpools/wasnorm_wordpool.txt	LTP130	ltpFR	13	1	1	DIGGER	464	n/a	n/a	1	n/a	0	0	0	0.57763671875	0.412841796875	1	lower	zerothre.ttf
90634	START	n/a	LTP130	ltpFR	13	n/a	n/a	n/a	n/a	n/a	n/a	n/a	n/a	n/a	n/a	n/a	n/a	n/a	n/a	n/a	n/a
91491	PROB	n/a	LTP130	ltpFR	13	n/a	n/a	n/a	n/a	n/a	n/a	n/a	11	7	3	1	n/a	n/a	n/a	n/a	n/a
92599	PROB	n/a	LTP130	ltpFR	13	n/a	n/a	n/a	n/a	n/a	n/a	n/a	11	2	8	1	n/a	n/a	n/a	n/a	n/a
93816	PROB	n/a	LTP130	ltpFR	13	n/a	n/a	n/a	n/a	n/a	n/a	n/a	23	6	9	8	n/a	n/a	n/a	n/a	n/a
95640	PROB	n/a	LTP130	ltpFR	13	n/a	n/a	n/a	n/a	n/a	n/a	n/a	16	9	4	3	n/a	n/a	n/a	n/a	n/a
98144	STOP	n/a	LTP130	ltpFR	13	n/a	n/a	n/a	n/a	n/a	n/a	n/a	n/a	n/a	n/a	n/a	n/a	n/a	n/a	n/a	n/a
99447	WORD	wordpools/wasnorm_wordpool.txt	LTP130	ltpFR	13	1	1	FARM	552	n/a	n/a	1	n/a	0	0	0	0.57763671875	0.412841796875	1	lower	zerothre.ttf
102455	START	n/a	LTP130	ltpFR	13	n/a	n/a	n/a	n/a	n/a	n/a	n/a	n/a	n/a	n/a	n/a	n/a	n/a	n/a	n/a	n/a
103346	PROB	n/a	LTP130	ltpFR	13	n/a	n/a	n/a	n/a	n/a	n/a	n/a	16	6	9	1	n/a	n/a	n/a	n/a	n/a
105346	PROB	n/a	LTP130	ltpFR	13	n/a	n/a	n/a	n/a	n/a	n/a	n/a	18	8	7	3	n/a	n/a	n/a	n/a	n/a
106995	PROB	n/a	LTP130	ltpFR	13	n/a	n/a	n/a	n/a	n/a	n/a	n/a	20	7	8	5	n/a	n/a	n/a	n/a	n/a
109064	STOP	n/a	LTP130	ltpFR	13	n/a	n/a	n/a	n/a	n/a	n/a	n/a	n/a	n/a	n/a	n/a	n/a	n/a	n/a	n/a	n/a
111576	WORD	wordpools/wasnorm_wordpool.txt	LTP130	ltpFR	13	1	1	SHARK	1275	n/a	n/a	1	n/a	0	0	0	0.57763671875	0.412841796875	1	lower	zerothre.ttf
114584	START	n/a	LTP130	ltpFR	13	n/a	n/a	n/a	n/a	n/a	n/a	n/a	n/a	n/a	n/a	n/a	n/a	n/a	n/a	n/a	n/a
115758	PROB	n/a	LTP130	ltpFR	13	n/a	n/a	n/a	n/a	n/a	n/a	n/a	6	1	2	3	n/a	n/a	n/a	n/a	n/a
116825	PROB	n/a	LTP130	ltpFR	13	n/a	n/a	n/a	n/a	n/a	n/a	n/a	19	9	6	4	n/a	n/a	n/a	n/a	n/a
119748	PROB	n/a	LTP130	ltpFR	13	n/a	n/a	n/a	n/a	n/a	n/a	n/a	12	1	2	9	n/a	n/a	n/a	n/a	n/a
121904	STOP	n/a	LTP130	ltpFR	13	n/a	n/a	n/a	n/a	n/a	n/a	n/a	n/a	n/a	n/a	n/a	n/a	n/a	n/a	n/a	n/a
123697	WORD	wordpools/wasnorm_wordpool.txt	LTP130	ltpFR	13	1	0	MARINE	869	n/a	n/a	1	n/a	0	0	0	0.422607421875	0.5869140625	0	upper	amplitud.ttf
126704	START	n/a	LTP130	ltpFR	13	n/a	n/a	n/a	n/a	n/a	n/a	n/a	n/a	n/a	n/a	n/a	n/a	n/a	n/a	n/a	n/a
127645	PROB	n/a	LTP130	ltpFR	13	n/a	n/a	n/a	n/a	n/a	n/a	n/a	15	3	5	7	n/a	n/a	n/a	n/a	n/a
129121	PROB	n/a	LTP130	ltpFR	13	n/a	n/a	n/a	n/a	n/a	n/a	n/a	15	7	5	3	n/a	n/a	n/a	n/a	n/a
130803	PROB	n/a	LTP130	ltpFR	13	n/a	n/a	n/a	n/a	n/a	n/a	n/a	19	9	9	1	n/a	n/a	n/a	n/a	n/a
132377	PROB	n/a	LTP130	ltpFR	13	n/a	n/a	n/a	n/a	n/a	n/a	n/a	12	1	6	5	n/a	n/a	n/a	n/a	n/a
133904	STOP	n/a	LTP130	ltpFR	13	n/a	n/a	n/a	n/a	n/a	n/a	n/a	n/a	n/a	n/a	n/a	n/a	n/a	n/a	n/a	n/a
135542	WORD	wordpools/wasnorm_wordpool.txt	LTP130	ltpFR	13	1	0	PAIL	1002	n/a	n/a	1	n/a	0	0	0	0.422607421875	0.5869140625	0	upper	amplitud.ttf
138550	START	n/a	LTP130	ltpFR	13	n/a	n/a	n/a	n/a	n/a	n/a	n/a	n/a	n/a	n/a	n/a	n/a	n/a	n/a	n/a	n/a
139391	PROB	n/a	LTP130	ltpFR	13	n/a	n/a	n/a	n/a	n/a	n/a	n/a	17	2	8	7	n/a	n/a	n/a	n/a	n/a
142540	PROB	n/a	LTP130	ltpFR	13	n/a	n/a	n/a	n/a	n/a	n/a	n/a	19	6	6	7	n/a	n/a	n/a	n/a	n/a
144498	PROB	n/a	LTP130	ltpFR	13	n/a	n/a	n/a	n/a	n/a	n/a	n/a	12	7	1	4	n/a	n/a	n/a	n/a	n/a
146248	STOP	n/a	LTP130	ltpFR	13	n/a	n/a	n/a	n/a	n/a	n/a	n/a	n/a	n/a	n/a	n/a	n/a	n/a	n/a	n/a	n/a
147538	WORD	wordpools/wasnorm_wordpool.txt	LTP130	ltpFR	13	1	0	EAR	513	n/a	n/a	0	n/a	0	0	0	0.422607421875	0.5869140625	0	upper	amplitud.ttf
150546	START	n/a	LTP130	ltpFR	13	n/a	n/a	n/a	n/a	n/a	n/a	n/a	n/a	n/a	n/a	n/a	n/a	n/a	n/a	n/a	n/a
151528	PROB	n/a	LTP130	ltpFR	13	n/a	n/a	n/a	n/a	n/a	n/a	n/a	12	2	6	4	n/a	n/a	n/a	n/a	n/a
154262	PROB	n/a	LTP130	ltpFR	13	n/a	n/a	n/a	n/a	n/a	n/a	n/a	20	9	9	2	n/a	n/a	n/a	n/a	n/a
155710	PROB	n/a	LTP130	ltpFR	13	n/a	n/a	n/a	n/a	n/a	n/a	n/a	13	3	3	7	n/a	n/a	n/a	n/a	n/a
157072	STOP	n/a	LTP130	ltpFR	13	n/a	n/a	n/a	n/a	n/a	n/a	n/a	n/a	n/a	n/a	n/a	n/a	n/a	n/a	n/a	n/a
159426	WORD	wordpools/wasnorm_wordpool.txt	LTP130	ltpFR	13	1	0	FIN	566	n/a	n/a	0	n/a	0	0	0	0.422607421875	0.5869140625	0	upper	amplitud.ttf
162433	START	n/a	LTP130	ltpFR	13	n/a	n/a	n/a	n/a	n/a	n/a	n/a	n/a	n/a	n/a	n/a	n/a	n/a	n/a	n/a	n/a
163591	PROB	n/a	LTP130	ltpFR	13	n/a	n/a	n/a	n/a	n/a	n/a	n/a	21	9	4	8	n/a	n/a	n/a	n/a	n/a
165582	PROB	n/a	LTP130	ltpFR	13	n/a	n/a	n/a	n/a	n/a	n/a	n/a	18	7	5	6	n/a	n/a	n/a	n/a	n/a
167356	PROB	n/a	LTP130	ltpFR	13	n/a	n/a	n/a	n/a	n/a	n/a	n/a	16	8	5	3	n/a	n/a	n/a	n/a	n/a
169328	STOP	n/a	LTP130	ltpFR	13	n/a	n/a	n/a	n/a	n/a	n/a	n/a	n/a	n/a	n/a	n/a	n/a	n/a	n/a	n/a	n/a
171421	WORD	wordpools/wasnorm_wordpool.txt	LTP130	ltpFR	13	1	0	FLANNEL	574	n/a	n/a	1	n/a	0	0	0	0.422607421875	0.5869140625	0	upper	amplitud.ttf
174429	START	n/a	LTP130	ltpFR	13	n/a	n/a	n/a	n/a	n/a	n/a	n/a	n/a	n/a	n/a	n/a	n/a	n/a	n/a	n/a	n/a
175370	PROB	n/a	LTP130	ltpFR	13	n/a	n/a	n/a	n/a	n/a	n/a	n/a	10	3	1	6	n/a	n/a	n/a	n/a	n/a
177962	PROB	n/a	LTP130	ltpFR	13	n/a	n/a	n/a	n/a	n/a	n/a	n/a	19	3	7	9	n/a	n/a	n/a	n/a	n/a
179427	PROB	n/a	LTP130	ltpFR	13	n/a	n/a	n/a	n/a	n/a	n/a	n/a	24	8	8	8	n/a	n/a	n/a	n/a	n/a
180960	STOP	n/a	LTP130	ltpFR	13	n/a	n/a	n/a	n/a	n/a	n/a	n/a	n/a	n/a	n/a	n/a	n/a	n/a	n/a	n/a	n/a
183567	WORD	wordpools/wasnorm_wordpool.txt	LTP130	ltpFR	13	1	1	PLAID	1080	n/a	n/a	0	n/a	0	0	0	0.57763671875	0.412841796875	1	lower	zerothre.ttf
186575	START	n/a	LTP130	ltpFR	13	n/a	n/a	n/a	n/a	n/a	n/a	n/a	n/a	n/a	n/a	n/a	n/a	n/a	n/a	n/a	n/a
187707	PROB	n/a	LTP130	ltpFR	13	n/a	n/a	n/a	n/a	n/a	n/a	n/a	21	5	9	7	n/a	n/a	n/a	n/a	n/a
194575	STOP	n/a	LTP130	ltpFR	13	n/a	n/a	n/a	n/a	n/a	n/a	n/a	n/a	n/a	n/a	n/a	n/a	n/a	n/a	n/a	n/a
195646	WORD	wordpools/wasnorm_wordpool.txt	LTP130	ltpFR	13	1	1	TEAM	1441	n/a	n/a	1	n/a	0	0	0	0.57763671875	0.412841796875	1	lower	zerothre.ttf
198654	START	n/a	LTP130	ltpFR	13	n/a	n/a	n/a	n/a	n/a	n/a	n/a	n/a	n/a	n/a	n/a	n/a	n/a	n/a	n/a	n/a
199520	PROB	n/a	LTP130	ltpFR	13	n/a	n/a	n/a	n/a	n/a	n/a	n/a	11	8	1	2	n/a	n/a	n/a	n/a	n/a
201087	PROB	n/a	LTP130	ltpFR	13	n/a	n/a	n/a	n/a	n/a	n/a	n/a	14	5	3	6	n/a	n/a	n/a	n/a	n/a
203452	PROB	n/a	LTP130	ltpFR	13	n/a	n/a	n/a	n/a	n/a	n/a	n/a	8	1	6	1	n/a	n/a	n/a	n/a	n/a
204618	PROB	n/a	LTP130	ltpFR	13	n/a	n/a	n/a	n/a	n/a	n/a	n/a	12	7	2	3	n/a	n/a	n/a	n/a	n/a
205709	STOP	n/a	LTP130	ltpFR	13	n/a	n/a	n/a	n/a	n/a	n/a	n/a	n/a	n/a	n/a	n/a	n/a	n/a	n/a	n/a	n/a
207658	WORD	wordpools/wasnorm_wordpool.txt	LTP130	ltpFR	13	1	0	CHEERLEADER	288	n/a	n/a	1	n/a	0	0	0	0.422607421875	0.5869140625	0	upper	amplitud.ttf
210666	START	n/a	LTP130	ltpFR	13	n/a	n/a	n/a	n/a	n/a	n/a	n/a	n/a	n/a	n/a	n/a	n/a	n/a	n/a	n/a	n/a
211866	PROB	n/a	LTP130	ltpFR	13	n/a	n/a	n/a	n/a	n/a	n/a	n/a	16	6	8	2	n/a	n/a	n/a	n/a	n/a
213232	PROB	n/a	LTP130	ltpFR	13	n/a	n/a	n/a	n/a	n/a	n/a	n/a	18	9	2	7	n/a	n/a	n/a	n/a	n/a
215522	PROB	n/a	LTP130	ltpFR	13	n/a	n/a	n/a	n/a	n/a	n/a	n/a	15	5	7	3	n/a	n/a	n/a	n/a	n/a
217123	PROB	n/a	LTP130	ltpFR	13	n/a	n/a	n/a	n/a	n/a	n/a	n/a	21	8	4	9	n/a	n/a	n/a	n/a	n/a
218567	STOP	n/a	LTP130	ltpFR	13	n/a	n/a	n/a	n/a	n/a	n/a	n/a	n/a	n/a	n/a	n/a	n/a	n/a	n/a	n/a	n/a
219687	WORD	wordpools/wasnorm_wordpool.txt	LTP130	ltpFR	13	1	0	DECK	443	n/a	n/a	1	n/a	0	0	0	0.422607421875	0.5869140625	0	upper	amplitud.ttf
222695	START	n/a	LTP130	ltpFR	13	n/a	n/a	n/a	n/a	n/a	n/a	n/a	n/a	n/a	n/a	n/a	n/a	n/a	n/a	n/a	n/a
223544	PROB	n/a	LTP130	ltpFR	13	n/a	n/a	n/a	n/a	n/a	n/a	n/a	19	6	4	9	n/a	n/a	n/a	n/a	n/a
225535	PROB	n/a	LTP130	ltpFR	13	n/a	n/a	n/a	n/a	n/a	n/a	n/a	15	8	1	6	n/a	n/a	n/a	n/a	n/a
227610	PROB	n/a	LTP130	ltpFR	13	n/a	n/a	n/a	n/a	n/a	n/a	n/a	14	3	9	2	n/a	n/a	n/a	n/a	n/a
230351	STOP	n/a	LTP130	ltpFR	13	n/a	n/a	n/a	n/a	n/a	n/a	n/a	n/a	n/a	n/a	n/a	n/a	n/a	n/a	n/a	n/a
231826	WORD	wordpools/wasnorm_wordpool.txt	LTP130	ltpFR	13	1	0	CHERRY	293	n/a	n/a	0	n/a	0	0	0	0.422607421875	0.5869140625	0	upper	amplitud.ttf
234834	START	n/a	LTP130	ltpFR	13	n/a	n/a	n/a	n/a	n/a	n/a	n/a	n/a	n/a	n/a	n/a	n/a	n/a	n/a	n/a	n/a
235891	PROB	n/a	LTP130	ltpFR	13	n/a	n/a	n/a	n/a	n/a	n/a	n/a	18	6	4	8	n/a	n/a	n/a	n/a	n/a
237556	PROB	n/a	LTP130	ltpFR	13	n/a	n/a	n/a	n/a	n/a	n/a	n/a	14	4	2	8	n/a	n/a	n/a	n/a	n/a
239182	PROB	n/a	LTP130	ltpFR	13	n/a	n/a	n/a	n/a	n/a	n/a	n/a	15	5	8	2	n/a	n/a	n/a	n/a	n/a
242833	STOP	n/a	LTP130	ltpFR	13	n/a	n/a	n/a	n/a	n/a	n/a	n/a	n/a	n/a	n/a	n/a	n/a	n/a	n/a	n/a	n/a
243662	WORD	wordpools/wasnorm_wordpool.txt	LTP130	ltpFR	13	1	1	MONGOOSE	909	n/a	n/a	1	n/a	0	0	0	0.57763671875	0.412841796875	1	lower	zerothre.ttf
246670	START	n/a	LTP130	ltpFR	13	n/a	n/a	n/a	n/a	n/a	n/a	n/a	n/a	n/a	n/a	n/a	n/a	n/a	n/a	n/a	n/a
247653	PROB	n/a	LTP130	ltpFR	13	n/a	n/a	n/a	n/a	n/a	n/a	n/a	7	4	2	1	n/a	n/a	n/a	n/a	n/a
250119	PROB	n/a	LTP130	ltpFR	13	n/a	n/a	n/a	n/a	n/a	n/a	n/a	23	9	6	8	n/a	n/a	n/a	n/a	n/a
252077	PROB	n/a	LTP130	ltpFR	13	n/a	n/a	n/a	n/a	n/a	n/a	n/a	12	3	3	6	n/a	n/a	n/a	n/a	n/a
253920	STOP	n/a	LTP130	ltpFR	13	n/a	n/a	n/a	n/a	n/a	n/a	n/a	n/a	n/a	n/a	n/a	n/a	n/a	n/a	n/a	n/a
255741	WORD	wordpools/wasnorm_wordpool.txt	LTP130	ltpFR	13	1	1	DINOSAUR	469	n/a	n/a	1	n/a	0	0	0	0.57763671875	0.412841796875	1	lower	zerothre.ttf
258749	START	n/a	LTP130	ltpFR	13	n/a	n/a	n/a	n/a	n/a	n/a	n/a	n/a	n/a	n/a	n/a	n/a	n/a	n/a	n/a	n/a
259623	PROB	n/a	LTP130	ltpFR	13	n/a	n/a	n/a	n/a	n/a	n/a	n/a	22	8	5	9	n/a	n/a	n/a	n/a	n/a
261589	PROB	n/a	LTP130	ltpFR	13	n/a	n/a	n/a	n/a	n/a	n/a	n/a	15	5	1	9	n/a	n/a	n/a	n/a	n/a
263647	PROB	n/a	LTP130	ltpFR	13	n/a	n/a	n/a	n/a	n/a	n/a	n/a	14	5	7	2	n/a	n/a	n/a	n/a	n/a
265247	PROB	n/a	LTP130	ltpFR	13	n/a	n/a	n/a	n/a	n/a	n/a	n/a	15	5	5	5	n/a	n/a	n/a	n/a	n/a
266399	STOP	n/a	LTP130	ltpFR	13	n/a	n/a	n/a	n/a	n/a	n/a	n/a	n/a	n/a	n/a	n/a	n/a	n/a	n/a	n/a	n/a
267888	WORD	wordpools/wasnorm_wordpool.txt	LTP130	ltpFR	13	1	1	ARMY	39	n/a	n/a	1	n/a	0	0	0	0.57763671875	0.412841796875	1	lower	zerothre.ttf
270896	START	n/a	LTP130	ltpFR	13	n/a	n/a	n/a	n/a	n/a	n/a	n/a	n/a	n/a	n/a	n/a	n/a	n/a	n/a	n/a	n/a
271962	PROB	n/a	LTP130	ltpFR	13	n/a	n/a	n/a	n/a	n/a	n/a	n/a	17	7	7	3	n/a	n/a	n/a	n/a	n/a
274111	PROB	n/a	LTP130	ltpFR	13	n/a	n/a	n/a	n/a	n/a	n/a	n/a	22	4	9	9	n/a	n/a	n/a	n/a	n/a
276060	PROB	n/a	LTP130	ltpFR	13	n/a	n/a	n/a	n/a	n/a	n/a	n/a	9	1	4	4	n/a	n/a	n/a	n/a	n/a
277343	PROB	n/a	LTP130	ltpFR	13	n/a	n/a	n/a	n/a	n/a	n/a	n/a	15	4	5	6	n/a	n/a	n/a	n/a	n/a
278792	STOP	n/a	LTP130	ltpFR	13	n/a	n/a	n/a	n/a	n/a	n/a	n/a	n/a	n/a	n/a	n/a	n/a	n/a	n/a	n/a	n/a
280767	REC_START	n/a	LTP130	ltpFR	13	1	n/a	n/a	n/a	n/a	n/a	n/a	n/a	0	0	0	n/a	n/a	n/a	n/a	n/a
282448	REC_WORD	wordpools/wasnorm_wordpool.txt	LTP130	ltpFR	13	1	1	ARMY	39	n/a	n/a	1	n/a	0	0	0	n/a	n/a	n/a	n/a	n/a
283969	REC_WORD	wordpools/wasnorm_wordpool.txt	LTP130	ltpFR	13	1	1	MONGOOSE	909	n/a	n/a	1	n/a	0	0	0	n/a	n/a	n/a	n/a	n/a
288124	REC_WORD	wordpools/wasnorm_wordpool.txt	LTP130	ltpFR	13	1	0	FIN	566	n/a	n/a	0	n/a	0	0	0	n/a	n/a	n/a	n/a	n/a
291143	REC_WORD	wordpools/wasnorm_wordpool.txt	LTP130	ltpFR	13	1	1	FARM	552	n/a	n/a	1	n/a	0	0	0	n/a	n/a	n/a	n/a	n/a
292625	REC_WORD	wordpools/wasnorm_wordpool.txt	LTP130	ltpFR	13	1	1	SHARK	1275	n/a	n/a	1	n/a	0	0	0	n/a	n/a	n/a	n/a	n/a
294984	REC_WORD	wordpools/wasnorm_wordpool.txt	LTP130	ltpFR	13	1	1	DIGGER	464	n/a	n/a	1	n/a	0	0	0	n/a	n/a	n/a	n/a	n/a
299325	REC_WORD	wordpools/wasnorm_wordpool.txt	LTP130	ltpFR	13	1	1	TEAM	1441	n/a	n/a	1	n/a	0	0	0	n/a	n/a	n/a	n/a	n/a
315877	REC_WORD	wordpools/wasnorm_wordpool.txt	LTP130	ltpFR	13	1	0	MARINE	869	n/a	n/a	1	n/a	0	0	0	n/a	n/a	n/a	n/a	n/a
389594	WORD	wordpools/wasnorm_wordpool.txt	LTP130	ltpFR	13	2	0	PLUM	1090	n/a	n/a	0	n/a	0	0	0	0.422607421875	0.5869140625	0	upper	amplitud.ttf
393442	WORD	wordpools/wasnorm_wordpool.txt	LTP130	ltpFR	13	2	0	PUDDLE	1140	n/a	n/a	1	n/a	0	0	0	0.422607421875	0.5869140625	0	upper	amplitud.ttf
397358	WORD	wordpools/wasnorm_wordpool.txt	LTP130	ltpFR	13	2	0	FLAG	573	n/a	n/a	1	n/a	0	0	0	0.422607421875	0.5869140625	0	upper	amplitud.ttf
401216	WORD	wordpools/wasnorm_wordpool.txt	LTP130	ltpFR	13	2	0	OAR	966	n/a	n/a	1	n/a	0	0	0	0.422607421875	0.5869140625	0	upper	amplitud.ttf
405348	WORD	wordpools/wasnorm_wordpool.txt	LTP130	ltpFR	13	2	1	NOSE	957	n/a	n/a	1	n/a	0	0	0	0.57763671875	0.412841796875	1	lower	zerothre.ttf
409213	WORD	wordpools/wasnorm_wordpool.txt	LTP130	ltpFR	13	2	1	PAINTER	1004	n/a	n/a	1	n/a	0	0	0	0.57763671875	0.412841796875	1	lower	zerothre.ttf
413360	WORD	wordpools/wasnorm_wordpool.txt	LTP130	ltpFR	13	2	1	PIRATE	1074	n/a	n/a	1	n/a	0	0	0	0.57763671875	0.412841796875	1	lower	zerothre.ttf
417318	WORD	wordpools/wasnorm_wordpool.txt	LTP130	ltpFR	13	2	1	KLEENEX	782	n/a	n/a	0	n/a	0	0	0	0.57763671875	0.412841796875	1	lower	zerothre.ttf
421433	WORD	wordpools/wasnorm_wordpool.txt	LTP130	ltpFR	13	2	0	SHOP	1290	n/a	n/a	1	n/a	0	0	0	0.422607421875	0.5869140625	0	upper	amplitud.ttf
425573	WORD	wordpools/wasnorm_wordpool.txt	LTP130	ltpFR	13	2	0	CUSTOMER	430	n/a	n/a	1	n/a	0	0	0	0.422607421875	0.5869140625	0	upper	amplitud.ttf
429480	WORD	wordpools/wasnorm_wordpool.txt	LTP130	ltpFR	13	2	0	PUPPY	1144	n/a	n/a	1	n/a	0	0	0	0.422607421875	0.5869140625	0	upper	amplitud.ttf
433387	WORD	wordpools/wasnorm_wordpool.txt	LTP130	ltpFR	13	2	0	FLEA	577	n/a	n/a	0	n/a	0	0	0	0.422607421875	0.5869140625	0	upper	amplitud.ttf
437377	WORD	wordpools/wasnorm_wordpool.txt	LTP130	ltpFR	13	2	1	CHECKERS	285	n/a	n/a	0	n/a	0	0	0	0.57763671875	0.412841796875	1	lower	zerothre.ttf
441193	WORD	wordpools/wasnorm_wordpool.txt	LTP130	ltpFR	13	2	1	SKATE	1313	n/a	n/a	0	n/a	0	0	0	0.57763671875	0.412841796875	1	lower	zerothre.ttf
445250	WORD	wordpools/wasnorm_wordpool.txt	LTP130	ltpFR	13	2	1	ZUCCHINI	1638	n/a	n/a	1	n/a	0	0	0	0.57763671875	0.412841796875	1	lower	zerothre.ttf
449348	WORD	wordpools/wasnorm_wordpool.txt	LTP130	ltpFR	13	2	1	PUZZLE	1146	n/a	n/a	0	n/a	0	0	0	0.57763671875	0.412841796875	1	lower	zerothre.ttf
452355	START	n/a	LTP130	ltpFR	13	n/a	n/a	n/a	n/a	n/a	n/a	n/a	n/a	n/a	n/a	n/a	n/a	n/a	n/a	n/a	n/a
453471	PROB	n/a	LTP130	ltpFR	13	n/a	n/a	n/a	n/a	n/a	n/a	n/a	13	7	1	5	n/a	n/a	n/a	n/a	n/a
456104	PROB	n/a	LTP130	ltpFR	13	n/a	n/a	n/a	n/a	n/a	n/a	n/a	16	9	2	5	n/a	n/a	n/a	n/a	n/a
458936	STOP	n/a	LTP130	ltpFR	13	n/a	n/a	n/a	n/a	n/a	n/a	n/a	n/a	n/a	n/a	n/a	n/a	n/a	n/a	n/a	n/a
462262	REC_START	n/a	LTP130	ltpFR	13	2	n/a	n/a	n/a	n/a	n/a	n/a	n/a	0	0	0	n/a	n/a	n/a	n/a	n/a
464921	REC_WORD	wordpools/wasnorm_wordpool.txt	LTP130	ltpFR	13	2	0	PLUM	1090	n/a	n/a	0	n/a	0	0	0	n/a	n/a	n/a	n/a	n/a
466273	REC_WORD	wordpools/wasnorm_wordpool.txt	LTP130	ltpFR	13	2	1	PUZZLE	1146	n/a	n/a	0	n/a	0	0	0	n/a	n/a	n/a	n/a	n/a
467186	REC_WORD	wordpools/wasnorm_wordpool.txt	LTP130	ltpFR	13	2	1	ZUCCHINI	1638	n/a	n/a	1	n/a	0	0	0	n/a	n/a	n/a	n/a	n/a
470922	REC_WORD	wordpools/wasnorm_wordpool.txt	LTP130	ltpFR	13	2	1	SKATE	1313	n/a	n/a	0	n/a	0	0	0	n/a	n/a	n/a	n/a	n/a
472439	REC_WORD	wordpools/wasnorm_wordpool.txt	LTP130	ltpFR	13	2	1	PIRATE	1074	n/a	n/a	1	n/a	0	0	0	n/a	n/a	n/a	n/a	n/a
476923	REC_WORD	wordpools/wasnorm_wordpool.txt	LTP130	ltpFR	13	2	1	NOSE	957	n/a	n/a	1	n/a	0	0	0	n/a	n/a	n/a	n/a	n/a
489016	REC_WORD	wordpools/wasnorm_wordpool.txt	LTP130	ltpFR	13	2	0	SHOP	1290	n/a	n/a	1	n/a	0	0	0	n/a	n/a	n/a	n/a	n/a
490268	REC_WORD	wordpools/wasnorm_wordpool.txt	LTP130	ltpFR	13	2	0	CUSTOMER	430	n/a	n/a	1	n/a	0	0	0	n/a	n/a	n/a	n/a	n/a
501458	REC_WORD	wordpools/wasnorm_wordpool.txt	LTP130	ltpFR	13	2	0	PUDDLE	1140	n/a	n/a	1	n/a	0	0	0	n/a	n/a	n/a	n/a	n/a
508567	REC_WORD	wordpools/wasnorm_wordpool.txt	LTP130	ltpFR	13	2	0	OAR	966	n/a	n/a	1	n/a	0	0	0	n/a	n/a	n/a	n/a	n/a
553912	START	n/a	LTP130	ltpFR	13	n/a	n/a	n/a	n/a	n/a	n/a	n/a	n/a	n/a	n/a	n/a	n/a	n/a	n/a	n/a	n/a
555418	PROB	n/a	LTP130	ltpFR	13	n/a	n/a	n/a	n/a	n/a	n/a	n/a	10	3	6	1	n/a	n/a	n/a	n/a	n/a
557526	PROB	n/a	LTP130	ltpFR	13	n/a	n/a	n/a	n/a	n/a	n/a	n/a	4	1	2	1	n/a	n/a	n/a	n/a	n/a
558634	PROB	n/a	LTP130	ltpFR	13	n/a	n/a	n/a	n/a	n/a	n/a	n/a	12	1	7	4	n/a	n/a	n/a	n/a	n/a
560167	PROB	n/a	LTP130	ltpFR	13	n/a	n/a	n/a	n/a	n/a	n/a	n/a	18	4	8	6	n/a	n/a	n/a	n/a	n/a
562416	PROB	n/a	LTP130	ltpFR	13	n/a	n/a	n/a	n/a	n/a	n/a	n/a	3	1	1	1	n/a	n/a	n/a	n/a	n/a
563465	PROB	n/a	LTP130	ltpFR	13	n/a	n/a	n/a	n/a	n/a	n/a	n/a	13	5	3	5	n/a	n/a	n/a	n/a	n/a
564799	PROB	n/a	LTP130	ltpFR	13	n/a	n/a	n/a	n/a	n/a	n/a	n/a	20	4	7	9	n/a	n/a	n/a	n/a	n/a
566389	PROB	n/a	LTP130	ltpFR	13	n/a	n/a	n/a	n/a	n/a	n/a	n/a	20	9	4	7	n/a	n/a	n/a	n/a	n/a
569912	STOP	n/a	LTP130	ltpFR	13	n/a	n/a	n/a	n/a	n/a	n/a	n/a	n/a	n/a	n/a	n/a	n/a	n/a	n/a	n/a	n/a
570738	WORD	wordpools/wasnorm_wordpool.txt	LTP130	ltpFR	13	3	0	NOTEBOOK	959	n/a	n/a	0	n/a	0	0	0	0.422607421875	0.5869140625	0	upper	amplitud.ttf
573746	START	n/a	LTP130	ltpFR	13	n/a	n/a	n/a	n/a	n/a	n/a	n/a	n/a	n/a	n/a	n/a	n/a	n/a	n/a	n/a	n/a
574871	PROB	n/a	LTP130	ltpFR	13	n/a	n/a	n/a	n/a	n/a	n/a	n/a	15	6	2	7	n/a	n/a	n/a	n/a	n/a
576602	PROB	n/a	LTP130	ltpFR	13	n/a	n/a	n/a	n/a	n/a	n/a	n/a	15	6	8	1	n/a	n/a	n/a	n/a	n/a
578803	PROB	n/a	LTP130	ltpFR	13	n/a	n/a	n/a	n/a	n/a	n/a	n/a	11	2	3	6	n/a	n/a	n/a	n/a	n/a
581085	PROB	n/a	LTP130	ltpFR	13	n/a	n/a	n/a	n/a	n/a	n/a	n/a	15	5	2	8	n/a	n/a	n/a	n/a	n/a
582434	PROB	n/a	LTP130	ltpFR	13	n/a	n/a	n/a	n/a	n/a	n/a	n/a	8	2	3	3	n/a	n/a	n/a	n/a	n/a
583984	PROB	n/a	LTP130	ltpFR	13	n/a	n/a	n/a	n/a	n/a	n/a	n/a	13	3	8	2	n/a	n/a	n/a	n/a	n/a
585657	PROB	n/a	LTP130	ltpFR	13	n/a	n/a	n/a	n/a	n/a	n/a	n/a	21	8	7	6	n/a	n/a	n/a	n/a	n/a
589746	STOP	n/a	LTP130	ltpFR	13	n/a	n/a	n/a	n/a	n/a	n/a	n/a	n/a	n/a	n/a	n/a	n/a	n/a	n/a	n/a	n/a
590832	WORD	wordpools/wasnorm_wordpool.txt	LTP130	ltpFR	13	3	0	SHRINE	1298	n/a	n/a	1	n/a	0	0	0	0.422607421875	0.5869140625	0	upper	amplitud.ttf
593839	START	n/a	LTP130	ltpFR	13	n/a	n/a	n/a	n/a	n/a	n/a	n/a	n/a	n/a	n/a	n/a	n/a	n/a	n/a	n/a	n/a
595005	PROB	n/a	LTP130	ltpFR	13	n/a	n/a	n/a	n/a	n/a	n/a	n/a	15	9	3	3	n/a	n/a	n/a	n/a	n/a
597246	PROB	n/a	LTP130	ltpFR	13	n/a	n/a	n/a	n/a	n/a	n/a	n/a	21	7	8	6	n/a	n/a	n/a	n/a	n/a
598862	PROB	n/a	LTP130	ltpFR	13	n/a	n/a	n/a	n/a	n/a	n/a	n/a	13	2	6	5	n/a	n/a	n/a	n/a	n/a
600635	PROB	n/a	LTP130	ltpFR	13	n/a	n/a	n/a	n/a	n/a	n/a	n/a	12	1	9	2	n/a	n/a	n/a	n/a	n/a
602069	PROB	n/a	LTP130	ltpFR	13	n/a	n/a	n/a	n/a	n/a	n/a	n/a	16	2	9	5	n/a	n/a	n/a	n/a	n/a
604684	PROB	n/a	LTP130	ltpFR	13	n/a	n/a	n/a	n/a	n/a	n/a	n/a	16	2	6	8	n/a	n/a	n/a	n/a	n/a
609839	STOP	n/a	LTP130	ltpFR	13	n/a	n/a	n/a	n/a	n/a	n/a	n/a	n/a	n/a	n/a	n/a	n/a	n/a	n/a	n/a	n/a
610933	WORD	wordpools/wasnorm_wordpool.txt	LTP130	ltpFR	13	3	0	TERMITE	1451	n/a	n/a	0	n/a	0	0	0	0.422607421875	0.5869140625	0	upper	amplitud.ttf
613941	START	n/a	LTP130	ltpFR	13	n/a	n/a	n/a	n/a	n/a	n/a	n/a	n/a	n/a	n/a	n/a	n/a	n/a	n/a	n/a	n/a
615056	PROB	n/a	LTP130	ltpFR	13	n/a	n/a	n/a	n/a	n/a	n/a	n/a	11	5	4	2	n/a	n/a	n/a	n/a	n/a
616455	PROB	n/a	LTP130	ltpFR	13	n/a	n/a	n/a	n/a	n/a	n/a	n/a	12	4	5	3	n/a	n/a	n/a	n/a	n/a
618014	PROB	n/a	LTP130	ltpFR	13	n/a	n/a	n/a	n/a	n/a	n/a	n/a	18	9	8	1	n/a	n/a	n/a	n/a	n/a
619754	PROB	n/a	LTP130	ltpFR	13	n/a	n/a	n/a	n/a	n/a	n/a	n/a	13	5	1	7	n/a	n/a	n/a	n/a	n/a
621313	PROB	n/a	LTP130	ltpFR	13	n/a	n/a	n/a	n/a	n/a	n/a	n/a	20	6	8	6	n/a	n/a	n/a	n/a	n/a
624211	PROB	n/a	LTP130	ltpFR	13	n/a	n/a	n/a	n/a	n/a	n/a	n/a	18	8	1	9	n/a	n/a	n/a	n/a	n/a
626177	PROB	n/a	LTP130	ltpFR	13	n/a	n/a	n/a	n/a	n/a	n/a	n/a	7	1	2	4	n/a	n/a	n/a	n/a	n/a
628944	STOP	n/a	LTP130	ltpFR	13	n/a	n/a	n/a	n/a	n/a	n/a	n/a	n/a	n/a	n/a	n/a	n/a	n/a	n/a	n/a	n/a
631034	WORD	wordpools/wasnorm_wordpool.txt	LTP130	ltpFR	13	3	0	CRUTCH	417	n/a	n/a	1	n/a	0	0	0	0.422607421875	0.5869140625	0	upper	amplitud.ttf
634042	START	n/a	LTP130	ltpFR	13	n/a	n/a	n/a	n/a	n/a	n/a	n/a	n/a	n/a	n/a	n/a	n/a	n/a	n/a	n/a	n/a
635058	PROB	n/a	LTP130	ltpFR	13	n/a	n/a	n/a	n/a	n/a	n/a	n/a	11	3	6	2	n/a	n/a	n/a	n/a	n/a
636623	PROB	n/a	LTP130	ltpFR	13	n/a	n/a	n/a	n/a	n/a	n/a	n/a	17	3	8	6	n/a	n/a	n/a	n/a	n/a
638680	PROB	n/a	LTP130	ltpFR	13	n/a	n/a	n/a	n/a	n/a	n/a	n/a	5	1	1	3	n/a	n/a	n/a	n/a	n/a
640098	PROB	n/a	LTP130	ltpFR	13	n/a	n/a	n/a	n/a	n/a	n/a	n/a	10	2	1	7	n/a	n/a	n/a	n/a	n/a
641922	PROB	n/a	LTP130	ltpFR	13	n/a	n/a	n/a	n/a	n/a	n/a	n/a	11	2	5	4	n/a	n/a	n/a	n/a	n/a
643338	PROB	n/a	LTP130	ltpFR	13	n/a	n/a	n/a	n/a	n/a	n/a	n/a	20	6	9	4	n/a	n/a	n/a	n/a	n/a
645279	PROB	n/a	LTP130	ltpFR	13	n/a	n/a	n/a	n/a	n/a	n/a	n/a	13	6	6	1	n/a	n/a	n/a	n/a	n/a
650041	STOP	n/a	LTP130	ltpFR	13	n/a	n/a	n/a	n/a	n/a	n/a	n/a	n/a	n/a	n/a	n/a	n/a	n/a	n/a	n/a	n/a
650894	WORD	wordpools/wasnorm_wordpool.txt	LTP130	ltpFR	13	3	0	CARTON	251	n/a	n/a	1	n/a	0	0	0	0.422607421875	0.5869140625	0	upper	amplitud.ttf
653901	START	n/a	LTP130	ltpFR	13	n/a	n/a	n/a	n/a	n/a	n/a	n/a	n/a	n/a	n/a	n/a	n/a	n/a	n/a	n/a	n/a
654859	PROB	n/a	LTP130	ltpFR	13	n/a	n/a	n/a	n/a	n/a	n/a	n/a	9	2	6	1	n/a	n/a	n/a	n/a	n/a
657108	PROB	n/a	LTP130	ltpFR	13	n/a	n/a	n/a	n/a	n/a	n/a	n/a	21	6	8	7	n/a	n/a	n/a	n/a	n/a
658548	PROB	n/a	LTP130	ltpFR	13	n/a	n/a	n/a	n/a	n/a	n/a	n/a	16	5	2	9	n/a	n/a	n/a	n/a	n/a
660498	PROB	n/a	LTP130	ltpFR	13	n/a	n/a	n/a	n/a	n/a	n/a	n/a	12	3	2	7	n/a	n/a	n/a	n/a	n/a
661773	PROB	n/a	LTP130	ltpFR	13	n/a	n/a	n/a	n/a	n/a	n/a	n/a	13	1	4	8	n/a	n/a	n/a	n/a	n/a
664413	PROB	n/a	LTP130	ltpFR	13	n/a	n/a	n/a	n/a	n/a	n/a	n/a	15	2	4	7	n/a	n/a	n/a	n/a	n/a
669727	STOP	n/a	LTP130	ltpFR	13	n/a	n/a	n/a	n/a	n/a	n/a	n/a	n/a	n/a	n/a	n/a	n/a	n/a	n/a	n/a	n/a
670987	WORD	wordpools/wasnorm_wordpool.txt	LTP130	ltpFR	13	3	0	UTENSIL	1542	n/a	n/a	n/a	n/a	0	0	0	0.422607421875	0.5869140625	0	upper	amplitud.ttf
674010	SLOW_MSG	n/a	LTP130	ltpFR	13	3	n/a	n/a	n/a	n/a	n/a	n/a	n/a	0	0	0	n/a	n/a	n/a	n/a	n/a
675526	START	n/a	LTP130	ltpFR	13	n/a	n/a	n/a	n/a	n/a	n/a	n/a	n/a	n/a	n/a	n/a	n/a	n/a	n/a	n/a	n/a
676500	PROB	n/a	LTP130	ltpFR	13	n/a	n/a	n/a	n/a	n/a	n/a	n/a	21	7	9	5	n/a	n/a	n/a	n/a	n/a
678674	PROB	n/a	LTP130	ltpFR	13	n/a	n/a	n/a	n/a	n/a	n/a	n/a	19	6	4	9	n/a	n/a	n/a	n/a	n/a
681133	PROB	n/a	LTP130	ltpFR	13	n/a	n/a	n/a	n/a	n/a	n/a	n/a	17	7	4	6	n/a	n/a	n/a	n/a	n/a
683049	PROB	n/a	LTP130	ltpFR	13	n/a	n/a	n/a	n/a	n/a	n/a	n/a	14	3	8	3	n/a	n/a	n/a	n/a	n/a
686164	PROB	n/a	LTP130	ltpFR	13	n/a	n/a	n/a	n/a	n/a	n/a	n/a	15	6	7	2	n/a	n/a	n/a	n/a	n/a
688014	PROB	n/a	LTP130	ltpFR	13	n/a	n/a	n/a	n/a	n/a	n/a	n/a	24	9	9	8	n/a	n/a	n/a	n/a	n/a
690840	STOP	n/a	LTP130	ltpFR	13	n/a	n/a	n/a	n/a	n/a	n/a	n/a	n/a	n/a	n/a	n/a	n/a	n/a	n/a	n/a	n/a
692495	WORD	wordpools/wasnorm_wordpool.txt	LTP130	ltpFR	13	3	0	SCARF	1246	n/a	n/a	1	n/a	0	0	0	0.422607421875	0.5869140625	0	upper	amplitud.ttf
695502	START	n/a	LTP130	ltpFR	13	n/a	n/a	n/a	n/a	n/a	n/a	n/a	n/a	n/a	n/a	n/a	n/a	n/a	n/a	n/a	n/a
696501	PROB	n/a	LTP130	ltpFR	13	n/a	n/a	n/a	n/a	n/a	n/a	n/a	17	2	9	6	n/a	n/a	n/a	n/a	n/a
699185	PROB	n/a	LTP130	ltpFR	13	n/a	n/a	n/a	n/a	n/a	n/a	n/a	7	4	1	2	n/a	n/a	n/a	n/a	n/a
700725	PROB	n/a	LTP130	ltpFR	13	n/a	n/a	n/a	n/a	n/a	n/a	n/a	15	3	9	3	n/a	n/a	n/a	n/a	n/a
702167	PROB	n/a	LTP130	ltpFR	13	n/a	n/a	n/a	n/a	n/a	n/a	n/a	21	4	9	8	n/a	n/a	n/a	n/a	n/a
703850	PROB	n/a	LTP130	ltpFR	13	n/a	n/a	n/a	n/a	n/a	n/a	n/a	19	8	2	9	n/a	n/a	n/a	n/a	n/a
706656	PROB	n/a	LTP130	ltpFR	13	n/a	n/a	n/a	n/a	n/a	n/a	n/a	8	5	2	1	n/a	n/a	n/a	n/a	n/a
708439	PROB	n/a	LTP130	ltpFR	13	n/a	n/a	n/a	n/a	n/a	n/a	n/a	18	6	5	7	n/a	n/a	n/a	n/a	n/a
710768	STOP	n/a	LTP130	ltpFR	13	n/a	n/a	n/a	n/a	n/a	n/a	n/a	n/a	n/a	n/a	n/a	n/a	n/a	n/a	n/a	n/a
712347	WORD	wordpools/wasnorm_wordpool.txt	LTP130	ltpFR	13	3	0	VEST	1559	n/a	n/a	1	n/a	0	0	0	0.422607421875	0.5869140625	0	upper	amplitud.ttf
715354	START	n/a	LTP130	ltpFR	13	n/a	n/a	n/a	n/a	n/a	n/a	n/a	n/a	n/a	n/a	n/a	n/a	n/a	n/a	n/a	n/a
716511	PROB	n/a	LTP130	ltpFR	13	n/a	n/a	n/a	n/a	n/a	n/a	n/a	19	3	8	8	n/a	n/a	n/a	n/a	n/a
718186	PROB	n/a	LTP130	ltpFR	13	n/a	n/a	n/a	n/a	n/a	n/a	n/a	10	1	6	3	n/a	n/a	n/a	n/a	n/a
719493	PROB	n/a	LTP130	ltpFR	13	n/a	n/a	n/a	n/a	n/a	n/a	n/a	13	6	2	5	n/a	n/a	n/a	n/a	n/a
721194	PROB	n/a	LTP130	ltpFR	13	n/a	n/a	n/a	n/a	n/a	n/a	n/a	19	5	6	8	n/a	n/a	n/a	n/a	n/a
723126	PROB	n/a	LTP130	ltpFR	13	n/a	n/a	n/a	n/a	n/a	n/a	n/a	20	7	4	9	n/a	n/a	n/a	n/a	n/a
724658	PROB	n/a	LTP130	ltpFR	13	n/a	n/a	n/a	n/a	n/a	n/a	n/a	19	9	8	2	n/a	n/a	n/a	n/a	n/a
726267	PROB	n/a	LTP130	ltpFR	13	n/a	n/a	n/a	n/a	n/a	n/a	n/a	14	8	3	3	n/a	n/a	n/a	n/a	n/a
731354	STOP	n/a	LTP130	ltpFR	13	n/a	n/a	n/a	n/a	n/a	n/a	n/a	n/a	n/a	n/a	n/a	n/a	n/a	n/a	n/a	n/a
732547	WORD	wordpools/wasnorm_wordpool.txt	LTP130	ltpFR	13	3	0	HANDBAG	684	n/a	n/a	0	n/a	0	0	0	0.422607421875	0.5869140625	0	upper	amplitud.ttf
735555	START	n/a	LTP130	ltpFR	13	n/a	n/a	n/a	n/a	n/a	n/a	n/a	n/a	n/a	n/a	n/a	n/a	n/a	n/a	n/a	n/a
736487	PROB	n/a	LTP130	ltpFR	13	n/a	n/a	n/a	n/a	n/a	n/a	n/a	16	2	8	6	n/a	n/a	n/a	n/a	n/a
738171	PROB	n/a	LTP130	ltpFR	13	n/a	n/a	n/a	n/a	n/a	n/a	n/a	12	5	1	6	n/a	n/a	n/a	n/a	n/a
739887	PROB	n/a	LTP130	ltpFR	13	n/a	n/a	n/a	n/a	n/a	n/a	n/a	16	8	5	3	n/a	n/a	n/a	n/a	n/a
741560	PROB	n/a	LTP130	ltpFR	13	n/a	n/a	n/a	n/a	n/a	n/a	n/a	10	4	5	1	n/a	n/a	n/a	n/a	n/a
743019	PROB	n/a	LTP130	ltpFR	13	n/a	n/a	n/a	n/a	n/a	n/a	n/a	13	1	3	9	n/a	n/a	n/a	n/a	n/a
744526	PROB	n/a	LTP130	ltpFR	13	n/a	n/a	n/a	n/a	n/a	n/a	n/a	19	8	5	6	n/a	n/a	n/a	n/a	n/a
746684	PROB	n/a	LTP130	ltpFR	13	n/a	n/a	n/a	n/a	n/a	n/a	n/a	12	1	3	8	n/a	n/a	n/a	n/a	n/a
751554	STOP	n/a	LTP130	ltpFR	13	n/a	n/a	n/a	n/a	n/a	n/a	n/a	n/a	n/a	n/a	n/a	n/a	n/a	n/a	n/a	n/a
752498	WORD	wordpools/wasnorm_wordpool.txt	LTP130	ltpFR	13	3	0	CASHIER	254	n/a	n/a	1	n/a	0	0	0	0.422607421875	0.5869140625	0	upper	amplitud.ttf
755506	START	n/a	LTP130	ltpFR	13	n/a	n/a	n/a	n/a	n/a	n/a	n/a	n/a	n/a	n/a	n/a	n/a	n/a	n/a	n/a	n/a
756530	PROB	n/a	LTP130	ltpFR	13	n/a	n/a	n/a	n/a	n/a	n/a	n/a	18	5	4	9	n/a	n/a	n/a	n/a	n/a
759371	PROB	n/a	LTP130	ltpFR	13	n/a	n/a	n/a	n/a	n/a	n/a	n/a	19	4	6	9	n/a	n/a	n/a	n/a	n/a
761071	PROB	n/a	LTP130	ltpFR	13	n/a	n/a	n/a	n/a	n/a	n/a	n/a	17	4	9	4	n/a	n/a	n/a	n/a	n/a
763511	PROB	n/a	LTP130	ltpFR	13	n/a	n/a	n/a	n/a	n/a	n/a	n/a	21	8	4	9	n/a	n/a	n/a	n/a	n/a
765377	PROB	n/a	LTP130	ltpFR	13	n/a	n/a	n/a	n/a	n/a	n/a	n/a	7	4	2	1	n/a	n/a	n/a	n/a	n/a
767651	PROB	n/a	LTP130	ltpFR	13	n/a	n/a	n/a	n/a	n/a	n/a	n/a	22	6	8	8	n/a	n/a	n/a	n/a	n/a
771344	STOP	n/a	LTP130	ltpFR	13	n/a	n/a	n/a	n/a	n/a	n/a	n/a	n/a	n/a	n/a	n/a	n/a	n/a	n/a	n/a	n/a
772549	WORD	wordpools/wasnorm_wordpool.txt	LTP130	ltpFR	13	3	0	GROCERIES	663	n/a	n/a	1	n/a	0	0	0	0.422607421875	0.5869140625	0	upper	amplitud.ttf
775557	START	n/a	LTP130	ltpFR	13	n/a	n/a	n/a	n/a	n/a	n/a	n/a	n/a	n/a	n/a	n/a	n/a	n/a	n/a	n/a	n/a
776698	PROB	n/a	LTP130	ltpFR	13	n/a	n/a	n/a	n/a	n/a	n/a	n/a	18	2	9	7	n/a	n/a	n/a	n/a	n/a
778282	PROB	n/a	LTP130	ltpFR	13	n/a	n/a	n/a	n/a	n/a	n/a	n/a	13	6	2	5	n/a	n/a	n/a	n/a	n/a
780198	PROB	n/a	LTP130	ltpFR	13	n/a	n/a	n/a	n/a	n/a	n/a	n/a	16	6	7	3	n/a	n/a	n/a	n/a	n/a
782089	PROB	n/a	LTP130	ltpFR	13	n/a	n/a	n/a	n/a	n/a	n/a	n/a	18	2	7	9	n/a	n/a	n/a	n/a	n/a
783579	PROB	n/a	LTP130	ltpFR	13	n/a	n/a	n/a	n/a	n/a	n/a	n/a	14	1	4	9	n/a	n/a	n/a	n/a	n/a
786121	PROB	n/a	LTP130	ltpFR	13	n/a	n/a	n/a	n/a	n/a	n/a	n/a	16	6	9	1	n/a	n/a	n/a	n/a	n/a
788153	PROB	n/a	LTP130	ltpFR	13	n/a	n/a	n/a	n/a	n/a	n/a	n/a	15	3	9	3	n/a	n/a	n/a	n/a	n/a
790519	STOP	n/a	LTP130	ltpFR	13	n/a	n/a	n/a	n/a	n/a	n/a	n/a	n/a	n/a	n/a	n/a	n/a	n/a	n/a	n/a	n/a
792642	WORD	wordpools/wasnorm_wordpool.txt	LTP130	ltpFR	13	3	0	PICNIC	1060	n/a	n/a	1	n/a	0	0	0	0.422607421875	0.5869140625	0	upper	amplitud.ttf
795650	START	n/a	LTP130	ltpFR	13	n/a	n/a	n/a	n/a	n/a	n/a	n/a	n/a	n/a	n/a	n/a	n/a	n/a	n/a	n/a	n/a
796658	PROB	n/a	LTP130	ltpFR	13	n/a	n/a	n/a	n/a	n/a	n/a	n/a	14	1	6	7	n/a	n/a	n/a	n/a	n/a
798682	PROB	n/a	LTP130	ltpFR	13	n/a	n/a	n/a	n/a	n/a	n/a	n/a	18	9	5	4	n/a	n/a	n/a	n/a	n/a
802630	PROB	n/a	LTP130	ltpFR	13	n/a	n/a	n/a	n/a	n/a	n/a	n/a	15	5	3	7	n/a	n/a	n/a	n/a	n/a
804413	PROB	n/a	LTP130	ltpFR	13	n/a	n/a	n/a	n/a	n/a	n/a	n/a	8	2	4	2	n/a	n/a	n/a	n/a	n/a
806396	PROB	n/a	LTP130	ltpFR	13	n/a	n/a	n/a	n/a	n/a	n/a	n/a	13	6	1	6	n/a	n/a	n/a	n/a	n/a
807830	PROB	n/a	LTP130	ltpFR	13	n/a	n/a	n/a	n/a	n/a	n/a	n/a	6	3	2	1	n/a	n/a	n/a	n/a	n/a
808904	PROB	n/a	LTP130	ltpFR	13	n/a	n/a	n/a	n/a	n/a	n/a	n/a	16	7	2	7	n/a	n/a	n/a	n/a	n/a
811288	STOP	n/a	LTP130	ltpFR	13	n/a	n/a	n/a	n/a	n/a	n/a	n/a	n/a	n/a	n/a	n/a	n/a	n/a	n/a	n/a	n/a
812660	WORD	wordpools/wasnorm_wordpool.txt	LTP130	ltpFR	13	3	0	CABINET	212	n/a	n/a	1	n/a	0	0	0	0.422607421875	0.5869140625	0	upper	amplitud.ttf
815668	START	n/a	LTP130	ltpFR	13	n/a	n/a	n/a	n/a	n/a	n/a	n/a	n/a	n/a	n/a	n/a	n/a	n/a	n/a	n/a	n/a
816476	PROB	n/a	LTP130	ltpFR	13	n/a	n/a	n/a	n/a	n/a	n/a	n/a	17	8	2	7	n/a	n/a	n/a	n/a	n/a
818176	PROB	n/a	LTP130	ltpFR	13	n/a	n/a	n/a	n/a	n/a	n/a	n/a	13	7	5	1	n/a	n/a	n/a	n/a	n/a
819749	PROB	n/a	LTP130	ltpFR	13	n/a	n/a	n/a	n/a	n/a	n/a	n/a	19	8	6	5	n/a	n/a	n/a	n/a	n/a
823132	PROB	n/a	LTP130	ltpFR	13	n/a	n/a	n/a	n/a	n/a	n/a	n/a	11	6	2	3	n/a	n/a	n/a	n/a	n/a
824907	PROB	n/a	LTP130	ltpFR	13	n/a	n/a	n/a	n/a	n/a	n/a	n/a	6	1	3	2	n/a	n/a	n/a	n/a	n/a
825848	PROB	n/a	LTP130	ltpFR	13	n/a	n/a	n/a	n/a	n/a	n/a	n/a	13	2	5	6	n/a	n/a	n/a	n/a	n/a
827231	PROB	n/a	LTP130	ltpFR	13	n/a	n/a	n/a	n/a	n/a	n/a	n/a	13	6	7	1	n/a	n/a	n/a	n/a	n/a
831668	STOP	n/a	LTP130	ltpFR	13	n/a	n/a	n/a	n/a	n/a	n/a	n/a	n/a	n/a	n/a	n/a	n/a	n/a	n/a	n/a	n/a
832753	WORD	wordpools/wasnorm_wordpool.txt	LTP130	ltpFR	13	3	0	ORNAMENT	985	n/a	n/a	0	n/a	0	0	0	0.422607421875	0.5869140625	0	upper	amplitud.ttf
835761	START	n/a	LTP130	ltpFR	13	n/a	n/a	n/a	n/a	n/a	n/a	n/a	n/a	n/a	n/a	n/a	n/a	n/a	n/a	n/a	n/a
836760	PROB	n/a	LTP130	ltpFR	13	n/a	n/a	n/a	n/a	n/a	n/a	n/a	21	7	8	6	n/a	n/a	n/a	n/a	n/a
838668	PROB	n/a	LTP130	ltpFR	13	n/a	n/a	n/a	n/a	n/a	n/a	n/a	12	6	5	1	n/a	n/a	n/a	n/a	n/a
840759	PROB	n/a	LTP130	ltpFR	13	n/a	n/a	n/a	n/a	n/a	n/a	n/a	19	8	9	2	n/a	n/a	n/a	n/a	n/a
842475	PROB	n/a	LTP130	ltpFR	13	n/a	n/a	n/a	n/a	n/a	n/a	n/a	17	8	2	7	n/a	n/a	n/a	n/a	n/a
844649	PROB	n/a	LTP130	ltpFR	13	n/a	n/a	n/a	n/a	n/a	n/a	n/a	20	9	8	3	n/a	n/a	n/a	n/a	n/a
846756	PROB	n/a	LTP130	ltpFR	13	n/a	n/a	n/a	n/a	n/a	n/a	n/a	8	1	1	6	n/a	n/a	n/a	n/a	n/a
848007	PROB	n/a	LTP130	ltpFR	13	n/a	n/a	n/a	n/a	n/a	n/a	n/a	9	7	2	1	n/a	n/a	n/a	n/a	n/a
849572	PROB	n/a	LTP130	ltpFR	13	n/a	n/a	n/a	n/a	n/a	n/a	n/a	15	7	5	3	n/a	n/a	n/a	n/a	n/a
851296	STOP	n/a	LTP130	ltpFR	13	n/a	n/a	n/a	n/a	n/a	n/a	n/a	n/a	n/a	n/a	n/a	n/a	n/a	n/a	n/a	n/a
852855	WORD	wordpools/wasnorm_wordpool.txt	LTP130	ltpFR	13	3	0	GODDESS	646	n/a	n/a	1	n/a	0	0	0	0.422607421875	0.5869140625	0	upper	amplitud.ttf
855863	START	n/a	LTP130	ltpFR	13	n/a	n/a	n/a	n/a	n/a	n/a	n/a	n/a	n/a	n/a	n/a	n/a	n/a	n/a	n/a	n/a
856870	PROB	n/a	LTP130	ltpFR	13	n/a	n/a	n/a	n/a	n/a	n/a	n/a	21	6	9	6	n/a	n/a	n/a	n/a	n/a
860161	PROB	n/a	LTP130	ltpFR	13	n/a	n/a	n/a	n/a	n/a	n/a	n/a	21	8	8	5	n/a	n/a	n/a	n/a	n/a
864334	PROB	n/a	LTP130	ltpFR	13	n/a	n/a	n/a	n/a	n/a	n/a	n/a	21	8	9	4	n/a	n/a	n/a	n/a	n/a
865951	PROB	n/a	LTP130	ltpFR	13	n/a	n/a	n/a	n/a	n/a	n/a	n/a	10	1	7	2	n/a	n/a	n/a	n/a	n/a
867391	PROB	n/a	LTP130	ltpFR	13	n/a	n/a	n/a	n/a	n/a	n/a	n/a	13	7	1	5	n/a	n/a	n/a	n/a	n/a
868757	PROB	n/a	LTP130	ltpFR	13	n/a	n/a	n/a	n/a	n/a	n/a	n/a	15	6	8	1	n/a	n/a	n/a	n/a	n/a
870928	STOP	n/a	LTP130	ltpFR	13	n/a	n/a	n/a	n/a	n/a	n/a	n/a	n/a	n/a	n/a	n/a	n/a	n/a	n/a	n/a	n/a
872747	WORD	wordpools/wasnorm_wordpool.txt	LTP130	ltpFR	13	3	0	DAGGER	434	n/a	n/a	0	n/a	0	0	0	0.422607421875	0.5869140625	0	upper	amplitud.ttf
875755	START	n/a	LTP130	ltpFR	13	n/a	n/a	n/a	n/a	n/a	n/a	n/a	n/a	n/a	n/a	n/a	n/a	n/a	n/a	n/a	n/a
876847	PROB	n/a	LTP130	ltpFR	13	n/a	n/a	n/a	n/a	n/a	n/a	n/a	11	1	1	9	n/a	n/a	n/a	n/a	n/a
877996	PROB	n/a	LTP130	ltpFR	13	n/a	n/a	n/a	n/a	n/a	n/a	n/a	11	5	1	5	n/a	n/a	n/a	n/a	n/a
879063	PROB	n/a	LTP130	ltpFR	13	n/a	n/a	n/a	n/a	n/a	n/a	n/a	13	4	6	3	n/a	n/a	n/a	n/a	n/a
880312	PROB	n/a	LTP130	ltpFR	13	n/a	n/a	n/a	n/a	n/a	n/a	n/a	13	5	1	7	n/a	n/a	n/a	n/a	n/a
881702	PROB	n/a	LTP130	ltpFR	13	n/a	n/a	n/a	n/a	n/a	n/a	n/a	9	4	1	4	n/a	n/a	n/a	n/a	n/a
883003	PROB	n/a	LTP130	ltpFR	13	n/a	n/a	n/a	n/a	n/a	n/a	n/a	20	7	4	9	n/a	n/a	n/a	n/a	n/a
884451	PROB	n/a	LTP130	ltpFR	13	n/a	n/a	n/a	n/a	n/a	n/a	n/a	8	2	2	4	n/a	n/a	n/a	n/a	n/a
885501	PROB	n/a	LTP130	ltpFR	13	n/a	n/a	n/a	n/a	n/a	n/a	n/a	17	3	7	7	n/a	n/a	n/a	n/a	n/a
887901	PROB	n/a	LTP130	ltpFR	13	n/a	n/a	n/a	n/a	n/a	n/a	n/a	19	1	9	9	n/a	n/a	n/a	n/a	n/a
889101	PROB	n/a	LTP130	ltpFR	13	n/a	n/a	n/a	n/a	n/a	n/a	n/a	14	3	5	6	n/a	n/a	n/a	n/a	n/a
891631	STOP	n/a	LTP130	ltpFR	13	n/a	n/a	n/a	n/a	n/a	n/a	n/a	n/a	n/a	n/a	n/a	n/a	n/a	n/a	n/a	n/a
893499	REC_START	n/a	LTP130	ltpFR	13	3	n/a	n/a	n/a	n/a	n/a	n/a	n/a	0	0	0	n/a	n/a	n/a	n/a	n/a
895678	REC_WORD	wordpools/wasnorm_wordpool.txt	LTP130	ltpFR	13	3	0	DAGGER	434	n/a	n/a	0	n/a	0	0	0	n/a	n/a	n/a	n/a	n/a
898178	REC_WORD	wordpools/wasnorm_wordpool.txt	LTP130	ltpFR	13	3	0	NOTEBOOK	959	n/a	n/a	0	n/a	0	0	0	n/a	n/a	n/a	n/a	n/a
902792	REC_WORD	wordpools/wasnorm_wordpool.txt	LTP130	ltpFR	13	3	0	UTENSIL	1542	n/a	n/a	n/a	n/a	0	0	0	n/a	n/a	n/a	n/a	n/a
908450	REC_WORD	wordpools/wasnorm_wordpool.txt	LTP130	ltpFR	13	3	0	GODDESS	646	n/a	n/a	1	n/a	0	0	0	n/a	n/a	n/a	n/a	n/a
916467	REC_WORD	wordpools/wasnorm_wordpool.txt	LTP130	ltpFR	13	3	0	HANDBAG	684	n/a	n/a	0	n/a	0	0	0	n/a	n/a	n/a	n/a	n/a
917988	REC_WORD	wordpools/wasnorm_wordpool.txt	LTP130	ltpFR	13	3	0	GROCERIES	663	n/a	n/a	1	n/a	0	0	0	n/a	n/a	n/a	n/a	n/a
919410	REC_WORD	wordpools/wasnorm_wordpool.txt	LTP130	ltpFR	13	3	0	CABINET	212	n/a	n/a	1	n/a	0	0	0	n/a	n/a	n/a	n/a	n/a
1001526	WORD	wordpools/wasnorm_wordpool.txt	LTP130	ltpFR	13	4	1	CUFF	423	n/a	n/a	0	n/a	0	0	0	0.57763671875	0.412841796875	1	lower	zerothre.ttf
1005392	WORD	wordpools/wasnorm_wordpool.txt	LTP130	ltpFR	13	4	1	COP	376	n/a	n/a	1	n/a	0	0	0	0.57763671875	0.412841796875	1	lower	zerothre.ttf
1009424	WORD	wordpools/wasnorm_wordpool.txt	LTP130	ltpFR	13	4	0	BOAT	144	n/a	n/a	1	n/a	0	0	0	0.422607421875	0.5869140625	0	upper	amplitud.ttf
1013348	WORD	wordpools/wasnorm_wordpool.txt	LTP130	ltpFR	13	4	0	CANDIDATE	228	n/a	n/a	1	n/a	0	0	0	0.422607421875	0.5869140625	0	upper	amplitud.ttf
1017288	WORD	wordpools/wasnorm_wordpool.txt	LTP130	ltpFR	13	4	0	SCALLOP	1242	n/a	n/a	0	n/a	0	0	0	0.422607421875	0.5869140625	0	upper	amplitud.ttf
1021419	WORD	wordpools/wasnorm_wordpool.txt	LTP130	ltpFR	13	4	0	CHILD	299	n/a	n/a	1	n/a	0	0	0	0.422607421875	0.5869140625	0	upper	amplitud.ttf
1025601	WORD	wordpools/wasnorm_wordpool.txt	LTP130	ltpFR	13	4	1	CREEK	404	n/a	n/a	0	n/a	0	0	0	0.57763671875	0.412841796875	1	lower	zerothre.ttf
1029566	WORD	wordpools/wasnorm_wordpool.txt	LTP130	ltpFR	13	4	1	BAIT	70	n/a	n/a	1	n/a	0	0	0	0.57763671875	0.412841796875	1	lower	zerothre.ttf
1033673	WORD	wordpools/wasnorm_wordpool.txt	LTP130	ltpFR	13	4	1	COD	340	n/a	n/a	1	n/a	0	0	0	0.57763671875	0.412841796875	1	lower	zerothre.ttf
1037831	WORD	wordpools/wasnorm_wordpool.txt	LTP130	ltpFR	13	4	1	VELVET	1555	n/a	n/a	0	n/a	0	0	0	0.57763671875	0.412841796875	1	lower	zerothre.ttf
1041871	WORD	wordpools/wasnorm_wordpool.txt	LTP130	ltpFR	13	4	1	DRUM	502	n/a	n/a	0	n/a	0	0	0	0.57763671875	0.412841796875	1	lower	zerothre.ttf
1045928	WORD	wordpools/wasnorm_wordpool.txt	LTP130	ltpFR	13	4	1	BUGLE	189	n/a	n/a	0	n/a	0	0	0	0.57763671875	0.412841796875	1	lower	zerothre.ttf
1049777	WORD	wordpools/wasnorm_wordpool.txt	LTP130	ltpFR	13	4	0	PRESIDENT	1121	n/a	n/a	1	n/a	0	0	0	0.422607421875	0.5869140625	0	upper	amplitud.ttf
1053859	WORD	wordpools/wasnorm_wordpool.txt	LTP130	ltpFR	13	4	0	BARRACUDA	90	n/a	n/a	1	n/a	0	0	0	0.422607421875	0.5869140625	0	upper	amplitud.ttf
1058024	WORD	wordpools/wasnorm_wordpool.txt	LTP130	ltpFR	13	4	0	EAGLE	512	n/a	n/a	1	n/a	0	0	0	0.422607421875	0.5869140625	0	upper	amplitud.ttf
1062181	WORD	wordpools/wasnorm_wordpool.txt	LTP130	ltpFR	13	4	0	YARD	1630	n/a	n/a	1	n/a	0	0	0	0.422607421875	0.5869140625	0	upper	amplitud.ttf
1068088	REC_START	n/a	LTP130	ltpFR	13	4	n/a	n/a	n/a	n/a	n/a	n/a	n/a	0	0	0	n/a	n/a	n/a	n/a	n/a
1069909	REC_WORD	wordpools/wasnorm_wordpool.txt	LTP130	ltpFR	13	4	0	YARD	1630	n/a	n/a	1	n/a	0	0	0	n/a	n/a	n/a	n/a	n/a
1071125	REC_WORD	wordpools/wasnorm_wordpool.txt	LTP130	ltpFR	13	4	0	BARRACUDA	90	n/a	n/a	1	n/a	0	0	0	n/a	n/a	n/a	n/a	n/a
1072125	REC_WORD_VV	wordpools/wasnorm_wordpool.txt	LTP130	ltpFR	13	4	n/a	<>	-1	n/a	n/a	n/a	n/a	0	0	0	n/a	n/a	n/a	n/a	n/a
1073086	REC_WORD	wordpools/wasnorm_wordpool.txt	LTP130	ltpFR	13	4	0	EAGLE	512	n/a	n/a	1	n/a	0	0	0	n/a	n/a	n/a	n/a	n/a
1074294	REC_WORD	wordpools/wasnorm_wordpool.txt	LTP130	ltpFR	13	4	0	SCALLOP	1242	n/a	n/a	0	n/a	0	0	0	n/a	n/a	n/a	n/a	n/a
1075890	REC_WORD	wordpools/wasnorm_wordpool.txt	LTP130	ltpFR	13	4	0	CHILD	299	n/a	n/a	1	n/a	0	0	0	n/a	n/a	n/a	n/a	n/a
1079118	REC_WORD	wordpools/wasnorm_wordpool.txt	LTP130	ltpFR	13	4	0	CANDIDATE	228	n/a	n/a	1	n/a	0	0	0	n/a	n/a	n/a	n/a	n/a
1080794	REC_WORD	wordpools/wasnorm_wordpool.txt	LTP130	ltpFR	13	4	0	PRESIDENT	1121	n/a	n/a	1	n/a	0	0	0	n/a	n/a	n/a	n/a	n/a
1089160	REC_WORD	wordpools/wasnorm_wordpool.txt	LTP130	ltpFR	13	4	1	COD	340	n/a	n/a	1	n/a	0	0	0	n/a	n/a	n/a	n/a	n/a
1102934	REC_WORD	wordpools/wasnorm_wordpool.txt	LTP130	ltpFR	13	4	1	COP	376	n/a	n/a	1	n/a	0	0	0	n/a	n/a	n/a	n/a	n/a
1103991	REC_WORD	wordpools/wasnorm_wordpool.txt	LTP130	ltpFR	13	4	1	CUFF	423	n/a	n/a	0	n/a	0	0	0	n/a	n/a	n/a	n/a	n/a
1112507	REC_WORD	wordpools/wasnorm_wordpool.txt	LTP130	ltpFR	13	4	0	YARD	1630	n/a	n/a	1	n/a	0	0	0	n/a	n/a	n/a	n/a	n/a
1149474	START	n/a	LTP130	ltpFR	13	n/a	n/a	n/a	n/a	n/a	n/a	n/a	n/a	n/a	n/a	n/a	n/a	n/a	n/a	n/a	n/a
1150983	PROB	n/a	LTP130	ltpFR	13	n/a	n/a	n/a	n/a	n/a	n/a	n/a	7	1	4	2	n/a	n/a	n/a	n/a	n/a
1153173	PROB	n/a	LTP130	ltpFR	13	n/a	n/a	n/a	n/a	n/a	n/a	n/a	10	3	3	4	n/a	n/a	n/a	n/a	n/a
1154973	PROB	n/a	LTP130	ltpFR	13	n/a	n/a	n/a	n/a	n/a	n/a	n/a	12	7	1	4	n/a	n/a	n/a	n/a	n/a
1156679	STOP	n/a	LTP130	ltpFR	13	n/a	n/a	n/a	n/a	n/a	n/a	n/a	n/a	n/a	n/a	n/a	n/a	n/a	n/a	n/a	n/a
1158330	WORD	wordpools/wasnorm_wordpool.txt	LTP130	ltpFR	13	5	1	INMATE	738	n/a	n/a	1	n/a	0	0	0	0.57763671875	0.412841796875	1	lower	zerothre.ttf
1161338	START	n/a	LTP130	ltpFR	13	n/a	n/a	n/a	n/a	n/a	n/a	n/a	n/a	n/a	n/a	n/a	n/a	n/a	n/a	n/a	n/a
1162469	PROB	n/a	LTP130	ltpFR	13	n/a	n/a	n/a	n/a	n/a	n/a	n/a	23	7	9	7	n/a	n/a	n/a	n/a	n/a
1165328	PROB	n/a	LTP130	ltpFR	13	n/a	n/a	n/a	n/a	n/a	n/a	n/a	13	5	6	2	n/a	n/a	n/a	n/a	n/a
1167417	PROB	n/a	LTP130	ltpFR	13	n/a	n/a	n/a	n/a	n/a	n/a	n/a	22	5	9	8	n/a	n/a	n/a	n/a	n/a
1169144	STOP	n/a	LTP130	ltpFR	13	n/a	n/a	n/a	n/a	n/a	n/a	n/a	n/a	n/a	n/a	n/a	n/a	n/a	n/a	n/a	n/a
1170176	WORD	wordpools/wasnorm_wordpool.txt	LTP130	ltpFR	13	5	1	CRIMINAL	409	n/a	n/a	1	n/a	0	0	0	0.57763671875	0.412841796875	1	lower	zerothre.ttf
1173183	START	n/a	LTP130	ltpFR	13	n/a	n/a	n/a	n/a	n/a	n/a	n/a	n/a	n/a	n/a	n/a	n/a	n/a	n/a	n/a	n/a
1174174	PROB	n/a	LTP130	ltpFR	13	n/a	n/a	n/a	n/a	n/a	n/a	n/a	11	2	3	6	n/a	n/a	n/a	n/a	n/a
1176224	PROB	n/a	LTP130	ltpFR	13	n/a	n/a	n/a	n/a	n/a	n/a	n/a	9	5	3	1	n/a	n/a	n/a	n/a	n/a
1181183	STOP	n/a	LTP130	ltpFR	13	n/a	n/a	n/a	n/a	n/a	n/a	n/a	n/a	n/a	n/a	n/a	n/a	n/a	n/a	n/a	n/a
1182280	WORD	wordpools/wasnorm_wordpool.txt	LTP130	ltpFR	13	5	1	ANT	25	n/a	n/a	1	n/a	0	0	0	0.57763671875	0.412841796875	1	lower	zerothre.ttf
1185288	START	n/a	LTP130	ltpFR	13	n/a	n/a	n/a	n/a	n/a	n/a	n/a	n/a	n/a	n/a	n/a	n/a	n/a	n/a	n/a	n/a
1186312	PROB	n/a	LTP130	ltpFR	13	n/a	n/a	n/a	n/a	n/a	n/a	n/a	20	8	7	5	n/a	n/a	n/a	n/a	n/a
1187710	PROB	n/a	LTP130	ltpFR	13	n/a	n/a	n/a	n/a	n/a	n/a	n/a	18	7	8	3	n/a	n/a	n/a	n/a	n/a
1189236	PROB	n/a	LTP130	ltpFR	13	n/a	n/a	n/a	n/a	n/a	n/a	n/a	17	5	4	8	n/a	n/a	n/a	n/a	n/a
1191344	PROB	n/a	LTP130	ltpFR	13	n/a	n/a	n/a	n/a	n/a	n/a	n/a	15	1	8	6	n/a	n/a	n/a	n/a	n/a
1192904	STOP	n/a	LTP130	ltpFR	13	n/a	n/a	n/a	n/a	n/a	n/a	n/a	n/a	n/a	n/a	n/a	n/a	n/a	n/a	n/a	n/a
1194151	WORD	wordpools/wasnorm_wordpool.txt	LTP130	ltpFR	13	5	0	STEP	1377	n/a	n/a	1	n/a	0	0	0	0.422607421875	0.5869140625	0	upper	amplitud.ttf
1197158	START	n/a	LTP130	ltpFR	13	n/a	n/a	n/a	n/a	n/a	n/a	n/a	n/a	n/a	n/a	n/a	n/a	n/a	n/a	n/a	n/a
1198224	PROB	n/a	LTP130	ltpFR	13	n/a	n/a	n/a	n/a	n/a	n/a	n/a	21	7	7	7	n/a	n/a	n/a	n/a	n/a
1199589	PROB	n/a	LTP130	ltpFR	13	n/a	n/a	n/a	n/a	n/a	n/a	n/a	14	2	7	5	n/a	n/a	n/a	n/a	n/a
1201798	PROB	n/a	LTP130	ltpFR	13	n/a	n/a	n/a	n/a	n/a	n/a	n/a	20	7	8	5	n/a	n/a	n/a	n/a	n/a
1204144	STOP	n/a	LTP130	ltpFR	13	n/a	n/a	n/a	n/a	n/a	n/a	n/a	n/a	n/a	n/a	n/a	n/a	n/a	n/a	n/a	n/a
1206138	WORD	wordpools/wasnorm_wordpool.txt	LTP130	ltpFR	13	5	0	COMEDIAN	352	n/a	n/a	1	n/a	0	0	0	0.422607421875	0.5869140625	0	upper	amplitud.ttf
1209146	START	n/a	LTP130	ltpFR	13	n/a	n/a	n/a	n/a	n/a	n/a	n/a	n/a	n/a	n/a	n/a	n/a	n/a	n/a	n/a	n/a
1209953	PROB	n/a	LTP130	ltpFR	13	n/a	n/a	n/a	n/a	n/a	n/a	n/a	20	8	8	4	n/a	n/a	n/a	n/a	n/a
1211527	PROB	n/a	LTP130	ltpFR	13	n/a	n/a	n/a	n/a	n/a	n/a	n/a	13	7	5	1	n/a	n/a	n/a	n/a	n/a
1213693	PROB	n/a	LTP130	ltpFR	13	n/a	n/a	n/a	n/a	n/a	n/a	n/a	14	7	1	6	n/a	n/a	n/a	n/a	n/a
1216415	STOP	n/a	LTP130	ltpFR	13	n/a	n/a	n/a	n/a	n/a	n/a	n/a	n/a	n/a	n/a	n/a	n/a	n/a	n/a	n/a	n/a
1218192	WORD	wordpools/wasnorm_wordpool.txt	LTP130	ltpFR	13	5	1	BOYFRIEND	162	n/a	n/a	1	n/a	0	0	0	0.57763671875	0.412841796875	1	lower	zerothre.ttf
1221200	START	n/a	LTP130	ltpFR	13	n/a	n/a	n/a	n/a	n/a	n/a	n/a	n/a	n/a	n/a	n/a	n/a	n/a	n/a	n/a	n/a
1222149	PROB	n/a	LTP130	ltpFR	13	n/a	n/a	n/a	n/a	n/a	n/a	n/a	11	6	3	2	n/a	n/a	n/a	n/a	n/a
1223664	PROB	n/a	LTP130	ltpFR	13	n/a	n/a	n/a	n/a	n/a	n/a	n/a	13	2	4	7	n/a	n/a	n/a	n/a	n/a
1225505	PROB	n/a	LTP130	ltpFR	13	n/a	n/a	n/a	n/a	n/a	n/a	n/a	16	5	8	3	n/a	n/a	n/a	n/a	n/a
1227960	STOP	n/a	LTP130	ltpFR	13	n/a	n/a	n/a	n/a	n/a	n/a	n/a	n/a	n/a	n/a	n/a	n/a	n/a	n/a	n/a	n/a
1230313	WORD	wordpools/wasnorm_wordpool.txt	LTP130	ltpFR	13	5	1	FEAST	556	n/a	n/a	0	n/a	0	0	0	0.57763671875	0.412841796875	1	lower	zerothre.ttf
1233321	START	n/a	LTP130	ltpFR	13	n/a	n/a	n/a	n/a	n/a	n/a	n/a	n/a	n/a	n/a	n/a	n/a	n/a	n/a	n/a	n/a
1234261	PROB	n/a	LTP130	ltpFR	13	n/a	n/a	n/a	n/a	n/a	n/a	n/a	16	6	9	1	n/a	n/a	n/a	n/a	n/a
1236743	PROB	n/a	LTP130	ltpFR	13	n/a	n/a	n/a	n/a	n/a	n/a	n/a	13	1	4	8	n/a	n/a	n/a	n/a	n/a
1238202	PROB	n/a	LTP130	ltpFR	13	n/a	n/a	n/a	n/a	n/a	n/a	n/a	12	6	3	3	n/a	n/a	n/a	n/a	n/a
1239575	PROB	n/a	LTP130	ltpFR	13	n/a	n/a	n/a	n/a	n/a	n/a	n/a	16	8	7	1	n/a	n/a	n/a	n/a	n/a
1240984	STOP	n/a	LTP130	ltpFR	13	n/a	n/a	n/a	n/a	n/a	n/a	n/a	n/a	n/a	n/a	n/a	n/a	n/a	n/a	n/a	n/a
1242374	WORD	wordpools/wasnorm_wordpool.txt	LTP130	ltpFR	13	5	1	SAUSAGE	1238	n/a	n/a	0	n/a	0	0	0	0.57763671875	0.412841796875	1	lower	zerothre.ttf
1245382	START	n/a	LTP130	ltpFR	13	n/a	n/a	n/a	n/a	n/a	n/a	n/a	n/a	n/a	n/a	n/a	n/a	n/a	n/a	n/a	n/a
1246324	PROB	n/a	LTP130	ltpFR	13	n/a	n/a	n/a	n/a	n/a	n/a	n/a	14	4	2	8	n/a	n/a	n/a	n/a	n/a
1248430	PROB	n/a	LTP130	ltpFR	13	n/a	n/a	n/a	n/a	n/a	n/a	n/a	14	1	4	9	n/a	n/a	n/a	n/a	n/a
1250505	PROB	n/a	LTP130	ltpFR	13	n/a	n/a	n/a	n/a	n/a	n/a	n/a	18	6	4	8	n/a	n/a	n/a	n/a	n/a
1252304	STOP	n/a	LTP130	ltpFR	13	n/a	n/a	n/a	n/a	n/a	n/a	n/a	n/a	n/a	n/a	n/a	n/a	n/a	n/a	n/a	n/a
1254279	WORD	wordpools/wasnorm_wordpool.txt	LTP130	ltpFR	13	5	1	EWE	542	n/a	n/a	1	n/a	0	0	0	0.57763671875	0.412841796875	1	lower	zerothre.ttf
1257287	START	n/a	LTP130	ltpFR	13	n/a	n/a	n/a	n/a	n/a	n/a	n/a	n/a	n/a	n/a	n/a	n/a	n/a	n/a	n/a	n/a
1258186	PROB	n/a	LTP130	ltpFR	13	n/a	n/a	n/a	n/a	n/a	n/a	n/a	15	3	7	5	n/a	n/a	n/a	n/a	n/a
1259777	PROB	n/a	LTP130	ltpFR	13	n/a	n/a	n/a	n/a	n/a	n/a	n/a	22	6	9	7	n/a	n/a	n/a	n/a	n/a
1262018	PROB	n/a	LTP130	ltpFR	13	n/a	n/a	n/a	n/a	n/a	n/a	n/a	11	1	8	2	n/a	n/a	n/a	n/a	n/a
1264112	STOP	n/a	LTP130	ltpFR	13	n/a	n/a	n/a	n/a	n/a	n/a	n/a	n/a	n/a	n/a	n/a	n/a	n/a	n/a	n/a	n/a
1266300	WORD	wordpools/wasnorm_wordpool.txt	LTP130	ltpFR	13	5	1	CREATURE	403	n/a	n/a	1	n/a	0	0	0	0.57763671875	0.412841796875	1	lower	zerothre.ttf
1269308	START	n/a	LTP130	ltpFR	13	n/a	n/a	n/a	n/a	n/a	n/a	n/a	n/a	n/a	n/a	n/a	n/a	n/a	n/a	n/a	n/a
1270472	PROB	n/a	LTP130	ltpFR	13	n/a	n/a	n/a	n/a	n/a	n/a	n/a	20	9	6	5	n/a	n/a	n/a	n/a	n/a
1272672	PROB	n/a	LTP130	ltpFR	13	n/a	n/a	n/a	n/a	n/a	n/a	n/a	22	9	4	9	n/a	n/a	n/a	n/a	n/a
1276719	STOP	n/a	LTP130	ltpFR	13	n/a	n/a	n/a	n/a	n/a	n/a	n/a	n/a	n/a	n/a	n/a	n/a	n/a	n/a	n/a	n/a
1278461	WORD	wordpools/wasnorm_wordpool.txt	LTP130	ltpFR	13	5	0	SIGNATURE	1306	n/a	n/a	0	n/a	0	0	0	0.422607421875	0.5869140625	0	upper	amplitud.ttf
1281469	START	n/a	LTP130	ltpFR	13	n/a	n/a	n/a	n/a	n/a	n/a	n/a	n/a	n/a	n/a	n/a	n/a	n/a	n/a	n/a	n/a
1282303	PROB	n/a	LTP130	ltpFR	13	n/a	n/a	n/a	n/a	n/a	n/a	n/a	13	3	5	5	n/a	n/a	n/a	n/a	n/a
1283509	PROB	n/a	LTP130	ltpFR	13	n/a	n/a	n/a	n/a	n/a	n/a	n/a	11	7	3	1	n/a	n/a	n/a	n/a	n/a
1285584	PROB	n/a	LTP130	ltpFR	13	n/a	n/a	n/a	n/a	n/a	n/a	n/a	19	6	6	7	n/a	n/a	n/a	n/a	n/a
1288088	STOP	n/a	LTP130	ltpFR	13	n/a	n/a	n/a	n/a	n/a	n/a	n/a	n/a	n/a	n/a	n/a	n/a	n/a	n/a	n/a	n/a
1290507	WORD	wordpools/wasnorm_wordpool.txt	LTP130	ltpFR	13	5	0	TRUMPET	1513	n/a	n/a	1	n/a	0	0	0	0.422607421875	0.5869140625	0	upper	amplitud.ttf
1293515	START	n/a	LTP130	ltpFR	13	n/a	n/a	n/a	n/a	n/a	n/a	n/a	n/a	n/a	n/a	n/a	n/a	n/a	n/a	n/a	n/a
1294364	PROB	n/a	LTP130	ltpFR	13	n/a	n/a	n/a	n/a	n/a	n/a	n/a	16	7	8	1	n/a	n/a	n/a	n/a	n/a
1296831	PROB	n/a	LTP130	ltpFR	13	n/a	n/a	n/a	n/a	n/a	n/a	n/a	23	8	9	6	n/a	n/a	n/a	n/a	n/a
1299796	PROB	n/a	LTP130	ltpFR	13	n/a	n/a	n/a	n/a	n/a	n/a	n/a	11	1	2	8	n/a	n/a	n/a	n/a	n/a
1301112	STOP	n/a	LTP130	ltpFR	13	n/a	n/a	n/a	n/a	n/a	n/a	n/a	n/a	n/a	n/a	n/a	n/a	n/a	n/a	n/a	n/a
1302403	WORD	wordpools/wasnorm_wordpool.txt	LTP130	ltpFR	13	5	0	FACE	547	n/a	n/a	0	n/a	0	0	0	0.422607421875	0.5869140625	0	upper	amplitud.ttf
1305410	START	n/a	LTP130	ltpFR	13	n/a	n/a	n/a	n/a	n/a	n/a	n/a	n/a	n/a	n/a	n/a	n/a	n/a	n/a	n/a	n/a
1306277	PROB	n/a	LTP130	ltpFR	13	n/a	n/a	n/a	n/a	n/a	n/a	n/a	14	5	2	7	n/a	n/a	n/a	n/a	n/a
1308110	PROB	n/a	LTP130	ltpFR	13	n/a	n/a	n/a	n/a	n/a	n/a	n/a	13	1	6	6	n/a	n/a	n/a	n/a	n/a
1309700	PROB	n/a	LTP130	ltpFR	13	n/a	n/a	n/a	n/a	n/a	n/a	n/a	17	7	2	8	n/a	n/a	n/a	n/a	n/a
1313410	STOP	n/a	LTP130	ltpFR	13	n/a	n/a	n/a	n/a	n/a	n/a	n/a	n/a	n/a	n/a	n/a	n/a	n/a	n/a	n/a	n/a
1314233	WORD	wordpools/wasnorm_wordpool.txt	LTP130	ltpFR	13	5	0	SLOPE	1328	n/a	n/a	1	n/a	0	0	0	0.422607421875	0.5869140625	0	upper	amplitud.ttf
1317241	START	n/a	LTP130	ltpFR	13	n/a	n/a	n/a	n/a	n/a	n/a	n/a	n/a	n/a	n/a	n/a	n/a	n/a	n/a	n/a	n/a
1318190	PROB	n/a	LTP130	ltpFR	13	n/a	n/a	n/a	n/a	n/a	n/a	n/a	12	7	3	2	n/a	n/a	n/a	n/a	n/a
1319505	PROB	n/a	LTP130	ltpFR	13	n/a	n/a	n/a	n/a	n/a	n/a	n/a	16	7	5	4	n/a	n/a	n/a	n/a	n/a
1321322	PROB	n/a	LTP130	ltpFR	13	n/a	n/a	n/a	n/a	n/a	n/a	n/a	16	3	9	4	n/a	n/a	n/a	n/a	n/a
1323163	PROB	n/a	LTP130	ltpFR	13	n/a	n/a	n/a	n/a	n/a	n/a	n/a	17	1	8	8	n/a	n/a	n/a	n/a	n/a
1324816	STOP	n/a	LTP130	ltpFR	13	n/a	n/a	n/a	n/a	n/a	n/a	n/a	n/a	n/a	n/a	n/a	n/a	n/a	n/a	n/a	n/a
1326120	WORD	wordpools/wasnorm_wordpool.txt	LTP130	ltpFR	13	5	0	VIOLA	1570	n/a	n/a	1	n/a	0	0	0	0.422607421875	0.5869140625	0	upper	amplitud.ttf
1329128	START	n/a	LTP130	ltpFR	13	n/a	n/a	n/a	n/a	n/a	n/a	n/a	n/a	n/a	n/a	n/a	n/a	n/a	n/a	n/a	n/a
1330069	PROB	n/a	LTP130	ltpFR	13	n/a	n/a	n/a	n/a	n/a	n/a	n/a	5	1	3	1	n/a	n/a	n/a	n/a	n/a
1331818	PROB	n/a	LTP130	ltpFR	13	n/a	n/a	n/a	n/a	n/a	n/a	n/a	8	3	2	3	n/a	n/a	n/a	n/a	n/a
1333592	PROB	n/a	LTP130	ltpFR	13	n/a	n/a	n/a	n/a	n/a	n/a	n/a	17	1	9	7	n/a	n/a	n/a	n/a	n/a
1337128	STOP	n/a	LTP130	ltpFR	13	n/a	n/a	n/a	n/a	n/a	n/a	n/a	n/a	n/a	n/a	n/a	n/a	n/a	n/a	n/a	n/a
1338133	WORD	wordpools/wasnorm_wordpool.txt	LTP130	ltpFR	13	5	0	TAG	1429	n/a	n/a	0	n/a	0	0	0	0.422607421875	0.5869140625	0	upper	amplitud.ttf
1341140	START	n/a	LTP130	ltpFR	13	n/a	n/a	n/a	n/a	n/a	n/a	n/a	n/a	n/a	n/a	n/a	n/a	n/a	n/a	n/a	n/a
1342306	PROB	n/a	LTP130	ltpFR	13	n/a	n/a	n/a	n/a	n/a	n/a	n/a	12	1	6	5	n/a	n/a	n/a	n/a	n/a
1343972	PROB	n/a	LTP130	ltpFR	13	n/a	n/a	n/a	n/a	n/a	n/a	n/a	19	9	9	1	n/a	n/a	n/a	n/a	n/a
1345197	PROB	n/a	LTP130	ltpFR	13	n/a	n/a	n/a	n/a	n/a	n/a	n/a	21	7	5	9	n/a	n/a	n/a	n/a	n/a
1349140	STOP	n/a	LTP130	ltpFR	13	n/a	n/a	n/a	n/a	n/a	n/a	n/a	n/a	n/a	n/a	n/a	n/a	n/a	n/a	n/a	n/a
1350895	REC_START	n/a	LTP130	ltpFR	13	5	n/a	n/a	n/a	n/a	n/a	n/a	n/a	0	0	0	n/a	n/a	n/a	n/a	n/a
1352631	REC_WORD	wordpools/wasnorm_wordpool.txt	LTP130	ltpFR	13	5	0	TAG	1429	n/a	n/a	0	n/a	0	0	0	n/a	n/a	n/a	n/a	n/a
1353474	REC_WORD	wordpools/wasnorm_wordpool.txt	LTP130	ltpFR	13	5	0	VIOLA	1570	n/a	n/a	1	n/a	0	0	0	n/a	n/a	n/a	n/a	n/a
1356607	REC_WORD	wordpools/wasnorm_wordpool.txt	LTP130	ltpFR	13	5	1	INMATE	738	n/a	n/a	1	n/a	0	0	0	n/a	n/a	n/a	n/a	n/a
1358867	REC_WORD	wordpools/wasnorm_wordpool.txt	LTP130	ltpFR	13	5	1	CRIMINAL	409	n/a	n/a	1	n/a	0	0	0	n/a	n/a	n/a	n/a	n/a
1360787	REC_WORD	wordpools/wasnorm_wordpool.txt	LTP130	ltpFR	13	5	0	TRUMPET	1513	n/a	n/a	1	n/a	0	0	0	n/a	n/a	n/a	n/a	n/a
1375873	REC_WORD	wordpools/wasnorm_wordpool.txt	LTP130	ltpFR	13	5	1	ANT	25	n/a	n/a	1	n/a	0	0	0	n/a	n/a	n/a	n/a	n/a
1377135	REC_WORD	wordpools/wasnorm_wordpool.txt	LTP130	ltpFR	13	5	0	SLOPE	1328	n/a	n/a	1	n/a	0	0	0	n/a	n/a	n/a	n/a	n/a
1384927	REC_WORD	wordpools/wasnorm_wordpool.txt	LTP130	ltpFR	13	5	1	FEAST	556	n/a	n/a	0	n/a	0	0	0	n/a	n/a	n/a	n/a	n/a
1397085	REC_WORD	wordpools/wasnorm_wordpool.txt	LTP130	ltpFR	13	5	1	SAUSAGE	1238	n/a	n/a	0	n/a	0	0	0	n/a	n/a	n/a	n/a	n/a
1462230	WORD	wordpools/wasnorm_wordpool.txt	LTP130	ltpFR	13	6	0	ENGINEER	536	n/a	n/a	1	n/a	0	0	0	0.422607421875	0.5869140625	0	upper	amplitud.ttf
1466296	WORD	wordpools/wasnorm_wordpool.txt	LTP130	ltpFR	13	6	0	SISTER	1312	n/a	n/a	1	n/a	0	0	0	0.422607421875	0.5869140625	0	upper	amplitud.ttf
1470460	WORD	wordpools/wasnorm_wordpool.txt	LTP130	ltpFR	13	6	1	RIBBON	1189	n/a	n/a	0	n/a	0	0	0	0.57763671875	0.412841796875	1	lower	zerothre.ttf
1474442	WORD	wordpools/wasnorm_wordpool.txt	LTP130	ltpFR	13	6	1	MILK	895	n/a	n/a	0	n/a	0	0	0	0.57763671875	0.412841796875	1	lower	zerothre.ttf
1478590	WORD	wordpools/wasnorm_wordpool.txt	LTP130	ltpFR	13	6	1	CATTLE	261	n/a	n/a	1	n/a	0	0	0	0.57763671875	0.412841796875	1	lower	zerothre.ttf
1482755	WORD	wordpools/wasnorm_wordpool.txt	LTP130	ltpFR	13	6	1	WORKER	1621	n/a	n/a	1	n/a	0	0	0	0.57763671875	0.412841796875	1	lower	zerothre.ttf
1486762	WORD	wordpools/wasnorm_wordpool.txt	LTP130	ltpFR	13	6	0	KEYBOARD	774	n/a	n/a	1	n/a	0	0	0	0.422607421875	0.5869140625	0	upper	amplitud.ttf
1490653	WORD	wordpools/wasnorm_wordpool.txt	LTP130	ltpFR	13	6	0	COMMITTEE	355	n/a	n/a	1	n/a	0	0	0	0.422607421875	0.5869140625	0	upper	amplitud.ttf
1494493	WORD	wordpools/wasnorm_wordpool.txt	LTP130	ltpFR	13	6	0	IGLOO	734	n/a	n/a	1	n/a	0	0	0	0.422607421875	0.5869140625	0	upper	amplitud.ttf
1498375	WORD	wordpools/wasnorm_wordpool.txt	LTP130	ltpFR	13	6	0	DOUGH	489	n/a	n/a	0	n/a	0	0	0	0.422607421875	0.5869140625	0	upper	amplitud.ttf
1502440	WORD	wordpools/wasnorm_wordpool.txt	LTP130	ltpFR	13	6	1	BISCUIT	130	n/a	n/a	0	n/a	0	0	0	0.57763671875	0.412841796875	1	lower	zerothre.ttf
1506613	WORD	wordpools/wasnorm_wordpool.txt	LTP130	ltpFR	13	6	1	VOLLEYBALL	1576	n/a	n/a	0	n/a	0	0	0	0.57763671875	0.412841796875	1	lower	zerothre.ttf
1510754	WORD	wordpools/wasnorm_wordpool.txt	LTP130	ltpFR	13	6	1	ACROBAT	4	n/a	n/a	1	n/a	0	0	0	0.57763671875	0.412841796875	1	lower	zerothre.ttf
1514736	WORD	wordpools/wasnorm_wordpool.txt	LTP130	ltpFR	13	6	1	PRINTER	1126	n/a	n/a	1	n/a	0	0	0	0.57763671875	0.412841796875	1	lower	zerothre.ttf
1518651	WORD	wordpools/wasnorm_wordpool.txt	LTP130	ltpFR	13	6	0	TWINE	1529	n/a	n/a	0	n/a	0	0	0	0.422607421875	0.5869140625	0	upper	amplitud.ttf
1522708	WORD	wordpools/wasnorm_wordpool.txt	LTP130	ltpFR	13	6	0	CORD	379	n/a	n/a	0	n/a	0	0	0	0.422607421875	0.5869140625	0	upper	amplitud.ttf
1525715	START	n/a	LTP130	ltpFR	13	n/a	n/a	n/a	n/a	n/a	n/a	n/a	n/a	n/a	n/a	n/a	n/a	n/a	n/a	n/a	n/a
1526556	PROB	n/a	LTP130	ltpFR	13	n/a	n/a	n/a	n/a	n/a	n/a	n/a	14	2	7	5	n/a	n/a	n/a	n/a	n/a
1529090	PROB	n/a	LTP130	ltpFR	13	n/a	n/a	n/a	n/a	n/a	n/a	n/a	21	9	8	4	n/a	n/a	n/a	n/a	n/a
1530680	PROB	n/a	LTP130	ltpFR	13	n/a	n/a	n/a	n/a	n/a	n/a	n/a	15	2	7	6	n/a	n/a	n/a	n/a	n/a
1532172	PROB	n/a	LTP130	ltpFR	13	n/a	n/a	n/a	n/a	n/a	n/a	n/a	14	5	6	3	n/a	n/a	n/a	n/a	n/a
1533771	PROB	n/a	LTP130	ltpFR	13	n/a	n/a	n/a	n/a	n/a	n/a	n/a	10	5	1	4	n/a	n/a	n/a	n/a	n/a
1535163	PROB	n/a	LTP130	ltpFR	13	n/a	n/a	n/a	n/a	n/a	n/a	n/a	17	3	7	7	n/a	n/a	n/a	n/a	n/a
1538486	PROB	n/a	LTP130	ltpFR	13	n/a	n/a	n/a	n/a	n/a	n/a	n/a	17	5	9	3	n/a	n/a	n/a	n/a	n/a
1541048	STOP	n/a	LTP130	ltpFR	13	n/a	n/a	n/a	n/a	n/a	n/a	n/a	n/a	n/a	n/a	n/a	n/a	n/a	n/a	n/a	n/a
1543543	REC_START	n/a	LTP130	ltpFR	13	6	n/a	n/a	n/a	n/a	n/a	n/a	n/a	0	0	0	n/a	n/a	n/a	n/a	n/a
1546746	REC_WORD	wordpools/wasnorm_wordpool.txt	LTP130	ltpFR	13	6	0	TWINE	1529	n/a	n/a	0	n/a	0	0	0	n/a	n/a	n/a	n/a	n/a
1548013	REC_WORD	wordpools/wasnorm_wordpool.txt	LTP130	ltpFR	13	6	0	CORD	379	n/a	n/a	0	n/a	0	0	0	n/a	n/a	n/a	n/a	n/a
1549025	REC_WORD	wordpools/wasnorm_wordpool.txt	LTP130	ltpFR	13	6	0	SISTER	1312	n/a	n/a	1	n/a	0	0	0	n/a	n/a	n/a	n/a	n/a
1550223	REC_WORD	wordpools/wasnorm_wordpool.txt	LTP130	ltpFR	13	6	0	ENGINEER	536	n/a	n/a	1	n/a	0	0	0	n/a	n/a	n/a	n/a	n/a
1551460	REC_WORD	wordpools/wasnorm_wordpool.txt	LTP130	ltpFR	13	6	1	MILK	895	n/a	n/a	0	n/a	0	0	0	n/a	n/a	n/a	n/a	n/a
1553216	REC_WORD	wordpools/wasnorm_wordpool.txt	LTP130	ltpFR	13	6	1	CATTLE	261	n/a	n/a	1	n/a	0	0	0	n/a	n/a	n/a	n/a	n/a
1557072	REC_WORD	wordpools/wasnorm_wordpool.txt	LTP130	ltpFR	13	6	1	WORKER	1621	n/a	n/a	1	n/a	0	0	0	n/a	n/a	n/a	n/a	n/a
1577366	REC_WORD	wordpools/wasnorm_wordpool.txt	LTP130	ltpFR	13	6	0	KEYBOARD	774	n/a	n/a	1	n/a	0	0	0	n/a	n/a	n/a	n/a	n/a
1578249	REC_WORD	wordpools/wasnorm_wordpool.txt	LTP130	ltpFR	13	6	0	COMMITTEE	355	n/a	n/a	1	n/a	0	0	0	n/a	n/a	n/a	n/a	n/a
1579526	REC_WORD	wordpools/wasnorm_wordpool.txt	LTP130	ltpFR	13	6	0	IGLOO	734	n/a	n/a	1	n/a	0	0	0	n/a	n/a	n/a	n/a	n/a
1591668	REC_WORD	wordpools/wasnorm_wordpool.txt	LTP130	ltpFR	13	6	1	RIBBON	1189	n/a	n/a	0	n/a	0	0	0	n/a	n/a	n/a	n/a	n/a
1651305	WORD	wordpools/wasnorm_wordpool.txt	LTP130	ltpFR	13	7	1	FOUNTAIN	597	n/a	n/a	0	n/a	0	0	0	0.57763671875	0.412841796875	1	lower	zerothre.ttf
1655270	WORD	wordpools/wasnorm_wordpool.txt	LTP130	ltpFR	13	7	1	TAR	1435	n/a	n/a	0	n/a	0	0	0	0.57763671875	0.412841796875	1	lower	zerothre.ttf
1659376	WORD	wordpools/wasnorm_wordpool.txt	LTP130	ltpFR	13	7	1	STREET	1393	n/a	n/a	0	n/a	0	0	0	0.57763671875	0.412841796875	1	lower	zerothre.ttf
1663366	WORD	wordpools/wasnorm_wordpool.txt	LTP130	ltpFR	13	7	1	DUNGEON	507	n/a	n/a	0	n/a	0	0	0	0.57763671875	0.412841796875	1	lower	zerothre.ttf
1667515	WORD	wordpools/wasnorm_wordpool.txt	LTP130	ltpFR	13	7	1	DRAGON	492	n/a	n/a	1	n/a	0	0	0	0.57763671875	0.412841796875	1	lower	zerothre.ttf
1671705	WORD	wordpools/wasnorm_wordpool.txt	LTP130	ltpFR	13	7	1	BUFFALO	186	n/a	n/a	1	n/a	0	0	0	0.57763671875	0.412841796875	1	lower	zerothre.ttf
1675720	WORD	wordpools/wasnorm_wordpool.txt	LTP130	ltpFR	13	7	1	CHIEF	298	n/a	n/a	1	n/a	0	0	0	0.57763671875	0.412841796875	1	lower	zerothre.ttf
1679627	WORD	wordpools/wasnorm_wordpool.txt	LTP130	ltpFR	13	7	1	LEVER	815	n/a	n/a	0	n/a	0	0	0	0.57763671875	0.412841796875	1	lower	zerothre.ttf
1683551	WORD	wordpools/wasnorm_wordpool.txt	LTP130	ltpFR	13	7	1	WINNER	1615	n/a	n/a	0	n/a	0	0	0	0.57763671875	0.412841796875	1	lower	zerothre.ttf
1687483	WORD	wordpools/wasnorm_wordpool.txt	LTP130	ltpFR	13	7	1	CROSS	413	n/a	n/a	0	n/a	0	0	0	0.57763671875	0.412841796875	1	lower	zerothre.ttf
1691623	WORD	wordpools/wasnorm_wordpool.txt	LTP130	ltpFR	13	7	1	MOTH	920	n/a	n/a	1	n/a	0	0	0	0.57763671875	0.412841796875	1	lower	zerothre.ttf
1695797	WORD	wordpools/wasnorm_wordpool.txt	LTP130	ltpFR	13	7	1	DOLPHIN	483	n/a	n/a	1	n/a	0	0	0	0.57763671875	0.412841796875	1	lower	zerothre.ttf
1699745	WORD	wordpools/wasnorm_wordpool.txt	LTP130	ltpFR	13	7	1	POPE	1105	n/a	n/a	1	n/a	0	0	0	0.57763671875	0.412841796875	1	lower	zerothre.ttf
1703811	WORD	wordpools/wasnorm_wordpool.txt	LTP130	ltpFR	13	7	1	WALRUS	1585	n/a	n/a	1	n/a	0	0	0	0.57763671875	0.412841796875	1	lower	zerothre.ttf
1707851	WORD	wordpools/wasnorm_wordpool.txt	LTP130	ltpFR	13	7	1	GRASSHOPPER	656	n/a	n/a	1	n/a	0	0	0	0.57763671875	0.412841796875	1	lower	zerothre.ttf
1711766	WORD	wordpools/wasnorm_wordpool.txt	LTP130	ltpFR	13	7	1	GLOBE	641	n/a	n/a	0	n/a	0	0	0	0.57763671875	0.412841796875	1	lower	zerothre.ttf
1714774	START	n/a	LTP130	ltpFR	13	n/a	n/a	n/a	n/a	n/a	n/a	n/a	n/a	n/a	n/a	n/a	n/a	n/a	n/a	n/a	n/a
1715923	PROB	n/a	LTP130	ltpFR	13	n/a	n/a	n/a	n/a	n/a	n/a	n/a	11	5	4	2	n/a	n/a	n/a	n/a	n/a
1717489	PROB	n/a	LTP130	ltpFR	13	n/a	n/a	n/a	n/a	n/a	n/a	n/a	13	3	1	9	n/a	n/a	n/a	n/a	n/a
1718956	PROB	n/a	LTP130	ltpFR	13	n/a	n/a	n/a	n/a	n/a	n/a	n/a	14	5	3	6	n/a	n/a	n/a	n/a	n/a
1720654	PROB	n/a	LTP130	ltpFR	13	n/a	n/a	n/a	n/a	n/a	n/a	n/a	14	5	2	7	n/a	n/a	n/a	n/a	n/a
1722281	STOP	n/a	LTP130	ltpFR	13	n/a	n/a	n/a	n/a	n/a	n/a	n/a	n/a	n/a	n/a	n/a	n/a	n/a	n/a	n/a	n/a
1724687	REC_START	n/a	LTP130	ltpFR	13	7	n/a	n/a	n/a	n/a	n/a	n/a	n/a	0	0	0	n/a	n/a	n/a	n/a	n/a
1727086	REC_WORD	wordpools/wasnorm_wordpool.txt	LTP130	ltpFR	13	7	1	GLOBE	641	n/a	n/a	0	n/a	0	0	0	n/a	n/a	n/a	n/a	n/a
1729306	REC_WORD	wordpools/wasnorm_wordpool.txt	LTP130	ltpFR	13	7	1	MOTH	920	n/a	n/a	1	n/a	0	0	0	n/a	n/a	n/a	n/a	n/a
1730334	REC_WORD	wordpools/wasnorm_wordpool.txt	LTP130	ltpFR	13	7	1	WALRUS	1585	n/a	n/a	1	n/a	0	0	0	n/a	n/a	n/a	n/a	n/a
1733138	REC_WORD	wordpools/wasnorm_wordpool.txt	LTP130	ltpFR	13	7	1	DOLPHIN	483	n/a	n/a	1	n/a	0	0	0	n/a	n/a	n/a	n/a	n/a
1734544	REC_WORD_VV	wordpools/wasnorm_wordpool.txt	LTP130	ltpFR	13	7	n/a	<>	-1	n/a	n/a	n/a	n/a	0	0	0	n/a	n/a	n/a	n/a	n/a
1735442	REC_WORD	wordpools/wasnorm_wordpool.txt	LTP130	ltpFR	13	7	1	CROSS	413	n/a	n/a	0	n/a	0	0	0	n/a	n/a	n/a	n/a	n/a
1738191	REC_WORD	wordpools/wasnorm_wordpool.txt	LTP130	ltpFR	13	7	1	GRASSHOPPER	656	n/a	n/a	1	n/a	0	0	0	n/a	n/a	n/a	n/a	n/a
1751929	REC_WORD	wordpools/wasnorm_wordpool.txt	LTP130	ltpFR	13	7	1	STREET	1393	n/a	n/a	0	n/a	0	0	0	n/a	n/a	n/a	n/a	n/a
1752992	REC_WORD	wordpools/wasnorm_wordpool.txt	LTP130	ltpFR	13	7	1	TAR	1435	n/a	n/a	0	n/a	0	0	0	n/a	n/a	n/a	n/a	n/a
1757652	REC_WORD	wordpools/wasnorm_wordpool.txt	LTP130	ltpFR	13	7	1	DUNGEON	507	n/a	n/a	0	n/a	0	0	0	n/a	n/a	n/a	n/a	n/a
1758570	REC_WORD	wordpools/wasnorm_wordpool.txt	LTP130	ltpFR	13	7	1	DRAGON	492	n/a	n/a	1	n/a	0	0	0	n/a	n/a	n/a	n/a	n/a
1759942	REC_WORD	wordpools/wasnorm_wordpool.txt	LTP130	ltpFR	13	7	1	CHIEF	298	n/a	n/a	1	n/a	0	0	0	n/a	n/a	n/a	n/a	n/a
1761024	REC_WORD	wordpools/wasnorm_wordpool.txt	LTP130	ltpFR	13	7	1	BUFFALO	186	n/a	n/a	1	n/a	0	0	0	n/a	n/a	n/a	n/a	n/a
1825692	WORD	wordpools/wasnorm_wordpool.txt	LTP130	ltpFR	13	8	1	SANDWICH	1232	n/a	n/a	0	n/a	0	0	0	0.57763671875	0.412841796875	1	lower	zerothre.ttf
1829590	WORD	wordpools/wasnorm_wordpool.txt	LTP130	ltpFR	13	8	1	BUTCHER	203	n/a	n/a	0	n/a	0	0	0	0.57763671875	0.412841796875	1	lower	zerothre.ttf
1833714	WORD	wordpools/wasnorm_wordpool.txt	LTP130	ltpFR	13	8	1	CAFE	216	n/a	n/a	0	n/a	0	0	0	0.57763671875	0.412841796875	1	lower	zerothre.ttf
1837805	WORD	wordpools/wasnorm_wordpool.txt	LTP130	ltpFR	13	8	1	ANCHOR	21	n/a	n/a	0	n/a	0	0	0	0.57763671875	0.412841796875	1	lower	zerothre.ttf
1841854	WORD	wordpools/wasnorm_wordpool.txt	LTP130	ltpFR	13	8	1	COUSIN	392	n/a	n/a	1	n/a	0	0	0	0.57763671875	0.412841796875	1	lower	zerothre.ttf
1845827	WORD	wordpools/wasnorm_wordpool.txt	LTP130	ltpFR	13	8	1	AUNT	60	n/a	n/a	1	n/a	0	0	0	0.57763671875	0.412841796875	1	lower	zerothre.ttf
1849784	WORD	wordpools/wasnorm_wordpool.txt	LTP130	ltpFR	13	8	1	CRITIC	410	n/a	n/a	1	n/a	0	0	0	0.57763671875	0.412841796875	1	lower	zerothre.ttf
1853775	WORD	wordpools/wasnorm_wordpool.txt	LTP130	ltpFR	13	8	1	BAKER	71	n/a	n/a	1	n/a	0	0	0	0.57763671875	0.412841796875	1	lower	zerothre.ttf
1857798	WORD	wordpools/wasnorm_wordpool.txt	LTP130	ltpFR	13	8	1	SAND	1230	n/a	n/a	0	n/a	0	0	0	0.57763671875	0.412841796875	1	lower	zerothre.ttf
1861888	WORD	wordpools/wasnorm_wordpool.txt	LTP130	ltpFR	13	8	1	CINNAMON	310	n/a	n/a	0	n/a	0	0	0	0.57763671875	0.412841796875	1	lower	zerothre.ttf
1865887	WORD	wordpools/wasnorm_wordpool.txt	LTP130	ltpFR	13	8	1	GALLON	618	n/a	n/a	0	n/a	0	0	0	0.57763671875	0.412841796875	1	lower	zerothre.ttf
1869885	WORD	wordpools/wasnorm_wordpool.txt	LTP130	ltpFR	13	8	1	CORPORATION	382	n/a	n/a	0	n/a	0	0	0	0.57763671875	0.412841796875	1	lower	zerothre.ttf
1873867	WORD	wordpools/wasnorm_wordpool.txt	LTP130	ltpFR	13	8	1	FILM	565	n/a	n/a	0	n/a	0	0	0	0.57763671875	0.412841796875	1	lower	zerothre.ttf
1877757	WORD	wordpools/wasnorm_wordpool.txt	LTP130	ltpFR	13	8	1	OCEAN	970	n/a	n/a	0	n/a	0	0	0	0.57763671875	0.412841796875	1	lower	zerothre.ttf
1881764	WORD	wordpools/wasnorm_wordpool.txt	LTP130	ltpFR	13	8	1	PUMP	1141	n/a	n/a	0	n/a	0	0	0	0.57763671875	0.412841796875	1	lower	zerothre.ttf
1885754	WORD	wordpools/wasnorm_wordpool.txt	LTP130	ltpFR	13	8	1	HOSE	720	n/a	n/a	0	n/a	0	0	0	0.57763671875	0.412841796875	1	lower	zerothre.ttf
1888761	START	n/a	LTP130	ltpFR	13	n/a	n/a	n/a	n/a	n/a	n/a	n/a	n/a	n/a	n/a	n/a	n/a	n/a	n/a	n/a	n/a
1889711	PROB	n/a	LTP130	ltpFR	13	n/a	n/a	n/a	n/a	n/a	n/a	n/a	14	5	3	6	n/a	n/a	n/a	n/a	n/a
1891727	PROB	n/a	LTP130	ltpFR	13	n/a	n/a	n/a	n/a	n/a	n/a	n/a	7	4	1	2	n/a	n/a	n/a	n/a	n/a
1896761	STOP	n/a	LTP130	ltpFR	13	n/a	n/a	n/a	n/a	n/a	n/a	n/a	n/a	n/a	n/a	n/a	n/a	n/a	n/a	n/a	n/a
1898633	REC_START	n/a	LTP130	ltpFR	13	8	n/a	n/a	n/a	n/a	n/a	n/a	n/a	0	0	0	n/a	n/a	n/a	n/a	n/a
1900838	REC_WORD	wordpools/wasnorm_wordpool.txt	LTP130	ltpFR	13	8	1	PUMP	1141	n/a	n/a	0	n/a	0	0	0	n/a	n/a	n/a	n/a	n/a
1901277	REC_WORD	wordpools/wasnorm_wordpool.txt	LTP130	ltpFR	13	8	1	HOSE	720	n/a	n/a	0	n/a	0	0	0	n/a	n/a	n/a	n/a	n/a
1902080	REC_WORD	wordpools/wasnorm_wordpool.txt	LTP130	ltpFR	13	8	1	CINNAMON	310	n/a	n/a	0	n/a	0	0	0	n/a	n/a	n/a	n/a	n/a
1903162	REC_WORD	wordpools/wasnorm_wordpool.txt	LTP130	ltpFR	13	8	1	SAND	1230	n/a	n/a	0	n/a	0	0	0	n/a	n/a	n/a	n/a	n/a
1905073	REC_WORD	wordpools/wasnorm_wordpool.txt	LTP130	ltpFR	13	8	1	BAKER	71	n/a	n/a	1	n/a	0	0	0	n/a	n/a	n/a	n/a	n/a
1906330	REC_WORD	wordpools/wasnorm_wordpool.txt	LTP130	ltpFR	13	8	1	SANDWICH	1232	n/a	n/a	0	n/a	0	0	0	n/a	n/a	n/a	n/a	n/a
1907580	REC_WORD	wordpools/wasnorm_wordpool.txt	LTP130	ltpFR	13	8	1	BUTCHER	203	n/a	n/a	0	n/a	0	0	0	n/a	n/a	n/a	n/a	n/a
1910501	REC_WORD	wordpools/wasnorm_wordpool.txt	LTP130	ltpFR	13	8	1	CRITIC	410	n/a	n/a	1	n/a	0	0	0	n/a	n/a	n/a	n/a	n/a
1939510	REC_WORD	wordpools/wasnorm_wordpool.txt	LTP130	ltpFR	13	8	1	OCEAN	970	n/a	n/a	0	n/a	0	0	0	n/a	n/a	n/a	n/a	n/a
1941949	REC_WORD	wordpools/wasnorm_wordpool.txt	LTP130	ltpFR	13	8	1	HOSE	720	n/a	n/a	0	n/a	0	0	0	n/a	n/a	n/a	n/a	n/a
1958397	REC_WORD	wordpools/wasnorm_wordpool.txt	LTP130	ltpFR	13	8	1	CORPORATION	382	n/a	n/a	0	n/a	0	0	0	n/a	n/a	n/a	n/a	n/a
1962148	REC_WORD	wordpools/wasnorm_wordpool.txt	LTP130	ltpFR	13	8	1	FILM	565	n/a	n/a	0	n/a	0	0	0	n/a	n/a	n/a	n/a	n/a
2000463	START	n/a	LTP130	ltpFR	13	n/a	n/a	n/a	n/a	n/a	n/a	n/a	n/a	n/a	n/a	n/a	n/a	n/a	n/a	n/a	n/a
2001972	PROB	n/a	LTP130	ltpFR	13	n/a	n/a	n/a	n/a	n/a	n/a	n/a	14	9	3	2	n/a	n/a	n/a	n/a	n/a
2004387	PROB	n/a	LTP130	ltpFR	13	n/a	n/a	n/a	n/a	n/a	n/a	n/a	17	1	7	9	n/a	n/a	n/a	n/a	n/a
2006029	PROB	n/a	LTP130	ltpFR	13	n/a	n/a	n/a	n/a	n/a	n/a	n/a	20	2	9	9	n/a	n/a	n/a	n/a	n/a
2007696	STOP	n/a	LTP130	ltpFR	13	n/a	n/a	n/a	n/a	n/a	n/a	n/a	n/a	n/a	n/a	n/a	n/a	n/a	n/a	n/a	n/a
2009518	WORD	wordpools/wasnorm_wordpool.txt	LTP130	ltpFR	13	9	0	SEASHORE	1263	n/a	n/a	1	n/a	0	0	0	0.422607421875	0.5869140625	0	upper	amplitud.ttf
2012526	START	n/a	LTP130	ltpFR	13	n/a	n/a	n/a	n/a	n/a	n/a	n/a	n/a	n/a	n/a	n/a	n/a	n/a	n/a	n/a	n/a
2013617	PROB	n/a	LTP130	ltpFR	13	n/a	n/a	n/a	n/a	n/a	n/a	n/a	8	1	1	6	n/a	n/a	n/a	n/a	n/a
2014758	PROB	n/a	LTP130	ltpFR	13	n/a	n/a	n/a	n/a	n/a	n/a	n/a	12	1	4	7	n/a	n/a	n/a	n/a	n/a
2016499	PROB	n/a	LTP130	ltpFR	13	n/a	n/a	n/a	n/a	n/a	n/a	n/a	15	2	5	8	n/a	n/a	n/a	n/a	n/a
2020526	STOP	n/a	LTP130	ltpFR	13	n/a	n/a	n/a	n/a	n/a	n/a	n/a	n/a	n/a	n/a	n/a	n/a	n/a	n/a	n/a	n/a
2021597	WORD	wordpools/wasnorm_wordpool.txt	LTP130	ltpFR	13	9	0	HARP	689	n/a	n/a	1	n/a	0	0	0	0.422607421875	0.5869140625	0	upper	amplitud.ttf
2024605	START	n/a	LTP130	ltpFR	13	n/a	n/a	n/a	n/a	n/a	n/a	n/a	n/a	n/a	n/a	n/a	n/a	n/a	n/a	n/a	n/a
2025496	PROB	n/a	LTP130	ltpFR	13	n/a	n/a	n/a	n/a	n/a	n/a	n/a	19	4	6	9	n/a	n/a	n/a	n/a	n/a
2028171	PROB	n/a	LTP130	ltpFR	13	n/a	n/a	n/a	n/a	n/a	n/a	n/a	21	9	8	6	n/a	n/a	n/a	n/a	n/a
2032604	STOP	n/a	LTP130	ltpFR	13	n/a	n/a	n/a	n/a	n/a	n/a	n/a	n/a	n/a	n/a	n/a	n/a	n/a	n/a	n/a	n/a
2033485	WORD	wordpools/wasnorm_wordpool.txt	LTP130	ltpFR	13	9	0	MOUTH	926	n/a	n/a	0	n/a	0	0	0	0.422607421875	0.5869140625	0	upper	amplitud.ttf
2036492	START	n/a	LTP130	ltpFR	13	n/a	n/a	n/a	n/a	n/a	n/a	n/a	n/a	n/a	n/a	n/a	n/a	n/a	n/a	n/a	n/a
2037666	PROB	n/a	LTP130	ltpFR	13	n/a	n/a	n/a	n/a	n/a	n/a	n/a	15	4	2	9	n/a	n/a	n/a	n/a	n/a
2039641	PROB	n/a	LTP130	ltpFR	13	n/a	n/a	n/a	n/a	n/a	n/a	n/a	17	1	7	9	n/a	n/a	n/a	n/a	n/a
2041465	PROB	n/a	LTP130	ltpFR	13	n/a	n/a	n/a	n/a	n/a	n/a	n/a	21	9	9	3	n/a	n/a	n/a	n/a	n/a
2042807	PROB	n/a	LTP130	ltpFR	13	n/a	n/a	n/a	n/a	n/a	n/a	n/a	14	8	4	2	n/a	n/a	n/a	n/a	n/a
2044281	STOP	n/a	LTP130	ltpFR	13	n/a	n/a	n/a	n/a	n/a	n/a	n/a	n/a	n/a	n/a	n/a	n/a	n/a	n/a	n/a	n/a
2045664	WORD	wordpools/wasnorm_wordpool.txt	LTP130	ltpFR	13	9	0	TAPE	1433	n/a	n/a	0	n/a	0	0	0	0.422607421875	0.5869140625	0	upper	amplitud.ttf
2048671	START	n/a	LTP130	ltpFR	13	n/a	n/a	n/a	n/a	n/a	n/a	n/a	n/a	n/a	n/a	n/a	n/a	n/a	n/a	n/a	n/a
2049504	PROB	n/a	LTP130	ltpFR	13	n/a	n/a	n/a	n/a	n/a	n/a	n/a	20	4	7	9	n/a	n/a	n/a	n/a	n/a
2052154	PROB	n/a	LTP130	ltpFR	13	n/a	n/a	n/a	n/a	n/a	n/a	n/a	4	1	1	2	n/a	n/a	n/a	n/a	n/a
2053312	PROB	n/a	LTP130	ltpFR	13	n/a	n/a	n/a	n/a	n/a	n/a	n/a	13	1	6	6	n/a	n/a	n/a	n/a	n/a
2054945	PROB	n/a	LTP130	ltpFR	13	n/a	n/a	n/a	n/a	n/a	n/a	n/a	11	8	1	2	n/a	n/a	n/a	n/a	n/a
2056025	STOP	n/a	LTP130	ltpFR	13	n/a	n/a	n/a	n/a	n/a	n/a	n/a	n/a	n/a	n/a	n/a	n/a	n/a	n/a	n/a	n/a
2057777	WORD	wordpools/wasnorm_wordpool.txt	LTP130	ltpFR	13	9	0	LAGOON	795	n/a	n/a	1	n/a	0	0	0	0.422607421875	0.5869140625	0	upper	amplitud.ttf
2060785	START	n/a	LTP130	ltpFR	13	n/a	n/a	n/a	n/a	n/a	n/a	n/a	n/a	n/a	n/a	n/a	n/a	n/a	n/a	n/a	n/a
2061917	PROB	n/a	LTP130	ltpFR	13	n/a	n/a	n/a	n/a	n/a	n/a	n/a	20	4	7	9	n/a	n/a	n/a	n/a	n/a
2063958	PROB	n/a	LTP130	ltpFR	13	n/a	n/a	n/a	n/a	n/a	n/a	n/a	10	2	7	1	n/a	n/a	n/a	n/a	n/a
2065598	PROB	n/a	LTP130	ltpFR	13	n/a	n/a	n/a	n/a	n/a	n/a	n/a	11	1	7	3	n/a	n/a	n/a	n/a	n/a
2068785	STOP	n/a	LTP130	ltpFR	13	n/a	n/a	n/a	n/a	n/a	n/a	n/a	n/a	n/a	n/a	n/a	n/a	n/a	n/a	n/a	n/a
2069923	WORD	wordpools/wasnorm_wordpool.txt	LTP130	ltpFR	13	9	0	SALIVA	1226	n/a	n/a	0	n/a	0	0	0	0.422607421875	0.5869140625	0	upper	amplitud.ttf
2072931	START	n/a	LTP130	ltpFR	13	n/a	n/a	n/a	n/a	n/a	n/a	n/a	n/a	n/a	n/a	n/a	n/a	n/a	n/a	n/a	n/a
2073762	PROB	n/a	LTP130	ltpFR	13	n/a	n/a	n/a	n/a	n/a	n/a	n/a	17	6	5	6	n/a	n/a	n/a	n/a	n/a
2076287	PROB	n/a	LTP130	ltpFR	13	n/a	n/a	n/a	n/a	n/a	n/a	n/a	12	6	2	4	n/a	n/a	n/a	n/a	n/a
2078303	PROB	n/a	LTP130	ltpFR	13	n/a	n/a	n/a	n/a	n/a	n/a	n/a	13	2	6	5	n/a	n/a	n/a	n/a	n/a
2079905	STOP	n/a	LTP130	ltpFR	13	n/a	n/a	n/a	n/a	n/a	n/a	n/a	n/a	n/a	n/a	n/a	n/a	n/a	n/a	n/a	n/a
2081860	WORD	wordpools/wasnorm_wordpool.txt	LTP130	ltpFR	13	9	0	CLOTHES	327	n/a	n/a	1	n/a	0	0	0	0.422607421875	0.5869140625	0	upper	amplitud.ttf
2084868	START	n/a	LTP130	ltpFR	13	n/a	n/a	n/a	n/a	n/a	n/a	n/a	n/a	n/a	n/a	n/a	n/a	n/a	n/a	n/a	n/a
2085716	PROB	n/a	LTP130	ltpFR	13	n/a	n/a	n/a	n/a	n/a	n/a	n/a	18	9	6	3	n/a	n/a	n/a	n/a	n/a
2087258	PROB	n/a	LTP130	ltpFR	13	n/a	n/a	n/a	n/a	n/a	n/a	n/a	10	2	6	2	n/a	n/a	n/a	n/a	n/a
2092868	STOP	n/a	LTP130	ltpFR	13	n/a	n/a	n/a	n/a	n/a	n/a	n/a	n/a	n/a	n/a	n/a	n/a	n/a	n/a	n/a	n/a
2093688	WORD	wordpools/wasnorm_wordpool.txt	LTP130	ltpFR	13	9	0	DETERGENT	455	n/a	n/a	0	n/a	0	0	0	0.422607421875	0.5869140625	0	upper	amplitud.ttf
2096696	START	n/a	LTP130	ltpFR	13	n/a	n/a	n/a	n/a	n/a	n/a	n/a	n/a	n/a	n/a	n/a	n/a	n/a	n/a	n/a	n/a
2097821	PROB	n/a	LTP130	ltpFR	13	n/a	n/a	n/a	n/a	n/a	n/a	n/a	18	6	4	8	n/a	n/a	n/a	n/a	n/a
2099470	PROB	n/a	LTP130	ltpFR	13	n/a	n/a	n/a	n/a	n/a	n/a	n/a	23	5	9	9	n/a	n/a	n/a	n/a	n/a
2101569	PROB	n/a	LTP130	ltpFR	13	n/a	n/a	n/a	n/a	n/a	n/a	n/a	18	9	3	6	n/a	n/a	n/a	n/a	n/a
2103337	STOP	n/a	LTP130	ltpFR	13	n/a	n/a	n/a	n/a	n/a	n/a	n/a	n/a	n/a	n/a	n/a	n/a	n/a	n/a	n/a	n/a
2105860	WORD	wordpools/wasnorm_wordpool.txt	LTP130	ltpFR	13	9	0	RACCOON	1153	n/a	n/a	1	n/a	0	0	0	0.422607421875	0.5869140625	0	upper	amplitud.ttf
2108868	START	n/a	LTP130	ltpFR	13	n/a	n/a	n/a	n/a	n/a	n/a	n/a	n/a	n/a	n/a	n/a	n/a	n/a	n/a	n/a	n/a
2109741	PROB	n/a	LTP130	ltpFR	13	n/a	n/a	n/a	n/a	n/a	n/a	n/a	11	7	3	1	n/a	n/a	n/a	n/a	n/a
2110841	PROB	n/a	LTP130	ltpFR	13	n/a	n/a	n/a	n/a	n/a	n/a	n/a	8	2	3	3	n/a	n/a	n/a	n/a	n/a
2112191	PROB	n/a	LTP130	ltpFR	13	n/a	n/a	n/a	n/a	n/a	n/a	n/a	8	3	1	4	n/a	n/a	n/a	n/a	n/a
2113799	PROB	n/a	LTP130	ltpFR	13	n/a	n/a	n/a	n/a	n/a	n/a	n/a	8	3	4	1	n/a	n/a	n/a	n/a	n/a
2114798	PROB	n/a	LTP130	ltpFR	13	n/a	n/a	n/a	n/a	n/a	n/a	n/a	14	4	5	5	n/a	n/a	n/a	n/a	n/a
2116560	STOP	n/a	LTP130	ltpFR	13	n/a	n/a	n/a	n/a	n/a	n/a	n/a	n/a	n/a	n/a	n/a	n/a	n/a	n/a	n/a	n/a
2118072	WORD	wordpools/wasnorm_wordpool.txt	LTP130	ltpFR	13	9	0	WILDERNESS	1610	n/a	n/a	1	n/a	0	0	0	0.422607421875	0.5869140625	0	upper	amplitud.ttf
2121080	START	n/a	LTP130	ltpFR	13	n/a	n/a	n/a	n/a	n/a	n/a	n/a	n/a	n/a	n/a	n/a	n/a	n/a	n/a	n/a	n/a
2122212	PROB	n/a	LTP130	ltpFR	13	n/a	n/a	n/a	n/a	n/a	n/a	n/a	13	4	1	8	n/a	n/a	n/a	n/a	n/a
2124694	PROB	n/a	LTP130	ltpFR	13	n/a	n/a	n/a	n/a	n/a	n/a	n/a	17	7	2	8	n/a	n/a	n/a	n/a	n/a
2129080	STOP	n/a	LTP130	ltpFR	13	n/a	n/a	n/a	n/a	n/a	n/a	n/a	n/a	n/a	n/a	n/a	n/a	n/a	n/a	n/a	n/a
2129901	WORD	wordpools/wasnorm_wordpool.txt	LTP130	ltpFR	13	9	0	SCREEN	1253	n/a	n/a	1	n/a	0	0	0	0.422607421875	0.5869140625	0	upper	amplitud.ttf
2132909	START	n/a	LTP130	ltpFR	13	n/a	n/a	n/a	n/a	n/a	n/a	n/a	n/a	n/a	n/a	n/a	n/a	n/a	n/a	n/a	n/a
2134050	PROB	n/a	LTP130	ltpFR	13	n/a	n/a	n/a	n/a	n/a	n/a	n/a	15	5	6	4	n/a	n/a	n/a	n/a	n/a
2135473	PROB	n/a	LTP130	ltpFR	13	n/a	n/a	n/a	n/a	n/a	n/a	n/a	13	4	1	8	n/a	n/a	n/a	n/a	n/a
2137099	PROB	n/a	LTP130	ltpFR	13	n/a	n/a	n/a	n/a	n/a	n/a	n/a	4	2	1	1	n/a	n/a	n/a	n/a	n/a
2138140	PROB	n/a	LTP130	ltpFR	13	n/a	n/a	n/a	n/a	n/a	n/a	n/a	13	2	6	5	n/a	n/a	n/a	n/a	n/a
2139849	STOP	n/a	LTP130	ltpFR	13	n/a	n/a	n/a	n/a	n/a	n/a	n/a	n/a	n/a	n/a	n/a	n/a	n/a	n/a	n/a	n/a
2141806	WORD	wordpools/wasnorm_wordpool.txt	LTP130	ltpFR	13	9	0	MILDEW	893	n/a	n/a	0	n/a	0	0	0	0.422607421875	0.5869140625	0	upper	amplitud.ttf
2144813	START	n/a	LTP130	ltpFR	13	n/a	n/a	n/a	n/a	n/a	n/a	n/a	n/a	n/a	n/a	n/a	n/a	n/a	n/a	n/a	n/a
2145971	PROB	n/a	LTP130	ltpFR	13	n/a	n/a	n/a	n/a	n/a	n/a	n/a	17	5	9	3	n/a	n/a	n/a	n/a	n/a
2149894	PROB	n/a	LTP130	ltpFR	13	n/a	n/a	n/a	n/a	n/a	n/a	n/a	20	9	3	8	n/a	n/a	n/a	n/a	n/a
2151945	STOP	n/a	LTP130	ltpFR	13	n/a	n/a	n/a	n/a	n/a	n/a	n/a	n/a	n/a	n/a	n/a	n/a	n/a	n/a	n/a	n/a
2153943	WORD	wordpools/wasnorm_wordpool.txt	LTP130	ltpFR	13	9	0	BANQUET	86	n/a	n/a	1	n/a	0	0	0	0.422607421875	0.5869140625	0	upper	amplitud.ttf
2156950	START	n/a	LTP130	ltpFR	13	n/a	n/a	n/a	n/a	n/a	n/a	n/a	n/a	n/a	n/a	n/a	n/a	n/a	n/a	n/a	n/a
2158016	PROB	n/a	LTP130	ltpFR	13	n/a	n/a	n/a	n/a	n/a	n/a	n/a	19	6	6	7	n/a	n/a	n/a	n/a	n/a
2159791	PROB	n/a	LTP130	ltpFR	13	n/a	n/a	n/a	n/a	n/a	n/a	n/a	19	6	8	5	n/a	n/a	n/a	n/a	n/a
2161581	PROB	n/a	LTP130	ltpFR	13	n/a	n/a	n/a	n/a	n/a	n/a	n/a	18	9	6	3	n/a	n/a	n/a	n/a	n/a
2163223	PROB	n/a	LTP130	ltpFR	13	n/a	n/a	n/a	n/a	n/a	n/a	n/a	15	3	5	7	n/a	n/a	n/a	n/a	n/a
2164608	STOP	n/a	LTP130	ltpFR	13	n/a	n/a	n/a	n/a	n/a	n/a	n/a	n/a	n/a	n/a	n/a	n/a	n/a	n/a	n/a	n/a
2166022	WORD	wordpools/wasnorm_wordpool.txt	LTP130	ltpFR	13	9	0	STUDENT	1395	n/a	n/a	1	n/a	0	0	0	0.422607421875	0.5869140625	0	upper	amplitud.ttf
2169030	START	n/a	LTP130	ltpFR	13	n/a	n/a	n/a	n/a	n/a	n/a	n/a	n/a	n/a	n/a	n/a	n/a	n/a	n/a	n/a	n/a
2169929	PROB	n/a	LTP130	ltpFR	13	n/a	n/a	n/a	n/a	n/a	n/a	n/a	19	8	9	2	n/a	n/a	n/a	n/a	n/a
2171502	PROB	n/a	LTP130	ltpFR	13	n/a	n/a	n/a	n/a	n/a	n/a	n/a	20	9	5	6	n/a	n/a	n/a	n/a	n/a
2175294	PROB	n/a	LTP130	ltpFR	13	n/a	n/a	n/a	n/a	n/a	n/a	n/a	13	3	9	1	n/a	n/a	n/a	n/a	n/a
2176592	STOP	n/a	LTP130	ltpFR	13	n/a	n/a	n/a	n/a	n/a	n/a	n/a	n/a	n/a	n/a	n/a	n/a	n/a	n/a	n/a	n/a
2178101	WORD	wordpools/wasnorm_wordpool.txt	LTP130	ltpFR	13	9	0	PUPIL	1143	n/a	n/a	1	n/a	0	0	0	0.422607421875	0.5869140625	0	upper	amplitud.ttf
2181109	START	n/a	LTP130	ltpFR	13	n/a	n/a	n/a	n/a	n/a	n/a	n/a	n/a	n/a	n/a	n/a	n/a	n/a	n/a	n/a	n/a
2182291	PROB	n/a	LTP130	ltpFR	13	n/a	n/a	n/a	n/a	n/a	n/a	n/a	20	7	9	4	n/a	n/a	n/a	n/a	n/a
2184115	PROB	n/a	LTP130	ltpFR	13	n/a	n/a	n/a	n/a	n/a	n/a	n/a	13	9	3	1	n/a	n/a	n/a	n/a	n/a
2185273	PROB	n/a	LTP130	ltpFR	13	n/a	n/a	n/a	n/a	n/a	n/a	n/a	11	1	7	3	n/a	n/a	n/a	n/a	n/a
2186639	PROB	n/a	LTP130	ltpFR	13	n/a	n/a	n/a	n/a	n/a	n/a	n/a	14	3	3	8	n/a	n/a	n/a	n/a	n/a
2188985	STOP	n/a	LTP130	ltpFR	13	n/a	n/a	n/a	n/a	n/a	n/a	n/a	n/a	n/a	n/a	n/a	n/a	n/a	n/a	n/a	n/a
2189938	WORD	wordpools/wasnorm_wordpool.txt	LTP130	ltpFR	13	9	0	SILVERWARE	1308	n/a	n/a	0	n/a	0	0	0	0.422607421875	0.5869140625	0	upper	amplitud.ttf
2192946	START	n/a	LTP130	ltpFR	13	n/a	n/a	n/a	n/a	n/a	n/a	n/a	n/a	n/a	n/a	n/a	n/a	n/a	n/a	n/a	n/a
2194137	PROB	n/a	LTP130	ltpFR	13	n/a	n/a	n/a	n/a	n/a	n/a	n/a	7	2	1	4	n/a	n/a	n/a	n/a	n/a
2197936	PROB	n/a	LTP130	ltpFR	13	n/a	n/a	n/a	n/a	n/a	n/a	n/a	15	2	4	9	n/a	n/a	n/a	n/a	n/a
2199528	STOP	n/a	LTP130	ltpFR	13	n/a	n/a	n/a	n/a	n/a	n/a	n/a	n/a	n/a	n/a	n/a	n/a	n/a	n/a	n/a	n/a
2202826	REC_START	n/a	LTP130	ltpFR	13	9	n/a	n/a	n/a	n/a	n/a	n/a	n/a	0	0	0	n/a	n/a	n/a	n/a	n/a
2204422	REC_WORD	wordpools/wasnorm_wordpool.txt	LTP130	ltpFR	13	9	0	SILVERWARE	1308	n/a	n/a	0	n/a	0	0	0	n/a	n/a	n/a	n/a	n/a
2209665	REC_WORD	wordpools/wasnorm_wordpool.txt	LTP130	ltpFR	13	9	n/a	SHORELINE	-1	n/a	n/a	n/a	n/a	0	0	0	n/a	n/a	n/a	n/a	n/a
2210665	REC_WORD_VV	wordpools/wasnorm_wordpool.txt	LTP130	ltpFR	13	9	n/a	<>	-1	n/a	n/a	n/a	n/a	0	0	0	n/a	n/a	n/a	n/a	n/a
2222282	REC_WORD	wordpools/wasnorm_wordpool.txt	LTP130	ltpFR	13	9	0	CLOTHES	327	n/a	n/a	1	n/a	0	0	0	n/a	n/a	n/a	n/a	n/a
2245504	REC_WORD	wordpools/wasnorm_wordpool.txt	LTP130	ltpFR	13	9	0	RACCOON	1153	n/a	n/a	1	n/a	0	0	0	n/a	n/a	n/a	n/a	n/a
2273590	REC_WORD	wordpools/wasnorm_wordpool.txt	LTP130	ltpFR	13	9	0	MOUTH	926	n/a	n/a	0	n/a	0	0	0	n/a	n/a	n/a	n/a	n/a
2338427	START	n/a	LTP130	ltpFR	13	n/a	n/a	n/a	n/a	n/a	n/a	n/a	n/a	n/a	n/a	n/a	n/a	n/a	n/a	n/a	n/a
2339927	PROB	n/a	LTP130	ltpFR	13	n/a	n/a	n/a	n/a	n/a	n/a	n/a	11	1	8	2	n/a	n/a	n/a	n/a	n/a
2341018	PROB	n/a	LTP130	ltpFR	13	n/a	n/a	n/a	n/a	n/a	n/a	n/a	16	2	5	9	n/a	n/a	n/a	n/a	n/a
2343424	PROB	n/a	LTP130	ltpFR	13	n/a	n/a	n/a	n/a	n/a	n/a	n/a	17	5	8	4	n/a	n/a	n/a	n/a	n/a
2345183	PROB	n/a	LTP130	ltpFR	13	n/a	n/a	n/a	n/a	n/a	n/a	n/a	18	5	6	7	n/a	n/a	n/a	n/a	n/a
2347241	PROB	n/a	LTP130	ltpFR	13	n/a	n/a	n/a	n/a	n/a	n/a	n/a	21	7	5	9	n/a	n/a	n/a	n/a	n/a
2348799	PROB	n/a	LTP130	ltpFR	13	n/a	n/a	n/a	n/a	n/a	n/a	n/a	15	6	3	6	n/a	n/a	n/a	n/a	n/a
2350290	PROB	n/a	LTP130	ltpFR	13	n/a	n/a	n/a	n/a	n/a	n/a	n/a	13	6	4	3	n/a	n/a	n/a	n/a	n/a
2351572	PROB	n/a	LTP130	ltpFR	13	n/a	n/a	n/a	n/a	n/a	n/a	n/a	6	2	2	2	n/a	n/a	n/a	n/a	n/a
2354426	STOP	n/a	LTP130	ltpFR	13	n/a	n/a	n/a	n/a	n/a	n/a	n/a	n/a	n/a	n/a	n/a	n/a	n/a	n/a	n/a	n/a
2355545	WORD	wordpools/wasnorm_wordpool.txt	LTP130	ltpFR	13	10	0	FISH	571	n/a	n/a	0	n/a	0	0	0	0.422607421875	0.5869140625	0	upper	amplitud.ttf
2358553	START	n/a	LTP130	ltpFR	13	n/a	n/a	n/a	n/a	n/a	n/a	n/a	n/a	n/a	n/a	n/a	n/a	n/a	n/a	n/a	n/a
2359694	PROB	n/a	LTP130	ltpFR	13	n/a	n/a	n/a	n/a	n/a	n/a	n/a	14	1	7	6	n/a	n/a	n/a	n/a	n/a
2361311	PROB	n/a	LTP130	ltpFR	13	n/a	n/a	n/a	n/a	n/a	n/a	n/a	14	7	6	1	n/a	n/a	n/a	n/a	n/a
2363160	PROB	n/a	LTP130	ltpFR	13	n/a	n/a	n/a	n/a	n/a	n/a	n/a	16	4	9	3	n/a	n/a	n/a	n/a	n/a
2366675	PROB	n/a	LTP130	ltpFR	13	n/a	n/a	n/a	n/a	n/a	n/a	n/a	9	4	4	1	n/a	n/a	n/a	n/a	n/a
2368025	PROB	n/a	LTP130	ltpFR	13	n/a	n/a	n/a	n/a	n/a	n/a	n/a	11	2	7	2	n/a	n/a	n/a	n/a	n/a
2369640	PROB	n/a	LTP130	ltpFR	13	n/a	n/a	n/a	n/a	n/a	n/a	n/a	13	2	2	9	n/a	n/a	n/a	n/a	n/a
2371431	PROB	n/a	LTP130	ltpFR	13	n/a	n/a	n/a	n/a	n/a	n/a	n/a	13	2	9	2	n/a	n/a	n/a	n/a	n/a
2372498	PROB	n/a	LTP130	ltpFR	13	n/a	n/a	n/a	n/a	n/a	n/a	n/a	20	5	7	8	n/a	n/a	n/a	n/a	n/a
2374169	STOP	n/a	LTP130	ltpFR	13	n/a	n/a	n/a	n/a	n/a	n/a	n/a	n/a	n/a	n/a	n/a	n/a	n/a	n/a	n/a	n/a
2375680	WORD	wordpools/wasnorm_wordpool.txt	LTP130	ltpFR	13	10	0	MILITARY	894	n/a	n/a	1	n/a	0	0	0	0.422607421875	0.5869140625	0	upper	amplitud.ttf
2378687	START	n/a	LTP130	ltpFR	13	n/a	n/a	n/a	n/a	n/a	n/a	n/a	n/a	n/a	n/a	n/a	n/a	n/a	n/a	n/a	n/a
2379545	PROB	n/a	LTP130	ltpFR	13	n/a	n/a	n/a	n/a	n/a	n/a	n/a	13	1	4	8	n/a	n/a	n/a	n/a	n/a
2380937	PROB	n/a	LTP130	ltpFR	13	n/a	n/a	n/a	n/a	n/a	n/a	n/a	21	9	9	3	n/a	n/a	n/a	n/a	n/a
2382928	PROB	n/a	LTP130	ltpFR	13	n/a	n/a	n/a	n/a	n/a	n/a	n/a	17	7	5	5	n/a	n/a	n/a	n/a	n/a
2384610	PROB	n/a	LTP130	ltpFR	13	n/a	n/a	n/a	n/a	n/a	n/a	n/a	18	8	3	7	n/a	n/a	n/a	n/a	n/a
2386501	PROB	n/a	LTP130	ltpFR	13	n/a	n/a	n/a	n/a	n/a	n/a	n/a	14	9	4	1	n/a	n/a	n/a	n/a	n/a
2388010	PROB	n/a	LTP130	ltpFR	13	n/a	n/a	n/a	n/a	n/a	n/a	n/a	17	6	9	2	n/a	n/a	n/a	n/a	n/a
2390326	PROB	n/a	LTP130	ltpFR	13	n/a	n/a	n/a	n/a	n/a	n/a	n/a	19	5	7	7	n/a	n/a	n/a	n/a	n/a
2393464	STOP	n/a	LTP130	ltpFR	13	n/a	n/a	n/a	n/a	n/a	n/a	n/a	n/a	n/a	n/a	n/a	n/a	n/a	n/a	n/a	n/a
2395748	WORD	wordpools/wasnorm_wordpool.txt	LTP130	ltpFR	13	10	0	MAJOR	859	n/a	n/a	1	n/a	0	0	0	0.422607421875	0.5869140625	0	upper	amplitud.ttf
2398755	START	n/a	LTP130	ltpFR	13	n/a	n/a	n/a	n/a	n/a	n/a	n/a	n/a	n/a	n/a	n/a	n/a	n/a	n/a	n/a	n/a
2399889	PROB	n/a	LTP130	ltpFR	13	n/a	n/a	n/a	n/a	n/a	n/a	n/a	14	7	5	2	n/a	n/a	n/a	n/a	n/a
2401496	PROB	n/a	LTP130	ltpFR	13	n/a	n/a	n/a	n/a	n/a	n/a	n/a	16	7	4	5	n/a	n/a	n/a	n/a	n/a
2403636	PROB	n/a	LTP130	ltpFR	13	n/a	n/a	n/a	n/a	n/a	n/a	n/a	22	8	5	9	n/a	n/a	n/a	n/a	n/a
2405577	PROB	n/a	LTP130	ltpFR	13	n/a	n/a	n/a	n/a	n/a	n/a	n/a	10	2	3	5	n/a	n/a	n/a	n/a	n/a
2407452	PROB	n/a	LTP130	ltpFR	13	n/a	n/a	n/a	n/a	n/a	n/a	n/a	19	6	6	7	n/a	n/a	n/a	n/a	n/a
2410168	PROB	n/a	LTP130	ltpFR	13	n/a	n/a	n/a	n/a	n/a	n/a	n/a	14	7	3	4	n/a	n/a	n/a	n/a	n/a
2412284	PROB	n/a	LTP130	ltpFR	13	n/a	n/a	n/a	n/a	n/a	n/a	n/a	10	2	2	6	n/a	n/a	n/a	n/a	n/a
2414313	STOP	n/a	LTP130	ltpFR	13	n/a	n/a	n/a	n/a	n/a	n/a	n/a	n/a	n/a	n/a	n/a	n/a	n/a	n/a	n/a	n/a
2415599	WORD	wordpools/wasnorm_wordpool.txt	LTP130	ltpFR	13	10	0	AIRPLANE	12	n/a	n/a	1	n/a	0	0	0	0.422607421875	0.5869140625	0	upper	amplitud.ttf
2418607	START	n/a	LTP130	ltpFR	13	n/a	n/a	n/a	n/a	n/a	n/a	n/a	n/a	n/a	n/a	n/a	n/a	n/a	n/a	n/a	n/a
2419622	PROB	n/a	LTP130	ltpFR	13	n/a	n/a	n/a	n/a	n/a	n/a	n/a	17	3	5	9	n/a	n/a	n/a	n/a	n/a
2423729	PROB	n/a	LTP130	ltpFR	13	n/a	n/a	n/a	n/a	n/a	n/a	n/a	18	5	8	5	n/a	n/a	n/a	n/a	n/a
2425138	PROB	n/a	LTP130	ltpFR	13	n/a	n/a	n/a	n/a	n/a	n/a	n/a	20	4	9	7	n/a	n/a	n/a	n/a	n/a
2426896	PROB	n/a	LTP130	ltpFR	13	n/a	n/a	n/a	n/a	n/a	n/a	n/a	21	7	8	6	n/a	n/a	n/a	n/a	n/a
2428262	PROB	n/a	LTP130	ltpFR	13	n/a	n/a	n/a	n/a	n/a	n/a	n/a	14	9	1	4	n/a	n/a	n/a	n/a	n/a
2429619	PROB	n/a	LTP130	ltpFR	13	n/a	n/a	n/a	n/a	n/a	n/a	n/a	9	3	1	5	n/a	n/a	n/a	n/a	n/a
2431069	PROB	n/a	LTP130	ltpFR	13	n/a	n/a	n/a	n/a	n/a	n/a	n/a	20	6	5	9	n/a	n/a	n/a	n/a	n/a
2432684	PROB	n/a	LTP130	ltpFR	13	n/a	n/a	n/a	n/a	n/a	n/a	n/a	15	1	9	5	n/a	n/a	n/a	n/a	n/a
2433921	STOP	n/a	LTP130	ltpFR	13	n/a	n/a	n/a	n/a	n/a	n/a	n/a	n/a	n/a	n/a	n/a	n/a	n/a	n/a	n/a	n/a
2435425	WORD	wordpools/wasnorm_wordpool.txt	LTP130	ltpFR	13	10	0	COOK	372	n/a	n/a	1	n/a	0	0	0	0.422607421875	0.5869140625	0	upper	amplitud.ttf
2438433	START	n/a	LTP130	ltpFR	13	n/a	n/a	n/a	n/a	n/a	n/a	n/a	n/a	n/a	n/a	n/a	n/a	n/a	n/a	n/a	n/a
2439440	PROB	n/a	LTP130	ltpFR	13	n/a	n/a	n/a	n/a	n/a	n/a	n/a	9	1	3	5	n/a	n/a	n/a	n/a	n/a
2440974	PROB	n/a	LTP130	ltpFR	13	n/a	n/a	n/a	n/a	n/a	n/a	n/a	19	8	4	7	n/a	n/a	n/a	n/a	n/a
2442489	PROB	n/a	LTP130	ltpFR	13	n/a	n/a	n/a	n/a	n/a	n/a	n/a	10	3	4	3	n/a	n/a	n/a	n/a	n/a
2444630	PROB	n/a	LTP130	ltpFR	13	n/a	n/a	n/a	n/a	n/a	n/a	n/a	15	4	8	3	n/a	n/a	n/a	n/a	n/a
2446679	PROB	n/a	LTP130	ltpFR	13	n/a	n/a	n/a	n/a	n/a	n/a	n/a	11	8	1	2	n/a	n/a	n/a	n/a	n/a
2447938	PROB	n/a	LTP130	ltpFR	13	n/a	n/a	n/a	n/a	n/a	n/a	n/a	18	9	3	6	n/a	n/a	n/a	n/a	n/a
2449362	PROB	n/a	LTP130	ltpFR	13	n/a	n/a	n/a	n/a	n/a	n/a	n/a	13	7	1	5	n/a	n/a	n/a	n/a	n/a
2450653	PROB	n/a	LTP130	ltpFR	13	n/a	n/a	n/a	n/a	n/a	n/a	n/a	19	9	2	8	n/a	n/a	n/a	n/a	n/a
2454433	STOP	n/a	LTP130	ltpFR	13	n/a	n/a	n/a	n/a	n/a	n/a	n/a	n/a	n/a	n/a	n/a	n/a	n/a	n/a	n/a	n/a
2455493	WORD	wordpools/wasnorm_wordpool.txt	LTP130	ltpFR	13	10	1	GROUND	666	n/a	n/a	1	n/a	0	0	0	0.57763671875	0.412841796875	1	lower	zerothre.ttf
2458501	START	n/a	LTP130	ltpFR	13	n/a	n/a	n/a	n/a	n/a	n/a	n/a	n/a	n/a	n/a	n/a	n/a	n/a	n/a	n/a	n/a
2459683	PROB	n/a	LTP130	ltpFR	13	n/a	n/a	n/a	n/a	n/a	n/a	n/a	9	2	1	6	n/a	n/a	n/a	n/a	n/a
2460984	PROB	n/a	LTP130	ltpFR	13	n/a	n/a	n/a	n/a	n/a	n/a	n/a	10	4	1	5	n/a	n/a	n/a	n/a	n/a
2462866	PROB	n/a	LTP130	ltpFR	13	n/a	n/a	n/a	n/a	n/a	n/a	n/a	16	1	7	8	n/a	n/a	n/a	n/a	n/a
2464681	PROB	n/a	LTP130	ltpFR	13	n/a	n/a	n/a	n/a	n/a	n/a	n/a	15	1	6	7	n/a	n/a	n/a	n/a	n/a
2465790	PROB	n/a	LTP130	ltpFR	13	n/a	n/a	n/a	n/a	n/a	n/a	n/a	15	7	4	4	n/a	n/a	n/a	n/a	n/a
2470438	PROB	n/a	LTP130	ltpFR	13	n/a	n/a	n/a	n/a	n/a	n/a	n/a	18	1	8	9	n/a	n/a	n/a	n/a	n/a
2472071	PROB	n/a	LTP130	ltpFR	13	n/a	n/a	n/a	n/a	n/a	n/a	n/a	15	5	2	8	n/a	n/a	n/a	n/a	n/a
2473728	STOP	n/a	LTP130	ltpFR	13	n/a	n/a	n/a	n/a	n/a	n/a	n/a	n/a	n/a	n/a	n/a	n/a	n/a	n/a	n/a	n/a
2475502	WORD	wordpools/wasnorm_wordpool.txt	LTP130	ltpFR	13	10	1	CANAL	226	n/a	n/a	1	n/a	0	0	0	0.57763671875	0.412841796875	1	lower	zerothre.ttf
2478510	START	n/a	LTP130	ltpFR	13	n/a	n/a	n/a	n/a	n/a	n/a	n/a	n/a	n/a	n/a	n/a	n/a	n/a	n/a	n/a	n/a
2479668	PROB	n/a	LTP130	ltpFR	13	n/a	n/a	n/a	n/a	n/a	n/a	n/a	13	2	4	7	n/a	n/a	n/a	n/a	n/a
2481625	PROB	n/a	LTP130	ltpFR	13	n/a	n/a	n/a	n/a	n/a	n/a	n/a	15	1	7	7	n/a	n/a	n/a	n/a	n/a
2482725	PROB	n/a	LTP130	ltpFR	13	n/a	n/a	n/a	n/a	n/a	n/a	n/a	7	1	4	2	n/a	n/a	n/a	n/a	n/a
2484699	PROB	n/a	LTP130	ltpFR	13	n/a	n/a	n/a	n/a	n/a	n/a	n/a	18	7	2	9	n/a	n/a	n/a	n/a	n/a
2486200	PROB	n/a	LTP130	ltpFR	13	n/a	n/a	n/a	n/a	n/a	n/a	n/a	12	3	8	1	n/a	n/a	n/a	n/a	n/a
2489681	PROB	n/a	LTP130	ltpFR	13	n/a	n/a	n/a	n/a	n/a	n/a	n/a	11	1	8	2	n/a	n/a	n/a	n/a	n/a
2494510	STOP	n/a	LTP130	ltpFR	13	n/a	n/a	n/a	n/a	n/a	n/a	n/a	n/a	n/a	n/a	n/a	n/a	n/a	n/a	n/a	n/a
2495520	WORD	wordpools/wasnorm_wordpool.txt	LTP130	ltpFR	13	10	1	TURNIP	1521	n/a	n/a	0	n/a	0	0	0	0.57763671875	0.412841796875	1	lower	zerothre.ttf
2498528	START	n/a	LTP130	ltpFR	13	n/a	n/a	n/a	n/a	n/a	n/a	n/a	n/a	n/a	n/a	n/a	n/a	n/a	n/a	n/a	n/a
2499386	PROB	n/a	LTP130	ltpFR	13	n/a	n/a	n/a	n/a	n/a	n/a	n/a	20	8	9	3	n/a	n/a	n/a	n/a	n/a
2502385	PROB	n/a	LTP130	ltpFR	13	n/a	n/a	n/a	n/a	n/a	n/a	n/a	22	9	5	8	n/a	n/a	n/a	n/a	n/a
2508150	PROB	n/a	LTP130	ltpFR	13	n/a	n/a	n/a	n/a	n/a	n/a	n/a	16	2	5	9	n/a	n/a	n/a	n/a	n/a
2510116	PROB	n/a	LTP130	ltpFR	13	n/a	n/a	n/a	n/a	n/a	n/a	n/a	12	2	7	3	n/a	n/a	n/a	n/a	n/a
2511274	PROB	n/a	LTP130	ltpFR	13	n/a	n/a	n/a	n/a	n/a	n/a	n/a	2	7	7	8	n/a	n/a	n/a	n/a	n/a
2513536	STOP	n/a	LTP130	ltpFR	13	n/a	n/a	n/a	n/a	n/a	n/a	n/a	n/a	n/a	n/a	n/a	n/a	n/a	n/a	n/a	n/a
2515505	WORD	wordpools/wasnorm_wordpool.txt	LTP130	ltpFR	13	10	1	GARDEN	623	n/a	n/a	1	n/a	0	0	0	0.57763671875	0.412841796875	1	lower	zerothre.ttf
2518513	START	n/a	LTP130	ltpFR	13	n/a	n/a	n/a	n/a	n/a	n/a	n/a	n/a	n/a	n/a	n/a	n/a	n/a	n/a	n/a	n/a
2519695	PROB	n/a	LTP130	ltpFR	13	n/a	n/a	n/a	n/a	n/a	n/a	n/a	16	8	2	6	n/a	n/a	n/a	n/a	n/a
2520937	PROB	n/a	LTP130	ltpFR	13	n/a	n/a	n/a	n/a	n/a	n/a	n/a	7	2	3	2	n/a	n/a	n/a	n/a	n/a
2523137	PROB	n/a	LTP130	ltpFR	13	n/a	n/a	n/a	n/a	n/a	n/a	n/a	12	4	5	3	n/a	n/a	n/a	n/a	n/a
2524693	PROB	n/a	LTP130	ltpFR	13	n/a	n/a	n/a	n/a	n/a	n/a	n/a	7	2	3	2	n/a	n/a	n/a	n/a	n/a
2526434	PROB	n/a	LTP130	ltpFR	13	n/a	n/a	n/a	n/a	n/a	n/a	n/a	10	4	1	5	n/a	n/a	n/a	n/a	n/a
2527910	PROB	n/a	LTP130	ltpFR	13	n/a	n/a	n/a	n/a	n/a	n/a	n/a	18	7	3	8	n/a	n/a	n/a	n/a	n/a
2529343	PROB	n/a	LTP130	ltpFR	13	n/a	n/a	n/a	n/a	n/a	n/a	n/a	11	2	6	3	n/a	n/a	n/a	n/a	n/a
2531633	PROB	n/a	LTP130	ltpFR	13	n/a	n/a	n/a	n/a	n/a	n/a	n/a	18	8	9	1	n/a	n/a	n/a	n/a	n/a
2533969	STOP	n/a	LTP130	ltpFR	13	n/a	n/a	n/a	n/a	n/a	n/a	n/a	n/a	n/a	n/a	n/a	n/a	n/a	n/a	n/a	n/a
2535406	WORD	wordpools/wasnorm_wordpool.txt	LTP130	ltpFR	13	10	0	EYE	545	n/a	n/a	0	n/a	0	0	0	0.422607421875	0.5869140625	0	upper	amplitud.ttf
2538414	START	n/a	LTP130	ltpFR	13	n/a	n/a	n/a	n/a	n/a	n/a	n/a	n/a	n/a	n/a	n/a	n/a	n/a	n/a	n/a	n/a
2539563	PROB	n/a	LTP130	ltpFR	13	n/a	n/a	n/a	n/a	n/a	n/a	n/a	20	4	9	7	n/a	n/a	n/a	n/a	n/a
2541830	PROB	n/a	LTP130	ltpFR	13	n/a	n/a	n/a	n/a	n/a	n/a	n/a	18	2	9	7	n/a	n/a	n/a	n/a	n/a
2544353	PROB	n/a	LTP130	ltpFR	13	n/a	n/a	n/a	n/a	n/a	n/a	n/a	11	6	3	2	n/a	n/a	n/a	n/a	n/a
2545736	PROB	n/a	LTP130	ltpFR	13	n/a	n/a	n/a	n/a	n/a	n/a	n/a	13	5	6	2	n/a	n/a	n/a	n/a	n/a
2547053	PROB	n/a	LTP130	ltpFR	13	n/a	n/a	n/a	n/a	n/a	n/a	n/a	24	9	7	8	n/a	n/a	n/a	n/a	n/a
2550643	PROB	n/a	LTP130	ltpFR	13	n/a	n/a	n/a	n/a	n/a	n/a	n/a	9	4	2	3	n/a	n/a	n/a	n/a	n/a
2554376	STOP	n/a	LTP130	ltpFR	13	n/a	n/a	n/a	n/a	n/a	n/a	n/a	n/a	n/a	n/a	n/a	n/a	n/a	n/a	n/a	n/a
2555234	WORD	wordpools/wasnorm_wordpool.txt	LTP130	ltpFR	13	10	0	MOAT	903	n/a	n/a	0	n/a	0	0	0	0.422607421875	0.5869140625	0	upper	amplitud.ttf
2558241	START	n/a	LTP130	ltpFR	13	n/a	n/a	n/a	n/a	n/a	n/a	n/a	n/a	n/a	n/a	n/a	n/a	n/a	n/a	n/a	n/a
2559057	PROB	n/a	LTP130	ltpFR	13	n/a	n/a	n/a	n/a	n/a	n/a	n/a	20	4	8	8	n/a	n/a	n/a	n/a	n/a
2560614	PROB	n/a	LTP130	ltpFR	13	n/a	n/a	n/a	n/a	n/a	n/a	n/a	16	5	9	2	n/a	n/a	n/a	n/a	n/a
2562164	PROB	n/a	LTP130	ltpFR	13	n/a	n/a	n/a	n/a	n/a	n/a	n/a	9	2	4	3	n/a	n/a	n/a	n/a	n/a
2564671	PROB	n/a	LTP130	ltpFR	13	n/a	n/a	n/a	n/a	n/a	n/a	n/a	11	2	8	1	n/a	n/a	n/a	n/a	n/a
2566038	PROB	n/a	LTP130	ltpFR	13	n/a	n/a	n/a	n/a	n/a	n/a	n/a	11	7	2	2	n/a	n/a	n/a	n/a	n/a
2568162	PROB	n/a	LTP130	ltpFR	13	n/a	n/a	n/a	n/a	n/a	n/a	n/a	23	9	7	7	n/a	n/a	n/a	n/a	n/a
2570669	PROB	n/a	LTP130	ltpFR	13	n/a	n/a	n/a	n/a	n/a	n/a	n/a	19	6	7	6	n/a	n/a	n/a	n/a	n/a
2573977	STOP	n/a	LTP130	ltpFR	13	n/a	n/a	n/a	n/a	n/a	n/a	n/a	n/a	n/a	n/a	n/a	n/a	n/a	n/a	n/a	n/a
2575093	WORD	wordpools/wasnorm_wordpool.txt	LTP130	ltpFR	13	10	0	STOVE	1388	n/a	n/a	1	n/a	0	0	0	0.422607421875	0.5869140625	0	upper	amplitud.ttf
2578101	START	n/a	LTP130	ltpFR	13	n/a	n/a	n/a	n/a	n/a	n/a	n/a	n/a	n/a	n/a	n/a	n/a	n/a	n/a	n/a	n/a
2579067	PROB	n/a	LTP130	ltpFR	13	n/a	n/a	n/a	n/a	n/a	n/a	n/a	10	2	5	3	n/a	n/a	n/a	n/a	n/a
2581133	PROB	n/a	LTP130	ltpFR	13	n/a	n/a	n/a	n/a	n/a	n/a	n/a	5	1	3	1	n/a	n/a	n/a	n/a	n/a
2582990	PROB	n/a	LTP130	ltpFR	13	n/a	n/a	n/a	n/a	n/a	n/a	n/a	10	1	8	1	n/a	n/a	n/a	n/a	n/a
2584248	PROB	n/a	LTP130	ltpFR	13	n/a	n/a	n/a	n/a	n/a	n/a	n/a	20	8	3	9	n/a	n/a	n/a	n/a	n/a
2586322	PROB	n/a	LTP130	ltpFR	13	n/a	n/a	n/a	n/a	n/a	n/a	n/a	16	7	7	2	n/a	n/a	n/a	n/a	n/a
2588147	PROB	n/a	LTP130	ltpFR	13	n/a	n/a	n/a	n/a	n/a	n/a	n/a	15	1	6	8	n/a	n/a	n/a	n/a	n/a
2589695	PROB	n/a	LTP130	ltpFR	13	n/a	n/a	n/a	n/a	n/a	n/a	n/a	13	1	9	3	n/a	n/a	n/a	n/a	n/a
2591553	PROB	n/a	LTP130	ltpFR	13	n/a	n/a	n/a	n/a	n/a	n/a	n/a	21	9	9	3	n/a	n/a	n/a	n/a	n/a
2592793	STOP	n/a	LTP130	ltpFR	13	n/a	n/a	n/a	n/a	n/a	n/a	n/a	n/a	n/a	n/a	n/a	n/a	n/a	n/a	n/a	n/a
2595003	WORD	wordpools/wasnorm_wordpool.txt	LTP130	ltpFR	13	10	1	TUBE	1516	n/a	n/a	0	n/a	0	0	0	0.57763671875	0.412841796875	1	lower	zerothre.ttf
2598010	START	n/a	LTP130	ltpFR	13	n/a	n/a	n/a	n/a	n/a	n/a	n/a	n/a	n/a	n/a	n/a	n/a	n/a	n/a	n/a	n/a
2598885	PROB	n/a	LTP130	ltpFR	13	n/a	n/a	n/a	n/a	n/a	n/a	n/a	11	4	3	3	n/a	n/a	n/a	n/a	n/a
2600708	PROB	n/a	LTP130	ltpFR	13	n/a	n/a	n/a	n/a	n/a	n/a	n/a	18	7	9	2	n/a	n/a	n/a	n/a	n/a
2602917	PROB	n/a	LTP130	ltpFR	13	n/a	n/a	n/a	n/a	n/a	n/a	n/a	13	1	7	5	n/a	n/a	n/a	n/a	n/a
2605406	PROB	n/a	LTP130	ltpFR	13	n/a	n/a	n/a	n/a	n/a	n/a	n/a	21	9	3	9	n/a	n/a	n/a	n/a	n/a
2607123	PROB	n/a	LTP130	ltpFR	13	n/a	n/a	n/a	n/a	n/a	n/a	n/a	13	5	7	1	n/a	n/a	n/a	n/a	n/a
2608689	PROB	n/a	LTP130	ltpFR	13	n/a	n/a	n/a	n/a	n/a	n/a	n/a	19	7	5	7	n/a	n/a	n/a	n/a	n/a
2611264	PROB	n/a	LTP130	ltpFR	13	n/a	n/a	n/a	n/a	n/a	n/a	n/a	21	7	6	7	n/a	n/a	n/a	n/a	n/a
2613640	STOP	n/a	LTP130	ltpFR	13	n/a	n/a	n/a	n/a	n/a	n/a	n/a	n/a	n/a	n/a	n/a	n/a	n/a	n/a	n/a	n/a
2615129	WORD	wordpools/wasnorm_wordpool.txt	LTP130	ltpFR	13	10	1	ASTRONAUT	51	n/a	n/a	1	n/a	0	0	0	0.57763671875	0.412841796875	1	lower	zerothre.ttf
2618137	START	n/a	LTP130	ltpFR	13	n/a	n/a	n/a	n/a	n/a	n/a	n/a	n/a	n/a	n/a	n/a	n/a	n/a	n/a	n/a	n/a
2619202	PROB	n/a	LTP130	ltpFR	13	n/a	n/a	n/a	n/a	n/a	n/a	n/a	17	3	6	8	n/a	n/a	n/a	n/a	n/a
2621692	PROB	n/a	LTP130	ltpFR	13	n/a	n/a	n/a	n/a	n/a	n/a	n/a	20	9	2	9	n/a	n/a	n/a	n/a	n/a
2623276	PROB	n/a	LTP130	ltpFR	13	n/a	n/a	n/a	n/a	n/a	n/a	n/a	15	5	9	1	n/a	n/a	n/a	n/a	n/a
2624608	PROB	n/a	LTP130	ltpFR	13	n/a	n/a	n/a	n/a	n/a	n/a	n/a	15	3	5	7	n/a	n/a	n/a	n/a	n/a
2626025	PROB	n/a	LTP130	ltpFR	13	n/a	n/a	n/a	n/a	n/a	n/a	n/a	25	8	9	8	n/a	n/a	n/a	n/a	n/a
2628748	PROB	n/a	LTP130	ltpFR	13	n/a	n/a	n/a	n/a	n/a	n/a	n/a	19	2	8	9	n/a	n/a	n/a	n/a	n/a
2630714	PROB	n/a	LTP130	ltpFR	13	n/a	n/a	n/a	n/a	n/a	n/a	n/a	17	3	7	7	n/a	n/a	n/a	n/a	n/a
2634137	STOP	n/a	LTP130	ltpFR	13	n/a	n/a	n/a	n/a	n/a	n/a	n/a	n/a	n/a	n/a	n/a	n/a	n/a	n/a	n/a	n/a
2635280	WORD	wordpools/wasnorm_wordpool.txt	LTP130	ltpFR	13	10	1	CHARCOAL	281	n/a	n/a	0	n/a	0	0	0	0.57763671875	0.412841796875	1	lower	zerothre.ttf
2638288	START	n/a	LTP130	ltpFR	13	n/a	n/a	n/a	n/a	n/a	n/a	n/a	n/a	n/a	n/a	n/a	n/a	n/a	n/a	n/a	n/a
2639204	PROB	n/a	LTP130	ltpFR	13	n/a	n/a	n/a	n/a	n/a	n/a	n/a	15	3	8	4	n/a	n/a	n/a	n/a	n/a
2641452	PROB	n/a	LTP130	ltpFR	13	n/a	n/a	n/a	n/a	n/a	n/a	n/a	16	5	4	7	n/a	n/a	n/a	n/a	n/a
2643434	PROB	n/a	LTP130	ltpFR	13	n/a	n/a	n/a	n/a	n/a	n/a	n/a	22	5	8	9	n/a	n/a	n/a	n/a	n/a
2645442	PROB	n/a	LTP130	ltpFR	13	n/a	n/a	n/a	n/a	n/a	n/a	n/a	12	3	8	1	n/a	n/a	n/a	n/a	n/a
2647309	PROB	n/a	LTP130	ltpFR	13	n/a	n/a	n/a	n/a	n/a	n/a	n/a	7	1	1	5	n/a	n/a	n/a	n/a	n/a
2648516	PROB	n/a	LTP130	ltpFR	13	n/a	n/a	n/a	n/a	n/a	n/a	n/a	15	5	4	6	n/a	n/a	n/a	n/a	n/a
2649917	PROB	n/a	LTP130	ltpFR	13	n/a	n/a	n/a	n/a	n/a	n/a	n/a	23	9	9	5	n/a	n/a	n/a	n/a	n/a
2651440	PROB	n/a	LTP130	ltpFR	13	n/a	n/a	n/a	n/a	n/a	n/a	n/a	15	5	7	3	n/a	n/a	n/a	n/a	n/a
2652785	STOP	n/a	LTP130	ltpFR	13	n/a	n/a	n/a	n/a	n/a	n/a	n/a	n/a	n/a	n/a	n/a	n/a	n/a	n/a	n/a	n/a
2655098	WORD	wordpools/wasnorm_wordpool.txt	LTP130	ltpFR	13	10	1	CAVE	263	n/a	n/a	0	n/a	0	0	0	0.57763671875	0.412841796875	1	lower	zerothre.ttf
2658106	START	n/a	LTP130	ltpFR	13	n/a	n/a	n/a	n/a	n/a	n/a	n/a	n/a	n/a	n/a	n/a	n/a	n/a	n/a	n/a	n/a
2659047	PROB	n/a	LTP130	ltpFR	13	n/a	n/a	n/a	n/a	n/a	n/a	n/a	18	8	9	1	n/a	n/a	n/a	n/a	n/a
2660553	PROB	n/a	LTP130	ltpFR	13	n/a	n/a	n/a	n/a	n/a	n/a	n/a	23	9	5	9	n/a	n/a	n/a	n/a	n/a
2663577	PROB	n/a	LTP130	ltpFR	13	n/a	n/a	n/a	n/a	n/a	n/a	n/a	14	4	1	9	n/a	n/a	n/a	n/a	n/a
2666061	PROB	n/a	LTP130	ltpFR	13	n/a	n/a	n/a	n/a	n/a	n/a	n/a	12	3	5	4	n/a	n/a	n/a	n/a	n/a
2668401	PROB	n/a	LTP130	ltpFR	13	n/a	n/a	n/a	n/a	n/a	n/a	n/a	23	8	9	6	n/a	n/a	n/a	n/a	n/a
2673313	STOP	n/a	LTP130	ltpFR	13	n/a	n/a	n/a	n/a	n/a	n/a	n/a	n/a	n/a	n/a	n/a	n/a	n/a	n/a	n/a	n/a
2676016	REC_START	n/a	LTP130	ltpFR	13	10	n/a	n/a	n/a	n/a	n/a	n/a	n/a	0	0	0	n/a	n/a	n/a	n/a	n/a
2681858	REC_WORD	wordpools/wasnorm_wordpool.txt	LTP130	ltpFR	13	10	1	TUBE	1516	n/a	n/a	0	n/a	0	0	0	n/a	n/a	n/a	n/a	n/a
2686612	REC_WORD	wordpools/wasnorm_wordpool.txt	LTP130	ltpFR	13	10	0	MAJOR	859	n/a	n/a	1	n/a	0	0	0	n/a	n/a	n/a	n/a	n/a
2688921	REC_WORD	wordpools/wasnorm_wordpool.txt	LTP130	ltpFR	13	10	0	MILITARY	894	n/a	n/a	1	n/a	0	0	0	n/a	n/a	n/a	n/a	n/a
2690507	REC_WORD	wordpools/wasnorm_wordpool.txt	LTP130	ltpFR	13	10	0	FISH	571	n/a	n/a	0	n/a	0	0	0	n/a	n/a	n/a	n/a	n/a
2692264	REC_WORD	wordpools/wasnorm_wordpool.txt	LTP130	ltpFR	13	10	0	AIRPLANE	12	n/a	n/a	1	n/a	0	0	0	n/a	n/a	n/a	n/a	n/a
2693661	REC_WORD	wordpools/wasnorm_wordpool.txt	LTP130	ltpFR	13	10	0	COOK	372	n/a	n/a	1	n/a	0	0	0	n/a	n/a	n/a	n/a	n/a
2697053	REC_WORD	wordpools/wasnorm_wordpool.txt	LTP130	ltpFR	13	10	1	CANAL	226	n/a	n/a	1	n/a	0	0	0	n/a	n/a	n/a	n/a	n/a
2698455	REC_WORD	wordpools/wasnorm_wordpool.txt	LTP130	ltpFR	13	10	1	GROUND	666	n/a	n/a	1	n/a	0	0	0	n/a	n/a	n/a	n/a	n/a
2699936	REC_WORD	wordpools/wasnorm_wordpool.txt	LTP130	ltpFR	13	10	1	TURNIP	1521	n/a	n/a	0	n/a	0	0	0	n/a	n/a	n/a	n/a	n/a
2701164	REC_WORD	wordpools/wasnorm_wordpool.txt	LTP130	ltpFR	13	10	1	GARDEN	623	n/a	n/a	1	n/a	0	0	0	n/a	n/a	n/a	n/a	n/a
2708442	REC_WORD	wordpools/wasnorm_wordpool.txt	LTP130	ltpFR	13	10	0	EYE	545	n/a	n/a	0	n/a	0	0	0	n/a	n/a	n/a	n/a	n/a
2715511	REC_WORD	wordpools/wasnorm_wordpool.txt	LTP130	ltpFR	13	10	1	CHARCOAL	281	n/a	n/a	0	n/a	0	0	0	n/a	n/a	n/a	n/a	n/a
2751638	REST_REWET	n/a	LTP130	ltpFR	13	10	n/a	n/a	n/a	n/a	n/a	n/a	n/a	0	0	0	n/a	n/a	n/a	n/a	n/a
3122899	WORD	wordpools/wasnorm_wordpool.txt	LTP130	ltpFR	13	11	1	BOUQUET	157	n/a	n/a	1	n/a	0	0	0	0.57763671875	0.412841796875	1	lower	zerothre.ttf
3126864	WORD	wordpools/wasnorm_wordpool.txt	LTP130	ltpFR	13	11	1	BASKETBALL	96	n/a	n/a	0	n/a	0	0	0	0.57763671875	0.412841796875	1	lower	zerothre.ttf
3130871	WORD	wordpools/wasnorm_wordpool.txt	LTP130	ltpFR	13	11	1	CUSTARD	429	n/a	n/a	0	n/a	0	0	0	0.57763671875	0.412841796875	1	lower	zerothre.ttf
3134702	WORD	wordpools/wasnorm_wordpool.txt	LTP130	ltpFR	13	11	1	HATCHET	691	n/a	n/a	0	n/a	0	0	0	0.57763671875	0.412841796875	1	lower	zerothre.ttf
3138575	WORD	wordpools/wasnorm_wordpool.txt	LTP130	ltpFR	13	11	1	CHESS	294	n/a	n/a	0	n/a	0	0	0	0.57763671875	0.412841796875	1	lower	zerothre.ttf
3142432	WORD	wordpools/wasnorm_wordpool.txt	LTP130	ltpFR	13	11	1	SCIENTIST	1249	n/a	n/a	1	n/a	0	0	0	0.57763671875	0.412841796875	1	lower	zerothre.ttf
3146581	WORD	wordpools/wasnorm_wordpool.txt	LTP130	ltpFR	13	11	1	BIOLOGIST	128	n/a	n/a	1	n/a	0	0	0	0.57763671875	0.412841796875	1	lower	zerothre.ttf
3150663	WORD	wordpools/wasnorm_wordpool.txt	LTP130	ltpFR	13	11	1	CASH	252	n/a	n/a	0	n/a	0	0	0	0.57763671875	0.412841796875	1	lower	zerothre.ttf
3154862	WORD	wordpools/wasnorm_wordpool.txt	LTP130	ltpFR	13	11	1	ORCHID	982	n/a	n/a	1	n/a	0	0	0	0.57763671875	0.412841796875	1	lower	zerothre.ttf
3158827	WORD	wordpools/wasnorm_wordpool.txt	LTP130	ltpFR	13	11	1	PLANT	1083	n/a	n/a	1	n/a	0	0	0	0.57763671875	0.412841796875	1	lower	zerothre.ttf
3162758	WORD	wordpools/wasnorm_wordpool.txt	LTP130	ltpFR	13	11	1	RELISH	1183	n/a	n/a	0	n/a	0	0	0	0.57763671875	0.412841796875	1	lower	zerothre.ttf
3166657	WORD	wordpools/wasnorm_wordpool.txt	LTP130	ltpFR	13	11	1	DOLLAR	482	n/a	n/a	0	n/a	0	0	0	0.57763671875	0.412841796875	1	lower	zerothre.ttf
3170857	WORD	wordpools/wasnorm_wordpool.txt	LTP130	ltpFR	13	11	1	NEWSPAPER	948	n/a	n/a	0	n/a	0	0	0	0.57763671875	0.412841796875	1	lower	zerothre.ttf
3174737	WORD	wordpools/wasnorm_wordpool.txt	LTP130	ltpFR	13	11	1	ATTORNEY	58	n/a	n/a	1	n/a	0	0	0	0.57763671875	0.412841796875	1	lower	zerothre.ttf
3178862	WORD	wordpools/wasnorm_wordpool.txt	LTP130	ltpFR	13	11	1	COLUMN	350	n/a	n/a	0	n/a	0	0	0	0.57763671875	0.412841796875	1	lower	zerothre.ttf
3182811	WORD	wordpools/wasnorm_wordpool.txt	LTP130	ltpFR	13	11	1	AUTHOR	61	n/a	n/a	1	n/a	0	0	0	0.57763671875	0.412841796875	1	lower	zerothre.ttf
3188658	REC_START	n/a	LTP130	ltpFR	13	11	n/a	n/a	n/a	n/a	n/a	n/a	n/a	0	0	0	n/a	n/a	n/a	n/a	n/a
3190324	REC_WORD	wordpools/wasnorm_wordpool.txt	LTP130	ltpFR	13	11	1	AUTHOR	61	n/a	n/a	1	n/a	0	0	0	n/a	n/a	n/a	n/a	n/a
3191282	REC_WORD	wordpools/wasnorm_wordpool.txt	LTP130	ltpFR	13	11	1	COLUMN	350	n/a	n/a	0	n/a	0	0	0	n/a	n/a	n/a	n/a	n/a
3193622	REC_WORD	wordpools/wasnorm_wordpool.txt	LTP130	ltpFR	13	11	1	BOUQUET	157	n/a	n/a	1	n/a	0	0	0	n/a	n/a	n/a	n/a	n/a
3195133	REC_WORD	wordpools/wasnorm_wordpool.txt	LTP130	ltpFR	13	11	1	ORCHID	982	n/a	n/a	1	n/a	0	0	0	n/a	n/a	n/a	n/a	n/a
3196680	REC_WORD	wordpools/wasnorm_wordpool.txt	LTP130	ltpFR	13	11	1	SCIENTIST	1249	n/a	n/a	1	n/a	0	0	0	n/a	n/a	n/a	n/a	n/a
3198116	REC_WORD	wordpools/wasnorm_wordpool.txt	LTP130	ltpFR	13	11	1	BIOLOGIST	128	n/a	n/a	1	n/a	0	0	0	n/a	n/a	n/a	n/a	n/a
3205983	REC_WORD	wordpools/wasnorm_wordpool.txt	LTP130	ltpFR	13	11	1	NEWSPAPER	948	n/a	n/a	0	n/a	0	0	0	n/a	n/a	n/a	n/a	n/a
3210623	REC_WORD	wordpools/wasnorm_wordpool.txt	LTP130	ltpFR	13	11	1	ATTORNEY	58	n/a	n/a	1	n/a	0	0	0	n/a	n/a	n/a	n/a	n/a
3277626	WORD	wordpools/wasnorm_wordpool.txt	LTP130	ltpFR	13	12	0	NET	946	n/a	n/a	0	n/a	0	0	0	0.422607421875	0.5869140625	0	upper	amplitud.ttf
3281633	WORD	wordpools/wasnorm_wordpool.txt	LTP130	ltpFR	13	12	0	LID	817	n/a	n/a	0	n/a	0	0	0	0.422607421875	0.5869140625	0	upper	amplitud.ttf
3285706	WORD	wordpools/wasnorm_wordpool.txt	LTP130	ltpFR	13	12	0	GIRL	637	n/a	n/a	1	n/a	0	0	0	0.422607421875	0.5869140625	0	upper	amplitud.ttf
3289580	WORD	wordpools/wasnorm_wordpool.txt	LTP130	ltpFR	13	12	0	GUM	672	n/a	n/a	0	n/a	0	0	0	0.422607421875	0.5869140625	0	upper	amplitud.ttf
3293620	WORD	wordpools/wasnorm_wordpool.txt	LTP130	ltpFR	13	12	0	MAGICIAN	854	n/a	n/a	1	n/a	0	0	0	0.422607421875	0.5869140625	0	upper	amplitud.ttf
3297477	WORD	wordpools/wasnorm_wordpool.txt	LTP130	ltpFR	13	12	0	WITCH	1617	n/a	n/a	1	n/a	0	0	0	0.422607421875	0.5869140625	0	upper	amplitud.ttf
3301551	WORD	wordpools/wasnorm_wordpool.txt	LTP130	ltpFR	13	12	0	BUN	197	n/a	n/a	0	n/a	0	0	0	0.422607421875	0.5869140625	0	upper	amplitud.ttf
3305516	WORD	wordpools/wasnorm_wordpool.txt	LTP130	ltpFR	13	12	0	SHOELACE	1289	n/a	n/a	0	n/a	0	0	0	0.422607421875	0.5869140625	0	upper	amplitud.ttf
3309515	WORD	wordpools/wasnorm_wordpool.txt	LTP130	ltpFR	13	12	0	GUARD	667	n/a	n/a	1	n/a	0	0	0	0.422607421875	0.5869140625	0	upper	amplitud.ttf
3313472	WORD	wordpools/wasnorm_wordpool.txt	LTP130	ltpFR	13	12	0	AGENT	10	n/a	n/a	1	n/a	0	0	0	0.422607421875	0.5869140625	0	upper	amplitud.ttf
3317662	WORD	wordpools/wasnorm_wordpool.txt	LTP130	ltpFR	13	12	0	CYLINDER	432	n/a	n/a	0	n/a	0	0	0	0.422607421875	0.5869140625	0	upper	amplitud.ttf
3321560	WORD	wordpools/wasnorm_wordpool.txt	LTP130	ltpFR	13	12	0	SHOE	1288	n/a	n/a	0	n/a	0	0	0	0.422607421875	0.5869140625	0	upper	amplitud.ttf
3325401	WORD	wordpools/wasnorm_wordpool.txt	LTP130	ltpFR	13	12	0	MAYONNAISE	880	n/a	n/a	0	n/a	0	0	0	0.422607421875	0.5869140625	0	upper	amplitud.ttf
3329424	WORD	wordpools/wasnorm_wordpool.txt	LTP130	ltpFR	13	12	0	UNICORN	1538	n/a	n/a	0	n/a	0	0	0	0.422607421875	0.5869140625	0	upper	amplitud.ttf
3333307	WORD	wordpools/wasnorm_wordpool.txt	LTP130	ltpFR	13	12	0	PADDLE	1000	n/a	n/a	1	n/a	0	0	0	0.422607421875	0.5869140625	0	upper	amplitud.ttf
3337306	WORD	wordpools/wasnorm_wordpool.txt	LTP130	ltpFR	13	12	0	SAILOR	1223	n/a	n/a	1	n/a	0	0	0	0.422607421875	0.5869140625	0	upper	amplitud.ttf
3340313	START	n/a	LTP130	ltpFR	13	n/a	n/a	n/a	n/a	n/a	n/a	n/a	n/a	n/a	n/a	n/a	n/a	n/a	n/a	n/a	n/a
3341329	PROB	n/a	LTP130	ltpFR	13	n/a	n/a	n/a	n/a	n/a	n/a	n/a	19	5	6	8	n/a	n/a	n/a	n/a	n/a
3343711	PROB	n/a	LTP130	ltpFR	13	n/a	n/a	n/a	n/a	n/a	n/a	n/a	25	9	8	8	n/a	n/a	n/a	n/a	n/a
3346153	PROB	n/a	LTP130	ltpFR	13	n/a	n/a	n/a	n/a	n/a	n/a	n/a	14	3	7	4	n/a	n/a	n/a	n/a	n/a
3347584	PROB	n/a	LTP130	ltpFR	13	n/a	n/a	n/a	n/a	n/a	n/a	n/a	13	6	1	6	n/a	n/a	n/a	n/a	n/a
3348818	PROB	n/a	LTP130	ltpFR	13	n/a	n/a	n/a	n/a	n/a	n/a	n/a	21	8	4	9	n/a	n/a	n/a	n/a	n/a
3350367	PROB	n/a	LTP130	ltpFR	13	n/a	n/a	n/a	n/a	n/a	n/a	n/a	12	1	9	2	n/a	n/a	n/a	n/a	n/a
3351691	PROB	n/a	LTP130	ltpFR	13	n/a	n/a	n/a	n/a	n/a	n/a	n/a	20	8	5	7	n/a	n/a	n/a	n/a	n/a
3356312	STOP	n/a	LTP130	ltpFR	13	n/a	n/a	n/a	n/a	n/a	n/a	n/a	n/a	n/a	n/a	n/a	n/a	n/a	n/a	n/a	n/a
3358207	REC_START	n/a	LTP130	ltpFR	13	12	n/a	n/a	n/a	n/a	n/a	n/a	n/a	0	0	0	n/a	n/a	n/a	n/a	n/a
3362856	REC_WORD	wordpools/wasnorm_wordpool.txt	LTP130	ltpFR	13	12	0	GIRL	637	n/a	n/a	1	n/a	0	0	0	n/a	n/a	n/a	n/a	n/a
3363908	REC_WORD	wordpools/wasnorm_wordpool.txt	LTP130	ltpFR	13	12	0	MAGICIAN	854	n/a	n/a	1	n/a	0	0	0	n/a	n/a	n/a	n/a	n/a
3365944	REC_WORD	wordpools/wasnorm_wordpool.txt	LTP130	ltpFR	13	12	0	GUM	672	n/a	n/a	0	n/a	0	0	0	n/a	n/a	n/a	n/a	n/a
3367241	REC_WORD	wordpools/wasnorm_wordpool.txt	LTP130	ltpFR	13	12	0	LID	817	n/a	n/a	0	n/a	0	0	0	n/a	n/a	n/a	n/a	n/a
3368658	REC_WORD	wordpools/wasnorm_wordpool.txt	LTP130	ltpFR	13	12	0	NET	946	n/a	n/a	0	n/a	0	0	0	n/a	n/a	n/a	n/a	n/a
3375547	REC_WORD	wordpools/wasnorm_wordpool.txt	LTP130	ltpFR	13	12	0	CYLINDER	432	n/a	n/a	0	n/a	0	0	0	n/a	n/a	n/a	n/a	n/a
3382017	REC_WORD	wordpools/wasnorm_wordpool.txt	LTP130	ltpFR	13	12	0	WITCH	1617	n/a	n/a	1	n/a	0	0	0	n/a	n/a	n/a	n/a	n/a
3386827	REC_WORD	wordpools/wasnorm_wordpool.txt	LTP130	ltpFR	13	12	0	UNICORN	1538	n/a	n/a	0	n/a	0	0	0	n/a	n/a	n/a	n/a	n/a
3409849	REC_WORD	wordpools/wasnorm_wordpool.txt	LTP130	ltpFR	13	12	0	SHOE	1288	n/a	n/a	0	n/a	0	0	0	n/a	n/a	n/a	n/a	n/a
3450341	REC_START	n/a	LTP130	ltpFR	13	n/a	n/a	n/a	n/a	n/a	n/a	n/a	n/a	0	0	0	n/a	n/a	n/a	n/a	n/a
3452062	FFR_REC_WORD	wordpools/wasnorm_wordpool.txt	LTP130	ltpFR	13	n/a	0	GIRL	637	n/a	n/a	1	n/a	0	0	0	n/a	n/a	n/a	n/a	n/a
3452795	FFR_REC_WORD	wordpools/wasnorm_wordpool.txt	LTP130	ltpFR	13	n/a	0	MAGICIAN	854	n/a	n/a	1	n/a	0	0	0	n/a	n/a	n/a	n/a	n/a
3456292	FFR_REC_WORD	wordpools/wasnorm_wordpool.txt	LTP130	ltpFR	13	n/a	0	WITCH	1617	n/a	n/a	1	n/a	0	0	0	n/a	n/a	n/a	n/a	n/a
