onset	duration	trial_type	sample	stim_file	subject	experiment	session	trial	task	item_name	item_num	recog_conf	resp	color_b	color_g	color_r	case	font
221.62	n/a	SESS_START	110810	n/a	LTP104	ltpFR	19	n/a	n/a	n/a	n/a	4	n/a	n/a	n/a	n/a	n/a	n/a
252.472	n/a	WORD	126236	wordpools/wasnorm_wordpool.txt	LTP104	ltpFR	19	1	1	DRINK	498	3	0	0	0.5869140625	0.422607421875	lower	../fonts/amplitud.ttf
256.498	n/a	WORD	128249	wordpools/wasnorm_wordpool.txt	LTP104	ltpFR	19	1	1	STRAW	1390	n/a	0	0	0.5869140625	0.422607421875	lower	../fonts/amplitud.ttf
260.464	n/a	WORD	130232	wordpools/wasnorm_wordpool.txt	LTP104	ltpFR	19	1	1	MEAL	882	n/a	0	0	0.5869140625	0.422607421875	lower	../fonts/amplitud.ttf
264.414	n/a	WORD	132207	wordpools/wasnorm_wordpool.txt	LTP104	ltpFR	19	1	1	FOOT	590	n/a	1	0	0.5869140625	0.422607421875	lower	../fonts/amplitud.ttf
268.564	n/a	WORD	134282	wordpools/wasnorm_wordpool.txt	LTP104	ltpFR	19	1	0	PEPPER	1047	n/a	0	1	0.412841796875	0.57763671875	upper	../fonts/zerothre.ttf
272.522	n/a	WORD	136261	wordpools/wasnorm_wordpool.txt	LTP104	ltpFR	19	1	0	SALMON	1227	n/a	1	1	0.412841796875	0.57763671875	upper	../fonts/zerothre.ttf
276.422	n/a	WORD	138211	wordpools/wasnorm_wordpool.txt	LTP104	ltpFR	19	1	0	TURKEY	1520	n/a	1	1	0.412841796875	0.57763671875	upper	../fonts/zerothre.ttf
280.256	n/a	WORD	140128	wordpools/wasnorm_wordpool.txt	LTP104	ltpFR	19	1	0	LIPSTICK	829	n/a	0	1	0.412841796875	0.57763671875	upper	../fonts/zerothre.ttf
284.124	n/a	WORD	142062	wordpools/wasnorm_wordpool.txt	LTP104	ltpFR	19	1	0	PERSONNEL	1053	n/a	1	1	0.412841796875	0.57763671875	upper	../fonts/zerothre.ttf
288.256	n/a	WORD	144128	wordpools/wasnorm_wordpool.txt	LTP104	ltpFR	19	1	1	MULE	931	n/a	1	0	0.5869140625	0.422607421875	lower	../fonts/amplitud.ttf
292.198	n/a	WORD	146099	wordpools/wasnorm_wordpool.txt	LTP104	ltpFR	19	1	1	POWDER	1117	n/a	0	0	0.5869140625	0.422607421875	lower	../fonts/amplitud.ttf
296.13	n/a	WORD	148065	wordpools/wasnorm_wordpool.txt	LTP104	ltpFR	19	1	0	INSTRUCTOR	741	n/a	1	1	0.412841796875	0.57763671875	upper	../fonts/zerothre.ttf
299.948	n/a	WORD	149974	wordpools/wasnorm_wordpool.txt	LTP104	ltpFR	19	1	0	CANOE	233	n/a	0	1	0.412841796875	0.57763671875	upper	../fonts/zerothre.ttf
303.806	n/a	WORD	151903	wordpools/wasnorm_wordpool.txt	LTP104	ltpFR	19	1	0	MOAT	903	n/a	1	1	0.412841796875	0.57763671875	upper	../fonts/zerothre.ttf
307.972	n/a	WORD	153986	wordpools/wasnorm_wordpool.txt	LTP104	ltpFR	19	1	1	CHESS	294	n/a	0	0	0.5869140625	0.422607421875	lower	../fonts/amplitud.ttf
312.13	n/a	WORD	156065	wordpools/wasnorm_wordpool.txt	LTP104	ltpFR	19	1	1	REPORT	1184	n/a	0	0	0.5869140625	0.422607421875	lower	../fonts/amplitud.ttf
317.922	n/a	REC_START	158961	n/a	LTP104	ltpFR	19	1	n/a	n/a	n/a	n/a	n/a	n/a	n/a	n/a	n/a	n/a
319.064	n/a	REC_WORD	159532	wordpools/wasnorm_wordpool.txt	LTP104	ltpFR	19	1	0	INSTRUCTOR	741	n/a	1	n/a	n/a	n/a	n/a	n/a
320.392	n/a	REC_WORD	160196	wordpools/wasnorm_wordpool.txt	LTP104	ltpFR	19	1	n/a	TEACHER	1440	n/a	n/a	n/a	n/a	n/a	n/a	n/a
321.56	n/a	REC_WORD	160780	wordpools/wasnorm_wordpool.txt	LTP104	ltpFR	19	1	0	CANOE	233	n/a	0	n/a	n/a	n/a	n/a	n/a
322.498	n/a	REC_WORD	161249	wordpools/wasnorm_wordpool.txt	LTP104	ltpFR	19	1	n/a	SEAT	1264	n/a	n/a	n/a	n/a	n/a	n/a	n/a
323.676	n/a	REC_WORD	161838	wordpools/wasnorm_wordpool.txt	LTP104	ltpFR	19	1	n/a	WOOD	-1	n/a	n/a	n/a	n/a	n/a	n/a	n/a
325.042	n/a	REC_WORD	162521	wordpools/wasnorm_wordpool.txt	LTP104	ltpFR	19	1	n/a	BOAT	144	n/a	n/a	n/a	n/a	n/a	n/a	n/a
327.042	n/a	REC_WORD	163521	wordpools/wasnorm_wordpool.txt	LTP104	ltpFR	19	1	n/a	OAR	966	n/a	n/a	n/a	n/a	n/a	n/a	n/a
328.21	n/a	REC_WORD	164105	wordpools/wasnorm_wordpool.txt	LTP104	ltpFR	19	1	1	CHESS	294	n/a	0	n/a	n/a	n/a	n/a	n/a
330.73	n/a	REC_WORD	165365	wordpools/wasnorm_wordpool.txt	LTP104	ltpFR	19	1	1	REPORT	1184	n/a	0	n/a	n/a	n/a	n/a	n/a
334.82	n/a	REC_WORD	167410	wordpools/wasnorm_wordpool.txt	LTP104	ltpFR	19	1	0	MOAT	903	n/a	1	n/a	n/a	n/a	n/a	n/a
337.618	n/a	REC_WORD	168809	wordpools/wasnorm_wordpool.txt	LTP104	ltpFR	19	1	1	DRINK	498	n/a	0	n/a	n/a	n/a	n/a	n/a
338.726	n/a	REC_WORD	169363	wordpools/wasnorm_wordpool.txt	LTP104	ltpFR	19	1	1	STRAW	1390	n/a	0	n/a	n/a	n/a	n/a	n/a
339.974	n/a	REC_WORD	169987	wordpools/wasnorm_wordpool.txt	LTP104	ltpFR	19	1	n/a	SHAKE	-1	n/a	n/a	n/a	n/a	n/a	n/a	n/a
342.938	n/a	REC_WORD	171469	wordpools/wasnorm_wordpool.txt	LTP104	ltpFR	19	1	1	FOOT	590	n/a	1	n/a	n/a	n/a	n/a	n/a
344.384	n/a	REC_WORD	172192	wordpools/wasnorm_wordpool.txt	LTP104	ltpFR	19	1	0	LIPSTICK	829	n/a	0	n/a	n/a	n/a	n/a	n/a
346.984	n/a	REC_WORD	173492	wordpools/wasnorm_wordpool.txt	LTP104	ltpFR	19	1	0	TURKEY	1520	n/a	1	n/a	n/a	n/a	n/a	n/a
348.246	n/a	REC_WORD	174123	wordpools/wasnorm_wordpool.txt	LTP104	ltpFR	19	1	0	SALMON	1227	n/a	1	n/a	n/a	n/a	n/a	n/a
349.976	n/a	REC_WORD	174988	wordpools/wasnorm_wordpool.txt	LTP104	ltpFR	19	1	0	PERSONNEL	1053	n/a	1	n/a	n/a	n/a	n/a	n/a
351.766	n/a	REC_WORD	175883	wordpools/wasnorm_wordpool.txt	LTP104	ltpFR	19	1	n/a	EMPLOYEE	531	n/a	n/a	n/a	n/a	n/a	n/a	n/a
356.966	n/a	REC_WORD	178483	wordpools/wasnorm_wordpool.txt	LTP104	ltpFR	19	1	0	PEPPER	1047	n/a	0	n/a	n/a	n/a	n/a	n/a
358.082	n/a	REC_WORD	179041	wordpools/wasnorm_wordpool.txt	LTP104	ltpFR	19	1	n/a	SALT	1229	n/a	n/a	n/a	n/a	n/a	n/a	n/a
399.112	n/a	WORD	199556	wordpools/wasnorm_wordpool.txt	LTP104	ltpFR	19	2	0	LUMBER	848	n/a	1	1	0.412841796875	0.57763671875	upper	../fonts/zerothre.ttf
403.262	n/a	WORD	201631	wordpools/wasnorm_wordpool.txt	LTP104	ltpFR	19	2	0	CLERK	321	n/a	1	1	0.412841796875	0.57763671875	upper	../fonts/zerothre.ttf
407.418	n/a	WORD	203709	wordpools/wasnorm_wordpool.txt	LTP104	ltpFR	19	2	1	TRICYCLE	1506	n/a	0	0	0.5869140625	0.422607421875	lower	../fonts/amplitud.ttf
411.51	n/a	WORD	205755	wordpools/wasnorm_wordpool.txt	LTP104	ltpFR	19	2	1	BABY	64	n/a	1	0	0.5869140625	0.422607421875	lower	../fonts/amplitud.ttf
415.328	n/a	WORD	207664	wordpools/wasnorm_wordpool.txt	LTP104	ltpFR	19	2	1	ENCYCLOPEDIA	533	n/a	0	0	0.5869140625	0.422607421875	lower	../fonts/amplitud.ttf
419.204	n/a	WORD	209602	wordpools/wasnorm_wordpool.txt	LTP104	ltpFR	19	2	1	HOUND	724	n/a	1	0	0.5869140625	0.422607421875	lower	../fonts/amplitud.ttf
423.286	n/a	WORD	211643	wordpools/wasnorm_wordpool.txt	LTP104	ltpFR	19	2	0	DILL	465	n/a	0	1	0.412841796875	0.57763671875	upper	../fonts/zerothre.ttf
427.136	n/a	WORD	213568	wordpools/wasnorm_wordpool.txt	LTP104	ltpFR	19	2	0	COLLEGE	346	n/a	1	1	0.412841796875	0.57763671875	upper	../fonts/zerothre.ttf
431.318	n/a	WORD	215659	wordpools/wasnorm_wordpool.txt	LTP104	ltpFR	19	2	0	PUPIL	1143	n/a	0	1	0.412841796875	0.57763671875	upper	../fonts/zerothre.ttf
435.392	n/a	WORD	217696	wordpools/wasnorm_wordpool.txt	LTP104	ltpFR	19	2	0	INSECT	740	n/a	0	1	0.412841796875	0.57763671875	upper	../fonts/zerothre.ttf
439.484	n/a	WORD	219742	wordpools/wasnorm_wordpool.txt	LTP104	ltpFR	19	2	0	BEETLE	116	n/a	0	1	0.412841796875	0.57763671875	upper	../fonts/zerothre.ttf
443.302	n/a	WORD	221651	wordpools/wasnorm_wordpool.txt	LTP104	ltpFR	19	2	0	RECEPTIONIST	1174	n/a	1	1	0.412841796875	0.57763671875	upper	../fonts/zerothre.ttf
447.352	n/a	WORD	223676	wordpools/wasnorm_wordpool.txt	LTP104	ltpFR	19	2	1	PISTON	1076	n/a	0	0	0.5869140625	0.422607421875	lower	../fonts/amplitud.ttf
451.4	n/a	WORD	225700	wordpools/wasnorm_wordpool.txt	LTP104	ltpFR	19	2	1	CABIN	211	n/a	0	0	0.5869140625	0.422607421875	lower	../fonts/amplitud.ttf
455.268	n/a	WORD	227634	wordpools/wasnorm_wordpool.txt	LTP104	ltpFR	19	2	1	SPY	1360	n/a	1	0	0.5869140625	0.422607421875	lower	../fonts/amplitud.ttf
459.178	n/a	WORD	229589	wordpools/wasnorm_wordpool.txt	LTP104	ltpFR	19	2	1	SHERIFF	1284	n/a	1	0	0.5869140625	0.422607421875	lower	../fonts/amplitud.ttf
464.978	n/a	REC_START	232489	n/a	LTP104	ltpFR	19	2	n/a	n/a	n/a	n/a	n/a	n/a	n/a	n/a	n/a	n/a
470.904	n/a	REC_WORD	235452	wordpools/wasnorm_wordpool.txt	LTP104	ltpFR	19	2	0	CLERK	321	n/a	1	n/a	n/a	n/a	n/a	n/a
472.62	n/a	REC_WORD	236310	wordpools/wasnorm_wordpool.txt	LTP104	ltpFR	19	2	0	LUMBER	848	n/a	1	n/a	n/a	n/a	n/a	n/a
474.006	n/a	REC_WORD	237003	wordpools/wasnorm_wordpool.txt	LTP104	ltpFR	19	2	n/a	JACK	-1	n/a	n/a	n/a	n/a	n/a	n/a	n/a
477.774	n/a	REC_WORD	238887	wordpools/wasnorm_wordpool.txt	LTP104	ltpFR	19	2	0	RECEPTIONIST	1174	n/a	1	n/a	n/a	n/a	n/a	n/a
480.064	n/a	REC_WORD	240032	wordpools/wasnorm_wordpool.txt	LTP104	ltpFR	19	2	1	BABY	64	n/a	1	n/a	n/a	n/a	n/a	n/a
481.352	n/a	REC_WORD	240676	wordpools/wasnorm_wordpool.txt	LTP104	ltpFR	19	2	1	TRICYCLE	1506	n/a	0	n/a	n/a	n/a	n/a	n/a
482.544	n/a	REC_WORD	241272	wordpools/wasnorm_wordpool.txt	LTP104	ltpFR	19	2	1	HOUND	724	n/a	1	n/a	n/a	n/a	n/a	n/a
484.838	n/a	REC_WORD	242419	wordpools/wasnorm_wordpool.txt	LTP104	ltpFR	19	2	n/a	DOG	480	n/a	n/a	n/a	n/a	n/a	n/a	n/a
492.56	n/a	REC_WORD	246280	wordpools/wasnorm_wordpool.txt	LTP104	ltpFR	19	2	0	COLLEGE	346	n/a	1	n/a	n/a	n/a	n/a	n/a
494.042	n/a	REC_WORD	247021	wordpools/wasnorm_wordpool.txt	LTP104	ltpFR	19	2	0	PUPIL	1143	n/a	0	n/a	n/a	n/a	n/a	n/a
496.992	n/a	REC_WORD	248496	wordpools/wasnorm_wordpool.txt	LTP104	ltpFR	19	2	0	INSECT	740	n/a	0	n/a	n/a	n/a	n/a	n/a
498.268	n/a	REC_WORD	249134	wordpools/wasnorm_wordpool.txt	LTP104	ltpFR	19	2	0	BEETLE	116	n/a	0	n/a	n/a	n/a	n/a	n/a
499.476	n/a	REC_WORD	249738	wordpools/wasnorm_wordpool.txt	LTP104	ltpFR	19	2	n/a	CRUSH	-1	n/a	n/a	n/a	n/a	n/a	n/a	n/a
506.176	n/a	REC_WORD	253088	wordpools/wasnorm_wordpool.txt	LTP104	ltpFR	19	2	0	RECEPTIONIST	1174	n/a	1	n/a	n/a	n/a	n/a	n/a
507.946	n/a	REC_WORD	253973	wordpools/wasnorm_wordpool.txt	LTP104	ltpFR	19	2	1	CABIN	211	n/a	0	n/a	n/a	n/a	n/a	n/a
509.228	n/a	REC_WORD	254614	wordpools/wasnorm_wordpool.txt	LTP104	ltpFR	19	2	n/a	SNOW	-1	n/a	n/a	n/a	n/a	n/a	n/a	n/a
510.716	n/a	REC_WORD	255358	wordpools/wasnorm_wordpool.txt	LTP104	ltpFR	19	2	1	PISTON	1076	n/a	0	n/a	n/a	n/a	n/a	n/a
511.948	n/a	REC_WORD	255974	wordpools/wasnorm_wordpool.txt	LTP104	ltpFR	19	2	1	SPY	1360	n/a	1	n/a	n/a	n/a	n/a	n/a
548.414	n/a	WORD	274207	wordpools/wasnorm_wordpool.txt	LTP104	ltpFR	19	3	0	GALAXY	617	n/a	1	1	0.412841796875	0.57763671875	upper	../fonts/zerothre.ttf
552.522	n/a	WORD	276261	wordpools/wasnorm_wordpool.txt	LTP104	ltpFR	19	3	0	WAREHOUSE	1588	n/a	1	1	0.412841796875	0.57763671875	upper	../fonts/zerothre.ttf
556.432	n/a	WORD	278216	wordpools/wasnorm_wordpool.txt	LTP104	ltpFR	19	3	0	GOWN	652	n/a	0	1	0.412841796875	0.57763671875	upper	../fonts/zerothre.ttf
560.498	n/a	WORD	280249	wordpools/wasnorm_wordpool.txt	LTP104	ltpFR	19	3	0	SWAMP	1416	n/a	1	1	0.412841796875	0.57763671875	upper	../fonts/zerothre.ttf
564.406	n/a	WORD	282203	wordpools/wasnorm_wordpool.txt	LTP104	ltpFR	19	3	0	POTATO	1115	n/a	0	1	0.412841796875	0.57763671875	upper	../fonts/zerothre.ttf
568.44	n/a	WORD	284220	wordpools/wasnorm_wordpool.txt	LTP104	ltpFR	19	3	0	SCALLOP	1242	n/a	0	1	0.412841796875	0.57763671875	upper	../fonts/zerothre.ttf
572.522	n/a	WORD	286261	wordpools/wasnorm_wordpool.txt	LTP104	ltpFR	19	3	0	FLOOR	581	n/a	1	1	0.412841796875	0.57763671875	upper	../fonts/zerothre.ttf
576.448	n/a	WORD	288224	wordpools/wasnorm_wordpool.txt	LTP104	ltpFR	19	3	0	UNCLE	1536	n/a	1	1	0.412841796875	0.57763671875	upper	../fonts/zerothre.ttf
580.266	n/a	WORD	290133	wordpools/wasnorm_wordpool.txt	LTP104	ltpFR	19	3	0	VET	1560	n/a	1	1	0.412841796875	0.57763671875	upper	../fonts/zerothre.ttf
584.106	n/a	WORD	292053	wordpools/wasnorm_wordpool.txt	LTP104	ltpFR	19	3	0	TAIL	1430	n/a	1	1	0.412841796875	0.57763671875	upper	../fonts/zerothre.ttf
588.024	n/a	WORD	294012	wordpools/wasnorm_wordpool.txt	LTP104	ltpFR	19	3	0	WALLET	1583	n/a	0	1	0.412841796875	0.57763671875	upper	../fonts/zerothre.ttf
592.182	n/a	WORD	296091	wordpools/wasnorm_wordpool.txt	LTP104	ltpFR	19	3	0	CROSS	413	n/a	0	1	0.412841796875	0.57763671875	upper	../fonts/zerothre.ttf
596.274	n/a	WORD	298137	wordpools/wasnorm_wordpool.txt	LTP104	ltpFR	19	3	0	COUSIN	392	n/a	1	1	0.412841796875	0.57763671875	upper	../fonts/zerothre.ttf
600.256	n/a	WORD	300128	wordpools/wasnorm_wordpool.txt	LTP104	ltpFR	19	3	0	PLANT	1083	n/a	1	1	0.412841796875	0.57763671875	upper	../fonts/zerothre.ttf
604.248	n/a	WORD	302124	wordpools/wasnorm_wordpool.txt	LTP104	ltpFR	19	3	0	SUIT	1402	n/a	1	1	0.412841796875	0.57763671875	upper	../fonts/zerothre.ttf
608.114	n/a	WORD	304057	wordpools/wasnorm_wordpool.txt	LTP104	ltpFR	19	3	0	PICNIC	1060	n/a	1	1	0.412841796875	0.57763671875	upper	../fonts/zerothre.ttf
613.982	n/a	REC_START	306991	n/a	LTP104	ltpFR	19	3	n/a	n/a	n/a	n/a	n/a	n/a	n/a	n/a	n/a	n/a
616.128	n/a	REC_WORD	308064	wordpools/wasnorm_wordpool.txt	LTP104	ltpFR	19	3	0	PICNIC	1060	n/a	1	n/a	n/a	n/a	n/a	n/a
618.472	n/a	REC_WORD	309236	wordpools/wasnorm_wordpool.txt	LTP104	ltpFR	19	3	n/a	BLANKET	135	n/a	n/a	n/a	n/a	n/a	n/a	n/a
620.982	n/a	REC_WORD	310491	wordpools/wasnorm_wordpool.txt	LTP104	ltpFR	19	3	0	GALAXY	617	n/a	1	n/a	n/a	n/a	n/a	n/a
622.198	n/a	REC_WORD	311099	wordpools/wasnorm_wordpool.txt	LTP104	ltpFR	19	3	n/a	MILKYWAY	-1	n/a	n/a	n/a	n/a	n/a	n/a	n/a
626.38	n/a	REC_WORD	313190	wordpools/wasnorm_wordpool.txt	LTP104	ltpFR	19	3	0	WAREHOUSE	1588	n/a	1	n/a	n/a	n/a	n/a	n/a
627.94	n/a	REC_WORD	313970	wordpools/wasnorm_wordpool.txt	LTP104	ltpFR	19	3	0	GOWN	652	n/a	0	n/a	n/a	n/a	n/a	n/a
628.864	n/a	REC_WORD	314432	wordpools/wasnorm_wordpool.txt	LTP104	ltpFR	19	3	0	SWAMP	1416	n/a	1	n/a	n/a	n/a	n/a	n/a
632.586	n/a	REC_WORD	316293	wordpools/wasnorm_wordpool.txt	LTP104	ltpFR	19	3	0	POTATO	1115	n/a	0	n/a	n/a	n/a	n/a	n/a
633.824	n/a	REC_WORD	316912	wordpools/wasnorm_wordpool.txt	LTP104	ltpFR	19	3	n/a	COUCH	386	n/a	n/a	n/a	n/a	n/a	n/a	n/a
635.794	n/a	REC_WORD	317897	wordpools/wasnorm_wordpool.txt	LTP104	ltpFR	19	3	0	SCALLOP	1242	n/a	0	n/a	n/a	n/a	n/a	n/a
637.226	n/a	REC_WORD	318613	wordpools/wasnorm_wordpool.txt	LTP104	ltpFR	19	3	0	FLOOR	581	n/a	1	n/a	n/a	n/a	n/a	n/a
641.082	n/a	REC_WORD	320541	wordpools/wasnorm_wordpool.txt	LTP104	ltpFR	19	3	0	UNCLE	1536	n/a	1	n/a	n/a	n/a	n/a	n/a
642.348	n/a	REC_WORD	321174	wordpools/wasnorm_wordpool.txt	LTP104	ltpFR	19	3	0	VET	1560	n/a	1	n/a	n/a	n/a	n/a	n/a
644.26	n/a	REC_WORD	322130	wordpools/wasnorm_wordpool.txt	LTP104	ltpFR	19	3	0	TAIL	1430	n/a	1	n/a	n/a	n/a	n/a	n/a
645.81	n/a	REC_WORD	322905	wordpools/wasnorm_wordpool.txt	LTP104	ltpFR	19	3	n/a	WAG	-1	n/a	n/a	n/a	n/a	n/a	n/a	n/a
647.342	n/a	REC_WORD	323671	wordpools/wasnorm_wordpool.txt	LTP104	ltpFR	19	3	0	WALLET	1583	n/a	0	n/a	n/a	n/a	n/a	n/a
648.654	n/a	REC_WORD	324327	wordpools/wasnorm_wordpool.txt	LTP104	ltpFR	19	3	n/a	MONEY	908	n/a	n/a	n/a	n/a	n/a	n/a	n/a
649.982	n/a	REC_WORD	324991	wordpools/wasnorm_wordpool.txt	LTP104	ltpFR	19	3	n/a	BILLFOLD	-1	n/a	n/a	n/a	n/a	n/a	n/a	n/a
657.79	n/a	REC_WORD	328895	wordpools/wasnorm_wordpool.txt	LTP104	ltpFR	19	3	0	COUSIN	392	n/a	1	n/a	n/a	n/a	n/a	n/a
663.172	n/a	REC_WORD	331586	wordpools/wasnorm_wordpool.txt	LTP104	ltpFR	19	3	n/a	PARTY	1018	n/a	n/a	n/a	n/a	n/a	n/a	n/a
666.53	n/a	REC_WORD	333265	wordpools/wasnorm_wordpool.txt	LTP104	ltpFR	19	3	0	PICNIC	1060	n/a	1	n/a	n/a	n/a	n/a	n/a
676.368	n/a	REC_WORD	338184	wordpools/wasnorm_wordpool.txt	LTP104	ltpFR	19	3	0	CROSS	413	n/a	0	n/a	n/a	n/a	n/a	n/a
680.704	n/a	REC_WORD	340352	wordpools/wasnorm_wordpool.txt	LTP104	ltpFR	19	3	0	PLANT	1083	n/a	1	n/a	n/a	n/a	n/a	n/a
682.47	n/a	REC_WORD	341235	wordpools/wasnorm_wordpool.txt	LTP104	ltpFR	19	3	n/a	TREE	1502	n/a	n/a	n/a	n/a	n/a	n/a	n/a
693.636	n/a	WORD	346818	wordpools/wasnorm_wordpool.txt	LTP104	ltpFR	19	4	1	LAGOON	795	n/a	0	0	0.5869140625	0.422607421875	lower	../fonts/amplitud.ttf
697.494	n/a	WORD	348747	wordpools/wasnorm_wordpool.txt	LTP104	ltpFR	19	4	1	BENCH	121	n/a	0	0	0.5869140625	0.422607421875	lower	../fonts/amplitud.ttf
701.602	n/a	WORD	350801	wordpools/wasnorm_wordpool.txt	LTP104	ltpFR	19	4	1	LIVER	833	n/a	0	0	0.5869140625	0.422607421875	lower	../fonts/amplitud.ttf
705.51	n/a	WORD	352755	wordpools/wasnorm_wordpool.txt	LTP104	ltpFR	19	4	1	PENGUIN	1044	n/a	1	0	0.5869140625	0.422607421875	lower	../fonts/amplitud.ttf
709.378	n/a	WORD	354689	wordpools/wasnorm_wordpool.txt	LTP104	ltpFR	19	4	0	WINGS	1614	n/a	0	1	0.412841796875	0.57763671875	upper	../fonts/zerothre.ttf
713.37	n/a	WORD	356685	wordpools/wasnorm_wordpool.txt	LTP104	ltpFR	19	4	0	BASKET	95	n/a	1	1	0.412841796875	0.57763671875	upper	../fonts/zerothre.ttf
717.444	n/a	WORD	358722	wordpools/wasnorm_wordpool.txt	LTP104	ltpFR	19	4	1	CIGARETTE	309	n/a	2	0	0.5869140625	0.422607421875	lower	../fonts/amplitud.ttf
719.162	n/a	KEY_MSG	359581	n/a	LTP104	ltpFR	19	4	n/a	n/a	n/a	n/a	n/a	n/a	n/a	n/a	n/a	n/a
721.628	n/a	WORD	360814	wordpools/wasnorm_wordpool.txt	LTP104	ltpFR	19	4	1	STEAM	1375	n/a	0	0	0.5869140625	0.422607421875	lower	../fonts/amplitud.ttf
725.644	n/a	WORD	362822	wordpools/wasnorm_wordpool.txt	LTP104	ltpFR	19	4	0	WHALE	1601	n/a	1	1	0.412841796875	0.57763671875	upper	../fonts/zerothre.ttf
729.46	n/a	WORD	364730	wordpools/wasnorm_wordpool.txt	LTP104	ltpFR	19	4	0	COUNTRY	388	n/a	1	1	0.412841796875	0.57763671875	upper	../fonts/zerothre.ttf
733.644	n/a	WORD	366822	wordpools/wasnorm_wordpool.txt	LTP104	ltpFR	19	4	0	THICKET	1455	n/a	1	1	0.412841796875	0.57763671875	upper	../fonts/zerothre.ttf
737.802	n/a	WORD	368901	wordpools/wasnorm_wordpool.txt	LTP104	ltpFR	19	4	0	TREE	1502	n/a	1	1	0.412841796875	0.57763671875	upper	../fonts/zerothre.ttf
741.944	n/a	WORD	370972	wordpools/wasnorm_wordpool.txt	LTP104	ltpFR	19	4	0	PLANE	1081	n/a	1	1	0.412841796875	0.57763671875	upper	../fonts/zerothre.ttf
746.028	n/a	WORD	373014	wordpools/wasnorm_wordpool.txt	LTP104	ltpFR	19	4	0	PERCH	1048	n/a	1	1	0.412841796875	0.57763671875	upper	../fonts/zerothre.ttf
750.012	n/a	WORD	375006	wordpools/wasnorm_wordpool.txt	LTP104	ltpFR	19	4	1	JAPAN	749	n/a	0	0	0.5869140625	0.422607421875	lower	../fonts/amplitud.ttf
754.102	n/a	WORD	377051	wordpools/wasnorm_wordpool.txt	LTP104	ltpFR	19	4	1	LAMB	797	n/a	1	0	0.5869140625	0.422607421875	lower	../fonts/amplitud.ttf
760.062	n/a	REC_START	380031	n/a	LTP104	ltpFR	19	4	n/a	n/a	n/a	n/a	n/a	n/a	n/a	n/a	n/a	n/a
761.128	n/a	REC_WORD	380564	wordpools/wasnorm_wordpool.txt	LTP104	ltpFR	19	4	1	JAPAN	749	n/a	0	n/a	n/a	n/a	n/a	n/a
762.392	n/a	REC_WORD	381196	wordpools/wasnorm_wordpool.txt	LTP104	ltpFR	19	4	n/a	ASIA	46	n/a	n/a	n/a	n/a	n/a	n/a	n/a
763.732	n/a	REC_WORD	381866	wordpools/wasnorm_wordpool.txt	LTP104	ltpFR	19	4	n/a	SUSHI	-1	n/a	n/a	n/a	n/a	n/a	n/a	n/a
764.98	n/a	REC_WORD	382490	wordpools/wasnorm_wordpool.txt	LTP104	ltpFR	19	4	1	LAMB	797	n/a	1	n/a	n/a	n/a	n/a	n/a
766.26	n/a	REC_WORD	383130	wordpools/wasnorm_wordpool.txt	LTP104	ltpFR	19	4	n/a	KABOB	-1	n/a	n/a	n/a	n/a	n/a	n/a	n/a
783.664	n/a	REC_WORD	391832	wordpools/wasnorm_wordpool.txt	LTP104	ltpFR	19	4	1	LAGOON	795	n/a	0	n/a	n/a	n/a	n/a	n/a
785.894	n/a	REC_WORD	392947	wordpools/wasnorm_wordpool.txt	LTP104	ltpFR	19	4	1	BENCH	121	n/a	0	n/a	n/a	n/a	n/a	n/a
787.514	n/a	REC_WORD	393757	wordpools/wasnorm_wordpool.txt	LTP104	ltpFR	19	4	1	LIVER	833	n/a	0	n/a	n/a	n/a	n/a	n/a
790.938	n/a	REC_WORD	395469	wordpools/wasnorm_wordpool.txt	LTP104	ltpFR	19	4	n/a	PARK	-1	n/a	n/a	n/a	n/a	n/a	n/a	n/a
797.368	n/a	REC_WORD	398684	wordpools/wasnorm_wordpool.txt	LTP104	ltpFR	19	4	0	PERCH	1048	n/a	1	n/a	n/a	n/a	n/a	n/a
798.6	n/a	REC_WORD	399300	wordpools/wasnorm_wordpool.txt	LTP104	ltpFR	19	4	0	PLANE	1081	n/a	1	n/a	n/a	n/a	n/a	n/a
803.454	n/a	REC_WORD	401727	wordpools/wasnorm_wordpool.txt	LTP104	ltpFR	19	4	0	COUNTRY	388	n/a	1	n/a	n/a	n/a	n/a	n/a
804.526	n/a	REC_WORD	402263	wordpools/wasnorm_wordpool.txt	LTP104	ltpFR	19	4	0	THICKET	1455	n/a	1	n/a	n/a	n/a	n/a	n/a
813.712	n/a	REC_WORD	406856	wordpools/wasnorm_wordpool.txt	LTP104	ltpFR	19	4	n/a	DISCUSSION	-1	n/a	n/a	n/a	n/a	n/a	n/a	n/a
819.828	n/a	REC_WORD	409914	wordpools/wasnorm_wordpool.txt	LTP104	ltpFR	19	4	0	WHALE	1601	n/a	1	n/a	n/a	n/a	n/a	n/a
821.44	n/a	REC_WORD	410720	wordpools/wasnorm_wordpool.txt	LTP104	ltpFR	19	4	0	TAIL	1430	n/a	1	n/a	n/a	n/a	n/a	n/a
829.024	n/a	REC_WORD	414512	wordpools/wasnorm_wordpool.txt	LTP104	ltpFR	19	4	1	PENGUIN	1044	n/a	1	n/a	n/a	n/a	n/a	n/a
838.25	n/a	WORD	419125	wordpools/wasnorm_wordpool.txt	LTP104	ltpFR	19	5	1	FOUNTAIN	597	n/a	0	0	0.5869140625	0.422607421875	lower	../fonts/amplitud.ttf
842.366	n/a	WORD	421183	wordpools/wasnorm_wordpool.txt	LTP104	ltpFR	19	5	1	DOLL	481	n/a	0	0	0.5869140625	0.422607421875	lower	../fonts/amplitud.ttf
846.474	n/a	WORD	423237	wordpools/wasnorm_wordpool.txt	LTP104	ltpFR	19	5	1	OWNER	993	n/a	1	0	0.5869140625	0.422607421875	lower	../fonts/amplitud.ttf
850.308	n/a	WORD	425154	wordpools/wasnorm_wordpool.txt	LTP104	ltpFR	19	5	1	FRECKLE	602	n/a	0	0	0.5869140625	0.422607421875	lower	../fonts/amplitud.ttf
854.308	n/a	WORD	427154	wordpools/wasnorm_wordpool.txt	LTP104	ltpFR	19	5	1	WHISKERS	1605	n/a	0	0	0.5869140625	0.422607421875	lower	../fonts/amplitud.ttf
858.158	n/a	WORD	429079	wordpools/wasnorm_wordpool.txt	LTP104	ltpFR	19	5	1	SHAMPOO	1274	n/a	0	0	0.5869140625	0.422607421875	lower	../fonts/amplitud.ttf
861.966	n/a	WORD	430983	wordpools/wasnorm_wordpool.txt	LTP104	ltpFR	19	5	1	TURNIP	1521	n/a	0	0	0.5869140625	0.422607421875	lower	../fonts/amplitud.ttf
865.816	n/a	WORD	432908	wordpools/wasnorm_wordpool.txt	LTP104	ltpFR	19	5	1	SEAL	1262	n/a	1	0	0.5869140625	0.422607421875	lower	../fonts/amplitud.ttf
869.824	n/a	WORD	434912	wordpools/wasnorm_wordpool.txt	LTP104	ltpFR	19	5	1	LIMB	822	n/a	0	0	0.5869140625	0.422607421875	lower	../fonts/amplitud.ttf
873.9	n/a	WORD	436950	wordpools/wasnorm_wordpool.txt	LTP104	ltpFR	19	5	1	LEG	809	n/a	0	0	0.5869140625	0.422607421875	lower	../fonts/amplitud.ttf
878.05	n/a	WORD	439025	wordpools/wasnorm_wordpool.txt	LTP104	ltpFR	19	5	1	GROUND	666	n/a	1	0	0.5869140625	0.422607421875	lower	../fonts/amplitud.ttf
882.256	n/a	WORD	441128	wordpools/wasnorm_wordpool.txt	LTP104	ltpFR	19	5	1	MAP	865	n/a	0	0	0.5869140625	0.422607421875	lower	../fonts/amplitud.ttf
886.35	n/a	WORD	443175	wordpools/wasnorm_wordpool.txt	LTP104	ltpFR	19	5	1	KID	775	n/a	1	0	0.5869140625	0.422607421875	lower	../fonts/amplitud.ttf
890.406	n/a	WORD	445203	wordpools/wasnorm_wordpool.txt	LTP104	ltpFR	19	5	1	UMPIRE	1535	n/a	1	0	0.5869140625	0.422607421875	lower	../fonts/amplitud.ttf
894.258	n/a	WORD	447129	wordpools/wasnorm_wordpool.txt	LTP104	ltpFR	19	5	1	DIVER	476	n/a	1	0	0.5869140625	0.422607421875	lower	../fonts/amplitud.ttf
898.324	n/a	WORD	449162	wordpools/wasnorm_wordpool.txt	LTP104	ltpFR	19	5	1	COIN	343	n/a	0	0	0.5869140625	0.422607421875	lower	../fonts/amplitud.ttf
903.958	n/a	REC_START	451979	n/a	LTP104	ltpFR	19	5	n/a	n/a	n/a	n/a	n/a	n/a	n/a	n/a	n/a	n/a
905.37	n/a	REC_WORD	452685	wordpools/wasnorm_wordpool.txt	LTP104	ltpFR	19	5	1	COIN	343	n/a	0	n/a	n/a	n/a	n/a	n/a
906.568	n/a	REC_WORD	453284	wordpools/wasnorm_wordpool.txt	LTP104	ltpFR	19	5	n/a	PENNY	1045	n/a	n/a	n/a	n/a	n/a	n/a	n/a
908.558	n/a	REC_WORD	454279	wordpools/wasnorm_wordpool.txt	LTP104	ltpFR	19	5	1	DIVER	476	n/a	1	n/a	n/a	n/a	n/a	n/a
910.14	n/a	REC_WORD	455070	wordpools/wasnorm_wordpool.txt	LTP104	ltpFR	19	5	1	UMPIRE	1535	n/a	1	n/a	n/a	n/a	n/a	n/a
911.676	n/a	REC_WORD	455838	wordpools/wasnorm_wordpool.txt	LTP104	ltpFR	19	5	n/a	BASEBALL	93	n/a	n/a	n/a	n/a	n/a	n/a	n/a
913.232	n/a	REC_WORD	456616	wordpools/wasnorm_wordpool.txt	LTP104	ltpFR	19	5	n/a	REFEREE	1178	n/a	n/a	n/a	n/a	n/a	n/a	n/a
915.576	n/a	REC_WORD	457788	wordpools/wasnorm_wordpool.txt	LTP104	ltpFR	19	5	1	FOUNTAIN	597	n/a	0	n/a	n/a	n/a	n/a	n/a
916.764	n/a	REC_WORD	458382	wordpools/wasnorm_wordpool.txt	LTP104	ltpFR	19	5	1	DOLL	481	n/a	0	n/a	n/a	n/a	n/a	n/a
918.68	n/a	REC_WORD	459340	wordpools/wasnorm_wordpool.txt	LTP104	ltpFR	19	5	1	OWNER	993	n/a	1	n/a	n/a	n/a	n/a	n/a
920.49	n/a	REC_WORD	460245	wordpools/wasnorm_wordpool.txt	LTP104	ltpFR	19	5	n/a	CAR	241	n/a	n/a	n/a	n/a	n/a	n/a	n/a
922.71	n/a	REC_WORD	461355	wordpools/wasnorm_wordpool.txt	LTP104	ltpFR	19	5	1	FRECKLE	602	n/a	0	n/a	n/a	n/a	n/a	n/a
924.942	n/a	REC_WORD	462471	wordpools/wasnorm_wordpool.txt	LTP104	ltpFR	19	5	1	KID	775	n/a	1	n/a	n/a	n/a	n/a	n/a
933.232	n/a	REC_WORD	466616	wordpools/wasnorm_wordpool.txt	LTP104	ltpFR	19	5	1	TURNIP	1521	n/a	0	n/a	n/a	n/a	n/a	n/a
992.222	n/a	WORD	496111	wordpools/wasnorm_wordpool.txt	LTP104	ltpFR	19	6	-1	BLUEPRINT	142	n/a	-1	1	1.0	1.0	upper	../fonts/Verdana.ttf
996.062	n/a	WORD	498031	wordpools/wasnorm_wordpool.txt	LTP104	ltpFR	19	6	-1	ADOLESCENT	7	n/a	-1	1	1.0	1.0	upper	../fonts/Verdana.ttf
999.954	n/a	WORD	499977	wordpools/wasnorm_wordpool.txt	LTP104	ltpFR	19	6	-1	BALLOON	75	n/a	-1	1	1.0	1.0	upper	../fonts/Verdana.ttf
1003.838	n/a	WORD	501919	wordpools/wasnorm_wordpool.txt	LTP104	ltpFR	19	6	-1	WITNESS	1618	n/a	-1	1	1.0	1.0	upper	../fonts/Verdana.ttf
1007.686	n/a	WORD	503843	wordpools/wasnorm_wordpool.txt	LTP104	ltpFR	19	6	-1	ATTORNEY	58	n/a	-1	1	1.0	1.0	upper	../fonts/Verdana.ttf
1011.896	n/a	WORD	505948	wordpools/wasnorm_wordpool.txt	LTP104	ltpFR	19	6	-1	TWEEZERS	1526	n/a	-1	1	1.0	1.0	upper	../fonts/Verdana.ttf
1016.086	n/a	WORD	508043	wordpools/wasnorm_wordpool.txt	LTP104	ltpFR	19	6	-1	ROOF	1205	n/a	-1	1	1.0	1.0	upper	../fonts/Verdana.ttf
1019.936	n/a	WORD	509968	wordpools/wasnorm_wordpool.txt	LTP104	ltpFR	19	6	-1	SKATE	1313	n/a	-1	1	1.0	1.0	upper	../fonts/Verdana.ttf
1023.988	n/a	WORD	511994	wordpools/wasnorm_wordpool.txt	LTP104	ltpFR	19	6	-1	TERMITE	1451	n/a	-1	1	1.0	1.0	upper	../fonts/Verdana.ttf
1027.938	n/a	WORD	513969	wordpools/wasnorm_wordpool.txt	LTP104	ltpFR	19	6	-1	LITTER	832	n/a	-1	1	1.0	1.0	upper	../fonts/Verdana.ttf
1032.02	n/a	WORD	516010	wordpools/wasnorm_wordpool.txt	LTP104	ltpFR	19	6	-1	SURF	1412	n/a	-1	1	1.0	1.0	upper	../fonts/Verdana.ttf
1036.044	n/a	WORD	518022	wordpools/wasnorm_wordpool.txt	LTP104	ltpFR	19	6	-1	NITROGEN	954	n/a	-1	1	1.0	1.0	upper	../fonts/Verdana.ttf
1039.862	n/a	WORD	519931	wordpools/wasnorm_wordpool.txt	LTP104	ltpFR	19	6	-1	BEAKER	104	n/a	-1	1	1.0	1.0	upper	../fonts/Verdana.ttf
1044.036	n/a	WORD	522018	wordpools/wasnorm_wordpool.txt	LTP104	ltpFR	19	6	-1	BUCKET	184	n/a	-1	1	1.0	1.0	upper	../fonts/Verdana.ttf
1047.894	n/a	WORD	523947	wordpools/wasnorm_wordpool.txt	LTP104	ltpFR	19	6	-1	LINT	826	n/a	-1	1	1.0	1.0	upper	../fonts/Verdana.ttf
1051.986	n/a	WORD	525993	wordpools/wasnorm_wordpool.txt	LTP104	ltpFR	19	6	-1	DESIGNER	451	n/a	-1	1	1.0	1.0	upper	../fonts/Verdana.ttf
1057.678	n/a	REC_START	528839	n/a	LTP104	ltpFR	19	6	n/a	n/a	n/a	n/a	n/a	n/a	n/a	n/a	n/a	n/a
1059.632	n/a	REC_WORD	529816	wordpools/wasnorm_wordpool.txt	LTP104	ltpFR	19	6	-1	ADOLESCENT	7	n/a	-1	n/a	n/a	n/a	n/a	n/a
1060.88	n/a	REC_WORD	530440	wordpools/wasnorm_wordpool.txt	LTP104	ltpFR	19	6	n/a	TEENAGER	1444	n/a	n/a	n/a	n/a	n/a	n/a	n/a
1062.144	n/a	REC_WORD	531072	wordpools/wasnorm_wordpool.txt	LTP104	ltpFR	19	6	n/a	JUVENILE	767	n/a	n/a	n/a	n/a	n/a	n/a	n/a
1063.516	n/a	REC_WORD	531758	wordpools/wasnorm_wordpool.txt	LTP104	ltpFR	19	6	-1	BLUEPRINT	142	n/a	-1	n/a	n/a	n/a	n/a	n/a
1065.162	n/a	REC_WORD	532581	wordpools/wasnorm_wordpool.txt	LTP104	ltpFR	19	6	n/a	PLAN	-1	n/a	n/a	n/a	n/a	n/a	n/a	n/a
1066.708	n/a	REC_WORD	533354	wordpools/wasnorm_wordpool.txt	LTP104	ltpFR	19	6	-1	BALLOON	75	n/a	-1	n/a	n/a	n/a	n/a	n/a
1071.082	n/a	REC_WORD	535541	wordpools/wasnorm_wordpool.txt	LTP104	ltpFR	19	6	-1	TWEEZERS	1526	n/a	-1	n/a	n/a	n/a	n/a	n/a
1081.31	n/a	REC_WORD	540655	wordpools/wasnorm_wordpool.txt	LTP104	ltpFR	19	6	-1	ROOF	1205	n/a	-1	n/a	n/a	n/a	n/a	n/a
1082.652	n/a	REC_WORD	541326	wordpools/wasnorm_wordpool.txt	LTP104	ltpFR	19	6	-1	TERMITE	1451	n/a	-1	n/a	n/a	n/a	n/a	n/a
1083.914	n/a	REC_WORD	541957	wordpools/wasnorm_wordpool.txt	LTP104	ltpFR	19	6	-1	LITTER	832	n/a	-1	n/a	n/a	n/a	n/a	n/a
1086.05	n/a	REC_WORD	543025	wordpools/wasnorm_wordpool.txt	LTP104	ltpFR	19	6	0	FLOOR	581	n/a	1	n/a	n/a	n/a	n/a	n/a
1088.39	n/a	REC_WORD	544195	wordpools/wasnorm_wordpool.txt	LTP104	ltpFR	19	6	1	GROUND	666	n/a	1	n/a	n/a	n/a	n/a	n/a
1103.476	n/a	REC_WORD	551738	wordpools/wasnorm_wordpool.txt	LTP104	ltpFR	19	6	-1	NITROGEN	954	n/a	-1	n/a	n/a	n/a	n/a	n/a
1107.222	n/a	REC_WORD	553611	wordpools/wasnorm_wordpool.txt	LTP104	ltpFR	19	6	n/a	ESCAPE	-1	n/a	n/a	n/a	n/a	n/a	n/a	n/a
1108.724	n/a	REC_WORD	554362	wordpools/wasnorm_wordpool.txt	LTP104	ltpFR	19	6	n/a	AIR	-1	n/a	n/a	n/a	n/a	n/a	n/a	n/a
1151.432	n/a	WORD	575716	wordpools/wasnorm_wordpool.txt	LTP104	ltpFR	19	7	-1	HANDKERCHIEF	686	n/a	-1	1	1.0	1.0	upper	../fonts/Verdana.ttf
1155.374	n/a	WORD	577687	wordpools/wasnorm_wordpool.txt	LTP104	ltpFR	19	7	-1	SKYSCRAPER	1322	n/a	-1	1	1.0	1.0	upper	../fonts/Verdana.ttf
1159.432	n/a	WORD	579716	wordpools/wasnorm_wordpool.txt	LTP104	ltpFR	19	7	-1	BAKER	71	n/a	-1	1	1.0	1.0	upper	../fonts/Verdana.ttf
1163.632	n/a	WORD	581816	wordpools/wasnorm_wordpool.txt	LTP104	ltpFR	19	7	-1	BUTTER	205	n/a	-1	1	1.0	1.0	upper	../fonts/Verdana.ttf
1167.548	n/a	WORD	583774	wordpools/wasnorm_wordpool.txt	LTP104	ltpFR	19	7	-1	RESORT	1186	n/a	-1	1	1.0	1.0	upper	../fonts/Verdana.ttf
1171.466	n/a	WORD	585733	wordpools/wasnorm_wordpool.txt	LTP104	ltpFR	19	7	-1	DUNE	506	n/a	-1	1	1.0	1.0	upper	../fonts/Verdana.ttf
1175.606	n/a	WORD	587803	wordpools/wasnorm_wordpool.txt	LTP104	ltpFR	19	7	-1	CRITIC	410	n/a	-1	1	1.0	1.0	upper	../fonts/Verdana.ttf
1179.658	n/a	WORD	589829	wordpools/wasnorm_wordpool.txt	LTP104	ltpFR	19	7	-1	VOLCANO	1575	n/a	-1	1	1.0	1.0	upper	../fonts/Verdana.ttf
1183.606	n/a	WORD	591803	wordpools/wasnorm_wordpool.txt	LTP104	ltpFR	19	7	-1	ROOM	1206	n/a	-1	1	1.0	1.0	upper	../fonts/Verdana.ttf
1187.632	n/a	WORD	593816	wordpools/wasnorm_wordpool.txt	LTP104	ltpFR	19	7	-1	MOVIE	927	n/a	-1	1	1.0	1.0	upper	../fonts/Verdana.ttf
1191.782	n/a	WORD	595891	wordpools/wasnorm_wordpool.txt	LTP104	ltpFR	19	7	-1	SUNSET	1408	n/a	-1	1	1.0	1.0	upper	../fonts/Verdana.ttf
1195.808	n/a	WORD	597904	wordpools/wasnorm_wordpool.txt	LTP104	ltpFR	19	7	-1	MILDEW	893	n/a	-1	1	1.0	1.0	upper	../fonts/Verdana.ttf
1199.84	n/a	WORD	599920	wordpools/wasnorm_wordpool.txt	LTP104	ltpFR	19	7	-1	INCENSE	735	n/a	-1	1	1.0	1.0	upper	../fonts/Verdana.ttf
1203.866	n/a	WORD	601933	wordpools/wasnorm_wordpool.txt	LTP104	ltpFR	19	7	-1	DIME	466	n/a	-1	1	1.0	1.0	upper	../fonts/Verdana.ttf
1208.016	n/a	WORD	604008	wordpools/wasnorm_wordpool.txt	LTP104	ltpFR	19	7	-1	ANT	25	n/a	-1	1	1.0	1.0	upper	../fonts/Verdana.ttf
1211.974	n/a	WORD	605987	wordpools/wasnorm_wordpool.txt	LTP104	ltpFR	19	7	-1	BUG	187	n/a	-1	1	1.0	1.0	upper	../fonts/Verdana.ttf
1217.924	n/a	REC_START	608962	n/a	LTP104	ltpFR	19	7	n/a	n/a	n/a	n/a	n/a	n/a	n/a	n/a	n/a	n/a
1219.242	n/a	REC_WORD	609621	wordpools/wasnorm_wordpool.txt	LTP104	ltpFR	19	7	-1	DIME	466	n/a	-1	n/a	n/a	n/a	n/a	n/a
1220.538	n/a	REC_WORD	610269	wordpools/wasnorm_wordpool.txt	LTP104	ltpFR	19	7	-1	ANT	25	n/a	-1	n/a	n/a	n/a	n/a	n/a
1221.67	n/a	REC_WORD	610835	wordpools/wasnorm_wordpool.txt	LTP104	ltpFR	19	7	-1	BUG	187	n/a	-1	n/a	n/a	n/a	n/a	n/a
1224.026	n/a	REC_WORD	612013	wordpools/wasnorm_wordpool.txt	LTP104	ltpFR	19	7	-1	BAKER	71	n/a	-1	n/a	n/a	n/a	n/a	n/a
1225.956	n/a	REC_WORD	612978	wordpools/wasnorm_wordpool.txt	LTP104	ltpFR	19	7	-1	BUTTER	205	n/a	-1	n/a	n/a	n/a	n/a	n/a
1227.322	n/a	REC_WORD	613661	wordpools/wasnorm_wordpool.txt	LTP104	ltpFR	19	7	-1	RESORT	1186	n/a	-1	n/a	n/a	n/a	n/a	n/a
1228.784	n/a	REC_WORD	614392	wordpools/wasnorm_wordpool.txt	LTP104	ltpFR	19	7	-1	DUNE	506	n/a	-1	n/a	n/a	n/a	n/a	n/a
1229.986	n/a	REC_WORD	614993	wordpools/wasnorm_wordpool.txt	LTP104	ltpFR	19	7	n/a	SAND	1230	n/a	n/a	n/a	n/a	n/a	n/a	n/a
1237.096	n/a	REC_WORD	618548	wordpools/wasnorm_wordpool.txt	LTP104	ltpFR	19	7	-1	CRITIC	410	n/a	-1	n/a	n/a	n/a	n/a	n/a
1238.548	n/a	REC_WORD	619274	wordpools/wasnorm_wordpool.txt	LTP104	ltpFR	19	7	-1	VOLCANO	1575	n/a	-1	n/a	n/a	n/a	n/a	n/a
1240.444	n/a	REC_WORD	620222	wordpools/wasnorm_wordpool.txt	LTP104	ltpFR	19	7	-1	ROOM	1206	n/a	-1	n/a	n/a	n/a	n/a	n/a
1241.856	n/a	REC_WORD	620928	wordpools/wasnorm_wordpool.txt	LTP104	ltpFR	19	7	n/a	IMPROVEMENT	-1	n/a	n/a	n/a	n/a	n/a	n/a	n/a
1260.838	n/a	REC_WORD	630419	wordpools/wasnorm_wordpool.txt	LTP104	ltpFR	19	7	-1	ANT	25	n/a	-1	n/a	n/a	n/a	n/a	n/a
1296.414	n/a	WORD	648207	wordpools/wasnorm_wordpool.txt	LTP104	ltpFR	19	8	0	EMPEROR	529	n/a	1	1	0.412841796875	0.57763671875	upper	../fonts/zerothre.ttf
1300.38	n/a	WORD	650190	wordpools/wasnorm_wordpool.txt	LTP104	ltpFR	19	8	0	MONARCH	906	n/a	1	1	0.412841796875	0.57763671875	upper	../fonts/zerothre.ttf
1304.346	n/a	WORD	652173	wordpools/wasnorm_wordpool.txt	LTP104	ltpFR	19	8	0	DENIM	446	n/a	0	1	0.412841796875	0.57763671875	upper	../fonts/zerothre.ttf
1308.388	n/a	WORD	654194	wordpools/wasnorm_wordpool.txt	LTP104	ltpFR	19	8	0	MUSTARD	935	n/a	0	1	0.412841796875	0.57763671875	upper	../fonts/zerothre.ttf
1312.57	n/a	WORD	656285	wordpools/wasnorm_wordpool.txt	LTP104	ltpFR	19	8	0	ROUGE	1213	n/a	0	1	0.412841796875	0.57763671875	upper	../fonts/zerothre.ttf
1316.438	n/a	WORD	658219	wordpools/wasnorm_wordpool.txt	LTP104	ltpFR	19	8	0	KNEE	784	n/a	0	1	0.412841796875	0.57763671875	upper	../fonts/zerothre.ttf
1320.396	n/a	WORD	660198	wordpools/wasnorm_wordpool.txt	LTP104	ltpFR	19	8	0	PAINT	1003	n/a	0	1	0.412841796875	0.57763671875	upper	../fonts/zerothre.ttf
1324.22	n/a	WORD	662110	wordpools/wasnorm_wordpool.txt	LTP104	ltpFR	19	8	0	COMMUNITY	356	n/a	1	1	0.412841796875	0.57763671875	upper	../fonts/zerothre.ttf
1328.296	n/a	WORD	664148	wordpools/wasnorm_wordpool.txt	LTP104	ltpFR	19	8	0	SHACK	1273	n/a	1	1	0.412841796875	0.57763671875	upper	../fonts/zerothre.ttf
1332.46	n/a	WORD	666230	wordpools/wasnorm_wordpool.txt	LTP104	ltpFR	19	8	0	SCULPTURE	1258	n/a	1	1	0.412841796875	0.57763671875	upper	../fonts/zerothre.ttf
1336.636	n/a	WORD	668318	wordpools/wasnorm_wordpool.txt	LTP104	ltpFR	19	8	0	BRANCH	168	n/a	1	1	0.412841796875	0.57763671875	upper	../fonts/zerothre.ttf
1340.686	n/a	WORD	670343	wordpools/wasnorm_wordpool.txt	LTP104	ltpFR	19	8	0	STORE	1387	n/a	0	1	0.412841796875	0.57763671875	upper	../fonts/zerothre.ttf
1344.51	n/a	WORD	672255	wordpools/wasnorm_wordpool.txt	LTP104	ltpFR	19	8	0	RAFT	1159	n/a	1	1	0.412841796875	0.57763671875	upper	../fonts/zerothre.ttf
1348.502	n/a	WORD	674251	wordpools/wasnorm_wordpool.txt	LTP104	ltpFR	19	8	0	APPENDAGE	32	n/a	1	1	0.412841796875	0.57763671875	upper	../fonts/zerothre.ttf
1352.518	n/a	WORD	676259	wordpools/wasnorm_wordpool.txt	LTP104	ltpFR	19	8	0	PLASTER	1085	n/a	1	1	0.412841796875	0.57763671875	upper	../fonts/zerothre.ttf
1356.436	n/a	WORD	678218	wordpools/wasnorm_wordpool.txt	LTP104	ltpFR	19	8	0	REEF	1177	n/a	1	1	0.412841796875	0.57763671875	upper	../fonts/zerothre.ttf
1362.354	n/a	REC_START	681177	n/a	LTP104	ltpFR	19	8	n/a	n/a	n/a	n/a	n/a	n/a	n/a	n/a	n/a	n/a
1364.024	n/a	REC_WORD	682012	wordpools/wasnorm_wordpool.txt	LTP104	ltpFR	19	8	0	EMPEROR	529	n/a	1	n/a	n/a	n/a	n/a	n/a
1365.146	n/a	REC_WORD	682573	wordpools/wasnorm_wordpool.txt	LTP104	ltpFR	19	8	0	MONARCH	906	n/a	1	n/a	n/a	n/a	n/a	n/a
1366.364	n/a	REC_WORD	683182	wordpools/wasnorm_wordpool.txt	LTP104	ltpFR	19	8	n/a	BUTTERFLY	206	n/a	n/a	n/a	n/a	n/a	n/a	n/a
1367.682	n/a	REC_WORD	683841	wordpools/wasnorm_wordpool.txt	LTP104	ltpFR	19	8	n/a	KING	777	n/a	n/a	n/a	n/a	n/a	n/a	n/a
1369.882	n/a	REC_WORD	684941	wordpools/wasnorm_wordpool.txt	LTP104	ltpFR	19	8	n/a	CLOTHES	327	n/a	n/a	n/a	n/a	n/a	n/a	n/a
1371.942	n/a	REC_WORD	685971	wordpools/wasnorm_wordpool.txt	LTP104	ltpFR	19	8	0	DENIM	446	n/a	0	n/a	n/a	n/a	n/a	n/a
1372.964	n/a	REC_WORD	686482	wordpools/wasnorm_wordpool.txt	LTP104	ltpFR	19	8	n/a	JEANS	752	n/a	n/a	n/a	n/a	n/a	n/a	n/a
1386.264	n/a	REC_WORD	693132	wordpools/wasnorm_wordpool.txt	LTP104	ltpFR	19	8	0	KNEE	784	n/a	0	n/a	n/a	n/a	n/a	n/a
1387.942	n/a	REC_WORD	693971	wordpools/wasnorm_wordpool.txt	LTP104	ltpFR	19	8	1	GROUND	666	n/a	1	n/a	n/a	n/a	n/a	n/a
1390.026	n/a	REC_WORD	695013	wordpools/wasnorm_wordpool.txt	LTP104	ltpFR	19	8	0	PAINT	1003	n/a	0	n/a	n/a	n/a	n/a	n/a
1391.044	n/a	REC_WORD	695522	wordpools/wasnorm_wordpool.txt	LTP104	ltpFR	19	8	0	COMMUNITY	356	n/a	1	n/a	n/a	n/a	n/a	n/a
1393.684	n/a	REC_WORD	696842	wordpools/wasnorm_wordpool.txt	LTP104	ltpFR	19	8	0	PLASTER	1085	n/a	1	n/a	n/a	n/a	n/a	n/a
1394.692	n/a	REC_WORD	697346	wordpools/wasnorm_wordpool.txt	LTP104	ltpFR	19	8	0	SCULPTURE	1258	n/a	1	n/a	n/a	n/a	n/a	n/a
1449.666	n/a	WORD	724833	wordpools/wasnorm_wordpool.txt	LTP104	ltpFR	19	9	-1	HELMET	702	n/a	-1	1	1.0	1.0	upper	../fonts/Verdana.ttf
1453.758	n/a	WORD	726879	wordpools/wasnorm_wordpool.txt	LTP104	ltpFR	19	9	-1	LETTER	813	n/a	-1	1	1.0	1.0	upper	../fonts/Verdana.ttf
1457.608	n/a	WORD	728804	wordpools/wasnorm_wordpool.txt	LTP104	ltpFR	19	9	-1	HOOD	714	n/a	-1	1	1.0	1.0	upper	../fonts/Verdana.ttf
1461.508	n/a	WORD	730754	wordpools/wasnorm_wordpool.txt	LTP104	ltpFR	19	9	-1	XEROX	1628	n/a	-1	1	1.0	1.0	upper	../fonts/Verdana.ttf
1465.45	n/a	WORD	732725	wordpools/wasnorm_wordpool.txt	LTP104	ltpFR	19	9	-1	DOUGHNUT	490	n/a	-1	1	1.0	1.0	upper	../fonts/Verdana.ttf
1469.424	n/a	WORD	734712	wordpools/wasnorm_wordpool.txt	LTP104	ltpFR	19	9	-1	STAMP	1370	n/a	-1	1	1.0	1.0	upper	../fonts/Verdana.ttf
1473.342	n/a	WORD	736671	wordpools/wasnorm_wordpool.txt	LTP104	ltpFR	19	9	-1	COMMANDER	354	n/a	-1	1	1.0	1.0	upper	../fonts/Verdana.ttf
1477.392	n/a	WORD	738696	wordpools/wasnorm_wordpool.txt	LTP104	ltpFR	19	9	-1	CHISEL	305	n/a	-1	1	1.0	1.0	upper	../fonts/Verdana.ttf
1481.474	n/a	WORD	740737	wordpools/wasnorm_wordpool.txt	LTP104	ltpFR	19	9	-1	FINGERNAIL	568	n/a	-1	1	1.0	1.0	upper	../fonts/Verdana.ttf
1485.506	n/a	WORD	742753	wordpools/wasnorm_wordpool.txt	LTP104	ltpFR	19	9	-1	SCARECROW	1245	n/a	-1	1	1.0	1.0	upper	../fonts/Verdana.ttf
1489.416	n/a	WORD	744708	wordpools/wasnorm_wordpool.txt	LTP104	ltpFR	19	9	-1	RICE	1190	n/a	-1	1	1.0	1.0	upper	../fonts/Verdana.ttf
1493.574	n/a	WORD	746787	wordpools/wasnorm_wordpool.txt	LTP104	ltpFR	19	9	-1	DRIVER	499	n/a	-1	1	1.0	1.0	upper	../fonts/Verdana.ttf
1497.624	n/a	WORD	748812	wordpools/wasnorm_wordpool.txt	LTP104	ltpFR	19	9	-1	SNORKEL	1336	n/a	-1	1	1.0	1.0	upper	../fonts/Verdana.ttf
1501.524	n/a	WORD	750762	wordpools/wasnorm_wordpool.txt	LTP104	ltpFR	19	9	-1	SUBMARINE	1398	n/a	-1	1	1.0	1.0	upper	../fonts/Verdana.ttf
1505.4	n/a	WORD	752700	wordpools/wasnorm_wordpool.txt	LTP104	ltpFR	19	9	-1	SENATOR	1268	n/a	-1	1	1.0	1.0	upper	../fonts/Verdana.ttf
1509.258	n/a	WORD	754629	wordpools/wasnorm_wordpool.txt	LTP104	ltpFR	19	9	-1	CAVE	263	n/a	-1	1	1.0	1.0	upper	../fonts/Verdana.ttf
1515.276	n/a	REC_START	757638	n/a	LTP104	ltpFR	19	9	n/a	n/a	n/a	n/a	n/a	n/a	n/a	n/a	n/a	n/a
1517.222	n/a	REC_WORD	758611	wordpools/wasnorm_wordpool.txt	LTP104	ltpFR	19	9	-1	SENATOR	1268	n/a	-1	n/a	n/a	n/a	n/a	n/a
1518.454	n/a	REC_WORD	759227	wordpools/wasnorm_wordpool.txt	LTP104	ltpFR	19	9	n/a	POLITICIAN	1099	n/a	n/a	n/a	n/a	n/a	n/a	n/a
1520.06	n/a	REC_WORD	760030	wordpools/wasnorm_wordpool.txt	LTP104	ltpFR	19	9	-1	CAVE	263	n/a	-1	n/a	n/a	n/a	n/a	n/a
1521.332	n/a	REC_WORD	760666	wordpools/wasnorm_wordpool.txt	LTP104	ltpFR	19	9	n/a	INN	739	n/a	n/a	n/a	n/a	n/a	n/a	n/a
1523.382	n/a	REC_WORD	761691	wordpools/wasnorm_wordpool.txt	LTP104	ltpFR	19	9	n/a	DARK	-1	n/a	n/a	n/a	n/a	n/a	n/a	n/a
1550.578	n/a	REC_WORD	775289	wordpools/wasnorm_wordpool.txt	LTP104	ltpFR	19	9	-1	COMMANDER	354	n/a	-1	n/a	n/a	n/a	n/a	n/a
1552.952	n/a	REC_WORD	776476	wordpools/wasnorm_wordpool.txt	LTP104	ltpFR	19	9	-1	FINGERNAIL	568	n/a	-1	n/a	n/a	n/a	n/a	n/a
1554.554	n/a	REC_WORD	777277	wordpools/wasnorm_wordpool.txt	LTP104	ltpFR	19	9	n/a	UNDERLING	-1	n/a	n/a	n/a	n/a	n/a	n/a	n/a
1562.83	n/a	REC_WORD	781415	wordpools/wasnorm_wordpool.txt	LTP104	ltpFR	19	9	-1	HELMET	702	n/a	-1	n/a	n/a	n/a	n/a	n/a
1564.042	n/a	REC_WORD	782021	wordpools/wasnorm_wordpool.txt	LTP104	ltpFR	19	9	-1	LETTER	813	n/a	-1	n/a	n/a	n/a	n/a	n/a
1565.522	n/a	REC_WORD	782761	wordpools/wasnorm_wordpool.txt	LTP104	ltpFR	19	9	-1	HOOD	714	n/a	-1	n/a	n/a	n/a	n/a	n/a
1567.06	n/a	REC_WORD	783530	wordpools/wasnorm_wordpool.txt	LTP104	ltpFR	19	9	-1	XEROX	1628	n/a	-1	n/a	n/a	n/a	n/a	n/a
1568.382	n/a	REC_WORD	784191	wordpools/wasnorm_wordpool.txt	LTP104	ltpFR	19	9	n/a	COPY	-1	n/a	n/a	n/a	n/a	n/a	n/a	n/a
1569.904	n/a	REC_WORD	784952	wordpools/wasnorm_wordpool.txt	LTP104	ltpFR	19	9	n/a	PASTE	-1	n/a	n/a	n/a	n/a	n/a	n/a	n/a
1571.984	n/a	REC_WORD	785992	wordpools/wasnorm_wordpool.txt	LTP104	ltpFR	19	9	-1	STAMP	1370	n/a	-1	n/a	n/a	n/a	n/a	n/a
1586.89	n/a	REC_WORD	793445	wordpools/wasnorm_wordpool.txt	LTP104	ltpFR	19	9	n/a	DONUT	-1	n/a	n/a	n/a	n/a	n/a	n/a	n/a
1603.864	n/a	WORD	801932	wordpools/wasnorm_wordpool.txt	LTP104	ltpFR	19	10	1	GODDESS	646	n/a	1	0	0.5869140625	0.422607421875	lower	../fonts/amplitud.ttf
1607.972	n/a	WORD	803986	wordpools/wasnorm_wordpool.txt	LTP104	ltpFR	19	10	1	VIKING	1565	n/a	1	0	0.5869140625	0.422607421875	lower	../fonts/amplitud.ttf
1612.046	n/a	WORD	806023	wordpools/wasnorm_wordpool.txt	LTP104	ltpFR	19	10	1	HOSE	720	n/a	0	0	0.5869140625	0.422607421875	lower	../fonts/amplitud.ttf
1616.164	n/a	WORD	808082	wordpools/wasnorm_wordpool.txt	LTP104	ltpFR	19	10	1	RING	1193	n/a	0	0	0.5869140625	0.422607421875	lower	../fonts/amplitud.ttf
1620.254	n/a	WORD	810127	wordpools/wasnorm_wordpool.txt	LTP104	ltpFR	19	10	1	TEAPOT	1442	n/a	0	0	0.5869140625	0.422607421875	lower	../fonts/amplitud.ttf
1624.238	n/a	WORD	812119	wordpools/wasnorm_wordpool.txt	LTP104	ltpFR	19	10	1	FLEA	577	n/a	1	0	0.5869140625	0.422607421875	lower	../fonts/amplitud.ttf
1628.414	n/a	WORD	814207	wordpools/wasnorm_wordpool.txt	LTP104	ltpFR	19	10	0	HEATER	698	n/a	1	1	0.412841796875	0.57763671875	upper	../fonts/zerothre.ttf
1632.23	n/a	WORD	816115	wordpools/wasnorm_wordpool.txt	LTP104	ltpFR	19	10	0	CELLAR	267	n/a	1	1	0.412841796875	0.57763671875	upper	../fonts/zerothre.ttf
1636.296	n/a	WORD	818148	wordpools/wasnorm_wordpool.txt	LTP104	ltpFR	19	10	0	HEAD	695	n/a	1	1	0.412841796875	0.57763671875	upper	../fonts/zerothre.ttf
1640.502	n/a	WORD	820251	wordpools/wasnorm_wordpool.txt	LTP104	ltpFR	19	10	0	GARLIC	624	n/a	0	1	0.412841796875	0.57763671875	upper	../fonts/zerothre.ttf
1644.52	n/a	WORD	822260	wordpools/wasnorm_wordpool.txt	LTP104	ltpFR	19	10	0	MUFFIN	929	n/a	0	1	0.412841796875	0.57763671875	upper	../fonts/zerothre.ttf
1648.338	n/a	WORD	824169	wordpools/wasnorm_wordpool.txt	LTP104	ltpFR	19	10	0	CATCHER	258	n/a	1	1	0.412841796875	0.57763671875	upper	../fonts/zerothre.ttf
1652.436	n/a	WORD	826218	wordpools/wasnorm_wordpool.txt	LTP104	ltpFR	19	10	1	PIRATE	1074	n/a	1	0	0.5869140625	0.422607421875	lower	../fonts/amplitud.ttf
1656.602	n/a	WORD	828301	wordpools/wasnorm_wordpool.txt	LTP104	ltpFR	19	10	1	SCARF	1246	n/a	0	0	0.5869140625	0.422607421875	lower	../fonts/amplitud.ttf
1660.802	n/a	WORD	830401	wordpools/wasnorm_wordpool.txt	LTP104	ltpFR	19	10	0	MARINE	869	n/a	3	1	0.412841796875	0.57763671875	upper	../fonts/zerothre.ttf
1663.028	n/a	KEY_MSG	831514	n/a	LTP104	ltpFR	19	10	n/a	n/a	n/a	n/a	n/a	n/a	n/a	n/a	n/a	n/a
1665.712	n/a	WORD	832856	wordpools/wasnorm_wordpool.txt	LTP104	ltpFR	19	10	0	BAY	102	n/a	1	1	0.412841796875	0.57763671875	upper	../fonts/zerothre.ttf
1671.57	n/a	REC_START	835785	n/a	LTP104	ltpFR	19	10	n/a	n/a	n/a	n/a	n/a	n/a	n/a	n/a	n/a	n/a
1672.836	n/a	REC_WORD	836418	wordpools/wasnorm_wordpool.txt	LTP104	ltpFR	19	10	0	MARINE	869	n/a	3	n/a	n/a	n/a	n/a	n/a
1674.018	n/a	REC_WORD	837009	wordpools/wasnorm_wordpool.txt	LTP104	ltpFR	19	10	0	BAY	102	n/a	1	n/a	n/a	n/a	n/a	n/a
1675.704	n/a	REC_WORD	837852	wordpools/wasnorm_wordpool.txt	LTP104	ltpFR	19	10	1	PIRATE	1074	n/a	1	n/a	n/a	n/a	n/a	n/a
1676.958	n/a	REC_WORD	838479	wordpools/wasnorm_wordpool.txt	LTP104	ltpFR	19	10	1	SCARF	1246	n/a	0	n/a	n/a	n/a	n/a	n/a
1678.498	n/a	REC_WORD	839249	wordpools/wasnorm_wordpool.txt	LTP104	ltpFR	19	10	n/a	NECK	939	n/a	n/a	n/a	n/a	n/a	n/a	n/a
1679.88	n/a	REC_WORD	839940	wordpools/wasnorm_wordpool.txt	LTP104	ltpFR	19	10	n/a	SWORD	1423	n/a	n/a	n/a	n/a	n/a	n/a	n/a
1682.12	n/a	REC_WORD	841060	wordpools/wasnorm_wordpool.txt	LTP104	ltpFR	19	10	n/a	WIELD	-1	n/a	n/a	n/a	n/a	n/a	n/a	n/a
1684.714	n/a	REC_WORD	842357	wordpools/wasnorm_wordpool.txt	LTP104	ltpFR	19	10	1	GODDESS	646	n/a	1	n/a	n/a	n/a	n/a	n/a
1686.152	n/a	REC_WORD	843076	wordpools/wasnorm_wordpool.txt	LTP104	ltpFR	19	10	1	VIKING	1565	n/a	1	n/a	n/a	n/a	n/a	n/a
1687.554	n/a	REC_WORD	843777	wordpools/wasnorm_wordpool.txt	LTP104	ltpFR	19	10	n/a	SHIP	1286	n/a	n/a	n/a	n/a	n/a	n/a	n/a
1691.196	n/a	REC_WORD	845598	wordpools/wasnorm_wordpool.txt	LTP104	ltpFR	19	10	1	RING	1193	n/a	0	n/a	n/a	n/a	n/a	n/a
1694.108	n/a	REC_WORD	847054	wordpools/wasnorm_wordpool.txt	LTP104	ltpFR	19	10	0	HEATER	698	n/a	1	n/a	n/a	n/a	n/a	n/a
1695.306	n/a	REC_WORD	847653	wordpools/wasnorm_wordpool.txt	LTP104	ltpFR	19	10	0	CELLAR	267	n/a	1	n/a	n/a	n/a	n/a	n/a
1696.664	n/a	REC_WORD	848332	wordpools/wasnorm_wordpool.txt	LTP104	ltpFR	19	10	n/a	BASEMENT	94	n/a	n/a	n/a	n/a	n/a	n/a	n/a
1697.976	n/a	REC_WORD	848988	wordpools/wasnorm_wordpool.txt	LTP104	ltpFR	19	10	0	HEAD	695	n/a	1	n/a	n/a	n/a	n/a	n/a
1699.242	n/a	REC_WORD	849621	wordpools/wasnorm_wordpool.txt	LTP104	ltpFR	19	10	n/a	NECK	939	n/a	n/a	n/a	n/a	n/a	n/a	n/a
1702.58	n/a	REC_WORD	851290	wordpools/wasnorm_wordpool.txt	LTP104	ltpFR	19	10	0	GARLIC	624	n/a	0	n/a	n/a	n/a	n/a	n/a
1703.852	n/a	REC_WORD	851926	wordpools/wasnorm_wordpool.txt	LTP104	ltpFR	19	10	0	MUFFIN	929	n/a	0	n/a	n/a	n/a	n/a	n/a
1717.736	n/a	REC_WORD	858868	wordpools/wasnorm_wordpool.txt	LTP104	ltpFR	19	10	0	CATCHER	258	n/a	1	n/a	n/a	n/a	n/a	n/a
1752.626	n/a	WORD	876313	wordpools/wasnorm_wordpool.txt	LTP104	ltpFR	19	11	-1	CACTUS	215	n/a	-1	1	1.0	1.0	upper	../fonts/Verdana.ttf
1756.75	n/a	WORD	878375	wordpools/wasnorm_wordpool.txt	LTP104	ltpFR	19	11	-1	GARDEN	623	n/a	-1	1	1.0	1.0	upper	../fonts/Verdana.ttf
1760.876	n/a	WORD	880438	wordpools/wasnorm_wordpool.txt	LTP104	ltpFR	19	11	-1	BUCKLE	185	n/a	-1	1	1.0	1.0	upper	../fonts/Verdana.ttf
1764.91	n/a	WORD	882455	wordpools/wasnorm_wordpool.txt	LTP104	ltpFR	19	11	-1	BRUNETTE	181	n/a	-1	1	1.0	1.0	upper	../fonts/Verdana.ttf
1768.91	n/a	WORD	884455	wordpools/wasnorm_wordpool.txt	LTP104	ltpFR	19	11	-1	HEADBAND	696	n/a	-1	1	1.0	1.0	upper	../fonts/Verdana.ttf
1772.868	n/a	WORD	886434	wordpools/wasnorm_wordpool.txt	LTP104	ltpFR	19	11	-1	ULCER	1533	n/a	-1	1	1.0	1.0	upper	../fonts/Verdana.ttf
1776.816	n/a	WORD	888408	wordpools/wasnorm_wordpool.txt	LTP104	ltpFR	19	11	-1	SHOELACE	1289	n/a	-1	1	1.0	1.0	upper	../fonts/Verdana.ttf
1780.942	n/a	WORD	890471	wordpools/wasnorm_wordpool.txt	LTP104	ltpFR	19	11	-1	SWIMMER	1420	n/a	-1	1	1.0	1.0	upper	../fonts/Verdana.ttf
1784.96	n/a	WORD	892480	wordpools/wasnorm_wordpool.txt	LTP104	ltpFR	19	11	-1	TOE	1473	n/a	-1	1	1.0	1.0	upper	../fonts/Verdana.ttf
1789.008	n/a	WORD	894504	wordpools/wasnorm_wordpool.txt	LTP104	ltpFR	19	11	-1	MILITARY	894	n/a	-1	1	1.0	1.0	upper	../fonts/Verdana.ttf
1792.85	n/a	WORD	896425	wordpools/wasnorm_wordpool.txt	LTP104	ltpFR	19	11	-1	CANAL	226	n/a	-1	1	1.0	1.0	upper	../fonts/Verdana.ttf
1796.732	n/a	WORD	898366	wordpools/wasnorm_wordpool.txt	LTP104	ltpFR	19	11	-1	VEAL	1551	n/a	-1	1	1.0	1.0	upper	../fonts/Verdana.ttf
1800.882	n/a	WORD	900441	wordpools/wasnorm_wordpool.txt	LTP104	ltpFR	19	11	-1	CONCRETE	361	n/a	-1	1	1.0	1.0	upper	../fonts/Verdana.ttf
1804.79	n/a	WORD	902395	wordpools/wasnorm_wordpool.txt	LTP104	ltpFR	19	11	-1	BISON	131	n/a	-1	1	1.0	1.0	upper	../fonts/Verdana.ttf
1808.758	n/a	WORD	904379	wordpools/wasnorm_wordpool.txt	LTP104	ltpFR	19	11	-1	CREATURE	403	n/a	-1	1	1.0	1.0	upper	../fonts/Verdana.ttf
1812.766	n/a	WORD	906383	wordpools/wasnorm_wordpool.txt	LTP104	ltpFR	19	11	-1	TEACHER	1440	n/a	-1	1	1.0	1.0	upper	../fonts/Verdana.ttf
1818.482	n/a	REC_START	909241	n/a	LTP104	ltpFR	19	11	n/a	n/a	n/a	n/a	n/a	n/a	n/a	n/a	n/a	n/a
1823.158	n/a	REC_WORD	911579	wordpools/wasnorm_wordpool.txt	LTP104	ltpFR	19	11	-1	CACTUS	215	n/a	-1	n/a	n/a	n/a	n/a	n/a
1824.374	n/a	REC_WORD	912187	wordpools/wasnorm_wordpool.txt	LTP104	ltpFR	19	11	n/a	DESSERT	453	n/a	n/a	n/a	n/a	n/a	n/a	n/a
1825.952	n/a	REC_WORD	912976	wordpools/wasnorm_wordpool.txt	LTP104	ltpFR	19	11	-1	GARDEN	623	n/a	-1	n/a	n/a	n/a	n/a	n/a
1827.448	n/a	REC_WORD	913724	wordpools/wasnorm_wordpool.txt	LTP104	ltpFR	19	11	-1	CONCRETE	361	n/a	-1	n/a	n/a	n/a	n/a	n/a
1828.954	n/a	REC_WORD	914477	wordpools/wasnorm_wordpool.txt	LTP104	ltpFR	19	11	-1	BUCKLE	185	n/a	-1	n/a	n/a	n/a	n/a	n/a
1830.386	n/a	REC_WORD	915193	wordpools/wasnorm_wordpool.txt	LTP104	ltpFR	19	11	n/a	HEAT	-1	n/a	n/a	n/a	n/a	n/a	n/a	n/a
1833.494	n/a	REC_WORD	916747	wordpools/wasnorm_wordpool.txt	LTP104	ltpFR	19	11	-1	BRUNETTE	181	n/a	-1	n/a	n/a	n/a	n/a	n/a
1834.936	n/a	REC_WORD	917468	wordpools/wasnorm_wordpool.txt	LTP104	ltpFR	19	11	n/a	WATER	1594	n/a	n/a	n/a	n/a	n/a	n/a	n/a
1842.914	n/a	REC_WORD	921457	wordpools/wasnorm_wordpool.txt	LTP104	ltpFR	19	11	-1	BISON	131	n/a	-1	n/a	n/a	n/a	n/a	n/a
1844.1	n/a	REC_WORD	922050	wordpools/wasnorm_wordpool.txt	LTP104	ltpFR	19	11	-1	VEAL	1551	n/a	-1	n/a	n/a	n/a	n/a	n/a
1845.274	n/a	REC_WORD	922637	wordpools/wasnorm_wordpool.txt	LTP104	ltpFR	19	11	-1	CREATURE	403	n/a	-1	n/a	n/a	n/a	n/a	n/a
1846.45	n/a	REC_WORD	923225	wordpools/wasnorm_wordpool.txt	LTP104	ltpFR	19	11	n/a	EAT	-1	n/a	n/a	n/a	n/a	n/a	n/a	n/a
1854.962	n/a	REC_WORD	927481	wordpools/wasnorm_wordpool.txt	LTP104	ltpFR	19	11	-1	MILITARY	894	n/a	-1	n/a	n/a	n/a	n/a	n/a
1860.064	n/a	REC_WORD	930032	wordpools/wasnorm_wordpool.txt	LTP104	ltpFR	19	11	-1	CANAL	226	n/a	-1	n/a	n/a	n/a	n/a	n/a
1897.172	n/a	WORD	948586	wordpools/wasnorm_wordpool.txt	LTP104	ltpFR	19	12	1	CHERRY	293	n/a	0	0	0.5869140625	0.422607421875	lower	../fonts/amplitud.ttf
1901.298	n/a	WORD	950649	wordpools/wasnorm_wordpool.txt	LTP104	ltpFR	19	12	1	COLUMN	350	n/a	0	0	0.5869140625	0.422607421875	lower	../fonts/amplitud.ttf
1905.28	n/a	WORD	952640	wordpools/wasnorm_wordpool.txt	LTP104	ltpFR	19	12	1	CONTRACTOR	369	n/a	1	0	0.5869140625	0.422607421875	lower	../fonts/amplitud.ttf
1909.348	n/a	WORD	954674	wordpools/wasnorm_wordpool.txt	LTP104	ltpFR	19	12	1	SUPERMARKET	1409	n/a	1	0	0.5869140625	0.422607421875	lower	../fonts/amplitud.ttf
1913.554	n/a	WORD	956777	wordpools/wasnorm_wordpool.txt	LTP104	ltpFR	19	12	1	WINDSHIELD	1612	n/a	0	0	0.5869140625	0.422607421875	lower	../fonts/amplitud.ttf
1917.52	n/a	WORD	958760	wordpools/wasnorm_wordpool.txt	LTP104	ltpFR	19	12	1	DUNGEON	507	n/a	0	0	0.5869140625	0.422607421875	lower	../fonts/amplitud.ttf
1921.356	n/a	WORD	960678	wordpools/wasnorm_wordpool.txt	LTP104	ltpFR	19	12	1	INMATE	738	n/a	1	0	0.5869140625	0.422607421875	lower	../fonts/amplitud.ttf
1925.48	n/a	WORD	962740	wordpools/wasnorm_wordpool.txt	LTP104	ltpFR	19	12	1	ANIMAL	23	n/a	1	0	0.5869140625	0.422607421875	lower	../fonts/amplitud.ttf
1929.588	n/a	WORD	964794	wordpools/wasnorm_wordpool.txt	LTP104	ltpFR	19	12	1	TWISTER	1530	n/a	0	0	0.5869140625	0.422607421875	lower	../fonts/amplitud.ttf
1933.77	n/a	WORD	966885	wordpools/wasnorm_wordpool.txt	LTP104	ltpFR	19	12	1	COOK	372	n/a	1	0	0.5869140625	0.422607421875	lower	../fonts/amplitud.ttf
1937.712	n/a	WORD	968856	wordpools/wasnorm_wordpool.txt	LTP104	ltpFR	19	12	1	BUGGY	188	n/a	0	0	0.5869140625	0.422607421875	lower	../fonts/amplitud.ttf
1941.896	n/a	WORD	970948	wordpools/wasnorm_wordpool.txt	LTP104	ltpFR	19	12	1	TOAD	1470	n/a	1	0	0.5869140625	0.422607421875	lower	../fonts/amplitud.ttf
1945.736	n/a	WORD	972868	wordpools/wasnorm_wordpool.txt	LTP104	ltpFR	19	12	1	GARAGE	621	n/a	0	0	0.5869140625	0.422607421875	lower	../fonts/amplitud.ttf
1949.57	n/a	WORD	974785	wordpools/wasnorm_wordpool.txt	LTP104	ltpFR	19	12	1	PARTY	1018	n/a	0	0	0.5869140625	0.422607421875	lower	../fonts/amplitud.ttf
1953.604	n/a	WORD	976802	wordpools/wasnorm_wordpool.txt	LTP104	ltpFR	19	12	1	COSTUME	383	n/a	0	0	0.5869140625	0.422607421875	lower	../fonts/amplitud.ttf
1957.628	n/a	WORD	978814	wordpools/wasnorm_wordpool.txt	LTP104	ltpFR	19	12	1	CONSOLE	364	n/a	0	0	0.5869140625	0.422607421875	lower	../fonts/amplitud.ttf
1963.604	n/a	REC_START	981802	n/a	LTP104	ltpFR	19	12	n/a	n/a	n/a	n/a	n/a	n/a	n/a	n/a	n/a	n/a
1966.666	n/a	REC_WORD	983333	wordpools/wasnorm_wordpool.txt	LTP104	ltpFR	19	12	1	CONSOLE	364	n/a	0	n/a	n/a	n/a	n/a	n/a
1969.166	n/a	REC_WORD	984583	wordpools/wasnorm_wordpool.txt	LTP104	ltpFR	19	12	n/a	WII	-1	n/a	n/a	n/a	n/a	n/a	n/a	n/a
1970.662	n/a	REC_WORD	985331	wordpools/wasnorm_wordpool.txt	LTP104	ltpFR	19	12	1	CHERRY	293	n/a	0	n/a	n/a	n/a	n/a	n/a
1972.164	n/a	REC_WORD	986082	wordpools/wasnorm_wordpool.txt	LTP104	ltpFR	19	12	1	COLUMN	350	n/a	0	n/a	n/a	n/a	n/a	n/a
1975.172	n/a	REC_WORD	987586	wordpools/wasnorm_wordpool.txt	LTP104	ltpFR	19	12	1	CONTRACTOR	369	n/a	1	n/a	n/a	n/a	n/a	n/a
1976.784	n/a	REC_WORD	988392	wordpools/wasnorm_wordpool.txt	LTP104	ltpFR	19	12	1	SUPERMARKET	1409	n/a	1	n/a	n/a	n/a	n/a	n/a
1978.496	n/a	REC_WORD	989248	wordpools/wasnorm_wordpool.txt	LTP104	ltpFR	19	12	1	WINDSHIELD	1612	n/a	0	n/a	n/a	n/a	n/a	n/a
1979.858	n/a	REC_WORD	989929	wordpools/wasnorm_wordpool.txt	LTP104	ltpFR	19	12	n/a	WIPER	-1	n/a	n/a	n/a	n/a	n/a	n/a	n/a
1981.852	n/a	REC_WORD	990926	wordpools/wasnorm_wordpool.txt	LTP104	ltpFR	19	12	n/a	DASHBOARD	441	n/a	n/a	n/a	n/a	n/a	n/a	n/a
1988.692	n/a	REC_WORD	994346	wordpools/wasnorm_wordpool.txt	LTP104	ltpFR	19	12	1	DUNGEON	507	n/a	0	n/a	n/a	n/a	n/a	n/a
1989.954	n/a	REC_WORD	994977	wordpools/wasnorm_wordpool.txt	LTP104	ltpFR	19	12	1	INMATE	738	n/a	1	n/a	n/a	n/a	n/a	n/a
1991.266	n/a	REC_WORD	995633	wordpools/wasnorm_wordpool.txt	LTP104	ltpFR	19	12	n/a	HELP	-1	n/a	n/a	n/a	n/a	n/a	n/a	n/a
1992.728	n/a	REC_WORD	996364	wordpools/wasnorm_wordpool.txt	LTP104	ltpFR	19	12	1	ANIMAL	23	n/a	1	n/a	n/a	n/a	n/a	n/a
1993.68	n/a	REC_WORD	996840	wordpools/wasnorm_wordpool.txt	LTP104	ltpFR	19	12	n/a	SLAVE	-1	n/a	n/a	n/a	n/a	n/a	n/a	n/a
2004.712	n/a	REC_WORD	1002356	wordpools/wasnorm_wordpool.txt	LTP104	ltpFR	19	12	1	GARAGE	621	n/a	0	n/a	n/a	n/a	n/a	n/a
2008.608	n/a	REC_WORD	1004304	wordpools/wasnorm_wordpool.txt	LTP104	ltpFR	19	12	1	TOAD	1470	n/a	1	n/a	n/a	n/a	n/a	n/a
2009.626	n/a	REC_WORD	1004813	wordpools/wasnorm_wordpool.txt	LTP104	ltpFR	19	12	1	BUGGY	188	n/a	0	n/a	n/a	n/a	n/a	n/a
2011.272	n/a	REC_WORD	1005636	wordpools/wasnorm_wordpool.txt	LTP104	ltpFR	19	12	1	PARTY	1018	n/a	0	n/a	n/a	n/a	n/a	n/a
2039.228	n/a	REST_REWET	1019614	n/a	LTP104	ltpFR	19	12	n/a	n/a	n/a	n/a	n/a	n/a	n/a	n/a	n/a	n/a
2410.4	n/a	WORD	1205200	wordpools/wasnorm_wordpool.txt	LTP104	ltpFR	19	13	0	DINOSAUR	469	n/a	1	1	0.412841796875	0.57763671875	upper	../fonts/zerothre.ttf
2414.384	n/a	WORD	1207192	wordpools/wasnorm_wordpool.txt	LTP104	ltpFR	19	13	0	GIRAFFE	636	n/a	1	1	0.412841796875	0.57763671875	upper	../fonts/zerothre.ttf
2418.326	n/a	WORD	1209163	wordpools/wasnorm_wordpool.txt	LTP104	ltpFR	19	13	0	FARM	552	n/a	1	1	0.412841796875	0.57763671875	upper	../fonts/zerothre.ttf
2422.266	n/a	WORD	1211133	wordpools/wasnorm_wordpool.txt	LTP104	ltpFR	19	13	0	BOWL	158	n/a	0	1	0.412841796875	0.57763671875	upper	../fonts/zerothre.ttf
2426.208	n/a	WORD	1213104	wordpools/wasnorm_wordpool.txt	LTP104	ltpFR	19	13	1	FOOTBALL	591	n/a	0	0	0.5869140625	0.422607421875	lower	../fonts/amplitud.ttf
2430.1	n/a	WORD	1215050	wordpools/wasnorm_wordpool.txt	LTP104	ltpFR	19	13	1	STAPLER	1372	n/a	0	0	0.5869140625	0.422607421875	lower	../fonts/amplitud.ttf
2434.142	n/a	WORD	1217071	wordpools/wasnorm_wordpool.txt	LTP104	ltpFR	19	13	1	RELISH	1183	n/a	0	0	0.5869140625	0.422607421875	lower	../fonts/amplitud.ttf
2437.992	n/a	WORD	1218996	wordpools/wasnorm_wordpool.txt	LTP104	ltpFR	19	13	1	KETCHUP	771	n/a	0	0	0.5869140625	0.422607421875	lower	../fonts/amplitud.ttf
2442.066	n/a	WORD	1221033	wordpools/wasnorm_wordpool.txt	LTP104	ltpFR	19	13	0	PIGEON	1065	n/a	0	1	0.412841796875	0.57763671875	upper	../fonts/zerothre.ttf
2445.966	n/a	WORD	1222983	wordpools/wasnorm_wordpool.txt	LTP104	ltpFR	19	13	0	MONSTER	912	n/a	1	1	0.412841796875	0.57763671875	upper	../fonts/zerothre.ttf
2449.908	n/a	WORD	1224954	wordpools/wasnorm_wordpool.txt	LTP104	ltpFR	19	13	1	CORPORATION	382	n/a	0	0	0.5869140625	0.422607421875	lower	../fonts/amplitud.ttf
2453.942	n/a	WORD	1226971	wordpools/wasnorm_wordpool.txt	LTP104	ltpFR	19	13	1	MINT	898	n/a	0	0	0.5869140625	0.422607421875	lower	../fonts/amplitud.ttf
2458.108	n/a	WORD	1229054	wordpools/wasnorm_wordpool.txt	LTP104	ltpFR	19	13	1	VOLUNTEER	1577	n/a	1	0	0.5869140625	0.422607421875	lower	../fonts/amplitud.ttf
2462.29	n/a	WORD	1231145	wordpools/wasnorm_wordpool.txt	LTP104	ltpFR	19	13	1	COPIER	377	n/a	0	0	0.5869140625	0.422607421875	lower	../fonts/amplitud.ttf
2466.342	n/a	WORD	1233171	wordpools/wasnorm_wordpool.txt	LTP104	ltpFR	19	13	0	PARROT	1015	n/a	1	1	0.412841796875	0.57763671875	upper	../fonts/zerothre.ttf
2470.44	n/a	WORD	1235220	wordpools/wasnorm_wordpool.txt	LTP104	ltpFR	19	13	0	SCISSORS	1250	n/a	0	1	0.412841796875	0.57763671875	upper	../fonts/zerothre.ttf
2476.324	n/a	REC_START	1238162	n/a	LTP104	ltpFR	19	13	n/a	n/a	n/a	n/a	n/a	n/a	n/a	n/a	n/a	n/a
2477.806	n/a	REC_WORD	1238903	wordpools/wasnorm_wordpool.txt	LTP104	ltpFR	19	13	0	DINOSAUR	469	n/a	1	n/a	n/a	n/a	n/a	n/a
2479.188	n/a	REC_WORD	1239594	wordpools/wasnorm_wordpool.txt	LTP104	ltpFR	19	13	0	GIRAFFE	636	n/a	1	n/a	n/a	n/a	n/a	n/a
2480.346	n/a	REC_WORD	1240173	wordpools/wasnorm_wordpool.txt	LTP104	ltpFR	19	13	n/a	NECK	939	n/a	n/a	n/a	n/a	n/a	n/a	n/a
2481.392	n/a	REC_WORD	1240696	wordpools/wasnorm_wordpool.txt	LTP104	ltpFR	19	13	n/a	SCALE	1241	n/a	n/a	n/a	n/a	n/a	n/a	n/a
2482.914	n/a	REC_WORD	1241457	wordpools/wasnorm_wordpool.txt	LTP104	ltpFR	19	13	n/a	LONG	-1	n/a	n/a	n/a	n/a	n/a	n/a	n/a
2486.348	n/a	REC_WORD	1243174	wordpools/wasnorm_wordpool.txt	LTP104	ltpFR	19	13	0	FARM	552	n/a	1	n/a	n/a	n/a	n/a	n/a
2487.57	n/a	REC_WORD	1243785	wordpools/wasnorm_wordpool.txt	LTP104	ltpFR	19	13	n/a	BULL	193	n/a	n/a	n/a	n/a	n/a	n/a	n/a
2491.83	n/a	REC_WORD	1245915	wordpools/wasnorm_wordpool.txt	LTP104	ltpFR	19	13	1	FOOTBALL	591	n/a	0	n/a	n/a	n/a	n/a	n/a
2493.002	n/a	REC_WORD	1246501	wordpools/wasnorm_wordpool.txt	LTP104	ltpFR	19	13	1	STAPLER	1372	n/a	0	n/a	n/a	n/a	n/a	n/a
2494.818	n/a	REC_WORD	1247409	wordpools/wasnorm_wordpool.txt	LTP104	ltpFR	19	13	1	RELISH	1183	n/a	0	n/a	n/a	n/a	n/a	n/a
2496.116	n/a	REC_WORD	1248058	wordpools/wasnorm_wordpool.txt	LTP104	ltpFR	19	13	1	KETCHUP	771	n/a	0	n/a	n/a	n/a	n/a	n/a
2497.198	n/a	REC_WORD	1248599	wordpools/wasnorm_wordpool.txt	LTP104	ltpFR	19	13	0	MUSTARD	935	n/a	0	n/a	n/a	n/a	n/a	n/a
2503.568	n/a	REC_WORD	1251784	wordpools/wasnorm_wordpool.txt	LTP104	ltpFR	19	13	0	MONSTER	912	n/a	1	n/a	n/a	n/a	n/a	n/a
2511.058	n/a	REC_WORD	1255529	wordpools/wasnorm_wordpool.txt	LTP104	ltpFR	19	13	0	PIGEON	1065	n/a	0	n/a	n/a	n/a	n/a	n/a
2512.548	n/a	REC_WORD	1256274	wordpools/wasnorm_wordpool.txt	LTP104	ltpFR	19	13	0	PARROT	1015	n/a	1	n/a	n/a	n/a	n/a	n/a
2525.036	n/a	REC_WORD	1262518	wordpools/wasnorm_wordpool.txt	LTP104	ltpFR	19	13	1	COPIER	377	n/a	0	n/a	n/a	n/a	n/a	n/a
2554.828	n/a	WORD	1277414	wordpools/wasnorm_wordpool.txt	LTP104	ltpFR	19	14	0	FISH	571	n/a	1	1	0.412841796875	0.57763671875	upper	../fonts/zerothre.ttf
2558.662	n/a	WORD	1279331	wordpools/wasnorm_wordpool.txt	LTP104	ltpFR	19	14	0	KITE	779	n/a	1	1	0.412841796875	0.57763671875	upper	../fonts/zerothre.ttf
2562.504	n/a	WORD	1281252	wordpools/wasnorm_wordpool.txt	LTP104	ltpFR	19	14	1	ELK	526	n/a	1	0	0.5869140625	0.422607421875	lower	../fonts/amplitud.ttf
2566.372	n/a	WORD	1283186	wordpools/wasnorm_wordpool.txt	LTP104	ltpFR	19	14	1	BARLEY	88	n/a	0	0	0.5869140625	0.422607421875	lower	../fonts/amplitud.ttf
2570.288	n/a	WORD	1285144	wordpools/wasnorm_wordpool.txt	LTP104	ltpFR	19	14	1	WORKER	1621	n/a	1	0	0.5869140625	0.422607421875	lower	../fonts/amplitud.ttf
2574.422	n/a	WORD	1287211	wordpools/wasnorm_wordpool.txt	LTP104	ltpFR	19	14	1	TECHNICIAN	1443	n/a	1	0	0.5869140625	0.422607421875	lower	../fonts/amplitud.ttf
2578.52	n/a	WORD	1289260	wordpools/wasnorm_wordpool.txt	LTP104	ltpFR	19	14	1	PRODUCER	1129	n/a	1	0	0.5869140625	0.422607421875	lower	../fonts/amplitud.ttf
2582.678	n/a	WORD	1291339	wordpools/wasnorm_wordpool.txt	LTP104	ltpFR	19	14	0	POPCORN	1104	n/a	0	1	0.412841796875	0.57763671875	upper	../fonts/zerothre.ttf
2586.654	n/a	WORD	1293327	wordpools/wasnorm_wordpool.txt	LTP104	ltpFR	19	14	0	MISTER	901	n/a	1	1	0.412841796875	0.57763671875	upper	../fonts/zerothre.ttf
2590.728	n/a	WORD	1295364	wordpools/wasnorm_wordpool.txt	LTP104	ltpFR	19	14	0	SEAFOOD	1260	n/a	1	1	0.412841796875	0.57763671875	upper	../fonts/zerothre.ttf
2594.77	n/a	WORD	1297385	wordpools/wasnorm_wordpool.txt	LTP104	ltpFR	19	14	0	STATUE	1374	n/a	1	1	0.412841796875	0.57763671875	upper	../fonts/zerothre.ttf
2598.97	n/a	WORD	1299485	wordpools/wasnorm_wordpool.txt	LTP104	ltpFR	19	14	0	CRUMB	416	n/a	0	1	0.412841796875	0.57763671875	upper	../fonts/zerothre.ttf
2602.996	n/a	WORD	1301498	wordpools/wasnorm_wordpool.txt	LTP104	ltpFR	19	14	0	CATERPILLAR	259	n/a	0	1	0.412841796875	0.57763671875	upper	../fonts/zerothre.ttf
2606.92	n/a	WORD	1303460	wordpools/wasnorm_wordpool.txt	LTP104	ltpFR	19	14	1	MUMMY	932	n/a	0	0	0.5869140625	0.422607421875	lower	../fonts/amplitud.ttf
2610.736	n/a	WORD	1305368	wordpools/wasnorm_wordpool.txt	LTP104	ltpFR	19	14	1	SLIME	1327	n/a	0	0	0.5869140625	0.422607421875	lower	../fonts/amplitud.ttf
2614.886	n/a	WORD	1307443	wordpools/wasnorm_wordpool.txt	LTP104	ltpFR	19	14	1	LANDSCAPE	799	n/a	0	0	0.5869140625	0.422607421875	lower	../fonts/amplitud.ttf
2620.886	n/a	REC_START	1310443	n/a	LTP104	ltpFR	19	14	n/a	n/a	n/a	n/a	n/a	n/a	n/a	n/a	n/a	n/a
2622.284	n/a	REC_WORD	1311142	wordpools/wasnorm_wordpool.txt	LTP104	ltpFR	19	14	1	MUMMY	932	n/a	0	n/a	n/a	n/a	n/a	n/a
2623.392	n/a	REC_WORD	1311696	wordpools/wasnorm_wordpool.txt	LTP104	ltpFR	19	14	1	SLIME	1327	n/a	0	n/a	n/a	n/a	n/a	n/a
2624.998	n/a	REC_WORD	1312499	wordpools/wasnorm_wordpool.txt	LTP104	ltpFR	19	14	n/a	GOO	648	n/a	n/a	n/a	n/a	n/a	n/a	n/a
2626.05	n/a	REC_WORD	1313025	wordpools/wasnorm_wordpool.txt	LTP104	ltpFR	19	14	1	LANDSCAPE	799	n/a	0	n/a	n/a	n/a	n/a	n/a
2627.682	n/a	REC_WORD	1313841	wordpools/wasnorm_wordpool.txt	LTP104	ltpFR	19	14	n/a	DESERT	-1	n/a	n/a	n/a	n/a	n/a	n/a	n/a
2631.184	n/a	REC_WORD	1315592	wordpools/wasnorm_wordpool.txt	LTP104	ltpFR	19	14	0	FISH	571	n/a	1	n/a	n/a	n/a	n/a	n/a
2632.416	n/a	REC_WORD	1316208	wordpools/wasnorm_wordpool.txt	LTP104	ltpFR	19	14	0	KITE	779	n/a	1	n/a	n/a	n/a	n/a	n/a
2633.544	n/a	REC_WORD	1316772	wordpools/wasnorm_wordpool.txt	LTP104	ltpFR	19	14	1	ELK	526	n/a	1	n/a	n/a	n/a	n/a	n/a
2634.642	n/a	REC_WORD	1317321	wordpools/wasnorm_wordpool.txt	LTP104	ltpFR	19	14	n/a	DEER	444	n/a	n/a	n/a	n/a	n/a	n/a	n/a
2635.644	n/a	REC_WORD	1317822	wordpools/wasnorm_wordpool.txt	LTP104	ltpFR	19	14	n/a	STRING	1394	n/a	n/a	n/a	n/a	n/a	n/a	n/a
2637.294	n/a	REC_WORD	1318647	wordpools/wasnorm_wordpool.txt	LTP104	ltpFR	19	14	n/a	WIRE	1616	n/a	n/a	n/a	n/a	n/a	n/a	n/a
2638.846	n/a	REC_WORD	1319423	wordpools/wasnorm_wordpool.txt	LTP104	ltpFR	19	14	1	TECHNICIAN	1443	n/a	1	n/a	n/a	n/a	n/a	n/a
2640.284	n/a	REC_WORD	1320142	wordpools/wasnorm_wordpool.txt	LTP104	ltpFR	19	14	1	WORKER	1621	n/a	1	n/a	n/a	n/a	n/a	n/a
2641.776	n/a	REC_WORD	1320888	wordpools/wasnorm_wordpool.txt	LTP104	ltpFR	19	14	1	PRODUCER	1129	n/a	1	n/a	n/a	n/a	n/a	n/a
2643.328	n/a	REC_WORD	1321664	wordpools/wasnorm_wordpool.txt	LTP104	ltpFR	19	14	1	BARLEY	88	n/a	0	n/a	n/a	n/a	n/a	n/a
2644.768	n/a	REC_WORD	1322384	wordpools/wasnorm_wordpool.txt	LTP104	ltpFR	19	14	n/a	BEER	114	n/a	n/a	n/a	n/a	n/a	n/a	n/a
2649.348	n/a	REC_WORD	1324674	wordpools/wasnorm_wordpool.txt	LTP104	ltpFR	19	14	0	STATUE	1374	n/a	1	n/a	n/a	n/a	n/a	n/a
2654.278	n/a	REC_WORD	1327139	wordpools/wasnorm_wordpool.txt	LTP104	ltpFR	19	14	0	CRUMB	416	n/a	0	n/a	n/a	n/a	n/a	n/a
2698.684	n/a	WORD	1349342	wordpools/wasnorm_wordpool.txt	LTP104	ltpFR	19	15	1	BEET	115	n/a	0	0	0.5869140625	0.422607421875	lower	../fonts/amplitud.ttf
2702.858	n/a	WORD	1351429	wordpools/wasnorm_wordpool.txt	LTP104	ltpFR	19	15	1	SHOWER	1296	n/a	0	0	0.5869140625	0.422607421875	lower	../fonts/amplitud.ttf
2706.952	n/a	WORD	1353476	wordpools/wasnorm_wordpool.txt	LTP104	ltpFR	19	15	1	ALMANAC	17	n/a	0	0	0.5869140625	0.422607421875	lower	../fonts/amplitud.ttf
2711.1	n/a	WORD	1355550	wordpools/wasnorm_wordpool.txt	LTP104	ltpFR	19	15	1	TRAY	1498	n/a	0	0	0.5869140625	0.422607421875	lower	../fonts/amplitud.ttf
2715.184	n/a	WORD	1357592	wordpools/wasnorm_wordpool.txt	LTP104	ltpFR	19	15	1	HAIL	676	n/a	0	0	0.5869140625	0.422607421875	lower	../fonts/amplitud.ttf
2719.384	n/a	WORD	1359692	wordpools/wasnorm_wordpool.txt	LTP104	ltpFR	19	15	1	BULLY	196	n/a	1	0	0.5869140625	0.422607421875	lower	../fonts/amplitud.ttf
2723.292	n/a	WORD	1361646	wordpools/wasnorm_wordpool.txt	LTP104	ltpFR	19	15	1	VILLAIN	1567	n/a	1	0	0.5869140625	0.422607421875	lower	../fonts/amplitud.ttf
2727.134	n/a	WORD	1363567	wordpools/wasnorm_wordpool.txt	LTP104	ltpFR	19	15	1	WAX	1597	n/a	0	0	0.5869140625	0.422607421875	lower	../fonts/amplitud.ttf
2731.084	n/a	WORD	1365542	wordpools/wasnorm_wordpool.txt	LTP104	ltpFR	19	15	1	NAPKIN	937	n/a	0	0	0.5869140625	0.422607421875	lower	../fonts/amplitud.ttf
2735.226	n/a	WORD	1367613	wordpools/wasnorm_wordpool.txt	LTP104	ltpFR	19	15	1	BARRACUDA	90	n/a	1	0	0.5869140625	0.422607421875	lower	../fonts/amplitud.ttf
2739.234	n/a	WORD	1369617	wordpools/wasnorm_wordpool.txt	LTP104	ltpFR	19	15	1	SHRIMP	1297	n/a	1	0	0.5869140625	0.422607421875	lower	../fonts/amplitud.ttf
2743.258	n/a	WORD	1371629	wordpools/wasnorm_wordpool.txt	LTP104	ltpFR	19	15	1	WITCH	1617	n/a	1	0	0.5869140625	0.422607421875	lower	../fonts/amplitud.ttf
2747.226	n/a	WORD	1373613	wordpools/wasnorm_wordpool.txt	LTP104	ltpFR	19	15	1	FAMILY	550	n/a	1	0	0.5869140625	0.422607421875	lower	../fonts/amplitud.ttf
2751.084	n/a	WORD	1375542	wordpools/wasnorm_wordpool.txt	LTP104	ltpFR	19	15	1	NOVEL	960	n/a	0	0	0.5869140625	0.422607421875	lower	../fonts/amplitud.ttf
2755.158	n/a	WORD	1377579	wordpools/wasnorm_wordpool.txt	LTP104	ltpFR	19	15	1	CANDY	230	n/a	0	0	0.5869140625	0.422607421875	lower	../fonts/amplitud.ttf
2759.292	n/a	WORD	1379646	wordpools/wasnorm_wordpool.txt	LTP104	ltpFR	19	15	1	CANE	231	n/a	0	0	0.5869140625	0.422607421875	lower	../fonts/amplitud.ttf
2765.058	n/a	REC_START	1382529	n/a	LTP104	ltpFR	19	15	n/a	n/a	n/a	n/a	n/a	n/a	n/a	n/a	n/a	n/a
2767.976	n/a	REC_WORD	1383988	wordpools/wasnorm_wordpool.txt	LTP104	ltpFR	19	15	1	BEET	115	n/a	0	n/a	n/a	n/a	n/a	n/a
2769.22	n/a	REC_WORD	1384610	wordpools/wasnorm_wordpool.txt	LTP104	ltpFR	19	15	1	SHOWER	1296	n/a	0	n/a	n/a	n/a	n/a	n/a
2774.112	n/a	REC_WORD	1387056	wordpools/wasnorm_wordpool.txt	LTP104	ltpFR	19	15	n/a	BACTERIA	-1	n/a	n/a	n/a	n/a	n/a	n/a	n/a
2775.434	n/a	REC_WORD	1387717	wordpools/wasnorm_wordpool.txt	LTP104	ltpFR	19	15	-1	MILDEW	893	n/a	-1	n/a	n/a	n/a	n/a	n/a
2778.34	n/a	REC_WORD	1389170	wordpools/wasnorm_wordpool.txt	LTP104	ltpFR	19	15	1	TRAY	1498	n/a	0	n/a	n/a	n/a	n/a	n/a
2779.786	n/a	REC_WORD	1389893	wordpools/wasnorm_wordpool.txt	LTP104	ltpFR	19	15	n/a	SOAP	1337	n/a	n/a	n/a	n/a	n/a	n/a	n/a
2783.926	n/a	REC_WORD	1391963	wordpools/wasnorm_wordpool.txt	LTP104	ltpFR	19	15	1	BULLY	196	n/a	1	n/a	n/a	n/a	n/a	n/a
2785.164	n/a	REC_WORD	1392582	wordpools/wasnorm_wordpool.txt	LTP104	ltpFR	19	15	1	VILLAIN	1567	n/a	1	n/a	n/a	n/a	n/a	n/a
2786.736	n/a	REC_WORD	1393368	wordpools/wasnorm_wordpool.txt	LTP104	ltpFR	19	15	n/a	PROLIFERATE	-1	n/a	n/a	n/a	n/a	n/a	n/a	n/a
2792.358	n/a	REC_WORD	1396179	wordpools/wasnorm_wordpool.txt	LTP104	ltpFR	19	15	1	WAX	1597	n/a	0	n/a	n/a	n/a	n/a	n/a
2794.322	n/a	REC_WORD	1397161	wordpools/wasnorm_wordpool.txt	LTP104	ltpFR	19	15	n/a	SUBSTANCE	-1	n/a	n/a	n/a	n/a	n/a	n/a	n/a
2796.148	n/a	REC_WORD	1398074	wordpools/wasnorm_wordpool.txt	LTP104	ltpFR	19	15	1	NAPKIN	937	n/a	0	n/a	n/a	n/a	n/a	n/a
2800.256	n/a	REC_WORD	1400128	wordpools/wasnorm_wordpool.txt	LTP104	ltpFR	19	15	1	BARRACUDA	90	n/a	1	n/a	n/a	n/a	n/a	n/a
2801.642	n/a	REC_WORD	1400821	wordpools/wasnorm_wordpool.txt	LTP104	ltpFR	19	15	1	SHRIMP	1297	n/a	1	n/a	n/a	n/a	n/a	n/a
2803.044	n/a	REC_WORD	1401522	wordpools/wasnorm_wordpool.txt	LTP104	ltpFR	19	15	n/a	WALL	1582	n/a	n/a	n/a	n/a	n/a	n/a	n/a
2819.836	n/a	REC_WORD	1409918	wordpools/wasnorm_wordpool.txt	LTP104	ltpFR	19	15	1	FAMILY	550	n/a	1	n/a	n/a	n/a	n/a	n/a
2821.872	n/a	REC_WORD	1410936	wordpools/wasnorm_wordpool.txt	LTP104	ltpFR	19	15	n/a	DANGER	-1	n/a	n/a	n/a	n/a	n/a	n/a	n/a
2824.69	n/a	REC_WORD	1412345	wordpools/wasnorm_wordpool.txt	LTP104	ltpFR	19	15	1	WITCH	1617	n/a	1	n/a	n/a	n/a	n/a	n/a
2825.724	n/a	REC_WORD	1412862	wordpools/wasnorm_wordpool.txt	LTP104	ltpFR	19	15	1	NOVEL	960	n/a	0	n/a	n/a	n/a	n/a	n/a
2827.026	n/a	REC_WORD	1413513	wordpools/wasnorm_wordpool.txt	LTP104	ltpFR	19	15	1	CANDY	230	n/a	0	n/a	n/a	n/a	n/a	n/a
2828.242	n/a	REC_WORD	1414121	wordpools/wasnorm_wordpool.txt	LTP104	ltpFR	19	15	1	CANE	231	n/a	0	n/a	n/a	n/a	n/a	n/a
2829.426	n/a	REC_WORD	1414713	wordpools/wasnorm_wordpool.txt	LTP104	ltpFR	19	15	n/a	GINGERBREAD	-1	n/a	n/a	n/a	n/a	n/a	n/a	n/a
2843.572	n/a	WORD	1421786	wordpools/wasnorm_wordpool.txt	LTP104	ltpFR	19	16	0	CHIMNEY	301	n/a	1	1	0.412841796875	0.57763671875	upper	../fonts/zerothre.ttf
2847.43	n/a	WORD	1423715	wordpools/wasnorm_wordpool.txt	LTP104	ltpFR	19	16	0	DUSTPAN	509	n/a	0	1	0.412841796875	0.57763671875	upper	../fonts/zerothre.ttf
2851.604	n/a	WORD	1425802	wordpools/wasnorm_wordpool.txt	LTP104	ltpFR	19	16	0	RASPBERRY	1168	n/a	0	1	0.412841796875	0.57763671875	upper	../fonts/zerothre.ttf
2855.554	n/a	WORD	1427777	wordpools/wasnorm_wordpool.txt	LTP104	ltpFR	19	16	0	ORANGE	980	n/a	0	1	0.412841796875	0.57763671875	upper	../fonts/zerothre.ttf
2859.672	n/a	WORD	1429836	wordpools/wasnorm_wordpool.txt	LTP104	ltpFR	19	16	0	BARN	89	n/a	0	1	0.412841796875	0.57763671875	upper	../fonts/zerothre.ttf
2863.83	n/a	WORD	1431915	wordpools/wasnorm_wordpool.txt	LTP104	ltpFR	19	16	0	PITCHFORK	1078	n/a	1	1	0.412841796875	0.57763671875	upper	../fonts/zerothre.ttf
2867.812	n/a	WORD	1433906	wordpools/wasnorm_wordpool.txt	LTP104	ltpFR	19	16	0	BRICK	172	n/a	0	1	0.412841796875	0.57763671875	upper	../fonts/zerothre.ttf
2872.004	n/a	WORD	1436002	wordpools/wasnorm_wordpool.txt	LTP104	ltpFR	19	16	0	CORN	381	n/a	0	1	0.412841796875	0.57763671875	upper	../fonts/zerothre.ttf
2875.98	n/a	WORD	1437990	wordpools/wasnorm_wordpool.txt	LTP104	ltpFR	19	16	0	STEREO	1378	n/a	1	1	0.412841796875	0.57763671875	upper	../fonts/zerothre.ttf
2879.996	n/a	WORD	1439998	wordpools/wasnorm_wordpool.txt	LTP104	ltpFR	19	16	0	LODGE	839	n/a	1	1	0.412841796875	0.57763671875	upper	../fonts/zerothre.ttf
2883.904	n/a	WORD	1441952	wordpools/wasnorm_wordpool.txt	LTP104	ltpFR	19	16	0	ATTIC	56	n/a	1	1	0.412841796875	0.57763671875	upper	../fonts/zerothre.ttf
2887.904	n/a	WORD	1443952	wordpools/wasnorm_wordpool.txt	LTP104	ltpFR	19	16	0	FAN	551	n/a	1	1	0.412841796875	0.57763671875	upper	../fonts/zerothre.ttf
2891.97	n/a	WORD	1445985	wordpools/wasnorm_wordpool.txt	LTP104	ltpFR	19	16	0	BOYFRIEND	162	n/a	1	1	0.412841796875	0.57763671875	upper	../fonts/zerothre.ttf
2895.988	n/a	WORD	1447994	wordpools/wasnorm_wordpool.txt	LTP104	ltpFR	19	16	0	GOLD	647	n/a	1	1	0.412841796875	0.57763671875	upper	../fonts/zerothre.ttf
2900.172	n/a	WORD	1450086	wordpools/wasnorm_wordpool.txt	LTP104	ltpFR	19	16	0	HUT	729	n/a	1	1	0.412841796875	0.57763671875	upper	../fonts/zerothre.ttf
2904.08	n/a	WORD	1452040	wordpools/wasnorm_wordpool.txt	LTP104	ltpFR	19	16	0	RECORD	1176	n/a	0	1	0.412841796875	0.57763671875	upper	../fonts/zerothre.ttf
2909.912	n/a	REC_START	1454956	n/a	LTP104	ltpFR	19	16	n/a	n/a	n/a	n/a	n/a	n/a	n/a	n/a	n/a	n/a
2911.938	n/a	REC_WORD	1455969	wordpools/wasnorm_wordpool.txt	LTP104	ltpFR	19	16	0	HUT	729	n/a	1	n/a	n/a	n/a	n/a	n/a
2913.38	n/a	REC_WORD	1456690	wordpools/wasnorm_wordpool.txt	LTP104	ltpFR	19	16	0	RECORD	1176	n/a	0	n/a	n/a	n/a	n/a	n/a
2914.986	n/a	REC_WORD	1457493	wordpools/wasnorm_wordpool.txt	LTP104	ltpFR	19	16	0	CHIMNEY	301	n/a	1	n/a	n/a	n/a	n/a	n/a
2916.244	n/a	REC_WORD	1458122	wordpools/wasnorm_wordpool.txt	LTP104	ltpFR	19	16	0	DUSTPAN	509	n/a	0	n/a	n/a	n/a	n/a	n/a
2917.546	n/a	REC_WORD	1458773	wordpools/wasnorm_wordpool.txt	LTP104	ltpFR	19	16	n/a	ASH	44	n/a	n/a	n/a	n/a	n/a	n/a	n/a
2918.952	n/a	REC_WORD	1459476	wordpools/wasnorm_wordpool.txt	LTP104	ltpFR	19	16	0	RASPBERRY	1168	n/a	0	n/a	n/a	n/a	n/a	n/a
2920.364	n/a	REC_WORD	1460182	wordpools/wasnorm_wordpool.txt	LTP104	ltpFR	19	16	1	BABY	64	n/a	1	n/a	n/a	n/a	n/a	n/a
2923.138	n/a	REC_WORD	1461569	wordpools/wasnorm_wordpool.txt	LTP104	ltpFR	19	16	0	ORANGE	980	n/a	0	n/a	n/a	n/a	n/a	n/a
2924.226	n/a	REC_WORD	1462113	wordpools/wasnorm_wordpool.txt	LTP104	ltpFR	19	16	n/a	STOCKING	1383	n/a	n/a	n/a	n/a	n/a	n/a	n/a
2929.458	n/a	REC_WORD	1464729	wordpools/wasnorm_wordpool.txt	LTP104	ltpFR	19	16	0	BRICK	172	n/a	0	n/a	n/a	n/a	n/a	n/a
2931.674	n/a	REC_WORD	1465837	wordpools/wasnorm_wordpool.txt	LTP104	ltpFR	19	16	0	ATTIC	56	n/a	1	n/a	n/a	n/a	n/a	n/a
2932.93	n/a	REC_WORD	1466465	wordpools/wasnorm_wordpool.txt	LTP104	ltpFR	19	16	0	STEREO	1378	n/a	1	n/a	n/a	n/a	n/a	n/a
2934.334	n/a	REC_WORD	1467167	wordpools/wasnorm_wordpool.txt	LTP104	ltpFR	19	16	n/a	MUSIC	-1	n/a	n/a	n/a	n/a	n/a	n/a	n/a
2940.994	n/a	REC_WORD	1470497	wordpools/wasnorm_wordpool.txt	LTP104	ltpFR	19	16	0	FAN	551	n/a	1	n/a	n/a	n/a	n/a	n/a
2943.014	n/a	REC_WORD	1471507	wordpools/wasnorm_wordpool.txt	LTP104	ltpFR	19	16	0	BOYFRIEND	162	n/a	1	n/a	n/a	n/a	n/a	n/a
2948.496	n/a	REC_WORD	1474248	wordpools/wasnorm_wordpool.txt	LTP104	ltpFR	19	16	0	GOLD	647	n/a	1	n/a	n/a	n/a	n/a	n/a
2950.068	n/a	REC_WORD	1475034	wordpools/wasnorm_wordpool.txt	LTP104	ltpFR	19	16	0	CORN	381	n/a	0	n/a	n/a	n/a	n/a	n/a
2959.852	n/a	REC_WORD	1479926	wordpools/wasnorm_wordpool.txt	LTP104	ltpFR	19	16	0	HUT	729	n/a	1	n/a	n/a	n/a	n/a	n/a
2960.988	n/a	REC_WORD	1480494	wordpools/wasnorm_wordpool.txt	LTP104	ltpFR	19	16	0	LODGE	839	n/a	1	n/a	n/a	n/a	n/a	n/a
3006.584	n/a	REC_START	1503292	n/a	LTP104	ltpFR	19	n/a	n/a	n/a	n/a	n/a	n/a	n/a	n/a	n/a	n/a	n/a
3007.632	n/a	FFR_REC_WORD	1503816	wordpools/wasnorm_wordpool.txt	LTP104	ltpFR	19	n/a	0	CHIMNEY	301	n/a	1	n/a	n/a	n/a	n/a	n/a
3008.684	n/a	FFR_REC_WORD	1504342	wordpools/wasnorm_wordpool.txt	LTP104	ltpFR	19	n/a	0	DUSTPAN	509	n/a	0	n/a	n/a	n/a	n/a	n/a
3009.866	n/a	FFR_REC_WORD	1504933	wordpools/wasnorm_wordpool.txt	LTP104	ltpFR	19	n/a	n/a	SOOT	-1	n/a	n/a	n/a	n/a	n/a	n/a	n/a
3011.328	n/a	FFR_REC_WORD	1505664	wordpools/wasnorm_wordpool.txt	LTP104	ltpFR	19	n/a	0	RASPBERRY	1168	n/a	0	n/a	n/a	n/a	n/a	n/a
3013.05	n/a	FFR_REC_WORD	1506525	wordpools/wasnorm_wordpool.txt	LTP104	ltpFR	19	n/a	n/a	TUMMY	-1	n/a	n/a	n/a	n/a	n/a	n/a	n/a
3016.058	n/a	FFR_REC_WORD	1508029	wordpools/wasnorm_wordpool.txt	LTP104	ltpFR	19	n/a	0	ORANGE	980	n/a	0	n/a	n/a	n/a	n/a	n/a
3017.056	n/a	FFR_REC_WORD	1508528	wordpools/wasnorm_wordpool.txt	LTP104	ltpFR	19	n/a	n/a	SOCK	1339	n/a	n/a	n/a	n/a	n/a	n/a	n/a
3018.728	n/a	FFR_REC_WORD	1509364	wordpools/wasnorm_wordpool.txt	LTP104	ltpFR	19	n/a	0	BRICK	172	n/a	0	n/a	n/a	n/a	n/a	n/a
3019.954	n/a	FFR_REC_WORD	1509977	wordpools/wasnorm_wordpool.txt	LTP104	ltpFR	19	n/a	0	ATTIC	56	n/a	1	n/a	n/a	n/a	n/a	n/a
3020.962	n/a	FFR_REC_WORD	1510481	wordpools/wasnorm_wordpool.txt	LTP104	ltpFR	19	n/a	0	LODGE	839	n/a	1	n/a	n/a	n/a	n/a	n/a
3022.054	n/a	FFR_REC_WORD	1511027	wordpools/wasnorm_wordpool.txt	LTP104	ltpFR	19	n/a	0	STEREO	1378	n/a	1	n/a	n/a	n/a	n/a	n/a
3023.412	n/a	FFR_REC_WORD	1511706	wordpools/wasnorm_wordpool.txt	LTP104	ltpFR	19	n/a	n/a	MUSIC	-1	n/a	n/a	n/a	n/a	n/a	n/a	n/a
3024.624	n/a	FFR_REC_WORD	1512312	wordpools/wasnorm_wordpool.txt	LTP104	ltpFR	19	n/a	0	FAN	551	n/a	1	n/a	n/a	n/a	n/a	n/a
3026.096	n/a	FFR_REC_WORD	1513048	wordpools/wasnorm_wordpool.txt	LTP104	ltpFR	19	n/a	0	BOYFRIEND	162	n/a	1	n/a	n/a	n/a	n/a	n/a
3027.258	n/a	FFR_REC_WORD	1513629	wordpools/wasnorm_wordpool.txt	LTP104	ltpFR	19	n/a	0	GOLD	647	n/a	1	n/a	n/a	n/a	n/a	n/a
3028.536	n/a	FFR_REC_WORD	1514268	wordpools/wasnorm_wordpool.txt	LTP104	ltpFR	19	n/a	n/a	INGET	-1	n/a	n/a	n/a	n/a	n/a	n/a	n/a
3030.082	n/a	FFR_REC_WORD	1515041	wordpools/wasnorm_wordpool.txt	LTP104	ltpFR	19	n/a	0	HUT	729	n/a	1	n/a	n/a	n/a	n/a	n/a
3031.294	n/a	FFR_REC_WORD	1515647	wordpools/wasnorm_wordpool.txt	LTP104	ltpFR	19	n/a	0	SHACK	1273	n/a	1	n/a	n/a	n/a	n/a	n/a
3040.304	n/a	FFR_REC_WORD	1520152	wordpools/wasnorm_wordpool.txt	LTP104	ltpFR	19	n/a	1	MUMMY	932	n/a	0	n/a	n/a	n/a	n/a	n/a
3041.526	n/a	FFR_REC_WORD	1520763	wordpools/wasnorm_wordpool.txt	LTP104	ltpFR	19	n/a	1	LANDSCAPE	799	n/a	0	n/a	n/a	n/a	n/a	n/a
3042.744	n/a	FFR_REC_WORD	1521372	wordpools/wasnorm_wordpool.txt	LTP104	ltpFR	19	n/a	1	SLIME	1327	n/a	0	n/a	n/a	n/a	n/a	n/a
3045.478	n/a	FFR_REC_WORD	1522739	wordpools/wasnorm_wordpool.txt	LTP104	ltpFR	19	n/a	0	FISH	571	n/a	1	n/a	n/a	n/a	n/a	n/a
3046.834	n/a	FFR_REC_WORD	1523417	wordpools/wasnorm_wordpool.txt	LTP104	ltpFR	19	n/a	0	KITE	779	n/a	1	n/a	n/a	n/a	n/a	n/a
3047.962	n/a	FFR_REC_WORD	1523981	wordpools/wasnorm_wordpool.txt	LTP104	ltpFR	19	n/a	1	ELK	526	n/a	1	n/a	n/a	n/a	n/a	n/a
3049.034	n/a	FFR_REC_WORD	1524517	wordpools/wasnorm_wordpool.txt	LTP104	ltpFR	19	n/a	0	MISTER	901	n/a	1	n/a	n/a	n/a	n/a	n/a
3050.566	n/a	FFR_REC_WORD	1525283	wordpools/wasnorm_wordpool.txt	LTP104	ltpFR	19	n/a	1	TECHNICIAN	1443	n/a	1	n/a	n/a	n/a	n/a	n/a
3051.71	n/a	FFR_REC_WORD	1525855	wordpools/wasnorm_wordpool.txt	LTP104	ltpFR	19	n/a	1	PRODUCER	1129	n/a	1	n/a	n/a	n/a	n/a	n/a
3053.026	n/a	FFR_REC_WORD	1526513	wordpools/wasnorm_wordpool.txt	LTP104	ltpFR	19	n/a	1	WORKER	1621	n/a	1	n/a	n/a	n/a	n/a	n/a
3054.378	n/a	FFR_REC_WORD	1527189	wordpools/wasnorm_wordpool.txt	LTP104	ltpFR	19	n/a	1	BARLEY	88	n/a	0	n/a	n/a	n/a	n/a	n/a
3055.656	n/a	FFR_REC_WORD	1527828	wordpools/wasnorm_wordpool.txt	LTP104	ltpFR	19	n/a	0	POPCORN	1104	n/a	0	n/a	n/a	n/a	n/a	n/a
3057.008	n/a	FFR_REC_WORD	1528504	wordpools/wasnorm_wordpool.txt	LTP104	ltpFR	19	n/a	0	CORN	381	n/a	0	n/a	n/a	n/a	n/a	n/a
3059.532	n/a	FFR_REC_WORD	1529766	wordpools/wasnorm_wordpool.txt	LTP104	ltpFR	19	n/a	0	STATUE	1374	n/a	1	n/a	n/a	n/a	n/a	n/a
3061.008	n/a	FFR_REC_WORD	1530504	wordpools/wasnorm_wordpool.txt	LTP104	ltpFR	19	n/a	0	CRUMB	416	n/a	0	n/a	n/a	n/a	n/a	n/a
3064.844	n/a	FFR_REC_WORD	1532422	wordpools/wasnorm_wordpool.txt	LTP104	ltpFR	19	n/a	0	DINOSAUR	469	n/a	1	n/a	n/a	n/a	n/a	n/a
3066.212	n/a	FFR_REC_WORD	1533106	wordpools/wasnorm_wordpool.txt	LTP104	ltpFR	19	n/a	0	GIRAFFE	636	n/a	1	n/a	n/a	n/a	n/a	n/a
3067.404	n/a	FFR_REC_WORD	1533702	wordpools/wasnorm_wordpool.txt	LTP104	ltpFR	19	n/a	n/a	NECK	939	n/a	n/a	n/a	n/a	n/a	n/a	n/a
3068.322	n/a	FFR_REC_WORD	1534161	wordpools/wasnorm_wordpool.txt	LTP104	ltpFR	19	n/a	n/a	SCALE	1241	n/a	n/a	n/a	n/a	n/a	n/a	n/a
3070.652	n/a	FFR_REC_WORD	1535326	wordpools/wasnorm_wordpool.txt	LTP104	ltpFR	19	n/a	0	BARN	89	n/a	0	n/a	n/a	n/a	n/a	n/a
3071.72	n/a	FFR_REC_WORD	1535860	wordpools/wasnorm_wordpool.txt	LTP104	ltpFR	19	n/a	0	FARM	552	n/a	1	n/a	n/a	n/a	n/a	n/a
3073.252	n/a	FFR_REC_WORD	1536626	wordpools/wasnorm_wordpool.txt	LTP104	ltpFR	19	n/a	n/a	BULL	193	n/a	n/a	n/a	n/a	n/a	n/a	n/a
3076.454	n/a	FFR_REC_WORD	1538227	wordpools/wasnorm_wordpool.txt	LTP104	ltpFR	19	n/a	0	PIGEON	1065	n/a	0	n/a	n/a	n/a	n/a	n/a
3077.612	n/a	FFR_REC_WORD	1538806	wordpools/wasnorm_wordpool.txt	LTP104	ltpFR	19	n/a	0	PARROT	1015	n/a	1	n/a	n/a	n/a	n/a	n/a
3079.882	n/a	FFR_REC_WORD	1539941	wordpools/wasnorm_wordpool.txt	LTP104	ltpFR	19	n/a	0	MONSTER	912	n/a	1	n/a	n/a	n/a	n/a	n/a
3081.244	n/a	FFR_REC_WORD	1540622	wordpools/wasnorm_wordpool.txt	LTP104	ltpFR	19	n/a	-1	CREATURE	403	n/a	-1	n/a	n/a	n/a	n/a	n/a
3082.84	n/a	FFR_REC_WORD	1541420	wordpools/wasnorm_wordpool.txt	LTP104	ltpFR	19	n/a	-1	CACTUS	215	n/a	-1	n/a	n/a	n/a	n/a	n/a
3084.456	n/a	FFR_REC_WORD	1542228	wordpools/wasnorm_wordpool.txt	LTP104	ltpFR	19	n/a	-1	GARDEN	623	n/a	-1	n/a	n/a	n/a	n/a	n/a
3085.848	n/a	FFR_REC_WORD	1542924	wordpools/wasnorm_wordpool.txt	LTP104	ltpFR	19	n/a	n/a	DESERT	-1	n/a	n/a	n/a	n/a	n/a	n/a	n/a
3089.674	n/a	FFR_REC_WORD	1544837	wordpools/wasnorm_wordpool.txt	LTP104	ltpFR	19	n/a	-1	BRUNETTE	181	n/a	-1	n/a	n/a	n/a	n/a	n/a
3091.252	n/a	FFR_REC_WORD	1545626	wordpools/wasnorm_wordpool.txt	LTP104	ltpFR	19	n/a	n/a	WATER	1594	n/a	n/a	n/a	n/a	n/a	n/a	n/a
3093.308	n/a	FFR_REC_WORD	1546654	wordpools/wasnorm_wordpool.txt	LTP104	ltpFR	19	n/a	-1	BUCKLE	185	n/a	-1	n/a	n/a	n/a	n/a	n/a
3099.07	n/a	FFR_REC_WORD	1549535	wordpools/wasnorm_wordpool.txt	LTP104	ltpFR	19	n/a	-1	BAKER	71	n/a	-1	n/a	n/a	n/a	n/a	n/a
3100.202	n/a	FFR_REC_WORD	1550101	wordpools/wasnorm_wordpool.txt	LTP104	ltpFR	19	n/a	n/a	PASTRY	1022	n/a	n/a	n/a	n/a	n/a	n/a	n/a
3101.368	n/a	FFR_REC_WORD	1550684	wordpools/wasnorm_wordpool.txt	LTP104	ltpFR	19	n/a	-1	RESORT	1186	n/a	-1	n/a	n/a	n/a	n/a	n/a
3102.8	n/a	FFR_REC_WORD	1551400	wordpools/wasnorm_wordpool.txt	LTP104	ltpFR	19	n/a	-1	DUNE	506	n/a	-1	n/a	n/a	n/a	n/a	n/a
3110.214	n/a	FFR_REC_WORD	1555107	wordpools/wasnorm_wordpool.txt	LTP104	ltpFR	19	n/a	-1	ADOLESCENT	7	n/a	-1	n/a	n/a	n/a	n/a	n/a
3111.862	n/a	FFR_REC_WORD	1555931	wordpools/wasnorm_wordpool.txt	LTP104	ltpFR	19	n/a	-1	BLUEPRINT	142	n/a	-1	n/a	n/a	n/a	n/a	n/a
3114.9	n/a	FFR_REC_WORD	1557450	wordpools/wasnorm_wordpool.txt	LTP104	ltpFR	19	n/a	-1	BALLOON	75	n/a	-1	n/a	n/a	n/a	n/a	n/a
3116.39	n/a	FFR_REC_WORD	1558195	wordpools/wasnorm_wordpool.txt	LTP104	ltpFR	19	n/a	-1	TWEEZERS	1526	n/a	-1	n/a	n/a	n/a	n/a	n/a
3117.798	n/a	FFR_REC_WORD	1558899	wordpools/wasnorm_wordpool.txt	LTP104	ltpFR	19	n/a	-1	ROOF	1205	n/a	-1	n/a	n/a	n/a	n/a	n/a
3119.13	n/a	FFR_REC_WORD	1559565	wordpools/wasnorm_wordpool.txt	LTP104	ltpFR	19	n/a	-1	TERMITE	1451	n/a	-1	n/a	n/a	n/a	n/a	n/a
3120.416	n/a	FFR_REC_WORD	1560208	wordpools/wasnorm_wordpool.txt	LTP104	ltpFR	19	n/a	-1	LITTER	832	n/a	-1	n/a	n/a	n/a	n/a	n/a
3121.508	n/a	FFR_REC_WORD	1560754	wordpools/wasnorm_wordpool.txt	LTP104	ltpFR	19	n/a	n/a	SHAVINGS	-1	n/a	n/a	n/a	n/a	n/a	n/a	n/a
3126.862	n/a	FFR_REC_WORD	1563431	wordpools/wasnorm_wordpool.txt	LTP104	ltpFR	19	n/a	n/a	AIR	-1	n/a	n/a	n/a	n/a	n/a	n/a	n/a
3127.85	n/a	FFR_REC_WORD	1563925	wordpools/wasnorm_wordpool.txt	LTP104	ltpFR	19	n/a	-1	NITROGEN	954	n/a	-1	n/a	n/a	n/a	n/a	n/a
3133.598	n/a	FFR_REC_WORD	1566799	wordpools/wasnorm_wordpool.txt	LTP104	ltpFR	19	n/a	1	BARRACUDA	90	n/a	1	n/a	n/a	n/a	n/a	n/a
3134.82	n/a	FFR_REC_WORD	1567410	wordpools/wasnorm_wordpool.txt	LTP104	ltpFR	19	n/a	1	SHRIMP	1297	n/a	1	n/a	n/a	n/a	n/a	n/a
3138.078	n/a	FFR_REC_WORD	1569039	wordpools/wasnorm_wordpool.txt	LTP104	ltpFR	19	n/a	1	SHOWER	1296	n/a	0	n/a	n/a	n/a	n/a	n/a
3139.574	n/a	FFR_REC_WORD	1569787	wordpools/wasnorm_wordpool.txt	LTP104	ltpFR	19	n/a	1	BEET	115	n/a	0	n/a	n/a	n/a	n/a	n/a
3140.696	n/a	FFR_REC_WORD	1570348	wordpools/wasnorm_wordpool.txt	LTP104	ltpFR	19	n/a	n/a	BACTERIA	-1	n/a	n/a	n/a	n/a	n/a	n/a	n/a
3142.258	n/a	FFR_REC_WORD	1571129	wordpools/wasnorm_wordpool.txt	LTP104	ltpFR	19	n/a	1	BULLY	196	n/a	1	n/a	n/a	n/a	n/a	n/a
3144.612	n/a	FFR_REC_WORD	1572306	wordpools/wasnorm_wordpool.txt	LTP104	ltpFR	19	n/a	1	VILLAIN	1567	n/a	1	n/a	n/a	n/a	n/a	n/a
3147.038	n/a	FFR_REC_WORD	1573519	wordpools/wasnorm_wordpool.txt	LTP104	ltpFR	19	n/a	1	TRAY	1498	n/a	0	n/a	n/a	n/a	n/a	n/a
3148.184	n/a	FFR_REC_WORD	1574092	wordpools/wasnorm_wordpool.txt	LTP104	ltpFR	19	n/a	n/a	SOAP	1337	n/a	n/a	n/a	n/a	n/a	n/a	n/a
3153.548	n/a	FFR_REC_WORD	1576774	wordpools/wasnorm_wordpool.txt	LTP104	ltpFR	19	n/a	1	WITCH	1617	n/a	1	n/a	n/a	n/a	n/a	n/a
3154.896	n/a	FFR_REC_WORD	1577448	wordpools/wasnorm_wordpool.txt	LTP104	ltpFR	19	n/a	1	NOVEL	960	n/a	0	n/a	n/a	n/a	n/a	n/a
3156.312	n/a	FFR_REC_WORD	1578156	wordpools/wasnorm_wordpool.txt	LTP104	ltpFR	19	n/a	1	CANDY	230	n/a	0	n/a	n/a	n/a	n/a	n/a
3157.59	n/a	FFR_REC_WORD	1578795	wordpools/wasnorm_wordpool.txt	LTP104	ltpFR	19	n/a	1	CANE	231	n/a	0	n/a	n/a	n/a	n/a	n/a
3158.822	n/a	FFR_REC_WORD	1579411	wordpools/wasnorm_wordpool.txt	LTP104	ltpFR	19	n/a	n/a	GINGERBREAD	-1	n/a	n/a	n/a	n/a	n/a	n/a	n/a
3160.518	n/a	FFR_REC_WORD	1580259	wordpools/wasnorm_wordpool.txt	LTP104	ltpFR	19	n/a	1	FAMILY	550	n/a	1	n/a	n/a	n/a	n/a	n/a
3165.142	n/a	FFR_REC_WORD	1582571	wordpools/wasnorm_wordpool.txt	LTP104	ltpFR	19	n/a	1	CHERRY	293	n/a	0	n/a	n/a	n/a	n/a	n/a
3166.22	n/a	FFR_REC_WORD	1583110	wordpools/wasnorm_wordpool.txt	LTP104	ltpFR	19	n/a	1	COLUMN	350	n/a	0	n/a	n/a	n/a	n/a	n/a
3167.376	n/a	FFR_REC_WORD	1583688	wordpools/wasnorm_wordpool.txt	LTP104	ltpFR	19	n/a	1	CONTRACTOR	369	n/a	1	n/a	n/a	n/a	n/a	n/a
3171.274	n/a	FFR_REC_WORD	1585637	wordpools/wasnorm_wordpool.txt	LTP104	ltpFR	19	n/a	1	INMATE	738	n/a	1	n/a	n/a	n/a	n/a	n/a
3172.376	n/a	FFR_REC_WORD	1586188	wordpools/wasnorm_wordpool.txt	LTP104	ltpFR	19	n/a	n/a	PRISON	1127	n/a	n/a	n/a	n/a	n/a	n/a	n/a
3174.292	n/a	FFR_REC_WORD	1587146	wordpools/wasnorm_wordpool.txt	LTP104	ltpFR	19	n/a	1	DUNGEON	507	n/a	0	n/a	n/a	n/a	n/a	n/a
3175.44	n/a	FFR_REC_WORD	1587720	wordpools/wasnorm_wordpool.txt	LTP104	ltpFR	19	n/a	1	ANIMAL	23	n/a	1	n/a	n/a	n/a	n/a	n/a
3176.432	n/a	FFR_REC_WORD	1588216	wordpools/wasnorm_wordpool.txt	LTP104	ltpFR	19	n/a	n/a	SLAVE	-1	n/a	n/a	n/a	n/a	n/a	n/a	n/a
3178.438	n/a	FFR_REC_WORD	1589219	wordpools/wasnorm_wordpool.txt	LTP104	ltpFR	19	n/a	1	TOAD	1470	n/a	1	n/a	n/a	n/a	n/a	n/a
3179.426	n/a	FFR_REC_WORD	1589713	wordpools/wasnorm_wordpool.txt	LTP104	ltpFR	19	n/a	1	BUGGY	188	n/a	0	n/a	n/a	n/a	n/a	n/a
3180.514	n/a	FFR_REC_WORD	1590257	wordpools/wasnorm_wordpool.txt	LTP104	ltpFR	19	n/a	1	GARAGE	621	n/a	0	n/a	n/a	n/a	n/a	n/a
3183.432	n/a	FFR_REC_WORD	1591716	wordpools/wasnorm_wordpool.txt	LTP104	ltpFR	19	n/a	1	PARTY	1018	n/a	0	n/a	n/a	n/a	n/a	n/a
3185.392	n/a	FFR_REC_WORD	1592696	wordpools/wasnorm_wordpool.txt	LTP104	ltpFR	19	n/a	1	VIKING	1565	n/a	1	n/a	n/a	n/a	n/a	n/a
3186.63	n/a	FFR_REC_WORD	1593315	wordpools/wasnorm_wordpool.txt	LTP104	ltpFR	19	n/a	1	GODDESS	646	n/a	1	n/a	n/a	n/a	n/a	n/a
3188.09	n/a	FFR_REC_WORD	1594045	wordpools/wasnorm_wordpool.txt	LTP104	ltpFR	19	n/a	1	RING	1193	n/a	0	n/a	n/a	n/a	n/a	n/a
3190.002	n/a	FFR_REC_WORD	1595001	wordpools/wasnorm_wordpool.txt	LTP104	ltpFR	19	n/a	0	CELLAR	267	n/a	1	n/a	n/a	n/a	n/a	n/a
3191.31	n/a	FFR_REC_WORD	1595655	wordpools/wasnorm_wordpool.txt	LTP104	ltpFR	19	n/a	0	HEATER	698	n/a	1	n/a	n/a	n/a	n/a	n/a
3193.854	n/a	FFR_REC_WORD	1596927	wordpools/wasnorm_wordpool.txt	LTP104	ltpFR	19	n/a	0	HEAD	695	n/a	1	n/a	n/a	n/a	n/a	n/a
3194.992	n/a	FFR_REC_WORD	1597496	wordpools/wasnorm_wordpool.txt	LTP104	ltpFR	19	n/a	n/a	NECK	939	n/a	n/a	n/a	n/a	n/a	n/a	n/a
3197.012	n/a	FFR_REC_WORD	1598506	wordpools/wasnorm_wordpool.txt	LTP104	ltpFR	19	n/a	1	SCARF	1246	n/a	0	n/a	n/a	n/a	n/a	n/a
3198.428	n/a	FFR_REC_WORD	1599214	wordpools/wasnorm_wordpool.txt	LTP104	ltpFR	19	n/a	1	PIRATE	1074	n/a	1	n/a	n/a	n/a	n/a	n/a
3199.736	n/a	FFR_REC_WORD	1599868	wordpools/wasnorm_wordpool.txt	LTP104	ltpFR	19	n/a	1	MINT	898	n/a	0	n/a	n/a	n/a	n/a	n/a
3207.21	n/a	FFR_REC_WORD	1603605	wordpools/wasnorm_wordpool.txt	LTP104	ltpFR	19	n/a	1	DRINK	498	n/a	0	n/a	n/a	n/a	n/a	n/a
3208.252	n/a	FFR_REC_WORD	1604126	wordpools/wasnorm_wordpool.txt	LTP104	ltpFR	19	n/a	1	STRAW	1390	n/a	0	n/a	n/a	n/a	n/a	n/a
3209.788	n/a	FFR_REC_WORD	1604894	wordpools/wasnorm_wordpool.txt	LTP104	ltpFR	19	n/a	0	TURKEY	1520	n/a	1	n/a	n/a	n/a	n/a	n/a
3212.322	n/a	FFR_REC_WORD	1606161	wordpools/wasnorm_wordpool.txt	LTP104	ltpFR	19	n/a	1	RELISH	1183	n/a	0	n/a	n/a	n/a	n/a	n/a
3213.42	n/a	FFR_REC_WORD	1606710	wordpools/wasnorm_wordpool.txt	LTP104	ltpFR	19	n/a	0	MUSTARD	935	n/a	0	n/a	n/a	n/a	n/a	n/a
3215.062	n/a	FFR_REC_WORD	1607531	wordpools/wasnorm_wordpool.txt	LTP104	ltpFR	19	n/a	1	KETCHUP	771	n/a	0	n/a	n/a	n/a	n/a	n/a
3220.638	n/a	FFR_REC_WORD	1610319	wordpools/wasnorm_wordpool.txt	LTP104	ltpFR	19	n/a	1	FOOT	590	n/a	1	n/a	n/a	n/a	n/a	n/a
3221.782	n/a	FFR_REC_WORD	1610891	wordpools/wasnorm_wordpool.txt	LTP104	ltpFR	19	n/a	0	PERSONNEL	1053	n/a	1	n/a	n/a	n/a	n/a	n/a
3224.51	n/a	FFR_REC_WORD	1612255	wordpools/wasnorm_wordpool.txt	LTP104	ltpFR	19	n/a	n/a	BROCCOLI	176	n/a	n/a	n/a	n/a	n/a	n/a	n/a
3230.492	n/a	FFR_REC_WORD	1615246	wordpools/wasnorm_wordpool.txt	LTP104	ltpFR	19	n/a	1	LAGOON	795	n/a	0	n/a	n/a	n/a	n/a	n/a
3231.75	n/a	FFR_REC_WORD	1615875	wordpools/wasnorm_wordpool.txt	LTP104	ltpFR	19	n/a	1	PENGUIN	1044	n/a	1	n/a	n/a	n/a	n/a	n/a
3232.778	n/a	FFR_REC_WORD	1616389	wordpools/wasnorm_wordpool.txt	LTP104	ltpFR	19	n/a	1	LIVER	833	n/a	0	n/a	n/a	n/a	n/a	n/a
3234.234	n/a	FFR_REC_WORD	1617117	wordpools/wasnorm_wordpool.txt	LTP104	ltpFR	19	n/a	1	BENCH	121	n/a	0	n/a	n/a	n/a	n/a	n/a
3235.356	n/a	FFR_REC_WORD	1617678	wordpools/wasnorm_wordpool.txt	LTP104	ltpFR	19	n/a	0	PLANE	1081	n/a	1	n/a	n/a	n/a	n/a	n/a
3236.738	n/a	FFR_REC_WORD	1618369	wordpools/wasnorm_wordpool.txt	LTP104	ltpFR	19	n/a	0	PERCH	1048	n/a	1	n/a	n/a	n/a	n/a	n/a
3238.764	n/a	FFR_REC_WORD	1619382	wordpools/wasnorm_wordpool.txt	LTP104	ltpFR	19	n/a	0	WHALE	1601	n/a	1	n/a	n/a	n/a	n/a	n/a
3240.046	n/a	FFR_REC_WORD	1620023	wordpools/wasnorm_wordpool.txt	LTP104	ltpFR	19	n/a	0	COUNTRY	388	n/a	1	n/a	n/a	n/a	n/a	n/a
3241.112	n/a	FFR_REC_WORD	1620556	wordpools/wasnorm_wordpool.txt	LTP104	ltpFR	19	n/a	0	THICKET	1455	n/a	1	n/a	n/a	n/a	n/a	n/a
3251.036	n/a	FFR_REC_WORD	1625518	wordpools/wasnorm_wordpool.txt	LTP104	ltpFR	19	n/a	1	FOUNTAIN	597	n/a	0	n/a	n/a	n/a	n/a	n/a
3252.338	n/a	FFR_REC_WORD	1626169	wordpools/wasnorm_wordpool.txt	LTP104	ltpFR	19	n/a	1	DOLL	481	n/a	0	n/a	n/a	n/a	n/a	n/a
3253.412	n/a	FFR_REC_WORD	1626706	wordpools/wasnorm_wordpool.txt	LTP104	ltpFR	19	n/a	1	OWNER	993	n/a	1	n/a	n/a	n/a	n/a	n/a
3254.684	n/a	FFR_REC_WORD	1627342	wordpools/wasnorm_wordpool.txt	LTP104	ltpFR	19	n/a	1	KID	775	n/a	1	n/a	n/a	n/a	n/a	n/a
3255.81	n/a	FFR_REC_WORD	1627905	wordpools/wasnorm_wordpool.txt	LTP104	ltpFR	19	n/a	1	FRECKLE	602	n/a	0	n/a	n/a	n/a	n/a	n/a
3258.29	n/a	FFR_REC_WORD	1629145	wordpools/wasnorm_wordpool.txt	LTP104	ltpFR	19	n/a	1	SEAL	1262	n/a	1	n/a	n/a	n/a	n/a	n/a
3259.498	n/a	FFR_REC_WORD	1629749	wordpools/wasnorm_wordpool.txt	LTP104	ltpFR	19	n/a	1	GROUND	666	n/a	1	n/a	n/a	n/a	n/a	n/a
3260.53	n/a	FFR_REC_WORD	1630265	wordpools/wasnorm_wordpool.txt	LTP104	ltpFR	19	n/a	0	FLOOR	581	n/a	1	n/a	n/a	n/a	n/a	n/a
3263.16	n/a	FFR_REC_WORD	1631580	wordpools/wasnorm_wordpool.txt	LTP104	ltpFR	19	n/a	0	APPENDAGE	32	n/a	1	n/a	n/a	n/a	n/a	n/a
3264.362	n/a	FFR_REC_WORD	1632181	wordpools/wasnorm_wordpool.txt	LTP104	ltpFR	19	n/a	1	LIMB	822	n/a	0	n/a	n/a	n/a	n/a	n/a
3265.66	n/a	FFR_REC_WORD	1632830	wordpools/wasnorm_wordpool.txt	LTP104	ltpFR	19	n/a	1	UMPIRE	1535	n/a	1	n/a	n/a	n/a	n/a	n/a
3266.766	n/a	FFR_REC_WORD	1633383	wordpools/wasnorm_wordpool.txt	LTP104	ltpFR	19	n/a	1	DIVER	476	n/a	1	n/a	n/a	n/a	n/a	n/a
3267.864	n/a	FFR_REC_WORD	1633932	wordpools/wasnorm_wordpool.txt	LTP104	ltpFR	19	n/a	-1	SWIMMER	1420	n/a	-1	n/a	n/a	n/a	n/a	n/a
3276.51	n/a	FFR_REC_WORD	1638255	wordpools/wasnorm_wordpool.txt	LTP104	ltpFR	19	n/a	1	TEAPOT	1442	n/a	0	n/a	n/a	n/a	n/a	n/a
3283.648	n/a	FFR_REC_WORD	1641824	wordpools/wasnorm_wordpool.txt	LTP104	ltpFR	19	n/a	-1	MILITARY	894	n/a	-1	n/a	n/a	n/a	n/a	n/a
3284.82	n/a	FFR_REC_WORD	1642410	wordpools/wasnorm_wordpool.txt	LTP104	ltpFR	19	n/a	0	MARINE	869	n/a	3	n/a	n/a	n/a	n/a	n/a
3285.764	n/a	FFR_REC_WORD	1642882	wordpools/wasnorm_wordpool.txt	LTP104	ltpFR	19	n/a	-1	SUBMARINE	1398	n/a	-1	n/a	n/a	n/a	n/a	n/a
3291.94	n/a	FFR_REC_WORD	1645970	wordpools/wasnorm_wordpool.txt	LTP104	ltpFR	19	n/a	0	CROSS	413	n/a	0	n/a	n/a	n/a	n/a	n/a
3293.542	n/a	FFR_REC_WORD	1646771	wordpools/wasnorm_wordpool.txt	LTP104	ltpFR	19	n/a	0	UNCLE	1536	n/a	1	n/a	n/a	n/a	n/a	n/a
3294.594	n/a	FFR_REC_WORD	1647297	wordpools/wasnorm_wordpool.txt	LTP104	ltpFR	19	n/a	0	VET	1560	n/a	1	n/a	n/a	n/a	n/a	n/a
3295.612	n/a	FFR_REC_WORD	1647806	wordpools/wasnorm_wordpool.txt	LTP104	ltpFR	19	n/a	0	WALLET	1583	n/a	0	n/a	n/a	n/a	n/a	n/a
3298.706	n/a	FFR_REC_WORD	1649353	wordpools/wasnorm_wordpool.txt	LTP104	ltpFR	19	n/a	0	INSECT	740	n/a	0	n/a	n/a	n/a	n/a	n/a
3299.732	n/a	FFR_REC_WORD	1649866	wordpools/wasnorm_wordpool.txt	LTP104	ltpFR	19	n/a	0	BEETLE	116	n/a	0	n/a	n/a	n/a	n/a	n/a
3300.996	n/a	FFR_REC_WORD	1650498	wordpools/wasnorm_wordpool.txt	LTP104	ltpFR	19	n/a	0	COLLEGE	346	n/a	1	n/a	n/a	n/a	n/a	n/a
3303.21	n/a	FFR_REC_WORD	1651605	wordpools/wasnorm_wordpool.txt	LTP104	ltpFR	19	n/a	0	COUSIN	392	n/a	1	n/a	n/a	n/a	n/a	n/a
3317.502	n/a	REC_START	1658751	n/a	LTP104	ltpFR	19	1	n/a	n/a	n/a	n/a	n/a	n/a	n/a	n/a	n/a	n/a
3317.542	n/a	RECOG_TARGET	1658771	n/a	LTP104	ltpFR	19	1	0	WAREHOUSE	1588	5	1	n/a	n/a	n/a	n/a	n/a
3318.346	n/a	RECOG_RESP	1659173	n/a	LTP104	ltpFR	19	1	0	WAREHOUSE	1588	n/a	1	n/a	n/a	n/a	n/a	n/a
3320.112	n/a	RECOG_CONF	1660056	n/a	LTP104	ltpFR	19	1	0	WAREHOUSE	1588	5	1	n/a	n/a	n/a	n/a	n/a
3321.692	n/a	RECOG_TARGET	1660846	n/a	LTP104	ltpFR	19	1	1	HOSE	720	5	0	n/a	n/a	n/a	n/a	n/a
3322.48	n/a	RECOG_RESP	1661240	n/a	LTP104	ltpFR	19	1	1	HOSE	720	n/a	0	n/a	n/a	n/a	n/a	n/a
3323.234	n/a	RECOG_CONF	1661617	n/a	LTP104	ltpFR	19	1	1	HOSE	720	5	0	n/a	n/a	n/a	n/a	n/a
3324.66	n/a	RECOG_LURE	1662330	n/a	LTP104	ltpFR	19	1	n/a	LID	817	5	n/a	n/a	n/a	n/a	n/a	n/a
3325.266	n/a	RECOG_RESP	1662633	n/a	LTP104	ltpFR	19	1	n/a	LID	817	n/a	n/a	n/a	n/a	n/a	n/a	n/a
3325.96	n/a	RECOG_CONF	1662980	n/a	LTP104	ltpFR	19	1	n/a	LID	817	5	n/a	n/a	n/a	n/a	n/a	n/a
3327.344	n/a	RECOG_TARGET	1663672	n/a	LTP104	ltpFR	19	1	0	GALAXY	617	4	1	n/a	n/a	n/a	n/a	n/a
3327.954	n/a	RECOG_RESP	1663977	n/a	LTP104	ltpFR	19	1	0	GALAXY	617	n/a	1	n/a	n/a	n/a	n/a	n/a
3328.594	n/a	RECOG_CONF	1664297	n/a	LTP104	ltpFR	19	1	0	GALAXY	617	4	1	n/a	n/a	n/a	n/a	n/a
3330.11	n/a	RECOG_LURE	1665055	n/a	LTP104	ltpFR	19	1	n/a	SKULL	1320	5	n/a	n/a	n/a	n/a	n/a	n/a
3330.808	n/a	RECOG_RESP	1665404	n/a	LTP104	ltpFR	19	1	n/a	SKULL	1320	n/a	n/a	n/a	n/a	n/a	n/a	n/a
3331.436	n/a	RECOG_CONF	1665718	n/a	LTP104	ltpFR	19	1	n/a	SKULL	1320	5	n/a	n/a	n/a	n/a	n/a	n/a
3332.818	n/a	RECOG_TARGET	1666409	n/a	LTP104	ltpFR	19	1	0	COLLEGE	346	5	1	n/a	n/a	n/a	n/a	n/a
3333.398	n/a	RECOG_RESP	1666699	n/a	LTP104	ltpFR	19	1	0	COLLEGE	346	n/a	1	n/a	n/a	n/a	n/a	n/a
3334.05	n/a	RECOG_CONF	1667025	n/a	LTP104	ltpFR	19	1	0	COLLEGE	346	5	1	n/a	n/a	n/a	n/a	n/a
3335.426	n/a	RECOG_LURE	1667713	n/a	LTP104	ltpFR	19	1	n/a	CEMETERY	269	3	n/a	n/a	n/a	n/a	n/a	n/a
3336.256	n/a	RECOG_RESP	1668128	n/a	LTP104	ltpFR	19	1	n/a	CEMETERY	269	n/a	n/a	n/a	n/a	n/a	n/a	n/a
3337.014	n/a	RECOG_CONF	1668507	n/a	LTP104	ltpFR	19	1	n/a	CEMETERY	269	3	n/a	n/a	n/a	n/a	n/a	n/a
3338.376	n/a	RECOG_LURE	1669188	n/a	LTP104	ltpFR	19	1	n/a	GUM	672	4	n/a	n/a	n/a	n/a	n/a	n/a
3339.09	n/a	RECOG_RESP	1669545	n/a	LTP104	ltpFR	19	1	n/a	GUM	672	n/a	n/a	n/a	n/a	n/a	n/a	n/a
3339.668	n/a	RECOG_CONF	1669834	n/a	LTP104	ltpFR	19	1	n/a	GUM	672	4	n/a	n/a	n/a	n/a	n/a	n/a
3341.068	n/a	RECOG_TARGET	1670534	n/a	LTP104	ltpFR	19	1	0	LODGE	839	5	1	n/a	n/a	n/a	n/a	n/a
3341.674	n/a	RECOG_RESP	1670837	n/a	LTP104	ltpFR	19	1	0	LODGE	839	n/a	1	n/a	n/a	n/a	n/a	n/a
3342.362	n/a	RECOG_CONF	1671181	n/a	LTP104	ltpFR	19	1	0	LODGE	839	5	1	n/a	n/a	n/a	n/a	n/a
3343.734	n/a	RECOG_TARGET	1671867	n/a	LTP104	ltpFR	19	1	-1	HOOD	714	5	-1	n/a	n/a	n/a	n/a	n/a
3344.228	n/a	RECOG_RESP	1672114	n/a	LTP104	ltpFR	19	1	-1	HOOD	714	n/a	-1	n/a	n/a	n/a	n/a	n/a
3344.936	n/a	RECOG_CONF	1672468	n/a	LTP104	ltpFR	19	1	-1	HOOD	714	5	-1	n/a	n/a	n/a	n/a	n/a
3346.352	n/a	RECOG_LURE	1673176	n/a	LTP104	ltpFR	19	1	n/a	GUARDIAN	668	5	n/a	n/a	n/a	n/a	n/a	n/a
3346.888	n/a	RECOG_RESP	1673444	n/a	LTP104	ltpFR	19	1	n/a	GUARDIAN	668	n/a	n/a	n/a	n/a	n/a	n/a	n/a
3347.57	n/a	RECOG_CONF	1673785	n/a	LTP104	ltpFR	19	1	n/a	GUARDIAN	668	5	n/a	n/a	n/a	n/a	n/a	n/a
3348.918	n/a	RECOG_LURE	1674459	n/a	LTP104	ltpFR	19	1	n/a	FAUCET	555	2	n/a	n/a	n/a	n/a	n/a	n/a
3349.462	n/a	RECOG_RESP	1674731	n/a	LTP104	ltpFR	19	1	n/a	FAUCET	555	n/a	n/a	n/a	n/a	n/a	n/a	n/a
3350.224	n/a	RECOG_CONF	1675112	n/a	LTP104	ltpFR	19	1	n/a	FAUCET	555	2	n/a	n/a	n/a	n/a	n/a	n/a
3351.574	n/a	RECOG_TARGET	1675787	n/a	LTP104	ltpFR	19	1	1	FAMILY	550	5	1	n/a	n/a	n/a	n/a	n/a
3352.076	n/a	RECOG_RESP	1676038	n/a	LTP104	ltpFR	19	1	1	FAMILY	550	n/a	1	n/a	n/a	n/a	n/a	n/a
3352.71	n/a	RECOG_CONF	1676355	n/a	LTP104	ltpFR	19	1	1	FAMILY	550	5	1	n/a	n/a	n/a	n/a	n/a
3354.15	n/a	RECOG_LURE	1677075	n/a	LTP104	ltpFR	19	1	n/a	TUSK	1523	5	n/a	n/a	n/a	n/a	n/a	n/a
3354.74	n/a	RECOG_RESP	1677370	n/a	LTP104	ltpFR	19	1	n/a	TUSK	1523	n/a	n/a	n/a	n/a	n/a	n/a	n/a
3355.454	n/a	RECOG_CONF	1677727	n/a	LTP104	ltpFR	19	1	n/a	TUSK	1523	5	n/a	n/a	n/a	n/a	n/a	n/a
3356.75	n/a	RECOG_TARGET	1678375	n/a	LTP104	ltpFR	19	1	-1	HELMET	702	5	-1	n/a	n/a	n/a	n/a	n/a
3357.304	n/a	RECOG_RESP	1678652	n/a	LTP104	ltpFR	19	1	-1	HELMET	702	n/a	-1	n/a	n/a	n/a	n/a	n/a
3357.978	n/a	RECOG_CONF	1678989	n/a	LTP104	ltpFR	19	1	-1	HELMET	702	5	-1	n/a	n/a	n/a	n/a	n/a
3359.416	n/a	RECOG_TARGET	1679708	n/a	LTP104	ltpFR	19	1	-1	NITROGEN	954	5	-1	n/a	n/a	n/a	n/a	n/a
3359.932	n/a	RECOG_RESP	1679966	n/a	LTP104	ltpFR	19	1	-1	NITROGEN	954	n/a	-1	n/a	n/a	n/a	n/a	n/a
3360.612	n/a	RECOG_CONF	1680306	n/a	LTP104	ltpFR	19	1	-1	NITROGEN	954	5	-1	n/a	n/a	n/a	n/a	n/a
3362.05	n/a	RECOG_TARGET	1681025	n/a	LTP104	ltpFR	19	1	0	CELLAR	267	5	1	n/a	n/a	n/a	n/a	n/a
3362.542	n/a	RECOG_RESP	1681271	n/a	LTP104	ltpFR	19	1	0	CELLAR	267	n/a	1	n/a	n/a	n/a	n/a	n/a
3363.226	n/a	RECOG_CONF	1681613	n/a	LTP104	ltpFR	19	1	0	CELLAR	267	5	1	n/a	n/a	n/a	n/a	n/a
3364.684	n/a	RECOG_LURE	1682342	n/a	LTP104	ltpFR	19	1	n/a	LAWYER	806	2	n/a	n/a	n/a	n/a	n/a	n/a
3365.276	n/a	RECOG_RESP	1682638	n/a	LTP104	ltpFR	19	1	n/a	LAWYER	806	n/a	n/a	n/a	n/a	n/a	n/a	n/a
3366.05	n/a	RECOG_CONF	1683025	n/a	LTP104	ltpFR	19	1	n/a	LAWYER	806	2	n/a	n/a	n/a	n/a	n/a	n/a
3367.518	n/a	RECOG_TARGET	1683759	n/a	LTP104	ltpFR	19	1	1	CABIN	211	2	0	n/a	n/a	n/a	n/a	n/a
3368.524	n/a	RECOG_RESP	1684262	n/a	LTP104	ltpFR	19	1	1	CABIN	211	n/a	0	n/a	n/a	n/a	n/a	n/a
3369.242	n/a	RECOG_CONF	1684621	n/a	LTP104	ltpFR	19	1	1	CABIN	211	2	0	n/a	n/a	n/a	n/a	n/a
3370.708	n/a	RECOG_TARGET	1685354	n/a	LTP104	ltpFR	19	1	1	WHISKERS	1605	5	0	n/a	n/a	n/a	n/a	n/a
3371.274	n/a	RECOG_RESP	1685637	n/a	LTP104	ltpFR	19	1	1	WHISKERS	1605	n/a	0	n/a	n/a	n/a	n/a	n/a
3371.986	n/a	RECOG_CONF	1685993	n/a	LTP104	ltpFR	19	1	1	WHISKERS	1605	5	0	n/a	n/a	n/a	n/a	n/a
3377.416	n/a	REC_START	1688708	n/a	LTP104	ltpFR	19	2	n/a	n/a	n/a	n/a	n/a	n/a	n/a	n/a	n/a	n/a
3377.45	n/a	RECOG_TARGET	1688725	n/a	LTP104	ltpFR	19	2	1	RING	1193	5	0	n/a	n/a	n/a	n/a	n/a
3377.99	n/a	RECOG_RESP	1688995	n/a	LTP104	ltpFR	19	2	1	RING	1193	n/a	0	n/a	n/a	n/a	n/a	n/a
3378.638	n/a	RECOG_CONF	1689319	n/a	LTP104	ltpFR	19	2	1	RING	1193	5	0	n/a	n/a	n/a	n/a	n/a
3379.966	n/a	RECOG_TARGET	1689983	n/a	LTP104	ltpFR	19	2	0	HEAD	695	5	1	n/a	n/a	n/a	n/a	n/a
3380.458	n/a	RECOG_RESP	1690229	n/a	LTP104	ltpFR	19	2	0	HEAD	695	n/a	1	n/a	n/a	n/a	n/a	n/a
3381.122	n/a	RECOG_CONF	1690561	n/a	LTP104	ltpFR	19	2	0	HEAD	695	5	1	n/a	n/a	n/a	n/a	n/a
3382.4	n/a	RECOG_TARGET	1691200	n/a	LTP104	ltpFR	19	2	1	BARRACUDA	90	5	1	n/a	n/a	n/a	n/a	n/a
3382.914	n/a	RECOG_RESP	1691457	n/a	LTP104	ltpFR	19	2	1	BARRACUDA	90	n/a	1	n/a	n/a	n/a	n/a	n/a
3383.548	n/a	RECOG_CONF	1691774	n/a	LTP104	ltpFR	19	2	1	BARRACUDA	90	5	1	n/a	n/a	n/a	n/a	n/a
3384.9	n/a	RECOG_TARGET	1692450	n/a	LTP104	ltpFR	19	2	0	VET	1560	5	1	n/a	n/a	n/a	n/a	n/a
3385.434	n/a	RECOG_RESP	1692717	n/a	LTP104	ltpFR	19	2	0	VET	1560	n/a	1	n/a	n/a	n/a	n/a	n/a
3386.062	n/a	RECOG_CONF	1693031	n/a	LTP104	ltpFR	19	2	0	VET	1560	5	1	n/a	n/a	n/a	n/a	n/a
3387.434	n/a	RECOG_TARGET	1693717	n/a	LTP104	ltpFR	19	2	0	HEATER	698	5	1	n/a	n/a	n/a	n/a	n/a
3387.948	n/a	RECOG_RESP	1693974	n/a	LTP104	ltpFR	19	2	0	HEATER	698	n/a	1	n/a	n/a	n/a	n/a	n/a
3388.586	n/a	RECOG_CONF	1694293	n/a	LTP104	ltpFR	19	2	0	HEATER	698	5	1	n/a	n/a	n/a	n/a	n/a
3389.992	n/a	RECOG_TARGET	1694996	n/a	LTP104	ltpFR	19	2	-1	TERMITE	1451	5	-1	n/a	n/a	n/a	n/a	n/a
3390.502	n/a	RECOG_RESP	1695251	n/a	LTP104	ltpFR	19	2	-1	TERMITE	1451	n/a	-1	n/a	n/a	n/a	n/a	n/a
3391.11	n/a	RECOG_CONF	1695555	n/a	LTP104	ltpFR	19	2	-1	TERMITE	1451	5	-1	n/a	n/a	n/a	n/a	n/a
3392.508	n/a	RECOG_TARGET	1696254	n/a	LTP104	ltpFR	19	2	0	MARINE	869	5	3	n/a	n/a	n/a	n/a	n/a
3393.036	n/a	RECOG_RESP	1696518	n/a	LTP104	ltpFR	19	2	0	MARINE	869	n/a	3	n/a	n/a	n/a	n/a	n/a
3393.664	n/a	RECOG_CONF	1696832	n/a	LTP104	ltpFR	19	2	0	MARINE	869	5	3	n/a	n/a	n/a	n/a	n/a
3395.066	n/a	RECOG_TARGET	1697533	n/a	LTP104	ltpFR	19	2	0	SALMON	1227	5	1	n/a	n/a	n/a	n/a	n/a
3395.61	n/a	RECOG_RESP	1697805	n/a	LTP104	ltpFR	19	2	0	SALMON	1227	n/a	1	n/a	n/a	n/a	n/a	n/a
3396.198	n/a	RECOG_CONF	1698099	n/a	LTP104	ltpFR	19	2	0	SALMON	1227	5	1	n/a	n/a	n/a	n/a	n/a
3397.666	n/a	RECOG_TARGET	1698833	n/a	LTP104	ltpFR	19	2	-1	GARDEN	623	5	-1	n/a	n/a	n/a	n/a	n/a
3398.274	n/a	RECOG_RESP	1699137	n/a	LTP104	ltpFR	19	2	-1	GARDEN	623	n/a	-1	n/a	n/a	n/a	n/a	n/a
3398.952	n/a	RECOG_CONF	1699476	n/a	LTP104	ltpFR	19	2	-1	GARDEN	623	5	-1	n/a	n/a	n/a	n/a	n/a
3400.358	n/a	RECOG_LURE	1700179	n/a	LTP104	ltpFR	19	2	n/a	COUGAR	387	4	n/a	n/a	n/a	n/a	n/a	n/a
3400.918	n/a	RECOG_RESP	1700459	n/a	LTP104	ltpFR	19	2	n/a	COUGAR	387	n/a	n/a	n/a	n/a	n/a	n/a	n/a
3401.486	n/a	RECOG_CONF	1700743	n/a	LTP104	ltpFR	19	2	n/a	COUGAR	387	4	n/a	n/a	n/a	n/a	n/a	n/a
3402.984	n/a	RECOG_TARGET	1701492	n/a	LTP104	ltpFR	19	2	1	POWDER	1117	4	0	n/a	n/a	n/a	n/a	n/a
3403.562	n/a	RECOG_RESP	1701781	n/a	LTP104	ltpFR	19	2	1	POWDER	1117	n/a	0	n/a	n/a	n/a	n/a	n/a
3404.278	n/a	RECOG_CONF	1702139	n/a	LTP104	ltpFR	19	2	1	POWDER	1117	4	0	n/a	n/a	n/a	n/a	n/a
3405.598	n/a	RECOG_LURE	1702799	n/a	LTP104	ltpFR	19	2	n/a	BARK	87	4	n/a	n/a	n/a	n/a	n/a	n/a
3406.382	n/a	RECOG_RESP	1703191	n/a	LTP104	ltpFR	19	2	n/a	BARK	87	n/a	n/a	n/a	n/a	n/a	n/a	n/a
3406.956	n/a	RECOG_CONF	1703478	n/a	LTP104	ltpFR	19	2	n/a	BARK	87	4	n/a	n/a	n/a	n/a	n/a	n/a
3408.408	n/a	RECOG_TARGET	1704204	n/a	LTP104	ltpFR	19	2	1	ANIMAL	23	5	1	n/a	n/a	n/a	n/a	n/a
3408.966	n/a	RECOG_RESP	1704483	n/a	LTP104	ltpFR	19	2	1	ANIMAL	23	n/a	1	n/a	n/a	n/a	n/a	n/a
3409.61	n/a	RECOG_CONF	1704805	n/a	LTP104	ltpFR	19	2	1	ANIMAL	23	5	1	n/a	n/a	n/a	n/a	n/a
3411.008	n/a	RECOG_TARGET	1705504	n/a	LTP104	ltpFR	19	2	-1	INCENSE	735	5	-1	n/a	n/a	n/a	n/a	n/a
