onset	duration	trial_type	sample	stim_file	subject	experiment	session	trial	task	item_name	item_num	recog_resp	recog_conf	resp	color_r	color_g	color_b	case	font
771.112	n/a	SESS_START	385556	n/a	LTP153	ltpFR	0	n/a	n/a	n/a	n/a	1	n/a	n/a	n/a	n/a	n/a	n/a	n/a
959.35	n/a	WORD	479675	wordpools/wasnorm_wordpool.txt	LTP153	ltpFR	0	1	-1	FRECKLE	602	n/a	n/a	-1	1.0	1.0	1	upper	Verdana.ttf
963.192	n/a	WORD	481596	wordpools/wasnorm_wordpool.txt	LTP153	ltpFR	0	1	-1	TOASTER	1472	n/a	n/a	-1	1.0	1.0	1	upper	Verdana.ttf
967.28	n/a	WORD	483640	wordpools/wasnorm_wordpool.txt	LTP153	ltpFR	0	1	-1	TABLE	1426	n/a	n/a	-1	1.0	1.0	1	upper	Verdana.ttf
971.296	n/a	WORD	485648	wordpools/wasnorm_wordpool.txt	LTP153	ltpFR	0	1	-1	WASHER	1592	n/a	n/a	-1	1.0	1.0	1	upper	Verdana.ttf
975.488	n/a	WORD	487744	wordpools/wasnorm_wordpool.txt	LTP153	ltpFR	0	1	-1	SLIME	1327	n/a	n/a	-1	1.0	1.0	1	upper	Verdana.ttf
979.546	n/a	WORD	489773	wordpools/wasnorm_wordpool.txt	LTP153	ltpFR	0	1	-1	DILL	465	n/a	n/a	-1	1.0	1.0	1	upper	Verdana.ttf
983.402	n/a	WORD	491701	wordpools/wasnorm_wordpool.txt	LTP153	ltpFR	0	1	-1	PATIO	1025	n/a	n/a	-1	1.0	1.0	1	upper	Verdana.ttf
987.5	n/a	WORD	493750	wordpools/wasnorm_wordpool.txt	LTP153	ltpFR	0	1	-1	RACCOON	1153	n/a	n/a	-1	1.0	1.0	1	upper	Verdana.ttf
991.49	n/a	WORD	495745	wordpools/wasnorm_wordpool.txt	LTP153	ltpFR	0	1	-1	QUILL	1150	n/a	n/a	-1	1.0	1.0	1	upper	Verdana.ttf
995.306	n/a	WORD	497653	wordpools/wasnorm_wordpool.txt	LTP153	ltpFR	0	1	-1	STAPLE	1371	n/a	n/a	-1	1.0	1.0	1	upper	Verdana.ttf
999.338	n/a	WORD	499669	wordpools/wasnorm_wordpool.txt	LTP153	ltpFR	0	1	-1	MAGICIAN	854	n/a	n/a	-1	1.0	1.0	1	upper	Verdana.ttf
1003.212	n/a	WORD	501606	wordpools/wasnorm_wordpool.txt	LTP153	ltpFR	0	1	-1	MICROSCOPE	891	n/a	n/a	-1	1.0	1.0	1	upper	Verdana.ttf
1007.194	n/a	WORD	503597	wordpools/wasnorm_wordpool.txt	LTP153	ltpFR	0	1	-1	FINGER	567	n/a	n/a	-1	1.0	1.0	1	upper	Verdana.ttf
1011.408	n/a	WORD	505704	wordpools/wasnorm_wordpool.txt	LTP153	ltpFR	0	1	-1	BUTTER	205	n/a	n/a	-1	1.0	1.0	1	upper	Verdana.ttf
1015.492	n/a	WORD	507746	wordpools/wasnorm_wordpool.txt	LTP153	ltpFR	0	1	-1	GUITAR	670	n/a	n/a	-1	1.0	1.0	1	upper	Verdana.ttf
1019.492	n/a	WORD	509746	wordpools/wasnorm_wordpool.txt	LTP153	ltpFR	0	1	-1	FIDDLE	561	n/a	n/a	-1	1.0	1.0	1	upper	Verdana.ttf
1025.448	n/a	REC_START	512724	n/a	LTP153	ltpFR	0	1	n/a	n/a	n/a	n/a	n/a	n/a	n/a	n/a	n/a	n/a	n/a
1026.436	n/a	REC_WORD	513218	wordpools/wasnorm_wordpool.txt	LTP153	ltpFR	0	1	-1	FIDDLE	561	n/a	n/a	-1	n/a	n/a	n/a	n/a	n/a
1027.492	n/a	REC_WORD	513746	wordpools/wasnorm_wordpool.txt	LTP153	ltpFR	0	1	-1	FRECKLE	602	n/a	n/a	-1	n/a	n/a	n/a	n/a	n/a
1028.814	n/a	REC_WORD	514407	wordpools/wasnorm_wordpool.txt	LTP153	ltpFR	0	1	-1	GUITAR	670	n/a	n/a	-1	n/a	n/a	n/a	n/a	n/a
1030.382	n/a	REC_WORD	515191	wordpools/wasnorm_wordpool.txt	LTP153	ltpFR	0	1	-1	SLIME	1327	n/a	n/a	-1	n/a	n/a	n/a	n/a	n/a
1031.924	n/a	REC_WORD	515962	wordpools/wasnorm_wordpool.txt	LTP153	ltpFR	0	1	-1	WASHER	1592	n/a	n/a	-1	n/a	n/a	n/a	n/a	n/a
1033.636	n/a	REC_WORD	516818	wordpools/wasnorm_wordpool.txt	LTP153	ltpFR	0	1	-1	TABLE	1426	n/a	n/a	-1	n/a	n/a	n/a	n/a	n/a
1035.148	n/a	REC_WORD	517574	wordpools/wasnorm_wordpool.txt	LTP153	ltpFR	0	1	-1	TOASTER	1472	n/a	n/a	-1	n/a	n/a	n/a	n/a	n/a
1037.412	n/a	REC_WORD	518706	wordpools/wasnorm_wordpool.txt	LTP153	ltpFR	0	1	-1	DILL	465	n/a	n/a	-1	n/a	n/a	n/a	n/a	n/a
1038.804	n/a	REC_WORD	519402	wordpools/wasnorm_wordpool.txt	LTP153	ltpFR	0	1	-1	QUILL	1150	n/a	n/a	-1	n/a	n/a	n/a	n/a	n/a
1042.39	n/a	REC_WORD	521195	wordpools/wasnorm_wordpool.txt	LTP153	ltpFR	0	1	-1	BUTTER	205	n/a	n/a	-1	n/a	n/a	n/a	n/a	n/a
1044.696	n/a	REC_WORD	522348	wordpools/wasnorm_wordpool.txt	LTP153	ltpFR	0	1	-1	PATIO	1025	n/a	n/a	-1	n/a	n/a	n/a	n/a	n/a
1053.142	n/a	REC_WORD	526571	wordpools/wasnorm_wordpool.txt	LTP153	ltpFR	0	1	-1	MAGICIAN	854	n/a	n/a	-1	n/a	n/a	n/a	n/a	n/a
1058.804	n/a	REC_WORD	529402	wordpools/wasnorm_wordpool.txt	LTP153	ltpFR	0	1	-1	STAPLE	1371	n/a	n/a	-1	n/a	n/a	n/a	n/a	n/a
1111.688	n/a	WORD	555844	wordpools/wasnorm_wordpool.txt	LTP153	ltpFR	0	2	-1	SUBURB	1399	n/a	n/a	-1	1.0	1.0	1	upper	Verdana.ttf
1115.504	n/a	WORD	557752	wordpools/wasnorm_wordpool.txt	LTP153	ltpFR	0	2	-1	BROCCOLI	176	n/a	n/a	-1	1.0	1.0	1	upper	Verdana.ttf
1119.668	n/a	WORD	559834	wordpools/wasnorm_wordpool.txt	LTP153	ltpFR	0	2	-1	POT	1114	n/a	n/a	-1	1.0	1.0	1	upper	Verdana.ttf
1123.534	n/a	WORD	561767	wordpools/wasnorm_wordpool.txt	LTP153	ltpFR	0	2	-1	CORK	380	n/a	n/a	-1	1.0	1.0	1	upper	Verdana.ttf
1127.568	n/a	WORD	563784	wordpools/wasnorm_wordpool.txt	LTP153	ltpFR	0	2	-1	VACUUM	1543	n/a	n/a	-1	1.0	1.0	1	upper	Verdana.ttf
1131.524	n/a	WORD	565762	wordpools/wasnorm_wordpool.txt	LTP153	ltpFR	0	2	-1	DRUG	501	n/a	n/a	-1	1.0	1.0	1	upper	Verdana.ttf
1135.58	n/a	WORD	567790	wordpools/wasnorm_wordpool.txt	LTP153	ltpFR	0	2	-1	CRAB	397	n/a	n/a	-1	1.0	1.0	1	upper	Verdana.ttf
1139.522	n/a	WORD	569761	wordpools/wasnorm_wordpool.txt	LTP153	ltpFR	0	2	-1	SHORE	1291	n/a	n/a	-1	1.0	1.0	1	upper	Verdana.ttf
1143.512	n/a	WORD	571756	wordpools/wasnorm_wordpool.txt	LTP153	ltpFR	0	2	-1	DWARF	510	n/a	n/a	-1	1.0	1.0	1	upper	Verdana.ttf
1147.552	n/a	WORD	573776	wordpools/wasnorm_wordpool.txt	LTP153	ltpFR	0	2	-1	HUSBAND	728	n/a	n/a	-1	1.0	1.0	1	upper	Verdana.ttf
1151.642	n/a	WORD	575821	wordpools/wasnorm_wordpool.txt	LTP153	ltpFR	0	2	-1	SKILLET	1317	n/a	n/a	-1	1.0	1.0	1	upper	Verdana.ttf
1155.616	n/a	WORD	577808	wordpools/wasnorm_wordpool.txt	LTP153	ltpFR	0	2	-1	CHICK	296	n/a	n/a	-1	1.0	1.0	1	upper	Verdana.ttf
1159.624	n/a	WORD	579812	wordpools/wasnorm_wordpool.txt	LTP153	ltpFR	0	2	-1	WINE	1613	n/a	n/a	-1	1.0	1.0	1	upper	Verdana.ttf
1163.54	n/a	WORD	581770	wordpools/wasnorm_wordpool.txt	LTP153	ltpFR	0	2	-1	SUBWAY	1400	n/a	n/a	-1	1.0	1.0	1	upper	Verdana.ttf
1167.596	n/a	WORD	583798	wordpools/wasnorm_wordpool.txt	LTP153	ltpFR	0	2	-1	BOX	159	n/a	n/a	-1	1.0	1.0	1	upper	Verdana.ttf
1171.646	n/a	WORD	585823	wordpools/wasnorm_wordpool.txt	LTP153	ltpFR	0	2	-1	PACKAGE	997	n/a	n/a	-1	1.0	1.0	1	upper	Verdana.ttf
1177.384	n/a	REC_START	588692	n/a	LTP153	ltpFR	0	2	n/a	n/a	n/a	n/a	n/a	n/a	n/a	n/a	n/a	n/a	n/a
1178.582	n/a	REC_WORD	589291	wordpools/wasnorm_wordpool.txt	LTP153	ltpFR	0	2	-1	SUBWAY	1400	n/a	n/a	-1	n/a	n/a	n/a	n/a	n/a
1179.804	n/a	REC_WORD	589902	wordpools/wasnorm_wordpool.txt	LTP153	ltpFR	0	2	-1	BOX	159	n/a	n/a	-1	n/a	n/a	n/a	n/a	n/a
1180.682	n/a	REC_WORD	590341	wordpools/wasnorm_wordpool.txt	LTP153	ltpFR	0	2	-1	PACKAGE	997	n/a	n/a	-1	n/a	n/a	n/a	n/a	n/a
1181.74	n/a	REC_WORD	590870	wordpools/wasnorm_wordpool.txt	LTP153	ltpFR	0	2	-1	SUBURB	1399	n/a	n/a	-1	n/a	n/a	n/a	n/a	n/a
1183.252	n/a	REC_WORD	591626	wordpools/wasnorm_wordpool.txt	LTP153	ltpFR	0	2	-1	SKILLET	1317	n/a	n/a	-1	n/a	n/a	n/a	n/a	n/a
1184.584	n/a	REC_WORD	592292	wordpools/wasnorm_wordpool.txt	LTP153	ltpFR	0	2	-1	POT	1114	n/a	n/a	-1	n/a	n/a	n/a	n/a	n/a
1185.886	n/a	REC_WORD	592943	wordpools/wasnorm_wordpool.txt	LTP153	ltpFR	0	2	-1	BROCCOLI	176	n/a	n/a	-1	n/a	n/a	n/a	n/a	n/a
1187.982	n/a	REC_WORD	593991	wordpools/wasnorm_wordpool.txt	LTP153	ltpFR	0	2	-1	DWARF	510	n/a	n/a	-1	n/a	n/a	n/a	n/a	n/a
1190.356	n/a	REC_WORD	595178	wordpools/wasnorm_wordpool.txt	LTP153	ltpFR	0	2	n/a	BEACH	-1	n/a	n/a	n/a	n/a	n/a	n/a	n/a	n/a
1194.356	n/a	REC_WORD	597178	wordpools/wasnorm_wordpool.txt	LTP153	ltpFR	0	2	-1	HUSBAND	728	n/a	n/a	-1	n/a	n/a	n/a	n/a	n/a
1195.356	n/a	REC_WORD_VV	597678	wordpools/wasnorm_wordpool.txt	LTP153	ltpFR	0	2	n/a	<>	-1	n/a	n/a	n/a	n/a	n/a	n/a	n/a	n/a
1199.816	n/a	REC_WORD	599908	wordpools/wasnorm_wordpool.txt	LTP153	ltpFR	0	2	-1	CRAB	397	n/a	n/a	-1	n/a	n/a	n/a	n/a	n/a
1201.502	n/a	REC_WORD	600751	wordpools/wasnorm_wordpool.txt	LTP153	ltpFR	0	2	-1	VACUUM	1543	n/a	n/a	-1	n/a	n/a	n/a	n/a	n/a
1222.45	n/a	REC_WORD	611225	wordpools/wasnorm_wordpool.txt	LTP153	ltpFR	0	2	-1	WINE	1613	n/a	n/a	-1	n/a	n/a	n/a	n/a	n/a
1259.044	n/a	WORD	629522	wordpools/wasnorm_wordpool.txt	LTP153	ltpFR	0	3	-1	CUB	419	n/a	n/a	-1	1.0	1.0	1	upper	Verdana.ttf
1262.942	n/a	WORD	631471	wordpools/wasnorm_wordpool.txt	LTP153	ltpFR	0	3	-1	STRAW	1390	n/a	n/a	-1	1.0	1.0	1	upper	Verdana.ttf
1266.992	n/a	WORD	633496	wordpools/wasnorm_wordpool.txt	LTP153	ltpFR	0	3	-1	CASTLE	256	n/a	n/a	-1	1.0	1.0	1	upper	Verdana.ttf
1271.056	n/a	WORD	635528	wordpools/wasnorm_wordpool.txt	LTP153	ltpFR	0	3	-1	PRINCESS	1125	n/a	n/a	-1	1.0	1.0	1	upper	Verdana.ttf
1275.222	n/a	WORD	637611	wordpools/wasnorm_wordpool.txt	LTP153	ltpFR	0	3	-1	FOUNTAIN	597	n/a	n/a	-1	1.0	1.0	1	upper	Verdana.ttf
1279.346	n/a	WORD	639673	wordpools/wasnorm_wordpool.txt	LTP153	ltpFR	0	3	-1	WALLET	1583	n/a	n/a	-1	1.0	1.0	1	upper	Verdana.ttf
1283.376	n/a	WORD	641688	wordpools/wasnorm_wordpool.txt	LTP153	ltpFR	0	3	-1	APRON	35	n/a	n/a	-1	1.0	1.0	1	upper	Verdana.ttf
1287.226	n/a	WORD	643613	wordpools/wasnorm_wordpool.txt	LTP153	ltpFR	0	3	-1	CUSTARD	429	n/a	n/a	-1	1.0	1.0	1	upper	Verdana.ttf
1291.358	n/a	WORD	645679	wordpools/wasnorm_wordpool.txt	LTP153	ltpFR	0	3	-1	WOLF	1619	n/a	n/a	-1	1.0	1.0	1	upper	Verdana.ttf
1295.348	n/a	WORD	647674	wordpools/wasnorm_wordpool.txt	LTP153	ltpFR	0	3	-1	RECEIPT	1173	n/a	n/a	-1	1.0	1.0	1	upper	Verdana.ttf
1299.548	n/a	WORD	649774	wordpools/wasnorm_wordpool.txt	LTP153	ltpFR	0	3	-1	LOFT	840	n/a	n/a	-1	1.0	1.0	1	upper	Verdana.ttf
1303.756	n/a	WORD	651878	wordpools/wasnorm_wordpool.txt	LTP153	ltpFR	0	3	-1	ROOF	1205	n/a	n/a	-1	1.0	1.0	1	upper	Verdana.ttf
1307.904	n/a	WORD	653952	wordpools/wasnorm_wordpool.txt	LTP153	ltpFR	0	3	-1	NECK	939	n/a	n/a	-1	1.0	1.0	1	upper	Verdana.ttf
1311.944	n/a	WORD	655972	wordpools/wasnorm_wordpool.txt	LTP153	ltpFR	0	3	-1	PIANO	1057	n/a	n/a	-1	1.0	1.0	1	upper	Verdana.ttf
1315.952	n/a	WORD	657976	wordpools/wasnorm_wordpool.txt	LTP153	ltpFR	0	3	-1	BAND	78	n/a	n/a	-1	1.0	1.0	1	upper	Verdana.ttf
1319.984	n/a	WORD	659992	wordpools/wasnorm_wordpool.txt	LTP153	ltpFR	0	3	-1	PUMP	1141	n/a	n/a	-1	1.0	1.0	1	upper	Verdana.ttf
1325.79	n/a	REC_START	662895	n/a	LTP153	ltpFR	0	3	n/a	n/a	n/a	n/a	n/a	n/a	n/a	n/a	n/a	n/a	n/a
1325.916	n/a	REC_WORD_VV	662958	wordpools/wasnorm_wordpool.txt	LTP153	ltpFR	0	3	n/a	<>	-1	n/a	n/a	n/a	n/a	n/a	n/a	n/a	n/a
1327.382	n/a	REC_WORD	663691	wordpools/wasnorm_wordpool.txt	LTP153	ltpFR	0	3	-1	CASTLE	256	n/a	n/a	-1	n/a	n/a	n/a	n/a	n/a
1328.43	n/a	REC_WORD	664215	wordpools/wasnorm_wordpool.txt	LTP153	ltpFR	0	3	-1	PRINCESS	1125	n/a	n/a	-1	n/a	n/a	n/a	n/a	n/a
1329.43	n/a	REC_WORD_VV	664715	wordpools/wasnorm_wordpool.txt	LTP153	ltpFR	0	3	n/a	<>	-1	n/a	n/a	n/a	n/a	n/a	n/a	n/a	n/a
1329.622	n/a	REC_WORD	664811	wordpools/wasnorm_wordpool.txt	LTP153	ltpFR	0	3	-1	NECK	939	n/a	n/a	-1	n/a	n/a	n/a	n/a	n/a
1332.286	n/a	REC_WORD	666143	wordpools/wasnorm_wordpool.txt	LTP153	ltpFR	0	3	-1	CUB	419	n/a	n/a	-1	n/a	n/a	n/a	n/a	n/a
1333.534	n/a	REC_WORD	666767	wordpools/wasnorm_wordpool.txt	LTP153	ltpFR	0	3	-1	WALLET	1583	n/a	n/a	-1	n/a	n/a	n/a	n/a	n/a
1334.78	n/a	REC_WORD	667390	wordpools/wasnorm_wordpool.txt	LTP153	ltpFR	0	3	-1	FOUNTAIN	597	n/a	n/a	-1	n/a	n/a	n/a	n/a	n/a
1339.85	n/a	REC_WORD	669925	wordpools/wasnorm_wordpool.txt	LTP153	ltpFR	0	3	-1	WOLF	1619	n/a	n/a	-1	n/a	n/a	n/a	n/a	n/a
1340.832	n/a	REC_WORD	670416	wordpools/wasnorm_wordpool.txt	LTP153	ltpFR	0	3	-1	PIANO	1057	n/a	n/a	-1	n/a	n/a	n/a	n/a	n/a
1342.024	n/a	REC_WORD	671012	wordpools/wasnorm_wordpool.txt	LTP153	ltpFR	0	3	-1	BAND	78	n/a	n/a	-1	n/a	n/a	n/a	n/a	n/a
1346.234	n/a	REC_WORD	673117	wordpools/wasnorm_wordpool.txt	LTP153	ltpFR	0	3	-1	LOFT	840	n/a	n/a	-1	n/a	n/a	n/a	n/a	n/a
1347.278	n/a	REC_WORD	673639	wordpools/wasnorm_wordpool.txt	LTP153	ltpFR	0	3	-1	ROOF	1205	n/a	n/a	-1	n/a	n/a	n/a	n/a	n/a
1356.198	n/a	REC_WORD	678099	wordpools/wasnorm_wordpool.txt	LTP153	ltpFR	0	3	-1	RECEIPT	1173	n/a	n/a	-1	n/a	n/a	n/a	n/a	n/a
1358.748	n/a	REC_WORD	679374	wordpools/wasnorm_wordpool.txt	LTP153	ltpFR	0	3	-1	CUSTARD	429	n/a	n/a	-1	n/a	n/a	n/a	n/a	n/a
1418.728	n/a	WORD	709364	wordpools/wasnorm_wordpool.txt	LTP153	ltpFR	0	4	-1	MOAT	903	n/a	n/a	-1	1.0	1.0	1	upper	Verdana.ttf
1422.602	n/a	WORD	711301	wordpools/wasnorm_wordpool.txt	LTP153	ltpFR	0	4	-1	SURF	1412	n/a	n/a	-1	1.0	1.0	1	upper	Verdana.ttf
1426.584	n/a	WORD	713292	wordpools/wasnorm_wordpool.txt	LTP153	ltpFR	0	4	-1	MOTH	920	n/a	n/a	-1	1.0	1.0	1	upper	Verdana.ttf
1430.734	n/a	WORD	715367	wordpools/wasnorm_wordpool.txt	LTP153	ltpFR	0	4	-1	POTATO	1115	n/a	n/a	-1	1.0	1.0	1	upper	Verdana.ttf
1434.558	n/a	WORD	717279	wordpools/wasnorm_wordpool.txt	LTP153	ltpFR	0	4	-1	BEDROOM	111	n/a	n/a	-1	1.0	1.0	1	upper	Verdana.ttf
1438.396	n/a	WORD	719198	wordpools/wasnorm_wordpool.txt	LTP153	ltpFR	0	4	-1	NAIL	936	n/a	n/a	-1	1.0	1.0	1	upper	Verdana.ttf
1442.412	n/a	WORD	721206	wordpools/wasnorm_wordpool.txt	LTP153	ltpFR	0	4	-1	CUE	422	n/a	n/a	-1	1.0	1.0	1	upper	Verdana.ttf
1446.462	n/a	WORD	723231	wordpools/wasnorm_wordpool.txt	LTP153	ltpFR	0	4	-1	BOMB	147	n/a	n/a	-1	1.0	1.0	1	upper	Verdana.ttf
1450.628	n/a	WORD	725314	wordpools/wasnorm_wordpool.txt	LTP153	ltpFR	0	4	-1	GALAXY	617	n/a	n/a	-1	1.0	1.0	1	upper	Verdana.ttf
1454.8	n/a	WORD	727400	wordpools/wasnorm_wordpool.txt	LTP153	ltpFR	0	4	-1	PAD	998	n/a	n/a	-1	1.0	1.0	1	upper	Verdana.ttf
1458.982	n/a	WORD	729491	wordpools/wasnorm_wordpool.txt	LTP153	ltpFR	0	4	-1	CONTAINER	366	n/a	n/a	-1	1.0	1.0	1	upper	Verdana.ttf
1462.85	n/a	WORD	731425	wordpools/wasnorm_wordpool.txt	LTP153	ltpFR	0	4	-1	TOOL	1480	n/a	n/a	-1	1.0	1.0	1	upper	Verdana.ttf
1467.014	n/a	WORD	733507	wordpools/wasnorm_wordpool.txt	LTP153	ltpFR	0	4	-1	SPOUSE	1358	n/a	n/a	-1	1.0	1.0	1	upper	Verdana.ttf
1470.962	n/a	WORD	735481	wordpools/wasnorm_wordpool.txt	LTP153	ltpFR	0	4	-1	COUCH	386	n/a	n/a	-1	1.0	1.0	1	upper	Verdana.ttf
1474.804	n/a	WORD	737402	wordpools/wasnorm_wordpool.txt	LTP153	ltpFR	0	4	-1	DESK	452	n/a	n/a	-1	1.0	1.0	1	upper	Verdana.ttf
1478.944	n/a	WORD	739472	wordpools/wasnorm_wordpool.txt	LTP153	ltpFR	0	4	-1	TELESCOPE	1446	n/a	n/a	-1	1.0	1.0	1	upper	Verdana.ttf
1484.618	n/a	REC_START	742309	n/a	LTP153	ltpFR	0	4	n/a	n/a	n/a	n/a	n/a	n/a	n/a	n/a	n/a	n/a	n/a
1485.92	n/a	REC_WORD	742960	wordpools/wasnorm_wordpool.txt	LTP153	ltpFR	0	4	-1	BEDROOM	111	n/a	n/a	-1	n/a	n/a	n/a	n/a	n/a
1487.776	n/a	REC_WORD	743888	wordpools/wasnorm_wordpool.txt	LTP153	ltpFR	0	4	-1	TELESCOPE	1446	n/a	n/a	-1	n/a	n/a	n/a	n/a	n/a
1488.932	n/a	REC_WORD	744466	wordpools/wasnorm_wordpool.txt	LTP153	ltpFR	0	4	-1	MOAT	903	n/a	n/a	-1	n/a	n/a	n/a	n/a	n/a
1490.06	n/a	REC_WORD	745030	wordpools/wasnorm_wordpool.txt	LTP153	ltpFR	0	4	-1	SURF	1412	n/a	n/a	-1	n/a	n/a	n/a	n/a	n/a
1491.95	n/a	REC_WORD	745975	wordpools/wasnorm_wordpool.txt	LTP153	ltpFR	0	4	-1	NAIL	936	n/a	n/a	-1	n/a	n/a	n/a	n/a	n/a
1493.042	n/a	REC_WORD	746521	wordpools/wasnorm_wordpool.txt	LTP153	ltpFR	0	4	-1	CUE	422	n/a	n/a	-1	n/a	n/a	n/a	n/a	n/a
1494.346	n/a	REC_WORD	747173	wordpools/wasnorm_wordpool.txt	LTP153	ltpFR	0	4	-1	PAD	998	n/a	n/a	-1	n/a	n/a	n/a	n/a	n/a
1495.752	n/a	REC_WORD	747876	wordpools/wasnorm_wordpool.txt	LTP153	ltpFR	0	4	-1	SPOUSE	1358	n/a	n/a	-1	n/a	n/a	n/a	n/a	n/a
1496.752	n/a	REC_WORD_VV	748376	wordpools/wasnorm_wordpool.txt	LTP153	ltpFR	0	4	n/a	<>	-1	n/a	n/a	n/a	n/a	n/a	n/a	n/a	n/a
1834.376	n/a	WORD	917188	wordpools/wasnorm_wordpool.txt	LTP153	ltpFR	0	5	1	DECK	443	n/a	n/a	0	0.422607421875	0.5869140625	0	lower	amplitud.ttf
1838.194	n/a	WORD	919097	wordpools/wasnorm_wordpool.txt	LTP153	ltpFR	0	5	1	VIKING	1565	n/a	n/a	1	0.422607421875	0.5869140625	0	lower	amplitud.ttf
1842.366	n/a	WORD	921183	wordpools/wasnorm_wordpool.txt	LTP153	ltpFR	0	5	1	NITROGEN	954	n/a	n/a	0	0.422607421875	0.5869140625	0	lower	amplitud.ttf
1846.266	n/a	WORD	923133	wordpools/wasnorm_wordpool.txt	LTP153	ltpFR	0	5	1	CHAUFFEUR	283	n/a	n/a	1	0.422607421875	0.5869140625	0	lower	amplitud.ttf
1850.09	n/a	WORD	925045	wordpools/wasnorm_wordpool.txt	LTP153	ltpFR	0	5	1	BANDIT	81	n/a	n/a	1	0.422607421875	0.5869140625	0	lower	amplitud.ttf
1854.238	n/a	WORD	927119	wordpools/wasnorm_wordpool.txt	LTP153	ltpFR	0	5	1	PRISONER	1128	n/a	n/a	1	0.422607421875	0.5869140625	0	lower	amplitud.ttf
1858.204	n/a	WORD	929102	wordpools/wasnorm_wordpool.txt	LTP153	ltpFR	0	5	1	BEAST	108	n/a	n/a	1	0.422607421875	0.5869140625	0	lower	amplitud.ttf
1862.368	n/a	WORD	931184	wordpools/wasnorm_wordpool.txt	LTP153	ltpFR	0	5	1	PANTHER	1009	n/a	n/a	1	0.422607421875	0.5869140625	0	lower	amplitud.ttf
1866.202	n/a	WORD	933101	wordpools/wasnorm_wordpool.txt	LTP153	ltpFR	0	5	1	SYRUP	1425	n/a	n/a	0	0.422607421875	0.5869140625	0	lower	amplitud.ttf
1870.116	n/a	WORD	935058	wordpools/wasnorm_wordpool.txt	LTP153	ltpFR	0	5	1	EMERALD	528	n/a	n/a	0	0.422607421875	0.5869140625	0	lower	amplitud.ttf
1874.156	n/a	WORD	937078	wordpools/wasnorm_wordpool.txt	LTP153	ltpFR	0	5	1	BALLOON	75	n/a	n/a	0	0.422607421875	0.5869140625	0	lower	amplitud.ttf
1878.064	n/a	WORD	939032	wordpools/wasnorm_wordpool.txt	LTP153	ltpFR	0	5	1	BUS	201	n/a	n/a	0	0.422607421875	0.5869140625	0	lower	amplitud.ttf
1882.064	n/a	WORD	941032	wordpools/wasnorm_wordpool.txt	LTP153	ltpFR	0	5	1	SAUSAGE	1238	n/a	n/a	0	0.422607421875	0.5869140625	0	lower	amplitud.ttf
1886.186	n/a	WORD	943093	wordpools/wasnorm_wordpool.txt	LTP153	ltpFR	0	5	1	JUGGLER	763	n/a	n/a	1	0.422607421875	0.5869140625	0	lower	amplitud.ttf
1890.094	n/a	WORD	945047	wordpools/wasnorm_wordpool.txt	LTP153	ltpFR	0	5	1	CARTON	251	n/a	n/a	0	0.422607421875	0.5869140625	0	lower	amplitud.ttf
1893.91	n/a	WORD	946955	wordpools/wasnorm_wordpool.txt	LTP153	ltpFR	0	5	1	PENDULUM	1043	n/a	n/a	0	0.422607421875	0.5869140625	0	lower	amplitud.ttf
1899.834	n/a	REC_START	949917	n/a	LTP153	ltpFR	0	5	n/a	n/a	n/a	n/a	n/a	n/a	n/a	n/a	n/a	n/a	n/a
1901.384	n/a	REC_WORD	950692	wordpools/wasnorm_wordpool.txt	LTP153	ltpFR	0	5	1	PENDULUM	1043	n/a	n/a	0	n/a	n/a	n/a	n/a	n/a
1902.384	n/a	REC_WORD_VV	951192	wordpools/wasnorm_wordpool.txt	LTP153	ltpFR	0	5	n/a	<>	-1	n/a	n/a	n/a	n/a	n/a	n/a	n/a	n/a
1902.886	n/a	REC_WORD	951443	wordpools/wasnorm_wordpool.txt	LTP153	ltpFR	0	5	1	BEAST	108	n/a	n/a	1	n/a	n/a	n/a	n/a	n/a
1905.166	n/a	REC_WORD	952583	wordpools/wasnorm_wordpool.txt	LTP153	ltpFR	0	5	1	EMERALD	528	n/a	n/a	0	n/a	n/a	n/a	n/a	n/a
1906.348	n/a	REC_WORD	953174	wordpools/wasnorm_wordpool.txt	LTP153	ltpFR	0	5	1	NITROGEN	954	n/a	n/a	0	n/a	n/a	n/a	n/a	n/a
1907.348	n/a	REC_WORD_VV	953674	wordpools/wasnorm_wordpool.txt	LTP153	ltpFR	0	5	n/a	<>	-1	n/a	n/a	n/a	n/a	n/a	n/a	n/a	n/a
1910.774	n/a	REC_WORD	955387	wordpools/wasnorm_wordpool.txt	LTP153	ltpFR	0	5	1	PRISONER	1128	n/a	n/a	1	n/a	n/a	n/a	n/a	n/a
1912.958	n/a	REC_WORD	956479	wordpools/wasnorm_wordpool.txt	LTP153	ltpFR	0	5	1	PANTHER	1009	n/a	n/a	1	n/a	n/a	n/a	n/a	n/a
1916.038	n/a	REC_WORD	958019	wordpools/wasnorm_wordpool.txt	LTP153	ltpFR	0	5	1	JUGGLER	763	n/a	n/a	1	n/a	n/a	n/a	n/a	n/a
1942.55	n/a	REC_WORD	971275	wordpools/wasnorm_wordpool.txt	LTP153	ltpFR	0	5	1	SYRUP	1425	n/a	n/a	0	n/a	n/a	n/a	n/a	n/a
1947.352	n/a	REC_WORD	973676	wordpools/wasnorm_wordpool.txt	LTP153	ltpFR	0	5	1	VIKING	1565	n/a	n/a	1	n/a	n/a	n/a	n/a	n/a
1995.328	n/a	WORD	997664	wordpools/wasnorm_wordpool.txt	LTP153	ltpFR	0	6	1	ANTEATER	26	n/a	n/a	1	0.422607421875	0.5869140625	0	lower	amplitud.ttf
1999.384	n/a	WORD	999692	wordpools/wasnorm_wordpool.txt	LTP153	ltpFR	0	6	1	FARM	552	n/a	n/a	0	0.422607421875	0.5869140625	0	lower	amplitud.ttf
2003.502	n/a	WORD	1001751	wordpools/wasnorm_wordpool.txt	LTP153	ltpFR	0	6	1	PRIEST	1122	n/a	n/a	1	0.422607421875	0.5869140625	0	lower	amplitud.ttf
2007.718	n/a	WORD	1003859	wordpools/wasnorm_wordpool.txt	LTP153	ltpFR	0	6	1	FRIAR	605	n/a	n/a	1	0.422607421875	0.5869140625	0	lower	amplitud.ttf
2011.6	n/a	WORD	1005800	wordpools/wasnorm_wordpool.txt	LTP153	ltpFR	0	6	1	GOVERNOR	651	n/a	n/a	1	0.422607421875	0.5869140625	0	lower	amplitud.ttf
2015.622	n/a	WORD	1007811	wordpools/wasnorm_wordpool.txt	LTP153	ltpFR	0	6	1	REPORT	1184	n/a	n/a	0	0.422607421875	0.5869140625	0	lower	amplitud.ttf
2019.754	n/a	WORD	1009877	wordpools/wasnorm_wordpool.txt	LTP153	ltpFR	0	6	1	MOSS	918	n/a	n/a	0	0.422607421875	0.5869140625	0	lower	amplitud.ttf
2023.92	n/a	WORD	1011960	wordpools/wasnorm_wordpool.txt	LTP153	ltpFR	0	6	1	GROCERIES	663	n/a	n/a	0	0.422607421875	0.5869140625	0	lower	amplitud.ttf
2027.97	n/a	WORD	1013985	wordpools/wasnorm_wordpool.txt	LTP153	ltpFR	0	6	1	UNDERWEAR	1537	n/a	n/a	0	0.422607421875	0.5869140625	0	lower	amplitud.ttf
2031.876	n/a	WORD	1015938	wordpools/wasnorm_wordpool.txt	LTP153	ltpFR	0	6	1	CALCULATOR	220	n/a	n/a	0	0.422607421875	0.5869140625	0	lower	amplitud.ttf
2035.692	n/a	WORD	1017846	wordpools/wasnorm_wordpool.txt	LTP153	ltpFR	0	6	1	CINNAMON	310	n/a	n/a	0	0.422607421875	0.5869140625	0	lower	amplitud.ttf
2039.616	n/a	WORD	1019808	wordpools/wasnorm_wordpool.txt	LTP153	ltpFR	0	6	1	SPRINKLE	1359	n/a	n/a	0	0.422607421875	0.5869140625	0	lower	amplitud.ttf
2043.598	n/a	WORD	1021799	wordpools/wasnorm_wordpool.txt	LTP153	ltpFR	0	6	1	FUR	615	n/a	n/a	0	0.422607421875	0.5869140625	0	lower	amplitud.ttf
2047.706	n/a	WORD	1023853	wordpools/wasnorm_wordpool.txt	LTP153	ltpFR	0	6	1	SUPPER	1411	n/a	n/a	0	0.422607421875	0.5869140625	0	lower	amplitud.ttf
2051.828	n/a	WORD	1025914	wordpools/wasnorm_wordpool.txt	LTP153	ltpFR	0	6	1	WILDERNESS	1610	n/a	n/a	0	0.422607421875	0.5869140625	0	lower	amplitud.ttf
2055.702	n/a	WORD	1027851	wordpools/wasnorm_wordpool.txt	LTP153	ltpFR	0	6	1	WITNESS	1618	n/a	n/a	1	0.422607421875	0.5869140625	0	lower	amplitud.ttf
2061.358	n/a	REC_START	1030679	n/a	LTP153	ltpFR	0	6	n/a	n/a	n/a	n/a	n/a	n/a	n/a	n/a	n/a	n/a	n/a
2062.726	n/a	REC_WORD	1031363	wordpools/wasnorm_wordpool.txt	LTP153	ltpFR	0	6	1	WITNESS	1618	n/a	n/a	1	n/a	n/a	n/a	n/a	n/a
2063.524	n/a	REC_WORD	1031762	wordpools/wasnorm_wordpool.txt	LTP153	ltpFR	0	6	1	FRIAR	605	n/a	n/a	1	n/a	n/a	n/a	n/a	n/a
2064.756	n/a	REC_WORD	1032378	wordpools/wasnorm_wordpool.txt	LTP153	ltpFR	0	6	1	PRIEST	1122	n/a	n/a	1	n/a	n/a	n/a	n/a	n/a
2065.898	n/a	REC_WORD	1032949	wordpools/wasnorm_wordpool.txt	LTP153	ltpFR	0	6	1	CINNAMON	310	n/a	n/a	0	n/a	n/a	n/a	n/a	n/a
2067.604	n/a	REC_WORD	1033802	wordpools/wasnorm_wordpool.txt	LTP153	ltpFR	0	6	1	SPRINKLE	1359	n/a	n/a	0	n/a	n/a	n/a	n/a	n/a
2068.604	n/a	REC_WORD_VV	1034302	wordpools/wasnorm_wordpool.txt	LTP153	ltpFR	0	6	n/a	<>	-1	n/a	n/a	n/a	n/a	n/a	n/a	n/a	n/a
2071.816	n/a	REC_WORD	1035908	wordpools/wasnorm_wordpool.txt	LTP153	ltpFR	0	6	1	ANTEATER	26	n/a	n/a	1	n/a	n/a	n/a	n/a	n/a
2073.212	n/a	REC_WORD	1036606	wordpools/wasnorm_wordpool.txt	LTP153	ltpFR	0	6	1	FARM	552	n/a	n/a	0	n/a	n/a	n/a	n/a	n/a
2080.87	n/a	REC_WORD	1040435	wordpools/wasnorm_wordpool.txt	LTP153	ltpFR	0	6	1	GROCERIES	663	n/a	n/a	0	n/a	n/a	n/a	n/a	n/a
2081.87	n/a	REC_WORD_VV	1040935	wordpools/wasnorm_wordpool.txt	LTP153	ltpFR	0	6	n/a	<>	-1	n/a	n/a	n/a	n/a	n/a	n/a	n/a	n/a
2090.702	n/a	REC_WORD	1045351	wordpools/wasnorm_wordpool.txt	LTP153	ltpFR	0	6	1	FUR	615	n/a	n/a	0	n/a	n/a	n/a	n/a	n/a
2143.374	n/a	WORD	1071687	wordpools/wasnorm_wordpool.txt	LTP153	ltpFR	0	7	1	PRUNE	1134	n/a	n/a	0	0.422607421875	0.5869140625	0	lower	amplitud.ttf
2147.456	n/a	WORD	1073728	wordpools/wasnorm_wordpool.txt	LTP153	ltpFR	0	7	1	BEAVER	109	n/a	n/a	1	0.422607421875	0.5869140625	0	lower	amplitud.ttf
2151.372	n/a	WORD	1075686	wordpools/wasnorm_wordpool.txt	LTP153	ltpFR	0	7	1	CHOCOLATE	306	n/a	n/a	0	0.422607421875	0.5869140625	0	lower	amplitud.ttf
2155.256	n/a	WORD	1077628	wordpools/wasnorm_wordpool.txt	LTP153	ltpFR	0	7	1	GUM	672	n/a	n/a	1	0.422607421875	0.5869140625	0	lower	amplitud.ttf
2159.37	n/a	WORD	1079685	wordpools/wasnorm_wordpool.txt	LTP153	ltpFR	0	7	1	MOOSE	915	n/a	n/a	1	0.422607421875	0.5869140625	0	lower	amplitud.ttf
2163.478	n/a	WORD	1081739	wordpools/wasnorm_wordpool.txt	LTP153	ltpFR	0	7	1	OTTER	986	n/a	n/a	1	0.422607421875	0.5869140625	0	lower	amplitud.ttf
2167.294	n/a	WORD	1083647	wordpools/wasnorm_wordpool.txt	LTP153	ltpFR	0	7	1	FIST	572	n/a	n/a	0	0.422607421875	0.5869140625	0	lower	amplitud.ttf
2171.416	n/a	WORD	1085708	wordpools/wasnorm_wordpool.txt	LTP153	ltpFR	0	7	1	HANGER	687	n/a	n/a	0	0.422607421875	0.5869140625	0	lower	amplitud.ttf
2175.472	n/a	WORD	1087736	wordpools/wasnorm_wordpool.txt	LTP153	ltpFR	0	7	1	CROW	414	n/a	n/a	1	0.422607421875	0.5869140625	0	lower	amplitud.ttf
2179.664	n/a	WORD	1089832	wordpools/wasnorm_wordpool.txt	LTP153	ltpFR	0	7	1	COBBLER	335	n/a	n/a	1	0.422607421875	0.5869140625	0	lower	amplitud.ttf
2183.614	n/a	WORD	1091807	wordpools/wasnorm_wordpool.txt	LTP153	ltpFR	0	7	1	PRAIRIE	1118	n/a	n/a	0	0.422607421875	0.5869140625	0	lower	amplitud.ttf
2187.604	n/a	WORD	1093802	wordpools/wasnorm_wordpool.txt	LTP153	ltpFR	0	7	1	WHISKERS	1605	n/a	n/a	1	0.422607421875	0.5869140625	0	lower	amplitud.ttf
2191.46	n/a	WORD	1095730	wordpools/wasnorm_wordpool.txt	LTP153	ltpFR	0	7	1	PARROT	1015	n/a	n/a	1	0.422607421875	0.5869140625	0	lower	amplitud.ttf
2195.618	n/a	WORD	1097809	wordpools/wasnorm_wordpool.txt	LTP153	ltpFR	0	7	1	MAILMAN	858	n/a	n/a	1	0.422607421875	0.5869140625	0	lower	amplitud.ttf
2199.708	n/a	WORD	1099854	wordpools/wasnorm_wordpool.txt	LTP153	ltpFR	0	7	1	MAILBOX	857	n/a	n/a	0	0.422607421875	0.5869140625	0	lower	amplitud.ttf
2203.766	n/a	WORD	1101883	wordpools/wasnorm_wordpool.txt	LTP153	ltpFR	0	7	1	SUPERVISOR	1410	n/a	n/a	1	0.422607421875	0.5869140625	0	lower	amplitud.ttf
2209.748	n/a	REC_START	1104874	n/a	LTP153	ltpFR	0	7	n/a	n/a	n/a	n/a	n/a	n/a	n/a	n/a	n/a	n/a	n/a
2210.73	n/a	REC_WORD	1105365	wordpools/wasnorm_wordpool.txt	LTP153	ltpFR	0	7	1	SUPERVISOR	1410	n/a	n/a	1	n/a	n/a	n/a	n/a	n/a
2211.73	n/a	REC_WORD_VV	1105865	wordpools/wasnorm_wordpool.txt	LTP153	ltpFR	0	7	n/a	<>	-1	n/a	n/a	n/a	n/a	n/a	n/a	n/a	n/a
2211.89	n/a	REC_WORD	1105945	wordpools/wasnorm_wordpool.txt	LTP153	ltpFR	0	7	1	MAILMAN	858	n/a	n/a	1	n/a	n/a	n/a	n/a	n/a
2212.946	n/a	REC_WORD	1106473	wordpools/wasnorm_wordpool.txt	LTP153	ltpFR	0	7	1	MAILBOX	857	n/a	n/a	0	n/a	n/a	n/a	n/a	n/a
2214.184	n/a	REC_WORD	1107092	wordpools/wasnorm_wordpool.txt	LTP153	ltpFR	0	7	1	PRUNE	1134	n/a	n/a	0	n/a	n/a	n/a	n/a	n/a
2216.638	n/a	REC_WORD	1108319	wordpools/wasnorm_wordpool.txt	LTP153	ltpFR	0	7	1	PRAIRIE	1118	n/a	n/a	0	n/a	n/a	n/a	n/a	n/a
2220.048	n/a	REC_WORD_VV	1110024	wordpools/wasnorm_wordpool.txt	LTP153	ltpFR	0	7	n/a	<>	-1	n/a	n/a	n/a	n/a	n/a	n/a	n/a	n/a
2224.046	n/a	REC_WORD	1112023	wordpools/wasnorm_wordpool.txt	LTP153	ltpFR	0	7	1	OTTER	986	n/a	n/a	1	n/a	n/a	n/a	n/a	n/a
2242.036	n/a	REC_WORD	1121018	wordpools/wasnorm_wordpool.txt	LTP153	ltpFR	0	7	1	COBBLER	335	n/a	n/a	1	n/a	n/a	n/a	n/a	n/a
2246.242	n/a	REC_WORD	1123121	wordpools/wasnorm_wordpool.txt	LTP153	ltpFR	0	7	1	WHISKERS	1605	n/a	n/a	1	n/a	n/a	n/a	n/a	n/a
2247.242	n/a	REC_WORD_VV	1123621	wordpools/wasnorm_wordpool.txt	LTP153	ltpFR	0	7	n/a	<>	-1	n/a	n/a	n/a	n/a	n/a	n/a	n/a	n/a
2293.556	n/a	WORD	1146778	wordpools/wasnorm_wordpool.txt	LTP153	ltpFR	0	8	1	DESIGNER	451	n/a	n/a	1	0.422607421875	0.5869140625	0	lower	amplitud.ttf
2297.478	n/a	WORD	1148739	wordpools/wasnorm_wordpool.txt	LTP153	ltpFR	0	8	1	CLOTHES	327	n/a	n/a	0	0.422607421875	0.5869140625	0	lower	amplitud.ttf
2301.678	n/a	WORD	1150839	wordpools/wasnorm_wordpool.txt	LTP153	ltpFR	0	8	1	CHIPMUNK	304	n/a	n/a	1	0.422607421875	0.5869140625	0	lower	amplitud.ttf
2305.76	n/a	WORD	1152880	wordpools/wasnorm_wordpool.txt	LTP153	ltpFR	0	8	1	DONKEY	484	n/a	n/a	1	0.422607421875	0.5869140625	0	lower	amplitud.ttf
2309.876	n/a	WORD	1154938	wordpools/wasnorm_wordpool.txt	LTP153	ltpFR	0	8	1	COLT	349	n/a	n/a	1	0.422607421875	0.5869140625	0	lower	amplitud.ttf
2313.85	n/a	WORD	1156925	wordpools/wasnorm_wordpool.txt	LTP153	ltpFR	0	8	1	GANGSTER	620	n/a	n/a	1	0.422607421875	0.5869140625	0	lower	amplitud.ttf
2317.69	n/a	WORD	1158845	wordpools/wasnorm_wordpool.txt	LTP153	ltpFR	0	8	1	EMPIRE	530	n/a	n/a	0	0.422607421875	0.5869140625	0	lower	amplitud.ttf
2321.896	n/a	WORD	1160948	wordpools/wasnorm_wordpool.txt	LTP153	ltpFR	0	8	1	VIRUS	1572	n/a	n/a	0	0.422607421875	0.5869140625	0	lower	amplitud.ttf
2326.028	n/a	WORD	1163014	wordpools/wasnorm_wordpool.txt	LTP153	ltpFR	0	8	1	BED	110	n/a	n/a	0	0.422607421875	0.5869140625	0	lower	amplitud.ttf
2329.878	n/a	WORD	1164939	wordpools/wasnorm_wordpool.txt	LTP153	ltpFR	0	8	1	INN	739	n/a	n/a	0	0.422607421875	0.5869140625	0	lower	amplitud.ttf
2333.944	n/a	WORD	1166972	wordpools/wasnorm_wordpool.txt	LTP153	ltpFR	0	8	1	DRIVER	499	n/a	n/a	1	0.422607421875	0.5869140625	0	lower	amplitud.ttf
2338.0	n/a	WORD	1169000	wordpools/wasnorm_wordpool.txt	LTP153	ltpFR	0	8	1	CONSUMER	365	n/a	n/a	1	0.422607421875	0.5869140625	0	lower	amplitud.ttf
2341.99	n/a	WORD	1170995	wordpools/wasnorm_wordpool.txt	LTP153	ltpFR	0	8	1	BISON	131	n/a	n/a	1	0.422607421875	0.5869140625	0	lower	amplitud.ttf
2345.99	n/a	WORD	1172995	wordpools/wasnorm_wordpool.txt	LTP153	ltpFR	0	8	1	JEEP	753	n/a	n/a	0	0.422607421875	0.5869140625	0	lower	amplitud.ttf
2349.964	n/a	WORD	1174982	wordpools/wasnorm_wordpool.txt	LTP153	ltpFR	0	8	1	BRACES	164	n/a	n/a	0	0.422607421875	0.5869140625	0	lower	amplitud.ttf
2354.046	n/a	WORD	1177023	wordpools/wasnorm_wordpool.txt	LTP153	ltpFR	0	8	1	VILLAGE	1566	n/a	n/a	0	0.422607421875	0.5869140625	0	lower	amplitud.ttf
2359.836	n/a	REC_START	1179918	n/a	LTP153	ltpFR	0	8	n/a	n/a	n/a	n/a	n/a	n/a	n/a	n/a	n/a	n/a	n/a
2360.902	n/a	REC_WORD	1180451	wordpools/wasnorm_wordpool.txt	LTP153	ltpFR	0	8	1	VILLAGE	1566	n/a	n/a	0	n/a	n/a	n/a	n/a	n/a
2362.2	n/a	REC_WORD	1181100	wordpools/wasnorm_wordpool.txt	LTP153	ltpFR	0	8	1	GANGSTER	620	n/a	n/a	1	n/a	n/a	n/a	n/a	n/a
2365.17	n/a	REC_WORD	1182585	wordpools/wasnorm_wordpool.txt	LTP153	ltpFR	0	8	1	BRACES	164	n/a	n/a	0	n/a	n/a	n/a	n/a	n/a
2366.17	n/a	REC_WORD_VV	1183085	wordpools/wasnorm_wordpool.txt	LTP153	ltpFR	0	8	n/a	<>	-1	n/a	n/a	n/a	n/a	n/a	n/a	n/a	n/a
2372.612	n/a	REC_WORD	1186306	wordpools/wasnorm_wordpool.txt	LTP153	ltpFR	0	8	1	DESIGNER	451	n/a	n/a	1	n/a	n/a	n/a	n/a	n/a
2374.044	n/a	REC_WORD	1187022	wordpools/wasnorm_wordpool.txt	LTP153	ltpFR	0	8	1	CLOTHES	327	n/a	n/a	0	n/a	n/a	n/a	n/a	n/a
2375.172	n/a	REC_WORD	1187586	wordpools/wasnorm_wordpool.txt	LTP153	ltpFR	0	8	1	CHIPMUNK	304	n/a	n/a	1	n/a	n/a	n/a	n/a	n/a
2383.03	n/a	REC_WORD	1191515	wordpools/wasnorm_wordpool.txt	LTP153	ltpFR	0	8	1	VILLAGE	1566	n/a	n/a	0	n/a	n/a	n/a	n/a	n/a
2386.576	n/a	REC_WORD	1193288	wordpools/wasnorm_wordpool.txt	LTP153	ltpFR	0	8	1	VIRUS	1572	n/a	n/a	0	n/a	n/a	n/a	n/a	n/a
2399.368	n/a	REC_WORD	1199684	wordpools/wasnorm_wordpool.txt	LTP153	ltpFR	0	8	1	BISON	131	n/a	n/a	1	n/a	n/a	n/a	n/a	n/a
2454.648	n/a	WORD	1227324	wordpools/wasnorm_wordpool.txt	LTP153	ltpFR	0	9	0	RAIL	1161	n/a	n/a	1	0.57763671875	0.412841796875	1	upper	zerothre.ttf
2458.514	n/a	WORD	1229257	wordpools/wasnorm_wordpool.txt	LTP153	ltpFR	0	9	0	DETECTIVE	454	n/a	n/a	1	0.57763671875	0.412841796875	1	upper	zerothre.ttf
2462.496	n/a	WORD	1231248	wordpools/wasnorm_wordpool.txt	LTP153	ltpFR	0	9	0	INFANT	737	n/a	n/a	1	0.57763671875	0.412841796875	1	upper	zerothre.ttf
2466.476	n/a	WORD	1233238	wordpools/wasnorm_wordpool.txt	LTP153	ltpFR	0	9	0	BONE	148	n/a	n/a	0	0.57763671875	0.412841796875	1	upper	zerothre.ttf
2470.602	n/a	WORD	1235301	wordpools/wasnorm_wordpool.txt	LTP153	ltpFR	0	9	0	ANIMAL	23	n/a	n/a	1	0.57763671875	0.412841796875	1	upper	zerothre.ttf
2474.534	n/a	WORD	1237267	wordpools/wasnorm_wordpool.txt	LTP153	ltpFR	0	9	0	PAW	1029	n/a	n/a	0	0.57763671875	0.412841796875	1	upper	zerothre.ttf
2478.574	n/a	WORD	1239287	wordpools/wasnorm_wordpool.txt	LTP153	ltpFR	0	9	0	CABOOSE	214	n/a	n/a	1	0.57763671875	0.412841796875	1	upper	zerothre.ttf
2482.774	n/a	WORD	1241387	wordpools/wasnorm_wordpool.txt	LTP153	ltpFR	0	9	0	CYLINDER	432	n/a	n/a	1	0.57763671875	0.412841796875	1	upper	zerothre.ttf
2486.738	n/a	WORD	1243369	wordpools/wasnorm_wordpool.txt	LTP153	ltpFR	0	9	0	PUZZLE	1146	n/a	n/a	0	0.57763671875	0.412841796875	1	upper	zerothre.ttf
2490.77	n/a	WORD	1245385	wordpools/wasnorm_wordpool.txt	LTP153	ltpFR	0	9	0	BATHTUB	100	n/a	n/a	1	0.57763671875	0.412841796875	1	upper	zerothre.ttf
2494.736	n/a	WORD	1247368	wordpools/wasnorm_wordpool.txt	LTP153	ltpFR	0	9	0	SINK	1309	n/a	n/a	1	0.57763671875	0.412841796875	1	upper	zerothre.ttf
2498.726	n/a	WORD	1249363	wordpools/wasnorm_wordpool.txt	LTP153	ltpFR	0	9	0	CUSHION	428	n/a	n/a	1	0.57763671875	0.412841796875	1	upper	zerothre.ttf
2502.668	n/a	WORD	1251334	wordpools/wasnorm_wordpool.txt	LTP153	ltpFR	0	9	0	ENGINE	535	n/a	n/a	1	0.57763671875	0.412841796875	1	upper	zerothre.ttf
2506.666	n/a	WORD	1253333	wordpools/wasnorm_wordpool.txt	LTP153	ltpFR	0	9	0	FUDGE	611	n/a	n/a	0	0.57763671875	0.412841796875	1	upper	zerothre.ttf
2510.84	n/a	WORD	1255420	wordpools/wasnorm_wordpool.txt	LTP153	ltpFR	0	9	0	PUMPKIN	1142	n/a	n/a	1	0.57763671875	0.412841796875	1	upper	zerothre.ttf
2514.848	n/a	WORD	1257424	wordpools/wasnorm_wordpool.txt	LTP153	ltpFR	0	9	0	VELVET	1555	n/a	n/a	0	0.57763671875	0.412841796875	1	upper	zerothre.ttf
2520.688	n/a	REC_START	1260344	n/a	LTP153	ltpFR	0	9	n/a	n/a	n/a	n/a	n/a	n/a	n/a	n/a	n/a	n/a	n/a
2521.516	n/a	REC_WORD	1260758	wordpools/wasnorm_wordpool.txt	LTP153	ltpFR	0	9	0	VELVET	1555	n/a	n/a	0	n/a	n/a	n/a	n/a	n/a
2522.504	n/a	REC_WORD	1261252	wordpools/wasnorm_wordpool.txt	LTP153	ltpFR	0	9	0	INFANT	737	n/a	n/a	1	n/a	n/a	n/a	n/a	n/a
2523.402	n/a	REC_WORD	1261701	wordpools/wasnorm_wordpool.txt	LTP153	ltpFR	0	9	0	BONE	148	n/a	n/a	0	n/a	n/a	n/a	n/a	n/a
2524.358	n/a	REC_WORD	1262179	wordpools/wasnorm_wordpool.txt	LTP153	ltpFR	0	9	0	ENGINE	535	n/a	n/a	1	n/a	n/a	n/a	n/a	n/a
2525.282	n/a	REC_WORD	1262641	wordpools/wasnorm_wordpool.txt	LTP153	ltpFR	0	9	0	CABOOSE	214	n/a	n/a	1	n/a	n/a	n/a	n/a	n/a
2527.766	n/a	REC_WORD	1263883	wordpools/wasnorm_wordpool.txt	LTP153	ltpFR	0	9	0	CUSHION	428	n/a	n/a	1	n/a	n/a	n/a	n/a	n/a
2531.996	n/a	REC_WORD	1265998	wordpools/wasnorm_wordpool.txt	LTP153	ltpFR	0	9	0	BATHTUB	100	n/a	n/a	1	n/a	n/a	n/a	n/a	n/a
2536.318	n/a	REC_WORD	1268159	wordpools/wasnorm_wordpool.txt	LTP153	ltpFR	0	9	0	PUZZLE	1146	n/a	n/a	0	n/a	n/a	n/a	n/a	n/a
2548.08	n/a	REC_WORD	1274040	wordpools/wasnorm_wordpool.txt	LTP153	ltpFR	0	9	0	DETECTIVE	454	n/a	n/a	1	n/a	n/a	n/a	n/a	n/a
2557.67	n/a	REC_WORD	1278835	wordpools/wasnorm_wordpool.txt	LTP153	ltpFR	0	9	0	FUDGE	611	n/a	n/a	0	n/a	n/a	n/a	n/a	n/a
2570.396	n/a	REC_WORD	1285198	wordpools/wasnorm_wordpool.txt	LTP153	ltpFR	0	9	0	SINK	1309	n/a	n/a	1	n/a	n/a	n/a	n/a	n/a
2601.36	n/a	WORD	1300680	wordpools/wasnorm_wordpool.txt	LTP153	ltpFR	0	10	0	DANDELION	438	n/a	n/a	0	0.57763671875	0.412841796875	1	upper	zerothre.ttf
2605.352	n/a	WORD	1302676	wordpools/wasnorm_wordpool.txt	LTP153	ltpFR	0	10	0	PLANT	1083	n/a	n/a	0	0.57763671875	0.412841796875	1	upper	zerothre.ttf
2609.392	n/a	WORD	1304696	wordpools/wasnorm_wordpool.txt	LTP153	ltpFR	0	10	0	SCREEN	1253	n/a	n/a	1	0.57763671875	0.412841796875	1	upper	zerothre.ttf
2613.44	n/a	WORD	1306720	wordpools/wasnorm_wordpool.txt	LTP153	ltpFR	0	10	0	CRICKET	408	n/a	n/a	0	0.57763671875	0.412841796875	1	upper	zerothre.ttf
2617.464	n/a	WORD	1308732	wordpools/wasnorm_wordpool.txt	LTP153	ltpFR	0	10	0	LIPSTICK	829	n/a	n/a	0	0.57763671875	0.412841796875	1	upper	zerothre.ttf
2621.414	n/a	WORD	1310707	wordpools/wasnorm_wordpool.txt	LTP153	ltpFR	0	10	0	RADISH	1158	n/a	n/a	0	0.57763671875	0.412841796875	1	upper	zerothre.ttf
2625.538	n/a	WORD	1312769	wordpools/wasnorm_wordpool.txt	LTP153	ltpFR	0	10	0	LAKE	796	n/a	n/a	1	0.57763671875	0.412841796875	1	upper	zerothre.ttf
2629.394	n/a	WORD	1314697	wordpools/wasnorm_wordpool.txt	LTP153	ltpFR	0	10	0	COIN	343	n/a	n/a	0	0.57763671875	0.412841796875	1	upper	zerothre.ttf
2633.36	n/a	WORD	1316680	wordpools/wasnorm_wordpool.txt	LTP153	ltpFR	0	10	0	KETTLE	772	n/a	n/a	1	0.57763671875	0.412841796875	1	upper	zerothre.ttf
2637.516	n/a	WORD	1318758	wordpools/wasnorm_wordpool.txt	LTP153	ltpFR	0	10	0	VIDEO	1564	n/a	n/a	0	0.57763671875	0.412841796875	1	upper	zerothre.ttf
2641.616	n/a	WORD	1320808	wordpools/wasnorm_wordpool.txt	LTP153	ltpFR	0	10	0	VILLAIN	1567	n/a	n/a	1	0.57763671875	0.412841796875	1	upper	zerothre.ttf
2645.556	n/a	WORD	1322778	wordpools/wasnorm_wordpool.txt	LTP153	ltpFR	0	10	0	NEWSSTAND	949	n/a	n/a	1	0.57763671875	0.412841796875	1	upper	zerothre.ttf
2649.622	n/a	WORD	1324811	wordpools/wasnorm_wordpool.txt	LTP153	ltpFR	0	10	0	POSTAGE	1113	n/a	n/a	0	0.57763671875	0.412841796875	1	upper	zerothre.ttf
2653.63	n/a	WORD	1326815	wordpools/wasnorm_wordpool.txt	LTP153	ltpFR	0	10	0	LETTER	813	n/a	n/a	0	0.57763671875	0.412841796875	1	upper	zerothre.ttf
2657.486	n/a	WORD	1328743	wordpools/wasnorm_wordpool.txt	LTP153	ltpFR	0	10	0	CONVICT	371	n/a	n/a	1	0.57763671875	0.412841796875	1	upper	zerothre.ttf
2661.336	n/a	WORD	1330668	wordpools/wasnorm_wordpool.txt	LTP153	ltpFR	0	10	0	SAUCER	1237	n/a	n/a	0	0.57763671875	0.412841796875	1	upper	zerothre.ttf
2667.118	n/a	REC_START	1333559	n/a	LTP153	ltpFR	0	10	n/a	n/a	n/a	n/a	n/a	n/a	n/a	n/a	n/a	n/a	n/a
2668.34	n/a	REC_WORD	1334170	wordpools/wasnorm_wordpool.txt	LTP153	ltpFR	0	10	0	PLANT	1083	n/a	n/a	0	n/a	n/a	n/a	n/a	n/a
2669.264	n/a	REC_WORD	1334632	wordpools/wasnorm_wordpool.txt	LTP153	ltpFR	0	10	0	DANDELION	438	n/a	n/a	0	n/a	n/a	n/a	n/a	n/a
2670.36	n/a	REC_WORD	1335180	wordpools/wasnorm_wordpool.txt	LTP153	ltpFR	0	10	0	VILLAIN	1567	n/a	n/a	1	n/a	n/a	n/a	n/a	n/a
2671.448	n/a	REC_WORD	1335724	wordpools/wasnorm_wordpool.txt	LTP153	ltpFR	0	10	0	NEWSSTAND	949	n/a	n/a	1	n/a	n/a	n/a	n/a	n/a
2672.448	n/a	REC_WORD_VV	1336224	wordpools/wasnorm_wordpool.txt	LTP153	ltpFR	0	10	n/a	<>	-1	n/a	n/a	n/a	n/a	n/a	n/a	n/a	n/a
2674.706	n/a	REC_WORD	1337353	wordpools/wasnorm_wordpool.txt	LTP153	ltpFR	0	10	0	RADISH	1158	n/a	n/a	0	n/a	n/a	n/a	n/a	n/a
2680.55	n/a	REC_WORD_VV	1340275	wordpools/wasnorm_wordpool.txt	LTP153	ltpFR	0	10	n/a	<>	-1	n/a	n/a	n/a	n/a	n/a	n/a	n/a	n/a
2681.19	n/a	REC_WORD	1340595	wordpools/wasnorm_wordpool.txt	LTP153	ltpFR	0	10	0	SAUCER	1237	n/a	n/a	0	n/a	n/a	n/a	n/a	n/a
2682.692	n/a	REC_WORD	1341346	wordpools/wasnorm_wordpool.txt	LTP153	ltpFR	0	10	0	KETTLE	772	n/a	n/a	1	n/a	n/a	n/a	n/a	n/a
2703.312	n/a	REC_WORD	1351656	wordpools/wasnorm_wordpool.txt	LTP153	ltpFR	0	10	0	COIN	343	n/a	n/a	0	n/a	n/a	n/a	n/a	n/a
2756.014	n/a	WORD	1378007	wordpools/wasnorm_wordpool.txt	LTP153	ltpFR	0	11	0	SCOTCH	1251	n/a	n/a	1	0.57763671875	0.412841796875	1	upper	zerothre.ttf
2759.99	n/a	WORD	1379995	wordpools/wasnorm_wordpool.txt	LTP153	ltpFR	0	11	0	BOTTLE	153	n/a	n/a	1	0.57763671875	0.412841796875	1	upper	zerothre.ttf
2763.98	n/a	WORD	1381990	wordpools/wasnorm_wordpool.txt	LTP153	ltpFR	0	11	0	DRILL	497	n/a	n/a	0	0.57763671875	0.412841796875	1	upper	zerothre.ttf
2767.928	n/a	WORD	1383964	wordpools/wasnorm_wordpool.txt	LTP153	ltpFR	0	11	0	FIREMAN	569	n/a	n/a	1	0.57763671875	0.412841796875	1	upper	zerothre.ttf
2771.976	n/a	WORD	1385988	wordpools/wasnorm_wordpool.txt	LTP153	ltpFR	0	11	0	HOUND	724	n/a	n/a	1	0.57763671875	0.412841796875	1	upper	zerothre.ttf
2776.018	n/a	WORD	1388009	wordpools/wasnorm_wordpool.txt	LTP153	ltpFR	0	11	0	COCKTAIL	338	n/a	n/a	0	0.57763671875	0.412841796875	1	upper	zerothre.ttf
2780.0	n/a	WORD	1390000	wordpools/wasnorm_wordpool.txt	LTP153	ltpFR	0	11	0	RUM	1217	n/a	n/a	0	0.57763671875	0.412841796875	1	upper	zerothre.ttf
2783.832	n/a	WORD	1391916	wordpools/wasnorm_wordpool.txt	LTP153	ltpFR	0	11	0	DAUGHTER	442	n/a	n/a	1	0.57763671875	0.412841796875	1	upper	zerothre.ttf
2788.038	n/a	WORD	1394019	wordpools/wasnorm_wordpool.txt	LTP153	ltpFR	0	11	0	ZEBRA	1635	n/a	n/a	1	0.57763671875	0.412841796875	1	upper	zerothre.ttf
2791.87	n/a	WORD	1395935	wordpools/wasnorm_wordpool.txt	LTP153	ltpFR	0	11	0	CLOSET	326	n/a	n/a	1	0.57763671875	0.412841796875	1	upper	zerothre.ttf
2795.786	n/a	WORD	1397893	wordpools/wasnorm_wordpool.txt	LTP153	ltpFR	0	11	0	ASTRONAUT	51	n/a	n/a	1	0.57763671875	0.412841796875	1	upper	zerothre.ttf
2799.894	n/a	WORD	1399947	wordpools/wasnorm_wordpool.txt	LTP153	ltpFR	0	11	0	CLAW	319	n/a	n/a	0	0.57763671875	0.412841796875	1	upper	zerothre.ttf
2803.876	n/a	WORD	1401938	wordpools/wasnorm_wordpool.txt	LTP153	ltpFR	0	11	0	FATHER	554	n/a	n/a	1	0.57763671875	0.412841796875	1	upper	zerothre.ttf
2807.9	n/a	WORD	1403950	wordpools/wasnorm_wordpool.txt	LTP153	ltpFR	0	11	0	CHISEL	305	n/a	n/a	0	0.57763671875	0.412841796875	1	upper	zerothre.ttf
2811.898	n/a	WORD	1405949	wordpools/wasnorm_wordpool.txt	LTP153	ltpFR	0	11	0	VITAMIN	1574	n/a	n/a	0	0.57763671875	0.412841796875	1	upper	zerothre.ttf
2815.806	n/a	WORD	1407903	wordpools/wasnorm_wordpool.txt	LTP153	ltpFR	0	11	0	LIVER	833	n/a	n/a	0	0.57763671875	0.412841796875	1	upper	zerothre.ttf
2821.646	n/a	REC_START	1410823	n/a	LTP153	ltpFR	0	11	n/a	n/a	n/a	n/a	n/a	n/a	n/a	n/a	n/a	n/a	n/a
2822.648	n/a	REC_WORD	1411324	wordpools/wasnorm_wordpool.txt	LTP153	ltpFR	0	11	0	LIVER	833	n/a	n/a	0	n/a	n/a	n/a	n/a	n/a
2823.546	n/a	REC_WORD	1411773	wordpools/wasnorm_wordpool.txt	LTP153	ltpFR	0	11	0	DAUGHTER	442	n/a	n/a	1	n/a	n/a	n/a	n/a	n/a
2824.414	n/a	REC_WORD	1412207	wordpools/wasnorm_wordpool.txt	LTP153	ltpFR	0	11	0	FATHER	554	n/a	n/a	1	n/a	n/a	n/a	n/a	n/a
2828.834	n/a	REC_WORD	1414417	wordpools/wasnorm_wordpool.txt	LTP153	ltpFR	0	11	0	ZEBRA	1635	n/a	n/a	1	n/a	n/a	n/a	n/a	n/a
2842.326	n/a	REC_WORD	1421163	wordpools/wasnorm_wordpool.txt	LTP153	ltpFR	0	11	0	RUM	1217	n/a	n/a	0	n/a	n/a	n/a	n/a	n/a
2843.438	n/a	REC_WORD	1421719	wordpools/wasnorm_wordpool.txt	LTP153	ltpFR	0	11	0	COCKTAIL	338	n/a	n/a	0	n/a	n/a	n/a	n/a	n/a
2847.932	n/a	REC_WORD	1423966	wordpools/wasnorm_wordpool.txt	LTP153	ltpFR	0	11	0	VITAMIN	1574	n/a	n/a	0	n/a	n/a	n/a	n/a	n/a
2890.794	n/a	REC_WORD	1445397	wordpools/wasnorm_wordpool.txt	LTP153	ltpFR	0	11	n/a	DOCTOR	478	n/a	n/a	n/a	n/a	n/a	n/a	n/a	n/a
2904.502	n/a	WORD	1452251	wordpools/wasnorm_wordpool.txt	LTP153	ltpFR	0	12	0	TRAY	1498	n/a	n/a	1	0.57763671875	0.412841796875	1	upper	zerothre.ttf
2908.586	n/a	WORD	1454293	wordpools/wasnorm_wordpool.txt	LTP153	ltpFR	0	12	0	CAVITY	264	n/a	n/a	0	0.57763671875	0.412841796875	1	upper	zerothre.ttf
2912.442	n/a	WORD	1456221	wordpools/wasnorm_wordpool.txt	LTP153	ltpFR	0	12	0	CANNON	232	n/a	n/a	1	0.57763671875	0.412841796875	1	upper	zerothre.ttf
2916.44	n/a	WORD	1458220	wordpools/wasnorm_wordpool.txt	LTP153	ltpFR	0	12	0	BENCH	121	n/a	n/a	1	0.57763671875	0.412841796875	1	upper	zerothre.ttf
2920.464	n/a	WORD	1460232	wordpools/wasnorm_wordpool.txt	LTP153	ltpFR	0	12	0	IDOL	733	n/a	n/a	1	0.57763671875	0.412841796875	1	upper	zerothre.ttf
2924.664	n/a	WORD	1462332	wordpools/wasnorm_wordpool.txt	LTP153	ltpFR	0	12	0	MONUMENT	913	n/a	n/a	1	0.57763671875	0.412841796875	1	upper	zerothre.ttf
2928.714	n/a	WORD	1464357	wordpools/wasnorm_wordpool.txt	LTP153	ltpFR	0	12	0	DAM	436	n/a	n/a	1	0.57763671875	0.412841796875	1	upper	zerothre.ttf
2932.828	n/a	WORD	1466414	wordpools/wasnorm_wordpool.txt	LTP153	ltpFR	0	12	0	SWAMP	1416	n/a	n/a	1	0.57763671875	0.412841796875	1	upper	zerothre.ttf
2936.878	n/a	WORD	1468439	wordpools/wasnorm_wordpool.txt	LTP153	ltpFR	0	12	0	SERPENT	1270	n/a	n/a	0	0.57763671875	0.412841796875	1	upper	zerothre.ttf
2941.026	n/a	WORD	1470513	wordpools/wasnorm_wordpool.txt	LTP153	ltpFR	0	12	0	WATER	1594	n/a	n/a	0	0.57763671875	0.412841796875	1	upper	zerothre.ttf
2945.108	n/a	WORD	1472554	wordpools/wasnorm_wordpool.txt	LTP153	ltpFR	0	12	0	WATERFALL	1595	n/a	n/a	1	0.57763671875	0.412841796875	1	upper	zerothre.ttf
2949.248	n/a	WORD	1474624	wordpools/wasnorm_wordpool.txt	LTP153	ltpFR	0	12	0	COLESLAW	344	n/a	n/a	0	0.57763671875	0.412841796875	1	upper	zerothre.ttf
2953.454	n/a	WORD	1476727	wordpools/wasnorm_wordpool.txt	LTP153	ltpFR	0	12	0	RIDER	1191	n/a	n/a	1	0.57763671875	0.412841796875	1	upper	zerothre.ttf
2957.272	n/a	WORD	1478636	wordpools/wasnorm_wordpool.txt	LTP153	ltpFR	0	12	0	BANQUET	86	n/a	n/a	1	0.57763671875	0.412841796875	1	upper	zerothre.ttf
2961.112	n/a	WORD	1480556	wordpools/wasnorm_wordpool.txt	LTP153	ltpFR	0	12	0	BALCONY	72	n/a	n/a	1	0.57763671875	0.412841796875	1	upper	zerothre.ttf
2965.176	n/a	WORD	1482588	wordpools/wasnorm_wordpool.txt	LTP153	ltpFR	0	12	0	BRUSH	182	n/a	n/a	0	0.57763671875	0.412841796875	1	upper	zerothre.ttf
2970.868	n/a	REC_START	1485434	n/a	LTP153	ltpFR	0	12	n/a	n/a	n/a	n/a	n/a	n/a	n/a	n/a	n/a	n/a	n/a
2971.984	n/a	REC_WORD	1485992	wordpools/wasnorm_wordpool.txt	LTP153	ltpFR	0	12	0	BRUSH	182	n/a	n/a	0	n/a	n/a	n/a	n/a	n/a
2973.058	n/a	REC_WORD	1486529	wordpools/wasnorm_wordpool.txt	LTP153	ltpFR	0	12	0	COLESLAW	344	n/a	n/a	0	n/a	n/a	n/a	n/a	n/a
2974.14	n/a	REC_WORD	1487070	wordpools/wasnorm_wordpool.txt	LTP153	ltpFR	0	12	0	RIDER	1191	n/a	n/a	1	n/a	n/a	n/a	n/a	n/a
2975.91	n/a	REC_WORD	1487955	wordpools/wasnorm_wordpool.txt	LTP153	ltpFR	0	12	0	SERPENT	1270	n/a	n/a	0	n/a	n/a	n/a	n/a	n/a
2977.098	n/a	REC_WORD	1488549	wordpools/wasnorm_wordpool.txt	LTP153	ltpFR	0	12	0	WATER	1594	n/a	n/a	0	n/a	n/a	n/a	n/a	n/a
2978.674	n/a	REC_WORD	1489337	wordpools/wasnorm_wordpool.txt	LTP153	ltpFR	0	12	0	MONUMENT	913	n/a	n/a	1	n/a	n/a	n/a	n/a	n/a
2979.752	n/a	REC_WORD	1489876	wordpools/wasnorm_wordpool.txt	LTP153	ltpFR	0	12	0	IDOL	733	n/a	n/a	1	n/a	n/a	n/a	n/a	n/a
2980.64	n/a	REC_WORD	1490320	wordpools/wasnorm_wordpool.txt	LTP153	ltpFR	0	12	0	SWAMP	1416	n/a	n/a	1	n/a	n/a	n/a	n/a	n/a
2982.352	n/a	REC_WORD	1491176	wordpools/wasnorm_wordpool.txt	LTP153	ltpFR	0	12	0	WATERFALL	1595	n/a	n/a	1	n/a	n/a	n/a	n/a	n/a
3024.998	n/a	REC_WORD	1512499	wordpools/wasnorm_wordpool.txt	LTP153	ltpFR	0	12	0	DAM	436	n/a	n/a	1	n/a	n/a	n/a	n/a	n/a
3028.16	n/a	REC_WORD	1514080	wordpools/wasnorm_wordpool.txt	LTP153	ltpFR	0	12	0	BANQUET	86	n/a	n/a	1	n/a	n/a	n/a	n/a	n/a
3029.96	n/a	REC_WORD	1514980	wordpools/wasnorm_wordpool.txt	LTP153	ltpFR	0	12	0	BALCONY	72	n/a	n/a	1	n/a	n/a	n/a	n/a	n/a
3046.46	n/a	REST_REWET	1523230	n/a	LTP153	ltpFR	0	12	n/a	n/a	n/a	n/a	n/a	n/a	n/a	n/a	n/a	n/a	n/a
3536.804	n/a	WORD	1768402	wordpools/wasnorm_wordpool.txt	LTP153	ltpFR	0	13	0	NURSE	963	n/a	n/a	0	0.57763671875	0.412841796875	1	upper	zerothre.ttf
3541.002	n/a	WORD	1770501	wordpools/wasnorm_wordpool.txt	LTP153	ltpFR	0	13	0	BIRD	129	n/a	n/a	3	0.57763671875	0.412841796875	1	upper	zerothre.ttf
3542.586	n/a	KEY_MSG	1771293	n/a	LTP153	ltpFR	0	13	n/a	n/a	n/a	n/a	n/a	n/a	n/a	n/a	n/a	n/a	n/a
3545.276	n/a	WORD	1772638	wordpools/wasnorm_wordpool.txt	LTP153	ltpFR	0	13	0	BUSH	202	n/a	n/a	n/a	0.57763671875	0.412841796875	1	upper	zerothre.ttf
3548.302	n/a	SLOW_MSG	1774151	n/a	LTP153	ltpFR	0	13	n/a	n/a	n/a	n/a	n/a	n/a	n/a	n/a	n/a	n/a	n/a
3550.776	n/a	WORD	1775388	wordpools/wasnorm_wordpool.txt	LTP153	ltpFR	0	13	1	HEDGE	699	n/a	n/a	0	0.422607421875	0.5869140625	0	lower	amplitud.ttf
3554.69	n/a	WORD	1777345	wordpools/wasnorm_wordpool.txt	LTP153	ltpFR	0	13	1	DOUGH	489	n/a	n/a	0	0.422607421875	0.5869140625	0	lower	amplitud.ttf
3558.84	n/a	WORD	1779420	wordpools/wasnorm_wordpool.txt	LTP153	ltpFR	0	13	1	SHORTCAKE	1292	n/a	n/a	0	0.422607421875	0.5869140625	0	lower	amplitud.ttf
3562.83	n/a	WORD	1781415	wordpools/wasnorm_wordpool.txt	LTP153	ltpFR	0	13	1	VALVE	1546	n/a	n/a	0	0.422607421875	0.5869140625	0	lower	amplitud.ttf
3567.02	n/a	WORD	1783510	wordpools/wasnorm_wordpool.txt	LTP153	ltpFR	0	13	1	PASTRY	1022	n/a	n/a	0	0.422607421875	0.5869140625	0	lower	amplitud.ttf
3571.052	n/a	WORD	1785526	wordpools/wasnorm_wordpool.txt	LTP153	ltpFR	0	13	0	SWAN	1417	n/a	n/a	1	0.57763671875	0.412841796875	1	upper	zerothre.ttf
3575.06	n/a	WORD	1787530	wordpools/wasnorm_wordpool.txt	LTP153	ltpFR	0	13	0	LEAF	808	n/a	n/a	0	0.57763671875	0.412841796875	1	upper	zerothre.ttf
3579.174	n/a	WORD	1789587	wordpools/wasnorm_wordpool.txt	LTP153	ltpFR	0	13	1	DINER	467	n/a	n/a	0	0.422607421875	0.5869140625	0	lower	amplitud.ttf
3583.074	n/a	WORD	1791537	wordpools/wasnorm_wordpool.txt	LTP153	ltpFR	0	13	1	DIVER	476	n/a	n/a	1	0.422607421875	0.5869140625	0	lower	amplitud.ttf
3587.248	n/a	WORD	1793624	wordpools/wasnorm_wordpool.txt	LTP153	ltpFR	0	13	1	CONCERT	360	n/a	n/a	0	0.422607421875	0.5869140625	0	lower	amplitud.ttf
3591.338	n/a	WORD	1795669	wordpools/wasnorm_wordpool.txt	LTP153	ltpFR	0	13	0	FEATHER	557	n/a	n/a	0	0.57763671875	0.412841796875	1	upper	zerothre.ttf
3595.294	n/a	WORD	1797647	wordpools/wasnorm_wordpool.txt	LTP153	ltpFR	0	13	0	THORN	1459	n/a	n/a	0	0.57763671875	0.412841796875	1	upper	zerothre.ttf
3599.218	n/a	WORD	1799609	wordpools/wasnorm_wordpool.txt	LTP153	ltpFR	0	13	0	BRUISE	180	n/a	n/a	0	0.57763671875	0.412841796875	1	upper	zerothre.ttf
3605.226	n/a	REC_START	1802613	n/a	LTP153	ltpFR	0	13	n/a	n/a	n/a	n/a	n/a	n/a	n/a	n/a	n/a	n/a	n/a
3606.828	n/a	REC_WORD	1803414	wordpools/wasnorm_wordpool.txt	LTP153	ltpFR	0	13	0	BRUISE	180	n/a	n/a	0	n/a	n/a	n/a	n/a	n/a
3608.174	n/a	REC_WORD	1804087	wordpools/wasnorm_wordpool.txt	LTP153	ltpFR	0	13	0	FEATHER	557	n/a	n/a	0	n/a	n/a	n/a	n/a	n/a
3610.974	n/a	REC_WORD	1805487	wordpools/wasnorm_wordpool.txt	LTP153	ltpFR	0	13	1	DIVER	476	n/a	n/a	1	n/a	n/a	n/a	n/a	n/a
3612.39	n/a	REC_WORD	1806195	wordpools/wasnorm_wordpool.txt	LTP153	ltpFR	0	13	1	DINER	467	n/a	n/a	0	n/a	n/a	n/a	n/a	n/a
3622.666	n/a	REC_WORD	1811333	wordpools/wasnorm_wordpool.txt	LTP153	ltpFR	0	13	1	HEDGE	699	n/a	n/a	0	n/a	n/a	n/a	n/a	n/a
3625.72	n/a	REC_WORD	1812860	wordpools/wasnorm_wordpool.txt	LTP153	ltpFR	0	13	0	SWAN	1417	n/a	n/a	1	n/a	n/a	n/a	n/a	n/a
3638.152	n/a	REC_WORD	1819076	wordpools/wasnorm_wordpool.txt	LTP153	ltpFR	0	13	n/a	VULTURE	-1	n/a	n/a	n/a	n/a	n/a	n/a	n/a	n/a
3677.176	n/a	REC_WORD	1838588	wordpools/wasnorm_wordpool.txt	LTP153	ltpFR	0	13	n/a	BLUSH	-1	n/a	n/a	n/a	n/a	n/a	n/a	n/a	n/a
3695.788	n/a	WORD	1847894	wordpools/wasnorm_wordpool.txt	LTP153	ltpFR	0	14	0	FIN	566	n/a	n/a	0	0.57763671875	0.412841796875	1	upper	zerothre.ttf
3699.688	n/a	WORD	1849844	wordpools/wasnorm_wordpool.txt	LTP153	ltpFR	0	14	0	TUNA	1518	n/a	n/a	0	0.57763671875	0.412841796875	1	upper	zerothre.ttf
3703.77	n/a	WORD	1851885	wordpools/wasnorm_wordpool.txt	LTP153	ltpFR	0	14	0	WHIP	1604	n/a	n/a	0	0.57763671875	0.412841796875	1	upper	zerothre.ttf
3707.62	n/a	WORD	1853810	wordpools/wasnorm_wordpool.txt	LTP153	ltpFR	0	14	0	CART	250	n/a	n/a	1	0.57763671875	0.412841796875	1	upper	zerothre.ttf
3711.592	n/a	WORD	1855796	wordpools/wasnorm_wordpool.txt	LTP153	ltpFR	0	14	1	MONSTER	912	n/a	n/a	1	0.422607421875	0.5869140625	0	lower	amplitud.ttf
3715.44	n/a	WORD	1857720	wordpools/wasnorm_wordpool.txt	LTP153	ltpFR	0	14	1	OCEAN	970	n/a	n/a	0	0.422607421875	0.5869140625	0	lower	amplitud.ttf
3719.382	n/a	WORD	1859691	wordpools/wasnorm_wordpool.txt	LTP153	ltpFR	0	14	1	TEAPOT	1442	n/a	n/a	0	0.422607421875	0.5869140625	0	lower	amplitud.ttf
3723.248	n/a	WORD	1861624	wordpools/wasnorm_wordpool.txt	LTP153	ltpFR	0	14	1	PIGMENT	1066	n/a	n/a	0	0.422607421875	0.5869140625	0	lower	amplitud.ttf
3727.064	n/a	WORD	1863532	wordpools/wasnorm_wordpool.txt	LTP153	ltpFR	0	14	1	PITCHFORK	1078	n/a	n/a	0	0.422607421875	0.5869140625	0	lower	amplitud.ttf
3730.978	n/a	WORD	1865489	wordpools/wasnorm_wordpool.txt	LTP153	ltpFR	0	14	1	TROMBONE	1508	n/a	n/a	0	0.422607421875	0.5869140625	0	lower	amplitud.ttf
3734.828	n/a	WORD	1867414	wordpools/wasnorm_wordpool.txt	LTP153	ltpFR	0	14	0	ORGAN	984	n/a	n/a	0	0.57763671875	0.412841796875	1	upper	zerothre.ttf
3738.902	n/a	WORD	1869451	wordpools/wasnorm_wordpool.txt	LTP153	ltpFR	0	14	0	CRAYON	401	n/a	n/a	0	0.57763671875	0.412841796875	1	upper	zerothre.ttf
3742.75	n/a	WORD	1871375	wordpools/wasnorm_wordpool.txt	LTP153	ltpFR	0	14	0	OFFICER	973	n/a	n/a	1	0.57763671875	0.412841796875	1	upper	zerothre.ttf
3746.916	n/a	WORD	1873458	wordpools/wasnorm_wordpool.txt	LTP153	ltpFR	0	14	0	PORPOISE	1109	n/a	n/a	1	0.57763671875	0.412841796875	1	upper	zerothre.ttf
3750.814	n/a	WORD	1875407	wordpools/wasnorm_wordpool.txt	LTP153	ltpFR	0	14	1	MAMMAL	861	n/a	n/a	1	0.422607421875	0.5869140625	0	lower	amplitud.ttf
3754.772	n/a	WORD	1877386	wordpools/wasnorm_wordpool.txt	LTP153	ltpFR	0	14	1	AGENT	10	n/a	n/a	1	0.422607421875	0.5869140625	0	lower	amplitud.ttf
3760.444	n/a	REC_START	1880222	n/a	LTP153	ltpFR	0	14	n/a	n/a	n/a	n/a	n/a	n/a	n/a	n/a	n/a	n/a	n/a
3761.292	n/a	REC_WORD	1880646	wordpools/wasnorm_wordpool.txt	LTP153	ltpFR	0	14	0	TUNA	1518	n/a	n/a	0	n/a	n/a	n/a	n/a	n/a
3762.234	n/a	REC_WORD	1881117	wordpools/wasnorm_wordpool.txt	LTP153	ltpFR	0	14	0	FIN	566	n/a	n/a	0	n/a	n/a	n/a	n/a	n/a
3763.802	n/a	REC_WORD	1881901	wordpools/wasnorm_wordpool.txt	LTP153	ltpFR	0	14	0	PORPOISE	1109	n/a	n/a	1	n/a	n/a	n/a	n/a	n/a
3766.546	n/a	REC_WORD_VV	1883273	wordpools/wasnorm_wordpool.txt	LTP153	ltpFR	0	14	n/a	<>	-1	n/a	n/a	n/a	n/a	n/a	n/a	n/a	n/a
3769.16	n/a	REC_WORD	1884580	wordpools/wasnorm_wordpool.txt	LTP153	ltpFR	0	14	1	MAMMAL	861	n/a	n/a	1	n/a	n/a	n/a	n/a	n/a
3783.852	n/a	REC_WORD	1891926	wordpools/wasnorm_wordpool.txt	LTP153	ltpFR	0	14	0	OFFICER	973	n/a	n/a	1	n/a	n/a	n/a	n/a	n/a
3801.442	n/a	REC_WORD	1900721	wordpools/wasnorm_wordpool.txt	LTP153	ltpFR	0	14	0	WHIP	1604	n/a	n/a	0	n/a	n/a	n/a	n/a	n/a
3822.376	n/a	REC_WORD	1911188	wordpools/wasnorm_wordpool.txt	LTP153	ltpFR	0	14	1	TROMBONE	1508	n/a	n/a	0	n/a	n/a	n/a	n/a	n/a
3828.264	n/a	REC_WORD	1914132	wordpools/wasnorm_wordpool.txt	LTP153	ltpFR	0	14	1	PIGMENT	1066	n/a	n/a	0	n/a	n/a	n/a	n/a	n/a
3829.502	n/a	REC_WORD	1914751	wordpools/wasnorm_wordpool.txt	LTP153	ltpFR	0	14	1	OCEAN	970	n/a	n/a	0	n/a	n/a	n/a	n/a	n/a
3841.254	n/a	WORD	1920627	wordpools/wasnorm_wordpool.txt	LTP153	ltpFR	0	15	1	SALAD	1224	n/a	n/a	n/a	0.422607421875	0.5869140625	0	lower	amplitud.ttf
3844.278	n/a	SLOW_MSG	1922139	n/a	LTP153	ltpFR	0	15	n/a	n/a	n/a	n/a	n/a	n/a	n/a	n/a	n/a	n/a	n/a
3846.676	n/a	WORD	1923338	wordpools/wasnorm_wordpool.txt	LTP153	ltpFR	0	15	1	TRAIN	1494	n/a	n/a	0	0.422607421875	0.5869140625	0	lower	amplitud.ttf
3850.742	n/a	WORD	1925371	wordpools/wasnorm_wordpool.txt	LTP153	ltpFR	0	15	1	SHERIFF	1284	n/a	n/a	1	0.422607421875	0.5869140625	0	lower	amplitud.ttf
3854.624	n/a	WORD	1927312	wordpools/wasnorm_wordpool.txt	LTP153	ltpFR	0	15	0	BUFFALO	186	n/a	n/a	0	0.57763671875	0.412841796875	1	upper	zerothre.ttf
3858.564	n/a	WORD	1929282	wordpools/wasnorm_wordpool.txt	LTP153	ltpFR	0	15	0	FOX	598	n/a	n/a	0	0.57763671875	0.412841796875	1	upper	zerothre.ttf
3862.656	n/a	WORD	1931328	wordpools/wasnorm_wordpool.txt	LTP153	ltpFR	0	15	0	BLUEBERRY	140	n/a	n/a	0	0.57763671875	0.412841796875	1	upper	zerothre.ttf
3866.72	n/a	WORD	1933360	wordpools/wasnorm_wordpool.txt	LTP153	ltpFR	0	15	0	TOMBSTONE	1478	n/a	n/a	1	0.57763671875	0.412841796875	1	upper	zerothre.ttf
3870.804	n/a	WORD	1935402	wordpools/wasnorm_wordpool.txt	LTP153	ltpFR	0	15	0	ATTORNEY	58	n/a	n/a	1	0.57763671875	0.412841796875	1	upper	zerothre.ttf
3874.676	n/a	WORD	1937338	wordpools/wasnorm_wordpool.txt	LTP153	ltpFR	0	15	0	HORSE	719	n/a	n/a	1	0.57763671875	0.412841796875	1	upper	zerothre.ttf
3878.708	n/a	WORD	1939354	wordpools/wasnorm_wordpool.txt	LTP153	ltpFR	0	15	1	CLOVE	329	n/a	n/a	0	0.422607421875	0.5869140625	0	lower	amplitud.ttf
3882.824	n/a	WORD	1941412	wordpools/wasnorm_wordpool.txt	LTP153	ltpFR	0	15	1	SPICE	1350	n/a	n/a	0	0.422607421875	0.5869140625	0	lower	amplitud.ttf
3886.99	n/a	WORD	1943495	wordpools/wasnorm_wordpool.txt	LTP153	ltpFR	0	15	1	RAISIN	1163	n/a	n/a	0	0.422607421875	0.5869140625	0	lower	amplitud.ttf
3890.964	n/a	WORD	1945482	wordpools/wasnorm_wordpool.txt	LTP153	ltpFR	0	15	0	ALLEY	15	n/a	n/a	1	0.57763671875	0.412841796875	1	upper	zerothre.ttf
3894.904	n/a	WORD	1947452	wordpools/wasnorm_wordpool.txt	LTP153	ltpFR	0	15	0	TAIL	1430	n/a	n/a	1	0.57763671875	0.412841796875	1	upper	zerothre.ttf
3899.002	n/a	WORD	1949501	wordpools/wasnorm_wordpool.txt	LTP153	ltpFR	0	15	1	CEMETERY	269	n/a	n/a	0	0.422607421875	0.5869140625	0	lower	amplitud.ttf
3902.826	n/a	WORD	1951413	wordpools/wasnorm_wordpool.txt	LTP153	ltpFR	0	15	1	NUT	965	n/a	n/a	0	0.422607421875	0.5869140625	0	lower	amplitud.ttf
3908.8	n/a	REC_START	1954400	n/a	LTP153	ltpFR	0	15	n/a	n/a	n/a	n/a	n/a	n/a	n/a	n/a	n/a	n/a	n/a
3910.266	n/a	REC_WORD	1955133	wordpools/wasnorm_wordpool.txt	LTP153	ltpFR	0	15	1	NUT	965	n/a	n/a	0	n/a	n/a	n/a	n/a	n/a
3912.152	n/a	REC_WORD	1956076	wordpools/wasnorm_wordpool.txt	LTP153	ltpFR	0	15	0	TOMBSTONE	1478	n/a	n/a	1	n/a	n/a	n/a	n/a	n/a
3913.152	n/a	REC_WORD_VV	1956576	wordpools/wasnorm_wordpool.txt	LTP153	ltpFR	0	15	n/a	<>	-1	n/a	n/a	n/a	n/a	n/a	n/a	n/a	n/a
3913.544	n/a	REC_WORD	1956772	wordpools/wasnorm_wordpool.txt	LTP153	ltpFR	0	15	0	ATTORNEY	58	n/a	n/a	1	n/a	n/a	n/a	n/a	n/a
3916.954	n/a	REC_WORD_VV	1958477	wordpools/wasnorm_wordpool.txt	LTP153	ltpFR	0	15	n/a	<>	-1	n/a	n/a	n/a	n/a	n/a	n/a	n/a	n/a
3966.178	n/a	REC_WORD	1983089	wordpools/wasnorm_wordpool.txt	LTP153	ltpFR	0	15	1	SPICE	1350	n/a	n/a	0	n/a	n/a	n/a	n/a	n/a
3967.738	n/a	REC_WORD	1983869	wordpools/wasnorm_wordpool.txt	LTP153	ltpFR	0	15	1	CLOVE	329	n/a	n/a	0	n/a	n/a	n/a	n/a	n/a
3968.738	n/a	REC_WORD_VV	1984369	wordpools/wasnorm_wordpool.txt	LTP153	ltpFR	0	15	n/a	<>	-1	n/a	n/a	n/a	n/a	n/a	n/a	n/a	n/a
3997.872	n/a	WORD	1998936	wordpools/wasnorm_wordpool.txt	LTP153	ltpFR	0	16	1	SCREWDRIVER	1255	n/a	n/a	0	0.422607421875	0.5869140625	0	lower	amplitud.ttf
4001.938	n/a	WORD	2000969	wordpools/wasnorm_wordpool.txt	LTP153	ltpFR	0	16	1	PHYSICIAN	1056	n/a	n/a	1	0.422607421875	0.5869140625	0	lower	amplitud.ttf
4005.954	n/a	WORD	2002977	wordpools/wasnorm_wordpool.txt	LTP153	ltpFR	0	16	1	GLACIER	638	n/a	n/a	0	0.422607421875	0.5869140625	0	lower	amplitud.ttf
4009.92	n/a	WORD	2004960	wordpools/wasnorm_wordpool.txt	LTP153	ltpFR	0	16	1	IGLOO	734	n/a	n/a	0	0.422607421875	0.5869140625	0	lower	amplitud.ttf
4013.942	n/a	WORD	2006971	wordpools/wasnorm_wordpool.txt	LTP153	ltpFR	0	16	0	PAINTING	1005	n/a	n/a	1	0.57763671875	0.412841796875	1	upper	zerothre.ttf
4018.0	n/a	WORD	2009000	wordpools/wasnorm_wordpool.txt	LTP153	ltpFR	0	16	0	COUGAR	387	n/a	n/a	1	0.57763671875	0.412841796875	1	upper	zerothre.ttf
4022.14	n/a	WORD	2011070	wordpools/wasnorm_wordpool.txt	LTP153	ltpFR	0	16	0	BARTENDER	92	n/a	n/a	1	0.57763671875	0.412841796875	1	upper	zerothre.ttf
4026.256	n/a	WORD	2013128	wordpools/wasnorm_wordpool.txt	LTP153	ltpFR	0	16	0	FLIPPER	580	n/a	n/a	1	0.57763671875	0.412841796875	1	upper	zerothre.ttf
4030.296	n/a	WORD	2015148	wordpools/wasnorm_wordpool.txt	LTP153	ltpFR	0	16	0	HINGE	709	n/a	n/a	0	0.57763671875	0.412841796875	1	upper	zerothre.ttf
4034.502	n/a	WORD	2017251	wordpools/wasnorm_wordpool.txt	LTP153	ltpFR	0	16	1	NECKLACE	940	n/a	n/a	0	0.422607421875	0.5869140625	0	lower	amplitud.ttf
4038.526	n/a	WORD	2019263	wordpools/wasnorm_wordpool.txt	LTP153	ltpFR	0	16	1	DIAMOND	458	n/a	n/a	1	0.422607421875	0.5869140625	0	lower	amplitud.ttf
4042.434	n/a	WORD	2021217	wordpools/wasnorm_wordpool.txt	LTP153	ltpFR	0	16	1	WALRUS	1585	n/a	n/a	1	0.422607421875	0.5869140625	0	lower	amplitud.ttf
4046.532	n/a	WORD	2023266	wordpools/wasnorm_wordpool.txt	LTP153	ltpFR	0	16	1	DOCTOR	478	n/a	n/a	1	0.422607421875	0.5869140625	0	lower	amplitud.ttf
4050.564	n/a	WORD	2025282	wordpools/wasnorm_wordpool.txt	LTP153	ltpFR	0	16	0	CITIZEN	312	n/a	n/a	1	0.57763671875	0.412841796875	1	upper	zerothre.ttf
4054.614	n/a	WORD	2027307	wordpools/wasnorm_wordpool.txt	LTP153	ltpFR	0	16	0	FAUCET	555	n/a	n/a	0	0.57763671875	0.412841796875	1	upper	zerothre.ttf
4058.73	n/a	WORD	2029365	wordpools/wasnorm_wordpool.txt	LTP153	ltpFR	0	16	0	TOWER	1490	n/a	n/a	1	0.57763671875	0.412841796875	1	upper	zerothre.ttf
4064.27	n/a	REC_START	2032135	n/a	LTP153	ltpFR	0	16	n/a	n/a	n/a	n/a	n/a	n/a	n/a	n/a	n/a	n/a	n/a
4065.946	n/a	REC_WORD	2032973	wordpools/wasnorm_wordpool.txt	LTP153	ltpFR	0	16	0	TOWER	1490	n/a	n/a	1	n/a	n/a	n/a	n/a	n/a
4066.82	n/a	REC_WORD	2033410	wordpools/wasnorm_wordpool.txt	LTP153	ltpFR	0	16	0	FAUCET	555	n/a	n/a	0	n/a	n/a	n/a	n/a	n/a
4067.832	n/a	REC_WORD	2033916	wordpools/wasnorm_wordpool.txt	LTP153	ltpFR	0	16	1	PHYSICIAN	1056	n/a	n/a	1	n/a	n/a	n/a	n/a	n/a
4069.06	n/a	REC_WORD	2034530	wordpools/wasnorm_wordpool.txt	LTP153	ltpFR	0	16	1	DOCTOR	478	n/a	n/a	1	n/a	n/a	n/a	n/a	n/a
4070.696	n/a	REC_WORD	2035348	wordpools/wasnorm_wordpool.txt	LTP153	ltpFR	0	16	1	GLACIER	638	n/a	n/a	0	n/a	n/a	n/a	n/a	n/a
4072.208	n/a	REC_WORD	2036104	wordpools/wasnorm_wordpool.txt	LTP153	ltpFR	0	16	1	IGLOO	734	n/a	n/a	0	n/a	n/a	n/a	n/a	n/a
4079.042	n/a	REC_WORD	2039521	wordpools/wasnorm_wordpool.txt	LTP153	ltpFR	0	16	0	COUGAR	387	n/a	n/a	1	n/a	n/a	n/a	n/a	n/a
4082.206	n/a	REC_WORD	2041103	wordpools/wasnorm_wordpool.txt	LTP153	ltpFR	0	16	0	BARTENDER	92	n/a	n/a	1	n/a	n/a	n/a	n/a	n/a
4089.832	n/a	REC_WORD	2044916	wordpools/wasnorm_wordpool.txt	LTP153	ltpFR	0	16	0	HINGE	709	n/a	n/a	0	n/a	n/a	n/a	n/a	n/a
4115.956	n/a	REC_WORD	2057978	wordpools/wasnorm_wordpool.txt	LTP153	ltpFR	0	16	1	WALRUS	1585	n/a	n/a	1	n/a	n/a	n/a	n/a	n/a
4247.206	n/a	REC_START	2123603	n/a	LTP153	ltpFR	0	n/a	n/a	n/a	n/a	n/a	n/a	n/a	n/a	n/a	n/a	n/a	n/a
4248.752	n/a	FFR_REC_WORD	2124376	wordpools/wasnorm_wordpool.txt	LTP153	ltpFR	0	n/a	0	PORPOISE	1109	n/a	n/a	1	n/a	n/a	n/a	n/a	n/a
4250.21	n/a	FFR_REC_WORD	2125105	wordpools/wasnorm_wordpool.txt	LTP153	ltpFR	0	n/a	0	HINGE	709	n/a	n/a	0	n/a	n/a	n/a	n/a	n/a
4251.576	n/a	FFR_REC_WORD	2125788	wordpools/wasnorm_wordpool.txt	LTP153	ltpFR	0	n/a	1	DOCTOR	478	n/a	n/a	1	n/a	n/a	n/a	n/a	n/a
4253.316	n/a	FFR_REC_WORD	2126658	wordpools/wasnorm_wordpool.txt	LTP153	ltpFR	0	n/a	1	PHYSICIAN	1056	n/a	n/a	1	n/a	n/a	n/a	n/a	n/a
4255.568	n/a	FFR_REC_WORD	2127784	wordpools/wasnorm_wordpool.txt	LTP153	ltpFR	0	n/a	1	GLACIER	638	n/a	n/a	0	n/a	n/a	n/a	n/a	n/a
4256.61	n/a	FFR_REC_WORD	2128305	wordpools/wasnorm_wordpool.txt	LTP153	ltpFR	0	n/a	1	IGLOO	734	n/a	n/a	0	n/a	n/a	n/a	n/a	n/a
4258.55	n/a	FFR_REC_WORD	2129275	wordpools/wasnorm_wordpool.txt	LTP153	ltpFR	0	n/a	n/a	PYTHON	-1	n/a	n/a	n/a	n/a	n/a	n/a	n/a	n/a
4259.692	n/a	FFR_REC_WORD	2129846	wordpools/wasnorm_wordpool.txt	LTP153	ltpFR	0	n/a	0	WATER	1594	n/a	n/a	0	n/a	n/a	n/a	n/a	n/a
4261.09	n/a	FFR_REC_WORD	2130545	wordpools/wasnorm_wordpool.txt	LTP153	ltpFR	0	n/a	0	RUM	1217	n/a	n/a	0	n/a	n/a	n/a	n/a	n/a
4262.478	n/a	FFR_REC_WORD	2131239	wordpools/wasnorm_wordpool.txt	LTP153	ltpFR	0	n/a	0	COCKTAIL	338	n/a	n/a	0	n/a	n/a	n/a	n/a	n/a
4264.992	n/a	FFR_REC_WORD	2132496	wordpools/wasnorm_wordpool.txt	LTP153	ltpFR	0	n/a	0	BARTENDER	92	n/a	n/a	1	n/a	n/a	n/a	n/a	n/a
4265.992	n/a	FFR_REC_WORD_VV	2132996	wordpools/wasnorm_wordpool.txt	LTP153	ltpFR	0	n/a	n/a	<>	-1	n/a	n/a	n/a	n/a	n/a	n/a	n/a	n/a
4269.112	n/a	FFR_REC_WORD	2134556	wordpools/wasnorm_wordpool.txt	LTP153	ltpFR	0	n/a	0	MONUMENT	913	n/a	n/a	1	n/a	n/a	n/a	n/a	n/a
4270.814	n/a	FFR_REC_WORD	2135407	wordpools/wasnorm_wordpool.txt	LTP153	ltpFR	0	n/a	0	IDOL	733	n/a	n/a	1	n/a	n/a	n/a	n/a	n/a
4271.976	n/a	FFR_REC_WORD	2135988	wordpools/wasnorm_wordpool.txt	LTP153	ltpFR	0	n/a	0	BENCH	121	n/a	n/a	1	n/a	n/a	n/a	n/a	n/a
4274.132	n/a	FFR_REC_WORD	2137066	wordpools/wasnorm_wordpool.txt	LTP153	ltpFR	0	n/a	n/a	BEACH	-1	n/a	n/a	n/a	n/a	n/a	n/a	n/a	n/a
4274.9	n/a	FFR_REC_WORD	2137450	wordpools/wasnorm_wordpool.txt	LTP153	ltpFR	0	n/a	-1	DWARF	510	n/a	n/a	-1	n/a	n/a	n/a	n/a	n/a
4276.162	n/a	FFR_REC_WORD	2138081	wordpools/wasnorm_wordpool.txt	LTP153	ltpFR	0	n/a	-1	WINE	1613	n/a	n/a	-1	n/a	n/a	n/a	n/a	n/a
4278.206	n/a	FFR_REC_WORD	2139103	wordpools/wasnorm_wordpool.txt	LTP153	ltpFR	0	n/a	-1	HUSBAND	728	n/a	n/a	-1	n/a	n/a	n/a	n/a	n/a
4279.454	n/a	FFR_REC_WORD	2139727	wordpools/wasnorm_wordpool.txt	LTP153	ltpFR	0	n/a	0	FATHER	554	n/a	n/a	1	n/a	n/a	n/a	n/a	n/a
4280.602	n/a	FFR_REC_WORD	2140301	wordpools/wasnorm_wordpool.txt	LTP153	ltpFR	0	n/a	0	DAUGHTER	442	n/a	n/a	1	n/a	n/a	n/a	n/a	n/a
4287.582	n/a	FFR_REC_WORD	2143791	wordpools/wasnorm_wordpool.txt	LTP153	ltpFR	0	n/a	-1	PRINCESS	1125	n/a	n/a	-1	n/a	n/a	n/a	n/a	n/a
4288.62	n/a	FFR_REC_WORD	2144310	wordpools/wasnorm_wordpool.txt	LTP153	ltpFR	0	n/a	-1	CASTLE	256	n/a	n/a	-1	n/a	n/a	n/a	n/a	n/a
4289.836	n/a	FFR_REC_WORD	2144918	wordpools/wasnorm_wordpool.txt	LTP153	ltpFR	0	n/a	-1	FOUNTAIN	597	n/a	n/a	-1	n/a	n/a	n/a	n/a	n/a
4291.268	n/a	FFR_REC_WORD_VV	2145634	wordpools/wasnorm_wordpool.txt	LTP153	ltpFR	0	n/a	n/a	<>	-1	n/a	n/a	n/a	n/a	n/a	n/a	n/a	n/a
4291.902	n/a	FFR_REC_WORD	2145951	wordpools/wasnorm_wordpool.txt	LTP153	ltpFR	0	n/a	-1	CUB	419	n/a	n/a	-1	n/a	n/a	n/a	n/a	n/a
4293.284	n/a	FFR_REC_WORD	2146642	wordpools/wasnorm_wordpool.txt	LTP153	ltpFR	0	n/a	-1	WALLET	1583	n/a	n/a	-1	n/a	n/a	n/a	n/a	n/a
4295.164	n/a	FFR_REC_WORD	2147582	wordpools/wasnorm_wordpool.txt	LTP153	ltpFR	0	n/a	-1	QUILL	1150	n/a	n/a	-1	n/a	n/a	n/a	n/a	n/a
4304.714	n/a	FFR_REC_WORD	2152357	wordpools/wasnorm_wordpool.txt	LTP153	ltpFR	0	n/a	1	WALRUS	1585	n/a	n/a	1	n/a	n/a	n/a	n/a	n/a
4305.714	n/a	FFR_REC_WORD_VV	2152857	wordpools/wasnorm_wordpool.txt	LTP153	ltpFR	0	n/a	n/a	<>	-1	n/a	n/a	n/a	n/a	n/a	n/a	n/a	n/a
4306.974	n/a	FFR_REC_WORD	2153487	wordpools/wasnorm_wordpool.txt	LTP153	ltpFR	0	n/a	0	COUGAR	387	n/a	n/a	1	n/a	n/a	n/a	n/a	n/a
4315.624	n/a	FFR_REC_WORD	2157812	wordpools/wasnorm_wordpool.txt	LTP153	ltpFR	0	n/a	-1	BOX	159	n/a	n/a	-1	n/a	n/a	n/a	n/a	n/a
4316.536	n/a	FFR_REC_WORD	2158268	wordpools/wasnorm_wordpool.txt	LTP153	ltpFR	0	n/a	-1	PACKAGE	997	n/a	n/a	-1	n/a	n/a	n/a	n/a	n/a
4317.536	n/a	FFR_REC_WORD_VV	2158768	wordpools/wasnorm_wordpool.txt	LTP153	ltpFR	0	n/a	n/a	<>	-1	n/a	n/a	n/a	n/a	n/a	n/a	n/a	n/a
4317.724	n/a	FFR_REC_WORD	2158862	wordpools/wasnorm_wordpool.txt	LTP153	ltpFR	0	n/a	-1	SUBWAY	1400	n/a	n/a	-1	n/a	n/a	n/a	n/a	n/a
4318.724	n/a	FFR_REC_WORD_VV	2159362	wordpools/wasnorm_wordpool.txt	LTP153	ltpFR	0	n/a	n/a	<>	-1	n/a	n/a	n/a	n/a	n/a	n/a	n/a	n/a
4321.52	n/a	FFR_REC_WORD	2160760	wordpools/wasnorm_wordpool.txt	LTP153	ltpFR	0	n/a	-1	SKILLET	1317	n/a	n/a	-1	n/a	n/a	n/a	n/a	n/a
4323.388	n/a	FFR_REC_WORD	2161694	wordpools/wasnorm_wordpool.txt	LTP153	ltpFR	0	n/a	-1	BROCCOLI	176	n/a	n/a	-1	n/a	n/a	n/a	n/a	n/a
4324.39	n/a	FFR_REC_WORD	2162195	wordpools/wasnorm_wordpool.txt	LTP153	ltpFR	0	n/a	-1	POT	1114	n/a	n/a	-1	n/a	n/a	n/a	n/a	n/a
4329.454	n/a	FFR_REC_WORD	2164727	wordpools/wasnorm_wordpool.txt	LTP153	ltpFR	0	n/a	-1	MAGICIAN	854	n/a	n/a	-1	n/a	n/a	n/a	n/a	n/a
4330.596	n/a	FFR_REC_WORD	2165298	wordpools/wasnorm_wordpool.txt	LTP153	ltpFR	0	n/a	-1	PATIO	1025	n/a	n/a	-1	n/a	n/a	n/a	n/a	n/a
4332.756	n/a	FFR_REC_WORD	2166378	wordpools/wasnorm_wordpool.txt	LTP153	ltpFR	0	n/a	0	BALCONY	72	n/a	n/a	1	n/a	n/a	n/a	n/a	n/a
4337.73	n/a	FFR_REC_WORD	2168865	wordpools/wasnorm_wordpool.txt	LTP153	ltpFR	0	n/a	0	BANQUET	86	n/a	n/a	1	n/a	n/a	n/a	n/a	n/a
4349.014	n/a	FFR_REC_WORD	2174507	wordpools/wasnorm_wordpool.txt	LTP153	ltpFR	0	n/a	1	DIVER	476	n/a	n/a	1	n/a	n/a	n/a	n/a	n/a
4350.212	n/a	FFR_REC_WORD	2175106	wordpools/wasnorm_wordpool.txt	LTP153	ltpFR	0	n/a	1	DINER	467	n/a	n/a	0	n/a	n/a	n/a	n/a	n/a
4352.472	n/a	FFR_REC_WORD	2176236	wordpools/wasnorm_wordpool.txt	LTP153	ltpFR	0	n/a	1	NITROGEN	954	n/a	n/a	0	n/a	n/a	n/a	n/a	n/a
4353.434	n/a	FFR_REC_WORD	2176717	wordpools/wasnorm_wordpool.txt	LTP153	ltpFR	0	n/a	1	EMERALD	528	n/a	n/a	0	n/a	n/a	n/a	n/a	n/a
4358.036	n/a	FFR_REC_WORD	2179018	wordpools/wasnorm_wordpool.txt	LTP153	ltpFR	0	n/a	0	VELVET	1555	n/a	n/a	0	n/a	n/a	n/a	n/a	n/a
4360.24	n/a	FFR_REC_WORD	2180120	wordpools/wasnorm_wordpool.txt	LTP153	ltpFR	0	n/a	1	PIGMENT	1066	n/a	n/a	0	n/a	n/a	n/a	n/a	n/a
4387.618	n/a	FFR_REC_WORD	2193809	wordpools/wasnorm_wordpool.txt	LTP153	ltpFR	0	n/a	0	SINK	1309	n/a	n/a	1	n/a	n/a	n/a	n/a	n/a
4388.618	n/a	FFR_REC_WORD_VV	2194309	wordpools/wasnorm_wordpool.txt	LTP153	ltpFR	0	n/a	n/a	<>	-1	n/a	n/a	n/a	n/a	n/a	n/a	n/a	n/a
4390.288	n/a	FFR_REC_WORD	2195144	wordpools/wasnorm_wordpool.txt	LTP153	ltpFR	0	n/a	0	FAUCET	555	n/a	n/a	0	n/a	n/a	n/a	n/a	n/a
4391.82	n/a	FFR_REC_WORD	2195910	wordpools/wasnorm_wordpool.txt	LTP153	ltpFR	0	n/a	0	PUZZLE	1146	n/a	n/a	0	n/a	n/a	n/a	n/a	n/a
4394.848	n/a	FFR_REC_WORD	2197424	wordpools/wasnorm_wordpool.txt	LTP153	ltpFR	0	n/a	0	BATHTUB	100	n/a	n/a	1	n/a	n/a	n/a	n/a	n/a
4396.146	n/a	FFR_REC_WORD	2198073	wordpools/wasnorm_wordpool.txt	LTP153	ltpFR	0	n/a	-1	BEDROOM	111	n/a	n/a	-1	n/a	n/a	n/a	n/a	n/a
4403.084	n/a	FFR_REC_WORD_VV	2201542	wordpools/wasnorm_wordpool.txt	LTP153	ltpFR	0	n/a	n/a	<>	-1	n/a	n/a	n/a	n/a	n/a	n/a	n/a	n/a
4403.894	n/a	FFR_REC_WORD	2201947	wordpools/wasnorm_wordpool.txt	LTP153	ltpFR	0	n/a	-1	NAIL	936	n/a	n/a	-1	n/a	n/a	n/a	n/a	n/a
4433.906	n/a	FFR_REC_WORD	2216953	wordpools/wasnorm_wordpool.txt	LTP153	ltpFR	0	n/a	n/a	DAFFODIL	-1	n/a	n/a	n/a	n/a	n/a	n/a	n/a	n/a
4434.93	n/a	FFR_REC_WORD	2217465	wordpools/wasnorm_wordpool.txt	LTP153	ltpFR	0	n/a	0	PLANT	1083	n/a	n/a	0	n/a	n/a	n/a	n/a	n/a
4436.032	n/a	FFR_REC_WORD	2218016	wordpools/wasnorm_wordpool.txt	LTP153	ltpFR	0	n/a	0	RADISH	1158	n/a	n/a	0	n/a	n/a	n/a	n/a	n/a
4438.686	n/a	FFR_REC_WORD_VV	2219343	wordpools/wasnorm_wordpool.txt	LTP153	ltpFR	0	n/a	n/a	<>	-1	n/a	n/a	n/a	n/a	n/a	n/a	n/a	n/a
4450.23	n/a	FFR_REC_WORD	2225115	wordpools/wasnorm_wordpool.txt	LTP153	ltpFR	0	n/a	0	SERPENT	1270	n/a	n/a	0	n/a	n/a	n/a	n/a	n/a
4451.23	n/a	FFR_REC_WORD_VV	2225615	wordpools/wasnorm_wordpool.txt	LTP153	ltpFR	0	n/a	n/a	<>	-1	n/a	n/a	n/a	n/a	n/a	n/a	n/a	n/a
4452.046	n/a	FFR_REC_WORD	2226023	wordpools/wasnorm_wordpool.txt	LTP153	ltpFR	0	n/a	0	WATER	1594	n/a	n/a	0	n/a	n/a	n/a	n/a	n/a
4455.698	n/a	FFR_REC_WORD	2227849	wordpools/wasnorm_wordpool.txt	LTP153	ltpFR	0	n/a	0	VITAMIN	1574	n/a	n/a	0	n/a	n/a	n/a	n/a	n/a
4461.29	n/a	FFR_REC_WORD	2230645	wordpools/wasnorm_wordpool.txt	LTP153	ltpFR	0	n/a	1	BISON	131	n/a	n/a	1	n/a	n/a	n/a	n/a	n/a
4467.426	n/a	FFR_REC_WORD	2233713	wordpools/wasnorm_wordpool.txt	LTP153	ltpFR	0	n/a	1	CHIPMUNK	304	n/a	n/a	1	n/a	n/a	n/a	n/a	n/a
4468.428	n/a	FFR_REC_WORD_VV	2234214	wordpools/wasnorm_wordpool.txt	LTP153	ltpFR	0	n/a	n/a	<>	-1	n/a	n/a	n/a	n/a	n/a	n/a	n/a	n/a
4470.626	n/a	FFR_REC_WORD	2235313	wordpools/wasnorm_wordpool.txt	LTP153	ltpFR	0	n/a	1	CLOTHES	327	n/a	n/a	0	n/a	n/a	n/a	n/a	n/a
4471.832	n/a	FFR_REC_WORD	2235916	wordpools/wasnorm_wordpool.txt	LTP153	ltpFR	0	n/a	1	DINER	467	n/a	n/a	0	n/a	n/a	n/a	n/a	n/a
4479.87	n/a	FFR_REC_WORD	2239935	wordpools/wasnorm_wordpool.txt	LTP153	ltpFR	0	n/a	1	FUR	615	n/a	n/a	0	n/a	n/a	n/a	n/a	n/a
4484.18	n/a	FFR_REC_WORD	2242090	wordpools/wasnorm_wordpool.txt	LTP153	ltpFR	0	n/a	1	OCEAN	970	n/a	n/a	0	n/a	n/a	n/a	n/a	n/a
4491.016	n/a	FFR_REC_WORD	2245508	wordpools/wasnorm_wordpool.txt	LTP153	ltpFR	0	n/a	1	MAMMAL	861	n/a	n/a	1	n/a	n/a	n/a	n/a	n/a
4844.318	n/a	REC_START	2422159	n/a	LTP153	ltpFR	0	1	n/a	n/a	n/a	n/a	n/a	n/a	n/a	n/a	n/a	n/a	n/a
4844.35	n/a	RECOG_TARGET	2422175	n/a	LTP153	ltpFR	0	1	-1	WOLF	1619	0	2	-1	n/a	n/a	n/a	n/a	n/a
4846.482	n/a	RECOG_RESP	2423241	n/a	LTP153	ltpFR	0	1	-1	WOLF	1619	0	n/a	-1	n/a	n/a	n/a	n/a	n/a
4851.896	n/a	RECOG_CONF	2425948	n/a	LTP153	ltpFR	0	1	-1	WOLF	1619	n/a	2	-1	n/a	n/a	n/a	n/a	n/a
4854.846	n/a	RECOG_TARGET	2427423	n/a	LTP153	ltpFR	0	1	0	BUFFALO	186	1	2	0	n/a	n/a	n/a	n/a	n/a
4857.472	n/a	RECOG_RESP	2428736	n/a	LTP153	ltpFR	0	1	0	BUFFALO	186	1	n/a	0	n/a	n/a	n/a	n/a	n/a
4861.2	n/a	RECOG_CONF	2430600	n/a	LTP153	ltpFR	0	1	0	BUFFALO	186	n/a	2	0	n/a	n/a	n/a	n/a	n/a
4863.012	n/a	RECOG_TARGET	2431506	n/a	LTP153	ltpFR	0	1	1	PHYSICIAN	1056	1	5	1	n/a	n/a	n/a	n/a	n/a
4865.09	n/a	RECOG_RESP	2432545	n/a	LTP153	ltpFR	0	1	1	PHYSICIAN	1056	1	n/a	1	n/a	n/a	n/a	n/a	n/a
4867.396	n/a	RECOG_CONF	2433698	n/a	LTP153	ltpFR	0	1	1	PHYSICIAN	1056	n/a	5	1	n/a	n/a	n/a	n/a	n/a
4869.574	n/a	RECOG_LURE	2434787	n/a	LTP153	ltpFR	0	1	n/a	THUMB	1462	0	1	n/a	n/a	n/a	n/a	n/a	n/a
4873.414	n/a	RECOG_RESP	2436707	n/a	LTP153	ltpFR	0	1	n/a	THUMB	1462	0	n/a	n/a	n/a	n/a	n/a	n/a	n/a
4876.75	n/a	RECOG_CONF	2438375	n/a	LTP153	ltpFR	0	1	n/a	THUMB	1462	n/a	1	n/a	n/a	n/a	n/a	n/a	n/a
4878.88	n/a	RECOG_TARGET	2439440	n/a	LTP153	ltpFR	0	1	1	SHORTCAKE	1292	1	2	0	n/a	n/a	n/a	n/a	n/a
4881.41	n/a	RECOG_RESP	2440705	n/a	LTP153	ltpFR	0	1	1	SHORTCAKE	1292	1	n/a	0	n/a	n/a	n/a	n/a	n/a
4884.012	n/a	RECOG_CONF	2442006	n/a	LTP153	ltpFR	0	1	1	SHORTCAKE	1292	n/a	2	0	n/a	n/a	n/a	n/a	n/a
4886.172	n/a	RECOG_TARGET	2443086	n/a	LTP153	ltpFR	0	1	1	SHERIFF	1284	1	4	1	n/a	n/a	n/a	n/a	n/a
4887.956	n/a	RECOG_RESP	2443978	n/a	LTP153	ltpFR	0	1	1	SHERIFF	1284	1	n/a	1	n/a	n/a	n/a	n/a	n/a
4890.142	n/a	RECOG_CONF	2445071	n/a	LTP153	ltpFR	0	1	1	SHERIFF	1284	n/a	4	1	n/a	n/a	n/a	n/a	n/a
4891.886	n/a	RECOG_TARGET	2445943	n/a	LTP153	ltpFR	0	1	-1	CORK	380	1	3	-1	n/a	n/a	n/a	n/a	n/a
4894.09	n/a	RECOG_RESP	2447045	n/a	LTP153	ltpFR	0	1	-1	CORK	380	1	n/a	-1	n/a	n/a	n/a	n/a	n/a
4896.946	n/a	RECOG_CONF	2448473	n/a	LTP153	ltpFR	0	1	-1	CORK	380	n/a	3	-1	n/a	n/a	n/a	n/a	n/a
4899.866	n/a	RECOG_TARGET	2449933	n/a	LTP153	ltpFR	0	1	1	SUPPER	1411	1	4	0	n/a	n/a	n/a	n/a	n/a
4901.208	n/a	RECOG_RESP	2450604	n/a	LTP153	ltpFR	0	1	1	SUPPER	1411	1	n/a	0	n/a	n/a	n/a	n/a	n/a
4903.612	n/a	RECOG_CONF	2451806	n/a	LTP153	ltpFR	0	1	1	SUPPER	1411	n/a	4	0	n/a	n/a	n/a	n/a	n/a
4905.166	n/a	RECOG_LURE	2452583	n/a	LTP153	ltpFR	0	1	n/a	DICE	461	0	2	n/a	n/a	n/a	n/a	n/a	n/a
4906.962	n/a	RECOG_RESP	2453481	n/a	LTP153	ltpFR	0	1	n/a	DICE	461	0	n/a	n/a	n/a	n/a	n/a	n/a	n/a
4908.91	n/a	RECOG_CONF	2454455	n/a	LTP153	ltpFR	0	1	n/a	DICE	461	n/a	2	n/a	n/a	n/a	n/a	n/a	n/a
4910.43	n/a	RECOG_TARGET	2455215	n/a	LTP153	ltpFR	0	1	-1	BUTTER	205	1	5	-1	n/a	n/a	n/a	n/a	n/a
4911.702	n/a	RECOG_RESP	2455851	n/a	LTP153	ltpFR	0	1	-1	BUTTER	205	1	n/a	-1	n/a	n/a	n/a	n/a	n/a
4913.3	n/a	RECOG_CONF	2456650	n/a	LTP153	ltpFR	0	1	-1	BUTTER	205	n/a	5	-1	n/a	n/a	n/a	n/a	n/a
4915.494	n/a	RECOG_TARGET	2457747	n/a	LTP153	ltpFR	0	1	0	FUDGE	611	1	5	0	n/a	n/a	n/a	n/a	n/a
4916.846	n/a	RECOG_RESP	2458423	n/a	LTP153	ltpFR	0	1	0	FUDGE	611	1	n/a	0	n/a	n/a	n/a	n/a	n/a
4919.112	n/a	RECOG_CONF	2459556	n/a	LTP153	ltpFR	0	1	0	FUDGE	611	n/a	5	0	n/a	n/a	n/a	n/a	n/a
4920.828	n/a	RECOG_LURE	2460414	n/a	LTP153	ltpFR	0	1	n/a	CHIME	300	0	2	n/a	n/a	n/a	n/a	n/a	n/a
4922.464	n/a	RECOG_RESP	2461232	n/a	LTP153	ltpFR	0	1	n/a	CHIME	300	0	n/a	n/a	n/a	n/a	n/a	n/a	n/a
4925.206	n/a	RECOG_CONF	2462603	n/a	LTP153	ltpFR	0	1	n/a	CHIME	300	n/a	2	n/a	n/a	n/a	n/a	n/a	n/a
4926.826	n/a	RECOG_LURE	2463413	n/a	LTP153	ltpFR	0	1	n/a	DETERGENT	455	0	1	n/a	n/a	n/a	n/a	n/a	n/a
4929.47	n/a	RECOG_RESP	2464735	n/a	LTP153	ltpFR	0	1	n/a	DETERGENT	455	0	n/a	n/a	n/a	n/a	n/a	n/a	n/a
4931.824	n/a	RECOG_CONF	2465912	n/a	LTP153	ltpFR	0	1	n/a	DETERGENT	455	n/a	1	n/a	n/a	n/a	n/a	n/a	n/a
4933.422	n/a	RECOG_TARGET	2466711	n/a	LTP153	ltpFR	0	1	-1	MICROSCOPE	891	1	4	-1	n/a	n/a	n/a	n/a	n/a
4935.008	n/a	RECOG_RESP	2467504	n/a	LTP153	ltpFR	0	1	-1	MICROSCOPE	891	1	n/a	-1	n/a	n/a	n/a	n/a	n/a
4937.316	n/a	RECOG_CONF	2468658	n/a	LTP153	ltpFR	0	1	-1	MICROSCOPE	891	n/a	4	-1	n/a	n/a	n/a	n/a	n/a
4938.896	n/a	RECOG_LURE	2469448	n/a	LTP153	ltpFR	0	1	n/a	FELLOW	558	0	2	n/a	n/a	n/a	n/a	n/a	n/a
4940.526	n/a	RECOG_RESP	2470263	n/a	LTP153	ltpFR	0	1	n/a	FELLOW	558	0	n/a	n/a	n/a	n/a	n/a	n/a	n/a
4944.16	n/a	RECOG_CONF	2472080	n/a	LTP153	ltpFR	0	1	n/a	FELLOW	558	n/a	2	n/a	n/a	n/a	n/a	n/a	n/a
4945.552	n/a	RECOG_TARGET	2472776	n/a	LTP153	ltpFR	0	1	-1	TABLE	1426	1	3	-1	n/a	n/a	n/a	n/a	n/a
4947.594	n/a	RECOG_RESP	2473797	n/a	LTP153	ltpFR	0	1	-1	TABLE	1426	1	n/a	-1	n/a	n/a	n/a	n/a	n/a
4949.662	n/a	RECOG_CONF	2474831	n/a	LTP153	ltpFR	0	1	-1	TABLE	1426	n/a	3	-1	n/a	n/a	n/a	n/a	n/a
4951.31	n/a	RECOG_LURE	2475655	n/a	LTP153	ltpFR	0	1	n/a	BRIEFCASE	175	1	2	n/a	n/a	n/a	n/a	n/a	n/a
4953.656	n/a	RECOG_RESP	2476828	n/a	LTP153	ltpFR	0	1	n/a	BRIEFCASE	175	1	n/a	n/a	n/a	n/a	n/a	n/a	n/a
4956.09	n/a	RECOG_CONF	2478045	n/a	LTP153	ltpFR	0	1	n/a	BRIEFCASE	175	n/a	2	n/a	n/a	n/a	n/a	n/a	n/a
4957.424	n/a	RECOG_LURE	2478712	n/a	LTP153	ltpFR	0	1	n/a	POCKETBOOK	1094	1	1	n/a	n/a	n/a	n/a	n/a	n/a
4960.474	n/a	RECOG_RESP	2480237	n/a	LTP153	ltpFR	0	1	n/a	POCKETBOOK	1094	1	n/a	n/a	n/a	n/a	n/a	n/a	n/a
4962.806	n/a	RECOG_CONF	2481403	n/a	LTP153	ltpFR	0	1	n/a	POCKETBOOK	1094	n/a	1	n/a	n/a	n/a	n/a	n/a	n/a
4964.314	n/a	RECOG_TARGET	2482157	n/a	LTP153	ltpFR	0	1	0	TOMBSTONE	1478	1	5	1	n/a	n/a	n/a	n/a	n/a
4965.49	n/a	RECOG_RESP	2482745	n/a	LTP153	ltpFR	0	1	0	TOMBSTONE	1478	1	n/a	1	n/a	n/a	n/a	n/a	n/a
4967.554	n/a	RECOG_CONF	2483777	n/a	LTP153	ltpFR	0	1	0	TOMBSTONE	1478	n/a	5	1	n/a	n/a	n/a	n/a	n/a
4969.254	n/a	RECOG_TARGET	2484627	n/a	LTP153	ltpFR	0	1	0	PAINTING	1005	1	4	1	n/a	n/a	n/a	n/a	n/a
4970.726	n/a	RECOG_RESP	2485363	n/a	LTP153	ltpFR	0	1	0	PAINTING	1005	1	n/a	1	n/a	n/a	n/a	n/a	n/a
4972.688	n/a	RECOG_CONF	2486344	n/a	LTP153	ltpFR	0	1	0	PAINTING	1005	n/a	4	1	n/a	n/a	n/a	n/a	n/a
4992.222	n/a	REC_START	2496111	n/a	LTP153	ltpFR	0	2	n/a	n/a	n/a	n/a	n/a	n/a	n/a	n/a	n/a	n/a	n/a
4992.254	n/a	RECOG_LURE	2496127	n/a	LTP153	ltpFR	0	2	n/a	PUDDING	1139	1	2	n/a	n/a	n/a	n/a	n/a	n/a
4994.5	n/a	RECOG_RESP	2497250	n/a	LTP153	ltpFR	0	2	n/a	PUDDING	1139	1	n/a	n/a	n/a	n/a	n/a	n/a	n/a
4996.206	n/a	RECOG_CONF	2498103	n/a	LTP153	ltpFR	0	2	n/a	PUDDING	1139	n/a	2	n/a	n/a	n/a	n/a	n/a	n/a
4997.838	n/a	RECOG_LURE	2498919	n/a	LTP153	ltpFR	0	2	n/a	VEST	1559	0	1	n/a	n/a	n/a	n/a	n/a	n/a
4998.922	n/a	RECOG_RESP	2499461	n/a	LTP153	ltpFR	0	2	n/a	VEST	1559	0	n/a	n/a	n/a	n/a	n/a	n/a	n/a
5000.912	n/a	RECOG_CONF	2500456	n/a	LTP153	ltpFR	0	2	n/a	VEST	1559	n/a	1	n/a	n/a	n/a	n/a	n/a	n/a
5002.202	n/a	RECOG_TARGET	2501101	n/a	LTP153	ltpFR	0	2	-1	SLIME	1327	1	5	-1	n/a	n/a	n/a	n/a	n/a
5003.316	n/a	RECOG_RESP	2501658	n/a	LTP153	ltpFR	0	2	-1	SLIME	1327	1	n/a	-1	n/a	n/a	n/a	n/a	n/a
5004.88	n/a	RECOG_CONF	2502440	n/a	LTP153	ltpFR	0	2	-1	SLIME	1327	n/a	5	-1	n/a	n/a	n/a	n/a	n/a
5006.592	n/a	RECOG_TARGET	2503296	n/a	LTP153	ltpFR	0	2	-1	DWARF	510	1	5	-1	n/a	n/a	n/a	n/a	n/a
5008.186	n/a	RECOG_RESP	2504093	n/a	LTP153	ltpFR	0	2	-1	DWARF	510	1	n/a	-1	n/a	n/a	n/a	n/a	n/a
5010.498	n/a	RECOG_CONF	2505249	n/a	LTP153	ltpFR	0	2	-1	DWARF	510	n/a	5	-1	n/a	n/a	n/a	n/a	n/a
5011.998	n/a	RECOG_TARGET	2505999	n/a	LTP153	ltpFR	0	2	1	WITNESS	1618	0	1	1	n/a	n/a	n/a	n/a	n/a
5013.6	n/a	RECOG_RESP	2506800	n/a	LTP153	ltpFR	0	2	1	WITNESS	1618	0	n/a	1	n/a	n/a	n/a	n/a	n/a
5015.444	n/a	RECOG_CONF	2507722	n/a	LTP153	ltpFR	0	2	1	WITNESS	1618	n/a	1	1	n/a	n/a	n/a	n/a	n/a
5016.982	n/a	RECOG_TARGET	2508491	n/a	LTP153	ltpFR	0	2	1	BISON	131	1	5	1	n/a	n/a	n/a	n/a	n/a
5018.02	n/a	RECOG_RESP	2509010	n/a	LTP153	ltpFR	0	2	1	BISON	131	1	n/a	1	n/a	n/a	n/a	n/a	n/a
5019.666	n/a	RECOG_CONF	2509833	n/a	LTP153	ltpFR	0	2	1	BISON	131	n/a	5	1	n/a	n/a	n/a	n/a	n/a
5021.13	n/a	RECOG_TARGET	2510565	n/a	LTP153	ltpFR	0	2	0	ENGINE	535	1	5	1	n/a	n/a	n/a	n/a	n/a
5022.284	n/a	RECOG_RESP	2511142	n/a	LTP153	ltpFR	0	2	0	ENGINE	535	1	n/a	1	n/a	n/a	n/a	n/a	n/a
5023.696	n/a	RECOG_CONF	2511848	n/a	LTP153	ltpFR	0	2	0	ENGINE	535	n/a	5	1	n/a	n/a	n/a	n/a	n/a
5025.346	n/a	RECOG_TARGET	2512673	n/a	LTP153	ltpFR	0	2	1	NUT	965	1	5	0	n/a	n/a	n/a	n/a	n/a
5026.472	n/a	RECOG_RESP	2513236	n/a	LTP153	ltpFR	0	2	1	NUT	965	1	n/a	0	n/a	n/a	n/a	n/a	n/a
5028.562	n/a	RECOG_CONF	2514281	n/a	LTP153	ltpFR	0	2	1	NUT	965	n/a	5	0	n/a	n/a	n/a	n/a	n/a
5029.926	n/a	RECOG_TARGET	2514963	n/a	LTP153	ltpFR	0	2	0	COCKTAIL	338	1	5	0	n/a	n/a	n/a	n/a	n/a
5030.912	n/a	RECOG_RESP	2515456	n/a	LTP153	ltpFR	0	2	0	COCKTAIL	338	1	n/a	0	n/a	n/a	n/a	n/a	n/a
5032.758	n/a	RECOG_CONF	2516379	n/a	LTP153	ltpFR	0	2	0	COCKTAIL	338	n/a	5	0	n/a	n/a	n/a	n/a	n/a
5034.326	n/a	RECOG_TARGET	2517163	n/a	LTP153	ltpFR	0	2	-1	POT	1114	1	5	-1	n/a	n/a	n/a	n/a	n/a
5035.154	n/a	RECOG_RESP	2517577	n/a	LTP153	ltpFR	0	2	-1	POT	1114	1	n/a	-1	n/a	n/a	n/a	n/a	n/a
5036.668	n/a	RECOG_CONF	2518334	n/a	LTP153	ltpFR	0	2	-1	POT	1114	n/a	5	-1	n/a	n/a	n/a	n/a	n/a
5038.184	n/a	RECOG_LURE	2519092	n/a	LTP153	ltpFR	0	2	n/a	CIGAR	308	1	3	n/a	n/a	n/a	n/a	n/a	n/a
5039.91	n/a	RECOG_RESP	2519955	n/a	LTP153	ltpFR	0	2	n/a	CIGAR	308	1	n/a	n/a	n/a	n/a	n/a	n/a	n/a
5041.356	n/a	RECOG_CONF	2520678	n/a	LTP153	ltpFR	0	2	n/a	CIGAR	308	n/a	3	n/a	n/a	n/a	n/a	n/a	n/a
5043.056	n/a	RECOG_LURE	2521528	n/a	LTP153	ltpFR	0	2	n/a	CASKET	255	1	2	n/a	n/a	n/a	n/a	n/a	n/a
5045.432	n/a	RECOG_RESP	2522716	n/a	LTP153	ltpFR	0	2	n/a	CASKET	255	1	n/a	n/a	n/a	n/a	n/a	n/a	n/a
5046.738	n/a	RECOG_CONF	2523369	n/a	LTP153	ltpFR	0	2	n/a	CASKET	255	n/a	2	n/a	n/a	n/a	n/a	n/a	n/a
5048.596	n/a	RECOG_TARGET	2524298	n/a	LTP153	ltpFR	0	2	-1	STRAW	1390	1	4	-1	n/a	n/a	n/a	n/a	n/a
5049.674	n/a	RECOG_RESP	2524837	n/a	LTP153	ltpFR	0	2	-1	STRAW	1390	1	n/a	-1	n/a	n/a	n/a	n/a	n/a
5051.246	n/a	RECOG_CONF	2525623	n/a	LTP153	ltpFR	0	2	-1	STRAW	1390	n/a	4	-1	n/a	n/a	n/a	n/a	n/a
5052.52	n/a	RECOG_LURE	2526260	n/a	LTP153	ltpFR	0	2	n/a	ARENA	37	0	3	n/a	n/a	n/a	n/a	n/a	n/a
5054.118	n/a	RECOG_RESP	2527059	n/a	LTP153	ltpFR	0	2	n/a	ARENA	37	0	n/a	n/a	n/a	n/a	n/a	n/a	n/a
5057.046	n/a	RECOG_CONF	2528523	n/a	LTP153	ltpFR	0	2	n/a	ARENA	37	n/a	3	n/a	n/a	n/a	n/a	n/a	n/a
5058.352	n/a	RECOG_TARGET	2529176	n/a	LTP153	ltpFR	0	2	1	MOSS	918	1	3	0	n/a	n/a	n/a	n/a	n/a
5060.254	n/a	RECOG_RESP	2530127	n/a	LTP153	ltpFR	0	2	1	MOSS	918	1	n/a	0	n/a	n/a	n/a	n/a	n/a
5062.51	n/a	RECOG_CONF	2531255	n/a	LTP153	ltpFR	0	2	1	MOSS	918	n/a	3	0	n/a	n/a	n/a	n/a	n/a
5063.95	n/a	RECOG_TARGET	2531975	n/a	LTP153	ltpFR	0	2	-1	PACKAGE	997	1	5	-1	n/a	n/a	n/a	n/a	n/a
5065.024	n/a	RECOG_RESP	2532512	n/a	LTP153	ltpFR	0	2	-1	PACKAGE	997	1	n/a	-1	n/a	n/a	n/a	n/a	n/a
5066.552	n/a	RECOG_CONF	2533276	n/a	LTP153	ltpFR	0	2	-1	PACKAGE	997	n/a	5	-1	n/a	n/a	n/a	n/a	n/a
5068.248	n/a	RECOG_TARGET	2534124	n/a	LTP153	ltpFR	0	2	-1	HUSBAND	728	1	5	-1	n/a	n/a	n/a	n/a	n/a
5069.086	n/a	RECOG_RESP	2534543	n/a	LTP153	ltpFR	0	2	-1	HUSBAND	728	1	n/a	-1	n/a	n/a	n/a	n/a	n/a
5070.742	n/a	RECOG_CONF	2535371	n/a	LTP153	ltpFR	0	2	-1	HUSBAND	728	n/a	5	-1	n/a	n/a	n/a	n/a	n/a
5072.098	n/a	RECOG_LURE	2536049	n/a	LTP153	ltpFR	0	2	n/a	HAM	678	0	2	n/a	n/a	n/a	n/a	n/a	n/a
5073.89	n/a	RECOG_RESP	2536945	n/a	LTP153	ltpFR	0	2	n/a	HAM	678	0	n/a	n/a	n/a	n/a	n/a	n/a	n/a
5075.398	n/a	RECOG_CONF	2537699	n/a	LTP153	ltpFR	0	2	n/a	HAM	678	n/a	2	n/a	n/a	n/a	n/a	n/a	n/a
5076.98	n/a	RECOG_TARGET	2538490	n/a	LTP153	ltpFR	0	2	0	DAM	436	1	5	1	n/a	n/a	n/a	n/a	n/a
5077.932	n/a	RECOG_RESP	2538966	n/a	LTP153	ltpFR	0	2	0	DAM	436	1	n/a	1	n/a	n/a	n/a	n/a	n/a
5079.284	n/a	RECOG_CONF	2539642	n/a	LTP153	ltpFR	0	2	0	DAM	436	n/a	5	1	n/a	n/a	n/a	n/a	n/a
5080.762	n/a	RECOG_TARGET	2540381	n/a	LTP153	ltpFR	0	2	-1	PRINCESS	1125	1	5	-1	n/a	n/a	n/a	n/a	n/a
5081.582	n/a	RECOG_RESP	2540791	n/a	LTP153	ltpFR	0	2	-1	PRINCESS	1125	1	n/a	-1	n/a	n/a	n/a	n/a	n/a
5082.85	n/a	RECOG_CONF	2541425	n/a	LTP153	ltpFR	0	2	-1	PRINCESS	1125	n/a	5	-1	n/a	n/a	n/a	n/a	n/a
5110.524	n/a	REC_START	2555262	n/a	LTP153	ltpFR	0	3	n/a	n/a	n/a	n/a	n/a	n/a	n/a	n/a	n/a	n/a	n/a
5110.56	n/a	RECOG_TARGET	2555280	n/a	LTP153	ltpFR	0	3	-1	TOASTER	1472	1	5	-1	n/a	n/a	n/a	n/a	n/a
5111.722	n/a	RECOG_RESP	2555861	n/a	LTP153	ltpFR	0	3	-1	TOASTER	1472	1	n/a	-1	n/a	n/a	n/a	n/a	n/a
5113.762	n/a	RECOG_CONF	2556881	n/a	LTP153	ltpFR	0	3	-1	TOASTER	1472	n/a	5	-1	n/a	n/a	n/a	n/a	n/a
5115.16	n/a	RECOG_TARGET	2557580	n/a	LTP153	ltpFR	0	3	0	WATERFALL	1595	1	5	1	n/a	n/a	n/a	n/a	n/a
5116.028	n/a	RECOG_RESP	2558014	n/a	LTP153	ltpFR	0	3	0	WATERFALL	1595	1	n/a	1	n/a	n/a	n/a	n/a	n/a
5117.474	n/a	RECOG_CONF	2558737	n/a	LTP153	ltpFR	0	3	0	WATERFALL	1595	n/a	5	1	n/a	n/a	n/a	n/a	n/a
5118.95	n/a	RECOG_LURE	2559475	n/a	LTP153	ltpFR	0	3	n/a	MERMAID	887	0	2	n/a	n/a	n/a	n/a	n/a	n/a
5120.494	n/a	RECOG_RESP	2560247	n/a	LTP153	ltpFR	0	3	n/a	MERMAID	887	0	n/a	n/a	n/a	n/a	n/a	n/a	n/a
5121.93	n/a	RECOG_CONF	2560965	n/a	LTP153	ltpFR	0	3	n/a	MERMAID	887	n/a	2	n/a	n/a	n/a	n/a	n/a	n/a
5123.424	n/a	RECOG_TARGET	2561712	n/a	LTP153	ltpFR	0	3	-1	APRON	35	1	5	-1	n/a	n/a	n/a	n/a	n/a
5124.626	n/a	RECOG_RESP	2562313	n/a	LTP153	ltpFR	0	3	-1	APRON	35	1	n/a	-1	n/a	n/a	n/a	n/a	n/a
5126.036	n/a	RECOG_CONF	2563018	n/a	LTP153	ltpFR	0	3	-1	APRON	35	n/a	5	-1	n/a	n/a	n/a	n/a	n/a
5127.49	n/a	RECOG_TARGET	2563745	n/a	LTP153	ltpFR	0	3	0	POSTAGE	1113	1	5	0	n/a	n/a	n/a	n/a	n/a
5128.65	n/a	RECOG_RESP	2564325	n/a	LTP153	ltpFR	0	3	0	POSTAGE	1113	1	n/a	0	n/a	n/a	n/a	n/a	n/a
5129.754	n/a	RECOG_CONF	2564877	n/a	LTP153	ltpFR	0	3	0	POSTAGE	1113	n/a	5	0	n/a	n/a	n/a	n/a	n/a
5131.28	n/a	RECOG_TARGET	2565640	n/a	LTP153	ltpFR	0	3	0	CLAW	319	1	4	0	n/a	n/a	n/a	n/a	n/a
5132.584	n/a	RECOG_RESP	2566292	n/a	LTP153	ltpFR	0	3	0	CLAW	319	1	n/a	0	n/a	n/a	n/a	n/a	n/a
5134.136	n/a	RECOG_CONF	2567068	n/a	LTP153	ltpFR	0	3	0	CLAW	319	n/a	4	0	n/a	n/a	n/a	n/a	n/a
5135.578	n/a	RECOG_TARGET	2567789	n/a	LTP153	ltpFR	0	3	-1	BEDROOM	111	1	5	-1	n/a	n/a	n/a	n/a	n/a
5136.488	n/a	RECOG_RESP	2568244	n/a	LTP153	ltpFR	0	3	-1	BEDROOM	111	1	n/a	-1	n/a	n/a	n/a	n/a	n/a
5137.788	n/a	RECOG_CONF	2568894	n/a	LTP153	ltpFR	0	3	-1	BEDROOM	111	n/a	5	-1	n/a	n/a	n/a	n/a	n/a
5139.202	n/a	RECOG_TARGET	2569601	n/a	LTP153	ltpFR	0	3	-1	NECK	939	1	5	-1	n/a	n/a	n/a	n/a	n/a
5140.188	n/a	RECOG_RESP	2570094	n/a	LTP153	ltpFR	0	3	-1	NECK	939	1	n/a	-1	n/a	n/a	n/a	n/a	n/a
5141.45	n/a	RECOG_CONF	2570725	n/a	LTP153	ltpFR	0	3	-1	NECK	939	n/a	5	-1	n/a	n/a	n/a	n/a	n/a
5142.542	n/a	RECOG_TARGET	2571271	n/a	LTP153	ltpFR	0	3	-1	FRECKLE	602	1	5	-1	n/a	n/a	n/a	n/a	n/a
5143.386	n/a	RECOG_RESP	2571693	n/a	LTP153	ltpFR	0	3	-1	FRECKLE	602	1	n/a	-1	n/a	n/a	n/a	n/a	n/a
5144.674	n/a	RECOG_CONF	2572337	n/a	LTP153	ltpFR	0	3	-1	FRECKLE	602	n/a	5	-1	n/a	n/a	n/a	n/a	n/a
5146.0	n/a	RECOG_LURE	2573000	n/a	LTP153	ltpFR	0	3	n/a	XEROX	1628	0	3	n/a	n/a	n/a	n/a	n/a	n/a
5147.34	n/a	RECOG_RESP	2573670	n/a	LTP153	ltpFR	0	3	n/a	XEROX	1628	0	n/a	n/a	n/a	n/a	n/a	n/a	n/a
5148.924	n/a	RECOG_CONF	2574462	n/a	LTP153	ltpFR	0	3	n/a	XEROX	1628	n/a	3	n/a	n/a	n/a	n/a	n/a	n/a
5150.25	n/a	RECOG_LURE	2575125	n/a	LTP153	ltpFR	0	3	n/a	BOULEVARD	156	0	2	n/a	n/a	n/a	n/a	n/a	n/a
5151.45	n/a	RECOG_RESP	2575725	n/a	LTP153	ltpFR	0	3	n/a	BOULEVARD	156	0	n/a	n/a	n/a	n/a	n/a	n/a	n/a
5153.12	n/a	RECOG_CONF	2576560	n/a	LTP153	ltpFR	0	3	n/a	BOULEVARD	156	n/a	2	n/a	n/a	n/a	n/a	n/a	n/a
5154.496	n/a	RECOG_TARGET	2577248	n/a	LTP153	ltpFR	0	3	1	CHAUFFEUR	283	1	3	1	n/a	n/a	n/a	n/a	n/a
5156.128	n/a	RECOG_RESP	2578064	n/a	LTP153	ltpFR	0	3	1	CHAUFFEUR	283	1	n/a	1	n/a	n/a	n/a	n/a	n/a
5157.56	n/a	RECOG_CONF	2578780	n/a	LTP153	ltpFR	0	3	1	CHAUFFEUR	283	n/a	3	1	n/a	n/a	n/a	n/a	n/a
5159.112	n/a	RECOG_TARGET	2579556	n/a	LTP153	ltpFR	0	3	1	CLOVE	329	1	5	0	n/a	n/a	n/a	n/a	n/a
5160.248	n/a	RECOG_RESP	2580124	n/a	LTP153	ltpFR	0	3	1	CLOVE	329	1	n/a	0	n/a	n/a	n/a	n/a	n/a
5161.472	n/a	RECOG_CONF	2580736	n/a	LTP153	ltpFR	0	3	1	CLOVE	329	n/a	5	0	n/a	n/a	n/a	n/a	n/a
5162.928	n/a	RECOG_TARGET	2581464	n/a	LTP153	ltpFR	0	3	-1	PUMP	1141	1	5	-1	n/a	n/a	n/a	n/a	n/a
5163.998	n/a	RECOG_RESP	2581999	n/a	LTP153	ltpFR	0	3	-1	PUMP	1141	1	n/a	-1	n/a	n/a	n/a	n/a	n/a
5165.666	n/a	RECOG_CONF	2582833	n/a	LTP153	ltpFR	0	3	-1	PUMP	1141	n/a	5	-1	n/a	n/a	n/a	n/a	n/a
5167.152	n/a	RECOG_TARGET	2583576	n/a	LTP153	ltpFR	0	3	0	SINK	1309	1	5	1	n/a	n/a	n/a	n/a	n/a
5168.002	n/a	RECOG_RESP	2584001	n/a	LTP153	ltpFR	0	3	0	SINK	1309	1	n/a	1	n/a	n/a	n/a	n/a	n/a
5169.2	n/a	RECOG_CONF	2584600	n/a	LTP153	ltpFR	0	3	0	SINK	1309	n/a	5	1	n/a	n/a	n/a	n/a	n/a
5170.642	n/a	RECOG_TARGET	2585321	n/a	LTP153	ltpFR	0	3	-1	ROOF	1205	1	5	-1	n/a	n/a	n/a	n/a	n/a
5171.436	n/a	RECOG_RESP	2585718	n/a	LTP153	ltpFR	0	3	-1	ROOF	1205	1	n/a	-1	n/a	n/a	n/a	n/a	n/a
5172.64	n/a	RECOG_CONF	2586320	n/a	LTP153	ltpFR	0	3	-1	ROOF	1205	n/a	5	-1	n/a	n/a	n/a	n/a	n/a
5174.092	n/a	RECOG_TARGET	2587046	n/a	LTP153	ltpFR	0	3	1	DIAMOND	458	1	3	1	n/a	n/a	n/a	n/a	n/a
5175.79	n/a	RECOG_RESP	2587895	n/a	LTP153	ltpFR	0	3	1	DIAMOND	458	1	n/a	1	n/a	n/a	n/a	n/a	n/a
5177.33	n/a	RECOG_CONF	2588665	n/a	LTP153	ltpFR	0	3	1	DIAMOND	458	n/a	3	1	n/a	n/a	n/a	n/a	n/a
5178.716	n/a	RECOG_TARGET	2589358	n/a	LTP153	ltpFR	0	3	1	JEEP	753	1	5	0	n/a	n/a	n/a	n/a	n/a
5179.636	n/a	RECOG_RESP	2589818	n/a	LTP153	ltpFR	0	3	1	JEEP	753	1	n/a	0	n/a	n/a	n/a	n/a	n/a
5180.702	n/a	RECOG_CONF	2590351	n/a	LTP153	ltpFR	0	3	1	JEEP	753	n/a	5	0	n/a	n/a	n/a	n/a	n/a
5182.24	n/a	RECOG_TARGET	2591120	n/a	LTP153	ltpFR	0	3	0	BIRD	129	0	2	3	n/a	n/a	n/a	n/a	n/a
5183.97	n/a	RECOG_RESP	2591985	n/a	LTP153	ltpFR	0	3	0	BIRD	129	0	n/a	3	n/a	n/a	n/a	n/a	n/a
5185.558	n/a	RECOG_CONF	2592779	n/a	LTP153	ltpFR	0	3	0	BIRD	129	n/a	2	3	n/a	n/a	n/a	n/a	n/a
5187.022	n/a	RECOG_LURE	2593511	n/a	LTP153	ltpFR	0	3	n/a	WHEEL	1603	1	3	n/a	n/a	n/a	n/a	n/a	n/a
5188.266	n/a	RECOG_RESP	2594133	n/a	LTP153	ltpFR	0	3	n/a	WHEEL	1603	1	n/a	n/a	n/a	n/a	n/a	n/a	n/a
5189.506	n/a	RECOG_CONF	2594753	n/a	LTP153	ltpFR	0	3	n/a	WHEEL	1603	n/a	3	n/a	n/a	n/a	n/a	n/a	n/a
5194.84	n/a	REC_START	2597420	n/a	LTP153	ltpFR	0	4	n/a	n/a	n/a	n/a	n/a	n/a	n/a	n/a	n/a	n/a	n/a
5194.878	n/a	RECOG_TARGET	2597439	n/a	LTP153	ltpFR	0	4	1	VALVE	1546	1	2	0	n/a	n/a	n/a	n/a	n/a
5196.41	n/a	RECOG_RESP	2598205	n/a	LTP153	ltpFR	0	4	1	VALVE	1546	1	n/a	0	n/a	n/a	n/a	n/a	n/a
5197.578	n/a	RECOG_CONF	2598789	n/a	LTP153	ltpFR	0	4	1	VALVE	1546	n/a	2	0	n/a	n/a	n/a	n/a	n/a
5199.06	n/a	RECOG_LURE	2599530	n/a	LTP153	ltpFR	0	4	n/a	VAGRANT	1544	0	1	n/a	n/a	n/a	n/a	n/a	n/a
5200.558	n/a	RECOG_RESP	2600279	n/a	LTP153	ltpFR	0	4	n/a	VAGRANT	1544	0	n/a	n/a	n/a	n/a	n/a	n/a	n/a
5201.91	n/a	RECOG_CONF	2600955	n/a	LTP153	ltpFR	0	4	n/a	VAGRANT	1544	n/a	1	n/a	n/a	n/a	n/a	n/a	n/a
5203.442	n/a	RECOG_TARGET	2601721	n/a	LTP153	ltpFR	0	4	-1	BROCCOLI	176	1	5	-1	n/a	n/a	n/a	n/a	n/a
5204.398	n/a	RECOG_RESP	2602199	n/a	LTP153	ltpFR	0	4	-1	BROCCOLI	176	1	n/a	-1	n/a	n/a	n/a	n/a	n/a
5205.604	n/a	RECOG_CONF	2602802	n/a	LTP153	ltpFR	0	4	-1	BROCCOLI	176	n/a	5	-1	n/a	n/a	n/a	n/a	n/a
5207.19	n/a	RECOG_TARGET	2603595	n/a	LTP153	ltpFR	0	4	-1	MAGICIAN	854	1	5	-1	n/a	n/a	n/a	n/a	n/a
5207.93	n/a	RECOG_RESP	2603965	n/a	LTP153	ltpFR	0	4	-1	MAGICIAN	854	1	n/a	-1	n/a	n/a	n/a	n/a	n/a
5209.124	n/a	RECOG_CONF	2604562	n/a	LTP153	ltpFR	0	4	-1	MAGICIAN	854	n/a	5	-1	n/a	n/a	n/a	n/a	n/a
5210.414	n/a	RECOG_TARGET	2605207	n/a	LTP153	ltpFR	0	4	0	BALCONY	72	1	5	1	n/a	n/a	n/a	n/a	n/a
5211.226	n/a	RECOG_RESP	2605613	n/a	LTP153	ltpFR	0	4	0	BALCONY	72	1	n/a	1	n/a	n/a	n/a	n/a	n/a
5212.536	n/a	RECOG_CONF	2606268	n/a	LTP153	ltpFR	0	4	0	BALCONY	72	n/a	5	1	n/a	n/a	n/a	n/a	n/a
5213.896	n/a	RECOG_TARGET	2606948	n/a	LTP153	ltpFR	0	4	0	CUSHION	428	1	4	1	n/a	n/a	n/a	n/a	n/a
5214.96	n/a	RECOG_RESP	2607480	n/a	LTP153	ltpFR	0	4	0	CUSHION	428	1	n/a	1	n/a	n/a	n/a	n/a	n/a
5216.238	n/a	RECOG_CONF	2608119	n/a	LTP153	ltpFR	0	4	0	CUSHION	428	n/a	4	1	n/a	n/a	n/a	n/a	n/a
5217.496	n/a	RECOG_TARGET	2608748	n/a	LTP153	ltpFR	0	4	0	FIREMAN	569	1	2	1	n/a	n/a	n/a	n/a	n/a
5219.14	n/a	RECOG_RESP	2609570	n/a	LTP153	ltpFR	0	4	0	FIREMAN	569	1	n/a	1	n/a	n/a	n/a	n/a	n/a
5220.318	n/a	RECOG_CONF	2610159	n/a	LTP153	ltpFR	0	4	0	FIREMAN	569	n/a	2	1	n/a	n/a	n/a	n/a	n/a
5221.744	n/a	RECOG_LURE	2610872	n/a	LTP153	ltpFR	0	4	n/a	BUG	187	0	2	n/a	n/a	n/a	n/a	n/a	n/a
5222.752	n/a	RECOG_RESP	2611376	n/a	LTP153	ltpFR	0	4	n/a	BUG	187	0	n/a	n/a	n/a	n/a	n/a	n/a	n/a
5224.182	n/a	RECOG_CONF	2612091	n/a	LTP153	ltpFR	0	4	n/a	BUG	187	n/a	2	n/a	n/a	n/a	n/a	n/a	n/a
5225.776	n/a	RECOG_TARGET	2612888	n/a	LTP153	ltpFR	0	4	-1	DESK	452	1	3	-1	n/a	n/a	n/a	n/a	n/a
5226.778	n/a	RECOG_RESP	2613389	n/a	LTP153	ltpFR	0	4	-1	DESK	452	1	n/a	-1	n/a	n/a	n/a	n/a	n/a
5228.082	n/a	RECOG_CONF	2614041	n/a	LTP153	ltpFR	0	4	-1	DESK	452	n/a	3	-1	n/a	n/a	n/a	n/a	n/a
5229.466	n/a	RECOG_TARGET	2614733	n/a	LTP153	ltpFR	0	4	0	HORSE	719	1	4	1	n/a	n/a	n/a	n/a	n/a
5230.518	n/a	RECOG_RESP	2615259	n/a	LTP153	ltpFR	0	4	0	HORSE	719	1	n/a	1	n/a	n/a	n/a	n/a	n/a
5231.812	n/a	RECOG_CONF	2615906	n/a	LTP153	ltpFR	0	4	0	HORSE	719	n/a	4	1	n/a	n/a	n/a	n/a	n/a
5233.24	n/a	RECOG_TARGET	2616620	n/a	LTP153	ltpFR	0	4	0	SAUCER	1237	1	4	0	n/a	n/a	n/a	n/a	n/a
5234.372	n/a	RECOG_RESP	2617186	n/a	LTP153	ltpFR	0	4	0	SAUCER	1237	1	n/a	0	n/a	n/a	n/a	n/a	n/a
5235.784	n/a	RECOG_CONF	2617892	n/a	LTP153	ltpFR	0	4	0	SAUCER	1237	n/a	4	0	n/a	n/a	n/a	n/a	n/a
5237.08	n/a	RECOG_TARGET	2618540	n/a	LTP153	ltpFR	0	4	0	LIPSTICK	829	0	2	0	n/a	n/a	n/a	n/a	n/a
5239.402	n/a	RECOG_RESP	2619701	n/a	LTP153	ltpFR	0	4	0	LIPSTICK	829	0	n/a	0	n/a	n/a	n/a	n/a	n/a
5240.838	n/a	RECOG_CONF	2620419	n/a	LTP153	ltpFR	0	4	0	LIPSTICK	829	n/a	2	0	n/a	n/a	n/a	n/a	n/a
5242.364	n/a	RECOG_TARGET	2621182	n/a	LTP153	ltpFR	0	4	1	HEDGE	699	1	3	0	n/a	n/a	n/a	n/a	n/a
5243.286	n/a	RECOG_RESP	2621643	n/a	LTP153	ltpFR	0	4	1	HEDGE	699	1	n/a	0	n/a	n/a	n/a	n/a	n/a
5244.764	n/a	RECOG_CONF	2622382	n/a	LTP153	ltpFR	0	4	1	HEDGE	699	n/a	3	0	n/a	n/a	n/a	n/a	n/a
5246.046	n/a	RECOG_TARGET	2623023	n/a	LTP153	ltpFR	0	4	1	GOVERNOR	651	0	1	1	n/a	n/a	n/a	n/a	n/a
5249.076	n/a	RECOG_RESP	2624538	n/a	LTP153	ltpFR	0	4	1	GOVERNOR	651	0	n/a	1	n/a	n/a	n/a	n/a	n/a
5250.988	n/a	RECOG_CONF	2625494	n/a	LTP153	ltpFR	0	4	1	GOVERNOR	651	n/a	1	1	n/a	n/a	n/a	n/a	n/a
5252.41	n/a	RECOG_TARGET	2626205	n/a	LTP153	ltpFR	0	4	-1	SUBURB	1399	1	5	-1	n/a	n/a	n/a	n/a	n/a
5253.2	n/a	RECOG_RESP	2626600	n/a	LTP153	ltpFR	0	4	-1	SUBURB	1399	1	n/a	-1	n/a	n/a	n/a	n/a	n/a
5254.34	n/a	RECOG_CONF	2627170	n/a	LTP153	ltpFR	0	4	-1	SUBURB	1399	n/a	5	-1	n/a	n/a	n/a	n/a	n/a
5255.842	n/a	RECOG_TARGET	2627921	n/a	LTP153	ltpFR	0	4	1	FARM	552	1	4	0	n/a	n/a	n/a	n/a	n/a
5256.7	n/a	RECOG_RESP	2628350	n/a	LTP153	ltpFR	0	4	1	FARM	552	1	n/a	0	n/a	n/a	n/a	n/a	n/a
5258.086	n/a	RECOG_CONF	2629043	n/a	LTP153	ltpFR	0	4	1	FARM	552	n/a	4	0	n/a	n/a	n/a	n/a	n/a
5259.192	n/a	RECOG_TARGET	2629596	n/a	LTP153	ltpFR	0	4	-1	TELESCOPE	1446	1	4	-1	n/a	n/a	n/a	n/a	n/a
5260.152	n/a	RECOG_RESP	2630076	n/a	LTP153	ltpFR	0	4	-1	TELESCOPE	1446	1	n/a	-1	n/a	n/a	n/a	n/a	n/a
5261.548	n/a	RECOG_CONF	2630774	n/a	LTP153	ltpFR	0	4	-1	TELESCOPE	1446	n/a	4	-1	n/a	n/a	n/a	n/a	n/a
5262.848	n/a	RECOG_LURE	2631424	n/a	LTP153	ltpFR	0	4	n/a	SOCK	1339	0	2	n/a	n/a	n/a	n/a	n/a	n/a
5263.944	n/a	RECOG_RESP	2631972	n/a	LTP153	ltpFR	0	4	n/a	SOCK	1339	0	n/a	n/a	n/a	n/a	n/a	n/a	n/a
5265.168	n/a	RECOG_CONF	2632584	n/a	LTP153	ltpFR	0	4	n/a	SOCK	1339	n/a	2	n/a	n/a	n/a	n/a	n/a	n/a
5266.63	n/a	RECOG_LURE	2633315	n/a	LTP153	ltpFR	0	4	n/a	WINNER	1615	0	3	n/a	n/a	n/a	n/a	n/a	n/a
5267.676	n/a	RECOG_RESP	2633838	n/a	LTP153	ltpFR	0	4	n/a	WINNER	1615	0	n/a	n/a	n/a	n/a	n/a	n/a	n/a
5269.2	n/a	RECOG_CONF	2634600	n/a	LTP153	ltpFR	0	4	n/a	WINNER	1615	n/a	3	n/a	n/a	n/a	n/a	n/a	n/a
5270.488	n/a	RECOG_TARGET	2635244	n/a	LTP153	ltpFR	0	4	1	JUGGLER	763	1	3	1	n/a	n/a	n/a	n/a	n/a
5272.186	n/a	RECOG_RESP	2636093	n/a	LTP153	ltpFR	0	4	1	JUGGLER	763	1	n/a	1	n/a	n/a	n/a	n/a	n/a
5274.066	n/a	RECOG_CONF	2637033	n/a	LTP153	ltpFR	0	4	1	JUGGLER	763	n/a	3	1	n/a	n/a	n/a	n/a	n/a
5304.98	n/a	REC_START	2652490	n/a	LTP153	ltpFR	0	5	n/a	n/a	n/a	n/a	n/a	n/a	n/a	n/a	n/a	n/a	n/a
5305.02	n/a	RECOG_TARGET	2652510	n/a	LTP153	ltpFR	0	5	1	GROCERIES	663	1	3	0	n/a	n/a	n/a	n/a	n/a
5305.934	n/a	RECOG_RESP	2652967	n/a	LTP153	ltpFR	0	5	1	GROCERIES	663	1	n/a	0	n/a	n/a	n/a	n/a	n/a
5307.92	n/a	RECOG_CONF	2653960	n/a	LTP153	ltpFR	0	5	1	GROCERIES	663	n/a	3	0	n/a	n/a	n/a	n/a	n/a
5309.368	n/a	RECOG_TARGET	2654684	n/a	LTP153	ltpFR	0	5	0	LIVER	833	1	4	0	n/a	n/a	n/a	n/a	n/a
5310.682	n/a	RECOG_RESP	2655341	n/a	LTP153	ltpFR	0	5	0	LIVER	833	1	n/a	0	n/a	n/a	n/a	n/a	n/a
5311.962	n/a	RECOG_CONF	2655981	n/a	LTP153	ltpFR	0	5	0	LIVER	833	n/a	4	0	n/a	n/a	n/a	n/a	n/a
5313.792	n/a	RECOG_TARGET	2656896	n/a	LTP153	ltpFR	0	5	1	PITCHFORK	1078	0	2	0	n/a	n/a	n/a	n/a	n/a
5314.936	n/a	RECOG_RESP	2657468	n/a	LTP153	ltpFR	0	5	1	PITCHFORK	1078	0	n/a	0	n/a	n/a	n/a	n/a	n/a
5316.348	n/a	RECOG_CONF	2658174	n/a	LTP153	ltpFR	0	5	1	PITCHFORK	1078	n/a	2	0	n/a	n/a	n/a	n/a	n/a
5318.024	n/a	RECOG_LURE	2659012	n/a	LTP153	ltpFR	0	5	n/a	VAULT	1550	1	2	n/a	n/a	n/a	n/a	n/a	n/a
5319.07	n/a	RECOG_RESP	2659535	n/a	LTP153	ltpFR	0	5	n/a	VAULT	1550	1	n/a	n/a	n/a	n/a	n/a	n/a	n/a
5320.776	n/a	RECOG_CONF	2660388	n/a	LTP153	ltpFR	0	5	n/a	VAULT	1550	n/a	2	n/a	n/a	n/a	n/a	n/a	n/a
5322.138	n/a	RECOG_TARGET	2661069	n/a	LTP153	ltpFR	0	5	1	GLACIER	638	1	5	0	n/a	n/a	n/a	n/a	n/a
5323.094	n/a	RECOG_RESP	2661547	n/a	LTP153	ltpFR	0	5	1	GLACIER	638	1	n/a	0	n/a	n/a	n/a	n/a	n/a
5324.654	n/a	RECOG_CONF	2662327	n/a	LTP153	ltpFR	0	5	1	GLACIER	638	n/a	5	0	n/a	n/a	n/a	n/a	n/a
5326.196	n/a	RECOG_LURE	2663098	n/a	LTP153	ltpFR	0	5	n/a	WAITER	1580	1	3	n/a	n/a	n/a	n/a	n/a	n/a
5327.416	n/a	RECOG_RESP	2663708	n/a	LTP153	ltpFR	0	5	n/a	WAITER	1580	1	n/a	n/a	n/a	n/a	n/a	n/a	n/a
5328.648	n/a	RECOG_CONF	2664324	n/a	LTP153	ltpFR	0	5	n/a	WAITER	1580	n/a	3	n/a	n/a	n/a	n/a	n/a	n/a
5330.236	n/a	RECOG_TARGET	2665118	n/a	LTP153	ltpFR	0	5	1	UNDERWEAR	1537	1	3	0	n/a	n/a	n/a	n/a	n/a
5331.614	n/a	RECOG_RESP	2665807	n/a	LTP153	ltpFR	0	5	1	UNDERWEAR	1537	1	n/a	0	n/a	n/a	n/a	n/a	n/a
5334.112	n/a	RECOG_CONF	2667056	n/a	LTP153	ltpFR	0	5	1	UNDERWEAR	1537	n/a	3	0	n/a	n/a	n/a	n/a	n/a
5335.55	n/a	RECOG_TARGET	2667775	n/a	LTP153	ltpFR	0	5	1	PIGMENT	1066	1	5	0	n/a	n/a	n/a	n/a	n/a
5336.506	n/a	RECOG_RESP	2668253	n/a	LTP153	ltpFR	0	5	1	PIGMENT	1066	1	n/a	0	n/a	n/a	n/a	n/a	n/a
5337.892	n/a	RECOG_CONF	2668946	n/a	LTP153	ltpFR	0	5	1	PIGMENT	1066	n/a	5	0	n/a	n/a	n/a	n/a	n/a
5339.308	n/a	RECOG_TARGET	2669654	n/a	LTP153	ltpFR	0	5	1	NITROGEN	954	1	5	0	n/a	n/a	n/a	n/a	n/a
5340.1	n/a	RECOG_RESP	2670050	n/a	LTP153	ltpFR	0	5	1	NITROGEN	954	1	n/a	0	n/a	n/a	n/a	n/a	n/a
5341.42	n/a	RECOG_CONF	2670710	n/a	LTP153	ltpFR	0	5	1	NITROGEN	954	n/a	5	0	n/a	n/a	n/a	n/a	n/a
5342.84	n/a	RECOG_LURE	2671420	n/a	LTP153	ltpFR	0	5	n/a	VICTIM	1562	1	4	n/a	n/a	n/a	n/a	n/a	n/a
5343.774	n/a	RECOG_RESP	2671887	n/a	LTP153	ltpFR	0	5	n/a	VICTIM	1562	1	n/a	n/a	n/a	n/a	n/a	n/a	n/a
5345.068	n/a	RECOG_CONF	2672534	n/a	LTP153	ltpFR	0	5	n/a	VICTIM	1562	n/a	4	n/a	n/a	n/a	n/a	n/a	n/a
5346.596	n/a	RECOG_TARGET	2673298	n/a	LTP153	ltpFR	0	5	0	PORPOISE	1109	1	5	1	n/a	n/a	n/a	n/a	n/a
5347.632	n/a	RECOG_RESP	2673816	n/a	LTP153	ltpFR	0	5	0	PORPOISE	1109	1	n/a	1	n/a	n/a	n/a	n/a	n/a
5348.728	n/a	RECOG_CONF	2674364	n/a	LTP153	ltpFR	0	5	0	PORPOISE	1109	n/a	5	1	n/a	n/a	n/a	n/a	n/a
5350.146	n/a	RECOG_TARGET	2675073	n/a	LTP153	ltpFR	0	5	0	VELVET	1555	1	5	0	n/a	n/a	n/a	n/a	n/a
5350.894	n/a	RECOG_RESP	2675447	n/a	LTP153	ltpFR	0	5	0	VELVET	1555	1	n/a	0	n/a	n/a	n/a	n/a	n/a
5352.026	n/a	RECOG_CONF	2676013	n/a	LTP153	ltpFR	0	5	0	VELVET	1555	n/a	5	0	n/a	n/a	n/a	n/a	n/a
5353.654	n/a	RECOG_TARGET	2676827	n/a	LTP153	ltpFR	0	5	0	ALLEY	15	0	3	1	n/a	n/a	n/a	n/a	n/a
5354.688	n/a	RECOG_RESP	2677344	n/a	LTP153	ltpFR	0	5	0	ALLEY	15	0	n/a	1	n/a	n/a	n/a	n/a	n/a
5355.882	n/a	RECOG_CONF	2677941	n/a	LTP153	ltpFR	0	5	0	ALLEY	15	n/a	3	1	n/a	n/a	n/a	n/a	n/a
5357.354	n/a	RECOG_TARGET	2678677	n/a	LTP153	ltpFR	0	5	0	DETECTIVE	454	1	4	1	n/a	n/a	n/a	n/a	n/a
5358.166	n/a	RECOG_RESP	2679083	n/a	LTP153	ltpFR	0	5	0	DETECTIVE	454	1	n/a	1	n/a	n/a	n/a	n/a	n/a
5359.282	n/a	RECOG_CONF	2679641	n/a	LTP153	ltpFR	0	5	0	DETECTIVE	454	n/a	4	1	n/a	n/a	n/a	n/a	n/a
5360.794	n/a	RECOG_TARGET	2680397	n/a	LTP153	ltpFR	0	5	1	CEMETERY	269	1	2	0	n/a	n/a	n/a	n/a	n/a
5362.626	n/a	RECOG_RESP	2681313	n/a	LTP153	ltpFR	0	5	1	CEMETERY	269	1	n/a	0	n/a	n/a	n/a	n/a	n/a
5363.852	n/a	RECOG_CONF	2681926	n/a	LTP153	ltpFR	0	5	1	CEMETERY	269	n/a	2	0	n/a	n/a	n/a	n/a	n/a
5365.218	n/a	RECOG_LURE	2682609	n/a	LTP153	ltpFR	0	5	n/a	FENCE	560	1	2	n/a	n/a	n/a	n/a	n/a	n/a
5368.242	n/a	RECOG_RESP	2684121	n/a	LTP153	ltpFR	0	5	n/a	FENCE	560	1	n/a	n/a	n/a	n/a	n/a	n/a	n/a
5369.902	n/a	RECOG_CONF	2684951	n/a	LTP153	ltpFR	0	5	n/a	FENCE	560	n/a	2	n/a	n/a	n/a	n/a	n/a	n/a
5371.258	n/a	RECOG_TARGET	2685629	n/a	LTP153	ltpFR	0	5	-1	SHORE	1291	0	2	-1	n/a	n/a	n/a	n/a	n/a
5372.446	n/a	RECOG_RESP	2686223	n/a	LTP153	ltpFR	0	5	-1	SHORE	1291	0	n/a	-1	n/a	n/a	n/a	n/a	n/a
5374.012	n/a	RECOG_CONF	2687006	n/a	LTP153	ltpFR	0	5	-1	SHORE	1291	n/a	2	-1	n/a	n/a	n/a	n/a	n/a
5375.448	n/a	RECOG_TARGET	2687724	n/a	LTP153	ltpFR	0	5	0	SCOTCH	1251	1	4	1	n/a	n/a	n/a	n/a	n/a
5376.41	n/a	RECOG_RESP	2688205	n/a	LTP153	ltpFR	0	5	0	SCOTCH	1251	1	n/a	1	n/a	n/a	n/a	n/a	n/a
5377.724	n/a	RECOG_CONF	2688862	n/a	LTP153	ltpFR	0	5	0	SCOTCH	1251	n/a	4	1	n/a	n/a	n/a	n/a	n/a
5379.354	n/a	RECOG_TARGET	2689677	n/a	LTP153	ltpFR	0	5	1	SPRINKLE	1359	1	5	0	n/a	n/a	n/a	n/a	n/a
5380.208	n/a	RECOG_RESP	2690104	n/a	LTP153	ltpFR	0	5	1	SPRINKLE	1359	1	n/a	0	n/a	n/a	n/a	n/a	n/a
5381.35	n/a	RECOG_CONF	2690675	n/a	LTP153	ltpFR	0	5	1	SPRINKLE	1359	n/a	5	0	n/a	n/a	n/a	n/a	n/a
5382.854	n/a	RECOG_TARGET	2691427	n/a	LTP153	ltpFR	0	5	1	INN	739	1	5	0	n/a	n/a	n/a	n/a	n/a
5383.706	n/a	RECOG_RESP	2691853	n/a	LTP153	ltpFR	0	5	1	INN	739	1	n/a	0	n/a	n/a	n/a	n/a	n/a
5384.726	n/a	RECOG_CONF	2692363	n/a	LTP153	ltpFR	0	5	1	INN	739	n/a	5	0	n/a	n/a	n/a	n/a	n/a
5389.384	n/a	REC_START	2694692	n/a	LTP153	ltpFR	0	6	n/a	n/a	n/a	n/a	n/a	n/a	n/a	n/a	n/a	n/a	n/a
5389.418	n/a	RECOG_TARGET	2694709	n/a	LTP153	ltpFR	0	6	0	SERPENT	1270	1	5	0	n/a	n/a	n/a	n/a	n/a
5390.208	n/a	RECOG_RESP	2695104	n/a	LTP153	ltpFR	0	6	0	SERPENT	1270	1	n/a	0	n/a	n/a	n/a	n/a	n/a
5391.498	n/a	RECOG_CONF	2695749	n/a	LTP153	ltpFR	0	6	0	SERPENT	1270	n/a	5	0	n/a	n/a	n/a	n/a	n/a
5392.96	n/a	RECOG_TARGET	2696480	n/a	LTP153	ltpFR	0	6	0	LAKE	796	0	2	1	n/a	n/a	n/a	n/a	n/a
5394.026	n/a	RECOG_RESP	2697013	n/a	LTP153	ltpFR	0	6	0	LAKE	796	0	n/a	1	n/a	n/a	n/a	n/a	n/a
5395.402	n/a	RECOG_CONF	2697701	n/a	LTP153	ltpFR	0	6	0	LAKE	796	n/a	2	1	n/a	n/a	n/a	n/a	n/a
5396.842	n/a	RECOG_TARGET	2698421	n/a	LTP153	ltpFR	0	6	1	VIRUS	1572	1	5	0	n/a	n/a	n/a	n/a	n/a
5397.576	n/a	RECOG_RESP	2698788	n/a	LTP153	ltpFR	0	6	1	VIRUS	1572	1	n/a	0	n/a	n/a	n/a	n/a	n/a
5398.782	n/a	RECOG_CONF	2699391	n/a	LTP153	ltpFR	0	6	1	VIRUS	1572	n/a	5	0	n/a	n/a	n/a	n/a	n/a
5400.19	n/a	RECOG_TARGET	2700095	n/a	LTP153	ltpFR	0	6	0	DANDELION	438	1	5	0	n/a	n/a	n/a	n/a	n/a
5401.028	n/a	RECOG_RESP	2700514	n/a	LTP153	ltpFR	0	6	0	DANDELION	438	1	n/a	0	n/a	n/a	n/a	n/a	n/a
5402.17	n/a	RECOG_CONF	2701085	n/a	LTP153	ltpFR	0	6	0	DANDELION	438	n/a	5	0	n/a	n/a	n/a	n/a	n/a
5403.622	n/a	RECOG_TARGET	2701811	n/a	LTP153	ltpFR	0	6	-1	SPOUSE	1358	1	5	-1	n/a	n/a	n/a	n/a	n/a
5404.374	n/a	RECOG_RESP	2702187	n/a	LTP153	ltpFR	0	6	-1	SPOUSE	1358	1	n/a	-1	n/a	n/a	n/a	n/a	n/a
5405.602	n/a	RECOG_CONF	2702801	n/a	LTP153	ltpFR	0	6	-1	SPOUSE	1358	n/a	5	-1	n/a	n/a	n/a	n/a	n/a
5407.104	n/a	RECOG_LURE	2703552	n/a	LTP153	ltpFR	0	6	n/a	BOAT	144	0	2	n/a	n/a	n/a	n/a	n/a	n/a
5408.024	n/a	RECOG_RESP	2704012	n/a	LTP153	ltpFR	0	6	n/a	BOAT	144	0	n/a	n/a	n/a	n/a	n/a	n/a	n/a
5409.678	n/a	RECOG_CONF	2704839	n/a	LTP153	ltpFR	0	6	n/a	BOAT	144	n/a	2	n/a	n/a	n/a	n/a	n/a	n/a
5411.104	n/a	RECOG_TARGET	2705552	n/a	LTP153	ltpFR	0	6	-1	VACUUM	1543	1	5	-1	n/a	n/a	n/a	n/a	n/a
5411.852	n/a	RECOG_RESP	2705926	n/a	LTP153	ltpFR	0	6	-1	VACUUM	1543	1	n/a	-1	n/a	n/a	n/a	n/a	n/a
