mstime	trial_type	stim_file	subject	experiment	session	trial	item_name	item_num	list	answer	test_x	test_y	test_z
0	SESS_START	n/a	LTP373	ltpFR2	17	n/a	n/a	n/a	n/a	n/a	0	0	0
12376	START	n/a	LTP373	ltpFR2	17	n/a	n/a	n/a	-1	n/a	n/a	n/a	n/a
12390	PROB	n/a	LTP373	ltpFR2	17	n/a	n/a	n/a	-1	19	3	8	8
14464	PROB	n/a	LTP373	ltpFR2	17	n/a	n/a	n/a	-1	16	9	6	1
16336	PROB	n/a	LTP373	ltpFR2	17	n/a	n/a	n/a	-1	16	6	7	3
18109	PROB	n/a	LTP373	ltpFR2	17	n/a	n/a	n/a	-1	15	6	4	5
19781	PROB	n/a	LTP373	ltpFR2	17	n/a	n/a	n/a	-1	18	9	7	2
21336	PROB	n/a	LTP373	ltpFR2	17	n/a	n/a	n/a	-1	13	6	1	6
22876	STOP	n/a	LTP373	ltpFR2	17	n/a	n/a	n/a	-1	n/a	n/a	n/a	n/a
121427	DISTRACTOR	n/a	LTP373	ltpFR2	17	1	n/a	n/a	n/a	n/a	0	0	0
121427	START	n/a	LTP373	ltpFR2	17	n/a	n/a	n/a	1	n/a	n/a	n/a	n/a
121443	PROB	n/a	LTP373	ltpFR2	17	n/a	n/a	n/a	1	13	5	4	4
123634	PROB	n/a	LTP373	ltpFR2	17	n/a	n/a	n/a	1	19	6	6	7
125089	PROB	n/a	LTP373	ltpFR2	17	n/a	n/a	n/a	1	13	4	1	8
126292	PROB	n/a	LTP373	ltpFR2	17	n/a	n/a	n/a	1	14	1	4	9
129704	PROB	n/a	LTP373	ltpFR2	17	n/a	n/a	n/a	1	19	4	8	7
131309	PROB	n/a	LTP373	ltpFR2	17	n/a	n/a	n/a	1	22	5	8	9
134536	PROB	n/a	LTP373	ltpFR2	17	n/a	n/a	n/a	1	13	4	8	1
135957	PROB	n/a	LTP373	ltpFR2	17	n/a	n/a	n/a	1	12	8	3	1
137613	PROB	n/a	LTP373	ltpFR2	17	n/a	n/a	n/a	1	12	4	4	4
139652	PROB	n/a	LTP373	ltpFR2	17	n/a	n/a	n/a	1	7	5	1	1
140773	PROB	n/a	LTP373	ltpFR2	17	n/a	n/a	n/a	1	9	2	1	6
142010	PROB	n/a	LTP373	ltpFR2	17	n/a	n/a	n/a	1	5	2	1	2
144888	STOP	n/a	LTP373	ltpFR2	17	n/a	n/a	n/a	1	n/a	n/a	n/a	n/a
146508	WORD	wordpools/wasnorm_wordpool_576.txt	LTP373	ltpFR2	17	1	DENTIST	447	n/a	n/a	0	0	0
149033	WORD	wordpools/wasnorm_wordpool_576.txt	LTP373	ltpFR2	17	1	DRILL	497	n/a	n/a	0	0	0
151792	WORD	wordpools/wasnorm_wordpool_576.txt	LTP373	ltpFR2	17	1	TEMPLE	1448	n/a	n/a	0	0	0
154383	WORD	wordpools/wasnorm_wordpool_576.txt	LTP373	ltpFR2	17	1	SCALLOP	1242	n/a	n/a	0	0	0
157109	WORD	wordpools/wasnorm_wordpool_576.txt	LTP373	ltpFR2	17	1	SUPPER	1411	n/a	n/a	0	0	0
159634	WORD	wordpools/wasnorm_wordpool_576.txt	LTP373	ltpFR2	17	1	CRAB	397	n/a	n/a	0	0	0
162208	WORD	wordpools/wasnorm_wordpool_576.txt	LTP373	ltpFR2	17	1	MISSILE	900	n/a	n/a	0	0	0
164684	WORD	wordpools/wasnorm_wordpool_576.txt	LTP373	ltpFR2	17	1	CHURCH	307	n/a	n/a	0	0	0
167309	WORD	wordpools/wasnorm_wordpool_576.txt	LTP373	ltpFR2	17	1	SALT	1229	n/a	n/a	0	0	0
169767	WORD	wordpools/wasnorm_wordpool_576.txt	LTP373	ltpFR2	17	1	PEPPER	1047	n/a	n/a	0	0	0
172526	WORD	wordpools/wasnorm_wordpool_576.txt	LTP373	ltpFR2	17	1	COMET	353	n/a	n/a	0	0	0
175183	WORD	wordpools/wasnorm_wordpool_576.txt	LTP373	ltpFR2	17	1	GARBAGE	622	n/a	n/a	0	0	0
177943	WORD	wordpools/wasnorm_wordpool_576.txt	LTP373	ltpFR2	17	1	YARN	1631	n/a	n/a	0	0	0
180384	WORD	wordpools/wasnorm_wordpool_576.txt	LTP373	ltpFR2	17	1	KETCHUP	771	n/a	n/a	0	0	0
183143	WORD	wordpools/wasnorm_wordpool_576.txt	LTP373	ltpFR2	17	1	ACTRESS	6	n/a	n/a	0	0	0
185936	WORD	wordpools/wasnorm_wordpool_576.txt	LTP373	ltpFR2	17	1	PERMIT	1051	n/a	n/a	0	0	0
188410	WORD	wordpools/wasnorm_wordpool_576.txt	LTP373	ltpFR2	17	1	CRUTCH	417	n/a	n/a	0	0	0
191136	WORD	wordpools/wasnorm_wordpool_576.txt	LTP373	ltpFR2	17	1	SHARK	1275	n/a	n/a	0	0	0
193928	WORD	wordpools/wasnorm_wordpool_576.txt	LTP373	ltpFR2	17	1	MARKET	871	n/a	n/a	0	0	0
196604	WORD	wordpools/wasnorm_wordpool_576.txt	LTP373	ltpFR2	17	1	POLICE	1098	n/a	n/a	0	0	0
199128	WORD	wordpools/wasnorm_wordpool_576.txt	LTP373	ltpFR2	17	1	SKIRT	1319	n/a	n/a	0	0	0
201653	WORD	wordpools/wasnorm_wordpool_576.txt	LTP373	ltpFR2	17	1	OUTFIT	988	n/a	n/a	0	0	0
204379	WORD	wordpools/wasnorm_wordpool_576.txt	LTP373	ltpFR2	17	1	GANGSTER	620	n/a	n/a	0	0	0
207170	WORD	wordpools/wasnorm_wordpool_576.txt	LTP373	ltpFR2	17	1	SEAGULL	1261	n/a	n/a	0	0	0
208777	START	n/a	LTP373	ltpFR2	17	n/a	n/a	n/a	2	n/a	n/a	n/a	n/a
209768	DISTRACTOR	n/a	LTP373	ltpFR2	17	1	n/a	n/a	n/a	n/a	0	0	0
209780	PROB	n/a	LTP373	ltpFR2	17	n/a	n/a	n/a	2	15	7	7	1
211200	PROB	n/a	LTP373	ltpFR2	17	n/a	n/a	n/a	2	18	4	6	8
212890	PROB	n/a	LTP373	ltpFR2	17	n/a	n/a	n/a	2	22	9	4	9
214629	PROB	n/a	LTP373	ltpFR2	17	n/a	n/a	n/a	2	19	4	7	8
217722	PROB	n/a	LTP373	ltpFR2	17	n/a	n/a	n/a	2	16	4	9	3
219862	PROB	n/a	LTP373	ltpFR2	17	n/a	n/a	n/a	2	17	8	5	4
222202	PROB	n/a	LTP373	ltpFR2	17	n/a	n/a	n/a	2	8	6	1	1
223289	PROB	n/a	LTP373	ltpFR2	17	n/a	n/a	n/a	2	18	5	7	6
224661	PROB	n/a	LTP373	ltpFR2	17	n/a	n/a	n/a	2	15	5	4	6
225882	PROB	n/a	LTP373	ltpFR2	17	n/a	n/a	n/a	2	16	6	9	1
227002	PROB	n/a	LTP373	ltpFR2	17	n/a	n/a	n/a	2	16	6	8	2
228106	PROB	n/a	LTP373	ltpFR2	17	n/a	n/a	n/a	2	12	8	3	1
229845	PROB	n/a	LTP373	ltpFR2	17	n/a	n/a	n/a	2	13	9	1	3
230948	PROB	n/a	LTP373	ltpFR2	17	n/a	n/a	n/a	2	14	7	1	6
232707	STOP	n/a	LTP373	ltpFR2	17	n/a	n/a	n/a	2	n/a	n/a	n/a	n/a
234577	REC_START	n/a	LTP373	ltpFR2	17	1	n/a	n/a	n/a	n/a	0	0	0
235448	REC_WORD	wordpools/wasnorm_wordpool_576.txt	LTP373	ltpFR2	17	1	POLICE	1098	n/a	n/a	0	0	0
236761	REC_WORD	wordpools/wasnorm_wordpool_576.txt	LTP373	ltpFR2	17	1	GANGSTER	620	n/a	n/a	0	0	0
238164	REC_WORD	wordpools/wasnorm_wordpool_576.txt	LTP373	ltpFR2	17	1	ACTRESS	6	n/a	n/a	0	0	0
239351	REC_WORD	wordpools/wasnorm_wordpool_576.txt	LTP373	ltpFR2	17	1	OUTFIT	988	n/a	n/a	0	0	0
240389	REC_WORD	wordpools/wasnorm_wordpool_576.txt	LTP373	ltpFR2	17	1	SKIRT	1319	n/a	n/a	0	0	0
241840	REC_WORD	wordpools/wasnorm_wordpool_576.txt	LTP373	ltpFR2	17	1	COMET	353	n/a	n/a	0	0	0
243581	REC_WORD	wordpools/wasnorm_wordpool_576.txt	LTP373	ltpFR2	17	1	SUPPER	1411	n/a	n/a	0	0	0
244753	REC_WORD	wordpools/wasnorm_wordpool_576.txt	LTP373	ltpFR2	17	1	SHARK	1275	n/a	n/a	0	0	0
245853	REC_WORD	wordpools/wasnorm_wordpool_576.txt	LTP373	ltpFR2	17	1	SEAGULL	1261	n/a	n/a	0	0	0
246902	REC_WORD	wordpools/wasnorm_wordpool_576.txt	LTP373	ltpFR2	17	1	SALT	1229	n/a	n/a	0	0	0
248165	REC_WORD	wordpools/wasnorm_wordpool_576.txt	LTP373	ltpFR2	17	1	PEPPER	1047	n/a	n/a	0	0	0
249147	REC_WORD	wordpools/wasnorm_wordpool_576.txt	LTP373	ltpFR2	17	1	KETCHUP	771	n/a	n/a	0	0	0
250214	REC_WORD	wordpools/wasnorm_wordpool_576.txt	LTP373	ltpFR2	17	1	SCALLOP	1242	n/a	n/a	0	0	0
251480	REC_WORD	wordpools/wasnorm_wordpool_576.txt	LTP373	ltpFR2	17	1	CRAB	397	n/a	n/a	0	0	0
252655	REC_WORD	wordpools/wasnorm_wordpool_576.txt	LTP373	ltpFR2	17	1	TEMPLE	1448	n/a	n/a	0	0	0
253740	REC_WORD	wordpools/wasnorm_wordpool_576.txt	LTP373	ltpFR2	17	1	CHURCH	307	n/a	n/a	0	0	0
255633	REC_WORD	wordpools/wasnorm_wordpool_576.txt	LTP373	ltpFR2	17	1	DENTIST	447	n/a	n/a	0	0	0
256637	REC_WORD	wordpools/wasnorm_wordpool_576.txt	LTP373	ltpFR2	17	1	DRILL	497	n/a	n/a	0	0	0
296881	REC_WORD	wordpools/wasnorm_wordpool_576.txt	LTP373	ltpFR2	17	1	CRUTCH	417	n/a	n/a	0	0	0
325036	WORD	wordpools/wasnorm_wordpool_576.txt	LTP373	ltpFR2	17	2	RACKET	1155	n/a	n/a	0	0	0
327511	WORD	wordpools/wasnorm_wordpool_576.txt	LTP373	ltpFR2	17	2	GRILL	661	n/a	n/a	0	0	0
330269	WORD	wordpools/wasnorm_wordpool_576.txt	LTP373	ltpFR2	17	2	STOMACH	1384	n/a	n/a	0	0	0
333079	WORD	wordpools/wasnorm_wordpool_576.txt	LTP373	ltpFR2	17	2	PLAZA	1088	n/a	n/a	0	0	0
335570	WORD	wordpools/wasnorm_wordpool_576.txt	LTP373	ltpFR2	17	2	MARINE	869	n/a	n/a	0	0	0
338062	WORD	wordpools/wasnorm_wordpool_576.txt	LTP373	ltpFR2	17	2	NOMAD	955	n/a	n/a	0	0	0
340687	WORD	wordpools/wasnorm_wordpool_576.txt	LTP373	ltpFR2	17	2	PIMPLE	1071	n/a	n/a	0	0	0
343278	WORD	wordpools/wasnorm_wordpool_576.txt	LTP373	ltpFR2	17	2	THIEF	1456	n/a	n/a	0	0	0
345921	WORD	wordpools/wasnorm_wordpool_576.txt	LTP373	ltpFR2	17	2	CHAUFFEUR	283	n/a	n/a	0	0	0
348596	WORD	wordpools/wasnorm_wordpool_576.txt	LTP373	ltpFR2	17	2	PACKAGE	997	n/a	n/a	0	0	0
351388	WORD	wordpools/wasnorm_wordpool_576.txt	LTP373	ltpFR2	17	2	SIDEWALK	1303	n/a	n/a	0	0	0
353863	WORD	wordpools/wasnorm_wordpool_576.txt	LTP373	ltpFR2	17	2	MOTEL	919	n/a	n/a	0	0	0
356354	WORD	wordpools/wasnorm_wordpool_576.txt	LTP373	ltpFR2	17	2	COUNTRY	388	n/a	n/a	0	0	0
358796	WORD	wordpools/wasnorm_wordpool_576.txt	LTP373	ltpFR2	17	2	GLOBE	641	n/a	n/a	0	0	0
361505	WORD	wordpools/wasnorm_wordpool_576.txt	LTP373	ltpFR2	17	2	FRAME	600	n/a	n/a	0	0	0
364046	WORD	wordpools/wasnorm_wordpool_576.txt	LTP373	ltpFR2	17	2	PORTRAIT	1111	n/a	n/a	0	0	0
366772	WORD	wordpools/wasnorm_wordpool_576.txt	LTP373	ltpFR2	17	2	CABBAGE	210	n/a	n/a	0	0	0
369245	WORD	wordpools/wasnorm_wordpool_576.txt	LTP373	ltpFR2	17	2	PARSLEY	1016	n/a	n/a	0	0	0
372005	WORD	wordpools/wasnorm_wordpool_576.txt	LTP373	ltpFR2	17	2	PUDDLE	1140	n/a	n/a	0	0	0
374781	WORD	wordpools/wasnorm_wordpool_576.txt	LTP373	ltpFR2	17	2	CHAMPAGNE	278	n/a	n/a	0	0	0
377456	WORD	wordpools/wasnorm_wordpool_576.txt	LTP373	ltpFR2	17	2	ZIPPER	1636	n/a	n/a	0	0	0
380248	WORD	wordpools/wasnorm_wordpool_576.txt	LTP373	ltpFR2	17	2	SHOULDER	1294	n/a	n/a	0	0	0
382740	WORD	wordpools/wasnorm_wordpool_576.txt	LTP373	ltpFR2	17	2	HIGHWAY	707	n/a	n/a	0	0	0
385482	WORD	wordpools/wasnorm_wordpool_576.txt	LTP373	ltpFR2	17	2	BARLEY	88	n/a	n/a	0	0	0
387088	START	n/a	LTP373	ltpFR2	17	n/a	n/a	n/a	3	n/a	n/a	n/a	n/a
388281	DISTRACTOR	n/a	LTP373	ltpFR2	17	2	n/a	n/a	n/a	n/a	0	0	0
388290	PROB	n/a	LTP373	ltpFR2	17	n/a	n/a	n/a	3	17	9	3	5
390064	PROB	n/a	LTP373	ltpFR2	17	n/a	n/a	n/a	3	13	5	7	1
391836	PROB	n/a	LTP373	ltpFR2	17	n/a	n/a	n/a	3	21	7	8	6
393675	PROB	n/a	LTP373	ltpFR2	17	n/a	n/a	n/a	3	13	1	7	5
394829	PROB	n/a	LTP373	ltpFR2	17	n/a	n/a	n/a	3	19	2	9	8
396216	PROB	n/a	LTP373	ltpFR2	17	n/a	n/a	n/a	3	18	8	2	8
397304	PROB	n/a	LTP373	ltpFR2	17	n/a	n/a	n/a	3	19	7	4	8
399093	PROB	n/a	LTP373	ltpFR2	17	n/a	n/a	n/a	3	25	9	9	7
401083	PROB	n/a	LTP373	ltpFR2	17	n/a	n/a	n/a	3	19	9	9	1
402487	PROB	n/a	LTP373	ltpFR2	17	n/a	n/a	n/a	3	9	3	1	5
404544	PROB	n/a	LTP373	ltpFR2	17	n/a	n/a	n/a	3	6	1	4	1
405765	PROB	n/a	LTP373	ltpFR2	17	n/a	n/a	n/a	3	16	6	1	9
407353	PROB	n/a	LTP373	ltpFR2	17	n/a	n/a	n/a	3	8	2	3	3
409720	STOP	n/a	LTP373	ltpFR2	17	n/a	n/a	n/a	3	n/a	n/a	n/a	n/a
412972	REC_START	n/a	LTP373	ltpFR2	17	2	n/a	n/a	n/a	n/a	0	0	0
415204	REC_WORD	wordpools/wasnorm_wordpool_576.txt	LTP373	ltpFR2	17	2	CHAUFFEUR	283	n/a	n/a	0	0	0
416629	REC_WORD	wordpools/wasnorm_wordpool_576.txt	LTP373	ltpFR2	17	2	MOTEL	919	n/a	n/a	0	0	0
418280	REC_WORD	wordpools/wasnorm_wordpool_576.txt	LTP373	ltpFR2	17	2	PACKAGE	997	n/a	n/a	0	0	0
419223	REC_WORD	wordpools/wasnorm_wordpool_576.txt	LTP373	ltpFR2	17	2	FRAME	600	n/a	n/a	0	0	0
420731	REC_WORD	wordpools/wasnorm_wordpool_576.txt	LTP373	ltpFR2	17	2	PORTRAIT	1111	n/a	n/a	0	0	0
423206	REC_WORD	wordpools/wasnorm_wordpool_576.txt	LTP373	ltpFR2	17	2	CHAMPAGNE	278	n/a	n/a	0	0	0
424923	REC_WORD	wordpools/wasnorm_wordpool_576.txt	LTP373	ltpFR2	17	2	BARLEY	88	n/a	n/a	0	0	0
426184	REC_WORD	wordpools/wasnorm_wordpool_576.txt	LTP373	ltpFR2	17	2	PARSLEY	1016	n/a	n/a	0	0	0
430119	REC_WORD	wordpools/wasnorm_wordpool_576.txt	LTP373	ltpFR2	17	2	NOMAD	955	n/a	n/a	0	0	0
431258	REC_WORD	wordpools/wasnorm_wordpool_576.txt	LTP373	ltpFR2	17	2	GLOBE	641	n/a	n/a	0	0	0
432435	REC_WORD	wordpools/wasnorm_wordpool_576.txt	LTP373	ltpFR2	17	2	THIEF	1456	n/a	n/a	0	0	0
447538	REC_WORD	wordpools/wasnorm_wordpool_576.txt	LTP373	ltpFR2	17	2	SHOULDER	1294	n/a	n/a	0	0	0
503431	WORD	wordpools/wasnorm_wordpool_576.txt	LTP373	ltpFR2	17	3	BEAVER	109	n/a	n/a	0	0	0
505922	WORD	wordpools/wasnorm_wordpool_576.txt	LTP373	ltpFR2	17	3	DRINK	498	n/a	n/a	0	0	0
508581	WORD	wordpools/wasnorm_wordpool_576.txt	LTP373	ltpFR2	17	3	BRANDY	169	n/a	n/a	0	0	0
511072	WORD	wordpools/wasnorm_wordpool_576.txt	LTP373	ltpFR2	17	3	ITEM	746	n/a	n/a	0	0	0
513748	WORD	wordpools/wasnorm_wordpool_576.txt	LTP373	ltpFR2	17	3	LETTUCE	814	n/a	n/a	0	0	0
516255	WORD	wordpools/wasnorm_wordpool_576.txt	LTP373	ltpFR2	17	3	MILDEW	893	n/a	n/a	0	0	0
518948	WORD	wordpools/wasnorm_wordpool_576.txt	LTP373	ltpFR2	17	3	SISTER	1312	n/a	n/a	0	0	0
521489	WORD	wordpools/wasnorm_wordpool_576.txt	LTP373	ltpFR2	17	3	ARM	38	n/a	n/a	0	0	0
524231	WORD	wordpools/wasnorm_wordpool_576.txt	LTP373	ltpFR2	17	3	AIRPORT	13	n/a	n/a	0	0	0
526857	WORD	wordpools/wasnorm_wordpool_576.txt	LTP373	ltpFR2	17	3	FARMER	553	n/a	n/a	0	0	0
529365	WORD	wordpools/wasnorm_wordpool_576.txt	LTP373	ltpFR2	17	3	REPORT	1184	n/a	n/a	0	0	0
532090	WORD	wordpools/wasnorm_wordpool_576.txt	LTP373	ltpFR2	17	3	TRIBE	1505	n/a	n/a	0	0	0
534766	WORD	wordpools/wasnorm_wordpool_576.txt	LTP373	ltpFR2	17	3	CITRUS	313	n/a	n/a	0	0	0
537290	WORD	wordpools/wasnorm_wordpool_576.txt	LTP373	ltpFR2	17	3	SEAFOOD	1260	n/a	n/a	0	0	0
539849	WORD	wordpools/wasnorm_wordpool_576.txt	LTP373	ltpFR2	17	3	FRANCE	601	n/a	n/a	0	0	0
542340	WORD	wordpools/wasnorm_wordpool_576.txt	LTP373	ltpFR2	17	3	PLASTER	1085	n/a	n/a	0	0	0
545149	WORD	wordpools/wasnorm_wordpool_576.txt	LTP373	ltpFR2	17	3	CHIPMUNK	304	n/a	n/a	0	0	0
547725	WORD	wordpools/wasnorm_wordpool_576.txt	LTP373	ltpFR2	17	3	SCARECROW	1245	n/a	n/a	0	0	0
550517	WORD	wordpools/wasnorm_wordpool_576.txt	LTP373	ltpFR2	17	3	COURSE	390	n/a	n/a	0	0	0
553191	WORD	wordpools/wasnorm_wordpool_576.txt	LTP373	ltpFR2	17	3	POSTAGE	1113	n/a	n/a	0	0	0
555817	WORD	wordpools/wasnorm_wordpool_576.txt	LTP373	ltpFR2	17	3	ZEBRA	1635	n/a	n/a	0	0	0
558274	WORD	wordpools/wasnorm_wordpool_576.txt	LTP373	ltpFR2	17	3	FIREMAN	569	n/a	n/a	0	0	0
560733	WORD	wordpools/wasnorm_wordpool_576.txt	LTP373	ltpFR2	17	3	LEADER	807	n/a	n/a	0	0	0
563425	WORD	wordpools/wasnorm_wordpool_576.txt	LTP373	ltpFR2	17	3	HEART	697	n/a	n/a	0	0	0
565031	START	n/a	LTP373	ltpFR2	17	n/a	n/a	n/a	4	n/a	n/a	n/a	n/a
566211	DISTRACTOR	n/a	LTP373	ltpFR2	17	3	n/a	n/a	n/a	n/a	0	0	0
566217	PROB	n/a	LTP373	ltpFR2	17	n/a	n/a	n/a	4	12	2	9	1
567773	PROB	n/a	LTP373	ltpFR2	17	n/a	n/a	n/a	4	18	7	9	2
570013	PROB	n/a	LTP373	ltpFR2	17	n/a	n/a	n/a	4	14	6	5	3
572236	PROB	n/a	LTP373	ltpFR2	17	n/a	n/a	n/a	4	12	3	1	8
573809	PROB	n/a	LTP373	ltpFR2	17	n/a	n/a	n/a	4	18	3	9	6
577236	PROB	n/a	LTP373	ltpFR2	17	n/a	n/a	n/a	4	13	7	2	4
579394	PROB	n/a	LTP373	ltpFR2	17	n/a	n/a	n/a	4	14	8	4	2
581484	PROB	n/a	LTP373	ltpFR2	17	n/a	n/a	n/a	4	7	3	2	2
583072	PROB	n/a	LTP373	ltpFR2	17	n/a	n/a	n/a	4	16	9	5	2
584761	PROB	n/a	LTP373	ltpFR2	17	n/a	n/a	n/a	4	18	7	9	2
586248	PROB	n/a	LTP373	ltpFR2	17	n/a	n/a	n/a	4	23	8	9	6
588790	STOP	n/a	LTP373	ltpFR2	17	n/a	n/a	n/a	4	n/a	n/a	n/a	n/a
590898	REC_START	n/a	LTP373	ltpFR2	17	3	n/a	n/a	n/a	n/a	0	0	0
594407	REC_WORD	wordpools/wasnorm_wordpool_576.txt	LTP373	ltpFR2	17	3	BEAVER	109	n/a	n/a	0	0	0
595808	REC_WORD	wordpools/wasnorm_wordpool_576.txt	LTP373	ltpFR2	17	3	LETTUCE	814	n/a	n/a	0	0	0
597331	REC_WORD	wordpools/wasnorm_wordpool_576.txt	LTP373	ltpFR2	17	3	DRINK	498	n/a	n/a	0	0	0
598858	REC_WORD	wordpools/wasnorm_wordpool_576.txt	LTP373	ltpFR2	17	3	ITEM	746	n/a	n/a	0	0	0
600290	REC_WORD	wordpools/wasnorm_wordpool_576.txt	LTP373	ltpFR2	17	3	BRANDY	169	n/a	n/a	0	0	0
624594	REC_WORD_VV	wordpools/wasnorm_wordpool_576.txt	LTP373	ltpFR2	17	3	<>	-1	n/a	n/a	0	0	0
706572	DISTRACTOR	n/a	LTP373	ltpFR2	17	4	n/a	n/a	n/a	n/a	0	0	0
706573	START	n/a	LTP373	ltpFR2	17	n/a	n/a	n/a	5	n/a	n/a	n/a	n/a
706589	PROB	n/a	LTP373	ltpFR2	17	n/a	n/a	n/a	5	18	6	4	8
708243	PROB	n/a	LTP373	ltpFR2	17	n/a	n/a	n/a	5	16	7	3	6
709565	PROB	n/a	LTP373	ltpFR2	17	n/a	n/a	n/a	5	17	5	9	3
711589	PROB	n/a	LTP373	ltpFR2	17	n/a	n/a	n/a	5	18	8	2	8
712675	PROB	n/a	LTP373	ltpFR2	17	n/a	n/a	n/a	5	19	7	5	7
714933	PROB	n/a	LTP373	ltpFR2	17	n/a	n/a	n/a	5	13	5	6	2
716354	PROB	n/a	LTP373	ltpFR2	17	n/a	n/a	n/a	5	10	1	4	5
717608	PROB	n/a	LTP373	ltpFR2	17	n/a	n/a	n/a	5	15	7	5	3
719297	PROB	n/a	LTP373	ltpFR2	17	n/a	n/a	n/a	5	15	3	5	7
720384	PROB	n/a	LTP373	ltpFR2	17	n/a	n/a	n/a	5	18	7	2	9
721471	PROB	n/a	LTP373	ltpFR2	17	n/a	n/a	n/a	5	16	8	1	7
722909	PROB	n/a	LTP373	ltpFR2	17	n/a	n/a	n/a	5	18	1	8	9
723979	PROB	n/a	LTP373	ltpFR2	17	n/a	n/a	n/a	5	10	5	3	2
725333	PROB	n/a	LTP373	ltpFR2	17	n/a	n/a	n/a	5	10	1	5	4
726487	PROB	n/a	LTP373	ltpFR2	17	n/a	n/a	n/a	5	16	7	1	8
728159	PROB	n/a	LTP373	ltpFR2	17	n/a	n/a	n/a	5	17	8	6	3
730354	STOP	n/a	LTP373	ltpFR2	17	n/a	n/a	n/a	5	n/a	n/a	n/a	n/a
731537	WORD	wordpools/wasnorm_wordpool_576.txt	LTP373	ltpFR2	17	4	WHISKERS	1605	n/a	n/a	0	0	0
734145	WORD	wordpools/wasnorm_wordpool_576.txt	LTP373	ltpFR2	17	4	CYCLONE	431	n/a	n/a	0	0	0
736904	WORD	wordpools/wasnorm_wordpool_576.txt	LTP373	ltpFR2	17	4	FEMALE	559	n/a	n/a	0	0	0
739312	WORD	wordpools/wasnorm_wordpool_576.txt	LTP373	ltpFR2	17	4	VELVET	1555	n/a	n/a	0	0	0
741753	WORD	wordpools/wasnorm_wordpool_576.txt	LTP373	ltpFR2	17	4	TURNIP	1521	n/a	n/a	0	0	0
744445	WORD	wordpools/wasnorm_wordpool_576.txt	LTP373	ltpFR2	17	4	DANDRUFF	439	n/a	n/a	0	0	0
746970	WORD	wordpools/wasnorm_wordpool_576.txt	LTP373	ltpFR2	17	4	REBEL	1172	n/a	n/a	0	0	0
749545	WORD	wordpools/wasnorm_wordpool_576.txt	LTP373	ltpFR2	17	4	HORSE	719	n/a	n/a	0	0	0
752236	WORD	wordpools/wasnorm_wordpool_576.txt	LTP373	ltpFR2	17	4	DIVER	476	n/a	n/a	0	0	0
755013	WORD	wordpools/wasnorm_wordpool_576.txt	LTP373	ltpFR2	17	4	JURY	766	n/a	n/a	0	0	0
757772	WORD	wordpools/wasnorm_wordpool_576.txt	LTP373	ltpFR2	17	4	CHEST	295	n/a	n/a	0	0	0
760430	WORD	wordpools/wasnorm_wordpool_576.txt	LTP373	ltpFR2	17	4	SUNRISE	1407	n/a	n/a	0	0	0
763072	WORD	wordpools/wasnorm_wordpool_576.txt	LTP373	ltpFR2	17	4	GUITAR	670	n/a	n/a	0	0	0
765848	WORD	wordpools/wasnorm_wordpool_576.txt	LTP373	ltpFR2	17	4	DONKEY	484	n/a	n/a	0	0	0
768306	WORD	wordpools/wasnorm_wordpool_576.txt	LTP373	ltpFR2	17	4	DOUGHNUT	490	n/a	n/a	0	0	0
770780	WORD	wordpools/wasnorm_wordpool_576.txt	LTP373	ltpFR2	17	4	WAITRESS	1581	n/a	n/a	0	0	0
773254	WORD	wordpools/wasnorm_wordpool_576.txt	LTP373	ltpFR2	17	4	WAITER	1580	n/a	n/a	0	0	0
775696	WORD	wordpools/wasnorm_wordpool_576.txt	LTP373	ltpFR2	17	4	COD	340	n/a	n/a	0	0	0
778237	WORD	wordpools/wasnorm_wordpool_576.txt	LTP373	ltpFR2	17	4	HELMET	702	n/a	n/a	0	0	0
780980	WORD	wordpools/wasnorm_wordpool_576.txt	LTP373	ltpFR2	17	4	WARDROBE	1587	n/a	n/a	0	0	0
783639	WORD	wordpools/wasnorm_wordpool_576.txt	LTP373	ltpFR2	17	4	GREASE	660	n/a	n/a	0	0	0
786297	WORD	wordpools/wasnorm_wordpool_576.txt	LTP373	ltpFR2	17	4	MARSH	874	n/a	n/a	0	0	0
788856	WORD	wordpools/wasnorm_wordpool_576.txt	LTP373	ltpFR2	17	4	DAISY	435	n/a	n/a	0	0	0
791380	WORD	wordpools/wasnorm_wordpool_576.txt	LTP373	ltpFR2	17	4	FLOWER	584	n/a	n/a	0	0	0
792986	START	n/a	LTP373	ltpFR2	17	n/a	n/a	n/a	6	n/a	n/a	n/a	n/a
794074	DISTRACTOR	n/a	LTP373	ltpFR2	17	4	n/a	n/a	n/a	n/a	0	0	0
794089	PROB	n/a	LTP373	ltpFR2	17	n/a	n/a	n/a	6	15	6	2	7
796228	PROB	n/a	LTP373	ltpFR2	17	n/a	n/a	n/a	6	16	3	9	4
797835	PROB	n/a	LTP373	ltpFR2	17	n/a	n/a	n/a	6	22	7	7	8
799222	PROB	n/a	LTP373	ltpFR2	17	n/a	n/a	n/a	6	15	2	9	4
800727	PROB	n/a	LTP373	ltpFR2	17	n/a	n/a	n/a	6	10	3	5	2
802181	PROB	n/a	LTP373	ltpFR2	17	n/a	n/a	n/a	6	22	9	9	4
803553	PROB	n/a	LTP373	ltpFR2	17	n/a	n/a	n/a	6	17	3	6	8
805108	PROB	n/a	LTP373	ltpFR2	17	n/a	n/a	n/a	6	14	8	4	2
806530	PROB	n/a	LTP373	ltpFR2	17	n/a	n/a	n/a	6	13	1	4	8
807566	PROB	n/a	LTP373	ltpFR2	17	n/a	n/a	n/a	6	10	3	1	6
808770	PROB	n/a	LTP373	ltpFR2	17	n/a	n/a	n/a	6	15	7	2	6
809874	PROB	n/a	LTP373	ltpFR2	17	n/a	n/a	n/a	6	11	1	2	8
811277	PROB	n/a	LTP373	ltpFR2	17	n/a	n/a	n/a	6	7	3	1	3
812699	PROB	n/a	LTP373	ltpFR2	17	n/a	n/a	n/a	6	17	7	7	3
814790	PROB	n/a	LTP373	ltpFR2	17	n/a	n/a	n/a	6	13	6	6	1
815797	STOP	n/a	LTP373	ltpFR2	17	n/a	n/a	n/a	6	n/a	n/a	n/a	n/a
818887	REC_START	n/a	LTP373	ltpFR2	17	4	n/a	n/a	n/a	n/a	0	0	0
824826	REC_WORD	wordpools/wasnorm_wordpool_576.txt	LTP373	ltpFR2	17	4	DAISY	435	n/a	n/a	0	0	0
826269	REC_WORD	wordpools/wasnorm_wordpool_576.txt	LTP373	ltpFR2	17	4	FLOWER	584	n/a	n/a	0	0	0
829551	REC_WORD	wordpools/wasnorm_wordpool_576.txt	LTP373	ltpFR2	17	4	GREASE	660	n/a	n/a	0	0	0
831095	REC_WORD	wordpools/wasnorm_wordpool_576.txt	LTP373	ltpFR2	17	4	CYCLONE	431	n/a	n/a	0	0	0
834615	REC_WORD	wordpools/wasnorm_wordpool_576.txt	LTP373	ltpFR2	17	4	MARSH	874	n/a	n/a	0	0	0
862825	REC_WORD	wordpools/wasnorm_wordpool_576.txt	LTP373	ltpFR2	17	4	FEMALE	559	n/a	n/a	0	0	0
864133	REC_WORD	wordpools/wasnorm_wordpool_576.txt	LTP373	ltpFR2	17	4	CHEST	295	n/a	n/a	0	0	0
865496	REC_WORD	wordpools/wasnorm_wordpool_576.txt	LTP373	ltpFR2	17	4	WHISKERS	1605	n/a	n/a	0	0	0
866569	REC_WORD	wordpools/wasnorm_wordpool_576.txt	LTP373	ltpFR2	17	4	DANDRUFF	439	n/a	n/a	0	0	0
869685	REC_WORD	wordpools/wasnorm_wordpool_576.txt	LTP373	ltpFR2	17	4	VELVET	1555	n/a	n/a	0	0	0
873112	REC_WORD	wordpools/wasnorm_wordpool_576.txt	LTP373	ltpFR2	17	4	WARDROBE	1587	n/a	n/a	0	0	0
877021	REC_WORD	wordpools/wasnorm_wordpool_576.txt	LTP373	ltpFR2	17	4	DONKEY	484	n/a	n/a	0	0	0
880659	REC_WORD	wordpools/wasnorm_wordpool_576.txt	LTP373	ltpFR2	17	4	HORSE	719	n/a	n/a	0	0	0
909329	DISTRACTOR	n/a	LTP373	ltpFR2	17	5	n/a	n/a	n/a	n/a	0	0	0
909329	START	n/a	LTP373	ltpFR2	17	n/a	n/a	n/a	7	n/a	n/a	n/a	n/a
909346	PROB	n/a	LTP373	ltpFR2	17	n/a	n/a	n/a	7	15	6	4	5
910801	PROB	n/a	LTP373	ltpFR2	17	n/a	n/a	n/a	7	13	8	2	3
911754	PROB	n/a	LTP373	ltpFR2	17	n/a	n/a	n/a	7	17	3	5	7
913994	PROB	n/a	LTP373	ltpFR2	17	n/a	n/a	n/a	7	15	1	9	5
915064	PROB	n/a	LTP373	ltpFR2	17	n/a	n/a	n/a	7	10	4	4	2
916302	PROB	n/a	LTP373	ltpFR2	17	n/a	n/a	n/a	7	19	6	6	7
917472	PROB	n/a	LTP373	ltpFR2	17	n/a	n/a	n/a	7	8	3	1	4
919613	PROB	n/a	LTP373	ltpFR2	17	n/a	n/a	n/a	7	19	6	8	5
921101	PROB	n/a	LTP373	ltpFR2	17	n/a	n/a	n/a	7	16	8	6	2
923391	PROB	n/a	LTP373	ltpFR2	17	n/a	n/a	n/a	7	3	1	1	1
924361	PROB	n/a	LTP373	ltpFR2	17	n/a	n/a	n/a	7	21	7	8	6
928090	PROB	n/a	LTP373	ltpFR2	17	n/a	n/a	n/a	7	17	5	4	8
929394	PROB	n/a	LTP373	ltpFR2	17	n/a	n/a	n/a	7	13	1	3	9
930598	PROB	n/a	LTP373	ltpFR2	17	n/a	n/a	n/a	7	17	2	6	9
932457	STOP	n/a	LTP373	ltpFR2	17	n/a	n/a	n/a	7	n/a	n/a	n/a	n/a
934259	WORD	wordpools/wasnorm_wordpool_576.txt	LTP373	ltpFR2	17	5	BRANCH	168	n/a	n/a	0	0	0
936852	WORD	wordpools/wasnorm_wordpool_576.txt	LTP373	ltpFR2	17	5	CANYON	235	n/a	n/a	0	0	0
939577	WORD	wordpools/wasnorm_wordpool_576.txt	LTP373	ltpFR2	17	5	SPHINX	1349	n/a	n/a	0	0	0
942386	WORD	wordpools/wasnorm_wordpool_576.txt	LTP373	ltpFR2	17	5	BEEF	113	n/a	n/a	0	0	0
944894	WORD	wordpools/wasnorm_wordpool_576.txt	LTP373	ltpFR2	17	5	SAUSAGE	1238	n/a	n/a	0	0	0
947336	WORD	wordpools/wasnorm_wordpool_576.txt	LTP373	ltpFR2	17	5	COUCH	386	n/a	n/a	0	0	0
950128	WORD	wordpools/wasnorm_wordpool_576.txt	LTP373	ltpFR2	17	5	FINGER	567	n/a	n/a	0	0	0
952787	WORD	wordpools/wasnorm_wordpool_576.txt	LTP373	ltpFR2	17	5	FRIAR	605	n/a	n/a	0	0	0
955395	WORD	wordpools/wasnorm_wordpool_576.txt	LTP373	ltpFR2	17	5	BALLOON	75	n/a	n/a	0	0	0
957836	WORD	wordpools/wasnorm_wordpool_576.txt	LTP373	ltpFR2	17	5	BUBBLE	183	n/a	n/a	0	0	0
960277	WORD	wordpools/wasnorm_wordpool_576.txt	LTP373	ltpFR2	17	5	DRAGON	492	n/a	n/a	0	0	0
962853	WORD	wordpools/wasnorm_wordpool_576.txt	LTP373	ltpFR2	17	5	POISON	1096	n/a	n/a	0	0	0
965411	WORD	wordpools/wasnorm_wordpool_576.txt	LTP373	ltpFR2	17	5	APRON	35	n/a	n/a	0	0	0
968120	WORD	wordpools/wasnorm_wordpool_576.txt	LTP373	ltpFR2	17	5	WRIST	1626	n/a	n/a	0	0	0
970711	WORD	wordpools/wasnorm_wordpool_576.txt	LTP373	ltpFR2	17	5	ELBOW	520	n/a	n/a	0	0	0
973269	WORD	wordpools/wasnorm_wordpool_576.txt	LTP373	ltpFR2	17	5	DUSTPAN	509	n/a	n/a	0	0	0
975828	WORD	wordpools/wasnorm_wordpool_576.txt	LTP373	ltpFR2	17	5	QUARTER	1148	n/a	n/a	0	0	0
978268	WORD	wordpools/wasnorm_wordpool_576.txt	LTP373	ltpFR2	17	5	DASHBOARD	441	n/a	n/a	0	0	0
980878	WORD	wordpools/wasnorm_wordpool_576.txt	LTP373	ltpFR2	17	5	CANDY	230	n/a	n/a	0	0	0
983670	WORD	wordpools/wasnorm_wordpool_576.txt	LTP373	ltpFR2	17	5	DIME	466	n/a	n/a	0	0	0
986479	WORD	wordpools/wasnorm_wordpool_576.txt	LTP373	ltpFR2	17	5	DINER	467	n/a	n/a	0	0	0
989254	WORD	wordpools/wasnorm_wordpool_576.txt	LTP373	ltpFR2	17	5	SHELF	1280	n/a	n/a	0	0	0
991913	WORD	wordpools/wasnorm_wordpool_576.txt	LTP373	ltpFR2	17	5	LIZARD	834	n/a	n/a	0	0	0
994438	WORD	wordpools/wasnorm_wordpool_576.txt	LTP373	ltpFR2	17	5	PENGUIN	1044	n/a	n/a	0	0	0
996044	START	n/a	LTP373	ltpFR2	17	n/a	n/a	n/a	8	n/a	n/a	n/a	n/a
997121	DISTRACTOR	n/a	LTP373	ltpFR2	17	5	n/a	n/a	n/a	n/a	0	0	0
997130	PROB	n/a	LTP373	ltpFR2	17	n/a	n/a	n/a	8	14	7	1	6
998669	PROB	n/a	LTP373	ltpFR2	17	n/a	n/a	n/a	8	17	4	8	5
1000474	PROB	n/a	LTP373	ltpFR2	17	n/a	n/a	n/a	8	12	3	6	3
1002130	PROB	n/a	LTP373	ltpFR2	17	n/a	n/a	n/a	8	14	2	3	9
1003467	PROB	n/a	LTP373	ltpFR2	17	n/a	n/a	n/a	8	20	7	7	6
1004788	PROB	n/a	LTP373	ltpFR2	17	n/a	n/a	n/a	8	20	9	6	5
1007497	PROB	n/a	LTP373	ltpFR2	17	n/a	n/a	n/a	8	17	8	5	4
1009086	PROB	n/a	LTP373	ltpFR2	17	n/a	n/a	n/a	8	10	5	4	1
1010473	PROB	n/a	LTP373	ltpFR2	17	n/a	n/a	n/a	8	19	7	8	4
1012447	PROB	n/a	LTP373	ltpFR2	17	n/a	n/a	n/a	8	11	5	1	5
1013567	PROB	n/a	LTP373	ltpFR2	17	n/a	n/a	n/a	8	17	3	8	6
1014938	PROB	n/a	LTP373	ltpFR2	17	n/a	n/a	n/a	8	15	8	3	6
1017363	PROB	n/a	LTP373	ltpFR2	17	n/a	n/a	n/a	8	25	8	9	8
1019155	STOP	n/a	LTP373	ltpFR2	17	n/a	n/a	n/a	8	n/a	n/a	n/a	n/a
1021911	REC_START	n/a	LTP373	ltpFR2	17	5	n/a	n/a	n/a	n/a	0	0	0
1024057	REC_WORD	wordpools/wasnorm_wordpool_576.txt	LTP373	ltpFR2	17	5	PENGUIN	1044	n/a	n/a	0	0	0
1027270	REC_WORD	wordpools/wasnorm_wordpool_576.txt	LTP373	ltpFR2	17	5	FINGER	567	n/a	n/a	0	0	0
1028580	REC_WORD	wordpools/wasnorm_wordpool_576.txt	LTP373	ltpFR2	17	5	WRIST	1626	n/a	n/a	0	0	0
1029768	REC_WORD	wordpools/wasnorm_wordpool_576.txt	LTP373	ltpFR2	17	5	ELBOW	520	n/a	n/a	0	0	0
1031439	REC_WORD	wordpools/wasnorm_wordpool_576.txt	LTP373	ltpFR2	17	5	ELBOW	520	n/a	n/a	0	0	0
1032390	REC_WORD	wordpools/wasnorm_wordpool_576.txt	LTP373	ltpFR2	17	5	QUARTER	1148	n/a	n/a	0	0	0
1033565	REC_WORD	wordpools/wasnorm_wordpool_576.txt	LTP373	ltpFR2	17	5	DIME	466	n/a	n/a	0	0	0
1034748	REC_WORD	wordpools/wasnorm_wordpool_576.txt	LTP373	ltpFR2	17	5	DINER	467	n/a	n/a	0	0	0
1044142	REC_WORD	wordpools/wasnorm_wordpool_576.txt	LTP373	ltpFR2	17	5	DUSTPAN	509	n/a	n/a	0	0	0
1112370	WORD	wordpools/wasnorm_wordpool_576.txt	LTP373	ltpFR2	17	6	FRECKLE	602	n/a	n/a	0	0	0
1115162	WORD	wordpools/wasnorm_wordpool_576.txt	LTP373	ltpFR2	17	6	TORTOISE	1486	n/a	n/a	0	0	0
1117587	WORD	wordpools/wasnorm_wordpool_576.txt	LTP373	ltpFR2	17	6	SMOG	1330	n/a	n/a	0	0	0
1120095	WORD	wordpools/wasnorm_wordpool_576.txt	LTP373	ltpFR2	17	6	CLOUD	328	n/a	n/a	0	0	0
1122654	WORD	wordpools/wasnorm_wordpool_576.txt	LTP373	ltpFR2	17	6	ROD	1203	n/a	n/a	0	0	0
1125312	WORD	wordpools/wasnorm_wordpool_576.txt	LTP373	ltpFR2	17	6	CLAM	315	n/a	n/a	0	0	0
1127971	WORD	wordpools/wasnorm_wordpool_576.txt	LTP373	ltpFR2	17	6	ATLAS	53	n/a	n/a	0	0	0
1130613	WORD	wordpools/wasnorm_wordpool_576.txt	LTP373	ltpFR2	17	6	SHELTER	1282	n/a	n/a	0	0	0
1133405	WORD	wordpools/wasnorm_wordpool_576.txt	LTP373	ltpFR2	17	6	YOLK	1633	n/a	n/a	0	0	0
1135930	WORD	wordpools/wasnorm_wordpool_576.txt	LTP373	ltpFR2	17	6	PROTON	1132	n/a	n/a	0	0	0
1138505	WORD	wordpools/wasnorm_wordpool_576.txt	LTP373	ltpFR2	17	6	LIGHTNING	820	n/a	n/a	0	0	0
1140946	WORD	wordpools/wasnorm_wordpool_576.txt	LTP373	ltpFR2	17	6	TURTLE	1522	n/a	n/a	0	0	0
1143705	WORD	wordpools/wasnorm_wordpool_576.txt	LTP373	ltpFR2	17	6	GALLON	618	n/a	n/a	0	0	0
1146347	WORD	wordpools/wasnorm_wordpool_576.txt	LTP373	ltpFR2	17	6	LODGE	839	n/a	n/a	0	0	0
1148955	WORD	wordpools/wasnorm_wordpool_576.txt	LTP373	ltpFR2	17	6	CUPBOARD	425	n/a	n/a	0	0	0
1151748	WORD	wordpools/wasnorm_wordpool_576.txt	LTP373	ltpFR2	17	6	SKETCH	1315	n/a	n/a	0	0	0
1154373	WORD	wordpools/wasnorm_wordpool_576.txt	LTP373	ltpFR2	17	6	FOOTBALL	591	n/a	n/a	0	0	0
1157132	WORD	wordpools/wasnorm_wordpool_576.txt	LTP373	ltpFR2	17	6	ANKLE	24	n/a	n/a	0	0	0
1159623	WORD	wordpools/wasnorm_wordpool_576.txt	LTP373	ltpFR2	17	6	FOOT	590	n/a	n/a	0	0	0
1162148	WORD	wordpools/wasnorm_wordpool_576.txt	LTP373	ltpFR2	17	6	UMPIRE	1535	n/a	n/a	0	0	0
1164623	WORD	wordpools/wasnorm_wordpool_576.txt	LTP373	ltpFR2	17	6	FLAG	573	n/a	n/a	0	0	0
1167098	WORD	wordpools/wasnorm_wordpool_576.txt	LTP373	ltpFR2	17	6	CEILING	265	n/a	n/a	0	0	0
1169806	WORD	wordpools/wasnorm_wordpool_576.txt	LTP373	ltpFR2	17	6	BATHTUB	100	n/a	n/a	0	0	0
1172348	WORD	wordpools/wasnorm_wordpool_576.txt	LTP373	ltpFR2	17	6	BARREL	91	n/a	n/a	0	0	0
1173953	START	n/a	LTP373	ltpFR2	17	n/a	n/a	n/a	9	n/a	n/a	n/a	n/a
1175084	DISTRACTOR	n/a	LTP373	ltpFR2	17	6	n/a	n/a	n/a	n/a	0	0	0
1175090	PROB	n/a	LTP373	ltpFR2	17	n/a	n/a	n/a	9	19	7	7	5
1176628	PROB	n/a	LTP373	ltpFR2	17	n/a	n/a	n/a	9	23	5	9	9
1178986	PROB	n/a	LTP373	ltpFR2	17	n/a	n/a	n/a	9	7	1	4	2
1180289	PROB	n/a	LTP373	ltpFR2	17	n/a	n/a	n/a	9	12	4	7	1
1182229	PROB	n/a	LTP373	ltpFR2	17	n/a	n/a	n/a	9	6	1	2	3
1183434	PROB	n/a	LTP373	ltpFR2	17	n/a	n/a	n/a	9	11	7	1	3
1185123	PROB	n/a	LTP373	ltpFR2	17	n/a	n/a	n/a	9	13	2	5	6
1187848	PROB	n/a	LTP373	ltpFR2	17	n/a	n/a	n/a	9	15	5	4	6
1189554	PROB	n/a	LTP373	ltpFR2	17	n/a	n/a	n/a	9	19	8	5	7
1191460	PROB	n/a	LTP373	ltpFR2	17	n/a	n/a	n/a	9	15	9	3	3
1192848	PROB	n/a	LTP373	ltpFR2	17	n/a	n/a	n/a	9	12	5	2	5
1194102	PROB	n/a	LTP373	ltpFR2	17	n/a	n/a	n/a	9	19	7	5	7
1195322	PROB	n/a	LTP373	ltpFR2	17	n/a	n/a	n/a	9	22	6	7	9
1197425	STOP	n/a	LTP373	ltpFR2	17	n/a	n/a	n/a	9	n/a	n/a	n/a	n/a
1199871	REC_START	n/a	LTP373	ltpFR2	17	6	n/a	n/a	n/a	n/a	0	0	0
1201995	REC_WORD	wordpools/wasnorm_wordpool_576.txt	LTP373	ltpFR2	17	6	BATHTUB	100	n/a	n/a	0	0	0
1204414	REC_WORD	wordpools/wasnorm_wordpool_576.txt	LTP373	ltpFR2	17	6	TURTLE	1522	n/a	n/a	0	0	0
1206033	REC_WORD	wordpools/wasnorm_wordpool_576.txt	LTP373	ltpFR2	17	6	TORTOISE	1486	n/a	n/a	0	0	0
1207920	REC_WORD	wordpools/wasnorm_wordpool_576.txt	LTP373	ltpFR2	17	6	ROD	1203	n/a	n/a	0	0	0
1209615	REC_WORD	wordpools/wasnorm_wordpool_576.txt	LTP373	ltpFR2	17	6	CLAM	315	n/a	n/a	0	0	0
1212137	REC_WORD	wordpools/wasnorm_wordpool_576.txt	LTP373	ltpFR2	17	6	FLAG	573	n/a	n/a	0	0	0
1222821	REC_WORD	wordpools/wasnorm_wordpool_576.txt	LTP373	ltpFR2	17	6	FRECKLE	602	n/a	n/a	0	0	0
1290330	WORD	wordpools/wasnorm_wordpool_576.txt	LTP373	ltpFR2	17	7	SLOPE	1328	n/a	n/a	0	0	0
1292838	WORD	wordpools/wasnorm_wordpool_576.txt	LTP373	ltpFR2	17	7	VALLEY	1545	n/a	n/a	0	0	0
1295581	WORD	wordpools/wasnorm_wordpool_576.txt	LTP373	ltpFR2	17	7	SUSPECT	1415	n/a	n/a	0	0	0
1298005	WORD	wordpools/wasnorm_wordpool_576.txt	LTP373	ltpFR2	17	7	BURGLAR	200	n/a	n/a	0	0	0
1300647	WORD	wordpools/wasnorm_wordpool_576.txt	LTP373	ltpFR2	17	7	MAMMAL	861	n/a	n/a	0	0	0
1303122	WORD	wordpools/wasnorm_wordpool_576.txt	LTP373	ltpFR2	17	7	NEUTRON	947	n/a	n/a	0	0	0
1305730	WORD	wordpools/wasnorm_wordpool_576.txt	LTP373	ltpFR2	17	7	COOK	372	n/a	n/a	0	0	0
1308287	WORD	wordpools/wasnorm_wordpool_576.txt	LTP373	ltpFR2	17	7	SUNSET	1408	n/a	n/a	0	0	0
1310847	WORD	wordpools/wasnorm_wordpool_576.txt	LTP373	ltpFR2	17	7	SNACK	1331	n/a	n/a	0	0	0
1313338	WORD	wordpools/wasnorm_wordpool_576.txt	LTP373	ltpFR2	17	7	TUBA	1515	n/a	n/a	0	0	0
1315997	WORD	wordpools/wasnorm_wordpool_576.txt	LTP373	ltpFR2	17	7	HUMAN	726	n/a	n/a	0	0	0
1318505	WORD	wordpools/wasnorm_wordpool_576.txt	LTP373	ltpFR2	17	7	BANQUET	86	n/a	n/a	0	0	0
1321013	WORD	wordpools/wasnorm_wordpool_576.txt	LTP373	ltpFR2	17	7	RECORD	1176	n/a	n/a	0	0	0
1323454	WORD	wordpools/wasnorm_wordpool_576.txt	LTP373	ltpFR2	17	7	SPACE	1345	n/a	n/a	0	0	0
1325945	WORD	wordpools/wasnorm_wordpool_576.txt	LTP373	ltpFR2	17	7	LAGOON	795	n/a	n/a	0	0	0
1328671	WORD	wordpools/wasnorm_wordpool_576.txt	LTP373	ltpFR2	17	7	WITNESS	1618	n/a	n/a	0	0	0
1331161	WORD	wordpools/wasnorm_wordpool_576.txt	LTP373	ltpFR2	17	7	LACE	792	n/a	n/a	0	0	0
1333871	WORD	wordpools/wasnorm_wordpool_576.txt	LTP373	ltpFR2	17	7	HERO	706	n/a	n/a	0	0	0
1336463	WORD	wordpools/wasnorm_wordpool_576.txt	LTP373	ltpFR2	17	7	BUREAU	199	n/a	n/a	0	0	0
1338971	WORD	wordpools/wasnorm_wordpool_576.txt	LTP373	ltpFR2	17	7	LADDER	793	n/a	n/a	0	0	0
1341580	WORD	wordpools/wasnorm_wordpool_576.txt	LTP373	ltpFR2	17	7	MONSTER	912	n/a	n/a	0	0	0
1344305	WORD	wordpools/wasnorm_wordpool_576.txt	LTP373	ltpFR2	17	7	COCOON	339	n/a	n/a	0	0	0
1346813	WORD	wordpools/wasnorm_wordpool_576.txt	LTP373	ltpFR2	17	7	OMELET	976	n/a	n/a	0	0	0
1349237	WORD	wordpools/wasnorm_wordpool_576.txt	LTP373	ltpFR2	17	7	COSTUME	383	n/a	n/a	0	0	0
1350843	START	n/a	LTP373	ltpFR2	17	n/a	n/a	n/a	10	n/a	n/a	n/a	n/a
1351809	DISTRACTOR	n/a	LTP373	ltpFR2	17	7	n/a	n/a	n/a	n/a	0	0	0
1351813	PROB	n/a	LTP373	ltpFR2	17	n/a	n/a	n/a	10	18	4	7	7
1356311	PROB	n/a	LTP373	ltpFR2	17	n/a	n/a	n/a	10	8	1	6	1
1357698	PROB	n/a	LTP373	ltpFR2	17	n/a	n/a	n/a	10	21	9	3	9
1359070	PROB	n/a	LTP373	ltpFR2	17	n/a	n/a	n/a	10	13	3	8	2
1360892	PROB	n/a	LTP373	ltpFR2	17	n/a	n/a	n/a	10	14	1	4	9
1362765	PROB	n/a	LTP373	ltpFR2	17	n/a	n/a	n/a	10	16	4	3	9
1364387	PROB	n/a	LTP373	ltpFR2	17	n/a	n/a	n/a	10	16	2	6	8
1365657	PROB	n/a	LTP373	ltpFR2	17	n/a	n/a	n/a	10	17	6	3	8
1367062	PROB	n/a	LTP373	ltpFR2	17	n/a	n/a	n/a	10	19	3	9	7
1368634	PROB	n/a	LTP373	ltpFR2	17	n/a	n/a	n/a	10	14	4	3	7
1370022	PROB	n/a	LTP373	ltpFR2	17	n/a	n/a	n/a	10	25	8	9	8
1371861	PROB	n/a	LTP373	ltpFR2	17	n/a	n/a	n/a	10	18	8	5	5
1372998	PROB	n/a	LTP373	ltpFR2	17	n/a	n/a	n/a	10	16	9	1	6
1373942	STOP	n/a	LTP373	ltpFR2	17	n/a	n/a	n/a	10	n/a	n/a	n/a	n/a
1376727	REC_START	n/a	LTP373	ltpFR2	17	7	n/a	n/a	n/a	n/a	0	0	0
1381206	REC_WORD	wordpools/wasnorm_wordpool_576.txt	LTP373	ltpFR2	17	7	SLOPE	1328	n/a	n/a	0	0	0
1382733	REC_WORD	wordpools/wasnorm_wordpool_576.txt	LTP373	ltpFR2	17	7	VALLEY	1545	n/a	n/a	0	0	0
1388707	REC_WORD	wordpools/wasnorm_wordpool_576.txt	LTP373	ltpFR2	17	7	SUNRISE	1407	n/a	n/a	0	0	0
1393371	REC_WORD	wordpools/wasnorm_wordpool_576.txt	LTP373	ltpFR2	17	7	SUNSET	1408	n/a	n/a	0	0	0
1394201	REC_WORD_VV	wordpools/wasnorm_wordpool_576.txt	LTP373	ltpFR2	17	7	<>	-1	n/a	n/a	0	0	0
1397483	REC_WORD	wordpools/wasnorm_wordpool_576.txt	LTP373	ltpFR2	17	7	LACE	792	n/a	n/a	0	0	0
1433736	REC_WORD	wordpools/wasnorm_wordpool_576.txt	LTP373	ltpFR2	17	7	NEUTRON	947	n/a	n/a	0	0	0
1467169	DISTRACTOR	n/a	LTP373	ltpFR2	17	8	n/a	n/a	n/a	n/a	0	0	0
1467169	START	n/a	LTP373	ltpFR2	17	n/a	n/a	n/a	11	n/a	n/a	n/a	n/a
1467185	PROB	n/a	LTP373	ltpFR2	17	n/a	n/a	n/a	11	17	2	9	6
1469912	PROB	n/a	LTP373	ltpFR2	17	n/a	n/a	n/a	11	12	3	8	1
1471835	PROB	n/a	LTP373	ltpFR2	17	n/a	n/a	n/a	11	12	3	4	5
1473272	PROB	n/a	LTP373	ltpFR2	17	n/a	n/a	n/a	11	14	5	6	3
1475079	PROB	n/a	LTP373	ltpFR2	17	n/a	n/a	n/a	11	16	9	6	1
1476584	PROB	n/a	LTP373	ltpFR2	17	n/a	n/a	n/a	11	12	2	6	4
1478657	PROB	n/a	LTP373	ltpFR2	17	n/a	n/a	n/a	11	12	4	2	6
1481349	PROB	n/a	LTP373	ltpFR2	17	n/a	n/a	n/a	11	16	9	2	5
1482937	PROB	n/a	LTP373	ltpFR2	17	n/a	n/a	n/a	11	10	3	1	6
1484325	PROB	n/a	LTP373	ltpFR2	17	n/a	n/a	n/a	11	19	6	5	8
1485997	PROB	n/a	LTP373	ltpFR2	17	n/a	n/a	n/a	11	15	4	9	2
1487954	PROB	n/a	LTP373	ltpFR2	17	n/a	n/a	n/a	11	19	9	6	4
1489738	STOP	n/a	LTP373	ltpFR2	17	n/a	n/a	n/a	11	n/a	n/a	n/a	n/a
1492217	WORD	wordpools/wasnorm_wordpool_576.txt	LTP373	ltpFR2	17	8	POSSUM	1112	n/a	n/a	0	0	0
1494692	WORD	wordpools/wasnorm_wordpool_576.txt	LTP373	ltpFR2	17	8	GIFT	635	n/a	n/a	0	0	0
1497418	WORD	wordpools/wasnorm_wordpool_576.txt	LTP373	ltpFR2	17	8	PAPER	1011	n/a	n/a	0	0	0
1500176	WORD	wordpools/wasnorm_wordpool_576.txt	LTP373	ltpFR2	17	8	DRUG	501	n/a	n/a	0	0	0
1502685	WORD	wordpools/wasnorm_wordpool_576.txt	LTP373	ltpFR2	17	8	KNIFE	785	n/a	n/a	0	0	0
1505444	WORD	wordpools/wasnorm_wordpool_576.txt	LTP373	ltpFR2	17	8	TWEEZERS	1526	n/a	n/a	0	0	0
1508035	WORD	wordpools/wasnorm_wordpool_576.txt	LTP373	ltpFR2	17	8	COBRA	336	n/a	n/a	0	0	0
1510794	WORD	wordpools/wasnorm_wordpool_576.txt	LTP373	ltpFR2	17	8	WORLD	1622	n/a	n/a	0	0	0
1513218	WORD	wordpools/wasnorm_wordpool_576.txt	LTP373	ltpFR2	17	8	GRIZZLY	662	n/a	n/a	0	0	0
1515911	WORD	wordpools/wasnorm_wordpool_576.txt	LTP373	ltpFR2	17	8	SNAKE	1333	n/a	n/a	0	0	0
1518603	WORD	wordpools/wasnorm_wordpool_576.txt	LTP373	ltpFR2	17	8	BLADE	134	n/a	n/a	0	0	0
1521295	WORD	wordpools/wasnorm_wordpool_576.txt	LTP373	ltpFR2	17	8	PEACH	1031	n/a	n/a	0	0	0
1523920	WORD	wordpools/wasnorm_wordpool_576.txt	LTP373	ltpFR2	17	8	GRAPE	654	n/a	n/a	0	0	0
1526629	WORD	wordpools/wasnorm_wordpool_576.txt	LTP373	ltpFR2	17	8	CONVICT	371	n/a	n/a	0	0	0
1529287	WORD	wordpools/wasnorm_wordpool_576.txt	LTP373	ltpFR2	17	8	VICTIM	1562	n/a	n/a	0	0	0
1531913	WORD	wordpools/wasnorm_wordpool_576.txt	LTP373	ltpFR2	17	8	FOX	598	n/a	n/a	0	0	0
1534655	WORD	wordpools/wasnorm_wordpool_576.txt	LTP373	ltpFR2	17	8	LONDON	843	n/a	n/a	0	0	0
1537397	WORD	wordpools/wasnorm_wordpool_576.txt	LTP373	ltpFR2	17	8	DORM	488	n/a	n/a	0	0	0
1540156	WORD	wordpools/wasnorm_wordpool_576.txt	LTP373	ltpFR2	17	8	GAZELLE	628	n/a	n/a	0	0	0
1542915	WORD	wordpools/wasnorm_wordpool_576.txt	LTP373	ltpFR2	17	8	SUITCASE	1403	n/a	n/a	0	0	0
1545641	WORD	wordpools/wasnorm_wordpool_576.txt	LTP373	ltpFR2	17	8	LUGGAGE	847	n/a	n/a	0	0	0
1548450	WORD	wordpools/wasnorm_wordpool_576.txt	LTP373	ltpFR2	17	8	QUEEN	1149	n/a	n/a	0	0	0
1550991	WORD	wordpools/wasnorm_wordpool_576.txt	LTP373	ltpFR2	17	8	STOVE	1388	n/a	n/a	0	0	0
1553800	WORD	wordpools/wasnorm_wordpool_576.txt	LTP373	ltpFR2	17	8	TABLET	1427	n/a	n/a	0	0	0
1555406	START	n/a	LTP373	ltpFR2	17	n/a	n/a	n/a	12	n/a	n/a	n/a	n/a
1556268	DISTRACTOR	n/a	LTP373	ltpFR2	17	8	n/a	n/a	n/a	n/a	0	0	0
1556274	PROB	n/a	LTP373	ltpFR2	17	n/a	n/a	n/a	12	15	6	2	7
1560305	PROB	n/a	LTP373	ltpFR2	17	n/a	n/a	n/a	12	18	8	1	9
1561475	PROB	n/a	LTP373	ltpFR2	17	n/a	n/a	n/a	12	11	4	6	1
1562830	PROB	n/a	LTP373	ltpFR2	17	n/a	n/a	n/a	12	13	4	7	2
1564635	PROB	n/a	LTP373	ltpFR2	17	n/a	n/a	n/a	12	11	7	3	1
1565806	PROB	n/a	LTP373	ltpFR2	17	n/a	n/a	n/a	12	14	5	7	2
1567929	PROB	n/a	LTP373	ltpFR2	17	n/a	n/a	n/a	12	15	7	6	2
1570939	PROB	n/a	LTP373	ltpFR2	17	n/a	n/a	n/a	12	13	2	2	9
1572528	PROB	n/a	LTP373	ltpFR2	17	n/a	n/a	n/a	12	19	8	3	8
1575654	PROB	n/a	LTP373	ltpFR2	17	n/a	n/a	n/a	12	12	6	1	5
1579406	STOP	n/a	LTP373	ltpFR2	17	n/a	n/a	n/a	12	n/a	n/a	n/a	n/a
1581222	REC_START	n/a	LTP373	ltpFR2	17	8	n/a	n/a	n/a	n/a	0	0	0
1584222	REC_WORD	wordpools/wasnorm_wordpool_576.txt	LTP373	ltpFR2	17	8	SNAKE	1333	n/a	n/a	0	0	0
1587054	REC_WORD	wordpools/wasnorm_wordpool_576.txt	LTP373	ltpFR2	17	8	PEACH	1031	n/a	n/a	0	0	0
1588526	REC_WORD	wordpools/wasnorm_wordpool_576.txt	LTP373	ltpFR2	17	8	GRAPE	654	n/a	n/a	0	0	0
1590272	REC_WORD	wordpools/wasnorm_wordpool_576.txt	LTP373	ltpFR2	17	8	BLADE	134	n/a	n/a	0	0	0
1600127	REC_WORD	wordpools/wasnorm_wordpool_576.txt	LTP373	ltpFR2	17	8	TABLET	1427	n/a	n/a	0	0	0
1657754	REST_REWET	n/a	LTP373	ltpFR2	17	8	n/a	n/a	n/a	n/a	0	0	0
1751808	WORD	wordpools/wasnorm_wordpool_576.txt	LTP373	ltpFR2	17	9	WORKER	1621	n/a	n/a	0	0	0
1754601	WORD	wordpools/wasnorm_wordpool_576.txt	LTP373	ltpFR2	17	9	PISTON	1076	n/a	n/a	0	0	0
1757360	WORD	wordpools/wasnorm_wordpool_576.txt	LTP373	ltpFR2	17	9	DUST	508	n/a	n/a	0	0	0
1760119	WORD	wordpools/wasnorm_wordpool_576.txt	LTP373	ltpFR2	17	9	ANTLER	29	n/a	n/a	0	0	0
1762710	WORD	wordpools/wasnorm_wordpool_576.txt	LTP373	ltpFR2	17	9	OUTDOORS	987	n/a	n/a	0	0	0
1765152	WORD	wordpools/wasnorm_wordpool_576.txt	LTP373	ltpFR2	17	9	HAMPER	682	n/a	n/a	0	0	0
1767827	WORD	wordpools/wasnorm_wordpool_576.txt	LTP373	ltpFR2	17	9	HORNET	718	n/a	n/a	0	0	0
1770469	WORD	wordpools/wasnorm_wordpool_576.txt	LTP373	ltpFR2	17	9	EUROPE	541	n/a	n/a	0	0	0
1773094	WORD	wordpools/wasnorm_wordpool_576.txt	LTP373	ltpFR2	17	9	JEANS	752	n/a	n/a	0	0	0
1775803	WORD	wordpools/wasnorm_wordpool_576.txt	LTP373	ltpFR2	17	9	DENIM	446	n/a	n/a	0	0	0
1778378	WORD	wordpools/wasnorm_wordpool_576.txt	LTP373	ltpFR2	17	9	PLATE	1086	n/a	n/a	0	0	0
1780819	WORD	wordpools/wasnorm_wordpool_576.txt	LTP373	ltpFR2	17	9	JAPAN	749	n/a	n/a	0	0	0
1783411	WORD	wordpools/wasnorm_wordpool_576.txt	LTP373	ltpFR2	17	9	SCRIBBLE	1256	n/a	n/a	0	0	0
1786219	WORD	wordpools/wasnorm_wordpool_576.txt	LTP373	ltpFR2	17	9	COOKBOOK	373	n/a	n/a	0	0	0
1788862	WORD	wordpools/wasnorm_wordpool_576.txt	LTP373	ltpFR2	17	9	PASTRY	1022	n/a	n/a	0	0	0
1791621	WORD	wordpools/wasnorm_wordpool_576.txt	LTP373	ltpFR2	17	9	PREACHER	1119	n/a	n/a	0	0	0
1794262	WORD	wordpools/wasnorm_wordpool_576.txt	LTP373	ltpFR2	17	9	RELISH	1183	n/a	n/a	0	0	0
1796704	WORD	wordpools/wasnorm_wordpool_576.txt	LTP373	ltpFR2	17	9	PILOT	1070	n/a	n/a	0	0	0
1799413	WORD	wordpools/wasnorm_wordpool_576.txt	LTP373	ltpFR2	17	9	SPOUSE	1358	n/a	n/a	0	0	0
1801971	WORD	wordpools/wasnorm_wordpool_576.txt	LTP373	ltpFR2	17	9	WIFE	1609	n/a	n/a	0	0	0
1804680	WORD	wordpools/wasnorm_wordpool_576.txt	LTP373	ltpFR2	17	9	PORK	1108	n/a	n/a	0	0	0
1807170	WORD	wordpools/wasnorm_wordpool_576.txt	LTP373	ltpFR2	17	9	HUSBAND	728	n/a	n/a	0	0	0
1809646	WORD	wordpools/wasnorm_wordpool_576.txt	LTP373	ltpFR2	17	9	COLLEGE	346	n/a	n/a	0	0	0
1812321	WORD	wordpools/wasnorm_wordpool_576.txt	LTP373	ltpFR2	17	9	BINDER	127	n/a	n/a	0	0	0
1813927	START	n/a	LTP373	ltpFR2	17	n/a	n/a	n/a	13	n/a	n/a	n/a	n/a
1814900	DISTRACTOR	n/a	LTP373	ltpFR2	17	9	n/a	n/a	n/a	n/a	0	0	0
1814913	PROB	n/a	LTP373	ltpFR2	17	n/a	n/a	n/a	13	14	5	8	1
1816802	PROB	n/a	LTP373	ltpFR2	17	n/a	n/a	n/a	13	13	1	4	8
1818172	PROB	n/a	LTP373	ltpFR2	17	n/a	n/a	n/a	13	22	7	6	7
1821501	PROB	n/a	LTP373	ltpFR2	17	n/a	n/a	n/a	13	20	8	8	4
1822972	PROB	n/a	LTP373	ltpFR2	17	n/a	n/a	n/a	13	9	5	1	3
1824695	PROB	n/a	LTP373	ltpFR2	17	n/a	n/a	n/a	13	17	5	4	8
1826248	PROB	n/a	LTP373	ltpFR2	17	n/a	n/a	n/a	13	15	4	2	9
1827838	PROB	n/a	LTP373	ltpFR2	17	n/a	n/a	n/a	13	9	5	1	3
1829008	PROB	n/a	LTP373	ltpFR2	17	n/a	n/a	n/a	13	25	9	9	7
1830446	PROB	n/a	LTP373	ltpFR2	17	n/a	n/a	n/a	13	15	4	7	4
1833607	PROB	n/a	LTP373	ltpFR2	17	n/a	n/a	n/a	13	6	3	1	2
1835479	PROB	n/a	LTP373	ltpFR2	17	n/a	n/a	n/a	13	14	7	1	6
1836795	STOP	n/a	LTP373	ltpFR2	17	n/a	n/a	n/a	13	n/a	n/a	n/a	n/a
1839861	REC_START	n/a	LTP373	ltpFR2	17	9	n/a	n/a	n/a	n/a	0	0	0
1840723	REC_WORD	wordpools/wasnorm_wordpool_576.txt	LTP373	ltpFR2	17	9	HUSBAND	728	n/a	n/a	0	0	0
1841757	REC_WORD	wordpools/wasnorm_wordpool_576.txt	LTP373	ltpFR2	17	9	WIFE	1609	n/a	n/a	0	0	0
1842673	REC_WORD	wordpools/wasnorm_wordpool_576.txt	LTP373	ltpFR2	17	9	SPOUSE	1358	n/a	n/a	0	0	0
1844007	REC_WORD	wordpools/wasnorm_wordpool_576.txt	LTP373	ltpFR2	17	9	COLLEGE	346	n/a	n/a	0	0	0
1845189	REC_WORD	wordpools/wasnorm_wordpool_576.txt	LTP373	ltpFR2	17	9	BINDER	127	n/a	n/a	0	0	0
1846138	REC_WORD	wordpools/wasnorm_wordpool_576.txt	LTP373	ltpFR2	17	9	OUTDOORS	987	n/a	n/a	0	0	0
1847305	REC_WORD	wordpools/wasnorm_wordpool_576.txt	LTP373	ltpFR2	17	9	HORNET	718	n/a	n/a	0	0	0
1848459	REC_WORD	wordpools/wasnorm_wordpool_576.txt	LTP373	ltpFR2	17	9	DUST	508	n/a	n/a	0	0	0
1849553	REC_WORD	wordpools/wasnorm_wordpool_576.txt	LTP373	ltpFR2	17	9	ANTLER	29	n/a	n/a	0	0	0
1852533	REC_WORD	wordpools/wasnorm_wordpool_576.txt	LTP373	ltpFR2	17	9	WORKER	1621	n/a	n/a	0	0	0
1853506	REC_WORD	wordpools/wasnorm_wordpool_576.txt	LTP373	ltpFR2	17	9	PISTON	1076	n/a	n/a	0	0	0
1858392	REC_WORD	wordpools/wasnorm_wordpool_576.txt	LTP373	ltpFR2	17	9	DENIM	446	n/a	n/a	0	0	0
1859318	REC_WORD	wordpools/wasnorm_wordpool_576.txt	LTP373	ltpFR2	17	9	JEANS	752	n/a	n/a	0	0	0
1860167	REC_WORD	wordpools/wasnorm_wordpool_576.txt	LTP373	ltpFR2	17	9	EUROPE	541	n/a	n/a	0	0	0
1861094	REC_WORD	wordpools/wasnorm_wordpool_576.txt	LTP373	ltpFR2	17	9	JAPAN	749	n/a	n/a	0	0	0
1865109	REC_WORD	wordpools/wasnorm_wordpool_576.txt	LTP373	ltpFR2	17	9	PLATE	1086	n/a	n/a	0	0	0
1866079	REC_WORD	wordpools/wasnorm_wordpool_576.txt	LTP373	ltpFR2	17	9	PORK	1108	n/a	n/a	0	0	0
1866910	REC_WORD	wordpools/wasnorm_wordpool_576.txt	LTP373	ltpFR2	17	9	RELISH	1183	n/a	n/a	0	0	0
1875553	REC_WORD	wordpools/wasnorm_wordpool_576.txt	LTP373	ltpFR2	17	9	PREACHER	1119	n/a	n/a	0	0	0
1930320	WORD	wordpools/wasnorm_wordpool_576.txt	LTP373	ltpFR2	17	10	CRATER	400	n/a	n/a	0	0	0
1933062	WORD	wordpools/wasnorm_wordpool_576.txt	LTP373	ltpFR2	17	10	CARRIAGE	248	n/a	n/a	0	0	0
1935671	WORD	wordpools/wasnorm_wordpool_576.txt	LTP373	ltpFR2	17	10	LIPSTICK	829	n/a	n/a	0	0	0
1938396	WORD	wordpools/wasnorm_wordpool_576.txt	LTP373	ltpFR2	17	10	PARTNER	1017	n/a	n/a	0	0	0
1940804	WORD	wordpools/wasnorm_wordpool_576.txt	LTP373	ltpFR2	17	10	PEANUT	1032	n/a	n/a	0	0	0
1943412	WORD	wordpools/wasnorm_wordpool_576.txt	LTP373	ltpFR2	17	10	PEDAL	1037	n/a	n/a	0	0	0
1946088	WORD	wordpools/wasnorm_wordpool_576.txt	LTP373	ltpFR2	17	10	WAGON	1578	n/a	n/a	0	0	0
1948629	WORD	wordpools/wasnorm_wordpool_576.txt	LTP373	ltpFR2	17	10	ASIA	46	n/a	n/a	0	0	0
1951121	WORD	wordpools/wasnorm_wordpool_576.txt	LTP373	ltpFR2	17	10	STAR	1373	n/a	n/a	0	0	0
1953880	WORD	wordpools/wasnorm_wordpool_576.txt	LTP373	ltpFR2	17	10	PEBBLE	1035	n/a	n/a	0	0	0
1956572	WORD	wordpools/wasnorm_wordpool_576.txt	LTP373	ltpFR2	17	10	OYSTER	995	n/a	n/a	0	0	0
1959279	WORD	wordpools/wasnorm_wordpool_576.txt	LTP373	ltpFR2	17	10	PIGMENT	1066	n/a	n/a	0	0	0
1961738	WORD	wordpools/wasnorm_wordpool_576.txt	LTP373	ltpFR2	17	10	LAVA	804	n/a	n/a	0	0	0
1964297	WORD	wordpools/wasnorm_wordpool_576.txt	LTP373	ltpFR2	17	10	STONE	1385	n/a	n/a	0	0	0
1967022	WORD	wordpools/wasnorm_wordpool_576.txt	LTP373	ltpFR2	17	10	AIRPLANE	12	n/a	n/a	0	0	0
1969447	WORD	wordpools/wasnorm_wordpool_576.txt	LTP373	ltpFR2	17	10	IDOL	733	n/a	n/a	0	0	0
1972205	WORD	wordpools/wasnorm_wordpool_576.txt	LTP373	ltpFR2	17	10	BROOK	177	n/a	n/a	0	0	0
1974981	WORD	wordpools/wasnorm_wordpool_576.txt	LTP373	ltpFR2	17	10	BODY	145	n/a	n/a	0	0	0
1977623	WORD	wordpools/wasnorm_wordpool_576.txt	LTP373	ltpFR2	17	10	MARROW	872	n/a	n/a	0	0	0
1980180	WORD	wordpools/wasnorm_wordpool_576.txt	LTP373	ltpFR2	17	10	JUNGLE	764	n/a	n/a	0	0	0
1982773	WORD	wordpools/wasnorm_wordpool_576.txt	LTP373	ltpFR2	17	10	UNCLE	1536	n/a	n/a	0	0	0
1985432	WORD	wordpools/wasnorm_wordpool_576.txt	LTP373	ltpFR2	17	10	BEAKER	104	n/a	n/a	0	0	0
1988207	WORD	wordpools/wasnorm_wordpool_576.txt	LTP373	ltpFR2	17	10	FLASK	576	n/a	n/a	0	0	0
1990967	WORD	wordpools/wasnorm_wordpool_576.txt	LTP373	ltpFR2	17	10	SALMON	1227	n/a	n/a	0	0	0
1992572	START	n/a	LTP373	ltpFR2	17	n/a	n/a	n/a	14	n/a	n/a	n/a	n/a
1993658	DISTRACTOR	n/a	LTP373	ltpFR2	17	10	n/a	n/a	n/a	n/a	0	0	0
1993675	PROB	n/a	LTP373	ltpFR2	17	n/a	n/a	n/a	14	23	9	6	8
1997153	PROB	n/a	LTP373	ltpFR2	17	n/a	n/a	n/a	14	20	3	8	9
1999360	PROB	n/a	LTP373	ltpFR2	17	n/a	n/a	n/a	14	18	8	9	1
2001083	PROB	n/a	LTP373	ltpFR2	17	n/a	n/a	n/a	14	27	6	6	9
2003992	PROB	n/a	LTP373	ltpFR2	17	n/a	n/a	n/a	14	26	8	9	9
2006383	PROB	n/a	LTP373	ltpFR2	17	n/a	n/a	n/a	14	21	7	7	7
2007604	PROB	n/a	LTP373	ltpFR2	17	n/a	n/a	n/a	14	14	5	1	8
2008992	PROB	n/a	LTP373	ltpFR2	17	n/a	n/a	n/a	14	14	7	4	3
2011065	PROB	n/a	LTP373	ltpFR2	17	n/a	n/a	n/a	14	21	9	7	5
2014075	PROB	n/a	LTP373	ltpFR2	17	n/a	n/a	n/a	14	17	8	2	7
2015241	STOP	n/a	LTP373	ltpFR2	17	n/a	n/a	n/a	14	n/a	n/a	n/a	n/a
2018406	REC_START	n/a	LTP373	ltpFR2	17	10	n/a	n/a	n/a	n/a	0	0	0
2020413	REC_WORD	wordpools/wasnorm_wordpool_576.txt	LTP373	ltpFR2	17	10	CRATER	400	n/a	n/a	0	0	0
2021696	REC_WORD	wordpools/wasnorm_wordpool_576.txt	LTP373	ltpFR2	17	10	CARRIAGE	248	n/a	n/a	0	0	0
2022943	REC_WORD	wordpools/wasnorm_wordpool_576.txt	LTP373	ltpFR2	17	10	WAGON	1578	n/a	n/a	0	0	0
2024506	REC_WORD	wordpools/wasnorm_wordpool_576.txt	LTP373	ltpFR2	17	10	PARTNER	1017	n/a	n/a	0	0	0
2025963	REC_WORD	wordpools/wasnorm_wordpool_576.txt	LTP373	ltpFR2	17	10	PEBBLE	1035	n/a	n/a	0	0	0
2030201	REC_WORD	wordpools/wasnorm_wordpool_576.txt	LTP373	ltpFR2	17	10	BROOK	177	n/a	n/a	0	0	0
2035499	REC_WORD	wordpools/wasnorm_wordpool_576.txt	LTP373	ltpFR2	17	10	BODY	145	n/a	n/a	0	0	0
2036657	REC_WORD	wordpools/wasnorm_wordpool_576.txt	LTP373	ltpFR2	17	10	MARROW	872	n/a	n/a	0	0	0
2067303	REC_WORD	wordpools/wasnorm_wordpool_576.txt	LTP373	ltpFR2	17	10	SALMON	1227	n/a	n/a	0	0	0
2068451	REC_WORD	wordpools/wasnorm_wordpool_576.txt	LTP373	ltpFR2	17	10	OYSTER	995	n/a	n/a	0	0	0
2108848	DISTRACTOR	n/a	LTP373	ltpFR2	17	11	n/a	n/a	n/a	n/a	0	0	0
2108849	START	n/a	LTP373	ltpFR2	17	n/a	n/a	n/a	15	n/a	n/a	n/a	n/a
2108865	PROB	n/a	LTP373	ltpFR2	17	n/a	n/a	n/a	15	22	7	6	9
2112059	PROB	n/a	LTP373	ltpFR2	17	n/a	n/a	n/a	15	17	8	4	5
2113413	PROB	n/a	LTP373	ltpFR2	17	n/a	n/a	n/a	15	10	1	2	7
2114751	PROB	n/a	LTP373	ltpFR2	17	n/a	n/a	n/a	15	20	6	7	7
2116807	PROB	n/a	LTP373	ltpFR2	17	n/a	n/a	n/a	15	17	9	5	3
2118714	PROB	n/a	LTP373	ltpFR2	17	n/a	n/a	n/a	15	20	9	7	4
2120536	PROB	n/a	LTP373	ltpFR2	17	n/a	n/a	n/a	15	18	9	2	7
2121957	PROB	n/a	LTP373	ltpFR2	17	n/a	n/a	n/a	15	18	1	8	9
2123044	PROB	n/a	LTP373	ltpFR2	17	n/a	n/a	n/a	15	7	3	2	2
2124482	PROB	n/a	LTP373	ltpFR2	17	n/a	n/a	n/a	15	14	4	6	4
2125820	PROB	n/a	LTP373	ltpFR2	17	n/a	n/a	n/a	15	13	6	4	3
2128044	PROB	n/a	LTP373	ltpFR2	17	n/a	n/a	n/a	15	3	1	1	1
2128997	PROB	n/a	LTP373	ltpFR2	17	n/a	n/a	n/a	15	15	5	2	8
2130669	PROB	n/a	LTP373	ltpFR2	17	n/a	n/a	n/a	15	8	3	2	3
2132221	STOP	n/a	LTP373	ltpFR2	17	n/a	n/a	n/a	15	n/a	n/a	n/a	n/a
2134013	WORD	wordpools/wasnorm_wordpool_576.txt	LTP373	ltpFR2	17	11	BOARD	143	n/a	n/a	0	0	0
2136438	WORD	wordpools/wasnorm_wordpool_576.txt	LTP373	ltpFR2	17	11	HOSTESS	723	n/a	n/a	0	0	0
2138896	WORD	wordpools/wasnorm_wordpool_576.txt	LTP373	ltpFR2	17	11	SERVER	1272	n/a	n/a	0	0	0
2141604	WORD	wordpools/wasnorm_wordpool_576.txt	LTP373	ltpFR2	17	11	NURSE	963	n/a	n/a	0	0	0
2144347	WORD	wordpools/wasnorm_wordpool_576.txt	LTP373	ltpFR2	17	11	TUTU	1524	n/a	n/a	0	0	0
2146805	WORD	wordpools/wasnorm_wordpool_576.txt	LTP373	ltpFR2	17	11	INMATE	738	n/a	n/a	0	0	0
2149480	WORD	wordpools/wasnorm_wordpool_576.txt	LTP373	ltpFR2	17	11	TOASTER	1472	n/a	n/a	0	0	0
2152072	WORD	wordpools/wasnorm_wordpool_576.txt	LTP373	ltpFR2	17	11	CARROT	249	n/a	n/a	0	0	0
2154814	WORD	wordpools/wasnorm_wordpool_576.txt	LTP373	ltpFR2	17	11	DRESS	495	n/a	n/a	0	0	0
2157322	WORD	wordpools/wasnorm_wordpool_576.txt	LTP373	ltpFR2	17	11	LUMBER	848	n/a	n/a	0	0	0
2159897	WORD	wordpools/wasnorm_wordpool_576.txt	LTP373	ltpFR2	17	11	CABIN	211	n/a	n/a	0	0	0
2162372	WORD	wordpools/wasnorm_wordpool_576.txt	LTP373	ltpFR2	17	11	PALACE	1006	n/a	n/a	0	0	0
2165163	WORD	wordpools/wasnorm_wordpool_576.txt	LTP373	ltpFR2	17	11	MONEY	908	n/a	n/a	0	0	0
2167923	WORD	wordpools/wasnorm_wordpool_576.txt	LTP373	ltpFR2	17	11	LASER	801	n/a	n/a	0	0	0
2170699	WORD	wordpools/wasnorm_wordpool_576.txt	LTP373	ltpFR2	17	11	PISTOL	1075	n/a	n/a	0	0	0
2173474	WORD	wordpools/wasnorm_wordpool_576.txt	LTP373	ltpFR2	17	11	CLOTHES	327	n/a	n/a	0	0	0
2176066	WORD	wordpools/wasnorm_wordpool_576.txt	LTP373	ltpFR2	17	11	BREAST	171	n/a	n/a	0	0	0
2178608	WORD	wordpools/wasnorm_wordpool_576.txt	LTP373	ltpFR2	17	11	PRINCESS	1125	n/a	n/a	0	0	0
2181333	WORD	wordpools/wasnorm_wordpool_576.txt	LTP373	ltpFR2	17	11	DANCER	437	n/a	n/a	0	0	0
2184059	WORD	wordpools/wasnorm_wordpool_576.txt	LTP373	ltpFR2	17	11	RADISH	1158	n/a	n/a	0	0	0
2186717	WORD	wordpools/wasnorm_wordpool_576.txt	LTP373	ltpFR2	17	11	SKILLET	1317	n/a	n/a	0	0	0
2189426	WORD	wordpools/wasnorm_wordpool_576.txt	LTP373	ltpFR2	17	11	CRITIC	410	n/a	n/a	0	0	0
2191984	WORD	wordpools/wasnorm_wordpool_576.txt	LTP373	ltpFR2	17	11	TOURIST	1488	n/a	n/a	0	0	0
2194593	WORD	wordpools/wasnorm_wordpool_576.txt	LTP373	ltpFR2	17	11	SODA	1341	n/a	n/a	0	0	0
2196197	START	n/a	LTP373	ltpFR2	17	n/a	n/a	n/a	16	n/a	n/a	n/a	n/a
2197054	DISTRACTOR	n/a	LTP373	ltpFR2	17	11	n/a	n/a	n/a	n/a	0	0	0
2197067	PROB	n/a	LTP373	ltpFR2	17	n/a	n/a	n/a	16	16	7	5	4
2199877	PROB	n/a	LTP373	ltpFR2	17	n/a	n/a	n/a	16	15	8	5	2
2201799	PROB	n/a	LTP373	ltpFR2	17	n/a	n/a	n/a	16	15	5	2	8
2203120	PROB	n/a	LTP373	ltpFR2	17	n/a	n/a	n/a	16	16	1	6	9
2204876	PROB	n/a	LTP373	ltpFR2	17	n/a	n/a	n/a	16	19	8	3	8
2207016	PROB	n/a	LTP373	ltpFR2	17	n/a	n/a	n/a	16	6	1	1	4
2208219	PROB	n/a	LTP373	ltpFR2	17	n/a	n/a	n/a	16	23	8	7	8
2212434	PROB	n/a	LTP373	ltpFR2	17	n/a	n/a	n/a	16	11	5	2	4
2213755	PROB	n/a	LTP373	ltpFR2	17	n/a	n/a	n/a	16	15	3	3	9
2214992	PROB	n/a	LTP373	ltpFR2	17	n/a	n/a	n/a	16	20	9	2	9
2216664	PROB	n/a	LTP373	ltpFR2	17	n/a	n/a	n/a	16	15	4	7	4
2218303	PROB	n/a	LTP373	ltpFR2	17	n/a	n/a	n/a	16	14	5	6	3
2220144	STOP	n/a	LTP373	ltpFR2	17	n/a	n/a	n/a	16	n/a	n/a	n/a	n/a
2222133	REC_START	n/a	LTP373	ltpFR2	17	11	n/a	n/a	n/a	n/a	0	0	0
2223602	REC_WORD	wordpools/wasnorm_wordpool_576.txt	LTP373	ltpFR2	17	11	PRINCESS	1125	n/a	n/a	0	0	0
2225229	REC_WORD	wordpools/wasnorm_wordpool_576.txt	LTP373	ltpFR2	17	11	PALACE	1006	n/a	n/a	0	0	0
2233913	REC_WORD	wordpools/wasnorm_wordpool_576.txt	LTP373	ltpFR2	17	11	NURSE	963	n/a	n/a	0	0	0
2235377	REC_WORD	wordpools/wasnorm_wordpool_576.txt	LTP373	ltpFR2	17	11	HOSTESS	723	n/a	n/a	0	0	0
2237041	REC_WORD	wordpools/wasnorm_wordpool_576.txt	LTP373	ltpFR2	17	11	DRESS	495	n/a	n/a	0	0	0
2238542	REC_WORD	wordpools/wasnorm_wordpool_576.txt	LTP373	ltpFR2	17	11	INMATE	738	n/a	n/a	0	0	0
2239978	REC_WORD	wordpools/wasnorm_wordpool_576.txt	LTP373	ltpFR2	17	11	PRIMATE	1123	n/a	n/a	0	0	0
2312575	DISTRACTOR	n/a	LTP373	ltpFR2	17	12	n/a	n/a	n/a	n/a	0	0	0
2312575	START	n/a	LTP373	ltpFR2	17	n/a	n/a	n/a	17	n/a	n/a	n/a	n/a
2312592	PROB	n/a	LTP373	ltpFR2	17	n/a	n/a	n/a	17	17	6	9	2
2314280	PROB	n/a	LTP373	ltpFR2	17	n/a	n/a	n/a	17	11	3	2	6
2315702	PROB	n/a	LTP373	ltpFR2	17	n/a	n/a	n/a	17	15	3	6	6
2317725	PROB	n/a	LTP373	ltpFR2	17	n/a	n/a	n/a	17	14	9	4	1
2319447	PROB	n/a	LTP373	ltpFR2	17	n/a	n/a	n/a	17	13	5	2	6
2320768	PROB	n/a	LTP373	ltpFR2	17	n/a	n/a	n/a	17	16	3	7	6
2321838	PROB	n/a	LTP373	ltpFR2	17	n/a	n/a	n/a	17	19	8	4	7
2324012	PROB	n/a	LTP373	ltpFR2	17	n/a	n/a	n/a	17	7	2	4	1
2326018	PROB	n/a	LTP373	ltpFR2	17	n/a	n/a	n/a	17	12	1	8	3
2327724	PROB	n/a	LTP373	ltpFR2	17	n/a	n/a	n/a	17	8	4	2	2
2329312	PROB	n/a	LTP373	ltpFR2	17	n/a	n/a	n/a	17	21	5	7	9
2330934	PROB	n/a	LTP373	ltpFR2	17	n/a	n/a	n/a	17	19	4	9	6
2332757	PROB	n/a	LTP373	ltpFR2	17	n/a	n/a	n/a	17	13	3	4	6
2336575	STOP	n/a	LTP373	ltpFR2	17	n/a	n/a	n/a	17	n/a	n/a	n/a	n/a
2337623	WORD	wordpools/wasnorm_wordpool_576.txt	LTP373	ltpFR2	17	12	VIRUS	1572	n/a	n/a	0	0	0
2340264	WORD	wordpools/wasnorm_wordpool_576.txt	LTP373	ltpFR2	17	12	FOREST	593	n/a	n/a	0	0	0
2342723	WORD	wordpools/wasnorm_wordpool_576.txt	LTP373	ltpFR2	17	12	SCISSORS	1250	n/a	n/a	0	0	0
2345298	WORD	wordpools/wasnorm_wordpool_576.txt	LTP373	ltpFR2	17	12	CLIMBER	323	n/a	n/a	0	0	0
2347889	WORD	wordpools/wasnorm_wordpool_576.txt	LTP373	ltpFR2	17	12	FRAGRANCE	599	n/a	n/a	0	0	0
2350397	WORD	wordpools/wasnorm_wordpool_576.txt	LTP373	ltpFR2	17	12	ONION	977	n/a	n/a	0	0	0
2353006	WORD	wordpools/wasnorm_wordpool_576.txt	LTP373	ltpFR2	17	12	TREAT	1501	n/a	n/a	0	0	0
2355782	WORD	wordpools/wasnorm_wordpool_576.txt	LTP373	ltpFR2	17	12	MASK	876	n/a	n/a	0	0	0
2358306	WORD	wordpools/wasnorm_wordpool_576.txt	LTP373	ltpFR2	17	12	EMPIRE	530	n/a	n/a	0	0	0
2361082	WORD	wordpools/wasnorm_wordpool_576.txt	LTP373	ltpFR2	17	12	HOUND	724	n/a	n/a	0	0	0
2363590	WORD	wordpools/wasnorm_wordpool_576.txt	LTP373	ltpFR2	17	12	PARROT	1015	n/a	n/a	0	0	0
2366332	WORD	wordpools/wasnorm_wordpool_576.txt	LTP373	ltpFR2	17	12	WASP	1593	n/a	n/a	0	0	0
2369008	WORD	wordpools/wasnorm_wordpool_576.txt	LTP373	ltpFR2	17	12	HATCHET	691	n/a	n/a	0	0	0
2371783	WORD	wordpools/wasnorm_wordpool_576.txt	LTP373	ltpFR2	17	12	LABEL	790	n/a	n/a	0	0	0
2374459	WORD	wordpools/wasnorm_wordpool_576.txt	LTP373	ltpFR2	17	12	FREEZER	604	n/a	n/a	0	0	0
2377051	WORD	wordpools/wasnorm_wordpool_576.txt	LTP373	ltpFR2	17	12	HONEY	713	n/a	n/a	0	0	0
2379559	WORD	wordpools/wasnorm_wordpool_576.txt	LTP373	ltpFR2	17	12	PECAN	1036	n/a	n/a	0	0	0
2382067	WORD	wordpools/wasnorm_wordpool_576.txt	LTP373	ltpFR2	17	12	DRIVER	499	n/a	n/a	0	0	0
2384776	WORD	wordpools/wasnorm_wordpool_576.txt	LTP373	ltpFR2	17	12	PLAID	1080	n/a	n/a	0	0	0
2387451	WORD	wordpools/wasnorm_wordpool_576.txt	LTP373	ltpFR2	17	12	THREAD	1460	n/a	n/a	0	0	0
2390259	WORD	wordpools/wasnorm_wordpool_576.txt	LTP373	ltpFR2	17	12	SPOOL	1356	n/a	n/a	0	0	0
2392969	WORD	wordpools/wasnorm_wordpool_576.txt	LTP373	ltpFR2	17	12	CATCHER	258	n/a	n/a	0	0	0
2395761	WORD	wordpools/wasnorm_wordpool_576.txt	LTP373	ltpFR2	17	12	CHEMIST	292	n/a	n/a	0	0	0
2398268	WORD	wordpools/wasnorm_wordpool_576.txt	LTP373	ltpFR2	17	12	KIDNEY	776	n/a	n/a	0	0	0
2399875	START	n/a	LTP373	ltpFR2	17	n/a	n/a	n/a	18	n/a	n/a	n/a	n/a
2400789	DISTRACTOR	n/a	LTP373	ltpFR2	17	12	n/a	n/a	n/a	n/a	0	0	0
2400794	PROB	n/a	LTP373	ltpFR2	17	n/a	n/a	n/a	18	14	5	3	6
2421043	PROB	n/a	LTP373	ltpFR2	17	n/a	n/a	n/a	18	12	1	2	9
2423875	STOP	n/a	LTP373	ltpFR2	17	n/a	n/a	n/a	18	n/a	n/a	n/a	n/a
2425725	REC_START	n/a	LTP373	ltpFR2	17	12	n/a	n/a	n/a	n/a	0	0	0
2450316	REC_WORD	wordpools/wasnorm_wordpool_576.txt	LTP373	ltpFR2	17	12	FOREST	593	n/a	n/a	0	0	0
2452156	REC_WORD	wordpools/wasnorm_wordpool_576.txt	LTP373	ltpFR2	17	12	ONION	977	n/a	n/a	0	0	0
2453891	REC_WORD	wordpools/wasnorm_wordpool_576.txt	LTP373	ltpFR2	17	12	CLIMBER	323	n/a	n/a	0	0	0
2455353	REC_WORD	wordpools/wasnorm_wordpool_576.txt	LTP373	ltpFR2	17	12	SCISSORS	1250	n/a	n/a	0	0	0
2456875	REC_WORD	wordpools/wasnorm_wordpool_576.txt	LTP373	ltpFR2	17	12	VIRUS	1572	n/a	n/a	0	0	0
2466196	REC_WORD	wordpools/wasnorm_wordpool_576.txt	LTP373	ltpFR2	17	12	PLAID	1080	n/a	n/a	0	0	0
2476598	REC_WORD	wordpools/wasnorm_wordpool_576.txt	LTP373	ltpFR2	17	12	SPOOL	1356	n/a	n/a	0	0	0
2478427	REC_WORD	wordpools/wasnorm_wordpool_576.txt	LTP373	ltpFR2	17	12	THREAD	1460	n/a	n/a	0	0	0
2479771	REC_WORD	wordpools/wasnorm_wordpool_576.txt	LTP373	ltpFR2	17	12	YARN	1631	n/a	n/a	0	0	0
2480994	REC_WORD	wordpools/wasnorm_wordpool_576.txt	LTP373	ltpFR2	17	12	PANTS	1010	n/a	n/a	0	0	0
2532320	WORD	wordpools/wasnorm_wordpool_576.txt	LTP373	ltpFR2	17	13	COWBOY	395	n/a	n/a	0	0	0
2534995	WORD	wordpools/wasnorm_wordpool_576.txt	LTP373	ltpFR2	17	13	OX	994	n/a	n/a	0	0	0
2537554	WORD	wordpools/wasnorm_wordpool_576.txt	LTP373	ltpFR2	17	13	THRONE	1461	n/a	n/a	0	0	0
2540012	WORD	wordpools/wasnorm_wordpool_576.txt	LTP373	ltpFR2	17	13	BIKE	125	n/a	n/a	0	0	0
2542721	WORD	wordpools/wasnorm_wordpool_576.txt	LTP373	ltpFR2	17	13	POWDER	1117	n/a	n/a	0	0	0
2545145	WORD	wordpools/wasnorm_wordpool_576.txt	LTP373	ltpFR2	17	13	STALLION	1369	n/a	n/a	0	0	0
2547753	WORD	wordpools/wasnorm_wordpool_576.txt	LTP373	ltpFR2	17	13	WRENCH	1625	n/a	n/a	0	0	0
2550445	WORD	wordpools/wasnorm_wordpool_576.txt	LTP373	ltpFR2	17	13	PLIERS	1089	n/a	n/a	0	0	0
2553203	WORD	wordpools/wasnorm_wordpool_576.txt	LTP373	ltpFR2	17	13	STATUE	1374	n/a	n/a	0	0	0
2555863	WORD	wordpools/wasnorm_wordpool_576.txt	LTP373	ltpFR2	17	13	PERCH	1048	n/a	n/a	0	0	0
2558538	WORD	wordpools/wasnorm_wordpool_576.txt	LTP373	ltpFR2	17	13	PANTHER	1009	n/a	n/a	0	0	0
2561147	WORD	wordpools/wasnorm_wordpool_576.txt	LTP373	ltpFR2	17	13	BROTHER	179	n/a	n/a	0	0	0
2563772	WORD	wordpools/wasnorm_wordpool_576.txt	LTP373	ltpFR2	17	13	SWIMMER	1420	n/a	n/a	0	0	0
2566330	WORD	wordpools/wasnorm_wordpool_576.txt	LTP373	ltpFR2	17	13	BABY	64	n/a	n/a	0	0	0
2568922	WORD	wordpools/wasnorm_wordpool_576.txt	LTP373	ltpFR2	17	13	PIANO	1057	n/a	n/a	0	0	0
2571714	WORD	wordpools/wasnorm_wordpool_576.txt	LTP373	ltpFR2	17	13	NOVEL	960	n/a	n/a	0	0	0
2574238	WORD	wordpools/wasnorm_wordpool_576.txt	LTP373	ltpFR2	17	13	ORANGE	980	n/a	n/a	0	0	0
2576948	WORD	wordpools/wasnorm_wordpool_576.txt	LTP373	ltpFR2	17	13	PIGEON	1065	n/a	n/a	0	0	0
2579523	WORD	wordpools/wasnorm_wordpool_576.txt	LTP373	ltpFR2	17	13	OINTMENT	974	n/a	n/a	0	0	0
2582315	WORD	wordpools/wasnorm_wordpool_576.txt	LTP373	ltpFR2	17	13	PUDDING	1139	n/a	n/a	0	0	0
2584974	WORD	wordpools/wasnorm_wordpool_576.txt	LTP373	ltpFR2	17	13	SEAL	1262	n/a	n/a	0	0	0
2587733	WORD	wordpools/wasnorm_wordpool_576.txt	LTP373	ltpFR2	17	13	JUDGE	761	n/a	n/a	0	0	0
2590475	WORD	wordpools/wasnorm_wordpool_576.txt	LTP373	ltpFR2	17	13	SPOON	1357	n/a	n/a	0	0	0
2592900	WORD	wordpools/wasnorm_wordpool_576.txt	LTP373	ltpFR2	17	13	SWORD	1423	n/a	n/a	0	0	0
2594505	START	n/a	LTP373	ltpFR2	17	n/a	n/a	n/a	19	n/a	n/a	n/a	n/a
2595691	DISTRACTOR	n/a	LTP373	ltpFR2	17	13	n/a	n/a	n/a	n/a	0	0	0
2595692	PROB	n/a	LTP373	ltpFR2	17	n/a	n/a	n/a	19	22	9	6	7
2598902	PROB	n/a	LTP373	ltpFR2	17	n/a	n/a	n/a	19	23	8	6	9
2600625	PROB	n/a	LTP373	ltpFR2	17	n/a	n/a	n/a	19	15	5	5	5
2601561	PROB	n/a	LTP373	ltpFR2	17	n/a	n/a	n/a	19	20	3	9	8
2603634	PROB	n/a	LTP373	ltpFR2	17	n/a	n/a	n/a	19	13	6	1	6
2604955	PROB	n/a	LTP373	ltpFR2	17	n/a	n/a	n/a	19	12	2	1	9
2606225	PROB	n/a	LTP373	ltpFR2	17	n/a	n/a	n/a	19	19	6	9	4
2608116	PROB	n/a	LTP373	ltpFR2	17	n/a	n/a	n/a	19	17	3	6	8
2609437	PROB	n/a	LTP373	ltpFR2	17	n/a	n/a	n/a	19	14	4	4	6
2611326	PROB	n/a	LTP373	ltpFR2	17	n/a	n/a	n/a	19	9	1	7	1
2612547	PROB	n/a	LTP373	ltpFR2	17	n/a	n/a	n/a	19	14	6	3	5
2614051	PROB	n/a	LTP373	ltpFR2	17	n/a	n/a	n/a	19	16	3	8	5
2615306	PROB	n/a	LTP373	ltpFR2	17	n/a	n/a	n/a	19	8	3	4	1
2618504	STOP	n/a	LTP373	ltpFR2	17	n/a	n/a	n/a	19	n/a	n/a	n/a	n/a
2620423	REC_START	n/a	LTP373	ltpFR2	17	13	n/a	n/a	n/a	n/a	0	0	0
2621625	REC_WORD	wordpools/wasnorm_wordpool_576.txt	LTP373	ltpFR2	17	13	COWBOY	395	n/a	n/a	0	0	0
2622443	REC_WORD	wordpools/wasnorm_wordpool_576.txt	LTP373	ltpFR2	17	13	STALLION	1369	n/a	n/a	0	0	0
2623443	REC_WORD_VV	wordpools/wasnorm_wordpool_576.txt	LTP373	ltpFR2	17	13	<>	-1	n/a	n/a	0	0	0
2625476	REC_WORD	wordpools/wasnorm_wordpool_576.txt	LTP373	ltpFR2	17	13	STALLION	1369	n/a	n/a	0	0	0
2626768	REC_WORD	wordpools/wasnorm_wordpool_576.txt	LTP373	ltpFR2	17	13	BIKE	125	n/a	n/a	0	0	0
2627682	REC_WORD	wordpools/wasnorm_wordpool_576.txt	LTP373	ltpFR2	17	13	THRONE	1461	n/a	n/a	0	0	0
2629617	REC_WORD	wordpools/wasnorm_wordpool_576.txt	LTP373	ltpFR2	17	13	STATUE	1374	n/a	n/a	0	0	0
2642392	REC_WORD	wordpools/wasnorm_wordpool_576.txt	LTP373	ltpFR2	17	13	BABY	64	n/a	n/a	0	0	0
2643448	REC_WORD	wordpools/wasnorm_wordpool_576.txt	LTP373	ltpFR2	17	13	BROTHER	179	n/a	n/a	0	0	0
2644510	REC_WORD	wordpools/wasnorm_wordpool_576.txt	LTP373	ltpFR2	17	13	ORANGE	980	n/a	n/a	0	0	0
2645518	REC_WORD	wordpools/wasnorm_wordpool_576.txt	LTP373	ltpFR2	17	13	OINTMENT	974	n/a	n/a	0	0	0
2646362	REC_WORD	wordpools/wasnorm_wordpool_576.txt	LTP373	ltpFR2	17	13	SWIMMER	1420	n/a	n/a	0	0	0
2647569	REC_WORD	wordpools/wasnorm_wordpool_576.txt	LTP373	ltpFR2	17	13	NOVEL	960	n/a	n/a	0	0	0
2653285	REC_WORD	wordpools/wasnorm_wordpool_576.txt	LTP373	ltpFR2	17	13	LEOPARD	812	n/a	n/a	0	0	0
2655843	REC_WORD	wordpools/wasnorm_wordpool_576.txt	LTP373	ltpFR2	17	13	PANTHER	1009	n/a	n/a	0	0	0
2730763	WORD	wordpools/wasnorm_wordpool_576.txt	LTP373	ltpFR2	17	14	GUARD	667	n/a	n/a	0	0	0
2733305	WORD	wordpools/wasnorm_wordpool_576.txt	LTP373	ltpFR2	17	14	SERVANT	1271	n/a	n/a	0	0	0
2735997	WORD	wordpools/wasnorm_wordpool_576.txt	LTP373	ltpFR2	17	14	KNAPSACK	783	n/a	n/a	0	0	0
2738605	WORD	wordpools/wasnorm_wordpool_576.txt	LTP373	ltpFR2	17	14	MUMMY	932	n/a	n/a	0	0	0
2741414	WORD	wordpools/wasnorm_wordpool_576.txt	LTP373	ltpFR2	17	14	GIRL	637	n/a	n/a	0	0	0
2744156	WORD	wordpools/wasnorm_wordpool_576.txt	LTP373	ltpFR2	17	14	PASTA	1021	n/a	n/a	0	0	0
2746614	WORD	wordpools/wasnorm_wordpool_576.txt	LTP373	ltpFR2	17	14	MARS	873	n/a	n/a	0	0	0
2749407	WORD	wordpools/wasnorm_wordpool_576.txt	LTP373	ltpFR2	17	14	DOLPHIN	483	n/a	n/a	0	0	0
2752181	WORD	wordpools/wasnorm_wordpool_576.txt	LTP373	ltpFR2	17	14	GAVEL	627	n/a	n/a	0	0	0
2754908	WORD	wordpools/wasnorm_wordpool_576.txt	LTP373	ltpFR2	17	14	INFANT	737	n/a	n/a	0	0	0
2757483	WORD	wordpools/wasnorm_wordpool_576.txt	LTP373	ltpFR2	17	14	HARP	689	n/a	n/a	0	0	0
2759991	WORD	wordpools/wasnorm_wordpool_576.txt	LTP373	ltpFR2	17	14	POET	1095	n/a	n/a	0	0	0
2762549	WORD	wordpools/wasnorm_wordpool_576.txt	LTP373	ltpFR2	17	14	CAPTIVE	240	n/a	n/a	0	0	0
2765108	WORD	wordpools/wasnorm_wordpool_576.txt	LTP373	ltpFR2	17	14	OUTLAW	989	n/a	n/a	0	0	0
2767532	WORD	wordpools/wasnorm_wordpool_576.txt	LTP373	ltpFR2	17	14	FLIPPER	580	n/a	n/a	0	0	0
2770090	WORD	wordpools/wasnorm_wordpool_576.txt	LTP373	ltpFR2	17	14	STICKER	1382	n/a	n/a	0	0	0
2772699	WORD	wordpools/wasnorm_wordpool_576.txt	LTP373	ltpFR2	17	14	PATROL	1027	n/a	n/a	0	0	0
2775223	WORD	wordpools/wasnorm_wordpool_576.txt	LTP373	ltpFR2	17	14	BANK	83	n/a	n/a	0	0	0
2777966	WORD	wordpools/wasnorm_wordpool_576.txt	LTP373	ltpFR2	17	14	RECEIPT	1173	n/a	n/a	0	0	0
2780758	WORD	wordpools/wasnorm_wordpool_576.txt	LTP373	ltpFR2	17	14	ARMY	39	n/a	n/a	0	0	0
2783317	WORD	wordpools/wasnorm_wordpool_576.txt	LTP373	ltpFR2	17	14	RATTLE	1170	n/a	n/a	0	0	0
2786109	WORD	wordpools/wasnorm_wordpool_576.txt	LTP373	ltpFR2	17	14	PATIENT	1024	n/a	n/a	0	0	0
2788734	WORD	wordpools/wasnorm_wordpool_576.txt	LTP373	ltpFR2	17	14	MATCH	878	n/a	n/a	0	0	0
2791326	WORD	wordpools/wasnorm_wordpool_576.txt	LTP373	ltpFR2	17	14	RIVER	1194	n/a	n/a	0	0	0
2792931	START	n/a	LTP373	ltpFR2	17	n/a	n/a	n/a	20	n/a	n/a	n/a	n/a
2793962	DISTRACTOR	n/a	LTP373	ltpFR2	17	14	n/a	n/a	n/a	n/a	0	0	0
2793968	PROB	n/a	LTP373	ltpFR2	17	n/a	n/a	n/a	20	13	2	1	9
2797128	PROB	n/a	LTP373	ltpFR2	17	n/a	n/a	n/a	20	13	3	9	1
2799770	PROB	n/a	LTP373	ltpFR2	17	n/a	n/a	n/a	20	15	7	3	5
2800974	PROB	n/a	LTP373	ltpFR2	17	n/a	n/a	n/a	20	9	5	3	1
2802830	PROB	n/a	LTP373	ltpFR2	17	n/a	n/a	n/a	20	15	7	1	7
2803950	PROB	n/a	LTP373	ltpFR2	17	n/a	n/a	n/a	20	14	5	6	3
2805739	PROB	n/a	LTP373	ltpFR2	17	n/a	n/a	n/a	20	18	7	4	7
2807159	PROB	n/a	LTP373	ltpFR2	17	n/a	n/a	n/a	20	13	4	5	4
2810438	PROB	n/a	LTP373	ltpFR2	17	n/a	n/a	n/a	20	22	5	8	9
2812276	PROB	n/a	LTP373	ltpFR2	17	n/a	n/a	n/a	20	17	2	8	7
2813514	PROB	n/a	LTP373	ltpFR2	17	n/a	n/a	n/a	20	16	8	3	5
2814852	PROB	n/a	LTP373	ltpFR2	17	n/a	n/a	n/a	20	11	5	1	5
2816290	STOP	n/a	LTP373	ltpFR2	17	n/a	n/a	n/a	20	n/a	n/a	n/a	n/a
2818782	REC_START	n/a	LTP373	ltpFR2	17	14	n/a	n/a	n/a	n/a	0	0	0
2822677	REC_WORD	wordpools/wasnorm_wordpool_576.txt	LTP373	ltpFR2	17	14	GIRL	637	n/a	n/a	0	0	0
2823715	REC_WORD	wordpools/wasnorm_wordpool_576.txt	LTP373	ltpFR2	17	14	SERVANT	1271	n/a	n/a	0	0	0
2825088	REC_WORD	wordpools/wasnorm_wordpool_576.txt	LTP373	ltpFR2	17	14	GUARD	667	n/a	n/a	0	0	0
2826232	REC_WORD	wordpools/wasnorm_wordpool_576.txt	LTP373	ltpFR2	17	14	PATROL	1027	n/a	n/a	0	0	0
2827823	REC_WORD	wordpools/wasnorm_wordpool_576.txt	LTP373	ltpFR2	17	14	ARMY	39	n/a	n/a	0	0	0
2830884	REC_WORD	wordpools/wasnorm_wordpool_576.txt	LTP373	ltpFR2	17	14	INFANT	737	n/a	n/a	0	0	0
2832211	REC_WORD	wordpools/wasnorm_wordpool_576.txt	LTP373	ltpFR2	17	14	MUMMY	932	n/a	n/a	0	0	0
2833913	REC_WORD	wordpools/wasnorm_wordpool_576.txt	LTP373	ltpFR2	17	14	OUTLAW	989	n/a	n/a	0	0	0
2845119	REC_WORD	wordpools/wasnorm_wordpool_576.txt	LTP373	ltpFR2	17	14	MARS	873	n/a	n/a	0	0	0
2855059	REC_WORD	wordpools/wasnorm_wordpool_576.txt	LTP373	ltpFR2	17	14	INFANT	737	n/a	n/a	0	0	0
2909240	WORD	wordpools/wasnorm_wordpool_576.txt	LTP373	ltpFR2	17	15	SPARROW	1347	n/a	n/a	0	0	0
2911850	WORD	wordpools/wasnorm_wordpool_576.txt	LTP373	ltpFR2	17	15	ROOSTER	1209	n/a	n/a	0	0	0
2914525	WORD	wordpools/wasnorm_wordpool_576.txt	LTP373	ltpFR2	17	15	CAMEL	223	n/a	n/a	0	0	0
2917100	WORD	wordpools/wasnorm_wordpool_576.txt	LTP373	ltpFR2	17	15	ISLAND	745	n/a	n/a	0	0	0
2919541	WORD	wordpools/wasnorm_wordpool_576.txt	LTP373	ltpFR2	17	15	CHAPEL	280	n/a	n/a	0	0	0
2922300	WORD	wordpools/wasnorm_wordpool_576.txt	LTP373	ltpFR2	17	15	SWAMP	1416	n/a	n/a	0	0	0
2924925	WORD	wordpools/wasnorm_wordpool_576.txt	LTP373	ltpFR2	17	15	ROBBER	1197	n/a	n/a	0	0	0
2927500	WORD	wordpools/wasnorm_wordpool_576.txt	LTP373	ltpFR2	17	15	TOMBSTONE	1478	n/a	n/a	0	0	0
2929958	WORD	wordpools/wasnorm_wordpool_576.txt	LTP373	ltpFR2	17	15	PLUTO	1092	n/a	n/a	0	0	0
2932717	WORD	wordpools/wasnorm_wordpool_576.txt	LTP373	ltpFR2	17	15	BUCKET	184	n/a	n/a	0	0	0
2935493	WORD	wordpools/wasnorm_wordpool_576.txt	LTP373	ltpFR2	17	15	CROSS	413	n/a	n/a	0	0	0
2938217	WORD	wordpools/wasnorm_wordpool_576.txt	LTP373	ltpFR2	17	15	HANDBAG	684	n/a	n/a	0	0	0
2940660	WORD	wordpools/wasnorm_wordpool_576.txt	LTP373	ltpFR2	17	15	POPCORN	1104	n/a	n/a	0	0	0
2943183	WORD	wordpools/wasnorm_wordpool_576.txt	LTP373	ltpFR2	17	15	SLIDE	1326	n/a	n/a	0	0	0
2945776	WORD	wordpools/wasnorm_wordpool_576.txt	LTP373	ltpFR2	17	15	PLAYGROUND	1087	n/a	n/a	0	0	0
2948301	WORD	wordpools/wasnorm_wordpool_576.txt	LTP373	ltpFR2	17	15	GROUND	666	n/a	n/a	0	0	0
2950809	WORD	wordpools/wasnorm_wordpool_576.txt	LTP373	ltpFR2	17	15	ATOM	55	n/a	n/a	0	0	0
2953401	WORD	wordpools/wasnorm_wordpool_576.txt	LTP373	ltpFR2	17	15	CUSTARD	429	n/a	n/a	0	0	0
2956209	WORD	wordpools/wasnorm_wordpool_576.txt	LTP373	ltpFR2	17	15	MOP	916	n/a	n/a	0	0	0
2958952	WORD	wordpools/wasnorm_wordpool_576.txt	LTP373	ltpFR2	17	15	MATTRESS	879	n/a	n/a	0	0	0
2961577	WORD	wordpools/wasnorm_wordpool_576.txt	LTP373	ltpFR2	17	15	LOFT	840	n/a	n/a	0	0	0
2964218	WORD	wordpools/wasnorm_wordpool_576.txt	LTP373	ltpFR2	17	15	BRIEFCASE	175	n/a	n/a	0	0	0
2966961	WORD	wordpools/wasnorm_wordpool_576.txt	LTP373	ltpFR2	17	15	TUNNEL	1519	n/a	n/a	0	0	0
2969670	WORD	wordpools/wasnorm_wordpool_576.txt	LTP373	ltpFR2	17	15	LAPEL	800	n/a	n/a	0	0	0
2971275	START	n/a	LTP373	ltpFR2	17	n/a	n/a	n/a	21	n/a	n/a	n/a	n/a
2972379	DISTRACTOR	n/a	LTP373	ltpFR2	17	15	n/a	n/a	n/a	n/a	0	0	0
2972396	PROB	n/a	LTP373	ltpFR2	17	n/a	n/a	n/a	21	9	3	2	4
2975890	PROB	n/a	LTP373	ltpFR2	17	n/a	n/a	n/a	21	18	7	3	8
2977312	PROB	n/a	LTP373	ltpFR2	17	n/a	n/a	n/a	21	13	3	2	8
2978449	PROB	n/a	LTP373	ltpFR2	17	n/a	n/a	n/a	21	10	3	3	4
2979703	PROB	n/a	LTP373	ltpFR2	17	n/a	n/a	n/a	21	11	5	1	5
2980856	PROB	n/a	LTP373	ltpFR2	17	n/a	n/a	n/a	21	15	9	1	5
2982528	PROB	n/a	LTP373	ltpFR2	17	n/a	n/a	n/a	21	13	3	1	9
2983966	PROB	n/a	LTP373	ltpFR2	17	n/a	n/a	n/a	21	23	7	8	8
2987260	PROB	n/a	LTP373	ltpFR2	17	n/a	n/a	n/a	21	17	8	8	1
2988765	PROB	n/a	LTP373	ltpFR2	17	n/a	n/a	n/a	21	19	6	9	6
2991172	PROB	n/a	LTP373	ltpFR2	17	n/a	n/a	n/a	21	12	5	1	6
2995275	STOP	n/a	LTP373	ltpFR2	17	n/a	n/a	n/a	21	n/a	n/a	n/a	n/a
2997093	REC_START	n/a	LTP373	ltpFR2	17	15	n/a	n/a	n/a	n/a	0	0	0
3008947	REC_WORD	wordpools/wasnorm_wordpool_576.txt	LTP373	ltpFR2	17	15	PLUTO	1092	n/a	n/a	0	0	0
3015990	REC_WORD	wordpools/wasnorm_wordpool_576.txt	LTP373	ltpFR2	17	15	ROOSTER	1209	n/a	n/a	0	0	0
3017451	REC_WORD	wordpools/wasnorm_wordpool_576.txt	LTP373	ltpFR2	17	15	SPARROW	1347	n/a	n/a	0	0	0
3020846	REC_WORD	wordpools/wasnorm_wordpool_576.txt	LTP373	ltpFR2	17	15	CHAPEL	280	n/a	n/a	0	0	0
3022301	REC_WORD	wordpools/wasnorm_wordpool_576.txt	LTP373	ltpFR2	17	15	CROSS	413	n/a	n/a	0	0	0
3023845	REC_WORD	wordpools/wasnorm_wordpool_576.txt	LTP373	ltpFR2	17	15	SWAMP	1416	n/a	n/a	0	0	0
3126846	DISTRACTOR	n/a	LTP373	ltpFR2	17	16	n/a	n/a	n/a	n/a	0	0	0
3126846	START	n/a	LTP373	ltpFR2	17	n/a	n/a	n/a	22	n/a	n/a	n/a	n/a
3126863	PROB	n/a	LTP373	ltpFR2	17	n/a	n/a	n/a	22	10	1	7	2
3129571	PROB	n/a	LTP373	ltpFR2	17	n/a	n/a	n/a	22	14	3	9	2
3131327	PROB	n/a	LTP373	ltpFR2	17	n/a	n/a	n/a	22	11	3	6	2
3132949	PROB	n/a	LTP373	ltpFR2	17	n/a	n/a	n/a	22	17	8	5	4
3134972	PROB	n/a	LTP373	ltpFR2	17	n/a	n/a	n/a	22	17	9	4	4
3136394	PROB	n/a	LTP373	ltpFR2	17	n/a	n/a	n/a	22	19	4	6	9
3137832	PROB	n/a	LTP373	ltpFR2	17	n/a	n/a	n/a	22	18	8	5	5
3138952	PROB	n/a	LTP373	ltpFR2	17	n/a	n/a	n/a	22	15	4	3	8
3140925	PROB	n/a	LTP373	ltpFR2	17	n/a	n/a	n/a	22	22	7	7	8
3142396	PROB	n/a	LTP373	ltpFR2	17	n/a	n/a	n/a	22	11	3	5	3
3144018	PROB	n/a	LTP373	ltpFR2	17	n/a	n/a	n/a	22	17	3	7	7
3145657	PROB	n/a	LTP373	ltpFR2	17	n/a	n/a	n/a	22	19	8	9	2
3146928	PROB	n/a	LTP373	ltpFR2	17	n/a	n/a	n/a	22	12	5	4	3
3149749	STOP	n/a	LTP373	ltpFR2	17	n/a	n/a	n/a	22	n/a	n/a	n/a	n/a
3151894	WORD	wordpools/wasnorm_wordpool_576.txt	LTP373	ltpFR2	17	16	COIN	343	n/a	n/a	0	0	0
3154569	WORD	wordpools/wasnorm_wordpool_576.txt	LTP373	ltpFR2	17	16	FLESH	579	n/a	n/a	0	0	0
3157328	WORD	wordpools/wasnorm_wordpool_576.txt	LTP373	ltpFR2	17	16	VAGRANT	1544	n/a	n/a	0	0	0
3159853	WORD	wordpools/wasnorm_wordpool_576.txt	LTP373	ltpFR2	17	16	CRAYON	401	n/a	n/a	0	0	0
3162395	WORD	wordpools/wasnorm_wordpool_576.txt	LTP373	ltpFR2	17	16	BANKER	84	n/a	n/a	0	0	0
3165053	WORD	wordpools/wasnorm_wordpool_576.txt	LTP373	ltpFR2	17	16	CASHIER	254	n/a	n/a	0	0	0
3167494	WORD	wordpools/wasnorm_wordpool_576.txt	LTP373	ltpFR2	17	16	TROUT	1511	n/a	n/a	0	0	0
3170003	WORD	wordpools/wasnorm_wordpool_576.txt	LTP373	ltpFR2	17	16	JOURNAL	760	n/a	n/a	0	0	0
3172460	WORD	wordpools/wasnorm_wordpool_576.txt	LTP373	ltpFR2	17	16	BUG	187	n/a	n/a	0	0	0
3174935	WORD	wordpools/wasnorm_wordpool_576.txt	LTP373	ltpFR2	17	16	TERMITE	1451	n/a	n/a	0	0	0
3177727	WORD	wordpools/wasnorm_wordpool_576.txt	LTP373	ltpFR2	17	16	FILM	565	n/a	n/a	0	0	0
3180403	WORD	wordpools/wasnorm_wordpool_576.txt	LTP373	ltpFR2	17	16	XEROX	1628	n/a	n/a	0	0	0
3183178	WORD	wordpools/wasnorm_wordpool_576.txt	LTP373	ltpFR2	17	16	EYELASH	546	n/a	n/a	0	0	0
3185854	WORD	wordpools/wasnorm_wordpool_576.txt	LTP373	ltpFR2	17	16	TYPIST	1532	n/a	n/a	0	0	0
3188529	WORD	wordpools/wasnorm_wordpool_576.txt	LTP373	ltpFR2	17	16	GARLIC	624	n/a	n/a	0	0	0
3191305	WORD	wordpools/wasnorm_wordpool_576.txt	LTP373	ltpFR2	17	16	CIGAR	308	n/a	n/a	0	0	0
3193896	WORD	wordpools/wasnorm_wordpool_576.txt	LTP373	ltpFR2	17	16	CLOCK	325	n/a	n/a	0	0	0
3196689	WORD	wordpools/wasnorm_wordpool_576.txt	LTP373	ltpFR2	17	16	ROBIN	1199	n/a	n/a	0	0	0
3199147	WORD	wordpools/wasnorm_wordpool_576.txt	LTP373	ltpFR2	17	16	SANDWICH	1232	n/a	n/a	0	0	0
3201688	WORD	wordpools/wasnorm_wordpool_576.txt	LTP373	ltpFR2	17	16	NAPKIN	937	n/a	n/a	0	0	0
3204364	WORD	wordpools/wasnorm_wordpool_576.txt	LTP373	ltpFR2	17	16	STAPLE	1371	n/a	n/a	0	0	0
3206955	WORD	wordpools/wasnorm_wordpool_576.txt	LTP373	ltpFR2	17	16	EAGLE	512	n/a	n/a	0	0	0
3209581	WORD	wordpools/wasnorm_wordpool_576.txt	LTP373	ltpFR2	17	16	GHETTO	633	n/a	n/a	0	0	0
3212055	WORD	wordpools/wasnorm_wordpool_576.txt	LTP373	ltpFR2	17	16	LIVER	833	n/a	n/a	0	0	0
3213661	START	n/a	LTP373	ltpFR2	17	n/a	n/a	n/a	23	n/a	n/a	n/a	n/a
3214763	DISTRACTOR	n/a	LTP373	ltpFR2	17	16	n/a	n/a	n/a	n/a	0	0	0
3214764	PROB	n/a	LTP373	ltpFR2	17	n/a	n/a	n/a	23	21	9	5	7
3216821	PROB	n/a	LTP373	ltpFR2	17	n/a	n/a	n/a	23	16	6	2	8
3219496	PROB	n/a	LTP373	ltpFR2	17	n/a	n/a	n/a	23	13	3	3	7
3221068	PROB	n/a	LTP373	ltpFR2	17	n/a	n/a	n/a	23	10	1	3	6
3222439	PROB	n/a	LTP373	ltpFR2	17	n/a	n/a	n/a	23	20	4	7	9
3224763	PROB	n/a	LTP373	ltpFR2	17	n/a	n/a	n/a	23	7	4	2	1
3226067	PROB	n/a	LTP373	ltpFR2	17	n/a	n/a	n/a	23	16	5	3	8
3227773	PROB	n/a	LTP373	ltpFR2	17	n/a	n/a	n/a	23	15	6	2	7
3230983	PROB	n/a	LTP373	ltpFR2	17	n/a	n/a	n/a	23	13	2	6	5
3232538	PROB	n/a	LTP373	ltpFR2	17	n/a	n/a	n/a	23	16	9	6	1
3233960	PROB	n/a	LTP373	ltpFR2	17	n/a	n/a	n/a	23	22	9	6	7
3235649	PROB	n/a	LTP373	ltpFR2	17	n/a	n/a	n/a	23	13	3	9	1
3237183	STOP	n/a	LTP373	ltpFR2	17	n/a	n/a	n/a	23	n/a	n/a	n/a	n/a
3239495	REC_START	n/a	LTP373	ltpFR2	17	16	n/a	n/a	n/a	n/a	0	0	0
3241337	REC_WORD	wordpools/wasnorm_wordpool_576.txt	LTP373	ltpFR2	17	16	GARLIC	624	n/a	n/a	0	0	0
3243067	REC_WORD	wordpools/wasnorm_wordpool_576.txt	LTP373	ltpFR2	17	16	CLOCK	325	n/a	n/a	0	0	0
3244561	REC_WORD	wordpools/wasnorm_wordpool_576.txt	LTP373	ltpFR2	17	16	TYPIST	1532	n/a	n/a	0	0	0
3266971	REC_WORD	wordpools/wasnorm_wordpool_576.txt	LTP373	ltpFR2	17	16	JOURNAL	760	n/a	n/a	0	0	0
3268526	REC_WORD	wordpools/wasnorm_wordpool_576.txt	LTP373	ltpFR2	17	16	COIN	343	n/a	n/a	0	0	0
3269734	REC_WORD	wordpools/wasnorm_wordpool_576.txt	LTP373	ltpFR2	17	16	BANKER	84	n/a	n/a	0	0	0
3270929	REC_WORD	wordpools/wasnorm_wordpool_576.txt	LTP373	ltpFR2	17	16	CASHIER	254	n/a	n/a	0	0	0
3272455	REC_WORD	wordpools/wasnorm_wordpool_576.txt	LTP373	ltpFR2	17	16	FLESH	579	n/a	n/a	0	0	0
3273666	REC_WORD_VV	wordpools/wasnorm_wordpool_576.txt	LTP373	ltpFR2	17	16	<>	-1	n/a	n/a	0	0	0
3312214	REC_WORD	wordpools/wasnorm_wordpool_576.txt	LTP373	ltpFR2	17	16	TERMITE	1451	n/a	n/a	0	0	0
3312850	REC_WORD	wordpools/wasnorm_wordpool_576.txt	LTP373	ltpFR2	17	16	BUG	187	n/a	n/a	0	0	0
3313467	REC_WORD	wordpools/wasnorm_wordpool_576.txt	LTP373	ltpFR2	17	16	EYELASH	546	n/a	n/a	0	0	0
3316026	REST_REWET	n/a	LTP373	ltpFR2	17	16	n/a	n/a	n/a	n/a	0	0	0
3665992	WORD	wordpools/wasnorm_wordpool_576.txt	LTP373	ltpFR2	17	17	HEADBAND	696	n/a	n/a	0	0	0
3668651	WORD	wordpools/wasnorm_wordpool_576.txt	LTP373	ltpFR2	17	17	SADDLE	1221	n/a	n/a	0	0	0
3671326	WORD	wordpools/wasnorm_wordpool_576.txt	LTP373	ltpFR2	17	17	BASEMENT	94	n/a	n/a	0	0	0
3673768	WORD	wordpools/wasnorm_wordpool_576.txt	LTP373	ltpFR2	17	17	TABLE	1426	n/a	n/a	0	0	0
3676410	WORD	wordpools/wasnorm_wordpool_576.txt	LTP373	ltpFR2	17	17	SHORTCAKE	1292	n/a	n/a	0	0	0
3679201	WORD	wordpools/wasnorm_wordpool_576.txt	LTP373	ltpFR2	17	17	TART	1436	n/a	n/a	0	0	0
3681660	WORD	wordpools/wasnorm_wordpool_576.txt	LTP373	ltpFR2	17	17	FRUIT	610	n/a	n/a	0	0	0
3684101	WORD	wordpools/wasnorm_wordpool_576.txt	LTP373	ltpFR2	17	17	MAILMAN	858	n/a	n/a	0	0	0
3686777	WORD	wordpools/wasnorm_wordpool_576.txt	LTP373	ltpFR2	17	17	SUMMIT	1405	n/a	n/a	0	0	0
3689318	WORD	wordpools/wasnorm_wordpool_576.txt	LTP373	ltpFR2	17	17	CREATURE	403	n/a	n/a	0	0	0
3692077	WORD	wordpools/wasnorm_wordpool_576.txt	LTP373	ltpFR2	17	17	BEAST	108	n/a	n/a	0	0	0
3694652	WORD	wordpools/wasnorm_wordpool_576.txt	LTP373	ltpFR2	17	17	COUSIN	392	n/a	n/a	0	0	0
3697143	WORD	wordpools/wasnorm_wordpool_576.txt	LTP373	ltpFR2	17	17	PUPIL	1143	n/a	n/a	0	0	0
3699568	WORD	wordpools/wasnorm_wordpool_576.txt	LTP373	ltpFR2	17	17	SUBWAY	1400	n/a	n/a	0	0	0
3702360	WORD	wordpools/wasnorm_wordpool_576.txt	LTP373	ltpFR2	17	17	JELLY	755	n/a	n/a	0	0	0
3705052	WORD	wordpools/wasnorm_wordpool_576.txt	LTP373	ltpFR2	17	17	MAILBOX	857	n/a	n/a	0	0	0
3707795	WORD	wordpools/wasnorm_wordpool_576.txt	LTP373	ltpFR2	17	17	SNAIL	1332	n/a	n/a	0	0	0
3710537	WORD	wordpools/wasnorm_wordpool_576.txt	LTP373	ltpFR2	17	17	CORAL	378	n/a	n/a	0	0	0
3713245	WORD	wordpools/wasnorm_wordpool_576.txt	LTP373	ltpFR2	17	17	LAKE	796	n/a	n/a	0	0	0
3715787	WORD	wordpools/wasnorm_wordpool_576.txt	LTP373	ltpFR2	17	17	BUGGY	188	n/a	n/a	0	0	0
3718278	WORD	wordpools/wasnorm_wordpool_576.txt	LTP373	ltpFR2	17	17	PASSAGE	1019	n/a	n/a	0	0	0
3720720	WORD	wordpools/wasnorm_wordpool_576.txt	LTP373	ltpFR2	17	17	SWITCH	1422	n/a	n/a	0	0	0
3723260	WORD	wordpools/wasnorm_wordpool_576.txt	LTP373	ltpFR2	17	17	COUNTY	389	n/a	n/a	0	0	0
3725987	WORD	wordpools/wasnorm_wordpool_576.txt	LTP373	ltpFR2	17	17	COMPASS	358	n/a	n/a	0	0	0
3727592	START	n/a	LTP373	ltpFR2	17	n/a	n/a	n/a	24	n/a	n/a	n/a	n/a
3728696	DISTRACTOR	n/a	LTP373	ltpFR2	17	17	n/a	n/a	n/a	n/a	0	0	0
3728712	PROB	n/a	LTP373	ltpFR2	17	n/a	n/a	n/a	24	5	1	2	2
3730869	PROB	n/a	LTP373	ltpFR2	17	n/a	n/a	n/a	24	23	8	7	8
3733862	PROB	n/a	LTP373	ltpFR2	17	n/a	n/a	n/a	24	16	9	6	1
3735199	PROB	n/a	LTP373	ltpFR2	17	n/a	n/a	n/a	24	12	1	6	5
3736588	PROB	n/a	LTP373	ltpFR2	17	n/a	n/a	n/a	24	19	2	9	8
3738795	PROB	n/a	LTP373	ltpFR2	17	n/a	n/a	n/a	24	20	8	8	4
3741252	PROB	n/a	LTP373	ltpFR2	17	n/a	n/a	n/a	24	16	8	5	3
3743310	PROB	n/a	LTP373	ltpFR2	17	n/a	n/a	n/a	24	8	6	1	1
3744296	PROB	n/a	LTP373	ltpFR2	17	n/a	n/a	n/a	24	16	2	6	8
3745433	PROB	n/a	LTP373	ltpFR2	17	n/a	n/a	n/a	24	9	4	1	4
3749095	PROB	n/a	LTP373	ltpFR2	17	n/a	n/a	n/a	24	13	7	5	1
3751255	STOP	n/a	LTP373	ltpFR2	17	n/a	n/a	n/a	24	n/a	n/a	n/a	n/a
3753460	REC_START	n/a	LTP373	ltpFR2	17	17	n/a	n/a	n/a	n/a	0	0	0
3755858	REC_WORD	wordpools/wasnorm_wordpool_576.txt	LTP373	ltpFR2	17	17	BUGGY	188	n/a	n/a	0	0	0
3756813	REC_WORD	wordpools/wasnorm_wordpool_576.txt	LTP373	ltpFR2	17	17	SADDLE	1221	n/a	n/a	0	0	0
3758136	REC_WORD	wordpools/wasnorm_wordpool_576.txt	LTP373	ltpFR2	17	17	HEADBAND	696	n/a	n/a	0	0	0
3759693	REC_WORD	wordpools/wasnorm_wordpool_576.txt	LTP373	ltpFR2	17	17	CREATURE	403	n/a	n/a	0	0	0
3761163	REC_WORD	wordpools/wasnorm_wordpool_576.txt	LTP373	ltpFR2	17	17	BEAST	108	n/a	n/a	0	0	0
3763212	REC_WORD	wordpools/wasnorm_wordpool_576.txt	LTP373	ltpFR2	17	17	COUNTY	389	n/a	n/a	0	0	0
3764450	REC_WORD	wordpools/wasnorm_wordpool_576.txt	LTP373	ltpFR2	17	17	SUBWAY	1400	n/a	n/a	0	0	0
3765938	REC_WORD	wordpools/wasnorm_wordpool_576.txt	LTP373	ltpFR2	17	17	PASSAGE	1019	n/a	n/a	0	0	0
3767332	REC_WORD	wordpools/wasnorm_wordpool_576.txt	LTP373	ltpFR2	17	17	COMPASS	358	n/a	n/a	0	0	0
3769746	REC_WORD	wordpools/wasnorm_wordpool_576.txt	LTP373	ltpFR2	17	17	BASEMENT	94	n/a	n/a	0	0	0
3770869	REC_WORD	wordpools/wasnorm_wordpool_576.txt	LTP373	ltpFR2	17	17	TABLE	1426	n/a	n/a	0	0	0
3772276	REC_WORD	wordpools/wasnorm_wordpool_576.txt	LTP373	ltpFR2	17	17	FRUIT	610	n/a	n/a	0	0	0
3773720	REC_WORD	wordpools/wasnorm_wordpool_576.txt	LTP373	ltpFR2	17	17	TART	1436	n/a	n/a	0	0	0
3777537	REC_WORD	wordpools/wasnorm_wordpool_576.txt	LTP373	ltpFR2	17	17	SHORTCAKE	1292	n/a	n/a	0	0	0
3778864	REC_WORD	wordpools/wasnorm_wordpool_576.txt	LTP373	ltpFR2	17	17	JELLY	755	n/a	n/a	0	0	0
3843902	DISTRACTOR	n/a	LTP373	ltpFR2	17	18	n/a	n/a	n/a	n/a	0	0	0
3843902	START	n/a	LTP373	ltpFR2	17	n/a	n/a	n/a	25	n/a	n/a	n/a	n/a
3843919	PROB	n/a	LTP373	ltpFR2	17	n/a	n/a	n/a	25	12	7	2	3
3845624	PROB	n/a	LTP373	ltpFR2	17	n/a	n/a	n/a	25	11	7	3	1
3846728	PROB	n/a	LTP373	ltpFR2	17	n/a	n/a	n/a	25	5	3	1	1
3847765	PROB	n/a	LTP373	ltpFR2	17	n/a	n/a	n/a	25	9	2	5	2
3850106	PROB	n/a	LTP373	ltpFR2	17	n/a	n/a	n/a	25	18	4	6	8
3852178	PROB	n/a	LTP373	ltpFR2	17	n/a	n/a	n/a	25	18	8	2	8
3853349	PROB	n/a	LTP373	ltpFR2	17	n/a	n/a	n/a	25	9	2	3	4
3854687	PROB	n/a	LTP373	ltpFR2	17	n/a	n/a	n/a	25	17	6	4	7
3857161	PROB	n/a	LTP373	ltpFR2	17	n/a	n/a	n/a	25	6	2	1	3
3858449	PROB	n/a	LTP373	ltpFR2	17	n/a	n/a	n/a	25	20	9	8	3
3861576	PROB	n/a	LTP373	ltpFR2	17	n/a	n/a	n/a	25	13	1	3	9
3863031	PROB	n/a	LTP373	ltpFR2	17	n/a	n/a	n/a	25	25	9	8	8
3864486	PROB	n/a	LTP373	ltpFR2	17	n/a	n/a	n/a	25	9	2	3	4
3865572	PROB	n/a	LTP373	ltpFR2	17	n/a	n/a	n/a	25	11	3	7	1
3866843	STOP	n/a	LTP373	ltpFR2	17	n/a	n/a	n/a	25	n/a	n/a	n/a	n/a
3869017	WORD	wordpools/wasnorm_wordpool_576.txt	LTP373	ltpFR2	17	18	FOREHEAD	592	n/a	n/a	0	0	0
3871692	WORD	wordpools/wasnorm_wordpool_576.txt	LTP373	ltpFR2	17	18	TILE	1468	n/a	n/a	0	0	0
3874233	WORD	wordpools/wasnorm_wordpool_576.txt	LTP373	ltpFR2	17	18	PUPPY	1144	n/a	n/a	0	0	0
3876658	WORD	wordpools/wasnorm_wordpool_576.txt	LTP373	ltpFR2	17	18	GOBLIN	645	n/a	n/a	0	0	0
3879182	WORD	wordpools/wasnorm_wordpool_576.txt	LTP373	ltpFR2	17	18	FRIEND	606	n/a	n/a	0	0	0
3881875	WORD	wordpools/wasnorm_wordpool_576.txt	LTP373	ltpFR2	17	18	SIBLING	1301	n/a	n/a	0	0	0
3884333	WORD	wordpools/wasnorm_wordpool_576.txt	LTP373	ltpFR2	17	18	BLOUSE	139	n/a	n/a	0	0	0
3886808	WORD	wordpools/wasnorm_wordpool_576.txt	LTP373	ltpFR2	17	18	EXPERT	543	n/a	n/a	0	0	0
3889567	WORD	wordpools/wasnorm_wordpool_576.txt	LTP373	ltpFR2	17	18	COCKTAIL	338	n/a	n/a	0	0	0
3892359	WORD	wordpools/wasnorm_wordpool_576.txt	LTP373	ltpFR2	17	18	SCOTCH	1251	n/a	n/a	0	0	0
3895051	WORD	wordpools/wasnorm_wordpool_576.txt	LTP373	ltpFR2	17	18	BELLY	119	n/a	n/a	0	0	0
3897526	WORD	wordpools/wasnorm_wordpool_576.txt	LTP373	ltpFR2	17	18	ULCER	1533	n/a	n/a	0	0	0
3900318	WORD	wordpools/wasnorm_wordpool_576.txt	LTP373	ltpFR2	17	18	NECKLACE	940	n/a	n/a	0	0	0
3902893	WORD	wordpools/wasnorm_wordpool_576.txt	LTP373	ltpFR2	17	18	BLENDER	136	n/a	n/a	0	0	0
3905569	WORD	wordpools/wasnorm_wordpool_576.txt	LTP373	ltpFR2	17	18	RUST	1219	n/a	n/a	0	0	0
3908276	WORD	wordpools/wasnorm_wordpool_576.txt	LTP373	ltpFR2	17	18	SHIRT	1287	n/a	n/a	0	0	0
3910986	WORD	wordpools/wasnorm_wordpool_576.txt	LTP373	ltpFR2	17	18	MUSTARD	935	n/a	n/a	0	0	0
3913745	WORD	wordpools/wasnorm_wordpool_576.txt	LTP373	ltpFR2	17	18	MEAT	883	n/a	n/a	0	0	0
3916269	WORD	wordpools/wasnorm_wordpool_576.txt	LTP373	ltpFR2	17	18	SOFTBALL	1343	n/a	n/a	0	0	0
3919012	WORD	wordpools/wasnorm_wordpool_576.txt	LTP373	ltpFR2	17	18	RUG	1215	n/a	n/a	0	0	0
3921487	WORD	wordpools/wasnorm_wordpool_576.txt	LTP373	ltpFR2	17	18	TEACHER	1440	n/a	n/a	0	0	0
3924129	WORD	wordpools/wasnorm_wordpool_576.txt	LTP373	ltpFR2	17	18	TAXI	1438	n/a	n/a	0	0	0
3926603	WORD	wordpools/wasnorm_wordpool_576.txt	LTP373	ltpFR2	17	18	OFFICE	972	n/a	n/a	0	0	0
3929312	WORD	wordpools/wasnorm_wordpool_576.txt	LTP373	ltpFR2	17	18	TRANSPLANT	1496	n/a	n/a	0	0	0
3930917	START	n/a	LTP373	ltpFR2	17	n/a	n/a	n/a	26	n/a	n/a	n/a	n/a
3931978	DISTRACTOR	n/a	LTP373	ltpFR2	17	18	n/a	n/a	n/a	n/a	0	0	0
3931987	PROB	n/a	LTP373	ltpFR2	17	n/a	n/a	n/a	26	16	6	1	9
3933860	PROB	n/a	LTP373	ltpFR2	17	n/a	n/a	n/a	26	14	7	1	6
3935900	PROB	n/a	LTP373	ltpFR2	17	n/a	n/a	n/a	26	21	6	8	7
3938057	PROB	n/a	LTP373	ltpFR2	17	n/a	n/a	n/a	26	15	6	4	5
3940097	PROB	n/a	LTP373	ltpFR2	17	n/a	n/a	n/a	26	11	4	1	6
3942505	PROB	n/a	LTP373	ltpFR2	17	n/a	n/a	n/a	26	7	1	3	3
3943776	PROB	n/a	LTP373	ltpFR2	17	n/a	n/a	n/a	26	13	3	7	3
3944812	PROB	n/a	LTP373	ltpFR2	17	n/a	n/a	n/a	26	26	8	9	9
3947253	PROB	n/a	LTP373	ltpFR2	17	n/a	n/a	n/a	26	15	7	6	2
3949294	PROB	n/a	LTP373	ltpFR2	17	n/a	n/a	n/a	26	14	5	6	3
3951149	PROB	n/a	LTP373	ltpFR2	17	n/a	n/a	n/a	26	8	4	3	1
3952521	PROB	n/a	LTP373	ltpFR2	17	n/a	n/a	n/a	26	12	2	5	5
3953638	STOP	n/a	LTP373	ltpFR2	17	n/a	n/a	n/a	26	n/a	n/a	n/a	n/a
3956752	REC_START	n/a	LTP373	ltpFR2	17	18	n/a	n/a	n/a	n/a	0	0	0
3957940	REC_WORD	wordpools/wasnorm_wordpool_576.txt	LTP373	ltpFR2	17	18	PUPPY	1144	n/a	n/a	0	0	0
3958951	REC_WORD	wordpools/wasnorm_wordpool_576.txt	LTP373	ltpFR2	17	18	FOREHEAD	592	n/a	n/a	0	0	0
3960186	REC_WORD	wordpools/wasnorm_wordpool_576.txt	LTP373	ltpFR2	17	18	TILE	1468	n/a	n/a	0	0	0
3961177	REC_WORD	wordpools/wasnorm_wordpool_576.txt	LTP373	ltpFR2	17	18	FRIEND	606	n/a	n/a	0	0	0
3962762	REC_WORD	wordpools/wasnorm_wordpool_576.txt	LTP373	ltpFR2	17	18	SIBLING	1301	n/a	n/a	0	0	0
3963989	REC_WORD	wordpools/wasnorm_wordpool_576.txt	LTP373	ltpFR2	17	18	EXPERT	543	n/a	n/a	0	0	0
3965006	REC_WORD	wordpools/wasnorm_wordpool_576.txt	LTP373	ltpFR2	17	18	BLENDER	136	n/a	n/a	0	0	0
3965884	REC_WORD	wordpools/wasnorm_wordpool_576.txt	LTP373	ltpFR2	17	18	SCOTCH	1251	n/a	n/a	0	0	0
3967172	REC_WORD	wordpools/wasnorm_wordpool_576.txt	LTP373	ltpFR2	17	18	COCKTAIL	338	n/a	n/a	0	0	0
3982053	REC_WORD	wordpools/wasnorm_wordpool_576.txt	LTP373	ltpFR2	17	18	MUSTARD	935	n/a	n/a	0	0	0
3983001	REC_WORD	wordpools/wasnorm_wordpool_576.txt	LTP373	ltpFR2	17	18	MEAT	883	n/a	n/a	0	0	0
3984078	REC_WORD	wordpools/wasnorm_wordpool_576.txt	LTP373	ltpFR2	17	18	RUG	1215	n/a	n/a	0	0	0
3985821	REC_WORD	wordpools/wasnorm_wordpool_576.txt	LTP373	ltpFR2	17	18	TEACHER	1440	n/a	n/a	0	0	0
3986832	REC_WORD	wordpools/wasnorm_wordpool_576.txt	LTP373	ltpFR2	17	18	OFFICE	972	n/a	n/a	0	0	0
4000549	REC_WORD	wordpools/wasnorm_wordpool_576.txt	LTP373	ltpFR2	17	18	SHIRT	1287	n/a	n/a	0	0	0
4047193	DISTRACTOR	n/a	LTP373	ltpFR2	17	19	n/a	n/a	n/a	n/a	0	0	0
4047193	START	n/a	LTP373	ltpFR2	17	n/a	n/a	n/a	27	n/a	n/a	n/a	n/a
4047210	PROB	n/a	LTP373	ltpFR2	17	n/a	n/a	n/a	27	21	9	6	6
4049485	PROB	n/a	LTP373	ltpFR2	17	n/a	n/a	n/a	27	15	2	9	4
4051157	PROB	n/a	LTP373	ltpFR2	17	n/a	n/a	n/a	27	15	4	8	3
4052829	PROB	n/a	LTP373	ltpFR2	17	n/a	n/a	n/a	27	10	1	3	6
4054417	PROB	n/a	LTP373	ltpFR2	17	n/a	n/a	n/a	27	22	8	7	7
4055889	PROB	n/a	LTP373	ltpFR2	17	n/a	n/a	n/a	27	7	4	1	2
4058262	PROB	n/a	LTP373	ltpFR2	17	n/a	n/a	n/a	27	17	5	7	5
4059651	PROB	n/a	LTP373	ltpFR2	17	n/a	n/a	n/a	27	15	5	9	1
4062878	PROB	n/a	LTP373	ltpFR2	17	n/a	n/a	n/a	27	14	2	5	7
4064834	PROB	n/a	LTP373	ltpFR2	17	n/a	n/a	n/a	27	12	2	9	1
4066339	PROB	n/a	LTP373	ltpFR2	17	n/a	n/a	n/a	27	21	6	7	8
4069729	STOP	n/a	LTP373	ltpFR2	17	n/a	n/a	n/a	27	n/a	n/a	n/a	n/a
4072342	WORD	wordpools/wasnorm_wordpool_576.txt	LTP373	ltpFR2	17	19	BOX	159	n/a	n/a	0	0	0
4074951	WORD	wordpools/wasnorm_wordpool_576.txt	LTP373	ltpFR2	17	19	APPLE	33	n/a	n/a	0	0	0
4077526	WORD	wordpools/wasnorm_wordpool_576.txt	LTP373	ltpFR2	17	19	HOOK	715	n/a	n/a	0	0	0
4080200	WORD	wordpools/wasnorm_wordpool_576.txt	LTP373	ltpFR2	17	19	HAND	683	n/a	n/a	0	0	0
4082843	WORD	wordpools/wasnorm_wordpool_576.txt	LTP373	ltpFR2	17	19	MESSAGE	888	n/a	n/a	0	0	0
4085635	WORD	wordpools/wasnorm_wordpool_576.txt	LTP373	ltpFR2	17	19	RIFLE	1192	n/a	n/a	0	0	0
4088394	WORD	wordpools/wasnorm_wordpool_576.txt	LTP373	ltpFR2	17	19	LAMP	798	n/a	n/a	0	0	0
4091136	WORD	wordpools/wasnorm_wordpool_576.txt	LTP373	ltpFR2	17	19	SILK	1307	n/a	n/a	0	0	0
4093929	WORD	wordpools/wasnorm_wordpool_576.txt	LTP373	ltpFR2	17	19	MUFFIN	929	n/a	n/a	0	0	0
4096654	WORD	wordpools/wasnorm_wordpool_576.txt	LTP373	ltpFR2	17	19	AUTHOR	61	n/a	n/a	0	0	0
4099129	WORD	wordpools/wasnorm_wordpool_576.txt	LTP373	ltpFR2	17	19	KEEPER	769	n/a	n/a	0	0	0
4101570	WORD	wordpools/wasnorm_wordpool_576.txt	LTP373	ltpFR2	17	19	STAMP	1370	n/a	n/a	0	0	0
4103995	WORD	wordpools/wasnorm_wordpool_576.txt	LTP373	ltpFR2	17	19	LUNCH	849	n/a	n/a	0	0	0
4106637	WORD	wordpools/wasnorm_wordpool_576.txt	LTP373	ltpFR2	17	19	YACHT	1629	n/a	n/a	0	0	0
4109345	WORD	wordpools/wasnorm_wordpool_576.txt	LTP373	ltpFR2	17	19	TRENCH	1503	n/a	n/a	0	0	0
4112154	WORD	wordpools/wasnorm_wordpool_576.txt	LTP373	ltpFR2	17	19	DRESSER	496	n/a	n/a	0	0	0
4114813	WORD	wordpools/wasnorm_wordpool_576.txt	LTP373	ltpFR2	17	19	BACON	67	n/a	n/a	0	0	0
4117422	WORD	wordpools/wasnorm_wordpool_576.txt	LTP373	ltpFR2	17	19	POCKET	1093	n/a	n/a	0	0	0
4120130	WORD	wordpools/wasnorm_wordpool_576.txt	LTP373	ltpFR2	17	19	BUNNY	198	n/a	n/a	0	0	0
4122856	WORD	wordpools/wasnorm_wordpool_576.txt	LTP373	ltpFR2	17	19	RABBIT	1152	n/a	n/a	0	0	0
4125548	WORD	wordpools/wasnorm_wordpool_576.txt	LTP373	ltpFR2	17	19	TRACTOR	1493	n/a	n/a	0	0	0
4128239	WORD	wordpools/wasnorm_wordpool_576.txt	LTP373	ltpFR2	17	19	MACHINE	852	n/a	n/a	0	0	0
4130982	WORD	wordpools/wasnorm_wordpool_576.txt	LTP373	ltpFR2	17	19	WASHER	1592	n/a	n/a	0	0	0
4133457	WORD	wordpools/wasnorm_wordpool_576.txt	LTP373	ltpFR2	17	19	FLASHLIGHT	575	n/a	n/a	0	0	0
4135062	START	n/a	LTP373	ltpFR2	17	n/a	n/a	n/a	28	n/a	n/a	n/a	n/a
4135893	DISTRACTOR	n/a	LTP373	ltpFR2	17	19	n/a	n/a	n/a	n/a	0	0	0
4135898	PROB	n/a	LTP373	ltpFR2	17	n/a	n/a	n/a	28	14	8	3	3
4137553	PROB	n/a	LTP373	ltpFR2	17	n/a	n/a	n/a	28	9	1	2	6
4138623	PROB	n/a	LTP373	ltpFR2	17	n/a	n/a	n/a	28	16	6	5	5
4139760	PROB	n/a	LTP373	ltpFR2	17	n/a	n/a	n/a	28	25	7	9	9
4141784	PROB	n/a	LTP373	ltpFR2	17	n/a	n/a	n/a	28	16	5	7	4
4143874	PROB	n/a	LTP373	ltpFR2	17	n/a	n/a	n/a	28	12	2	1	9
4145044	PROB	n/a	LTP373	ltpFR2	17	n/a	n/a	n/a	28	15	4	4	7
4146231	PROB	n/a	LTP373	ltpFR2	17	n/a	n/a	n/a	28	7	2	2	3
4147352	PROB	n/a	LTP373	ltpFR2	17	n/a	n/a	n/a	28	17	6	4	7
4148472	PROB	n/a	LTP373	ltpFR2	17	n/a	n/a	n/a	28	8	2	2	4
4150010	PROB	n/a	LTP373	ltpFR2	17	n/a	n/a	n/a	28	15	2	6	7
4152970	PROB	n/a	LTP373	ltpFR2	17	n/a	n/a	n/a	28	17	6	6	5
4154341	PROB	n/a	LTP373	ltpFR2	17	n/a	n/a	n/a	28	12	4	2	6
4155779	PROB	n/a	LTP373	ltpFR2	17	n/a	n/a	n/a	28	13	8	4	1
4157183	PROB	n/a	LTP373	ltpFR2	17	n/a	n/a	n/a	28	13	2	4	7
4158308	STOP	n/a	LTP373	ltpFR2	17	n/a	n/a	n/a	28	n/a	n/a	n/a	n/a
4160846	REC_START	n/a	LTP373	ltpFR2	17	19	n/a	n/a	n/a	n/a	0	0	0
4161768	REC_WORD	wordpools/wasnorm_wordpool_576.txt	LTP373	ltpFR2	17	19	TRACTOR	1493	n/a	n/a	0	0	0
4162842	REC_WORD	wordpools/wasnorm_wordpool_576.txt	LTP373	ltpFR2	17	19	MACHINE	852	n/a	n/a	0	0	0
4164105	REC_WORD	wordpools/wasnorm_wordpool_576.txt	LTP373	ltpFR2	17	19	YACHT	1629	n/a	n/a	0	0	0
4165380	REC_WORD	wordpools/wasnorm_wordpool_576.txt	LTP373	ltpFR2	17	19	TRENCH	1503	n/a	n/a	0	0	0
4169525	REC_WORD	wordpools/wasnorm_wordpool_576.txt	LTP373	ltpFR2	17	19	POCKET	1093	n/a	n/a	0	0	0
4170574	REC_WORD	wordpools/wasnorm_wordpool_576.txt	LTP373	ltpFR2	17	19	BUNNY	198	n/a	n/a	0	0	0
4171614	REC_WORD	wordpools/wasnorm_wordpool_576.txt	LTP373	ltpFR2	17	19	RABBIT	1152	n/a	n/a	0	0	0
4172686	REC_WORD	wordpools/wasnorm_wordpool_576.txt	LTP373	ltpFR2	17	19	APPLE	33	n/a	n/a	0	0	0
4173990	REC_WORD	wordpools/wasnorm_wordpool_576.txt	LTP373	ltpFR2	17	19	BACON	67	n/a	n/a	0	0	0
4174864	REC_WORD	wordpools/wasnorm_wordpool_576.txt	LTP373	ltpFR2	17	19	MUFFIN	929	n/a	n/a	0	0	0
4176246	REC_WORD	wordpools/wasnorm_wordpool_576.txt	LTP373	ltpFR2	17	19	BOX	159	n/a	n/a	0	0	0
4177338	REC_WORD	wordpools/wasnorm_wordpool_576.txt	LTP373	ltpFR2	17	19	HOOK	715	n/a	n/a	0	0	0
4179992	REC_WORD	wordpools/wasnorm_wordpool_576.txt	LTP373	ltpFR2	17	19	HAND	683	n/a	n/a	0	0	0
4181138	REC_WORD	wordpools/wasnorm_wordpool_576.txt	LTP373	ltpFR2	17	19	MESSAGE	888	n/a	n/a	0	0	0
4182322	REC_WORD	wordpools/wasnorm_wordpool_576.txt	LTP373	ltpFR2	17	19	AUTHOR	61	n/a	n/a	0	0	0
4183625	REC_WORD	wordpools/wasnorm_wordpool_576.txt	LTP373	ltpFR2	17	19	STAMP	1370	n/a	n/a	0	0	0
4251322	WORD	wordpools/wasnorm_wordpool_576.txt	LTP373	ltpFR2	17	20	TWIG	1527	n/a	n/a	0	0	0
4253797	WORD	wordpools/wasnorm_wordpool_576.txt	LTP373	ltpFR2	17	20	AGENT	10	n/a	n/a	0	0	0
4256438	WORD	wordpools/wasnorm_wordpool_576.txt	LTP373	ltpFR2	17	20	CURTAIN	427	n/a	n/a	0	0	0
4259030	WORD	wordpools/wasnorm_wordpool_576.txt	LTP373	ltpFR2	17	20	MAPLE	866	n/a	n/a	0	0	0
4261706	WORD	wordpools/wasnorm_wordpool_576.txt	LTP373	ltpFR2	17	20	LADY	794	n/a	n/a	0	0	0
4264398	WORD	wordpools/wasnorm_wordpool_576.txt	LTP373	ltpFR2	17	20	MISTER	901	n/a	n/a	0	0	0
4266872	WORD	wordpools/wasnorm_wordpool_576.txt	LTP373	ltpFR2	17	20	HAWK	692	n/a	n/a	0	0	0
4269397	WORD	wordpools/wasnorm_wordpool_576.txt	LTP373	ltpFR2	17	20	SPIDER	1351	n/a	n/a	0	0	0
4272039	WORD	wordpools/wasnorm_wordpool_576.txt	LTP373	ltpFR2	17	20	CROWN	415	n/a	n/a	0	0	0
4274648	WORD	wordpools/wasnorm_wordpool_576.txt	LTP373	ltpFR2	17	20	BANJO	82	n/a	n/a	0	0	0
4277238	WORD	wordpools/wasnorm_wordpool_576.txt	LTP373	ltpFR2	17	20	CATTLE	261	n/a	n/a	0	0	0
4279915	WORD	wordpools/wasnorm_wordpool_576.txt	LTP373	ltpFR2	17	20	BRAKE	166	n/a	n/a	0	0	0
4282389	WORD	wordpools/wasnorm_wordpool_576.txt	LTP373	ltpFR2	17	20	SLUG	1329	n/a	n/a	0	0	0
4284830	WORD	wordpools/wasnorm_wordpool_576.txt	LTP373	ltpFR2	17	20	ORCHID	982	n/a	n/a	0	0	0
4287606	WORD	wordpools/wasnorm_wordpool_576.txt	LTP373	ltpFR2	17	20	HEDGE	699	n/a	n/a	0	0	0
4290264	WORD	wordpools/wasnorm_wordpool_576.txt	LTP373	ltpFR2	17	20	PICNIC	1060	n/a	n/a	0	0	0
4292974	WORD	wordpools/wasnorm_wordpool_576.txt	LTP373	ltpFR2	17	20	CRIB	407	n/a	n/a	0	0	0
4295615	WORD	wordpools/wasnorm_wordpool_576.txt	LTP373	ltpFR2	17	20	CHILD	299	n/a	n/a	0	0	0
4298040	WORD	wordpools/wasnorm_wordpool_576.txt	LTP373	ltpFR2	17	20	BUTCHER	203	n/a	n/a	0	0	0
4300765	WORD	wordpools/wasnorm_wordpool_576.txt	LTP373	ltpFR2	17	20	ACTOR	5	n/a	n/a	0	0	0
4303289	WORD	wordpools/wasnorm_wordpool_576.txt	LTP373	ltpFR2	17	20	TROMBONE	1508	n/a	n/a	0	0	0
4306066	WORD	wordpools/wasnorm_wordpool_576.txt	LTP373	ltpFR2	17	20	SCALPEL	1243	n/a	n/a	0	0	0
4308574	WORD	wordpools/wasnorm_wordpool_576.txt	LTP373	ltpFR2	17	20	MILK	895	n/a	n/a	0	0	0
4311316	WORD	wordpools/wasnorm_wordpool_576.txt	LTP373	ltpFR2	17	20	NIGHTGOWN	953	n/a	n/a	0	0	0
4312922	START	n/a	LTP373	ltpFR2	17	n/a	n/a	n/a	29	n/a	n/a	n/a	n/a
4313772	DISTRACTOR	n/a	LTP373	ltpFR2	17	20	n/a	n/a	n/a	n/a	0	0	0
4313774	PROB	n/a	LTP373	ltpFR2	17	n/a	n/a	n/a	29	8	4	2	2
4316500	PROB	n/a	LTP373	ltpFR2	17	n/a	n/a	n/a	29	10	1	4	5
4318254	PROB	n/a	LTP373	ltpFR2	17	n/a	n/a	n/a	29	10	1	5	4
4319777	PROB	n/a	LTP373	ltpFR2	17	n/a	n/a	n/a	29	11	3	6	2
4322753	PROB	n/a	LTP373	ltpFR2	17	n/a	n/a	n/a	29	10	2	2	6
4323840	PROB	n/a	LTP373	ltpFR2	17	n/a	n/a	n/a	29	17	7	2	8
4325629	PROB	n/a	LTP373	ltpFR2	17	n/a	n/a	n/a	29	18	3	6	9
4327903	PROB	n/a	LTP373	ltpFR2	17	n/a	n/a	n/a	29	21	6	6	9
4329542	PROB	n/a	LTP373	ltpFR2	17	n/a	n/a	n/a	29	19	5	9	5
4331196	PROB	n/a	LTP373	ltpFR2	17	n/a	n/a	n/a	29	9	1	5	3
4332769	PROB	n/a	LTP373	ltpFR2	17	n/a	n/a	n/a	29	5	3	1	1
4333789	PROB	n/a	LTP373	ltpFR2	17	n/a	n/a	n/a	29	19	7	4	8
4335633	STOP	n/a	LTP373	ltpFR2	17	n/a	n/a	n/a	29	n/a	n/a	n/a	n/a
4338706	REC_START	n/a	LTP373	ltpFR2	17	20	n/a	n/a	n/a	n/a	0	0	0
4339487	REC_WORD	wordpools/wasnorm_wordpool_576.txt	LTP373	ltpFR2	17	20	BUTCHER	203	n/a	n/a	0	0	0
4340283	REC_WORD	wordpools/wasnorm_wordpool_576.txt	LTP373	ltpFR2	17	20	SCALPEL	1243	n/a	n/a	0	0	0
4341593	REC_WORD	wordpools/wasnorm_wordpool_576.txt	LTP373	ltpFR2	17	20	MILK	895	n/a	n/a	0	0	0
4344506	REC_WORD	wordpools/wasnorm_wordpool_576.txt	LTP373	ltpFR2	17	20	ACTOR	5	n/a	n/a	0	0	0
4350158	REC_WORD	wordpools/wasnorm_wordpool_576.txt	LTP373	ltpFR2	17	20	NIGHTGOWN	953	n/a	n/a	0	0	0
4355610	REC_WORD	wordpools/wasnorm_wordpool_576.txt	LTP373	ltpFR2	17	20	BANJO	82	n/a	n/a	0	0	0
4356265	REC_WORD	wordpools/wasnorm_wordpool_576.txt	LTP373	ltpFR2	17	20	TROMBONE	1508	n/a	n/a	0	0	0
4360126	REC_WORD	wordpools/wasnorm_wordpool_576.txt	LTP373	ltpFR2	17	20	CATTLE	261	n/a	n/a	0	0	0
4362665	REC_WORD	wordpools/wasnorm_wordpool_576.txt	LTP373	ltpFR2	17	20	SPIDER	1351	n/a	n/a	0	0	0
4363540	REC_WORD	wordpools/wasnorm_wordpool_576.txt	LTP373	ltpFR2	17	20	SNAIL	1332	n/a	n/a	0	0	0
4366211	REC_WORD	wordpools/wasnorm_wordpool_576.txt	LTP373	ltpFR2	17	20	INFANT	737	n/a	n/a	0	0	0
4367081	REC_WORD	wordpools/wasnorm_wordpool_576.txt	LTP373	ltpFR2	17	20	CRIB	407	n/a	n/a	0	0	0
4370495	REC_WORD	wordpools/wasnorm_wordpool_576.txt	LTP373	ltpFR2	17	20	BABY	64	n/a	n/a	0	0	0
4381666	REC_WORD	wordpools/wasnorm_wordpool_576.txt	LTP373	ltpFR2	17	20	MISTER	901	n/a	n/a	0	0	0
4382697	REC_WORD	wordpools/wasnorm_wordpool_576.txt	LTP373	ltpFR2	17	20	LADY	794	n/a	n/a	0	0	0
4383726	REC_WORD	wordpools/wasnorm_wordpool_576.txt	LTP373	ltpFR2	17	20	AGENT	10	n/a	n/a	0	0	0
4384620	REC_WORD	wordpools/wasnorm_wordpool_576.txt	LTP373	ltpFR2	17	20	MAPLE	866	n/a	n/a	0	0	0
4386208	REC_WORD	wordpools/wasnorm_wordpool_576.txt	LTP373	ltpFR2	17	20	TWIG	1527	n/a	n/a	0	0	0
4429148	DISTRACTOR	n/a	LTP373	ltpFR2	17	21	n/a	n/a	n/a	n/a	0	0	0
4429148	START	n/a	LTP373	ltpFR2	17	n/a	n/a	n/a	30	n/a	n/a	n/a	n/a
4429164	PROB	n/a	LTP373	ltpFR2	17	n/a	n/a	n/a	30	11	4	2	5
4431305	PROB	n/a	LTP373	ltpFR2	17	n/a	n/a	n/a	30	17	4	7	6
4433128	PROB	n/a	LTP373	ltpFR2	17	n/a	n/a	n/a	30	22	7	7	8
4434582	PROB	n/a	LTP373	ltpFR2	17	n/a	n/a	n/a	30	16	5	4	7
4436789	PROB	n/a	LTP373	ltpFR2	17	n/a	n/a	n/a	30	16	4	7	5
4439047	PROB	n/a	LTP373	ltpFR2	17	n/a	n/a	n/a	30	12	3	3	6
4440283	PROB	n/a	LTP373	ltpFR2	17	n/a	n/a	n/a	30	13	5	3	5
4441538	PROB	n/a	LTP373	ltpFR2	17	n/a	n/a	n/a	30	11	6	4	1
4442692	PROB	n/a	LTP373	ltpFR2	17	n/a	n/a	n/a	30	12	3	6	2
4444013	PROB	n/a	LTP373	ltpFR2	17	n/a	n/a	n/a	30	15	6	8	1
4445434	PROB	n/a	LTP373	ltpFR2	17	n/a	n/a	n/a	30	1	2	1	7
4446972	PROB	n/a	LTP373	ltpFR2	17	n/a	n/a	n/a	30	16	7	4	5
4453147	STOP	n/a	LTP373	ltpFR2	17	n/a	n/a	n/a	30	n/a	n/a	n/a	n/a
4454146	WORD	wordpools/wasnorm_wordpool_576.txt	LTP373	ltpFR2	17	21	LION	827	n/a	n/a	0	0	0
4456854	WORD	wordpools/wasnorm_wordpool_576.txt	LTP373	ltpFR2	17	21	SPONGE	1355	n/a	n/a	0	0	0
4459379	WORD	wordpools/wasnorm_wordpool_576.txt	LTP373	ltpFR2	17	21	STAKE	1368	n/a	n/a	0	0	0
4461988	WORD	wordpools/wasnorm_wordpool_576.txt	LTP373	ltpFR2	17	21	BLOCKADE	137	n/a	n/a	0	0	0
4464513	WORD	wordpools/wasnorm_wordpool_576.txt	LTP373	ltpFR2	17	21	PRINCE	1124	n/a	n/a	0	0	0
4467088	WORD	wordpools/wasnorm_wordpool_576.txt	LTP373	ltpFR2	17	21	CLAMP	316	n/a	n/a	0	0	0
4469746	WORD	wordpools/wasnorm_wordpool_576.txt	LTP373	ltpFR2	17	21	TRUCK	1512	n/a	n/a	0	0	0
4472488	WORD	wordpools/wasnorm_wordpool_576.txt	LTP373	ltpFR2	17	21	SALAD	1224	n/a	n/a	0	0	0
4474996	WORD	wordpools/wasnorm_wordpool_576.txt	LTP373	ltpFR2	17	21	LEOPARD	812	n/a	n/a	0	0	0
4477471	WORD	wordpools/wasnorm_wordpool_576.txt	LTP373	ltpFR2	17	21	PIZZA	1079	n/a	n/a	0	0	0
4480130	WORD	wordpools/wasnorm_wordpool_576.txt	LTP373	ltpFR2	17	21	STREAM	1392	n/a	n/a	0	0	0
4482905	WORD	wordpools/wasnorm_wordpool_576.txt	LTP373	ltpFR2	17	21	PRIMATE	1123	n/a	n/a	0	0	0
4485564	WORD	wordpools/wasnorm_wordpool_576.txt	LTP373	ltpFR2	17	21	CAFE	216	n/a	n/a	0	0	0
4488373	WORD	wordpools/wasnorm_wordpool_576.txt	LTP373	ltpFR2	17	21	KITCHEN	778	n/a	n/a	0	0	0
4490965	WORD	wordpools/wasnorm_wordpool_576.txt	LTP373	ltpFR2	17	21	FIDDLE	561	n/a	n/a	0	0	0
4493406	WORD	wordpools/wasnorm_wordpool_576.txt	LTP373	ltpFR2	17	21	WHISTLE	1606	n/a	n/a	0	0	0
4495981	WORD	wordpools/wasnorm_wordpool_576.txt	LTP373	ltpFR2	17	21	NOTEBOOK	959	n/a	n/a	0	0	0
4498690	WORD	wordpools/wasnorm_wordpool_576.txt	LTP373	ltpFR2	17	21	ROBOT	1200	n/a	n/a	0	0	0
4501449	WORD	wordpools/wasnorm_wordpool_576.txt	LTP373	ltpFR2	17	21	HOOD	714	n/a	n/a	0	0	0
4503890	WORD	wordpools/wasnorm_wordpool_576.txt	LTP373	ltpFR2	17	21	BRACES	164	n/a	n/a	0	0	0
4506649	WORD	wordpools/wasnorm_wordpool_576.txt	LTP373	ltpFR2	17	21	RAFT	1159	n/a	n/a	0	0	0
4509408	WORD	wordpools/wasnorm_wordpool_576.txt	LTP373	ltpFR2	17	21	BOYFRIEND	162	n/a	n/a	0	0	0
4512067	WORD	wordpools/wasnorm_wordpool_576.txt	LTP373	ltpFR2	17	21	LOVER	846	n/a	n/a	0	0	0
4514725	WORD	wordpools/wasnorm_wordpool_576.txt	LTP373	ltpFR2	17	21	BLUEPRINT	142	n/a	n/a	0	0	0
4516331	START	n/a	LTP373	ltpFR2	17	n/a	n/a	n/a	31	n/a	n/a	n/a	n/a
4517453	DISTRACTOR	n/a	LTP373	ltpFR2	17	21	n/a	n/a	n/a	n/a	0	0	0
4517467	PROB	n/a	LTP373	ltpFR2	17	n/a	n/a	n/a	31	19	3	9	7
4519039	PROB	n/a	LTP373	ltpFR2	17	n/a	n/a	n/a	31	18	7	7	4
4520209	PROB	n/a	LTP373	ltpFR2	17	n/a	n/a	n/a	31	15	8	3	4
4522082	PROB	n/a	LTP373	ltpFR2	17	n/a	n/a	n/a	31	5	2	2	1
4523035	PROB	n/a	LTP373	ltpFR2	17	n/a	n/a	n/a	31	8	1	6	1
4524238	PROB	n/a	LTP373	ltpFR2	17	n/a	n/a	n/a	31	19	6	6	7
4525460	PROB	n/a	LTP373	ltpFR2	17	n/a	n/a	n/a	31	20	9	5	6
4528235	PROB	n/a	LTP373	ltpFR2	17	n/a	n/a	n/a	31	15	9	3	3
4529841	PROB	n/a	LTP373	ltpFR2	17	n/a	n/a	n/a	31	16	1	8	7
4530978	PROB	n/a	LTP373	ltpFR2	17	n/a	n/a	n/a	31	13	6	6	1
4532048	PROB	n/a	LTP373	ltpFR2	17	n/a	n/a	n/a	31	11	3	4	4
4533419	PROB	n/a	LTP373	ltpFR2	17	n/a	n/a	n/a	31	19	4	9	6
4534991	PROB	n/a	LTP373	ltpFR2	17	n/a	n/a	n/a	31	13	8	1	4
4536145	PROB	n/a	LTP373	ltpFR2	17	n/a	n/a	n/a	31	14	1	5	8
4537465	PROB	n/a	LTP373	ltpFR2	17	n/a	n/a	n/a	31	17	5	3	9
4539064	STOP	n/a	LTP373	ltpFR2	17	n/a	n/a	n/a	31	n/a	n/a	n/a	n/a
4542197	REC_START	n/a	LTP373	ltpFR2	17	21	n/a	n/a	n/a	n/a	0	0	0
4544275	REC_WORD	wordpools/wasnorm_wordpool_576.txt	LTP373	ltpFR2	17	21	BLUEPRINT	142	n/a	n/a	0	0	0
4545520	REC_WORD	wordpools/wasnorm_wordpool_576.txt	LTP373	ltpFR2	17	21	PRINCE	1124	n/a	n/a	0	0	0
4547098	REC_WORD	wordpools/wasnorm_wordpool_576.txt	LTP373	ltpFR2	17	21	LOVER	846	n/a	n/a	0	0	0
4555996	REC_WORD	wordpools/wasnorm_wordpool_576.txt	LTP373	ltpFR2	17	21	BOYFRIEND	162	n/a	n/a	0	0	0
4557039	REC_WORD	wordpools/wasnorm_wordpool_576.txt	LTP373	ltpFR2	17	21	WHISTLE	1606	n/a	n/a	0	0	0
4558151	REC_WORD	wordpools/wasnorm_wordpool_576.txt	LTP373	ltpFR2	17	21	FIDDLE	561	n/a	n/a	0	0	0
4561127	REC_WORD	wordpools/wasnorm_wordpool_576.txt	LTP373	ltpFR2	17	21	BLOCKADE	137	n/a	n/a	0	0	0
4562281	REC_WORD	wordpools/wasnorm_wordpool_576.txt	LTP373	ltpFR2	17	21	SPONGE	1355	n/a	n/a	0	0	0
4563404	REC_WORD	wordpools/wasnorm_wordpool_576.txt	LTP373	ltpFR2	17	21	SALAD	1224	n/a	n/a	0	0	0
4564553	REC_WORD	wordpools/wasnorm_wordpool_576.txt	LTP373	ltpFR2	17	21	LEOPARD	812	n/a	n/a	0	0	0
