mstime	trial_type	stim_file	subject	experiment	session	trial	task	item_name	item_num	recog_conf	resp	color_b	color_g	color_r	case	font
0	SESS_START	n/a	LTP202	ltpFR	17	n/a	n/a	n/a	n/a	3	n/a	n/a	n/a	n/a	n/a	n/a
22391	WORD	wordpools/wasnorm_wordpool_less_exclusions.txt	LTP202	ltpFR	17	1	0	NAVIGATOR	938	n/a	1	0	0.5869140625	0.422607421875	lower	../fonts/zerothre.ttf
26435	WORD	wordpools/wasnorm_wordpool_less_exclusions.txt	LTP202	ltpFR	17	1	0	SLUG	1329	n/a	0	0	0.5869140625	0.422607421875	lower	../fonts/zerothre.ttf
30578	WORD	wordpools/wasnorm_wordpool_less_exclusions.txt	LTP202	ltpFR	17	1	0	SCAPEGOAT	1244	n/a	1	0	0.5869140625	0.422607421875	lower	../fonts/zerothre.ttf
34722	WORD	wordpools/wasnorm_wordpool_less_exclusions.txt	LTP202	ltpFR	17	1	0	RADISH	1158	n/a	0	0	0.5869140625	0.422607421875	lower	../fonts/zerothre.ttf
38549	WORD	wordpools/wasnorm_wordpool_less_exclusions.txt	LTP202	ltpFR	17	1	1	TREE	1502	n/a	1	1	0.412841796875	0.57763671875	upper	../fonts/amplitud.ttf
42428	WORD	wordpools/wasnorm_wordpool_less_exclusions.txt	LTP202	ltpFR	17	1	1	OX	994	n/a	1	1	0.412841796875	0.57763671875	upper	../fonts/amplitud.ttf
46438	WORD	wordpools/wasnorm_wordpool_less_exclusions.txt	LTP202	ltpFR	17	1	1	LETTUCE	814	n/a	0	1	0.412841796875	0.57763671875	upper	../fonts/amplitud.ttf
50449	WORD	wordpools/wasnorm_wordpool_less_exclusions.txt	LTP202	ltpFR	17	1	1	LASER	801	n/a	0	1	0.412841796875	0.57763671875	upper	../fonts/amplitud.ttf
54310	WORD	wordpools/wasnorm_wordpool_less_exclusions.txt	LTP202	ltpFR	17	1	1	LOFT	840	n/a	0	1	0.412841796875	0.57763671875	upper	../fonts/amplitud.ttf
58337	WORD	wordpools/wasnorm_wordpool_less_exclusions.txt	LTP202	ltpFR	17	1	0	HOUSE	725	n/a	1	0	0.5869140625	0.422607421875	lower	../fonts/zerothre.ttf
62281	WORD	wordpools/wasnorm_wordpool_less_exclusions.txt	LTP202	ltpFR	17	1	0	LAGOON	795	n/a	1	0	0.5869140625	0.422607421875	lower	../fonts/zerothre.ttf
66176	WORD	wordpools/wasnorm_wordpool_less_exclusions.txt	LTP202	ltpFR	17	1	1	STEAM	1375	n/a	0	1	0.412841796875	0.57763671875	upper	../fonts/amplitud.ttf
70036	WORD	wordpools/wasnorm_wordpool_less_exclusions.txt	LTP202	ltpFR	17	1	1	MATCH	878	n/a	0	1	0.412841796875	0.57763671875	upper	../fonts/amplitud.ttf
73997	WORD	wordpools/wasnorm_wordpool_less_exclusions.txt	LTP202	ltpFR	17	1	1	DRESSER	496	n/a	0	1	0.412841796875	0.57763671875	upper	../fonts/amplitud.ttf
77825	WORD	wordpools/wasnorm_wordpool_less_exclusions.txt	LTP202	ltpFR	17	1	0	GRASSHOPPER	656	n/a	0	0	0.5869140625	0.422607421875	lower	../fonts/zerothre.ttf
81869	WORD	wordpools/wasnorm_wordpool_less_exclusions.txt	LTP202	ltpFR	17	1	0	TERMITE	1451	n/a	0	0	0.5869140625	0.422607421875	lower	../fonts/zerothre.ttf
87727	REC_START	n/a	LTP202	ltpFR	17	1	n/a	n/a	n/a	n/a	n/a	n/a	n/a	n/a	n/a	n/a
88061	REC_WORD	wordpools/wasnorm_wordpool_less_exclusions.txt	LTP202	ltpFR	17	1	0	HOUSE	725	n/a	1	n/a	n/a	n/a	n/a	n/a
88491	REC_WORD	wordpools/wasnorm_wordpool_less_exclusions.txt	LTP202	ltpFR	17	1	0	LAGOON	795	n/a	1	n/a	n/a	n/a	n/a	n/a
89173	REC_WORD	wordpools/wasnorm_wordpool_less_exclusions.txt	LTP202	ltpFR	17	1	1	STEAM	1375	n/a	0	n/a	n/a	n/a	n/a	n/a
90027	REC_WORD	wordpools/wasnorm_wordpool_less_exclusions.txt	LTP202	ltpFR	17	1	1	MATCH	878	n/a	0	n/a	n/a	n/a	n/a	n/a
90650	REC_WORD	wordpools/wasnorm_wordpool_less_exclusions.txt	LTP202	ltpFR	17	1	1	DRESSER	496	n/a	0	n/a	n/a	n/a	n/a	n/a
93499	REC_WORD	wordpools/wasnorm_wordpool_less_exclusions.txt	LTP202	ltpFR	17	1	0	TERMITE	1451	n/a	0	n/a	n/a	n/a	n/a	n/a
94267	REC_WORD	wordpools/wasnorm_wordpool_less_exclusions.txt	LTP202	ltpFR	17	1	0	GRASSHOPPER	656	n/a	0	n/a	n/a	n/a	n/a	n/a
98073	REC_WORD	wordpools/wasnorm_wordpool_less_exclusions.txt	LTP202	ltpFR	17	1	1	OX	994	n/a	1	n/a	n/a	n/a	n/a	n/a
99276	REC_WORD	wordpools/wasnorm_wordpool_less_exclusions.txt	LTP202	ltpFR	17	1	1	TREE	1502	n/a	1	n/a	n/a	n/a	n/a	n/a
105656	REC_WORD	wordpools/wasnorm_wordpool_less_exclusions.txt	LTP202	ltpFR	17	1	1	STEAM	1375	n/a	0	n/a	n/a	n/a	n/a	n/a
113708	REC_WORD	wordpools/wasnorm_wordpool_less_exclusions.txt	LTP202	ltpFR	17	1	0	SCAPEGOAT	1244	n/a	1	n/a	n/a	n/a	n/a	n/a
114576	REC_WORD	wordpools/wasnorm_wordpool_less_exclusions.txt	LTP202	ltpFR	17	1	0	SLUG	1329	n/a	0	n/a	n/a	n/a	n/a	n/a
117683	REC_WORD	wordpools/wasnorm_wordpool_less_exclusions.txt	LTP202	ltpFR	17	1	0	LAGOON	795	n/a	1	n/a	n/a	n/a	n/a	n/a
118355	REC_WORD	wordpools/wasnorm_wordpool_less_exclusions.txt	LTP202	ltpFR	17	1	0	HOUSE	725	n/a	1	n/a	n/a	n/a	n/a	n/a
129721	REC_WORD	wordpools/wasnorm_wordpool_less_exclusions.txt	LTP202	ltpFR	17	1	0	NAVIGATOR	938	n/a	1	n/a	n/a	n/a	n/a	n/a
139828	REC_WORD	wordpools/wasnorm_wordpool_less_exclusions.txt	LTP202	ltpFR	17	1	0	RADISH	1158	n/a	0	n/a	n/a	n/a	n/a	n/a
140946	REC_WORD	wordpools/wasnorm_wordpool_less_exclusions.txt	LTP202	ltpFR	17	1	1	LETTUCE	814	n/a	0	n/a	n/a	n/a	n/a	n/a
153946	REC_WORD	wordpools/wasnorm_wordpool_less_exclusions.txt	LTP202	ltpFR	17	1	1	TREE	1502	n/a	1	n/a	n/a	n/a	n/a	n/a
159725	REC_WORD	wordpools/wasnorm_wordpool_less_exclusions.txt	LTP202	ltpFR	17	1	n/a	HORSE	719	n/a	n/a	n/a	n/a	n/a	n/a	n/a
171984	WORD	wordpools/wasnorm_wordpool_less_exclusions.txt	LTP202	ltpFR	17	2	1	BULLETIN	195	n/a	0	1	0.412841796875	0.57763671875	upper	../fonts/amplitud.ttf
175962	WORD	wordpools/wasnorm_wordpool_less_exclusions.txt	LTP202	ltpFR	17	2	1	VETERAN	1561	n/a	1	1	0.412841796875	0.57763671875	upper	../fonts/amplitud.ttf
179906	WORD	wordpools/wasnorm_wordpool_less_exclusions.txt	LTP202	ltpFR	17	2	0	LIME	823	n/a	0	0	0.5869140625	0.422607421875	lower	../fonts/zerothre.ttf
184066	WORD	wordpools/wasnorm_wordpool_less_exclusions.txt	LTP202	ltpFR	17	2	0	POLICE	1098	n/a	1	0	0.5869140625	0.422607421875	lower	../fonts/zerothre.ttf
188227	WORD	wordpools/wasnorm_wordpool_less_exclusions.txt	LTP202	ltpFR	17	2	0	GUARD	667	n/a	1	0	0.5869140625	0.422607421875	lower	../fonts/zerothre.ttf
192437	WORD	wordpools/wasnorm_wordpool_less_exclusions.txt	LTP202	ltpFR	17	2	0	FLOWER	584	n/a	0	0	0.5869140625	0.422607421875	lower	../fonts/zerothre.ttf
196381	WORD	wordpools/wasnorm_wordpool_less_exclusions.txt	LTP202	ltpFR	17	2	0	BUSH	202	n/a	0	0	0.5869140625	0.422607421875	lower	../fonts/zerothre.ttf
200541	WORD	wordpools/wasnorm_wordpool_less_exclusions.txt	LTP202	ltpFR	17	2	1	TWIN	1528	n/a	0	1	0.412841796875	0.57763671875	upper	../fonts/amplitud.ttf
204634	WORD	wordpools/wasnorm_wordpool_less_exclusions.txt	LTP202	ltpFR	17	2	1	CARROT	249	n/a	0	1	0.412841796875	0.57763671875	upper	../fonts/amplitud.ttf
208562	WORD	wordpools/wasnorm_wordpool_less_exclusions.txt	LTP202	ltpFR	17	2	0	BUNNY	198	n/a	1	0	0.5869140625	0.422607421875	lower	../fonts/zerothre.ttf
212424	WORD	wordpools/wasnorm_wordpool_less_exclusions.txt	LTP202	ltpFR	17	2	0	WALRUS	1585	n/a	1	0	0.5869140625	0.422607421875	lower	../fonts/zerothre.ttf
216251	WORD	wordpools/wasnorm_wordpool_less_exclusions.txt	LTP202	ltpFR	17	2	0	UNDERWEAR	1537	n/a	0	0	0.5869140625	0.422607421875	lower	../fonts/zerothre.ttf
220212	WORD	wordpools/wasnorm_wordpool_less_exclusions.txt	LTP202	ltpFR	17	2	1	BEGGAR	117	n/a	1	1	0.412841796875	0.57763671875	upper	../fonts/amplitud.ttf
224273	WORD	wordpools/wasnorm_wordpool_less_exclusions.txt	LTP202	ltpFR	17	2	1	SISTER	1312	n/a	1	1	0.412841796875	0.57763671875	upper	../fonts/amplitud.ttf
228450	WORD	wordpools/wasnorm_wordpool_less_exclusions.txt	LTP202	ltpFR	17	2	1	CANDY	230	n/a	0	1	0.412841796875	0.57763671875	upper	../fonts/amplitud.ttf
232311	WORD	wordpools/wasnorm_wordpool_less_exclusions.txt	LTP202	ltpFR	17	2	1	EDITORIAL	517	n/a	0	1	0.412841796875	0.57763671875	upper	../fonts/amplitud.ttf
238169	REC_START	n/a	LTP202	ltpFR	17	2	n/a	n/a	n/a	n/a	n/a	n/a	n/a	n/a	n/a	n/a
238952	REC_WORD	wordpools/wasnorm_wordpool_less_exclusions.txt	LTP202	ltpFR	17	2	1	BEGGAR	117	n/a	1	n/a	n/a	n/a	n/a	n/a
239420	REC_WORD	wordpools/wasnorm_wordpool_less_exclusions.txt	LTP202	ltpFR	17	2	1	SISTER	1312	n/a	1	n/a	n/a	n/a	n/a	n/a
240284	REC_WORD	wordpools/wasnorm_wordpool_less_exclusions.txt	LTP202	ltpFR	17	2	1	CANDY	230	n/a	0	n/a	n/a	n/a	n/a	n/a
240863	REC_WORD	wordpools/wasnorm_wordpool_less_exclusions.txt	LTP202	ltpFR	17	2	1	EDITORIAL	517	n/a	0	n/a	n/a	n/a	n/a	n/a
247168	REC_WORD	wordpools/wasnorm_wordpool_less_exclusions.txt	LTP202	ltpFR	17	2	1	BULLETIN	195	n/a	0	n/a	n/a	n/a	n/a	n/a
248645	REC_WORD	wordpools/wasnorm_wordpool_less_exclusions.txt	LTP202	ltpFR	17	2	1	VETERAN	1561	n/a	1	n/a	n/a	n/a	n/a	n/a
250326	REC_WORD	wordpools/wasnorm_wordpool_less_exclusions.txt	LTP202	ltpFR	17	2	0	LIME	823	n/a	0	n/a	n/a	n/a	n/a	n/a
251304	REC_WORD	wordpools/wasnorm_wordpool_less_exclusions.txt	LTP202	ltpFR	17	2	0	BUSH	202	n/a	0	n/a	n/a	n/a	n/a	n/a
251942	REC_WORD	wordpools/wasnorm_wordpool_less_exclusions.txt	LTP202	ltpFR	17	2	0	FLOWER	584	n/a	0	n/a	n/a	n/a	n/a	n/a
255928	REC_WORD	wordpools/wasnorm_wordpool_less_exclusions.txt	LTP202	ltpFR	17	2	1	CARROT	249	n/a	0	n/a	n/a	n/a	n/a	n/a
258318	REC_WORD	wordpools/wasnorm_wordpool_less_exclusions.txt	LTP202	ltpFR	17	2	0	BUNNY	198	n/a	1	n/a	n/a	n/a	n/a	n/a
262733	REC_WORD	wordpools/wasnorm_wordpool_less_exclusions.txt	LTP202	ltpFR	17	2	1	TWIN	1528	n/a	0	n/a	n/a	n/a	n/a	n/a
264045	REC_WORD	wordpools/wasnorm_wordpool_less_exclusions.txt	LTP202	ltpFR	17	2	0	WALRUS	1585	n/a	1	n/a	n/a	n/a	n/a	n/a
275963	REC_WORD	wordpools/wasnorm_wordpool_less_exclusions.txt	LTP202	ltpFR	17	2	0	UNDERWEAR	1537	n/a	0	n/a	n/a	n/a	n/a	n/a
295204	REC_WORD	wordpools/wasnorm_wordpool_less_exclusions.txt	LTP202	ltpFR	17	2	1	EDITORIAL	517	n/a	0	n/a	n/a	n/a	n/a	n/a
300597	REC_WORD	wordpools/wasnorm_wordpool_less_exclusions.txt	LTP202	ltpFR	17	2	0	POLICE	1098	n/a	1	n/a	n/a	n/a	n/a	n/a
301340	REC_WORD	wordpools/wasnorm_wordpool_less_exclusions.txt	LTP202	ltpFR	17	2	0	GUARD	667	n/a	1	n/a	n/a	n/a	n/a	n/a
325255	WORD	wordpools/wasnorm_wordpool_less_exclusions.txt	LTP202	ltpFR	17	3	-1	MILITARY	894	n/a	-1	1	1.0	1.0	upper	../fonts/Verdana.ttf
329333	WORD	wordpools/wasnorm_wordpool_less_exclusions.txt	LTP202	ltpFR	17	3	-1	COLONEL	348	n/a	-1	1	1.0	1.0	upper	../fonts/Verdana.ttf
333227	WORD	wordpools/wasnorm_wordpool_less_exclusions.txt	LTP202	ltpFR	17	3	-1	BRANDY	169	n/a	-1	1	1.0	1.0	upper	../fonts/Verdana.ttf
337371	WORD	wordpools/wasnorm_wordpool_less_exclusions.txt	LTP202	ltpFR	17	3	-1	CORK	380	n/a	-1	1	1.0	1.0	upper	../fonts/Verdana.ttf
341414	WORD	wordpools/wasnorm_wordpool_less_exclusions.txt	LTP202	ltpFR	17	3	-1	TOE	1473	n/a	-1	1	1.0	1.0	upper	../fonts/Verdana.ttf
345574	WORD	wordpools/wasnorm_wordpool_less_exclusions.txt	LTP202	ltpFR	17	3	-1	CELERY	266	n/a	-1	1	1.0	1.0	upper	../fonts/Verdana.ttf
349403	WORD	wordpools/wasnorm_wordpool_less_exclusions.txt	LTP202	ltpFR	17	3	-1	LOBSTER	837	n/a	-1	1	1.0	1.0	upper	../fonts/Verdana.ttf
353612	WORD	wordpools/wasnorm_wordpool_less_exclusions.txt	LTP202	ltpFR	17	3	-1	PAWN	1030	n/a	-1	1	1.0	1.0	upper	../fonts/Verdana.ttf
357706	WORD	wordpools/wasnorm_wordpool_less_exclusions.txt	LTP202	ltpFR	17	3	-1	MUG	930	n/a	-1	1	1.0	1.0	upper	../fonts/Verdana.ttf
361617	WORD	wordpools/wasnorm_wordpool_less_exclusions.txt	LTP202	ltpFR	17	3	-1	SNEAKER	1334	n/a	-1	1	1.0	1.0	upper	../fonts/Verdana.ttf
365677	WORD	wordpools/wasnorm_wordpool_less_exclusions.txt	LTP202	ltpFR	17	3	-1	CRAYON	401	n/a	-1	1	1.0	1.0	upper	../fonts/Verdana.ttf
369621	WORD	wordpools/wasnorm_wordpool_less_exclusions.txt	LTP202	ltpFR	17	3	-1	SUPERVISOR	1410	n/a	-1	1	1.0	1.0	upper	../fonts/Verdana.ttf
373699	WORD	wordpools/wasnorm_wordpool_less_exclusions.txt	LTP202	ltpFR	17	3	-1	MARS	873	n/a	-1	1	1.0	1.0	upper	../fonts/Verdana.ttf
377910	WORD	wordpools/wasnorm_wordpool_less_exclusions.txt	LTP202	ltpFR	17	3	-1	MANAGER	863	n/a	-1	1	1.0	1.0	upper	../fonts/Verdana.ttf
382087	WORD	wordpools/wasnorm_wordpool_less_exclusions.txt	LTP202	ltpFR	17	3	-1	CUPBOARD	425	n/a	-1	1	1.0	1.0	upper	../fonts/Verdana.ttf
385965	WORD	wordpools/wasnorm_wordpool_less_exclusions.txt	LTP202	ltpFR	17	3	-1	FACE	547	n/a	-1	1	1.0	1.0	upper	../fonts/Verdana.ttf
391823	REC_START	n/a	LTP202	ltpFR	17	3	n/a	n/a	n/a	n/a	n/a	n/a	n/a	n/a	n/a	n/a
392217	REC_WORD	wordpools/wasnorm_wordpool_less_exclusions.txt	LTP202	ltpFR	17	3	-1	CUPBOARD	425	n/a	-1	n/a	n/a	n/a	n/a	n/a
392671	REC_WORD	wordpools/wasnorm_wordpool_less_exclusions.txt	LTP202	ltpFR	17	3	-1	FACE	547	n/a	-1	n/a	n/a	n/a	n/a	n/a
393364	REC_WORD	wordpools/wasnorm_wordpool_less_exclusions.txt	LTP202	ltpFR	17	3	-1	SUPERVISOR	1410	n/a	-1	n/a	n/a	n/a	n/a	n/a
394265	REC_WORD	wordpools/wasnorm_wordpool_less_exclusions.txt	LTP202	ltpFR	17	3	-1	MANAGER	863	n/a	-1	n/a	n/a	n/a	n/a	n/a
395459	REC_WORD	wordpools/wasnorm_wordpool_less_exclusions.txt	LTP202	ltpFR	17	3	-1	MARS	873	n/a	-1	n/a	n/a	n/a	n/a	n/a
396288	REC_WORD	wordpools/wasnorm_wordpool_less_exclusions.txt	LTP202	ltpFR	17	3	-1	PAWN	1030	n/a	-1	n/a	n/a	n/a	n/a	n/a
397021	REC_WORD	wordpools/wasnorm_wordpool_less_exclusions.txt	LTP202	ltpFR	17	3	-1	LOBSTER	837	n/a	-1	n/a	n/a	n/a	n/a	n/a
398692	REC_WORD	wordpools/wasnorm_wordpool_less_exclusions.txt	LTP202	ltpFR	17	3	-1	CRAYON	401	n/a	-1	n/a	n/a	n/a	n/a	n/a
399391	REC_WORD	wordpools/wasnorm_wordpool_less_exclusions.txt	LTP202	ltpFR	17	3	-1	SNEAKER	1334	n/a	-1	n/a	n/a	n/a	n/a	n/a
401665	REC_WORD	wordpools/wasnorm_wordpool_less_exclusions.txt	LTP202	ltpFR	17	3	-1	MILITARY	894	n/a	-1	n/a	n/a	n/a	n/a	n/a
402474	REC_WORD	wordpools/wasnorm_wordpool_less_exclusions.txt	LTP202	ltpFR	17	3	-1	COLONEL	348	n/a	-1	n/a	n/a	n/a	n/a	n/a
403317	REC_WORD	wordpools/wasnorm_wordpool_less_exclusions.txt	LTP202	ltpFR	17	3	-1	BRANDY	169	n/a	-1	n/a	n/a	n/a	n/a	n/a
404444	REC_WORD	wordpools/wasnorm_wordpool_less_exclusions.txt	LTP202	ltpFR	17	3	-1	CORK	380	n/a	-1	n/a	n/a	n/a	n/a	n/a
411882	REC_WORD	wordpools/wasnorm_wordpool_less_exclusions.txt	LTP202	ltpFR	17	3	-1	MUG	930	n/a	-1	n/a	n/a	n/a	n/a	n/a
428998	REC_WORD	wordpools/wasnorm_wordpool_less_exclusions.txt	LTP202	ltpFR	17	3	-1	SUPERVISOR	1410	n/a	-1	n/a	n/a	n/a	n/a	n/a
443969	REC_WORD	wordpools/wasnorm_wordpool_less_exclusions.txt	LTP202	ltpFR	17	3	-1	TOE	1473	n/a	-1	n/a	n/a	n/a	n/a	n/a
449876	REC_WORD	wordpools/wasnorm_wordpool_less_exclusions.txt	LTP202	ltpFR	17	3	n/a	MUD	-1	n/a	n/a	n/a	n/a	n/a	n/a	n/a
470921	WORD	wordpools/wasnorm_wordpool_less_exclusions.txt	LTP202	ltpFR	17	4	0	RECIPE	1175	n/a	0	0	0.5869140625	0.422607421875	lower	../fonts/zerothre.ttf
474948	WORD	wordpools/wasnorm_wordpool_less_exclusions.txt	LTP202	ltpFR	17	4	0	NUN	962	n/a	1	0	0.5869140625	0.422607421875	lower	../fonts/zerothre.ttf
479175	WORD	wordpools/wasnorm_wordpool_less_exclusions.txt	LTP202	ltpFR	17	4	0	GLASS	639	n/a	0	0	0.5869140625	0.422607421875	lower	../fonts/zerothre.ttf
483153	WORD	wordpools/wasnorm_wordpool_less_exclusions.txt	LTP202	ltpFR	17	4	0	SHUTTER	1300	n/a	0	0	0.5869140625	0.422607421875	lower	../fonts/zerothre.ttf
486997	WORD	wordpools/wasnorm_wordpool_less_exclusions.txt	LTP202	ltpFR	17	4	0	WATERFALL	1595	n/a	1	0	0.5869140625	0.422607421875	lower	../fonts/zerothre.ttf
491191	WORD	wordpools/wasnorm_wordpool_less_exclusions.txt	LTP202	ltpFR	17	4	0	MITTEN	902	n/a	0	0	0.5869140625	0.422607421875	lower	../fonts/zerothre.ttf
495201	WORD	wordpools/wasnorm_wordpool_less_exclusions.txt	LTP202	ltpFR	17	4	0	COWBOY	395	n/a	1	0	0.5869140625	0.422607421875	lower	../fonts/zerothre.ttf
499262	WORD	wordpools/wasnorm_wordpool_less_exclusions.txt	LTP202	ltpFR	17	4	0	APRON	35	n/a	1	0	0.5869140625	0.422607421875	lower	../fonts/zerothre.ttf
503472	WORD	wordpools/wasnorm_wordpool_less_exclusions.txt	LTP202	ltpFR	17	4	0	THUMB	1462	n/a	0	0	0.5869140625	0.422607421875	lower	../fonts/zerothre.ttf
507300	WORD	wordpools/wasnorm_wordpool_less_exclusions.txt	LTP202	ltpFR	17	4	0	CHIP	303	n/a	0	0	0.5869140625	0.422607421875	lower	../fonts/zerothre.ttf
511394	WORD	wordpools/wasnorm_wordpool_less_exclusions.txt	LTP202	ltpFR	17	4	0	CARRIAGE	248	n/a	1	0	0.5869140625	0.422607421875	lower	../fonts/zerothre.ttf
515355	WORD	wordpools/wasnorm_wordpool_less_exclusions.txt	LTP202	ltpFR	17	4	0	ZEBRA	1635	n/a	1	0	0.5869140625	0.422607421875	lower	../fonts/zerothre.ttf
519399	WORD	wordpools/wasnorm_wordpool_less_exclusions.txt	LTP202	ltpFR	17	4	0	COOK	372	n/a	1	0	0.5869140625	0.422607421875	lower	../fonts/zerothre.ttf
523459	WORD	wordpools/wasnorm_wordpool_less_exclusions.txt	LTP202	ltpFR	17	4	0	RICE	1190	n/a	0	0	0.5869140625	0.422607421875	lower	../fonts/zerothre.ttf
527602	WORD	wordpools/wasnorm_wordpool_less_exclusions.txt	LTP202	ltpFR	17	4	0	QUEEN	1149	n/a	1	0	0.5869140625	0.422607421875	lower	../fonts/zerothre.ttf
531530	WORD	wordpools/wasnorm_wordpool_less_exclusions.txt	LTP202	ltpFR	17	4	0	PIER	1063	n/a	0	0	0.5869140625	0.422607421875	lower	../fonts/zerothre.ttf
537406	REC_START	n/a	LTP202	ltpFR	17	4	n/a	n/a	n/a	n/a	n/a	n/a	n/a	n/a	n/a	n/a
537785	REC_WORD	wordpools/wasnorm_wordpool_less_exclusions.txt	LTP202	ltpFR	17	4	0	QUEEN	1149	n/a	1	n/a	n/a	n/a	n/a	n/a
538483	REC_WORD	wordpools/wasnorm_wordpool_less_exclusions.txt	LTP202	ltpFR	17	4	0	PIER	1063	n/a	0	n/a	n/a	n/a	n/a	n/a
539666	REC_WORD	wordpools/wasnorm_wordpool_less_exclusions.txt	LTP202	ltpFR	17	4	0	THUMB	1462	n/a	0	n/a	n/a	n/a	n/a	n/a
540673	REC_WORD	wordpools/wasnorm_wordpool_less_exclusions.txt	LTP202	ltpFR	17	4	0	COOK	372	n/a	1	n/a	n/a	n/a	n/a	n/a
541412	REC_WORD	wordpools/wasnorm_wordpool_less_exclusions.txt	LTP202	ltpFR	17	4	0	CARRIAGE	248	n/a	1	n/a	n/a	n/a	n/a	n/a
542245	REC_WORD	wordpools/wasnorm_wordpool_less_exclusions.txt	LTP202	ltpFR	17	4	0	ZEBRA	1635	n/a	1	n/a	n/a	n/a	n/a	n/a
544160	REC_WORD	wordpools/wasnorm_wordpool_less_exclusions.txt	LTP202	ltpFR	17	4	0	APRON	35	n/a	1	n/a	n/a	n/a	n/a	n/a
544984	REC_WORD	wordpools/wasnorm_wordpool_less_exclusions.txt	LTP202	ltpFR	17	4	0	RECIPE	1175	n/a	0	n/a	n/a	n/a	n/a	n/a
546216	REC_WORD	wordpools/wasnorm_wordpool_less_exclusions.txt	LTP202	ltpFR	17	4	0	NUN	962	n/a	1	n/a	n/a	n/a	n/a	n/a
547004	REC_WORD	wordpools/wasnorm_wordpool_less_exclusions.txt	LTP202	ltpFR	17	4	0	GLASS	639	n/a	0	n/a	n/a	n/a	n/a	n/a
547827	REC_WORD	wordpools/wasnorm_wordpool_less_exclusions.txt	LTP202	ltpFR	17	4	0	WATERFALL	1595	n/a	1	n/a	n/a	n/a	n/a	n/a
550769	REC_WORD	wordpools/wasnorm_wordpool_less_exclusions.txt	LTP202	ltpFR	17	4	0	CARRIAGE	248	n/a	1	n/a	n/a	n/a	n/a	n/a
568565	REC_WORD	wordpools/wasnorm_wordpool_less_exclusions.txt	LTP202	ltpFR	17	4	0	ZEBRA	1635	n/a	1	n/a	n/a	n/a	n/a	n/a
600153	REC_WORD	wordpools/wasnorm_wordpool_less_exclusions.txt	LTP202	ltpFR	17	4	n/a	CHEF	290	n/a	n/a	n/a	n/a	n/a	n/a	n/a
604972	REC_WORD	wordpools/wasnorm_wordpool_less_exclusions.txt	LTP202	ltpFR	17	4	0	RECIPE	1175	n/a	0	n/a	n/a	n/a	n/a	n/a
615289	WORD	wordpools/wasnorm_wordpool_less_exclusions.txt	LTP202	ltpFR	17	5	1	LEG	809	n/a	0	1	0.412841796875	0.57763671875	upper	../fonts/amplitud.ttf
619482	WORD	wordpools/wasnorm_wordpool_less_exclusions.txt	LTP202	ltpFR	17	5	1	JURY	766	n/a	1	1	0.412841796875	0.57763671875	upper	../fonts/amplitud.ttf
623625	WORD	wordpools/wasnorm_wordpool_less_exclusions.txt	LTP202	ltpFR	17	5	1	CARTON	251	n/a	0	1	0.412841796875	0.57763671875	upper	../fonts/amplitud.ttf
627519	WORD	wordpools/wasnorm_wordpool_less_exclusions.txt	LTP202	ltpFR	17	5	1	PRIMATE	1123	n/a	1	1	0.412841796875	0.57763671875	upper	../fonts/amplitud.ttf
631431	WORD	wordpools/wasnorm_wordpool_less_exclusions.txt	LTP202	ltpFR	17	5	1	CRYSTAL	418	n/a	0	1	0.412841796875	0.57763671875	upper	../fonts/amplitud.ttf
635557	WORD	wordpools/wasnorm_wordpool_less_exclusions.txt	LTP202	ltpFR	17	5	1	PEARL	1034	n/a	0	1	0.412841796875	0.57763671875	upper	../fonts/amplitud.ttf
639785	WORD	wordpools/wasnorm_wordpool_less_exclusions.txt	LTP202	ltpFR	17	5	1	FLEET	578	n/a	1	1	0.412841796875	0.57763671875	upper	../fonts/amplitud.ttf
643829	WORD	wordpools/wasnorm_wordpool_less_exclusions.txt	LTP202	ltpFR	17	5	1	GENERAL	630	n/a	1	1	0.412841796875	0.57763671875	upper	../fonts/amplitud.ttf
647840	WORD	wordpools/wasnorm_wordpool_less_exclusions.txt	LTP202	ltpFR	17	5	1	ASSOCIATE	49	n/a	1	1	0.412841796875	0.57763671875	upper	../fonts/amplitud.ttf
651700	WORD	wordpools/wasnorm_wordpool_less_exclusions.txt	LTP202	ltpFR	17	5	1	ZOO	1637	n/a	0	1	0.412841796875	0.57763671875	upper	../fonts/amplitud.ttf
655544	WORD	wordpools/wasnorm_wordpool_less_exclusions.txt	LTP202	ltpFR	17	5	1	CHURCH	307	n/a	0	1	0.412841796875	0.57763671875	upper	../fonts/amplitud.ttf
659406	WORD	wordpools/wasnorm_wordpool_less_exclusions.txt	LTP202	ltpFR	17	5	1	COB	334	n/a	0	1	0.412841796875	0.57763671875	upper	../fonts/amplitud.ttf
663300	WORD	wordpools/wasnorm_wordpool_less_exclusions.txt	LTP202	ltpFR	17	5	1	KNUCKLE	789	n/a	0	1	0.412841796875	0.57763671875	upper	../fonts/amplitud.ttf
667344	WORD	wordpools/wasnorm_wordpool_less_exclusions.txt	LTP202	ltpFR	17	5	1	WARDROBE	1587	n/a	0	1	0.412841796875	0.57763671875	upper	../fonts/amplitud.ttf
671172	WORD	wordpools/wasnorm_wordpool_less_exclusions.txt	LTP202	ltpFR	17	5	1	CLOTHES	327	n/a	0	1	0.412841796875	0.57763671875	upper	../fonts/amplitud.ttf
675099	WORD	wordpools/wasnorm_wordpool_less_exclusions.txt	LTP202	ltpFR	17	5	1	JUDGE	761	n/a	1	1	0.412841796875	0.57763671875	upper	../fonts/amplitud.ttf
680975	REC_START	n/a	LTP202	ltpFR	17	5	n/a	n/a	n/a	n/a	n/a	n/a	n/a	n/a	n/a	n/a
681484	REC_WORD	wordpools/wasnorm_wordpool_less_exclusions.txt	LTP202	ltpFR	17	5	1	ZOO	1637	n/a	0	n/a	n/a	n/a	n/a	n/a
682107	REC_WORD	wordpools/wasnorm_wordpool_less_exclusions.txt	LTP202	ltpFR	17	5	1	COB	334	n/a	0	n/a	n/a	n/a	n/a	n/a
682686	REC_WORD	wordpools/wasnorm_wordpool_less_exclusions.txt	LTP202	ltpFR	17	5	1	KNUCKLE	789	n/a	0	n/a	n/a	n/a	n/a	n/a
683304	REC_WORD	wordpools/wasnorm_wordpool_less_exclusions.txt	LTP202	ltpFR	17	5	1	WARDROBE	1587	n/a	0	n/a	n/a	n/a	n/a	n/a
684192	REC_WORD	wordpools/wasnorm_wordpool_less_exclusions.txt	LTP202	ltpFR	17	5	1	CLOTHES	327	n/a	0	n/a	n/a	n/a	n/a	n/a
690279	REC_WORD	wordpools/wasnorm_wordpool_less_exclusions.txt	LTP202	ltpFR	17	5	1	JUDGE	761	n/a	1	n/a	n/a	n/a	n/a	n/a
691516	REC_WORD	wordpools/wasnorm_wordpool_less_exclusions.txt	LTP202	ltpFR	17	5	1	JURY	766	n/a	1	n/a	n/a	n/a	n/a	n/a
694100	REC_WORD	wordpools/wasnorm_wordpool_less_exclusions.txt	LTP202	ltpFR	17	5	1	ASSOCIATE	49	n/a	1	n/a	n/a	n/a	n/a	n/a
695636	REC_WORD	wordpools/wasnorm_wordpool_less_exclusions.txt	LTP202	ltpFR	17	5	1	ZOO	1637	n/a	0	n/a	n/a	n/a	n/a	n/a
696894	REC_WORD	wordpools/wasnorm_wordpool_less_exclusions.txt	LTP202	ltpFR	17	5	1	CHURCH	307	n/a	0	n/a	n/a	n/a	n/a	n/a
699572	REC_WORD	wordpools/wasnorm_wordpool_less_exclusions.txt	LTP202	ltpFR	17	5	1	PRIMATE	1123	n/a	1	n/a	n/a	n/a	n/a	n/a
721538	REC_WORD	wordpools/wasnorm_wordpool_less_exclusions.txt	LTP202	ltpFR	17	5	1	CANDY	230	n/a	0	n/a	n/a	n/a	n/a	n/a
729549	REC_WORD	wordpools/wasnorm_wordpool_less_exclusions.txt	LTP202	ltpFR	17	5	1	CRYSTAL	418	n/a	0	n/a	n/a	n/a	n/a	n/a
730308	REC_WORD	wordpools/wasnorm_wordpool_less_exclusions.txt	LTP202	ltpFR	17	5	1	PEARL	1034	n/a	0	n/a	n/a	n/a	n/a	n/a
778745	WORD	wordpools/wasnorm_wordpool_less_exclusions.txt	LTP202	ltpFR	17	6	0	STAFF	1365	n/a	1	0	0.5869140625	0.422607421875	lower	../fonts/zerothre.ttf
782822	WORD	wordpools/wasnorm_wordpool_less_exclusions.txt	LTP202	ltpFR	17	6	0	BAND	78	n/a	1	0	0.5869140625	0.422607421875	lower	../fonts/zerothre.ttf
786816	WORD	wordpools/wasnorm_wordpool_less_exclusions.txt	LTP202	ltpFR	17	6	0	BEAVER	109	n/a	1	0	0.5869140625	0.422607421875	lower	../fonts/zerothre.ttf
790760	WORD	wordpools/wasnorm_wordpool_less_exclusions.txt	LTP202	ltpFR	17	6	0	SWIMMER	1420	n/a	1	0	0.5869140625	0.422607421875	lower	../fonts/zerothre.ttf
794720	WORD	wordpools/wasnorm_wordpool_less_exclusions.txt	LTP202	ltpFR	17	6	1	SWAMP	1416	n/a	0	1	0.412841796875	0.57763671875	upper	../fonts/amplitud.ttf
798748	WORD	wordpools/wasnorm_wordpool_less_exclusions.txt	LTP202	ltpFR	17	6	1	TILE	1468	n/a	0	1	0.412841796875	0.57763671875	upper	../fonts/amplitud.ttf
802742	WORD	wordpools/wasnorm_wordpool_less_exclusions.txt	LTP202	ltpFR	17	6	1	FOREST	593	n/a	0	1	0.412841796875	0.57763671875	upper	../fonts/amplitud.ttf
806803	WORD	wordpools/wasnorm_wordpool_less_exclusions.txt	LTP202	ltpFR	17	6	1	CLARINET	317	n/a	0	1	0.412841796875	0.57763671875	upper	../fonts/amplitud.ttf
810996	WORD	wordpools/wasnorm_wordpool_less_exclusions.txt	LTP202	ltpFR	17	6	1	SNAKE	1333	n/a	1	1	0.412841796875	0.57763671875	upper	../fonts/amplitud.ttf
814891	WORD	wordpools/wasnorm_wordpool_less_exclusions.txt	LTP202	ltpFR	17	6	0	CHIMPANZEE	302	n/a	1	0	0.5869140625	0.422607421875	lower	../fonts/zerothre.ttf
819101	WORD	wordpools/wasnorm_wordpool_less_exclusions.txt	LTP202	ltpFR	17	6	0	PANTS	1010	n/a	0	0	0.5869140625	0.422607421875	lower	../fonts/zerothre.ttf
822979	WORD	wordpools/wasnorm_wordpool_less_exclusions.txt	LTP202	ltpFR	17	6	0	CERAMICS	271	n/a	0	0	0.5869140625	0.422607421875	lower	../fonts/zerothre.ttf
827072	WORD	wordpools/wasnorm_wordpool_less_exclusions.txt	LTP202	ltpFR	17	6	0	ENEMY	534	n/a	1	0	0.5869140625	0.422607421875	lower	../fonts/zerothre.ttf
831166	WORD	wordpools/wasnorm_wordpool_less_exclusions.txt	LTP202	ltpFR	17	6	1	GUEST	669	n/a	1	1	0.412841796875	0.57763671875	upper	../fonts/amplitud.ttf
835343	WORD	wordpools/wasnorm_wordpool_less_exclusions.txt	LTP202	ltpFR	17	6	1	STAPLE	1371	n/a	0	1	0.412841796875	0.57763671875	upper	../fonts/amplitud.ttf
839271	WORD	wordpools/wasnorm_wordpool_less_exclusions.txt	LTP202	ltpFR	17	6	1	WALL	1582	n/a	0	1	0.412841796875	0.57763671875	upper	../fonts/amplitud.ttf
845180	REC_START	n/a	LTP202	ltpFR	17	6	n/a	n/a	n/a	n/a	n/a	n/a	n/a	n/a	n/a	n/a
845724	REC_WORD	wordpools/wasnorm_wordpool_less_exclusions.txt	LTP202	ltpFR	17	6	1	GUEST	669	n/a	1	n/a	n/a	n/a	n/a	n/a
846102	REC_WORD	wordpools/wasnorm_wordpool_less_exclusions.txt	LTP202	ltpFR	17	6	1	STAPLE	1371	n/a	0	n/a	n/a	n/a	n/a	n/a
846964	REC_WORD	wordpools/wasnorm_wordpool_less_exclusions.txt	LTP202	ltpFR	17	6	1	WALL	1582	n/a	0	n/a	n/a	n/a	n/a	n/a
847529	REC_WORD	wordpools/wasnorm_wordpool_less_exclusions.txt	LTP202	ltpFR	17	6	0	CHIMPANZEE	302	n/a	1	n/a	n/a	n/a	n/a	n/a
848622	REC_WORD	wordpools/wasnorm_wordpool_less_exclusions.txt	LTP202	ltpFR	17	6	0	ENEMY	534	n/a	1	n/a	n/a	n/a	n/a	n/a
854733	REC_WORD	wordpools/wasnorm_wordpool_less_exclusions.txt	LTP202	ltpFR	17	6	0	STAFF	1365	n/a	1	n/a	n/a	n/a	n/a	n/a
855788	REC_WORD	wordpools/wasnorm_wordpool_less_exclusions.txt	LTP202	ltpFR	17	6	0	BAND	78	n/a	1	n/a	n/a	n/a	n/a	n/a
858405	REC_WORD	wordpools/wasnorm_wordpool_less_exclusions.txt	LTP202	ltpFR	17	6	1	SNAKE	1333	n/a	1	n/a	n/a	n/a	n/a	n/a
859193	REC_WORD	wordpools/wasnorm_wordpool_less_exclusions.txt	LTP202	ltpFR	17	6	1	FOREST	593	n/a	0	n/a	n/a	n/a	n/a	n/a
873220	REC_WORD	wordpools/wasnorm_wordpool_less_exclusions.txt	LTP202	ltpFR	17	6	1	STAPLE	1371	n/a	0	n/a	n/a	n/a	n/a	n/a
875131	REC_WORD	wordpools/wasnorm_wordpool_less_exclusions.txt	LTP202	ltpFR	17	6	n/a	STAPLER	1372	n/a	n/a	n/a	n/a	n/a	n/a	n/a
883218	REC_WORD	wordpools/wasnorm_wordpool_less_exclusions.txt	LTP202	ltpFR	17	6	0	BEAVER	109	n/a	1	n/a	n/a	n/a	n/a	n/a
884301	REC_WORD	wordpools/wasnorm_wordpool_less_exclusions.txt	LTP202	ltpFR	17	6	0	SWIMMER	1420	n/a	1	n/a	n/a	n/a	n/a	n/a
885498	REC_WORD	wordpools/wasnorm_wordpool_less_exclusions.txt	LTP202	ltpFR	17	6	1	SWAMP	1416	n/a	0	n/a	n/a	n/a	n/a	n/a
894448	REC_WORD	wordpools/wasnorm_wordpool_less_exclusions.txt	LTP202	ltpFR	17	6	1	GUEST	669	n/a	1	n/a	n/a	n/a	n/a	n/a
946461	WORD	wordpools/wasnorm_wordpool_less_exclusions.txt	LTP202	ltpFR	17	7	1	CARPENTER	246	n/a	1	1	0.412841796875	0.57763671875	upper	../fonts/amplitud.ttf
950421	WORD	wordpools/wasnorm_wordpool_less_exclusions.txt	LTP202	ltpFR	17	7	1	HAMMER	680	n/a	0	1	0.412841796875	0.57763671875	upper	../fonts/amplitud.ttf
954614	WORD	wordpools/wasnorm_wordpool_less_exclusions.txt	LTP202	ltpFR	17	7	0	BARK	87	n/a	0	0	0.5869140625	0.422607421875	lower	../fonts/zerothre.ttf
958459	WORD	wordpools/wasnorm_wordpool_less_exclusions.txt	LTP202	ltpFR	17	7	0	CONTRACTOR	369	n/a	1	0	0.5869140625	0.422607421875	lower	../fonts/zerothre.ttf
962602	WORD	wordpools/wasnorm_wordpool_less_exclusions.txt	LTP202	ltpFR	17	7	0	NOTEBOOK	959	n/a	0	0	0.5869140625	0.422607421875	lower	../fonts/zerothre.ttf
966431	WORD	wordpools/wasnorm_wordpool_less_exclusions.txt	LTP202	ltpFR	17	7	0	TAIL	1430	n/a	0	0	0.5869140625	0.422607421875	lower	../fonts/zerothre.ttf
970392	WORD	wordpools/wasnorm_wordpool_less_exclusions.txt	LTP202	ltpFR	17	7	0	WAITER	1580	n/a	0	0	0.5869140625	0.422607421875	lower	../fonts/zerothre.ttf
974601	WORD	wordpools/wasnorm_wordpool_less_exclusions.txt	LTP202	ltpFR	17	7	1	PAINTER	1004	n/a	1	1	0.412841796875	0.57763671875	upper	../fonts/amplitud.ttf
978746	WORD	wordpools/wasnorm_wordpool_less_exclusions.txt	LTP202	ltpFR	17	7	1	CORN	381	n/a	0	1	0.412841796875	0.57763671875	upper	../fonts/amplitud.ttf
982706	WORD	wordpools/wasnorm_wordpool_less_exclusions.txt	LTP202	ltpFR	17	7	1	PECAN	1036	n/a	0	1	0.412841796875	0.57763671875	upper	../fonts/amplitud.ttf
986900	WORD	wordpools/wasnorm_wordpool_less_exclusions.txt	LTP202	ltpFR	17	7	0	PEACH	1031	n/a	1	0	0.5869140625	0.422607421875	lower	../fonts/zerothre.ttf
991077	WORD	wordpools/wasnorm_wordpool_less_exclusions.txt	LTP202	ltpFR	17	7	0	HIKER	708	n/a	1	0	0.5869140625	0.422607421875	lower	../fonts/zerothre.ttf
995171	WORD	wordpools/wasnorm_wordpool_less_exclusions.txt	LTP202	ltpFR	17	7	0	WASHCLOTH	1591	n/a	0	0	0.5869140625	0.422607421875	lower	../fonts/zerothre.ttf
999199	WORD	wordpools/wasnorm_wordpool_less_exclusions.txt	LTP202	ltpFR	17	7	1	LAUNDRY	803	n/a	0	1	0.412841796875	0.57763671875	upper	../fonts/amplitud.ttf
1003409	WORD	wordpools/wasnorm_wordpool_less_exclusions.txt	LTP202	ltpFR	17	7	1	SHED	1277	n/a	0	1	0.412841796875	0.57763671875	upper	../fonts/amplitud.ttf
1007519	WORD	wordpools/wasnorm_wordpool_less_exclusions.txt	LTP202	ltpFR	17	7	1	MAID	856	n/a	1	1	0.412841796875	0.57763671875	upper	../fonts/amplitud.ttf
1013610	REC_START	n/a	LTP202	ltpFR	17	7	n/a	n/a	n/a	n/a	n/a	n/a	n/a	n/a	n/a	n/a
1014069	REC_WORD	wordpools/wasnorm_wordpool_less_exclusions.txt	LTP202	ltpFR	17	7	1	LAUNDRY	803	n/a	0	n/a	n/a	n/a	n/a	n/a
1014646	REC_WORD	wordpools/wasnorm_wordpool_less_exclusions.txt	LTP202	ltpFR	17	7	1	SHED	1277	n/a	0	n/a	n/a	n/a	n/a	n/a
1015296	REC_WORD	wordpools/wasnorm_wordpool_less_exclusions.txt	LTP202	ltpFR	17	7	1	MAID	856	n/a	1	n/a	n/a	n/a	n/a	n/a
1016069	REC_WORD	wordpools/wasnorm_wordpool_less_exclusions.txt	LTP202	ltpFR	17	7	1	CARPENTER	246	n/a	1	n/a	n/a	n/a	n/a	n/a
1016817	REC_WORD	wordpools/wasnorm_wordpool_less_exclusions.txt	LTP202	ltpFR	17	7	1	HAMMER	680	n/a	0	n/a	n/a	n/a	n/a	n/a
1017805	REC_WORD	wordpools/wasnorm_wordpool_less_exclusions.txt	LTP202	ltpFR	17	7	0	CONTRACTOR	369	n/a	1	n/a	n/a	n/a	n/a	n/a
1019202	REC_WORD	wordpools/wasnorm_wordpool_less_exclusions.txt	LTP202	ltpFR	17	7	0	NOTEBOOK	959	n/a	0	n/a	n/a	n/a	n/a	n/a
1026735	REC_WORD	wordpools/wasnorm_wordpool_less_exclusions.txt	LTP202	ltpFR	17	7	0	TAIL	1430	n/a	0	n/a	n/a	n/a	n/a	n/a
1029339	REC_WORD	wordpools/wasnorm_wordpool_less_exclusions.txt	LTP202	ltpFR	17	7	0	WAITER	1580	n/a	0	n/a	n/a	n/a	n/a	n/a
1032442	REC_WORD	wordpools/wasnorm_wordpool_less_exclusions.txt	LTP202	ltpFR	17	7	n/a	WAITRESS	1581	n/a	n/a	n/a	n/a	n/a	n/a	n/a
1056682	REC_WORD	wordpools/wasnorm_wordpool_less_exclusions.txt	LTP202	ltpFR	17	7	1	PECAN	1036	n/a	0	n/a	n/a	n/a	n/a	n/a
1058662	REC_WORD	wordpools/wasnorm_wordpool_less_exclusions.txt	LTP202	ltpFR	17	7	1	CORN	381	n/a	0	n/a	n/a	n/a	n/a	n/a
1059984	REC_WORD	wordpools/wasnorm_wordpool_less_exclusions.txt	LTP202	ltpFR	17	7	0	HIKER	708	n/a	1	n/a	n/a	n/a	n/a	n/a
1094906	WORD	wordpools/wasnorm_wordpool_less_exclusions.txt	LTP202	ltpFR	17	8	0	RAZOR	1171	n/a	0	0	0.5869140625	0.422607421875	lower	../fonts/zerothre.ttf
1098933	WORD	wordpools/wasnorm_wordpool_less_exclusions.txt	LTP202	ltpFR	17	8	0	BLADE	134	n/a	0	0	0.5869140625	0.422607421875	lower	../fonts/zerothre.ttf
1102827	WORD	wordpools/wasnorm_wordpool_less_exclusions.txt	LTP202	ltpFR	17	8	0	FARMER	553	n/a	1	0	0.5869140625	0.422607421875	lower	../fonts/zerothre.ttf
1106904	WORD	wordpools/wasnorm_wordpool_less_exclusions.txt	LTP202	ltpFR	17	8	0	GIFT	635	n/a	0	0	0.5869140625	0.422607421875	lower	../fonts/zerothre.ttf
1111065	WORD	wordpools/wasnorm_wordpool_less_exclusions.txt	LTP202	ltpFR	17	8	0	CHERRY	293	n/a	0	0	0.5869140625	0.422607421875	lower	../fonts/zerothre.ttf
1115109	WORD	wordpools/wasnorm_wordpool_less_exclusions.txt	LTP202	ltpFR	17	8	0	MAJOR	859	n/a	1	0	0.5869140625	0.422607421875	lower	../fonts/zerothre.ttf
1119203	WORD	wordpools/wasnorm_wordpool_less_exclusions.txt	LTP202	ltpFR	17	8	0	SOCIETY	1338	n/a	1	0	0.5869140625	0.422607421875	lower	../fonts/zerothre.ttf
1123080	WORD	wordpools/wasnorm_wordpool_less_exclusions.txt	LTP202	ltpFR	17	8	0	WORLD	1622	n/a	1	0	0.5869140625	0.422607421875	lower	../fonts/zerothre.ttf
1127224	WORD	wordpools/wasnorm_wordpool_less_exclusions.txt	LTP202	ltpFR	17	8	0	GROUND	666	n/a	1	0	0.5869140625	0.422607421875	lower	../fonts/zerothre.ttf
1131285	WORD	wordpools/wasnorm_wordpool_less_exclusions.txt	LTP202	ltpFR	17	8	0	PICNIC	1060	n/a	1	0	0.5869140625	0.422607421875	lower	../fonts/zerothre.ttf
1135245	WORD	wordpools/wasnorm_wordpool_less_exclusions.txt	LTP202	ltpFR	17	8	0	TABLET	1427	n/a	1	0	0.5869140625	0.422607421875	lower	../fonts/zerothre.ttf
1139306	WORD	wordpools/wasnorm_wordpool_less_exclusions.txt	LTP202	ltpFR	17	8	0	PAD	998	n/a	1	0	0.5869140625	0.422607421875	lower	../fonts/zerothre.ttf
1143515	WORD	wordpools/wasnorm_wordpool_less_exclusions.txt	LTP202	ltpFR	17	8	0	MAGICIAN	854	n/a	1	0	0.5869140625	0.422607421875	lower	../fonts/zerothre.ttf
1147361	WORD	wordpools/wasnorm_wordpool_less_exclusions.txt	LTP202	ltpFR	17	8	0	CITRUS	313	n/a	1	0	0.5869140625	0.422607421875	lower	../fonts/zerothre.ttf
1151255	WORD	wordpools/wasnorm_wordpool_less_exclusions.txt	LTP202	ltpFR	17	8	0	RAM	1165	n/a	1	0	0.5869140625	0.422607421875	lower	../fonts/zerothre.ttf
1155149	WORD	wordpools/wasnorm_wordpool_less_exclusions.txt	LTP202	ltpFR	17	8	0	FAIRY	549	n/a	0	0	0.5869140625	0.422607421875	lower	../fonts/zerothre.ttf
1161208	REC_START	n/a	LTP202	ltpFR	17	8	n/a	n/a	n/a	n/a	n/a	n/a	n/a	n/a	n/a	n/a
1162090	REC_WORD	wordpools/wasnorm_wordpool_less_exclusions.txt	LTP202	ltpFR	17	8	0	FAIRY	549	n/a	0	n/a	n/a	n/a	n/a	n/a
1162929	REC_WORD	wordpools/wasnorm_wordpool_less_exclusions.txt	LTP202	ltpFR	17	8	0	RAM	1165	n/a	1	n/a	n/a	n/a	n/a	n/a
1163617	REC_WORD	wordpools/wasnorm_wordpool_less_exclusions.txt	LTP202	ltpFR	17	8	0	MAGICIAN	854	n/a	1	n/a	n/a	n/a	n/a	n/a
1165422	REC_WORD	wordpools/wasnorm_wordpool_less_exclusions.txt	LTP202	ltpFR	17	8	n/a	FITNESS	-1	n/a	n/a	n/a	n/a	n/a	n/a	n/a
1172263	REC_WORD	wordpools/wasnorm_wordpool_less_exclusions.txt	LTP202	ltpFR	17	8	0	FARMER	553	n/a	1	n/a	n/a	n/a	n/a	n/a
1174069	REC_WORD	wordpools/wasnorm_wordpool_less_exclusions.txt	LTP202	ltpFR	17	8	0	GIFT	635	n/a	0	n/a	n/a	n/a	n/a	n/a
1175026	REC_WORD	wordpools/wasnorm_wordpool_less_exclusions.txt	LTP202	ltpFR	17	8	0	CHERRY	293	n/a	0	n/a	n/a	n/a	n/a	n/a
1175929	REC_WORD	wordpools/wasnorm_wordpool_less_exclusions.txt	LTP202	ltpFR	17	8	0	RAZOR	1171	n/a	0	n/a	n/a	n/a	n/a	n/a
1177181	REC_WORD	wordpools/wasnorm_wordpool_less_exclusions.txt	LTP202	ltpFR	17	8	0	BLADE	134	n/a	0	n/a	n/a	n/a	n/a	n/a
1184470	REC_WORD	wordpools/wasnorm_wordpool_less_exclusions.txt	LTP202	ltpFR	17	8	0	MAJOR	859	n/a	1	n/a	n/a	n/a	n/a	n/a
1185041	REC_WORD	wordpools/wasnorm_wordpool_less_exclusions.txt	LTP202	ltpFR	17	8	0	SOCIETY	1338	n/a	1	n/a	n/a	n/a	n/a	n/a
1185930	REC_WORD	wordpools/wasnorm_wordpool_less_exclusions.txt	LTP202	ltpFR	17	8	0	WORLD	1622	n/a	1	n/a	n/a	n/a	n/a	n/a
1187034	REC_WORD	wordpools/wasnorm_wordpool_less_exclusions.txt	LTP202	ltpFR	17	8	0	GROUND	666	n/a	1	n/a	n/a	n/a	n/a	n/a
1207537	REC_WORD	wordpools/wasnorm_wordpool_less_exclusions.txt	LTP202	ltpFR	17	8	0	CITRUS	313	n/a	1	n/a	n/a	n/a	n/a	n/a
1248310	WORD	wordpools/wasnorm_wordpool_less_exclusions.txt	LTP202	ltpFR	17	9	-1	RABBIT	1152	n/a	-1	1	1.0	1.0	upper	../fonts/Verdana.ttf
1252321	WORD	wordpools/wasnorm_wordpool_less_exclusions.txt	LTP202	ltpFR	17	9	-1	CHAPEL	280	n/a	-1	1	1.0	1.0	upper	../fonts/Verdana.ttf
1256530	WORD	wordpools/wasnorm_wordpool_less_exclusions.txt	LTP202	ltpFR	17	9	-1	TIGER	1467	n/a	-1	1	1.0	1.0	upper	../fonts/Verdana.ttf
1260607	WORD	wordpools/wasnorm_wordpool_less_exclusions.txt	LTP202	ltpFR	17	9	-1	GRASS	655	n/a	-1	1	1.0	1.0	upper	../fonts/Verdana.ttf
1264735	WORD	wordpools/wasnorm_wordpool_less_exclusions.txt	LTP202	ltpFR	17	9	-1	CAULIFLOWER	262	n/a	-1	1	1.0	1.0	upper	../fonts/Verdana.ttf
1268946	WORD	wordpools/wasnorm_wordpool_less_exclusions.txt	LTP202	ltpFR	17	9	-1	MONUMENT	913	n/a	-1	1	1.0	1.0	upper	../fonts/Verdana.ttf
1273056	WORD	wordpools/wasnorm_wordpool_less_exclusions.txt	LTP202	ltpFR	17	9	-1	IDOL	733	n/a	-1	1	1.0	1.0	upper	../fonts/Verdana.ttf
1277233	WORD	wordpools/wasnorm_wordpool_less_exclusions.txt	LTP202	ltpFR	17	9	-1	DRIVER	499	n/a	-1	1	1.0	1.0	upper	../fonts/Verdana.ttf
1281194	WORD	wordpools/wasnorm_wordpool_less_exclusions.txt	LTP202	ltpFR	17	9	-1	SCALPEL	1243	n/a	-1	1	1.0	1.0	upper	../fonts/Verdana.ttf
1285321	WORD	wordpools/wasnorm_wordpool_less_exclusions.txt	LTP202	ltpFR	17	9	-1	CUP	424	n/a	-1	1	1.0	1.0	upper	../fonts/Verdana.ttf
1289166	WORD	wordpools/wasnorm_wordpool_less_exclusions.txt	LTP202	ltpFR	17	9	-1	POT	1114	n/a	-1	1	1.0	1.0	upper	../fonts/Verdana.ttf
1293076	WORD	wordpools/wasnorm_wordpool_less_exclusions.txt	LTP202	ltpFR	17	9	-1	PANTHER	1009	n/a	-1	1	1.0	1.0	upper	../fonts/Verdana.ttf
1297204	WORD	wordpools/wasnorm_wordpool_less_exclusions.txt	LTP202	ltpFR	17	9	-1	TOWEL	1489	n/a	-1	1	1.0	1.0	upper	../fonts/Verdana.ttf
1301064	WORD	wordpools/wasnorm_wordpool_less_exclusions.txt	LTP202	ltpFR	17	9	-1	RAG	1160	n/a	-1	1	1.0	1.0	upper	../fonts/Verdana.ttf
1305075	WORD	wordpools/wasnorm_wordpool_less_exclusions.txt	LTP202	ltpFR	17	9	-1	TEMPLE	1448	n/a	-1	1	1.0	1.0	upper	../fonts/Verdana.ttf
1309286	WORD	wordpools/wasnorm_wordpool_less_exclusions.txt	LTP202	ltpFR	17	9	-1	LIVER	833	n/a	-1	1	1.0	1.0	upper	../fonts/Verdana.ttf
1315044	REC_START	n/a	LTP202	ltpFR	17	9	n/a	n/a	n/a	n/a	n/a	n/a	n/a	n/a	n/a	n/a
1315612	REC_WORD	wordpools/wasnorm_wordpool_less_exclusions.txt	LTP202	ltpFR	17	9	-1	TOWEL	1489	n/a	-1	n/a	n/a	n/a	n/a	n/a
1316291	REC_WORD	wordpools/wasnorm_wordpool_less_exclusions.txt	LTP202	ltpFR	17	9	-1	RAG	1160	n/a	-1	n/a	n/a	n/a	n/a	n/a
1317034	REC_WORD	wordpools/wasnorm_wordpool_less_exclusions.txt	LTP202	ltpFR	17	9	-1	TEMPLE	1448	n/a	-1	n/a	n/a	n/a	n/a	n/a
1317862	REC_WORD	wordpools/wasnorm_wordpool_less_exclusions.txt	LTP202	ltpFR	17	9	-1	LIVER	833	n/a	-1	n/a	n/a	n/a	n/a	n/a
1320526	REC_WORD	wordpools/wasnorm_wordpool_less_exclusions.txt	LTP202	ltpFR	17	9	-1	CHAPEL	280	n/a	-1	n/a	n/a	n/a	n/a	n/a
1321322	REC_WORD	wordpools/wasnorm_wordpool_less_exclusions.txt	LTP202	ltpFR	17	9	-1	MONUMENT	913	n/a	-1	n/a	n/a	n/a	n/a	n/a
1322008	REC_WORD	wordpools/wasnorm_wordpool_less_exclusions.txt	LTP202	ltpFR	17	9	-1	IDOL	733	n/a	-1	n/a	n/a	n/a	n/a	n/a
1326488	REC_WORD	wordpools/wasnorm_wordpool_less_exclusions.txt	LTP202	ltpFR	17	9	-1	TEMPLE	1448	n/a	-1	n/a	n/a	n/a	n/a	n/a
1329476	REC_WORD	wordpools/wasnorm_wordpool_less_exclusions.txt	LTP202	ltpFR	17	9	-1	RABBIT	1152	n/a	-1	n/a	n/a	n/a	n/a	n/a
1330429	REC_WORD	wordpools/wasnorm_wordpool_less_exclusions.txt	LTP202	ltpFR	17	9	-1	GRASS	655	n/a	-1	n/a	n/a	n/a	n/a	n/a
1331661	REC_WORD	wordpools/wasnorm_wordpool_less_exclusions.txt	LTP202	ltpFR	17	9	-1	PANTHER	1009	n/a	-1	n/a	n/a	n/a	n/a	n/a
1332803	REC_WORD	wordpools/wasnorm_wordpool_less_exclusions.txt	LTP202	ltpFR	17	9	-1	TIGER	1467	n/a	-1	n/a	n/a	n/a	n/a	n/a
1334395	REC_WORD	wordpools/wasnorm_wordpool_less_exclusions.txt	LTP202	ltpFR	17	9	-1	CAULIFLOWER	262	n/a	-1	n/a	n/a	n/a	n/a	n/a
1399151	WORD	wordpools/wasnorm_wordpool_less_exclusions.txt	LTP202	ltpFR	17	10	-1	RING	1193	n/a	-1	1	1.0	1.0	upper	../fonts/Verdana.ttf
1403145	WORD	wordpools/wasnorm_wordpool_less_exclusions.txt	LTP202	ltpFR	17	10	-1	SHIP	1286	n/a	-1	1	1.0	1.0	upper	../fonts/Verdana.ttf
1407023	WORD	wordpools/wasnorm_wordpool_less_exclusions.txt	LTP202	ltpFR	17	10	-1	DOUGHNUT	490	n/a	-1	1	1.0	1.0	upper	../fonts/Verdana.ttf
1410950	WORD	wordpools/wasnorm_wordpool_less_exclusions.txt	LTP202	ltpFR	17	10	-1	DIAMOND	458	n/a	-1	1	1.0	1.0	upper	../fonts/Verdana.ttf
1415077	WORD	wordpools/wasnorm_wordpool_less_exclusions.txt	LTP202	ltpFR	17	10	-1	VINE	1568	n/a	-1	1	1.0	1.0	upper	../fonts/Verdana.ttf
1418922	WORD	wordpools/wasnorm_wordpool_less_exclusions.txt	LTP202	ltpFR	17	10	-1	BERRY	122	n/a	-1	1	1.0	1.0	upper	../fonts/Verdana.ttf
1422949	WORD	wordpools/wasnorm_wordpool_less_exclusions.txt	LTP202	ltpFR	17	10	-1	OWL	992	n/a	-1	1	1.0	1.0	upper	../fonts/Verdana.ttf
1426926	WORD	wordpools/wasnorm_wordpool_less_exclusions.txt	LTP202	ltpFR	17	10	-1	TABLE	1426	n/a	-1	1	1.0	1.0	upper	../fonts/Verdana.ttf
1431087	WORD	wordpools/wasnorm_wordpool_less_exclusions.txt	LTP202	ltpFR	17	10	-1	COMMANDER	354	n/a	-1	1	1.0	1.0	upper	../fonts/Verdana.ttf
1435114	WORD	wordpools/wasnorm_wordpool_less_exclusions.txt	LTP202	ltpFR	17	10	-1	COOKBOOK	373	n/a	-1	1	1.0	1.0	upper	../fonts/Verdana.ttf
1438992	WORD	wordpools/wasnorm_wordpool_less_exclusions.txt	LTP202	ltpFR	17	10	-1	COOKIE	374	n/a	-1	1	1.0	1.0	upper	../fonts/Verdana.ttf
1443002	WORD	wordpools/wasnorm_wordpool_less_exclusions.txt	LTP202	ltpFR	17	10	-1	HAMPER	682	n/a	-1	1	1.0	1.0	upper	../fonts/Verdana.ttf
1447196	WORD	wordpools/wasnorm_wordpool_less_exclusions.txt	LTP202	ltpFR	17	10	-1	GUARDIAN	668	n/a	-1	1	1.0	1.0	upper	../fonts/Verdana.ttf
1451057	WORD	wordpools/wasnorm_wordpool_less_exclusions.txt	LTP202	ltpFR	17	10	-1	ANGEL	22	n/a	-1	1	1.0	1.0	upper	../fonts/Verdana.ttf
1454901	WORD	wordpools/wasnorm_wordpool_less_exclusions.txt	LTP202	ltpFR	17	10	-1	DONKEY	484	n/a	-1	1	1.0	1.0	upper	../fonts/Verdana.ttf
1458895	WORD	wordpools/wasnorm_wordpool_less_exclusions.txt	LTP202	ltpFR	17	10	-1	CRAB	397	n/a	-1	1	1.0	1.0	upper	../fonts/Verdana.ttf
1464537	REC_START	n/a	LTP202	ltpFR	17	10	n/a	n/a	n/a	n/a	n/a	n/a	n/a	n/a	n/a	n/a
1464941	REC_WORD	wordpools/wasnorm_wordpool_less_exclusions.txt	LTP202	ltpFR	17	10	-1	HAMPER	682	n/a	-1	n/a	n/a	n/a	n/a	n/a
1465899	REC_WORD	wordpools/wasnorm_wordpool_less_exclusions.txt	LTP202	ltpFR	17	10	-1	GUARDIAN	668	n/a	-1	n/a	n/a	n/a	n/a	n/a
1466587	REC_WORD	wordpools/wasnorm_wordpool_less_exclusions.txt	LTP202	ltpFR	17	10	-1	ANGEL	22	n/a	-1	n/a	n/a	n/a	n/a	n/a
1469066	REC_WORD	wordpools/wasnorm_wordpool_less_exclusions.txt	LTP202	ltpFR	17	10	-1	CRAB	397	n/a	-1	n/a	n/a	n/a	n/a	n/a
1476011	REC_WORD	wordpools/wasnorm_wordpool_less_exclusions.txt	LTP202	ltpFR	17	10	-1	COMMANDER	354	n/a	-1	n/a	n/a	n/a	n/a	n/a
1477482	REC_WORD	wordpools/wasnorm_wordpool_less_exclusions.txt	LTP202	ltpFR	17	10	-1	SHIP	1286	n/a	-1	n/a	n/a	n/a	n/a	n/a
1478759	REC_WORD	wordpools/wasnorm_wordpool_less_exclusions.txt	LTP202	ltpFR	17	10	-1	DOUGHNUT	490	n/a	-1	n/a	n/a	n/a	n/a	n/a
1479752	REC_WORD	wordpools/wasnorm_wordpool_less_exclusions.txt	LTP202	ltpFR	17	10	-1	VINE	1568	n/a	-1	n/a	n/a	n/a	n/a	n/a
1480840	REC_WORD	wordpools/wasnorm_wordpool_less_exclusions.txt	LTP202	ltpFR	17	10	-1	TABLE	1426	n/a	-1	n/a	n/a	n/a	n/a	n/a
1482082	REC_WORD	wordpools/wasnorm_wordpool_less_exclusions.txt	LTP202	ltpFR	17	10	-1	BERRY	122	n/a	-1	n/a	n/a	n/a	n/a	n/a
1486492	REC_WORD	wordpools/wasnorm_wordpool_less_exclusions.txt	LTP202	ltpFR	17	10	-1	DIAMOND	458	n/a	-1	n/a	n/a	n/a	n/a	n/a
1487305	REC_WORD	wordpools/wasnorm_wordpool_less_exclusions.txt	LTP202	ltpFR	17	10	-1	RING	1193	n/a	-1	n/a	n/a	n/a	n/a	n/a
1505404	REC_WORD	wordpools/wasnorm_wordpool_less_exclusions.txt	LTP202	ltpFR	17	10	-1	COOKBOOK	373	n/a	-1	n/a	n/a	n/a	n/a	n/a
1507973	REC_WORD	wordpools/wasnorm_wordpool_less_exclusions.txt	LTP202	ltpFR	17	10	-1	COOKIE	374	n/a	-1	n/a	n/a	n/a	n/a	n/a
1552223	WORD	wordpools/wasnorm_wordpool_less_exclusions.txt	LTP202	ltpFR	17	11	-1	MARINE	869	n/a	-1	1	1.0	1.0	upper	../fonts/Verdana.ttf
1556150	WORD	wordpools/wasnorm_wordpool_less_exclusions.txt	LTP202	ltpFR	17	11	-1	DOCK	477	n/a	-1	1	1.0	1.0	upper	../fonts/Verdana.ttf
1560094	WORD	wordpools/wasnorm_wordpool_less_exclusions.txt	LTP202	ltpFR	17	11	-1	TRACTOR	1493	n/a	-1	1	1.0	1.0	upper	../fonts/Verdana.ttf
1564288	WORD	wordpools/wasnorm_wordpool_less_exclusions.txt	LTP202	ltpFR	17	11	-1	TREAD	1499	n/a	-1	1	1.0	1.0	upper	../fonts/Verdana.ttf
1568116	WORD	wordpools/wasnorm_wordpool_less_exclusions.txt	LTP202	ltpFR	17	11	-1	DECK	443	n/a	-1	1	1.0	1.0	upper	../fonts/Verdana.ttf
1572243	WORD	wordpools/wasnorm_wordpool_less_exclusions.txt	LTP202	ltpFR	17	11	-1	WHIP	1604	n/a	-1	1	1.0	1.0	upper	../fonts/Verdana.ttf
1576337	WORD	wordpools/wasnorm_wordpool_less_exclusions.txt	LTP202	ltpFR	17	11	-1	DART	440	n/a	-1	1	1.0	1.0	upper	../fonts/Verdana.ttf
1580214	WORD	wordpools/wasnorm_wordpool_less_exclusions.txt	LTP202	ltpFR	17	11	-1	STAKE	1368	n/a	-1	1	1.0	1.0	upper	../fonts/Verdana.ttf
1584258	WORD	wordpools/wasnorm_wordpool_less_exclusions.txt	LTP202	ltpFR	17	11	-1	KEG	770	n/a	-1	1	1.0	1.0	upper	../fonts/Verdana.ttf
1588452	WORD	wordpools/wasnorm_wordpool_less_exclusions.txt	LTP202	ltpFR	17	11	-1	RUM	1217	n/a	-1	1	1.0	1.0	upper	../fonts/Verdana.ttf
1592595	WORD	wordpools/wasnorm_wordpool_less_exclusions.txt	LTP202	ltpFR	17	11	-1	CABIN	211	n/a	-1	1	1.0	1.0	upper	../fonts/Verdana.ttf
1596806	WORD	wordpools/wasnorm_wordpool_less_exclusions.txt	LTP202	ltpFR	17	11	-1	FLESH	579	n/a	-1	1	1.0	1.0	upper	../fonts/Verdana.ttf
1600699	WORD	wordpools/wasnorm_wordpool_less_exclusions.txt	LTP202	ltpFR	17	11	-1	CANARY	227	n/a	-1	1	1.0	1.0	upper	../fonts/Verdana.ttf
1604643	WORD	wordpools/wasnorm_wordpool_less_exclusions.txt	LTP202	ltpFR	17	11	-1	EAGLE	512	n/a	-1	1	1.0	1.0	upper	../fonts/Verdana.ttf
1608621	WORD	wordpools/wasnorm_wordpool_less_exclusions.txt	LTP202	ltpFR	17	11	-1	CHEESE	289	n/a	-1	1	1.0	1.0	upper	../fonts/Verdana.ttf
1612449	WORD	wordpools/wasnorm_wordpool_less_exclusions.txt	LTP202	ltpFR	17	11	-1	VEIN	1554	n/a	-1	1	1.0	1.0	upper	../fonts/Verdana.ttf
1618242	REC_START	n/a	LTP202	ltpFR	17	11	n/a	n/a	n/a	n/a	n/a	n/a	n/a	n/a	n/a	n/a
1618681	REC_WORD	wordpools/wasnorm_wordpool_less_exclusions.txt	LTP202	ltpFR	17	11	-1	CHEESE	289	n/a	-1	n/a	n/a	n/a	n/a	n/a
1619282	REC_WORD	wordpools/wasnorm_wordpool_less_exclusions.txt	LTP202	ltpFR	17	11	-1	VEIN	1554	n/a	-1	n/a	n/a	n/a	n/a	n/a
1619858	REC_WORD	wordpools/wasnorm_wordpool_less_exclusions.txt	LTP202	ltpFR	17	11	-1	CANARY	227	n/a	-1	n/a	n/a	n/a	n/a	n/a
1620626	REC_WORD	wordpools/wasnorm_wordpool_less_exclusions.txt	LTP202	ltpFR	17	11	-1	EAGLE	512	n/a	-1	n/a	n/a	n/a	n/a	n/a
1621789	REC_WORD	wordpools/wasnorm_wordpool_less_exclusions.txt	LTP202	ltpFR	17	11	-1	DOCK	477	n/a	-1	n/a	n/a	n/a	n/a	n/a
1622417	REC_WORD	wordpools/wasnorm_wordpool_less_exclusions.txt	LTP202	ltpFR	17	11	-1	DECK	443	n/a	-1	n/a	n/a	n/a	n/a	n/a
1622991	REC_WORD	wordpools/wasnorm_wordpool_less_exclusions.txt	LTP202	ltpFR	17	11	-1	KEG	770	n/a	-1	n/a	n/a	n/a	n/a	n/a
1623714	REC_WORD	wordpools/wasnorm_wordpool_less_exclusions.txt	LTP202	ltpFR	17	11	-1	RUM	1217	n/a	-1	n/a	n/a	n/a	n/a	n/a
1629616	REC_WORD	wordpools/wasnorm_wordpool_less_exclusions.txt	LTP202	ltpFR	17	11	-1	TREAD	1499	n/a	-1	n/a	n/a	n/a	n/a	n/a
1631277	REC_WORD	wordpools/wasnorm_wordpool_less_exclusions.txt	LTP202	ltpFR	17	11	-1	MARINE	869	n/a	-1	n/a	n/a	n/a	n/a	n/a
1632908	REC_WORD	wordpools/wasnorm_wordpool_less_exclusions.txt	LTP202	ltpFR	17	11	-1	WHIP	1604	n/a	-1	n/a	n/a	n/a	n/a	n/a
1634764	REC_WORD	wordpools/wasnorm_wordpool_less_exclusions.txt	LTP202	ltpFR	17	11	-1	TRACTOR	1493	n/a	-1	n/a	n/a	n/a	n/a	n/a
1706708	WORD	wordpools/wasnorm_wordpool_less_exclusions.txt	LTP202	ltpFR	17	12	0	ACTRESS	6	n/a	1	0	0.5869140625	0.422607421875	lower	../fonts/zerothre.ttf
1710635	WORD	wordpools/wasnorm_wordpool_less_exclusions.txt	LTP202	ltpFR	17	12	0	MOP	916	n/a	0	0	0.5869140625	0.422607421875	lower	../fonts/zerothre.ttf
1714712	WORD	wordpools/wasnorm_wordpool_less_exclusions.txt	LTP202	ltpFR	17	12	0	DUNE	506	n/a	1	0	0.5869140625	0.422607421875	lower	../fonts/zerothre.ttf
1718706	WORD	wordpools/wasnorm_wordpool_less_exclusions.txt	LTP202	ltpFR	17	12	0	CAGE	218	n/a	1	0	0.5869140625	0.422607421875	lower	../fonts/zerothre.ttf
1722617	WORD	wordpools/wasnorm_wordpool_less_exclusions.txt	LTP202	ltpFR	17	12	0	PELICAN	1039	n/a	1	0	0.5869140625	0.422607421875	lower	../fonts/zerothre.ttf
1726728	WORD	wordpools/wasnorm_wordpool_less_exclusions.txt	LTP202	ltpFR	17	12	0	VINEGAR	1569	n/a	0	0	0.5869140625	0.422607421875	lower	../fonts/zerothre.ttf
1730639	WORD	wordpools/wasnorm_wordpool_less_exclusions.txt	LTP202	ltpFR	17	12	0	TUTU	1524	n/a	0	0	0.5869140625	0.422607421875	lower	../fonts/zerothre.ttf
1734599	WORD	wordpools/wasnorm_wordpool_less_exclusions.txt	LTP202	ltpFR	17	12	0	SWING	1421	n/a	1	0	0.5869140625	0.422607421875	lower	../fonts/zerothre.ttf
1738811	WORD	wordpools/wasnorm_wordpool_less_exclusions.txt	LTP202	ltpFR	17	12	0	PIRATE	1074	n/a	1	0	0.5869140625	0.422607421875	lower	../fonts/zerothre.ttf
1742805	WORD	wordpools/wasnorm_wordpool_less_exclusions.txt	LTP202	ltpFR	17	12	0	OAR	966	n/a	1	0	0.5869140625	0.422607421875	lower	../fonts/zerothre.ttf
1746915	WORD	wordpools/wasnorm_wordpool_less_exclusions.txt	LTP202	ltpFR	17	12	0	LOOP	844	n/a	0	0	0.5869140625	0.422607421875	lower	../fonts/zerothre.ttf
1751109	WORD	wordpools/wasnorm_wordpool_less_exclusions.txt	LTP202	ltpFR	17	12	0	TUBE	1516	n/a	1	0	0.5869140625	0.422607421875	lower	../fonts/zerothre.ttf
1755203	WORD	wordpools/wasnorm_wordpool_less_exclusions.txt	LTP202	ltpFR	17	12	0	ARTICLE	42	n/a	1	0	0.5869140625	0.422607421875	lower	../fonts/zerothre.ttf
1759130	WORD	wordpools/wasnorm_wordpool_less_exclusions.txt	LTP202	ltpFR	17	12	0	FILM	565	n/a	0	0	0.5869140625	0.422607421875	lower	../fonts/zerothre.ttf
1763291	WORD	wordpools/wasnorm_wordpool_less_exclusions.txt	LTP202	ltpFR	17	12	0	GRAPE	654	n/a	0	0	0.5869140625	0.422607421875	lower	../fonts/zerothre.ttf
1767385	WORD	wordpools/wasnorm_wordpool_less_exclusions.txt	LTP202	ltpFR	17	12	0	DUSTPAN	509	n/a	0	0	0.5869140625	0.422607421875	lower	../fonts/zerothre.ttf
1773194	REC_START	n/a	LTP202	ltpFR	17	12	n/a	n/a	n/a	n/a	n/a	n/a	n/a	n/a	n/a	n/a
1773668	REC_WORD	wordpools/wasnorm_wordpool_less_exclusions.txt	LTP202	ltpFR	17	12	0	TUBE	1516	n/a	1	n/a	n/a	n/a	n/a	n/a
1774226	REC_WORD	wordpools/wasnorm_wordpool_less_exclusions.txt	LTP202	ltpFR	17	12	0	ARTICLE	42	n/a	1	n/a	n/a	n/a	n/a	n/a
1774762	REC_WORD	wordpools/wasnorm_wordpool_less_exclusions.txt	LTP202	ltpFR	17	12	0	FILM	565	n/a	0	n/a	n/a	n/a	n/a	n/a
1775538	REC_WORD	wordpools/wasnorm_wordpool_less_exclusions.txt	LTP202	ltpFR	17	12	0	GRAPE	654	n/a	0	n/a	n/a	n/a	n/a	n/a
1776172	REC_WORD	wordpools/wasnorm_wordpool_less_exclusions.txt	LTP202	ltpFR	17	12	0	DUSTPAN	509	n/a	0	n/a	n/a	n/a	n/a	n/a
1778322	REC_WORD	wordpools/wasnorm_wordpool_less_exclusions.txt	LTP202	ltpFR	17	12	0	PELICAN	1039	n/a	1	n/a	n/a	n/a	n/a	n/a
1779320	REC_WORD	wordpools/wasnorm_wordpool_less_exclusions.txt	LTP202	ltpFR	17	12	0	CAGE	218	n/a	1	n/a	n/a	n/a	n/a	n/a
1783261	REC_WORD	wordpools/wasnorm_wordpool_less_exclusions.txt	LTP202	ltpFR	17	12	0	DUNE	506	n/a	1	n/a	n/a	n/a	n/a	n/a
1784847	REC_WORD	wordpools/wasnorm_wordpool_less_exclusions.txt	LTP202	ltpFR	17	12	0	MOP	916	n/a	0	n/a	n/a	n/a	n/a	n/a
1788554	REC_WORD	wordpools/wasnorm_wordpool_less_exclusions.txt	LTP202	ltpFR	17	12	0	ACTRESS	6	n/a	1	n/a	n/a	n/a	n/a	n/a
1793512	REC_WORD	wordpools/wasnorm_wordpool_less_exclusions.txt	LTP202	ltpFR	17	12	0	LOOP	844	n/a	0	n/a	n/a	n/a	n/a	n/a
1797997	REC_WORD	wordpools/wasnorm_wordpool_less_exclusions.txt	LTP202	ltpFR	17	12	0	PIRATE	1074	n/a	1	n/a	n/a	n/a	n/a	n/a
1800392	REC_WORD	wordpools/wasnorm_wordpool_less_exclusions.txt	LTP202	ltpFR	17	12	0	TUTU	1524	n/a	0	n/a	n/a	n/a	n/a	n/a
1812779	REC_WORD	wordpools/wasnorm_wordpool_less_exclusions.txt	LTP202	ltpFR	17	12	0	MOP	916	n/a	0	n/a	n/a	n/a	n/a	n/a
1818160	REC_WORD	wordpools/wasnorm_wordpool_less_exclusions.txt	LTP202	ltpFR	17	12	0	FILM	565	n/a	0	n/a	n/a	n/a	n/a	n/a
1848796	REST_REWET	n/a	LTP202	ltpFR	17	12	n/a	n/a	n/a	n/a	n/a	n/a	n/a	n/a	n/a	n/a
2045601	WORD	wordpools/wasnorm_wordpool_less_exclusions.txt	LTP202	ltpFR	17	13	1	SPY	1360	n/a	1	1	0.412841796875	0.57763671875	upper	../fonts/amplitud.ttf
2049496	WORD	wordpools/wasnorm_wordpool_less_exclusions.txt	LTP202	ltpFR	17	13	1	BADGE	68	n/a	0	1	0.412841796875	0.57763671875	upper	../fonts/amplitud.ttf
2053573	WORD	wordpools/wasnorm_wordpool_less_exclusions.txt	LTP202	ltpFR	17	13	1	FOUNTAIN	597	n/a	1	1	0.412841796875	0.57763671875	upper	../fonts/amplitud.ttf
2057617	WORD	wordpools/wasnorm_wordpool_less_exclusions.txt	LTP202	ltpFR	17	13	1	LUNG	850	n/a	0	1	0.412841796875	0.57763671875	upper	../fonts/amplitud.ttf
2061727	WORD	wordpools/wasnorm_wordpool_less_exclusions.txt	LTP202	ltpFR	17	13	1	CANOE	233	n/a	0	1	0.412841796875	0.57763671875	upper	../fonts/amplitud.ttf
2065705	WORD	wordpools/wasnorm_wordpool_less_exclusions.txt	LTP202	ltpFR	17	13	0	VESSEL	1558	n/a	1	0	0.5869140625	0.422607421875	lower	../fonts/zerothre.ttf
2069899	WORD	wordpools/wasnorm_wordpool_less_exclusions.txt	LTP202	ltpFR	17	13	0	SHRINE	1298	n/a	1	0	0.5869140625	0.422607421875	lower	../fonts/zerothre.ttf
2074093	WORD	wordpools/wasnorm_wordpool_less_exclusions.txt	LTP202	ltpFR	17	13	0	CUFF	423	n/a	0	0	0.5869140625	0.422607421875	lower	../fonts/zerothre.ttf
2078254	WORD	wordpools/wasnorm_wordpool_less_exclusions.txt	LTP202	ltpFR	17	13	1	KIDNEY	776	n/a	0	1	0.412841796875	0.57763671875	upper	../fonts/amplitud.ttf
2082181	WORD	wordpools/wasnorm_wordpool_less_exclusions.txt	LTP202	ltpFR	17	13	1	STREAM	1392	n/a	1	1	0.412841796875	0.57763671875	upper	../fonts/amplitud.ttf
2086092	WORD	wordpools/wasnorm_wordpool_less_exclusions.txt	LTP202	ltpFR	17	13	1	HOSTESS	723	n/a	1	1	0.412841796875	0.57763671875	upper	../fonts/amplitud.ttf
2089970	WORD	wordpools/wasnorm_wordpool_less_exclusions.txt	LTP202	ltpFR	17	13	0	SERVANT	1271	n/a	2	0	0.5869140625	0.422607421875	lower	../fonts/zerothre.ttf
2091434	KEY_MSG	n/a	LTP202	ltpFR	17	13	n/a	n/a	n/a	n/a	n/a	n/a	n/a	n/a	n/a	n/a
2093947	WORD	wordpools/wasnorm_wordpool_less_exclusions.txt	LTP202	ltpFR	17	13	0	GODDESS	646	n/a	1	0	0.5869140625	0.422607421875	lower	../fonts/zerothre.ttf
2097791	WORD	wordpools/wasnorm_wordpool_less_exclusions.txt	LTP202	ltpFR	17	13	0	TELESCOPE	1446	n/a	0	0	0.5869140625	0.422607421875	lower	../fonts/zerothre.ttf
2101735	WORD	wordpools/wasnorm_wordpool_less_exclusions.txt	LTP202	ltpFR	17	13	0	PARENT	1013	n/a	1	0	0.5869140625	0.422607421875	lower	../fonts/zerothre.ttf
2105879	WORD	wordpools/wasnorm_wordpool_less_exclusions.txt	LTP202	ltpFR	17	13	0	CHEEK	287	n/a	0	0	0.5869140625	0.422607421875	lower	../fonts/zerothre.ttf
2111804	REC_START	n/a	LTP202	ltpFR	17	13	n/a	n/a	n/a	n/a	n/a	n/a	n/a	n/a	n/a	n/a
2112253	REC_WORD	wordpools/wasnorm_wordpool_less_exclusions.txt	LTP202	ltpFR	17	13	0	TELESCOPE	1446	n/a	0	n/a	n/a	n/a	n/a	n/a
2112986	REC_WORD	wordpools/wasnorm_wordpool_less_exclusions.txt	LTP202	ltpFR	17	13	0	PARENT	1013	n/a	1	n/a	n/a	n/a	n/a	n/a
2113600	REC_WORD	wordpools/wasnorm_wordpool_less_exclusions.txt	LTP202	ltpFR	17	13	0	CHEEK	287	n/a	0	n/a	n/a	n/a	n/a	n/a
2114233	REC_WORD	wordpools/wasnorm_wordpool_less_exclusions.txt	LTP202	ltpFR	17	13	0	SERVANT	1271	n/a	2	n/a	n/a	n/a	n/a	n/a
2114977	REC_WORD	wordpools/wasnorm_wordpool_less_exclusions.txt	LTP202	ltpFR	17	13	0	GODDESS	646	n/a	1	n/a	n/a	n/a	n/a	n/a
2117655	REC_WORD	wordpools/wasnorm_wordpool_less_exclusions.txt	LTP202	ltpFR	17	13	0	ACTRESS	6	n/a	1	n/a	n/a	n/a	n/a	n/a
2124560	REC_WORD	wordpools/wasnorm_wordpool_less_exclusions.txt	LTP202	ltpFR	17	13	n/a	WAITRESS	1581	n/a	n/a	n/a	n/a	n/a	n/a	n/a
2128755	REC_WORD	wordpools/wasnorm_wordpool_less_exclusions.txt	LTP202	ltpFR	17	13	1	SPY	1360	n/a	1	n/a	n/a	n/a	n/a	n/a
2129773	REC_WORD	wordpools/wasnorm_wordpool_less_exclusions.txt	LTP202	ltpFR	17	13	1	BADGE	68	n/a	0	n/a	n/a	n/a	n/a	n/a
2131414	REC_WORD	wordpools/wasnorm_wordpool_less_exclusions.txt	LTP202	ltpFR	17	13	1	STREAM	1392	n/a	1	n/a	n/a	n/a	n/a	n/a
2133609	REC_WORD	wordpools/wasnorm_wordpool_less_exclusions.txt	LTP202	ltpFR	17	13	1	FOUNTAIN	597	n/a	1	n/a	n/a	n/a	n/a	n/a
2135570	REC_WORD	wordpools/wasnorm_wordpool_less_exclusions.txt	LTP202	ltpFR	17	13	1	CANOE	233	n/a	0	n/a	n/a	n/a	n/a	n/a
2136532	REC_WORD	wordpools/wasnorm_wordpool_less_exclusions.txt	LTP202	ltpFR	17	13	0	VESSEL	1558	n/a	1	n/a	n/a	n/a	n/a	n/a
2137979	REC_WORD	wordpools/wasnorm_wordpool_less_exclusions.txt	LTP202	ltpFR	17	13	0	OAR	966	n/a	1	n/a	n/a	n/a	n/a	n/a
2152496	REC_WORD	wordpools/wasnorm_wordpool_less_exclusions.txt	LTP202	ltpFR	17	13	0	CUFF	423	n/a	0	n/a	n/a	n/a	n/a	n/a
2192233	WORD	wordpools/wasnorm_wordpool_less_exclusions.txt	LTP202	ltpFR	17	14	1	SHELTER	1282	n/a	0	1	0.412841796875	0.57763671875	upper	../fonts/amplitud.ttf
2196078	WORD	wordpools/wasnorm_wordpool_less_exclusions.txt	LTP202	ltpFR	17	14	1	WAREHOUSE	1588	n/a	0	1	0.412841796875	0.57763671875	upper	../fonts/amplitud.ttf
2200222	WORD	wordpools/wasnorm_wordpool_less_exclusions.txt	LTP202	ltpFR	17	14	1	FREEWAY	603	n/a	0	1	0.412841796875	0.57763671875	upper	../fonts/amplitud.ttf
2204266	WORD	wordpools/wasnorm_wordpool_less_exclusions.txt	LTP202	ltpFR	17	14	1	DOLLAR	482	n/a	0	1	0.412841796875	0.57763671875	upper	../fonts/amplitud.ttf
2208359	WORD	wordpools/wasnorm_wordpool_less_exclusions.txt	LTP202	ltpFR	17	14	1	CINNAMON	310	n/a	0	1	0.412841796875	0.57763671875	upper	../fonts/amplitud.ttf
2212536	WORD	wordpools/wasnorm_wordpool_less_exclusions.txt	LTP202	ltpFR	17	14	1	LUNCH	849	n/a	0	1	0.412841796875	0.57763671875	upper	../fonts/amplitud.ttf
2216464	WORD	wordpools/wasnorm_wordpool_less_exclusions.txt	LTP202	ltpFR	17	14	1	MILK	895	n/a	0	1	0.412841796875	0.57763671875	upper	../fonts/amplitud.ttf
2220657	WORD	wordpools/wasnorm_wordpool_less_exclusions.txt	LTP202	ltpFR	17	14	1	ANTELOPE	27	n/a	1	1	0.412841796875	0.57763671875	upper	../fonts/amplitud.ttf
2224868	WORD	wordpools/wasnorm_wordpool_less_exclusions.txt	LTP202	ltpFR	17	14	1	MEAT	883	n/a	0	1	0.412841796875	0.57763671875	upper	../fonts/amplitud.ttf
2228979	WORD	wordpools/wasnorm_wordpool_less_exclusions.txt	LTP202	ltpFR	17	14	1	OREGANO	983	n/a	0	1	0.412841796875	0.57763671875	upper	../fonts/amplitud.ttf
2233023	WORD	wordpools/wasnorm_wordpool_less_exclusions.txt	LTP202	ltpFR	17	14	1	ACROBAT	4	n/a	1	1	0.412841796875	0.57763671875	upper	../fonts/amplitud.ttf
2237017	WORD	wordpools/wasnorm_wordpool_less_exclusions.txt	LTP202	ltpFR	17	14	1	CLOWN	330	n/a	1	1	0.412841796875	0.57763671875	upper	../fonts/amplitud.ttf
2241027	WORD	wordpools/wasnorm_wordpool_less_exclusions.txt	LTP202	ltpFR	17	14	1	PORK	1108	n/a	0	1	0.412841796875	0.57763671875	upper	../fonts/amplitud.ttf
2244905	WORD	wordpools/wasnorm_wordpool_less_exclusions.txt	LTP202	ltpFR	17	14	1	TURKEY	1520	n/a	1	1	0.412841796875	0.57763671875	upper	../fonts/amplitud.ttf
2248782	WORD	wordpools/wasnorm_wordpool_less_exclusions.txt	LTP202	ltpFR	17	14	1	REFRIGERATOR	1179	n/a	0	1	0.412841796875	0.57763671875	upper	../fonts/amplitud.ttf
2252626	WORD	wordpools/wasnorm_wordpool_less_exclusions.txt	LTP202	ltpFR	17	14	1	HERD	705	n/a	0	1	0.412841796875	0.57763671875	upper	../fonts/amplitud.ttf
2258469	REC_START	n/a	LTP202	ltpFR	17	14	n/a	n/a	n/a	n/a	n/a	n/a	n/a	n/a	n/a	n/a
2258868	REC_WORD	wordpools/wasnorm_wordpool_less_exclusions.txt	LTP202	ltpFR	17	14	1	REFRIGERATOR	1179	n/a	0	n/a	n/a	n/a	n/a	n/a
2259752	REC_WORD	wordpools/wasnorm_wordpool_less_exclusions.txt	LTP202	ltpFR	17	14	1	HERD	705	n/a	0	n/a	n/a	n/a	n/a	n/a
2261272	REC_WORD	wordpools/wasnorm_wordpool_less_exclusions.txt	LTP202	ltpFR	17	14	1	PORK	1108	n/a	0	n/a	n/a	n/a	n/a	n/a
2262026	REC_WORD	wordpools/wasnorm_wordpool_less_exclusions.txt	LTP202	ltpFR	17	14	1	TURKEY	1520	n/a	1	n/a	n/a	n/a	n/a	n/a
2262979	REC_WORD_VV	wordpools/wasnorm_wordpool_less_exclusions.txt	LTP202	ltpFR	17	14	n/a	<>	-1	n/a	n/a	n/a	n/a	n/a	n/a	n/a
2263497	REC_WORD	wordpools/wasnorm_wordpool_less_exclusions.txt	LTP202	ltpFR	17	14	1	TURKEY	1520	n/a	1	n/a	n/a	n/a	n/a	n/a
2264919	REC_WORD	wordpools/wasnorm_wordpool_less_exclusions.txt	LTP202	ltpFR	17	14	1	ANTELOPE	27	n/a	1	n/a	n/a	n/a	n/a	n/a
2265847	REC_WORD	wordpools/wasnorm_wordpool_less_exclusions.txt	LTP202	ltpFR	17	14	1	MEAT	883	n/a	0	n/a	n/a	n/a	n/a	n/a
2269194	REC_WORD	wordpools/wasnorm_wordpool_less_exclusions.txt	LTP202	ltpFR	17	14	1	SHELTER	1282	n/a	0	n/a	n/a	n/a	n/a	n/a
2271414	REC_WORD	wordpools/wasnorm_wordpool_less_exclusions.txt	LTP202	ltpFR	17	14	1	WAREHOUSE	1588	n/a	0	n/a	n/a	n/a	n/a	n/a
2272282	REC_WORD	wordpools/wasnorm_wordpool_less_exclusions.txt	LTP202	ltpFR	17	14	1	FREEWAY	603	n/a	0	n/a	n/a	n/a	n/a	n/a
2274178	REC_WORD	wordpools/wasnorm_wordpool_less_exclusions.txt	LTP202	ltpFR	17	14	1	CINNAMON	310	n/a	0	n/a	n/a	n/a	n/a	n/a
2275834	REC_WORD	wordpools/wasnorm_wordpool_less_exclusions.txt	LTP202	ltpFR	17	14	1	DOLLAR	482	n/a	0	n/a	n/a	n/a	n/a	n/a
2276822	REC_WORD	wordpools/wasnorm_wordpool_less_exclusions.txt	LTP202	ltpFR	17	14	1	LUNCH	849	n/a	0	n/a	n/a	n/a	n/a	n/a
2284769	REC_WORD	wordpools/wasnorm_wordpool_less_exclusions.txt	LTP202	ltpFR	17	14	1	ACROBAT	4	n/a	1	n/a	n/a	n/a	n/a	n/a
2285916	REC_WORD	wordpools/wasnorm_wordpool_less_exclusions.txt	LTP202	ltpFR	17	14	1	CLOWN	330	n/a	1	n/a	n/a	n/a	n/a	n/a
2293943	REC_WORD	wordpools/wasnorm_wordpool_less_exclusions.txt	LTP202	ltpFR	17	14	1	PORK	1108	n/a	0	n/a	n/a	n/a	n/a	n/a
2311189	REC_WORD	wordpools/wasnorm_wordpool_less_exclusions.txt	LTP202	ltpFR	17	14	1	REFRIGERATOR	1179	n/a	0	n/a	n/a	n/a	n/a	n/a
2342641	WORD	wordpools/wasnorm_wordpool_less_exclusions.txt	LTP202	ltpFR	17	15	1	ROOST	1208	n/a	0	1	0.412841796875	0.57763671875	upper	../fonts/amplitud.ttf
2346836	WORD	wordpools/wasnorm_wordpool_less_exclusions.txt	LTP202	ltpFR	17	15	1	NEST	945	n/a	0	1	0.412841796875	0.57763671875	upper	../fonts/amplitud.ttf
2350763	WORD	wordpools/wasnorm_wordpool_less_exclusions.txt	LTP202	ltpFR	17	15	1	OPERA	978	n/a	0	1	0.412841796875	0.57763671875	upper	../fonts/amplitud.ttf
2354741	WORD	wordpools/wasnorm_wordpool_less_exclusions.txt	LTP202	ltpFR	17	15	1	TOAST	1471	n/a	0	1	0.412841796875	0.57763671875	upper	../fonts/amplitud.ttf
2358701	WORD	wordpools/wasnorm_wordpool_less_exclusions.txt	LTP202	ltpFR	17	15	1	FROG	608	n/a	1	1	0.412841796875	0.57763671875	upper	../fonts/amplitud.ttf
2362611	WORD	wordpools/wasnorm_wordpool_less_exclusions.txt	LTP202	ltpFR	17	15	1	MOSS	918	n/a	0	1	0.412841796875	0.57763671875	upper	../fonts/amplitud.ttf
2366539	WORD	wordpools/wasnorm_wordpool_less_exclusions.txt	LTP202	ltpFR	17	15	1	TERRITORY	1452	n/a	0	1	0.412841796875	0.57763671875	upper	../fonts/amplitud.ttf
2370451	WORD	wordpools/wasnorm_wordpool_less_exclusions.txt	LTP202	ltpFR	17	15	1	TEA	1439	n/a	0	1	0.412841796875	0.57763671875	upper	../fonts/amplitud.ttf
2374527	WORD	wordpools/wasnorm_wordpool_less_exclusions.txt	LTP202	ltpFR	17	15	1	BOTTLE	153	n/a	0	1	0.412841796875	0.57763671875	upper	../fonts/amplitud.ttf
2378637	WORD	wordpools/wasnorm_wordpool_less_exclusions.txt	LTP202	ltpFR	17	15	1	ASTRONAUT	51	n/a	1	1	0.412841796875	0.57763671875	upper	../fonts/amplitud.ttf
2382483	WORD	wordpools/wasnorm_wordpool_less_exclusions.txt	LTP202	ltpFR	17	15	1	MAPLE	866	n/a	0	1	0.412841796875	0.57763671875	upper	../fonts/amplitud.ttf
2386609	WORD	wordpools/wasnorm_wordpool_less_exclusions.txt	LTP202	ltpFR	17	15	1	OZONE	996	n/a	0	1	0.412841796875	0.57763671875	upper	../fonts/amplitud.ttf
2390669	WORD	wordpools/wasnorm_wordpool_less_exclusions.txt	LTP202	ltpFR	17	15	1	KNOB	787	n/a	0	1	0.412841796875	0.57763671875	upper	../fonts/amplitud.ttf
2394781	WORD	wordpools/wasnorm_wordpool_less_exclusions.txt	LTP202	ltpFR	17	15	1	ASTEROID	50	n/a	0	1	0.412841796875	0.57763671875	upper	../fonts/amplitud.ttf
2398875	WORD	wordpools/wasnorm_wordpool_less_exclusions.txt	LTP202	ltpFR	17	15	1	JUNGLE	764	n/a	0	1	0.412841796875	0.57763671875	upper	../fonts/amplitud.ttf
2402752	WORD	wordpools/wasnorm_wordpool_less_exclusions.txt	LTP202	ltpFR	17	15	1	GORILLA	650	n/a	1	1	0.412841796875	0.57763671875	upper	../fonts/amplitud.ttf
2408593	REC_START	n/a	LTP202	ltpFR	17	15	n/a	n/a	n/a	n/a	n/a	n/a	n/a	n/a	n/a	n/a
2408987	REC_WORD	wordpools/wasnorm_wordpool_less_exclusions.txt	LTP202	ltpFR	17	15	1	MAPLE	866	n/a	0	n/a	n/a	n/a	n/a	n/a
2409600	REC_WORD	wordpools/wasnorm_wordpool_less_exclusions.txt	LTP202	ltpFR	17	15	1	OZONE	996	n/a	0	n/a	n/a	n/a	n/a	n/a
2410280	REC_WORD	wordpools/wasnorm_wordpool_less_exclusions.txt	LTP202	ltpFR	17	15	1	KNOB	787	n/a	0	n/a	n/a	n/a	n/a	n/a
2410957	REC_WORD	wordpools/wasnorm_wordpool_less_exclusions.txt	LTP202	ltpFR	17	15	1	ASTEROID	50	n/a	0	n/a	n/a	n/a	n/a	n/a
2411706	REC_WORD	wordpools/wasnorm_wordpool_less_exclusions.txt	LTP202	ltpFR	17	15	1	JUNGLE	764	n/a	0	n/a	n/a	n/a	n/a	n/a
2412793	REC_WORD	wordpools/wasnorm_wordpool_less_exclusions.txt	LTP202	ltpFR	17	15	1	GORILLA	650	n/a	1	n/a	n/a	n/a	n/a	n/a
2413462	REC_WORD	wordpools/wasnorm_wordpool_less_exclusions.txt	LTP202	ltpFR	17	15	1	ASTRONAUT	51	n/a	1	n/a	n/a	n/a	n/a	n/a
2425270	REC_WORD	wordpools/wasnorm_wordpool_less_exclusions.txt	LTP202	ltpFR	17	15	1	TEA	1439	n/a	0	n/a	n/a	n/a	n/a	n/a
2426642	REC_WORD	wordpools/wasnorm_wordpool_less_exclusions.txt	LTP202	ltpFR	17	15	1	BOTTLE	153	n/a	0	n/a	n/a	n/a	n/a	n/a
2440934	REC_WORD	wordpools/wasnorm_wordpool_less_exclusions.txt	LTP202	ltpFR	17	15	1	MAPLE	866	n/a	0	n/a	n/a	n/a	n/a	n/a
2447444	REC_WORD	wordpools/wasnorm_wordpool_less_exclusions.txt	LTP202	ltpFR	17	15	1	FROG	608	n/a	1	n/a	n/a	n/a	n/a	n/a
2487759	WORD	wordpools/wasnorm_wordpool_less_exclusions.txt	LTP202	ltpFR	17	16	0	FIREMAN	569	n/a	1	0	0.5869140625	0.422607421875	lower	../fonts/zerothre.ttf
2491669	WORD	wordpools/wasnorm_wordpool_less_exclusions.txt	LTP202	ltpFR	17	16	0	WICK	1607	n/a	0	0	0.5869140625	0.422607421875	lower	../fonts/zerothre.ttf
2495763	WORD	wordpools/wasnorm_wordpool_less_exclusions.txt	LTP202	ltpFR	17	16	1	FOX	598	n/a	1	1	0.412841796875	0.57763671875	upper	../fonts/amplitud.ttf
2499991	WORD	wordpools/wasnorm_wordpool_less_exclusions.txt	LTP202	ltpFR	17	16	1	SUSPECT	1415	n/a	1	1	0.412841796875	0.57763671875	upper	../fonts/amplitud.ttf
2504001	WORD	wordpools/wasnorm_wordpool_less_exclusions.txt	LTP202	ltpFR	17	16	1	BUTTERFLY	206	n/a	1	1	0.412841796875	0.57763671875	upper	../fonts/amplitud.ttf
2508195	WORD	wordpools/wasnorm_wordpool_less_exclusions.txt	LTP202	ltpFR	17	16	0	KNEE	784	n/a	0	0	0.5869140625	0.422607421875	lower	../fonts/zerothre.ttf
2512322	WORD	wordpools/wasnorm_wordpool_less_exclusions.txt	LTP202	ltpFR	17	16	0	SAUSAGE	1238	n/a	0	0	0.5869140625	0.422607421875	lower	../fonts/zerothre.ttf
2516300	WORD	wordpools/wasnorm_wordpool_less_exclusions.txt	LTP202	ltpFR	17	16	0	CATTLE	261	n/a	1	0	0.5869140625	0.422607421875	lower	../fonts/zerothre.ttf
2520127	WORD	wordpools/wasnorm_wordpool_less_exclusions.txt	LTP202	ltpFR	17	16	1	FUGITIVE	612	n/a	1	1	0.412841796875	0.57763671875	upper	../fonts/amplitud.ttf
2524154	WORD	wordpools/wasnorm_wordpool_less_exclusions.txt	LTP202	ltpFR	17	16	1	ANTEATER	26	n/a	1	1	0.412841796875	0.57763671875	upper	../fonts/amplitud.ttf
2528348	WORD	wordpools/wasnorm_wordpool_less_exclusions.txt	LTP202	ltpFR	17	16	1	WRENCH	1625	n/a	0	1	0.412841796875	0.57763671875	upper	../fonts/amplitud.ttf
2532524	WORD	wordpools/wasnorm_wordpool_less_exclusions.txt	LTP202	ltpFR	17	16	1	HAND	683	n/a	0	1	0.412841796875	0.57763671875	upper	../fonts/amplitud.ttf
2536685	WORD	wordpools/wasnorm_wordpool_less_exclusions.txt	LTP202	ltpFR	17	16	1	NIECE	952	n/a	1	1	0.412841796875	0.57763671875	upper	../fonts/amplitud.ttf
2540896	WORD	wordpools/wasnorm_wordpool_less_exclusions.txt	LTP202	ltpFR	17	16	0	CHAIRPERSON	275	n/a	1	0	0.5869140625	0.422607421875	lower	../fonts/zerothre.ttf
2544923	WORD	wordpools/wasnorm_wordpool_less_exclusions.txt	LTP202	ltpFR	17	16	0	SUPPER	1411	n/a	0	0	0.5869140625	0.422607421875	lower	../fonts/zerothre.ttf
2548818	WORD	wordpools/wasnorm_wordpool_less_exclusions.txt	LTP202	ltpFR	17	16	0	SUPERMARKET	1409	n/a	0	0	0.5869140625	0.422607421875	lower	../fonts/zerothre.ttf
2554859	REC_START	n/a	LTP202	ltpFR	17	16	n/a	n/a	n/a	n/a	n/a	n/a	n/a	n/a	n/a	n/a
2555108	REC_WORD	wordpools/wasnorm_wordpool_less_exclusions.txt	LTP202	ltpFR	17	16	0	CHAIRPERSON	275	n/a	1	n/a	n/a	n/a	n/a	n/a
2555925	REC_WORD	wordpools/wasnorm_wordpool_less_exclusions.txt	LTP202	ltpFR	17	16	0	SUPPER	1411	n/a	0	n/a	n/a	n/a	n/a	n/a
2556380	REC_WORD	wordpools/wasnorm_wordpool_less_exclusions.txt	LTP202	ltpFR	17	16	0	SUPERMARKET	1409	n/a	0	n/a	n/a	n/a	n/a	n/a
2557343	REC_WORD	wordpools/wasnorm_wordpool_less_exclusions.txt	LTP202	ltpFR	17	16	1	WRENCH	1625	n/a	0	n/a	n/a	n/a	n/a	n/a
2557882	REC_WORD	wordpools/wasnorm_wordpool_less_exclusions.txt	LTP202	ltpFR	17	16	1	HAND	683	n/a	0	n/a	n/a	n/a	n/a	n/a
2558496	REC_WORD	wordpools/wasnorm_wordpool_less_exclusions.txt	LTP202	ltpFR	17	16	1	NIECE	952	n/a	1	n/a	n/a	n/a	n/a	n/a
2559827	REC_WORD	wordpools/wasnorm_wordpool_less_exclusions.txt	LTP202	ltpFR	17	16	0	KNEE	784	n/a	0	n/a	n/a	n/a	n/a	n/a
2561095	REC_WORD	wordpools/wasnorm_wordpool_less_exclusions.txt	LTP202	ltpFR	17	16	0	WICK	1607	n/a	0	n/a	n/a	n/a	n/a	n/a
2561663	REC_WORD	wordpools/wasnorm_wordpool_less_exclusions.txt	LTP202	ltpFR	17	16	n/a	FIREFIGHTER	-1	n/a	n/a	n/a	n/a	n/a	n/a	n/a
2586946	REC_WORD	wordpools/wasnorm_wordpool_less_exclusions.txt	LTP202	ltpFR	17	16	n/a	WITNESS	1618	n/a	n/a	n/a	n/a	n/a	n/a	n/a
2643144	REC_START	n/a	LTP202	ltpFR	17	n/a	n/a	n/a	n/a	n/a	n/a	n/a	n/a	n/a	n/a	n/a
2643747	FFR_REC_WORD	wordpools/wasnorm_wordpool_less_exclusions.txt	LTP202	ltpFR	17	n/a	n/a	FIREFIGHTER	-1	n/a	n/a	n/a	n/a	n/a	n/a	n/a
2645094	FFR_REC_WORD	wordpools/wasnorm_wordpool_less_exclusions.txt	LTP202	ltpFR	17	n/a	0	WICK	1607	n/a	0	n/a	n/a	n/a	n/a	n/a
2646262	FFR_REC_WORD_VV	wordpools/wasnorm_wordpool_less_exclusions.txt	LTP202	ltpFR	17	n/a	n/a	<>	-1	n/a	n/a	n/a	n/a	n/a	n/a	n/a
2648357	FFR_REC_WORD	wordpools/wasnorm_wordpool_less_exclusions.txt	LTP202	ltpFR	17	n/a	1	ROOST	1208	n/a	0	n/a	n/a	n/a	n/a	n/a
2649230	FFR_REC_WORD	wordpools/wasnorm_wordpool_less_exclusions.txt	LTP202	ltpFR	17	n/a	1	NEST	945	n/a	0	n/a	n/a	n/a	n/a	n/a
2651190	FFR_REC_WORD	wordpools/wasnorm_wordpool_less_exclusions.txt	LTP202	ltpFR	17	n/a	0	CHIMPANZEE	302	n/a	1	n/a	n/a	n/a	n/a	n/a
2652278	FFR_REC_WORD	wordpools/wasnorm_wordpool_less_exclusions.txt	LTP202	ltpFR	17	n/a	1	PRIMATE	1123	n/a	1	n/a	n/a	n/a	n/a	n/a
2653520	FFR_REC_WORD	wordpools/wasnorm_wordpool_less_exclusions.txt	LTP202	ltpFR	17	n/a	-1	RABBIT	1152	n/a	-1	n/a	n/a	n/a	n/a	n/a
2655087	FFR_REC_WORD	wordpools/wasnorm_wordpool_less_exclusions.txt	LTP202	ltpFR	17	n/a	-1	CHAPEL	280	n/a	-1	n/a	n/a	n/a	n/a	n/a
2656154	FFR_REC_WORD	wordpools/wasnorm_wordpool_less_exclusions.txt	LTP202	ltpFR	17	n/a	-1	PANTHER	1009	n/a	-1	n/a	n/a	n/a	n/a	n/a
2657082	FFR_REC_WORD	wordpools/wasnorm_wordpool_less_exclusions.txt	LTP202	ltpFR	17	n/a	-1	TIGER	1467	n/a	-1	n/a	n/a	n/a	n/a	n/a
2658085	FFR_REC_WORD	wordpools/wasnorm_wordpool_less_exclusions.txt	LTP202	ltpFR	17	n/a	-1	GRASS	655	n/a	-1	n/a	n/a	n/a	n/a	n/a
2659936	FFR_REC_WORD	wordpools/wasnorm_wordpool_less_exclusions.txt	LTP202	ltpFR	17	n/a	-1	TEMPLE	1448	n/a	-1	n/a	n/a	n/a	n/a	n/a
2662245	FFR_REC_WORD	wordpools/wasnorm_wordpool_less_exclusions.txt	LTP202	ltpFR	17	n/a	-1	IDOL	733	n/a	-1	n/a	n/a	n/a	n/a	n/a
2666336	FFR_REC_WORD	wordpools/wasnorm_wordpool_less_exclusions.txt	LTP202	ltpFR	17	n/a	1	ANTEATER	26	n/a	1	n/a	n/a	n/a	n/a	n/a
2669928	FFR_REC_WORD	wordpools/wasnorm_wordpool_less_exclusions.txt	LTP202	ltpFR	17	n/a	0	WATERFALL	1595	n/a	1	n/a	n/a	n/a	n/a	n/a
2671459	FFR_REC_WORD	wordpools/wasnorm_wordpool_less_exclusions.txt	LTP202	ltpFR	17	n/a	1	FOUNTAIN	597	n/a	1	n/a	n/a	n/a	n/a	n/a
2672287	FFR_REC_WORD	wordpools/wasnorm_wordpool_less_exclusions.txt	LTP202	ltpFR	17	n/a	1	STREAM	1392	n/a	1	n/a	n/a	n/a	n/a	n/a
2673275	FFR_REC_WORD	wordpools/wasnorm_wordpool_less_exclusions.txt	LTP202	ltpFR	17	n/a	1	CANOE	233	n/a	0	n/a	n/a	n/a	n/a	n/a
2674463	FFR_REC_WORD	wordpools/wasnorm_wordpool_less_exclusions.txt	LTP202	ltpFR	17	n/a	0	OAR	966	n/a	1	n/a	n/a	n/a	n/a	n/a
2678667	FFR_REC_WORD	wordpools/wasnorm_wordpool_less_exclusions.txt	LTP202	ltpFR	17	n/a	0	PELICAN	1039	n/a	1	n/a	n/a	n/a	n/a	n/a
2679376	FFR_REC_WORD	wordpools/wasnorm_wordpool_less_exclusions.txt	LTP202	ltpFR	17	n/a	0	CAGE	218	n/a	1	n/a	n/a	n/a	n/a	n/a
2681776	FFR_REC_WORD	wordpools/wasnorm_wordpool_less_exclusions.txt	LTP202	ltpFR	17	n/a	1	PECAN	1036	n/a	0	n/a	n/a	n/a	n/a	n/a
2682489	FFR_REC_WORD	wordpools/wasnorm_wordpool_less_exclusions.txt	LTP202	ltpFR	17	n/a	0	HIKER	708	n/a	1	n/a	n/a	n/a	n/a	n/a
2684515	FFR_REC_WORD	wordpools/wasnorm_wordpool_less_exclusions.txt	LTP202	ltpFR	17	n/a	-1	CAULIFLOWER	262	n/a	-1	n/a	n/a	n/a	n/a	n/a
2690481	FFR_REC_WORD	wordpools/wasnorm_wordpool_less_exclusions.txt	LTP202	ltpFR	17	n/a	0	ACTRESS	6	n/a	1	n/a	n/a	n/a	n/a	n/a
2692412	FFR_REC_WORD	wordpools/wasnorm_wordpool_less_exclusions.txt	LTP202	ltpFR	17	n/a	0	GODDESS	646	n/a	1	n/a	n/a	n/a	n/a	n/a
2693255	FFR_REC_WORD	wordpools/wasnorm_wordpool_less_exclusions.txt	LTP202	ltpFR	17	n/a	n/a	WAITRESS	1581	n/a	n/a	n/a	n/a	n/a	n/a	n/a
2694238	FFR_REC_WORD	wordpools/wasnorm_wordpool_less_exclusions.txt	LTP202	ltpFR	17	n/a	0	WAITER	1580	n/a	0	n/a	n/a	n/a	n/a	n/a
2697545	FFR_REC_WORD	wordpools/wasnorm_wordpool_less_exclusions.txt	LTP202	ltpFR	17	n/a	0	CITRUS	313	n/a	1	n/a	n/a	n/a	n/a	n/a
2700518	FFR_REC_WORD	wordpools/wasnorm_wordpool_less_exclusions.txt	LTP202	ltpFR	17	n/a	1	KNUCKLE	789	n/a	0	n/a	n/a	n/a	n/a	n/a
2701546	FFR_REC_WORD	wordpools/wasnorm_wordpool_less_exclusions.txt	LTP202	ltpFR	17	n/a	n/a	FLUSH	-1	n/a	n/a	n/a	n/a	n/a	n/a	n/a
2702384	FFR_REC_WORD	wordpools/wasnorm_wordpool_less_exclusions.txt	LTP202	ltpFR	17	n/a	0	KNEE	784	n/a	0	n/a	n/a	n/a	n/a	n/a
2703906	FFR_REC_WORD	wordpools/wasnorm_wordpool_less_exclusions.txt	LTP202	ltpFR	17	n/a	0	THUMB	1462	n/a	0	n/a	n/a	n/a	n/a	n/a
2709268	FFR_REC_WORD	wordpools/wasnorm_wordpool_less_exclusions.txt	LTP202	ltpFR	17	n/a	0	WATERFALL	1595	n/a	1	n/a	n/a	n/a	n/a	n/a
2713564	FFR_REC_WORD	wordpools/wasnorm_wordpool_less_exclusions.txt	LTP202	ltpFR	17	n/a	0	PARENT	1013	n/a	1	n/a	n/a	n/a	n/a	n/a
2717126	FFR_REC_WORD	wordpools/wasnorm_wordpool_less_exclusions.txt	LTP202	ltpFR	17	n/a	1	MEAT	883	n/a	0	n/a	n/a	n/a	n/a	n/a
2717889	FFR_REC_WORD	wordpools/wasnorm_wordpool_less_exclusions.txt	LTP202	ltpFR	17	n/a	1	PORK	1108	n/a	0	n/a	n/a	n/a	n/a	n/a
2719750	FFR_REC_WORD	wordpools/wasnorm_wordpool_less_exclusions.txt	LTP202	ltpFR	17	n/a	-1	LOBSTER	837	n/a	-1	n/a	n/a	n/a	n/a	n/a
2722468	FFR_REC_WORD	wordpools/wasnorm_wordpool_less_exclusions.txt	LTP202	ltpFR	17	n/a	1	ANTELOPE	27	n/a	1	n/a	n/a	n/a	n/a	n/a
2724399	FFR_REC_WORD	wordpools/wasnorm_wordpool_less_exclusions.txt	LTP202	ltpFR	17	n/a	-1	PAWN	1030	n/a	-1	n/a	n/a	n/a	n/a	n/a
2728969	FFR_REC_WORD	wordpools/wasnorm_wordpool_less_exclusions.txt	LTP202	ltpFR	17	n/a	0	UNDERWEAR	1537	n/a	0	n/a	n/a	n/a	n/a	n/a
2742019	FFR_REC_WORD	wordpools/wasnorm_wordpool_less_exclusions.txt	LTP202	ltpFR	17	n/a	-1	MILITARY	894	n/a	-1	n/a	n/a	n/a	n/a	n/a
2746973	FFR_REC_WORD	wordpools/wasnorm_wordpool_less_exclusions.txt	LTP202	ltpFR	17	n/a	-1	DOCK	477	n/a	-1	n/a	n/a	n/a	n/a	n/a
2747856	FFR_REC_WORD	wordpools/wasnorm_wordpool_less_exclusions.txt	LTP202	ltpFR	17	n/a	-1	DECK	443	n/a	-1	n/a	n/a	n/a	n/a	n/a
2749856	FFR_REC_WORD	wordpools/wasnorm_wordpool_less_exclusions.txt	LTP202	ltpFR	17	n/a	-1	KEG	770	n/a	-1	n/a	n/a	n/a	n/a	n/a
2750455	FFR_REC_WORD	wordpools/wasnorm_wordpool_less_exclusions.txt	LTP202	ltpFR	17	n/a	-1	TREAD	1499	n/a	-1	n/a	n/a	n/a	n/a	n/a
2752361	FFR_REC_WORD	wordpools/wasnorm_wordpool_less_exclusions.txt	LTP202	ltpFR	17	n/a	-1	RUM	1217	n/a	-1	n/a	n/a	n/a	n/a	n/a
2755454	FFR_REC_WORD_VV	wordpools/wasnorm_wordpool_less_exclusions.txt	LTP202	ltpFR	17	n/a	n/a	<>	-1	n/a	n/a	n/a	n/a	n/a	n/a	n/a
2760223	FFR_REC_WORD	wordpools/wasnorm_wordpool_less_exclusions.txt	LTP202	ltpFR	17	n/a	0	PIRATE	1074	n/a	1	n/a	n/a	n/a	n/a	n/a
2761071	FFR_REC_WORD	wordpools/wasnorm_wordpool_less_exclusions.txt	LTP202	ltpFR	17	n/a	0	TUTU	1524	n/a	0	n/a	n/a	n/a	n/a	n/a
2764119	FFR_REC_WORD	wordpools/wasnorm_wordpool_less_exclusions.txt	LTP202	ltpFR	17	n/a	-1	SHIP	1286	n/a	-1	n/a	n/a	n/a	n/a	n/a
2772390	FFR_REC_WORD	wordpools/wasnorm_wordpool_less_exclusions.txt	LTP202	ltpFR	17	n/a	0	ENEMY	534	n/a	1	n/a	n/a	n/a	n/a	n/a
2773243	FFR_REC_WORD	wordpools/wasnorm_wordpool_less_exclusions.txt	LTP202	ltpFR	17	n/a	1	GUEST	669	n/a	1	n/a	n/a	n/a	n/a	n/a
2774331	FFR_REC_WORD	wordpools/wasnorm_wordpool_less_exclusions.txt	LTP202	ltpFR	17	n/a	0	HOUSE	725	n/a	1	n/a	n/a	n/a	n/a	n/a
2785096	FFR_REC_WORD	wordpools/wasnorm_wordpool_less_exclusions.txt	LTP202	ltpFR	17	n/a	-1	WHIP	1604	n/a	-1	n/a	n/a	n/a	n/a	n/a
2791941	FFR_REC_WORD	wordpools/wasnorm_wordpool_less_exclusions.txt	LTP202	ltpFR	17	n/a	-1	MARINE	869	n/a	-1	n/a	n/a	n/a	n/a	n/a
2805889	FFR_REC_WORD	wordpools/wasnorm_wordpool_less_exclusions.txt	LTP202	ltpFR	17	n/a	0	NUN	962	n/a	1	n/a	n/a	n/a	n/a	n/a
2807056	FFR_REC_WORD	wordpools/wasnorm_wordpool_less_exclusions.txt	LTP202	ltpFR	17	n/a	0	COOK	372	n/a	1	n/a	n/a	n/a	n/a	n/a
2807720	FFR_REC_WORD	wordpools/wasnorm_wordpool_less_exclusions.txt	LTP202	ltpFR	17	n/a	0	APRON	35	n/a	1	n/a	n/a	n/a	n/a	n/a
2810683	FFR_REC_WORD	wordpools/wasnorm_wordpool_less_exclusions.txt	LTP202	ltpFR	17	n/a	-1	COOKIE	374	n/a	-1	n/a	n/a	n/a	n/a	n/a
2811960	FFR_REC_WORD	wordpools/wasnorm_wordpool_less_exclusions.txt	LTP202	ltpFR	17	n/a	-1	COOKBOOK	373	n/a	-1	n/a	n/a	n/a	n/a	n/a
2825719	FFR_REC_WORD	wordpools/wasnorm_wordpool_less_exclusions.txt	LTP202	ltpFR	17	n/a	-1	SNEAKER	1334	n/a	-1	n/a	n/a	n/a	n/a	n/a
2829800	FFR_REC_WORD	wordpools/wasnorm_wordpool_less_exclusions.txt	LTP202	ltpFR	17	n/a	-1	CRAYON	401	n/a	-1	n/a	n/a	n/a	n/a	n/a
2834703	FFR_REC_WORD	wordpools/wasnorm_wordpool_less_exclusions.txt	LTP202	ltpFR	17	n/a	1	REFRIGERATOR	1179	n/a	0	n/a	n/a	n/a	n/a	n/a
2836514	FFR_REC_WORD	wordpools/wasnorm_wordpool_less_exclusions.txt	LTP202	ltpFR	17	n/a	0	CHAIRPERSON	275	n/a	1	n/a	n/a	n/a	n/a	n/a
2845947	FFR_REC_WORD	wordpools/wasnorm_wordpool_less_exclusions.txt	LTP202	ltpFR	17	n/a	1	FOREST	593	n/a	0	n/a	n/a	n/a	n/a	n/a
2846701	FFR_REC_WORD	wordpools/wasnorm_wordpool_less_exclusions.txt	LTP202	ltpFR	17	n/a	1	SNAKE	1333	n/a	1	n/a	n/a	n/a	n/a	n/a
2847729	FFR_REC_WORD	wordpools/wasnorm_wordpool_less_exclusions.txt	LTP202	ltpFR	17	n/a	1	JUNGLE	764	n/a	0	n/a	n/a	n/a	n/a	n/a
2852947	FFR_REC_WORD	wordpools/wasnorm_wordpool_less_exclusions.txt	LTP202	ltpFR	17	n/a	n/a	CRICKET	408	n/a	n/a	n/a	n/a	n/a	n/a	n/a
2854723	FFR_REC_WORD	wordpools/wasnorm_wordpool_less_exclusions.txt	LTP202	ltpFR	17	n/a	0	GRASSHOPPER	656	n/a	0	n/a	n/a	n/a	n/a	n/a
2855820	FFR_REC_WORD	wordpools/wasnorm_wordpool_less_exclusions.txt	LTP202	ltpFR	17	n/a	0	TERMITE	1451	n/a	0	n/a	n/a	n/a	n/a	n/a
2859073	FFR_REC_WORD	wordpools/wasnorm_wordpool_less_exclusions.txt	LTP202	ltpFR	17	n/a	-1	PANTHER	1009	n/a	-1	n/a	n/a	n/a	n/a	n/a
2867843	FFR_REC_WORD	wordpools/wasnorm_wordpool_less_exclusions.txt	LTP202	ltpFR	17	n/a	1	ZOO	1637	n/a	0	n/a	n/a	n/a	n/a	n/a
2872054	FFR_REC_WORD	wordpools/wasnorm_wordpool_less_exclusions.txt	LTP202	ltpFR	17	n/a	1	GORILLA	650	n/a	1	n/a	n/a	n/a	n/a	n/a
2889010	FFR_REC_WORD	wordpools/wasnorm_wordpool_less_exclusions.txt	LTP202	ltpFR	17	n/a	0	MOP	916	n/a	0	n/a	n/a	n/a	n/a	n/a
2889803	FFR_REC_WORD	wordpools/wasnorm_wordpool_less_exclusions.txt	LTP202	ltpFR	17	n/a	0	DUNE	506	n/a	1	n/a	n/a	n/a	n/a	n/a
2894981	FFR_REC_WORD	wordpools/wasnorm_wordpool_less_exclusions.txt	LTP202	ltpFR	17	n/a	0	POLICE	1098	n/a	1	n/a	n/a	n/a	n/a	n/a
2895655	FFR_REC_WORD	wordpools/wasnorm_wordpool_less_exclusions.txt	LTP202	ltpFR	17	n/a	0	GUARD	667	n/a	1	n/a	n/a	n/a	n/a	n/a
2897650	FFR_REC_WORD	wordpools/wasnorm_wordpool_less_exclusions.txt	LTP202	ltpFR	17	n/a	0	RAZOR	1171	n/a	0	n/a	n/a	n/a	n/a	n/a
2898249	FFR_REC_WORD	wordpools/wasnorm_wordpool_less_exclusions.txt	LTP202	ltpFR	17	n/a	0	BLADE	134	n/a	0	n/a	n/a	n/a	n/a	n/a
2906360	FFR_REC_WORD	wordpools/wasnorm_wordpool_less_exclusions.txt	LTP202	ltpFR	17	n/a	1	CORN	381	n/a	0	n/a	n/a	n/a	n/a	n/a
2906914	FFR_REC_WORD	wordpools/wasnorm_wordpool_less_exclusions.txt	LTP202	ltpFR	17	n/a	1	COB	334	n/a	0	n/a	n/a	n/a	n/a	n/a
2911978	FFR_REC_WORD	wordpools/wasnorm_wordpool_less_exclusions.txt	LTP202	ltpFR	17	n/a	-1	DIAMOND	458	n/a	-1	n/a	n/a	n/a	n/a	n/a
2912523	FFR_REC_WORD	wordpools/wasnorm_wordpool_less_exclusions.txt	LTP202	ltpFR	17	n/a	-1	RING	1193	n/a	-1	n/a	n/a	n/a	n/a	n/a
2921232	FFR_REC_WORD	wordpools/wasnorm_wordpool_less_exclusions.txt	LTP202	ltpFR	17	n/a	1	FREEWAY	603	n/a	0	n/a	n/a	n/a	n/a	n/a
2922818	FFR_REC_WORD	wordpools/wasnorm_wordpool_less_exclusions.txt	LTP202	ltpFR	17	n/a	1	SHELTER	1282	n/a	0	n/a	n/a	n/a	n/a	n/a
2924829	FFR_REC_WORD	wordpools/wasnorm_wordpool_less_exclusions.txt	LTP202	ltpFR	17	n/a	1	WAREHOUSE	1588	n/a	0	n/a	n/a	n/a	n/a	n/a
2925742	FFR_REC_WORD	wordpools/wasnorm_wordpool_less_exclusions.txt	LTP202	ltpFR	17	n/a	1	DOLLAR	482	n/a	0	n/a	n/a	n/a	n/a	n/a
2926222	FFR_REC_WORD	wordpools/wasnorm_wordpool_less_exclusions.txt	LTP202	ltpFR	17	n/a	1	CINNAMON	310	n/a	0	n/a	n/a	n/a	n/a	n/a
2928041	FFR_REC_WORD	wordpools/wasnorm_wordpool_less_exclusions.txt	LTP202	ltpFR	17	n/a	1	LUNCH	849	n/a	0	n/a	n/a	n/a	n/a	n/a
2935075	FFR_REC_WORD	wordpools/wasnorm_wordpool_less_exclusions.txt	LTP202	ltpFR	17	n/a	1	LEG	809	n/a	0	n/a	n/a	n/a	n/a	n/a
2949703	REC_START	n/a	LTP202	ltpFR	17	1	n/a	n/a	n/a	n/a	n/a	n/a	n/a	n/a	n/a	n/a
2949735	RECOG_TARGET	n/a	LTP202	ltpFR	17	1	1	CLOTHES	327	4	0	n/a	n/a	n/a	n/a	n/a
2951008	RECOG_RESP	n/a	LTP202	ltpFR	17	1	1	CLOTHES	327	n/a	0	n/a	n/a	n/a	n/a	n/a
2951708	RECOG_CONF	n/a	LTP202	ltpFR	17	1	1	CLOTHES	327	4	0	n/a	n/a	n/a	n/a	n/a
2953645	RECOG_TARGET	n/a	LTP202	ltpFR	17	1	0	RAZOR	1171	5	0	n/a	n/a	n/a	n/a	n/a
2954331	RECOG_RESP	n/a	LTP202	ltpFR	17	1	0	RAZOR	1171	n/a	0	n/a	n/a	n/a	n/a	n/a
2954926	RECOG_CONF	n/a	LTP202	ltpFR	17	1	0	RAZOR	1171	5	0	n/a	n/a	n/a	n/a	n/a
2956508	RECOG_LURE	n/a	LTP202	ltpFR	17	1	n/a	LOCK	838	3	n/a	n/a	n/a	n/a	n/a	n/a
2957276	RECOG_RESP	n/a	LTP202	ltpFR	17	1	n/a	LOCK	838	n/a	n/a	n/a	n/a	n/a	n/a	n/a
2957787	RECOG_CONF	n/a	LTP202	ltpFR	17	1	n/a	LOCK	838	3	n/a	n/a	n/a	n/a	n/a	n/a
2959553	RECOG_TARGET	n/a	LTP202	ltpFR	17	1	0	GRASSHOPPER	656	4	0	n/a	n/a	n/a	n/a	n/a
2960190	RECOG_RESP	n/a	LTP202	ltpFR	17	1	0	GRASSHOPPER	656	n/a	0	n/a	n/a	n/a	n/a	n/a
2960867	RECOG_CONF	n/a	LTP202	ltpFR	17	1	0	GRASSHOPPER	656	4	0	n/a	n/a	n/a	n/a	n/a
2962632	RECOG_TARGET	n/a	LTP202	ltpFR	17	1	0	WASHCLOTH	1591	5	0	n/a	n/a	n/a	n/a	n/a
2963531	RECOG_RESP	n/a	LTP202	ltpFR	17	1	0	WASHCLOTH	1591	n/a	0	n/a	n/a	n/a	n/a	n/a
2964125	RECOG_CONF	n/a	LTP202	ltpFR	17	1	0	WASHCLOTH	1591	5	0	n/a	n/a	n/a	n/a	n/a
2965811	RECOG_TARGET	n/a	LTP202	ltpFR	17	1	1	LAUNDRY	803	5	0	n/a	n/a	n/a	n/a	n/a
2967298	RECOG_RESP	n/a	LTP202	ltpFR	17	1	1	LAUNDRY	803	n/a	0	n/a	n/a	n/a	n/a	n/a
2967817	RECOG_CONF	n/a	LTP202	ltpFR	17	1	1	LAUNDRY	803	5	0	n/a	n/a	n/a	n/a	n/a
2969522	RECOG_LURE	n/a	LTP202	ltpFR	17	1	n/a	TRUMPET	1513	5	n/a	n/a	n/a	n/a	n/a	n/a
2970378	RECOG_RESP	n/a	LTP202	ltpFR	17	1	n/a	TRUMPET	1513	n/a	n/a	n/a	n/a	n/a	n/a	n/a
2970890	RECOG_CONF	n/a	LTP202	ltpFR	17	1	n/a	TRUMPET	1513	5	n/a	n/a	n/a	n/a	n/a	n/a
2972567	RECOG_TARGET	n/a	LTP202	ltpFR	17	1	-1	ANGEL	22	1	-1	n/a	n/a	n/a	n/a	n/a
2974382	RECOG_RESP	n/a	LTP202	ltpFR	17	1	-1	ANGEL	22	n/a	-1	n/a	n/a	n/a	n/a	n/a
2976105	RECOG_CONF	n/a	LTP202	ltpFR	17	1	-1	ANGEL	22	1	-1	n/a	n/a	n/a	n/a	n/a
2977977	RECOG_LURE	n/a	LTP202	ltpFR	17	1	n/a	DETERGENT	455	3	n/a	n/a	n/a	n/a	n/a	n/a
2979367	RECOG_RESP	n/a	LTP202	ltpFR	17	1	n/a	DETERGENT	455	n/a	n/a	n/a	n/a	n/a	n/a	n/a
2979987	RECOG_CONF	n/a	LTP202	ltpFR	17	1	n/a	DETERGENT	455	3	n/a	n/a	n/a	n/a	n/a	n/a
2981771	RECOG_TARGET	n/a	LTP202	ltpFR	17	1	1	PEARL	1034	5	0	n/a	n/a	n/a	n/a	n/a
2982419	RECOG_RESP	n/a	LTP202	ltpFR	17	1	1	PEARL	1034	n/a	0	n/a	n/a	n/a	n/a	n/a
2982942	RECOG_CONF	n/a	LTP202	ltpFR	17	1	1	PEARL	1034	5	0	n/a	n/a	n/a	n/a	n/a
2984649	RECOG_TARGET	n/a	LTP202	ltpFR	17	1	0	NAVIGATOR	938	5	1	n/a	n/a	n/a	n/a	n/a
2985291	RECOG_RESP	n/a	LTP202	ltpFR	17	1	0	NAVIGATOR	938	n/a	1	n/a	n/a	n/a	n/a	n/a
2985766	RECOG_CONF	n/a	LTP202	ltpFR	17	1	0	NAVIGATOR	938	5	1	n/a	n/a	n/a	n/a	n/a
2987313	RECOG_LURE	n/a	LTP202	ltpFR	17	1	n/a	CASKET	255	5	n/a	n/a	n/a	n/a	n/a	n/a
2988051	RECOG_RESP	n/a	LTP202	ltpFR	17	1	n/a	CASKET	255	n/a	n/a	n/a	n/a	n/a	n/a	n/a
2988399	RECOG_CONF	n/a	LTP202	ltpFR	17	1	n/a	CASKET	255	5	n/a	n/a	n/a	n/a	n/a	n/a
2990192	RECOG_TARGET	n/a	LTP202	ltpFR	17	1	-1	OWL	992	5	-1	n/a	n/a	n/a	n/a	n/a
2990781	RECOG_RESP	n/a	LTP202	ltpFR	17	1	-1	OWL	992	n/a	-1	n/a	n/a	n/a	n/a	n/a
2991253	RECOG_CONF	n/a	LTP202	ltpFR	17	1	-1	OWL	992	5	-1	n/a	n/a	n/a	n/a	n/a
2992788	RECOG_TARGET	n/a	LTP202	ltpFR	17	1	1	KIDNEY	776	5	0	n/a	n/a	n/a	n/a	n/a
2993495	RECOG_RESP	n/a	LTP202	ltpFR	17	1	1	KIDNEY	776	n/a	0	n/a	n/a	n/a	n/a	n/a
2993987	RECOG_CONF	n/a	LTP202	ltpFR	17	1	1	KIDNEY	776	5	0	n/a	n/a	n/a	n/a	n/a
2995583	RECOG_TARGET	n/a	LTP202	ltpFR	17	1	0	VINEGAR	1569	5	0	n/a	n/a	n/a	n/a	n/a
2996308	RECOG_RESP	n/a	LTP202	ltpFR	17	1	0	VINEGAR	1569	n/a	0	n/a	n/a	n/a	n/a	n/a
2996741	RECOG_CONF	n/a	LTP202	ltpFR	17	1	0	VINEGAR	1569	5	0	n/a	n/a	n/a	n/a	n/a
2998396	RECOG_LURE	n/a	LTP202	ltpFR	17	1	n/a	ROAD	1196	4	n/a	n/a	n/a	n/a	n/a	n/a
2999176	RECOG_RESP	n/a	LTP202	ltpFR	17	1	n/a	ROAD	1196	n/a	n/a	n/a	n/a	n/a	n/a	n/a
2999524	RECOG_CONF	n/a	LTP202	ltpFR	17	1	n/a	ROAD	1196	4	n/a	n/a	n/a	n/a	n/a	n/a
3001292	RECOG_TARGET	n/a	LTP202	ltpFR	17	1	-1	MANAGER	863	4	-1	n/a	n/a	n/a	n/a	n/a
3002023	RECOG_RESP	n/a	LTP202	ltpFR	17	1	-1	MANAGER	863	n/a	-1	n/a	n/a	n/a	n/a	n/a
3002538	RECOG_CONF	n/a	LTP202	ltpFR	17	1	-1	MANAGER	863	4	-1	n/a	n/a	n/a	n/a	n/a
3004187	RECOG_TARGET	n/a	LTP202	ltpFR	17	1	0	APRON	35	5	1	n/a	n/a	n/a	n/a	n/a
3005082	RECOG_RESP	n/a	LTP202	ltpFR	17	1	0	APRON	35	n/a	1	n/a	n/a	n/a	n/a	n/a
3005581	RECOG_CONF	n/a	LTP202	ltpFR	17	1	0	APRON	35	5	1	n/a	n/a	n/a	n/a	n/a
3007299	RECOG_TARGET	n/a	LTP202	ltpFR	17	1	0	FLOWER	584	5	0	n/a	n/a	n/a	n/a	n/a
3007941	RECOG_RESP	n/a	LTP202	ltpFR	17	1	0	FLOWER	584	n/a	0	n/a	n/a	n/a	n/a	n/a
3008394	RECOG_CONF	n/a	LTP202	ltpFR	17	1	0	FLOWER	584	5	0	n/a	n/a	n/a	n/a	n/a
3009945	RECOG_TARGET	n/a	LTP202	ltpFR	17	1	1	SNAKE	1333	5	1	n/a	n/a	n/a	n/a	n/a
3010599	RECOG_RESP	n/a	LTP202	ltpFR	17	1	1	SNAKE	1333	n/a	1	n/a	n/a	n/a	n/a	n/a
3011018	RECOG_CONF	n/a	LTP202	ltpFR	17	1	1	SNAKE	1333	5	1	n/a	n/a	n/a	n/a	n/a
3022071	REC_START	n/a	LTP202	ltpFR	17	2	n/a	n/a	n/a	n/a	n/a	n/a	n/a	n/a	n/a	n/a
3022111	RECOG_TARGET	n/a	LTP202	ltpFR	17	2	1	MILK	895	4	0	n/a	n/a	n/a	n/a	n/a
3023151	RECOG_RESP	n/a	LTP202	ltpFR	17	2	1	MILK	895	n/a	0	n/a	n/a	n/a	n/a	n/a
3023692	RECOG_CONF	n/a	LTP202	ltpFR	17	2	1	MILK	895	4	0	n/a	n/a	n/a	n/a	n/a
3025472	RECOG_LURE	n/a	LTP202	ltpFR	17	2	n/a	PAGE	1001	4	n/a	n/a	n/a	n/a	n/a	n/a
3026217	RECOG_RESP	n/a	LTP202	ltpFR	17	2	n/a	PAGE	1001	n/a	n/a	n/a	n/a	n/a	n/a	n/a
3026795	RECOG_CONF	n/a	LTP202	ltpFR	17	2	n/a	PAGE	1001	4	n/a	n/a	n/a	n/a	n/a	n/a
3028418	RECOG_TARGET	n/a	LTP202	ltpFR	17	2	-1	DECK	443	5	-1	n/a	n/a	n/a	n/a	n/a
3029048	RECOG_RESP	n/a	LTP202	ltpFR	17	2	-1	DECK	443	n/a	-1	n/a	n/a	n/a	n/a	n/a
3029479	RECOG_CONF	n/a	LTP202	ltpFR	17	2	-1	DECK	443	5	-1	n/a	n/a	n/a	n/a	n/a
3031097	RECOG_TARGET	n/a	LTP202	ltpFR	17	2	0	UNDERWEAR	1537	5	0	n/a	n/a	n/a	n/a	n/a
3031635	RECOG_RESP	n/a	LTP202	ltpFR	17	2	0	UNDERWEAR	1537	n/a	0	n/a	n/a	n/a	n/a	n/a
3032133	RECOG_CONF	n/a	LTP202	ltpFR	17	2	0	UNDERWEAR	1537	5	0	n/a	n/a	n/a	n/a	n/a
3033876	RECOG_TARGET	n/a	LTP202	ltpFR	17	2	1	FOREST	593	5	0	n/a	n/a	n/a	n/a	n/a
3034457	RECOG_RESP	n/a	LTP202	ltpFR	17	2	1	FOREST	593	n/a	0	n/a	n/a	n/a	n/a	n/a
3034917	RECOG_CONF	n/a	LTP202	ltpFR	17	2	1	FOREST	593	5	0	n/a	n/a	n/a	n/a	n/a
3036521	RECOG_TARGET	n/a	LTP202	ltpFR	17	2	0	ZEBRA	1635	5	1	n/a	n/a	n/a	n/a	n/a
3037075	RECOG_RESP	n/a	LTP202	ltpFR	17	2	0	ZEBRA	1635	n/a	1	n/a	n/a	n/a	n/a	n/a
3037496	RECOG_CONF	n/a	LTP202	ltpFR	17	2	0	ZEBRA	1635	5	1	n/a	n/a	n/a	n/a	n/a
3039069	RECOG_TARGET	n/a	LTP202	ltpFR	17	2	1	NIECE	952	5	1	n/a	n/a	n/a	n/a	n/a
3039649	RECOG_RESP	n/a	LTP202	ltpFR	17	2	1	NIECE	952	n/a	1	n/a	n/a	n/a	n/a	n/a
3040095	RECOG_CONF	n/a	LTP202	ltpFR	17	2	1	NIECE	952	5	1	n/a	n/a	n/a	n/a	n/a
3041697	RECOG_TARGET	n/a	LTP202	ltpFR	17	2	0	RAM	1165	4	1	n/a	n/a	n/a	n/a	n/a
3042305	RECOG_RESP	n/a	LTP202	ltpFR	17	2	0	RAM	1165	n/a	1	n/a	n/a	n/a	n/a	n/a
3042859	RECOG_CONF	n/a	LTP202	ltpFR	17	2	0	RAM	1165	4	1	n/a	n/a	n/a	n/a	n/a
3044427	RECOG_LURE	n/a	LTP202	ltpFR	17	2	n/a	WIFE	1609	4	n/a	n/a	n/a	n/a	n/a	n/a
3045272	RECOG_RESP	n/a	LTP202	ltpFR	17	2	n/a	WIFE	1609	n/a	n/a	n/a	n/a	n/a	n/a	n/a
3045592	RECOG_CONF	n/a	LTP202	ltpFR	17	2	n/a	WIFE	1609	4	n/a	n/a	n/a	n/a	n/a	n/a
3047505	RECOG_TARGET	n/a	LTP202	ltpFR	17	2	-1	TEMPLE	1448	5	-1	n/a	n/a	n/a	n/a	n/a
3048065	RECOG_RESP	n/a	LTP202	ltpFR	17	2	-1	TEMPLE	1448	n/a	-1	n/a	n/a	n/a	n/a	n/a
3048556	RECOG_CONF	n/a	LTP202	ltpFR	17	2	-1	TEMPLE	1448	5	-1	n/a	n/a	n/a	n/a	n/a
3050135	RECOG_TARGET	n/a	LTP202	ltpFR	17	2	0	CHIMPANZEE	302	4	1	n/a	n/a	n/a	n/a	n/a
3050940	RECOG_RESP	n/a	LTP202	ltpFR	17	2	0	CHIMPANZEE	302	n/a	1	n/a	n/a	n/a	n/a	n/a
3051513	RECOG_CONF	n/a	LTP202	ltpFR	17	2	0	CHIMPANZEE	302	4	1	n/a	n/a	n/a	n/a	n/a
3053364	RECOG_TARGET	n/a	LTP202	ltpFR	17	2	-1	TRACTOR	1493	5	-1	n/a	n/a	n/a	n/a	n/a
3054027	RECOG_RESP	n/a	LTP202	ltpFR	17	2	-1	TRACTOR	1493	n/a	-1	n/a	n/a	n/a	n/a	n/a
3054482	RECOG_CONF	n/a	LTP202	ltpFR	17	2	-1	TRACTOR	1493	5	-1	n/a	n/a	n/a	n/a	n/a
3056027	RECOG_LURE	n/a	LTP202	ltpFR	17	2	n/a	STONE	1385	3	n/a	n/a	n/a	n/a	n/a	n/a
3056910	RECOG_RESP	n/a	LTP202	ltpFR	17	2	n/a	STONE	1385	n/a	n/a	n/a	n/a	n/a	n/a	n/a
3057475	RECOG_CONF	n/a	LTP202	ltpFR	17	2	n/a	STONE	1385	3	n/a	n/a	n/a	n/a	n/a	n/a
3059039	RECOG_TARGET	n/a	LTP202	ltpFR	17	2	-1	LOBSTER	837	4	-1	n/a	n/a	n/a	n/a	n/a
3059624	RECOG_RESP	n/a	LTP202	ltpFR	17	2	-1	LOBSTER	837	n/a	-1	n/a	n/a	n/a	n/a	n/a
3060209	RECOG_CONF	n/a	LTP202	ltpFR	17	2	-1	LOBSTER	837	4	-1	n/a	n/a	n/a	n/a	n/a
3061700	RECOG_TARGET	n/a	LTP202	ltpFR	17	2	1	SUSPECT	1415	1	1	n/a	n/a	n/a	n/a	n/a
3062403	RECOG_RESP	n/a	LTP202	ltpFR	17	2	1	SUSPECT	1415	n/a	1	n/a	n/a	n/a	n/a	n/a
3063164	RECOG_CONF	n/a	LTP202	ltpFR	17	2	1	SUSPECT	1415	1	1	n/a	n/a	n/a	n/a	n/a
3064830	RECOG_TARGET	n/a	LTP202	ltpFR	17	2	0	SAUSAGE	1238	5	0	n/a	n/a	n/a	n/a	n/a
3065569	RECOG_RESP	n/a	LTP202	ltpFR	17	2	0	SAUSAGE	1238	n/a	0	n/a	n/a	n/a	n/a	n/a
3066036	RECOG_CONF	n/a	LTP202	ltpFR	17	2	0	SAUSAGE	1238	5	0	n/a	n/a	n/a	n/a	n/a
3067625	RECOG_TARGET	n/a	LTP202	ltpFR	17	2	0	COWBOY	395	5	1	n/a	n/a	n/a	n/a	n/a
3068168	RECOG_RESP	n/a	LTP202	ltpFR	17	2	0	COWBOY	395	n/a	1	n/a	n/a	n/a	n/a	n/a
3068620	RECOG_CONF	n/a	LTP202	ltpFR	17	2	0	COWBOY	395	5	1	n/a	n/a	n/a	n/a	n/a
3070205	RECOG_TARGET	n/a	LTP202	ltpFR	17	2	1	WRENCH	1625	5	0	n/a	n/a	n/a	n/a	n/a
3070794	RECOG_RESP	n/a	LTP202	ltpFR	17	2	1	WRENCH	1625	n/a	0	n/a	n/a	n/a	n/a	n/a
3071274	RECOG_CONF	n/a	LTP202	ltpFR	17	2	1	WRENCH	1625	5	0	n/a	n/a	n/a	n/a	n/a
3072935	RECOG_TARGET	n/a	LTP202	ltpFR	17	2	1	MAPLE	866	5	0	n/a	n/a	n/a	n/a	n/a
3073438	RECOG_RESP	n/a	LTP202	ltpFR	17	2	1	MAPLE	866	n/a	0	n/a	n/a	n/a	n/a	n/a
3073938	RECOG_CONF	n/a	LTP202	ltpFR	17	2	1	MAPLE	866	5	0	n/a	n/a	n/a	n/a	n/a
3075580	RECOG_TARGET	n/a	LTP202	ltpFR	17	2	1	FUGITIVE	612	3	1	n/a	n/a	n/a	n/a	n/a
3076105	RECOG_RESP	n/a	LTP202	ltpFR	17	2	1	FUGITIVE	612	n/a	1	n/a	n/a	n/a	n/a	n/a
3076612	RECOG_CONF	n/a	LTP202	ltpFR	17	2	1	FUGITIVE	612	3	1	n/a	n/a	n/a	n/a	n/a
3079916	REC_START	n/a	LTP202	ltpFR	17	3	n/a	n/a	n/a	n/a	n/a	n/a	n/a	n/a	n/a	n/a
3079958	RECOG_TARGET	n/a	LTP202	ltpFR	17	3	1	FREEWAY	603	5	0	n/a	n/a	n/a	n/a	n/a
3080545	RECOG_RESP	n/a	LTP202	ltpFR	17	3	1	FREEWAY	603	n/a	0	n/a	n/a	n/a	n/a	n/a
3081048	RECOG_CONF	n/a	LTP202	ltpFR	17	3	1	FREEWAY	603	5	0	n/a	n/a	n/a	n/a	n/a
3082603	RECOG_TARGET	n/a	LTP202	ltpFR	17	3	-1	LIVER	833	5	-1	n/a	n/a	n/a	n/a	n/a
3083147	RECOG_RESP	n/a	LTP202	ltpFR	17	3	-1	LIVER	833	n/a	-1	n/a	n/a	n/a	n/a	n/a
3083682	RECOG_CONF	n/a	LTP202	ltpFR	17	3	-1	LIVER	833	5	-1	n/a	n/a	n/a	n/a	n/a
3085233	RECOG_TARGET	n/a	LTP202	ltpFR	17	3	0	MAJOR	859	5	1	n/a	n/a	n/a	n/a	n/a
3085753	RECOG_RESP	n/a	LTP202	ltpFR	17	3	0	MAJOR	859	n/a	1	n/a	n/a	n/a	n/a	n/a
3086256	RECOG_CONF	n/a	LTP202	ltpFR	17	3	0	MAJOR	859	5	1	n/a	n/a	n/a	n/a	n/a
3087813	RECOG_TARGET	n/a	LTP202	ltpFR	17	3	0	ARTICLE	42	2	1	n/a	n/a	n/a	n/a	n/a
3088384	RECOG_RESP	n/a	LTP202	ltpFR	17	3	0	ARTICLE	42	n/a	1	n/a	n/a	n/a	n/a	n/a
3088887	RECOG_CONF	n/a	LTP202	ltpFR	17	3	0	ARTICLE	42	2	1	n/a	n/a	n/a	n/a	n/a
3090624	RECOG_TARGET	n/a	LTP202	ltpFR	17	3	0	CUFF	423	5	0	n/a	n/a	n/a	n/a	n/a
3091253	RECOG_RESP	n/a	LTP202	ltpFR	17	3	0	CUFF	423	n/a	0	n/a	n/a	n/a	n/a	n/a
3091714	RECOG_CONF	n/a	LTP202	ltpFR	17	3	0	CUFF	423	5	0	n/a	n/a	n/a	n/a	n/a
3093304	RECOG_TARGET	n/a	LTP202	ltpFR	17	3	-1	EAGLE	512	5	-1	n/a	n/a	n/a	n/a	n/a
3093844	RECOG_RESP	n/a	LTP202	ltpFR	17	3	-1	EAGLE	512	n/a	-1	n/a	n/a	n/a	n/a	n/a
3094298	RECOG_CONF	n/a	LTP202	ltpFR	17	3	-1	EAGLE	512	5	-1	n/a	n/a	n/a	n/a	n/a
3095834	RECOG_LURE	n/a	LTP202	ltpFR	17	3	n/a	TUSK	1523	4	n/a	n/a	n/a	n/a	n/a	n/a
3096405	RECOG_RESP	n/a	LTP202	ltpFR	17	3	n/a	TUSK	1523	n/a	n/a	n/a	n/a	n/a	n/a	n/a
3096872	RECOG_CONF	n/a	LTP202	ltpFR	17	3	n/a	TUSK	1523	4	n/a	n/a	n/a	n/a	n/a	n/a
3098595	RECOG_TARGET	n/a	LTP202	ltpFR	17	3	0	SHRINE	1298	4	1	n/a	n/a	n/a	n/a	n/a
3099152	RECOG_RESP	n/a	LTP202	ltpFR	17	3	0	SHRINE	1298	n/a	1	n/a	n/a	n/a	n/a	n/a
3099726	RECOG_CONF	n/a	LTP202	ltpFR	17	3	0	SHRINE	1298	4	1	n/a	n/a	n/a	n/a	n/a
3101292	RECOG_TARGET	n/a	LTP202	ltpFR	17	3	-1	RAG	1160	5	-1	n/a	n/a	n/a	n/a	n/a
3101839	RECOG_RESP	n/a	LTP202	ltpFR	17	3	-1	RAG	1160	n/a	-1	n/a	n/a	n/a	n/a	n/a
3102340	RECOG_CONF	n/a	LTP202	ltpFR	17	3	-1	RAG	1160	5	-1	n/a	n/a	n/a	n/a	n/a
3103905	RECOG_TARGET	n/a	LTP202	ltpFR	17	3	-1	CANARY	227	3	-1	n/a	n/a	n/a	n/a	n/a
3104441	RECOG_RESP	n/a	LTP202	ltpFR	17	3	-1	CANARY	227	n/a	-1	n/a	n/a	n/a	n/a	n/a
3105015	RECOG_CONF	n/a	LTP202	ltpFR	17	3	-1	CANARY	227	3	-1	n/a	n/a	n/a	n/a	n/a
3106700	RECOG_TARGET	n/a	LTP202	ltpFR	17	3	-1	MARS	873	5	-1	n/a	n/a	n/a	n/a	n/a
3107216	RECOG_RESP	n/a	LTP202	ltpFR	17	3	-1	MARS	873	n/a	-1	n/a	n/a	n/a	n/a	n/a
3107708	RECOG_CONF	n/a	LTP202	ltpFR	17	3	-1	MARS	873	5	-1	n/a	n/a	n/a	n/a	n/a
3109397	RECOG_TARGET	n/a	LTP202	ltpFR	17	3	0	PAD	998	1	1	n/a	n/a	n/a	n/a	n/a
3109949	RECOG_RESP	n/a	LTP202	ltpFR	17	3	0	PAD	998	n/a	1	n/a	n/a	n/a	n/a	n/a
3110608	RECOG_CONF	n/a	LTP202	ltpFR	17	3	0	PAD	998	1	1	n/a	n/a	n/a	n/a	n/a
3112293	RECOG_TARGET	n/a	LTP202	ltpFR	17	3	0	BUSH	202	5	0	n/a	n/a	n/a	n/a	n/a
3112842	RECOG_RESP	n/a	LTP202	ltpFR	17	3	0	BUSH	202	n/a	0	n/a	n/a	n/a	n/a	n/a
3113345	RECOG_CONF	n/a	LTP202	ltpFR	17	3	0	BUSH	202	5	0	n/a	n/a	n/a	n/a	n/a
3114989	RECOG_TARGET	n/a	LTP202	ltpFR	17	3	1	COB	334	5	0	n/a	n/a	n/a	n/a	n/a
3115476	RECOG_RESP	n/a	LTP202	ltpFR	17	3	1	COB	334	n/a	0	n/a	n/a	n/a	n/a	n/a
3115949	RECOG_CONF	n/a	LTP202	ltpFR	17	3	1	COB	334	5	0	n/a	n/a	n/a	n/a	n/a
3117468	RECOG_TARGET	n/a	LTP202	ltpFR	17	3	-1	TOE	1473	5	-1	n/a	n/a	n/a	n/a	n/a
3117976	RECOG_RESP	n/a	LTP202	ltpFR	17	3	-1	TOE	1473	n/a	-1	n/a	n/a	n/a	n/a	n/a
3118453	RECOG_CONF	n/a	LTP202	ltpFR	17	3	-1	TOE	1473	5	-1	n/a	n/a	n/a	n/a	n/a
3120247	RECOG_TARGET	n/a	LTP202	ltpFR	17	3	1	FLEET	578	3	1	n/a	n/a	n/a	n/a	n/a
3120815	RECOG_RESP	n/a	LTP202	ltpFR	17	3	1	FLEET	578	n/a	1	n/a	n/a	n/a	n/a	n/a
3121503	RECOG_CONF	n/a	LTP202	ltpFR	17	3	1	FLEET	578	3	1	n/a	n/a	n/a	n/a	n/a
3123243	RECOG_TARGET	n/a	LTP202	ltpFR	17	3	0	QUEEN	1149	5	1	n/a	n/a	n/a	n/a	n/a
3123782	RECOG_RESP	n/a	LTP202	ltpFR	17	3	0	QUEEN	1149	n/a	1	n/a	n/a	n/a	n/a	n/a
3124320	RECOG_CONF	n/a	LTP202	ltpFR	17	3	0	QUEEN	1149	5	1	n/a	n/a	n/a	n/a	n/a
3126089	RECOG_TARGET	n/a	LTP202	ltpFR	17	3	0	CAGE	218	5	1	n/a	n/a	n/a	n/a	n/a
3126617	RECOG_RESP	n/a	LTP202	ltpFR	17	3	0	CAGE	218	n/a	1	n/a	n/a	n/a	n/a	n/a
3127114	RECOG_CONF	n/a	LTP202	ltpFR	17	3	0	CAGE	218	5	1	n/a	n/a	n/a	n/a	n/a
3128768	RECOG_TARGET	n/a	LTP202	ltpFR	17	3	1	LUNCH	849	5	0	n/a	n/a	n/a	n/a	n/a
3129279	RECOG_RESP	n/a	LTP202	ltpFR	17	3	1	LUNCH	849	n/a	0	n/a	n/a	n/a	n/a	n/a
3129758	RECOG_CONF	n/a	LTP202	ltpFR	17	3	1	LUNCH	849	5	0	n/a	n/a	n/a	n/a	n/a
3131248	RECOG_LURE	n/a	LTP202	ltpFR	17	3	n/a	CORD	379	2	n/a	n/a	n/a	n/a	n/a	n/a
3131926	RECOG_RESP	n/a	LTP202	ltpFR	17	3	n/a	CORD	379	n/a	n/a	n/a	n/a	n/a	n/a	n/a
3132471	RECOG_CONF	n/a	LTP202	ltpFR	17	3	n/a	CORD	379	2	n/a	n/a	n/a	n/a	n/a	n/a
3135907	REC_START	n/a	LTP202	ltpFR	17	4	n/a	n/a	n/a	n/a	n/a	n/a	n/a	n/a	n/a	n/a
3135941	RECOG_TARGET	n/a	LTP202	ltpFR	17	4	-1	VINE	1568	5	-1	n/a	n/a	n/a	n/a	n/a
3136485	RECOG_RESP	n/a	LTP202	ltpFR	17	4	-1	VINE	1568	n/a	-1	n/a	n/a	n/a	n/a	n/a
3136999	RECOG_CONF	n/a	LTP202	ltpFR	17	4	-1	VINE	1568	5	-1	n/a	n/a	n/a	n/a	n/a
3138586	RECOG_TARGET	n/a	LTP202	ltpFR	17	4	0	MOP	916	5	0	n/a	n/a	n/a	n/a	n/a
3139149	RECOG_RESP	n/a	LTP202	ltpFR	17	4	0	MOP	916	n/a	0	n/a	n/a	n/a	n/a	n/a
3139643	RECOG_CONF	n/a	LTP202	ltpFR	17	4	0	MOP	916	5	0	n/a	n/a	n/a	n/a	n/a
3141183	RECOG_TARGET	n/a	LTP202	ltpFR	17	4	1	SHED	1277	3	0	n/a	n/a	n/a	n/a	n/a
3141917	RECOG_RESP	n/a	LTP202	ltpFR	17	4	1	SHED	1277	n/a	0	n/a	n/a	n/a	n/a	n/a
3142297	RECOG_CONF	n/a	LTP202	ltpFR	17	4	1	SHED	1277	3	0	n/a	n/a	n/a	n/a	n/a
3144178	RECOG_TARGET	n/a	LTP202	ltpFR	17	4	-1	SNEAKER	1334	5	-1	n/a	n/a	n/a	n/a	n/a
3144930	RECOG_RESP	n/a	LTP202	ltpFR	17	4	-1	SNEAKER	1334	n/a	-1	n/a	n/a	n/a	n/a	n/a
3145390	RECOG_CONF	n/a	LTP202	ltpFR	17	4	-1	SNEAKER	1334	5	-1	n/a	n/a	n/a	n/a	n/a
3147008	RECOG_LURE	n/a	LTP202	ltpFR	17	4	n/a	CITY	314	4	n/a	n/a	n/a	n/a	n/a	n/a
3147653	RECOG_RESP	n/a	LTP202	ltpFR	17	4	n/a	CITY	314	n/a	n/a	n/a	n/a	n/a	n/a	n/a
3148174	RECOG_CONF	n/a	LTP202	ltpFR	17	4	n/a	CITY	314	4	n/a	n/a	n/a	n/a	n/a	n/a
3149853	RECOG_LURE	n/a	LTP202	ltpFR	17	4	n/a	GUM	672	4	n/a	n/a	n/a	n/a	n/a	n/a
3150509	RECOG_RESP	n/a	LTP202	ltpFR	17	4	n/a	GUM	672	n/a	n/a	n/a	n/a	n/a	n/a	n/a
3151117	RECOG_CONF	n/a	LTP202	ltpFR	17	4	n/a	GUM	672	4	n/a	n/a	n/a	n/a	n/a	n/a
3152715	RECOG_TARGET	n/a	LTP202	ltpFR	17	4	0	LIME	823	5	0	n/a	n/a	n/a	n/a	n/a
3153342	RECOG_RESP	n/a	LTP202	ltpFR	17	4	0	LIME	823	n/a	0	n/a	n/a	n/a	n/a	n/a
3153831	RECOG_CONF	n/a	LTP202	ltpFR	17	4	0	LIME	823	5	0	n/a	n/a	n/a	n/a	n/a
3155577	RECOG_TARGET	n/a	LTP202	ltpFR	17	4	0	COOK	372	5	1	n/a	n/a	n/a	n/a	n/a
3156067	RECOG_RESP	n/a	LTP202	ltpFR	17	4	0	COOK	372	n/a	1	n/a	n/a	n/a	n/a	n/a
3156525	RECOG_CONF	n/a	LTP202	ltpFR	17	4	0	COOK	372	5	1	n/a	n/a	n/a	n/a	n/a
3158124	RECOG_TARGET	n/a	LTP202	ltpFR	17	4	-1	CRAYON	401	5	-1	n/a	n/a	n/a	n/a	n/a
3158598	RECOG_RESP	n/a	LTP202	ltpFR	17	4	-1	CRAYON	401	n/a	-1	n/a	n/a	n/a	n/a	n/a
3159059	RECOG_CONF	n/a	LTP202	ltpFR	17	4	-1	CRAYON	401	5	-1	n/a	n/a	n/a	n/a	n/a
3160669	RECOG_TARGET	n/a	LTP202	ltpFR	17	4	0	CHEEK	287	5	0	n/a	n/a	n/a	n/a	n/a
3161227	RECOG_RESP	n/a	LTP202	ltpFR	17	4	0	CHEEK	287	n/a	0	n/a	n/a	n/a	n/a	n/a
3161683	RECOG_CONF	n/a	LTP202	ltpFR	17	4	0	CHEEK	287	5	0	n/a	n/a	n/a	n/a	n/a
3163333	RECOG_TARGET	n/a	LTP202	ltpFR	17	4	1	JUNGLE	764	4	0	n/a	n/a	n/a	n/a	n/a
3163784	RECOG_RESP	n/a	LTP202	ltpFR	17	4	1	JUNGLE	764	n/a	0	n/a	n/a	n/a	n/a	n/a
3164257	RECOG_CONF	n/a	LTP202	ltpFR	17	4	1	JUNGLE	764	4	0	n/a	n/a	n/a	n/a	n/a
3165729	RECOG_TARGET	n/a	LTP202	ltpFR	17	4	1	BULLETIN	195	5	0	n/a	n/a	n/a	n/a	n/a
3166326	RECOG_RESP	n/a	LTP202	ltpFR	17	4	1	BULLETIN	195	n/a	0	n/a	n/a	n/a	n/a	n/a
3166861	RECOG_CONF	n/a	LTP202	ltpFR	17	4	1	BULLETIN	195	5	0	n/a	n/a	n/a	n/a	n/a
3168409	RECOG_LURE	n/a	LTP202	ltpFR	17	4	n/a	JET	756	2	n/a	n/a	n/a	n/a	n/a	n/a
3168833	RECOG_RESP_VV	n/a	LTP202	ltpFR	17	4	n/a	JET	756	n/a	n/a	n/a	n/a	n/a	n/a	n/a
3169773	RECOG_RESP	n/a	LTP202	ltpFR	17	4	n/a	JET	756	n/a	n/a	n/a	n/a	n/a	n/a	n/a
3170873	RECOG_CONF	n/a	LTP202	ltpFR	17	4	n/a	JET	756	2	n/a	n/a	n/a	n/a	n/a	n/a
3172486	RECOG_TARGET	n/a	LTP202	ltpFR	17	4	1	TOAST	1471	2	0	n/a	n/a	n/a	n/a	n/a
3173276	RECOG_RESP	n/a	LTP202	ltpFR	17	4	1	TOAST	1471	n/a	0	n/a	n/a	n/a	n/a	n/a
3173866	RECOG_CONF	n/a	LTP202	ltpFR	17	4	1	TOAST	1471	2	0	n/a	n/a	n/a	n/a	n/a
3175597	RECOG_TARGET	n/a	LTP202	ltpFR	17	4	1	SHELTER	1282	4	0	n/a	n/a	n/a	n/a	n/a
3176170	RECOG_RESP	n/a	LTP202	ltpFR	17	4	1	SHELTER	1282	n/a	0	n/a	n/a	n/a	n/a	n/a
3176869	RECOG_CONF	n/a	LTP202	ltpFR	17	4	1	SHELTER	1282	4	0	n/a	n/a	n/a	n/a	n/a
3178377	RECOG_TARGET	n/a	LTP202	ltpFR	17	4	1	BOTTLE	153	5	0	n/a	n/a	n/a	n/a	n/a
3178921	RECOG_RESP	n/a	LTP202	ltpFR	17	4	1	BOTTLE	153	n/a	0	n/a	n/a	n/a	n/a	n/a
3179393	RECOG_CONF	n/a	LTP202	ltpFR	17	4	1	BOTTLE	153	5	0	n/a	n/a	n/a	n/a	n/a
3180973	RECOG_TARGET	n/a	LTP202	ltpFR	17	4	0	NUN	962	5	1	n/a	n/a	n/a	n/a	n/a
3181539	RECOG_RESP	n/a	LTP202	ltpFR	17	4	0	NUN	962	n/a	1	n/a	n/a	n/a	n/a	n/a
3182027	RECOG_CONF	n/a	LTP202	ltpFR	17	4	0	NUN	962	5	1	n/a	n/a	n/a	n/a	n/a
3183585	RECOG_TARGET	n/a	LTP202	ltpFR	17	4	1	TREE	1502	5	1	n/a	n/a	n/a	n/a	n/a
3184104	RECOG_RESP	n/a	LTP202	ltpFR	17	4	1	TREE	1502	n/a	1	n/a	n/a	n/a	n/a	n/a
3184581	RECOG_CONF	n/a	LTP202	ltpFR	17	4	1	TREE	1502	5	1	n/a	n/a	n/a	n/a	n/a
3186216	RECOG_TARGET	n/a	LTP202	ltpFR	17	4	1	CORN	381	5	0	n/a	n/a	n/a	n/a	n/a
3186828	RECOG_RESP	n/a	LTP202	ltpFR	17	4	1	CORN	381	n/a	0	n/a	n/a	n/a	n/a	n/a
3187255	RECOG_CONF	n/a	LTP202	ltpFR	17	4	1	CORN	381	5	0	n/a	n/a	n/a	n/a	n/a
3188895	RECOG_TARGET	n/a	LTP202	ltpFR	17	4	0	TERMITE	1451	5	0	n/a	n/a	n/a	n/a	n/a
3189479	RECOG_RESP	n/a	LTP202	ltpFR	17	4	0	TERMITE	1451	n/a	0	n/a	n/a	n/a	n/a	n/a
3189919	RECOG_CONF	n/a	LTP202	ltpFR	17	4	0	TERMITE	1451	5	0	n/a	n/a	n/a	n/a	n/a
