onset	duration	trial_type	sample	stim_file	subject	experiment	session	trial	task	item_name	item_num	recog_conf	resp	color_b	color_g	color_r	case	font
313.446	n/a	SESS_START	156723	n/a	LTP141	ltpFR	16	n/a	n/a	n/a	n/a	4	n/a	n/a	n/a	n/a	n/a	n/a
374.496	n/a	WORD	187248	wordpools/wasnorm_wordpool.txt	LTP141	ltpFR	16	1	0	BINDER	127	n/a	0	0	0.5869140625	0.422607421875	lower	../fonts/zerothre.ttf
378.672	n/a	WORD	189336	wordpools/wasnorm_wordpool.txt	LTP141	ltpFR	16	1	0	FUR	615	n/a	0	0	0.5869140625	0.422607421875	lower	../fonts/zerothre.ttf
382.52	n/a	WORD	191260	wordpools/wasnorm_wordpool.txt	LTP141	ltpFR	16	1	1	DOVE	491	n/a	1	1	0.412841796875	0.57763671875	upper	../fonts/amplitud.ttf
386.51	n/a	WORD	193255	wordpools/wasnorm_wordpool.txt	LTP141	ltpFR	16	1	1	STAKE	1368	n/a	0	1	0.412841796875	0.57763671875	upper	../fonts/amplitud.ttf
390.416	n/a	WORD	195208	wordpools/wasnorm_wordpool.txt	LTP141	ltpFR	16	1	1	LIST	830	n/a	0	1	0.412841796875	0.57763671875	upper	../fonts/amplitud.ttf
394.616	n/a	WORD	197308	wordpools/wasnorm_wordpool.txt	LTP141	ltpFR	16	1	1	FUGITIVE	612	n/a	1	1	0.412841796875	0.57763671875	upper	../fonts/amplitud.ttf
398.724	n/a	WORD	199362	wordpools/wasnorm_wordpool.txt	LTP141	ltpFR	16	1	0	CONVICT	371	n/a	1	0	0.5869140625	0.422607421875	lower	../fonts/zerothre.ttf
402.696	n/a	WORD	201348	wordpools/wasnorm_wordpool.txt	LTP141	ltpFR	16	1	0	COAT	333	n/a	1	0	0.5869140625	0.422607421875	lower	../fonts/zerothre.ttf
406.87	n/a	WORD	203435	wordpools/wasnorm_wordpool.txt	LTP141	ltpFR	16	1	1	AWARD	63	n/a	0	1	0.412841796875	0.57763671875	upper	../fonts/amplitud.ttf
410.91	n/a	WORD	205455	wordpools/wasnorm_wordpool.txt	LTP141	ltpFR	16	1	1	COFFIN	342	n/a	0	1	0.412841796875	0.57763671875	upper	../fonts/amplitud.ttf
414.776	n/a	WORD	207388	wordpools/wasnorm_wordpool.txt	LTP141	ltpFR	16	1	1	CAT	257	n/a	1	1	0.412841796875	0.57763671875	upper	../fonts/amplitud.ttf
418.734	n/a	WORD	209367	wordpools/wasnorm_wordpool.txt	LTP141	ltpFR	16	1	1	GAZELLE	628	n/a	1	1	0.412841796875	0.57763671875	upper	../fonts/amplitud.ttf
422.732	n/a	WORD	211366	wordpools/wasnorm_wordpool.txt	LTP141	ltpFR	16	1	0	BATHTUB	100	n/a	1	0	0.5869140625	0.422607421875	lower	../fonts/zerothre.ttf
426.772	n/a	WORD	213386	wordpools/wasnorm_wordpool.txt	LTP141	ltpFR	16	1	0	JACKET	747	n/a	0	0	0.5869140625	0.422607421875	lower	../fonts/zerothre.ttf
430.812	n/a	WORD	215406	wordpools/wasnorm_wordpool.txt	LTP141	ltpFR	16	1	0	GRILL	661	n/a	1	0	0.5869140625	0.422607421875	lower	../fonts/zerothre.ttf
434.896	n/a	WORD	217448	wordpools/wasnorm_wordpool.txt	LTP141	ltpFR	16	1	0	CAFETERIA	217	n/a	1	0	0.5869140625	0.422607421875	lower	../fonts/zerothre.ttf
440.744	n/a	REC_START	220372	n/a	LTP141	ltpFR	16	1	n/a	n/a	n/a	n/a	n/a	n/a	n/a	n/a	n/a	n/a
441.488	n/a	REC_WORD	220744	wordpools/wasnorm_wordpool.txt	LTP141	ltpFR	16	1	0	CAFETERIA	217	n/a	1	n/a	n/a	n/a	n/a	n/a
443.218	n/a	REC_WORD	221609	wordpools/wasnorm_wordpool.txt	LTP141	ltpFR	16	1	0	GRILL	661	n/a	1	n/a	n/a	n/a	n/a	n/a
444.66	n/a	REC_WORD	222330	wordpools/wasnorm_wordpool.txt	LTP141	ltpFR	16	1	0	JACKET	747	n/a	0	n/a	n/a	n/a	n/a	n/a
446.66	n/a	REC_WORD	223330	wordpools/wasnorm_wordpool.txt	LTP141	ltpFR	16	1	0	COAT	333	n/a	1	n/a	n/a	n/a	n/a	n/a
447.948	n/a	REC_WORD	223974	wordpools/wasnorm_wordpool.txt	LTP141	ltpFR	16	1	1	STAKE	1368	n/a	0	n/a	n/a	n/a	n/a	n/a
452.204	n/a	REC_WORD	226102	wordpools/wasnorm_wordpool.txt	LTP141	ltpFR	16	1	1	COFFIN	342	n/a	0	n/a	n/a	n/a	n/a	n/a
459.772	n/a	REC_WORD	229886	wordpools/wasnorm_wordpool.txt	LTP141	ltpFR	16	1	0	FUR	615	n/a	0	n/a	n/a	n/a	n/a	n/a
461.064	n/a	REC_WORD	230532	wordpools/wasnorm_wordpool.txt	LTP141	ltpFR	16	1	1	DOVE	491	n/a	1	n/a	n/a	n/a	n/a	n/a
467.61	n/a	REC_WORD	233805	wordpools/wasnorm_wordpool.txt	LTP141	ltpFR	16	1	1	FUGITIVE	612	n/a	1	n/a	n/a	n/a	n/a	n/a
525.068	n/a	WORD	262534	wordpools/wasnorm_wordpool.txt	LTP141	ltpFR	16	2	1	PRISON	1127	n/a	0	1	0.412841796875	0.57763671875	upper	../fonts/amplitud.ttf
529.15	n/a	WORD	264575	wordpools/wasnorm_wordpool.txt	LTP141	ltpFR	16	2	1	UMPIRE	1535	n/a	1	1	0.412841796875	0.57763671875	upper	../fonts/amplitud.ttf
533.04	n/a	WORD	266520	wordpools/wasnorm_wordpool.txt	LTP141	ltpFR	16	2	1	SCARECROW	1245	n/a	0	1	0.412841796875	0.57763671875	upper	../fonts/amplitud.ttf
537.214	n/a	WORD	268607	wordpools/wasnorm_wordpool.txt	LTP141	ltpFR	16	2	1	BEGGAR	117	n/a	1	1	0.412841796875	0.57763671875	upper	../fonts/amplitud.ttf
541.204	n/a	WORD	270602	wordpools/wasnorm_wordpool.txt	LTP141	ltpFR	16	2	0	OBOE	969	n/a	0	0	0.5869140625	0.422607421875	lower	../fonts/zerothre.ttf
545.278	n/a	WORD	272639	wordpools/wasnorm_wordpool.txt	LTP141	ltpFR	16	2	0	TAPE	1433	n/a	0	0	0.5869140625	0.422607421875	lower	../fonts/zerothre.ttf
549.17	n/a	WORD	274585	wordpools/wasnorm_wordpool.txt	LTP141	ltpFR	16	2	0	JET	756	n/a	1	0	0.5869140625	0.422607421875	lower	../fonts/zerothre.ttf
553.208	n/a	WORD	276604	wordpools/wasnorm_wordpool.txt	LTP141	ltpFR	16	2	0	NAVIGATOR	938	n/a	1	0	0.5869140625	0.422607421875	lower	../fonts/zerothre.ttf
557.026	n/a	WORD	278513	wordpools/wasnorm_wordpool.txt	LTP141	ltpFR	16	2	0	BIRD	129	n/a	0	0	0.5869140625	0.422607421875	lower	../fonts/zerothre.ttf
561.006	n/a	WORD	280503	wordpools/wasnorm_wordpool.txt	LTP141	ltpFR	16	2	0	INMATE	738	n/a	1	0	0.5869140625	0.422607421875	lower	../fonts/zerothre.ttf
565.156	n/a	WORD	282578	wordpools/wasnorm_wordpool.txt	LTP141	ltpFR	16	2	1	BEARD	107	n/a	0	1	0.412841796875	0.57763671875	upper	../fonts/amplitud.ttf
569.33	n/a	WORD	284665	wordpools/wasnorm_wordpool.txt	LTP141	ltpFR	16	2	1	REFRIGERATOR	1179	n/a	0	1	0.412841796875	0.57763671875	upper	../fonts/amplitud.ttf
573.336	n/a	WORD	286668	wordpools/wasnorm_wordpool.txt	LTP141	ltpFR	16	2	1	HAMMER	680	n/a	0	1	0.412841796875	0.57763671875	upper	../fonts/amplitud.ttf
577.236	n/a	WORD	288618	wordpools/wasnorm_wordpool.txt	LTP141	ltpFR	16	2	1	ROCK	1201	n/a	0	1	0.412841796875	0.57763671875	upper	../fonts/amplitud.ttf
581.184	n/a	WORD	290592	wordpools/wasnorm_wordpool.txt	LTP141	ltpFR	16	2	0	MONUMENT	913	n/a	1	0	0.5869140625	0.422607421875	lower	../fonts/zerothre.ttf
585.268	n/a	WORD	292634	wordpools/wasnorm_wordpool.txt	LTP141	ltpFR	16	2	0	CHESS	294	n/a	0	0	0.5869140625	0.422607421875	lower	../fonts/zerothre.ttf
591.224	n/a	REC_START	295612	n/a	LTP141	ltpFR	16	2	n/a	n/a	n/a	n/a	n/a	n/a	n/a	n/a	n/a	n/a
591.972	n/a	REC_WORD	295986	wordpools/wasnorm_wordpool.txt	LTP141	ltpFR	16	2	0	CHESS	294	n/a	0	n/a	n/a	n/a	n/a	n/a
593.324	n/a	REC_WORD	296662	wordpools/wasnorm_wordpool.txt	LTP141	ltpFR	16	2	0	MONUMENT	913	n/a	1	n/a	n/a	n/a	n/a	n/a
594.926	n/a	REC_WORD	297463	wordpools/wasnorm_wordpool.txt	LTP141	ltpFR	16	2	1	HAMMER	680	n/a	0	n/a	n/a	n/a	n/a	n/a
608.67	n/a	REC_WORD	304335	wordpools/wasnorm_wordpool.txt	LTP141	ltpFR	16	2	0	TAPE	1433	n/a	0	n/a	n/a	n/a	n/a	n/a
622.24	n/a	REC_WORD	311120	wordpools/wasnorm_wordpool.txt	LTP141	ltpFR	16	2	0	CHESS	294	n/a	0	n/a	n/a	n/a	n/a	n/a
634.762	n/a	REC_WORD	317381	wordpools/wasnorm_wordpool.txt	LTP141	ltpFR	16	2	1	SCARECROW	1245	n/a	0	n/a	n/a	n/a	n/a	n/a
644.142	n/a	REC_WORD	322071	wordpools/wasnorm_wordpool.txt	LTP141	ltpFR	16	2	0	JET	756	n/a	1	n/a	n/a	n/a	n/a	n/a
673.456	n/a	WORD	336728	wordpools/wasnorm_wordpool.txt	LTP141	ltpFR	16	3	-1	TICK	1463	n/a	-1	1	1.0	1.0	upper	../fonts/Verdana.ttf
677.59	n/a	WORD	338795	wordpools/wasnorm_wordpool.txt	LTP141	ltpFR	16	3	-1	BARTENDER	92	n/a	-1	1	1.0	1.0	upper	../fonts/Verdana.ttf
681.438	n/a	WORD	340719	wordpools/wasnorm_wordpool.txt	LTP141	ltpFR	16	3	-1	RUM	1217	n/a	-1	1	1.0	1.0	upper	../fonts/Verdana.ttf
685.57	n/a	WORD	342785	wordpools/wasnorm_wordpool.txt	LTP141	ltpFR	16	3	-1	MISTER	901	n/a	-1	1	1.0	1.0	upper	../fonts/Verdana.ttf
689.584	n/a	WORD	344792	wordpools/wasnorm_wordpool.txt	LTP141	ltpFR	16	3	-1	BEAST	108	n/a	-1	1	1.0	1.0	upper	../fonts/Verdana.ttf
693.75	n/a	WORD	346875	wordpools/wasnorm_wordpool.txt	LTP141	ltpFR	16	3	-1	CLAM	315	n/a	-1	1	1.0	1.0	upper	../fonts/Verdana.ttf
697.684	n/a	WORD	348842	wordpools/wasnorm_wordpool.txt	LTP141	ltpFR	16	3	-1	TEENAGER	1444	n/a	-1	1	1.0	1.0	upper	../fonts/Verdana.ttf
701.698	n/a	WORD	350849	wordpools/wasnorm_wordpool.txt	LTP141	ltpFR	16	3	-1	CUB	419	n/a	-1	1	1.0	1.0	upper	../fonts/Verdana.ttf
705.58	n/a	WORD	352790	wordpools/wasnorm_wordpool.txt	LTP141	ltpFR	16	3	-1	MOLECULE	905	n/a	-1	1	1.0	1.0	upper	../fonts/Verdana.ttf
709.478	n/a	WORD	354739	wordpools/wasnorm_wordpool.txt	LTP141	ltpFR	16	3	-1	LEOPARD	812	n/a	-1	1	1.0	1.0	upper	../fonts/Verdana.ttf
713.552	n/a	WORD	356776	wordpools/wasnorm_wordpool.txt	LTP141	ltpFR	16	3	-1	CITIZEN	312	n/a	-1	1	1.0	1.0	upper	../fonts/Verdana.ttf
717.528	n/a	WORD	358764	wordpools/wasnorm_wordpool.txt	LTP141	ltpFR	16	3	-1	BALL	73	n/a	-1	1	1.0	1.0	upper	../fonts/Verdana.ttf
721.342	n/a	WORD	360671	wordpools/wasnorm_wordpool.txt	LTP141	ltpFR	16	3	-1	LASH	802	n/a	-1	1	1.0	1.0	upper	../fonts/Verdana.ttf
725.49	n/a	WORD	362745	wordpools/wasnorm_wordpool.txt	LTP141	ltpFR	16	3	-1	DELINQUENT	445	n/a	-1	1	1.0	1.0	upper	../fonts/Verdana.ttf
729.648	n/a	WORD	364824	wordpools/wasnorm_wordpool.txt	LTP141	ltpFR	16	3	-1	COCKTAIL	338	n/a	-1	1	1.0	1.0	upper	../fonts/Verdana.ttf
733.506	n/a	WORD	366753	wordpools/wasnorm_wordpool.txt	LTP141	ltpFR	16	3	-1	COOLER	375	n/a	-1	1	1.0	1.0	upper	../fonts/Verdana.ttf
739.488	n/a	REC_START	369744	n/a	LTP141	ltpFR	16	3	n/a	n/a	n/a	n/a	n/a	n/a	n/a	n/a	n/a	n/a
740.486	n/a	REC_WORD	370243	wordpools/wasnorm_wordpool.txt	LTP141	ltpFR	16	3	-1	COCKTAIL	338	n/a	-1	n/a	n/a	n/a	n/a	n/a
741.962	n/a	REC_WORD	370981	wordpools/wasnorm_wordpool.txt	LTP141	ltpFR	16	3	-1	COOLER	375	n/a	-1	n/a	n/a	n/a	n/a	n/a
743.384	n/a	REC_WORD	371692	wordpools/wasnorm_wordpool.txt	LTP141	ltpFR	16	3	-1	LASH	802	n/a	-1	n/a	n/a	n/a	n/a	n/a
744.826	n/a	REC_WORD	372413	wordpools/wasnorm_wordpool.txt	LTP141	ltpFR	16	3	-1	DELINQUENT	445	n/a	-1	n/a	n/a	n/a	n/a	n/a
746.396	n/a	REC_WORD	373198	wordpools/wasnorm_wordpool.txt	LTP141	ltpFR	16	3	-1	TEENAGER	1444	n/a	-1	n/a	n/a	n/a	n/a	n/a
748.416	n/a	REC_WORD	374208	wordpools/wasnorm_wordpool.txt	LTP141	ltpFR	16	3	-1	BARTENDER	92	n/a	-1	n/a	n/a	n/a	n/a	n/a
750.088	n/a	REC_WORD	375044	wordpools/wasnorm_wordpool.txt	LTP141	ltpFR	16	3	-1	RUM	1217	n/a	-1	n/a	n/a	n/a	n/a	n/a
770.148	n/a	REC_WORD	385074	wordpools/wasnorm_wordpool.txt	LTP141	ltpFR	16	3	-1	CUB	419	n/a	-1	n/a	n/a	n/a	n/a	n/a
818.022	n/a	WORD	409011	wordpools/wasnorm_wordpool.txt	LTP141	ltpFR	16	4	0	CHEF	290	n/a	1	0	0.5869140625	0.422607421875	lower	../fonts/zerothre.ttf
822.21	n/a	WORD	411105	wordpools/wasnorm_wordpool.txt	LTP141	ltpFR	16	4	0	WASHER	1592	n/a	1	0	0.5869140625	0.422607421875	lower	../fonts/zerothre.ttf
826.094	n/a	WORD	413047	wordpools/wasnorm_wordpool.txt	LTP141	ltpFR	16	4	0	CANYON	235	n/a	1	0	0.5869140625	0.422607421875	lower	../fonts/zerothre.ttf
830.302	n/a	WORD	415151	wordpools/wasnorm_wordpool.txt	LTP141	ltpFR	16	4	0	WELL	1600	n/a	1	0	0.5869140625	0.422607421875	lower	../fonts/zerothre.ttf
834.292	n/a	WORD	417146	wordpools/wasnorm_wordpool.txt	LTP141	ltpFR	16	4	0	BROCCOLI	176	n/a	0	0	0.5869140625	0.422607421875	lower	../fonts/zerothre.ttf
838.466	n/a	WORD	419233	wordpools/wasnorm_wordpool.txt	LTP141	ltpFR	16	4	0	FISH	571	n/a	0	0	0.5869140625	0.422607421875	lower	../fonts/zerothre.ttf
842.596	n/a	WORD	421298	wordpools/wasnorm_wordpool.txt	LTP141	ltpFR	16	4	0	POPE	1105	n/a	1	0	0.5869140625	0.422607421875	lower	../fonts/zerothre.ttf
846.48	n/a	WORD	423240	wordpools/wasnorm_wordpool.txt	LTP141	ltpFR	16	4	0	FRIAR	605	n/a	1	0	0.5869140625	0.422607421875	lower	../fonts/zerothre.ttf
850.596	n/a	WORD	425298	wordpools/wasnorm_wordpool.txt	LTP141	ltpFR	16	4	0	PAIL	1002	n/a	0	0	0.5869140625	0.422607421875	lower	../fonts/zerothre.ttf
854.46	n/a	WORD	427230	wordpools/wasnorm_wordpool.txt	LTP141	ltpFR	16	4	0	OTTER	986	n/a	0	0	0.5869140625	0.422607421875	lower	../fonts/zerothre.ttf
858.508	n/a	WORD	429254	wordpools/wasnorm_wordpool.txt	LTP141	ltpFR	16	4	0	DANDRUFF	439	n/a	0	0	0.5869140625	0.422607421875	lower	../fonts/zerothre.ttf
862.482	n/a	WORD	431241	wordpools/wasnorm_wordpool.txt	LTP141	ltpFR	16	4	0	HOOK	715	n/a	0	0	0.5869140625	0.422607421875	lower	../fonts/zerothre.ttf
866.316	n/a	WORD	433158	wordpools/wasnorm_wordpool.txt	LTP141	ltpFR	16	4	0	POTATO	1115	n/a	0	0	0.5869140625	0.422607421875	lower	../fonts/zerothre.ttf
870.488	n/a	WORD	435244	wordpools/wasnorm_wordpool.txt	LTP141	ltpFR	16	4	0	PLUM	1090	n/a	0	0	0.5869140625	0.422607421875	lower	../fonts/zerothre.ttf
874.346	n/a	WORD	437173	wordpools/wasnorm_wordpool.txt	LTP141	ltpFR	16	4	0	BUSH	202	n/a	1	0	0.5869140625	0.422607421875	lower	../fonts/zerothre.ttf
878.502	n/a	WORD	439251	wordpools/wasnorm_wordpool.txt	LTP141	ltpFR	16	4	0	HONEY	713	n/a	0	0	0.5869140625	0.422607421875	lower	../fonts/zerothre.ttf
884.186	n/a	REC_START	442093	n/a	LTP141	ltpFR	16	4	n/a	n/a	n/a	n/a	n/a	n/a	n/a	n/a	n/a	n/a
885.212	n/a	REC_WORD	442606	wordpools/wasnorm_wordpool.txt	LTP141	ltpFR	16	4	0	HONEY	713	n/a	0	n/a	n/a	n/a	n/a	n/a
886.59	n/a	REC_WORD	443295	wordpools/wasnorm_wordpool.txt	LTP141	ltpFR	16	4	0	BUSH	202	n/a	1	n/a	n/a	n/a	n/a	n/a
887.846	n/a	REC_WORD	443923	wordpools/wasnorm_wordpool.txt	LTP141	ltpFR	16	4	0	PAIL	1002	n/a	0	n/a	n/a	n/a	n/a	n/a
889.384	n/a	REC_WORD	444692	wordpools/wasnorm_wordpool.txt	LTP141	ltpFR	16	4	0	OTTER	986	n/a	0	n/a	n/a	n/a	n/a	n/a
890.506	n/a	REC_WORD	445253	wordpools/wasnorm_wordpool.txt	LTP141	ltpFR	16	4	0	POTATO	1115	n/a	0	n/a	n/a	n/a	n/a	n/a
892.198	n/a	REC_WORD	446099	wordpools/wasnorm_wordpool.txt	LTP141	ltpFR	16	4	0	PLUM	1090	n/a	0	n/a	n/a	n/a	n/a	n/a
893.748	n/a	REC_WORD	446874	wordpools/wasnorm_wordpool.txt	LTP141	ltpFR	16	4	0	DANDRUFF	439	n/a	0	n/a	n/a	n/a	n/a	n/a
896.198	n/a	REC_WORD	448099	wordpools/wasnorm_wordpool.txt	LTP141	ltpFR	16	4	0	FISH	571	n/a	0	n/a	n/a	n/a	n/a	n/a
901.266	n/a	REC_WORD	450633	wordpools/wasnorm_wordpool.txt	LTP141	ltpFR	16	4	0	CHEF	290	n/a	1	n/a	n/a	n/a	n/a	n/a
902.774	n/a	REC_WORD	451387	wordpools/wasnorm_wordpool.txt	LTP141	ltpFR	16	4	0	WASHER	1592	n/a	1	n/a	n/a	n/a	n/a	n/a
970.276	n/a	WORD	485138	wordpools/wasnorm_wordpool.txt	LTP141	ltpFR	16	5	-1	EAGLE	512	n/a	-1	1	1.0	1.0	upper	../fonts/Verdana.ttf
974.108	n/a	WORD	487054	wordpools/wasnorm_wordpool.txt	LTP141	ltpFR	16	5	-1	DRESSER	496	n/a	-1	1	1.0	1.0	upper	../fonts/Verdana.ttf
978.248	n/a	WORD	489124	wordpools/wasnorm_wordpool.txt	LTP141	ltpFR	16	5	-1	LINT	826	n/a	-1	1	1.0	1.0	upper	../fonts/Verdana.ttf
982.314	n/a	WORD	491157	wordpools/wasnorm_wordpool.txt	LTP141	ltpFR	16	5	-1	GULL	671	n/a	-1	1	1.0	1.0	upper	../fonts/Verdana.ttf
986.478	n/a	WORD	493239	wordpools/wasnorm_wordpool.txt	LTP141	ltpFR	16	5	-1	CROSS	413	n/a	-1	1	1.0	1.0	upper	../fonts/Verdana.ttf
990.402	n/a	WORD	495201	wordpools/wasnorm_wordpool.txt	LTP141	ltpFR	16	5	-1	SIDEWALK	1303	n/a	-1	1	1.0	1.0	upper	../fonts/Verdana.ttf
994.568	n/a	WORD	497284	wordpools/wasnorm_wordpool.txt	LTP141	ltpFR	16	5	-1	WAITRESS	1581	n/a	-1	1	1.0	1.0	upper	../fonts/Verdana.ttf
998.508	n/a	WORD	499254	wordpools/wasnorm_wordpool.txt	LTP141	ltpFR	16	5	-1	CAPTAIN	239	n/a	-1	1	1.0	1.0	upper	../fonts/Verdana.ttf
1002.608	n/a	WORD	501304	wordpools/wasnorm_wordpool.txt	LTP141	ltpFR	16	5	-1	BISCUIT	130	n/a	-1	1	1.0	1.0	upper	../fonts/Verdana.ttf
1006.622	n/a	WORD	503311	wordpools/wasnorm_wordpool.txt	LTP141	ltpFR	16	5	-1	BAKER	71	n/a	-1	1	1.0	1.0	upper	../fonts/Verdana.ttf
1010.512	n/a	WORD	505256	wordpools/wasnorm_wordpool.txt	LTP141	ltpFR	16	5	-1	PLAZA	1088	n/a	-1	1	1.0	1.0	upper	../fonts/Verdana.ttf
1014.57	n/a	WORD	507285	wordpools/wasnorm_wordpool.txt	LTP141	ltpFR	16	5	-1	TRIGGER	1507	n/a	-1	1	1.0	1.0	upper	../fonts/Verdana.ttf
1018.512	n/a	WORD	509256	wordpools/wasnorm_wordpool.txt	LTP141	ltpFR	16	5	-1	SUBURB	1399	n/a	-1	1	1.0	1.0	upper	../fonts/Verdana.ttf
1022.468	n/a	WORD	511234	wordpools/wasnorm_wordpool.txt	LTP141	ltpFR	16	5	-1	BRAIN	165	n/a	-1	1	1.0	1.0	upper	../fonts/Verdana.ttf
1026.284	n/a	WORD	513142	wordpools/wasnorm_wordpool.txt	LTP141	ltpFR	16	5	-1	CLERK	321	n/a	-1	1	1.0	1.0	upper	../fonts/Verdana.ttf
1030.39	n/a	WORD	515195	wordpools/wasnorm_wordpool.txt	LTP141	ltpFR	16	5	-1	COMMANDER	354	n/a	-1	1	1.0	1.0	upper	../fonts/Verdana.ttf
1036.124	n/a	REC_START	518062	n/a	LTP141	ltpFR	16	5	n/a	n/a	n/a	n/a	n/a	n/a	n/a	n/a	n/a	n/a
1037.076	n/a	REC_WORD	518538	wordpools/wasnorm_wordpool.txt	LTP141	ltpFR	16	5	-1	COMMANDER	354	n/a	-1	n/a	n/a	n/a	n/a	n/a
1038.582	n/a	REC_WORD	519291	wordpools/wasnorm_wordpool.txt	LTP141	ltpFR	16	5	0	CHEF	290	n/a	1	n/a	n/a	n/a	n/a	n/a
1041.266	n/a	REC_WORD	520633	wordpools/wasnorm_wordpool.txt	LTP141	ltpFR	16	5	-1	SUBURB	1399	n/a	-1	n/a	n/a	n/a	n/a	n/a
1043.672	n/a	REC_WORD	521836	wordpools/wasnorm_wordpool.txt	LTP141	ltpFR	16	5	-1	EAGLE	512	n/a	-1	n/a	n/a	n/a	n/a	n/a
1045.726	n/a	REC_WORD	522863	wordpools/wasnorm_wordpool.txt	LTP141	ltpFR	16	5	n/a	SEAGULL	1261	n/a	n/a	n/a	n/a	n/a	n/a	n/a
1049.722	n/a	REC_WORD	524861	wordpools/wasnorm_wordpool.txt	LTP141	ltpFR	16	5	-1	DRESSER	496	n/a	-1	n/a	n/a	n/a	n/a	n/a
1051.38	n/a	REC_WORD	525690	wordpools/wasnorm_wordpool.txt	LTP141	ltpFR	16	5	-1	LINT	826	n/a	-1	n/a	n/a	n/a	n/a	n/a
1119.956	n/a	WORD	559978	wordpools/wasnorm_wordpool.txt	LTP141	ltpFR	16	6	-1	NOMAD	955	n/a	-1	1	1.0	1.0	upper	../fonts/Verdana.ttf
1123.82	n/a	WORD	561910	wordpools/wasnorm_wordpool.txt	LTP141	ltpFR	16	6	-1	OUTLAW	989	n/a	-1	1	1.0	1.0	upper	../fonts/Verdana.ttf
1127.762	n/a	WORD	563881	wordpools/wasnorm_wordpool.txt	LTP141	ltpFR	16	6	-1	CAPTIVE	240	n/a	-1	1	1.0	1.0	upper	../fonts/Verdana.ttf
1131.96	n/a	WORD	565980	wordpools/wasnorm_wordpool.txt	LTP141	ltpFR	16	6	-1	ACID	2	n/a	-1	1	1.0	1.0	upper	../fonts/Verdana.ttf
1136.076	n/a	WORD	568038	wordpools/wasnorm_wordpool.txt	LTP141	ltpFR	16	6	-1	COCOON	339	n/a	-1	1	1.0	1.0	upper	../fonts/Verdana.ttf
1140.016	n/a	WORD	570008	wordpools/wasnorm_wordpool.txt	LTP141	ltpFR	16	6	-1	DISH	474	n/a	-1	1	1.0	1.0	upper	../fonts/Verdana.ttf
1143.84	n/a	WORD	571920	wordpools/wasnorm_wordpool.txt	LTP141	ltpFR	16	6	-1	CLOWN	330	n/a	-1	1	1.0	1.0	upper	../fonts/Verdana.ttf
1147.906	n/a	WORD	573953	wordpools/wasnorm_wordpool.txt	LTP141	ltpFR	16	6	-1	RELATIVE	1182	n/a	-1	1	1.0	1.0	upper	../fonts/Verdana.ttf
1152.02	n/a	WORD	576010	wordpools/wasnorm_wordpool.txt	LTP141	ltpFR	16	6	-1	FOE	587	n/a	-1	1	1.0	1.0	upper	../fonts/Verdana.ttf
1156.002	n/a	WORD	578001	wordpools/wasnorm_wordpool.txt	LTP141	ltpFR	16	6	-1	COMEDIAN	352	n/a	-1	1	1.0	1.0	upper	../fonts/Verdana.ttf
1159.926	n/a	WORD	579963	wordpools/wasnorm_wordpool.txt	LTP141	ltpFR	16	6	-1	DAD	433	n/a	-1	1	1.0	1.0	upper	../fonts/Verdana.ttf
1164.068	n/a	WORD	582034	wordpools/wasnorm_wordpool.txt	LTP141	ltpFR	16	6	-1	TENT	1449	n/a	-1	1	1.0	1.0	upper	../fonts/Verdana.ttf
1168.14	n/a	WORD	584070	wordpools/wasnorm_wordpool.txt	LTP141	ltpFR	16	6	-1	COBRA	336	n/a	-1	1	1.0	1.0	upper	../fonts/Verdana.ttf
1172.238	n/a	WORD	586119	wordpools/wasnorm_wordpool.txt	LTP141	ltpFR	16	6	-1	AUTOMOBILE	62	n/a	-1	1	1.0	1.0	upper	../fonts/Verdana.ttf
1176.054	n/a	WORD	588027	wordpools/wasnorm_wordpool.txt	LTP141	ltpFR	16	6	-1	RADIATOR	1156	n/a	-1	1	1.0	1.0	upper	../fonts/Verdana.ttf
1180.178	n/a	WORD	590089	wordpools/wasnorm_wordpool.txt	LTP141	ltpFR	16	6	-1	MOTHER	921	n/a	-1	1	1.0	1.0	upper	../fonts/Verdana.ttf
1185.854	n/a	REC_START	592927	n/a	LTP141	ltpFR	16	6	n/a	n/a	n/a	n/a	n/a	n/a	n/a	n/a	n/a	n/a
1186.412	n/a	REC_WORD	593206	wordpools/wasnorm_wordpool.txt	LTP141	ltpFR	16	6	-1	MOTHER	921	n/a	-1	n/a	n/a	n/a	n/a	n/a
1187.66	n/a	REC_WORD	593830	wordpools/wasnorm_wordpool.txt	LTP141	ltpFR	16	6	-1	AUTOMOBILE	62	n/a	-1	n/a	n/a	n/a	n/a	n/a
1189.27	n/a	REC_WORD	594635	wordpools/wasnorm_wordpool.txt	LTP141	ltpFR	16	6	-1	DAD	433	n/a	-1	n/a	n/a	n/a	n/a	n/a
1203.598	n/a	REC_WORD	601799	wordpools/wasnorm_wordpool.txt	LTP141	ltpFR	16	6	-1	COBRA	336	n/a	-1	n/a	n/a	n/a	n/a	n/a
1210.488	n/a	REC_WORD	605244	wordpools/wasnorm_wordpool.txt	LTP141	ltpFR	16	6	-1	CAPTIVE	240	n/a	-1	n/a	n/a	n/a	n/a	n/a
1211.77	n/a	REC_WORD	605885	wordpools/wasnorm_wordpool.txt	LTP141	ltpFR	16	6	-1	OUTLAW	989	n/a	-1	n/a	n/a	n/a	n/a	n/a
1265.554	n/a	WORD	632777	wordpools/wasnorm_wordpool.txt	LTP141	ltpFR	16	7	0	COLLEGE	346	n/a	1	0	0.5869140625	0.422607421875	lower	../fonts/zerothre.ttf
1269.61	n/a	WORD	634805	wordpools/wasnorm_wordpool.txt	LTP141	ltpFR	16	7	0	CORK	380	n/a	0	0	0.5869140625	0.422607421875	lower	../fonts/zerothre.ttf
1273.458	n/a	WORD	636729	wordpools/wasnorm_wordpool.txt	LTP141	ltpFR	16	7	0	PARSLEY	1016	n/a	0	0	0.5869140625	0.422607421875	lower	../fonts/zerothre.ttf
1277.574	n/a	WORD	638787	wordpools/wasnorm_wordpool.txt	LTP141	ltpFR	16	7	1	PLUTO	1092	n/a	1	1	0.412841796875	0.57763671875	upper	../fonts/amplitud.ttf
1281.474	n/a	WORD	640737	wordpools/wasnorm_wordpool.txt	LTP141	ltpFR	16	7	1	LENS	811	n/a	0	1	0.412841796875	0.57763671875	upper	../fonts/amplitud.ttf
1285.414	n/a	WORD	642707	wordpools/wasnorm_wordpool.txt	LTP141	ltpFR	16	7	0	SQUID	1361	n/a	1	0	0.5869140625	0.422607421875	lower	../fonts/zerothre.ttf
1289.296	n/a	WORD	644648	wordpools/wasnorm_wordpool.txt	LTP141	ltpFR	16	7	0	WEED	1599	n/a	0	0	0.5869140625	0.422607421875	lower	../fonts/zerothre.ttf
1293.128	n/a	WORD	646564	wordpools/wasnorm_wordpool.txt	LTP141	ltpFR	16	7	0	HOE	711	n/a	0	0	0.5869140625	0.422607421875	lower	../fonts/zerothre.ttf
1297.178	n/a	WORD	648589	wordpools/wasnorm_wordpool.txt	LTP141	ltpFR	16	7	1	SCALLOP	1242	n/a	1	1	0.412841796875	0.57763671875	upper	../fonts/amplitud.ttf
1301.35	n/a	WORD	650675	wordpools/wasnorm_wordpool.txt	LTP141	ltpFR	16	7	1	BAIT	70	n/a	1	1	0.412841796875	0.57763671875	upper	../fonts/amplitud.ttf
1305.424	n/a	WORD	652712	wordpools/wasnorm_wordpool.txt	LTP141	ltpFR	16	7	1	PRINCE	1124	n/a	1	1	0.412841796875	0.57763671875	upper	../fonts/amplitud.ttf
1309.422	n/a	WORD	654711	wordpools/wasnorm_wordpool.txt	LTP141	ltpFR	16	7	1	ROOM	1206	n/a	0	1	0.412841796875	0.57763671875	upper	../fonts/amplitud.ttf
1313.598	n/a	WORD	656799	wordpools/wasnorm_wordpool.txt	LTP141	ltpFR	16	7	1	WAREHOUSE	1588	n/a	0	1	0.412841796875	0.57763671875	upper	../fonts/amplitud.ttf
1317.796	n/a	WORD	658898	wordpools/wasnorm_wordpool.txt	LTP141	ltpFR	16	7	1	STY	1397	n/a	0	1	0.412841796875	0.57763671875	upper	../fonts/amplitud.ttf
1321.82	n/a	WORD	660910	wordpools/wasnorm_wordpool.txt	LTP141	ltpFR	16	7	0	STEWARDESS	1381	n/a	1	0	0.5869140625	0.422607421875	lower	../fonts/zerothre.ttf
1325.668	n/a	WORD	662834	wordpools/wasnorm_wordpool.txt	LTP141	ltpFR	16	7	0	KITE	779	n/a	0	0	0.5869140625	0.422607421875	lower	../fonts/zerothre.ttf
1331.784	n/a	REC_START	665892	n/a	LTP141	ltpFR	16	7	n/a	n/a	n/a	n/a	n/a	n/a	n/a	n/a	n/a	n/a
1332.806	n/a	REC_WORD	666403	wordpools/wasnorm_wordpool.txt	LTP141	ltpFR	16	7	0	KITE	779	n/a	0	n/a	n/a	n/a	n/a	n/a
1334.168	n/a	REC_WORD	667084	wordpools/wasnorm_wordpool.txt	LTP141	ltpFR	16	7	0	STEWARDESS	1381	n/a	1	n/a	n/a	n/a	n/a	n/a
1336.25	n/a	REC_WORD	668125	wordpools/wasnorm_wordpool.txt	LTP141	ltpFR	16	7	0	COLLEGE	346	n/a	1	n/a	n/a	n/a	n/a	n/a
1337.77	n/a	REC_WORD	668885	wordpools/wasnorm_wordpool.txt	LTP141	ltpFR	16	7	0	SQUID	1361	n/a	1	n/a	n/a	n/a	n/a	n/a
1359.114	n/a	REC_WORD	679557	wordpools/wasnorm_wordpool.txt	LTP141	ltpFR	16	7	0	PARSLEY	1016	n/a	0	n/a	n/a	n/a	n/a	n/a
1367.868	n/a	REC_WORD	683934	wordpools/wasnorm_wordpool.txt	LTP141	ltpFR	16	7	0	WEED	1599	n/a	0	n/a	n/a	n/a	n/a	n/a
1369.316	n/a	REC_WORD	684658	wordpools/wasnorm_wordpool.txt	LTP141	ltpFR	16	7	0	HOE	711	n/a	0	n/a	n/a	n/a	n/a	n/a
1371.262	n/a	REC_WORD	685631	wordpools/wasnorm_wordpool.txt	LTP141	ltpFR	16	7	n/a	GARDEN	623	n/a	n/a	n/a	n/a	n/a	n/a	n/a
1380.944	n/a	REC_WORD	690472	wordpools/wasnorm_wordpool.txt	LTP141	ltpFR	16	7	1	BAIT	70	n/a	1	n/a	n/a	n/a	n/a	n/a
1412.168	n/a	WORD	706084	wordpools/wasnorm_wordpool.txt	LTP141	ltpFR	16	8	1	COWBOY	395	n/a	1	1	0.412841796875	0.57763671875	upper	../fonts/amplitud.ttf
1416.3	n/a	WORD	708150	wordpools/wasnorm_wordpool.txt	LTP141	ltpFR	16	8	1	HUT	729	n/a	0	1	0.412841796875	0.57763671875	upper	../fonts/amplitud.ttf
1420.472	n/a	WORD	710236	wordpools/wasnorm_wordpool.txt	LTP141	ltpFR	16	8	1	VAULT	1550	n/a	0	1	0.412841796875	0.57763671875	upper	../fonts/amplitud.ttf
1424.288	n/a	WORD	712144	wordpools/wasnorm_wordpool.txt	LTP141	ltpFR	16	8	1	COIN	343	n/a	0	1	0.412841796875	0.57763671875	upper	../fonts/amplitud.ttf
1428.37	n/a	WORD	714185	wordpools/wasnorm_wordpool.txt	LTP141	ltpFR	16	8	1	CIGAR	308	n/a	0	1	0.412841796875	0.57763671875	upper	../fonts/amplitud.ttf
1432.436	n/a	WORD	716218	wordpools/wasnorm_wordpool.txt	LTP141	ltpFR	16	8	1	NOTE	958	n/a	0	1	0.412841796875	0.57763671875	upper	../fonts/amplitud.ttf
1436.492	n/a	WORD	718246	wordpools/wasnorm_wordpool.txt	LTP141	ltpFR	16	8	1	BEAVER	109	n/a	1	1	0.412841796875	0.57763671875	upper	../fonts/amplitud.ttf
1440.424	n/a	WORD	720212	wordpools/wasnorm_wordpool.txt	LTP141	ltpFR	16	8	1	VET	1560	n/a	1	1	0.412841796875	0.57763671875	upper	../fonts/amplitud.ttf
1444.332	n/a	WORD	722166	wordpools/wasnorm_wordpool.txt	LTP141	ltpFR	16	8	1	SHORE	1291	n/a	0	1	0.412841796875	0.57763671875	upper	../fonts/amplitud.ttf
1448.424	n/a	WORD	724212	wordpools/wasnorm_wordpool.txt	LTP141	ltpFR	16	8	1	SERGEANT	1269	n/a	1	1	0.412841796875	0.57763671875	upper	../fonts/amplitud.ttf
1452.388	n/a	WORD	726194	wordpools/wasnorm_wordpool.txt	LTP141	ltpFR	16	8	1	RADIO	1157	n/a	0	1	0.412841796875	0.57763671875	upper	../fonts/amplitud.ttf
1456.252	n/a	WORD	728126	wordpools/wasnorm_wordpool.txt	LTP141	ltpFR	16	8	1	LIGHTER	819	n/a	1	1	0.412841796875	0.57763671875	upper	../fonts/amplitud.ttf
1460.26	n/a	WORD	730130	wordpools/wasnorm_wordpool.txt	LTP141	ltpFR	16	8	1	SNORKEL	1336	n/a	0	1	0.412841796875	0.57763671875	upper	../fonts/amplitud.ttf
1464.16	n/a	WORD	732080	wordpools/wasnorm_wordpool.txt	LTP141	ltpFR	16	8	1	CUBE	420	n/a	1	1	0.412841796875	0.57763671875	upper	../fonts/amplitud.ttf
1468.076	n/a	WORD	734038	wordpools/wasnorm_wordpool.txt	LTP141	ltpFR	16	8	1	UTENSIL	1542	n/a	0	1	0.412841796875	0.57763671875	upper	../fonts/amplitud.ttf
1472.166	n/a	WORD	736083	wordpools/wasnorm_wordpool.txt	LTP141	ltpFR	16	8	1	ATTORNEY	58	n/a	1	1	0.412841796875	0.57763671875	upper	../fonts/amplitud.ttf
1477.848	n/a	REC_START	738924	n/a	LTP141	ltpFR	16	8	n/a	n/a	n/a	n/a	n/a	n/a	n/a	n/a	n/a	n/a
1479.478	n/a	REC_WORD	739739	wordpools/wasnorm_wordpool.txt	LTP141	ltpFR	16	8	1	ATTORNEY	58	n/a	1	n/a	n/a	n/a	n/a	n/a
1494.206	n/a	REC_WORD	747103	wordpools/wasnorm_wordpool.txt	LTP141	ltpFR	16	8	1	HUT	729	n/a	0	n/a	n/a	n/a	n/a	n/a
1495.458	n/a	REC_WORD	747729	wordpools/wasnorm_wordpool.txt	LTP141	ltpFR	16	8	1	VAULT	1550	n/a	0	n/a	n/a	n/a	n/a	n/a
1497.224	n/a	REC_WORD	748612	wordpools/wasnorm_wordpool.txt	LTP141	ltpFR	16	8	1	COIN	343	n/a	0	n/a	n/a	n/a	n/a	n/a
1498.72	n/a	REC_WORD	749360	wordpools/wasnorm_wordpool.txt	LTP141	ltpFR	16	8	1	CIGAR	308	n/a	0	n/a	n/a	n/a	n/a	n/a
1507.014	n/a	REC_WORD	753507	wordpools/wasnorm_wordpool.txt	LTP141	ltpFR	16	8	1	COWBOY	395	n/a	1	n/a	n/a	n/a	n/a	n/a
1546.176	n/a	REC_WORD	773088	wordpools/wasnorm_wordpool.txt	LTP141	ltpFR	16	8	1	VET	1560	n/a	1	n/a	n/a	n/a	n/a	n/a
1549.624	n/a	REC_WORD	774812	wordpools/wasnorm_wordpool.txt	LTP141	ltpFR	16	8	1	BEAVER	109	n/a	1	n/a	n/a	n/a	n/a	n/a
1556.332	n/a	WORD	778166	wordpools/wasnorm_wordpool.txt	LTP141	ltpFR	16	9	1	CAVITY	264	n/a	0	1	0.412841796875	0.57763671875	upper	../fonts/amplitud.ttf
1560.464	n/a	WORD	780232	wordpools/wasnorm_wordpool.txt	LTP141	ltpFR	16	9	1	LETTER	813	n/a	0	1	0.412841796875	0.57763671875	upper	../fonts/amplitud.ttf
1564.646	n/a	WORD	782323	wordpools/wasnorm_wordpool.txt	LTP141	ltpFR	16	9	1	GHETTO	633	n/a	0	1	0.412841796875	0.57763671875	upper	../fonts/amplitud.ttf
1568.644	n/a	WORD	784322	wordpools/wasnorm_wordpool.txt	LTP141	ltpFR	16	9	1	JUG	762	n/a	0	1	0.412841796875	0.57763671875	upper	../fonts/amplitud.ttf
1572.784	n/a	WORD	786392	wordpools/wasnorm_wordpool.txt	LTP141	ltpFR	16	9	0	DIVER	476	n/a	1	0	0.5869140625	0.422607421875	lower	../fonts/zerothre.ttf
1576.86	n/a	WORD	788430	wordpools/wasnorm_wordpool.txt	LTP141	ltpFR	16	9	0	BAY	102	n/a	1	0	0.5869140625	0.422607421875	lower	../fonts/zerothre.ttf
1580.792	n/a	WORD	790396	wordpools/wasnorm_wordpool.txt	LTP141	ltpFR	16	9	0	NEST	945	n/a	0	0	0.5869140625	0.422607421875	lower	../fonts/zerothre.ttf
1584.948	n/a	WORD	792474	wordpools/wasnorm_wordpool.txt	LTP141	ltpFR	16	9	1	COMB	351	n/a	0	1	0.412841796875	0.57763671875	upper	../fonts/amplitud.ttf
1589.08	n/a	WORD	794540	wordpools/wasnorm_wordpool.txt	LTP141	ltpFR	16	9	1	SHACK	1273	n/a	0	1	0.412841796875	0.57763671875	upper	../fonts/amplitud.ttf
1593.212	n/a	WORD	796606	wordpools/wasnorm_wordpool.txt	LTP141	ltpFR	16	9	1	BLUEJAY	141	n/a	1	1	0.412841796875	0.57763671875	upper	../fonts/amplitud.ttf
1597.412	n/a	WORD	798706	wordpools/wasnorm_wordpool.txt	LTP141	ltpFR	16	9	1	BUTCHER	203	n/a	1	1	0.412841796875	0.57763671875	upper	../fonts/amplitud.ttf
1601.25	n/a	WORD	800625	wordpools/wasnorm_wordpool.txt	LTP141	ltpFR	16	9	0	CATTLE	261	n/a	1	0	0.5869140625	0.422607421875	lower	../fonts/zerothre.ttf
1605.192	n/a	WORD	802596	wordpools/wasnorm_wordpool.txt	LTP141	ltpFR	16	9	0	DAISY	435	n/a	0	0	0.5869140625	0.422607421875	lower	../fonts/zerothre.ttf
1609.308	n/a	WORD	804654	wordpools/wasnorm_wordpool.txt	LTP141	ltpFR	16	9	0	DANDELION	438	n/a	0	0	0.5869140625	0.422607421875	lower	../fonts/zerothre.ttf
1613.148	n/a	WORD	806574	wordpools/wasnorm_wordpool.txt	LTP141	ltpFR	16	9	0	LAKE	796	n/a	1	0	0.5869140625	0.422607421875	lower	../fonts/zerothre.ttf
1617.08	n/a	WORD	808540	wordpools/wasnorm_wordpool.txt	LTP141	ltpFR	16	9	0	SCOTCH	1251	n/a	0	0	0.5869140625	0.422607421875	lower	../fonts/zerothre.ttf
1623.07	n/a	REC_START	811535	n/a	LTP141	ltpFR	16	9	n/a	n/a	n/a	n/a	n/a	n/a	n/a	n/a	n/a	n/a
1623.744	n/a	REC_WORD	811872	wordpools/wasnorm_wordpool.txt	LTP141	ltpFR	16	9	0	SCOTCH	1251	n/a	0	n/a	n/a	n/a	n/a	n/a
1625.26	n/a	REC_WORD	812630	wordpools/wasnorm_wordpool.txt	LTP141	ltpFR	16	9	0	LAKE	796	n/a	1	n/a	n/a	n/a	n/a	n/a
1626.802	n/a	REC_WORD	813401	wordpools/wasnorm_wordpool.txt	LTP141	ltpFR	16	9	0	DANDELION	438	n/a	0	n/a	n/a	n/a	n/a	n/a
1649.952	n/a	REC_WORD	824976	wordpools/wasnorm_wordpool.txt	LTP141	ltpFR	16	9	0	DAISY	435	n/a	0	n/a	n/a	n/a	n/a	n/a
1704.554	n/a	WORD	852277	wordpools/wasnorm_wordpool.txt	LTP141	ltpFR	16	10	1	DORM	488	n/a	0	1	0.412841796875	0.57763671875	upper	../fonts/amplitud.ttf
1708.662	n/a	WORD	854331	wordpools/wasnorm_wordpool.txt	LTP141	ltpFR	16	10	1	PARENT	1013	n/a	1	1	0.412841796875	0.57763671875	upper	../fonts/amplitud.ttf
1712.644	n/a	WORD	856322	wordpools/wasnorm_wordpool.txt	LTP141	ltpFR	16	10	0	SHRUB	1299	n/a	1	0	0.5869140625	0.422607421875	lower	../fonts/zerothre.ttf
1716.492	n/a	WORD	858246	wordpools/wasnorm_wordpool.txt	LTP141	ltpFR	16	10	0	THICKET	1455	n/a	1	0	0.5869140625	0.422607421875	lower	../fonts/zerothre.ttf
1720.332	n/a	WORD	860166	wordpools/wasnorm_wordpool.txt	LTP141	ltpFR	16	10	0	MACHINE	852	n/a	1	0	0.5869140625	0.422607421875	lower	../fonts/zerothre.ttf
1724.406	n/a	WORD	862203	wordpools/wasnorm_wordpool.txt	LTP141	ltpFR	16	10	0	REFEREE	1178	n/a	1	0	0.5869140625	0.422607421875	lower	../fonts/zerothre.ttf
1728.238	n/a	WORD	864119	wordpools/wasnorm_wordpool.txt	LTP141	ltpFR	16	10	0	COTTAGE	384	n/a	1	0	0.5869140625	0.422607421875	lower	../fonts/zerothre.ttf
1732.42	n/a	WORD	866210	wordpools/wasnorm_wordpool.txt	LTP141	ltpFR	16	10	1	COMPUTER	359	n/a	0	1	0.412841796875	0.57763671875	upper	../fonts/amplitud.ttf
1736.46	n/a	WORD	868230	wordpools/wasnorm_wordpool.txt	LTP141	ltpFR	16	10	1	SISTER	1312	n/a	1	1	0.412841796875	0.57763671875	upper	../fonts/amplitud.ttf
1740.31	n/a	WORD	870155	wordpools/wasnorm_wordpool.txt	LTP141	ltpFR	16	10	0	COOKBOOK	373	n/a	0	0	0.5869140625	0.422607421875	lower	../fonts/zerothre.ttf
1744.484	n/a	WORD	872242	wordpools/wasnorm_wordpool.txt	LTP141	ltpFR	16	10	0	SINK	1309	n/a	1	0	0.5869140625	0.422607421875	lower	../fonts/zerothre.ttf
1748.558	n/a	WORD	874279	wordpools/wasnorm_wordpool.txt	LTP141	ltpFR	16	10	0	FEATHER	557	n/a	0	0	0.5869140625	0.422607421875	lower	../fonts/zerothre.ttf
1752.756	n/a	WORD	876378	wordpools/wasnorm_wordpool.txt	LTP141	ltpFR	16	10	1	CHICK	296	n/a	1	1	0.412841796875	0.57763671875	upper	../fonts/amplitud.ttf
1756.672	n/a	WORD	878336	wordpools/wasnorm_wordpool.txt	LTP141	ltpFR	16	10	1	QUARTER	1148	n/a	0	1	0.412841796875	0.57763671875	upper	../fonts/amplitud.ttf
1760.644	n/a	WORD	880322	wordpools/wasnorm_wordpool.txt	LTP141	ltpFR	16	10	1	BANKER	84	n/a	1	1	0.412841796875	0.57763671875	upper	../fonts/amplitud.ttf
1764.552	n/a	WORD	882276	wordpools/wasnorm_wordpool.txt	LTP141	ltpFR	16	10	1	MEDAL	885	n/a	0	1	0.412841796875	0.57763671875	upper	../fonts/amplitud.ttf
1770.51	n/a	REC_START	885255	n/a	LTP141	ltpFR	16	10	n/a	n/a	n/a	n/a	n/a	n/a	n/a	n/a	n/a	n/a
1772.31	n/a	REC_WORD	886155	wordpools/wasnorm_wordpool.txt	LTP141	ltpFR	16	10	1	MEDAL	885	n/a	0	n/a	n/a	n/a	n/a	n/a
1774.266	n/a	REC_WORD	887133	wordpools/wasnorm_wordpool.txt	LTP141	ltpFR	16	10	1	BANKER	84	n/a	1	n/a	n/a	n/a	n/a	n/a
1778.48	n/a	REC_WORD	889240	wordpools/wasnorm_wordpool.txt	LTP141	ltpFR	16	10	0	FEATHER	557	n/a	0	n/a	n/a	n/a	n/a	n/a
1785.846	n/a	REC_WORD	892923	wordpools/wasnorm_wordpool.txt	LTP141	ltpFR	16	10	0	COOKBOOK	373	n/a	0	n/a	n/a	n/a	n/a	n/a
1791.708	n/a	REC_WORD	895854	wordpools/wasnorm_wordpool.txt	LTP141	ltpFR	16	10	1	DORM	488	n/a	0	n/a	n/a	n/a	n/a	n/a
1793.494	n/a	REC_WORD	896747	wordpools/wasnorm_wordpool.txt	LTP141	ltpFR	16	10	1	PARENT	1013	n/a	1	n/a	n/a	n/a	n/a	n/a
1848.902	n/a	WORD	924451	wordpools/wasnorm_wordpool.txt	LTP141	ltpFR	16	11	0	SUNRISE	1407	n/a	1	0	0.5869140625	0.422607421875	lower	../fonts/zerothre.ttf
1853.108	n/a	WORD	926554	wordpools/wasnorm_wordpool.txt	LTP141	ltpFR	16	11	0	GARDEN	623	n/a	1	0	0.5869140625	0.422607421875	lower	../fonts/zerothre.ttf
1857.158	n/a	WORD	928579	wordpools/wasnorm_wordpool.txt	LTP141	ltpFR	16	11	0	RASPBERRY	1168	n/a	0	0	0.5869140625	0.422607421875	lower	../fonts/zerothre.ttf
1861.356	n/a	WORD	930678	wordpools/wasnorm_wordpool.txt	LTP141	ltpFR	16	11	0	PIGMENT	1066	n/a	0	0	0.5869140625	0.422607421875	lower	../fonts/zerothre.ttf
1865.322	n/a	WORD	932661	wordpools/wasnorm_wordpool.txt	LTP141	ltpFR	16	11	0	TEAM	1441	n/a	1	0	0.5869140625	0.422607421875	lower	../fonts/zerothre.ttf
1869.17	n/a	WORD	934585	wordpools/wasnorm_wordpool.txt	LTP141	ltpFR	16	11	0	NOOSE	956	n/a	0	0	0.5869140625	0.422607421875	lower	../fonts/zerothre.ttf
1873.26	n/a	WORD	936630	wordpools/wasnorm_wordpool.txt	LTP141	ltpFR	16	11	0	LACE	792	n/a	0	0	0.5869140625	0.422607421875	lower	../fonts/zerothre.ttf
1877.21	n/a	WORD	938605	wordpools/wasnorm_wordpool.txt	LTP141	ltpFR	16	11	0	HAMPER	682	n/a	1	0	0.5869140625	0.422607421875	lower	../fonts/zerothre.ttf
1881.184	n/a	WORD	940592	wordpools/wasnorm_wordpool.txt	LTP141	ltpFR	16	11	0	MAGICIAN	854	n/a	1	0	0.5869140625	0.422607421875	lower	../fonts/zerothre.ttf
1885.008	n/a	WORD	942504	wordpools/wasnorm_wordpool.txt	LTP141	ltpFR	16	11	0	HARE	688	n/a	0	0	0.5869140625	0.422607421875	lower	../fonts/zerothre.ttf
1889.04	n/a	WORD	944520	wordpools/wasnorm_wordpool.txt	LTP141	ltpFR	16	11	0	SUNSET	1408	n/a	1	0	0.5869140625	0.422607421875	lower	../fonts/zerothre.ttf
1893.098	n/a	WORD	946549	wordpools/wasnorm_wordpool.txt	LTP141	ltpFR	16	11	0	BRAN	167	n/a	0	0	0.5869140625	0.422607421875	lower	../fonts/zerothre.ttf
1897.004	n/a	WORD	948502	wordpools/wasnorm_wordpool.txt	LTP141	ltpFR	16	11	0	SKIN	1318	n/a	0	0	0.5869140625	0.422607421875	lower	../fonts/zerothre.ttf
1900.986	n/a	WORD	950493	wordpools/wasnorm_wordpool.txt	LTP141	ltpFR	16	11	0	SCROLL	1257	n/a	0	0	0.5869140625	0.422607421875	lower	../fonts/zerothre.ttf
1904.918	n/a	WORD	952459	wordpools/wasnorm_wordpool.txt	LTP141	ltpFR	16	11	0	STAPLER	1372	n/a	0	0	0.5869140625	0.422607421875	lower	../fonts/zerothre.ttf
1909.084	n/a	WORD	954542	wordpools/wasnorm_wordpool.txt	LTP141	ltpFR	16	11	0	SOCKET	1340	n/a	0	0	0.5869140625	0.422607421875	lower	../fonts/zerothre.ttf
1914.766	n/a	REC_START	957383	n/a	LTP141	ltpFR	16	11	n/a	n/a	n/a	n/a	n/a	n/a	n/a	n/a	n/a	n/a
1915.664	n/a	REC_WORD	957832	wordpools/wasnorm_wordpool.txt	LTP141	ltpFR	16	11	0	SOCKET	1340	n/a	0	n/a	n/a	n/a	n/a	n/a
1917.042	n/a	REC_WORD	958521	wordpools/wasnorm_wordpool.txt	LTP141	ltpFR	16	11	0	STAPLER	1372	n/a	0	n/a	n/a	n/a	n/a	n/a
1919.072	n/a	REC_WORD	959536	wordpools/wasnorm_wordpool.txt	LTP141	ltpFR	16	11	0	RASPBERRY	1168	n/a	0	n/a	n/a	n/a	n/a	n/a
1921.202	n/a	REC_WORD	960601	wordpools/wasnorm_wordpool.txt	LTP141	ltpFR	16	11	0	GARDEN	623	n/a	1	n/a	n/a	n/a	n/a	n/a
1923.102	n/a	REC_WORD	961551	wordpools/wasnorm_wordpool.txt	LTP141	ltpFR	16	11	0	SUNRISE	1407	n/a	1	n/a	n/a	n/a	n/a	n/a
1924.708	n/a	REC_WORD	962354	wordpools/wasnorm_wordpool.txt	LTP141	ltpFR	16	11	0	SUNSET	1408	n/a	1	n/a	n/a	n/a	n/a	n/a
1995.99	n/a	WORD	997995	wordpools/wasnorm_wordpool.txt	LTP141	ltpFR	16	12	0	CART	250	n/a	1	0	0.5869140625	0.422607421875	lower	../fonts/zerothre.ttf
2000.198	n/a	WORD	1000099	wordpools/wasnorm_wordpool.txt	LTP141	ltpFR	16	12	0	ANTEATER	26	n/a	1	0	0.5869140625	0.422607421875	lower	../fonts/zerothre.ttf
2004.172	n/a	WORD	1002086	wordpools/wasnorm_wordpool.txt	LTP141	ltpFR	16	12	0	LAGOON	795	n/a	1	0	0.5869140625	0.422607421875	lower	../fonts/zerothre.ttf
2008.278	n/a	WORD	1004139	wordpools/wasnorm_wordpool.txt	LTP141	ltpFR	16	12	0	KID	775	n/a	1	0	0.5869140625	0.422607421875	lower	../fonts/zerothre.ttf
2012.486	n/a	WORD	1006243	wordpools/wasnorm_wordpool.txt	LTP141	ltpFR	16	12	0	CAB	209	n/a	1	0	0.5869140625	0.422607421875	lower	../fonts/zerothre.ttf
2016.642	n/a	WORD	1008321	wordpools/wasnorm_wordpool.txt	LTP141	ltpFR	16	12	0	FORT	595	n/a	1	0	0.5869140625	0.422607421875	lower	../fonts/zerothre.ttf
2020.492	n/a	WORD	1010246	wordpools/wasnorm_wordpool.txt	LTP141	ltpFR	16	12	0	ARMY	39	n/a	1	0	0.5869140625	0.422607421875	lower	../fonts/zerothre.ttf
2024.458	n/a	WORD	1012229	wordpools/wasnorm_wordpool.txt	LTP141	ltpFR	16	12	0	RECEIPT	1173	n/a	0	0	0.5869140625	0.422607421875	lower	../fonts/zerothre.ttf
2028.498	n/a	WORD	1014249	wordpools/wasnorm_wordpool.txt	LTP141	ltpFR	16	12	0	VAN	1548	n/a	1	0	0.5869140625	0.422607421875	lower	../fonts/zerothre.ttf
2032.43	n/a	WORD	1016215	wordpools/wasnorm_wordpool.txt	LTP141	ltpFR	16	12	0	BLACKBERRY	132	n/a	0	0	0.5869140625	0.422607421875	lower	../fonts/zerothre.ttf
2036.386	n/a	WORD	1018193	wordpools/wasnorm_wordpool.txt	LTP141	ltpFR	16	12	0	MUSHROOM	934	n/a	0	0	0.5869140625	0.422607421875	lower	../fonts/zerothre.ttf
2040.586	n/a	WORD	1020293	wordpools/wasnorm_wordpool.txt	LTP141	ltpFR	16	12	0	FUNGUS	614	n/a	0	0	0.5869140625	0.422607421875	lower	../fonts/zerothre.ttf
2044.768	n/a	WORD	1022384	wordpools/wasnorm_wordpool.txt	LTP141	ltpFR	16	12	0	PICKLE	1059	n/a	0	0	0.5869140625	0.422607421875	lower	../fonts/zerothre.ttf
2048.584	n/a	WORD	1024292	wordpools/wasnorm_wordpool.txt	LTP141	ltpFR	16	12	0	PRUNE	1134	n/a	0	0	0.5869140625	0.422607421875	lower	../fonts/zerothre.ttf
2052.69	n/a	WORD	1026345	wordpools/wasnorm_wordpool.txt	LTP141	ltpFR	16	12	0	TOY	1492	n/a	0	0	0.5869140625	0.422607421875	lower	../fonts/zerothre.ttf
2056.672	n/a	WORD	1028336	wordpools/wasnorm_wordpool.txt	LTP141	ltpFR	16	12	0	HAND	683	n/a	0	0	0.5869140625	0.422607421875	lower	../fonts/zerothre.ttf
2062.296	n/a	REC_START	1031148	n/a	LTP141	ltpFR	16	12	n/a	n/a	n/a	n/a	n/a	n/a	n/a	n/a	n/a	n/a
2062.99	n/a	REC_WORD	1031495	wordpools/wasnorm_wordpool.txt	LTP141	ltpFR	16	12	0	HAND	683	n/a	0	n/a	n/a	n/a	n/a	n/a
2064.65	n/a	REC_WORD	1032325	wordpools/wasnorm_wordpool.txt	LTP141	ltpFR	16	12	0	TOY	1492	n/a	0	n/a	n/a	n/a	n/a	n/a
2066.376	n/a	REC_WORD	1033188	wordpools/wasnorm_wordpool.txt	LTP141	ltpFR	16	12	0	BLACKBERRY	132	n/a	0	n/a	n/a	n/a	n/a	n/a
2069.86	n/a	REC_WORD	1034930	wordpools/wasnorm_wordpool.txt	LTP141	ltpFR	16	12	0	MUSHROOM	934	n/a	0	n/a	n/a	n/a	n/a	n/a
2071.266	n/a	REC_WORD	1035633	wordpools/wasnorm_wordpool.txt	LTP141	ltpFR	16	12	0	FUNGUS	614	n/a	0	n/a	n/a	n/a	n/a	n/a
2074.324	n/a	REC_WORD	1037162	wordpools/wasnorm_wordpool.txt	LTP141	ltpFR	16	12	0	CART	250	n/a	1	n/a	n/a	n/a	n/a	n/a
2076.006	n/a	REC_WORD	1038003	wordpools/wasnorm_wordpool.txt	LTP141	ltpFR	16	12	0	CAB	209	n/a	1	n/a	n/a	n/a	n/a	n/a
2078.524	n/a	REC_WORD	1039262	wordpools/wasnorm_wordpool.txt	LTP141	ltpFR	16	12	0	KID	775	n/a	1	n/a	n/a	n/a	n/a	n/a
2109.356	n/a	REC_WORD	1054678	wordpools/wasnorm_wordpool.txt	LTP141	ltpFR	16	12	0	ANTEATER	26	n/a	1	n/a	n/a	n/a	n/a	n/a
2112.844	n/a	REC_WORD	1056422	wordpools/wasnorm_wordpool.txt	LTP141	ltpFR	16	12	0	LAGOON	795	n/a	1	n/a	n/a	n/a	n/a	n/a
2137.89	n/a	REST_REWET	1068945	n/a	LTP141	ltpFR	16	12	n/a	n/a	n/a	n/a	n/a	n/a	n/a	n/a	n/a	n/a
2470.938	n/a	WORD	1235469	wordpools/wasnorm_wordpool.txt	LTP141	ltpFR	16	13	-1	DIRT	472	n/a	-1	1	1.0	1.0	upper	../fonts/Verdana.ttf
2474.972	n/a	WORD	1237486	wordpools/wasnorm_wordpool.txt	LTP141	ltpFR	16	13	-1	NIECE	952	n/a	-1	1	1.0	1.0	upper	../fonts/Verdana.ttf
2478.896	n/a	WORD	1239448	wordpools/wasnorm_wordpool.txt	LTP141	ltpFR	16	13	-1	TANGERINE	1431	n/a	-1	1	1.0	1.0	upper	../fonts/Verdana.ttf
2483.094	n/a	WORD	1241547	wordpools/wasnorm_wordpool.txt	LTP141	ltpFR	16	13	-1	COW	393	n/a	-1	1	1.0	1.0	upper	../fonts/Verdana.ttf
2487.282	n/a	WORD	1243641	wordpools/wasnorm_wordpool.txt	LTP141	ltpFR	16	13	-1	EARTH	515	n/a	-1	1	1.0	1.0	upper	../fonts/Verdana.ttf
2491.384	n/a	WORD	1245692	wordpools/wasnorm_wordpool.txt	LTP141	ltpFR	16	13	-1	CARROT	249	n/a	-1	1	1.0	1.0	upper	../fonts/Verdana.ttf
2495.332	n/a	WORD	1247666	wordpools/wasnorm_wordpool.txt	LTP141	ltpFR	16	13	-1	DUST	508	n/a	-1	1	1.0	1.0	upper	../fonts/Verdana.ttf
2499.348	n/a	WORD	1249674	wordpools/wasnorm_wordpool.txt	LTP141	ltpFR	16	13	-1	OATS	968	n/a	-1	1	1.0	1.0	upper	../fonts/Verdana.ttf
2503.454	n/a	WORD	1251727	wordpools/wasnorm_wordpool.txt	LTP141	ltpFR	16	13	-1	LUMBER	848	n/a	-1	1	1.0	1.0	upper	../fonts/Verdana.ttf
2507.502	n/a	WORD	1253751	wordpools/wasnorm_wordpool.txt	LTP141	ltpFR	16	13	-1	ACORN	3	n/a	-1	1	1.0	1.0	upper	../fonts/Verdana.ttf
2511.328	n/a	WORD	1255664	wordpools/wasnorm_wordpool.txt	LTP141	ltpFR	16	13	-1	MATTRESS	879	n/a	-1	1	1.0	1.0	upper	../fonts/Verdana.ttf
2515.534	n/a	WORD	1257767	wordpools/wasnorm_wordpool.txt	LTP141	ltpFR	16	13	-1	APARTMENT	30	n/a	-1	1	1.0	1.0	upper	../fonts/Verdana.ttf
2519.608	n/a	WORD	1259804	wordpools/wasnorm_wordpool.txt	LTP141	ltpFR	16	13	-1	GAUZE	626	n/a	-1	1	1.0	1.0	upper	../fonts/Verdana.ttf
2523.64	n/a	WORD	1261820	wordpools/wasnorm_wordpool.txt	LTP141	ltpFR	16	13	-1	LOBBY	836	n/a	-1	1	1.0	1.0	upper	../fonts/Verdana.ttf
2527.804	n/a	WORD	1263902	wordpools/wasnorm_wordpool.txt	LTP141	ltpFR	16	13	-1	COOK	372	n/a	-1	1	1.0	1.0	upper	../fonts/Verdana.ttf
2531.888	n/a	WORD	1265944	wordpools/wasnorm_wordpool.txt	LTP141	ltpFR	16	13	-1	KITCHEN	778	n/a	-1	1	1.0	1.0	upper	../fonts/Verdana.ttf
2537.962	n/a	REC_START	1268981	n/a	LTP141	ltpFR	16	13	n/a	n/a	n/a	n/a	n/a	n/a	n/a	n/a	n/a	n/a
2538.784	n/a	REC_WORD	1269392	wordpools/wasnorm_wordpool.txt	LTP141	ltpFR	16	13	-1	LOBBY	836	n/a	-1	n/a	n/a	n/a	n/a	n/a
2540.006	n/a	REC_WORD	1270003	wordpools/wasnorm_wordpool.txt	LTP141	ltpFR	16	13	-1	COOK	372	n/a	-1	n/a	n/a	n/a	n/a	n/a
2541.294	n/a	REC_WORD	1270647	wordpools/wasnorm_wordpool.txt	LTP141	ltpFR	16	13	-1	KITCHEN	778	n/a	-1	n/a	n/a	n/a	n/a	n/a
2542.82	n/a	REC_WORD	1271410	wordpools/wasnorm_wordpool.txt	LTP141	ltpFR	16	13	-1	DIRT	472	n/a	-1	n/a	n/a	n/a	n/a	n/a
2544.312	n/a	REC_WORD	1272156	wordpools/wasnorm_wordpool.txt	LTP141	ltpFR	16	13	-1	EARTH	515	n/a	-1	n/a	n/a	n/a	n/a	n/a
2545.778	n/a	REC_WORD	1272889	wordpools/wasnorm_wordpool.txt	LTP141	ltpFR	16	13	-1	TANGERINE	1431	n/a	-1	n/a	n/a	n/a	n/a	n/a
2547.52	n/a	REC_WORD	1273760	wordpools/wasnorm_wordpool.txt	LTP141	ltpFR	16	13	-1	CARROT	249	n/a	-1	n/a	n/a	n/a	n/a	n/a
2617.204	n/a	WORD	1308602	wordpools/wasnorm_wordpool.txt	LTP141	ltpFR	16	14	1	ELM	527	n/a	0	1	0.412841796875	0.57763671875	upper	../fonts/amplitud.ttf
2621.252	n/a	WORD	1310626	wordpools/wasnorm_wordpool.txt	LTP141	ltpFR	16	14	1	BRANCH	168	n/a	1	1	0.412841796875	0.57763671875	upper	../fonts/amplitud.ttf
2625.068	n/a	WORD	1312534	wordpools/wasnorm_wordpool.txt	LTP141	ltpFR	16	14	1	POT	1114	n/a	0	1	0.412841796875	0.57763671875	upper	../fonts/amplitud.ttf
2629.092	n/a	WORD	1314546	wordpools/wasnorm_wordpool.txt	LTP141	ltpFR	16	14	1	DEODORANT	448	n/a	0	1	0.412841796875	0.57763671875	upper	../fonts/amplitud.ttf
2632.956	n/a	WORD	1316478	wordpools/wasnorm_wordpool.txt	LTP141	ltpFR	16	14	1	OPERA	978	n/a	0	1	0.412841796875	0.57763671875	upper	../fonts/amplitud.ttf
2636.964	n/a	WORD	1318482	wordpools/wasnorm_wordpool.txt	LTP141	ltpFR	16	14	1	RAILROAD	1162	n/a	0	1	0.412841796875	0.57763671875	upper	../fonts/amplitud.ttf
2641.046	n/a	WORD	1320523	wordpools/wasnorm_wordpool.txt	LTP141	ltpFR	16	14	1	BUNNY	198	n/a	1	1	0.412841796875	0.57763671875	upper	../fonts/amplitud.ttf
2645.178	n/a	WORD	1322589	wordpools/wasnorm_wordpool.txt	LTP141	ltpFR	16	14	1	LABEL	790	n/a	0	1	0.412841796875	0.57763671875	upper	../fonts/amplitud.ttf
2649.3	n/a	WORD	1324650	wordpools/wasnorm_wordpool.txt	LTP141	ltpFR	16	14	1	CONDUCTOR	362	n/a	1	1	0.412841796875	0.57763671875	upper	../fonts/amplitud.ttf
2653.3	n/a	WORD	1326650	wordpools/wasnorm_wordpool.txt	LTP141	ltpFR	16	14	1	MAT	877	n/a	0	1	0.412841796875	0.57763671875	upper	../fonts/amplitud.ttf
2657.358	n/a	WORD	1328679	wordpools/wasnorm_wordpool.txt	LTP141	ltpFR	16	14	1	TURNIP	1521	n/a	1	1	0.412841796875	0.57763671875	upper	../fonts/amplitud.ttf
2661.416	n/a	WORD	1330708	wordpools/wasnorm_wordpool.txt	LTP141	ltpFR	16	14	1	RECORD	1176	n/a	0	1	0.412841796875	0.57763671875	upper	../fonts/amplitud.ttf
2665.614	n/a	WORD	1332807	wordpools/wasnorm_wordpool.txt	LTP141	ltpFR	16	14	1	MINT	898	n/a	0	1	0.412841796875	0.57763671875	upper	../fonts/amplitud.ttf
2669.78	n/a	WORD	1334890	wordpools/wasnorm_wordpool.txt	LTP141	ltpFR	16	14	1	SHOP	1290	n/a	0	1	0.412841796875	0.57763671875	upper	../fonts/amplitud.ttf
2673.77	n/a	WORD	1336885	wordpools/wasnorm_wordpool.txt	LTP141	ltpFR	16	14	1	FOX	598	n/a	1	1	0.412841796875	0.57763671875	upper	../fonts/amplitud.ttf
2677.878	n/a	WORD	1338939	wordpools/wasnorm_wordpool.txt	LTP141	ltpFR	16	14	1	WALRUS	1585	n/a	1	1	0.412841796875	0.57763671875	upper	../fonts/amplitud.ttf
2683.542	n/a	REC_START	1341771	n/a	LTP141	ltpFR	16	14	n/a	n/a	n/a	n/a	n/a	n/a	n/a	n/a	n/a	n/a
2684.61	n/a	REC_WORD	1342305	wordpools/wasnorm_wordpool.txt	LTP141	ltpFR	16	14	1	FOX	598	n/a	1	n/a	n/a	n/a	n/a	n/a
2685.962	n/a	REC_WORD	1342981	wordpools/wasnorm_wordpool.txt	LTP141	ltpFR	16	14	1	WALRUS	1585	n/a	1	n/a	n/a	n/a	n/a	n/a
2687.398	n/a	REC_WORD	1343699	wordpools/wasnorm_wordpool.txt	LTP141	ltpFR	16	14	1	CONDUCTOR	362	n/a	1	n/a	n/a	n/a	n/a	n/a
2689.134	n/a	REC_WORD	1344567	wordpools/wasnorm_wordpool.txt	LTP141	ltpFR	16	14	1	RAILROAD	1162	n/a	0	n/a	n/a	n/a	n/a	n/a
2696.538	n/a	REC_WORD	1348269	wordpools/wasnorm_wordpool.txt	LTP141	ltpFR	16	14	1	ELM	527	n/a	0	n/a	n/a	n/a	n/a	n/a
2697.906	n/a	REC_WORD	1348953	wordpools/wasnorm_wordpool.txt	LTP141	ltpFR	16	14	1	BRANCH	168	n/a	1	n/a	n/a	n/a	n/a	n/a
2699.378	n/a	REC_WORD	1349689	wordpools/wasnorm_wordpool.txt	LTP141	ltpFR	16	14	1	POT	1114	n/a	0	n/a	n/a	n/a	n/a	n/a
2706.012	n/a	REC_WORD	1353006	wordpools/wasnorm_wordpool.txt	LTP141	ltpFR	16	14	1	TURNIP	1521	n/a	1	n/a	n/a	n/a	n/a	n/a
2762.418	n/a	WORD	1381209	wordpools/wasnorm_wordpool.txt	LTP141	ltpFR	16	15	0	FARM	552	n/a	1	0	0.5869140625	0.422607421875	lower	../fonts/zerothre.ttf
2766.242	n/a	WORD	1383121	wordpools/wasnorm_wordpool.txt	LTP141	ltpFR	16	15	0	ENGINE	535	n/a	1	0	0.5869140625	0.422607421875	lower	../fonts/zerothre.ttf
2770.256	n/a	WORD	1385128	wordpools/wasnorm_wordpool.txt	LTP141	ltpFR	16	15	0	WHISKERS	1605	n/a	0	0	0.5869140625	0.422607421875	lower	../fonts/zerothre.ttf
2774.156	n/a	WORD	1387078	wordpools/wasnorm_wordpool.txt	LTP141	ltpFR	16	15	0	FACTORY	548	n/a	1	0	0.5869140625	0.422607421875	lower	../fonts/zerothre.ttf
2778.288	n/a	WORD	1389144	wordpools/wasnorm_wordpool.txt	LTP141	ltpFR	16	15	1	TOOL	1480	n/a	0	1	0.412841796875	0.57763671875	upper	../fonts/amplitud.ttf
2782.428	n/a	WORD	1391214	wordpools/wasnorm_wordpool.txt	LTP141	ltpFR	16	15	1	SKETCH	1315	n/a	0	1	0.412841796875	0.57763671875	upper	../fonts/amplitud.ttf
2786.494	n/a	WORD	1393247	wordpools/wasnorm_wordpool.txt	LTP141	ltpFR	16	15	1	MERMAID	887	n/a	1	1	0.412841796875	0.57763671875	upper	../fonts/amplitud.ttf
2790.568	n/a	WORD	1395284	wordpools/wasnorm_wordpool.txt	LTP141	ltpFR	16	15	1	BIOLOGIST	128	n/a	1	1	0.412841796875	0.57763671875	upper	../fonts/amplitud.ttf
2794.408	n/a	WORD	1397204	wordpools/wasnorm_wordpool.txt	LTP141	ltpFR	16	15	0	FLIPPER	580	n/a	0	0	0.5869140625	0.422607421875	lower	../fonts/zerothre.ttf
2798.432	n/a	WORD	1399216	wordpools/wasnorm_wordpool.txt	LTP141	ltpFR	16	15	0	PAINT	1003	n/a	0	0	0.5869140625	0.422607421875	lower	../fonts/zerothre.ttf
2802.614	n/a	WORD	1401307	wordpools/wasnorm_wordpool.txt	LTP141	ltpFR	16	15	0	LOBSTER	837	n/a	0	0	0.5869140625	0.422607421875	lower	../fonts/zerothre.ttf
2806.77	n/a	WORD	1403385	wordpools/wasnorm_wordpool.txt	LTP141	ltpFR	16	15	0	WHALE	1601	n/a	1	0	0.5869140625	0.422607421875	lower	../fonts/zerothre.ttf
2810.796	n/a	WORD	1405398	wordpools/wasnorm_wordpool.txt	LTP141	ltpFR	16	15	1	MICROSCOPE	891	n/a	0	1	0.412841796875	0.57763671875	upper	../fonts/amplitud.ttf
2814.728	n/a	WORD	1407364	wordpools/wasnorm_wordpool.txt	LTP141	ltpFR	16	15	1	COBBLER	335	n/a	0	1	0.412841796875	0.57763671875	upper	../fonts/amplitud.ttf
2818.66	n/a	WORD	1409330	wordpools/wasnorm_wordpool.txt	LTP141	ltpFR	16	15	1	CANAL	226	n/a	0	1	0.412841796875	0.57763671875	upper	../fonts/amplitud.ttf
2822.516	n/a	WORD	1411258	wordpools/wasnorm_wordpool.txt	LTP141	ltpFR	16	15	1	STREAM	1392	n/a	0	1	0.412841796875	0.57763671875	upper	../fonts/amplitud.ttf
2828.314	n/a	REC_START	1414157	n/a	LTP141	ltpFR	16	15	n/a	n/a	n/a	n/a	n/a	n/a	n/a	n/a	n/a	n/a
2829.072	n/a	REC_WORD	1414536	wordpools/wasnorm_wordpool.txt	LTP141	ltpFR	16	15	1	CANAL	226	n/a	0	n/a	n/a	n/a	n/a	n/a
2830.12	n/a	REC_WORD	1415060	wordpools/wasnorm_wordpool.txt	LTP141	ltpFR	16	15	1	STREAM	1392	n/a	0	n/a	n/a	n/a	n/a	n/a
2831.756	n/a	REC_WORD	1415878	wordpools/wasnorm_wordpool.txt	LTP141	ltpFR	16	15	n/a	TEETH	-1	n/a	n/a	n/a	n/a	n/a	n/a	n/a
2834.266	n/a	REC_WORD	1417133	wordpools/wasnorm_wordpool.txt	LTP141	ltpFR	16	15	0	WHISKERS	1605	n/a	0	n/a	n/a	n/a	n/a	n/a
2835.372	n/a	REC_WORD	1417686	wordpools/wasnorm_wordpool.txt	LTP141	ltpFR	16	15	0	FLIPPER	580	n/a	0	n/a	n/a	n/a	n/a	n/a
2837.284	n/a	REC_WORD	1418642	wordpools/wasnorm_wordpool.txt	LTP141	ltpFR	16	15	0	LOBSTER	837	n/a	0	n/a	n/a	n/a	n/a	n/a
2843.086	n/a	REC_WORD	1421543	wordpools/wasnorm_wordpool.txt	LTP141	ltpFR	16	15	1	BIOLOGIST	128	n/a	1	n/a	n/a	n/a	n/a	n/a
2856.73	n/a	REC_WORD	1428365	wordpools/wasnorm_wordpool.txt	LTP141	ltpFR	16	15	1	TOOL	1480	n/a	0	n/a	n/a	n/a	n/a	n/a
2860.576	n/a	REC_WORD	1430288	wordpools/wasnorm_wordpool.txt	LTP141	ltpFR	16	15	0	ENGINE	535	n/a	1	n/a	n/a	n/a	n/a	n/a
2861.734	n/a	REC_WORD	1430867	wordpools/wasnorm_wordpool.txt	LTP141	ltpFR	16	15	0	FACTORY	548	n/a	1	n/a	n/a	n/a	n/a	n/a
2863.23	n/a	REC_WORD	1431615	wordpools/wasnorm_wordpool.txt	LTP141	ltpFR	16	15	0	FARM	552	n/a	1	n/a	n/a	n/a	n/a	n/a
2906.382	n/a	WORD	1453191	wordpools/wasnorm_wordpool.txt	LTP141	ltpFR	16	16	1	MOSQUITO	917	n/a	1	1	0.412841796875	0.57763671875	upper	../fonts/amplitud.ttf
2910.24	n/a	WORD	1455120	wordpools/wasnorm_wordpool.txt	LTP141	ltpFR	16	16	1	GLUE	643	n/a	0	1	0.412841796875	0.57763671875	upper	../fonts/amplitud.ttf
2914.312	n/a	WORD	1457156	wordpools/wasnorm_wordpool.txt	LTP141	ltpFR	16	16	1	ZOO	1637	n/a	0	1	0.412841796875	0.57763671875	upper	../fonts/amplitud.ttf
2918.486	n/a	WORD	1459243	wordpools/wasnorm_wordpool.txt	LTP141	ltpFR	16	16	1	POSSUM	1112	n/a	1	1	0.412841796875	0.57763671875	upper	../fonts/amplitud.ttf
2922.328	n/a	WORD	1461164	wordpools/wasnorm_wordpool.txt	LTP141	ltpFR	16	16	1	DART	440	n/a	0	1	0.412841796875	0.57763671875	upper	../fonts/amplitud.ttf
2926.286	n/a	WORD	1463143	wordpools/wasnorm_wordpool.txt	LTP141	ltpFR	16	16	1	SWITCH	1422	n/a	0	1	0.412841796875	0.57763671875	upper	../fonts/amplitud.ttf
2930.15	n/a	WORD	1465075	wordpools/wasnorm_wordpool.txt	LTP141	ltpFR	16	16	1	CIRCUS	311	n/a	0	1	0.412841796875	0.57763671875	upper	../fonts/amplitud.ttf
2934.314	n/a	WORD	1467157	wordpools/wasnorm_wordpool.txt	LTP141	ltpFR	16	16	1	BLOUSE	139	n/a	0	1	0.412841796875	0.57763671875	upper	../fonts/amplitud.ttf
2938.14	n/a	WORD	1469070	wordpools/wasnorm_wordpool.txt	LTP141	ltpFR	16	16	1	ZIPPER	1636	n/a	0	1	0.412841796875	0.57763671875	upper	../fonts/amplitud.ttf
2942.03	n/a	WORD	1471015	wordpools/wasnorm_wordpool.txt	LTP141	ltpFR	16	16	1	CUFF	423	n/a	0	1	0.412841796875	0.57763671875	upper	../fonts/amplitud.ttf
2945.912	n/a	WORD	1472956	wordpools/wasnorm_wordpool.txt	LTP141	ltpFR	16	16	1	BUTTERFLY	206	n/a	1	1	0.412841796875	0.57763671875	upper	../fonts/amplitud.ttf
2949.912	n/a	WORD	1474956	wordpools/wasnorm_wordpool.txt	LTP141	ltpFR	16	16	1	MOTH	920	n/a	0	1	0.412841796875	0.57763671875	upper	../fonts/amplitud.ttf
2954.052	n/a	WORD	1477026	wordpools/wasnorm_wordpool.txt	LTP141	ltpFR	16	16	1	DRESS	495	n/a	0	1	0.412841796875	0.57763671875	upper	../fonts/amplitud.ttf
2957.924	n/a	WORD	1478962	wordpools/wasnorm_wordpool.txt	LTP141	ltpFR	16	16	1	ROBIN	1199	n/a	1	1	0.412841796875	0.57763671875	upper	../fonts/amplitud.ttf
2961.832	n/a	WORD	1480916	wordpools/wasnorm_wordpool.txt	LTP141	ltpFR	16	16	1	TOOTHBRUSH	1482	n/a	0	1	0.412841796875	0.57763671875	upper	../fonts/amplitud.ttf
2965.874	n/a	WORD	1482937	wordpools/wasnorm_wordpool.txt	LTP141	ltpFR	16	16	1	ALLIGATOR	16	n/a	1	1	0.412841796875	0.57763671875	upper	../fonts/amplitud.ttf
2971.756	n/a	REC_START	1485878	n/a	LTP141	ltpFR	16	16	n/a	n/a	n/a	n/a	n/a	n/a	n/a	n/a	n/a	n/a
2973.362	n/a	REC_WORD	1486681	wordpools/wasnorm_wordpool.txt	LTP141	ltpFR	16	16	1	ALLIGATOR	16	n/a	1	n/a	n/a	n/a	n/a	n/a
2975.048	n/a	REC_WORD	1487524	wordpools/wasnorm_wordpool.txt	LTP141	ltpFR	16	16	1	MOTH	920	n/a	0	n/a	n/a	n/a	n/a	n/a
2976.51	n/a	REC_WORD	1488255	wordpools/wasnorm_wordpool.txt	LTP141	ltpFR	16	16	1	ZOO	1637	n/a	0	n/a	n/a	n/a	n/a	n/a
2978.312	n/a	REC_WORD	1489156	wordpools/wasnorm_wordpool.txt	LTP141	ltpFR	16	16	1	ZIPPER	1636	n/a	0	n/a	n/a	n/a	n/a	n/a
2981.484	n/a	REC_WORD	1490742	wordpools/wasnorm_wordpool.txt	LTP141	ltpFR	16	16	1	BLOUSE	139	n/a	0	n/a	n/a	n/a	n/a	n/a
2983.0	n/a	REC_WORD	1491500	wordpools/wasnorm_wordpool.txt	LTP141	ltpFR	16	16	n/a	COUGH	-1	n/a	n/a	n/a	n/a	n/a	n/a	n/a
2997.788	n/a	REC_WORD	1498894	wordpools/wasnorm_wordpool.txt	LTP141	ltpFR	16	16	1	ROBIN	1199	n/a	1	n/a	n/a	n/a	n/a	n/a
3067.244	n/a	REC_START	1533622	n/a	LTP141	ltpFR	16	1	n/a	n/a	n/a	n/a	n/a	n/a	n/a	n/a	n/a	n/a
3067.276	n/a	RECOG_LURE	1533638	n/a	LTP141	ltpFR	16	1	n/a	BEET	115	3	n/a	n/a	n/a	n/a	n/a	n/a
3069.216	n/a	RECOG_RESP	1534608	n/a	LTP141	ltpFR	16	1	n/a	BEET	115	n/a	n/a	n/a	n/a	n/a	n/a	n/a
3070.494	n/a	RECOG_CONF	1535247	n/a	LTP141	ltpFR	16	1	n/a	BEET	115	3	n/a	n/a	n/a	n/a	n/a	n/a
3072.082	n/a	RECOG_TARGET	1536041	n/a	LTP141	ltpFR	16	1	-1	LINT	826	5	-1	n/a	n/a	n/a	n/a	n/a
3072.806	n/a	RECOG_RESP	1536403	n/a	LTP141	ltpFR	16	1	-1	LINT	826	n/a	-1	n/a	n/a	n/a	n/a	n/a
3073.794	n/a	RECOG_CONF	1536897	n/a	LTP141	ltpFR	16	1	-1	LINT	826	5	-1	n/a	n/a	n/a	n/a	n/a
3075.322	n/a	RECOG_TARGET	1537661	n/a	LTP141	ltpFR	16	1	1	COMB	351	5	0	n/a	n/a	n/a	n/a	n/a
3075.94	n/a	RECOG_RESP	1537970	n/a	LTP141	ltpFR	16	1	1	COMB	351	n/a	0	n/a	n/a	n/a	n/a	n/a
3076.808	n/a	RECOG_CONF	1538404	n/a	LTP141	ltpFR	16	1	1	COMB	351	5	0	n/a	n/a	n/a	n/a	n/a
3078.164	n/a	RECOG_TARGET	1539082	n/a	LTP141	ltpFR	16	1	0	TAPE	1433	5	0	n/a	n/a	n/a	n/a	n/a
3078.774	n/a	RECOG_RESP	1539387	n/a	LTP141	ltpFR	16	1	0	TAPE	1433	n/a	0	n/a	n/a	n/a	n/a	n/a
3079.488	n/a	RECOG_CONF	1539744	n/a	LTP141	ltpFR	16	1	0	TAPE	1433	5	0	n/a	n/a	n/a	n/a	n/a
3080.854	n/a	RECOG_TARGET	1540427	n/a	LTP141	ltpFR	16	1	1	ZIPPER	1636	5	0	n/a	n/a	n/a	n/a	n/a
3081.448	n/a	RECOG_RESP	1540724	n/a	LTP141	ltpFR	16	1	1	ZIPPER	1636	n/a	0	n/a	n/a	n/a	n/a	n/a
3082.21	n/a	RECOG_CONF	1541105	n/a	LTP141	ltpFR	16	1	1	ZIPPER	1636	5	0	n/a	n/a	n/a	n/a	n/a
3083.654	n/a	RECOG_TARGET	1541827	n/a	LTP141	ltpFR	16	1	0	SOCKET	1340	5	0	n/a	n/a	n/a	n/a	n/a
3084.468	n/a	RECOG_RESP	1542234	n/a	LTP141	ltpFR	16	1	0	SOCKET	1340	n/a	0	n/a	n/a	n/a	n/a	n/a
3085.248	n/a	RECOG_CONF	1542624	n/a	LTP141	ltpFR	16	1	0	SOCKET	1340	5	0	n/a	n/a	n/a	n/a	n/a
3086.544	n/a	RECOG_TARGET	1543272	n/a	LTP141	ltpFR	16	1	1	BEARD	107	4	0	n/a	n/a	n/a	n/a	n/a
3087.344	n/a	RECOG_RESP	1543672	n/a	LTP141	ltpFR	16	1	1	BEARD	107	n/a	0	n/a	n/a	n/a	n/a	n/a
3088.192	n/a	RECOG_CONF	1544096	n/a	LTP141	ltpFR	16	1	1	BEARD	107	4	0	n/a	n/a	n/a	n/a	n/a
3089.528	n/a	RECOG_TARGET	1544764	n/a	LTP141	ltpFR	16	1	1	LETTER	813	4	0	n/a	n/a	n/a	n/a	n/a
3090.144	n/a	RECOG_RESP	1545072	n/a	LTP141	ltpFR	16	1	1	LETTER	813	n/a	0	n/a	n/a	n/a	n/a	n/a
3090.802	n/a	RECOG_CONF	1545401	n/a	LTP141	ltpFR	16	1	1	LETTER	813	4	0	n/a	n/a	n/a	n/a	n/a
3092.286	n/a	RECOG_TARGET	1546143	n/a	LTP141	ltpFR	16	1	0	SCROLL	1257	5	0	n/a	n/a	n/a	n/a	n/a
3092.962	n/a	RECOG_RESP	1546481	n/a	LTP141	ltpFR	16	1	0	SCROLL	1257	n/a	0	n/a	n/a	n/a	n/a	n/a
3093.62	n/a	RECOG_CONF	1546810	n/a	LTP141	ltpFR	16	1	0	SCROLL	1257	5	0	n/a	n/a	n/a	n/a	n/a
3095.084	n/a	RECOG_TARGET	1547542	n/a	LTP141	ltpFR	16	1	-1	DRESSER	496	5	-1	n/a	n/a	n/a	n/a	n/a
3095.604	n/a	RECOG_RESP	1547802	n/a	LTP141	ltpFR	16	1	-1	DRESSER	496	n/a	-1	n/a	n/a	n/a	n/a	n/a
3096.226	n/a	RECOG_CONF	1548113	n/a	LTP141	ltpFR	16	1	-1	DRESSER	496	5	-1	n/a	n/a	n/a	n/a	n/a
3097.666	n/a	RECOG_TARGET	1548833	n/a	LTP141	ltpFR	16	1	0	PAINT	1003	4	0	n/a	n/a	n/a	n/a	n/a
3098.29	n/a	RECOG_RESP	1549145	n/a	LTP141	ltpFR	16	1	0	PAINT	1003	n/a	0	n/a	n/a	n/a	n/a	n/a
3099.026	n/a	RECOG_CONF	1549513	n/a	LTP141	ltpFR	16	1	0	PAINT	1003	4	0	n/a	n/a	n/a	n/a	n/a
3100.632	n/a	RECOG_LURE	1550316	n/a	LTP141	ltpFR	16	1	n/a	TEMPLE	1448	4	n/a	n/a	n/a	n/a	n/a	n/a
3101.424	n/a	RECOG_RESP	1550712	n/a	LTP141	ltpFR	16	1	n/a	TEMPLE	1448	n/a	n/a	n/a	n/a	n/a	n/a	n/a
3102.134	n/a	RECOG_CONF	1551067	n/a	LTP141	ltpFR	16	1	n/a	TEMPLE	1448	4	n/a	n/a	n/a	n/a	n/a	n/a
3103.564	n/a	RECOG_TARGET	1551782	n/a	LTP141	ltpFR	16	1	1	FUGITIVE	612	5	1	n/a	n/a	n/a	n/a	n/a
3104.188	n/a	RECOG_RESP	1552094	n/a	LTP141	ltpFR	16	1	1	FUGITIVE	612	n/a	1	n/a	n/a	n/a	n/a	n/a
3104.914	n/a	RECOG_CONF	1552457	n/a	LTP141	ltpFR	16	1	1	FUGITIVE	612	5	1	n/a	n/a	n/a	n/a	n/a
3106.354	n/a	RECOG_TARGET	1553177	n/a	LTP141	ltpFR	16	1	0	NEST	945	5	0	n/a	n/a	n/a	n/a	n/a
3106.826	n/a	RECOG_RESP	1553413	n/a	LTP141	ltpFR	16	1	0	NEST	945	n/a	0	n/a	n/a	n/a	n/a	n/a
3107.528	n/a	RECOG_CONF	1553764	n/a	LTP141	ltpFR	16	1	0	NEST	945	5	0	n/a	n/a	n/a	n/a	n/a
3108.796	n/a	RECOG_TARGET	1554398	n/a	LTP141	ltpFR	16	1	1	DORM	488	5	0	n/a	n/a	n/a	n/a	n/a
3109.242	n/a	RECOG_RESP	1554621	n/a	LTP141	ltpFR	16	1	1	DORM	488	n/a	0	n/a	n/a	n/a	n/a	n/a
3109.86	n/a	RECOG_CONF	1554930	n/a	LTP141	ltpFR	16	1	1	DORM	488	5	0	n/a	n/a	n/a	n/a	n/a
3111.212	n/a	RECOG_TARGET	1555606	n/a	LTP141	ltpFR	16	1	0	PIGMENT	1066	5	0	n/a	n/a	n/a	n/a	n/a
3112.136	n/a	RECOG_RESP	1556068	n/a	LTP141	ltpFR	16	1	0	PIGMENT	1066	n/a	0	n/a	n/a	n/a	n/a	n/a
3112.798	n/a	RECOG_CONF	1556399	n/a	LTP141	ltpFR	16	1	0	PIGMENT	1066	5	0	n/a	n/a	n/a	n/a	n/a
3114.212	n/a	RECOG_TARGET	1557106	n/a	LTP141	ltpFR	16	1	0	OTTER	986	5	0	n/a	n/a	n/a	n/a	n/a
3114.8	n/a	RECOG_RESP	1557400	n/a	LTP141	ltpFR	16	1	0	OTTER	986	n/a	0	n/a	n/a	n/a	n/a	n/a
3115.444	n/a	RECOG_CONF	1557722	n/a	LTP141	ltpFR	16	1	0	OTTER	986	5	0	n/a	n/a	n/a	n/a	n/a
3116.86	n/a	RECOG_TARGET	1558430	n/a	LTP141	ltpFR	16	1	-1	ACORN	3	5	-1	n/a	n/a	n/a	n/a	n/a
3117.332	n/a	RECOG_RESP	1558666	n/a	LTP141	ltpFR	16	1	-1	ACORN	3	n/a	-1	n/a	n/a	n/a	n/a	n/a
3117.946	n/a	RECOG_CONF	1558973	n/a	LTP141	ltpFR	16	1	-1	ACORN	3	5	-1	n/a	n/a	n/a	n/a	n/a
3119.394	n/a	RECOG_TARGET	1559697	n/a	LTP141	ltpFR	16	1	1	BAIT	70	5	1	n/a	n/a	n/a	n/a	n/a
3119.954	n/a	RECOG_RESP	1559977	n/a	LTP141	ltpFR	16	1	1	BAIT	70	n/a	1	n/a	n/a	n/a	n/a	n/a
3120.57	n/a	RECOG_CONF	1560285	n/a	LTP141	ltpFR	16	1	1	BAIT	70	5	1	n/a	n/a	n/a	n/a	n/a
3122.0	n/a	RECOG_TARGET	1561000	n/a	LTP141	ltpFR	16	1	0	SINK	1309	4	1	n/a	n/a	n/a	n/a	n/a
3122.856	n/a	RECOG_RESP	1561428	n/a	LTP141	ltpFR	16	1	0	SINK	1309	n/a	1	n/a	n/a	n/a	n/a	n/a
3123.524	n/a	RECOG_CONF	1561762	n/a	LTP141	ltpFR	16	1	0	SINK	1309	4	1	n/a	n/a	n/a	n/a	n/a
3126.686	n/a	REC_START	1563343	n/a	LTP141	ltpFR	16	2	n/a	n/a	n/a	n/a	n/a	n/a	n/a	n/a	n/a	n/a
3126.716	n/a	RECOG_TARGET	1563358	n/a	LTP141	ltpFR	16	2	1	STY	1397	5	0	n/a	n/a	n/a	n/a	n/a
3127.348	n/a	RECOG_RESP	1563674	n/a	LTP141	ltpFR	16	2	1	STY	1397	n/a	0	n/a	n/a	n/a	n/a	n/a
3127.984	n/a	RECOG_CONF	1563992	n/a	LTP141	ltpFR	16	2	1	STY	1397	5	0	n/a	n/a	n/a	n/a	n/a
3129.298	n/a	RECOG_LURE	1564649	n/a	LTP141	ltpFR	16	2	n/a	CONCERT	360	4	n/a	n/a	n/a	n/a	n/a	n/a
3129.838	n/a	RECOG_RESP_VV	1564919	n/a	LTP141	ltpFR	16	2	n/a	CONCERT	360	n/a	n/a	n/a	n/a	n/a	n/a	n/a
3130.57	n/a	RECOG_RESP	1565285	n/a	LTP141	ltpFR	16	2	n/a	CONCERT	360	n/a	n/a	n/a	n/a	n/a	n/a	n/a
3131.32	n/a	RECOG_CONF	1565660	n/a	LTP141	ltpFR	16	2	n/a	CONCERT	360	4	n/a	n/a	n/a	n/a	n/a	n/a
3132.74	n/a	RECOG_LURE	1566370	n/a	LTP141	ltpFR	16	2	n/a	CARPET	247	4	n/a	n/a	n/a	n/a	n/a	n/a
3133.616	n/a	RECOG_RESP	1566808	n/a	LTP141	ltpFR	16	2	n/a	CARPET	247	n/a	n/a	n/a	n/a	n/a	n/a	n/a
3134.342	n/a	RECOG_CONF	1567171	n/a	LTP141	ltpFR	16	2	n/a	CARPET	247	4	n/a	n/a	n/a	n/a	n/a	n/a
3135.704	n/a	RECOG_LURE	1567852	n/a	LTP141	ltpFR	16	2	n/a	BUILDER	190	4	n/a	n/a	n/a	n/a	n/a	n/a
3136.566	n/a	RECOG_RESP	1568283	n/a	LTP141	ltpFR	16	2	n/a	BUILDER	190	n/a	n/a	n/a	n/a	n/a	n/a	n/a
3137.192	n/a	RECOG_CONF	1568596	n/a	LTP141	ltpFR	16	2	n/a	BUILDER	190	4	n/a	n/a	n/a	n/a	n/a	n/a
3138.562	n/a	RECOG_TARGET	1569281	n/a	LTP141	ltpFR	16	2	0	INMATE	738	3	1	n/a	n/a	n/a	n/a	n/a
3139.52	n/a	RECOG_RESP	1569760	n/a	LTP141	ltpFR	16	2	0	INMATE	738	n/a	1	n/a	n/a	n/a	n/a	n/a
3140.276	n/a	RECOG_CONF	1570138	n/a	LTP141	ltpFR	16	2	0	INMATE	738	3	1	n/a	n/a	n/a	n/a	n/a
3141.67	n/a	RECOG_TARGET	1570835	n/a	LTP141	ltpFR	16	2	1	JUG	762	5	0	n/a	n/a	n/a	n/a	n/a
3142.176	n/a	RECOG_RESP	1571088	n/a	LTP141	ltpFR	16	2	1	JUG	762	n/a	0	n/a	n/a	n/a	n/a	n/a
3142.788	n/a	RECOG_CONF	1571394	n/a	LTP141	ltpFR	16	2	1	JUG	762	5	0	n/a	n/a	n/a	n/a	n/a
3144.152	n/a	RECOG_TARGET	1572076	n/a	LTP141	ltpFR	16	2	0	BROCCOLI	176	5	0	n/a	n/a	n/a	n/a	n/a
3144.64	n/a	RECOG_RESP	1572320	n/a	LTP141	ltpFR	16	2	0	BROCCOLI	176	n/a	0	n/a	n/a	n/a	n/a	n/a
3145.21	n/a	RECOG_CONF	1572605	n/a	LTP141	ltpFR	16	2	0	BROCCOLI	176	5	0	n/a	n/a	n/a	n/a	n/a
3146.578	n/a	RECOG_TARGET	1573289	n/a	LTP141	ltpFR	16	2	1	PLUTO	1092	5	1	n/a	n/a	n/a	n/a	n/a
3147.23	n/a	RECOG_RESP	1573615	n/a	LTP141	ltpFR	16	2	1	PLUTO	1092	n/a	1	n/a	n/a	n/a	n/a	n/a
3147.818	n/a	RECOG_CONF	1573909	n/a	LTP141	ltpFR	16	2	1	PLUTO	1092	5	1	n/a	n/a	n/a	n/a	n/a
3149.268	n/a	RECOG_TARGET	1574634	n/a	LTP141	ltpFR	16	2	-1	RELATIVE	1182	4	-1	n/a	n/a	n/a	n/a	n/a
3150.404	n/a	RECOG_RESP	1575202	n/a	LTP141	ltpFR	16	2	-1	RELATIVE	1182	n/a	-1	n/a	n/a	n/a	n/a	n/a
3151.178	n/a	RECOG_CONF	1575589	n/a	LTP141	ltpFR	16	2	-1	RELATIVE	1182	4	-1	n/a	n/a	n/a	n/a	n/a
3152.708	n/a	RECOG_TARGET	1576354	n/a	LTP141	ltpFR	16	2	0	ENGINE	535	5	1	n/a	n/a	n/a	n/a	n/a
3153.208	n/a	RECOG_RESP	1576604	n/a	LTP141	ltpFR	16	2	0	ENGINE	535	n/a	1	n/a	n/a	n/a	n/a	n/a
3153.912	n/a	RECOG_CONF	1576956	n/a	LTP141	ltpFR	16	2	0	ENGINE	535	5	1	n/a	n/a	n/a	n/a	n/a
3155.348	n/a	RECOG_TARGET	1577674	n/a	LTP141	ltpFR	16	2	0	VAN	1548	4	1	n/a	n/a	n/a	n/a	n/a
3156.368	n/a	RECOG_RESP_VV	1578184	n/a	LTP141	ltpFR	16	2	0	VAN	1548	n/a	1	n/a	n/a	n/a	n/a	n/a
3156.862	n/a	RECOG_RESP	1578431	n/a	LTP141	ltpFR	16	2	0	VAN	1548	n/a	1	n/a	n/a	n/a	n/a	n/a
3157.588	n/a	RECOG_CONF	1578794	n/a	LTP141	ltpFR	16	2	0	VAN	1548	4	1	n/a	n/a	n/a	n/a	n/a
3159.064	n/a	RECOG_LURE	1579532	n/a	LTP141	ltpFR	16	2	n/a	BELT	120	4	n/a	n/a	n/a	n/a	n/a	n/a
3159.576	n/a	RECOG_RESP	1579788	n/a	LTP141	ltpFR	16	2	n/a	BELT	120	n/a	n/a	n/a	n/a	n/a	n/a	n/a
3160.27	n/a	RECOG_CONF	1580135	n/a	LTP141	ltpFR	16	2	n/a	BELT	120	4	n/a	n/a	n/a	n/a	n/a	n/a
3161.646	n/a	RECOG_TARGET	1580823	n/a	LTP141	ltpFR	16	2	0	HOE	711	5	0	n/a	n/a	n/a	n/a	n/a
3162.21	n/a	RECOG_RESP	1581105	n/a	LTP141	ltpFR	16	2	0	HOE	711	n/a	0	n/a	n/a	n/a	n/a	n/a
3162.916	n/a	RECOG_CONF	1581458	n/a	LTP141	ltpFR	16	2	0	HOE	711	5	0	n/a	n/a	n/a	n/a	n/a
3164.43	n/a	RECOG_TARGET	1582215	n/a	LTP141	ltpFR	16	2	0	NAVIGATOR	938	4	1	n/a	n/a	n/a	n/a	n/a
3165.582	n/a	RECOG_RESP	1582791	n/a	LTP141	ltpFR	16	2	0	NAVIGATOR	938	n/a	1	n/a	n/a	n/a	n/a	n/a
3166.268	n/a	RECOG_CONF	1583134	n/a	LTP141	ltpFR	16	2	0	NAVIGATOR	938	4	1	n/a	n/a	n/a	n/a	n/a
3167.77	n/a	RECOG_TARGET	1583885	n/a	LTP141	ltpFR	16	2	0	STEWARDESS	1381	4	1	n/a	n/a	n/a	n/a	n/a
3168.91	n/a	RECOG_RESP	1584455	n/a	LTP141	ltpFR	16	2	0	STEWARDESS	1381	n/a	1	n/a	n/a	n/a	n/a	n/a
3169.606	n/a	RECOG_CONF	1584803	n/a	LTP141	ltpFR	16	2	0	STEWARDESS	1381	4	1	n/a	n/a	n/a	n/a	n/a
3171.028	n/a	RECOG_LURE	1585514	n/a	LTP141	ltpFR	16	2	n/a	DICE	461	3	n/a	n/a	n/a	n/a	n/a	n/a
3173.284	n/a	RECOG_RESP	1586642	n/a	LTP141	ltpFR	16	2	n/a	DICE	461	n/a	n/a	n/a	n/a	n/a	n/a	n/a
3173.94	n/a	RECOG_CONF	1586970	n/a	LTP141	ltpFR	16	2	n/a	DICE	461	3	n/a	n/a	n/a	n/a	n/a	n/a
3175.334	n/a	RECOG_TARGET	1587667	n/a	LTP141	ltpFR	16	2	1	PARENT	1013	5	1	n/a	n/a	n/a	n/a	n/a
3176.078	n/a	RECOG_RESP	1588039	n/a	LTP141	ltpFR	16	2	1	PARENT	1013	n/a	1	n/a	n/a	n/a	n/a	n/a
3176.71	n/a	RECOG_CONF	1588355	n/a	LTP141	ltpFR	16	2	1	PARENT	1013	5	1	n/a	n/a	n/a	n/a	n/a
3178.158	n/a	RECOG_LURE	1589079	n/a	LTP141	ltpFR	16	2	n/a	TUNNEL	1519	4	n/a	n/a	n/a	n/a	n/a	n/a
3178.794	n/a	RECOG_RESP	1589397	n/a	LTP141	ltpFR	16	2	n/a	TUNNEL	1519	n/a	n/a	n/a	n/a	n/a	n/a	n/a
3179.448	n/a	RECOG_CONF	1589724	n/a	LTP141	ltpFR	16	2	n/a	TUNNEL	1519	4	n/a	n/a	n/a	n/a	n/a	n/a
3180.85	n/a	RECOG_TARGET	1590425	n/a	LTP141	ltpFR	16	2	-1	TICK	1463	5	-1	n/a	n/a	n/a	n/a	n/a
3181.51	n/a	RECOG_RESP	1590755	n/a	LTP141	ltpFR	16	2	-1	TICK	1463	n/a	-1	n/a	n/a	n/a	n/a	n/a
3182.258	n/a	RECOG_CONF	1591129	n/a	LTP141	ltpFR	16	2	-1	TICK	1463	5	-1	n/a	n/a	n/a	n/a	n/a
3183.558	n/a	RECOG_TARGET	1591779	n/a	LTP141	ltpFR	16	2	0	CONVICT	371	4	1	n/a	n/a	n/a	n/a	n/a
3184.044	n/a	RECOG_RESP	1592022	n/a	LTP141	ltpFR	16	2	0	CONVICT	371	n/a	1	n/a	n/a	n/a	n/a	n/a
3184.678	n/a	RECOG_CONF	1592339	n/a	LTP141	ltpFR	16	2	0	CONVICT	371	4	1	n/a	n/a	n/a	n/a	n/a
3187.598	n/a	REC_START	1593799	n/a	LTP141	ltpFR	16	3	n/a	n/a	n/a	n/a	n/a	n/a	n/a	n/a	n/a	n/a
3187.64	n/a	RECOG_LURE	1593820	n/a	LTP141	ltpFR	16	3	n/a	CORPORATION	382	4	n/a	n/a	n/a	n/a	n/a	n/a
3188.582	n/a	RECOG_RESP	1594291	n/a	LTP141	ltpFR	16	3	n/a	CORPORATION	382	n/a	n/a	n/a	n/a	n/a	n/a	n/a
3189.172	n/a	RECOG_CONF	1594586	n/a	LTP141	ltpFR	16	3	n/a	CORPORATION	382	4	n/a	n/a	n/a	n/a	n/a	n/a
3190.572	n/a	RECOG_LURE	1595286	n/a	LTP141	ltpFR	16	3	n/a	ANT	25	4	n/a	n/a	n/a	n/a	n/a	n/a
3191.842	n/a	RECOG_RESP	1595921	n/a	LTP141	ltpFR	16	3	n/a	ANT	25	n/a	n/a	n/a	n/a	n/a	n/a	n/a
3192.444	n/a	RECOG_CONF	1596222	n/a	LTP141	ltpFR	16	3	n/a	ANT	25	4	n/a	n/a	n/a	n/a	n/a	n/a
3193.838	n/a	RECOG_TARGET	1596919	n/a	LTP141	ltpFR	16	3	0	PICKLE	1059	5	0	n/a	n/a	n/a	n/a	n/a
3194.482	n/a	RECOG_RESP	1597241	n/a	LTP141	ltpFR	16	3	0	PICKLE	1059	n/a	0	n/a	n/a	n/a	n/a	n/a
3195.196	n/a	RECOG_CONF	1597598	n/a	LTP141	ltpFR	16	3	0	PICKLE	1059	5	0	n/a	n/a	n/a	n/a	n/a
3196.47	n/a	RECOG_TARGET	1598235	n/a	LTP141	ltpFR	16	3	1	BEAVER	109	5	1	n/a	n/a	n/a	n/a	n/a
3197.032	n/a	RECOG_RESP	1598516	n/a	LTP141	ltpFR	16	3	1	BEAVER	109	n/a	1	n/a	n/a	n/a	n/a	n/a
3197.614	n/a	RECOG_CONF	1598807	n/a	LTP141	ltpFR	16	3	1	BEAVER	109	5	1	n/a	n/a	n/a	n/a	n/a
3199.028	n/a	RECOG_TARGET	1599514	n/a	LTP141	ltpFR	16	3	1	REFRIGERATOR	1179	4	0	n/a	n/a	n/a	n/a	n/a
3199.912	n/a	RECOG_RESP	1599956	n/a	LTP141	ltpFR	16	3	1	REFRIGERATOR	1179	n/a	0	n/a	n/a	n/a	n/a	n/a
3200.664	n/a	RECOG_CONF	1600332	n/a	LTP141	ltpFR	16	3	1	REFRIGERATOR	1179	4	0	n/a	n/a	n/a	n/a	n/a
3201.918	n/a	RECOG_TARGET	1600959	n/a	LTP141	ltpFR	16	3	0	BUSH	202	5	1	n/a	n/a	n/a	n/a	n/a
3202.38	n/a	RECOG_RESP	1601190	n/a	LTP141	ltpFR	16	3	0	BUSH	202	n/a	1	n/a	n/a	n/a	n/a	n/a
3202.964	n/a	RECOG_CONF	1601482	n/a	LTP141	ltpFR	16	3	0	BUSH	202	5	1	n/a	n/a	n/a	n/a	n/a
3204.358	n/a	RECOG_LURE	1602179	n/a	LTP141	ltpFR	16	3	n/a	SNOB	1335	4	n/a	n/a	n/a	n/a	n/a	n/a
3204.978	n/a	RECOG_RESP	1602489	n/a	LTP141	ltpFR	16	3	n/a	SNOB	1335	n/a	n/a	n/a	n/a	n/a	n/a	n/a
3205.554	n/a	RECOG_CONF	1602777	n/a	LTP141	ltpFR	16	3	n/a	SNOB	1335	4	n/a	n/a	n/a	n/a	n/a	n/a
3206.958	n/a	RECOG_LURE	1603479	n/a	LTP141	ltpFR	16	3	n/a	NET	946	4	n/a	n/a	n/a	n/a	n/a	n/a
3207.492	n/a	RECOG_RESP_VV	1603746	n/a	LTP141	ltpFR	16	3	n/a	NET	946	n/a	n/a	n/a	n/a	n/a	n/a	n/a
3208.272	n/a	RECOG_RESP	1604136	n/a	LTP141	ltpFR	16	3	n/a	NET	946	n/a	n/a	n/a	n/a	n/a	n/a	n/a
3209.096	n/a	RECOG_CONF	1604548	n/a	LTP141	ltpFR	16	3	n/a	NET	946	4	n/a	n/a	n/a	n/a	n/a	n/a
3210.308	n/a	RECOG_TARGET	1605154	n/a	LTP141	ltpFR	16	3	1	TOOL	1480	5	0	n/a	n/a	n/a	n/a	n/a
3210.992	n/a	RECOG_RESP	1605496	n/a	LTP141	ltpFR	16	3	1	TOOL	1480	n/a	0	n/a	n/a	n/a	n/a	n/a
3211.782	n/a	RECOG_CONF	1605891	n/a	LTP141	ltpFR	16	3	1	TOOL	1480	5	0	n/a	n/a	n/a	n/a	n/a
3213.198	n/a	RECOG_TARGET	1606599	n/a	LTP141	ltpFR	16	3	0	COOKBOOK	373	5	0	n/a	n/a	n/a	n/a	n/a
3213.92	n/a	RECOG_RESP	1606960	n/a	LTP141	ltpFR	16	3	0	COOKBOOK	373	n/a	0	n/a	n/a	n/a	n/a	n/a
3214.568	n/a	RECOG_CONF	1607284	n/a	LTP141	ltpFR	16	3	0	COOKBOOK	373	5	0	n/a	n/a	n/a	n/a	n/a
3215.998	n/a	RECOG_TARGET	1607999	n/a	LTP141	ltpFR	16	3	0	JET	756	4	1	n/a	n/a	n/a	n/a	n/a
3216.452	n/a	RECOG_RESP	1608226	n/a	LTP141	ltpFR	16	3	0	JET	756	n/a	1	n/a	n/a	n/a	n/a	n/a
3217.126	n/a	RECOG_CONF	1608563	n/a	LTP141	ltpFR	16	3	0	JET	756	4	1	n/a	n/a	n/a	n/a	n/a
3218.604	n/a	RECOG_TARGET	1609302	n/a	LTP141	ltpFR	16	3	1	RECORD	1176	5	0	n/a	n/a	n/a	n/a	n/a
3219.152	n/a	RECOG_RESP	1609576	n/a	LTP141	ltpFR	16	3	1	RECORD	1176	n/a	0	n/a	n/a	n/a	n/a	n/a
3219.808	n/a	RECOG_CONF	1609904	n/a	LTP141	ltpFR	16	3	1	RECORD	1176	5	0	n/a	n/a	n/a	n/a	n/a
3221.288	n/a	RECOG_LURE	1610644	n/a	LTP141	ltpFR	16	3	n/a	FRUIT	610	4	n/a	n/a	n/a	n/a	n/a	n/a
3221.9	n/a	RECOG_RESP	1610950	n/a	LTP141	ltpFR	16	3	n/a	FRUIT	610	n/a	n/a	n/a	n/a	n/a	n/a	n/a
3222.646	n/a	RECOG_CONF	1611323	n/a	LTP141	ltpFR	16	3	n/a	FRUIT	610	4	n/a	n/a	n/a	n/a	n/a	n/a
3223.92	n/a	RECOG_LURE	1611960	n/a	LTP141	ltpFR	16	3	n/a	STEW	1380	4	n/a	n/a	n/a	n/a	n/a	n/a
3224.896	n/a	RECOG_RESP	1612448	n/a	LTP141	ltpFR	16	3	n/a	STEW	1380	n/a	n/a	n/a	n/a	n/a	n/a	n/a
3225.668	n/a	RECOG_CONF	1612834	n/a	LTP141	ltpFR	16	3	n/a	STEW	1380	4	n/a	n/a	n/a	n/a	n/a	n/a
3226.952	n/a	RECOG_TARGET	1613476	n/a	LTP141	ltpFR	16	3	-1	CARROT	249	5	-1	n/a	n/a	n/a	n/a	n/a
3227.54	n/a	RECOG_RESP	1613770	n/a	LTP141	ltpFR	16	3	-1	CARROT	249	n/a	-1	n/a	n/a	n/a	n/a	n/a
3228.242	n/a	RECOG_CONF	1614121	n/a	LTP141	ltpFR	16	3	-1	CARROT	249	5	-1	n/a	n/a	n/a	n/a	n/a
3229.46	n/a	RECOG_LURE	1614730	n/a	LTP141	ltpFR	16	3	n/a	PORT	1110	5	n/a	n/a	n/a	n/a	n/a	n/a
3230.246	n/a	RECOG_RESP	1615123	n/a	LTP141	ltpFR	16	3	n/a	PORT	1110	n/a	n/a	n/a	n/a	n/a	n/a	n/a
3230.838	n/a	RECOG_CONF	1615419	n/a	LTP141	ltpFR	16	3	n/a	PORT	1110	5	n/a	n/a	n/a	n/a	n/a	n/a
3232.25	n/a	RECOG_TARGET	1616125	n/a	LTP141	ltpFR	16	3	-1	CITIZEN	312	5	-1	n/a	n/a	n/a	n/a	n/a
3232.902	n/a	RECOG_RESP	1616451	n/a	LTP141	ltpFR	16	3	-1	CITIZEN	312	n/a	-1	n/a	n/a	n/a	n/a	n/a
3233.668	n/a	RECOG_CONF	1616834	n/a	LTP141	ltpFR	16	3	-1	CITIZEN	312	5	-1	n/a	n/a	n/a	n/a	n/a
3235.192	n/a	RECOG_TARGET	1617596	n/a	LTP141	ltpFR	16	3	0	GARDEN	623	5	1	n/a	n/a	n/a	n/a	n/a
3235.708	n/a	RECOG_RESP	1617854	n/a	LTP141	ltpFR	16	3	0	GARDEN	623	n/a	1	n/a	n/a	n/a	n/a	n/a
3236.404	n/a	RECOG_CONF	1618202	n/a	LTP141	ltpFR	16	3	0	GARDEN	623	5	1	n/a	n/a	n/a	n/a	n/a
3237.724	n/a	RECOG_LURE	1618862	n/a	LTP141	ltpFR	16	3	n/a	VIOLA	1570	5	n/a	n/a	n/a	n/a	n/a	n/a
3238.282	n/a	RECOG_RESP	1619141	n/a	LTP141	ltpFR	16	3	n/a	VIOLA	1570	n/a	n/a	n/a	n/a	n/a	n/a	n/a
3238.98	n/a	RECOG_CONF	1619490	n/a	LTP141	ltpFR	16	3	n/a	VIOLA	1570	5	n/a	n/a	n/a	n/a	n/a	n/a
3240.248	n/a	RECOG_TARGET	1620124	n/a	LTP141	ltpFR	16	3	-1	TEENAGER	1444	5	-1	n/a	n/a	n/a	n/a	n/a
3240.816	n/a	RECOG_RESP	1620408	n/a	LTP141	ltpFR	16	3	-1	TEENAGER	1444	n/a	-1	n/a	n/a	n/a	n/a	n/a
3241.514	n/a	RECOG_CONF	1620757	n/a	LTP141	ltpFR	16	3	-1	TEENAGER	1444	5	-1	n/a	n/a	n/a	n/a	n/a
3244.37	n/a	REC_START	1622185	n/a	LTP141	ltpFR	16	4	n/a	n/a	n/a	n/a	n/a	n/a	n/a	n/a	n/a	n/a
3244.406	n/a	RECOG_LURE	1622203	n/a	LTP141	ltpFR	16	4	n/a	RAZOR	1171	4	n/a	n/a	n/a	n/a	n/a	n/a
3245.676	n/a	RECOG_RESP	1622838	n/a	LTP141	ltpFR	16	4	n/a	RAZOR	1171	n/a	n/a	n/a	n/a	n/a	n/a	n/a
3246.254	n/a	RECOG_CONF	1623127	n/a	LTP141	ltpFR	16	4	n/a	RAZOR	1171	4	n/a	n/a	n/a	n/a	n/a	n/a
3247.588	n/a	RECOG_TARGET	1623794	n/a	LTP141	ltpFR	16	4	-1	MOTHER	921	5	-1	n/a	n/a	n/a	n/a	n/a
3248.592	n/a	RECOG_RESP	1624296	n/a	LTP141	ltpFR	16	4	-1	MOTHER	921	n/a	-1	n/a	n/a	n/a	n/a	n/a
3249.152	n/a	RECOG_CONF	1624576	n/a	LTP141	ltpFR	16	4	-1	MOTHER	921	5	-1	n/a	n/a	n/a	n/a	n/a
3250.496	n/a	RECOG_LURE	1625248	n/a	LTP141	ltpFR	16	4	n/a	GRASSHOPPER	656	5	n/a	n/a	n/a	n/a	n/a	n/a
3251.168	n/a	RECOG_RESP	1625584	n/a	LTP141	ltpFR	16	4	n/a	GRASSHOPPER	656	n/a	n/a	n/a	n/a	n/a	n/a	n/a
3251.818	n/a	RECOG_CONF	1625909	n/a	LTP141	ltpFR	16	4	n/a	GRASSHOPPER	656	5	n/a	n/a	n/a	n/a	n/a	n/a
3253.01	n/a	RECOG_TARGET	1626505	n/a	LTP141	ltpFR	16	4	1	SWITCH	1422	4	0	n/a	n/a	n/a	n/a	n/a
3253.59	n/a	RECOG_RESP	1626795	n/a	LTP141	ltpFR	16	4	1	SWITCH	1422	n/a	0	n/a	n/a	n/a	n/a	n/a
3254.18	n/a	RECOG_CONF	1627090	n/a	LTP141	ltpFR	16	4	1	SWITCH	1422	4	0	n/a	n/a	n/a	n/a	n/a
3255.536	n/a	RECOG_TARGET	1627768	n/a	LTP141	ltpFR	16	4	0	JACKET	747	5	0	n/a	n/a	n/a	n/a	n/a
3256.068	n/a	RECOG_RESP	1628034	n/a	LTP141	ltpFR	16	4	0	JACKET	747	n/a	0	n/a	n/a	n/a	n/a	n/a
3256.674	n/a	RECOG_CONF	1628337	n/a	LTP141	ltpFR	16	4	0	JACKET	747	5	0	n/a	n/a	n/a	n/a	n/a
3258.01	n/a	RECOG_TARGET	1629005	n/a	LTP141	ltpFR	16	4	-1	CLAM	315	5	-1	n/a	n/a	n/a	n/a	n/a
3258.612	n/a	RECOG_RESP	1629306	n/a	LTP141	ltpFR	16	4	-1	CLAM	315	n/a	-1	n/a	n/a	n/a	n/a	n/a
3259.302	n/a	RECOG_CONF	1629651	n/a	LTP141	ltpFR	16	4	-1	CLAM	315	5	-1	n/a	n/a	n/a	n/a	n/a
3260.626	n/a	RECOG_LURE	1630313	n/a	LTP141	ltpFR	16	4	n/a	SOCIETY	1338	5	n/a	n/a	n/a	n/a	n/a	n/a
3261.184	n/a	RECOG_RESP	1630592	n/a	LTP141	ltpFR	16	4	n/a	SOCIETY	1338	n/a	n/a	n/a	n/a	n/a	n/a	n/a
3261.828	n/a	RECOG_CONF	1630914	n/a	LTP141	ltpFR	16	4	n/a	SOCIETY	1338	5	n/a	n/a	n/a	n/a	n/a	n/a
3263.266	n/a	RECOG_TARGET	1631633	n/a	LTP141	ltpFR	16	4	1	SNORKEL	1336	5	0	n/a	n/a	n/a	n/a	n/a
3263.74	n/a	RECOG_RESP	1631870	n/a	LTP141	ltpFR	16	4	1	SNORKEL	1336	n/a	0	n/a	n/a	n/a	n/a	n/a
3264.288	n/a	RECOG_CONF	1632144	n/a	LTP141	ltpFR	16	4	1	SNORKEL	1336	5	0	n/a	n/a	n/a	n/a	n/a
3265.724	n/a	RECOG_TARGET	1632862	n/a	LTP141	ltpFR	16	4	1	CAVITY	264	5	0	n/a	n/a	n/a	n/a	n/a
3266.218	n/a	RECOG_RESP	1633109	n/a	LTP141	ltpFR	16	4	1	CAVITY	264	n/a	0	n/a	n/a	n/a	n/a	n/a
3266.816	n/a	RECOG_CONF	1633408	n/a	LTP141	ltpFR	16	4	1	CAVITY	264	5	0	n/a	n/a	n/a	n/a	n/a
3268.24	n/a	RECOG_LURE	1634120	n/a	LTP141	ltpFR	16	4	n/a	CHIPMUNK	304	5	n/a	n/a	n/a	n/a	n/a	n/a
3268.776	n/a	RECOG_RESP	1634388	n/a	LTP141	ltpFR	16	4	n/a	CHIPMUNK	304	n/a	n/a	n/a	n/a	n/a	n/a	n/a
3269.384	n/a	RECOG_CONF	1634692	n/a	LTP141	ltpFR	16	4	n/a	CHIPMUNK	304	5	n/a	n/a	n/a	n/a	n/a	n/a
3270.848	n/a	RECOG_TARGET	1635424	n/a	LTP141	ltpFR	16	4	0	FUNGUS	614	5	0	n/a	n/a	n/a	n/a	n/a
3271.344	n/a	RECOG_RESP	1635672	n/a	LTP141	ltpFR	16	4	0	FUNGUS	614	n/a	0	n/a	n/a	n/a	n/a	n/a
3271.96	n/a	RECOG_CONF	1635980	n/a	LTP141	ltpFR	16	4	0	FUNGUS	614	5	0	n/a	n/a	n/a	n/a	n/a
3273.314	n/a	RECOG_TARGET	1636657	n/a	LTP141	ltpFR	16	4	0	DIVER	476	5	1	n/a	n/a	n/a	n/a	n/a
3273.778	n/a	RECOG_RESP	1636889	n/a	LTP141	ltpFR	16	4	0	DIVER	476	n/a	1	n/a	n/a	n/a	n/a	n/a
3274.366	n/a	RECOG_CONF	1637183	n/a	LTP141	ltpFR	16	4	0	DIVER	476	5	1	n/a	n/a	n/a	n/a	n/a
3275.754	n/a	RECOG_TARGET	1637877	n/a	LTP141	ltpFR	16	4	-1	BISCUIT	130	4	-1	n/a	n/a	n/a	n/a	n/a
3276.236	n/a	RECOG_RESP	1638118	n/a	LTP141	ltpFR	16	4	-1	BISCUIT	130	n/a	-1	n/a	n/a	n/a	n/a	n/a
3277.132	n/a	RECOG_CONF	1638566	n/a	LTP141	ltpFR	16	4	-1	BISCUIT	130	4	-1	n/a	n/a	n/a	n/a	n/a
3278.388	n/a	RECOG_TARGET	1639194	n/a	LTP141	ltpFR	16	4	0	FACTORY	548	5	1	n/a	n/a	n/a	n/a	n/a
3278.876	n/a	RECOG_RESP	1639438	n/a	LTP141	ltpFR	16	4	0	FACTORY	548	n/a	1	n/a	n/a	n/a	n/a	n/a
3279.524	n/a	RECOG_CONF	1639762	n/a	LTP141	ltpFR	16	4	0	FACTORY	548	5	1	n/a	n/a	n/a	n/a	n/a
3280.852	n/a	RECOG_TARGET	1640426	n/a	LTP141	ltpFR	16	4	0	CAFETERIA	217	5	1	n/a	n/a	n/a	n/a	n/a
3281.32	n/a	RECOG_RESP	1640660	n/a	LTP141	ltpFR	16	4	0	CAFETERIA	217	n/a	1	n/a	n/a	n/a	n/a	n/a
3281.962	n/a	RECOG_CONF	1640981	n/a	LTP141	ltpFR	16	4	0	CAFETERIA	217	5	1	n/a	n/a	n/a	n/a	n/a
3283.244	n/a	RECOG_TARGET	1641622	n/a	LTP141	ltpFR	16	4	0	CORK	380	5	0	n/a	n/a	n/a	n/a	n/a
3283.828	n/a	RECOG_RESP	1641914	n/a	LTP141	ltpFR	16	4	0	CORK	380	n/a	0	n/a	n/a	n/a	n/a	n/a
3284.5	n/a	RECOG_CONF	1642250	n/a	LTP141	ltpFR	16	4	0	CORK	380	5	0	n/a	n/a	n/a	n/a	n/a
3285.818	n/a	RECOG_TARGET	1642909	n/a	LTP141	ltpFR	16	4	-1	BRAIN	165	5	-1	n/a	n/a	n/a	n/a	n/a
3286.334	n/a	RECOG_RESP	1643167	n/a	LTP141	ltpFR	16	4	-1	BRAIN	165	n/a	-1	n/a	n/a	n/a	n/a	n/a
3286.994	n/a	RECOG_CONF	1643497	n/a	LTP141	ltpFR	16	4	-1	BRAIN	165	5	-1	n/a	n/a	n/a	n/a	n/a
3288.358	n/a	RECOG_TARGET	1644179	n/a	LTP141	ltpFR	16	4	1	MAT	877	5	0	n/a	n/a	n/a	n/a	n/a
3288.84	n/a	RECOG_RESP	1644420	n/a	LTP141	ltpFR	16	4	1	MAT	877	n/a	0	n/a	n/a	n/a	n/a	n/a
3289.492	n/a	RECOG_CONF	1644746	n/a	LTP141	ltpFR	16	4	1	MAT	877	5	0	n/a	n/a	n/a	n/a	n/a
3290.816	n/a	RECOG_TARGET	1645408	n/a	LTP141	ltpFR	16	4	-1	WAITRESS	1581	5	-1	n/a	n/a	n/a	n/a	n/a
3291.284	n/a	RECOG_RESP	1645642	n/a	LTP141	ltpFR	16	4	-1	WAITRESS	1581	n/a	-1	n/a	n/a	n/a	n/a	n/a
3292.018	n/a	RECOG_CONF	1646009	n/a	LTP141	ltpFR	16	4	-1	WAITRESS	1581	5	-1	n/a	n/a	n/a	n/a	n/a
3293.248	n/a	RECOG_TARGET	1646624	n/a	LTP141	ltpFR	16	4	-1	DISH	474	4	-1	n/a	n/a	n/a	n/a	n/a
3294.02	n/a	RECOG_RESP	1647010	n/a	LTP141	ltpFR	16	4	-1	DISH	474	n/a	-1	n/a	n/a	n/a	n/a	n/a
3294.696	n/a	RECOG_CONF	1647348	n/a	LTP141	ltpFR	16	4	-1	DISH	474	4	-1	n/a	n/a	n/a	n/a	n/a
3297.774	n/a	REC_START	1648887	n/a	LTP141	ltpFR	16	5	n/a	n/a	n/a	n/a	n/a	n/a	n/a	n/a	n/a	n/a
3297.806	n/a	RECOG_TARGET	1648903	n/a	LTP141	ltpFR	16	5	1	GAZELLE	628	4	1	n/a	n/a	n/a	n/a	n/a
3298.482	n/a	RECOG_RESP	1649241	n/a	LTP141	ltpFR	16	5	1	GAZELLE	628	n/a	1	n/a	n/a	n/a	n/a	n/a
3299.174	n/a	RECOG_CONF	1649587	n/a	LTP141	ltpFR	16	5	1	GAZELLE	628	4	1	n/a	n/a	n/a	n/a	n/a
3300.58	n/a	RECOG_TARGET	1650290	n/a	LTP141	ltpFR	16	5	0	CAB	209	5	1	n/a	n/a	n/a	n/a	n/a
3301.05	n/a	RECOG_RESP	1650525	n/a	LTP141	ltpFR	16	5	0	CAB	209	n/a	1	n/a	n/a	n/a	n/a	n/a
3301.682	n/a	RECOG_CONF	1650841	n/a	LTP141	ltpFR	16	5	0	CAB	209	5	1	n/a	n/a	n/a	n/a	n/a
3303.004	n/a	RECOG_LURE	1651502	n/a	LTP141	ltpFR	16	5	n/a	PASSAGE	1019	5	n/a	n/a	n/a	n/a	n/a	n/a
3303.582	n/a	RECOG_RESP	1651791	n/a	LTP141	ltpFR	16	5	n/a	PASSAGE	1019	n/a	n/a	n/a	n/a	n/a	n/a	n/a
3304.246	n/a	RECOG_CONF	1652123	n/a	LTP141	ltpFR	16	5	n/a	PASSAGE	1019	5	n/a	n/a	n/a	n/a	n/a	n/a
3305.596	n/a	RECOG_TARGET	1652798	n/a	LTP141	ltpFR	16	5	1	ATTORNEY	58	5	1	n/a	n/a	n/a	n/a	n/a
3306.096	n/a	RECOG_RESP	1653048	n/a	LTP141	ltpFR	16	5	1	ATTORNEY	58	n/a	1	n/a	n/a	n/a	n/a	n/a
3306.68	n/a	RECOG_CONF	1653340	n/a	LTP141	ltpFR	16	5	1	ATTORNEY	58	5	1	n/a	n/a	n/a	n/a	n/a
3308.036	n/a	RECOG_TARGET	1654018	n/a	LTP141	ltpFR	16	5	1	SHORE	1291	5	0	n/a	n/a	n/a	n/a	n/a
3308.556	n/a	RECOG_RESP	1654278	n/a	LTP141	ltpFR	16	5	1	SHORE	1291	n/a	0	n/a	n/a	n/a	n/a	n/a
3309.198	n/a	RECOG_CONF	1654599	n/a	LTP141	ltpFR	16	5	1	SHORE	1291	5	0	n/a	n/a	n/a	n/a	n/a
3310.552	n/a	RECOG_LURE	1655276	n/a	LTP141	ltpFR	16	5	n/a	POLICE	1098	4	n/a	n/a	n/a	n/a	n/a	n/a
3310.974	n/a	RECOG_RESP_VV	1655487	n/a	LTP141	ltpFR	16	5	n/a	POLICE	1098	n/a	n/a	n/a	n/a	n/a	n/a	n/a
3311.7	n/a	RECOG_RESP	1655850	n/a	LTP141	ltpFR	16	5	n/a	POLICE	1098	n/a	n/a	n/a	n/a	n/a	n/a	n/a
3312.406	n/a	RECOG_CONF	1656203	n/a	LTP141	ltpFR	16	5	n/a	POLICE	1098	4	n/a	n/a	n/a	n/a	n/a	n/a
3313.794	n/a	RECOG_TARGET	1656897	n/a	LTP141	ltpFR	16	5	0	WELL	1600	5	1	n/a	n/a	n/a	n/a	n/a
3314.342	n/a	RECOG_RESP	1657171	n/a	LTP141	ltpFR	16	5	0	WELL	1600	n/a	1	n/a	n/a	n/a	n/a	n/a
3314.988	n/a	RECOG_CONF	1657494	n/a	LTP141	ltpFR	16	5	0	WELL	1600	5	1	n/a	n/a	n/a	n/a	n/a
3316.342	n/a	RECOG_LURE	1658171	n/a	LTP141	ltpFR	16	5	n/a	BOLT	146	5	n/a	n/a	n/a	n/a	n/a	n/a
3317.188	n/a	RECOG_RESP	1658594	n/a	LTP141	ltpFR	16	5	n/a	BOLT	146	n/a	n/a	n/a	n/a	n/a	n/a	n/a
3317.788	n/a	RECOG_CONF	1658894	n/a	LTP141	ltpFR	16	5	n/a	BOLT	146	5	n/a	n/a	n/a	n/a	n/a	n/a
3319.25	n/a	RECOG_LURE	1659625	n/a	LTP141	ltpFR	16	5	n/a	TRAY	1498	4	n/a	n/a	n/a	n/a	n/a	n/a
3319.87	n/a	RECOG_RESP_VV	1659935	n/a	LTP141	ltpFR	16	5	n/a	TRAY	1498	n/a	n/a	n/a	n/a	n/a	n/a	n/a
3320.384	n/a	RECOG_RESP	1660192	n/a	LTP141	ltpFR	16	5	n/a	TRAY	1498	n/a	n/a	n/a	n/a	n/a	n/a	n/a
3321.068	n/a	RECOG_CONF	1660534	n/a	LTP141	ltpFR	16	5	n/a	TRAY	1498	4	n/a	n/a	n/a	n/a	n/a	n/a
3322.666	n/a	RECOG_TARGET	1661333	n/a	LTP141	ltpFR	16	5	0	CHESS	294	5	0	n/a	n/a	n/a	n/a	n/a
3323.356	n/a	RECOG_RESP	1661678	n/a	LTP141	ltpFR	16	5	0	CHESS	294	n/a	0	n/a	n/a	n/a	n/a	n/a
3324.12	n/a	RECOG_CONF	1662060	n/a	LTP141	ltpFR	16	5	0	CHESS	294	5	0	n/a	n/a	n/a	n/a	n/a
3325.448	n/a	RECOG_TARGET	1662724	n/a	LTP141	ltpFR	16	5	1	BEGGAR	117	5	1	n/a	n/a	n/a	n/a	n/a
3326.034	n/a	RECOG_RESP	1663017	n/a	LTP141	ltpFR	16	5	1	BEGGAR	117	n/a	1	n/a	n/a	n/a	n/a	n/a
3326.622	n/a	RECOG_CONF	1663311	n/a	LTP141	ltpFR	16	5	1	BEGGAR	117	5	1	n/a	n/a	n/a	n/a	n/a
3327.988	n/a	RECOG_TARGET	1663994	n/a	LTP141	ltpFR	16	5	1	CIGAR	308	5	0	n/a	n/a	n/a	n/a	n/a
3328.45	n/a	RECOG_RESP	1664225	n/a	LTP141	ltpFR	16	5	1	CIGAR	308	n/a	0	n/a	n/a	n/a	n/a	n/a
3329.024	n/a	RECOG_CONF	1664512	n/a	LTP141	ltpFR	16	5	1	CIGAR	308	5	0	n/a	n/a	n/a	n/a	n/a
3330.438	n/a	RECOG_LURE	1665219	n/a	LTP141	ltpFR	16	5	n/a	TART	1436	4	n/a	n/a	n/a	n/a	n/a	n/a
3330.866	n/a	RECOG_RESP	1665433	n/a	LTP141	ltpFR	16	5	n/a	TART	1436	n/a	n/a	n/a	n/a	n/a	n/a	n/a
3331.534	n/a	RECOG_CONF	1665767	n/a	LTP141	ltpFR	16	5	n/a	TART	1436	4	n/a	n/a	n/a	n/a	n/a	n/a
3332.946	n/a	RECOG_TARGET	1666473	n/a	LTP141	ltpFR	16	5	1	POSSUM	1112	5	1	n/a	n/a	n/a	n/a	n/a
3333.462	n/a	RECOG_RESP	1666731	n/a	LTP141	ltpFR	16	5	1	POSSUM	1112	n/a	1	n/a	n/a	n/a	n/a	n/a
3334.1	n/a	RECOG_CONF	1667050	n/a	LTP141	ltpFR	16	5	1	POSSUM	1112	5	1	n/a	n/a	n/a	n/a	n/a
3335.486	n/a	RECOG_TARGET	1667743	n/a	LTP141	ltpFR	16	5	-1	NIECE	952	5	-1	n/a	n/a	n/a	n/a	n/a
3336.294	n/a	RECOG_RESP	1668147	n/a	LTP141	ltpFR	16	5	-1	NIECE	952	n/a	-1	n/a	n/a	n/a	n/a	n/a
3336.918	n/a	RECOG_CONF	1668459	n/a	LTP141	ltpFR	16	5	-1	NIECE	952	5	-1	n/a	n/a	n/a	n/a	n/a
3338.26	n/a	RECOG_TARGET	1669130	n/a	LTP141	ltpFR	16	5	-1	KITCHEN	778	3	-1	n/a	n/a	n/a	n/a	n/a
3339.198	n/a	RECOG_RESP	1669599	n/a	LTP141	ltpFR	16	5	-1	KITCHEN	778	n/a	-1	n/a	n/a	n/a	n/a	n/a
3339.91	n/a	RECOG_CONF	1669955	n/a	LTP141	ltpFR	16	5	-1	KITCHEN	778	3	-1	n/a	n/a	n/a	n/a	n/a
3341.318	n/a	RECOG_TARGET	1670659	n/a	LTP141	ltpFR	16	5	0	COLLEGE	346	5	1	n/a	n/a	n/a	n/a	n/a
3341.834	n/a	RECOG_RESP	1670917	n/a	LTP141	ltpFR	16	5	0	COLLEGE	346	n/a	1	n/a	n/a	n/a	n/a	n/a
3342.486	n/a	RECOG_CONF	1671243	n/a	LTP141	ltpFR	16	5	0	COLLEGE	346	5	1	n/a	n/a	n/a	n/a	n/a
3343.884	n/a	RECOG_TARGET	1671942	n/a	LTP141	ltpFR	16	5	0	KITE	779	5	0	n/a	n/a	n/a	n/a	n/a
3344.432	n/a	RECOG_RESP	1672216	n/a	LTP141	ltpFR	16	5	0	KITE	779	n/a	0	n/a	n/a	n/a	n/a	n/a
3345.094	n/a	RECOG_CONF	1672547	n/a	LTP141	ltpFR	16	5	0	KITE	779	5	0	n/a	n/a	n/a	n/a	n/a
3346.416	n/a	RECOG_TARGET	1673208	n/a	LTP141	ltpFR	16	5	1	UTENSIL	1542	4	0	n/a	n/a	n/a	n/a	n/a
3347.018	n/a	RECOG_RESP	1673509	n/a	LTP141	ltpFR	16	5	1	UTENSIL	1542	n/a	0	n/a	n/a	n/a	n/a	n/a
3347.818	n/a	RECOG_CONF	1673909	n/a	LTP141	ltpFR	16	5	1	UTENSIL	1542	4	0	n/a	n/a	n/a	n/a	n/a
3349.074	n/a	RECOG_TARGET	1674537	n/a	LTP141	ltpFR	16	5	0	DANDRUFF	439	5	0	n/a	n/a	n/a	n/a	n/a
3349.552	n/a	RECOG_RESP	1674776	n/a	LTP141	ltpFR	16	5	0	DANDRUFF	439	n/a	0	n/a	n/a	n/a	n/a	n/a
3350.312	n/a	RECOG_CONF	1675156	n/a	LTP141	ltpFR	16	5	0	DANDRUFF	439	5	0	n/a	n/a	n/a	n/a	n/a
3356.484	n/a	REC_START	1678242	n/a	LTP141	ltpFR	16	6	n/a	n/a	n/a	n/a	n/a	n/a	n/a	n/a	n/a	n/a
3356.522	n/a	RECOG_LURE	1678261	n/a	LTP141	ltpFR	16	6	n/a	PELICAN	1039	4	n/a	n/a	n/a	n/a	n/a	n/a
3357.438	n/a	RECOG_RESP	1678719	n/a	LTP141	ltpFR	16	6	n/a	PELICAN	1039	n/a	n/a	n/a	n/a	n/a	n/a	n/a
3358.142	n/a	RECOG_CONF	1679071	n/a	LTP141	ltpFR	16	6	n/a	PELICAN	1039	4	n/a	n/a	n/a	n/a	n/a	n/a
3359.52	n/a	RECOG_LURE	1679760	n/a	LTP141	ltpFR	16	6	n/a	MOP	916	4	n/a	n/a	n/a	n/a	n/a	n/a
3360.204	n/a	RECOG_RESP	1680102	n/a	LTP141	ltpFR	16	6	n/a	MOP	916	n/a	n/a	n/a	n/a	n/a	n/a	n/a
3360.85	n/a	RECOG_CONF	1680425	n/a	LTP141	ltpFR	16	6	n/a	MOP	916	4	n/a	n/a	n/a	n/a	n/a	n/a
3362.304	n/a	RECOG_LURE	1681152	n/a	LTP141	ltpFR	16	6	n/a	WITCH	1617	5	n/a	n/a	n/a	n/a	n/a	n/a
3362.92	n/a	RECOG_RESP	1681460	n/a	LTP141	ltpFR	16	6	n/a	WITCH	1617	n/a	n/a	n/a	n/a	n/a	n/a	n/a
3363.554	n/a	RECOG_CONF	1681777	n/a	LTP141	ltpFR	16	6	n/a	WITCH	1617	5	n/a	n/a	n/a	n/a	n/a	n/a
3365.002	n/a	RECOG_TARGET	1682501	n/a	LTP141	ltpFR	16	6	0	WEED	1599	5	0	n/a	n/a	n/a	n/a	n/a
3365.536	n/a	RECOG_RESP	1682768	n/a	LTP141	ltpFR	16	6	0	WEED	1599	n/a	0	n/a	n/a	n/a	n/a	n/a
3366.206	n/a	RECOG_CONF	1683103	n/a	LTP141	ltpFR	16	6	0	WEED	1599	5	0	n/a	n/a	n/a	n/a	n/a
3367.56	n/a	RECOG_LURE	1683780	n/a	LTP141	ltpFR	16	6	n/a	SIBLING	1301	5	n/a	n/a	n/a	n/a	n/a	n/a
3368.112	n/a	RECOG_RESP	1684056	n/a	LTP141	ltpFR	16	6	n/a	SIBLING	1301	n/a	n/a	n/a	n/a	n/a	n/a	n/a
3368.75	n/a	RECOG_CONF	1684375	n/a	LTP141	ltpFR	16	6	n/a	SIBLING	1301	5	n/a	n/a	n/a	n/a	n/a	n/a
3370.11	n/a	RECOG_TARGET	1685055	n/a	LTP141	ltpFR	16	6	1	CONDUCTOR	362	5	1	n/a	n/a	n/a	n/a	n/a
3370.758	n/a	RECOG_RESP	1685379	n/a	LTP141	ltpFR	16	6	1	CONDUCTOR	362	n/a	1	n/a	n/a	n/a	n/a	n/a
3371.434	n/a	RECOG_CONF	1685717	n/a	LTP141	ltpFR	16	6	1	CONDUCTOR	362	5	1	n/a	n/a	n/a	n/a	n/a
3372.776	n/a	RECOG_LURE	1686388	n/a	LTP141	ltpFR	16	6	n/a	CHICKEN	297	3	n/a	n/a	n/a	n/a	n/a	n/a
3373.372	n/a	RECOG_RESP	1686686	n/a	LTP141	ltpFR	16	6	n/a	CHICKEN	297	n/a	n/a	n/a	n/a	n/a	n/a	n/a
3374.192	n/a	RECOG_CONF	1687096	n/a	LTP141	ltpFR	16	6	n/a	CHICKEN	297	3	n/a	n/a	n/a	n/a	n/a	n/a
3375.592	n/a	RECOG_TARGET	1687796	n/a	LTP141	ltpFR	16	6	-1	CUB	419	5	-1	n/a	n/a	n/a	n/a	n/a
3376.078	n/a	RECOG_RESP	1688039	n/a	LTP141	ltpFR	16	6	-1	CUB	419	n/a	-1	n/a	n/a	n/a	n/a	n/a
3376.664	n/a	RECOG_CONF	1688332	n/a	LTP141	ltpFR	16	6	-1	CUB	419	5	-1	n/a	n/a	n/a	n/a	n/a
3377.998	n/a	RECOG_LURE	1688999	n/a	LTP141	ltpFR	16	6	n/a	CACTUS	215	4	n/a	n/a	n/a	n/a	n/a	n/a
3378.566	n/a	RECOG_RESP_VV	1689283	n/a	LTP141	ltpFR	16	6	n/a	CACTUS	215	n/a	n/a	n/a	n/a	n/a	n/a	n/a
3379.33	n/a	RECOG_RESP	1689665	n/a	LTP141	ltpFR	16	6	n/a	CACTUS	215	n/a	n/a	n/a	n/a	n/a	n/a	n/a
3380.11	n/a	RECOG_CONF	1690055	n/a	LTP141	ltpFR	16	6	n/a	CACTUS	215	4	n/a	n/a	n/a	n/a	n/a	n/a
3381.548	n/a	RECOG_TARGET	1690774	n/a	LTP141	ltpFR	16	6	1	AWARD	63	4	0	n/a	n/a	n/a	n/a	n/a
3382.11	n/a	RECOG_RESP	1691055	n/a	LTP141	ltpFR	16	6	1	AWARD	63	n/a	0	n/a	n/a	n/a	n/a	n/a
3382.81	n/a	RECOG_CONF	1691405	n/a	LTP141	ltpFR	16	6	1	AWARD	63	4	0	n/a	n/a	n/a	n/a	n/a
3384.154	n/a	RECOG_LURE	1692077	n/a	LTP141	ltpFR	16	6	n/a	CRAYON	401	4	n/a	n/a	n/a	n/a	n/a	n/a
3384.728	n/a	RECOG_RESP	1692364	n/a	LTP141	ltpFR	16	6	n/a	CRAYON	401	n/a	n/a	n/a	n/a	n/a	n/a	n/a
3385.366	n/a	RECOG_CONF	1692683	n/a	LTP141	ltpFR	16	6	n/a	CRAYON	401	4	n/a	n/a	n/a	n/a	n/a	n/a
3386.754	n/a	RECOG_TARGET	1693377	n/a	LTP141	ltpFR	16	6	0	SUNSET	1408	5	1	n/a	n/a	n/a	n/a	n/a
3387.258	n/a	RECOG_RESP	1693629	n/a	LTP141	ltpFR	16	6	0	SUNSET	1408	n/a	1	n/a	n/a	n/a	n/a	n/a
3387.866	n/a	RECOG_CONF	1693933	n/a	LTP141	ltpFR	16	6	0	SUNSET	1408	5	1	n/a	n/a	n/a	n/a	n/a
3389.312	n/a	RECOG_LURE	1694656	n/a	LTP141	ltpFR	16	6	n/a	VILLAGE	1566	3	n/a	n/a	n/a	n/a	n/a	n/a
3391.356	n/a	RECOG_RESP	1695678	n/a	LTP141	ltpFR	16	6	n/a	VILLAGE	1566	n/a	n/a	n/a	n/a	n/a	n/a	n/a
3392.168	n/a	RECOG_CONF	1696084	n/a	LTP141	ltpFR	16	6	n/a	VILLAGE	1566	3	n/a	n/a	n/a	n/a	n/a	n/a
3393.536	n/a	RECOG_TARGET	1696768	n/a	LTP141	ltpFR	16	6	1	BLUEJAY	141	5	1	n/a	n/a	n/a	n/a	n/a
3394.122	n/a	RECOG_RESP	1697061	n/a	LTP141	ltpFR	16	6	1	BLUEJAY	141	n/a	1	n/a	n/a	n/a	n/a	n/a
3394.78	n/a	RECOG_CONF	1697390	n/a	LTP141	ltpFR	16	6	1	BLUEJAY	141	5	1	n/a	n/a	n/a	n/a	n/a
3396.234	n/a	RECOG_TARGET	1698117	n/a	LTP141	ltpFR	16	6	0	BATHTUB	100	4	1	n/a	n/a	n/a	n/a	n/a
3397.094	n/a	RECOG_RESP	1698547	n/a	LTP141	ltpFR	16	6	0	BATHTUB	100	n/a	1	n/a	n/a	n/a	n/a	n/a
3397.842	n/a	RECOG_CONF	1698921	n/a	LTP141	ltpFR	16	6	0	BATHTUB	100	4	1	n/a	n/a	n/a	n/a	n/a
3399.3	n/a	RECOG_TARGET	1699650	n/a	LTP141	ltpFR	16	6	1	STREAM	1392	4	0	n/a	n/a	n/a	n/a	n/a
3399.83	n/a	RECOG_RESP	1699915	n/a	LTP141	ltpFR	16	6	1	STREAM	1392	n/a	0	n/a	n/a	n/a	n/a	n/a
3400.53	n/a	RECOG_CONF	1700265	n/a	LTP141	ltpFR	16	6	1	STREAM	1392	4	0	n/a	n/a	n/a	n/a	n/a
3401.816	n/a	RECOG_TARGET	1700908	n/a	LTP141	ltpFR	16	6	0	HARE	688	4	0	n/a	n/a	n/a	n/a	n/a
3403.38	n/a	RECOG_RESP	1701690	n/a	LTP141	ltpFR	16	6	0	HARE	688	n/a	0	n/a	n/a	n/a	n/a	n/a
3404.146	n/a	RECOG_CONF	1702073	n/a	LTP141	ltpFR	16	6	0	HARE	688	4	0	n/a	n/a	n/a	n/a	n/a
3405.49	n/a	RECOG_TARGET	1702745	n/a	LTP141	ltpFR	16	6	1	MOTH	920	5	0	n/a	n/a	n/a	n/a	n/a
3406.068	n/a	RECOG_RESP	1703034	n/a	LTP141	ltpFR	16	6	1	MOTH	920	n/a	0	n/a	n/a	n/a	n/a	n/a
3406.786	n/a	RECOG_CONF	1703393	n/a	LTP141	ltpFR	16	6	1	MOTH	920	5	0	n/a	n/a	n/a	n/a	n/a
3408.164	n/a	RECOG_TARGET	1704082	n/a	LTP141	ltpFR	16	6	0	REFEREE	1178	3	1	n/a	n/a	n/a	n/a	n/a
3408.638	n/a	RECOG_RESP	1704319	n/a	LTP141	ltpFR	16	6	0	REFEREE	1178	n/a	1	n/a	n/a	n/a	n/a	n/a
3409.398	n/a	RECOG_CONF	1704699	n/a	LTP141	ltpFR	16	6	0	REFEREE	1178	3	1	n/a	n/a	n/a	n/a	n/a
3410.772	n/a	RECOG_TARGET	1705386	n/a	LTP141	ltpFR	16	6	-1	CAPTIVE	240	5	-1	n/a	n/a	n/a	n/a	n/a
3411.308	n/a	RECOG_RESP	1705654	n/a	LTP141	ltpFR	16	6	-1	CAPTIVE	240	n/a	-1	n/a	n/a	n/a	n/a	n/a
3412.086	n/a	RECOG_CONF	1706043	n/a	LTP141	ltpFR	16	6	-1	CAPTIVE	240	5	-1	n/a	n/a	n/a	n/a	n/a
3414.826	n/a	REC_START	1707413	n/a	LTP141	ltpFR	16	7	n/a	n/a	n/a	n/a	n/a	n/a	n/a	n/a	n/a	n/a
3414.862	n/a	RECOG_TARGET	1707431	n/a	LTP141	ltpFR	16	7	1	ROCK	1201	3	0	n/a	n/a	n/a	n/a	n/a
3415.808	n/a	RECOG_RESP	1707904	n/a	LTP141	ltpFR	16	7	1	ROCK	1201	n/a	0	n/a	n/a	n/a	n/a	n/a
3417.558	n/a	RECOG_CONF	1708779	n/a	LTP141	ltpFR	16	7	1	ROCK	1201	3	0	n/a	n/a	n/a	n/a	n/a
3418.928	n/a	RECOG_TARGET	1709464	n/a	LTP141	ltpFR	16	7	-1	ACID	2	5	-1	n/a	n/a	n/a	n/a	n/a
3419.47	n/a	RECOG_RESP	1709735	n/a	LTP141	ltpFR	16	7	-1	ACID	2	n/a	-1	n/a	n/a	n/a	n/a	n/a
3420.14	n/a	RECOG_CONF	1710070	n/a	LTP141	ltpFR	16	7	-1	ACID	2	5	-1	n/a	n/a	n/a	n/a	n/a
3421.518	n/a	RECOG_LURE	1710759	n/a	LTP141	ltpFR	16	7	n/a	COMPANION	357	4	n/a	n/a	n/a	n/a	n/a	n/a
3422.052	n/a	RECOG_RESP_VV	1711026	n/a	LTP141	ltpFR	16	7	n/a	COMPANION	357	n/a	n/a	n/a	n/a	n/a	n/a	n/a
3422.752	n/a	RECOG_RESP	1711376	n/a	LTP141	ltpFR	16	7	n/a	COMPANION	357	n/a	n/a	n/a	n/a	n/a	n/a	n/a
3423.428	n/a	RECOG_CONF	1711714	n/a	LTP141	ltpFR	16	7	n/a	COMPANION	357	4	n/a	n/a	n/a	n/a	n/a	n/a
3424.826	n/a	RECOG_TARGET	1712413	n/a	LTP141	ltpFR	16	7	-1	OUTLAW	989	5	-1	n/a	n/a	n/a	n/a	n/a
3425.376	n/a	RECOG_RESP	1712688	n/a	LTP141	ltpFR	16	7	-1	OUTLAW	989	n/a	-1	n/a	n/a	n/a	n/a	n/a
3426.11	n/a	RECOG_CONF	1713055	n/a	LTP141	ltpFR	16	7	-1	OUTLAW	989	5	-1	n/a	n/a	n/a	n/a	n/a
3427.426	n/a	RECOG_TARGET	1713713	n/a	LTP141	ltpFR	16	7	1	LABEL	790	5	0	n/a	n/a	n/a	n/a	n/a
3427.914	n/a	RECOG_RESP	1713957	n/a	LTP141	ltpFR	16	7	1	LABEL	790	n/a	0	n/a	n/a	n/a	n/a	n/a
3428.53	n/a	RECOG_CONF	1714265	n/a	LTP141	ltpFR	16	7	1	LABEL	790	5	0	n/a	n/a	n/a	n/a	n/a
3429.792	n/a	RECOG_LURE	1714896	n/a	LTP141	ltpFR	16	7	n/a	NECK	939	5	n/a	n/a	n/a	n/a	n/a	n/a
3430.434	n/a	RECOG_RESP	1715217	n/a	LTP141	ltpFR	16	7	n/a	NECK	939	n/a	n/a	n/a	n/a	n/a	n/a	n/a
3431.102	n/a	RECOG_CONF	1715551	n/a	LTP141	ltpFR	16	7	n/a	NECK	939	5	n/a	n/a	n/a	n/a	n/a	n/a
3432.508	n/a	RECOG_TARGET	1716254	n/a	LTP141	ltpFR	16	7	1	OPERA	978	5	0	n/a	n/a	n/a	n/a	n/a
3433.008	n/a	RECOG_RESP	1716504	n/a	LTP141	ltpFR	16	7	1	OPERA	978	n/a	0	n/a	n/a	n/a	n/a	n/a
3433.648	n/a	RECOG_CONF	1716824	n/a	LTP141	ltpFR	16	7	1	OPERA	978	5	0	n/a	n/a	n/a	n/a	n/a
3435.014	n/a	RECOG_TARGET	1717507	n/a	LTP141	ltpFR	16	7	-1	MISTER	901	5	-1	n/a	n/a	n/a	n/a	n/a
3435.488	n/a	RECOG_RESP	1717744	n/a	LTP141	ltpFR	16	7	-1	MISTER	901	n/a	-1	n/a	n/a	n/a	n/a	n/a
3436.094	n/a	RECOG_CONF	1718047	n/a	LTP141	ltpFR	16	7	-1	MISTER	901	5	-1	n/a	n/a	n/a	n/a	n/a
3437.488	n/a	RECOG_TARGET	1718744	n/a	LTP141	ltpFR	16	7	0	SQUID	1361	5	1	n/a	n/a	n/a	n/a	n/a
3437.962	n/a	RECOG_RESP	1718981	n/a	LTP141	ltpFR	16	7	0	SQUID	1361	n/a	1	n/a	n/a	n/a	n/a	n/a
3438.528	n/a	RECOG_CONF	1719264	n/a	LTP141	ltpFR	16	7	0	SQUID	1361	5	1	n/a	n/a	n/a	n/a	n/a
3439.972	n/a	RECOG_TARGET	1719986	n/a	LTP141	ltpFR	16	7	1	ALLIGATOR	16	5	1	n/a	n/a	n/a	n/a	n/a
3440.452	n/a	RECOG_RESP	1720226	n/a	LTP141	ltpFR	16	7	1	ALLIGATOR	16	n/a	1	n/a	n/a	n/a	n/a	n/a
3441.102	n/a	RECOG_CONF	1720551	n/a	LTP141	ltpFR	16	7	1	ALLIGATOR	16	5	1	n/a	n/a	n/a	n/a	n/a
3442.504	n/a	RECOG_LURE	1721252	n/a	LTP141	ltpFR	16	7	n/a	ORCHID	982	5	n/a	n/a	n/a	n/a	n/a	n/a
3443.154	n/a	RECOG_RESP	1721577	n/a	LTP141	ltpFR	16	7	n/a	ORCHID	982	n/a	n/a	n/a	n/a	n/a	n/a	n/a
3443.81	n/a	RECOG_CONF	1721905	n/a	LTP141	ltpFR	16	7	n/a	ORCHID	982	5	n/a	n/a	n/a	n/a	n/a	n/a
3445.22	n/a	RECOG_TARGET	1722610	n/a	LTP141	ltpFR	16	7	0	FEATHER	557	5	0	n/a	n/a	n/a	n/a	n/a
3445.952	n/a	RECOG_RESP	1722976	n/a	LTP141	ltpFR	16	7	0	FEATHER	557	n/a	0	n/a	n/a	n/a	n/a	n/a
3446.52	n/a	RECOG_CONF	1723260	n/a	LTP141	ltpFR	16	7	0	FEATHER	557	5	0	n/a	n/a	n/a	n/a	n/a
3447.886	n/a	RECOG_TARGET	1723943	n/a	LTP141	ltpFR	16	7	0	POTATO	1115	5	0	n/a	n/a	n/a	n/a	n/a
3448.374	n/a	RECOG_RESP	1724187	n/a	LTP141	ltpFR	16	7	0	POTATO	1115	n/a	0	n/a	n/a	n/a	n/a	n/a
3449.084	n/a	RECOG_CONF	1724542	n/a	LTP141	ltpFR	16	7	0	POTATO	1115	5	0	n/a	n/a	n/a	n/a	n/a
3450.36	n/a	RECOG_TARGET	1725180	n/a	LTP141	ltpFR	16	7	0	KID	775	5	1	n/a	n/a	n/a	n/a	n/a
3450.866	n/a	RECOG_RESP	1725433	n/a	LTP141	ltpFR	16	7	0	KID	775	n/a	1	n/a	n/a	n/a	n/a	n/a
3451.658	n/a	RECOG_CONF	1725829	n/a	LTP141	ltpFR	16	7	0	KID	775	5	1	n/a	n/a	n/a	n/a	n/a
3452.81	n/a	RECOG_LURE	1726405	n/a	LTP141	ltpFR	16	7	n/a	ARTERY	41	4	n/a	n/a	n/a	n/a	n/a	n/a
3453.45	n/a	RECOG_RESP	1726725	n/a	LTP141	ltpFR	16	7	n/a	ARTERY	41	n/a	n/a	n/a	n/a	n/a	n/a	n/a
3454.322	n/a	RECOG_CONF	1727161	n/a	LTP141	ltpFR	16	7	n/a	ARTERY	41	4	n/a	n/a	n/a	n/a	n/a	n/a
3455.542	n/a	RECOG_LURE	1727771	n/a	LTP141	ltpFR	16	7	n/a	PIT	1077	3	n/a	n/a	n/a	n/a	n/a	n/a
3456.178	n/a	RECOG_RESP	1728089	n/a	LTP141	ltpFR	16	7	n/a	PIT	1077	n/a	n/a	n/a	n/a	n/a	n/a	n/a
3456.98	n/a	RECOG_CONF	1728490	n/a	LTP141	ltpFR	16	7	n/a	PIT	1077	3	n/a	n/a	n/a	n/a	n/a	n/a
3458.356	n/a	RECOG_TARGET	1729178	n/a	LTP141	ltpFR	16	7	1	VET	1560	5	1	n/a	n/a	n/a	n/a	n/a
3458.97	n/a	RECOG_RESP	1729485	n/a	LTP141	ltpFR	16	7	1	VET	1560	n/a	1	n/a	n/a	n/a	n/a	n/a
3459.69	n/a	RECOG_CONF	1729845	n/a	LTP141	ltpFR	16	7	1	VET	1560	5	1	n/a	n/a	n/a	n/a	n/a
3461.032	n/a	RECOG_LURE	1730516	n/a	LTP141	ltpFR	16	7	n/a	GOLD	647	5	n/a	n/a	n/a	n/a	n/a	n/a
3461.59	n/a	RECOG_RESP	1730795	n/a	LTP141	ltpFR	16	7	n/a	GOLD	647	n/a	n/a	n/a	n/a	n/a	n/a	n/a
3462.404	n/a	RECOG_CONF	1731202	n/a	LTP141	ltpFR	16	7	n/a	GOLD	647	5	n/a	n/a	n/a	n/a	n/a	n/a
3463.59	n/a	RECOG_TARGET	1731795	n/a	LTP141	ltpFR	16	7	-1	AUTOMOBILE	62	5	-1	n/a	n/a	n/a	n/a	n/a
3466.792	n/a	RECOG_RESP	1733396	n/a	LTP141	ltpFR	16	7	-1	AUTOMOBILE	62	n/a	-1	n/a	n/a	n/a	n/a	n/a
3467.468	n/a	RECOG_CONF	1733734	n/a	LTP141	ltpFR	16	7	-1	AUTOMOBILE	62	5	-1	n/a	n/a	n/a	n/a	n/a
3468.88	n/a	RECOG_TARGET	1734440	n/a	LTP141	ltpFR	16	7	0	LAGOON	795	5	1	n/a	n/a	n/a	n/a	n/a
3469.408	n/a	RECOG_RESP	1734704	n/a	LTP141	ltpFR	16	7	0	LAGOON	795	n/a	1	n/a	n/a	n/a	n/a	n/a
3470.178	n/a	RECOG_CONF	1735089	n/a	LTP141	ltpFR	16	7	0	LAGOON	795	5	1	n/a	n/a	n/a	n/a	n/a
3473.442	n/a	REC_START	1736721	n/a	LTP141	ltpFR	16	8	n/a	n/a	n/a	n/a	n/a	n/a	n/a	n/a	n/a	n/a
3473.478	n/a	RECOG_TARGET	1736739	n/a	LTP141	ltpFR	16	8	1	BUTTERFLY	206	5	1	n/a	n/a	n/a	n/a	n/a
3474.034	n/a	RECOG_RESP	1737017	n/a	LTP141	ltpFR	16	8	1	BUTTERFLY	206	n/a	1	n/a	n/a	n/a	n/a	n/a
3474.71	n/a	RECOG_CONF	1737355	n/a	LTP141	ltpFR	16	8	1	BUTTERFLY	206	5	1	n/a	n/a	n/a	n/a	n/a
3476.052	n/a	RECOG_LURE	1738026	n/a	LTP141	ltpFR	16	8	n/a	COOKIE	374	4	n/a	n/a	n/a	n/a	n/a	n/a
3476.48	n/a	RECOG_RESP_VV	1738240	n/a	LTP141	ltpFR	16	8	n/a	COOKIE	374	n/a	n/a	n/a	n/a	n/a	n/a	n/a
3477.162	n/a	RECOG_RESP	1738581	n/a	LTP141	ltpFR	16	8	n/a	COOKIE	374	n/a	n/a	n/a	n/a	n/a	n/a	n/a
3477.986	n/a	RECOG_CONF	1738993	n/a	LTP141	ltpFR	16	8	n/a	COOKIE	374	4	n/a	n/a	n/a	n/a	n/a	n/a
3479.318	n/a	RECOG_LURE	1739659	n/a	LTP141	ltpFR	16	8	n/a	BOARD	143	4	n/a	n/a	n/a	n/a	n/a	n/a
3480.198	n/a	RECOG_RESP	1740099	n/a	LTP141	ltpFR	16	8	n/a	BOARD	143	n/a	n/a	n/a	n/a	n/a	n/a	n/a
3480.99	n/a	RECOG_CONF	1740495	n/a	LTP141	ltpFR	16	8	n/a	BOARD	143	4	n/a	n/a	n/a	n/a	n/a	n/a
3482.21	n/a	RECOG_LURE	1741105	n/a	LTP141	ltpFR	16	8	n/a	QUEEN	1149	3	n/a	n/a	n/a	n/a	n/a	n/a
3482.714	n/a	RECOG_RESP	1741357	n/a	LTP141	ltpFR	16	8	n/a	QUEEN	1149	n/a	n/a	n/a	n/a	n/a	n/a	n/a
3483.654	n/a	RECOG_CONF	1741827	n/a	LTP141	ltpFR	16	8	n/a	QUEEN	1149	3	n/a	n/a	n/a	n/a	n/a	n/a
3485.1	n/a	RECOG_TARGET	1742550	n/a	LTP141	ltpFR	16	8	-1	EARTH	515	4	-1	n/a	n/a	n/a	n/a	n/a
3485.7	n/a	RECOG_RESP	1742850	n/a	LTP141	ltpFR	16	8	-1	EARTH	515	n/a	-1	n/a	n/a	n/a	n/a	n/a
3486.41	n/a	RECOG_CONF	1743205	n/a	LTP141	ltpFR	16	8	-1	EARTH	515	4	-1	n/a	n/a	n/a	n/a	n/a
3487.816	n/a	RECOG_TARGET	1743908	n/a	LTP141	ltpFR	16	8	0	FRIAR	605	5	1	n/a	n/a	n/a	n/a	n/a
3488.262	n/a	RECOG_RESP	1744131	n/a	LTP141	ltpFR	16	8	0	FRIAR	605	n/a	1	n/a	n/a	n/a	n/a	n/a
3488.876	n/a	RECOG_CONF	1744438	n/a	LTP141	ltpFR	16	8	0	FRIAR	605	5	1	n/a	n/a	n/a	n/a	n/a
3490.414	n/a	RECOG_TARGET	1745207	n/a	LTP141	ltpFR	16	8	0	SHRUB	1299	4	1	n/a	n/a	n/a	n/a	n/a
3490.972	n/a	RECOG_RESP	1745486	n/a	LTP141	ltpFR	16	8	0	SHRUB	1299	n/a	1	n/a	n/a	n/a	n/a	n/a
3491.756	n/a	RECOG_CONF	1745878	n/a	LTP141	ltpFR	16	8	0	SHRUB	1299	4	1	n/a	n/a	n/a	n/a	n/a
3493.106	n/a	RECOG_TARGET	1746553	n/a	LTP141	ltpFR	16	8	1	TOOTHBRUSH	1482	5	0	n/a	n/a	n/a	n/a	n/a
3493.556	n/a	RECOG_RESP	1746778	n/a	LTP141	ltpFR	16	8	1	TOOTHBRUSH	1482	n/a	0	n/a	n/a	n/a	n/a	n/a
3494.13	n/a	RECOG_CONF	1747065	n/a	LTP141	ltpFR	16	8	1	TOOTHBRUSH	1482	5	0	n/a	n/a	n/a	n/a	n/a
3495.546	n/a	RECOG_TARGET	1747773	n/a	LTP141	ltpFR	16	8	1	LIST	830	3	0	n/a	n/a	n/a	n/a	n/a
3496.124	n/a	RECOG_RESP	1748062	n/a	LTP141	ltpFR	16	8	1	LIST	830	n/a	0	n/a	n/a	n/a	n/a	n/a
3496.954	n/a	RECOG_CONF	1748477	n/a	LTP141	ltpFR	16	8	1	LIST	830	3	0	n/a	n/a	n/a	n/a	n/a
3498.204	n/a	RECOG_TARGET	1749102	n/a	LTP141	ltpFR	16	8	0	MAGICIAN	854	4	1	n/a	n/a	n/a	n/a	n/a
3498.748	n/a	RECOG_RESP	1749374	n/a	LTP141	ltpFR	16	8	0	MAGICIAN	854	n/a	1	n/a	n/a	n/a	n/a	n/a
3499.43	n/a	RECOG_CONF	1749715	n/a	LTP141	ltpFR	16	8	0	MAGICIAN	854	4	1	n/a	n/a	n/a	n/a	n/a
3500.82	n/a	RECOG_TARGET	1750410	n/a	LTP141	ltpFR	16	8	1	BRANCH	168	5	1	n/a	n/a	n/a	n/a	n/a
3501.34	n/a	RECOG_RESP	1750670	n/a	LTP141	ltpFR	16	8	1	BRANCH	168	n/a	1	n/a	n/a	n/a	n/a	n/a
3501.978	n/a	RECOG_CONF	1750989	n/a	LTP141	ltpFR	16	8	1	BRANCH	168	5	1	n/a	n/a	n/a	n/a	n/a
3503.334	n/a	RECOG_TARGET	1751667	n/a	LTP141	ltpFR	16	8	-1	LEOPARD	812	4	-1	n/a	n/a	n/a	n/a	n/a
3503.972	n/a	RECOG_RESP	1751986	n/a	LTP141	ltpFR	16	8	-1	LEOPARD	812	n/a	-1	n/a	n/a	n/a	n/a	n/a
3504.606	n/a	RECOG_CONF	1752303	n/a	LTP141	ltpFR	16	8	-1	LEOPARD	812	4	-1	n/a	n/a	n/a	n/a	n/a
3505.986	n/a	RECOG_TARGET	1752993	n/a	LTP141	ltpFR	16	8	1	DART	440	5	0	n/a	n/a	n/a	n/a	n/a
3506.638	n/a	RECOG_RESP	1753319	n/a	LTP141	ltpFR	16	8	1	DART	440	n/a	0	n/a	n/a	n/a	n/a	n/a
3507.224	n/a	RECOG_CONF	1753612	n/a	LTP141	ltpFR	16	8	1	DART	440	5	0	n/a	n/a	n/a	n/a	n/a
3508.6	n/a	RECOG_TARGET	1754300	n/a	LTP141	ltpFR	16	8	1	PRISON	1127	3	0	n/a	n/a	n/a	n/a	n/a
3509.042	n/a	RECOG_RESP	1754521	n/a	LTP141	ltpFR	16	8	1	PRISON	1127	n/a	0	n/a	n/a	n/a	n/a	n/a
3509.986	n/a	RECOG_CONF	1754993	n/a	LTP141	ltpFR	16	8	1	PRISON	1127	3	0	n/a	n/a	n/a	n/a	n/a
3511.392	n/a	RECOG_TARGET	1755696	n/a	LTP141	ltpFR	16	8	0	TOY	1492	5	0	n/a	n/a	n/a	n/a	n/a
3511.886	n/a	RECOG_RESP	1755943	n/a	LTP141	ltpFR	16	8	0	TOY	1492	n/a	0	n/a	n/a	n/a	n/a	n/a
3512.62	n/a	RECOG_CONF	1756310	n/a	LTP141	ltpFR	16	8	0	TOY	1492	5	0	n/a	n/a	n/a	n/a	n/a
3513.908	n/a	RECOG_LURE	1756954	n/a	LTP141	ltpFR	16	8	n/a	BREAST	171	4	n/a	n/a	n/a	n/a	n/a	n/a
3514.486	n/a	RECOG_RESP_VV	1757243	n/a	LTP141	ltpFR	16	8	n/a	BREAST	171	n/a	n/a	n/a	n/a	n/a	n/a	n/a
3515.24	n/a	RECOG_RESP	1757620	n/a	LTP141	ltpFR	16	8	n/a	BREAST	171	n/a	n/a	n/a	n/a	n/a	n/a	n/a
3516.092	n/a	RECOG_CONF	1758046	n/a	LTP141	ltpFR	16	8	n/a	BREAST	171	4	n/a	n/a	n/a	n/a	n/a	n/a
3517.364	n/a	RECOG_TARGET	1758682	n/a	LTP141	ltpFR	16	8	1	WAREHOUSE	1588	5	0	n/a	n/a	n/a	n/a	n/a
3518.208	n/a	RECOG_RESP	1759104	n/a	LTP141	ltpFR	16	8	1	WAREHOUSE	1588	n/a	0	n/a	n/a	n/a	n/a	n/a
3518.802	n/a	RECOG_CONF	1759401	n/a	LTP141	ltpFR	16	8	1	WAREHOUSE	1588	5	0	n/a	n/a	n/a	n/a	n/a
3520.14	n/a	RECOG_LURE	1760070	n/a	LTP141	ltpFR	16	8	n/a	MAILBOX	857	3	n/a	n/a	n/a	n/a	n/a	n/a
3520.872	n/a	RECOG_RESP	1760436	n/a	LTP141	ltpFR	16	8	n/a	MAILBOX	857	n/a	n/a	n/a	n/a	n/a	n/a	n/a
3521.588	n/a	RECOG_CONF	1760794	n/a	LTP141	ltpFR	16	8	n/a	MAILBOX	857	3	n/a	n/a	n/a	n/a	n/a	n/a
3523.03	n/a	RECOG_TARGET	1761515	n/a	LTP141	ltpFR	16	8	1	MERMAID	887	5	1	n/a	n/a	n/a	n/a	n/a
3523.562	n/a	RECOG_RESP	1761781	n/a	LTP141	ltpFR	16	8	1	MERMAID	887	n/a	1	n/a	n/a	n/a	n/a	n/a
