onset	duration	trial_type	sample	stim_file	subject	experiment	session	trial	task	item_name	item_num	recog_resp	recog_conf	resp	answer	test_x	test_y	test_z	color_r	color_g	color_b	case	font
241.168	n/a	SESS_START	120584	n/a	LTP136	ltpFR	8	n/a	n/a	n/a	n/a	1	4	n/a	n/a	0	0	0	n/a	n/a	n/a	n/a	n/a
264.582	n/a	START	132291	n/a	LTP136	ltpFR	8	n/a	n/a	n/a	n/a	n/a	n/a	n/a	n/a	n/a	n/a	n/a	n/a	n/a	n/a	n/a	n/a
264.606	n/a	PROB	132303	n/a	LTP136	ltpFR	8	n/a	n/a	n/a	n/a	n/a	n/a	n/a	15	5	1	9	n/a	n/a	n/a	n/a	n/a
269.154	n/a	PROB	134577	n/a	LTP136	ltpFR	8	n/a	n/a	n/a	n/a	n/a	n/a	n/a	22	6	7	9	n/a	n/a	n/a	n/a	n/a
273.012	n/a	PROB	136506	n/a	LTP136	ltpFR	8	n/a	n/a	n/a	n/a	n/a	n/a	n/a	18	9	2	8	n/a	n/a	n/a	n/a	n/a
274.812	n/a	PROB	137406	n/a	LTP136	ltpFR	8	n/a	n/a	n/a	n/a	n/a	n/a	n/a	7	2	1	4	n/a	n/a	n/a	n/a	n/a
276.978	n/a	PROB	138489	n/a	LTP136	ltpFR	8	n/a	n/a	n/a	n/a	n/a	n/a	n/a	33	5	8	9	n/a	n/a	n/a	n/a	n/a
281.284	n/a	PROB	140642	n/a	LTP136	ltpFR	8	n/a	n/a	n/a	n/a	n/a	n/a	n/a	14	5	2	7	n/a	n/a	n/a	n/a	n/a
283.494	n/a	STOP	141747	n/a	LTP136	ltpFR	8	n/a	n/a	n/a	n/a	n/a	n/a	n/a	n/a	n/a	n/a	n/a	n/a	n/a	n/a	n/a	n/a
306.442	n/a	WORD	153221	wordpools/wasnorm_wordpool.txt	LTP136	ltpFR	8	1	0	GIFT	635	1	n/a	1	n/a	0	0	0	0.57763671875	0.412841796875	1	lower	zerothre.ttf
310.416	n/a	WORD	155208	wordpools/wasnorm_wordpool.txt	LTP136	ltpFR	8	1	0	NURSE	963	n/a	n/a	0	n/a	0	0	0	0.57763671875	0.412841796875	1	lower	zerothre.ttf
314.566	n/a	WORD	157283	wordpools/wasnorm_wordpool.txt	LTP136	ltpFR	8	1	0	TYPIST	1532	n/a	n/a	0	n/a	0	0	0	0.57763671875	0.412841796875	1	lower	zerothre.ttf
318.514	n/a	WORD	159257	wordpools/wasnorm_wordpool.txt	LTP136	ltpFR	8	1	0	SCOTCH	1251	n/a	n/a	0	n/a	0	0	0	0.57763671875	0.412841796875	1	lower	zerothre.ttf
322.372	n/a	WORD	161186	wordpools/wasnorm_wordpool.txt	LTP136	ltpFR	8	1	1	COCKTAIL	338	n/a	n/a	0	n/a	0	0	0	0.422607421875	0.5869140625	0	upper	amplitud.ttf
326.286	n/a	WORD	163143	wordpools/wasnorm_wordpool.txt	LTP136	ltpFR	8	1	1	NEPTUNE	943	n/a	n/a	0	n/a	0	0	0	0.422607421875	0.5869140625	0	upper	amplitud.ttf
330.354	n/a	WORD	165177	wordpools/wasnorm_wordpool.txt	LTP136	ltpFR	8	1	1	ISLAND	745	n/a	n/a	0	n/a	0	0	0	0.422607421875	0.5869140625	0	upper	amplitud.ttf
334.518	n/a	WORD	167259	wordpools/wasnorm_wordpool.txt	LTP136	ltpFR	8	1	1	GULL	671	n/a	n/a	0	n/a	0	0	0	0.422607421875	0.5869140625	0	upper	amplitud.ttf
338.56	n/a	WORD	169280	wordpools/wasnorm_wordpool.txt	LTP136	ltpFR	8	1	0	SAXOPHONE	1240	n/a	n/a	0	n/a	0	0	0	0.57763671875	0.412841796875	1	lower	zerothre.ttf
342.592	n/a	WORD	171296	wordpools/wasnorm_wordpool.txt	LTP136	ltpFR	8	1	0	WAITER	1580	n/a	n/a	0	n/a	0	0	0	0.57763671875	0.412841796875	1	lower	zerothre.ttf
346.648	n/a	WORD	173324	wordpools/wasnorm_wordpool.txt	LTP136	ltpFR	8	1	0	SCRIBBLE	1256	n/a	n/a	1	n/a	0	0	0	0.57763671875	0.412841796875	1	lower	zerothre.ttf
350.782	n/a	WORD	175391	wordpools/wasnorm_wordpool.txt	LTP136	ltpFR	8	1	0	BUTCHER	203	n/a	n/a	0	n/a	0	0	0	0.57763671875	0.412841796875	1	lower	zerothre.ttf
354.738	n/a	WORD	177369	wordpools/wasnorm_wordpool.txt	LTP136	ltpFR	8	1	1	RAZOR	1171	n/a	n/a	0	n/a	0	0	0	0.422607421875	0.5869140625	0	upper	amplitud.ttf
358.86	n/a	WORD	179430	wordpools/wasnorm_wordpool.txt	LTP136	ltpFR	8	1	1	CONCERT	360	n/a	n/a	0	n/a	0	0	0	0.422607421875	0.5869140625	0	upper	amplitud.ttf
362.868	n/a	WORD	181434	wordpools/wasnorm_wordpool.txt	LTP136	ltpFR	8	1	1	THORN	1459	n/a	n/a	1	n/a	0	0	0	0.422607421875	0.5869140625	0	upper	amplitud.ttf
366.858	n/a	WORD	183429	wordpools/wasnorm_wordpool.txt	LTP136	ltpFR	8	1	1	MAID	856	n/a	n/a	0	n/a	0	0	0	0.422607421875	0.5869140625	0	upper	amplitud.ttf
369.866	n/a	START	184933	n/a	LTP136	ltpFR	8	n/a	n/a	n/a	n/a	n/a	n/a	n/a	n/a	n/a	n/a	n/a	n/a	n/a	n/a	n/a	n/a
371.024	n/a	PROB	185512	n/a	LTP136	ltpFR	8	n/a	n/a	n/a	n/a	n/a	n/a	n/a	22	6	7	9	n/a	n/a	n/a	n/a	n/a
373.964	n/a	PROB	186982	n/a	LTP136	ltpFR	8	n/a	n/a	n/a	n/a	n/a	n/a	n/a	16	2	6	8	n/a	n/a	n/a	n/a	n/a
376.49	n/a	STOP	188245	n/a	LTP136	ltpFR	8	n/a	n/a	n/a	n/a	n/a	n/a	n/a	n/a	n/a	n/a	n/a	n/a	n/a	n/a	n/a	n/a
379.748	n/a	REC_START	189874	n/a	LTP136	ltpFR	8	1	n/a	n/a	n/a	n/a	n/a	n/a	n/a	0	0	0	n/a	n/a	n/a	n/a	n/a
380.434	n/a	REC_WORD	190217	wordpools/wasnorm_wordpool.txt	LTP136	ltpFR	8	1	1	RAZOR	1171	n/a	n/a	0	n/a	0	0	0	n/a	n/a	n/a	n/a	n/a
381.752	n/a	REC_WORD	190876	wordpools/wasnorm_wordpool.txt	LTP136	ltpFR	8	1	1	CONCERT	360	n/a	n/a	0	n/a	0	0	0	n/a	n/a	n/a	n/a	n/a
383.21	n/a	REC_WORD	191605	wordpools/wasnorm_wordpool.txt	LTP136	ltpFR	8	1	1	MAID	856	n/a	n/a	0	n/a	0	0	0	n/a	n/a	n/a	n/a	n/a
384.76	n/a	REC_WORD	192380	wordpools/wasnorm_wordpool.txt	LTP136	ltpFR	8	1	1	GULL	671	n/a	n/a	0	n/a	0	0	0	n/a	n/a	n/a	n/a	n/a
388.014	n/a	REC_WORD	194007	wordpools/wasnorm_wordpool.txt	LTP136	ltpFR	8	1	0	TYPIST	1532	n/a	n/a	0	n/a	0	0	0	n/a	n/a	n/a	n/a	n/a
389.872	n/a	REC_WORD	194936	wordpools/wasnorm_wordpool.txt	LTP136	ltpFR	8	1	0	SAXOPHONE	1240	n/a	n/a	0	n/a	0	0	0	n/a	n/a	n/a	n/a	n/a
401.922	n/a	REC_WORD	200961	wordpools/wasnorm_wordpool.txt	LTP136	ltpFR	8	1	0	SCRIBBLE	1256	n/a	n/a	1	n/a	0	0	0	n/a	n/a	n/a	n/a	n/a
431.588	n/a	REC_WORD	215794	wordpools/wasnorm_wordpool.txt	LTP136	ltpFR	8	1	1	NEPTUNE	943	n/a	n/a	0	n/a	0	0	0	n/a	n/a	n/a	n/a	n/a
457.348	n/a	START	228674	n/a	LTP136	ltpFR	8	n/a	n/a	n/a	n/a	n/a	n/a	n/a	n/a	n/a	n/a	n/a	n/a	n/a	n/a	n/a	n/a
458.856	n/a	PROB	229428	n/a	LTP136	ltpFR	8	n/a	n/a	n/a	n/a	n/a	n/a	n/a	12	4	1	7	n/a	n/a	n/a	n/a	n/a
461.846	n/a	PROB	230923	n/a	LTP136	ltpFR	8	n/a	n/a	n/a	n/a	n/a	n/a	n/a	18	7	2	9	n/a	n/a	n/a	n/a	n/a
464.264	n/a	STOP	232132	n/a	LTP136	ltpFR	8	n/a	n/a	n/a	n/a	n/a	n/a	n/a	n/a	n/a	n/a	n/a	n/a	n/a	n/a	n/a	n/a
466.162	n/a	WORD	233081	wordpools/wasnorm_wordpool.txt	LTP136	ltpFR	8	2	1	ELECTRON	522	n/a	n/a	2	n/a	0	0	0	0.422607421875	0.5869140625	0	upper	amplitud.ttf
466.97	n/a	KEY_MSG	233485	n/a	LTP136	ltpFR	8	2	n/a	n/a	n/a	n/a	n/a	n/a	n/a	0	0	0	n/a	n/a	n/a	n/a	n/a
469.17	n/a	START	234585	n/a	LTP136	ltpFR	8	n/a	n/a	n/a	n/a	n/a	n/a	n/a	n/a	n/a	n/a	n/a	n/a	n/a	n/a	n/a	n/a
470.028	n/a	PROB	235014	n/a	LTP136	ltpFR	8	n/a	n/a	n/a	n/a	n/a	n/a	n/a	16	6	6	4	n/a	n/a	n/a	n/a	n/a
472.71	n/a	PROB	236355	n/a	LTP136	ltpFR	8	n/a	n/a	n/a	n/a	n/a	n/a	n/a	17	9	3	5	n/a	n/a	n/a	n/a	n/a
477.17	n/a	STOP	238585	n/a	LTP136	ltpFR	8	n/a	n/a	n/a	n/a	n/a	n/a	n/a	n/a	n/a	n/a	n/a	n/a	n/a	n/a	n/a	n/a
478.35	n/a	WORD	239175	wordpools/wasnorm_wordpool.txt	LTP136	ltpFR	8	2	1	CALENDAR	221	n/a	n/a	0	n/a	0	0	0	0.422607421875	0.5869140625	0	upper	amplitud.ttf
481.356	n/a	START	240678	n/a	LTP136	ltpFR	8	n/a	n/a	n/a	n/a	n/a	n/a	n/a	n/a	n/a	n/a	n/a	n/a	n/a	n/a	n/a	n/a
482.272	n/a	PROB	241136	n/a	LTP136	ltpFR	8	n/a	n/a	n/a	n/a	n/a	n/a	n/a	21	4	9	8	n/a	n/a	n/a	n/a	n/a
484.49	n/a	PROB	242245	n/a	LTP136	ltpFR	8	n/a	n/a	n/a	n/a	n/a	n/a	n/a	20	9	4	7	n/a	n/a	n/a	n/a	n/a
486.732	n/a	PROB	243366	n/a	LTP136	ltpFR	8	n/a	n/a	n/a	n/a	n/a	n/a	n/a	14	6	2	6	n/a	n/a	n/a	n/a	n/a
488.416	n/a	STOP	244208	n/a	LTP136	ltpFR	8	n/a	n/a	n/a	n/a	n/a	n/a	n/a	n/a	n/a	n/a	n/a	n/a	n/a	n/a	n/a	n/a
490.438	n/a	WORD	245219	wordpools/wasnorm_wordpool.txt	LTP136	ltpFR	8	2	0	HERO	706	n/a	n/a	0	n/a	0	0	0	0.57763671875	0.412841796875	1	lower	zerothre.ttf
493.446	n/a	START	246723	n/a	LTP136	ltpFR	8	n/a	n/a	n/a	n/a	n/a	n/a	n/a	n/a	n/a	n/a	n/a	n/a	n/a	n/a	n/a	n/a
494.444	n/a	PROB	247222	n/a	LTP136	ltpFR	8	n/a	n/a	n/a	n/a	n/a	n/a	n/a	21	9	4	8	n/a	n/a	n/a	n/a	n/a
498.044	n/a	PROB	249022	n/a	LTP136	ltpFR	8	n/a	n/a	n/a	n/a	n/a	n/a	n/a	22	5	6	9	n/a	n/a	n/a	n/a	n/a
500.392	n/a	STOP	250196	n/a	LTP136	ltpFR	8	n/a	n/a	n/a	n/a	n/a	n/a	n/a	n/a	n/a	n/a	n/a	n/a	n/a	n/a	n/a	n/a
502.4	n/a	WORD	251200	wordpools/wasnorm_wordpool.txt	LTP136	ltpFR	8	2	0	EMERALD	528	n/a	n/a	0	n/a	0	0	0	0.57763671875	0.412841796875	1	lower	zerothre.ttf
505.408	n/a	START	252704	n/a	LTP136	ltpFR	8	n/a	n/a	n/a	n/a	n/a	n/a	n/a	n/a	n/a	n/a	n/a	n/a	n/a	n/a	n/a	n/a
506.408	n/a	PROB	253204	n/a	LTP136	ltpFR	8	n/a	n/a	n/a	n/a	n/a	n/a	n/a	18	2	8	8	n/a	n/a	n/a	n/a	n/a
510.732	n/a	PROB	255366	n/a	LTP136	ltpFR	8	n/a	n/a	n/a	n/a	n/a	n/a	n/a	21	6	7	8	n/a	n/a	n/a	n/a	n/a
512.394	n/a	STOP	256197	n/a	LTP136	ltpFR	8	n/a	n/a	n/a	n/a	n/a	n/a	n/a	n/a	n/a	n/a	n/a	n/a	n/a	n/a	n/a	n/a
514.314	n/a	WORD	257157	wordpools/wasnorm_wordpool.txt	LTP136	ltpFR	8	2	0	CAT	257	n/a	n/a	0	n/a	0	0	0	0.57763671875	0.412841796875	1	lower	zerothre.ttf
517.322	n/a	START	258661	n/a	LTP136	ltpFR	8	n/a	n/a	n/a	n/a	n/a	n/a	n/a	n/a	n/a	n/a	n/a	n/a	n/a	n/a	n/a	n/a
518.346	n/a	PROB	259173	n/a	LTP136	ltpFR	8	n/a	n/a	n/a	n/a	n/a	n/a	n/a	19	6	6	7	n/a	n/a	n/a	n/a	n/a
525.322	n/a	STOP	262661	n/a	LTP136	ltpFR	8	n/a	n/a	n/a	n/a	n/a	n/a	n/a	n/a	n/a	n/a	n/a	n/a	n/a	n/a	n/a	n/a
526.26	n/a	WORD	263130	wordpools/wasnorm_wordpool.txt	LTP136	ltpFR	8	2	0	DUCK	504	n/a	n/a	0	n/a	0	0	0	0.57763671875	0.412841796875	1	lower	zerothre.ttf
529.268	n/a	START	264634	n/a	LTP136	ltpFR	8	n/a	n/a	n/a	n/a	n/a	n/a	n/a	n/a	n/a	n/a	n/a	n/a	n/a	n/a	n/a	n/a
530.158	n/a	PROB	265079	n/a	LTP136	ltpFR	8	n/a	n/a	n/a	n/a	n/a	n/a	n/a	16	8	5	3	n/a	n/a	n/a	n/a	n/a
532.826	n/a	PROB	266413	n/a	LTP136	ltpFR	8	n/a	n/a	n/a	n/a	n/a	n/a	n/a	16	5	8	3	n/a	n/a	n/a	n/a	n/a
534.524	n/a	PROB	267262	n/a	LTP136	ltpFR	8	n/a	n/a	n/a	n/a	n/a	n/a	n/a	13	8	3	2	n/a	n/a	n/a	n/a	n/a
536.282	n/a	STOP	268141	n/a	LTP136	ltpFR	8	n/a	n/a	n/a	n/a	n/a	n/a	n/a	n/a	n/a	n/a	n/a	n/a	n/a	n/a	n/a	n/a
538.164	n/a	WORD	269082	wordpools/wasnorm_wordpool.txt	LTP136	ltpFR	8	2	1	POND	1101	n/a	n/a	0	n/a	0	0	0	0.422607421875	0.5869140625	0	upper	amplitud.ttf
541.172	n/a	START	270586	n/a	LTP136	ltpFR	8	n/a	n/a	n/a	n/a	n/a	n/a	n/a	n/a	n/a	n/a	n/a	n/a	n/a	n/a	n/a	n/a
542.08	n/a	PROB	271040	n/a	LTP136	ltpFR	8	n/a	n/a	n/a	n/a	n/a	n/a	n/a	17	7	9	1	n/a	n/a	n/a	n/a	n/a
543.938	n/a	PROB	271969	n/a	LTP136	ltpFR	8	n/a	n/a	n/a	n/a	n/a	n/a	n/a	20	7	5	8	n/a	n/a	n/a	n/a	n/a
545.98	n/a	PROB	272990	n/a	LTP136	ltpFR	8	n/a	n/a	n/a	n/a	n/a	n/a	n/a	17	5	5	7	n/a	n/a	n/a	n/a	n/a
549.172	n/a	STOP	274586	n/a	LTP136	ltpFR	8	n/a	n/a	n/a	n/a	n/a	n/a	n/a	n/a	n/a	n/a	n/a	n/a	n/a	n/a	n/a	n/a
550.044	n/a	WORD	275022	wordpools/wasnorm_wordpool.txt	LTP136	ltpFR	8	2	1	NEUTRON	947	n/a	n/a	2	n/a	0	0	0	0.422607421875	0.5869140625	0	upper	amplitud.ttf
551.336	n/a	KEY_MSG	275668	n/a	LTP136	ltpFR	8	2	n/a	n/a	n/a	n/a	n/a	n/a	n/a	0	0	0	n/a	n/a	n/a	n/a	n/a
553.052	n/a	START	276526	n/a	LTP136	ltpFR	8	n/a	n/a	n/a	n/a	n/a	n/a	n/a	n/a	n/a	n/a	n/a	n/a	n/a	n/a	n/a	n/a
554.184	n/a	PROB	277092	n/a	LTP136	ltpFR	8	n/a	n/a	n/a	n/a	n/a	n/a	n/a	13	3	7	3	n/a	n/a	n/a	n/a	n/a
555.66	n/a	PROB	277830	n/a	LTP136	ltpFR	8	n/a	n/a	n/a	n/a	n/a	n/a	n/a	21	2	9	9	n/a	n/a	n/a	n/a	n/a
557.408	n/a	PROB	278704	n/a	LTP136	ltpFR	8	n/a	n/a	n/a	n/a	n/a	n/a	n/a	11	2	7	2	n/a	n/a	n/a	n/a	n/a
559.442	n/a	PROB	279721	n/a	LTP136	ltpFR	8	n/a	n/a	n/a	n/a	n/a	n/a	n/a	19	8	8	3	n/a	n/a	n/a	n/a	n/a
560.924	n/a	STOP	280462	n/a	LTP136	ltpFR	8	n/a	n/a	n/a	n/a	n/a	n/a	n/a	n/a	n/a	n/a	n/a	n/a	n/a	n/a	n/a	n/a
562.032	n/a	WORD	281016	wordpools/wasnorm_wordpool.txt	LTP136	ltpFR	8	2	0	FUNGUS	614	n/a	n/a	2	n/a	0	0	0	0.57763671875	0.412841796875	1	lower	zerothre.ttf
562.94	n/a	KEY_MSG	281470	n/a	LTP136	ltpFR	8	2	n/a	n/a	n/a	n/a	n/a	n/a	n/a	0	0	0	n/a	n/a	n/a	n/a	n/a
565.04	n/a	START	282520	n/a	LTP136	ltpFR	8	n/a	n/a	n/a	n/a	n/a	n/a	n/a	n/a	n/a	n/a	n/a	n/a	n/a	n/a	n/a	n/a
565.906	n/a	PROB	282953	n/a	LTP136	ltpFR	8	n/a	n/a	n/a	n/a	n/a	n/a	n/a	14	5	8	1	n/a	n/a	n/a	n/a	n/a
567.298	n/a	PROB	283649	n/a	LTP136	ltpFR	8	n/a	n/a	n/a	n/a	n/a	n/a	n/a	12	1	4	7	n/a	n/a	n/a	n/a	n/a
568.806	n/a	PROB	284403	n/a	LTP136	ltpFR	8	n/a	n/a	n/a	n/a	n/a	n/a	n/a	20	9	8	3	n/a	n/a	n/a	n/a	n/a
571.532	n/a	STOP	285766	n/a	LTP136	ltpFR	8	n/a	n/a	n/a	n/a	n/a	n/a	n/a	n/a	n/a	n/a	n/a	n/a	n/a	n/a	n/a	n/a
573.978	n/a	WORD	286989	wordpools/wasnorm_wordpool.txt	LTP136	ltpFR	8	2	0	CUE	422	n/a	n/a	0	n/a	0	0	0	0.57763671875	0.412841796875	1	lower	zerothre.ttf
576.986	n/a	START	288493	n/a	LTP136	ltpFR	8	n/a	n/a	n/a	n/a	n/a	n/a	n/a	n/a	n/a	n/a	n/a	n/a	n/a	n/a	n/a	n/a
578.152	n/a	PROB	289076	n/a	LTP136	ltpFR	8	n/a	n/a	n/a	n/a	n/a	n/a	n/a	16	8	4	4	n/a	n/a	n/a	n/a	n/a
580.544	n/a	PROB	290272	n/a	LTP136	ltpFR	8	n/a	n/a	n/a	n/a	n/a	n/a	n/a	17	4	7	6	n/a	n/a	n/a	n/a	n/a
582.926	n/a	PROB	291463	n/a	LTP136	ltpFR	8	n/a	n/a	n/a	n/a	n/a	n/a	n/a	9	7	1	1	n/a	n/a	n/a	n/a	n/a
584.134	n/a	STOP	292067	n/a	LTP136	ltpFR	8	n/a	n/a	n/a	n/a	n/a	n/a	n/a	n/a	n/a	n/a	n/a	n/a	n/a	n/a	n/a	n/a
585.958	n/a	WORD	292979	wordpools/wasnorm_wordpool.txt	LTP136	ltpFR	8	2	0	CIRCUS	311	n/a	n/a	0	n/a	0	0	0	0.57763671875	0.412841796875	1	lower	zerothre.ttf
588.966	n/a	START	294483	n/a	LTP136	ltpFR	8	n/a	n/a	n/a	n/a	n/a	n/a	n/a	n/a	n/a	n/a	n/a	n/a	n/a	n/a	n/a	n/a
589.874	n/a	PROB	294937	n/a	LTP136	ltpFR	8	n/a	n/a	n/a	n/a	n/a	n/a	n/a	21	8	4	9	n/a	n/a	n/a	n/a	n/a
592.056	n/a	PROB	296028	n/a	LTP136	ltpFR	8	n/a	n/a	n/a	n/a	n/a	n/a	n/a	14	3	7	4	n/a	n/a	n/a	n/a	n/a
593.59	n/a	PROB	296795	n/a	LTP136	ltpFR	8	n/a	n/a	n/a	n/a	n/a	n/a	n/a	18	8	1	9	n/a	n/a	n/a	n/a	n/a
596.816	n/a	STOP	298408	n/a	LTP136	ltpFR	8	n/a	n/a	n/a	n/a	n/a	n/a	n/a	n/a	n/a	n/a	n/a	n/a	n/a	n/a	n/a	n/a
598.114	n/a	WORD	299057	wordpools/wasnorm_wordpool.txt	LTP136	ltpFR	8	2	0	CHAMPION	279	n/a	n/a	0	n/a	0	0	0	0.57763671875	0.412841796875	1	lower	zerothre.ttf
601.122	n/a	START	300561	n/a	LTP136	ltpFR	8	n/a	n/a	n/a	n/a	n/a	n/a	n/a	n/a	n/a	n/a	n/a	n/a	n/a	n/a	n/a	n/a
601.928	n/a	PROB	300964	n/a	LTP136	ltpFR	8	n/a	n/a	n/a	n/a	n/a	n/a	n/a	21	9	8	4	n/a	n/a	n/a	n/a	n/a
604.962	n/a	PROB	302481	n/a	LTP136	ltpFR	8	n/a	n/a	n/a	n/a	n/a	n/a	n/a	17	8	5	4	n/a	n/a	n/a	n/a	n/a
608.518	n/a	STOP	304259	n/a	LTP136	ltpFR	8	n/a	n/a	n/a	n/a	n/a	n/a	n/a	n/a	n/a	n/a	n/a	n/a	n/a	n/a	n/a	n/a
610.218	n/a	WORD	305109	wordpools/wasnorm_wordpool.txt	LTP136	ltpFR	8	2	1	COMEDIAN	352	n/a	n/a	0	n/a	0	0	0	0.422607421875	0.5869140625	0	upper	amplitud.ttf
613.226	n/a	START	306613	n/a	LTP136	ltpFR	8	n/a	n/a	n/a	n/a	n/a	n/a	n/a	n/a	n/a	n/a	n/a	n/a	n/a	n/a	n/a	n/a
614.374	n/a	PROB	307187	n/a	LTP136	ltpFR	8	n/a	n/a	n/a	n/a	n/a	n/a	n/a	16	4	3	9	n/a	n/a	n/a	n/a	n/a
617.416	n/a	PROB	308708	n/a	LTP136	ltpFR	8	n/a	n/a	n/a	n/a	n/a	n/a	n/a	15	4	7	4	n/a	n/a	n/a	n/a	n/a
621.226	n/a	STOP	310613	n/a	LTP136	ltpFR	8	n/a	n/a	n/a	n/a	n/a	n/a	n/a	n/a	n/a	n/a	n/a	n/a	n/a	n/a	n/a	n/a
622.064	n/a	WORD	311032	wordpools/wasnorm_wordpool.txt	LTP136	ltpFR	8	2	1	THESAURUS	1454	n/a	n/a	0	n/a	0	0	0	0.422607421875	0.5869140625	0	upper	amplitud.ttf
625.072	n/a	START	312536	n/a	LTP136	ltpFR	8	n/a	n/a	n/a	n/a	n/a	n/a	n/a	n/a	n/a	n/a	n/a	n/a	n/a	n/a	n/a	n/a
626.254	n/a	PROB	313127	n/a	LTP136	ltpFR	8	n/a	n/a	n/a	n/a	n/a	n/a	n/a	12	1	4	7	n/a	n/a	n/a	n/a	n/a
627.772	n/a	PROB	313886	n/a	LTP136	ltpFR	8	n/a	n/a	n/a	n/a	n/a	n/a	n/a	11	2	3	6	n/a	n/a	n/a	n/a	n/a
629.328	n/a	PROB	314664	n/a	LTP136	ltpFR	8	n/a	n/a	n/a	n/a	n/a	n/a	n/a	12	4	2	6	n/a	n/a	n/a	n/a	n/a
631.12	n/a	PROB	315560	n/a	LTP136	ltpFR	8	n/a	n/a	n/a	n/a	n/a	n/a	n/a	15	2	8	5	n/a	n/a	n/a	n/a	n/a
632.806	n/a	STOP	316403	n/a	LTP136	ltpFR	8	n/a	n/a	n/a	n/a	n/a	n/a	n/a	n/a	n/a	n/a	n/a	n/a	n/a	n/a	n/a	n/a
634.086	n/a	WORD	317043	wordpools/wasnorm_wordpool.txt	LTP136	ltpFR	8	2	1	DISC	473	n/a	n/a	0	n/a	0	0	0	0.422607421875	0.5869140625	0	upper	amplitud.ttf
637.094	n/a	START	318547	n/a	LTP136	ltpFR	8	n/a	n/a	n/a	n/a	n/a	n/a	n/a	n/a	n/a	n/a	n/a	n/a	n/a	n/a	n/a	n/a
637.952	n/a	PROB	318976	n/a	LTP136	ltpFR	8	n/a	n/a	n/a	n/a	n/a	n/a	n/a	22	8	7	7	n/a	n/a	n/a	n/a	n/a
642.992	n/a	PROB	321496	n/a	LTP136	ltpFR	8	n/a	n/a	n/a	n/a	n/a	n/a	n/a	19	6	5	8	n/a	n/a	n/a	n/a	n/a
644.594	n/a	STOP	322297	n/a	LTP136	ltpFR	8	n/a	n/a	n/a	n/a	n/a	n/a	n/a	n/a	n/a	n/a	n/a	n/a	n/a	n/a	n/a	n/a
646.124	n/a	WORD	323062	wordpools/wasnorm_wordpool.txt	LTP136	ltpFR	8	2	1	TYPEWRITER	1531	n/a	n/a	0	n/a	0	0	0	0.422607421875	0.5869140625	0	upper	amplitud.ttf
649.13	n/a	START	324565	n/a	LTP136	ltpFR	8	n/a	n/a	n/a	n/a	n/a	n/a	n/a	n/a	n/a	n/a	n/a	n/a	n/a	n/a	n/a	n/a
650.314	n/a	PROB	325157	n/a	LTP136	ltpFR	8	n/a	n/a	n/a	n/a	n/a	n/a	n/a	15	7	6	2	n/a	n/a	n/a	n/a	n/a
652.454	n/a	PROB	326227	n/a	LTP136	ltpFR	8	n/a	n/a	n/a	n/a	n/a	n/a	n/a	18	8	7	3	n/a	n/a	n/a	n/a	n/a
655.962	n/a	STOP	327981	n/a	LTP136	ltpFR	8	n/a	n/a	n/a	n/a	n/a	n/a	n/a	n/a	n/a	n/a	n/a	n/a	n/a	n/a	n/a	n/a
659.028	n/a	REC_START	329514	n/a	LTP136	ltpFR	8	2	n/a	n/a	n/a	n/a	n/a	n/a	n/a	0	0	0	n/a	n/a	n/a	n/a	n/a
659.954	n/a	REC_WORD	329977	wordpools/wasnorm_wordpool.txt	LTP136	ltpFR	8	2	1	THESAURUS	1454	n/a	n/a	0	n/a	0	0	0	n/a	n/a	n/a	n/a	n/a
661.682	n/a	REC_WORD	330841	wordpools/wasnorm_wordpool.txt	LTP136	ltpFR	8	2	0	CIRCUS	311	n/a	n/a	0	n/a	0	0	0	n/a	n/a	n/a	n/a	n/a
663.244	n/a	REC_WORD	331622	wordpools/wasnorm_wordpool.txt	LTP136	ltpFR	8	2	0	CAT	257	n/a	n/a	0	n/a	0	0	0	n/a	n/a	n/a	n/a	n/a
664.826	n/a	REC_WORD	332413	wordpools/wasnorm_wordpool.txt	LTP136	ltpFR	8	2	0	CHAMPION	279	n/a	n/a	0	n/a	0	0	0	n/a	n/a	n/a	n/a	n/a
667.224	n/a	REC_WORD	333612	wordpools/wasnorm_wordpool.txt	LTP136	ltpFR	8	2	1	TYPEWRITER	1531	n/a	n/a	0	n/a	0	0	0	n/a	n/a	n/a	n/a	n/a
671.002	n/a	REC_WORD	335501	wordpools/wasnorm_wordpool.txt	LTP136	ltpFR	8	2	0	CAT	257	n/a	n/a	0	n/a	0	0	0	n/a	n/a	n/a	n/a	n/a
737.996	n/a	WORD	368998	wordpools/wasnorm_wordpool.txt	LTP136	ltpFR	8	3	1	MOTH	920	n/a	n/a	0	n/a	0	0	0	0.422607421875	0.5869140625	0	upper	amplitud.ttf
741.878	n/a	WORD	370939	wordpools/wasnorm_wordpool.txt	LTP136	ltpFR	8	3	1	DESIGNER	451	n/a	n/a	1	n/a	0	0	0	0.422607421875	0.5869140625	0	upper	amplitud.ttf
745.752	n/a	WORD	372876	wordpools/wasnorm_wordpool.txt	LTP136	ltpFR	8	3	1	BOAT	144	n/a	n/a	1	n/a	0	0	0	0.422607421875	0.5869140625	0	upper	amplitud.ttf
749.844	n/a	WORD	374922	wordpools/wasnorm_wordpool.txt	LTP136	ltpFR	8	3	1	DONKEY	484	n/a	n/a	0	n/a	0	0	0	0.422607421875	0.5869140625	0	upper	amplitud.ttf
753.892	n/a	WORD	376946	wordpools/wasnorm_wordpool.txt	LTP136	ltpFR	8	3	1	HOSE	720	n/a	n/a	0	n/a	0	0	0	0.422607421875	0.5869140625	0	upper	amplitud.ttf
757.89	n/a	WORD	378945	wordpools/wasnorm_wordpool.txt	LTP136	ltpFR	8	3	1	PIGEON	1065	n/a	n/a	1	n/a	0	0	0	0.422607421875	0.5869140625	0	upper	amplitud.ttf
761.748	n/a	WORD	380874	wordpools/wasnorm_wordpool.txt	LTP136	ltpFR	8	3	1	TORCH	1484	n/a	n/a	0	n/a	0	0	0	0.422607421875	0.5869140625	0	upper	amplitud.ttf
765.654	n/a	WORD	382827	wordpools/wasnorm_wordpool.txt	LTP136	ltpFR	8	3	1	CANARY	227	n/a	n/a	0	n/a	0	0	0	0.422607421875	0.5869140625	0	upper	amplitud.ttf
769.812	n/a	WORD	384906	wordpools/wasnorm_wordpool.txt	LTP136	ltpFR	8	3	1	BANQUET	86	n/a	n/a	0	n/a	0	0	0	0.422607421875	0.5869140625	0	upper	amplitud.ttf
773.894	n/a	WORD	386947	wordpools/wasnorm_wordpool.txt	LTP136	ltpFR	8	3	1	PICNIC	1060	n/a	n/a	0	n/a	0	0	0	0.422607421875	0.5869140625	0	upper	amplitud.ttf
777.842	n/a	WORD	388921	wordpools/wasnorm_wordpool.txt	LTP136	ltpFR	8	3	1	SKI	1316	n/a	n/a	0	n/a	0	0	0	0.422607421875	0.5869140625	0	upper	amplitud.ttf
781.866	n/a	WORD	390933	wordpools/wasnorm_wordpool.txt	LTP136	ltpFR	8	3	1	ELK	526	n/a	n/a	0	n/a	0	0	0	0.422607421875	0.5869140625	0	upper	amplitud.ttf
785.698	n/a	WORD	392849	wordpools/wasnorm_wordpool.txt	LTP136	ltpFR	8	3	1	SHACK	1273	n/a	n/a	0	n/a	0	0	0	0.422607421875	0.5869140625	0	upper	amplitud.ttf
789.906	n/a	WORD	394953	wordpools/wasnorm_wordpool.txt	LTP136	ltpFR	8	3	1	PATIO	1025	n/a	n/a	0	n/a	0	0	0	0.422607421875	0.5869140625	0	upper	amplitud.ttf
793.92	n/a	WORD	396960	wordpools/wasnorm_wordpool.txt	LTP136	ltpFR	8	3	1	SWAN	1417	n/a	n/a	0	n/a	0	0	0	0.422607421875	0.5869140625	0	upper	amplitud.ttf
797.82	n/a	WORD	398910	wordpools/wasnorm_wordpool.txt	LTP136	ltpFR	8	3	1	PENGUIN	1044	n/a	n/a	0	n/a	0	0	0	0.422607421875	0.5869140625	0	upper	amplitud.ttf
803.736	n/a	REC_START	401868	n/a	LTP136	ltpFR	8	3	n/a	n/a	n/a	n/a	n/a	n/a	n/a	0	0	0	n/a	n/a	n/a	n/a	n/a
804.258	n/a	REC_WORD	402129	wordpools/wasnorm_wordpool.txt	LTP136	ltpFR	8	3	1	SKI	1316	n/a	n/a	0	n/a	0	0	0	n/a	n/a	n/a	n/a	n/a
805.542	n/a	REC_WORD	402771	wordpools/wasnorm_wordpool.txt	LTP136	ltpFR	8	3	1	ELK	526	n/a	n/a	0	n/a	0	0	0	n/a	n/a	n/a	n/a	n/a
806.496	n/a	REC_WORD	403248	wordpools/wasnorm_wordpool.txt	LTP136	ltpFR	8	3	1	SHACK	1273	n/a	n/a	0	n/a	0	0	0	n/a	n/a	n/a	n/a	n/a
807.79	n/a	REC_WORD	403895	wordpools/wasnorm_wordpool.txt	LTP136	ltpFR	8	3	1	PENGUIN	1044	n/a	n/a	0	n/a	0	0	0	n/a	n/a	n/a	n/a	n/a
809.314	n/a	REC_WORD	404657	wordpools/wasnorm_wordpool.txt	LTP136	ltpFR	8	3	1	BANQUET	86	n/a	n/a	0	n/a	0	0	0	n/a	n/a	n/a	n/a	n/a
819.656	n/a	REC_WORD	409828	wordpools/wasnorm_wordpool.txt	LTP136	ltpFR	8	3	1	PATIO	1025	n/a	n/a	0	n/a	0	0	0	n/a	n/a	n/a	n/a	n/a
827.044	n/a	REC_WORD	413522	wordpools/wasnorm_wordpool.txt	LTP136	ltpFR	8	3	n/a	MOSS	918	n/a	n/a	n/a	n/a	0	0	0	n/a	n/a	n/a	n/a	n/a
832.516	n/a	REC_WORD	416258	wordpools/wasnorm_wordpool.txt	LTP136	ltpFR	8	3	1	DESIGNER	451	n/a	n/a	1	n/a	0	0	0	n/a	n/a	n/a	n/a	n/a
841.426	n/a	REC_WORD	420713	wordpools/wasnorm_wordpool.txt	LTP136	ltpFR	8	3	1	BOAT	144	n/a	n/a	1	n/a	0	0	0	n/a	n/a	n/a	n/a	n/a
868.282	n/a	REC_WORD	434141	wordpools/wasnorm_wordpool.txt	LTP136	ltpFR	8	3	1	SKI	1316	n/a	n/a	0	n/a	0	0	0	n/a	n/a	n/a	n/a	n/a
885.544	n/a	START	442772	n/a	LTP136	ltpFR	8	n/a	n/a	n/a	n/a	n/a	n/a	n/a	n/a	n/a	n/a	n/a	n/a	n/a	n/a	n/a	n/a
887.05	n/a	PROB	443525	n/a	LTP136	ltpFR	8	n/a	n/a	n/a	n/a	n/a	n/a	n/a	14	1	8	5	n/a	n/a	n/a	n/a	n/a
888.916	n/a	PROB	444458	n/a	LTP136	ltpFR	8	n/a	n/a	n/a	n/a	n/a	n/a	n/a	9	2	4	3	n/a	n/a	n/a	n/a	n/a
891.65	n/a	PROB	445825	n/a	LTP136	ltpFR	8	n/a	n/a	n/a	n/a	n/a	n/a	n/a	18	4	8	6	n/a	n/a	n/a	n/a	n/a
893.506	n/a	PROB	446753	n/a	LTP136	ltpFR	8	n/a	n/a	n/a	n/a	n/a	n/a	n/a	8	3	3	2	n/a	n/a	n/a	n/a	n/a
896.522	n/a	PROB	448261	n/a	LTP136	ltpFR	8	n/a	n/a	n/a	n/a	n/a	n/a	n/a	20	5	7	8	n/a	n/a	n/a	n/a	n/a
898.79	n/a	PROB	449395	n/a	LTP136	ltpFR	8	n/a	n/a	n/a	n/a	n/a	n/a	n/a	17	4	6	7	n/a	n/a	n/a	n/a	n/a
900.286	n/a	STOP	450143	n/a	LTP136	ltpFR	8	n/a	n/a	n/a	n/a	n/a	n/a	n/a	n/a	n/a	n/a	n/a	n/a	n/a	n/a	n/a	n/a
902.63	n/a	WORD	451315	wordpools/wasnorm_wordpool.txt	LTP136	ltpFR	8	4	1	SHELTER	1282	n/a	n/a	0	n/a	0	0	0	0.422607421875	0.5869140625	0	upper	amplitud.ttf
905.638	n/a	START	452819	n/a	LTP136	ltpFR	8	n/a	n/a	n/a	n/a	n/a	n/a	n/a	n/a	n/a	n/a	n/a	n/a	n/a	n/a	n/a	n/a
906.596	n/a	PROB	453298	n/a	LTP136	ltpFR	8	n/a	n/a	n/a	n/a	n/a	n/a	n/a	8	1	5	2	n/a	n/a	n/a	n/a	n/a
908.62	n/a	PROB	454310	n/a	LTP136	ltpFR	8	n/a	n/a	n/a	n/a	n/a	n/a	n/a	14	4	2	8	n/a	n/a	n/a	n/a	n/a
910.678	n/a	PROB	455339	n/a	LTP136	ltpFR	8	n/a	n/a	n/a	n/a	n/a	n/a	n/a	12	9	2	1	n/a	n/a	n/a	n/a	n/a
912.034	n/a	PROB	456017	n/a	LTP136	ltpFR	8	n/a	n/a	n/a	n/a	n/a	n/a	n/a	21	6	7	9	n/a	n/a	n/a	n/a	n/a
913.81	n/a	PROB	456905	n/a	LTP136	ltpFR	8	n/a	n/a	n/a	n/a	n/a	n/a	n/a	17	4	9	4	n/a	n/a	n/a	n/a	n/a
916.158	n/a	PROB	458079	n/a	LTP136	ltpFR	8	n/a	n/a	n/a	n/a	n/a	n/a	n/a	17	5	8	4	n/a	n/a	n/a	n/a	n/a
918.974	n/a	PROB	459487	n/a	LTP136	ltpFR	8	n/a	n/a	n/a	n/a	n/a	n/a	n/a	10	4	5	1	n/a	n/a	n/a	n/a	n/a
920.432	n/a	STOP	460216	n/a	LTP136	ltpFR	8	n/a	n/a	n/a	n/a	n/a	n/a	n/a	n/a	n/a	n/a	n/a	n/a	n/a	n/a	n/a	n/a
922.708	n/a	WORD	461354	wordpools/wasnorm_wordpool.txt	LTP136	ltpFR	8	4	1	COFFIN	342	n/a	n/a	0	n/a	0	0	0	0.422607421875	0.5869140625	0	upper	amplitud.ttf
925.716	n/a	START	462858	n/a	LTP136	ltpFR	8	n/a	n/a	n/a	n/a	n/a	n/a	n/a	n/a	n/a	n/a	n/a	n/a	n/a	n/a	n/a	n/a
926.664	n/a	PROB	463332	n/a	LTP136	ltpFR	8	n/a	n/a	n/a	n/a	n/a	n/a	n/a	10	4	4	2	n/a	n/a	n/a	n/a	n/a
928.454	n/a	PROB	464227	n/a	LTP136	ltpFR	8	n/a	n/a	n/a	n/a	n/a	n/a	n/a	7	2	2	3	n/a	n/a	n/a	n/a	n/a
930.754	n/a	PROB	465377	n/a	LTP136	ltpFR	8	n/a	n/a	n/a	n/a	n/a	n/a	n/a	18	9	4	5	n/a	n/a	n/a	n/a	n/a
932.846	n/a	PROB	466423	n/a	LTP136	ltpFR	8	n/a	n/a	n/a	n/a	n/a	n/a	n/a	18	3	9	6	n/a	n/a	n/a	n/a	n/a
934.636	n/a	PROB	467318	n/a	LTP136	ltpFR	8	n/a	n/a	n/a	n/a	n/a	n/a	n/a	13	9	3	1	n/a	n/a	n/a	n/a	n/a
937.284	n/a	PROB	468642	n/a	LTP136	ltpFR	8	n/a	n/a	n/a	n/a	n/a	n/a	n/a	20	5	7	8	n/a	n/a	n/a	n/a	n/a
939.068	n/a	PROB	469534	n/a	LTP136	ltpFR	8	n/a	n/a	n/a	n/a	n/a	n/a	n/a	12	4	4	4	n/a	n/a	n/a	n/a	n/a
940.304	n/a	STOP	470152	n/a	LTP136	ltpFR	8	n/a	n/a	n/a	n/a	n/a	n/a	n/a	n/a	n/a	n/a	n/a	n/a	n/a	n/a	n/a	n/a
942.926	n/a	WORD	471463	wordpools/wasnorm_wordpool.txt	LTP136	ltpFR	8	4	1	PERSON	1052	n/a	n/a	0	n/a	0	0	0	0.422607421875	0.5869140625	0	upper	amplitud.ttf
945.934	n/a	START	472967	n/a	LTP136	ltpFR	8	n/a	n/a	n/a	n/a	n/a	n/a	n/a	n/a	n/a	n/a	n/a	n/a	n/a	n/a	n/a	n/a
946.826	n/a	PROB	473413	n/a	LTP136	ltpFR	8	n/a	n/a	n/a	n/a	n/a	n/a	n/a	17	7	7	3	n/a	n/a	n/a	n/a	n/a
948.766	n/a	PROB	474383	n/a	LTP136	ltpFR	8	n/a	n/a	n/a	n/a	n/a	n/a	n/a	12	7	4	1	n/a	n/a	n/a	n/a	n/a
950.414	n/a	PROB	475207	n/a	LTP136	ltpFR	8	n/a	n/a	n/a	n/a	n/a	n/a	n/a	17	5	3	9	n/a	n/a	n/a	n/a	n/a
952.448	n/a	PROB	476224	n/a	LTP136	ltpFR	8	n/a	n/a	n/a	n/a	n/a	n/a	n/a	17	6	8	3	n/a	n/a	n/a	n/a	n/a
954.114	n/a	PROB	477057	n/a	LTP136	ltpFR	8	n/a	n/a	n/a	n/a	n/a	n/a	n/a	13	1	5	7	n/a	n/a	n/a	n/a	n/a
956.062	n/a	PROB	478031	n/a	LTP136	ltpFR	8	n/a	n/a	n/a	n/a	n/a	n/a	n/a	13	4	2	7	n/a	n/a	n/a	n/a	n/a
958.086	n/a	PROB	479043	n/a	LTP136	ltpFR	8	n/a	n/a	n/a	n/a	n/a	n/a	n/a	14	2	7	5	n/a	n/a	n/a	n/a	n/a
959.822	n/a	PROB	479911	n/a	LTP136	ltpFR	8	n/a	n/a	n/a	n/a	n/a	n/a	n/a	15	7	1	7	n/a	n/a	n/a	n/a	n/a
961.026	n/a	STOP	480513	n/a	LTP136	ltpFR	8	n/a	n/a	n/a	n/a	n/a	n/a	n/a	n/a	n/a	n/a	n/a	n/a	n/a	n/a	n/a	n/a
963.002	n/a	WORD	481501	wordpools/wasnorm_wordpool.txt	LTP136	ltpFR	8	4	1	REFRIGERATOR	1179	n/a	n/a	0	n/a	0	0	0	0.422607421875	0.5869140625	0	upper	amplitud.ttf
966.01	n/a	START	483005	n/a	LTP136	ltpFR	8	n/a	n/a	n/a	n/a	n/a	n/a	n/a	n/a	n/a	n/a	n/a	n/a	n/a	n/a	n/a	n/a
967.142	n/a	PROB	483571	n/a	LTP136	ltpFR	8	n/a	n/a	n/a	n/a	n/a	n/a	n/a	22	7	6	9	n/a	n/a	n/a	n/a	n/a
972.358	n/a	PROB	486179	n/a	LTP136	ltpFR	8	n/a	n/a	n/a	n/a	n/a	n/a	n/a	20	3	9	8	n/a	n/a	n/a	n/a	n/a
974.348	n/a	PROB	487174	n/a	LTP136	ltpFR	8	n/a	n/a	n/a	n/a	n/a	n/a	n/a	15	5	6	4	n/a	n/a	n/a	n/a	n/a
976.174	n/a	PROB	488087	n/a	LTP136	ltpFR	8	n/a	n/a	n/a	n/a	n/a	n/a	n/a	21	9	8	4	n/a	n/a	n/a	n/a	n/a
977.998	n/a	PROB	488999	n/a	LTP136	ltpFR	8	n/a	n/a	n/a	n/a	n/a	n/a	n/a	16	7	8	1	n/a	n/a	n/a	n/a	n/a
979.506	n/a	PROB	489753	n/a	LTP136	ltpFR	8	n/a	n/a	n/a	n/a	n/a	n/a	n/a	18	5	6	7	n/a	n/a	n/a	n/a	n/a
981.49	n/a	STOP	490745	n/a	LTP136	ltpFR	8	n/a	n/a	n/a	n/a	n/a	n/a	n/a	n/a	n/a	n/a	n/a	n/a	n/a	n/a	n/a	n/a
983.222	n/a	WORD	491611	wordpools/wasnorm_wordpool.txt	LTP136	ltpFR	8	4	1	PREDATOR	1120	n/a	n/a	0	n/a	0	0	0	0.422607421875	0.5869140625	0	upper	amplitud.ttf
986.23	n/a	START	493115	n/a	LTP136	ltpFR	8	n/a	n/a	n/a	n/a	n/a	n/a	n/a	n/a	n/a	n/a	n/a	n/a	n/a	n/a	n/a	n/a
987.186	n/a	PROB	493593	n/a	LTP136	ltpFR	8	n/a	n/a	n/a	n/a	n/a	n/a	n/a	17	2	6	9	n/a	n/a	n/a	n/a	n/a
989.42	n/a	PROB	494710	n/a	LTP136	ltpFR	8	n/a	n/a	n/a	n/a	n/a	n/a	n/a	14	7	3	4	n/a	n/a	n/a	n/a	n/a
992.468	n/a	PROB	496234	n/a	LTP136	ltpFR	8	n/a	n/a	n/a	n/a	n/a	n/a	n/a	7	1	3	3	n/a	n/a	n/a	n/a	n/a
994.034	n/a	PROB	497017	n/a	LTP136	ltpFR	8	n/a	n/a	n/a	n/a	n/a	n/a	n/a	6	3	1	2	n/a	n/a	n/a	n/a	n/a
995.392	n/a	PROB	497696	n/a	LTP136	ltpFR	8	n/a	n/a	n/a	n/a	n/a	n/a	n/a	19	7	9	3	n/a	n/a	n/a	n/a	n/a
997.118	n/a	PROB	498559	n/a	LTP136	ltpFR	8	n/a	n/a	n/a	n/a	n/a	n/a	n/a	15	1	8	6	n/a	n/a	n/a	n/a	n/a
998.418	n/a	PROB	499209	n/a	LTP136	ltpFR	8	n/a	n/a	n/a	n/a	n/a	n/a	n/a	5	3	1	1	n/a	n/a	n/a	n/a	n/a
999.508	n/a	PROB	499754	n/a	LTP136	ltpFR	8	n/a	n/a	n/a	n/a	n/a	n/a	n/a	15	7	2	6	n/a	n/a	n/a	n/a	n/a
1001.204	n/a	STOP	500602	n/a	LTP136	ltpFR	8	n/a	n/a	n/a	n/a	n/a	n/a	n/a	n/a	n/a	n/a	n/a	n/a	n/a	n/a	n/a	n/a
1003.382	n/a	WORD	501691	wordpools/wasnorm_wordpool.txt	LTP136	ltpFR	8	4	1	MONGOOSE	909	n/a	n/a	0	n/a	0	0	0	0.422607421875	0.5869140625	0	upper	amplitud.ttf
1006.39	n/a	START	503195	n/a	LTP136	ltpFR	8	n/a	n/a	n/a	n/a	n/a	n/a	n/a	n/a	n/a	n/a	n/a	n/a	n/a	n/a	n/a	n/a
1007.256	n/a	PROB	503628	n/a	LTP136	ltpFR	8	n/a	n/a	n/a	n/a	n/a	n/a	n/a	13	3	1	9	n/a	n/a	n/a	n/a	n/a
1009.138	n/a	PROB	504569	n/a	LTP136	ltpFR	8	n/a	n/a	n/a	n/a	n/a	n/a	n/a	10	1	7	2	n/a	n/a	n/a	n/a	n/a
1011.288	n/a	PROB	505644	n/a	LTP136	ltpFR	8	n/a	n/a	n/a	n/a	n/a	n/a	n/a	16	8	4	4	n/a	n/a	n/a	n/a	n/a
1013.57	n/a	PROB	506785	n/a	LTP136	ltpFR	8	n/a	n/a	n/a	n/a	n/a	n/a	n/a	16	6	6	4	n/a	n/a	n/a	n/a	n/a
1015.044	n/a	PROB	507522	n/a	LTP136	ltpFR	8	n/a	n/a	n/a	n/a	n/a	n/a	n/a	16	7	8	1	n/a	n/a	n/a	n/a	n/a
1016.37	n/a	PROB	508185	n/a	LTP136	ltpFR	8	n/a	n/a	n/a	n/a	n/a	n/a	n/a	17	8	8	1	n/a	n/a	n/a	n/a	n/a
1018.02	n/a	PROB	509010	n/a	LTP136	ltpFR	8	n/a	n/a	n/a	n/a	n/a	n/a	n/a	8	1	1	6	n/a	n/a	n/a	n/a	n/a
1019.51	n/a	PROB	509755	n/a	LTP136	ltpFR	8	n/a	n/a	n/a	n/a	n/a	n/a	n/a	14	3	9	2	n/a	n/a	n/a	n/a	n/a
1021.252	n/a	STOP	510626	n/a	LTP136	ltpFR	8	n/a	n/a	n/a	n/a	n/a	n/a	n/a	n/a	n/a	n/a	n/a	n/a	n/a	n/a	n/a	n/a
1023.234	n/a	WORD	511617	wordpools/wasnorm_wordpool.txt	LTP136	ltpFR	8	4	1	CEMETERY	269	n/a	n/a	0	n/a	0	0	0	0.422607421875	0.5869140625	0	upper	amplitud.ttf
1026.242	n/a	START	513121	n/a	LTP136	ltpFR	8	n/a	n/a	n/a	n/a	n/a	n/a	n/a	n/a	n/a	n/a	n/a	n/a	n/a	n/a	n/a	n/a
1027.182	n/a	PROB	513591	n/a	LTP136	ltpFR	8	n/a	n/a	n/a	n/a	n/a	n/a	n/a	17	3	6	8	n/a	n/a	n/a	n/a	n/a
1031.6	n/a	PROB	515800	n/a	LTP136	ltpFR	8	n/a	n/a	n/a	n/a	n/a	n/a	n/a	14	6	1	7	n/a	n/a	n/a	n/a	n/a
1033.114	n/a	PROB	516557	n/a	LTP136	ltpFR	8	n/a	n/a	n/a	n/a	n/a	n/a	n/a	9	6	1	2	n/a	n/a	n/a	n/a	n/a
1035.09	n/a	PROB	517545	n/a	LTP136	ltpFR	8	n/a	n/a	n/a	n/a	n/a	n/a	n/a	8	1	3	4	n/a	n/a	n/a	n/a	n/a
1036.782	n/a	PROB	518391	n/a	LTP136	ltpFR	8	n/a	n/a	n/a	n/a	n/a	n/a	n/a	17	8	1	8	n/a	n/a	n/a	n/a	n/a
1038.196	n/a	PROB	519098	n/a	LTP136	ltpFR	8	n/a	n/a	n/a	n/a	n/a	n/a	n/a	15	7	6	2	n/a	n/a	n/a	n/a	n/a
1041.302	n/a	STOP	520651	n/a	LTP136	ltpFR	8	n/a	n/a	n/a	n/a	n/a	n/a	n/a	n/a	n/a	n/a	n/a	n/a	n/a	n/a	n/a	n/a
1043.12	n/a	WORD	521560	wordpools/wasnorm_wordpool.txt	LTP136	ltpFR	8	4	1	SPRINKLE	1359	n/a	n/a	0	n/a	0	0	0	0.422607421875	0.5869140625	0	upper	amplitud.ttf
1046.128	n/a	START	523064	n/a	LTP136	ltpFR	8	n/a	n/a	n/a	n/a	n/a	n/a	n/a	n/a	n/a	n/a	n/a	n/a	n/a	n/a	n/a	n/a
1047.144	n/a	PROB	523572	n/a	LTP136	ltpFR	8	n/a	n/a	n/a	n/a	n/a	n/a	n/a	9	4	1	4	n/a	n/a	n/a	n/a	n/a
1048.794	n/a	PROB	524397	n/a	LTP136	ltpFR	8	n/a	n/a	n/a	n/a	n/a	n/a	n/a	14	8	5	1	n/a	n/a	n/a	n/a	n/a
1050.092	n/a	PROB	525046	n/a	LTP136	ltpFR	8	n/a	n/a	n/a	n/a	n/a	n/a	n/a	15	6	8	1	n/a	n/a	n/a	n/a	n/a
1051.426	n/a	PROB	525713	n/a	LTP136	ltpFR	8	n/a	n/a	n/a	n/a	n/a	n/a	n/a	13	4	2	7	n/a	n/a	n/a	n/a	n/a
1053.366	n/a	PROB	526683	n/a	LTP136	ltpFR	8	n/a	n/a	n/a	n/a	n/a	n/a	n/a	19	5	8	6	n/a	n/a	n/a	n/a	n/a
1055.0	n/a	PROB	527500	n/a	LTP136	ltpFR	8	n/a	n/a	n/a	n/a	n/a	n/a	n/a	15	3	6	6	n/a	n/a	n/a	n/a	n/a
1057.216	n/a	PROB	528608	n/a	LTP136	ltpFR	8	n/a	n/a	n/a	n/a	n/a	n/a	n/a	20	6	7	7	n/a	n/a	n/a	n/a	n/a
1058.99	n/a	PROB	529495	n/a	LTP136	ltpFR	8	n/a	n/a	n/a	n/a	n/a	n/a	n/a	20	8	4	8	n/a	n/a	n/a	n/a	n/a
1061.262	n/a	STOP	530631	n/a	LTP136	ltpFR	8	n/a	n/a	n/a	n/a	n/a	n/a	n/a	n/a	n/a	n/a	n/a	n/a	n/a	n/a	n/a	n/a
1062.964	n/a	WORD	531482	wordpools/wasnorm_wordpool.txt	LTP136	ltpFR	8	4	1	DIVER	476	n/a	n/a	0	n/a	0	0	0	0.422607421875	0.5869140625	0	upper	amplitud.ttf
1065.972	n/a	START	532986	n/a	LTP136	ltpFR	8	n/a	n/a	n/a	n/a	n/a	n/a	n/a	n/a	n/a	n/a	n/a	n/a	n/a	n/a	n/a	n/a
1067.054	n/a	PROB	533527	n/a	LTP136	ltpFR	8	n/a	n/a	n/a	n/a	n/a	n/a	n/a	15	3	7	5	n/a	n/a	n/a	n/a	n/a
1068.63	n/a	PROB	534315	n/a	LTP136	ltpFR	8	n/a	n/a	n/a	n/a	n/a	n/a	n/a	24	8	8	6	n/a	n/a	n/a	n/a	n/a
1070.894	n/a	PROB	535447	n/a	LTP136	ltpFR	8	n/a	n/a	n/a	n/a	n/a	n/a	n/a	9	5	3	1	n/a	n/a	n/a	n/a	n/a
1072.152	n/a	PROB	536076	n/a	LTP136	ltpFR	8	n/a	n/a	n/a	n/a	n/a	n/a	n/a	11	1	1	9	n/a	n/a	n/a	n/a	n/a
1073.394	n/a	PROB	536697	n/a	LTP136	ltpFR	8	n/a	n/a	n/a	n/a	n/a	n/a	n/a	16	4	9	3	n/a	n/a	n/a	n/a	n/a
1076.152	n/a	PROB	538076	n/a	LTP136	ltpFR	8	n/a	n/a	n/a	n/a	n/a	n/a	n/a	25	9	8	8	n/a	n/a	n/a	n/a	n/a
1078.942	n/a	PROB	539471	n/a	LTP136	ltpFR	8	n/a	n/a	n/a	n/a	n/a	n/a	n/a	5	3	1	1	n/a	n/a	n/a	n/a	n/a
1081.972	n/a	STOP	540986	n/a	LTP136	ltpFR	8	n/a	n/a	n/a	n/a	n/a	n/a	n/a	n/a	n/a	n/a	n/a	n/a	n/a	n/a	n/a	n/a
1082.974	n/a	WORD	541487	wordpools/wasnorm_wordpool.txt	LTP136	ltpFR	8	4	1	CHESS	294	n/a	n/a	0	n/a	0	0	0	0.422607421875	0.5869140625	0	upper	amplitud.ttf
1085.982	n/a	START	542991	n/a	LTP136	ltpFR	8	n/a	n/a	n/a	n/a	n/a	n/a	n/a	n/a	n/a	n/a	n/a	n/a	n/a	n/a	n/a	n/a
1086.964	n/a	PROB	543482	n/a	LTP136	ltpFR	8	n/a	n/a	n/a	n/a	n/a	n/a	n/a	4	1	1	2	n/a	n/a	n/a	n/a	n/a
1088.298	n/a	PROB	544149	n/a	LTP136	ltpFR	8	n/a	n/a	n/a	n/a	n/a	n/a	n/a	12	1	3	8	n/a	n/a	n/a	n/a	n/a
1090.48	n/a	PROB	545240	n/a	LTP136	ltpFR	8	n/a	n/a	n/a	n/a	n/a	n/a	n/a	22	9	6	7	n/a	n/a	n/a	n/a	n/a
1095.362	n/a	PROB	547681	n/a	LTP136	ltpFR	8	n/a	n/a	n/a	n/a	n/a	n/a	n/a	15	5	5	5	n/a	n/a	n/a	n/a	n/a
1096.738	n/a	PROB	548369	n/a	LTP136	ltpFR	8	n/a	n/a	n/a	n/a	n/a	n/a	n/a	13	3	3	7	n/a	n/a	n/a	n/a	n/a
1098.462	n/a	PROB	549231	n/a	LTP136	ltpFR	8	n/a	n/a	n/a	n/a	n/a	n/a	n/a	8	2	1	5	n/a	n/a	n/a	n/a	n/a
1100.02	n/a	PROB	550010	n/a	LTP136	ltpFR	8	n/a	n/a	n/a	n/a	n/a	n/a	n/a	15	6	1	8	n/a	n/a	n/a	n/a	n/a
1101.408	n/a	STOP	550704	n/a	LTP136	ltpFR	8	n/a	n/a	n/a	n/a	n/a	n/a	n/a	n/a	n/a	n/a	n/a	n/a	n/a	n/a	n/a	n/a
1103.126	n/a	WORD	551563	wordpools/wasnorm_wordpool.txt	LTP136	ltpFR	8	4	1	CEILING	265	n/a	n/a	0	n/a	0	0	0	0.422607421875	0.5869140625	0	upper	amplitud.ttf
1106.134	n/a	START	553067	n/a	LTP136	ltpFR	8	n/a	n/a	n/a	n/a	n/a	n/a	n/a	n/a	n/a	n/a	n/a	n/a	n/a	n/a	n/a	n/a
1107.142	n/a	PROB	553571	n/a	LTP136	ltpFR	8	n/a	n/a	n/a	n/a	n/a	n/a	n/a	9	1	4	4	n/a	n/a	n/a	n/a	n/a
1109.292	n/a	PROB	554646	n/a	LTP136	ltpFR	8	n/a	n/a	n/a	n/a	n/a	n/a	n/a	17	9	2	6	n/a	n/a	n/a	n/a	n/a
1111.266	n/a	PROB	555633	n/a	LTP136	ltpFR	8	n/a	n/a	n/a	n/a	n/a	n/a	n/a	11	5	3	3	n/a	n/a	n/a	n/a	n/a
1113.14	n/a	PROB	556570	n/a	LTP136	ltpFR	8	n/a	n/a	n/a	n/a	n/a	n/a	n/a	12	4	4	4	n/a	n/a	n/a	n/a	n/a
1115.782	n/a	PROB	557891	n/a	LTP136	ltpFR	8	n/a	n/a	n/a	n/a	n/a	n/a	n/a	15	6	7	2	n/a	n/a	n/a	n/a	n/a
1117.206	n/a	PROB	558603	n/a	LTP136	ltpFR	8	n/a	n/a	n/a	n/a	n/a	n/a	n/a	11	4	2	5	n/a	n/a	n/a	n/a	n/a
1119.006	n/a	PROB	559503	n/a	LTP136	ltpFR	8	n/a	n/a	n/a	n/a	n/a	n/a	n/a	13	2	4	7	n/a	n/a	n/a	n/a	n/a
1120.914	n/a	STOP	560457	n/a	LTP136	ltpFR	8	n/a	n/a	n/a	n/a	n/a	n/a	n/a	n/a	n/a	n/a	n/a	n/a	n/a	n/a	n/a	n/a
1123.038	n/a	WORD	561519	wordpools/wasnorm_wordpool.txt	LTP136	ltpFR	8	4	1	ENCYCLOPEDIA	533	n/a	n/a	0	n/a	0	0	0	0.422607421875	0.5869140625	0	upper	amplitud.ttf
1126.044	n/a	START	563022	n/a	LTP136	ltpFR	8	n/a	n/a	n/a	n/a	n/a	n/a	n/a	n/a	n/a	n/a	n/a	n/a	n/a	n/a	n/a	n/a
1127.16	n/a	PROB	563580	n/a	LTP136	ltpFR	8	n/a	n/a	n/a	n/a	n/a	n/a	n/a	11	4	4	3	n/a	n/a	n/a	n/a	n/a
1129.536	n/a	PROB	564768	n/a	LTP136	ltpFR	8	n/a	n/a	n/a	n/a	n/a	n/a	n/a	10	2	3	5	n/a	n/a	n/a	n/a	n/a
1131.286	n/a	PROB	565643	n/a	LTP136	ltpFR	8	n/a	n/a	n/a	n/a	n/a	n/a	n/a	18	4	9	5	n/a	n/a	n/a	n/a	n/a
1133.284	n/a	PROB	566642	n/a	LTP136	ltpFR	8	n/a	n/a	n/a	n/a	n/a	n/a	n/a	19	8	8	3	n/a	n/a	n/a	n/a	n/a
1134.9	n/a	PROB	567450	n/a	LTP136	ltpFR	8	n/a	n/a	n/a	n/a	n/a	n/a	n/a	17	6	6	5	n/a	n/a	n/a	n/a	n/a
1137.868	n/a	PROB	568934	n/a	LTP136	ltpFR	8	n/a	n/a	n/a	n/a	n/a	n/a	n/a	17	7	2	8	n/a	n/a	n/a	n/a	n/a
1139.75	n/a	PROB	569875	n/a	LTP136	ltpFR	8	n/a	n/a	n/a	n/a	n/a	n/a	n/a	21	8	8	5	n/a	n/a	n/a	n/a	n/a
1141.306	n/a	STOP	570653	n/a	LTP136	ltpFR	8	n/a	n/a	n/a	n/a	n/a	n/a	n/a	n/a	n/a	n/a	n/a	n/a	n/a	n/a	n/a	n/a
1142.99	n/a	WORD	571495	wordpools/wasnorm_wordpool.txt	LTP136	ltpFR	8	4	1	BOOK	149	n/a	n/a	0	n/a	0	0	0	0.422607421875	0.5869140625	0	upper	amplitud.ttf
1145.998	n/a	START	572999	n/a	LTP136	ltpFR	8	n/a	n/a	n/a	n/a	n/a	n/a	n/a	n/a	n/a	n/a	n/a	n/a	n/a	n/a	n/a	n/a
1146.996	n/a	PROB	573498	n/a	LTP136	ltpFR	8	n/a	n/a	n/a	n/a	n/a	n/a	n/a	10	2	6	2	n/a	n/a	n/a	n/a	n/a
1150.23	n/a	PROB	575115	n/a	LTP136	ltpFR	8	n/a	n/a	n/a	n/a	n/a	n/a	n/a	10	2	6	2	n/a	n/a	n/a	n/a	n/a
1151.938	n/a	PROB	575969	n/a	LTP136	ltpFR	8	n/a	n/a	n/a	n/a	n/a	n/a	n/a	15	3	5	7	n/a	n/a	n/a	n/a	n/a
1153.662	n/a	PROB	576831	n/a	LTP136	ltpFR	8	n/a	n/a	n/a	n/a	n/a	n/a	n/a	10	4	5	1	n/a	n/a	n/a	n/a	n/a
1155.178	n/a	PROB	577589	n/a	LTP136	ltpFR	8	n/a	n/a	n/a	n/a	n/a	n/a	n/a	9	4	3	2	n/a	n/a	n/a	n/a	n/a
1158.252	n/a	PROB	579126	n/a	LTP136	ltpFR	8	n/a	n/a	n/a	n/a	n/a	n/a	n/a	15	3	5	7	n/a	n/a	n/a	n/a	n/a
1160.468	n/a	STOP	580234	n/a	LTP136	ltpFR	8	n/a	n/a	n/a	n/a	n/a	n/a	n/a	n/a	n/a	n/a	n/a	n/a	n/a	n/a	n/a	n/a
1162.958	n/a	WORD	581479	wordpools/wasnorm_wordpool.txt	LTP136	ltpFR	8	4	1	CUSTOMER	430	n/a	n/a	0	n/a	0	0	0	0.422607421875	0.5869140625	0	upper	amplitud.ttf
1165.966	n/a	START	582983	n/a	LTP136	ltpFR	8	n/a	n/a	n/a	n/a	n/a	n/a	n/a	n/a	n/a	n/a	n/a	n/a	n/a	n/a	n/a	n/a
1166.966	n/a	PROB	583483	n/a	LTP136	ltpFR	8	n/a	n/a	n/a	n/a	n/a	n/a	n/a	12	2	6	4	n/a	n/a	n/a	n/a	n/a
1169.49	n/a	PROB	584745	n/a	LTP136	ltpFR	8	n/a	n/a	n/a	n/a	n/a	n/a	n/a	18	4	8	6	n/a	n/a	n/a	n/a	n/a
1173.08	n/a	PROB	586540	n/a	LTP136	ltpFR	8	n/a	n/a	n/a	n/a	n/a	n/a	n/a	19	7	7	5	n/a	n/a	n/a	n/a	n/a
1174.598	n/a	PROB	587299	n/a	LTP136	ltpFR	8	n/a	n/a	n/a	n/a	n/a	n/a	n/a	14	3	2	9	n/a	n/a	n/a	n/a	n/a
1176.412	n/a	PROB	588206	n/a	LTP136	ltpFR	8	n/a	n/a	n/a	n/a	n/a	n/a	n/a	16	5	4	7	n/a	n/a	n/a	n/a	n/a
1178.212	n/a	PROB	589106	n/a	LTP136	ltpFR	8	n/a	n/a	n/a	n/a	n/a	n/a	n/a	18	9	2	8	n/a	n/a	n/a	n/a	n/a
1180.436	n/a	STOP	590218	n/a	LTP136	ltpFR	8	n/a	n/a	n/a	n/a	n/a	n/a	n/a	n/a	n/a	n/a	n/a	n/a	n/a	n/a	n/a	n/a
1183.044	n/a	WORD	591522	wordpools/wasnorm_wordpool.txt	LTP136	ltpFR	8	4	1	LETTUCE	814	n/a	n/a	0	n/a	0	0	0	0.422607421875	0.5869140625	0	upper	amplitud.ttf
1186.052	n/a	START	593026	n/a	LTP136	ltpFR	8	n/a	n/a	n/a	n/a	n/a	n/a	n/a	n/a	n/a	n/a	n/a	n/a	n/a	n/a	n/a	n/a
1187.194	n/a	PROB	593597	n/a	LTP136	ltpFR	8	n/a	n/a	n/a	n/a	n/a	n/a	n/a	11	6	1	4	n/a	n/a	n/a	n/a	n/a
1188.594	n/a	PROB	594297	n/a	LTP136	ltpFR	8	n/a	n/a	n/a	n/a	n/a	n/a	n/a	9	4	1	4	n/a	n/a	n/a	n/a	n/a
1190.142	n/a	PROB	595071	n/a	LTP136	ltpFR	8	n/a	n/a	n/a	n/a	n/a	n/a	n/a	11	3	5	3	n/a	n/a	n/a	n/a	n/a
1191.592	n/a	PROB	595796	n/a	LTP136	ltpFR	8	n/a	n/a	n/a	n/a	n/a	n/a	n/a	24	7	6	9	n/a	n/a	n/a	n/a	n/a
1193.366	n/a	PROB	596683	n/a	LTP136	ltpFR	8	n/a	n/a	n/a	n/a	n/a	n/a	n/a	9	4	3	2	n/a	n/a	n/a	n/a	n/a
1197.29	n/a	PROB	598645	n/a	LTP136	ltpFR	8	n/a	n/a	n/a	n/a	n/a	n/a	n/a	13	2	2	7	n/a	n/a	n/a	n/a	n/a
1202.052	n/a	STOP	601026	n/a	LTP136	ltpFR	8	n/a	n/a	n/a	n/a	n/a	n/a	n/a	n/a	n/a	n/a	n/a	n/a	n/a	n/a	n/a	n/a
1202.904	n/a	WORD	601452	wordpools/wasnorm_wordpool.txt	LTP136	ltpFR	8	4	1	IGLOO	734	n/a	n/a	0	n/a	0	0	0	0.422607421875	0.5869140625	0	upper	amplitud.ttf
1205.912	n/a	START	602956	n/a	LTP136	ltpFR	8	n/a	n/a	n/a	n/a	n/a	n/a	n/a	n/a	n/a	n/a	n/a	n/a	n/a	n/a	n/a	n/a
1206.954	n/a	PROB	603477	n/a	LTP136	ltpFR	8	n/a	n/a	n/a	n/a	n/a	n/a	n/a	11	6	2	3	n/a	n/a	n/a	n/a	n/a
1208.78	n/a	PROB	604390	n/a	LTP136	ltpFR	8	n/a	n/a	n/a	n/a	n/a	n/a	n/a	21	9	8	4	n/a	n/a	n/a	n/a	n/a
1210.612	n/a	PROB	605306	n/a	LTP136	ltpFR	8	n/a	n/a	n/a	n/a	n/a	n/a	n/a	20	6	5	9	n/a	n/a	n/a	n/a	n/a
1212.62	n/a	PROB	606310	n/a	LTP136	ltpFR	8	n/a	n/a	n/a	n/a	n/a	n/a	n/a	18	7	9	2	n/a	n/a	n/a	n/a	n/a
1215.976	n/a	PROB	607988	n/a	LTP136	ltpFR	8	n/a	n/a	n/a	n/a	n/a	n/a	n/a	19	2	8	9	n/a	n/a	n/a	n/a	n/a
1218.65	n/a	PROB	609325	n/a	LTP136	ltpFR	8	n/a	n/a	n/a	n/a	n/a	n/a	n/a	13	5	6	2	n/a	n/a	n/a	n/a	n/a
1221.912	n/a	STOP	610956	n/a	LTP136	ltpFR	8	n/a	n/a	n/a	n/a	n/a	n/a	n/a	n/a	n/a	n/a	n/a	n/a	n/a	n/a	n/a	n/a
1223.8	n/a	REC_START	611900	n/a	LTP136	ltpFR	8	4	n/a	n/a	n/a	n/a	n/a	n/a	n/a	0	0	0	n/a	n/a	n/a	n/a	n/a
1224.61	n/a	REC_WORD	612305	wordpools/wasnorm_wordpool.txt	LTP136	ltpFR	8	4	1	ENCYCLOPEDIA	533	n/a	n/a	0	n/a	0	0	0	n/a	n/a	n/a	n/a	n/a
1226.268	n/a	REC_WORD	613134	wordpools/wasnorm_wordpool.txt	LTP136	ltpFR	8	4	1	BOOK	149	n/a	n/a	0	n/a	0	0	0	n/a	n/a	n/a	n/a	n/a
1227.416	n/a	REC_WORD	613708	wordpools/wasnorm_wordpool.txt	LTP136	ltpFR	8	4	1	CUSTOMER	430	n/a	n/a	0	n/a	0	0	0	n/a	n/a	n/a	n/a	n/a
1228.778	n/a	REC_WORD	614389	wordpools/wasnorm_wordpool.txt	LTP136	ltpFR	8	4	1	LETTUCE	814	n/a	n/a	0	n/a	0	0	0	n/a	n/a	n/a	n/a	n/a
1230.104	n/a	REC_WORD	615052	wordpools/wasnorm_wordpool.txt	LTP136	ltpFR	8	4	1	IGLOO	734	n/a	n/a	0	n/a	0	0	0	n/a	n/a	n/a	n/a	n/a
1231.578	n/a	REC_WORD	615789	wordpools/wasnorm_wordpool.txt	LTP136	ltpFR	8	4	1	CEMETERY	269	n/a	n/a	0	n/a	0	0	0	n/a	n/a	n/a	n/a	n/a
1236.198	n/a	REC_WORD	618099	wordpools/wasnorm_wordpool.txt	LTP136	ltpFR	8	4	1	SHELTER	1282	n/a	n/a	0	n/a	0	0	0	n/a	n/a	n/a	n/a	n/a
1237.52	n/a	REC_WORD	618760	wordpools/wasnorm_wordpool.txt	LTP136	ltpFR	8	4	1	COFFIN	342	n/a	n/a	0	n/a	0	0	0	n/a	n/a	n/a	n/a	n/a
1321.144	n/a	START	660572	n/a	LTP136	ltpFR	8	n/a	n/a	n/a	n/a	n/a	n/a	n/a	n/a	n/a	n/a	n/a	n/a	n/a	n/a	n/a	n/a
1322.654	n/a	PROB	661327	n/a	LTP136	ltpFR	8	n/a	n/a	n/a	n/a	n/a	n/a	n/a	11	7	2	2	n/a	n/a	n/a	n/a	n/a
1325.418	n/a	PROB	662709	n/a	LTP136	ltpFR	8	n/a	n/a	n/a	n/a	n/a	n/a	n/a	20	8	4	8	n/a	n/a	n/a	n/a	n/a
1329.144	n/a	STOP	664572	n/a	LTP136	ltpFR	8	n/a	n/a	n/a	n/a	n/a	n/a	n/a	n/a	n/a	n/a	n/a	n/a	n/a	n/a	n/a	n/a
1329.974	n/a	WORD	664987	wordpools/wasnorm_wordpool.txt	LTP136	ltpFR	8	5	0	VELVET	1555	n/a	n/a	0	n/a	0	0	0	0.57763671875	0.412841796875	1	lower	zerothre.ttf
1332.982	n/a	START	666491	n/a	LTP136	ltpFR	8	n/a	n/a	n/a	n/a	n/a	n/a	n/a	n/a	n/a	n/a	n/a	n/a	n/a	n/a	n/a	n/a
1333.906	n/a	PROB	666953	n/a	LTP136	ltpFR	8	n/a	n/a	n/a	n/a	n/a	n/a	n/a	19	2	9	8	n/a	n/a	n/a	n/a	n/a
1336.656	n/a	PROB	668328	n/a	LTP136	ltpFR	8	n/a	n/a	n/a	n/a	n/a	n/a	n/a	15	5	2	8	n/a	n/a	n/a	n/a	n/a
1339.08	n/a	PROB	669540	n/a	LTP136	ltpFR	8	n/a	n/a	n/a	n/a	n/a	n/a	n/a	17	7	9	1	n/a	n/a	n/a	n/a	n/a
1340.774	n/a	STOP	670387	n/a	LTP136	ltpFR	8	n/a	n/a	n/a	n/a	n/a	n/a	n/a	n/a	n/a	n/a	n/a	n/a	n/a	n/a	n/a	n/a
1341.988	n/a	WORD	670994	wordpools/wasnorm_wordpool.txt	LTP136	ltpFR	8	5	0	ASSISTANT	48	n/a	n/a	0	n/a	0	0	0	0.57763671875	0.412841796875	1	lower	zerothre.ttf
1344.996	n/a	START	672498	n/a	LTP136	ltpFR	8	n/a	n/a	n/a	n/a	n/a	n/a	n/a	n/a	n/a	n/a	n/a	n/a	n/a	n/a	n/a	n/a
1346.144	n/a	PROB	673072	n/a	LTP136	ltpFR	8	n/a	n/a	n/a	n/a	n/a	n/a	n/a	12	2	6	4	n/a	n/a	n/a	n/a	n/a
1348.536	n/a	PROB	674268	n/a	LTP136	ltpFR	8	n/a	n/a	n/a	n/a	n/a	n/a	n/a	14	1	5	8	n/a	n/a	n/a	n/a	n/a
1349.96	n/a	PROB	674980	n/a	LTP136	ltpFR	8	n/a	n/a	n/a	n/a	n/a	n/a	n/a	22	7	8	7	n/a	n/a	n/a	n/a	n/a
1351.902	n/a	STOP	675951	n/a	LTP136	ltpFR	8	n/a	n/a	n/a	n/a	n/a	n/a	n/a	n/a	n/a	n/a	n/a	n/a	n/a	n/a	n/a	n/a
1354.1	n/a	WORD	677050	wordpools/wasnorm_wordpool.txt	LTP136	ltpFR	8	5	1	GERM	632	n/a	n/a	0	n/a	0	0	0	0.422607421875	0.5869140625	0	upper	amplitud.ttf
1357.108	n/a	START	678554	n/a	LTP136	ltpFR	8	n/a	n/a	n/a	n/a	n/a	n/a	n/a	n/a	n/a	n/a	n/a	n/a	n/a	n/a	n/a	n/a
1358.258	n/a	PROB	679129	n/a	LTP136	ltpFR	8	n/a	n/a	n/a	n/a	n/a	n/a	n/a	10	1	2	7	n/a	n/a	n/a	n/a	n/a
1360.608	n/a	PROB	680304	n/a	LTP136	ltpFR	8	n/a	n/a	n/a	n/a	n/a	n/a	n/a	15	7	1	7	n/a	n/a	n/a	n/a	n/a
1361.948	n/a	PROB	680974	n/a	LTP136	ltpFR	8	n/a	n/a	n/a	n/a	n/a	n/a	n/a	7	1	2	4	n/a	n/a	n/a	n/a	n/a
1363.44	n/a	PROB	681720	n/a	LTP136	ltpFR	8	n/a	n/a	n/a	n/a	n/a	n/a	n/a	11	1	6	4	n/a	n/a	n/a	n/a	n/a
1364.696	n/a	STOP	682348	n/a	LTP136	ltpFR	8	n/a	n/a	n/a	n/a	n/a	n/a	n/a	n/a	n/a	n/a	n/a	n/a	n/a	n/a	n/a	n/a
1366.246	n/a	WORD	683123	wordpools/wasnorm_wordpool.txt	LTP136	ltpFR	8	5	1	HOSPITAL	721	n/a	n/a	0	n/a	0	0	0	0.422607421875	0.5869140625	0	upper	amplitud.ttf
1369.254	n/a	START	684627	n/a	LTP136	ltpFR	8	n/a	n/a	n/a	n/a	n/a	n/a	n/a	n/a	n/a	n/a	n/a	n/a	n/a	n/a	n/a	n/a
1370.138	n/a	PROB	685069	n/a	LTP136	ltpFR	8	n/a	n/a	n/a	n/a	n/a	n/a	n/a	14	7	3	4	n/a	n/a	n/a	n/a	n/a
1372.004	n/a	PROB	686002	n/a	LTP136	ltpFR	8	n/a	n/a	n/a	n/a	n/a	n/a	n/a	11	3	5	3	n/a	n/a	n/a	n/a	n/a
1373.746	n/a	PROB	686873	n/a	LTP136	ltpFR	8	n/a	n/a	n/a	n/a	n/a	n/a	n/a	13	6	1	6	n/a	n/a	n/a	n/a	n/a
1377.256	n/a	STOP	688628	n/a	LTP136	ltpFR	8	n/a	n/a	n/a	n/a	n/a	n/a	n/a	n/a	n/a	n/a	n/a	n/a	n/a	n/a	n/a	n/a
1378.352	n/a	WORD	689176	wordpools/wasnorm_wordpool.txt	LTP136	ltpFR	8	5	1	CANAL	226	n/a	n/a	0	n/a	0	0	0	0.422607421875	0.5869140625	0	upper	amplitud.ttf
1381.36	n/a	START	690680	n/a	LTP136	ltpFR	8	n/a	n/a	n/a	n/a	n/a	n/a	n/a	n/a	n/a	n/a	n/a	n/a	n/a	n/a	n/a	n/a
1382.184	n/a	PROB	691092	n/a	LTP136	ltpFR	8	n/a	n/a	n/a	n/a	n/a	n/a	n/a	13	5	2	6	n/a	n/a	n/a	n/a	n/a
1383.958	n/a	PROB	691979	n/a	LTP136	ltpFR	8	n/a	n/a	n/a	n/a	n/a	n/a	n/a	6	2	2	2	n/a	n/a	n/a	n/a	n/a
1389.36	n/a	STOP	694680	n/a	LTP136	ltpFR	8	n/a	n/a	n/a	n/a	n/a	n/a	n/a	n/a	n/a	n/a	n/a	n/a	n/a	n/a	n/a	n/a
1390.19	n/a	WORD	695095	wordpools/wasnorm_wordpool.txt	LTP136	ltpFR	8	5	1	LOBSTER	837	n/a	n/a	0	n/a	0	0	0	0.422607421875	0.5869140625	0	upper	amplitud.ttf
1393.198	n/a	START	696599	n/a	LTP136	ltpFR	8	n/a	n/a	n/a	n/a	n/a	n/a	n/a	n/a	n/a	n/a	n/a	n/a	n/a	n/a	n/a	n/a
1394.346	n/a	PROB	697173	n/a	LTP136	ltpFR	8	n/a	n/a	n/a	n/a	n/a	n/a	n/a	21	5	8	8	n/a	n/a	n/a	n/a	n/a
1396.164	n/a	PROB	698082	n/a	LTP136	ltpFR	8	n/a	n/a	n/a	n/a	n/a	n/a	n/a	16	6	9	1	n/a	n/a	n/a	n/a	n/a
1397.722	n/a	PROB	698861	n/a	LTP136	ltpFR	8	n/a	n/a	n/a	n/a	n/a	n/a	n/a	18	8	5	5	n/a	n/a	n/a	n/a	n/a
1399.882	n/a	STOP	699941	n/a	LTP136	ltpFR	8	n/a	n/a	n/a	n/a	n/a	n/a	n/a	n/a	n/a	n/a	n/a	n/a	n/a	n/a	n/a	n/a
1402.144	n/a	WORD	701072	wordpools/wasnorm_wordpool.txt	LTP136	ltpFR	8	5	1	BAIT	70	n/a	n/a	0	n/a	0	0	0	0.422607421875	0.5869140625	0	upper	amplitud.ttf
1405.152	n/a	START	702576	n/a	LTP136	ltpFR	8	n/a	n/a	n/a	n/a	n/a	n/a	n/a	n/a	n/a	n/a	n/a	n/a	n/a	n/a	n/a	n/a
1406.01	n/a	PROB	703005	n/a	LTP136	ltpFR	8	n/a	n/a	n/a	n/a	n/a	n/a	n/a	21	9	5	7	n/a	n/a	n/a	n/a	n/a
1407.768	n/a	PROB	703884	n/a	LTP136	ltpFR	8	n/a	n/a	n/a	n/a	n/a	n/a	n/a	20	8	5	7	n/a	n/a	n/a	n/a	n/a
1409.5	n/a	PROB	704750	n/a	LTP136	ltpFR	8	n/a	n/a	n/a	n/a	n/a	n/a	n/a	15	7	6	2	n/a	n/a	n/a	n/a	n/a
1411.1	n/a	PROB	705550	n/a	LTP136	ltpFR	8	n/a	n/a	n/a	n/a	n/a	n/a	n/a	8	2	1	5	n/a	n/a	n/a	n/a	n/a
1412.904	n/a	STOP	706452	n/a	LTP136	ltpFR	8	n/a	n/a	n/a	n/a	n/a	n/a	n/a	n/a	n/a	n/a	n/a	n/a	n/a	n/a	n/a	n/a
1414.074	n/a	WORD	707037	wordpools/wasnorm_wordpool.txt	LTP136	ltpFR	8	5	1	SHOE	1288	n/a	n/a	0	n/a	0	0	0	0.422607421875	0.5869140625	0	upper	amplitud.ttf
1417.082	n/a	START	708541	n/a	LTP136	ltpFR	8	n/a	n/a	n/a	n/a	n/a	n/a	n/a	n/a	n/a	n/a	n/a	n/a	n/a	n/a	n/a	n/a
1418.14	n/a	PROB	709070	n/a	LTP136	ltpFR	8	n/a	n/a	n/a	n/a	n/a	n/a	n/a	18	7	7	4	n/a	n/a	n/a	n/a	n/a
1420.898	n/a	PROB	710449	n/a	LTP136	ltpFR	8	n/a	n/a	n/a	n/a	n/a	n/a	n/a	14	7	6	1	n/a	n/a	n/a	n/a	n/a
1425.082	n/a	STOP	712541	n/a	LTP136	ltpFR	8	n/a	n/a	n/a	n/a	n/a	n/a	n/a	n/a	n/a	n/a	n/a	n/a	n/a	n/a	n/a	n/a
1426.228	n/a	WORD	713114	wordpools/wasnorm_wordpool.txt	LTP136	ltpFR	8	5	0	CARNIVAL	245	n/a	n/a	0	n/a	0	0	0	0.57763671875	0.412841796875	1	lower	zerothre.ttf
1429.236	n/a	START	714618	n/a	LTP136	ltpFR	8	n/a	n/a	n/a	n/a	n/a	n/a	n/a	n/a	n/a	n/a	n/a	n/a	n/a	n/a	n/a	n/a
1430.136	n/a	PROB	715068	n/a	LTP136	ltpFR	8	n/a	n/a	n/a	n/a	n/a	n/a	n/a	10	1	4	5	n/a	n/a	n/a	n/a	n/a
1431.552	n/a	PROB	715776	n/a	LTP136	ltpFR	8	n/a	n/a	n/a	n/a	n/a	n/a	n/a	14	3	5	6	n/a	n/a	n/a	n/a	n/a
1433.426	n/a	PROB	716713	n/a	LTP136	ltpFR	8	n/a	n/a	n/a	n/a	n/a	n/a	n/a	13	6	1	6	n/a	n/a	n/a	n/a	n/a
1434.686	n/a	PROB	717343	n/a	LTP136	ltpFR	8	n/a	n/a	n/a	n/a	n/a	n/a	n/a	17	3	8	6	n/a	n/a	n/a	n/a	n/a
1436.628	n/a	STOP	718314	n/a	LTP136	ltpFR	8	n/a	n/a	n/a	n/a	n/a	n/a	n/a	n/a	n/a	n/a	n/a	n/a	n/a	n/a	n/a	n/a
1438.184	n/a	WORD	719092	wordpools/wasnorm_wordpool.txt	LTP136	ltpFR	8	5	0	WATERFALL	1595	n/a	n/a	0	n/a	0	0	0	0.57763671875	0.412841796875	1	lower	zerothre.ttf
1441.192	n/a	START	720596	n/a	LTP136	ltpFR	8	n/a	n/a	n/a	n/a	n/a	n/a	n/a	n/a	n/a	n/a	n/a	n/a	n/a	n/a	n/a	n/a
1442.158	n/a	PROB	721079	n/a	LTP136	ltpFR	8	n/a	n/a	n/a	n/a	n/a	n/a	n/a	7	2	3	2	n/a	n/a	n/a	n/a	n/a
1444.948	n/a	PROB	722474	n/a	LTP136	ltpFR	8	n/a	n/a	n/a	n/a	n/a	n/a	n/a	12	3	1	8	n/a	n/a	n/a	n/a	n/a
1446.322	n/a	PROB	723161	n/a	LTP136	ltpFR	8	n/a	n/a	n/a	n/a	n/a	n/a	n/a	11	2	2	7	n/a	n/a	n/a	n/a	n/a
1448.636	n/a	STOP	724318	n/a	LTP136	ltpFR	8	n/a	n/a	n/a	n/a	n/a	n/a	n/a	n/a	n/a	n/a	n/a	n/a	n/a	n/a	n/a	n/a
1450.304	n/a	WORD	725152	wordpools/wasnorm_wordpool.txt	LTP136	ltpFR	8	5	1	PARTY	1018	n/a	n/a	2	n/a	0	0	0	0.422607421875	0.5869140625	0	upper	amplitud.ttf
1450.938	n/a	KEY_MSG	725469	n/a	LTP136	ltpFR	8	5	n/a	n/a	n/a	n/a	n/a	n/a	n/a	0	0	0	n/a	n/a	n/a	n/a	n/a
1453.314	n/a	START	726657	n/a	LTP136	ltpFR	8	n/a	n/a	n/a	n/a	n/a	n/a	n/a	n/a	n/a	n/a	n/a	n/a	n/a	n/a	n/a	n/a
1454.354	n/a	PROB	727177	n/a	LTP136	ltpFR	8	n/a	n/a	n/a	n/a	n/a	n/a	n/a	20	9	8	3	n/a	n/a	n/a	n/a	n/a
1457.662	n/a	PROB	728831	n/a	LTP136	ltpFR	8	n/a	n/a	n/a	n/a	n/a	n/a	n/a	19	7	3	9	n/a	n/a	n/a	n/a	n/a
1461.314	n/a	STOP	730657	n/a	LTP136	ltpFR	8	n/a	n/a	n/a	n/a	n/a	n/a	n/a	n/a	n/a	n/a	n/a	n/a	n/a	n/a	n/a	n/a
1462.376	n/a	WORD	731188	wordpools/wasnorm_wordpool.txt	LTP136	ltpFR	8	5	1	CLOWN	330	n/a	n/a	0	n/a	0	0	0	0.422607421875	0.5869140625	0	upper	amplitud.ttf
1465.384	n/a	START	732692	n/a	LTP136	ltpFR	8	n/a	n/a	n/a	n/a	n/a	n/a	n/a	n/a	n/a	n/a	n/a	n/a	n/a	n/a	n/a	n/a
1466.524	n/a	PROB	733262	n/a	LTP136	ltpFR	8	n/a	n/a	n/a	n/a	n/a	n/a	n/a	20	8	4	8	n/a	n/a	n/a	n/a	n/a
1469.19	n/a	PROB	734595	n/a	LTP136	ltpFR	8	n/a	n/a	n/a	n/a	n/a	n/a	n/a	14	4	2	8	n/a	n/a	n/a	n/a	n/a
1470.964	n/a	PROB	735482	n/a	LTP136	ltpFR	8	n/a	n/a	n/a	n/a	n/a	n/a	n/a	13	1	7	5	n/a	n/a	n/a	n/a	n/a
1472.172	n/a	STOP	736086	n/a	LTP136	ltpFR	8	n/a	n/a	n/a	n/a	n/a	n/a	n/a	n/a	n/a	n/a	n/a	n/a	n/a	n/a	n/a	n/a
1474.464	n/a	WORD	737232	wordpools/wasnorm_wordpool.txt	LTP136	ltpFR	8	5	0	JUPITER	765	n/a	n/a	0	n/a	0	0	0	0.57763671875	0.412841796875	1	lower	zerothre.ttf
1477.472	n/a	START	738736	n/a	LTP136	ltpFR	8	n/a	n/a	n/a	n/a	n/a	n/a	n/a	n/a	n/a	n/a	n/a	n/a	n/a	n/a	n/a	n/a
1478.304	n/a	PROB	739152	n/a	LTP136	ltpFR	8	n/a	n/a	n/a	n/a	n/a	n/a	n/a	10	8	1	1	n/a	n/a	n/a	n/a	n/a
1479.656	n/a	PROB	739828	n/a	LTP136	ltpFR	8	n/a	n/a	n/a	n/a	n/a	n/a	n/a	18	9	8	5	n/a	n/a	n/a	n/a	n/a
1482.554	n/a	PROB	741277	n/a	LTP136	ltpFR	8	n/a	n/a	n/a	n/a	n/a	n/a	n/a	14	5	4	5	n/a	n/a	n/a	n/a	n/a
1484.63	n/a	STOP	742315	n/a	LTP136	ltpFR	8	n/a	n/a	n/a	n/a	n/a	n/a	n/a	n/a	n/a	n/a	n/a	n/a	n/a	n/a	n/a	n/a
1486.336	n/a	WORD	743168	wordpools/wasnorm_wordpool.txt	LTP136	ltpFR	8	5	0	DASHBOARD	441	n/a	n/a	0	n/a	0	0	0	0.57763671875	0.412841796875	1	lower	zerothre.ttf
1489.342	n/a	START	744671	n/a	LTP136	ltpFR	8	n/a	n/a	n/a	n/a	n/a	n/a	n/a	n/a	n/a	n/a	n/a	n/a	n/a	n/a	n/a	n/a
1490.15	n/a	PROB	745075	n/a	LTP136	ltpFR	8	n/a	n/a	n/a	n/a	n/a	n/a	n/a	19	8	7	4	n/a	n/a	n/a	n/a	n/a
1492.334	n/a	PROB	746167	n/a	LTP136	ltpFR	8	n/a	n/a	n/a	n/a	n/a	n/a	n/a	20	6	5	9	n/a	n/a	n/a	n/a	n/a
1496.974	n/a	STOP	748487	n/a	LTP136	ltpFR	8	n/a	n/a	n/a	n/a	n/a	n/a	n/a	n/a	n/a	n/a	n/a	n/a	n/a	n/a	n/a	n/a
1498.448	n/a	WORD	749224	wordpools/wasnorm_wordpool.txt	LTP136	ltpFR	8	5	0	COUGAR	387	n/a	n/a	0	n/a	0	0	0	0.57763671875	0.412841796875	1	lower	zerothre.ttf
1501.456	n/a	START	750728	n/a	LTP136	ltpFR	8	n/a	n/a	n/a	n/a	n/a	n/a	n/a	n/a	n/a	n/a	n/a	n/a	n/a	n/a	n/a	n/a
1502.456	n/a	PROB	751228	n/a	LTP136	ltpFR	8	n/a	n/a	n/a	n/a	n/a	n/a	n/a	13	4	2	7	n/a	n/a	n/a	n/a	n/a
1505.722	n/a	PROB	752861	n/a	LTP136	ltpFR	8	n/a	n/a	n/a	n/a	n/a	n/a	n/a	13	4	6	3	n/a	n/a	n/a	n/a	n/a
1509.456	n/a	STOP	754728	n/a	LTP136	ltpFR	8	n/a	n/a	n/a	n/a	n/a	n/a	n/a	n/a	n/a	n/a	n/a	n/a	n/a	n/a	n/a	n/a
1510.638	n/a	WORD	755319	wordpools/wasnorm_wordpool.txt	LTP136	ltpFR	8	5	0	SEAL	1262	n/a	n/a	0	n/a	0	0	0	0.57763671875	0.412841796875	1	lower	zerothre.ttf
1513.646	n/a	START	756823	n/a	LTP136	ltpFR	8	n/a	n/a	n/a	n/a	n/a	n/a	n/a	n/a	n/a	n/a	n/a	n/a	n/a	n/a	n/a	n/a
1514.552	n/a	PROB	757276	n/a	LTP136	ltpFR	8	n/a	n/a	n/a	n/a	n/a	n/a	n/a	10	1	1	8	n/a	n/a	n/a	n/a	n/a
1515.944	n/a	PROB	757972	n/a	LTP136	ltpFR	8	n/a	n/a	n/a	n/a	n/a	n/a	n/a	17	8	3	6	n/a	n/a	n/a	n/a	n/a
1518.0	n/a	PROB	759000	n/a	LTP136	ltpFR	8	n/a	n/a	n/a	n/a	n/a	n/a	n/a	15	8	4	3	n/a	n/a	n/a	n/a	n/a
1520.47	n/a	STOP	760235	n/a	LTP136	ltpFR	8	n/a	n/a	n/a	n/a	n/a	n/a	n/a	n/a	n/a	n/a	n/a	n/a	n/a	n/a	n/a	n/a
1523.484	n/a	REC_START	761742	n/a	LTP136	ltpFR	8	5	n/a	n/a	n/a	n/a	n/a	n/a	n/a	0	0	0	n/a	n/a	n/a	n/a	n/a
1524.122	n/a	REC_WORD	762061	wordpools/wasnorm_wordpool.txt	LTP136	ltpFR	8	5	0	SEAL	1262	n/a	n/a	0	n/a	0	0	0	n/a	n/a	n/a	n/a	n/a
1525.264	n/a	REC_WORD_VV	762632	wordpools/wasnorm_wordpool.txt	LTP136	ltpFR	8	5	n/a	<>	-1	n/a	n/a	n/a	n/a	0	0	0	n/a	n/a	n/a	n/a	n/a
1528.706	n/a	REC_WORD	764353	wordpools/wasnorm_wordpool.txt	LTP136	ltpFR	8	5	0	JUPITER	765	n/a	n/a	0	n/a	0	0	0	n/a	n/a	n/a	n/a	n/a
1530.364	n/a	REC_WORD	765182	wordpools/wasnorm_wordpool.txt	LTP136	ltpFR	8	5	0	COUGAR	387	n/a	n/a	0	n/a	0	0	0	n/a	n/a	n/a	n/a	n/a
1539.748	n/a	REC_WORD	769874	wordpools/wasnorm_wordpool.txt	LTP136	ltpFR	8	5	1	LOBSTER	837	n/a	n/a	0	n/a	0	0	0	n/a	n/a	n/a	n/a	n/a
1541.318	n/a	REC_WORD	770659	wordpools/wasnorm_wordpool.txt	LTP136	ltpFR	8	5	1	CANAL	226	n/a	n/a	0	n/a	0	0	0	n/a	n/a	n/a	n/a	n/a
1609.448	n/a	WORD	804724	wordpools/wasnorm_wordpool.txt	LTP136	ltpFR	8	6	0	SCENERY	1247	n/a	n/a	0	n/a	0	0	0	0.57763671875	0.412841796875	1	lower	zerothre.ttf
1613.622	n/a	WORD	806811	wordpools/wasnorm_wordpool.txt	LTP136	ltpFR	8	6	0	BASKETBALL	96	n/a	n/a	0	n/a	0	0	0	0.57763671875	0.412841796875	1	lower	zerothre.ttf
1617.588	n/a	WORD	808794	wordpools/wasnorm_wordpool.txt	LTP136	ltpFR	8	6	0	DOUGHNUT	490	n/a	n/a	0	n/a	0	0	0	0.57763671875	0.412841796875	1	lower	zerothre.ttf
1621.544	n/a	WORD	810772	wordpools/wasnorm_wordpool.txt	LTP136	ltpFR	8	6	0	TERRITORY	1452	n/a	n/a	0	n/a	0	0	0	0.57763671875	0.412841796875	1	lower	zerothre.ttf
1625.644	n/a	WORD	812822	wordpools/wasnorm_wordpool.txt	LTP136	ltpFR	8	6	0	CHECK	284	n/a	n/a	0	n/a	0	0	0	0.57763671875	0.412841796875	1	lower	zerothre.ttf
1629.568	n/a	WORD	814784	wordpools/wasnorm_wordpool.txt	LTP136	ltpFR	8	6	0	SHAMPOO	1274	n/a	n/a	0	n/a	0	0	0	0.57763671875	0.412841796875	1	lower	zerothre.ttf
1633.726	n/a	WORD	816863	wordpools/wasnorm_wordpool.txt	LTP136	ltpFR	8	6	0	DICE	461	n/a	n/a	0	n/a	0	0	0	0.57763671875	0.412841796875	1	lower	zerothre.ttf
1637.848	n/a	WORD	818924	wordpools/wasnorm_wordpool.txt	LTP136	ltpFR	8	6	0	BANK	83	n/a	n/a	1	n/a	0	0	0	0.57763671875	0.412841796875	1	lower	zerothre.ttf
1641.88	n/a	WORD	820940	wordpools/wasnorm_wordpool.txt	LTP136	ltpFR	8	6	0	TECHNICIAN	1443	n/a	n/a	0	n/a	0	0	0	0.57763671875	0.412841796875	1	lower	zerothre.ttf
1646.012	n/a	WORD	823006	wordpools/wasnorm_wordpool.txt	LTP136	ltpFR	8	6	0	SAND	1230	n/a	n/a	0	n/a	0	0	0	0.57763671875	0.412841796875	1	lower	zerothre.ttf
1649.936	n/a	WORD	824968	wordpools/wasnorm_wordpool.txt	LTP136	ltpFR	8	6	0	WAVE	1596	n/a	n/a	0	n/a	0	0	0	0.57763671875	0.412841796875	1	lower	zerothre.ttf
1653.96	n/a	WORD	826980	wordpools/wasnorm_wordpool.txt	LTP136	ltpFR	8	6	0	HOOD	714	n/a	n/a	0	n/a	0	0	0	0.57763671875	0.412841796875	1	lower	zerothre.ttf
1658.124	n/a	WORD	829062	wordpools/wasnorm_wordpool.txt	LTP136	ltpFR	8	6	0	CELERY	266	n/a	n/a	0	n/a	0	0	0	0.57763671875	0.412841796875	1	lower	zerothre.ttf
1662.182	n/a	WORD	831091	wordpools/wasnorm_wordpool.txt	LTP136	ltpFR	8	6	0	RAISIN	1163	n/a	n/a	0	n/a	0	0	0	0.57763671875	0.412841796875	1	lower	zerothre.ttf
1666.148	n/a	WORD	833074	wordpools/wasnorm_wordpool.txt	LTP136	ltpFR	8	6	0	MOTOR	922	n/a	n/a	0	n/a	0	0	0	0.57763671875	0.412841796875	1	lower	zerothre.ttf
1670.046	n/a	WORD	835023	wordpools/wasnorm_wordpool.txt	LTP136	ltpFR	8	6	0	DRIVEWAY	500	n/a	n/a	0	n/a	0	0	0	0.57763671875	0.412841796875	1	lower	zerothre.ttf
1673.054	n/a	START	836527	n/a	LTP136	ltpFR	8	n/a	n/a	n/a	n/a	n/a	n/a	n/a	n/a	n/a	n/a	n/a	n/a	n/a	n/a	n/a	n/a
1674.012	n/a	PROB	837006	n/a	LTP136	ltpFR	8	n/a	n/a	n/a	n/a	n/a	n/a	n/a	18	3	7	8	n/a	n/a	n/a	n/a	n/a
1676.836	n/a	PROB	838418	n/a	LTP136	ltpFR	8	n/a	n/a	n/a	n/a	n/a	n/a	n/a	14	8	5	1	n/a	n/a	n/a	n/a	n/a
1678.318	n/a	PROB	839159	n/a	LTP136	ltpFR	8	n/a	n/a	n/a	n/a	n/a	n/a	n/a	9	2	2	5	n/a	n/a	n/a	n/a	n/a
1679.59	n/a	STOP	839795	n/a	LTP136	ltpFR	8	n/a	n/a	n/a	n/a	n/a	n/a	n/a	n/a	n/a	n/a	n/a	n/a	n/a	n/a	n/a	n/a
1682.986	n/a	REC_START	841493	n/a	LTP136	ltpFR	8	6	n/a	n/a	n/a	n/a	n/a	n/a	n/a	0	0	0	n/a	n/a	n/a	n/a	n/a
1683.614	n/a	REC_WORD	841807	wordpools/wasnorm_wordpool.txt	LTP136	ltpFR	8	6	0	CELERY	266	n/a	n/a	0	n/a	0	0	0	n/a	n/a	n/a	n/a	n/a
1684.722	n/a	REC_WORD	842361	wordpools/wasnorm_wordpool.txt	LTP136	ltpFR	8	6	0	DOUGHNUT	490	n/a	n/a	0	n/a	0	0	0	n/a	n/a	n/a	n/a	n/a
1685.768	n/a	REC_WORD	842884	wordpools/wasnorm_wordpool.txt	LTP136	ltpFR	8	6	0	RAISIN	1163	n/a	n/a	0	n/a	0	0	0	n/a	n/a	n/a	n/a	n/a
1686.896	n/a	REC_WORD	843448	wordpools/wasnorm_wordpool.txt	LTP136	ltpFR	8	6	0	TECHNICIAN	1443	n/a	n/a	0	n/a	0	0	0	n/a	n/a	n/a	n/a	n/a
1692.83	n/a	REC_WORD	846415	wordpools/wasnorm_wordpool.txt	LTP136	ltpFR	8	6	0	SAND	1230	n/a	n/a	0	n/a	0	0	0	n/a	n/a	n/a	n/a	n/a
1694.658	n/a	REC_WORD	847329	wordpools/wasnorm_wordpool.txt	LTP136	ltpFR	8	6	0	WAVE	1596	n/a	n/a	0	n/a	0	0	0	n/a	n/a	n/a	n/a	n/a
1702.65	n/a	REC_WORD	851325	wordpools/wasnorm_wordpool.txt	LTP136	ltpFR	8	6	0	DICE	461	n/a	n/a	0	n/a	0	0	0	n/a	n/a	n/a	n/a	n/a
1706.876	n/a	REC_WORD	853438	wordpools/wasnorm_wordpool.txt	LTP136	ltpFR	8	6	0	BANK	83	n/a	n/a	1	n/a	0	0	0	n/a	n/a	n/a	n/a	n/a
1715.048	n/a	REC_WORD	857524	wordpools/wasnorm_wordpool.txt	LTP136	ltpFR	8	6	0	SHAMPOO	1274	n/a	n/a	0	n/a	0	0	0	n/a	n/a	n/a	n/a	n/a
1761.344	n/a	WORD	880672	wordpools/wasnorm_wordpool.txt	LTP136	ltpFR	8	7	1	POSSUM	1112	n/a	n/a	0	n/a	0	0	0	0.422607421875	0.5869140625	0	upper	amplitud.ttf
1765.276	n/a	WORD	882638	wordpools/wasnorm_wordpool.txt	LTP136	ltpFR	8	7	1	APARTMENT	30	n/a	n/a	0	n/a	0	0	0	0.422607421875	0.5869140625	0	upper	amplitud.ttf
1769.282	n/a	WORD	884641	wordpools/wasnorm_wordpool.txt	LTP136	ltpFR	8	7	1	RUBY	1214	n/a	n/a	0	n/a	0	0	0	0.422607421875	0.5869140625	0	upper	amplitud.ttf
1773.298	n/a	WORD	886649	wordpools/wasnorm_wordpool.txt	LTP136	ltpFR	8	7	1	APRON	35	n/a	n/a	0	n/a	0	0	0	0.422607421875	0.5869140625	0	upper	amplitud.ttf
1777.506	n/a	WORD	888753	wordpools/wasnorm_wordpool.txt	LTP136	ltpFR	8	7	1	KITCHEN	778	n/a	n/a	0	n/a	0	0	0	0.422607421875	0.5869140625	0	upper	amplitud.ttf
1781.612	n/a	WORD	890806	wordpools/wasnorm_wordpool.txt	LTP136	ltpFR	8	7	1	BUTLER	204	n/a	n/a	0	n/a	0	0	0	0.422607421875	0.5869140625	0	upper	amplitud.ttf
1785.746	n/a	WORD	892873	wordpools/wasnorm_wordpool.txt	LTP136	ltpFR	8	7	1	ELF	525	n/a	n/a	1	n/a	0	0	0	0.422607421875	0.5869140625	0	upper	amplitud.ttf
1789.644	n/a	WORD	894822	wordpools/wasnorm_wordpool.txt	LTP136	ltpFR	8	7	1	KEG	770	n/a	n/a	0	n/a	0	0	0	0.422607421875	0.5869140625	0	upper	amplitud.ttf
1793.642	n/a	WORD	896821	wordpools/wasnorm_wordpool.txt	LTP136	ltpFR	8	7	1	POISON	1096	n/a	n/a	0	n/a	0	0	0	0.422607421875	0.5869140625	0	upper	amplitud.ttf
1797.65	n/a	WORD	898825	wordpools/wasnorm_wordpool.txt	LTP136	ltpFR	8	7	1	VICTIM	1562	n/a	n/a	0	n/a	0	0	0	0.422607421875	0.5869140625	0	upper	amplitud.ttf
1801.742	n/a	WORD	900871	wordpools/wasnorm_wordpool.txt	LTP136	ltpFR	8	7	1	DOCTOR	478	n/a	n/a	0	n/a	0	0	0	0.422607421875	0.5869140625	0	upper	amplitud.ttf
1805.606	n/a	WORD	902803	wordpools/wasnorm_wordpool.txt	LTP136	ltpFR	8	7	1	LAWYER	806	n/a	n/a	0	n/a	0	0	0	0.422607421875	0.5869140625	0	upper	amplitud.ttf
1809.738	n/a	WORD	904869	wordpools/wasnorm_wordpool.txt	LTP136	ltpFR	8	7	1	CLARINET	317	n/a	n/a	0	n/a	0	0	0	0.422607421875	0.5869140625	0	upper	amplitud.ttf
1813.778	n/a	WORD	906889	wordpools/wasnorm_wordpool.txt	LTP136	ltpFR	8	7	1	LODGE	839	n/a	n/a	0	n/a	0	0	0	0.422607421875	0.5869140625	0	upper	amplitud.ttf
1817.926	n/a	WORD	908963	wordpools/wasnorm_wordpool.txt	LTP136	ltpFR	8	7	1	BANDANNA	80	n/a	n/a	0	n/a	0	0	0	0.422607421875	0.5869140625	0	upper	amplitud.ttf
1821.902	n/a	WORD	910951	wordpools/wasnorm_wordpool.txt	LTP136	ltpFR	8	7	1	FIDDLE	561	n/a	n/a	0	n/a	0	0	0	0.422607421875	0.5869140625	0	upper	amplitud.ttf
1824.91	n/a	START	912455	n/a	LTP136	ltpFR	8	n/a	n/a	n/a	n/a	n/a	n/a	n/a	n/a	n/a	n/a	n/a	n/a	n/a	n/a	n/a	n/a
1825.924	n/a	PROB	912962	n/a	LTP136	ltpFR	8	n/a	n/a	n/a	n/a	n/a	n/a	n/a	5	3	1	1	n/a	n/a	n/a	n/a	n/a
1830.674	n/a	PROB	915337	n/a	LTP136	ltpFR	8	n/a	n/a	n/a	n/a	n/a	n/a	n/a	15	7	3	5	n/a	n/a	n/a	n/a	n/a
1831.956	n/a	PROB	915978	n/a	LTP136	ltpFR	8	n/a	n/a	n/a	n/a	n/a	n/a	n/a	20	5	8	7	n/a	n/a	n/a	n/a	n/a
1833.848	n/a	PROB	916924	n/a	LTP136	ltpFR	8	n/a	n/a	n/a	n/a	n/a	n/a	n/a	16	8	2	6	n/a	n/a	n/a	n/a	n/a
1835.38	n/a	PROB	917690	n/a	LTP136	ltpFR	8	n/a	n/a	n/a	n/a	n/a	n/a	n/a	6	3	4	3	n/a	n/a	n/a	n/a	n/a
1838.07	n/a	PROB	919035	n/a	LTP136	ltpFR	8	n/a	n/a	n/a	n/a	n/a	n/a	n/a	15	5	7	3	n/a	n/a	n/a	n/a	n/a
1840.776	n/a	STOP	920388	n/a	LTP136	ltpFR	8	n/a	n/a	n/a	n/a	n/a	n/a	n/a	n/a	n/a	n/a	n/a	n/a	n/a	n/a	n/a	n/a
1842.72	n/a	REC_START	921360	n/a	LTP136	ltpFR	8	7	n/a	n/a	n/a	n/a	n/a	n/a	n/a	0	0	0	n/a	n/a	n/a	n/a	n/a
1843.548	n/a	REC_WORD	921774	wordpools/wasnorm_wordpool.txt	LTP136	ltpFR	8	7	1	DOCTOR	478	n/a	n/a	0	n/a	0	0	0	n/a	n/a	n/a	n/a	n/a
1844.542	n/a	REC_WORD	922271	wordpools/wasnorm_wordpool.txt	LTP136	ltpFR	8	7	1	LAWYER	806	n/a	n/a	0	n/a	0	0	0	n/a	n/a	n/a	n/a	n/a
1845.544	n/a	REC_WORD	922772	wordpools/wasnorm_wordpool.txt	LTP136	ltpFR	8	7	1	VICTIM	1562	n/a	n/a	0	n/a	0	0	0	n/a	n/a	n/a	n/a	n/a
1846.774	n/a	REC_WORD	923387	wordpools/wasnorm_wordpool.txt	LTP136	ltpFR	8	7	1	CLARINET	317	n/a	n/a	0	n/a	0	0	0	n/a	n/a	n/a	n/a	n/a
1848.044	n/a	REC_WORD	924022	wordpools/wasnorm_wordpool.txt	LTP136	ltpFR	8	7	1	LODGE	839	n/a	n/a	0	n/a	0	0	0	n/a	n/a	n/a	n/a	n/a
1851.112	n/a	REC_WORD	925556	wordpools/wasnorm_wordpool.txt	LTP136	ltpFR	8	7	1	POISON	1096	n/a	n/a	0	n/a	0	0	0	n/a	n/a	n/a	n/a	n/a
1852.394	n/a	REC_WORD	926197	wordpools/wasnorm_wordpool.txt	LTP136	ltpFR	8	7	1	POSSUM	1112	n/a	n/a	0	n/a	0	0	0	n/a	n/a	n/a	n/a	n/a
1855.792	n/a	REC_WORD	927896	wordpools/wasnorm_wordpool.txt	LTP136	ltpFR	8	7	1	ELF	525	n/a	n/a	1	n/a	0	0	0	n/a	n/a	n/a	n/a	n/a
1919.756	n/a	START	959878	n/a	LTP136	ltpFR	8	n/a	n/a	n/a	n/a	n/a	n/a	n/a	n/a	n/a	n/a	n/a	n/a	n/a	n/a	n/a	n/a
1921.262	n/a	PROB	960631	n/a	LTP136	ltpFR	8	n/a	n/a	n/a	n/a	n/a	n/a	n/a	25	7	9	9	n/a	n/a	n/a	n/a	n/a
1923.92	n/a	PROB	961960	n/a	LTP136	ltpFR	8	n/a	n/a	n/a	n/a	n/a	n/a	n/a	15	1	5	9	n/a	n/a	n/a	n/a	n/a
1925.502	n/a	PROB	962751	n/a	LTP136	ltpFR	8	n/a	n/a	n/a	n/a	n/a	n/a	n/a	13	6	4	3	n/a	n/a	n/a	n/a	n/a
1927.092	n/a	STOP	963546	n/a	LTP136	ltpFR	8	n/a	n/a	n/a	n/a	n/a	n/a	n/a	n/a	n/a	n/a	n/a	n/a	n/a	n/a	n/a	n/a
1928.744	n/a	WORD	964372	wordpools/wasnorm_wordpool.txt	LTP136	ltpFR	8	8	1	ROACH	1195	n/a	n/a	2	n/a	0	0	0	0.422607421875	0.5869140625	0	upper	amplitud.ttf
1929.744	n/a	KEY_MSG	964872	n/a	LTP136	ltpFR	8	8	n/a	n/a	n/a	n/a	n/a	n/a	n/a	0	0	0	n/a	n/a	n/a	n/a	n/a
1931.752	n/a	START	965876	n/a	LTP136	ltpFR	8	n/a	n/a	n/a	n/a	n/a	n/a	n/a	n/a	n/a	n/a	n/a	n/a	n/a	n/a	n/a	n/a
1932.608	n/a	PROB	966304	n/a	LTP136	ltpFR	8	n/a	n/a	n/a	n/a	n/a	n/a	n/a	22	9	8	5	n/a	n/a	n/a	n/a	n/a
1938.252	n/a	STOP	969126	n/a	LTP136	ltpFR	8	n/a	n/a	n/a	n/a	n/a	n/a	n/a	n/a	n/a	n/a	n/a	n/a	n/a	n/a	n/a	n/a
1940.622	n/a	WORD	970311	wordpools/wasnorm_wordpool.txt	LTP136	ltpFR	8	8	1	SHEPHERD	1283	n/a	n/a	0	n/a	0	0	0	0.422607421875	0.5869140625	0	upper	amplitud.ttf
1943.632	n/a	START	971816	n/a	LTP136	ltpFR	8	n/a	n/a	n/a	n/a	n/a	n/a	n/a	n/a	n/a	n/a	n/a	n/a	n/a	n/a	n/a	n/a
1944.706	n/a	PROB	972353	n/a	LTP136	ltpFR	8	n/a	n/a	n/a	n/a	n/a	n/a	n/a	23	6	9	6	n/a	n/a	n/a	n/a	n/a
1948.962	n/a	PROB	974481	n/a	LTP136	ltpFR	8	n/a	n/a	n/a	n/a	n/a	n/a	n/a	7	2	4	1	n/a	n/a	n/a	n/a	n/a
1950.446	n/a	STOP	975223	n/a	LTP136	ltpFR	8	n/a	n/a	n/a	n/a	n/a	n/a	n/a	n/a	n/a	n/a	n/a	n/a	n/a	n/a	n/a	n/a
1952.494	n/a	WORD	976247	wordpools/wasnorm_wordpool.txt	LTP136	ltpFR	8	8	1	TICK	1463	n/a	n/a	0	n/a	0	0	0	0.422607421875	0.5869140625	0	upper	amplitud.ttf
1955.502	n/a	START	977751	n/a	LTP136	ltpFR	8	n/a	n/a	n/a	n/a	n/a	n/a	n/a	n/a	n/a	n/a	n/a	n/a	n/a	n/a	n/a	n/a
1956.476	n/a	PROB	978238	n/a	LTP136	ltpFR	8	n/a	n/a	n/a	n/a	n/a	n/a	n/a	17	7	4	6	n/a	n/a	n/a	n/a	n/a
1960.584	n/a	PROB	980292	n/a	LTP136	ltpFR	8	n/a	n/a	n/a	n/a	n/a	n/a	n/a	10	6	2	2	n/a	n/a	n/a	n/a	n/a
1963.31	n/a	STOP	981655	n/a	LTP136	ltpFR	8	n/a	n/a	n/a	n/a	n/a	n/a	n/a	n/a	n/a	n/a	n/a	n/a	n/a	n/a	n/a	n/a
1964.556	n/a	WORD	982278	wordpools/wasnorm_wordpool.txt	LTP136	ltpFR	8	8	1	CRAB	397	n/a	n/a	0	n/a	0	0	0	0.422607421875	0.5869140625	0	upper	amplitud.ttf
1967.566	n/a	START	983783	n/a	LTP136	ltpFR	8	n/a	n/a	n/a	n/a	n/a	n/a	n/a	n/a	n/a	n/a	n/a	n/a	n/a	n/a	n/a	n/a
1968.506	n/a	PROB	984253	n/a	LTP136	ltpFR	8	n/a	n/a	n/a	n/a	n/a	n/a	n/a	22	6	9	7	n/a	n/a	n/a	n/a	n/a
1970.948	n/a	PROB	985474	n/a	LTP136	ltpFR	8	n/a	n/a	n/a	n/a	n/a	n/a	n/a	16	6	6	4	n/a	n/a	n/a	n/a	n/a
1974.382	n/a	STOP	987191	n/a	LTP136	ltpFR	8	n/a	n/a	n/a	n/a	n/a	n/a	n/a	n/a	n/a	n/a	n/a	n/a	n/a	n/a	n/a	n/a
1976.672	n/a	WORD	988336	wordpools/wasnorm_wordpool.txt	LTP136	ltpFR	8	8	0	SEAFOOD	1260	n/a	n/a	0	n/a	0	0	0	0.57763671875	0.412841796875	1	lower	zerothre.ttf
1979.678	n/a	START	989839	n/a	LTP136	ltpFR	8	n/a	n/a	n/a	n/a	n/a	n/a	n/a	n/a	n/a	n/a	n/a	n/a	n/a	n/a	n/a	n/a
1980.618	n/a	PROB	990309	n/a	LTP136	ltpFR	8	n/a	n/a	n/a	n/a	n/a	n/a	n/a	13	3	3	7	n/a	n/a	n/a	n/a	n/a
1982.534	n/a	PROB	991267	n/a	LTP136	ltpFR	8	n/a	n/a	n/a	n/a	n/a	n/a	n/a	25	9	8	8	n/a	n/a	n/a	n/a	n/a
1986.856	n/a	STOP	993428	n/a	LTP136	ltpFR	8	n/a	n/a	n/a	n/a	n/a	n/a	n/a	n/a	n/a	n/a	n/a	n/a	n/a	n/a	n/a	n/a
1988.768	n/a	WORD	994384	wordpools/wasnorm_wordpool.txt	LTP136	ltpFR	8	8	0	MULE	931	n/a	n/a	0	n/a	0	0	0	0.57763671875	0.412841796875	1	lower	zerothre.ttf
1991.776	n/a	START	995888	n/a	LTP136	ltpFR	8	n/a	n/a	n/a	n/a	n/a	n/a	n/a	n/a	n/a	n/a	n/a	n/a	n/a	n/a	n/a	n/a
1992.948	n/a	PROB	996474	n/a	LTP136	ltpFR	8	n/a	n/a	n/a	n/a	n/a	n/a	n/a	11	7	1	3	n/a	n/a	n/a	n/a	n/a
1997.522	n/a	PROB	998761	n/a	LTP136	ltpFR	8	n/a	n/a	n/a	n/a	n/a	n/a	n/a	16	5	7	3	n/a	n/a	n/a	n/a	n/a
1999.376	n/a	STOP	999688	n/a	LTP136	ltpFR	8	n/a	n/a	n/a	n/a	n/a	n/a	n/a	n/a	n/a	n/a	n/a	n/a	n/a	n/a	n/a	n/a
2000.73	n/a	WORD	1000365	wordpools/wasnorm_wordpool.txt	LTP136	ltpFR	8	8	0	SWATTER	1418	n/a	n/a	0	n/a	0	0	0	0.57763671875	0.412841796875	1	lower	zerothre.ttf
2003.738	n/a	START	1001869	n/a	LTP136	ltpFR	8	n/a	n/a	n/a	n/a	n/a	n/a	n/a	n/a	n/a	n/a	n/a	n/a	n/a	n/a	n/a	n/a
2004.62	n/a	PROB	1002310	n/a	LTP136	ltpFR	8	n/a	n/a	n/a	n/a	n/a	n/a	n/a	9	4	3	2	n/a	n/a	n/a	n/a	n/a
2007.77	n/a	PROB	1003885	n/a	LTP136	ltpFR	8	n/a	n/a	n/a	n/a	n/a	n/a	n/a	7	2	4	1	n/a	n/a	n/a	n/a	n/a
2010.176	n/a	PROB	1005088	n/a	LTP136	ltpFR	8	n/a	n/a	n/a	n/a	n/a	n/a	n/a	8	6	1	1	n/a	n/a	n/a	n/a	n/a
2011.714	n/a	STOP	1005857	n/a	LTP136	ltpFR	8	n/a	n/a	n/a	n/a	n/a	n/a	n/a	n/a	n/a	n/a	n/a	n/a	n/a	n/a	n/a	n/a
2012.826	n/a	WORD	1006413	wordpools/wasnorm_wordpool.txt	LTP136	ltpFR	8	8	0	INSECT	740	n/a	n/a	1	n/a	0	0	0	0.57763671875	0.412841796875	1	lower	zerothre.ttf
2015.834	n/a	START	1007917	n/a	LTP136	ltpFR	8	n/a	n/a	n/a	n/a	n/a	n/a	n/a	n/a	n/a	n/a	n/a	n/a	n/a	n/a	n/a	n/a
2016.934	n/a	PROB	1008467	n/a	LTP136	ltpFR	8	n/a	n/a	n/a	n/a	n/a	n/a	n/a	25	8	9	8	n/a	n/a	n/a	n/a	n/a
2020.85	n/a	PROB	1010425	n/a	LTP136	ltpFR	8	n/a	n/a	n/a	n/a	n/a	n/a	n/a	19	6	4	9	n/a	n/a	n/a	n/a	n/a
2022.834	n/a	STOP	1011417	n/a	LTP136	ltpFR	8	n/a	n/a	n/a	n/a	n/a	n/a	n/a	n/a	n/a	n/a	n/a	n/a	n/a	n/a	n/a	n/a
2024.948	n/a	WORD	1012474	wordpools/wasnorm_wordpool.txt	LTP136	ltpFR	8	8	1	WHEAT	1602	n/a	n/a	0	n/a	0	0	0	0.422607421875	0.5869140625	0	upper	amplitud.ttf
2027.956	n/a	START	1013978	n/a	LTP136	ltpFR	8	n/a	n/a	n/a	n/a	n/a	n/a	n/a	n/a	n/a	n/a	n/a	n/a	n/a	n/a	n/a	n/a
2029.038	n/a	PROB	1014519	n/a	LTP136	ltpFR	8	n/a	n/a	n/a	n/a	n/a	n/a	n/a	18	9	5	4	n/a	n/a	n/a	n/a	n/a
2031.262	n/a	PROB	1015631	n/a	LTP136	ltpFR	8	n/a	n/a	n/a	n/a	n/a	n/a	n/a	18	2	9	7	n/a	n/a	n/a	n/a	n/a
2032.97	n/a	PROB	1016485	n/a	LTP136	ltpFR	8	n/a	n/a	n/a	n/a	n/a	n/a	n/a	20	3	8	9	n/a	n/a	n/a	n/a	n/a
2035.058	n/a	STOP	1017529	n/a	LTP136	ltpFR	8	n/a	n/a	n/a	n/a	n/a	n/a	n/a	n/a	n/a	n/a	n/a	n/a	n/a	n/a	n/a	n/a
2036.986	n/a	WORD	1018493	wordpools/wasnorm_wordpool.txt	LTP136	ltpFR	8	8	1	BUN	197	n/a	n/a	0	n/a	0	0	0	0.422607421875	0.5869140625	0	upper	amplitud.ttf
2039.992	n/a	START	1019996	n/a	LTP136	ltpFR	8	n/a	n/a	n/a	n/a	n/a	n/a	n/a	n/a	n/a	n/a	n/a	n/a	n/a	n/a	n/a	n/a
2040.818	n/a	PROB	1020409	n/a	LTP136	ltpFR	8	n/a	n/a	n/a	n/a	n/a	n/a	n/a	15	5	1	9	n/a	n/a	n/a	n/a	n/a
2042.734	n/a	PROB	1021367	n/a	LTP136	ltpFR	8	n/a	n/a	n/a	n/a	n/a	n/a	n/a	22	8	7	7	n/a	n/a	n/a	n/a	n/a
2044.676	n/a	PROB	1022338	n/a	LTP136	ltpFR	8	n/a	n/a	n/a	n/a	n/a	n/a	n/a	14	4	8	2	n/a	n/a	n/a	n/a	n/a
2046.946	n/a	STOP	1023473	n/a	LTP136	ltpFR	8	n/a	n/a	n/a	n/a	n/a	n/a	n/a	n/a	n/a	n/a	n/a	n/a	n/a	n/a	n/a	n/a
2048.908	n/a	WORD	1024454	wordpools/wasnorm_wordpool.txt	LTP136	ltpFR	8	8	1	GYM	674	n/a	n/a	0	n/a	0	0	0	0.422607421875	0.5869140625	0	upper	amplitud.ttf
2051.916	n/a	START	1025958	n/a	LTP136	ltpFR	8	n/a	n/a	n/a	n/a	n/a	n/a	n/a	n/a	n/a	n/a	n/a	n/a	n/a	n/a	n/a	n/a
2052.79	n/a	PROB	1026395	n/a	LTP136	ltpFR	8	n/a	n/a	n/a	n/a	n/a	n/a	n/a	9	5	2	2	n/a	n/a	n/a	n/a	n/a
2054.798	n/a	PROB	1027399	n/a	LTP136	ltpFR	8	n/a	n/a	n/a	n/a	n/a	n/a	n/a	15	5	3	7	n/a	n/a	n/a	n/a	n/a
2056.412	n/a	PROB	1028206	n/a	LTP136	ltpFR	8	n/a	n/a	n/a	n/a	n/a	n/a	n/a	23	8	9	6	n/a	n/a	n/a	n/a	n/a
2059.49	n/a	STOP	1029745	n/a	LTP136	ltpFR	8	n/a	n/a	n/a	n/a	n/a	n/a	n/a	n/a	n/a	n/a	n/a	n/a	n/a	n/a	n/a	n/a
2060.862	n/a	WORD	1030431	wordpools/wasnorm_wordpool.txt	LTP136	ltpFR	8	8	1	BRUSH	182	n/a	n/a	0	n/a	0	0	0	0.422607421875	0.5869140625	0	upper	amplitud.ttf
2063.87	n/a	START	1031935	n/a	LTP136	ltpFR	8	n/a	n/a	n/a	n/a	n/a	n/a	n/a	n/a	n/a	n/a	n/a	n/a	n/a	n/a	n/a	n/a
2065.06	n/a	PROB	1032530	n/a	LTP136	ltpFR	8	n/a	n/a	n/a	n/a	n/a	n/a	n/a	13	3	7	3	n/a	n/a	n/a	n/a	n/a
2066.468	n/a	PROB	1033234	n/a	LTP136	ltpFR	8	n/a	n/a	n/a	n/a	n/a	n/a	n/a	14	3	2	9	n/a	n/a	n/a	n/a	n/a
2068.092	n/a	PROB	1034046	n/a	LTP136	ltpFR	8	n/a	n/a	n/a	n/a	n/a	n/a	n/a	16	4	6	6	n/a	n/a	n/a	n/a	n/a
2069.584	n/a	PROB	1034792	n/a	LTP136	ltpFR	8	n/a	n/a	n/a	n/a	n/a	n/a	n/a	13	3	9	1	n/a	n/a	n/a	n/a	n/a
2070.836	n/a	STOP	1035418	n/a	LTP136	ltpFR	8	n/a	n/a	n/a	n/a	n/a	n/a	n/a	n/a	n/a	n/a	n/a	n/a	n/a	n/a	n/a	n/a
2072.916	n/a	WORD	1036458	wordpools/wasnorm_wordpool.txt	LTP136	ltpFR	8	8	0	WEB	1598	n/a	n/a	0	n/a	0	0	0	0.57763671875	0.412841796875	1	lower	zerothre.ttf
2075.924	n/a	START	1037962	n/a	LTP136	ltpFR	8	n/a	n/a	n/a	n/a	n/a	n/a	n/a	n/a	n/a	n/a	n/a	n/a	n/a	n/a	n/a	n/a
2077.014	n/a	PROB	1038507	n/a	LTP136	ltpFR	8	n/a	n/a	n/a	n/a	n/a	n/a	n/a	17	7	8	2	n/a	n/a	n/a	n/a	n/a
2079.63	n/a	PROB	1039815	n/a	LTP136	ltpFR	8	n/a	n/a	n/a	n/a	n/a	n/a	n/a	11	7	1	3	n/a	n/a	n/a	n/a	n/a
2080.98	n/a	PROB	1040490	n/a	LTP136	ltpFR	8	n/a	n/a	n/a	n/a	n/a	n/a	n/a	9	4	3	2	n/a	n/a	n/a	n/a	n/a
2082.468	n/a	STOP	1041234	n/a	LTP136	ltpFR	8	n/a	n/a	n/a	n/a	n/a	n/a	n/a	n/a	n/a	n/a	n/a	n/a	n/a	n/a	n/a	n/a
2084.962	n/a	WORD	1042481	wordpools/wasnorm_wordpool.txt	LTP136	ltpFR	8	8	0	AIRCRAFT	11	n/a	n/a	0	n/a	0	0	0	0.57763671875	0.412841796875	1	lower	zerothre.ttf
2087.97	n/a	START	1043985	n/a	LTP136	ltpFR	8	n/a	n/a	n/a	n/a	n/a	n/a	n/a	n/a	n/a	n/a	n/a	n/a	n/a	n/a	n/a	n/a
2088.97	n/a	PROB	1044485	n/a	LTP136	ltpFR	8	n/a	n/a	n/a	n/a	n/a	n/a	n/a	5	2	1	2	n/a	n/a	n/a	n/a	n/a
2090.302	n/a	PROB	1045151	n/a	LTP136	ltpFR	8	n/a	n/a	n/a	n/a	n/a	n/a	n/a	14	8	2	4	n/a	n/a	n/a	n/a	n/a
2092.144	n/a	PROB	1046072	n/a	LTP136	ltpFR	8	n/a	n/a	n/a	n/a	n/a	n/a	n/a	18	4	6	8	n/a	n/a	n/a	n/a	n/a
2093.542	n/a	PROB	1046771	n/a	LTP136	ltpFR	8	n/a	n/a	n/a	n/a	n/a	n/a	n/a	11	2	3	6	n/a	n/a	n/a	n/a	n/a
2095.17	n/a	STOP	1047585	n/a	LTP136	ltpFR	8	n/a	n/a	n/a	n/a	n/a	n/a	n/a	n/a	n/a	n/a	n/a	n/a	n/a	n/a	n/a	n/a
2097.142	n/a	WORD	1048571	wordpools/wasnorm_wordpool.txt	LTP136	ltpFR	8	8	0	TRENCH	1503	n/a	n/a	0	n/a	0	0	0	0.57763671875	0.412841796875	1	lower	zerothre.ttf
2100.15	n/a	START	1050075	n/a	LTP136	ltpFR	8	n/a	n/a	n/a	n/a	n/a	n/a	n/a	n/a	n/a	n/a	n/a	n/a	n/a	n/a	n/a	n/a
2100.974	n/a	PROB	1050487	n/a	LTP136	ltpFR	8	n/a	n/a	n/a	n/a	n/a	n/a	n/a	16	5	2	9	n/a	n/a	n/a	n/a	n/a
2103.692	n/a	PROB	1051846	n/a	LTP136	ltpFR	8	n/a	n/a	n/a	n/a	n/a	n/a	n/a	18	4	5	9	n/a	n/a	n/a	n/a	n/a
2105.748	n/a	PROB	1052874	n/a	LTP136	ltpFR	8	n/a	n/a	n/a	n/a	n/a	n/a	n/a	16	6	7	3	n/a	n/a	n/a	n/a	n/a
2107.422	n/a	STOP	1053711	n/a	LTP136	ltpFR	8	n/a	n/a	n/a	n/a	n/a	n/a	n/a	n/a	n/a	n/a	n/a	n/a	n/a	n/a	n/a	n/a
2109.056	n/a	WORD	1054528	wordpools/wasnorm_wordpool.txt	LTP136	ltpFR	8	8	0	PORT	1110	n/a	n/a	0	n/a	0	0	0	0.57763671875	0.412841796875	1	lower	zerothre.ttf
2112.062	n/a	START	1056031	n/a	LTP136	ltpFR	8	n/a	n/a	n/a	n/a	n/a	n/a	n/a	n/a	n/a	n/a	n/a	n/a	n/a	n/a	n/a	n/a
2113.012	n/a	PROB	1056506	n/a	LTP136	ltpFR	8	n/a	n/a	n/a	n/a	n/a	n/a	n/a	19	9	5	5	n/a	n/a	n/a	n/a	n/a
2115.502	n/a	PROB	1057751	n/a	LTP136	ltpFR	8	n/a	n/a	n/a	n/a	n/a	n/a	n/a	23	7	8	8	n/a	n/a	n/a	n/a	n/a
2117.502	n/a	PROB	1058751	n/a	LTP136	ltpFR	8	n/a	n/a	n/a	n/a	n/a	n/a	n/a	16	4	9	3	n/a	n/a	n/a	n/a	n/a
2118.918	n/a	STOP	1059459	n/a	LTP136	ltpFR	8	n/a	n/a	n/a	n/a	n/a	n/a	n/a	n/a	n/a	n/a	n/a	n/a	n/a	n/a	n/a	n/a
2121.978	n/a	REC_START	1060989	n/a	LTP136	ltpFR	8	8	n/a	n/a	n/a	n/a	n/a	n/a	n/a	0	0	0	n/a	n/a	n/a	n/a	n/a
2122.838	n/a	REC_WORD	1061419	wordpools/wasnorm_wordpool.txt	LTP136	ltpFR	8	8	1	BUN	197	n/a	n/a	0	n/a	0	0	0	n/a	n/a	n/a	n/a	n/a
2124.112	n/a	REC_WORD	1062056	wordpools/wasnorm_wordpool.txt	LTP136	ltpFR	8	8	0	AIRCRAFT	11	n/a	n/a	0	n/a	0	0	0	n/a	n/a	n/a	n/a	n/a
2125.588	n/a	REC_WORD	1062794	wordpools/wasnorm_wordpool.txt	LTP136	ltpFR	8	8	1	GYM	674	n/a	n/a	0	n/a	0	0	0	n/a	n/a	n/a	n/a	n/a
2127.344	n/a	REC_WORD	1063672	wordpools/wasnorm_wordpool.txt	LTP136	ltpFR	8	8	0	SEAFOOD	1260	n/a	n/a	0	n/a	0	0	0	n/a	n/a	n/a	n/a	n/a
2129.042	n/a	REC_WORD	1064521	wordpools/wasnorm_wordpool.txt	LTP136	ltpFR	8	8	0	SWATTER	1418	n/a	n/a	0	n/a	0	0	0	n/a	n/a	n/a	n/a	n/a
2130.762	n/a	REC_WORD	1065381	wordpools/wasnorm_wordpool.txt	LTP136	ltpFR	8	8	1	SHEPHERD	1283	n/a	n/a	0	n/a	0	0	0	n/a	n/a	n/a	n/a	n/a
2200.97	n/a	WORD	1100485	wordpools/wasnorm_wordpool.txt	LTP136	ltpFR	8	9	0	ARTIST	43	n/a	n/a	0	n/a	0	0	0	0.57763671875	0.412841796875	1	lower	zerothre.ttf
2204.944	n/a	WORD	1102472	wordpools/wasnorm_wordpool.txt	LTP136	ltpFR	8	9	0	PAINT	1003	n/a	n/a	0	n/a	0	0	0	0.57763671875	0.412841796875	1	lower	zerothre.ttf
2208.826	n/a	WORD	1104413	wordpools/wasnorm_wordpool.txt	LTP136	ltpFR	8	9	0	KNUCKLE	789	n/a	n/a	0	n/a	0	0	0	0.57763671875	0.412841796875	1	lower	zerothre.ttf
2212.882	n/a	WORD	1106441	wordpools/wasnorm_wordpool.txt	LTP136	ltpFR	8	9	0	FLOOR	581	n/a	n/a	0	n/a	0	0	0	0.57763671875	0.412841796875	1	lower	zerothre.ttf
2217.064	n/a	WORD	1108532	wordpools/wasnorm_wordpool.txt	LTP136	ltpFR	8	9	0	SHED	1277	n/a	n/a	0	n/a	0	0	0	0.57763671875	0.412841796875	1	lower	zerothre.ttf
2221.238	n/a	WORD	1110619	wordpools/wasnorm_wordpool.txt	LTP136	ltpFR	8	9	0	BAND	78	n/a	n/a	1	n/a	0	0	0	0.57763671875	0.412841796875	1	lower	zerothre.ttf
2225.162	n/a	WORD	1112581	wordpools/wasnorm_wordpool.txt	LTP136	ltpFR	8	9	0	BUFFALO	186	n/a	n/a	1	n/a	0	0	0	0.57763671875	0.412841796875	1	lower	zerothre.ttf
2229.026	n/a	WORD	1114513	wordpools/wasnorm_wordpool.txt	LTP136	ltpFR	8	9	0	LEOPARD	812	n/a	n/a	0	n/a	0	0	0	0.57763671875	0.412841796875	1	lower	zerothre.ttf
2233.058	n/a	WORD	1116529	wordpools/wasnorm_wordpool.txt	LTP136	ltpFR	8	9	0	INMATE	738	n/a	n/a	1	n/a	0	0	0	0.57763671875	0.412841796875	1	lower	zerothre.ttf
2237.05	n/a	WORD	1118525	wordpools/wasnorm_wordpool.txt	LTP136	ltpFR	8	9	0	TRAITOR	1495	n/a	n/a	1	n/a	0	0	0	0.57763671875	0.412841796875	1	lower	zerothre.ttf
2240.99	n/a	WORD	1120495	wordpools/wasnorm_wordpool.txt	LTP136	ltpFR	8	9	0	PEBBLE	1035	n/a	n/a	0	n/a	0	0	0	0.57763671875	0.412841796875	1	lower	zerothre.ttf
2245.13	n/a	WORD	1122565	wordpools/wasnorm_wordpool.txt	LTP136	ltpFR	8	9	0	HIP	710	n/a	n/a	0	n/a	0	0	0	0.57763671875	0.412841796875	1	lower	zerothre.ttf
2249.178	n/a	WORD	1124589	wordpools/wasnorm_wordpool.txt	LTP136	ltpFR	8	9	0	RUG	1215	n/a	n/a	0	n/a	0	0	0	0.57763671875	0.412841796875	1	lower	zerothre.ttf
2253.096	n/a	WORD	1126548	wordpools/wasnorm_wordpool.txt	LTP136	ltpFR	8	9	0	FLEA	577	n/a	n/a	0	n/a	0	0	0	0.57763671875	0.412841796875	1	lower	zerothre.ttf
2257.228	n/a	WORD	1128614	wordpools/wasnorm_wordpool.txt	LTP136	ltpFR	8	9	0	CROWN	415	n/a	n/a	0	n/a	0	0	0	0.57763671875	0.412841796875	1	lower	zerothre.ttf
2261.318	n/a	WORD	1130659	wordpools/wasnorm_wordpool.txt	LTP136	ltpFR	8	9	0	STONE	1385	n/a	n/a	0	n/a	0	0	0	0.57763671875	0.412841796875	1	lower	zerothre.ttf
2267.04	n/a	REC_START	1133520	n/a	LTP136	ltpFR	8	9	n/a	n/a	n/a	n/a	n/a	n/a	n/a	0	0	0	n/a	n/a	n/a	n/a	n/a
2267.57	n/a	REC_WORD	1133785	wordpools/wasnorm_wordpool.txt	LTP136	ltpFR	8	9	0	RUG	1215	n/a	n/a	0	n/a	0	0	0	n/a	n/a	n/a	n/a	n/a
2268.518	n/a	REC_WORD	1134259	wordpools/wasnorm_wordpool.txt	LTP136	ltpFR	8	9	0	FLEA	577	n/a	n/a	0	n/a	0	0	0	n/a	n/a	n/a	n/a	n/a
2269.844	n/a	REC_WORD	1134922	wordpools/wasnorm_wordpool.txt	LTP136	ltpFR	8	9	0	CROWN	415	n/a	n/a	0	n/a	0	0	0	n/a	n/a	n/a	n/a	n/a
2271.104	n/a	REC_WORD	1135552	wordpools/wasnorm_wordpool.txt	LTP136	ltpFR	8	9	0	STONE	1385	n/a	n/a	0	n/a	0	0	0	n/a	n/a	n/a	n/a	n/a
2272.588	n/a	REC_WORD	1136294	wordpools/wasnorm_wordpool.txt	LTP136	ltpFR	8	9	0	PEBBLE	1035	n/a	n/a	0	n/a	0	0	0	n/a	n/a	n/a	n/a	n/a
2274.026	n/a	REC_WORD	1137013	wordpools/wasnorm_wordpool.txt	LTP136	ltpFR	8	9	0	INMATE	738	n/a	n/a	1	n/a	0	0	0	n/a	n/a	n/a	n/a	n/a
2277.038	n/a	REC_WORD	1138519	wordpools/wasnorm_wordpool.txt	LTP136	ltpFR	8	9	0	LEOPARD	812	n/a	n/a	0	n/a	0	0	0	n/a	n/a	n/a	n/a	n/a
2284.012	n/a	REC_WORD	1142006	wordpools/wasnorm_wordpool.txt	LTP136	ltpFR	8	9	n/a	GORILLA	650	n/a	n/a	n/a	n/a	0	0	0	n/a	n/a	n/a	n/a	n/a
2288.672	n/a	REC_WORD	1144336	wordpools/wasnorm_wordpool.txt	LTP136	ltpFR	8	9	0	ARTIST	43	n/a	n/a	0	n/a	0	0	0	n/a	n/a	n/a	n/a	n/a
2289.89	n/a	REC_WORD	1144945	wordpools/wasnorm_wordpool.txt	LTP136	ltpFR	8	9	0	PAINT	1003	n/a	n/a	0	n/a	0	0	0	n/a	n/a	n/a	n/a	n/a
2299.122	n/a	REC_WORD	1149561	wordpools/wasnorm_wordpool.txt	LTP136	ltpFR	8	9	0	BAND	78	n/a	n/a	1	n/a	0	0	0	n/a	n/a	n/a	n/a	n/a
2306.492	n/a	REC_WORD	1153246	wordpools/wasnorm_wordpool.txt	LTP136	ltpFR	8	9	0	KNUCKLE	789	n/a	n/a	0	n/a	0	0	0	n/a	n/a	n/a	n/a	n/a
2320.95	n/a	REC_WORD	1160475	wordpools/wasnorm_wordpool.txt	LTP136	ltpFR	8	9	n/a	LEG	809	n/a	n/a	n/a	n/a	0	0	0	n/a	n/a	n/a	n/a	n/a
2326.238	n/a	REC_WORD	1163119	wordpools/wasnorm_wordpool.txt	LTP136	ltpFR	8	9	0	TRAITOR	1495	n/a	n/a	1	n/a	0	0	0	n/a	n/a	n/a	n/a	n/a
2351.398	n/a	START	1175699	n/a	LTP136	ltpFR	8	n/a	n/a	n/a	n/a	n/a	n/a	n/a	n/a	n/a	n/a	n/a	n/a	n/a	n/a	n/a	n/a
2352.908	n/a	PROB	1176454	n/a	LTP136	ltpFR	8	n/a	n/a	n/a	n/a	n/a	n/a	n/a	8	2	4	2	n/a	n/a	n/a	n/a	n/a
2354.79	n/a	PROB	1177395	n/a	LTP136	ltpFR	8	n/a	n/a	n/a	n/a	n/a	n/a	n/a	23	9	5	9	n/a	n/a	n/a	n/a	n/a
2357.596	n/a	PROB	1178798	n/a	LTP136	ltpFR	8	n/a	n/a	n/a	n/a	n/a	n/a	n/a	14	6	6	2	n/a	n/a	n/a	n/a	n/a
2359.42	n/a	PROB	1179710	n/a	LTP136	ltpFR	8	n/a	n/a	n/a	n/a	n/a	n/a	n/a	20	9	2	9	n/a	n/a	n/a	n/a	n/a
2363.02	n/a	PROB	1181510	n/a	LTP136	ltpFR	8	n/a	n/a	n/a	n/a	n/a	n/a	n/a	16	6	7	3	n/a	n/a	n/a	n/a	n/a
2364.518	n/a	PROB	1182259	n/a	LTP136	ltpFR	8	n/a	n/a	n/a	n/a	n/a	n/a	n/a	14	4	8	2	n/a	n/a	n/a	n/a	n/a
2365.86	n/a	STOP	1182930	n/a	LTP136	ltpFR	8	n/a	n/a	n/a	n/a	n/a	n/a	n/a	n/a	n/a	n/a	n/a	n/a	n/a	n/a	n/a	n/a
2368.402	n/a	WORD	1184201	wordpools/wasnorm_wordpool.txt	LTP136	ltpFR	8	10	0	BREAD	170	n/a	n/a	0	n/a	0	0	0	0.57763671875	0.412841796875	1	lower	zerothre.ttf
2371.41	n/a	START	1185705	n/a	LTP136	ltpFR	8	n/a	n/a	n/a	n/a	n/a	n/a	n/a	n/a	n/a	n/a	n/a	n/a	n/a	n/a	n/a	n/a
2372.35	n/a	PROB	1186175	n/a	LTP136	ltpFR	8	n/a	n/a	n/a	n/a	n/a	n/a	n/a	12	1	3	8	n/a	n/a	n/a	n/a	n/a
2373.842	n/a	PROB	1186921	n/a	LTP136	ltpFR	8	n/a	n/a	n/a	n/a	n/a	n/a	n/a	24	7	9	6	n/a	n/a	n/a	n/a	n/a
2375.866	n/a	PROB	1187933	n/a	LTP136	ltpFR	8	n/a	n/a	n/a	n/a	n/a	n/a	n/a	21	9	8	4	n/a	n/a	n/a	n/a	n/a
2377.982	n/a	PROB	1188991	n/a	LTP136	ltpFR	8	n/a	n/a	n/a	n/a	n/a	n/a	n/a	20	6	8	6	n/a	n/a	n/a	n/a	n/a
2381.264	n/a	PROB	1190632	n/a	LTP136	ltpFR	8	n/a	n/a	n/a	n/a	n/a	n/a	n/a	17	6	5	6	n/a	n/a	n/a	n/a	n/a
2384.146	n/a	PROB	1192073	n/a	LTP136	ltpFR	8	n/a	n/a	n/a	n/a	n/a	n/a	n/a	10	7	2	1	n/a	n/a	n/a	n/a	n/a
2387.41	n/a	STOP	1193705	n/a	LTP136	ltpFR	8	n/a	n/a	n/a	n/a	n/a	n/a	n/a	n/a	n/a	n/a	n/a	n/a	n/a	n/a	n/a	n/a
2388.296	n/a	WORD	1194148	wordpools/wasnorm_wordpool.txt	LTP136	ltpFR	8	10	0	BIRD	129	n/a	n/a	0	n/a	0	0	0	0.57763671875	0.412841796875	1	lower	zerothre.ttf
2391.304	n/a	START	1195652	n/a	LTP136	ltpFR	8	n/a	n/a	n/a	n/a	n/a	n/a	n/a	n/a	n/a	n/a	n/a	n/a	n/a	n/a	n/a	n/a
2392.344	n/a	PROB	1196172	n/a	LTP136	ltpFR	8	n/a	n/a	n/a	n/a	n/a	n/a	n/a	14	7	6	1	n/a	n/a	n/a	n/a	n/a
2393.744	n/a	PROB	1196872	n/a	LTP136	ltpFR	8	n/a	n/a	n/a	n/a	n/a	n/a	n/a	20	4	8	8	n/a	n/a	n/a	n/a	n/a
2396.752	n/a	PROB	1198376	n/a	LTP136	ltpFR	8	n/a	n/a	n/a	n/a	n/a	n/a	n/a	16	9	4	3	n/a	n/a	n/a	n/a	n/a
2398.526	n/a	PROB	1199263	n/a	LTP136	ltpFR	8	n/a	n/a	n/a	n/a	n/a	n/a	n/a	14	5	7	2	n/a	n/a	n/a	n/a	n/a
2399.95	n/a	PROB	1199975	n/a	LTP136	ltpFR	8	n/a	n/a	n/a	n/a	n/a	n/a	n/a	20	5	9	6	n/a	n/a	n/a	n/a	n/a
2401.726	n/a	PROB	1200863	n/a	LTP136	ltpFR	8	n/a	n/a	n/a	n/a	n/a	n/a	n/a	16	2	9	5	n/a	n/a	n/a	n/a	n/a
2403.582	n/a	PROB	1201791	n/a	LTP136	ltpFR	8	n/a	n/a	n/a	n/a	n/a	n/a	n/a	17	9	2	6	n/a	n/a	n/a	n/a	n/a
2405.448	n/a	PROB	1202724	n/a	LTP136	ltpFR	8	n/a	n/a	n/a	n/a	n/a	n/a	n/a	19	9	8	2	n/a	n/a	n/a	n/a	n/a
2407.246	n/a	STOP	1203623	n/a	LTP136	ltpFR	8	n/a	n/a	n/a	n/a	n/a	n/a	n/a	n/a	n/a	n/a	n/a	n/a	n/a	n/a	n/a	n/a
2408.172	n/a	WORD	1204086	wordpools/wasnorm_wordpool.txt	LTP136	ltpFR	8	10	0	PORCUPINE	1107	n/a	n/a	0	n/a	0	0	0	0.57763671875	0.412841796875	1	lower	zerothre.ttf
2411.18	n/a	START	1205590	n/a	LTP136	ltpFR	8	n/a	n/a	n/a	n/a	n/a	n/a	n/a	n/a	n/a	n/a	n/a	n/a	n/a	n/a	n/a	n/a
2412.064	n/a	PROB	1206032	n/a	LTP136	ltpFR	8	n/a	n/a	n/a	n/a	n/a	n/a	n/a	15	3	8	4	n/a	n/a	n/a	n/a	n/a
2413.914	n/a	PROB	1206957	n/a	LTP136	ltpFR	8	n/a	n/a	n/a	n/a	n/a	n/a	n/a	14	5	5	4	n/a	n/a	n/a	n/a	n/a
2416.254	n/a	PROB	1208127	n/a	LTP136	ltpFR	8	n/a	n/a	n/a	n/a	n/a	n/a	n/a	19	6	6	7	n/a	n/a	n/a	n/a	n/a
2418.552	n/a	PROB	1209276	n/a	LTP136	ltpFR	8	n/a	n/a	n/a	n/a	n/a	n/a	n/a	15	7	5	3	n/a	n/a	n/a	n/a	n/a
2420.452	n/a	PROB	1210226	n/a	LTP136	ltpFR	8	n/a	n/a	n/a	n/a	n/a	n/a	n/a	14	3	4	7	n/a	n/a	n/a	n/a	n/a
2421.87	n/a	PROB	1210935	n/a	LTP136	ltpFR	8	n/a	n/a	n/a	n/a	n/a	n/a	n/a	5	1	3	1	n/a	n/a	n/a	n/a	n/a
2422.984	n/a	PROB	1211492	n/a	LTP136	ltpFR	8	n/a	n/a	n/a	n/a	n/a	n/a	n/a	19	7	2	7	n/a	n/a	n/a	n/a	n/a
2424.894	n/a	PROB	1212447	n/a	LTP136	ltpFR	8	n/a	n/a	n/a	n/a	n/a	n/a	n/a	17	7	3	7	n/a	n/a	n/a	n/a	n/a
2426.318	n/a	STOP	1213159	n/a	LTP136	ltpFR	8	n/a	n/a	n/a	n/a	n/a	n/a	n/a	n/a	n/a	n/a	n/a	n/a	n/a	n/a	n/a	n/a
2428.226	n/a	WORD	1214113	wordpools/wasnorm_wordpool.txt	LTP136	ltpFR	8	10	1	BROOK	177	n/a	n/a	0	n/a	0	0	0	0.422607421875	0.5869140625	0	upper	amplitud.ttf
2431.232	n/a	START	1215616	n/a	LTP136	ltpFR	8	n/a	n/a	n/a	n/a	n/a	n/a	n/a	n/a	n/a	n/a	n/a	n/a	n/a	n/a	n/a	n/a
2432.132	n/a	PROB	1216066	n/a	LTP136	ltpFR	8	n/a	n/a	n/a	n/a	n/a	n/a	n/a	17	7	2	8	n/a	n/a	n/a	n/a	n/a
2434.506	n/a	PROB	1217253	n/a	LTP136	ltpFR	8	n/a	n/a	n/a	n/a	n/a	n/a	n/a	11	2	1	8	n/a	n/a	n/a	n/a	n/a
2435.89	n/a	PROB	1217945	n/a	LTP136	ltpFR	8	n/a	n/a	n/a	n/a	n/a	n/a	n/a	7	3	2	2	n/a	n/a	n/a	n/a	n/a
2438.714	n/a	PROB	1219357	n/a	LTP136	ltpFR	8	n/a	n/a	n/a	n/a	n/a	n/a	n/a	10	8	1	1	n/a	n/a	n/a	n/a	n/a
2440.138	n/a	PROB	1220069	n/a	LTP136	ltpFR	8	n/a	n/a	n/a	n/a	n/a	n/a	n/a	12	5	6	1	n/a	n/a	n/a	n/a	n/a
2441.37	n/a	PROB	1220685	n/a	LTP136	ltpFR	8	n/a	n/a	n/a	n/a	n/a	n/a	n/a	20	7	7	6	n/a	n/a	n/a	n/a	n/a
2443.096	n/a	PROB	1221548	n/a	LTP136	ltpFR	8	n/a	n/a	n/a	n/a	n/a	n/a	n/a	15	4	8	3	n/a	n/a	n/a	n/a	n/a
2445.078	n/a	PROB	1222539	n/a	LTP136	ltpFR	8	n/a	n/a	n/a	n/a	n/a	n/a	n/a	12	4	7	1	n/a	n/a	n/a	n/a	n/a
2446.632	n/a	STOP	1223316	n/a	LTP136	ltpFR	8	n/a	n/a	n/a	n/a	n/a	n/a	n/a	n/a	n/a	n/a	n/a	n/a	n/a	n/a	n/a	n/a
2448.294	n/a	WORD	1224147	wordpools/wasnorm_wordpool.txt	LTP136	ltpFR	8	10	1	BLUEBERRY	140	n/a	n/a	0	n/a	0	0	0	0.422607421875	0.5869140625	0	upper	amplitud.ttf
2451.302	n/a	START	1225651	n/a	LTP136	ltpFR	8	n/a	n/a	n/a	n/a	n/a	n/a	n/a	n/a	n/a	n/a	n/a	n/a	n/a	n/a	n/a	n/a
2452.292	n/a	PROB	1226146	n/a	LTP136	ltpFR	8	n/a	n/a	n/a	n/a	n/a	n/a	n/a	13	1	3	9	n/a	n/a	n/a	n/a	n/a
2454.818	n/a	PROB	1227409	n/a	LTP136	ltpFR	8	n/a	n/a	n/a	n/a	n/a	n/a	n/a	6	2	2	2	n/a	n/a	n/a	n/a	n/a
2455.942	n/a	PROB	1227971	n/a	LTP136	ltpFR	8	n/a	n/a	n/a	n/a	n/a	n/a	n/a	19	5	9	5	n/a	n/a	n/a	n/a	n/a
2458.208	n/a	PROB	1229104	n/a	LTP136	ltpFR	8	n/a	n/a	n/a	n/a	n/a	n/a	n/a	17	6	7	4	n/a	n/a	n/a	n/a	n/a
2459.74	n/a	PROB	1229870	n/a	LTP136	ltpFR	8	n/a	n/a	n/a	n/a	n/a	n/a	n/a	15	5	4	6	n/a	n/a	n/a	n/a	n/a
2461.472	n/a	PROB	1230736	n/a	LTP136	ltpFR	8	n/a	n/a	n/a	n/a	n/a	n/a	n/a	12	3	2	7	n/a	n/a	n/a	n/a	n/a
2463.464	n/a	PROB	1231732	n/a	LTP136	ltpFR	8	n/a	n/a	n/a	n/a	n/a	n/a	n/a	18	8	3	5	n/a	n/a	n/a	n/a	n/a
2465.164	n/a	PROB	1232582	n/a	LTP136	ltpFR	8	n/a	n/a	n/a	n/a	n/a	n/a	n/a	15	6	1	8	n/a	n/a	n/a	n/a	n/a
2466.52	n/a	STOP	1233260	n/a	LTP136	ltpFR	8	n/a	n/a	n/a	n/a	n/a	n/a	n/a	n/a	n/a	n/a	n/a	n/a	n/a	n/a	n/a	n/a
2468.222	n/a	WORD	1234111	wordpools/wasnorm_wordpool.txt	LTP136	ltpFR	8	10	1	NEST	945	n/a	n/a	0	n/a	0	0	0	0.422607421875	0.5869140625	0	upper	amplitud.ttf
2471.228	n/a	START	1235614	n/a	LTP136	ltpFR	8	n/a	n/a	n/a	n/a	n/a	n/a	n/a	n/a	n/a	n/a	n/a	n/a	n/a	n/a	n/a	n/a
2472.162	n/a	PROB	1236081	n/a	LTP136	ltpFR	8	n/a	n/a	n/a	n/a	n/a	n/a	n/a	15	2	9	4	n/a	n/a	n/a	n/a	n/a
2473.928	n/a	PROB	1236964	n/a	LTP136	ltpFR	8	n/a	n/a	n/a	n/a	n/a	n/a	n/a	10	2	3	5	n/a	n/a	n/a	n/a	n/a
2475.944	n/a	PROB	1237972	n/a	LTP136	ltpFR	8	n/a	n/a	n/a	n/a	n/a	n/a	n/a	14	3	8	3	n/a	n/a	n/a	n/a	n/a
2477.468	n/a	PROB	1238734	n/a	LTP136	ltpFR	8	n/a	n/a	n/a	n/a	n/a	n/a	n/a	18	5	9	4	n/a	n/a	n/a	n/a	n/a
2481.376	n/a	PROB	1240688	n/a	LTP136	ltpFR	8	n/a	n/a	n/a	n/a	n/a	n/a	n/a	9	4	2	3	n/a	n/a	n/a	n/a	n/a
2483.792	n/a	PROB	1241896	n/a	LTP136	ltpFR	8	n/a	n/a	n/a	n/a	n/a	n/a	n/a	16	5	9	2	n/a	n/a	n/a	n/a	n/a
2485.914	n/a	STOP	1242957	n/a	LTP136	ltpFR	8	n/a	n/a	n/a	n/a	n/a	n/a	n/a	n/a	n/a	n/a	n/a	n/a	n/a	n/a	n/a	n/a
2488.39	n/a	WORD	1244195	wordpools/wasnorm_wordpool.txt	LTP136	ltpFR	8	10	0	RACCOON	1153	n/a	n/a	0	n/a	0	0	0	0.57763671875	0.412841796875	1	lower	zerothre.ttf
2491.398	n/a	START	1245699	n/a	LTP136	ltpFR	8	n/a	n/a	n/a	n/a	n/a	n/a	n/a	n/a	n/a	n/a	n/a	n/a	n/a	n/a	n/a	n/a
2492.23	n/a	PROB	1246115	n/a	LTP136	ltpFR	8	n/a	n/a	n/a	n/a	n/a	n/a	n/a	17	8	2	7	n/a	n/a	n/a	n/a	n/a
2494.304	n/a	PROB	1247152	n/a	LTP136	ltpFR	8	n/a	n/a	n/a	n/a	n/a	n/a	n/a	19	5	7	7	n/a	n/a	n/a	n/a	n/a
2496.188	n/a	PROB	1248094	n/a	LTP136	ltpFR	8	n/a	n/a	n/a	n/a	n/a	n/a	n/a	15	7	4	4	n/a	n/a	n/a	n/a	n/a
2498.57	n/a	PROB	1249285	n/a	LTP136	ltpFR	8	n/a	n/a	n/a	n/a	n/a	n/a	n/a	19	7	7	6	n/a	n/a	n/a	n/a	n/a
2501.228	n/a	PROB	1250614	n/a	LTP136	ltpFR	8	n/a	n/a	n/a	n/a	n/a	n/a	n/a	19	7	8	4	n/a	n/a	n/a	n/a	n/a
2503.01	n/a	PROB	1251505	n/a	LTP136	ltpFR	8	n/a	n/a	n/a	n/a	n/a	n/a	n/a	19	8	5	6	n/a	n/a	n/a	n/a	n/a
2504.544	n/a	PROB	1252272	n/a	LTP136	ltpFR	8	n/a	n/a	n/a	n/a	n/a	n/a	n/a	9	1	2	6	n/a	n/a	n/a	n/a	n/a
2505.844	n/a	PROB	1252922	n/a	LTP136	ltpFR	8	n/a	n/a	n/a	n/a	n/a	n/a	n/a	11	6	4	1	n/a	n/a	n/a	n/a	n/a
2506.978	n/a	STOP	1253489	n/a	LTP136	ltpFR	8	n/a	n/a	n/a	n/a	n/a	n/a	n/a	n/a	n/a	n/a	n/a	n/a	n/a	n/a	n/a	n/a
2508.542	n/a	WORD	1254271	wordpools/wasnorm_wordpool.txt	LTP136	ltpFR	8	10	0	PAWN	1030	n/a	n/a	0	n/a	0	0	0	0.57763671875	0.412841796875	1	lower	zerothre.ttf
2511.55	n/a	START	1255775	n/a	LTP136	ltpFR	8	n/a	n/a	n/a	n/a	n/a	n/a	n/a	n/a	n/a	n/a	n/a	n/a	n/a	n/a	n/a	n/a
2512.516	n/a	PROB	1256258	n/a	LTP136	ltpFR	8	n/a	n/a	n/a	n/a	n/a	n/a	n/a	17	5	9	3	n/a	n/a	n/a	n/a	n/a
2514.75	n/a	PROB	1257375	n/a	LTP136	ltpFR	8	n/a	n/a	n/a	n/a	n/a	n/a	n/a	11	9	1	1	n/a	n/a	n/a	n/a	n/a
2516.022	n/a	PROB	1258011	n/a	LTP136	ltpFR	8	n/a	n/a	n/a	n/a	n/a	n/a	n/a	19	3	7	9	n/a	n/a	n/a	n/a	n/a
2517.43	n/a	PROB	1258715	n/a	LTP136	ltpFR	8	n/a	n/a	n/a	n/a	n/a	n/a	n/a	17	3	6	8	n/a	n/a	n/a	n/a	n/a
2520.298	n/a	PROB	1260149	n/a	LTP136	ltpFR	8	n/a	n/a	n/a	n/a	n/a	n/a	n/a	15	7	3	5	n/a	n/a	n/a	n/a	n/a
2527.55	n/a	STOP	1263775	n/a	LTP136	ltpFR	8	n/a	n/a	n/a	n/a	n/a	n/a	n/a	n/a	n/a	n/a	n/a	n/a	n/a	n/a	n/a	n/a
2528.746	n/a	WORD	1264373	wordpools/wasnorm_wordpool.txt	LTP136	ltpFR	8	10	1	BANKER	84	n/a	n/a	2	n/a	0	0	0	0.422607421875	0.5869140625	0	upper	amplitud.ttf
2529.578	n/a	KEY_MSG	1264789	n/a	LTP136	ltpFR	8	10	n/a	n/a	n/a	n/a	n/a	n/a	n/a	0	0	0	n/a	n/a	n/a	n/a	n/a
2531.754	n/a	START	1265877	n/a	LTP136	ltpFR	8	n/a	n/a	n/a	n/a	n/a	n/a	n/a	n/a	n/a	n/a	n/a	n/a	n/a	n/a	n/a	n/a
2532.952	n/a	PROB	1266476	n/a	LTP136	ltpFR	8	n/a	n/a	n/a	n/a	n/a	n/a	n/a	11	1	5	5	n/a	n/a	n/a	n/a	n/a
2534.21	n/a	PROB	1267105	n/a	LTP136	ltpFR	8	n/a	n/a	n/a	n/a	n/a	n/a	n/a	15	6	6	3	n/a	n/a	n/a	n/a	n/a
2537.424	n/a	PROB	1268712	n/a	LTP136	ltpFR	8	n/a	n/a	n/a	n/a	n/a	n/a	n/a	7	2	3	2	n/a	n/a	n/a	n/a	n/a
2538.96	n/a	PROB	1269480	n/a	LTP136	ltpFR	8	n/a	n/a	n/a	n/a	n/a	n/a	n/a	11	2	5	4	n/a	n/a	n/a	n/a	n/a
2540.918	n/a	PROB	1270459	n/a	LTP136	ltpFR	8	n/a	n/a	n/a	n/a	n/a	n/a	n/a	16	5	6	5	n/a	n/a	n/a	n/a	n/a
2543.024	n/a	PROB	1271512	n/a	LTP136	ltpFR	8	n/a	n/a	n/a	n/a	n/a	n/a	n/a	13	1	4	8	n/a	n/a	n/a	n/a	n/a
2544.324	n/a	PROB	1272162	n/a	LTP136	ltpFR	8	n/a	n/a	n/a	n/a	n/a	n/a	n/a	17	9	3	5	n/a	n/a	n/a	n/a	n/a
2546.006	n/a	PROB	1273003	n/a	LTP136	ltpFR	8	n/a	n/a	n/a	n/a	n/a	n/a	n/a	8	2	5	1	n/a	n/a	n/a	n/a	n/a
2547.396	n/a	STOP	1273698	n/a	LTP136	ltpFR	8	n/a	n/a	n/a	n/a	n/a	n/a	n/a	n/a	n/a	n/a	n/a	n/a	n/a	n/a	n/a	n/a
2548.79	n/a	WORD	1274395	wordpools/wasnorm_wordpool.txt	LTP136	ltpFR	8	10	1	PERFUME	1049	n/a	n/a	0	n/a	0	0	0	0.422607421875	0.5869140625	0	upper	amplitud.ttf
2551.798	n/a	START	1275899	n/a	LTP136	ltpFR	8	n/a	n/a	n/a	n/a	n/a	n/a	n/a	n/a	n/a	n/a	n/a	n/a	n/a	n/a	n/a	n/a
2552.88	n/a	PROB	1276440	n/a	LTP136	ltpFR	8	n/a	n/a	n/a	n/a	n/a	n/a	n/a	15	5	5	5	n/a	n/a	n/a	n/a	n/a
2554.062	n/a	PROB	1277031	n/a	LTP136	ltpFR	8	n/a	n/a	n/a	n/a	n/a	n/a	n/a	10	4	4	2	n/a	n/a	n/a	n/a	n/a
2555.836	n/a	PROB	1277918	n/a	LTP136	ltpFR	8	n/a	n/a	n/a	n/a	n/a	n/a	n/a	17	7	7	3	n/a	n/a	n/a	n/a	n/a
2557.42	n/a	PROB	1278710	n/a	LTP136	ltpFR	8	n/a	n/a	n/a	n/a	n/a	n/a	n/a	16	6	2	8	n/a	n/a	n/a	n/a	n/a
2559.67	n/a	PROB	1279835	n/a	LTP136	ltpFR	8	n/a	n/a	n/a	n/a	n/a	n/a	n/a	5	2	1	2	n/a	n/a	n/a	n/a	n/a
2560.902	n/a	PROB	1280451	n/a	LTP136	ltpFR	8	n/a	n/a	n/a	n/a	n/a	n/a	n/a	17	3	8	6	n/a	n/a	n/a	n/a	n/a
2562.552	n/a	PROB	1281276	n/a	LTP136	ltpFR	8	n/a	n/a	n/a	n/a	n/a	n/a	n/a	4	1	1	2	n/a	n/a	n/a	n/a	n/a
2563.926	n/a	PROB	1281963	n/a	LTP136	ltpFR	8	n/a	n/a	n/a	n/a	n/a	n/a	n/a	21	3	9	9	n/a	n/a	n/a	n/a	n/a
2566.058	n/a	PROB	1283029	n/a	LTP136	ltpFR	8	n/a	n/a	n/a	n/a	n/a	n/a	n/a	8	1	6	1	n/a	n/a	n/a	n/a	n/a
2567.31	n/a	STOP	1283655	n/a	LTP136	ltpFR	8	n/a	n/a	n/a	n/a	n/a	n/a	n/a	n/a	n/a	n/a	n/a	n/a	n/a	n/a	n/a	n/a
2568.85	n/a	WORD	1284425	wordpools/wasnorm_wordpool.txt	LTP136	ltpFR	8	10	1	TOMBSTONE	1478	n/a	n/a	0	n/a	0	0	0	0.422607421875	0.5869140625	0	upper	amplitud.ttf
2571.858	n/a	START	1285929	n/a	LTP136	ltpFR	8	n/a	n/a	n/a	n/a	n/a	n/a	n/a	n/a	n/a	n/a	n/a	n/a	n/a	n/a	n/a	n/a
2572.682	n/a	PROB	1286341	n/a	LTP136	ltpFR	8	n/a	n/a	n/a	n/a	n/a	n/a	n/a	16	6	4	6	n/a	n/a	n/a	n/a	n/a
2574.538	n/a	PROB	1287269	n/a	LTP136	ltpFR	8	n/a	n/a	n/a	n/a	n/a	n/a	n/a	15	6	7	2	n/a	n/a	n/a	n/a	n/a
2576.022	n/a	PROB	1288011	n/a	LTP136	ltpFR	8	n/a	n/a	n/a	n/a	n/a	n/a	n/a	21	9	4	8	n/a	n/a	n/a	n/a	n/a
2578.096	n/a	PROB	1289048	n/a	LTP136	ltpFR	8	n/a	n/a	n/a	n/a	n/a	n/a	n/a	8	6	1	1	n/a	n/a	n/a	n/a	n/a
2579.288	n/a	PROB	1289644	n/a	LTP136	ltpFR	8	n/a	n/a	n/a	n/a	n/a	n/a	n/a	12	7	4	1	n/a	n/a	n/a	n/a	n/a
2580.504	n/a	PROB	1290252	n/a	LTP136	ltpFR	8	n/a	n/a	n/a	n/a	n/a	n/a	n/a	11	9	1	1	n/a	n/a	n/a	n/a	n/a
2581.654	n/a	PROB	1290827	n/a	LTP136	ltpFR	8	n/a	n/a	n/a	n/a	n/a	n/a	n/a	6	3	3	2	n/a	n/a	n/a	n/a	n/a
2582.986	n/a	PROB	1291493	n/a	LTP136	ltpFR	8	n/a	n/a	n/a	n/a	n/a	n/a	n/a	22	8	6	7	n/a	n/a	n/a	n/a	n/a
2584.594	n/a	PROB	1292297	n/a	LTP136	ltpFR	8	n/a	n/a	n/a	n/a	n/a	n/a	n/a	11	1	8	3	n/a	n/a	n/a	n/a	n/a
2587.858	n/a	STOP	1293929	n/a	LTP136	ltpFR	8	n/a	n/a	n/a	n/a	n/a	n/a	n/a	n/a	n/a	n/a	n/a	n/a	n/a	n/a	n/a	n/a
2588.694	n/a	WORD	1294347	wordpools/wasnorm_wordpool.txt	LTP136	ltpFR	8	10	1	CAFETERIA	217	n/a	n/a	0	n/a	0	0	0	0.422607421875	0.5869140625	0	upper	amplitud.ttf
2591.702	n/a	START	1295851	n/a	LTP136	ltpFR	8	n/a	n/a	n/a	n/a	n/a	n/a	n/a	n/a	n/a	n/a	n/a	n/a	n/a	n/a	n/a	n/a
2592.6	n/a	PROB	1296300	n/a	LTP136	ltpFR	8	n/a	n/a	n/a	n/a	n/a	n/a	n/a	12	7	4	1	n/a	n/a	n/a	n/a	n/a
2594.174	n/a	PROB	1297087	n/a	LTP136	ltpFR	8	n/a	n/a	n/a	n/a	n/a	n/a	n/a	24	7	8	9	n/a	n/a	n/a	n/a	n/a
2597.516	n/a	PROB	1298758	n/a	LTP136	ltpFR	8	n/a	n/a	n/a	n/a	n/a	n/a	n/a	10	6	3	1	n/a	n/a	n/a	n/a	n/a
2598.966	n/a	PROB	1299483	n/a	LTP136	ltpFR	8	n/a	n/a	n/a	n/a	n/a	n/a	n/a	8	1	6	1	n/a	n/a	n/a	n/a	n/a
2600.214	n/a	PROB	1300107	n/a	LTP136	ltpFR	8	n/a	n/a	n/a	n/a	n/a	n/a	n/a	27	9	9	9	n/a	n/a	n/a	n/a	n/a
2603.264	n/a	PROB	1301632	n/a	LTP136	ltpFR	8	n/a	n/a	n/a	n/a	n/a	n/a	n/a	5	1	3	1	n/a	n/a	n/a	n/a	n/a
2604.43	n/a	PROB	1302215	n/a	LTP136	ltpFR	8	n/a	n/a	n/a	n/a	n/a	n/a	n/a	7	1	4	2	n/a	n/a	n/a	n/a	n/a
2607.702	n/a	STOP	1303851	n/a	LTP136	ltpFR	8	n/a	n/a	n/a	n/a	n/a	n/a	n/a	n/a	n/a	n/a	n/a	n/a	n/a	n/a	n/a	n/a
2608.628	n/a	WORD	1304314	wordpools/wasnorm_wordpool.txt	LTP136	ltpFR	8	10	1	TOMATO	1476	n/a	n/a	0	n/a	0	0	0	0.422607421875	0.5869140625	0	upper	amplitud.ttf
2611.636	n/a	START	1305818	n/a	LTP136	ltpFR	8	n/a	n/a	n/a	n/a	n/a	n/a	n/a	n/a	n/a	n/a	n/a	n/a	n/a	n/a	n/a	n/a
2612.636	n/a	PROB	1306318	n/a	LTP136	ltpFR	8	n/a	n/a	n/a	n/a	n/a	n/a	n/a	16	6	7	3	n/a	n/a	n/a	n/a	n/a
2614.236	n/a	PROB	1307118	n/a	LTP136	ltpFR	8	n/a	n/a	n/a	n/a	n/a	n/a	n/a	10	1	8	1	n/a	n/a	n/a	n/a	n/a
2615.494	n/a	PROB	1307747	n/a	LTP136	ltpFR	8	n/a	n/a	n/a	n/a	n/a	n/a	n/a	22	9	4	8	n/a	n/a	n/a	n/a	n/a
2618.318	n/a	PROB	1309159	n/a	LTP136	ltpFR	8	n/a	n/a	n/a	n/a	n/a	n/a	n/a	17	7	7	3	n/a	n/a	n/a	n/a	n/a
2620.484	n/a	PROB	1310242	n/a	LTP136	ltpFR	8	n/a	n/a	n/a	n/a	n/a	n/a	n/a	10	2	4	4	n/a	n/a	n/a	n/a	n/a
2622.392	n/a	PROB	1311196	n/a	LTP136	ltpFR	8	n/a	n/a	n/a	n/a	n/a	n/a	n/a	11	1	4	6	n/a	n/a	n/a	n/a	n/a
2623.582	n/a	PROB	1311791	n/a	LTP136	ltpFR	8	n/a	n/a	n/a	n/a	n/a	n/a	n/a	8	4	1	3	n/a	n/a	n/a	n/a	n/a
2625.04	n/a	PROB	1312520	n/a	LTP136	ltpFR	8	n/a	n/a	n/a	n/a	n/a	n/a	n/a	12	2	1	9	n/a	n/a	n/a	n/a	n/a
2626.754	n/a	STOP	1313377	n/a	LTP136	ltpFR	8	n/a	n/a	n/a	n/a	n/a	n/a	n/a	n/a	n/a	n/a	n/a	n/a	n/a	n/a	n/a	n/a
2628.656	n/a	WORD	1314328	wordpools/wasnorm_wordpool.txt	LTP136	ltpFR	8	10	0	MONARCH	906	n/a	n/a	0	n/a	0	0	0	0.57763671875	0.412841796875	1	lower	zerothre.ttf
2631.664	n/a	START	1315832	n/a	LTP136	ltpFR	8	n/a	n/a	n/a	n/a	n/a	n/a	n/a	n/a	n/a	n/a	n/a	n/a	n/a	n/a	n/a	n/a
2632.772	n/a	PROB	1316386	n/a	LTP136	ltpFR	8	n/a	n/a	n/a	n/a	n/a	n/a	n/a	19	2	8	9	n/a	n/a	n/a	n/a	n/a
2635.604	n/a	PROB	1317802	n/a	LTP136	ltpFR	8	n/a	n/a	n/a	n/a	n/a	n/a	n/a	23	7	9	7	n/a	n/a	n/a	n/a	n/a
2637.78	n/a	PROB	1318890	n/a	LTP136	ltpFR	8	n/a	n/a	n/a	n/a	n/a	n/a	n/a	5	1	1	3	n/a	n/a	n/a	n/a	n/a
2638.854	n/a	PROB	1319427	n/a	LTP136	ltpFR	8	n/a	n/a	n/a	n/a	n/a	n/a	n/a	18	2	9	7	n/a	n/a	n/a	n/a	n/a
2642.136	n/a	PROB	1321068	n/a	LTP136	ltpFR	8	n/a	n/a	n/a	n/a	n/a	n/a	n/a	15	7	1	7	n/a	n/a	n/a	n/a	n/a
2643.518	n/a	PROB	1321759	n/a	LTP136	ltpFR	8	n/a	n/a	n/a	n/a	n/a	n/a	n/a	16	6	9	1	n/a	n/a	n/a	n/a	n/a
2645.6	n/a	PROB	1322800	n/a	LTP136	ltpFR	8	n/a	n/a	n/a	n/a	n/a	n/a	n/a	12	3	7	2	n/a	n/a	n/a	n/a	n/a
2647.01	n/a	STOP	1323505	n/a	LTP136	ltpFR	8	n/a	n/a	n/a	n/a	n/a	n/a	n/a	n/a	n/a	n/a	n/a	n/a	n/a	n/a	n/a	n/a
2648.818	n/a	WORD	1324409	wordpools/wasnorm_wordpool.txt	LTP136	ltpFR	8	10	0	CASTLE	256	n/a	n/a	0	n/a	0	0	0	0.57763671875	0.412841796875	1	lower	zerothre.ttf
2651.826	n/a	START	1325913	n/a	LTP136	ltpFR	8	n/a	n/a	n/a	n/a	n/a	n/a	n/a	n/a	n/a	n/a	n/a	n/a	n/a	n/a	n/a	n/a
2652.858	n/a	PROB	1326429	n/a	LTP136	ltpFR	8	n/a	n/a	n/a	n/a	n/a	n/a	n/a	13	3	8	2	n/a	n/a	n/a	n/a	n/a
2656.54	n/a	PROB	1328270	n/a	LTP136	ltpFR	8	n/a	n/a	n/a	n/a	n/a	n/a	n/a	13	1	6	6	n/a	n/a	n/a	n/a	n/a
2657.932	n/a	PROB	1328966	n/a	LTP136	ltpFR	8	n/a	n/a	n/a	n/a	n/a	n/a	n/a	13	8	1	4	n/a	n/a	n/a	n/a	n/a
2659.596	n/a	PROB	1329798	n/a	LTP136	ltpFR	8	n/a	n/a	n/a	n/a	n/a	n/a	n/a	19	5	6	9	n/a	n/a	n/a	n/a	n/a
2661.512	n/a	PROB	1330756	n/a	LTP136	ltpFR	8	n/a	n/a	n/a	n/a	n/a	n/a	n/a	19	9	4	6	n/a	n/a	n/a	n/a	n/a
2664.994	n/a	PROB	1332497	n/a	LTP136	ltpFR	8	n/a	n/a	n/a	n/a	n/a	n/a	n/a	12	3	6	3	n/a	n/a	n/a	n/a	n/a
2666.498	n/a	STOP	1333249	n/a	LTP136	ltpFR	8	n/a	n/a	n/a	n/a	n/a	n/a	n/a	n/a	n/a	n/a	n/a	n/a	n/a	n/a	n/a	n/a
2668.77	n/a	WORD	1334385	wordpools/wasnorm_wordpool.txt	LTP136	ltpFR	8	10	0	SUITCASE	1403	n/a	n/a	0	n/a	0	0	0	0.57763671875	0.412841796875	1	lower	zerothre.ttf
2671.778	n/a	START	1335889	n/a	LTP136	ltpFR	8	n/a	n/a	n/a	n/a	n/a	n/a	n/a	n/a	n/a	n/a	n/a	n/a	n/a	n/a	n/a	n/a
2672.968	n/a	PROB	1336484	n/a	LTP136	ltpFR	8	n/a	n/a	n/a	n/a	n/a	n/a	n/a	4	1	2	1	n/a	n/a	n/a	n/a	n/a
2674.568	n/a	PROB	1337284	n/a	LTP136	ltpFR	8	n/a	n/a	n/a	n/a	n/a	n/a	n/a	19	4	6	9	n/a	n/a	n/a	n/a	n/a
2676.334	n/a	PROB	1338167	n/a	LTP136	ltpFR	8	n/a	n/a	n/a	n/a	n/a	n/a	n/a	24	9	7	8	n/a	n/a	n/a	n/a	n/a
2679.498	n/a	PROB	1339749	n/a	LTP136	ltpFR	8	n/a	n/a	n/a	n/a	n/a	n/a	n/a	18	9	8	1	n/a	n/a	n/a	n/a	n/a
2682.34	n/a	PROB	1341170	n/a	LTP136	ltpFR	8	n/a	n/a	n/a	n/a	n/a	n/a	n/a	11	4	1	6	n/a	n/a	n/a	n/a	n/a
2683.724	n/a	PROB	1341862	n/a	LTP136	ltpFR	8	n/a	n/a	n/a	n/a	n/a	n/a	n/a	14	9	3	2	n/a	n/a	n/a	n/a	n/a
2685.214	n/a	PROB	1342607	n/a	LTP136	ltpFR	8	n/a	n/a	n/a	n/a	n/a	n/a	n/a	18	2	9	7	n/a	n/a	n/a	n/a	n/a
2686.86	n/a	STOP	1343430	n/a	LTP136	ltpFR	8	n/a	n/a	n/a	n/a	n/a	n/a	n/a	n/a	n/a	n/a	n/a	n/a	n/a	n/a	n/a	n/a
2689.512	n/a	REC_START	1344756	n/a	LTP136	ltpFR	8	10	n/a	n/a	n/a	n/a	n/a	n/a	n/a	0	0	0	n/a	n/a	n/a	n/a	n/a
2690.116	n/a	REC_WORD	1345058	wordpools/wasnorm_wordpool.txt	LTP136	ltpFR	8	10	0	SUITCASE	1403	n/a	n/a	0	n/a	0	0	0	n/a	n/a	n/a	n/a	n/a
2691.434	n/a	REC_WORD	1345717	wordpools/wasnorm_wordpool.txt	LTP136	ltpFR	8	10	1	TOMBSTONE	1478	n/a	n/a	0	n/a	0	0	0	n/a	n/a	n/a	n/a	n/a
2692.966	n/a	REC_WORD	1346483	wordpools/wasnorm_wordpool.txt	LTP136	ltpFR	8	10	1	TOMATO	1476	n/a	n/a	0	n/a	0	0	0	n/a	n/a	n/a	n/a	n/a
2694.424	n/a	REC_WORD	1347212	wordpools/wasnorm_wordpool.txt	LTP136	ltpFR	8	10	1	CAFETERIA	217	n/a	n/a	0	n/a	0	0	0	n/a	n/a	n/a	n/a	n/a
2696.836	n/a	REC_WORD	1348418	wordpools/wasnorm_wordpool.txt	LTP136	ltpFR	8	10	1	BROOK	177	n/a	n/a	0	n/a	0	0	0	n/a	n/a	n/a	n/a	n/a
2698.218	n/a	REC_WORD	1349109	wordpools/wasnorm_wordpool.txt	LTP136	ltpFR	8	10	0	BREAD	170	n/a	n/a	0	n/a	0	0	0	n/a	n/a	n/a	n/a	n/a
2699.798	n/a	REC_WORD	1349899	wordpools/wasnorm_wordpool.txt	LTP136	ltpFR	8	10	0	BREAD	170	n/a	n/a	0	n/a	0	0	0	n/a	n/a	n/a	n/a	n/a
2701.078	n/a	REC_WORD	1350539	wordpools/wasnorm_wordpool.txt	LTP136	ltpFR	8	10	1	BLUEBERRY	140	n/a	n/a	0	n/a	0	0	0	n/a	n/a	n/a	n/a	n/a
2702.758	n/a	REC_WORD	1351379	wordpools/wasnorm_wordpool.txt	LTP136	ltpFR	8	10	1	NEST	945	n/a	n/a	0	n/a	0	0	0	n/a	n/a	n/a	n/a	n/a
2765.098	n/a	REST_REWET	1382549	n/a	LTP136	ltpFR	8	10	n/a	n/a	n/a	n/a	n/a	n/a	n/a	0	0	0	n/a	n/a	n/a	n/a	n/a
3215.112	n/a	WORD	1607556	wordpools/wasnorm_wordpool.txt	LTP136	ltpFR	8	11	1	GHETTO	633	n/a	n/a	0	n/a	0	0	0	0.422607421875	0.5869140625	0	upper	amplitud.ttf
3219.21	n/a	WORD	1609605	wordpools/wasnorm_wordpool.txt	LTP136	ltpFR	8	11	1	SPOON	1357	n/a	n/a	0	n/a	0	0	0	0.422607421875	0.5869140625	0	upper	amplitud.ttf
3223.11	n/a	WORD	1611555	wordpools/wasnorm_wordpool.txt	LTP136	ltpFR	8	11	1	FUR	615	n/a	n/a	0	n/a	0	0	0	0.422607421875	0.5869140625	0	upper	amplitud.ttf
3227.308	n/a	WORD	1613654	wordpools/wasnorm_wordpool.txt	LTP136	ltpFR	8	11	1	MANSION	864	n/a	n/a	0	n/a	0	0	0	0.422607421875	0.5869140625	0	upper	amplitud.ttf
3231.214	n/a	WORD	1615607	wordpools/wasnorm_wordpool.txt	LTP136	ltpFR	8	11	1	COOK	372	n/a	n/a	0	n/a	0	0	0	0.422607421875	0.5869140625	0	upper	amplitud.ttf
3235.106	n/a	WORD	1617553	wordpools/wasnorm_wordpool.txt	LTP136	ltpFR	8	11	1	RABBIT	1152	n/a	n/a	1	n/a	0	0	0	0.422607421875	0.5869140625	0	upper	amplitud.ttf
3239.22	n/a	WORD	1619610	wordpools/wasnorm_wordpool.txt	LTP136	ltpFR	8	11	0	ROBE	1198	n/a	n/a	0	n/a	0	0	0	0.57763671875	0.412841796875	1	lower	zerothre.ttf
3243.086	n/a	WORD	1621543	wordpools/wasnorm_wordpool.txt	LTP136	ltpFR	8	11	0	COAT	333	n/a	n/a	0	n/a	0	0	0	0.57763671875	0.412841796875	1	lower	zerothre.ttf
3247.286	n/a	WORD	1623643	wordpools/wasnorm_wordpool.txt	LTP136	ltpFR	8	11	0	BUREAU	199	n/a	n/a	1	n/a	0	0	0	0.57763671875	0.412841796875	1	lower	zerothre.ttf
3251.126	n/a	WORD	1625563	wordpools/wasnorm_wordpool.txt	LTP136	ltpFR	8	11	0	FLESH	579	n/a	n/a	0	n/a	0	0	0	0.57763671875	0.412841796875	1	lower	zerothre.ttf
3255.208	n/a	WORD	1627604	wordpools/wasnorm_wordpool.txt	LTP136	ltpFR	8	11	0	DEPUTY	450	n/a	n/a	0	n/a	0	0	0	0.57763671875	0.412841796875	1	lower	zerothre.ttf
3259.406	n/a	WORD	1629703	wordpools/wasnorm_wordpool.txt	LTP136	ltpFR	8	11	0	BADGE	68	n/a	n/a	0	n/a	0	0	0	0.57763671875	0.412841796875	1	lower	zerothre.ttf
3263.448	n/a	WORD	1631724	wordpools/wasnorm_wordpool.txt	LTP136	ltpFR	8	11	1	OBOE	969	n/a	n/a	0	n/a	0	0	0	0.422607421875	0.5869140625	0	upper	amplitud.ttf
3267.37	n/a	WORD	1633685	wordpools/wasnorm_wordpool.txt	LTP136	ltpFR	8	11	1	ASTRONAUT	51	n/a	n/a	0	n/a	0	0	0	0.422607421875	0.5869140625	0	upper	amplitud.ttf
3271.536	n/a	WORD	1635768	wordpools/wasnorm_wordpool.txt	LTP136	ltpFR	8	11	0	SUN	1406	n/a	n/a	0	n/a	0	0	0	0.57763671875	0.412841796875	1	lower	zerothre.ttf
3275.426	n/a	WORD	1637713	wordpools/wasnorm_wordpool.txt	LTP136	ltpFR	8	11	0	CHEF	290	n/a	n/a	0	n/a	0	0	0	0.57763671875	0.412841796875	1	lower	zerothre.ttf
3278.434	n/a	START	1639217	n/a	LTP136	ltpFR	8	n/a	n/a	n/a	n/a	n/a	n/a	n/a	n/a	n/a	n/a	n/a	n/a	n/a	n/a	n/a	n/a
3279.45	n/a	PROB	1639725	n/a	LTP136	ltpFR	8	n/a	n/a	n/a	n/a	n/a	n/a	n/a	17	4	8	5	n/a	n/a	n/a	n/a	n/a
3281.934	n/a	PROB	1640967	n/a	LTP136	ltpFR	8	n/a	n/a	n/a	n/a	n/a	n/a	n/a	24	9	6	6	n/a	n/a	n/a	n/a	n/a
3284.366	n/a	PROB	1642183	n/a	LTP136	ltpFR	8	n/a	n/a	n/a	n/a	n/a	n/a	n/a	16	7	4	5	n/a	n/a	n/a	n/a	n/a
3286.54	n/a	PROB	1643270	n/a	LTP136	ltpFR	8	n/a	n/a	n/a	n/a	n/a	n/a	n/a	15	8	3	4	n/a	n/a	n/a	n/a	n/a
3288.198	n/a	PROB	1644099	n/a	LTP136	ltpFR	8	n/a	n/a	n/a	n/a	n/a	n/a	n/a	21	9	8	3	n/a	n/a	n/a	n/a	n/a
