onset	duration	trial_type	sample	stim_file	subject	experiment	session	trial	item_name	item_num	list	answer	test_x	test_y	test_z
212.9736328125	n/a	SESS_START	436170	n/a	LTP346	ltpFR2	13	n/a	n/a	n/a	n/a	n/a	0	0	0
237.771484375	n/a	START	486956	n/a	LTP346	ltpFR2	13	n/a	n/a	n/a	-1	n/a	n/a	n/a	n/a
237.8017578125	n/a	PROB	487018	n/a	LTP346	ltpFR2	13	n/a	n/a	n/a	-1	13	2	6	5
239.80859375	n/a	PROB	491128	n/a	LTP346	ltpFR2	13	n/a	n/a	n/a	-1	18	7	5	6
242.04833984375	n/a	PROB	495715	n/a	LTP346	ltpFR2	13	n/a	n/a	n/a	-1	13	8	3	2
243.58740234375	n/a	PROB	498867	n/a	LTP346	ltpFR2	13	n/a	n/a	n/a	-1	12	1	9	2
244.6904296875	n/a	PROB	501126	n/a	LTP346	ltpFR2	13	n/a	n/a	n/a	-1	13	4	6	3
246.12841796875	n/a	PROB	504071	n/a	LTP346	ltpFR2	13	n/a	n/a	n/a	-1	18	9	7	2
247.8681640625	n/a	PROB	507634	n/a	LTP346	ltpFR2	13	n/a	n/a	n/a	-1	12	9	1	2
248.88720703125	n/a	STOP	509721	n/a	LTP346	ltpFR2	13	n/a	n/a	n/a	-1	n/a	n/a	n/a	n/a
279.3525390625	n/a	WORD	572114	wordpools/wasnorm_wordpool_576.txt	LTP346	ltpFR2	13	1	ORANGE	980	n/a	n/a	0	0	0
281.84423828125	n/a	WORD	577217	wordpools/wasnorm_wordpool_576.txt	LTP346	ltpFR2	13	1	PEACH	1031	n/a	n/a	0	0	0
284.41845703125	n/a	WORD	582489	wordpools/wasnorm_wordpool_576.txt	LTP346	ltpFR2	13	1	COURSE	390	n/a	n/a	0	0	0
287.06005859375	n/a	WORD	587899	wordpools/wasnorm_wordpool_576.txt	LTP346	ltpFR2	13	1	BUNNY	198	n/a	n/a	0	0	0
289.53515625	n/a	WORD	592968	wordpools/wasnorm_wordpool_576.txt	LTP346	ltpFR2	13	1	SPOON	1357	n/a	n/a	0	0	0
292.3271484375	n/a	WORD	598686	wordpools/wasnorm_wordpool_576.txt	LTP346	ltpFR2	13	1	ITEM	746	n/a	n/a	0	0	0
294.93701171875	n/a	WORD	604031	wordpools/wasnorm_wordpool_576.txt	LTP346	ltpFR2	13	1	CLAM	315	n/a	n/a	0	0	0
297.6611328125	n/a	WORD	609610	wordpools/wasnorm_wordpool_576.txt	LTP346	ltpFR2	13	1	OZONE	996	n/a	n/a	0	0	0
300.3359375	n/a	WORD	615088	wordpools/wasnorm_wordpool_576.txt	LTP346	ltpFR2	13	1	SLIDE	1326	n/a	n/a	0	0	0
302.97900390625	n/a	WORD	620501	wordpools/wasnorm_wordpool_576.txt	LTP346	ltpFR2	13	1	GAZELLE	628	n/a	n/a	0	0	0
305.435546875	n/a	WORD	625532	wordpools/wasnorm_wordpool_576.txt	LTP346	ltpFR2	13	1	LOFT	840	n/a	n/a	0	0	0
307.86181640625	n/a	WORD	630501	wordpools/wasnorm_wordpool_576.txt	LTP346	ltpFR2	13	1	ICING	732	n/a	n/a	0	0	0
310.45166015625	n/a	WORD	635805	wordpools/wasnorm_wordpool_576.txt	LTP346	ltpFR2	13	1	CRICKET	408	n/a	n/a	0	0	0
313.07763671875	n/a	WORD	641183	wordpools/wasnorm_wordpool_576.txt	LTP346	ltpFR2	13	1	PICNIC	1060	n/a	n/a	0	0	0
315.568359375	n/a	WORD	646284	wordpools/wasnorm_wordpool_576.txt	LTP346	ltpFR2	13	1	BROOK	177	n/a	n/a	0	0	0
318.34423828125	n/a	WORD	651969	wordpools/wasnorm_wordpool_576.txt	LTP346	ltpFR2	13	1	RABBIT	1152	n/a	n/a	0	0	0
320.92041015625	n/a	WORD	657245	wordpools/wasnorm_wordpool_576.txt	LTP346	ltpFR2	13	1	PLIERS	1089	n/a	n/a	0	0	0
323.59423828125	n/a	WORD	662721	wordpools/wasnorm_wordpool_576.txt	LTP346	ltpFR2	13	1	CUPBOARD	425	n/a	n/a	0	0	0
326.2529296875	n/a	WORD	668166	wordpools/wasnorm_wordpool_576.txt	LTP346	ltpFR2	13	1	STREAM	1392	n/a	n/a	0	0	0
328.87890625	n/a	WORD	673544	wordpools/wasnorm_wordpool_576.txt	LTP346	ltpFR2	13	1	OX	994	n/a	n/a	0	0	0
331.31884765625	n/a	WORD	678541	wordpools/wasnorm_wordpool_576.txt	LTP346	ltpFR2	13	1	PACKAGE	997	n/a	n/a	0	0	0
333.927734375	n/a	WORD	683884	wordpools/wasnorm_wordpool_576.txt	LTP346	ltpFR2	13	1	MATTRESS	879	n/a	n/a	0	0	0
336.501953125	n/a	WORD	689156	wordpools/wasnorm_wordpool_576.txt	LTP346	ltpFR2	13	1	PADDING	999	n/a	n/a	0	0	0
339.09375	n/a	WORD	694464	wordpools/wasnorm_wordpool_576.txt	LTP346	ltpFR2	13	1	HATCHET	691	n/a	n/a	0	0	0
340.69970703125	n/a	START	697753	n/a	LTP346	ltpFR2	13	n/a	n/a	n/a	1	n/a	n/a	n/a	n/a
341.54541015625	n/a	DISTRACTOR	699485	n/a	LTP346	ltpFR2	13	1	n/a	n/a	n/a	n/a	0	0	0
341.5517578125	n/a	PROB	699498	n/a	LTP346	ltpFR2	13	n/a	n/a	n/a	1	12	5	6	1
342.75537109375	n/a	PROB	701963	n/a	LTP346	ltpFR2	13	n/a	n/a	n/a	1	15	9	3	3
345.03076171875	n/a	PROB	706623	n/a	LTP346	ltpFR2	13	n/a	n/a	n/a	1	12	8	3	1
346.2666015625	n/a	PROB	709154	n/a	LTP346	ltpFR2	13	n/a	n/a	n/a	1	15	7	6	2
347.53759765625	n/a	PROB	711757	n/a	LTP346	ltpFR2	13	n/a	n/a	n/a	1	19	7	9	3
349.142578125	n/a	PROB	715044	n/a	LTP346	ltpFR2	13	n/a	n/a	n/a	1	22	6	9	7
351.115234375	n/a	PROB	719084	n/a	LTP346	ltpFR2	13	n/a	n/a	n/a	1	13	3	4	6
352.47021484375	n/a	PROB	721859	n/a	LTP346	ltpFR2	13	n/a	n/a	n/a	1	16	5	5	6
353.6904296875	n/a	PROB	724358	n/a	LTP346	ltpFR2	13	n/a	n/a	n/a	1	6	2	1	3
355.51318359375	n/a	PROB	728091	n/a	LTP346	ltpFR2	13	n/a	n/a	n/a	1	15	9	3	3
357.72021484375	n/a	PROB	732611	n/a	LTP346	ltpFR2	13	n/a	n/a	n/a	1	22	9	9	4
359.09130859375	n/a	PROB	735419	n/a	LTP346	ltpFR2	13	n/a	n/a	n/a	1	187	1	8	8
360.96484375	n/a	PROB	739256	n/a	LTP346	ltpFR2	13	n/a	n/a	n/a	1	21	3	9	9
362.9208984375	n/a	PROB	743262	n/a	LTP346	ltpFR2	13	n/a	n/a	n/a	1	11	2	5	4
364.31884765625	n/a	STOP	746125	n/a	LTP346	ltpFR2	13	n/a	n/a	n/a	1	n/a	n/a	n/a	n/a
366.44873046875	n/a	REC_START	750487	n/a	LTP346	ltpFR2	13	1	n/a	n/a	n/a	n/a	0	0	0
367.2578125	n/a	REC_WORD	752144	wordpools/wasnorm_wordpool_576.txt	LTP346	ltpFR2	13	1	ORANGE	980	n/a	n/a	0	0	0
367.97802734375	n/a	REC_WORD	753619	wordpools/wasnorm_wordpool_576.txt	LTP346	ltpFR2	13	1	PEACH	1031	n/a	n/a	0	0	0
369.5400390625	n/a	REC_WORD	756818	wordpools/wasnorm_wordpool_576.txt	LTP346	ltpFR2	13	1	COURSE	390	n/a	n/a	0	0	0
370.48095703125	n/a	REC_WORD	758745	wordpools/wasnorm_wordpool_576.txt	LTP346	ltpFR2	13	1	BUNNY	198	n/a	n/a	0	0	0
371.0888671875	n/a	REC_WORD	759990	wordpools/wasnorm_wordpool_576.txt	LTP346	ltpFR2	13	1	SPOON	1357	n/a	n/a	0	0	0
376.91943359375	n/a	REC_WORD	771931	wordpools/wasnorm_wordpool_576.txt	LTP346	ltpFR2	13	1	CLAMP	316	n/a	n/a	0	0	0
377.59375	n/a	REC_WORD	773312	wordpools/wasnorm_wordpool_576.txt	LTP346	ltpFR2	13	1	OZONE	996	n/a	n/a	0	0	0
389.01611328125	n/a	REC_WORD	796705	wordpools/wasnorm_wordpool_576.txt	LTP346	ltpFR2	13	1	STREAM	1392	n/a	n/a	0	0	0
391.158203125	n/a	REC_WORD	801092	wordpools/wasnorm_wordpool_576.txt	LTP346	ltpFR2	13	1	BROOK	177	n/a	n/a	0	0	0
391.7373046875	n/a	REC_WORD	802278	wordpools/wasnorm_wordpool_576.txt	LTP346	ltpFR2	13	1	PICNIC	1060	n/a	n/a	0	0	0
392.4140625	n/a	REC_WORD	803664	wordpools/wasnorm_wordpool_576.txt	LTP346	ltpFR2	13	1	CRICKET	408	n/a	n/a	0	0	0
393.35693359375	n/a	REC_WORD	805595	wordpools/wasnorm_wordpool_576.txt	LTP346	ltpFR2	13	1	LOFT	840	n/a	n/a	0	0	0
394.03125	n/a	REC_WORD	806976	wordpools/wasnorm_wordpool_576.txt	LTP346	ltpFR2	13	1	ICING	732	n/a	n/a	0	0	0
399.06884765625	n/a	REC_WORD	817293	wordpools/wasnorm_wordpool_576.txt	LTP346	ltpFR2	13	1	HATCHET	691	n/a	n/a	0	0	0
399.64599609375	n/a	REC_WORD	818475	wordpools/wasnorm_wordpool_576.txt	LTP346	ltpFR2	13	1	PACKAGE	997	n/a	n/a	0	0	0
400.23876953125	n/a	REC_WORD	819689	wordpools/wasnorm_wordpool_576.txt	LTP346	ltpFR2	13	1	MATTRESS	879	n/a	n/a	0	0	0
400.98291015625	n/a	REC_WORD	821213	wordpools/wasnorm_wordpool_576.txt	LTP346	ltpFR2	13	1	PADDING	999	n/a	n/a	0	0	0
405.7109375	n/a	REC_WORD	830896	wordpools/wasnorm_wordpool_576.txt	LTP346	ltpFR2	13	1	SLIDE	1326	n/a	n/a	0	0	0
406.46875	n/a	REC_WORD	832448	wordpools/wasnorm_wordpool_576.txt	LTP346	ltpFR2	13	1	GAZELLE	628	n/a	n/a	0	0	0
417.94140625	n/a	REC_WORD	855944	wordpools/wasnorm_wordpool_576.txt	LTP346	ltpFR2	13	1	OX	994	n/a	n/a	0	0	0
456.88916015625	n/a	WORD	935709	wordpools/wasnorm_wordpool_576.txt	LTP346	ltpFR2	13	2	COTTAGE	384	n/a	n/a	0	0	0
459.56396484375	n/a	WORD	941187	wordpools/wasnorm_wordpool_576.txt	LTP346	ltpFR2	13	2	NIGHTGOWN	953	n/a	n/a	0	0	0
462.373046875	n/a	WORD	946940	wordpools/wasnorm_wordpool_576.txt	LTP346	ltpFR2	13	2	YOLK	1633	n/a	n/a	0	0	0
465.1650390625	n/a	WORD	952658	wordpools/wasnorm_wordpool_576.txt	LTP346	ltpFR2	13	2	BRIEFCASE	175	n/a	n/a	0	0	0
467.85791015625	n/a	WORD	958173	wordpools/wasnorm_wordpool_576.txt	LTP346	ltpFR2	13	2	BREAST	171	n/a	n/a	0	0	0
470.5986328125	n/a	WORD	963786	wordpools/wasnorm_wordpool_576.txt	LTP346	ltpFR2	13	2	PEPPER	1047	n/a	n/a	0	0	0
473.40869140625	n/a	WORD	969541	wordpools/wasnorm_wordpool_576.txt	LTP346	ltpFR2	13	2	STOMACH	1384	n/a	n/a	0	0	0
475.86767578125	n/a	WORD	974577	wordpools/wasnorm_wordpool_576.txt	LTP346	ltpFR2	13	2	BELLY	119	n/a	n/a	0	0	0
478.40771484375	n/a	WORD	979779	wordpools/wasnorm_wordpool_576.txt	LTP346	ltpFR2	13	2	MAMMAL	861	n/a	n/a	0	0	0
481.017578125	n/a	WORD	985124	wordpools/wasnorm_wordpool_576.txt	LTP346	ltpFR2	13	2	QUAIL	1147	n/a	n/a	0	0	0
483.75830078125	n/a	WORD	990737	wordpools/wasnorm_wordpool_576.txt	LTP346	ltpFR2	13	2	LAMP	798	n/a	n/a	0	0	0
486.29931640625	n/a	WORD	995941	wordpools/wasnorm_wordpool_576.txt	LTP346	ltpFR2	13	2	CLAMP	316	n/a	n/a	0	0	0
488.859375	n/a	WORD	1001184	wordpools/wasnorm_wordpool_576.txt	LTP346	ltpFR2	13	2	RUST	1219	n/a	n/a	0	0	0
491.650390625	n/a	WORD	1006900	wordpools/wasnorm_wordpool_576.txt	LTP346	ltpFR2	13	2	KNIFE	785	n/a	n/a	0	0	0
494.14111328125	n/a	WORD	1012001	wordpools/wasnorm_wordpool_576.txt	LTP346	ltpFR2	13	2	BUTCHER	203	n/a	n/a	0	0	0
496.56591796875	n/a	WORD	1016967	wordpools/wasnorm_wordpool_576.txt	LTP346	ltpFR2	13	2	BACON	67	n/a	n/a	0	0	0
499.3251953125	n/a	WORD	1022618	wordpools/wasnorm_wordpool_576.txt	LTP346	ltpFR2	13	2	HONEY	713	n/a	n/a	0	0	0
502.11669921875	n/a	WORD	1028335	wordpools/wasnorm_wordpool_576.txt	LTP346	ltpFR2	13	2	MILK	895	n/a	n/a	0	0	0
504.85986328125	n/a	WORD	1033953	wordpools/wasnorm_wordpool_576.txt	LTP346	ltpFR2	13	2	BEEF	113	n/a	n/a	0	0	0
507.61767578125	n/a	WORD	1039601	wordpools/wasnorm_wordpool_576.txt	LTP346	ltpFR2	13	2	GUITAR	670	n/a	n/a	0	0	0
510.29345703125	n/a	WORD	1045081	wordpools/wasnorm_wordpool_576.txt	LTP346	ltpFR2	13	2	RECORD	1176	n/a	n/a	0	0	0
513.08544921875	n/a	WORD	1050799	wordpools/wasnorm_wordpool_576.txt	LTP346	ltpFR2	13	2	GANGSTER	620	n/a	n/a	0	0	0
515.67724609375	n/a	WORD	1056107	wordpools/wasnorm_wordpool_576.txt	LTP346	ltpFR2	13	2	ICEBERG	731	n/a	n/a	0	0	0
518.11865234375	n/a	WORD	1061107	wordpools/wasnorm_wordpool_576.txt	LTP346	ltpFR2	13	2	REPORT	1184	n/a	n/a	0	0	0
519.72412109375	n/a	START	1064395	n/a	LTP346	ltpFR2	13	n/a	n/a	n/a	2	n/a	n/a	n/a	n/a
520.779296875	n/a	DISTRACTOR	1066556	n/a	LTP346	ltpFR2	13	2	n/a	n/a	n/a	n/a	0	0	0
520.79345703125	n/a	PROB	1066585	n/a	LTP346	ltpFR2	13	n/a	n/a	n/a	2	8	2	2	4
522.26513671875	n/a	PROB	1069599	n/a	LTP346	ltpFR2	13	n/a	n/a	n/a	2	13	8	3	2
523.98828125	n/a	PROB	1073128	n/a	LTP346	ltpFR2	13	n/a	n/a	n/a	2	11	5	3	3
525.3583984375	n/a	PROB	1075934	n/a	LTP346	ltpFR2	13	n/a	n/a	n/a	2	15	9	5	1
526.529296875	n/a	PROB	1078332	n/a	LTP346	ltpFR2	13	n/a	n/a	n/a	2	14	4	7	3
527.783203125	n/a	PROB	1080900	n/a	LTP346	ltpFR2	13	n/a	n/a	n/a	2	9	3	1	5
529.587890625	n/a	PROB	1084596	n/a	LTP346	ltpFR2	13	n/a	n/a	n/a	2	6	2	2	2
530.64208984375	n/a	PROB	1086755	n/a	LTP346	ltpFR2	13	n/a	n/a	n/a	2	21	5	7	9
532.26416015625	n/a	PROB	1090077	n/a	LTP346	ltpFR2	13	n/a	n/a	n/a	2	19	9	1	9
533.53515625	n/a	PROB	1092680	n/a	LTP346	ltpFR2	13	n/a	n/a	n/a	2	15	6	3	6
535.14013671875	n/a	PROB	1095967	n/a	LTP346	ltpFR2	13	n/a	n/a	n/a	2	16	6	6	4
537.212890625	n/a	PROB	1100212	n/a	LTP346	ltpFR2	13	n/a	n/a	n/a	2	10	4	1	5
538.5009765625	n/a	PROB	1102850	n/a	LTP346	ltpFR2	13	n/a	n/a	n/a	2	16	1	9	6
539.8896484375	n/a	PROB	1105694	n/a	LTP346	ltpFR2	13	n/a	n/a	n/a	2	16	7	5	4
541.20849609375	n/a	PROB	1108395	n/a	LTP346	ltpFR2	13	n/a	n/a	n/a	2	13	3	5	5
542.39892578125	n/a	STOP	1110833	n/a	LTP346	ltpFR2	13	n/a	n/a	n/a	2	n/a	n/a	n/a	n/a
545.65771484375	n/a	REC_START	1117507	n/a	LTP346	ltpFR2	13	2	n/a	n/a	n/a	n/a	0	0	0
548.15966796875	n/a	REC_WORD	1122631	wordpools/wasnorm_wordpool_576.txt	LTP346	ltpFR2	13	2	COTTAGE	384	n/a	n/a	0	0	0
549.75439453125	n/a	REC_WORD	1125897	wordpools/wasnorm_wordpool_576.txt	LTP346	ltpFR2	13	2	NIGHTGOWN	953	n/a	n/a	0	0	0
558.66796875	n/a	REC_WORD	1144152	wordpools/wasnorm_wordpool_576.txt	LTP346	ltpFR2	13	2	MAMMAL	861	n/a	n/a	0	0	0
559.7509765625	n/a	REC_WORD	1146370	wordpools/wasnorm_wordpool_576.txt	LTP346	ltpFR2	13	2	QUAIL	1147	n/a	n/a	0	0	0
564.2412109375	n/a	REC_WORD	1155566	wordpools/wasnorm_wordpool_576.txt	LTP346	ltpFR2	13	2	BRIEFCASE	175	n/a	n/a	0	0	0
565.4072265625	n/a	REC_WORD	1157954	wordpools/wasnorm_wordpool_576.txt	LTP346	ltpFR2	13	2	BREAST	171	n/a	n/a	0	0	0
566.08984375	n/a	REC_WORD	1159352	wordpools/wasnorm_wordpool_576.txt	LTP346	ltpFR2	13	2	PEPPER	1047	n/a	n/a	0	0	0
566.56494140625	n/a	REC_WORD	1160325	wordpools/wasnorm_wordpool_576.txt	LTP346	ltpFR2	13	2	STOMACH	1384	n/a	n/a	0	0	0
567.54296875	n/a	REC_WORD	1162328	wordpools/wasnorm_wordpool_576.txt	LTP346	ltpFR2	13	2	BELLY	119	n/a	n/a	0	0	0
573.0556640625	n/a	REC_WORD	1173618	wordpools/wasnorm_wordpool_576.txt	LTP346	ltpFR2	13	2	KNIFE	785	n/a	n/a	0	0	0
573.78271484375	n/a	REC_WORD	1175107	wordpools/wasnorm_wordpool_576.txt	LTP346	ltpFR2	13	2	RUST	1219	n/a	n/a	0	0	0
576.08251953125	n/a	REC_WORD	1179817	wordpools/wasnorm_wordpool_576.txt	LTP346	ltpFR2	13	2	BUTCHER	203	n/a	n/a	0	0	0
576.7998046875	n/a	REC_WORD	1181286	wordpools/wasnorm_wordpool_576.txt	LTP346	ltpFR2	13	2	BACON	67	n/a	n/a	0	0	0
577.390625	n/a	REC_WORD	1182496	wordpools/wasnorm_wordpool_576.txt	LTP346	ltpFR2	13	2	MEAT	883	n/a	n/a	0	0	0
578.98046875	n/a	REC_WORD	1185752	wordpools/wasnorm_wordpool_576.txt	LTP346	ltpFR2	13	2	CLAMP	316	n/a	n/a	0	0	0
579.65673828125	n/a	REC_WORD	1187137	wordpools/wasnorm_wordpool_576.txt	LTP346	ltpFR2	13	2	LAMP	798	n/a	n/a	0	0	0
580.8994140625	n/a	REC_WORD	1189682	wordpools/wasnorm_wordpool_576.txt	LTP346	ltpFR2	13	2	MILK	895	n/a	n/a	0	0	0
581.50146484375	n/a	REC_WORD	1190915	wordpools/wasnorm_wordpool_576.txt	LTP346	ltpFR2	13	2	HONEY	713	n/a	n/a	0	0	0
600.60986328125	n/a	REC_WORD	1230049	wordpools/wasnorm_wordpool_576.txt	LTP346	ltpFR2	13	2	ICEBERG	731	n/a	n/a	0	0	0
601.166015625	n/a	REC_WORD	1231188	wordpools/wasnorm_wordpool_576.txt	LTP346	ltpFR2	13	2	REPORT	1184	n/a	n/a	0	0	0
602.36181640625	n/a	REC_WORD	1233637	wordpools/wasnorm_wordpool_576.txt	LTP346	ltpFR2	13	2	YOLK	1633	n/a	n/a	0	0	0
636.11376953125	n/a	WORD	1302761	wordpools/wasnorm_wordpool_576.txt	LTP346	ltpFR2	13	3	ROBOT	1200	n/a	n/a	0	0	0
638.671875	n/a	WORD	1308000	wordpools/wasnorm_wordpool_576.txt	LTP346	ltpFR2	13	3	TURNIP	1521	n/a	n/a	0	0	0
641.24658203125	n/a	WORD	1313273	wordpools/wasnorm_wordpool_576.txt	LTP346	ltpFR2	13	3	CABBAGE	210	n/a	n/a	0	0	0
643.8896484375	n/a	WORD	1318686	wordpools/wasnorm_wordpool_576.txt	LTP346	ltpFR2	13	3	FLOWER	584	n/a	n/a	0	0	0
646.36376953125	n/a	WORD	1323753	wordpools/wasnorm_wordpool_576.txt	LTP346	ltpFR2	13	3	SALT	1229	n/a	n/a	0	0	0
648.82275390625	n/a	WORD	1328789	wordpools/wasnorm_wordpool_576.txt	LTP346	ltpFR2	13	3	BANQUET	86	n/a	n/a	0	0	0
651.4794921875	n/a	WORD	1334230	wordpools/wasnorm_wordpool_576.txt	LTP346	ltpFR2	13	3	EYELASH	546	n/a	n/a	0	0	0
653.9892578125	n/a	WORD	1339370	wordpools/wasnorm_wordpool_576.txt	LTP346	ltpFR2	13	3	LIGHTNING	820	n/a	n/a	0	0	0
656.5634765625	n/a	WORD	1344642	wordpools/wasnorm_wordpool_576.txt	LTP346	ltpFR2	13	3	COMET	353	n/a	n/a	0	0	0
659.05419921875	n/a	WORD	1349743	wordpools/wasnorm_wordpool_576.txt	LTP346	ltpFR2	13	3	ACTOR	5	n/a	n/a	0	0	0
661.72900390625	n/a	WORD	1355221	wordpools/wasnorm_wordpool_576.txt	LTP346	ltpFR2	13	3	CAPTIVE	240	n/a	n/a	0	0	0
664.4052734375	n/a	WORD	1360702	wordpools/wasnorm_wordpool_576.txt	LTP346	ltpFR2	13	3	PISTON	1076	n/a	n/a	0	0	0
666.98095703125	n/a	WORD	1365977	wordpools/wasnorm_wordpool_576.txt	LTP346	ltpFR2	13	3	TRUCK	1512	n/a	n/a	0	0	0
669.470703125	n/a	WORD	1371076	wordpools/wasnorm_wordpool_576.txt	LTP346	ltpFR2	13	3	VALLEY	1545	n/a	n/a	0	0	0
671.9296875	n/a	WORD	1376112	wordpools/wasnorm_wordpool_576.txt	LTP346	ltpFR2	13	3	CRATER	400	n/a	n/a	0	0	0
674.6376953125	n/a	WORD	1381658	wordpools/wasnorm_wordpool_576.txt	LTP346	ltpFR2	13	3	WARDROBE	1587	n/a	n/a	0	0	0
677.396484375	n/a	WORD	1387308	wordpools/wasnorm_wordpool_576.txt	LTP346	ltpFR2	13	3	PANTHER	1009	n/a	n/a	0	0	0
679.90576171875	n/a	WORD	1392447	wordpools/wasnorm_wordpool_576.txt	LTP346	ltpFR2	13	3	COD	340	n/a	n/a	0	0	0
682.54638671875	n/a	WORD	1397855	wordpools/wasnorm_wordpool_576.txt	LTP346	ltpFR2	13	3	EMPIRE	530	n/a	n/a	0	0	0
685.3212890625	n/a	WORD	1403538	wordpools/wasnorm_wordpool_576.txt	LTP346	ltpFR2	13	3	COFFEE	341	n/a	n/a	0	0	0
688.09716796875	n/a	WORD	1409223	wordpools/wasnorm_wordpool_576.txt	LTP346	ltpFR2	13	3	WASHER	1592	n/a	n/a	0	0	0
690.5380859375	n/a	WORD	1414222	wordpools/wasnorm_wordpool_576.txt	LTP346	ltpFR2	13	3	PUPPY	1144	n/a	n/a	0	0	0
693.09619140625	n/a	WORD	1419461	wordpools/wasnorm_wordpool_576.txt	LTP346	ltpFR2	13	3	BARLEY	88	n/a	n/a	0	0	0
695.60498046875	n/a	WORD	1424599	wordpools/wasnorm_wordpool_576.txt	LTP346	ltpFR2	13	3	SLOPE	1328	n/a	n/a	0	0	0
697.2099609375	n/a	START	1427886	n/a	LTP346	ltpFR2	13	n/a	n/a	n/a	3	n/a	n/a	n/a	n/a
698.22216796875	n/a	DISTRACTOR	1429959	n/a	LTP346	ltpFR2	13	3	n/a	n/a	n/a	n/a	0	0	0
698.22998046875	n/a	PROB	1429975	n/a	LTP346	ltpFR2	13	n/a	n/a	n/a	3	11	4	5	2
699.65087890625	n/a	PROB	1432885	n/a	LTP346	ltpFR2	13	n/a	n/a	n/a	3	20	7	8	5
701.15625	n/a	PROB	1435968	n/a	LTP346	ltpFR2	13	n/a	n/a	n/a	3	5	2	2	1
702.29296875	n/a	PROB	1438296	n/a	LTP346	ltpFR2	13	n/a	n/a	n/a	3	17	2	8	7
704.56689453125	n/a	PROB	1442953	n/a	LTP346	ltpFR2	13	n/a	n/a	n/a	3	20	6	5	9
706.138671875	n/a	PROB	1446172	n/a	LTP346	ltpFR2	13	n/a	n/a	n/a	3	23	9	6	8
708.41259765625	n/a	PROB	1450829	n/a	LTP346	ltpFR2	13	n/a	n/a	n/a	3	22	7	8	7
710.1015625	n/a	PROB	1454288	n/a	LTP346	ltpFR2	13	n/a	n/a	n/a	3	25	8	8	9
712.07470703125	n/a	PROB	1458329	n/a	LTP346	ltpFR2	13	n/a	n/a	n/a	3	14	8	3	3
714.0634765625	n/a	PROB	1462402	n/a	LTP346	ltpFR2	13	n/a	n/a	n/a	3	9	1	1	7
715.4853515625	n/a	PROB	1465314	n/a	LTP346	ltpFR2	13	n/a	n/a	n/a	3	13	2	2	9
717.107421875	n/a	PROB	1468636	n/a	LTP346	ltpFR2	13	n/a	n/a	n/a	3	19	8	4	7
718.84765625	n/a	PROB	1472200	n/a	LTP346	ltpFR2	13	n/a	n/a	n/a	3	17	8	7	2
720.20654296875	n/a	STOP	1474983	n/a	LTP346	ltpFR2	13	n/a	n/a	n/a	3	n/a	n/a	n/a	n/a
723.09326171875	n/a	REC_START	1480895	n/a	LTP346	ltpFR2	13	3	n/a	n/a	n/a	n/a	0	0	0
726.64013671875	n/a	REC_WORD	1488159	wordpools/wasnorm_wordpool_576.txt	LTP346	ltpFR2	13	3	ROBOT	1200	n/a	n/a	0	0	0
727.57421875	n/a	REC_WORD_VV	1490072	wordpools/wasnorm_wordpool_576.txt	LTP346	ltpFR2	13	3	<>	-1	n/a	n/a	0	0	0
728.06298828125	n/a	REC_WORD	1491073	wordpools/wasnorm_wordpool_576.txt	LTP346	ltpFR2	13	3	TURNIP	1521	n/a	n/a	0	0	0
728.60205078125	n/a	REC_WORD	1492177	wordpools/wasnorm_wordpool_576.txt	LTP346	ltpFR2	13	3	FLOWER	584	n/a	n/a	0	0	0
729.38818359375	n/a	REC_WORD	1493787	wordpools/wasnorm_wordpool_576.txt	LTP346	ltpFR2	13	3	CABBAGE	210	n/a	n/a	0	0	0
739.638671875	n/a	REC_WORD	1514780	wordpools/wasnorm_wordpool_576.txt	LTP346	ltpFR2	13	3	PUPPY	1144	n/a	n/a	0	0	0
740.23681640625	n/a	REC_WORD	1516005	wordpools/wasnorm_wordpool_576.txt	LTP346	ltpFR2	13	3	WASHER	1592	n/a	n/a	0	0	0
740.85595703125	n/a	REC_WORD	1517273	wordpools/wasnorm_wordpool_576.txt	LTP346	ltpFR2	13	3	BARLEY	88	n/a	n/a	0	0	0
745.65576171875	n/a	REC_WORD	1527103	wordpools/wasnorm_wordpool_576.txt	LTP346	ltpFR2	13	3	EMPIRE	530	n/a	n/a	0	0	0
746.4296875	n/a	REC_WORD	1528688	wordpools/wasnorm_wordpool_576.txt	LTP346	ltpFR2	13	3	COD	340	n/a	n/a	0	0	0
747.0078125	n/a	REC_WORD	1529872	wordpools/wasnorm_wordpool_576.txt	LTP346	ltpFR2	13	3	COFFEE	341	n/a	n/a	0	0	0
769.68408203125	n/a	REC_WORD	1576313	wordpools/wasnorm_wordpool_576.txt	LTP346	ltpFR2	13	3	LIGHTNING	820	n/a	n/a	0	0	0
770.21875	n/a	REC_WORD	1577408	wordpools/wasnorm_wordpool_576.txt	LTP346	ltpFR2	13	3	EYELASH	546	n/a	n/a	0	0	0
772.35400390625	n/a	REC_WORD	1581781	wordpools/wasnorm_wordpool_576.txt	LTP346	ltpFR2	13	3	COMET	353	n/a	n/a	0	0	0
773.73388671875	n/a	REC_WORD	1584607	wordpools/wasnorm_wordpool_576.txt	LTP346	ltpFR2	13	3	BANQUET	86	n/a	n/a	0	0	0
774.2470703125	n/a	REC_WORD	1585658	wordpools/wasnorm_wordpool_576.txt	LTP346	ltpFR2	13	3	SALT	1229	n/a	n/a	0	0	0
775.2998046875	n/a	REC_WORD	1587814	wordpools/wasnorm_wordpool_576.txt	LTP346	ltpFR2	13	3	ACTOR	5	n/a	n/a	0	0	0
776.10498046875	n/a	REC_WORD	1589463	wordpools/wasnorm_wordpool_576.txt	LTP346	ltpFR2	13	3	CAPTIVE	240	n/a	n/a	0	0	0
782.1435546875	n/a	REC_WORD	1601830	wordpools/wasnorm_wordpool_576.txt	LTP346	ltpFR2	13	3	VALLEY	1545	n/a	n/a	0	0	0
782.79052734375	n/a	REC_WORD	1603155	wordpools/wasnorm_wordpool_576.txt	LTP346	ltpFR2	13	3	CRATER	400	n/a	n/a	0	0	0
783.44677734375	n/a	REC_WORD	1604499	wordpools/wasnorm_wordpool_576.txt	LTP346	ltpFR2	13	3	TRUCK	1512	n/a	n/a	0	0	0
876.43505859375	n/a	DISTRACTOR	1794939	n/a	LTP346	ltpFR2	13	4	n/a	n/a	n/a	n/a	0	0	0
876.43603515625	n/a	START	1794941	n/a	LTP346	ltpFR2	13	n/a	n/a	n/a	4	n/a	n/a	n/a	n/a
876.45166015625	n/a	PROB	1794973	n/a	LTP346	ltpFR2	13	n/a	n/a	n/a	4	17	3	5	9
878.32470703125	n/a	PROB	1798809	n/a	LTP346	ltpFR2	13	n/a	n/a	n/a	4	18	9	2	7
880.34765625	n/a	PROB	1802952	n/a	LTP346	ltpFR2	13	n/a	n/a	n/a	4	22	5	8	9
884.61181640625	n/a	PROB	1811685	n/a	LTP346	ltpFR2	13	n/a	n/a	n/a	4	23	8	6	9
886.66845703125	n/a	PROB	1815897	n/a	LTP346	ltpFR2	13	n/a	n/a	n/a	4	11	1	3	7
888.03955078125	n/a	PROB	1818705	n/a	LTP346	ltpFR2	13	n/a	n/a	n/a	4	21	4	9	8
889.76123046875	n/a	PROB	1822231	n/a	LTP346	ltpFR2	13	n/a	n/a	n/a	4	19	3	8	8
891.19921875	n/a	PROB	1825176	n/a	LTP346	ltpFR2	13	n/a	n/a	n/a	4	4	1	1	2
892.3193359375	n/a	PROB	1827470	n/a	LTP346	ltpFR2	13	n/a	n/a	n/a	4	10	4	5	1
893.50634765625	n/a	PROB	1829901	n/a	LTP346	ltpFR2	13	n/a	n/a	n/a	4	18	1	9	8
895.29541015625	n/a	PROB	1833565	n/a	LTP346	ltpFR2	13	n/a	n/a	n/a	4	21	8	4	9
896.93505859375	n/a	PROB	1836923	n/a	LTP346	ltpFR2	13	n/a	n/a	n/a	4	14	6	2	6
900.43505859375	n/a	STOP	1844091	n/a	LTP346	ltpFR2	13	n/a	n/a	n/a	4	n/a	n/a	n/a	n/a
901.43212890625	n/a	WORD	1846133	wordpools/wasnorm_wordpool_576.txt	LTP346	ltpFR2	13	4	TWISTER	1530	n/a	n/a	0	0	0
903.923828125	n/a	WORD	1851236	wordpools/wasnorm_wordpool_576.txt	LTP346	ltpFR2	13	4	DIVER	476	n/a	n/a	0	0	0
906.48193359375	n/a	WORD	1856475	wordpools/wasnorm_wordpool_576.txt	LTP346	ltpFR2	13	4	JURY	766	n/a	n/a	0	0	0
908.95703125	n/a	WORD	1861544	wordpools/wasnorm_wordpool_576.txt	LTP346	ltpFR2	13	4	BISON	131	n/a	n/a	0	0	0
911.39794921875	n/a	WORD	1866543	wordpools/wasnorm_wordpool_576.txt	LTP346	ltpFR2	13	4	OINTMENT	974	n/a	n/a	0	0	0
913.98974609375	n/a	WORD	1871851	wordpools/wasnorm_wordpool_576.txt	LTP346	ltpFR2	13	4	TURKEY	1520	n/a	n/a	0	0	0
916.396484375	n/a	WORD	1876780	wordpools/wasnorm_wordpool_576.txt	LTP346	ltpFR2	13	4	MEAT	883	n/a	n/a	0	0	0
919.12255859375	n/a	WORD	1882363	wordpools/wasnorm_wordpool_576.txt	LTP346	ltpFR2	13	4	STAKE	1368	n/a	n/a	0	0	0
921.54638671875	n/a	WORD	1887327	wordpools/wasnorm_wordpool_576.txt	LTP346	ltpFR2	13	4	GRIZZLY	662	n/a	n/a	0	0	0
924.1884765625	n/a	WORD	1892738	wordpools/wasnorm_wordpool_576.txt	LTP346	ltpFR2	13	4	XEROX	1628	n/a	n/a	0	0	0
926.93115234375	n/a	WORD	1898355	wordpools/wasnorm_wordpool_576.txt	LTP346	ltpFR2	13	4	BUG	187	n/a	n/a	0	0	0
929.63916015625	n/a	WORD	1903901	wordpools/wasnorm_wordpool_576.txt	LTP346	ltpFR2	13	4	DAISY	435	n/a	n/a	0	0	0
932.365234375	n/a	WORD	1909484	wordpools/wasnorm_wordpool_576.txt	LTP346	ltpFR2	13	4	ORCHID	982	n/a	n/a	0	0	0
935.123046875	n/a	WORD	1915132	wordpools/wasnorm_wordpool_576.txt	LTP346	ltpFR2	13	4	COOKBOOK	373	n/a	n/a	0	0	0
937.5810546875	n/a	WORD	1920166	wordpools/wasnorm_wordpool_576.txt	LTP346	ltpFR2	13	4	SWAMP	1416	n/a	n/a	0	0	0
940.05615234375	n/a	WORD	1925235	wordpools/wasnorm_wordpool_576.txt	LTP346	ltpFR2	13	4	KIDNEY	776	n/a	n/a	0	0	0
942.8330078125	n/a	WORD	1930922	wordpools/wasnorm_wordpool_576.txt	LTP346	ltpFR2	13	4	PEANUT	1032	n/a	n/a	0	0	0
945.33984375	n/a	WORD	1936056	wordpools/wasnorm_wordpool_576.txt	LTP346	ltpFR2	13	4	MUFFIN	929	n/a	n/a	0	0	0
948.1318359375	n/a	WORD	1941774	wordpools/wasnorm_wordpool_576.txt	LTP346	ltpFR2	13	4	PEBBLE	1035	n/a	n/a	0	0	0
950.80859375	n/a	WORD	1947256	wordpools/wasnorm_wordpool_576.txt	LTP346	ltpFR2	13	4	CYCLONE	431	n/a	n/a	0	0	0
953.5654296875	n/a	WORD	1952902	wordpools/wasnorm_wordpool_576.txt	LTP346	ltpFR2	13	4	PARROT	1015	n/a	n/a	0	0	0
956.3583984375	n/a	WORD	1958622	wordpools/wasnorm_wordpool_576.txt	LTP346	ltpFR2	13	4	TERMITE	1451	n/a	n/a	0	0	0
959.1005859375	n/a	WORD	1964238	wordpools/wasnorm_wordpool_576.txt	LTP346	ltpFR2	13	4	GRAVEL	659	n/a	n/a	0	0	0
961.810546875	n/a	WORD	1969788	wordpools/wasnorm_wordpool_576.txt	LTP346	ltpFR2	13	4	SHARK	1275	n/a	n/a	0	0	0
963.4140625	n/a	START	1973072	n/a	LTP346	ltpFR2	13	n/a	n/a	n/a	5	n/a	n/a	n/a	n/a
964.47802734375	n/a	DISTRACTOR	1975251	n/a	LTP346	ltpFR2	13	4	n/a	n/a	n/a	n/a	0	0	0
964.484375	n/a	PROB	1975264	n/a	LTP346	ltpFR2	13	n/a	n/a	n/a	5	19	8	8	3
966.14013671875	n/a	PROB	1978655	n/a	LTP346	ltpFR2	13	n/a	n/a	n/a	5	24	8	9	7
967.6953125	n/a	PROB	1981840	n/a	LTP346	ltpFR2	13	n/a	n/a	n/a	5	7	2	1	4
969.13330078125	n/a	PROB	1984785	n/a	LTP346	ltpFR2	13	n/a	n/a	n/a	5	19	5	7	7
970.85595703125	n/a	PROB	1988313	n/a	LTP346	ltpFR2	13	n/a	n/a	n/a	5	18	6	9	3
972.27587890625	n/a	PROB	1991221	n/a	LTP346	ltpFR2	13	n/a	n/a	n/a	5	13	4	3	6
973.73095703125	n/a	PROB	1994201	n/a	LTP346	ltpFR2	13	n/a	n/a	n/a	5	21	7	8	6
975.85498046875	n/a	PROB	1998551	n/a	LTP346	ltpFR2	13	n/a	n/a	n/a	5	19	7	4	8
977.6767578125	n/a	PROB	2002282	n/a	LTP346	ltpFR2	13	n/a	n/a	n/a	5	19	6	7	7
980.06787109375	n/a	PROB	2007179	n/a	LTP346	ltpFR2	13	n/a	n/a	n/a	5	12	8	2	2
982.42578125	n/a	PROB	2012008	n/a	LTP346	ltpFR2	13	n/a	n/a	n/a	5	14	7	1	6
984.1474609375	n/a	PROB	2015534	n/a	LTP346	ltpFR2	13	n/a	n/a	n/a	5	19	3	8	8
985.5517578125	n/a	PROB	2018410	n/a	LTP346	ltpFR2	13	n/a	n/a	n/a	5	14	2	6	6
986.7265625	n/a	STOP	2020816	n/a	LTP346	ltpFR2	13	n/a	n/a	n/a	5	n/a	n/a	n/a	n/a
989.29736328125	n/a	REC_START	2026081	n/a	LTP346	ltpFR2	13	4	n/a	n/a	n/a	n/a	0	0	0
992.228515625	n/a	REC_WORD	2032084	wordpools/wasnorm_wordpool_576.txt	LTP346	ltpFR2	13	4	SHARK	1275	n/a	n/a	0	0	0
993.646484375	n/a	REC_WORD	2034988	wordpools/wasnorm_wordpool_576.txt	LTP346	ltpFR2	13	4	PEBBLE	1035	n/a	n/a	0	0	0
994.25244140625	n/a	REC_WORD	2036229	wordpools/wasnorm_wordpool_576.txt	LTP346	ltpFR2	13	4	PARROT	1015	n/a	n/a	0	0	0
996.2421875	n/a	REC_WORD	2040304	wordpools/wasnorm_wordpool_576.txt	LTP346	ltpFR2	13	4	SWAMP	1416	n/a	n/a	0	0	0
996.9091796875	n/a	REC_WORD	2041670	wordpools/wasnorm_wordpool_576.txt	LTP346	ltpFR2	13	4	CYCLONE	431	n/a	n/a	0	0	0
999.72119140625	n/a	REC_WORD	2047429	wordpools/wasnorm_wordpool_576.txt	LTP346	ltpFR2	13	4	TWISTER	1530	n/a	n/a	0	0	0
1003.4189453125	n/a	REC_WORD	2055002	wordpools/wasnorm_wordpool_576.txt	LTP346	ltpFR2	13	4	DIVER	476	n/a	n/a	0	0	0
1006.56494140625	n/a	REC_WORD	2061445	wordpools/wasnorm_wordpool_576.txt	LTP346	ltpFR2	13	4	JURY	766	n/a	n/a	0	0	0
1007.60107421875	n/a	REC_WORD	2063567	wordpools/wasnorm_wordpool_576.txt	LTP346	ltpFR2	13	4	OINTMENT	974	n/a	n/a	0	0	0
1009.73193359375	n/a	REC_WORD	2067931	wordpools/wasnorm_wordpool_576.txt	LTP346	ltpFR2	13	4	BISON	131	n/a	n/a	0	0	0
1011.515625	n/a	REC_WORD	2071584	wordpools/wasnorm_wordpool_576.txt	LTP346	ltpFR2	13	4	TURKEY	1520	n/a	n/a	0	0	0
1012.23193359375	n/a	REC_WORD	2073051	wordpools/wasnorm_wordpool_576.txt	LTP346	ltpFR2	13	4	MEAT	883	n/a	n/a	0	0	0
1013.23193359375	n/a	REC_WORD	2075099	wordpools/wasnorm_wordpool_576.txt	LTP346	ltpFR2	13	4	STAKE	1368	n/a	n/a	0	0	0
1014.87890625	n/a	REC_WORD	2078472	wordpools/wasnorm_wordpool_576.txt	LTP346	ltpFR2	13	4	XEROX	1628	n/a	n/a	0	0	0
1017.1328125	n/a	REC_WORD	2083088	wordpools/wasnorm_wordpool_576.txt	LTP346	ltpFR2	13	4	BUG	187	n/a	n/a	0	0	0
1017.94677734375	n/a	REC_WORD	2084755	wordpools/wasnorm_wordpool_576.txt	LTP346	ltpFR2	13	4	DAISY	435	n/a	n/a	0	0	0
1018.77880859375	n/a	REC_WORD	2086459	wordpools/wasnorm_wordpool_576.txt	LTP346	ltpFR2	13	4	ORCHID	982	n/a	n/a	0	0	0
1020.6875	n/a	REC_WORD	2090368	wordpools/wasnorm_wordpool_576.txt	LTP346	ltpFR2	13	4	COOKBOOK	373	n/a	n/a	0	0	0
1022.4833984375	n/a	REC_WORD	2094046	wordpools/wasnorm_wordpool_576.txt	LTP346	ltpFR2	13	4	KIDNEY	776	n/a	n/a	0	0	0
1028.93017578125	n/a	REC_WORD	2107249	wordpools/wasnorm_wordpool_576.txt	LTP346	ltpFR2	13	4	MUFFIN	929	n/a	n/a	0	0	0
1036.5322265625	n/a	REC_WORD	2122818	wordpools/wasnorm_wordpool_576.txt	LTP346	ltpFR2	13	4	PEBBLE	1035	n/a	n/a	0	0	0
1037.236328125	n/a	REC_WORD	2124260	wordpools/wasnorm_wordpool_576.txt	LTP346	ltpFR2	13	4	GRAVEL	659	n/a	n/a	0	0	0
1079.73779296875	n/a	DISTRACTOR	2211303	n/a	LTP346	ltpFR2	13	5	n/a	n/a	n/a	n/a	0	0	0
1079.73779296875	n/a	START	2211303	n/a	LTP346	ltpFR2	13	n/a	n/a	n/a	6	n/a	n/a	n/a	n/a
1079.7548828125	n/a	PROB	2211338	n/a	LTP346	ltpFR2	13	n/a	n/a	n/a	6	8	3	4	1
1081.7109375	n/a	PROB	2215344	n/a	LTP346	ltpFR2	13	n/a	n/a	n/a	6	15	7	5	3
1083.23193359375	n/a	PROB	2218459	n/a	LTP346	ltpFR2	13	n/a	n/a	n/a	6	18	7	9	2
1085.15478515625	n/a	PROB	2222397	n/a	LTP346	ltpFR2	13	n/a	n/a	n/a	6	8	5	2	1
1086.392578125	n/a	PROB	2224932	n/a	LTP346	ltpFR2	13	n/a	n/a	n/a	6	13	2	8	3
1088.1474609375	n/a	PROB	2228526	n/a	LTP346	ltpFR2	13	n/a	n/a	n/a	6	11	9	1	1
1089.25146484375	n/a	PROB	2230787	n/a	LTP346	ltpFR2	13	n/a	n/a	n/a	6	12	2	9	1
1090.689453125	n/a	PROB	2233732	n/a	LTP346	ltpFR2	13	n/a	n/a	n/a	6	13	5	1	7
1092.29443359375	n/a	PROB	2237019	n/a	LTP346	ltpFR2	13	n/a	n/a	n/a	6	12	2	4	6
1093.4482421875	n/a	PROB	2239382	n/a	LTP346	ltpFR2	13	n/a	n/a	n/a	6	18	8	1	9
1095.22021484375	n/a	PROB	2243011	n/a	LTP346	ltpFR2	13	n/a	n/a	n/a	6	23	9	5	9
1096.96044921875	n/a	PROB	2246575	n/a	LTP346	ltpFR2	13	n/a	n/a	n/a	6	11	4	6	1
1097.947265625	n/a	PROB	2248596	n/a	LTP346	ltpFR2	13	n/a	n/a	n/a	6	11	1	3	7
1099.25048828125	n/a	PROB	2251265	n/a	LTP346	ltpFR2	13	n/a	n/a	n/a	6	13	1	3	9
1100.72119140625	n/a	PROB	2254277	n/a	LTP346	ltpFR2	13	n/a	n/a	n/a	6	11	3	2	6
1102.24609375	n/a	STOP	2257400	n/a	LTP346	ltpFR2	13	n/a	n/a	n/a	6	n/a	n/a	n/a	n/a
1104.81884765625	n/a	WORD	2262669	wordpools/wasnorm_wordpool_576.txt	LTP346	ltpFR2	13	5	PUPIL	1143	n/a	n/a	0	0	0
1107.3759765625	n/a	WORD	2267906	wordpools/wasnorm_wordpool_576.txt	LTP346	ltpFR2	13	5	FOREST	593	n/a	n/a	0	0	0
1110.06787109375	n/a	WORD	2273419	wordpools/wasnorm_wordpool_576.txt	LTP346	ltpFR2	13	5	RECEIPT	1173	n/a	n/a	0	0	0
1112.60986328125	n/a	WORD	2278625	wordpools/wasnorm_wordpool_576.txt	LTP346	ltpFR2	13	5	FRAME	600	n/a	n/a	0	0	0
1115.16796875	n/a	WORD	2283864	wordpools/wasnorm_wordpool_576.txt	LTP346	ltpFR2	13	5	BURGLAR	200	n/a	n/a	0	0	0
1117.5927734375	n/a	WORD	2288830	wordpools/wasnorm_wordpool_576.txt	LTP346	ltpFR2	13	5	COCKTAIL	338	n/a	n/a	0	0	0
1120.0166015625	n/a	WORD	2293794	wordpools/wasnorm_wordpool_576.txt	LTP346	ltpFR2	13	5	PORTRAIT	1111	n/a	n/a	0	0	0
1122.65869140625	n/a	WORD	2299205	wordpools/wasnorm_wordpool_576.txt	LTP346	ltpFR2	13	5	SUMMIT	1405	n/a	n/a	0	0	0
1125.2333984375	n/a	WORD	2304478	wordpools/wasnorm_wordpool_576.txt	LTP346	ltpFR2	13	5	DONKEY	484	n/a	n/a	0	0	0
1127.6416015625	n/a	WORD	2309410	wordpools/wasnorm_wordpool_576.txt	LTP346	ltpFR2	13	5	BUBBLE	183	n/a	n/a	0	0	0
1130.283203125	n/a	WORD	2314820	wordpools/wasnorm_wordpool_576.txt	LTP346	ltpFR2	13	5	MESSAGE	888	n/a	n/a	0	0	0
1132.87646484375	n/a	WORD	2320131	wordpools/wasnorm_wordpool_576.txt	LTP346	ltpFR2	13	5	SEAGULL	1261	n/a	n/a	0	0	0
1135.63330078125	n/a	WORD	2325777	wordpools/wasnorm_wordpool_576.txt	LTP346	ltpFR2	13	5	WASP	1593	n/a	n/a	0	0	0
1138.19189453125	n/a	WORD	2331017	wordpools/wasnorm_wordpool_576.txt	LTP346	ltpFR2	13	5	WORKER	1621	n/a	n/a	0	0	0
1140.91796875	n/a	WORD	2336600	wordpools/wasnorm_wordpool_576.txt	LTP346	ltpFR2	13	5	SCALLOP	1242	n/a	n/a	0	0	0
1143.6259765625	n/a	WORD	2342146	wordpools/wasnorm_wordpool_576.txt	LTP346	ltpFR2	13	5	TROUT	1511	n/a	n/a	0	0	0
1146.11669921875	n/a	WORD	2347247	wordpools/wasnorm_wordpool_576.txt	LTP346	ltpFR2	13	5	JUNGLE	764	n/a	n/a	0	0	0
1148.876953125	n/a	WORD	2352900	wordpools/wasnorm_wordpool_576.txt	LTP346	ltpFR2	13	5	PRIMATE	1123	n/a	n/a	0	0	0
1151.4677734375	n/a	WORD	2358206	wordpools/wasnorm_wordpool_576.txt	LTP346	ltpFR2	13	5	SCARECROW	1245	n/a	n/a	0	0	0
1154.2265625	n/a	WORD	2363856	wordpools/wasnorm_wordpool_576.txt	LTP346	ltpFR2	13	5	ULCER	1533	n/a	n/a	0	0	0
1156.9697265625	n/a	WORD	2369474	wordpools/wasnorm_wordpool_576.txt	LTP346	ltpFR2	13	5	QUEEN	1149	n/a	n/a	0	0	0
1159.71044921875	n/a	WORD	2375087	wordpools/wasnorm_wordpool_576.txt	LTP346	ltpFR2	13	5	CARRIAGE	248	n/a	n/a	0	0	0
1162.30224609375	n/a	WORD	2380395	wordpools/wasnorm_wordpool_576.txt	LTP346	ltpFR2	13	5	OUTDOORS	987	n/a	n/a	0	0	0
1164.87841796875	n/a	WORD	2385671	wordpools/wasnorm_wordpool_576.txt	LTP346	ltpFR2	13	5	LUMBER	848	n/a	n/a	0	0	0
1166.4833984375	n/a	START	2388958	n/a	LTP346	ltpFR2	13	n/a	n/a	n/a	7	n/a	n/a	n/a	n/a
1167.4912109375	n/a	DISTRACTOR	2391022	n/a	LTP346	ltpFR2	13	5	n/a	n/a	n/a	n/a	0	0	0
1167.50244140625	n/a	PROB	2391045	n/a	LTP346	ltpFR2	13	n/a	n/a	n/a	7	19	8	8	3
1169.0244140625	n/a	PROB	2394162	n/a	LTP346	ltpFR2	13	n/a	n/a	n/a	7	7	3	3	1
1171.4482421875	n/a	PROB	2399126	n/a	LTP346	ltpFR2	13	n/a	n/a	n/a	7	12	3	2	7
1172.71923828125	n/a	PROB	2401729	n/a	LTP346	ltpFR2	13	n/a	n/a	n/a	7	16	6	4	6
1174.08984375	n/a	PROB	2404536	n/a	LTP346	ltpFR2	13	n/a	n/a	n/a	7	13	4	3	6
1175.56201171875	n/a	PROB	2407551	n/a	LTP346	ltpFR2	13	n/a	n/a	n/a	7	17	7	2	8
1177.3837890625	n/a	PROB	2411282	n/a	LTP346	ltpFR2	13	n/a	n/a	n/a	7	16	7	1	8
1178.85693359375	n/a	PROB	2414299	n/a	LTP346	ltpFR2	13	n/a	n/a	n/a	7	8	3	4	1
1180.15966796875	n/a	PROB	2416967	n/a	LTP346	ltpFR2	13	n/a	n/a	n/a	7	12	6	2	4
1181.44677734375	n/a	PROB	2419603	n/a	LTP346	ltpFR2	13	n/a	n/a	n/a	7	21	9	9	3
1182.78466796875	n/a	PROB	2422343	n/a	LTP346	ltpFR2	13	n/a	n/a	n/a	7	16	7	8	1
1184.0888671875	n/a	PROB	2425014	n/a	LTP346	ltpFR2	13	n/a	n/a	n/a	7	9	1	5	3
1185.44384765625	n/a	PROB	2427789	n/a	LTP346	ltpFR2	13	n/a	n/a	n/a	7	22	7	6	9
1187.36669921875	n/a	PROB	2431727	n/a	LTP346	ltpFR2	13	n/a	n/a	n/a	7	16	6	3	7
1189.8876953125	n/a	STOP	2436890	n/a	LTP346	ltpFR2	13	n/a	n/a	n/a	7	n/a	n/a	n/a	n/a
1192.29931640625	n/a	REC_START	2441829	n/a	LTP346	ltpFR2	13	5	n/a	n/a	n/a	n/a	0	0	0
1193.16259765625	n/a	REC_WORD_VV	2443597	wordpools/wasnorm_wordpool_576.txt	LTP346	ltpFR2	13	5	<>	-1	n/a	n/a	0	0	0
1194.41943359375	n/a	REC_WORD	2446171	wordpools/wasnorm_wordpool_576.txt	LTP346	ltpFR2	13	5	QUEEN	1149	n/a	n/a	0	0	0
1195.6123046875	n/a	REC_WORD	2448614	wordpools/wasnorm_wordpool_576.txt	LTP346	ltpFR2	13	5	CARRIAGE	248	n/a	n/a	0	0	0
1196.2001953125	n/a	REC_WORD	2449818	wordpools/wasnorm_wordpool_576.txt	LTP346	ltpFR2	13	5	OUTDOORS	987	n/a	n/a	0	0	0
1197.09326171875	n/a	REC_WORD	2451647	wordpools/wasnorm_wordpool_576.txt	LTP346	ltpFR2	13	5	LUMBER	848	n/a	n/a	0	0	0
1211.05517578125	n/a	REC_WORD	2480241	wordpools/wasnorm_wordpool_576.txt	LTP346	ltpFR2	13	5	RECEIPT	1173	n/a	n/a	0	0	0
1212.0849609375	n/a	REC_WORD	2482350	wordpools/wasnorm_wordpool_576.txt	LTP346	ltpFR2	13	5	FRAME	600	n/a	n/a	0	0	0
1215.263671875	n/a	REC_WORD	2488860	wordpools/wasnorm_wordpool_576.txt	LTP346	ltpFR2	13	5	PORTRAIT	1111	n/a	n/a	0	0	0
1219.0634765625	n/a	REC_WORD	2496642	wordpools/wasnorm_wordpool_576.txt	LTP346	ltpFR2	13	5	COCKTAIL	338	n/a	n/a	0	0	0
1220.099609375	n/a	REC_WORD	2498764	wordpools/wasnorm_wordpool_576.txt	LTP346	ltpFR2	13	5	SUMMIT	1405	n/a	n/a	0	0	0
1222.4248046875	n/a	REC_WORD	2503526	wordpools/wasnorm_wordpool_576.txt	LTP346	ltpFR2	13	5	WORKER	1621	n/a	n/a	0	0	0
1223.1455078125	n/a	REC_WORD	2505002	wordpools/wasnorm_wordpool_576.txt	LTP346	ltpFR2	13	5	WASP	1593	n/a	n/a	0	0	0
1225.4423828125	n/a	REC_WORD	2509706	wordpools/wasnorm_wordpool_576.txt	LTP346	ltpFR2	13	5	DONKEY	484	n/a	n/a	0	0	0
1226.09765625	n/a	REC_WORD	2511048	wordpools/wasnorm_wordpool_576.txt	LTP346	ltpFR2	13	5	BUBBLE	183	n/a	n/a	0	0	0
1226.58251953125	n/a	REC_WORD	2512041	wordpools/wasnorm_wordpool_576.txt	LTP346	ltpFR2	13	5	MESSAGE	888	n/a	n/a	0	0	0
1227.25927734375	n/a	REC_WORD	2513427	wordpools/wasnorm_wordpool_576.txt	LTP346	ltpFR2	13	5	SEAGULL	1261	n/a	n/a	0	0	0
1282.755859375	n/a	WORD	2627084	wordpools/wasnorm_wordpool_576.txt	LTP346	ltpFR2	13	6	LUNCH	849	n/a	n/a	0	0	0
1285.48095703125	n/a	WORD	2632665	wordpools/wasnorm_wordpool_576.txt	LTP346	ltpFR2	13	6	LIPSTICK	829	n/a	n/a	0	0	0
1288.0224609375	n/a	WORD	2637870	wordpools/wasnorm_wordpool_576.txt	LTP346	ltpFR2	13	6	MILDEW	893	n/a	n/a	0	0	0
1290.44677734375	n/a	WORD	2642835	wordpools/wasnorm_wordpool_576.txt	LTP346	ltpFR2	13	6	BOX	159	n/a	n/a	0	0	0
1292.87255859375	n/a	WORD	2647803	wordpools/wasnorm_wordpool_576.txt	LTP346	ltpFR2	13	6	FEMALE	559	n/a	n/a	0	0	0
1295.5302734375	n/a	WORD	2653246	wordpools/wasnorm_wordpool_576.txt	LTP346	ltpFR2	13	6	TAXI	1438	n/a	n/a	0	0	0
1298.23828125	n/a	WORD	2658792	wordpools/wasnorm_wordpool_576.txt	LTP346	ltpFR2	13	6	BUGGY	188	n/a	n/a	0	0	0
1300.88134765625	n/a	WORD	2664205	wordpools/wasnorm_wordpool_576.txt	LTP346	ltpFR2	13	6	CREVICE	405	n/a	n/a	0	0	0
1303.689453125	n/a	WORD	2669956	wordpools/wasnorm_wordpool_576.txt	LTP346	ltpFR2	13	6	PLAYGROUND	1087	n/a	n/a	0	0	0
1306.4150390625	n/a	WORD	2675538	wordpools/wasnorm_wordpool_576.txt	LTP346	ltpFR2	13	6	TUBA	1515	n/a	n/a	0	0	0
1309.14013671875	n/a	WORD	2681119	wordpools/wasnorm_wordpool_576.txt	LTP346	ltpFR2	13	6	SUNSET	1408	n/a	n/a	0	0	0
1311.8671875	n/a	WORD	2686704	wordpools/wasnorm_wordpool_576.txt	LTP346	ltpFR2	13	6	AIRPORT	13	n/a	n/a	0	0	0
1314.60791015625	n/a	WORD	2692317	wordpools/wasnorm_wordpool_576.txt	LTP346	ltpFR2	13	6	ROCKET	1202	n/a	n/a	0	0	0
1317.2998046875	n/a	WORD	2697830	wordpools/wasnorm_wordpool_576.txt	LTP346	ltpFR2	13	6	DONOR	485	n/a	n/a	0	0	0
1320.07568359375	n/a	WORD	2703515	wordpools/wasnorm_wordpool_576.txt	LTP346	ltpFR2	13	6	PECAN	1036	n/a	n/a	0	0	0
1322.83544921875	n/a	WORD	2709167	wordpools/wasnorm_wordpool_576.txt	LTP346	ltpFR2	13	6	VELVET	1555	n/a	n/a	0	0	0
1325.30859375	n/a	WORD	2714232	wordpools/wasnorm_wordpool_576.txt	LTP346	ltpFR2	13	6	TROMBONE	1508	n/a	n/a	0	0	0
1327.9013671875	n/a	WORD	2719542	wordpools/wasnorm_wordpool_576.txt	LTP346	ltpFR2	13	6	BLOCKADE	137	n/a	n/a	0	0	0
1330.609375	n/a	WORD	2725088	wordpools/wasnorm_wordpool_576.txt	LTP346	ltpFR2	13	6	BRAKE	166	n/a	n/a	0	0	0
1333.0673828125	n/a	WORD	2730122	wordpools/wasnorm_wordpool_576.txt	LTP346	ltpFR2	13	6	FLESH	579	n/a	n/a	0	0	0
1335.54248046875	n/a	WORD	2735191	wordpools/wasnorm_wordpool_576.txt	LTP346	ltpFR2	13	6	MACHINE	852	n/a	n/a	0	0	0
1338.06640625	n/a	WORD	2740360	wordpools/wasnorm_wordpool_576.txt	LTP346	ltpFR2	13	6	LILY	821	n/a	n/a	0	0	0
1340.625	n/a	WORD	2745600	wordpools/wasnorm_wordpool_576.txt	LTP346	ltpFR2	13	6	AGENT	10	n/a	n/a	0	0	0
1343.39990234375	n/a	WORD	2751283	wordpools/wasnorm_wordpool_576.txt	LTP346	ltpFR2	13	6	STAR	1373	n/a	n/a	0	0	0
1345.005859375	n/a	START	2754572	n/a	LTP346	ltpFR2	13	n/a	n/a	n/a	8	n/a	n/a	n/a	n/a
1345.92919921875	n/a	DISTRACTOR	2756463	n/a	LTP346	ltpFR2	13	6	n/a	n/a	n/a	n/a	0	0	0
1345.94287109375	n/a	PROB	2756491	n/a	LTP346	ltpFR2	13	n/a	n/a	n/a	8	11	5	4	2
1347.4296875	n/a	PROB	2759536	n/a	LTP346	ltpFR2	13	n/a	n/a	n/a	8	8	5	1	2
1349.4697265625	n/a	PROB	2763714	n/a	LTP346	ltpFR2	13	n/a	n/a	n/a	8	13	1	7	5
1351.091796875	n/a	PROB	2767036	n/a	LTP346	ltpFR2	13	n/a	n/a	n/a	8	13	5	6	2
1352.39599609375	n/a	PROB	2769707	n/a	LTP346	ltpFR2	13	n/a	n/a	n/a	8	6	3	2	1
1353.884765625	n/a	PROB	2772756	n/a	LTP346	ltpFR2	13	n/a	n/a	n/a	8	9	3	2	4
1355.689453125	n/a	PROB	2776452	n/a	LTP346	ltpFR2	13	n/a	n/a	n/a	8	13	7	3	3
1356.99462890625	n/a	PROB	2779125	n/a	LTP346	ltpFR2	13	n/a	n/a	n/a	8	18	1	9	8
1358.28173828125	n/a	PROB	2781761	n/a	LTP346	ltpFR2	13	n/a	n/a	n/a	8	22	9	4	9
1359.66943359375	n/a	PROB	2784603	n/a	LTP346	ltpFR2	13	n/a	n/a	n/a	8	22	9	7	6
1361.40869140625	n/a	PROB	2788165	n/a	LTP346	ltpFR2	13	n/a	n/a	n/a	8	23	9	5	9
1362.98046875	n/a	PROB	2791384	n/a	LTP346	ltpFR2	13	n/a	n/a	n/a	8	9	2	6	1
1364.45166015625	n/a	PROB	2794397	n/a	LTP346	ltpFR2	13	n/a	n/a	n/a	8	16	3	4	9
1366.20654296875	n/a	PROB	2797991	n/a	LTP346	ltpFR2	13	n/a	n/a	n/a	8	14	7	5	2
1367.494140625	n/a	PROB	2800628	n/a	LTP346	ltpFR2	13	n/a	n/a	n/a	8	15	5	5	5
1368.63818359375	n/a	STOP	2802971	n/a	LTP346	ltpFR2	13	n/a	n/a	n/a	8	n/a	n/a	n/a	n/a
1370.92333984375	n/a	REC_START	2807651	n/a	LTP346	ltpFR2	13	6	n/a	n/a	n/a	n/a	0	0	0
1371.29736328125	n/a	REC_WORD	2808417	wordpools/wasnorm_wordpool_576.txt	LTP346	ltpFR2	13	6	LILY	821	n/a	n/a	0	0	0
1371.67138671875	n/a	REC_WORD	2809183	wordpools/wasnorm_wordpool_576.txt	LTP346	ltpFR2	13	6	STAR	1373	n/a	n/a	0	0	0
1372.39599609375	n/a	REC_WORD	2810667	wordpools/wasnorm_wordpool_576.txt	LTP346	ltpFR2	13	6	AGENT	10	n/a	n/a	0	0	0
1387.83984375	n/a	REC_WORD	2842296	wordpools/wasnorm_wordpool_576.txt	LTP346	ltpFR2	13	6	FEMALE	559	n/a	n/a	0	0	0
1388.87255859375	n/a	REC_WORD	2844411	wordpools/wasnorm_wordpool_576.txt	LTP346	ltpFR2	13	6	BOX	159	n/a	n/a	0	0	0
1389.81884765625	n/a	REC_WORD	2846349	wordpools/wasnorm_wordpool_576.txt	LTP346	ltpFR2	13	6	TAXI	1438	n/a	n/a	0	0	0
1401.42138671875	n/a	REC_WORD	2870111	wordpools/wasnorm_wordpool_576.txt	LTP346	ltpFR2	13	6	LUNCH	849	n/a	n/a	0	0	0
1402.21240234375	n/a	REC_WORD	2871731	wordpools/wasnorm_wordpool_576.txt	LTP346	ltpFR2	13	6	LIPSTICK	829	n/a	n/a	0	0	0
1407.93994140625	n/a	REC_WORD	2883461	wordpools/wasnorm_wordpool_576.txt	LTP346	ltpFR2	13	6	BUGGY	188	n/a	n/a	0	0	0
1408.51806640625	n/a	REC_WORD	2884645	wordpools/wasnorm_wordpool_576.txt	LTP346	ltpFR2	13	6	CREVICE	405	n/a	n/a	0	0	0
1409.35009765625	n/a	REC_WORD	2886349	wordpools/wasnorm_wordpool_576.txt	LTP346	ltpFR2	13	6	PLAYGROUND	1087	n/a	n/a	0	0	0
1410.76025390625	n/a	REC_WORD	2889237	wordpools/wasnorm_wordpool_576.txt	LTP346	ltpFR2	13	6	TUBA	1515	n/a	n/a	0	0	0
1411.51123046875	n/a	REC_WORD	2890775	wordpools/wasnorm_wordpool_576.txt	LTP346	ltpFR2	13	6	SUNSET	1408	n/a	n/a	0	0	0
1413.126953125	n/a	REC_WORD	2894084	wordpools/wasnorm_wordpool_576.txt	LTP346	ltpFR2	13	6	AIRPORT	13	n/a	n/a	0	0	0
1413.8837890625	n/a	REC_WORD	2895634	wordpools/wasnorm_wordpool_576.txt	LTP346	ltpFR2	13	6	ROCKET	1202	n/a	n/a	0	0	0
1425.11962890625	n/a	REC_WORD	2918645	wordpools/wasnorm_wordpool_576.txt	LTP346	ltpFR2	13	6	TROMBONE	1508	n/a	n/a	0	0	0
1425.9423828125	n/a	REC_WORD	2920330	wordpools/wasnorm_wordpool_576.txt	LTP346	ltpFR2	13	6	DONOR	485	n/a	n/a	0	0	0
1426.41259765625	n/a	REC_WORD	2921293	wordpools/wasnorm_wordpool_576.txt	LTP346	ltpFR2	13	6	VELVET	1555	n/a	n/a	0	0	0
1427.6533203125	n/a	REC_WORD	2923834	wordpools/wasnorm_wordpool_576.txt	LTP346	ltpFR2	13	6	PECAN	1036	n/a	n/a	0	0	0
1461.36279296875	n/a	DISTRACTOR	2992871	n/a	LTP346	ltpFR2	13	7	n/a	n/a	n/a	n/a	0	0	0
1461.36279296875	n/a	START	2992871	n/a	LTP346	ltpFR2	13	n/a	n/a	n/a	9	n/a	n/a	n/a	n/a
1461.37841796875	n/a	PROB	2992903	n/a	LTP346	ltpFR2	13	n/a	n/a	n/a	9	7	4	2	1
1462.71630859375	n/a	PROB	2995643	n/a	LTP346	ltpFR2	13	n/a	n/a	n/a	9	16	6	7	3
1464.53955078125	n/a	PROB	2999377	n/a	LTP346	ltpFR2	13	n/a	n/a	n/a	9	14	2	4	8
1465.84423828125	n/a	PROB	3002049	n/a	LTP346	ltpFR2	13	n/a	n/a	n/a	9	14	6	3	5
1467.5654296875	n/a	PROB	3005574	n/a	LTP346	ltpFR2	13	n/a	n/a	n/a	9	13	3	4	6
1470.775390625	n/a	PROB	3012148	n/a	LTP346	ltpFR2	13	n/a	n/a	n/a	9	22	9	7	6
1472.0634765625	n/a	PROB	3014786	n/a	LTP346	ltpFR2	13	n/a	n/a	n/a	9	20	7	4	9
1474.0693359375	n/a	PROB	3018894	n/a	LTP346	ltpFR2	13	n/a	n/a	n/a	9	14	5	6	3
1475.39013671875	n/a	PROB	3021599	n/a	LTP346	ltpFR2	13	n/a	n/a	n/a	9	17	1	9	7
1477.11328125	n/a	PROB	3025128	n/a	LTP346	ltpFR2	13	n/a	n/a	n/a	9	18	6	9	3
1478.43408203125	n/a	PROB	3027833	n/a	LTP346	ltpFR2	13	n/a	n/a	n/a	9	15	2	7	6
1479.73779296875	n/a	PROB	3030503	n/a	LTP346	ltpFR2	13	n/a	n/a	n/a	9	20	9	7	4
1482.212890625	n/a	PROB	3035572	n/a	LTP346	ltpFR2	13	n/a	n/a	n/a	9	17	9	5	3
1483.6337890625	n/a	PROB	3038482	n/a	LTP346	ltpFR2	13	n/a	n/a	n/a	9	16	2	7	7
1484.9267578125	n/a	STOP	3041130	n/a	LTP346	ltpFR2	13	n/a	n/a	n/a	9	n/a	n/a	n/a	n/a
1486.22607421875	n/a	WORD	3043791	wordpools/wasnorm_wordpool_576.txt	LTP346	ltpFR2	13	7	CROSS	413	n/a	n/a	0	0	0
1488.80078125	n/a	WORD	3049064	wordpools/wasnorm_wordpool_576.txt	LTP346	ltpFR2	13	7	ARM	38	n/a	n/a	0	0	0
1491.55859375	n/a	WORD	3054712	wordpools/wasnorm_wordpool_576.txt	LTP346	ltpFR2	13	7	DRIVER	499	n/a	n/a	0	0	0
1494.3515625	n/a	WORD	3060432	wordpools/wasnorm_wordpool_576.txt	LTP346	ltpFR2	13	7	PUDDING	1139	n/a	n/a	0	0	0
1496.84375	n/a	WORD	3065536	wordpools/wasnorm_wordpool_576.txt	LTP346	ltpFR2	13	7	SCULPTURE	1258	n/a	n/a	0	0	0
1499.568359375	n/a	WORD	3071116	wordpools/wasnorm_wordpool_576.txt	LTP346	ltpFR2	13	7	MASK	876	n/a	n/a	0	0	0
1502.2431640625	n/a	WORD	3076594	wordpools/wasnorm_wordpool_576.txt	LTP346	ltpFR2	13	7	FARMER	553	n/a	n/a	0	0	0
1505.03515625	n/a	WORD	3082312	wordpools/wasnorm_wordpool_576.txt	LTP346	ltpFR2	13	7	LONDON	843	n/a	n/a	0	0	0
1507.62744140625	n/a	WORD	3087621	wordpools/wasnorm_wordpool_576.txt	LTP346	ltpFR2	13	7	ASIA	46	n/a	n/a	0	0	0
1510.15234375	n/a	WORD	3092792	wordpools/wasnorm_wordpool_576.txt	LTP346	ltpFR2	13	7	MARSH	874	n/a	n/a	0	0	0
1512.64306640625	n/a	WORD	3097893	wordpools/wasnorm_wordpool_576.txt	LTP346	ltpFR2	13	7	BOYFRIEND	162	n/a	n/a	0	0	0
1515.35205078125	n/a	WORD	3103441	wordpools/wasnorm_wordpool_576.txt	LTP346	ltpFR2	13	7	LEG	809	n/a	n/a	0	0	0
1517.828125	n/a	WORD	3108512	wordpools/wasnorm_wordpool_576.txt	LTP346	ltpFR2	13	7	SIDEWALK	1303	n/a	n/a	0	0	0
1520.60205078125	n/a	WORD	3114193	wordpools/wasnorm_wordpool_576.txt	LTP346	ltpFR2	13	7	TOASTER	1472	n/a	n/a	0	0	0
1523.0439453125	n/a	WORD	3119194	wordpools/wasnorm_wordpool_576.txt	LTP346	ltpFR2	13	7	CROWN	415	n/a	n/a	0	0	0
1525.61865234375	n/a	WORD	3124467	wordpools/wasnorm_wordpool_576.txt	LTP346	ltpFR2	13	7	TOMBSTONE	1478	n/a	n/a	0	0	0
1528.32666015625	n/a	WORD	3130013	wordpools/wasnorm_wordpool_576.txt	LTP346	ltpFR2	13	7	MAPLE	866	n/a	n/a	0	0	0
1531.00244140625	n/a	WORD	3135493	wordpools/wasnorm_wordpool_576.txt	LTP346	ltpFR2	13	7	TRENCH	1503	n/a	n/a	0	0	0
1533.66064453125	n/a	WORD	3140937	wordpools/wasnorm_wordpool_576.txt	LTP346	ltpFR2	13	7	TABLE	1426	n/a	n/a	0	0	0
1536.15234375	n/a	WORD	3146040	wordpools/wasnorm_wordpool_576.txt	LTP346	ltpFR2	13	7	BLACKBOARD	133	n/a	n/a	0	0	0
1538.8955078125	n/a	WORD	3151658	wordpools/wasnorm_wordpool_576.txt	LTP346	ltpFR2	13	7	BOARD	143	n/a	n/a	0	0	0
1541.63623046875	n/a	WORD	3157271	wordpools/wasnorm_wordpool_576.txt	LTP346	ltpFR2	13	7	FRIEND	606	n/a	n/a	0	0	0
1544.1953125	n/a	WORD	3162512	wordpools/wasnorm_wordpool_576.txt	LTP346	ltpFR2	13	7	HARP	689	n/a	n/a	0	0	0
1546.63623046875	n/a	WORD	3167511	wordpools/wasnorm_wordpool_576.txt	LTP346	ltpFR2	13	7	DANCER	437	n/a	n/a	0	0	0
1548.2412109375	n/a	START	3170798	n/a	LTP346	ltpFR2	13	n/a	n/a	n/a	10	n/a	n/a	n/a	n/a
1549.171875	n/a	DISTRACTOR	3172704	n/a	LTP346	ltpFR2	13	7	n/a	n/a	n/a	n/a	0	0	0
1549.1767578125	n/a	PROB	3172714	n/a	LTP346	ltpFR2	13	n/a	n/a	n/a	10	14	5	6	3
1550.61474609375	n/a	PROB	3175659	n/a	LTP346	ltpFR2	13	n/a	n/a	n/a	10	10	5	4	1
1551.90380859375	n/a	PROB	3178299	n/a	LTP346	ltpFR2	13	n/a	n/a	n/a	10	13	5	6	2
1553.35791015625	n/a	PROB	3181277	n/a	LTP346	ltpFR2	13	n/a	n/a	n/a	10	10	3	1	6
1554.99658203125	n/a	PROB	3184633	n/a	LTP346	ltpFR2	13	n/a	n/a	n/a	10	18	9	7	2
1556.43359375	n/a	PROB	3187576	n/a	LTP346	ltpFR2	13	n/a	n/a	n/a	10	16	1	9	6
1558.07275390625	n/a	PROB	3190933	n/a	LTP346	ltpFR2	13	n/a	n/a	n/a	10	17	6	9	2
1559.44384765625	n/a	PROB	3193741	n/a	LTP346	ltpFR2	13	n/a	n/a	n/a	10	9	2	4	3
1561.1328125	n/a	PROB	3197200	n/a	LTP346	ltpFR2	13	n/a	n/a	n/a	10	22	7	9	6
1562.5537109375	n/a	PROB	3200110	n/a	LTP346	ltpFR2	13	n/a	n/a	n/a	10	20	8	3	9
1564.40966796875	n/a	PROB	3203911	n/a	LTP346	ltpFR2	13	n/a	n/a	n/a	10	11	2	1	8
1565.99853515625	n/a	PROB	3207165	n/a	LTP346	ltpFR2	13	n/a	n/a	n/a	10	18	2	8	8
1567.33544921875	n/a	PROB	3209903	n/a	LTP346	ltpFR2	13	n/a	n/a	n/a	10	15	5	5	5
1568.35546875	n/a	PROB	3211992	n/a	LTP346	ltpFR2	13	n/a	n/a	n/a	10	17	9	7	1
1569.76025390625	n/a	PROB	3214869	n/a	LTP346	ltpFR2	13	n/a	n/a	n/a	10	18	2	9	7
1571.23828125	n/a	STOP	3217896	n/a	LTP346	ltpFR2	13	n/a	n/a	n/a	10	n/a	n/a	n/a	n/a
1574.041015625	n/a	REC_START	3223636	n/a	LTP346	ltpFR2	13	7	n/a	n/a	n/a	n/a	0	0	0
1574.58837890625	n/a	REC_WORD	3224757	wordpools/wasnorm_wordpool_576.txt	LTP346	ltpFR2	13	7	FRIEND	606	n/a	n/a	0	0	0
1575.35009765625	n/a	REC_WORD	3226317	wordpools/wasnorm_wordpool_576.txt	LTP346	ltpFR2	13	7	DANCER	437	n/a	n/a	0	0	0
1575.91015625	n/a	REC_WORD	3227464	wordpools/wasnorm_wordpool_576.txt	LTP346	ltpFR2	13	7	HARP	689	n/a	n/a	0	0	0
1578.42333984375	n/a	REC_WORD	3232611	wordpools/wasnorm_wordpool_576.txt	LTP346	ltpFR2	13	7	CROSS	413	n/a	n/a	0	0	0
1579.80029296875	n/a	REC_WORD	3235431	wordpools/wasnorm_wordpool_576.txt	LTP346	ltpFR2	13	7	ARM	38	n/a	n/a	0	0	0
1580.38427734375	n/a	REC_WORD	3236627	wordpools/wasnorm_wordpool_576.txt	LTP346	ltpFR2	13	7	LEG	809	n/a	n/a	0	0	0
1582.203125	n/a	REC_WORD	3240352	wordpools/wasnorm_wordpool_576.txt	LTP346	ltpFR2	13	7	SIDEWALK	1303	n/a	n/a	0	0	0
1583.078125	n/a	REC_WORD	3242144	wordpools/wasnorm_wordpool_576.txt	LTP346	ltpFR2	13	7	MARSH	874	n/a	n/a	0	0	0
1584.9677734375	n/a	REC_WORD	3246014	wordpools/wasnorm_wordpool_576.txt	LTP346	ltpFR2	13	7	BLACKBOARD	133	n/a	n/a	0	0	0
1585.708984375	n/a	REC_WORD	3247532	wordpools/wasnorm_wordpool_576.txt	LTP346	ltpFR2	13	7	BOARD	143	n/a	n/a	0	0	0
1588.89697265625	n/a	REC_WORD	3254061	wordpools/wasnorm_wordpool_576.txt	LTP346	ltpFR2	13	7	SCULPTURE	1258	n/a	n/a	0	0	0
1590.099609375	n/a	REC_WORD	3256524	wordpools/wasnorm_wordpool_576.txt	LTP346	ltpFR2	13	7	MASK	876	n/a	n/a	0	0	0
1590.9775390625	n/a	REC_WORD	3258322	wordpools/wasnorm_wordpool_576.txt	LTP346	ltpFR2	13	7	FARMER	553	n/a	n/a	0	0	0
1600.4853515625	n/a	REC_WORD	3277794	wordpools/wasnorm_wordpool_576.txt	LTP346	ltpFR2	13	7	BOYFRIEND	162	n/a	n/a	0	0	0
1634.9375	n/a	REC_WORD	3348352	wordpools/wasnorm_wordpool_576.txt	LTP346	ltpFR2	13	7	CROWN	415	n/a	n/a	0	0	0
1635.46728515625	n/a	REC_WORD	3349437	wordpools/wasnorm_wordpool_576.txt	LTP346	ltpFR2	13	7	TOMBSTONE	1478	n/a	n/a	0	0	0
1636.271484375	n/a	REC_WORD	3351084	wordpools/wasnorm_wordpool_576.txt	LTP346	ltpFR2	13	7	MAPLE	866	n/a	n/a	0	0	0
1636.75439453125	n/a	REC_WORD	3352073	wordpools/wasnorm_wordpool_576.txt	LTP346	ltpFR2	13	7	TABLE	1426	n/a	n/a	0	0	0
1664.49755859375	n/a	WORD	3408891	wordpools/wasnorm_wordpool_576.txt	LTP346	ltpFR2	13	8	PIGMENT	1066	n/a	n/a	0	0	0
1666.9736328125	n/a	WORD	3413962	wordpools/wasnorm_wordpool_576.txt	LTP346	ltpFR2	13	8	CRAB	397	n/a	n/a	0	0	0
1669.58056640625	n/a	WORD	3419301	wordpools/wasnorm_wordpool_576.txt	LTP346	ltpFR2	13	8	STICKER	1382	n/a	n/a	0	0	0
1672.2392578125	n/a	WORD	3424746	wordpools/wasnorm_wordpool_576.txt	LTP346	ltpFR2	13	8	ZEBRA	1635	n/a	n/a	0	0	0
1674.8310546875	n/a	WORD	3430054	wordpools/wasnorm_wordpool_576.txt	LTP346	ltpFR2	13	8	SKILLET	1317	n/a	n/a	0	0	0
1677.58935546875	n/a	WORD	3435703	wordpools/wasnorm_wordpool_576.txt	LTP346	ltpFR2	13	8	WOMAN	1620	n/a	n/a	0	0	0
1680.14794921875	n/a	WORD	3440943	wordpools/wasnorm_wordpool_576.txt	LTP346	ltpFR2	13	8	TORTOISE	1486	n/a	n/a	0	0	0
1682.94091796875	n/a	WORD	3446663	wordpools/wasnorm_wordpool_576.txt	LTP346	ltpFR2	13	8	SANDWICH	1232	n/a	n/a	0	0	0
1685.73193359375	n/a	WORD	3452379	wordpools/wasnorm_wordpool_576.txt	LTP346	ltpFR2	13	8	CURTAIN	427	n/a	n/a	0	0	0
1688.18994140625	n/a	WORD	3457413	wordpools/wasnorm_wordpool_576.txt	LTP346	ltpFR2	13	8	GLASS	639	n/a	n/a	0	0	0
1690.64794921875	n/a	WORD	3462447	wordpools/wasnorm_wordpool_576.txt	LTP346	ltpFR2	13	8	CHAUFFEUR	283	n/a	n/a	0	0	0
1693.40673828125	n/a	WORD	3468097	wordpools/wasnorm_wordpool_576.txt	LTP346	ltpFR2	13	8	SLUG	1329	n/a	n/a	0	0	0
1695.982421875	n/a	WORD	3473372	wordpools/wasnorm_wordpool_576.txt	LTP346	ltpFR2	13	8	NOMAD	955	n/a	n/a	0	0	0
1698.67333984375	n/a	WORD	3478883	wordpools/wasnorm_wordpool_576.txt	LTP346	ltpFR2	13	8	GIFT	635	n/a	n/a	0	0	0
1701.36572265625	n/a	WORD	3484397	wordpools/wasnorm_wordpool_576.txt	LTP346	ltpFR2	13	8	POSTAGE	1113	n/a	n/a	0	0	0
1704.17431640625	n/a	WORD	3490149	wordpools/wasnorm_wordpool_576.txt	LTP346	ltpFR2	13	8	BRANCH	168	n/a	n/a	0	0	0
1706.984375	n/a	WORD	3495904	wordpools/wasnorm_wordpool_576.txt	LTP346	ltpFR2	13	8	WRIST	1626	n/a	n/a	0	0	0
1709.4912109375	n/a	WORD	3501038	wordpools/wasnorm_wordpool_576.txt	LTP346	ltpFR2	13	8	GRILL	661	n/a	n/a	0	0	0
1712.1171875	n/a	WORD	3506416	wordpools/wasnorm_wordpool_576.txt	LTP346	ltpFR2	13	8	BIKE	125	n/a	n/a	0	0	0
1714.75927734375	n/a	WORD	3511827	wordpools/wasnorm_wordpool_576.txt	LTP346	ltpFR2	13	8	BEAST	108	n/a	n/a	0	0	0
1717.40087890625	n/a	WORD	3517237	wordpools/wasnorm_wordpool_576.txt	LTP346	ltpFR2	13	8	CRAYON	401	n/a	n/a	0	0	0
1720.02587890625	n/a	WORD	3522613	wordpools/wasnorm_wordpool_576.txt	LTP346	ltpFR2	13	8	PICTURE	1061	n/a	n/a	0	0	0
1722.44970703125	n/a	WORD	3527577	wordpools/wasnorm_wordpool_576.txt	LTP346	ltpFR2	13	8	DRAWING	494	n/a	n/a	0	0	0
1724.9755859375	n/a	WORD	3532750	wordpools/wasnorm_wordpool_576.txt	LTP346	ltpFR2	13	8	CATTLE	261	n/a	n/a	0	0	0
1726.58056640625	n/a	START	3536037	n/a	LTP346	ltpFR2	13	n/a	n/a	n/a	11	n/a	n/a	n/a	n/a
1727.73876953125	n/a	DISTRACTOR	3538409	n/a	LTP346	ltpFR2	13	8	n/a	n/a	n/a	n/a	0	0	0
1727.75048828125	n/a	PROB	3538433	n/a	LTP346	ltpFR2	13	n/a	n/a	n/a	11	18	6	3	9
1729.439453125	n/a	PROB	3541892	n/a	LTP346	ltpFR2	13	n/a	n/a	n/a	11	22	9	9	6
1731.27880859375	n/a	PROB	3545659	n/a	LTP346	ltpFR2	13	n/a	n/a	n/a	11	11	8	1	2
1733.65234375	n/a	PROB	3550520	n/a	LTP346	ltpFR2	13	n/a	n/a	n/a	11	11	1	7	3
1734.90771484375	n/a	PROB	3553091	n/a	LTP346	ltpFR2	13	n/a	n/a	n/a	11	19	8	7	4
1736.3115234375	n/a	PROB	3555966	n/a	LTP346	ltpFR2	13	n/a	n/a	n/a	11	21	8	4	9
1738.0166015625	n/a	PROB	3559458	n/a	LTP346	ltpFR2	13	n/a	n/a	n/a	11	8	4	3	1
1739.25439453125	n/a	PROB	3561993	n/a	LTP346	ltpFR2	13	n/a	n/a	n/a	11	20	6	5	9
1740.87744140625	n/a	PROB	3565317	n/a	LTP346	ltpFR2	13	n/a	n/a	n/a	11	17	5	5	7
1742.46435546875	n/a	PROB	3568567	n/a	LTP346	ltpFR2	13	n/a	n/a	n/a	11	25	9	8	8
1745.08935546875	n/a	PROB	3573943	n/a	LTP346	ltpFR2	13	n/a	n/a	n/a	11	13	6	4	3
1746.29296875	n/a	PROB	3576408	n/a	LTP346	ltpFR2	13	n/a	n/a	n/a	11	12	6	2	4
1747.59716796875	n/a	PROB	3579079	n/a	LTP346	ltpFR2	13	n/a	n/a	n/a	11	14	2	5	7
1749.2861328125	n/a	STOP	3582538	n/a	LTP346	ltpFR2	13	n/a	n/a	n/a	11	n/a	n/a	n/a	n/a
1752.498046875	n/a	REC_START	3589116	n/a	LTP346	ltpFR2	13	8	n/a	n/a	n/a	n/a	0	0	0
1754.412109375	n/a	REC_WORD	3593036	wordpools/wasnorm_wordpool_576.txt	LTP346	ltpFR2	13	8	PICTURE	1061	n/a	n/a	0	0	0
1755.0419921875	n/a	REC_WORD	3594326	wordpools/wasnorm_wordpool_576.txt	LTP346	ltpFR2	13	8	DRAWING	494	n/a	n/a	0	0	0
1755.66796875	n/a	REC_WORD	3595608	wordpools/wasnorm_wordpool_576.txt	LTP346	ltpFR2	13	8	CATTLE	261	n/a	n/a	0	0	0
1758.384765625	n/a	REC_WORD	3601172	wordpools/wasnorm_wordpool_576.txt	LTP346	ltpFR2	13	8	BEAST	108	n/a	n/a	0	0	0
1759.0546875	n/a	REC_WORD	3602544	wordpools/wasnorm_wordpool_576.txt	LTP346	ltpFR2	13	8	CRAYON	401	n/a	n/a	0	0	0
1769.54443359375	n/a	REC_WORD	3624027	wordpools/wasnorm_wordpool_576.txt	LTP346	ltpFR2	13	8	NOMAD	955	n/a	n/a	0	0	0
1770.31640625	n/a	REC_WORD	3625608	wordpools/wasnorm_wordpool_576.txt	LTP346	ltpFR2	13	8	GIFT	635	n/a	n/a	0	0	0
1771.865234375	n/a	REC_WORD	3628780	wordpools/wasnorm_wordpool_576.txt	LTP346	ltpFR2	13	8	POSTAGE	1113	n/a	n/a	0	0	0
1773.0654296875	n/a	REC_WORD	3631238	wordpools/wasnorm_wordpool_576.txt	LTP346	ltpFR2	13	8	GRILL	661	n/a	n/a	0	0	0
1773.59326171875	n/a	REC_WORD	3632319	wordpools/wasnorm_wordpool_576.txt	LTP346	ltpFR2	13	8	BIKE	125	n/a	n/a	0	0	0
1775.63720703125	n/a	REC_WORD	3636505	wordpools/wasnorm_wordpool_576.txt	LTP346	ltpFR2	13	8	BRANCH	168	n/a	n/a	0	0	0
1776.17626953125	n/a	REC_WORD	3637609	wordpools/wasnorm_wordpool_576.txt	LTP346	ltpFR2	13	8	WRIST	1626	n/a	n/a	0	0	0
1805.4462890625	n/a	REC_WORD	3697554	wordpools/wasnorm_wordpool_576.txt	LTP346	ltpFR2	13	8	CHAUFFEUR	283	n/a	n/a	0	0	0
1806.19921875	n/a	REC_WORD	3699096	wordpools/wasnorm_wordpool_576.txt	LTP346	ltpFR2	13	8	SLUG	1329	n/a	n/a	0	0	0
1811.80224609375	n/a	REC_WORD	3710571	wordpools/wasnorm_wordpool_576.txt	LTP346	ltpFR2	13	8	GLASS	639	n/a	n/a	0	0	0
1812.96435546875	n/a	REC_WORD	3712951	wordpools/wasnorm_wordpool_576.txt	LTP346	ltpFR2	13	8	CURTAIN	427	n/a	n/a	0	0	0
1815.65087890625	n/a	REC_WORD	3718453	wordpools/wasnorm_wordpool_576.txt	LTP346	ltpFR2	13	8	TORTOISE	1486	n/a	n/a	0	0	0
1816.158203125	n/a	REC_WORD	3719492	wordpools/wasnorm_wordpool_576.txt	LTP346	ltpFR2	13	8	SANDWICH	1232	n/a	n/a	0	0	0
1824.36376953125	n/a	REC_WORD	3736297	wordpools/wasnorm_wordpool_576.txt	LTP346	ltpFR2	13	8	WOMAN	1620	n/a	n/a	0	0	0
1829.02587890625	n/a	REST_REWET	3745845	n/a	LTP346	ltpFR2	13	8	n/a	n/a	n/a	n/a	0	0	0
1969.89453125	n/a	DISTRACTOR	4034344	n/a	LTP346	ltpFR2	13	9	n/a	n/a	n/a	n/a	0	0	0
1969.8955078125	n/a	START	4034346	n/a	LTP346	ltpFR2	13	n/a	n/a	n/a	12	n/a	n/a	n/a	n/a
1969.91162109375	n/a	PROB	4034379	n/a	LTP346	ltpFR2	13	n/a	n/a	n/a	12	22	9	9	4
1971.61669921875	n/a	PROB	4037871	n/a	LTP346	ltpFR2	13	n/a	n/a	n/a	12	18	7	6	5
1973.53955078125	n/a	PROB	4041809	n/a	LTP346	ltpFR2	13	n/a	n/a	n/a	12	21	9	9	3
1974.87744140625	n/a	PROB	4044549	n/a	LTP346	ltpFR2	13	n/a	n/a	n/a	12	14	4	8	2
1976.1474609375	n/a	PROB	4047150	n/a	LTP346	ltpFR2	13	n/a	n/a	n/a	12	13	3	6	4
1977.8544921875	n/a	PROB	4050646	n/a	LTP346	ltpFR2	13	n/a	n/a	n/a	12	9	4	3	2
1979.2744140625	n/a	PROB	4053554	n/a	LTP346	ltpFR2	13	n/a	n/a	n/a	12	11	3	1	7
1980.26025390625	n/a	PROB	4055573	n/a	LTP346	ltpFR2	13	n/a	n/a	n/a	12	16	7	3	6
1982.333984375	n/a	PROB	4059820	n/a	LTP346	ltpFR2	13	n/a	n/a	n/a	12	14	5	4	4
1983.873046875	n/a	PROB	4062972	n/a	LTP346	ltpFR2	13	n/a	n/a	n/a	12	12	5	3	4
1986.43017578125	n/a	PROB	4068209	n/a	LTP346	ltpFR2	13	n/a	n/a	n/a	12	15	1	7	7
1987.66796875	n/a	PROB	4070744	n/a	LTP346	ltpFR2	13	n/a	n/a	n/a	12	20	2	9	9
1989.13916015625	n/a	PROB	4073757	n/a	LTP346	ltpFR2	13	n/a	n/a	n/a	12	19	9	4	6
1990.86181640625	n/a	PROB	4077285	n/a	LTP346	ltpFR2	13	n/a	n/a	n/a	12	17	5	8	4
1993.89404296875	n/a	STOP	4083495	n/a	LTP346	ltpFR2	13	n/a	n/a	n/a	12	n/a	n/a	n/a	n/a
1994.80859375	n/a	WORD	4085368	wordpools/wasnorm_wordpool_576.txt	LTP346	ltpFR2	13	9	LETTUCE	814	n/a	n/a	0	0	0
1997.4326171875	n/a	WORD	4090742	wordpools/wasnorm_wordpool_576.txt	LTP346	ltpFR2	13	9	SLIME	1327	n/a	n/a	0	0	0
2000.07470703125	n/a	WORD	4096153	wordpools/wasnorm_wordpool_576.txt	LTP346	ltpFR2	13	9	FLASK	576	n/a	n/a	0	0	0
2002.78369140625	n/a	WORD	4101701	wordpools/wasnorm_wordpool_576.txt	LTP346	ltpFR2	13	9	DOLPHIN	483	n/a	n/a	0	0	0
2005.1904296875	n/a	WORD	4106630	wordpools/wasnorm_wordpool_576.txt	LTP346	ltpFR2	13	9	SNACK	1331	n/a	n/a	0	0	0
2007.900390625	n/a	WORD	4112180	wordpools/wasnorm_wordpool_576.txt	LTP346	ltpFR2	13	9	CANDY	230	n/a	n/a	0	0	0
2010.59130859375	n/a	WORD	4117691	wordpools/wasnorm_wordpool_576.txt	LTP346	ltpFR2	13	9	FLIPPER	580	n/a	n/a	0	0	0
2013.09912109375	n/a	WORD	4122827	wordpools/wasnorm_wordpool_576.txt	LTP346	ltpFR2	13	9	WITNESS	1618	n/a	n/a	0	0	0
2015.5244140625	n/a	WORD	4127794	wordpools/wasnorm_wordpool_576.txt	LTP346	ltpFR2	13	9	TRANSPLANT	1496	n/a	n/a	0	0	0
2018.01513671875	n/a	WORD	4132895	wordpools/wasnorm_wordpool_576.txt	LTP346	ltpFR2	13	9	HELMET	702	n/a	n/a	0	0	0
2020.55712890625	n/a	WORD	4138101	wordpools/wasnorm_wordpool_576.txt	LTP346	ltpFR2	13	9	BLENDER	136	n/a	n/a	0	0	0
2023.3662109375	n/a	WORD	4143854	wordpools/wasnorm_wordpool_576.txt	LTP346	ltpFR2	13	9	PASTRY	1022	n/a	n/a	0	0	0
2026.041015625	n/a	WORD	4149332	wordpools/wasnorm_wordpool_576.txt	LTP346	ltpFR2	13	9	BALLOON	75	n/a	n/a	0	0	0
2028.48193359375	n/a	WORD	4154331	wordpools/wasnorm_wordpool_576.txt	LTP346	ltpFR2	13	9	COUCH	386	n/a	n/a	0	0	0
2031.20751953125	n/a	WORD	4159913	wordpools/wasnorm_wordpool_576.txt	LTP346	ltpFR2	13	9	SHIRT	1287	n/a	n/a	0	0	0
2033.73291015625	n/a	WORD	4165085	wordpools/wasnorm_wordpool_576.txt	LTP346	ltpFR2	13	9	HANDBAG	684	n/a	n/a	0	0	0
2036.390625	n/a	WORD	4170528	wordpools/wasnorm_wordpool_576.txt	LTP346	ltpFR2	13	9	FIDDLE	561	n/a	n/a	0	0	0
2039.18359375	n/a	WORD	4176248	wordpools/wasnorm_wordpool_576.txt	LTP346	ltpFR2	13	9	HOOD	714	n/a	n/a	0	0	0
2041.859375	n/a	WORD	4181728	wordpools/wasnorm_wordpool_576.txt	LTP346	ltpFR2	13	9	MUSTARD	935	n/a	n/a	0	0	0
2044.5673828125	n/a	WORD	4187274	wordpools/wasnorm_wordpool_576.txt	LTP346	ltpFR2	13	9	HERO	706	n/a	n/a	0	0	0
2046.9912109375	n/a	WORD	4192238	wordpools/wasnorm_wordpool_576.txt	LTP346	ltpFR2	13	9	BRICK	172	n/a	n/a	0	0	0
2049.80126953125	n/a	WORD	4197993	wordpools/wasnorm_wordpool_576.txt	LTP346	ltpFR2	13	9	SHELTER	1282	n/a	n/a	0	0	0
2052.2919921875	n/a	WORD	4203094	wordpools/wasnorm_wordpool_576.txt	LTP346	ltpFR2	13	9	GIRL	637	n/a	n/a	0	0	0
2054.85107421875	n/a	WORD	4208335	wordpools/wasnorm_wordpool_576.txt	LTP346	ltpFR2	13	9	PARTNER	1017	n/a	n/a	0	0	0
2056.455078125	n/a	START	4211620	n/a	LTP346	ltpFR2	13	n/a	n/a	n/a	13	n/a	n/a	n/a	n/a
2057.48681640625	n/a	DISTRACTOR	4213733	n/a	LTP346	ltpFR2	13	9	n/a	n/a	n/a	n/a	0	0	0
2057.4921875	n/a	PROB	4213744	n/a	LTP346	ltpFR2	13	n/a	n/a	n/a	13	19	4	9	6
2059.34814453125	n/a	PROB	4217545	n/a	LTP346	ltpFR2	13	n/a	n/a	n/a	13	14	2	4	8
2060.73583984375	n/a	PROB	4220387	n/a	LTP346	ltpFR2	13	n/a	n/a	n/a	13	14	6	3	5
2062.20703125	n/a	PROB	4223400	n/a	LTP346	ltpFR2	13	n/a	n/a	n/a	13	15	6	5	5
2063.6279296875	n/a	PROB	4226310	n/a	LTP346	ltpFR2	13	n/a	n/a	n/a	13	7	2	4	1
2065.65087890625	n/a	PROB	4230453	n/a	LTP346	ltpFR2	13	n/a	n/a	n/a	13	9	5	3	1
2067.3896484375	n/a	PROB	4234014	n/a	LTP346	ltpFR2	13	n/a	n/a	n/a	13	1	7	8	2
2068.74462890625	n/a	PROB	4236789	n/a	LTP346	ltpFR2	13	n/a	n/a	n/a	13	20	7	4	9
2071.5703125	n/a	PROB	4242576	n/a	LTP346	ltpFR2	13	n/a	n/a	n/a	13	11	1	2	8
2073.1083984375	n/a	PROB	4245726	n/a	LTP346	ltpFR2	13	n/a	n/a	n/a	13	15	5	4	6
2074.71337890625	n/a	PROB	4249013	n/a	LTP346	ltpFR2	13	n/a	n/a	n/a	13	12	3	8	1
2076.21826171875	n/a	PROB	4252095	n/a	LTP346	ltpFR2	13	n/a	n/a	n/a	13	16	3	9	4
2078.04150390625	n/a	PROB	4255829	n/a	LTP346	ltpFR2	13	n/a	n/a	n/a	13	12	8	2	2
2079.1171875	n/a	STOP	4258032	n/a	LTP346	ltpFR2	13	n/a	n/a	n/a	13	n/a	n/a	n/a	n/a
2082.22119140625	n/a	REC_START	4264389	n/a	LTP346	ltpFR2	13	9	n/a	n/a	n/a	n/a	0	0	0
2086.88427734375	n/a	REC_WORD	4273939	wordpools/wasnorm_wordpool_576.txt	LTP346	ltpFR2	13	9	FLASK	576	n/a	n/a	0	0	0
2089.35693359375	n/a	REC_WORD	4279003	wordpools/wasnorm_wordpool_576.txt	LTP346	ltpFR2	13	9	DOLPHIN	483	n/a	n/a	0	0	0
2089.95703125	n/a	REC_WORD	4280232	wordpools/wasnorm_wordpool_576.txt	LTP346	ltpFR2	13	9	SNACK	1331	n/a	n/a	0	0	0
2090.9541015625	n/a	REC_WORD	4282274	wordpools/wasnorm_wordpool_576.txt	LTP346	ltpFR2	13	9	CANDY	230	n/a	n/a	0	0	0
2091.78271484375	n/a	REC_WORD	4283971	wordpools/wasnorm_wordpool_576.txt	LTP346	ltpFR2	13	9	FLIPPER	580	n/a	n/a	0	0	0
2096.47705078125	n/a	REC_WORD	4293585	wordpools/wasnorm_wordpool_576.txt	LTP346	ltpFR2	13	9	COUCH	386	n/a	n/a	0	0	0
2097.2119140625	n/a	REC_WORD	4295090	wordpools/wasnorm_wordpool_576.txt	LTP346	ltpFR2	13	9	BALLOON	75	n/a	n/a	0	0	0
2097.8486328125	n/a	REC_WORD	4296394	wordpools/wasnorm_wordpool_576.txt	LTP346	ltpFR2	13	9	PASTRY	1022	n/a	n/a	0	0	0
2099.11669921875	n/a	REC_WORD	4298991	wordpools/wasnorm_wordpool_576.txt	LTP346	ltpFR2	13	9	SHIRT	1287	n/a	n/a	0	0	0
2099.94482421875	n/a	REC_WORD	4300687	wordpools/wasnorm_wordpool_576.txt	LTP346	ltpFR2	13	9	HANDBAG	684	n/a	n/a	0	0	0
2101.4365234375	n/a	REC_WORD	4303742	wordpools/wasnorm_wordpool_576.txt	LTP346	ltpFR2	13	9	LETTUCE	814	n/a	n/a	0	0	0
2102.4677734375	n/a	REC_WORD	4305854	wordpools/wasnorm_wordpool_576.txt	LTP346	ltpFR2	13	9	SLIME	1327	n/a	n/a	0	0	0
2172.66162109375	n/a	DISTRACTOR	4449611	n/a	LTP346	ltpFR2	13	10	n/a	n/a	n/a	n/a	0	0	0
2172.66162109375	n/a	START	4449611	n/a	LTP346	ltpFR2	13	n/a	n/a	n/a	14	n/a	n/a	n/a	n/a
2172.677734375	n/a	PROB	4449644	n/a	LTP346	ltpFR2	13	n/a	n/a	n/a	14	19	2	9	8
2174.66748046875	n/a	PROB	4453719	n/a	LTP346	ltpFR2	13	n/a	n/a	n/a	14	16	3	8	5
2176.724609375	n/a	PROB	4457932	n/a	LTP346	ltpFR2	13	n/a	n/a	n/a	14	23	8	7	8
2180.703125	n/a	PROB	4466080	n/a	LTP346	ltpFR2	13	n/a	n/a	n/a	14	17	4	5	8
2182.7431640625	n/a	PROB	4470258	n/a	LTP346	ltpFR2	13	n/a	n/a	n/a	14	15	1	8	6
2184.064453125	n/a	PROB	4472964	n/a	LTP346	ltpFR2	13	n/a	n/a	n/a	14	10	1	6	3
2185.38525390625	n/a	PROB	4475669	n/a	LTP346	ltpFR2	13	n/a	n/a	n/a	14	9	6	2	1
2186.60595703125	n/a	PROB	4478169	n/a	LTP346	ltpFR2	13	n/a	n/a	n/a	14	12	5	2	5
2187.7939453125	n/a	PROB	4480602	n/a	LTP346	ltpFR2	13	n/a	n/a	n/a	14	24	9	8	7
2189.09716796875	n/a	PROB	4483271	n/a	LTP346	ltpFR2	13	n/a	n/a	n/a	14	12	4	2	6
2190.30126953125	n/a	PROB	4485737	n/a	LTP346	ltpFR2	13	n/a	n/a	n/a	14	18	7	5	6
2192.1240234375	n/a	PROB	4489470	n/a	LTP346	ltpFR2	13	n/a	n/a	n/a	14	16	5	2	9
2194.11376953125	n/a	PROB	4493545	n/a	LTP346	ltpFR2	13	n/a	n/a	n/a	14	19	7	8	4
2195.46875	n/a	STOP	4496320	n/a	LTP346	ltpFR2	13	n/a	n/a	n/a	14	n/a	n/a	n/a	n/a
2197.57470703125	n/a	WORD	4500633	wordpools/wasnorm_wordpool_576.txt	LTP346	ltpFR2	13	10	STOVE	1388	n/a	n/a	0	0	0
2200.216796875	n/a	WORD	4506044	wordpools/wasnorm_wordpool_576.txt	LTP346	ltpFR2	13	10	SCARF	1246	n/a	n/a	0	0	0
2202.85986328125	n/a	WORD	4511457	wordpools/wasnorm_wordpool_576.txt	LTP346	ltpFR2	13	10	FREEZER	604	n/a	n/a	0	0	0
2205.28271484375	n/a	WORD	4516419	wordpools/wasnorm_wordpool_576.txt	LTP346	ltpFR2	13	10	SMOG	1330	n/a	n/a	0	0	0
2207.92529296875	n/a	WORD	4521831	wordpools/wasnorm_wordpool_576.txt	LTP346	ltpFR2	13	10	KITCHEN	778	n/a	n/a	0	0	0
2210.7333984375	n/a	WORD	4527582	wordpools/wasnorm_wordpool_576.txt	LTP346	ltpFR2	13	10	CANAL	226	n/a	n/a	0	0	0
2213.392578125	n/a	WORD	4533028	wordpools/wasnorm_wordpool_576.txt	LTP346	ltpFR2	13	10	SPHINX	1349	n/a	n/a	0	0	0
2215.8173828125	n/a	WORD	4537994	wordpools/wasnorm_wordpool_576.txt	LTP346	ltpFR2	13	10	MUMMY	932	n/a	n/a	0	0	0
2218.42529296875	n/a	WORD	4543335	wordpools/wasnorm_wordpool_576.txt	LTP346	ltpFR2	13	10	HAWK	692	n/a	n/a	0	0	0
2220.8330078125	n/a	WORD	4548266	wordpools/wasnorm_wordpool_576.txt	LTP346	ltpFR2	13	10	SALAD	1224	n/a	n/a	0	0	0
2223.2568359375	n/a	WORD	4553230	wordpools/wasnorm_wordpool_576.txt	LTP346	ltpFR2	13	10	KNAPSACK	783	n/a	n/a	0	0	0
2225.8828125	n/a	WORD	4558608	wordpools/wasnorm_wordpool_576.txt	LTP346	ltpFR2	13	10	GARLIC	624	n/a	n/a	0	0	0
2228.5908203125	n/a	WORD	4564154	wordpools/wasnorm_wordpool_576.txt	LTP346	ltpFR2	13	10	SAUSAGE	1238	n/a	n/a	0	0	0
2231.03173828125	n/a	WORD	4569153	wordpools/wasnorm_wordpool_576.txt	LTP346	ltpFR2	13	10	SHOVEL	1295	n/a	n/a	0	0	0
2233.48974609375	n/a	WORD	4574187	wordpools/wasnorm_wordpool_576.txt	LTP346	ltpFR2	13	10	PERFUME	1049	n/a	n/a	0	0	0
2236.16455078125	n/a	WORD	4579665	wordpools/wasnorm_wordpool_576.txt	LTP346	ltpFR2	13	10	CLOUD	328	n/a	n/a	0	0	0
2238.8916015625	n/a	WORD	4585250	wordpools/wasnorm_wordpool_576.txt	LTP346	ltpFR2	13	10	SWORD	1423	n/a	n/a	0	0	0
2241.41552734375	n/a	WORD	4590419	wordpools/wasnorm_wordpool_576.txt	LTP346	ltpFR2	13	10	MOP	916	n/a	n/a	0	0	0
2243.92431640625	n/a	WORD	4595557	wordpools/wasnorm_wordpool_576.txt	LTP346	ltpFR2	13	10	ONION	977	n/a	n/a	0	0	0
2246.46435546875	n/a	WORD	4600759	wordpools/wasnorm_wordpool_576.txt	LTP346	ltpFR2	13	10	TABLET	1427	n/a	n/a	0	0	0
2249.240234375	n/a	WORD	4606444	wordpools/wasnorm_wordpool_576.txt	LTP346	ltpFR2	13	10	CORAL	378	n/a	n/a	0	0	0
2251.8662109375	n/a	WORD	4611822	wordpools/wasnorm_wordpool_576.txt	LTP346	ltpFR2	13	10	BARREL	91	n/a	n/a	0	0	0
2254.6240234375	n/a	WORD	4617470	wordpools/wasnorm_wordpool_576.txt	LTP346	ltpFR2	13	10	DUSTPAN	509	n/a	n/a	0	0	0
2257.1318359375	n/a	WORD	4622606	wordpools/wasnorm_wordpool_576.txt	LTP346	ltpFR2	13	10	PLAID	1080	n/a	n/a	0	0	0
2258.73779296875	n/a	START	4625895	n/a	LTP346	ltpFR2	13	n/a	n/a	n/a	15	n/a	n/a	n/a	n/a
2259.71923828125	n/a	DISTRACTOR	4627905	n/a	LTP346	ltpFR2	13	10	n/a	n/a	n/a	n/a	0	0	0
2259.72412109375	n/a	PROB	4627915	n/a	LTP346	ltpFR2	13	n/a	n/a	n/a	15	14	4	5	5
2260.8447265625	n/a	PROB	4630210	n/a	LTP346	ltpFR2	13	n/a	n/a	n/a	15	18	7	8	3
2262.28173828125	n/a	PROB	4633153	n/a	LTP346	ltpFR2	13	n/a	n/a	n/a	15	14	6	6	2
2263.56982421875	n/a	PROB	4635791	n/a	LTP346	ltpFR2	13	n/a	n/a	n/a	15	17	6	7	4
2266.3447265625	n/a	PROB	4641474	n/a	LTP346	ltpFR2	13	n/a	n/a	n/a	15	11	2	3	6
2267.8505859375	n/a	PROB	4644558	n/a	LTP346	ltpFR2	13	n/a	n/a	n/a	15	16	5	2	9
2269.3046875	n/a	PROB	4647536	n/a	LTP346	ltpFR2	13	n/a	n/a	n/a	15	14	2	5	7
2270.91064453125	n/a	PROB	4650825	n/a	LTP346	ltpFR2	13	n/a	n/a	n/a	15	19	6	5	8
2272.61572265625	n/a	PROB	4654317	n/a	LTP346	ltpFR2	13	n/a	n/a	n/a	15	18	3	8	7
2274.20361328125	n/a	PROB	4657569	n/a	LTP346	ltpFR2	13	n/a	n/a	n/a	15	11	9	1	1
2275.34033203125	n/a	PROB	4659897	n/a	LTP346	ltpFR2	13	n/a	n/a	n/a	15	26	9	9	8
2276.9794921875	n/a	PROB	4663254	n/a	LTP346	ltpFR2	13	n/a	n/a	n/a	15	14	4	1	9
2278.50048828125	n/a	PROB	4666369	n/a	LTP346	ltpFR2	13	n/a	n/a	n/a	15	15	7	2	6
2280.189453125	n/a	PROB	4669828	n/a	LTP346	ltpFR2	13	n/a	n/a	n/a	15	18	1	8	9
2281.525390625	n/a	STOP	4672564	n/a	LTP346	ltpFR2	13	n/a	n/a	n/a	15	n/a	n/a	n/a	n/a
2284.4873046875	n/a	REC_START	4678630	n/a	LTP346	ltpFR2	13	10	n/a	n/a	n/a	n/a	0	0	0
2285.953125	n/a	REC_WORD	4681632	wordpools/wasnorm_wordpool_576.txt	LTP346	ltpFR2	13	10	PLAID	1080	n/a	n/a	0	0	0
2286.48828125	n/a	REC_WORD	4682728	wordpools/wasnorm_wordpool_576.txt	LTP346	ltpFR2	13	10	DUSTPAN	509	n/a	n/a	0	0	0
2290.171875	n/a	REC_WORD	4690272	wordpools/wasnorm_wordpool_576.txt	LTP346	ltpFR2	13	10	CORAL	378	n/a	n/a	0	0	0
2290.80029296875	n/a	REC_WORD	4691559	wordpools/wasnorm_wordpool_576.txt	LTP346	ltpFR2	13	10	BARREL	91	n/a	n/a	0	0	0
2292.291015625	n/a	REC_WORD	4694612	wordpools/wasnorm_wordpool_576.txt	LTP346	ltpFR2	13	10	STOVE	1388	n/a	n/a	0	0	0
2293.3388671875	n/a	REC_WORD	4696758	wordpools/wasnorm_wordpool_576.txt	LTP346	ltpFR2	13	10	SCARF	1246	n/a	n/a	0	0	0
2294.89990234375	n/a	REC_WORD	4699955	wordpools/wasnorm_wordpool_576.txt	LTP346	ltpFR2	13	10	FREEZER	604	n/a	n/a	0	0	0
2295.98486328125	n/a	REC_WORD	4702177	wordpools/wasnorm_wordpool_576.txt	LTP346	ltpFR2	13	10	KITCHEN	778	n/a	n/a	0	0	0
2300.68603515625	n/a	REC_WORD	4711805	wordpools/wasnorm_wordpool_576.txt	LTP346	ltpFR2	13	10	SWORD	1423	n/a	n/a	0	0	0
2301.3935546875	n/a	REC_WORD	4713254	wordpools/wasnorm_wordpool_576.txt	LTP346	ltpFR2	13	10	MOP	916	n/a	n/a	0	0	0
2322.1611328125	n/a	REC_WORD	4755786	wordpools/wasnorm_wordpool_576.txt	LTP346	ltpFR2	13	10	HAWK	692	n/a	n/a	0	0	0
2323.8251953125	n/a	REC_WORD	4759194	wordpools/wasnorm_wordpool_576.txt	LTP346	ltpFR2	13	10	SALAD	1224	n/a	n/a	0	0	0
2326.6337890625	n/a	REC_WORD	4764946	wordpools/wasnorm_wordpool_576.txt	LTP346	ltpFR2	13	10	ONION	977	n/a	n/a	0	0	0
2327.31591796875	n/a	REC_WORD	4766343	wordpools/wasnorm_wordpool_576.txt	LTP346	ltpFR2	13	10	TABLET	1427	n/a	n/a	0	0	0
2328.6748046875	n/a	REC_WORD	4769126	wordpools/wasnorm_wordpool_576.txt	LTP346	ltpFR2	13	10	SAUSAGE	1238	n/a	n/a	0	0	0
2336.23486328125	n/a	REC_WORD	4784609	wordpools/wasnorm_wordpool_576.txt	LTP346	ltpFR2	13	10	KNAPSACK	783	n/a	n/a	0	0	0
2337.046875	n/a	REC_WORD	4786272	wordpools/wasnorm_wordpool_576.txt	LTP346	ltpFR2	13	10	SHOVEL	1295	n/a	n/a	0	0	0
2339.90673828125	n/a	REC_WORD	4792129	wordpools/wasnorm_wordpool_576.txt	LTP346	ltpFR2	13	10	PERFUME	1049	n/a	n/a	0	0	0
2340.5556640625	n/a	REC_WORD	4793458	wordpools/wasnorm_wordpool_576.txt	LTP346	ltpFR2	13	10	CLOUD	328	n/a	n/a	0	0	0
2374.94482421875	n/a	DISTRACTOR	4863887	n/a	LTP346	ltpFR2	13	11	n/a	n/a	n/a	n/a	0	0	0
2374.94482421875	n/a	START	4863887	n/a	LTP346	ltpFR2	13	n/a	n/a	n/a	16	n/a	n/a	n/a	n/a
2374.96142578125	n/a	PROB	4863921	n/a	LTP346	ltpFR2	13	n/a	n/a	n/a	16	17	6	6	5
2376.9345703125	n/a	PROB	4867962	n/a	LTP346	ltpFR2	13	n/a	n/a	n/a	16	11	7	2	2
2378.48828125	n/a	PROB	4871144	n/a	LTP346	ltpFR2	13	n/a	n/a	n/a	16	17	7	4	6
2380.34423828125	n/a	PROB	4874945	n/a	LTP346	ltpFR2	13	n/a	n/a	n/a	16	17	9	6	2
2381.6826171875	n/a	PROB	4877686	n/a	LTP346	ltpFR2	13	n/a	n/a	n/a	16	12	6	3	3
2383.01953125	n/a	PROB	4880424	n/a	LTP346	ltpFR2	13	n/a	n/a	n/a	16	18	5	5	8
2384.15625	n/a	PROB	4882752	n/a	LTP346	ltpFR2	13	n/a	n/a	n/a	16	18	4	5	9
2385.79638671875	n/a	PROB	4886111	n/a	LTP346	ltpFR2	13	n/a	n/a	n/a	16	17	7	3	7
2387.51708984375	n/a	PROB	4889635	n/a	LTP346	ltpFR2	13	n/a	n/a	n/a	16	17	2	6	9
2389.25634765625	n/a	PROB	4893197	n/a	LTP346	ltpFR2	13	n/a	n/a	n/a	16	18	6	3	9
2391.01220703125	n/a	PROB	4896793	n/a	LTP346	ltpFR2	13	n/a	n/a	n/a	16	12	5	4	3
2392.4501953125	n/a	PROB	4899738	n/a	LTP346	ltpFR2	13	n/a	n/a	n/a	16	10	1	5	4
2393.921875	n/a	PROB	4902752	n/a	LTP346	ltpFR2	13	n/a	n/a	n/a	16	20	8	5	7
2395.44287109375	n/a	PROB	4905867	n/a	LTP346	ltpFR2	13	n/a	n/a	n/a	16	15	4	4	7
2397.55810546875	n/a	STOP	4910199	n/a	LTP346	ltpFR2	13	n/a	n/a	n/a	16	n/a	n/a	n/a	n/a
2399.875	n/a	WORD	4914944	wordpools/wasnorm_wordpool_576.txt	LTP346	ltpFR2	13	11	SWITCH	1422	n/a	n/a	0	0	0
2402.61572265625	n/a	WORD	4920557	wordpools/wasnorm_wordpool_576.txt	LTP346	ltpFR2	13	11	COIN	343	n/a	n/a	0	0	0
2405.19091796875	n/a	WORD	4925831	wordpools/wasnorm_wordpool_576.txt	LTP346	ltpFR2	13	11	WRENCH	1625	n/a	n/a	0	0	0
2407.732421875	n/a	WORD	4931036	wordpools/wasnorm_wordpool_576.txt	LTP346	ltpFR2	13	11	BODY	145	n/a	n/a	0	0	0
2410.34033203125	n/a	WORD	4936377	wordpools/wasnorm_wordpool_576.txt	LTP346	ltpFR2	13	11	PISTOL	1075	n/a	n/a	0	0	0
2413.13232421875	n/a	WORD	4942095	wordpools/wasnorm_wordpool_576.txt	LTP346	ltpFR2	13	11	GOBLIN	645	n/a	n/a	0	0	0
2415.67431640625	n/a	WORD	4947301	wordpools/wasnorm_wordpool_576.txt	LTP346	ltpFR2	13	11	ATLAS	53	n/a	n/a	0	0	0
2418.29931640625	n/a	WORD	4952677	wordpools/wasnorm_wordpool_576.txt	LTP346	ltpFR2	13	11	REBEL	1172	n/a	n/a	0	0	0
2420.775390625	n/a	WORD	4957748	wordpools/wasnorm_wordpool_576.txt	LTP346	ltpFR2	13	11	BLADE	134	n/a	n/a	0	0	0
2423.4990234375	n/a	WORD	4963326	wordpools/wasnorm_wordpool_576.txt	LTP346	ltpFR2	13	11	RAZOR	1171	n/a	n/a	0	0	0
2426.05810546875	n/a	WORD	4968567	wordpools/wasnorm_wordpool_576.txt	LTP346	ltpFR2	13	11	ROBBER	1197	n/a	n/a	0	0	0
2428.81787109375	n/a	WORD	4974219	wordpools/wasnorm_wordpool_576.txt	LTP346	ltpFR2	13	11	QUARTER	1148	n/a	n/a	0	0	0
2431.52490234375	n/a	WORD	4979763	wordpools/wasnorm_wordpool_576.txt	LTP346	ltpFR2	13	11	TILE	1468	n/a	n/a	0	0	0
2434.03369140625	n/a	WORD	4984901	wordpools/wasnorm_wordpool_576.txt	LTP346	ltpFR2	13	11	DORM	488	n/a	n/a	0	0	0
2436.82666015625	n/a	WORD	4990621	wordpools/wasnorm_wordpool_576.txt	LTP346	ltpFR2	13	11	PERCH	1048	n/a	n/a	0	0	0
2439.36669921875	n/a	WORD	4995823	wordpools/wasnorm_wordpool_576.txt	LTP346	ltpFR2	13	11	SILK	1307	n/a	n/a	0	0	0
2441.9755859375	n/a	WORD	5001166	wordpools/wasnorm_wordpool_576.txt	LTP346	ltpFR2	13	11	LACE	792	n/a	n/a	0	0	0
2444.46630859375	n/a	WORD	5006267	wordpools/wasnorm_wordpool_576.txt	LTP346	ltpFR2	13	11	SUPPER	1411	n/a	n/a	0	0	0
2446.892578125	n/a	WORD	5011236	wordpools/wasnorm_wordpool_576.txt	LTP346	ltpFR2	13	11	CEILING	265	n/a	n/a	0	0	0
2449.349609375	n/a	WORD	5016268	wordpools/wasnorm_wordpool_576.txt	LTP346	ltpFR2	13	11	COUSIN	392	n/a	n/a	0	0	0
2452.14111328125	n/a	WORD	5021985	wordpools/wasnorm_wordpool_576.txt	LTP346	ltpFR2	13	11	MONSTER	912	n/a	n/a	0	0	0
2454.69921875	n/a	WORD	5027224	wordpools/wasnorm_wordpool_576.txt	LTP346	ltpFR2	13	11	CASHIER	254	n/a	n/a	0	0	0
2457.25830078125	n/a	WORD	5032465	wordpools/wasnorm_wordpool_576.txt	LTP346	ltpFR2	13	11	HOUND	724	n/a	n/a	0	0	0
2459.951171875	n/a	WORD	5037980	wordpools/wasnorm_wordpool_576.txt	LTP346	ltpFR2	13	11	SISTER	1312	n/a	n/a	0	0	0
2461.55517578125	n/a	START	5041265	n/a	LTP346	ltpFR2	13	n/a	n/a	n/a	17	n/a	n/a	n/a	n/a
2462.4931640625	n/a	DISTRACTOR	5043186	n/a	LTP346	ltpFR2	13	11	n/a	n/a	n/a	n/a	0	0	0
2462.5078125	n/a	PROB	5043216	n/a	LTP346	ltpFR2	13	n/a	n/a	n/a	17	14	5	5	4
2464.34716796875	n/a	PROB	5046983	n/a	LTP346	ltpFR2	13	n/a	n/a	n/a	17	20	4	9	7
2467.1396484375	n/a	PROB	5052702	n/a	LTP346	ltpFR2	13	n/a	n/a	n/a	17	10	3	1	6
2468.39404296875	n/a	PROB	5055271	n/a	LTP346	ltpFR2	13	n/a	n/a	n/a	17	17	7	9	1
2469.8330078125	n/a	PROB	5058218	n/a	LTP346	ltpFR2	13	n/a	n/a	n/a	17	18	7	9	2
2471.85595703125	n/a	PROB	5062361	n/a	LTP346	ltpFR2	13	n/a	n/a	n/a	17	12	5	1	6
2474.01171875	n/a	PROB	5066776	n/a	LTP346	ltpFR2	13	n/a	n/a	n/a	17	13	5	5	3
2475.16552734375	n/a	PROB	5069139	n/a	LTP346	ltpFR2	13	n/a	n/a	n/a	17	11	3	2	6
2476.552734375	n/a	PROB	5071980	n/a	LTP346	ltpFR2	13	n/a	n/a	n/a	17	15	4	8	3
2478.45947265625	n/a	PROB	5075885	n/a	LTP346	ltpFR2	13	n/a	n/a	n/a	17	16	2	8	6
2480.04736328125	n/a	PROB	5079137	n/a	LTP346	ltpFR2	13	n/a	n/a	n/a	17	12	8	3	1
2481.38525390625	n/a	PROB	5081877	n/a	LTP346	ltpFR2	13	n/a	n/a	n/a	17	19	4	8	7
2482.70654296875	n/a	PROB	5084583	n/a	LTP346	ltpFR2	13	n/a	n/a	n/a	17	12	2	7	3
2485.55419921875	n/a	STOP	5090415	n/a	LTP346	ltpFR2	13	n/a	n/a	n/a	17	n/a	n/a	n/a	n/a
2487.35546875	n/a	REC_START	5094104	n/a	LTP346	ltpFR2	13	11	n/a	n/a	n/a	n/a	0	0	0
2487.990234375	n/a	REC_WORD	5095404	wordpools/wasnorm_wordpool_576.txt	LTP346	ltpFR2	13	11	MONSTER	912	n/a	n/a	0	0	0
2488.64208984375	n/a	REC_WORD	5096739	wordpools/wasnorm_wordpool_576.txt	LTP346	ltpFR2	13	11	CASHIER	254	n/a	n/a	0	0	0
2489.28515625	n/a	REC_WORD	5098056	wordpools/wasnorm_wordpool_576.txt	LTP346	ltpFR2	13	11	SISTER	1312	n/a	n/a	0	0	0
2490.00830078125	n/a	REC_WORD	5099537	wordpools/wasnorm_wordpool_576.txt	LTP346	ltpFR2	13	11	HOUND	724	n/a	n/a	0	0	0
2511.3173828125	n/a	REC_WORD	5143178	wordpools/wasnorm_wordpool_576.txt	LTP346	ltpFR2	13	11	COUSIN	392	n/a	n/a	0	0	0
2511.79443359375	n/a	REC_WORD	5144155	wordpools/wasnorm_wordpool_576.txt	LTP346	ltpFR2	13	11	CEILING	265	n/a	n/a	0	0	0
2515.59130859375	n/a	REC_WORD	5151931	wordpools/wasnorm_wordpool_576.txt	LTP346	ltpFR2	13	11	TILE	1468	n/a	n/a	0	0	0
2516.24658203125	n/a	REC_WORD	5153273	wordpools/wasnorm_wordpool_576.txt	LTP346	ltpFR2	13	11	DORM	488	n/a	n/a	0	0	0
2518.2265625	n/a	REC_WORD	5157328	wordpools/wasnorm_wordpool_576.txt	LTP346	ltpFR2	13	11	SILK	1307	n/a	n/a	0	0	0
2519.68310546875	n/a	REC_WORD	5160311	wordpools/wasnorm_wordpool_576.txt	LTP346	ltpFR2	13	11	PERCH	1048	n/a	n/a	0	0	0
2520.41650390625	n/a	REC_WORD	5161813	wordpools/wasnorm_wordpool_576.txt	LTP346	ltpFR2	13	11	LACE	792	n/a	n/a	0	0	0
2525.1259765625	n/a	REC_WORD	5171458	wordpools/wasnorm_wordpool_576.txt	LTP346	ltpFR2	13	11	SUPPER	1411	n/a	n/a	0	0	0
2556.38232421875	n/a	REC_WORD	5235471	wordpools/wasnorm_wordpool_576.txt	LTP346	ltpFR2	13	11	QUARTER	1148	n/a	n/a	0	0	0
2556.84521484375	n/a	REC_WORD	5236419	wordpools/wasnorm_wordpool_576.txt	LTP346	ltpFR2	13	11	COIN	343	n/a	n/a	0	0	0
2558.22216796875	n/a	REC_WORD	5239239	wordpools/wasnorm_wordpool_576.txt	LTP346	ltpFR2	13	11	GOBLIN	645	n/a	n/a	0	0	0
2558.751953125	n/a	REC_WORD	5240324	wordpools/wasnorm_wordpool_576.txt	LTP346	ltpFR2	13	11	ROBBER	1197	n/a	n/a	0	0	0
2559.669921875	n/a	REC_WORD	5242204	wordpools/wasnorm_wordpool_576.txt	LTP346	ltpFR2	13	11	RAZOR	1171	n/a	n/a	0	0	0
2560.10107421875	n/a	REC_WORD	5243087	wordpools/wasnorm_wordpool_576.txt	LTP346	ltpFR2	13	11	BLADE	134	n/a	n/a	0	0	0
2577.8125	n/a	WORD	5279360	wordpools/wasnorm_wordpool_576.txt	LTP346	ltpFR2	13	12	STONE	1385	n/a	n/a	0	0	0
2580.45361328125	n/a	WORD	5284769	wordpools/wasnorm_wordpool_576.txt	LTP346	ltpFR2	13	12	THIEF	1456	n/a	n/a	0	0	0
2583.04443359375	n/a	WORD	5290075	wordpools/wasnorm_wordpool_576.txt	LTP346	ltpFR2	13	12	DRUG	501	n/a	n/a	0	0	0
2585.619140625	n/a	WORD	5295348	wordpools/wasnorm_wordpool_576.txt	LTP346	ltpFR2	13	12	HOSTESS	723	n/a	n/a	0	0	0
2588.42919921875	n/a	WORD	5301103	wordpools/wasnorm_wordpool_576.txt	LTP346	ltpFR2	13	12	COSTUME	383	n/a	n/a	0	0	0
2590.92138671875	n/a	WORD	5306207	wordpools/wasnorm_wordpool_576.txt	LTP346	ltpFR2	13	12	CHAPEL	280	n/a	n/a	0	0	0
2593.51220703125	n/a	WORD	5311513	wordpools/wasnorm_wordpool_576.txt	LTP346	ltpFR2	13	12	IDOL	733	n/a	n/a	0	0	0
2596.0361328125	n/a	WORD	5316682	wordpools/wasnorm_wordpool_576.txt	LTP346	ltpFR2	13	12	ANKLE	24	n/a	n/a	0	0	0
2598.47802734375	n/a	WORD	5321683	wordpools/wasnorm_wordpool_576.txt	LTP346	ltpFR2	13	12	FOOT	590	n/a	n/a	0	0	0
2601.203125	n/a	WORD	5327264	wordpools/wasnorm_wordpool_576.txt	LTP346	ltpFR2	13	12	SUSPECT	1415	n/a	n/a	0	0	0
2603.7109375	n/a	WORD	5332400	wordpools/wasnorm_wordpool_576.txt	LTP346	ltpFR2	13	12	CASKET	255	n/a	n/a	0	0	0
2606.51953125	n/a	WORD	5338152	wordpools/wasnorm_wordpool_576.txt	LTP346	ltpFR2	13	12	PLASTER	1085	n/a	n/a	0	0	0
2609.2626953125	n/a	WORD	5343770	wordpools/wasnorm_wordpool_576.txt	LTP346	ltpFR2	13	12	LAVA	804	n/a	n/a	0	0	0
2611.8046875	n/a	WORD	5348976	wordpools/wasnorm_wordpool_576.txt	LTP346	ltpFR2	13	12	VICTIM	1562	n/a	n/a	0	0	0
2614.41259765625	n/a	WORD	5354317	wordpools/wasnorm_wordpool_576.txt	LTP346	ltpFR2	13	12	WINDOW	1611	n/a	n/a	0	0	0
2616.9375	n/a	WORD	5359488	wordpools/wasnorm_wordpool_576.txt	LTP346	ltpFR2	13	12	TEMPLE	1448	n/a	n/a	0	0	0
2619.66259765625	n/a	WORD	5365069	wordpools/wasnorm_wordpool_576.txt	LTP346	ltpFR2	13	12	GARBAGE	622	n/a	n/a	0	0	0
2622.2373046875	n/a	WORD	5370342	wordpools/wasnorm_wordpool_576.txt	LTP346	ltpFR2	13	12	FILM	565	n/a	n/a	0	0	0
2624.9130859375	n/a	WORD	5375822	wordpools/wasnorm_wordpool_576.txt	LTP346	ltpFR2	13	12	FRUIT	610	n/a	n/a	0	0	0
2627.50390625	n/a	WORD	5381128	wordpools/wasnorm_wordpool_576.txt	LTP346	ltpFR2	13	12	APRON	35	n/a	n/a	0	0	0
2629.9130859375	n/a	WORD	5386062	wordpools/wasnorm_wordpool_576.txt	LTP346	ltpFR2	13	12	CRITIC	410	n/a	n/a	0	0	0
2632.537109375	n/a	WORD	5391436	wordpools/wasnorm_wordpool_576.txt	LTP346	ltpFR2	13	12	SHORTS	1293	n/a	n/a	0	0	0
2635.11181640625	n/a	WORD	5396709	wordpools/wasnorm_wordpool_576.txt	LTP346	ltpFR2	13	12	OUTLAW	989	n/a	n/a	0	0	0
2637.90478515625	n/a	WORD	5402429	wordpools/wasnorm_wordpool_576.txt	LTP346	ltpFR2	13	12	BEAVER	109	n/a	n/a	0	0	0
2639.509765625	n/a	START	5405716	n/a	LTP346	ltpFR2	13	n/a	n/a	n/a	18	n/a	n/a	n/a	n/a
2640.69873046875	n/a	DISTRACTOR	5408151	n/a	LTP346	ltpFR2	13	12	n/a	n/a	n/a	n/a	0	0	0
2640.712890625	n/a	PROB	5408180	n/a	LTP346	ltpFR2	13	n/a	n/a	n/a	18	9	5	1	3
2642.267578125	n/a	PROB	5411364	n/a	LTP346	ltpFR2	13	n/a	n/a	n/a	18	13	3	4	6
2643.505859375	n/a	PROB	5413900	n/a	LTP346	ltpFR2	13	n/a	n/a	n/a	18	10	4	3	3
2646.1806640625	n/a	PROB	5419378	n/a	LTP346	ltpFR2	13	n/a	n/a	n/a	18	18	9	3	6
2647.83642578125	n/a	PROB	5422769	n/a	LTP346	ltpFR2	13	n/a	n/a	n/a	18	20	6	9	5
2650.46142578125	n/a	PROB	5428145	n/a	LTP346	ltpFR2	13	n/a	n/a	n/a	18	13	6	3	4
2651.83349609375	n/a	PROB	5430955	n/a	LTP346	ltpFR2	13	n/a	n/a	n/a	18	15	6	2	7
2653.25341796875	n/a	PROB	5433863	n/a	LTP346	ltpFR2	13	n/a	n/a	n/a	18	187	9	6	3
2656.46337890625	n/a	PROB	5440437	n/a	LTP346	ltpFR2	13	n/a	n/a	n/a	18	19	9	7	3
2658.7041015625	n/a	PROB	5445026	n/a	LTP346	ltpFR2	13	n/a	n/a	n/a	18	19	5	5	9
2659.9423828125	n/a	PROB	5447562	n/a	LTP346	ltpFR2	13	n/a	n/a	n/a	18	12	2	2	8
2661.68017578125	n/a	PROB	5451121	n/a	LTP346	ltpFR2	13	n/a	n/a	n/a	18	13	1	8	4
2663.197265625	n/a	STOP	5454228	n/a	LTP346	ltpFR2	13	n/a	n/a	n/a	18	n/a	n/a	n/a	n/a
2665.44287109375	n/a	REC_START	5458827	n/a	LTP346	ltpFR2	13	12	n/a	n/a	n/a	n/a	0	0	0
2665.97021484375	n/a	REC_WORD	5459907	wordpools/wasnorm_wordpool_576.txt	LTP346	ltpFR2	13	12	CRITIC	410	n/a	n/a	0	0	0
2666.64599609375	n/a	REC_WORD	5461291	wordpools/wasnorm_wordpool_576.txt	LTP346	ltpFR2	13	12	OUTLAW	989	n/a	n/a	0	0	0
2667.162109375	n/a	REC_WORD	5462348	wordpools/wasnorm_wordpool_576.txt	LTP346	ltpFR2	13	12	SHORTS	1293	n/a	n/a	0	0	0
2667.9677734375	n/a	REC_WORD	5463998	wordpools/wasnorm_wordpool_576.txt	LTP346	ltpFR2	13	12	BEAVER	109	n/a	n/a	0	0	0
2669.07470703125	n/a	REC_WORD	5466265	wordpools/wasnorm_wordpool_576.txt	LTP346	ltpFR2	13	12	PLASTER	1085	n/a	n/a	0	0	0
2669.7529296875	n/a	REC_WORD	5467654	wordpools/wasnorm_wordpool_576.txt	LTP346	ltpFR2	13	12	LAVA	804	n/a	n/a	0	0	0
2670.50390625	n/a	REC_WORD	5469192	wordpools/wasnorm_wordpool_576.txt	LTP346	ltpFR2	13	12	VICTIM	1562	n/a	n/a	0	0	0
2671.81591796875	n/a	REC_WORD	5471879	wordpools/wasnorm_wordpool_576.txt	LTP346	ltpFR2	13	12	TEMPLE	1448	n/a	n/a	0	0	0
2672.392578125	n/a	REC_WORD	5473060	wordpools/wasnorm_wordpool_576.txt	LTP346	ltpFR2	13	12	WINDOW	1611	n/a	n/a	0	0	0
2674.2587890625	n/a	REC_WORD	5476882	wordpools/wasnorm_wordpool_576.txt	LTP346	ltpFR2	13	12	FRUIT	610	n/a	n/a	0	0	0
2674.9345703125	n/a	REC_WORD	5478266	wordpools/wasnorm_wordpool_576.txt	LTP346	ltpFR2	13	12	APRON	35	n/a	n/a	0	0	0
2681.07275390625	n/a	REC_WORD	5490837	wordpools/wasnorm_wordpool_576.txt	LTP346	ltpFR2	13	12	STONE	1385	n/a	n/a	0	0	0
2681.8427734375	n/a	REC_WORD	5492414	wordpools/wasnorm_wordpool_576.txt	LTP346	ltpFR2	13	12	DRUG	501	n/a	n/a	0	0	0
2682.271484375	n/a	REC_WORD	5493292	wordpools/wasnorm_wordpool_576.txt	LTP346	ltpFR2	13	12	THIEF	1456	n/a	n/a	0	0	0
2719.5234375	n/a	REC_WORD	5569584	wordpools/wasnorm_wordpool_576.txt	LTP346	ltpFR2	13	12	COSTUME	383	n/a	n/a	0	0	0
2720.17431640625	n/a	REC_WORD	5570917	wordpools/wasnorm_wordpool_576.txt	LTP346	ltpFR2	13	12	HOSTESS	723	n/a	n/a	0	0	0
2722.072265625	n/a	REC_WORD	5574804	wordpools/wasnorm_wordpool_576.txt	LTP346	ltpFR2	13	12	CHAPEL	280	n/a	n/a	0	0	0
2735.0830078125	n/a	REC_WORD	5601450	wordpools/wasnorm_wordpool_576.txt	LTP346	ltpFR2	13	12	GARBAGE	622	n/a	n/a	0	0	0
2735.61376953125	n/a	REC_WORD	5602537	wordpools/wasnorm_wordpool_576.txt	LTP346	ltpFR2	13	12	FILM	565	n/a	n/a	0	0	0
2755.88330078125	n/a	DISTRACTOR	5644049	n/a	LTP346	ltpFR2	13	13	n/a	n/a	n/a	n/a	0	0	0
2755.88427734375	n/a	START	5644051	n/a	LTP346	ltpFR2	13	n/a	n/a	n/a	19	n/a	n/a	n/a	n/a
2755.900390625	n/a	PROB	5644084	n/a	LTP346	ltpFR2	13	n/a	n/a	n/a	19	24	7	8	9
2757.42138671875	n/a	PROB	5647199	n/a	LTP346	ltpFR2	13	n/a	n/a	n/a	19	15	4	8	3
2758.658203125	n/a	PROB	5649732	n/a	LTP346	ltpFR2	13	n/a	n/a	n/a	19	11	4	2	5
2759.84619140625	n/a	PROB	5652165	n/a	LTP346	ltpFR2	13	n/a	n/a	n/a	19	15	3	8	4
2761.88623046875	n/a	PROB	5656343	n/a	LTP346	ltpFR2	13	n/a	n/a	n/a	19	12	6	5	1
2763.9091796875	n/a	PROB	5660486	n/a	LTP346	ltpFR2	13	n/a	n/a	n/a	19	12	3	1	8
2765.01220703125	n/a	PROB	5662745	n/a	LTP346	ltpFR2	13	n/a	n/a	n/a	19	14	3	3	8
2766.26611328125	n/a	PROB	5665313	n/a	LTP346	ltpFR2	13	n/a	n/a	n/a	19	7	3	1	3
2767.98779296875	n/a	PROB	5668839	n/a	LTP346	ltpFR2	13	n/a	n/a	n/a	19	19	5	6	8
2770.6298828125	n/a	PROB	5674250	n/a	LTP346	ltpFR2	13	n/a	n/a	n/a	19	11	1	3	7
2771.64990234375	n/a	PROB	5676339	n/a	LTP346	ltpFR2	13	n/a	n/a	n/a	19	15	9	4	2
2772.8720703125	n/a	PROB	5678842	n/a	LTP346	ltpFR2	13	n/a	n/a	n/a	19	14	4	7	3
2774.3759765625	n/a	PROB	5681922	n/a	LTP346	ltpFR2	13	n/a	n/a	n/a	19	17	9	5	3
2776.6328125	n/a	PROB	5686544	n/a	LTP346	ltpFR2	13	n/a	n/a	n/a	19	22	8	6	9
2778.0537109375	n/a	PROB	5689454	n/a	LTP346	ltpFR2	13	n/a	n/a	n/a	19	15	7	3	5
2779.5966796875	n/a	STOP	5692614	n/a	LTP346	ltpFR2	13	n/a	n/a	n/a	19	n/a	n/a	n/a	n/a
2781.03076171875	n/a	WORD	5695551	wordpools/wasnorm_wordpool_576.txt	LTP346	ltpFR2	13	13	PILOT	1070	n/a	n/a	0	0	0
2783.65576171875	n/a	WORD	5700927	wordpools/wasnorm_wordpool_576.txt	LTP346	ltpFR2	13	13	CELLAR	267	n/a	n/a	0	0	0
2786.21337890625	n/a	WORD	5706165	wordpools/wasnorm_wordpool_576.txt	LTP346	ltpFR2	13	13	BASEMENT	94	n/a	n/a	0	0	0
2788.87353515625	n/a	WORD	5711613	wordpools/wasnorm_wordpool_576.txt	LTP346	ltpFR2	13	13	CLOCK	325	n/a	n/a	0	0	0
2791.6142578125	n/a	WORD	5717226	wordpools/wasnorm_wordpool_576.txt	LTP346	ltpFR2	13	13	DINER	467	n/a	n/a	0	0	0
2794.2060546875	n/a	WORD	5722534	wordpools/wasnorm_wordpool_576.txt	LTP346	ltpFR2	13	13	CAFE	216	n/a	n/a	0	0	0
2796.79833984375	n/a	WORD	5727843	wordpools/wasnorm_wordpool_576.txt	LTP346	ltpFR2	13	13	BATHTUB	100	n/a	n/a	0	0	0
2799.35595703125	n/a	WORD	5733081	wordpools/wasnorm_wordpool_576.txt	LTP346	ltpFR2	13	13	YARN	1631	n/a	n/a	0	0	0
2802.115234375	n/a	WORD	5738732	wordpools/wasnorm_wordpool_576.txt	LTP346	ltpFR2	13	13	PLUTO	1092	n/a	n/a	0	0	0
2804.55615234375	n/a	WORD	5743731	wordpools/wasnorm_wordpool_576.txt	LTP346	ltpFR2	13	13	PAIL	1002	n/a	n/a	0	0	0
2807.11376953125	n/a	WORD	5748969	wordpools/wasnorm_wordpool_576.txt	LTP346	ltpFR2	13	13	KETCHUP	771	n/a	n/a	0	0	0
2809.8408203125	n/a	WORD	5754554	wordpools/wasnorm_wordpool_576.txt	LTP346	ltpFR2	13	13	SPACE	1345	n/a	n/a	0	0	0
2812.49755859375	n/a	WORD	5759995	wordpools/wasnorm_wordpool_576.txt	LTP346	ltpFR2	13	13	CONCERT	360	n/a	n/a	0	0	0
2815.2734375	n/a	WORD	5765680	wordpools/wasnorm_wordpool_576.txt	LTP346	ltpFR2	13	13	THREAD	1460	n/a	n/a	0	0	0
2818.015625	n/a	WORD	5771296	wordpools/wasnorm_wordpool_576.txt	LTP346	ltpFR2	13	13	MARINE	869	n/a	n/a	0	0	0
2820.59033203125	n/a	WORD	5776569	wordpools/wasnorm_wordpool_576.txt	LTP346	ltpFR2	13	13	BANKER	84	n/a	n/a	0	0	0
2823.21533203125	n/a	WORD	5781945	wordpools/wasnorm_wordpool_576.txt	LTP346	ltpFR2	13	13	PRINCE	1124	n/a	n/a	0	0	0
2825.65625	n/a	WORD	5786944	wordpools/wasnorm_wordpool_576.txt	LTP346	ltpFR2	13	13	SNAKE	1333	n/a	n/a	0	0	0
2828.43212890625	n/a	WORD	5792629	wordpools/wasnorm_wordpool_576.txt	LTP346	ltpFR2	13	13	WHISTLE	1606	n/a	n/a	0	0	0
2830.94091796875	n/a	WORD	5797767	wordpools/wasnorm_wordpool_576.txt	LTP346	ltpFR2	13	13	HIKER	708	n/a	n/a	0	0	0
2833.6318359375	n/a	WORD	5803278	wordpools/wasnorm_wordpool_576.txt	LTP346	ltpFR2	13	13	RIVER	1194	n/a	n/a	0	0	0
2836.1572265625	n/a	WORD	5808450	wordpools/wasnorm_wordpool_576.txt	LTP346	ltpFR2	13	13	LASER	801	n/a	n/a	0	0	0
2838.9169921875	n/a	WORD	5814102	wordpools/wasnorm_wordpool_576.txt	LTP346	ltpFR2	13	13	PALACE	1006	n/a	n/a	0	0	0
2841.65771484375	n/a	WORD	5819715	wordpools/wasnorm_wordpool_576.txt	LTP346	ltpFR2	13	13	VIKING	1565	n/a	n/a	0	0	0
2843.263671875	n/a	START	5823004	n/a	LTP346	ltpFR2	13	n/a	n/a	n/a	20	n/a	n/a	n/a	n/a
2844.126953125	n/a	DISTRACTOR	5824772	n/a	LTP346	ltpFR2	13	13	n/a	n/a	n/a	n/a	0	0	0
2844.1328125	n/a	PROB	5824784	n/a	LTP346	ltpFR2	13	n/a	n/a	n/a	20	14	3	2	9
2845.603515625	n/a	PROB	5827796	n/a	LTP346	ltpFR2	13	n/a	n/a	n/a	20	7	1	1	5
2846.79248046875	n/a	PROB	5830231	n/a	LTP346	ltpFR2	13	n/a	n/a	n/a	20	10	3	5	2
2848.02880859375	n/a	PROB	5832763	n/a	LTP346	ltpFR2	13	n/a	n/a	n/a	20	17	7	1	9
2849.56640625	n/a	PROB	5835912	n/a	LTP346	ltpFR2	13	n/a	n/a	n/a	20	11	3	7	1
2851.03857421875	n/a	PROB	5838927	n/a	LTP346	ltpFR2	13	n/a	n/a	n/a	20	16	2	9	5
2852.5263671875	n/a	PROB	5841974	n/a	LTP346	ltpFR2	13	n/a	n/a	n/a	20	7	2	4	1
2853.814453125	n/a	PROB	5844612	n/a	LTP346	ltpFR2	13	n/a	n/a	n/a	20	17	8	2	7
2855.03466796875	n/a	PROB	5847111	n/a	LTP346	ltpFR2	13	n/a	n/a	n/a	20	20	8	4	8
2856.50537109375	n/a	PROB	5850123	n/a	LTP346	ltpFR2	13	n/a	n/a	n/a	20	11	2	6	3
2857.8271484375	n/a	PROB	5852830	n/a	LTP346	ltpFR2	13	n/a	n/a	n/a	20	11	5	2	4
2859.1142578125	n/a	PROB	5855466	n/a	LTP346	ltpFR2	13	n/a	n/a	n/a	20	12	6	3	3
2860.38427734375	n/a	PROB	5858067	n/a	LTP346	ltpFR2	13	n/a	n/a	n/a	20	21	5	9	7
2862.47509765625	n/a	PROB	5862349	n/a	LTP346	ltpFR2	13	n/a	n/a	n/a	20	21	9	4	8
2864.22998046875	n/a	PROB	5865943	n/a	LTP346	ltpFR2	13	n/a	n/a	n/a	20	10	4	1	5
2865.333984375	n/a	PROB	5868204	n/a	LTP346	ltpFR2	13	n/a	n/a	n/a	20	23	8	8	7
2866.869140625	n/a	STOP	5871348	n/a	LTP346	ltpFR2	13	n/a	n/a	n/a	20	n/a	n/a	n/a	n/a
2869.1640625	n/a	REC_START	5876048	n/a	LTP346	ltpFR2	13	13	n/a	n/a	n/a	n/a	0	0	0
2869.3408203125	n/a	REC_WORD	5876410	wordpools/wasnorm_wordpool_576.txt	LTP346	ltpFR2	13	13	LASER	801	n/a	n/a	0	0	0
2869.97900390625	n/a	REC_WORD	5877717	wordpools/wasnorm_wordpool_576.txt	LTP346	ltpFR2	13	13	PALACE	1006	n/a	n/a	0	0	0
2874.86865234375	n/a	REC_WORD	5887731	wordpools/wasnorm_wordpool_576.txt	LTP346	ltpFR2	13	13	PRINCE	1124	n/a	n/a	0	0	0
2876.1376953125	n/a	REC_WORD	5890330	wordpools/wasnorm_wordpool_576.txt	LTP346	ltpFR2	13	13	BANKER	84	n/a	n/a	0	0	0
2882.67041015625	n/a	REC_WORD	5903709	wordpools/wasnorm_wordpool_576.txt	LTP346	ltpFR2	13	13	SNAKE	1333	n/a	n/a	0	0	0
2883.25146484375	n/a	REC_WORD	5904899	wordpools/wasnorm_wordpool_576.txt	LTP346	ltpFR2	13	13	HIKER	708	n/a	n/a	0	0	0
2883.8115234375	n/a	REC_WORD	5906046	wordpools/wasnorm_wordpool_576.txt	LTP346	ltpFR2	13	13	WHISTLE	1606	n/a	n/a	0	0	0
2884.2705078125	n/a	REC_WORD	5906986	wordpools/wasnorm_wordpool_576.txt	LTP346	ltpFR2	13	13	RIVER	1194	n/a	n/a	0	0	0
2901.43896484375	n/a	REC_WORD	5942147	wordpools/wasnorm_wordpool_576.txt	LTP346	ltpFR2	13	13	THREAD	1460	n/a	n/a	0	0	0
2903.0029296875	n/a	REC_WORD	5945350	wordpools/wasnorm_wordpool_576.txt	LTP346	ltpFR2	13	13	YARN	1631	n/a	n/a	0	0	0
2904.1162109375	n/a	REC_WORD	5947630	wordpools/wasnorm_wordpool_576.txt	LTP346	ltpFR2	13	13	PLUTO	1092	n/a	n/a	0	0	0
2905.15478515625	n/a	REC_WORD	5949757	wordpools/wasnorm_wordpool_576.txt	LTP346	ltpFR2	13	13	SPACE	1345	n/a	n/a	0	0	0
2906.27978515625	n/a	REC_WORD	5952061	wordpools/wasnorm_wordpool_576.txt	LTP346	ltpFR2	13	13	PAIL	1002	n/a	n/a	0	0	0
2907.36083984375	n/a	REC_WORD	5954275	wordpools/wasnorm_wordpool_576.txt	LTP346	ltpFR2	13	13	KETCHUP	771	n/a	n/a	0	0	0
2929.40234375	n/a	REC_WORD	5999416	wordpools/wasnorm_wordpool_576.txt	LTP346	ltpFR2	13	13	CELLAR	267	n/a	n/a	0	0	0
2930.037109375	n/a	REC_WORD	6000716	wordpools/wasnorm_wordpool_576.txt	LTP346	ltpFR2	13	13	BASEMENT	94	n/a	n/a	0	0	0
2930.5322265625	n/a	REC_WORD	6001730	wordpools/wasnorm_wordpool_576.txt	LTP346	ltpFR2	13	13	PILOT	1070	n/a	n/a	0	0	0
2931.05908203125	n/a	REC_WORD	6002809	wordpools/wasnorm_wordpool_576.txt	LTP346	ltpFR2	13	13	CLOCK	325	n/a	n/a	0	0	0
2931.8642578125	n/a	REC_WORD	6004458	wordpools/wasnorm_wordpool_576.txt	LTP346	ltpFR2	13	13	DINER	467	n/a	n/a	0	0	0
2933.029296875	n/a	REC_WORD	6006844	wordpools/wasnorm_wordpool_576.txt	LTP346	ltpFR2	13	13	CAFE	216	n/a	n/a	0	0	0
2959.6201171875	n/a	WORD	6061302	wordpools/wasnorm_wordpool_576.txt	LTP346	ltpFR2	13	14	ZIPPER	1636	n/a	n/a	0	0	0
2962.412109375	n/a	WORD	6067020	wordpools/wasnorm_wordpool_576.txt	LTP346	ltpFR2	13	14	BINDER	127	n/a	n/a	0	0	0
2965.2041015625	n/a	WORD	6072738	wordpools/wasnorm_wordpool_576.txt	LTP346	ltpFR2	13	14	GLOVE	642	n/a	n/a	0	0	0
2967.7470703125	n/a	WORD	6077946	wordpools/wasnorm_wordpool_576.txt	LTP346	ltpFR2	13	14	PATROL	1027	n/a	n/a	0	0	0
2970.455078125	n/a	WORD	6083492	wordpools/wasnorm_wordpool_576.txt	LTP346	ltpFR2	13	14	SNAIL	1332	n/a	n/a	0	0	0
2973.0458984375	n/a	WORD	6088798	wordpools/wasnorm_wordpool_576.txt	LTP346	ltpFR2	13	14	LION	827	n/a	n/a	0	0	0
2975.6376953125	n/a	WORD	6094106	wordpools/wasnorm_wordpool_576.txt	LTP346	ltpFR2	13	14	SUBWAY	1400	n/a	n/a	0	0	0
2978.3466796875	n/a	WORD	6099654	wordpools/wasnorm_wordpool_576.txt	LTP346	ltpFR2	13	14	LABEL	790	n/a	n/a	0	0	0
2981.10546875	n/a	WORD	6105304	wordpools/wasnorm_wordpool_576.txt	LTP346	ltpFR2	13	14	POCKET	1093	n/a	n/a	0	0	0
2983.69775390625	n/a	WORD	6110613	wordpools/wasnorm_wordpool_576.txt	LTP346	ltpFR2	13	14	PARSLEY	1016	n/a	n/a	0	0	0
2986.35546875	n/a	WORD	6116056	wordpools/wasnorm_wordpool_576.txt	LTP346	ltpFR2	13	14	SERVER	1272	n/a	n/a	0	0	0
2989.16455078125	n/a	WORD	6121809	wordpools/wasnorm_wordpool_576.txt	LTP346	ltpFR2	13	14	PLATE	1086	n/a	n/a	0	0	0
2991.8076171875	n/a	WORD	6127222	wordpools/wasnorm_wordpool_576.txt	LTP346	ltpFR2	13	14	CUSTARD	429	n/a	n/a	0	0	0
2994.314453125	n/a	WORD	6132356	wordpools/wasnorm_wordpool_576.txt	LTP346	ltpFR2	13	14	SPOOL	1356	n/a	n/a	0	0	0
2996.740234375	n/a	WORD	6137324	wordpools/wasnorm_wordpool_576.txt	LTP346	ltpFR2	13	14	OFFICE	972	n/a	n/a	0	0	0
2999.2802734375	n/a	WORD	6142526	wordpools/wasnorm_wordpool_576.txt	LTP346	ltpFR2	13	14	PASTA	1021	n/a	n/a	0	0	0
3001.84033203125	n/a	WORD	6147769	wordpools/wasnorm_wordpool_576.txt	LTP346	ltpFR2	13	14	NURSE	963	n/a	n/a	0	0	0
3004.3798828125	n/a	WORD	6152970	wordpools/wasnorm_wordpool_576.txt	LTP346	ltpFR2	13	14	SCALPEL	1243	n/a	n/a	0	0	0
3007.07177734375	n/a	WORD	6158483	wordpools/wasnorm_wordpool_576.txt	LTP346	ltpFR2	13	14	FLASHLIGHT	575	n/a	n/a	0	0	0
3009.798828125	n/a	WORD	6164068	wordpools/wasnorm_wordpool_576.txt	LTP346	ltpFR2	13	14	MATCH	878	n/a	n/a	0	0	0
3012.43896484375	n/a	WORD	6169475	wordpools/wasnorm_wordpool_576.txt	LTP346	ltpFR2	13	14	JELLO	754	n/a	n/a	0	0	0
3015.16455078125	n/a	WORD	6175057	wordpools/wasnorm_wordpool_576.txt	LTP346	ltpFR2	13	14	DRESSER	496	n/a	n/a	0	0	0
3017.8076171875	n/a	WORD	6180470	wordpools/wasnorm_wordpool_576.txt	LTP346	ltpFR2	13	14	GROUND	666	n/a	n/a	0	0	0
3020.49853515625	n/a	WORD	6185981	wordpools/wasnorm_wordpool_576.txt	LTP346	ltpFR2	13	14	OUTFIT	988	n/a	n/a	0	0	0
3022.103515625	n/a	START	6189268	n/a	LTP346	ltpFR2	13	n/a	n/a	n/a	21	n/a	n/a	n/a	n/a
3023.1884765625	n/a	DISTRACTOR	6191490	n/a	LTP346	ltpFR2	13	14	n/a	n/a	n/a	n/a	0	0	0
3023.1904296875	n/a	PROB	6191494	n/a	LTP346	ltpFR2	13	n/a	n/a	n/a	21	20	7	6	7
3024.66162109375	n/a	PROB	6194507	n/a	LTP346	ltpFR2	13	n/a	n/a	n/a	21	13	7	3	3
3027.78955078125	n/a	PROB	6200913	n/a	LTP346	ltpFR2	13	n/a	n/a	n/a	21	14	1	6	7
3029.12646484375	n/a	PROB	6203651	n/a	LTP346	ltpFR2	13	n/a	n/a	n/a	21	20	8	9	3
3030.93310546875	n/a	PROB	6207351	n/a	LTP346	ltpFR2	13	n/a	n/a	n/a	21	14	9	4	1
3032.47021484375	n/a	PROB	6210499	n/a	LTP346	ltpFR2	13	n/a	n/a	n/a	21	14	1	7	4
3034.51025390625	n/a	PROB	6214677	n/a	LTP346	ltpFR2	13	n/a	n/a	n/a	21	22	9	7	6
3036.31591796875	n/a	PROB	6218375	n/a	LTP346	ltpFR2	13	n/a	n/a	n/a	21	13	4	4	5
3038.38916015625	n/a	PROB	6222621	n/a	LTP346	ltpFR2	13	n/a	n/a	n/a	21	11	2	5	4
3040.94775390625	n/a	PROB	6227861	n/a	LTP346	ltpFR2	13	n/a	n/a	n/a	21	8	2	5	1
3043.3046875	n/a	PROB	6232688	n/a	LTP346	ltpFR2	13	n/a	n/a	n/a	21	19	7	4	8
3045.251953125	n/a	STOP	6236676	n/a	LTP346	ltpFR2	13	n/a	n/a	n/a	21	n/a	n/a	n/a	n/a
3047.98779296875	n/a	REC_START	6242279	n/a	LTP346	ltpFR2	13	14	n/a	n/a	n/a	n/a	0	0	0
3050.29345703125	n/a	REC_WORD	6247001	wordpools/wasnorm_wordpool_576.txt	LTP346	ltpFR2	13	14	NURSE	963	n/a	n/a	0	0	0
3050.78466796875	n/a	REC_WORD	6248007	wordpools/wasnorm_wordpool_576.txt	LTP346	ltpFR2	13	14	SCALPEL	1243	n/a	n/a	0	0	0
3051.3896484375	n/a	REC_WORD	6249246	wordpools/wasnorm_wordpool_576.txt	LTP346	ltpFR2	13	14	FLASHLIGHT	575	n/a	n/a	0	0	0
3052.3115234375	n/a	REC_WORD	6251134	wordpools/wasnorm_wordpool_576.txt	LTP346	ltpFR2	13	14	MATCH	878	n/a	n/a	0	0	0
3057.3916015625	n/a	REC_WORD	6261538	wordpools/wasnorm_wordpool_576.txt	LTP346	ltpFR2	13	14	LABEL	790	n/a	n/a	0	0	0
3057.9833984375	n/a	REC_WORD	6262750	wordpools/wasnorm_wordpool_576.txt	LTP346	ltpFR2	13	14	POCKET	1093	n/a	n/a	0	0	0
3058.5615234375	n/a	REC_WORD	6263934	wordpools/wasnorm_wordpool_576.txt	LTP346	ltpFR2	13	14	SUBWAY	1400	n/a	n/a	0	0	0
3061.88525390625	n/a	REC_WORD	6270741	wordpools/wasnorm_wordpool_576.txt	LTP346	ltpFR2	13	14	PARSLEY	1016	n/a	n/a	0	0	0
3063.8232421875	n/a	REC_WORD	6274710	wordpools/wasnorm_wordpool_576.txt	LTP346	ltpFR2	13	14	PLATE	1086	n/a	n/a	0	0	0
3064.51123046875	n/a	REC_WORD	6276119	wordpools/wasnorm_wordpool_576.txt	LTP346	ltpFR2	13	14	SERVER	1272	n/a	n/a	0	0	0
3065.85400390625	n/a	REC_WORD	6278869	wordpools/wasnorm_wordpool_576.txt	LTP346	ltpFR2	13	14	CUSTARD	429	n/a	n/a	0	0	0
3074.19091796875	n/a	REC_WORD	6295943	wordpools/wasnorm_wordpool_576.txt	LTP346	ltpFR2	13	14	LION	827	n/a	n/a	0	0	0
3074.73486328125	n/a	REC_WORD	6297057	wordpools/wasnorm_wordpool_576.txt	LTP346	ltpFR2	13	14	SNAIL	1332	n/a	n/a	0	0	0
3083.98291015625	n/a	REC_WORD	6315997	wordpools/wasnorm_wordpool_576.txt	LTP346	ltpFR2	13	14	BINDER	127	n/a	n/a	0	0	0
3084.82080078125	n/a	REC_WORD	6317713	wordpools/wasnorm_wordpool_576.txt	LTP346	ltpFR2	13	14	GLOVE	642	n/a	n/a	0	0	0
3087.12255859375	n/a	REC_WORD	6322427	wordpools/wasnorm_wordpool_576.txt	LTP346	ltpFR2	13	14	ZIPPER	1636	n/a	n/a	0	0	0
3138.44287109375	n/a	WORD	6427531	wordpools/wasnorm_wordpool_576.txt	LTP346	ltpFR2	13	15	HAND	683	n/a	n/a	0	0	0
3141.119140625	n/a	WORD	6433012	wordpools/wasnorm_wordpool_576.txt	LTP346	ltpFR2	13	15	INFANT	737	n/a	n/a	0	0	0
3143.7099609375	n/a	WORD	6438318	wordpools/wasnorm_wordpool_576.txt	LTP346	ltpFR2	13	15	RATTLE	1170	n/a	n/a	0	0	0
3146.18505859375	n/a	WORD	6443387	wordpools/wasnorm_wordpool_576.txt	LTP346	ltpFR2	13	15	DRAGON	492	n/a	n/a	0	0	0
3148.7265625	n/a	WORD	6448592	wordpools/wasnorm_wordpool_576.txt	LTP346	ltpFR2	13	15	STAPLE	1371	n/a	n/a	0	0	0
3151.3515625	n/a	WORD	6453968	wordpools/wasnorm_wordpool_576.txt	LTP346	ltpFR2	13	15	PAPER	1011	n/a	n/a	0	0	0
3153.86083984375	n/a	WORD	6459107	wordpools/wasnorm_wordpool_576.txt	LTP346	ltpFR2	13	15	FIREPLACE	570	n/a	n/a	0	0	0
3156.50146484375	n/a	WORD	6464515	wordpools/wasnorm_wordpool_576.txt	LTP346	ltpFR2	13	15	NAPKIN	937	n/a	n/a	0	0	0
3158.95947265625	n/a	WORD	6469549	wordpools/wasnorm_wordpool_576.txt	LTP346	ltpFR2	13	15	ANTLER	29	n/a	n/a	0	0	0
3161.6513671875	n/a	WORD	6475062	wordpools/wasnorm_wordpool_576.txt	LTP346	ltpFR2	13	15	MOTOR	922	n/a	n/a	0	0	0
3164.326171875	n/a	WORD	6480540	wordpools/wasnorm_wordpool_576.txt	LTP346	ltpFR2	13	15	BANJO	82	n/a	n/a	0	0	0
3166.91943359375	n/a	WORD	6485851	wordpools/wasnorm_wordpool_576.txt	LTP346	ltpFR2	13	15	MONEY	908	n/a	n/a	0	0	0
3169.47607421875	n/a	WORD	6491087	wordpools/wasnorm_wordpool_576.txt	LTP346	ltpFR2	13	15	SPONGE	1355	n/a	n/a	0	0	0
3171.951171875	n/a	WORD	6496156	wordpools/wasnorm_wordpool_576.txt	LTP346	ltpFR2	13	15	DUST	508	n/a	n/a	0	0	0
3174.54296875	n/a	WORD	6501464	wordpools/wasnorm_wordpool_576.txt	LTP346	ltpFR2	13	15	SHOULDER	1294	n/a	n/a	0	0	0
3177.16796875	n/a	WORD	6506840	wordpools/wasnorm_wordpool_576.txt	LTP346	ltpFR2	13	15	FIREMAN	569	n/a	n/a	0	0	0
3179.84375	n/a	WORD	6512320	wordpools/wasnorm_wordpool_576.txt	LTP346	ltpFR2	13	15	CASHEW	253	n/a	n/a	0	0	0
3182.4345703125	n/a	WORD	6517626	wordpools/wasnorm_wordpool_576.txt	LTP346	ltpFR2	13	15	NEUTRON	947	n/a	n/a	0	0	0
3185.04248046875	n/a	WORD	6522967	wordpools/wasnorm_wordpool_576.txt	LTP346	ltpFR2	13	15	GARDEN	623	n/a	n/a	0	0	0
3187.802734375	n/a	WORD	6528620	wordpools/wasnorm_wordpool_576.txt	LTP346	ltpFR2	13	15	COMPASS	358	n/a	n/a	0	0	0
3190.29345703125	n/a	WORD	6533721	wordpools/wasnorm_wordpool_576.txt	LTP346	ltpFR2	13	15	IGLOO	734	n/a	n/a	0	0	0
