mstime	trial_type	stim_file	subject	experiment	session	trial	task	item_name	item_num	recog_conf	resp	answer	test_x	test_y	test_z	color_b	color_g	color_r	case	font
0	SESS_START	n/a	LTP089	ltpFR	8	n/a	n/a	n/a	n/a	5	n/a	n/a	0	0	0	n/a	n/a	n/a	n/a	n/a
27085	START	n/a	LTP089	ltpFR	8	n/a	n/a	n/a	n/a	n/a	n/a	n/a	n/a	n/a	n/a	n/a	n/a	n/a	n/a	n/a
27110	PROB	n/a	LTP089	ltpFR	8	n/a	n/a	n/a	n/a	n/a	n/a	19	6	9	4	n/a	n/a	n/a	n/a	n/a
31034	PROB	n/a	LTP089	ltpFR	8	n/a	n/a	n/a	n/a	n/a	n/a	11	5	2	4	n/a	n/a	n/a	n/a	n/a
33534	PROB	n/a	LTP089	ltpFR	8	n/a	n/a	n/a	n/a	n/a	n/a	21	4	9	8	n/a	n/a	n/a	n/a	n/a
36809	PROB	n/a	LTP089	ltpFR	8	n/a	n/a	n/a	n/a	n/a	n/a	20	5	7	8	n/a	n/a	n/a	n/a	n/a
39850	PROB	n/a	LTP089	ltpFR	8	n/a	n/a	n/a	n/a	n/a	n/a	18	3	6	9	n/a	n/a	n/a	n/a	n/a
42500	PROB	n/a	LTP089	ltpFR	8	n/a	n/a	n/a	n/a	n/a	n/a	7	4	1	2	n/a	n/a	n/a	n/a	n/a
44467	PROB	n/a	LTP089	ltpFR	8	n/a	n/a	n/a	n/a	n/a	n/a	9	2	6	2	n/a	n/a	n/a	n/a	n/a
46996	STOP	n/a	LTP089	ltpFR	8	n/a	n/a	n/a	n/a	n/a	n/a	n/a	n/a	n/a	n/a	n/a	n/a	n/a	n/a	n/a
72348	WORD	wordpools/wasnorm_wordpool.txt	LTP089	ltpFR	8	1	0	WHISTLE	1606	n/a	0	n/a	0	0	0	0	0.5869140625	0.422607421875	lower	../fonts/amplitud.ttf
76522	WORD	wordpools/wasnorm_wordpool.txt	LTP089	ltpFR	8	1	0	GLACIER	638	n/a	1	n/a	0	0	0	0	0.5869140625	0.422607421875	lower	../fonts/amplitud.ttf
80455	WORD	wordpools/wasnorm_wordpool.txt	LTP089	ltpFR	8	1	0	BEAST	108	n/a	1	n/a	0	0	0	0	0.5869140625	0.422607421875	lower	../fonts/amplitud.ttf
84522	WORD	wordpools/wasnorm_wordpool.txt	LTP089	ltpFR	8	1	0	HAWK	692	n/a	1	n/a	0	0	0	0	0.5869140625	0.422607421875	lower	../fonts/amplitud.ttf
88712	WORD	wordpools/wasnorm_wordpool.txt	LTP089	ltpFR	8	1	0	HEATER	698	n/a	1	n/a	0	0	0	0	0.5869140625	0.422607421875	lower	../fonts/amplitud.ttf
92621	WORD	wordpools/wasnorm_wordpool.txt	LTP089	ltpFR	8	1	0	ORNAMENT	985	n/a	1	n/a	0	0	0	0	0.5869140625	0.422607421875	lower	../fonts/amplitud.ttf
96538	WORD	wordpools/wasnorm_wordpool.txt	LTP089	ltpFR	8	1	0	COCOON	339	n/a	0	n/a	0	0	0	0	0.5869140625	0.422607421875	lower	../fonts/amplitud.ttf
100412	WORD	wordpools/wasnorm_wordpool.txt	LTP089	ltpFR	8	1	0	TIGER	1467	n/a	1	n/a	0	0	0	0	0.5869140625	0.422607421875	lower	../fonts/amplitud.ttf
104387	WORD	wordpools/wasnorm_wordpool.txt	LTP089	ltpFR	8	1	0	FOREST	593	n/a	1	n/a	0	0	0	0	0.5869140625	0.422607421875	lower	../fonts/amplitud.ttf
108212	WORD	wordpools/wasnorm_wordpool.txt	LTP089	ltpFR	8	1	0	HOOD	714	n/a	1	n/a	0	0	0	0	0.5869140625	0.422607421875	lower	../fonts/amplitud.ttf
112220	WORD	wordpools/wasnorm_wordpool.txt	LTP089	ltpFR	8	1	0	DRIVER	499	n/a	1	n/a	0	0	0	0	0.5869140625	0.422607421875	lower	../fonts/amplitud.ttf
116336	WORD	wordpools/wasnorm_wordpool.txt	LTP089	ltpFR	8	1	0	CAMEL	223	n/a	1	n/a	0	0	0	0	0.5869140625	0.422607421875	lower	../fonts/amplitud.ttf
120344	WORD	wordpools/wasnorm_wordpool.txt	LTP089	ltpFR	8	1	0	SNORKEL	1336	n/a	1	n/a	0	0	0	0	0.5869140625	0.422607421875	lower	../fonts/amplitud.ttf
124269	WORD	wordpools/wasnorm_wordpool.txt	LTP089	ltpFR	8	1	0	THERMOMETER	1453	n/a	1	n/a	0	0	0	0	0.5869140625	0.422607421875	lower	../fonts/amplitud.ttf
128443	WORD	wordpools/wasnorm_wordpool.txt	LTP089	ltpFR	8	1	0	VIKING	1565	n/a	1	n/a	0	0	0	0	0.5869140625	0.422607421875	lower	../fonts/amplitud.ttf
132426	WORD	wordpools/wasnorm_wordpool.txt	LTP089	ltpFR	8	1	0	ANCHOR	21	n/a	1	n/a	0	0	0	0	0.5869140625	0.422607421875	lower	../fonts/amplitud.ttf
135435	START	n/a	LTP089	ltpFR	8	n/a	n/a	n/a	n/a	n/a	n/a	n/a	n/a	n/a	n/a	n/a	n/a	n/a	n/a	n/a
136593	PROB	n/a	LTP089	ltpFR	8	n/a	n/a	n/a	n/a	n/a	n/a	11	6	3	2	n/a	n/a	n/a	n/a	n/a
139518	PROB	n/a	LTP089	ltpFR	8	n/a	n/a	n/a	n/a	n/a	n/a	12	5	7	1	n/a	n/a	n/a	n/a	n/a
142036	STOP	n/a	LTP089	ltpFR	8	n/a	n/a	n/a	n/a	n/a	n/a	n/a	n/a	n/a	n/a	n/a	n/a	n/a	n/a	n/a
145176	REC_START	n/a	LTP089	ltpFR	8	1	n/a	n/a	n/a	n/a	n/a	n/a	0	0	0	n/a	n/a	n/a	n/a	n/a
148344	REC_WORD	wordpools/wasnorm_wordpool.txt	LTP089	ltpFR	8	1	0	GLACIER	638	n/a	1	n/a	0	0	0	n/a	n/a	n/a	n/a	n/a
149775	REC_WORD	wordpools/wasnorm_wordpool.txt	LTP089	ltpFR	8	1	0	TIGER	1467	n/a	1	n/a	0	0	0	n/a	n/a	n/a	n/a	n/a
151696	REC_WORD	wordpools/wasnorm_wordpool.txt	LTP089	ltpFR	8	1	0	ANCHOR	21	n/a	1	n/a	0	0	0	n/a	n/a	n/a	n/a	n/a
158191	REC_WORD	wordpools/wasnorm_wordpool.txt	LTP089	ltpFR	8	1	n/a	MONSTER	912	n/a	n/a	n/a	0	0	0	n/a	n/a	n/a	n/a	n/a
233252	START	n/a	LTP089	ltpFR	8	n/a	n/a	n/a	n/a	n/a	n/a	n/a	n/a	n/a	n/a	n/a	n/a	n/a	n/a	n/a
234760	PROB	n/a	LTP089	ltpFR	8	n/a	n/a	n/a	n/a	n/a	n/a	18	8	4	6	n/a	n/a	n/a	n/a	n/a
237785	PROB	n/a	LTP089	ltpFR	8	n/a	n/a	n/a	n/a	n/a	n/a	13	3	7	3	n/a	n/a	n/a	n/a	n/a
241252	STOP	n/a	LTP089	ltpFR	8	n/a	n/a	n/a	n/a	n/a	n/a	n/a	n/a	n/a	n/a	n/a	n/a	n/a	n/a	n/a
242401	WORD	wordpools/wasnorm_wordpool.txt	LTP089	ltpFR	8	2	1	CAULIFLOWER	262	n/a	0	n/a	0	0	0	1	0.412841796875	0.57763671875	upper	../fonts/zerothre.ttf
245402	START	n/a	LTP089	ltpFR	8	n/a	n/a	n/a	n/a	n/a	n/a	n/a	n/a	n/a	n/a	n/a	n/a	n/a	n/a	n/a
246593	PROB	n/a	LTP089	ltpFR	8	n/a	n/a	n/a	n/a	n/a	n/a	15	4	7	4	n/a	n/a	n/a	n/a	n/a
250642	PROB	n/a	LTP089	ltpFR	8	n/a	n/a	n/a	n/a	n/a	n/a	15	6	4	5	n/a	n/a	n/a	n/a	n/a
252044	STOP	n/a	LTP089	ltpFR	8	n/a	n/a	n/a	n/a	n/a	n/a	n/a	n/a	n/a	n/a	n/a	n/a	n/a	n/a	n/a
254325	WORD	wordpools/wasnorm_wordpool.txt	LTP089	ltpFR	8	2	1	CHIEF	298	n/a	1	n/a	0	0	0	1	0.412841796875	0.57763671875	upper	../fonts/zerothre.ttf
257326	START	n/a	LTP089	ltpFR	8	n/a	n/a	n/a	n/a	n/a	n/a	n/a	n/a	n/a	n/a	n/a	n/a	n/a	n/a	n/a
258358	PROB	n/a	LTP089	ltpFR	8	n/a	n/a	n/a	n/a	n/a	n/a	13	1	8	3	n/a	n/a	n/a	n/a	n/a
260008	PROB	n/a	LTP089	ltpFR	8	n/a	n/a	n/a	n/a	n/a	n/a	16	5	3	8	n/a	n/a	n/a	n/a	n/a
265325	STOP	n/a	LTP089	ltpFR	8	n/a	n/a	n/a	n/a	n/a	n/a	n/a	n/a	n/a	n/a	n/a	n/a	n/a	n/a	n/a
266183	WORD	wordpools/wasnorm_wordpool.txt	LTP089	ltpFR	8	2	1	TEAPOT	1442	n/a	0	n/a	0	0	0	1	0.412841796875	0.57763671875	upper	../fonts/zerothre.ttf
269192	START	n/a	LTP089	ltpFR	8	n/a	n/a	n/a	n/a	n/a	n/a	n/a	n/a	n/a	n/a	n/a	n/a	n/a	n/a	n/a
270366	PROB	n/a	LTP089	ltpFR	8	n/a	n/a	n/a	n/a	n/a	n/a	5	1	3	1	n/a	n/a	n/a	n/a	n/a
272232	PROB	n/a	LTP089	ltpFR	8	n/a	n/a	n/a	n/a	n/a	n/a	18	6	8	4	n/a	n/a	n/a	n/a	n/a
274582	PROB	n/a	LTP089	ltpFR	8	n/a	n/a	n/a	n/a	n/a	n/a	17	6	6	5	n/a	n/a	n/a	n/a	n/a
276988	STOP	n/a	LTP089	ltpFR	8	n/a	n/a	n/a	n/a	n/a	n/a	n/a	n/a	n/a	n/a	n/a	n/a	n/a	n/a	n/a
278099	WORD	wordpools/wasnorm_wordpool.txt	LTP089	ltpFR	8	2	1	ROAD	1196	n/a	0	n/a	0	0	0	1	0.412841796875	0.57763671875	upper	../fonts/zerothre.ttf
281107	START	n/a	LTP089	ltpFR	8	n/a	n/a	n/a	n/a	n/a	n/a	n/a	n/a	n/a	n/a	n/a	n/a	n/a	n/a	n/a
282123	PROB	n/a	LTP089	ltpFR	8	n/a	n/a	n/a	n/a	n/a	n/a	18	2	7	9	n/a	n/a	n/a	n/a	n/a
284548	PROB	n/a	LTP089	ltpFR	8	n/a	n/a	n/a	n/a	n/a	n/a	13	6	2	5	n/a	n/a	n/a	n/a	n/a
287206	PROB	n/a	LTP089	ltpFR	8	n/a	n/a	n/a	n/a	n/a	n/a	14	6	6	2	n/a	n/a	n/a	n/a	n/a
288988	STOP	n/a	LTP089	ltpFR	8	n/a	n/a	n/a	n/a	n/a	n/a	n/a	n/a	n/a	n/a	n/a	n/a	n/a	n/a	n/a
289981	WORD	wordpools/wasnorm_wordpool.txt	LTP089	ltpFR	8	2	1	PISTON	1076	n/a	1	n/a	0	0	0	1	0.412841796875	0.57763671875	upper	../fonts/zerothre.ttf
292990	START	n/a	LTP089	ltpFR	8	n/a	n/a	n/a	n/a	n/a	n/a	n/a	n/a	n/a	n/a	n/a	n/a	n/a	n/a	n/a
294156	PROB	n/a	LTP089	ltpFR	8	n/a	n/a	n/a	n/a	n/a	n/a	13	7	3	3	n/a	n/a	n/a	n/a	n/a
295647	PROB	n/a	LTP089	ltpFR	8	n/a	n/a	n/a	n/a	n/a	n/a	10	4	3	3	n/a	n/a	n/a	n/a	n/a
300989	STOP	n/a	LTP089	ltpFR	8	n/a	n/a	n/a	n/a	n/a	n/a	n/a	n/a	n/a	n/a	n/a	n/a	n/a	n/a	n/a
302088	WORD	wordpools/wasnorm_wordpool.txt	LTP089	ltpFR	8	2	1	EGYPT	519	n/a	0	n/a	0	0	0	1	0.412841796875	0.57763671875	upper	../fonts/zerothre.ttf
305097	START	n/a	LTP089	ltpFR	8	n/a	n/a	n/a	n/a	n/a	n/a	n/a	n/a	n/a	n/a	n/a	n/a	n/a	n/a	n/a
306221	PROB	n/a	LTP089	ltpFR	8	n/a	n/a	n/a	n/a	n/a	n/a	24	9	9	5	n/a	n/a	n/a	n/a	n/a
313097	STOP	n/a	LTP089	ltpFR	8	n/a	n/a	n/a	n/a	n/a	n/a	n/a	n/a	n/a	n/a	n/a	n/a	n/a	n/a	n/a
314004	WORD	wordpools/wasnorm_wordpool.txt	LTP089	ltpFR	8	2	1	TEENAGER	1444	n/a	0	n/a	0	0	0	1	0.412841796875	0.57763671875	upper	../fonts/zerothre.ttf
317021	START	n/a	LTP089	ltpFR	8	n/a	n/a	n/a	n/a	n/a	n/a	n/a	n/a	n/a	n/a	n/a	n/a	n/a	n/a	n/a
318070	PROB	n/a	LTP089	ltpFR	8	n/a	n/a	n/a	n/a	n/a	n/a	17	7	1	9	n/a	n/a	n/a	n/a	n/a
320920	PROB	n/a	LTP089	ltpFR	8	n/a	n/a	n/a	n/a	n/a	n/a	11	9	1	1	n/a	n/a	n/a	n/a	n/a
322653	PROB	n/a	LTP089	ltpFR	8	n/a	n/a	n/a	n/a	n/a	n/a	16	6	8	2	n/a	n/a	n/a	n/a	n/a
325012	STOP	n/a	LTP089	ltpFR	8	n/a	n/a	n/a	n/a	n/a	n/a	n/a	n/a	n/a	n/a	n/a	n/a	n/a	n/a	n/a
325945	WORD	wordpools/wasnorm_wordpool.txt	LTP089	ltpFR	8	2	1	FARMER	553	n/a	1	n/a	0	0	0	1	0.412841796875	0.57763671875	upper	../fonts/zerothre.ttf
328953	START	n/a	LTP089	ltpFR	8	n/a	n/a	n/a	n/a	n/a	n/a	n/a	n/a	n/a	n/a	n/a	n/a	n/a	n/a	n/a
330003	PROB	n/a	LTP089	ltpFR	8	n/a	n/a	n/a	n/a	n/a	n/a	11	6	3	2	n/a	n/a	n/a	n/a	n/a
332828	PROB	n/a	LTP089	ltpFR	8	n/a	n/a	n/a	n/a	n/a	n/a	17	7	4	6	n/a	n/a	n/a	n/a	n/a
336953	STOP	n/a	LTP089	ltpFR	8	n/a	n/a	n/a	n/a	n/a	n/a	n/a	n/a	n/a	n/a	n/a	n/a	n/a	n/a	n/a
338027	WORD	wordpools/wasnorm_wordpool.txt	LTP089	ltpFR	8	2	1	TEMPLE	1448	n/a	0	n/a	0	0	0	1	0.412841796875	0.57763671875	upper	../fonts/zerothre.ttf
341036	START	n/a	LTP089	ltpFR	8	n/a	n/a	n/a	n/a	n/a	n/a	n/a	n/a	n/a	n/a	n/a	n/a	n/a	n/a	n/a
342202	PROB	n/a	LTP089	ltpFR	8	n/a	n/a	n/a	n/a	n/a	n/a	19	7	3	9	n/a	n/a	n/a	n/a	n/a
344127	PROB	n/a	LTP089	ltpFR	8	n/a	n/a	n/a	n/a	n/a	n/a	12	5	4	3	n/a	n/a	n/a	n/a	n/a
349036	STOP	n/a	LTP089	ltpFR	8	n/a	n/a	n/a	n/a	n/a	n/a	n/a	n/a	n/a	n/a	n/a	n/a	n/a	n/a	n/a
350185	WORD	wordpools/wasnorm_wordpool.txt	LTP089	ltpFR	8	2	1	SCALLOP	1242	n/a	0	n/a	0	0	0	1	0.412841796875	0.57763671875	upper	../fonts/zerothre.ttf
353193	START	n/a	LTP089	ltpFR	8	n/a	n/a	n/a	n/a	n/a	n/a	n/a	n/a	n/a	n/a	n/a	n/a	n/a	n/a	n/a
354318	PROB	n/a	LTP089	ltpFR	8	n/a	n/a	n/a	n/a	n/a	n/a	10	1	3	6	n/a	n/a	n/a	n/a	n/a
356509	PROB	n/a	LTP089	ltpFR	8	n/a	n/a	n/a	n/a	n/a	n/a	21	4	9	9	n/a	n/a	n/a	n/a	n/a
359892	STOP	n/a	LTP089	ltpFR	8	n/a	n/a	n/a	n/a	n/a	n/a	n/a	n/a	n/a	n/a	n/a	n/a	n/a	n/a	n/a
362350	WORD	wordpools/wasnorm_wordpool.txt	LTP089	ltpFR	8	2	1	BAKER	71	n/a	0	n/a	0	0	0	1	0.412841796875	0.57763671875	upper	../fonts/zerothre.ttf
365351	START	n/a	LTP089	ltpFR	8	n/a	n/a	n/a	n/a	n/a	n/a	n/a	n/a	n/a	n/a	n/a	n/a	n/a	n/a	n/a
366308	PROB	n/a	LTP089	ltpFR	8	n/a	n/a	n/a	n/a	n/a	n/a	19	8	5	6	n/a	n/a	n/a	n/a	n/a
372292	STOP	n/a	LTP089	ltpFR	8	n/a	n/a	n/a	n/a	n/a	n/a	n/a	n/a	n/a	n/a	n/a	n/a	n/a	n/a	n/a
374249	WORD	wordpools/wasnorm_wordpool.txt	LTP089	ltpFR	8	2	1	STORE	1387	n/a	0	n/a	0	0	0	1	0.412841796875	0.57763671875	upper	../fonts/zerothre.ttf
377250	START	n/a	LTP089	ltpFR	8	n/a	n/a	n/a	n/a	n/a	n/a	n/a	n/a	n/a	n/a	n/a	n/a	n/a	n/a	n/a
378433	PROB	n/a	LTP089	ltpFR	8	n/a	n/a	n/a	n/a	n/a	n/a	13	1	4	7	n/a	n/a	n/a	n/a	n/a
381141	PROB	n/a	LTP089	ltpFR	8	n/a	n/a	n/a	n/a	n/a	n/a	17	6	5	6	n/a	n/a	n/a	n/a	n/a
383892	STOP	n/a	LTP089	ltpFR	8	n/a	n/a	n/a	n/a	n/a	n/a	n/a	n/a	n/a	n/a	n/a	n/a	n/a	n/a	n/a
386115	WORD	wordpools/wasnorm_wordpool.txt	LTP089	ltpFR	8	2	1	MARKET	871	n/a	0	n/a	0	0	0	1	0.412841796875	0.57763671875	upper	../fonts/zerothre.ttf
389124	START	n/a	LTP089	ltpFR	8	n/a	n/a	n/a	n/a	n/a	n/a	n/a	n/a	n/a	n/a	n/a	n/a	n/a	n/a	n/a
390040	PROB	n/a	LTP089	ltpFR	8	n/a	n/a	n/a	n/a	n/a	n/a	17	3	8	6	n/a	n/a	n/a	n/a	n/a
392665	PROB	n/a	LTP089	ltpFR	8	n/a	n/a	n/a	n/a	n/a	n/a	20	5	7	8	n/a	n/a	n/a	n/a	n/a
395748	STOP	n/a	LTP089	ltpFR	8	n/a	n/a	n/a	n/a	n/a	n/a	n/a	n/a	n/a	n/a	n/a	n/a	n/a	n/a	n/a
397964	WORD	wordpools/wasnorm_wordpool.txt	LTP089	ltpFR	8	2	1	COOK	372	n/a	0	n/a	0	0	0	1	0.412841796875	0.57763671875	upper	../fonts/zerothre.ttf
400965	START	n/a	LTP089	ltpFR	8	n/a	n/a	n/a	n/a	n/a	n/a	n/a	n/a	n/a	n/a	n/a	n/a	n/a	n/a	n/a
401772	PROB	n/a	LTP089	ltpFR	8	n/a	n/a	n/a	n/a	n/a	n/a	16	6	3	7	n/a	n/a	n/a	n/a	n/a
405005	PROB	n/a	LTP089	ltpFR	8	n/a	n/a	n/a	n/a	n/a	n/a	12	7	3	2	n/a	n/a	n/a	n/a	n/a
408965	STOP	n/a	LTP089	ltpFR	8	n/a	n/a	n/a	n/a	n/a	n/a	n/a	n/a	n/a	n/a	n/a	n/a	n/a	n/a	n/a
409788	WORD	wordpools/wasnorm_wordpool.txt	LTP089	ltpFR	8	2	1	GRILL	661	n/a	0	n/a	0	0	0	1	0.412841796875	0.57763671875	upper	../fonts/zerothre.ttf
412789	START	n/a	LTP089	ltpFR	8	n/a	n/a	n/a	n/a	n/a	n/a	n/a	n/a	n/a	n/a	n/a	n/a	n/a	n/a	n/a
413796	PROB	n/a	LTP089	ltpFR	8	n/a	n/a	n/a	n/a	n/a	n/a	16	3	5	8	n/a	n/a	n/a	n/a	n/a
416704	PROB	n/a	LTP089	ltpFR	8	n/a	n/a	n/a	n/a	n/a	n/a	16	1	8	7	n/a	n/a	n/a	n/a	n/a
420789	STOP	n/a	LTP089	ltpFR	8	n/a	n/a	n/a	n/a	n/a	n/a	n/a	n/a	n/a	n/a	n/a	n/a	n/a	n/a	n/a
421846	WORD	wordpools/wasnorm_wordpool.txt	LTP089	ltpFR	8	2	1	CARAVAN	242	n/a	0	n/a	0	0	0	1	0.412841796875	0.57763671875	upper	../fonts/zerothre.ttf
424854	START	n/a	LTP089	ltpFR	8	n/a	n/a	n/a	n/a	n/a	n/a	n/a	n/a	n/a	n/a	n/a	n/a	n/a	n/a	n/a
425846	PROB	n/a	LTP089	ltpFR	8	n/a	n/a	n/a	n/a	n/a	n/a	17	5	8	4	n/a	n/a	n/a	n/a	n/a
428812	PROB	n/a	LTP089	ltpFR	8	n/a	n/a	n/a	n/a	n/a	n/a	15	4	3	8	n/a	n/a	n/a	n/a	n/a
431868	STOP	n/a	LTP089	ltpFR	8	n/a	n/a	n/a	n/a	n/a	n/a	n/a	n/a	n/a	n/a	n/a	n/a	n/a	n/a	n/a
434604	REC_START	n/a	LTP089	ltpFR	8	2	n/a	n/a	n/a	n/a	n/a	n/a	0	0	0	n/a	n/a	n/a	n/a	n/a
438719	REC_WORD	wordpools/wasnorm_wordpool.txt	LTP089	ltpFR	8	2	1	CARAVAN	242	n/a	0	n/a	0	0	0	n/a	n/a	n/a	n/a	n/a
439807	REC_WORD	wordpools/wasnorm_wordpool.txt	LTP089	ltpFR	8	2	0	TIGER	1467	n/a	1	n/a	0	0	0	n/a	n/a	n/a	n/a	n/a
440969	REC_WORD	wordpools/wasnorm_wordpool.txt	LTP089	ltpFR	8	2	n/a	GYPSY	-1	n/a	n/a	n/a	0	0	0	n/a	n/a	n/a	n/a	n/a
442820	REC_WORD_VV	wordpools/wasnorm_wordpool.txt	LTP089	ltpFR	8	2	n/a	<>	-1	n/a	n/a	n/a	0	0	0	n/a	n/a	n/a	n/a	n/a
519264	START	n/a	LTP089	ltpFR	8	n/a	n/a	n/a	n/a	n/a	n/a	n/a	n/a	n/a	n/a	n/a	n/a	n/a	n/a	n/a
520772	PROB	n/a	LTP089	ltpFR	8	n/a	n/a	n/a	n/a	n/a	n/a	15	1	7	7	n/a	n/a	n/a	n/a	n/a
522921	PROB	n/a	LTP089	ltpFR	8	n/a	n/a	n/a	n/a	n/a	n/a	22	4	9	9	n/a	n/a	n/a	n/a	n/a
525038	PROB	n/a	LTP089	ltpFR	8	n/a	n/a	n/a	n/a	n/a	n/a	10	4	3	3	n/a	n/a	n/a	n/a	n/a
527020	STOP	n/a	LTP089	ltpFR	8	n/a	n/a	n/a	n/a	n/a	n/a	n/a	n/a	n/a	n/a	n/a	n/a	n/a	n/a	n/a
528363	WORD	wordpools/wasnorm_wordpool.txt	LTP089	ltpFR	8	3	0	COSTUME	383	n/a	0	n/a	0	0	0	0	0.5869140625	0.422607421875	lower	../fonts/amplitud.ttf
531371	START	n/a	LTP089	ltpFR	8	n/a	n/a	n/a	n/a	n/a	n/a	n/a	n/a	n/a	n/a	n/a	n/a	n/a	n/a	n/a
532337	PROB	n/a	LTP089	ltpFR	8	n/a	n/a	n/a	n/a	n/a	n/a	12	3	3	6	n/a	n/a	n/a	n/a	n/a
534770	PROB	n/a	LTP089	ltpFR	8	n/a	n/a	n/a	n/a	n/a	n/a	24	9	9	6	n/a	n/a	n/a	n/a	n/a
539371	STOP	n/a	LTP089	ltpFR	8	n/a	n/a	n/a	n/a	n/a	n/a	n/a	n/a	n/a	n/a	n/a	n/a	n/a	n/a	n/a
540403	WORD	wordpools/wasnorm_wordpool.txt	LTP089	ltpFR	8	3	0	BARLEY	88	n/a	0	n/a	0	0	0	0	0.5869140625	0.422607421875	lower	../fonts/amplitud.ttf
543412	START	n/a	LTP089	ltpFR	8	n/a	n/a	n/a	n/a	n/a	n/a	n/a	n/a	n/a	n/a	n/a	n/a	n/a	n/a	n/a
544470	PROB	n/a	LTP089	ltpFR	8	n/a	n/a	n/a	n/a	n/a	n/a	16	8	5	3	n/a	n/a	n/a	n/a	n/a
547278	PROB	n/a	LTP089	ltpFR	8	n/a	n/a	n/a	n/a	n/a	n/a	15	6	5	4	n/a	n/a	n/a	n/a	n/a
551411	STOP	n/a	LTP089	ltpFR	8	n/a	n/a	n/a	n/a	n/a	n/a	n/a	n/a	n/a	n/a	n/a	n/a	n/a	n/a	n/a
552486	WORD	wordpools/wasnorm_wordpool.txt	LTP089	ltpFR	8	3	0	TOAST	1471	n/a	0	n/a	0	0	0	0	0.5869140625	0.422607421875	lower	../fonts/amplitud.ttf
555494	START	n/a	LTP089	ltpFR	8	n/a	n/a	n/a	n/a	n/a	n/a	n/a	n/a	n/a	n/a	n/a	n/a	n/a	n/a	n/a
556485	PROB	n/a	LTP089	ltpFR	8	n/a	n/a	n/a	n/a	n/a	n/a	19	6	5	8	n/a	n/a	n/a	n/a	n/a
559235	PROB	n/a	LTP089	ltpFR	8	n/a	n/a	n/a	n/a	n/a	n/a	20	4	5	8	n/a	n/a	n/a	n/a	n/a
562172	STOP	n/a	LTP089	ltpFR	8	n/a	n/a	n/a	n/a	n/a	n/a	n/a	n/a	n/a	n/a	n/a	n/a	n/a	n/a	n/a
564660	WORD	wordpools/wasnorm_wordpool.txt	LTP089	ltpFR	8	3	0	MASK	876	n/a	0	n/a	0	0	0	0	0.5869140625	0.422607421875	lower	../fonts/amplitud.ttf
567668	START	n/a	LTP089	ltpFR	8	n/a	n/a	n/a	n/a	n/a	n/a	n/a	n/a	n/a	n/a	n/a	n/a	n/a	n/a	n/a
568859	PROB	n/a	LTP089	ltpFR	8	n/a	n/a	n/a	n/a	n/a	n/a	11	6	3	2	n/a	n/a	n/a	n/a	n/a
571451	PROB	n/a	LTP089	ltpFR	8	n/a	n/a	n/a	n/a	n/a	n/a	12	5	5	2	n/a	n/a	n/a	n/a	n/a
575668	STOP	n/a	LTP089	ltpFR	8	n/a	n/a	n/a	n/a	n/a	n/a	n/a	n/a	n/a	n/a	n/a	n/a	n/a	n/a	n/a
576601	WORD	wordpools/wasnorm_wordpool.txt	LTP089	ltpFR	8	3	1	BUTTERFLY	206	n/a	2	n/a	0	0	0	1	0.412841796875	0.57763671875	upper	../fonts/zerothre.ttf
577742	KEY_MSG	n/a	LTP089	ltpFR	8	3	n/a	n/a	n/a	n/a	n/a	n/a	0	0	0	n/a	n/a	n/a	n/a	n/a
579609	START	n/a	LTP089	ltpFR	8	n/a	n/a	n/a	n/a	n/a	n/a	n/a	n/a	n/a	n/a	n/a	n/a	n/a	n/a	n/a
580691	PROB	n/a	LTP089	ltpFR	8	n/a	n/a	n/a	n/a	n/a	n/a	12	2	3	7	n/a	n/a	n/a	n/a	n/a
587609	STOP	n/a	LTP089	ltpFR	8	n/a	n/a	n/a	n/a	n/a	n/a	n/a	n/a	n/a	n/a	n/a	n/a	n/a	n/a	n/a
588525	WORD	wordpools/wasnorm_wordpool.txt	LTP089	ltpFR	8	3	1	SECRETARY	1265	n/a	1	n/a	0	0	0	1	0.412841796875	0.57763671875	upper	../fonts/zerothre.ttf
591533	START	n/a	LTP089	ltpFR	8	n/a	n/a	n/a	n/a	n/a	n/a	n/a	n/a	n/a	n/a	n/a	n/a	n/a	n/a	n/a
592516	PROB	n/a	LTP089	ltpFR	8	n/a	n/a	n/a	n/a	n/a	n/a	18	6	4	8	n/a	n/a	n/a	n/a	n/a
594557	PROB	n/a	LTP089	ltpFR	8	n/a	n/a	n/a	n/a	n/a	n/a	18	5	5	8	n/a	n/a	n/a	n/a	n/a
598101	STOP	n/a	LTP089	ltpFR	8	n/a	n/a	n/a	n/a	n/a	n/a	n/a	n/a	n/a	n/a	n/a	n/a	n/a	n/a	n/a
600565	WORD	wordpools/wasnorm_wordpool.txt	LTP089	ltpFR	8	3	1	RECEPTIONIST	1174	n/a	1	n/a	0	0	0	1	0.412841796875	0.57763671875	upper	../fonts/zerothre.ttf
603566	START	n/a	LTP089	ltpFR	8	n/a	n/a	n/a	n/a	n/a	n/a	n/a	n/a	n/a	n/a	n/a	n/a	n/a	n/a	n/a
604623	PROB	n/a	LTP089	ltpFR	8	n/a	n/a	n/a	n/a	n/a	n/a	22	7	8	7	n/a	n/a	n/a	n/a	n/a
611566	STOP	n/a	LTP089	ltpFR	8	n/a	n/a	n/a	n/a	n/a	n/a	n/a	n/a	n/a	n/a	n/a	n/a	n/a	n/a	n/a
612414	WORD	wordpools/wasnorm_wordpool.txt	LTP089	ltpFR	8	3	1	TUNA	1518	n/a	0	n/a	0	0	0	1	0.412841796875	0.57763671875	upper	../fonts/zerothre.ttf
615415	START	n/a	LTP089	ltpFR	8	n/a	n/a	n/a	n/a	n/a	n/a	n/a	n/a	n/a	n/a	n/a	n/a	n/a	n/a	n/a
616248	PROB	n/a	LTP089	ltpFR	8	n/a	n/a	n/a	n/a	n/a	n/a	15	2	4	9	n/a	n/a	n/a	n/a	n/a
619972	PROB	n/a	LTP089	ltpFR	8	n/a	n/a	n/a	n/a	n/a	n/a	9	5	1	3	n/a	n/a	n/a	n/a	n/a
623414	STOP	n/a	LTP089	ltpFR	8	n/a	n/a	n/a	n/a	n/a	n/a	n/a	n/a	n/a	n/a	n/a	n/a	n/a	n/a	n/a
624564	WORD	wordpools/wasnorm_wordpool.txt	LTP089	ltpFR	8	3	0	TURNIP	1521	n/a	2	n/a	0	0	0	0	0.5869140625	0.422607421875	lower	../fonts/amplitud.ttf
624989	KEY_MSG	n/a	LTP089	ltpFR	8	3	n/a	n/a	n/a	n/a	n/a	n/a	0	0	0	n/a	n/a	n/a	n/a	n/a
627572	START	n/a	LTP089	ltpFR	8	n/a	n/a	n/a	n/a	n/a	n/a	n/a	n/a	n/a	n/a	n/a	n/a	n/a	n/a	n/a
628547	PROB	n/a	LTP089	ltpFR	8	n/a	n/a	n/a	n/a	n/a	n/a	12	7	3	2	n/a	n/a	n/a	n/a	n/a
630038	PROB	n/a	LTP089	ltpFR	8	n/a	n/a	n/a	n/a	n/a	n/a	14	5	7	1	n/a	n/a	n/a	n/a	n/a
635572	STOP	n/a	LTP089	ltpFR	8	n/a	n/a	n/a	n/a	n/a	n/a	n/a	n/a	n/a	n/a	n/a	n/a	n/a	n/a	n/a
636596	WORD	wordpools/wasnorm_wordpool.txt	LTP089	ltpFR	8	3	0	WARDROBE	1587	n/a	0	n/a	0	0	0	0	0.5869140625	0.422607421875	lower	../fonts/amplitud.ttf
639604	START	n/a	LTP089	ltpFR	8	n/a	n/a	n/a	n/a	n/a	n/a	n/a	n/a	n/a	n/a	n/a	n/a	n/a	n/a	n/a
640621	PROB	n/a	LTP089	ltpFR	8	n/a	n/a	n/a	n/a	n/a	n/a	14	1	9	4	n/a	n/a	n/a	n/a	n/a
642421	PROB	n/a	LTP089	ltpFR	8	n/a	n/a	n/a	n/a	n/a	n/a	13	3	2	8	n/a	n/a	n/a	n/a	n/a
647596	STOP	n/a	LTP089	ltpFR	8	n/a	n/a	n/a	n/a	n/a	n/a	n/a	n/a	n/a	n/a	n/a	n/a	n/a	n/a	n/a
648778	WORD	wordpools/wasnorm_wordpool.txt	LTP089	ltpFR	8	3	1	CHECK	284	n/a	2	n/a	0	0	0	1	0.412841796875	0.57763671875	upper	../fonts/zerothre.ttf
649312	KEY_MSG	n/a	LTP089	ltpFR	8	3	n/a	n/a	n/a	n/a	n/a	n/a	0	0	0	n/a	n/a	n/a	n/a	n/a
651779	START	n/a	LTP089	ltpFR	8	n/a	n/a	n/a	n/a	n/a	n/a	n/a	n/a	n/a	n/a	n/a	n/a	n/a	n/a	n/a
652928	PROB	n/a	LTP089	ltpFR	8	n/a	n/a	n/a	n/a	n/a	n/a	23	7	7	9	n/a	n/a	n/a	n/a	n/a
659778	STOP	n/a	LTP089	ltpFR	8	n/a	n/a	n/a	n/a	n/a	n/a	n/a	n/a	n/a	n/a	n/a	n/a	n/a	n/a	n/a
660961	WORD	wordpools/wasnorm_wordpool.txt	LTP089	ltpFR	8	3	1	DIPLOMA	470	n/a	0	n/a	0	0	0	1	0.412841796875	0.57763671875	upper	../fonts/zerothre.ttf
663969	START	n/a	LTP089	ltpFR	8	n/a	n/a	n/a	n/a	n/a	n/a	n/a	n/a	n/a	n/a	n/a	n/a	n/a	n/a	n/a
665060	PROB	n/a	LTP089	ltpFR	8	n/a	n/a	n/a	n/a	n/a	n/a	15	8	1	6	n/a	n/a	n/a	n/a	n/a
669910	PROB	n/a	LTP089	ltpFR	8	n/a	n/a	n/a	n/a	n/a	n/a	11	4	1	6	n/a	n/a	n/a	n/a	n/a
671940	STOP	n/a	LTP089	ltpFR	8	n/a	n/a	n/a	n/a	n/a	n/a	n/a	n/a	n/a	n/a	n/a	n/a	n/a	n/a	n/a
672868	WORD	wordpools/wasnorm_wordpool.txt	LTP089	ltpFR	8	3	1	STUDENT	1395	n/a	2	n/a	0	0	0	1	0.412841796875	0.57763671875	upper	../fonts/zerothre.ttf
673385	KEY_MSG	n/a	LTP089	ltpFR	8	3	n/a	n/a	n/a	n/a	n/a	n/a	0	0	0	n/a	n/a	n/a	n/a	n/a
675877	START	n/a	LTP089	ltpFR	8	n/a	n/a	n/a	n/a	n/a	n/a	n/a	n/a	n/a	n/a	n/a	n/a	n/a	n/a	n/a
676934	PROB	n/a	LTP089	ltpFR	8	n/a	n/a	n/a	n/a	n/a	n/a	13	1	3	8	n/a	n/a	n/a	n/a	n/a
679717	PROB	n/a	LTP089	ltpFR	8	n/a	n/a	n/a	n/a	n/a	n/a	12	4	2	6	n/a	n/a	n/a	n/a	n/a
682372	STOP	n/a	LTP089	ltpFR	8	n/a	n/a	n/a	n/a	n/a	n/a	n/a	n/a	n/a	n/a	n/a	n/a	n/a	n/a	n/a
685067	WORD	wordpools/wasnorm_wordpool.txt	LTP089	ltpFR	8	3	1	RADIO	1157	n/a	2	n/a	0	0	0	1	0.412841796875	0.57763671875	upper	../fonts/zerothre.ttf
685575	KEY_MSG	n/a	LTP089	ltpFR	8	3	n/a	n/a	n/a	n/a	n/a	n/a	0	0	0	n/a	n/a	n/a	n/a	n/a
688076	START	n/a	LTP089	ltpFR	8	n/a	n/a	n/a	n/a	n/a	n/a	n/a	n/a	n/a	n/a	n/a	n/a	n/a	n/a	n/a
689059	PROB	n/a	LTP089	ltpFR	8	n/a	n/a	n/a	n/a	n/a	n/a	12	2	1	9	n/a	n/a	n/a	n/a	n/a
690992	PROB	n/a	LTP089	ltpFR	8	n/a	n/a	n/a	n/a	n/a	n/a	21	8	8	5	n/a	n/a	n/a	n/a	n/a
694083	PROB	n/a	LTP089	ltpFR	8	n/a	n/a	n/a	n/a	n/a	n/a	13	3	1	9	n/a	n/a	n/a	n/a	n/a
695820	STOP	n/a	LTP089	ltpFR	8	n/a	n/a	n/a	n/a	n/a	n/a	n/a	n/a	n/a	n/a	n/a	n/a	n/a	n/a	n/a
696950	WORD	wordpools/wasnorm_wordpool.txt	LTP089	ltpFR	8	3	0	VIOLA	1570	n/a	2	n/a	0	0	0	0	0.5869140625	0.422607421875	lower	../fonts/amplitud.ttf
696991	KEY_MSG	n/a	LTP089	ltpFR	8	3	n/a	n/a	n/a	n/a	n/a	n/a	0	0	0	n/a	n/a	n/a	n/a	n/a
699958	START	n/a	LTP089	ltpFR	8	n/a	n/a	n/a	n/a	n/a	n/a	n/a	n/a	n/a	n/a	n/a	n/a	n/a	n/a	n/a
701099	PROB	n/a	LTP089	ltpFR	8	n/a	n/a	n/a	n/a	n/a	n/a	13	4	1	8	n/a	n/a	n/a	n/a	n/a
703907	PROB	n/a	LTP089	ltpFR	8	n/a	n/a	n/a	n/a	n/a	n/a	15	3	3	8	n/a	n/a	n/a	n/a	n/a
707124	STOP	n/a	LTP089	ltpFR	8	n/a	n/a	n/a	n/a	n/a	n/a	n/a	n/a	n/a	n/a	n/a	n/a	n/a	n/a	n/a
708890	WORD	wordpools/wasnorm_wordpool.txt	LTP089	ltpFR	8	3	0	BISCUIT	130	n/a	0	n/a	0	0	0	0	0.5869140625	0.422607421875	lower	../fonts/amplitud.ttf
711899	START	n/a	LTP089	ltpFR	8	n/a	n/a	n/a	n/a	n/a	n/a	n/a	n/a	n/a	n/a	n/a	n/a	n/a	n/a	n/a
712907	PROB	n/a	LTP089	ltpFR	8	n/a	n/a	n/a	n/a	n/a	n/a	18	9	8	1	n/a	n/a	n/a	n/a	n/a
715032	PROB	n/a	LTP089	ltpFR	8	n/a	n/a	n/a	n/a	n/a	n/a	10	4	5	1	n/a	n/a	n/a	n/a	n/a
717156	PROB	n/a	LTP089	ltpFR	8	n/a	n/a	n/a	n/a	n/a	n/a	11	2	8	1	n/a	n/a	n/a	n/a	n/a
718948	STOP	n/a	LTP089	ltpFR	8	n/a	n/a	n/a	n/a	n/a	n/a	n/a	n/a	n/a	n/a	n/a	n/a	n/a	n/a	n/a
721682	REC_START	n/a	LTP089	ltpFR	8	3	n/a	n/a	n/a	n/a	n/a	n/a	0	0	0	n/a	n/a	n/a	n/a	n/a
725224	REC_WORD	wordpools/wasnorm_wordpool.txt	LTP089	ltpFR	8	3	0	BISCUIT	130	n/a	0	n/a	0	0	0	n/a	n/a	n/a	n/a	n/a
726236	REC_WORD	wordpools/wasnorm_wordpool.txt	LTP089	ltpFR	8	3	0	MASK	876	n/a	0	n/a	0	0	0	n/a	n/a	n/a	n/a	n/a
728042	REC_WORD_VV	wordpools/wasnorm_wordpool.txt	LTP089	ltpFR	8	3	n/a	<>	-1	n/a	n/a	n/a	0	0	0	n/a	n/a	n/a	n/a	n/a
802392	WORD	wordpools/wasnorm_wordpool.txt	LTP089	ltpFR	8	4	0	EWE	542	n/a	0	n/a	0	0	0	0	0.5869140625	0.422607421875	lower	../fonts/amplitud.ttf
806341	WORD	wordpools/wasnorm_wordpool.txt	LTP089	ltpFR	8	4	0	LIGHTER	819	n/a	0	n/a	0	0	0	0	0.5869140625	0.422607421875	lower	../fonts/amplitud.ttf
810508	WORD	wordpools/wasnorm_wordpool.txt	LTP089	ltpFR	8	4	0	BUGLE	189	n/a	0	n/a	0	0	0	0	0.5869140625	0.422607421875	lower	../fonts/amplitud.ttf
814640	WORD	wordpools/wasnorm_wordpool.txt	LTP089	ltpFR	8	4	0	TERMINAL	1450	n/a	0	n/a	0	0	0	0	0.5869140625	0.422607421875	lower	../fonts/amplitud.ttf
818815	WORD	wordpools/wasnorm_wordpool.txt	LTP089	ltpFR	8	4	0	SOCK	1339	n/a	0	n/a	0	0	0	0	0.5869140625	0.422607421875	lower	../fonts/amplitud.ttf
822807	WORD	wordpools/wasnorm_wordpool.txt	LTP089	ltpFR	8	4	0	VENUS	1557	n/a	0	n/a	0	0	0	0	0.5869140625	0.422607421875	lower	../fonts/amplitud.ttf
826790	WORD	wordpools/wasnorm_wordpool.txt	LTP089	ltpFR	8	4	0	PAWN	1030	n/a	1	n/a	0	0	0	0	0.5869140625	0.422607421875	lower	../fonts/amplitud.ttf
830889	WORD	wordpools/wasnorm_wordpool.txt	LTP089	ltpFR	8	4	0	CAPITAL	238	n/a	0	n/a	0	0	0	0	0.5869140625	0.422607421875	lower	../fonts/amplitud.ttf
834797	WORD	wordpools/wasnorm_wordpool.txt	LTP089	ltpFR	8	4	0	DRUM	502	n/a	0	n/a	0	0	0	0	0.5869140625	0.422607421875	lower	../fonts/amplitud.ttf
838955	WORD	wordpools/wasnorm_wordpool.txt	LTP089	ltpFR	8	4	0	COYOTE	396	n/a	1	n/a	0	0	0	0	0.5869140625	0.422607421875	lower	../fonts/amplitud.ttf
842855	WORD	wordpools/wasnorm_wordpool.txt	LTP089	ltpFR	8	4	0	PIPE	1073	n/a	0	n/a	0	0	0	0	0.5869140625	0.422607421875	lower	../fonts/amplitud.ttf
846971	WORD	wordpools/wasnorm_wordpool.txt	LTP089	ltpFR	8	4	0	FREEWAY	603	n/a	0	n/a	0	0	0	0	0.5869140625	0.422607421875	lower	../fonts/amplitud.ttf
850846	WORD	wordpools/wasnorm_wordpool.txt	LTP089	ltpFR	8	4	0	ALLEY	15	n/a	1	n/a	0	0	0	0	0.5869140625	0.422607421875	lower	../fonts/amplitud.ttf
854971	WORD	wordpools/wasnorm_wordpool.txt	LTP089	ltpFR	8	4	0	PUMPKIN	1142	n/a	0	n/a	0	0	0	0	0.5869140625	0.422607421875	lower	../fonts/amplitud.ttf
859012	WORD	wordpools/wasnorm_wordpool.txt	LTP089	ltpFR	8	4	0	PEAR	1033	n/a	1	n/a	0	0	0	0	0.5869140625	0.422607421875	lower	../fonts/amplitud.ttf
862862	WORD	wordpools/wasnorm_wordpool.txt	LTP089	ltpFR	8	4	0	BUTTON	207	n/a	1	n/a	0	0	0	0	0.5869140625	0.422607421875	lower	../fonts/amplitud.ttf
865870	START	n/a	LTP089	ltpFR	8	n/a	n/a	n/a	n/a	n/a	n/a	n/a	n/a	n/a	n/a	n/a	n/a	n/a	n/a	n/a
866903	PROB	n/a	LTP089	ltpFR	8	n/a	n/a	n/a	n/a	n/a	n/a	17	9	4	4	n/a	n/a	n/a	n/a	n/a
869420	PROB	n/a	LTP089	ltpFR	8	n/a	n/a	n/a	n/a	n/a	n/a	21	5	8	8	n/a	n/a	n/a	n/a	n/a
872411	PROB	n/a	LTP089	ltpFR	8	n/a	n/a	n/a	n/a	n/a	n/a	10	2	7	1	n/a	n/a	n/a	n/a	n/a
874411	PROB	n/a	LTP089	ltpFR	8	n/a	n/a	n/a	n/a	n/a	n/a	10	2	6	2	n/a	n/a	n/a	n/a	n/a
877027	PROB	n/a	LTP089	ltpFR	8	n/a	n/a	n/a	n/a	n/a	n/a	15	7	2	6	n/a	n/a	n/a	n/a	n/a
879452	PROB	n/a	LTP089	ltpFR	8	n/a	n/a	n/a	n/a	n/a	n/a	8	4	3	1	n/a	n/a	n/a	n/a	n/a
881452	STOP	n/a	LTP089	ltpFR	8	n/a	n/a	n/a	n/a	n/a	n/a	n/a	n/a	n/a	n/a	n/a	n/a	n/a	n/a	n/a
883794	REC_START	n/a	LTP089	ltpFR	8	4	n/a	n/a	n/a	n/a	n/a	n/a	0	0	0	n/a	n/a	n/a	n/a	n/a
888428	REC_WORD	wordpools/wasnorm_wordpool.txt	LTP089	ltpFR	8	4	0	DRUM	502	n/a	0	n/a	0	0	0	n/a	n/a	n/a	n/a	n/a
891651	REC_WORD	wordpools/wasnorm_wordpool.txt	LTP089	ltpFR	8	4	0	EWE	542	n/a	0	n/a	0	0	0	n/a	n/a	n/a	n/a	n/a
895073	REC_WORD	wordpools/wasnorm_wordpool.txt	LTP089	ltpFR	8	4	0	COYOTE	396	n/a	1	n/a	0	0	0	n/a	n/a	n/a	n/a	n/a
895460	REC_WORD_VV	wordpools/wasnorm_wordpool.txt	LTP089	ltpFR	8	4	n/a	<>	-1	n/a	n/a	n/a	0	0	0	n/a	n/a	n/a	n/a	n/a
982195	START	n/a	LTP089	ltpFR	8	n/a	n/a	n/a	n/a	n/a	n/a	n/a	n/a	n/a	n/a	n/a	n/a	n/a	n/a	n/a
983702	PROB	n/a	LTP089	ltpFR	8	n/a	n/a	n/a	n/a	n/a	n/a	20	6	6	8	n/a	n/a	n/a	n/a	n/a
985844	PROB	n/a	LTP089	ltpFR	8	n/a	n/a	n/a	n/a	n/a	n/a	15	9	5	1	n/a	n/a	n/a	n/a	n/a
987436	PROB	n/a	LTP089	ltpFR	8	n/a	n/a	n/a	n/a	n/a	n/a	7	4	1	2	n/a	n/a	n/a	n/a	n/a
989660	PROB	n/a	LTP089	ltpFR	8	n/a	n/a	n/a	n/a	n/a	n/a	10	2	4	4	n/a	n/a	n/a	n/a	n/a
991302	PROB	n/a	LTP089	ltpFR	8	n/a	n/a	n/a	n/a	n/a	n/a	18	5	5	8	n/a	n/a	n/a	n/a	n/a
994052	PROB	n/a	LTP089	ltpFR	8	n/a	n/a	n/a	n/a	n/a	n/a	13	3	7	3	n/a	n/a	n/a	n/a	n/a
998195	STOP	n/a	LTP089	ltpFR	8	n/a	n/a	n/a	n/a	n/a	n/a	n/a	n/a	n/a	n/a	n/a	n/a	n/a	n/a	n/a
999126	WORD	wordpools/wasnorm_wordpool.txt	LTP089	ltpFR	8	5	1	ROOSTER	1209	n/a	0	n/a	0	0	0	1	0.412841796875	0.57763671875	upper	../fonts/zerothre.ttf
1002127	START	n/a	LTP089	ltpFR	8	n/a	n/a	n/a	n/a	n/a	n/a	n/a	n/a	n/a	n/a	n/a	n/a	n/a	n/a	n/a
1003118	PROB	n/a	LTP089	ltpFR	8	n/a	n/a	n/a	n/a	n/a	n/a	24	7	9	8	n/a	n/a	n/a	n/a	n/a
1010292	PROB	n/a	LTP089	ltpFR	8	n/a	n/a	n/a	n/a	n/a	n/a	18	8	5	5	n/a	n/a	n/a	n/a	n/a
1012150	PROB	n/a	LTP089	ltpFR	8	n/a	n/a	n/a	n/a	n/a	n/a	15	1	5	8	n/a	n/a	n/a	n/a	n/a
1017076	STOP	n/a	LTP089	ltpFR	8	n/a	n/a	n/a	n/a	n/a	n/a	n/a	n/a	n/a	n/a	n/a	n/a	n/a	n/a	n/a
1019108	WORD	wordpools/wasnorm_wordpool.txt	LTP089	ltpFR	8	5	1	TRANSPLANT	1496	n/a	0	n/a	0	0	0	1	0.412841796875	0.57763671875	upper	../fonts/zerothre.ttf
1022117	START	n/a	LTP089	ltpFR	8	n/a	n/a	n/a	n/a	n/a	n/a	n/a	n/a	n/a	n/a	n/a	n/a	n/a	n/a	n/a
1022991	PROB	n/a	LTP089	ltpFR	8	n/a	n/a	n/a	n/a	n/a	n/a	10	2	3	5	n/a	n/a	n/a	n/a	n/a
1024908	PROB	n/a	LTP089	ltpFR	8	n/a	n/a	n/a	n/a	n/a	n/a	14	3	2	9	n/a	n/a	n/a	n/a	n/a
1029616	PROB	n/a	LTP089	ltpFR	8	n/a	n/a	n/a	n/a	n/a	n/a	24	6	9	7	n/a	n/a	n/a	n/a	n/a
1033274	PROB	n/a	LTP089	ltpFR	8	n/a	n/a	n/a	n/a	n/a	n/a	14	4	6	4	n/a	n/a	n/a	n/a	n/a
1035232	PROB	n/a	LTP089	ltpFR	8	n/a	n/a	n/a	n/a	n/a	n/a	15	9	3	3	n/a	n/a	n/a	n/a	n/a
1037860	STOP	n/a	LTP089	ltpFR	8	n/a	n/a	n/a	n/a	n/a	n/a	n/a	n/a	n/a	n/a	n/a	n/a	n/a	n/a	n/a
1038973	WORD	wordpools/wasnorm_wordpool.txt	LTP089	ltpFR	8	5	0	PAINT	1003	n/a	0	n/a	0	0	0	0	0.5869140625	0.422607421875	lower	../fonts/amplitud.ttf
1041982	START	n/a	LTP089	ltpFR	8	n/a	n/a	n/a	n/a	n/a	n/a	n/a	n/a	n/a	n/a	n/a	n/a	n/a	n/a	n/a
1042798	PROB	n/a	LTP089	ltpFR	8	n/a	n/a	n/a	n/a	n/a	n/a	11	2	4	5	n/a	n/a	n/a	n/a	n/a
1045256	PROB	n/a	LTP089	ltpFR	8	n/a	n/a	n/a	n/a	n/a	n/a	9	1	3	5	n/a	n/a	n/a	n/a	n/a
1048156	PROB	n/a	LTP089	ltpFR	8	n/a	n/a	n/a	n/a	n/a	n/a	17	7	4	6	n/a	n/a	n/a	n/a	n/a
1050906	PROB	n/a	LTP089	ltpFR	8	n/a	n/a	n/a	n/a	n/a	n/a	14	7	3	4	n/a	n/a	n/a	n/a	n/a
1052606	PROB	n/a	LTP089	ltpFR	8	n/a	n/a	n/a	n/a	n/a	n/a	16	4	3	9	n/a	n/a	n/a	n/a	n/a
1057982	STOP	n/a	LTP089	ltpFR	8	n/a	n/a	n/a	n/a	n/a	n/a	n/a	n/a	n/a	n/a	n/a	n/a	n/a	n/a	n/a
1059147	WORD	wordpools/wasnorm_wordpool.txt	LTP089	ltpFR	8	5	0	CHARCOAL	281	n/a	2	n/a	0	0	0	0	0.5869140625	0.422607421875	lower	../fonts/amplitud.ttf
1059838	KEY_MSG	n/a	LTP089	ltpFR	8	5	n/a	n/a	n/a	n/a	n/a	n/a	0	0	0	n/a	n/a	n/a	n/a	n/a
1062155	START	n/a	LTP089	ltpFR	8	n/a	n/a	n/a	n/a	n/a	n/a	n/a	n/a	n/a	n/a	n/a	n/a	n/a	n/a	n/a
1063338	PROB	n/a	LTP089	ltpFR	8	n/a	n/a	n/a	n/a	n/a	n/a	18	3	8	7	n/a	n/a	n/a	n/a	n/a
1065996	PROB	n/a	LTP089	ltpFR	8	n/a	n/a	n/a	n/a	n/a	n/a	14	7	6	1	n/a	n/a	n/a	n/a	n/a
1068463	PROB	n/a	LTP089	ltpFR	8	n/a	n/a	n/a	n/a	n/a	n/a	8	2	2	4	n/a	n/a	n/a	n/a	n/a
1070579	PROB	n/a	LTP089	ltpFR	8	n/a	n/a	n/a	n/a	n/a	n/a	14	4	8	2	n/a	n/a	n/a	n/a	n/a
1072537	PROB	n/a	LTP089	ltpFR	8	n/a	n/a	n/a	n/a	n/a	n/a	19	6	4	9	n/a	n/a	n/a	n/a	n/a
1074795	PROB	n/a	LTP089	ltpFR	8	n/a	n/a	n/a	n/a	n/a	n/a	18	5	6	7	n/a	n/a	n/a	n/a	n/a
1077100	STOP	n/a	LTP089	ltpFR	8	n/a	n/a	n/a	n/a	n/a	n/a	n/a	n/a	n/a	n/a	n/a	n/a	n/a	n/a	n/a
1078995	WORD	wordpools/wasnorm_wordpool.txt	LTP089	ltpFR	8	5	0	GREASE	660	n/a	0	n/a	0	0	0	0	0.5869140625	0.422607421875	lower	../fonts/amplitud.ttf
1082004	START	n/a	LTP089	ltpFR	8	n/a	n/a	n/a	n/a	n/a	n/a	n/a	n/a	n/a	n/a	n/a	n/a	n/a	n/a	n/a
1083111	PROB	n/a	LTP089	ltpFR	8	n/a	n/a	n/a	n/a	n/a	n/a	18	9	3	6	n/a	n/a	n/a	n/a	n/a
1086861	PROB	n/a	LTP089	ltpFR	8	n/a	n/a	n/a	n/a	n/a	n/a	17	6	9	3	n/a	n/a	n/a	n/a	n/a
1089828	PROB	n/a	LTP089	ltpFR	8	n/a	n/a	n/a	n/a	n/a	n/a	21	7	5	9	n/a	n/a	n/a	n/a	n/a
1092886	PROB	n/a	LTP089	ltpFR	8	n/a	n/a	n/a	n/a	n/a	n/a	13	5	1	7	n/a	n/a	n/a	n/a	n/a
1098004	STOP	n/a	LTP089	ltpFR	8	n/a	n/a	n/a	n/a	n/a	n/a	n/a	n/a	n/a	n/a	n/a	n/a	n/a	n/a	n/a
1099052	WORD	wordpools/wasnorm_wordpool.txt	LTP089	ltpFR	8	5	0	STEREO	1378	n/a	0	n/a	0	0	0	0	0.5869140625	0.422607421875	lower	../fonts/amplitud.ttf
1102060	START	n/a	LTP089	ltpFR	8	n/a	n/a	n/a	n/a	n/a	n/a	n/a	n/a	n/a	n/a	n/a	n/a	n/a	n/a	n/a
1103043	PROB	n/a	LTP089	ltpFR	8	n/a	n/a	n/a	n/a	n/a	n/a	20	6	8	6	n/a	n/a	n/a	n/a	n/a
1105585	PROB	n/a	LTP089	ltpFR	8	n/a	n/a	n/a	n/a	n/a	n/a	18	6	5	7	n/a	n/a	n/a	n/a	n/a
1108126	PROB	n/a	LTP089	ltpFR	8	n/a	n/a	n/a	n/a	n/a	n/a	13	6	3	4	n/a	n/a	n/a	n/a	n/a
1111351	PROB	n/a	LTP089	ltpFR	8	n/a	n/a	n/a	n/a	n/a	n/a	17	7	8	2	n/a	n/a	n/a	n/a	n/a
1113700	PROB	n/a	LTP089	ltpFR	8	n/a	n/a	n/a	n/a	n/a	n/a	13	5	1	7	n/a	n/a	n/a	n/a	n/a
1116637	STOP	n/a	LTP089	ltpFR	8	n/a	n/a	n/a	n/a	n/a	n/a	n/a	n/a	n/a	n/a	n/a	n/a	n/a	n/a	n/a
1119125	WORD	wordpools/wasnorm_wordpool.txt	LTP089	ltpFR	8	5	0	VIOLIN	1571	n/a	2	n/a	0	0	0	0	0.5869140625	0.422607421875	lower	../fonts/amplitud.ttf
1120909	KEY_MSG	n/a	LTP089	ltpFR	8	5	n/a	n/a	n/a	n/a	n/a	n/a	0	0	0	n/a	n/a	n/a	n/a	n/a
1122426	START	n/a	LTP089	ltpFR	8	n/a	n/a	n/a	n/a	n/a	n/a	n/a	n/a	n/a	n/a	n/a	n/a	n/a	n/a	n/a
1123275	PROB	n/a	LTP089	ltpFR	8	n/a	n/a	n/a	n/a	n/a	n/a	17	4	4	9	n/a	n/a	n/a	n/a	n/a
1126267	PROB	n/a	LTP089	ltpFR	8	n/a	n/a	n/a	n/a	n/a	n/a	9	1	4	4	n/a	n/a	n/a	n/a	n/a
1128175	PROB	n/a	LTP089	ltpFR	8	n/a	n/a	n/a	n/a	n/a	n/a	22	7	8	8	n/a	n/a	n/a	n/a	n/a
1131683	PROB	n/a	LTP089	ltpFR	8	n/a	n/a	n/a	n/a	n/a	n/a	10	1	3	6	n/a	n/a	n/a	n/a	n/a
1133574	PROB	n/a	LTP089	ltpFR	8	n/a	n/a	n/a	n/a	n/a	n/a	14	4	2	8	n/a	n/a	n/a	n/a	n/a
1138425	STOP	n/a	LTP089	ltpFR	8	n/a	n/a	n/a	n/a	n/a	n/a	n/a	n/a	n/a	n/a	n/a	n/a	n/a	n/a	n/a
1139382	WORD	wordpools/wasnorm_wordpool.txt	LTP089	ltpFR	8	5	1	DINOSAUR	469	n/a	2	n/a	0	0	0	1	0.412841796875	0.57763671875	upper	../fonts/zerothre.ttf
1140390	KEY_MSG	n/a	LTP089	ltpFR	8	5	n/a	n/a	n/a	n/a	n/a	n/a	0	0	0	n/a	n/a	n/a	n/a	n/a
1142391	START	n/a	LTP089	ltpFR	8	n/a	n/a	n/a	n/a	n/a	n/a	n/a	n/a	n/a	n/a	n/a	n/a	n/a	n/a	n/a
1143373	PROB	n/a	LTP089	ltpFR	8	n/a	n/a	n/a	n/a	n/a	n/a	20	9	4	7	n/a	n/a	n/a	n/a	n/a
1145714	PROB	n/a	LTP089	ltpFR	8	n/a	n/a	n/a	n/a	n/a	n/a	21	5	8	6	n/a	n/a	n/a	n/a	n/a
1149598	PROB	n/a	LTP089	ltpFR	8	n/a	n/a	n/a	n/a	n/a	n/a	11	2	4	5	n/a	n/a	n/a	n/a	n/a
1152423	PROB	n/a	LTP089	ltpFR	8	n/a	n/a	n/a	n/a	n/a	n/a	7	2	4	1	n/a	n/a	n/a	n/a	n/a
1155198	PROB	n/a	LTP089	ltpFR	8	n/a	n/a	n/a	n/a	n/a	n/a	10	1	3	6	n/a	n/a	n/a	n/a	n/a
1157101	STOP	n/a	LTP089	ltpFR	8	n/a	n/a	n/a	n/a	n/a	n/a	n/a	n/a	n/a	n/a	n/a	n/a	n/a	n/a	n/a
1159214	WORD	wordpools/wasnorm_wordpool.txt	LTP089	ltpFR	8	5	1	PAINTER	1004	n/a	0	n/a	0	0	0	1	0.412841796875	0.57763671875	upper	../fonts/zerothre.ttf
1162222	START	n/a	LTP089	ltpFR	8	n/a	n/a	n/a	n/a	n/a	n/a	n/a	n/a	n/a	n/a	n/a	n/a	n/a	n/a	n/a
1163047	PROB	n/a	LTP089	ltpFR	8	n/a	n/a	n/a	n/a	n/a	n/a	17	7	6	4	n/a	n/a	n/a	n/a	n/a
1165122	PROB	n/a	LTP089	ltpFR	8	n/a	n/a	n/a	n/a	n/a	n/a	18	6	4	8	n/a	n/a	n/a	n/a	n/a
1167005	PROB	n/a	LTP089	ltpFR	8	n/a	n/a	n/a	n/a	n/a	n/a	8	1	1	6	n/a	n/a	n/a	n/a	n/a
1169638	PROB	n/a	LTP089	ltpFR	8	n/a	n/a	n/a	n/a	n/a	n/a	21	4	9	8	n/a	n/a	n/a	n/a	n/a
1173703	PROB	n/a	LTP089	ltpFR	8	n/a	n/a	n/a	n/a	n/a	n/a	11	2	8	1	n/a	n/a	n/a	n/a	n/a
1178221	STOP	n/a	LTP089	ltpFR	8	n/a	n/a	n/a	n/a	n/a	n/a	n/a	n/a	n/a	n/a	n/a	n/a	n/a	n/a	n/a
1179146	WORD	wordpools/wasnorm_wordpool.txt	LTP089	ltpFR	8	5	1	FIN	566	n/a	0	n/a	0	0	0	1	0.412841796875	0.57763671875	upper	../fonts/zerothre.ttf
1182154	START	n/a	LTP089	ltpFR	8	n/a	n/a	n/a	n/a	n/a	n/a	n/a	n/a	n/a	n/a	n/a	n/a	n/a	n/a	n/a
1182995	PROB	n/a	LTP089	ltpFR	8	n/a	n/a	n/a	n/a	n/a	n/a	10	7	1	2	n/a	n/a	n/a	n/a	n/a
1184445	PROB	n/a	LTP089	ltpFR	8	n/a	n/a	n/a	n/a	n/a	n/a	13	9	3	1	n/a	n/a	n/a	n/a	n/a
1186070	PROB	n/a	LTP089	ltpFR	8	n/a	n/a	n/a	n/a	n/a	n/a	17	5	4	8	n/a	n/a	n/a	n/a	n/a
1188453	PROB	n/a	LTP089	ltpFR	8	n/a	n/a	n/a	n/a	n/a	n/a	1	6	8	5	n/a	n/a	n/a	n/a	n/a
1190903	PROB	n/a	LTP089	ltpFR	8	n/a	n/a	n/a	n/a	n/a	n/a	18	7	7	4	n/a	n/a	n/a	n/a	n/a
1193853	PROB	n/a	LTP089	ltpFR	8	n/a	n/a	n/a	n/a	n/a	n/a	23	8	9	6	n/a	n/a	n/a	n/a	n/a
1197204	STOP	n/a	LTP089	ltpFR	8	n/a	n/a	n/a	n/a	n/a	n/a	n/a	n/a	n/a	n/a	n/a	n/a	n/a	n/a	n/a
1198986	WORD	wordpools/wasnorm_wordpool.txt	LTP089	ltpFR	8	5	1	GARDEN	623	n/a	0	n/a	0	0	0	1	0.412841796875	0.57763671875	upper	../fonts/zerothre.ttf
1201994	START	n/a	LTP089	ltpFR	8	n/a	n/a	n/a	n/a	n/a	n/a	n/a	n/a	n/a	n/a	n/a	n/a	n/a	n/a	n/a
1203036	PROB	n/a	LTP089	ltpFR	8	n/a	n/a	n/a	n/a	n/a	n/a	17	8	5	4	n/a	n/a	n/a	n/a	n/a
1206860	PROB	n/a	LTP089	ltpFR	8	n/a	n/a	n/a	n/a	n/a	n/a	20	6	7	7	n/a	n/a	n/a	n/a	n/a
1208993	PROB	n/a	LTP089	ltpFR	8	n/a	n/a	n/a	n/a	n/a	n/a	20	9	4	9	n/a	n/a	n/a	n/a	n/a
1211318	PROB	n/a	LTP089	ltpFR	8	n/a	n/a	n/a	n/a	n/a	n/a	20	6	8	6	n/a	n/a	n/a	n/a	n/a
1213968	PROB	n/a	LTP089	ltpFR	8	n/a	n/a	n/a	n/a	n/a	n/a	9	2	6	1	n/a	n/a	n/a	n/a	n/a
1217994	STOP	n/a	LTP089	ltpFR	8	n/a	n/a	n/a	n/a	n/a	n/a	n/a	n/a	n/a	n/a	n/a	n/a	n/a	n/a	n/a
1219001	WORD	wordpools/wasnorm_wordpool.txt	LTP089	ltpFR	8	5	0	SCROLL	1257	n/a	2	n/a	0	0	0	0	0.5869140625	0.422607421875	lower	../fonts/amplitud.ttf
1219576	KEY_MSG	n/a	LTP089	ltpFR	8	5	n/a	n/a	n/a	n/a	n/a	n/a	0	0	0	n/a	n/a	n/a	n/a	n/a
1222010	START	n/a	LTP089	ltpFR	8	n/a	n/a	n/a	n/a	n/a	n/a	n/a	n/a	n/a	n/a	n/a	n/a	n/a	n/a	n/a
1223092	PROB	n/a	LTP089	ltpFR	8	n/a	n/a	n/a	n/a	n/a	n/a	18	6	6	6	n/a	n/a	n/a	n/a	n/a
1225176	PROB	n/a	LTP089	ltpFR	8	n/a	n/a	n/a	n/a	n/a	n/a	23	8	7	8	n/a	n/a	n/a	n/a	n/a
1230783	PROB	n/a	LTP089	ltpFR	8	n/a	n/a	n/a	n/a	n/a	n/a	16	7	6	3	n/a	n/a	n/a	n/a	n/a
1233400	PROB	n/a	LTP089	ltpFR	8	n/a	n/a	n/a	n/a	n/a	n/a	18	3	8	7	n/a	n/a	n/a	n/a	n/a
1238010	STOP	n/a	LTP089	ltpFR	8	n/a	n/a	n/a	n/a	n/a	n/a	n/a	n/a	n/a	n/a	n/a	n/a	n/a	n/a	n/a
1239175	WORD	wordpools/wasnorm_wordpool.txt	LTP089	ltpFR	8	5	0	ROBIN	1199	n/a	0	n/a	0	0	0	0	0.5869140625	0.422607421875	lower	../fonts/amplitud.ttf
1242183	START	n/a	LTP089	ltpFR	8	n/a	n/a	n/a	n/a	n/a	n/a	n/a	n/a	n/a	n/a	n/a	n/a	n/a	n/a	n/a
1243308	PROB	n/a	LTP089	ltpFR	8	n/a	n/a	n/a	n/a	n/a	n/a	14	1	5	7	n/a	n/a	n/a	n/a	n/a
1247524	PROB	n/a	LTP089	ltpFR	8	n/a	n/a	n/a	n/a	n/a	n/a	19	5	9	5	n/a	n/a	n/a	n/a	n/a
1250324	PROB	n/a	LTP089	ltpFR	8	n/a	n/a	n/a	n/a	n/a	n/a	21	5	8	8	n/a	n/a	n/a	n/a	n/a
1252732	PROB	n/a	LTP089	ltpFR	8	n/a	n/a	n/a	n/a	n/a	n/a	12	8	1	3	n/a	n/a	n/a	n/a	n/a
1258183	STOP	n/a	LTP089	ltpFR	8	n/a	n/a	n/a	n/a	n/a	n/a	n/a	n/a	n/a	n/a	n/a	n/a	n/a	n/a	n/a
1259390	WORD	wordpools/wasnorm_wordpool.txt	LTP089	ltpFR	8	5	0	THORN	1459	n/a	0	n/a	0	0	0	0	0.5869140625	0.422607421875	lower	../fonts/amplitud.ttf
1262398	START	n/a	LTP089	ltpFR	8	n/a	n/a	n/a	n/a	n/a	n/a	n/a	n/a	n/a	n/a	n/a	n/a	n/a	n/a	n/a
1263514	PROB	n/a	LTP089	ltpFR	8	n/a	n/a	n/a	n/a	n/a	n/a	15	7	5	3	n/a	n/a	n/a	n/a	n/a
1267439	PROB	n/a	LTP089	ltpFR	8	n/a	n/a	n/a	n/a	n/a	n/a	20	3	9	8	n/a	n/a	n/a	n/a	n/a
1271664	PROB	n/a	LTP089	ltpFR	8	n/a	n/a	n/a	n/a	n/a	n/a	17	4	9	4	n/a	n/a	n/a	n/a	n/a
1278397	STOP	n/a	LTP089	ltpFR	8	n/a	n/a	n/a	n/a	n/a	n/a	n/a	n/a	n/a	n/a	n/a	n/a	n/a	n/a	n/a
1279505	WORD	wordpools/wasnorm_wordpool.txt	LTP089	ltpFR	8	5	1	DISC	473	n/a	0	n/a	0	0	0	1	0.412841796875	0.57763671875	upper	../fonts/zerothre.ttf
1282513	START	n/a	LTP089	ltpFR	8	n/a	n/a	n/a	n/a	n/a	n/a	n/a	n/a	n/a	n/a	n/a	n/a	n/a	n/a	n/a
1283371	PROB	n/a	LTP089	ltpFR	8	n/a	n/a	n/a	n/a	n/a	n/a	13	3	5	5	n/a	n/a	n/a	n/a	n/a
1285054	PROB	n/a	LTP089	ltpFR	8	n/a	n/a	n/a	n/a	n/a	n/a	5	2	1	1	n/a	n/a	n/a	n/a	n/a
1286854	PROB	n/a	LTP089	ltpFR	8	n/a	n/a	n/a	n/a	n/a	n/a	7	3	2	2	n/a	n/a	n/a	n/a	n/a
1289104	PROB	n/a	LTP089	ltpFR	8	n/a	n/a	n/a	n/a	n/a	n/a	15	7	4	4	n/a	n/a	n/a	n/a	n/a
1291687	PROB	n/a	LTP089	ltpFR	8	n/a	n/a	n/a	n/a	n/a	n/a	22	8	6	8	n/a	n/a	n/a	n/a	n/a
1295612	PROB	n/a	LTP089	ltpFR	8	n/a	n/a	n/a	n/a	n/a	n/a	11	1	7	3	n/a	n/a	n/a	n/a	n/a
1297885	STOP	n/a	LTP089	ltpFR	8	n/a	n/a	n/a	n/a	n/a	n/a	n/a	n/a	n/a	n/a	n/a	n/a	n/a	n/a	n/a
1299662	WORD	wordpools/wasnorm_wordpool.txt	LTP089	ltpFR	8	5	1	PRINTER	1126	n/a	0	n/a	0	0	0	1	0.412841796875	0.57763671875	upper	../fonts/zerothre.ttf
1302670	START	n/a	LTP089	ltpFR	8	n/a	n/a	n/a	n/a	n/a	n/a	n/a	n/a	n/a	n/a	n/a	n/a	n/a	n/a	n/a
1303686	PROB	n/a	LTP089	ltpFR	8	n/a	n/a	n/a	n/a	n/a	n/a	24	7	8	9	n/a	n/a	n/a	n/a	n/a
1310086	PROB	n/a	LTP089	ltpFR	8	n/a	n/a	n/a	n/a	n/a	n/a	13	7	4	2	n/a	n/a	n/a	n/a	n/a
1312885	PROB	n/a	LTP089	ltpFR	8	n/a	n/a	n/a	n/a	n/a	n/a	24	8	8	8	n/a	n/a	n/a	n/a	n/a
1314744	PROB	n/a	LTP089	ltpFR	8	n/a	n/a	n/a	n/a	n/a	n/a	7	1	5	1	n/a	n/a	n/a	n/a	n/a
1316768	PROB	n/a	LTP089	ltpFR	8	n/a	n/a	n/a	n/a	n/a	n/a	3	1	1	1	n/a	n/a	n/a	n/a	n/a
1317916	STOP	n/a	LTP089	ltpFR	8	n/a	n/a	n/a	n/a	n/a	n/a	n/a	n/a	n/a	n/a	n/a	n/a	n/a	n/a	n/a
1320427	REC_START	n/a	LTP089	ltpFR	8	5	n/a	n/a	n/a	n/a	n/a	n/a	0	0	0	n/a	n/a	n/a	n/a	n/a
1323265	REC_WORD	wordpools/wasnorm_wordpool.txt	LTP089	ltpFR	8	5	1	PAINTER	1004	n/a	0	n/a	0	0	0	n/a	n/a	n/a	n/a	n/a
1324627	REC_WORD	wordpools/wasnorm_wordpool.txt	LTP089	ltpFR	8	5	n/a	CHEETAH	-1	n/a	n/a	n/a	0	0	0	n/a	n/a	n/a	n/a	n/a
1423519	WORD	wordpools/wasnorm_wordpool.txt	LTP089	ltpFR	8	6	0	CHERRY	293	n/a	2	n/a	0	0	0	0	0.5869140625	0.422607421875	lower	../fonts/amplitud.ttf
1424310	KEY_MSG	n/a	LTP089	ltpFR	8	6	n/a	n/a	n/a	n/a	n/a	n/a	0	0	0	n/a	n/a	n/a	n/a	n/a
1427502	WORD	wordpools/wasnorm_wordpool.txt	LTP089	ltpFR	8	6	0	KIWI	781	n/a	0	n/a	0	0	0	0	0.5869140625	0.422607421875	lower	../fonts/amplitud.ttf
1431426	WORD	wordpools/wasnorm_wordpool.txt	LTP089	ltpFR	8	6	0	SPONGE	1355	n/a	0	n/a	0	0	0	0	0.5869140625	0.422607421875	lower	../fonts/amplitud.ttf
1435493	WORD	wordpools/wasnorm_wordpool.txt	LTP089	ltpFR	8	6	1	CUSTOMER	430	n/a	0	n/a	0	0	0	1	0.412841796875	0.57763671875	upper	../fonts/zerothre.ttf
1439467	WORD	wordpools/wasnorm_wordpool.txt	LTP089	ltpFR	8	6	1	RECEIPT	1173	n/a	1	n/a	0	0	0	1	0.412841796875	0.57763671875	upper	../fonts/zerothre.ttf
1443567	WORD	wordpools/wasnorm_wordpool.txt	LTP089	ltpFR	8	6	1	KLEENEX	782	n/a	1	n/a	0	0	0	1	0.412841796875	0.57763671875	upper	../fonts/zerothre.ttf
1447442	WORD	wordpools/wasnorm_wordpool.txt	LTP089	ltpFR	8	6	1	PICKLE	1059	n/a	0	n/a	0	0	0	1	0.412841796875	0.57763671875	upper	../fonts/zerothre.ttf
1451566	WORD	wordpools/wasnorm_wordpool.txt	LTP089	ltpFR	8	6	1	DOG	480	n/a	0	n/a	0	0	0	1	0.412841796875	0.57763671875	upper	../fonts/zerothre.ttf
1455566	WORD	wordpools/wasnorm_wordpool.txt	LTP089	ltpFR	8	6	1	SKELETON	1314	n/a	0	n/a	0	0	0	1	0.412841796875	0.57763671875	upper	../fonts/zerothre.ttf
1459574	WORD	wordpools/wasnorm_wordpool.txt	LTP089	ltpFR	8	6	0	MUSHROOM	934	n/a	0	n/a	0	0	0	0	0.5869140625	0.422607421875	lower	../fonts/amplitud.ttf
1463624	WORD	wordpools/wasnorm_wordpool.txt	LTP089	ltpFR	8	6	0	BATHROOM	99	n/a	0	n/a	0	0	0	0	0.5869140625	0.422607421875	lower	../fonts/amplitud.ttf
1467782	WORD	wordpools/wasnorm_wordpool.txt	LTP089	ltpFR	8	6	0	CASHIER	254	n/a	0	n/a	0	0	0	0	0.5869140625	0.422607421875	lower	../fonts/amplitud.ttf
1471881	WORD	wordpools/wasnorm_wordpool.txt	LTP089	ltpFR	8	6	0	BUTTER	205	n/a	0	n/a	0	0	0	0	0.5869140625	0.422607421875	lower	../fonts/amplitud.ttf
1476006	WORD	wordpools/wasnorm_wordpool.txt	LTP089	ltpFR	8	6	0	MONKEY	911	n/a	0	n/a	0	0	0	0	0.5869140625	0.422607421875	lower	../fonts/amplitud.ttf
1480131	WORD	wordpools/wasnorm_wordpool.txt	LTP089	ltpFR	8	6	1	CAVE	263	n/a	3	n/a	0	0	0	1	0.412841796875	0.57763671875	upper	../fonts/zerothre.ttf
1480981	KEY_MSG	n/a	LTP089	ltpFR	8	6	n/a	n/a	n/a	n/a	n/a	n/a	0	0	0	n/a	n/a	n/a	n/a	n/a
1484064	WORD	wordpools/wasnorm_wordpool.txt	LTP089	ltpFR	8	6	1	PEANUT	1032	n/a	1	n/a	0	0	0	1	0.412841796875	0.57763671875	upper	../fonts/zerothre.ttf
1487072	START	n/a	LTP089	ltpFR	8	n/a	n/a	n/a	n/a	n/a	n/a	n/a	n/a	n/a	n/a	n/a	n/a	n/a	n/a	n/a
1488205	PROB	n/a	LTP089	ltpFR	8	n/a	n/a	n/a	n/a	n/a	n/a	16	3	5	8	n/a	n/a	n/a	n/a	n/a
1491613	PROB	n/a	LTP089	ltpFR	8	n/a	n/a	n/a	n/a	n/a	n/a	17	9	4	6	n/a	n/a	n/a	n/a	n/a
1494109	STOP	n/a	LTP089	ltpFR	8	n/a	n/a	n/a	n/a	n/a	n/a	n/a	n/a	n/a	n/a	n/a	n/a	n/a	n/a	n/a
1496830	REC_START	n/a	LTP089	ltpFR	8	6	n/a	n/a	n/a	n/a	n/a	n/a	0	0	0	n/a	n/a	n/a	n/a	n/a
1499628	REC_WORD	wordpools/wasnorm_wordpool.txt	LTP089	ltpFR	8	6	1	CAVE	263	n/a	3	n/a	0	0	0	n/a	n/a	n/a	n/a	n/a
1500551	REC_WORD	wordpools/wasnorm_wordpool.txt	LTP089	ltpFR	8	6	1	PEANUT	1032	n/a	1	n/a	0	0	0	n/a	n/a	n/a	n/a	n/a
1501374	REC_WORD	wordpools/wasnorm_wordpool.txt	LTP089	ltpFR	8	6	0	KIWI	781	n/a	0	n/a	0	0	0	n/a	n/a	n/a	n/a	n/a
1502422	REC_WORD	wordpools/wasnorm_wordpool.txt	LTP089	ltpFR	8	6	0	CHERRY	293	n/a	2	n/a	0	0	0	n/a	n/a	n/a	n/a	n/a
1504637	REC_WORD_VV	wordpools/wasnorm_wordpool.txt	LTP089	ltpFR	8	6	n/a	<>	-1	n/a	n/a	n/a	0	0	0	n/a	n/a	n/a	n/a	n/a
1584756	WORD	wordpools/wasnorm_wordpool.txt	LTP089	ltpFR	8	7	1	SILVERWARE	1308	n/a	2	n/a	0	0	0	1	0.412841796875	0.57763671875	upper	../fonts/zerothre.ttf
1585681	KEY_MSG	n/a	LTP089	ltpFR	8	7	n/a	n/a	n/a	n/a	n/a	n/a	0	0	0	n/a	n/a	n/a	n/a	n/a
1588681	WORD	wordpools/wasnorm_wordpool.txt	LTP089	ltpFR	8	7	1	HATCHET	691	n/a	0	n/a	0	0	0	1	0.412841796875	0.57763671875	upper	../fonts/zerothre.ttf
1592781	WORD	wordpools/wasnorm_wordpool.txt	LTP089	ltpFR	8	7	1	COUSIN	392	n/a	1	n/a	0	0	0	1	0.412841796875	0.57763671875	upper	../fonts/zerothre.ttf
1596955	WORD	wordpools/wasnorm_wordpool.txt	LTP089	ltpFR	8	7	1	NEUTRON	947	n/a	0	n/a	0	0	0	1	0.412841796875	0.57763671875	upper	../fonts/zerothre.ttf
1601063	WORD	wordpools/wasnorm_wordpool.txt	LTP089	ltpFR	8	7	1	TEAM	1441	n/a	0	n/a	0	0	0	1	0.412841796875	0.57763671875	upper	../fonts/zerothre.ttf
1604905	WORD	wordpools/wasnorm_wordpool.txt	LTP089	ltpFR	8	7	1	CANNON	232	n/a	0	n/a	0	0	0	1	0.412841796875	0.57763671875	upper	../fonts/zerothre.ttf
1608996	WORD	wordpools/wasnorm_wordpool.txt	LTP089	ltpFR	8	7	1	TWIN	1528	n/a	0	n/a	0	0	0	1	0.412841796875	0.57763671875	upper	../fonts/zerothre.ttf
1612887	WORD	wordpools/wasnorm_wordpool.txt	LTP089	ltpFR	8	7	1	ATHLETE	52	n/a	0	n/a	0	0	0	1	0.412841796875	0.57763671875	upper	../fonts/zerothre.ttf
1616845	WORD	wordpools/wasnorm_wordpool.txt	LTP089	ltpFR	8	7	1	CRITIC	410	n/a	0	n/a	0	0	0	1	0.412841796875	0.57763671875	upper	../fonts/zerothre.ttf
1620978	WORD	wordpools/wasnorm_wordpool.txt	LTP089	ltpFR	8	7	1	TWISTER	1530	n/a	0	n/a	0	0	0	1	0.412841796875	0.57763671875	upper	../fonts/zerothre.ttf
1625145	WORD	wordpools/wasnorm_wordpool.txt	LTP089	ltpFR	8	7	1	MOTH	920	n/a	1	n/a	0	0	0	1	0.412841796875	0.57763671875	upper	../fonts/zerothre.ttf
1629069	WORD	wordpools/wasnorm_wordpool.txt	LTP089	ltpFR	8	7	1	BUG	187	n/a	1	n/a	0	0	0	1	0.412841796875	0.57763671875	upper	../fonts/zerothre.ttf
1633152	WORD	wordpools/wasnorm_wordpool.txt	LTP089	ltpFR	8	7	1	RELATIVE	1182	n/a	1	n/a	0	0	0	1	0.412841796875	0.57763671875	upper	../fonts/zerothre.ttf
1636960	WORD	wordpools/wasnorm_wordpool.txt	LTP089	ltpFR	8	7	1	TYPEWRITER	1531	n/a	1	n/a	0	0	0	1	0.412841796875	0.57763671875	upper	../fonts/zerothre.ttf
1640952	WORD	wordpools/wasnorm_wordpool.txt	LTP089	ltpFR	8	7	1	CONTAINER	366	n/a	1	n/a	0	0	0	1	0.412841796875	0.57763671875	upper	../fonts/zerothre.ttf
1645043	WORD	wordpools/wasnorm_wordpool.txt	LTP089	ltpFR	8	7	1	CHAMBER	277	n/a	1	n/a	0	0	0	1	0.412841796875	0.57763671875	upper	../fonts/zerothre.ttf
1650902	REC_START	n/a	LTP089	ltpFR	8	7	n/a	n/a	n/a	n/a	n/a	n/a	0	0	0	n/a	n/a	n/a	n/a	n/a
1652553	REC_WORD	wordpools/wasnorm_wordpool.txt	LTP089	ltpFR	8	7	1	CHAMBER	277	n/a	1	n/a	0	0	0	n/a	n/a	n/a	n/a	n/a
1653426	REC_WORD	wordpools/wasnorm_wordpool.txt	LTP089	ltpFR	8	7	1	MOTH	920	n/a	1	n/a	0	0	0	n/a	n/a	n/a	n/a	n/a
1654568	REC_WORD	wordpools/wasnorm_wordpool.txt	LTP089	ltpFR	8	7	1	TWIN	1528	n/a	0	n/a	0	0	0	n/a	n/a	n/a	n/a	n/a
1656085	REC_WORD_VV	wordpools/wasnorm_wordpool.txt	LTP089	ltpFR	8	7	n/a	<>	-1	n/a	n/a	n/a	0	0	0	n/a	n/a	n/a	n/a	n/a
1659228	REC_WORD_VV	wordpools/wasnorm_wordpool.txt	LTP089	ltpFR	8	7	n/a	<>	-1	n/a	n/a	n/a	0	0	0	n/a	n/a	n/a	n/a	n/a
1749602	WORD	wordpools/wasnorm_wordpool.txt	LTP089	ltpFR	8	8	1	POOL	1103	n/a	0	n/a	0	0	0	1	0.412841796875	0.57763671875	upper	../fonts/zerothre.ttf
1753743	WORD	wordpools/wasnorm_wordpool.txt	LTP089	ltpFR	8	8	1	WAVE	1596	n/a	0	n/a	0	0	0	1	0.412841796875	0.57763671875	upper	../fonts/zerothre.ttf
1757901	WORD	wordpools/wasnorm_wordpool.txt	LTP089	ltpFR	8	8	1	COURT	391	n/a	0	n/a	0	0	0	1	0.412841796875	0.57763671875	upper	../fonts/zerothre.ttf
1761751	WORD	wordpools/wasnorm_wordpool.txt	LTP089	ltpFR	8	8	1	SALESMAN	1225	n/a	0	n/a	0	0	0	1	0.412841796875	0.57763671875	upper	../fonts/zerothre.ttf
1765634	WORD	wordpools/wasnorm_wordpool.txt	LTP089	ltpFR	8	8	1	SHARK	1275	n/a	0	n/a	0	0	0	1	0.412841796875	0.57763671875	upper	../fonts/zerothre.ttf
1769500	WORD	wordpools/wasnorm_wordpool.txt	LTP089	ltpFR	8	8	1	MERMAID	887	n/a	0	n/a	0	0	0	1	0.412841796875	0.57763671875	upper	../fonts/zerothre.ttf
1773392	WORD	wordpools/wasnorm_wordpool.txt	LTP089	ltpFR	8	8	1	SUPERVISOR	1410	n/a	0	n/a	0	0	0	1	0.412841796875	0.57763671875	upper	../fonts/zerothre.ttf
1777300	WORD	wordpools/wasnorm_wordpool.txt	LTP089	ltpFR	8	8	1	NAPKIN	937	n/a	1	n/a	0	0	0	1	0.412841796875	0.57763671875	upper	../fonts/zerothre.ttf
1781474	WORD	wordpools/wasnorm_wordpool.txt	LTP089	ltpFR	8	8	1	DART	440	n/a	1	n/a	0	0	0	1	0.412841796875	0.57763671875	upper	../fonts/zerothre.ttf
1785432	WORD	wordpools/wasnorm_wordpool.txt	LTP089	ltpFR	8	8	1	CEMETERY	269	n/a	1	n/a	0	0	0	1	0.412841796875	0.57763671875	upper	../fonts/zerothre.ttf
1789290	WORD	wordpools/wasnorm_wordpool.txt	LTP089	ltpFR	8	8	1	CUSTARD	429	n/a	1	n/a	0	0	0	1	0.412841796875	0.57763671875	upper	../fonts/zerothre.ttf
1793232	WORD	wordpools/wasnorm_wordpool.txt	LTP089	ltpFR	8	8	1	STRAWBERRY	1391	n/a	1	n/a	0	0	0	1	0.412841796875	0.57763671875	upper	../fonts/zerothre.ttf
1797406	WORD	wordpools/wasnorm_wordpool.txt	LTP089	ltpFR	8	8	1	GAVEL	627	n/a	1	n/a	0	0	0	1	0.412841796875	0.57763671875	upper	../fonts/zerothre.ttf
1801606	WORD	wordpools/wasnorm_wordpool.txt	LTP089	ltpFR	8	8	1	AUTOMOBILE	62	n/a	1	n/a	0	0	0	1	0.412841796875	0.57763671875	upper	../fonts/zerothre.ttf
1805721	WORD	wordpools/wasnorm_wordpool.txt	LTP089	ltpFR	8	8	1	PRESIDENT	1121	n/a	1	n/a	0	0	0	1	0.412841796875	0.57763671875	upper	../fonts/zerothre.ttf
1809580	WORD	wordpools/wasnorm_wordpool.txt	LTP089	ltpFR	8	8	1	ACTOR	5	n/a	1	n/a	0	0	0	1	0.412841796875	0.57763671875	upper	../fonts/zerothre.ttf
1812580	START	n/a	LTP089	ltpFR	8	n/a	n/a	n/a	n/a	n/a	n/a	n/a	n/a	n/a	n/a	n/a	n/a	n/a	n/a	n/a
1813414	PROB	n/a	LTP089	ltpFR	8	n/a	n/a	n/a	n/a	n/a	n/a	14	7	5	2	n/a	n/a	n/a	n/a	n/a
1817613	PROB	n/a	LTP089	ltpFR	8	n/a	n/a	n/a	n/a	n/a	n/a	12	7	4	1	n/a	n/a	n/a	n/a	n/a
1819724	STOP	n/a	LTP089	ltpFR	8	n/a	n/a	n/a	n/a	n/a	n/a	n/a	n/a	n/a	n/a	n/a	n/a	n/a	n/a	n/a
1822322	REC_START	n/a	LTP089	ltpFR	8	8	n/a	n/a	n/a	n/a	n/a	n/a	0	0	0	n/a	n/a	n/a	n/a	n/a
1825071	REC_WORD	wordpools/wasnorm_wordpool.txt	LTP089	ltpFR	8	8	1	GAVEL	627	n/a	1	n/a	0	0	0	n/a	n/a	n/a	n/a	n/a
1825779	REC_WORD	wordpools/wasnorm_wordpool.txt	LTP089	ltpFR	8	8	1	ACTOR	5	n/a	1	n/a	0	0	0	n/a	n/a	n/a	n/a	n/a
1826647	REC_WORD	wordpools/wasnorm_wordpool.txt	LTP089	ltpFR	8	8	1	PRESIDENT	1121	n/a	1	n/a	0	0	0	n/a	n/a	n/a	n/a	n/a
1828882	REC_WORD	wordpools/wasnorm_wordpool.txt	LTP089	ltpFR	8	8	1	AUTOMOBILE	62	n/a	1	n/a	0	0	0	n/a	n/a	n/a	n/a	n/a
1900915	WORD	wordpools/wasnorm_wordpool.txt	LTP089	ltpFR	8	9	0	CUBE	420	n/a	0	n/a	0	0	0	0	0.5869140625	0.422607421875	lower	../fonts/amplitud.ttf
1905023	WORD	wordpools/wasnorm_wordpool.txt	LTP089	ltpFR	8	9	0	UMBRELLA	1534	n/a	0	n/a	0	0	0	0	0.5869140625	0.422607421875	lower	../fonts/amplitud.ttf
1909048	WORD	wordpools/wasnorm_wordpool.txt	LTP089	ltpFR	8	9	0	TONGUE	1479	n/a	1	n/a	0	0	0	0	0.5869140625	0.422607421875	lower	../fonts/amplitud.ttf
1913256	WORD	wordpools/wasnorm_wordpool.txt	LTP089	ltpFR	8	9	0	WASHCLOTH	1591	n/a	0	n/a	0	0	0	0	0.5869140625	0.422607421875	lower	../fonts/amplitud.ttf
1917439	WORD	wordpools/wasnorm_wordpool.txt	LTP089	ltpFR	8	9	0	BUCKET	184	n/a	1	n/a	0	0	0	0	0.5869140625	0.422607421875	lower	../fonts/amplitud.ttf
1921439	WORD	wordpools/wasnorm_wordpool.txt	LTP089	ltpFR	8	9	0	KANGAROO	768	n/a	1	n/a	0	0	0	0	0.5869140625	0.422607421875	lower	../fonts/amplitud.ttf
1925580	WORD	wordpools/wasnorm_wordpool.txt	LTP089	ltpFR	8	9	0	FRECKLE	602	n/a	0	n/a	0	0	0	0	0.5869140625	0.422607421875	lower	../fonts/amplitud.ttf
1929680	WORD	wordpools/wasnorm_wordpool.txt	LTP089	ltpFR	8	9	0	TUBE	1516	n/a	1	n/a	0	0	0	0	0.5869140625	0.422607421875	lower	../fonts/amplitud.ttf
1933695	WORD	wordpools/wasnorm_wordpool.txt	LTP089	ltpFR	8	9	0	SALIVA	1226	n/a	0	n/a	0	0	0	0	0.5869140625	0.422607421875	lower	../fonts/amplitud.ttf
1937804	WORD	wordpools/wasnorm_wordpool.txt	LTP089	ltpFR	8	9	0	PITCHFORK	1078	n/a	1	n/a	0	0	0	0	0.5869140625	0.422607421875	lower	../fonts/amplitud.ttf
1941779	WORD	wordpools/wasnorm_wordpool.txt	LTP089	ltpFR	8	9	0	PLAQUE	1084	n/a	1	n/a	0	0	0	0	0.5869140625	0.422607421875	lower	../fonts/amplitud.ttf
1945937	WORD	wordpools/wasnorm_wordpool.txt	LTP089	ltpFR	8	9	0	CONCERT	360	n/a	1	n/a	0	0	0	0	0.5869140625	0.422607421875	lower	../fonts/amplitud.ttf
1949761	WORD	wordpools/wasnorm_wordpool.txt	LTP089	ltpFR	8	9	0	TROMBONE	1508	n/a	0	n/a	0	0	0	0	0.5869140625	0.422607421875	lower	../fonts/amplitud.ttf
1953736	WORD	wordpools/wasnorm_wordpool.txt	LTP089	ltpFR	8	9	0	KNAPSACK	783	n/a	1	n/a	0	0	0	0	0.5869140625	0.422607421875	lower	../fonts/amplitud.ttf
1957736	WORD	wordpools/wasnorm_wordpool.txt	LTP089	ltpFR	8	9	0	WALRUS	1585	n/a	1	n/a	0	0	0	0	0.5869140625	0.422607421875	lower	../fonts/amplitud.ttf
1961760	WORD	wordpools/wasnorm_wordpool.txt	LTP089	ltpFR	8	9	0	ALLIGATOR	16	n/a	0	n/a	0	0	0	0	0.5869140625	0.422607421875	lower	../fonts/amplitud.ttf
1967861	REC_START	n/a	LTP089	ltpFR	8	9	n/a	n/a	n/a	n/a	n/a	n/a	0	0	0	n/a	n/a	n/a	n/a	n/a
1969088	REC_WORD	wordpools/wasnorm_wordpool.txt	LTP089	ltpFR	8	9	0	ALLIGATOR	16	n/a	0	n/a	0	0	0	n/a	n/a	n/a	n/a	n/a
1971343	REC_WORD	wordpools/wasnorm_wordpool.txt	LTP089	ltpFR	8	9	0	WALRUS	1585	n/a	1	n/a	0	0	0	n/a	n/a	n/a	n/a	n/a
1972326	REC_WORD	wordpools/wasnorm_wordpool.txt	LTP089	ltpFR	8	9	n/a	DISH	474	n/a	n/a	n/a	0	0	0	n/a	n/a	n/a	n/a	n/a
1972619	REC_WORD	wordpools/wasnorm_wordpool.txt	LTP089	ltpFR	8	9	n/a	CLOTH	-1	n/a	n/a	n/a	0	0	0	n/a	n/a	n/a	n/a	n/a
1974600	REC_WORD	wordpools/wasnorm_wordpool.txt	LTP089	ltpFR	8	9	n/a	CLOTH	-1	n/a	n/a	n/a	0	0	0	n/a	n/a	n/a	n/a	n/a
1979365	REC_WORD	wordpools/wasnorm_wordpool.txt	LTP089	ltpFR	8	9	1	MOTH	920	n/a	1	n/a	0	0	0	n/a	n/a	n/a	n/a	n/a
1981994	REC_WORD	wordpools/wasnorm_wordpool.txt	LTP089	ltpFR	8	9	n/a	SLOTH	-1	n/a	n/a	n/a	0	0	0	n/a	n/a	n/a	n/a	n/a
2053995	WORD	wordpools/wasnorm_wordpool.txt	LTP089	ltpFR	8	10	0	CHEF	290	n/a	0	n/a	0	0	0	0	0.5869140625	0.422607421875	lower	../fonts/amplitud.ttf
2057853	WORD	wordpools/wasnorm_wordpool.txt	LTP089	ltpFR	8	10	0	VEST	1559	n/a	1	n/a	0	0	0	0	0.5869140625	0.422607421875	lower	../fonts/amplitud.ttf
2061819	WORD	wordpools/wasnorm_wordpool.txt	LTP089	ltpFR	8	10	0	MOSQUITO	917	n/a	0	n/a	0	0	0	0	0.5869140625	0.422607421875	lower	../fonts/amplitud.ttf
2065969	WORD	wordpools/wasnorm_wordpool.txt	LTP089	ltpFR	8	10	1	CLOSET	326	n/a	1	n/a	0	0	0	1	0.412841796875	0.57763671875	upper	../fonts/zerothre.ttf
2069819	WORD	wordpools/wasnorm_wordpool.txt	LTP089	ltpFR	8	10	1	LINT	826	n/a	0	n/a	0	0	0	1	0.412841796875	0.57763671875	upper	../fonts/zerothre.ttf
2073802	WORD	wordpools/wasnorm_wordpool.txt	LTP089	ltpFR	8	10	1	PARROT	1015	n/a	1	n/a	0	0	0	1	0.412841796875	0.57763671875	upper	../fonts/zerothre.ttf
2077901	WORD	wordpools/wasnorm_wordpool.txt	LTP089	ltpFR	8	10	1	CROW	414	n/a	1	n/a	0	0	0	1	0.412841796875	0.57763671875	upper	../fonts/zerothre.ttf
2082084	WORD	wordpools/wasnorm_wordpool.txt	LTP089	ltpFR	8	10	1	GROCERY	664	n/a	1	n/a	0	0	0	1	0.412841796875	0.57763671875	upper	../fonts/zerothre.ttf
2086017	WORD	wordpools/wasnorm_wordpool.txt	LTP089	ltpFR	8	10	1	LILY	821	n/a	0	n/a	0	0	0	1	0.412841796875	0.57763671875	upper	../fonts/zerothre.ttf
2090176	WORD	wordpools/wasnorm_wordpool.txt	LTP089	ltpFR	8	10	0	LAPEL	800	n/a	0	n/a	0	0	0	0	0.5869140625	0.422607421875	lower	../fonts/amplitud.ttf
2094167	WORD	wordpools/wasnorm_wordpool.txt	LTP089	ltpFR	8	10	0	DILL	465	n/a	0	n/a	0	0	0	0	0.5869140625	0.422607421875	lower	../fonts/amplitud.ttf
2098083	WORD	wordpools/wasnorm_wordpool.txt	LTP089	ltpFR	8	10	1	TOAD	1470	n/a	3	n/a	0	0	0	1	0.412841796875	0.57763671875	upper	../fonts/zerothre.ttf
2099083	KEY_MSG	n/a	LTP089	ltpFR	8	10	n/a	n/a	n/a	n/a	n/a	n/a	0	0	0	n/a	n/a	n/a	n/a	n/a
2102016	WORD	wordpools/wasnorm_wordpool.txt	LTP089	ltpFR	8	10	1	BIOLOGIST	128	n/a	1	n/a	0	0	0	1	0.412841796875	0.57763671875	upper	../fonts/zerothre.ttf
2105899	WORD	wordpools/wasnorm_wordpool.txt	LTP089	ltpFR	8	10	0	LAVA	804	n/a	0	n/a	0	0	0	0	0.5869140625	0.422607421875	lower	../fonts/amplitud.ttf
2109849	WORD	wordpools/wasnorm_wordpool.txt	LTP089	ltpFR	8	10	0	JOURNAL	760	n/a	0	n/a	0	0	0	0	0.5869140625	0.422607421875	lower	../fonts/amplitud.ttf
2113857	WORD	wordpools/wasnorm_wordpool.txt	LTP089	ltpFR	8	10	0	PLANT	1083	n/a	0	n/a	0	0	0	0	0.5869140625	0.422607421875	lower	../fonts/amplitud.ttf
2116865	START	n/a	LTP089	ltpFR	8	n/a	n/a	n/a	n/a	n/a	n/a	n/a	n/a	n/a	n/a	n/a	n/a	n/a	n/a	n/a
2118040	PROB	n/a	LTP089	ltpFR	8	n/a	n/a	n/a	n/a	n/a	n/a	13	8	2	3	n/a	n/a	n/a	n/a	n/a
2120007	PROB	n/a	LTP089	ltpFR	8	n/a	n/a	n/a	n/a	n/a	n/a	15	6	7	2	n/a	n/a	n/a	n/a	n/a
2122790	PROB	n/a	LTP089	ltpFR	8	n/a	n/a	n/a	n/a	n/a	n/a	18	9	5	7	n/a	n/a	n/a	n/a	n/a
2125681	PROB	n/a	LTP089	ltpFR	8	n/a	n/a	n/a	n/a	n/a	n/a	13	5	4	4	n/a	n/a	n/a	n/a	n/a
2128006	PROB	n/a	LTP089	ltpFR	8	n/a	n/a	n/a	n/a	n/a	n/a	8	2	5	1	n/a	n/a	n/a	n/a	n/a
2131645	STOP	n/a	LTP089	ltpFR	8	n/a	n/a	n/a	n/a	n/a	n/a	n/a	n/a	n/a	n/a	n/a	n/a	n/a	n/a	n/a
2134756	REC_START	n/a	LTP089	ltpFR	8	10	n/a	n/a	n/a	n/a	n/a	n/a	0	0	0	n/a	n/a	n/a	n/a	n/a
2137490	REC_WORD	wordpools/wasnorm_wordpool.txt	LTP089	ltpFR	8	10	1	BIOLOGIST	128	n/a	1	n/a	0	0	0	n/a	n/a	n/a	n/a	n/a
2138353	REC_WORD	wordpools/wasnorm_wordpool.txt	LTP089	ltpFR	8	10	1	TOAD	1470	n/a	3	n/a	0	0	0	n/a	n/a	n/a	n/a	n/a
2139560	REC_WORD	wordpools/wasnorm_wordpool.txt	LTP089	ltpFR	8	10	1	LILY	821	n/a	0	n/a	0	0	0	n/a	n/a	n/a	n/a	n/a
2140558	REC_WORD	wordpools/wasnorm_wordpool.txt	LTP089	ltpFR	8	10	0	LAPEL	800	n/a	0	n/a	0	0	0	n/a	n/a	n/a	n/a	n/a
2141495	REC_WORD	wordpools/wasnorm_wordpool.txt	LTP089	ltpFR	8	10	1	PARROT	1015	n/a	1	n/a	0	0	0	n/a	n/a	n/a	n/a	n/a
2143067	REC_WORD	wordpools/wasnorm_wordpool.txt	LTP089	ltpFR	8	10	1	CROW	414	n/a	1	n/a	0	0	0	n/a	n/a	n/a	n/a	n/a
2169911	REC_WORD_VV	wordpools/wasnorm_wordpool.txt	LTP089	ltpFR	8	10	n/a	<>	-1	n/a	n/a	n/a	0	0	0	n/a	n/a	n/a	n/a	n/a
2210358	REST_REWET	n/a	LTP089	ltpFR	8	10	n/a	n/a	n/a	n/a	n/a	n/a	0	0	0	n/a	n/a	n/a	n/a	n/a
2695088	START	n/a	LTP089	ltpFR	8	n/a	n/a	n/a	n/a	n/a	n/a	n/a	n/a	n/a	n/a	n/a	n/a	n/a	n/a	n/a
2696595	PROB	n/a	LTP089	ltpFR	8	n/a	n/a	n/a	n/a	n/a	n/a	19	9	3	6	n/a	n/a	n/a	n/a	n/a
2700445	PROB	n/a	LTP089	ltpFR	8	n/a	n/a	n/a	n/a	n/a	n/a	10	4	1	5	n/a	n/a	n/a	n/a	n/a
2702503	PROB	n/a	LTP089	ltpFR	8	n/a	n/a	n/a	n/a	n/a	n/a	17	1	9	7	n/a	n/a	n/a	n/a	n/a
2704286	PROB	n/a	LTP089	ltpFR	8	n/a	n/a	n/a	n/a	n/a	n/a	17	3	9	5	n/a	n/a	n/a	n/a	n/a
2707011	PROB	n/a	LTP089	ltpFR	8	n/a	n/a	n/a	n/a	n/a	n/a	9	1	6	2	n/a	n/a	n/a	n/a	n/a
2711087	STOP	n/a	LTP089	ltpFR	8	n/a	n/a	n/a	n/a	n/a	n/a	n/a	n/a	n/a	n/a	n/a	n/a	n/a	n/a	n/a
2712111	WORD	wordpools/wasnorm_wordpool.txt	LTP089	ltpFR	8	11	1	BADGE	68	n/a	2	n/a	0	0	0	1	0.412841796875	0.57763671875	upper	../fonts/zerothre.ttf
2713036	KEY_MSG	n/a	LTP089	ltpFR	8	11	n/a	n/a	n/a	n/a	n/a	n/a	0	0	0	n/a	n/a	n/a	n/a	n/a
2715119	START	n/a	LTP089	ltpFR	8	n/a	n/a	n/a	n/a	n/a	n/a	n/a	n/a	n/a	n/a	n/a	n/a	n/a	n/a	n/a
2716077	PROB	n/a	LTP089	ltpFR	8	n/a	n/a	n/a	n/a	n/a	n/a	14	3	7	4	n/a	n/a	n/a	n/a	n/a
2717519	PROB	n/a	LTP089	ltpFR	8	n/a	n/a	n/a	n/a	n/a	n/a	12	7	4	1	n/a	n/a	n/a	n/a	n/a
2719877	PROB	n/a	LTP089	ltpFR	8	n/a	n/a	n/a	n/a	n/a	n/a	2	8	9	6	n/a	n/a	n/a	n/a	n/a
2725760	PROB	n/a	LTP089	ltpFR	8	n/a	n/a	n/a	n/a	n/a	n/a	17	3	5	9	n/a	n/a	n/a	n/a	n/a
2730557	STOP	n/a	LTP089	ltpFR	8	n/a	n/a	n/a	n/a	n/a	n/a	n/a	n/a	n/a	n/a	n/a	n/a	n/a	n/a	n/a
2732093	WORD	wordpools/wasnorm_wordpool.txt	LTP089	ltpFR	8	11	1	PUB	1135	n/a	0	n/a	0	0	0	1	0.412841796875	0.57763671875	upper	../fonts/zerothre.ttf
2735101	START	n/a	LTP089	ltpFR	8	n/a	n/a	n/a	n/a	n/a	n/a	n/a	n/a	n/a	n/a	n/a	n/a	n/a	n/a	n/a
2736059	PROB	n/a	LTP089	ltpFR	8	n/a	n/a	n/a	n/a	n/a	n/a	16	7	7	2	n/a	n/a	n/a	n/a	n/a
2738267	PROB	n/a	LTP089	ltpFR	8	n/a	n/a	n/a	n/a	n/a	n/a	14	8	3	2	n/a	n/a	n/a	n/a	n/a
2740292	PROB	n/a	LTP089	ltpFR	8	n/a	n/a	n/a	n/a	n/a	n/a	23	2	6	5	n/a	n/a	n/a	n/a	n/a
2743958	PROB	n/a	LTP089	ltpFR	8	n/a	n/a	n/a	n/a	n/a	n/a	16	5	2	9	n/a	n/a	n/a	n/a	n/a
2751101	STOP	n/a	LTP089	ltpFR	8	n/a	n/a	n/a	n/a	n/a	n/a	n/a	n/a	n/a	n/a	n/a	n/a	n/a	n/a	n/a
2752274	WORD	wordpools/wasnorm_wordpool.txt	LTP089	ltpFR	8	11	1	DEPARTMENT	449	n/a	2	n/a	0	0	0	1	0.412841796875	0.57763671875	upper	../fonts/zerothre.ttf
2752774	KEY_MSG	n/a	LTP089	ltpFR	8	11	n/a	n/a	n/a	n/a	n/a	n/a	0	0	0	n/a	n/a	n/a	n/a	n/a
2755274	START	n/a	LTP089	ltpFR	8	n/a	n/a	n/a	n/a	n/a	n/a	n/a	n/a	n/a	n/a	n/a	n/a	n/a	n/a	n/a
2756141	PROB	n/a	LTP089	ltpFR	8	n/a	n/a	n/a	n/a	n/a	n/a	13	8	2	3	n/a	n/a	n/a	n/a	n/a
2757706	PROB	n/a	LTP089	ltpFR	8	n/a	n/a	n/a	n/a	n/a	n/a	11	5	3	3	n/a	n/a	n/a	n/a	n/a
2760824	PROB	n/a	LTP089	ltpFR	8	n/a	n/a	n/a	n/a	n/a	n/a	18	5	6	7	n/a	n/a	n/a	n/a	n/a
2763732	PROB	n/a	LTP089	ltpFR	8	n/a	n/a	n/a	n/a	n/a	n/a	10	6	1	3	n/a	n/a	n/a	n/a	n/a
2765540	PROB	n/a	LTP089	ltpFR	8	n/a	n/a	n/a	n/a	n/a	n/a	10	3	1	6	n/a	n/a	n/a	n/a	n/a
2767632	PROB	n/a	LTP089	ltpFR	8	n/a	n/a	n/a	n/a	n/a	n/a	21	9	7	5	n/a	n/a	n/a	n/a	n/a
2770573	STOP	n/a	LTP089	ltpFR	8	n/a	n/a	n/a	n/a	n/a	n/a	n/a	n/a	n/a	n/a	n/a	n/a	n/a	n/a	n/a
2772256	WORD	wordpools/wasnorm_wordpool.txt	LTP089	ltpFR	8	11	0	ASSISTANT	48	n/a	2	n/a	0	0	0	0	0.5869140625	0.422607421875	lower	../fonts/amplitud.ttf
2773006	KEY_MSG	n/a	LTP089	ltpFR	8	11	n/a	n/a	n/a	n/a	n/a	n/a	0	0	0	n/a	n/a	n/a	n/a	n/a
2775265	START	n/a	LTP089	ltpFR	8	n/a	n/a	n/a	n/a	n/a	n/a	n/a	n/a	n/a	n/a	n/a	n/a	n/a	n/a	n/a
2776231	PROB	n/a	LTP089	ltpFR	8	n/a	n/a	n/a	n/a	n/a	n/a	14	1	9	4	n/a	n/a	n/a	n/a	n/a
2777997	PROB	n/a	LTP089	ltpFR	8	n/a	n/a	n/a	n/a	n/a	n/a	7	1	1	5	n/a	n/a	n/a	n/a	n/a
2779539	PROB	n/a	LTP089	ltpFR	8	n/a	n/a	n/a	n/a	n/a	n/a	16	5	5	6	n/a	n/a	n/a	n/a	n/a
2782514	PROB	n/a	LTP089	ltpFR	8	n/a	n/a	n/a	n/a	n/a	n/a	19	8	8	3	n/a	n/a	n/a	n/a	n/a
2785247	PROB	n/a	LTP089	ltpFR	8	n/a	n/a	n/a	n/a	n/a	n/a	15	5	7	3	n/a	n/a	n/a	n/a	n/a
2788830	PROB	n/a	LTP089	ltpFR	8	n/a	n/a	n/a	n/a	n/a	n/a	4	1	2	1	n/a	n/a	n/a	n/a	n/a
2790301	STOP	n/a	LTP089	ltpFR	8	n/a	n/a	n/a	n/a	n/a	n/a	n/a	n/a	n/a	n/a	n/a	n/a	n/a	n/a	n/a
2792471	WORD	wordpools/wasnorm_wordpool.txt	LTP089	ltpFR	8	11	0	POLICE	1098	n/a	2	n/a	0	0	0	0	0.5869140625	0.422607421875	lower	../fonts/amplitud.ttf
2792996	KEY_MSG	n/a	LTP089	ltpFR	8	11	n/a	n/a	n/a	n/a	n/a	n/a	0	0	0	n/a	n/a	n/a	n/a	n/a
2795480	START	n/a	LTP089	ltpFR	8	n/a	n/a	n/a	n/a	n/a	n/a	n/a	n/a	n/a	n/a	n/a	n/a	n/a	n/a	n/a
2796571	PROB	n/a	LTP089	ltpFR	8	n/a	n/a	n/a	n/a	n/a	n/a	20	6	6	8	n/a	n/a	n/a	n/a	n/a
2798454	PROB	n/a	LTP089	ltpFR	8	n/a	n/a	n/a	n/a	n/a	n/a	20	5	6	9	n/a	n/a	n/a	n/a	n/a
2804562	PROB	n/a	LTP089	ltpFR	8	n/a	n/a	n/a	n/a	n/a	n/a	23	8	6	9	n/a	n/a	n/a	n/a	n/a
2811381	STOP	n/a	LTP089	ltpFR	8	n/a	n/a	n/a	n/a	n/a	n/a	n/a	n/a	n/a	n/a	n/a	n/a	n/a	n/a	n/a
2812628	WORD	wordpools/wasnorm_wordpool.txt	LTP089	ltpFR	8	11	0	PAPER	1011	n/a	0	n/a	0	0	0	0	0.5869140625	0.422607421875	lower	../fonts/amplitud.ttf
2815637	START	n/a	LTP089	ltpFR	8	n/a	n/a	n/a	n/a	n/a	n/a	n/a	n/a	n/a	n/a	n/a	n/a	n/a	n/a	n/a
2816786	PROB	n/a	LTP089	ltpFR	8	n/a	n/a	n/a	n/a	n/a	n/a	23	9	6	8	n/a	n/a	n/a	n/a	n/a
2823886	PROB	n/a	LTP089	ltpFR	8	n/a	n/a	n/a	n/a	n/a	n/a	18	2	8	8	n/a	n/a	n/a	n/a	n/a
2831637	STOP	n/a	LTP089	ltpFR	8	n/a	n/a	n/a	n/a	n/a	n/a	n/a	n/a	n/a	n/a	n/a	n/a	n/a	n/a	n/a
2832743	WORD	wordpools/wasnorm_wordpool.txt	LTP089	ltpFR	8	11	0	DOCUMENT	479	n/a	0	n/a	0	0	0	0	0.5869140625	0.422607421875	lower	../fonts/amplitud.ttf
2835752	START	n/a	LTP089	ltpFR	8	n/a	n/a	n/a	n/a	n/a	n/a	n/a	n/a	n/a	n/a	n/a	n/a	n/a	n/a	n/a
2836951	PROB	n/a	LTP089	ltpFR	8	n/a	n/a	n/a	n/a	n/a	n/a	20	9	8	3	n/a	n/a	n/a	n/a	n/a
2840076	PROB	n/a	LTP089	ltpFR	8	n/a	n/a	n/a	n/a	n/a	n/a	14	3	5	6	n/a	n/a	n/a	n/a	n/a
2844234	PROB	n/a	LTP089	ltpFR	8	n/a	n/a	n/a	n/a	n/a	n/a	19	5	7	7	n/a	n/a	n/a	n/a	n/a
2851752	STOP	n/a	LTP089	ltpFR	8	n/a	n/a	n/a	n/a	n/a	n/a	n/a	n/a	n/a	n/a	n/a	n/a	n/a	n/a	n/a
2852775	WORD	wordpools/wasnorm_wordpool.txt	LTP089	ltpFR	8	11	1	COBBLER	335	n/a	2	n/a	0	0	0	1	0.412841796875	0.57763671875	upper	../fonts/zerothre.ttf
2853825	KEY_MSG	n/a	LTP089	ltpFR	8	11	n/a	n/a	n/a	n/a	n/a	n/a	0	0	0	n/a	n/a	n/a	n/a	n/a
2855783	START	n/a	LTP089	ltpFR	8	n/a	n/a	n/a	n/a	n/a	n/a	n/a	n/a	n/a	n/a	n/a	n/a	n/a	n/a	n/a
2856699	PROB	n/a	LTP089	ltpFR	8	n/a	n/a	n/a	n/a	n/a	n/a	17	6	5	6	n/a	n/a	n/a	n/a	n/a
2860824	PROB	n/a	LTP089	ltpFR	8	n/a	n/a	n/a	n/a	n/a	n/a	19	9	2	8	n/a	n/a	n/a	n/a	n/a
2863657	PROB	n/a	LTP089	ltpFR	8	n/a	n/a	n/a	n/a	n/a	n/a	20	8	4	8	n/a	n/a	n/a	n/a	n/a
2865807	PROB	n/a	LTP089	ltpFR	8	n/a	n/a	n/a	n/a	n/a	n/a	12	4	2	6	n/a	n/a	n/a	n/a	n/a
2867849	PROB	n/a	LTP089	ltpFR	8	n/a	n/a	n/a	n/a	n/a	n/a	11	3	4	4	n/a	n/a	n/a	n/a	n/a
2870015	PROB	n/a	LTP089	ltpFR	8	n/a	n/a	n/a	n/a	n/a	n/a	147	3	7	4	n/a	n/a	n/a	n/a	n/a
2871613	STOP	n/a	LTP089	ltpFR	8	n/a	n/a	n/a	n/a	n/a	n/a	n/a	n/a	n/a	n/a	n/a	n/a	n/a	n/a	n/a
2872948	WORD	wordpools/wasnorm_wordpool.txt	LTP089	ltpFR	8	11	1	KITTEN	780	n/a	0	n/a	0	0	0	1	0.412841796875	0.57763671875	upper	../fonts/zerothre.ttf
2875948	START	n/a	LTP089	ltpFR	8	n/a	n/a	n/a	n/a	n/a	n/a	n/a	n/a	n/a	n/a	n/a	n/a	n/a	n/a	n/a
2876806	PROB	n/a	LTP089	ltpFR	8	n/a	n/a	n/a	n/a	n/a	n/a	20	7	4	9	n/a	n/a	n/a	n/a	n/a
2879123	PROB	n/a	LTP089	ltpFR	8	n/a	n/a	n/a	n/a	n/a	n/a	12	4	4	4	n/a	n/a	n/a	n/a	n/a
2880688	PROB	n/a	LTP089	ltpFR	8	n/a	n/a	n/a	n/a	n/a	n/a	10	5	4	1	n/a	n/a	n/a	n/a	n/a
2882722	PROB	n/a	LTP089	ltpFR	8	n/a	n/a	n/a	n/a	n/a	n/a	15	3	9	3	n/a	n/a	n/a	n/a	n/a
2886064	PROB	n/a	LTP089	ltpFR	8	n/a	n/a	n/a	n/a	n/a	n/a	20	6	9	5	n/a	n/a	n/a	n/a	n/a
2891948	STOP	n/a	LTP089	ltpFR	8	n/a	n/a	n/a	n/a	n/a	n/a	n/a	n/a	n/a	n/a	n/a	n/a	n/a	n/a	n/a
2893122	WORD	wordpools/wasnorm_wordpool.txt	LTP089	ltpFR	8	11	1	BED	110	n/a	0	n/a	0	0	0	1	0.412841796875	0.57763671875	upper	../fonts/zerothre.ttf
2896130	START	n/a	LTP089	ltpFR	8	n/a	n/a	n/a	n/a	n/a	n/a	n/a	n/a	n/a	n/a	n/a	n/a	n/a	n/a	n/a
2897063	PROB	n/a	LTP089	ltpFR	8	n/a	n/a	n/a	n/a	n/a	n/a	20	7	9	4	n/a	n/a	n/a	n/a	n/a
2899521	PROB	n/a	LTP089	ltpFR	8	n/a	n/a	n/a	n/a	n/a	n/a	20	8	7	5	n/a	n/a	n/a	n/a	n/a
2902129	PROB	n/a	LTP089	ltpFR	8	n/a	n/a	n/a	n/a	n/a	n/a	11	1	6	4	n/a	n/a	n/a	n/a	n/a
2903796	PROB	n/a	LTP089	ltpFR	8	n/a	n/a	n/a	n/a	n/a	n/a	11	2	1	8	n/a	n/a	n/a	n/a	n/a
2906121	PROB	n/a	LTP089	ltpFR	8	n/a	n/a	n/a	n/a	n/a	n/a	12	1	5	6	n/a	n/a	n/a	n/a	n/a
2908404	PROB	n/a	LTP089	ltpFR	8	n/a	n/a	n/a	n/a	n/a	n/a	21	9	6	6	n/a	n/a	n/a	n/a	n/a
2911645	STOP	n/a	LTP089	ltpFR	8	n/a	n/a	n/a	n/a	n/a	n/a	n/a	n/a	n/a	n/a	n/a	n/a	n/a	n/a	n/a
2913154	WORD	wordpools/wasnorm_wordpool.txt	LTP089	ltpFR	8	11	1	QUILT	1151	n/a	0	n/a	0	0	0	1	0.412841796875	0.57763671875	upper	../fonts/zerothre.ttf
2916162	START	n/a	LTP089	ltpFR	8	n/a	n/a	n/a	n/a	n/a	n/a	n/a	n/a	n/a	n/a	n/a	n/a	n/a	n/a	n/a
2917162	PROB	n/a	LTP089	ltpFR	8	n/a	n/a	n/a	n/a	n/a	n/a	8	1	4	3	n/a	n/a	n/a	n/a	n/a
2920220	PROB	n/a	LTP089	ltpFR	8	n/a	n/a	n/a	n/a	n/a	n/a	23	8	9	5	n/a	n/a	n/a	n/a	n/a
2924710	PROB	n/a	LTP089	ltpFR	8	n/a	n/a	n/a	n/a	n/a	n/a	21	6	9	6	n/a	n/a	n/a	n/a	n/a
2931733	STOP	n/a	LTP089	ltpFR	8	n/a	n/a	n/a	n/a	n/a	n/a	n/a	n/a	n/a	n/a	n/a	n/a	n/a	n/a	n/a
2933344	WORD	wordpools/wasnorm_wordpool.txt	LTP089	ltpFR	8	11	1	FIGHTER	564	n/a	0	n/a	0	0	0	1	0.412841796875	0.57763671875	upper	../fonts/zerothre.ttf
2936352	START	n/a	LTP089	ltpFR	8	n/a	n/a	n/a	n/a	n/a	n/a	n/a	n/a	n/a	n/a	n/a	n/a	n/a	n/a	n/a
2937335	PROB	n/a	LTP089	ltpFR	8	n/a	n/a	n/a	n/a	n/a	n/a	21	8	6	7	n/a	n/a	n/a	n/a	n/a
2941510	PROB	n/a	LTP089	ltpFR	8	n/a	n/a	n/a	n/a	n/a	n/a	15	8	3	4	n/a	n/a	n/a	n/a	n/a
2944426	PROB	n/a	LTP089	ltpFR	8	n/a	n/a	n/a	n/a	n/a	n/a	20	6	8	6	n/a	n/a	n/a	n/a	n/a
2947668	PROB	n/a	LTP089	ltpFR	8	n/a	n/a	n/a	n/a	n/a	n/a	9	4	5	4	n/a	n/a	n/a	n/a	n/a
2952352	STOP	n/a	LTP089	ltpFR	8	n/a	n/a	n/a	n/a	n/a	n/a	n/a	n/a	n/a	n/a	n/a	n/a	n/a	n/a	n/a
2953401	WORD	wordpools/wasnorm_wordpool.txt	LTP089	ltpFR	8	11	0	FOLLOWER	589	n/a	2	n/a	0	0	0	0	0.5869140625	0.422607421875	lower	../fonts/amplitud.ttf
2953708	KEY_MSG	n/a	LTP089	ltpFR	8	11	n/a	n/a	n/a	n/a	n/a	n/a	0	0	0	n/a	n/a	n/a	n/a	n/a
2956409	START	n/a	LTP089	ltpFR	8	n/a	n/a	n/a	n/a	n/a	n/a	n/a	n/a	n/a	n/a	n/a	n/a	n/a	n/a	n/a
2957592	PROB	n/a	LTP089	ltpFR	8	n/a	n/a	n/a	n/a	n/a	n/a	16	5	8	3	n/a	n/a	n/a	n/a	n/a
2960225	PROB	n/a	LTP089	ltpFR	8	n/a	n/a	n/a	n/a	n/a	n/a	23	4	9	9	n/a	n/a	n/a	n/a	n/a
2964483	PROB	n/a	LTP089	ltpFR	8	n/a	n/a	n/a	n/a	n/a	n/a	8	1	6	1	n/a	n/a	n/a	n/a	n/a
2966425	PROB	n/a	LTP089	ltpFR	8	n/a	n/a	n/a	n/a	n/a	n/a	17	5	8	5	n/a	n/a	n/a	n/a	n/a
2970877	STOP	n/a	LTP089	ltpFR	8	n/a	n/a	n/a	n/a	n/a	n/a	n/a	n/a	n/a	n/a	n/a	n/a	n/a	n/a	n/a
2973391	WORD	wordpools/wasnorm_wordpool.txt	LTP089	ltpFR	8	11	0	FLASK	576	n/a	0	n/a	0	0	0	0	0.5869140625	0.422607421875	lower	../fonts/amplitud.ttf
2976399	START	n/a	LTP089	ltpFR	8	n/a	n/a	n/a	n/a	n/a	n/a	n/a	n/a	n/a	n/a	n/a	n/a	n/a	n/a	n/a
2977490	PROB	n/a	LTP089	ltpFR	8	n/a	n/a	n/a	n/a	n/a	n/a	12	3	5	4	n/a	n/a	n/a	n/a	n/a
2980873	PROB	n/a	LTP089	ltpFR	8	n/a	n/a	n/a	n/a	n/a	n/a	16	4	6	6	n/a	n/a	n/a	n/a	n/a
2982798	PROB	n/a	LTP089	ltpFR	8	n/a	n/a	n/a	n/a	n/a	n/a	10	3	2	5	n/a	n/a	n/a	n/a	n/a
2984748	PROB	n/a	LTP089	ltpFR	8	n/a	n/a	n/a	n/a	n/a	n/a	14	1	6	7	n/a	n/a	n/a	n/a	n/a
2986765	PROB	n/a	LTP089	ltpFR	8	n/a	n/a	n/a	n/a	n/a	n/a	18	5	5	8	n/a	n/a	n/a	n/a	n/a
2988615	PROB	n/a	LTP089	ltpFR	8	n/a	n/a	n/a	n/a	n/a	n/a	13	3	3	7	n/a	n/a	n/a	n/a	n/a
2990173	PROB	n/a	LTP089	ltpFR	8	n/a	n/a	n/a	n/a	n/a	n/a	10	4	2	4	n/a	n/a	n/a	n/a	n/a
2992165	STOP	n/a	LTP089	ltpFR	8	n/a	n/a	n/a	n/a	n/a	n/a	n/a	n/a	n/a	n/a	n/a	n/a	n/a	n/a	n/a
2993306	WORD	wordpools/wasnorm_wordpool.txt	LTP089	ltpFR	8	11	0	FLOOR	581	n/a	0	n/a	0	0	0	0	0.5869140625	0.422607421875	lower	../fonts/amplitud.ttf
2996314	START	n/a	LTP089	ltpFR	8	n/a	n/a	n/a	n/a	n/a	n/a	n/a	n/a	n/a	n/a	n/a	n/a	n/a	n/a	n/a
2997156	PROB	n/a	LTP089	ltpFR	8	n/a	n/a	n/a	n/a	n/a	n/a	9	3	1	5	n/a	n/a	n/a	n/a	n/a
2999055	PROB	n/a	LTP089	ltpFR	8	n/a	n/a	n/a	n/a	n/a	n/a	21	5	7	9	n/a	n/a	n/a	n/a	n/a
3002630	PROB	n/a	LTP089	ltpFR	8	n/a	n/a	n/a	n/a	n/a	n/a	12	7	1	5	n/a	n/a	n/a	n/a	n/a
3005522	PROB	n/a	LTP089	ltpFR	8	n/a	n/a	n/a	n/a	n/a	n/a	16	2	8	6	n/a	n/a	n/a	n/a	n/a
3007096	PROB	n/a	LTP089	ltpFR	8	n/a	n/a	n/a	n/a	n/a	n/a	15	9	4	2	n/a	n/a	n/a	n/a	n/a
3011413	STOP	n/a	LTP089	ltpFR	8	n/a	n/a	n/a	n/a	n/a	n/a	n/a	n/a	n/a	n/a	n/a	n/a	n/a	n/a	n/a
3013154	WORD	wordpools/wasnorm_wordpool.txt	LTP089	ltpFR	8	11	0	EMPLOYEE	531	n/a	0	n/a	0	0	0	0	0.5869140625	0.422607421875	lower	../fonts/amplitud.ttf
3016163	START	n/a	LTP089	ltpFR	8	n/a	n/a	n/a	n/a	n/a	n/a	n/a	n/a	n/a	n/a	n/a	n/a	n/a	n/a	n/a
3017237	PROB	n/a	LTP089	ltpFR	8	n/a	n/a	n/a	n/a	n/a	n/a	18	7	2	9	n/a	n/a	n/a	n/a	n/a
3020837	PROB	n/a	LTP089	ltpFR	8	n/a	n/a	n/a	n/a	n/a	n/a	16	5	9	2	n/a	n/a	n/a	n/a	n/a
3024012	PROB	n/a	LTP089	ltpFR	8	n/a	n/a	n/a	n/a	n/a	n/a	18	8	2	8	n/a	n/a	n/a	n/a	n/a
3026878	PROB	n/a	LTP089	ltpFR	8	n/a	n/a	n/a	n/a	n/a	n/a	2	3	4	6	n/a	n/a	n/a	n/a	n/a
3030957	STOP	n/a	LTP089	ltpFR	8	n/a	n/a	n/a	n/a	n/a	n/a	n/a	n/a	n/a	n/a	n/a	n/a	n/a	n/a	n/a
3034053	REC_START	n/a	LTP089	ltpFR	8	11	n/a	n/a	n/a	n/a	n/a	n/a	0	0	0	n/a	n/a	n/a	n/a	n/a
3039295	REC_WORD_VV	wordpools/wasnorm_wordpool.txt	LTP089	ltpFR	8	11	n/a	<>	-1	n/a	n/a	n/a	0	0	0	n/a	n/a	n/a	n/a	n/a
3040295	REC_WORD_VV	wordpools/wasnorm_wordpool.txt	LTP089	ltpFR	8	11	n/a	<>	-1	n/a	n/a	n/a	0	0	0	n/a	n/a	n/a	n/a	n/a
3041295	REC_WORD_VV	wordpools/wasnorm_wordpool.txt	LTP089	ltpFR	8	11	n/a	<>	-1	n/a	n/a	n/a	0	0	0	n/a	n/a	n/a	n/a	n/a
3042295	REC_WORD_VV	wordpools/wasnorm_wordpool.txt	LTP089	ltpFR	8	11	n/a	<>	-1	n/a	n/a	n/a	0	0	0	n/a	n/a	n/a	n/a	n/a
3043295	REC_WORD_VV	wordpools/wasnorm_wordpool.txt	LTP089	ltpFR	8	11	n/a	<>	-1	n/a	n/a	n/a	0	0	0	n/a	n/a	n/a	n/a	n/a
3053040	REC_WORD	wordpools/wasnorm_wordpool.txt	LTP089	ltpFR	8	11	1	KITTEN	780	n/a	0	n/a	0	0	0	n/a	n/a	n/a	n/a	n/a
3125463	START	n/a	LTP089	ltpFR	8	n/a	n/a	n/a	n/a	n/a	n/a	n/a	n/a	n/a	n/a	n/a	n/a	n/a	n/a	n/a
3126970	PROB	n/a	LTP089	ltpFR	8	n/a	n/a	n/a	n/a	n/a	n/a	12	2	6	4	n/a	n/a	n/a	n/a	n/a
3128895	PROB	n/a	LTP089	ltpFR	8	n/a	n/a	n/a	n/a	n/a	n/a	25	9	8	8	n/a	n/a	n/a	n/a	n/a
3132597	STOP	n/a	LTP089	ltpFR	8	n/a	n/a	n/a	n/a	n/a	n/a	n/a	n/a	n/a	n/a	n/a	n/a	n/a	n/a	n/a
3134628	WORD	wordpools/wasnorm_wordpool.txt	LTP089	ltpFR	8	12	1	PATH	1023	n/a	0	n/a	0	0	0	1	0.412841796875	0.57763671875	upper	../fonts/zerothre.ttf
3137637	START	n/a	LTP089	ltpFR	8	n/a	n/a	n/a	n/a	n/a	n/a	n/a	n/a	n/a	n/a	n/a	n/a	n/a	n/a	n/a
3138694	PROB	n/a	LTP089	ltpFR	8	n/a	n/a	n/a	n/a	n/a	n/a	16	7	5	4	n/a	n/a	n/a	n/a	n/a
3143478	PROB	n/a	LTP089	ltpFR	8	n/a	n/a	n/a	n/a	n/a	n/a	5	1	6	1	n/a	n/a	n/a	n/a	n/a
3144941	STOP	n/a	LTP089	ltpFR	8	n/a	n/a	n/a	n/a	n/a	n/a	n/a	n/a	n/a	n/a	n/a	n/a	n/a	n/a	n/a
3146594	WORD	wordpools/wasnorm_wordpool.txt	LTP089	ltpFR	8	12	1	CALENDAR	221	n/a	0	n/a	0	0	0	1	0.412841796875	0.57763671875	upper	../fonts/zerothre.ttf
3149603	START	n/a	LTP089	ltpFR	8	n/a	n/a	n/a	n/a	n/a	n/a	n/a	n/a	n/a	n/a	n/a	n/a	n/a	n/a	n/a
3150544	PROB	n/a	LTP089	ltpFR	8	n/a	n/a	n/a	n/a	n/a	n/a	11	2	8	1	n/a	n/a	n/a	n/a	n/a
3152802	PROB	n/a	LTP089	ltpFR	8	n/a	n/a	n/a	n/a	n/a	n/a	14	4	4	6	n/a	n/a	n/a	n/a	n/a
3157603	STOP	n/a	LTP089	ltpFR	8	n/a	n/a	n/a	n/a	n/a	n/a	n/a	n/a	n/a	n/a	n/a	n/a	n/a	n/a	n/a
3158760	WORD	wordpools/wasnorm_wordpool.txt	LTP089	ltpFR	8	12	0	MARGARINE	868	n/a	2	n/a	0	0	0	0	0.5869140625	0.422607421875	lower	../fonts/amplitud.ttf
3159318	KEY_MSG	n/a	LTP089	ltpFR	8	12	n/a	n/a	n/a	n/a	n/a	n/a	0	0	0	n/a	n/a	n/a	n/a	n/a
3161768	START	n/a	LTP089	ltpFR	8	n/a	n/a	n/a	n/a	n/a	n/a	n/a	n/a	n/a	n/a	n/a	n/a	n/a	n/a	n/a
3162959	PROB	n/a	LTP089	ltpFR	8	n/a	n/a	n/a	n/a	n/a	n/a	18	7	3	8	n/a	n/a	n/a	n/a	n/a
3164868	PROB	n/a	LTP089	ltpFR	8	n/a	n/a	n/a	n/a	n/a	n/a	11	3	5	3	n/a	n/a	n/a	n/a	n/a
3168893	STOP	n/a	LTP089	ltpFR	8	n/a	n/a	n/a	n/a	n/a	n/a	n/a	n/a	n/a	n/a	n/a	n/a	n/a	n/a	n/a
3170684	WORD	wordpools/wasnorm_wordpool.txt	LTP089	ltpFR	8	12	0	PEDESTRIAN	1038	n/a	0	n/a	0	0	0	0	0.5869140625	0.422607421875	lower	../fonts/amplitud.ttf
3173691	START	n/a	LTP089	ltpFR	8	n/a	n/a	n/a	n/a	n/a	n/a	n/a	n/a	n/a	n/a	n/a	n/a	n/a	n/a	n/a
3174699	PROB	n/a	LTP089	ltpFR	8	n/a	n/a	n/a	n/a	n/a	n/a	11	8	1	2	n/a	n/a	n/a	n/a	n/a
3176550	PROB	n/a	LTP089	ltpFR	8	n/a	n/a	n/a	n/a	n/a	n/a	18	6	7	5	n/a	n/a	n/a	n/a	n/a
3181690	STOP	n/a	LTP089	ltpFR	8	n/a	n/a	n/a	n/a	n/a	n/a	n/a	n/a	n/a	n/a	n/a	n/a	n/a	n/a	n/a
3182566	WORD	wordpools/wasnorm_wordpool.txt	LTP089	ltpFR	8	12	0	SEAL	1262	n/a	0	n/a	0	0	0	0	0.5869140625	0.422607421875	lower	../fonts/amplitud.ttf
3185575	START	n/a	LTP089	ltpFR	8	n/a	n/a	n/a	n/a	n/a	n/a	n/a	n/a	n/a	n/a	n/a	n/a	n/a	n/a	n/a
3186566	PROB	n/a	LTP089	ltpFR	8	n/a	n/a	n/a	n/a	n/a	n/a	17	6	7	4	n/a	n/a	n/a	n/a	n/a
3193575	STOP	n/a	LTP089	ltpFR	8	n/a	n/a	n/a	n/a	n/a	n/a	n/a	n/a	n/a	n/a	n/a	n/a	n/a	n/a	n/a
3194674	WORD	wordpools/wasnorm_wordpool.txt	LTP089	ltpFR	8	12	0	CREATURE	403	n/a	0	n/a	0	0	0	0	0.5869140625	0.422607421875	lower	../fonts/amplitud.ttf
3197682	START	n/a	LTP089	ltpFR	8	n/a	n/a	n/a	n/a	n/a	n/a	n/a	n/a	n/a	n/a	n/a	n/a	n/a	n/a	n/a
3198532	PROB	n/a	LTP089	ltpFR	8	n/a	n/a	n/a	n/a	n/a	n/a	19	9	5	5	n/a	n/a	n/a	n/a	n/a
3202081	PROB	n/a	LTP089	ltpFR	8	n/a	n/a	n/a	n/a	n/a	n/a	14	5	5	4	n/a	n/a	n/a	n/a	n/a
3204421	STOP	n/a	LTP089	ltpFR	8	n/a	n/a	n/a	n/a	n/a	n/a	n/a	n/a	n/a	n/a	n/a	n/a	n/a	n/a	n/a
3206873	WORD	wordpools/wasnorm_wordpool.txt	LTP089	ltpFR	8	12	1	STATUE	1374	n/a	2	n/a	0	0	0	1	0.412841796875	0.57763671875	upper	../fonts/zerothre.ttf
3207348	KEY_MSG	n/a	LTP089	ltpFR	8	12	n/a	n/a	n/a	n/a	n/a	n/a	0	0	0	n/a	n/a	n/a	n/a	n/a
3209881	START	n/a	LTP089	ltpFR	8	n/a	n/a	n/a	n/a	n/a	n/a	n/a	n/a	n/a	n/a	n/a	n/a	n/a	n/a	n/a
3210713	PROB	n/a	LTP089	ltpFR	8	n/a	n/a	n/a	n/a	n/a	n/a	18	4	5	9	n/a	n/a	n/a	n/a	n/a
3213289	PROB	n/a	LTP089	ltpFR	8	n/a	n/a	n/a	n/a	n/a	n/a	10	1	6	3	n/a	n/a	n/a	n/a	n/a
3215414	PROB	n/a	LTP089	ltpFR	8	n/a	n/a	n/a	n/a	n/a	n/a	10	6	2	2	n/a	n/a	n/a	n/a	n/a
3217141	STOP	n/a	LTP089	ltpFR	8	n/a	n/a	n/a	n/a	n/a	n/a	n/a	n/a	n/a	n/a	n/a	n/a	n/a	n/a	n/a
3219022	WORD	wordpools/wasnorm_wordpool.txt	LTP089	ltpFR	8	12	1	METEOR	889	n/a	0	n/a	0	0	0	1	0.412841796875	0.57763671875	upper	../fonts/zerothre.ttf
3222030	START	n/a	LTP089	ltpFR	8	n/a	n/a	n/a	n/a	n/a	n/a	n/a	n/a	n/a	n/a	n/a	n/a	n/a	n/a	n/a
3222996	PROB	n/a	LTP089	ltpFR	8	n/a	n/a	n/a	n/a	n/a	n/a	13	5	7	4	n/a	n/a	n/a	n/a	n/a
3226163	PROB	n/a	LTP089	ltpFR	8	n/a	n/a	n/a	n/a	n/a	n/a	15	1	5	9	n/a	n/a	n/a	n/a	n/a
3229149	STOP	n/a	LTP089	ltpFR	8	n/a	n/a	n/a	n/a	n/a	n/a	n/a	n/a	n/a	n/a	n/a	n/a	n/a	n/a	n/a
3231004	WORD	wordpools/wasnorm_wordpool.txt	LTP089	ltpFR	8	12	0	STONE	1385	n/a	2	n/a	0	0	0	0	0.5869140625	0.422607421875	lower	../fonts/amplitud.ttf
3231529	KEY_MSG	n/a	LTP089	ltpFR	8	12	n/a	n/a	n/a	n/a	n/a	n/a	0	0	0	n/a	n/a	n/a	n/a	n/a
3234013	START	n/a	LTP089	ltpFR	8	n/a	n/a	n/a	n/a	n/a	n/a	n/a	n/a	n/a	n/a	n/a	n/a	n/a	n/a	n/a
3234929	PROB	n/a	LTP089	ltpFR	8	n/a	n/a	n/a	n/a	n/a	n/a	18	6	6	6	n/a	n/a	n/a	n/a	n/a
3236795	PROB	n/a	LTP089	ltpFR	8	n/a	n/a	n/a	n/a	n/a	n/a	20	6	5	9	n/a	n/a	n/a	n/a	n/a
3240925	STOP	n/a	LTP089	ltpFR	8	n/a	n/a	n/a	n/a	n/a	n/a	n/a	n/a	n/a	n/a	n/a	n/a	n/a	n/a	n/a
3242945	WORD	wordpools/wasnorm_wordpool.txt	LTP089	ltpFR	8	12	0	ALMANAC	17	n/a	0	n/a	0	0	0	0	0.5869140625	0.422607421875	lower	../fonts/amplitud.ttf
3245953	START	n/a	LTP089	ltpFR	8	n/a	n/a	n/a	n/a	n/a	n/a	n/a	n/a	n/a	n/a	n/a	n/a	n/a	n/a	n/a
3246995	PROB	n/a	LTP089	ltpFR	8	n/a	n/a	n/a	n/a	n/a	n/a	23	9	6	8	n/a	n/a	n/a	n/a	n/a
3249710	PROB	n/a	LTP089	ltpFR	8	n/a	n/a	n/a	n/a	n/a	n/a	8	1	2	5	n/a	n/a	n/a	n/a	n/a
3253953	STOP	n/a	LTP089	ltpFR	8	n/a	n/a	n/a	n/a	n/a	n/a	n/a	n/a	n/a	n/a	n/a	n/a	n/a	n/a	n/a
3255127	WORD	wordpools/wasnorm_wordpool.txt	LTP089	ltpFR	8	12	0	NOVEL	960	n/a	0	n/a	0	0	0	0	0.5869140625	0.422607421875	lower	../fonts/amplitud.ttf
3258136	START	n/a	LTP089	ltpFR	8	n/a	n/a	n/a	n/a	n/a	n/a	n/a	n/a	n/a	n/a	n/a	n/a	n/a	n/a	n/a
3259102	PROB	n/a	LTP089	ltpFR	8	n/a	n/a	n/a	n/a	n/a	n/a	16	4	8	4	n/a	n/a	n/a	n/a	n/a
3266135	STOP	n/a	LTP089	ltpFR	8	n/a	n/a	n/a	n/a	n/a	n/a	n/a	n/a	n/a	n/a	n/a	n/a	n/a	n/a	n/a
3267060	WORD	wordpools/wasnorm_wordpool.txt	LTP089	ltpFR	8	12	0	JUDGE	761	n/a	0	n/a	0	0	0	0	0.5869140625	0.422607421875	lower	../fonts/amplitud.ttf
3270068	START	n/a	LTP089	ltpFR	8	n/a	n/a	n/a	n/a	n/a	n/a	n/a	n/a	n/a	n/a	n/a	n/a	n/a	n/a	n/a
3271118	PROB	n/a	LTP089	ltpFR	8	n/a	n/a	n/a	n/a	n/a	n/a	11	2	3	6	n/a	n/a	n/a	n/a	n/a
3273376	PROB	n/a	LTP089	ltpFR	8	n/a	n/a	n/a	n/a	n/a	n/a	18	5	5	8	n/a	n/a	n/a	n/a	n/a
3276781	STOP	n/a	LTP089	ltpFR	8	n/a	n/a	n/a	n/a	n/a	n/a	n/a	n/a	n/a	n/a	n/a	n/a	n/a	n/a	n/a
3279117	WORD	wordpools/wasnorm_wordpool.txt	LTP089	ltpFR	8	12	1	PANTHER	1009	n/a	2	n/a	0	0	0	1	0.412841796875	0.57763671875	upper	../fonts/zerothre.ttf
3279850	KEY_MSG	n/a	LTP089	ltpFR	8	12	n/a	n/a	n/a	n/a	n/a	n/a	0	0	0	n/a	n/a	n/a	n/a	n/a
3282126	START	n/a	LTP089	ltpFR	8	n/a	n/a	n/a	n/a	n/a	n/a	n/a	n/a	n/a	n/a	n/a	n/a	n/a	n/a	n/a
3283033	PROB	n/a	LTP089	ltpFR	8	n/a	n/a	n/a	n/a	n/a	n/a	23	8	7	8	n/a	n/a	n/a	n/a	n/a
3286633	PROB	n/a	LTP089	ltpFR	8	n/a	n/a	n/a	n/a	n/a	n/a	13	4	6	3	n/a	n/a	n/a	n/a	n/a
3288917	STOP	n/a	LTP089	ltpFR	8	n/a	n/a	n/a	n/a	n/a	n/a	n/a	n/a	n/a	n/a	n/a	n/a	n/a	n/a	n/a
3291183	WORD	wordpools/wasnorm_wordpool.txt	LTP089	ltpFR	8	12	1	SHRINE	1298	n/a	0	n/a	0	0	0	1	0.412841796875	0.57763671875	upper	../fonts/zerothre.ttf
3294191	START	n/a	LTP089	ltpFR	8	n/a	n/a	n/a	n/a	n/a	n/a	n/a	n/a	n/a	n/a	n/a	n/a	n/a	n/a	n/a
3295033	PROB	n/a	LTP089	ltpFR	8	n/a	n/a	n/a	n/a	n/a	n/a	17	7	3	7	n/a	n/a	n/a	n/a	n/a
3297099	PROB	n/a	LTP089	ltpFR	8	n/a	n/a	n/a	n/a	n/a	n/a	15	4	2	9	n/a	n/a	n/a	n/a	n/a
3300973	STOP	n/a	LTP089	ltpFR	8	n/a	n/a	n/a	n/a	n/a	n/a	n/a	n/a	n/a	n/a	n/a	n/a	n/a	n/a	n/a
3303357	WORD	wordpools/wasnorm_wordpool.txt	LTP089	ltpFR	8	12	1	LAWYER	806	n/a	0	n/a	0	0	0	1	0.412841796875	0.57763671875	upper	../fonts/zerothre.ttf
3306365	START	n/a	LTP089	ltpFR	8	n/a	n/a	n/a	n/a	n/a	n/a	n/a	n/a	n/a	n/a	n/a	n/a	n/a	n/a	n/a
3307473	PROB	n/a	LTP089	ltpFR	8	n/a	n/a	n/a	n/a	n/a	n/a	16	3	5	8	n/a	n/a	n/a	n/a	n/a
3310730	PROB	n/a	LTP089	ltpFR	8	n/a	n/a	n/a	n/a	n/a	n/a	13	2	5	6	n/a	n/a	n/a	n/a	n/a
3313893	STOP	n/a	LTP089	ltpFR	8	n/a	n/a	n/a	n/a	n/a	n/a	n/a	n/a	n/a	n/a	n/a	n/a	n/a	n/a	n/a
3315348	WORD	wordpools/wasnorm_wordpool.txt	LTP089	ltpFR	8	12	1	BANDANNA	80	n/a	0	n/a	0	0	0	1	0.412841796875	0.57763671875	upper	../fonts/zerothre.ttf
3318356	START	n/a	LTP089	ltpFR	8	n/a	n/a	n/a	n/a	n/a	n/a	n/a	n/a	n/a	n/a	n/a	n/a	n/a	n/a	n/a
3319331	PROB	n/a	LTP089	ltpFR	8	n/a	n/a	n/a	n/a	n/a	n/a	20	6	9	5	n/a	n/a	n/a	n/a	n/a
3321630	PROB	n/a	LTP089	ltpFR	8	n/a	n/a	n/a	n/a	n/a	n/a	16	9	5	2	n/a	n/a	n/a	n/a	n/a
3325045	STOP	n/a	LTP089	ltpFR	8	n/a	n/a	n/a	n/a	n/a	n/a	n/a	n/a	n/a	n/a	n/a	n/a	n/a	n/a	n/a
3328130	REC_START	n/a	LTP089	ltpFR	8	12	n/a	n/a	n/a	n/a	n/a	n/a	0	0	0	n/a	n/a	n/a	n/a	n/a
3330978	REC_WORD	wordpools/wasnorm_wordpool.txt	LTP089	ltpFR	8	12	1	BANDANNA	80	n/a	0	n/a	0	0	0	n/a	n/a	n/a	n/a	n/a
3332176	REC_WORD	wordpools/wasnorm_wordpool.txt	LTP089	ltpFR	8	12	0	ALMANAC	17	n/a	0	n/a	0	0	0	n/a	n/a	n/a	n/a	n/a
3333363	REC_WORD_VV	wordpools/wasnorm_wordpool.txt	LTP089	ltpFR	8	12	n/a	<>	-1	n/a	n/a	n/a	0	0	0	n/a	n/a	n/a	n/a	n/a
3419357	REC_START	n/a	LTP089	ltpFR	8	1	n/a	n/a	n/a	n/a	n/a	n/a	0	0	0	n/a	n/a	n/a	n/a	n/a
3419398	RECOG_TARGET	n/a	LTP089	ltpFR	8	1	1	PRESIDENT	1121	5	1	n/a	0	0	0	n/a	n/a	n/a	n/a	n/a
3421497	RECOG_RESP	n/a	LTP089	ltpFR	8	1	1	PRESIDENT	1121	n/a	1	n/a	0	0	0	n/a	n/a	n/a	n/a	n/a
3423083	RECOG_CONF	n/a	LTP089	ltpFR	8	1	1	PRESIDENT	1121	5	1	n/a	0	0	0	n/a	n/a	n/a	n/a	n/a
3424322	RECOG_TARGET	n/a	LTP089	ltpFR	8	1	1	DART	440	5	1	n/a	0	0	0	n/a	n/a	n/a	n/a	n/a
3425757	RECOG_RESP	n/a	LTP089	ltpFR	8	1	1	DART	440	n/a	1	n/a	0	0	0	n/a	n/a	n/a	n/a	n/a
3426092	RECOG_CONF	n/a	LTP089	ltpFR	8	1	1	DART	440	5	1	n/a	0	0	0	n/a	n/a	n/a	n/a	n/a
3427531	RECOG_LURE	n/a	LTP089	ltpFR	8	1	n/a	EAR	513	5	n/a	n/a	0	0	0	n/a	n/a	n/a	n/a	n/a
3428511	RECOG_RESP	n/a	LTP089	ltpFR	8	1	n/a	EAR	513	n/a	n/a	n/a	0	0	0	n/a	n/a	n/a	n/a	n/a
3429022	RECOG_CONF	n/a	LTP089	ltpFR	8	1	n/a	EAR	513	5	n/a	n/a	0	0	0	n/a	n/a	n/a	n/a	n/a
3430172	RECOG_TARGET	n/a	LTP089	ltpFR	8	1	1	MARKET	871	5	0	n/a	0	0	0	n/a	n/a	n/a	n/a	n/a
3430876	RECOG_RESP	n/a	LTP089	ltpFR	8	1	1	MARKET	871	n/a	0	n/a	0	0	0	n/a	n/a	n/a	n/a	n/a
3431188	RECOG_CONF	n/a	LTP089	ltpFR	8	1	1	MARKET	871	5	0	n/a	0	0	0	n/a	n/a	n/a	n/a	n/a
3432514	RECOG_TARGET	n/a	LTP089	ltpFR	8	1	0	PUMPKIN	1142	5	0	n/a	0	0	0	n/a	n/a	n/a	n/a	n/a
3433200	RECOG_RESP	n/a	LTP089	ltpFR	8	1	0	PUMPKIN	1142	n/a	0	n/a	0	0	0	n/a	n/a	n/a	n/a	n/a
3433582	RECOG_CONF	n/a	LTP089	ltpFR	8	1	0	PUMPKIN	1142	5	0	n/a	0	0	0	n/a	n/a	n/a	n/a	n/a
3434922	RECOG_LURE	n/a	LTP089	ltpFR	8	1	n/a	BOAT	144	5	n/a	n/a	0	0	0	n/a	n/a	n/a	n/a	n/a
3435695	RECOG_RESP	n/a	LTP089	ltpFR	8	1	n/a	BOAT	144	n/a	n/a	n/a	0	0	0	n/a	n/a	n/a	n/a	n/a
3436067	RECOG_CONF	n/a	LTP089	ltpFR	8	1	n/a	BOAT	144	5	n/a	n/a	0	0	0	n/a	n/a	n/a	n/a	n/a
3437422	RECOG_LURE	n/a	LTP089	ltpFR	8	1	n/a	FILM	565	5	n/a	n/a	0	0	0	n/a	n/a	n/a	n/a	n/a
3438129	RECOG_RESP	n/a	LTP089	ltpFR	8	1	n/a	FILM	565	n/a	n/a	n/a	0	0	0	n/a	n/a	n/a	n/a	n/a
3438454	RECOG_CONF	n/a	LTP089	ltpFR	8	1	n/a	FILM	565	5	n/a	n/a	0	0	0	n/a	n/a	n/a	n/a	n/a
3439846	RECOG_LURE	n/a	LTP089	ltpFR	8	1	n/a	DANDELION	438	5	n/a	n/a	0	0	0	n/a	n/a	n/a	n/a	n/a
3440643	RECOG_RESP	n/a	LTP089	ltpFR	8	1	n/a	DANDELION	438	n/a	n/a	n/a	0	0	0	n/a	n/a	n/a	n/a	n/a
3440955	RECOG_CONF	n/a	LTP089	ltpFR	8	1	n/a	DANDELION	438	5	n/a	n/a	0	0	0	n/a	n/a	n/a	n/a	n/a
3442354	RECOG_LURE	n/a	LTP089	ltpFR	8	1	n/a	NOMAD	955	5	n/a	n/a	0	0	0	n/a	n/a	n/a	n/a	n/a
3443098	RECOG_RESP	n/a	LTP089	ltpFR	8	1	n/a	NOMAD	955	n/a	n/a	n/a	0	0	0	n/a	n/a	n/a	n/a	n/a
3443433	RECOG_CONF	n/a	LTP089	ltpFR	8	1	n/a	NOMAD	955	5	n/a	n/a	0	0	0	n/a	n/a	n/a	n/a	n/a
3444720	RECOG_TARGET	n/a	LTP089	ltpFR	8	1	0	PITCHFORK	1078	5	1	n/a	0	0	0	n/a	n/a	n/a	n/a	n/a
3445562	RECOG_RESP	n/a	LTP089	ltpFR	8	1	0	PITCHFORK	1078	n/a	1	n/a	0	0	0	n/a	n/a	n/a	n/a	n/a
3445944	RECOG_CONF	n/a	LTP089	ltpFR	8	1	0	PITCHFORK	1078	5	1	n/a	0	0	0	n/a	n/a	n/a	n/a	n/a
3447104	RECOG_TARGET	n/a	LTP089	ltpFR	8	1	0	CHARCOAL	281	5	2	n/a	0	0	0	n/a	n/a	n/a	n/a	n/a
3447867	RECOG_RESP	n/a	LTP089	ltpFR	8	1	0	CHARCOAL	281	n/a	2	n/a	0	0	0	n/a	n/a	n/a	n/a	n/a
3448179	RECOG_CONF	n/a	LTP089	ltpFR	8	1	0	CHARCOAL	281	5	2	n/a	0	0	0	n/a	n/a	n/a	n/a	n/a
3449446	RECOG_TARGET	n/a	LTP089	ltpFR	8	1	1	CALENDAR	221	5	0	n/a	0	0	0	n/a	n/a	n/a	n/a	n/a
3450172	RECOG_RESP	n/a	LTP089	ltpFR	8	1	1	CALENDAR	221	n/a	0	n/a	0	0	0	n/a	n/a	n/a	n/a	n/a
3450554	RECOG_CONF	n/a	LTP089	ltpFR	8	1	1	CALENDAR	221	5	0	n/a	0	0	0	n/a	n/a	n/a	n/a	n/a
3451770	RECOG_TARGET	n/a	LTP089	ltpFR	8	1	0	JUDGE	761	5	0	n/a	0	0	0	n/a	n/a	n/a	n/a	n/a
3452317	RECOG_RESP	n/a	LTP089	ltpFR	8	1	0	JUDGE	761	n/a	0	n/a	0	0	0	n/a	n/a	n/a	n/a	n/a
3452652	RECOG_CONF	n/a	LTP089	ltpFR	8	1	0	JUDGE	761	5	0	n/a	0	0	0	n/a	n/a	n/a	n/a	n/a
3453845	RECOG_LURE	n/a	LTP089	ltpFR	8	1	n/a	CAFE	216	5	n/a	n/a	0	0	0	n/a	n/a	n/a	n/a	n/a
3454462	RECOG_RESP	n/a	LTP089	ltpFR	8	1	n/a	CAFE	216	n/a	n/a	n/a	0	0	0	n/a	n/a	n/a	n/a	n/a
3454820	RECOG_CONF	n/a	LTP089	ltpFR	8	1	n/a	CAFE	216	5	n/a	n/a	0	0	0	n/a	n/a	n/a	n/a	n/a
3456078	RECOG_TARGET	n/a	LTP089	ltpFR	8	1	1	CUSTOMER	430	5	0	n/a	0	0	0	n/a	n/a	n/a	n/a	n/a
3456617	RECOG_RESP	n/a	LTP089	ltpFR	8	1	1	CUSTOMER	430	n/a	0	n/a	0	0	0	n/a	n/a	n/a	n/a	n/a
3456952	RECOG_CONF	n/a	LTP089	ltpFR	8	1	1	CUSTOMER	430	5	0	n/a	0	0	0	n/a	n/a	n/a	n/a	n/a
3458220	RECOG_LURE	n/a	LTP089	ltpFR	8	1	n/a	SLACKS	1323	5	n/a	n/a	0	0	0	n/a	n/a	n/a	n/a	n/a
3459600	RECOG_RESP	n/a	LTP089	ltpFR	8	1	n/a	SLACKS	1323	n/a	n/a	n/a	0	0	0	n/a	n/a	n/a	n/a	n/a
3459935	RECOG_CONF	n/a	LTP089	ltpFR	8	1	n/a	SLACKS	1323	5	n/a	n/a	0	0	0	n/a	n/a	n/a	n/a	n/a
3461286	RECOG_TARGET	n/a	LTP089	ltpFR	8	1	0	TONGUE	1479	5	1	n/a	0	0	0	n/a	n/a	n/a	n/a	n/a
3461915	RECOG_RESP	n/a	LTP089	ltpFR	8	1	0	TONGUE	1479	n/a	1	n/a	0	0	0	n/a	n/a	n/a	n/a	n/a
3462263	RECOG_CONF	n/a	LTP089	ltpFR	8	1	0	TONGUE	1479	5	1	n/a	0	0	0	n/a	n/a	n/a	n/a	n/a
3463603	RECOG_TARGET	n/a	LTP089	ltpFR	8	1	0	ROBIN	1199	5	0	n/a	0	0	0	n/a	n/a	n/a	n/a	n/a
3464170	RECOG_RESP	n/a	LTP089	ltpFR	8	1	0	ROBIN	1199	n/a	0	n/a	0	0	0	n/a	n/a	n/a	n/a	n/a
3464459	RECOG_CONF	n/a	LTP089	ltpFR	8	1	0	ROBIN	1199	5	0	n/a	0	0	0	n/a	n/a	n/a	n/a	n/a
3465778	RECOG_TARGET	n/a	LTP089	ltpFR	8	1	0	KNAPSACK	783	5	1	n/a	0	0	0	n/a	n/a	n/a	n/a	n/a
3466854	RECOG_RESP	n/a	LTP089	ltpFR	8	1	0	KNAPSACK	783	n/a	1	n/a	0	0	0	n/a	n/a	n/a	n/a	n/a
3467202	RECOG_CONF	n/a	LTP089	ltpFR	8	1	0	KNAPSACK	783	5	1	n/a	0	0	0	n/a	n/a	n/a	n/a	n/a
3468586	RECOG_TARGET	n/a	LTP089	ltpFR	8	1	0	ASSISTANT	48	5	2	n/a	0	0	0	n/a	n/a	n/a	n/a	n/a
3469228	RECOG_RESP	n/a	LTP089	ltpFR	8	1	0	ASSISTANT	48	n/a	2	n/a	0	0	0	n/a	n/a	n/a	n/a	n/a
3469530	RECOG_CONF	n/a	LTP089	ltpFR	8	1	0	ASSISTANT	48	5	2	n/a	0	0	0	n/a	n/a	n/a	n/a	n/a
3472915	REC_START	n/a	LTP089	ltpFR	8	2	n/a	n/a	n/a	n/a	n/a	n/a	0	0	0	n/a	n/a	n/a	n/a	n/a
3472952	RECOG_TARGET	n/a	LTP089	ltpFR	8	2	0	CAPITAL	238	5	0	n/a	0	0	0	n/a	n/a	n/a	n/a	n/a
3474087	RECOG_RESP	n/a	LTP089	ltpFR	8	2	0	CAPITAL	238	n/a	0	n/a	0	0	0	n/a	n/a	n/a	n/a	n/a
3474435	RECOG_CONF	n/a	LTP089	ltpFR	8	2	0	CAPITAL	238	5	0	n/a	0	0	0	n/a	n/a	n/a	n/a	n/a
3475810	RECOG_LURE	n/a	LTP089	ltpFR	8	2	n/a	ANTELOPE	27	5	n/a	n/a	0	0	0	n/a	n/a	n/a	n/a	n/a
3476611	RECOG_RESP	n/a	LTP089	ltpFR	8	2	n/a	ANTELOPE	27	n/a	n/a	n/a	0	0	0	n/a	n/a	n/a	n/a	n/a
3476959	RECOG_CONF	n/a	LTP089	ltpFR	8	2	n/a	ANTELOPE	27	5	n/a	n/a	0	0	0	n/a	n/a	n/a	n/a	n/a
3478302	RECOG_LURE	n/a	LTP089	ltpFR	8	2	n/a	JAM	748	5	n/a	n/a	0	0	0	n/a	n/a	n/a	n/a	n/a
3478886	RECOG_RESP	n/a	LTP089	ltpFR	8	2	n/a	JAM	748	n/a	n/a	n/a	0	0	0	n/a	n/a	n/a	n/a	n/a
3479175	RECOG_CONF	n/a	LTP089	ltpFR	8	2	n/a	JAM	748	5	n/a	n/a	0	0	0	n/a	n/a	n/a	n/a	n/a
3480485	RECOG_TARGET	n/a	LTP089	ltpFR	8	2	0	BARLEY	88	5	0	n/a	0	0	0	n/a	n/a	n/a	n/a	n/a
3481221	RECOG_RESP	n/a	LTP089	ltpFR	8	2	0	BARLEY	88	n/a	0	n/a	0	0	0	n/a	n/a	n/a	n/a	n/a
3481510	RECOG_CONF	n/a	LTP089	ltpFR	8	2	0	BARLEY	88	5	0	n/a	0	0	0	n/a	n/a	n/a	n/a	n/a
3482801	RECOG_LURE	n/a	LTP089	ltpFR	8	2	n/a	KNIGHT	786	5	n/a	n/a	0	0	0	n/a	n/a	n/a	n/a	n/a
3483785	RECOG_RESP	n/a	LTP089	ltpFR	8	2	n/a	KNIGHT	786	n/a	n/a	n/a	0	0	0	n/a	n/a	n/a	n/a	n/a
3484133	RECOG_CONF	n/a	LTP089	ltpFR	8	2	n/a	KNIGHT	786	5	n/a	n/a	0	0	0	n/a	n/a	n/a	n/a	n/a
3485618	RECOG_TARGET	n/a	LTP089	ltpFR	8	2	0	COSTUME	383	5	0	n/a	0	0	0	n/a	n/a	n/a	n/a	n/a
3486479	RECOG_RESP	n/a	LTP089	ltpFR	8	2	0	COSTUME	383	n/a	0	n/a	0	0	0	n/a	n/a	n/a	n/a	n/a
3486897	RECOG_CONF	n/a	LTP089	ltpFR	8	2	0	COSTUME	383	5	0	n/a	0	0	0	n/a	n/a	n/a	n/a	n/a
3488218	RECOG_TARGET	n/a	LTP089	ltpFR	8	2	1	PICKLE	1059	5	0	n/a	0	0	0	n/a	n/a	n/a	n/a	n/a
3489367	RECOG_RESP	n/a	LTP089	ltpFR	8	2	1	PICKLE	1059	n/a	0	n/a	0	0	0	n/a	n/a	n/a	n/a	n/a
3489692	RECOG_CONF	n/a	LTP089	ltpFR	8	2	1	PICKLE	1059	5	0	n/a	0	0	0	n/a	n/a	n/a	n/a	n/a
3490984	RECOG_TARGET	n/a	LTP089	ltpFR	8	2	0	WARDROBE	1587	5	0	n/a	0	0	0	n/a	n/a	n/a	n/a	n/a
3492381	RECOG_RESP	n/a	LTP089	ltpFR	8	2	0	WARDROBE	1587	n/a	0	n/a	0	0	0	n/a	n/a	n/a	n/a	n/a
3492907	RECOG_CONF	n/a	LTP089	ltpFR	8	2	0	WARDROBE	1587	5	0	n/a	0	0	0	n/a	n/a	n/a	n/a	n/a
3494067	RECOG_LURE	n/a	LTP089	ltpFR	8	2	n/a	PAW	1029	5	n/a	n/a	0	0	0	n/a	n/a	n/a	n/a	n/a
3494860	RECOG_RESP	n/a	LTP089	ltpFR	8	2	n/a	PAW	1029	n/a	n/a	n/a	0	0	0	n/a	n/a	n/a	n/a	n/a
3495195	RECOG_CONF	n/a	LTP089	ltpFR	8	2	n/a	PAW	1029	5	n/a	n/a	0	0	0	n/a	n/a	n/a	n/a	n/a
3496650	RECOG_TARGET	n/a	LTP089	ltpFR	8	2	0	STEREO	1378	5	0	n/a	0	0	0	n/a	n/a	n/a	n/a	n/a
3497703	RECOG_RESP	n/a	LTP089	ltpFR	8	2	0	STEREO	1378	n/a	0	n/a	0	0	0	n/a	n/a	n/a	n/a	n/a
3498051	RECOG_CONF	n/a	LTP089	ltpFR	8	2	0	STEREO	1378	5	0	n/a	0	0	0	n/a	n/a	n/a	n/a	n/a
3499417	RECOG_LURE	n/a	LTP089	ltpFR	8	2	n/a	DAUGHTER	442	5	n/a	n/a	0	0	0	n/a	n/a	n/a	n/a	n/a
3500158	RECOG_RESP	n/a	LTP089	ltpFR	8	2	n/a	DAUGHTER	442	n/a	n/a	n/a	0	0	0	n/a	n/a	n/a	n/a	n/a
3500447	RECOG_CONF	n/a	LTP089	ltpFR	8	2	n/a	DAUGHTER	442	5	n/a	n/a	0	0	0	n/a	n/a	n/a	n/a	n/a
3501875	RECOG_TARGET	n/a	LTP089	ltpFR	8	2	0	HEATER	698	5	1	n/a	0	0	0	n/a	n/a	n/a	n/a	n/a
3503161	RECOG_RESP	n/a	LTP089	ltpFR	8	2	0	HEATER	698	n/a	1	n/a	0	0	0	n/a	n/a	n/a	n/a	n/a
3503473	RECOG_CONF	n/a	LTP089	ltpFR	8	2	0	HEATER	698	5	1	n/a	0	0	0	n/a	n/a	n/a	n/a	n/a
3504866	RECOG_LURE	n/a	LTP089	ltpFR	8	2	n/a	NECKLACE	940	5	n/a	n/a	0	0	0	n/a	n/a	n/a	n/a	n/a
3505655	RECOG_RESP	n/a	LTP089	ltpFR	8	2	n/a	NECKLACE	940	n/a	n/a	n/a	0	0	0	n/a	n/a	n/a	n/a	n/a
3506027	RECOG_CONF	n/a	LTP089	ltpFR	8	2	n/a	NECKLACE	940	5	n/a	n/a	0	0	0	n/a	n/a	n/a	n/a	n/a
3507333	RECOG_TARGET	n/a	LTP089	ltpFR	8	2	0	UMBRELLA	1534	5	0	n/a	0	0	0	n/a	n/a	n/a	n/a	n/a
3508289	RECOG_RESP	n/a	LTP089	ltpFR	8	2	0	UMBRELLA	1534	n/a	0	n/a	0	0	0	n/a	n/a	n/a	n/a	n/a
3508614	RECOG_CONF	n/a	LTP089	ltpFR	8	2	0	UMBRELLA	1534	5	0	n/a	0	0	0	n/a	n/a	n/a	n/a	n/a
3510049	RECOG_TARGET	n/a	LTP089	ltpFR	8	2	0	CUBE	420	5	0	n/a	0	0	0	n/a	n/a	n/a	n/a	n/a
3510774	RECOG_RESP	n/a	LTP089	ltpFR	8	2	0	CUBE	420	n/a	0	n/a	0	0	0	n/a	n/a	n/a	n/a	n/a
3511086	RECOG_CONF	n/a	LTP089	ltpFR	8	2	0	CUBE	420	5	0	n/a	0	0	0	n/a	n/a	n/a	n/a	n/a
3512482	RECOG_TARGET	n/a	LTP089	ltpFR	8	2	0	BUTTON	207	5	1	n/a	0	0	0	n/a	n/a	n/a	n/a	n/a
3513672	RECOG_RESP	n/a	LTP089	ltpFR	8	2	0	BUTTON	207	n/a	1	n/a	0	0	0	n/a	n/a	n/a	n/a	n/a
3514059	RECOG_CONF	n/a	LTP089	ltpFR	8	2	0	BUTTON	207	5	1	n/a	0	0	0	n/a	n/a	n/a	n/a	n/a
3515257	RECOG_TARGET	n/a	LTP089	ltpFR	8	2	0	FLASK	576	5	0	n/a	0	0	0	n/a	n/a	n/a	n/a	n/a
3516032	RECOG_RESP	n/a	LTP089	ltpFR	8	2	0	FLASK	576	n/a	0	n/a	0	0	0	n/a	n/a	n/a	n/a	n/a
3516344	RECOG_CONF	n/a	LTP089	ltpFR	8	2	0	FLASK	576	5	0	n/a	0	0	0	n/a	n/a	n/a	n/a	n/a
3517682	RECOG_LURE	n/a	LTP089	ltpFR	8	2	n/a	MALL	860	5	n/a	n/a	0	0	0	n/a	n/a	n/a	n/a	n/a
3518756	RECOG_RESP	n/a	LTP089	ltpFR	8	2	n/a	MALL	860	n/a	n/a	n/a	0	0	0	n/a	n/a	n/a	n/a	n/a
3519035	RECOG_CONF	n/a	LTP089	ltpFR	8	2	n/a	MALL	860	5	n/a	n/a	0	0	0	n/a	n/a	n/a	n/a	n/a
3520540	RECOG_TARGET	n/a	LTP089	ltpFR	8	2	1	COOK	372	5	0	n/a	0	0	0	n/a	n/a	n/a	n/a	n/a
3521459	RECOG_RESP	n/a	LTP089	ltpFR	8	2	1	COOK	372	n/a	0	n/a	0	0	0	n/a	n/a	n/a	n/a	n/a
3521895	RECOG_CONF	n/a	LTP089	ltpFR	8	2	1	COOK	372	5	0	n/a	0	0	0	n/a	n/a	n/a	n/a	n/a
3523198	RECOG_TARGET	n/a	LTP089	ltpFR	8	2	1	KITTEN	780	5	0	n/a	0	0	0	n/a	n/a	n/a	n/a	n/a
3524602	RECOG_RESP	n/a	LTP089	ltpFR	8	2	1	KITTEN	780	n/a	0	n/a	0	0	0	n/a	n/a	n/a	n/a	n/a
3525030	RECOG_CONF	n/a	LTP089	ltpFR	8	2	1	KITTEN	780	5	0	n/a	0	0	0	n/a	n/a	n/a	n/a	n/a
3527886	REC_START	n/a	LTP089	ltpFR	8	3	n/a	n/a	n/a	n/a	n/a	n/a	0	0	0	n/a	n/a	n/a	n/a	n/a
3527923	RECOG_TARGET	n/a	LTP089	ltpFR	8	3	0	GREASE	660	5	0	n/a	0	0	0	n/a	n/a	n/a	n/a	n/a
3528669	RECOG_RESP	n/a	LTP089	ltpFR	8	3	0	GREASE	660	n/a	0	n/a	0	0	0	n/a	n/a	n/a	n/a	n/a
3529133	RECOG_CONF	n/a	LTP089	ltpFR	8	3	0	GREASE	660	5	0	n/a	0	0	0	n/a	n/a	n/a	n/a	n/a
3530431	RECOG_TARGET	n/a	LTP089	ltpFR	8	3	0	PLANT	1083	5	0	n/a	0	0	0	n/a	n/a	n/a	n/a	n/a
3531133	RECOG_RESP	n/a	LTP089	ltpFR	8	3	0	PLANT	1083	n/a	0	n/a	0	0	0	n/a	n/a	n/a	n/a	n/a
3531561	RECOG_CONF	n/a	LTP089	ltpFR	8	3	0	PLANT	1083	5	0	n/a	0	0	0	n/a	n/a	n/a	n/a	n/a
3532881	RECOG_TARGET	n/a	LTP089	ltpFR	8	3	0	ALMANAC	17	5	0	n/a	0	0	0	n/a	n/a	n/a	n/a	n/a
3533757	RECOG_RESP	n/a	LTP089	ltpFR	8	3	0	ALMANAC	17	n/a	0	n/a	0	0	0	n/a	n/a	n/a	n/a	n/a
3534129	RECOG_CONF	n/a	LTP089	ltpFR	8	3	0	ALMANAC	17	5	0	n/a	0	0	0	n/a	n/a	n/a	n/a	n/a
3535481	RECOG_TARGET	n/a	LTP089	ltpFR	8	3	1	TEAPOT	1442	5	0	n/a	0	0	0	n/a	n/a	n/a	n/a	n/a
3536262	RECOG_RESP	n/a	LTP089	ltpFR	8	3	1	TEAPOT	1442	n/a	0	n/a	0	0	0	n/a	n/a	n/a	n/a	n/a
3536610	RECOG_CONF	n/a	LTP089	ltpFR	8	3	1	TEAPOT	1442	5	0	n/a	0	0	0	n/a	n/a	n/a	n/a	n/a
3537997	RECOG_TARGET	n/a	LTP089	ltpFR	8	3	1	ATHLETE	52	5	0	n/a	0	0	0	n/a	n/a	n/a	n/a	n/a
3538806	RECOG_RESP	n/a	LTP089	ltpFR	8	3	1	ATHLETE	52	n/a	0	n/a	0	0	0	n/a	n/a	n/a	n/a	n/a
3539178	RECOG_CONF	n/a	LTP089	ltpFR	8	3	1	ATHLETE	52	5	0	n/a	0	0	0	n/a	n/a	n/a	n/a	n/a
3540497	RECOG_TARGET	n/a	LTP089	ltpFR	8	3	1	STUDENT	1395	5	2	n/a	0	0	0	n/a	n/a	n/a	n/a	n/a
3541121	RECOG_RESP	n/a	LTP089	ltpFR	8	3	1	STUDENT	1395	n/a	2	n/a	0	0	0	n/a	n/a	n/a	n/a	n/a
3541479	RECOG_CONF	n/a	LTP089	ltpFR	8	3	1	STUDENT	1395	5	2	n/a	0	0	0	n/a	n/a	n/a	n/a	n/a
3542797	RECOG_TARGET	n/a	LTP089	ltpFR	8	3	0	CHERRY	293	5	2	n/a	0	0	0	n/a	n/a	n/a	n/a	n/a
3543396	RECOG_RESP	n/a	LTP089	ltpFR	8	3	0	CHERRY	293	n/a	2	n/a	0	0	0	n/a	n/a	n/a	n/a	n/a
3543754	RECOG_CONF	n/a	LTP089	ltpFR	8	3	0	CHERRY	293	5	2	n/a	0	0	0	n/a	n/a	n/a	n/a	n/a
3545030	RECOG_TARGET	n/a	LTP089	ltpFR	8	3	1	BANDANNA	80	5	0	n/a	0	0	0	n/a	n/a	n/a	n/a	n/a
3545870	RECOG_RESP	n/a	LTP089	ltpFR	8	3	1	BANDANNA	80	n/a	0	n/a	0	0	0	n/a	n/a	n/a	n/a	n/a
3546409	RECOG_CONF	n/a	LTP089	ltpFR	8	3	1	BANDANNA	80	5	0	n/a	0	0	0	n/a	n/a	n/a	n/a	n/a
3547688	RECOG_TARGET	n/a	LTP089	ltpFR	8	3	0	BUCKET	184	5	1	n/a	0	0	0	n/a	n/a	n/a	n/a	n/a
3548404	RECOG_RESP	n/a	LTP089	ltpFR	8	3	0	BUCKET	184	n/a	1	n/a	0	0	0	n/a	n/a	n/a	n/a	n/a
3548786	RECOG_CONF	n/a	LTP089	ltpFR	8	3	0	BUCKET	184	5	1	n/a	0	0	0	n/a	n/a	n/a	n/a	n/a
3550088	RECOG_TARGET	n/a	LTP089	ltpFR	8	3	0	DILL	465	5	0	n/a	0	0	0	n/a	n/a	n/a	n/a	n/a
3550879	RECOG_RESP	n/a	LTP089	ltpFR	8	3	0	DILL	465	n/a	0	n/a	0	0	0	n/a	n/a	n/a	n/a	n/a
3551307	RECOG_CONF	n/a	LTP089	ltpFR	8	3	0	DILL	465	5	0	n/a	0	0	0	n/a	n/a	n/a	n/a	n/a
3552554	RECOG_LURE	n/a	LTP089	ltpFR	8	3	n/a	TAXI	1438	5	n/a	n/a	0	0	0	n/a	n/a	n/a	n/a	n/a
3553263	RECOG_RESP	n/a	LTP089	ltpFR	8	3	n/a	TAXI	1438	n/a	n/a	n/a	0	0	0	n/a	n/a	n/a	n/a	n/a
3553645	RECOG_CONF	n/a	LTP089	ltpFR	8	3	n/a	TAXI	1438	5	n/a	n/a	0	0	0	n/a	n/a	n/a	n/a	n/a
3554912	RECOG_TARGET	n/a	LTP089	ltpFR	8	3	0	CHEF	290	5	0	n/a	0	0	0	n/a	n/a	n/a	n/a	n/a
3555658	RECOG_RESP	n/a	LTP089	ltpFR	8	3	0	CHEF	290	n/a	0	n/a	0	0	0	n/a	n/a	n/a	n/a	n/a
3556122	RECOG_CONF	n/a	LTP089	ltpFR	8	3	0	CHEF	290	5	0	n/a	0	0	0	n/a	n/a	n/a	n/a	n/a
3557271	RECOG_TARGET	n/a	LTP089	ltpFR	8	3	1	BIOLOGIST	128	5	1	n/a	0	0	0	n/a	n/a	n/a	n/a	n/a
3558322	RECOG_RESP	n/a	LTP089	ltpFR	8	3	1	BIOLOGIST	128	n/a	1	n/a	0	0	0	n/a	n/a	n/a	n/a	n/a
3558717	RECOG_CONF	n/a	LTP089	ltpFR	8	3	1	BIOLOGIST	128	5	1	n/a	0	0	0	n/a	n/a	n/a	n/a	n/a
3559995	RECOG_TARGET	n/a	LTP089	ltpFR	8	3	1	CUSTARD	429	5	1	n/a	0	0	0	n/a	n/a	n/a	n/a	n/a
3560996	RECOG_RESP	n/a	LTP089	ltpFR	8	3	1	CUSTARD	429	n/a	1	n/a	0	0	0	n/a	n/a	n/a	n/a	n/a
3561484	RECOG_CONF	n/a	LTP089	ltpFR	8	3	1	CUSTARD	429	5	1	n/a	0	0	0	n/a	n/a	n/a	n/a	n/a
3562745	RECOG_TARGET	n/a	LTP089	ltpFR	8	3	0	WHISTLE	1606	5	0	n/a	0	0	0	n/a	n/a	n/a	n/a	n/a
3563450	RECOG_RESP	n/a	LTP089	ltpFR	8	3	0	WHISTLE	1606	n/a	0	n/a	0	0	0	n/a	n/a	n/a	n/a	n/a
3563938	RECOG_CONF	n/a	LTP089	ltpFR	8	3	0	WHISTLE	1606	5	0	n/a	0	0	0	n/a	n/a	n/a	n/a	n/a
3565295	RECOG_TARGET	n/a	LTP089	ltpFR	8	3	1	PATH	1023	5	0	n/a	0	0	0	n/a	n/a	n/a	n/a	n/a
3565934	RECOG_RESP	n/a	LTP089	ltpFR	8	3	1	PATH	1023	n/a	0	n/a	0	0	0	n/a	n/a	n/a	n/a	n/a
3566339	RECOG_CONF	n/a	LTP089	ltpFR	8	3	1	PATH	1023	5	0	n/a	0	0	0	n/a	n/a	n/a	n/a	n/a
3567736	RECOG_TARGET	n/a	LTP089	ltpFR	8	3	0	DRIVER	499	5	1	n/a	0	0	0	n/a	n/a	n/a	n/a	n/a
3568489	RECOG_RESP	n/a	LTP089	ltpFR	8	3	0	DRIVER	499	n/a	1	n/a	0	0	0	n/a	n/a	n/a	n/a	n/a
3568917	RECOG_CONF	n/a	LTP089	ltpFR	8	3	0	DRIVER	499	5	1	n/a	0	0	0	n/a	n/a	n/a	n/a	n/a
3570253	RECOG_TARGET	n/a	LTP089	ltpFR	8	3	0	COYOTE	396	5	1	n/a	0	0	0	n/a	n/a	n/a	n/a	n/a
3570963	RECOG_RESP	n/a	LTP089	ltpFR	8	3	0	COYOTE	396	n/a	1	n/a	0	0	0	n/a	n/a	n/a	n/a	n/a
3571414	RECOG_CONF	n/a	LTP089	ltpFR	8	3	0	COYOTE	396	5	1	n/a	0	0	0	n/a	n/a	n/a	n/a	n/a
3572678	RECOG_TARGET	n/a	LTP089	ltpFR	8	3	1	CHIEF	298	5	1	n/a	0	0	0	n/a	n/a	n/a	n/a	n/a
3574245	RECOG_RESP	n/a	LTP089	ltpFR	8	3	1	CHIEF	298	n/a	1	n/a	0	0	0	n/a	n/a	n/a	n/a	n/a
3574626	RECOG_CONF	n/a	LTP089	ltpFR	8	3	1	CHIEF	298	5	1	n/a	0	0	0	n/a	n/a	n/a	n/a	n/a
3576053	RECOG_TARGET	n/a	LTP089	ltpFR	8	3	0	COCOON	339	5	0	n/a	0	0	0	n/a	n/a	n/a	n/a	n/a
3576869	RECOG_RESP	n/a	LTP089	ltpFR	8	3	0	COCOON	339	n/a	0	n/a	0	0	0	n/a	n/a	n/a	n/a	n/a
3577274	RECOG_CONF	n/a	LTP089	ltpFR	8	3	0	COCOON	339	5	0	n/a	0	0	0	n/a	n/a	n/a	n/a	n/a
3580275	REC_START	n/a	LTP089	ltpFR	8	4	n/a	n/a	n/a	n/a	n/a	n/a	0	0	0	n/a	n/a	n/a	n/a	n/a
3580310	RECOG_TARGET	n/a	LTP089	ltpFR	8	4	0	PAINT	1003	5	0	n/a	0	0	0	n/a	n/a	n/a	n/a	n/a
3581043	RECOG_RESP	n/a	LTP089	ltpFR	8	4	0	PAINT	1003	n/a	0	n/a	0	0	0	n/a	n/a	n/a	n/a	n/a
3581522	RECOG_CONF	n/a	LTP089	ltpFR	8	4	0	PAINT	1003	5	0	n/a	0	0	0	n/a	n/a	n/a	n/a	n/a
3582835	RECOG_TARGET	n/a	LTP089	ltpFR	8	4	1	DOG	480	5	0	n/a	0	0	0	n/a	n/a	n/a	n/a	n/a
3583632	RECOG_RESP	n/a	LTP089	ltpFR	8	4	1	DOG	480	n/a	0	n/a	0	0	0	n/a	n/a	n/a	n/a	n/a
3583967	RECOG_CONF	n/a	LTP089	ltpFR	8	4	1	DOG	480	5	0	n/a	0	0	0	n/a	n/a	n/a	n/a	n/a
3585368	RECOG_LURE	n/a	LTP089	ltpFR	8	4	n/a	BUCKLE	185	5	n/a	n/a	0	0	0	n/a	n/a	n/a	n/a	n/a
3586017	RECOG_RESP	n/a	LTP089	ltpFR	8	4	n/a	BUCKLE	185	n/a	n/a	n/a	0	0	0	n/a	n/a	n/a	n/a	n/a
3586399	RECOG_CONF	n/a	LTP089	ltpFR	8	4	n/a	BUCKLE	185	5	n/a	n/a	0	0	0	n/a	n/a	n/a	n/a	n/a
3587668	RECOG_TARGET	n/a	LTP089	ltpFR	8	4	1	POOL	1103	5	0	n/a	0	0	0	n/a	n/a	n/a	n/a	n/a
3588491	RECOG_RESP	n/a	LTP089	ltpFR	8	4	1	POOL	1103	n/a	0	n/a	0	0	0	n/a	n/a	n/a	n/a	n/a
3588873	RECOG_CONF	n/a	LTP089	ltpFR	8	4	1	POOL	1103	5	0	n/a	0	0	0	n/a	n/a	n/a	n/a	n/a
3590151	RECOG_TARGET	n/a	LTP089	ltpFR	8	4	0	VENUS	1557	5	0	n/a	0	0	0	n/a	n/a	n/a	n/a	n/a
3591185	RECOG_RESP	n/a	LTP089	ltpFR	8	4	0	VENUS	1557	n/a	0	n/a	0	0	0	n/a	n/a	n/a	n/a	n/a
3591567	RECOG_CONF	n/a	LTP089	ltpFR	8	4	0	VENUS	1557	5	0	n/a	0	0	0	n/a	n/a	n/a	n/a	n/a
3592885	RECOG_TARGET	n/a	LTP089	ltpFR	8	4	0	MONKEY	911	5	0	n/a	0	0	0	n/a	n/a	n/a	n/a	n/a
3593709	RECOG_RESP	n/a	LTP089	ltpFR	8	4	0	MONKEY	911	n/a	0	n/a	0	0	0	n/a	n/a	n/a	n/a	n/a
3594114	RECOG_CONF	n/a	LTP089	ltpFR	8	4	0	MONKEY	911	5	0	n/a	0	0	0	n/a	n/a	n/a	n/a	n/a
3595393	RECOG_TARGET	n/a	LTP089	ltpFR	8	4	1	SALESMAN	1225	5	0	n/a	0	0	0	n/a	n/a	n/a	n/a	n/a
3596224	RECOG_RESP	n/a	LTP089	ltpFR	8	4	1	SALESMAN	1225	n/a	0	n/a	0	0	0	n/a	n/a	n/a	n/a	n/a
3596582	RECOG_CONF	n/a	LTP089	ltpFR	8	4	1	SALESMAN	1225	5	0	n/a	0	0	0	n/a	n/a	n/a	n/a	n/a
3597992	RECOG_LURE	n/a	LTP089	ltpFR	8	4	n/a	DICTATOR	462	5	n/a	n/a	0	0	0	n/a	n/a	n/a	n/a	n/a
3599137	RECOG_RESP_VV	n/a	LTP089	ltpFR	8	4	n/a	DICTATOR	462	n/a	n/a	n/a	0	0	0	n/a	n/a	n/a	n/a	n/a
3599451	RECOG_RESP	n/a	LTP089	ltpFR	8	4	n/a	DICTATOR	462	n/a	n/a	n/a	0	0	0	n/a	n/a	n/a	n/a	n/a
3600005	RECOG_CONF	n/a	LTP089	ltpFR	8	4	n/a	DICTATOR	462	5	n/a	n/a	0	0	0	n/a	n/a	n/a	n/a	n/a
3601384	RECOG_LURE	n/a	LTP089	ltpFR	8	4	n/a	BEAKER	104	5	n/a	n/a	0	0	0	n/a	n/a	n/a	n/a	n/a
3602140	RECOG_RESP	n/a	LTP089	ltpFR	8	4	n/a	BEAKER	104	n/a	n/a	n/a	0	0	0	n/a	n/a	n/a	n/a	n/a
3602576	RECOG_CONF	n/a	LTP089	ltpFR	8	4	n/a	BEAKER	104	5	n/a	n/a	0	0	0	n/a	n/a	n/a	n/a	n/a
3603909	RECOG_LURE	n/a	LTP089	ltpFR	8	4	n/a	TEA	1439	5	n/a	n/a	0	0	0	n/a	n/a	n/a	n/a	n/a
3605098	RECOG_RESP	n/a	LTP089	ltpFR	8	4	n/a	TEA	1439	n/a	n/a	n/a	0	0	0	n/a	n/a	n/a	n/a	n/a
3605451	RECOG_CONF	n/a	LTP089	ltpFR	8	4	n/a	TEA	1439	5	n/a	n/a	0	0	0	n/a	n/a	n/a	n/a	n/a
3606850	RECOG_TARGET	n/a	LTP089	ltpFR	8	4	0	KANGAROO	768	5	1	n/a	0	0	0	n/a	n/a	n/a	n/a	n/a
3607673	RECOG_RESP	n/a	LTP089	ltpFR	8	4	0	KANGAROO	768	n/a	1	n/a	0	0	0	n/a	n/a	n/a	n/a	n/a
3608083	RECOG_CONF	n/a	LTP089	ltpFR	8	4	0	KANGAROO	768	5	1	n/a	0	0	0	n/a	n/a	n/a	n/a	n/a
3609392	RECOG_TARGET	n/a	LTP089	ltpFR	8	4	0	DOCUMENT	479	5	0	n/a	0	0	0	n/a	n/a	n/a	n/a	n/a
3610282	RECOG_RESP_VV	n/a	LTP089	ltpFR	8	4	0	DOCUMENT	479	n/a	0	n/a	0	0	0	n/a	n/a	n/a	n/a	n/a
3610611	RECOG_RESP	n/a	LTP089	ltpFR	8	4	0	DOCUMENT	479	n/a	0	n/a	0	0	0	n/a	n/a	n/a	n/a	n/a
3611122	RECOG_CONF	n/a	LTP089	ltpFR	8	4	0	DOCUMENT	479	5	0	n/a	0	0	0	n/a	n/a	n/a	n/a	n/a
3612441	RECOG_LURE	n/a	LTP089	ltpFR	8	4	n/a	RESTAURANT	1187	5	n/a	n/a	0	0	0	n/a	n/a	n/a	n/a	n/a
3613574	RECOG_RESP	n/a	LTP089	ltpFR	8	4	n/a	RESTAURANT	1187	n/a	n/a	n/a	0	0	0	n/a	n/a	n/a	n/a	n/a
3614002	RECOG_CONF	n/a	LTP089	ltpFR	8	4	n/a	RESTAURANT	1187	5	n/a	n/a	0	0	0	n/a	n/a	n/a	n/a	n/a
3615191	RECOG_TARGET	n/a	LTP089	ltpFR	8	4	1	NAPKIN	937	5	1	n/a	0	0	0	n/a	n/a	n/a	n/a	n/a
3616148	RECOG_RESP	n/a	LTP089	ltpFR	8	4	1	NAPKIN	937	n/a	1	n/a	0	0	0	n/a	n/a	n/a	n/a	n/a
3616576	RECOG_CONF	n/a	LTP089	ltpFR	8	4	1	NAPKIN	937	5	1	n/a	0	0	0	n/a	n/a	n/a	n/a	n/a
3617916	RECOG_TARGET	n/a	LTP089	ltpFR	8	4	0	GLACIER	638	5	1	n/a	0	0	0	n/a	n/a	n/a	n/a	n/a
3618822	RECOG_RESP	n/a	LTP089	ltpFR	8	4	0	GLACIER	638	n/a	1	n/a	0	0	0	n/a	n/a	n/a	n/a	n/a
3619263	RECOG_CONF	n/a	LTP089	ltpFR	8	4	0	GLACIER	638	5	1	n/a	0	0	0	n/a	n/a	n/a	n/a	n/a
3620632	RECOG_TARGET	n/a	LTP089	ltpFR	8	4	0	PIPE	1073	5	0	n/a	0	0	0	n/a	n/a	n/a	n/a	n/a
