mstime	trial_type	stim_file	subject	experiment	session	trial	task	item_name	item_num	recog_conf	resp	answer	test_x	test_y	test_z	color_b	color_g	color_r	case	font
0	SESS_START	n/a	LTP063	ltpFR	8	n/a	n/a	n/a	n/a	n/a	n/a	n/a	0	0	0	n/a	n/a	n/a	n/a	n/a
26106	START	n/a	LTP063	ltpFR	8	n/a	n/a	n/a	n/a	n/a	n/a	n/a	n/a	n/a	n/a	n/a	n/a	n/a	n/a	n/a
26131	PROB	n/a	LTP063	ltpFR	8	n/a	n/a	n/a	n/a	n/a	n/a	15	6	1	8	n/a	n/a	n/a	n/a	n/a
29435	PROB	n/a	LTP063	ltpFR	8	n/a	n/a	n/a	n/a	n/a	n/a	7	2	4	1	n/a	n/a	n/a	n/a	n/a
31409	PROB	n/a	LTP063	ltpFR	8	n/a	n/a	n/a	n/a	n/a	n/a	13	3	3	7	n/a	n/a	n/a	n/a	n/a
33232	PROB	n/a	LTP063	ltpFR	8	n/a	n/a	n/a	n/a	n/a	n/a	15	8	1	6	n/a	n/a	n/a	n/a	n/a
35120	PROB	n/a	LTP063	ltpFR	8	n/a	n/a	n/a	n/a	n/a	n/a	15	2	6	7	n/a	n/a	n/a	n/a	n/a
37160	PROB	n/a	LTP063	ltpFR	8	n/a	n/a	n/a	n/a	n/a	n/a	19	7	9	3	n/a	n/a	n/a	n/a	n/a
38766	PROB	n/a	LTP063	ltpFR	8	n/a	n/a	n/a	n/a	n/a	n/a	19	9	2	8	n/a	n/a	n/a	n/a	n/a
40265	PROB	n/a	LTP063	ltpFR	8	n/a	n/a	n/a	n/a	n/a	n/a	10	4	3	3	n/a	n/a	n/a	n/a	n/a
42062	PROB	n/a	LTP063	ltpFR	8	n/a	n/a	n/a	n/a	n/a	n/a	8	4	2	3	n/a	n/a	n/a	n/a	n/a
46106	STOP	n/a	LTP063	ltpFR	8	n/a	n/a	n/a	n/a	n/a	n/a	n/a	n/a	n/a	n/a	n/a	n/a	n/a	n/a	n/a
84173	START	n/a	LTP063	ltpFR	8	n/a	n/a	n/a	n/a	n/a	n/a	n/a	n/a	n/a	n/a	n/a	n/a	n/a	n/a	n/a
85678	PROB	n/a	LTP063	ltpFR	8	n/a	n/a	n/a	n/a	n/a	n/a	19	9	1	9	n/a	n/a	n/a	n/a	n/a
91282	STOP	n/a	LTP063	ltpFR	8	n/a	n/a	n/a	n/a	n/a	n/a	n/a	n/a	n/a	n/a	n/a	n/a	n/a	n/a	n/a
93362	WORD	wordpools/wasnorm_wordpool.txt	LTP063	ltpFR	8	1	0	PELT	1040	n/a	0	n/a	0	0	0	1	0.412841796875	0.57763671875	upper	../fonts/amplitud.ttf
96367	START	n/a	LTP063	ltpFR	8	n/a	n/a	n/a	n/a	n/a	n/a	n/a	n/a	n/a	n/a	n/a	n/a	n/a	n/a	n/a
97465	PROB	n/a	LTP063	ltpFR	8	n/a	n/a	n/a	n/a	n/a	n/a	15	6	1	8	n/a	n/a	n/a	n/a	n/a
99372	PROB	n/a	LTP063	ltpFR	8	n/a	n/a	n/a	n/a	n/a	n/a	14	4	5	5	n/a	n/a	n/a	n/a	n/a
101220	PROB	n/a	LTP063	ltpFR	8	n/a	n/a	n/a	n/a	n/a	n/a	15	9	1	5	n/a	n/a	n/a	n/a	n/a
103065	STOP	n/a	LTP063	ltpFR	8	n/a	n/a	n/a	n/a	n/a	n/a	n/a	n/a	n/a	n/a	n/a	n/a	n/a	n/a	n/a
105505	WORD	wordpools/wasnorm_wordpool.txt	LTP063	ltpFR	8	1	0	POPE	1105	n/a	1	n/a	0	0	0	1	0.412841796875	0.57763671875	upper	../fonts/amplitud.ttf
108510	START	n/a	LTP063	ltpFR	8	n/a	n/a	n/a	n/a	n/a	n/a	n/a	n/a	n/a	n/a	n/a	n/a	n/a	n/a	n/a
109584	PROB	n/a	LTP063	ltpFR	8	n/a	n/a	n/a	n/a	n/a	n/a	22	7	7	8	n/a	n/a	n/a	n/a	n/a
112348	PROB	n/a	LTP063	ltpFR	8	n/a	n/a	n/a	n/a	n/a	n/a	14	6	6	2	n/a	n/a	n/a	n/a	n/a
116510	STOP	n/a	LTP063	ltpFR	8	n/a	n/a	n/a	n/a	n/a	n/a	n/a	n/a	n/a	n/a	n/a	n/a	n/a	n/a	n/a
117516	WORD	wordpools/wasnorm_wordpool.txt	LTP063	ltpFR	8	1	0	CHEST	295	n/a	1	n/a	0	0	0	1	0.412841796875	0.57763671875	upper	../fonts/amplitud.ttf
120522	START	n/a	LTP063	ltpFR	8	n/a	n/a	n/a	n/a	n/a	n/a	n/a	n/a	n/a	n/a	n/a	n/a	n/a	n/a	n/a
121553	PROB	n/a	LTP063	ltpFR	8	n/a	n/a	n/a	n/a	n/a	n/a	22	9	5	8	n/a	n/a	n/a	n/a	n/a
126106	PROB	n/a	LTP063	ltpFR	8	n/a	n/a	n/a	n/a	n/a	n/a	14	4	1	9	n/a	n/a	n/a	n/a	n/a
128402	STOP	n/a	LTP063	ltpFR	8	n/a	n/a	n/a	n/a	n/a	n/a	n/a	n/a	n/a	n/a	n/a	n/a	n/a	n/a	n/a
129354	WORD	wordpools/wasnorm_wordpool.txt	LTP063	ltpFR	8	1	0	ORGAN	984	n/a	0	n/a	0	0	0	1	0.412841796875	0.57763671875	upper	../fonts/amplitud.ttf
132359	START	n/a	LTP063	ltpFR	8	n/a	n/a	n/a	n/a	n/a	n/a	n/a	n/a	n/a	n/a	n/a	n/a	n/a	n/a	n/a
133299	PROB	n/a	LTP063	ltpFR	8	n/a	n/a	n/a	n/a	n/a	n/a	15	2	7	6	n/a	n/a	n/a	n/a	n/a
135288	PROB	n/a	LTP063	ltpFR	8	n/a	n/a	n/a	n/a	n/a	n/a	17	7	8	2	n/a	n/a	n/a	n/a	n/a
137793	PROB	n/a	LTP063	ltpFR	8	n/a	n/a	n/a	n/a	n/a	n/a	16	4	8	4	n/a	n/a	n/a	n/a	n/a
139713	STOP	n/a	LTP063	ltpFR	8	n/a	n/a	n/a	n/a	n/a	n/a	n/a	n/a	n/a	n/a	n/a	n/a	n/a	n/a	n/a
141530	WORD	wordpools/wasnorm_wordpool.txt	LTP063	ltpFR	8	1	1	LIVER	833	n/a	1	n/a	0	0	0	0	0.5869140625	0.422607421875	lower	../fonts/zerothre.ttf
144535	START	n/a	LTP063	ltpFR	8	n/a	n/a	n/a	n/a	n/a	n/a	n/a	n/a	n/a	n/a	n/a	n/a	n/a	n/a	n/a
145368	PROB	n/a	LTP063	ltpFR	8	n/a	n/a	n/a	n/a	n/a	n/a	20	4	9	7	n/a	n/a	n/a	n/a	n/a
147473	PROB	n/a	LTP063	ltpFR	8	n/a	n/a	n/a	n/a	n/a	n/a	10	3	6	1	n/a	n/a	n/a	n/a	n/a
152534	STOP	n/a	LTP063	ltpFR	8	n/a	n/a	n/a	n/a	n/a	n/a	n/a	n/a	n/a	n/a	n/a	n/a	n/a	n/a	n/a
153392	WORD	wordpools/wasnorm_wordpool.txt	LTP063	ltpFR	8	1	1	SHELL	1281	n/a	0	n/a	0	0	0	0	0.5869140625	0.422607421875	lower	../fonts/zerothre.ttf
156398	START	n/a	LTP063	ltpFR	8	n/a	n/a	n/a	n/a	n/a	n/a	n/a	n/a	n/a	n/a	n/a	n/a	n/a	n/a	n/a
157255	PROB	n/a	LTP063	ltpFR	8	n/a	n/a	n/a	n/a	n/a	n/a	22	9	8	5	n/a	n/a	n/a	n/a	n/a
164398	STOP	n/a	LTP063	ltpFR	8	n/a	n/a	n/a	n/a	n/a	n/a	n/a	n/a	n/a	n/a	n/a	n/a	n/a	n/a	n/a
165229	WORD	wordpools/wasnorm_wordpool.txt	LTP063	ltpFR	8	1	1	TROUT	1511	n/a	1	n/a	0	0	0	0	0.5869140625	0.422607421875	lower	../fonts/zerothre.ttf
168234	START	n/a	LTP063	ltpFR	8	n/a	n/a	n/a	n/a	n/a	n/a	n/a	n/a	n/a	n/a	n/a	n/a	n/a	n/a	n/a
169249	PROB	n/a	LTP063	ltpFR	8	n/a	n/a	n/a	n/a	n/a	n/a	6	2	3	1	n/a	n/a	n/a	n/a	n/a
171163	PROB	n/a	LTP063	ltpFR	8	n/a	n/a	n/a	n/a	n/a	n/a	23	8	6	9	n/a	n/a	n/a	n/a	n/a
176234	STOP	n/a	LTP063	ltpFR	8	n/a	n/a	n/a	n/a	n/a	n/a	n/a	n/a	n/a	n/a	n/a	n/a	n/a	n/a	n/a
177198	WORD	wordpools/wasnorm_wordpool.txt	LTP063	ltpFR	8	1	0	HATCHET	691	n/a	0	n/a	0	0	0	1	0.412841796875	0.57763671875	upper	../fonts/amplitud.ttf
180212	START	n/a	LTP063	ltpFR	8	n/a	n/a	n/a	n/a	n/a	n/a	n/a	n/a	n/a	n/a	n/a	n/a	n/a	n/a	n/a
181068	PROB	n/a	LTP063	ltpFR	8	n/a	n/a	n/a	n/a	n/a	n/a	18	4	8	6	n/a	n/a	n/a	n/a	n/a
183906	PROB	n/a	LTP063	ltpFR	8	n/a	n/a	n/a	n/a	n/a	n/a	17	6	2	9	n/a	n/a	n/a	n/a	n/a
186262	PROB	n/a	LTP063	ltpFR	8	n/a	n/a	n/a	n/a	n/a	n/a	12	1	6	5	n/a	n/a	n/a	n/a	n/a
187929	STOP	n/a	LTP063	ltpFR	8	n/a	n/a	n/a	n/a	n/a	n/a	n/a	n/a	n/a	n/a	n/a	n/a	n/a	n/a	n/a
189067	WORD	wordpools/wasnorm_wordpool.txt	LTP063	ltpFR	8	1	0	CALF	222	n/a	1	n/a	0	0	0	1	0.412841796875	0.57763671875	upper	../fonts/amplitud.ttf
192072	START	n/a	LTP063	ltpFR	8	n/a	n/a	n/a	n/a	n/a	n/a	n/a	n/a	n/a	n/a	n/a	n/a	n/a	n/a	n/a
193271	PROB	n/a	LTP063	ltpFR	8	n/a	n/a	n/a	n/a	n/a	n/a	14	2	5	7	n/a	n/a	n/a	n/a	n/a
196293	PROB	n/a	LTP063	ltpFR	8	n/a	n/a	n/a	n/a	n/a	n/a	9	4	3	2	n/a	n/a	n/a	n/a	n/a
198881	STOP	n/a	LTP063	ltpFR	8	n/a	n/a	n/a	n/a	n/a	n/a	n/a	n/a	n/a	n/a	n/a	n/a	n/a	n/a	n/a
200986	WORD	wordpools/wasnorm_wordpool.txt	LTP063	ltpFR	8	1	0	BULL	193	n/a	1	n/a	0	0	0	1	0.412841796875	0.57763671875	upper	../fonts/amplitud.ttf
203991	START	n/a	LTP063	ltpFR	8	n/a	n/a	n/a	n/a	n/a	n/a	n/a	n/a	n/a	n/a	n/a	n/a	n/a	n/a	n/a
205166	PROB	n/a	LTP063	ltpFR	8	n/a	n/a	n/a	n/a	n/a	n/a	14	7	6	1	n/a	n/a	n/a	n/a	n/a
207062	PROB	n/a	LTP063	ltpFR	8	n/a	n/a	n/a	n/a	n/a	n/a	13	9	1	3	n/a	n/a	n/a	n/a	n/a
208627	PROB	n/a	LTP063	ltpFR	8	n/a	n/a	n/a	n/a	n/a	n/a	15	8	4	3	n/a	n/a	n/a	n/a	n/a
211991	STOP	n/a	LTP063	ltpFR	8	n/a	n/a	n/a	n/a	n/a	n/a	n/a	n/a	n/a	n/a	n/a	n/a	n/a	n/a	n/a
212839	WORD	wordpools/wasnorm_wordpool.txt	LTP063	ltpFR	8	1	0	SHUTTER	1300	n/a	1	n/a	0	0	0	1	0.412841796875	0.57763671875	upper	../fonts/amplitud.ttf
215844	START	n/a	LTP063	ltpFR	8	n/a	n/a	n/a	n/a	n/a	n/a	n/a	n/a	n/a	n/a	n/a	n/a	n/a	n/a	n/a
216693	PROB	n/a	LTP063	ltpFR	8	n/a	n/a	n/a	n/a	n/a	n/a	15	5	3	7	n/a	n/a	n/a	n/a	n/a
219598	PROB	n/a	LTP063	ltpFR	8	n/a	n/a	n/a	n/a	n/a	n/a	11	1	6	4	n/a	n/a	n/a	n/a	n/a
221096	PROB	n/a	LTP063	ltpFR	8	n/a	n/a	n/a	n/a	n/a	n/a	15	6	4	5	n/a	n/a	n/a	n/a	n/a
222465	STOP	n/a	LTP063	ltpFR	8	n/a	n/a	n/a	n/a	n/a	n/a	n/a	n/a	n/a	n/a	n/a	n/a	n/a	n/a	n/a
224908	WORD	wordpools/wasnorm_wordpool.txt	LTP063	ltpFR	8	1	1	WICK	1607	n/a	0	n/a	0	0	0	0	0.5869140625	0.422607421875	lower	../fonts/zerothre.ttf
227914	START	n/a	LTP063	ltpFR	8	n/a	n/a	n/a	n/a	n/a	n/a	n/a	n/a	n/a	n/a	n/a	n/a	n/a	n/a	n/a
228895	PROB	n/a	LTP063	ltpFR	8	n/a	n/a	n/a	n/a	n/a	n/a	21	9	5	7	n/a	n/a	n/a	n/a	n/a
232226	PROB	n/a	LTP063	ltpFR	8	n/a	n/a	n/a	n/a	n/a	n/a	16	7	7	2	n/a	n/a	n/a	n/a	n/a
233981	PROB	n/a	LTP063	ltpFR	8	n/a	n/a	n/a	n/a	n/a	n/a	13	1	6	6	n/a	n/a	n/a	n/a	n/a
235394	STOP	n/a	LTP063	ltpFR	8	n/a	n/a	n/a	n/a	n/a	n/a	n/a	n/a	n/a	n/a	n/a	n/a	n/a	n/a	n/a
236961	WORD	wordpools/wasnorm_wordpool.txt	LTP063	ltpFR	8	1	1	STAMP	1370	n/a	0	n/a	0	0	0	0	0.5869140625	0.422607421875	lower	../fonts/zerothre.ttf
239966	START	n/a	LTP063	ltpFR	8	n/a	n/a	n/a	n/a	n/a	n/a	n/a	n/a	n/a	n/a	n/a	n/a	n/a	n/a	n/a
240773	PROB	n/a	LTP063	ltpFR	8	n/a	n/a	n/a	n/a	n/a	n/a	12	7	3	2	n/a	n/a	n/a	n/a	n/a
242198	PROB	n/a	LTP063	ltpFR	8	n/a	n/a	n/a	n/a	n/a	n/a	15	9	9	7	n/a	n/a	n/a	n/a	n/a
246561	STOP	n/a	LTP063	ltpFR	8	n/a	n/a	n/a	n/a	n/a	n/a	n/a	n/a	n/a	n/a	n/a	n/a	n/a	n/a	n/a
249055	WORD	wordpools/wasnorm_wordpool.txt	LTP063	ltpFR	8	1	1	VEST	1559	n/a	0	n/a	0	0	0	0	0.5869140625	0.422607421875	lower	../fonts/zerothre.ttf
252061	START	n/a	LTP063	ltpFR	8	n/a	n/a	n/a	n/a	n/a	n/a	n/a	n/a	n/a	n/a	n/a	n/a	n/a	n/a	n/a
253177	PROB	n/a	LTP063	ltpFR	8	n/a	n/a	n/a	n/a	n/a	n/a	12	1	5	6	n/a	n/a	n/a	n/a	n/a
255316	PROB	n/a	LTP063	ltpFR	8	n/a	n/a	n/a	n/a	n/a	n/a	5	1	2	2	n/a	n/a	n/a	n/a	n/a
257247	PROB	n/a	LTP063	ltpFR	8	n/a	n/a	n/a	n/a	n/a	n/a	18	4	7	7	n/a	n/a	n/a	n/a	n/a
259322	STOP	n/a	LTP063	ltpFR	8	n/a	n/a	n/a	n/a	n/a	n/a	n/a	n/a	n/a	n/a	n/a	n/a	n/a	n/a	n/a
261150	WORD	wordpools/wasnorm_wordpool.txt	LTP063	ltpFR	8	1	1	LASER	801	n/a	0	n/a	0	0	0	0	0.5869140625	0.422607421875	lower	../fonts/zerothre.ttf
264156	START	n/a	LTP063	ltpFR	8	n/a	n/a	n/a	n/a	n/a	n/a	n/a	n/a	n/a	n/a	n/a	n/a	n/a	n/a	n/a
265279	PROB	n/a	LTP063	ltpFR	8	n/a	n/a	n/a	n/a	n/a	n/a	13	3	6	4	n/a	n/a	n/a	n/a	n/a
266693	PROB	n/a	LTP063	ltpFR	8	n/a	n/a	n/a	n/a	n/a	n/a	22	9	8	5	n/a	n/a	n/a	n/a	n/a
272156	STOP	n/a	LTP063	ltpFR	8	n/a	n/a	n/a	n/a	n/a	n/a	n/a	n/a	n/a	n/a	n/a	n/a	n/a	n/a	n/a
273237	WORD	wordpools/wasnorm_wordpool.txt	LTP063	ltpFR	8	1	1	PARCEL	1012	n/a	0	n/a	0	0	0	0	0.5869140625	0.422607421875	lower	../fonts/zerothre.ttf
276242	START	n/a	LTP063	ltpFR	8	n/a	n/a	n/a	n/a	n/a	n/a	n/a	n/a	n/a	n/a	n/a	n/a	n/a	n/a	n/a
277174	PROB	n/a	LTP063	ltpFR	8	n/a	n/a	n/a	n/a	n/a	n/a	17	6	5	6	n/a	n/a	n/a	n/a	n/a
279745	PROB	n/a	LTP063	ltpFR	8	n/a	n/a	n/a	n/a	n/a	n/a	17	4	8	5	n/a	n/a	n/a	n/a	n/a
282937	STOP	n/a	LTP063	ltpFR	8	n/a	n/a	n/a	n/a	n/a	n/a	n/a	n/a	n/a	n/a	n/a	n/a	n/a	n/a	n/a
286172	REC_START	n/a	LTP063	ltpFR	8	1	n/a	n/a	n/a	n/a	n/a	n/a	0	0	0	n/a	n/a	n/a	n/a	n/a
287568	REC_WORD	wordpools/wasnorm_wordpool.txt	LTP063	ltpFR	8	1	1	PARCEL	1012	n/a	0	n/a	0	0	0	n/a	n/a	n/a	n/a	n/a
288706	REC_WORD	wordpools/wasnorm_wordpool.txt	LTP063	ltpFR	8	1	0	SHUTTER	1300	n/a	1	n/a	0	0	0	n/a	n/a	n/a	n/a	n/a
291545	REC_WORD	wordpools/wasnorm_wordpool.txt	LTP063	ltpFR	8	1	n/a	CATTLE	261	n/a	n/a	n/a	0	0	0	n/a	n/a	n/a	n/a	n/a
295735	REC_WORD	wordpools/wasnorm_wordpool.txt	LTP063	ltpFR	8	1	0	POPE	1105	n/a	1	n/a	0	0	0	n/a	n/a	n/a	n/a	n/a
301442	REC_WORD	wordpools/wasnorm_wordpool.txt	LTP063	ltpFR	8	1	0	CALF	222	n/a	1	n/a	0	0	0	n/a	n/a	n/a	n/a	n/a
304755	REC_WORD	wordpools/wasnorm_wordpool.txt	LTP063	ltpFR	8	1	0	ORGAN	984	n/a	0	n/a	0	0	0	n/a	n/a	n/a	n/a	n/a
326540	REC_WORD	wordpools/wasnorm_wordpool.txt	LTP063	ltpFR	8	1	1	WICK	1607	n/a	0	n/a	0	0	0	n/a	n/a	n/a	n/a	n/a
333958	REC_WORD	wordpools/wasnorm_wordpool.txt	LTP063	ltpFR	8	1	0	PELT	1040	n/a	0	n/a	0	0	0	n/a	n/a	n/a	n/a	n/a
364738	WORD	wordpools/wasnorm_wordpool.txt	LTP063	ltpFR	8	2	1	HANDCUFFS	685	n/a	0	n/a	0	0	0	0	0.5869140625	0.422607421875	lower	../fonts/zerothre.ttf
368916	WORD	wordpools/wasnorm_wordpool.txt	LTP063	ltpFR	8	2	1	BANDIT	81	n/a	1	n/a	0	0	0	0	0.5869140625	0.422607421875	lower	../fonts/zerothre.ttf
372953	WORD	wordpools/wasnorm_wordpool.txt	LTP063	ltpFR	8	2	0	VACUUM	1543	n/a	n/a	n/a	0	0	0	1	0.412841796875	0.57763671875	upper	../fonts/amplitud.ttf
375975	SLOW_MSG	n/a	LTP063	ltpFR	8	2	n/a	n/a	n/a	n/a	n/a	n/a	0	0	0	n/a	n/a	n/a	n/a	n/a
378439	WORD	wordpools/wasnorm_wordpool.txt	LTP063	ltpFR	8	2	0	SENATOR	1268	n/a	1	n/a	0	0	0	1	0.412841796875	0.57763671875	upper	../fonts/amplitud.ttf
382451	WORD	wordpools/wasnorm_wordpool.txt	LTP063	ltpFR	8	2	0	SWING	1421	n/a	0	n/a	0	0	0	1	0.412841796875	0.57763671875	upper	../fonts/amplitud.ttf
386264	WORD	wordpools/wasnorm_wordpool.txt	LTP063	ltpFR	8	2	0	SALESMAN	1225	n/a	1	n/a	0	0	0	1	0.412841796875	0.57763671875	upper	../fonts/amplitud.ttf
390318	WORD	wordpools/wasnorm_wordpool.txt	LTP063	ltpFR	8	2	0	TAPE	1433	n/a	0	n/a	0	0	0	1	0.412841796875	0.57763671875	upper	../fonts/amplitud.ttf
394280	WORD	wordpools/wasnorm_wordpool.txt	LTP063	ltpFR	8	2	0	STEREO	1378	n/a	1	n/a	0	0	0	1	0.412841796875	0.57763671875	upper	../fonts/amplitud.ttf
398392	WORD	wordpools/wasnorm_wordpool.txt	LTP063	ltpFR	8	2	1	KNUCKLE	789	n/a	1	n/a	0	0	0	0	0.5869140625	0.422607421875	lower	../fonts/zerothre.ttf
402237	WORD	wordpools/wasnorm_wordpool.txt	LTP063	ltpFR	8	2	1	TOOL	1480	n/a	0	n/a	0	0	0	0	0.5869140625	0.422607421875	lower	../fonts/zerothre.ttf
406199	WORD	wordpools/wasnorm_wordpool.txt	LTP063	ltpFR	8	2	1	OUTDOORS	987	n/a	0	n/a	0	0	0	0	0.5869140625	0.422607421875	lower	../fonts/zerothre.ttf
410336	WORD	wordpools/wasnorm_wordpool.txt	LTP063	ltpFR	8	2	1	ACTOR	5	n/a	1	n/a	0	0	0	0	0.5869140625	0.422607421875	lower	../fonts/zerothre.ttf
414273	WORD	wordpools/wasnorm_wordpool.txt	LTP063	ltpFR	8	2	0	GOVERNOR	651	n/a	1	n/a	0	0	0	1	0.412841796875	0.57763671875	upper	../fonts/amplitud.ttf
418235	WORD	wordpools/wasnorm_wordpool.txt	LTP063	ltpFR	8	2	0	MECHANIC	884	n/a	1	n/a	0	0	0	1	0.412841796875	0.57763671875	upper	../fonts/amplitud.ttf
422289	WORD	wordpools/wasnorm_wordpool.txt	LTP063	ltpFR	8	2	1	SNORKEL	1336	n/a	0	n/a	0	0	0	0	0.5869140625	0.422607421875	lower	../fonts/zerothre.ttf
426334	WORD	wordpools/wasnorm_wordpool.txt	LTP063	ltpFR	8	2	1	MARSH	874	n/a	0	n/a	0	0	0	0	0.5869140625	0.422607421875	lower	../fonts/zerothre.ttf
429339	START	n/a	LTP063	ltpFR	8	n/a	n/a	n/a	n/a	n/a	n/a	n/a	n/a	n/a	n/a	n/a	n/a	n/a	n/a	n/a
430404	PROB	n/a	LTP063	ltpFR	8	n/a	n/a	n/a	n/a	n/a	n/a	12	2	8	2	n/a	n/a	n/a	n/a	n/a
432194	PROB	n/a	LTP063	ltpFR	8	n/a	n/a	n/a	n/a	n/a	n/a	16	9	1	6	n/a	n/a	n/a	n/a	n/a
434083	PROB	n/a	LTP063	ltpFR	8	n/a	n/a	n/a	n/a	n/a	n/a	19	9	9	1	n/a	n/a	n/a	n/a	n/a
436505	STOP	n/a	LTP063	ltpFR	8	n/a	n/a	n/a	n/a	n/a	n/a	n/a	n/a	n/a	n/a	n/a	n/a	n/a	n/a	n/a
439203	REC_START	n/a	LTP063	ltpFR	8	2	n/a	n/a	n/a	n/a	n/a	n/a	0	0	0	n/a	n/a	n/a	n/a	n/a
441991	REC_WORD	wordpools/wasnorm_wordpool.txt	LTP063	ltpFR	8	2	1	SNORKEL	1336	n/a	0	n/a	0	0	0	n/a	n/a	n/a	n/a	n/a
445932	REC_WORD	wordpools/wasnorm_wordpool.txt	LTP063	ltpFR	8	2	n/a	SENATE	1267	n/a	n/a	n/a	0	0	0	n/a	n/a	n/a	n/a	n/a
446932	REC_WORD_VV	wordpools/wasnorm_wordpool.txt	LTP063	ltpFR	8	2	n/a	<>	-1	n/a	n/a	n/a	0	0	0	n/a	n/a	n/a	n/a	n/a
447877	REC_WORD	wordpools/wasnorm_wordpool.txt	LTP063	ltpFR	8	2	0	SENATOR	1268	n/a	1	n/a	0	0	0	n/a	n/a	n/a	n/a	n/a
449724	REC_WORD	wordpools/wasnorm_wordpool.txt	LTP063	ltpFR	8	2	0	GOVERNOR	651	n/a	1	n/a	0	0	0	n/a	n/a	n/a	n/a	n/a
464740	REC_WORD	wordpools/wasnorm_wordpool.txt	LTP063	ltpFR	8	2	0	TAPE	1433	n/a	0	n/a	0	0	0	n/a	n/a	n/a	n/a	n/a
501900	REC_WORD	wordpools/wasnorm_wordpool.txt	LTP063	ltpFR	8	2	0	MECHANIC	884	n/a	1	n/a	0	0	0	n/a	n/a	n/a	n/a	n/a
523363	WORD	wordpools/wasnorm_wordpool.txt	LTP063	ltpFR	8	3	0	LENS	811	n/a	0	n/a	0	0	0	1	0.412841796875	0.57763671875	upper	../fonts/amplitud.ttf
527176	WORD	wordpools/wasnorm_wordpool.txt	LTP063	ltpFR	8	3	0	EYELASH	546	n/a	0	n/a	0	0	0	1	0.412841796875	0.57763671875	upper	../fonts/amplitud.ttf
531028	WORD	wordpools/wasnorm_wordpool.txt	LTP063	ltpFR	8	3	0	GREASE	660	n/a	0	n/a	0	0	0	1	0.412841796875	0.57763671875	upper	../fonts/amplitud.ttf
535007	WORD	wordpools/wasnorm_wordpool.txt	LTP063	ltpFR	8	3	0	OLIVE	975	n/a	0	n/a	0	0	0	1	0.412841796875	0.57763671875	upper	../fonts/amplitud.ttf
539102	WORD	wordpools/wasnorm_wordpool.txt	LTP063	ltpFR	8	3	0	SKUNK	1321	n/a	0	n/a	0	0	0	1	0.412841796875	0.57763671875	upper	../fonts/amplitud.ttf
543290	WORD	wordpools/wasnorm_wordpool.txt	LTP063	ltpFR	8	3	0	CORPORATION	382	n/a	1	n/a	0	0	0	1	0.412841796875	0.57763671875	upper	../fonts/amplitud.ttf
547261	WORD	wordpools/wasnorm_wordpool.txt	LTP063	ltpFR	8	3	0	UMPIRE	1535	n/a	1	n/a	0	0	0	1	0.412841796875	0.57763671875	upper	../fonts/amplitud.ttf
551289	WORD	wordpools/wasnorm_wordpool.txt	LTP063	ltpFR	8	3	0	POWDER	1117	n/a	0	n/a	0	0	0	1	0.412841796875	0.57763671875	upper	../fonts/amplitud.ttf
555218	WORD	wordpools/wasnorm_wordpool.txt	LTP063	ltpFR	8	3	0	INCENSE	735	n/a	0	n/a	0	0	0	1	0.412841796875	0.57763671875	upper	../fonts/amplitud.ttf
559029	WORD	wordpools/wasnorm_wordpool.txt	LTP063	ltpFR	8	3	0	CONTRACTOR	369	n/a	1	n/a	0	0	0	1	0.412841796875	0.57763671875	upper	../fonts/amplitud.ttf
563091	WORD	wordpools/wasnorm_wordpool.txt	LTP063	ltpFR	8	3	0	TONGUE	1479	n/a	0	n/a	0	0	0	1	0.412841796875	0.57763671875	upper	../fonts/amplitud.ttf
567171	WORD	wordpools/wasnorm_wordpool.txt	LTP063	ltpFR	8	3	0	KETTLE	772	n/a	0	n/a	0	0	0	1	0.412841796875	0.57763671875	upper	../fonts/amplitud.ttf
571115	WORD	wordpools/wasnorm_wordpool.txt	LTP063	ltpFR	8	3	0	BASSINET	97	n/a	1	n/a	0	0	0	1	0.412841796875	0.57763671875	upper	../fonts/amplitud.ttf
575011	WORD	wordpools/wasnorm_wordpool.txt	LTP063	ltpFR	8	3	0	DIAPER	459	n/a	0	n/a	0	0	0	1	0.412841796875	0.57763671875	upper	../fonts/amplitud.ttf
579031	WORD	wordpools/wasnorm_wordpool.txt	LTP063	ltpFR	8	3	0	LIST	830	n/a	0	n/a	0	0	0	1	0.412841796875	0.57763671875	upper	../fonts/amplitud.ttf
582843	WORD	wordpools/wasnorm_wordpool.txt	LTP063	ltpFR	8	3	0	EDITOR	516	n/a	1	n/a	0	0	0	1	0.412841796875	0.57763671875	upper	../fonts/amplitud.ttf
585848	START	n/a	LTP063	ltpFR	8	n/a	n/a	n/a	n/a	n/a	n/a	n/a	n/a	n/a	n/a	n/a	n/a	n/a	n/a	n/a
587022	PROB	n/a	LTP063	ltpFR	8	n/a	n/a	n/a	n/a	n/a	n/a	27	9	9	9	n/a	n/a	n/a	n/a	n/a
593697	PROB	n/a	LTP063	ltpFR	8	n/a	n/a	n/a	n/a	n/a	n/a	16	8	6	2	n/a	n/a	n/a	n/a	n/a
595454	PROB	n/a	LTP063	ltpFR	8	n/a	n/a	n/a	n/a	n/a	n/a	9	5	2	2	n/a	n/a	n/a	n/a	n/a
599824	PROB	n/a	LTP063	ltpFR	8	n/a	n/a	n/a	n/a	n/a	n/a	16	4	6	6	n/a	n/a	n/a	n/a	n/a
601665	STOP	n/a	LTP063	ltpFR	8	n/a	n/a	n/a	n/a	n/a	n/a	n/a	n/a	n/a	n/a	n/a	n/a	n/a	n/a	n/a
603628	REC_START	n/a	LTP063	ltpFR	8	3	n/a	n/a	n/a	n/a	n/a	n/a	0	0	0	n/a	n/a	n/a	n/a	n/a
605763	REC_WORD	wordpools/wasnorm_wordpool.txt	LTP063	ltpFR	8	3	0	UMPIRE	1535	n/a	1	n/a	0	0	0	n/a	n/a	n/a	n/a	n/a
608451	REC_WORD	wordpools/wasnorm_wordpool.txt	LTP063	ltpFR	8	3	0	SKUNK	1321	n/a	0	n/a	0	0	0	n/a	n/a	n/a	n/a	n/a
615056	REC_WORD	wordpools/wasnorm_wordpool.txt	LTP063	ltpFR	8	3	0	CORPORATION	382	n/a	1	n/a	0	0	0	n/a	n/a	n/a	n/a	n/a
661865	REC_WORD	wordpools/wasnorm_wordpool.txt	LTP063	ltpFR	8	3	0	LIST	830	n/a	0	n/a	0	0	0	n/a	n/a	n/a	n/a	n/a
669134	REC_WORD	wordpools/wasnorm_wordpool.txt	LTP063	ltpFR	8	3	0	BASSINET	97	n/a	1	n/a	0	0	0	n/a	n/a	n/a	n/a	n/a
684983	START	n/a	LTP063	ltpFR	8	n/a	n/a	n/a	n/a	n/a	n/a	n/a	n/a	n/a	n/a	n/a	n/a	n/a	n/a	n/a
686490	PROB	n/a	LTP063	ltpFR	8	n/a	n/a	n/a	n/a	n/a	n/a	15	1	9	5	n/a	n/a	n/a	n/a	n/a
688696	PROB	n/a	LTP063	ltpFR	8	n/a	n/a	n/a	n/a	n/a	n/a	13	4	6	3	n/a	n/a	n/a	n/a	n/a
689986	PROB	n/a	LTP063	ltpFR	8	n/a	n/a	n/a	n/a	n/a	n/a	12	4	1	7	n/a	n/a	n/a	n/a	n/a
692697	STOP	n/a	LTP063	ltpFR	8	n/a	n/a	n/a	n/a	n/a	n/a	n/a	n/a	n/a	n/a	n/a	n/a	n/a	n/a	n/a
693931	WORD	wordpools/wasnorm_wordpool.txt	LTP063	ltpFR	8	4	0	HOE	711	n/a	1	n/a	0	0	0	1	0.412841796875	0.57763671875	upper	../fonts/amplitud.ttf
696936	START	n/a	LTP063	ltpFR	8	n/a	n/a	n/a	n/a	n/a	n/a	n/a	n/a	n/a	n/a	n/a	n/a	n/a	n/a	n/a
697960	PROB	n/a	LTP063	ltpFR	8	n/a	n/a	n/a	n/a	n/a	n/a	23	9	5	9	n/a	n/a	n/a	n/a	n/a
700981	PROB	n/a	LTP063	ltpFR	8	n/a	n/a	n/a	n/a	n/a	n/a	12	1	9	2	n/a	n/a	n/a	n/a	n/a
702638	PROB	n/a	LTP063	ltpFR	8	n/a	n/a	n/a	n/a	n/a	n/a	18	8	7	3	n/a	n/a	n/a	n/a	n/a
704202	STOP	n/a	LTP063	ltpFR	8	n/a	n/a	n/a	n/a	n/a	n/a	n/a	n/a	n/a	n/a	n/a	n/a	n/a	n/a	n/a
706117	WORD	wordpools/wasnorm_wordpool.txt	LTP063	ltpFR	8	4	0	BRUISE	180	n/a	0	n/a	0	0	0	1	0.412841796875	0.57763671875	upper	../fonts/amplitud.ttf
709122	START	n/a	LTP063	ltpFR	8	n/a	n/a	n/a	n/a	n/a	n/a	n/a	n/a	n/a	n/a	n/a	n/a	n/a	n/a	n/a
710255	PROB	n/a	LTP063	ltpFR	8	n/a	n/a	n/a	n/a	n/a	n/a	16	3	5	8	n/a	n/a	n/a	n/a	n/a
712568	PROB	n/a	LTP063	ltpFR	8	n/a	n/a	n/a	n/a	n/a	n/a	16	5	9	2	n/a	n/a	n/a	n/a	n/a
714873	PROB	n/a	LTP063	ltpFR	8	n/a	n/a	n/a	n/a	n/a	n/a	18	7	6	5	n/a	n/a	n/a	n/a	n/a
717073	STOP	n/a	LTP063	ltpFR	8	n/a	n/a	n/a	n/a	n/a	n/a	n/a	n/a	n/a	n/a	n/a	n/a	n/a	n/a	n/a
718003	WORD	wordpools/wasnorm_wordpool.txt	LTP063	ltpFR	8	4	1	SHELF	1280	n/a	0	n/a	0	0	0	0	0.5869140625	0.422607421875	lower	../fonts/zerothre.ttf
721008	START	n/a	LTP063	ltpFR	8	n/a	n/a	n/a	n/a	n/a	n/a	n/a	n/a	n/a	n/a	n/a	n/a	n/a	n/a	n/a
721857	PROB	n/a	LTP063	ltpFR	8	n/a	n/a	n/a	n/a	n/a	n/a	18	7	4	7	n/a	n/a	n/a	n/a	n/a
723821	PROB	n/a	LTP063	ltpFR	8	n/a	n/a	n/a	n/a	n/a	n/a	19	4	8	7	n/a	n/a	n/a	n/a	n/a
725819	PROB	n/a	LTP063	ltpFR	8	n/a	n/a	n/a	n/a	n/a	n/a	17	6	7	4	n/a	n/a	n/a	n/a	n/a
727210	PROB	n/a	LTP063	ltpFR	8	n/a	n/a	n/a	n/a	n/a	n/a	18	8	9	1	n/a	n/a	n/a	n/a	n/a
728537	STOP	n/a	LTP063	ltpFR	8	n/a	n/a	n/a	n/a	n/a	n/a	n/a	n/a	n/a	n/a	n/a	n/a	n/a	n/a	n/a
730215	WORD	wordpools/wasnorm_wordpool.txt	LTP063	ltpFR	8	4	1	GARLIC	624	n/a	0	n/a	0	0	0	0	0.5869140625	0.422607421875	lower	../fonts/zerothre.ttf
733220	START	n/a	LTP063	ltpFR	8	n/a	n/a	n/a	n/a	n/a	n/a	n/a	n/a	n/a	n/a	n/a	n/a	n/a	n/a	n/a
734101	PROB	n/a	LTP063	ltpFR	8	n/a	n/a	n/a	n/a	n/a	n/a	14	6	6	4	n/a	n/a	n/a	n/a	n/a
737997	PROB	n/a	LTP063	ltpFR	8	n/a	n/a	n/a	n/a	n/a	n/a	11	1	5	5	n/a	n/a	n/a	n/a	n/a
739929	STOP	n/a	LTP063	ltpFR	8	n/a	n/a	n/a	n/a	n/a	n/a	n/a	n/a	n/a	n/a	n/a	n/a	n/a	n/a	n/a
742125	WORD	wordpools/wasnorm_wordpool.txt	LTP063	ltpFR	8	4	0	SPICE	1350	n/a	0	n/a	0	0	0	1	0.412841796875	0.57763671875	upper	../fonts/amplitud.ttf
745130	START	n/a	LTP063	ltpFR	8	n/a	n/a	n/a	n/a	n/a	n/a	n/a	n/a	n/a	n/a	n/a	n/a	n/a	n/a	n/a
746280	PROB	n/a	LTP063	ltpFR	8	n/a	n/a	n/a	n/a	n/a	n/a	15	4	3	8	n/a	n/a	n/a	n/a	n/a
748386	PROB	n/a	LTP063	ltpFR	8	n/a	n/a	n/a	n/a	n/a	n/a	12	5	3	4	n/a	n/a	n/a	n/a	n/a
750532	PROB	n/a	LTP063	ltpFR	8	n/a	n/a	n/a	n/a	n/a	n/a	16	1	6	9	n/a	n/a	n/a	n/a	n/a
752162	STOP	n/a	LTP063	ltpFR	8	n/a	n/a	n/a	n/a	n/a	n/a	n/a	n/a	n/a	n/a	n/a	n/a	n/a	n/a	n/a
754312	WORD	wordpools/wasnorm_wordpool.txt	LTP063	ltpFR	8	4	0	DIGGER	464	n/a	1	n/a	0	0	0	1	0.412841796875	0.57763671875	upper	../fonts/amplitud.ttf
757317	START	n/a	LTP063	ltpFR	8	n/a	n/a	n/a	n/a	n/a	n/a	n/a	n/a	n/a	n/a	n/a	n/a	n/a	n/a	n/a
758324	PROB	n/a	LTP063	ltpFR	8	n/a	n/a	n/a	n/a	n/a	n/a	12	8	1	3	n/a	n/a	n/a	n/a	n/a
765316	STOP	n/a	LTP063	ltpFR	8	n/a	n/a	n/a	n/a	n/a	n/a	n/a	n/a	n/a	n/a	n/a	n/a	n/a	n/a	n/a
766406	WORD	wordpools/wasnorm_wordpool.txt	LTP063	ltpFR	8	4	1	ASSOCIATE	49	n/a	1	n/a	0	0	0	0	0.5869140625	0.422607421875	lower	../fonts/zerothre.ttf
769420	START	n/a	LTP063	ltpFR	8	n/a	n/a	n/a	n/a	n/a	n/a	n/a	n/a	n/a	n/a	n/a	n/a	n/a	n/a	n/a
770459	PROB	n/a	LTP063	ltpFR	8	n/a	n/a	n/a	n/a	n/a	n/a	10	7	1	2	n/a	n/a	n/a	n/a	n/a
772065	PROB	n/a	LTP063	ltpFR	8	n/a	n/a	n/a	n/a	n/a	n/a	19	2	9	8	n/a	n/a	n/a	n/a	n/a
774912	PROB	n/a	LTP063	ltpFR	8	n/a	n/a	n/a	n/a	n/a	n/a	11	7	3	1	n/a	n/a	n/a	n/a	n/a
776194	STOP	n/a	LTP063	ltpFR	8	n/a	n/a	n/a	n/a	n/a	n/a	n/a	n/a	n/a	n/a	n/a	n/a	n/a	n/a	n/a
778392	WORD	wordpools/wasnorm_wordpool.txt	LTP063	ltpFR	8	4	1	PIRATE	1074	n/a	1	n/a	0	0	0	0	0.5869140625	0.422607421875	lower	../fonts/zerothre.ttf
781398	START	n/a	LTP063	ltpFR	8	n/a	n/a	n/a	n/a	n/a	n/a	n/a	n/a	n/a	n/a	n/a	n/a	n/a	n/a	n/a
782478	PROB	n/a	LTP063	ltpFR	8	n/a	n/a	n/a	n/a	n/a	n/a	13	1	5	7	n/a	n/a	n/a	n/a	n/a
785142	PROB	n/a	LTP063	ltpFR	8	n/a	n/a	n/a	n/a	n/a	n/a	18	8	8	2	n/a	n/a	n/a	n/a	n/a
789397	STOP	n/a	LTP063	ltpFR	8	n/a	n/a	n/a	n/a	n/a	n/a	n/a	n/a	n/a	n/a	n/a	n/a	n/a	n/a	n/a
790354	WORD	wordpools/wasnorm_wordpool.txt	LTP063	ltpFR	8	4	1	WOUND	1624	n/a	1	n/a	0	0	0	0	0.5869140625	0.422607421875	lower	../fonts/zerothre.ttf
793359	START	n/a	LTP063	ltpFR	8	n/a	n/a	n/a	n/a	n/a	n/a	n/a	n/a	n/a	n/a	n/a	n/a	n/a	n/a	n/a
794324	PROB	n/a	LTP063	ltpFR	8	n/a	n/a	n/a	n/a	n/a	n/a	10	1	3	6	n/a	n/a	n/a	n/a	n/a
796446	PROB	n/a	LTP063	ltpFR	8	n/a	n/a	n/a	n/a	n/a	n/a	23	5	9	9	n/a	n/a	n/a	n/a	n/a
798884	PROB	n/a	LTP063	ltpFR	8	n/a	n/a	n/a	n/a	n/a	n/a	9	3	1	5	n/a	n/a	n/a	n/a	n/a
801065	STOP	n/a	LTP063	ltpFR	8	n/a	n/a	n/a	n/a	n/a	n/a	n/a	n/a	n/a	n/a	n/a	n/a	n/a	n/a	n/a
802464	WORD	wordpools/wasnorm_wordpool.txt	LTP063	ltpFR	8	4	1	PERSON	1052	n/a	1	n/a	0	0	0	0	0.5869140625	0.422607421875	lower	../fonts/zerothre.ttf
805469	START	n/a	LTP063	ltpFR	8	n/a	n/a	n/a	n/a	n/a	n/a	n/a	n/a	n/a	n/a	n/a	n/a	n/a	n/a	n/a
806659	PROB	n/a	LTP063	ltpFR	8	n/a	n/a	n/a	n/a	n/a	n/a	15	2	4	9	n/a	n/a	n/a	n/a	n/a
809439	PROB	n/a	LTP063	ltpFR	8	n/a	n/a	n/a	n/a	n/a	n/a	14	1	3	9	n/a	n/a	n/a	n/a	n/a
813469	STOP	n/a	LTP063	ltpFR	8	n/a	n/a	n/a	n/a	n/a	n/a	n/a	n/a	n/a	n/a	n/a	n/a	n/a	n/a	n/a
814583	WORD	wordpools/wasnorm_wordpool.txt	LTP063	ltpFR	8	4	1	FAN	551	n/a	1	n/a	0	0	0	0	0.5869140625	0.422607421875	lower	../fonts/zerothre.ttf
817588	START	n/a	LTP063	ltpFR	8	n/a	n/a	n/a	n/a	n/a	n/a	n/a	n/a	n/a	n/a	n/a	n/a	n/a	n/a	n/a
818520	PROB	n/a	LTP063	ltpFR	8	n/a	n/a	n/a	n/a	n/a	n/a	17	6	5	9	n/a	n/a	n/a	n/a	n/a
821201	PROB	n/a	LTP063	ltpFR	8	n/a	n/a	n/a	n/a	n/a	n/a	10	2	3	5	n/a	n/a	n/a	n/a	n/a
824681	STOP	n/a	LTP063	ltpFR	8	n/a	n/a	n/a	n/a	n/a	n/a	n/a	n/a	n/a	n/a	n/a	n/a	n/a	n/a	n/a
826552	WORD	wordpools/wasnorm_wordpool.txt	LTP063	ltpFR	8	4	1	SERVER	1272	n/a	1	n/a	0	0	0	0	0.5869140625	0.422607421875	lower	../fonts/zerothre.ttf
829558	START	n/a	LTP063	ltpFR	8	n/a	n/a	n/a	n/a	n/a	n/a	n/a	n/a	n/a	n/a	n/a	n/a	n/a	n/a	n/a
830589	PROB	n/a	LTP063	ltpFR	8	n/a	n/a	n/a	n/a	n/a	n/a	9	2	4	3	n/a	n/a	n/a	n/a	n/a
832180	PROB	n/a	LTP063	ltpFR	8	n/a	n/a	n/a	n/a	n/a	n/a	18	2	7	9	n/a	n/a	n/a	n/a	n/a
835592	PROB	n/a	LTP063	ltpFR	8	n/a	n/a	n/a	n/a	n/a	n/a	16	6	4	6	n/a	n/a	n/a	n/a	n/a
837025	STOP	n/a	LTP063	ltpFR	8	n/a	n/a	n/a	n/a	n/a	n/a	n/a	n/a	n/a	n/a	n/a	n/a	n/a	n/a	n/a
838580	WORD	wordpools/wasnorm_wordpool.txt	LTP063	ltpFR	8	4	0	CYLINDER	432	n/a	0	n/a	0	0	0	1	0.412841796875	0.57763671875	upper	../fonts/amplitud.ttf
841585	START	n/a	LTP063	ltpFR	8	n/a	n/a	n/a	n/a	n/a	n/a	n/a	n/a	n/a	n/a	n/a	n/a	n/a	n/a	n/a
842500	PROB	n/a	LTP063	ltpFR	8	n/a	n/a	n/a	n/a	n/a	n/a	14	9	3	2	n/a	n/a	n/a	n/a	n/a
845331	PROB	n/a	LTP063	ltpFR	8	n/a	n/a	n/a	n/a	n/a	n/a	10	2	1	7	n/a	n/a	n/a	n/a	n/a
849584	STOP	n/a	LTP063	ltpFR	8	n/a	n/a	n/a	n/a	n/a	n/a	n/a	n/a	n/a	n/a	n/a	n/a	n/a	n/a	n/a
850766	WORD	wordpools/wasnorm_wordpool.txt	LTP063	ltpFR	8	4	0	CUBE	420	n/a	0	n/a	0	0	0	1	0.412841796875	0.57763671875	upper	../fonts/amplitud.ttf
853771	START	n/a	LTP063	ltpFR	8	n/a	n/a	n/a	n/a	n/a	n/a	n/a	n/a	n/a	n/a	n/a	n/a	n/a	n/a	n/a
854886	PROB	n/a	LTP063	ltpFR	8	n/a	n/a	n/a	n/a	n/a	n/a	11	1	2	8	n/a	n/a	n/a	n/a	n/a
861771	STOP	n/a	LTP063	ltpFR	8	n/a	n/a	n/a	n/a	n/a	n/a	n/a	n/a	n/a	n/a	n/a	n/a	n/a	n/a	n/a
862868	WORD	wordpools/wasnorm_wordpool.txt	LTP063	ltpFR	8	4	0	STAPLER	1372	n/a	n/a	n/a	0	0	0	1	0.412841796875	0.57763671875	upper	../fonts/amplitud.ttf
865890	SLOW_MSG	n/a	LTP063	ltpFR	8	4	n/a	n/a	n/a	n/a	n/a	n/a	0	0	0	n/a	n/a	n/a	n/a	n/a
867406	START	n/a	LTP063	ltpFR	8	n/a	n/a	n/a	n/a	n/a	n/a	n/a	n/a	n/a	n/a	n/a	n/a	n/a	n/a	n/a
868512	PROB	n/a	LTP063	ltpFR	8	n/a	n/a	n/a	n/a	n/a	n/a	21	7	8	6	n/a	n/a	n/a	n/a	n/a
874617	STOP	n/a	LTP063	ltpFR	8	n/a	n/a	n/a	n/a	n/a	n/a	n/a	n/a	n/a	n/a	n/a	n/a	n/a	n/a	n/a
876321	WORD	wordpools/wasnorm_wordpool.txt	LTP063	ltpFR	8	4	0	ROBOT	1200	n/a	0	n/a	0	0	0	1	0.412841796875	0.57763671875	upper	../fonts/amplitud.ttf
879326	START	n/a	LTP063	ltpFR	8	n/a	n/a	n/a	n/a	n/a	n/a	n/a	n/a	n/a	n/a	n/a	n/a	n/a	n/a	n/a
880456	PROB	n/a	LTP063	ltpFR	8	n/a	n/a	n/a	n/a	n/a	n/a	14	6	4	4	n/a	n/a	n/a	n/a	n/a
881713	PROB	n/a	LTP063	ltpFR	8	n/a	n/a	n/a	n/a	n/a	n/a	14	5	2	7	n/a	n/a	n/a	n/a	n/a
887326	STOP	n/a	LTP063	ltpFR	8	n/a	n/a	n/a	n/a	n/a	n/a	n/a	n/a	n/a	n/a	n/a	n/a	n/a	n/a	n/a
889114	REC_START	n/a	LTP063	ltpFR	8	4	n/a	n/a	n/a	n/a	n/a	n/a	0	0	0	n/a	n/a	n/a	n/a	n/a
890965	REC_WORD	wordpools/wasnorm_wordpool.txt	LTP063	ltpFR	8	4	1	SHELF	1280	n/a	0	n/a	0	0	0	n/a	n/a	n/a	n/a	n/a
892332	REC_WORD	wordpools/wasnorm_wordpool.txt	LTP063	ltpFR	8	4	1	GARLIC	624	n/a	0	n/a	0	0	0	n/a	n/a	n/a	n/a	n/a
893534	REC_WORD	wordpools/wasnorm_wordpool.txt	LTP063	ltpFR	8	4	0	ROBOT	1200	n/a	0	n/a	0	0	0	n/a	n/a	n/a	n/a	n/a
895030	REC_WORD	wordpools/wasnorm_wordpool.txt	LTP063	ltpFR	8	4	1	ASSOCIATE	49	n/a	1	n/a	0	0	0	n/a	n/a	n/a	n/a	n/a
896257	REC_WORD	wordpools/wasnorm_wordpool.txt	LTP063	ltpFR	8	4	1	PERSON	1052	n/a	1	n/a	0	0	0	n/a	n/a	n/a	n/a	n/a
897340	REC_WORD	wordpools/wasnorm_wordpool.txt	LTP063	ltpFR	8	4	1	FAN	551	n/a	1	n/a	0	0	0	n/a	n/a	n/a	n/a	n/a
905481	REC_WORD	wordpools/wasnorm_wordpool.txt	LTP063	ltpFR	8	4	0	CYLINDER	432	n/a	0	n/a	0	0	0	n/a	n/a	n/a	n/a	n/a
916431	REC_WORD	wordpools/wasnorm_wordpool.txt	LTP063	ltpFR	8	4	0	CUBE	420	n/a	0	n/a	0	0	0	n/a	n/a	n/a	n/a	n/a
968454	WORD	wordpools/wasnorm_wordpool.txt	LTP063	ltpFR	8	5	1	SUBWAY	1400	n/a	0	n/a	0	0	0	0	0.5869140625	0.422607421875	lower	../fonts/zerothre.ttf
972491	WORD	wordpools/wasnorm_wordpool.txt	LTP063	ltpFR	8	5	1	RAM	1165	n/a	1	n/a	0	0	0	0	0.5869140625	0.422607421875	lower	../fonts/zerothre.ttf
976330	WORD	wordpools/wasnorm_wordpool.txt	LTP063	ltpFR	8	5	1	DUNE	506	n/a	0	n/a	0	0	0	0	0.5869140625	0.422607421875	lower	../fonts/zerothre.ttf
980141	WORD	wordpools/wasnorm_wordpool.txt	LTP063	ltpFR	8	5	1	HORIZON	717	n/a	0	n/a	0	0	0	0	0.5869140625	0.422607421875	lower	../fonts/zerothre.ttf
984320	WORD	wordpools/wasnorm_wordpool.txt	LTP063	ltpFR	8	5	1	FEAST	556	n/a	0	n/a	0	0	0	0	0.5869140625	0.422607421875	lower	../fonts/zerothre.ttf
988391	WORD	wordpools/wasnorm_wordpool.txt	LTP063	ltpFR	8	5	1	VOLUNTEER	1577	n/a	1	n/a	0	0	0	0	0.5869140625	0.422607421875	lower	../fonts/zerothre.ttf
992269	WORD	wordpools/wasnorm_wordpool.txt	LTP063	ltpFR	8	5	1	CONSOLE	364	n/a	0	n/a	0	0	0	0	0.5869140625	0.422607421875	lower	../fonts/zerothre.ttf
996406	WORD	wordpools/wasnorm_wordpool.txt	LTP063	ltpFR	8	5	1	FIDDLE	561	n/a	0	n/a	0	0	0	0	0.5869140625	0.422607421875	lower	../fonts/zerothre.ttf
1000302	WORD	wordpools/wasnorm_wordpool.txt	LTP063	ltpFR	8	5	1	SERGEANT	1269	n/a	1	n/a	0	0	0	0	0.5869140625	0.422607421875	lower	../fonts/zerothre.ttf
1004322	WORD	wordpools/wasnorm_wordpool.txt	LTP063	ltpFR	8	5	1	GOAT	644	n/a	1	n/a	0	0	0	0	0.5869140625	0.422607421875	lower	../fonts/zerothre.ttf
1008466	WORD	wordpools/wasnorm_wordpool.txt	LTP063	ltpFR	8	5	1	PLANE	1081	n/a	0	n/a	0	0	0	0	0.5869140625	0.422607421875	lower	../fonts/zerothre.ttf
1012354	WORD	wordpools/wasnorm_wordpool.txt	LTP063	ltpFR	8	5	1	AIRCRAFT	11	n/a	0	n/a	0	0	0	0	0.5869140625	0.422607421875	lower	../fonts/zerothre.ttf
1016515	WORD	wordpools/wasnorm_wordpool.txt	LTP063	ltpFR	8	5	1	COMB	351	n/a	0	n/a	0	0	0	0	0.5869140625	0.422607421875	lower	../fonts/zerothre.ttf
1020561	WORD	wordpools/wasnorm_wordpool.txt	LTP063	ltpFR	8	5	1	RECORD	1176	n/a	0	n/a	0	0	0	0	0.5869140625	0.422607421875	lower	../fonts/zerothre.ttf
1024374	WORD	wordpools/wasnorm_wordpool.txt	LTP063	ltpFR	8	5	1	POLITICIAN	1099	n/a	1	n/a	0	0	0	0	0.5869140625	0.422607421875	lower	../fonts/zerothre.ttf
1028194	WORD	wordpools/wasnorm_wordpool.txt	LTP063	ltpFR	8	5	1	MASK	876	n/a	0	n/a	0	0	0	0	0.5869140625	0.422607421875	lower	../fonts/zerothre.ttf
1034079	REC_START	n/a	LTP063	ltpFR	8	5	n/a	n/a	n/a	n/a	n/a	n/a	0	0	0	n/a	n/a	n/a	n/a	n/a
1035305	REC_WORD	wordpools/wasnorm_wordpool.txt	LTP063	ltpFR	8	5	1	SUBWAY	1400	n/a	0	n/a	0	0	0	n/a	n/a	n/a	n/a	n/a
1036573	REC_WORD	wordpools/wasnorm_wordpool.txt	LTP063	ltpFR	8	5	1	DUNE	506	n/a	0	n/a	0	0	0	n/a	n/a	n/a	n/a	n/a
1037626	REC_WORD	wordpools/wasnorm_wordpool.txt	LTP063	ltpFR	8	5	1	HORIZON	717	n/a	0	n/a	0	0	0	n/a	n/a	n/a	n/a	n/a
1040319	REC_WORD	wordpools/wasnorm_wordpool.txt	LTP063	ltpFR	8	5	n/a	SUNSET	1408	n/a	n/a	n/a	0	0	0	n/a	n/a	n/a	n/a	n/a
1041319	REC_WORD_VV	wordpools/wasnorm_wordpool.txt	LTP063	ltpFR	8	5	n/a	<>	-1	n/a	n/a	n/a	0	0	0	n/a	n/a	n/a	n/a	n/a
1043193	REC_WORD	wordpools/wasnorm_wordpool.txt	LTP063	ltpFR	8	5	1	FEAST	556	n/a	0	n/a	0	0	0	n/a	n/a	n/a	n/a	n/a
1044395	REC_WORD	wordpools/wasnorm_wordpool.txt	LTP063	ltpFR	8	5	1	RAM	1165	n/a	1	n/a	0	0	0	n/a	n/a	n/a	n/a	n/a
1045872	REC_WORD	wordpools/wasnorm_wordpool.txt	LTP063	ltpFR	8	5	1	GOAT	644	n/a	1	n/a	0	0	0	n/a	n/a	n/a	n/a	n/a
1059975	REC_WORD	wordpools/wasnorm_wordpool.txt	LTP063	ltpFR	8	5	1	CONSOLE	364	n/a	0	n/a	0	0	0	n/a	n/a	n/a	n/a	n/a
1071279	REC_WORD	wordpools/wasnorm_wordpool.txt	LTP063	ltpFR	8	5	1	POLITICIAN	1099	n/a	1	n/a	0	0	0	n/a	n/a	n/a	n/a	n/a
1099864	REC_WORD	wordpools/wasnorm_wordpool.txt	LTP063	ltpFR	8	5	1	FIDDLE	561	n/a	0	n/a	0	0	0	n/a	n/a	n/a	n/a	n/a
1114011	WORD	wordpools/wasnorm_wordpool.txt	LTP063	ltpFR	8	6	1	MICROWAVE	892	n/a	0	n/a	0	0	0	0	0.5869140625	0.422607421875	lower	../fonts/zerothre.ttf
1118006	WORD	wordpools/wasnorm_wordpool.txt	LTP063	ltpFR	8	6	1	LEOPARD	812	n/a	1	n/a	0	0	0	0	0.5869140625	0.422607421875	lower	../fonts/zerothre.ttf
1121976	WORD	wordpools/wasnorm_wordpool.txt	LTP063	ltpFR	8	6	1	TOY	1492	n/a	0	n/a	0	0	0	0	0.5869140625	0.422607421875	lower	../fonts/zerothre.ttf
1126138	WORD	wordpools/wasnorm_wordpool.txt	LTP063	ltpFR	8	6	1	PRODUCER	1129	n/a	1	n/a	0	0	0	0	0.5869140625	0.422607421875	lower	../fonts/zerothre.ttf
1130134	WORD	wordpools/wasnorm_wordpool.txt	LTP063	ltpFR	8	6	1	VIDEO	1564	n/a	0	n/a	0	0	0	0	0.5869140625	0.422607421875	lower	../fonts/zerothre.ttf
1134221	WORD	wordpools/wasnorm_wordpool.txt	LTP063	ltpFR	8	6	0	COYOTE	396	n/a	0	n/a	0	0	0	1	0.412841796875	0.57763671875	upper	../fonts/amplitud.ttf
1138133	WORD	wordpools/wasnorm_wordpool.txt	LTP063	ltpFR	8	6	0	TEENAGER	1444	n/a	1	n/a	0	0	0	1	0.412841796875	0.57763671875	upper	../fonts/amplitud.ttf
1142220	WORD	wordpools/wasnorm_wordpool.txt	LTP063	ltpFR	8	6	0	CABBAGE	210	n/a	1	n/a	0	0	0	1	0.412841796875	0.57763671875	upper	../fonts/amplitud.ttf
1146316	WORD	wordpools/wasnorm_wordpool.txt	LTP063	ltpFR	8	6	0	VET	1560	n/a	1	n/a	0	0	0	1	0.412841796875	0.57763671875	upper	../fonts/amplitud.ttf
1150303	WORD	wordpools/wasnorm_wordpool.txt	LTP063	ltpFR	8	6	0	WINGS	1614	n/a	1	n/a	0	0	0	1	0.412841796875	0.57763671875	upper	../fonts/amplitud.ttf
1154406	WORD	wordpools/wasnorm_wordpool.txt	LTP063	ltpFR	8	6	0	FLEET	578	n/a	0	n/a	0	0	0	1	0.412841796875	0.57763671875	upper	../fonts/amplitud.ttf
1158377	WORD	wordpools/wasnorm_wordpool.txt	LTP063	ltpFR	8	6	1	WALLET	1583	n/a	1	n/a	0	0	0	0	0.5869140625	0.422607421875	lower	../fonts/zerothre.ttf
1162356	WORD	wordpools/wasnorm_wordpool.txt	LTP063	ltpFR	8	6	1	ASIA	46	n/a	0	n/a	0	0	0	0	0.5869140625	0.422607421875	lower	../fonts/zerothre.ttf
1166243	WORD	wordpools/wasnorm_wordpool.txt	LTP063	ltpFR	8	6	1	LONDON	843	n/a	0	n/a	0	0	0	0	0.5869140625	0.422607421875	lower	../fonts/zerothre.ttf
1170163	WORD	wordpools/wasnorm_wordpool.txt	LTP063	ltpFR	8	6	0	KEYBOARD	774	n/a	1	n/a	0	0	0	1	0.412841796875	0.57763671875	upper	../fonts/amplitud.ttf
1174317	WORD	wordpools/wasnorm_wordpool.txt	LTP063	ltpFR	8	6	0	OPERA	978	n/a	1	n/a	0	0	0	1	0.412841796875	0.57763671875	upper	../fonts/amplitud.ttf
1177322	START	n/a	LTP063	ltpFR	8	n/a	n/a	n/a	n/a	n/a	n/a	n/a	n/a	n/a	n/a	n/a	n/a	n/a	n/a	n/a
1178145	PROB	n/a	LTP063	ltpFR	8	n/a	n/a	n/a	n/a	n/a	n/a	14	5	2	7	n/a	n/a	n/a	n/a	n/a
1181724	PROB	n/a	LTP063	ltpFR	8	n/a	n/a	n/a	n/a	n/a	n/a	17	8	2	7	n/a	n/a	n/a	n/a	n/a
1183331	PROB	n/a	LTP063	ltpFR	8	n/a	n/a	n/a	n/a	n/a	n/a	17	8	5	4	n/a	n/a	n/a	n/a	n/a
1185274	STOP	n/a	LTP063	ltpFR	8	n/a	n/a	n/a	n/a	n/a	n/a	n/a	n/a	n/a	n/a	n/a	n/a	n/a	n/a	n/a
1187169	REC_START	n/a	LTP063	ltpFR	8	6	n/a	n/a	n/a	n/a	n/a	n/a	0	0	0	n/a	n/a	n/a	n/a	n/a
1188271	REC_WORD	wordpools/wasnorm_wordpool.txt	LTP063	ltpFR	8	6	0	OPERA	978	n/a	1	n/a	0	0	0	n/a	n/a	n/a	n/a	n/a
1206140	REC_WORD	wordpools/wasnorm_wordpool.txt	LTP063	ltpFR	8	6	1	PRODUCER	1129	n/a	1	n/a	0	0	0	n/a	n/a	n/a	n/a	n/a
1208296	REC_WORD	wordpools/wasnorm_wordpool.txt	LTP063	ltpFR	8	6	1	LEOPARD	812	n/a	1	n/a	0	0	0	n/a	n/a	n/a	n/a	n/a
1211299	REC_WORD	wordpools/wasnorm_wordpool.txt	LTP063	ltpFR	8	6	1	VIDEO	1564	n/a	0	n/a	0	0	0	n/a	n/a	n/a	n/a	n/a
1212945	REC_WORD	wordpools/wasnorm_wordpool.txt	LTP063	ltpFR	8	6	0	FLEET	578	n/a	0	n/a	0	0	0	n/a	n/a	n/a	n/a	n/a
1220548	REC_WORD	wordpools/wasnorm_wordpool.txt	LTP063	ltpFR	8	6	1	MASK	876	n/a	0	n/a	0	0	0	n/a	n/a	n/a	n/a	n/a
1237529	REC_WORD	wordpools/wasnorm_wordpool.txt	LTP063	ltpFR	8	6	1	WALLET	1583	n/a	1	n/a	0	0	0	n/a	n/a	n/a	n/a	n/a
1264145	START	n/a	LTP063	ltpFR	8	n/a	n/a	n/a	n/a	n/a	n/a	n/a	n/a	n/a	n/a	n/a	n/a	n/a	n/a	n/a
1265651	PROB	n/a	LTP063	ltpFR	8	n/a	n/a	n/a	n/a	n/a	n/a	14	6	4	4	n/a	n/a	n/a	n/a	n/a
1267000	PROB	n/a	LTP063	ltpFR	8	n/a	n/a	n/a	n/a	n/a	n/a	19	4	9	6	n/a	n/a	n/a	n/a	n/a
1269207	PROB	n/a	LTP063	ltpFR	8	n/a	n/a	n/a	n/a	n/a	n/a	18	5	4	9	n/a	n/a	n/a	n/a	n/a
1270712	PROB	n/a	LTP063	ltpFR	8	n/a	n/a	n/a	n/a	n/a	n/a	15	5	2	8	n/a	n/a	n/a	n/a	n/a
1273118	PROB	n/a	LTP063	ltpFR	8	n/a	n/a	n/a	n/a	n/a	n/a	22	8	8	6	n/a	n/a	n/a	n/a	n/a
1276131	PROB	n/a	LTP063	ltpFR	8	n/a	n/a	n/a	n/a	n/a	n/a	18	6	3	9	n/a	n/a	n/a	n/a	n/a
1280145	STOP	n/a	LTP063	ltpFR	8	n/a	n/a	n/a	n/a	n/a	n/a	n/a	n/a	n/a	n/a	n/a	n/a	n/a	n/a	n/a
1280975	WORD	wordpools/wasnorm_wordpool.txt	LTP063	ltpFR	8	7	0	HEART	697	n/a	0	n/a	0	0	0	1	0.412841796875	0.57763671875	upper	../fonts/amplitud.ttf
1283980	START	n/a	LTP063	ltpFR	8	n/a	n/a	n/a	n/a	n/a	n/a	n/a	n/a	n/a	n/a	n/a	n/a	n/a	n/a	n/a
1285112	PROB	n/a	LTP063	ltpFR	8	n/a	n/a	n/a	n/a	n/a	n/a	12	5	6	1	n/a	n/a	n/a	n/a	n/a
1287018	PROB	n/a	LTP063	ltpFR	8	n/a	n/a	n/a	n/a	n/a	n/a	19	5	8	6	n/a	n/a	n/a	n/a	n/a
1290481	PROB	n/a	LTP063	ltpFR	8	n/a	n/a	n/a	n/a	n/a	n/a	16	7	2	7	n/a	n/a	n/a	n/a	n/a
1292603	PROB	n/a	LTP063	ltpFR	8	n/a	n/a	n/a	n/a	n/a	n/a	8	4	2	2	n/a	n/a	n/a	n/a	n/a
1295059	PROB	n/a	LTP063	ltpFR	8	n/a	n/a	n/a	n/a	n/a	n/a	19	1	9	9	n/a	n/a	n/a	n/a	n/a
1297349	PROB	n/a	LTP063	ltpFR	8	n/a	n/a	n/a	n/a	n/a	n/a	12	1	5	6	n/a	n/a	n/a	n/a	n/a
1299433	STOP	n/a	LTP063	ltpFR	8	n/a	n/a	n/a	n/a	n/a	n/a	n/a	n/a	n/a	n/a	n/a	n/a	n/a	n/a	n/a
1300844	WORD	wordpools/wasnorm_wordpool.txt	LTP063	ltpFR	8	7	0	DENIM	446	n/a	1	n/a	0	0	0	1	0.412841796875	0.57763671875	upper	../fonts/amplitud.ttf
1303849	START	n/a	LTP063	ltpFR	8	n/a	n/a	n/a	n/a	n/a	n/a	n/a	n/a	n/a	n/a	n/a	n/a	n/a	n/a	n/a
1304947	PROB	n/a	LTP063	ltpFR	8	n/a	n/a	n/a	n/a	n/a	n/a	7	4	2	1	n/a	n/a	n/a	n/a	n/a
1309059	PROB	n/a	LTP063	ltpFR	8	n/a	n/a	n/a	n/a	n/a	n/a	19	8	6	5	n/a	n/a	n/a	n/a	n/a
1312365	PROB	n/a	LTP063	ltpFR	8	n/a	n/a	n/a	n/a	n/a	n/a	20	7	4	9	n/a	n/a	n/a	n/a	n/a
1315069	PROB	n/a	LTP063	ltpFR	8	n/a	n/a	n/a	n/a	n/a	n/a	17	3	6	8	n/a	n/a	n/a	n/a	n/a
1317417	PROB	n/a	LTP063	ltpFR	8	n/a	n/a	n/a	n/a	n/a	n/a	15	4	7	4	n/a	n/a	n/a	n/a	n/a
1319785	STOP	n/a	LTP063	ltpFR	8	n/a	n/a	n/a	n/a	n/a	n/a	n/a	n/a	n/a	n/a	n/a	n/a	n/a	n/a	n/a
1320946	WORD	wordpools/wasnorm_wordpool.txt	LTP063	ltpFR	8	7	0	DISC	473	n/a	0	n/a	0	0	0	1	0.412841796875	0.57763671875	upper	../fonts/amplitud.ttf
1323951	START	n/a	LTP063	ltpFR	8	n/a	n/a	n/a	n/a	n/a	n/a	n/a	n/a	n/a	n/a	n/a	n/a	n/a	n/a	n/a
1325016	PROB	n/a	LTP063	ltpFR	8	n/a	n/a	n/a	n/a	n/a	n/a	17	7	9	1	n/a	n/a	n/a	n/a	n/a
1326514	PROB	n/a	LTP063	ltpFR	8	n/a	n/a	n/a	n/a	n/a	n/a	11	2	1	8	n/a	n/a	n/a	n/a	n/a
1329735	PROB	n/a	LTP063	ltpFR	8	n/a	n/a	n/a	n/a	n/a	n/a	14	7	1	6	n/a	n/a	n/a	n/a	n/a
1331850	PROB	n/a	LTP063	ltpFR	8	n/a	n/a	n/a	n/a	n/a	n/a	23	7	9	7	n/a	n/a	n/a	n/a	n/a
1335878	PROB	n/a	LTP063	ltpFR	8	n/a	n/a	n/a	n/a	n/a	n/a	22	7	8	7	n/a	n/a	n/a	n/a	n/a
1338753	STOP	n/a	LTP063	ltpFR	8	n/a	n/a	n/a	n/a	n/a	n/a	n/a	n/a	n/a	n/a	n/a	n/a	n/a	n/a	n/a
1341056	WORD	wordpools/wasnorm_wordpool.txt	LTP063	ltpFR	8	7	0	KNOB	787	n/a	0	n/a	0	0	0	1	0.412841796875	0.57763671875	upper	../fonts/amplitud.ttf
1344061	START	n/a	LTP063	ltpFR	8	n/a	n/a	n/a	n/a	n/a	n/a	n/a	n/a	n/a	n/a	n/a	n/a	n/a	n/a	n/a
1345210	PROB	n/a	LTP063	ltpFR	8	n/a	n/a	n/a	n/a	n/a	n/a	21	8	4	9	n/a	n/a	n/a	n/a	n/a
1349129	PROB	n/a	LTP063	ltpFR	8	n/a	n/a	n/a	n/a	n/a	n/a	12	2	3	7	n/a	n/a	n/a	n/a	n/a
1351127	PROB	n/a	LTP063	ltpFR	8	n/a	n/a	n/a	n/a	n/a	n/a	17	8	1	8	n/a	n/a	n/a	n/a	n/a
1352967	PROB	n/a	LTP063	ltpFR	8	n/a	n/a	n/a	n/a	n/a	n/a	13	6	1	6	n/a	n/a	n/a	n/a	n/a
1355597	PROB	n/a	LTP063	ltpFR	8	n/a	n/a	n/a	n/a	n/a	n/a	16	5	5	6	n/a	n/a	n/a	n/a	n/a
1360061	STOP	n/a	LTP063	ltpFR	8	n/a	n/a	n/a	n/a	n/a	n/a	n/a	n/a	n/a	n/a	n/a	n/a	n/a	n/a	n/a
1360957	WORD	wordpools/wasnorm_wordpool.txt	LTP063	ltpFR	8	7	0	MAT	877	n/a	1	n/a	0	0	0	1	0.412841796875	0.57763671875	upper	../fonts/amplitud.ttf
1363963	START	n/a	LTP063	ltpFR	8	n/a	n/a	n/a	n/a	n/a	n/a	n/a	n/a	n/a	n/a	n/a	n/a	n/a	n/a	n/a
1364978	PROB	n/a	LTP063	ltpFR	8	n/a	n/a	n/a	n/a	n/a	n/a	13	8	4	1	n/a	n/a	n/a	n/a	n/a
1367483	PROB	n/a	LTP063	ltpFR	8	n/a	n/a	n/a	n/a	n/a	n/a	16	5	8	2	n/a	n/a	n/a	n/a	n/a
1370796	PROB	n/a	LTP063	ltpFR	8	n/a	n/a	n/a	n/a	n/a	n/a	19	5	5	9	n/a	n/a	n/a	n/a	n/a
1372187	PROB	n/a	LTP063	ltpFR	8	n/a	n/a	n/a	n/a	n/a	n/a	17	6	8	3	n/a	n/a	n/a	n/a	n/a
1378657	STOP	n/a	LTP063	ltpFR	8	n/a	n/a	n/a	n/a	n/a	n/a	n/a	n/a	n/a	n/a	n/a	n/a	n/a	n/a	n/a
1380951	WORD	wordpools/wasnorm_wordpool.txt	LTP063	ltpFR	8	7	0	SHACK	1273	n/a	1	n/a	0	0	0	1	0.412841796875	0.57763671875	upper	../fonts/amplitud.ttf
1383956	START	n/a	LTP063	ltpFR	8	n/a	n/a	n/a	n/a	n/a	n/a	n/a	n/a	n/a	n/a	n/a	n/a	n/a	n/a	n/a
1385104	PROB	n/a	LTP063	ltpFR	8	n/a	n/a	n/a	n/a	n/a	n/a	14	4	2	8	n/a	n/a	n/a	n/a	n/a
1386561	PROB	n/a	LTP063	ltpFR	8	n/a	n/a	n/a	n/a	n/a	n/a	14	9	4	1	n/a	n/a	n/a	n/a	n/a
1389008	PROB	n/a	LTP063	ltpFR	8	n/a	n/a	n/a	n/a	n/a	n/a	20	3	9	8	n/a	n/a	n/a	n/a	n/a
1393004	PROB	n/a	LTP063	ltpFR	8	n/a	n/a	n/a	n/a	n/a	n/a	23	9	6	8	n/a	n/a	n/a	n/a	n/a
1399956	STOP	n/a	LTP063	ltpFR	8	n/a	n/a	n/a	n/a	n/a	n/a	n/a	n/a	n/a	n/a	n/a	n/a	n/a	n/a	n/a
1400986	WORD	wordpools/wasnorm_wordpool.txt	LTP063	ltpFR	8	7	0	SHINGLE	1285	n/a	0	n/a	0	0	0	1	0.412841796875	0.57763671875	upper	../fonts/amplitud.ttf
1403991	START	n/a	LTP063	ltpFR	8	n/a	n/a	n/a	n/a	n/a	n/a	n/a	n/a	n/a	n/a	n/a	n/a	n/a	n/a	n/a
1404981	PROB	n/a	LTP063	ltpFR	8	n/a	n/a	n/a	n/a	n/a	n/a	17	8	2	7	n/a	n/a	n/a	n/a	n/a
1406356	PROB	n/a	LTP063	ltpFR	8	n/a	n/a	n/a	n/a	n/a	n/a	15	7	1	7	n/a	n/a	n/a	n/a	n/a
1408028	PROB	n/a	LTP063	ltpFR	8	n/a	n/a	n/a	n/a	n/a	n/a	15	4	8	3	n/a	n/a	n/a	n/a	n/a
1413929	PROB	n/a	LTP063	ltpFR	8	n/a	n/a	n/a	n/a	n/a	n/a	7	1	3	3	n/a	n/a	n/a	n/a	n/a
1415944	PROB	n/a	LTP063	ltpFR	8	n/a	n/a	n/a	n/a	n/a	n/a	12	6	2	4	n/a	n/a	n/a	n/a	n/a
1419991	STOP	n/a	LTP063	ltpFR	8	n/a	n/a	n/a	n/a	n/a	n/a	n/a	n/a	n/a	n/a	n/a	n/a	n/a	n/a	n/a
1420905	WORD	wordpools/wasnorm_wordpool.txt	LTP063	ltpFR	8	7	0	SLACKS	1323	n/a	1	n/a	0	0	0	1	0.412841796875	0.57763671875	upper	../fonts/amplitud.ttf
1423910	START	n/a	LTP063	ltpFR	8	n/a	n/a	n/a	n/a	n/a	n/a	n/a	n/a	n/a	n/a	n/a	n/a	n/a	n/a	n/a
1424733	PROB	n/a	LTP063	ltpFR	8	n/a	n/a	n/a	n/a	n/a	n/a	16	2	5	9	n/a	n/a	n/a	n/a	n/a
1428138	PROB	n/a	LTP063	ltpFR	8	n/a	n/a	n/a	n/a	n/a	n/a	12	3	6	3	n/a	n/a	n/a	n/a	n/a
1431343	PROB	n/a	LTP063	ltpFR	8	n/a	n/a	n/a	n/a	n/a	n/a	16	6	8	2	n/a	n/a	n/a	n/a	n/a
1433191	PROB	n/a	LTP063	ltpFR	8	n/a	n/a	n/a	n/a	n/a	n/a	21	8	5	8	n/a	n/a	n/a	n/a	n/a
1437353	PROB	n/a	LTP063	ltpFR	8	n/a	n/a	n/a	n/a	n/a	n/a	10	3	6	1	n/a	n/a	n/a	n/a	n/a
1438753	STOP	n/a	LTP063	ltpFR	8	n/a	n/a	n/a	n/a	n/a	n/a	n/a	n/a	n/a	n/a	n/a	n/a	n/a	n/a	n/a
1441015	WORD	wordpools/wasnorm_wordpool.txt	LTP063	ltpFR	8	7	0	SPAGHETTI	1346	n/a	1	n/a	0	0	0	1	0.412841796875	0.57763671875	upper	../fonts/amplitud.ttf
1444020	START	n/a	LTP063	ltpFR	8	n/a	n/a	n/a	n/a	n/a	n/a	n/a	n/a	n/a	n/a	n/a	n/a	n/a	n/a	n/a
1444993	PROB	n/a	LTP063	ltpFR	8	n/a	n/a	n/a	n/a	n/a	n/a	18	3	9	6	n/a	n/a	n/a	n/a	n/a
1447175	PROB	n/a	LTP063	ltpFR	8	n/a	n/a	n/a	n/a	n/a	n/a	12	1	3	8	n/a	n/a	n/a	n/a	n/a
1450396	PROB	n/a	LTP063	ltpFR	8	n/a	n/a	n/a	n/a	n/a	n/a	14	2	3	9	n/a	n/a	n/a	n/a	n/a
1452934	PROB	n/a	LTP063	ltpFR	8	n/a	n/a	n/a	n/a	n/a	n/a	12	8	1	3	n/a	n/a	n/a	n/a	n/a
1456072	PROB	n/a	LTP063	ltpFR	8	n/a	n/a	n/a	n/a	n/a	n/a	14	9	2	3	n/a	n/a	n/a	n/a	n/a
1459001	STOP	n/a	LTP063	ltpFR	8	n/a	n/a	n/a	n/a	n/a	n/a	n/a	n/a	n/a	n/a	n/a	n/a	n/a	n/a	n/a
1460983	WORD	wordpools/wasnorm_wordpool.txt	LTP063	ltpFR	8	7	0	VINE	1568	n/a	1	n/a	0	0	0	1	0.412841796875	0.57763671875	upper	../fonts/amplitud.ttf
1463988	START	n/a	LTP063	ltpFR	8	n/a	n/a	n/a	n/a	n/a	n/a	n/a	n/a	n/a	n/a	n/a	n/a	n/a	n/a	n/a
1465171	PROB	n/a	LTP063	ltpFR	8	n/a	n/a	n/a	n/a	n/a	n/a	8	3	2	2	n/a	n/a	n/a	n/a	n/a
1467667	PROB	n/a	LTP063	ltpFR	8	n/a	n/a	n/a	n/a	n/a	n/a	20	7	6	7	n/a	n/a	n/a	n/a	n/a
1470589	PROB	n/a	LTP063	ltpFR	8	n/a	n/a	n/a	n/a	n/a	n/a	12	1	9	2	n/a	n/a	n/a	n/a	n/a
1472271	PROB	n/a	LTP063	ltpFR	8	n/a	n/a	n/a	n/a	n/a	n/a	19	4	9	6	n/a	n/a	n/a	n/a	n/a
1474068	PROB	n/a	LTP063	ltpFR	8	n/a	n/a	n/a	n/a	n/a	n/a	18	8	2	8	n/a	n/a	n/a	n/a	n/a
1475533	PROB	n/a	LTP063	ltpFR	8	n/a	n/a	n/a	n/a	n/a	n/a	13	3	7	3	n/a	n/a	n/a	n/a	n/a
1479987	STOP	n/a	LTP063	ltpFR	8	n/a	n/a	n/a	n/a	n/a	n/a	n/a	n/a	n/a	n/a	n/a	n/a	n/a	n/a	n/a
1481035	WORD	wordpools/wasnorm_wordpool.txt	LTP063	ltpFR	8	7	0	BROCCOLI	176	n/a	1	n/a	0	0	0	1	0.412841796875	0.57763671875	upper	../fonts/amplitud.ttf
1484040	START	n/a	LTP063	ltpFR	8	n/a	n/a	n/a	n/a	n/a	n/a	n/a	n/a	n/a	n/a	n/a	n/a	n/a	n/a	n/a
1485005	PROB	n/a	LTP063	ltpFR	8	n/a	n/a	n/a	n/a	n/a	n/a	14	9	4	1	n/a	n/a	n/a	n/a	n/a
1487020	PROB	n/a	LTP063	ltpFR	8	n/a	n/a	n/a	n/a	n/a	n/a	13	1	4	8	n/a	n/a	n/a	n/a	n/a
1489393	PROB	n/a	LTP063	ltpFR	8	n/a	n/a	n/a	n/a	n/a	n/a	7	1	1	5	n/a	n/a	n/a	n/a	n/a
1491106	PROB	n/a	LTP063	ltpFR	8	n/a	n/a	n/a	n/a	n/a	n/a	15	3	4	8	n/a	n/a	n/a	n/a	n/a
1493862	PROB	n/a	LTP063	ltpFR	8	n/a	n/a	n/a	n/a	n/a	n/a	14	4	7	3	n/a	n/a	n/a	n/a	n/a
1496109	PROB	n/a	LTP063	ltpFR	8	n/a	n/a	n/a	n/a	n/a	n/a	10	1	2	7	n/a	n/a	n/a	n/a	n/a
1497915	PROB	n/a	LTP063	ltpFR	8	n/a	n/a	n/a	n/a	n/a	n/a	10	1	3	6	n/a	n/a	n/a	n/a	n/a
1499433	STOP	n/a	LTP063	ltpFR	8	n/a	n/a	n/a	n/a	n/a	n/a	n/a	n/a	n/a	n/a	n/a	n/a	n/a	n/a	n/a
1501045	WORD	wordpools/wasnorm_wordpool.txt	LTP063	ltpFR	8	7	0	PUMPKIN	1142	n/a	1	n/a	0	0	0	1	0.412841796875	0.57763671875	upper	../fonts/amplitud.ttf
1504050	START	n/a	LTP063	ltpFR	8	n/a	n/a	n/a	n/a	n/a	n/a	n/a	n/a	n/a	n/a	n/a	n/a	n/a	n/a	n/a
1505241	PROB	n/a	LTP063	ltpFR	8	n/a	n/a	n/a	n/a	n/a	n/a	14	5	5	4	n/a	n/a	n/a	n/a	n/a
1506572	PROB	n/a	LTP063	ltpFR	8	n/a	n/a	n/a	n/a	n/a	n/a	18	4	9	5	n/a	n/a	n/a	n/a	n/a
1509627	PROB	n/a	LTP063	ltpFR	8	n/a	n/a	n/a	n/a	n/a	n/a	6	1	4	1	n/a	n/a	n/a	n/a	n/a
1511058	PROB	n/a	LTP063	ltpFR	8	n/a	n/a	n/a	n/a	n/a	n/a	19	9	8	2	n/a	n/a	n/a	n/a	n/a
1512507	PROB	n/a	LTP063	ltpFR	8	n/a	n/a	n/a	n/a	n/a	n/a	9	3	3	3	n/a	n/a	n/a	n/a	n/a
1513822	PROB	n/a	LTP063	ltpFR	8	n/a	n/a	n/a	n/a	n/a	n/a	17	3	6	8	n/a	n/a	n/a	n/a	n/a
1517001	PROB	n/a	LTP063	ltpFR	8	n/a	n/a	n/a	n/a	n/a	n/a	16	2	7	7	n/a	n/a	n/a	n/a	n/a
1518705	STOP	n/a	LTP063	ltpFR	8	n/a	n/a	n/a	n/a	n/a	n/a	n/a	n/a	n/a	n/a	n/a	n/a	n/a	n/a	n/a
1521113	WORD	wordpools/wasnorm_wordpool.txt	LTP063	ltpFR	8	7	0	TROMBONE	1508	n/a	1	n/a	0	0	0	1	0.412841796875	0.57763671875	upper	../fonts/amplitud.ttf
1524119	START	n/a	LTP063	ltpFR	8	n/a	n/a	n/a	n/a	n/a	n/a	n/a	n/a	n/a	n/a	n/a	n/a	n/a	n/a	n/a
1525168	PROB	n/a	LTP063	ltpFR	8	n/a	n/a	n/a	n/a	n/a	n/a	10	1	7	2	n/a	n/a	n/a	n/a	n/a
1526607	PROB	n/a	LTP063	ltpFR	8	n/a	n/a	n/a	n/a	n/a	n/a	25	9	8	8	n/a	n/a	n/a	n/a	n/a
1529112	PROB	n/a	LTP063	ltpFR	8	n/a	n/a	n/a	n/a	n/a	n/a	8	2	5	1	n/a	n/a	n/a	n/a	n/a
1531826	PROB	n/a	LTP063	ltpFR	8	n/a	n/a	n/a	n/a	n/a	n/a	15	2	5	8	n/a	n/a	n/a	n/a	n/a
1533740	PROB	n/a	LTP063	ltpFR	8	n/a	n/a	n/a	n/a	n/a	n/a	14	4	2	8	n/a	n/a	n/a	n/a	n/a
1535830	PROB	n/a	LTP063	ltpFR	8	n/a	n/a	n/a	n/a	n/a	n/a	6	2	1	3	n/a	n/a	n/a	n/a	n/a
1537744	PROB	n/a	LTP063	ltpFR	8	n/a	n/a	n/a	n/a	n/a	n/a	21	6	6	9	n/a	n/a	n/a	n/a	n/a
1539865	STOP	n/a	LTP063	ltpFR	8	n/a	n/a	n/a	n/a	n/a	n/a	n/a	n/a	n/a	n/a	n/a	n/a	n/a	n/a	n/a
1541032	WORD	wordpools/wasnorm_wordpool.txt	LTP063	ltpFR	8	7	0	SKIN	1318	n/a	1	n/a	0	0	0	1	0.412841796875	0.57763671875	upper	../fonts/amplitud.ttf
1544037	START	n/a	LTP063	ltpFR	8	n/a	n/a	n/a	n/a	n/a	n/a	n/a	n/a	n/a	n/a	n/a	n/a	n/a	n/a	n/a
1545111	PROB	n/a	LTP063	ltpFR	8	n/a	n/a	n/a	n/a	n/a	n/a	17	9	2	6	n/a	n/a	n/a	n/a	n/a
1548864	PROB	n/a	LTP063	ltpFR	8	n/a	n/a	n/a	n/a	n/a	n/a	21	7	5	9	n/a	n/a	n/a	n/a	n/a
1560037	STOP	n/a	LTP063	ltpFR	8	n/a	n/a	n/a	n/a	n/a	n/a	n/a	n/a	n/a	n/a	n/a	n/a	n/a	n/a	n/a
1561117	WORD	wordpools/wasnorm_wordpool.txt	LTP063	ltpFR	8	7	0	SUPERVISOR	1410	n/a	1	n/a	0	0	0	1	0.412841796875	0.57763671875	upper	../fonts/amplitud.ttf
1564122	START	n/a	LTP063	ltpFR	8	n/a	n/a	n/a	n/a	n/a	n/a	n/a	n/a	n/a	n/a	n/a	n/a	n/a	n/a	n/a
1565255	PROB	n/a	LTP063	ltpFR	8	n/a	n/a	n/a	n/a	n/a	n/a	15	5	1	9	n/a	n/a	n/a	n/a	n/a
1567060	PROB	n/a	LTP063	ltpFR	8	n/a	n/a	n/a	n/a	n/a	n/a	21	5	9	7	n/a	n/a	n/a	n/a	n/a
1569782	PROB	n/a	LTP063	ltpFR	8	n/a	n/a	n/a	n/a	n/a	n/a	20	8	5	7	n/a	n/a	n/a	n/a	n/a
1572853	PROB	n/a	LTP063	ltpFR	8	n/a	n/a	n/a	n/a	n/a	n/a	13	2	8	3	n/a	n/a	n/a	n/a	n/a
1574784	PROB	n/a	LTP063	ltpFR	8	n/a	n/a	n/a	n/a	n/a	n/a	16	8	4	4	n/a	n/a	n/a	n/a	n/a
1576532	PROB	n/a	LTP063	ltpFR	8	n/a	n/a	n/a	n/a	n/a	n/a	10	4	1	5	n/a	n/a	n/a	n/a	n/a
1578849	STOP	n/a	LTP063	ltpFR	8	n/a	n/a	n/a	n/a	n/a	n/a	n/a	n/a	n/a	n/a	n/a	n/a	n/a	n/a	n/a
1581211	WORD	wordpools/wasnorm_wordpool.txt	LTP063	ltpFR	8	7	0	MATTRESS	879	n/a	1	n/a	0	0	0	1	0.412841796875	0.57763671875	upper	../fonts/amplitud.ttf
1584216	START	n/a	LTP063	ltpFR	8	n/a	n/a	n/a	n/a	n/a	n/a	n/a	n/a	n/a	n/a	n/a	n/a	n/a	n/a	n/a
1585290	PROB	n/a	LTP063	ltpFR	8	n/a	n/a	n/a	n/a	n/a	n/a	18	2	9	7	n/a	n/a	n/a	n/a	n/a
1592589	PROB	n/a	LTP063	ltpFR	8	n/a	n/a	n/a	n/a	n/a	n/a	18	5	9	4	n/a	n/a	n/a	n/a	n/a
1594255	PROB	n/a	LTP063	ltpFR	8	n/a	n/a	n/a	n/a	n/a	n/a	14	6	5	3	n/a	n/a	n/a	n/a	n/a
1600215	STOP	n/a	LTP063	ltpFR	8	n/a	n/a	n/a	n/a	n/a	n/a	n/a	n/a	n/a	n/a	n/a	n/a	n/a	n/a	n/a
1602020	REC_START	n/a	LTP063	ltpFR	8	7	n/a	n/a	n/a	n/a	n/a	n/a	0	0	0	n/a	n/a	n/a	n/a	n/a
1606789	REC_WORD	wordpools/wasnorm_wordpool.txt	LTP063	ltpFR	8	7	0	MATTRESS	879	n/a	1	n/a	0	0	0	n/a	n/a	n/a	n/a	n/a
1608121	REC_WORD	wordpools/wasnorm_wordpool.txt	LTP063	ltpFR	8	7	0	SHACK	1273	n/a	1	n/a	0	0	0	n/a	n/a	n/a	n/a	n/a
1611174	REC_WORD	wordpools/wasnorm_wordpool.txt	LTP063	ltpFR	8	7	0	PUMPKIN	1142	n/a	1	n/a	0	0	0	n/a	n/a	n/a	n/a	n/a
1612256	REC_WORD	wordpools/wasnorm_wordpool.txt	LTP063	ltpFR	8	7	0	VINE	1568	n/a	1	n/a	0	0	0	n/a	n/a	n/a	n/a	n/a
1613723	REC_WORD	wordpools/wasnorm_wordpool.txt	LTP063	ltpFR	8	7	0	DENIM	446	n/a	1	n/a	0	0	0	n/a	n/a	n/a	n/a	n/a
1614641	REC_WORD	wordpools/wasnorm_wordpool.txt	LTP063	ltpFR	8	7	0	SLACKS	1323	n/a	1	n/a	0	0	0	n/a	n/a	n/a	n/a	n/a
1616018	REC_WORD	wordpools/wasnorm_wordpool.txt	LTP063	ltpFR	8	7	0	DISC	473	n/a	0	n/a	0	0	0	n/a	n/a	n/a	n/a	n/a
1618153	REC_WORD	wordpools/wasnorm_wordpool.txt	LTP063	ltpFR	8	7	0	KNOB	787	n/a	0	n/a	0	0	0	n/a	n/a	n/a	n/a	n/a
1664387	REC_WORD	wordpools/wasnorm_wordpool.txt	LTP063	ltpFR	8	7	0	SPAGHETTI	1346	n/a	1	n/a	0	0	0	n/a	n/a	n/a	n/a	n/a
1674360	REC_WORD	wordpools/wasnorm_wordpool.txt	LTP063	ltpFR	8	7	0	MATTRESS	879	n/a	1	n/a	0	0	0	n/a	n/a	n/a	n/a	n/a
1680986	WORD	wordpools/wasnorm_wordpool.txt	LTP063	ltpFR	8	8	1	PUDDLE	1140	n/a	0	n/a	0	0	0	0	0.5869140625	0.422607421875	lower	../fonts/zerothre.ttf
1684898	WORD	wordpools/wasnorm_wordpool.txt	LTP063	ltpFR	8	8	1	SHORTS	1293	n/a	0	n/a	0	0	0	0	0.5869140625	0.422607421875	lower	../fonts/zerothre.ttf
1689027	WORD	wordpools/wasnorm_wordpool.txt	LTP063	ltpFR	8	8	0	SHIRT	1287	n/a	1	n/a	0	0	0	1	0.412841796875	0.57763671875	upper	../fonts/amplitud.ttf
1693006	WORD	wordpools/wasnorm_wordpool.txt	LTP063	ltpFR	8	8	0	DOUGH	489	n/a	0	n/a	0	0	0	1	0.412841796875	0.57763671875	upper	../fonts/amplitud.ttf
1697143	WORD	wordpools/wasnorm_wordpool.txt	LTP063	ltpFR	8	8	0	FISH	571	n/a	0	n/a	0	0	0	1	0.412841796875	0.57763671875	upper	../fonts/amplitud.ttf
1701038	WORD	wordpools/wasnorm_wordpool.txt	LTP063	ltpFR	8	8	0	SHRUB	1299	n/a	1	n/a	0	0	0	1	0.412841796875	0.57763671875	upper	../fonts/amplitud.ttf
1704967	WORD	wordpools/wasnorm_wordpool.txt	LTP063	ltpFR	8	8	0	GUARD	667	n/a	1	n/a	0	0	0	1	0.412841796875	0.57763671875	upper	../fonts/amplitud.ttf
1708812	WORD	wordpools/wasnorm_wordpool.txt	LTP063	ltpFR	8	8	1	NUCLEUS	961	n/a	0	n/a	0	0	0	0	0.5869140625	0.422607421875	lower	../fonts/zerothre.ttf
1712808	WORD	wordpools/wasnorm_wordpool.txt	LTP063	ltpFR	8	8	1	BISON	131	n/a	1	n/a	0	0	0	0	0.5869140625	0.422607421875	lower	../fonts/zerothre.ttf
1716728	WORD	wordpools/wasnorm_wordpool.txt	LTP063	ltpFR	8	8	0	MOUNTAIN	924	n/a	1	n/a	0	0	0	1	0.412841796875	0.57763671875	upper	../fonts/amplitud.ttf
1720890	WORD	wordpools/wasnorm_wordpool.txt	LTP063	ltpFR	8	8	0	SUMMIT	1405	n/a	1	n/a	0	0	0	1	0.412841796875	0.57763671875	upper	../fonts/amplitud.ttf
1724702	WORD	wordpools/wasnorm_wordpool.txt	LTP063	ltpFR	8	8	0	TECHNICIAN	1443	n/a	1	n/a	0	0	0	1	0.412841796875	0.57763671875	upper	../fonts/amplitud.ttf
1728523	WORD	wordpools/wasnorm_wordpool.txt	LTP063	ltpFR	8	8	1	BUGGY	188	n/a	1	n/a	0	0	0	0	0.5869140625	0.422607421875	lower	../fonts/zerothre.ttf
1732601	WORD	wordpools/wasnorm_wordpool.txt	LTP063	ltpFR	8	8	1	ROOT	1210	n/a	1	n/a	0	0	0	0	0.5869140625	0.422607421875	lower	../fonts/zerothre.ttf
1736415	WORD	wordpools/wasnorm_wordpool.txt	LTP063	ltpFR	8	8	1	PUPIL	1143	n/a	1	n/a	0	0	0	0	0.5869140625	0.422607421875	lower	../fonts/zerothre.ttf
1740393	WORD	wordpools/wasnorm_wordpool.txt	LTP063	ltpFR	8	8	1	PEANUT	1032	n/a	1	n/a	0	0	0	0	0.5869140625	0.422607421875	lower	../fonts/zerothre.ttf
1746262	REC_START	n/a	LTP063	ltpFR	8	8	n/a	n/a	n/a	n/a	n/a	n/a	0	0	0	n/a	n/a	n/a	n/a	n/a
1747684	REC_WORD	wordpools/wasnorm_wordpool.txt	LTP063	ltpFR	8	8	1	PEANUT	1032	n/a	1	n/a	0	0	0	n/a	n/a	n/a	n/a	n/a
1748497	REC_WORD	wordpools/wasnorm_wordpool.txt	LTP063	ltpFR	8	8	1	PUPIL	1143	n/a	1	n/a	0	0	0	n/a	n/a	n/a	n/a	n/a
1749819	REC_WORD	wordpools/wasnorm_wordpool.txt	LTP063	ltpFR	8	8	1	BUGGY	188	n/a	1	n/a	0	0	0	n/a	n/a	n/a	n/a	n/a
1756538	REC_WORD	wordpools/wasnorm_wordpool.txt	LTP063	ltpFR	8	8	1	SHORTS	1293	n/a	0	n/a	0	0	0	n/a	n/a	n/a	n/a	n/a
1757761	REC_WORD	wordpools/wasnorm_wordpool.txt	LTP063	ltpFR	8	8	1	PUDDLE	1140	n/a	0	n/a	0	0	0	n/a	n/a	n/a	n/a	n/a
1824380	START	n/a	LTP063	ltpFR	8	n/a	n/a	n/a	n/a	n/a	n/a	n/a	n/a	n/a	n/a	n/a	n/a	n/a	n/a	n/a
1825885	PROB	n/a	LTP063	ltpFR	8	n/a	n/a	n/a	n/a	n/a	n/a	21	9	4	8	n/a	n/a	n/a	n/a	n/a
1828283	PROB	n/a	LTP063	ltpFR	8	n/a	n/a	n/a	n/a	n/a	n/a	12	5	4	3	n/a	n/a	n/a	n/a	n/a
1832380	STOP	n/a	LTP063	ltpFR	8	n/a	n/a	n/a	n/a	n/a	n/a	n/a	n/a	n/a	n/a	n/a	n/a	n/a	n/a	n/a
1833377	WORD	wordpools/wasnorm_wordpool.txt	LTP063	ltpFR	8	9	0	REFRIGERATOR	1179	n/a	1	n/a	0	0	0	1	0.412841796875	0.57763671875	upper	../fonts/amplitud.ttf
1836382	START	n/a	LTP063	ltpFR	8	n/a	n/a	n/a	n/a	n/a	n/a	n/a	n/a	n/a	n/a	n/a	n/a	n/a	n/a	n/a
1837414	PROB	n/a	LTP063	ltpFR	8	n/a	n/a	n/a	n/a	n/a	n/a	10	7	1	2	n/a	n/a	n/a	n/a	n/a
1838870	PROB	n/a	LTP063	ltpFR	8	n/a	n/a	n/a	n/a	n/a	n/a	13	1	6	6	n/a	n/a	n/a	n/a	n/a
1840377	PROB	n/a	LTP063	ltpFR	8	n/a	n/a	n/a	n/a	n/a	n/a	15	5	6	9	n/a	n/a	n/a	n/a	n/a
1843322	STOP	n/a	LTP063	ltpFR	8	n/a	n/a	n/a	n/a	n/a	n/a	n/a	n/a	n/a	n/a	n/a	n/a	n/a	n/a	n/a
1845238	WORD	wordpools/wasnorm_wordpool.txt	LTP063	ltpFR	8	9	0	RABBIT	1152	n/a	0	n/a	0	0	0	1	0.412841796875	0.57763671875	upper	../fonts/amplitud.ttf
1848244	START	n/a	LTP063	ltpFR	8	n/a	n/a	n/a	n/a	n/a	n/a	n/a	n/a	n/a	n/a	n/a	n/a	n/a	n/a	n/a
1849192	PROB	n/a	LTP063	ltpFR	8	n/a	n/a	n/a	n/a	n/a	n/a	9	3	3	3	n/a	n/a	n/a	n/a	n/a
1850333	PROB	n/a	LTP063	ltpFR	8	n/a	n/a	n/a	n/a	n/a	n/a	16	7	2	7	n/a	n/a	n/a	n/a	n/a
1852429	PROB	n/a	LTP063	ltpFR	8	n/a	n/a	n/a	n/a	n/a	n/a	8	2	2	4	n/a	n/a	n/a	n/a	n/a
1854119	PROB	n/a	LTP063	ltpFR	8	n/a	n/a	n/a	n/a	n/a	n/a	6	1	2	3	n/a	n/a	n/a	n/a	n/a
1855441	STOP	n/a	LTP063	ltpFR	8	n/a	n/a	n/a	n/a	n/a	n/a	n/a	n/a	n/a	n/a	n/a	n/a	n/a	n/a	n/a
1857416	WORD	wordpools/wasnorm_wordpool.txt	LTP063	ltpFR	8	9	0	BUREAU	199	n/a	1	n/a	0	0	0	1	0.412841796875	0.57763671875	upper	../fonts/amplitud.ttf
1860421	START	n/a	LTP063	ltpFR	8	n/a	n/a	n/a	n/a	n/a	n/a	n/a	n/a	n/a	n/a	n/a	n/a	n/a	n/a	n/a
1861560	PROB	n/a	LTP063	ltpFR	8	n/a	n/a	n/a	n/a	n/a	n/a	15	4	7	4	n/a	n/a	n/a	n/a	n/a
1865064	PROB	n/a	LTP063	ltpFR	8	n/a	n/a	n/a	n/a	n/a	n/a	17	7	5	5	n/a	n/a	n/a	n/a	n/a
1868421	STOP	n/a	LTP063	ltpFR	8	n/a	n/a	n/a	n/a	n/a	n/a	n/a	n/a	n/a	n/a	n/a	n/a	n/a	n/a	n/a
1869567	WORD	wordpools/wasnorm_wordpool.txt	LTP063	ltpFR	8	9	0	WARDROBE	1587	n/a	1	n/a	0	0	0	1	0.412841796875	0.57763671875	upper	../fonts/amplitud.ttf
1872573	START	n/a	LTP063	ltpFR	8	n/a	n/a	n/a	n/a	n/a	n/a	n/a	n/a	n/a	n/a	n/a	n/a	n/a	n/a	n/a
1873455	PROB	n/a	LTP063	ltpFR	8	n/a	n/a	n/a	n/a	n/a	n/a	16	7	7	2	n/a	n/a	n/a	n/a	n/a
1875119	PROB	n/a	LTP063	ltpFR	8	n/a	n/a	n/a	n/a	n/a	n/a	16	7	7	2	n/a	n/a	n/a	n/a	n/a
1880572	STOP	n/a	LTP063	ltpFR	8	n/a	n/a	n/a	n/a	n/a	n/a	n/a	n/a	n/a	n/a	n/a	n/a	n/a	n/a	n/a
1881462	WORD	wordpools/wasnorm_wordpool.txt	LTP063	ltpFR	8	9	0	SKETCH	1315	n/a	0	n/a	0	0	0	1	0.412841796875	0.57763671875	upper	../fonts/amplitud.ttf
1884467	START	n/a	LTP063	ltpFR	8	n/a	n/a	n/a	n/a	n/a	n/a	n/a	n/a	n/a	n/a	n/a	n/a	n/a	n/a	n/a
1885342	PROB	n/a	LTP063	ltpFR	8	n/a	n/a	n/a	n/a	n/a	n/a	7	4	1	2	n/a	n/a	n/a	n/a	n/a
1887497	PROB	n/a	LTP063	ltpFR	8	n/a	n/a	n/a	n/a	n/a	n/a	11	1	2	8	n/a	n/a	n/a	n/a	n/a
1888970	PROB	n/a	LTP063	ltpFR	8	n/a	n/a	n/a	n/a	n/a	n/a	1	1	7	2	n/a	n/a	n/a	n/a	n/a
1890411	PROB	n/a	LTP063	ltpFR	8	n/a	n/a	n/a	n/a	n/a	n/a	11	1	4	6	n/a	n/a	n/a	n/a	n/a
1892129	STOP	n/a	LTP063	ltpFR	8	n/a	n/a	n/a	n/a	n/a	n/a	n/a	n/a	n/a	n/a	n/a	n/a	n/a	n/a	n/a
1893556	WORD	wordpools/wasnorm_wordpool.txt	LTP063	ltpFR	8	9	0	ATOM	55	n/a	0	n/a	0	0	0	1	0.412841796875	0.57763671875	upper	../fonts/amplitud.ttf
1896562	START	n/a	LTP063	ltpFR	8	n/a	n/a	n/a	n/a	n/a	n/a	n/a	n/a	n/a	n/a	n/a	n/a	n/a	n/a	n/a
1897535	PROB	n/a	LTP063	ltpFR	8	n/a	n/a	n/a	n/a	n/a	n/a	16	8	4	4	n/a	n/a	n/a	n/a	n/a
1899474	PROB	n/a	LTP063	ltpFR	8	n/a	n/a	n/a	n/a	n/a	n/a	21	6	8	7	n/a	n/a	n/a	n/a	n/a
1902264	PROB	n/a	LTP063	ltpFR	8	n/a	n/a	n/a	n/a	n/a	n/a	18	8	9	1	n/a	n/a	n/a	n/a	n/a
1903881	STOP	n/a	LTP063	ltpFR	8	n/a	n/a	n/a	n/a	n/a	n/a	n/a	n/a	n/a	n/a	n/a	n/a	n/a	n/a	n/a
1905517	WORD	wordpools/wasnorm_wordpool.txt	LTP063	ltpFR	8	9	0	BOMB	147	n/a	1	n/a	0	0	0	1	0.412841796875	0.57763671875	upper	../fonts/amplitud.ttf
1908523	START	n/a	LTP063	ltpFR	8	n/a	n/a	n/a	n/a	n/a	n/a	n/a	n/a	n/a	n/a	n/a	n/a	n/a	n/a	n/a
1909463	PROB	n/a	LTP063	ltpFR	8	n/a	n/a	n/a	n/a	n/a	n/a	10	3	6	1	n/a	n/a	n/a	n/a	n/a
1910986	PROB	n/a	LTP063	ltpFR	8	n/a	n/a	n/a	n/a	n/a	n/a	13	9	3	1	n/a	n/a	n/a	n/a	n/a
1912892	PROB	n/a	LTP063	ltpFR	8	n/a	n/a	n/a	n/a	n/a	n/a	19	9	4	6	n/a	n/a	n/a	n/a	n/a
1914391	PROB	n/a	LTP063	ltpFR	8	n/a	n/a	n/a	n/a	n/a	n/a	12	1	9	2	n/a	n/a	n/a	n/a	n/a
1916386	STOP	n/a	LTP063	ltpFR	8	n/a	n/a	n/a	n/a	n/a	n/a	n/a	n/a	n/a	n/a	n/a	n/a	n/a	n/a	n/a
1917678	WORD	wordpools/wasnorm_wordpool.txt	LTP063	ltpFR	8	9	0	BUSH	202	n/a	1	n/a	0	0	0	1	0.412841796875	0.57763671875	upper	../fonts/amplitud.ttf
1920684	START	n/a	LTP063	ltpFR	8	n/a	n/a	n/a	n/a	n/a	n/a	n/a	n/a	n/a	n/a	n/a	n/a	n/a	n/a	n/a
1921582	PROB	n/a	LTP063	ltpFR	8	n/a	n/a	n/a	n/a	n/a	n/a	15	1	6	8	n/a	n/a	n/a	n/a	n/a
1924146	PROB	n/a	LTP063	ltpFR	8	n/a	n/a	n/a	n/a	n/a	n/a	17	6	8	3	n/a	n/a	n/a	n/a	n/a
1927386	STOP	n/a	LTP063	ltpFR	8	n/a	n/a	n/a	n/a	n/a	n/a	n/a	n/a	n/a	n/a	n/a	n/a	n/a	n/a	n/a
1929614	WORD	wordpools/wasnorm_wordpool.txt	LTP063	ltpFR	8	9	0	RUM	1217	n/a	1	n/a	0	0	0	1	0.412841796875	0.57763671875	upper	../fonts/amplitud.ttf
1932620	START	n/a	LTP063	ltpFR	8	n/a	n/a	n/a	n/a	n/a	n/a	n/a	n/a	n/a	n/a	n/a	n/a	n/a	n/a	n/a
1933593	PROB	n/a	LTP063	ltpFR	8	n/a	n/a	n/a	n/a	n/a	n/a	13	9	3	1	n/a	n/a	n/a	n/a	n/a
1934975	PROB	n/a	LTP063	ltpFR	8	n/a	n/a	n/a	n/a	n/a	n/a	3	1	1	1	n/a	n/a	n/a	n/a	n/a
1936149	PROB	n/a	LTP063	ltpFR	8	n/a	n/a	n/a	n/a	n/a	n/a	20	5	7	9	n/a	n/a	n/a	n/a	n/a
1940620	STOP	n/a	LTP063	ltpFR	8	n/a	n/a	n/a	n/a	n/a	n/a	n/a	n/a	n/a	n/a	n/a	n/a	n/a	n/a	n/a
1941800	WORD	wordpools/wasnorm_wordpool.txt	LTP063	ltpFR	8	9	0	HEATER	698	n/a	1	n/a	0	0	0	1	0.412841796875	0.57763671875	upper	../fonts/amplitud.ttf
1944806	START	n/a	LTP063	ltpFR	8	n/a	n/a	n/a	n/a	n/a	n/a	n/a	n/a	n/a	n/a	n/a	n/a	n/a	n/a	n/a
1945896	PROB	n/a	LTP063	ltpFR	8	n/a	n/a	n/a	n/a	n/a	n/a	13	2	7	4	n/a	n/a	n/a	n/a	n/a
1949384	PROB	n/a	LTP063	ltpFR	8	n/a	n/a	n/a	n/a	n/a	n/a	19	7	5	7	n/a	n/a	n/a	n/a	n/a
1951513	STOP	n/a	LTP063	ltpFR	8	n/a	n/a	n/a	n/a	n/a	n/a	n/a	n/a	n/a	n/a	n/a	n/a	n/a	n/a	n/a
1954003	WORD	wordpools/wasnorm_wordpool.txt	LTP063	ltpFR	8	9	0	GLACIER	638	n/a	1	n/a	0	0	0	1	0.412841796875	0.57763671875	upper	../fonts/amplitud.ttf
1957008	START	n/a	LTP063	ltpFR	8	n/a	n/a	n/a	n/a	n/a	n/a	n/a	n/a	n/a	n/a	n/a	n/a	n/a	n/a	n/a
1957982	PROB	n/a	LTP063	ltpFR	8	n/a	n/a	n/a	n/a	n/a	n/a	18	5	9	4	n/a	n/a	n/a	n/a	n/a
1961036	PROB	n/a	LTP063	ltpFR	8	n/a	n/a	n/a	n/a	n/a	n/a	17	7	9	1	n/a	n/a	n/a	n/a	n/a
1962386	PROB	n/a	LTP063	ltpFR	8	n/a	n/a	n/a	n/a	n/a	n/a	7	3	3	1	n/a	n/a	n/a	n/a	n/a
1964314	STOP	n/a	LTP063	ltpFR	8	n/a	n/a	n/a	n/a	n/a	n/a	n/a	n/a	n/a	n/a	n/a	n/a	n/a	n/a	n/a
1965964	WORD	wordpools/wasnorm_wordpool.txt	LTP063	ltpFR	8	9	0	DRAWING	494	n/a	0	n/a	0	0	0	1	0.412841796875	0.57763671875	upper	../fonts/amplitud.ttf
1968969	START	n/a	LTP063	ltpFR	8	n/a	n/a	n/a	n/a	n/a	n/a	n/a	n/a	n/a	n/a	n/a	n/a	n/a	n/a	n/a
1970101	PROB	n/a	LTP063	ltpFR	8	n/a	n/a	n/a	n/a	n/a	n/a	15	5	7	3	n/a	n/a	n/a	n/a	n/a
1971682	PROB	n/a	LTP063	ltpFR	8	n/a	n/a	n/a	n/a	n/a	n/a	15	6	1	8	n/a	n/a	n/a	n/a	n/a
1973913	PROB	n/a	LTP063	ltpFR	8	n/a	n/a	n/a	n/a	n/a	n/a	14	2	9	3	n/a	n/a	n/a	n/a	n/a
1976617	STOP	n/a	LTP063	ltpFR	8	n/a	n/a	n/a	n/a	n/a	n/a	n/a	n/a	n/a	n/a	n/a	n/a	n/a	n/a	n/a
1977917	WORD	wordpools/wasnorm_wordpool.txt	LTP063	ltpFR	8	9	0	MOAT	903	n/a	1	n/a	0	0	0	1	0.412841796875	0.57763671875	upper	../fonts/amplitud.ttf
1980922	START	n/a	LTP063	ltpFR	8	n/a	n/a	n/a	n/a	n/a	n/a	n/a	n/a	n/a	n/a	n/a	n/a	n/a	n/a	n/a
1981970	PROB	n/a	LTP063	ltpFR	8	n/a	n/a	n/a	n/a	n/a	n/a	16	6	2	8	n/a	n/a	n/a	n/a	n/a
1983353	PROB	n/a	LTP063	ltpFR	8	n/a	n/a	n/a	n/a	n/a	n/a	12	8	2	2	n/a	n/a	n/a	n/a	n/a
1985193	PROB	n/a	LTP063	ltpFR	8	n/a	n/a	n/a	n/a	n/a	n/a	9	3	3	3	n/a	n/a	n/a	n/a	n/a
1986391	PROB	n/a	LTP063	ltpFR	8	n/a	n/a	n/a	n/a	n/a	n/a	12	1	3	8	n/a	n/a	n/a	n/a	n/a
1988266	STOP	n/a	LTP063	ltpFR	8	n/a	n/a	n/a	n/a	n/a	n/a	n/a	n/a	n/a	n/a	n/a	n/a	n/a	n/a	n/a
1989911	WORD	wordpools/wasnorm_wordpool.txt	LTP063	ltpFR	8	9	0	RELISH	1183	n/a	0	n/a	0	0	0	1	0.412841796875	0.57763671875	upper	../fonts/amplitud.ttf
1992916	START	n/a	LTP063	ltpFR	8	n/a	n/a	n/a	n/a	n/a	n/a	n/a	n/a	n/a	n/a	n/a	n/a	n/a	n/a	n/a
1993857	PROB	n/a	LTP063	ltpFR	8	n/a	n/a	n/a	n/a	n/a	n/a	18	9	1	8	n/a	n/a	n/a	n/a	n/a
1995189	PROB	n/a	LTP063	ltpFR	8	n/a	n/a	n/a	n/a	n/a	n/a	11	7	1	3	n/a	n/a	n/a	n/a	n/a
1996695	PROB	n/a	LTP063	ltpFR	8	n/a	n/a	n/a	n/a	n/a	n/a	17	8	3	6	n/a	n/a	n/a	n/a	n/a
2000916	STOP	n/a	LTP063	ltpFR	8	n/a	n/a	n/a	n/a	n/a	n/a	n/a	n/a	n/a	n/a	n/a	n/a	n/a	n/a	n/a
2001864	WORD	wordpools/wasnorm_wordpool.txt	LTP063	ltpFR	8	9	0	FRECKLE	602	n/a	0	n/a	0	0	0	1	0.412841796875	0.57763671875	upper	../fonts/amplitud.ttf
2004869	START	n/a	LTP063	ltpFR	8	n/a	n/a	n/a	n/a	n/a	n/a	n/a	n/a	n/a	n/a	n/a	n/a	n/a	n/a	n/a
2006051	PROB	n/a	LTP063	ltpFR	8	n/a	n/a	n/a	n/a	n/a	n/a	15	5	6	3	n/a	n/a	n/a	n/a	n/a
2008099	PROB	n/a	LTP063	ltpFR	8	n/a	n/a	n/a	n/a	n/a	n/a	5	3	1	2	n/a	n/a	n/a	n/a	n/a
2012869	STOP	n/a	LTP063	ltpFR	8	n/a	n/a	n/a	n/a	n/a	n/a	n/a	n/a	n/a	n/a	n/a	n/a	n/a	n/a	n/a
2013867	WORD	wordpools/wasnorm_wordpool.txt	LTP063	ltpFR	8	9	0	SEA	1259	n/a	1	n/a	0	0	0	1	0.412841796875	0.57763671875	upper	../fonts/amplitud.ttf
2016872	START	n/a	LTP063	ltpFR	8	n/a	n/a	n/a	n/a	n/a	n/a	n/a	n/a	n/a	n/a	n/a	n/a	n/a	n/a	n/a
2018054	PROB	n/a	LTP063	ltpFR	8	n/a	n/a	n/a	n/a	n/a	n/a	13	3	4	6	n/a	n/a	n/a	n/a	n/a
2019411	PROB	n/a	LTP063	ltpFR	8	n/a	n/a	n/a	n/a	n/a	n/a	20	6	7	7	n/a	n/a	n/a	n/a	n/a
2024872	STOP	n/a	LTP063	ltpFR	8	n/a	n/a	n/a	n/a	n/a	n/a	n/a	n/a	n/a	n/a	n/a	n/a	n/a	n/a	n/a
2026846	REC_START	n/a	LTP063	ltpFR	8	9	n/a	n/a	n/a	n/a	n/a	n/a	0	0	0	n/a	n/a	n/a	n/a	n/a
2028243	REC_WORD	wordpools/wasnorm_wordpool.txt	LTP063	ltpFR	8	9	0	SEA	1259	n/a	1	n/a	0	0	0	n/a	n/a	n/a	n/a	n/a
2031006	REC_WORD	wordpools/wasnorm_wordpool.txt	LTP063	ltpFR	8	9	0	RELISH	1183	n/a	0	n/a	0	0	0	n/a	n/a	n/a	n/a	n/a
2034648	REC_WORD	wordpools/wasnorm_wordpool.txt	LTP063	ltpFR	8	9	0	BUREAU	199	n/a	1	n/a	0	0	0	n/a	n/a	n/a	n/a	n/a
2036629	REC_WORD	wordpools/wasnorm_wordpool.txt	LTP063	ltpFR	8	9	0	REFRIGERATOR	1179	n/a	1	n/a	0	0	0	n/a	n/a	n/a	n/a	n/a
2037629	REC_WORD_VV	wordpools/wasnorm_wordpool.txt	LTP063	ltpFR	8	9	n/a	<>	-1	n/a	n/a	n/a	0	0	0	n/a	n/a	n/a	n/a	n/a
2038834	REC_WORD	wordpools/wasnorm_wordpool.txt	LTP063	ltpFR	8	9	0	WARDROBE	1587	n/a	1	n/a	0	0	0	n/a	n/a	n/a	n/a	n/a
2039834	REC_WORD_VV	wordpools/wasnorm_wordpool.txt	LTP063	ltpFR	8	9	n/a	<>	-1	n/a	n/a	n/a	0	0	0	n/a	n/a	n/a	n/a	n/a
2041033	REC_WORD	wordpools/wasnorm_wordpool.txt	LTP063	ltpFR	8	9	0	SKETCH	1315	n/a	0	n/a	0	0	0	n/a	n/a	n/a	n/a	n/a
2042819	REC_WORD	wordpools/wasnorm_wordpool.txt	LTP063	ltpFR	8	9	0	DRAWING	494	n/a	0	n/a	0	0	0	n/a	n/a	n/a	n/a	n/a
2106077	WORD	wordpools/wasnorm_wordpool.txt	LTP063	ltpFR	8	10	0	VIOLA	1570	n/a	0	n/a	0	0	0	1	0.412841796875	0.57763671875	upper	../fonts/amplitud.ttf
2110198	WORD	wordpools/wasnorm_wordpool.txt	LTP063	ltpFR	8	10	0	CITIZEN	312	n/a	1	n/a	0	0	0	1	0.412841796875	0.57763671875	upper	../fonts/amplitud.ttf
2114126	WORD	wordpools/wasnorm_wordpool.txt	LTP063	ltpFR	8	10	1	BANDANNA	80	n/a	0	n/a	0	0	0	0	0.5869140625	0.422607421875	lower	../fonts/zerothre.ttf
2118029	WORD	wordpools/wasnorm_wordpool.txt	LTP063	ltpFR	8	10	1	STOVE	1388	n/a	0	n/a	0	0	0	0	0.5869140625	0.422607421875	lower	../fonts/zerothre.ttf
2121883	WORD	wordpools/wasnorm_wordpool.txt	LTP063	ltpFR	8	10	1	OX	994	n/a	1	n/a	0	0	0	0	0.5869140625	0.422607421875	lower	../fonts/zerothre.ttf
2125987	WORD	wordpools/wasnorm_wordpool.txt	LTP063	ltpFR	8	10	1	SCARF	1246	n/a	0	n/a	0	0	0	0	0.5869140625	0.422607421875	lower	../fonts/zerothre.ttf
2129882	WORD	wordpools/wasnorm_wordpool.txt	LTP063	ltpFR	8	10	1	PIANO	1057	n/a	1	n/a	0	0	0	0	0.5869140625	0.422607421875	lower	../fonts/zerothre.ttf
2133711	WORD	wordpools/wasnorm_wordpool.txt	LTP063	ltpFR	8	10	0	TIDE	1465	n/a	1	n/a	0	0	0	1	0.412841796875	0.57763671875	upper	../fonts/amplitud.ttf
2137781	WORD	wordpools/wasnorm_wordpool.txt	LTP063	ltpFR	8	10	0	SPRINKLE	1359	n/a	0	n/a	0	0	0	1	0.412841796875	0.57763671875	upper	../fonts/amplitud.ttf
2141810	WORD	wordpools/wasnorm_wordpool.txt	LTP063	ltpFR	8	10	0	LOAF	835	n/a	0	n/a	0	0	0	1	0.412841796875	0.57763671875	upper	../fonts/amplitud.ttf
2145939	WORD	wordpools/wasnorm_wordpool.txt	LTP063	ltpFR	8	10	1	SEAGULL	1261	n/a	1	n/a	0	0	0	0	0.5869140625	0.422607421875	lower	../fonts/zerothre.ttf
2149792	WORD	wordpools/wasnorm_wordpool.txt	LTP063	ltpFR	8	10	1	DOVE	491	n/a	1	n/a	0	0	0	0	0.5869140625	0.422607421875	lower	../fonts/zerothre.ttf
2153796	WORD	wordpools/wasnorm_wordpool.txt	LTP063	ltpFR	8	10	1	DISH	474	n/a	0	n/a	0	0	0	0	0.5869140625	0.422607421875	lower	../fonts/zerothre.ttf
2157742	WORD	wordpools/wasnorm_wordpool.txt	LTP063	ltpFR	8	10	0	PICNIC	1060	n/a	0	n/a	0	0	0	1	0.412841796875	0.57763671875	upper	../fonts/amplitud.ttf
2161845	WORD	wordpools/wasnorm_wordpool.txt	LTP063	ltpFR	8	10	0	ELF	525	n/a	0	n/a	0	0	0	1	0.412841796875	0.57763671875	upper	../fonts/amplitud.ttf
2165865	WORD	wordpools/wasnorm_wordpool.txt	LTP063	ltpFR	8	10	0	SHEPHERD	1283	n/a	1	n/a	0	0	0	1	0.412841796875	0.57763671875	upper	../fonts/amplitud.ttf
2168871	START	n/a	LTP063	ltpFR	8	n/a	n/a	n/a	n/a	n/a	n/a	n/a	n/a	n/a	n/a	n/a	n/a	n/a	n/a	n/a
2169853	PROB	n/a	LTP063	ltpFR	8	n/a	n/a	n/a	n/a	n/a	n/a	16	9	1	6	n/a	n/a	n/a	n/a	n/a
2172141	PROB	n/a	LTP063	ltpFR	8	n/a	n/a	n/a	n/a	n/a	n/a	18	2	9	7	n/a	n/a	n/a	n/a	n/a
2174273	PROB	n/a	LTP063	ltpFR	8	n/a	n/a	n/a	n/a	n/a	n/a	7	1	1	5	n/a	n/a	n/a	n/a	n/a
2175865	STOP	n/a	LTP063	ltpFR	8	n/a	n/a	n/a	n/a	n/a	n/a	n/a	n/a	n/a	n/a	n/a	n/a	n/a	n/a	n/a
2178759	REC_START	n/a	LTP063	ltpFR	8	10	n/a	n/a	n/a	n/a	n/a	n/a	0	0	0	n/a	n/a	n/a	n/a	n/a
2182181	REC_WORD	wordpools/wasnorm_wordpool.txt	LTP063	ltpFR	8	10	0	ELF	525	n/a	0	n/a	0	0	0	n/a	n/a	n/a	n/a	n/a
2184730	REC_WORD	wordpools/wasnorm_wordpool.txt	LTP063	ltpFR	8	10	1	PIANO	1057	n/a	1	n/a	0	0	0	n/a	n/a	n/a	n/a	n/a
2186227	REC_WORD	wordpools/wasnorm_wordpool.txt	LTP063	ltpFR	8	10	0	VIOLA	1570	n/a	0	n/a	0	0	0	n/a	n/a	n/a	n/a	n/a
2254364	REST_REWET	n/a	LTP063	ltpFR	8	10	n/a	n/a	n/a	n/a	n/a	n/a	0	0	0	n/a	n/a	n/a	n/a	n/a
2604175	START	n/a	LTP063	ltpFR	8	n/a	n/a	n/a	n/a	n/a	n/a	n/a	n/a	n/a	n/a	n/a	n/a	n/a	n/a	n/a
2605680	PROB	n/a	LTP063	ltpFR	8	n/a	n/a	n/a	n/a	n/a	n/a	15	8	4	3	n/a	n/a	n/a	n/a	n/a
2609169	PROB	n/a	LTP063	ltpFR	8	n/a	n/a	n/a	n/a	n/a	n/a	14	4	1	9	n/a	n/a	n/a	n/a	n/a
2610941	PROB	n/a	LTP063	ltpFR	8	n/a	n/a	n/a	n/a	n/a	n/a	22	9	8	5	n/a	n/a	n/a	n/a	n/a
2615519	PROB	n/a	LTP063	ltpFR	8	n/a	n/a	n/a	n/a	n/a	n/a	18	8	4	6	n/a	n/a	n/a	n/a	n/a
2620174	STOP	n/a	LTP063	ltpFR	8	n/a	n/a	n/a	n/a	n/a	n/a	n/a	n/a	n/a	n/a	n/a	n/a	n/a	n/a	n/a
2621155	WORD	wordpools/wasnorm_wordpool.txt	LTP063	ltpFR	8	11	1	HOSTAGE	722	n/a	1	n/a	0	0	0	0	0.5869140625	0.422607421875	lower	../fonts/zerothre.ttf
2624160	START	n/a	LTP063	ltpFR	8	n/a	n/a	n/a	n/a	n/a	n/a	n/a	n/a	n/a	n/a	n/a	n/a	n/a	n/a	n/a
2625050	PROB	n/a	LTP063	ltpFR	8	n/a	n/a	n/a	n/a	n/a	n/a	16	9	6	1	n/a	n/a	n/a	n/a	n/a
2626714	PROB	n/a	LTP063	ltpFR	8	n/a	n/a	n/a	n/a	n/a	n/a	17	9	1	7	n/a	n/a	n/a	n/a	n/a
2628903	PROB	n/a	LTP063	ltpFR	8	n/a	n/a	n/a	n/a	n/a	n/a	21	7	4	8	n/a	n/a	n/a	n/a	n/a
2633914	PROB	n/a	LTP063	ltpFR	8	n/a	n/a	n/a	n/a	n/a	n/a	9	1	3	5	n/a	n/a	n/a	n/a	n/a
2636145	PROB	n/a	LTP063	ltpFR	8	n/a	n/a	n/a	n/a	n/a	n/a	17	3	9	5	n/a	n/a	n/a	n/a	n/a
2640160	STOP	n/a	LTP063	ltpFR	8	n/a	n/a	n/a	n/a	n/a	n/a	n/a	n/a	n/a	n/a	n/a	n/a	n/a	n/a	n/a
2641357	WORD	wordpools/wasnorm_wordpool.txt	LTP063	ltpFR	8	11	1	PEN	1041	n/a	0	n/a	0	0	0	0	0.5869140625	0.422607421875	lower	../fonts/zerothre.ttf
2644362	START	n/a	LTP063	ltpFR	8	n/a	n/a	n/a	n/a	n/a	n/a	n/a	n/a	n/a	n/a	n/a	n/a	n/a	n/a	n/a
2645227	PROB	n/a	LTP063	ltpFR	8	n/a	n/a	n/a	n/a	n/a	n/a	9	6	2	1	n/a	n/a	n/a	n/a	n/a
2647066	PROB	n/a	LTP063	ltpFR	8	n/a	n/a	n/a	n/a	n/a	n/a	17	1	7	9	n/a	n/a	n/a	n/a	n/a
2648722	PROB	n/a	LTP063	ltpFR	8	n/a	n/a	n/a	n/a	n/a	n/a	14	4	7	3	n/a	n/a	n/a	n/a	n/a
2650487	PROB	n/a	LTP063	ltpFR	8	n/a	n/a	n/a	n/a	n/a	n/a	17	5	8	4	n/a	n/a	n/a	n/a	n/a
2652826	PROB	n/a	LTP063	ltpFR	8	n/a	n/a	n/a	n/a	n/a	n/a	20	8	8	4	n/a	n/a	n/a	n/a	n/a
2654865	PROB	n/a	LTP063	ltpFR	8	n/a	n/a	n/a	n/a	n/a	n/a	20	9	5	6	n/a	n/a	n/a	n/a	n/a
2657137	PROB	n/a	LTP063	ltpFR	8	n/a	n/a	n/a	n/a	n/a	n/a	16	2	6	8	n/a	n/a	n/a	n/a	n/a
2660361	STOP	n/a	LTP063	ltpFR	8	n/a	n/a	n/a	n/a	n/a	n/a	n/a	n/a	n/a	n/a	n/a	n/a	n/a	n/a	n/a
2661342	WORD	wordpools/wasnorm_wordpool.txt	LTP063	ltpFR	8	11	1	MIRROR	899	n/a	0	n/a	0	0	0	0	0.5869140625	0.422607421875	lower	../fonts/zerothre.ttf
2664347	START	n/a	LTP063	ltpFR	8	n/a	n/a	n/a	n/a	n/a	n/a	n/a	n/a	n/a	n/a	n/a	n/a	n/a	n/a	n/a
2665179	PROB	n/a	LTP063	ltpFR	8	n/a	n/a	n/a	n/a	n/a	n/a	11	4	2	5	n/a	n/a	n/a	n/a	n/a
2668857	PROB	n/a	LTP063	ltpFR	8	n/a	n/a	n/a	n/a	n/a	n/a	6	2	2	2	n/a	n/a	n/a	n/a	n/a
2671247	PROB	n/a	LTP063	ltpFR	8	n/a	n/a	n/a	n/a	n/a	n/a	20	8	3	9	n/a	n/a	n/a	n/a	n/a
2675899	PROB	n/a	LTP063	ltpFR	8	n/a	n/a	n/a	n/a	n/a	n/a	16	8	2	6	n/a	n/a	n/a	n/a	n/a
2680346	STOP	n/a	LTP063	ltpFR	8	n/a	n/a	n/a	n/a	n/a	n/a	n/a	n/a	n/a	n/a	n/a	n/a	n/a	n/a	n/a
2681393	WORD	wordpools/wasnorm_wordpool.txt	LTP063	ltpFR	8	11	1	RAZOR	1171	n/a	0	n/a	0	0	0	0	0.5869140625	0.422607421875	lower	../fonts/zerothre.ttf
2684399	START	n/a	LTP063	ltpFR	8	n/a	n/a	n/a	n/a	n/a	n/a	n/a	n/a	n/a	n/a	n/a	n/a	n/a	n/a	n/a
2685588	PROB	n/a	LTP063	ltpFR	8	n/a	n/a	n/a	n/a	n/a	n/a	19	7	8	4	n/a	n/a	n/a	n/a	n/a
2688568	PROB	n/a	LTP063	ltpFR	8	n/a	n/a	n/a	n/a	n/a	n/a	14	2	8	4	n/a	n/a	n/a	n/a	n/a
2690482	PROB	n/a	LTP063	ltpFR	8	n/a	n/a	n/a	n/a	n/a	n/a	22	8	7	9	n/a	n/a	n/a	n/a	n/a
2700399	STOP	n/a	LTP063	ltpFR	8	n/a	n/a	n/a	n/a	n/a	n/a	n/a	n/a	n/a	n/a	n/a	n/a	n/a	n/a	n/a
2701552	WORD	wordpools/wasnorm_wordpool.txt	LTP063	ltpFR	8	11	1	PARTY	1018	n/a	0	n/a	0	0	0	0	0.5869140625	0.422607421875	lower	../fonts/zerothre.ttf
2704558	START	n/a	LTP063	ltpFR	8	n/a	n/a	n/a	n/a	n/a	n/a	n/a	n/a	n/a	n/a	n/a	n/a	n/a	n/a	n/a
2705498	PROB	n/a	LTP063	ltpFR	8	n/a	n/a	n/a	n/a	n/a	n/a	16	7	8	1	n/a	n/a	n/a	n/a	n/a
2708396	PROB	n/a	LTP063	ltpFR	8	n/a	n/a	n/a	n/a	n/a	n/a	13	1	9	3	n/a	n/a	n/a	n/a	n/a
2709860	PROB	n/a	LTP063	ltpFR	8	n/a	n/a	n/a	n/a	n/a	n/a	14	6	4	4	n/a	n/a	n/a	n/a	n/a
2711259	PROB	n/a	LTP063	ltpFR	8	n/a	n/a	n/a	n/a	n/a	n/a	10	1	1	8	n/a	n/a	n/a	n/a	n/a
2712723	PROB	n/a	LTP063	ltpFR	8	n/a	n/a	n/a	n/a	n/a	n/a	13	5	3	5	n/a	n/a	n/a	n/a	n/a
2714562	PROB	n/a	LTP063	ltpFR	8	n/a	n/a	n/a	n/a	n/a	n/a	13	1	9	3	n/a	n/a	n/a	n/a	n/a
2716094	PROB	n/a	LTP063	ltpFR	8	n/a	n/a	n/a	n/a	n/a	n/a	16	4	9	3	n/a	n/a	n/a	n/a	n/a
2720227	STOP	n/a	LTP063	ltpFR	8	n/a	n/a	n/a	n/a	n/a	n/a	n/a	n/a	n/a	n/a	n/a	n/a	n/a	n/a	n/a
2721538	WORD	wordpools/wasnorm_wordpool.txt	LTP063	ltpFR	8	11	1	WOLF	1619	n/a	1	n/a	0	0	0	0	0.5869140625	0.422607421875	lower	../fonts/zerothre.ttf
2724543	START	n/a	LTP063	ltpFR	8	n/a	n/a	n/a	n/a	n/a	n/a	n/a	n/a	n/a	n/a	n/a	n/a	n/a	n/a	n/a
2725741	PROB	n/a	LTP063	ltpFR	8	n/a	n/a	n/a	n/a	n/a	n/a	14	1	4	9	n/a	n/a	n/a	n/a	n/a
2727224	PROB	n/a	LTP063	ltpFR	8	n/a	n/a	n/a	n/a	n/a	n/a	16	4	8	4	n/a	n/a	n/a	n/a	n/a
2729478	PROB	n/a	LTP063	ltpFR	8	n/a	n/a	n/a	n/a	n/a	n/a	13	2	9	2	n/a	n/a	n/a	n/a	n/a
2733233	PROB	n/a	LTP063	ltpFR	8	n/a	n/a	n/a	n/a	n/a	n/a	6	1	1	4	n/a	n/a	n/a	n/a	n/a
2734539	PROB	n/a	LTP063	ltpFR	8	n/a	n/a	n/a	n/a	n/a	n/a	7	1	3	3	n/a	n/a	n/a	n/a	n/a
2736495	PROB	n/a	LTP063	ltpFR	8	n/a	n/a	n/a	n/a	n/a	n/a	10	2	5	3	n/a	n/a	n/a	n/a	n/a
2738601	PROB	n/a	LTP063	ltpFR	8	n/a	n/a	n/a	n/a	n/a	n/a	18	6	6	6	n/a	n/a	n/a	n/a	n/a
2740395	STOP	n/a	LTP063	ltpFR	8	n/a	n/a	n/a	n/a	n/a	n/a	n/a	n/a	n/a	n/a	n/a	n/a	n/a	n/a	n/a
2741556	WORD	wordpools/wasnorm_wordpool.txt	LTP063	ltpFR	8	11	1	DIRT	472	n/a	0	n/a	0	0	0	0	0.5869140625	0.422607421875	lower	../fonts/zerothre.ttf
2744561	START	n/a	LTP063	ltpFR	8	n/a	n/a	n/a	n/a	n/a	n/a	n/a	n/a	n/a	n/a	n/a	n/a	n/a	n/a	n/a
2745452	PROB	n/a	LTP063	ltpFR	8	n/a	n/a	n/a	n/a	n/a	n/a	20	7	9	4	n/a	n/a	n/a	n/a	n/a
2748756	PROB	n/a	LTP063	ltpFR	8	n/a	n/a	n/a	n/a	n/a	n/a	15	7	2	6	n/a	n/a	n/a	n/a	n/a
2751711	PROB	n/a	LTP063	ltpFR	8	n/a	n/a	n/a	n/a	n/a	n/a	19	6	7	5	n/a	n/a	n/a	n/a	n/a
2754234	PROB	n/a	LTP063	ltpFR	8	n/a	n/a	n/a	n/a	n/a	n/a	15	8	5	2	n/a	n/a	n/a	n/a	n/a
2760339	STOP	n/a	LTP063	ltpFR	8	n/a	n/a	n/a	n/a	n/a	n/a	n/a	n/a	n/a	n/a	n/a	n/a	n/a	n/a	n/a
2761491	WORD	wordpools/wasnorm_wordpool.txt	LTP063	ltpFR	8	11	1	GROUND	666	n/a	0	n/a	0	0	0	0	0.5869140625	0.422607421875	lower	../fonts/zerothre.ttf
2764497	START	n/a	LTP063	ltpFR	8	n/a	n/a	n/a	n/a	n/a	n/a	n/a	n/a	n/a	n/a	n/a	n/a	n/a	n/a	n/a
2765595	PROB	n/a	LTP063	ltpFR	8	n/a	n/a	n/a	n/a	n/a	n/a	8	2	1	5	n/a	n/a	n/a	n/a	n/a
2768075	PROB	n/a	LTP063	ltpFR	8	n/a	n/a	n/a	n/a	n/a	n/a	14	3	5	6	n/a	n/a	n/a	n/a	n/a
2772986	PROB	n/a	LTP063	ltpFR	8	n/a	n/a	n/a	n/a	n/a	n/a	13	5	4	4	n/a	n/a	n/a	n/a	n/a
2780497	STOP	n/a	LTP063	ltpFR	8	n/a	n/a	n/a	n/a	n/a	n/a	n/a	n/a	n/a	n/a	n/a	n/a	n/a	n/a	n/a
2781369	WORD	wordpools/wasnorm_wordpool.txt	LTP063	ltpFR	8	11	1	RATTLE	1170	n/a	0	n/a	0	0	0	0	0.5869140625	0.422607421875	lower	../fonts/zerothre.ttf
2784375	START	n/a	LTP063	ltpFR	8	n/a	n/a	n/a	n/a	n/a	n/a	n/a	n/a	n/a	n/a	n/a	n/a	n/a	n/a	n/a
2785513	PROB	n/a	LTP063	ltpFR	8	n/a	n/a	n/a	n/a	n/a	n/a	7	5	1	1	n/a	n/a	n/a	n/a	n/a
2787187	PROB	n/a	LTP063	ltpFR	8	n/a	n/a	n/a	n/a	n/a	n/a	11	5	4	2	n/a	n/a	n/a	n/a	n/a
2790524	PROB	n/a	LTP063	ltpFR	8	n/a	n/a	n/a	n/a	n/a	n/a	12	2	5	5	n/a	n/a	n/a	n/a	n/a
2791881	PROB	n/a	LTP063	ltpFR	8	n/a	n/a	n/a	n/a	n/a	n/a	14	7	5	2	n/a	n/a	n/a	n/a	n/a
2793970	PROB	n/a	LTP063	ltpFR	8	n/a	n/a	n/a	n/a	n/a	n/a	24	8	9	7	n/a	n/a	n/a	n/a	n/a
2799754	STOP	n/a	LTP063	ltpFR	8	n/a	n/a	n/a	n/a	n/a	n/a	n/a	n/a	n/a	n/a	n/a	n/a	n/a	n/a	n/a
2801553	WORD	wordpools/wasnorm_wordpool.txt	LTP063	ltpFR	8	11	1	APE	31	n/a	1	n/a	0	0	0	0	0.5869140625	0.422607421875	lower	../fonts/zerothre.ttf
2804558	START	n/a	LTP063	ltpFR	8	n/a	n/a	n/a	n/a	n/a	n/a	n/a	n/a	n/a	n/a	n/a	n/a	n/a	n/a	n/a
2805408	PROB	n/a	LTP063	ltpFR	8	n/a	n/a	n/a	n/a	n/a	n/a	16	6	7	3	n/a	n/a	n/a	n/a	n/a
2806964	PROB	n/a	LTP063	ltpFR	8	n/a	n/a	n/a	n/a	n/a	n/a	12	4	2	6	n/a	n/a	n/a	n/a	n/a
2809128	PROB	n/a	LTP063	ltpFR	8	n/a	n/a	n/a	n/a	n/a	n/a	20	8	7	5	n/a	n/a	n/a	n/a	n/a
2814223	PROB	n/a	LTP063	ltpFR	8	n/a	n/a	n/a	n/a	n/a	n/a	11	4	6	1	n/a	n/a	n/a	n/a	n/a
2815703	PROB	n/a	LTP063	ltpFR	8	n/a	n/a	n/a	n/a	n/a	n/a	8	1	3	4	n/a	n/a	n/a	n/a	n/a
2817676	PROB	n/a	LTP063	ltpFR	8	n/a	n/a	n/a	n/a	n/a	n/a	12	5	6	1	n/a	n/a	n/a	n/a	n/a
2819498	STOP	n/a	LTP063	ltpFR	8	n/a	n/a	n/a	n/a	n/a	n/a	n/a	n/a	n/a	n/a	n/a	n/a	n/a	n/a	n/a
2821647	WORD	wordpools/wasnorm_wordpool.txt	LTP063	ltpFR	8	11	1	BANANA	77	n/a	1	n/a	0	0	0	0	0.5869140625	0.422607421875	lower	../fonts/zerothre.ttf
2824652	START	n/a	LTP063	ltpFR	8	n/a	n/a	n/a	n/a	n/a	n/a	n/a	n/a	n/a	n/a	n/a	n/a	n/a	n/a	n/a
2825542	PROB	n/a	LTP063	ltpFR	8	n/a	n/a	n/a	n/a	n/a	n/a	21	9	8	4	n/a	n/a	n/a	n/a	n/a
2827523	PROB	n/a	LTP063	ltpFR	8	n/a	n/a	n/a	n/a	n/a	n/a	18	8	7	3	n/a	n/a	n/a	n/a	n/a
2828938	PROB	n/a	LTP063	ltpFR	8	n/a	n/a	n/a	n/a	n/a	n/a	12	1	4	7	n/a	n/a	n/a	n/a	n/a
2831568	PROB	n/a	LTP063	ltpFR	8	n/a	n/a	n/a	n/a	n/a	n/a	22	8	8	6	n/a	n/a	n/a	n/a	n/a
2833367	PROB	n/a	LTP063	ltpFR	8	n/a	n/a	n/a	n/a	n/a	n/a	18	8	4	6	n/a	n/a	n/a	n/a	n/a
2835522	PROB	n/a	LTP063	ltpFR	8	n/a	n/a	n/a	n/a	n/a	n/a	9	6	1	2	n/a	n/a	n/a	n/a	n/a
2840650	STOP	n/a	LTP063	ltpFR	8	n/a	n/a	n/a	n/a	n/a	n/a	n/a	n/a	n/a	n/a	n/a	n/a	n/a	n/a	n/a
2841848	WORD	wordpools/wasnorm_wordpool.txt	LTP063	ltpFR	8	11	1	CARNIVAL	245	n/a	0	n/a	0	0	0	0	0.5869140625	0.422607421875	lower	../fonts/zerothre.ttf
2844853	START	n/a	LTP063	ltpFR	8	n/a	n/a	n/a	n/a	n/a	n/a	n/a	n/a	n/a	n/a	n/a	n/a	n/a	n/a	n/a
2845985	PROB	n/a	LTP063	ltpFR	8	n/a	n/a	n/a	n/a	n/a	n/a	17	9	7	1	n/a	n/a	n/a	n/a	n/a
2848798	PROB	n/a	LTP063	ltpFR	8	n/a	n/a	n/a	n/a	n/a	n/a	13	5	6	2	n/a	n/a	n/a	n/a	n/a
2850963	PROB	n/a	LTP063	ltpFR	8	n/a	n/a	n/a	n/a	n/a	n/a	17	5	9	3	n/a	n/a	n/a	n/a	n/a
2854725	PROB	n/a	LTP063	ltpFR	8	n/a	n/a	n/a	n/a	n/a	n/a	16	6	6	4	n/a	n/a	n/a	n/a	n/a
2856332	PROB	n/a	LTP063	ltpFR	8	n/a	n/a	n/a	n/a	n/a	n/a	15	1	5	9	n/a	n/a	n/a	n/a	n/a
2858054	PROB	n/a	LTP063	ltpFR	8	n/a	n/a	n/a	n/a	n/a	n/a	14	1	7	6	n/a	n/a	n/a	n/a	n/a
2860331	STOP	n/a	LTP063	ltpFR	8	n/a	n/a	n/a	n/a	n/a	n/a	n/a	n/a	n/a	n/a	n/a	n/a	n/a	n/a	n/a
2861783	WORD	wordpools/wasnorm_wordpool.txt	LTP063	ltpFR	8	11	1	CACTUS	215	n/a	1	n/a	0	0	0	0	0.5869140625	0.422607421875	lower	../fonts/zerothre.ttf
2864789	START	n/a	LTP063	ltpFR	8	n/a	n/a	n/a	n/a	n/a	n/a	n/a	n/a	n/a	n/a	n/a	n/a	n/a	n/a	n/a
2865978	PROB	n/a	LTP063	ltpFR	8	n/a	n/a	n/a	n/a	n/a	n/a	17	4	5	8	n/a	n/a	n/a	n/a	n/a
2869990	PROB	n/a	LTP063	ltpFR	8	n/a	n/a	n/a	n/a	n/a	n/a	9	2	4	3	n/a	n/a	n/a	n/a	n/a
2871863	PROB	n/a	LTP063	ltpFR	8	n/a	n/a	n/a	n/a	n/a	n/a	22	6	8	8	n/a	n/a	n/a	n/a	n/a
2875335	PROB	n/a	LTP063	ltpFR	8	n/a	n/a	n/a	n/a	n/a	n/a	12	4	2	6	n/a	n/a	n/a	n/a	n/a
2877507	PROB	n/a	LTP063	ltpFR	8	n/a	n/a	n/a	n/a	n/a	n/a	14	1	9	4	n/a	n/a	n/a	n/a	n/a
2880788	STOP	n/a	LTP063	ltpFR	8	n/a	n/a	n/a	n/a	n/a	n/a	n/a	n/a	n/a	n/a	n/a	n/a	n/a	n/a	n/a
2881810	WORD	wordpools/wasnorm_wordpool.txt	LTP063	ltpFR	8	11	1	SERPENT	1270	n/a	1	n/a	0	0	0	0	0.5869140625	0.422607421875	lower	../fonts/zerothre.ttf
2884815	START	n/a	LTP063	ltpFR	8	n/a	n/a	n/a	n/a	n/a	n/a	n/a	n/a	n/a	n/a	n/a	n/a	n/a	n/a	n/a
2885864	PROB	n/a	LTP063	ltpFR	8	n/a	n/a	n/a	n/a	n/a	n/a	12	2	5	5	n/a	n/a	n/a	n/a	n/a
2887230	PROB	n/a	LTP063	ltpFR	8	n/a	n/a	n/a	n/a	n/a	n/a	13	9	1	3	n/a	n/a	n/a	n/a	n/a
2888569	PROB	n/a	LTP063	ltpFR	8	n/a	n/a	n/a	n/a	n/a	n/a	14	5	4	5	n/a	n/a	n/a	n/a	n/a
2890492	PROB	n/a	LTP063	ltpFR	8	n/a	n/a	n/a	n/a	n/a	n/a	12	1	9	2	n/a	n/a	n/a	n/a	n/a
2891882	PROB	n/a	LTP063	ltpFR	8	n/a	n/a	n/a	n/a	n/a	n/a	16	4	9	3	n/a	n/a	n/a	n/a	n/a
2894845	PROB	n/a	LTP063	ltpFR	8	n/a	n/a	n/a	n/a	n/a	n/a	14	4	5	5	n/a	n/a	n/a	n/a	n/a
2896294	PROB	n/a	LTP063	ltpFR	8	n/a	n/a	n/a	n/a	n/a	n/a	17	3	6	8	n/a	n/a	n/a	n/a	n/a
2900815	STOP	n/a	LTP063	ltpFR	8	n/a	n/a	n/a	n/a	n/a	n/a	n/a	n/a	n/a	n/a	n/a	n/a	n/a	n/a	n/a
2901804	WORD	wordpools/wasnorm_wordpool.txt	LTP063	ltpFR	8	11	1	BRACELET	163	n/a	0	n/a	0	0	0	0	0.5869140625	0.422607421875	lower	../fonts/zerothre.ttf
2904809	START	n/a	LTP063	ltpFR	8	n/a	n/a	n/a	n/a	n/a	n/a	n/a	n/a	n/a	n/a	n/a	n/a	n/a	n/a	n/a
2905774	PROB	n/a	LTP063	ltpFR	8	n/a	n/a	n/a	n/a	n/a	n/a	13	4	1	8	n/a	n/a	n/a	n/a	n/a
2908113	PROB	n/a	LTP063	ltpFR	8	n/a	n/a	n/a	n/a	n/a	n/a	14	9	2	3	n/a	n/a	n/a	n/a	n/a
2910144	PROB	n/a	LTP063	ltpFR	8	n/a	n/a	n/a	n/a	n/a	n/a	24	6	9	9	n/a	n/a	n/a	n/a	n/a
2912832	PROB	n/a	LTP063	ltpFR	8	n/a	n/a	n/a	n/a	n/a	n/a	18	3	8	7	n/a	n/a	n/a	n/a	n/a
2914514	PROB	n/a	LTP063	ltpFR	8	n/a	n/a	n/a	n/a	n/a	n/a	10	1	4	5	n/a	n/a	n/a	n/a	n/a
2916536	PROB	n/a	LTP063	ltpFR	8	n/a	n/a	n/a	n/a	n/a	n/a	16	4	5	7	n/a	n/a	n/a	n/a	n/a
2920809	STOP	n/a	LTP063	ltpFR	8	n/a	n/a	n/a	n/a	n/a	n/a	n/a	n/a	n/a	n/a	n/a	n/a	n/a	n/a	n/a
2921839	WORD	wordpools/wasnorm_wordpool.txt	LTP063	ltpFR	8	11	1	APPENDAGE	32	n/a	1	n/a	0	0	0	0	0.5869140625	0.422607421875	lower	../fonts/zerothre.ttf
2924844	START	n/a	LTP063	ltpFR	8	n/a	n/a	n/a	n/a	n/a	n/a	n/a	n/a	n/a	n/a	n/a	n/a	n/a	n/a	n/a
2925826	PROB	n/a	LTP063	ltpFR	8	n/a	n/a	n/a	n/a	n/a	n/a	24	9	6	9	n/a	n/a	n/a	n/a	n/a
2927798	PROB	n/a	LTP063	ltpFR	8	n/a	n/a	n/a	n/a	n/a	n/a	21	7	7	7	n/a	n/a	n/a	n/a	n/a
2929638	PROB	n/a	LTP063	ltpFR	8	n/a	n/a	n/a	n/a	n/a	n/a	12	7	3	2	n/a	n/a	n/a	n/a	n/a
2931337	PROB	n/a	LTP063	ltpFR	8	n/a	n/a	n/a	n/a	n/a	n/a	12	9	1	2	n/a	n/a	n/a	n/a	n/a
2932784	PROB	n/a	LTP063	ltpFR	8	n/a	n/a	n/a	n/a	n/a	n/a	17	5	8	4	n/a	n/a	n/a	n/a	n/a
2935481	PROB	n/a	LTP063	ltpFR	8	n/a	n/a	n/a	n/a	n/a	n/a	11	7	1	3	n/a	n/a	n/a	n/a	n/a
2940843	STOP	n/a	LTP063	ltpFR	8	n/a	n/a	n/a	n/a	n/a	n/a	n/a	n/a	n/a	n/a	n/a	n/a	n/a	n/a	n/a
2942623	REC_START	n/a	LTP063	ltpFR	8	11	n/a	n/a	n/a	n/a	n/a	n/a	0	0	0	n/a	n/a	n/a	n/a	n/a
2943735	REC_WORD	wordpools/wasnorm_wordpool.txt	LTP063	ltpFR	8	11	1	APPENDAGE	32	n/a	1	n/a	0	0	0	n/a	n/a	n/a	n/a	n/a
2945611	REC_WORD	wordpools/wasnorm_wordpool.txt	LTP063	ltpFR	8	11	1	SERPENT	1270	n/a	1	n/a	0	0	0	n/a	n/a	n/a	n/a	n/a
2950175	REC_WORD	wordpools/wasnorm_wordpool.txt	LTP063	ltpFR	8	11	1	MIRROR	899	n/a	0	n/a	0	0	0	n/a	n/a	n/a	n/a	n/a
2952086	REC_WORD	wordpools/wasnorm_wordpool.txt	LTP063	ltpFR	8	11	1	RAZOR	1171	n/a	0	n/a	0	0	0	n/a	n/a	n/a	n/a	n/a
2953398	REC_WORD	wordpools/wasnorm_wordpool.txt	LTP063	ltpFR	8	11	1	PARTY	1018	n/a	0	n/a	0	0	0	n/a	n/a	n/a	n/a	n/a
2954905	REC_WORD	wordpools/wasnorm_wordpool.txt	LTP063	ltpFR	8	11	1	CARNIVAL	245	n/a	0	n/a	0	0	0	n/a	n/a	n/a	n/a	n/a
2975668	REC_WORD	wordpools/wasnorm_wordpool.txt	LTP063	ltpFR	8	11	1	PEN	1041	n/a	0	n/a	0	0	0	n/a	n/a	n/a	n/a	n/a
2978451	REC_WORD	wordpools/wasnorm_wordpool.txt	LTP063	ltpFR	8	11	1	HOSTAGE	722	n/a	1	n/a	0	0	0	n/a	n/a	n/a	n/a	n/a
3021007	WORD	wordpools/wasnorm_wordpool.txt	LTP063	ltpFR	8	12	1	ROOSTER	1209	n/a	1	n/a	0	0	0	0	0.5869140625	0.422607421875	lower	../fonts/zerothre.ttf
3024919	WORD	wordpools/wasnorm_wordpool.txt	LTP063	ltpFR	8	12	1	VIKING	1565	n/a	1	n/a	0	0	0	0	0.5869140625	0.422607421875	lower	../fonts/zerothre.ttf
3028848	WORD	wordpools/wasnorm_wordpool.txt	LTP063	ltpFR	8	12	1	PERISCOPE	1050	n/a	0	n/a	0	0	0	0	0.5869140625	0.422607421875	lower	../fonts/zerothre.ttf
3032885	WORD	wordpools/wasnorm_wordpool.txt	LTP063	ltpFR	8	12	1	GENTLEMAN	631	n/a	1	n/a	0	0	0	0	0.5869140625	0.422607421875	lower	../fonts/zerothre.ttf
3036830	WORD	wordpools/wasnorm_wordpool.txt	LTP063	ltpFR	8	12	1	COOLER	375	n/a	1	n/a	0	0	0	0	0.5869140625	0.422607421875	lower	../fonts/zerothre.ttf
3040959	WORD	wordpools/wasnorm_wordpool.txt	LTP063	ltpFR	8	12	1	HANDKERCHIEF	686	n/a	0	n/a	0	0	0	0	0.5869140625	0.422607421875	lower	../fonts/zerothre.ttf
3045146	WORD	wordpools/wasnorm_wordpool.txt	LTP063	ltpFR	8	12	1	RUST	1219	n/a	0	n/a	0	0	0	0	0.5869140625	0.422607421875	lower	../fonts/zerothre.ttf
3048974	WORD	wordpools/wasnorm_wordpool.txt	LTP063	ltpFR	8	12	1	DRYER	503	n/a	0	n/a	0	0	0	0	0.5869140625	0.422607421875	lower	../fonts/zerothre.ttf
3053111	WORD	wordpools/wasnorm_wordpool.txt	LTP063	ltpFR	8	12	1	CLOSET	326	n/a	0	n/a	0	0	0	0	0.5869140625	0.422607421875	lower	../fonts/zerothre.ttf
3057065	WORD	wordpools/wasnorm_wordpool.txt	LTP063	ltpFR	8	12	1	FOE	587	n/a	1	n/a	0	0	0	0	0.5869140625	0.422607421875	lower	../fonts/zerothre.ttf
3061186	WORD	wordpools/wasnorm_wordpool.txt	LTP063	ltpFR	8	12	1	SPHINX	1349	n/a	0	n/a	0	0	0	0	0.5869140625	0.422607421875	lower	../fonts/zerothre.ttf
3065157	WORD	wordpools/wasnorm_wordpool.txt	LTP063	ltpFR	8	12	1	BEARD	107	n/a	0	n/a	0	0	0	0	0.5869140625	0.422607421875	lower	../fonts/zerothre.ttf
3069076	WORD	wordpools/wasnorm_wordpool.txt	LTP063	ltpFR	8	12	1	TORTOISE	1486	n/a	1	n/a	0	0	0	0	0.5869140625	0.422607421875	lower	../fonts/zerothre.ttf
3073088	WORD	wordpools/wasnorm_wordpool.txt	LTP063	ltpFR	8	12	1	HARE	688	n/a	1	n/a	0	0	0	0	0.5869140625	0.422607421875	lower	../fonts/zerothre.ttf
3077117	WORD	wordpools/wasnorm_wordpool.txt	LTP063	ltpFR	8	12	1	TRUCK	1512	n/a	0	n/a	0	0	0	0	0.5869140625	0.422607421875	lower	../fonts/zerothre.ttf
3081238	WORD	wordpools/wasnorm_wordpool.txt	LTP063	ltpFR	8	12	1	PARTNER	1017	n/a	1	n/a	0	0	0	0	0.5869140625	0.422607421875	lower	../fonts/zerothre.ttf
3084243	START	n/a	LTP063	ltpFR	8	n/a	n/a	n/a	n/a	n/a	n/a	n/a	n/a	n/a	n/a	n/a	n/a	n/a	n/a	n/a
3085233	PROB	n/a	LTP063	ltpFR	8	n/a	n/a	n/a	n/a	n/a	n/a	19	8	8	3	n/a	n/a	n/a	n/a	n/a
3087963	PROB	n/a	LTP063	ltpFR	8	n/a	n/a	n/a	n/a	n/a	n/a	11	4	1	6	n/a	n/a	n/a	n/a	n/a
3089444	PROB	n/a	LTP063	ltpFR	8	n/a	n/a	n/a	n/a	n/a	n/a	9	3	2	4	n/a	n/a	n/a	n/a	n/a
3091508	PROB	n/a	LTP063	ltpFR	8	n/a	n/a	n/a	n/a	n/a	n/a	19	8	5	6	n/a	n/a	n/a	n/a	n/a
3095363	PROB	n/a	LTP063	ltpFR	8	n/a	n/a	n/a	n/a	n/a	n/a	14	5	8	1	n/a	n/a	n/a	n/a	n/a
3097701	PROB	n/a	LTP063	ltpFR	8	n/a	n/a	n/a	n/a	n/a	n/a	16	8	1	7	n/a	n/a	n/a	n/a	n/a
3099323	STOP	n/a	LTP063	ltpFR	8	n/a	n/a	n/a	n/a	n/a	n/a	n/a	n/a	n/a	n/a	n/a	n/a	n/a	n/a	n/a
3102164	REC_START	n/a	LTP063	ltpFR	8	12	n/a	n/a	n/a	n/a	n/a	n/a	0	0	0	n/a	n/a	n/a	n/a	n/a
3103810	REC_WORD	wordpools/wasnorm_wordpool.txt	LTP063	ltpFR	8	12	1	VIKING	1565	n/a	1	n/a	0	0	0	n/a	n/a	n/a	n/a	n/a
3104753	REC_WORD	wordpools/wasnorm_wordpool.txt	LTP063	ltpFR	8	12	1	GENTLEMAN	631	n/a	1	n/a	0	0	0	n/a	n/a	n/a	n/a	n/a
3105950	REC_WORD	wordpools/wasnorm_wordpool.txt	LTP063	ltpFR	8	12	1	FOE	587	n/a	1	n/a	0	0	0	n/a	n/a	n/a	n/a	n/a
3107267	REC_WORD	wordpools/wasnorm_wordpool.txt	LTP063	ltpFR	8	12	1	BEARD	107	n/a	0	n/a	0	0	0	n/a	n/a	n/a	n/a	n/a
3108425	REC_WORD	wordpools/wasnorm_wordpool.txt	LTP063	ltpFR	8	12	1	PERISCOPE	1050	n/a	0	n/a	0	0	0	n/a	n/a	n/a	n/a	n/a
3109662	REC_WORD	wordpools/wasnorm_wordpool.txt	LTP063	ltpFR	8	12	1	CLOSET	326	n/a	0	n/a	0	0	0	n/a	n/a	n/a	n/a	n/a
3114531	REC_WORD	wordpools/wasnorm_wordpool.txt	LTP063	ltpFR	8	12	1	RUST	1219	n/a	0	n/a	0	0	0	n/a	n/a	n/a	n/a	n/a
3117259	REC_WORD	wordpools/wasnorm_wordpool.txt	LTP063	ltpFR	8	12	n/a	PARROT	1015	n/a	n/a	n/a	0	0	0	n/a	n/a	n/a	n/a	n/a
3118512	REC_WORD	wordpools/wasnorm_wordpool.txt	LTP063	ltpFR	8	12	1	HARE	688	n/a	1	n/a	0	0	0	n/a	n/a	n/a	n/a	n/a
3119833	REC_WORD	wordpools/wasnorm_wordpool.txt	LTP063	ltpFR	8	12	1	TORTOISE	1486	n/a	1	n/a	0	0	0	n/a	n/a	n/a	n/a	n/a
3134705	REC_WORD	wordpools/wasnorm_wordpool.txt	LTP063	ltpFR	8	12	1	COOLER	375	n/a	1	n/a	0	0	0	n/a	n/a	n/a	n/a	n/a
3135887	REC_WORD	wordpools/wasnorm_wordpool.txt	LTP063	ltpFR	8	12	1	DRYER	503	n/a	0	n/a	0	0	0	n/a	n/a	n/a	n/a	n/a
3190370	REC_START	n/a	LTP063	ltpFR	8	n/a	n/a	n/a	n/a	n/a	n/a	n/a	0	0	0	n/a	n/a	n/a	n/a	n/a
3192056	FFR_REC_WORD	wordpools/wasnorm_wordpool.txt	LTP063	ltpFR	8	n/a	1	GENTLEMAN	631	n/a	1	n/a	0	0	0	n/a	n/a	n/a	n/a	n/a
3193288	FFR_REC_WORD	wordpools/wasnorm_wordpool.txt	LTP063	ltpFR	8	n/a	1	VIKING	1565	n/a	1	n/a	0	0	0	n/a	n/a	n/a	n/a	n/a
3196845	FFR_REC_WORD	wordpools/wasnorm_wordpool.txt	LTP063	ltpFR	8	n/a	0	UMPIRE	1535	n/a	1	n/a	0	0	0	n/a	n/a	n/a	n/a	n/a
3200446	FFR_REC_WORD	wordpools/wasnorm_wordpool.txt	LTP063	ltpFR	8	n/a	0	SKUNK	1321	n/a	0	n/a	0	0	0	n/a	n/a	n/a	n/a	n/a
3202512	FFR_REC_WORD	wordpools/wasnorm_wordpool.txt	LTP063	ltpFR	8	n/a	1	TORTOISE	1486	n/a	1	n/a	0	0	0	n/a	n/a	n/a	n/a	n/a
3203794	FFR_REC_WORD	wordpools/wasnorm_wordpool.txt	LTP063	ltpFR	8	n/a	1	HARE	688	n/a	1	n/a	0	0	0	n/a	n/a	n/a	n/a	n/a
3209696	FFR_REC_WORD	wordpools/wasnorm_wordpool.txt	LTP063	ltpFR	8	n/a	1	CLOSET	326	n/a	0	n/a	0	0	0	n/a	n/a	n/a	n/a	n/a
3210674	FFR_REC_WORD	wordpools/wasnorm_wordpool.txt	LTP063	ltpFR	8	n/a	1	DRYER	503	n/a	0	n/a	0	0	0	n/a	n/a	n/a	n/a	n/a
3212809	FFR_REC_WORD	wordpools/wasnorm_wordpool.txt	LTP063	ltpFR	8	n/a	0	BUREAU	199	n/a	1	n/a	0	0	0	n/a	n/a	n/a	n/a	n/a
3214749	FFR_REC_WORD	wordpools/wasnorm_wordpool.txt	LTP063	ltpFR	8	n/a	0	WARDROBE	1587	n/a	1	n/a	0	0	0	n/a	n/a	n/a	n/a	n/a
3220950	FFR_REC_WORD	wordpools/wasnorm_wordpool.txt	LTP063	ltpFR	8	n/a	0	CORPORATION	382	n/a	1	n/a	0	0	0	n/a	n/a	n/a	n/a	n/a
3221950	FFR_REC_WORD_VV	wordpools/wasnorm_wordpool.txt	LTP063	ltpFR	8	n/a	n/a	<>	-1	n/a	n/a	n/a	0	0	0	n/a	n/a	n/a	n/a	n/a
3224148	FFR_REC_WORD	wordpools/wasnorm_wordpool.txt	LTP063	ltpFR	8	n/a	1	COOLER	375	n/a	1	n/a	0	0	0	n/a	n/a	n/a	n/a	n/a
3229545	FFR_REC_WORD	wordpools/wasnorm_wordpool.txt	LTP063	ltpFR	8	n/a	0	SKUNK	1321	n/a	0	n/a	0	0	0	n/a	n/a	n/a	n/a	n/a
3232464	FFR_REC_WORD	wordpools/wasnorm_wordpool.txt	LTP063	ltpFR	8	n/a	1	APPENDAGE	32	n/a	1	n/a	0	0	0	n/a	n/a	n/a	n/a	n/a
3233464	FFR_REC_WORD_VV	wordpools/wasnorm_wordpool.txt	LTP063	ltpFR	8	n/a	n/a	<>	-1	n/a	n/a	n/a	0	0	0	n/a	n/a	n/a	n/a	n/a
3237298	FFR_REC_WORD	wordpools/wasnorm_wordpool.txt	LTP063	ltpFR	8	n/a	0	CALF	222	n/a	1	n/a	0	0	0	n/a	n/a	n/a	n/a	n/a
3238685	FFR_REC_WORD	wordpools/wasnorm_wordpool.txt	LTP063	ltpFR	8	n/a	1	BISON	131	n/a	1	n/a	0	0	0	n/a	n/a	n/a	n/a	n/a
3243748	FFR_REC_WORD	wordpools/wasnorm_wordpool.txt	LTP063	ltpFR	8	n/a	n/a	CATTLE	261	n/a	n/a	n/a	0	0	0	n/a	n/a	n/a	n/a	n/a
3248473	FFR_REC_WORD	wordpools/wasnorm_wordpool.txt	LTP063	ltpFR	8	n/a	1	PERISCOPE	1050	n/a	0	n/a	0	0	0	n/a	n/a	n/a	n/a	n/a
3250229	FFR_REC_WORD	wordpools/wasnorm_wordpool.txt	LTP063	ltpFR	8	n/a	1	RUST	1219	n/a	0	n/a	0	0	0	n/a	n/a	n/a	n/a	n/a
3253865	FFR_REC_WORD	wordpools/wasnorm_wordpool.txt	LTP063	ltpFR	8	n/a	0	HATCHET	691	n/a	0	n/a	0	0	0	n/a	n/a	n/a	n/a	n/a
3260555	FFR_REC_WORD	wordpools/wasnorm_wordpool.txt	LTP063	ltpFR	8	n/a	0	SHIRT	1287	n/a	1	n/a	0	0	0	n/a	n/a	n/a	n/a	n/a
3274254	FFR_REC_WORD	wordpools/wasnorm_wordpool.txt	LTP063	ltpFR	8	n/a	1	PIANO	1057	n/a	1	n/a	0	0	0	n/a	n/a	n/a	n/a	n/a
3275571	FFR_REC_WORD	wordpools/wasnorm_wordpool.txt	LTP063	ltpFR	8	n/a	0	VIOLA	1570	n/a	0	n/a	0	0	0	n/a	n/a	n/a	n/a	n/a
3284735	FFR_REC_WORD	wordpools/wasnorm_wordpool.txt	LTP063	ltpFR	8	n/a	1	FOE	587	n/a	1	n/a	0	0	0	n/a	n/a	n/a	n/a	n/a
3300714	FFR_REC_WORD	wordpools/wasnorm_wordpool.txt	LTP063	ltpFR	8	n/a	0	ELF	525	n/a	0	n/a	0	0	0	n/a	n/a	n/a	n/a	n/a
3307219	FFR_REC_WORD	wordpools/wasnorm_wordpool.txt	LTP063	ltpFR	8	n/a	1	DUNE	506	n/a	0	n/a	0	0	0	n/a	n/a	n/a	n/a	n/a
3308546	FFR_REC_WORD	wordpools/wasnorm_wordpool.txt	LTP063	ltpFR	8	n/a	1	CONSOLE	364	n/a	0	n/a	0	0	0	n/a	n/a	n/a	n/a	n/a
3309917	FFR_REC_WORD	wordpools/wasnorm_wordpool.txt	LTP063	ltpFR	8	n/a	n/a	SUNSET	1408	n/a	n/a	n/a	0	0	0	n/a	n/a	n/a	n/a	n/a
3310917	FFR_REC_WORD_VV	wordpools/wasnorm_wordpool.txt	LTP063	ltpFR	8	n/a	n/a	<>	-1	n/a	n/a	n/a	0	0	0	n/a	n/a	n/a	n/a	n/a
3318603	FFR_REC_WORD	wordpools/wasnorm_wordpool.txt	LTP063	ltpFR	8	n/a	1	FEAST	556	n/a	0	n/a	0	0	0	n/a	n/a	n/a	n/a	n/a
3330112	FFR_REC_WORD	wordpools/wasnorm_wordpool.txt	LTP063	ltpFR	8	n/a	1	HORIZON	717	n/a	0	n/a	0	0	0	n/a	n/a	n/a	n/a	n/a
3338159	FFR_REC_WORD	wordpools/wasnorm_wordpool.txt	LTP063	ltpFR	8	n/a	1	FAN	551	n/a	1	n/a	0	0	0	n/a	n/a	n/a	n/a	n/a
3360792	FFR_REC_WORD	wordpools/wasnorm_wordpool.txt	LTP063	ltpFR	8	n/a	0	DRAWING	494	n/a	0	n/a	0	0	0	n/a	n/a	n/a	n/a	n/a
3361625	FFR_REC_WORD	wordpools/wasnorm_wordpool.txt	LTP063	ltpFR	8	n/a	0	SKETCH	1315	n/a	0	n/a	0	0	0	n/a	n/a	n/a	n/a	n/a
3371612	FFR_REC_WORD	wordpools/wasnorm_wordpool.txt	LTP063	ltpFR	8	n/a	0	SKIN	1318	n/a	1	n/a	0	0	0	n/a	n/a	n/a	n/a	n/a
3372695	FFR_REC_WORD	wordpools/wasnorm_wordpool.txt	LTP063	ltpFR	8	n/a	0	ORGAN	984	n/a	0	n/a	0	0	0	n/a	n/a	n/a	n/a	n/a
3404478	FFR_REC_WORD	wordpools/wasnorm_wordpool.txt	LTP063	ltpFR	8	n/a	0	CORPORATION	382	n/a	1	n/a	0	0	0	n/a	n/a	n/a	n/a	n/a
3409796	FFR_REC_WORD	wordpools/wasnorm_wordpool.txt	LTP063	ltpFR	8	n/a	0	KNOB	787	n/a	0	n/a	0	0	0	n/a	n/a	n/a	n/a	n/a
3411208	FFR_REC_WORD	wordpools/wasnorm_wordpool.txt	LTP063	ltpFR	8	n/a	0	PUMPKIN	1142	n/a	1	n/a	0	0	0	n/a	n/a	n/a	n/a	n/a
3412260	FFR_REC_WORD	wordpools/wasnorm_wordpool.txt	LTP063	ltpFR	8	n/a	0	VINE	1568	n/a	1	n/a	0	0	0	n/a	n/a	n/a	n/a	n/a
3413553	FFR_REC_WORD	wordpools/wasnorm_wordpool.txt	LTP063	ltpFR	8	n/a	0	SHACK	1273	n/a	1	n/a	0	0	0	n/a	n/a	n/a	n/a	n/a
3416551	FFR_REC_WORD	wordpools/wasnorm_wordpool.txt	LTP063	ltpFR	8	n/a	0	DISC	473	n/a	0	n/a	0	0	0	n/a	n/a	n/a	n/a	n/a
3417309	FFR_REC_WORD	wordpools/wasnorm_wordpool.txt	LTP063	ltpFR	8	n/a	0	DENIM	446	n/a	1	n/a	0	0	0	n/a	n/a	n/a	n/a	n/a
3417982	FFR_REC_WORD	wordpools/wasnorm_wordpool.txt	LTP063	ltpFR	8	n/a	0	SLACKS	1323	n/a	1	n/a	0	0	0	n/a	n/a	n/a	n/a	n/a
3421135	FFR_REC_WORD	wordpools/wasnorm_wordpool.txt	LTP063	ltpFR	8	n/a	0	FISH	571	n/a	0	n/a	0	0	0	n/a	n/a	n/a	n/a	n/a
3451934	FFR_REC_WORD	wordpools/wasnorm_wordpool.txt	LTP063	ltpFR	8	n/a	n/a	SPATULA	1348	n/a	n/a	n/a	0	0	0	n/a	n/a	n/a	n/a	n/a
3485424	FFR_REC_WORD	wordpools/wasnorm_wordpool.txt	LTP063	ltpFR	8	n/a	1	TROUT	1511	n/a	1	n/a	0	0	0	n/a	n/a	n/a	n/a	n/a
3509142	REC_START	n/a	LTP063	ltpFR	8	1	n/a	n/a	n/a	n/a	n/a	n/a	0	0	0	n/a	n/a	n/a	n/a	n/a
3509167	RECOG_LURE	n/a	LTP063	ltpFR	8	1	n/a	CAP	236	3	n/a	n/a	0	0	0	n/a	n/a	n/a	n/a	n/a
3510888	RECOG_RESP	n/a	LTP063	ltpFR	8	1	n/a	CAP	236	n/a	n/a	n/a	0	0	0	n/a	n/a	n/a	n/a	n/a
3512489	RECOG_CONF	n/a	LTP063	ltpFR	8	1	n/a	CAP	236	3	n/a	n/a	0	0	0	n/a	n/a	n/a	n/a	n/a
3514077	RECOG_LURE	n/a	LTP063	ltpFR	8	1	n/a	LITERATURE	831	3	n/a	n/a	0	0	0	n/a	n/a	n/a	n/a	n/a
3514749	RECOG_RESP	n/a	LTP063	ltpFR	8	1	n/a	LITERATURE	831	n/a	n/a	n/a	0	0	0	n/a	n/a	n/a	n/a	n/a
3515502	RECOG_CONF	n/a	LTP063	ltpFR	8	1	n/a	LITERATURE	831	3	n/a	n/a	0	0	0	n/a	n/a	n/a	n/a	n/a
3516965	RECOG_LURE	n/a	LTP063	ltpFR	8	1	n/a	HAMMER	680	3	n/a	n/a	0	0	0	n/a	n/a	n/a	n/a	n/a
3517717	RECOG_RESP	n/a	LTP063	ltpFR	8	1	n/a	HAMMER	680	n/a	n/a	n/a	0	0	0	n/a	n/a	n/a	n/a	n/a
3518346	RECOG_CONF	n/a	LTP063	ltpFR	8	1	n/a	HAMMER	680	3	n/a	n/a	0	0	0	n/a	n/a	n/a	n/a	n/a
3519920	RECOG_TARGET	n/a	LTP063	ltpFR	8	1	1	AIRCRAFT	11	5	0	n/a	0	0	0	n/a	n/a	n/a	n/a	n/a
3520661	RECOG_RESP	n/a	LTP063	ltpFR	8	1	1	AIRCRAFT	11	n/a	0	n/a	0	0	0	n/a	n/a	n/a	n/a	n/a
3521289	RECOG_CONF	n/a	LTP063	ltpFR	8	1	1	AIRCRAFT	11	5	0	n/a	0	0	0	n/a	n/a	n/a	n/a	n/a
3522708	RECOG_LURE	n/a	LTP063	ltpFR	8	1	n/a	SHOP	1290	4	n/a	n/a	0	0	0	n/a	n/a	n/a	n/a	n/a
3523484	RECOG_RESP	n/a	LTP063	ltpFR	8	1	n/a	SHOP	1290	n/a	n/a	n/a	0	0	0	n/a	n/a	n/a	n/a	n/a
3524103	RECOG_CONF	n/a	LTP063	ltpFR	8	1	n/a	SHOP	1290	4	n/a	n/a	0	0	0	n/a	n/a	n/a	n/a	n/a
3525497	RECOG_LURE	n/a	LTP063	ltpFR	8	1	n/a	ROBE	1198	3	n/a	n/a	0	0	0	n/a	n/a	n/a	n/a	n/a
3526248	RECOG_RESP	n/a	LTP063	ltpFR	8	1	n/a	ROBE	1198	n/a	n/a	n/a	0	0	0	n/a	n/a	n/a	n/a	n/a
3526886	RECOG_CONF	n/a	LTP063	ltpFR	8	1	n/a	ROBE	1198	3	n/a	n/a	0	0	0	n/a	n/a	n/a	n/a	n/a
3528336	RECOG_LURE	n/a	LTP063	ltpFR	8	1	n/a	HERB	704	3	n/a	n/a	0	0	0	n/a	n/a	n/a	n/a	n/a
3529391	RECOG_RESP	n/a	LTP063	ltpFR	8	1	n/a	HERB	704	n/a	n/a	n/a	0	0	0	n/a	n/a	n/a	n/a	n/a
3530099	RECOG_CONF	n/a	LTP063	ltpFR	8	1	n/a	HERB	704	3	n/a	n/a	0	0	0	n/a	n/a	n/a	n/a	n/a
3531615	RECOG_TARGET	n/a	LTP063	ltpFR	8	1	0	CYLINDER	432	5	0	n/a	0	0	0	n/a	n/a	n/a	n/a	n/a
3532324	RECOG_RESP	n/a	LTP063	ltpFR	8	1	0	CYLINDER	432	n/a	0	n/a	0	0	0	n/a	n/a	n/a	n/a	n/a
3532993	RECOG_CONF	n/a	LTP063	ltpFR	8	1	0	CYLINDER	432	5	0	n/a	0	0	0	n/a	n/a	n/a	n/a	n/a
3534421	RECOG_TARGET	n/a	LTP063	ltpFR	8	1	0	MOUNTAIN	924	5	1	n/a	0	0	0	n/a	n/a	n/a	n/a	n/a
3535103	RECOG_RESP	n/a	LTP063	ltpFR	8	1	0	MOUNTAIN	924	n/a	1	n/a	0	0	0	n/a	n/a	n/a	n/a	n/a
3535766	RECOG_CONF	n/a	LTP063	ltpFR	8	1	0	MOUNTAIN	924	5	1	n/a	0	0	0	n/a	n/a	n/a	n/a	n/a
3537217	RECOG_TARGET	n/a	LTP063	ltpFR	8	1	0	CALF	222	5	1	n/a	0	0	0	n/a	n/a	n/a	n/a	n/a
3537802	RECOG_RESP	n/a	LTP063	ltpFR	8	1	0	CALF	222	n/a	1	n/a	0	0	0	n/a	n/a	n/a	n/a	n/a
3538450	RECOG_CONF	n/a	LTP063	ltpFR	8	1	0	CALF	222	5	1	n/a	0	0	0	n/a	n/a	n/a	n/a	n/a
3539880	RECOG_LURE	n/a	LTP063	ltpFR	8	1	n/a	GORILLA	650	3	n/a	n/a	0	0	0	n/a	n/a	n/a	n/a	n/a
3541543	RECOG_RESP	n/a	LTP063	ltpFR	8	1	n/a	GORILLA	650	n/a	n/a	n/a	0	0	0	n/a	n/a	n/a	n/a	n/a
3542162	RECOG_CONF	n/a	LTP063	ltpFR	8	1	n/a	GORILLA	650	3	n/a	n/a	0	0	0	n/a	n/a	n/a	n/a	n/a
3543667	RECOG_LURE	n/a	LTP063	ltpFR	8	1	n/a	WAREHOUSE	1588	3	n/a	n/a	0	0	0	n/a	n/a	n/a	n/a	n/a
3544561	RECOG_RESP	n/a	LTP063	ltpFR	8	1	n/a	WAREHOUSE	1588	n/a	n/a	n/a	0	0	0	n/a	n/a	n/a	n/a	n/a
3545225	RECOG_CONF	n/a	LTP063	ltpFR	8	1	n/a	WAREHOUSE	1588	3	n/a	n/a	0	0	0	n/a	n/a	n/a	n/a	n/a
3546764	RECOG_LURE	n/a	LTP063	ltpFR	8	1	n/a	PHILOSOPHER	1054	2	n/a	n/a	0	0	0	n/a	n/a	n/a	n/a	n/a
3548637	RECOG_RESP	n/a	LTP063	ltpFR	8	1	n/a	PHILOSOPHER	1054	n/a	n/a	n/a	0	0	0	n/a	n/a	n/a	n/a	n/a
3550453	RECOG_CONF	n/a	LTP063	ltpFR	8	1	n/a	PHILOSOPHER	1054	2	n/a	n/a	0	0	0	n/a	n/a	n/a	n/a	n/a
3551933	RECOG_LURE	n/a	LTP063	ltpFR	8	1	n/a	ASTEROID	50	3	n/a	n/a	0	0	0	n/a	n/a	n/a	n/a	n/a
3552942	RECOG_RESP	n/a	LTP063	ltpFR	8	1	n/a	ASTEROID	50	n/a	n/a	n/a	0	0	0	n/a	n/a	n/a	n/a	n/a
3553795	RECOG_CONF	n/a	LTP063	ltpFR	8	1	n/a	ASTEROID	50	3	n/a	n/a	0	0	0	n/a	n/a	n/a	n/a	n/a
3555288	RECOG_TARGET	n/a	LTP063	ltpFR	8	1	0	SPICE	1350	4	0	n/a	0	0	0	n/a	n/a	n/a	n/a	n/a
3557078	RECOG_RESP	n/a	LTP063	ltpFR	8	1	0	SPICE	1350	n/a	0	n/a	0	0	0	n/a	n/a	n/a	n/a	n/a
3558056	RECOG_CONF	n/a	LTP063	ltpFR	8	1	0	SPICE	1350	4	0	n/a	0	0	0	n/a	n/a	n/a	n/a	n/a
3559591	RECOG_TARGET	n/a	LTP063	ltpFR	8	1	1	VIKING	1565	5	1	n/a	0	0	0	n/a	n/a	n/a	n/a	n/a
3560176	RECOG_RESP	n/a	LTP063	ltpFR	8	1	1	VIKING	1565	n/a	1	n/a	0	0	0	n/a	n/a	n/a	n/a	n/a
3560859	RECOG_CONF	n/a	LTP063	ltpFR	8	1	1	VIKING	1565	5	1	n/a	0	0	0	n/a	n/a	n/a	n/a	n/a
3562297	RECOG_LURE	n/a	LTP063	ltpFR	8	1	n/a	BEE	112	2	n/a	n/a	0	0	0	n/a	n/a	n/a	n/a	n/a
3563952	RECOG_RESP	n/a	LTP063	ltpFR	8	1	n/a	BEE	112	n/a	n/a	n/a	0	0	0	n/a	n/a	n/a	n/a	n/a
3564671	RECOG_CONF	n/a	LTP063	ltpFR	8	1	n/a	BEE	112	2	n/a	n/a	0	0	0	n/a	n/a	n/a	n/a	n/a
3566176	RECOG_TARGET	n/a	LTP063	ltpFR	8	1	1	PARTNER	1017	3	1	n/a	0	0	0	n/a	n/a	n/a	n/a	n/a
3567100	RECOG_RESP	n/a	LTP063	ltpFR	8	1	1	PARTNER	1017	n/a	1	n/a	0	0	0	n/a	n/a	n/a	n/a	n/a
3567734	RECOG_CONF	n/a	LTP063	ltpFR	8	1	1	PARTNER	1017	3	1	n/a	0	0	0	n/a	n/a	n/a	n/a	n/a
3569305	RECOG_TARGET	n/a	LTP063	ltpFR	8	1	1	ASSOCIATE	49	5	1	n/a	0	0	0	n/a	n/a	n/a	n/a	n/a
3570428	RECOG_RESP	n/a	LTP063	ltpFR	8	1	1	ASSOCIATE	49	n/a	1	n/a	0	0	0	n/a	n/a	n/a	n/a	n/a
3571076	RECOG_CONF	n/a	LTP063	ltpFR	8	1	1	ASSOCIATE	49	5	1	n/a	0	0	0	n/a	n/a	n/a	n/a	n/a
3572451	RECOG_TARGET	n/a	LTP063	ltpFR	8	1	1	PIRATE	1074	2	1	n/a	0	0	0	n/a	n/a	n/a	n/a	n/a
3573999	RECOG_RESP	n/a	LTP063	ltpFR	8	1	1	PIRATE	1074	n/a	1	n/a	0	0	0	n/a	n/a	n/a	n/a	n/a
3574618	RECOG_CONF	n/a	LTP063	ltpFR	8	1	1	PIRATE	1074	2	1	n/a	0	0	0	n/a	n/a	n/a	n/a	n/a
3577884	REC_START	n/a	LTP063	ltpFR	8	2	n/a	n/a	n/a	n/a	n/a	n/a	0	0	0	n/a	n/a	n/a	n/a	n/a
3577919	RECOG_LURE	n/a	LTP063	ltpFR	8	2	n/a	GRASSHOPPER	656	2	n/a	n/a	0	0	0	n/a	n/a	n/a	n/a	n/a
3579914	RECOG_RESP	n/a	LTP063	ltpFR	8	2	n/a	GRASSHOPPER	656	n/a	n/a	n/a	0	0	0	n/a	n/a	n/a	n/a	n/a
3580503	RECOG_CONF	n/a	LTP063	ltpFR	8	2	n/a	GRASSHOPPER	656	2	n/a	n/a	0	0	0	n/a	n/a	n/a	n/a	n/a
3582023	RECOG_TARGET	n/a	LTP063	ltpFR	8	2	1	TRUCK	1512	5	0	n/a	0	0	0	n/a	n/a	n/a	n/a	n/a
3582823	RECOG_RESP	n/a	LTP063	ltpFR	8	2	1	TRUCK	1512	n/a	0	n/a	0	0	0	n/a	n/a	n/a	n/a	n/a
3583426	RECOG_CONF	n/a	LTP063	ltpFR	8	2	1	TRUCK	1512	5	0	n/a	0	0	0	n/a	n/a	n/a	n/a	n/a
3584803	RECOG_TARGET	n/a	LTP063	ltpFR	8	2	0	DIAPER	459	5	0	n/a	0	0	0	n/a	n/a	n/a	n/a	n/a
3585492	RECOG_RESP	n/a	LTP063	ltpFR	8	2	0	DIAPER	459	n/a	0	n/a	0	0	0	n/a	n/a	n/a	n/a	n/a
3586106	RECOG_CONF	n/a	LTP063	ltpFR	8	2	0	DIAPER	459	5	0	n/a	0	0	0	n/a	n/a	n/a	n/a	n/a
3587516	RECOG_TARGET	n/a	LTP063	ltpFR	8	2	1	KNUCKLE	789	5	1	n/a	0	0	0	n/a	n/a	n/a	n/a	n/a
3588365	RECOG_RESP	n/a	LTP063	ltpFR	8	2	1	KNUCKLE	789	n/a	1	n/a	0	0	0	n/a	n/a	n/a	n/a	n/a
3589043	RECOG_CONF	n/a	LTP063	ltpFR	8	2	1	KNUCKLE	789	5	1	n/a	0	0	0	n/a	n/a	n/a	n/a	n/a
3590446	RECOG_TARGET	n/a	LTP063	ltpFR	8	2	1	LONDON	843	5	0	n/a	0	0	0	n/a	n/a	n/a	n/a	n/a
3591154	RECOG_RESP	n/a	LTP063	ltpFR	8	2	1	LONDON	843	n/a	0	n/a	0	0	0	n/a	n/a	n/a	n/a	n/a
3591837	RECOG_CONF	n/a	LTP063	ltpFR	8	2	1	LONDON	843	5	0	n/a	0	0	0	n/a	n/a	n/a	n/a	n/a
3593219	RECOG_LURE	n/a	LTP063	ltpFR	8	2	n/a	XEROX	1628	4	n/a	n/a	0	0	0	n/a	n/a	n/a	n/a	n/a
3593997	RECOG_RESP	n/a	LTP063	ltpFR	8	2	n/a	XEROX	1628	n/a	n/a	n/a	0	0	0	n/a	n/a	n/a	n/a	n/a
3594691	RECOG_CONF	n/a	LTP063	ltpFR	8	2	n/a	XEROX	1628	4	n/a	n/a	0	0	0	n/a	n/a	n/a	n/a	n/a
3596090	RECOG_TARGET	n/a	LTP063	ltpFR	8	2	1	BRACELET	163	5	0	n/a	0	0	0	n/a	n/a	n/a	n/a	n/a
3596931	RECOG_RESP	n/a	LTP063	ltpFR	8	2	1	BRACELET	163	n/a	0	n/a	0	0	0	n/a	n/a	n/a	n/a	n/a
3597493	RECOG_CONF	n/a	LTP063	ltpFR	8	2	1	BRACELET	163	5	0	n/a	0	0	0	n/a	n/a	n/a	n/a	n/a
3599020	RECOG_TARGET	n/a	LTP063	ltpFR	8	2	1	DIRT	472	5	0	n/a	0	0	0	n/a	n/a	n/a	n/a	n/a
3599704	RECOG_RESP	n/a	LTP063	ltpFR	8	2	1	DIRT	472	n/a	0	n/a	0	0	0	n/a	n/a	n/a	n/a	n/a
3600398	RECOG_CONF	n/a	LTP063	ltpFR	8	2	1	DIRT	472	5	0	n/a	0	0	0	n/a	n/a	n/a	n/a	n/a
3601817	RECOG_LURE	n/a	LTP063	ltpFR	8	2	n/a	ATHLETE	52	3	n/a	n/a	0	0	0	n/a	n/a	n/a	n/a	n/a
3603426	RECOG_RESP	n/a	LTP063	ltpFR	8	2	n/a	ATHLETE	52	n/a	n/a	n/a	0	0	0	n/a	n/a	n/a	n/a	n/a
3604269	RECOG_CONF	n/a	LTP063	ltpFR	8	2	n/a	ATHLETE	52	3	n/a	n/a	0	0	0	n/a	n/a	n/a	n/a	n/a
3605695	RECOG_TARGET	n/a	LTP063	ltpFR	8	2	0	SPRINKLE	1359	5	0	n/a	0	0	0	n/a	n/a	n/a	n/a	n/a
