mstime	trial_type	stim_file	subject	experiment	session	trial	item_name	item_num	list	answer	test_x	test_y	test_z
0	SESS_START	n/a	LTP328	ltpFR2	20	n/a	n/a	n/a	n/a	n/a	0	0	0
15479	START	n/a	LTP328	ltpFR2	20	n/a	n/a	n/a	-1	n/a	n/a	n/a	n/a
15509	PROB	n/a	LTP328	ltpFR2	20	n/a	n/a	n/a	-1	15	5	8	2
16992	PROB	n/a	LTP328	ltpFR2	20	n/a	n/a	n/a	-1	11	3	4	4
18891	PROB	n/a	LTP328	ltpFR2	20	n/a	n/a	n/a	-1	10	4	3	3
20408	PROB	n/a	LTP328	ltpFR2	20	n/a	n/a	n/a	-1	17	6	8	3
22039	PROB	n/a	LTP328	ltpFR2	20	n/a	n/a	n/a	-1	7	5	1	1
22955	PROB	n/a	LTP328	ltpFR2	20	n/a	n/a	n/a	-1	14	1	7	6
24055	PROB	n/a	LTP328	ltpFR2	20	n/a	n/a	n/a	-1	19	3	7	9
25189	PROB	n/a	LTP328	ltpFR2	20	n/a	n/a	n/a	-1	11	3	6	2
26465	STOP	n/a	LTP328	ltpFR2	20	n/a	n/a	n/a	-1	n/a	n/a	n/a	n/a
56605	WORD	wordpools/wasnorm_wordpool_576.txt	LTP328	ltpFR2	20	1	HUMAN	726	n/a	n/a	0	0	0
59238	WORD	wordpools/wasnorm_wordpool_576.txt	LTP328	ltpFR2	20	1	SWORD	1423	n/a	n/a	0	0	0
61953	WORD	wordpools/wasnorm_wordpool_576.txt	LTP328	ltpFR2	20	1	TEMPLE	1448	n/a	n/a	0	0	0
64618	WORD	wordpools/wasnorm_wordpool_576.txt	LTP328	ltpFR2	20	1	MAPLE	866	n/a	n/a	0	0	0
67234	WORD	wordpools/wasnorm_wordpool_576.txt	LTP328	ltpFR2	20	1	DUST	508	n/a	n/a	0	0	0
69666	WORD	wordpools/wasnorm_wordpool_576.txt	LTP328	ltpFR2	20	1	ATLAS	53	n/a	n/a	0	0	0
72282	WORD	wordpools/wasnorm_wordpool_576.txt	LTP328	ltpFR2	20	1	GLOBE	641	n/a	n/a	0	0	0
74813	WORD	wordpools/wasnorm_wordpool_576.txt	LTP328	ltpFR2	20	1	WORKER	1621	n/a	n/a	0	0	0
77396	WORD	wordpools/wasnorm_wordpool_576.txt	LTP328	ltpFR2	20	1	SCARECROW	1245	n/a	n/a	0	0	0
80027	WORD	wordpools/wasnorm_wordpool_576.txt	LTP328	ltpFR2	20	1	BARLEY	88	n/a	n/a	0	0	0
82742	WORD	wordpools/wasnorm_wordpool_576.txt	LTP328	ltpFR2	20	1	PASTRY	1022	n/a	n/a	0	0	0
85242	WORD	wordpools/wasnorm_wordpool_576.txt	LTP328	ltpFR2	20	1	HEART	697	n/a	n/a	0	0	0
87823	WORD	wordpools/wasnorm_wordpool_576.txt	LTP328	ltpFR2	20	1	TUNNEL	1519	n/a	n/a	0	0	0
90390	WORD	wordpools/wasnorm_wordpool_576.txt	LTP328	ltpFR2	20	1	DORM	488	n/a	n/a	0	0	0
92837	WORD	wordpools/wasnorm_wordpool_576.txt	LTP328	ltpFR2	20	1	WORLD	1622	n/a	n/a	0	0	0
95553	WORD	wordpools/wasnorm_wordpool_576.txt	LTP328	ltpFR2	20	1	HOUND	724	n/a	n/a	0	0	0
98151	WORD	wordpools/wasnorm_wordpool_576.txt	LTP328	ltpFR2	20	1	PERFUME	1049	n/a	n/a	0	0	0
100733	WORD	wordpools/wasnorm_wordpool_576.txt	LTP328	ltpFR2	20	1	MARKER	870	n/a	n/a	0	0	0
103449	WORD	wordpools/wasnorm_wordpool_576.txt	LTP328	ltpFR2	20	1	DANCER	437	n/a	n/a	0	0	0
106165	WORD	wordpools/wasnorm_wordpool_576.txt	LTP328	ltpFR2	20	1	FIREPLACE	570	n/a	n/a	0	0	0
108813	WORD	wordpools/wasnorm_wordpool_576.txt	LTP328	ltpFR2	20	1	SHELTER	1282	n/a	n/a	0	0	0
111313	WORD	wordpools/wasnorm_wordpool_576.txt	LTP328	ltpFR2	20	1	FOOTBALL	591	n/a	n/a	0	0	0
113877	WORD	wordpools/wasnorm_wordpool_576.txt	LTP328	ltpFR2	20	1	LILY	821	n/a	n/a	0	0	0
116676	WORD	wordpools/wasnorm_wordpool_576.txt	LTP328	ltpFR2	20	1	CRAYON	401	n/a	n/a	0	0	0
118293	START	n/a	LTP328	ltpFR2	20	n/a	n/a	n/a	1	n/a	n/a	n/a	n/a
119415	DISTRACTOR	n/a	LTP328	ltpFR2	20	1	n/a	n/a	n/a	n/a	0	0	0
119424	PROB	n/a	LTP328	ltpFR2	20	n/a	n/a	n/a	1	14	6	7	1
120857	PROB	n/a	LTP328	ltpFR2	20	n/a	n/a	n/a	1	11	7	3	1
121806	PROB	n/a	LTP328	ltpFR2	20	n/a	n/a	n/a	1	10	5	3	2
123056	PROB	n/a	LTP328	ltpFR2	20	n/a	n/a	n/a	1	15	4	5	6
125071	PROB	n/a	LTP328	ltpFR2	20	n/a	n/a	n/a	1	19	6	8	5
127154	PROB	n/a	LTP328	ltpFR2	20	n/a	n/a	n/a	1	17	4	5	8
128503	PROB	n/a	LTP328	ltpFR2	20	n/a	n/a	n/a	1	14	9	2	3
130002	PROB	n/a	LTP328	ltpFR2	20	n/a	n/a	n/a	1	18	5	5	8
131068	PROB	n/a	LTP328	ltpFR2	20	n/a	n/a	n/a	1	10	8	1	1
132084	PROB	n/a	LTP328	ltpFR2	20	n/a	n/a	n/a	1	15	8	3	4
133650	PROB	n/a	LTP328	ltpFR2	20	n/a	n/a	n/a	1	14	5	4	5
134833	PROB	n/a	LTP328	ltpFR2	20	n/a	n/a	n/a	1	9	5	1	3
135933	PROB	n/a	LTP328	ltpFR2	20	n/a	n/a	n/a	1	13	2	9	2
137350	PROB	n/a	LTP328	ltpFR2	20	n/a	n/a	n/a	1	9	2	1	6
138631	PROB	n/a	LTP328	ltpFR2	20	n/a	n/a	n/a	1	22	9	7	6
140747	PROB	n/a	LTP328	ltpFR2	20	n/a	n/a	n/a	1	10	8	1	1
141649	STOP	n/a	LTP328	ltpFR2	20	n/a	n/a	n/a	1	n/a	n/a	n/a	n/a
144180	REC_START	n/a	LTP328	ltpFR2	20	1	n/a	n/a	n/a	n/a	0	0	0
145332	REC_WORD	wordpools/wasnorm_wordpool_576.txt	LTP328	ltpFR2	20	1	HUMAN	726	n/a	n/a	0	0	0
145971	REC_WORD	wordpools/wasnorm_wordpool_576.txt	LTP328	ltpFR2	20	1	SWORD	1423	n/a	n/a	0	0	0
147115	REC_WORD	wordpools/wasnorm_wordpool_576.txt	LTP328	ltpFR2	20	1	TEMPLE	1448	n/a	n/a	0	0	0
147834	REC_WORD	wordpools/wasnorm_wordpool_576.txt	LTP328	ltpFR2	20	1	MAPLE	866	n/a	n/a	0	0	0
148701	REC_WORD	wordpools/wasnorm_wordpool_576.txt	LTP328	ltpFR2	20	1	DUST	508	n/a	n/a	0	0	0
149815	REC_WORD	wordpools/wasnorm_wordpool_576.txt	LTP328	ltpFR2	20	1	ATLAS	53	n/a	n/a	0	0	0
150616	REC_WORD	wordpools/wasnorm_wordpool_576.txt	LTP328	ltpFR2	20	1	GLOBE	641	n/a	n/a	0	0	0
151322	REC_WORD	wordpools/wasnorm_wordpool_576.txt	LTP328	ltpFR2	20	1	WORKER	1621	n/a	n/a	0	0	0
155706	REC_WORD	wordpools/wasnorm_wordpool_576.txt	LTP328	ltpFR2	20	1	SCARECROW	1245	n/a	n/a	0	0	0
156592	REC_WORD	wordpools/wasnorm_wordpool_576.txt	LTP328	ltpFR2	20	1	BARLEY	88	n/a	n/a	0	0	0
158890	REC_WORD	wordpools/wasnorm_wordpool_576.txt	LTP328	ltpFR2	20	1	PASTRY	1022	n/a	n/a	0	0	0
159663	REC_WORD	wordpools/wasnorm_wordpool_576.txt	LTP328	ltpFR2	20	1	TUNNEL	1519	n/a	n/a	0	0	0
162193	REC_WORD	wordpools/wasnorm_wordpool_576.txt	LTP328	ltpFR2	20	1	HOUND	724	n/a	n/a	0	0	0
163090	REC_WORD	wordpools/wasnorm_wordpool_576.txt	LTP328	ltpFR2	20	1	SHELTER	1282	n/a	n/a	0	0	0
163746	REC_WORD	wordpools/wasnorm_wordpool_576.txt	LTP328	ltpFR2	20	1	FIREPLACE	570	n/a	n/a	0	0	0
165140	REC_WORD	wordpools/wasnorm_wordpool_576.txt	LTP328	ltpFR2	20	1	FOOTBALL	591	n/a	n/a	0	0	0
165939	REC_WORD	wordpools/wasnorm_wordpool_576.txt	LTP328	ltpFR2	20	1	LILY	821	n/a	n/a	0	0	0
168362	REC_WORD	wordpools/wasnorm_wordpool_576.txt	LTP328	ltpFR2	20	1	CRAYON	401	n/a	n/a	0	0	0
169435	REC_WORD	wordpools/wasnorm_wordpool_576.txt	LTP328	ltpFR2	20	1	MARKER	870	n/a	n/a	0	0	0
188703	REC_WORD	wordpools/wasnorm_wordpool_576.txt	LTP328	ltpFR2	20	1	HEART	697	n/a	n/a	0	0	0
234650	WORD	wordpools/wasnorm_wordpool_576.txt	LTP328	ltpFR2	20	2	MISTER	901	n/a	n/a	0	0	0
237082	WORD	wordpools/wasnorm_wordpool_576.txt	LTP328	ltpFR2	20	2	ICING	732	n/a	n/a	0	0	0
239548	WORD	wordpools/wasnorm_wordpool_576.txt	LTP328	ltpFR2	20	2	SHORTCAKE	1292	n/a	n/a	0	0	0
242080	WORD	wordpools/wasnorm_wordpool_576.txt	LTP328	ltpFR2	20	2	SUMMIT	1405	n/a	n/a	0	0	0
244812	WORD	wordpools/wasnorm_wordpool_576.txt	LTP328	ltpFR2	20	2	KNAPSACK	783	n/a	n/a	0	0	0
247460	WORD	wordpools/wasnorm_wordpool_576.txt	LTP328	ltpFR2	20	2	GARBAGE	622	n/a	n/a	0	0	0
250159	WORD	wordpools/wasnorm_wordpool_576.txt	LTP328	ltpFR2	20	2	TABLET	1427	n/a	n/a	0	0	0
252708	WORD	wordpools/wasnorm_wordpool_576.txt	LTP328	ltpFR2	20	2	PAIL	1002	n/a	n/a	0	0	0
255523	WORD	wordpools/wasnorm_wordpool_576.txt	LTP328	ltpFR2	20	2	VELVET	1555	n/a	n/a	0	0	0
258022	WORD	wordpools/wasnorm_wordpool_576.txt	LTP328	ltpFR2	20	2	DRUG	501	n/a	n/a	0	0	0
260754	WORD	wordpools/wasnorm_wordpool_576.txt	LTP328	ltpFR2	20	2	BREAST	171	n/a	n/a	0	0	0
263270	WORD	wordpools/wasnorm_wordpool_576.txt	LTP328	ltpFR2	20	2	NURSE	963	n/a	n/a	0	0	0
265785	WORD	wordpools/wasnorm_wordpool_576.txt	LTP328	ltpFR2	20	2	CYCLONE	431	n/a	n/a	0	0	0
268251	WORD	wordpools/wasnorm_wordpool_576.txt	LTP328	ltpFR2	20	2	SILK	1307	n/a	n/a	0	0	0
271065	WORD	wordpools/wasnorm_wordpool_576.txt	LTP328	ltpFR2	20	2	SHELF	1280	n/a	n/a	0	0	0
273664	WORD	wordpools/wasnorm_wordpool_576.txt	LTP328	ltpFR2	20	2	NOVEL	960	n/a	n/a	0	0	0
276129	WORD	wordpools/wasnorm_wordpool_576.txt	LTP328	ltpFR2	20	2	CURTAIN	427	n/a	n/a	0	0	0
278562	WORD	wordpools/wasnorm_wordpool_576.txt	LTP328	ltpFR2	20	2	HORNET	718	n/a	n/a	0	0	0
280994	WORD	wordpools/wasnorm_wordpool_576.txt	LTP328	ltpFR2	20	2	FRANCE	601	n/a	n/a	0	0	0
283609	WORD	wordpools/wasnorm_wordpool_576.txt	LTP328	ltpFR2	20	2	COOK	372	n/a	n/a	0	0	0
286226	WORD	wordpools/wasnorm_wordpool_576.txt	LTP328	ltpFR2	20	2	CEILING	265	n/a	n/a	0	0	0
288740	WORD	wordpools/wasnorm_wordpool_576.txt	LTP328	ltpFR2	20	2	DIME	466	n/a	n/a	0	0	0
291472	WORD	wordpools/wasnorm_wordpool_576.txt	LTP328	ltpFR2	20	2	PICTURE	1061	n/a	n/a	0	0	0
294087	WORD	wordpools/wasnorm_wordpool_576.txt	LTP328	ltpFR2	20	2	COCKTAIL	338	n/a	n/a	0	0	0
295703	START	n/a	LTP328	ltpFR2	20	n/a	n/a	n/a	2	n/a	n/a	n/a	n/a
296710	DISTRACTOR	n/a	LTP328	ltpFR2	20	2	n/a	n/a	n/a	n/a	0	0	0
296719	PROB	n/a	LTP328	ltpFR2	20	n/a	n/a	n/a	2	14	4	9	1
298735	PROB	n/a	LTP328	ltpFR2	20	n/a	n/a	n/a	2	17	3	8	6
300169	PROB	n/a	LTP328	ltpFR2	20	n/a	n/a	n/a	2	16	2	8	6
301368	PROB	n/a	LTP328	ltpFR2	20	n/a	n/a	n/a	2	16	9	2	5
302916	PROB	n/a	LTP328	ltpFR2	20	n/a	n/a	n/a	2	14	6	5	3
304782	PROB	n/a	LTP328	ltpFR2	20	n/a	n/a	n/a	2	12	1	3	8
305881	PROB	n/a	LTP328	ltpFR2	20	n/a	n/a	n/a	2	17	9	7	1
306998	PROB	n/a	LTP328	ltpFR2	20	n/a	n/a	n/a	2	17	4	8	5
308513	PROB	n/a	LTP328	ltpFR2	20	n/a	n/a	n/a	2	11	1	4	6
309646	PROB	n/a	LTP328	ltpFR2	20	n/a	n/a	n/a	2	15	2	7	6
311180	PROB	n/a	LTP328	ltpFR2	20	n/a	n/a	n/a	2	13	9	3	1
312213	PROB	n/a	LTP328	ltpFR2	20	n/a	n/a	n/a	2	18	6	6	6
313544	PROB	n/a	LTP328	ltpFR2	20	n/a	n/a	n/a	2	17	9	1	7
314627	PROB	n/a	LTP328	ltpFR2	20	n/a	n/a	n/a	2	7	1	1	5
315760	PROB	n/a	LTP328	ltpFR2	20	n/a	n/a	n/a	2	10	1	1	8
316859	PROB	n/a	LTP328	ltpFR2	20	n/a	n/a	n/a	2	17	5	4	8
318897	STOP	n/a	LTP328	ltpFR2	20	n/a	n/a	n/a	2	n/a	n/a	n/a	n/a
321641	REC_START	n/a	LTP328	ltpFR2	20	2	n/a	n/a	n/a	n/a	0	0	0
323223	REC_WORD	wordpools/wasnorm_wordpool_576.txt	LTP328	ltpFR2	20	2	MISTER	901	n/a	n/a	0	0	0
323991	REC_WORD	wordpools/wasnorm_wordpool_576.txt	LTP328	ltpFR2	20	2	SHORTCAKE	1292	n/a	n/a	0	0	0
324794	REC_WORD	wordpools/wasnorm_wordpool_576.txt	LTP328	ltpFR2	20	2	ICING	732	n/a	n/a	0	0	0
326907	REC_WORD	wordpools/wasnorm_wordpool_576.txt	LTP328	ltpFR2	20	2	SUMMIT	1405	n/a	n/a	0	0	0
327932	REC_WORD	wordpools/wasnorm_wordpool_576.txt	LTP328	ltpFR2	20	2	KNAPSACK	783	n/a	n/a	0	0	0
328614	REC_WORD	wordpools/wasnorm_wordpool_576.txt	LTP328	ltpFR2	20	2	GARBAGE	622	n/a	n/a	0	0	0
331904	REC_WORD	wordpools/wasnorm_wordpool_576.txt	LTP328	ltpFR2	20	2	DRUG	501	n/a	n/a	0	0	0
332581	REC_WORD	wordpools/wasnorm_wordpool_576.txt	LTP328	ltpFR2	20	2	BREAST	171	n/a	n/a	0	0	0
333296	REC_WORD	wordpools/wasnorm_wordpool_576.txt	LTP328	ltpFR2	20	2	NURSE	963	n/a	n/a	0	0	0
337980	REC_WORD	wordpools/wasnorm_wordpool_576.txt	LTP328	ltpFR2	20	2	PAIL	1002	n/a	n/a	0	0	0
339342	REC_WORD	wordpools/wasnorm_wordpool_576.txt	LTP328	ltpFR2	20	2	VELVET	1555	n/a	n/a	0	0	0
340071	REC_WORD	wordpools/wasnorm_wordpool_576.txt	LTP328	ltpFR2	20	2	TABLET	1427	n/a	n/a	0	0	0
345016	REC_WORD	wordpools/wasnorm_wordpool_576.txt	LTP328	ltpFR2	20	2	CYCLONE	431	n/a	n/a	0	0	0
349103	REC_WORD_VV	wordpools/wasnorm_wordpool_576.txt	LTP328	ltpFR2	20	2	<>	-1	n/a	n/a	0	0	0
349972	REC_WORD	wordpools/wasnorm_wordpool_576.txt	LTP328	ltpFR2	20	2	SILK	1307	n/a	n/a	0	0	0
350640	REC_WORD	wordpools/wasnorm_wordpool_576.txt	LTP328	ltpFR2	20	2	SHELF	1280	n/a	n/a	0	0	0
351670	REC_WORD	wordpools/wasnorm_wordpool_576.txt	LTP328	ltpFR2	20	2	NOVEL	960	n/a	n/a	0	0	0
352376	REC_WORD	wordpools/wasnorm_wordpool_576.txt	LTP328	ltpFR2	20	2	CURTAIN	427	n/a	n/a	0	0	0
353395	REC_WORD	wordpools/wasnorm_wordpool_576.txt	LTP328	ltpFR2	20	2	HORNET	718	n/a	n/a	0	0	0
366448	REC_WORD	wordpools/wasnorm_wordpool_576.txt	LTP328	ltpFR2	20	2	CEILING	265	n/a	n/a	0	0	0
367133	REC_WORD	wordpools/wasnorm_wordpool_576.txt	LTP328	ltpFR2	20	2	COCKTAIL	338	n/a	n/a	0	0	0
367905	REC_WORD	wordpools/wasnorm_wordpool_576.txt	LTP328	ltpFR2	20	2	DIME	466	n/a	n/a	0	0	0
369224	REC_WORD	wordpools/wasnorm_wordpool_576.txt	LTP328	ltpFR2	20	2	PORTRAIT	1111	n/a	n/a	0	0	0
412095	DISTRACTOR	n/a	LTP328	ltpFR2	20	3	n/a	n/a	n/a	n/a	0	0	0
412096	START	n/a	LTP328	ltpFR2	20	n/a	n/a	n/a	3	n/a	n/a	n/a	n/a
412112	PROB	n/a	LTP328	ltpFR2	20	n/a	n/a	n/a	3	21	9	8	4
413961	PROB	n/a	LTP328	ltpFR2	20	n/a	n/a	n/a	3	23	9	6	8
415361	PROB	n/a	LTP328	ltpFR2	20	n/a	n/a	n/a	3	11	2	8	1
416843	PROB	n/a	LTP328	ltpFR2	20	n/a	n/a	n/a	3	16	3	7	6
417909	PROB	n/a	LTP328	ltpFR2	20	n/a	n/a	n/a	3	17	8	1	8
419142	PROB	n/a	LTP328	ltpFR2	20	n/a	n/a	n/a	3	14	2	5	7
420474	PROB	n/a	LTP328	ltpFR2	20	n/a	n/a	n/a	3	19	8	6	5
422007	PROB	n/a	LTP328	ltpFR2	20	n/a	n/a	n/a	3	14	2	4	8
423906	PROB	n/a	LTP328	ltpFR2	20	n/a	n/a	n/a	3	17	5	9	3
426505	PROB	n/a	LTP328	ltpFR2	20	n/a	n/a	n/a	3	16	8	3	5
428504	PROB	n/a	LTP328	ltpFR2	20	n/a	n/a	n/a	3	12	1	9	2
429537	PROB	n/a	LTP328	ltpFR2	20	n/a	n/a	n/a	3	17	5	8	4
431036	PROB	n/a	LTP328	ltpFR2	20	n/a	n/a	n/a	3	20	8	8	4
432918	PROB	n/a	LTP328	ltpFR2	20	n/a	n/a	n/a	3	19	6	6	7
436095	STOP	n/a	LTP328	ltpFR2	20	n/a	n/a	n/a	3	n/a	n/a	n/a	n/a
437200	WORD	wordpools/wasnorm_wordpool_576.txt	LTP328	ltpFR2	20	3	SPOON	1357	n/a	n/a	0	0	0
439665	WORD	wordpools/wasnorm_wordpool_576.txt	LTP328	ltpFR2	20	3	KNIFE	785	n/a	n/a	0	0	0
442097	WORD	wordpools/wasnorm_wordpool_576.txt	LTP328	ltpFR2	20	3	PIZZA	1079	n/a	n/a	0	0	0
444779	WORD	wordpools/wasnorm_wordpool_576.txt	LTP328	ltpFR2	20	3	RATTLE	1170	n/a	n/a	0	0	0
447279	WORD	wordpools/wasnorm_wordpool_576.txt	LTP328	ltpFR2	20	3	WHISKERS	1605	n/a	n/a	0	0	0
449760	WORD	wordpools/wasnorm_wordpool_576.txt	LTP328	ltpFR2	20	3	SHORTS	1293	n/a	n/a	0	0	0
452575	WORD	wordpools/wasnorm_wordpool_576.txt	LTP328	ltpFR2	20	3	TILE	1468	n/a	n/a	0	0	0
455141	WORD	wordpools/wasnorm_wordpool_576.txt	LTP328	ltpFR2	20	3	LUGGAGE	847	n/a	n/a	0	0	0
457723	WORD	wordpools/wasnorm_wordpool_576.txt	LTP328	ltpFR2	20	3	ARM	38	n/a	n/a	0	0	0
460438	WORD	wordpools/wasnorm_wordpool_576.txt	LTP328	ltpFR2	20	3	LUNCH	849	n/a	n/a	0	0	0
463020	WORD	wordpools/wasnorm_wordpool_576.txt	LTP328	ltpFR2	20	3	MARKET	871	n/a	n/a	0	0	0
465569	WORD	wordpools/wasnorm_wordpool_576.txt	LTP328	ltpFR2	20	3	TOASTER	1472	n/a	n/a	0	0	0
468117	WORD	wordpools/wasnorm_wordpool_576.txt	LTP328	ltpFR2	20	3	RAZOR	1171	n/a	n/a	0	0	0
470933	WORD	wordpools/wasnorm_wordpool_576.txt	LTP328	ltpFR2	20	3	LIZARD	834	n/a	n/a	0	0	0
473731	WORD	wordpools/wasnorm_wordpool_576.txt	LTP328	ltpFR2	20	3	WAITER	1580	n/a	n/a	0	0	0
476414	WORD	wordpools/wasnorm_wordpool_576.txt	LTP328	ltpFR2	20	3	PLAID	1080	n/a	n/a	0	0	0
478945	WORD	wordpools/wasnorm_wordpool_576.txt	LTP328	ltpFR2	20	3	LAPEL	800	n/a	n/a	0	0	0
481444	WORD	wordpools/wasnorm_wordpool_576.txt	LTP328	ltpFR2	20	3	BALLOON	75	n/a	n/a	0	0	0
483943	WORD	wordpools/wasnorm_wordpool_576.txt	LTP328	ltpFR2	20	3	CLOUD	328	n/a	n/a	0	0	0
486558	WORD	wordpools/wasnorm_wordpool_576.txt	LTP328	ltpFR2	20	3	OINTMENT	974	n/a	n/a	0	0	0
489074	WORD	wordpools/wasnorm_wordpool_576.txt	LTP328	ltpFR2	20	3	FRAME	600	n/a	n/a	0	0	0
491739	WORD	wordpools/wasnorm_wordpool_576.txt	LTP328	ltpFR2	20	3	SMOG	1330	n/a	n/a	0	0	0
494438	WORD	wordpools/wasnorm_wordpool_576.txt	LTP328	ltpFR2	20	3	LIPSTICK	829	n/a	n/a	0	0	0
496920	WORD	wordpools/wasnorm_wordpool_576.txt	LTP328	ltpFR2	20	3	ZIPPER	1636	n/a	n/a	0	0	0
498536	START	n/a	LTP328	ltpFR2	20	n/a	n/a	n/a	4	n/a	n/a	n/a	n/a
499347	DISTRACTOR	n/a	LTP328	ltpFR2	20	3	n/a	n/a	n/a	n/a	0	0	0
499353	PROB	n/a	LTP328	ltpFR2	20	n/a	n/a	n/a	4	9	5	1	3
500885	PROB	n/a	LTP328	ltpFR2	20	n/a	n/a	n/a	4	17	7	8	2
502134	PROB	n/a	LTP328	ltpFR2	20	n/a	n/a	n/a	4	20	2	9	9
504966	PROB	n/a	LTP328	ltpFR2	20	n/a	n/a	n/a	4	19	8	7	4
506648	PROB	n/a	LTP328	ltpFR2	20	n/a	n/a	n/a	4	12	2	9	1
507698	PROB	n/a	LTP328	ltpFR2	20	n/a	n/a	n/a	4	14	7	5	2
508964	PROB	n/a	LTP328	ltpFR2	20	n/a	n/a	n/a	4	17	7	8	2
510214	PROB	n/a	LTP328	ltpFR2	20	n/a	n/a	n/a	4	12	6	1	5
511197	PROB	n/a	LTP328	ltpFR2	20	n/a	n/a	n/a	4	14	8	4	2
512812	PROB	n/a	LTP328	ltpFR2	20	n/a	n/a	n/a	4	19	3	7	9
514045	PROB	n/a	LTP328	ltpFR2	20	n/a	n/a	n/a	4	14	7	1	6
515245	PROB	n/a	LTP328	ltpFR2	20	n/a	n/a	n/a	4	10	6	3	1
516760	PROB	n/a	LTP328	ltpFR2	20	n/a	n/a	n/a	4	12	6	2	4
518277	PROB	n/a	LTP328	ltpFR2	20	n/a	n/a	n/a	4	18	3	8	7
520658	PROB	n/a	LTP328	ltpFR2	20	n/a	n/a	n/a	4	14	4	1	9
521777	STOP	n/a	LTP328	ltpFR2	20	n/a	n/a	n/a	4	n/a	n/a	n/a	n/a
524325	REC_START	n/a	LTP328	ltpFR2	20	3	n/a	n/a	n/a	n/a	0	0	0
530219	REC_WORD	wordpools/wasnorm_wordpool_576.txt	LTP328	ltpFR2	20	3	LUNCH	849	n/a	n/a	0	0	0
530775	REC_WORD	wordpools/wasnorm_wordpool_576.txt	LTP328	ltpFR2	20	3	MARKET	871	n/a	n/a	0	0	0
532702	REC_WORD	wordpools/wasnorm_wordpool_576.txt	LTP328	ltpFR2	20	3	ARM	38	n/a	n/a	0	0	0
533253	REC_WORD	wordpools/wasnorm_wordpool_576.txt	LTP328	ltpFR2	20	3	LUGGAGE	847	n/a	n/a	0	0	0
534238	REC_WORD	wordpools/wasnorm_wordpool_576.txt	LTP328	ltpFR2	20	3	TILE	1468	n/a	n/a	0	0	0
534914	REC_WORD	wordpools/wasnorm_wordpool_576.txt	LTP328	ltpFR2	20	3	SHORTS	1293	n/a	n/a	0	0	0
538905	REC_WORD	wordpools/wasnorm_wordpool_576.txt	LTP328	ltpFR2	20	3	LIZARD	834	n/a	n/a	0	0	0
539813	REC_WORD	wordpools/wasnorm_wordpool_576.txt	LTP328	ltpFR2	20	3	WAITER	1580	n/a	n/a	0	0	0
540695	REC_WORD	wordpools/wasnorm_wordpool_576.txt	LTP328	ltpFR2	20	3	LAPEL	800	n/a	n/a	0	0	0
541413	REC_WORD	wordpools/wasnorm_wordpool_576.txt	LTP328	ltpFR2	20	3	BALLOON	75	n/a	n/a	0	0	0
542456	REC_WORD	wordpools/wasnorm_wordpool_576.txt	LTP328	ltpFR2	20	3	CLOUD	328	n/a	n/a	0	0	0
543176	REC_WORD	wordpools/wasnorm_wordpool_576.txt	LTP328	ltpFR2	20	3	OINTMENT	974	n/a	n/a	0	0	0
545063	REC_WORD	wordpools/wasnorm_wordpool_576.txt	LTP328	ltpFR2	20	3	FRAME	600	n/a	n/a	0	0	0
545756	REC_WORD	wordpools/wasnorm_wordpool_576.txt	LTP328	ltpFR2	20	3	SMOG	1330	n/a	n/a	0	0	0
546575	REC_WORD	wordpools/wasnorm_wordpool_576.txt	LTP328	ltpFR2	20	3	LIPSTICK	829	n/a	n/a	0	0	0
549939	REC_WORD	wordpools/wasnorm_wordpool_576.txt	LTP328	ltpFR2	20	3	ZIPPER	1636	n/a	n/a	0	0	0
589885	REC_WORD	wordpools/wasnorm_wordpool_576.txt	LTP328	ltpFR2	20	3	PLAID	1080	n/a	n/a	0	0	0
614761	DISTRACTOR	n/a	LTP328	ltpFR2	20	4	n/a	n/a	n/a	n/a	0	0	0
614761	START	n/a	LTP328	ltpFR2	20	n/a	n/a	n/a	5	n/a	n/a	n/a	n/a
614778	PROB	n/a	LTP328	ltpFR2	20	n/a	n/a	n/a	5	5	1	3	1
616061	PROB	n/a	LTP328	ltpFR2	20	n/a	n/a	n/a	5	7	2	4	1
617328	PROB	n/a	LTP328	ltpFR2	20	n/a	n/a	n/a	5	18	8	2	8
618593	PROB	n/a	LTP328	ltpFR2	20	n/a	n/a	n/a	5	4	2	1	1
619542	PROB	n/a	LTP328	ltpFR2	20	n/a	n/a	n/a	5	17	1	7	9
620692	PROB	n/a	LTP328	ltpFR2	20	n/a	n/a	n/a	5	12	1	3	8
621808	PROB	n/a	LTP328	ltpFR2	20	n/a	n/a	n/a	5	11	3	4	4
623175	PROB	n/a	LTP328	ltpFR2	20	n/a	n/a	n/a	5	16	8	3	5
624773	PROB	n/a	LTP328	ltpFR2	20	n/a	n/a	n/a	5	24	8	7	9
626622	PROB	n/a	LTP328	ltpFR2	20	n/a	n/a	n/a	5	19	7	5	7
628339	PROB	n/a	LTP328	ltpFR2	20	n/a	n/a	n/a	5	6	2	2	2
629305	PROB	n/a	LTP328	ltpFR2	20	n/a	n/a	n/a	5	23	7	9	7
631221	PROB	n/a	LTP328	ltpFR2	20	n/a	n/a	n/a	5	5	3	1	1
632452	PROB	n/a	LTP328	ltpFR2	20	n/a	n/a	n/a	5	15	4	8	3
634018	PROB	n/a	LTP328	ltpFR2	20	n/a	n/a	n/a	5	16	6	9	1
635051	PROB	n/a	LTP328	ltpFR2	20	n/a	n/a	n/a	5	16	2	7	7
637201	PROB	n/a	LTP328	ltpFR2	20	n/a	n/a	n/a	5	11	6	1	4
638097	STOP	n/a	LTP328	ltpFR2	20	n/a	n/a	n/a	5	n/a	n/a	n/a	n/a
639915	WORD	wordpools/wasnorm_wordpool_576.txt	LTP328	ltpFR2	20	4	BATHTUB	100	n/a	n/a	0	0	0
642597	WORD	wordpools/wasnorm_wordpool_576.txt	LTP328	ltpFR2	20	4	HAWK	692	n/a	n/a	0	0	0
645330	WORD	wordpools/wasnorm_wordpool_576.txt	LTP328	ltpFR2	20	4	SLOPE	1328	n/a	n/a	0	0	0
647845	WORD	wordpools/wasnorm_wordpool_576.txt	LTP328	ltpFR2	20	4	SWITCH	1422	n/a	n/a	0	0	0
650460	WORD	wordpools/wasnorm_wordpool_576.txt	LTP328	ltpFR2	20	4	OUTFIT	988	n/a	n/a	0	0	0
653059	WORD	wordpools/wasnorm_wordpool_576.txt	LTP328	ltpFR2	20	4	NIGHTGOWN	953	n/a	n/a	0	0	0
655524	WORD	wordpools/wasnorm_wordpool_576.txt	LTP328	ltpFR2	20	4	LOFT	840	n/a	n/a	0	0	0
658040	WORD	wordpools/wasnorm_wordpool_576.txt	LTP328	ltpFR2	20	4	CHEMIST	292	n/a	n/a	0	0	0
660805	WORD	wordpools/wasnorm_wordpool_576.txt	LTP328	ltpFR2	20	4	BABY	64	n/a	n/a	0	0	0
663454	WORD	wordpools/wasnorm_wordpool_576.txt	LTP328	ltpFR2	20	4	PRINCE	1124	n/a	n/a	0	0	0
666069	WORD	wordpools/wasnorm_wordpool_576.txt	LTP328	ltpFR2	20	4	SEAL	1262	n/a	n/a	0	0	0
668501	WORD	wordpools/wasnorm_wordpool_576.txt	LTP328	ltpFR2	20	4	BEAST	108	n/a	n/a	0	0	0
671301	WORD	wordpools/wasnorm_wordpool_576.txt	LTP328	ltpFR2	20	4	SWAMP	1416	n/a	n/a	0	0	0
673965	WORD	wordpools/wasnorm_wordpool_576.txt	LTP328	ltpFR2	20	4	SHOVEL	1295	n/a	n/a	0	0	0
676464	WORD	wordpools/wasnorm_wordpool_576.txt	LTP328	ltpFR2	20	4	EXPERT	543	n/a	n/a	0	0	0
679113	WORD	wordpools/wasnorm_wordpool_576.txt	LTP328	ltpFR2	20	4	FLASK	576	n/a	n/a	0	0	0
681545	WORD	wordpools/wasnorm_wordpool_576.txt	LTP328	ltpFR2	20	4	HIGHWAY	707	n/a	n/a	0	0	0
684311	WORD	wordpools/wasnorm_wordpool_576.txt	LTP328	ltpFR2	20	4	DENIM	446	n/a	n/a	0	0	0
687125	WORD	wordpools/wasnorm_wordpool_576.txt	LTP328	ltpFR2	20	4	CLAM	315	n/a	n/a	0	0	0
689841	WORD	wordpools/wasnorm_wordpool_576.txt	LTP328	ltpFR2	20	4	PISTOL	1075	n/a	n/a	0	0	0
692390	WORD	wordpools/wasnorm_wordpool_576.txt	LTP328	ltpFR2	20	4	LASER	801	n/a	n/a	0	0	0
695172	WORD	wordpools/wasnorm_wordpool_576.txt	LTP328	ltpFR2	20	4	TAXI	1438	n/a	n/a	0	0	0
697987	WORD	wordpools/wasnorm_wordpool_576.txt	LTP328	ltpFR2	20	4	PERCH	1048	n/a	n/a	0	0	0
700435	WORD	wordpools/wasnorm_wordpool_576.txt	LTP328	ltpFR2	20	4	STAMP	1370	n/a	n/a	0	0	0
702052	START	n/a	LTP328	ltpFR2	20	n/a	n/a	n/a	6	n/a	n/a	n/a	n/a
703171	DISTRACTOR	n/a	LTP328	ltpFR2	20	4	n/a	n/a	n/a	n/a	0	0	0
703185	PROB	n/a	LTP328	ltpFR2	20	n/a	n/a	n/a	6	24	8	8	8
704650	PROB	n/a	LTP328	ltpFR2	20	n/a	n/a	n/a	6	13	5	5	3
705799	PROB	n/a	LTP328	ltpFR2	20	n/a	n/a	n/a	6	12	4	7	1
707065	PROB	n/a	LTP328	ltpFR2	20	n/a	n/a	n/a	6	14	8	3	3
708448	PROB	n/a	LTP328	ltpFR2	20	n/a	n/a	n/a	6	20	4	9	7
710147	PROB	n/a	LTP328	ltpFR2	20	n/a	n/a	n/a	6	19	1	9	9
711463	PROB	n/a	LTP328	ltpFR2	20	n/a	n/a	n/a	6	12	7	2	3
712663	PROB	n/a	LTP328	ltpFR2	20	n/a	n/a	n/a	6	12	1	8	3
713879	PROB	n/a	LTP328	ltpFR2	20	n/a	n/a	n/a	6	15	1	6	8
715061	PROB	n/a	LTP328	ltpFR2	20	n/a	n/a	n/a	6	17	9	4	4
716644	PROB	n/a	LTP328	ltpFR2	20	n/a	n/a	n/a	6	17	8	1	8
719126	PROB	n/a	LTP328	ltpFR2	20	n/a	n/a	n/a	6	7	1	4	2
720393	PROB	n/a	LTP328	ltpFR2	20	n/a	n/a	n/a	6	8	2	5	1
721625	PROB	n/a	LTP328	ltpFR2	20	n/a	n/a	n/a	6	13	6	1	6
722808	PROB	n/a	LTP328	ltpFR2	20	n/a	n/a	n/a	6	15	4	8	3
724275	PROB	n/a	LTP328	ltpFR2	20	n/a	n/a	n/a	6	10	5	3	2
725881	STOP	n/a	LTP328	ltpFR2	20	n/a	n/a	n/a	6	n/a	n/a	n/a	n/a
727822	REC_START	n/a	LTP328	ltpFR2	20	4	n/a	n/a	n/a	n/a	0	0	0
731243	REC_WORD	wordpools/wasnorm_wordpool_576.txt	LTP328	ltpFR2	20	4	BATHTUB	100	n/a	n/a	0	0	0
732092	REC_WORD	wordpools/wasnorm_wordpool_576.txt	LTP328	ltpFR2	20	4	HAWK	692	n/a	n/a	0	0	0
732723	REC_WORD	wordpools/wasnorm_wordpool_576.txt	LTP328	ltpFR2	20	4	SLOPE	1328	n/a	n/a	0	0	0
733477	REC_WORD	wordpools/wasnorm_wordpool_576.txt	LTP328	ltpFR2	20	4	OUTFIT	988	n/a	n/a	0	0	0
734099	REC_WORD	wordpools/wasnorm_wordpool_576.txt	LTP328	ltpFR2	20	4	NIGHTGOWN	953	n/a	n/a	0	0	0
735593	REC_WORD	wordpools/wasnorm_wordpool_576.txt	LTP328	ltpFR2	20	4	CHEMIST	292	n/a	n/a	0	0	0
736354	REC_WORD	wordpools/wasnorm_wordpool_576.txt	LTP328	ltpFR2	20	4	BABY	64	n/a	n/a	0	0	0
736980	REC_WORD	wordpools/wasnorm_wordpool_576.txt	LTP328	ltpFR2	20	4	PRINCE	1124	n/a	n/a	0	0	0
737617	REC_WORD	wordpools/wasnorm_wordpool_576.txt	LTP328	ltpFR2	20	4	SEAL	1262	n/a	n/a	0	0	0
738482	REC_WORD	wordpools/wasnorm_wordpool_576.txt	LTP328	ltpFR2	20	4	BEAST	108	n/a	n/a	0	0	0
739219	REC_WORD	wordpools/wasnorm_wordpool_576.txt	LTP328	ltpFR2	20	4	SWAMP	1416	n/a	n/a	0	0	0
740758	REC_WORD	wordpools/wasnorm_wordpool_576.txt	LTP328	ltpFR2	20	4	SHOVEL	1295	n/a	n/a	0	0	0
741508	REC_WORD	wordpools/wasnorm_wordpool_576.txt	LTP328	ltpFR2	20	4	EXPERT	543	n/a	n/a	0	0	0
742185	REC_WORD	wordpools/wasnorm_wordpool_576.txt	LTP328	ltpFR2	20	4	FLASK	576	n/a	n/a	0	0	0
745640	REC_WORD	wordpools/wasnorm_wordpool_576.txt	LTP328	ltpFR2	20	4	TAXI	1438	n/a	n/a	0	0	0
748104	REC_WORD	wordpools/wasnorm_wordpool_576.txt	LTP328	ltpFR2	20	4	CLAM	315	n/a	n/a	0	0	0
748920	REC_WORD	wordpools/wasnorm_wordpool_576.txt	LTP328	ltpFR2	20	4	DENIM	446	n/a	n/a	0	0	0
757511	REC_WORD	wordpools/wasnorm_wordpool_576.txt	LTP328	ltpFR2	20	4	STAMP	1370	n/a	n/a	0	0	0
765538	REC_WORD	wordpools/wasnorm_wordpool_576.txt	LTP328	ltpFR2	20	4	PERCH	1048	n/a	n/a	0	0	0
818278	WORD	wordpools/wasnorm_wordpool_576.txt	LTP328	ltpFR2	20	5	REPORT	1184	n/a	n/a	0	0	0
821092	WORD	wordpools/wasnorm_wordpool_576.txt	LTP328	ltpFR2	20	5	BROOK	177	n/a	n/a	0	0	0
823824	WORD	wordpools/wasnorm_wordpool_576.txt	LTP328	ltpFR2	20	5	TURKEY	1520	n/a	n/a	0	0	0
826506	WORD	wordpools/wasnorm_wordpool_576.txt	LTP328	ltpFR2	20	5	RECEIPT	1173	n/a	n/a	0	0	0
829021	WORD	wordpools/wasnorm_wordpool_576.txt	LTP328	ltpFR2	20	5	CHURCH	307	n/a	n/a	0	0	0
831554	WORD	wordpools/wasnorm_wordpool_576.txt	LTP328	ltpFR2	20	5	CRICKET	408	n/a	n/a	0	0	0
834170	WORD	wordpools/wasnorm_wordpool_576.txt	LTP328	ltpFR2	20	5	SPIDER	1351	n/a	n/a	0	0	0
836601	WORD	wordpools/wasnorm_wordpool_576.txt	LTP328	ltpFR2	20	5	BACON	67	n/a	n/a	0	0	0
839301	WORD	wordpools/wasnorm_wordpool_576.txt	LTP328	ltpFR2	20	5	OMELET	976	n/a	n/a	0	0	0
841798	WORD	wordpools/wasnorm_wordpool_576.txt	LTP328	ltpFR2	20	5	MILK	895	n/a	n/a	0	0	0
844447	WORD	wordpools/wasnorm_wordpool_576.txt	LTP328	ltpFR2	20	5	KITCHEN	778	n/a	n/a	0	0	0
847112	WORD	wordpools/wasnorm_wordpool_576.txt	LTP328	ltpFR2	20	5	FEMALE	559	n/a	n/a	0	0	0
849661	WORD	wordpools/wasnorm_wordpool_576.txt	LTP328	ltpFR2	20	5	WOMAN	1620	n/a	n/a	0	0	0
852228	WORD	wordpools/wasnorm_wordpool_576.txt	LTP328	ltpFR2	20	5	HERO	706	n/a	n/a	0	0	0
854809	WORD	wordpools/wasnorm_wordpool_576.txt	LTP328	ltpFR2	20	5	SANDWICH	1232	n/a	n/a	0	0	0
857325	WORD	wordpools/wasnorm_wordpool_576.txt	LTP328	ltpFR2	20	5	DRINK	498	n/a	n/a	0	0	0
860139	WORD	wordpools/wasnorm_wordpool_576.txt	LTP328	ltpFR2	20	5	VIKING	1565	n/a	n/a	0	0	0
862855	WORD	wordpools/wasnorm_wordpool_576.txt	LTP328	ltpFR2	20	5	HELMET	702	n/a	n/a	0	0	0
865354	WORD	wordpools/wasnorm_wordpool_576.txt	LTP328	ltpFR2	20	5	APRON	35	n/a	n/a	0	0	0
867785	WORD	wordpools/wasnorm_wordpool_576.txt	LTP328	ltpFR2	20	5	QUARTER	1148	n/a	n/a	0	0	0
870352	WORD	wordpools/wasnorm_wordpool_576.txt	LTP328	ltpFR2	20	5	BURGLAR	200	n/a	n/a	0	0	0
872900	WORD	wordpools/wasnorm_wordpool_576.txt	LTP328	ltpFR2	20	5	VICTIM	1562	n/a	n/a	0	0	0
875632	WORD	wordpools/wasnorm_wordpool_576.txt	LTP328	ltpFR2	20	5	EMPIRE	530	n/a	n/a	0	0	0
878080	WORD	wordpools/wasnorm_wordpool_576.txt	LTP328	ltpFR2	20	5	WITNESS	1618	n/a	n/a	0	0	0
879696	START	n/a	LTP328	ltpFR2	20	n/a	n/a	n/a	7	n/a	n/a	n/a	n/a
880536	DISTRACTOR	n/a	LTP328	ltpFR2	20	5	n/a	n/a	n/a	n/a	0	0	0
880546	PROB	n/a	LTP328	ltpFR2	20	n/a	n/a	n/a	7	10	1	1	8
882128	PROB	n/a	LTP328	ltpFR2	20	n/a	n/a	n/a	7	13	8	1	4
883262	PROB	n/a	LTP328	ltpFR2	20	n/a	n/a	n/a	7	16	3	8	5
885211	PROB	n/a	LTP328	ltpFR2	20	n/a	n/a	n/a	7	11	7	3	1
886161	PROB	n/a	LTP328	ltpFR2	20	n/a	n/a	n/a	7	13	4	7	2
887709	PROB	n/a	LTP328	ltpFR2	20	n/a	n/a	n/a	7	11	3	1	7
888708	PROB	n/a	LTP328	ltpFR2	20	n/a	n/a	n/a	7	13	1	9	3
889775	PROB	n/a	LTP328	ltpFR2	20	n/a	n/a	n/a	7	16	8	3	5
891275	PROB	n/a	LTP328	ltpFR2	20	n/a	n/a	n/a	7	10	3	2	5
892490	PROB	n/a	LTP328	ltpFR2	20	n/a	n/a	n/a	7	11	2	8	1
893556	PROB	n/a	LTP328	ltpFR2	20	n/a	n/a	n/a	7	15	9	5	1
894605	PROB	n/a	LTP328	ltpFR2	20	n/a	n/a	n/a	7	13	7	5	1
895755	PROB	n/a	LTP328	ltpFR2	20	n/a	n/a	n/a	7	15	6	3	6
897604	PROB	n/a	LTP328	ltpFR2	20	n/a	n/a	n/a	7	13	3	6	4
898720	PROB	n/a	LTP328	ltpFR2	20	n/a	n/a	n/a	7	16	4	4	8
900220	PROB	n/a	LTP328	ltpFR2	20	n/a	n/a	n/a	7	12	8	3	1
901320	PROB	n/a	LTP328	ltpFR2	20	n/a	n/a	n/a	7	14	4	7	3
903105	STOP	n/a	LTP328	ltpFR2	20	n/a	n/a	n/a	7	n/a	n/a	n/a	n/a
905634	REC_START	n/a	LTP328	ltpFR2	20	5	n/a	n/a	n/a	n/a	0	0	0
913790	REC_WORD	wordpools/wasnorm_wordpool_576.txt	LTP328	ltpFR2	20	5	TURKEY	1520	n/a	n/a	0	0	0
914559	REC_WORD	wordpools/wasnorm_wordpool_576.txt	LTP328	ltpFR2	20	5	BROOK	177	n/a	n/a	0	0	0
916286	REC_WORD	wordpools/wasnorm_wordpool_576.txt	LTP328	ltpFR2	20	5	RECEIPT	1173	n/a	n/a	0	0	0
917468	REC_WORD	wordpools/wasnorm_wordpool_576.txt	LTP328	ltpFR2	20	5	CHURCH	307	n/a	n/a	0	0	0
918866	REC_WORD	wordpools/wasnorm_wordpool_576.txt	LTP328	ltpFR2	20	5	SPIDER	1351	n/a	n/a	0	0	0
919543	REC_WORD	wordpools/wasnorm_wordpool_576.txt	LTP328	ltpFR2	20	5	CRICKET	408	n/a	n/a	0	0	0
921205	REC_WORD	wordpools/wasnorm_wordpool_576.txt	LTP328	ltpFR2	20	5	OMELET	976	n/a	n/a	0	0	0
921503	REC_WORD	wordpools/wasnorm_wordpool_576.txt	LTP328	ltpFR2	20	5	BACON	67	n/a	n/a	0	0	0
921953	REC_WORD	wordpools/wasnorm_wordpool_576.txt	LTP328	ltpFR2	20	5	BACON	67	n/a	n/a	0	0	0
925550	REC_WORD	wordpools/wasnorm_wordpool_576.txt	LTP328	ltpFR2	20	5	MILK	895	n/a	n/a	0	0	0
927389	REC_WORD	wordpools/wasnorm_wordpool_576.txt	LTP328	ltpFR2	20	5	SANDWICH	1232	n/a	n/a	0	0	0
929576	REC_WORD	wordpools/wasnorm_wordpool_576.txt	LTP328	ltpFR2	20	5	DRINK	498	n/a	n/a	0	0	0
932018	REC_WORD	wordpools/wasnorm_wordpool_576.txt	LTP328	ltpFR2	20	5	VIKING	1565	n/a	n/a	0	0	0
934095	REC_WORD	wordpools/wasnorm_wordpool_576.txt	LTP328	ltpFR2	20	5	HELMET	702	n/a	n/a	0	0	0
935479	REC_WORD	wordpools/wasnorm_wordpool_576.txt	LTP328	ltpFR2	20	5	APRON	35	n/a	n/a	0	0	0
996088	WORD	wordpools/wasnorm_wordpool_576.txt	LTP328	ltpFR2	20	6	FRECKLE	602	n/a	n/a	0	0	0
998670	WORD	wordpools/wasnorm_wordpool_576.txt	LTP328	ltpFR2	20	6	LEOPARD	812	n/a	n/a	0	0	0
1001136	WORD	wordpools/wasnorm_wordpool_576.txt	LTP328	ltpFR2	20	6	SPOUSE	1358	n/a	n/a	0	0	0
1003918	WORD	wordpools/wasnorm_wordpool_576.txt	LTP328	ltpFR2	20	6	HUSBAND	728	n/a	n/a	0	0	0
1006467	WORD	wordpools/wasnorm_wordpool_576.txt	LTP328	ltpFR2	20	6	HOOD	714	n/a	n/a	0	0	0
1009200	WORD	wordpools/wasnorm_wordpool_576.txt	LTP328	ltpFR2	20	6	COOKBOOK	373	n/a	n/a	0	0	0
1011714	WORD	wordpools/wasnorm_wordpool_576.txt	LTP328	ltpFR2	20	6	LIVER	833	n/a	n/a	0	0	0
1014429	WORD	wordpools/wasnorm_wordpool_576.txt	LTP328	ltpFR2	20	6	PARSLEY	1016	n/a	n/a	0	0	0
1017061	WORD	wordpools/wasnorm_wordpool_576.txt	LTP328	ltpFR2	20	6	SLUG	1329	n/a	n/a	0	0	0
1019727	WORD	wordpools/wasnorm_wordpool_576.txt	LTP328	ltpFR2	20	6	PLATE	1086	n/a	n/a	0	0	0
1022326	WORD	wordpools/wasnorm_wordpool_576.txt	LTP328	ltpFR2	20	6	PLAYGROUND	1087	n/a	n/a	0	0	0
1024874	WORD	wordpools/wasnorm_wordpool_576.txt	LTP328	ltpFR2	20	6	COIN	343	n/a	n/a	0	0	0
1027506	WORD	wordpools/wasnorm_wordpool_576.txt	LTP328	ltpFR2	20	6	FLEET	578	n/a	n/a	0	0	0
1030138	WORD	wordpools/wasnorm_wordpool_576.txt	LTP328	ltpFR2	20	6	COURSE	390	n/a	n/a	0	0	0
1032604	WORD	wordpools/wasnorm_wordpool_576.txt	LTP328	ltpFR2	20	6	WHISTLE	1606	n/a	n/a	0	0	0
1035136	WORD	wordpools/wasnorm_wordpool_576.txt	LTP328	ltpFR2	20	6	SCRIBBLE	1256	n/a	n/a	0	0	0
1037568	WORD	wordpools/wasnorm_wordpool_576.txt	LTP328	ltpFR2	20	6	TOMBSTONE	1478	n/a	n/a	0	0	0
1040100	WORD	wordpools/wasnorm_wordpool_576.txt	LTP328	ltpFR2	20	6	VALVE	1546	n/a	n/a	0	0	0
1042549	WORD	wordpools/wasnorm_wordpool_576.txt	LTP328	ltpFR2	20	6	CHAPEL	280	n/a	n/a	0	0	0
1045097	WORD	wordpools/wasnorm_wordpool_576.txt	LTP328	ltpFR2	20	6	PUDDLE	1140	n/a	n/a	0	0	0
1047796	WORD	wordpools/wasnorm_wordpool_576.txt	LTP328	ltpFR2	20	6	ISLAND	745	n/a	n/a	0	0	0
1050379	WORD	wordpools/wasnorm_wordpool_576.txt	LTP328	ltpFR2	20	6	PICNIC	1060	n/a	n/a	0	0	0
1053194	WORD	wordpools/wasnorm_wordpool_576.txt	LTP328	ltpFR2	20	6	PLUTO	1092	n/a	n/a	0	0	0
1055842	WORD	wordpools/wasnorm_wordpool_576.txt	LTP328	ltpFR2	20	6	LION	827	n/a	n/a	0	0	0
1057458	START	n/a	LTP328	ltpFR2	20	n/a	n/a	n/a	8	n/a	n/a	n/a	n/a
1058537	DISTRACTOR	n/a	LTP328	ltpFR2	20	6	n/a	n/a	n/a	n/a	0	0	0
1058541	PROB	n/a	LTP328	ltpFR2	20	n/a	n/a	n/a	8	14	5	2	7
1060307	PROB	n/a	LTP328	ltpFR2	20	n/a	n/a	n/a	8	21	6	9	6
1062039	PROB	n/a	LTP328	ltpFR2	20	n/a	n/a	n/a	8	14	1	4	9
1063771	PROB	n/a	LTP328	ltpFR2	20	n/a	n/a	n/a	8	12	5	4	3
1065670	PROB	n/a	LTP328	ltpFR2	20	n/a	n/a	n/a	8	15	5	6	4
1066787	PROB	n/a	LTP328	ltpFR2	20	n/a	n/a	n/a	8	9	4	2	3
1068819	PROB	n/a	LTP328	ltpFR2	20	n/a	n/a	n/a	8	10	4	3	3
1070501	PROB	n/a	LTP328	ltpFR2	20	n/a	n/a	n/a	8	11	6	2	3
1071867	PROB	n/a	LTP328	ltpFR2	20	n/a	n/a	n/a	8	17	6	6	5
1073284	PROB	n/a	LTP328	ltpFR2	20	n/a	n/a	n/a	8	23	6	8	9
1075066	PROB	n/a	LTP328	ltpFR2	20	n/a	n/a	n/a	8	14	3	2	9
1076882	PROB	n/a	LTP328	ltpFR2	20	n/a	n/a	n/a	8	11	1	6	4
1078697	PROB	n/a	LTP328	ltpFR2	20	n/a	n/a	n/a	8	7	2	2	3
1080354	STOP	n/a	LTP328	ltpFR2	20	n/a	n/a	n/a	8	n/a	n/a	n/a	n/a
1083380	REC_START	n/a	LTP328	ltpFR2	20	6	n/a	n/a	n/a	n/a	0	0	0
1089935	REC_WORD	wordpools/wasnorm_wordpool_576.txt	LTP328	ltpFR2	20	6	LEOPARD	812	n/a	n/a	0	0	0
1090686	REC_WORD	wordpools/wasnorm_wordpool_576.txt	LTP328	ltpFR2	20	6	FRECKLE	602	n/a	n/a	0	0	0
1091560	REC_WORD	wordpools/wasnorm_wordpool_576.txt	LTP328	ltpFR2	20	6	SPOUSE	1358	n/a	n/a	0	0	0
1092384	REC_WORD	wordpools/wasnorm_wordpool_576.txt	LTP328	ltpFR2	20	6	HUSBAND	728	n/a	n/a	0	0	0
1099276	REC_WORD	wordpools/wasnorm_wordpool_576.txt	LTP328	ltpFR2	20	6	COOKBOOK	373	n/a	n/a	0	0	0
1100028	REC_WORD	wordpools/wasnorm_wordpool_576.txt	LTP328	ltpFR2	20	6	LIVER	833	n/a	n/a	0	0	0
1100504	REC_WORD	wordpools/wasnorm_wordpool_576.txt	LTP328	ltpFR2	20	6	SLUG	1329	n/a	n/a	0	0	0
1101157	REC_WORD	wordpools/wasnorm_wordpool_576.txt	LTP328	ltpFR2	20	6	PARSLEY	1016	n/a	n/a	0	0	0
1103722	REC_WORD	wordpools/wasnorm_wordpool_576.txt	LTP328	ltpFR2	20	6	COIN	343	n/a	n/a	0	0	0
1104256	REC_WORD	wordpools/wasnorm_wordpool_576.txt	LTP328	ltpFR2	20	6	PLAYGROUND	1087	n/a	n/a	0	0	0
1104850	REC_WORD	wordpools/wasnorm_wordpool_576.txt	LTP328	ltpFR2	20	6	FLEET	578	n/a	n/a	0	0	0
1105421	REC_WORD	wordpools/wasnorm_wordpool_576.txt	LTP328	ltpFR2	20	6	COURSE	390	n/a	n/a	0	0	0
1106093	REC_WORD	wordpools/wasnorm_wordpool_576.txt	LTP328	ltpFR2	20	6	WHISTLE	1606	n/a	n/a	0	0	0
1106672	REC_WORD	wordpools/wasnorm_wordpool_576.txt	LTP328	ltpFR2	20	6	SCRIBBLE	1256	n/a	n/a	0	0	0
1108385	REC_WORD	wordpools/wasnorm_wordpool_576.txt	LTP328	ltpFR2	20	6	TOMBSTONE	1478	n/a	n/a	0	0	0
1109489	REC_WORD	wordpools/wasnorm_wordpool_576.txt	LTP328	ltpFR2	20	6	VALVE	1546	n/a	n/a	0	0	0
1110798	REC_WORD	wordpools/wasnorm_wordpool_576.txt	LTP328	ltpFR2	20	6	PUDDLE	1140	n/a	n/a	0	0	0
1112283	REC_WORD	wordpools/wasnorm_wordpool_576.txt	LTP328	ltpFR2	20	6	ISLAND	745	n/a	n/a	0	0	0
1115294	REC_WORD	wordpools/wasnorm_wordpool_576.txt	LTP328	ltpFR2	20	6	PICNIC	1060	n/a	n/a	0	0	0
1116112	REC_WORD	wordpools/wasnorm_wordpool_576.txt	LTP328	ltpFR2	20	6	PLUTO	1092	n/a	n/a	0	0	0
1123077	REC_WORD	wordpools/wasnorm_wordpool_576.txt	LTP328	ltpFR2	20	6	LION	827	n/a	n/a	0	0	0
1173850	WORD	wordpools/wasnorm_wordpool_576.txt	LTP328	ltpFR2	20	7	GLASS	639	n/a	n/a	0	0	0
1176599	WORD	wordpools/wasnorm_wordpool_576.txt	LTP328	ltpFR2	20	7	CLIMBER	323	n/a	n/a	0	0	0
1179415	WORD	wordpools/wasnorm_wordpool_576.txt	LTP328	ltpFR2	20	7	LETTUCE	814	n/a	n/a	0	0	0
1181963	WORD	wordpools/wasnorm_wordpool_576.txt	LTP328	ltpFR2	20	7	BEEF	113	n/a	n/a	0	0	0
1184745	WORD	wordpools/wasnorm_wordpool_576.txt	LTP328	ltpFR2	20	7	SALT	1229	n/a	n/a	0	0	0
1187344	WORD	wordpools/wasnorm_wordpool_576.txt	LTP328	ltpFR2	20	7	GARLIC	624	n/a	n/a	0	0	0
1189859	WORD	wordpools/wasnorm_wordpool_576.txt	LTP328	ltpFR2	20	7	SHOULDER	1294	n/a	n/a	0	0	0
1192557	WORD	wordpools/wasnorm_wordpool_576.txt	LTP328	ltpFR2	20	7	BUG	187	n/a	n/a	0	0	0
1195139	WORD	wordpools/wasnorm_wordpool_576.txt	LTP328	ltpFR2	20	7	CUPBOARD	425	n/a	n/a	0	0	0
1197788	WORD	wordpools/wasnorm_wordpool_576.txt	LTP328	ltpFR2	20	7	WINDOW	1611	n/a	n/a	0	0	0
1200321	WORD	wordpools/wasnorm_wordpool_576.txt	LTP328	ltpFR2	20	7	DASHBOARD	441	n/a	n/a	0	0	0
1202969	WORD	wordpools/wasnorm_wordpool_576.txt	LTP328	ltpFR2	20	7	MESSAGE	888	n/a	n/a	0	0	0
1205484	WORD	wordpools/wasnorm_wordpool_576.txt	LTP328	ltpFR2	20	7	SIDEWALK	1303	n/a	n/a	0	0	0
1208167	WORD	wordpools/wasnorm_wordpool_576.txt	LTP328	ltpFR2	20	7	HAND	683	n/a	n/a	0	0	0
1210848	WORD	wordpools/wasnorm_wordpool_576.txt	LTP328	ltpFR2	20	7	HIKER	708	n/a	n/a	0	0	0
1213664	WORD	wordpools/wasnorm_wordpool_576.txt	LTP328	ltpFR2	20	7	WIFE	1609	n/a	n/a	0	0	0
1216330	WORD	wordpools/wasnorm_wordpool_576.txt	LTP328	ltpFR2	20	7	BODY	145	n/a	n/a	0	0	0
1218761	WORD	wordpools/wasnorm_wordpool_576.txt	LTP328	ltpFR2	20	7	DRESS	495	n/a	n/a	0	0	0
1221394	WORD	wordpools/wasnorm_wordpool_576.txt	LTP328	ltpFR2	20	7	LACE	792	n/a	n/a	0	0	0
1224193	WORD	wordpools/wasnorm_wordpool_576.txt	LTP328	ltpFR2	20	7	PADDING	999	n/a	n/a	0	0	0
1226724	WORD	wordpools/wasnorm_wordpool_576.txt	LTP328	ltpFR2	20	7	MOP	916	n/a	n/a	0	0	0
1229323	WORD	wordpools/wasnorm_wordpool_576.txt	LTP328	ltpFR2	20	7	SEAGULL	1261	n/a	n/a	0	0	0
1231888	WORD	wordpools/wasnorm_wordpool_576.txt	LTP328	ltpFR2	20	7	LADDER	793	n/a	n/a	0	0	0
1234636	WORD	wordpools/wasnorm_wordpool_576.txt	LTP328	ltpFR2	20	7	DUSTPAN	509	n/a	n/a	0	0	0
1236254	START	n/a	LTP328	ltpFR2	20	n/a	n/a	n/a	9	n/a	n/a	n/a	n/a
1237166	DISTRACTOR	n/a	LTP328	ltpFR2	20	7	n/a	n/a	n/a	n/a	0	0	0
1237170	PROB	n/a	LTP328	ltpFR2	20	n/a	n/a	n/a	9	24	9	8	7
1240268	PROB	n/a	LTP328	ltpFR2	20	n/a	n/a	n/a	9	15	6	4	5
1241833	PROB	n/a	LTP328	ltpFR2	20	n/a	n/a	n/a	9	18	5	7	6
1243849	PROB	n/a	LTP328	ltpFR2	20	n/a	n/a	n/a	9	19	5	8	6
1245514	PROB	n/a	LTP328	ltpFR2	20	n/a	n/a	n/a	9	4	1	1	2
1246547	PROB	n/a	LTP328	ltpFR2	20	n/a	n/a	n/a	9	13	1	5	7
1247697	PROB	n/a	LTP328	ltpFR2	20	n/a	n/a	n/a	9	18	8	2	8
1248780	PROB	n/a	LTP328	ltpFR2	20	n/a	n/a	n/a	9	15	7	5	3
1250595	PROB	n/a	LTP328	ltpFR2	20	n/a	n/a	n/a	9	12	1	5	6
1251728	PROB	n/a	LTP328	ltpFR2	20	n/a	n/a	n/a	9	12	8	3	1
1252744	PROB	n/a	LTP328	ltpFR2	20	n/a	n/a	n/a	9	14	2	4	8
1254110	PROB	n/a	LTP328	ltpFR2	20	n/a	n/a	n/a	9	5	1	2	2
1255110	PROB	n/a	LTP328	ltpFR2	20	n/a	n/a	n/a	9	13	2	9	2
1256327	PROB	n/a	LTP328	ltpFR2	20	n/a	n/a	n/a	9	27	9	9	9
1258176	PROB	n/a	LTP328	ltpFR2	20	n/a	n/a	n/a	9	16	3	4	9
1259386	STOP	n/a	LTP328	ltpFR2	20	n/a	n/a	n/a	9	n/a	n/a	n/a	n/a
1262191	REC_START	n/a	LTP328	ltpFR2	20	7	n/a	n/a	n/a	n/a	0	0	0
1266252	REC_WORD	wordpools/wasnorm_wordpool_576.txt	LTP328	ltpFR2	20	7	GLASS	639	n/a	n/a	0	0	0
1266826	REC_WORD	wordpools/wasnorm_wordpool_576.txt	LTP328	ltpFR2	20	7	CLIMBER	323	n/a	n/a	0	0	0
1267750	REC_WORD	wordpools/wasnorm_wordpool_576.txt	LTP328	ltpFR2	20	7	BEEF	113	n/a	n/a	0	0	0
1268217	REC_WORD	wordpools/wasnorm_wordpool_576.txt	LTP328	ltpFR2	20	7	LETTUCE	814	n/a	n/a	0	0	0
1268979	REC_WORD	wordpools/wasnorm_wordpool_576.txt	LTP328	ltpFR2	20	7	GARLIC	624	n/a	n/a	0	0	0
1276672	REC_WORD	wordpools/wasnorm_wordpool_576.txt	LTP328	ltpFR2	20	7	BUG	187	n/a	n/a	0	0	0
1277235	REC_WORD	wordpools/wasnorm_wordpool_576.txt	LTP328	ltpFR2	20	7	SHOULDER	1294	n/a	n/a	0	0	0
1278564	REC_WORD	wordpools/wasnorm_wordpool_576.txt	LTP328	ltpFR2	20	7	CUPBOARD	425	n/a	n/a	0	0	0
1279647	REC_WORD	wordpools/wasnorm_wordpool_576.txt	LTP328	ltpFR2	20	7	DASHBOARD	441	n/a	n/a	0	0	0
1280494	REC_WORD	wordpools/wasnorm_wordpool_576.txt	LTP328	ltpFR2	20	7	WINDOW	1611	n/a	n/a	0	0	0
1281259	REC_WORD	wordpools/wasnorm_wordpool_576.txt	LTP328	ltpFR2	20	7	MESSAGE	888	n/a	n/a	0	0	0
1282094	REC_WORD	wordpools/wasnorm_wordpool_576.txt	LTP328	ltpFR2	20	7	SIDEWALK	1303	n/a	n/a	0	0	0
1284418	REC_WORD	wordpools/wasnorm_wordpool_576.txt	LTP328	ltpFR2	20	7	HIKER	708	n/a	n/a	0	0	0
1286690	REC_WORD	wordpools/wasnorm_wordpool_576.txt	LTP328	ltpFR2	20	7	WIFE	1609	n/a	n/a	0	0	0
1288003	REC_WORD	wordpools/wasnorm_wordpool_576.txt	LTP328	ltpFR2	20	7	LACE	792	n/a	n/a	0	0	0
1288800	REC_WORD	wordpools/wasnorm_wordpool_576.txt	LTP328	ltpFR2	20	7	DRESS	495	n/a	n/a	0	0	0
1289542	REC_WORD	wordpools/wasnorm_wordpool_576.txt	LTP328	ltpFR2	20	7	PADDING	999	n/a	n/a	0	0	0
1290367	REC_WORD	wordpools/wasnorm_wordpool_576.txt	LTP328	ltpFR2	20	7	MOP	916	n/a	n/a	0	0	0
1290993	REC_WORD	wordpools/wasnorm_wordpool_576.txt	LTP328	ltpFR2	20	7	SEAGULL	1261	n/a	n/a	0	0	0
1291837	REC_WORD	wordpools/wasnorm_wordpool_576.txt	LTP328	ltpFR2	20	7	LADDER	793	n/a	n/a	0	0	0
1305751	REC_WORD	wordpools/wasnorm_wordpool_576.txt	LTP328	ltpFR2	20	7	PEPPER	1047	n/a	n/a	0	0	0
1352644	DISTRACTOR	n/a	LTP328	ltpFR2	20	8	n/a	n/a	n/a	n/a	0	0	0
1352645	START	n/a	LTP328	ltpFR2	20	n/a	n/a	n/a	10	n/a	n/a	n/a	n/a
1352661	PROB	n/a	LTP328	ltpFR2	20	n/a	n/a	n/a	10	15	4	5	6
1354477	PROB	n/a	LTP328	ltpFR2	20	n/a	n/a	n/a	10	13	7	5	1
1355710	PROB	n/a	LTP328	ltpFR2	20	n/a	n/a	n/a	10	17	4	6	7
1356942	PROB	n/a	LTP328	ltpFR2	20	n/a	n/a	n/a	10	19	5	5	9
1357992	PROB	n/a	LTP328	ltpFR2	20	n/a	n/a	n/a	10	20	7	5	8
1359674	PROB	n/a	LTP328	ltpFR2	20	n/a	n/a	n/a	10	12	2	7	3
1360824	PROB	n/a	LTP328	ltpFR2	20	n/a	n/a	n/a	10	18	5	5	8
1361857	PROB	n/a	LTP328	ltpFR2	20	n/a	n/a	n/a	10	18	9	2	7
1363822	PROB	n/a	LTP328	ltpFR2	20	n/a	n/a	n/a	10	19	7	4	8
1365406	PROB	n/a	LTP328	ltpFR2	20	n/a	n/a	n/a	10	15	2	6	7
1366804	PROB	n/a	LTP328	ltpFR2	20	n/a	n/a	n/a	10	10	3	4	3
1368304	PROB	n/a	LTP328	ltpFR2	20	n/a	n/a	n/a	10	22	8	7	7
1370053	PROB	n/a	LTP328	ltpFR2	20	n/a	n/a	n/a	10	11	7	3	1
1371320	PROB	n/a	LTP328	ltpFR2	20	n/a	n/a	n/a	10	11	6	3	2
1372485	PROB	n/a	LTP328	ltpFR2	20	n/a	n/a	n/a	10	11	6	1	4
1373419	PROB	n/a	LTP328	ltpFR2	20	n/a	n/a	n/a	10	15	6	1	8
1376645	STOP	n/a	LTP328	ltpFR2	20	n/a	n/a	n/a	10	n/a	n/a	n/a	n/a
1377465	WORD	wordpools/wasnorm_wordpool_576.txt	LTP328	ltpFR2	20	8	PANTHER	1009	n/a	n/a	0	0	0
1379981	WORD	wordpools/wasnorm_wordpool_576.txt	LTP328	ltpFR2	20	8	CREATURE	403	n/a	n/a	0	0	0
1382563	WORD	wordpools/wasnorm_wordpool_576.txt	LTP328	ltpFR2	20	8	WIDOW	1608	n/a	n/a	0	0	0
1385095	WORD	wordpools/wasnorm_wordpool_576.txt	LTP328	ltpFR2	20	8	SALMON	1227	n/a	n/a	0	0	0
1387810	WORD	wordpools/wasnorm_wordpool_576.txt	LTP328	ltpFR2	20	8	APPLE	33	n/a	n/a	0	0	0
1390426	WORD	wordpools/wasnorm_wordpool_576.txt	LTP328	ltpFR2	20	8	FRUIT	610	n/a	n/a	0	0	0
1392858	WORD	wordpools/wasnorm_wordpool_576.txt	LTP328	ltpFR2	20	8	TRIBE	1505	n/a	n/a	0	0	0
1395358	WORD	wordpools/wasnorm_wordpool_576.txt	LTP328	ltpFR2	20	8	ATOM	55	n/a	n/a	0	0	0
1398072	WORD	wordpools/wasnorm_wordpool_576.txt	LTP328	ltpFR2	20	8	BLOCKADE	137	n/a	n/a	0	0	0
1400554	WORD	wordpools/wasnorm_wordpool_576.txt	LTP328	ltpFR2	20	8	POSSUM	1112	n/a	n/a	0	0	0
1403204	WORD	wordpools/wasnorm_wordpool_576.txt	LTP328	ltpFR2	20	8	FRAGRANCE	599	n/a	n/a	0	0	0
1406001	WORD	wordpools/wasnorm_wordpool_576.txt	LTP328	ltpFR2	20	8	ONION	977	n/a	n/a	0	0	0
1408617	WORD	wordpools/wasnorm_wordpool_576.txt	LTP328	ltpFR2	20	8	TWIG	1527	n/a	n/a	0	0	0
1411283	WORD	wordpools/wasnorm_wordpool_576.txt	LTP328	ltpFR2	20	8	STICKER	1382	n/a	n/a	0	0	0
1413997	WORD	wordpools/wasnorm_wordpool_576.txt	LTP328	ltpFR2	20	8	BRANCH	168	n/a	n/a	0	0	0
1416713	WORD	wordpools/wasnorm_wordpool_576.txt	LTP328	ltpFR2	20	8	KIDNEY	776	n/a	n/a	0	0	0
1419478	WORD	wordpools/wasnorm_wordpool_576.txt	LTP328	ltpFR2	20	8	MARROW	872	n/a	n/a	0	0	0
1421993	WORD	wordpools/wasnorm_wordpool_576.txt	LTP328	ltpFR2	20	8	PEBBLE	1035	n/a	n/a	0	0	0
1424559	WORD	wordpools/wasnorm_wordpool_576.txt	LTP328	ltpFR2	20	8	CHAUFFEUR	283	n/a	n/a	0	0	0
1427175	WORD	wordpools/wasnorm_wordpool_576.txt	LTP328	ltpFR2	20	8	HONEY	713	n/a	n/a	0	0	0
1429756	WORD	wordpools/wasnorm_wordpool_576.txt	LTP328	ltpFR2	20	8	WARDROBE	1587	n/a	n/a	0	0	0
1432206	WORD	wordpools/wasnorm_wordpool_576.txt	LTP328	ltpFR2	20	8	RECORD	1176	n/a	n/a	0	0	0
1434870	WORD	wordpools/wasnorm_wordpool_576.txt	LTP328	ltpFR2	20	8	BLENDER	136	n/a	n/a	0	0	0
1437353	WORD	wordpools/wasnorm_wordpool_576.txt	LTP328	ltpFR2	20	8	DRIVER	499	n/a	n/a	0	0	0
1438969	START	n/a	LTP328	ltpFR2	20	n/a	n/a	n/a	11	n/a	n/a	n/a	n/a
1439853	DISTRACTOR	n/a	LTP328	ltpFR2	20	8	n/a	n/a	n/a	n/a	0	0	0
1439868	PROB	n/a	LTP328	ltpFR2	20	n/a	n/a	n/a	11	20	5	7	8
1443384	PROB	n/a	LTP328	ltpFR2	20	n/a	n/a	n/a	11	12	2	3	7
1444715	PROB	n/a	LTP328	ltpFR2	20	n/a	n/a	n/a	11	16	5	6	5
1446048	PROB	n/a	LTP328	ltpFR2	20	n/a	n/a	n/a	11	20	3	8	9
1447348	PROB	n/a	LTP328	ltpFR2	20	n/a	n/a	n/a	11	22	8	8	6
1450679	PROB	n/a	LTP328	ltpFR2	20	n/a	n/a	n/a	11	16	7	3	6
1451829	PROB	n/a	LTP328	ltpFR2	20	n/a	n/a	n/a	11	10	2	6	2
1454594	PROB	n/a	LTP328	ltpFR2	20	n/a	n/a	n/a	11	18	4	6	8
1456143	PROB	n/a	LTP328	ltpFR2	20	n/a	n/a	n/a	11	18	8	9	1
1457410	PROB	n/a	LTP328	ltpFR2	20	n/a	n/a	n/a	11	18	8	5	5
1458592	PROB	n/a	LTP328	ltpFR2	20	n/a	n/a	n/a	11	15	4	3	8
1460259	PROB	n/a	LTP328	ltpFR2	20	n/a	n/a	n/a	11	27	9	9	9
1461609	STOP	n/a	LTP328	ltpFR2	20	n/a	n/a	n/a	11	n/a	n/a	n/a	n/a
1464806	REC_START	n/a	LTP328	ltpFR2	20	8	n/a	n/a	n/a	n/a	0	0	0
1466657	REC_WORD	wordpools/wasnorm_wordpool_576.txt	LTP328	ltpFR2	20	8	PANTHER	1009	n/a	n/a	0	0	0
1467265	REC_WORD	wordpools/wasnorm_wordpool_576.txt	LTP328	ltpFR2	20	8	CREATURE	403	n/a	n/a	0	0	0
1467990	REC_WORD	wordpools/wasnorm_wordpool_576.txt	LTP328	ltpFR2	20	8	WIDOW	1608	n/a	n/a	0	0	0
1468676	REC_WORD	wordpools/wasnorm_wordpool_576.txt	LTP328	ltpFR2	20	8	SALMON	1227	n/a	n/a	0	0	0
1469415	REC_WORD	wordpools/wasnorm_wordpool_576.txt	LTP328	ltpFR2	20	8	APPLE	33	n/a	n/a	0	0	0
1470088	REC_WORD	wordpools/wasnorm_wordpool_576.txt	LTP328	ltpFR2	20	8	FRUIT	610	n/a	n/a	0	0	0
1470918	REC_WORD	wordpools/wasnorm_wordpool_576.txt	LTP328	ltpFR2	20	8	TRIBE	1505	n/a	n/a	0	0	0
1471725	REC_WORD	wordpools/wasnorm_wordpool_576.txt	LTP328	ltpFR2	20	8	ATOM	55	n/a	n/a	0	0	0
1472308	REC_WORD	wordpools/wasnorm_wordpool_576.txt	LTP328	ltpFR2	20	8	BLOCKADE	137	n/a	n/a	0	0	0
1474017	REC_WORD	wordpools/wasnorm_wordpool_576.txt	LTP328	ltpFR2	20	8	POSSUM	1112	n/a	n/a	0	0	0
1474592	REC_WORD	wordpools/wasnorm_wordpool_576.txt	LTP328	ltpFR2	20	8	CENT	270	n/a	n/a	0	0	0
1475844	REC_WORD	wordpools/wasnorm_wordpool_576.txt	LTP328	ltpFR2	20	8	ONION	977	n/a	n/a	0	0	0
1476790	REC_WORD	wordpools/wasnorm_wordpool_576.txt	LTP328	ltpFR2	20	8	TWIG	1527	n/a	n/a	0	0	0
1477834	REC_WORD	wordpools/wasnorm_wordpool_576.txt	LTP328	ltpFR2	20	8	BRANCH	168	n/a	n/a	0	0	0
1478390	REC_WORD	wordpools/wasnorm_wordpool_576.txt	LTP328	ltpFR2	20	8	STICKER	1382	n/a	n/a	0	0	0
1490338	REC_WORD	wordpools/wasnorm_wordpool_576.txt	LTP328	ltpFR2	20	8	CHAUFFEUR	283	n/a	n/a	0	0	0
1494708	REC_WORD	wordpools/wasnorm_wordpool_576.txt	LTP328	ltpFR2	20	8	WARDROBE	1587	n/a	n/a	0	0	0
1496097	REC_WORD	wordpools/wasnorm_wordpool_576.txt	LTP328	ltpFR2	20	8	RECORD	1176	n/a	n/a	0	0	0
1497648	REC_WORD	wordpools/wasnorm_wordpool_576.txt	LTP328	ltpFR2	20	8	BLENDER	136	n/a	n/a	0	0	0
1498760	REC_WORD	wordpools/wasnorm_wordpool_576.txt	LTP328	ltpFR2	20	8	DRIVER	499	n/a	n/a	0	0	0
1541352	REST_REWET	n/a	LTP328	ltpFR2	20	8	n/a	n/a	n/a	n/a	0	0	0
1800373	DISTRACTOR	n/a	LTP328	ltpFR2	20	9	n/a	n/a	n/a	n/a	0	0	0
1800373	START	n/a	LTP328	ltpFR2	20	n/a	n/a	n/a	12	n/a	n/a	n/a	n/a
1800390	PROB	n/a	LTP328	ltpFR2	20	n/a	n/a	n/a	12	14	8	2	4
1801888	PROB	n/a	LTP328	ltpFR2	20	n/a	n/a	n/a	12	14	9	3	2
1804753	PROB	n/a	LTP328	ltpFR2	20	n/a	n/a	n/a	12	17	1	8	8
1806119	PROB	n/a	LTP328	ltpFR2	20	n/a	n/a	n/a	12	17	8	8	1
1807186	PROB	n/a	LTP328	ltpFR2	20	n/a	n/a	n/a	12	21	8	9	4
1809484	PROB	n/a	LTP328	ltpFR2	20	n/a	n/a	n/a	12	17	9	6	2
1811234	PROB	n/a	LTP328	ltpFR2	20	n/a	n/a	n/a	12	21	3	9	9
1813082	PROB	n/a	LTP328	ltpFR2	20	n/a	n/a	n/a	12	21	8	9	4
1816464	PROB	n/a	LTP328	ltpFR2	20	n/a	n/a	n/a	12	8	1	5	2
1817597	PROB	n/a	LTP328	ltpFR2	20	n/a	n/a	n/a	12	19	8	7	4
1819113	PROB	n/a	LTP328	ltpFR2	20	n/a	n/a	n/a	12	7	5	1	1
1820112	PROB	n/a	LTP328	ltpFR2	20	n/a	n/a	n/a	12	23	5	9	9
1823033	STOP	n/a	LTP328	ltpFR2	20	n/a	n/a	n/a	12	n/a	n/a	n/a	n/a
1825443	WORD	wordpools/wasnorm_wordpool_576.txt	LTP328	ltpFR2	20	9	BOX	159	n/a	n/a	0	0	0
1828025	WORD	wordpools/wasnorm_wordpool_576.txt	LTP328	ltpFR2	20	9	CONTRACT	368	n/a	n/a	0	0	0
1830507	WORD	wordpools/wasnorm_wordpool_576.txt	LTP328	ltpFR2	20	9	BRICK	172	n/a	n/a	0	0	0
1832989	WORD	wordpools/wasnorm_wordpool_576.txt	LTP328	ltpFR2	20	9	TOURIST	1488	n/a	n/a	0	0	0
1835738	WORD	wordpools/wasnorm_wordpool_576.txt	LTP328	ltpFR2	20	9	SLIDE	1326	n/a	n/a	0	0	0
1838321	WORD	wordpools/wasnorm_wordpool_576.txt	LTP328	ltpFR2	20	9	PISTON	1076	n/a	n/a	0	0	0
1840952	WORD	wordpools/wasnorm_wordpool_576.txt	LTP328	ltpFR2	20	9	BACKBONE	66	n/a	n/a	0	0	0
1843484	WORD	wordpools/wasnorm_wordpool_576.txt	LTP328	ltpFR2	20	9	POWDER	1117	n/a	n/a	0	0	0
1846133	WORD	wordpools/wasnorm_wordpool_576.txt	LTP328	ltpFR2	20	9	THREAD	1460	n/a	n/a	0	0	0
1848898	WORD	wordpools/wasnorm_wordpool_576.txt	LTP328	ltpFR2	20	9	FLAG	573	n/a	n/a	0	0	0
1851381	WORD	wordpools/wasnorm_wordpool_576.txt	LTP328	ltpFR2	20	9	COTTAGE	384	n/a	n/a	0	0	0
1853845	WORD	wordpools/wasnorm_wordpool_576.txt	LTP328	ltpFR2	20	9	QUEEN	1149	n/a	n/a	0	0	0
1856644	WORD	wordpools/wasnorm_wordpool_576.txt	LTP328	ltpFR2	20	9	GRAPE	654	n/a	n/a	0	0	0
1859194	WORD	wordpools/wasnorm_wordpool_576.txt	LTP328	ltpFR2	20	9	GYMNAST	675	n/a	n/a	0	0	0
1861775	WORD	wordpools/wasnorm_wordpool_576.txt	LTP328	ltpFR2	20	9	MEDAL	885	n/a	n/a	0	0	0
1864424	WORD	wordpools/wasnorm_wordpool_576.txt	LTP328	ltpFR2	20	9	COFFEE	341	n/a	n/a	0	0	0
1867206	WORD	wordpools/wasnorm_wordpool_576.txt	LTP328	ltpFR2	20	9	PUDDING	1139	n/a	n/a	0	0	0
1869771	WORD	wordpools/wasnorm_wordpool_576.txt	LTP328	ltpFR2	20	9	INMATE	738	n/a	n/a	0	0	0
1872436	WORD	wordpools/wasnorm_wordpool_576.txt	LTP328	ltpFR2	20	9	OFFICE	972	n/a	n/a	0	0	0
1875035	WORD	wordpools/wasnorm_wordpool_576.txt	LTP328	ltpFR2	20	9	TRUCK	1512	n/a	n/a	0	0	0
1877517	WORD	wordpools/wasnorm_wordpool_576.txt	LTP328	ltpFR2	20	9	RUST	1219	n/a	n/a	0	0	0
1880233	WORD	wordpools/wasnorm_wordpool_576.txt	LTP328	ltpFR2	20	9	CRIB	407	n/a	n/a	0	0	0
1882881	WORD	wordpools/wasnorm_wordpool_576.txt	LTP328	ltpFR2	20	9	POISON	1096	n/a	n/a	0	0	0
1885513	WORD	wordpools/wasnorm_wordpool_576.txt	LTP328	ltpFR2	20	9	COBRA	336	n/a	n/a	0	0	0
1887129	START	n/a	LTP328	ltpFR2	20	n/a	n/a	n/a	13	n/a	n/a	n/a	n/a
1888214	DISTRACTOR	n/a	LTP328	ltpFR2	20	9	n/a	n/a	n/a	n/a	0	0	0
1888229	PROB	n/a	LTP328	ltpFR2	20	n/a	n/a	n/a	13	21	6	8	7
1890477	PROB	n/a	LTP328	ltpFR2	20	n/a	n/a	n/a	13	10	6	3	1
1891610	PROB	n/a	LTP328	ltpFR2	20	n/a	n/a	n/a	13	11	4	2	5
1892976	PROB	n/a	LTP328	ltpFR2	20	n/a	n/a	n/a	13	17	7	7	3
1894393	PROB	n/a	LTP328	ltpFR2	20	n/a	n/a	n/a	13	20	9	6	5
1897342	PROB	n/a	LTP328	ltpFR2	20	n/a	n/a	n/a	13	14	7	3	4
1899407	PROB	n/a	LTP328	ltpFR2	20	n/a	n/a	n/a	13	16	3	9	4
1901055	PROB	n/a	LTP328	ltpFR2	20	n/a	n/a	n/a	13	19	8	3	8
1902555	PROB	n/a	LTP328	ltpFR2	20	n/a	n/a	n/a	13	9	1	2	6
1904004	PROB	n/a	LTP328	ltpFR2	20	n/a	n/a	n/a	13	5	1	1	3
1905453	PROB	n/a	LTP328	ltpFR2	20	n/a	n/a	n/a	13	12	2	5	5
1906503	PROB	n/a	LTP328	ltpFR2	20	n/a	n/a	n/a	13	17	2	8	7
1908002	PROB	n/a	LTP328	ltpFR2	20	n/a	n/a	n/a	13	17	7	6	4
1911128	STOP	n/a	LTP328	ltpFR2	20	n/a	n/a	n/a	13	n/a	n/a	n/a	n/a
1913067	REC_START	n/a	LTP328	ltpFR2	20	9	n/a	n/a	n/a	n/a	0	0	0
1914068	REC_WORD	wordpools/wasnorm_wordpool_576.txt	LTP328	ltpFR2	20	9	BOX	159	n/a	n/a	0	0	0
1914703	REC_WORD	wordpools/wasnorm_wordpool_576.txt	LTP328	ltpFR2	20	9	CONTRACT	368	n/a	n/a	0	0	0
1915589	REC_WORD	wordpools/wasnorm_wordpool_576.txt	LTP328	ltpFR2	20	9	BRICK	172	n/a	n/a	0	0	0
1916243	REC_WORD	wordpools/wasnorm_wordpool_576.txt	LTP328	ltpFR2	20	9	TOURIST	1488	n/a	n/a	0	0	0
1917966	REC_WORD	wordpools/wasnorm_wordpool_576.txt	LTP328	ltpFR2	20	9	SLIDE	1326	n/a	n/a	0	0	0
1918946	REC_WORD	wordpools/wasnorm_wordpool_576.txt	LTP328	ltpFR2	20	9	PISTON	1076	n/a	n/a	0	0	0
1920997	REC_WORD	wordpools/wasnorm_wordpool_576.txt	LTP328	ltpFR2	20	9	PISTOL	1075	n/a	n/a	0	0	0
1924660	REC_WORD_VV	wordpools/wasnorm_wordpool_576.txt	LTP328	ltpFR2	20	9	<>	-1	n/a	n/a	0	0	0
1928356	REC_WORD	wordpools/wasnorm_wordpool_576.txt	LTP328	ltpFR2	20	9	BACKBONE	66	n/a	n/a	0	0	0
1929051	REC_WORD	wordpools/wasnorm_wordpool_576.txt	LTP328	ltpFR2	20	9	POWDER	1117	n/a	n/a	0	0	0
1930400	REC_WORD	wordpools/wasnorm_wordpool_576.txt	LTP328	ltpFR2	20	9	THREAD	1460	n/a	n/a	0	0	0
1933104	REC_WORD	wordpools/wasnorm_wordpool_576.txt	LTP328	ltpFR2	20	9	FLAG	573	n/a	n/a	0	0	0
1934715	REC_WORD	wordpools/wasnorm_wordpool_576.txt	LTP328	ltpFR2	20	9	COTTAGE	384	n/a	n/a	0	0	0
1935285	REC_WORD	wordpools/wasnorm_wordpool_576.txt	LTP328	ltpFR2	20	9	QUEEN	1149	n/a	n/a	0	0	0
1935927	REC_WORD	wordpools/wasnorm_wordpool_576.txt	LTP328	ltpFR2	20	9	GRAPE	654	n/a	n/a	0	0	0
1936610	REC_WORD	wordpools/wasnorm_wordpool_576.txt	LTP328	ltpFR2	20	9	GYMNAST	675	n/a	n/a	0	0	0
1937451	REC_WORD	wordpools/wasnorm_wordpool_576.txt	LTP328	ltpFR2	20	9	MEDAL	885	n/a	n/a	0	0	0
1956405	REC_WORD	wordpools/wasnorm_wordpool_576.txt	LTP328	ltpFR2	20	9	TRUCK	1512	n/a	n/a	0	0	0
1957659	REC_WORD	wordpools/wasnorm_wordpool_576.txt	LTP328	ltpFR2	20	9	POISON	1096	n/a	n/a	0	0	0
1958585	REC_WORD	wordpools/wasnorm_wordpool_576.txt	LTP328	ltpFR2	20	9	COBRA	336	n/a	n/a	0	0	0
1959895	REC_WORD	wordpools/wasnorm_wordpool_576.txt	LTP328	ltpFR2	20	9	CRIB	407	n/a	n/a	0	0	0
1962230	REC_WORD	wordpools/wasnorm_wordpool_576.txt	LTP328	ltpFR2	20	9	HOOD	714	n/a	n/a	0	0	0
1963332	REC_WORD	wordpools/wasnorm_wordpool_576.txt	LTP328	ltpFR2	20	9	RUST	1219	n/a	n/a	0	0	0
2003504	DISTRACTOR	n/a	LTP328	ltpFR2	20	10	n/a	n/a	n/a	n/a	0	0	0
2003505	START	n/a	LTP328	ltpFR2	20	n/a	n/a	n/a	14	n/a	n/a	n/a	n/a
2003521	PROB	n/a	LTP328	ltpFR2	20	n/a	n/a	n/a	14	16	3	8	5
2005720	PROB	n/a	LTP328	ltpFR2	20	n/a	n/a	n/a	14	18	6	5	7
2008303	PROB	n/a	LTP328	ltpFR2	20	n/a	n/a	n/a	14	15	3	9	3
2009835	PROB	n/a	LTP328	ltpFR2	20	n/a	n/a	n/a	14	12	4	7	1
2010984	PROB	n/a	LTP328	ltpFR2	20	n/a	n/a	n/a	14	15	2	9	4
2012666	PROB	n/a	LTP328	ltpFR2	20	n/a	n/a	n/a	14	24	9	8	7
2015715	PROB	n/a	LTP328	ltpFR2	20	n/a	n/a	n/a	14	7	1	1	5
2016831	PROB	n/a	LTP328	ltpFR2	20	n/a	n/a	n/a	14	23	6	9	8
2018763	PROB	n/a	LTP328	ltpFR2	20	n/a	n/a	n/a	14	20	5	7	8
2020297	PROB	n/a	LTP328	ltpFR2	20	n/a	n/a	n/a	14	15	8	2	5
2021380	PROB	n/a	LTP328	ltpFR2	20	n/a	n/a	n/a	14	14	6	5	3
2022861	PROB	n/a	LTP328	ltpFR2	20	n/a	n/a	n/a	14	23	6	8	9
2024412	PROB	n/a	LTP328	ltpFR2	20	n/a	n/a	n/a	14	4	1	2	1
2027505	STOP	n/a	LTP328	ltpFR2	20	n/a	n/a	n/a	14	n/a	n/a	n/a	n/a
2028425	WORD	wordpools/wasnorm_wordpool_576.txt	LTP328	ltpFR2	20	10	POLICE	1098	n/a	n/a	0	0	0
2031225	WORD	wordpools/wasnorm_wordpool_576.txt	LTP328	ltpFR2	20	10	STREAM	1392	n/a	n/a	0	0	0
2033973	WORD	wordpools/wasnorm_wordpool_576.txt	LTP328	ltpFR2	20	10	PIGMENT	1066	n/a	n/a	0	0	0
2036588	WORD	wordpools/wasnorm_wordpool_576.txt	LTP328	ltpFR2	20	10	OYSTER	995	n/a	n/a	0	0	0
2039171	WORD	wordpools/wasnorm_wordpool_576.txt	LTP328	ltpFR2	20	10	OX	994	n/a	n/a	0	0	0
2041619	WORD	wordpools/wasnorm_wordpool_576.txt	LTP328	ltpFR2	20	10	DINER	467	n/a	n/a	0	0	0
2044084	WORD	wordpools/wasnorm_wordpool_576.txt	LTP328	ltpFR2	20	10	NECKLACE	940	n/a	n/a	0	0	0
2046883	WORD	wordpools/wasnorm_wordpool_576.txt	LTP328	ltpFR2	20	10	EGYPT	519	n/a	n/a	0	0	0
2049515	WORD	wordpools/wasnorm_wordpool_576.txt	LTP328	ltpFR2	20	10	BROTHER	179	n/a	n/a	0	0	0
2052181	WORD	wordpools/wasnorm_wordpool_576.txt	LTP328	ltpFR2	20	10	CHIPMUNK	304	n/a	n/a	0	0	0
2054696	WORD	wordpools/wasnorm_wordpool_576.txt	LTP328	ltpFR2	20	10	FOX	598	n/a	n/a	0	0	0
2057444	WORD	wordpools/wasnorm_wordpool_576.txt	LTP328	ltpFR2	20	10	TURNIP	1521	n/a	n/a	0	0	0
2060060	WORD	wordpools/wasnorm_wordpool_576.txt	LTP328	ltpFR2	20	10	SUNSET	1408	n/a	n/a	0	0	0
2062842	WORD	wordpools/wasnorm_wordpool_576.txt	LTP328	ltpFR2	20	10	CATTLE	261	n/a	n/a	0	0	0
2065275	WORD	wordpools/wasnorm_wordpool_576.txt	LTP328	ltpFR2	20	10	STATUE	1374	n/a	n/a	0	0	0
2068039	WORD	wordpools/wasnorm_wordpool_576.txt	LTP328	ltpFR2	20	10	SCULPTURE	1258	n/a	n/a	0	0	0
2070821	WORD	wordpools/wasnorm_wordpool_576.txt	LTP328	ltpFR2	20	10	THRONE	1461	n/a	n/a	0	0	0
2073254	WORD	wordpools/wasnorm_wordpool_576.txt	LTP328	ltpFR2	20	10	PALACE	1006	n/a	n/a	0	0	0
2076052	WORD	wordpools/wasnorm_wordpool_576.txt	LTP328	ltpFR2	20	10	CARROT	249	n/a	n/a	0	0	0
2078750	WORD	wordpools/wasnorm_wordpool_576.txt	LTP328	ltpFR2	20	10	GLOVE	642	n/a	n/a	0	0	0
2081250	WORD	wordpools/wasnorm_wordpool_576.txt	LTP328	ltpFR2	20	10	XEROX	1628	n/a	n/a	0	0	0
2083731	WORD	wordpools/wasnorm_wordpool_576.txt	LTP328	ltpFR2	20	10	BLUEPRINT	142	n/a	n/a	0	0	0
2086164	WORD	wordpools/wasnorm_wordpool_576.txt	LTP328	ltpFR2	20	10	DONKEY	484	n/a	n/a	0	0	0
2088845	WORD	wordpools/wasnorm_wordpool_576.txt	LTP328	ltpFR2	20	10	SALAD	1224	n/a	n/a	0	0	0
2090461	START	n/a	LTP328	ltpFR2	20	n/a	n/a	n/a	15	n/a	n/a	n/a	n/a
2091623	DISTRACTOR	n/a	LTP328	ltpFR2	20	10	n/a	n/a	n/a	n/a	0	0	0
2091627	PROB	n/a	LTP328	ltpFR2	20	n/a	n/a	n/a	15	10	2	5	3
2093576	PROB	n/a	LTP328	ltpFR2	20	n/a	n/a	n/a	15	18	4	6	8
2094942	PROB	n/a	LTP328	ltpFR2	20	n/a	n/a	n/a	15	20	3	8	9
2096125	PROB	n/a	LTP328	ltpFR2	20	n/a	n/a	n/a	15	17	2	7	8
2097991	PROB	n/a	LTP328	ltpFR2	20	n/a	n/a	n/a	15	19	4	8	7
2099890	PROB	n/a	LTP328	ltpFR2	20	n/a	n/a	n/a	15	10	5	2	3
2101622	PROB	n/a	LTP328	ltpFR2	20	n/a	n/a	n/a	15	16	7	1	8
2103055	PROB	n/a	LTP328	ltpFR2	20	n/a	n/a	n/a	15	16	6	1	9
2104754	PROB	n/a	LTP328	ltpFR2	20	n/a	n/a	n/a	15	13	9	3	1
2105953	PROB	n/a	LTP328	ltpFR2	20	n/a	n/a	n/a	15	11	3	7	1
2107287	PROB	n/a	LTP328	ltpFR2	20	n/a	n/a	n/a	15	14	7	1	6
2108585	PROB	n/a	LTP328	ltpFR2	20	n/a	n/a	n/a	15	14	1	4	9
2109802	PROB	n/a	LTP328	ltpFR2	20	n/a	n/a	n/a	15	15	5	8	2
2111402	PROB	n/a	LTP328	ltpFR2	20	n/a	n/a	n/a	15	13	5	1	7
2112600	PROB	n/a	LTP328	ltpFR2	20	n/a	n/a	n/a	15	9	3	4	2
2113969	STOP	n/a	LTP328	ltpFR2	20	n/a	n/a	n/a	15	n/a	n/a	n/a	n/a
2116283	REC_START	n/a	LTP328	ltpFR2	20	10	n/a	n/a	n/a	n/a	0	0	0
2120104	REC_WORD	wordpools/wasnorm_wordpool_576.txt	LTP328	ltpFR2	20	10	POLICE	1098	n/a	n/a	0	0	0
2120687	REC_WORD	wordpools/wasnorm_wordpool_576.txt	LTP328	ltpFR2	20	10	PIGMENT	1066	n/a	n/a	0	0	0
2121443	REC_WORD	wordpools/wasnorm_wordpool_576.txt	LTP328	ltpFR2	20	10	OYSTER	995	n/a	n/a	0	0	0
2122110	REC_WORD	wordpools/wasnorm_wordpool_576.txt	LTP328	ltpFR2	20	10	OX	994	n/a	n/a	0	0	0
2123278	REC_WORD	wordpools/wasnorm_wordpool_576.txt	LTP328	ltpFR2	20	10	STREAM	1392	n/a	n/a	0	0	0
2125087	REC_WORD	wordpools/wasnorm_wordpool_576.txt	LTP328	ltpFR2	20	10	DINER	467	n/a	n/a	0	0	0
2125739	REC_WORD	wordpools/wasnorm_wordpool_576.txt	LTP328	ltpFR2	20	10	NECKLACE	940	n/a	n/a	0	0	0
2126396	REC_WORD	wordpools/wasnorm_wordpool_576.txt	LTP328	ltpFR2	20	10	EGYPT	519	n/a	n/a	0	0	0
2127425	REC_WORD	wordpools/wasnorm_wordpool_576.txt	LTP328	ltpFR2	20	10	BROTHER	179	n/a	n/a	0	0	0
2128018	REC_WORD	wordpools/wasnorm_wordpool_576.txt	LTP328	ltpFR2	20	10	CHIPMUNK	304	n/a	n/a	0	0	0
2128620	REC_WORD	wordpools/wasnorm_wordpool_576.txt	LTP328	ltpFR2	20	10	FOX	598	n/a	n/a	0	0	0
2130213	REC_WORD	wordpools/wasnorm_wordpool_576.txt	LTP328	ltpFR2	20	10	TURNIP	1521	n/a	n/a	0	0	0
2130966	REC_WORD	wordpools/wasnorm_wordpool_576.txt	LTP328	ltpFR2	20	10	SUNSET	1408	n/a	n/a	0	0	0
2133064	REC_WORD	wordpools/wasnorm_wordpool_576.txt	LTP328	ltpFR2	20	10	STATUE	1374	n/a	n/a	0	0	0
2133710	REC_WORD	wordpools/wasnorm_wordpool_576.txt	LTP328	ltpFR2	20	10	SCULPTURE	1258	n/a	n/a	0	0	0
2134718	REC_WORD	wordpools/wasnorm_wordpool_576.txt	LTP328	ltpFR2	20	10	CATTLE	261	n/a	n/a	0	0	0
2136057	REC_WORD	wordpools/wasnorm_wordpool_576.txt	LTP328	ltpFR2	20	10	CARROT	249	n/a	n/a	0	0	0
2137019	REC_WORD	wordpools/wasnorm_wordpool_576.txt	LTP328	ltpFR2	20	10	THRONE	1461	n/a	n/a	0	0	0
2137486	REC_WORD	wordpools/wasnorm_wordpool_576.txt	LTP328	ltpFR2	20	10	PALACE	1006	n/a	n/a	0	0	0
2138263	REC_WORD	wordpools/wasnorm_wordpool_576.txt	LTP328	ltpFR2	20	10	XEROX	1628	n/a	n/a	0	0	0
2138894	REC_WORD	wordpools/wasnorm_wordpool_576.txt	LTP328	ltpFR2	20	10	BLUEPRINT	142	n/a	n/a	0	0	0
2139669	REC_WORD	wordpools/wasnorm_wordpool_576.txt	LTP328	ltpFR2	20	10	DONKEY	484	n/a	n/a	0	0	0
2206737	DISTRACTOR	n/a	LTP328	ltpFR2	20	11	n/a	n/a	n/a	n/a	0	0	0
2206737	START	n/a	LTP328	ltpFR2	20	n/a	n/a	n/a	16	n/a	n/a	n/a	n/a
2206753	PROB	n/a	LTP328	ltpFR2	20	n/a	n/a	n/a	16	18	8	6	4
2208337	PROB	n/a	LTP328	ltpFR2	20	n/a	n/a	n/a	16	21	7	5	9
2209818	PROB	n/a	LTP328	ltpFR2	20	n/a	n/a	n/a	16	14	2	4	8
2211601	PROB	n/a	LTP328	ltpFR2	20	n/a	n/a	n/a	16	16	5	6	5
2212834	PROB	n/a	LTP328	ltpFR2	20	n/a	n/a	n/a	16	18	7	5	6
2214599	PROB	n/a	LTP328	ltpFR2	20	n/a	n/a	n/a	16	16	5	4	7
2216948	PROB	n/a	LTP328	ltpFR2	20	n/a	n/a	n/a	16	14	3	6	5
2218464	PROB	n/a	LTP328	ltpFR2	20	n/a	n/a	n/a	16	8	4	2	2
2219863	PROB	n/a	LTP328	ltpFR2	20	n/a	n/a	n/a	16	16	4	5	7
2221529	PROB	n/a	LTP328	ltpFR2	20	n/a	n/a	n/a	16	6	3	1	2
2222912	PROB	n/a	LTP328	ltpFR2	20	n/a	n/a	n/a	16	18	3	7	8
2224594	PROB	n/a	LTP328	ltpFR2	20	n/a	n/a	n/a	16	19	6	5	8
2226010	PROB	n/a	LTP328	ltpFR2	20	n/a	n/a	n/a	16	14	3	9	2
2227793	PROB	n/a	LTP328	ltpFR2	20	n/a	n/a	n/a	16	22	7	9	6
2230298	STOP	n/a	LTP328	ltpFR2	20	n/a	n/a	n/a	16	n/a	n/a	n/a	n/a
2231791	WORD	wordpools/wasnorm_wordpool_576.txt	LTP328	ltpFR2	20	11	RAFT	1159	n/a	n/a	0	0	0
2234357	WORD	wordpools/wasnorm_wordpool_576.txt	LTP328	ltpFR2	20	11	PRIMATE	1123	n/a	n/a	0	0	0
2236838	WORD	wordpools/wasnorm_wordpool_576.txt	LTP328	ltpFR2	20	11	RUG	1215	n/a	n/a	0	0	0
2239271	WORD	wordpools/wasnorm_wordpool_576.txt	LTP328	ltpFR2	20	11	BLOUSE	139	n/a	n/a	0	0	0
2241769	WORD	wordpools/wasnorm_wordpool_576.txt	LTP328	ltpFR2	20	11	ITEM	746	n/a	n/a	0	0	0
2244286	WORD	wordpools/wasnorm_wordpool_576.txt	LTP328	ltpFR2	20	11	PARTNER	1017	n/a	n/a	0	0	0
2247050	WORD	wordpools/wasnorm_wordpool_576.txt	LTP328	ltpFR2	20	11	TROMBONE	1508	n/a	n/a	0	0	0
2249615	WORD	wordpools/wasnorm_wordpool_576.txt	LTP328	ltpFR2	20	11	FLASHLIGHT	575	n/a	n/a	0	0	0
2252365	WORD	wordpools/wasnorm_wordpool_576.txt	LTP328	ltpFR2	20	11	BOUQUET	157	n/a	n/a	0	0	0
2255013	WORD	wordpools/wasnorm_wordpool_576.txt	LTP328	ltpFR2	20	11	FIDDLE	561	n/a	n/a	0	0	0
2257545	WORD	wordpools/wasnorm_wordpool_576.txt	LTP328	ltpFR2	20	11	CONCERT	360	n/a	n/a	0	0	0
2259994	WORD	wordpools/wasnorm_wordpool_576.txt	LTP328	ltpFR2	20	11	TYPIST	1532	n/a	n/a	0	0	0
2262626	WORD	wordpools/wasnorm_wordpool_576.txt	LTP328	ltpFR2	20	11	PAPER	1011	n/a	n/a	0	0	0
2265424	WORD	wordpools/wasnorm_wordpool_576.txt	LTP328	ltpFR2	20	11	JELLO	754	n/a	n/a	0	0	0
2268139	WORD	wordpools/wasnorm_wordpool_576.txt	LTP328	ltpFR2	20	11	PATIENT	1024	n/a	n/a	0	0	0
2270805	WORD	wordpools/wasnorm_wordpool_576.txt	LTP328	ltpFR2	20	11	JUNGLE	764	n/a	n/a	0	0	0
2273305	WORD	wordpools/wasnorm_wordpool_576.txt	LTP328	ltpFR2	20	11	HAMPER	682	n/a	n/a	0	0	0
2275736	WORD	wordpools/wasnorm_wordpool_576.txt	LTP328	ltpFR2	20	11	ICEBERG	731	n/a	n/a	0	0	0
2278551	WORD	wordpools/wasnorm_wordpool_576.txt	LTP328	ltpFR2	20	11	SCALPEL	1243	n/a	n/a	0	0	0
2281116	WORD	wordpools/wasnorm_wordpool_576.txt	LTP328	ltpFR2	20	11	GHETTO	633	n/a	n/a	0	0	0
2283765	WORD	wordpools/wasnorm_wordpool_576.txt	LTP328	ltpFR2	20	11	COUNTRY	388	n/a	n/a	0	0	0
2286348	WORD	wordpools/wasnorm_wordpool_576.txt	LTP328	ltpFR2	20	11	JEANS	752	n/a	n/a	0	0	0
2289146	WORD	wordpools/wasnorm_wordpool_576.txt	LTP328	ltpFR2	20	11	POCKET	1093	n/a	n/a	0	0	0
2291728	WORD	wordpools/wasnorm_wordpool_576.txt	LTP328	ltpFR2	20	11	LAMP	798	n/a	n/a	0	0	0
2293345	START	n/a	LTP328	ltpFR2	20	n/a	n/a	n/a	17	n/a	n/a	n/a	n/a
2294501	DISTRACTOR	n/a	LTP328	ltpFR2	20	11	n/a	n/a	n/a	n/a	0	0	0
2294510	PROB	n/a	LTP328	ltpFR2	20	n/a	n/a	n/a	17	19	5	8	6
2296509	PROB	n/a	LTP328	ltpFR2	20	n/a	n/a	n/a	17	15	8	6	1
2297841	PROB	n/a	LTP328	ltpFR2	20	n/a	n/a	n/a	17	19	4	9	6
2300707	PROB	n/a	LTP328	ltpFR2	20	n/a	n/a	n/a	17	15	5	4	6
2303589	PROB	n/a	LTP328	ltpFR2	20	n/a	n/a	n/a	17	23	8	7	8
2305704	PROB	n/a	LTP328	ltpFR2	20	n/a	n/a	n/a	17	15	6	5	4
2307404	PROB	n/a	LTP328	ltpFR2	20	n/a	n/a	n/a	17	7	1	2	4
2308803	PROB	n/a	LTP328	ltpFR2	20	n/a	n/a	n/a	17	23	6	8	9
2310852	PROB	n/a	LTP328	ltpFR2	20	n/a	n/a	n/a	17	14	5	6	3
2312385	PROB	n/a	LTP328	ltpFR2	20	n/a	n/a	n/a	17	18	6	5	7
2313850	PROB	n/a	LTP328	ltpFR2	20	n/a	n/a	n/a	17	14	3	7	4
2315083	PROB	n/a	LTP328	ltpFR2	20	n/a	n/a	n/a	17	12	4	4	4
2316418	STOP	n/a	LTP328	ltpFR2	20	n/a	n/a	n/a	17	n/a	n/a	n/a	n/a
2319115	REC_START	n/a	LTP328	ltpFR2	20	11	n/a	n/a	n/a	n/a	0	0	0
2320725	REC_WORD	wordpools/wasnorm_wordpool_576.txt	LTP328	ltpFR2	20	11	RAFT	1159	n/a	n/a	0	0	0
2322199	REC_WORD	wordpools/wasnorm_wordpool_576.txt	LTP328	ltpFR2	20	11	PRIMATE	1123	n/a	n/a	0	0	0
2322914	REC_WORD	wordpools/wasnorm_wordpool_576.txt	LTP328	ltpFR2	20	11	PARTNER	1017	n/a	n/a	0	0	0
2324599	REC_WORD	wordpools/wasnorm_wordpool_576.txt	LTP328	ltpFR2	20	11	TROMBONE	1508	n/a	n/a	0	0	0
2328255	REC_WORD	wordpools/wasnorm_wordpool_576.txt	LTP328	ltpFR2	20	11	ITEM	746	n/a	n/a	0	0	0
2329351	REC_WORD	wordpools/wasnorm_wordpool_576.txt	LTP328	ltpFR2	20	11	FIDDLE	561	n/a	n/a	0	0	0
2330281	REC_WORD	wordpools/wasnorm_wordpool_576.txt	LTP328	ltpFR2	20	11	CONCERT	360	n/a	n/a	0	0	0
2331109	REC_WORD	wordpools/wasnorm_wordpool_576.txt	LTP328	ltpFR2	20	11	TYPIST	1532	n/a	n/a	0	0	0
2331884	REC_WORD	wordpools/wasnorm_wordpool_576.txt	LTP328	ltpFR2	20	11	JELLO	754	n/a	n/a	0	0	0
2332487	REC_WORD	wordpools/wasnorm_wordpool_576.txt	LTP328	ltpFR2	20	11	PAPER	1011	n/a	n/a	0	0	0
2334563	REC_WORD	wordpools/wasnorm_wordpool_576.txt	LTP328	ltpFR2	20	11	PATIENT	1024	n/a	n/a	0	0	0
2335162	REC_WORD	wordpools/wasnorm_wordpool_576.txt	LTP328	ltpFR2	20	11	JUNGLE	764	n/a	n/a	0	0	0
2336272	REC_WORD	wordpools/wasnorm_wordpool_576.txt	LTP328	ltpFR2	20	11	HAMPER	682	n/a	n/a	0	0	0
2336917	REC_WORD	wordpools/wasnorm_wordpool_576.txt	LTP328	ltpFR2	20	11	ICEBERG	731	n/a	n/a	0	0	0
2337599	REC_WORD	wordpools/wasnorm_wordpool_576.txt	LTP328	ltpFR2	20	11	SCALPEL	1243	n/a	n/a	0	0	0
2338373	REC_WORD	wordpools/wasnorm_wordpool_576.txt	LTP328	ltpFR2	20	11	GHETTO	633	n/a	n/a	0	0	0
2338921	REC_WORD	wordpools/wasnorm_wordpool_576.txt	LTP328	ltpFR2	20	11	COUNTRY	388	n/a	n/a	0	0	0
2409569	WORD	wordpools/wasnorm_wordpool_576.txt	LTP328	ltpFR2	20	12	PEANUT	1032	n/a	n/a	0	0	0
2412385	WORD	wordpools/wasnorm_wordpool_576.txt	LTP328	ltpFR2	20	12	GARDEN	623	n/a	n/a	0	0	0
2415067	WORD	wordpools/wasnorm_wordpool_576.txt	LTP328	ltpFR2	20	12	SHERIFF	1284	n/a	n/a	0	0	0
2417599	WORD	wordpools/wasnorm_wordpool_576.txt	LTP328	ltpFR2	20	12	AGENT	10	n/a	n/a	0	0	0
2420114	WORD	wordpools/wasnorm_wordpool_576.txt	LTP328	ltpFR2	20	12	PROTON	1132	n/a	n/a	0	0	0
2422563	WORD	wordpools/wasnorm_wordpool_576.txt	LTP328	ltpFR2	20	12	ELBOW	520	n/a	n/a	0	0	0
2425329	WORD	wordpools/wasnorm_wordpool_576.txt	LTP328	ltpFR2	20	12	COUNTY	389	n/a	n/a	0	0	0
2427777	WORD	wordpools/wasnorm_wordpool_576.txt	LTP328	ltpFR2	20	12	VAGRANT	1544	n/a	n/a	0	0	0
2430310	WORD	wordpools/wasnorm_wordpool_576.txt	LTP328	ltpFR2	20	12	RABBIT	1152	n/a	n/a	0	0	0
2432974	WORD	wordpools/wasnorm_wordpool_576.txt	LTP328	ltpFR2	20	12	ORANGE	980	n/a	n/a	0	0	0
2435723	WORD	wordpools/wasnorm_wordpool_576.txt	LTP328	ltpFR2	20	12	GUARD	667	n/a	n/a	0	0	0
2438505	WORD	wordpools/wasnorm_wordpool_576.txt	LTP328	ltpFR2	20	12	LADY	794	n/a	n/a	0	0	0
2441087	WORD	wordpools/wasnorm_wordpool_576.txt	LTP328	ltpFR2	20	12	STAPLE	1371	n/a	n/a	0	0	0
2443686	WORD	wordpools/wasnorm_wordpool_576.txt	LTP328	ltpFR2	20	12	CITRUS	313	n/a	n/a	0	0	0
2446151	WORD	wordpools/wasnorm_wordpool_576.txt	LTP328	ltpFR2	20	12	GIRL	637	n/a	n/a	0	0	0
2448600	WORD	wordpools/wasnorm_wordpool_576.txt	LTP328	ltpFR2	20	12	FINGER	567	n/a	n/a	0	0	0
2451366	WORD	wordpools/wasnorm_wordpool_576.txt	LTP328	ltpFR2	20	12	LODGE	839	n/a	n/a	0	0	0
2453831	WORD	wordpools/wasnorm_wordpool_576.txt	LTP328	ltpFR2	20	12	HANDBAG	684	n/a	n/a	0	0	0
2456579	WORD	wordpools/wasnorm_wordpool_576.txt	LTP328	ltpFR2	20	12	CASKET	255	n/a	n/a	0	0	0
2459262	WORD	wordpools/wasnorm_wordpool_576.txt	LTP328	ltpFR2	20	12	MUFFIN	929	n/a	n/a	0	0	0
2461777	WORD	wordpools/wasnorm_wordpool_576.txt	LTP328	ltpFR2	20	12	BARREL	91	n/a	n/a	0	0	0
2464475	WORD	wordpools/wasnorm_wordpool_576.txt	LTP328	ltpFR2	20	12	BOYFRIEND	162	n/a	n/a	0	0	0
2467275	WORD	wordpools/wasnorm_wordpool_576.txt	LTP328	ltpFR2	20	12	EUROPE	541	n/a	n/a	0	0	0
2469989	WORD	wordpools/wasnorm_wordpool_576.txt	LTP328	ltpFR2	20	12	LONDON	843	n/a	n/a	0	0	0
2471605	START	n/a	LTP328	ltpFR2	20	n/a	n/a	n/a	18	n/a	n/a	n/a	n/a
2472657	DISTRACTOR	n/a	LTP328	ltpFR2	20	12	n/a	n/a	n/a	n/a	0	0	0
2472671	PROB	n/a	LTP328	ltpFR2	20	n/a	n/a	n/a	18	17	8	3	6
2474504	PROB	n/a	LTP328	ltpFR2	20	n/a	n/a	n/a	18	16	1	7	8
2475803	PROB	n/a	LTP328	ltpFR2	20	n/a	n/a	n/a	18	15	7	4	4
2477320	PROB	n/a	LTP328	ltpFR2	20	n/a	n/a	n/a	18	10	1	2	7
2478468	PROB	n/a	LTP328	ltpFR2	20	n/a	n/a	n/a	18	9	3	3	3
2479484	PROB	n/a	LTP328	ltpFR2	20	n/a	n/a	n/a	18	14	3	2	9
2480867	PROB	n/a	LTP328	ltpFR2	20	n/a	n/a	n/a	18	16	9	2	5
2482417	PROB	n/a	LTP328	ltpFR2	20	n/a	n/a	n/a	18	10	1	3	6
2483632	PROB	n/a	LTP328	ltpFR2	20	n/a	n/a	n/a	18	18	9	7	2
2485333	PROB	n/a	LTP328	ltpFR2	20	n/a	n/a	n/a	18	16	7	1	8
2486614	PROB	n/a	LTP328	ltpFR2	20	n/a	n/a	n/a	18	13	1	3	9
2487864	PROB	n/a	LTP328	ltpFR2	20	n/a	n/a	n/a	18	11	4	3	4
2490579	PROB	n/a	LTP328	ltpFR2	20	n/a	n/a	n/a	18	22	9	7	6
2492246	PROB	n/a	LTP328	ltpFR2	20	n/a	n/a	n/a	18	17	4	7	6
2493911	PROB	n/a	LTP328	ltpFR2	20	n/a	n/a	n/a	18	12	1	3	8
2494881	STOP	n/a	LTP328	ltpFR2	20	n/a	n/a	n/a	18	n/a	n/a	n/a	n/a
2497377	REC_START	n/a	LTP328	ltpFR2	20	12	n/a	n/a	n/a	n/a	0	0	0
2499892	REC_WORD	wordpools/wasnorm_wordpool_576.txt	LTP328	ltpFR2	20	12	SHERIFF	1284	n/a	n/a	0	0	0
2500735	REC_WORD	wordpools/wasnorm_wordpool_576.txt	LTP328	ltpFR2	20	12	PEANUT	1032	n/a	n/a	0	0	0
2501356	REC_WORD	wordpools/wasnorm_wordpool_576.txt	LTP328	ltpFR2	20	12	GARDEN	623	n/a	n/a	0	0	0
2502236	REC_WORD	wordpools/wasnorm_wordpool_576.txt	LTP328	ltpFR2	20	12	AGENT	10	n/a	n/a	0	0	0
2510611	REC_WORD	wordpools/wasnorm_wordpool_576.txt	LTP328	ltpFR2	20	12	ELBOW	520	n/a	n/a	0	0	0
2511267	REC_WORD	wordpools/wasnorm_wordpool_576.txt	LTP328	ltpFR2	20	12	COUNTY	389	n/a	n/a	0	0	0
2512523	REC_WORD	wordpools/wasnorm_wordpool_576.txt	LTP328	ltpFR2	20	12	VAGRANT	1544	n/a	n/a	0	0	0
2513436	REC_WORD	wordpools/wasnorm_wordpool_576.txt	LTP328	ltpFR2	20	12	ORANGE	980	n/a	n/a	0	0	0
2514225	REC_WORD	wordpools/wasnorm_wordpool_576.txt	LTP328	ltpFR2	20	12	RABBIT	1152	n/a	n/a	0	0	0
2517068	REC_WORD	wordpools/wasnorm_wordpool_576.txt	LTP328	ltpFR2	20	12	STAPLE	1371	n/a	n/a	0	0	0
2519507	REC_WORD	wordpools/wasnorm_wordpool_576.txt	LTP328	ltpFR2	20	12	CITRUS	313	n/a	n/a	0	0	0
2521442	REC_WORD	wordpools/wasnorm_wordpool_576.txt	LTP328	ltpFR2	20	12	GIRL	637	n/a	n/a	0	0	0
2524474	REC_WORD	wordpools/wasnorm_wordpool_576.txt	LTP328	ltpFR2	20	12	CASKET	255	n/a	n/a	0	0	0
2526953	REC_WORD	wordpools/wasnorm_wordpool_576.txt	LTP328	ltpFR2	20	12	MUFFIN	929	n/a	n/a	0	0	0
2529537	REC_WORD	wordpools/wasnorm_wordpool_576.txt	LTP328	ltpFR2	20	12	BARREL	91	n/a	n/a	0	0	0
2530301	REC_WORD	wordpools/wasnorm_wordpool_576.txt	LTP328	ltpFR2	20	12	BOYFRIEND	162	n/a	n/a	0	0	0
2531094	REC_WORD	wordpools/wasnorm_wordpool_576.txt	LTP328	ltpFR2	20	12	EUROPE	541	n/a	n/a	0	0	0
2531712	REC_WORD	wordpools/wasnorm_wordpool_576.txt	LTP328	ltpFR2	20	12	LONDON	843	n/a	n/a	0	0	0
2587814	DISTRACTOR	n/a	LTP328	ltpFR2	20	13	n/a	n/a	n/a	n/a	0	0	0
2587814	START	n/a	LTP328	ltpFR2	20	n/a	n/a	n/a	19	n/a	n/a	n/a	n/a
2587831	PROB	n/a	LTP328	ltpFR2	20	n/a	n/a	n/a	19	9	1	5	3
2589414	PROB	n/a	LTP328	ltpFR2	20	n/a	n/a	n/a	19	12	2	8	2
2591012	PROB	n/a	LTP328	ltpFR2	20	n/a	n/a	n/a	19	16	1	9	6
2592246	PROB	n/a	LTP328	ltpFR2	20	n/a	n/a	n/a	19	19	3	9	7
2594245	PROB	n/a	LTP328	ltpFR2	20	n/a	n/a	n/a	19	23	7	7	9
2595743	PROB	n/a	LTP328	ltpFR2	20	n/a	n/a	n/a	19	18	7	5	6
2598293	PROB	n/a	LTP328	ltpFR2	20	n/a	n/a	n/a	19	15	8	1	6
2599508	PROB	n/a	LTP328	ltpFR2	20	n/a	n/a	n/a	19	20	5	9	6
2602507	PROB	n/a	LTP328	ltpFR2	20	n/a	n/a	n/a	19	21	8	9	4
2604489	PROB	n/a	LTP328	ltpFR2	20	n/a	n/a	n/a	19	20	7	7	6
2605972	PROB	n/a	LTP328	ltpFR2	20	n/a	n/a	n/a	19	10	3	2	5
2607704	PROB	n/a	LTP328	ltpFR2	20	n/a	n/a	n/a	19	25	8	9	8
2609404	PROB	n/a	LTP328	ltpFR2	20	n/a	n/a	n/a	19	14	8	5	1
2610865	STOP	n/a	LTP328	ltpFR2	20	n/a	n/a	n/a	19	n/a	n/a	n/a	n/a
2612852	WORD	wordpools/wasnorm_wordpool_576.txt	LTP328	ltpFR2	20	13	SCISSORS	1250	n/a	n/a	0	0	0
2615335	WORD	wordpools/wasnorm_wordpool_576.txt	LTP328	ltpFR2	20	13	HATCHET	691	n/a	n/a	0	0	0
2618082	WORD	wordpools/wasnorm_wordpool_576.txt	LTP328	ltpFR2	20	13	TUBA	1515	n/a	n/a	0	0	0
2620714	WORD	wordpools/wasnorm_wordpool_576.txt	LTP328	ltpFR2	20	13	LUMBER	848	n/a	n/a	0	0	0
2623281	WORD	wordpools/wasnorm_wordpool_576.txt	LTP328	ltpFR2	20	13	PRINCESS	1125	n/a	n/a	0	0	0
2626045	WORD	wordpools/wasnorm_wordpool_576.txt	LTP328	ltpFR2	20	13	FLUTE	585	n/a	n/a	0	0	0
2628694	WORD	wordpools/wasnorm_wordpool_576.txt	LTP328	ltpFR2	20	13	AIRPORT	13	n/a	n/a	0	0	0
2631293	WORD	wordpools/wasnorm_wordpool_576.txt	LTP328	ltpFR2	20	13	COWBOY	395	n/a	n/a	0	0	0
2633891	WORD	wordpools/wasnorm_wordpool_576.txt	LTP328	ltpFR2	20	13	INFANT	737	n/a	n/a	0	0	0
2636357	WORD	wordpools/wasnorm_wordpool_576.txt	LTP328	ltpFR2	20	13	DRESSER	496	n/a	n/a	0	0	0
2638855	WORD	wordpools/wasnorm_wordpool_576.txt	LTP328	ltpFR2	20	13	SOFTBALL	1343	n/a	n/a	0	0	0
2641305	WORD	wordpools/wasnorm_wordpool_576.txt	LTP328	ltpFR2	20	13	FRIEND	606	n/a	n/a	0	0	0
2644019	WORD	wordpools/wasnorm_wordpool_576.txt	LTP328	ltpFR2	20	13	LOVER	846	n/a	n/a	0	0	0
2646618	WORD	wordpools/wasnorm_wordpool_576.txt	LTP328	ltpFR2	20	13	BEAVER	109	n/a	n/a	0	0	0
2649201	WORD	wordpools/wasnorm_wordpool_576.txt	LTP328	ltpFR2	20	13	BADGE	68	n/a	n/a	0	0	0
2651915	WORD	wordpools/wasnorm_wordpool_576.txt	LTP328	ltpFR2	20	13	NAPKIN	937	n/a	n/a	0	0	0
2654647	WORD	wordpools/wasnorm_wordpool_576.txt	LTP328	ltpFR2	20	13	SPARROW	1347	n/a	n/a	0	0	0
2657146	WORD	wordpools/wasnorm_wordpool_576.txt	LTP328	ltpFR2	20	13	ROOSTER	1209	n/a	n/a	0	0	0
2659595	WORD	wordpools/wasnorm_wordpool_576.txt	LTP328	ltpFR2	20	13	ZEBRA	1635	n/a	n/a	0	0	0
2662060	WORD	wordpools/wasnorm_wordpool_576.txt	LTP328	ltpFR2	20	13	MUSTARD	935	n/a	n/a	0	0	0
2664776	WORD	wordpools/wasnorm_wordpool_576.txt	LTP328	ltpFR2	20	13	GRILL	661	n/a	n/a	0	0	0
2667574	WORD	wordpools/wasnorm_wordpool_576.txt	LTP328	ltpFR2	20	13	ORCHID	982	n/a	n/a	0	0	0
2670374	WORD	wordpools/wasnorm_wordpool_576.txt	LTP328	ltpFR2	20	13	SUBWAY	1400	n/a	n/a	0	0	0
2673038	WORD	wordpools/wasnorm_wordpool_576.txt	LTP328	ltpFR2	20	13	KLEENEX	782	n/a	n/a	0	0	0
2674654	START	n/a	LTP328	ltpFR2	20	n/a	n/a	n/a	20	n/a	n/a	n/a	n/a
2675778	DISTRACTOR	n/a	LTP328	ltpFR2	20	13	n/a	n/a	n/a	n/a	0	0	0
2675787	PROB	n/a	LTP328	ltpFR2	20	n/a	n/a	n/a	20	9	2	6	1
2677869	PROB	n/a	LTP328	ltpFR2	20	n/a	n/a	n/a	20	21	8	9	4
2679968	PROB	n/a	LTP328	ltpFR2	20	n/a	n/a	n/a	20	10	1	1	8
2681068	PROB	n/a	LTP328	ltpFR2	20	n/a	n/a	n/a	20	15	1	6	8
2682251	PROB	n/a	LTP328	ltpFR2	20	n/a	n/a	n/a	20	13	4	8	1
2683367	PROB	n/a	LTP328	ltpFR2	20	n/a	n/a	n/a	20	13	4	5	4
2685217	PROB	n/a	LTP328	ltpFR2	20	n/a	n/a	n/a	20	20	8	9	3
2686881	PROB	n/a	LTP328	ltpFR2	20	n/a	n/a	n/a	20	21	4	8	9
2688047	PROB	n/a	LTP328	ltpFR2	20	n/a	n/a	n/a	20	16	3	5	8
2689780	PROB	n/a	LTP328	ltpFR2	20	n/a	n/a	n/a	20	11	1	8	2
2690846	PROB	n/a	LTP328	ltpFR2	20	n/a	n/a	n/a	20	14	2	5	7
2692595	PROB	n/a	LTP328	ltpFR2	20	n/a	n/a	n/a	20	14	2	7	5
2694195	PROB	n/a	LTP328	ltpFR2	20	n/a	n/a	n/a	20	20	9	5	6
2696793	PROB	n/a	LTP328	ltpFR2	20	n/a	n/a	n/a	20	19	8	3	8
2698186	STOP	n/a	LTP328	ltpFR2	20	n/a	n/a	n/a	20	n/a	n/a	n/a	n/a
2700542	REC_START	n/a	LTP328	ltpFR2	20	13	n/a	n/a	n/a	n/a	0	0	0
2701163	REC_WORD	wordpools/wasnorm_wordpool_576.txt	LTP328	ltpFR2	20	13	ORCHID	982	n/a	n/a	0	0	0
2701682	REC_WORD	wordpools/wasnorm_wordpool_576.txt	LTP328	ltpFR2	20	13	SUBWAY	1400	n/a	n/a	0	0	0
2702447	REC_WORD	wordpools/wasnorm_wordpool_576.txt	LTP328	ltpFR2	20	13	KLEENEX	782	n/a	n/a	0	0	0
2703854	REC_WORD	wordpools/wasnorm_wordpool_576.txt	LTP328	ltpFR2	20	13	HATCHET	691	n/a	n/a	0	0	0
2704405	REC_WORD	wordpools/wasnorm_wordpool_576.txt	LTP328	ltpFR2	20	13	SCISSORS	1250	n/a	n/a	0	0	0
2705230	REC_WORD	wordpools/wasnorm_wordpool_576.txt	LTP328	ltpFR2	20	13	TUBA	1515	n/a	n/a	0	0	0
2705964	REC_WORD	wordpools/wasnorm_wordpool_576.txt	LTP328	ltpFR2	20	13	LUMBER	848	n/a	n/a	0	0	0
2706720	REC_WORD	wordpools/wasnorm_wordpool_576.txt	LTP328	ltpFR2	20	13	PRINCESS	1125	n/a	n/a	0	0	0
2707387	REC_WORD	wordpools/wasnorm_wordpool_576.txt	LTP328	ltpFR2	20	13	FLUTE	585	n/a	n/a	0	0	0
2708570	REC_WORD	wordpools/wasnorm_wordpool_576.txt	LTP328	ltpFR2	20	13	AIRPORT	13	n/a	n/a	0	0	0
2709270	REC_WORD	wordpools/wasnorm_wordpool_576.txt	LTP328	ltpFR2	20	13	COWBOY	395	n/a	n/a	0	0	0
2710038	REC_WORD	wordpools/wasnorm_wordpool_576.txt	LTP328	ltpFR2	20	13	INFANT	737	n/a	n/a	0	0	0
2710743	REC_WORD	wordpools/wasnorm_wordpool_576.txt	LTP328	ltpFR2	20	13	DRESSER	496	n/a	n/a	0	0	0
2713354	REC_WORD	wordpools/wasnorm_wordpool_576.txt	LTP328	ltpFR2	20	13	MUSTARD	935	n/a	n/a	0	0	0
2714824	REC_WORD	wordpools/wasnorm_wordpool_576.txt	LTP328	ltpFR2	20	13	NAPKIN	937	n/a	n/a	0	0	0
2715651	REC_WORD	wordpools/wasnorm_wordpool_576.txt	LTP328	ltpFR2	20	13	GRILL	661	n/a	n/a	0	0	0
2719579	REC_WORD	wordpools/wasnorm_wordpool_576.txt	LTP328	ltpFR2	20	13	SOFTBALL	1343	n/a	n/a	0	0	0
2723500	REC_WORD	wordpools/wasnorm_wordpool_576.txt	LTP328	ltpFR2	20	13	LOVER	846	n/a	n/a	0	0	0
2724203	REC_WORD	wordpools/wasnorm_wordpool_576.txt	LTP328	ltpFR2	20	13	BEAVER	109	n/a	n/a	0	0	0
2790980	DISTRACTOR	n/a	LTP328	ltpFR2	20	14	n/a	n/a	n/a	n/a	0	0	0
2790980	START	n/a	LTP328	ltpFR2	20	n/a	n/a	n/a	21	n/a	n/a	n/a	n/a
2790996	PROB	n/a	LTP328	ltpFR2	20	n/a	n/a	n/a	21	20	5	7	8
2793145	PROB	n/a	LTP328	ltpFR2	20	n/a	n/a	n/a	21	24	9	6	9
2795362	PROB	n/a	LTP328	ltpFR2	20	n/a	n/a	n/a	21	12	7	1	4
2796411	PROB	n/a	LTP328	ltpFR2	20	n/a	n/a	n/a	21	10	2	6	2
2797843	PROB	n/a	LTP328	ltpFR2	20	n/a	n/a	n/a	21	21	7	9	5
2799809	PROB	n/a	LTP328	ltpFR2	20	n/a	n/a	n/a	21	13	3	4	6
2801724	PROB	n/a	LTP328	ltpFR2	20	n/a	n/a	n/a	21	20	4	8	8
2803140	PROB	n/a	LTP328	ltpFR2	20	n/a	n/a	n/a	21	12	1	7	4
2804191	PROB	n/a	LTP328	ltpFR2	20	n/a	n/a	n/a	21	12	6	3	3
2806072	PROB	n/a	LTP328	ltpFR2	20	n/a	n/a	n/a	21	23	7	7	9
2808454	PROB	n/a	LTP328	ltpFR2	20	n/a	n/a	n/a	21	11	2	5	4
2809837	PROB	n/a	LTP328	ltpFR2	20	n/a	n/a	n/a	21	19	3	8	8
2811570	PROB	n/a	LTP328	ltpFR2	20	n/a	n/a	n/a	21	10	2	4	4
2813220	PROB	n/a	LTP328	ltpFR2	20	n/a	n/a	n/a	21	16	6	4	6
2814346	STOP	n/a	LTP328	ltpFR2	20	n/a	n/a	n/a	21	n/a	n/a	n/a	n/a
2815884	WORD	wordpools/wasnorm_wordpool_576.txt	LTP328	ltpFR2	20	14	BEAKER	104	n/a	n/a	0	0	0
2818599	WORD	wordpools/wasnorm_wordpool_576.txt	LTP328	ltpFR2	20	14	STUDENT	1395	n/a	n/a	0	0	0
2821031	WORD	wordpools/wasnorm_wordpool_576.txt	LTP328	ltpFR2	20	14	DRAWING	494	n/a	n/a	0	0	0
2823547	WORD	wordpools/wasnorm_wordpool_576.txt	LTP328	ltpFR2	20	14	MASK	876	n/a	n/a	0	0	0
2826213	WORD	wordpools/wasnorm_wordpool_576.txt	LTP328	ltpFR2	20	14	COSTUME	383	n/a	n/a	0	0	0
2828828	WORD	wordpools/wasnorm_wordpool_576.txt	LTP328	ltpFR2	20	14	QUAIL	1147	n/a	n/a	0	0	0
2831327	WORD	wordpools/wasnorm_wordpool_576.txt	LTP328	ltpFR2	20	14	WASP	1593	n/a	n/a	0	0	0
2833875	WORD	wordpools/wasnorm_wordpool_576.txt	LTP328	ltpFR2	20	14	BUGGY	188	n/a	n/a	0	0	0
2836391	WORD	wordpools/wasnorm_wordpool_576.txt	LTP328	ltpFR2	20	14	STOMACH	1384	n/a	n/a	0	0	0
2838873	WORD	wordpools/wasnorm_wordpool_576.txt	LTP328	ltpFR2	20	14	MARS	873	n/a	n/a	0	0	0
2841339	WORD	wordpools/wasnorm_wordpool_576.txt	LTP328	ltpFR2	20	14	VENUS	1557	n/a	n/a	0	0	0
2843787	WORD	wordpools/wasnorm_wordpool_576.txt	LTP328	ltpFR2	20	14	LEG	809	n/a	n/a	0	0	0
2846519	WORD	wordpools/wasnorm_wordpool_576.txt	LTP328	ltpFR2	20	14	HEADBAND	696	n/a	n/a	0	0	0
2849169	WORD	wordpools/wasnorm_wordpool_576.txt	LTP328	ltpFR2	20	14	PLASTER	1085	n/a	n/a	0	0	0
2851800	WORD	wordpools/wasnorm_wordpool_576.txt	LTP328	ltpFR2	20	14	DONOR	485	n/a	n/a	0	0	0
2854366	WORD	wordpools/wasnorm_wordpool_576.txt	LTP328	ltpFR2	20	14	STALLION	1369	n/a	n/a	0	0	0
2856997	WORD	wordpools/wasnorm_wordpool_576.txt	LTP328	ltpFR2	20	14	NOMAD	955	n/a	n/a	0	0	0
2859429	WORD	wordpools/wasnorm_wordpool_576.txt	LTP328	ltpFR2	20	14	SKETCH	1315	n/a	n/a	0	0	0
2862195	WORD	wordpools/wasnorm_wordpool_576.txt	LTP328	ltpFR2	20	14	SURVEY	1414	n/a	n/a	0	0	0
2864693	WORD	wordpools/wasnorm_wordpool_576.txt	LTP328	ltpFR2	20	14	TWEEZERS	1526	n/a	n/a	0	0	0
2867508	WORD	wordpools/wasnorm_wordpool_576.txt	LTP328	ltpFR2	20	14	FREEZER	604	n/a	n/a	0	0	0
2870107	WORD	wordpools/wasnorm_wordpool_576.txt	LTP328	ltpFR2	20	14	AWARD	63	n/a	n/a	0	0	0
2872772	WORD	wordpools/wasnorm_wordpool_576.txt	LTP328	ltpFR2	20	14	TROUT	1511	n/a	n/a	0	0	0
2875471	WORD	wordpools/wasnorm_wordpool_576.txt	LTP328	ltpFR2	20	14	LAKE	796	n/a	n/a	0	0	0
2877087	START	n/a	LTP328	ltpFR2	20	n/a	n/a	n/a	22	n/a	n/a	n/a	n/a
2878031	DISTRACTOR	n/a	LTP328	ltpFR2	20	14	n/a	n/a	n/a	n/a	0	0	0
2878036	PROB	n/a	LTP328	ltpFR2	20	n/a	n/a	n/a	22	13	3	9	1
2879802	PROB	n/a	LTP328	ltpFR2	20	n/a	n/a	n/a	22	13	8	4	1
2881186	PROB	n/a	LTP328	ltpFR2	20	n/a	n/a	n/a	22	22	8	9	5
2883884	PROB	n/a	LTP328	ltpFR2	20	n/a	n/a	n/a	22	6	3	1	2
2886049	PROB	n/a	LTP328	ltpFR2	20	n/a	n/a	n/a	22	10	2	1	7
2887715	PROB	n/a	LTP328	ltpFR2	20	n/a	n/a	n/a	22	11	5	5	1
2888681	PROB	n/a	LTP328	ltpFR2	20	n/a	n/a	n/a	22	11	4	4	3
2890030	PROB	n/a	LTP328	ltpFR2	20	n/a	n/a	n/a	22	22	6	9	7
2892146	PROB	n/a	LTP328	ltpFR2	20	n/a	n/a	n/a	22	5	1	2	2
2893146	PROB	n/a	LTP328	ltpFR2	20	n/a	n/a	n/a	22	13	4	5	4
2894695	PROB	n/a	LTP328	ltpFR2	20	n/a	n/a	n/a	22	20	8	8	4
2897710	PROB	n/a	LTP328	ltpFR2	20	n/a	n/a	n/a	22	10	1	8	1
2899043	PROB	n/a	LTP328	ltpFR2	20	n/a	n/a	n/a	22	12	1	4	7
2900186	STOP	n/a	LTP328	ltpFR2	20	n/a	n/a	n/a	22	n/a	n/a	n/a	n/a
2903008	REC_START	n/a	LTP328	ltpFR2	20	14	n/a	n/a	n/a	n/a	0	0	0
2905185	REC_WORD	wordpools/wasnorm_wordpool_576.txt	LTP328	ltpFR2	20	14	BEAKER	104	n/a	n/a	0	0	0
2906155	REC_WORD	wordpools/wasnorm_wordpool_576.txt	LTP328	ltpFR2	20	14	STUDENT	1395	n/a	n/a	0	0	0
2907652	REC_WORD	wordpools/wasnorm_wordpool_576.txt	LTP328	ltpFR2	20	14	DRAWING	494	n/a	n/a	0	0	0
2908470	REC_WORD	wordpools/wasnorm_wordpool_576.txt	LTP328	ltpFR2	20	14	MASK	876	n/a	n/a	0	0	0
2909222	REC_WORD	wordpools/wasnorm_wordpool_576.txt	LTP328	ltpFR2	20	14	COSTUME	383	n/a	n/a	0	0	0
2910162	REC_WORD	wordpools/wasnorm_wordpool_576.txt	LTP328	ltpFR2	20	14	QUAIL	1147	n/a	n/a	0	0	0
2913385	REC_WORD	wordpools/wasnorm_wordpool_576.txt	LTP328	ltpFR2	20	14	WASP	1593	n/a	n/a	0	0	0
2914488	REC_WORD_VV	wordpools/wasnorm_wordpool_576.txt	LTP328	ltpFR2	20	14	<>	-1	n/a	n/a	0	0	0
2917048	REC_WORD	wordpools/wasnorm_wordpool_576.txt	LTP328	ltpFR2	20	14	STOMACH	1384	n/a	n/a	0	0	0
2918747	REC_WORD	wordpools/wasnorm_wordpool_576.txt	LTP328	ltpFR2	20	14	BUGGY	188	n/a	n/a	0	0	0
2921486	REC_WORD	wordpools/wasnorm_wordpool_576.txt	LTP328	ltpFR2	20	14	MARS	873	n/a	n/a	0	0	0
2922103	REC_WORD	wordpools/wasnorm_wordpool_576.txt	LTP328	ltpFR2	20	14	VENUS	1557	n/a	n/a	0	0	0
2923074	REC_WORD	wordpools/wasnorm_wordpool_576.txt	LTP328	ltpFR2	20	14	LEG	809	n/a	n/a	0	0	0
2925611	REC_WORD	wordpools/wasnorm_wordpool_576.txt	LTP328	ltpFR2	20	14	PLASTER	1085	n/a	n/a	0	0	0
2926380	REC_WORD	wordpools/wasnorm_wordpool_576.txt	LTP328	ltpFR2	20	14	DONOR	485	n/a	n/a	0	0	0
2926866	REC_WORD	wordpools/wasnorm_wordpool_576.txt	LTP328	ltpFR2	20	14	STALLION	1369	n/a	n/a	0	0	0
2949566	REC_WORD	wordpools/wasnorm_wordpool_576.txt	LTP328	ltpFR2	20	14	HEADBAND	696	n/a	n/a	0	0	0
2960751	REC_WORD	wordpools/wasnorm_wordpool_576.txt	LTP328	ltpFR2	20	14	DRAWING	494	n/a	n/a	0	0	0
2963789	REC_WORD	wordpools/wasnorm_wordpool_576.txt	LTP328	ltpFR2	20	14	SKETCH	1315	n/a	n/a	0	0	0
2993462	DISTRACTOR	n/a	LTP328	ltpFR2	20	15	n/a	n/a	n/a	n/a	0	0	0
2993463	START	n/a	LTP328	ltpFR2	20	n/a	n/a	n/a	23	n/a	n/a	n/a	n/a
2993479	PROB	n/a	LTP328	ltpFR2	20	n/a	n/a	n/a	23	14	3	8	7
2995478	PROB	n/a	LTP328	ltpFR2	20	n/a	n/a	n/a	23	16	9	5	2
2997860	PROB	n/a	LTP328	ltpFR2	20	n/a	n/a	n/a	23	17	7	6	4
3000426	PROB	n/a	LTP328	ltpFR2	20	n/a	n/a	n/a	23	14	5	8	1
3001625	PROB	n/a	LTP328	ltpFR2	20	n/a	n/a	n/a	23	10	5	1	4
3002741	PROB	n/a	LTP328	ltpFR2	20	n/a	n/a	n/a	23	9	3	1	5
3004957	PROB	n/a	LTP328	ltpFR2	20	n/a	n/a	n/a	23	11	3	5	3
3006789	PROB	n/a	LTP328	ltpFR2	20	n/a	n/a	n/a	23	6	3	2	1
3008005	PROB	n/a	LTP328	ltpFR2	20	n/a	n/a	n/a	23	20	6	7	7
3009771	PROB	n/a	LTP328	ltpFR2	20	n/a	n/a	n/a	23	19	4	7	8
3012436	PROB	n/a	LTP328	ltpFR2	20	n/a	n/a	n/a	23	21	8	6	7
3014019	PROB	n/a	LTP328	ltpFR2	20	n/a	n/a	n/a	23	16	7	8	1
3015352	PROB	n/a	LTP328	ltpFR2	20	n/a	n/a	n/a	23	11	6	3	2
3016521	STOP	n/a	LTP328	ltpFR2	20	n/a	n/a	n/a	23	n/a	n/a	n/a	n/a
3018517	WORD	wordpools/wasnorm_wordpool_576.txt	LTP328	ltpFR2	20	15	OUTDOORS	987	n/a	n/a	0	0	0
3021183	WORD	wordpools/wasnorm_wordpool_576.txt	LTP328	ltpFR2	20	15	SEAFOOD	1260	n/a	n/a	0	0	0
3023947	WORD	wordpools/wasnorm_wordpool_576.txt	LTP328	ltpFR2	20	15	GRAVEL	659	n/a	n/a	0	0	0
3026763	WORD	wordpools/wasnorm_wordpool_576.txt	LTP328	ltpFR2	20	15	MOTEL	919	n/a	n/a	0	0	0
3029445	WORD	wordpools/wasnorm_wordpool_576.txt	LTP328	ltpFR2	20	15	MAILBOX	857	n/a	n/a	0	0	0
3032161	WORD	wordpools/wasnorm_wordpool_576.txt	LTP328	ltpFR2	20	15	PACKAGE	997	n/a	n/a	0	0	0
3034925	WORD	wordpools/wasnorm_wordpool_576.txt	LTP328	ltpFR2	20	15	PECAN	1036	n/a	n/a	0	0	0
3037490	WORD	wordpools/wasnorm_wordpool_576.txt	LTP328	ltpFR2	20	15	CASHEW	253	n/a	n/a	0	0	0
3040156	WORD	wordpools/wasnorm_wordpool_576.txt	LTP328	ltpFR2	20	15	YACHT	1629	n/a	n/a	0	0	0
3042621	WORD	wordpools/wasnorm_wordpool_576.txt	LTP328	ltpFR2	20	15	SISTER	1312	n/a	n/a	0	0	0
3045171	WORD	wordpools/wasnorm_wordpool_576.txt	LTP328	ltpFR2	20	15	COUSIN	392	n/a	n/a	0	0	0
3047802	WORD	wordpools/wasnorm_wordpool_576.txt	LTP328	ltpFR2	20	15	GIFT	635	n/a	n/a	0	0	0
3050418	WORD	wordpools/wasnorm_wordpool_576.txt	LTP328	ltpFR2	20	15	MOTOR	922	n/a	n/a	0	0	0
3053049	WORD	wordpools/wasnorm_wordpool_576.txt	LTP328	ltpFR2	20	15	MAMMAL	861	n/a	n/a	0	0	0
3055798	WORD	wordpools/wasnorm_wordpool_576.txt	LTP328	ltpFR2	20	15	COD	340	n/a	n/a	0	0	0
3058414	WORD	wordpools/wasnorm_wordpool_576.txt	LTP328	ltpFR2	20	15	CHAMPAGNE	278	n/a	n/a	0	0	0
3061146	WORD	wordpools/wasnorm_wordpool_576.txt	LTP328	ltpFR2	20	15	GAZELLE	628	n/a	n/a	0	0	0
3063711	WORD	wordpools/wasnorm_wordpool_576.txt	LTP328	ltpFR2	20	15	MARSH	874	n/a	n/a	0	0	0
3066410	WORD	wordpools/wasnorm_wordpool_576.txt	LTP328	ltpFR2	20	15	JELLY	755	n/a	n/a	0	0	0
3069025	WORD	wordpools/wasnorm_wordpool_576.txt	LTP328	ltpFR2	20	15	FARMER	553	n/a	n/a	0	0	0
3071557	WORD	wordpools/wasnorm_wordpool_576.txt	LTP328	ltpFR2	20	15	CANAL	226	n/a	n/a	0	0	0
3074173	WORD	wordpools/wasnorm_wordpool_576.txt	LTP328	ltpFR2	20	15	FLIPPER	580	n/a	n/a	0	0	0
3076721	WORD	wordpools/wasnorm_wordpool_576.txt	LTP328	ltpFR2	20	15	MATTRESS	879	n/a	n/a	0	0	0
3079371	WORD	wordpools/wasnorm_wordpool_576.txt	LTP328	ltpFR2	20	15	GROUND	666	n/a	n/a	0	0	0
3080986	START	n/a	LTP328	ltpFR2	20	n/a	n/a	n/a	24	n/a	n/a	n/a	n/a
3082120	DISTRACTOR	n/a	LTP328	ltpFR2	20	15	n/a	n/a	n/a	n/a	0	0	0
3082135	PROB	n/a	LTP328	ltpFR2	20	n/a	n/a	n/a	24	13	4	8	1
3083618	PROB	n/a	LTP328	ltpFR2	20	n/a	n/a	n/a	24	18	5	5	8
3084734	PROB	n/a	LTP328	ltpFR2	20	n/a	n/a	n/a	24	17	5	9	3
3087099	PROB	n/a	LTP328	ltpFR2	20	n/a	n/a	n/a	24	23	9	9	5
3090564	PROB	n/a	LTP328	ltpFR2	20	n/a	n/a	n/a	24	10	6	1	3
3091664	PROB	n/a	LTP328	ltpFR2	20	n/a	n/a	n/a	24	17	3	5	9
3093180	PROB	n/a	LTP328	ltpFR2	20	n/a	n/a	n/a	24	14	4	8	2
3094546	PROB	n/a	LTP328	ltpFR2	20	n/a	n/a	n/a	24	15	2	5	8
3096961	PROB	n/a	LTP328	ltpFR2	20	n/a	n/a	n/a	24	20	8	8	4
3098311	PROB	n/a	LTP328	ltpFR2	20	n/a	n/a	n/a	24	4	2	1	1
3099426	PROB	n/a	LTP328	ltpFR2	20	n/a	n/a	n/a	24	19	6	8	5
3101410	PROB	n/a	LTP328	ltpFR2	20	n/a	n/a	n/a	24	23	8	6	9
3102941	PROB	n/a	LTP328	ltpFR2	20	n/a	n/a	n/a	24	21	9	5	7
3104601	STOP	n/a	LTP328	ltpFR2	20	n/a	n/a	n/a	24	n/a	n/a	n/a	n/a
3106907	REC_START	n/a	LTP328	ltpFR2	20	15	n/a	n/a	n/a	n/a	0	0	0
3110103	REC_WORD	wordpools/wasnorm_wordpool_576.txt	LTP328	ltpFR2	20	15	GRAVEL	659	n/a	n/a	0	0	0
3110841	REC_WORD	wordpools/wasnorm_wordpool_576.txt	LTP328	ltpFR2	20	15	PACKAGE	997	n/a	n/a	0	0	0
3111619	REC_WORD	wordpools/wasnorm_wordpool_576.txt	LTP328	ltpFR2	20	15	MAILBOX	857	n/a	n/a	0	0	0
3112966	REC_WORD	wordpools/wasnorm_wordpool_576.txt	LTP328	ltpFR2	20	15	MOTEL	919	n/a	n/a	0	0	0
3113964	REC_WORD	wordpools/wasnorm_wordpool_576.txt	LTP328	ltpFR2	20	15	PECAN	1036	n/a	n/a	0	0	0
3114625	REC_WORD	wordpools/wasnorm_wordpool_576.txt	LTP328	ltpFR2	20	15	CASHEW	253	n/a	n/a	0	0	0
3115995	REC_WORD	wordpools/wasnorm_wordpool_576.txt	LTP328	ltpFR2	20	15	YACHT	1629	n/a	n/a	0	0	0
3116415	REC_WORD	wordpools/wasnorm_wordpool_576.txt	LTP328	ltpFR2	20	15	SISTER	1312	n/a	n/a	0	0	0
3117335	REC_WORD	wordpools/wasnorm_wordpool_576.txt	LTP328	ltpFR2	20	15	COUSIN	392	n/a	n/a	0	0	0
3120104	REC_WORD	wordpools/wasnorm_wordpool_576.txt	LTP328	ltpFR2	20	15	MOTOR	922	n/a	n/a	0	0	0
3120547	REC_WORD	wordpools/wasnorm_wordpool_576.txt	LTP328	ltpFR2	20	15	MAMMAL	861	n/a	n/a	0	0	0
3121138	REC_WORD	wordpools/wasnorm_wordpool_576.txt	LTP328	ltpFR2	20	15	COD	340	n/a	n/a	0	0	0
3140205	REC_WORD	wordpools/wasnorm_wordpool_576.txt	LTP328	ltpFR2	20	15	FARMER	553	n/a	n/a	0	0	0
3197362	WORD	wordpools/wasnorm_wordpool_576.txt	LTP328	ltpFR2	20	16	THIEF	1456	n/a	n/a	0	0	0
3199943	WORD	wordpools/wasnorm_wordpool_576.txt	LTP328	ltpFR2	20	16	POPCORN	1104	n/a	n/a	0	0	0
3202559	WORD	wordpools/wasnorm_wordpool_576.txt	LTP328	ltpFR2	20	16	ACTRESS	6	n/a	n/a	0	0	0
3205091	WORD	wordpools/wasnorm_wordpool_576.txt	LTP328	ltpFR2	20	16	TWISTER	1530	n/a	n/a	0	0	0
3207773	WORD	wordpools/wasnorm_wordpool_576.txt	LTP328	ltpFR2	20	16	PIANO	1057	n/a	n/a	0	0	0
3210455	WORD	wordpools/wasnorm_wordpool_576.txt	LTP328	ltpFR2	20	16	RACKET	1155	n/a	n/a	0	0	0
3213003	WORD	wordpools/wasnorm_wordpool_576.txt	LTP328	ltpFR2	20	16	CELLAR	267	n/a	n/a	0	0	0
3215619	WORD	wordpools/wasnorm_wordpool_576.txt	LTP328	ltpFR2	20	16	WRENCH	1625	n/a	n/a	0	0	0
3218067	WORD	wordpools/wasnorm_wordpool_576.txt	LTP328	ltpFR2	20	16	STONE	1385	n/a	n/a	0	0	0
3220683	WORD	wordpools/wasnorm_wordpool_576.txt	LTP328	ltpFR2	20	16	BANJO	82	n/a	n/a	0	0	0
3223183	WORD	wordpools/wasnorm_wordpool_576.txt	LTP328	ltpFR2	20	16	ANKLE	24	n/a	n/a	0	0	0
3225664	WORD	wordpools/wasnorm_wordpool_576.txt	LTP328	ltpFR2	20	16	BASEMENT	94	n/a	n/a	0	0	0
3228413	WORD	wordpools/wasnorm_wordpool_576.txt	LTP328	ltpFR2	20	16	GREASE	660	n/a	n/a	0	0	0
3230878	WORD	wordpools/wasnorm_wordpool_576.txt	LTP328	ltpFR2	20	16	UMPIRE	1535	n/a	n/a	0	0	0
3233676	WORD	wordpools/wasnorm_wordpool_576.txt	LTP328	ltpFR2	20	16	CORAL	378	n/a	n/a	0	0	0
3236458	WORD	wordpools/wasnorm_wordpool_576.txt	LTP328	ltpFR2	20	16	DAISY	435	n/a	n/a	0	0	0
3238907	WORD	wordpools/wasnorm_wordpool_576.txt	LTP328	ltpFR2	20	16	BANKER	84	n/a	n/a	0	0	0
3241622	WORD	wordpools/wasnorm_wordpool_576.txt	LTP328	ltpFR2	20	16	FIREMAN	569	n/a	n/a	0	0	0
3244222	WORD	wordpools/wasnorm_wordpool_576.txt	LTP328	ltpFR2	20	16	MATCH	878	n/a	n/a	0	0	0
3247036	WORD	wordpools/wasnorm_wordpool_576.txt	LTP328	ltpFR2	20	16	GUITAR	670	n/a	n/a	0	0	0
3249518	WORD	wordpools/wasnorm_wordpool_576.txt	LTP328	ltpFR2	20	16	IGLOO	734	n/a	n/a	0	0	0
3252168	WORD	wordpools/wasnorm_wordpool_576.txt	LTP328	ltpFR2	20	16	PORK	1108	n/a	n/a	0	0	0
3254783	WORD	wordpools/wasnorm_wordpool_576.txt	LTP328	ltpFR2	20	16	SAUSAGE	1238	n/a	n/a	0	0	0
3257216	WORD	wordpools/wasnorm_wordpool_576.txt	LTP328	ltpFR2	20	16	SNAKE	1333	n/a	n/a	0	0	0
3258831	START	n/a	LTP328	ltpFR2	20	n/a	n/a	n/a	25	n/a	n/a	n/a	n/a
3259921	DISTRACTOR	n/a	LTP328	ltpFR2	20	16	n/a	n/a	n/a	n/a	0	0	0
3259930	PROB	n/a	LTP328	ltpFR2	20	n/a	n/a	n/a	25	23	7	9	7
3262413	PROB	n/a	LTP328	ltpFR2	20	n/a	n/a	n/a	25	9	2	6	1
3263711	PROB	n/a	LTP328	ltpFR2	20	n/a	n/a	n/a	25	15	5	4	6
3265810	PROB	n/a	LTP328	ltpFR2	20	n/a	n/a	n/a	25	17	3	8	6
3267559	PROB	n/a	LTP328	ltpFR2	20	n/a	n/a	n/a	25	24	8	7	9
3270941	PROB	n/a	LTP328	ltpFR2	20	n/a	n/a	n/a	25	14	9	2	3
3272391	PROB	n/a	LTP328	ltpFR2	20	n/a	n/a	n/a	25	13	3	1	9
3273473	PROB	n/a	LTP328	ltpFR2	20	n/a	n/a	n/a	25	13	5	7	1
3274606	PROB	n/a	LTP328	ltpFR2	20	n/a	n/a	n/a	25	11	1	5	5
3275656	PROB	n/a	LTP328	ltpFR2	20	n/a	n/a	n/a	25	16	3	4	9
3277738	PROB	n/a	LTP328	ltpFR2	20	n/a	n/a	n/a	25	25	8	8	9
3279470	PROB	n/a	LTP328	ltpFR2	20	n/a	n/a	n/a	25	7	3	2	2
3280986	PROB	n/a	LTP328	ltpFR2	20	n/a	n/a	n/a	25	19	9	4	6
3282545	STOP	n/a	LTP328	ltpFR2	20	n/a	n/a	n/a	25	n/a	n/a	n/a	n/a
3284702	REC_START	n/a	LTP328	ltpFR2	20	16	n/a	n/a	n/a	n/a	0	0	0
3316898	REC_WORD	wordpools/wasnorm_wordpool_576.txt	LTP328	ltpFR2	20	16	PIANO	1057	n/a	n/a	0	0	0
3317676	REC_WORD	wordpools/wasnorm_wordpool_576.txt	LTP328	ltpFR2	20	16	RACKET	1155	n/a	n/a	0	0	0
3318902	REC_WORD	wordpools/wasnorm_wordpool_576.txt	LTP328	ltpFR2	20	16	STONE	1385	n/a	n/a	0	0	0
3319680	REC_WORD	wordpools/wasnorm_wordpool_576.txt	LTP328	ltpFR2	20	16	RANCH	1166	n/a	n/a	0	0	0
3320316	REC_WORD	wordpools/wasnorm_wordpool_576.txt	LTP328	ltpFR2	20	16	CELLAR	267	n/a	n/a	0	0	0
3322147	REC_WORD	wordpools/wasnorm_wordpool_576.txt	LTP328	ltpFR2	20	16	TWISTER	1530	n/a	n/a	0	0	0
3361247	REST_REWET	n/a	LTP328	ltpFR2	20	16	n/a	n/a	n/a	n/a	0	0	0
3621301	WORD	wordpools/wasnorm_wordpool_576.txt	LTP328	ltpFR2	20	17	PASSAGE	1019	n/a	n/a	0	0	0
3624049	WORD	wordpools/wasnorm_wordpool_576.txt	LTP328	ltpFR2	20	17	TRANSPLANT	1496	n/a	n/a	0	0	0
3626481	WORD	wordpools/wasnorm_wordpool_576.txt	LTP328	ltpFR2	20	17	FOREST	593	n/a	n/a	0	0	0
3629181	WORD	wordpools/wasnorm_wordpool_576.txt	LTP328	ltpFR2	20	17	HEDGE	699	n/a	n/a	0	0	0
3631929	WORD	wordpools/wasnorm_wordpool_576.txt	LTP328	ltpFR2	20	17	LAVA	804	n/a	n/a	0	0	0
3634510	WORD	wordpools/wasnorm_wordpool_576.txt	LTP328	ltpFR2	20	17	CRATER	400	n/a	n/a	0	0	0
3637043	WORD	wordpools/wasnorm_wordpool_576.txt	LTP328	ltpFR2	20	17	SERVER	1272	n/a	n/a	0	0	0
3639708	WORD	wordpools/wasnorm_wordpool_576.txt	LTP328	ltpFR2	20	17	PERMIT	1051	n/a	n/a	0	0	0
3642274	WORD	wordpools/wasnorm_wordpool_576.txt	LTP328	ltpFR2	20	17	PLIERS	1089	n/a	n/a	0	0	0
3644789	WORD	wordpools/wasnorm_wordpool_576.txt	LTP328	ltpFR2	20	17	PEDAL	1037	n/a	n/a	0	0	0
3647537	WORD	wordpools/wasnorm_wordpool_576.txt	LTP328	ltpFR2	20	17	HOSTESS	723	n/a	n/a	0	0	0
3650019	WORD	wordpools/wasnorm_wordpool_576.txt	LTP328	ltpFR2	20	17	FLESH	579	n/a	n/a	0	0	0
3652718	WORD	wordpools/wasnorm_wordpool_576.txt	LTP328	ltpFR2	20	17	STAKE	1368	n/a	n/a	0	0	0
3655467	WORD	wordpools/wasnorm_wordpool_576.txt	LTP328	ltpFR2	20	17	SHRUB	1299	n/a	n/a	0	0	0
3657899	WORD	wordpools/wasnorm_wordpool_576.txt	LTP328	ltpFR2	20	17	LIGHTNING	820	n/a	n/a	0	0	0
3660548	WORD	wordpools/wasnorm_wordpool_576.txt	LTP328	ltpFR2	20	17	ROD	1203	n/a	n/a	0	0	0
3663247	WORD	wordpools/wasnorm_wordpool_576.txt	LTP328	ltpFR2	20	17	SNAIL	1332	n/a	n/a	0	0	0
3665878	WORD	wordpools/wasnorm_wordpool_576.txt	LTP328	ltpFR2	20	17	TURTLE	1522	n/a	n/a	0	0	0
3668378	WORD	wordpools/wasnorm_wordpool_576.txt	LTP328	ltpFR2	20	17	DOLPHIN	483	n/a	n/a	0	0	0
3670809	WORD	wordpools/wasnorm_wordpool_576.txt	LTP328	ltpFR2	20	17	TABLE	1426	n/a	n/a	0	0	0
3673558	WORD	wordpools/wasnorm_wordpool_576.txt	LTP328	ltpFR2	20	17	AIRPLANE	12	n/a	n/a	0	0	0
3676241	WORD	wordpools/wasnorm_wordpool_576.txt	LTP328	ltpFR2	20	17	HARP	689	n/a	n/a	0	0	0
3679005	WORD	wordpools/wasnorm_wordpool_576.txt	LTP328	ltpFR2	20	17	BISON	131	n/a	n/a	0	0	0
3681770	WORD	wordpools/wasnorm_wordpool_576.txt	LTP328	ltpFR2	20	17	PADDLE	1000	n/a	n/a	0	0	0
3683387	START	n/a	LTP328	ltpFR2	20	n/a	n/a	n/a	26	n/a	n/a	n/a	n/a
3684315	DISTRACTOR	n/a	LTP328	ltpFR2	20	17	n/a	n/a	n/a	n/a	0	0	0
3684320	PROB	n/a	LTP328	ltpFR2	20	n/a	n/a	n/a	26	12	3	8	1
3686219	PROB	n/a	LTP328	ltpFR2	20	n/a	n/a	n/a	26	25	7	8	8
3688434	PROB	n/a	LTP328	ltpFR2	20	n/a	n/a	n/a	26	16	8	4	4
3690201	PROB	n/a	LTP328	ltpFR2	20	n/a	n/a	n/a	26	19	6	5	8
3691715	PROB	n/a	LTP328	ltpFR2	20	n/a	n/a	n/a	26	7	2	4	1
3693115	PROB	n/a	LTP328	ltpFR2	20	n/a	n/a	n/a	26	16	4	3	9
3694497	PROB	n/a	LTP328	ltpFR2	20	n/a	n/a	n/a	26	17	2	9	6
3697197	PROB	n/a	LTP328	ltpFR2	20	n/a	n/a	n/a	26	16	4	4	8
3698695	PROB	n/a	LTP328	ltpFR2	20	n/a	n/a	n/a	26	13	3	6	4
3699945	PROB	n/a	LTP328	ltpFR2	20	n/a	n/a	n/a	26	21	6	6	9
3701195	PROB	n/a	LTP328	ltpFR2	20	n/a	n/a	n/a	26	14	4	9	1
3702560	PROB	n/a	LTP328	ltpFR2	20	n/a	n/a	n/a	26	11	2	6	3
3704109	PROB	n/a	LTP328	ltpFR2	20	n/a	n/a	n/a	26	11	3	5	4
3706441	STOP	n/a	LTP328	ltpFR2	20	n/a	n/a	n/a	26	n/a	n/a	n/a	n/a
3709141	REC_START	n/a	LTP328	ltpFR2	20	17	n/a	n/a	n/a	n/a	0	0	0
3713655	REC_WORD	wordpools/wasnorm_wordpool_576.txt	LTP328	ltpFR2	20	17	FOREST	593	n/a	n/a	0	0	0
3714882	REC_WORD	wordpools/wasnorm_wordpool_576.txt	LTP328	ltpFR2	20	17	PASSAGE	1019	n/a	n/a	0	0	0
3715384	REC_WORD	wordpools/wasnorm_wordpool_576.txt	LTP328	ltpFR2	20	17	TRANSPLANT	1496	n/a	n/a	0	0	0
3717251	REC_WORD	wordpools/wasnorm_wordpool_576.txt	LTP328	ltpFR2	20	17	HEDGE	699	n/a	n/a	0	0	0
3718098	REC_WORD	wordpools/wasnorm_wordpool_576.txt	LTP328	ltpFR2	20	17	LAVA	804	n/a	n/a	0	0	0
3718663	REC_WORD	wordpools/wasnorm_wordpool_576.txt	LTP328	ltpFR2	20	17	CRATER	400	n/a	n/a	0	0	0
3720479	REC_WORD	wordpools/wasnorm_wordpool_576.txt	LTP328	ltpFR2	20	17	WEIGHT	-1	n/a	n/a	0	0	0
3722461	REC_WORD	wordpools/wasnorm_wordpool_576.txt	LTP328	ltpFR2	20	17	HOSTESS	723	n/a	n/a	0	0	0
3724312	REC_WORD	wordpools/wasnorm_wordpool_576.txt	LTP328	ltpFR2	20	17	PERMIT	1051	n/a	n/a	0	0	0
3724887	REC_WORD	wordpools/wasnorm_wordpool_576.txt	LTP328	ltpFR2	20	17	PLIERS	1089	n/a	n/a	0	0	0
3727316	REC_WORD	wordpools/wasnorm_wordpool_576.txt	LTP328	ltpFR2	20	17	FLESH	579	n/a	n/a	0	0	0
3727932	REC_WORD	wordpools/wasnorm_wordpool_576.txt	LTP328	ltpFR2	20	17	STAKE	1368	n/a	n/a	0	0	0
3728675	REC_WORD	wordpools/wasnorm_wordpool_576.txt	LTP328	ltpFR2	20	17	WAITRESS	1581	n/a	n/a	0	0	0
3729675	REC_WORD_VV	wordpools/wasnorm_wordpool_576.txt	LTP328	ltpFR2	20	17	<>	-1	n/a	n/a	0	0	0
3731306	REC_WORD	wordpools/wasnorm_wordpool_576.txt	LTP328	ltpFR2	20	17	SHRUB	1299	n/a	n/a	0	0	0
3732184	REC_WORD	wordpools/wasnorm_wordpool_576.txt	LTP328	ltpFR2	20	17	LIGHTNING	820	n/a	n/a	0	0	0
3732785	REC_WORD	wordpools/wasnorm_wordpool_576.txt	LTP328	ltpFR2	20	17	ROD	1203	n/a	n/a	0	0	0
3733189	REC_WORD	wordpools/wasnorm_wordpool_576.txt	LTP328	ltpFR2	20	17	SNAIL	1332	n/a	n/a	0	0	0
3734101	REC_WORD	wordpools/wasnorm_wordpool_576.txt	LTP328	ltpFR2	20	17	TURTLE	1522	n/a	n/a	0	0	0
3734673	REC_WORD	wordpools/wasnorm_wordpool_576.txt	LTP328	ltpFR2	20	17	DOLPHIN	483	n/a	n/a	0	0	0
3735384	REC_WORD	wordpools/wasnorm_wordpool_576.txt	LTP328	ltpFR2	20	17	TABLE	1426	n/a	n/a	0	0	0
3736138	REC_WORD	wordpools/wasnorm_wordpool_576.txt	LTP328	ltpFR2	20	17	AIRPLANE	12	n/a	n/a	0	0	0
3737243	REC_WORD	wordpools/wasnorm_wordpool_576.txt	LTP328	ltpFR2	20	17	HARP	689	n/a	n/a	0	0	0
3738460	REC_WORD	wordpools/wasnorm_wordpool_576.txt	LTP328	ltpFR2	20	17	BISON	131	n/a	n/a	0	0	0
3799578	DISTRACTOR	n/a	LTP328	ltpFR2	20	18	n/a	n/a	n/a	n/a	0	0	0
3799579	START	n/a	LTP328	ltpFR2	20	n/a	n/a	n/a	27	n/a	n/a	n/a	n/a
3799595	PROB	n/a	LTP328	ltpFR2	20	n/a	n/a	n/a	27	18	8	6	4
3801212	PROB	n/a	LTP328	ltpFR2	20	n/a	n/a	n/a	27	9	1	3	5
3802477	PROB	n/a	LTP328	ltpFR2	20	n/a	n/a	n/a	27	9	3	5	1
3804659	PROB	n/a	LTP328	ltpFR2	20	n/a	n/a	n/a	27	14	8	2	4
3806475	PROB	n/a	LTP328	ltpFR2	20	n/a	n/a	n/a	27	17	4	9	4
3810241	PROB	n/a	LTP328	ltpFR2	20	n/a	n/a	n/a	27	9	3	2	4
3811989	PROB	n/a	LTP328	ltpFR2	20	n/a	n/a	n/a	27	12	2	5	5
3813072	PROB	n/a	LTP328	ltpFR2	20	n/a	n/a	n/a	27	12	1	7	4
3814588	PROB	n/a	LTP328	ltpFR2	20	n/a	n/a	n/a	27	12	6	5	1
3816737	PROB	n/a	LTP328	ltpFR2	20	n/a	n/a	n/a	27	19	5	5	9
3817936	PROB	n/a	LTP328	ltpFR2	20	n/a	n/a	n/a	27	11	4	2	5
3819469	PROB	n/a	LTP328	ltpFR2	20	n/a	n/a	n/a	27	13	1	3	9
3820718	PROB	n/a	LTP328	ltpFR2	20	n/a	n/a	n/a	27	13	4	3	6
3822737	STOP	n/a	LTP328	ltpFR2	20	n/a	n/a	n/a	27	n/a	n/a	n/a	n/a
3824417	WORD	wordpools/wasnorm_wordpool_576.txt	LTP328	ltpFR2	20	18	CHEST	295	n/a	n/a	0	0	0
3826965	WORD	wordpools/wasnorm_wordpool_576.txt	LTP328	ltpFR2	20	18	DANDRUFF	439	n/a	n/a	0	0	0
3829597	WORD	wordpools/wasnorm_wordpool_576.txt	LTP328	ltpFR2	20	18	CARRIAGE	248	n/a	n/a	0	0	0
3832313	WORD	wordpools/wasnorm_wordpool_576.txt	LTP328	ltpFR2	20	18	SPOOL	1356	n/a	n/a	0	0	0
3834744	WORD	wordpools/wasnorm_wordpool_576.txt	LTP328	ltpFR2	20	18	OZONE	996	n/a	n/a	0	0	0
3837361	WORD	wordpools/wasnorm_wordpool_576.txt	LTP328	ltpFR2	20	18	NOTEBOOK	959	n/a	n/a	0	0	0
3839825	WORD	wordpools/wasnorm_wordpool_576.txt	LTP328	ltpFR2	20	18	COMET	353	n/a	n/a	0	0	0
3842408	WORD	wordpools/wasnorm_wordpool_576.txt	LTP328	ltpFR2	20	18	MACHINE	852	n/a	n/a	0	0	0
3845039	WORD	wordpools/wasnorm_wordpool_576.txt	LTP328	ltpFR2	20	18	COLLEGE	346	n/a	n/a	0	0	0
3847788	WORD	wordpools/wasnorm_wordpool_576.txt	LTP328	ltpFR2	20	18	TUTU	1524	n/a	n/a	0	0	0
3850388	WORD	wordpools/wasnorm_wordpool_576.txt	LTP328	ltpFR2	20	18	SKIRT	1319	n/a	n/a	0	0	0
3853002	WORD	wordpools/wasnorm_wordpool_576.txt	LTP328	ltpFR2	20	18	JUGGLER	763	n/a	n/a	0	0	0
3855801	WORD	wordpools/wasnorm_wordpool_576.txt	LTP328	ltpFR2	20	18	HORSE	719	n/a	n/a	0	0	0
3858532	WORD	wordpools/wasnorm_wordpool_576.txt	LTP328	ltpFR2	20	18	GRAVE	658	n/a	n/a	0	0	0
3861299	WORD	wordpools/wasnorm_wordpool_576.txt	LTP328	ltpFR2	20	18	STAR	1373	n/a	n/a	0	0	0
3863813	WORD	wordpools/wasnorm_wordpool_576.txt	LTP328	ltpFR2	20	18	BIKE	125	n/a	n/a	0	0	0
3866495	WORD	wordpools/wasnorm_wordpool_576.txt	LTP328	ltpFR2	20	18	PREACHER	1119	n/a	n/a	0	0	0
3869077	WORD	wordpools/wasnorm_wordpool_576.txt	LTP328	ltpFR2	20	18	BLADE	134	n/a	n/a	0	0	0
3871676	WORD	wordpools/wasnorm_wordpool_576.txt	LTP328	ltpFR2	20	18	SIBLING	1301	n/a	n/a	0	0	0
3874125	WORD	wordpools/wasnorm_wordpool_576.txt	LTP328	ltpFR2	20	18	WAGON	1578	n/a	n/a	0	0	0
3876940	WORD	wordpools/wasnorm_wordpool_576.txt	LTP328	ltpFR2	20	18	LAGOON	795	n/a	n/a	0	0	0
3879539	WORD	wordpools/wasnorm_wordpool_576.txt	LTP328	ltpFR2	20	18	SWIMMER	1420	n/a	n/a	0	0	0
3882121	WORD	wordpools/wasnorm_wordpool_576.txt	LTP328	ltpFR2	20	18	PIMPLE	1071	n/a	n/a	0	0	0
3884819	WORD	wordpools/wasnorm_wordpool_576.txt	LTP328	ltpFR2	20	18	MARINE	869	n/a	n/a	0	0	0
3886436	START	n/a	LTP328	ltpFR2	20	n/a	n/a	n/a	28	n/a	n/a	n/a	n/a
3887566	DISTRACTOR	n/a	LTP328	ltpFR2	20	18	n/a	n/a	n/a	n/a	0	0	0
3887568	PROB	n/a	LTP328	ltpFR2	20	n/a	n/a	n/a	28	24	9	6	9
3890034	PROB	n/a	LTP328	ltpFR2	20	n/a	n/a	n/a	28	17	2	8	7
3892832	PROB	n/a	LTP328	ltpFR2	20	n/a	n/a	n/a	28	8	3	2	3
3894631	PROB	n/a	LTP328	ltpFR2	20	n/a	n/a	n/a	28	15	4	3	8
3896198	PROB	n/a	LTP328	ltpFR2	20	n/a	n/a	n/a	28	16	7	3	6
3898113	PROB	n/a	LTP328	ltpFR2	20	n/a	n/a	n/a	28	8	3	1	4
3899230	PROB	n/a	LTP328	ltpFR2	20	n/a	n/a	n/a	28	14	5	4	5
