onset	duration	trial_type	sample	stim_file	subject	experiment	session	trial	item_name	item_num	list	answer	test_x	test_y	test_z
233.618	n/a	SESS_START	116809	n/a	LTP229	ltpFR2	2	n/a	n/a	n/a	n/a	n/a	0	0	0
261.338	n/a	START	130669	n/a	LTP229	ltpFR2	2	n/a	n/a	n/a	-1	n/a	n/a	n/a	n/a
261.388	n/a	PROB	130694	n/a	LTP229	ltpFR2	2	n/a	n/a	n/a	-1	5	2	1	2
263.312	n/a	PROB	131656	n/a	LTP229	ltpFR2	2	n/a	n/a	n/a	-1	23	7	9	7
267.49	n/a	PROB	133745	n/a	LTP229	ltpFR2	2	n/a	n/a	n/a	-1	9	3	1	5
269.318	n/a	PROB	134659	n/a	LTP229	ltpFR2	2	n/a	n/a	n/a	-1	8	3	4	1
270.992	n/a	PROB	135496	n/a	LTP229	ltpFR2	2	n/a	n/a	n/a	-1	11	1	7	5
273.26	n/a	STOP	136630	n/a	LTP229	ltpFR2	2	n/a	n/a	n/a	-1	n/a	n/a	n/a	n/a
312.868	n/a	DISTRACTOR	156434	n/a	LTP229	ltpFR2	2	1	n/a	n/a	n/a	n/a	0	0	0
312.868	n/a	START	156434	n/a	LTP229	ltpFR2	2	n/a	n/a	n/a	1	n/a	n/a	n/a	n/a
312.918	n/a	PROB	156459	n/a	LTP229	ltpFR2	2	n/a	n/a	n/a	1	10	5	3	2
314.926	n/a	PROB	157463	n/a	LTP229	ltpFR2	2	n/a	n/a	n/a	1	17	3	7	7
316.902	n/a	PROB	158451	n/a	LTP229	ltpFR2	2	n/a	n/a	n/a	1	12	8	3	1
318.568	n/a	PROB	159284	n/a	LTP229	ltpFR2	2	n/a	n/a	n/a	1	25	9	8	8
321.05	n/a	PROB	160525	n/a	LTP229	ltpFR2	2	n/a	n/a	n/a	1	14	1	5	8
325.986	n/a	PROB	162993	n/a	LTP229	ltpFR2	2	n/a	n/a	n/a	1	16	5	6	5
327.206	n/a	PROB	163603	n/a	LTP229	ltpFR2	2	n/a	n/a	n/a	1	20	6	6	8
332.576	n/a	PROB	166288	n/a	LTP229	ltpFR2	2	n/a	n/a	n/a	1	18	9	8	1
334.05	n/a	PROB	167025	n/a	LTP229	ltpFR2	2	n/a	n/a	n/a	1	7	5	1	1
336.87	n/a	STOP	168435	n/a	LTP229	ltpFR2	2	n/a	n/a	n/a	1	n/a	n/a	n/a	n/a
337.714	n/a	WORD	168857	wordpools/wasnorm_wordpool_576.txt	LTP229	ltpFR2	2	1	RIVER	1194	n/a	n/a	0	0	0
340.14	n/a	WORD	170070	wordpools/wasnorm_wordpool_576.txt	LTP229	ltpFR2	2	1	BLADE	134	n/a	n/a	0	0	0
342.598	n/a	WORD	171299	wordpools/wasnorm_wordpool_576.txt	LTP229	ltpFR2	2	1	RAZOR	1171	n/a	n/a	0	0	0
345.026	n/a	WORD	172513	wordpools/wasnorm_wordpool_576.txt	LTP229	ltpFR2	2	1	CAMEL	223	n/a	n/a	0	0	0
347.634	n/a	WORD	173817	wordpools/wasnorm_wordpool_576.txt	LTP229	ltpFR2	2	1	QUEEN	1149	n/a	n/a	0	0	0
350.428	n/a	WORD	175214	wordpools/wasnorm_wordpool_576.txt	LTP229	ltpFR2	2	1	DAISY	435	n/a	n/a	0	0	0
353.206	n/a	WORD	176603	wordpools/wasnorm_wordpool_576.txt	LTP229	ltpFR2	2	1	SPONGE	1355	n/a	n/a	0	0	0
356.018	n/a	WORD	178009	wordpools/wasnorm_wordpool_576.txt	LTP229	ltpFR2	2	1	LASER	801	n/a	n/a	0	0	0
358.554	n/a	WORD	179277	wordpools/wasnorm_wordpool_576.txt	LTP229	ltpFR2	2	1	VELVET	1555	n/a	n/a	0	0	0
361.036	n/a	WORD	180518	wordpools/wasnorm_wordpool_576.txt	LTP229	ltpFR2	2	1	MASK	876	n/a	n/a	0	0	0
363.556	n/a	WORD	181778	wordpools/wasnorm_wordpool_576.txt	LTP229	ltpFR2	2	1	COURSE	390	n/a	n/a	0	0	0
366.122	n/a	WORD	183061	wordpools/wasnorm_wordpool_576.txt	LTP229	ltpFR2	2	1	ULCER	1533	n/a	n/a	0	0	0
368.782	n/a	WORD	184391	wordpools/wasnorm_wordpool_576.txt	LTP229	ltpFR2	2	1	STOMACH	1384	n/a	n/a	0	0	0
371.374	n/a	WORD	185687	wordpools/wasnorm_wordpool_576.txt	LTP229	ltpFR2	2	1	NOVEL	960	n/a	n/a	0	0	0
373.87	n/a	WORD	186935	wordpools/wasnorm_wordpool_576.txt	LTP229	ltpFR2	2	1	SCARF	1246	n/a	n/a	0	0	0
376.44	n/a	WORD	188220	wordpools/wasnorm_wordpool_576.txt	LTP229	ltpFR2	2	1	SPHINX	1349	n/a	n/a	0	0	0
378.888	n/a	WORD	189444	wordpools/wasnorm_wordpool_576.txt	LTP229	ltpFR2	2	1	COWBOY	395	n/a	n/a	0	0	0
381.342	n/a	WORD	190671	wordpools/wasnorm_wordpool_576.txt	LTP229	ltpFR2	2	1	PECAN	1036	n/a	n/a	0	0	0
383.99	n/a	WORD	191995	wordpools/wasnorm_wordpool_576.txt	LTP229	ltpFR2	2	1	LIPSTICK	829	n/a	n/a	0	0	0
386.7	n/a	WORD	193350	wordpools/wasnorm_wordpool_576.txt	LTP229	ltpFR2	2	1	LACE	792	n/a	n/a	0	0	0
389.36	n/a	WORD	194680	wordpools/wasnorm_wordpool_576.txt	LTP229	ltpFR2	2	1	TEMPLE	1448	n/a	n/a	0	0	0
391.904	n/a	WORD	195952	wordpools/wasnorm_wordpool_576.txt	LTP229	ltpFR2	2	1	IDOL	733	n/a	n/a	0	0	0
394.548	n/a	WORD	197274	wordpools/wasnorm_wordpool_576.txt	LTP229	ltpFR2	2	1	PIGMENT	1066	n/a	n/a	0	0	0
396.968	n/a	WORD	198484	wordpools/wasnorm_wordpool_576.txt	LTP229	ltpFR2	2	1	FLASHLIGHT	575	n/a	n/a	0	0	0
398.58	n/a	START	199290	n/a	LTP229	ltpFR2	2	n/a	n/a	n/a	2	n/a	n/a	n/a	n/a
399.664	n/a	DISTRACTOR	199832	n/a	LTP229	ltpFR2	2	1	n/a	n/a	n/a	n/a	0	0	0
399.678	n/a	PROB	199839	n/a	LTP229	ltpFR2	2	n/a	n/a	n/a	2	10	7	1	2
401.652	n/a	PROB	200826	n/a	LTP229	ltpFR2	2	n/a	n/a	n/a	2	12	5	4	3
403.442	n/a	PROB	201721	n/a	LTP229	ltpFR2	2	n/a	n/a	n/a	2	15	4	3	8
406.47	n/a	PROB	203235	n/a	LTP229	ltpFR2	2	n/a	n/a	n/a	2	18	6	5	7
409.416	n/a	PROB	204708	n/a	LTP229	ltpFR2	2	n/a	n/a	n/a	2	15	6	1	8
412.56	n/a	PROB	206280	n/a	LTP229	ltpFR2	2	n/a	n/a	n/a	2	15	1	7	7
414.05	n/a	PROB	207025	n/a	LTP229	ltpFR2	2	n/a	n/a	n/a	2	16	1	9	6
415.46	n/a	PROB	207730	n/a	LTP229	ltpFR2	2	n/a	n/a	n/a	2	18	7	2	9
417.43	n/a	PROB	208715	n/a	LTP229	ltpFR2	2	n/a	n/a	n/a	2	15	2	5	8
419.336	n/a	PROB	209668	n/a	LTP229	ltpFR2	2	n/a	n/a	n/a	2	26	9	8	9
421.724	n/a	STOP	210862	n/a	LTP229	ltpFR2	2	n/a	n/a	n/a	2	n/a	n/a	n/a	n/a
424.546	n/a	REC_START	212273	n/a	LTP229	ltpFR2	2	1	n/a	n/a	n/a	n/a	0	0	0
426.354	n/a	REC_WORD	213177	wordpools/wasnorm_wordpool_576.txt	LTP229	ltpFR2	2	1	MASK	876	n/a	n/a	0	0	0
428.02	n/a	REC_WORD	214010	wordpools/wasnorm_wordpool_576.txt	LTP229	ltpFR2	2	1	COURSE	390	n/a	n/a	0	0	0
430.01	n/a	REC_WORD	215005	wordpools/wasnorm_wordpool_576.txt	LTP229	ltpFR2	2	1	SPHINX	1349	n/a	n/a	0	0	0
432.284	n/a	REC_WORD	216142	wordpools/wasnorm_wordpool_576.txt	LTP229	ltpFR2	2	1	IDOL	733	n/a	n/a	0	0	0
434.468	n/a	REC_WORD	217234	wordpools/wasnorm_wordpool_576.txt	LTP229	ltpFR2	2	1	TEMPLE	1448	n/a	n/a	0	0	0
437.134	n/a	REC_WORD	218567	wordpools/wasnorm_wordpool_576.txt	LTP229	ltpFR2	2	1	LIPSTICK	829	n/a	n/a	0	0	0
439.946	n/a	REC_WORD	219973	wordpools/wasnorm_wordpool_576.txt	LTP229	ltpFR2	2	1	CAMEL	223	n/a	n/a	0	0	0
442.372	n/a	REC_WORD	221186	wordpools/wasnorm_wordpool_576.txt	LTP229	ltpFR2	2	1	DAISY	435	n/a	n/a	0	0	0
444.856	n/a	REC_WORD	222428	wordpools/wasnorm_wordpool_576.txt	LTP229	ltpFR2	2	1	QUEEN	1149	n/a	n/a	0	0	0
447.638	n/a	REC_WORD	223819	wordpools/wasnorm_wordpool_576.txt	LTP229	ltpFR2	2	1	LACE	792	n/a	n/a	0	0	0
450.64	n/a	REC_WORD	225320	wordpools/wasnorm_wordpool_576.txt	LTP229	ltpFR2	2	1	RIVER	1194	n/a	n/a	0	0	0
455.154	n/a	REC_WORD	227577	wordpools/wasnorm_wordpool_576.txt	LTP229	ltpFR2	2	1	RAZOR	1171	n/a	n/a	0	0	0
457.56	n/a	REC_WORD	228780	wordpools/wasnorm_wordpool_576.txt	LTP229	ltpFR2	2	1	BLADE	134	n/a	n/a	0	0	0
475.958	n/a	REC_WORD	237979	wordpools/wasnorm_wordpool_576.txt	LTP229	ltpFR2	2	1	PECAN	1036	n/a	n/a	0	0	0
478.324	n/a	REC_WORD	239162	wordpools/wasnorm_wordpool_576.txt	LTP229	ltpFR2	2	1	COWBOY	395	n/a	n/a	0	0	0
515.66	n/a	DISTRACTOR	257830	n/a	LTP229	ltpFR2	2	2	n/a	n/a	n/a	n/a	0	0	0
515.66	n/a	START	257830	n/a	LTP229	ltpFR2	2	n/a	n/a	n/a	3	n/a	n/a	n/a	n/a
515.71	n/a	PROB	257855	n/a	LTP229	ltpFR2	2	n/a	n/a	n/a	3	7	1	2	4
517.534	n/a	PROB	258767	n/a	LTP229	ltpFR2	2	n/a	n/a	n/a	3	20	9	5	8
522.03	n/a	PROB	261015	n/a	LTP229	ltpFR2	2	n/a	n/a	n/a	3	10	3	3	4
524.172	n/a	PROB	262086	n/a	LTP229	ltpFR2	2	n/a	n/a	n/a	3	14	4	9	1
525.626	n/a	PROB	262813	n/a	LTP229	ltpFR2	2	n/a	n/a	n/a	3	11	3	5	3
527.506	n/a	PROB	263753	n/a	LTP229	ltpFR2	2	n/a	n/a	n/a	3	15	4	3	8
529.258	n/a	PROB	264629	n/a	LTP229	ltpFR2	2	n/a	n/a	n/a	3	15	5	7	3
530.596	n/a	PROB	265298	n/a	LTP229	ltpFR2	2	n/a	n/a	n/a	3	6	1	4	1
532.352	n/a	PROB	266176	n/a	LTP229	ltpFR2	2	n/a	n/a	n/a	3	15	9	4	2
534.164	n/a	PROB	267082	n/a	LTP229	ltpFR2	2	n/a	n/a	n/a	3	20	9	3	7
539.662	n/a	STOP	269831	n/a	LTP229	ltpFR2	2	n/a	n/a	n/a	3	n/a	n/a	n/a	n/a
540.606	n/a	WORD	270303	wordpools/wasnorm_wordpool_576.txt	LTP229	ltpFR2	2	2	ISLAND	745	n/a	n/a	0	0	0
543.35	n/a	WORD	271675	wordpools/wasnorm_wordpool_576.txt	LTP229	ltpFR2	2	2	OYSTER	995	n/a	n/a	0	0	0
546.156	n/a	WORD	273078	wordpools/wasnorm_wordpool_576.txt	LTP229	ltpFR2	2	2	SILK	1307	n/a	n/a	0	0	0
548.788	n/a	WORD	274394	wordpools/wasnorm_wordpool_576.txt	LTP229	ltpFR2	2	2	GAVEL	627	n/a	n/a	0	0	0
551.446	n/a	WORD	275723	wordpools/wasnorm_wordpool_576.txt	LTP229	ltpFR2	2	2	BOYFRIEND	162	n/a	n/a	0	0	0
554.09	n/a	WORD	277045	wordpools/wasnorm_wordpool_576.txt	LTP229	ltpFR2	2	2	OUTLAW	989	n/a	n/a	0	0	0
556.65	n/a	WORD	278325	wordpools/wasnorm_wordpool_576.txt	LTP229	ltpFR2	2	2	MARROW	872	n/a	n/a	0	0	0
559.344	n/a	WORD	279672	wordpools/wasnorm_wordpool_576.txt	LTP229	ltpFR2	2	2	FIREMAN	569	n/a	n/a	0	0	0
562.15	n/a	WORD	281075	wordpools/wasnorm_wordpool_576.txt	LTP229	ltpFR2	2	2	MATCH	878	n/a	n/a	0	0	0
564.642	n/a	WORD	282321	wordpools/wasnorm_wordpool_576.txt	LTP229	ltpFR2	2	2	CUPBOARD	425	n/a	n/a	0	0	0
567.224	n/a	WORD	283612	wordpools/wasnorm_wordpool_576.txt	LTP229	ltpFR2	2	2	HONEY	713	n/a	n/a	0	0	0
569.884	n/a	WORD	284942	wordpools/wasnorm_wordpool_576.txt	LTP229	ltpFR2	2	2	GRAPE	654	n/a	n/a	0	0	0
572.56	n/a	WORD	286280	wordpools/wasnorm_wordpool_576.txt	LTP229	ltpFR2	2	2	CHAMPAGNE	278	n/a	n/a	0	0	0
575.138	n/a	WORD	287569	wordpools/wasnorm_wordpool_576.txt	LTP229	ltpFR2	2	2	WITNESS	1618	n/a	n/a	0	0	0
577.68	n/a	WORD	288840	wordpools/wasnorm_wordpool_576.txt	LTP229	ltpFR2	2	2	EYELASH	546	n/a	n/a	0	0	0
580.34	n/a	WORD	290170	wordpools/wasnorm_wordpool_576.txt	LTP229	ltpFR2	2	2	CRITIC	410	n/a	n/a	0	0	0
583.014	n/a	WORD	291507	wordpools/wasnorm_wordpool_576.txt	LTP229	ltpFR2	2	2	JURY	766	n/a	n/a	0	0	0
585.494	n/a	WORD	292747	wordpools/wasnorm_wordpool_576.txt	LTP229	ltpFR2	2	2	CLAMP	316	n/a	n/a	0	0	0
587.97	n/a	WORD	293985	wordpools/wasnorm_wordpool_576.txt	LTP229	ltpFR2	2	2	PILOT	1070	n/a	n/a	0	0	0
590.58	n/a	WORD	295290	wordpools/wasnorm_wordpool_576.txt	LTP229	ltpFR2	2	2	NIGHTGOWN	953	n/a	n/a	0	0	0
593.134	n/a	WORD	296567	wordpools/wasnorm_wordpool_576.txt	LTP229	ltpFR2	2	2	STREAM	1392	n/a	n/a	0	0	0
595.694	n/a	WORD	297847	wordpools/wasnorm_wordpool_576.txt	LTP229	ltpFR2	2	2	WARDROBE	1587	n/a	n/a	0	0	0
598.454	n/a	WORD	299227	wordpools/wasnorm_wordpool_576.txt	LTP229	ltpFR2	2	2	ACTRESS	6	n/a	n/a	0	0	0
600.904	n/a	WORD	300452	wordpools/wasnorm_wordpool_576.txt	LTP229	ltpFR2	2	2	ARMY	39	n/a	n/a	0	0	0
602.52	n/a	START	301260	n/a	LTP229	ltpFR2	2	n/a	n/a	n/a	4	n/a	n/a	n/a	n/a
603.622	n/a	DISTRACTOR	301811	n/a	LTP229	ltpFR2	2	2	n/a	n/a	n/a	n/a	0	0	0
603.63	n/a	PROB	301815	n/a	LTP229	ltpFR2	2	n/a	n/a	n/a	4	5	1	2	2
605.114	n/a	PROB	302557	n/a	LTP229	ltpFR2	2	n/a	n/a	n/a	4	15	7	8	5
608.26	n/a	PROB	304130	n/a	LTP229	ltpFR2	2	n/a	n/a	n/a	4	11	1	9	1
609.368	n/a	PROB	304684	n/a	LTP229	ltpFR2	2	n/a	n/a	n/a	4	13	3	9	1
611.054	n/a	PROB	305527	n/a	LTP229	ltpFR2	2	n/a	n/a	n/a	4	13	8	4	1
613.832	n/a	PROB	306916	n/a	LTP229	ltpFR2	2	n/a	n/a	n/a	4	21	9	8	3
616.474	n/a	PROB	308237	n/a	LTP229	ltpFR2	2	n/a	n/a	n/a	4	12	3	6	3
618.972	n/a	PROB	309486	n/a	LTP229	ltpFR2	2	n/a	n/a	n/a	4	15	5	8	7
620.758	n/a	PROB	310379	n/a	LTP229	ltpFR2	2	n/a	n/a	n/a	4	15	1	5	9
622.882	n/a	PROB	311441	n/a	LTP229	ltpFR2	2	n/a	n/a	n/a	4	11	3	1	7
624.538	n/a	PROB	312269	n/a	LTP229	ltpFR2	2	n/a	n/a	n/a	4	13	3	3	7
625.976	n/a	STOP	312988	n/a	LTP229	ltpFR2	2	n/a	n/a	n/a	4	n/a	n/a	n/a	n/a
628.386	n/a	REC_START	314193	n/a	LTP229	ltpFR2	2	2	n/a	n/a	n/a	n/a	0	0	0
630.318	n/a	REC_WORD	315159	wordpools/wasnorm_wordpool_576.txt	LTP229	ltpFR2	2	2	GAVEL	627	n/a	n/a	0	0	0
632.46	n/a	REC_WORD	316230	wordpools/wasnorm_wordpool_576.txt	LTP229	ltpFR2	2	2	BOYFRIEND	162	n/a	n/a	0	0	0
634.824	n/a	REC_WORD	317412	wordpools/wasnorm_wordpool_576.txt	LTP229	ltpFR2	2	2	EYELASH	546	n/a	n/a	0	0	0
637.328	n/a	REC_WORD	318664	wordpools/wasnorm_wordpool_576.txt	LTP229	ltpFR2	2	2	ISLAND	745	n/a	n/a	0	0	0
641.27	n/a	REC_WORD	320635	wordpools/wasnorm_wordpool_576.txt	LTP229	ltpFR2	2	2	CLAMP	316	n/a	n/a	0	0	0
643.672	n/a	REC_WORD	321836	wordpools/wasnorm_wordpool_576.txt	LTP229	ltpFR2	2	2	OYSTER	995	n/a	n/a	0	0	0
646.046	n/a	REC_WORD	323023	wordpools/wasnorm_wordpool_576.txt	LTP229	ltpFR2	2	2	STOMACH	1384	n/a	n/a	0	0	0
648.88	n/a	REC_WORD	324440	wordpools/wasnorm_wordpool_576.txt	LTP229	ltpFR2	2	2	ULCER	1533	n/a	n/a	0	0	0
651.788	n/a	REC_WORD	325894	wordpools/wasnorm_wordpool_576.txt	LTP229	ltpFR2	2	2	FIREMAN	569	n/a	n/a	0	0	0
654.712	n/a	REC_WORD	327356	wordpools/wasnorm_wordpool_576.txt	LTP229	ltpFR2	2	2	MATCH	878	n/a	n/a	0	0	0
666.094	n/a	REC_WORD_VV	333047	wordpools/wasnorm_wordpool_576.txt	LTP229	ltpFR2	2	2	<>	-1	n/a	n/a	0	0	0
667.094	n/a	REC_WORD_VV	333547	wordpools/wasnorm_wordpool_576.txt	LTP229	ltpFR2	2	2	<>	-1	n/a	n/a	0	0	0
719.438	n/a	WORD	359719	wordpools/wasnorm_wordpool_576.txt	LTP229	ltpFR2	2	3	PEANUT	1032	n/a	n/a	0	0	0
722.234	n/a	WORD	361117	wordpools/wasnorm_wordpool_576.txt	LTP229	ltpFR2	2	3	LIGHTNING	820	n/a	n/a	0	0	0
724.722	n/a	WORD	362361	wordpools/wasnorm_wordpool_576.txt	LTP229	ltpFR2	2	3	RACKET	1155	n/a	n/a	0	0	0
727.254	n/a	WORD	363627	wordpools/wasnorm_wordpool_576.txt	LTP229	ltpFR2	2	3	BRIEFCASE	175	n/a	n/a	0	0	0
729.93	n/a	WORD	364965	wordpools/wasnorm_wordpool_576.txt	LTP229	ltpFR2	2	3	PANTHER	1009	n/a	n/a	0	0	0
732.656	n/a	WORD	366328	wordpools/wasnorm_wordpool_576.txt	LTP229	ltpFR2	2	3	DORM	488	n/a	n/a	0	0	0
735.282	n/a	WORD	367641	wordpools/wasnorm_wordpool_576.txt	LTP229	ltpFR2	2	3	ZEBRA	1635	n/a	n/a	0	0	0
737.926	n/a	WORD	368963	wordpools/wasnorm_wordpool_576.txt	LTP229	ltpFR2	2	3	WAITRESS	1581	n/a	n/a	0	0	0
740.754	n/a	WORD	370377	wordpools/wasnorm_wordpool_576.txt	LTP229	ltpFR2	2	3	BUBBLE	183	n/a	n/a	0	0	0
743.264	n/a	WORD	371632	wordpools/wasnorm_wordpool_576.txt	LTP229	ltpFR2	2	3	BATHTUB	100	n/a	n/a	0	0	0
745.84	n/a	WORD	372920	wordpools/wasnorm_wordpool_576.txt	LTP229	ltpFR2	2	3	LEOPARD	812	n/a	n/a	0	0	0
748.584	n/a	WORD	374292	wordpools/wasnorm_wordpool_576.txt	LTP229	ltpFR2	2	3	PLASTER	1085	n/a	n/a	0	0	0
751.39	n/a	WORD	375695	wordpools/wasnorm_wordpool_576.txt	LTP229	ltpFR2	2	3	PASSAGE	1019	n/a	n/a	0	0	0
753.872	n/a	WORD	376936	wordpools/wasnorm_wordpool_576.txt	LTP229	ltpFR2	2	3	PARENT	1013	n/a	n/a	0	0	0
756.692	n/a	WORD	378346	wordpools/wasnorm_wordpool_576.txt	LTP229	ltpFR2	2	3	BREAST	171	n/a	n/a	0	0	0
759.374	n/a	WORD	379687	wordpools/wasnorm_wordpool_576.txt	LTP229	ltpFR2	2	3	CHEST	295	n/a	n/a	0	0	0
761.952	n/a	WORD	380976	wordpools/wasnorm_wordpool_576.txt	LTP229	ltpFR2	2	3	FREEZER	604	n/a	n/a	0	0	0
764.478	n/a	WORD	382239	wordpools/wasnorm_wordpool_576.txt	LTP229	ltpFR2	2	3	MUFFIN	929	n/a	n/a	0	0	0
767.168	n/a	WORD	383584	wordpools/wasnorm_wordpool_576.txt	LTP229	ltpFR2	2	3	BUG	187	n/a	n/a	0	0	0
769.71	n/a	WORD	384855	wordpools/wasnorm_wordpool_576.txt	LTP229	ltpFR2	2	3	GLASS	639	n/a	n/a	0	0	0
772.274	n/a	WORD	386137	wordpools/wasnorm_wordpool_576.txt	LTP229	ltpFR2	2	3	ROD	1203	n/a	n/a	0	0	0
774.918	n/a	WORD	387459	wordpools/wasnorm_wordpool_576.txt	LTP229	ltpFR2	2	3	HIGHWAY	707	n/a	n/a	0	0	0
777.494	n/a	WORD	388747	wordpools/wasnorm_wordpool_576.txt	LTP229	ltpFR2	2	3	SIDEWALK	1303	n/a	n/a	0	0	0
780.306	n/a	WORD	390153	wordpools/wasnorm_wordpool_576.txt	LTP229	ltpFR2	2	3	GARLIC	624	n/a	n/a	0	0	0
781.912	n/a	START	390956	n/a	LTP229	ltpFR2	2	n/a	n/a	n/a	5	n/a	n/a	n/a	n/a
783.08	n/a	DISTRACTOR	391540	n/a	LTP229	ltpFR2	2	3	n/a	n/a	n/a	n/a	0	0	0
783.094	n/a	PROB	391547	n/a	LTP229	ltpFR2	2	n/a	n/a	n/a	5	14	8	5	1
787.244	n/a	PROB	393622	n/a	LTP229	ltpFR2	2	n/a	n/a	n/a	5	26	9	9	8
789.586	n/a	PROB	394793	n/a	LTP229	ltpFR2	2	n/a	n/a	n/a	5	7	2	1	4
791.142	n/a	PROB	395571	n/a	LTP229	ltpFR2	2	n/a	n/a	n/a	5	25	9	8	8
793.372	n/a	PROB	396686	n/a	LTP229	ltpFR2	2	n/a	n/a	n/a	5	26	8	9	9
795.378	n/a	PROB	397689	n/a	LTP229	ltpFR2	2	n/a	n/a	n/a	5	6	4	1	1
796.964	n/a	PROB	398482	n/a	LTP229	ltpFR2	2	n/a	n/a	n/a	5	19	1	9	9
799.156	n/a	PROB	399578	n/a	LTP229	ltpFR2	2	n/a	n/a	n/a	5	15	5	7	3
800.36	n/a	PROB	400180	n/a	LTP229	ltpFR2	2	n/a	n/a	n/a	5	13	3	3	7
801.866	n/a	PROB	400933	n/a	LTP229	ltpFR2	2	n/a	n/a	n/a	5	14	5	5	4
803.154	n/a	PROB	401577	n/a	LTP229	ltpFR2	2	n/a	n/a	n/a	5	12	6	1	5
805.058	n/a	STOP	402529	n/a	LTP229	ltpFR2	2	n/a	n/a	n/a	5	n/a	n/a	n/a	n/a
807.824	n/a	REC_START	403912	n/a	LTP229	ltpFR2	2	3	n/a	n/a	n/a	n/a	0	0	0
809.556	n/a	REC_WORD	404778	wordpools/wasnorm_wordpool_576.txt	LTP229	ltpFR2	2	3	FLASHLIGHT	575	n/a	n/a	0	0	0
811.938	n/a	REC_WORD	405969	wordpools/wasnorm_wordpool_576.txt	LTP229	ltpFR2	2	3	LIGHTNING	820	n/a	n/a	0	0	0
814.772	n/a	REC_WORD	407386	wordpools/wasnorm_wordpool_576.txt	LTP229	ltpFR2	2	3	ZEBRA	1635	n/a	n/a	0	0	0
817.454	n/a	REC_WORD	408727	wordpools/wasnorm_wordpool_576.txt	LTP229	ltpFR2	2	3	LEOPARD	812	n/a	n/a	0	0	0
820.412	n/a	REC_WORD	410206	wordpools/wasnorm_wordpool_576.txt	LTP229	ltpFR2	2	3	GLASS	639	n/a	n/a	0	0	0
822.99	n/a	REC_WORD	411495	wordpools/wasnorm_wordpool_576.txt	LTP229	ltpFR2	2	3	ROD	1203	n/a	n/a	0	0	0
839.808	n/a	REC_WORD	419904	wordpools/wasnorm_wordpool_576.txt	LTP229	ltpFR2	2	3	PEANUT	1032	n/a	n/a	0	0	0
845.128	n/a	REC_WORD	422564	wordpools/wasnorm_wordpool_576.txt	LTP229	ltpFR2	2	3	PARENT	1013	n/a	n/a	0	0	0
898.842	n/a	DISTRACTOR	449421	n/a	LTP229	ltpFR2	2	4	n/a	n/a	n/a	n/a	0	0	0
898.842	n/a	START	449421	n/a	LTP229	ltpFR2	2	n/a	n/a	n/a	6	n/a	n/a	n/a	n/a
898.892	n/a	PROB	449446	n/a	LTP229	ltpFR2	2	n/a	n/a	n/a	6	18	8	3	7
900.142	n/a	PROB	450071	n/a	LTP229	ltpFR2	2	n/a	n/a	n/a	6	17	8	8	1
901.63	n/a	PROB	450815	n/a	LTP229	ltpFR2	2	n/a	n/a	n/a	6	11	7	1	3
902.858	n/a	PROB	451429	n/a	LTP229	ltpFR2	2	n/a	n/a	n/a	6	12	5	4	3
904.542	n/a	PROB	452271	n/a	LTP229	ltpFR2	2	n/a	n/a	n/a	6	15	4	9	5
906.57	n/a	PROB	453285	n/a	LTP229	ltpFR2	2	n/a	n/a	n/a	6	19	9	7	3
908.056	n/a	PROB	454028	n/a	LTP229	ltpFR2	2	n/a	n/a	n/a	6	20	3	9	7
913.024	n/a	PROB	456512	n/a	LTP229	ltpFR2	2	n/a	n/a	n/a	6	16	5	8	3
915.836	n/a	PROB	457918	n/a	LTP229	ltpFR2	2	n/a	n/a	n/a	6	22	4	9	9
922.016	n/a	STOP	461008	n/a	LTP229	ltpFR2	2	n/a	n/a	n/a	6	n/a	n/a	n/a	n/a
923.788	n/a	WORD	461894	wordpools/wasnorm_wordpool_576.txt	LTP229	ltpFR2	2	4	STOVE	1388	n/a	n/a	0	0	0
926.424	n/a	WORD	463212	wordpools/wasnorm_wordpool_576.txt	LTP229	ltpFR2	2	4	LEADER	807	n/a	n/a	0	0	0
929.104	n/a	WORD	464552	wordpools/wasnorm_wordpool_576.txt	LTP229	ltpFR2	2	4	VIKING	1565	n/a	n/a	0	0	0
931.852	n/a	WORD	465926	wordpools/wasnorm_wordpool_576.txt	LTP229	ltpFR2	2	4	ASIA	46	n/a	n/a	0	0	0
934.344	n/a	WORD	467172	wordpools/wasnorm_wordpool_576.txt	LTP229	ltpFR2	2	4	LONDON	843	n/a	n/a	0	0	0
936.87	n/a	WORD	468435	wordpools/wasnorm_wordpool_576.txt	LTP229	ltpFR2	2	4	TOMBSTONE	1478	n/a	n/a	0	0	0
939.68	n/a	WORD	469840	wordpools/wasnorm_wordpool_576.txt	LTP229	ltpFR2	2	4	SIBLING	1301	n/a	n/a	0	0	0
942.308	n/a	WORD	471154	wordpools/wasnorm_wordpool_576.txt	LTP229	ltpFR2	2	4	BROTHER	179	n/a	n/a	0	0	0
944.918	n/a	WORD	472459	wordpools/wasnorm_wordpool_576.txt	LTP229	ltpFR2	2	4	SALAD	1224	n/a	n/a	0	0	0
947.712	n/a	WORD	473856	wordpools/wasnorm_wordpool_576.txt	LTP229	ltpFR2	2	4	CHIPMUNK	304	n/a	n/a	0	0	0
950.472	n/a	WORD	475236	wordpools/wasnorm_wordpool_576.txt	LTP229	ltpFR2	2	4	AGENT	10	n/a	n/a	0	0	0
953.032	n/a	WORD	476516	wordpools/wasnorm_wordpool_576.txt	LTP229	ltpFR2	2	4	HANDBAG	684	n/a	n/a	0	0	0
955.508	n/a	WORD	477754	wordpools/wasnorm_wordpool_576.txt	LTP229	ltpFR2	2	4	MILK	895	n/a	n/a	0	0	0
958.248	n/a	WORD	479124	wordpools/wasnorm_wordpool_576.txt	LTP229	ltpFR2	2	4	ROOSTER	1209	n/a	n/a	0	0	0
960.678	n/a	WORD	480339	wordpools/wasnorm_wordpool_576.txt	LTP229	ltpFR2	2	4	PIMPLE	1071	n/a	n/a	0	0	0
963.25	n/a	WORD	481625	wordpools/wasnorm_wordpool_576.txt	LTP229	ltpFR2	2	4	SUSPECT	1415	n/a	n/a	0	0	0
965.832	n/a	WORD	482916	wordpools/wasnorm_wordpool_576.txt	LTP229	ltpFR2	2	4	JUDGE	761	n/a	n/a	0	0	0
968.458	n/a	WORD	484229	wordpools/wasnorm_wordpool_576.txt	LTP229	ltpFR2	2	4	GAZELLE	628	n/a	n/a	0	0	0
971.27	n/a	WORD	485635	wordpools/wasnorm_wordpool_576.txt	LTP229	ltpFR2	2	4	LETTUCE	814	n/a	n/a	0	0	0
973.756	n/a	WORD	486878	wordpools/wasnorm_wordpool_576.txt	LTP229	ltpFR2	2	4	CREVICE	405	n/a	n/a	0	0	0
976.55	n/a	WORD	488275	wordpools/wasnorm_wordpool_576.txt	LTP229	ltpFR2	2	4	CASHIER	254	n/a	n/a	0	0	0
979.298	n/a	WORD	489649	wordpools/wasnorm_wordpool_576.txt	LTP229	ltpFR2	2	4	GARBAGE	622	n/a	n/a	0	0	0
981.826	n/a	WORD	490913	wordpools/wasnorm_wordpool_576.txt	LTP229	ltpFR2	2	4	COIN	343	n/a	n/a	0	0	0
984.502	n/a	WORD	492251	wordpools/wasnorm_wordpool_576.txt	LTP229	ltpFR2	2	4	PERFUME	1049	n/a	n/a	0	0	0
986.11	n/a	START	493055	n/a	LTP229	ltpFR2	2	n/a	n/a	n/a	7	n/a	n/a	n/a	n/a
987.228	n/a	DISTRACTOR	493614	n/a	LTP229	ltpFR2	2	4	n/a	n/a	n/a	n/a	0	0	0
987.242	n/a	PROB	493621	n/a	LTP229	ltpFR2	2	n/a	n/a	n/a	7	16	6	9	1
988.882	n/a	PROB	494441	n/a	LTP229	ltpFR2	2	n/a	n/a	n/a	7	8	2	4	4
990.738	n/a	PROB	495369	n/a	LTP229	ltpFR2	2	n/a	n/a	n/a	7	6	1	3	2
994.018	n/a	PROB	497009	n/a	LTP229	ltpFR2	2	n/a	n/a	n/a	7	14	2	5	7
995.79	n/a	PROB	497895	n/a	LTP229	ltpFR2	2	n/a	n/a	n/a	7	14	3	4	7
998.132	n/a	PROB	499066	n/a	LTP229	ltpFR2	2	n/a	n/a	n/a	7	21	6	9	6
1001.848	n/a	PROB	500924	n/a	LTP229	ltpFR2	2	n/a	n/a	n/a	7	14	4	9	1
1004.474	n/a	PROB	502237	n/a	LTP229	ltpFR2	2	n/a	n/a	n/a	7	14	8	2	4
1009.484	n/a	STOP	504742	n/a	LTP229	ltpFR2	2	n/a	n/a	n/a	7	n/a	n/a	n/a	n/a
1011.874	n/a	REC_START	505937	n/a	LTP229	ltpFR2	2	4	n/a	n/a	n/a	n/a	0	0	0
1013.326	n/a	REC_WORD	506663	wordpools/wasnorm_wordpool_576.txt	LTP229	ltpFR2	2	4	ASIA	46	n/a	n/a	0	0	0
1015.298	n/a	REC_WORD	507649	wordpools/wasnorm_wordpool_576.txt	LTP229	ltpFR2	2	4	LONDON	843	n/a	n/a	0	0	0
1017.436	n/a	REC_WORD	508718	wordpools/wasnorm_wordpool_576.txt	LTP229	ltpFR2	2	4	BROTHER	179	n/a	n/a	0	0	0
1019.316	n/a	REC_WORD	509658	wordpools/wasnorm_wordpool_576.txt	LTP229	ltpFR2	2	4	SIBLING	1301	n/a	n/a	0	0	0
1023.512	n/a	REC_WORD_VV	511756	wordpools/wasnorm_wordpool_576.txt	LTP229	ltpFR2	2	4	<>	-1	n/a	n/a	0	0	0
1024.62	n/a	REC_WORD	512310	wordpools/wasnorm_wordpool_576.txt	LTP229	ltpFR2	2	4	GAZELLE	628	n/a	n/a	0	0	0
1028.286	n/a	REC_WORD	514143	wordpools/wasnorm_wordpool_576.txt	LTP229	ltpFR2	2	4	CREVICE	405	n/a	n/a	0	0	0
1030.436	n/a	REC_WORD	515218	wordpools/wasnorm_wordpool_576.txt	LTP229	ltpFR2	2	4	LETTUCE	814	n/a	n/a	0	0	0
1032.336	n/a	REC_WORD	516168	wordpools/wasnorm_wordpool_576.txt	LTP229	ltpFR2	2	4	SALAD	1224	n/a	n/a	0	0	0
1051.878	n/a	REC_WORD	525939	wordpools/wasnorm_wordpool_576.txt	LTP229	ltpFR2	2	4	MUFFIN	929	n/a	n/a	0	0	0
1069.032	n/a	REC_WORD	534516	wordpools/wasnorm_wordpool_576.txt	LTP229	ltpFR2	2	4	PASSAGE	1019	n/a	n/a	0	0	0
1102.94	n/a	WORD	551470	wordpools/wasnorm_wordpool_576.txt	LTP229	ltpFR2	2	5	BROOK	177	n/a	n/a	0	0	0
1105.548	n/a	WORD	552774	wordpools/wasnorm_wordpool_576.txt	LTP229	ltpFR2	2	5	GRAVE	658	n/a	n/a	0	0	0
1108.086	n/a	WORD	554043	wordpools/wasnorm_wordpool_576.txt	LTP229	ltpFR2	2	5	EGYPT	519	n/a	n/a	0	0	0
1110.768	n/a	WORD	555384	wordpools/wasnorm_wordpool_576.txt	LTP229	ltpFR2	2	5	PIZZA	1079	n/a	n/a	0	0	0
1113.356	n/a	WORD	556678	wordpools/wasnorm_wordpool_576.txt	LTP229	ltpFR2	2	5	TUTU	1524	n/a	n/a	0	0	0
1116.04	n/a	WORD	558020	wordpools/wasnorm_wordpool_576.txt	LTP229	ltpFR2	2	5	CAPTIVE	240	n/a	n/a	0	0	0
1118.476	n/a	WORD	559238	wordpools/wasnorm_wordpool_576.txt	LTP229	ltpFR2	2	5	SWORD	1423	n/a	n/a	0	0	0
1121.288	n/a	WORD	560644	wordpools/wasnorm_wordpool_576.txt	LTP229	ltpFR2	2	5	ACTOR	5	n/a	n/a	0	0	0
1123.952	n/a	WORD	561976	wordpools/wasnorm_wordpool_576.txt	LTP229	ltpFR2	2	5	CRICKET	408	n/a	n/a	0	0	0
1126.624	n/a	WORD	563312	wordpools/wasnorm_wordpool_576.txt	LTP229	ltpFR2	2	5	DONKEY	484	n/a	n/a	0	0	0
1129.206	n/a	WORD	564603	wordpools/wasnorm_wordpool_576.txt	LTP229	ltpFR2	2	5	GUARD	667	n/a	n/a	0	0	0
1131.632	n/a	WORD	565816	wordpools/wasnorm_wordpool_576.txt	LTP229	ltpFR2	2	5	DANDRUFF	439	n/a	n/a	0	0	0
1134.442	n/a	WORD	567221	wordpools/wasnorm_wordpool_576.txt	LTP229	ltpFR2	2	5	HEADBAND	696	n/a	n/a	0	0	0
1137.136	n/a	WORD	568568	wordpools/wasnorm_wordpool_576.txt	LTP229	ltpFR2	2	5	CONTRACT	368	n/a	n/a	0	0	0
1139.59	n/a	WORD	569795	wordpools/wasnorm_wordpool_576.txt	LTP229	ltpFR2	2	5	CLIMBER	323	n/a	n/a	0	0	0
1142.356	n/a	WORD	571178	wordpools/wasnorm_wordpool_576.txt	LTP229	ltpFR2	2	5	ICING	732	n/a	n/a	0	0	0
1144.894	n/a	WORD	572447	wordpools/wasnorm_wordpool_576.txt	LTP229	ltpFR2	2	5	CATTLE	261	n/a	n/a	0	0	0
1147.704	n/a	WORD	573852	wordpools/wasnorm_wordpool_576.txt	LTP229	ltpFR2	2	5	SUITCASE	1403	n/a	n/a	0	0	0
1150.254	n/a	WORD	575127	wordpools/wasnorm_wordpool_576.txt	LTP229	ltpFR2	2	5	LUGGAGE	847	n/a	n/a	0	0	0
1152.88	n/a	WORD	576440	wordpools/wasnorm_wordpool_576.txt	LTP229	ltpFR2	2	5	SHIRT	1287	n/a	n/a	0	0	0
1155.468	n/a	WORD	577734	wordpools/wasnorm_wordpool_576.txt	LTP229	ltpFR2	2	5	PASTRY	1022	n/a	n/a	0	0	0
1158.05	n/a	WORD	579025	wordpools/wasnorm_wordpool_576.txt	LTP229	ltpFR2	2	5	JELLO	754	n/a	n/a	0	0	0
1160.826	n/a	WORD	580413	wordpools/wasnorm_wordpool_576.txt	LTP229	ltpFR2	2	5	BISON	131	n/a	n/a	0	0	0
1163.464	n/a	WORD	581732	wordpools/wasnorm_wordpool_576.txt	LTP229	ltpFR2	2	5	PLAZA	1088	n/a	n/a	0	0	0
1165.076	n/a	START	582538	n/a	LTP229	ltpFR2	2	n/a	n/a	n/a	8	n/a	n/a	n/a	n/a
1165.908	n/a	DISTRACTOR	582954	n/a	LTP229	ltpFR2	2	5	n/a	n/a	n/a	n/a	0	0	0
1165.924	n/a	PROB	582962	n/a	LTP229	ltpFR2	2	n/a	n/a	n/a	8	11	5	5	1
1167.2	n/a	PROB	583600	n/a	LTP229	ltpFR2	2	n/a	n/a	n/a	8	10	3	4	3
1169.342	n/a	PROB	584671	n/a	LTP229	ltpFR2	2	n/a	n/a	n/a	8	9	3	1	5
1172.952	n/a	PROB	586476	n/a	LTP229	ltpFR2	2	n/a	n/a	n/a	8	14	8	1	5
1175.548	n/a	PROB	587774	n/a	LTP229	ltpFR2	2	n/a	n/a	n/a	8	8	1	1	6
1176.838	n/a	PROB	588419	n/a	LTP229	ltpFR2	2	n/a	n/a	n/a	8	21	6	6	9
1179.376	n/a	PROB	589688	n/a	LTP229	ltpFR2	2	n/a	n/a	n/a	8	18	8	2	8
1180.966	n/a	PROB	590483	n/a	LTP229	ltpFR2	2	n/a	n/a	n/a	8	8	3	3	2
1183.848	n/a	PROB	591924	n/a	LTP229	ltpFR2	2	n/a	n/a	n/a	8	10	1	3	6
1186.738	n/a	PROB	593369	n/a	LTP229	ltpFR2	2	n/a	n/a	n/a	8	16	4	6	6
1188.216	n/a	STOP	594108	n/a	LTP229	ltpFR2	2	n/a	n/a	n/a	8	n/a	n/a	n/a	n/a
1190.96	n/a	REC_START	595480	n/a	LTP229	ltpFR2	2	5	n/a	n/a	n/a	n/a	0	0	0
1192.986	n/a	REC_WORD	596493	wordpools/wasnorm_wordpool_576.txt	LTP229	ltpFR2	2	5	PLAZA	1088	n/a	n/a	0	0	0
1194.96	n/a	REC_WORD	597480	wordpools/wasnorm_wordpool_576.txt	LTP229	ltpFR2	2	5	PIZZA	1079	n/a	n/a	0	0	0
1199.72	n/a	REC_WORD	599860	wordpools/wasnorm_wordpool_576.txt	LTP229	ltpFR2	2	5	JELLO	754	n/a	n/a	0	0	0
1225.418	n/a	REC_WORD	612709	wordpools/wasnorm_wordpool_576.txt	LTP229	ltpFR2	2	5	BISON	131	n/a	n/a	0	0	0
1229.046	n/a	REC_WORD	614523	wordpools/wasnorm_wordpool_576.txt	LTP229	ltpFR2	2	5	GAZELLE	628	n/a	n/a	0	0	0
1282.024	n/a	DISTRACTOR	641012	n/a	LTP229	ltpFR2	2	6	n/a	n/a	n/a	n/a	0	0	0
1282.024	n/a	START	641012	n/a	LTP229	ltpFR2	2	n/a	n/a	n/a	9	n/a	n/a	n/a	n/a
1282.074	n/a	PROB	641037	n/a	LTP229	ltpFR2	2	n/a	n/a	n/a	9	8	2	5	1
1283.724	n/a	PROB	641862	n/a	LTP229	ltpFR2	2	n/a	n/a	n/a	9	17	9	4	4
1287.004	n/a	PROB	643502	n/a	LTP229	ltpFR2	2	n/a	n/a	n/a	9	18	6	3	9
1288.812	n/a	PROB	644406	n/a	LTP229	ltpFR2	2	n/a	n/a	n/a	9	15	9	7	5
1291.052	n/a	PROB	645526	n/a	LTP229	ltpFR2	2	n/a	n/a	n/a	9	12	1	8	3
1292.948	n/a	PROB	646474	n/a	LTP229	ltpFR2	2	n/a	n/a	n/a	9	16	8	3	5
1295.568	n/a	PROB	647784	n/a	LTP229	ltpFR2	2	n/a	n/a	n/a	9	23	7	8	8
1297.98	n/a	PROB	648990	n/a	LTP229	ltpFR2	2	n/a	n/a	n/a	9	21	8	7	6
1301.376	n/a	PROB	650688	n/a	LTP229	ltpFR2	2	n/a	n/a	n/a	9	15	8	6	9
1303.104	n/a	PROB	651552	n/a	LTP229	ltpFR2	2	n/a	n/a	n/a	9	19	1	9	9
1305.19	n/a	STOP	652595	n/a	LTP229	ltpFR2	2	n/a	n/a	n/a	9	n/a	n/a	n/a	n/a
1307.114	n/a	WORD	653557	wordpools/wasnorm_wordpool_576.txt	LTP229	ltpFR2	2	6	HAMPER	682	n/a	n/a	0	0	0
1309.864	n/a	WORD	654932	wordpools/wasnorm_wordpool_576.txt	LTP229	ltpFR2	2	6	MUMMY	932	n/a	n/a	0	0	0
1312.59	n/a	WORD	656295	wordpools/wasnorm_wordpool_576.txt	LTP229	ltpFR2	2	6	PLATE	1086	n/a	n/a	0	0	0
1315.166	n/a	WORD	657583	wordpools/wasnorm_wordpool_576.txt	LTP229	ltpFR2	2	6	POPCORN	1104	n/a	n/a	0	0	0
1317.626	n/a	WORD	658813	wordpools/wasnorm_wordpool_576.txt	LTP229	ltpFR2	2	6	SCOTCH	1251	n/a	n/a	0	0	0
1320.214	n/a	WORD	660107	wordpools/wasnorm_wordpool_576.txt	LTP229	ltpFR2	2	6	POLICE	1098	n/a	n/a	0	0	0
1322.796	n/a	WORD	661398	wordpools/wasnorm_wordpool_576.txt	LTP229	ltpFR2	2	6	DOUGHNUT	490	n/a	n/a	0	0	0
1325.416	n/a	WORD	662708	wordpools/wasnorm_wordpool_576.txt	LTP229	ltpFR2	2	6	MARS	873	n/a	n/a	0	0	0
1328.116	n/a	WORD	664058	wordpools/wasnorm_wordpool_576.txt	LTP229	ltpFR2	2	6	HAWK	692	n/a	n/a	0	0	0
1330.794	n/a	WORD	665397	wordpools/wasnorm_wordpool_576.txt	LTP229	ltpFR2	2	6	SUPPER	1411	n/a	n/a	0	0	0
1333.236	n/a	WORD	666618	wordpools/wasnorm_wordpool_576.txt	LTP229	ltpFR2	2	6	KEEPER	769	n/a	n/a	0	0	0
1335.846	n/a	WORD	667923	wordpools/wasnorm_wordpool_576.txt	LTP229	ltpFR2	2	6	PORTRAIT	1111	n/a	n/a	0	0	0
1338.272	n/a	WORD	669136	wordpools/wasnorm_wordpool_576.txt	LTP229	ltpFR2	2	6	COCKTAIL	338	n/a	n/a	0	0	0
1340.748	n/a	WORD	670374	wordpools/wasnorm_wordpool_576.txt	LTP229	ltpFR2	2	6	FLASK	576	n/a	n/a	0	0	0
1343.424	n/a	WORD	671712	wordpools/wasnorm_wordpool_576.txt	LTP229	ltpFR2	2	6	CRAYON	401	n/a	n/a	0	0	0
1346.052	n/a	WORD	673026	wordpools/wasnorm_wordpool_576.txt	LTP229	ltpFR2	2	6	PUDDLE	1140	n/a	n/a	0	0	0
1348.644	n/a	WORD	674322	wordpools/wasnorm_wordpool_576.txt	LTP229	ltpFR2	2	6	LAGOON	795	n/a	n/a	0	0	0
1351.32	n/a	WORD	675660	wordpools/wasnorm_wordpool_576.txt	LTP229	ltpFR2	2	6	BRANDY	169	n/a	n/a	0	0	0
1353.764	n/a	WORD	676882	wordpools/wasnorm_wordpool_576.txt	LTP229	ltpFR2	2	6	BLUEPRINT	142	n/a	n/a	0	0	0
1356.424	n/a	WORD	678212	wordpools/wasnorm_wordpool_576.txt	LTP229	ltpFR2	2	6	LODGE	839	n/a	n/a	0	0	0
1359.236	n/a	WORD	679618	wordpools/wasnorm_wordpool_576.txt	LTP229	ltpFR2	2	6	FLESH	579	n/a	n/a	0	0	0
1361.912	n/a	WORD	680956	wordpools/wasnorm_wordpool_576.txt	LTP229	ltpFR2	2	6	RAFT	1159	n/a	n/a	0	0	0
1364.616	n/a	WORD	682308	wordpools/wasnorm_wordpool_576.txt	LTP229	ltpFR2	2	6	MEDAL	885	n/a	n/a	0	0	0
1367.428	n/a	WORD	683714	wordpools/wasnorm_wordpool_576.txt	LTP229	ltpFR2	2	6	DIME	466	n/a	n/a	0	0	0
1369.04	n/a	START	684520	n/a	LTP229	ltpFR2	2	n/a	n/a	n/a	10	n/a	n/a	n/a	n/a
1370.206	n/a	DISTRACTOR	685103	n/a	LTP229	ltpFR2	2	6	n/a	n/a	n/a	n/a	0	0	0
1370.222	n/a	PROB	685111	n/a	LTP229	ltpFR2	2	n/a	n/a	n/a	10	15	6	7	9
1371.744	n/a	PROB	685872	n/a	LTP229	ltpFR2	2	n/a	n/a	n/a	10	14	3	4	7
1373.434	n/a	PROB	686717	n/a	LTP229	ltpFR2	2	n/a	n/a	n/a	10	13	3	8	2
1374.846	n/a	PROB	687423	n/a	LTP229	ltpFR2	2	n/a	n/a	n/a	10	12	2	4	6
1376.546	n/a	PROB	688273	n/a	LTP229	ltpFR2	2	n/a	n/a	n/a	10	16	7	4	5
1380.344	n/a	PROB	690172	n/a	LTP229	ltpFR2	2	n/a	n/a	n/a	10	17	5	6	6
1383.054	n/a	PROB	691527	n/a	LTP229	ltpFR2	2	n/a	n/a	n/a	10	15	6	1	8
1384.776	n/a	PROB	692388	n/a	LTP229	ltpFR2	2	n/a	n/a	n/a	10	8	2	5	1
1386.166	n/a	PROB	693083	n/a	LTP229	ltpFR2	2	n/a	n/a	n/a	10	15	1	8	6
1393.042	n/a	STOP	696521	n/a	LTP229	ltpFR2	2	n/a	n/a	n/a	10	n/a	n/a	n/a	n/a
1394.984	n/a	REC_START	697492	n/a	LTP229	ltpFR2	2	6	n/a	n/a	n/a	n/a	0	0	0
1396.688	n/a	REC_WORD	698344	wordpools/wasnorm_wordpool_576.txt	LTP229	ltpFR2	2	6	EGYPT	519	n/a	n/a	0	0	0
1398.294	n/a	REC_WORD	699147	wordpools/wasnorm_wordpool_576.txt	LTP229	ltpFR2	2	6	MUMMY	932	n/a	n/a	0	0	0
1400.19	n/a	REC_WORD	700095	wordpools/wasnorm_wordpool_576.txt	LTP229	ltpFR2	2	6	SPHINX	1349	n/a	n/a	0	0	0
1405.792	n/a	REC_WORD	702896	wordpools/wasnorm_wordpool_576.txt	LTP229	ltpFR2	2	6	RAFT	1159	n/a	n/a	0	0	0
1408.634	n/a	REC_WORD	704317	wordpools/wasnorm_wordpool_576.txt	LTP229	ltpFR2	2	6	MEDAL	885	n/a	n/a	0	0	0
1414.91	n/a	REC_WORD	707455	wordpools/wasnorm_wordpool_576.txt	LTP229	ltpFR2	2	6	POPCORN	1104	n/a	n/a	0	0	0
1417.42	n/a	REC_WORD	708710	wordpools/wasnorm_wordpool_576.txt	LTP229	ltpFR2	2	6	PLATE	1086	n/a	n/a	0	0	0
1420.138	n/a	REC_WORD	710069	wordpools/wasnorm_wordpool_576.txt	LTP229	ltpFR2	2	6	PIZZA	1079	n/a	n/a	0	0	0
1486.02	n/a	DISTRACTOR	743010	n/a	LTP229	ltpFR2	2	7	n/a	n/a	n/a	n/a	0	0	0
1486.02	n/a	START	743010	n/a	LTP229	ltpFR2	2	n/a	n/a	n/a	11	n/a	n/a	n/a	n/a
1486.07	n/a	PROB	743035	n/a	LTP229	ltpFR2	2	n/a	n/a	n/a	11	9	3	3	3
1487.704	n/a	PROB	743852	n/a	LTP229	ltpFR2	2	n/a	n/a	n/a	11	19	7	4	8
1490.486	n/a	PROB	745243	n/a	LTP229	ltpFR2	2	n/a	n/a	n/a	11	16	4	4	8
1494.988	n/a	PROB	747494	n/a	LTP229	ltpFR2	2	n/a	n/a	n/a	11	7	1	3	3
1496.32	n/a	PROB	748160	n/a	LTP229	ltpFR2	2	n/a	n/a	n/a	11	7	3	1	3
1497.776	n/a	PROB	748888	n/a	LTP229	ltpFR2	2	n/a	n/a	n/a	11	10	4	1	5
1499.65	n/a	PROB	749825	n/a	LTP229	ltpFR2	2	n/a	n/a	n/a	11	18	1	9	8
1500.988	n/a	PROB	750494	n/a	LTP229	ltpFR2	2	n/a	n/a	n/a	11	20	6	6	8
1502.834	n/a	PROB	751417	n/a	LTP229	ltpFR2	2	n/a	n/a	n/a	11	18	6	5	7
1506.682	n/a	PROB	753341	n/a	LTP229	ltpFR2	2	n/a	n/a	n/a	11	17	3	9	4
1508.816	n/a	STOP	754408	n/a	LTP229	ltpFR2	2	n/a	n/a	n/a	11	n/a	n/a	n/a	n/a
1510.948	n/a	WORD	755474	wordpools/wasnorm_wordpool_576.txt	LTP229	ltpFR2	2	7	UNCLE	1536	n/a	n/a	0	0	0
1513.552	n/a	WORD	756776	wordpools/wasnorm_wordpool_576.txt	LTP229	ltpFR2	2	7	VALVE	1546	n/a	n/a	0	0	0
1516.102	n/a	WORD	758051	wordpools/wasnorm_wordpool_576.txt	LTP229	ltpFR2	2	7	KIDNEY	776	n/a	n/a	0	0	0
1518.778	n/a	WORD	759389	wordpools/wasnorm_wordpool_576.txt	LTP229	ltpFR2	2	7	COUSIN	392	n/a	n/a	0	0	0
1521.568	n/a	WORD	760784	wordpools/wasnorm_wordpool_576.txt	LTP229	ltpFR2	2	7	LOVER	846	n/a	n/a	0	0	0
1524.2	n/a	WORD	762100	wordpools/wasnorm_wordpool_576.txt	LTP229	ltpFR2	2	7	MARKER	870	n/a	n/a	0	0	0
1526.642	n/a	WORD	763321	wordpools/wasnorm_wordpool_576.txt	LTP229	ltpFR2	2	7	COCOON	339	n/a	n/a	0	0	0
1529.102	n/a	WORD	764551	wordpools/wasnorm_wordpool_576.txt	LTP229	ltpFR2	2	7	PROTON	1132	n/a	n/a	0	0	0
1531.576	n/a	WORD	765788	wordpools/wasnorm_wordpool_576.txt	LTP229	ltpFR2	2	7	LABEL	790	n/a	n/a	0	0	0
1534.148	n/a	WORD	767074	wordpools/wasnorm_wordpool_576.txt	LTP229	ltpFR2	2	7	POWDER	1117	n/a	n/a	0	0	0
1536.646	n/a	WORD	768323	wordpools/wasnorm_wordpool_576.txt	LTP229	ltpFR2	2	7	PADDING	999	n/a	n/a	0	0	0
1539.174	n/a	WORD	769587	wordpools/wasnorm_wordpool_576.txt	LTP229	ltpFR2	2	7	HATCHET	691	n/a	n/a	0	0	0
1541.678	n/a	WORD	770839	wordpools/wasnorm_wordpool_576.txt	LTP229	ltpFR2	2	7	HEART	697	n/a	n/a	0	0	0
1544.126	n/a	WORD	772063	wordpools/wasnorm_wordpool_576.txt	LTP229	ltpFR2	2	7	LAVA	804	n/a	n/a	0	0	0
1546.578	n/a	WORD	773289	wordpools/wasnorm_wordpool_576.txt	LTP229	ltpFR2	2	7	CRATER	400	n/a	n/a	0	0	0
1549.228	n/a	WORD	774614	wordpools/wasnorm_wordpool_576.txt	LTP229	ltpFR2	2	7	BARREL	91	n/a	n/a	0	0	0
1551.956	n/a	WORD	775978	wordpools/wasnorm_wordpool_576.txt	LTP229	ltpFR2	2	7	FRIEND	606	n/a	n/a	0	0	0
1554.592	n/a	WORD	777296	wordpools/wasnorm_wordpool_576.txt	LTP229	ltpFR2	2	7	BRACES	164	n/a	n/a	0	0	0
1557.31	n/a	WORD	778655	wordpools/wasnorm_wordpool_576.txt	LTP229	ltpFR2	2	7	DENTIST	447	n/a	n/a	0	0	0
1560.004	n/a	WORD	780002	wordpools/wasnorm_wordpool_576.txt	LTP229	ltpFR2	2	7	CEILING	265	n/a	n/a	0	0	0
1562.574	n/a	WORD	781287	wordpools/wasnorm_wordpool_576.txt	LTP229	ltpFR2	2	7	LIZARD	834	n/a	n/a	0	0	0
1565.022	n/a	WORD	782511	wordpools/wasnorm_wordpool_576.txt	LTP229	ltpFR2	2	7	MARKET	871	n/a	n/a	0	0	0
1567.564	n/a	WORD	783782	wordpools/wasnorm_wordpool_576.txt	LTP229	ltpFR2	2	7	HELMET	702	n/a	n/a	0	0	0
1570.254	n/a	WORD	785127	wordpools/wasnorm_wordpool_576.txt	LTP229	ltpFR2	2	7	LOFT	840	n/a	n/a	0	0	0
1571.866	n/a	START	785933	n/a	LTP229	ltpFR2	2	n/a	n/a	n/a	12	n/a	n/a	n/a	n/a
1573.056	n/a	DISTRACTOR	786528	n/a	LTP229	ltpFR2	2	7	n/a	n/a	n/a	n/a	0	0	0
1573.07	n/a	PROB	786535	n/a	LTP229	ltpFR2	2	n/a	n/a	n/a	12	11	3	7	1
1574.652	n/a	PROB	787326	n/a	LTP229	ltpFR2	2	n/a	n/a	n/a	12	15	5	8	2
1575.814	n/a	PROB	787907	n/a	LTP229	ltpFR2	2	n/a	n/a	n/a	12	14	7	5	2
1578.836	n/a	PROB	789418	n/a	LTP229	ltpFR2	2	n/a	n/a	n/a	12	17	9	2	6
1580.642	n/a	PROB	790321	n/a	LTP229	ltpFR2	2	n/a	n/a	n/a	12	15	7	3	5
1581.786	n/a	PROB	790893	n/a	LTP229	ltpFR2	2	n/a	n/a	n/a	12	14	6	3	5
1586.12	n/a	PROB	793060	n/a	LTP229	ltpFR2	2	n/a	n/a	n/a	12	14	3	2	9
1588.054	n/a	PROB	794027	n/a	LTP229	ltpFR2	2	n/a	n/a	n/a	12	18	6	8	4
1592.22	n/a	PROB	796110	n/a	LTP229	ltpFR2	2	n/a	n/a	n/a	12	11	5	5	1
1593.358	n/a	PROB	796679	n/a	LTP229	ltpFR2	2	n/a	n/a	n/a	12	10	4	5	1
1594.756	n/a	STOP	797378	n/a	LTP229	ltpFR2	2	n/a	n/a	n/a	12	n/a	n/a	n/a	n/a
1597.676	n/a	REC_START	798838	n/a	LTP229	ltpFR2	2	7	n/a	n/a	n/a	n/a	0	0	0
1604.27	n/a	REC_WORD	802135	wordpools/wasnorm_wordpool_576.txt	LTP229	ltpFR2	2	7	CEILING	265	n/a	n/a	0	0	0
1688.728	n/a	WORD	844364	wordpools/wasnorm_wordpool_576.txt	LTP229	ltpFR2	2	8	FRECKLE	602	n/a	n/a	0	0	0
1691.204	n/a	WORD	845602	wordpools/wasnorm_wordpool_576.txt	LTP229	ltpFR2	2	8	TUBA	1515	n/a	n/a	0	0	0
1693.78	n/a	WORD	846890	wordpools/wasnorm_wordpool_576.txt	LTP229	ltpFR2	2	8	RECORD	1176	n/a	n/a	0	0	0
1696.39	n/a	WORD	848195	wordpools/wasnorm_wordpool_576.txt	LTP229	ltpFR2	2	8	BELLY	119	n/a	n/a	0	0	0
1698.962	n/a	WORD	849481	wordpools/wasnorm_wordpool_576.txt	LTP229	ltpFR2	2	8	REBEL	1172	n/a	n/a	0	0	0
1701.76	n/a	WORD	850880	wordpools/wasnorm_wordpool_576.txt	LTP229	ltpFR2	2	8	SISTER	1312	n/a	n/a	0	0	0
1704.216	n/a	WORD	852108	wordpools/wasnorm_wordpool_576.txt	LTP229	ltpFR2	2	8	PIANO	1057	n/a	n/a	0	0	0
1706.944	n/a	WORD	853472	wordpools/wasnorm_wordpool_576.txt	LTP229	ltpFR2	2	8	MAMMAL	861	n/a	n/a	0	0	0
1709.402	n/a	WORD	854701	wordpools/wasnorm_wordpool_576.txt	LTP229	ltpFR2	2	8	CONCERT	360	n/a	n/a	0	0	0
1711.996	n/a	WORD	855998	wordpools/wasnorm_wordpool_576.txt	LTP229	ltpFR2	2	8	PLUTO	1092	n/a	n/a	0	0	0
1714.794	n/a	WORD	857397	wordpools/wasnorm_wordpool_576.txt	LTP229	ltpFR2	2	8	SPOUSE	1358	n/a	n/a	0	0	0
1717.336	n/a	WORD	858668	wordpools/wasnorm_wordpool_576.txt	LTP229	ltpFR2	2	8	PATIENT	1024	n/a	n/a	0	0	0
1720.03	n/a	WORD	860015	wordpools/wasnorm_wordpool_576.txt	LTP229	ltpFR2	2	8	ROBOT	1200	n/a	n/a	0	0	0
1722.652	n/a	WORD	861326	wordpools/wasnorm_wordpool_576.txt	LTP229	ltpFR2	2	8	JOURNAL	760	n/a	n/a	0	0	0
1725.434	n/a	WORD	862717	wordpools/wasnorm_wordpool_576.txt	LTP229	ltpFR2	2	8	AUTHOR	61	n/a	n/a	0	0	0
1728.108	n/a	WORD	864054	wordpools/wasnorm_wordpool_576.txt	LTP229	ltpFR2	2	8	CHURCH	307	n/a	n/a	0	0	0
1730.688	n/a	WORD	865344	wordpools/wasnorm_wordpool_576.txt	LTP229	ltpFR2	2	8	QUARTER	1148	n/a	n/a	0	0	0
1733.498	n/a	WORD	866749	wordpools/wasnorm_wordpool_576.txt	LTP229	ltpFR2	2	8	MOTEL	919	n/a	n/a	0	0	0
1736.008	n/a	WORD	868004	wordpools/wasnorm_wordpool_576.txt	LTP229	ltpFR2	2	8	MATTRESS	879	n/a	n/a	0	0	0
1738.484	n/a	WORD	869242	wordpools/wasnorm_wordpool_576.txt	LTP229	ltpFR2	2	8	KLEENEX	782	n/a	n/a	0	0	0
1741.296	n/a	WORD	870648	wordpools/wasnorm_wordpool_576.txt	LTP229	ltpFR2	2	8	BARLEY	88	n/a	n/a	0	0	0
1743.738	n/a	WORD	871869	wordpools/wasnorm_wordpool_576.txt	LTP229	ltpFR2	2	8	VIRUS	1572	n/a	n/a	0	0	0
1746.226	n/a	WORD	873113	wordpools/wasnorm_wordpool_576.txt	LTP229	ltpFR2	2	8	SADDLE	1221	n/a	n/a	0	0	0
1748.656	n/a	WORD	874328	wordpools/wasnorm_wordpool_576.txt	LTP229	ltpFR2	2	8	BUGGY	188	n/a	n/a	0	0	0
1750.264	n/a	START	875132	n/a	LTP229	ltpFR2	2	n/a	n/a	n/a	13	n/a	n/a	n/a	n/a
1751.07	n/a	DISTRACTOR	875535	n/a	LTP229	ltpFR2	2	8	n/a	n/a	n/a	n/a	0	0	0
1751.084	n/a	PROB	875542	n/a	LTP229	ltpFR2	2	n/a	n/a	n/a	13	12	4	4	4
1753.542	n/a	PROB	876771	n/a	LTP229	ltpFR2	2	n/a	n/a	n/a	13	11	2	2	7
1756.632	n/a	PROB	878316	n/a	LTP229	ltpFR2	2	n/a	n/a	n/a	13	19	7	9	4
1761.138	n/a	PROB	880569	n/a	LTP229	ltpFR2	2	n/a	n/a	n/a	13	9	1	5	3
1763.226	n/a	PROB	881613	n/a	LTP229	ltpFR2	2	n/a	n/a	n/a	13	12	4	3	5
1766.57	n/a	PROB	883285	n/a	LTP229	ltpFR2	2	n/a	n/a	n/a	13	9	1	7	1
1767.876	n/a	PROB	883938	n/a	LTP229	ltpFR2	2	n/a	n/a	n/a	13	12	2	8	2
1769.248	n/a	PROB	884624	n/a	LTP229	ltpFR2	2	n/a	n/a	n/a	13	16	8	1	7
1774.264	n/a	STOP	887132	n/a	LTP229	ltpFR2	2	n/a	n/a	n/a	13	n/a	n/a	n/a	n/a
1776.146	n/a	REC_START	888073	n/a	LTP229	ltpFR2	2	8	n/a	n/a	n/a	n/a	0	0	0
1779.0	n/a	REC_WORD	889500	wordpools/wasnorm_wordpool_576.txt	LTP229	ltpFR2	2	8	BELLY	119	n/a	n/a	0	0	0
1791.882	n/a	REC_WORD	895941	wordpools/wasnorm_wordpool_576.txt	LTP229	ltpFR2	2	8	RECORD	1176	n/a	n/a	0	0	0
1796.36	n/a	REC_WORD	898180	wordpools/wasnorm_wordpool_576.txt	LTP229	ltpFR2	2	8	DIME	466	n/a	n/a	0	0	0
1798.158	n/a	REC_WORD	899079	wordpools/wasnorm_wordpool_576.txt	LTP229	ltpFR2	2	8	QUARTER	1148	n/a	n/a	0	0	0
1799.898	n/a	REC_WORD	899949	wordpools/wasnorm_wordpool_576.txt	LTP229	ltpFR2	2	8	COIN	343	n/a	n/a	0	0	0
1824.33	n/a	REC_WORD	912165	wordpools/wasnorm_wordpool_576.txt	LTP229	ltpFR2	2	8	FRECKLE	602	n/a	n/a	0	0	0
1826.488	n/a	REC_WORD	913244	wordpools/wasnorm_wordpool_576.txt	LTP229	ltpFR2	2	8	REBEL	1172	n/a	n/a	0	0	0
1829.192	n/a	REC_WORD	914596	wordpools/wasnorm_wordpool_576.txt	LTP229	ltpFR2	2	8	SISTER	1312	n/a	n/a	0	0	0
1852.906	n/a	REST_REWET	926453	n/a	LTP229	ltpFR2	2	8	n/a	n/a	n/a	n/a	0	0	0
2222.6	n/a	WORD	1111300	wordpools/wasnorm_wordpool_576.txt	LTP229	ltpFR2	2	9	LUMBER	848	n/a	n/a	0	0	0
2225.162	n/a	WORD	1112581	wordpools/wasnorm_wordpool_576.txt	LTP229	ltpFR2	2	9	CAFE	216	n/a	n/a	0	0	0
2227.62	n/a	WORD	1113810	wordpools/wasnorm_wordpool_576.txt	LTP229	ltpFR2	2	9	MOP	916	n/a	n/a	0	0	0
2230.176	n/a	WORD	1115088	wordpools/wasnorm_wordpool_576.txt	LTP229	ltpFR2	2	9	TRANSPLANT	1496	n/a	n/a	0	0	0
2232.774	n/a	WORD	1116387	wordpools/wasnorm_wordpool_576.txt	LTP229	ltpFR2	2	9	BRANCH	168	n/a	n/a	0	0	0
2235.568	n/a	WORD	1117784	wordpools/wasnorm_wordpool_576.txt	LTP229	ltpFR2	2	9	BADGE	68	n/a	n/a	0	0	0
2238.278	n/a	WORD	1119139	wordpools/wasnorm_wordpool_576.txt	LTP229	ltpFR2	2	9	COTTAGE	384	n/a	n/a	0	0	0
2241.056	n/a	WORD	1120528	wordpools/wasnorm_wordpool_576.txt	LTP229	ltpFR2	2	9	HORSE	719	n/a	n/a	0	0	0
2243.548	n/a	WORD	1121774	wordpools/wasnorm_wordpool_576.txt	LTP229	ltpFR2	2	9	OX	994	n/a	n/a	0	0	0
2246.21	n/a	WORD	1123105	wordpools/wasnorm_wordpool_576.txt	LTP229	ltpFR2	2	9	CUSTARD	429	n/a	n/a	0	0	0
2248.986	n/a	WORD	1124493	wordpools/wasnorm_wordpool_576.txt	LTP229	ltpFR2	2	9	FEMALE	559	n/a	n/a	0	0	0
2251.446	n/a	WORD	1125723	wordpools/wasnorm_wordpool_576.txt	LTP229	ltpFR2	2	9	LIVER	833	n/a	n/a	0	0	0
2254.252	n/a	WORD	1127126	wordpools/wasnorm_wordpool_576.txt	LTP229	ltpFR2	2	9	BANK	83	n/a	n/a	0	0	0
2257.05	n/a	WORD	1128525	wordpools/wasnorm_wordpool_576.txt	LTP229	ltpFR2	2	9	OINTMENT	974	n/a	n/a	0	0	0
2259.71	n/a	WORD	1129855	wordpools/wasnorm_wordpool_576.txt	LTP229	ltpFR2	2	9	CROSS	413	n/a	n/a	0	0	0
2262.316	n/a	WORD	1131158	wordpools/wasnorm_wordpool_576.txt	LTP229	ltpFR2	2	9	LION	827	n/a	n/a	0	0	0
2265.048	n/a	WORD	1132524	wordpools/wasnorm_wordpool_576.txt	LTP229	ltpFR2	2	9	BLOCKADE	137	n/a	n/a	0	0	0
2267.77	n/a	WORD	1133885	wordpools/wasnorm_wordpool_576.txt	LTP229	ltpFR2	2	9	BRAKE	166	n/a	n/a	0	0	0
2270.584	n/a	WORD	1135292	wordpools/wasnorm_wordpool_576.txt	LTP229	ltpFR2	2	9	TRENCH	1503	n/a	n/a	0	0	0
2273.146	n/a	WORD	1136573	wordpools/wasnorm_wordpool_576.txt	LTP229	ltpFR2	2	9	FLAG	573	n/a	n/a	0	0	0
2275.598	n/a	WORD	1137799	wordpools/wasnorm_wordpool_576.txt	LTP229	ltpFR2	2	9	DONOR	485	n/a	n/a	0	0	0
2278.214	n/a	WORD	1139107	wordpools/wasnorm_wordpool_576.txt	LTP229	ltpFR2	2	9	INFANT	737	n/a	n/a	0	0	0
2280.96	n/a	WORD	1140480	wordpools/wasnorm_wordpool_576.txt	LTP229	ltpFR2	2	9	PARSLEY	1016	n/a	n/a	0	0	0
2283.646	n/a	WORD	1141823	wordpools/wasnorm_wordpool_576.txt	LTP229	ltpFR2	2	9	SLIME	1327	n/a	n/a	0	0	0
2285.26	n/a	START	1142630	n/a	LTP229	ltpFR2	2	n/a	n/a	n/a	14	n/a	n/a	n/a	n/a
2286.088	n/a	DISTRACTOR	1143044	n/a	LTP229	ltpFR2	2	9	n/a	n/a	n/a	n/a	0	0	0
2286.096	n/a	PROB	1143048	n/a	LTP229	ltpFR2	2	n/a	n/a	n/a	14	17	8	8	1
2287.93	n/a	PROB	1143965	n/a	LTP229	ltpFR2	2	n/a	n/a	n/a	14	18	3	7	8
2289.174	n/a	PROB	1144587	n/a	LTP229	ltpFR2	2	n/a	n/a	n/a	14	17	1	7	9
2291.492	n/a	PROB	1145746	n/a	LTP229	ltpFR2	2	n/a	n/a	n/a	14	21	7	8	6
2294.604	n/a	PROB	1147302	n/a	LTP229	ltpFR2	2	n/a	n/a	n/a	14	11	2	2	7
2296.428	n/a	PROB	1148214	n/a	LTP229	ltpFR2	2	n/a	n/a	n/a	14	10	8	1	1
2298.058	n/a	PROB	1149029	n/a	LTP229	ltpFR2	2	n/a	n/a	n/a	14	18	6	5	7
2300.494	n/a	PROB	1150247	n/a	LTP229	ltpFR2	2	n/a	n/a	n/a	14	12	7	2	3
2303.344	n/a	PROB	1151672	n/a	LTP229	ltpFR2	2	n/a	n/a	n/a	14	8	2	1	5
2305.0	n/a	PROB	1152500	n/a	LTP229	ltpFR2	2	n/a	n/a	n/a	14	8	6	1	1
2306.6	n/a	PROB	1153300	n/a	LTP229	ltpFR2	2	n/a	n/a	n/a	14	8	1	6	1
2307.738	n/a	STOP	1153869	n/a	LTP229	ltpFR2	2	n/a	n/a	n/a	14	n/a	n/a	n/a	n/a
2311.024	n/a	REC_START	1155512	n/a	LTP229	ltpFR2	2	9	n/a	n/a	n/a	n/a	0	0	0
2314.128	n/a	REC_WORD	1157064	wordpools/wasnorm_wordpool_576.txt	LTP229	ltpFR2	2	9	BLOCKADE	137	n/a	n/a	0	0	0
2316.26	n/a	REC_WORD	1158130	wordpools/wasnorm_wordpool_576.txt	LTP229	ltpFR2	2	9	TRENCH	1503	n/a	n/a	0	0	0
2317.874	n/a	REC_WORD	1158937	wordpools/wasnorm_wordpool_576.txt	LTP229	ltpFR2	2	9	FLAG	573	n/a	n/a	0	0	0
2320.644	n/a	REC_WORD	1160322	wordpools/wasnorm_wordpool_576.txt	LTP229	ltpFR2	2	9	MOP	916	n/a	n/a	0	0	0
2322.352	n/a	REC_WORD	1161176	wordpools/wasnorm_wordpool_576.txt	LTP229	ltpFR2	2	9	CAFE	216	n/a	n/a	0	0	0
2324.346	n/a	REC_WORD	1162173	wordpools/wasnorm_wordpool_576.txt	LTP229	ltpFR2	2	9	LUMBER	848	n/a	n/a	0	0	0
2326.26	n/a	REC_WORD	1163130	wordpools/wasnorm_wordpool_576.txt	LTP229	ltpFR2	2	9	BRANCH	168	n/a	n/a	0	0	0
2341.718	n/a	REC_WORD	1170859	wordpools/wasnorm_wordpool_576.txt	LTP229	ltpFR2	2	9	DONOR	485	n/a	n/a	0	0	0
2344.09	n/a	REC_WORD	1172045	wordpools/wasnorm_wordpool_576.txt	LTP229	ltpFR2	2	9	LIVER	833	n/a	n/a	0	0	0
2346.116	n/a	REC_WORD	1173058	wordpools/wasnorm_wordpool_576.txt	LTP229	ltpFR2	2	9	TRANSPLANT	1496	n/a	n/a	0	0	0
2402.088	n/a	WORD	1201044	wordpools/wasnorm_wordpool_576.txt	LTP229	ltpFR2	2	10	SEAL	1262	n/a	n/a	0	0	0
2404.878	n/a	WORD	1202439	wordpools/wasnorm_wordpool_576.txt	LTP229	ltpFR2	2	10	SPARROW	1347	n/a	n/a	0	0	0
2407.704	n/a	WORD	1203852	wordpools/wasnorm_wordpool_576.txt	LTP229	ltpFR2	2	10	JAPAN	749	n/a	n/a	0	0	0
2410.198	n/a	WORD	1205099	wordpools/wasnorm_wordpool_576.txt	LTP229	ltpFR2	2	10	PATROL	1027	n/a	n/a	0	0	0
2412.796	n/a	WORD	1206398	wordpools/wasnorm_wordpool_576.txt	LTP229	ltpFR2	2	10	PISTON	1076	n/a	n/a	0	0	0
2415.272	n/a	WORD	1207636	wordpools/wasnorm_wordpool_576.txt	LTP229	ltpFR2	2	10	FRAME	600	n/a	n/a	0	0	0
2417.76	n/a	WORD	1208880	wordpools/wasnorm_wordpool_576.txt	LTP229	ltpFR2	2	10	QUAIL	1147	n/a	n/a	0	0	0
2420.308	n/a	WORD	1210154	wordpools/wasnorm_wordpool_576.txt	LTP229	ltpFR2	2	10	SCARECROW	1245	n/a	n/a	0	0	0
2422.934	n/a	WORD	1211467	wordpools/wasnorm_wordpool_576.txt	LTP229	ltpFR2	2	10	JELLY	755	n/a	n/a	0	0	0
2425.51	n/a	WORD	1212755	wordpools/wasnorm_wordpool_576.txt	LTP229	ltpFR2	2	10	WAITER	1580	n/a	n/a	0	0	0
2428.206	n/a	WORD	1214103	wordpools/wasnorm_wordpool_576.txt	LTP229	ltpFR2	2	10	BOX	159	n/a	n/a	0	0	0
2430.95	n/a	WORD	1215475	wordpools/wasnorm_wordpool_576.txt	LTP229	ltpFR2	2	10	CLOCK	325	n/a	n/a	0	0	0
2433.77	n/a	WORD	1216885	wordpools/wasnorm_wordpool_576.txt	LTP229	ltpFR2	2	10	FOOT	590	n/a	n/a	0	0	0
2436.264	n/a	WORD	1218132	wordpools/wasnorm_wordpool_576.txt	LTP229	ltpFR2	2	10	LADDER	793	n/a	n/a	0	0	0
2438.74	n/a	WORD	1219370	wordpools/wasnorm_wordpool_576.txt	LTP229	ltpFR2	2	10	FRUIT	610	n/a	n/a	0	0	0
2441.388	n/a	WORD	1220694	wordpools/wasnorm_wordpool_576.txt	LTP229	ltpFR2	2	10	SHOULDER	1294	n/a	n/a	0	0	0
2444.144	n/a	WORD	1222072	wordpools/wasnorm_wordpool_576.txt	LTP229	ltpFR2	2	10	BLOUSE	139	n/a	n/a	0	0	0
2446.922	n/a	WORD	1223461	wordpools/wasnorm_wordpool_576.txt	LTP229	ltpFR2	2	10	LUNCH	849	n/a	n/a	0	0	0
2449.652	n/a	WORD	1224826	wordpools/wasnorm_wordpool_576.txt	LTP229	ltpFR2	2	10	SAUSAGE	1238	n/a	n/a	0	0	0
2452.18	n/a	WORD	1226090	wordpools/wasnorm_wordpool_576.txt	LTP229	ltpFR2	2	10	JUNGLE	764	n/a	n/a	0	0	0
2454.706	n/a	WORD	1227353	wordpools/wasnorm_wordpool_576.txt	LTP229	ltpFR2	2	10	PRIMATE	1123	n/a	n/a	0	0	0
2457.366	n/a	WORD	1228683	wordpools/wasnorm_wordpool_576.txt	LTP229	ltpFR2	2	10	FILM	565	n/a	n/a	0	0	0
2459.842	n/a	WORD	1229921	wordpools/wasnorm_wordpool_576.txt	LTP229	ltpFR2	2	10	SKIRT	1319	n/a	n/a	0	0	0
2462.302	n/a	WORD	1231151	wordpools/wasnorm_wordpool_576.txt	LTP229	ltpFR2	2	10	MAILMAN	858	n/a	n/a	0	0	0
2463.908	n/a	START	1231954	n/a	LTP229	ltpFR2	2	n/a	n/a	n/a	15	n/a	n/a	n/a	n/a
2465.08	n/a	DISTRACTOR	1232540	n/a	LTP229	ltpFR2	2	10	n/a	n/a	n/a	n/a	0	0	0
2465.096	n/a	PROB	1232548	n/a	LTP229	ltpFR2	2	n/a	n/a	n/a	15	18	5	7	6
2470.232	n/a	PROB	1235116	n/a	LTP229	ltpFR2	2	n/a	n/a	n/a	15	13	9	1	3
2472.256	n/a	PROB	1236128	n/a	LTP229	ltpFR2	2	n/a	n/a	n/a	15	14	7	6	1
2473.874	n/a	PROB	1236937	n/a	LTP229	ltpFR2	2	n/a	n/a	n/a	15	20	5	9	6
2477.538	n/a	PROB	1238769	n/a	LTP229	ltpFR2	2	n/a	n/a	n/a	15	19	7	5	7
2481.39	n/a	PROB	1240695	n/a	LTP229	ltpFR2	2	n/a	n/a	n/a	15	24	9	8	7
2487.91	n/a	STOP	1243955	n/a	LTP229	ltpFR2	2	n/a	n/a	n/a	15	n/a	n/a	n/a	n/a
2489.69	n/a	REC_START	1244845	n/a	LTP229	ltpFR2	2	10	n/a	n/a	n/a	n/a	0	0	0
2494.88	n/a	REC_WORD_VV	1247440	wordpools/wasnorm_wordpool_576.txt	LTP229	ltpFR2	2	10	<>	-1	n/a	n/a	0	0	0
2506.866	n/a	REC_WORD	1253433	wordpools/wasnorm_wordpool_576.txt	LTP229	ltpFR2	2	10	MARS	873	n/a	n/a	0	0	0
2513.312	n/a	REC_WORD	1256656	wordpools/wasnorm_wordpool_576.txt	LTP229	ltpFR2	2	10	DOUGHNUT	490	n/a	n/a	0	0	0
2524.308	n/a	REC_WORD	1262154	wordpools/wasnorm_wordpool_576.txt	LTP229	ltpFR2	2	10	JUNGLE	764	n/a	n/a	0	0	0
2526.216	n/a	REC_WORD	1263108	wordpools/wasnorm_wordpool_576.txt	LTP229	ltpFR2	2	10	PRIMATE	1123	n/a	n/a	0	0	0
2530.538	n/a	REC_WORD	1265269	wordpools/wasnorm_wordpool_576.txt	LTP229	ltpFR2	2	10	SPARROW	1347	n/a	n/a	0	0	0
2533.266	n/a	REC_WORD	1266633	wordpools/wasnorm_wordpool_576.txt	LTP229	ltpFR2	2	10	ROBIN	1199	n/a	n/a	0	0	0
2538.976	n/a	REC_WORD	1269488	wordpools/wasnorm_wordpool_576.txt	LTP229	ltpFR2	2	10	INFANT	737	n/a	n/a	0	0	0
2549.238	n/a	REC_WORD	1274619	wordpools/wasnorm_wordpool_576.txt	LTP229	ltpFR2	2	10	BLOUSE	139	n/a	n/a	0	0	0
2551.124	n/a	REC_WORD	1275562	wordpools/wasnorm_wordpool_576.txt	LTP229	ltpFR2	2	10	SHIRT	1287	n/a	n/a	0	0	0
2559.38	n/a	REC_WORD	1279690	wordpools/wasnorm_wordpool_576.txt	LTP229	ltpFR2	2	10	HAMPER	682	n/a	n/a	0	0	0
2580.72	n/a	WORD	1290360	wordpools/wasnorm_wordpool_576.txt	LTP229	ltpFR2	2	11	ORCHID	982	n/a	n/a	0	0	0
2583.41	n/a	WORD	1291705	wordpools/wasnorm_wordpool_576.txt	LTP229	ltpFR2	2	11	CYCLONE	431	n/a	n/a	0	0	0
2585.992	n/a	WORD	1292996	wordpools/wasnorm_wordpool_576.txt	LTP229	ltpFR2	2	11	CLOUD	328	n/a	n/a	0	0	0
2588.55	n/a	WORD	1294275	wordpools/wasnorm_wordpool_576.txt	LTP229	ltpFR2	2	11	COFFEE	341	n/a	n/a	0	0	0
2591.01	n/a	WORD	1295505	wordpools/wasnorm_wordpool_576.txt	LTP229	ltpFR2	2	11	FOREST	593	n/a	n/a	0	0	0
2593.602	n/a	WORD	1296801	wordpools/wasnorm_wordpool_576.txt	LTP229	ltpFR2	2	11	PRINCESS	1125	n/a	n/a	0	0	0
2596.398	n/a	WORD	1298199	wordpools/wasnorm_wordpool_576.txt	LTP229	ltpFR2	2	11	DRILL	497	n/a	n/a	0	0	0
2599.042	n/a	WORD	1299521	wordpools/wasnorm_wordpool_576.txt	LTP229	ltpFR2	2	11	SPACE	1345	n/a	n/a	0	0	0
2601.618	n/a	WORD	1300809	wordpools/wasnorm_wordpool_576.txt	LTP229	ltpFR2	2	11	STAR	1373	n/a	n/a	0	0	0
2604.294	n/a	WORD	1302147	wordpools/wasnorm_wordpool_576.txt	LTP229	ltpFR2	2	11	RABBIT	1152	n/a	n/a	0	0	0
2606.934	n/a	WORD	1303467	wordpools/wasnorm_wordpool_576.txt	LTP229	ltpFR2	2	11	CARROT	249	n/a	n/a	0	0	0
2609.446	n/a	WORD	1304723	wordpools/wasnorm_wordpool_576.txt	LTP229	ltpFR2	2	11	TROUT	1511	n/a	n/a	0	0	0
2612.024	n/a	WORD	1306012	wordpools/wasnorm_wordpool_576.txt	LTP229	ltpFR2	2	11	CREATURE	403	n/a	n/a	0	0	0
2614.75	n/a	WORD	1307375	wordpools/wasnorm_wordpool_576.txt	LTP229	ltpFR2	2	11	TREAT	1501	n/a	n/a	0	0	0
2617.244	n/a	WORD	1308622	wordpools/wasnorm_wordpool_576.txt	LTP229	ltpFR2	2	11	OUTDOORS	987	n/a	n/a	0	0	0
2619.782	n/a	WORD	1309891	wordpools/wasnorm_wordpool_576.txt	LTP229	ltpFR2	2	11	YARN	1631	n/a	n/a	0	0	0
2622.396	n/a	WORD	1311198	wordpools/wasnorm_wordpool_576.txt	LTP229	ltpFR2	2	11	TYPIST	1532	n/a	n/a	0	0	0
2625.086	n/a	WORD	1312543	wordpools/wasnorm_wordpool_576.txt	LTP229	ltpFR2	2	11	SNACK	1331	n/a	n/a	0	0	0
2627.744	n/a	WORD	1313872	wordpools/wasnorm_wordpool_576.txt	LTP229	ltpFR2	2	11	SHELF	1280	n/a	n/a	0	0	0
2630.226	n/a	WORD	1315113	wordpools/wasnorm_wordpool_576.txt	LTP229	ltpFR2	2	11	SUNSET	1408	n/a	n/a	0	0	0
2632.798	n/a	WORD	1316399	wordpools/wasnorm_wordpool_576.txt	LTP229	ltpFR2	2	11	CROWN	415	n/a	n/a	0	0	0
2635.326	n/a	WORD	1317663	wordpools/wasnorm_wordpool_576.txt	LTP229	ltpFR2	2	11	COOKBOOK	373	n/a	n/a	0	0	0
2638.086	n/a	WORD	1319043	wordpools/wasnorm_wordpool_576.txt	LTP229	ltpFR2	2	11	WORKER	1621	n/a	n/a	0	0	0
2640.778	n/a	WORD	1320389	wordpools/wasnorm_wordpool_576.txt	LTP229	ltpFR2	2	11	BOUQUET	157	n/a	n/a	0	0	0
2642.39	n/a	START	1321195	n/a	LTP229	ltpFR2	2	n/a	n/a	n/a	16	n/a	n/a	n/a	n/a
2643.23	n/a	DISTRACTOR	1321615	n/a	LTP229	ltpFR2	2	11	n/a	n/a	n/a	n/a	0	0	0
2643.244	n/a	PROB	1321622	n/a	LTP229	ltpFR2	2	n/a	n/a	n/a	16	12	8	2	8
2644.71	n/a	PROB	1322355	n/a	LTP229	ltpFR2	2	n/a	n/a	n/a	16	7	2	3	1
2646.74	n/a	PROB	1323370	n/a	LTP229	ltpFR2	2	n/a	n/a	n/a	16	12	5	5	2
2648.178	n/a	PROB	1324089	n/a	LTP229	ltpFR2	2	n/a	n/a	n/a	16	15	5	9	7
2649.898	n/a	PROB	1324949	n/a	LTP229	ltpFR2	2	n/a	n/a	n/a	16	8	6	1	1
2651.136	n/a	PROB	1325568	n/a	LTP229	ltpFR2	2	n/a	n/a	n/a	16	19	5	6	8
2655.668	n/a	PROB	1327834	n/a	LTP229	ltpFR2	2	n/a	n/a	n/a	16	8	6	1	1
2657.426	n/a	PROB	1328713	n/a	LTP229	ltpFR2	2	n/a	n/a	n/a	16	15	9	6	8
2661.596	n/a	PROB	1330798	n/a	LTP229	ltpFR2	2	n/a	n/a	n/a	16	14	7	3	4
2663.036	n/a	PROB	1331518	n/a	LTP229	ltpFR2	2	n/a	n/a	n/a	16	16	8	6	2
2666.366	n/a	STOP	1333183	n/a	LTP229	ltpFR2	2	n/a	n/a	n/a	16	n/a	n/a	n/a	n/a
2668.19	n/a	REC_START	1334095	n/a	LTP229	ltpFR2	2	11	n/a	n/a	n/a	n/a	0	0	0
2670.044	n/a	REC_WORD	1335022	wordpools/wasnorm_wordpool_576.txt	LTP229	ltpFR2	2	11	SHELF	1280	n/a	n/a	0	0	0
2671.902	n/a	REC_WORD	1335951	wordpools/wasnorm_wordpool_576.txt	LTP229	ltpFR2	2	11	COOKBOOK	373	n/a	n/a	0	0	0
2674.588	n/a	REC_WORD	1337294	wordpools/wasnorm_wordpool_576.txt	LTP229	ltpFR2	2	11	MUFFIN	929	n/a	n/a	0	0	0
2677.25	n/a	REC_WORD	1338625	wordpools/wasnorm_wordpool_576.txt	LTP229	ltpFR2	2	11	WORKER	1621	n/a	n/a	0	0	0
2682.784	n/a	REC_WORD	1341392	wordpools/wasnorm_wordpool_576.txt	LTP229	ltpFR2	2	11	UNCLE	1536	n/a	n/a	0	0	0
2684.786	n/a	REC_WORD	1342393	wordpools/wasnorm_wordpool_576.txt	LTP229	ltpFR2	2	11	COUSIN	392	n/a	n/a	0	0	0
2710.336	n/a	REC_WORD	1355168	wordpools/wasnorm_wordpool_576.txt	LTP229	ltpFR2	2	11	JAPAN	749	n/a	n/a	0	0	0
2713.68	n/a	REC_WORD	1356840	wordpools/wasnorm_wordpool_576.txt	LTP229	ltpFR2	2	11	FLAG	573	n/a	n/a	0	0	0
2759.236	n/a	DISTRACTOR	1379618	n/a	LTP229	ltpFR2	2	12	n/a	n/a	n/a	n/a	0	0	0
2759.236	n/a	START	1379618	n/a	LTP229	ltpFR2	2	n/a	n/a	n/a	17	n/a	n/a	n/a	n/a
2759.286	n/a	PROB	1379643	n/a	LTP229	ltpFR2	2	n/a	n/a	n/a	17	13	9	3	1
2761.926	n/a	PROB	1380963	n/a	LTP229	ltpFR2	2	n/a	n/a	n/a	17	9	3	5	1
2764.0	n/a	PROB	1382000	n/a	LTP229	ltpFR2	2	n/a	n/a	n/a	17	17	9	7	1
2766.492	n/a	PROB	1383246	n/a	LTP229	ltpFR2	2	n/a	n/a	n/a	17	19	6	5	8
2768.516	n/a	PROB	1384258	n/a	LTP229	ltpFR2	2	n/a	n/a	n/a	17	18	2	7	9
2770.458	n/a	PROB	1385229	n/a	LTP229	ltpFR2	2	n/a	n/a	n/a	17	16	9	2	5
2772.03	n/a	PROB	1386015	n/a	LTP229	ltpFR2	2	n/a	n/a	n/a	17	13	5	3	5
2774.072	n/a	PROB	1387036	n/a	LTP229	ltpFR2	2	n/a	n/a	n/a	17	8	2	4	2
2776.48	n/a	PROB	1388240	n/a	LTP229	ltpFR2	2	n/a	n/a	n/a	17	15	4	2	9
2779.292	n/a	PROB	1389646	n/a	LTP229	ltpFR2	2	n/a	n/a	n/a	17	20	6	7	7
2782.102	n/a	STOP	1391051	n/a	LTP229	ltpFR2	2	n/a	n/a	n/a	17	n/a	n/a	n/a	n/a
2784.182	n/a	WORD	1392091	wordpools/wasnorm_wordpool_576.txt	LTP229	ltpFR2	2	12	DAUGHTER	442	n/a	n/a	0	0	0
2786.674	n/a	WORD	1393337	wordpools/wasnorm_wordpool_576.txt	LTP229	ltpFR2	2	12	PUPIL	1143	n/a	n/a	0	0	0
2789.434	n/a	WORD	1394717	wordpools/wasnorm_wordpool_576.txt	LTP229	ltpFR2	2	12	CLOTHES	327	n/a	n/a	0	0	0
2792.158	n/a	WORD	1396079	wordpools/wasnorm_wordpool_576.txt	LTP229	ltpFR2	2	12	DRESSER	496	n/a	n/a	0	0	0
2794.722	n/a	WORD	1397361	wordpools/wasnorm_wordpool_576.txt	LTP229	ltpFR2	2	12	FARMER	553	n/a	n/a	0	0	0
2797.182	n/a	WORD	1398591	wordpools/wasnorm_wordpool_576.txt	LTP229	ltpFR2	2	12	CANYON	235	n/a	n/a	0	0	0
2799.858	n/a	WORD	1399929	wordpools/wasnorm_wordpool_576.txt	LTP229	ltpFR2	2	12	APRON	35	n/a	n/a	0	0	0
2802.402	n/a	WORD	1401201	wordpools/wasnorm_wordpool_576.txt	LTP229	ltpFR2	2	12	SKILLET	1317	n/a	n/a	0	0	0
2804.844	n/a	WORD	1402422	wordpools/wasnorm_wordpool_576.txt	LTP229	ltpFR2	2	12	PASTA	1021	n/a	n/a	0	0	0
2807.466	n/a	WORD	1403733	wordpools/wasnorm_wordpool_576.txt	LTP229	ltpFR2	2	12	PAPER	1011	n/a	n/a	0	0	0
2809.948	n/a	WORD	1404974	wordpools/wasnorm_wordpool_576.txt	LTP229	ltpFR2	2	12	HARP	689	n/a	n/a	0	0	0
2812.472	n/a	WORD	1406236	wordpools/wasnorm_wordpool_576.txt	LTP229	ltpFR2	2	12	SLUG	1329	n/a	n/a	0	0	0
2815.162	n/a	WORD	1407581	wordpools/wasnorm_wordpool_576.txt	LTP229	ltpFR2	2	12	FLOWER	584	n/a	n/a	0	0	0
2817.906	n/a	WORD	1408953	wordpools/wasnorm_wordpool_576.txt	LTP229	ltpFR2	2	12	PEDAL	1037	n/a	n/a	0	0	0
2820.354	n/a	WORD	1410177	wordpools/wasnorm_wordpool_576.txt	LTP229	ltpFR2	2	12	TWIG	1527	n/a	n/a	0	0	0
2823.098	n/a	WORD	1411549	wordpools/wasnorm_wordpool_576.txt	LTP229	ltpFR2	2	12	DRAWING	494	n/a	n/a	0	0	0
2825.926	n/a	WORD	1412963	wordpools/wasnorm_wordpool_576.txt	LTP229	ltpFR2	2	12	TILE	1468	n/a	n/a	0	0	0
2828.746	n/a	WORD	1414373	wordpools/wasnorm_wordpool_576.txt	LTP229	ltpFR2	2	12	RUST	1219	n/a	n/a	0	0	0
2831.33	n/a	WORD	1415665	wordpools/wasnorm_wordpool_576.txt	LTP229	ltpFR2	2	12	JUGGLER	763	n/a	n/a	0	0	0
2833.872	n/a	WORD	1416936	wordpools/wasnorm_wordpool_576.txt	LTP229	ltpFR2	2	12	XEROX	1628	n/a	n/a	0	0	0
2836.526	n/a	WORD	1418263	wordpools/wasnorm_wordpool_576.txt	LTP229	ltpFR2	2	12	WHISKERS	1605	n/a	n/a	0	0	0
2839.272	n/a	WORD	1419636	wordpools/wasnorm_wordpool_576.txt	LTP229	ltpFR2	2	12	DASHBOARD	441	n/a	n/a	0	0	0
2841.986	n/a	WORD	1420993	wordpools/wasnorm_wordpool_576.txt	LTP229	ltpFR2	2	12	TART	1436	n/a	n/a	0	0	0
2844.524	n/a	WORD	1422262	wordpools/wasnorm_wordpool_576.txt	LTP229	ltpFR2	2	12	SNAIL	1332	n/a	n/a	0	0	0
2846.136	n/a	START	1423068	n/a	LTP229	ltpFR2	2	n/a	n/a	n/a	18	n/a	n/a	n/a	n/a
2847.326	n/a	DISTRACTOR	1423663	n/a	LTP229	ltpFR2	2	12	n/a	n/a	n/a	n/a	0	0	0
2847.34	n/a	PROB	1423670	n/a	LTP229	ltpFR2	2	n/a	n/a	n/a	18	20	7	6	5
2850.898	n/a	PROB	1425449	n/a	LTP229	ltpFR2	2	n/a	n/a	n/a	18	17	3	4	8
2854.078	n/a	PROB	1427039	n/a	LTP229	ltpFR2	2	n/a	n/a	n/a	18	15	6	8	5
2856.402	n/a	PROB	1428201	n/a	LTP229	ltpFR2	2	n/a	n/a	n/a	18	18	7	8	3
2858.094	n/a	PROB	1429047	n/a	LTP229	ltpFR2	2	n/a	n/a	n/a	18	15	4	6	5
2859.304	n/a	PROB	1429652	n/a	LTP229	ltpFR2	2	n/a	n/a	n/a	18	17	3	6	8
2862.66	n/a	PROB	1431330	n/a	LTP229	ltpFR2	2	n/a	n/a	n/a	18	13	6	3	4
2865.376	n/a	PROB	1432688	n/a	LTP229	ltpFR2	2	n/a	n/a	n/a	18	21	6	9	8
2869.274	n/a	STOP	1434637	n/a	LTP229	ltpFR2	2	n/a	n/a	n/a	18	n/a	n/a	n/a	n/a
2872.082	n/a	REC_START	1436041	n/a	LTP229	ltpFR2	2	12	n/a	n/a	n/a	n/a	0	0	0
2875.288	n/a	REC_WORD	1437644	wordpools/wasnorm_wordpool_576.txt	LTP229	ltpFR2	2	12	PASTA	1021	n/a	n/a	0	0	0
2876.794	n/a	REC_WORD	1438397	wordpools/wasnorm_wordpool_576.txt	LTP229	ltpFR2	2	12	SKILLET	1317	n/a	n/a	0	0	0
2884.992	n/a	REC_WORD	1442496	wordpools/wasnorm_wordpool_576.txt	LTP229	ltpFR2	2	12	APRON	35	n/a	n/a	0	0	0
2887.722	n/a	REC_WORD	1443861	wordpools/wasnorm_wordpool_576.txt	LTP229	ltpFR2	2	12	TILE	1468	n/a	n/a	0	0	0
2891.36	n/a	REC_WORD	1445680	wordpools/wasnorm_wordpool_576.txt	LTP229	ltpFR2	2	12	RUST	1219	n/a	n/a	0	0	0
2917.802	n/a	REC_WORD	1458901	wordpools/wasnorm_wordpool_576.txt	LTP229	ltpFR2	2	12	DASHBOARD	441	n/a	n/a	0	0	0
2963.116	n/a	DISTRACTOR	1481558	n/a	LTP229	ltpFR2	2	13	n/a	n/a	n/a	n/a	0	0	0
2963.116	n/a	START	1481558	n/a	LTP229	ltpFR2	2	n/a	n/a	n/a	19	n/a	n/a	n/a	n/a
2963.166	n/a	PROB	1481583	n/a	LTP229	ltpFR2	2	n/a	n/a	n/a	19	8	3	1	4
2964.834	n/a	PROB	1482417	n/a	LTP229	ltpFR2	2	n/a	n/a	n/a	19	26	9	9	8
2967.26	n/a	PROB	1483630	n/a	LTP229	ltpFR2	2	n/a	n/a	n/a	19	17	1	8	6
2970.094	n/a	PROB	1485047	n/a	LTP229	ltpFR2	2	n/a	n/a	n/a	19	16	4	6	6
2972.08	n/a	PROB	1486040	n/a	LTP229	ltpFR2	2	n/a	n/a	n/a	19	16	6	4	6
2973.534	n/a	PROB	1486767	n/a	LTP229	ltpFR2	2	n/a	n/a	n/a	19	11	2	7	2
2975.43	n/a	PROB	1487715	n/a	LTP229	ltpFR2	2	n/a	n/a	n/a	19	15	9	2	4
2978.27	n/a	PROB	1489135	n/a	LTP229	ltpFR2	2	n/a	n/a	n/a	19	21	9	9	3
2981.58	n/a	PROB	1490790	n/a	LTP229	ltpFR2	2	n/a	n/a	n/a	19	18	8	2	8
2982.908	n/a	PROB	1491454	n/a	LTP229	ltpFR2	2	n/a	n/a	n/a	19	11	2	8	1
2984.342	n/a	PROB	1492171	n/a	LTP229	ltpFR2	2	n/a	n/a	n/a	19	11	8	1	2
2985.576	n/a	STOP	1492788	n/a	LTP229	ltpFR2	2	n/a	n/a	n/a	19	n/a	n/a	n/a	n/a
2988.112	n/a	WORD	1494056	wordpools/wasnorm_wordpool_576.txt	LTP229	ltpFR2	2	13	TWISTER	1530	n/a	n/a	0	0	0
2990.94	n/a	WORD	1495470	wordpools/wasnorm_wordpool_576.txt	LTP229	ltpFR2	2	13	MARINE	869	n/a	n/a	0	0	0
2993.582	n/a	WORD	1496791	wordpools/wasnorm_wordpool_576.txt	LTP229	ltpFR2	2	13	LAKE	796	n/a	n/a	0	0	0
2996.008	n/a	WORD	1498004	wordpools/wasnorm_wordpool_576.txt	LTP229	ltpFR2	2	13	PALACE	1006	n/a	n/a	0	0	0
2998.528	n/a	WORD	1499264	wordpools/wasnorm_wordpool_576.txt	LTP229	ltpFR2	2	13	THIEF	1456	n/a	n/a	0	0	0
3001.028	n/a	WORD	1500514	wordpools/wasnorm_wordpool_576.txt	LTP229	ltpFR2	2	13	ROBBER	1197	n/a	n/a	0	0	0
3003.782	n/a	WORD	1501891	wordpools/wasnorm_wordpool_576.txt	LTP229	ltpFR2	2	13	BACON	67	n/a	n/a	0	0	0
3006.482	n/a	WORD	1503241	wordpools/wasnorm_wordpool_576.txt	LTP229	ltpFR2	2	13	YACHT	1629	n/a	n/a	0	0	0
3009.038	n/a	WORD	1504519	wordpools/wasnorm_wordpool_576.txt	LTP229	ltpFR2	2	13	TERMITE	1451	n/a	n/a	0	0	0
3011.73	n/a	WORD	1505865	wordpools/wasnorm_wordpool_576.txt	LTP229	ltpFR2	2	13	KNAPSACK	783	n/a	n/a	0	0	0
3014.478	n/a	WORD	1507239	wordpools/wasnorm_wordpool_576.txt	LTP229	ltpFR2	2	13	COLONEL	348	n/a	n/a	0	0	0
3017.0	n/a	WORD	1508500	wordpools/wasnorm_wordpool_576.txt	LTP229	ltpFR2	2	13	CANAL	226	n/a	n/a	0	0	0
3019.58	n/a	WORD	1509790	wordpools/wasnorm_wordpool_576.txt	LTP229	ltpFR2	2	13	DRINK	498	n/a	n/a	0	0	0
3022.026	n/a	WORD	1511013	wordpools/wasnorm_wordpool_576.txt	LTP229	ltpFR2	2	13	POSTAGE	1113	n/a	n/a	0	0	0
3024.584	n/a	WORD	1512292	wordpools/wasnorm_wordpool_576.txt	LTP229	ltpFR2	2	13	PACKAGE	997	n/a	n/a	0	0	0
3027.128	n/a	WORD	1513564	wordpools/wasnorm_wordpool_576.txt	LTP229	ltpFR2	2	13	BOARD	143	n/a	n/a	0	0	0
3029.586	n/a	WORD	1514793	wordpools/wasnorm_wordpool_576.txt	LTP229	ltpFR2	2	13	PICNIC	1060	n/a	n/a	0	0	0
3032.214	n/a	WORD	1516107	wordpools/wasnorm_wordpool_576.txt	LTP229	ltpFR2	2	13	HIKER	708	n/a	n/a	0	0	0
3034.79	n/a	WORD	1517395	wordpools/wasnorm_wordpool_576.txt	LTP229	ltpFR2	2	13	SLOPE	1328	n/a	n/a	0	0	0
3037.544	n/a	WORD	1518772	wordpools/wasnorm_wordpool_576.txt	LTP229	ltpFR2	2	13	SPOON	1357	n/a	n/a	0	0	0
3040.062	n/a	WORD	1520031	wordpools/wasnorm_wordpool_576.txt	LTP229	ltpFR2	2	13	GRAVEL	659	n/a	n/a	0	0	0
3042.72	n/a	WORD	1521360	wordpools/wasnorm_wordpool_576.txt	LTP229	ltpFR2	2	13	GLOVE	642	n/a	n/a	0	0	0
3045.146	n/a	WORD	1522573	wordpools/wasnorm_wordpool_576.txt	LTP229	ltpFR2	2	13	THRONE	1461	n/a	n/a	0	0	0
3047.584	n/a	WORD	1523792	wordpools/wasnorm_wordpool_576.txt	LTP229	ltpFR2	2	13	MARSH	874	n/a	n/a	0	0	0
3049.196	n/a	START	1524598	n/a	LTP229	ltpFR2	2	n/a	n/a	n/a	20	n/a	n/a	n/a	n/a
3050.144	n/a	DISTRACTOR	1525072	n/a	LTP229	ltpFR2	2	13	n/a	n/a	n/a	n/a	0	0	0
3050.16	n/a	PROB	1525080	n/a	LTP229	ltpFR2	2	n/a	n/a	n/a	20	13	1	6	6
3051.782	n/a	PROB	1525891	n/a	LTP229	ltpFR2	2	n/a	n/a	n/a	20	19	4	9	6
3053.506	n/a	PROB	1526753	n/a	LTP229	ltpFR2	2	n/a	n/a	n/a	20	20	9	9	1
3055.462	n/a	PROB	1527731	n/a	LTP229	ltpFR2	2	n/a	n/a	n/a	20	10	2	1	7
3057.472	n/a	PROB	1528736	n/a	LTP229	ltpFR2	2	n/a	n/a	n/a	20	18	6	3	9
3059.196	n/a	PROB	1529598	n/a	LTP229	ltpFR2	2	n/a	n/a	n/a	20	11	5	1	5
3060.384	n/a	PROB	1530192	n/a	LTP229	ltpFR2	2	n/a	n/a	n/a	20	15	1	8	6
3063.968	n/a	PROB	1531984	n/a	LTP229	ltpFR2	2	n/a	n/a	n/a	20	10	4	5	1
3065.72	n/a	PROB	1532860	n/a	LTP229	ltpFR2	2	n/a	n/a	n/a	20	18	8	9	1
3067.426	n/a	PROB	1533713	n/a	LTP229	ltpFR2	2	n/a	n/a	n/a	20	18	3	6	9
3069.072	n/a	PROB	1534536	n/a	LTP229	ltpFR2	2	n/a	n/a	n/a	20	12	1	2	9
3071.062	n/a	PROB	1535531	n/a	LTP229	ltpFR2	2	n/a	n/a	n/a	20	5	1	3	1
3072.246	n/a	STOP	1536123	n/a	LTP229	ltpFR2	2	n/a	n/a	n/a	20	n/a	n/a	n/a	n/a
3075.144	n/a	REC_START	1537572	n/a	LTP229	ltpFR2	2	13	n/a	n/a	n/a	n/a	0	0	0
3078.386	n/a	REC_WORD	1539193	wordpools/wasnorm_wordpool_576.txt	LTP229	ltpFR2	2	13	SLOPE	1328	n/a	n/a	0	0	0
3080.048	n/a	REC_WORD	1540024	wordpools/wasnorm_wordpool_576.txt	LTP229	ltpFR2	2	13	HIKER	708	n/a	n/a	0	0	0
3113.676	n/a	REC_WORD	1556838	wordpools/wasnorm_wordpool_576.txt	LTP229	ltpFR2	2	13	DAUGHTER	442	n/a	n/a	0	0	0
3118.922	n/a	REC_WORD	1559461	wordpools/wasnorm_wordpool_576.txt	LTP229	ltpFR2	2	13	SNACK	1331	n/a	n/a	0	0	0
3120.458	n/a	REC_WORD	1560229	wordpools/wasnorm_wordpool_576.txt	LTP229	ltpFR2	2	13	TREAT	1501	n/a	n/a	0	0	0
3123.238	n/a	REC_WORD	1561619	wordpools/wasnorm_wordpool_576.txt	LTP229	ltpFR2	2	13	TART	1436	n/a	n/a	0	0	0
3125.17	n/a	REC_WORD	1562585	wordpools/wasnorm_wordpool_576.txt	LTP229	ltpFR2	2	13	PASTRY	1022	n/a	n/a	0	0	0
3181.534	n/a	WORD	1590767	wordpools/wasnorm_wordpool_576.txt	LTP229	ltpFR2	2	14	MACHINE	852	n/a	n/a	0	0	0
3184.01	n/a	WORD	1592005	wordpools/wasnorm_wordpool_576.txt	LTP229	ltpFR2	2	14	WASHER	1592	n/a	n/a	0	0	0
3186.652	n/a	WORD	1593326	wordpools/wasnorm_wordpool_576.txt	LTP229	ltpFR2	2	14	LAPEL	800	n/a	n/a	0	0	0
3189.282	n/a	WORD	1594641	wordpools/wasnorm_wordpool_576.txt	LTP229	ltpFR2	2	14	SWIMMER	1420	n/a	n/a	0	0	0
3191.774	n/a	WORD	1595887	wordpools/wasnorm_wordpool_576.txt	LTP229	ltpFR2	2	14	ONION	977	n/a	n/a	0	0	0
3194.266	n/a	WORD	1597133	wordpools/wasnorm_wordpool_576.txt	LTP229	ltpFR2	2	14	SUBWAY	1400	n/a	n/a	0	0	0
3196.87	n/a	WORD	1598435	wordpools/wasnorm_wordpool_576.txt	LTP229	ltpFR2	2	14	WRIST	1626	n/a	n/a	0	0	0
3199.37	n/a	WORD	1599685	wordpools/wasnorm_wordpool_576.txt	LTP229	ltpFR2	2	14	KNIFE	785	n/a	n/a	0	0	0
3201.896	n/a	WORD	1600948	wordpools/wasnorm_wordpool_576.txt	LTP229	ltpFR2	2	14	SURVEY	1414	n/a	n/a	0	0	0
3204.638	n/a	WORD	1602319	wordpools/wasnorm_wordpool_576.txt	LTP229	ltpFR2	2	14	LILY	821	n/a	n/a	0	0	0
3207.434	n/a	WORD	1603717	wordpools/wasnorm_wordpool_576.txt	LTP229	ltpFR2	2	14	GRILL	661	n/a	n/a	0	0	0
3209.994	n/a	WORD	1604997	wordpools/wasnorm_wordpool_576.txt	LTP229	ltpFR2	2	14	KITCHEN	778	n/a	n/a	0	0	0
3212.536	n/a	WORD	1606268	wordpools/wasnorm_wordpool_576.txt	LTP229	ltpFR2	2	14	CELLAR	267	n/a	n/a	0	0	0
3215.214	n/a	WORD	1607607	wordpools/wasnorm_wordpool_576.txt	LTP229	ltpFR2	2	14	PEPPER	1047	n/a	n/a	0	0	0
3218.024	n/a	WORD	1609012	wordpools/wasnorm_wordpool_576.txt	LTP229	ltpFR2	2	14	ZIPPER	1636	n/a	n/a	0	0	0
3220.6	n/a	WORD	1610300	wordpools/wasnorm_wordpool_576.txt	LTP229	ltpFR2	2	14	SALT	1229	n/a	n/a	0	0	0
3223.194	n/a	WORD	1611597	wordpools/wasnorm_wordpool_576.txt	LTP229	ltpFR2	2	14	BASEMENT	94	n/a	n/a	0	0	0
3225.82	n/a	WORD	1612910	wordpools/wasnorm_wordpool_576.txt	LTP229	ltpFR2	2	14	SCISSORS	1250	n/a	n/a	0	0	0
3228.314	n/a	WORD	1614157	wordpools/wasnorm_wordpool_576.txt	LTP229	ltpFR2	2	14	SHORTCAKE	1292	n/a	n/a	0	0	0
3231.108	n/a	WORD	1615554	wordpools/wasnorm_wordpool_576.txt	LTP229	ltpFR2	2	14	ORANGE	980	n/a	n/a	0	0	0
3233.7	n/a	WORD	1616850	wordpools/wasnorm_wordpool_576.txt	LTP229	ltpFR2	2	14	PAIL	1002	n/a	n/a	0	0	0
3236.172	n/a	WORD	1618086	wordpools/wasnorm_wordpool_576.txt	LTP229	ltpFR2	2	14	BUCKET	184	n/a	n/a	0	0	0
3238.852	n/a	WORD	1619426	wordpools/wasnorm_wordpool_576.txt	LTP229	ltpFR2	2	14	ANKLE	24	n/a	n/a	0	0	0
3241.642	n/a	WORD	1620821	wordpools/wasnorm_wordpool_576.txt	LTP229	ltpFR2	2	14	PEACH	1031	n/a	n/a	0	0	0
3243.254	n/a	START	1621627	n/a	LTP229	ltpFR2	2	n/a	n/a	n/a	21	n/a	n/a	n/a	n/a
3244.226	n/a	DISTRACTOR	1622113	n/a	LTP229	ltpFR2	2	14	n/a	n/a	n/a	n/a	0	0	0
3244.242	n/a	PROB	1622121	n/a	LTP229	ltpFR2	2	n/a	n/a	n/a	21	14	6	2	6
3246.048	n/a	PROB	1623024	n/a	LTP229	ltpFR2	2	n/a	n/a	n/a	21	12	5	6	1
3247.916	n/a	PROB	1623958	n/a	LTP229	ltpFR2	2	n/a	n/a	n/a	21	23	8	7	8
3250.576	n/a	PROB	1625288	n/a	LTP229	ltpFR2	2	n/a	n/a	n/a	21	18	6	7	5
3254.608	n/a	PROB	1627304	n/a	LTP229	ltpFR2	2	n/a	n/a	n/a	21	8	2	4	2
3256.082	n/a	PROB	1628041	n/a	LTP229	ltpFR2	2	n/a	n/a	n/a	21	16	7	2	7
3258.69	n/a	PROB	1629345	n/a	LTP229	ltpFR2	2	n/a	n/a	n/a	21	15	1	8	5
3262.222	n/a	PROB	1631111	n/a	LTP229	ltpFR2	2	n/a	n/a	n/a	21	15	6	9	8
3266.712	n/a	STOP	1633356	n/a	LTP229	ltpFR2	2	n/a	n/a	n/a	21	n/a	n/a	n/a	n/a
3269.036	n/a	REC_START	1634518	n/a	LTP229	ltpFR2	2	14	n/a	n/a	n/a	n/a	0	0	0
3271.834	n/a	REC_WORD	1635917	wordpools/wasnorm_wordpool_576.txt	LTP229	ltpFR2	2	14	PEACH	1031	n/a	n/a	0	0	0
3274.022	n/a	REC_WORD	1637011	wordpools/wasnorm_wordpool_576.txt	LTP229	ltpFR2	2	14	KITCHEN	778	n/a	n/a	0	0	0
3276.324	n/a	REC_WORD	1638162	wordpools/wasnorm_wordpool_576.txt	LTP229	ltpFR2	2	14	GRILL	661	n/a	n/a	0	0	0
3281.69	n/a	REC_WORD	1640845	wordpools/wasnorm_wordpool_576.txt	LTP229	ltpFR2	2	14	SALT	1229	n/a	n/a	0	0	0
3283.572	n/a	REC_WORD	1641786	wordpools/wasnorm_wordpool_576.txt	LTP229	ltpFR2	2	14	PEPPER	1047	n/a	n/a	0	0	0
3330.28	n/a	REC_WORD	1665140	wordpools/wasnorm_wordpool_576.txt	LTP229	ltpFR2	2	14	FLASK	576	n/a	n/a	0	0	0
3334.816	n/a	REC_WORD	1667408	wordpools/wasnorm_wordpool_576.txt	LTP229	ltpFR2	2	14	PAIL	1002	n/a	n/a	0	0	0
3336.832	n/a	REC_WORD	1668416	wordpools/wasnorm_wordpool_576.txt	LTP229	ltpFR2	2	14	BUCKET	184	n/a	n/a	0	0	0
3360.068	n/a	WORD	1680034	wordpools/wasnorm_wordpool_576.txt	LTP229	ltpFR2	2	15	APPLE	33	n/a	n/a	0	0	0
3362.776	n/a	WORD	1681388	wordpools/wasnorm_wordpool_576.txt	LTP229	ltpFR2	2	15	SERVER	1272	n/a	n/a	0	0	0
3365.232	n/a	WORD	1682616	wordpools/wasnorm_wordpool_576.txt	LTP229	ltpFR2	2	15	CABIN	211	n/a	n/a	0	0	0
3367.696	n/a	WORD	1683848	wordpools/wasnorm_wordpool_576.txt	LTP229	ltpFR2	2	15	POISON	1096	n/a	n/a	0	0	0
3370.168	n/a	WORD	1685084	wordpools/wasnorm_wordpool_576.txt	LTP229	ltpFR2	2	15	BALLOON	75	n/a	n/a	0	0	0
3372.592	n/a	WORD	1686296	wordpools/wasnorm_wordpool_576.txt	LTP229	ltpFR2	2	15	OZONE	996	n/a	n/a	0	0	0
3375.108	n/a	WORD	1687554	wordpools/wasnorm_wordpool_576.txt	LTP229	ltpFR2	2	15	PENGUIN	1044	n/a	n/a	0	0	0
3377.818	n/a	WORD	1688909	wordpools/wasnorm_wordpool_576.txt	LTP229	ltpFR2	2	15	TRIBE	1505	n/a	n/a	0	0	0
3380.362	n/a	WORD	1690181	wordpools/wasnorm_wordpool_576.txt	LTP229	ltpFR2	2	15	STAKE	1368	n/a	n/a	0	0	0
3382.854	n/a	WORD	1691427	wordpools/wasnorm_wordpool_576.txt	LTP229	ltpFR2	2	15	JEANS	752	n/a	n/a	0	0	0
3385.342	n/a	WORD	1692671	wordpools/wasnorm_wordpool_576.txt	LTP229	ltpFR2	2	15	DENIM	446	n/a	n/a	0	0	0
3387.788	n/a	WORD	1693894	wordpools/wasnorm_wordpool_576.txt	LTP229	ltpFR2	2	15	ITEM	746	n/a	n/a	0	0	0
3390.478	n/a	WORD	1695239	wordpools/wasnorm_wordpool_576.txt	LTP229	ltpFR2	2	15	DUSTPAN	509	n/a	n/a	0	0	0
3392.988	n/a	WORD	1696494	wordpools/wasnorm_wordpool_576.txt	LTP229	ltpFR2	2	15	SPIDER	1351	n/a	n/a	0	0	0
3395.418	n/a	WORD	1697709	wordpools/wasnorm_wordpool_576.txt	LTP229	ltpFR2	2	15	FUNGUS	614	n/a	n/a	0	0	0
3398.192	n/a	WORD	1699096	wordpools/wasnorm_wordpool_576.txt	LTP229	ltpFR2	2	15	POCKET	1093	n/a	n/a	0	0	0
3400.906	n/a	WORD	1700453	wordpools/wasnorm_wordpool_576.txt	LTP229	ltpFR2	2	15	VENUS	1557	n/a	n/a	0	0	0
3403.494	n/a	WORD	1701747	wordpools/wasnorm_wordpool_576.txt	LTP229	ltpFR2	2	15	CANDY	230	n/a	n/a	0	0	0
3406.294	n/a	WORD	1703147	wordpools/wasnorm_wordpool_576.txt	LTP229	ltpFR2	2	15	TORTOISE	1486	n/a	n/a	0	0	0
3408.988	n/a	WORD	1704494	wordpools/wasnorm_wordpool_576.txt	LTP229	ltpFR2	2	15	SOFTBALL	1343	n/a	n/a	0	0	0
3411.698	n/a	WORD	1705849	wordpools/wasnorm_wordpool_576.txt	LTP229	ltpFR2	2	15	SNAKE	1333	n/a	n/a	0	0	0
3414.358	n/a	WORD	1707179	wordpools/wasnorm_wordpool_576.txt	LTP229	ltpFR2	2	15	BURGLAR	200	n/a	n/a	0	0	0
3416.812	n/a	WORD	1708406	wordpools/wasnorm_wordpool_576.txt	LTP229	ltpFR2	2	15	DRESS	495	n/a	n/a	0	0	0
3419.36	n/a	WORD	1709680	wordpools/wasnorm_wordpool_576.txt	LTP229	ltpFR2	2	15	DUST	508	n/a	n/a	0	0	0
3420.966	n/a	START	1710483	n/a	LTP229	ltpFR2	2	n/a	n/a	n/a	22	n/a	n/a	n/a	n/a
3421.91	n/a	DISTRACTOR	1710955	n/a	LTP229	ltpFR2	2	15	n/a	n/a	n/a	n/a	0	0	0
3421.92	n/a	PROB	1710960	n/a	LTP229	ltpFR2	2	n/a	n/a	n/a	22	17	7	8	2
3424.574	n/a	PROB	1712287	n/a	LTP229	ltpFR2	2	n/a	n/a	n/a	22	18	9	4	5
3427.368	n/a	PROB	1713684	n/a	LTP229	ltpFR2	2	n/a	n/a	n/a	22	17	3	8	4
3429.56	n/a	PROB	1714780	n/a	LTP229	ltpFR2	2	n/a	n/a	n/a	22	17	8	7	2
3434.796	n/a	PROB	1717398	n/a	LTP229	ltpFR2	2	n/a	n/a	n/a	22	10	5	2	3
3439.114	n/a	PROB	1719557	n/a	LTP229	ltpFR2	2	n/a	n/a	n/a	22	15	5	5	5
3440.586	n/a	PROB	1720293	n/a	LTP229	ltpFR2	2	n/a	n/a	n/a	22	20	4	8	8
3444.968	n/a	STOP	1722484	n/a	LTP229	ltpFR2	2	n/a	n/a	n/a	22	n/a	n/a	n/a	n/a
3446.766	n/a	REC_START	1723383	n/a	LTP229	ltpFR2	2	15	n/a	n/a	n/a	n/a	0	0	0
3451.778	n/a	REC_WORD	1725889	wordpools/wasnorm_wordpool_576.txt	LTP229	ltpFR2	2	15	DRESS	495	n/a	n/a	0	0	0
3453.542	n/a	REC_WORD	1726771	wordpools/wasnorm_wordpool_576.txt	LTP229	ltpFR2	2	15	WARDROBE	1587	n/a	n/a	0	0	0
3455.864	n/a	REC_WORD	1727932	wordpools/wasnorm_wordpool_576.txt	LTP229	ltpFR2	2	15	DRESSER	496	n/a	n/a	0	0	0
3457.234	n/a	REC_WORD_VV	1728617	wordpools/wasnorm_wordpool_576.txt	LTP229	ltpFR2	2	15	<>	-1	n/a	n/a	0	0	0
3458.234	n/a	REC_WORD_VV	1729117	wordpools/wasnorm_wordpool_576.txt	LTP229	ltpFR2	2	15	<>	-1	n/a	n/a	0	0	0
3459.234	n/a	REC_WORD_VV	1729617	wordpools/wasnorm_wordpool_576.txt	LTP229	ltpFR2	2	15	<>	-1	n/a	n/a	0	0	0
3471.848	n/a	REC_WORD	1735924	wordpools/wasnorm_wordpool_576.txt	LTP229	ltpFR2	2	15	DUST	508	n/a	n/a	0	0	0
3473.66	n/a	REC_WORD	1736830	wordpools/wasnorm_wordpool_576.txt	LTP229	ltpFR2	2	15	DUSTPAN	509	n/a	n/a	0	0	0
3476.292	n/a	REC_WORD	1738146	wordpools/wasnorm_wordpool_576.txt	LTP229	ltpFR2	2	15	BURGLAR	200	n/a	n/a	0	0	0
3478.824	n/a	REC_WORD	1739412	wordpools/wasnorm_wordpool_576.txt	LTP229	ltpFR2	2	15	SERVER	1272	n/a	n/a	0	0	0
3481.948	n/a	REC_WORD	1740974	wordpools/wasnorm_wordpool_576.txt	LTP229	ltpFR2	2	15	TORTOISE	1486	n/a	n/a	0	0	0
3537.806	n/a	WORD	1768903	wordpools/wasnorm_wordpool_576.txt	LTP229	ltpFR2	2	16	CHAUFFEUR	283	n/a	n/a	0	0	0
3540.574	n/a	WORD	1770287	wordpools/wasnorm_wordpool_576.txt	LTP229	ltpFR2	2	16	TRUCK	1512	n/a	n/a	0	0	0
3543.252	n/a	WORD	1771626	wordpools/wasnorm_wordpool_576.txt	LTP229	ltpFR2	2	16	SLIDE	1326	n/a	n/a	0	0	0
3545.888	n/a	WORD	1772944	wordpools/wasnorm_wordpool_576.txt	LTP229	ltpFR2	2	16	EXPERT	543	n/a	n/a	0	0	0
3548.616	n/a	WORD	1774308	wordpools/wasnorm_wordpool_576.txt	LTP229	ltpFR2	2	16	BANKER	84	n/a	n/a	0	0	0
3551.198	n/a	WORD	1775599	wordpools/wasnorm_wordpool_576.txt	LTP229	ltpFR2	2	16	STUDENT	1395	n/a	n/a	0	0	0
3553.974	n/a	WORD	1776987	wordpools/wasnorm_wordpool_576.txt	LTP229	ltpFR2	2	16	HOSTESS	723	n/a	n/a	0	0	0
3556.566	n/a	WORD	1778283	wordpools/wasnorm_wordpool_576.txt	LTP229	ltpFR2	2	16	SCALPEL	1243	n/a	n/a	0	0	0
3559.38	n/a	WORD	1779690	wordpools/wasnorm_wordpool_576.txt	LTP229	ltpFR2	2	16	BUTCHER	203	n/a	n/a	0	0	0
3561.854	n/a	WORD	1780927	wordpools/wasnorm_wordpool_576.txt	LTP229	ltpFR2	2	16	ATOM	55	n/a	n/a	0	0	0
3564.398	n/a	WORD	1782199	wordpools/wasnorm_wordpool_576.txt	LTP229	ltpFR2	2	16	FIDDLE	561	n/a	n/a	0	0	0
3567.042	n/a	WORD	1783521	wordpools/wasnorm_wordpool_576.txt	LTP229	ltpFR2	2	16	PARTNER	1017	n/a	n/a	0	0	0
3569.516	n/a	WORD	1784758	wordpools/wasnorm_wordpool_576.txt	LTP229	ltpFR2	2	16	TROMBONE	1508	n/a	n/a	0	0	0
3572.028	n/a	WORD	1786014	wordpools/wasnorm_wordpool_576.txt	LTP229	ltpFR2	2	16	TRACTOR	1493	n/a	n/a	0	0	0
3574.502	n/a	WORD	1787251	wordpools/wasnorm_wordpool_576.txt	LTP229	ltpFR2	2	16	CITRUS	313	n/a	n/a	0	0	0
3577.16	n/a	WORD	1788580	wordpools/wasnorm_wordpool_576.txt	LTP229	ltpFR2	2	16	GHETTO	633	n/a	n/a	0	0	0
3579.684	n/a	WORD	1789842	wordpools/wasnorm_wordpool_576.txt	LTP229	ltpFR2	2	16	COSTUME	383	n/a	n/a	0	0	0
3582.15	n/a	WORD	1791075	wordpools/wasnorm_wordpool_576.txt	LTP229	ltpFR2	2	16	FLEET	578	n/a	n/a	0	0	0
3584.876	n/a	WORD	1792438	wordpools/wasnorm_wordpool_576.txt	LTP229	ltpFR2	2	16	TAXI	1438	n/a	n/a	0	0	0
3587.58	n/a	WORD	1793790	wordpools/wasnorm_wordpool_576.txt	LTP229	ltpFR2	2	16	NEUTRON	947	n/a	n/a	0	0	0
3590.18	n/a	WORD	1795090	wordpools/wasnorm_wordpool_576.txt	LTP229	ltpFR2	2	16	PEBBLE	1035	n/a	n/a	0	0	0
3592.856	n/a	WORD	1796428	wordpools/wasnorm_wordpool_576.txt	LTP229	ltpFR2	2	16	CORAL	378	n/a	n/a	0	0	0
3595.444	n/a	WORD	1797722	wordpools/wasnorm_wordpool_576.txt	LTP229	ltpFR2	2	16	GANGSTER	620	n/a	n/a	0	0	0
3598.244	n/a	WORD	1799122	wordpools/wasnorm_wordpool_576.txt	LTP229	ltpFR2	2	16	MAPLE	866	n/a	n/a	0	0	0
3599.862	n/a	START	1799931	n/a	LTP229	ltpFR2	2	n/a	n/a	n/a	23	n/a	n/a	n/a	n/a
3601.03	n/a	DISTRACTOR	1800515	n/a	LTP229	ltpFR2	2	16	n/a	n/a	n/a	n/a	0	0	0
3601.038	n/a	PROB	1800519	n/a	LTP229	ltpFR2	2	n/a	n/a	n/a	23	17	8	8	1
3602.912	n/a	PROB	1801456	n/a	LTP229	ltpFR2	2	n/a	n/a	n/a	23	13	2	8	3
3604.836	n/a	PROB	1802418	n/a	LTP229	ltpFR2	2	n/a	n/a	n/a	23	8	4	1	3
3607.724	n/a	PROB	1803862	n/a	LTP229	ltpFR2	2	n/a	n/a	n/a	23	19	7	3	9
3609.314	n/a	PROB	1804657	n/a	LTP229	ltpFR2	2	n/a	n/a	n/a	23	15	1	5	7
3611.038	n/a	PROB	1805519	n/a	LTP229	ltpFR2	2	n/a	n/a	n/a	23	18	6	7	5
3614.172	n/a	PROB	1807086	n/a	LTP229	ltpFR2	2	n/a	n/a	n/a	23	12	5	2	5
3615.928	n/a	PROB	1807964	n/a	LTP229	ltpFR2	2	n/a	n/a	n/a	23	15	9	5	7
3617.446	n/a	PROB	1808723	n/a	LTP229	ltpFR2	2	n/a	n/a	n/a	23	7	4	2	1
3618.918	n/a	PROB	1809459	n/a	LTP229	ltpFR2	2	n/a	n/a	n/a	23	11	3	6	2
3621.228	n/a	PROB	1810614	n/a	LTP229	ltpFR2	2	n/a	n/a	n/a	23	11	3	6	2
3622.578	n/a	STOP	1811289	n/a	LTP229	ltpFR2	2	n/a	n/a	n/a	23	n/a	n/a	n/a	n/a
3625.76	n/a	REC_START	1812880	n/a	LTP229	ltpFR2	2	16	n/a	n/a	n/a	n/a	0	0	0
3627.982	n/a	REC_WORD	1813991	wordpools/wasnorm_wordpool_576.txt	LTP229	ltpFR2	2	16	CHAUFFEUR	283	n/a	n/a	0	0	0
3629.942	n/a	REC_WORD	1814971	wordpools/wasnorm_wordpool_576.txt	LTP229	ltpFR2	2	16	TRUCK	1512	n/a	n/a	0	0	0
3644.7	n/a	REC_WORD	1822350	wordpools/wasnorm_wordpool_576.txt	LTP229	ltpFR2	2	16	LILY	821	n/a	n/a	0	0	0
3646.346	n/a	REC_WORD	1823173	wordpools/wasnorm_wordpool_576.txt	LTP229	ltpFR2	2	16	ORCHID	982	n/a	n/a	0	0	0
3702.576	n/a	REST_REWET	1851288	n/a	LTP229	ltpFR2	2	16	n/a	n/a	n/a	n/a	0	0	0
3945.086	n/a	WORD	1972543	wordpools/wasnorm_wordpool_576.txt	LTP229	ltpFR2	2	17	BEEF	113	n/a	n/a	0	0	0
3947.796	n/a	WORD	1973898	wordpools/wasnorm_wordpool_576.txt	LTP229	ltpFR2	2	17	PERMIT	1051	n/a	n/a	0	0	0
3950.408	n/a	WORD	1975204	wordpools/wasnorm_wordpool_576.txt	LTP229	ltpFR2	2	17	STICKER	1382	n/a	n/a	0	0	0
3953.184	n/a	WORD	1976592	wordpools/wasnorm_wordpool_576.txt	LTP229	ltpFR2	2	17	WOMAN	1620	n/a	n/a	0	0	0
3955.99	n/a	WORD	1977995	wordpools/wasnorm_wordpool_576.txt	LTP229	ltpFR2	2	17	BEAVER	109	n/a	n/a	0	0	0
3958.438	n/a	WORD	1979219	wordpools/wasnorm_wordpool_576.txt	LTP229	ltpFR2	2	17	BRICK	172	n/a	n/a	0	0	0
3961.232	n/a	WORD	1980616	wordpools/wasnorm_wordpool_576.txt	LTP229	ltpFR2	2	17	MEAT	883	n/a	n/a	0	0	0
3963.74	n/a	WORD	1981870	wordpools/wasnorm_wordpool_576.txt	LTP229	ltpFR2	2	17	MONSTER	912	n/a	n/a	0	0	0
3966.518	n/a	WORD	1983259	wordpools/wasnorm_wordpool_576.txt	LTP229	ltpFR2	2	17	PERCH	1048	n/a	n/a	0	0	0
3969.246	n/a	WORD	1984623	wordpools/wasnorm_wordpool_576.txt	LTP229	ltpFR2	2	17	COD	340	n/a	n/a	0	0	0
3971.75	n/a	WORD	1985875	wordpools/wasnorm_wordpool_576.txt	LTP229	ltpFR2	2	17	PIGEON	1065	n/a	n/a	0	0	0
3974.514	n/a	WORD	1987257	wordpools/wasnorm_wordpool_576.txt	LTP229	ltpFR2	2	17	IGLOO	734	n/a	n/a	0	0	0
3977.11	n/a	WORD	1988555	wordpools/wasnorm_wordpool_576.txt	LTP229	ltpFR2	2	17	GYMNAST	675	n/a	n/a	0	0	0
3979.696	n/a	WORD	1989848	wordpools/wasnorm_wordpool_576.txt	LTP229	ltpFR2	2	17	WRENCH	1625	n/a	n/a	0	0	0
3982.194	n/a	WORD	1991097	wordpools/wasnorm_wordpool_576.txt	LTP229	ltpFR2	2	17	POSSUM	1112	n/a	n/a	0	0	0
3984.754	n/a	WORD	1992377	wordpools/wasnorm_wordpool_576.txt	LTP229	ltpFR2	2	17	TEACHER	1440	n/a	n/a	0	0	0
3987.448	n/a	WORD	1993724	wordpools/wasnorm_wordpool_576.txt	LTP229	ltpFR2	2	17	KETCHUP	771	n/a	n/a	0	0	0
3990.088	n/a	WORD	1995044	wordpools/wasnorm_wordpool_576.txt	LTP229	ltpFR2	2	17	MUSTARD	935	n/a	n/a	0	0	0
3992.584	n/a	WORD	1996292	wordpools/wasnorm_wordpool_576.txt	LTP229	ltpFR2	2	17	CRUTCH	417	n/a	n/a	0	0	0
3995.194	n/a	WORD	1997597	wordpools/wasnorm_wordpool_576.txt	LTP229	ltpFR2	2	17	GOBLIN	645	n/a	n/a	0	0	0
3997.654	n/a	WORD	1998827	wordpools/wasnorm_wordpool_576.txt	LTP229	ltpFR2	2	17	CASHEW	253	n/a	n/a	0	0	0
4000.41	n/a	WORD	2000205	wordpools/wasnorm_wordpool_576.txt	LTP229	ltpFR2	2	17	RUG	1215	n/a	n/a	0	0	0
4003.16	n/a	WORD	2001580	wordpools/wasnorm_wordpool_576.txt	LTP229	ltpFR2	2	17	GROUND	666	n/a	n/a	0	0	0
4005.65	n/a	WORD	2002825	wordpools/wasnorm_wordpool_576.txt	LTP229	ltpFR2	2	17	WHISTLE	1606	n/a	n/a	0	0	0
4007.258	n/a	START	2003629	n/a	LTP229	ltpFR2	2	n/a	n/a	n/a	24	n/a	n/a	n/a	n/a
4008.174	n/a	DISTRACTOR	2004087	n/a	LTP229	ltpFR2	2	17	n/a	n/a	n/a	n/a	0	0	0
4008.19	n/a	PROB	2004095	n/a	LTP229	ltpFR2	2	n/a	n/a	n/a	24	16	5	4	7
4012.238	n/a	PROB	2006119	n/a	LTP229	ltpFR2	2	n/a	n/a	n/a	24	12	4	5	3
4014.53	n/a	PROB	2007265	n/a	LTP229	ltpFR2	2	n/a	n/a	n/a	24	12	2	6	4
4017.124	n/a	PROB	2008562	n/a	LTP229	ltpFR2	2	n/a	n/a	n/a	24	16	1	8	7
4019.22	n/a	PROB	2009610	n/a	LTP229	ltpFR2	2	n/a	n/a	n/a	24	17	9	1	7
4021.574	n/a	PROB	2010787	n/a	LTP229	ltpFR2	2	n/a	n/a	n/a	24	24	8	8	8
4022.98	n/a	PROB	2011490	n/a	LTP229	ltpFR2	2	n/a	n/a	n/a	24	14	1	6	7
4024.418	n/a	PROB	2012209	n/a	LTP229	ltpFR2	2	n/a	n/a	n/a	24	14	5	7	2
4026.542	n/a	PROB	2013271	n/a	LTP229	ltpFR2	2	n/a	n/a	n/a	24	9	3	3	3
4028.02	n/a	PROB	2014010	n/a	LTP229	ltpFR2	2	n/a	n/a	n/a	24	11	7	3	1
4029.492	n/a	PROB	2014746	n/a	LTP229	ltpFR2	2	n/a	n/a	n/a	24	12	3	8	1
4030.946	n/a	STOP	2015473	n/a	LTP229	ltpFR2	2	n/a	n/a	n/a	24	n/a	n/a	n/a	n/a
4033.09	n/a	REC_START	2016545	n/a	LTP229	ltpFR2	2	17	n/a	n/a	n/a	n/a	0	0	0
4036.33	n/a	REC_WORD_VV	2018165	wordpools/wasnorm_wordpool_576.txt	LTP229	ltpFR2	2	17	<>	-1	n/a	n/a	0	0	0
4108.094	n/a	REC_WORD_VV	2054047	wordpools/wasnorm_wordpool_576.txt	LTP229	ltpFR2	2	17	<>	-1	n/a	n/a	0	0	0
4124.104	n/a	DISTRACTOR	2062052	n/a	LTP229	ltpFR2	2	18	n/a	n/a	n/a	n/a	0	0	0
4124.104	n/a	START	2062052	n/a	LTP229	ltpFR2	2	n/a	n/a	n/a	25	n/a	n/a	n/a	n/a
4124.154	n/a	PROB	2062077	n/a	LTP229	ltpFR2	2	n/a	n/a	n/a	25	18	8	5	7
4127.344	n/a	PROB	2063672	n/a	LTP229	ltpFR2	2	n/a	n/a	n/a	25	21	7	9	5
4131.064	n/a	PROB	2065532	n/a	LTP229	ltpFR2	2	n/a	n/a	n/a	25	17	7	6	4
4132.732	n/a	PROB	2066366	n/a	LTP229	ltpFR2	2	n/a	n/a	n/a	25	16	7	7	2
4134.39	n/a	PROB	2067195	n/a	LTP229	ltpFR2	2	n/a	n/a	n/a	25	10	2	7	1
4136.18	n/a	PROB	2068090	n/a	LTP229	ltpFR2	2	n/a	n/a	n/a	25	13	1	8	4
4137.834	n/a	PROB	2068917	n/a	LTP229	ltpFR2	2	n/a	n/a	n/a	25	13	5	1	8
4140.784	n/a	PROB	2070392	n/a	LTP229	ltpFR2	2	n/a	n/a	n/a	25	21	7	8	4
4148.106	n/a	STOP	2074053	n/a	LTP229	ltpFR2	2	n/a	n/a	n/a	25	n/a	n/a	n/a	n/a
4149.328	n/a	WORD	2074664	wordpools/wasnorm_wordpool_576.txt	LTP229	ltpFR2	2	18	DIVER	476	n/a	n/a	0	0	0
4152.112	n/a	WORD	2076056	wordpools/wasnorm_wordpool_576.txt	LTP229	ltpFR2	2	18	HAND	683	n/a	n/a	0	0	0
4154.916	n/a	WORD	2077458	wordpools/wasnorm_wordpool_576.txt	LTP229	ltpFR2	2	18	CLAM	315	n/a	n/a	0	0	0
4157.398	n/a	WORD	2078699	wordpools/wasnorm_wordpool_576.txt	LTP229	ltpFR2	2	18	BEAST	108	n/a	n/a	0	0	0
4160.086	n/a	WORD	2080043	wordpools/wasnorm_wordpool_576.txt	LTP229	ltpFR2	2	18	VALLEY	1545	n/a	n/a	0	0	0
4162.902	n/a	WORD	2081451	wordpools/wasnorm_wordpool_576.txt	LTP229	ltpFR2	2	18	WASP	1593	n/a	n/a	0	0	0
4165.346	n/a	WORD	2082673	wordpools/wasnorm_wordpool_576.txt	LTP229	ltpFR2	2	18	RELISH	1183	n/a	n/a	0	0	0
4168.006	n/a	WORD	2084003	wordpools/wasnorm_wordpool_576.txt	LTP229	ltpFR2	2	18	FIREPLACE	570	n/a	n/a	0	0	0
4170.532	n/a	WORD	2085266	wordpools/wasnorm_wordpool_576.txt	LTP229	ltpFR2	2	18	HERO	706	n/a	n/a	0	0	0
4173.21	n/a	WORD	2086605	wordpools/wasnorm_wordpool_576.txt	LTP229	ltpFR2	2	18	HORNET	718	n/a	n/a	0	0	0
4175.65	n/a	WORD	2087825	wordpools/wasnorm_wordpool_576.txt	LTP229	ltpFR2	2	18	ARM	38	n/a	n/a	0	0	0
4178.446	n/a	WORD	2089223	wordpools/wasnorm_wordpool_576.txt	LTP229	ltpFR2	2	18	PADDLE	1000	n/a	n/a	0	0	0
4180.938	n/a	WORD	2090469	wordpools/wasnorm_wordpool_576.txt	LTP229	ltpFR2	2	18	ATLAS	53	n/a	n/a	0	0	0
4183.698	n/a	WORD	2091849	wordpools/wasnorm_wordpool_576.txt	LTP229	ltpFR2	2	18	SCALLOP	1242	n/a	n/a	0	0	0
4186.158	n/a	WORD	2093079	wordpools/wasnorm_wordpool_576.txt	LTP229	ltpFR2	2	18	SALMON	1227	n/a	n/a	0	0	0
4188.936	n/a	WORD	2094468	wordpools/wasnorm_wordpool_576.txt	LTP229	ltpFR2	2	18	SWAMP	1416	n/a	n/a	0	0	0
4191.612	n/a	WORD	2095806	wordpools/wasnorm_wordpool_576.txt	LTP229	ltpFR2	2	18	TURTLE	1522	n/a	n/a	0	0	0
4194.402	n/a	WORD	2097201	wordpools/wasnorm_wordpool_576.txt	LTP229	ltpFR2	2	18	FRANCE	601	n/a	n/a	0	0	0
4196.916	n/a	WORD	2098458	wordpools/wasnorm_wordpool_576.txt	LTP229	ltpFR2	2	18	MONEY	908	n/a	n/a	0	0	0
4199.576	n/a	WORD	2099788	wordpools/wasnorm_wordpool_576.txt	LTP229	ltpFR2	2	18	RECEIPT	1173	n/a	n/a	0	0	0
4202.27	n/a	WORD	2101135	wordpools/wasnorm_wordpool_576.txt	LTP229	ltpFR2	2	18	HEDGE	699	n/a	n/a	0	0	0
4204.756	n/a	WORD	2102378	wordpools/wasnorm_wordpool_576.txt	LTP229	ltpFR2	2	18	LADY	794	n/a	n/a	0	0	0
4207.302	n/a	WORD	2103651	wordpools/wasnorm_wordpool_576.txt	LTP229	ltpFR2	2	18	WIDOW	1608	n/a	n/a	0	0	0
4209.962	n/a	WORD	2104981	wordpools/wasnorm_wordpool_576.txt	LTP229	ltpFR2	2	18	SHRUB	1299	n/a	n/a	0	0	0
4211.572	n/a	START	2105786	n/a	LTP229	ltpFR2	2	n/a	n/a	n/a	26	n/a	n/a	n/a	n/a
4212.448	n/a	DISTRACTOR	2106224	n/a	LTP229	ltpFR2	2	18	n/a	n/a	n/a	n/a	0	0	0
4212.458	n/a	PROB	2106229	n/a	LTP229	ltpFR2	2	n/a	n/a	n/a	26	13	7	2	4
4215.498	n/a	PROB	2107749	n/a	LTP229	ltpFR2	2	n/a	n/a	n/a	26	17	7	6	4
4217.088	n/a	PROB	2108544	n/a	LTP229	ltpFR2	2	n/a	n/a	n/a	26	17	5	3	7
4218.798	n/a	PROB	2109399	n/a	LTP229	ltpFR2	2	n/a	n/a	n/a	26	13	8	1	4
4220.55	n/a	PROB	2110275	n/a	LTP229	ltpFR2	2	n/a	n/a	n/a	26	10	1	4	5
4222.19	n/a	PROB	2111095	n/a	LTP229	ltpFR2	2	n/a	n/a	n/a	26	14	3	6	5
4226.624	n/a	PROB	2113312	n/a	LTP229	ltpFR2	2	n/a	n/a	n/a	26	11	2	1	8
4228.304	n/a	PROB	2114152	n/a	LTP229	ltpFR2	2	n/a	n/a	n/a	26	17	6	3	7
4230.456	n/a	PROB	2115228	n/a	LTP229	ltpFR2	2	n/a	n/a	n/a	26	22	7	8	7
4235.572	n/a	STOP	2117786	n/a	LTP229	ltpFR2	2	n/a	n/a	n/a	26	n/a	n/a	n/a	n/a
4237.5	n/a	REC_START	2118750	n/a	LTP229	ltpFR2	2	18	n/a	n/a	n/a	n/a	0	0	0
4240.932	n/a	REC_WORD_VV	2120466	wordpools/wasnorm_wordpool_576.txt	LTP229	ltpFR2	2	18	<>	-1	n/a	n/a	0	0	0
4242.936	n/a	REC_WORD_VV	2121468	wordpools/wasnorm_wordpool_576.txt	LTP229	ltpFR2	2	18	<>	-1	n/a	n/a	0	0	0
4243.338	n/a	REC_WORD	2121669	wordpools/wasnorm_wordpool_576.txt	LTP229	ltpFR2	2	18	DIVER	476	n/a	n/a	0	0	0
4244.846	n/a	REC_WORD	2122423	wordpools/wasnorm_wordpool_576.txt	LTP229	ltpFR2	2	18	HAND	683	n/a	n/a	0	0	0
4246.698	n/a	REC_WORD	2123349	wordpools/wasnorm_wordpool_576.txt	LTP229	ltpFR2	2	18	CLAM	315	n/a	n/a	0	0	0
4249.204	n/a	REC_WORD	2124602	wordpools/wasnorm_wordpool_576.txt	LTP229	ltpFR2	2	18	ISLAND	745	n/a	n/a	0	0	0
4255.994	n/a	REC_WORD	2127997	wordpools/wasnorm_wordpool_576.txt	LTP229	ltpFR2	2	18	DRIVER	499	n/a	n/a	0	0	0
4259.376	n/a	REC_WORD	2129688	wordpools/wasnorm_wordpool_576.txt	LTP229	ltpFR2	2	18	CASHEW	253	n/a	n/a	0	0	0
4263.27	n/a	REC_WORD	2131635	wordpools/wasnorm_wordpool_576.txt	LTP229	ltpFR2	2	18	ARM	38	n/a	n/a	0	0	0
4328.552	n/a	DISTRACTOR	2164276	n/a	LTP229	ltpFR2	2	19	n/a	n/a	n/a	n/a	0	0	0
4328.552	n/a	START	2164276	n/a	LTP229	ltpFR2	2	n/a	n/a	n/a	27	n/a	n/a	n/a	n/a
4328.602	n/a	PROB	2164301	n/a	LTP229	ltpFR2	2	n/a	n/a	n/a	27	19	6	6	7
4331.19	n/a	PROB	2165595	n/a	LTP229	ltpFR2	2	n/a	n/a	n/a	27	10	2	1	7
4332.796	n/a	PROB	2166398	n/a	LTP229	ltpFR2	2	n/a	n/a	n/a	27	12	9	2	1
4334.27	n/a	PROB	2167135	n/a	LTP229	ltpFR2	2	n/a	n/a	n/a	27	11	1	9	1
4335.608	n/a	PROB	2167804	n/a	LTP229	ltpFR2	2	n/a	n/a	n/a	27	18	7	7	4
4337.636	n/a	PROB	2168818	n/a	LTP229	ltpFR2	2	n/a	n/a	n/a	27	16	6	9	1
4339.206	n/a	PROB	2169603	n/a	LTP229	ltpFR2	2	n/a	n/a	n/a	27	17	7	1	9
4341.012	n/a	PROB	2170506	n/a	LTP229	ltpFR2	2	n/a	n/a	n/a	27	10	8	1	1
4342.434	n/a	PROB	2171217	n/a	LTP229	ltpFR2	2	n/a	n/a	n/a	27	12	2	7	3
4343.872	n/a	PROB	2171936	n/a	LTP229	ltpFR2	2	n/a	n/a	n/a	27	12	6	5	1
4345.946	n/a	PROB	2172973	n/a	LTP229	ltpFR2	2	n/a	n/a	n/a	27	24	8	7	9
4348.49	n/a	PROB	2174245	n/a	LTP229	ltpFR2	2	n/a	n/a	n/a	27	16	9	1	6
4350.13	n/a	PROB	2175065	n/a	LTP229	ltpFR2	2	n/a	n/a	n/a	27	14	3	8	3
4352.042	n/a	STOP	2176021	n/a	LTP229	ltpFR2	2	n/a	n/a	n/a	27	n/a	n/a	n/a	n/a
4353.442	n/a	WORD	2176721	wordpools/wasnorm_wordpool_576.txt	LTP229	ltpFR2	2	19	STATUE	1374	n/a	n/a	0	0	0
4355.884	n/a	WORD	2177942	wordpools/wasnorm_wordpool_576.txt	LTP229	ltpFR2	2	19	COMPASS	358	n/a	n/a	0	0	0
4358.562	n/a	WORD	2179281	wordpools/wasnorm_wordpool_576.txt	LTP229	ltpFR2	2	19	COOK	372	n/a	n/a	0	0	0
4361.056	n/a	WORD	2180528	wordpools/wasnorm_wordpool_576.txt	LTP229	ltpFR2	2	19	AIRPLANE	12	n/a	n/a	0	0	0
4363.502	n/a	WORD	2181751	wordpools/wasnorm_wordpool_576.txt	LTP229	ltpFR2	2	19	HOUND	724	n/a	n/a	0	0	0
4366.13	n/a	WORD	2183065	wordpools/wasnorm_wordpool_576.txt	LTP229	ltpFR2	2	19	NURSE	963	n/a	n/a	0	0	0
4368.806	n/a	WORD	2184403	wordpools/wasnorm_wordpool_576.txt	LTP229	ltpFR2	2	19	MESSAGE	888	n/a	n/a	0	0	0
4371.328	n/a	WORD	2185664	wordpools/wasnorm_wordpool_576.txt	LTP229	ltpFR2	2	19	TURNIP	1521	n/a	n/a	0	0	0
4374.106	n/a	WORD	2187053	wordpools/wasnorm_wordpool_576.txt	LTP229	ltpFR2	2	19	PUPPY	1144	n/a	n/a	0	0	0
4376.72	n/a	WORD	2188360	wordpools/wasnorm_wordpool_576.txt	LTP229	ltpFR2	2	19	FRAGRANCE	599	n/a	n/a	0	0	0
4379.464	n/a	WORD	2189732	wordpools/wasnorm_wordpool_576.txt	LTP229	ltpFR2	2	19	SCULPTURE	1258	n/a	n/a	0	0	0
4381.974	n/a	WORD	2190987	wordpools/wasnorm_wordpool_576.txt	LTP229	ltpFR2	2	19	CIGAR	308	n/a	n/a	0	0	0
4384.778	n/a	WORD	2192389	wordpools/wasnorm_wordpool_576.txt	LTP229	ltpFR2	2	19	COMET	353	n/a	n/a	0	0	0
4387.226	n/a	WORD	2193613	wordpools/wasnorm_wordpool_576.txt	LTP229	ltpFR2	2	19	OFFICE	972	n/a	n/a	0	0	0
4389.988	n/a	WORD	2194994	wordpools/wasnorm_wordpool_576.txt	LTP229	ltpFR2	2	19	NOTEBOOK	959	n/a	n/a	0	0	0
4392.648	n/a	WORD	2196324	wordpools/wasnorm_wordpool_576.txt	LTP229	ltpFR2	2	19	AIRPORT	13	n/a	n/a	0	0	0
4395.342	n/a	WORD	2197671	wordpools/wasnorm_wordpool_576.txt	LTP229	ltpFR2	2	19	PRINCE	1124	n/a	n/a	0	0	0
4397.968	n/a	WORD	2198984	wordpools/wasnorm_wordpool_576.txt	LTP229	ltpFR2	2	19	FLIPPER	580	n/a	n/a	0	0	0
4400.41	n/a	WORD	2200205	wordpools/wasnorm_wordpool_576.txt	LTP229	ltpFR2	2	19	EMPIRE	530	n/a	n/a	0	0	0
4402.848	n/a	WORD	2201424	wordpools/wasnorm_wordpool_576.txt	LTP229	ltpFR2	2	19	RIFLE	1192	n/a	n/a	0	0	0
4405.528	n/a	WORD	2202764	wordpools/wasnorm_wordpool_576.txt	LTP229	ltpFR2	2	19	PISTOL	1075	n/a	n/a	0	0	0
4408.174	n/a	WORD	2204087	wordpools/wasnorm_wordpool_576.txt	LTP229	ltpFR2	2	19	BLENDER	136	n/a	n/a	0	0	0
4410.644	n/a	WORD	2205322	wordpools/wasnorm_wordpool_576.txt	LTP229	ltpFR2	2	19	HUMAN	726	n/a	n/a	0	0	0
4413.16	n/a	WORD	2206580	wordpools/wasnorm_wordpool_576.txt	LTP229	ltpFR2	2	19	BODY	145	n/a	n/a	0	0	0
4414.776	n/a	START	2207388	n/a	LTP229	ltpFR2	2	n/a	n/a	n/a	28	n/a	n/a	n/a	n/a
4415.746	n/a	DISTRACTOR	2207873	n/a	LTP229	ltpFR2	2	19	n/a	n/a	n/a	n/a	0	0	0
4415.764	n/a	PROB	2207882	n/a	LTP229	ltpFR2	2	n/a	n/a	n/a	28	18	8	9	1
4417.994	n/a	PROB	2208997	n/a	LTP229	ltpFR2	2	n/a	n/a	n/a	28	4	2	1	1
4420.22	n/a	PROB	2210110	n/a	LTP229	ltpFR2	2	n/a	n/a	n/a	28	18	5	5	8
4421.976	n/a	PROB	2210988	n/a	LTP229	ltpFR2	2	n/a	n/a	n/a	28	12	3	8	1
4423.978	n/a	PROB	2211989	n/a	LTP229	ltpFR2	2	n/a	n/a	n/a	28	17	8	2	7
4426.036	n/a	PROB	2213018	n/a	LTP229	ltpFR2	2	n/a	n/a	n/a	28	7	4	1	2
4427.642	n/a	PROB	2213821	n/a	LTP229	ltpFR2	2	n/a	n/a	n/a	28	18	9	2	7
4428.998	n/a	PROB	2214499	n/a	LTP229	ltpFR2	2	n/a	n/a	n/a	28	17	9	5	3
4430.838	n/a	PROB	2215419	n/a	LTP229	ltpFR2	2	n/a	n/a	n/a	28	10	5	4	1
4432.378	n/a	PROB	2216189	n/a	LTP229	ltpFR2	2	n/a	n/a	n/a	28	20	9	2	9
4434.236	n/a	PROB	2217118	n/a	LTP229	ltpFR2	2	n/a	n/a	n/a	28	9	2	6	1
4435.724	n/a	PROB	2217862	n/a	LTP229	ltpFR2	2	n/a	n/a	n/a	28	17	9	4	4
4438.248	n/a	STOP	2219124	n/a	LTP229	ltpFR2	2	n/a	n/a	n/a	28	n/a	n/a	n/a	n/a
4440.598	n/a	REC_START	2220299	n/a	LTP229	ltpFR2	2	19	n/a	n/a	n/a	n/a	0	0	0
4442.572	n/a	REC_WORD_VV	2221286	wordpools/wasnorm_wordpool_576.txt	LTP229	ltpFR2	2	19	<>	-1	n/a	n/a	0	0	0
4443.624	n/a	REC_WORD	2221812	wordpools/wasnorm_wordpool_576.txt	LTP229	ltpFR2	2	19	PIMPLE	1071	n/a	n/a	0	0	0
4445.184	n/a	REC_WORD	2222592	wordpools/wasnorm_wordpool_576.txt	LTP229	ltpFR2	2	19	PUPIL	1143	n/a	n/a	0	0	0
4447.498	n/a	REC_WORD	2223749	wordpools/wasnorm_wordpool_576.txt	LTP229	ltpFR2	2	19	HUMAN	726	n/a	n/a	0	0	0
4449.574	n/a	REC_WORD	2224787	wordpools/wasnorm_wordpool_576.txt	LTP229	ltpFR2	2	19	BODY	145	n/a	n/a	0	0	0
4452.19	n/a	REC_WORD	2226095	wordpools/wasnorm_wordpool_576.txt	LTP229	ltpFR2	2	19	TURNIP	1521	n/a	n/a	0	0	0
4453.878	n/a	REC_WORD	2226939	wordpools/wasnorm_wordpool_576.txt	LTP229	ltpFR2	2	19	TULIP	1517	n/a	n/a	0	0	0
4455.952	n/a	REC_WORD	2227976	wordpools/wasnorm_wordpool_576.txt	LTP229	ltpFR2	2	19	ORCHID	982	n/a	n/a	0	0	0
4457.924	n/a	REC_WORD	2228962	wordpools/wasnorm_wordpool_576.txt	LTP229	ltpFR2	2	19	LILY	821	n/a	n/a	0	0	0
4531.612	n/a	DISTRACTOR	2265806	n/a	LTP229	ltpFR2	2	20	n/a	n/a	n/a	n/a	0	0	0
4531.612	n/a	START	2265806	n/a	LTP229	ltpFR2	2	n/a	n/a	n/a	29	n/a	n/a	n/a	n/a
4531.662	n/a	PROB	2265831	n/a	LTP229	ltpFR2	2	n/a	n/a	n/a	29	4	1	2	1
4532.962	n/a	PROB	2266481	n/a	LTP229	ltpFR2	2	n/a	n/a	n/a	29	15	6	7	9
4535.12	n/a	PROB	2267560	n/a	LTP229	ltpFR2	2	n/a	n/a	n/a	29	18	9	4	5
4538.232	n/a	PROB	2269116	n/a	LTP229	ltpFR2	2	n/a	n/a	n/a	29	12	3	4	5
4541.6	n/a	PROB	2270800	n/a	LTP229	ltpFR2	2	n/a	n/a	n/a	29	19	9	4	6
4543.618	n/a	PROB	2271809	n/a	LTP229	ltpFR2	2	n/a	n/a	n/a	29	11	8	1	2
4545.008	n/a	PROB	2272504	n/a	LTP229	ltpFR2	2	n/a	n/a	n/a	29	22	5	9	9
4549.096	n/a	PROB	2274548	n/a	LTP229	ltpFR2	2	n/a	n/a	n/a	29	18	7	6	3
4551.822	n/a	PROB	2275911	n/a	LTP229	ltpFR2	2	n/a	n/a	n/a	29	6	2	2	2
4555.612	n/a	STOP	2277806	n/a	LTP229	ltpFR2	2	n/a	n/a	n/a	29	n/a	n/a	n/a	n/a
4556.674	n/a	WORD	2278337	wordpools/wasnorm_wordpool_576.txt	LTP229	ltpFR2	2	20	BEAKER	104	n/a	n/a	0	0	0
4559.168	n/a	WORD	2279584	wordpools/wasnorm_wordpool_576.txt	LTP229	ltpFR2	2	20	CHEMIST	292	n/a	n/a	0	0	0
4561.974	n/a	WORD	2280987	wordpools/wasnorm_wordpool_576.txt	LTP229	ltpFR2	2	20	PLAID	1080	n/a	n/a	0	0	0
4564.504	n/a	WORD	2282252	wordpools/wasnorm_wordpool_576.txt	LTP229	ltpFR2	2	20	ELBOW	520	n/a	n/a	0	0	0
4566.98	n/a	WORD	2283490	wordpools/wasnorm_wordpool_576.txt	LTP229	ltpFR2	2	20	SUMMIT	1405	n/a	n/a	0	0	0
4569.44	n/a	WORD	2284720	wordpools/wasnorm_wordpool_576.txt	LTP229	ltpFR2	2	20	COBRA	336	n/a	n/a	0	0	0
4571.948	n/a	WORD	2285974	wordpools/wasnorm_wordpool_576.txt	LTP229	ltpFR2	2	20	COUCH	386	n/a	n/a	0	0	0
4574.708	n/a	WORD	2287354	wordpools/wasnorm_wordpool_576.txt	LTP229	ltpFR2	2	20	CONVICT	371	n/a	n/a	0	0	0
4577.52	n/a	WORD	2288760	wordpools/wasnorm_wordpool_576.txt	LTP229	ltpFR2	2	20	RADISH	1158	n/a	n/a	0	0	0
4580.076	n/a	WORD	2290038	wordpools/wasnorm_wordpool_576.txt	LTP229	ltpFR2	2	20	NOMAD	955	n/a	n/a	0	0	0
4582.74	n/a	WORD	2291370	wordpools/wasnorm_wordpool_576.txt	LTP229	ltpFR2	2	20	PREACHER	1119	n/a	n/a	0	0	0
4585.166	n/a	WORD	2292583	wordpools/wasnorm_wordpool_576.txt	LTP229	ltpFR2	2	20	GIRL	637	n/a	n/a	0	0	0
4587.776	n/a	WORD	2293888	wordpools/wasnorm_wordpool_576.txt	LTP229	ltpFR2	2	20	HOOD	714	n/a	n/a	0	0	0
4590.404	n/a	WORD	2295202	wordpools/wasnorm_wordpool_576.txt	LTP229	ltpFR2	2	20	TOURIST	1488	n/a	n/a	0	0	0
4593.064	n/a	WORD	2296532	wordpools/wasnorm_wordpool_576.txt	LTP229	ltpFR2	2	20	CURTAIN	427	n/a	n/a	0	0	0
4595.756	n/a	WORD	2297878	wordpools/wasnorm_wordpool_576.txt	LTP229	ltpFR2	2	20	MISTER	901	n/a	n/a	0	0	0
4598.268	n/a	WORD	2299134	wordpools/wasnorm_wordpool_576.txt	LTP229	ltpFR2	2	20	NAPKIN	937	n/a	n/a	0	0	0
4600.994	n/a	WORD	2300497	wordpools/wasnorm_wordpool_576.txt	LTP229	ltpFR2	2	20	STAPLE	1371	n/a	n/a	0	0	0
4603.716	n/a	WORD	2301858	wordpools/wasnorm_wordpool_576.txt	LTP229	ltpFR2	2	20	RATTLE	1170	n/a	n/a	0	0	0
4606.432	n/a	WORD	2303216	wordpools/wasnorm_wordpool_576.txt	LTP229	ltpFR2	2	20	BACKBONE	66	n/a	n/a	0	0	0
4609.002	n/a	WORD	2304501	wordpools/wasnorm_wordpool_576.txt	LTP229	ltpFR2	2	20	GIFT	635	n/a	n/a	0	0	0
4611.818	n/a	WORD	2305909	wordpools/wasnorm_wordpool_576.txt	LTP229	ltpFR2	2	20	AWARD	63	n/a	n/a	0	0	0
4614.612	n/a	WORD	2307306	wordpools/wasnorm_wordpool_576.txt	LTP229	ltpFR2	2	20	NECKLACE	940	n/a	n/a	0	0	0
4617.436	n/a	WORD	2308718	wordpools/wasnorm_wordpool_576.txt	LTP229	ltpFR2	2	20	DRUG	501	n/a	n/a	0	0	0
4619.064	n/a	START	2309532	n/a	LTP229	ltpFR2	2	n/a	n/a	n/a	30	n/a	n/a	n/a	n/a
4620.046	n/a	DISTRACTOR	2310023	n/a	LTP229	ltpFR2	2	20	n/a	n/a	n/a	n/a	0	0	0
4620.062	n/a	PROB	2310031	n/a	LTP229	ltpFR2	2	n/a	n/a	n/a	30	19	6	5	8
4622.276	n/a	PROB	2311138	n/a	LTP229	ltpFR2	2	n/a	n/a	n/a	30	15	6	4	5
4623.396	n/a	PROB	2311698	n/a	LTP229	ltpFR2	2	n/a	n/a	n/a	30	14	3	4	7
4625.75	n/a	PROB	2312875	n/a	LTP229	ltpFR2	2	n/a	n/a	n/a	30	16	6	7	3
4626.954	n/a	PROB	2313477	n/a	LTP229	ltpFR2	2	n/a	n/a	n/a	30	14	9	4	1
4629.164	n/a	PROB	2314582	n/a	LTP229	ltpFR2	2	n/a	n/a	n/a	30	16	4	9	3
4632.996	n/a	PROB	2316498	n/a	LTP229	ltpFR2	2	n/a	n/a	n/a	30	5	1	1	3
4634.116	n/a	PROB	2317058	n/a	LTP229	ltpFR2	2	n/a	n/a	n/a	30	18	8	3	7
4636.19	n/a	PROB	2318095	n/a	LTP229	ltpFR2	2	n/a	n/a	n/a	30	18	8	6	4
4637.462	n/a	PROB	2318731	n/a	LTP229	ltpFR2	2	n/a	n/a	n/a	30	17	7	1	9
4639.82	n/a	PROB	2319910	n/a	LTP229	ltpFR2	2	n/a	n/a	n/a	30	15	6	4	5
4641.026	n/a	PROB	2320513	n/a	LTP229	ltpFR2	2	n/a	n/a	n/a	30	8	1	5	2
4642.754	n/a	STOP	2321377	n/a	LTP229	ltpFR2	2	n/a	n/a	n/a	30	n/a	n/a	n/a	n/a
4644.944	n/a	REC_START	2322472	n/a	LTP229	ltpFR2	2	20	n/a	n/a	n/a	n/a	0	0	0
4650.682	n/a	REC_WORD_VV	2325341	wordpools/wasnorm_wordpool_576.txt	LTP229	ltpFR2	2	20	<>	-1	n/a	n/a	0	0	0
4656.094	n/a	REC_WORD	2328047	wordpools/wasnorm_wordpool_576.txt	LTP229	ltpFR2	2	20	PLAID	1080	n/a	n/a	0	0	0
4673.788	n/a	REC_WORD	2336894	wordpools/wasnorm_wordpool_576.txt	LTP229	ltpFR2	2	20	SHIRT	1287	n/a	n/a	0	0	0
4678.09	n/a	REC_WORD	2339045	wordpools/wasnorm_wordpool_576.txt	LTP229	ltpFR2	2	20	CLOTHES	327	n/a	n/a	0	0	0
4735.976	n/a	WORD	2367988	wordpools/wasnorm_wordpool_576.txt	LTP229	ltpFR2	2	21	SKETCH	1315	n/a	n/a	0	0	0
4738.714	n/a	WORD	2369357	wordpools/wasnorm_wordpool_576.txt	LTP229	ltpFR2	2	21	CASKET	255	n/a	n/a	0	0	0
4741.38	n/a	WORD	2370690	wordpools/wasnorm_wordpool_576.txt	LTP229	ltpFR2	2	21	SODA	1341	n/a	n/a	0	0	0
4744.054	n/a	WORD	2372027	wordpools/wasnorm_wordpool_576.txt	LTP229	ltpFR2	2	21	BABY	64	n/a	n/a	0	0	0
4746.65	n/a	WORD	2373325	wordpools/wasnorm_wordpool_576.txt	LTP229	ltpFR2	2	21	CRIB	407	n/a	n/a	0	0	0
4749.462	n/a	WORD	2374731	wordpools/wasnorm_wordpool_576.txt	LTP229	ltpFR2	2	21	CHAPEL	280	n/a	n/a	0	0	0
4752.106	n/a	WORD	2376053	wordpools/wasnorm_wordpool_576.txt	LTP229	ltpFR2	2	21	WAGON	1578	n/a	n/a	0	0	0
4754.81	n/a	WORD	2377405	wordpools/wasnorm_wordpool_576.txt	LTP229	ltpFR2	2	21	GALLON	618	n/a	n/a	0	0	0
4757.308	n/a	WORD	2378654	wordpools/wasnorm_wordpool_576.txt	LTP229	ltpFR2	2	21	TOASTER	1472	n/a	n/a	0	0	0
4759.968	n/a	WORD	2379984	wordpools/wasnorm_wordpool_576.txt	LTP229	ltpFR2	2	21	GARDEN	623	n/a	n/a	0	0	0
4762.774	n/a	WORD	2381387	wordpools/wasnorm_wordpool_576.txt	LTP229	ltpFR2	2	21	SEAGULL	1261	n/a	n/a	0	0	0
4765.334	n/a	WORD	2382667	wordpools/wasnorm_wordpool_576.txt	LTP229	ltpFR2	2	21	SEAFOOD	1260	n/a	n/a	0	0	0
4768.15	n/a	WORD	2384075	wordpools/wasnorm_wordpool_576.txt	LTP229	ltpFR2	2	21	CRAB	397	n/a	n/a	0	0	0
4770.642	n/a	WORD	2385321	wordpools/wasnorm_wordpool_576.txt	LTP229	ltpFR2	2	21	PUDDING	1139	n/a	n/a	0	0	0
4773.432	n/a	WORD	2386716	wordpools/wasnorm_wordpool_576.txt	LTP229	ltpFR2	2	21	INMATE	738	n/a	n/a	0	0	0
4775.962	n/a	WORD	2387981	wordpools/wasnorm_wordpool_576.txt	LTP229	ltpFR2	2	21	DRAGON	492	n/a	n/a	0	0	0
4778.484	n/a	WORD	2389242	wordpools/wasnorm_wordpool_576.txt	LTP229	ltpFR2	2	21	FOOTBALL	591	n/a	n/a	0	0	0
4781.184	n/a	WORD	2390592	wordpools/wasnorm_wordpool_576.txt	LTP229	ltpFR2	2	21	STALLION	1369	n/a	n/a	0	0	0
4783.838	n/a	WORD	2391919	wordpools/wasnorm_wordpool_576.txt	LTP229	ltpFR2	2	21	CATCHER	258	n/a	n/a	0	0	0
4786.32	n/a	WORD	2393160	wordpools/wasnorm_wordpool_576.txt	LTP229	ltpFR2	2	21	UMPIRE	1535	n/a	n/a	0	0	0
4788.878	n/a	WORD	2394439	wordpools/wasnorm_wordpool_576.txt	LTP229	ltpFR2	2	21	EAGLE	512	n/a	n/a	0	0	0
4791.572	n/a	WORD	2395786	wordpools/wasnorm_wordpool_576.txt	LTP229	ltpFR2	2	21	OUTFIT	988	n/a	n/a	0	0	0
4794.066	n/a	WORD	2397033	wordpools/wasnorm_wordpool_576.txt	LTP229	ltpFR2	2	21	BUREAU	199	n/a	n/a	0	0	0
4796.556	n/a	WORD	2398278	wordpools/wasnorm_wordpool_576.txt	LTP229	ltpFR2	2	21	PLAYGROUND	1087	n/a	n/a	0	0	0
4798.166	n/a	START	2399083	n/a	LTP229	ltpFR2	2	n/a	n/a	n/a	31	n/a	n/a	n/a	n/a
4799.322	n/a	DISTRACTOR	2399661	n/a	LTP229	ltpFR2	2	21	n/a	n/a	n/a	n/a	0	0	0
4799.336	n/a	PROB	2399668	n/a	LTP229	ltpFR2	2	n/a	n/a	n/a	31	12	1	3	8
4801.388	n/a	PROB	2400694	n/a	LTP229	ltpFR2	2	n/a	n/a	n/a	31	18	7	5	6
4805.208	n/a	PROB	2402604	n/a	LTP229	ltpFR2	2	n/a	n/a	n/a	31	18	4	8	4
4807.294	n/a	PROB	2403647	n/a	LTP229	ltpFR2	2	n/a	n/a	n/a	31	11	8	2	1
4808.582	n/a	PROB	2404291	n/a	LTP229	ltpFR2	2	n/a	n/a	n/a	31	10	8	1	1
4810.238	n/a	PROB	2405119	n/a	LTP229	ltpFR2	2	n/a	n/a	n/a	31	13	1	8	4
4812.134	n/a	PROB	2406067	n/a	LTP229	ltpFR2	2	n/a	n/a	n/a	31	15	2	9	4
4814.07	n/a	PROB	2407035	n/a	LTP229	ltpFR2	2	n/a	n/a	n/a	31	12	3	1	8
4816.312	n/a	PROB	2408156	n/a	LTP229	ltpFR2	2	n/a	n/a	n/a	31	10	3	5	2
4818.12	n/a	PROB	2409060	n/a	LTP229	ltpFR2	2	n/a	n/a	n/a	31	13	6	6	1
4820.178	n/a	PROB	2410089	n/a	LTP229	ltpFR2	2	n/a	n/a	n/a	31	17	1	7	9
4821.884	n/a	STOP	2410942	n/a	LTP229	ltpFR2	2	n/a	n/a	n/a	31	n/a	n/a	n/a	n/a
4823.98	n/a	REC_START	2411990	n/a	LTP229	ltpFR2	2	21	n/a	n/a	n/a	n/a	0	0	0
4825.492	n/a	REC_WORD	2412746	wordpools/wasnorm_wordpool_576.txt	LTP229	ltpFR2	2	21	FOOTBALL	591	n/a	n/a	0	0	0
4827.942	n/a	REC_WORD	2413971	wordpools/wasnorm_wordpool_576.txt	LTP229	ltpFR2	2	21	CATCHER	258	n/a	n/a	0	0	0
