mstime	trial_type	stim_file	subject	experiment	session	trial	task	item_name	item_num	recog_resp	recog_conf	resp	color_r	color_g	color_b	case	font
0	SESS_START	n/a	LTP337	ltpFR	2	n/a	n/a	n/a	n/a	1	3	n/a	n/a	n/a	n/a	n/a	n/a
114628	WORD	wordpools/wasnorm_wordpool_less_exclusions.txt	LTP337	ltpFR	2	1	0	COLESLAW	344	1	4	1	0.57763671875	0.412841796875	1	upper	amplitud.ttf
118709	WORD	wordpools/wasnorm_wordpool_less_exclusions.txt	LTP337	ltpFR	2	1	0	KITCHEN	778	n/a	2	1	0.57763671875	0.412841796875	1	upper	amplitud.ttf
122556	WORD	wordpools/wasnorm_wordpool_less_exclusions.txt	LTP337	ltpFR	2	1	0	CHIMNEY	301	n/a	n/a	1	0.57763671875	0.412841796875	1	upper	amplitud.ttf
126571	WORD	wordpools/wasnorm_wordpool_less_exclusions.txt	LTP337	ltpFR	2	1	0	SQUIRREL	1362	n/a	n/a	0	0.57763671875	0.412841796875	1	upper	amplitud.ttf
130670	WORD	wordpools/wasnorm_wordpool_less_exclusions.txt	LTP337	ltpFR	2	1	1	LOFT	840	n/a	n/a	0	0.422607421875	0.5869140625	0	lower	zerothre.ttf
134800	WORD	wordpools/wasnorm_wordpool_less_exclusions.txt	LTP337	ltpFR	2	1	1	SHOWER	1296	n/a	n/a	0	0.422607421875	0.5869140625	0	lower	zerothre.ttf
138666	WORD	wordpools/wasnorm_wordpool_less_exclusions.txt	LTP337	ltpFR	2	1	1	BLOUSE	139	n/a	n/a	0	0.422607421875	0.5869140625	0	lower	zerothre.ttf
142647	WORD	wordpools/wasnorm_wordpool_less_exclusions.txt	LTP337	ltpFR	2	1	1	SOFTBALL	1343	n/a	n/a	0	0.422607421875	0.5869140625	0	lower	zerothre.ttf
146629	WORD	wordpools/wasnorm_wordpool_less_exclusions.txt	LTP337	ltpFR	2	1	1	FOOTBALL	591	n/a	n/a	0	0.422607421875	0.5869140625	0	lower	zerothre.ttf
150526	WORD	wordpools/wasnorm_wordpool_less_exclusions.txt	LTP337	ltpFR	2	1	1	VITAMIN	1574	n/a	n/a	0	0.422607421875	0.5869140625	0	lower	zerothre.ttf
154724	WORD	wordpools/wasnorm_wordpool_less_exclusions.txt	LTP337	ltpFR	2	1	0	FLY	586	n/a	n/a	0	0.57763671875	0.412841796875	1	upper	amplitud.ttf
158905	WORD	wordpools/wasnorm_wordpool_less_exclusions.txt	LTP337	ltpFR	2	1	0	FUGITIVE	612	n/a	n/a	1	0.57763671875	0.412841796875	1	upper	amplitud.ttf
162836	WORD	wordpools/wasnorm_wordpool_less_exclusions.txt	LTP337	ltpFR	2	1	0	SUSPECT	1415	n/a	n/a	1	0.57763671875	0.412841796875	1	upper	amplitud.ttf
166719	WORD	wordpools/wasnorm_wordpool_less_exclusions.txt	LTP337	ltpFR	2	1	0	PRAIRIE	1118	n/a	n/a	1	0.57763671875	0.412841796875	1	upper	amplitud.ttf
170766	WORD	wordpools/wasnorm_wordpool_less_exclusions.txt	LTP337	ltpFR	2	1	1	INSECT	740	n/a	n/a	0	0.422607421875	0.5869140625	0	lower	zerothre.ttf
174747	WORD	wordpools/wasnorm_wordpool_less_exclusions.txt	LTP337	ltpFR	2	1	1	PECAN	1036	n/a	n/a	1	0.422607421875	0.5869140625	0	lower	zerothre.ttf
180595	REC_START	n/a	LTP337	ltpFR	2	1	n/a	n/a	n/a	n/a	n/a	n/a	n/a	n/a	n/a	n/a	n/a
181164	REC_WORD	wordpools/wasnorm_wordpool_less_exclusions.txt	LTP337	ltpFR	2	1	1	PECAN	1036	n/a	n/a	1	n/a	n/a	n/a	n/a	n/a
182053	REC_WORD	wordpools/wasnorm_wordpool_less_exclusions.txt	LTP337	ltpFR	2	1	0	FLY	586	n/a	n/a	0	n/a	n/a	n/a	n/a	n/a
183363	REC_WORD	wordpools/wasnorm_wordpool_less_exclusions.txt	LTP337	ltpFR	2	1	0	COLESLAW	344	n/a	n/a	1	n/a	n/a	n/a	n/a	n/a
184267	REC_WORD	wordpools/wasnorm_wordpool_less_exclusions.txt	LTP337	ltpFR	2	1	0	PRAIRIE	1118	n/a	n/a	1	n/a	n/a	n/a	n/a	n/a
184931	REC_WORD	wordpools/wasnorm_wordpool_less_exclusions.txt	LTP337	ltpFR	2	1	0	FUGITIVE	612	n/a	n/a	1	n/a	n/a	n/a	n/a	n/a
194821	REC_WORD	wordpools/wasnorm_wordpool_less_exclusions.txt	LTP337	ltpFR	2	1	0	SUSPECT	1415	n/a	n/a	1	n/a	n/a	n/a	n/a	n/a
205272	REC_WORD	wordpools/wasnorm_wordpool_less_exclusions.txt	LTP337	ltpFR	2	1	1	INSECT	740	n/a	n/a	0	n/a	n/a	n/a	n/a	n/a
264186	WORD	wordpools/wasnorm_wordpool_less_exclusions.txt	LTP337	ltpFR	2	2	1	BAY	102	n/a	n/a	0	0.422607421875	0.5869140625	0	lower	zerothre.ttf
268400	WORD	wordpools/wasnorm_wordpool_less_exclusions.txt	LTP337	ltpFR	2	2	1	QUILT	1151	n/a	n/a	0	0.422607421875	0.5869140625	0	lower	zerothre.ttf
272616	WORD	wordpools/wasnorm_wordpool_less_exclusions.txt	LTP337	ltpFR	2	2	0	SPARROW	1347	n/a	n/a	0	0.57763671875	0.412841796875	1	upper	amplitud.ttf
276614	WORD	wordpools/wasnorm_wordpool_less_exclusions.txt	LTP337	ltpFR	2	2	0	UNDERWEAR	1537	n/a	n/a	0	0.57763671875	0.412841796875	1	upper	amplitud.ttf
280629	WORD	wordpools/wasnorm_wordpool_less_exclusions.txt	LTP337	ltpFR	2	2	0	SUMMIT	1405	n/a	n/a	0	0.57763671875	0.412841796875	1	upper	amplitud.ttf
284660	WORD	wordpools/wasnorm_wordpool_less_exclusions.txt	LTP337	ltpFR	2	2	0	SHED	1277	n/a	n/a	1	0.57763671875	0.412841796875	1	upper	amplitud.ttf
288641	WORD	wordpools/wasnorm_wordpool_less_exclusions.txt	LTP337	ltpFR	2	2	0	BEARD	107	n/a	n/a	1	0.57763671875	0.412841796875	1	upper	amplitud.ttf
292706	WORD	wordpools/wasnorm_wordpool_less_exclusions.txt	LTP337	ltpFR	2	2	0	ROOT	1210	n/a	n/a	0	0.57763671875	0.412841796875	1	upper	amplitud.ttf
296704	WORD	wordpools/wasnorm_wordpool_less_exclusions.txt	LTP337	ltpFR	2	2	1	FOREST	593	n/a	n/a	1	0.422607421875	0.5869140625	0	lower	zerothre.ttf
300652	WORD	wordpools/wasnorm_wordpool_less_exclusions.txt	LTP337	ltpFR	2	2	1	CUFF	423	n/a	n/a	0	0.422607421875	0.5869140625	0	lower	zerothre.ttf
304516	WORD	wordpools/wasnorm_wordpool_less_exclusions.txt	LTP337	ltpFR	2	2	1	ROBIN	1199	n/a	n/a	0	0.422607421875	0.5869140625	0	lower	zerothre.ttf
308431	WORD	wordpools/wasnorm_wordpool_less_exclusions.txt	LTP337	ltpFR	2	2	1	BATHTUB	100	n/a	n/a	0	0.422607421875	0.5869140625	0	lower	zerothre.ttf
312595	WORD	wordpools/wasnorm_wordpool_less_exclusions.txt	LTP337	ltpFR	2	2	1	STALLION	1369	n/a	n/a	0	0.422607421875	0.5869140625	0	lower	zerothre.ttf
316526	WORD	wordpools/wasnorm_wordpool_less_exclusions.txt	LTP337	ltpFR	2	2	1	RULER	1216	n/a	n/a	0	0.422607421875	0.5869140625	0	lower	zerothre.ttf
320508	WORD	wordpools/wasnorm_wordpool_less_exclusions.txt	LTP337	ltpFR	2	2	0	BASKETBALL	96	n/a	n/a	0	0.57763671875	0.412841796875	1	upper	amplitud.ttf
324556	WORD	wordpools/wasnorm_wordpool_less_exclusions.txt	LTP337	ltpFR	2	2	0	ATHLETE	52	n/a	n/a	1	0.57763671875	0.412841796875	1	upper	amplitud.ttf
330337	REC_START	n/a	LTP337	ltpFR	2	2	n/a	n/a	n/a	n/a	n/a	n/a	n/a	n/a	n/a	n/a	n/a
330929	REC_WORD	wordpools/wasnorm_wordpool_less_exclusions.txt	LTP337	ltpFR	2	2	0	BASKETBALL	96	n/a	n/a	0	n/a	n/a	n/a	n/a	n/a
331600	REC_WORD	wordpools/wasnorm_wordpool_less_exclusions.txt	LTP337	ltpFR	2	2	0	ATHLETE	52	n/a	n/a	1	n/a	n/a	n/a	n/a	n/a
332342	REC_WORD	wordpools/wasnorm_wordpool_less_exclusions.txt	LTP337	ltpFR	2	2	1	STALLION	1369	n/a	n/a	0	n/a	n/a	n/a	n/a	n/a
333760	REC_WORD	wordpools/wasnorm_wordpool_less_exclusions.txt	LTP337	ltpFR	2	2	1	FOREST	593	n/a	n/a	1	n/a	n/a	n/a	n/a	n/a
381117	REC_WORD	wordpools/wasnorm_wordpool_less_exclusions.txt	LTP337	ltpFR	2	2	1	PECAN	1036	n/a	n/a	1	n/a	n/a	n/a	n/a	n/a
389405	REC_WORD	wordpools/wasnorm_wordpool_less_exclusions.txt	LTP337	ltpFR	2	2	0	BEARD	107	n/a	n/a	1	n/a	n/a	n/a	n/a	n/a
422324	WORD	wordpools/wasnorm_wordpool_less_exclusions.txt	LTP337	ltpFR	2	3	0	TREAT	1501	n/a	n/a	0	0.57763671875	0.412841796875	1	upper	amplitud.ttf
426338	WORD	wordpools/wasnorm_wordpool_less_exclusions.txt	LTP337	ltpFR	2	3	0	LIEUTENANT	818	n/a	n/a	1	0.57763671875	0.412841796875	1	upper	amplitud.ttf
430537	WORD	wordpools/wasnorm_wordpool_less_exclusions.txt	LTP337	ltpFR	2	3	0	UNIFORM	1539	n/a	n/a	0	0.57763671875	0.412841796875	1	upper	amplitud.ttf
434518	WORD	wordpools/wasnorm_wordpool_less_exclusions.txt	LTP337	ltpFR	2	3	0	CROWN	415	n/a	n/a	0	0.57763671875	0.412841796875	1	upper	amplitud.ttf
438416	WORD	wordpools/wasnorm_wordpool_less_exclusions.txt	LTP337	ltpFR	2	3	0	SWING	1421	n/a	n/a	1	0.57763671875	0.412841796875	1	upper	amplitud.ttf
442347	WORD	wordpools/wasnorm_wordpool_less_exclusions.txt	LTP337	ltpFR	2	3	0	ACTOR	5	n/a	n/a	1	0.57763671875	0.412841796875	1	upper	amplitud.ttf
446229	WORD	wordpools/wasnorm_wordpool_less_exclusions.txt	LTP337	ltpFR	2	3	0	TART	1436	n/a	n/a	0	0.57763671875	0.412841796875	1	upper	amplitud.ttf
450227	WORD	wordpools/wasnorm_wordpool_less_exclusions.txt	LTP337	ltpFR	2	3	0	PAN	1008	n/a	n/a	0	0.57763671875	0.412841796875	1	upper	amplitud.ttf
454275	WORD	wordpools/wasnorm_wordpool_less_exclusions.txt	LTP337	ltpFR	2	3	0	CHECK	284	n/a	n/a	0	0.57763671875	0.412841796875	1	upper	amplitud.ttf
458156	WORD	wordpools/wasnorm_wordpool_less_exclusions.txt	LTP337	ltpFR	2	3	0	SNEAKER	1334	n/a	n/a	0	0.57763671875	0.412841796875	1	upper	amplitud.ttf
462221	WORD	wordpools/wasnorm_wordpool_less_exclusions.txt	LTP337	ltpFR	2	3	0	MAP	865	n/a	n/a	0	0.57763671875	0.412841796875	1	upper	amplitud.ttf
466052	WORD	wordpools/wasnorm_wordpool_less_exclusions.txt	LTP337	ltpFR	2	3	0	GENERAL	630	n/a	n/a	1	0.57763671875	0.412841796875	1	upper	amplitud.ttf
470100	WORD	wordpools/wasnorm_wordpool_less_exclusions.txt	LTP337	ltpFR	2	3	0	SHOELACE	1289	n/a	n/a	0	0.57763671875	0.412841796875	1	upper	amplitud.ttf
474315	WORD	wordpools/wasnorm_wordpool_less_exclusions.txt	LTP337	ltpFR	2	3	0	HEN	703	n/a	n/a	0	0.57763671875	0.412841796875	1	upper	amplitud.ttf
478213	WORD	wordpools/wasnorm_wordpool_less_exclusions.txt	LTP337	ltpFR	2	3	0	CHICK	296	n/a	n/a	0	0.57763671875	0.412841796875	1	upper	amplitud.ttf
482411	WORD	wordpools/wasnorm_wordpool_less_exclusions.txt	LTP337	ltpFR	2	3	0	EARTH	515	n/a	n/a	0	0.57763671875	0.412841796875	1	upper	amplitud.ttf
488425	REC_START	n/a	LTP337	ltpFR	2	3	n/a	n/a	n/a	n/a	n/a	n/a	n/a	n/a	n/a	n/a	n/a
488965	REC_WORD	wordpools/wasnorm_wordpool_less_exclusions.txt	LTP337	ltpFR	2	3	0	GENERAL	630	n/a	n/a	1	n/a	n/a	n/a	n/a	n/a
489709	REC_WORD	wordpools/wasnorm_wordpool_less_exclusions.txt	LTP337	ltpFR	2	3	0	SWING	1421	n/a	n/a	1	n/a	n/a	n/a	n/a	n/a
490806	REC_WORD	wordpools/wasnorm_wordpool_less_exclusions.txt	LTP337	ltpFR	2	3	0	ACTOR	5	n/a	n/a	1	n/a	n/a	n/a	n/a	n/a
491888	REC_WORD	wordpools/wasnorm_wordpool_less_exclusions.txt	LTP337	ltpFR	2	3	0	EARTH	515	n/a	n/a	0	n/a	n/a	n/a	n/a	n/a
517439	REC_WORD	wordpools/wasnorm_wordpool_less_exclusions.txt	LTP337	ltpFR	2	3	n/a	MAT	877	n/a	n/a	n/a	n/a	n/a	n/a	n/a	n/a
518466	REC_WORD	wordpools/wasnorm_wordpool_less_exclusions.txt	LTP337	ltpFR	2	3	0	MAP	865	n/a	n/a	0	n/a	n/a	n/a	n/a	n/a
527496	REC_WORD	wordpools/wasnorm_wordpool_less_exclusions.txt	LTP337	ltpFR	2	3	0	TART	1436	n/a	n/a	0	n/a	n/a	n/a	n/a	n/a
579996	WORD	wordpools/wasnorm_wordpool_less_exclusions.txt	LTP337	ltpFR	2	4	1	JUG	762	n/a	n/a	0	0.422607421875	0.5869140625	0	lower	zerothre.ttf
584044	WORD	wordpools/wasnorm_wordpool_less_exclusions.txt	LTP337	ltpFR	2	4	1	STRAW	1390	n/a	n/a	0	0.422607421875	0.5869140625	0	lower	zerothre.ttf
587875	WORD	wordpools/wasnorm_wordpool_less_exclusions.txt	LTP337	ltpFR	2	4	1	BRICK	172	n/a	n/a	0	0.422607421875	0.5869140625	0	lower	zerothre.ttf
591990	WORD	wordpools/wasnorm_wordpool_less_exclusions.txt	LTP337	ltpFR	2	4	1	HIKER	708	n/a	n/a	1	0.422607421875	0.5869140625	0	lower	zerothre.ttf
595888	WORD	wordpools/wasnorm_wordpool_less_exclusions.txt	LTP337	ltpFR	2	4	1	CANYON	235	n/a	n/a	0	0.422607421875	0.5869140625	0	lower	zerothre.ttf
599852	WORD	wordpools/wasnorm_wordpool_less_exclusions.txt	LTP337	ltpFR	2	4	1	STORE	1387	n/a	n/a	0	0.422607421875	0.5869140625	0	lower	zerothre.ttf
604034	WORD	wordpools/wasnorm_wordpool_less_exclusions.txt	LTP337	ltpFR	2	4	1	MONSTER	912	n/a	n/a	1	0.422607421875	0.5869140625	0	lower	zerothre.ttf
607898	WORD	wordpools/wasnorm_wordpool_less_exclusions.txt	LTP337	ltpFR	2	4	1	DOG	480	n/a	n/a	1	0.422607421875	0.5869140625	0	lower	zerothre.ttf
612063	WORD	wordpools/wasnorm_wordpool_less_exclusions.txt	LTP337	ltpFR	2	4	1	ANIMAL	23	n/a	n/a	1	0.422607421875	0.5869140625	0	lower	zerothre.ttf
616011	WORD	wordpools/wasnorm_wordpool_less_exclusions.txt	LTP337	ltpFR	2	4	1	CHAUFFEUR	283	n/a	n/a	1	0.422607421875	0.5869140625	0	lower	zerothre.ttf
619909	WORD	wordpools/wasnorm_wordpool_less_exclusions.txt	LTP337	ltpFR	2	4	1	FIDDLE	561	n/a	n/a	0	0.422607421875	0.5869140625	0	lower	zerothre.ttf
624057	WORD	wordpools/wasnorm_wordpool_less_exclusions.txt	LTP337	ltpFR	2	4	1	MOAT	903	n/a	n/a	0	0.422607421875	0.5869140625	0	lower	zerothre.ttf
628238	WORD	wordpools/wasnorm_wordpool_less_exclusions.txt	LTP337	ltpFR	2	4	1	SPOOL	1356	n/a	n/a	0	0.422607421875	0.5869140625	0	lower	zerothre.ttf
632286	WORD	wordpools/wasnorm_wordpool_less_exclusions.txt	LTP337	ltpFR	2	4	1	OPERA	978	n/a	n/a	1	0.422607421875	0.5869140625	0	lower	zerothre.ttf
636184	WORD	wordpools/wasnorm_wordpool_less_exclusions.txt	LTP337	ltpFR	2	4	1	BATTERY	101	n/a	n/a	0	0.422607421875	0.5869140625	0	lower	zerothre.ttf
640366	WORD	wordpools/wasnorm_wordpool_less_exclusions.txt	LTP337	ltpFR	2	4	1	ARMY	39	n/a	n/a	1	0.422607421875	0.5869140625	0	lower	zerothre.ttf
646281	REC_START	n/a	LTP337	ltpFR	2	4	n/a	n/a	n/a	n/a	n/a	n/a	n/a	n/a	n/a	n/a	n/a
648232	REC_WORD	wordpools/wasnorm_wordpool_less_exclusions.txt	LTP337	ltpFR	2	4	1	ARMY	39	n/a	n/a	1	n/a	n/a	n/a	n/a	n/a
652337	REC_WORD	wordpools/wasnorm_wordpool_less_exclusions.txt	LTP337	ltpFR	2	4	1	HIKER	708	n/a	n/a	1	n/a	n/a	n/a	n/a	n/a
653668	REC_WORD	wordpools/wasnorm_wordpool_less_exclusions.txt	LTP337	ltpFR	2	4	1	CANYON	235	n/a	n/a	0	n/a	n/a	n/a	n/a	n/a
663623	REC_WORD	wordpools/wasnorm_wordpool_less_exclusions.txt	LTP337	ltpFR	2	4	n/a	ORCHESTRA	981	n/a	n/a	n/a	n/a	n/a	n/a	n/a	n/a
737317	WORD	wordpools/wasnorm_wordpool_less_exclusions.txt	LTP337	ltpFR	2	5	1	BALLERINA	74	n/a	n/a	0	0.422607421875	0.5869140625	0	lower	zerothre.ttf
741399	WORD	wordpools/wasnorm_wordpool_less_exclusions.txt	LTP337	ltpFR	2	5	1	COUCH	386	n/a	n/a	0	0.422607421875	0.5869140625	0	lower	zerothre.ttf
745230	WORD	wordpools/wasnorm_wordpool_less_exclusions.txt	LTP337	ltpFR	2	5	1	CHAIR	274	n/a	n/a	0	0.422607421875	0.5869140625	0	lower	zerothre.ttf
749328	WORD	wordpools/wasnorm_wordpool_less_exclusions.txt	LTP337	ltpFR	2	5	1	SCENERY	1247	n/a	n/a	1	0.422607421875	0.5869140625	0	lower	zerothre.ttf
753443	WORD	wordpools/wasnorm_wordpool_less_exclusions.txt	LTP337	ltpFR	2	5	1	CAMEL	223	n/a	n/a	1	0.422607421875	0.5869140625	0	lower	zerothre.ttf
757591	WORD	wordpools/wasnorm_wordpool_less_exclusions.txt	LTP337	ltpFR	2	5	1	BARLEY	88	n/a	n/a	0	0.422607421875	0.5869140625	0	lower	zerothre.ttf
761489	WORD	wordpools/wasnorm_wordpool_less_exclusions.txt	LTP337	ltpFR	2	5	1	ACTRESS	6	n/a	n/a	1	0.422607421875	0.5869140625	0	lower	zerothre.ttf
765453	WORD	wordpools/wasnorm_wordpool_less_exclusions.txt	LTP337	ltpFR	2	5	1	FROST	609	n/a	n/a	0	0.422607421875	0.5869140625	0	lower	zerothre.ttf
769435	WORD	wordpools/wasnorm_wordpool_less_exclusions.txt	LTP337	ltpFR	2	5	1	CREAM	402	n/a	n/a	0	0.422607421875	0.5869140625	0	lower	zerothre.ttf
773566	WORD	wordpools/wasnorm_wordpool_less_exclusions.txt	LTP337	ltpFR	2	5	1	SALESMAN	1225	n/a	n/a	1	0.422607421875	0.5869140625	0	lower	zerothre.ttf
777581	WORD	wordpools/wasnorm_wordpool_less_exclusions.txt	LTP337	ltpFR	2	5	1	CLOTHES	327	n/a	n/a	0	0.422607421875	0.5869140625	0	lower	zerothre.ttf
781729	WORD	wordpools/wasnorm_wordpool_less_exclusions.txt	LTP337	ltpFR	2	5	1	PERSONNEL	1053	n/a	n/a	1	0.422607421875	0.5869140625	0	lower	zerothre.ttf
785893	WORD	wordpools/wasnorm_wordpool_less_exclusions.txt	LTP337	ltpFR	2	5	1	BANQUET	86	n/a	n/a	1	0.422607421875	0.5869140625	0	lower	zerothre.ttf
789891	WORD	wordpools/wasnorm_wordpool_less_exclusions.txt	LTP337	ltpFR	2	5	1	WHEAT	1602	n/a	n/a	0	0.422607421875	0.5869140625	0	lower	zerothre.ttf
793873	WORD	wordpools/wasnorm_wordpool_less_exclusions.txt	LTP337	ltpFR	2	5	1	ASH	44	n/a	n/a	0	0.422607421875	0.5869140625	0	lower	zerothre.ttf
797871	WORD	wordpools/wasnorm_wordpool_less_exclusions.txt	LTP337	ltpFR	2	5	1	GANG	619	n/a	n/a	0	0.422607421875	0.5869140625	0	lower	zerothre.ttf
803768	REC_START	n/a	LTP337	ltpFR	2	5	n/a	n/a	n/a	n/a	n/a	n/a	n/a	n/a	n/a	n/a	n/a
804067	REC_WORD	wordpools/wasnorm_wordpool_less_exclusions.txt	LTP337	ltpFR	2	5	1	ASH	44	n/a	n/a	0	n/a	n/a	n/a	n/a	n/a
804938	REC_WORD	wordpools/wasnorm_wordpool_less_exclusions.txt	LTP337	ltpFR	2	5	1	GANG	619	n/a	n/a	0	n/a	n/a	n/a	n/a	n/a
805696	REC_WORD	wordpools/wasnorm_wordpool_less_exclusions.txt	LTP337	ltpFR	2	5	1	PERSONNEL	1053	n/a	n/a	1	n/a	n/a	n/a	n/a	n/a
806862	REC_WORD	wordpools/wasnorm_wordpool_less_exclusions.txt	LTP337	ltpFR	2	5	1	SALESMAN	1225	n/a	n/a	1	n/a	n/a	n/a	n/a	n/a
810413	REC_WORD	wordpools/wasnorm_wordpool_less_exclusions.txt	LTP337	ltpFR	2	5	n/a	ORCHESTRA	981	n/a	n/a	n/a	n/a	n/a	n/a	n/a	n/a
811413	REC_WORD_VV	wordpools/wasnorm_wordpool_less_exclusions.txt	LTP337	ltpFR	2	5	n/a	<>	-1	n/a	n/a	n/a	n/a	n/a	n/a	n/a	n/a
811533	REC_WORD_VV	wordpools/wasnorm_wordpool_less_exclusions.txt	LTP337	ltpFR	2	5	n/a	<>	-1	n/a	n/a	n/a	n/a	n/a	n/a	n/a	n/a
812069	REC_WORD	wordpools/wasnorm_wordpool_less_exclusions.txt	LTP337	ltpFR	2	5	1	BANQUET	86	n/a	n/a	1	n/a	n/a	n/a	n/a	n/a
889325	WORD	wordpools/wasnorm_wordpool_less_exclusions.txt	LTP337	ltpFR	2	6	-1	GRAPE	654	n/a	n/a	-1	1.0	1.0	1	upper	Verdana.ttf
893507	WORD	wordpools/wasnorm_wordpool_less_exclusions.txt	LTP337	ltpFR	2	6	-1	OATS	968	n/a	n/a	-1	1.0	1.0	1	upper	Verdana.ttf
897355	WORD	wordpools/wasnorm_wordpool_less_exclusions.txt	LTP337	ltpFR	2	6	-1	ZOO	1637	n/a	n/a	-1	1.0	1.0	1	upper	Verdana.ttf
901253	WORD	wordpools/wasnorm_wordpool_less_exclusions.txt	LTP337	ltpFR	2	6	-1	GROUND	666	n/a	n/a	-1	1.0	1.0	1	upper	Verdana.ttf
905284	WORD	wordpools/wasnorm_wordpool_less_exclusions.txt	LTP337	ltpFR	2	6	-1	CARPET	247	n/a	n/a	-1	1.0	1.0	1	upper	Verdana.ttf
909349	WORD	wordpools/wasnorm_wordpool_less_exclusions.txt	LTP337	ltpFR	2	6	-1	COOLER	375	n/a	n/a	-1	1.0	1.0	1	upper	Verdana.ttf
913280	WORD	wordpools/wasnorm_wordpool_less_exclusions.txt	LTP337	ltpFR	2	6	-1	TIDE	1465	n/a	n/a	-1	1.0	1.0	1	upper	Verdana.ttf
917361	WORD	wordpools/wasnorm_wordpool_less_exclusions.txt	LTP337	ltpFR	2	6	-1	THICKET	1455	n/a	n/a	-1	1.0	1.0	1	upper	Verdana.ttf
921526	WORD	wordpools/wasnorm_wordpool_less_exclusions.txt	LTP337	ltpFR	2	6	-1	DANDRUFF	439	n/a	n/a	-1	1.0	1.0	1	upper	Verdana.ttf
925708	WORD	wordpools/wasnorm_wordpool_less_exclusions.txt	LTP337	ltpFR	2	6	-1	WALRUS	1585	n/a	n/a	-1	1.0	1.0	1	upper	Verdana.ttf
929838	WORD	wordpools/wasnorm_wordpool_less_exclusions.txt	LTP337	ltpFR	2	6	-1	BLUEBERRY	140	n/a	n/a	-1	1.0	1.0	1	upper	Verdana.ttf
933936	WORD	wordpools/wasnorm_wordpool_less_exclusions.txt	LTP337	ltpFR	2	6	-1	FRUIT	610	n/a	n/a	-1	1.0	1.0	1	upper	Verdana.ttf
937851	WORD	wordpools/wasnorm_wordpool_less_exclusions.txt	LTP337	ltpFR	2	6	-1	LIVER	833	n/a	n/a	-1	1.0	1.0	1	upper	Verdana.ttf
942066	WORD	wordpools/wasnorm_wordpool_less_exclusions.txt	LTP337	ltpFR	2	6	-1	BISCUIT	130	n/a	n/a	-1	1.0	1.0	1	upper	Verdana.ttf
946030	WORD	wordpools/wasnorm_wordpool_less_exclusions.txt	LTP337	ltpFR	2	6	-1	OPERATOR	979	n/a	n/a	-1	1.0	1.0	1	upper	Verdana.ttf
950128	WORD	wordpools/wasnorm_wordpool_less_exclusions.txt	LTP337	ltpFR	2	6	-1	HEART	697	n/a	n/a	-1	1.0	1.0	1	upper	Verdana.ttf
956043	REC_START	n/a	LTP337	ltpFR	2	6	n/a	n/a	n/a	n/a	n/a	n/a	n/a	n/a	n/a	n/a	n/a
956415	REC_WORD	wordpools/wasnorm_wordpool_less_exclusions.txt	LTP337	ltpFR	2	6	-1	BISCUIT	130	n/a	n/a	-1	n/a	n/a	n/a	n/a	n/a
957102	REC_WORD	wordpools/wasnorm_wordpool_less_exclusions.txt	LTP337	ltpFR	2	6	-1	THICKET	1455	n/a	n/a	-1	n/a	n/a	n/a	n/a	n/a
957836	REC_WORD	wordpools/wasnorm_wordpool_less_exclusions.txt	LTP337	ltpFR	2	6	-1	FRUIT	610	n/a	n/a	-1	n/a	n/a	n/a	n/a	n/a
959061	REC_WORD	wordpools/wasnorm_wordpool_less_exclusions.txt	LTP337	ltpFR	2	6	n/a	BLACK	-1	n/a	n/a	n/a	n/a	n/a	n/a	n/a	n/a
959881	REC_WORD	wordpools/wasnorm_wordpool_less_exclusions.txt	LTP337	ltpFR	2	6	-1	BLUEBERRY	140	n/a	n/a	-1	n/a	n/a	n/a	n/a	n/a
961712	REC_WORD	wordpools/wasnorm_wordpool_less_exclusions.txt	LTP337	ltpFR	2	6	-1	GRAPE	654	n/a	n/a	-1	n/a	n/a	n/a	n/a	n/a
963212	REC_WORD	wordpools/wasnorm_wordpool_less_exclusions.txt	LTP337	ltpFR	2	6	-1	LIVER	833	n/a	n/a	-1	n/a	n/a	n/a	n/a	n/a
1011546	REC_WORD	wordpools/wasnorm_wordpool_less_exclusions.txt	LTP337	ltpFR	2	6	-1	OATS	968	n/a	n/a	-1	n/a	n/a	n/a	n/a	n/a
1013343	REC_WORD	wordpools/wasnorm_wordpool_less_exclusions.txt	LTP337	ltpFR	2	6	-1	GROUND	666	n/a	n/a	-1	n/a	n/a	n/a	n/a	n/a
1014829	REC_WORD	wordpools/wasnorm_wordpool_less_exclusions.txt	LTP337	ltpFR	2	6	-1	CARPET	247	n/a	n/a	-1	n/a	n/a	n/a	n/a	n/a
1037402	WORD	wordpools/wasnorm_wordpool_less_exclusions.txt	LTP337	ltpFR	2	7	0	LETTUCE	814	n/a	n/a	0	0.57763671875	0.412841796875	1	upper	amplitud.ttf
1041533	WORD	wordpools/wasnorm_wordpool_less_exclusions.txt	LTP337	ltpFR	2	7	0	DAD	433	n/a	n/a	1	0.57763671875	0.412841796875	1	upper	amplitud.ttf
1045682	WORD	wordpools/wasnorm_wordpool_less_exclusions.txt	LTP337	ltpFR	2	7	0	FATHER	554	n/a	n/a	1	0.57763671875	0.412841796875	1	upper	amplitud.ttf
1049895	WORD	wordpools/wasnorm_wordpool_less_exclusions.txt	LTP337	ltpFR	2	7	1	KIDNEY	776	n/a	n/a	1	0.422607421875	0.5869140625	0	lower	zerothre.ttf
1054010	WORD	wordpools/wasnorm_wordpool_less_exclusions.txt	LTP337	ltpFR	2	7	1	VEIN	1554	n/a	n/a	1	0.422607421875	0.5869140625	0	lower	zerothre.ttf
1057875	WORD	wordpools/wasnorm_wordpool_less_exclusions.txt	LTP337	ltpFR	2	7	0	FLASK	576	n/a	n/a	0	0.57763671875	0.412841796875	1	upper	amplitud.ttf
1061707	WORD	wordpools/wasnorm_wordpool_less_exclusions.txt	LTP337	ltpFR	2	7	0	KITE	779	n/a	n/a	1	0.57763671875	0.412841796875	1	upper	amplitud.ttf
1065571	WORD	wordpools/wasnorm_wordpool_less_exclusions.txt	LTP337	ltpFR	2	7	1	GRASSHOPPER	656	n/a	n/a	1	0.422607421875	0.5869140625	0	lower	zerothre.ttf
1069769	WORD	wordpools/wasnorm_wordpool_less_exclusions.txt	LTP337	ltpFR	2	7	1	FEAST	556	n/a	n/a	0	0.422607421875	0.5869140625	0	lower	zerothre.ttf
1073600	WORD	wordpools/wasnorm_wordpool_less_exclusions.txt	LTP337	ltpFR	2	7	1	OVAL	990	n/a	n/a	0	0.422607421875	0.5869140625	0	lower	zerothre.ttf
1077732	WORD	wordpools/wasnorm_wordpool_less_exclusions.txt	LTP337	ltpFR	2	7	1	WATERFALL	1595	n/a	n/a	0	0.422607421875	0.5869140625	0	lower	zerothre.ttf
1081596	WORD	wordpools/wasnorm_wordpool_less_exclusions.txt	LTP337	ltpFR	2	7	1	SALIVA	1226	n/a	n/a	0	0.422607421875	0.5869140625	0	lower	zerothre.ttf
1085712	WORD	wordpools/wasnorm_wordpool_less_exclusions.txt	LTP337	ltpFR	2	7	1	KETCHUP	771	n/a	n/a	0	0.422607421875	0.5869140625	0	lower	zerothre.ttf
1089559	WORD	wordpools/wasnorm_wordpool_less_exclusions.txt	LTP337	ltpFR	2	7	0	BIOLOGIST	128	n/a	n/a	1	0.57763671875	0.412841796875	1	upper	amplitud.ttf
1093590	WORD	wordpools/wasnorm_wordpool_less_exclusions.txt	LTP337	ltpFR	2	7	0	PARROT	1015	n/a	n/a	1	0.57763671875	0.412841796875	1	upper	amplitud.ttf
1097738	WORD	wordpools/wasnorm_wordpool_less_exclusions.txt	LTP337	ltpFR	2	7	0	SNORKEL	1336	n/a	n/a	0	0.57763671875	0.412841796875	1	upper	amplitud.ttf
1103386	REC_START	n/a	LTP337	ltpFR	2	7	n/a	n/a	n/a	n/a	n/a	n/a	n/a	n/a	n/a	n/a	n/a
1103816	REC_WORD	wordpools/wasnorm_wordpool_less_exclusions.txt	LTP337	ltpFR	2	7	0	DAD	433	n/a	n/a	1	n/a	n/a	n/a	n/a	n/a
1104595	REC_WORD	wordpools/wasnorm_wordpool_less_exclusions.txt	LTP337	ltpFR	2	7	0	FATHER	554	n/a	n/a	1	n/a	n/a	n/a	n/a	n/a
1105346	REC_WORD	wordpools/wasnorm_wordpool_less_exclusions.txt	LTP337	ltpFR	2	7	0	SNORKEL	1336	n/a	n/a	0	n/a	n/a	n/a	n/a	n/a
1106515	REC_WORD	wordpools/wasnorm_wordpool_less_exclusions.txt	LTP337	ltpFR	2	7	0	BIOLOGIST	128	n/a	n/a	1	n/a	n/a	n/a	n/a	n/a
1107515	REC_WORD_VV	wordpools/wasnorm_wordpool_less_exclusions.txt	LTP337	ltpFR	2	7	n/a	<>	-1	n/a	n/a	n/a	n/a	n/a	n/a	n/a	n/a
1109956	REC_WORD	wordpools/wasnorm_wordpool_less_exclusions.txt	LTP337	ltpFR	2	7	1	GRASSHOPPER	656	n/a	n/a	1	n/a	n/a	n/a	n/a	n/a
1110981	REC_WORD	wordpools/wasnorm_wordpool_less_exclusions.txt	LTP337	ltpFR	2	7	1	KIDNEY	776	n/a	n/a	1	n/a	n/a	n/a	n/a	n/a
1113584	REC_WORD	wordpools/wasnorm_wordpool_less_exclusions.txt	LTP337	ltpFR	2	7	1	SALIVA	1226	n/a	n/a	0	n/a	n/a	n/a	n/a	n/a
1204852	WORD	wordpools/wasnorm_wordpool_less_exclusions.txt	LTP337	ltpFR	2	8	1	NUT	965	n/a	n/a	0	0.422607421875	0.5869140625	0	lower	zerothre.ttf
1208833	WORD	wordpools/wasnorm_wordpool_less_exclusions.txt	LTP337	ltpFR	2	8	1	CHERRY	293	n/a	n/a	0	0.422607421875	0.5869140625	0	lower	zerothre.ttf
1212931	WORD	wordpools/wasnorm_wordpool_less_exclusions.txt	LTP337	ltpFR	2	8	0	TURKEY	1520	n/a	n/a	0	0.57763671875	0.412841796875	1	upper	amplitud.ttf
1217062	WORD	wordpools/wasnorm_wordpool_less_exclusions.txt	LTP337	ltpFR	2	8	0	RIVER	1194	n/a	n/a	1	0.57763671875	0.412841796875	1	upper	amplitud.ttf
1220977	WORD	wordpools/wasnorm_wordpool_less_exclusions.txt	LTP337	ltpFR	2	8	0	BUFFALO	186	n/a	n/a	1	0.57763671875	0.412841796875	1	upper	amplitud.ttf
1224959	WORD	wordpools/wasnorm_wordpool_less_exclusions.txt	LTP337	ltpFR	2	8	0	DINER	467	n/a	n/a	1	0.57763671875	0.412841796875	1	upper	amplitud.ttf
1229123	WORD	wordpools/wasnorm_wordpool_less_exclusions.txt	LTP337	ltpFR	2	8	0	VINEGAR	1569	n/a	n/a	1	0.57763671875	0.412841796875	1	upper	amplitud.ttf
1233271	WORD	wordpools/wasnorm_wordpool_less_exclusions.txt	LTP337	ltpFR	2	8	0	PIER	1063	n/a	n/a	1	0.57763671875	0.412841796875	1	upper	amplitud.ttf
1237269	WORD	wordpools/wasnorm_wordpool_less_exclusions.txt	LTP337	ltpFR	2	8	1	LITERATURE	831	n/a	n/a	0	0.422607421875	0.5869140625	0	lower	zerothre.ttf
1241434	WORD	wordpools/wasnorm_wordpool_less_exclusions.txt	LTP337	ltpFR	2	8	1	WELL	1600	n/a	n/a	0	0.422607421875	0.5869140625	0	lower	zerothre.ttf
1245598	WORD	wordpools/wasnorm_wordpool_less_exclusions.txt	LTP337	ltpFR	2	8	0	POOL	1103	n/a	n/a	1	0.57763671875	0.412841796875	1	upper	amplitud.ttf
1249697	WORD	wordpools/wasnorm_wordpool_less_exclusions.txt	LTP337	ltpFR	2	8	0	CARAVAN	242	n/a	n/a	1	0.57763671875	0.412841796875	1	upper	amplitud.ttf
1253861	WORD	wordpools/wasnorm_wordpool_less_exclusions.txt	LTP337	ltpFR	2	8	1	DRIVER	499	n/a	n/a	1	0.422607421875	0.5869140625	0	lower	zerothre.ttf
1257876	WORD	wordpools/wasnorm_wordpool_less_exclusions.txt	LTP337	ltpFR	2	8	1	AUTHOR	61	n/a	n/a	1	0.422607421875	0.5869140625	0	lower	zerothre.ttf
1261708	WORD	wordpools/wasnorm_wordpool_less_exclusions.txt	LTP337	ltpFR	2	8	1	HIGHWAY	707	n/a	n/a	0	0.422607421875	0.5869140625	0	lower	zerothre.ttf
1265605	WORD	wordpools/wasnorm_wordpool_less_exclusions.txt	LTP337	ltpFR	2	8	1	TICK	1463	n/a	n/a	1	0.422607421875	0.5869140625	0	lower	zerothre.ttf
1271587	REC_START	n/a	LTP337	ltpFR	2	8	n/a	n/a	n/a	n/a	n/a	n/a	n/a	n/a	n/a	n/a	n/a
1271943	REC_WORD	wordpools/wasnorm_wordpool_less_exclusions.txt	LTP337	ltpFR	2	8	1	TICK	1463	n/a	n/a	1	n/a	n/a	n/a	n/a	n/a
1272626	REC_WORD	wordpools/wasnorm_wordpool_less_exclusions.txt	LTP337	ltpFR	2	8	1	HIGHWAY	707	n/a	n/a	0	n/a	n/a	n/a	n/a	n/a
1274109	REC_WORD	wordpools/wasnorm_wordpool_less_exclusions.txt	LTP337	ltpFR	2	8	0	POOL	1103	n/a	n/a	1	n/a	n/a	n/a	n/a	n/a
1275155	REC_WORD	wordpools/wasnorm_wordpool_less_exclusions.txt	LTP337	ltpFR	2	8	0	CARAVAN	242	n/a	n/a	1	n/a	n/a	n/a	n/a	n/a
1278798	REC_WORD	wordpools/wasnorm_wordpool_less_exclusions.txt	LTP337	ltpFR	2	8	n/a	BAIN	-1	n/a	n/a	n/a	n/a	n/a	n/a	n/a	n/a
1297688	REC_WORD	wordpools/wasnorm_wordpool_less_exclusions.txt	LTP337	ltpFR	2	8	1	CHERRY	293	n/a	n/a	0	n/a	n/a	n/a	n/a	n/a
1298956	REC_WORD	wordpools/wasnorm_wordpool_less_exclusions.txt	LTP337	ltpFR	2	8	1	NUT	965	n/a	n/a	0	n/a	n/a	n/a	n/a	n/a
1347164	REST_REWET	n/a	LTP337	ltpFR	2	8	n/a	n/a	n/a	n/a	n/a	n/a	n/a	n/a	n/a	n/a	n/a
1650464	WORD	wordpools/wasnorm_wordpool_less_exclusions.txt	LTP337	ltpFR	2	9	0	CREW	406	n/a	n/a	0	0.57763671875	0.412841796875	1	upper	amplitud.ttf
1654462	WORD	wordpools/wasnorm_wordpool_less_exclusions.txt	LTP337	ltpFR	2	9	0	ANCHOR	21	n/a	n/a	1	0.57763671875	0.412841796875	1	upper	amplitud.ttf
1658310	WORD	wordpools/wasnorm_wordpool_less_exclusions.txt	LTP337	ltpFR	2	9	0	DOUGH	489	n/a	n/a	1	0.57763671875	0.412841796875	1	upper	amplitud.ttf
1662491	WORD	wordpools/wasnorm_wordpool_less_exclusions.txt	LTP337	ltpFR	2	9	0	WALL	1582	n/a	n/a	1	0.57763671875	0.412841796875	1	upper	amplitud.ttf
1666589	WORD	wordpools/wasnorm_wordpool_less_exclusions.txt	LTP337	ltpFR	2	9	0	MAYONNAISE	880	n/a	n/a	0	0.57763671875	0.412841796875	1	upper	amplitud.ttf
1670454	WORD	wordpools/wasnorm_wordpool_less_exclusions.txt	LTP337	ltpFR	2	9	0	PAWN	1030	n/a	n/a	0	0.57763671875	0.412841796875	1	upper	amplitud.ttf
1674435	WORD	wordpools/wasnorm_wordpool_less_exclusions.txt	LTP337	ltpFR	2	9	1	HOSE	720	n/a	n/a	0	0.422607421875	0.5869140625	0	lower	zerothre.ttf
1678600	WORD	wordpools/wasnorm_wordpool_less_exclusions.txt	LTP337	ltpFR	2	9	1	SQUID	1361	n/a	n/a	1	0.422607421875	0.5869140625	0	lower	zerothre.ttf
1682448	WORD	wordpools/wasnorm_wordpool_less_exclusions.txt	LTP337	ltpFR	2	9	0	COOK	372	n/a	n/a	1	0.57763671875	0.412841796875	1	upper	amplitud.ttf
1686363	WORD	wordpools/wasnorm_wordpool_less_exclusions.txt	LTP337	ltpFR	2	9	0	MALL	860	n/a	n/a	1	0.57763671875	0.412841796875	1	upper	amplitud.ttf
1690394	WORD	wordpools/wasnorm_wordpool_less_exclusions.txt	LTP337	ltpFR	2	9	1	ANTEATER	26	n/a	n/a	1	0.422607421875	0.5869140625	0	lower	zerothre.ttf
1694459	WORD	wordpools/wasnorm_wordpool_less_exclusions.txt	LTP337	ltpFR	2	9	1	BISON	131	n/a	n/a	1	0.422607421875	0.5869140625	0	lower	zerothre.ttf
1698540	WORD	wordpools/wasnorm_wordpool_less_exclusions.txt	LTP337	ltpFR	2	9	1	DAUGHTER	442	n/a	n/a	1	0.422607421875	0.5869140625	0	lower	zerothre.ttf
1702656	WORD	wordpools/wasnorm_wordpool_less_exclusions.txt	LTP337	ltpFR	2	9	1	THIGH	1457	n/a	n/a	1	0.422607421875	0.5869140625	0	lower	zerothre.ttf
1706620	WORD	wordpools/wasnorm_wordpool_less_exclusions.txt	LTP337	ltpFR	2	9	1	CONTRACT	368	n/a	n/a	0	0.422607421875	0.5869140625	0	lower	zerothre.ttf
1710484	WORD	wordpools/wasnorm_wordpool_less_exclusions.txt	LTP337	ltpFR	2	9	1	RUG	1215	n/a	n/a	0	0.422607421875	0.5869140625	0	lower	zerothre.ttf
1716198	REC_START	n/a	LTP337	ltpFR	2	9	n/a	n/a	n/a	n/a	n/a	n/a	n/a	n/a	n/a	n/a	n/a
1716577	REC_WORD	wordpools/wasnorm_wordpool_less_exclusions.txt	LTP337	ltpFR	2	9	1	THIGH	1457	n/a	n/a	1	n/a	n/a	n/a	n/a	n/a
1717541	REC_WORD	wordpools/wasnorm_wordpool_less_exclusions.txt	LTP337	ltpFR	2	9	1	ANTEATER	26	n/a	n/a	1	n/a	n/a	n/a	n/a	n/a
1718733	REC_WORD	wordpools/wasnorm_wordpool_less_exclusions.txt	LTP337	ltpFR	2	9	1	RUG	1215	n/a	n/a	0	n/a	n/a	n/a	n/a	n/a
1731850	REC_WORD	wordpools/wasnorm_wordpool_less_exclusions.txt	LTP337	ltpFR	2	9	1	DAUGHTER	442	n/a	n/a	1	n/a	n/a	n/a	n/a	n/a
1733271	REC_WORD	wordpools/wasnorm_wordpool_less_exclusions.txt	LTP337	ltpFR	2	9	1	BISON	131	n/a	n/a	1	n/a	n/a	n/a	n/a	n/a
1768337	REC_WORD	wordpools/wasnorm_wordpool_less_exclusions.txt	LTP337	ltpFR	2	9	0	WALL	1582	n/a	n/a	1	n/a	n/a	n/a	n/a	n/a
1776057	REC_WORD	wordpools/wasnorm_wordpool_less_exclusions.txt	LTP337	ltpFR	2	9	0	TURKEY	1520	n/a	n/a	0	n/a	n/a	n/a	n/a	n/a
1795309	WORD	wordpools/wasnorm_wordpool_less_exclusions.txt	LTP337	ltpFR	2	10	-1	LOBBY	836	n/a	n/a	-1	1.0	1.0	1	upper	Verdana.ttf
1799406	WORD	wordpools/wasnorm_wordpool_less_exclusions.txt	LTP337	ltpFR	2	10	-1	PORTRAIT	1111	n/a	n/a	-1	1.0	1.0	1	upper	Verdana.ttf
1803521	WORD	wordpools/wasnorm_wordpool_less_exclusions.txt	LTP337	ltpFR	2	10	-1	TOURIST	1488	n/a	n/a	-1	1.0	1.0	1	upper	Verdana.ttf
1807552	WORD	wordpools/wasnorm_wordpool_less_exclusions.txt	LTP337	ltpFR	2	10	-1	CITRUS	313	n/a	n/a	-1	1.0	1.0	1	upper	Verdana.ttf
1811401	WORD	wordpools/wasnorm_wordpool_less_exclusions.txt	LTP337	ltpFR	2	10	-1	GATE	625	n/a	n/a	-1	1.0	1.0	1	upper	Verdana.ttf
1815549	WORD	wordpools/wasnorm_wordpool_less_exclusions.txt	LTP337	ltpFR	2	10	-1	WAVE	1596	n/a	n/a	-1	1.0	1.0	1	upper	Verdana.ttf
1819447	WORD	wordpools/wasnorm_wordpool_less_exclusions.txt	LTP337	ltpFR	2	10	-1	BUCKET	184	n/a	n/a	-1	1.0	1.0	1	upper	Verdana.ttf
1823646	WORD	wordpools/wasnorm_wordpool_less_exclusions.txt	LTP337	ltpFR	2	10	-1	SHEET	1279	n/a	n/a	-1	1.0	1.0	1	upper	Verdana.ttf
1827726	WORD	wordpools/wasnorm_wordpool_less_exclusions.txt	LTP337	ltpFR	2	10	-1	GLACIER	638	n/a	n/a	-1	1.0	1.0	1	upper	Verdana.ttf
1831675	WORD	wordpools/wasnorm_wordpool_less_exclusions.txt	LTP337	ltpFR	2	10	-1	VASE	1549	n/a	n/a	-1	1.0	1.0	1	upper	Verdana.ttf
1835522	WORD	wordpools/wasnorm_wordpool_less_exclusions.txt	LTP337	ltpFR	2	10	-1	DAISY	435	n/a	n/a	-1	1.0	1.0	1	upper	Verdana.ttf
1839570	WORD	wordpools/wasnorm_wordpool_less_exclusions.txt	LTP337	ltpFR	2	10	-1	SAUCER	1237	n/a	n/a	-1	1.0	1.0	1	upper	Verdana.ttf
1843734	WORD	wordpools/wasnorm_wordpool_less_exclusions.txt	LTP337	ltpFR	2	10	-1	MILK	895	n/a	n/a	-1	1.0	1.0	1	upper	Verdana.ttf
1847849	WORD	wordpools/wasnorm_wordpool_less_exclusions.txt	LTP337	ltpFR	2	10	-1	PRUNE	1134	n/a	n/a	-1	1.0	1.0	1	upper	Verdana.ttf
1852047	WORD	wordpools/wasnorm_wordpool_less_exclusions.txt	LTP337	ltpFR	2	10	-1	DOORBELL	487	n/a	n/a	-1	1.0	1.0	1	upper	Verdana.ttf
1855878	WORD	wordpools/wasnorm_wordpool_less_exclusions.txt	LTP337	ltpFR	2	10	-1	CATTLE	261	n/a	n/a	-1	1.0	1.0	1	upper	Verdana.ttf
1861826	REC_START	n/a	LTP337	ltpFR	2	10	n/a	n/a	n/a	n/a	n/a	n/a	n/a	n/a	n/a	n/a	n/a
1862127	REC_WORD	wordpools/wasnorm_wordpool_less_exclusions.txt	LTP337	ltpFR	2	10	-1	MILK	895	n/a	n/a	-1	n/a	n/a	n/a	n/a	n/a
1862737	REC_WORD	wordpools/wasnorm_wordpool_less_exclusions.txt	LTP337	ltpFR	2	10	-1	PRUNE	1134	n/a	n/a	-1	n/a	n/a	n/a	n/a	n/a
1863506	REC_WORD	wordpools/wasnorm_wordpool_less_exclusions.txt	LTP337	ltpFR	2	10	-1	DOORBELL	487	n/a	n/a	-1	n/a	n/a	n/a	n/a	n/a
1864217	REC_WORD	wordpools/wasnorm_wordpool_less_exclusions.txt	LTP337	ltpFR	2	10	-1	CATTLE	261	n/a	n/a	-1	n/a	n/a	n/a	n/a	n/a
1864781	REC_WORD	wordpools/wasnorm_wordpool_less_exclusions.txt	LTP337	ltpFR	2	10	-1	CITRUS	313	n/a	n/a	-1	n/a	n/a	n/a	n/a	n/a
1870013	REC_WORD	wordpools/wasnorm_wordpool_less_exclusions.txt	LTP337	ltpFR	2	10	-1	COOLER	375	n/a	n/a	-1	n/a	n/a	n/a	n/a	n/a
1881947	REC_WORD	wordpools/wasnorm_wordpool_less_exclusions.txt	LTP337	ltpFR	2	10	-1	LOBBY	836	n/a	n/a	-1	n/a	n/a	n/a	n/a	n/a
1915256	REC_WORD	wordpools/wasnorm_wordpool_less_exclusions.txt	LTP337	ltpFR	2	10	n/a	COOL	-1	n/a	n/a	n/a	n/a	n/a	n/a	n/a	n/a
1946084	WORD	wordpools/wasnorm_wordpool_less_exclusions.txt	LTP337	ltpFR	2	11	0	POLYESTER	1100	n/a	n/a	0	0.57763671875	0.412841796875	1	upper	amplitud.ttf
1950248	WORD	wordpools/wasnorm_wordpool_less_exclusions.txt	LTP337	ltpFR	2	11	0	PLAID	1080	n/a	n/a	0	0.57763671875	0.412841796875	1	upper	amplitud.ttf
1954096	WORD	wordpools/wasnorm_wordpool_less_exclusions.txt	LTP337	ltpFR	2	11	0	DIRECTOR	471	n/a	n/a	1	0.57763671875	0.412841796875	1	upper	amplitud.ttf
1958161	WORD	wordpools/wasnorm_wordpool_less_exclusions.txt	LTP337	ltpFR	2	11	0	ESCALATOR	539	n/a	n/a	1	0.57763671875	0.412841796875	1	upper	amplitud.ttf
1962226	WORD	wordpools/wasnorm_wordpool_less_exclusions.txt	LTP337	ltpFR	2	11	0	BED	110	n/a	n/a	1	0.57763671875	0.412841796875	1	upper	amplitud.ttf
1966090	WORD	wordpools/wasnorm_wordpool_less_exclusions.txt	LTP337	ltpFR	2	11	0	FLESH	579	n/a	n/a	1	0.57763671875	0.412841796875	1	upper	amplitud.ttf
1969938	WORD	wordpools/wasnorm_wordpool_less_exclusions.txt	LTP337	ltpFR	2	11	0	STAIRS	1367	n/a	n/a	1	0.57763671875	0.412841796875	1	upper	amplitud.ttf
1974036	WORD	wordpools/wasnorm_wordpool_less_exclusions.txt	LTP337	ltpFR	2	11	0	SPY	1360	n/a	n/a	0	0.57763671875	0.412841796875	1	upper	amplitud.ttf
1977918	WORD	wordpools/wasnorm_wordpool_less_exclusions.txt	LTP337	ltpFR	2	11	0	PERISCOPE	1050	n/a	n/a	0	0.57763671875	0.412841796875	1	upper	amplitud.ttf
1981866	WORD	wordpools/wasnorm_wordpool_less_exclusions.txt	LTP337	ltpFR	2	11	0	BLANKET	135	n/a	n/a	1	0.57763671875	0.412841796875	1	upper	amplitud.ttf
1985831	WORD	wordpools/wasnorm_wordpool_less_exclusions.txt	LTP337	ltpFR	2	11	0	ROBE	1198	n/a	n/a	1	0.57763671875	0.412841796875	1	upper	amplitud.ttf
1989729	WORD	wordpools/wasnorm_wordpool_less_exclusions.txt	LTP337	ltpFR	2	11	0	OUTFIT	988	n/a	n/a	0	0.57763671875	0.412841796875	1	upper	amplitud.ttf
1993727	WORD	wordpools/wasnorm_wordpool_less_exclusions.txt	LTP337	ltpFR	2	11	0	RECEIPT	1173	n/a	n/a	0	0.57763671875	0.412841796875	1	upper	amplitud.ttf
1997891	WORD	wordpools/wasnorm_wordpool_less_exclusions.txt	LTP337	ltpFR	2	11	0	ANTLER	29	n/a	n/a	1	0.57763671875	0.412841796875	1	upper	amplitud.ttf
2001923	WORD	wordpools/wasnorm_wordpool_less_exclusions.txt	LTP337	ltpFR	2	11	0	COPIER	377	n/a	n/a	1	0.57763671875	0.412841796875	1	upper	amplitud.ttf
2006004	WORD	wordpools/wasnorm_wordpool_less_exclusions.txt	LTP337	ltpFR	2	11	0	HAMPER	682	n/a	n/a	1	0.57763671875	0.412841796875	1	upper	amplitud.ttf
2011602	REC_START	n/a	LTP337	ltpFR	2	11	n/a	n/a	n/a	n/a	n/a	n/a	n/a	n/a	n/a	n/a	n/a
2011900	REC_WORD	wordpools/wasnorm_wordpool_less_exclusions.txt	LTP337	ltpFR	2	11	0	COPIER	377	n/a	n/a	1	n/a	n/a	n/a	n/a	n/a
2012995	REC_WORD	wordpools/wasnorm_wordpool_less_exclusions.txt	LTP337	ltpFR	2	11	0	HAMPER	682	n/a	n/a	1	n/a	n/a	n/a	n/a	n/a
2016728	REC_WORD	wordpools/wasnorm_wordpool_less_exclusions.txt	LTP337	ltpFR	2	11	0	ANTLER	29	n/a	n/a	1	n/a	n/a	n/a	n/a	n/a
2017668	REC_WORD	wordpools/wasnorm_wordpool_less_exclusions.txt	LTP337	ltpFR	2	11	0	RECEIPT	1173	n/a	n/a	0	n/a	n/a	n/a	n/a	n/a
2098726	WORD	wordpools/wasnorm_wordpool_less_exclusions.txt	LTP337	ltpFR	2	12	0	LUNCH	849	n/a	n/a	0	0.57763671875	0.412841796875	1	upper	amplitud.ttf
2102724	WORD	wordpools/wasnorm_wordpool_less_exclusions.txt	LTP337	ltpFR	2	12	0	BEAN	105	n/a	n/a	0	0.57763671875	0.412841796875	1	upper	amplitud.ttf
2106787	WORD	wordpools/wasnorm_wordpool_less_exclusions.txt	LTP337	ltpFR	2	12	0	LOUNGE	845	n/a	n/a	1	0.57763671875	0.412841796875	1	upper	amplitud.ttf
2110769	WORD	wordpools/wasnorm_wordpool_less_exclusions.txt	LTP337	ltpFR	2	12	0	EAGLE	512	n/a	n/a	1	0.57763671875	0.412841796875	1	upper	amplitud.ttf
2114783	WORD	wordpools/wasnorm_wordpool_less_exclusions.txt	LTP337	ltpFR	2	12	0	SCISSORS	1250	n/a	n/a	0	0.57763671875	0.412841796875	1	upper	amplitud.ttf
2118616	WORD	wordpools/wasnorm_wordpool_less_exclusions.txt	LTP337	ltpFR	2	12	0	RADISH	1158	n/a	n/a	0	0.57763671875	0.412841796875	1	upper	amplitud.ttf
2122680	WORD	wordpools/wasnorm_wordpool_less_exclusions.txt	LTP337	ltpFR	2	12	0	SALAD	1224	n/a	n/a	0	0.57763671875	0.412841796875	1	upper	amplitud.ttf
2126577	WORD	wordpools/wasnorm_wordpool_less_exclusions.txt	LTP337	ltpFR	2	12	0	LODGE	839	n/a	n/a	0	0.57763671875	0.412841796875	1	upper	amplitud.ttf
2130475	WORD	wordpools/wasnorm_wordpool_less_exclusions.txt	LTP337	ltpFR	2	12	0	JAW	751	n/a	n/a	0	0.57763671875	0.412841796875	1	upper	amplitud.ttf
2134691	WORD	wordpools/wasnorm_wordpool_less_exclusions.txt	LTP337	ltpFR	2	12	0	CELERY	266	n/a	n/a	0	0.57763671875	0.412841796875	1	upper	amplitud.ttf
2138605	WORD	wordpools/wasnorm_wordpool_less_exclusions.txt	LTP337	ltpFR	2	12	0	MUSHROOM	934	n/a	n/a	0	0.57763671875	0.412841796875	1	upper	amplitud.ttf
2142553	WORD	wordpools/wasnorm_wordpool_less_exclusions.txt	LTP337	ltpFR	2	12	0	TOOTHPASTE	1483	n/a	n/a	0	0.57763671875	0.412841796875	1	upper	amplitud.ttf
2146551	WORD	wordpools/wasnorm_wordpool_less_exclusions.txt	LTP337	ltpFR	2	12	0	SAW	1239	n/a	n/a	0	0.57763671875	0.412841796875	1	upper	amplitud.ttf
2150666	WORD	wordpools/wasnorm_wordpool_less_exclusions.txt	LTP337	ltpFR	2	12	0	INN	739	n/a	n/a	1	0.57763671875	0.412841796875	1	upper	amplitud.ttf
2154631	WORD	wordpools/wasnorm_wordpool_less_exclusions.txt	LTP337	ltpFR	2	12	0	ROPE	1211	n/a	n/a	0	0.57763671875	0.412841796875	1	upper	amplitud.ttf
2158562	WORD	wordpools/wasnorm_wordpool_less_exclusions.txt	LTP337	ltpFR	2	12	0	GOOSE	649	n/a	n/a	1	0.57763671875	0.412841796875	1	upper	amplitud.ttf
2164226	REC_START	n/a	LTP337	ltpFR	2	12	n/a	n/a	n/a	n/a	n/a	n/a	n/a	n/a	n/a	n/a	n/a
2164611	REC_WORD	wordpools/wasnorm_wordpool_less_exclusions.txt	LTP337	ltpFR	2	12	0	LOUNGE	845	n/a	n/a	1	n/a	n/a	n/a	n/a	n/a
2166358	REC_WORD	wordpools/wasnorm_wordpool_less_exclusions.txt	LTP337	ltpFR	2	12	0	INN	739	n/a	n/a	1	n/a	n/a	n/a	n/a	n/a
2167686	REC_WORD	wordpools/wasnorm_wordpool_less_exclusions.txt	LTP337	ltpFR	2	12	0	GOOSE	649	n/a	n/a	1	n/a	n/a	n/a	n/a	n/a
2173512	REC_WORD	wordpools/wasnorm_wordpool_less_exclusions.txt	LTP337	ltpFR	2	12	0	TOOTHPASTE	1483	n/a	n/a	0	n/a	n/a	n/a	n/a	n/a
2174681	REC_WORD	wordpools/wasnorm_wordpool_less_exclusions.txt	LTP337	ltpFR	2	12	0	CELERY	266	n/a	n/a	0	n/a	n/a	n/a	n/a	n/a
2247217	WORD	wordpools/wasnorm_wordpool_less_exclusions.txt	LTP337	ltpFR	2	13	-1	BLACKBOARD	133	n/a	n/a	-1	1.0	1.0	1	upper	Verdana.ttf
2251199	WORD	wordpools/wasnorm_wordpool_less_exclusions.txt	LTP337	ltpFR	2	13	-1	KNAPSACK	783	n/a	n/a	-1	1.0	1.0	1	upper	Verdana.ttf
2255080	WORD	wordpools/wasnorm_wordpool_less_exclusions.txt	LTP337	ltpFR	2	13	-1	BRIEFCASE	175	n/a	n/a	-1	1.0	1.0	1	upper	Verdana.ttf
2259128	WORD	wordpools/wasnorm_wordpool_less_exclusions.txt	LTP337	ltpFR	2	13	-1	DETECTIVE	454	n/a	n/a	-1	1.0	1.0	1	upper	Verdana.ttf
2262993	WORD	wordpools/wasnorm_wordpool_less_exclusions.txt	LTP337	ltpFR	2	13	-1	FLUTE	585	n/a	n/a	-1	1.0	1.0	1	upper	Verdana.ttf
2266991	WORD	wordpools/wasnorm_wordpool_less_exclusions.txt	LTP337	ltpFR	2	13	-1	CUP	424	n/a	n/a	-1	1.0	1.0	1	upper	Verdana.ttf
2270989	WORD	wordpools/wasnorm_wordpool_less_exclusions.txt	LTP337	ltpFR	2	13	-1	ROOMMATE	1207	n/a	n/a	-1	1.0	1.0	1	upper	Verdana.ttf
2275154	WORD	wordpools/wasnorm_wordpool_less_exclusions.txt	LTP337	ltpFR	2	13	-1	KITTEN	780	n/a	n/a	-1	1.0	1.0	1	upper	Verdana.ttf
2279201	WORD	wordpools/wasnorm_wordpool_less_exclusions.txt	LTP337	ltpFR	2	13	-1	LEOPARD	812	n/a	n/a	-1	1.0	1.0	1	upper	Verdana.ttf
2283333	WORD	wordpools/wasnorm_wordpool_less_exclusions.txt	LTP337	ltpFR	2	13	-1	STONE	1385	n/a	n/a	-1	1.0	1.0	1	upper	Verdana.ttf
2287431	WORD	wordpools/wasnorm_wordpool_less_exclusions.txt	LTP337	ltpFR	2	13	-1	TRACTOR	1493	n/a	n/a	-1	1.0	1.0	1	upper	Verdana.ttf
2291346	WORD	wordpools/wasnorm_wordpool_less_exclusions.txt	LTP337	ltpFR	2	13	-1	NOTEBOOK	959	n/a	n/a	-1	1.0	1.0	1	upper	Verdana.ttf
2295210	WORD	wordpools/wasnorm_wordpool_less_exclusions.txt	LTP337	ltpFR	2	13	-1	POET	1095	n/a	n/a	-1	1.0	1.0	1	upper	Verdana.ttf
2299341	WORD	wordpools/wasnorm_wordpool_less_exclusions.txt	LTP337	ltpFR	2	13	-1	FRIEND	606	n/a	n/a	-1	1.0	1.0	1	upper	Verdana.ttf
2303356	WORD	wordpools/wasnorm_wordpool_less_exclusions.txt	LTP337	ltpFR	2	13	-1	BUGLE	189	n/a	n/a	-1	1.0	1.0	1	upper	Verdana.ttf
2307321	WORD	wordpools/wasnorm_wordpool_less_exclusions.txt	LTP337	ltpFR	2	13	-1	CARTON	251	n/a	n/a	-1	1.0	1.0	1	upper	Verdana.ttf
2313169	REC_START	n/a	LTP337	ltpFR	2	13	n/a	n/a	n/a	n/a	n/a	n/a	n/a	n/a	n/a	n/a	n/a
2314137	REC_WORD	wordpools/wasnorm_wordpool_less_exclusions.txt	LTP337	ltpFR	2	13	-1	CARTON	251	n/a	n/a	-1	n/a	n/a	n/a	n/a	n/a
2314928	REC_WORD	wordpools/wasnorm_wordpool_less_exclusions.txt	LTP337	ltpFR	2	13	-1	BUGLE	189	n/a	n/a	-1	n/a	n/a	n/a	n/a	n/a
2315856	REC_WORD	wordpools/wasnorm_wordpool_less_exclusions.txt	LTP337	ltpFR	2	13	-1	ROOMMATE	1207	n/a	n/a	-1	n/a	n/a	n/a	n/a	n/a
2316928	REC_WORD	wordpools/wasnorm_wordpool_less_exclusions.txt	LTP337	ltpFR	2	13	-1	FRIEND	606	n/a	n/a	-1	n/a	n/a	n/a	n/a	n/a
2321028	REC_WORD	wordpools/wasnorm_wordpool_less_exclusions.txt	LTP337	ltpFR	2	13	-1	FLUTE	585	n/a	n/a	-1	n/a	n/a	n/a	n/a	n/a
2322164	REC_WORD	wordpools/wasnorm_wordpool_less_exclusions.txt	LTP337	ltpFR	2	13	-1	BRIEFCASE	175	n/a	n/a	-1	n/a	n/a	n/a	n/a	n/a
2324455	REC_WORD	wordpools/wasnorm_wordpool_less_exclusions.txt	LTP337	ltpFR	2	13	-1	KNAPSACK	783	n/a	n/a	-1	n/a	n/a	n/a	n/a	n/a
2404056	WORD	wordpools/wasnorm_wordpool_less_exclusions.txt	LTP337	ltpFR	2	14	1	GARDEN	623	n/a	n/a	0	0.422607421875	0.5869140625	0	lower	zerothre.ttf
2407904	WORD	wordpools/wasnorm_wordpool_less_exclusions.txt	LTP337	ltpFR	2	14	1	BLOSSOM	138	n/a	n/a	0	0.422607421875	0.5869140625	0	lower	zerothre.ttf
2411752	WORD	wordpools/wasnorm_wordpool_less_exclusions.txt	LTP337	ltpFR	2	14	1	MARKET	871	n/a	n/a	0	0.422607421875	0.5869140625	0	lower	zerothre.ttf
2415850	WORD	wordpools/wasnorm_wordpool_less_exclusions.txt	LTP337	ltpFR	2	14	1	DASHBOARD	441	n/a	n/a	0	0.422607421875	0.5869140625	0	lower	zerothre.ttf
2419832	WORD	wordpools/wasnorm_wordpool_less_exclusions.txt	LTP337	ltpFR	2	14	1	BEAST	108	n/a	n/a	0	0.422607421875	0.5869140625	0	lower	zerothre.ttf
2423846	WORD	wordpools/wasnorm_wordpool_less_exclusions.txt	LTP337	ltpFR	2	14	1	DEER	444	n/a	n/a	0	0.422607421875	0.5869140625	0	lower	zerothre.ttf
2427712	WORD	wordpools/wasnorm_wordpool_less_exclusions.txt	LTP337	ltpFR	2	14	1	TUBE	1516	n/a	n/a	0	0.422607421875	0.5869140625	0	lower	zerothre.ttf
2431627	WORD	wordpools/wasnorm_wordpool_less_exclusions.txt	LTP337	ltpFR	2	14	1	BROOK	177	n/a	n/a	0	0.422607421875	0.5869140625	0	lower	zerothre.ttf
2435625	WORD	wordpools/wasnorm_wordpool_less_exclusions.txt	LTP337	ltpFR	2	14	1	PELICAN	1039	n/a	n/a	1	0.422607421875	0.5869140625	0	lower	zerothre.ttf
2439706	WORD	wordpools/wasnorm_wordpool_less_exclusions.txt	LTP337	ltpFR	2	14	1	MAGAZINE	853	n/a	n/a	1	0.422607421875	0.5869140625	0	lower	zerothre.ttf
2443803	WORD	wordpools/wasnorm_wordpool_less_exclusions.txt	LTP337	ltpFR	2	14	1	KNOB	787	n/a	n/a	0	0.422607421875	0.5869140625	0	lower	zerothre.ttf
2447901	WORD	wordpools/wasnorm_wordpool_less_exclusions.txt	LTP337	ltpFR	2	14	1	GUARDIAN	668	n/a	n/a	1	0.422607421875	0.5869140625	0	lower	zerothre.ttf
2451982	WORD	wordpools/wasnorm_wordpool_less_exclusions.txt	LTP337	ltpFR	2	14	1	CABINET	212	n/a	n/a	0	0.422607421875	0.5869140625	0	lower	zerothre.ttf
2455914	WORD	wordpools/wasnorm_wordpool_less_exclusions.txt	LTP337	ltpFR	2	14	1	CAB	209	n/a	n/a	1	0.422607421875	0.5869140625	0	lower	zerothre.ttf
2460128	WORD	wordpools/wasnorm_wordpool_less_exclusions.txt	LTP337	ltpFR	2	14	1	WRITER	1627	n/a	n/a	1	0.422607421875	0.5869140625	0	lower	zerothre.ttf
2464026	WORD	wordpools/wasnorm_wordpool_less_exclusions.txt	LTP337	ltpFR	2	14	1	BEAVER	109	n/a	n/a	0	0.422607421875	0.5869140625	0	lower	zerothre.ttf
2469942	REC_START	n/a	LTP337	ltpFR	2	14	n/a	n/a	n/a	n/a	n/a	n/a	n/a	n/a	n/a	n/a	n/a
2470599	REC_WORD	wordpools/wasnorm_wordpool_less_exclusions.txt	LTP337	ltpFR	2	14	1	BEAVER	109	n/a	n/a	0	n/a	n/a	n/a	n/a	n/a
2471323	REC_WORD	wordpools/wasnorm_wordpool_less_exclusions.txt	LTP337	ltpFR	2	14	1	CAB	209	n/a	n/a	1	n/a	n/a	n/a	n/a	n/a
2474726	REC_WORD	wordpools/wasnorm_wordpool_less_exclusions.txt	LTP337	ltpFR	2	14	1	PELICAN	1039	n/a	n/a	1	n/a	n/a	n/a	n/a	n/a
2501843	REC_WORD	wordpools/wasnorm_wordpool_less_exclusions.txt	LTP337	ltpFR	2	14	1	GARDEN	623	n/a	n/a	0	n/a	n/a	n/a	n/a	n/a
2558614	WORD	wordpools/wasnorm_wordpool_less_exclusions.txt	LTP337	ltpFR	2	15	1	LIP	828	n/a	n/a	0	0.422607421875	0.5869140625	0	lower	zerothre.ttf
2562662	WORD	wordpools/wasnorm_wordpool_less_exclusions.txt	LTP337	ltpFR	2	15	1	FOREHEAD	592	n/a	n/a	0	0.422607421875	0.5869140625	0	lower	zerothre.ttf
2566660	WORD	wordpools/wasnorm_wordpool_less_exclusions.txt	LTP337	ltpFR	2	15	1	SICKLE	1302	n/a	n/a	0	0.422607421875	0.5869140625	0	lower	zerothre.ttf
2570523	WORD	wordpools/wasnorm_wordpool_less_exclusions.txt	LTP337	ltpFR	2	15	0	HOOK	715	n/a	n/a	0	0.57763671875	0.412841796875	1	upper	amplitud.ttf
2574538	WORD	wordpools/wasnorm_wordpool_less_exclusions.txt	LTP337	ltpFR	2	15	0	TRAY	1498	n/a	n/a	1	0.57763671875	0.412841796875	1	upper	amplitud.ttf
2578586	WORD	wordpools/wasnorm_wordpool_less_exclusions.txt	LTP337	ltpFR	2	15	0	GRASS	655	n/a	n/a	0	0.57763671875	0.412841796875	1	upper	amplitud.ttf
2582767	WORD	wordpools/wasnorm_wordpool_less_exclusions.txt	LTP337	ltpFR	2	15	0	GUEST	669	n/a	n/a	1	0.57763671875	0.412841796875	1	upper	amplitud.ttf
2586749	WORD	wordpools/wasnorm_wordpool_less_exclusions.txt	LTP337	ltpFR	2	15	1	MICROWAVE	892	n/a	n/a	0	0.422607421875	0.5869140625	0	lower	zerothre.ttf
2590963	WORD	wordpools/wasnorm_wordpool_less_exclusions.txt	LTP337	ltpFR	2	15	1	STOVE	1388	n/a	n/a	0	0.422607421875	0.5869140625	0	lower	zerothre.ttf
2594811	WORD	wordpools/wasnorm_wordpool_less_exclusions.txt	LTP337	ltpFR	2	15	1	ARCHITECT	36	n/a	n/a	1	0.422607421875	0.5869140625	0	lower	zerothre.ttf
2598876	WORD	wordpools/wasnorm_wordpool_less_exclusions.txt	LTP337	ltpFR	2	15	1	TWEEZERS	1526	n/a	n/a	0	0.422607421875	0.5869140625	0	lower	zerothre.ttf
2602891	WORD	wordpools/wasnorm_wordpool_less_exclusions.txt	LTP337	ltpFR	2	15	1	LEVER	815	n/a	n/a	0	0.422607421875	0.5869140625	0	lower	zerothre.ttf
2606806	WORD	wordpools/wasnorm_wordpool_less_exclusions.txt	LTP337	ltpFR	2	15	0	APPLICATION	34	n/a	n/a	0	0.57763671875	0.412841796875	1	upper	amplitud.ttf
2610688	WORD	wordpools/wasnorm_wordpool_less_exclusions.txt	LTP337	ltpFR	2	15	0	WAITRESS	1581	n/a	n/a	1	0.57763671875	0.412841796875	1	upper	amplitud.ttf
2614669	WORD	wordpools/wasnorm_wordpool_less_exclusions.txt	LTP337	ltpFR	2	15	0	LANDSCAPE	799	n/a	n/a	1	0.57763671875	0.412841796875	1	upper	amplitud.ttf
2618883	WORD	wordpools/wasnorm_wordpool_less_exclusions.txt	LTP337	ltpFR	2	15	0	AGENT	10	n/a	n/a	1	0.57763671875	0.412841796875	1	upper	amplitud.ttf
2624815	REC_START	n/a	LTP337	ltpFR	2	15	n/a	n/a	n/a	n/a	n/a	n/a	n/a	n/a	n/a	n/a	n/a
2625174	REC_WORD	wordpools/wasnorm_wordpool_less_exclusions.txt	LTP337	ltpFR	2	15	0	LANDSCAPE	799	n/a	n/a	1	n/a	n/a	n/a	n/a	n/a
2626277	REC_WORD	wordpools/wasnorm_wordpool_less_exclusions.txt	LTP337	ltpFR	2	15	0	AGENT	10	n/a	n/a	1	n/a	n/a	n/a	n/a	n/a
2629446	REC_WORD	wordpools/wasnorm_wordpool_less_exclusions.txt	LTP337	ltpFR	2	15	0	GUEST	669	n/a	n/a	1	n/a	n/a	n/a	n/a	n/a
2634014	REC_WORD	wordpools/wasnorm_wordpool_less_exclusions.txt	LTP337	ltpFR	2	15	1	FOREHEAD	592	n/a	n/a	0	n/a	n/a	n/a	n/a	n/a
2635383	REC_WORD	wordpools/wasnorm_wordpool_less_exclusions.txt	LTP337	ltpFR	2	15	1	LIP	828	n/a	n/a	0	n/a	n/a	n/a	n/a	n/a
2654225	REC_WORD	wordpools/wasnorm_wordpool_less_exclusions.txt	LTP337	ltpFR	2	15	0	HOOK	715	n/a	n/a	0	n/a	n/a	n/a	n/a	n/a
2663624	REC_WORD	wordpools/wasnorm_wordpool_less_exclusions.txt	LTP337	ltpFR	2	15	1	ARCHITECT	36	n/a	n/a	1	n/a	n/a	n/a	n/a	n/a
2707455	WORD	wordpools/wasnorm_wordpool_less_exclusions.txt	LTP337	ltpFR	2	16	-1	DRIVEWAY	500	n/a	n/a	-1	1.0	1.0	1	upper	Verdana.ttf
2711454	WORD	wordpools/wasnorm_wordpool_less_exclusions.txt	LTP337	ltpFR	2	16	-1	WAIST	1579	n/a	n/a	-1	1.0	1.0	1	upper	Verdana.ttf
2715601	WORD	wordpools/wasnorm_wordpool_less_exclusions.txt	LTP337	ltpFR	2	16	-1	YARD	1630	n/a	n/a	-1	1.0	1.0	1	upper	Verdana.ttf
2719634	WORD	wordpools/wasnorm_wordpool_less_exclusions.txt	LTP337	ltpFR	2	16	-1	ANKLE	24	n/a	n/a	-1	1.0	1.0	1	upper	Verdana.ttf
2723747	WORD	wordpools/wasnorm_wordpool_less_exclusions.txt	LTP337	ltpFR	2	16	-1	LEG	809	n/a	n/a	-1	1.0	1.0	1	upper	Verdana.ttf
2727613	WORD	wordpools/wasnorm_wordpool_less_exclusions.txt	LTP337	ltpFR	2	16	-1	PARSLEY	1016	n/a	n/a	-1	1.0	1.0	1	upper	Verdana.ttf
2731493	WORD	wordpools/wasnorm_wordpool_less_exclusions.txt	LTP337	ltpFR	2	16	-1	DOCUMENT	479	n/a	n/a	-1	1.0	1.0	1	upper	Verdana.ttf
2735626	WORD	wordpools/wasnorm_wordpool_less_exclusions.txt	LTP337	ltpFR	2	16	-1	COUNTRY	388	n/a	n/a	-1	1.0	1.0	1	upper	Verdana.ttf
2739641	WORD	wordpools/wasnorm_wordpool_less_exclusions.txt	LTP337	ltpFR	2	16	-1	OREGANO	983	n/a	n/a	-1	1.0	1.0	1	upper	Verdana.ttf
2743554	WORD	wordpools/wasnorm_wordpool_less_exclusions.txt	LTP337	ltpFR	2	16	-1	MEAL	882	n/a	n/a	-1	1.0	1.0	1	upper	Verdana.ttf
2747585	WORD	wordpools/wasnorm_wordpool_less_exclusions.txt	LTP337	ltpFR	2	16	-1	DINNER	468	n/a	n/a	-1	1.0	1.0	1	upper	Verdana.ttf
2751684	WORD	wordpools/wasnorm_wordpool_less_exclusions.txt	LTP337	ltpFR	2	16	-1	LITTER	832	n/a	n/a	-1	1.0	1.0	1	upper	Verdana.ttf
2755582	WORD	wordpools/wasnorm_wordpool_less_exclusions.txt	LTP337	ltpFR	2	16	-1	DRINK	498	n/a	n/a	-1	1.0	1.0	1	upper	Verdana.ttf
2759513	WORD	wordpools/wasnorm_wordpool_less_exclusions.txt	LTP337	ltpFR	2	16	-1	BOTTLE	153	n/a	n/a	-1	1.0	1.0	1	upper	Verdana.ttf
2763544	WORD	wordpools/wasnorm_wordpool_less_exclusions.txt	LTP337	ltpFR	2	16	-1	FIREPLACE	570	n/a	n/a	-1	1.0	1.0	1	upper	Verdana.ttf
2767442	WORD	wordpools/wasnorm_wordpool_less_exclusions.txt	LTP337	ltpFR	2	16	-1	CURB	426	n/a	n/a	-1	1.0	1.0	1	upper	Verdana.ttf
2773357	REC_START	n/a	LTP337	ltpFR	2	16	n/a	n/a	n/a	n/a	n/a	n/a	n/a	n/a	n/a	n/a	n/a
2773638	REC_WORD	wordpools/wasnorm_wordpool_less_exclusions.txt	LTP337	ltpFR	2	16	-1	BOTTLE	153	n/a	n/a	-1	n/a	n/a	n/a	n/a	n/a
2774282	REC_WORD	wordpools/wasnorm_wordpool_less_exclusions.txt	LTP337	ltpFR	2	16	-1	FIREPLACE	570	n/a	n/a	-1	n/a	n/a	n/a	n/a	n/a
2775074	REC_WORD	wordpools/wasnorm_wordpool_less_exclusions.txt	LTP337	ltpFR	2	16	-1	CURB	426	n/a	n/a	-1	n/a	n/a	n/a	n/a	n/a
2775836	REC_WORD	wordpools/wasnorm_wordpool_less_exclusions.txt	LTP337	ltpFR	2	16	-1	LITTER	832	n/a	n/a	-1	n/a	n/a	n/a	n/a	n/a
2777583	REC_WORD	wordpools/wasnorm_wordpool_less_exclusions.txt	LTP337	ltpFR	2	16	-1	DRIVEWAY	500	n/a	n/a	-1	n/a	n/a	n/a	n/a	n/a
2778583	REC_WORD_VV	wordpools/wasnorm_wordpool_less_exclusions.txt	LTP337	ltpFR	2	16	n/a	<>	-1	n/a	n/a	n/a	n/a	n/a	n/a	n/a	n/a
2778967	REC_WORD	wordpools/wasnorm_wordpool_less_exclusions.txt	LTP337	ltpFR	2	16	-1	WAIST	1579	n/a	n/a	-1	n/a	n/a	n/a	n/a	n/a
2779646	REC_WORD	wordpools/wasnorm_wordpool_less_exclusions.txt	LTP337	ltpFR	2	16	-1	ANKLE	24	n/a	n/a	-1	n/a	n/a	n/a	n/a	n/a
2780343	REC_WORD	wordpools/wasnorm_wordpool_less_exclusions.txt	LTP337	ltpFR	2	16	-1	LEG	809	n/a	n/a	-1	n/a	n/a	n/a	n/a	n/a
2870626	REC_START	n/a	LTP337	ltpFR	2	n/a	n/a	n/a	n/a	n/a	n/a	n/a	n/a	n/a	n/a	n/a	n/a
2871727	FFR_REC_WORD	wordpools/wasnorm_wordpool_less_exclusions.txt	LTP337	ltpFR	2	n/a	0	BEARD	107	n/a	n/a	1	n/a	n/a	n/a	n/a	n/a
2872739	FFR_REC_WORD	wordpools/wasnorm_wordpool_less_exclusions.txt	LTP337	ltpFR	2	n/a	-1	KITTEN	780	n/a	n/a	-1	n/a	n/a	n/a	n/a	n/a
2874193	FFR_REC_WORD	wordpools/wasnorm_wordpool_less_exclusions.txt	LTP337	ltpFR	2	n/a	1	GRASSHOPPER	656	n/a	n/a	1	n/a	n/a	n/a	n/a	n/a
2875459	FFR_REC_WORD	wordpools/wasnorm_wordpool_less_exclusions.txt	LTP337	ltpFR	2	n/a	n/a	ORCHESTRA	981	n/a	n/a	n/a	n/a	n/a	n/a	n/a	n/a
2876660	FFR_REC_WORD	wordpools/wasnorm_wordpool_less_exclusions.txt	LTP337	ltpFR	2	n/a	0	HOOK	715	n/a	n/a	0	n/a	n/a	n/a	n/a	n/a
2877642	FFR_REC_WORD	wordpools/wasnorm_wordpool_less_exclusions.txt	LTP337	ltpFR	2	n/a	n/a	RECIPE	1175	n/a	n/a	n/a	n/a	n/a	n/a	n/a	n/a
2878940	FFR_REC_WORD	wordpools/wasnorm_wordpool_less_exclusions.txt	LTP337	ltpFR	2	n/a	0	DINER	467	n/a	n/a	1	n/a	n/a	n/a	n/a	n/a
2880417	FFR_REC_WORD	wordpools/wasnorm_wordpool_less_exclusions.txt	LTP337	ltpFR	2	n/a	-1	DINNER	468	n/a	n/a	-1	n/a	n/a	n/a	n/a	n/a
2883008	FFR_REC_WORD	wordpools/wasnorm_wordpool_less_exclusions.txt	LTP337	ltpFR	2	n/a	-1	ANKLE	24	n/a	n/a	-1	n/a	n/a	n/a	n/a	n/a
2883906	FFR_REC_WORD	wordpools/wasnorm_wordpool_less_exclusions.txt	LTP337	ltpFR	2	n/a	-1	WAIST	1579	n/a	n/a	-1	n/a	n/a	n/a	n/a	n/a
2884717	FFR_REC_WORD	wordpools/wasnorm_wordpool_less_exclusions.txt	LTP337	ltpFR	2	n/a	-1	LEG	809	n/a	n/a	-1	n/a	n/a	n/a	n/a	n/a
2885664	FFR_REC_WORD	wordpools/wasnorm_wordpool_less_exclusions.txt	LTP337	ltpFR	2	n/a	1	FOREHEAD	592	n/a	n/a	0	n/a	n/a	n/a	n/a	n/a
2886693	FFR_REC_WORD	wordpools/wasnorm_wordpool_less_exclusions.txt	LTP337	ltpFR	2	n/a	1	LIP	828	n/a	n/a	0	n/a	n/a	n/a	n/a	n/a
2890606	FFR_REC_WORD	wordpools/wasnorm_wordpool_less_exclusions.txt	LTP337	ltpFR	2	n/a	0	HOOK	715	n/a	n/a	0	n/a	n/a	n/a	n/a	n/a
2895286	FFR_REC_WORD	wordpools/wasnorm_wordpool_less_exclusions.txt	LTP337	ltpFR	2	n/a	-1	KNAPSACK	783	n/a	n/a	-1	n/a	n/a	n/a	n/a	n/a
2900098	FFR_REC_WORD	wordpools/wasnorm_wordpool_less_exclusions.txt	LTP337	ltpFR	2	n/a	1	ANTEATER	26	n/a	n/a	1	n/a	n/a	n/a	n/a	n/a
2901295	FFR_REC_WORD	wordpools/wasnorm_wordpool_less_exclusions.txt	LTP337	ltpFR	2	n/a	1	PELICAN	1039	n/a	n/a	1	n/a	n/a	n/a	n/a	n/a
2902472	FFR_REC_WORD	wordpools/wasnorm_wordpool_less_exclusions.txt	LTP337	ltpFR	2	n/a	1	PECAN	1036	n/a	n/a	1	n/a	n/a	n/a	n/a	n/a
2914941	FFR_REC_WORD	wordpools/wasnorm_wordpool_less_exclusions.txt	LTP337	ltpFR	2	n/a	-1	DRIVEWAY	500	n/a	n/a	-1	n/a	n/a	n/a	n/a	n/a
2916915	FFR_REC_WORD	wordpools/wasnorm_wordpool_less_exclusions.txt	LTP337	ltpFR	2	n/a	-1	LOBBY	836	n/a	n/a	-1	n/a	n/a	n/a	n/a	n/a
2917784	FFR_REC_WORD	wordpools/wasnorm_wordpool_less_exclusions.txt	LTP337	ltpFR	2	n/a	0	LOUNGE	845	n/a	n/a	1	n/a	n/a	n/a	n/a	n/a
2919015	FFR_REC_WORD	wordpools/wasnorm_wordpool_less_exclusions.txt	LTP337	ltpFR	2	n/a	1	FOREST	593	n/a	n/a	1	n/a	n/a	n/a	n/a	n/a
2920100	FFR_REC_WORD	wordpools/wasnorm_wordpool_less_exclusions.txt	LTP337	ltpFR	2	n/a	0	LANDSCAPE	799	n/a	n/a	1	n/a	n/a	n/a	n/a	n/a
2921100	FFR_REC_WORD_VV	wordpools/wasnorm_wordpool_less_exclusions.txt	LTP337	ltpFR	2	n/a	n/a	<>	-1	n/a	n/a	n/a	n/a	n/a	n/a	n/a	n/a
2922687	FFR_REC_WORD	wordpools/wasnorm_wordpool_less_exclusions.txt	LTP337	ltpFR	2	n/a	1	SCENERY	1247	n/a	n/a	1	n/a	n/a	n/a	n/a	n/a
2926450	FFR_REC_WORD	wordpools/wasnorm_wordpool_less_exclusions.txt	LTP337	ltpFR	2	n/a	0	GUEST	669	n/a	n/a	1	n/a	n/a	n/a	n/a	n/a
2930171	FFR_REC_WORD	wordpools/wasnorm_wordpool_less_exclusions.txt	LTP337	ltpFR	2	n/a	1	SALESMAN	1225	n/a	n/a	1	n/a	n/a	n/a	n/a	n/a
2931707	FFR_REC_WORD	wordpools/wasnorm_wordpool_less_exclusions.txt	LTP337	ltpFR	2	n/a	0	DAD	433	n/a	n/a	1	n/a	n/a	n/a	n/a	n/a
2932493	FFR_REC_WORD	wordpools/wasnorm_wordpool_less_exclusions.txt	LTP337	ltpFR	2	n/a	0	FATHER	554	n/a	n/a	1	n/a	n/a	n/a	n/a	n/a
2933498	FFR_REC_WORD	wordpools/wasnorm_wordpool_less_exclusions.txt	LTP337	ltpFR	2	n/a	1	DAUGHTER	442	n/a	n/a	1	n/a	n/a	n/a	n/a	n/a
2934232	FFR_REC_WORD	wordpools/wasnorm_wordpool_less_exclusions.txt	LTP337	ltpFR	2	n/a	0	SWING	1421	n/a	n/a	1	n/a	n/a	n/a	n/a	n/a
2956396	FFR_REC_WORD	wordpools/wasnorm_wordpool_less_exclusions.txt	LTP337	ltpFR	2	n/a	-1	GRAPE	654	n/a	n/a	-1	n/a	n/a	n/a	n/a	n/a
2957337	FFR_REC_WORD	wordpools/wasnorm_wordpool_less_exclusions.txt	LTP337	ltpFR	2	n/a	-1	BLUEBERRY	140	n/a	n/a	-1	n/a	n/a	n/a	n/a	n/a
2958574	FFR_REC_WORD	wordpools/wasnorm_wordpool_less_exclusions.txt	LTP337	ltpFR	2	n/a	-1	FRUIT	610	n/a	n/a	-1	n/a	n/a	n/a	n/a	n/a
2960244	FFR_REC_WORD	wordpools/wasnorm_wordpool_less_exclusions.txt	LTP337	ltpFR	2	n/a	0	CARAVAN	242	n/a	n/a	1	n/a	n/a	n/a	n/a	n/a
2961182	FFR_REC_WORD	wordpools/wasnorm_wordpool_less_exclusions.txt	LTP337	ltpFR	2	n/a	0	POOL	1103	n/a	n/a	1	n/a	n/a	n/a	n/a	n/a
2966029	FFR_REC_WORD	wordpools/wasnorm_wordpool_less_exclusions.txt	LTP337	ltpFR	2	n/a	0	ANTLER	29	n/a	n/a	1	n/a	n/a	n/a	n/a	n/a
2968572	FFR_REC_WORD	wordpools/wasnorm_wordpool_less_exclusions.txt	LTP337	ltpFR	2	n/a	0	EAGLE	512	n/a	n/a	1	n/a	n/a	n/a	n/a	n/a
3071798	FFR_REC_WORD	wordpools/wasnorm_wordpool_less_exclusions.txt	LTP337	ltpFR	2	n/a	1	INSECT	740	n/a	n/a	0	n/a	n/a	n/a	n/a	n/a
3072552	FFR_REC_WORD	wordpools/wasnorm_wordpool_less_exclusions.txt	LTP337	ltpFR	2	n/a	0	FLY	586	n/a	n/a	0	n/a	n/a	n/a	n/a	n/a
3092904	FFR_REC_WORD	wordpools/wasnorm_wordpool_less_exclusions.txt	LTP337	ltpFR	2	n/a	1	BANQUET	86	n/a	n/a	1	n/a	n/a	n/a	n/a	n/a
3099427	FFR_REC_WORD	wordpools/wasnorm_wordpool_less_exclusions.txt	LTP337	ltpFR	2	n/a	-1	BRIEFCASE	175	n/a	n/a	-1	n/a	n/a	n/a	n/a	n/a
3101368	FFR_REC_WORD	wordpools/wasnorm_wordpool_less_exclusions.txt	LTP337	ltpFR	2	n/a	1	SALESMAN	1225	n/a	n/a	1	n/a	n/a	n/a	n/a	n/a
3102812	FFR_REC_WORD	wordpools/wasnorm_wordpool_less_exclusions.txt	LTP337	ltpFR	2	n/a	-1	ROOMMATE	1207	n/a	n/a	-1	n/a	n/a	n/a	n/a	n/a
3103725	FFR_REC_WORD	wordpools/wasnorm_wordpool_less_exclusions.txt	LTP337	ltpFR	2	n/a	-1	FRIEND	606	n/a	n/a	-1	n/a	n/a	n/a	n/a	n/a
3169915	FFR_REC_WORD	wordpools/wasnorm_wordpool_less_exclusions.txt	LTP337	ltpFR	2	n/a	-1	CARTON	251	n/a	n/a	-1	n/a	n/a	n/a	n/a	n/a
3171192	REST_REWET	n/a	LTP337	ltpFR	2	16	n/a	n/a	n/a	n/a	n/a	n/a	n/a	n/a	n/a	n/a	n/a
3456787	REC_START	n/a	LTP337	ltpFR	2	1	n/a	n/a	n/a	n/a	n/a	n/a	n/a	n/a	n/a	n/a	n/a
3456817	RECOG_LURE	n/a	LTP337	ltpFR	2	1	n/a	COURT	391	0	5	n/a	n/a	n/a	n/a	n/a	n/a
3458085	RECOG_RESP	n/a	LTP337	ltpFR	2	1	n/a	COURT	391	0	n/a	n/a	n/a	n/a	n/a	n/a	n/a
3459104	RECOG_CONF	n/a	LTP337	ltpFR	2	1	n/a	COURT	391	n/a	5	n/a	n/a	n/a	n/a	n/a	n/a
3460865	RECOG_LURE	n/a	LTP337	ltpFR	2	1	n/a	LOCK	838	0	4	n/a	n/a	n/a	n/a	n/a	n/a
3461535	RECOG_RESP	n/a	LTP337	ltpFR	2	1	n/a	LOCK	838	0	n/a	n/a	n/a	n/a	n/a	n/a	n/a
3462434	RECOG_CONF	n/a	LTP337	ltpFR	2	1	n/a	LOCK	838	n/a	4	n/a	n/a	n/a	n/a	n/a	n/a
3463996	RECOG_TARGET	n/a	LTP337	ltpFR	2	1	1	FEAST	556	1	3	0	n/a	n/a	n/a	n/a	n/a
3465306	RECOG_RESP	n/a	LTP337	ltpFR	2	1	1	FEAST	556	1	n/a	0	n/a	n/a	n/a	n/a	n/a
3466242	RECOG_CONF	n/a	LTP337	ltpFR	2	1	1	FEAST	556	n/a	3	0	n/a	n/a	n/a	n/a	n/a
3467944	RECOG_TARGET	n/a	LTP337	ltpFR	2	1	0	PLAID	1080	1	4	0	n/a	n/a	n/a	n/a	n/a
3468671	RECOG_RESP	n/a	LTP337	ltpFR	2	1	0	PLAID	1080	1	n/a	0	n/a	n/a	n/a	n/a	n/a
3469614	RECOG_CONF	n/a	LTP337	ltpFR	2	1	0	PLAID	1080	n/a	4	0	n/a	n/a	n/a	n/a	n/a
3471159	RECOG_TARGET	n/a	LTP337	ltpFR	2	1	0	PERISCOPE	1050	1	5	0	n/a	n/a	n/a	n/a	n/a
3472331	RECOG_RESP	n/a	LTP337	ltpFR	2	1	0	PERISCOPE	1050	1	n/a	0	n/a	n/a	n/a	n/a	n/a
3473164	RECOG_CONF	n/a	LTP337	ltpFR	2	1	0	PERISCOPE	1050	n/a	5	0	n/a	n/a	n/a	n/a	n/a
3474891	RECOG_TARGET	n/a	LTP337	ltpFR	2	1	1	MOAT	903	1	5	0	n/a	n/a	n/a	n/a	n/a
3475531	RECOG_RESP	n/a	LTP337	ltpFR	2	1	1	MOAT	903	1	n/a	0	n/a	n/a	n/a	n/a	n/a
3475944	RECOG_CONF	n/a	LTP337	ltpFR	2	1	1	MOAT	903	n/a	5	0	n/a	n/a	n/a	n/a	n/a
3478056	RECOG_TARGET	n/a	LTP337	ltpFR	2	1	-1	TRACTOR	1493	1	5	-1	n/a	n/a	n/a	n/a	n/a
3478911	RECOG_RESP	n/a	LTP337	ltpFR	2	1	-1	TRACTOR	1493	1	n/a	-1	n/a	n/a	n/a	n/a	n/a
3479861	RECOG_CONF	n/a	LTP337	ltpFR	2	1	-1	TRACTOR	1493	n/a	5	-1	n/a	n/a	n/a	n/a	n/a
3481538	RECOG_TARGET	n/a	LTP337	ltpFR	2	1	1	LITERATURE	831	0	1	0	n/a	n/a	n/a	n/a	n/a
3482500	RECOG_RESP	n/a	LTP337	ltpFR	2	1	1	LITERATURE	831	0	n/a	0	n/a	n/a	n/a	n/a	n/a
3483410	RECOG_CONF	n/a	LTP337	ltpFR	2	1	1	LITERATURE	831	n/a	1	0	n/a	n/a	n/a	n/a	n/a
3485036	RECOG_LURE	n/a	LTP337	ltpFR	2	1	n/a	TWINE	1529	0	4	n/a	n/a	n/a	n/a	n/a	n/a
3485860	RECOG_RESP	n/a	LTP337	ltpFR	2	1	n/a	TWINE	1529	0	n/a	n/a	n/a	n/a	n/a	n/a	n/a
3486714	RECOG_CONF	n/a	LTP337	ltpFR	2	1	n/a	TWINE	1529	n/a	4	n/a	n/a	n/a	n/a	n/a	n/a
3488201	RECOG_TARGET	n/a	LTP337	ltpFR	2	1	-1	LOBBY	836	1	4	-1	n/a	n/a	n/a	n/a	n/a
3488851	RECOG_RESP	n/a	LTP337	ltpFR	2	1	-1	LOBBY	836	1	n/a	-1	n/a	n/a	n/a	n/a	n/a
3489754	RECOG_CONF	n/a	LTP337	ltpFR	2	1	-1	LOBBY	836	n/a	4	-1	n/a	n/a	n/a	n/a	n/a
3491383	RECOG_LURE	n/a	LTP337	ltpFR	2	1	n/a	AUTOMOBILE	62	0	3	n/a	n/a	n/a	n/a	n/a	n/a
3492200	RECOG_RESP	n/a	LTP337	ltpFR	2	1	n/a	AUTOMOBILE	62	0	n/a	n/a	n/a	n/a	n/a	n/a	n/a
3492942	RECOG_CONF	n/a	LTP337	ltpFR	2	1	n/a	AUTOMOBILE	62	n/a	3	n/a	n/a	n/a	n/a	n/a	n/a
3494481	RECOG_TARGET	n/a	LTP337	ltpFR	2	1	1	ASH	44	1	5	0	n/a	n/a	n/a	n/a	n/a
3495271	RECOG_RESP	n/a	LTP337	ltpFR	2	1	1	ASH	44	1	n/a	0	n/a	n/a	n/a	n/a	n/a
3496064	RECOG_CONF	n/a	LTP337	ltpFR	2	1	1	ASH	44	n/a	5	0	n/a	n/a	n/a	n/a	n/a
3497631	RECOG_TARGET	n/a	LTP337	ltpFR	2	1	-1	LEG	809	1	2	-1	n/a	n/a	n/a	n/a	n/a
3498281	RECOG_RESP	n/a	LTP337	ltpFR	2	1	-1	LEG	809	1	n/a	-1	n/a	n/a	n/a	n/a	n/a
3499249	RECOG_CONF	n/a	LTP337	ltpFR	2	1	-1	LEG	809	n/a	2	-1	n/a	n/a	n/a	n/a	n/a
3500795	RECOG_LURE	n/a	LTP337	ltpFR	2	1	n/a	SHOE	1288	0	2	n/a	n/a	n/a	n/a	n/a	n/a
3502235	RECOG_RESP	n/a	LTP337	ltpFR	2	1	n/a	SHOE	1288	0	n/a	n/a	n/a	n/a	n/a	n/a	n/a
3502599	RECOG_CONF	n/a	LTP337	ltpFR	2	1	n/a	SHOE	1288	n/a	2	n/a	n/a	n/a	n/a	n/a	n/a
3504627	RECOG_TARGET	n/a	LTP337	ltpFR	2	1	-1	LEOPARD	812	1	4	-1	n/a	n/a	n/a	n/a	n/a
3505256	RECOG_RESP	n/a	LTP337	ltpFR	2	1	-1	LEOPARD	812	1	n/a	-1	n/a	n/a	n/a	n/a	n/a
3505624	RECOG_CONF	n/a	LTP337	ltpFR	2	1	-1	LEOPARD	812	n/a	4	-1	n/a	n/a	n/a	n/a	n/a
3507642	RECOG_TARGET	n/a	LTP337	ltpFR	2	1	0	ROPE	1211	1	5	0	n/a	n/a	n/a	n/a	n/a
3508826	RECOG_RESP	n/a	LTP337	ltpFR	2	1	0	ROPE	1211	1	n/a	0	n/a	n/a	n/a	n/a	n/a
3509674	RECOG_CONF	n/a	LTP337	ltpFR	2	1	0	ROPE	1211	n/a	5	0	n/a	n/a	n/a	n/a	n/a
3511356	RECOG_LURE	n/a	LTP337	ltpFR	2	1	n/a	DICTIONARY	463	0	4	n/a	n/a	n/a	n/a	n/a	n/a
3512280	RECOG_RESP	n/a	LTP337	ltpFR	2	1	n/a	DICTIONARY	463	0	n/a	n/a	n/a	n/a	n/a	n/a	n/a
3513144	RECOG_CONF	n/a	LTP337	ltpFR	2	1	n/a	DICTIONARY	463	n/a	4	n/a	n/a	n/a	n/a	n/a	n/a
3514738	RECOG_TARGET	n/a	LTP337	ltpFR	2	1	1	BLOUSE	139	0	2	0	n/a	n/a	n/a	n/a	n/a
3516040	RECOG_RESP	n/a	LTP337	ltpFR	2	1	1	BLOUSE	139	0	n/a	0	n/a	n/a	n/a	n/a	n/a
3516379	RECOG_CONF	n/a	LTP337	ltpFR	2	1	1	BLOUSE	139	n/a	2	0	n/a	n/a	n/a	n/a	n/a
3518403	RECOG_LURE	n/a	LTP337	ltpFR	2	1	n/a	TRUCK	1512	1	3	n/a	n/a	n/a	n/a	n/a	n/a
3519266	RECOG_RESP	n/a	LTP337	ltpFR	2	1	n/a	TRUCK	1512	1	n/a	n/a	n/a	n/a	n/a	n/a	n/a
3519682	RECOG_CONF	n/a	LTP337	ltpFR	2	1	n/a	TRUCK	1512	n/a	3	n/a	n/a	n/a	n/a	n/a	n/a
3521768	RECOG_TARGET	n/a	LTP337	ltpFR	2	1	0	LOUNGE	845	0	1	1	n/a	n/a	n/a	n/a	n/a
3522990	RECOG_RESP	n/a	LTP337	ltpFR	2	1	0	LOUNGE	845	0	n/a	1	n/a	n/a	n/a	n/a	n/a
3524649	RECOG_CONF	n/a	LTP337	ltpFR	2	1	0	LOUNGE	845	n/a	1	1	n/a	n/a	n/a	n/a	n/a
3527917	REC_START	n/a	LTP337	ltpFR	2	2	n/a	n/a	n/a	n/a	n/a	n/a	n/a	n/a	n/a	n/a	n/a
3527931	RECOG_TARGET	n/a	LTP337	ltpFR	2	2	1	PELICAN	1039	1	5	1	n/a	n/a	n/a	n/a	n/a
3528911	RECOG_RESP	n/a	LTP337	ltpFR	2	2	1	PELICAN	1039	1	n/a	1	n/a	n/a	n/a	n/a	n/a
3529734	RECOG_CONF	n/a	LTP337	ltpFR	2	2	1	PELICAN	1039	n/a	5	1	n/a	n/a	n/a	n/a	n/a
3531363	RECOG_TARGET	n/a	LTP337	ltpFR	2	2	-1	PORTRAIT	1111	0	2	-1	n/a	n/a	n/a	n/a	n/a
3532130	RECOG_RESP	n/a	LTP337	ltpFR	2	2	-1	PORTRAIT	1111	0	n/a	-1	n/a	n/a	n/a	n/a	n/a
3532479	RECOG_CONF	n/a	LTP337	ltpFR	2	2	-1	PORTRAIT	1111	n/a	2	-1	n/a	n/a	n/a	n/a	n/a
3534612	RECOG_LURE	n/a	LTP337	ltpFR	2	2	n/a	GREASE	660	0	5	n/a	n/a	n/a	n/a	n/a	n/a
3536295	RECOG_RESP	n/a	LTP337	ltpFR	2	2	n/a	GREASE	660	0	n/a	n/a	n/a	n/a	n/a	n/a	n/a
3537274	RECOG_CONF	n/a	LTP337	ltpFR	2	2	n/a	GREASE	660	n/a	5	n/a	n/a	n/a	n/a	n/a	n/a
3538893	RECOG_LURE	n/a	LTP337	ltpFR	2	2	n/a	AIRPORT	13	0	2	n/a	n/a	n/a	n/a	n/a	n/a
3539465	RECOG_RESP	n/a	LTP337	ltpFR	2	2	n/a	AIRPORT	13	0	n/a	n/a	n/a	n/a	n/a	n/a	n/a
3540279	RECOG_CONF	n/a	LTP337	ltpFR	2	2	n/a	AIRPORT	13	n/a	2	n/a	n/a	n/a	n/a	n/a	n/a
3541808	RECOG_TARGET	n/a	LTP337	ltpFR	2	2	0	AGENT	10	1	3	1	n/a	n/a	n/a	n/a	n/a
3542486	RECOG_RESP	n/a	LTP337	ltpFR	2	2	0	AGENT	10	1	n/a	1	n/a	n/a	n/a	n/a	n/a
3543242	RECOG_CONF	n/a	LTP337	ltpFR	2	2	0	AGENT	10	n/a	3	1	n/a	n/a	n/a	n/a	n/a
3544889	RECOG_TARGET	n/a	LTP337	ltpFR	2	2	-1	CATTLE	261	1	4	-1	n/a	n/a	n/a	n/a	n/a
3545526	RECOG_RESP	n/a	LTP337	ltpFR	2	2	-1	CATTLE	261	1	n/a	-1	n/a	n/a	n/a	n/a	n/a
3546394	RECOG_CONF	n/a	LTP337	ltpFR	2	2	-1	CATTLE	261	n/a	4	-1	n/a	n/a	n/a	n/a	n/a
3547988	RECOG_LURE	n/a	LTP337	ltpFR	2	2	n/a	SYRINGE	1424	0	5	n/a	n/a	n/a	n/a	n/a	n/a
3548560	RECOG_RESP	n/a	LTP337	ltpFR	2	2	n/a	SYRINGE	1424	0	n/a	n/a	n/a	n/a	n/a	n/a	n/a
3549471	RECOG_CONF	n/a	LTP337	ltpFR	2	2	n/a	SYRINGE	1424	n/a	5	n/a	n/a	n/a	n/a	n/a	n/a
3551070	RECOG_TARGET	n/a	LTP337	ltpFR	2	2	-1	KITTEN	780	1	5	-1	n/a	n/a	n/a	n/a	n/a
3552646	RECOG_RESP	n/a	LTP337	ltpFR	2	2	-1	KITTEN	780	1	n/a	-1	n/a	n/a	n/a	n/a	n/a
3553131	RECOG_CONF	n/a	LTP337	ltpFR	2	2	-1	KITTEN	780	n/a	5	-1	n/a	n/a	n/a	n/a	n/a
3555051	RECOG_LURE	n/a	LTP337	ltpFR	2	2	n/a	VAGRANT	1544	0	2	n/a	n/a	n/a	n/a	n/a	n/a
3555825	RECOG_RESP	n/a	LTP337	ltpFR	2	2	n/a	VAGRANT	1544	0	n/a	n/a	n/a	n/a	n/a	n/a	n/a
3556229	RECOG_CONF	n/a	LTP337	ltpFR	2	2	n/a	VAGRANT	1544	n/a	2	n/a	n/a	n/a	n/a	n/a	n/a
3558250	RECOG_LURE	n/a	LTP337	ltpFR	2	2	n/a	CORD	379	0	4	n/a	n/a	n/a	n/a	n/a	n/a
3558830	RECOG_RESP	n/a	LTP337	ltpFR	2	2	n/a	CORD	379	0	n/a	n/a	n/a	n/a	n/a	n/a	n/a
3559684	RECOG_CONF	n/a	LTP337	ltpFR	2	2	n/a	CORD	379	n/a	4	n/a	n/a	n/a	n/a	n/a	n/a
3561198	RECOG_TARGET	n/a	LTP337	ltpFR	2	2	0	CROWN	415	1	3	0	n/a	n/a	n/a	n/a	n/a
3561961	RECOG_RESP	n/a	LTP337	ltpFR	2	2	0	CROWN	415	1	n/a	0	n/a	n/a	n/a	n/a	n/a
3562352	RECOG_CONF	n/a	LTP337	ltpFR	2	2	0	CROWN	415	n/a	3	0	n/a	n/a	n/a	n/a	n/a
3564463	RECOG_TARGET	n/a	LTP337	ltpFR	2	2	1	HOSE	720	1	5	0	n/a	n/a	n/a	n/a	n/a
3565071	RECOG_RESP	n/a	LTP337	ltpFR	2	2	1	HOSE	720	1	n/a	0	n/a	n/a	n/a	n/a	n/a
3565471	RECOG_CONF	n/a	LTP337	ltpFR	2	2	1	HOSE	720	n/a	5	0	n/a	n/a	n/a	n/a	n/a
3567462	RECOG_TARGET	n/a	LTP337	ltpFR	2	2	0	GENERAL	630	1	4	1	n/a	n/a	n/a	n/a	n/a
3568141	RECOG_RESP	n/a	LTP337	ltpFR	2	2	0	GENERAL	630	1	n/a	1	n/a	n/a	n/a	n/a	n/a
3568584	RECOG_CONF	n/a	LTP337	ltpFR	2	2	0	GENERAL	630	n/a	4	1	n/a	n/a	n/a	n/a	n/a
3570628	RECOG_LURE	n/a	LTP337	ltpFR	2	2	n/a	ORGAN	984	0	2	n/a	n/a	n/a	n/a	n/a	n/a
3571850	RECOG_RESP	n/a	LTP337	ltpFR	2	2	n/a	ORGAN	984	0	n/a	n/a	n/a	n/a	n/a	n/a	n/a
3572699	RECOG_CONF	n/a	LTP337	ltpFR	2	2	n/a	ORGAN	984	n/a	2	n/a	n/a	n/a	n/a	n/a	n/a
3574175	RECOG_LURE	n/a	LTP337	ltpFR	2	2	n/a	BANDAGE	79	0	2	n/a	n/a	n/a	n/a	n/a	n/a
3574930	RECOG_RESP	n/a	LTP337	ltpFR	2	2	n/a	BANDAGE	79	0	n/a	n/a	n/a	n/a	n/a	n/a	n/a
3576229	RECOG_CONF	n/a	LTP337	ltpFR	2	2	n/a	BANDAGE	79	n/a	2	n/a	n/a	n/a	n/a	n/a	n/a
3577873	RECOG_TARGET	n/a	LTP337	ltpFR	2	2	1	STOVE	1388	1	4	0	n/a	n/a	n/a	n/a	n/a
3578831	RECOG_RESP	n/a	LTP337	ltpFR	2	2	1	STOVE	1388	1	n/a	0	n/a	n/a	n/a	n/a	n/a
3579794	RECOG_CONF	n/a	LTP337	ltpFR	2	2	1	STOVE	1388	n/a	4	0	n/a	n/a	n/a	n/a	n/a
3581355	RECOG_LURE	n/a	LTP337	ltpFR	2	2	n/a	QUAIL	1147	0	4	n/a	n/a	n/a	n/a	n/a	n/a
3582120	RECOG_RESP	n/a	LTP337	ltpFR	2	2	n/a	QUAIL	1147	0	n/a	n/a	n/a	n/a	n/a	n/a	n/a
3582994	RECOG_CONF	n/a	LTP337	ltpFR	2	2	n/a	QUAIL	1147	n/a	4	n/a	n/a	n/a	n/a	n/a	n/a
3584654	RECOG_TARGET	n/a	LTP337	ltpFR	2	2	-1	GRAPE	654	1	5	-1	n/a	n/a	n/a	n/a	n/a
3585901	RECOG_RESP	n/a	LTP337	ltpFR	2	2	-1	GRAPE	654	1	n/a	-1	n/a	n/a	n/a	n/a	n/a
3586484	RECOG_CONF	n/a	LTP337	ltpFR	2	2	-1	GRAPE	654	n/a	5	-1	n/a	n/a	n/a	n/a	n/a
3588734	RECOG_LURE	n/a	LTP337	ltpFR	2	2	n/a	DIRT	472	0	2	n/a	n/a	n/a	n/a	n/a	n/a
3589475	RECOG_RESP	n/a	LTP337	ltpFR	2	2	n/a	DIRT	472	0	n/a	n/a	n/a	n/a	n/a	n/a	n/a
3589789	RECOG_CONF	n/a	LTP337	ltpFR	2	2	n/a	DIRT	472	n/a	2	n/a	n/a	n/a	n/a	n/a	n/a
3591750	RECOG_TARGET	n/a	LTP337	ltpFR	2	2	0	SHOELACE	1289	n/a	n/a	0	n/a	n/a	n/a	n/a	n/a
3596363	REC_START	n/a	LTP337	ltpFR	2	3	n/a	n/a	n/a	n/a	n/a	n/a	n/a	n/a	n/a	n/a	n/a
3596381	RECOG_LURE	n/a	LTP337	ltpFR	2	3	n/a	ROOST	1208	0	2	n/a	n/a	n/a	n/a	n/a	n/a
3597281	RECOG_RESP_VV	n/a	LTP337	ltpFR	2	3	n/a	ROOST	1208	0	n/a	n/a	n/a	n/a	n/a	n/a	n/a
3597686	RECOG_RESP_VV	n/a	LTP337	ltpFR	2	3	n/a	ROOST	1208	0	n/a	n/a	n/a	n/a	n/a	n/a	n/a
3598155	RECOG_CONF	n/a	LTP337	ltpFR	2	3	n/a	ROOST	1208	n/a	2	n/a	n/a	n/a	n/a	n/a	n/a
3598486	RECOG_RESP	n/a	LTP337	ltpFR	2	3	n/a	ROOST	1208	0	n/a	n/a	n/a	n/a	n/a	n/a	n/a
3599812	RECOG_TARGET	n/a	LTP337	ltpFR	2	3	1	LIP	828	1	5	0	n/a	n/a	n/a	n/a	n/a
3600772	RECOG_RESP	n/a	LTP337	ltpFR	2	3	1	LIP	828	1	n/a	0	n/a	n/a	n/a	n/a	n/a
3601778	RECOG_CONF	n/a	LTP337	ltpFR	2	3	1	LIP	828	n/a	5	0	n/a	n/a	n/a	n/a	n/a
3603577	RECOG_LURE	n/a	LTP337	ltpFR	2	3	n/a	LOLLIPOP	842	0	3	n/a	n/a	n/a	n/a	n/a	n/a
3604281	RECOG_RESP	n/a	LTP337	ltpFR	2	3	n/a	LOLLIPOP	842	0	n/a	n/a	n/a	n/a	n/a	n/a	n/a
3605175	RECOG_CONF	n/a	LTP337	ltpFR	2	3	n/a	LOLLIPOP	842	n/a	3	n/a	n/a	n/a	n/a	n/a	n/a
3606726	RECOG_TARGET	n/a	LTP337	ltpFR	2	3	1	MONSTER	912	1	4	1	n/a	n/a	n/a	n/a	n/a
3607532	RECOG_RESP	n/a	LTP337	ltpFR	2	3	1	MONSTER	912	1	n/a	1	n/a	n/a	n/a	n/a	n/a
3608380	RECOG_CONF	n/a	LTP337	ltpFR	2	3	1	MONSTER	912	n/a	4	1	n/a	n/a	n/a	n/a	n/a
3609891	RECOG_TARGET	n/a	LTP337	ltpFR	2	3	0	CARAVAN	242	1	5	1	n/a	n/a	n/a	n/a	n/a
3610817	RECOG_RESP	n/a	LTP337	ltpFR	2	3	0	CARAVAN	242	1	n/a	1	n/a	n/a	n/a	n/a	n/a
3611653	RECOG_CONF	n/a	LTP337	ltpFR	2	3	0	CARAVAN	242	n/a	5	1	n/a	n/a	n/a	n/a	n/a
3613206	RECOG_TARGET	n/a	LTP337	ltpFR	2	3	0	PAN	1008	1	2	0	n/a	n/a	n/a	n/a	n/a
3613717	RECOG_RESP	n/a	LTP337	ltpFR	2	3	0	PAN	1008	1	n/a	0	n/a	n/a	n/a	n/a	n/a
3614195	RECOG_CONF	n/a	LTP337	ltpFR	2	3	0	PAN	1008	n/a	2	0	n/a	n/a	n/a	n/a	n/a
3616154	RECOG_TARGET	n/a	LTP337	ltpFR	2	3	0	CHIMNEY	301	1	4	1	n/a	n/a	n/a	n/a	n/a
3616847	RECOG_RESP	n/a	LTP337	ltpFR	2	3	0	CHIMNEY	301	1	n/a	1	n/a	n/a	n/a	n/a	n/a
3617766	RECOG_CONF	n/a	LTP337	ltpFR	2	3	0	CHIMNEY	301	n/a	4	1	n/a	n/a	n/a	n/a	n/a
3619536	RECOG_TARGET	n/a	LTP337	ltpFR	2	3	-1	GATE	625	1	5	-1	n/a	n/a	n/a	n/a	n/a
3620437	RECOG_RESP	n/a	LTP337	ltpFR	2	3	-1	GATE	625	1	n/a	-1	n/a	n/a	n/a	n/a	n/a
3621337	RECOG_CONF	n/a	LTP337	ltpFR	2	3	-1	GATE	625	n/a	5	-1	n/a	n/a	n/a	n/a	n/a
3622951	RECOG_TARGET	n/a	LTP337	ltpFR	2	3	0	HOOK	715	1	5	0	n/a	n/a	n/a	n/a	n/a
3623532	RECOG_RESP	n/a	LTP337	ltpFR	2	3	0	HOOK	715	1	n/a	0	n/a	n/a	n/a	n/a	n/a
3624407	RECOG_CONF	n/a	LTP337	ltpFR	2	3	0	HOOK	715	n/a	5	0	n/a	n/a	n/a	n/a	n/a
3625933	RECOG_LURE	n/a	LTP337	ltpFR	2	3	n/a	HONEY	713	0	3	n/a	n/a	n/a	n/a	n/a	n/a
3626746	RECOG_RESP	n/a	LTP337	ltpFR	2	3	n/a	HONEY	713	0	n/a	n/a	n/a	n/a	n/a	n/a	n/a
3627650	RECOG_CONF	n/a	LTP337	ltpFR	2	3	n/a	HONEY	713	n/a	3	n/a	n/a	n/a	n/a	n/a	n/a
3629164	RECOG_TARGET	n/a	LTP337	ltpFR	2	3	0	GOOSE	649	0	2	1	n/a	n/a	n/a	n/a	n/a
3629981	RECOG_RESP	n/a	LTP337	ltpFR	2	3	0	GOOSE	649	0	n/a	1	n/a	n/a	n/a	n/a	n/a
3630815	RECOG_CONF	n/a	LTP337	ltpFR	2	3	0	GOOSE	649	n/a	2	1	n/a	n/a	n/a	n/a	n/a
3632529	RECOG_TARGET	n/a	LTP337	ltpFR	2	3	0	MAYONNAISE	880	1	3	0	n/a	n/a	n/a	n/a	n/a
3633412	RECOG_RESP	n/a	LTP337	ltpFR	2	3	0	MAYONNAISE	880	1	n/a	0	n/a	n/a	n/a	n/a	n/a
3634278	RECOG_CONF	n/a	LTP337	ltpFR	2	3	0	MAYONNAISE	880	n/a	3	0	n/a	n/a	n/a	n/a	n/a
3635994	RECOG_TARGET	n/a	LTP337	ltpFR	2	3	1	CREAM	402	1	2	0	n/a	n/a	n/a	n/a	n/a
3636637	RECOG_RESP	n/a	LTP337	ltpFR	2	3	1	CREAM	402	1	n/a	0	n/a	n/a	n/a	n/a	n/a
3637579	RECOG_CONF	n/a	LTP337	ltpFR	2	3	1	CREAM	402	n/a	2	0	n/a	n/a	n/a	n/a	n/a
3639193	RECOG_TARGET	n/a	LTP337	ltpFR	2	3	0	ANCHOR	21	1	5	1	n/a	n/a	n/a	n/a	n/a
3639877	RECOG_RESP	n/a	LTP337	ltpFR	2	3	0	ANCHOR	21	1	n/a	1	n/a	n/a	n/a	n/a	n/a
3640736	RECOG_CONF	n/a	LTP337	ltpFR	2	3	0	ANCHOR	21	n/a	5	1	n/a	n/a	n/a	n/a	n/a
3642358	RECOG_TARGET	n/a	LTP337	ltpFR	2	3	0	LIEUTENANT	818	1	3	1	n/a	n/a	n/a	n/a	n/a
3643517	RECOG_RESP	n/a	LTP337	ltpFR	2	3	0	LIEUTENANT	818	1	n/a	1	n/a	n/a	n/a	n/a	n/a
3644738	RECOG_CONF	n/a	LTP337	ltpFR	2	3	0	LIEUTENANT	818	n/a	3	1	n/a	n/a	n/a	n/a	n/a
3646539	RECOG_TARGET	n/a	LTP337	ltpFR	2	3	-1	WALRUS	1585	1	4	-1	n/a	n/a	n/a	n/a	n/a
3647257	RECOG_RESP	n/a	LTP337	ltpFR	2	3	-1	WALRUS	1585	1	n/a	-1	n/a	n/a	n/a	n/a	n/a
3648060	RECOG_CONF	n/a	LTP337	ltpFR	2	3	-1	WALRUS	1585	n/a	4	-1	n/a	n/a	n/a	n/a	n/a
3649604	RECOG_LURE	n/a	LTP337	ltpFR	2	3	n/a	MANSION	864	0	5	n/a	n/a	n/a	n/a	n/a	n/a
3650386	RECOG_RESP	n/a	LTP337	ltpFR	2	3	n/a	MANSION	864	0	n/a	n/a	n/a	n/a	n/a	n/a	n/a
3651217	RECOG_CONF	n/a	LTP337	ltpFR	2	3	n/a	MANSION	864	n/a	5	n/a	n/a	n/a	n/a	n/a	n/a
3652819	RECOG_TARGET	n/a	LTP337	ltpFR	2	3	0	POOL	1103	0	1	1	n/a	n/a	n/a	n/a	n/a
3653596	RECOG_RESP	n/a	LTP337	ltpFR	2	3	0	POOL	1103	0	n/a	1	n/a	n/a	n/a	n/a	n/a
3654865	RECOG_CONF	n/a	LTP337	ltpFR	2	3	0	POOL	1103	n/a	1	1	n/a	n/a	n/a	n/a	n/a
3656534	RECOG_LURE	n/a	LTP337	ltpFR	2	3	n/a	COOKBOOK	373	0	3	n/a	n/a	n/a	n/a	n/a	n/a
3657486	RECOG_RESP	n/a	LTP337	ltpFR	2	3	n/a	COOKBOOK	373	0	n/a	n/a	n/a	n/a	n/a	n/a	n/a
3658428	RECOG_CONF	n/a	LTP337	ltpFR	2	3	n/a	COOKBOOK	373	n/a	3	n/a	n/a	n/a	n/a	n/a	n/a
3660082	RECOG_LURE	n/a	LTP337	ltpFR	2	3	n/a	DELINQUENT	445	1	2	n/a	n/a	n/a	n/a	n/a	n/a
3662112	RECOG_RESP	n/a	LTP337	ltpFR	2	3	n/a	DELINQUENT	445	1	n/a	n/a	n/a	n/a	n/a	n/a	n/a
3662555	RECOG_CONF	n/a	LTP337	ltpFR	2	3	n/a	DELINQUENT	445	n/a	2	n/a	n/a	n/a	n/a	n/a	n/a
3666202	REC_START	n/a	LTP337	ltpFR	2	4	n/a	n/a	n/a	n/a	n/a	n/a	n/a	n/a	n/a	n/a	n/a
3666229	RECOG_TARGET	n/a	LTP337	ltpFR	2	4	1	BATTERY	101	0	1	0	n/a	n/a	n/a	n/a	n/a
3667020	RECOG_RESP	n/a	LTP337	ltpFR	2	4	1	BATTERY	101	0	n/a	0	n/a	n/a	n/a	n/a	n/a
3667725	RECOG_CONF	n/a	LTP337	ltpFR	2	4	1	BATTERY	101	n/a	1	0	n/a	n/a	n/a	n/a	n/a
3669394	RECOG_TARGET	n/a	LTP337	ltpFR	2	4	-1	ROOMMATE	1207	1	5	-1	n/a	n/a	n/a	n/a	n/a
3670016	RECOG_RESP	n/a	LTP337	ltpFR	2	4	-1	ROOMMATE	1207	1	n/a	-1	n/a	n/a	n/a	n/a	n/a
3670859	RECOG_CONF	n/a	LTP337	ltpFR	2	4	-1	ROOMMATE	1207	n/a	5	-1	n/a	n/a	n/a	n/a	n/a
3672326	RECOG_TARGET	n/a	LTP337	ltpFR	2	4	-1	DRIVEWAY	500	1	5	-1	n/a	n/a	n/a	n/a	n/a
3672996	RECOG_RESP	n/a	LTP337	ltpFR	2	4	-1	DRIVEWAY	500	1	n/a	-1	n/a	n/a	n/a	n/a	n/a
3673855	RECOG_CONF	n/a	LTP337	ltpFR	2	4	-1	DRIVEWAY	500	n/a	5	-1	n/a	n/a	n/a	n/a	n/a
3675692	RECOG_TARGET	n/a	LTP337	ltpFR	2	4	0	COOK	372	1	3	1	n/a	n/a	n/a	n/a	n/a
3676201	RECOG_RESP	n/a	LTP337	ltpFR	2	4	0	COOK	372	1	n/a	1	n/a	n/a	n/a	n/a	n/a
3677098	RECOG_CONF	n/a	LTP337	ltpFR	2	4	0	COOK	372	n/a	3	1	n/a	n/a	n/a	n/a	n/a
3678556	RECOG_TARGET	n/a	LTP337	ltpFR	2	4	-1	PRUNE	1134	0	2	-1	n/a	n/a	n/a	n/a	n/a
3679295	RECOG_RESP	n/a	LTP337	ltpFR	2	4	-1	PRUNE	1134	0	n/a	-1	n/a	n/a	n/a	n/a	n/a
3679714	RECOG_CONF	n/a	LTP337	ltpFR	2	4	-1	PRUNE	1134	n/a	2	-1	n/a	n/a	n/a	n/a	n/a
3681905	RECOG_TARGET	n/a	LTP337	ltpFR	2	4	1	QUILT	1151	0	4	0	n/a	n/a	n/a	n/a	n/a
3682645	RECOG_RESP	n/a	LTP337	ltpFR	2	4	1	QUILT	1151	0	n/a	0	n/a	n/a	n/a	n/a	n/a
3683479	RECOG_CONF	n/a	LTP337	ltpFR	2	4	1	QUILT	1151	n/a	4	0	n/a	n/a	n/a	n/a	n/a
3685303	RECOG_TARGET	n/a	LTP337	ltpFR	2	4	-1	OATS	968	1	5	-1	n/a	n/a	n/a	n/a	n/a
3686526	RECOG_RESP	n/a	LTP337	ltpFR	2	4	-1	OATS	968	1	n/a	-1	n/a	n/a	n/a	n/a	n/a
3687496	RECOG_CONF	n/a	LTP337	ltpFR	2	4	-1	OATS	968	n/a	5	-1	n/a	n/a	n/a	n/a	n/a
3689201	RECOG_TARGET	n/a	LTP337	ltpFR	2	4	1	RULER	1216	0	2	0	n/a	n/a	n/a	n/a	n/a
3689800	RECOG_RESP	n/a	LTP337	ltpFR	2	4	1	RULER	1216	0	n/a	0	n/a	n/a	n/a	n/a	n/a
3690644	RECOG_CONF	n/a	LTP337	ltpFR	2	4	1	RULER	1216	n/a	2	0	n/a	n/a	n/a	n/a	n/a
3692283	RECOG_LURE	n/a	LTP337	ltpFR	2	4	n/a	TELESCOPE	1446	0	3	n/a	n/a	n/a	n/a	n/a	n/a
3693465	RECOG_RESP	n/a	LTP337	ltpFR	2	4	n/a	TELESCOPE	1446	0	n/a	n/a	n/a	n/a	n/a	n/a	n/a
3693797	RECOG_CONF	n/a	LTP337	ltpFR	2	4	n/a	TELESCOPE	1446	n/a	3	n/a	n/a	n/a	n/a	n/a	n/a
3696164	RECOG_TARGET	n/a	LTP337	ltpFR	2	4	1	KNOB	787	1	4	0	n/a	n/a	n/a	n/a	n/a
3696991	RECOG_RESP	n/a	LTP337	ltpFR	2	4	1	KNOB	787	1	n/a	0	n/a	n/a	n/a	n/a	n/a
3697789	RECOG_CONF	n/a	LTP337	ltpFR	2	4	1	KNOB	787	n/a	4	0	n/a	n/a	n/a	n/a	n/a
3699496	RECOG_TARGET	n/a	LTP337	ltpFR	2	4	-1	CARTON	251	1	4	-1	n/a	n/a	n/a	n/a	n/a
3700141	RECOG_RESP	n/a	LTP337	ltpFR	2	4	-1	CARTON	251	1	n/a	-1	n/a	n/a	n/a	n/a	n/a
3700969	RECOG_CONF	n/a	LTP337	ltpFR	2	4	-1	CARTON	251	n/a	4	-1	n/a	n/a	n/a	n/a	n/a
3702894	RECOG_TARGET	n/a	LTP337	ltpFR	2	4	1	BARLEY	88	1	3	0	n/a	n/a	n/a	n/a	n/a
3703885	RECOG_RESP_VV	n/a	LTP337	ltpFR	2	4	1	BARLEY	88	0	n/a	0	n/a	n/a	n/a	n/a	n/a
3704836	RECOG_RESP	n/a	LTP337	ltpFR	2	4	1	BARLEY	88	1	n/a	0	n/a	n/a	n/a	n/a	n/a
3705836	RECOG_CONF	n/a	LTP337	ltpFR	2	4	1	BARLEY	88	n/a	3	0	n/a	n/a	n/a	n/a	n/a
3707392	RECOG_LURE	n/a	LTP337	ltpFR	2	4	n/a	ATTIC	56	0	4	n/a	n/a	n/a	n/a	n/a	n/a
3708610	RECOG_RESP	n/a	LTP337	ltpFR	2	4	n/a	ATTIC	56	0	n/a	n/a	n/a	n/a	n/a	n/a	n/a
3709604	RECOG_CONF	n/a	LTP337	ltpFR	2	4	n/a	ATTIC	56	n/a	4	n/a	n/a	n/a	n/a	n/a	n/a
3711240	RECOG_LURE	n/a	LTP337	ltpFR	2	4	n/a	PROTRACTOR	1133	0	4	n/a	n/a	n/a	n/a	n/a	n/a
3712420	RECOG_RESP	n/a	LTP337	ltpFR	2	4	n/a	PROTRACTOR	1133	0	n/a	n/a	n/a	n/a	n/a	n/a	n/a
3713439	RECOG_CONF	n/a	LTP337	ltpFR	2	4	n/a	PROTRACTOR	1133	n/a	4	n/a	n/a	n/a	n/a	n/a	n/a
3715072	RECOG_LURE	n/a	LTP337	ltpFR	2	4	n/a	COLONEL	348	0	2	n/a	n/a	n/a	n/a	n/a	n/a
3715815	RECOG_RESP	n/a	LTP337	ltpFR	2	4	n/a	COLONEL	348	0	n/a	n/a	n/a	n/a	n/a	n/a	n/a
3716724	RECOG_CONF	n/a	LTP337	ltpFR	2	4	n/a	COLONEL	348	n/a	2	n/a	n/a	n/a	n/a	n/a	n/a
3718320	RECOG_TARGET	n/a	LTP337	ltpFR	2	4	0	BEAN	105	1	5	0	n/a	n/a	n/a	n/a	n/a
3719161	RECOG_RESP	n/a	LTP337	ltpFR	2	4	0	BEAN	105	1	n/a	0	n/a	n/a	n/a	n/a	n/a
3720089	RECOG_CONF	n/a	LTP337	ltpFR	2	4	0	BEAN	105	n/a	5	0	n/a	n/a	n/a	n/a	n/a
3721735	RECOG_LURE	n/a	LTP337	ltpFR	2	4	n/a	KEY	773	0	2	n/a	n/a	n/a	n/a	n/a	n/a
3722495	RECOG_RESP	n/a	LTP337	ltpFR	2	4	n/a	KEY	773	0	n/a	n/a	n/a	n/a	n/a	n/a	n/a
3723405	RECOG_CONF	n/a	LTP337	ltpFR	2	4	n/a	KEY	773	n/a	2	n/a	n/a	n/a	n/a	n/a	n/a
3725133	RECOG_LURE	n/a	LTP337	ltpFR	2	4	n/a	VICTOR	1563	0	4	n/a	n/a	n/a	n/a	n/a	n/a
3725775	RECOG_RESP	n/a	LTP337	ltpFR	2	4	n/a	VICTOR	1563	0	n/a	n/a	n/a	n/a	n/a	n/a	n/a
3726759	RECOG_CONF	n/a	LTP337	ltpFR	2	4	n/a	VICTOR	1563	n/a	4	n/a	n/a	n/a	n/a	n/a	n/a
3728498	RECOG_TARGET	n/a	LTP337	ltpFR	2	4	-1	DETECTIVE	454	1	3	-1	n/a	n/a	n/a	n/a	n/a
3729506	RECOG_RESP	n/a	LTP337	ltpFR	2	4	-1	DETECTIVE	454	1	n/a	-1	n/a	n/a	n/a	n/a	n/a
3730494	RECOG_CONF	n/a	LTP337	ltpFR	2	4	-1	DETECTIVE	454	n/a	3	-1	n/a	n/a	n/a	n/a	n/a
3732080	RECOG_TARGET	n/a	LTP337	ltpFR	2	4	1	RUG	1215	1	4	0	n/a	n/a	n/a	n/a	n/a
3733196	RECOG_RESP	n/a	LTP337	ltpFR	2	4	1	RUG	1215	1	n/a	0	n/a	n/a	n/a	n/a	n/a
3733969	RECOG_CONF	n/a	LTP337	ltpFR	2	4	1	RUG	1215	n/a	4	0	n/a	n/a	n/a	n/a	n/a
3738342	REC_START	n/a	LTP337	ltpFR	2	5	n/a	n/a	n/a	n/a	n/a	n/a	n/a	n/a	n/a	n/a	n/a
3738360	RECOG_LURE	n/a	LTP337	ltpFR	2	5	n/a	EARRING	514	0	4	n/a	n/a	n/a	n/a	n/a	n/a
3739285	RECOG_RESP	n/a	LTP337	ltpFR	2	5	n/a	EARRING	514	0	n/a	n/a	n/a	n/a	n/a	n/a	n/a
3740239	RECOG_CONF	n/a	LTP337	ltpFR	2	5	n/a	EARRING	514	n/a	4	n/a	n/a	n/a	n/a	n/a	n/a
3741892	RECOG_TARGET	n/a	LTP337	ltpFR	2	5	0	TOOTHPASTE	1483	1	5	0	n/a	n/a	n/a	n/a	n/a
3742851	RECOG_RESP	n/a	LTP337	ltpFR	2	5	0	TOOTHPASTE	1483	1	n/a	0	n/a	n/a	n/a	n/a	n/a
3743589	RECOG_CONF	n/a	LTP337	ltpFR	2	5	0	TOOTHPASTE	1483	n/a	5	0	n/a	n/a	n/a	n/a	n/a
3745373	RECOG_TARGET	n/a	LTP337	ltpFR	2	5	1	STALLION	1369	1	3	0	n/a	n/a	n/a	n/a	n/a
3746036	RECOG_RESP	n/a	LTP337	ltpFR	2	5	1	STALLION	1369	1	n/a	0	n/a	n/a	n/a	n/a	n/a
3746895	RECOG_CONF	n/a	LTP337	ltpFR	2	5	1	STALLION	1369	n/a	3	0	n/a	n/a	n/a	n/a	n/a
3748588	RECOG_LURE	n/a	LTP337	ltpFR	2	5	n/a	TUSK	1523	0	4	n/a	n/a	n/a	n/a	n/a	n/a
3749370	RECOG_RESP	n/a	LTP337	ltpFR	2	5	n/a	TUSK	1523	0	n/a	n/a	n/a	n/a	n/a	n/a	n/a
3750259	RECOG_CONF	n/a	LTP337	ltpFR	2	5	n/a	TUSK	1523	n/a	4	n/a	n/a	n/a	n/a	n/a	n/a
3751870	RECOG_TARGET	n/a	LTP337	ltpFR	2	5	1	NUT	965	1	5	0	n/a	n/a	n/a	n/a	n/a
3752681	RECOG_RESP	n/a	LTP337	ltpFR	2	5	1	NUT	965	1	n/a	0	n/a	n/a	n/a	n/a	n/a
3753654	RECOG_CONF	n/a	LTP337	ltpFR	2	5	1	NUT	965	n/a	5	0	n/a	n/a	n/a	n/a	n/a
3755318	RECOG_TARGET	n/a	LTP337	ltpFR	2	5	0	SQUIRREL	1362	0	2	0	n/a	n/a	n/a	n/a	n/a
3756210	RECOG_RESP	n/a	LTP337	ltpFR	2	5	0	SQUIRREL	1362	0	n/a	0	n/a	n/a	n/a	n/a	n/a
3757144	RECOG_CONF	n/a	LTP337	ltpFR	2	5	0	SQUIRREL	1362	n/a	2	0	n/a	n/a	n/a	n/a	n/a
3758651	RECOG_TARGET	n/a	LTP337	ltpFR	2	5	0	COLESLAW	344	1	4	1	n/a	n/a	n/a	n/a	n/a
3759481	RECOG_RESP	n/a	LTP337	ltpFR	2	5	0	COLESLAW	344	1	n/a	1	n/a	n/a	n/a	n/a	n/a
3760949	RECOG_CONF	n/a	LTP337	ltpFR	2	5	0	COLESLAW	344	n/a	4	1	n/a	n/a	n/a	n/a	n/a
3762716	RECOG_LURE	n/a	LTP337	ltpFR	2	5	n/a	CHAMBER	277	0	3	n/a	n/a	n/a	n/a	n/a	n/a
3763905	RECOG_RESP	n/a	LTP337	ltpFR	2	5	n/a	CHAMBER	277	0	n/a	n/a	n/a	n/a	n/a	n/a	n/a
3765077	RECOG_CONF	n/a	LTP337	ltpFR	2	5	n/a	CHAMBER	277	n/a	3	n/a	n/a	n/a	n/a	n/a	n/a
3766630	RECOG_LURE	n/a	LTP337	ltpFR	2	5	n/a	TELEVISION	1447	0	3	n/a	n/a	n/a	n/a	n/a	n/a
3768460	RECOG_RESP	n/a	LTP337	ltpFR	2	5	n/a	TELEVISION	1447	0	n/a	n/a	n/a	n/a	n/a	n/a	n/a
3769470	RECOG_CONF	n/a	LTP337	ltpFR	2	5	n/a	TELEVISION	1447	n/a	3	n/a	n/a	n/a	n/a	n/a	n/a
3771260	RECOG_LURE	n/a	LTP337	ltpFR	2	5	n/a	ENGINE	535	0	4	n/a	n/a	n/a	n/a	n/a	n/a
3771945	RECOG_RESP	n/a	LTP337	ltpFR	2	5	n/a	ENGINE	535	0	n/a	n/a	n/a	n/a	n/a	n/a	n/a
3772873	RECOG_CONF	n/a	LTP337	ltpFR	2	5	n/a	ENGINE	535	n/a	4	n/a	n/a	n/a	n/a	n/a	n/a
3774509	RECOG_LURE	n/a	LTP337	ltpFR	2	5	n/a	GODDESS	646	0	2	n/a	n/a	n/a	n/a	n/a	n/a
3775775	RECOG_RESP	n/a	LTP337	ltpFR	2	5	n/a	GODDESS	646	0	n/a	n/a	n/a	n/a	n/a	n/a	n/a
3776784	RECOG_CONF	n/a	LTP337	ltpFR	2	5	n/a	GODDESS	646	n/a	2	n/a	n/a	n/a	n/a	n/a	n/a
3778457	RECOG_TARGET	n/a	LTP337	ltpFR	2	5	1	COUCH	386	1	5	0	n/a	n/a	n/a	n/a	n/a
3779291	RECOG_RESP	n/a	LTP337	ltpFR	2	5	1	COUCH	386	1	n/a	0	n/a	n/a	n/a	n/a	n/a
3780079	RECOG_CONF	n/a	LTP337	ltpFR	2	5	1	COUCH	386	n/a	5	0	n/a	n/a	n/a	n/a	n/a
3781889	RECOG_LURE	n/a	LTP337	ltpFR	2	5	n/a	WOUND	1624	0	4	n/a	n/a	n/a	n/a	n/a	n/a
3782650	RECOG_RESP	n/a	LTP337	ltpFR	2	5	n/a	WOUND	1624	0	n/a	n/a	n/a	n/a	n/a	n/a	n/a
3783569	RECOG_CONF	n/a	LTP337	ltpFR	2	5	n/a	WOUND	1624	n/a	4	n/a	n/a	n/a	n/a	n/a	n/a
3785220	RECOG_TARGET	n/a	LTP337	ltpFR	2	5	0	ANTLER	29	1	5	1	n/a	n/a	n/a	n/a	n/a
3786031	RECOG_RESP	n/a	LTP337	ltpFR	2	5	0	ANTLER	29	1	n/a	1	n/a	n/a	n/a	n/a	n/a
3786969	RECOG_CONF	n/a	LTP337	ltpFR	2	5	0	ANTLER	29	n/a	5	1	n/a	n/a	n/a	n/a	n/a
3788703	RECOG_TARGET	n/a	LTP337	ltpFR	2	5	1	MICROWAVE	892	1	2	0	n/a	n/a	n/a	n/a	n/a
3789761	RECOG_RESP	n/a	LTP337	ltpFR	2	5	1	MICROWAVE	892	1	n/a	0	n/a	n/a	n/a	n/a	n/a
3790845	RECOG_CONF	n/a	LTP337	ltpFR	2	5	1	MICROWAVE	892	n/a	2	0	n/a	n/a	n/a	n/a	n/a
3792500	RECOG_TARGET	n/a	LTP337	ltpFR	2	5	-1	FIREPLACE	570	0	1	-1	n/a	n/a	n/a	n/a	n/a
3793580	RECOG_RESP	n/a	LTP337	ltpFR	2	5	-1	FIREPLACE	570	0	n/a	-1	n/a	n/a	n/a	n/a	n/a
3794634	RECOG_CONF	n/a	LTP337	ltpFR	2	5	-1	FIREPLACE	570	n/a	1	-1	n/a	n/a	n/a	n/a	n/a
3796281	RECOG_LURE	n/a	LTP337	ltpFR	2	5	n/a	TOOTH	1481	0	2	n/a	n/a	n/a	n/a	n/a	n/a
3797355	RECOG_RESP	n/a	LTP337	ltpFR	2	5	n/a	TOOTH	1481	0	n/a	n/a	n/a	n/a	n/a	n/a	n/a
3798254	RECOG_CONF	n/a	LTP337	ltpFR	2	5	n/a	TOOTH	1481	n/a	2	n/a	n/a	n/a	n/a	n/a	n/a
3799830	RECOG_TARGET	n/a	LTP337	ltpFR	2	5	1	WRITER	1627	1	3	1	n/a	n/a	n/a	n/a	n/a
3801596	RECOG_RESP	n/a	LTP337	ltpFR	2	5	1	WRITER	1627	1	n/a	1	n/a	n/a	n/a	n/a	n/a
3802387	RECOG_CONF	n/a	LTP337	ltpFR	2	5	1	WRITER	1627	n/a	3	1	n/a	n/a	n/a	n/a	n/a
3804077	RECOG_LURE	n/a	LTP337	ltpFR	2	5	n/a	EAR	513	1	4	n/a	n/a	n/a	n/a	n/a	n/a
3804756	RECOG_RESP	n/a	LTP337	ltpFR	2	5	n/a	EAR	513	1	n/a	n/a	n/a	n/a	n/a	n/a	n/a
3805619	RECOG_CONF	n/a	LTP337	ltpFR	2	5	n/a	EAR	513	n/a	4	n/a	n/a	n/a	n/a	n/a	n/a
3807226	RECOG_TARGET	n/a	LTP337	ltpFR	2	5	-1	LIVER	833	1	5	-1	n/a	n/a	n/a	n/a	n/a
3807831	RECOG_RESP	n/a	LTP337	ltpFR	2	5	-1	LIVER	833	1	n/a	-1	n/a	n/a	n/a	n/a	n/a
3808839	RECOG_CONF	n/a	LTP337	ltpFR	2	5	-1	LIVER	833	n/a	5	-1	n/a	n/a	n/a	n/a	n/a
3812206	REC_START	n/a	LTP337	ltpFR	2	6	n/a	n/a	n/a	n/a	n/a	n/a	n/a	n/a	n/a	n/a	n/a
3812223	RECOG_TARGET	n/a	LTP337	ltpFR	2	6	1	DASHBOARD	441	1	4	0	n/a	n/a	n/a	n/a	n/a
3812885	RECOG_RESP	n/a	LTP337	ltpFR	2	6	1	DASHBOARD	441	1	n/a	0	n/a	n/a	n/a	n/a	n/a
3813823	RECOG_CONF	n/a	LTP337	ltpFR	2	6	1	DASHBOARD	441	n/a	4	0	n/a	n/a	n/a	n/a	n/a
3815355	RECOG_LURE	n/a	LTP337	ltpFR	2	6	n/a	CURTAIN	427	0	2	n/a	n/a	n/a	n/a	n/a	n/a
3816069	RECOG_RESP	n/a	LTP337	ltpFR	2	6	n/a	CURTAIN	427	0	n/a	n/a	n/a	n/a	n/a	n/a	n/a
3817068	RECOG_CONF	n/a	LTP337	ltpFR	2	6	n/a	CURTAIN	427	n/a	2	n/a	n/a	n/a	n/a	n/a	n/a
3818705	RECOG_LURE	n/a	LTP337	ltpFR	2	6	n/a	PUDDING	1139	0	2	n/a	n/a	n/a	n/a	n/a	n/a
3819479	RECOG_RESP	n/a	LTP337	ltpFR	2	6	n/a	PUDDING	1139	0	n/a	n/a	n/a	n/a	n/a	n/a	n/a
3820408	RECOG_CONF	n/a	LTP337	ltpFR	2	6	n/a	PUDDING	1139	n/a	2	n/a	n/a	n/a	n/a	n/a	n/a
3822335	RECOG_TARGET	n/a	LTP337	ltpFR	2	6	-1	OREGANO	983	1	5	-1	n/a	n/a	n/a	n/a	n/a
3823650	RECOG_RESP	n/a	LTP337	ltpFR	2	6	-1	OREGANO	983	1	n/a	-1	n/a	n/a	n/a	n/a	n/a
3824563	RECOG_CONF	n/a	LTP337	ltpFR	2	6	-1	OREGANO	983	n/a	5	-1	n/a	n/a	n/a	n/a	n/a
3826200	RECOG_LURE	n/a	LTP337	ltpFR	2	6	n/a	TOMBSTONE	1478	0	4	n/a	n/a	n/a	n/a	n/a	n/a
3827144	RECOG_RESP	n/a	LTP337	ltpFR	2	6	n/a	TOMBSTONE	1478	0	n/a	n/a	n/a	n/a	n/a	n/a	n/a
3828093	RECOG_CONF	n/a	LTP337	ltpFR	2	6	n/a	TOMBSTONE	1478	n/a	4	n/a	n/a	n/a	n/a	n/a	n/a
3829748	RECOG_TARGET	n/a	LTP337	ltpFR	2	6	1	CHAUFFEUR	283	1	5	1	n/a	n/a	n/a	n/a	n/a
3830575	RECOG_RESP	n/a	LTP337	ltpFR	2	6	1	CHAUFFEUR	283	1	n/a	1	n/a	n/a	n/a	n/a	n/a
3831480	RECOG_CONF	n/a	LTP337	ltpFR	2	6	1	CHAUFFEUR	283	n/a	5	1	n/a	n/a	n/a	n/a	n/a
3833246	RECOG_LURE	n/a	LTP337	ltpFR	2	6	n/a	ELECTRICIAN	521	1	2	n/a	n/a	n/a	n/a	n/a	n/a
3834700	RECOG_RESP	n/a	LTP337	ltpFR	2	6	n/a	ELECTRICIAN	521	1	n/a	n/a	n/a	n/a	n/a	n/a	n/a
3835588	RECOG_CONF	n/a	LTP337	ltpFR	2	6	n/a	ELECTRICIAN	521	n/a	2	n/a	n/a	n/a	n/a	n/a	n/a
3837194	RECOG_LURE	n/a	LTP337	ltpFR	2	6	n/a	WHEEL	1603	0	2	n/a	n/a	n/a	n/a	n/a	n/a
3837910	RECOG_RESP_VV	n/a	LTP337	ltpFR	2	6	n/a	WHEEL	1603	1	n/a	n/a	n/a	n/a	n/a	n/a	n/a
3839194	RECOG_RESP	n/a	LTP337	ltpFR	2	6	n/a	WHEEL	1603	0	n/a	n/a	n/a	n/a	n/a	n/a	n/a
3839718	RECOG_CONF	n/a	LTP337	ltpFR	2	6	n/a	WHEEL	1603	n/a	2	n/a	n/a	n/a	n/a	n/a	n/a
3841892	RECOG_TARGET	n/a	LTP337	ltpFR	2	6	1	THIGH	1457	1	4	1	n/a	n/a	n/a	n/a	n/a
3842610	RECOG_RESP	n/a	LTP337	ltpFR	2	6	1	THIGH	1457	1	n/a	1	n/a	n/a	n/a	n/a	n/a
3843753	RECOG_CONF	n/a	LTP337	ltpFR	2	6	1	THIGH	1457	n/a	4	1	n/a	n/a	n/a	n/a	n/a
3845357	RECOG_LURE	n/a	LTP337	ltpFR	2	6	n/a	FURNITURE	616	0	2	n/a	n/a	n/a	n/a	n/a	n/a
3846279	RECOG_RESP	n/a	LTP337	ltpFR	2	6	n/a	FURNITURE	616	0	n/a	n/a	n/a	n/a	n/a	n/a	n/a
3847288	RECOG_CONF	n/a	LTP337	ltpFR	2	6	n/a	FURNITURE	616	n/a	2	n/a	n/a	n/a	n/a	n/a	n/a
3848905	RECOG_TARGET	n/a	LTP337	ltpFR	2	6	0	BLANKET	135	0	3	1	n/a	n/a	n/a	n/a	n/a
3849744	RECOG_RESP	n/a	LTP337	ltpFR	2	6	0	BLANKET	135	0	n/a	1	n/a	n/a	n/a	n/a	n/a
3850071	RECOG_CONF	n/a	LTP337	ltpFR	2	6	0	BLANKET	135	n/a	3	1	n/a	n/a	n/a	n/a	n/a
3852154	RECOG_TARGET	n/a	LTP337	ltpFR	2	6	1	ROBIN	1199	1	4	0	n/a	n/a	n/a	n/a	n/a
3852885	RECOG_RESP	n/a	LTP337	ltpFR	2	6	1	ROBIN	1199	1	n/a	0	n/a	n/a	n/a	n/a	n/a
3853733	RECOG_CONF	n/a	LTP337	ltpFR	2	6	1	ROBIN	1199	n/a	4	0	n/a	n/a	n/a	n/a	n/a
3855335	RECOG_TARGET	n/a	LTP337	ltpFR	2	6	-1	TIDE	1465	1	2	-1	n/a	n/a	n/a	n/a	n/a
3856160	RECOG_RESP	n/a	LTP337	ltpFR	2	6	-1	TIDE	1465	1	n/a	-1	n/a	n/a	n/a	n/a	n/a
3856949	RECOG_CONF	n/a	LTP337	ltpFR	2	6	-1	TIDE	1465	n/a	2	-1	n/a	n/a	n/a	n/a	n/a
3858685	RECOG_LURE	n/a	LTP337	ltpFR	2	6	n/a	PIANO	1057	0	1	n/a	n/a	n/a	n/a	n/a	n/a
3859499	RECOG_RESP	n/a	LTP337	ltpFR	2	6	n/a	PIANO	1057	0	n/a	n/a	n/a	n/a	n/a	n/a	n/a
3860408	RECOG_CONF	n/a	LTP337	ltpFR	2	6	n/a	PIANO	1057	n/a	1	n/a	n/a	n/a	n/a	n/a	n/a
3862032	RECOG_LURE	n/a	LTP337	ltpFR	2	6	n/a	ELF	525	0	3	n/a	n/a	n/a	n/a	n/a	n/a
3862894	RECOG_RESP	n/a	LTP337	ltpFR	2	6	n/a	ELF	525	0	n/a	n/a	n/a	n/a	n/a	n/a	n/a
3864483	RECOG_CONF	n/a	LTP337	ltpFR	2	6	n/a	ELF	525	n/a	3	n/a	n/a	n/a	n/a	n/a	n/a
3866113	RECOG_TARGET	n/a	LTP337	ltpFR	2	6	1	GANG	619	1	4	0	n/a	n/a	n/a	n/a	n/a
3868270	RECOG_RESP	n/a	LTP337	ltpFR	2	6	1	GANG	619	1	n/a	0	n/a	n/a	n/a	n/a	n/a
3869533	RECOG_CONF	n/a	LTP337	ltpFR	2	6	1	GANG	619	n/a	4	0	n/a	n/a	n/a	n/a	n/a
3871327	RECOG_TARGET	n/a	LTP337	ltpFR	2	6	0	APPLICATION	34	0	4	0	n/a	n/a	n/a	n/a	n/a
3872279	RECOG_RESP	n/a	LTP337	ltpFR	2	6	0	APPLICATION	34	0	n/a	0	n/a	n/a	n/a	n/a	n/a
3873253	RECOG_CONF	n/a	LTP337	ltpFR	2	6	0	APPLICATION	34	n/a	4	0	n/a	n/a	n/a	n/a	n/a
3875059	RECOG_TARGET	n/a	LTP337	ltpFR	2	6	1	WHEAT	1602	1	3	0	n/a	n/a	n/a	n/a	n/a
3877525	RECOG_RESP	n/a	LTP337	ltpFR	2	6	1	WHEAT	1602	1	n/a	0	n/a	n/a	n/a	n/a	n/a
3878481	RECOG_CONF	n/a	LTP337	ltpFR	2	6	1	WHEAT	1602	n/a	3	0	n/a	n/a	n/a	n/a	n/a
3880256	RECOG_LURE	n/a	LTP337	ltpFR	2	6	n/a	TOWER	1490	0	2	n/a	n/a	n/a	n/a	n/a	n/a
3881474	RECOG_RESP	n/a	LTP337	ltpFR	2	6	n/a	TOWER	1490	0	n/a	n/a	n/a	n/a	n/a	n/a	n/a
3882598	RECOG_CONF	n/a	LTP337	ltpFR	2	6	n/a	TOWER	1490	n/a	2	n/a	n/a	n/a	n/a	n/a	n/a
3884188	RECOG_TARGET	n/a	LTP337	ltpFR	2	6	0	VINEGAR	1569	1	4	1	n/a	n/a	n/a	n/a	n/a
3885860	RECOG_RESP	n/a	LTP337	ltpFR	2	6	0	VINEGAR	1569	1	n/a	1	n/a	n/a	n/a	n/a	n/a
3886823	RECOG_CONF	n/a	LTP337	ltpFR	2	6	0	VINEGAR	1569	n/a	4	1	n/a	n/a	n/a	n/a	n/a
3890089	REC_START	n/a	LTP337	ltpFR	2	7	n/a	n/a	n/a	n/a	n/a	n/a	n/a	n/a	n/a	n/a	n/a
3890118	RECOG_LURE	n/a	LTP337	ltpFR	2	7	n/a	FAUCET	555	0	3	n/a	n/a	n/a	n/a	n/a	n/a
3891267	RECOG_RESP	n/a	LTP337	ltpFR	2	7	n/a	FAUCET	555	0	n/a	n/a	n/a	n/a	n/a	n/a	n/a
3892244	RECOG_CONF	n/a	LTP337	ltpFR	2	7	n/a	FAUCET	555	n/a	3	n/a	n/a	n/a	n/a	n/a	n/a
3893933	RECOG_TARGET	n/a	LTP337	ltpFR	2	7	1	BATHTUB	100	0	2	0	n/a	n/a	n/a	n/a	n/a
3895057	RECOG_RESP	n/a	LTP337	ltpFR	2	7	1	BATHTUB	100	0	n/a	0	n/a	n/a	n/a	n/a	n/a
3895916	RECOG_CONF	n/a	LTP337	ltpFR	2	7	1	BATHTUB	100	n/a	2	0	n/a	n/a	n/a	n/a	n/a
3897731	RECOG_LURE	n/a	LTP337	ltpFR	2	7	n/a	MARKER	870	0	4	n/a	n/a	n/a	n/a	n/a	n/a
3899002	RECOG_RESP	n/a	LTP337	ltpFR	2	7	n/a	MARKER	870	0	n/a	n/a	n/a	n/a	n/a	n/a	n/a
3899876	RECOG_CONF	n/a	LTP337	ltpFR	2	7	n/a	MARKER	870	n/a	4	n/a	n/a	n/a	n/a	n/a	n/a
3901496	RECOG_TARGET	n/a	LTP337	ltpFR	2	7	1	CUFF	423	1	4	0	n/a	n/a	n/a	n/a	n/a
3902503	RECOG_RESP	n/a	LTP337	ltpFR	2	7	1	CUFF	423	1	n/a	0	n/a	n/a	n/a	n/a	n/a
3903486	RECOG_CONF	n/a	LTP337	ltpFR	2	7	1	CUFF	423	n/a	4	0	n/a	n/a	n/a	n/a	n/a
3905011	RECOG_TARGET	n/a	LTP337	ltpFR	2	7	1	WATERFALL	1595	1	4	0	n/a	n/a	n/a	n/a	n/a
3905923	RECOG_RESP	n/a	LTP337	ltpFR	2	7	1	WATERFALL	1595	1	n/a	0	n/a	n/a	n/a	n/a	n/a
3906826	RECOG_CONF	n/a	LTP337	ltpFR	2	7	1	WATERFALL	1595	n/a	4	0	n/a	n/a	n/a	n/a	n/a
3908476	RECOG_TARGET	n/a	LTP337	ltpFR	2	7	0	CREW	406	1	5	0	n/a	n/a	n/a	n/a	n/a
3909218	RECOG_RESP	n/a	LTP337	ltpFR	2	7	0	CREW	406	1	n/a	0	n/a	n/a	n/a	n/a	n/a
3910066	RECOG_CONF	n/a	LTP337	ltpFR	2	7	0	CREW	406	n/a	5	0	n/a	n/a	n/a	n/a	n/a
3911757	RECOG_TARGET	n/a	LTP337	ltpFR	2	7	0	FLY	586	0	3	0	n/a	n/a	n/a	n/a	n/a
3912637	RECOG_RESP	n/a	LTP337	ltpFR	2	7	0	FLY	586	0	n/a	0	n/a	n/a	n/a	n/a	n/a
3913566	RECOG_CONF	n/a	LTP337	ltpFR	2	7	0	FLY	586	n/a	3	0	n/a	n/a	n/a	n/a	n/a
3915206	RECOG_TARGET	n/a	LTP337	ltpFR	2	7	1	PERSONNEL	1053	1	5	1	n/a	n/a	n/a	n/a	n/a
3916183	RECOG_RESP	n/a	LTP337	ltpFR	2	7	1	PERSONNEL	1053	1	n/a	1	n/a	n/a	n/a	n/a	n/a
3917106	RECOG_CONF	n/a	LTP337	ltpFR	2	7	1	PERSONNEL	1053	n/a	5	1	n/a	n/a	n/a	n/a	n/a
3918655	RECOG_TARGET	n/a	LTP337	ltpFR	2	7	0	TURKEY	1520	1	4	0	n/a	n/a	n/a	n/a	n/a
3919333	RECOG_RESP	n/a	LTP337	ltpFR	2	7	0	TURKEY	1520	1	n/a	0	n/a	n/a	n/a	n/a	n/a
3920186	RECOG_CONF	n/a	LTP337	ltpFR	2	7	0	TURKEY	1520	n/a	4	0	n/a	n/a	n/a	n/a	n/a
3921902	RECOG_TARGET	n/a	LTP337	ltpFR	2	7	1	FOREHEAD	592	1	5	0	n/a	n/a	n/a	n/a	n/a
3922638	RECOG_RESP	n/a	LTP337	ltpFR	2	7	1	FOREHEAD	592	1	n/a	0	n/a	n/a	n/a	n/a	n/a
3923593	RECOG_CONF	n/a	LTP337	ltpFR	2	7	1	FOREHEAD	592	n/a	5	0	n/a	n/a	n/a	n/a	n/a
3925251	RECOG_LURE	n/a	LTP337	ltpFR	2	7	n/a	COUGAR	387	1	3	n/a	n/a	n/a	n/a	n/a	n/a
3926343	RECOG_RESP	n/a	LTP337	ltpFR	2	7	n/a	COUGAR	387	1	n/a	n/a	n/a	n/a	n/a	n/a	n/a
3927544	RECOG_CONF	n/a	LTP337	ltpFR	2	7	n/a	COUGAR	387	n/a	3	n/a	n/a	n/a	n/a	n/a	n/a
3929249	RECOG_LURE	n/a	LTP337	ltpFR	2	7	n/a	GANGSTER	620	1	2	n/a	n/a	n/a	n/a	n/a	n/a
3930423	RECOG_RESP	n/a	LTP337	ltpFR	2	7	n/a	GANGSTER	620	1	n/a	n/a	n/a	n/a	n/a	n/a	n/a
3932321	RECOG_CONF	n/a	LTP337	ltpFR	2	7	n/a	GANGSTER	620	n/a	2	n/a	n/a	n/a	n/a	n/a	n/a
3933746	RECOG_TARGET	n/a	LTP337	ltpFR	2	7	-1	BISCUIT	130	1	4	-1	n/a	n/a	n/a	n/a	n/a
3934538	RECOG_RESP	n/a	LTP337	ltpFR	2	7	-1	BISCUIT	130	1	n/a	-1	n/a	n/a	n/a	n/a	n/a
3935426	RECOG_CONF	n/a	LTP337	ltpFR	2	7	-1	BISCUIT	130	n/a	4	-1	n/a	n/a	n/a	n/a	n/a
3936845	RECOG_TARGET	n/a	LTP337	ltpFR	2	7	0	SALAD	1224	0	2	0	n/a	n/a	n/a	n/a	n/a
3937502	RECOG_RESP	n/a	LTP337	ltpFR	2	7	0	SALAD	1224	0	n/a	0	n/a	n/a	n/a	n/a	n/a
3937801	RECOG_CONF	n/a	LTP337	ltpFR	2	7	0	SALAD	1224	n/a	2	0	n/a	n/a	n/a	n/a	n/a
3939860	RECOG_LURE	n/a	LTP337	ltpFR	2	7	n/a	LION	827	0	1	n/a	n/a	n/a	n/a	n/a	n/a
3940987	RECOG_RESP	n/a	LTP337	ltpFR	2	7	n/a	LION	827	0	n/a	n/a	n/a	n/a	n/a	n/a	n/a
3941841	RECOG_CONF	n/a	LTP337	ltpFR	2	7	n/a	LION	827	n/a	1	n/a	n/a	n/a	n/a	n/a	n/a
3943392	RECOG_TARGET	n/a	LTP337	ltpFR	2	7	0	UNDERWEAR	1537	1	3	0	n/a	n/a	n/a	n/a	n/a
3945253	RECOG_RESP	n/a	LTP337	ltpFR	2	7	0	UNDERWEAR	1537	1	n/a	0	n/a	n/a	n/a	n/a	n/a
3946224	RECOG_CONF	n/a	LTP337	ltpFR	2	7	0	UNDERWEAR	1537	n/a	3	0	n/a	n/a	n/a	n/a	n/a
3947839	RECOG_TARGET	n/a	LTP337	ltpFR	2	7	1	STRAW	1390	1	5	0	n/a	n/a	n/a	n/a	n/a
3949178	RECOG_RESP	n/a	LTP337	ltpFR	2	7	1	STRAW	1390	1	n/a	0	n/a	n/a	n/a	n/a	n/a
3949663	RECOG_CONF	n/a	LTP337	ltpFR	2	7	1	STRAW	1390	n/a	5	0	n/a	n/a	n/a	n/a	n/a
3951705	RECOG_TARGET	n/a	LTP337	ltpFR	2	7	1	CLOTHES	327	0	1	0	n/a	n/a	n/a	n/a	n/a
3952752	RECOG_RESP	n/a	LTP337	ltpFR	2	7	1	CLOTHES	327	0	n/a	0	n/a	n/a	n/a	n/a	n/a
3953571	RECOG_CONF	n/a	LTP337	ltpFR	2	7	1	CLOTHES	327	n/a	1	0	n/a	n/a	n/a	n/a	n/a
3955286	RECOG_LURE	n/a	LTP337	ltpFR	2	7	n/a	TORNADO	1485	0	2	n/a	n/a	n/a	n/a	n/a	n/a
3956402	RECOG_RESP	n/a	LTP337	ltpFR	2	7	n/a	TORNADO	1485	0	n/a	n/a	n/a	n/a	n/a	n/a	n/a
3957451	RECOG_CONF	n/a	LTP337	ltpFR	2	7	n/a	TORNADO	1485	n/a	2	n/a	n/a	n/a	n/a	n/a	n/a
3959134	RECOG_TARGET	n/a	LTP337	ltpFR	2	7	-1	DANDRUFF	439	1	3	-1	n/a	n/a	n/a	n/a	n/a
3960168	RECOG_RESP	n/a	LTP337	ltpFR	2	7	-1	DANDRUFF	439	1	n/a	-1	n/a	n/a	n/a	n/a	n/a
3961143	RECOG_CONF	n/a	LTP337	ltpFR	2	7	-1	DANDRUFF	439	n/a	3	-1	n/a	n/a	n/a	n/a	n/a
3965717	REC_START	n/a	LTP337	ltpFR	2	8	n/a	n/a	n/a	n/a	n/a	n/a	n/a	n/a	n/a	n/a	n/a
3965730	RECOG_LURE	n/a	LTP337	ltpFR	2	8	n/a	ICING	732	0	1	n/a	n/a	n/a	n/a	n/a	n/a
3966625	RECOG_RESP	n/a	LTP337	ltpFR	2	8	n/a	ICING	732	0	n/a	n/a	n/a	n/a	n/a	n/a	n/a
3967819	RECOG_CONF	n/a	LTP337	ltpFR	2	8	n/a	ICING	732	n/a	1	n/a	n/a	n/a	n/a	n/a	n/a
3969395	RECOG_LURE	n/a	LTP337	ltpFR	2	8	n/a	SCRIBBLE	1256	0	2	n/a	n/a	n/a	n/a	n/a	n/a
3970190	RECOG_RESP	n/a	LTP337	ltpFR	2	8	n/a	SCRIBBLE	1256	0	n/a	n/a	n/a	n/a	n/a	n/a	n/a
3971139	RECOG_CONF	n/a	LTP337	ltpFR	2	8	n/a	SCRIBBLE	1256	n/a	2	n/a	n/a	n/a	n/a	n/a	n/a
3972777	RECOG_TARGET	n/a	LTP337	ltpFR	2	8	0	FLASK	576	1	5	0	n/a	n/a	n/a	n/a	n/a
3973591	RECOG_RESP	n/a	LTP337	ltpFR	2	8	0	FLASK	576	1	n/a	0	n/a	n/a	n/a	n/a	n/a
3974664	RECOG_CONF	n/a	LTP337	ltpFR	2	8	0	FLASK	576	n/a	5	0	n/a	n/a	n/a	n/a	n/a
3976275	RECOG_LURE	n/a	LTP337	ltpFR	2	8	n/a	MAMMAL	861	0	2	n/a	n/a	n/a	n/a	n/a	n/a
3976990	RECOG_RESP	n/a	LTP337	ltpFR	2	8	n/a	MAMMAL	861	0	n/a	n/a	n/a	n/a	n/a	n/a	n/a
3977919	RECOG_CONF	n/a	LTP337	ltpFR	2	8	n/a	MAMMAL	861	n/a	2	n/a	n/a	n/a	n/a	n/a	n/a
3979540	RECOG_LURE	n/a	LTP337	ltpFR	2	8	n/a	RUST	1219	0	3	n/a	n/a	n/a	n/a	n/a	n/a
3980300	RECOG_RESP	n/a	LTP337	ltpFR	2	8	n/a	RUST	1219	0	n/a	n/a	n/a	n/a	n/a	n/a	n/a
3980682	RECOG_CONF	n/a	LTP337	ltpFR	2	8	n/a	RUST	1219	n/a	3	n/a	n/a	n/a	n/a	n/a	n/a
3982905	RECOG_TARGET	n/a	LTP337	ltpFR	2	8	0	PAWN	1030	1	5	0	n/a	n/a	n/a	n/a	n/a
3984031	RECOG_RESP	n/a	LTP337	ltpFR	2	8	0	PAWN	1030	1	n/a	0	n/a	n/a	n/a	n/a	n/a
3984876	RECOG_CONF	n/a	LTP337	ltpFR	2	8	0	PAWN	1030	n/a	5	0	n/a	n/a	n/a	n/a	n/a
3986554	RECOG_TARGET	n/a	LTP337	ltpFR	2	8	0	TART	1436	1	5	0	n/a	n/a	n/a	n/a	n/a
3987211	RECOG_RESP	n/a	LTP337	ltpFR	2	8	0	TART	1436	1	n/a	0	n/a	n/a	n/a	n/a	n/a
3988211	RECOG_CONF	n/a	LTP337	ltpFR	2	8	0	TART	1436	n/a	5	0	n/a	n/a	n/a	n/a	n/a
3990218	RECOG_LURE	n/a	LTP337	ltpFR	2	8	n/a	SHEARS	1276	0	4	n/a	n/a	n/a	n/a	n/a	n/a
3991470	RECOG_RESP	n/a	LTP337	ltpFR	2	8	n/a	SHEARS	1276	0	n/a	n/a	n/a	n/a	n/a	n/a	n/a
3993004	RECOG_CONF	n/a	LTP337	ltpFR	2	8	n/a	SHEARS	1276	n/a	4	n/a	n/a	n/a	n/a	n/a	n/a
3994450	RECOG_TARGET	n/a	LTP337	ltpFR	2	8	1	BROOK	177	1	5	0	n/a	n/a	n/a	n/a	n/a
3995456	RECOG_RESP	n/a	LTP337	ltpFR	2	8	1	BROOK	177	1	n/a	0	n/a	n/a	n/a	n/a	n/a
3995894	RECOG_CONF	n/a	LTP337	ltpFR	2	8	1	BROOK	177	n/a	5	0	n/a	n/a	n/a	n/a	n/a
3998014	RECOG_LURE	n/a	LTP337	ltpFR	2	8	n/a	MONK	910	0	5	n/a	n/a	n/a	n/a	n/a	n/a
3998840	RECOG_RESP	n/a	LTP337	ltpFR	2	8	n/a	MONK	910	0	n/a	n/a	n/a	n/a	n/a	n/a	n/a
4000080	RECOG_CONF	n/a	LTP337	ltpFR	2	8	n/a	MONK	910	n/a	5	n/a	n/a	n/a	n/a	n/a	n/a
4001363	RECOG_TARGET	n/a	LTP337	ltpFR	2	8	1	CABINET	212	1	4	0	n/a	n/a	n/a	n/a	n/a
4002401	RECOG_RESP	n/a	LTP337	ltpFR	2	8	1	CABINET	212	1	n/a	0	n/a	n/a	n/a	n/a	n/a
4003254	RECOG_CONF	n/a	LTP337	ltpFR	2	8	1	CABINET	212	n/a	4	0	n/a	n/a	n/a	n/a	n/a
4004794	RECOG_LURE	n/a	LTP337	ltpFR	2	8	n/a	SCREEN	1253	0	2	n/a	n/a	n/a	n/a	n/a	n/a
4005510	RECOG_RESP	n/a	LTP337	ltpFR	2	8	n/a	SCREEN	1253	0	n/a	n/a	n/a	n/a	n/a	n/a	n/a
4005869	RECOG_CONF	n/a	LTP337	ltpFR	2	8	n/a	SCREEN	1253	n/a	2	n/a	n/a	n/a	n/a	n/a	n/a
4008159	RECOG_LURE	n/a	LTP337	ltpFR	2	8	n/a	SPOUSE	1358	0	5	n/a	n/a	n/a	n/a	n/a	n/a
4009045	RECOG_RESP	n/a	LTP337	ltpFR	2	8	n/a	SPOUSE	1358	0	n/a	n/a	n/a	n/a	n/a	n/a	n/a
4009934	RECOG_CONF	n/a	LTP337	ltpFR	2	8	n/a	SPOUSE	1358	n/a	5	n/a	n/a	n/a	n/a	n/a	n/a
4011642	RECOG_TARGET	n/a	LTP337	ltpFR	2	8	0	TREAT	1501	1	3	0	n/a	n/a	n/a	n/a	n/a
4012626	RECOG_RESP	n/a	LTP337	ltpFR	2	8	0	TREAT	1501	1	n/a	0	n/a	n/a	n/a	n/a	n/a
4013052	RECOG_CONF	n/a	LTP337	ltpFR	2	8	0	TREAT	1501	n/a	3	0	n/a	n/a	n/a	n/a	n/a
4015089	RECOG_TARGET	n/a	LTP337	ltpFR	2	8	-1	VASE	1549	1	5	-1	n/a	n/a	n/a	n/a	n/a
4016181	RECOG_RESP	n/a	LTP337	ltpFR	2	8	-1	VASE	1549	1	n/a	-1	n/a	n/a	n/a	n/a	n/a
4017101	RECOG_CONF	n/a	LTP337	ltpFR	2	8	-1	VASE	1549	n/a	5	-1	n/a	n/a	n/a	n/a	n/a
4018655	RECOG_TARGET	n/a	LTP337	ltpFR	2	8	0	MAP	865	1	5	0	n/a	n/a	n/a	n/a	n/a
4019426	RECOG_RESP	n/a	LTP337	ltpFR	2	8	0	MAP	865	1	n/a	0	n/a	n/a	n/a	n/a	n/a
4020531	RECOG_CONF	n/a	LTP337	ltpFR	2	8	0	MAP	865	n/a	5	0	n/a	n/a	n/a	n/a	n/a
4022103	RECOG_TARGET	n/a	LTP337	ltpFR	2	8	-1	BRIEFCASE	175	1	5	-1	n/a	n/a	n/a	n/a	n/a
4022858	RECOG_RESP	n/a	LTP337	ltpFR	2	8	-1	BRIEFCASE	175	1	n/a	-1	n/a	n/a	n/a	n/a	n/a
4023991	RECOG_CONF	n/a	LTP337	ltpFR	2	8	-1	BRIEFCASE	175	n/a	5	-1	n/a	n/a	n/a	n/a	n/a
4025702	RECOG_TARGET	n/a	LTP337	ltpFR	2	8	1	OVAL	990	1	5	0	n/a	n/a	n/a	n/a	n/a
4026456	RECOG_RESP	n/a	LTP337	ltpFR	2	8	1	OVAL	990	1	n/a	0	n/a	n/a	n/a	n/a	n/a
4027444	RECOG_CONF	n/a	LTP337	ltpFR	2	8	1	OVAL	990	n/a	5	0	n/a	n/a	n/a	n/a	n/a
4029166	RECOG_LURE	n/a	LTP337	ltpFR	2	8	n/a	PAINT	1003	0	2	n/a	n/a	n/a	n/a	n/a	n/a
4029945	RECOG_RESP	n/a	LTP337	ltpFR	2	8	n/a	PAINT	1003	0	n/a	n/a	n/a	n/a	n/a	n/a	n/a
4030799	RECOG_CONF	n/a	LTP337	ltpFR	2	8	n/a	PAINT	1003	n/a	2	n/a	n/a	n/a	n/a	n/a	n/a
4032481	RECOG_TARGET	n/a	LTP337	ltpFR	2	8	0	LODGE	839	1	4	0	n/a	n/a	n/a	n/a	n/a
4033336	RECOG_RESP	n/a	LTP337	ltpFR	2	8	0	LODGE	839	1	n/a	0	n/a	n/a	n/a	n/a	n/a
4034265	RECOG_CONF	n/a	LTP337	ltpFR	2	8	0	LODGE	839	n/a	4	0	n/a	n/a	n/a	n/a	n/a
4044346	REC_START	n/a	LTP337	ltpFR	2	9	n/a	n/a	n/a	n/a	n/a	n/a	n/a	n/a	n/a	n/a	n/a
4044375	RECOG_LURE	n/a	LTP337	ltpFR	2	9	n/a	CONTINENT	367	0	5	n/a	n/a	n/a	n/a	n/a	n/a
4045614	RECOG_RESP	n/a	LTP337	ltpFR	2	9	n/a	CONTINENT	367	0	n/a	n/a	n/a	n/a	n/a	n/a	n/a
4046570	RECOG_CONF	n/a	LTP337	ltpFR	2	9	n/a	CONTINENT	367	n/a	5	n/a	n/a	n/a	n/a	n/a	n/a
4048256	RECOG_LURE	n/a	LTP337	ltpFR	2	9	n/a	SHELF	1280	0	2	n/a	n/a	n/a	n/a	n/a	n/a
4048949	RECOG_RESP	n/a	LTP337	ltpFR	2	9	n/a	SHELF	1280	0	n/a	n/a	n/a	n/a	n/a	n/a	n/a
4049268	RECOG_CONF	n/a	LTP337	ltpFR	2	9	n/a	SHELF	1280	n/a	2	n/a	n/a	n/a	n/a	n/a	n/a
4051405	RECOG_TARGET	n/a	LTP337	ltpFR	2	9	1	VEIN	1554	1	5	1	n/a	n/a	n/a	n/a	n/a
4052380	RECOG_RESP	n/a	LTP337	ltpFR	2	9	1	VEIN	1554	1	n/a	1	n/a	n/a	n/a	n/a	n/a
4053303	RECOG_CONF	n/a	LTP337	ltpFR	2	9	1	VEIN	1554	n/a	5	1	n/a	n/a	n/a	n/a	n/a
