mstime	trial_type	stim_file	subject	experiment	session	trial	task	item_name	item_num	recog_resp	recog_conf	resp	color_r	color_g	color_b	case	font
0	SESS_START	n/a	LTP204	ltpFR	4	n/a	n/a	n/a	n/a	1	n/a	n/a	n/a	n/a	n/a	n/a	n/a
203331	WORD	wordpools/wasnorm_wordpool_less_exclusions.txt	LTP204	ltpFR	4	1	0	VIOLIN	1571	n/a	n/a	0	0.57763671875	0.412841796875	1	upper	amplitud.ttf
207462	WORD	wordpools/wasnorm_wordpool_less_exclusions.txt	LTP204	ltpFR	4	1	0	BEET	115	n/a	n/a	0	0.57763671875	0.412841796875	1	upper	amplitud.ttf
211344	WORD	wordpools/wasnorm_wordpool_less_exclusions.txt	LTP204	ltpFR	4	1	0	COW	393	n/a	n/a	1	0.57763671875	0.412841796875	1	upper	amplitud.ttf
215326	WORD	wordpools/wasnorm_wordpool_less_exclusions.txt	LTP204	ltpFR	4	1	1	MOAT	903	n/a	n/a	0	0.422607421875	0.5869140625	0	lower	zerothre.ttf
219490	WORD	wordpools/wasnorm_wordpool_less_exclusions.txt	LTP204	ltpFR	4	1	1	TUNA	1518	n/a	n/a	1	0.422607421875	0.5869140625	0	lower	zerothre.ttf
223400	WORD	wordpools/wasnorm_wordpool_less_exclusions.txt	LTP204	ltpFR	4	1	1	WALL	1582	n/a	n/a	0	0.422607421875	0.5869140625	0	lower	zerothre.ttf
227271	WORD	wordpools/wasnorm_wordpool_less_exclusions.txt	LTP204	ltpFR	4	1	1	ABDOMEN	1	n/a	n/a	1	0.422607421875	0.5869140625	0	lower	zerothre.ttf
231303	WORD	wordpools/wasnorm_wordpool_less_exclusions.txt	LTP204	ltpFR	4	1	1	SURF	1412	n/a	n/a	0	0.422607421875	0.5869140625	0	lower	zerothre.ttf
235301	WORD	wordpools/wasnorm_wordpool_less_exclusions.txt	LTP204	ltpFR	4	1	1	LODGE	839	n/a	n/a	0	0.422607421875	0.5869140625	0	lower	zerothre.ttf
239166	WORD	wordpools/wasnorm_wordpool_less_exclusions.txt	LTP204	ltpFR	4	1	0	PUPPY	1144	n/a	n/a	0	0.57763671875	0.412841796875	1	upper	amplitud.ttf
243242	WORD	wordpools/wasnorm_wordpool_less_exclusions.txt	LTP204	ltpFR	4	1	0	VET	1560	n/a	n/a	1	0.57763671875	0.412841796875	1	upper	amplitud.ttf
247397	WORD	wordpools/wasnorm_wordpool_less_exclusions.txt	LTP204	ltpFR	4	1	1	BARK	87	n/a	n/a	0	0.422607421875	0.5869140625	0	lower	zerothre.ttf
251511	WORD	wordpools/wasnorm_wordpool_less_exclusions.txt	LTP204	ltpFR	4	1	1	TICK	1463	n/a	n/a	1	0.422607421875	0.5869140625	0	lower	zerothre.ttf
255688	WORD	wordpools/wasnorm_wordpool_less_exclusions.txt	LTP204	ltpFR	4	1	0	TROUT	1511	n/a	n/a	1	0.57763671875	0.412841796875	1	upper	amplitud.ttf
259821	WORD	wordpools/wasnorm_wordpool_less_exclusions.txt	LTP204	ltpFR	4	1	0	MESSAGE	888	n/a	n/a	0	0.57763671875	0.412841796875	1	upper	amplitud.ttf
263993	WORD	wordpools/wasnorm_wordpool_less_exclusions.txt	LTP204	ltpFR	4	1	0	EDITORIAL	517	n/a	n/a	1	0.57763671875	0.412841796875	1	upper	amplitud.ttf
269866	REC_START	n/a	LTP204	ltpFR	4	1	n/a	n/a	n/a	n/a	n/a	n/a	n/a	n/a	n/a	n/a	n/a
271387	REC_WORD	wordpools/wasnorm_wordpool_less_exclusions.txt	LTP204	ltpFR	4	1	0	EDITORIAL	517	n/a	n/a	1	n/a	n/a	n/a	n/a	n/a
272934	REC_WORD	wordpools/wasnorm_wordpool_less_exclusions.txt	LTP204	ltpFR	4	1	1	TUNA	1518	n/a	n/a	1	n/a	n/a	n/a	n/a	n/a
274395	REC_WORD	wordpools/wasnorm_wordpool_less_exclusions.txt	LTP204	ltpFR	4	1	0	COW	393	n/a	n/a	1	n/a	n/a	n/a	n/a	n/a
276615	REC_WORD	wordpools/wasnorm_wordpool_less_exclusions.txt	LTP204	ltpFR	4	1	1	WALL	1582	n/a	n/a	0	n/a	n/a	n/a	n/a	n/a
279479	REC_WORD	wordpools/wasnorm_wordpool_less_exclusions.txt	LTP204	ltpFR	4	1	1	MOAT	903	n/a	n/a	0	n/a	n/a	n/a	n/a	n/a
293886	REC_WORD	wordpools/wasnorm_wordpool_less_exclusions.txt	LTP204	ltpFR	4	1	0	BEET	115	n/a	n/a	0	n/a	n/a	n/a	n/a	n/a
316240	REC_WORD	wordpools/wasnorm_wordpool_less_exclusions.txt	LTP204	ltpFR	4	1	0	TROUT	1511	n/a	n/a	1	n/a	n/a	n/a	n/a	n/a
409173	WORD	wordpools/wasnorm_wordpool_less_exclusions.txt	LTP204	ltpFR	4	2	1	PUBLISHER	1137	n/a	n/a	0	0.422607421875	0.5869140625	0	lower	zerothre.ttf
413339	WORD	wordpools/wasnorm_wordpool_less_exclusions.txt	LTP204	ltpFR	4	2	1	SWATTER	1418	n/a	n/a	0	0.422607421875	0.5869140625	0	lower	zerothre.ttf
417170	WORD	wordpools/wasnorm_wordpool_less_exclusions.txt	LTP204	ltpFR	4	2	1	MOSQUITO	917	n/a	n/a	1	0.422607421875	0.5869140625	0	lower	zerothre.ttf
421285	WORD	wordpools/wasnorm_wordpool_less_exclusions.txt	LTP204	ltpFR	4	2	0	SHRUB	1299	n/a	n/a	0	0.57763671875	0.412841796875	1	upper	amplitud.ttf
425428	WORD	wordpools/wasnorm_wordpool_less_exclusions.txt	LTP204	ltpFR	4	2	0	KEY	773	n/a	n/a	0	0.57763671875	0.412841796875	1	upper	amplitud.ttf
429649	WORD	wordpools/wasnorm_wordpool_less_exclusions.txt	LTP204	ltpFR	4	2	0	CONTRACT	368	n/a	n/a	1	0.57763671875	0.412841796875	1	upper	amplitud.ttf
433648	WORD	wordpools/wasnorm_wordpool_less_exclusions.txt	LTP204	ltpFR	4	2	0	WRITER	1627	n/a	n/a	1	0.57763671875	0.412841796875	1	upper	amplitud.ttf
437741	WORD	wordpools/wasnorm_wordpool_less_exclusions.txt	LTP204	ltpFR	4	2	1	SQUIRREL	1362	n/a	n/a	1	0.422607421875	0.5869140625	0	lower	zerothre.ttf
441830	WORD	wordpools/wasnorm_wordpool_less_exclusions.txt	LTP204	ltpFR	4	2	1	FLASHLIGHT	575	n/a	n/a	0	0.422607421875	0.5869140625	0	lower	zerothre.ttf
445895	WORD	wordpools/wasnorm_wordpool_less_exclusions.txt	LTP204	ltpFR	4	2	1	GROOM	665	n/a	n/a	1	0.422607421875	0.5869140625	0	lower	zerothre.ttf
449725	WORD	wordpools/wasnorm_wordpool_less_exclusions.txt	LTP204	ltpFR	4	2	1	PUDDLE	1140	n/a	n/a	0	0.422607421875	0.5869140625	0	lower	zerothre.ttf
453600	WORD	wordpools/wasnorm_wordpool_less_exclusions.txt	LTP204	ltpFR	4	2	1	BRIDGE	174	n/a	n/a	0	0.422607421875	0.5869140625	0	lower	zerothre.ttf
457504	WORD	wordpools/wasnorm_wordpool_less_exclusions.txt	LTP204	ltpFR	4	2	0	CLOUD	328	n/a	n/a	1	0.57763671875	0.412841796875	1	upper	amplitud.ttf
461603	WORD	wordpools/wasnorm_wordpool_less_exclusions.txt	LTP204	ltpFR	4	2	0	BOLT	146	n/a	n/a	0	0.57763671875	0.412841796875	1	upper	amplitud.ttf
465668	WORD	wordpools/wasnorm_wordpool_less_exclusions.txt	LTP204	ltpFR	4	2	0	DIVER	476	n/a	n/a	1	0.57763671875	0.412841796875	1	upper	amplitud.ttf
469583	WORD	wordpools/wasnorm_wordpool_less_exclusions.txt	LTP204	ltpFR	4	2	0	PORCH	1106	n/a	n/a	1	0.57763671875	0.412841796875	1	upper	amplitud.ttf
475373	REC_START	n/a	LTP204	ltpFR	4	2	n/a	n/a	n/a	n/a	n/a	n/a	n/a	n/a	n/a	n/a	n/a
478101	REC_WORD	wordpools/wasnorm_wordpool_less_exclusions.txt	LTP204	ltpFR	4	2	0	DIVER	476	n/a	n/a	1	n/a	n/a	n/a	n/a	n/a
479718	REC_WORD	wordpools/wasnorm_wordpool_less_exclusions.txt	LTP204	ltpFR	4	2	0	PORCH	1106	n/a	n/a	1	n/a	n/a	n/a	n/a	n/a
482488	REC_WORD_VV	wordpools/wasnorm_wordpool_less_exclusions.txt	LTP204	ltpFR	4	2	n/a	<>	-1	n/a	n/a	n/a	n/a	n/a	n/a	n/a	n/a
493581	REC_WORD	wordpools/wasnorm_wordpool_less_exclusions.txt	LTP204	ltpFR	4	2	1	PUBLISHER	1137	n/a	n/a	0	n/a	n/a	n/a	n/a	n/a
495287	REC_WORD	wordpools/wasnorm_wordpool_less_exclusions.txt	LTP204	ltpFR	4	2	0	WRITER	1627	n/a	n/a	1	n/a	n/a	n/a	n/a	n/a
500092	REC_WORD	wordpools/wasnorm_wordpool_less_exclusions.txt	LTP204	ltpFR	4	2	0	CONTRACT	368	n/a	n/a	1	n/a	n/a	n/a	n/a	n/a
520884	REC_WORD	wordpools/wasnorm_wordpool_less_exclusions.txt	LTP204	ltpFR	4	2	0	CLOUD	328	n/a	n/a	1	n/a	n/a	n/a	n/a	n/a
537836	REC_WORD	wordpools/wasnorm_wordpool_less_exclusions.txt	LTP204	ltpFR	4	2	1	SQUIRREL	1362	n/a	n/a	1	n/a	n/a	n/a	n/a	n/a
555524	WORD	wordpools/wasnorm_wordpool_less_exclusions.txt	LTP204	ltpFR	4	3	-1	SHOULDER	1294	n/a	n/a	-1	1.0	1.0	1	upper	Verdana.ttf
559423	WORD	wordpools/wasnorm_wordpool_less_exclusions.txt	LTP204	ltpFR	4	3	-1	OTTER	986	n/a	n/a	-1	1.0	1.0	1	upper	Verdana.ttf
563548	WORD	wordpools/wasnorm_wordpool_less_exclusions.txt	LTP204	ltpFR	4	3	-1	CANAL	226	n/a	n/a	-1	1.0	1.0	1	upper	Verdana.ttf
567619	WORD	wordpools/wasnorm_wordpool_less_exclusions.txt	LTP204	ltpFR	4	3	-1	DAISY	435	n/a	n/a	-1	1.0	1.0	1	upper	Verdana.ttf
571685	WORD	wordpools/wasnorm_wordpool_less_exclusions.txt	LTP204	ltpFR	4	3	-1	LADDER	793	n/a	n/a	-1	1.0	1.0	1	upper	Verdana.ttf
575768	WORD	wordpools/wasnorm_wordpool_less_exclusions.txt	LTP204	ltpFR	4	3	-1	FIREPLACE	570	n/a	n/a	-1	1.0	1.0	1	upper	Verdana.ttf
579967	WORD	wordpools/wasnorm_wordpool_less_exclusions.txt	LTP204	ltpFR	4	3	-1	COLUMN	350	n/a	n/a	-1	1.0	1.0	1	upper	Verdana.ttf
583999	WORD	wordpools/wasnorm_wordpool_less_exclusions.txt	LTP204	ltpFR	4	3	-1	CANDIDATE	228	n/a	n/a	-1	1.0	1.0	1	upper	Verdana.ttf
587841	WORD	wordpools/wasnorm_wordpool_less_exclusions.txt	LTP204	ltpFR	4	3	-1	KLEENEX	782	n/a	n/a	-1	1.0	1.0	1	upper	Verdana.ttf
591962	WORD	wordpools/wasnorm_wordpool_less_exclusions.txt	LTP204	ltpFR	4	3	-1	NEWSPAPER	948	n/a	n/a	-1	1.0	1.0	1	upper	Verdana.ttf
596011	WORD	wordpools/wasnorm_wordpool_less_exclusions.txt	LTP204	ltpFR	4	3	-1	CABINET	212	n/a	n/a	-1	1.0	1.0	1	upper	Verdana.ttf
599987	WORD	wordpools/wasnorm_wordpool_less_exclusions.txt	LTP204	ltpFR	4	3	-1	FROST	609	n/a	n/a	-1	1.0	1.0	1	upper	Verdana.ttf
604074	WORD	wordpools/wasnorm_wordpool_less_exclusions.txt	LTP204	ltpFR	4	3	-1	PENNY	1045	n/a	n/a	-1	1.0	1.0	1	upper	Verdana.ttf
607922	WORD	wordpools/wasnorm_wordpool_less_exclusions.txt	LTP204	ltpFR	4	3	-1	DIME	466	n/a	n/a	-1	1.0	1.0	1	upper	Verdana.ttf
611948	WORD	wordpools/wasnorm_wordpool_less_exclusions.txt	LTP204	ltpFR	4	3	-1	LADY	794	n/a	n/a	-1	1.0	1.0	1	upper	Verdana.ttf
616030	WORD	wordpools/wasnorm_wordpool_less_exclusions.txt	LTP204	ltpFR	4	3	-1	UNDERWEAR	1537	n/a	n/a	-1	1.0	1.0	1	upper	Verdana.ttf
622076	REC_START	n/a	LTP204	ltpFR	4	3	n/a	n/a	n/a	n/a	n/a	n/a	n/a	n/a	n/a	n/a	n/a
623158	REC_WORD	wordpools/wasnorm_wordpool_less_exclusions.txt	LTP204	ltpFR	4	3	-1	UNDERWEAR	1537	n/a	n/a	-1	n/a	n/a	n/a	n/a	n/a
624635	REC_WORD	wordpools/wasnorm_wordpool_less_exclusions.txt	LTP204	ltpFR	4	3	-1	LADY	794	n/a	n/a	-1	n/a	n/a	n/a	n/a	n/a
625787	REC_WORD	wordpools/wasnorm_wordpool_less_exclusions.txt	LTP204	ltpFR	4	3	-1	PENNY	1045	n/a	n/a	-1	n/a	n/a	n/a	n/a	n/a
627209	REC_WORD	wordpools/wasnorm_wordpool_less_exclusions.txt	LTP204	ltpFR	4	3	-1	DIME	466	n/a	n/a	-1	n/a	n/a	n/a	n/a	n/a
629464	REC_WORD	wordpools/wasnorm_wordpool_less_exclusions.txt	LTP204	ltpFR	4	3	-1	SHOULDER	1294	n/a	n/a	-1	n/a	n/a	n/a	n/a	n/a
639770	REC_WORD	wordpools/wasnorm_wordpool_less_exclusions.txt	LTP204	ltpFR	4	3	-1	NEWSPAPER	948	n/a	n/a	-1	n/a	n/a	n/a	n/a	n/a
670241	REC_WORD	wordpools/wasnorm_wordpool_less_exclusions.txt	LTP204	ltpFR	4	3	-1	OTTER	986	n/a	n/a	-1	n/a	n/a	n/a	n/a	n/a
702027	WORD	wordpools/wasnorm_wordpool_less_exclusions.txt	LTP204	ltpFR	4	4	1	PARTY	1018	n/a	n/a	0	0.422607421875	0.5869140625	0	lower	zerothre.ttf
706243	WORD	wordpools/wasnorm_wordpool_less_exclusions.txt	LTP204	ltpFR	4	4	1	BEAST	108	n/a	n/a	1	0.422607421875	0.5869140625	0	lower	zerothre.ttf
710241	WORD	wordpools/wasnorm_wordpool_less_exclusions.txt	LTP204	ltpFR	4	4	0	COLLAR	345	n/a	n/a	0	0.57763671875	0.412841796875	1	upper	amplitud.ttf
714223	WORD	wordpools/wasnorm_wordpool_less_exclusions.txt	LTP204	ltpFR	4	4	0	PELICAN	1039	n/a	n/a	1	0.57763671875	0.412841796875	1	upper	amplitud.ttf
718082	WORD	wordpools/wasnorm_wordpool_less_exclusions.txt	LTP204	ltpFR	4	4	0	WITNESS	1618	n/a	n/a	1	0.57763671875	0.412841796875	1	upper	amplitud.ttf
722119	WORD	wordpools/wasnorm_wordpool_less_exclusions.txt	LTP204	ltpFR	4	4	0	WALRUS	1585	n/a	n/a	1	0.57763671875	0.412841796875	1	upper	amplitud.ttf
726051	WORD	wordpools/wasnorm_wordpool_less_exclusions.txt	LTP204	ltpFR	4	4	1	STONE	1385	n/a	n/a	0	0.422607421875	0.5869140625	0	lower	zerothre.ttf
729882	WORD	wordpools/wasnorm_wordpool_less_exclusions.txt	LTP204	ltpFR	4	4	1	CARNIVAL	245	n/a	n/a	1	0.422607421875	0.5869140625	0	lower	zerothre.ttf
733797	WORD	wordpools/wasnorm_wordpool_less_exclusions.txt	LTP204	ltpFR	4	4	1	MINK	897	n/a	n/a	1	0.422607421875	0.5869140625	0	lower	zerothre.ttf
738012	WORD	wordpools/wasnorm_wordpool_less_exclusions.txt	LTP204	ltpFR	4	4	1	NEPHEW	942	n/a	n/a	1	0.422607421875	0.5869140625	0	lower	zerothre.ttf
742228	WORD	wordpools/wasnorm_wordpool_less_exclusions.txt	LTP204	ltpFR	4	4	1	RELATIVE	1182	n/a	n/a	1	0.422607421875	0.5869140625	0	lower	zerothre.ttf
746093	WORD	wordpools/wasnorm_wordpool_less_exclusions.txt	LTP204	ltpFR	4	4	1	TOAST	1471	n/a	n/a	0	0.422607421875	0.5869140625	0	lower	zerothre.ttf
749991	WORD	wordpools/wasnorm_wordpool_less_exclusions.txt	LTP204	ltpFR	4	4	0	TOASTER	1472	n/a	n/a	0	0.57763671875	0.412841796875	1	upper	amplitud.ttf
754000	WORD	wordpools/wasnorm_wordpool_less_exclusions.txt	LTP204	ltpFR	4	4	0	MOSS	918	n/a	n/a	1	0.57763671875	0.412841796875	1	upper	amplitud.ttf
757904	WORD	wordpools/wasnorm_wordpool_less_exclusions.txt	LTP204	ltpFR	4	4	0	SCRIBBLE	1256	n/a	n/a	0	0.57763671875	0.412841796875	1	upper	amplitud.ttf
761813	WORD	wordpools/wasnorm_wordpool_less_exclusions.txt	LTP204	ltpFR	4	4	0	TABLET	1427	n/a	n/a	0	0.57763671875	0.412841796875	1	upper	amplitud.ttf
767820	REC_START	n/a	LTP204	ltpFR	4	4	n/a	n/a	n/a	n/a	n/a	n/a	n/a	n/a	n/a	n/a	n/a
768718	REC_WORD	wordpools/wasnorm_wordpool_less_exclusions.txt	LTP204	ltpFR	4	4	0	TABLET	1427	n/a	n/a	0	n/a	n/a	n/a	n/a	n/a
769965	REC_WORD	wordpools/wasnorm_wordpool_less_exclusions.txt	LTP204	ltpFR	4	4	0	MOSS	918	n/a	n/a	1	n/a	n/a	n/a	n/a	n/a
782686	REC_WORD	wordpools/wasnorm_wordpool_less_exclusions.txt	LTP204	ltpFR	4	4	0	SCRIBBLE	1256	n/a	n/a	0	n/a	n/a	n/a	n/a	n/a
785784	REC_WORD	wordpools/wasnorm_wordpool_less_exclusions.txt	LTP204	ltpFR	4	4	0	TOASTER	1472	n/a	n/a	0	n/a	n/a	n/a	n/a	n/a
792993	REC_WORD	wordpools/wasnorm_wordpool_less_exclusions.txt	LTP204	ltpFR	4	4	1	MINK	897	n/a	n/a	1	n/a	n/a	n/a	n/a	n/a
798844	REC_WORD	wordpools/wasnorm_wordpool_less_exclusions.txt	LTP204	ltpFR	4	4	1	CARNIVAL	245	n/a	n/a	1	n/a	n/a	n/a	n/a	n/a
834483	REC_WORD	wordpools/wasnorm_wordpool_less_exclusions.txt	LTP204	ltpFR	4	4	1	RELATIVE	1182	n/a	n/a	1	n/a	n/a	n/a	n/a	n/a
848021	WORD	wordpools/wasnorm_wordpool_less_exclusions.txt	LTP204	ltpFR	4	5	0	BRICK	172	n/a	n/a	2	0.57763671875	0.412841796875	1	upper	amplitud.ttf
849834	KEY_MSG	n/a	LTP204	ltpFR	4	5	n/a	n/a	n/a	n/a	n/a	n/a	n/a	n/a	n/a	n/a	n/a
852426	WORD	wordpools/wasnorm_wordpool_less_exclusions.txt	LTP204	ltpFR	4	5	0	PIPE	1073	n/a	n/a	0	0.57763671875	0.412841796875	1	upper	amplitud.ttf
856603	WORD	wordpools/wasnorm_wordpool_less_exclusions.txt	LTP204	ltpFR	4	5	0	ASHTRAY	45	n/a	n/a	0	0.57763671875	0.412841796875	1	upper	amplitud.ttf
860741	WORD	wordpools/wasnorm_wordpool_less_exclusions.txt	LTP204	ltpFR	4	5	0	BLOCKADE	137	n/a	n/a	1	0.57763671875	0.412841796875	1	upper	amplitud.ttf
864722	WORD	wordpools/wasnorm_wordpool_less_exclusions.txt	LTP204	ltpFR	4	5	0	TERMITE	1451	n/a	n/a	0	0.57763671875	0.412841796875	1	upper	amplitud.ttf
868922	WORD	wordpools/wasnorm_wordpool_less_exclusions.txt	LTP204	ltpFR	4	5	0	COTTAGE	384	n/a	n/a	1	0.57763671875	0.412841796875	1	upper	amplitud.ttf
872948	WORD	wordpools/wasnorm_wordpool_less_exclusions.txt	LTP204	ltpFR	4	5	0	TANGERINE	1431	n/a	n/a	0	0.57763671875	0.412841796875	1	upper	amplitud.ttf
876969	WORD	wordpools/wasnorm_wordpool_less_exclusions.txt	LTP204	ltpFR	4	5	0	BASKETBALL	96	n/a	n/a	1	0.57763671875	0.412841796875	1	upper	amplitud.ttf
881085	WORD	wordpools/wasnorm_wordpool_less_exclusions.txt	LTP204	ltpFR	4	5	0	CAPE	237	n/a	n/a	1	0.57763671875	0.412841796875	1	upper	amplitud.ttf
884916	WORD	wordpools/wasnorm_wordpool_less_exclusions.txt	LTP204	ltpFR	4	5	0	VINE	1568	n/a	n/a	0	0.57763671875	0.412841796875	1	upper	amplitud.ttf
888864	WORD	wordpools/wasnorm_wordpool_less_exclusions.txt	LTP204	ltpFR	4	5	0	BASKET	95	n/a	n/a	1	0.57763671875	0.412841796875	1	upper	amplitud.ttf
892762	WORD	wordpools/wasnorm_wordpool_less_exclusions.txt	LTP204	ltpFR	4	5	0	FRIEND	606	n/a	n/a	1	0.57763671875	0.412841796875	1	upper	amplitud.ttf
896592	WORD	wordpools/wasnorm_wordpool_less_exclusions.txt	LTP204	ltpFR	4	5	0	BOYFRIEND	162	n/a	n/a	1	0.57763671875	0.412841796875	1	upper	amplitud.ttf
900708	WORD	wordpools/wasnorm_wordpool_less_exclusions.txt	LTP204	ltpFR	4	5	0	BROCCOLI	176	n/a	n/a	0	0.57763671875	0.412841796875	1	upper	amplitud.ttf
904858	WORD	wordpools/wasnorm_wordpool_less_exclusions.txt	LTP204	ltpFR	4	5	0	WILDERNESS	1610	n/a	n/a	1	0.57763671875	0.412841796875	1	upper	amplitud.ttf
908688	WORD	wordpools/wasnorm_wordpool_less_exclusions.txt	LTP204	ltpFR	4	5	0	PALACE	1006	n/a	n/a	1	0.57763671875	0.412841796875	1	upper	amplitud.ttf
914372	REC_START	n/a	LTP204	ltpFR	4	5	n/a	n/a	n/a	n/a	n/a	n/a	n/a	n/a	n/a	n/a	n/a
915524	REC_WORD	wordpools/wasnorm_wordpool_less_exclusions.txt	LTP204	ltpFR	4	5	0	PALACE	1006	n/a	n/a	1	n/a	n/a	n/a	n/a	n/a
916213	REC_WORD_VV	wordpools/wasnorm_wordpool_less_exclusions.txt	LTP204	ltpFR	4	5	n/a	<>	-1	n/a	n/a	n/a	n/a	n/a	n/a	n/a	n/a
916696	REC_WORD	wordpools/wasnorm_wordpool_less_exclusions.txt	LTP204	ltpFR	4	5	0	PALACE	1006	n/a	n/a	1	n/a	n/a	n/a	n/a	n/a
917594	REC_WORD	wordpools/wasnorm_wordpool_less_exclusions.txt	LTP204	ltpFR	4	5	0	WILDERNESS	1610	n/a	n/a	1	n/a	n/a	n/a	n/a	n/a
918727	REC_WORD	wordpools/wasnorm_wordpool_less_exclusions.txt	LTP204	ltpFR	4	5	0	CAPE	237	n/a	n/a	1	n/a	n/a	n/a	n/a	n/a
919864	REC_WORD	wordpools/wasnorm_wordpool_less_exclusions.txt	LTP204	ltpFR	4	5	0	BOYFRIEND	162	n/a	n/a	1	n/a	n/a	n/a	n/a	n/a
936946	REC_WORD	wordpools/wasnorm_wordpool_less_exclusions.txt	LTP204	ltpFR	4	5	0	BROCCOLI	176	n/a	n/a	0	n/a	n/a	n/a	n/a	n/a
960617	REC_WORD	wordpools/wasnorm_wordpool_less_exclusions.txt	LTP204	ltpFR	4	5	0	WILDERNESS	1610	n/a	n/a	1	n/a	n/a	n/a	n/a	n/a
981564	REC_WORD	wordpools/wasnorm_wordpool_less_exclusions.txt	LTP204	ltpFR	4	5	0	PALACE	1006	n/a	n/a	1	n/a	n/a	n/a	n/a	n/a
994695	WORD	wordpools/wasnorm_wordpool_less_exclusions.txt	LTP204	ltpFR	4	6	-1	BELLY	119	n/a	n/a	-1	1.0	1.0	1	upper	Verdana.ttf
998823	WORD	wordpools/wasnorm_wordpool_less_exclusions.txt	LTP204	ltpFR	4	6	-1	PAPER	1011	n/a	n/a	-1	1.0	1.0	1	upper	Verdana.ttf
1002676	WORD	wordpools/wasnorm_wordpool_less_exclusions.txt	LTP204	ltpFR	4	6	-1	PRIEST	1122	n/a	n/a	-1	1.0	1.0	1	upper	Verdana.ttf
1006870	WORD	wordpools/wasnorm_wordpool_less_exclusions.txt	LTP204	ltpFR	4	6	-1	CUPBOARD	425	n/a	n/a	-1	1.0	1.0	1	upper	Verdana.ttf
1010874	WORD	wordpools/wasnorm_wordpool_less_exclusions.txt	LTP204	ltpFR	4	6	-1	RESTAURANT	1187	n/a	n/a	-1	1.0	1.0	1	upper	Verdana.ttf
1014883	WORD	wordpools/wasnorm_wordpool_less_exclusions.txt	LTP204	ltpFR	4	6	-1	REFRIGERATOR	1179	n/a	n/a	-1	1.0	1.0	1	upper	Verdana.ttf
1018804	WORD	wordpools/wasnorm_wordpool_less_exclusions.txt	LTP204	ltpFR	4	6	-1	COOKIE	374	n/a	n/a	-1	1.0	1.0	1	upper	Verdana.ttf
1022763	WORD	wordpools/wasnorm_wordpool_less_exclusions.txt	LTP204	ltpFR	4	6	-1	PONY	1102	n/a	n/a	-1	1.0	1.0	1	upper	Verdana.ttf
1026901	WORD	wordpools/wasnorm_wordpool_less_exclusions.txt	LTP204	ltpFR	4	6	-1	FURNITURE	616	n/a	n/a	-1	1.0	1.0	1	upper	Verdana.ttf
1031100	WORD	wordpools/wasnorm_wordpool_less_exclusions.txt	LTP204	ltpFR	4	6	-1	FUR	615	n/a	n/a	-1	1.0	1.0	1	upper	Verdana.ttf
1035283	WORD	wordpools/wasnorm_wordpool_less_exclusions.txt	LTP204	ltpFR	4	6	-1	PORPOISE	1109	n/a	n/a	-1	1.0	1.0	1	upper	Verdana.ttf
1039415	WORD	wordpools/wasnorm_wordpool_less_exclusions.txt	LTP204	ltpFR	4	6	-1	MAMMAL	861	n/a	n/a	-1	1.0	1.0	1	upper	Verdana.ttf
1043346	WORD	wordpools/wasnorm_wordpool_less_exclusions.txt	LTP204	ltpFR	4	6	-1	GUM	672	n/a	n/a	-1	1.0	1.0	1	upper	Verdana.ttf
1047261	WORD	wordpools/wasnorm_wordpool_less_exclusions.txt	LTP204	ltpFR	4	6	-1	BALLOON	75	n/a	n/a	-1	1.0	1.0	1	upper	Verdana.ttf
1051170	WORD	wordpools/wasnorm_wordpool_less_exclusions.txt	LTP204	ltpFR	4	6	-1	CHOCOLATE	306	n/a	n/a	-1	1.0	1.0	1	upper	Verdana.ttf
1055342	WORD	wordpools/wasnorm_wordpool_less_exclusions.txt	LTP204	ltpFR	4	6	-1	CROSS	413	n/a	n/a	-1	1.0	1.0	1	upper	Verdana.ttf
1061147	REC_START	n/a	LTP204	ltpFR	4	6	n/a	n/a	n/a	n/a	n/a	n/a	n/a	n/a	n/a	n/a	n/a
1061905	REC_WORD	wordpools/wasnorm_wordpool_less_exclusions.txt	LTP204	ltpFR	4	6	-1	CROSS	413	n/a	n/a	-1	n/a	n/a	n/a	n/a	n/a
1065670	REC_WORD_VV	wordpools/wasnorm_wordpool_less_exclusions.txt	LTP204	ltpFR	4	6	n/a	<>	-1	n/a	n/a	n/a	n/a	n/a	n/a	n/a	n/a
1069423	REC_WORD	wordpools/wasnorm_wordpool_less_exclusions.txt	LTP204	ltpFR	4	6	-1	PORPOISE	1109	n/a	n/a	-1	n/a	n/a	n/a	n/a	n/a
1089911	REC_WORD	wordpools/wasnorm_wordpool_less_exclusions.txt	LTP204	ltpFR	4	6	-1	FUR	615	n/a	n/a	-1	n/a	n/a	n/a	n/a	n/a
1093842	REC_WORD	wordpools/wasnorm_wordpool_less_exclusions.txt	LTP204	ltpFR	4	6	-1	CHOCOLATE	306	n/a	n/a	-1	n/a	n/a	n/a	n/a	n/a
1140948	WORD	wordpools/wasnorm_wordpool_less_exclusions.txt	LTP204	ltpFR	4	7	-1	BUREAU	199	n/a	n/a	-1	1.0	1.0	1	upper	Verdana.ttf
1144806	WORD	wordpools/wasnorm_wordpool_less_exclusions.txt	LTP204	ltpFR	4	7	-1	PRUNE	1134	n/a	n/a	-1	1.0	1.0	1	upper	Verdana.ttf
1148788	WORD	wordpools/wasnorm_wordpool_less_exclusions.txt	LTP204	ltpFR	4	7	-1	TICKET	1464	n/a	n/a	-1	1.0	1.0	1	upper	Verdana.ttf
1152668	WORD	wordpools/wasnorm_wordpool_less_exclusions.txt	LTP204	ltpFR	4	7	-1	PISTON	1076	n/a	n/a	-1	1.0	1.0	1	upper	Verdana.ttf
1156689	WORD	wordpools/wasnorm_wordpool_less_exclusions.txt	LTP204	ltpFR	4	7	-1	THUMB	1462	n/a	n/a	-1	1.0	1.0	1	upper	Verdana.ttf
1160839	WORD	wordpools/wasnorm_wordpool_less_exclusions.txt	LTP204	ltpFR	4	7	-1	WRIST	1626	n/a	n/a	-1	1.0	1.0	1	upper	Verdana.ttf
1164736	WORD	wordpools/wasnorm_wordpool_less_exclusions.txt	LTP204	ltpFR	4	7	-1	MACHINE	852	n/a	n/a	-1	1.0	1.0	1	upper	Verdana.ttf
1168914	WORD	wordpools/wasnorm_wordpool_less_exclusions.txt	LTP204	ltpFR	4	7	-1	DILL	465	n/a	n/a	-1	1.0	1.0	1	upper	Verdana.ttf
1173013	WORD	wordpools/wasnorm_wordpool_less_exclusions.txt	LTP204	ltpFR	4	7	-1	WASHER	1592	n/a	n/a	-1	1.0	1.0	1	upper	Verdana.ttf
1177067	WORD	wordpools/wasnorm_wordpool_less_exclusions.txt	LTP204	ltpFR	4	7	-1	COPIER	377	n/a	n/a	-1	1.0	1.0	1	upper	Verdana.ttf
1181283	WORD	wordpools/wasnorm_wordpool_less_exclusions.txt	LTP204	ltpFR	4	7	-1	SPINACH	1352	n/a	n/a	-1	1.0	1.0	1	upper	Verdana.ttf
1185464	WORD	wordpools/wasnorm_wordpool_less_exclusions.txt	LTP204	ltpFR	4	7	-1	BONE	148	n/a	n/a	-1	1.0	1.0	1	upper	Verdana.ttf
1189507	WORD	wordpools/wasnorm_wordpool_less_exclusions.txt	LTP204	ltpFR	4	7	-1	MARROW	872	n/a	n/a	-1	1.0	1.0	1	upper	Verdana.ttf
1193511	WORD	wordpools/wasnorm_wordpool_less_exclusions.txt	LTP204	ltpFR	4	7	-1	SCARF	1246	n/a	n/a	-1	1.0	1.0	1	upper	Verdana.ttf
1197377	WORD	wordpools/wasnorm_wordpool_less_exclusions.txt	LTP204	ltpFR	4	7	-1	TANK	1432	n/a	n/a	-1	1.0	1.0	1	upper	Verdana.ttf
1201420	WORD	wordpools/wasnorm_wordpool_less_exclusions.txt	LTP204	ltpFR	4	7	-1	TABLE	1426	n/a	n/a	-1	1.0	1.0	1	upper	Verdana.ttf
1207343	REC_START	n/a	LTP204	ltpFR	4	7	n/a	n/a	n/a	n/a	n/a	n/a	n/a	n/a	n/a	n/a	n/a
1208036	REC_WORD	wordpools/wasnorm_wordpool_less_exclusions.txt	LTP204	ltpFR	4	7	-1	TABLE	1426	n/a	n/a	-1	n/a	n/a	n/a	n/a	n/a
1209059	REC_WORD	wordpools/wasnorm_wordpool_less_exclusions.txt	LTP204	ltpFR	4	7	-1	TANK	1432	n/a	n/a	-1	n/a	n/a	n/a	n/a	n/a
1222827	REC_WORD	wordpools/wasnorm_wordpool_less_exclusions.txt	LTP204	ltpFR	4	7	-1	BONE	148	n/a	n/a	-1	n/a	n/a	n/a	n/a	n/a
1224813	REC_WORD	wordpools/wasnorm_wordpool_less_exclusions.txt	LTP204	ltpFR	4	7	-1	MARROW	872	n/a	n/a	-1	n/a	n/a	n/a	n/a	n/a
1233923	REC_WORD	wordpools/wasnorm_wordpool_less_exclusions.txt	LTP204	ltpFR	4	7	-1	TABLE	1426	n/a	n/a	-1	n/a	n/a	n/a	n/a	n/a
1274096	REC_WORD	wordpools/wasnorm_wordpool_less_exclusions.txt	LTP204	ltpFR	4	7	-1	BUREAU	199	n/a	n/a	-1	n/a	n/a	n/a	n/a	n/a
1276072	REC_WORD	wordpools/wasnorm_wordpool_less_exclusions.txt	LTP204	ltpFR	4	7	-1	PRUNE	1134	n/a	n/a	-1	n/a	n/a	n/a	n/a	n/a
1288169	WORD	wordpools/wasnorm_wordpool_less_exclusions.txt	LTP204	ltpFR	4	8	1	WALLET	1583	n/a	n/a	2	0.422607421875	0.5869140625	0	lower	zerothre.ttf
1289707	KEY_MSG	n/a	LTP204	ltpFR	4	8	n/a	n/a	n/a	n/a	n/a	n/a	n/a	n/a	n/a	n/a	n/a
1292301	WORD	wordpools/wasnorm_wordpool_less_exclusions.txt	LTP204	ltpFR	4	8	1	PROTON	1132	n/a	n/a	1	0.422607421875	0.5869140625	0	lower	zerothre.ttf
1296400	WORD	wordpools/wasnorm_wordpool_less_exclusions.txt	LTP204	ltpFR	4	8	0	CLIPPERS	324	n/a	n/a	0	0.57763671875	0.412841796875	1	upper	amplitud.ttf
1300448	WORD	wordpools/wasnorm_wordpool_less_exclusions.txt	LTP204	ltpFR	4	8	0	SHED	1277	n/a	n/a	0	0.57763671875	0.412841796875	1	upper	amplitud.ttf
1304414	WORD	wordpools/wasnorm_wordpool_less_exclusions.txt	LTP204	ltpFR	4	8	0	VELVET	1555	n/a	n/a	0	0.57763671875	0.412841796875	1	upper	amplitud.ttf
1308629	WORD	wordpools/wasnorm_wordpool_less_exclusions.txt	LTP204	ltpFR	4	8	1	ALLIGATOR	16	n/a	n/a	1	0.422607421875	0.5869140625	0	lower	zerothre.ttf
1312627	WORD	wordpools/wasnorm_wordpool_less_exclusions.txt	LTP204	ltpFR	4	8	1	PATROL	1027	n/a	n/a	0	0.422607421875	0.5869140625	0	lower	zerothre.ttf
1316592	WORD	wordpools/wasnorm_wordpool_less_exclusions.txt	LTP204	ltpFR	4	8	0	FROG	608	n/a	n/a	0	0.57763671875	0.412841796875	1	upper	amplitud.ttf
1320490	WORD	wordpools/wasnorm_wordpool_less_exclusions.txt	LTP204	ltpFR	4	8	0	WART	1590	n/a	n/a	0	0.57763671875	0.412841796875	1	upper	amplitud.ttf
1324538	WORD	wordpools/wasnorm_wordpool_less_exclusions.txt	LTP204	ltpFR	4	8	0	SHOP	1290	n/a	n/a	1	0.57763671875	0.412841796875	1	upper	amplitud.ttf
1328581	WORD	wordpools/wasnorm_wordpool_less_exclusions.txt	LTP204	ltpFR	4	8	0	PORTRAIT	1111	n/a	n/a	1	0.57763671875	0.412841796875	1	upper	amplitud.ttf
1332435	WORD	wordpools/wasnorm_wordpool_less_exclusions.txt	LTP204	ltpFR	4	8	0	RECORD	1176	n/a	n/a	0	0.57763671875	0.412841796875	1	upper	amplitud.ttf
1336634	WORD	wordpools/wasnorm_wordpool_less_exclusions.txt	LTP204	ltpFR	4	8	1	KETTLE	772	n/a	n/a	0	0.422607421875	0.5869140625	0	lower	zerothre.ttf
1340801	WORD	wordpools/wasnorm_wordpool_less_exclusions.txt	LTP204	ltpFR	4	8	1	MOWER	928	n/a	n/a	0	0.422607421875	0.5869140625	0	lower	zerothre.ttf
1344714	WORD	wordpools/wasnorm_wordpool_less_exclusions.txt	LTP204	ltpFR	4	8	1	DETECTIVE	454	n/a	n/a	1	0.422607421875	0.5869140625	0	lower	zerothre.ttf
1348909	WORD	wordpools/wasnorm_wordpool_less_exclusions.txt	LTP204	ltpFR	4	8	1	MONGOOSE	909	n/a	n/a	1	0.422607421875	0.5869140625	0	lower	zerothre.ttf
1354932	REC_START	n/a	LTP204	ltpFR	4	8	n/a	n/a	n/a	n/a	n/a	n/a	n/a	n/a	n/a	n/a	n/a
1355665	REC_WORD	wordpools/wasnorm_wordpool_less_exclusions.txt	LTP204	ltpFR	4	8	1	MONGOOSE	909	n/a	n/a	1	n/a	n/a	n/a	n/a	n/a
1356922	REC_WORD	wordpools/wasnorm_wordpool_less_exclusions.txt	LTP204	ltpFR	4	8	1	ALLIGATOR	16	n/a	n/a	1	n/a	n/a	n/a	n/a	n/a
1361317	REC_WORD	wordpools/wasnorm_wordpool_less_exclusions.txt	LTP204	ltpFR	4	8	0	SHED	1277	n/a	n/a	0	n/a	n/a	n/a	n/a	n/a
1372726	REC_WORD	wordpools/wasnorm_wordpool_less_exclusions.txt	LTP204	ltpFR	4	8	1	PROTON	1132	n/a	n/a	1	n/a	n/a	n/a	n/a	n/a
1387932	REC_WORD	wordpools/wasnorm_wordpool_less_exclusions.txt	LTP204	ltpFR	4	8	0	FROG	608	n/a	n/a	0	n/a	n/a	n/a	n/a	n/a
1397011	REC_WORD	wordpools/wasnorm_wordpool_less_exclusions.txt	LTP204	ltpFR	4	8	1	KETTLE	772	n/a	n/a	0	n/a	n/a	n/a	n/a	n/a
1422812	REC_WORD	wordpools/wasnorm_wordpool_less_exclusions.txt	LTP204	ltpFR	4	8	1	MONGOOSE	909	n/a	n/a	1	n/a	n/a	n/a	n/a	n/a
1436154	WORD	wordpools/wasnorm_wordpool_less_exclusions.txt	LTP204	ltpFR	4	9	1	MEAL	882	n/a	n/a	0	0.422607421875	0.5869140625	0	lower	zerothre.ttf
1440175	WORD	wordpools/wasnorm_wordpool_less_exclusions.txt	LTP204	ltpFR	4	9	1	CELERY	266	n/a	n/a	0	0.422607421875	0.5869140625	0	lower	zerothre.ttf
1444157	WORD	wordpools/wasnorm_wordpool_less_exclusions.txt	LTP204	ltpFR	4	9	1	RUST	1219	n/a	n/a	0	0.422607421875	0.5869140625	0	lower	zerothre.ttf
1448122	WORD	wordpools/wasnorm_wordpool_less_exclusions.txt	LTP204	ltpFR	4	9	1	TAVERN	1437	n/a	n/a	0	0.422607421875	0.5869140625	0	lower	zerothre.ttf
1452081	WORD	wordpools/wasnorm_wordpool_less_exclusions.txt	LTP204	ltpFR	4	9	1	MICROWAVE	892	n/a	n/a	0	0.422607421875	0.5869140625	0	lower	zerothre.ttf
1456119	WORD	wordpools/wasnorm_wordpool_less_exclusions.txt	LTP204	ltpFR	4	9	1	NET	946	n/a	n/a	0	0.422607421875	0.5869140625	0	lower	zerothre.ttf
1460150	WORD	wordpools/wasnorm_wordpool_less_exclusions.txt	LTP204	ltpFR	4	9	1	MECHANIC	884	n/a	n/a	1	0.422607421875	0.5869140625	0	lower	zerothre.ttf
1464182	WORD	wordpools/wasnorm_wordpool_less_exclusions.txt	LTP204	ltpFR	4	9	1	FARMER	553	n/a	n/a	1	0.422607421875	0.5869140625	0	lower	zerothre.ttf
1468225	WORD	wordpools/wasnorm_wordpool_less_exclusions.txt	LTP204	ltpFR	4	9	1	FRIES	607	n/a	n/a	0	0.422607421875	0.5869140625	0	lower	zerothre.ttf
1472179	WORD	wordpools/wasnorm_wordpool_less_exclusions.txt	LTP204	ltpFR	4	9	1	OVEN	991	n/a	n/a	0	0.422607421875	0.5869140625	0	lower	zerothre.ttf
1476255	WORD	wordpools/wasnorm_wordpool_less_exclusions.txt	LTP204	ltpFR	4	9	1	BAKER	71	n/a	n/a	1	0.422607421875	0.5869140625	0	lower	zerothre.ttf
1480476	WORD	wordpools/wasnorm_wordpool_less_exclusions.txt	LTP204	ltpFR	4	9	1	SQUID	1361	n/a	n/a	1	0.422607421875	0.5869140625	0	lower	zerothre.ttf
1484491	WORD	wordpools/wasnorm_wordpool_less_exclusions.txt	LTP204	ltpFR	4	9	1	GOBLIN	645	n/a	n/a	0	0.422607421875	0.5869140625	0	lower	zerothre.ttf
1488357	WORD	wordpools/wasnorm_wordpool_less_exclusions.txt	LTP204	ltpFR	4	9	1	PLUTO	1092	n/a	n/a	0	0.422607421875	0.5869140625	0	lower	zerothre.ttf
1492366	WORD	wordpools/wasnorm_wordpool_less_exclusions.txt	LTP204	ltpFR	4	9	1	FRAME	600	n/a	n/a	0	0.422607421875	0.5869140625	0	lower	zerothre.ttf
1496404	WORD	wordpools/wasnorm_wordpool_less_exclusions.txt	LTP204	ltpFR	4	9	1	ALBUM	14	n/a	n/a	0	0.422607421875	0.5869140625	0	lower	zerothre.ttf
1502187	REC_START	n/a	LTP204	ltpFR	4	9	n/a	n/a	n/a	n/a	n/a	n/a	n/a	n/a	n/a	n/a	n/a
1502860	REC_WORD	wordpools/wasnorm_wordpool_less_exclusions.txt	LTP204	ltpFR	4	9	1	ALBUM	14	n/a	n/a	0	n/a	n/a	n/a	n/a	n/a
1504701	REC_WORD	wordpools/wasnorm_wordpool_less_exclusions.txt	LTP204	ltpFR	4	9	1	SQUID	1361	n/a	n/a	1	n/a	n/a	n/a	n/a	n/a
1532044	REC_WORD	wordpools/wasnorm_wordpool_less_exclusions.txt	LTP204	ltpFR	4	9	1	MEAL	882	n/a	n/a	0	n/a	n/a	n/a	n/a	n/a
1582037	WORD	wordpools/wasnorm_wordpool_less_exclusions.txt	LTP204	ltpFR	4	10	0	ROUGE	1213	n/a	n/a	0	0.57763671875	0.412841796875	1	upper	amplitud.ttf
1586086	WORD	wordpools/wasnorm_wordpool_less_exclusions.txt	LTP204	ltpFR	4	10	0	SAND	1230	n/a	n/a	0	0.57763671875	0.412841796875	1	upper	amplitud.ttf
1590302	WORD	wordpools/wasnorm_wordpool_less_exclusions.txt	LTP204	ltpFR	4	10	0	BALCONY	72	n/a	n/a	1	0.57763671875	0.412841796875	1	upper	amplitud.ttf
1594323	WORD	wordpools/wasnorm_wordpool_less_exclusions.txt	LTP204	ltpFR	4	10	0	ROCKET	1202	n/a	n/a	1	0.57763671875	0.412841796875	1	upper	amplitud.ttf
1598338	WORD	wordpools/wasnorm_wordpool_less_exclusions.txt	LTP204	ltpFR	4	10	0	CAFETERIA	217	n/a	n/a	1	0.57763671875	0.412841796875	1	upper	amplitud.ttf
1602463	WORD	wordpools/wasnorm_wordpool_less_exclusions.txt	LTP204	ltpFR	4	10	0	GRILL	661	n/a	n/a	1	0.57763671875	0.412841796875	1	upper	amplitud.ttf
1606501	WORD	wordpools/wasnorm_wordpool_less_exclusions.txt	LTP204	ltpFR	4	10	1	BULL	193	n/a	n/a	1	0.422607421875	0.5869140625	0	lower	zerothre.ttf
1610627	WORD	wordpools/wasnorm_wordpool_less_exclusions.txt	LTP204	ltpFR	4	10	1	LAMB	797	n/a	n/a	1	0.422607421875	0.5869140625	0	lower	zerothre.ttf
1614582	WORD	wordpools/wasnorm_wordpool_less_exclusions.txt	LTP204	ltpFR	4	10	1	STRAWBERRY	1391	n/a	n/a	1	0.422607421875	0.5869140625	0	lower	zerothre.ttf
1618714	WORD	wordpools/wasnorm_wordpool_less_exclusions.txt	LTP204	ltpFR	4	10	1	CRAB	397	n/a	n/a	1	0.422607421875	0.5869140625	0	lower	zerothre.ttf
1622824	WORD	wordpools/wasnorm_wordpool_less_exclusions.txt	LTP204	ltpFR	4	10	1	ROOM	1206	n/a	n/a	0	0.422607421875	0.5869140625	0	lower	zerothre.ttf
1626795	WORD	wordpools/wasnorm_wordpool_less_exclusions.txt	LTP204	ltpFR	4	10	1	VIKING	1565	n/a	n/a	1	0.422607421875	0.5869140625	0	lower	zerothre.ttf
1630625	WORD	wordpools/wasnorm_wordpool_less_exclusions.txt	LTP204	ltpFR	4	10	0	CAT	257	n/a	n/a	0	0.57763671875	0.412841796875	1	upper	amplitud.ttf
1634490	WORD	wordpools/wasnorm_wordpool_less_exclusions.txt	LTP204	ltpFR	4	10	0	LOBSTER	837	n/a	n/a	1	0.57763671875	0.412841796875	1	upper	amplitud.ttf
1638622	WORD	wordpools/wasnorm_wordpool_less_exclusions.txt	LTP204	ltpFR	4	10	1	BUS	201	n/a	n/a	0	0.422607421875	0.5869140625	0	lower	zerothre.ttf
1642498	WORD	wordpools/wasnorm_wordpool_less_exclusions.txt	LTP204	ltpFR	4	10	1	CAR	241	n/a	n/a	0	0.422607421875	0.5869140625	0	lower	zerothre.ttf
1648394	REC_START	n/a	LTP204	ltpFR	4	10	n/a	n/a	n/a	n/a	n/a	n/a	n/a	n/a	n/a	n/a	n/a
1649766	REC_WORD	wordpools/wasnorm_wordpool_less_exclusions.txt	LTP204	ltpFR	4	10	1	CAR	241	n/a	n/a	0	n/a	n/a	n/a	n/a	n/a
1651097	REC_WORD	wordpools/wasnorm_wordpool_less_exclusions.txt	LTP204	ltpFR	4	10	1	BUS	201	n/a	n/a	0	n/a	n/a	n/a	n/a	n/a
1668144	REC_WORD	wordpools/wasnorm_wordpool_less_exclusions.txt	LTP204	ltpFR	4	10	0	CAFETERIA	217	n/a	n/a	1	n/a	n/a	n/a	n/a	n/a
1675297	REC_WORD	wordpools/wasnorm_wordpool_less_exclusions.txt	LTP204	ltpFR	4	10	0	BALCONY	72	n/a	n/a	1	n/a	n/a	n/a	n/a	n/a
1695088	REC_WORD	wordpools/wasnorm_wordpool_less_exclusions.txt	LTP204	ltpFR	4	10	1	MICROWAVE	892	n/a	n/a	0	n/a	n/a	n/a	n/a	n/a
1717736	REC_WORD	wordpools/wasnorm_wordpool_less_exclusions.txt	LTP204	ltpFR	4	10	0	SAND	1230	n/a	n/a	0	n/a	n/a	n/a	n/a	n/a
1728605	WORD	wordpools/wasnorm_wordpool_less_exclusions.txt	LTP204	ltpFR	4	11	1	VALVE	1546	n/a	n/a	2	0.422607421875	0.5869140625	0	lower	zerothre.ttf
1730168	KEY_MSG	n/a	LTP204	ltpFR	4	11	n/a	n/a	n/a	n/a	n/a	n/a	n/a	n/a	n/a	n/a	n/a
1732520	WORD	wordpools/wasnorm_wordpool_less_exclusions.txt	LTP204	ltpFR	4	11	1	CAB	209	n/a	n/a	0	0.422607421875	0.5869140625	0	lower	zerothre.ttf
1736468	WORD	wordpools/wasnorm_wordpool_less_exclusions.txt	LTP204	ltpFR	4	11	1	DOLLAR	482	n/a	n/a	0	0.422607421875	0.5869140625	0	lower	zerothre.ttf
1740300	WORD	wordpools/wasnorm_wordpool_less_exclusions.txt	LTP204	ltpFR	4	11	1	PORCUPINE	1107	n/a	n/a	1	0.422607421875	0.5869140625	0	lower	zerothre.ttf
1744448	WORD	wordpools/wasnorm_wordpool_less_exclusions.txt	LTP204	ltpFR	4	11	1	LEOPARD	812	n/a	n/a	1	0.422607421875	0.5869140625	0	lower	zerothre.ttf
1748403	WORD	wordpools/wasnorm_wordpool_less_exclusions.txt	LTP204	ltpFR	4	11	1	FLOWER	584	n/a	n/a	1	0.422607421875	0.5869140625	0	lower	zerothre.ttf
1752368	WORD	wordpools/wasnorm_wordpool_less_exclusions.txt	LTP204	ltpFR	4	11	1	VAMPIRE	1547	n/a	n/a	0	0.422607421875	0.5869140625	0	lower	zerothre.ttf
1756210	WORD	wordpools/wasnorm_wordpool_less_exclusions.txt	LTP204	ltpFR	4	11	1	BRANDY	169	n/a	n/a	0	0.422607421875	0.5869140625	0	lower	zerothre.ttf
1760298	WORD	wordpools/wasnorm_wordpool_less_exclusions.txt	LTP204	ltpFR	4	11	1	BISON	131	n/a	n/a	1	0.422607421875	0.5869140625	0	lower	zerothre.ttf
1764230	WORD	wordpools/wasnorm_wordpool_less_exclusions.txt	LTP204	ltpFR	4	11	1	MONEY	908	n/a	n/a	0	0.422607421875	0.5869140625	0	lower	zerothre.ttf
1768323	WORD	wordpools/wasnorm_wordpool_less_exclusions.txt	LTP204	ltpFR	4	11	1	SALOON	1228	n/a	n/a	0	0.422607421875	0.5869140625	0	lower	zerothre.ttf
1772277	WORD	wordpools/wasnorm_wordpool_less_exclusions.txt	LTP204	ltpFR	4	11	1	PUMPKIN	1142	n/a	n/a	1	0.422607421875	0.5869140625	0	lower	zerothre.ttf
1776376	WORD	wordpools/wasnorm_wordpool_less_exclusions.txt	LTP204	ltpFR	4	11	1	FOREST	593	n/a	n/a	1	0.422607421875	0.5869140625	0	lower	zerothre.ttf
1780240	WORD	wordpools/wasnorm_wordpool_less_exclusions.txt	LTP204	ltpFR	4	11	1	MOUTH	926	n/a	n/a	1	0.422607421875	0.5869140625	0	lower	zerothre.ttf
1784406	WORD	wordpools/wasnorm_wordpool_less_exclusions.txt	LTP204	ltpFR	4	11	1	PUMP	1141	n/a	n/a	0	0.422607421875	0.5869140625	0	lower	zerothre.ttf
1788548	WORD	wordpools/wasnorm_wordpool_less_exclusions.txt	LTP204	ltpFR	4	11	1	HOSE	720	n/a	n/a	0	0.422607421875	0.5869140625	0	lower	zerothre.ttf
1794511	REC_START	n/a	LTP204	ltpFR	4	11	n/a	n/a	n/a	n/a	n/a	n/a	n/a	n/a	n/a	n/a	n/a
1796027	REC_WORD	wordpools/wasnorm_wordpool_less_exclusions.txt	LTP204	ltpFR	4	11	1	HOSE	720	n/a	n/a	0	n/a	n/a	n/a	n/a	n/a
1797309	REC_WORD	wordpools/wasnorm_wordpool_less_exclusions.txt	LTP204	ltpFR	4	11	1	PUMPKIN	1142	n/a	n/a	1	n/a	n/a	n/a	n/a	n/a
1809501	REC_WORD	wordpools/wasnorm_wordpool_less_exclusions.txt	LTP204	ltpFR	4	11	1	VALVE	1546	n/a	n/a	2	n/a	n/a	n/a	n/a	n/a
1818940	REC_WORD	wordpools/wasnorm_wordpool_less_exclusions.txt	LTP204	ltpFR	4	11	1	PUMP	1141	n/a	n/a	0	n/a	n/a	n/a	n/a	n/a
1832908	REC_WORD	wordpools/wasnorm_wordpool_less_exclusions.txt	LTP204	ltpFR	4	11	n/a	ANIMAL	23	n/a	n/a	n/a	n/a	n/a	n/a	n/a	n/a
1845535	REC_WORD	wordpools/wasnorm_wordpool_less_exclusions.txt	LTP204	ltpFR	4	11	1	BRANDY	169	n/a	n/a	0	n/a	n/a	n/a	n/a	n/a
1848962	REC_WORD	wordpools/wasnorm_wordpool_less_exclusions.txt	LTP204	ltpFR	4	11	1	SALOON	1228	n/a	n/a	0	n/a	n/a	n/a	n/a	n/a
1883623	WORD	wordpools/wasnorm_wordpool_less_exclusions.txt	LTP204	ltpFR	4	12	0	CELLAR	267	n/a	n/a	2	0.57763671875	0.412841796875	1	upper	amplitud.ttf
1885085	KEY_MSG	n/a	LTP204	ltpFR	4	12	n/a	n/a	n/a	n/a	n/a	n/a	n/a	n/a	n/a	n/a	n/a
1887779	WORD	wordpools/wasnorm_wordpool_less_exclusions.txt	LTP204	ltpFR	4	12	0	PARROT	1015	n/a	n/a	0	0.57763671875	0.412841796875	1	upper	amplitud.ttf
1891989	WORD	wordpools/wasnorm_wordpool_less_exclusions.txt	LTP204	ltpFR	4	12	0	SOCKET	1340	n/a	n/a	0	0.57763671875	0.412841796875	1	upper	amplitud.ttf
1895904	WORD	wordpools/wasnorm_wordpool_less_exclusions.txt	LTP204	ltpFR	4	12	0	CROCODILE	411	n/a	n/a	1	0.57763671875	0.412841796875	1	upper	amplitud.ttf
1899818	WORD	wordpools/wasnorm_wordpool_less_exclusions.txt	LTP204	ltpFR	4	12	0	JAW	751	n/a	n/a	0	0.57763671875	0.412841796875	1	upper	amplitud.ttf
1903833	WORD	wordpools/wasnorm_wordpool_less_exclusions.txt	LTP204	ltpFR	4	12	0	CORK	380	n/a	n/a	0	0.57763671875	0.412841796875	1	upper	amplitud.ttf
1907871	WORD	wordpools/wasnorm_wordpool_less_exclusions.txt	LTP204	ltpFR	4	12	0	CORAL	378	n/a	n/a	0	0.57763671875	0.412841796875	1	upper	amplitud.ttf
1912003	WORD	wordpools/wasnorm_wordpool_less_exclusions.txt	LTP204	ltpFR	4	12	0	PENGUIN	1044	n/a	n/a	1	0.57763671875	0.412841796875	1	upper	amplitud.ttf
1915862	WORD	wordpools/wasnorm_wordpool_less_exclusions.txt	LTP204	ltpFR	4	12	0	ROBIN	1199	n/a	n/a	0	0.57763671875	0.412841796875	1	upper	amplitud.ttf
1919816	WORD	wordpools/wasnorm_wordpool_less_exclusions.txt	LTP204	ltpFR	4	12	0	STEM	1376	n/a	n/a	0	0.57763671875	0.412841796875	1	upper	amplitud.ttf
1923646	WORD	wordpools/wasnorm_wordpool_less_exclusions.txt	LTP204	ltpFR	4	12	0	WEED	1599	n/a	n/a	0	0.57763671875	0.412841796875	1	upper	amplitud.ttf
1927488	WORD	wordpools/wasnorm_wordpool_less_exclusions.txt	LTP204	ltpFR	4	12	0	COTTON	385	n/a	n/a	0	0.57763671875	0.412841796875	1	upper	amplitud.ttf
1931687	WORD	wordpools/wasnorm_wordpool_less_exclusions.txt	LTP204	ltpFR	4	12	0	WINGS	1614	n/a	n/a	0	0.57763671875	0.412841796875	1	upper	amplitud.ttf
1935608	WORD	wordpools/wasnorm_wordpool_less_exclusions.txt	LTP204	ltpFR	4	12	0	LABYRINTH	791	n/a	n/a	1	0.57763671875	0.412841796875	1	upper	amplitud.ttf
1939450	WORD	wordpools/wasnorm_wordpool_less_exclusions.txt	LTP204	ltpFR	4	12	0	BRUNETTE	181	n/a	n/a	0	0.57763671875	0.412841796875	1	upper	amplitud.ttf
1943649	WORD	wordpools/wasnorm_wordpool_less_exclusions.txt	LTP204	ltpFR	4	12	0	RAFT	1159	n/a	n/a	0	0.57763671875	0.412841796875	1	upper	amplitud.ttf
1949578	REC_START	n/a	LTP204	ltpFR	4	12	n/a	n/a	n/a	n/a	n/a	n/a	n/a	n/a	n/a	n/a	n/a
1950875	REC_WORD	wordpools/wasnorm_wordpool_less_exclusions.txt	LTP204	ltpFR	4	12	0	RAFT	1159	n/a	n/a	0	n/a	n/a	n/a	n/a	n/a
1951753	REC_WORD	wordpools/wasnorm_wordpool_less_exclusions.txt	LTP204	ltpFR	4	12	0	BRUNETTE	181	n/a	n/a	0	n/a	n/a	n/a	n/a	n/a
1952840	REC_WORD	wordpools/wasnorm_wordpool_less_exclusions.txt	LTP204	ltpFR	4	12	0	LABYRINTH	791	n/a	n/a	1	n/a	n/a	n/a	n/a	n/a
1986214	REC_WORD	wordpools/wasnorm_wordpool_less_exclusions.txt	LTP204	ltpFR	4	12	0	ROBIN	1199	n/a	n/a	0	n/a	n/a	n/a	n/a	n/a
1987901	REC_WORD	wordpools/wasnorm_wordpool_less_exclusions.txt	LTP204	ltpFR	4	12	0	PENGUIN	1044	n/a	n/a	1	n/a	n/a	n/a	n/a	n/a
1994541	REC_WORD	wordpools/wasnorm_wordpool_less_exclusions.txt	LTP204	ltpFR	4	12	0	WINGS	1614	n/a	n/a	0	n/a	n/a	n/a	n/a	n/a
2009048	REC_WORD	wordpools/wasnorm_wordpool_less_exclusions.txt	LTP204	ltpFR	4	12	1	ALLIGATOR	16	n/a	n/a	1	n/a	n/a	n/a	n/a	n/a
2025224	REST_REWET	n/a	LTP204	ltpFR	4	12	n/a	n/a	n/a	n/a	n/a	n/a	n/a	n/a	n/a	n/a	n/a
2286608	WORD	wordpools/wasnorm_wordpool_less_exclusions.txt	LTP204	ltpFR	4	13	1	CAPTAIN	239	n/a	n/a	1	0.422607421875	0.5869140625	0	lower	zerothre.ttf
2290747	WORD	wordpools/wasnorm_wordpool_less_exclusions.txt	LTP204	ltpFR	4	13	1	MASK	876	n/a	n/a	0	0.422607421875	0.5869140625	0	lower	zerothre.ttf
2294661	WORD	wordpools/wasnorm_wordpool_less_exclusions.txt	LTP204	ltpFR	4	13	1	GODDESS	646	n/a	n/a	0	0.422607421875	0.5869140625	0	lower	zerothre.ttf
2298878	WORD	wordpools/wasnorm_wordpool_less_exclusions.txt	LTP204	ltpFR	4	13	1	SHARK	1275	n/a	n/a	1	0.422607421875	0.5869140625	0	lower	zerothre.ttf
2303044	WORD	wordpools/wasnorm_wordpool_less_exclusions.txt	LTP204	ltpFR	4	13	1	REGISTER	1180	n/a	n/a	0	0.422607421875	0.5869140625	0	lower	zerothre.ttf
2307076	WORD	wordpools/wasnorm_wordpool_less_exclusions.txt	LTP204	ltpFR	4	13	1	CHECK	284	n/a	n/a	0	0.422607421875	0.5869140625	0	lower	zerothre.ttf
2311018	WORD	wordpools/wasnorm_wordpool_less_exclusions.txt	LTP204	ltpFR	4	13	1	BUTTON	207	n/a	n/a	0	0.422607421875	0.5869140625	0	lower	zerothre.ttf
2315200	WORD	wordpools/wasnorm_wordpool_less_exclusions.txt	LTP204	ltpFR	4	13	1	OCTOPUS	971	n/a	n/a	1	0.422607421875	0.5869140625	0	lower	zerothre.ttf
2319349	WORD	wordpools/wasnorm_wordpool_less_exclusions.txt	LTP204	ltpFR	4	13	1	CUE	422	n/a	n/a	0	0.422607421875	0.5869140625	0	lower	zerothre.ttf
2323447	WORD	wordpools/wasnorm_wordpool_less_exclusions.txt	LTP204	ltpFR	4	13	1	SCREW	1254	n/a	n/a	0	0.422607421875	0.5869140625	0	lower	zerothre.ttf
2327635	WORD	wordpools/wasnorm_wordpool_less_exclusions.txt	LTP204	ltpFR	4	13	1	FACTORY	548	n/a	n/a	0	0.422607421875	0.5869140625	0	lower	zerothre.ttf
2331483	WORD	wordpools/wasnorm_wordpool_less_exclusions.txt	LTP204	ltpFR	4	13	1	ELM	527	n/a	n/a	1	0.422607421875	0.5869140625	0	lower	zerothre.ttf
2335532	WORD	wordpools/wasnorm_wordpool_less_exclusions.txt	LTP204	ltpFR	4	13	1	BRANCH	168	n/a	n/a	1	0.422607421875	0.5869140625	0	lower	zerothre.ttf
2339375	WORD	wordpools/wasnorm_wordpool_less_exclusions.txt	LTP204	ltpFR	4	13	1	INVENTOR	743	n/a	n/a	1	0.422607421875	0.5869140625	0	lower	zerothre.ttf
2343396	WORD	wordpools/wasnorm_wordpool_less_exclusions.txt	LTP204	ltpFR	4	13	1	SHIRT	1287	n/a	n/a	0	0.422607421875	0.5869140625	0	lower	zerothre.ttf
2347361	WORD	wordpools/wasnorm_wordpool_less_exclusions.txt	LTP204	ltpFR	4	13	1	GROUND	666	n/a	n/a	1	0.422607421875	0.5869140625	0	lower	zerothre.ttf
2353395	REC_START	n/a	LTP204	ltpFR	4	13	n/a	n/a	n/a	n/a	n/a	n/a	n/a	n/a	n/a	n/a	n/a
2354083	REC_WORD	wordpools/wasnorm_wordpool_less_exclusions.txt	LTP204	ltpFR	4	13	n/a	LIVING	-1	n/a	n/a	n/a	n/a	n/a	n/a	n/a	n/a
2355675	REC_WORD_VV	wordpools/wasnorm_wordpool_less_exclusions.txt	LTP204	ltpFR	4	13	n/a	<>	-1	n/a	n/a	n/a	n/a	n/a	n/a	n/a	n/a
2356223	REC_WORD	wordpools/wasnorm_wordpool_less_exclusions.txt	LTP204	ltpFR	4	13	1	GROUND	666	n/a	n/a	1	n/a	n/a	n/a	n/a	n/a
2358842	REC_WORD	wordpools/wasnorm_wordpool_less_exclusions.txt	LTP204	ltpFR	4	13	1	SHIRT	1287	n/a	n/a	0	n/a	n/a	n/a	n/a	n/a
2388929	REC_WORD	wordpools/wasnorm_wordpool_less_exclusions.txt	LTP204	ltpFR	4	13	1	FACTORY	548	n/a	n/a	0	n/a	n/a	n/a	n/a	n/a
2407716	REC_WORD	wordpools/wasnorm_wordpool_less_exclusions.txt	LTP204	ltpFR	4	13	1	OCTOPUS	971	n/a	n/a	1	n/a	n/a	n/a	n/a	n/a
2433468	WORD	wordpools/wasnorm_wordpool_less_exclusions.txt	LTP204	ltpFR	4	14	-1	FRIAR	605	n/a	n/a	-1	1.0	1.0	1	upper	Verdana.ttf
2437483	WORD	wordpools/wasnorm_wordpool_less_exclusions.txt	LTP204	ltpFR	4	14	-1	CORPORATION	382	n/a	n/a	-1	1.0	1.0	1	upper	Verdana.ttf
2441376	WORD	wordpools/wasnorm_wordpool_less_exclusions.txt	LTP204	ltpFR	4	14	-1	OWNER	993	n/a	n/a	-1	1.0	1.0	1	upper	Verdana.ttf
2445580	WORD	wordpools/wasnorm_wordpool_less_exclusions.txt	LTP204	ltpFR	4	14	-1	SAXOPHONE	1240	n/a	n/a	-1	1.0	1.0	1	upper	Verdana.ttf
2449545	WORD	wordpools/wasnorm_wordpool_less_exclusions.txt	LTP204	ltpFR	4	14	-1	PARIS	1014	n/a	n/a	-1	1.0	1.0	1	upper	Verdana.ttf
2453493	WORD	wordpools/wasnorm_wordpool_less_exclusions.txt	LTP204	ltpFR	4	14	-1	TRIBE	1505	n/a	n/a	-1	1.0	1.0	1	upper	Verdana.ttf
2457575	WORD	wordpools/wasnorm_wordpool_less_exclusions.txt	LTP204	ltpFR	4	14	-1	CHILD	299	n/a	n/a	-1	1.0	1.0	1	upper	Verdana.ttf
2461651	WORD	wordpools/wasnorm_wordpool_less_exclusions.txt	LTP204	ltpFR	4	14	-1	INFANT	737	n/a	n/a	-1	1.0	1.0	1	upper	Verdana.ttf
2465516	WORD	wordpools/wasnorm_wordpool_less_exclusions.txt	LTP204	ltpFR	4	14	-1	CONTINENT	367	n/a	n/a	-1	1.0	1.0	1	upper	Verdana.ttf
2469721	WORD	wordpools/wasnorm_wordpool_less_exclusions.txt	LTP204	ltpFR	4	14	-1	DRIVEWAY	500	n/a	n/a	-1	1.0	1.0	1	upper	Verdana.ttf
2473585	WORD	wordpools/wasnorm_wordpool_less_exclusions.txt	LTP204	ltpFR	4	14	-1	CHAUFFEUR	283	n/a	n/a	-1	1.0	1.0	1	upper	Verdana.ttf
2477651	WORD	wordpools/wasnorm_wordpool_less_exclusions.txt	LTP204	ltpFR	4	14	-1	HAWK	692	n/a	n/a	-1	1.0	1.0	1	upper	Verdana.ttf
2481716	WORD	wordpools/wasnorm_wordpool_less_exclusions.txt	LTP204	ltpFR	4	14	-1	DRUM	502	n/a	n/a	-1	1.0	1.0	1	upper	Verdana.ttf
2485927	WORD	wordpools/wasnorm_wordpool_less_exclusions.txt	LTP204	ltpFR	4	14	-1	HUT	729	n/a	n/a	-1	1.0	1.0	1	upper	Verdana.ttf
2489982	WORD	wordpools/wasnorm_wordpool_less_exclusions.txt	LTP204	ltpFR	4	14	-1	TONGUE	1479	n/a	n/a	-1	1.0	1.0	1	upper	Verdana.ttf
2493874	WORD	wordpools/wasnorm_wordpool_less_exclusions.txt	LTP204	ltpFR	4	14	-1	BLADE	134	n/a	n/a	-1	1.0	1.0	1	upper	Verdana.ttf
2499820	REC_START	n/a	LTP204	ltpFR	4	14	n/a	n/a	n/a	n/a	n/a	n/a	n/a	n/a	n/a	n/a	n/a
2500603	REC_WORD	wordpools/wasnorm_wordpool_less_exclusions.txt	LTP204	ltpFR	4	14	-1	BLADE	134	n/a	n/a	-1	n/a	n/a	n/a	n/a	n/a
2502319	REC_WORD	wordpools/wasnorm_wordpool_less_exclusions.txt	LTP204	ltpFR	4	14	-1	TONGUE	1479	n/a	n/a	-1	n/a	n/a	n/a	n/a	n/a
2504030	REC_WORD	wordpools/wasnorm_wordpool_less_exclusions.txt	LTP204	ltpFR	4	14	-1	HUT	729	n/a	n/a	-1	n/a	n/a	n/a	n/a	n/a
2509508	REC_WORD	wordpools/wasnorm_wordpool_less_exclusions.txt	LTP204	ltpFR	4	14	-1	FRIAR	605	n/a	n/a	-1	n/a	n/a	n/a	n/a	n/a
2513209	REC_WORD	wordpools/wasnorm_wordpool_less_exclusions.txt	LTP204	ltpFR	4	14	-1	CORPORATION	382	n/a	n/a	-1	n/a	n/a	n/a	n/a	n/a
2547634	REC_WORD_VV	wordpools/wasnorm_wordpool_less_exclusions.txt	LTP204	ltpFR	4	14	n/a	<>	-1	n/a	n/a	n/a	n/a	n/a	n/a	n/a	n/a
2548484	REC_WORD	wordpools/wasnorm_wordpool_less_exclusions.txt	LTP204	ltpFR	4	14	-1	PARIS	1014	n/a	n/a	-1	n/a	n/a	n/a	n/a	n/a
2561145	REC_WORD	wordpools/wasnorm_wordpool_less_exclusions.txt	LTP204	ltpFR	4	14	-1	TONGUE	1479	n/a	n/a	-1	n/a	n/a	n/a	n/a	n/a
2567172	REC_WORD	wordpools/wasnorm_wordpool_less_exclusions.txt	LTP204	ltpFR	4	14	-1	CHILD	299	n/a	n/a	-1	n/a	n/a	n/a	n/a	n/a
2583611	WORD	wordpools/wasnorm_wordpool_less_exclusions.txt	LTP204	ltpFR	4	15	0	FIREMAN	569	n/a	n/a	0	0.57763671875	0.412841796875	1	upper	amplitud.ttf
2587665	WORD	wordpools/wasnorm_wordpool_less_exclusions.txt	LTP204	ltpFR	4	15	0	BRACELET	163	n/a	n/a	0	0.57763671875	0.412841796875	1	upper	amplitud.ttf
2591832	WORD	wordpools/wasnorm_wordpool_less_exclusions.txt	LTP204	ltpFR	4	15	0	CHICK	296	n/a	n/a	0	0.57763671875	0.412841796875	1	upper	amplitud.ttf
2596025	WORD	wordpools/wasnorm_wordpool_less_exclusions.txt	LTP204	ltpFR	4	15	0	CLAMP	316	n/a	n/a	0	0.57763671875	0.412841796875	1	upper	amplitud.ttf
2600091	WORD	wordpools/wasnorm_wordpool_less_exclusions.txt	LTP204	ltpFR	4	15	0	FACE	547	n/a	n/a	1	0.57763671875	0.412841796875	1	upper	amplitud.ttf
2603978	WORD	wordpools/wasnorm_wordpool_less_exclusions.txt	LTP204	ltpFR	4	15	0	TREAD	1499	n/a	n/a	0	0.57763671875	0.412841796875	1	upper	amplitud.ttf
2607970	WORD	wordpools/wasnorm_wordpool_less_exclusions.txt	LTP204	ltpFR	4	15	0	POOL	1103	n/a	n/a	1	0.57763671875	0.412841796875	1	upper	amplitud.ttf
2612103	WORD	wordpools/wasnorm_wordpool_less_exclusions.txt	LTP204	ltpFR	4	15	0	GIFT	635	n/a	n/a	0	0.57763671875	0.412841796875	1	upper	amplitud.ttf
2616268	WORD	wordpools/wasnorm_wordpool_less_exclusions.txt	LTP204	ltpFR	4	15	0	POWDER	1117	n/a	n/a	0	0.57763671875	0.412841796875	1	upper	amplitud.ttf
2620222	WORD	wordpools/wasnorm_wordpool_less_exclusions.txt	LTP204	ltpFR	4	15	0	DRAGON	492	n/a	n/a	1	0.57763671875	0.412841796875	1	upper	amplitud.ttf
2624154	WORD	wordpools/wasnorm_wordpool_less_exclusions.txt	LTP204	ltpFR	4	15	0	DRYER	503	n/a	n/a	0	0.57763671875	0.412841796875	1	upper	amplitud.ttf
2628119	WORD	wordpools/wasnorm_wordpool_less_exclusions.txt	LTP204	ltpFR	4	15	0	WARDROBE	1587	n/a	n/a	1	0.57763671875	0.412841796875	1	upper	amplitud.ttf
2632218	WORD	wordpools/wasnorm_wordpool_less_exclusions.txt	LTP204	ltpFR	4	15	0	FRECKLE	602	n/a	n/a	0	0.57763671875	0.412841796875	1	upper	amplitud.ttf
2636244	WORD	wordpools/wasnorm_wordpool_less_exclusions.txt	LTP204	ltpFR	4	15	0	DUNGEON	507	n/a	n/a	1	0.57763671875	0.412841796875	1	upper	amplitud.ttf
2640125	WORD	wordpools/wasnorm_wordpool_less_exclusions.txt	LTP204	ltpFR	4	15	0	ISLAND	745	n/a	n/a	0	0.57763671875	0.412841796875	1	upper	amplitud.ttf
2644307	WORD	wordpools/wasnorm_wordpool_less_exclusions.txt	LTP204	ltpFR	4	15	0	SUN	1406	n/a	n/a	1	0.57763671875	0.412841796875	1	upper	amplitud.ttf
2650214	REC_START	n/a	LTP204	ltpFR	4	15	n/a	n/a	n/a	n/a	n/a	n/a	n/a	n/a	n/a	n/a	n/a
2651067	REC_WORD	wordpools/wasnorm_wordpool_less_exclusions.txt	LTP204	ltpFR	4	15	0	SUN	1406	n/a	n/a	1	n/a	n/a	n/a	n/a	n/a
2652803	REC_WORD_VV	wordpools/wasnorm_wordpool_less_exclusions.txt	LTP204	ltpFR	4	15	n/a	<>	-1	n/a	n/a	n/a	n/a	n/a	n/a	n/a	n/a
2653803	REC_WORD_VV	wordpools/wasnorm_wordpool_less_exclusions.txt	LTP204	ltpFR	4	15	n/a	<>	-1	n/a	n/a	n/a	n/a	n/a	n/a	n/a	n/a
2655741	REC_WORD	wordpools/wasnorm_wordpool_less_exclusions.txt	LTP204	ltpFR	4	15	0	WARDROBE	1587	n/a	n/a	1	n/a	n/a	n/a	n/a	n/a
2662895	REC_WORD	wordpools/wasnorm_wordpool_less_exclusions.txt	LTP204	ltpFR	4	15	0	ISLAND	745	n/a	n/a	0	n/a	n/a	n/a	n/a	n/a
2673496	REC_WORD	wordpools/wasnorm_wordpool_less_exclusions.txt	LTP204	ltpFR	4	15	0	DRAGON	492	n/a	n/a	1	n/a	n/a	n/a	n/a	n/a
2676579	REC_WORD	wordpools/wasnorm_wordpool_less_exclusions.txt	LTP204	ltpFR	4	15	0	DUNGEON	507	n/a	n/a	1	n/a	n/a	n/a	n/a	n/a
2699916	REC_WORD	wordpools/wasnorm_wordpool_less_exclusions.txt	LTP204	ltpFR	4	15	0	CLAMP	316	n/a	n/a	0	n/a	n/a	n/a	n/a	n/a
2717660	REC_WORD	wordpools/wasnorm_wordpool_less_exclusions.txt	LTP204	ltpFR	4	15	n/a	HEAD	695	n/a	n/a	n/a	n/a	n/a	n/a	n/a	n/a
2730365	WORD	wordpools/wasnorm_wordpool_less_exclusions.txt	LTP204	ltpFR	4	16	0	TOENAIL	1474	n/a	n/a	0	0.57763671875	0.412841796875	1	upper	amplitud.ttf
2734286	WORD	wordpools/wasnorm_wordpool_less_exclusions.txt	LTP204	ltpFR	4	16	0	ALMANAC	17	n/a	n/a	0	0.57763671875	0.412841796875	1	upper	amplitud.ttf
2738267	WORD	wordpools/wasnorm_wordpool_less_exclusions.txt	LTP204	ltpFR	4	16	1	PILOT	1070	n/a	n/a	1	0.422607421875	0.5869140625	0	lower	zerothre.ttf
2742476	WORD	wordpools/wasnorm_wordpool_less_exclusions.txt	LTP204	ltpFR	4	16	1	BUILDER	190	n/a	n/a	1	0.422607421875	0.5869140625	0	lower	zerothre.ttf
2746331	WORD	wordpools/wasnorm_wordpool_less_exclusions.txt	LTP204	ltpFR	4	16	0	SCALPEL	1243	n/a	n/a	0	0.57763671875	0.412841796875	1	upper	amplitud.ttf
2750390	WORD	wordpools/wasnorm_wordpool_less_exclusions.txt	LTP204	ltpFR	4	16	0	PASSENGER	1020	n/a	n/a	1	0.57763671875	0.412841796875	1	upper	amplitud.ttf
2754471	WORD	wordpools/wasnorm_wordpool_less_exclusions.txt	LTP204	ltpFR	4	16	0	SLUG	1329	n/a	n/a	0	0.57763671875	0.412841796875	1	upper	amplitud.ttf
2758492	WORD	wordpools/wasnorm_wordpool_less_exclusions.txt	LTP204	ltpFR	4	16	0	ANGEL	22	n/a	n/a	n/a	0.57763671875	0.412841796875	1	upper	amplitud.ttf
2761537	SLOW_MSG	n/a	LTP204	ltpFR	4	16	n/a	n/a	n/a	n/a	n/a	n/a	n/a	n/a	n/a	n/a	n/a
2764192	WORD	wordpools/wasnorm_wordpool_less_exclusions.txt	LTP204	ltpFR	4	16	1	GALLON	618	n/a	n/a	0	0.422607421875	0.5869140625	0	lower	zerothre.ttf
2768314	WORD	wordpools/wasnorm_wordpool_less_exclusions.txt	LTP204	ltpFR	4	16	1	JOURNAL	760	n/a	n/a	0	0.422607421875	0.5869140625	0	lower	zerothre.ttf
2772346	WORD	wordpools/wasnorm_wordpool_less_exclusions.txt	LTP204	ltpFR	4	16	1	BEVERAGE	123	n/a	n/a	0	0.422607421875	0.5869140625	0	lower	zerothre.ttf
2776560	WORD	wordpools/wasnorm_wordpool_less_exclusions.txt	LTP204	ltpFR	4	16	1	STRAW	1390	n/a	n/a	1	0.422607421875	0.5869140625	0	lower	zerothre.ttf
2780503	WORD	wordpools/wasnorm_wordpool_less_exclusions.txt	LTP204	ltpFR	4	16	1	GRAVEL	659	n/a	n/a	0	0.422607421875	0.5869140625	0	lower	zerothre.ttf
2784641	WORD	wordpools/wasnorm_wordpool_less_exclusions.txt	LTP204	ltpFR	4	16	1	RAILROAD	1162	n/a	n/a	0	0.422607421875	0.5869140625	0	lower	zerothre.ttf
2788556	WORD	wordpools/wasnorm_wordpool_less_exclusions.txt	LTP204	ltpFR	4	16	0	BOXER	160	n/a	n/a	1	0.57763671875	0.412841796875	1	upper	amplitud.ttf
2792437	WORD	wordpools/wasnorm_wordpool_less_exclusions.txt	LTP204	ltpFR	4	16	0	COYOTE	396	n/a	n/a	0	0.57763671875	0.412841796875	1	upper	amplitud.ttf
2798221	REC_START	n/a	LTP204	ltpFR	4	16	n/a	n/a	n/a	n/a	n/a	n/a	n/a	n/a	n/a	n/a	n/a
2799069	REC_WORD	wordpools/wasnorm_wordpool_less_exclusions.txt	LTP204	ltpFR	4	16	0	COYOTE	396	n/a	n/a	0	n/a	n/a	n/a	n/a	n/a
2800520	REC_WORD	wordpools/wasnorm_wordpool_less_exclusions.txt	LTP204	ltpFR	4	16	0	BOXER	160	n/a	n/a	1	n/a	n/a	n/a	n/a	n/a
2815636	REC_WORD	wordpools/wasnorm_wordpool_less_exclusions.txt	LTP204	ltpFR	4	16	1	BUILDER	190	n/a	n/a	1	n/a	n/a	n/a	n/a	n/a
2820844	REC_WORD	wordpools/wasnorm_wordpool_less_exclusions.txt	LTP204	ltpFR	4	16	1	GRAVEL	659	n/a	n/a	0	n/a	n/a	n/a	n/a	n/a
2845927	REC_WORD	wordpools/wasnorm_wordpool_less_exclusions.txt	LTP204	ltpFR	4	16	0	COYOTE	396	n/a	n/a	0	n/a	n/a	n/a	n/a	n/a
2855206	REC_WORD	wordpools/wasnorm_wordpool_less_exclusions.txt	LTP204	ltpFR	4	16	0	TOENAIL	1474	n/a	n/a	0	n/a	n/a	n/a	n/a	n/a
2858524	REC_WORD	wordpools/wasnorm_wordpool_less_exclusions.txt	LTP204	ltpFR	4	16	0	SCALPEL	1243	n/a	n/a	0	n/a	n/a	n/a	n/a	n/a
2901366	REC_START	n/a	LTP204	ltpFR	4	n/a	n/a	n/a	n/a	n/a	n/a	n/a	n/a	n/a	n/a	n/a	n/a
2901999	FFR_REC_WORD	wordpools/wasnorm_wordpool_less_exclusions.txt	LTP204	ltpFR	4	n/a	0	SCALPEL	1243	n/a	n/a	0	n/a	n/a	n/a	n/a	n/a
2904339	FFR_REC_WORD	wordpools/wasnorm_wordpool_less_exclusions.txt	LTP204	ltpFR	4	n/a	0	COYOTE	396	n/a	n/a	0	n/a	n/a	n/a	n/a	n/a
2906559	FFR_REC_WORD	wordpools/wasnorm_wordpool_less_exclusions.txt	LTP204	ltpFR	4	n/a	0	DRAGON	492	n/a	n/a	1	n/a	n/a	n/a	n/a	n/a
2908559	FFR_REC_WORD	wordpools/wasnorm_wordpool_less_exclusions.txt	LTP204	ltpFR	4	n/a	0	DUNGEON	507	n/a	n/a	1	n/a	n/a	n/a	n/a	n/a
2911198	FFR_REC_WORD	wordpools/wasnorm_wordpool_less_exclusions.txt	LTP204	ltpFR	4	n/a	1	GRAVEL	659	n/a	n/a	0	n/a	n/a	n/a	n/a	n/a
2913334	FFR_REC_WORD	wordpools/wasnorm_wordpool_less_exclusions.txt	LTP204	ltpFR	4	n/a	0	ISLAND	745	n/a	n/a	0	n/a	n/a	n/a	n/a	n/a
2915369	FFR_REC_WORD	wordpools/wasnorm_wordpool_less_exclusions.txt	LTP204	ltpFR	4	n/a	0	LABYRINTH	791	n/a	n/a	1	n/a	n/a	n/a	n/a	n/a
2917125	FFR_REC_WORD	wordpools/wasnorm_wordpool_less_exclusions.txt	LTP204	ltpFR	4	n/a	-1	FRIAR	605	n/a	n/a	-1	n/a	n/a	n/a	n/a	n/a
2926089	FFR_REC_WORD	wordpools/wasnorm_wordpool_less_exclusions.txt	LTP204	ltpFR	4	n/a	n/a	GIRLFRIEND	-1	n/a	n/a	n/a	n/a	n/a	n/a	n/a	n/a
2929582	FFR_REC_WORD	wordpools/wasnorm_wordpool_less_exclusions.txt	LTP204	ltpFR	4	n/a	0	TOENAIL	1474	n/a	n/a	0	n/a	n/a	n/a	n/a	n/a
2943665	FFR_REC_WORD	wordpools/wasnorm_wordpool_less_exclusions.txt	LTP204	ltpFR	4	n/a	0	BOXER	160	n/a	n/a	1	n/a	n/a	n/a	n/a	n/a
2949022	FFR_REC_WORD	wordpools/wasnorm_wordpool_less_exclusions.txt	LTP204	ltpFR	4	n/a	-1	PARIS	1014	n/a	n/a	-1	n/a	n/a	n/a	n/a	n/a
2954710	FFR_REC_WORD	wordpools/wasnorm_wordpool_less_exclusions.txt	LTP204	ltpFR	4	n/a	-1	CHILD	299	n/a	n/a	-1	n/a	n/a	n/a	n/a	n/a
2961310	FFR_REC_WORD	wordpools/wasnorm_wordpool_less_exclusions.txt	LTP204	ltpFR	4	n/a	n/a	HEAD	695	n/a	n/a	n/a	n/a	n/a	n/a	n/a	n/a
2966957	FFR_REC_WORD	wordpools/wasnorm_wordpool_less_exclusions.txt	LTP204	ltpFR	4	n/a	0	PENGUIN	1044	n/a	n/a	1	n/a	n/a	n/a	n/a	n/a
2970085	FFR_REC_WORD	wordpools/wasnorm_wordpool_less_exclusions.txt	LTP204	ltpFR	4	n/a	0	ROBIN	1199	n/a	n/a	0	n/a	n/a	n/a	n/a	n/a
2977877	FFR_REC_WORD	wordpools/wasnorm_wordpool_less_exclusions.txt	LTP204	ltpFR	4	n/a	0	ISLAND	745	n/a	n/a	0	n/a	n/a	n/a	n/a	n/a
2981144	FFR_REC_WORD	wordpools/wasnorm_wordpool_less_exclusions.txt	LTP204	ltpFR	4	n/a	-1	SHOULDER	1294	n/a	n/a	-1	n/a	n/a	n/a	n/a	n/a
2992184	FFR_REC_WORD	wordpools/wasnorm_wordpool_less_exclusions.txt	LTP204	ltpFR	4	n/a	n/a	STOMACH	1384	n/a	n/a	n/a	n/a	n/a	n/a	n/a	n/a
3008253	FFR_REC_WORD	wordpools/wasnorm_wordpool_less_exclusions.txt	LTP204	ltpFR	4	n/a	0	RAFT	1159	n/a	n/a	0	n/a	n/a	n/a	n/a	n/a
3033805	FFR_REC_WORD	wordpools/wasnorm_wordpool_less_exclusions.txt	LTP204	ltpFR	4	n/a	-1	TONGUE	1479	n/a	n/a	-1	n/a	n/a	n/a	n/a	n/a
3051839	FFR_REC_WORD	wordpools/wasnorm_wordpool_less_exclusions.txt	LTP204	ltpFR	4	n/a	n/a	CAKE	219	n/a	n/a	n/a	n/a	n/a	n/a	n/a	n/a
3063293	FFR_REC_WORD	wordpools/wasnorm_wordpool_less_exclusions.txt	LTP204	ltpFR	4	n/a	1	OCTOPUS	971	n/a	n/a	1	n/a	n/a	n/a	n/a	n/a
3073250	FFR_REC_WORD	wordpools/wasnorm_wordpool_less_exclusions.txt	LTP204	ltpFR	4	n/a	1	FACTORY	548	n/a	n/a	0	n/a	n/a	n/a	n/a	n/a
3090147	FFR_REC_WORD	wordpools/wasnorm_wordpool_less_exclusions.txt	LTP204	ltpFR	4	n/a	1	PUBLISHER	1137	n/a	n/a	0	n/a	n/a	n/a	n/a	n/a
3093235	FFR_REC_WORD	wordpools/wasnorm_wordpool_less_exclusions.txt	LTP204	ltpFR	4	n/a	0	WRITER	1627	n/a	n/a	1	n/a	n/a	n/a	n/a	n/a
3105472	FFR_REC_WORD	wordpools/wasnorm_wordpool_less_exclusions.txt	LTP204	ltpFR	4	n/a	-1	FRIAR	605	n/a	n/a	-1	n/a	n/a	n/a	n/a	n/a
3122219	FFR_REC_WORD	wordpools/wasnorm_wordpool_less_exclusions.txt	LTP204	ltpFR	4	n/a	n/a	DYNASTY	-1	n/a	n/a	n/a	n/a	n/a	n/a	n/a	n/a
3141874	FFR_REC_WORD	wordpools/wasnorm_wordpool_less_exclusions.txt	LTP204	ltpFR	4	n/a	0	RAFT	1159	n/a	n/a	0	n/a	n/a	n/a	n/a	n/a
3149103	FFR_REC_WORD	wordpools/wasnorm_wordpool_less_exclusions.txt	LTP204	ltpFR	4	n/a	1	ALLIGATOR	16	n/a	n/a	1	n/a	n/a	n/a	n/a	n/a
3178491	FFR_REC_WORD	wordpools/wasnorm_wordpool_less_exclusions.txt	LTP204	ltpFR	4	n/a	0	SLUG	1329	n/a	n/a	0	n/a	n/a	n/a	n/a	n/a
3189236	FFR_REC_WORD	wordpools/wasnorm_wordpool_less_exclusions.txt	LTP204	ltpFR	4	n/a	0	BALCONY	72	n/a	n/a	1	n/a	n/a	n/a	n/a	n/a
3285062	REC_START	n/a	LTP204	ltpFR	4	1	n/a	n/a	n/a	n/a	n/a	n/a	n/a	n/a	n/a	n/a	n/a
3285111	RECOG_TARGET	n/a	LTP204	ltpFR	4	1	1	JOURNAL	760	1	4	0	n/a	n/a	n/a	n/a	n/a
3287132	RECOG_RESP	n/a	LTP204	ltpFR	4	1	1	JOURNAL	760	1	n/a	0	n/a	n/a	n/a	n/a	n/a
3292101	RECOG_CONF	n/a	LTP204	ltpFR	4	1	1	JOURNAL	760	n/a	4	0	n/a	n/a	n/a	n/a	n/a
3295333	RECOG_TARGET	n/a	LTP204	ltpFR	4	1	0	CELLAR	267	1	5	2	n/a	n/a	n/a	n/a	n/a
3297000	RECOG_RESP	n/a	LTP204	ltpFR	4	1	0	CELLAR	267	1	n/a	2	n/a	n/a	n/a	n/a	n/a
3300801	RECOG_CONF	n/a	LTP204	ltpFR	4	1	0	CELLAR	267	n/a	5	2	n/a	n/a	n/a	n/a	n/a
3304500	RECOG_LURE	n/a	LTP204	ltpFR	4	1	n/a	CREAM	402	0	3	n/a	n/a	n/a	n/a	n/a	n/a
3305780	RECOG_RESP	n/a	LTP204	ltpFR	4	1	n/a	CREAM	402	0	n/a	n/a	n/a	n/a	n/a	n/a	n/a
3308364	RECOG_CONF	n/a	LTP204	ltpFR	4	1	n/a	CREAM	402	n/a	3	n/a	n/a	n/a	n/a	n/a	n/a
3311171	RECOG_TARGET	n/a	LTP204	ltpFR	4	1	1	NET	946	1	3	0	n/a	n/a	n/a	n/a	n/a
3312998	RECOG_RESP	n/a	LTP204	ltpFR	4	1	1	NET	946	1	n/a	0	n/a	n/a	n/a	n/a	n/a
3315378	RECOG_CONF	n/a	LTP204	ltpFR	4	1	1	NET	946	n/a	3	0	n/a	n/a	n/a	n/a	n/a
3317733	RECOG_TARGET	n/a	LTP204	ltpFR	4	1	1	CUE	422	0	2	0	n/a	n/a	n/a	n/a	n/a
3319474	RECOG_RESP	n/a	LTP204	ltpFR	4	1	1	CUE	422	0	n/a	0	n/a	n/a	n/a	n/a	n/a
3321414	RECOG_CONF	n/a	LTP204	ltpFR	4	1	1	CUE	422	n/a	2	0	n/a	n/a	n/a	n/a	n/a
3323639	RECOG_LURE	n/a	LTP204	ltpFR	4	1	n/a	MONK	910	0	3	n/a	n/a	n/a	n/a	n/a	n/a
3325665	RECOG_RESP	n/a	LTP204	ltpFR	4	1	n/a	MONK	910	0	n/a	n/a	n/a	n/a	n/a	n/a	n/a
3327431	RECOG_CONF	n/a	LTP204	ltpFR	4	1	n/a	MONK	910	n/a	3	n/a	n/a	n/a	n/a	n/a	n/a
3329395	RECOG_LURE	n/a	LTP204	ltpFR	4	1	n/a	THESAURUS	1454	1	4	n/a	n/a	n/a	n/a	n/a	n/a
3331002	RECOG_RESP	n/a	LTP204	ltpFR	4	1	n/a	THESAURUS	1454	1	n/a	n/a	n/a	n/a	n/a	n/a	n/a
3332669	RECOG_CONF	n/a	LTP204	ltpFR	4	1	n/a	THESAURUS	1454	n/a	4	n/a	n/a	n/a	n/a	n/a	n/a
3334608	RECOG_LURE	n/a	LTP204	ltpFR	4	1	n/a	ICING	732	0	3	n/a	n/a	n/a	n/a	n/a	n/a
3335886	RECOG_RESP	n/a	LTP204	ltpFR	4	1	n/a	ICING	732	0	n/a	n/a	n/a	n/a	n/a	n/a	n/a
3337697	RECOG_CONF	n/a	LTP204	ltpFR	4	1	n/a	ICING	732	n/a	3	n/a	n/a	n/a	n/a	n/a	n/a
3339599	RECOG_TARGET	n/a	LTP204	ltpFR	4	1	-1	WRIST	1626	0	2	-1	n/a	n/a	n/a	n/a	n/a
3340905	RECOG_RESP	n/a	LTP204	ltpFR	4	1	-1	WRIST	1626	0	n/a	-1	n/a	n/a	n/a	n/a	n/a
3342397	RECOG_CONF	n/a	LTP204	ltpFR	4	1	-1	WRIST	1626	n/a	2	-1	n/a	n/a	n/a	n/a	n/a
3344368	RECOG_TARGET	n/a	LTP204	ltpFR	4	1	1	SQUID	1361	1	3	1	n/a	n/a	n/a	n/a	n/a
3346387	RECOG_RESP	n/a	LTP204	ltpFR	4	1	1	SQUID	1361	1	n/a	1	n/a	n/a	n/a	n/a	n/a
3348612	RECOG_CONF	n/a	LTP204	ltpFR	4	1	1	SQUID	1361	n/a	3	1	n/a	n/a	n/a	n/a	n/a
3350484	RECOG_TARGET	n/a	LTP204	ltpFR	4	1	1	BAKER	71	1	5	1	n/a	n/a	n/a	n/a	n/a
3351611	RECOG_RESP	n/a	LTP204	ltpFR	4	1	1	BAKER	71	1	n/a	1	n/a	n/a	n/a	n/a	n/a
3353142	RECOG_CONF	n/a	LTP204	ltpFR	4	1	1	BAKER	71	n/a	5	1	n/a	n/a	n/a	n/a	n/a
3355153	RECOG_TARGET	n/a	LTP204	ltpFR	4	1	0	BASKET	95	1	5	1	n/a	n/a	n/a	n/a	n/a
3356200	RECOG_RESP	n/a	LTP204	ltpFR	4	1	0	BASKET	95	1	n/a	1	n/a	n/a	n/a	n/a	n/a
3357642	RECOG_CONF	n/a	LTP204	ltpFR	4	1	0	BASKET	95	n/a	5	1	n/a	n/a	n/a	n/a	n/a
3359691	RECOG_TARGET	n/a	LTP204	ltpFR	4	1	-1	FIREPLACE	570	1	5	-1	n/a	n/a	n/a	n/a	n/a
3360994	RECOG_RESP	n/a	LTP204	ltpFR	4	1	-1	FIREPLACE	570	1	n/a	-1	n/a	n/a	n/a	n/a	n/a
3362750	RECOG_CONF	n/a	LTP204	ltpFR	4	1	-1	FIREPLACE	570	n/a	5	-1	n/a	n/a	n/a	n/a	n/a
3364812	RECOG_TARGET	n/a	LTP204	ltpFR	4	1	1	REGISTER	1180	1	4	0	n/a	n/a	n/a	n/a	n/a
3366083	RECOG_RESP	n/a	LTP204	ltpFR	4	1	1	REGISTER	1180	1	n/a	0	n/a	n/a	n/a	n/a	n/a
3367480	RECOG_CONF	n/a	LTP204	ltpFR	4	1	1	REGISTER	1180	n/a	4	0	n/a	n/a	n/a	n/a	n/a
3369512	RECOG_LURE	n/a	LTP204	ltpFR	4	1	n/a	MUSTARD	935	0	1	n/a	n/a	n/a	n/a	n/a	n/a
3371411	RECOG_RESP	n/a	LTP204	ltpFR	4	1	n/a	MUSTARD	935	0	n/a	n/a	n/a	n/a	n/a	n/a	n/a
3372728	RECOG_CONF	n/a	LTP204	ltpFR	4	1	n/a	MUSTARD	935	n/a	1	n/a	n/a	n/a	n/a	n/a	n/a
3374698	RECOG_TARGET	n/a	LTP204	ltpFR	4	1	-1	COLUMN	350	1	3	-1	n/a	n/a	n/a	n/a	n/a
3376025	RECOG_RESP	n/a	LTP204	ltpFR	4	1	-1	COLUMN	350	1	n/a	-1	n/a	n/a	n/a	n/a	n/a
3377457	RECOG_CONF	n/a	LTP204	ltpFR	4	1	-1	COLUMN	350	n/a	3	-1	n/a	n/a	n/a	n/a	n/a
3379533	RECOG_TARGET	n/a	LTP204	ltpFR	4	1	0	COLLAR	345	1	4	0	n/a	n/a	n/a	n/a	n/a
3380655	RECOG_RESP	n/a	LTP204	ltpFR	4	1	0	COLLAR	345	1	n/a	0	n/a	n/a	n/a	n/a	n/a
3382246	RECOG_CONF	n/a	LTP204	ltpFR	4	1	0	COLLAR	345	n/a	4	0	n/a	n/a	n/a	n/a	n/a
3384246	RECOG_TARGET	n/a	LTP204	ltpFR	4	1	0	CONTRACT	368	1	5	1	n/a	n/a	n/a	n/a	n/a
3385274	RECOG_RESP	n/a	LTP204	ltpFR	4	1	0	CONTRACT	368	1	n/a	1	n/a	n/a	n/a	n/a	n/a
3386606	RECOG_CONF	n/a	LTP204	ltpFR	4	1	0	CONTRACT	368	n/a	5	1	n/a	n/a	n/a	n/a	n/a
3388517	RECOG_TARGET	n/a	LTP204	ltpFR	4	1	0	FIREMAN	569	1	5	0	n/a	n/a	n/a	n/a	n/a
3389445	RECOG_RESP	n/a	LTP204	ltpFR	4	1	0	FIREMAN	569	1	n/a	0	n/a	n/a	n/a	n/a	n/a
3390737	RECOG_CONF	n/a	LTP204	ltpFR	4	1	0	FIREMAN	569	n/a	5	0	n/a	n/a	n/a	n/a	n/a
3392801	RECOG_TARGET	n/a	LTP204	ltpFR	4	1	-1	OWNER	993	0	3	-1	n/a	n/a	n/a	n/a	n/a
3394124	RECOG_RESP	n/a	LTP204	ltpFR	4	1	-1	OWNER	993	0	n/a	-1	n/a	n/a	n/a	n/a	n/a
3395177	RECOG_CONF	n/a	LTP204	ltpFR	4	1	-1	OWNER	993	n/a	3	-1	n/a	n/a	n/a	n/a	n/a
3404086	REC_START	n/a	LTP204	ltpFR	4	2	n/a	n/a	n/a	n/a	n/a	n/a	n/a	n/a	n/a	n/a	n/a
3404137	RECOG_TARGET	n/a	LTP204	ltpFR	4	2	0	WART	1590	0	3	0	n/a	n/a	n/a	n/a	n/a
3405233	RECOG_RESP	n/a	LTP204	ltpFR	4	2	0	WART	1590	0	n/a	0	n/a	n/a	n/a	n/a	n/a
3406455	RECOG_CONF	n/a	LTP204	ltpFR	4	2	0	WART	1590	n/a	3	0	n/a	n/a	n/a	n/a	n/a
3408275	RECOG_LURE	n/a	LTP204	ltpFR	4	2	n/a	ENEMY	534	0	2	n/a	n/a	n/a	n/a	n/a	n/a
3409354	RECOG_RESP	n/a	LTP204	ltpFR	4	2	n/a	ENEMY	534	0	n/a	n/a	n/a	n/a	n/a	n/a	n/a
3410806	RECOG_CONF	n/a	LTP204	ltpFR	4	2	n/a	ENEMY	534	n/a	2	n/a	n/a	n/a	n/a	n/a	n/a
3412708	RECOG_TARGET	n/a	LTP204	ltpFR	4	2	0	CAPE	237	1	5	1	n/a	n/a	n/a	n/a	n/a
3413794	RECOG_RESP	n/a	LTP204	ltpFR	4	2	0	CAPE	237	1	n/a	1	n/a	n/a	n/a	n/a	n/a
3414976	RECOG_CONF	n/a	LTP204	ltpFR	4	2	0	CAPE	237	n/a	5	1	n/a	n/a	n/a	n/a	n/a
3417176	RECOG_TARGET	n/a	LTP204	ltpFR	4	2	0	CLIPPERS	324	1	5	0	n/a	n/a	n/a	n/a	n/a
3418378	RECOG_RESP	n/a	LTP204	ltpFR	4	2	0	CLIPPERS	324	1	n/a	0	n/a	n/a	n/a	n/a	n/a
3419536	RECOG_CONF	n/a	LTP204	ltpFR	4	2	0	CLIPPERS	324	n/a	5	0	n/a	n/a	n/a	n/a	n/a
3421491	RECOG_TARGET	n/a	LTP204	ltpFR	4	2	1	VIKING	1565	1	5	1	n/a	n/a	n/a	n/a	n/a
3422309	RECOG_RESP	n/a	LTP204	ltpFR	4	2	1	VIKING	1565	1	n/a	1	n/a	n/a	n/a	n/a	n/a
3423467	RECOG_CONF	n/a	LTP204	ltpFR	4	2	1	VIKING	1565	n/a	5	1	n/a	n/a	n/a	n/a	n/a
3425407	RECOG_TARGET	n/a	LTP204	ltpFR	4	2	-1	PONY	1102	1	5	-1	n/a	n/a	n/a	n/a	n/a
3426405	RECOG_RESP	n/a	LTP204	ltpFR	4	2	-1	PONY	1102	1	n/a	-1	n/a	n/a	n/a	n/a	n/a
3427538	RECOG_CONF	n/a	LTP204	ltpFR	4	2	-1	PONY	1102	n/a	5	-1	n/a	n/a	n/a	n/a	n/a
3429555	RECOG_TARGET	n/a	LTP204	ltpFR	4	2	1	PUMP	1141	1	4	0	n/a	n/a	n/a	n/a	n/a
3431214	RECOG_RESP	n/a	LTP204	ltpFR	4	2	1	PUMP	1141	1	n/a	0	n/a	n/a	n/a	n/a	n/a
3432426	RECOG_CONF	n/a	LTP204	ltpFR	4	2	1	PUMP	1141	n/a	4	0	n/a	n/a	n/a	n/a	n/a
3434273	RECOG_TARGET	n/a	LTP204	ltpFR	4	2	-1	TANK	1432	1	5	-1	n/a	n/a	n/a	n/a	n/a
3435160	RECOG_RESP	n/a	LTP204	ltpFR	4	2	-1	TANK	1432	1	n/a	-1	n/a	n/a	n/a	n/a	n/a
3436308	RECOG_CONF	n/a	LTP204	ltpFR	4	2	-1	TANK	1432	n/a	5	-1	n/a	n/a	n/a	n/a	n/a
3438222	RECOG_TARGET	n/a	LTP204	ltpFR	4	2	0	CHICK	296	1	5	0	n/a	n/a	n/a	n/a	n/a
3439191	RECOG_RESP	n/a	LTP204	ltpFR	4	2	0	CHICK	296	1	n/a	0	n/a	n/a	n/a	n/a	n/a
3440328	RECOG_CONF	n/a	LTP204	ltpFR	4	2	0	CHICK	296	n/a	5	0	n/a	n/a	n/a	n/a	n/a
3442354	RECOG_LURE	n/a	LTP204	ltpFR	4	2	n/a	TRAITOR	1495	1	3	n/a	n/a	n/a	n/a	n/a	n/a
3443531	RECOG_RESP	n/a	LTP204	ltpFR	4	2	n/a	TRAITOR	1495	1	n/a	n/a	n/a	n/a	n/a	n/a	n/a
3444978	RECOG_CONF	n/a	LTP204	ltpFR	4	2	n/a	TRAITOR	1495	n/a	3	n/a	n/a	n/a	n/a	n/a	n/a
3446714	RECOG_TARGET	n/a	LTP204	ltpFR	4	2	-1	THUMB	1462	0	3	-1	n/a	n/a	n/a	n/a	n/a
3447722	RECOG_RESP	n/a	LTP204	ltpFR	4	2	-1	THUMB	1462	0	n/a	-1	n/a	n/a	n/a	n/a	n/a
3448959	RECOG_CONF	n/a	LTP204	ltpFR	4	2	-1	THUMB	1462	n/a	3	-1	n/a	n/a	n/a	n/a	n/a
3450786	RECOG_TARGET	n/a	LTP204	ltpFR	4	2	1	FLASHLIGHT	575	0	2	0	n/a	n/a	n/a	n/a	n/a
3452461	RECOG_RESP	n/a	LTP204	ltpFR	4	2	1	FLASHLIGHT	575	0	n/a	0	n/a	n/a	n/a	n/a	n/a
3453528	RECOG_CONF	n/a	LTP204	ltpFR	4	2	1	FLASHLIGHT	575	n/a	2	0	n/a	n/a	n/a	n/a	n/a
3455452	RECOG_TARGET	n/a	LTP204	ltpFR	4	2	-1	CHAUFFEUR	283	1	5	-1	n/a	n/a	n/a	n/a	n/a
3456372	RECOG_RESP	n/a	LTP204	ltpFR	4	2	-1	CHAUFFEUR	283	1	n/a	-1	n/a	n/a	n/a	n/a	n/a
3457440	RECOG_CONF	n/a	LTP204	ltpFR	4	2	-1	CHAUFFEUR	283	n/a	5	-1	n/a	n/a	n/a	n/a	n/a
3459351	RECOG_TARGET	n/a	LTP204	ltpFR	4	2	1	PLUTO	1092	0	3	0	n/a	n/a	n/a	n/a	n/a
3460433	RECOG_RESP	n/a	LTP204	ltpFR	4	2	1	PLUTO	1092	0	n/a	0	n/a	n/a	n/a	n/a	n/a
3461490	RECOG_CONF	n/a	LTP204	ltpFR	4	2	1	PLUTO	1092	n/a	3	0	n/a	n/a	n/a	n/a	n/a
3463344	RECOG_TARGET	n/a	LTP204	ltpFR	4	2	1	BEAST	108	0	2	1	n/a	n/a	n/a	n/a	n/a
3465761	RECOG_RESP	n/a	LTP204	ltpFR	4	2	1	BEAST	108	0	n/a	1	n/a	n/a	n/a	n/a	n/a
3467038	RECOG_CONF	n/a	LTP204	ltpFR	4	2	1	BEAST	108	n/a	2	1	n/a	n/a	n/a	n/a	n/a
3468982	RECOG_TARGET	n/a	LTP204	ltpFR	4	2	1	BULL	193	0	3	1	n/a	n/a	n/a	n/a	n/a
3469861	RECOG_RESP	n/a	LTP204	ltpFR	4	2	1	BULL	193	0	n/a	1	n/a	n/a	n/a	n/a	n/a
3470959	RECOG_CONF	n/a	LTP204	ltpFR	4	2	1	BULL	193	n/a	3	1	n/a	n/a	n/a	n/a	n/a
3472835	RECOG_TARGET	n/a	LTP204	ltpFR	4	2	0	LOBSTER	837	1	2	1	n/a	n/a	n/a	n/a	n/a
3474621	RECOG_RESP	n/a	LTP204	ltpFR	4	2	0	LOBSTER	837	1	n/a	1	n/a	n/a	n/a	n/a	n/a
3475728	RECOG_CONF	n/a	LTP204	ltpFR	4	2	0	LOBSTER	837	n/a	2	1	n/a	n/a	n/a	n/a	n/a
3477530	RECOG_TARGET	n/a	LTP204	ltpFR	4	2	0	TANGERINE	1431	1	3	0	n/a	n/a	n/a	n/a	n/a
3478751	RECOG_RESP	n/a	LTP204	ltpFR	4	2	0	TANGERINE	1431	1	n/a	0	n/a	n/a	n/a	n/a	n/a
3479739	RECOG_CONF	n/a	LTP204	ltpFR	4	2	0	TANGERINE	1431	n/a	3	0	n/a	n/a	n/a	n/a	n/a
3481534	RECOG_TARGET	n/a	LTP204	ltpFR	4	2	-1	DRUM	502	1	1	-1	n/a	n/a	n/a	n/a	n/a
3482832	RECOG_RESP	n/a	LTP204	ltpFR	4	2	-1	DRUM	502	1	n/a	-1	n/a	n/a	n/a	n/a	n/a
3483860	RECOG_CONF	n/a	LTP204	ltpFR	4	2	-1	DRUM	502	n/a	1	-1	n/a	n/a	n/a	n/a	n/a
3485683	RECOG_TARGET	n/a	LTP204	ltpFR	4	2	1	PARTY	1018	0	3	0	n/a	n/a	n/a	n/a	n/a
3487656	RECOG_RESP	n/a	LTP204	ltpFR	4	2	1	PARTY	1018	0	n/a	0	n/a	n/a	n/a	n/a	n/a
3488718	RECOG_CONF	n/a	LTP204	ltpFR	4	2	1	PARTY	1018	n/a	3	0	n/a	n/a	n/a	n/a	n/a
3495640	REC_START	n/a	LTP204	ltpFR	4	3	n/a	n/a	n/a	n/a	n/a	n/a	n/a	n/a	n/a	n/a	n/a
3495687	RECOG_TARGET	n/a	LTP204	ltpFR	4	3	0	WRITER	1627	1	5	1	n/a	n/a	n/a	n/a	n/a
3496608	RECOG_RESP	n/a	LTP204	ltpFR	4	3	0	WRITER	1627	1	n/a	1	n/a	n/a	n/a	n/a	n/a
3497670	RECOG_CONF	n/a	LTP204	ltpFR	4	3	0	WRITER	1627	n/a	5	1	n/a	n/a	n/a	n/a	n/a
3499552	RECOG_TARGET	n/a	LTP204	ltpFR	4	3	1	VALVE	1546	1	4	2	n/a	n/a	n/a	n/a	n/a
3500868	RECOG_RESP	n/a	LTP204	ltpFR	4	3	1	VALVE	1546	1	n/a	2	n/a	n/a	n/a	n/a	n/a
3501761	RECOG_CONF	n/a	LTP204	ltpFR	4	3	1	VALVE	1546	n/a	4	2	n/a	n/a	n/a	n/a	n/a
3503651	RECOG_TARGET	n/a	LTP204	ltpFR	4	3	-1	BLADE	134	1	4	-1	n/a	n/a	n/a	n/a	n/a
3504649	RECOG_RESP	n/a	LTP204	ltpFR	4	3	-1	BLADE	134	1	n/a	-1	n/a	n/a	n/a	n/a	n/a
3505852	RECOG_CONF	n/a	LTP204	ltpFR	4	3	-1	BLADE	134	n/a	4	-1	n/a	n/a	n/a	n/a	n/a
3507834	RECOG_TARGET	n/a	LTP204	ltpFR	4	3	-1	PRUNE	1134	0	3	-1	n/a	n/a	n/a	n/a	n/a
3509144	RECOG_RESP	n/a	LTP204	ltpFR	4	3	-1	PRUNE	1134	0	n/a	-1	n/a	n/a	n/a	n/a	n/a
3510172	RECOG_CONF	n/a	LTP204	ltpFR	4	3	-1	PRUNE	1134	n/a	3	-1	n/a	n/a	n/a	n/a	n/a
3512000	RECOG_TARGET	n/a	LTP204	ltpFR	4	3	0	ASHTRAY	45	1	5	0	n/a	n/a	n/a	n/a	n/a
3512911	RECOG_RESP	n/a	LTP204	ltpFR	4	3	0	ASHTRAY	45	1	n/a	0	n/a	n/a	n/a	n/a	n/a
3513983	RECOG_CONF	n/a	LTP204	ltpFR	4	3	0	ASHTRAY	45	n/a	5	0	n/a	n/a	n/a	n/a	n/a
3515875	RECOG_TARGET	n/a	LTP204	ltpFR	4	3	0	SHRUB	1299	1	5	0	n/a	n/a	n/a	n/a	n/a
3516732	RECOG_RESP	n/a	LTP204	ltpFR	4	3	0	SHRUB	1299	1	n/a	0	n/a	n/a	n/a	n/a	n/a
3517824	RECOG_CONF	n/a	LTP204	ltpFR	4	3	0	SHRUB	1299	n/a	5	0	n/a	n/a	n/a	n/a	n/a
3519678	RECOG_TARGET	n/a	LTP204	ltpFR	4	3	0	PELICAN	1039	1	5	1	n/a	n/a	n/a	n/a	n/a
3520733	RECOG_RESP	n/a	LTP204	ltpFR	4	3	0	PELICAN	1039	1	n/a	1	n/a	n/a	n/a	n/a	n/a
3521855	RECOG_CONF	n/a	LTP204	ltpFR	4	3	0	PELICAN	1039	n/a	5	1	n/a	n/a	n/a	n/a	n/a
3523720	RECOG_TARGET	n/a	LTP204	ltpFR	4	3	0	LABYRINTH	791	1	5	1	n/a	n/a	n/a	n/a	n/a
3524544	RECOG_RESP	n/a	LTP204	ltpFR	4	3	0	LABYRINTH	791	1	n/a	1	n/a	n/a	n/a	n/a	n/a
3525637	RECOG_CONF	n/a	LTP204	ltpFR	4	3	0	LABYRINTH	791	n/a	5	1	n/a	n/a	n/a	n/a	n/a
3527608	RECOG_TARGET	n/a	LTP204	ltpFR	4	3	0	PARROT	1015	0	3	0	n/a	n/a	n/a	n/a	n/a
3528939	RECOG_RESP	n/a	LTP204	ltpFR	4	3	0	PARROT	1015	0	n/a	0	n/a	n/a	n/a	n/a	n/a
3529987	RECOG_CONF	n/a	LTP204	ltpFR	4	3	0	PARROT	1015	n/a	3	0	n/a	n/a	n/a	n/a	n/a
3531690	RECOG_TARGET	n/a	LTP204	ltpFR	4	3	1	BEVERAGE	123	1	5	0	n/a	n/a	n/a	n/a	n/a
3532651	RECOG_RESP	n/a	LTP204	ltpFR	4	3	1	BEVERAGE	123	1	n/a	0	n/a	n/a	n/a	n/a	n/a
3533718	RECOG_CONF	n/a	LTP204	ltpFR	4	3	1	BEVERAGE	123	n/a	5	0	n/a	n/a	n/a	n/a	n/a
3535604	RECOG_TARGET	n/a	LTP204	ltpFR	4	3	0	CROCODILE	411	1	5	1	n/a	n/a	n/a	n/a	n/a
3536806	RECOG_RESP	n/a	LTP204	ltpFR	4	3	0	CROCODILE	411	1	n/a	1	n/a	n/a	n/a	n/a	n/a
3537979	RECOG_CONF	n/a	LTP204	ltpFR	4	3	0	CROCODILE	411	n/a	5	1	n/a	n/a	n/a	n/a	n/a
3539888	RECOG_TARGET	n/a	LTP204	ltpFR	4	3	-1	DRIVEWAY	500	0	3	-1	n/a	n/a	n/a	n/a	n/a
3541326	RECOG_RESP	n/a	LTP204	ltpFR	4	3	-1	DRIVEWAY	500	0	n/a	-1	n/a	n/a	n/a	n/a	n/a
3542488	RECOG_CONF	n/a	LTP204	ltpFR	4	3	-1	DRIVEWAY	500	n/a	3	-1	n/a	n/a	n/a	n/a	n/a
3544355	RECOG_TARGET	n/a	LTP204	ltpFR	4	3	-1	PRIEST	1122	0	2	-1	n/a	n/a	n/a	n/a	n/a
3546619	RECOG_RESP	n/a	LTP204	ltpFR	4	3	-1	PRIEST	1122	0	n/a	-1	n/a	n/a	n/a	n/a	n/a
3547687	RECOG_CONF	n/a	LTP204	ltpFR	4	3	-1	PRIEST	1122	n/a	2	-1	n/a	n/a	n/a	n/a	n/a
3549568	RECOG_TARGET	n/a	LTP204	ltpFR	4	3	1	GOBLIN	645	1	5	0	n/a	n/a	n/a	n/a	n/a
3550455	RECOG_RESP	n/a	LTP204	ltpFR	4	3	1	GOBLIN	645	1	n/a	0	n/a	n/a	n/a	n/a	n/a
3551528	RECOG_CONF	n/a	LTP204	ltpFR	4	3	1	GOBLIN	645	n/a	5	0	n/a	n/a	n/a	n/a	n/a
3553316	RECOG_TARGET	n/a	LTP204	ltpFR	4	3	0	ROBIN	1199	1	4	0	n/a	n/a	n/a	n/a	n/a
3554326	RECOG_RESP	n/a	LTP204	ltpFR	4	3	0	ROBIN	1199	1	n/a	0	n/a	n/a	n/a	n/a	n/a
3555519	RECOG_CONF	n/a	LTP204	ltpFR	4	3	0	ROBIN	1199	n/a	4	0	n/a	n/a	n/a	n/a	n/a
3557387	RECOG_TARGET	n/a	LTP204	ltpFR	4	3	-1	BELLY	119	1	3	-1	n/a	n/a	n/a	n/a	n/a
3558138	RECOG_RESP	n/a	LTP204	ltpFR	4	3	-1	BELLY	119	1	n/a	-1	n/a	n/a	n/a	n/a	n/a
3559140	RECOG_CONF	n/a	LTP204	ltpFR	4	3	-1	BELLY	119	n/a	3	-1	n/a	n/a	n/a	n/a	n/a
3560912	RECOG_TARGET	n/a	LTP204	ltpFR	4	3	1	BRIDGE	174	0	2	0	n/a	n/a	n/a	n/a	n/a
3562348	RECOG_RESP	n/a	LTP204	ltpFR	4	3	1	BRIDGE	174	0	n/a	0	n/a	n/a	n/a	n/a	n/a
3563421	RECOG_CONF	n/a	LTP204	ltpFR	4	3	1	BRIDGE	174	n/a	2	0	n/a	n/a	n/a	n/a	n/a
3565133	RECOG_LURE	n/a	LTP204	ltpFR	4	3	n/a	DENTIST	447	0	3	n/a	n/a	n/a	n/a	n/a	n/a
3566055	RECOG_RESP	n/a	LTP204	ltpFR	4	3	n/a	DENTIST	447	0	n/a	n/a	n/a	n/a	n/a	n/a	n/a
3567452	RECOG_CONF	n/a	LTP204	ltpFR	4	3	n/a	DENTIST	447	n/a	3	n/a	n/a	n/a	n/a	n/a	n/a
3569165	RECOG_TARGET	n/a	LTP204	ltpFR	4	3	0	ROUGE	1213	1	5	0	n/a	n/a	n/a	n/a	n/a
3570245	RECOG_RESP	n/a	LTP204	ltpFR	4	3	0	ROUGE	1213	1	n/a	0	n/a	n/a	n/a	n/a	n/a
3571343	RECOG_CONF	n/a	LTP204	ltpFR	4	3	0	ROUGE	1213	n/a	5	0	n/a	n/a	n/a	n/a	n/a
3573258	RECOG_TARGET	n/a	LTP204	ltpFR	4	3	0	BRUNETTE	181	1	5	0	n/a	n/a	n/a	n/a	n/a
3574112	RECOG_RESP	n/a	LTP204	ltpFR	4	3	0	BRUNETTE	181	1	n/a	0	n/a	n/a	n/a	n/a	n/a
3575194	RECOG_CONF	n/a	LTP204	ltpFR	4	3	0	BRUNETTE	181	n/a	5	0	n/a	n/a	n/a	n/a	n/a
3580707	REC_START	n/a	LTP204	ltpFR	4	4	n/a	n/a	n/a	n/a	n/a	n/a	n/a	n/a	n/a	n/a	n/a
3580759	RECOG_TARGET	n/a	LTP204	ltpFR	4	4	0	FROG	608	0	3	0	n/a	n/a	n/a	n/a	n/a
3581824	RECOG_RESP	n/a	LTP204	ltpFR	4	4	0	FROG	608	0	n/a	0	n/a	n/a	n/a	n/a	n/a
3582937	RECOG_CONF	n/a	LTP204	ltpFR	4	4	0	FROG	608	n/a	3	0	n/a	n/a	n/a	n/a	n/a
3584791	RECOG_LURE	n/a	LTP204	ltpFR	4	4	n/a	MOUSE	925	0	2	n/a	n/a	n/a	n/a	n/a	n/a
3585526	RECOG_RESP	n/a	LTP204	ltpFR	4	4	n/a	MOUSE	925	0	n/a	n/a	n/a	n/a	n/a	n/a	n/a
3586628	RECOG_CONF	n/a	LTP204	ltpFR	4	4	n/a	MOUSE	925	n/a	2	n/a	n/a	n/a	n/a	n/a	n/a
3588454	RECOG_TARGET	n/a	LTP204	ltpFR	4	4	1	MONEY	908	1	3	0	n/a	n/a	n/a	n/a	n/a
3589676	RECOG_RESP	n/a	LTP204	ltpFR	4	4	1	MONEY	908	1	n/a	0	n/a	n/a	n/a	n/a	n/a
3590679	RECOG_CONF	n/a	LTP204	ltpFR	4	4	1	MONEY	908	n/a	3	0	n/a	n/a	n/a	n/a	n/a
3592513	RECOG_TARGET	n/a	LTP204	ltpFR	4	4	1	ALLIGATOR	16	1	5	1	n/a	n/a	n/a	n/a	n/a
3593328	RECOG_RESP	n/a	LTP204	ltpFR	4	4	1	ALLIGATOR	16	1	n/a	1	n/a	n/a	n/a	n/a	n/a
3594311	RECOG_CONF	n/a	LTP204	ltpFR	4	4	1	ALLIGATOR	16	n/a	5	1	n/a	n/a	n/a	n/a	n/a
3596117	RECOG_TARGET	n/a	LTP204	ltpFR	4	4	-1	CUPBOARD	425	1	4	-1	n/a	n/a	n/a	n/a	n/a
3597239	RECOG_RESP	n/a	LTP204	ltpFR	4	4	-1	CUPBOARD	425	1	n/a	-1	n/a	n/a	n/a	n/a	n/a
3598282	RECOG_CONF	n/a	LTP204	ltpFR	4	4	-1	CUPBOARD	425	n/a	4	-1	n/a	n/a	n/a	n/a	n/a
3600199	RECOG_LURE	n/a	LTP204	ltpFR	4	4	n/a	WIFE	1609	1	2	n/a	n/a	n/a	n/a	n/a	n/a
3601245	RECOG_RESP	n/a	LTP204	ltpFR	4	4	n/a	WIFE	1609	1	n/a	n/a	n/a	n/a	n/a	n/a	n/a
3602512	RECOG_CONF	n/a	LTP204	ltpFR	4	4	n/a	WIFE	1609	n/a	2	n/a	n/a	n/a	n/a	n/a	n/a
3604309	RECOG_TARGET	n/a	LTP204	ltpFR	4	4	-1	PENNY	1045	1	5	-1	n/a	n/a	n/a	n/a	n/a
3605291	RECOG_RESP	n/a	LTP204	ltpFR	4	4	-1	PENNY	1045	1	n/a	-1	n/a	n/a	n/a	n/a	n/a
3606334	RECOG_CONF	n/a	LTP204	ltpFR	4	4	-1	PENNY	1045	n/a	5	-1	n/a	n/a	n/a	n/a	n/a
3608112	RECOG_TARGET	n/a	LTP204	ltpFR	4	4	-1	HUT	729	1	4	-1	n/a	n/a	n/a	n/a	n/a
3608938	RECOG_RESP	n/a	LTP204	ltpFR	4	4	-1	HUT	729	1	n/a	-1	n/a	n/a	n/a	n/a	n/a
3610065	RECOG_CONF	n/a	LTP204	ltpFR	4	4	-1	HUT	729	n/a	4	-1	n/a	n/a	n/a	n/a	n/a
3611937	RECOG_LURE	n/a	LTP204	ltpFR	4	4	n/a	GOLD	647	0	3	n/a	n/a	n/a	n/a	n/a	n/a
3613223	RECOG_RESP	n/a	LTP204	ltpFR	4	4	n/a	GOLD	647	0	n/a	n/a	n/a	n/a	n/a	n/a	n/a
3614286	RECOG_CONF	n/a	LTP204	ltpFR	4	4	n/a	GOLD	647	n/a	3	n/a	n/a	n/a	n/a	n/a	n/a
3616136	RECOG_TARGET	n/a	LTP204	ltpFR	4	4	0	TOASTER	1472	1	4	0	n/a	n/a	n/a	n/a	n/a
3617089	RECOG_RESP	n/a	LTP204	ltpFR	4	4	0	TOASTER	1472	1	n/a	0	n/a	n/a	n/a	n/a	n/a
3618117	RECOG_CONF	n/a	LTP204	ltpFR	4	4	0	TOASTER	1472	n/a	4	0	n/a	n/a	n/a	n/a	n/a
3619901	RECOG_TARGET	n/a	LTP204	ltpFR	4	4	1	CARNIVAL	245	1	5	1	n/a	n/a	n/a	n/a	n/a
3620701	RECOG_RESP	n/a	LTP204	ltpFR	4	4	1	CARNIVAL	245	1	n/a	1	n/a	n/a	n/a	n/a	n/a
3621749	RECOG_CONF	n/a	LTP204	ltpFR	4	4	1	CARNIVAL	245	n/a	5	1	n/a	n/a	n/a	n/a	n/a
3623563	RECOG_TARGET	n/a	LTP204	ltpFR	4	4	1	FARMER	553	1	3	1	n/a	n/a	n/a	n/a	n/a
3624482	RECOG_RESP	n/a	LTP204	ltpFR	4	4	1	FARMER	553	1	n/a	1	n/a	n/a	n/a	n/a	n/a
3625610	RECOG_CONF	n/a	LTP204	ltpFR	4	4	1	FARMER	553	n/a	3	1	n/a	n/a	n/a	n/a	n/a
3627418	RECOG_LURE	n/a	LTP204	ltpFR	4	4	n/a	RIBBON	1189	1	2	n/a	n/a	n/a	n/a	n/a	n/a
3628518	RECOG_RESP	n/a	LTP204	ltpFR	4	4	n/a	RIBBON	1189	1	n/a	n/a	n/a	n/a	n/a	n/a	n/a
3629671	RECOG_CONF	n/a	LTP204	ltpFR	4	4	n/a	RIBBON	1189	n/a	2	n/a	n/a	n/a	n/a	n/a	n/a
3631599	RECOG_TARGET	n/a	LTP204	ltpFR	4	4	1	ALBUM	14	1	4	0	n/a	n/a	n/a	n/a	n/a
3633008	RECOG_RESP	n/a	LTP204	ltpFR	4	4	1	ALBUM	14	1	n/a	0	n/a	n/a	n/a	n/a	n/a
3634260	RECOG_CONF	n/a	LTP204	ltpFR	4	4	1	ALBUM	14	n/a	4	0	n/a	n/a	n/a	n/a	n/a
3636117	RECOG_TARGET	n/a	LTP204	ltpFR	4	4	0	PASSENGER	1020	1	5	1	n/a	n/a	n/a	n/a	n/a
3636979	RECOG_RESP	n/a	LTP204	ltpFR	4	4	0	PASSENGER	1020	1	n/a	1	n/a	n/a	n/a	n/a	n/a
3638012	RECOG_CONF	n/a	LTP204	ltpFR	4	4	0	PASSENGER	1020	n/a	5	1	n/a	n/a	n/a	n/a	n/a
3639848	RECOG_TARGET	n/a	LTP204	ltpFR	4	4	1	PILOT	1070	1	3	1	n/a	n/a	n/a	n/a	n/a
3641723	RECOG_RESP	n/a	LTP204	ltpFR	4	4	1	PILOT	1070	1	n/a	1	n/a	n/a	n/a	n/a	n/a
3642960	RECOG_CONF	n/a	LTP204	ltpFR	4	4	1	PILOT	1070	n/a	3	1	n/a	n/a	n/a	n/a	n/a
3644699	RECOG_LURE	n/a	LTP204	ltpFR	4	4	n/a	STEW	1380	0	2	n/a	n/a	n/a	n/a	n/a	n/a
3645689	RECOG_RESP	n/a	LTP204	ltpFR	4	4	n/a	STEW	1380	0	n/a	n/a	n/a	n/a	n/a	n/a	n/a
3646782	RECOG_CONF	n/a	LTP204	ltpFR	4	4	n/a	STEW	1380	n/a	2	n/a	n/a	n/a	n/a	n/a	n/a
3648513	RECOG_TARGET	n/a	LTP204	ltpFR	4	4	-1	INFANT	737	0	2	-1	n/a	n/a	n/a	n/a	n/a
3649765	RECOG_RESP	n/a	LTP204	ltpFR	4	4	-1	INFANT	737	0	n/a	-1	n/a	n/a	n/a	n/a	n/a
3651331	RECOG_CONF	n/a	LTP204	ltpFR	4	4	-1	INFANT	737	n/a	2	-1	n/a	n/a	n/a	n/a	n/a
3653081	RECOG_TARGET	n/a	LTP204	ltpFR	4	4	1	MASK	876	1	2	0	n/a	n/a	n/a	n/a	n/a
3654460	RECOG_RESP	n/a	LTP204	ltpFR	4	4	1	MASK	876	1	n/a	0	n/a	n/a	n/a	n/a	n/a
3655602	RECOG_CONF	n/a	LTP204	ltpFR	4	4	1	MASK	876	n/a	2	0	n/a	n/a	n/a	n/a	n/a
3657480	RECOG_TARGET	n/a	LTP204	ltpFR	4	4	0	SHED	1277	1	4	0	n/a	n/a	n/a	n/a	n/a
3658834	RECOG_RESP	n/a	LTP204	ltpFR	4	4	0	SHED	1277	1	n/a	0	n/a	n/a	n/a	n/a	n/a
3660211	RECOG_CONF	n/a	LTP204	ltpFR	4	4	0	SHED	1277	n/a	4	0	n/a	n/a	n/a	n/a	n/a
3666157	REC_START	n/a	LTP204	ltpFR	4	5	n/a	n/a	n/a	n/a	n/a	n/a	n/a	n/a	n/a	n/a	n/a
3666214	RECOG_LURE	n/a	LTP204	ltpFR	4	5	n/a	DASHBOARD	441	0	3	n/a	n/a	n/a	n/a	n/a	n/a
3667269	RECOG_RESP	n/a	LTP204	ltpFR	4	5	n/a	DASHBOARD	441	0	n/a	n/a	n/a	n/a	n/a	n/a	n/a
3668886	RECOG_CONF	n/a	LTP204	ltpFR	4	5	n/a	DASHBOARD	441	n/a	3	n/a	n/a	n/a	n/a	n/a	n/a
3670596	RECOG_TARGET	n/a	LTP204	ltpFR	4	5	0	ROCKET	1202	0	3	1	n/a	n/a	n/a	n/a	n/a
3671909	RECOG_RESP	n/a	LTP204	ltpFR	4	5	0	ROCKET	1202	0	n/a	1	n/a	n/a	n/a	n/a	n/a
3673096	RECOG_CONF	n/a	LTP204	ltpFR	4	5	0	ROCKET	1202	n/a	3	1	n/a	n/a	n/a	n/a	n/a
3674780	RECOG_TARGET	n/a	LTP204	ltpFR	4	5	1	DOLLAR	482	1	5	0	n/a	n/a	n/a	n/a	n/a
3676294	RECOG_RESP	n/a	LTP204	ltpFR	4	5	1	DOLLAR	482	1	n/a	0	n/a	n/a	n/a	n/a	n/a
3677506	RECOG_CONF	n/a	LTP204	ltpFR	4	5	1	DOLLAR	482	n/a	5	0	n/a	n/a	n/a	n/a	n/a
3679430	RECOG_TARGET	n/a	LTP204	ltpFR	4	5	-1	PARIS	1014	1	5	-1	n/a	n/a	n/a	n/a	n/a
3680210	RECOG_RESP	n/a	LTP204	ltpFR	4	5	-1	PARIS	1014	1	n/a	-1	n/a	n/a	n/a	n/a	n/a
3681297	RECOG_CONF	n/a	LTP204	ltpFR	4	5	-1	PARIS	1014	n/a	5	-1	n/a	n/a	n/a	n/a	n/a
3683223	RECOG_LURE	n/a	LTP204	ltpFR	4	5	n/a	STREAM	1392	1	4	n/a	n/a	n/a	n/a	n/a	n/a
3684490	RECOG_RESP	n/a	LTP204	ltpFR	4	5	n/a	STREAM	1392	1	n/a	n/a	n/a	n/a	n/a	n/a	n/a
3685677	RECOG_CONF	n/a	LTP204	ltpFR	4	5	n/a	STREAM	1392	n/a	4	n/a	n/a	n/a	n/a	n/a	n/a
3687544	RECOG_TARGET	n/a	LTP204	ltpFR	4	5	1	PATROL	1027	1	4	0	n/a	n/a	n/a	n/a	n/a
3688486	RECOG_RESP	n/a	LTP204	ltpFR	4	5	1	PATROL	1027	1	n/a	0	n/a	n/a	n/a	n/a	n/a
3689648	RECOG_CONF	n/a	LTP204	ltpFR	4	5	1	PATROL	1027	n/a	4	0	n/a	n/a	n/a	n/a	n/a
3691559	RECOG_TARGET	n/a	LTP204	ltpFR	4	5	1	PUBLISHER	1137	1	5	0	n/a	n/a	n/a	n/a	n/a
3692272	RECOG_RESP	n/a	LTP204	ltpFR	4	5	1	PUBLISHER	1137	1	n/a	0	n/a	n/a	n/a	n/a	n/a
3693330	RECOG_CONF	n/a	LTP204	ltpFR	4	5	1	PUBLISHER	1137	n/a	5	0	n/a	n/a	n/a	n/a	n/a
3695084	RECOG_TARGET	n/a	LTP204	ltpFR	4	5	1	CAPTAIN	239	0	3	1	n/a	n/a	n/a	n/a	n/a
3696618	RECOG_RESP	n/a	LTP204	ltpFR	4	5	1	CAPTAIN	239	0	n/a	1	n/a	n/a	n/a	n/a	n/a
3697730	RECOG_CONF	n/a	LTP204	ltpFR	4	5	1	CAPTAIN	239	n/a	3	1	n/a	n/a	n/a	n/a	n/a
3699466	RECOG_TARGET	n/a	LTP204	ltpFR	4	5	-1	SAXOPHONE	1240	1	5	-1	n/a	n/a	n/a	n/a	n/a
3700279	RECOG_RESP	n/a	LTP204	ltpFR	4	5	-1	SAXOPHONE	1240	1	n/a	-1	n/a	n/a	n/a	n/a	n/a
3701312	RECOG_CONF	n/a	LTP204	ltpFR	4	5	-1	SAXOPHONE	1240	n/a	5	-1	n/a	n/a	n/a	n/a	n/a
3703237	RECOG_TARGET	n/a	LTP204	ltpFR	4	5	1	LAMB	797	0	3	1	n/a	n/a	n/a	n/a	n/a
3704280	RECOG_RESP	n/a	LTP204	ltpFR	4	5	1	LAMB	797	0	n/a	1	n/a	n/a	n/a	n/a	n/a
3705393	RECOG_CONF	n/a	LTP204	ltpFR	4	5	1	LAMB	797	n/a	3	1	n/a	n/a	n/a	n/a	n/a
3707113	RECOG_TARGET	n/a	LTP204	ltpFR	4	5	1	SALOON	1228	1	5	0	n/a	n/a	n/a	n/a	n/a
3708002	RECOG_RESP	n/a	LTP204	ltpFR	4	5	1	SALOON	1228	1	n/a	0	n/a	n/a	n/a	n/a	n/a
3708994	RECOG_CONF	n/a	LTP204	ltpFR	4	5	1	SALOON	1228	n/a	5	0	n/a	n/a	n/a	n/a	n/a
3710933	RECOG_TARGET	n/a	LTP204	ltpFR	4	5	0	RECORD	1176	1	4	0	n/a	n/a	n/a	n/a	n/a
3712023	RECOG_RESP	n/a	LTP204	ltpFR	4	5	0	RECORD	1176	1	n/a	0	n/a	n/a	n/a	n/a	n/a
3713095	RECOG_CONF	n/a	LTP204	ltpFR	4	5	0	RECORD	1176	n/a	4	0	n/a	n/a	n/a	n/a	n/a
3714909	RECOG_TARGET	n/a	LTP204	ltpFR	4	5	1	MOAT	903	1	5	0	n/a	n/a	n/a	n/a	n/a
3715954	RECOG_RESP	n/a	LTP204	ltpFR	4	5	1	MOAT	903	1	n/a	0	n/a	n/a	n/a	n/a	n/a
3717156	RECOG_CONF	n/a	LTP204	ltpFR	4	5	1	MOAT	903	n/a	5	0	n/a	n/a	n/a	n/a	n/a
3719030	RECOG_TARGET	n/a	LTP204	ltpFR	4	5	0	GRILL	661	0	3	1	n/a	n/a	n/a	n/a	n/a
3720244	RECOG_RESP	n/a	LTP204	ltpFR	4	5	0	GRILL	661	0	n/a	1	n/a	n/a	n/a	n/a	n/a
3721366	RECOG_CONF	n/a	LTP204	ltpFR	4	5	0	GRILL	661	n/a	3	1	n/a	n/a	n/a	n/a	n/a
3723045	RECOG_TARGET	n/a	LTP204	ltpFR	4	5	-1	HAWK	692	1	5	-1	n/a	n/a	n/a	n/a	n/a
3723940	RECOG_RESP	n/a	LTP204	ltpFR	4	5	-1	HAWK	692	1	n/a	-1	n/a	n/a	n/a	n/a	n/a
3724828	RECOG_CONF	n/a	LTP204	ltpFR	4	5	-1	HAWK	692	n/a	5	-1	n/a	n/a	n/a	n/a	n/a
3726770	RECOG_TARGET	n/a	LTP204	ltpFR	4	5	0	TOENAIL	1474	1	5	0	n/a	n/a	n/a	n/a	n/a
3727582	RECOG_RESP	n/a	LTP204	ltpFR	4	5	0	TOENAIL	1474	1	n/a	0	n/a	n/a	n/a	n/a	n/a
3728580	RECOG_CONF	n/a	LTP204	ltpFR	4	5	0	TOENAIL	1474	n/a	5	0	n/a	n/a	n/a	n/a	n/a
3730417	RECOG_TARGET	n/a	LTP204	ltpFR	4	5	1	RUST	1219	0	3	0	n/a	n/a	n/a	n/a	n/a
3731578	RECOG_RESP	n/a	LTP204	ltpFR	4	5	1	RUST	1219	0	n/a	0	n/a	n/a	n/a	n/a	n/a
3732631	RECOG_CONF	n/a	LTP204	ltpFR	4	5	1	RUST	1219	n/a	3	0	n/a	n/a	n/a	n/a	n/a
3734215	RECOG_TARGET	n/a	LTP204	ltpFR	4	5	1	ELM	527	1	4	1	n/a	n/a	n/a	n/a	n/a
3735165	RECOG_RESP	n/a	LTP204	ltpFR	4	5	1	ELM	527	1	n/a	1	n/a	n/a	n/a	n/a	n/a
3736163	RECOG_CONF	n/a	LTP204	ltpFR	4	5	1	ELM	527	n/a	4	1	n/a	n/a	n/a	n/a	n/a
3738029	RECOG_LURE	n/a	LTP204	ltpFR	4	5	n/a	BOTTLE	153	0	2	n/a	n/a	n/a	n/a	n/a	n/a
3739130	RECOG_RESP	n/a	LTP204	ltpFR	4	5	n/a	BOTTLE	153	0	n/a	n/a	n/a	n/a	n/a	n/a	n/a
3740134	RECOG_CONF	n/a	LTP204	ltpFR	4	5	n/a	BOTTLE	153	n/a	2	n/a	n/a	n/a	n/a	n/a	n/a
3741849	RECOG_TARGET	n/a	LTP204	ltpFR	4	5	1	DETECTIVE	454	1	4	1	n/a	n/a	n/a	n/a	n/a
3742872	RECOG_RESP	n/a	LTP204	ltpFR	4	5	1	DETECTIVE	454	1	n/a	1	n/a	n/a	n/a	n/a	n/a
3743875	RECOG_CONF	n/a	LTP204	ltpFR	4	5	1	DETECTIVE	454	n/a	4	1	n/a	n/a	n/a	n/a	n/a
3750308	REC_START	n/a	LTP204	ltpFR	4	6	n/a	n/a	n/a	n/a	n/a	n/a	n/a	n/a	n/a	n/a	n/a
3750359	RECOG_TARGET	n/a	LTP204	ltpFR	4	6	-1	PISTON	1076	1	4	-1	n/a	n/a	n/a	n/a	n/a
3751635	RECOG_RESP	n/a	LTP204	ltpFR	4	6	-1	PISTON	1076	1	n/a	-1	n/a	n/a	n/a	n/a	n/a
3752797	RECOG_CONF	n/a	LTP204	ltpFR	4	6	-1	PISTON	1076	n/a	4	-1	n/a	n/a	n/a	n/a	n/a
3754580	RECOG_TARGET	n/a	LTP204	ltpFR	4	6	-1	CORPORATION	382	1	3	-1	n/a	n/a	n/a	n/a	n/a
3755551	RECOG_RESP	n/a	LTP204	ltpFR	4	6	-1	CORPORATION	382	1	n/a	-1	n/a	n/a	n/a	n/a	n/a
3756928	RECOG_CONF	n/a	LTP204	ltpFR	4	6	-1	CORPORATION	382	n/a	3	-1	n/a	n/a	n/a	n/a	n/a
3758847	RECOG_TARGET	n/a	LTP204	ltpFR	4	6	0	FRECKLE	602	1	4	0	n/a	n/a	n/a	n/a	n/a
3759751	RECOG_RESP	n/a	LTP204	ltpFR	4	6	0	FRECKLE	602	1	n/a	0	n/a	n/a	n/a	n/a	n/a
3760999	RECOG_CONF	n/a	LTP204	ltpFR	4	6	0	FRECKLE	602	n/a	4	0	n/a	n/a	n/a	n/a	n/a
3762778	RECOG_TARGET	n/a	LTP204	ltpFR	4	6	1	CELERY	266	0	2	0	n/a	n/a	n/a	n/a	n/a
3764246	RECOG_RESP	n/a	LTP204	ltpFR	4	6	1	CELERY	266	0	n/a	0	n/a	n/a	n/a	n/a	n/a
3765339	RECOG_CONF	n/a	LTP204	ltpFR	4	6	1	CELERY	266	n/a	2	0	n/a	n/a	n/a	n/a	n/a
3767161	RECOG_TARGET	n/a	LTP204	ltpFR	4	6	-1	BALLOON	75	0	3	-1	n/a	n/a	n/a	n/a	n/a
3768332	RECOG_RESP	n/a	LTP204	ltpFR	4	6	-1	BALLOON	75	0	n/a	-1	n/a	n/a	n/a	n/a	n/a
3769419	RECOG_CONF	n/a	LTP204	ltpFR	4	6	-1	BALLOON	75	n/a	3	-1	n/a	n/a	n/a	n/a	n/a
3771294	RECOG_TARGET	n/a	LTP204	ltpFR	4	6	1	TICK	1463	0	1	1	n/a	n/a	n/a	n/a	n/a
3772662	RECOG_RESP	n/a	LTP204	ltpFR	4	6	1	TICK	1463	0	n/a	1	n/a	n/a	n/a	n/a	n/a
3774179	RECOG_CONF	n/a	LTP204	ltpFR	4	6	1	TICK	1463	n/a	1	1	n/a	n/a	n/a	n/a	n/a
3775894	RECOG_TARGET	n/a	LTP204	ltpFR	4	6	1	WALLET	1583	1	5	2	n/a	n/a	n/a	n/a	n/a
3776783	RECOG_RESP	n/a	LTP204	ltpFR	4	6	1	WALLET	1583	1	n/a	2	n/a	n/a	n/a	n/a	n/a
3777890	RECOG_CONF	n/a	LTP204	ltpFR	4	6	1	WALLET	1583	n/a	5	2	n/a	n/a	n/a	n/a	n/a
3779787	RECOG_TARGET	n/a	LTP204	ltpFR	4	6	1	NEPHEW	942	0	3	1	n/a	n/a	n/a	n/a	n/a
3781552	RECOG_RESP	n/a	LTP204	ltpFR	4	6	1	NEPHEW	942	0	n/a	1	n/a	n/a	n/a	n/a	n/a
3782659	RECOG_CONF	n/a	LTP204	ltpFR	4	6	1	NEPHEW	942	n/a	3	1	n/a	n/a	n/a	n/a	n/a
3784343	RECOG_TARGET	n/a	LTP204	ltpFR	4	6	-1	MAMMAL	861	1	5	-1	n/a	n/a	n/a	n/a	n/a
3785179	RECOG_RESP	n/a	LTP204	ltpFR	4	6	-1	MAMMAL	861	1	n/a	-1	n/a	n/a	n/a	n/a	n/a
3786171	RECOG_CONF	n/a	LTP204	ltpFR	4	6	-1	MAMMAL	861	n/a	5	-1	n/a	n/a	n/a	n/a	n/a
3788074	RECOG_TARGET	n/a	LTP204	ltpFR	4	6	-1	UNDERWEAR	1537	1	5	-1	n/a	n/a	n/a	n/a	n/a
3789135	RECOG_RESP	n/a	LTP204	ltpFR	4	6	-1	UNDERWEAR	1537	1	n/a	-1	n/a	n/a	n/a	n/a	n/a
3790232	RECOG_CONF	n/a	LTP204	ltpFR	4	6	-1	UNDERWEAR	1537	n/a	5	-1	n/a	n/a	n/a	n/a	n/a
3792089	RECOG_LURE	n/a	LTP204	ltpFR	4	6	n/a	FIDDLE	561	0	3	n/a	n/a	n/a	n/a	n/a	n/a
3793649	RECOG_RESP	n/a	LTP204	ltpFR	4	6	n/a	FIDDLE	561	0	n/a	n/a	n/a	n/a	n/a	n/a	n/a
3794722	RECOG_CONF	n/a	LTP204	ltpFR	4	6	n/a	FIDDLE	561	n/a	3	n/a	n/a	n/a	n/a	n/a	n/a
3796538	RECOG_TARGET	n/a	LTP204	ltpFR	4	6	-1	SCARF	1246	1	4	-1	n/a	n/a	n/a	n/a	n/a
3797610	RECOG_RESP	n/a	LTP204	ltpFR	4	6	-1	SCARF	1246	1	n/a	-1	n/a	n/a	n/a	n/a	n/a
3798693	RECOG_CONF	n/a	LTP204	ltpFR	4	6	-1	SCARF	1246	n/a	4	-1	n/a	n/a	n/a	n/a	n/a
3800536	RECOG_TARGET	n/a	LTP204	ltpFR	4	6	-1	MARROW	872	1	5	-1	n/a	n/a	n/a	n/a	n/a
3801342	RECOG_RESP	n/a	LTP204	ltpFR	4	6	-1	MARROW	872	1	n/a	-1	n/a	n/a	n/a	n/a	n/a
3802484	RECOG_CONF	n/a	LTP204	ltpFR	4	6	-1	MARROW	872	n/a	5	-1	n/a	n/a	n/a	n/a	n/a
3804335	RECOG_LURE	n/a	LTP204	ltpFR	4	6	n/a	CARTON	251	0	3	n/a	n/a	n/a	n/a	n/a	n/a
3805607	RECOG_RESP	n/a	LTP204	ltpFR	4	6	n/a	CARTON	251	0	n/a	n/a	n/a	n/a	n/a	n/a	n/a
3806954	RECOG_CONF	n/a	LTP204	ltpFR	4	6	n/a	CARTON	251	n/a	3	n/a	n/a	n/a	n/a	n/a	n/a
3808711	RECOG_TARGET	n/a	LTP204	ltpFR	4	6	1	SHARK	1275	1	2	1	n/a	n/a	n/a	n/a	n/a
3809778	RECOG_RESP	n/a	LTP204	ltpFR	4	6	1	SHARK	1275	1	n/a	1	n/a	n/a	n/a	n/a	n/a
3811035	RECOG_CONF	n/a	LTP204	ltpFR	4	6	1	SHARK	1275	n/a	2	1	n/a	n/a	n/a	n/a	n/a
3812811	RECOG_TARGET	n/a	LTP204	ltpFR	4	6	-1	DILL	465	0	2	-1	n/a	n/a	n/a	n/a	n/a
3813898	RECOG_RESP	n/a	LTP204	ltpFR	4	6	-1	DILL	465	0	n/a	-1	n/a	n/a	n/a	n/a	n/a
3815116	RECOG_CONF	n/a	LTP204	ltpFR	4	6	-1	DILL	465	n/a	2	-1	n/a	n/a	n/a	n/a	n/a
3816765	RECOG_TARGET	n/a	LTP204	ltpFR	4	6	0	CAFETERIA	217	1	5	1	n/a	n/a	n/a	n/a	n/a
3817814	RECOG_RESP	n/a	LTP204	ltpFR	4	6	0	CAFETERIA	217	1	n/a	1	n/a	n/a	n/a	n/a	n/a
3819126	RECOG_CONF	n/a	LTP204	ltpFR	4	6	0	CAFETERIA	217	n/a	5	1	n/a	n/a	n/a	n/a	n/a
3821092	RECOG_TARGET	n/a	LTP204	ltpFR	4	6	1	BRANCH	168	0	3	1	n/a	n/a	n/a	n/a	n/a
3822379	RECOG_RESP	n/a	LTP204	ltpFR	4	6	1	BRANCH	168	0	n/a	1	n/a	n/a	n/a	n/a	n/a
3823487	RECOG_CONF	n/a	LTP204	ltpFR	4	6	1	BRANCH	168	n/a	3	1	n/a	n/a	n/a	n/a	n/a
3825297	RECOG_LURE	n/a	LTP204	ltpFR	4	6	n/a	HEATER	698	0	2	n/a	n/a	n/a	n/a	n/a	n/a
3826285	RECOG_RESP	n/a	LTP204	ltpFR	4	6	n/a	HEATER	698	0	n/a	n/a	n/a	n/a	n/a	n/a	n/a
3827408	RECOG_CONF	n/a	LTP204	ltpFR	4	6	n/a	HEATER	698	n/a	2	n/a	n/a	n/a	n/a	n/a	n/a
3829095	RECOG_LURE	n/a	LTP204	ltpFR	4	6	n/a	MANSION	864	0	1	n/a	n/a	n/a	n/a	n/a	n/a
3830775	RECOG_RESP	n/a	LTP204	ltpFR	4	6	n/a	MANSION	864	0	n/a	n/a	n/a	n/a	n/a	n/a	n/a
3831867	RECOG_CONF	n/a	LTP204	ltpFR	4	6	n/a	MANSION	864	n/a	1	n/a	n/a	n/a	n/a	n/a	n/a
3839257	REC_START	n/a	LTP204	ltpFR	4	7	n/a	n/a	n/a	n/a	n/a	n/a	n/a	n/a	n/a	n/a	n/a
3839300	RECOG_LURE	n/a	LTP204	ltpFR	4	7	n/a	CAKE	219	0	3	n/a	n/a	n/a	n/a	n/a	n/a
3840349	RECOG_RESP	n/a	LTP204	ltpFR	4	7	n/a	CAKE	219	0	n/a	n/a	n/a	n/a	n/a	n/a	n/a
3841996	RECOG_CONF	n/a	LTP204	ltpFR	4	7	n/a	CAKE	219	n/a	3	n/a	n/a	n/a	n/a	n/a	n/a
3843800	RECOG_LURE	n/a	LTP204	ltpFR	4	7	n/a	RIB	1188	1	2	n/a	n/a	n/a	n/a	n/a	n/a
3845508	RECOG_RESP	n/a	LTP204	ltpFR	4	7	n/a	RIB	1188	1	n/a	n/a	n/a	n/a	n/a	n/a	n/a
3846934	RECOG_CONF	n/a	LTP204	ltpFR	4	7	n/a	RIB	1188	n/a	2	n/a	n/a	n/a	n/a	n/a	n/a
3848869	RECOG_TARGET	n/a	LTP204	ltpFR	4	7	1	STRAWBERRY	1391	1	4	1	n/a	n/a	n/a	n/a	n/a
3850401	RECOG_RESP	n/a	LTP204	ltpFR	4	7	1	STRAWBERRY	1391	1	n/a	1	n/a	n/a	n/a	n/a	n/a
3851723	RECOG_CONF	n/a	LTP204	ltpFR	4	7	1	STRAWBERRY	1391	n/a	4	1	n/a	n/a	n/a	n/a	n/a
3853832	RECOG_LURE	n/a	LTP204	ltpFR	4	7	n/a	TAR	1435	0	3	n/a	n/a	n/a	n/a	n/a	n/a
3854956	RECOG_RESP	n/a	LTP204	ltpFR	4	7	n/a	TAR	1435	0	n/a	n/a	n/a	n/a	n/a	n/a	n/a
3856193	RECOG_CONF	n/a	LTP204	ltpFR	4	7	n/a	TAR	1435	n/a	3	n/a	n/a	n/a	n/a	n/a	n/a
3857954	RECOG_TARGET	n/a	LTP204	ltpFR	4	7	1	RAILROAD	1162	1	5	0	n/a	n/a	n/a	n/a	n/a
3858887	RECOG_RESP	n/a	LTP204	ltpFR	4	7	1	RAILROAD	1162	1	n/a	0	n/a	n/a	n/a	n/a	n/a
3860084	RECOG_CONF	n/a	LTP204	ltpFR	4	7	1	RAILROAD	1162	n/a	5	0	n/a	n/a	n/a	n/a	n/a
3862231	RECOG_TARGET	n/a	LTP204	ltpFR	4	7	-1	BONE	148	1	5	-1	n/a	n/a	n/a	n/a	n/a
3863347	RECOG_RESP	n/a	LTP204	ltpFR	4	7	-1	BONE	148	1	n/a	-1	n/a	n/a	n/a	n/a	n/a
3864465	RECOG_CONF	n/a	LTP204	ltpFR	4	7	-1	BONE	148	n/a	5	-1	n/a	n/a	n/a	n/a	n/a
3866479	RECOG_TARGET	n/a	LTP204	ltpFR	4	7	0	BASKETBALL	96	1	4	1	n/a	n/a	n/a	n/a	n/a
3867288	RECOG_RESP	n/a	LTP204	ltpFR	4	7	0	BASKETBALL	96	1	n/a	1	n/a	n/a	n/a	n/a	n/a
3868455	RECOG_CONF	n/a	LTP204	ltpFR	4	7	0	BASKETBALL	96	n/a	4	1	n/a	n/a	n/a	n/a	n/a
3870450	RECOG_TARGET	n/a	LTP204	ltpFR	4	7	0	JAW	751	1	4	0	n/a	n/a	n/a	n/a	n/a
3871249	RECOG_RESP	n/a	LTP204	ltpFR	4	7	0	JAW	751	1	n/a	0	n/a	n/a	n/a	n/a	n/a
3872776	RECOG_CONF	n/a	LTP204	ltpFR	4	7	0	JAW	751	n/a	4	0	n/a	n/a	n/a	n/a	n/a
3874845	RECOG_TARGET	n/a	LTP204	ltpFR	4	7	1	STONE	1385	0	3	0	n/a	n/a	n/a	n/a	n/a
3875918	RECOG_RESP	n/a	LTP204	ltpFR	4	7	1	STONE	1385	0	n/a	0	n/a	n/a	n/a	n/a	n/a
3877136	RECOG_CONF	n/a	LTP204	ltpFR	4	7	1	STONE	1385	n/a	3	0	n/a	n/a	n/a	n/a	n/a
3878944	RECOG_TARGET	n/a	LTP204	ltpFR	4	7	-1	FROST	609	1	5	-1	n/a	n/a	n/a	n/a	n/a
3879715	RECOG_RESP	n/a	LTP204	ltpFR	4	7	-1	FROST	609	1	n/a	-1	n/a	n/a	n/a	n/a	n/a
3880807	RECOG_CONF	n/a	LTP204	ltpFR	4	7	-1	FROST	609	n/a	5	-1	n/a	n/a	n/a	n/a	n/a
3882758	RECOG_TARGET	n/a	LTP204	ltpFR	4	7	1	FLOWER	584	1	3	1	n/a	n/a	n/a	n/a	n/a
3883940	RECOG_RESP	n/a	LTP204	ltpFR	4	7	1	FLOWER	584	1	n/a	1	n/a	n/a	n/a	n/a	n/a
3885247	RECOG_CONF	n/a	LTP204	ltpFR	4	7	1	FLOWER	584	n/a	3	1	n/a	n/a	n/a	n/a	n/a
3887046	RECOG_TARGET	n/a	LTP204	ltpFR	4	7	0	TERMITE	1451	0	2	0	n/a	n/a	n/a	n/a	n/a
3888240	RECOG_RESP	n/a	LTP204	ltpFR	4	7	0	TERMITE	1451	0	n/a	0	n/a	n/a	n/a	n/a	n/a
3889528	RECOG_CONF	n/a	LTP204	ltpFR	4	7	0	TERMITE	1451	n/a	2	0	n/a	n/a	n/a	n/a	n/a
3891346	RECOG_LURE	n/a	LTP204	ltpFR	4	7	n/a	FEAST	556	1	4	n/a	n/a	n/a	n/a	n/a	n/a
3892361	RECOG_RESP	n/a	LTP204	ltpFR	4	7	n/a	FEAST	556	1	n/a	n/a	n/a	n/a	n/a	n/a	n/a
3893479	RECOG_CONF	n/a	LTP204	ltpFR	4	7	n/a	FEAST	556	n/a	4	n/a	n/a	n/a	n/a	n/a	n/a
3895222	RECOG_TARGET	n/a	LTP204	ltpFR	4	7	1	SCREW	1254	1	3	0	n/a	n/a	n/a	n/a	n/a
3896402	RECOG_RESP	n/a	LTP204	ltpFR	4	7	1	SCREW	1254	1	n/a	0	n/a	n/a	n/a	n/a	n/a
3897649	RECOG_CONF	n/a	LTP204	ltpFR	4	7	1	SCREW	1254	n/a	3	0	n/a	n/a	n/a	n/a	n/a
3899404	RECOG_TARGET	n/a	LTP204	ltpFR	4	7	0	PORCH	1106	1	5	1	n/a	n/a	n/a	n/a	n/a
3900468	RECOG_RESP	n/a	LTP204	ltpFR	4	7	0	PORCH	1106	1	n/a	1	n/a	n/a	n/a	n/a	n/a
3901530	RECOG_CONF	n/a	LTP204	ltpFR	4	7	0	PORCH	1106	n/a	5	1	n/a	n/a	n/a	n/a	n/a
3903485	RECOG_TARGET	n/a	LTP204	ltpFR	4	7	-1	COOKIE	374	0	3	-1	n/a	n/a	n/a	n/a	n/a
3904613	RECOG_RESP	n/a	LTP204	ltpFR	4	7	-1	COOKIE	374	0	n/a	-1	n/a	n/a	n/a	n/a	n/a
3905711	RECOG_CONF	n/a	LTP204	ltpFR	4	7	-1	COOKIE	374	n/a	3	-1	n/a	n/a	n/a	n/a	n/a
3907517	RECOG_LURE	n/a	LTP204	ltpFR	4	7	n/a	MAGICIAN	854	1	4	n/a	n/a	n/a	n/a	n/a	n/a
3908425	RECOG_RESP	n/a	LTP204	ltpFR	4	7	n/a	MAGICIAN	854	1	n/a	n/a	n/a	n/a	n/a	n/a	n/a
3909522	RECOG_CONF	n/a	LTP204	ltpFR	4	7	n/a	MAGICIAN	854	n/a	4	n/a	n/a	n/a	n/a	n/a	n/a
3911338	RECOG_TARGET	n/a	LTP204	ltpFR	4	7	1	MEAL	882	1	5	0	n/a	n/a	n/a	n/a	n/a
3912216	RECOG_RESP	n/a	LTP204	ltpFR	4	7	1	MEAL	882	1	n/a	0	n/a	n/a	n/a	n/a	n/a
3913463	RECOG_CONF	n/a	LTP204	ltpFR	4	7	1	MEAL	882	n/a	5	0	n/a	n/a	n/a	n/a	n/a
3915398	RECOG_TARGET	n/a	LTP204	ltpFR	4	7	0	BEET	115	0	3	0	n/a	n/a	n/a	n/a	n/a
3916875	RECOG_RESP	n/a	LTP204	ltpFR	4	7	0	BEET	115	0	n/a	0	n/a	n/a	n/a	n/a	n/a
3917993	RECOG_CONF	n/a	LTP204	ltpFR	4	7	0	BEET	115	n/a	3	0	n/a	n/a	n/a	n/a	n/a
3919837	RECOG_TARGET	n/a	LTP204	ltpFR	4	7	0	CLAMP	316	1	5	0	n/a	n/a	n/a	n/a	n/a
3920652	RECOG_RESP	n/a	LTP204	ltpFR	4	7	0	CLAMP	316	1	n/a	0	n/a	n/a	n/a	n/a	n/a
3921774	RECOG_CONF	n/a	LTP204	ltpFR	4	7	0	CLAMP	316	n/a	5	0	n/a	n/a	n/a	n/a	n/a
3927336	REC_START	n/a	LTP204	ltpFR	4	8	n/a	n/a	n/a	n/a	n/a	n/a	n/a	n/a	n/a	n/a	n/a
3927382	RECOG_TARGET	n/a	LTP204	ltpFR	4	8	0	BALCONY	72	1	5	1	n/a	n/a	n/a	n/a	n/a
3928388	RECOG_RESP	n/a	LTP204	ltpFR	4	8	0	BALCONY	72	1	n/a	1	n/a	n/a	n/a	n/a	n/a
3929695	RECOG_CONF	n/a	LTP204	ltpFR	4	8	0	BALCONY	72	n/a	5	1	n/a	n/a	n/a	n/a	n/a
3931675	RECOG_TARGET	n/a	LTP204	ltpFR	4	8	0	WITNESS	1618	0	3	1	n/a	n/a	n/a	n/a	n/a
3932793	RECOG_RESP	n/a	LTP204	ltpFR	4	8	0	WITNESS	1618	0	n/a	1	n/a	n/a	n/a	n/a	n/a
3934036	RECOG_CONF	n/a	LTP204	ltpFR	4	8	0	WITNESS	1618	n/a	3	1	n/a	n/a	n/a	n/a	n/a
3935797	RECOG_LURE	n/a	LTP204	ltpFR	4	8	n/a	SIBLING	1301	0	2	n/a	n/a	n/a	n/a	n/a	n/a
3936834	RECOG_RESP	n/a	LTP204	ltpFR	4	8	n/a	SIBLING	1301	0	n/a	n/a	n/a	n/a	n/a	n/a	n/a
3938036	RECOG_CONF	n/a	LTP204	ltpFR	4	8	n/a	SIBLING	1301	n/a	2	n/a	n/a	n/a	n/a	n/a	n/a
3939762	RECOG_LURE	n/a	LTP204	ltpFR	4	8	n/a	MOTORCYCLE	923	0	1	n/a	n/a	n/a	n/a	n/a	n/a
3940945	RECOG_RESP	n/a	LTP204	ltpFR	4	8	n/a	MOTORCYCLE	923	0	n/a	n/a	n/a	n/a	n/a	n/a	n/a
3942127	RECOG_CONF	n/a	LTP204	ltpFR	4	8	n/a	MOTORCYCLE	923	n/a	1	n/a	n/a	n/a	n/a	n/a	n/a
3943944	RECOG_LURE	n/a	LTP204	ltpFR	4	8	n/a	PLIERS	1089	1	4	n/a	n/a	n/a	n/a	n/a	n/a
3944931	RECOG_RESP	n/a	LTP204	ltpFR	4	8	n/a	PLIERS	1089	1	n/a	n/a	n/a	n/a	n/a	n/a	n/a
3946058	RECOG_CONF	n/a	LTP204	ltpFR	4	8	n/a	PLIERS	1089	n/a	4	n/a	n/a	n/a	n/a	n/a	n/a
3947892	RECOG_TARGET	n/a	LTP204	ltpFR	4	8	0	KEY	773	1	5	0	n/a	n/a	n/a	n/a	n/a
3948812	RECOG_RESP	n/a	LTP204	ltpFR	4	8	0	KEY	773	1	n/a	0	n/a	n/a	n/a	n/a	n/a
3949890	RECOG_CONF	n/a	LTP204	ltpFR	4	8	0	KEY	773	n/a	5	0	n/a	n/a	n/a	n/a	n/a
3951818	RECOG_TARGET	n/a	LTP204	ltpFR	4	8	-1	CABINET	212	1	4	-1	n/a	n/a	n/a	n/a	n/a
3952554	RECOG_RESP	n/a	LTP204	ltpFR	4	8	-1	CABINET	212	1	n/a	-1	n/a	n/a	n/a	n/a	n/a
3953880	RECOG_CONF	n/a	LTP204	ltpFR	4	8	-1	CABINET	212	n/a	4	-1	n/a	n/a	n/a	n/a	n/a
3955772	RECOG_TARGET	n/a	LTP204	ltpFR	4	8	0	TREAD	1499	1	3	0	n/a	n/a	n/a	n/a	n/a
3956769	RECOG_RESP	n/a	LTP204	ltpFR	4	8	0	TREAD	1499	1	n/a	0	n/a	n/a	n/a	n/a	n/a
3957921	RECOG_CONF	n/a	LTP204	ltpFR	4	8	0	TREAD	1499	n/a	3	0	n/a	n/a	n/a	n/a	n/a
3959613	RECOG_TARGET	n/a	LTP204	ltpFR	4	8	1	WALL	1582	1	5	0	n/a	n/a	n/a	n/a	n/a
3960431	RECOG_RESP	n/a	LTP204	ltpFR	4	8	1	WALL	1582	1	n/a	0	n/a	n/a	n/a	n/a	n/a
3961573	RECOG_CONF	n/a	LTP204	ltpFR	4	8	1	WALL	1582	n/a	5	0	n/a	n/a	n/a	n/a	n/a
3963550	RECOG_TARGET	n/a	LTP204	ltpFR	4	8	0	PORTRAIT	1111	1	4	1	n/a	n/a	n/a	n/a	n/a
3964377	RECOG_RESP	n/a	LTP204	ltpFR	4	8	0	PORTRAIT	1111	1	n/a	1	n/a	n/a	n/a	n/a	n/a
3965464	RECOG_CONF	n/a	LTP204	ltpFR	4	8	0	PORTRAIT	1111	n/a	4	1	n/a	n/a	n/a	n/a	n/a
3967232	RECOG_LURE	n/a	LTP204	ltpFR	4	8	n/a	METEOR	889	0	3	n/a	n/a	n/a	n/a	n/a	n/a
3969071	RECOG_RESP	n/a	LTP204	ltpFR	4	8	n/a	METEOR	889	0	n/a	n/a	n/a	n/a	n/a	n/a	n/a
3970363	RECOG_CONF	n/a	LTP204	ltpFR	4	8	n/a	METEOR	889	n/a	3	n/a	n/a	n/a	n/a	n/a	n/a
3972228	RECOG_LURE	n/a	LTP204	ltpFR	4	8	n/a	DANDRUFF	439	0	2	n/a	n/a	n/a	n/a	n/a	n/a
3973441	RECOG_RESP	n/a	LTP204	ltpFR	4	8	n/a	DANDRUFF	439	0	n/a	n/a	n/a	n/a	n/a	n/a	n/a
3974623	RECOG_CONF	n/a	LTP204	ltpFR	4	8	n/a	DANDRUFF	439	n/a	2	n/a	n/a	n/a	n/a	n/a	n/a
3976477	RECOG_TARGET	n/a	LTP204	ltpFR	4	8	-1	REFRIGERATOR	1179	1	3	-1	n/a	n/a	n/a	n/a	n/a
3977457	RECOG_RESP	n/a	LTP204	ltpFR	4	8	-1	REFRIGERATOR	1179	1	n/a	-1	n/a	n/a	n/a	n/a	n/a
3978624	RECOG_CONF	n/a	LTP204	ltpFR	4	8	-1	REFRIGERATOR	1179	n/a	3	-1	n/a	n/a	n/a	n/a	n/a
3980431	RECOG_TARGET	n/a	LTP204	ltpFR	4	8	-1	SPINACH	1352	0	1	-1	n/a	n/a	n/a	n/a	n/a
3981248	RECOG_RESP	n/a	LTP204	ltpFR	4	8	-1	SPINACH	1352	0	n/a	-1	n/a	n/a	n/a	n/a	n/a
3982416	RECOG_CONF	n/a	LTP204	ltpFR	4	8	-1	SPINACH	1352	n/a	1	-1	n/a	n/a	n/a	n/a	n/a
3984280	RECOG_TARGET	n/a	LTP204	ltpFR	4	8	1	CRAB	397	1	2	1	n/a	n/a	n/a	n/a	n/a
3985997	RECOG_RESP	n/a	LTP204	ltpFR	4	8	1	CRAB	397	1	n/a	1	n/a	n/a	n/a	n/a	n/a
3987185	RECOG_CONF	n/a	LTP204	ltpFR	4	8	1	CRAB	397	n/a	2	1	n/a	n/a	n/a	n/a	n/a
3988958	RECOG_LURE	n/a	LTP204	ltpFR	4	8	n/a	MUMMY	932	0	3	n/a	n/a	n/a	n/a	n/a	n/a
3989839	RECOG_RESP	n/a	LTP204	ltpFR	4	8	n/a	MUMMY	932	0	n/a	n/a	n/a	n/a	n/a	n/a	n/a
3991046	RECOG_CONF	n/a	LTP204	ltpFR	4	8	n/a	MUMMY	932	n/a	3	n/a	n/a	n/a	n/a	n/a	n/a
3992996	RECOG_TARGET	n/a	LTP204	ltpFR	4	8	1	TUNA	1518	1	5	1	n/a	n/a	n/a	n/a	n/a
3993860	RECOG_RESP	n/a	LTP204	ltpFR	4	8	1	TUNA	1518	1	n/a	1	n/a	n/a	n/a	n/a	n/a
3994907	RECOG_CONF	n/a	LTP204	ltpFR	4	8	1	TUNA	1518	n/a	5	1	n/a	n/a	n/a	n/a	n/a
3996927	RECOG_TARGET	n/a	LTP204	ltpFR	4	8	0	DRYER	503	1	3	0	n/a	n/a	n/a	n/a	n/a
3998265	RECOG_RESP	n/a	LTP204	ltpFR	4	8	0	DRYER	503	1	n/a	0	n/a	n/a	n/a	n/a	n/a
3999656	RECOG_CONF	n/a	LTP204	ltpFR	4	8	0	DRYER	503	n/a	3	0	n/a	n/a	n/a	n/a	n/a
4001494	RECOG_TARGET	n/a	LTP204	ltpFR	4	8	-1	COPIER	377	1	3	-1	n/a	n/a	n/a	n/a	n/a
4002590	RECOG_RESP	n/a	LTP204	ltpFR	4	8	-1	COPIER	377	1	n/a	-1	n/a	n/a	n/a	n/a	n/a
4003787	RECOG_CONF	n/a	LTP204	ltpFR	4	8	-1	COPIER	377	n/a	3	-1	n/a	n/a	n/a	n/a	n/a
4005609	RECOG_TARGET	n/a	LTP204	ltpFR	4	8	1	STRAW	1390	1	5	1	n/a	n/a	n/a	n/a	n/a
4006720	RECOG_RESP	n/a	LTP204	ltpFR	4	8	1	STRAW	1390	1	n/a	1	n/a	n/a	n/a	n/a	n/a
4007858	RECOG_CONF	n/a	LTP204	ltpFR	4	8	1	STRAW	1390	n/a	5	1	n/a	n/a	n/a	n/a	n/a
4016057	REC_START	n/a	LTP204	ltpFR	4	9	n/a	n/a	n/a	n/a	n/a	n/a	n/a	n/a	n/a	n/a	n/a
4016100	RECOG_TARGET	n/a	LTP204	ltpFR	4	9	1	HOSE	720	1	5	0	n/a	n/a	n/a	n/a	n/a
4017139	RECOG_RESP	n/a	LTP204	ltpFR	4	9	1	HOSE	720	1	n/a	0	n/a	n/a	n/a	n/a	n/a
4018546	RECOG_CONF	n/a	LTP204	ltpFR	4	9	1	HOSE	720	n/a	5	0	n/a	n/a	n/a	n/a	n/a
4020610	RECOG_TARGET	n/a	LTP204	ltpFR	4	9	-1	FUR	615	1	4	-1	n/a	n/a	n/a	n/a	n/a
4021435	RECOG_RESP	n/a	LTP204	ltpFR	4	9	-1	FUR	615	1	n/a	-1	n/a	n/a	n/a	n/a	n/a
4022497	RECOG_CONF	n/a	LTP204	ltpFR	4	9	-1	FUR	615	n/a	4	-1	n/a	n/a	n/a	n/a	n/a
4024430	RECOG_TARGET	n/a	LTP204	ltpFR	4	9	0	MOSS	918	1	4	1	n/a	n/a	n/a	n/a	n/a
4025610	RECOG_RESP	n/a	LTP204	ltpFR	4	9	0	MOSS	918	1	n/a	1	n/a	n/a	n/a	n/a	n/a
4026857	RECOG_CONF	n/a	LTP204	ltpFR	4	9	0	MOSS	918	n/a	4	1	n/a	n/a	n/a	n/a	n/a
4028914	RECOG_TARGET	n/a	LTP204	ltpFR	4	9	0	PALACE	1006	1	5	1	n/a	n/a	n/a	n/a	n/a
4029811	RECOG_RESP	n/a	LTP204	ltpFR	4	9	0	PALACE	1006	1	n/a	1	n/a	n/a	n/a	n/a	n/a
4030998	RECOG_CONF	n/a	LTP204	ltpFR	4	9	0	PALACE	1006	n/a	5	1	n/a	n/a	n/a	n/a	n/a
4033080	RECOG_TARGET	n/a	LTP204	ltpFR	4	9	-1	FURNITURE	616	0	3	-1	n/a	n/a	n/a	n/a	n/a
4034395	RECOG_RESP	n/a	LTP204	ltpFR	4	9	-1	FURNITURE	616	0	n/a	-1	n/a	n/a	n/a	n/a	n/a
4035528	RECOG_CONF	n/a	LTP204	ltpFR	4	9	-1	FURNITURE	616	n/a	3	-1	n/a	n/a	n/a	n/a	n/a
4037391	RECOG_TARGET	n/a	LTP204	ltpFR	4	9	0	CAT	257	0	2	0	n/a	n/a	n/a	n/a	n/a
4038346	RECOG_RESP	n/a	LTP204	ltpFR	4	9	0	CAT	257	0	n/a	0	n/a	n/a	n/a	n/a	n/a
4039469	RECOG_CONF	n/a	LTP204	ltpFR	4	9	0	CAT	257	n/a	2	0	n/a	n/a	n/a	n/a	n/a
4041294	RECOG_TARGET	n/a	LTP204	ltpFR	4	9	1	OCTOPUS	971	1	5	1	n/a	n/a	n/a	n/a	n/a
4042063	RECOG_RESP	n/a	LTP204	ltpFR	4	9	1	OCTOPUS	971	1	n/a	1	n/a	n/a	n/a	n/a	n/a
4043160	RECOG_CONF	n/a	LTP204	ltpFR	4	9	1	OCTOPUS	971	n/a	5	1	n/a	n/a	n/a	n/a	n/a
4045019	RECOG_TARGET	n/a	LTP204	ltpFR	4	9	0	FACE	547	1	3	1	n/a	n/a	n/a	n/a	n/a
4045939	RECOG_RESP	n/a	LTP204	ltpFR	4	9	0	FACE	547	1	n/a	1	n/a	n/a	n/a	n/a	n/a
4047161	RECOG_CONF	n/a	LTP204	ltpFR	4	9	0	FACE	547	n/a	3	1	n/a	n/a	n/a	n/a	n/a
4048957	RECOG_TARGET	n/a	LTP204	ltpFR	4	9	1	TAVERN	1437	1	5	0	n/a	n/a	n/a	n/a	n/a
4049715	RECOG_RESP	n/a	LTP204	ltpFR	4	9	1	TAVERN	1437	1	n/a	0	n/a	n/a	n/a	n/a	n/a
4050823	RECOG_CONF	n/a	LTP204	ltpFR	4	9	1	TAVERN	1437	n/a	5	0	n/a	n/a	n/a	n/a	n/a
4052630	RECOG_TARGET	n/a	LTP204	ltpFR	4	9	0	VET	1560	0	3	1	n/a	n/a	n/a	n/a	n/a
