onset	duration	trial_type	sample	stim_file	subject	experiment	session	trial	task	item_name	item_num	recog_resp	recog_conf	resp	color_r	color_g	color_b	case	font
232.788	n/a	SESS_START	116394	n/a	LTP070	ltpFR	18	n/a	n/a	n/a	n/a	1	5	n/a	n/a	n/a	n/a	n/a	n/a
306.352	n/a	WORD	153176	wordpools/wasnorm_wordpool.txt	LTP070	ltpFR	18	1	1	QUAIL	1147	0	n/a	0	0.57763671875	0.412841796875	1	lower	amplitud.ttf
310.298	n/a	WORD	155149	wordpools/wasnorm_wordpool.txt	LTP070	ltpFR	18	1	1	REEF	1177	n/a	n/a	1	0.57763671875	0.412841796875	1	lower	amplitud.ttf
314.41	n/a	WORD	157205	wordpools/wasnorm_wordpool.txt	LTP070	ltpFR	18	1	0	WAITRESS	1581	n/a	n/a	1	0.422607421875	0.5869140625	0	upper	zerothre.ttf
318.39	n/a	WORD	159195	wordpools/wasnorm_wordpool.txt	LTP070	ltpFR	18	1	0	OX	994	n/a	n/a	1	0.422607421875	0.5869140625	0	upper	zerothre.ttf
322.368	n/a	WORD	161184	wordpools/wasnorm_wordpool.txt	LTP070	ltpFR	18	1	1	BISON	131	n/a	n/a	1	0.57763671875	0.412841796875	1	lower	amplitud.ttf
326.322	n/a	WORD	163161	wordpools/wasnorm_wordpool.txt	LTP070	ltpFR	18	1	1	COW	393	n/a	n/a	1	0.57763671875	0.412841796875	1	lower	amplitud.ttf
330.142	n/a	WORD	165071	wordpools/wasnorm_wordpool.txt	LTP070	ltpFR	18	1	1	CROW	414	n/a	n/a	1	0.57763671875	0.412841796875	1	lower	amplitud.ttf
334.27	n/a	WORD	167135	wordpools/wasnorm_wordpool.txt	LTP070	ltpFR	18	1	0	SEA	1259	n/a	n/a	0	0.422607421875	0.5869140625	0	upper	zerothre.ttf
338.382	n/a	WORD	169191	wordpools/wasnorm_wordpool.txt	LTP070	ltpFR	18	1	0	STAMP	1370	n/a	n/a	0	0.422607421875	0.5869140625	0	upper	zerothre.ttf
342.294	n/a	WORD	171147	wordpools/wasnorm_wordpool.txt	LTP070	ltpFR	18	1	0	BATH	98	n/a	n/a	1	0.422607421875	0.5869140625	0	upper	zerothre.ttf
346.498	n/a	WORD	173249	wordpools/wasnorm_wordpool.txt	LTP070	ltpFR	18	1	0	CHARCOAL	281	n/a	n/a	0	0.422607421875	0.5869140625	0	upper	zerothre.ttf
350.484	n/a	WORD	175242	wordpools/wasnorm_wordpool.txt	LTP070	ltpFR	18	1	0	BULB	192	n/a	n/a	0	0.422607421875	0.5869140625	0	upper	zerothre.ttf
354.356	n/a	WORD	177178	wordpools/wasnorm_wordpool.txt	LTP070	ltpFR	18	1	0	TICK	1463	n/a	n/a	0	0.422607421875	0.5869140625	0	upper	zerothre.ttf
358.384	n/a	WORD	179192	wordpools/wasnorm_wordpool.txt	LTP070	ltpFR	18	1	1	BUTLER	204	n/a	n/a	1	0.57763671875	0.412841796875	1	lower	amplitud.ttf
362.504	n/a	WORD	181252	wordpools/wasnorm_wordpool.txt	LTP070	ltpFR	18	1	1	SKIRT	1319	n/a	n/a	0	0.57763671875	0.412841796875	1	lower	amplitud.ttf
366.598	n/a	WORD	183299	wordpools/wasnorm_wordpool.txt	LTP070	ltpFR	18	1	1	VEST	1559	n/a	n/a	0	0.57763671875	0.412841796875	1	lower	amplitud.ttf
372.51	n/a	REC_START	186255	n/a	LTP070	ltpFR	18	1	n/a	n/a	n/a	n/a	n/a	n/a	n/a	n/a	n/a	n/a	n/a
372.954	n/a	REC_WORD	186477	wordpools/wasnorm_wordpool.txt	LTP070	ltpFR	18	1	1	SKIRT	1319	n/a	n/a	0	n/a	n/a	n/a	n/a	n/a
374.306	n/a	REC_WORD	187153	wordpools/wasnorm_wordpool.txt	LTP070	ltpFR	18	1	1	VEST	1559	n/a	n/a	0	n/a	n/a	n/a	n/a	n/a
375.378	n/a	REC_WORD	187689	wordpools/wasnorm_wordpool.txt	LTP070	ltpFR	18	1	1	BUTLER	204	n/a	n/a	1	n/a	n/a	n/a	n/a	n/a
376.352	n/a	REC_WORD	188176	wordpools/wasnorm_wordpool.txt	LTP070	ltpFR	18	1	1	QUAIL	1147	n/a	n/a	0	n/a	n/a	n/a	n/a	n/a
377.284	n/a	REC_WORD	188642	wordpools/wasnorm_wordpool.txt	LTP070	ltpFR	18	1	1	REEF	1177	n/a	n/a	1	n/a	n/a	n/a	n/a	n/a
378.158	n/a	REC_WORD	189079	wordpools/wasnorm_wordpool.txt	LTP070	ltpFR	18	1	0	WAITRESS	1581	n/a	n/a	1	n/a	n/a	n/a	n/a	n/a
379.236	n/a	REC_WORD	189618	wordpools/wasnorm_wordpool.txt	LTP070	ltpFR	18	1	0	OX	994	n/a	n/a	1	n/a	n/a	n/a	n/a	n/a
380.192	n/a	REC_WORD	190096	wordpools/wasnorm_wordpool.txt	LTP070	ltpFR	18	1	1	BISON	131	n/a	n/a	1	n/a	n/a	n/a	n/a	n/a
381.19	n/a	REC_WORD	190595	wordpools/wasnorm_wordpool.txt	LTP070	ltpFR	18	1	1	COW	393	n/a	n/a	1	n/a	n/a	n/a	n/a	n/a
382.696	n/a	REC_WORD	191348	wordpools/wasnorm_wordpool.txt	LTP070	ltpFR	18	1	0	STAMP	1370	n/a	n/a	0	n/a	n/a	n/a	n/a	n/a
384.298	n/a	REC_WORD	192149	wordpools/wasnorm_wordpool.txt	LTP070	ltpFR	18	1	0	TICK	1463	n/a	n/a	0	n/a	n/a	n/a	n/a	n/a
386.434	n/a	REC_WORD	193217	wordpools/wasnorm_wordpool.txt	LTP070	ltpFR	18	1	0	BULB	192	n/a	n/a	0	n/a	n/a	n/a	n/a	n/a
387.69	n/a	REC_WORD	193845	wordpools/wasnorm_wordpool.txt	LTP070	ltpFR	18	1	0	CHARCOAL	281	n/a	n/a	0	n/a	n/a	n/a	n/a	n/a
390.684	n/a	REC_WORD	195342	wordpools/wasnorm_wordpool.txt	LTP070	ltpFR	18	1	0	SEA	1259	n/a	n/a	0	n/a	n/a	n/a	n/a	n/a
393.638	n/a	REC_WORD	196819	wordpools/wasnorm_wordpool.txt	LTP070	ltpFR	18	1	0	BATH	98	n/a	n/a	1	n/a	n/a	n/a	n/a	n/a
408.044	n/a	REC_WORD	204022	wordpools/wasnorm_wordpool.txt	LTP070	ltpFR	18	1	0	STAMP	1370	n/a	n/a	0	n/a	n/a	n/a	n/a	n/a
410.16	n/a	REC_WORD	205080	wordpools/wasnorm_wordpool.txt	LTP070	ltpFR	18	1	0	CHARCOAL	281	n/a	n/a	0	n/a	n/a	n/a	n/a	n/a
411.602	n/a	REC_WORD	205801	wordpools/wasnorm_wordpool.txt	LTP070	ltpFR	18	1	n/a	PICK	1058	n/a	n/a	n/a	n/a	n/a	n/a	n/a	n/a
420.606	n/a	REC_WORD	210303	wordpools/wasnorm_wordpool.txt	LTP070	ltpFR	18	1	0	STAMP	1370	n/a	n/a	0	n/a	n/a	n/a	n/a	n/a
436.864	n/a	REC_WORD	218432	wordpools/wasnorm_wordpool.txt	LTP070	ltpFR	18	1	1	QUAIL	1147	n/a	n/a	0	n/a	n/a	n/a	n/a	n/a
437.802	n/a	REC_WORD	218901	wordpools/wasnorm_wordpool.txt	LTP070	ltpFR	18	1	1	REEF	1177	n/a	n/a	1	n/a	n/a	n/a	n/a	n/a
438.572	n/a	REC_WORD	219286	wordpools/wasnorm_wordpool.txt	LTP070	ltpFR	18	1	1	BISON	131	n/a	n/a	1	n/a	n/a	n/a	n/a	n/a
439.668	n/a	REC_WORD	219834	wordpools/wasnorm_wordpool.txt	LTP070	ltpFR	18	1	0	OX	994	n/a	n/a	1	n/a	n/a	n/a	n/a	n/a
444.174	n/a	REC_WORD	222087	wordpools/wasnorm_wordpool.txt	LTP070	ltpFR	18	1	0	WAITRESS	1581	n/a	n/a	1	n/a	n/a	n/a	n/a	n/a
455.256	n/a	WORD	227628	wordpools/wasnorm_wordpool.txt	LTP070	ltpFR	18	2	0	ANT	25	n/a	n/a	0	0.422607421875	0.5869140625	0	upper	zerothre.ttf
459.426	n/a	WORD	229713	wordpools/wasnorm_wordpool.txt	LTP070	ltpFR	18	2	0	CATERPILLAR	259	n/a	n/a	0	0.422607421875	0.5869140625	0	upper	zerothre.ttf
463.362	n/a	WORD	231681	wordpools/wasnorm_wordpool.txt	LTP070	ltpFR	18	2	0	HIP	710	n/a	n/a	1	0.422607421875	0.5869140625	0	upper	zerothre.ttf
467.5	n/a	WORD	233750	wordpools/wasnorm_wordpool.txt	LTP070	ltpFR	18	2	1	CORAL	378	n/a	n/a	1	0.57763671875	0.412841796875	1	lower	amplitud.ttf
471.636	n/a	WORD	235818	wordpools/wasnorm_wordpool.txt	LTP070	ltpFR	18	2	1	SHORTCAKE	1292	n/a	n/a	0	0.57763671875	0.412841796875	1	lower	amplitud.ttf
475.582	n/a	WORD	237791	wordpools/wasnorm_wordpool.txt	LTP070	ltpFR	18	2	1	FAMILY	550	n/a	n/a	1	0.57763671875	0.412841796875	1	lower	amplitud.ttf
479.76	n/a	WORD	239880	wordpools/wasnorm_wordpool.txt	LTP070	ltpFR	18	2	0	NUCLEUS	961	n/a	n/a	0	0.422607421875	0.5869140625	0	upper	zerothre.ttf
483.588	n/a	WORD	241794	wordpools/wasnorm_wordpool.txt	LTP070	ltpFR	18	2	0	GRATE	657	n/a	n/a	0	0.422607421875	0.5869140625	0	upper	zerothre.ttf
487.776	n/a	WORD	243888	wordpools/wasnorm_wordpool.txt	LTP070	ltpFR	18	2	1	WITNESS	1618	n/a	n/a	1	0.57763671875	0.412841796875	1	lower	amplitud.ttf
491.788	n/a	WORD	245894	wordpools/wasnorm_wordpool.txt	LTP070	ltpFR	18	2	1	BONE	148	n/a	n/a	0	0.57763671875	0.412841796875	1	lower	amplitud.ttf
495.692	n/a	WORD	247846	wordpools/wasnorm_wordpool.txt	LTP070	ltpFR	18	2	1	ZUCCHINI	1638	n/a	n/a	1	0.57763671875	0.412841796875	1	lower	amplitud.ttf
499.536	n/a	WORD	249768	wordpools/wasnorm_wordpool.txt	LTP070	ltpFR	18	2	1	NITROGEN	954	n/a	n/a	0	0.57763671875	0.412841796875	1	lower	amplitud.ttf
503.706	n/a	WORD	251853	wordpools/wasnorm_wordpool.txt	LTP070	ltpFR	18	2	1	VENT	1556	n/a	n/a	0	0.57763671875	0.412841796875	1	lower	amplitud.ttf
507.694	n/a	WORD	253847	wordpools/wasnorm_wordpool.txt	LTP070	ltpFR	18	2	0	DIVER	476	n/a	n/a	1	0.422607421875	0.5869140625	0	upper	zerothre.ttf
511.764	n/a	WORD	255882	wordpools/wasnorm_wordpool.txt	LTP070	ltpFR	18	2	0	STAPLE	1371	n/a	n/a	0	0.422607421875	0.5869140625	0	upper	zerothre.ttf
515.742	n/a	WORD	257871	wordpools/wasnorm_wordpool.txt	LTP070	ltpFR	18	2	0	PENCIL	1042	n/a	n/a	0	0.422607421875	0.5869140625	0	upper	zerothre.ttf
521.62	n/a	REC_START	260810	n/a	LTP070	ltpFR	18	2	n/a	n/a	n/a	n/a	n/a	n/a	n/a	n/a	n/a	n/a	n/a
522.614	n/a	REC_WORD	261307	wordpools/wasnorm_wordpool.txt	LTP070	ltpFR	18	2	0	ANT	25	n/a	n/a	0	n/a	n/a	n/a	n/a	n/a
524.13	n/a	REC_WORD	262065	wordpools/wasnorm_wordpool.txt	LTP070	ltpFR	18	2	0	CATERPILLAR	259	n/a	n/a	0	n/a	n/a	n/a	n/a	n/a
526.884	n/a	REC_WORD	263442	wordpools/wasnorm_wordpool.txt	LTP070	ltpFR	18	2	0	DIVER	476	n/a	n/a	1	n/a	n/a	n/a	n/a	n/a
528.424	n/a	REC_WORD	264212	wordpools/wasnorm_wordpool.txt	LTP070	ltpFR	18	2	1	FAMILY	550	n/a	n/a	1	n/a	n/a	n/a	n/a	n/a
531.802	n/a	REC_WORD	265901	wordpools/wasnorm_wordpool.txt	LTP070	ltpFR	18	2	0	TICK	1463	n/a	n/a	0	n/a	n/a	n/a	n/a	n/a
535.16	n/a	REC_WORD	267580	wordpools/wasnorm_wordpool.txt	LTP070	ltpFR	18	2	1	VENT	1556	n/a	n/a	0	n/a	n/a	n/a	n/a	n/a
541.176	n/a	REC_WORD	270588	wordpools/wasnorm_wordpool.txt	LTP070	ltpFR	18	2	1	CORAL	378	n/a	n/a	1	n/a	n/a	n/a	n/a	n/a
543.496	n/a	REC_WORD	271748	wordpools/wasnorm_wordpool.txt	LTP070	ltpFR	18	2	1	REEF	1177	n/a	n/a	1	n/a	n/a	n/a	n/a	n/a
549.732	n/a	REC_WORD	274866	wordpools/wasnorm_wordpool.txt	LTP070	ltpFR	18	2	1	FAMILY	550	n/a	n/a	1	n/a	n/a	n/a	n/a	n/a
554.122	n/a	REC_WORD	277061	wordpools/wasnorm_wordpool.txt	LTP070	ltpFR	18	2	1	VENT	1556	n/a	n/a	0	n/a	n/a	n/a	n/a	n/a
566.674	n/a	REC_WORD	283337	wordpools/wasnorm_wordpool.txt	LTP070	ltpFR	18	2	0	PENCIL	1042	n/a	n/a	0	n/a	n/a	n/a	n/a	n/a
573.652	n/a	REC_WORD	286826	wordpools/wasnorm_wordpool.txt	LTP070	ltpFR	18	2	0	GRATE	657	n/a	n/a	0	n/a	n/a	n/a	n/a	n/a
583.212	n/a	REC_WORD	291606	wordpools/wasnorm_wordpool.txt	LTP070	ltpFR	18	2	0	SEA	1259	n/a	n/a	0	n/a	n/a	n/a	n/a	n/a
586.174	n/a	REC_WORD	293087	wordpools/wasnorm_wordpool.txt	LTP070	ltpFR	18	2	0	DIVER	476	n/a	n/a	1	n/a	n/a	n/a	n/a	n/a
591.722	n/a	REC_WORD	295861	wordpools/wasnorm_wordpool.txt	LTP070	ltpFR	18	2	1	ZUCCHINI	1638	n/a	n/a	1	n/a	n/a	n/a	n/a	n/a
595.428	n/a	REC_WORD	297714	wordpools/wasnorm_wordpool.txt	LTP070	ltpFR	18	2	1	WITNESS	1618	n/a	n/a	1	n/a	n/a	n/a	n/a	n/a
600.496	n/a	WORD	300248	wordpools/wasnorm_wordpool.txt	LTP070	ltpFR	18	3	0	NOTEBOOK	959	n/a	n/a	1	0.422607421875	0.5869140625	0	upper	zerothre.ttf
604.324	n/a	WORD	302162	wordpools/wasnorm_wordpool.txt	LTP070	ltpFR	18	3	0	PHOTO	1055	n/a	n/a	0	0.422607421875	0.5869140625	0	upper	zerothre.ttf
608.228	n/a	WORD	304114	wordpools/wasnorm_wordpool.txt	LTP070	ltpFR	18	3	1	PREDATOR	1120	n/a	n/a	1	0.57763671875	0.412841796875	1	lower	amplitud.ttf
612.432	n/a	WORD	306216	wordpools/wasnorm_wordpool.txt	LTP070	ltpFR	18	3	1	MOUSE	925	n/a	n/a	1	0.57763671875	0.412841796875	1	lower	amplitud.ttf
616.344	n/a	WORD	308172	wordpools/wasnorm_wordpool.txt	LTP070	ltpFR	18	3	1	INSECT	740	n/a	n/a	1	0.57763671875	0.412841796875	1	lower	amplitud.ttf
620.498	n/a	WORD	310249	wordpools/wasnorm_wordpool.txt	LTP070	ltpFR	18	3	1	CRICKET	408	n/a	n/a	1	0.57763671875	0.412841796875	1	lower	amplitud.ttf
624.576	n/a	WORD	312288	wordpools/wasnorm_wordpool.txt	LTP070	ltpFR	18	3	1	NET	946	n/a	n/a	0	0.57763671875	0.412841796875	1	lower	amplitud.ttf
628.506	n/a	WORD	314253	wordpools/wasnorm_wordpool.txt	LTP070	ltpFR	18	3	0	DIPLOMA	470	n/a	n/a	1	0.422607421875	0.5869140625	0	upper	zerothre.ttf
632.584	n/a	WORD	316292	wordpools/wasnorm_wordpool.txt	LTP070	ltpFR	18	3	0	WALRUS	1585	n/a	n/a	1	0.422607421875	0.5869140625	0	upper	zerothre.ttf
636.72	n/a	WORD	318360	wordpools/wasnorm_wordpool.txt	LTP070	ltpFR	18	3	0	TUNA	1518	n/a	n/a	1	0.422607421875	0.5869140625	0	upper	zerothre.ttf
640.758	n/a	WORD	320379	wordpools/wasnorm_wordpool.txt	LTP070	ltpFR	18	3	1	BULLETIN	195	n/a	n/a	0	0.57763671875	0.412841796875	1	lower	amplitud.ttf
644.918	n/a	WORD	322459	wordpools/wasnorm_wordpool.txt	LTP070	ltpFR	18	3	1	FLOWER	584	n/a	n/a	1	0.57763671875	0.412841796875	1	lower	amplitud.ttf
649.032	n/a	WORD	324516	wordpools/wasnorm_wordpool.txt	LTP070	ltpFR	18	3	1	BANDANNA	80	n/a	n/a	0	0.57763671875	0.412841796875	1	lower	amplitud.ttf
652.952	n/a	WORD	326476	wordpools/wasnorm_wordpool.txt	LTP070	ltpFR	18	3	0	PAW	1029	n/a	n/a	1	0.422607421875	0.5869140625	0	upper	zerothre.ttf
656.98	n/a	WORD	328490	wordpools/wasnorm_wordpool.txt	LTP070	ltpFR	18	3	0	DINER	467	n/a	n/a	1	0.422607421875	0.5869140625	0	upper	zerothre.ttf
660.968	n/a	WORD	330484	wordpools/wasnorm_wordpool.txt	LTP070	ltpFR	18	3	0	KITCHEN	778	n/a	n/a	0	0.422607421875	0.5869140625	0	upper	zerothre.ttf
666.72	n/a	REC_START	333360	n/a	LTP070	ltpFR	18	3	n/a	n/a	n/a	n/a	n/a	n/a	n/a	n/a	n/a	n/a	n/a
667.786	n/a	REC_WORD	333893	wordpools/wasnorm_wordpool.txt	LTP070	ltpFR	18	3	0	KITCHEN	778	n/a	n/a	0	n/a	n/a	n/a	n/a	n/a
669.158	n/a	REC_WORD	334579	wordpools/wasnorm_wordpool.txt	LTP070	ltpFR	18	3	0	DINER	467	n/a	n/a	1	n/a	n/a	n/a	n/a	n/a
670.496	n/a	REC_WORD	335248	wordpools/wasnorm_wordpool.txt	LTP070	ltpFR	18	3	0	PAW	1029	n/a	n/a	1	n/a	n/a	n/a	n/a	n/a
677.85	n/a	REC_WORD	338925	wordpools/wasnorm_wordpool.txt	LTP070	ltpFR	18	3	1	INSECT	740	n/a	n/a	1	n/a	n/a	n/a	n/a	n/a
679.45	n/a	REC_WORD	339725	wordpools/wasnorm_wordpool.txt	LTP070	ltpFR	18	3	1	CRICKET	408	n/a	n/a	1	n/a	n/a	n/a	n/a	n/a
685.846	n/a	REC_WORD	342923	wordpools/wasnorm_wordpool.txt	LTP070	ltpFR	18	3	0	NOTEBOOK	959	n/a	n/a	1	n/a	n/a	n/a	n/a	n/a
688.27	n/a	REC_WORD	344135	wordpools/wasnorm_wordpool.txt	LTP070	ltpFR	18	3	0	DIPLOMA	470	n/a	n/a	1	n/a	n/a	n/a	n/a	n/a
702.328	n/a	REC_WORD	351164	wordpools/wasnorm_wordpool.txt	LTP070	ltpFR	18	3	0	PHOTO	1055	n/a	n/a	0	n/a	n/a	n/a	n/a	n/a
710.306	n/a	REC_WORD	355153	wordpools/wasnorm_wordpool.txt	LTP070	ltpFR	18	3	1	BULLETIN	195	n/a	n/a	0	n/a	n/a	n/a	n/a	n/a
715.2	n/a	REC_WORD	357600	wordpools/wasnorm_wordpool.txt	LTP070	ltpFR	18	3	1	BUTLER	204	n/a	n/a	1	n/a	n/a	n/a	n/a	n/a
729.308	n/a	REC_WORD	364654	wordpools/wasnorm_wordpool.txt	LTP070	ltpFR	18	3	1	CRICKET	408	n/a	n/a	1	n/a	n/a	n/a	n/a	n/a
738.428	n/a	REC_WORD	369214	wordpools/wasnorm_wordpool.txt	LTP070	ltpFR	18	3	0	KITCHEN	778	n/a	n/a	0	n/a	n/a	n/a	n/a	n/a
744.944	n/a	WORD	372472	wordpools/wasnorm_wordpool.txt	LTP070	ltpFR	18	4	-1	SILVERWARE	1308	n/a	n/a	-1	1.0	1.0	1	upper	Verdana.ttf
748.832	n/a	WORD	374416	wordpools/wasnorm_wordpool.txt	LTP070	ltpFR	18	4	-1	SPATULA	1348	n/a	n/a	-1	1.0	1.0	1	upper	Verdana.ttf
752.828	n/a	WORD	376414	wordpools/wasnorm_wordpool.txt	LTP070	ltpFR	18	4	-1	LUGGAGE	847	n/a	n/a	-1	1.0	1.0	1	upper	Verdana.ttf
756.966	n/a	WORD	378483	wordpools/wasnorm_wordpool.txt	LTP070	ltpFR	18	4	-1	ANCESTOR	20	n/a	n/a	-1	1.0	1.0	1	upper	Verdana.ttf
761.16	n/a	WORD	380580	wordpools/wasnorm_wordpool.txt	LTP070	ltpFR	18	4	-1	HUMAN	726	n/a	n/a	-1	1.0	1.0	1	upper	Verdana.ttf
765.198	n/a	WORD	382599	wordpools/wasnorm_wordpool.txt	LTP070	ltpFR	18	4	-1	CHAMBER	277	n/a	n/a	-1	1.0	1.0	1	upper	Verdana.ttf
769.168	n/a	WORD	384584	wordpools/wasnorm_wordpool.txt	LTP070	ltpFR	18	4	-1	OUTFIT	988	n/a	n/a	-1	1.0	1.0	1	upper	Verdana.ttf
773.062	n/a	WORD	386531	wordpools/wasnorm_wordpool.txt	LTP070	ltpFR	18	4	-1	EMPIRE	530	n/a	n/a	-1	1.0	1.0	1	upper	Verdana.ttf
776.984	n/a	WORD	388492	wordpools/wasnorm_wordpool.txt	LTP070	ltpFR	18	4	-1	NAPKIN	937	n/a	n/a	-1	1.0	1.0	1	upper	Verdana.ttf
781.104	n/a	WORD	390552	wordpools/wasnorm_wordpool.txt	LTP070	ltpFR	18	4	-1	COOKBOOK	373	n/a	n/a	-1	1.0	1.0	1	upper	Verdana.ttf
785.19	n/a	WORD	392595	wordpools/wasnorm_wordpool.txt	LTP070	ltpFR	18	4	-1	WALLET	1583	n/a	n/a	-1	1.0	1.0	1	upper	Verdana.ttf
789.37	n/a	WORD	394685	wordpools/wasnorm_wordpool.txt	LTP070	ltpFR	18	4	-1	CASHIER	254	n/a	n/a	-1	1.0	1.0	1	upper	Verdana.ttf
793.524	n/a	WORD	396762	wordpools/wasnorm_wordpool.txt	LTP070	ltpFR	18	4	-1	COD	340	n/a	n/a	-1	1.0	1.0	1	upper	Verdana.ttf
797.478	n/a	WORD	398739	wordpools/wasnorm_wordpool.txt	LTP070	ltpFR	18	4	-1	CRIMINAL	409	n/a	n/a	-1	1.0	1.0	1	upper	Verdana.ttf
801.49	n/a	WORD	400745	wordpools/wasnorm_wordpool.txt	LTP070	ltpFR	18	4	-1	ORCHESTRA	981	n/a	n/a	-1	1.0	1.0	1	upper	Verdana.ttf
805.574	n/a	WORD	402787	wordpools/wasnorm_wordpool.txt	LTP070	ltpFR	18	4	-1	SHRIMP	1297	n/a	n/a	-1	1.0	1.0	1	upper	Verdana.ttf
811.294	n/a	REC_START	405647	n/a	LTP070	ltpFR	18	4	n/a	n/a	n/a	n/a	n/a	n/a	n/a	n/a	n/a	n/a	n/a
811.998	n/a	REC_WORD	405999	wordpools/wasnorm_wordpool.txt	LTP070	ltpFR	18	4	-1	SHRIMP	1297	n/a	n/a	-1	n/a	n/a	n/a	n/a	n/a
813.644	n/a	REC_WORD	406822	wordpools/wasnorm_wordpool.txt	LTP070	ltpFR	18	4	-1	ORCHESTRA	981	n/a	n/a	-1	n/a	n/a	n/a	n/a	n/a
815.336	n/a	REC_WORD	407668	wordpools/wasnorm_wordpool.txt	LTP070	ltpFR	18	4	-1	SILVERWARE	1308	n/a	n/a	-1	n/a	n/a	n/a	n/a	n/a
816.976	n/a	REC_WORD	408488	wordpools/wasnorm_wordpool.txt	LTP070	ltpFR	18	4	-1	SPATULA	1348	n/a	n/a	-1	n/a	n/a	n/a	n/a	n/a
819.5	n/a	REC_WORD	409750	wordpools/wasnorm_wordpool.txt	LTP070	ltpFR	18	4	-1	LUGGAGE	847	n/a	n/a	-1	n/a	n/a	n/a	n/a	n/a
825.732	n/a	REC_WORD	412866	wordpools/wasnorm_wordpool.txt	LTP070	ltpFR	18	4	-1	ORCHESTRA	981	n/a	n/a	-1	n/a	n/a	n/a	n/a	n/a
832.276	n/a	REC_WORD	416138	wordpools/wasnorm_wordpool.txt	LTP070	ltpFR	18	4	-1	EMPIRE	530	n/a	n/a	-1	n/a	n/a	n/a	n/a	n/a
833.41	n/a	REC_WORD	416705	wordpools/wasnorm_wordpool.txt	LTP070	ltpFR	18	4	-1	NAPKIN	937	n/a	n/a	-1	n/a	n/a	n/a	n/a	n/a
846.57	n/a	REC_WORD	423285	wordpools/wasnorm_wordpool.txt	LTP070	ltpFR	18	4	-1	SILVERWARE	1308	n/a	n/a	-1	n/a	n/a	n/a	n/a	n/a
853.618	n/a	REC_WORD	426809	wordpools/wasnorm_wordpool.txt	LTP070	ltpFR	18	4	-1	OUTFIT	988	n/a	n/a	-1	n/a	n/a	n/a	n/a	n/a
865.692	n/a	REC_WORD	432846	wordpools/wasnorm_wordpool.txt	LTP070	ltpFR	18	4	-1	EMPIRE	530	n/a	n/a	-1	n/a	n/a	n/a	n/a	n/a
873.922	n/a	REC_WORD	436961	wordpools/wasnorm_wordpool.txt	LTP070	ltpFR	18	4	-1	CHAMBER	277	n/a	n/a	-1	n/a	n/a	n/a	n/a	n/a
875.61	n/a	REC_WORD	437805	wordpools/wasnorm_wordpool.txt	LTP070	ltpFR	18	4	-1	CRIMINAL	409	n/a	n/a	-1	n/a	n/a	n/a	n/a	n/a
905.41	n/a	WORD	452705	wordpools/wasnorm_wordpool.txt	LTP070	ltpFR	18	5	-1	GARAGE	621	n/a	n/a	-1	1.0	1.0	1	upper	Verdana.ttf
909.612	n/a	WORD	454806	wordpools/wasnorm_wordpool.txt	LTP070	ltpFR	18	5	-1	VALVE	1546	n/a	n/a	-1	1.0	1.0	1	upper	Verdana.ttf
913.766	n/a	WORD	456883	wordpools/wasnorm_wordpool.txt	LTP070	ltpFR	18	5	-1	MOAT	903	n/a	n/a	-1	1.0	1.0	1	upper	Verdana.ttf
917.712	n/a	WORD	458856	wordpools/wasnorm_wordpool.txt	LTP070	ltpFR	18	5	-1	BLUEPRINT	142	n/a	n/a	-1	1.0	1.0	1	upper	Verdana.ttf
921.874	n/a	WORD	460937	wordpools/wasnorm_wordpool.txt	LTP070	ltpFR	18	5	-1	FOLLOWER	589	n/a	n/a	-1	1.0	1.0	1	upper	Verdana.ttf
925.686	n/a	WORD	462843	wordpools/wasnorm_wordpool.txt	LTP070	ltpFR	18	5	-1	POLITICIAN	1099	n/a	n/a	-1	1.0	1.0	1	upper	Verdana.ttf
929.798	n/a	WORD	464899	wordpools/wasnorm_wordpool.txt	LTP070	ltpFR	18	5	-1	PRAIRIE	1118	n/a	n/a	-1	1.0	1.0	1	upper	Verdana.ttf
933.792	n/a	WORD	466896	wordpools/wasnorm_wordpool.txt	LTP070	ltpFR	18	5	-1	STEM	1376	n/a	n/a	-1	1.0	1.0	1	upper	Verdana.ttf
937.814	n/a	WORD	468907	wordpools/wasnorm_wordpool.txt	LTP070	ltpFR	18	5	-1	DUNGEON	507	n/a	n/a	-1	1.0	1.0	1	upper	Verdana.ttf
941.816	n/a	WORD	470908	wordpools/wasnorm_wordpool.txt	LTP070	ltpFR	18	5	-1	FIG	563	n/a	n/a	-1	1.0	1.0	1	upper	Verdana.ttf
945.846	n/a	WORD	472923	wordpools/wasnorm_wordpool.txt	LTP070	ltpFR	18	5	-1	OLIVE	975	n/a	n/a	-1	1.0	1.0	1	upper	Verdana.ttf
950.01	n/a	WORD	475005	wordpools/wasnorm_wordpool.txt	LTP070	ltpFR	18	5	-1	PORK	1108	n/a	n/a	-1	1.0	1.0	1	upper	Verdana.ttf
954.088	n/a	WORD	477044	wordpools/wasnorm_wordpool.txt	LTP070	ltpFR	18	5	-1	CHEF	290	n/a	n/a	-1	1.0	1.0	1	upper	Verdana.ttf
958.182	n/a	WORD	479091	wordpools/wasnorm_wordpool.txt	LTP070	ltpFR	18	5	-1	GLASSES	640	n/a	n/a	-1	1.0	1.0	1	upper	Verdana.ttf
962.362	n/a	WORD	481181	wordpools/wasnorm_wordpool.txt	LTP070	ltpFR	18	5	-1	RAFT	1159	n/a	n/a	-1	1.0	1.0	1	upper	Verdana.ttf
966.382	n/a	WORD	483191	wordpools/wasnorm_wordpool.txt	LTP070	ltpFR	18	5	-1	SAP	1233	n/a	n/a	-1	1.0	1.0	1	upper	Verdana.ttf
972.018	n/a	REC_START	486009	n/a	LTP070	ltpFR	18	5	n/a	n/a	n/a	n/a	n/a	n/a	n/a	n/a	n/a	n/a	n/a
973.134	n/a	REC_WORD_VV	486567	wordpools/wasnorm_wordpool.txt	LTP070	ltpFR	18	5	n/a	<>	-1	n/a	n/a	n/a	n/a	n/a	n/a	n/a	n/a
973.972	n/a	REC_WORD	486986	wordpools/wasnorm_wordpool.txt	LTP070	ltpFR	18	5	-1	OLIVE	975	n/a	n/a	-1	n/a	n/a	n/a	n/a	n/a
975.016	n/a	REC_WORD	487508	wordpools/wasnorm_wordpool.txt	LTP070	ltpFR	18	5	-1	PORK	1108	n/a	n/a	-1	n/a	n/a	n/a	n/a	n/a
976.228	n/a	REC_WORD	488114	wordpools/wasnorm_wordpool.txt	LTP070	ltpFR	18	5	-1	FOLLOWER	589	n/a	n/a	-1	n/a	n/a	n/a	n/a	n/a
977.7	n/a	REC_WORD	488850	wordpools/wasnorm_wordpool.txt	LTP070	ltpFR	18	5	-1	GLASSES	640	n/a	n/a	-1	n/a	n/a	n/a	n/a	n/a
979.146	n/a	REC_WORD	489573	wordpools/wasnorm_wordpool.txt	LTP070	ltpFR	18	5	-1	RAFT	1159	n/a	n/a	-1	n/a	n/a	n/a	n/a	n/a
985.422	n/a	REC_WORD	492711	wordpools/wasnorm_wordpool.txt	LTP070	ltpFR	18	5	-1	VALVE	1546	n/a	n/a	-1	n/a	n/a	n/a	n/a	n/a
986.664	n/a	REC_WORD	493332	wordpools/wasnorm_wordpool.txt	LTP070	ltpFR	18	5	-1	GARAGE	621	n/a	n/a	-1	n/a	n/a	n/a	n/a	n/a
1003.58	n/a	REC_WORD	501790	wordpools/wasnorm_wordpool.txt	LTP070	ltpFR	18	5	-1	RAFT	1159	n/a	n/a	-1	n/a	n/a	n/a	n/a	n/a
1007.078	n/a	REC_WORD	503539	wordpools/wasnorm_wordpool.txt	LTP070	ltpFR	18	5	-1	SAP	1233	n/a	n/a	-1	n/a	n/a	n/a	n/a	n/a
1017.992	n/a	REC_WORD	508996	wordpools/wasnorm_wordpool.txt	LTP070	ltpFR	18	5	-1	FOLLOWER	589	n/a	n/a	-1	n/a	n/a	n/a	n/a	n/a
1026.874	n/a	REC_WORD	513437	wordpools/wasnorm_wordpool.txt	LTP070	ltpFR	18	5	-1	OUTFIT	988	n/a	n/a	-1	n/a	n/a	n/a	n/a	n/a
1028.77	n/a	REC_WORD	514385	wordpools/wasnorm_wordpool.txt	LTP070	ltpFR	18	5	-1	MOAT	903	n/a	n/a	-1	n/a	n/a	n/a	n/a	n/a
1063.486	n/a	WORD	531743	wordpools/wasnorm_wordpool.txt	LTP070	ltpFR	18	6	-1	DICE	461	n/a	n/a	-1	1.0	1.0	1	upper	Verdana.ttf
1067.514	n/a	WORD	533757	wordpools/wasnorm_wordpool.txt	LTP070	ltpFR	18	6	-1	CHEERLEADER	288	n/a	n/a	-1	1.0	1.0	1	upper	Verdana.ttf
1071.452	n/a	WORD	535726	wordpools/wasnorm_wordpool.txt	LTP070	ltpFR	18	6	-1	FREEZER	604	n/a	n/a	-1	1.0	1.0	1	upper	Verdana.ttf
1075.422	n/a	WORD	537711	wordpools/wasnorm_wordpool.txt	LTP070	ltpFR	18	6	-1	RUM	1217	n/a	n/a	-1	1.0	1.0	1	upper	Verdana.ttf
1079.342	n/a	WORD	539671	wordpools/wasnorm_wordpool.txt	LTP070	ltpFR	18	6	-1	JUG	762	n/a	n/a	-1	1.0	1.0	1	upper	Verdana.ttf
1083.53	n/a	WORD	541765	wordpools/wasnorm_wordpool.txt	LTP070	ltpFR	18	6	-1	PATIENT	1024	n/a	n/a	-1	1.0	1.0	1	upper	Verdana.ttf
1087.664	n/a	WORD	543832	wordpools/wasnorm_wordpool.txt	LTP070	ltpFR	18	6	-1	SPICE	1350	n/a	n/a	-1	1.0	1.0	1	upper	Verdana.ttf
1091.52	n/a	WORD	545760	wordpools/wasnorm_wordpool.txt	LTP070	ltpFR	18	6	-1	SAGE	1222	n/a	n/a	-1	1.0	1.0	1	upper	Verdana.ttf
1095.54	n/a	WORD	547770	wordpools/wasnorm_wordpool.txt	LTP070	ltpFR	18	6	-1	PEANUT	1032	n/a	n/a	-1	1.0	1.0	1	upper	Verdana.ttf
1099.676	n/a	WORD	549838	wordpools/wasnorm_wordpool.txt	LTP070	ltpFR	18	6	-1	HAMPER	682	n/a	n/a	-1	1.0	1.0	1	upper	Verdana.ttf
1103.706	n/a	WORD	551853	wordpools/wasnorm_wordpool.txt	LTP070	ltpFR	18	6	-1	SILK	1307	n/a	n/a	-1	1.0	1.0	1	upper	Verdana.ttf
1107.7	n/a	WORD	553850	wordpools/wasnorm_wordpool.txt	LTP070	ltpFR	18	6	-1	WOMAN	1620	n/a	n/a	-1	1.0	1.0	1	upper	Verdana.ttf
1111.514	n/a	WORD	555757	wordpools/wasnorm_wordpool.txt	LTP070	ltpFR	18	6	-1	UNDERWEAR	1537	n/a	n/a	-1	1.0	1.0	1	upper	Verdana.ttf
1115.492	n/a	WORD	557746	wordpools/wasnorm_wordpool.txt	LTP070	ltpFR	18	6	-1	PERSON	1052	n/a	n/a	-1	1.0	1.0	1	upper	Verdana.ttf
1119.43	n/a	WORD	559715	wordpools/wasnorm_wordpool.txt	LTP070	ltpFR	18	6	-1	HEATER	698	n/a	n/a	-1	1.0	1.0	1	upper	Verdana.ttf
1123.632	n/a	WORD	561816	wordpools/wasnorm_wordpool.txt	LTP070	ltpFR	18	6	-1	WHEAT	1602	n/a	n/a	-1	1.0	1.0	1	upper	Verdana.ttf
1129.552	n/a	REC_START	564776	n/a	LTP070	ltpFR	18	6	n/a	n/a	n/a	n/a	n/a	n/a	n/a	n/a	n/a	n/a	n/a
1130.992	n/a	REC_WORD	565496	wordpools/wasnorm_wordpool.txt	LTP070	ltpFR	18	6	-1	WHEAT	1602	n/a	n/a	-1	n/a	n/a	n/a	n/a	n/a
1133.298	n/a	REC_WORD	566649	wordpools/wasnorm_wordpool.txt	LTP070	ltpFR	18	6	-1	DICE	461	n/a	n/a	-1	n/a	n/a	n/a	n/a	n/a
1135.582	n/a	REC_WORD	567791	wordpools/wasnorm_wordpool.txt	LTP070	ltpFR	18	6	-1	FOLLOWER	589	n/a	n/a	-1	n/a	n/a	n/a	n/a	n/a
1140.042	n/a	REC_WORD	570021	wordpools/wasnorm_wordpool.txt	LTP070	ltpFR	18	6	-1	RUM	1217	n/a	n/a	-1	n/a	n/a	n/a	n/a	n/a
1141.554	n/a	REC_WORD	570777	wordpools/wasnorm_wordpool.txt	LTP070	ltpFR	18	6	-1	JUG	762	n/a	n/a	-1	n/a	n/a	n/a	n/a	n/a
1149.766	n/a	REC_WORD	574883	wordpools/wasnorm_wordpool.txt	LTP070	ltpFR	18	6	n/a	OPERATOR	979	n/a	n/a	n/a	n/a	n/a	n/a	n/a	n/a
1167.15	n/a	REC_WORD	583575	wordpools/wasnorm_wordpool.txt	LTP070	ltpFR	18	6	n/a	GUILD	-1	n/a	n/a	n/a	n/a	n/a	n/a	n/a	n/a
1172.888	n/a	REC_WORD	586444	wordpools/wasnorm_wordpool.txt	LTP070	ltpFR	18	6	-1	RUM	1217	n/a	n/a	-1	n/a	n/a	n/a	n/a	n/a
1174.06	n/a	REC_WORD	587030	wordpools/wasnorm_wordpool.txt	LTP070	ltpFR	18	6	-1	JUG	762	n/a	n/a	-1	n/a	n/a	n/a	n/a	n/a
1184.024	n/a	REC_WORD	592012	wordpools/wasnorm_wordpool.txt	LTP070	ltpFR	18	6	-1	PERSON	1052	n/a	n/a	-1	n/a	n/a	n/a	n/a	n/a
1190.344	n/a	REC_WORD	595172	wordpools/wasnorm_wordpool.txt	LTP070	ltpFR	18	6	-1	FOLLOWER	589	n/a	n/a	-1	n/a	n/a	n/a	n/a	n/a
1207.652	n/a	WORD	603826	wordpools/wasnorm_wordpool.txt	LTP070	ltpFR	18	7	0	DUMP	505	n/a	n/a	1	0.422607421875	0.5869140625	0	upper	zerothre.ttf
1211.838	n/a	WORD	605919	wordpools/wasnorm_wordpool.txt	LTP070	ltpFR	18	7	0	THORN	1459	n/a	n/a	0	0.422607421875	0.5869140625	0	upper	zerothre.ttf
1215.676	n/a	WORD	607838	wordpools/wasnorm_wordpool.txt	LTP070	ltpFR	18	7	0	WINDSHIELD	1612	n/a	n/a	1	0.422607421875	0.5869140625	0	upper	zerothre.ttf
1219.854	n/a	WORD	609927	wordpools/wasnorm_wordpool.txt	LTP070	ltpFR	18	7	0	RADIATOR	1156	n/a	n/a	1	0.422607421875	0.5869140625	0	upper	zerothre.ttf
1224.016	n/a	WORD	612008	wordpools/wasnorm_wordpool.txt	LTP070	ltpFR	18	7	0	BLOSSOM	138	n/a	n/a	0	0.422607421875	0.5869140625	0	upper	zerothre.ttf
1228.146	n/a	WORD	614073	wordpools/wasnorm_wordpool.txt	LTP070	ltpFR	18	7	0	ALMANAC	17	n/a	n/a	1	0.422607421875	0.5869140625	0	upper	zerothre.ttf
1232.108	n/a	WORD	616054	wordpools/wasnorm_wordpool.txt	LTP070	ltpFR	18	7	0	DIME	466	n/a	n/a	0	0.422607421875	0.5869140625	0	upper	zerothre.ttf
1236.286	n/a	WORD	618143	wordpools/wasnorm_wordpool.txt	LTP070	ltpFR	18	7	0	ENGINEER	536	n/a	n/a	1	0.422607421875	0.5869140625	0	upper	zerothre.ttf
1240.482	n/a	WORD	620241	wordpools/wasnorm_wordpool.txt	LTP070	ltpFR	18	7	0	BATTERY	101	n/a	n/a	1	0.422607421875	0.5869140625	0	upper	zerothre.ttf
1244.584	n/a	WORD	622292	wordpools/wasnorm_wordpool.txt	LTP070	ltpFR	18	7	0	BOXER	160	n/a	n/a	1	0.422607421875	0.5869140625	0	upper	zerothre.ttf
1248.488	n/a	WORD	624244	wordpools/wasnorm_wordpool.txt	LTP070	ltpFR	18	7	0	RUST	1219	n/a	n/a	0	0.422607421875	0.5869140625	0	upper	zerothre.ttf
1252.6	n/a	WORD	626300	wordpools/wasnorm_wordpool.txt	LTP070	ltpFR	18	7	0	JOURNAL	760	n/a	n/a	1	0.422607421875	0.5869140625	0	upper	zerothre.ttf
1256.462	n/a	WORD	628231	wordpools/wasnorm_wordpool.txt	LTP070	ltpFR	18	7	0	BULLY	196	n/a	n/a	1	0.422607421875	0.5869140625	0	upper	zerothre.ttf
1260.516	n/a	WORD	630258	wordpools/wasnorm_wordpool.txt	LTP070	ltpFR	18	7	0	PISTON	1076	n/a	n/a	0	0.422607421875	0.5869140625	0	upper	zerothre.ttf
1264.662	n/a	WORD	632331	wordpools/wasnorm_wordpool.txt	LTP070	ltpFR	18	7	0	CABLE	213	n/a	n/a	0	0.422607421875	0.5869140625	0	upper	zerothre.ttf
1268.574	n/a	WORD	634287	wordpools/wasnorm_wordpool.txt	LTP070	ltpFR	18	7	0	CONSOLE	364	n/a	n/a	1	0.422607421875	0.5869140625	0	upper	zerothre.ttf
1274.608	n/a	REC_START	637304	n/a	LTP070	ltpFR	18	7	n/a	n/a	n/a	n/a	n/a	n/a	n/a	n/a	n/a	n/a	n/a
1275.446	n/a	REC_WORD	637723	wordpools/wasnorm_wordpool.txt	LTP070	ltpFR	18	7	0	WINDSHIELD	1612	n/a	n/a	1	n/a	n/a	n/a	n/a	n/a
1277.342	n/a	REC_WORD	638671	wordpools/wasnorm_wordpool.txt	LTP070	ltpFR	18	7	0	RADIATOR	1156	n/a	n/a	1	n/a	n/a	n/a	n/a	n/a
1278.804	n/a	REC_WORD	639402	wordpools/wasnorm_wordpool.txt	LTP070	ltpFR	18	7	0	CONSOLE	364	n/a	n/a	1	n/a	n/a	n/a	n/a	n/a
1280.654	n/a	REC_WORD	640327	wordpools/wasnorm_wordpool.txt	LTP070	ltpFR	18	7	0	BATTERY	101	n/a	n/a	1	n/a	n/a	n/a	n/a	n/a
1283.878	n/a	REC_WORD	641939	wordpools/wasnorm_wordpool.txt	LTP070	ltpFR	18	7	0	PISTON	1076	n/a	n/a	0	n/a	n/a	n/a	n/a	n/a
1286.552	n/a	REC_WORD	643276	wordpools/wasnorm_wordpool.txt	LTP070	ltpFR	18	7	0	JOURNAL	760	n/a	n/a	1	n/a	n/a	n/a	n/a	n/a
1287.834	n/a	REC_WORD	643917	wordpools/wasnorm_wordpool.txt	LTP070	ltpFR	18	7	0	ALMANAC	17	n/a	n/a	1	n/a	n/a	n/a	n/a	n/a
1290.222	n/a	REC_WORD	645111	wordpools/wasnorm_wordpool.txt	LTP070	ltpFR	18	7	0	THORN	1459	n/a	n/a	0	n/a	n/a	n/a	n/a	n/a
1291.594	n/a	REC_WORD	645797	wordpools/wasnorm_wordpool.txt	LTP070	ltpFR	18	7	0	BLOSSOM	138	n/a	n/a	0	n/a	n/a	n/a	n/a	n/a
1307.534	n/a	REC_WORD	653767	wordpools/wasnorm_wordpool.txt	LTP070	ltpFR	18	7	0	DUMP	505	n/a	n/a	1	n/a	n/a	n/a	n/a	n/a
1311.564	n/a	REC_WORD	655782	wordpools/wasnorm_wordpool.txt	LTP070	ltpFR	18	7	0	BOXER	160	n/a	n/a	1	n/a	n/a	n/a	n/a	n/a
1314.768	n/a	REC_WORD	657384	wordpools/wasnorm_wordpool.txt	LTP070	ltpFR	18	7	0	DIME	466	n/a	n/a	0	n/a	n/a	n/a	n/a	n/a
1317.636	n/a	REC_WORD	658818	wordpools/wasnorm_wordpool.txt	LTP070	ltpFR	18	7	0	BULLY	196	n/a	n/a	1	n/a	n/a	n/a	n/a	n/a
1333.944	n/a	REC_WORD	666972	wordpools/wasnorm_wordpool.txt	LTP070	ltpFR	18	7	0	BOXER	160	n/a	n/a	1	n/a	n/a	n/a	n/a	n/a
1347.474	n/a	REC_WORD	673737	wordpools/wasnorm_wordpool.txt	LTP070	ltpFR	18	7	-1	VALVE	1546	n/a	n/a	-1	n/a	n/a	n/a	n/a	n/a
1352.96	n/a	WORD	676480	wordpools/wasnorm_wordpool.txt	LTP070	ltpFR	18	8	0	GAZELLE	628	n/a	n/a	1	0.422607421875	0.5869140625	0	upper	zerothre.ttf
1356.796	n/a	WORD	678398	wordpools/wasnorm_wordpool.txt	LTP070	ltpFR	18	8	0	SUPERVISOR	1410	n/a	n/a	1	0.422607421875	0.5869140625	0	upper	zerothre.ttf
1360.942	n/a	WORD	680471	wordpools/wasnorm_wordpool.txt	LTP070	ltpFR	18	8	0	COCOON	339	n/a	n/a	0	0.422607421875	0.5869140625	0	upper	zerothre.ttf
1365.08	n/a	WORD	682540	wordpools/wasnorm_wordpool.txt	LTP070	ltpFR	18	8	0	ENGINE	535	n/a	n/a	1	0.422607421875	0.5869140625	0	upper	zerothre.ttf
1369.216	n/a	WORD	684608	wordpools/wasnorm_wordpool.txt	LTP070	ltpFR	18	8	0	CABOOSE	214	n/a	n/a	1	0.422607421875	0.5869140625	0	upper	zerothre.ttf
1373.37	n/a	WORD	686685	wordpools/wasnorm_wordpool.txt	LTP070	ltpFR	18	8	0	AGENT	10	n/a	n/a	1	0.422607421875	0.5869140625	0	upper	zerothre.ttf
1377.398	n/a	WORD	688699	wordpools/wasnorm_wordpool.txt	LTP070	ltpFR	18	8	0	PAPER	1011	n/a	n/a	0	0.422607421875	0.5869140625	0	upper	zerothre.ttf
1381.344	n/a	WORD	690672	wordpools/wasnorm_wordpool.txt	LTP070	ltpFR	18	8	0	PRINTER	1126	n/a	n/a	1	0.422607421875	0.5869140625	0	upper	zerothre.ttf
1385.554	n/a	WORD	692777	wordpools/wasnorm_wordpool.txt	LTP070	ltpFR	18	8	0	SECRETARY	1265	n/a	n/a	1	0.422607421875	0.5869140625	0	upper	zerothre.ttf
1389.674	n/a	WORD	694837	wordpools/wasnorm_wordpool.txt	LTP070	ltpFR	18	8	0	SQUIRREL	1362	n/a	n/a	0	0.422607421875	0.5869140625	0	upper	zerothre.ttf
1393.72	n/a	WORD	696860	wordpools/wasnorm_wordpool.txt	LTP070	ltpFR	18	8	0	HANDBAG	684	n/a	n/a	0	0.422607421875	0.5869140625	0	upper	zerothre.ttf
1397.706	n/a	WORD	698853	wordpools/wasnorm_wordpool.txt	LTP070	ltpFR	18	8	0	POCKETBOOK	1094	n/a	n/a	0	0.422607421875	0.5869140625	0	upper	zerothre.ttf
1401.686	n/a	WORD	700843	wordpools/wasnorm_wordpool.txt	LTP070	ltpFR	18	8	0	BUTTERFLY	206	n/a	n/a	0	0.422607421875	0.5869140625	0	upper	zerothre.ttf
1405.856	n/a	WORD	702928	wordpools/wasnorm_wordpool.txt	LTP070	ltpFR	18	8	0	MOSQUITO	917	n/a	n/a	0	0.422607421875	0.5869140625	0	upper	zerothre.ttf
1409.91	n/a	WORD	704955	wordpools/wasnorm_wordpool.txt	LTP070	ltpFR	18	8	0	BOOT	150	n/a	n/a	1	0.422607421875	0.5869140625	0	upper	zerothre.ttf
1413.804	n/a	WORD	706902	wordpools/wasnorm_wordpool.txt	LTP070	ltpFR	18	8	0	STOCKING	1383	n/a	n/a	0	0.422607421875	0.5869140625	0	upper	zerothre.ttf
1419.706	n/a	REC_START	709853	n/a	LTP070	ltpFR	18	8	n/a	n/a	n/a	n/a	n/a	n/a	n/a	n/a	n/a	n/a	n/a
1421.358	n/a	REC_WORD	710679	wordpools/wasnorm_wordpool.txt	LTP070	ltpFR	18	8	0	STOCKING	1383	n/a	n/a	0	n/a	n/a	n/a	n/a	n/a
1423.194	n/a	REC_WORD	711597	wordpools/wasnorm_wordpool.txt	LTP070	ltpFR	18	8	0	BOOT	150	n/a	n/a	1	n/a	n/a	n/a	n/a	n/a
1424.656	n/a	REC_WORD	712328	wordpools/wasnorm_wordpool.txt	LTP070	ltpFR	18	8	0	MOSQUITO	917	n/a	n/a	0	n/a	n/a	n/a	n/a	n/a
1426.272	n/a	REC_WORD	713136	wordpools/wasnorm_wordpool.txt	LTP070	ltpFR	18	8	0	BUTTERFLY	206	n/a	n/a	0	n/a	n/a	n/a	n/a	n/a
1427.764	n/a	REC_WORD	713882	wordpools/wasnorm_wordpool.txt	LTP070	ltpFR	18	8	0	COCOON	339	n/a	n/a	0	n/a	n/a	n/a	n/a	n/a
1429.21	n/a	REC_WORD	714605	wordpools/wasnorm_wordpool.txt	LTP070	ltpFR	18	8	0	SUPERVISOR	1410	n/a	n/a	1	n/a	n/a	n/a	n/a	n/a
1430.852	n/a	REC_WORD	715426	wordpools/wasnorm_wordpool.txt	LTP070	ltpFR	18	8	0	AGENT	10	n/a	n/a	1	n/a	n/a	n/a	n/a	n/a
1432.02	n/a	REC_WORD	716010	wordpools/wasnorm_wordpool.txt	LTP070	ltpFR	18	8	0	SECRETARY	1265	n/a	n/a	1	n/a	n/a	n/a	n/a	n/a
1438.844	n/a	REC_WORD	719422	wordpools/wasnorm_wordpool.txt	LTP070	ltpFR	18	8	0	ENGINEER	536	n/a	n/a	1	n/a	n/a	n/a	n/a	n/a
1445.094	n/a	REC_WORD	722547	wordpools/wasnorm_wordpool.txt	LTP070	ltpFR	18	8	0	POCKETBOOK	1094	n/a	n/a	0	n/a	n/a	n/a	n/a	n/a
1446.028	n/a	REC_WORD	723014	wordpools/wasnorm_wordpool.txt	LTP070	ltpFR	18	8	0	HANDBAG	684	n/a	n/a	0	n/a	n/a	n/a	n/a	n/a
1454.648	n/a	REC_WORD	727324	wordpools/wasnorm_wordpool.txt	LTP070	ltpFR	18	8	0	GAZELLE	628	n/a	n/a	1	n/a	n/a	n/a	n/a	n/a
1458.214	n/a	REC_WORD	729107	wordpools/wasnorm_wordpool.txt	LTP070	ltpFR	18	8	0	CABOOSE	214	n/a	n/a	1	n/a	n/a	n/a	n/a	n/a
1465.13	n/a	REC_WORD	732565	wordpools/wasnorm_wordpool.txt	LTP070	ltpFR	18	8	0	COCOON	339	n/a	n/a	0	n/a	n/a	n/a	n/a	n/a
1484.12	n/a	REC_WORD	742060	wordpools/wasnorm_wordpool.txt	LTP070	ltpFR	18	8	0	GAZELLE	628	n/a	n/a	1	n/a	n/a	n/a	n/a	n/a
1484.924	n/a	REC_WORD_VV	742462	wordpools/wasnorm_wordpool.txt	LTP070	ltpFR	18	8	n/a	<>	-1	n/a	n/a	n/a	n/a	n/a	n/a	n/a	n/a
1486.31	n/a	REC_WORD	743155	wordpools/wasnorm_wordpool.txt	LTP070	ltpFR	18	8	0	SUPERVISOR	1410	n/a	n/a	1	n/a	n/a	n/a	n/a	n/a
1492.322	n/a	REC_WORD	746161	wordpools/wasnorm_wordpool.txt	LTP070	ltpFR	18	8	0	COCOON	339	n/a	n/a	0	n/a	n/a	n/a	n/a	n/a
1499.682	n/a	WORD	749841	wordpools/wasnorm_wordpool.txt	LTP070	ltpFR	18	9	0	COTTON	385	n/a	n/a	1	0.422607421875	0.5869140625	0	upper	zerothre.ttf
1503.56	n/a	WORD	751780	wordpools/wasnorm_wordpool.txt	LTP070	ltpFR	18	9	0	VELVET	1555	n/a	n/a	1	0.422607421875	0.5869140625	0	upper	zerothre.ttf
1507.498	n/a	WORD	753749	wordpools/wasnorm_wordpool.txt	LTP070	ltpFR	18	9	0	DELINQUENT	445	n/a	n/a	1	0.422607421875	0.5869140625	0	upper	zerothre.ttf
1511.41	n/a	WORD	755705	wordpools/wasnorm_wordpool.txt	LTP070	ltpFR	18	9	0	TRAY	1498	n/a	n/a	0	0.422607421875	0.5869140625	0	upper	zerothre.ttf
1515.364	n/a	WORD	757682	wordpools/wasnorm_wordpool.txt	LTP070	ltpFR	18	9	0	VINE	1568	n/a	n/a	0	0.422607421875	0.5869140625	0	upper	zerothre.ttf
1519.35	n/a	WORD	759675	wordpools/wasnorm_wordpool.txt	LTP070	ltpFR	18	9	1	SCENERY	1247	n/a	n/a	0	0.57763671875	0.412841796875	1	lower	amplitud.ttf
1523.488	n/a	WORD	761744	wordpools/wasnorm_wordpool.txt	LTP070	ltpFR	18	9	1	CONVICT	371	n/a	n/a	1	0.57763671875	0.412841796875	1	lower	amplitud.ttf
1527.308	n/a	WORD	763654	wordpools/wasnorm_wordpool.txt	LTP070	ltpFR	18	9	1	CAPTIVE	240	n/a	n/a	1	0.57763671875	0.412841796875	1	lower	amplitud.ttf
1531.278	n/a	WORD	765639	wordpools/wasnorm_wordpool.txt	LTP070	ltpFR	18	9	1	PARENT	1013	n/a	n/a	1	0.57763671875	0.412841796875	1	lower	amplitud.ttf
1535.108	n/a	WORD	767554	wordpools/wasnorm_wordpool.txt	LTP070	ltpFR	18	9	1	APPLICATION	34	n/a	n/a	0	0.57763671875	0.412841796875	1	lower	amplitud.ttf
1539.044	n/a	WORD	769522	wordpools/wasnorm_wordpool.txt	LTP070	ltpFR	18	9	0	ROPE	1211	n/a	n/a	1	0.422607421875	0.5869140625	0	upper	zerothre.ttf
1542.998	n/a	WORD	771499	wordpools/wasnorm_wordpool.txt	LTP070	ltpFR	18	9	0	RICE	1190	n/a	n/a	0	0.422607421875	0.5869140625	0	upper	zerothre.ttf
1546.884	n/a	WORD	773442	wordpools/wasnorm_wordpool.txt	LTP070	ltpFR	18	9	0	RESTAURANT	1187	n/a	n/a	1	0.422607421875	0.5869140625	0	upper	zerothre.ttf
1550.83	n/a	WORD	775415	wordpools/wasnorm_wordpool.txt	LTP070	ltpFR	18	9	1	CHURCH	307	n/a	n/a	0	0.57763671875	0.412841796875	1	lower	amplitud.ttf
1554.984	n/a	WORD	777492	wordpools/wasnorm_wordpool.txt	LTP070	ltpFR	18	9	1	ELECTRICIAN	521	n/a	n/a	1	0.57763671875	0.412841796875	1	lower	amplitud.ttf
1558.946	n/a	WORD	779473	wordpools/wasnorm_wordpool.txt	LTP070	ltpFR	18	9	1	CAFETERIA	217	n/a	n/a	1	0.57763671875	0.412841796875	1	lower	amplitud.ttf
1564.898	n/a	REC_START	782449	n/a	LTP070	ltpFR	18	9	n/a	n/a	n/a	n/a	n/a	n/a	n/a	n/a	n/a	n/a	n/a
1565.86	n/a	REC_WORD	782930	wordpools/wasnorm_wordpool.txt	LTP070	ltpFR	18	9	1	CAFETERIA	217	n/a	n/a	1	n/a	n/a	n/a	n/a	n/a
1567.76	n/a	REC_WORD	783880	wordpools/wasnorm_wordpool.txt	LTP070	ltpFR	18	9	1	ELECTRICIAN	521	n/a	n/a	1	n/a	n/a	n/a	n/a	n/a
1569.576	n/a	REC_WORD	784788	wordpools/wasnorm_wordpool.txt	LTP070	ltpFR	18	9	1	CHURCH	307	n/a	n/a	0	n/a	n/a	n/a	n/a	n/a
1575.952	n/a	REC_WORD	787976	wordpools/wasnorm_wordpool.txt	LTP070	ltpFR	18	9	0	GAZELLE	628	n/a	n/a	1	n/a	n/a	n/a	n/a	n/a
1577.584	n/a	REC_WORD	788792	wordpools/wasnorm_wordpool.txt	LTP070	ltpFR	18	9	0	ROPE	1211	n/a	n/a	1	n/a	n/a	n/a	n/a	n/a
1578.876	n/a	REC_WORD	789438	wordpools/wasnorm_wordpool.txt	LTP070	ltpFR	18	9	0	RICE	1190	n/a	n/a	0	n/a	n/a	n/a	n/a	n/a
1581.53	n/a	REC_WORD	790765	wordpools/wasnorm_wordpool.txt	LTP070	ltpFR	18	9	0	CABLE	213	n/a	n/a	0	n/a	n/a	n/a	n/a	n/a
1585.9	n/a	REC_WORD	792950	wordpools/wasnorm_wordpool.txt	LTP070	ltpFR	18	9	n/a	CORD	379	n/a	n/a	n/a	n/a	n/a	n/a	n/a	n/a
1595.264	n/a	REC_WORD	797632	wordpools/wasnorm_wordpool.txt	LTP070	ltpFR	18	9	0	TRAY	1498	n/a	n/a	0	n/a	n/a	n/a	n/a	n/a
1603.586	n/a	REC_WORD	801793	wordpools/wasnorm_wordpool.txt	LTP070	ltpFR	18	9	0	BOXER	160	n/a	n/a	1	n/a	n/a	n/a	n/a	n/a
1620.746	n/a	REC_WORD	810373	wordpools/wasnorm_wordpool.txt	LTP070	ltpFR	18	9	1	BULLETIN	195	n/a	n/a	0	n/a	n/a	n/a	n/a	n/a
1627.048	n/a	REC_WORD	813524	wordpools/wasnorm_wordpool.txt	LTP070	ltpFR	18	9	1	SCENERY	1247	n/a	n/a	0	n/a	n/a	n/a	n/a	n/a
1634.78	n/a	REC_WORD	817390	wordpools/wasnorm_wordpool.txt	LTP070	ltpFR	18	9	0	SQUIRREL	1362	n/a	n/a	0	n/a	n/a	n/a	n/a	n/a
1644.73	n/a	WORD	822365	wordpools/wasnorm_wordpool.txt	LTP070	ltpFR	18	10	0	WIRE	1616	n/a	n/a	0	0.422607421875	0.5869140625	0	upper	zerothre.ttf
1648.558	n/a	WORD	824279	wordpools/wasnorm_wordpool.txt	LTP070	ltpFR	18	10	0	YARD	1630	n/a	n/a	1	0.422607421875	0.5869140625	0	upper	zerothre.ttf
1652.72	n/a	WORD	826360	wordpools/wasnorm_wordpool.txt	LTP070	ltpFR	18	10	0	CAPTAIN	239	n/a	n/a	1	0.422607421875	0.5869140625	0	upper	zerothre.ttf
1656.732	n/a	WORD	828366	wordpools/wasnorm_wordpool.txt	LTP070	ltpFR	18	10	0	NEUTRON	947	n/a	n/a	0	0.422607421875	0.5869140625	0	upper	zerothre.ttf
1660.794	n/a	WORD	830397	wordpools/wasnorm_wordpool.txt	LTP070	ltpFR	18	10	0	ATOM	55	n/a	n/a	0	0.422607421875	0.5869140625	0	upper	zerothre.ttf
1664.898	n/a	WORD	832449	wordpools/wasnorm_wordpool.txt	LTP070	ltpFR	18	10	0	PACKAGE	997	n/a	n/a	1	0.422607421875	0.5869140625	0	upper	zerothre.ttf
1668.72	n/a	WORD	834360	wordpools/wasnorm_wordpool.txt	LTP070	ltpFR	18	10	0	TRENCH	1503	n/a	n/a	1	0.422607421875	0.5869140625	0	upper	zerothre.ttf
1672.714	n/a	WORD	836357	wordpools/wasnorm_wordpool.txt	LTP070	ltpFR	18	10	0	CRATER	400	n/a	n/a	1	0.422607421875	0.5869140625	0	upper	zerothre.ttf
1676.834	n/a	WORD	838417	wordpools/wasnorm_wordpool.txt	LTP070	ltpFR	18	10	0	ANTEATER	26	n/a	n/a	1	0.422607421875	0.5869140625	0	upper	zerothre.ttf
1680.888	n/a	WORD	840444	wordpools/wasnorm_wordpool.txt	LTP070	ltpFR	18	10	0	REPORT	1184	n/a	n/a	0	0.422607421875	0.5869140625	0	upper	zerothre.ttf
1684.992	n/a	WORD	842496	wordpools/wasnorm_wordpool.txt	LTP070	ltpFR	18	10	0	DOCK	477	n/a	n/a	1	0.422607421875	0.5869140625	0	upper	zerothre.ttf
1688.828	n/a	WORD	844414	wordpools/wasnorm_wordpool.txt	LTP070	ltpFR	18	10	0	ALLIGATOR	16	n/a	n/a	1	0.422607421875	0.5869140625	0	upper	zerothre.ttf
1693.034	n/a	WORD	846517	wordpools/wasnorm_wordpool.txt	LTP070	ltpFR	18	10	0	TOTE	1487	n/a	n/a	0	0.422607421875	0.5869140625	0	upper	zerothre.ttf
1697.046	n/a	WORD	848523	wordpools/wasnorm_wordpool.txt	LTP070	ltpFR	18	10	0	SIBLING	1301	n/a	n/a	1	0.422607421875	0.5869140625	0	upper	zerothre.ttf
1700.948	n/a	WORD	850474	wordpools/wasnorm_wordpool.txt	LTP070	ltpFR	18	10	0	GLACIER	638	n/a	n/a	1	0.422607421875	0.5869140625	0	upper	zerothre.ttf
1705.102	n/a	WORD	852551	wordpools/wasnorm_wordpool.txt	LTP070	ltpFR	18	10	0	WELL	1600	n/a	n/a	1	0.422607421875	0.5869140625	0	upper	zerothre.ttf
1711.014	n/a	REC_START	855507	n/a	LTP070	ltpFR	18	10	n/a	n/a	n/a	n/a	n/a	n/a	n/a	n/a	n/a	n/a	n/a
1712.35	n/a	REC_WORD	856175	wordpools/wasnorm_wordpool.txt	LTP070	ltpFR	18	10	0	REPORT	1184	n/a	n/a	0	n/a	n/a	n/a	n/a	n/a
1714.566	n/a	REC_WORD	857283	wordpools/wasnorm_wordpool.txt	LTP070	ltpFR	18	10	0	GLACIER	638	n/a	n/a	1	n/a	n/a	n/a	n/a	n/a
1716.81	n/a	REC_WORD	858405	wordpools/wasnorm_wordpool.txt	LTP070	ltpFR	18	10	0	SIBLING	1301	n/a	n/a	1	n/a	n/a	n/a	n/a	n/a
1724.204	n/a	REC_WORD	862102	wordpools/wasnorm_wordpool.txt	LTP070	ltpFR	18	10	0	GLACIER	638	n/a	n/a	1	n/a	n/a	n/a	n/a	n/a
1739.21	n/a	REC_WORD	869605	wordpools/wasnorm_wordpool.txt	LTP070	ltpFR	18	10	0	ENGINEER	536	n/a	n/a	1	n/a	n/a	n/a	n/a	n/a
1742.498	n/a	REC_WORD	871249	wordpools/wasnorm_wordpool.txt	LTP070	ltpFR	18	10	0	CRATER	400	n/a	n/a	1	n/a	n/a	n/a	n/a	n/a
1754.082	n/a	REC_WORD	877041	wordpools/wasnorm_wordpool.txt	LTP070	ltpFR	18	10	1	PARENT	1013	n/a	n/a	1	n/a	n/a	n/a	n/a	n/a
1759.454	n/a	REC_WORD	879727	wordpools/wasnorm_wordpool.txt	LTP070	ltpFR	18	10	0	SQUIRREL	1362	n/a	n/a	0	n/a	n/a	n/a	n/a	n/a
1772.878	n/a	REC_WORD	886439	wordpools/wasnorm_wordpool.txt	LTP070	ltpFR	18	10	0	WELL	1600	n/a	n/a	1	n/a	n/a	n/a	n/a	n/a
1782.092	n/a	REC_WORD	891046	wordpools/wasnorm_wordpool.txt	LTP070	ltpFR	18	10	n/a	FARM	552	n/a	n/a	n/a	n/a	n/a	n/a	n/a	n/a
1782.946	n/a	REC_WORD	891473	wordpools/wasnorm_wordpool.txt	LTP070	ltpFR	18	10	n/a	RANCH	1166	n/a	n/a	n/a	n/a	n/a	n/a	n/a	n/a
1784.422	n/a	REC_WORD	892211	wordpools/wasnorm_wordpool.txt	LTP070	ltpFR	18	10	1	COW	393	n/a	n/a	1	n/a	n/a	n/a	n/a	n/a
1789.28	n/a	WORD	894640	wordpools/wasnorm_wordpool.txt	LTP070	ltpFR	18	11	-1	FRECKLE	602	n/a	n/a	-1	1.0	1.0	1	upper	Verdana.ttf
1793.434	n/a	WORD	896717	wordpools/wasnorm_wordpool.txt	LTP070	ltpFR	18	11	-1	CHEST	295	n/a	n/a	-1	1.0	1.0	1	upper	Verdana.ttf
1797.546	n/a	WORD	898773	wordpools/wasnorm_wordpool.txt	LTP070	ltpFR	18	11	-1	CONTRACTOR	369	n/a	n/a	-1	1.0	1.0	1	upper	Verdana.ttf
1801.664	n/a	WORD	900832	wordpools/wasnorm_wordpool.txt	LTP070	ltpFR	18	11	-1	LADDER	793	n/a	n/a	-1	1.0	1.0	1	upper	Verdana.ttf
1805.676	n/a	WORD	902838	wordpools/wasnorm_wordpool.txt	LTP070	ltpFR	18	11	-1	HANDCUFFS	685	n/a	n/a	-1	1.0	1.0	1	upper	Verdana.ttf
1809.846	n/a	WORD	904923	wordpools/wasnorm_wordpool.txt	LTP070	ltpFR	18	11	-1	TAR	1435	n/a	n/a	-1	1.0	1.0	1	upper	Verdana.ttf
1814.026	n/a	WORD	907013	wordpools/wasnorm_wordpool.txt	LTP070	ltpFR	18	11	-1	HIGHWAY	707	n/a	n/a	-1	1.0	1.0	1	upper	Verdana.ttf
1817.906	n/a	WORD	908953	wordpools/wasnorm_wordpool.txt	LTP070	ltpFR	18	11	-1	GHOST	634	n/a	n/a	-1	1.0	1.0	1	upper	Verdana.ttf
1822.11	n/a	WORD	911055	wordpools/wasnorm_wordpool.txt	LTP070	ltpFR	18	11	-1	ELEVATOR	524	n/a	n/a	-1	1.0	1.0	1	upper	Verdana.ttf
1825.98	n/a	WORD	912990	wordpools/wasnorm_wordpool.txt	LTP070	ltpFR	18	11	-1	COUNTRY	388	n/a	n/a	-1	1.0	1.0	1	upper	Verdana.ttf
1830.116	n/a	WORD	915058	wordpools/wasnorm_wordpool.txt	LTP070	ltpFR	18	11	-1	TOWN	1491	n/a	n/a	-1	1.0	1.0	1	upper	Verdana.ttf
1834.236	n/a	WORD	917118	wordpools/wasnorm_wordpool.txt	LTP070	ltpFR	18	11	-1	APARTMENT	30	n/a	n/a	-1	1.0	1.0	1	upper	Verdana.ttf
1838.432	n/a	WORD	919216	wordpools/wasnorm_wordpool.txt	LTP070	ltpFR	18	11	-1	PORT	1110	n/a	n/a	-1	1.0	1.0	1	upper	Verdana.ttf
1842.634	n/a	WORD	921317	wordpools/wasnorm_wordpool.txt	LTP070	ltpFR	18	11	-1	SERGEANT	1269	n/a	n/a	-1	1.0	1.0	1	upper	Verdana.ttf
1846.456	n/a	WORD	923228	wordpools/wasnorm_wordpool.txt	LTP070	ltpFR	18	11	-1	TOOL	1480	n/a	n/a	-1	1.0	1.0	1	upper	Verdana.ttf
1850.402	n/a	WORD	925201	wordpools/wasnorm_wordpool.txt	LTP070	ltpFR	18	11	-1	OUTDOORS	987	n/a	n/a	-1	1.0	1.0	1	upper	Verdana.ttf
1856.228	n/a	REC_START	928114	n/a	LTP070	ltpFR	18	11	n/a	n/a	n/a	n/a	n/a	n/a	n/a	n/a	n/a	n/a	n/a
1857.42	n/a	REC_WORD	928710	wordpools/wasnorm_wordpool.txt	LTP070	ltpFR	18	11	-1	OUTDOORS	987	n/a	n/a	-1	n/a	n/a	n/a	n/a	n/a
1859.156	n/a	REC_WORD	929578	wordpools/wasnorm_wordpool.txt	LTP070	ltpFR	18	11	-1	TOOL	1480	n/a	n/a	-1	n/a	n/a	n/a	n/a	n/a
1860.702	n/a	REC_WORD	930351	wordpools/wasnorm_wordpool.txt	LTP070	ltpFR	18	11	-1	SERGEANT	1269	n/a	n/a	-1	n/a	n/a	n/a	n/a	n/a
1865.418	n/a	REC_WORD	932709	wordpools/wasnorm_wordpool.txt	LTP070	ltpFR	18	11	-1	TOWN	1491	n/a	n/a	-1	n/a	n/a	n/a	n/a	n/a
1866.584	n/a	REC_WORD	933292	wordpools/wasnorm_wordpool.txt	LTP070	ltpFR	18	11	-1	COUNTRY	388	n/a	n/a	-1	n/a	n/a	n/a	n/a	n/a
1868.052	n/a	REC_WORD	934026	wordpools/wasnorm_wordpool.txt	LTP070	ltpFR	18	11	-1	APARTMENT	30	n/a	n/a	-1	n/a	n/a	n/a	n/a	n/a
1872.586	n/a	REC_WORD	936293	wordpools/wasnorm_wordpool.txt	LTP070	ltpFR	18	11	-1	OUTDOORS	987	n/a	n/a	-1	n/a	n/a	n/a	n/a	n/a
1874.91	n/a	REC_WORD	937455	wordpools/wasnorm_wordpool.txt	LTP070	ltpFR	18	11	n/a	GARDEN	623	n/a	n/a	n/a	n/a	n/a	n/a	n/a	n/a
1884.698	n/a	REC_WORD	942349	wordpools/wasnorm_wordpool.txt	LTP070	ltpFR	18	11	-1	GARAGE	621	n/a	n/a	-1	n/a	n/a	n/a	n/a	n/a
1902.174	n/a	REC_WORD	951087	wordpools/wasnorm_wordpool.txt	LTP070	ltpFR	18	11	-1	CONTRACTOR	369	n/a	n/a	-1	n/a	n/a	n/a	n/a	n/a
1913.164	n/a	REC_WORD	956582	wordpools/wasnorm_wordpool.txt	LTP070	ltpFR	18	11	0	RUST	1219	n/a	n/a	0	n/a	n/a	n/a	n/a	n/a
1917.88	n/a	REC_WORD	958940	wordpools/wasnorm_wordpool.txt	LTP070	ltpFR	18	11	-1	LADDER	793	n/a	n/a	-1	n/a	n/a	n/a	n/a	n/a
1927.946	n/a	REC_WORD	963973	wordpools/wasnorm_wordpool.txt	LTP070	ltpFR	18	11	0	NUCLEUS	961	n/a	n/a	0	n/a	n/a	n/a	n/a	n/a
1943.236	n/a	WORD	971618	wordpools/wasnorm_wordpool.txt	LTP070	ltpFR	18	12	1	TIE	1466	n/a	n/a	0	0.57763671875	0.412841796875	1	lower	amplitud.ttf
1947.306	n/a	WORD	973653	wordpools/wasnorm_wordpool.txt	LTP070	ltpFR	18	12	1	PITCHFORK	1078	n/a	n/a	0	0.57763671875	0.412841796875	1	lower	amplitud.ttf
1951.468	n/a	WORD	975734	wordpools/wasnorm_wordpool.txt	LTP070	ltpFR	18	12	1	CATTLE	261	n/a	n/a	1	0.57763671875	0.412841796875	1	lower	amplitud.ttf
1955.288	n/a	WORD	977644	wordpools/wasnorm_wordpool.txt	LTP070	ltpFR	18	12	1	SCARF	1246	n/a	n/a	0	0.57763671875	0.412841796875	1	lower	amplitud.ttf
1959.326	n/a	WORD	979663	wordpools/wasnorm_wordpool.txt	LTP070	ltpFR	18	12	1	EAR	513	n/a	n/a	0	0.57763671875	0.412841796875	1	lower	amplitud.ttf
1963.52	n/a	WORD	981760	wordpools/wasnorm_wordpool.txt	LTP070	ltpFR	18	12	1	OPERA	978	n/a	n/a	0	0.57763671875	0.412841796875	1	lower	amplitud.ttf
1967.714	n/a	WORD	983857	wordpools/wasnorm_wordpool.txt	LTP070	ltpFR	18	12	1	SCAPEGOAT	1244	n/a	n/a	0	0.57763671875	0.412841796875	1	lower	amplitud.ttf
1971.76	n/a	WORD	985880	wordpools/wasnorm_wordpool.txt	LTP070	ltpFR	18	12	1	PRODUCER	1129	n/a	n/a	1	0.57763671875	0.412841796875	1	lower	amplitud.ttf
1975.74	n/a	WORD	987870	wordpools/wasnorm_wordpool.txt	LTP070	ltpFR	18	12	1	TERMINAL	1450	n/a	n/a	0	0.57763671875	0.412841796875	1	lower	amplitud.ttf
1979.86	n/a	WORD	989930	wordpools/wasnorm_wordpool.txt	LTP070	ltpFR	18	12	1	SEAL	1262	n/a	n/a	1	0.57763671875	0.412841796875	1	lower	amplitud.ttf
1983.814	n/a	WORD	991907	wordpools/wasnorm_wordpool.txt	LTP070	ltpFR	18	12	1	SCREEN	1253	n/a	n/a	0	0.57763671875	0.412841796875	1	lower	amplitud.ttf
1987.842	n/a	WORD	993921	wordpools/wasnorm_wordpool.txt	LTP070	ltpFR	18	12	1	OYSTER	995	n/a	n/a	1	0.57763671875	0.412841796875	1	lower	amplitud.ttf
1991.978	n/a	WORD	995989	wordpools/wasnorm_wordpool.txt	LTP070	ltpFR	18	12	1	PEARL	1034	n/a	n/a	0	0.57763671875	0.412841796875	1	lower	amplitud.ttf
1996.024	n/a	WORD	998012	wordpools/wasnorm_wordpool.txt	LTP070	ltpFR	18	12	1	BRANCH	168	n/a	n/a	0	0.57763671875	0.412841796875	1	lower	amplitud.ttf
1999.986	n/a	WORD	999993	wordpools/wasnorm_wordpool.txt	LTP070	ltpFR	18	12	1	HEDGE	699	n/a	n/a	0	0.57763671875	0.412841796875	1	lower	amplitud.ttf
2004.124	n/a	WORD	1002062	wordpools/wasnorm_wordpool.txt	LTP070	ltpFR	18	12	1	GLASS	639	n/a	n/a	0	0.57763671875	0.412841796875	1	lower	amplitud.ttf
2009.826	n/a	REC_START	1004913	n/a	LTP070	ltpFR	18	12	n/a	n/a	n/a	n/a	n/a	n/a	n/a	n/a	n/a	n/a	n/a
2010.634	n/a	REC_WORD	1005317	wordpools/wasnorm_wordpool.txt	LTP070	ltpFR	18	12	1	GLASS	639	n/a	n/a	0	n/a	n/a	n/a	n/a	n/a
2011.786	n/a	REC_WORD	1005893	wordpools/wasnorm_wordpool.txt	LTP070	ltpFR	18	12	1	HEDGE	699	n/a	n/a	0	n/a	n/a	n/a	n/a	n/a
2012.998	n/a	REC_WORD	1006499	wordpools/wasnorm_wordpool.txt	LTP070	ltpFR	18	12	1	BRANCH	168	n/a	n/a	0	n/a	n/a	n/a	n/a	n/a
2014.3	n/a	REC_WORD	1007150	wordpools/wasnorm_wordpool.txt	LTP070	ltpFR	18	12	1	OYSTER	995	n/a	n/a	1	n/a	n/a	n/a	n/a	n/a
2026.632	n/a	REC_WORD	1013316	wordpools/wasnorm_wordpool.txt	LTP070	ltpFR	18	12	1	OPERA	978	n/a	n/a	0	n/a	n/a	n/a	n/a	n/a
2027.804	n/a	REC_WORD	1013902	wordpools/wasnorm_wordpool.txt	LTP070	ltpFR	18	12	1	PRODUCER	1129	n/a	n/a	1	n/a	n/a	n/a	n/a	n/a
2030.792	n/a	REC_WORD	1015396	wordpools/wasnorm_wordpool.txt	LTP070	ltpFR	18	12	1	SCAPEGOAT	1244	n/a	n/a	0	n/a	n/a	n/a	n/a	n/a
2058.322	n/a	REC_WORD	1029161	wordpools/wasnorm_wordpool.txt	LTP070	ltpFR	18	12	1	EAR	513	n/a	n/a	0	n/a	n/a	n/a	n/a	n/a
2068.228	n/a	REC_WORD	1034114	wordpools/wasnorm_wordpool.txt	LTP070	ltpFR	18	12	1	CATTLE	261	n/a	n/a	1	n/a	n/a	n/a	n/a	n/a
2079.598	n/a	REC_WORD	1039799	wordpools/wasnorm_wordpool.txt	LTP070	ltpFR	18	12	1	SEAL	1262	n/a	n/a	1	n/a	n/a	n/a	n/a	n/a
2085.43	n/a	REST_REWET	1042715	n/a	LTP070	ltpFR	18	12	n/a	n/a	n/a	n/a	n/a	n/a	n/a	n/a	n/a	n/a	n/a
2537.174	n/a	WORD	1268587	wordpools/wasnorm_wordpool.txt	LTP070	ltpFR	18	13	1	CREAM	402	n/a	n/a	0	0.57763671875	0.412841796875	1	lower	amplitud.ttf
2540.996	n/a	WORD	1270498	wordpools/wasnorm_wordpool.txt	LTP070	ltpFR	18	13	1	SHOULDER	1294	n/a	n/a	0	0.57763671875	0.412841796875	1	lower	amplitud.ttf
2545.166	n/a	WORD	1272583	wordpools/wasnorm_wordpool.txt	LTP070	ltpFR	18	13	0	MARROW	872	n/a	n/a	0	0.422607421875	0.5869140625	0	upper	zerothre.ttf
2549.336	n/a	WORD	1274668	wordpools/wasnorm_wordpool.txt	LTP070	ltpFR	18	13	0	DENTIST	447	n/a	n/a	1	0.422607421875	0.5869140625	0	upper	zerothre.ttf
2553.18	n/a	WORD	1276590	wordpools/wasnorm_wordpool.txt	LTP070	ltpFR	18	13	0	CUSHION	428	n/a	n/a	0	0.422607421875	0.5869140625	0	upper	zerothre.ttf
2557.318	n/a	WORD	1278659	wordpools/wasnorm_wordpool.txt	LTP070	ltpFR	18	13	0	KNIGHT	786	n/a	n/a	1	0.422607421875	0.5869140625	0	upper	zerothre.ttf
2561.412	n/a	WORD	1280706	wordpools/wasnorm_wordpool.txt	LTP070	ltpFR	18	13	0	COMET	353	n/a	n/a	1	0.422607421875	0.5869140625	0	upper	zerothre.ttf
2565.366	n/a	WORD	1282683	wordpools/wasnorm_wordpool.txt	LTP070	ltpFR	18	13	1	COUCH	386	n/a	n/a	0	0.57763671875	0.412841796875	1	lower	amplitud.ttf
2569.312	n/a	WORD	1284656	wordpools/wasnorm_wordpool.txt	LTP070	ltpFR	18	13	1	SUSPECT	1415	n/a	n/a	1	0.57763671875	0.412841796875	1	lower	amplitud.ttf
2573.274	n/a	WORD	1286637	wordpools/wasnorm_wordpool.txt	LTP070	ltpFR	18	13	1	VINEGAR	1569	n/a	n/a	0	0.57763671875	0.412841796875	1	lower	amplitud.ttf
2577.178	n/a	WORD	1288589	wordpools/wasnorm_wordpool.txt	LTP070	ltpFR	18	13	0	IRON	744	n/a	n/a	0	0.422607421875	0.5869140625	0	upper	zerothre.ttf
2581.264	n/a	WORD	1290632	wordpools/wasnorm_wordpool.txt	LTP070	ltpFR	18	13	0	GOLD	647	n/a	n/a	0	0.422607421875	0.5869140625	0	upper	zerothre.ttf
2585.218	n/a	WORD	1292609	wordpools/wasnorm_wordpool.txt	LTP070	ltpFR	18	13	0	HOOK	715	n/a	n/a	0	0.422607421875	0.5869140625	0	upper	zerothre.ttf
2589.088	n/a	WORD	1294544	wordpools/wasnorm_wordpool.txt	LTP070	ltpFR	18	13	1	BAIT	70	n/a	n/a	0	0.57763671875	0.412841796875	1	lower	amplitud.ttf
2593.234	n/a	WORD	1296617	wordpools/wasnorm_wordpool.txt	LTP070	ltpFR	18	13	1	THIEF	1456	n/a	n/a	0	0.57763671875	0.412841796875	1	lower	amplitud.ttf
2597.396	n/a	WORD	1298698	wordpools/wasnorm_wordpool.txt	LTP070	ltpFR	18	13	1	BENCH	121	n/a	n/a	0	0.57763671875	0.412841796875	1	lower	amplitud.ttf
2603.348	n/a	REC_START	1301674	n/a	LTP070	ltpFR	18	13	n/a	n/a	n/a	n/a	n/a	n/a	n/a	n/a	n/a	n/a	n/a
2604.15	n/a	REC_WORD	1302075	wordpools/wasnorm_wordpool.txt	LTP070	ltpFR	18	13	1	BENCH	121	n/a	n/a	0	n/a	n/a	n/a	n/a	n/a
2605.268	n/a	REC_WORD	1302634	wordpools/wasnorm_wordpool.txt	LTP070	ltpFR	18	13	1	THIEF	1456	n/a	n/a	0	n/a	n/a	n/a	n/a	n/a
2606.496	n/a	REC_WORD	1303248	wordpools/wasnorm_wordpool.txt	LTP070	ltpFR	18	13	1	BAIT	70	n/a	n/a	0	n/a	n/a	n/a	n/a	n/a
2607.518	n/a	REC_WORD	1303759	wordpools/wasnorm_wordpool.txt	LTP070	ltpFR	18	13	1	SUSPECT	1415	n/a	n/a	1	n/a	n/a	n/a	n/a	n/a
2640.0	n/a	REC_WORD	1320000	wordpools/wasnorm_wordpool.txt	LTP070	ltpFR	18	13	0	KNIGHT	786	n/a	n/a	1	n/a	n/a	n/a	n/a	n/a
2660.798	n/a	REC_WORD	1330399	wordpools/wasnorm_wordpool.txt	LTP070	ltpFR	18	13	0	IRON	744	n/a	n/a	0	n/a	n/a	n/a	n/a	n/a
2661.616	n/a	REC_WORD	1330808	wordpools/wasnorm_wordpool.txt	LTP070	ltpFR	18	13	0	GOLD	647	n/a	n/a	0	n/a	n/a	n/a	n/a	n/a
2667.438	n/a	REC_WORD	1333719	wordpools/wasnorm_wordpool.txt	LTP070	ltpFR	18	13	1	NITROGEN	954	n/a	n/a	0	n/a	n/a	n/a	n/a	n/a
2680.948	n/a	WORD	1340474	wordpools/wasnorm_wordpool.txt	LTP070	ltpFR	18	14	1	JURY	766	n/a	n/a	0	0.57763671875	0.412841796875	1	lower	amplitud.ttf
2685.12	n/a	WORD	1342560	wordpools/wasnorm_wordpool.txt	LTP070	ltpFR	18	14	1	PATROL	1027	n/a	n/a	0	0.57763671875	0.412841796875	1	lower	amplitud.ttf
2688.964	n/a	WORD	1344482	wordpools/wasnorm_wordpool.txt	LTP070	ltpFR	18	14	1	MARBLE	867	n/a	n/a	0	0.57763671875	0.412841796875	1	lower	amplitud.ttf
2692.826	n/a	WORD	1346413	wordpools/wasnorm_wordpool.txt	LTP070	ltpFR	18	14	1	FLOOR	581	n/a	n/a	0	0.57763671875	0.412841796875	1	lower	amplitud.ttf
2696.864	n/a	WORD	1348432	wordpools/wasnorm_wordpool.txt	LTP070	ltpFR	18	14	1	FRUIT	610	n/a	n/a	1	0.57763671875	0.412841796875	1	lower	amplitud.ttf
2701.068	n/a	WORD	1350534	wordpools/wasnorm_wordpool.txt	LTP070	ltpFR	18	14	1	BURGLAR	200	n/a	n/a	1	0.57763671875	0.412841796875	1	lower	amplitud.ttf
2705.256	n/a	WORD	1352628	wordpools/wasnorm_wordpool.txt	LTP070	ltpFR	18	14	1	TRUCK	1512	n/a	n/a	0	0.57763671875	0.412841796875	1	lower	amplitud.ttf
2709.358	n/a	WORD	1354679	wordpools/wasnorm_wordpool.txt	LTP070	ltpFR	18	14	1	CAB	209	n/a	n/a	0	0.57763671875	0.412841796875	1	lower	amplitud.ttf
2713.388	n/a	WORD	1356694	wordpools/wasnorm_wordpool.txt	LTP070	ltpFR	18	14	1	ICEBERG	731	n/a	n/a	0	0.57763671875	0.412841796875	1	lower	amplitud.ttf
2717.466	n/a	WORD	1358733	wordpools/wasnorm_wordpool.txt	LTP070	ltpFR	18	14	1	GRAPE	654	n/a	n/a	1	0.57763671875	0.412841796875	1	lower	amplitud.ttf
2721.428	n/a	WORD	1360714	wordpools/wasnorm_wordpool.txt	LTP070	ltpFR	18	14	1	ATTORNEY	58	n/a	n/a	1	0.57763671875	0.412841796875	1	lower	amplitud.ttf
2725.464	n/a	WORD	1362732	wordpools/wasnorm_wordpool.txt	LTP070	ltpFR	18	14	1	PUPIL	1143	n/a	n/a	1	0.57763671875	0.412841796875	1	lower	amplitud.ttf
2729.592	n/a	WORD	1364796	wordpools/wasnorm_wordpool.txt	LTP070	ltpFR	18	14	1	SPOON	1357	n/a	n/a	0	0.57763671875	0.412841796875	1	lower	amplitud.ttf
2733.604	n/a	WORD	1366802	wordpools/wasnorm_wordpool.txt	LTP070	ltpFR	18	14	1	VIRUS	1572	n/a	n/a	1	0.57763671875	0.412841796875	1	lower	amplitud.ttf
2737.418	n/a	WORD	1368709	wordpools/wasnorm_wordpool.txt	LTP070	ltpFR	18	14	1	TOOTH	1481	n/a	n/a	0	0.57763671875	0.412841796875	1	lower	amplitud.ttf
2741.438	n/a	WORD	1370719	wordpools/wasnorm_wordpool.txt	LTP070	ltpFR	18	14	1	TOOTHPASTE	1483	n/a	n/a	0	0.57763671875	0.412841796875	1	lower	amplitud.ttf
2747.182	n/a	REC_START	1373591	n/a	LTP070	ltpFR	18	14	n/a	n/a	n/a	n/a	n/a	n/a	n/a	n/a	n/a	n/a	n/a
2748.094	n/a	REC_WORD	1374047	wordpools/wasnorm_wordpool.txt	LTP070	ltpFR	18	14	1	TOOTH	1481	n/a	n/a	0	n/a	n/a	n/a	n/a	n/a
2749.212	n/a	REC_WORD	1374606	wordpools/wasnorm_wordpool.txt	LTP070	ltpFR	18	14	1	TOOTHPASTE	1483	n/a	n/a	0	n/a	n/a	n/a	n/a	n/a
2750.548	n/a	REC_WORD	1375274	wordpools/wasnorm_wordpool.txt	LTP070	ltpFR	18	14	1	TRUCK	1512	n/a	n/a	0	n/a	n/a	n/a	n/a	n/a
2751.72	n/a	REC_WORD	1375860	wordpools/wasnorm_wordpool.txt	LTP070	ltpFR	18	14	1	CAB	209	n/a	n/a	0	n/a	n/a	n/a	n/a	n/a
2755.358	n/a	REC_WORD	1377679	wordpools/wasnorm_wordpool.txt	LTP070	ltpFR	18	14	1	JURY	766	n/a	n/a	0	n/a	n/a	n/a	n/a	n/a
2756.71	n/a	REC_WORD	1378355	wordpools/wasnorm_wordpool.txt	LTP070	ltpFR	18	14	1	PATROL	1027	n/a	n/a	0	n/a	n/a	n/a	n/a	n/a
2788.468	n/a	REC_WORD	1394234	wordpools/wasnorm_wordpool.txt	LTP070	ltpFR	18	14	1	BURGLAR	200	n/a	n/a	1	n/a	n/a	n/a	n/a	n/a
2790.11	n/a	REC_WORD	1395055	wordpools/wasnorm_wordpool.txt	LTP070	ltpFR	18	14	1	THIEF	1456	n/a	n/a	0	n/a	n/a	n/a	n/a	n/a
2792.166	n/a	REC_WORD	1396083	wordpools/wasnorm_wordpool.txt	LTP070	ltpFR	18	14	1	SUSPECT	1415	n/a	n/a	1	n/a	n/a	n/a	n/a	n/a
2796.684	n/a	REC_WORD	1398342	wordpools/wasnorm_wordpool.txt	LTP070	ltpFR	18	14	n/a	POLICE	1098	n/a	n/a	n/a	n/a	n/a	n/a	n/a	n/a
2803.574	n/a	REC_WORD	1401787	wordpools/wasnorm_wordpool.txt	LTP070	ltpFR	18	14	n/a	MARINE	869	n/a	n/a	n/a	n/a	n/a	n/a	n/a	n/a
2825.374	n/a	WORD	1412687	wordpools/wasnorm_wordpool.txt	LTP070	ltpFR	18	15	1	BOOK	149	n/a	n/a	0	0.57763671875	0.412841796875	1	lower	amplitud.ttf
2829.336	n/a	WORD	1414668	wordpools/wasnorm_wordpool.txt	LTP070	ltpFR	18	15	1	FREEWAY	603	n/a	n/a	0	0.57763671875	0.412841796875	1	lower	amplitud.ttf
2833.148	n/a	WORD	1416574	wordpools/wasnorm_wordpool.txt	LTP070	ltpFR	18	15	1	BOX	159	n/a	n/a	0	0.57763671875	0.412841796875	1	lower	amplitud.ttf
2837.086	n/a	WORD	1418543	wordpools/wasnorm_wordpool.txt	LTP070	ltpFR	18	15	1	YOLK	1633	n/a	n/a	0	0.57763671875	0.412841796875	1	lower	amplitud.ttf
2840.964	n/a	WORD	1420482	wordpools/wasnorm_wordpool.txt	LTP070	ltpFR	18	15	1	COACH	331	n/a	n/a	1	0.57763671875	0.412841796875	1	lower	amplitud.ttf
2845.026	n/a	WORD	1422513	wordpools/wasnorm_wordpool.txt	LTP070	ltpFR	18	15	1	DOVE	491	n/a	n/a	1	0.57763671875	0.412841796875	1	lower	amplitud.ttf
2848.846	n/a	WORD	1424423	wordpools/wasnorm_wordpool.txt	LTP070	ltpFR	18	15	0	TWINE	1529	n/a	n/a	0	0.422607421875	0.5869140625	0	upper	zerothre.ttf
2852.816	n/a	WORD	1426408	wordpools/wasnorm_wordpool.txt	LTP070	ltpFR	18	15	0	GREASE	660	n/a	n/a	0	0.422607421875	0.5869140625	0	upper	zerothre.ttf
2856.688	n/a	WORD	1428344	wordpools/wasnorm_wordpool.txt	LTP070	ltpFR	18	15	0	MARSH	874	n/a	n/a	0	0.422607421875	0.5869140625	0	upper	zerothre.ttf
2860.832	n/a	WORD	1430416	wordpools/wasnorm_wordpool.txt	LTP070	ltpFR	18	15	0	RECEPTIONIST	1174	n/a	n/a	1	0.422607421875	0.5869140625	0	upper	zerothre.ttf
2865.004	n/a	WORD	1432502	wordpools/wasnorm_wordpool.txt	LTP070	ltpFR	18	15	1	MANAGER	863	n/a	n/a	1	0.57763671875	0.412841796875	1	lower	amplitud.ttf
2869.19	n/a	WORD	1434595	wordpools/wasnorm_wordpool.txt	LTP070	ltpFR	18	15	1	SALESMAN	1225	n/a	n/a	1	0.57763671875	0.412841796875	1	lower	amplitud.ttf
2873.278	n/a	WORD	1436639	wordpools/wasnorm_wordpool.txt	LTP070	ltpFR	18	15	0	MARS	873	n/a	n/a	1	0.422607421875	0.5869140625	0	upper	zerothre.ttf
2877.222	n/a	WORD	1438611	wordpools/wasnorm_wordpool.txt	LTP070	ltpFR	18	15	0	VENUS	1557	n/a	n/a	1	0.422607421875	0.5869140625	0	upper	zerothre.ttf
2881.402	n/a	WORD	1440701	wordpools/wasnorm_wordpool.txt	LTP070	ltpFR	18	15	0	ARENA	37	n/a	n/a	1	0.422607421875	0.5869140625	0	upper	zerothre.ttf
2885.38	n/a	WORD	1442690	wordpools/wasnorm_wordpool.txt	LTP070	ltpFR	18	15	0	MAILBOX	857	n/a	n/a	1	0.422607421875	0.5869140625	0	upper	zerothre.ttf
2891.266	n/a	REC_START	1445633	n/a	LTP070	ltpFR	18	15	n/a	n/a	n/a	n/a	n/a	n/a	n/a	n/a	n/a	n/a	n/a
2891.988	n/a	REC_WORD	1445994	wordpools/wasnorm_wordpool.txt	LTP070	ltpFR	18	15	0	MAILBOX	857	n/a	n/a	1	n/a	n/a	n/a	n/a	n/a
2893.43	n/a	REC_WORD	1446715	wordpools/wasnorm_wordpool.txt	LTP070	ltpFR	18	15	0	ARENA	37	n/a	n/a	1	n/a	n/a	n/a	n/a	n/a
2895.286	n/a	REC_WORD	1447643	wordpools/wasnorm_wordpool.txt	LTP070	ltpFR	18	15	0	MARS	873	n/a	n/a	1	n/a	n/a	n/a	n/a	n/a
2896.832	n/a	REC_WORD	1448416	wordpools/wasnorm_wordpool.txt	LTP070	ltpFR	18	15	0	VENUS	1557	n/a	n/a	1	n/a	n/a	n/a	n/a	n/a
2907.928	n/a	REC_WORD	1453964	wordpools/wasnorm_wordpool.txt	LTP070	ltpFR	18	15	1	GRAPE	654	n/a	n/a	1	n/a	n/a	n/a	n/a	n/a
2911.504	n/a	REC_WORD	1455752	wordpools/wasnorm_wordpool.txt	LTP070	ltpFR	18	15	1	FRUIT	610	n/a	n/a	1	n/a	n/a	n/a	n/a	n/a
2915.744	n/a	REC_WORD	1457872	wordpools/wasnorm_wordpool.txt	LTP070	ltpFR	18	15	0	ARENA	37	n/a	n/a	1	n/a	n/a	n/a	n/a	n/a
2928.466	n/a	REC_WORD	1464233	wordpools/wasnorm_wordpool.txt	LTP070	ltpFR	18	15	1	FREEWAY	603	n/a	n/a	0	n/a	n/a	n/a	n/a	n/a
2929.974	n/a	REC_WORD	1464987	wordpools/wasnorm_wordpool.txt	LTP070	ltpFR	18	15	0	MARSH	874	n/a	n/a	0	n/a	n/a	n/a	n/a	n/a
2936.714	n/a	REC_WORD	1468357	wordpools/wasnorm_wordpool.txt	LTP070	ltpFR	18	15	1	BOOK	149	n/a	n/a	0	n/a	n/a	n/a	n/a	n/a
2939.95	n/a	REC_WORD	1469975	wordpools/wasnorm_wordpool.txt	LTP070	ltpFR	18	15	0	OX	994	n/a	n/a	1	n/a	n/a	n/a	n/a	n/a
2941.168	n/a	REC_WORD	1470584	wordpools/wasnorm_wordpool.txt	LTP070	ltpFR	18	15	1	YOLK	1633	n/a	n/a	0	n/a	n/a	n/a	n/a	n/a
2943.552	n/a	REC_WORD	1471776	wordpools/wasnorm_wordpool.txt	LTP070	ltpFR	18	15	1	BOX	159	n/a	n/a	0	n/a	n/a	n/a	n/a	n/a
2954.956	n/a	REC_WORD	1477478	wordpools/wasnorm_wordpool.txt	LTP070	ltpFR	18	15	0	RECEPTIONIST	1174	n/a	n/a	1	n/a	n/a	n/a	n/a	n/a
2958.408	n/a	REC_WORD	1479204	wordpools/wasnorm_wordpool.txt	LTP070	ltpFR	18	15	1	MANAGER	863	n/a	n/a	1	n/a	n/a	n/a	n/a	n/a
2969.706	n/a	WORD	1484853	wordpools/wasnorm_wordpool.txt	LTP070	ltpFR	18	16	1	DILL	465	n/a	n/a	0	0.57763671875	0.412841796875	1	lower	amplitud.ttf
2973.884	n/a	WORD	1486942	wordpools/wasnorm_wordpool.txt	LTP070	ltpFR	18	16	1	KEEPER	769	n/a	n/a	1	0.57763671875	0.412841796875	1	lower	amplitud.ttf
2977.772	n/a	WORD	1488886	wordpools/wasnorm_wordpool.txt	LTP070	ltpFR	18	16	1	PUBLICATION	1136	n/a	n/a	0	0.57763671875	0.412841796875	1	lower	amplitud.ttf
2981.758	n/a	WORD	1490879	wordpools/wasnorm_wordpool.txt	LTP070	ltpFR	18	16	1	INN	739	n/a	n/a	0	0.57763671875	0.412841796875	1	lower	amplitud.ttf
2985.83	n/a	WORD	1492915	wordpools/wasnorm_wordpool.txt	LTP070	ltpFR	18	16	1	PIMPLE	1071	n/a	n/a	0	0.57763671875	0.412841796875	1	lower	amplitud.ttf
2989.874	n/a	WORD	1494937	wordpools/wasnorm_wordpool.txt	LTP070	ltpFR	18	16	1	NECK	939	n/a	n/a	0	0.57763671875	0.412841796875	1	lower	amplitud.ttf
2993.828	n/a	WORD	1496914	wordpools/wasnorm_wordpool.txt	LTP070	ltpFR	18	16	1	COWARD	394	n/a	n/a	0	0.57763671875	0.412841796875	1	lower	amplitud.ttf
2997.782	n/a	WORD	1498891	wordpools/wasnorm_wordpool.txt	LTP070	ltpFR	18	16	1	SHEEP	1278	n/a	n/a	1	0.57763671875	0.412841796875	1	lower	amplitud.ttf
3001.61	n/a	WORD	1500805	wordpools/wasnorm_wordpool.txt	LTP070	ltpFR	18	16	1	HOSTESS	723	n/a	n/a	1	0.57763671875	0.412841796875	1	lower	amplitud.ttf
3005.548	n/a	WORD	1502774	wordpools/wasnorm_wordpool.txt	LTP070	ltpFR	18	16	1	HERO	706	n/a	n/a	1	0.57763671875	0.412841796875	1	lower	amplitud.ttf
3009.362	n/a	WORD	1504681	wordpools/wasnorm_wordpool.txt	LTP070	ltpFR	18	16	1	BEVERAGE	123	n/a	n/a	0	0.57763671875	0.412841796875	1	lower	amplitud.ttf
3013.316	n/a	WORD	1506658	wordpools/wasnorm_wordpool.txt	LTP070	ltpFR	18	16	1	DRINK	498	n/a	n/a	0	0.57763671875	0.412841796875	1	lower	amplitud.ttf
3017.52	n/a	WORD	1508760	wordpools/wasnorm_wordpool.txt	LTP070	ltpFR	18	16	1	CARNIVAL	245	n/a	n/a	1	0.57763671875	0.412841796875	1	lower	amplitud.ttf
3021.548	n/a	WORD	1510774	wordpools/wasnorm_wordpool.txt	LTP070	ltpFR	18	16	1	DRAWING	494	n/a	n/a	0	0.57763671875	0.412841796875	1	lower	amplitud.ttf
3025.716	n/a	WORD	1512858	wordpools/wasnorm_wordpool.txt	LTP070	ltpFR	18	16	1	CAMERA	224	n/a	n/a	0	0.57763671875	0.412841796875	1	lower	amplitud.ttf
3029.796	n/a	WORD	1514898	wordpools/wasnorm_wordpool.txt	LTP070	ltpFR	18	16	1	SUIT	1402	n/a	n/a	0	0.57763671875	0.412841796875	1	lower	amplitud.ttf
3035.622	n/a	REC_START	1517811	n/a	LTP070	ltpFR	18	16	n/a	n/a	n/a	n/a	n/a	n/a	n/a	n/a	n/a	n/a	n/a
3036.052	n/a	REC_WORD	1518026	wordpools/wasnorm_wordpool.txt	LTP070	ltpFR	18	16	1	SUIT	1402	n/a	n/a	0	n/a	n/a	n/a	n/a	n/a
3037.308	n/a	REC_WORD	1518654	wordpools/wasnorm_wordpool.txt	LTP070	ltpFR	18	16	1	CAMERA	224	n/a	n/a	0	n/a	n/a	n/a	n/a	n/a
3038.71	n/a	REC_WORD	1519355	wordpools/wasnorm_wordpool.txt	LTP070	ltpFR	18	16	1	BEVERAGE	123	n/a	n/a	0	n/a	n/a	n/a	n/a	n/a
3040.022	n/a	REC_WORD	1520011	wordpools/wasnorm_wordpool.txt	LTP070	ltpFR	18	16	1	DRINK	498	n/a	n/a	0	n/a	n/a	n/a	n/a	n/a
3041.094	n/a	REC_WORD	1520547	wordpools/wasnorm_wordpool.txt	LTP070	ltpFR	18	16	1	CARNIVAL	245	n/a	n/a	1	n/a	n/a	n/a	n/a	n/a
3047.606	n/a	REC_WORD	1523803	wordpools/wasnorm_wordpool.txt	LTP070	ltpFR	18	16	1	INN	739	n/a	n/a	0	n/a	n/a	n/a	n/a	n/a
3048.672	n/a	REC_WORD	1524336	wordpools/wasnorm_wordpool.txt	LTP070	ltpFR	18	16	1	KEEPER	769	n/a	n/a	1	n/a	n/a	n/a	n/a	n/a
3075.84	n/a	REC_WORD	1537920	wordpools/wasnorm_wordpool.txt	LTP070	ltpFR	18	16	n/a	GUEST	669	n/a	n/a	n/a	n/a	n/a	n/a	n/a	n/a
3081.662	n/a	REC_WORD	1540831	wordpools/wasnorm_wordpool.txt	LTP070	ltpFR	18	16	1	MANAGER	863	n/a	n/a	1	n/a	n/a	n/a	n/a	n/a
3087.834	n/a	REC_WORD	1543917	wordpools/wasnorm_wordpool.txt	LTP070	ltpFR	18	16	0	SUPERVISOR	1410	n/a	n/a	1	n/a	n/a	n/a	n/a	n/a
3093.866	n/a	REC_WORD	1546933	wordpools/wasnorm_wordpool.txt	LTP070	ltpFR	18	16	1	NECK	939	n/a	n/a	0	n/a	n/a	n/a	n/a	n/a
3103.574	n/a	REC_WORD	1551787	wordpools/wasnorm_wordpool.txt	LTP070	ltpFR	18	16	1	QUAIL	1147	n/a	n/a	0	n/a	n/a	n/a	n/a	n/a
3132.952	n/a	REC_START	1566476	n/a	LTP070	ltpFR	18	n/a	n/a	n/a	n/a	n/a	n/a	n/a	n/a	n/a	n/a	n/a	n/a
3133.998	n/a	FFR_REC_WORD	1566999	wordpools/wasnorm_wordpool.txt	LTP070	ltpFR	18	n/a	0	COTTON	385	n/a	n/a	1	n/a	n/a	n/a	n/a	n/a
3135.256	n/a	FFR_REC_WORD	1567628	wordpools/wasnorm_wordpool.txt	LTP070	ltpFR	18	n/a	0	VELVET	1555	n/a	n/a	1	n/a	n/a	n/a	n/a	n/a
3136.668	n/a	FFR_REC_WORD	1568334	wordpools/wasnorm_wordpool.txt	LTP070	ltpFR	18	n/a	n/a	OUTLET	-1	n/a	n/a	n/a	n/a	n/a	n/a	n/a	n/a
3138.32	n/a	FFR_REC_WORD	1569160	wordpools/wasnorm_wordpool.txt	LTP070	ltpFR	18	n/a	-1	OUTFIT	988	n/a	n/a	-1	n/a	n/a	n/a	n/a	n/a
3139.86	n/a	FFR_REC_WORD	1569930	wordpools/wasnorm_wordpool.txt	LTP070	ltpFR	18	n/a	0	BOOT	150	n/a	n/a	1	n/a	n/a	n/a	n/a	n/a
3142.524	n/a	FFR_REC_WORD	1571262	wordpools/wasnorm_wordpool.txt	LTP070	ltpFR	18	n/a	0	HANDBAG	684	n/a	n/a	0	n/a	n/a	n/a	n/a	n/a
3147.424	n/a	FFR_REC_WORD	1573712	wordpools/wasnorm_wordpool.txt	LTP070	ltpFR	18	n/a	n/a	PURSE	1145	n/a	n/a	n/a	n/a	n/a	n/a	n/a	n/a
3150.202	n/a	FFR_REC_WORD	1575101	wordpools/wasnorm_wordpool.txt	LTP070	ltpFR	18	n/a	n/a	CLOTHES	327	n/a	n/a	n/a	n/a	n/a	n/a	n/a	n/a
3152.342	n/a	FFR_REC_WORD	1576171	wordpools/wasnorm_wordpool.txt	LTP070	ltpFR	18	n/a	1	JURY	766	n/a	n/a	0	n/a	n/a	n/a	n/a	n/a
3153.56	n/a	FFR_REC_WORD	1576780	wordpools/wasnorm_wordpool.txt	LTP070	ltpFR	18	n/a	1	CONVICT	371	n/a	n/a	1	n/a	n/a	n/a	n/a	n/a
3156.144	n/a	FFR_REC_WORD	1578072	wordpools/wasnorm_wordpool.txt	LTP070	ltpFR	18	n/a	1	SUSPECT	1415	n/a	n/a	1	n/a	n/a	n/a	n/a	n/a
3158.188	n/a	FFR_REC_WORD	1579094	wordpools/wasnorm_wordpool.txt	LTP070	ltpFR	18	n/a	1	BURGLAR	200	n/a	n/a	1	n/a	n/a	n/a	n/a	n/a
3159.212	n/a	FFR_REC_WORD	1579606	wordpools/wasnorm_wordpool.txt	LTP070	ltpFR	18	n/a	1	THIEF	1456	n/a	n/a	0	n/a	n/a	n/a	n/a	n/a
3162.09	n/a	FFR_REC_WORD	1581045	wordpools/wasnorm_wordpool.txt	LTP070	ltpFR	18	n/a	1	NECK	939	n/a	n/a	0	n/a	n/a	n/a	n/a	n/a
3163.068	n/a	FFR_REC_WORD	1581534	wordpools/wasnorm_wordpool.txt	LTP070	ltpFR	18	n/a	1	EAR	513	n/a	n/a	0	n/a	n/a	n/a	n/a	n/a
3165.258	n/a	FFR_REC_WORD	1582629	wordpools/wasnorm_wordpool.txt	LTP070	ltpFR	18	n/a	0	NUCLEUS	961	n/a	n/a	0	n/a	n/a	n/a	n/a	n/a
3166.246	n/a	FFR_REC_WORD	1583123	wordpools/wasnorm_wordpool.txt	LTP070	ltpFR	18	n/a	0	NEUTRON	947	n/a	n/a	0	n/a	n/a	n/a	n/a	n/a
3167.398	n/a	FFR_REC_WORD	1583699	wordpools/wasnorm_wordpool.txt	LTP070	ltpFR	18	n/a	0	ATOM	55	n/a	n/a	0	n/a	n/a	n/a	n/a	n/a
3168.87	n/a	FFR_REC_WORD	1584435	wordpools/wasnorm_wordpool.txt	LTP070	ltpFR	18	n/a	0	MARS	873	n/a	n/a	1	n/a	n/a	n/a	n/a	n/a
3169.718	n/a	FFR_REC_WORD	1584859	wordpools/wasnorm_wordpool.txt	LTP070	ltpFR	18	n/a	0	VENUS	1557	n/a	n/a	1	n/a	n/a	n/a	n/a	n/a
3170.752	n/a	FFR_REC_WORD	1585376	wordpools/wasnorm_wordpool.txt	LTP070	ltpFR	18	n/a	0	CRATER	400	n/a	n/a	1	n/a	n/a	n/a	n/a	n/a
3171.65	n/a	FFR_REC_WORD	1585825	wordpools/wasnorm_wordpool.txt	LTP070	ltpFR	18	n/a	0	COMET	353	n/a	n/a	1	n/a	n/a	n/a	n/a	n/a
3173.69	n/a	FFR_REC_WORD	1586845	wordpools/wasnorm_wordpool.txt	LTP070	ltpFR	18	n/a	0	SEA	1259	n/a	n/a	0	n/a	n/a	n/a	n/a	n/a
3174.738	n/a	FFR_REC_WORD	1587369	wordpools/wasnorm_wordpool.txt	LTP070	ltpFR	18	n/a	1	SEAL	1262	n/a	n/a	1	n/a	n/a	n/a	n/a	n/a
3176.208	n/a	FFR_REC_WORD	1588104	wordpools/wasnorm_wordpool.txt	LTP070	ltpFR	18	n/a	1	OYSTER	995	n/a	n/a	1	n/a	n/a	n/a	n/a	n/a
3179.302	n/a	FFR_REC_WORD	1589651	wordpools/wasnorm_wordpool.txt	LTP070	ltpFR	18	n/a	1	TRUCK	1512	n/a	n/a	0	n/a	n/a	n/a	n/a	n/a
3180.066	n/a	FFR_REC_WORD	1590033	wordpools/wasnorm_wordpool.txt	LTP070	ltpFR	18	n/a	1	CAB	209	n/a	n/a	0	n/a	n/a	n/a	n/a	n/a
3181.238	n/a	FFR_REC_WORD	1590619	wordpools/wasnorm_wordpool.txt	LTP070	ltpFR	18	n/a	1	CATTLE	261	n/a	n/a	1	n/a	n/a	n/a	n/a	n/a
3182.306	n/a	FFR_REC_WORD	1591153	wordpools/wasnorm_wordpool.txt	LTP070	ltpFR	18	n/a	0	OX	994	n/a	n/a	1	n/a	n/a	n/a	n/a	n/a
3182.948	n/a	FFR_REC_WORD	1591474	wordpools/wasnorm_wordpool.txt	LTP070	ltpFR	18	n/a	1	BISON	131	n/a	n/a	1	n/a	n/a	n/a	n/a	n/a
3184.106	n/a	FFR_REC_WORD	1592053	wordpools/wasnorm_wordpool.txt	LTP070	ltpFR	18	n/a	1	BOX	159	n/a	n/a	0	n/a	n/a	n/a	n/a	n/a
3188.65	n/a	FFR_REC_WORD	1594325	wordpools/wasnorm_wordpool.txt	LTP070	ltpFR	18	n/a	0	SQUIRREL	1362	n/a	n/a	0	n/a	n/a	n/a	n/a	n/a
3191.414	n/a	FFR_REC_WORD	1595707	wordpools/wasnorm_wordpool.txt	LTP070	ltpFR	18	n/a	0	GAZELLE	628	n/a	n/a	1	n/a	n/a	n/a	n/a	n/a
3194.952	n/a	FFR_REC_WORD	1597476	wordpools/wasnorm_wordpool.txt	LTP070	ltpFR	18	n/a	1	INSECT	740	n/a	n/a	1	n/a	n/a	n/a	n/a	n/a
3196.128	n/a	FFR_REC_WORD	1598064	wordpools/wasnorm_wordpool.txt	LTP070	ltpFR	18	n/a	0	CATERPILLAR	259	n/a	n/a	0	n/a	n/a	n/a	n/a	n/a
3196.946	n/a	FFR_REC_WORD	1598473	wordpools/wasnorm_wordpool.txt	LTP070	ltpFR	18	n/a	0	BUTTERFLY	206	n/a	n/a	0	n/a	n/a	n/a	n/a	n/a
3197.934	n/a	FFR_REC_WORD	1598967	wordpools/wasnorm_wordpool.txt	LTP070	ltpFR	18	n/a	0	TICK	1463	n/a	n/a	0	n/a	n/a	n/a	n/a	n/a
3199.546	n/a	FFR_REC_WORD	1599773	wordpools/wasnorm_wordpool.txt	LTP070	ltpFR	18	n/a	0	COCOON	339	n/a	n/a	0	n/a	n/a	n/a	n/a	n/a
3201.442	n/a	FFR_REC_WORD	1600721	wordpools/wasnorm_wordpool.txt	LTP070	ltpFR	18	n/a	0	MOSQUITO	917	n/a	n/a	0	n/a	n/a	n/a	n/a	n/a
3204.974	n/a	FFR_REC_WORD	1602487	wordpools/wasnorm_wordpool.txt	LTP070	ltpFR	18	n/a	0	ANT	25	n/a	n/a	0	n/a	n/a	n/a	n/a	n/a
3206.176	n/a	FFR_REC_WORD	1603088	wordpools/wasnorm_wordpool.txt	LTP070	ltpFR	18	n/a	0	ANTEATER	26	n/a	n/a	1	n/a	n/a	n/a	n/a	n/a
3212.366	n/a	FFR_REC_WORD	1606183	wordpools/wasnorm_wordpool.txt	LTP070	ltpFR	18	n/a	1	OYSTER	995	n/a	n/a	1	n/a	n/a	n/a	n/a	n/a
3212.922	n/a	FFR_REC_WORD	1606461	wordpools/wasnorm_wordpool.txt	LTP070	ltpFR	18	n/a	1	PEARL	1034	n/a	n/a	0	n/a	n/a	n/a	n/a	n/a
3216.302	n/a	FFR_REC_WORD	1608151	wordpools/wasnorm_wordpool.txt	LTP070	ltpFR	18	n/a	0	GOLD	647	n/a	n/a	0	n/a	n/a	n/a	n/a	n/a
3217.78	n/a	FFR_REC_WORD	1608890	wordpools/wasnorm_wordpool.txt	LTP070	ltpFR	18	n/a	0	IRON	744	n/a	n/a	0	n/a	n/a	n/a	n/a	n/a
3220.354	n/a	FFR_REC_WORD	1610177	wordpools/wasnorm_wordpool.txt	LTP070	ltpFR	18	n/a	-1	SILVERWARE	1308	n/a	n/a	-1	n/a	n/a	n/a	n/a	n/a
3221.502	n/a	FFR_REC_WORD	1610751	wordpools/wasnorm_wordpool.txt	LTP070	ltpFR	18	n/a	-1	SPATULA	1348	n/a	n/a	-1	n/a	n/a	n/a	n/a	n/a
3226.734	n/a	FFR_REC_WORD	1613367	wordpools/wasnorm_wordpool.txt	LTP070	ltpFR	18	n/a	n/a	CORD	379	n/a	n/a	n/a	n/a	n/a	n/a	n/a	n/a
3228.574	n/a	FFR_REC_WORD	1614287	wordpools/wasnorm_wordpool.txt	LTP070	ltpFR	18	n/a	0	WIRE	1616	n/a	n/a	0	n/a	n/a	n/a	n/a	n/a
3229.926	n/a	FFR_REC_WORD	1614963	wordpools/wasnorm_wordpool.txt	LTP070	ltpFR	18	n/a	0	VINE	1568	n/a	n/a	0	n/a	n/a	n/a	n/a	n/a
3231.388	n/a	FFR_REC_WORD	1615694	wordpools/wasnorm_wordpool.txt	LTP070	ltpFR	18	n/a	0	ROPE	1211	n/a	n/a	1	n/a	n/a	n/a	n/a	n/a
3232.876	n/a	FFR_REC_WORD	1616438	wordpools/wasnorm_wordpool.txt	LTP070	ltpFR	18	n/a	0	RICE	1190	n/a	n/a	0	n/a	n/a	n/a	n/a	n/a
3234.302	n/a	FFR_REC_WORD	1617151	wordpools/wasnorm_wordpool.txt	LTP070	ltpFR	18	n/a	1	FRUIT	610	n/a	n/a	1	n/a	n/a	n/a	n/a	n/a
3235.884	n/a	FFR_REC_WORD	1617942	wordpools/wasnorm_wordpool.txt	LTP070	ltpFR	18	n/a	1	GRAPE	654	n/a	n/a	1	n/a	n/a	n/a	n/a	n/a
3237.674	n/a	FFR_REC_WORD	1618837	wordpools/wasnorm_wordpool.txt	LTP070	ltpFR	18	n/a	1	ZUCCHINI	1638	n/a	n/a	1	n/a	n/a	n/a	n/a	n/a
3243.766	n/a	FFR_REC_WORD	1621883	wordpools/wasnorm_wordpool.txt	LTP070	ltpFR	18	n/a	0	BLOSSOM	138	n/a	n/a	0	n/a	n/a	n/a	n/a	n/a
3244.898	n/a	FFR_REC_WORD	1622449	wordpools/wasnorm_wordpool.txt	LTP070	ltpFR	18	n/a	0	THORN	1459	n/a	n/a	0	n/a	n/a	n/a	n/a	n/a
3245.882	n/a	FFR_REC_WORD	1622941	wordpools/wasnorm_wordpool.txt	LTP070	ltpFR	18	n/a	1	BRANCH	168	n/a	n/a	0	n/a	n/a	n/a	n/a	n/a
3247.048	n/a	FFR_REC_WORD	1623524	wordpools/wasnorm_wordpool.txt	LTP070	ltpFR	18	n/a	1	HEDGE	699	n/a	n/a	0	n/a	n/a	n/a	n/a	n/a
3249.464	n/a	FFR_REC_WORD	1624732	wordpools/wasnorm_wordpool.txt	LTP070	ltpFR	18	n/a	0	YARD	1630	n/a	n/a	1	n/a	n/a	n/a	n/a	n/a
3252.188	n/a	FFR_REC_WORD	1626094	wordpools/wasnorm_wordpool.txt	LTP070	ltpFR	18	n/a	1	FREEWAY	603	n/a	n/a	0	n/a	n/a	n/a	n/a	n/a
3253.126	n/a	FFR_REC_WORD	1626563	wordpools/wasnorm_wordpool.txt	LTP070	ltpFR	18	n/a	0	ARENA	37	n/a	n/a	1	n/a	n/a	n/a	n/a	n/a
3256.278	n/a	FFR_REC_WORD	1628139	wordpools/wasnorm_wordpool.txt	LTP070	ltpFR	18	n/a	1	MANAGER	863	n/a	n/a	1	n/a	n/a	n/a	n/a	n/a
3257.32	n/a	FFR_REC_WORD	1628660	wordpools/wasnorm_wordpool.txt	LTP070	ltpFR	18	n/a	1	BURGLAR	200	n/a	n/a	1	n/a	n/a	n/a	n/a	n/a
3262.678	n/a	FFR_REC_WORD	1631339	wordpools/wasnorm_wordpool.txt	LTP070	ltpFR	18	n/a	0	SUPERVISOR	1410	n/a	n/a	1	n/a	n/a	n/a	n/a	n/a
3264.364	n/a	FFR_REC_WORD	1632182	wordpools/wasnorm_wordpool.txt	LTP070	ltpFR	18	n/a	0	RECEPTIONIST	1174	n/a	n/a	1	n/a	n/a	n/a	n/a	n/a
3266.71	n/a	FFR_REC_WORD	1633355	wordpools/wasnorm_wordpool.txt	LTP070	ltpFR	18	n/a	0	AGENT	10	n/a	n/a	1	n/a	n/a	n/a	n/a	n/a
3269.578	n/a	FFR_REC_WORD	1634789	wordpools/wasnorm_wordpool.txt	LTP070	ltpFR	18	n/a	1	PATROL	1027	n/a	n/a	0	n/a	n/a	n/a	n/a	n/a
3276.492	n/a	FFR_REC_WORD	1638246	wordpools/wasnorm_wordpool.txt	LTP070	ltpFR	18	n/a	1	JURY	766	n/a	n/a	0	n/a	n/a	n/a	n/a	n/a
3278.602	n/a	FFR_REC_WORD	1639301	wordpools/wasnorm_wordpool.txt	LTP070	ltpFR	18	n/a	n/a	MARINE	869	n/a	n/a	n/a	n/a	n/a	n/a	n/a	n/a
3280.732	n/a	FFR_REC_WORD	1640366	wordpools/wasnorm_wordpool.txt	LTP070	ltpFR	18	n/a	0	SEA	1259	n/a	n/a	0	n/a	n/a	n/a	n/a	n/a
3291.966	n/a	FFR_REC_WORD	1645983	wordpools/wasnorm_wordpool.txt	LTP070	ltpFR	18	n/a	n/a	ROUGE	1213	n/a	n/a	n/a	n/a	n/a	n/a	n/a	n/a
3299.53	n/a	FFR_REC_WORD	1649765	wordpools/wasnorm_wordpool.txt	LTP070	ltpFR	18	n/a	n/a	ARCHITECT	36	n/a	n/a	n/a	n/a	n/a	n/a	n/a	n/a
3300.492	n/a	FFR_REC_WORD	1650246	wordpools/wasnorm_wordpool.txt	LTP070	ltpFR	18	n/a	0	ENGINEER	536	n/a	n/a	1	n/a	n/a	n/a	n/a	n/a
3302.454	n/a	FFR_REC_WORD	1651227	wordpools/wasnorm_wordpool.txt	LTP070	ltpFR	18	n/a	0	DIVER	476	n/a	n/a	1	n/a	n/a	n/a	n/a	n/a
3303.362	n/a	FFR_REC_WORD	1651681	wordpools/wasnorm_wordpool.txt	LTP070	ltpFR	18	n/a	1	BUTLER	204	n/a	n/a	1	n/a	n/a	n/a	n/a	n/a
3307.612	n/a	FFR_REC_WORD	1653806	wordpools/wasnorm_wordpool.txt	LTP070	ltpFR	18	n/a	0	DINER	467	n/a	n/a	1	n/a	n/a	n/a	n/a	n/a
3308.764	n/a	FFR_REC_WORD	1654382	wordpools/wasnorm_wordpool.txt	LTP070	ltpFR	18	n/a	0	KITCHEN	778	n/a	n/a	0	n/a	n/a	n/a	n/a	n/a
3316.422	n/a	FFR_REC_WORD	1658211	wordpools/wasnorm_wordpool.txt	LTP070	ltpFR	18	n/a	1	COW	393	n/a	n/a	1	n/a	n/a	n/a	n/a	n/a
3318.542	n/a	FFR_REC_WORD	1659271	wordpools/wasnorm_wordpool.txt	LTP070	ltpFR	18	n/a	1	SHEEP	1278	n/a	n/a	1	n/a	n/a	n/a	n/a	n/a
3324.25	n/a	FFR_REC_WORD	1662125	wordpools/wasnorm_wordpool.txt	LTP070	ltpFR	18	n/a	0	PAW	1029	n/a	n/a	1	n/a	n/a	n/a	n/a	n/a
3331.444	n/a	FFR_REC_WORD	1665722	wordpools/wasnorm_wordpool.txt	LTP070	ltpFR	18	n/a	0	COTTON	385	n/a	n/a	1	n/a	n/a	n/a	n/a	n/a
3332.45	n/a	FFR_REC_WORD	1666225	wordpools/wasnorm_wordpool.txt	LTP070	ltpFR	18	n/a	0	VELVET	1555	n/a	n/a	1	n/a	n/a	n/a	n/a	n/a
3339.226	n/a	FFR_REC_WORD	1669613	wordpools/wasnorm_wordpool.txt	LTP070	ltpFR	18	n/a	1	OPERA	978	n/a	n/a	0	n/a	n/a	n/a	n/a	n/a
3343.372	n/a	FFR_REC_WORD	1671686	wordpools/wasnorm_wordpool.txt	LTP070	ltpFR	18	n/a	1	QUAIL	1147	n/a	n/a	0	n/a	n/a	n/a	n/a	n/a
3348.036	n/a	FFR_REC_WORD	1674018	wordpools/wasnorm_wordpool.txt	LTP070	ltpFR	18	n/a	0	TRAY	1498	n/a	n/a	0	n/a	n/a	n/a	n/a	n/a
3349.198	n/a	FFR_REC_WORD	1674599	wordpools/wasnorm_wordpool.txt	LTP070	ltpFR	18	n/a	0	NOTEBOOK	959	n/a	n/a	1	n/a	n/a	n/a	n/a	n/a
3350.166	n/a	FFR_REC_WORD	1675083	wordpools/wasnorm_wordpool.txt	LTP070	ltpFR	18	n/a	0	JOURNAL	760	n/a	n/a	1	n/a	n/a	n/a	n/a	n/a
3351.254	n/a	FFR_REC_WORD	1675627	wordpools/wasnorm_wordpool.txt	LTP070	ltpFR	18	n/a	0	REPORT	1184	n/a	n/a	0	n/a	n/a	n/a	n/a	n/a
3352.934	n/a	FFR_REC_WORD	1676467	wordpools/wasnorm_wordpool.txt	LTP070	ltpFR	18	n/a	0	STAPLE	1371	n/a	n/a	0	n/a	n/a	n/a	n/a	n/a
3354.086	n/a	FFR_REC_WORD	1677043	wordpools/wasnorm_wordpool.txt	LTP070	ltpFR	18	n/a	0	STAMP	1370	n/a	n/a	0	n/a	n/a	n/a	n/a	n/a
3356.346	n/a	FFR_REC_WORD	1678173	wordpools/wasnorm_wordpool.txt	LTP070	ltpFR	18	n/a	-1	OLIVE	975	n/a	n/a	-1	n/a	n/a	n/a	n/a	n/a
3358.372	n/a	FFR_REC_WORD	1679186	wordpools/wasnorm_wordpool.txt	LTP070	ltpFR	18	n/a	0	TUNA	1518	n/a	n/a	1	n/a	n/a	n/a	n/a	n/a
3359.374	n/a	FFR_REC_WORD	1679687	wordpools/wasnorm_wordpool.txt	LTP070	ltpFR	18	n/a	-1	COD	340	n/a	n/a	-1	n/a	n/a	n/a	n/a	n/a
3364.148	n/a	FFR_REC_WORD	1682074	wordpools/wasnorm_wordpool.txt	LTP070	ltpFR	18	n/a	n/a	WHALE	1601	n/a	n/a	n/a	n/a	n/a	n/a	n/a	n/a
3373.144	n/a	FFR_REC_WORD	1686572	wordpools/wasnorm_wordpool.txt	LTP070	ltpFR	18	n/a	1	BOX	159	n/a	n/a	0	n/a	n/a	n/a	n/a	n/a
3376.58	n/a	FFR_REC_WORD	1688290	wordpools/wasnorm_wordpool.txt	LTP070	ltpFR	18	n/a	0	BOOT	150	n/a	n/a	1	n/a	n/a	n/a	n/a	n/a
3383.67	n/a	FFR_REC_WORD	1691835	wordpools/wasnorm_wordpool.txt	LTP070	ltpFR	18	n/a	1	PATROL	1027	n/a	n/a	0	n/a	n/a	n/a	n/a	n/a
3391.412	n/a	FFR_REC_WORD	1695706	wordpools/wasnorm_wordpool.txt	LTP070	ltpFR	18	n/a	0	PISTON	1076	n/a	n/a	0	n/a	n/a	n/a	n/a	n/a
3392.56	n/a	FFR_REC_WORD	1696280	wordpools/wasnorm_wordpool.txt	LTP070	ltpFR	18	n/a	0	WINDSHIELD	1612	n/a	n/a	1	n/a	n/a	n/a	n/a	n/a
3395.194	n/a	FFR_REC_WORD	1697597	wordpools/wasnorm_wordpool.txt	LTP070	ltpFR	18	n/a	n/a	DASHBOARD	441	n/a	n/a	n/a	n/a	n/a	n/a	n/a	n/a
3396.794	n/a	FFR_REC_WORD	1698397	wordpools/wasnorm_wordpool.txt	LTP070	ltpFR	18	n/a	0	CONSOLE	364	n/a	n/a	1	n/a	n/a	n/a	n/a	n/a
3403.88	n/a	FFR_REC_WORD	1701940	wordpools/wasnorm_wordpool.txt	LTP070	ltpFR	18	n/a	0	DINER	467	n/a	n/a	1	n/a	n/a	n/a	n/a	n/a
3410.63	n/a	FFR_REC_WORD	1705315	wordpools/wasnorm_wordpool.txt	LTP070	ltpFR	18	n/a	1	PRODUCER	1129	n/a	n/a	1	n/a	n/a	n/a	n/a	n/a
3418.286	n/a	FFR_REC_WORD	1709143	wordpools/wasnorm_wordpool.txt	LTP070	ltpFR	18	n/a	n/a	LEMON	810	n/a	n/a	n/a	n/a	n/a	n/a	n/a	n/a
3424.442	n/a	FFR_REC_WORD	1712221	wordpools/wasnorm_wordpool.txt	LTP070	ltpFR	18	n/a	1	ZUCCHINI	1638	n/a	n/a	1	n/a	n/a	n/a	n/a	n/a
3429.746	n/a	FFR_REC_WORD	1714873	wordpools/wasnorm_wordpool.txt	LTP070	ltpFR	18	n/a	1	TRUCK	1512	n/a	n/a	0	n/a	n/a	n/a	n/a	n/a
3430.294	n/a	FFR_REC_WORD	1715147	wordpools/wasnorm_wordpool.txt	LTP070	ltpFR	18	n/a	1	CAB	209	n/a	n/a	0	n/a	n/a	n/a	n/a	n/a
3449.462	n/a	REC_START	1724731	n/a	LTP070	ltpFR	18	1	n/a	n/a	n/a	n/a	n/a	n/a	n/a	n/a	n/a	n/a	n/a
3449.494	n/a	RECOG_TARGET	1724747	n/a	LTP070	ltpFR	18	1	1	VINEGAR	1569	0	1	0	n/a	n/a	n/a	n/a	n/a
3450.964	n/a	RECOG_RESP	1725482	n/a	LTP070	ltpFR	18	1	1	VINEGAR	1569	0	n/a	0	n/a	n/a	n/a	n/a	n/a
3451.782	n/a	RECOG_CONF	1725891	n/a	LTP070	ltpFR	18	1	1	VINEGAR	1569	n/a	1	0	n/a	n/a	n/a	n/a	n/a
3453.29	n/a	RECOG_TARGET	1726645	n/a	LTP070	ltpFR	18	1	1	SEAL	1262	1	5	1	n/a	n/a	n/a	n/a	n/a
3453.978	n/a	RECOG_RESP	1726989	n/a	LTP070	ltpFR	18	1	1	SEAL	1262	1	n/a	1	n/a	n/a	n/a	n/a	n/a
3454.496	n/a	RECOG_CONF	1727248	n/a	LTP070	ltpFR	18	1	1	SEAL	1262	n/a	5	1	n/a	n/a	n/a	n/a	n/a
3455.97	n/a	RECOG_TARGET	1727985	n/a	LTP070	ltpFR	18	1	0	THORN	1459	1	5	0	n/a	n/a	n/a	n/a	n/a
3456.612	n/a	RECOG_RESP	1728306	n/a	LTP070	ltpFR	18	1	0	THORN	1459	1	n/a	0	n/a	n/a	n/a	n/a	n/a
3457.21	n/a	RECOG_CONF	1728605	n/a	LTP070	ltpFR	18	1	0	THORN	1459	n/a	5	0	n/a	n/a	n/a	n/a	n/a
3458.658	n/a	RECOG_TARGET	1729329	n/a	LTP070	ltpFR	18	1	0	WAITRESS	1581	1	5	1	n/a	n/a	n/a	n/a	n/a
3459.176	n/a	RECOG_RESP	1729588	n/a	LTP070	ltpFR	18	1	0	WAITRESS	1581	1	n/a	1	n/a	n/a	n/a	n/a	n/a
3459.784	n/a	RECOG_CONF	1729892	n/a	LTP070	ltpFR	18	1	0	WAITRESS	1581	n/a	5	1	n/a	n/a	n/a	n/a	n/a
3461.248	n/a	RECOG_LURE	1730624	n/a	LTP070	ltpFR	18	1	n/a	LION	827	0	5	n/a	n/a	n/a	n/a	n/a	n/a
3461.958	n/a	RECOG_RESP	1730979	n/a	LTP070	ltpFR	18	1	n/a	LION	827	0	n/a	n/a	n/a	n/a	n/a	n/a	n/a
3462.548	n/a	RECOG_CONF	1731274	n/a	LTP070	ltpFR	18	1	n/a	LION	827	n/a	5	n/a	n/a	n/a	n/a	n/a	n/a
3463.902	n/a	RECOG_TARGET	1731951	n/a	LTP070	ltpFR	18	1	1	BURGLAR	200	1	5	1	n/a	n/a	n/a	n/a	n/a
3464.538	n/a	RECOG_RESP	1732269	n/a	LTP070	ltpFR	18	1	1	BURGLAR	200	1	n/a	1	n/a	n/a	n/a	n/a	n/a
3465.092	n/a	RECOG_CONF	1732546	n/a	LTP070	ltpFR	18	1	1	BURGLAR	200	n/a	5	1	n/a	n/a	n/a	n/a	n/a
3466.466	n/a	RECOG_TARGET	1733233	n/a	LTP070	ltpFR	18	1	-1	BLUEPRINT	142	1	5	-1	n/a	n/a	n/a	n/a	n/a
3467.098	n/a	RECOG_RESP	1733549	n/a	LTP070	ltpFR	18	1	-1	BLUEPRINT	142	1	n/a	-1	n/a	n/a	n/a	n/a	n/a
3467.696	n/a	RECOG_CONF	1733848	n/a	LTP070	ltpFR	18	1	-1	BLUEPRINT	142	n/a	5	-1	n/a	n/a	n/a	n/a	n/a
3469.022	n/a	RECOG_TARGET	1734511	n/a	LTP070	ltpFR	18	1	0	TUNA	1518	1	5	1	n/a	n/a	n/a	n/a	n/a
3469.566	n/a	RECOG_RESP	1734783	n/a	LTP070	ltpFR	18	1	0	TUNA	1518	1	n/a	1	n/a	n/a	n/a	n/a	n/a
3470.13	n/a	RECOG_CONF	1735065	n/a	LTP070	ltpFR	18	1	0	TUNA	1518	n/a	5	1	n/a	n/a	n/a	n/a	n/a
3471.502	n/a	RECOG_TARGET	1735751	n/a	LTP070	ltpFR	18	1	1	BAIT	70	1	5	0	n/a	n/a	n/a	n/a	n/a
3471.966	n/a	RECOG_RESP	1735983	n/a	LTP070	ltpFR	18	1	1	BAIT	70	1	n/a	0	n/a	n/a	n/a	n/a	n/a
3473.386	n/a	RECOG_CONF	1736693	n/a	LTP070	ltpFR	18	1	1	BAIT	70	n/a	5	0	n/a	n/a	n/a	n/a	n/a
3474.872	n/a	RECOG_TARGET	1737436	n/a	LTP070	ltpFR	18	1	1	ICEBERG	731	1	5	0	n/a	n/a	n/a	n/a	n/a
3475.488	n/a	RECOG_RESP	1737744	n/a	LTP070	ltpFR	18	1	1	ICEBERG	731	1	n/a	0	n/a	n/a	n/a	n/a	n/a
3476.096	n/a	RECOG_CONF	1738048	n/a	LTP070	ltpFR	18	1	1	ICEBERG	731	n/a	5	0	n/a	n/a	n/a	n/a	n/a
3477.504	n/a	RECOG_TARGET	1738752	n/a	LTP070	ltpFR	18	1	-1	OUTDOORS	987	1	5	-1	n/a	n/a	n/a	n/a	n/a
3478.152	n/a	RECOG_RESP	1739076	n/a	LTP070	ltpFR	18	1	-1	OUTDOORS	987	1	n/a	-1	n/a	n/a	n/a	n/a	n/a
3478.73	n/a	RECOG_CONF	1739365	n/a	LTP070	ltpFR	18	1	-1	OUTDOORS	987	n/a	5	-1	n/a	n/a	n/a	n/a	n/a
3480.058	n/a	RECOG_TARGET	1740029	n/a	LTP070	ltpFR	18	1	1	VIRUS	1572	1	5	1	n/a	n/a	n/a	n/a	n/a
3480.692	n/a	RECOG_RESP	1740346	n/a	LTP070	ltpFR	18	1	1	VIRUS	1572	1	n/a	1	n/a	n/a	n/a	n/a	n/a
3481.276	n/a	RECOG_CONF	1740638	n/a	LTP070	ltpFR	18	1	1	VIRUS	1572	n/a	5	1	n/a	n/a	n/a	n/a	n/a
3482.656	n/a	RECOG_TARGET	1741328	n/a	LTP070	ltpFR	18	1	0	ANTEATER	26	1	5	1	n/a	n/a	n/a	n/a	n/a
3483.172	n/a	RECOG_RESP	1741586	n/a	LTP070	ltpFR	18	1	0	ANTEATER	26	1	n/a	1	n/a	n/a	n/a	n/a	n/a
3483.77	n/a	RECOG_CONF	1741885	n/a	LTP070	ltpFR	18	1	0	ANTEATER	26	n/a	5	1	n/a	n/a	n/a	n/a	n/a
3485.178	n/a	RECOG_TARGET	1742589	n/a	LTP070	ltpFR	18	1	1	TOOTHPASTE	1483	1	5	0	n/a	n/a	n/a	n/a	n/a
3485.69	n/a	RECOG_RESP	1742845	n/a	LTP070	ltpFR	18	1	1	TOOTHPASTE	1483	1	n/a	0	n/a	n/a	n/a	n/a	n/a
3486.284	n/a	RECOG_CONF	1743142	n/a	LTP070	ltpFR	18	1	1	TOOTHPASTE	1483	n/a	5	0	n/a	n/a	n/a	n/a	n/a
3487.634	n/a	RECOG_TARGET	1743817	n/a	LTP070	ltpFR	18	1	1	REEF	1177	1	5	1	n/a	n/a	n/a	n/a	n/a
3488.17	n/a	RECOG_RESP	1744085	n/a	LTP070	ltpFR	18	1	1	REEF	1177	1	n/a	1	n/a	n/a	n/a	n/a	n/a
3488.76	n/a	RECOG_CONF	1744380	n/a	LTP070	ltpFR	18	1	1	REEF	1177	n/a	5	1	n/a	n/a	n/a	n/a	n/a
3490.09	n/a	RECOG_TARGET	1745045	n/a	LTP070	ltpFR	18	1	0	COCOON	339	1	5	0	n/a	n/a	n/a	n/a	n/a
3490.584	n/a	RECOG_RESP	1745292	n/a	LTP070	ltpFR	18	1	0	COCOON	339	1	n/a	0	n/a	n/a	n/a	n/a	n/a
3491.194	n/a	RECOG_CONF	1745597	n/a	LTP070	ltpFR	18	1	0	COCOON	339	n/a	5	0	n/a	n/a	n/a	n/a	n/a
3492.586	n/a	RECOG_TARGET	1746293	n/a	LTP070	ltpFR	18	1	0	SECRETARY	1265	1	5	1	n/a	n/a	n/a	n/a	n/a
3493.124	n/a	RECOG_RESP	1746562	n/a	LTP070	ltpFR	18	1	0	SECRETARY	1265	1	n/a	1	n/a	n/a	n/a	n/a	n/a
3493.738	n/a	RECOG_CONF	1746869	n/a	LTP070	ltpFR	18	1	0	SECRETARY	1265	n/a	5	1	n/a	n/a	n/a	n/a	n/a
3495.068	n/a	RECOG_TARGET	1747534	n/a	LTP070	ltpFR	18	1	1	NECK	939	1	5	0	n/a	n/a	n/a	n/a	n/a
3495.718	n/a	RECOG_RESP	1747859	n/a	LTP070	ltpFR	18	1	1	NECK	939	1	n/a	0	n/a	n/a	n/a	n/a	n/a
3496.362	n/a	RECOG_CONF	1748181	n/a	LTP070	ltpFR	18	1	1	NECK	939	n/a	5	0	n/a	n/a	n/a	n/a	n/a
3497.704	n/a	RECOG_LURE	1748852	n/a	LTP070	ltpFR	18	1	n/a	BARK	87	0	5	n/a	n/a	n/a	n/a	n/a	n/a
3498.388	n/a	RECOG_RESP	1749194	n/a	LTP070	ltpFR	18	1	n/a	BARK	87	0	n/a	n/a	n/a	n/a	n/a	n/a	n/a
3498.986	n/a	RECOG_CONF	1749493	n/a	LTP070	ltpFR	18	1	n/a	BARK	87	n/a	5	n/a	n/a	n/a	n/a	n/a	n/a
3500.312	n/a	RECOG_TARGET	1750156	n/a	LTP070	ltpFR	18	1	-1	COD	340	1	5	-1	n/a	n/a	n/a	n/a	n/a
3500.892	n/a	RECOG_RESP	1750446	n/a	LTP070	ltpFR	18	1	-1	COD	340	1	n/a	-1	n/a	n/a	n/a	n/a	n/a
3501.42	n/a	RECOG_CONF	1750710	n/a	LTP070	ltpFR	18	1	-1	COD	340	n/a	5	-1	n/a	n/a	n/a	n/a	n/a
3504.562	n/a	REC_START	1752281	n/a	LTP070	ltpFR	18	2	n/a	n/a	n/a	n/a	n/a	n/a	n/a	n/a	n/a	n/a	n/a
3504.588	n/a	RECOG_TARGET	1752294	n/a	LTP070	ltpFR	18	2	1	HOSTESS	723	1	3	1	n/a	n/a	n/a	n/a	n/a
3505.016	n/a	RECOG_RESP	1752508	n/a	LTP070	ltpFR	18	2	1	HOSTESS	723	1	n/a	1	n/a	n/a	n/a	n/a	n/a
3505.594	n/a	RECOG_CONF	1752797	n/a	LTP070	ltpFR	18	2	1	HOSTESS	723	n/a	3	1	n/a	n/a	n/a	n/a	n/a
3507.012	n/a	RECOG_TARGET	1753506	n/a	LTP070	ltpFR	18	2	-1	CHEERLEADER	288	1	3	-1	n/a	n/a	n/a	n/a	n/a
3507.55	n/a	RECOG_RESP	1753775	n/a	LTP070	ltpFR	18	2	-1	CHEERLEADER	288	1	n/a	-1	n/a	n/a	n/a	n/a	n/a
3508.13	n/a	RECOG_CONF	1754065	n/a	LTP070	ltpFR	18	2	-1	CHEERLEADER	288	n/a	3	-1	n/a	n/a	n/a	n/a	n/a
3509.442	n/a	RECOG_LURE	1754721	n/a	LTP070	ltpFR	18	2	n/a	COUSIN	392	0	5	n/a	n/a	n/a	n/a	n/a	n/a
3510.34	n/a	RECOG_RESP	1755170	n/a	LTP070	ltpFR	18	2	n/a	COUSIN	392	0	n/a	n/a	n/a	n/a	n/a	n/a	n/a
3511.012	n/a	RECOG_CONF	1755506	n/a	LTP070	ltpFR	18	2	n/a	COUSIN	392	n/a	5	n/a	n/a	n/a	n/a	n/a	n/a
3512.322	n/a	RECOG_TARGET	1756161	n/a	LTP070	ltpFR	18	2	0	PENCIL	1042	1	5	0	n/a	n/a	n/a	n/a	n/a
3512.878	n/a	RECOG_RESP	1756439	n/a	LTP070	ltpFR	18	2	0	PENCIL	1042	1	n/a	0	n/a	n/a	n/a	n/a	n/a
3513.468	n/a	RECOG_CONF	1756734	n/a	LTP070	ltpFR	18	2	0	PENCIL	1042	n/a	5	0	n/a	n/a	n/a	n/a	n/a
3514.884	n/a	RECOG_TARGET	1757442	n/a	LTP070	ltpFR	18	2	0	HIP	710	1	5	1	n/a	n/a	n/a	n/a	n/a
3515.382	n/a	RECOG_RESP	1757691	n/a	LTP070	ltpFR	18	2	0	HIP	710	1	n/a	1	n/a	n/a	n/a	n/a	n/a
3515.982	n/a	RECOG_CONF	1757991	n/a	LTP070	ltpFR	18	2	0	HIP	710	n/a	5	1	n/a	n/a	n/a	n/a	n/a
3517.432	n/a	RECOG_LURE	1758716	n/a	LTP070	ltpFR	18	2	n/a	LOG	841	0	1	n/a	n/a	n/a	n/a	n/a	n/a
3518.176	n/a	RECOG_RESP	1759088	n/a	LTP070	ltpFR	18	2	n/a	LOG	841	0	n/a	n/a	n/a	n/a	n/a	n/a	n/a
3518.844	n/a	RECOG_CONF	1759422	n/a	LTP070	ltpFR	18	2	n/a	LOG	841	n/a	1	n/a	n/a	n/a	n/a	n/a	n/a
3520.254	n/a	RECOG_TARGET	1760127	n/a	LTP070	ltpFR	18	2	0	CABOOSE	214	1	5	1	n/a	n/a	n/a	n/a	n/a
3521.488	n/a	RECOG_RESP	1760744	n/a	LTP070	ltpFR	18	2	0	CABOOSE	214	1	n/a	1	n/a	n/a	n/a	n/a	n/a
3522.088	n/a	RECOG_CONF	1761044	n/a	LTP070	ltpFR	18	2	0	CABOOSE	214	n/a	5	1	n/a	n/a	n/a	n/a	n/a
3523.458	n/a	RECOG_TARGET	1761729	n/a	LTP070	ltpFR	18	2	1	EAR	513	1	5	0	n/a	n/a	n/a	n/a	n/a
3524.034	n/a	RECOG_RESP	1762017	n/a	LTP070	ltpFR	18	2	1	EAR	513	1	n/a	0	n/a	n/a	n/a	n/a	n/a
3524.622	n/a	RECOG_CONF	1762311	n/a	LTP070	ltpFR	18	2	1	EAR	513	n/a	5	0	n/a	n/a	n/a	n/a	n/a
3525.972	n/a	RECOG_TARGET	1762986	n/a	LTP070	ltpFR	18	2	0	WIRE	1616	1	5	0	n/a	n/a	n/a	n/a	n/a
3526.508	n/a	RECOG_RESP	1763254	n/a	LTP070	ltpFR	18	2	0	WIRE	1616	1	n/a	0	n/a	n/a	n/a	n/a	n/a
3527.046	n/a	RECOG_CONF	1763523	n/a	LTP070	ltpFR	18	2	0	WIRE	1616	n/a	5	0	n/a	n/a	n/a	n/a	n/a
3528.536	n/a	RECOG_TARGET	1764268	n/a	LTP070	ltpFR	18	2	-1	FIG	563	0	1	-1	n/a	n/a	n/a	n/a	n/a
3529.302	n/a	RECOG_RESP	1764651	n/a	LTP070	ltpFR	18	2	-1	FIG	563	0	n/a	-1	n/a	n/a	n/a	n/a	n/a
3529.86	n/a	RECOG_CONF	1764930	n/a	LTP070	ltpFR	18	2	-1	FIG	563	n/a	1	-1	n/a	n/a	n/a	n/a	n/a
3531.292	n/a	RECOG_TARGET	1765646	n/a	LTP070	ltpFR	18	2	1	VEST	1559	1	5	0	n/a	n/a	n/a	n/a	n/a
3531.86	n/a	RECOG_RESP	1765930	n/a	LTP070	ltpFR	18	2	1	VEST	1559	1	n/a	0	n/a	n/a	n/a	n/a	n/a
3532.464	n/a	RECOG_CONF	1766232	n/a	LTP070	ltpFR	18	2	1	VEST	1559	n/a	5	0	n/a	n/a	n/a	n/a	n/a
3533.804	n/a	RECOG_TARGET	1766902	n/a	LTP070	ltpFR	18	2	0	DIPLOMA	470	1	5	1	n/a	n/a	n/a	n/a	n/a
3534.708	n/a	RECOG_RESP	1767354	n/a	LTP070	ltpFR	18	2	0	DIPLOMA	470	1	n/a	1	n/a	n/a	n/a	n/a	n/a
3535.318	n/a	RECOG_CONF	1767659	n/a	LTP070	ltpFR	18	2	0	DIPLOMA	470	n/a	5	1	n/a	n/a	n/a	n/a	n/a
3536.71	n/a	RECOG_TARGET	1768355	n/a	LTP070	ltpFR	18	2	0	WINDSHIELD	1612	1	5	1	n/a	n/a	n/a	n/a	n/a
3537.442	n/a	RECOG_RESP	1768721	n/a	LTP070	ltpFR	18	2	0	WINDSHIELD	1612	1	n/a	1	n/a	n/a	n/a	n/a	n/a
3538.022	n/a	RECOG_CONF	1769011	n/a	LTP070	ltpFR	18	2	0	WINDSHIELD	1612	n/a	5	1	n/a	n/a	n/a	n/a	n/a
3539.556	n/a	RECOG_TARGET	1769778	n/a	LTP070	ltpFR	18	2	0	TICK	1463	1	5	0	n/a	n/a	n/a	n/a	n/a
3540.056	n/a	RECOG_RESP	1770028	n/a	LTP070	ltpFR	18	2	0	TICK	1463	1	n/a	0	n/a	n/a	n/a	n/a	n/a
3540.586	n/a	RECOG_CONF	1770293	n/a	LTP070	ltpFR	18	2	0	TICK	1463	n/a	5	0	n/a	n/a	n/a	n/a	n/a
3541.986	n/a	RECOG_TARGET	1770993	n/a	LTP070	ltpFR	18	2	-1	TOWN	1491	1	5	-1	n/a	n/a	n/a	n/a	n/a
3542.59	n/a	RECOG_RESP	1771295	n/a	LTP070	ltpFR	18	2	-1	TOWN	1491	1	n/a	-1	n/a	n/a	n/a	n/a	n/a
3543.18	n/a	RECOG_CONF	1771590	n/a	LTP070	ltpFR	18	2	-1	TOWN	1491	n/a	5	-1	n/a	n/a	n/a	n/a	n/a
3544.502	n/a	RECOG_TARGET	1772251	n/a	LTP070	ltpFR	18	2	1	CAMERA	224	1	5	0	n/a	n/a	n/a	n/a	n/a
3545.016	n/a	RECOG_RESP	1772508	n/a	LTP070	ltpFR	18	2	1	CAMERA	224	1	n/a	0	n/a	n/a	n/a	n/a	n/a
3545.614	n/a	RECOG_CONF	1772807	n/a	LTP070	ltpFR	18	2	1	CAMERA	224	n/a	5	0	n/a	n/a	n/a	n/a	n/a
3546.906	n/a	RECOG_TARGET	1773453	n/a	LTP070	ltpFR	18	2	0	NEUTRON	947	1	5	0	n/a	n/a	n/a	n/a	n/a
3547.444	n/a	RECOG_RESP	1773722	n/a	LTP070	ltpFR	18	2	0	NEUTRON	947	1	n/a	0	n/a	n/a	n/a	n/a	n/a
3548.018	n/a	RECOG_CONF	1774009	n/a	LTP070	ltpFR	18	2	0	NEUTRON	947	n/a	5	0	n/a	n/a	n/a	n/a	n/a
3549.346	n/a	RECOG_LURE	1774673	n/a	LTP070	ltpFR	18	2	n/a	FINGER	567	0	3	n/a	n/a	n/a	n/a	n/a	n/a
3550.454	n/a	RECOG_RESP	1775227	n/a	LTP070	ltpFR	18	2	n/a	FINGER	567	0	n/a	n/a	n/a	n/a	n/a	n/a	n/a
3551.012	n/a	RECOG_CONF	1775506	n/a	LTP070	ltpFR	18	2	n/a	FINGER	567	n/a	3	n/a	n/a	n/a	n/a	n/a	n/a
3552.342	n/a	RECOG_TARGET	1776171	n/a	LTP070	ltpFR	18	2	1	MOUSE	925	0	1	1	n/a	n/a	n/a	n/a	n/a
3553.146	n/a	RECOG_RESP	1776573	n/a	LTP070	ltpFR	18	2	1	MOUSE	925	0	n/a	1	n/a	n/a	n/a	n/a	n/a
3553.726	n/a	RECOG_CONF	1776863	n/a	LTP070	ltpFR	18	2	1	MOUSE	925	n/a	1	1	n/a	n/a	n/a	n/a	n/a
3555.038	n/a	RECOG_LURE	1777519	n/a	LTP070	ltpFR	18	2	n/a	TWISTER	1530	0	5	n/a	n/a	n/a	n/a	n/a	n/a
3555.846	n/a	RECOG_RESP	1777923	n/a	LTP070	ltpFR	18	2	n/a	TWISTER	1530	0	n/a	n/a	n/a	n/a	n/a	n/a	n/a
3556.4	n/a	RECOG_CONF	1778200	n/a	LTP070	ltpFR	18	2	n/a	TWISTER	1530	n/a	5	n/a	n/a	n/a	n/a	n/a	n/a
3559.38	n/a	REC_START	1779690	n/a	LTP070	ltpFR	18	3	n/a	n/a	n/a	n/a	n/a	n/a	n/a	n/a	n/a	n/a	n/a
3559.408	n/a	RECOG_LURE	1779704	n/a	LTP070	ltpFR	18	3	n/a	ELBOW	520	0	1	n/a	n/a	n/a	n/a	n/a	n/a
3560.262	n/a	RECOG_RESP	1780131	n/a	LTP070	ltpFR	18	3	n/a	ELBOW	520	0	n/a	n/a	n/a	n/a	n/a	n/a	n/a
3560.84	n/a	RECOG_CONF	1780420	n/a	LTP070	ltpFR	18	3	n/a	ELBOW	520	n/a	1	n/a	n/a	n/a	n/a	n/a	n/a
3562.206	n/a	RECOG_TARGET	1781103	n/a	LTP070	ltpFR	18	3	0	GOLD	647	1	5	0	n/a	n/a	n/a	n/a	n/a
3563.022	n/a	RECOG_RESP	1781511	n/a	LTP070	ltpFR	18	3	0	GOLD	647	1	n/a	0	n/a	n/a	n/a	n/a	n/a
3563.556	n/a	RECOG_CONF	1781778	n/a	LTP070	ltpFR	18	3	0	GOLD	647	n/a	5	0	n/a	n/a	n/a	n/a	n/a
3564.894	n/a	RECOG_TARGET	1782447	n/a	LTP070	ltpFR	18	3	-1	HIGHWAY	707	1	5	-1	n/a	n/a	n/a	n/a	n/a
3565.442	n/a	RECOG_RESP	1782721	n/a	LTP070	ltpFR	18	3	-1	HIGHWAY	707	1	n/a	-1	n/a	n/a	n/a	n/a	n/a
3566.02	n/a	RECOG_CONF	1783010	n/a	LTP070	ltpFR	18	3	-1	HIGHWAY	707	n/a	5	-1	n/a	n/a	n/a	n/a	n/a
3567.434	n/a	RECOG_TARGET	1783717	n/a	LTP070	ltpFR	18	3	1	SHEEP	1278	1	5	1	n/a	n/a	n/a	n/a	n/a
3567.946	n/a	RECOG_RESP	1783973	n/a	LTP070	ltpFR	18	3	1	SHEEP	1278	1	n/a	1	n/a	n/a	n/a	n/a	n/a
3568.524	n/a	RECOG_CONF	1784262	n/a	LTP070	ltpFR	18	3	1	SHEEP	1278	n/a	5	1	n/a	n/a	n/a	n/a	n/a
3569.872	n/a	RECOG_TARGET	1784936	n/a	LTP070	ltpFR	18	3	1	BANDANNA	80	1	5	0	n/a	n/a	n/a	n/a	n/a
3570.396	n/a	RECOG_RESP	1785198	n/a	LTP070	ltpFR	18	3	1	BANDANNA	80	1	n/a	0	n/a	n/a	n/a	n/a	n/a
3570.94	n/a	RECOG_CONF	1785470	n/a	LTP070	ltpFR	18	3	1	BANDANNA	80	n/a	5	0	n/a	n/a	n/a	n/a	n/a
3572.294	n/a	RECOG_TARGET	1786147	n/a	LTP070	ltpFR	18	3	1	CREAM	402	0	1	0	n/a	n/a	n/a	n/a	n/a
3572.964	n/a	RECOG_RESP	1786482	n/a	LTP070	ltpFR	18	3	1	CREAM	402	0	n/a	0	n/a	n/a	n/a	n/a	n/a
3573.544	n/a	RECOG_CONF	1786772	n/a	LTP070	ltpFR	18	3	1	CREAM	402	n/a	1	0	n/a	n/a	n/a	n/a	n/a
3574.882	n/a	RECOG_TARGET	1787441	n/a	LTP070	ltpFR	18	3	1	HEDGE	699	1	5	0	n/a	n/a	n/a	n/a	n/a
3575.508	n/a	RECOG_RESP	1787754	n/a	LTP070	ltpFR	18	3	1	HEDGE	699	1	n/a	0	n/a	n/a	n/a	n/a	n/a
3576.038	n/a	RECOG_CONF	1788019	n/a	LTP070	ltpFR	18	3	1	HEDGE	699	n/a	5	0	n/a	n/a	n/a	n/a	n/a
3577.298	n/a	RECOG_TARGET	1788649	n/a	LTP070	ltpFR	18	3	0	ALLIGATOR	16	1	5	1	n/a	n/a	n/a	n/a	n/a
3577.854	n/a	RECOG_RESP	1788927	n/a	LTP070	ltpFR	18	3	0	ALLIGATOR	16	1	n/a	1	n/a	n/a	n/a	n/a	n/a
3578.432	n/a	RECOG_CONF	1789216	n/a	LTP070	ltpFR	18	3	0	ALLIGATOR	16	n/a	5	1	n/a	n/a	n/a	n/a	n/a
3579.718	n/a	RECOG_TARGET	1789859	n/a	LTP070	ltpFR	18	3	0	TOTE	1487	1	5	0	n/a	n/a	n/a	n/a	n/a
3580.378	n/a	RECOG_RESP	1790189	n/a	LTP070	ltpFR	18	3	0	TOTE	1487	1	n/a	0	n/a	n/a	n/a	n/a	n/a
3580.906	n/a	RECOG_CONF	1790453	n/a	LTP070	ltpFR	18	3	0	TOTE	1487	n/a	5	0	n/a	n/a	n/a	n/a	n/a
3582.192	n/a	RECOG_TARGET	1791096	n/a	LTP070	ltpFR	18	3	0	WELL	1600	1	5	1	n/a	n/a	n/a	n/a	n/a
3582.742	n/a	RECOG_RESP	1791371	n/a	LTP070	ltpFR	18	3	0	WELL	1600	1	n/a	1	n/a	n/a	n/a	n/a	n/a
3583.29	n/a	RECOG_CONF	1791645	n/a	LTP070	ltpFR	18	3	0	WELL	1600	n/a	5	1	n/a	n/a	n/a	n/a	n/a
3584.604	n/a	RECOG_TARGET	1792302	n/a	LTP070	ltpFR	18	3	0	HOOK	715	1	5	0	n/a	n/a	n/a	n/a	n/a
3585.116	n/a	RECOG_RESP	1792558	n/a	LTP070	ltpFR	18	3	0	HOOK	715	1	n/a	0	n/a	n/a	n/a	n/a	n/a
3585.656	n/a	RECOG_CONF	1792828	n/a	LTP070	ltpFR	18	3	0	HOOK	715	n/a	5	0	n/a	n/a	n/a	n/a	n/a
3586.96	n/a	RECOG_LURE	1793480	n/a	LTP070	ltpFR	18	3	n/a	CHEMICAL	291	0	1	n/a	n/a	n/a	n/a	n/a	n/a
3587.392	n/a	RECOG_RESP_VV	1793696	n/a	LTP070	ltpFR	18	3	n/a	CHEMICAL	291	1	n/a	n/a	n/a	n/a	n/a	n/a	n/a
3588.52	n/a	RECOG_RESP	1794260	n/a	LTP070	ltpFR	18	3	n/a	CHEMICAL	291	0	n/a	n/a	n/a	n/a	n/a	n/a	n/a
3589.118	n/a	RECOG_CONF	1794559	n/a	LTP070	ltpFR	18	3	n/a	CHEMICAL	291	n/a	1	n/a	n/a	n/a	n/a	n/a	n/a
3590.532	n/a	RECOG_TARGET	1795266	n/a	LTP070	ltpFR	18	3	-1	CHAMBER	277	1	1	-1	n/a	n/a	n/a	n/a	n/a
3591.372	n/a	RECOG_RESP	1795686	n/a	LTP070	ltpFR	18	3	-1	CHAMBER	277	1	n/a	-1	n/a	n/a	n/a	n/a	n/a
3591.972	n/a	RECOG_CONF	1795986	n/a	LTP070	ltpFR	18	3	-1	CHAMBER	277	n/a	1	-1	n/a	n/a	n/a	n/a	n/a
3593.328	n/a	RECOG_TARGET	1796664	n/a	LTP070	ltpFR	18	3	-1	CONTRACTOR	369	1	5	-1	n/a	n/a	n/a	n/a	n/a
3593.902	n/a	RECOG_RESP	1796951	n/a	LTP070	ltpFR	18	3	-1	CONTRACTOR	369	1	n/a	-1	n/a	n/a	n/a	n/a	n/a
3594.446	n/a	RECOG_CONF	1797223	n/a	LTP070	ltpFR	18	3	-1	CONTRACTOR	369	n/a	5	-1	n/a	n/a	n/a	n/a	n/a
3595.774	n/a	RECOG_TARGET	1797887	n/a	LTP070	ltpFR	18	3	-1	COUNTRY	388	1	5	-1	n/a	n/a	n/a	n/a	n/a
3596.432	n/a	RECOG_RESP	1798216	n/a	LTP070	ltpFR	18	3	-1	COUNTRY	388	1	n/a	-1	n/a	n/a	n/a	n/a	n/a
3596.95	n/a	RECOG_CONF	1798475	n/a	LTP070	ltpFR	18	3	-1	COUNTRY	388	n/a	5	-1	n/a	n/a	n/a	n/a	n/a
3598.28	n/a	RECOG_TARGET	1799140	n/a	LTP070	ltpFR	18	3	1	BENCH	121	1	5	0	n/a	n/a	n/a	n/a	n/a
3598.996	n/a	RECOG_RESP	1799498	n/a	LTP070	ltpFR	18	3	1	BENCH	121	1	n/a	0	n/a	n/a	n/a	n/a	n/a
3599.574	n/a	RECOG_CONF	1799787	n/a	LTP070	ltpFR	18	3	1	BENCH	121	n/a	5	0	n/a	n/a	n/a	n/a	n/a
3600.976	n/a	RECOG_TARGET	1800488	n/a	LTP070	ltpFR	18	3	0	NUCLEUS	961	1	5	0	n/a	n/a	n/a	n/a	n/a
3601.42	n/a	RECOG_RESP	1800710	n/a	LTP070	ltpFR	18	3	0	NUCLEUS	961	1	n/a	0	n/a	n/a	n/a	n/a	n/a
3601.908	n/a	RECOG_CONF	1800954	n/a	LTP070	ltpFR	18	3	0	NUCLEUS	961	n/a	5	0	n/a	n/a	n/a	n/a	n/a
3603.408	n/a	RECOG_TARGET	1801704	n/a	LTP070	ltpFR	18	3	-1	JUG	762	1	5	-1	n/a	n/a	n/a	n/a	n/a
3603.964	n/a	RECOG_RESP	1801982	n/a	LTP070	ltpFR	18	3	-1	JUG	762	1	n/a	-1	n/a	n/a	n/a	n/a	n/a
3604.52	n/a	RECOG_CONF	1802260	n/a	LTP070	ltpFR	18	3	-1	JUG	762	n/a	5	-1	n/a	n/a	n/a	n/a	n/a
3605.954	n/a	RECOG_TARGET	1802977	n/a	LTP070	ltpFR	18	3	0	JOURNAL	760	1	5	1	n/a	n/a	n/a	n/a	n/a
3606.458	n/a	RECOG_RESP	1803229	n/a	LTP070	ltpFR	18	3	0	JOURNAL	760	1	n/a	1	n/a	n/a	n/a	n/a	n/a
3607.018	n/a	RECOG_CONF	1803509	n/a	LTP070	ltpFR	18	3	0	JOURNAL	760	n/a	5	1	n/a	n/a	n/a	n/a	n/a
3608.436	n/a	RECOG_LURE	1804218	n/a	LTP070	ltpFR	18	3	n/a	PATH	1023	1	1	n/a	n/a	n/a	n/a	n/a	n/a
3609.012	n/a	RECOG_RESP	1804506	n/a	LTP070	ltpFR	18	3	n/a	PATH	1023	1	n/a	n/a	n/a	n/a	n/a	n/a	n/a
3609.532	n/a	RECOG_CONF	1804766	n/a	LTP070	ltpFR	18	3	n/a	PATH	1023	n/a	1	n/a	n/a	n/a	n/a	n/a	n/a
3612.642	n/a	REC_START	1806321	n/a	LTP070	ltpFR	18	4	n/a	n/a	n/a	n/a	n/a	n/a	n/a	n/a	n/a	n/a	n/a
3612.672	n/a	RECOG_TARGET	1806336	n/a	LTP070	ltpFR	18	4	0	VINE	1568	1	5	0	n/a	n/a	n/a	n/a	n/a
3613.096	n/a	RECOG_RESP	1806548	n/a	LTP070	ltpFR	18	4	0	VINE	1568	1	n/a	0	n/a	n/a	n/a	n/a	n/a
3613.644	n/a	RECOG_CONF	1806822	n/a	LTP070	ltpFR	18	4	0	VINE	1568	n/a	5	0	n/a	n/a	n/a	n/a	n/a
3615.036	n/a	RECOG_TARGET	1807518	n/a	LTP070	ltpFR	18	4	-1	STEM	1376	1	1	-1	n/a	n/a	n/a	n/a	n/a
3615.434	n/a	RECOG_RESP	1807717	n/a	LTP070	ltpFR	18	4	-1	STEM	1376	1	n/a	-1	n/a	n/a	n/a	n/a	n/a
3616.028	n/a	RECOG_CONF	1808014	n/a	LTP070	ltpFR	18	4	-1	STEM	1376	n/a	1	-1	n/a	n/a	n/a	n/a	n/a
3617.476	n/a	RECOG_TARGET	1808738	n/a	LTP070	ltpFR	18	4	1	YOLK	1633	1	5	0	n/a	n/a	n/a	n/a	n/a
3617.974	n/a	RECOG_RESP	1808987	n/a	LTP070	ltpFR	18	4	1	YOLK	1633	1	n/a	0	n/a	n/a	n/a	n/a	n/a
3618.512	n/a	RECOG_CONF	1809256	n/a	LTP070	ltpFR	18	4	1	YOLK	1633	n/a	5	0	n/a	n/a	n/a	n/a	n/a
3619.888	n/a	RECOG_TARGET	1809944	n/a	LTP070	ltpFR	18	4	-1	CASHIER	254	0	1	-1	n/a	n/a	n/a	n/a	n/a
3620.818	n/a	RECOG_RESP	1810409	n/a	LTP070	ltpFR	18	4	-1	CASHIER	254	0	n/a	-1	n/a	n/a	n/a	n/a	n/a
3621.416	n/a	RECOG_CONF	1810708	n/a	LTP070	ltpFR	18	4	-1	CASHIER	254	n/a	1	-1	n/a	n/a	n/a	n/a	n/a
3622.742	n/a	RECOG_TARGET	1811371	n/a	LTP070	ltpFR	18	4	-1	UNDERWEAR	1537	1	5	-1	n/a	n/a	n/a	n/a	n/a
3623.432	n/a	RECOG_RESP	1811716	n/a	LTP070	ltpFR	18	4	-1	UNDERWEAR	1537	1	n/a	-1	n/a	n/a	n/a	n/a	n/a
3623.96	n/a	RECOG_CONF	1811980	n/a	LTP070	ltpFR	18	4	-1	UNDERWEAR	1537	n/a	5	-1	n/a	n/a	n/a	n/a	n/a
3625.29	n/a	RECOG_LURE	1812645	n/a	LTP070	ltpFR	18	4	n/a	SCRIBBLE	1256	0	1	n/a	n/a	n/a	n/a	n/a	n/a
3625.666	n/a	RECOG_RESP_VV	1812833	n/a	LTP070	ltpFR	18	4	n/a	SCRIBBLE	1256	1	n/a	n/a	n/a	n/a	n/a	n/a	n/a
3626.724	n/a	RECOG_RESP	1813362	n/a	LTP070	ltpFR	18	4	n/a	SCRIBBLE	1256	0	n/a	n/a	n/a	n/a	n/a	n/a	n/a
3627.342	n/a	RECOG_CONF	1813671	n/a	LTP070	ltpFR	18	4	n/a	SCRIBBLE	1256	n/a	1	n/a	n/a	n/a	n/a	n/a	n/a
3628.778	n/a	RECOG_LURE	1814389	n/a	LTP070	ltpFR	18	4	n/a	CABINET	212	0	1	n/a	n/a	n/a	n/a	n/a	n/a
3629.718	n/a	RECOG_RESP	1814859	n/a	LTP070	ltpFR	18	4	n/a	CABINET	212	0	n/a	n/a	n/a	n/a	n/a	n/a	n/a
3630.276	n/a	RECOG_CONF	1815138	n/a	LTP070	ltpFR	18	4	n/a	CABINET	212	n/a	1	n/a	n/a	n/a	n/a	n/a	n/a
3631.724	n/a	RECOG_LURE	1815862	n/a	LTP070	ltpFR	18	4	n/a	KID	775	0	1	n/a	n/a	n/a	n/a	n/a	n/a
3632.396	n/a	RECOG_RESP	1816198	n/a	LTP070	ltpFR	18	4	n/a	KID	775	0	n/a	n/a	n/a	n/a	n/a	n/a	n/a
3632.908	n/a	RECOG_CONF	1816454	n/a	LTP070	ltpFR	18	4	n/a	KID	775	n/a	1	n/a	n/a	n/a	n/a	n/a	n/a
3634.356	n/a	RECOG_TARGET	1817178	n/a	LTP070	ltpFR	18	4	0	DINER	467	1	5	1	n/a	n/a	n/a	n/a	n/a
3634.986	n/a	RECOG_RESP	1817493	n/a	LTP070	ltpFR	18	4	0	DINER	467	1	n/a	1	n/a	n/a	n/a	n/a	n/a
3635.534	n/a	RECOG_CONF	1817767	n/a	LTP070	ltpFR	18	4	0	DINER	467	n/a	5	1	n/a	n/a	n/a	n/a	n/a
3636.876	n/a	RECOG_TARGET	1818438	n/a	LTP070	ltpFR	18	4	0	GAZELLE	628	1	5	1	n/a	n/a	n/a	n/a	n/a
3637.36	n/a	RECOG_RESP	1818680	n/a	LTP070	ltpFR	18	4	0	GAZELLE	628	1	n/a	1	n/a	n/a	n/a	n/a	n/a
3637.868	n/a	RECOG_CONF	1818934	n/a	LTP070	ltpFR	18	4	0	GAZELLE	628	n/a	5	1	n/a	n/a	n/a	n/a	n/a
3639.224	n/a	RECOG_TARGET	1819612	n/a	LTP070	ltpFR	18	4	0	STAMP	1370	1	5	0	n/a	n/a	n/a	n/a	n/a
3639.684	n/a	RECOG_RESP	1819842	n/a	LTP070	ltpFR	18	4	0	STAMP	1370	1	n/a	0	n/a	n/a	n/a	n/a	n/a
3640.354	n/a	RECOG_CONF	1820177	n/a	LTP070	ltpFR	18	4	0	STAMP	1370	n/a	5	0	n/a	n/a	n/a	n/a	n/a
3641.73	n/a	RECOG_TARGET	1820865	n/a	LTP070	ltpFR	18	4	-1	PORT	1110	0	1	-1	n/a	n/a	n/a	n/a	n/a
3642.4	n/a	RECOG_RESP	1821200	n/a	LTP070	ltpFR	18	4	-1	PORT	1110	0	n/a	-1	n/a	n/a	n/a	n/a	n/a
3643.746	n/a	RECOG_CONF	1821873	n/a	LTP070	ltpFR	18	4	-1	PORT	1110	n/a	1	-1	n/a	n/a	n/a	n/a	n/a
3645.252	n/a	RECOG_LURE	1822626	n/a	LTP070	ltpFR	18	4	n/a	ARTIST	43	0	1	n/a	n/a	n/a	n/a	n/a	n/a
