mstime	trial_type	stim_file	subject	experiment	session	trial	item_name	item_num	list	answer	test_x	test_y	test_z
0	SESS_START	n/a	LTP377	ltpFR2	7	n/a	n/a	n/a	n/a	n/a	0	0	0
13751	START	n/a	LTP377	ltpFR2	7	n/a	n/a	n/a	-1	n/a	n/a	n/a	n/a
13782	PROB	n/a	LTP377	ltpFR2	7	n/a	n/a	n/a	-1	21	7	6	8
16649	PROB	n/a	LTP377	ltpFR2	7	n/a	n/a	n/a	-1	16	2	9	5
18815	PROB	n/a	LTP377	ltpFR2	7	n/a	n/a	n/a	-1	22	8	9	5
23283	PROB	n/a	LTP377	ltpFR2	7	n/a	n/a	n/a	-1	17	3	6	8
25289	STOP	n/a	LTP377	ltpFR2	7	n/a	n/a	n/a	-1	n/a	n/a	n/a	n/a
69531	WORD	wordpools/wasnorm_wordpool_576.txt	LTP377	ltpFR2	7	1	JOURNAL	760	n/a	n/a	0	0	0
71999	WORD	wordpools/wasnorm_wordpool_576.txt	LTP377	ltpFR2	7	1	POET	1095	n/a	n/a	0	0	0
74498	WORD	wordpools/wasnorm_wordpool_576.txt	LTP377	ltpFR2	7	1	OX	994	n/a	n/a	0	0	0
76949	WORD	wordpools/wasnorm_wordpool_576.txt	LTP377	ltpFR2	7	1	FOREST	593	n/a	n/a	0	0	0
79564	WORD	wordpools/wasnorm_wordpool_576.txt	LTP377	ltpFR2	7	1	TWIG	1527	n/a	n/a	0	0	0
82199	WORD	wordpools/wasnorm_wordpool_576.txt	LTP377	ltpFR2	7	1	EUROPE	541	n/a	n/a	0	0	0
84882	WORD	wordpools/wasnorm_wordpool_576.txt	LTP377	ltpFR2	7	1	FUNGUS	614	n/a	n/a	0	0	0
87464	WORD	wordpools/wasnorm_wordpool_576.txt	LTP377	ltpFR2	7	1	JUDGE	761	n/a	n/a	0	0	0
89899	WORD	wordpools/wasnorm_wordpool_576.txt	LTP377	ltpFR2	7	1	HONEY	713	n/a	n/a	0	0	0
92564	WORD	wordpools/wasnorm_wordpool_576.txt	LTP377	ltpFR2	7	1	ELBOW	520	n/a	n/a	0	0	0
95232	WORD	wordpools/wasnorm_wordpool_576.txt	LTP377	ltpFR2	7	1	DONOR	485	n/a	n/a	0	0	0
97949	WORD	wordpools/wasnorm_wordpool_576.txt	LTP377	ltpFR2	7	1	SHORTCAKE	1292	n/a	n/a	0	0	0
100648	WORD	wordpools/wasnorm_wordpool_576.txt	LTP377	ltpFR2	7	1	SURVEY	1414	n/a	n/a	0	0	0
103364	WORD	wordpools/wasnorm_wordpool_576.txt	LTP377	ltpFR2	7	1	TREAT	1501	n/a	n/a	0	0	0
105965	WORD	wordpools/wasnorm_wordpool_576.txt	LTP377	ltpFR2	7	1	CRICKET	408	n/a	n/a	0	0	0
108481	WORD	wordpools/wasnorm_wordpool_576.txt	LTP377	ltpFR2	7	1	POPCORN	1104	n/a	n/a	0	0	0
111032	WORD	wordpools/wasnorm_wordpool_576.txt	LTP377	ltpFR2	7	1	TWISTER	1530	n/a	n/a	0	0	0
113514	WORD	wordpools/wasnorm_wordpool_576.txt	LTP377	ltpFR2	7	1	JAPAN	749	n/a	n/a	0	0	0
116248	WORD	wordpools/wasnorm_wordpool_576.txt	LTP377	ltpFR2	7	1	CHAPEL	280	n/a	n/a	0	0	0
119015	WORD	wordpools/wasnorm_wordpool_576.txt	LTP377	ltpFR2	7	1	CANYON	235	n/a	n/a	0	0	0
121664	WORD	wordpools/wasnorm_wordpool_576.txt	LTP377	ltpFR2	7	1	BUREAU	199	n/a	n/a	0	0	0
124364	WORD	wordpools/wasnorm_wordpool_576.txt	LTP377	ltpFR2	7	1	APPLE	33	n/a	n/a	0	0	0
126981	WORD	wordpools/wasnorm_wordpool_576.txt	LTP377	ltpFR2	7	1	TUNNEL	1519	n/a	n/a	0	0	0
129730	WORD	wordpools/wasnorm_wordpool_576.txt	LTP377	ltpFR2	7	1	DRESS	495	n/a	n/a	0	0	0
131332	START	n/a	LTP377	ltpFR2	7	n/a	n/a	n/a	1	n/a	n/a	n/a	n/a
132179	DISTRACTOR	n/a	LTP377	ltpFR2	7	1	n/a	n/a	n/a	n/a	0	0	0
132181	PROB	n/a	LTP377	ltpFR2	7	n/a	n/a	n/a	1	7	1	3	3
133847	PROB	n/a	LTP377	ltpFR2	7	n/a	n/a	n/a	1	22	8	9	5
137298	PROB	n/a	LTP377	ltpFR2	7	n/a	n/a	n/a	1	16	4	7	5
140115	PROB	n/a	LTP377	ltpFR2	7	n/a	n/a	n/a	1	14	4	4	6
141881	PROB	n/a	LTP377	ltpFR2	7	n/a	n/a	n/a	1	19	6	9	4
143998	PROB	n/a	LTP377	ltpFR2	7	n/a	n/a	n/a	1	9	2	5	2
145514	PROB	n/a	LTP377	ltpFR2	7	n/a	n/a	n/a	1	10	2	2	6
147397	PROB	n/a	LTP377	ltpFR2	7	n/a	n/a	n/a	1	16	5	3	8
149114	PROB	n/a	LTP377	ltpFR2	7	n/a	n/a	n/a	1	11	2	1	8
150747	PROB	n/a	LTP377	ltpFR2	7	n/a	n/a	n/a	1	17	7	2	8
152497	PROB	n/a	LTP377	ltpFR2	7	n/a	n/a	n/a	1	22	7	8	7
154229	STOP	n/a	LTP377	ltpFR2	7	n/a	n/a	n/a	1	n/a	n/a	n/a	n/a
157182	REC_START	n/a	LTP377	ltpFR2	7	1	n/a	n/a	n/a	n/a	0	0	0
157423	REC_WORD	wordpools/wasnorm_wordpool_576.txt	LTP377	ltpFR2	7	1	POET	1095	n/a	n/a	0	0	0
158192	REC_WORD	wordpools/wasnorm_wordpool_576.txt	LTP377	ltpFR2	7	1	JOURNAL	760	n/a	n/a	0	0	0
158911	REC_WORD	wordpools/wasnorm_wordpool_576.txt	LTP377	ltpFR2	7	1	BUREAU	199	n/a	n/a	0	0	0
159516	REC_WORD	wordpools/wasnorm_wordpool_576.txt	LTP377	ltpFR2	7	1	JAPAN	749	n/a	n/a	0	0	0
160427	REC_WORD	wordpools/wasnorm_wordpool_576.txt	LTP377	ltpFR2	7	1	EUROPE	541	n/a	n/a	0	0	0
161069	REC_WORD	wordpools/wasnorm_wordpool_576.txt	LTP377	ltpFR2	7	1	CANYON	235	n/a	n/a	0	0	0
161775	REC_WORD	wordpools/wasnorm_wordpool_576.txt	LTP377	ltpFR2	7	1	TUNNEL	1519	n/a	n/a	0	0	0
162451	REC_WORD	wordpools/wasnorm_wordpool_576.txt	LTP377	ltpFR2	7	1	DRESS	495	n/a	n/a	0	0	0
174309	REC_WORD	wordpools/wasnorm_wordpool_576.txt	LTP377	ltpFR2	7	1	SHORTCAKE	1292	n/a	n/a	0	0	0
175105	REC_WORD	wordpools/wasnorm_wordpool_576.txt	LTP377	ltpFR2	7	1	TREAT	1501	n/a	n/a	0	0	0
175644	REC_WORD	wordpools/wasnorm_wordpool_576.txt	LTP377	ltpFR2	7	1	POPCORN	1104	n/a	n/a	0	0	0
176318	REC_WORD	wordpools/wasnorm_wordpool_576.txt	LTP377	ltpFR2	7	1	TWISTER	1530	n/a	n/a	0	0	0
195523	REC_WORD	wordpools/wasnorm_wordpool_576.txt	LTP377	ltpFR2	7	1	BUREAU	199	n/a	n/a	0	0	0
201649	REC_WORD	wordpools/wasnorm_wordpool_576.txt	LTP377	ltpFR2	7	1	APPLE	33	n/a	n/a	0	0	0
220806	REC_WORD	wordpools/wasnorm_wordpool_576.txt	LTP377	ltpFR2	7	1	CANYON	235	n/a	n/a	0	0	0
247629	DISTRACTOR	n/a	LTP377	ltpFR2	7	2	n/a	n/a	n/a	n/a	0	0	0
247629	START	n/a	LTP377	ltpFR2	7	n/a	n/a	n/a	2	n/a	n/a	n/a	n/a
247645	PROB	n/a	LTP377	ltpFR2	7	n/a	n/a	n/a	2	11	3	7	1
249812	PROB	n/a	LTP377	ltpFR2	7	n/a	n/a	n/a	2	15	5	2	8
252728	PROB	n/a	LTP377	ltpFR2	7	n/a	n/a	n/a	2	17	4	4	9
255213	PROB	n/a	LTP377	ltpFR2	7	n/a	n/a	n/a	2	18	6	3	9
257512	PROB	n/a	LTP377	ltpFR2	7	n/a	n/a	n/a	2	8	2	1	5
259678	PROB	n/a	LTP377	ltpFR2	7	n/a	n/a	n/a	2	15	8	5	2
261313	PROB	n/a	LTP377	ltpFR2	7	n/a	n/a	n/a	2	11	3	6	2
262929	PROB	n/a	LTP377	ltpFR2	7	n/a	n/a	n/a	2	24	6	9	9
266163	PROB	n/a	LTP377	ltpFR2	7	n/a	n/a	n/a	2	8	2	2	4
268063	PROB	n/a	LTP377	ltpFR2	7	n/a	n/a	n/a	2	22	7	7	8
271629	STOP	n/a	LTP377	ltpFR2	7	n/a	n/a	n/a	2	n/a	n/a	n/a	n/a
272578	WORD	wordpools/wasnorm_wordpool_576.txt	LTP377	ltpFR2	7	2	OZONE	996	n/a	n/a	0	0	0
275263	WORD	wordpools/wasnorm_wordpool_576.txt	LTP377	ltpFR2	7	2	CABIN	211	n/a	n/a	0	0	0
278063	WORD	wordpools/wasnorm_wordpool_576.txt	LTP377	ltpFR2	7	2	CIGAR	308	n/a	n/a	0	0	0
280695	WORD	wordpools/wasnorm_wordpool_576.txt	LTP377	ltpFR2	7	2	LEADER	807	n/a	n/a	0	0	0
283246	WORD	wordpools/wasnorm_wordpool_576.txt	LTP377	ltpFR2	7	2	BALLOON	75	n/a	n/a	0	0	0
285778	WORD	wordpools/wasnorm_wordpool_576.txt	LTP377	ltpFR2	7	2	MAMMAL	861	n/a	n/a	0	0	0
288312	WORD	wordpools/wasnorm_wordpool_576.txt	LTP377	ltpFR2	7	2	MACHINE	852	n/a	n/a	0	0	0
291029	WORD	wordpools/wasnorm_wordpool_576.txt	LTP377	ltpFR2	7	2	ROBOT	1200	n/a	n/a	0	0	0
293545	WORD	wordpools/wasnorm_wordpool_576.txt	LTP377	ltpFR2	7	2	GREASE	660	n/a	n/a	0	0	0
296029	WORD	wordpools/wasnorm_wordpool_576.txt	LTP377	ltpFR2	7	2	SERVER	1272	n/a	n/a	0	0	0
298744	WORD	wordpools/wasnorm_wordpool_576.txt	LTP377	ltpFR2	7	2	BROTHER	179	n/a	n/a	0	0	0
301444	WORD	wordpools/wasnorm_wordpool_576.txt	LTP377	ltpFR2	7	2	COOKBOOK	373	n/a	n/a	0	0	0
304095	WORD	wordpools/wasnorm_wordpool_576.txt	LTP377	ltpFR2	7	2	COMPASS	358	n/a	n/a	0	0	0
306844	WORD	wordpools/wasnorm_wordpool_576.txt	LTP377	ltpFR2	7	2	COURSE	390	n/a	n/a	0	0	0
309478	WORD	wordpools/wasnorm_wordpool_576.txt	LTP377	ltpFR2	7	2	HOOD	714	n/a	n/a	0	0	0
312295	WORD	wordpools/wasnorm_wordpool_576.txt	LTP377	ltpFR2	7	2	QUAIL	1147	n/a	n/a	0	0	0
314728	WORD	wordpools/wasnorm_wordpool_576.txt	LTP377	ltpFR2	7	2	CROWN	415	n/a	n/a	0	0	0
317444	WORD	wordpools/wasnorm_wordpool_576.txt	LTP377	ltpFR2	7	2	PRINCESS	1125	n/a	n/a	0	0	0
320145	WORD	wordpools/wasnorm_wordpool_576.txt	LTP377	ltpFR2	7	2	FLASK	576	n/a	n/a	0	0	0
322861	WORD	wordpools/wasnorm_wordpool_576.txt	LTP377	ltpFR2	7	2	LUNCH	849	n/a	n/a	0	0	0
325594	WORD	wordpools/wasnorm_wordpool_576.txt	LTP377	ltpFR2	7	2	NEUTRON	947	n/a	n/a	0	0	0
328394	WORD	wordpools/wasnorm_wordpool_576.txt	LTP377	ltpFR2	7	2	PILOT	1070	n/a	n/a	0	0	0
331145	WORD	wordpools/wasnorm_wordpool_576.txt	LTP377	ltpFR2	7	2	CHEMIST	292	n/a	n/a	0	0	0
333912	WORD	wordpools/wasnorm_wordpool_576.txt	LTP377	ltpFR2	7	2	SHELTER	1282	n/a	n/a	0	0	0
335528	START	n/a	LTP377	ltpFR2	7	n/a	n/a	n/a	3	n/a	n/a	n/a	n/a
336428	DISTRACTOR	n/a	LTP377	ltpFR2	7	2	n/a	n/a	n/a	n/a	0	0	0
336444	PROB	n/a	LTP377	ltpFR2	7	n/a	n/a	n/a	3	14	5	2	7
338444	PROB	n/a	LTP377	ltpFR2	7	n/a	n/a	n/a	3	13	1	3	9
342344	PROB	n/a	LTP377	ltpFR2	7	n/a	n/a	n/a	3	16	6	1	9
344228	PROB	n/a	LTP377	ltpFR2	7	n/a	n/a	n/a	3	10	2	3	5
345978	PROB	n/a	LTP377	ltpFR2	7	n/a	n/a	n/a	3	13	1	7	5
347710	PROB	n/a	LTP377	ltpFR2	7	n/a	n/a	n/a	3	13	3	4	6
349494	PROB	n/a	LTP377	ltpFR2	7	n/a	n/a	n/a	3	14	6	6	2
350895	PROB	n/a	LTP377	ltpFR2	7	n/a	n/a	n/a	3	21	5	8	8
352860	PROB	n/a	LTP377	ltpFR2	7	n/a	n/a	n/a	3	16	2	7	7
354544	PROB	n/a	LTP377	ltpFR2	7	n/a	n/a	n/a	3	22	8	8	6
356178	PROB	n/a	LTP377	ltpFR2	7	n/a	n/a	n/a	3	15	7	7	1
357494	PROB	n/a	LTP377	ltpFR2	7	n/a	n/a	n/a	3	15	8	5	2
358810	STOP	n/a	LTP377	ltpFR2	7	n/a	n/a	n/a	3	n/a	n/a	n/a	n/a
361328	REC_START	n/a	LTP377	ltpFR2	7	2	n/a	n/a	n/a	n/a	0	0	0
361768	REC_WORD	wordpools/wasnorm_wordpool_576.txt	LTP377	ltpFR2	7	2	QUAIL	1147	n/a	n/a	0	0	0
362634	REC_WORD	wordpools/wasnorm_wordpool_576.txt	LTP377	ltpFR2	7	2	FLASK	576	n/a	n/a	0	0	0
363484	REC_WORD	wordpools/wasnorm_wordpool_576.txt	LTP377	ltpFR2	7	2	SERVER	1272	n/a	n/a	0	0	0
364532	REC_WORD	wordpools/wasnorm_wordpool_576.txt	LTP377	ltpFR2	7	2	BROTHER	179	n/a	n/a	0	0	0
365199	REC_WORD	wordpools/wasnorm_wordpool_576.txt	LTP377	ltpFR2	7	2	LUNCH	849	n/a	n/a	0	0	0
372962	REC_WORD	wordpools/wasnorm_wordpool_576.txt	LTP377	ltpFR2	7	2	GREASE	660	n/a	n/a	0	0	0
384787	REC_WORD	wordpools/wasnorm_wordpool_576.txt	LTP377	ltpFR2	7	2	HOOD	714	n/a	n/a	0	0	0
387623	REC_WORD	wordpools/wasnorm_wordpool_576.txt	LTP377	ltpFR2	7	2	LEADER	807	n/a	n/a	0	0	0
393564	REC_WORD	wordpools/wasnorm_wordpool_576.txt	LTP377	ltpFR2	7	2	PILOT	1070	n/a	n/a	0	0	0
451775	WORD	wordpools/wasnorm_wordpool_576.txt	LTP377	ltpFR2	7	3	BEAST	108	n/a	n/a	0	0	0
454409	WORD	wordpools/wasnorm_wordpool_576.txt	LTP377	ltpFR2	7	3	BUGGY	188	n/a	n/a	0	0	0
457110	WORD	wordpools/wasnorm_wordpool_576.txt	LTP377	ltpFR2	7	3	DINER	467	n/a	n/a	0	0	0
459642	WORD	wordpools/wasnorm_wordpool_576.txt	LTP377	ltpFR2	7	3	MARKET	871	n/a	n/a	0	0	0
462442	WORD	wordpools/wasnorm_wordpool_576.txt	LTP377	ltpFR2	7	3	MATTRESS	879	n/a	n/a	0	0	0
464926	WORD	wordpools/wasnorm_wordpool_576.txt	LTP377	ltpFR2	7	3	CREATURE	403	n/a	n/a	0	0	0
467442	WORD	wordpools/wasnorm_wordpool_576.txt	LTP377	ltpFR2	7	3	RUG	1215	n/a	n/a	0	0	0
469960	WORD	wordpools/wasnorm_wordpool_576.txt	LTP377	ltpFR2	7	3	PRINCE	1124	n/a	n/a	0	0	0
472459	WORD	wordpools/wasnorm_wordpool_576.txt	LTP377	ltpFR2	7	3	PECAN	1036	n/a	n/a	0	0	0
475193	WORD	wordpools/wasnorm_wordpool_576.txt	LTP377	ltpFR2	7	3	MAILMAN	858	n/a	n/a	0	0	0
477642	WORD	wordpools/wasnorm_wordpool_576.txt	LTP377	ltpFR2	7	3	JELLY	755	n/a	n/a	0	0	0
480425	WORD	wordpools/wasnorm_wordpool_576.txt	LTP377	ltpFR2	7	3	BOX	159	n/a	n/a	0	0	0
483076	WORD	wordpools/wasnorm_wordpool_576.txt	LTP377	ltpFR2	7	3	PUPPY	1144	n/a	n/a	0	0	0
485875	WORD	wordpools/wasnorm_wordpool_576.txt	LTP377	ltpFR2	7	3	PORK	1108	n/a	n/a	0	0	0
488508	WORD	wordpools/wasnorm_wordpool_576.txt	LTP377	ltpFR2	7	3	KLEENEX	782	n/a	n/a	0	0	0
491093	WORD	wordpools/wasnorm_wordpool_576.txt	LTP377	ltpFR2	7	3	ROCKET	1202	n/a	n/a	0	0	0
493792	WORD	wordpools/wasnorm_wordpool_576.txt	LTP377	ltpFR2	7	3	HEDGE	699	n/a	n/a	0	0	0
496508	WORD	wordpools/wasnorm_wordpool_576.txt	LTP377	ltpFR2	7	3	CATCHER	258	n/a	n/a	0	0	0
499126	WORD	wordpools/wasnorm_wordpool_576.txt	LTP377	ltpFR2	7	3	UMPIRE	1535	n/a	n/a	0	0	0
501742	WORD	wordpools/wasnorm_wordpool_576.txt	LTP377	ltpFR2	7	3	COCKTAIL	338	n/a	n/a	0	0	0
504408	WORD	wordpools/wasnorm_wordpool_576.txt	LTP377	ltpFR2	7	3	FREEZER	604	n/a	n/a	0	0	0
506992	WORD	wordpools/wasnorm_wordpool_576.txt	LTP377	ltpFR2	7	3	MARS	873	n/a	n/a	0	0	0
509541	WORD	wordpools/wasnorm_wordpool_576.txt	LTP377	ltpFR2	7	3	SPOOL	1356	n/a	n/a	0	0	0
512026	WORD	wordpools/wasnorm_wordpool_576.txt	LTP377	ltpFR2	7	3	SKIRT	1319	n/a	n/a	0	0	0
513641	START	n/a	LTP377	ltpFR2	7	n/a	n/a	n/a	4	n/a	n/a	n/a	n/a
514603	DISTRACTOR	n/a	LTP377	ltpFR2	7	3	n/a	n/a	n/a	n/a	0	0	0
514608	PROB	n/a	LTP377	ltpFR2	7	n/a	n/a	n/a	4	17	4	8	5
518326	PROB	n/a	LTP377	ltpFR2	7	n/a	n/a	n/a	4	20	8	8	4
519992	PROB	n/a	LTP377	ltpFR2	7	n/a	n/a	n/a	4	19	5	8	6
522458	PROB	n/a	LTP377	ltpFR2	7	n/a	n/a	n/a	4	16	7	3	6
527225	PROB	n/a	LTP377	ltpFR2	7	n/a	n/a	n/a	4	20	8	3	9
529292	PROB	n/a	LTP377	ltpFR2	7	n/a	n/a	n/a	4	20	7	4	9
533075	PROB	n/a	LTP377	ltpFR2	7	n/a	n/a	n/a	4	13	7	5	1
534758	PROB	n/a	LTP377	ltpFR2	7	n/a	n/a	n/a	4	23	9	7	7
537344	STOP	n/a	LTP377	ltpFR2	7	n/a	n/a	n/a	4	n/a	n/a	n/a	n/a
539558	REC_START	n/a	LTP377	ltpFR2	7	3	n/a	n/a	n/a	n/a	0	0	0
539798	REC_WORD	wordpools/wasnorm_wordpool_576.txt	LTP377	ltpFR2	7	3	SPOOL	1356	n/a	n/a	0	0	0
551179	REC_WORD	wordpools/wasnorm_wordpool_576.txt	LTP377	ltpFR2	7	3	PRINCE	1124	n/a	n/a	0	0	0
553096	REC_WORD	wordpools/wasnorm_wordpool_576.txt	LTP377	ltpFR2	7	3	MAILMAN	858	n/a	n/a	0	0	0
553822	REC_WORD	wordpools/wasnorm_wordpool_576.txt	LTP377	ltpFR2	7	3	BOX	159	n/a	n/a	0	0	0
554298	REC_WORD	wordpools/wasnorm_wordpool_576.txt	LTP377	ltpFR2	7	3	PUPPY	1144	n/a	n/a	0	0	0
555542	REC_WORD	wordpools/wasnorm_wordpool_576.txt	LTP377	ltpFR2	7	3	PORK	1108	n/a	n/a	0	0	0
568479	REC_WORD	wordpools/wasnorm_wordpool_576.txt	LTP377	ltpFR2	7	3	RUG	1215	n/a	n/a	0	0	0
573994	REC_WORD	wordpools/wasnorm_wordpool_576.txt	LTP377	ltpFR2	7	3	BEAST	108	n/a	n/a	0	0	0
629991	DISTRACTOR	n/a	LTP377	ltpFR2	7	4	n/a	n/a	n/a	n/a	0	0	0
629991	START	n/a	LTP377	ltpFR2	7	n/a	n/a	n/a	5	n/a	n/a	n/a	n/a
630007	PROB	n/a	LTP377	ltpFR2	7	n/a	n/a	n/a	5	6	1	2	3
632024	PROB	n/a	LTP377	ltpFR2	7	n/a	n/a	n/a	5	13	3	1	9
634506	PROB	n/a	LTP377	ltpFR2	7	n/a	n/a	n/a	5	23	8	9	6
639307	PROB	n/a	LTP377	ltpFR2	7	n/a	n/a	n/a	5	16	9	2	5
641074	PROB	n/a	LTP377	ltpFR2	7	n/a	n/a	n/a	5	18	1	9	8
642706	PROB	n/a	LTP377	ltpFR2	7	n/a	n/a	n/a	5	19	4	7	8
646240	PROB	n/a	LTP377	ltpFR2	7	n/a	n/a	n/a	5	9	1	3	5
647907	PROB	n/a	LTP377	ltpFR2	7	n/a	n/a	n/a	5	12	2	3	7
649706	PROB	n/a	LTP377	ltpFR2	7	n/a	n/a	n/a	5	12	4	5	3
651556	PROB	n/a	LTP377	ltpFR2	7	n/a	n/a	n/a	5	13	6	4	3
653068	STOP	n/a	LTP377	ltpFR2	7	n/a	n/a	n/a	5	n/a	n/a	n/a	n/a
654856	WORD	wordpools/wasnorm_wordpool_576.txt	LTP377	ltpFR2	7	4	PAPER	1011	n/a	n/a	0	0	0
657389	WORD	wordpools/wasnorm_wordpool_576.txt	LTP377	ltpFR2	7	4	BINDER	127	n/a	n/a	0	0	0
660024	WORD	wordpools/wasnorm_wordpool_576.txt	LTP377	ltpFR2	7	4	LETTUCE	814	n/a	n/a	0	0	0
662756	WORD	wordpools/wasnorm_wordpool_576.txt	LTP377	ltpFR2	7	4	SLIME	1327	n/a	n/a	0	0	0
665290	WORD	wordpools/wasnorm_wordpool_576.txt	LTP377	ltpFR2	7	4	BATHTUB	100	n/a	n/a	0	0	0
667872	WORD	wordpools/wasnorm_wordpool_576.txt	LTP377	ltpFR2	7	4	MILK	895	n/a	n/a	0	0	0
670323	WORD	wordpools/wasnorm_wordpool_576.txt	LTP377	ltpFR2	7	4	COFFEE	341	n/a	n/a	0	0	0
673007	WORD	wordpools/wasnorm_wordpool_576.txt	LTP377	ltpFR2	7	4	MUSTARD	935	n/a	n/a	0	0	0
675706	WORD	wordpools/wasnorm_wordpool_576.txt	LTP377	ltpFR2	7	4	WORLD	1622	n/a	n/a	0	0	0
678422	WORD	wordpools/wasnorm_wordpool_576.txt	LTP377	ltpFR2	7	4	THIEF	1456	n/a	n/a	0	0	0
680940	WORD	wordpools/wasnorm_wordpool_576.txt	LTP377	ltpFR2	7	4	CONVICT	371	n/a	n/a	0	0	0
683455	WORD	wordpools/wasnorm_wordpool_576.txt	LTP377	ltpFR2	7	4	FRUIT	610	n/a	n/a	0	0	0
685906	WORD	wordpools/wasnorm_wordpool_576.txt	LTP377	ltpFR2	7	4	PEACH	1031	n/a	n/a	0	0	0
688672	WORD	wordpools/wasnorm_wordpool_576.txt	LTP377	ltpFR2	7	4	JUNGLE	764	n/a	n/a	0	0	0
691140	WORD	wordpools/wasnorm_wordpool_576.txt	LTP377	ltpFR2	7	4	SNACK	1331	n/a	n/a	0	0	0
693923	WORD	wordpools/wasnorm_wordpool_576.txt	LTP377	ltpFR2	7	4	CHAUFFEUR	283	n/a	n/a	0	0	0
696455	WORD	wordpools/wasnorm_wordpool_576.txt	LTP377	ltpFR2	7	4	CAFE	216	n/a	n/a	0	0	0
698989	WORD	wordpools/wasnorm_wordpool_576.txt	LTP377	ltpFR2	7	4	CAPTIVE	240	n/a	n/a	0	0	0
701738	WORD	wordpools/wasnorm_wordpool_576.txt	LTP377	ltpFR2	7	4	VALLEY	1545	n/a	n/a	0	0	0
704455	WORD	wordpools/wasnorm_wordpool_576.txt	LTP377	ltpFR2	7	4	VALVE	1546	n/a	n/a	0	0	0
707023	WORD	wordpools/wasnorm_wordpool_576.txt	LTP377	ltpFR2	7	4	SKETCH	1315	n/a	n/a	0	0	0
709522	WORD	wordpools/wasnorm_wordpool_576.txt	LTP377	ltpFR2	7	4	BLACKBOARD	133	n/a	n/a	0	0	0
712023	WORD	wordpools/wasnorm_wordpool_576.txt	LTP377	ltpFR2	7	4	BASEMENT	94	n/a	n/a	0	0	0
714838	WORD	wordpools/wasnorm_wordpool_576.txt	LTP377	ltpFR2	7	4	WHISTLE	1606	n/a	n/a	0	0	0
716455	START	n/a	LTP377	ltpFR2	7	n/a	n/a	n/a	6	n/a	n/a	n/a	n/a
717655	DISTRACTOR	n/a	LTP377	ltpFR2	7	4	n/a	n/a	n/a	n/a	0	0	0
717672	PROB	n/a	LTP377	ltpFR2	7	n/a	n/a	n/a	6	17	9	7	1
719638	PROB	n/a	LTP377	ltpFR2	7	n/a	n/a	n/a	6	9	4	1	4
720906	PROB	n/a	LTP377	ltpFR2	7	n/a	n/a	n/a	6	14	6	3	5
722555	PROB	n/a	LTP377	ltpFR2	7	n/a	n/a	n/a	6	17	6	6	5
724289	PROB	n/a	LTP377	ltpFR2	7	n/a	n/a	n/a	6	16	6	7	3
725972	PROB	n/a	LTP377	ltpFR2	7	n/a	n/a	n/a	6	17	6	8	3
728821	PROB	n/a	LTP377	ltpFR2	7	n/a	n/a	n/a	6	22	5	8	9
731521	PROB	n/a	LTP377	ltpFR2	7	n/a	n/a	n/a	6	21	6	7	8
733471	PROB	n/a	LTP377	ltpFR2	7	n/a	n/a	n/a	6	15	3	9	3
736388	PROB	n/a	LTP377	ltpFR2	7	n/a	n/a	n/a	6	6	2	3	1
740455	STOP	n/a	LTP377	ltpFR2	7	n/a	n/a	n/a	6	n/a	n/a	n/a	n/a
742372	REC_START	n/a	LTP377	ltpFR2	7	4	n/a	n/a	n/a	n/a	0	0	0
742876	REC_WORD	wordpools/wasnorm_wordpool_576.txt	LTP377	ltpFR2	7	4	BASEMENT	94	n/a	n/a	0	0	0
743644	REC_WORD	wordpools/wasnorm_wordpool_576.txt	LTP377	ltpFR2	7	4	WHISTLE	1606	n/a	n/a	0	0	0
744719	REC_WORD	wordpools/wasnorm_wordpool_576.txt	LTP377	ltpFR2	7	4	MUSTARD	935	n/a	n/a	0	0	0
745543	REC_WORD	wordpools/wasnorm_wordpool_576.txt	LTP377	ltpFR2	7	4	MILK	895	n/a	n/a	0	0	0
746170	REC_WORD	wordpools/wasnorm_wordpool_576.txt	LTP377	ltpFR2	7	4	COFFEE	341	n/a	n/a	0	0	0
747912	REC_WORD	wordpools/wasnorm_wordpool_576.txt	LTP377	ltpFR2	7	4	WINE	1613	n/a	n/a	0	0	0
759513	REC_WORD	wordpools/wasnorm_wordpool_576.txt	LTP377	ltpFR2	7	4	KEYBOARD	774	n/a	n/a	0	0	0
767642	REC_WORD	wordpools/wasnorm_wordpool_576.txt	LTP377	ltpFR2	7	4	PEACH	1031	n/a	n/a	0	0	0
768043	REC_WORD	wordpools/wasnorm_wordpool_576.txt	LTP377	ltpFR2	7	4	FRUIT	610	n/a	n/a	0	0	0
832837	WORD	wordpools/wasnorm_wordpool_576.txt	LTP377	ltpFR2	7	5	COUCH	386	n/a	n/a	0	0	0
835636	WORD	wordpools/wasnorm_wordpool_576.txt	LTP377	ltpFR2	7	5	SAUSAGE	1238	n/a	n/a	0	0	0
838071	WORD	wordpools/wasnorm_wordpool_576.txt	LTP377	ltpFR2	7	5	WAITER	1580	n/a	n/a	0	0	0
840536	WORD	wordpools/wasnorm_wordpool_576.txt	LTP377	ltpFR2	7	5	SMOG	1330	n/a	n/a	0	0	0
843337	WORD	wordpools/wasnorm_wordpool_576.txt	LTP377	ltpFR2	7	5	LONDON	843	n/a	n/a	0	0	0
845887	WORD	wordpools/wasnorm_wordpool_576.txt	LTP377	ltpFR2	7	5	SPONGE	1355	n/a	n/a	0	0	0
848403	WORD	wordpools/wasnorm_wordpool_576.txt	LTP377	ltpFR2	7	5	BROOK	177	n/a	n/a	0	0	0
850954	WORD	wordpools/wasnorm_wordpool_576.txt	LTP377	ltpFR2	7	5	SHOULDER	1294	n/a	n/a	0	0	0
853720	WORD	wordpools/wasnorm_wordpool_576.txt	LTP377	ltpFR2	7	5	SHELF	1280	n/a	n/a	0	0	0
856403	WORD	wordpools/wasnorm_wordpool_576.txt	LTP377	ltpFR2	7	5	DANDRUFF	439	n/a	n/a	0	0	0
859170	WORD	wordpools/wasnorm_wordpool_576.txt	LTP377	ltpFR2	7	5	CONCERT	360	n/a	n/a	0	0	0
861887	WORD	wordpools/wasnorm_wordpool_576.txt	LTP377	ltpFR2	7	5	COLONEL	348	n/a	n/a	0	0	0
864469	WORD	wordpools/wasnorm_wordpool_576.txt	LTP377	ltpFR2	7	5	RATTLE	1170	n/a	n/a	0	0	0
867054	WORD	wordpools/wasnorm_wordpool_576.txt	LTP377	ltpFR2	7	5	MOP	916	n/a	n/a	0	0	0
869536	WORD	wordpools/wasnorm_wordpool_576.txt	LTP377	ltpFR2	7	5	BACON	67	n/a	n/a	0	0	0
872020	WORD	wordpools/wasnorm_wordpool_576.txt	LTP377	ltpFR2	7	5	GRAVEL	659	n/a	n/a	0	0	0
874469	WORD	wordpools/wasnorm_wordpool_576.txt	LTP377	ltpFR2	7	5	STOMACH	1384	n/a	n/a	0	0	0
877137	WORD	wordpools/wasnorm_wordpool_576.txt	LTP377	ltpFR2	7	5	REPORT	1184	n/a	n/a	0	0	0
879752	WORD	wordpools/wasnorm_wordpool_576.txt	LTP377	ltpFR2	7	5	FLAG	573	n/a	n/a	0	0	0
882237	WORD	wordpools/wasnorm_wordpool_576.txt	LTP377	ltpFR2	7	5	CUPBOARD	425	n/a	n/a	0	0	0
884887	WORD	wordpools/wasnorm_wordpool_576.txt	LTP377	ltpFR2	7	5	DUSTPAN	509	n/a	n/a	0	0	0
887519	WORD	wordpools/wasnorm_wordpool_576.txt	LTP377	ltpFR2	7	5	MUFFIN	929	n/a	n/a	0	0	0
890087	WORD	wordpools/wasnorm_wordpool_576.txt	LTP377	ltpFR2	7	5	PEANUT	1032	n/a	n/a	0	0	0
892819	WORD	wordpools/wasnorm_wordpool_576.txt	LTP377	ltpFR2	7	5	PICNIC	1060	n/a	n/a	0	0	0
894436	START	n/a	LTP377	ltpFR2	7	n/a	n/a	n/a	7	n/a	n/a	n/a	n/a
895536	DISTRACTOR	n/a	LTP377	ltpFR2	7	5	n/a	n/a	n/a	n/a	0	0	0
895552	PROB	n/a	LTP377	ltpFR2	7	n/a	n/a	n/a	7	15	3	8	4
897752	PROB	n/a	LTP377	ltpFR2	7	n/a	n/a	n/a	7	20	8	8	4
900253	PROB	n/a	LTP377	ltpFR2	7	n/a	n/a	n/a	7	15	9	5	1
902287	PROB	n/a	LTP377	ltpFR2	7	n/a	n/a	n/a	7	22	5	8	9
905236	PROB	n/a	LTP377	ltpFR2	7	n/a	n/a	n/a	7	15	7	6	2
907535	PROB	n/a	LTP377	ltpFR2	7	n/a	n/a	n/a	7	19	8	8	3
911619	PROB	n/a	LTP377	ltpFR2	7	n/a	n/a	n/a	7	22	5	8	9
913735	PROB	n/a	LTP377	ltpFR2	7	n/a	n/a	n/a	7	17	1	8	8
915303	PROB	n/a	LTP377	ltpFR2	7	n/a	n/a	n/a	7	21	7	6	8
917372	STOP	n/a	LTP377	ltpFR2	7	n/a	n/a	n/a	7	n/a	n/a	n/a	n/a
920220	REC_START	n/a	LTP377	ltpFR2	7	5	n/a	n/a	n/a	n/a	0	0	0
920862	REC_WORD	wordpools/wasnorm_wordpool_576.txt	LTP377	ltpFR2	7	5	PEANUT	1032	n/a	n/a	0	0	0
921579	REC_WORD	wordpools/wasnorm_wordpool_576.txt	LTP377	ltpFR2	7	5	PICNIC	1060	n/a	n/a	0	0	0
928592	REC_WORD	wordpools/wasnorm_wordpool_576.txt	LTP377	ltpFR2	7	5	SAUSAGE	1238	n/a	n/a	0	0	0
929352	REC_WORD	wordpools/wasnorm_wordpool_576.txt	LTP377	ltpFR2	7	5	BACON	67	n/a	n/a	0	0	0
1010667	WORD	wordpools/wasnorm_wordpool_576.txt	LTP377	ltpFR2	7	6	TAXI	1438	n/a	n/a	0	0	0
1013202	WORD	wordpools/wasnorm_wordpool_576.txt	LTP377	ltpFR2	7	6	PERCH	1048	n/a	n/a	0	0	0
1015951	WORD	wordpools/wasnorm_wordpool_576.txt	LTP377	ltpFR2	7	6	JURY	766	n/a	n/a	0	0	0
1018650	WORD	wordpools/wasnorm_wordpool_576.txt	LTP377	ltpFR2	7	6	JELLO	754	n/a	n/a	0	0	0
1021151	WORD	wordpools/wasnorm_wordpool_576.txt	LTP377	ltpFR2	7	6	RECEIPT	1173	n/a	n/a	0	0	0
1023901	WORD	wordpools/wasnorm_wordpool_576.txt	LTP377	ltpFR2	7	6	OYSTER	995	n/a	n/a	0	0	0
1026567	WORD	wordpools/wasnorm_wordpool_576.txt	LTP377	ltpFR2	7	6	ORANGE	980	n/a	n/a	0	0	0
1029251	WORD	wordpools/wasnorm_wordpool_576.txt	LTP377	ltpFR2	7	6	GAVEL	627	n/a	n/a	0	0	0
1032051	WORD	wordpools/wasnorm_wordpool_576.txt	LTP377	ltpFR2	7	6	ARM	38	n/a	n/a	0	0	0
1034767	WORD	wordpools/wasnorm_wordpool_576.txt	LTP377	ltpFR2	7	6	LEG	809	n/a	n/a	0	0	0
1037583	WORD	wordpools/wasnorm_wordpool_576.txt	LTP377	ltpFR2	7	6	TURKEY	1520	n/a	n/a	0	0	0
1040101	WORD	wordpools/wasnorm_wordpool_576.txt	LTP377	ltpFR2	7	6	ROOSTER	1209	n/a	n/a	0	0	0
1042867	WORD	wordpools/wasnorm_wordpool_576.txt	LTP377	ltpFR2	7	6	CARROT	249	n/a	n/a	0	0	0
1045483	WORD	wordpools/wasnorm_wordpool_576.txt	LTP377	ltpFR2	7	6	BANJO	82	n/a	n/a	0	0	0
1047918	WORD	wordpools/wasnorm_wordpool_576.txt	LTP377	ltpFR2	7	6	SUPPER	1411	n/a	n/a	0	0	0
1050433	WORD	wordpools/wasnorm_wordpool_576.txt	LTP377	ltpFR2	7	6	SPOON	1357	n/a	n/a	0	0	0
1052984	WORD	wordpools/wasnorm_wordpool_576.txt	LTP377	ltpFR2	7	6	GRAPE	654	n/a	n/a	0	0	0
1055533	WORD	wordpools/wasnorm_wordpool_576.txt	LTP377	ltpFR2	7	6	VIKING	1565	n/a	n/a	0	0	0
1058267	WORD	wordpools/wasnorm_wordpool_576.txt	LTP377	ltpFR2	7	6	RAFT	1159	n/a	n/a	0	0	0
1060901	WORD	wordpools/wasnorm_wordpool_576.txt	LTP377	ltpFR2	7	6	HEART	697	n/a	n/a	0	0	0
1063400	WORD	wordpools/wasnorm_wordpool_576.txt	LTP377	ltpFR2	7	6	LABEL	790	n/a	n/a	0	0	0
1066134	WORD	wordpools/wasnorm_wordpool_576.txt	LTP377	ltpFR2	7	6	DRUG	501	n/a	n/a	0	0	0
1068816	WORD	wordpools/wasnorm_wordpool_576.txt	LTP377	ltpFR2	7	6	COUNTRY	388	n/a	n/a	0	0	0
1071533	WORD	wordpools/wasnorm_wordpool_576.txt	LTP377	ltpFR2	7	6	FLUTE	585	n/a	n/a	0	0	0
1073134	START	n/a	LTP377	ltpFR2	7	n/a	n/a	n/a	8	n/a	n/a	n/a	n/a
1074160	DISTRACTOR	n/a	LTP377	ltpFR2	7	6	n/a	n/a	n/a	n/a	0	0	0
1074167	PROB	n/a	LTP377	ltpFR2	7	n/a	n/a	n/a	8	15	6	8	1
1077084	PROB	n/a	LTP377	ltpFR2	7	n/a	n/a	n/a	8	7	1	4	2
1079000	PROB	n/a	LTP377	ltpFR2	7	n/a	n/a	n/a	8	19	5	7	7
1082349	PROB	n/a	LTP377	ltpFR2	7	n/a	n/a	n/a	8	9	7	1	1
1083866	PROB	n/a	LTP377	ltpFR2	7	n/a	n/a	n/a	8	17	1	8	8
1085583	PROB	n/a	LTP377	ltpFR2	7	n/a	n/a	n/a	8	19	7	7	5
1088167	PROB	n/a	LTP377	ltpFR2	7	n/a	n/a	n/a	8	15	7	3	5
1090449	PROB	n/a	LTP377	ltpFR2	7	n/a	n/a	n/a	8	20	9	3	8
1093416	PROB	n/a	LTP377	ltpFR2	7	n/a	n/a	n/a	8	17	4	5	8
1095433	PROB	n/a	LTP377	ltpFR2	7	n/a	n/a	n/a	8	15	6	6	3
1097026	STOP	n/a	LTP377	ltpFR2	7	n/a	n/a	n/a	8	n/a	n/a	n/a	n/a
1098967	REC_START	n/a	LTP377	ltpFR2	7	6	n/a	n/a	n/a	n/a	0	0	0
1100026	REC_WORD	wordpools/wasnorm_wordpool_576.txt	LTP377	ltpFR2	7	6	ARM	38	n/a	n/a	0	0	0
1100827	REC_WORD	wordpools/wasnorm_wordpool_576.txt	LTP377	ltpFR2	7	6	LEG	809	n/a	n/a	0	0	0
1105450	REC_WORD	wordpools/wasnorm_wordpool_576.txt	LTP377	ltpFR2	7	6	OYSTER	995	n/a	n/a	0	0	0
1108971	REC_WORD	wordpools/wasnorm_wordpool_576.txt	LTP377	ltpFR2	7	6	JURY	766	n/a	n/a	0	0	0
1109723	REC_WORD	wordpools/wasnorm_wordpool_576.txt	LTP377	ltpFR2	7	6	GAVEL	627	n/a	n/a	0	0	0
1113535	REC_WORD	wordpools/wasnorm_wordpool_576.txt	LTP377	ltpFR2	7	6	TURKEY	1520	n/a	n/a	0	0	0
1114812	REC_WORD	wordpools/wasnorm_wordpool_576.txt	LTP377	ltpFR2	7	6	ROOSTER	1209	n/a	n/a	0	0	0
1118885	REC_WORD	wordpools/wasnorm_wordpool_576.txt	LTP377	ltpFR2	7	6	ORANGE	980	n/a	n/a	0	0	0
1119933	REC_WORD	wordpools/wasnorm_wordpool_576.txt	LTP377	ltpFR2	7	6	GRAPE	654	n/a	n/a	0	0	0
1189398	DISTRACTOR	n/a	LTP377	ltpFR2	7	7	n/a	n/a	n/a	n/a	0	0	0
1189398	START	n/a	LTP377	ltpFR2	7	n/a	n/a	n/a	9	n/a	n/a	n/a	n/a
1189415	PROB	n/a	LTP377	ltpFR2	7	n/a	n/a	n/a	9	15	8	3	4
1194882	PROB	n/a	LTP377	ltpFR2	7	n/a	n/a	n/a	9	18	9	7	2
1197348	PROB	n/a	LTP377	ltpFR2	7	n/a	n/a	n/a	9	19	9	5	5
1199299	PROB	n/a	LTP377	ltpFR2	7	n/a	n/a	n/a	9	11	7	2	2
1206049	PROB	n/a	LTP377	ltpFR2	7	n/a	n/a	n/a	9	8	7	5	1
1208282	PROB	n/a	LTP377	ltpFR2	7	n/a	n/a	n/a	9	10	3	4	3
1212118	STOP	n/a	LTP377	ltpFR2	7	n/a	n/a	n/a	9	n/a	n/a	n/a	n/a
1214547	WORD	wordpools/wasnorm_wordpool_576.txt	LTP377	ltpFR2	7	7	COCOON	339	n/a	n/a	0	0	0
1217265	WORD	wordpools/wasnorm_wordpool_576.txt	LTP377	ltpFR2	7	7	BANK	83	n/a	n/a	0	0	0
1219764	WORD	wordpools/wasnorm_wordpool_576.txt	LTP377	ltpFR2	7	7	WHISKERS	1605	n/a	n/a	0	0	0
1222282	WORD	wordpools/wasnorm_wordpool_576.txt	LTP377	ltpFR2	7	7	INFANT	737	n/a	n/a	0	0	0
1224847	WORD	wordpools/wasnorm_wordpool_576.txt	LTP377	ltpFR2	7	7	COUSIN	392	n/a	n/a	0	0	0
1227581	WORD	wordpools/wasnorm_wordpool_576.txt	LTP377	ltpFR2	7	7	UNCLE	1536	n/a	n/a	0	0	0
1230347	WORD	wordpools/wasnorm_wordpool_576.txt	LTP377	ltpFR2	7	7	MARKER	870	n/a	n/a	0	0	0
1233032	WORD	wordpools/wasnorm_wordpool_576.txt	LTP377	ltpFR2	7	7	ROBBER	1197	n/a	n/a	0	0	0
1235581	WORD	wordpools/wasnorm_wordpool_576.txt	LTP377	ltpFR2	7	7	SUSPECT	1415	n/a	n/a	0	0	0
1238198	WORD	wordpools/wasnorm_wordpool_576.txt	LTP377	ltpFR2	7	7	XEROX	1628	n/a	n/a	0	0	0
1240764	WORD	wordpools/wasnorm_wordpool_576.txt	LTP377	ltpFR2	7	7	PATROL	1027	n/a	n/a	0	0	0
1243430	WORD	wordpools/wasnorm_wordpool_576.txt	LTP377	ltpFR2	7	7	CARRIAGE	248	n/a	n/a	0	0	0
1246048	WORD	wordpools/wasnorm_wordpool_576.txt	LTP377	ltpFR2	7	7	COIN	343	n/a	n/a	0	0	0
1248480	WORD	wordpools/wasnorm_wordpool_576.txt	LTP377	ltpFR2	7	7	COUNTY	389	n/a	n/a	0	0	0
1251165	WORD	wordpools/wasnorm_wordpool_576.txt	LTP377	ltpFR2	7	7	KITCHEN	778	n/a	n/a	0	0	0
1253797	WORD	wordpools/wasnorm_wordpool_576.txt	LTP377	ltpFR2	7	7	SHORTS	1293	n/a	n/a	0	0	0
1256397	WORD	wordpools/wasnorm_wordpool_576.txt	LTP377	ltpFR2	7	7	BODY	145	n/a	n/a	0	0	0
1259181	WORD	wordpools/wasnorm_wordpool_576.txt	LTP377	ltpFR2	7	7	GHETTO	633	n/a	n/a	0	0	0
1261763	WORD	wordpools/wasnorm_wordpool_576.txt	LTP377	ltpFR2	7	7	KNAPSACK	783	n/a	n/a	0	0	0
1264380	WORD	wordpools/wasnorm_wordpool_576.txt	LTP377	ltpFR2	7	7	CURTAIN	427	n/a	n/a	0	0	0
1266998	WORD	wordpools/wasnorm_wordpool_576.txt	LTP377	ltpFR2	7	7	ROD	1203	n/a	n/a	0	0	0
1269813	WORD	wordpools/wasnorm_wordpool_576.txt	LTP377	ltpFR2	7	7	FOX	598	n/a	n/a	0	0	0
1272380	WORD	wordpools/wasnorm_wordpool_576.txt	LTP377	ltpFR2	7	7	BUBBLE	183	n/a	n/a	0	0	0
1275181	WORD	wordpools/wasnorm_wordpool_576.txt	LTP377	ltpFR2	7	7	SUMMIT	1405	n/a	n/a	0	0	0
1276797	START	n/a	LTP377	ltpFR2	7	n/a	n/a	n/a	10	n/a	n/a	n/a	n/a
1277881	DISTRACTOR	n/a	LTP377	ltpFR2	7	7	n/a	n/a	n/a	n/a	0	0	0
1277897	PROB	n/a	LTP377	ltpFR2	7	n/a	n/a	n/a	10	19	8	4	7
1287763	PROB	n/a	LTP377	ltpFR2	7	n/a	n/a	n/a	10	13	7	2	4
1293197	PROB	n/a	LTP377	ltpFR2	7	n/a	n/a	n/a	10	15	5	8	2
1294881	PROB	n/a	LTP377	ltpFR2	7	n/a	n/a	n/a	10	11	7	2	2
1297281	PROB	n/a	LTP377	ltpFR2	7	n/a	n/a	n/a	10	15	5	6	4
1300797	STOP	n/a	LTP377	ltpFR2	7	n/a	n/a	n/a	10	n/a	n/a	n/a	n/a
1302747	REC_START	n/a	LTP377	ltpFR2	7	7	n/a	n/a	n/a	n/a	0	0	0
1303960	REC_WORD	wordpools/wasnorm_wordpool_576.txt	LTP377	ltpFR2	7	7	CURTAIN	427	n/a	n/a	0	0	0
1304919	REC_WORD	wordpools/wasnorm_wordpool_576.txt	LTP377	ltpFR2	7	7	ROD	1203	n/a	n/a	0	0	0
1313722	REC_WORD	wordpools/wasnorm_wordpool_576.txt	LTP377	ltpFR2	7	7	INFANT	737	n/a	n/a	0	0	0
1393196	WORD	wordpools/wasnorm_wordpool_576.txt	LTP377	ltpFR2	7	8	TWEEZERS	1526	n/a	n/a	0	0	0
1395929	WORD	wordpools/wasnorm_wordpool_576.txt	LTP377	ltpFR2	7	8	BOUQUET	157	n/a	n/a	0	0	0
1398661	WORD	wordpools/wasnorm_wordpool_576.txt	LTP377	ltpFR2	7	8	GANGSTER	620	n/a	n/a	0	0	0
1401361	WORD	wordpools/wasnorm_wordpool_576.txt	LTP377	ltpFR2	7	8	BULLET	194	n/a	n/a	0	0	0
1403845	WORD	wordpools/wasnorm_wordpool_576.txt	LTP377	ltpFR2	7	8	OUTFIT	988	n/a	n/a	0	0	0
1406511	WORD	wordpools/wasnorm_wordpool_576.txt	LTP377	ltpFR2	7	8	WARDROBE	1587	n/a	n/a	0	0	0
1409012	WORD	wordpools/wasnorm_wordpool_576.txt	LTP377	ltpFR2	7	8	HAWK	692	n/a	n/a	0	0	0
1411711	WORD	wordpools/wasnorm_wordpool_576.txt	LTP377	ltpFR2	7	8	PASTA	1021	n/a	n/a	0	0	0
1414312	WORD	wordpools/wasnorm_wordpool_576.txt	LTP377	ltpFR2	7	8	WRENCH	1625	n/a	n/a	0	0	0
1417145	WORD	wordpools/wasnorm_wordpool_576.txt	LTP377	ltpFR2	7	8	ARMY	39	n/a	n/a	0	0	0
1419694	WORD	wordpools/wasnorm_wordpool_576.txt	LTP377	ltpFR2	7	8	CHURCH	307	n/a	n/a	0	0	0
1422378	WORD	wordpools/wasnorm_wordpool_576.txt	LTP377	ltpFR2	7	8	PIGEON	1065	n/a	n/a	0	0	0
1425162	WORD	wordpools/wasnorm_wordpool_576.txt	LTP377	ltpFR2	7	8	INMATE	738	n/a	n/a	0	0	0
1427895	WORD	wordpools/wasnorm_wordpool_576.txt	LTP377	ltpFR2	7	8	OUTLAW	989	n/a	n/a	0	0	0
1430411	WORD	wordpools/wasnorm_wordpool_576.txt	LTP377	ltpFR2	7	8	DRESSER	496	n/a	n/a	0	0	0
1433112	WORD	wordpools/wasnorm_wordpool_576.txt	LTP377	ltpFR2	7	8	CROSS	413	n/a	n/a	0	0	0
1435694	WORD	wordpools/wasnorm_wordpool_576.txt	LTP377	ltpFR2	7	8	ULCER	1533	n/a	n/a	0	0	0
1438162	WORD	wordpools/wasnorm_wordpool_576.txt	LTP377	ltpFR2	7	8	CRUTCH	417	n/a	n/a	0	0	0
1440861	WORD	wordpools/wasnorm_wordpool_576.txt	LTP377	ltpFR2	7	8	ICEBERG	731	n/a	n/a	0	0	0
1443344	WORD	wordpools/wasnorm_wordpool_576.txt	LTP377	ltpFR2	7	8	MEAT	883	n/a	n/a	0	0	0
1445777	WORD	wordpools/wasnorm_wordpool_576.txt	LTP377	ltpFR2	7	8	GUARD	667	n/a	n/a	0	0	0
1448527	WORD	wordpools/wasnorm_wordpool_576.txt	LTP377	ltpFR2	7	8	ROBIN	1199	n/a	n/a	0	0	0
1451178	WORD	wordpools/wasnorm_wordpool_576.txt	LTP377	ltpFR2	7	8	EAGLE	512	n/a	n/a	0	0	0
1453627	WORD	wordpools/wasnorm_wordpool_576.txt	LTP377	ltpFR2	7	8	MASK	876	n/a	n/a	0	0	0
1455228	START	n/a	LTP377	ltpFR2	7	n/a	n/a	n/a	11	n/a	n/a	n/a	n/a
1456254	DISTRACTOR	n/a	LTP377	ltpFR2	7	8	n/a	n/a	n/a	n/a	0	0	0
1456262	PROB	n/a	LTP377	ltpFR2	7	n/a	n/a	n/a	11	11	3	5	3
1459028	PROB	n/a	LTP377	ltpFR2	7	n/a	n/a	n/a	11	14	5	8	1
1461011	PROB	n/a	LTP377	ltpFR2	7	n/a	n/a	n/a	11	10	3	3	4
1462710	PROB	n/a	LTP377	ltpFR2	7	n/a	n/a	n/a	11	13	1	4	8
1464710	PROB	n/a	LTP377	ltpFR2	7	n/a	n/a	n/a	11	14	1	5	8
1466677	PROB	n/a	LTP377	ltpFR2	7	n/a	n/a	n/a	11	20	9	4	7
1469295	PROB	n/a	LTP377	ltpFR2	7	n/a	n/a	n/a	11	18	7	4	7
1471394	PROB	n/a	LTP377	ltpFR2	7	n/a	n/a	n/a	11	21	9	3	9
1474061	PROB	n/a	LTP377	ltpFR2	7	n/a	n/a	n/a	11	14	9	4	1
1478190	STOP	n/a	LTP377	ltpFR2	7	n/a	n/a	n/a	11	n/a	n/a	n/a	n/a
1481012	REC_START	n/a	LTP377	ltpFR2	7	8	n/a	n/a	n/a	n/a	0	0	0
1482065	REC_WORD	wordpools/wasnorm_wordpool_576.txt	LTP377	ltpFR2	7	8	HAWK	692	n/a	n/a	0	0	0
1482969	REC_WORD	wordpools/wasnorm_wordpool_576.txt	LTP377	ltpFR2	7	8	EAGLE	512	n/a	n/a	0	0	0
1486534	REC_WORD	wordpools/wasnorm_wordpool_576.txt	LTP377	ltpFR2	7	8	SHORTS	1293	n/a	n/a	0	0	0
1496138	REC_WORD	wordpools/wasnorm_wordpool_576.txt	LTP377	ltpFR2	7	8	CRUTCH	417	n/a	n/a	0	0	0
1504735	REC_WORD	wordpools/wasnorm_wordpool_576.txt	LTP377	ltpFR2	7	8	MEAT	883	n/a	n/a	0	0	0
1522094	REC_WORD	wordpools/wasnorm_wordpool_576.txt	LTP377	ltpFR2	7	8	BULLET	194	n/a	n/a	0	0	0
1535709	REC_WORD	wordpools/wasnorm_wordpool_576.txt	LTP377	ltpFR2	7	8	ARMY	39	n/a	n/a	0	0	0
1557559	REST_REWET	n/a	LTP377	ltpFR2	7	8	n/a	n/a	n/a	n/a	0	0	0
1639391	WORD	wordpools/wasnorm_wordpool_576.txt	LTP377	ltpFR2	7	9	BACKBONE	66	n/a	n/a	0	0	0
1641925	WORD	wordpools/wasnorm_wordpool_576.txt	LTP377	ltpFR2	7	9	CHEST	295	n/a	n/a	0	0	0
1644741	WORD	wordpools/wasnorm_wordpool_576.txt	LTP377	ltpFR2	7	9	STAKE	1368	n/a	n/a	0	0	0
1647374	WORD	wordpools/wasnorm_wordpool_576.txt	LTP377	ltpFR2	7	9	PADDLE	1000	n/a	n/a	0	0	0
1649975	WORD	wordpools/wasnorm_wordpool_576.txt	LTP377	ltpFR2	7	9	COLLEGE	346	n/a	n/a	0	0	0
1652424	WORD	wordpools/wasnorm_wordpool_576.txt	LTP377	ltpFR2	7	9	OUTDOORS	987	n/a	n/a	0	0	0
1654975	WORD	wordpools/wasnorm_wordpool_576.txt	LTP377	ltpFR2	7	9	PARENT	1013	n/a	n/a	0	0	0
1657724	WORD	wordpools/wasnorm_wordpool_576.txt	LTP377	ltpFR2	7	9	DENIM	446	n/a	n/a	0	0	0
1660407	WORD	wordpools/wasnorm_wordpool_576.txt	LTP377	ltpFR2	7	9	STREAM	1392	n/a	n/a	0	0	0
1663108	WORD	wordpools/wasnorm_wordpool_576.txt	LTP377	ltpFR2	7	9	WAGON	1578	n/a	n/a	0	0	0
1665724	WORD	wordpools/wasnorm_wordpool_576.txt	LTP377	ltpFR2	7	9	KIDNEY	776	n/a	n/a	0	0	0
1668407	WORD	wordpools/wasnorm_wordpool_576.txt	LTP377	ltpFR2	7	9	MARROW	872	n/a	n/a	0	0	0
1671208	WORD	wordpools/wasnorm_wordpool_576.txt	LTP377	ltpFR2	7	9	FLASHLIGHT	575	n/a	n/a	0	0	0
1673874	WORD	wordpools/wasnorm_wordpool_576.txt	LTP377	ltpFR2	7	9	GRAVE	658	n/a	n/a	0	0	0
1676490	WORD	wordpools/wasnorm_wordpool_576.txt	LTP377	ltpFR2	7	9	PEBBLE	1035	n/a	n/a	0	0	0
1679141	WORD	wordpools/wasnorm_wordpool_576.txt	LTP377	ltpFR2	7	9	STONE	1385	n/a	n/a	0	0	0
1681857	WORD	wordpools/wasnorm_wordpool_576.txt	LTP377	ltpFR2	7	9	WORKER	1621	n/a	n/a	0	0	0
1684640	WORD	wordpools/wasnorm_wordpool_576.txt	LTP377	ltpFR2	7	9	MILDEW	893	n/a	n/a	0	0	0
1687275	WORD	wordpools/wasnorm_wordpool_576.txt	LTP377	ltpFR2	7	9	LACE	792	n/a	n/a	0	0	0
1690025	WORD	wordpools/wasnorm_wordpool_576.txt	LTP377	ltpFR2	7	9	MARINE	869	n/a	n/a	0	0	0
1692540	WORD	wordpools/wasnorm_wordpool_576.txt	LTP377	ltpFR2	7	9	BUCKET	184	n/a	n/a	0	0	0
1695175	WORD	wordpools/wasnorm_wordpool_576.txt	LTP377	ltpFR2	7	9	BADGE	68	n/a	n/a	0	0	0
1697974	WORD	wordpools/wasnorm_wordpool_576.txt	LTP377	ltpFR2	7	9	AGENT	10	n/a	n/a	0	0	0
1700673	WORD	wordpools/wasnorm_wordpool_576.txt	LTP377	ltpFR2	7	9	SLOPE	1328	n/a	n/a	0	0	0
1702275	START	n/a	LTP377	ltpFR2	7	n/a	n/a	n/a	12	n/a	n/a	n/a	n/a
1703197	DISTRACTOR	n/a	LTP377	ltpFR2	7	9	n/a	n/a	n/a	n/a	0	0	0
1703208	PROB	n/a	LTP377	ltpFR2	7	n/a	n/a	n/a	12	21	6	8	7
1705224	PROB	n/a	LTP377	ltpFR2	7	n/a	n/a	n/a	12	12	2	8	2
1707008	PROB	n/a	LTP377	ltpFR2	7	n/a	n/a	n/a	12	13	2	6	5
1709607	PROB	n/a	LTP377	ltpFR2	7	n/a	n/a	n/a	12	17	8	8	1
1711640	PROB	n/a	LTP377	ltpFR2	7	n/a	n/a	n/a	12	15	5	4	6
1715158	PROB	n/a	LTP377	ltpFR2	7	n/a	n/a	n/a	12	14	4	7	3
1717907	PROB	n/a	LTP377	ltpFR2	7	n/a	n/a	n/a	12	17	5	8	4
1720174	PROB	n/a	LTP377	ltpFR2	7	n/a	n/a	n/a	12	14	2	7	5
1725357	STOP	n/a	LTP377	ltpFR2	7	n/a	n/a	n/a	12	n/a	n/a	n/a	n/a
1728041	REC_START	n/a	LTP377	ltpFR2	7	9	n/a	n/a	n/a	n/a	0	0	0
1729755	REC_WORD	wordpools/wasnorm_wordpool_576.txt	LTP377	ltpFR2	7	9	WORKER	1621	n/a	n/a	0	0	0
1730811	REC_WORD	wordpools/wasnorm_wordpool_576.txt	LTP377	ltpFR2	7	9	MILDEW	893	n/a	n/a	0	0	0
1731795	REC_WORD	wordpools/wasnorm_wordpool_576.txt	LTP377	ltpFR2	7	9	LACE	792	n/a	n/a	0	0	0
1734031	REC_WORD	wordpools/wasnorm_wordpool_576.txt	LTP377	ltpFR2	7	9	CHEST	295	n/a	n/a	0	0	0
1734690	REC_WORD	wordpools/wasnorm_wordpool_576.txt	LTP377	ltpFR2	7	9	BACKBONE	66	n/a	n/a	0	0	0
1818488	WORD	wordpools/wasnorm_wordpool_576.txt	LTP377	ltpFR2	7	10	RECORD	1176	n/a	n/a	0	0	0
1821289	WORD	wordpools/wasnorm_wordpool_576.txt	LTP377	ltpFR2	7	10	BANQUET	86	n/a	n/a	0	0	0
1823788	WORD	wordpools/wasnorm_wordpool_576.txt	LTP377	ltpFR2	7	10	DOUGHNUT	490	n/a	n/a	0	0	0
1826438	WORD	wordpools/wasnorm_wordpool_576.txt	LTP377	ltpFR2	7	10	SWORD	1423	n/a	n/a	0	0	0
1828939	WORD	wordpools/wasnorm_wordpool_576.txt	LTP377	ltpFR2	7	10	BEEF	113	n/a	n/a	0	0	0
1831405	WORD	wordpools/wasnorm_wordpool_576.txt	LTP377	ltpFR2	7	10	CLIMBER	323	n/a	n/a	0	0	0
1834039	WORD	wordpools/wasnorm_wordpool_576.txt	LTP377	ltpFR2	7	10	KEEPER	769	n/a	n/a	0	0	0
1836721	WORD	wordpools/wasnorm_wordpool_576.txt	LTP377	ltpFR2	7	10	SHRUB	1299	n/a	n/a	0	0	0
1839256	WORD	wordpools/wasnorm_wordpool_576.txt	LTP377	ltpFR2	7	10	STALLION	1369	n/a	n/a	0	0	0
1841821	WORD	wordpools/wasnorm_wordpool_576.txt	LTP377	ltpFR2	7	10	AIRPORT	13	n/a	n/a	0	0	0
1844621	WORD	wordpools/wasnorm_wordpool_576.txt	LTP377	ltpFR2	7	10	GOBLIN	645	n/a	n/a	0	0	0
1847289	WORD	wordpools/wasnorm_wordpool_576.txt	LTP377	ltpFR2	7	10	WAITRESS	1581	n/a	n/a	0	0	0
1849755	WORD	wordpools/wasnorm_wordpool_576.txt	LTP377	ltpFR2	7	10	SERVANT	1271	n/a	n/a	0	0	0
1852322	WORD	wordpools/wasnorm_wordpool_576.txt	LTP377	ltpFR2	7	10	TUBA	1515	n/a	n/a	0	0	0
1854821	WORD	wordpools/wasnorm_wordpool_576.txt	LTP377	ltpFR2	7	10	PIANO	1057	n/a	n/a	0	0	0
1857588	WORD	wordpools/wasnorm_wordpool_576.txt	LTP377	ltpFR2	7	10	DRAWING	494	n/a	n/a	0	0	0
1860055	WORD	wordpools/wasnorm_wordpool_576.txt	LTP377	ltpFR2	7	10	BUTCHER	203	n/a	n/a	0	0	0
1862838	WORD	wordpools/wasnorm_wordpool_576.txt	LTP377	ltpFR2	7	10	PREACHER	1119	n/a	n/a	0	0	0
1865621	WORD	wordpools/wasnorm_wordpool_576.txt	LTP377	ltpFR2	7	10	CASKET	255	n/a	n/a	0	0	0
1868322	WORD	wordpools/wasnorm_wordpool_576.txt	LTP377	ltpFR2	7	10	FRAME	600	n/a	n/a	0	0	0
1870905	WORD	wordpools/wasnorm_wordpool_576.txt	LTP377	ltpFR2	7	10	ZEBRA	1635	n/a	n/a	0	0	0
1873437	WORD	wordpools/wasnorm_wordpool_576.txt	LTP377	ltpFR2	7	10	CYCLONE	431	n/a	n/a	0	0	0
1876005	WORD	wordpools/wasnorm_wordpool_576.txt	LTP377	ltpFR2	7	10	BARLEY	88	n/a	n/a	0	0	0
1878671	WORD	wordpools/wasnorm_wordpool_576.txt	LTP377	ltpFR2	7	10	BANKER	84	n/a	n/a	0	0	0
1880289	START	n/a	LTP377	ltpFR2	7	n/a	n/a	n/a	13	n/a	n/a	n/a	n/a
1881128	DISTRACTOR	n/a	LTP377	ltpFR2	7	10	n/a	n/a	n/a	n/a	0	0	0
1881138	PROB	n/a	LTP377	ltpFR2	7	n/a	n/a	n/a	13	16	3	4	9
1884072	PROB	n/a	LTP377	ltpFR2	7	n/a	n/a	n/a	13	13	9	3	1
1885821	PROB	n/a	LTP377	ltpFR2	7	n/a	n/a	n/a	13	18	4	9	5
1887871	PROB	n/a	LTP377	ltpFR2	7	n/a	n/a	n/a	13	24	9	9	6
1891554	PROB	n/a	LTP377	ltpFR2	7	n/a	n/a	n/a	13	10	4	2	4
1893770	PROB	n/a	LTP377	ltpFR2	7	n/a	n/a	n/a	13	19	5	9	5
1895604	PROB	n/a	LTP377	ltpFR2	7	n/a	n/a	n/a	13	12	4	1	7
1898854	PROB	n/a	LTP377	ltpFR2	7	n/a	n/a	n/a	13	15	7	5	3
1904289	STOP	n/a	LTP377	ltpFR2	7	n/a	n/a	n/a	13	n/a	n/a	n/a	n/a
1906188	REC_START	n/a	LTP377	ltpFR2	7	10	n/a	n/a	n/a	n/a	0	0	0
1907892	REC_WORD	wordpools/wasnorm_wordpool_576.txt	LTP377	ltpFR2	7	10	BARLEY	88	n/a	n/a	0	0	0
1917974	REC_WORD	wordpools/wasnorm_wordpool_576.txt	LTP377	ltpFR2	7	10	AIRPORT	13	n/a	n/a	0	0	0
1921401	REC_WORD	wordpools/wasnorm_wordpool_576.txt	LTP377	ltpFR2	7	10	RECORD	1176	n/a	n/a	0	0	0
1925975	REC_WORD	wordpools/wasnorm_wordpool_576.txt	LTP377	ltpFR2	7	10	GOBLIN	645	n/a	n/a	0	0	0
1934727	REC_WORD	wordpools/wasnorm_wordpool_576.txt	LTP377	ltpFR2	7	10	FRAME	600	n/a	n/a	0	0	0
1939055	REC_WORD	wordpools/wasnorm_wordpool_576.txt	LTP377	ltpFR2	7	10	ZEBRA	1635	n/a	n/a	0	0	0
1940029	REC_WORD	wordpools/wasnorm_wordpool_576.txt	LTP377	ltpFR2	7	10	BEEF	113	n/a	n/a	0	0	0
1940815	REC_WORD	wordpools/wasnorm_wordpool_576.txt	LTP377	ltpFR2	7	10	BUTCHER	203	n/a	n/a	0	0	0
1941482	REC_WORD	wordpools/wasnorm_wordpool_576.txt	LTP377	ltpFR2	7	10	PREACHER	1119	n/a	n/a	0	0	0
1942162	REC_WORD	wordpools/wasnorm_wordpool_576.txt	LTP377	ltpFR2	7	10	CASKET	255	n/a	n/a	0	0	0
1996652	DISTRACTOR	n/a	LTP377	ltpFR2	7	11	n/a	n/a	n/a	n/a	0	0	0
1996652	START	n/a	LTP377	ltpFR2	7	n/a	n/a	n/a	14	n/a	n/a	n/a	n/a
1996669	PROB	n/a	LTP377	ltpFR2	7	n/a	n/a	n/a	14	15	6	2	7
1999153	PROB	n/a	LTP377	ltpFR2	7	n/a	n/a	n/a	14	15	1	6	8
2002386	PROB	n/a	LTP377	ltpFR2	7	n/a	n/a	n/a	14	14	4	1	9
2004619	PROB	n/a	LTP377	ltpFR2	7	n/a	n/a	n/a	14	16	6	5	5
2006369	PROB	n/a	LTP377	ltpFR2	7	n/a	n/a	n/a	14	14	7	6	1
2008569	PROB	n/a	LTP377	ltpFR2	7	n/a	n/a	n/a	14	7	1	4	2
2010419	PROB	n/a	LTP377	ltpFR2	7	n/a	n/a	n/a	14	19	4	8	7
2013236	PROB	n/a	LTP377	ltpFR2	7	n/a	n/a	n/a	14	15	5	4	6
2016652	PROB	n/a	LTP377	ltpFR2	7	n/a	n/a	n/a	14	6	2	3	1
2020652	STOP	n/a	LTP377	ltpFR2	7	n/a	n/a	n/a	14	n/a	n/a	n/a	n/a
2021769	WORD	wordpools/wasnorm_wordpool_576.txt	LTP377	ltpFR2	7	11	DOLPHIN	483	n/a	n/a	0	0	0
2024435	WORD	wordpools/wasnorm_wordpool_576.txt	LTP377	ltpFR2	7	11	STAR	1373	n/a	n/a	0	0	0
2027086	WORD	wordpools/wasnorm_wordpool_576.txt	LTP377	ltpFR2	7	11	COOK	372	n/a	n/a	0	0	0
2029868	WORD	wordpools/wasnorm_wordpool_576.txt	LTP377	ltpFR2	7	11	NOVEL	960	n/a	n/a	0	0	0
2032468	WORD	wordpools/wasnorm_wordpool_576.txt	LTP377	ltpFR2	7	11	QUARTER	1148	n/a	n/a	0	0	0
2035219	WORD	wordpools/wasnorm_wordpool_576.txt	LTP377	ltpFR2	7	11	POISON	1096	n/a	n/a	0	0	0
2037903	WORD	wordpools/wasnorm_wordpool_576.txt	LTP377	ltpFR2	7	11	CAMEL	223	n/a	n/a	0	0	0
2040435	WORD	wordpools/wasnorm_wordpool_576.txt	LTP377	ltpFR2	7	11	MARSH	874	n/a	n/a	0	0	0
2043019	WORD	wordpools/wasnorm_wordpool_576.txt	LTP377	ltpFR2	7	11	PATIENT	1024	n/a	n/a	0	0	0
2045635	WORD	wordpools/wasnorm_wordpool_576.txt	LTP377	ltpFR2	7	11	ASIA	46	n/a	n/a	0	0	0
2048402	WORD	wordpools/wasnorm_wordpool_576.txt	LTP377	ltpFR2	7	11	ATLAS	53	n/a	n/a	0	0	0
2050969	WORD	wordpools/wasnorm_wordpool_576.txt	LTP377	ltpFR2	7	11	GRILL	661	n/a	n/a	0	0	0
2053551	WORD	wordpools/wasnorm_wordpool_576.txt	LTP377	ltpFR2	7	11	SIDEWALK	1303	n/a	n/a	0	0	0
2056252	WORD	wordpools/wasnorm_wordpool_576.txt	LTP377	ltpFR2	7	11	POCKET	1093	n/a	n/a	0	0	0
2058718	WORD	wordpools/wasnorm_wordpool_576.txt	LTP377	ltpFR2	7	11	LIPSTICK	829	n/a	n/a	0	0	0
2061152	WORD	wordpools/wasnorm_wordpool_576.txt	LTP377	ltpFR2	7	11	FRIEND	606	n/a	n/a	0	0	0
2063618	WORD	wordpools/wasnorm_wordpool_576.txt	LTP377	ltpFR2	7	11	RADISH	1158	n/a	n/a	0	0	0
2066368	WORD	wordpools/wasnorm_wordpool_576.txt	LTP377	ltpFR2	7	11	PARSLEY	1016	n/a	n/a	0	0	0
2068969	WORD	wordpools/wasnorm_wordpool_576.txt	LTP377	ltpFR2	7	11	SWAMP	1416	n/a	n/a	0	0	0
2071635	WORD	wordpools/wasnorm_wordpool_576.txt	LTP377	ltpFR2	7	11	CHIPMUNK	304	n/a	n/a	0	0	0
2074135	WORD	wordpools/wasnorm_wordpool_576.txt	LTP377	ltpFR2	7	11	LAPEL	800	n/a	n/a	0	0	0
2076768	WORD	wordpools/wasnorm_wordpool_576.txt	LTP377	ltpFR2	7	11	SHIRT	1287	n/a	n/a	0	0	0
2079302	WORD	wordpools/wasnorm_wordpool_576.txt	LTP377	ltpFR2	7	11	WIDOW	1608	n/a	n/a	0	0	0
2082102	WORD	wordpools/wasnorm_wordpool_576.txt	LTP377	ltpFR2	7	11	GAZELLE	628	n/a	n/a	0	0	0
2083718	START	n/a	LTP377	ltpFR2	7	n/a	n/a	n/a	15	n/a	n/a	n/a	n/a
2084732	DISTRACTOR	n/a	LTP377	ltpFR2	7	11	n/a	n/a	n/a	n/a	0	0	0
2084734	PROB	n/a	LTP377	ltpFR2	7	n/a	n/a	n/a	15	18	9	1	8
2087019	PROB	n/a	LTP377	ltpFR2	7	n/a	n/a	n/a	15	24	8	8	8
2088834	PROB	n/a	LTP377	ltpFR2	7	n/a	n/a	n/a	15	17	5	9	3
2093885	PROB	n/a	LTP377	ltpFR2	7	n/a	n/a	n/a	15	9	1	7	1
2095368	PROB	n/a	LTP377	ltpFR2	7	n/a	n/a	n/a	15	4	1	1	2
2096919	PROB	n/a	LTP377	ltpFR2	7	n/a	n/a	n/a	15	13	8	1	4
2100268	PROB	n/a	LTP377	ltpFR2	7	n/a	n/a	n/a	15	4	1	1	2
2101584	PROB	n/a	LTP377	ltpFR2	7	n/a	n/a	n/a	15	22	9	9	5
2103285	PROB	n/a	LTP377	ltpFR2	7	n/a	n/a	n/a	15	21	8	4	9
2106393	STOP	n/a	LTP377	ltpFR2	7	n/a	n/a	n/a	15	n/a	n/a	n/a	n/a
2109584	REC_START	n/a	LTP377	ltpFR2	7	11	n/a	n/a	n/a	n/a	0	0	0
2110633	REC_WORD	wordpools/wasnorm_wordpool_576.txt	LTP377	ltpFR2	7	11	LAPEL	800	n/a	n/a	0	0	0
2111688	REC_WORD	wordpools/wasnorm_wordpool_576.txt	LTP377	ltpFR2	7	11	SHIRT	1287	n/a	n/a	0	0	0
2114493	REC_WORD	wordpools/wasnorm_wordpool_576.txt	LTP377	ltpFR2	7	11	POISON	1096	n/a	n/a	0	0	0
2118329	REC_WORD	wordpools/wasnorm_wordpool_576.txt	LTP377	ltpFR2	7	11	LIPSTICK	829	n/a	n/a	0	0	0
2119366	REC_WORD	wordpools/wasnorm_wordpool_576.txt	LTP377	ltpFR2	7	11	FRIEND	606	n/a	n/a	0	0	0
2120922	REC_WORD	wordpools/wasnorm_wordpool_576.txt	LTP377	ltpFR2	7	11	RADISH	1158	n/a	n/a	0	0	0
2130273	REC_WORD	wordpools/wasnorm_wordpool_576.txt	LTP377	ltpFR2	7	11	QUARTER	1148	n/a	n/a	0	0	0
2200000	DISTRACTOR	n/a	LTP377	ltpFR2	7	12	n/a	n/a	n/a	n/a	0	0	0
2200000	START	n/a	LTP377	ltpFR2	7	n/a	n/a	n/a	16	n/a	n/a	n/a	n/a
2200017	PROB	n/a	LTP377	ltpFR2	7	n/a	n/a	n/a	16	14	7	4	3
2203284	PROB	n/a	LTP377	ltpFR2	7	n/a	n/a	n/a	16	7	3	3	1
2204732	PROB	n/a	LTP377	ltpFR2	7	n/a	n/a	n/a	16	16	4	5	7
2207200	PROB	n/a	LTP377	ltpFR2	7	n/a	n/a	n/a	16	15	3	7	5
2209067	PROB	n/a	LTP377	ltpFR2	7	n/a	n/a	n/a	16	18	7	5	6
2211250	PROB	n/a	LTP377	ltpFR2	7	n/a	n/a	n/a	16	20	9	2	9
2212866	PROB	n/a	LTP377	ltpFR2	7	n/a	n/a	n/a	16	14	5	5	4
2214183	PROB	n/a	LTP377	ltpFR2	7	n/a	n/a	n/a	16	17	4	9	4
2216382	PROB	n/a	LTP377	ltpFR2	7	n/a	n/a	n/a	16	14	2	9	3
2218566	PROB	n/a	LTP377	ltpFR2	7	n/a	n/a	n/a	16	24	9	7	8
2223333	STOP	n/a	LTP377	ltpFR2	7	n/a	n/a	n/a	16	n/a	n/a	n/a	n/a
2224849	WORD	wordpools/wasnorm_wordpool_576.txt	LTP377	ltpFR2	7	12	FRAGRANCE	599	n/a	n/a	0	0	0
2227465	WORD	wordpools/wasnorm_wordpool_576.txt	LTP377	ltpFR2	7	12	PROTON	1132	n/a	n/a	0	0	0
2229900	WORD	wordpools/wasnorm_wordpool_576.txt	LTP377	ltpFR2	7	12	PUDDLE	1140	n/a	n/a	0	0	0
2232333	WORD	wordpools/wasnorm_wordpool_576.txt	LTP377	ltpFR2	7	12	FOOT	590	n/a	n/a	0	0	0
2235083	WORD	wordpools/wasnorm_wordpool_576.txt	LTP377	ltpFR2	7	12	FEMALE	559	n/a	n/a	0	0	0
2237615	WORD	wordpools/wasnorm_wordpool_576.txt	LTP377	ltpFR2	7	12	CLAMP	316	n/a	n/a	0	0	0
2240233	WORD	wordpools/wasnorm_wordpool_576.txt	LTP377	ltpFR2	7	12	BEAKER	104	n/a	n/a	0	0	0
2242950	WORD	wordpools/wasnorm_wordpool_576.txt	LTP377	ltpFR2	7	12	BLENDER	136	n/a	n/a	0	0	0
2245499	WORD	wordpools/wasnorm_wordpool_576.txt	LTP377	ltpFR2	7	12	HELMET	702	n/a	n/a	0	0	0
2248066	WORD	wordpools/wasnorm_wordpool_576.txt	LTP377	ltpFR2	7	12	LIVER	833	n/a	n/a	0	0	0
2250699	WORD	wordpools/wasnorm_wordpool_576.txt	LTP377	ltpFR2	7	12	LILY	821	n/a	n/a	0	0	0
2253299	WORD	wordpools/wasnorm_wordpool_576.txt	LTP377	ltpFR2	7	12	PISTON	1076	n/a	n/a	0	0	0
2255782	WORD	wordpools/wasnorm_wordpool_576.txt	LTP377	ltpFR2	7	12	PLAZA	1088	n/a	n/a	0	0	0
2258532	WORD	wordpools/wasnorm_wordpool_576.txt	LTP377	ltpFR2	7	12	BELLY	119	n/a	n/a	0	0	0
2261066	WORD	wordpools/wasnorm_wordpool_576.txt	LTP377	ltpFR2	7	12	MOTOR	922	n/a	n/a	0	0	0
2263883	WORD	wordpools/wasnorm_wordpool_576.txt	LTP377	ltpFR2	7	12	SCRIBBLE	1256	n/a	n/a	0	0	0
2266448	WORD	wordpools/wasnorm_wordpool_576.txt	LTP377	ltpFR2	7	12	NOTEBOOK	959	n/a	n/a	0	0	0
2269133	WORD	wordpools/wasnorm_wordpool_576.txt	LTP377	ltpFR2	7	12	SCULPTURE	1258	n/a	n/a	0	0	0
2271848	WORD	wordpools/wasnorm_wordpool_576.txt	LTP377	ltpFR2	7	12	GIRL	637	n/a	n/a	0	0	0
2274348	WORD	wordpools/wasnorm_wordpool_576.txt	LTP377	ltpFR2	7	12	SISTER	1312	n/a	n/a	0	0	0
2276798	WORD	wordpools/wasnorm_wordpool_576.txt	LTP377	ltpFR2	7	12	DIVER	476	n/a	n/a	0	0	0
2279565	WORD	wordpools/wasnorm_wordpool_576.txt	LTP377	ltpFR2	7	12	BISON	131	n/a	n/a	0	0	0
2282166	WORD	wordpools/wasnorm_wordpool_576.txt	LTP377	ltpFR2	7	12	PIGMENT	1066	n/a	n/a	0	0	0
2284715	WORD	wordpools/wasnorm_wordpool_576.txt	LTP377	ltpFR2	7	12	CRAYON	401	n/a	n/a	0	0	0
2286333	START	n/a	LTP377	ltpFR2	7	n/a	n/a	n/a	17	n/a	n/a	n/a	n/a
2287281	DISTRACTOR	n/a	LTP377	ltpFR2	7	12	n/a	n/a	n/a	n/a	0	0	0
2287299	PROB	n/a	LTP377	ltpFR2	7	n/a	n/a	n/a	17	18	9	6	3
2291648	PROB	n/a	LTP377	ltpFR2	7	n/a	n/a	n/a	17	21	7	8	6
2294065	PROB	n/a	LTP377	ltpFR2	7	n/a	n/a	n/a	17	24	8	8	8
2295448	PROB	n/a	LTP377	ltpFR2	7	n/a	n/a	n/a	17	9	1	1	7
2297581	PROB	n/a	LTP377	ltpFR2	7	n/a	n/a	n/a	17	10	1	3	6
2300199	PROB	n/a	LTP377	ltpFR2	7	n/a	n/a	n/a	17	11	2	5	3
2302049	PROB	n/a	LTP377	ltpFR2	7	n/a	n/a	n/a	17	14	1	9	4
2308099	PROB	n/a	LTP377	ltpFR2	7	n/a	n/a	n/a	17	13	7	1	5
2310280	STOP	n/a	LTP377	ltpFR2	7	n/a	n/a	n/a	17	n/a	n/a	n/a	n/a
2312232	REC_START	n/a	LTP377	ltpFR2	7	12	n/a	n/a	n/a	n/a	0	0	0
2314192	REC_WORD	wordpools/wasnorm_wordpool_576.txt	LTP377	ltpFR2	7	12	FRAGRANCE	599	n/a	n/a	0	0	0
2318507	REC_WORD	wordpools/wasnorm_wordpool_576.txt	LTP377	ltpFR2	7	12	SISTER	1312	n/a	n/a	0	0	0
2320250	REC_WORD	wordpools/wasnorm_wordpool_576.txt	LTP377	ltpFR2	7	12	DOLPHIN	483	n/a	n/a	0	0	0
2321083	REC_WORD	wordpools/wasnorm_wordpool_576.txt	LTP377	ltpFR2	7	12	COOK	372	n/a	n/a	0	0	0
2336871	REC_WORD	wordpools/wasnorm_wordpool_576.txt	LTP377	ltpFR2	7	12	SCULPTURE	1258	n/a	n/a	0	0	0
2340453	REC_WORD	wordpools/wasnorm_wordpool_576.txt	LTP377	ltpFR2	7	12	JOURNAL	760	n/a	n/a	0	0	0
2341893	REC_WORD_VV	wordpools/wasnorm_wordpool_576.txt	LTP377	ltpFR2	7	12	<>	-1	n/a	n/a	0	0	0
2342087	REC_WORD	wordpools/wasnorm_wordpool_576.txt	LTP377	ltpFR2	7	12	SCRIBBLE	1256	n/a	n/a	0	0	0
2342642	REC_WORD	wordpools/wasnorm_wordpool_576.txt	LTP377	ltpFR2	7	12	NOTEBOOK	959	n/a	n/a	0	0	0
2354387	REC_WORD	wordpools/wasnorm_wordpool_576.txt	LTP377	ltpFR2	7	12	MOTOR	922	n/a	n/a	0	0	0
2402679	DISTRACTOR	n/a	LTP377	ltpFR2	7	13	n/a	n/a	n/a	n/a	0	0	0
2402680	START	n/a	LTP377	ltpFR2	7	n/a	n/a	n/a	18	n/a	n/a	n/a	n/a
2402696	PROB	n/a	LTP377	ltpFR2	7	n/a	n/a	n/a	18	18	5	8	5
2404696	PROB	n/a	LTP377	ltpFR2	7	n/a	n/a	n/a	18	24	8	8	8
2407164	PROB	n/a	LTP377	ltpFR2	7	n/a	n/a	n/a	18	17	4	5	8
2408829	PROB	n/a	LTP377	ltpFR2	7	n/a	n/a	n/a	18	15	4	9	2
2410729	PROB	n/a	LTP377	ltpFR2	7	n/a	n/a	n/a	18	13	6	6	1
2412130	PROB	n/a	LTP377	ltpFR2	7	n/a	n/a	n/a	18	24	9	7	8
2414214	PROB	n/a	LTP377	ltpFR2	7	n/a	n/a	n/a	18	15	4	7	4
2416314	PROB	n/a	LTP377	ltpFR2	7	n/a	n/a	n/a	18	22	6	9	7
2420729	PROB	n/a	LTP377	ltpFR2	7	n/a	n/a	n/a	18	17	2	9	6
2424813	PROB	n/a	LTP377	ltpFR2	7	n/a	n/a	n/a	18	10	2	3	5
2426635	STOP	n/a	LTP377	ltpFR2	7	n/a	n/a	n/a	18	n/a	n/a	n/a	n/a
2427846	WORD	wordpools/wasnorm_wordpool_576.txt	LTP377	ltpFR2	7	13	SILK	1307	n/a	n/a	0	0	0
2430462	WORD	wordpools/wasnorm_wordpool_576.txt	LTP377	ltpFR2	7	13	FLOWER	584	n/a	n/a	0	0	0
2433047	WORD	wordpools/wasnorm_wordpool_576.txt	LTP377	ltpFR2	7	13	FRECKLE	602	n/a	n/a	0	0	0
2435679	WORD	wordpools/wasnorm_wordpool_576.txt	LTP377	ltpFR2	7	13	PARROT	1015	n/a	n/a	0	0	0
2438230	WORD	wordpools/wasnorm_wordpool_576.txt	LTP377	ltpFR2	7	13	GUITAR	670	n/a	n/a	0	0	0
2440947	WORD	wordpools/wasnorm_wordpool_576.txt	LTP377	ltpFR2	7	13	BRACES	164	n/a	n/a	0	0	0
2443746	WORD	wordpools/wasnorm_wordpool_576.txt	LTP377	ltpFR2	7	13	PEPPER	1047	n/a	n/a	0	0	0
2446545	WORD	wordpools/wasnorm_wordpool_576.txt	LTP377	ltpFR2	7	13	CONTRACT	368	n/a	n/a	0	0	0
2449180	WORD	wordpools/wasnorm_wordpool_576.txt	LTP377	ltpFR2	7	13	STOVE	1388	n/a	n/a	0	0	0
2451930	WORD	wordpools/wasnorm_wordpool_576.txt	LTP377	ltpFR2	7	13	APRON	35	n/a	n/a	0	0	0
2454712	WORD	wordpools/wasnorm_wordpool_576.txt	LTP377	ltpFR2	7	13	PARTNER	1017	n/a	n/a	0	0	0
2457246	WORD	wordpools/wasnorm_wordpool_576.txt	LTP377	ltpFR2	7	13	BOYFRIEND	162	n/a	n/a	0	0	0
2459729	WORD	wordpools/wasnorm_wordpool_576.txt	LTP377	ltpFR2	7	13	BUG	187	n/a	n/a	0	0	0
2462412	WORD	wordpools/wasnorm_wordpool_576.txt	LTP377	ltpFR2	7	13	PIMPLE	1071	n/a	n/a	0	0	0
2465163	WORD	wordpools/wasnorm_wordpool_576.txt	LTP377	ltpFR2	7	13	YOLK	1633	n/a	n/a	0	0	0
2467728	WORD	wordpools/wasnorm_wordpool_576.txt	LTP377	ltpFR2	7	13	FRIAR	605	n/a	n/a	0	0	0
2470445	WORD	wordpools/wasnorm_wordpool_576.txt	LTP377	ltpFR2	7	13	RUST	1219	n/a	n/a	0	0	0
2473146	WORD	wordpools/wasnorm_wordpool_576.txt	LTP377	ltpFR2	7	13	MISSILE	900	n/a	n/a	0	0	0
2475745	WORD	wordpools/wasnorm_wordpool_576.txt	LTP377	ltpFR2	7	13	EXPERT	543	n/a	n/a	0	0	0
2478495	WORD	wordpools/wasnorm_wordpool_576.txt	LTP377	ltpFR2	7	13	TEACHER	1440	n/a	n/a	0	0	0
2481046	WORD	wordpools/wasnorm_wordpool_576.txt	LTP377	ltpFR2	7	13	DRILL	497	n/a	n/a	0	0	0
2483512	WORD	wordpools/wasnorm_wordpool_576.txt	LTP377	ltpFR2	7	13	RIVER	1194	n/a	n/a	0	0	0
2486179	WORD	wordpools/wasnorm_wordpool_576.txt	LTP377	ltpFR2	7	13	ANKLE	24	n/a	n/a	0	0	0
2488612	WORD	wordpools/wasnorm_wordpool_576.txt	LTP377	ltpFR2	7	13	PENGUIN	1044	n/a	n/a	0	0	0
2490229	START	n/a	LTP377	ltpFR2	7	n/a	n/a	n/a	19	n/a	n/a	n/a	n/a
2491058	DISTRACTOR	n/a	LTP377	ltpFR2	7	13	n/a	n/a	n/a	n/a	0	0	0
2491062	PROB	n/a	LTP377	ltpFR2	7	n/a	n/a	n/a	19	18	7	9	2
2493661	PROB	n/a	LTP377	ltpFR2	7	n/a	n/a	n/a	19	12	2	8	2
2495979	PROB	n/a	LTP377	ltpFR2	7	n/a	n/a	n/a	19	8	2	2	4
2497929	PROB	n/a	LTP377	ltpFR2	7	n/a	n/a	n/a	19	16	2	5	9
2500146	PROB	n/a	LTP377	ltpFR2	7	n/a	n/a	n/a	19	11	2	8	1
2503162	PROB	n/a	LTP377	ltpFR2	7	n/a	n/a	n/a	19	11	1	3	7
2504778	PROB	n/a	LTP377	ltpFR2	7	n/a	n/a	n/a	19	12	7	3	2
2508511	PROB	n/a	LTP377	ltpFR2	7	n/a	n/a	n/a	19	17	9	2	6
2511296	PROB	n/a	LTP377	ltpFR2	7	n/a	n/a	n/a	19	17	1	7	9
2513983	STOP	n/a	LTP377	ltpFR2	7	n/a	n/a	n/a	19	n/a	n/a	n/a	n/a
2516063	REC_START	n/a	LTP377	ltpFR2	7	13	n/a	n/a	n/a	n/a	0	0	0
2516977	REC_WORD	wordpools/wasnorm_wordpool_576.txt	LTP377	ltpFR2	7	13	RIVER	1194	n/a	n/a	0	0	0
2517549	REC_WORD	wordpools/wasnorm_wordpool_576.txt	LTP377	ltpFR2	7	13	ANKLE	24	n/a	n/a	0	0	0
2518041	REC_WORD	wordpools/wasnorm_wordpool_576.txt	LTP377	ltpFR2	7	13	PENGUIN	1044	n/a	n/a	0	0	0
2526834	REC_WORD	wordpools/wasnorm_wordpool_576.txt	LTP377	ltpFR2	7	13	DIVER	476	n/a	n/a	0	0	0
2527764	REC_WORD	wordpools/wasnorm_wordpool_576.txt	LTP377	ltpFR2	7	13	TEACHER	1440	n/a	n/a	0	0	0
2529504	REC_WORD	wordpools/wasnorm_wordpool_576.txt	LTP377	ltpFR2	7	13	DRILL	497	n/a	n/a	0	0	0
2560810	REC_WORD	wordpools/wasnorm_wordpool_576.txt	LTP377	ltpFR2	7	13	ANKLE	24	n/a	n/a	0	0	0
2565343	REC_WORD	wordpools/wasnorm_wordpool_576.txt	LTP377	ltpFR2	7	13	PEPPER	1047	n/a	n/a	0	0	0
2565740	REC_WORD	wordpools/wasnorm_wordpool_576.txt	LTP377	ltpFR2	7	13	APRON	35	n/a	n/a	0	0	0
2566746	REC_WORD	wordpools/wasnorm_wordpool_576.txt	LTP377	ltpFR2	7	13	STOVE	1388	n/a	n/a	0	0	0
2576190	REC_WORD	wordpools/wasnorm_wordpool_576.txt	LTP377	ltpFR2	7	13	PARTNER	1017	n/a	n/a	0	0	0
2576654	REC_WORD	wordpools/wasnorm_wordpool_576.txt	LTP377	ltpFR2	7	13	BOYFRIEND	162	n/a	n/a	0	0	0
2578561	REC_WORD	wordpools/wasnorm_wordpool_576.txt	LTP377	ltpFR2	7	13	RUST	1219	n/a	n/a	0	0	0
2606510	DISTRACTOR	n/a	LTP377	ltpFR2	7	14	n/a	n/a	n/a	n/a	0	0	0
2606510	START	n/a	LTP377	ltpFR2	7	n/a	n/a	n/a	20	n/a	n/a	n/a	n/a
2606526	PROB	n/a	LTP377	ltpFR2	7	n/a	n/a	n/a	20	12	4	7	1
2609311	PROB	n/a	LTP377	ltpFR2	7	n/a	n/a	n/a	20	13	6	4	3
2612977	PROB	n/a	LTP377	ltpFR2	7	n/a	n/a	n/a	20	10	3	5	2
2615793	PROB	n/a	LTP377	ltpFR2	7	n/a	n/a	n/a	20	14	7	2	5
2618111	PROB	n/a	LTP377	ltpFR2	7	n/a	n/a	n/a	20	17	3	6	8
2622994	PROB	n/a	LTP377	ltpFR2	7	n/a	n/a	n/a	20	17	8	1	8
2624826	PROB	n/a	LTP377	ltpFR2	7	n/a	n/a	n/a	20	9	7	1	1
2626443	PROB	n/a	LTP377	ltpFR2	7	n/a	n/a	n/a	20	12	4	6	2
2629689	STOP	n/a	LTP377	ltpFR2	7	n/a	n/a	n/a	20	n/a	n/a	n/a	n/a
2631543	WORD	wordpools/wasnorm_wordpool_576.txt	LTP377	ltpFR2	7	14	VENUS	1557	n/a	n/a	0	0	0
2633977	WORD	wordpools/wasnorm_wordpool_576.txt	LTP377	ltpFR2	7	14	PLUTO	1092	n/a	n/a	0	0	0
2636476	WORD	wordpools/wasnorm_wordpool_576.txt	LTP377	ltpFR2	7	14	SPIDER	1351	n/a	n/a	0	0	0
2639144	WORD	wordpools/wasnorm_wordpool_576.txt	LTP377	ltpFR2	7	14	RACKET	1155	n/a	n/a	0	0	0
2641910	WORD	wordpools/wasnorm_wordpool_576.txt	LTP377	ltpFR2	7	14	SCARECROW	1245	n/a	n/a	0	0	0
2644642	WORD	wordpools/wasnorm_wordpool_576.txt	LTP377	ltpFR2	7	14	SADDLE	1221	n/a	n/a	0	0	0
2647193	WORD	wordpools/wasnorm_wordpool_576.txt	LTP377	ltpFR2	7	14	JUGGLER	763	n/a	n/a	0	0	0
2650010	WORD	wordpools/wasnorm_wordpool_576.txt	LTP377	ltpFR2	7	14	VAGRANT	1544	n/a	n/a	0	0	0
2652642	WORD	wordpools/wasnorm_wordpool_576.txt	LTP377	ltpFR2	7	14	SPARROW	1347	n/a	n/a	0	0	0
2655409	WORD	wordpools/wasnorm_wordpool_576.txt	LTP377	ltpFR2	7	14	HARP	689	n/a	n/a	0	0	0
2657910	WORD	wordpools/wasnorm_wordpool_576.txt	LTP377	ltpFR2	7	14	BARREL	91	n/a	n/a	0	0	0
2660692	WORD	wordpools/wasnorm_wordpool_576.txt	LTP377	ltpFR2	7	14	COSTUME	383	n/a	n/a	0	0	0
2663110	WORD	wordpools/wasnorm_wordpool_576.txt	LTP377	ltpFR2	7	14	WASHER	1592	n/a	n/a	0	0	0
2665659	WORD	wordpools/wasnorm_wordpool_576.txt	LTP377	ltpFR2	7	14	LADY	794	n/a	n/a	0	0	0
2668110	WORD	wordpools/wasnorm_wordpool_576.txt	LTP377	ltpFR2	7	14	BEAVER	109	n/a	n/a	0	0	0
2670742	WORD	wordpools/wasnorm_wordpool_576.txt	LTP377	ltpFR2	7	14	LADDER	793	n/a	n/a	0	0	0
2673542	WORD	wordpools/wasnorm_wordpool_576.txt	LTP377	ltpFR2	7	14	CEILING	265	n/a	n/a	0	0	0
2676160	WORD	wordpools/wasnorm_wordpool_576.txt	LTP377	ltpFR2	7	14	SUITCASE	1403	n/a	n/a	0	0	0
2678675	WORD	wordpools/wasnorm_wordpool_576.txt	LTP377	ltpFR2	7	14	CLOTHES	327	n/a	n/a	0	0	0
2681176	WORD	wordpools/wasnorm_wordpool_576.txt	LTP377	ltpFR2	7	14	PACKAGE	997	n/a	n/a	0	0	0
2683792	WORD	wordpools/wasnorm_wordpool_576.txt	LTP377	ltpFR2	7	14	POSTAGE	1113	n/a	n/a	0	0	0
2686326	WORD	wordpools/wasnorm_wordpool_576.txt	LTP377	ltpFR2	7	14	CELLAR	267	n/a	n/a	0	0	0
2688960	WORD	wordpools/wasnorm_wordpool_576.txt	LTP377	ltpFR2	7	14	STATUE	1374	n/a	n/a	0	0	0
2691758	WORD	wordpools/wasnorm_wordpool_576.txt	LTP377	ltpFR2	7	14	ATOM	55	n/a	n/a	0	0	0
2693375	START	n/a	LTP377	ltpFR2	7	n/a	n/a	n/a	21	n/a	n/a	n/a	n/a
2694228	DISTRACTOR	n/a	LTP377	ltpFR2	7	14	n/a	n/a	n/a	n/a	0	0	0
2694243	PROB	n/a	LTP377	ltpFR2	7	n/a	n/a	n/a	21	14	5	5	4
2696226	PROB	n/a	LTP377	ltpFR2	7	n/a	n/a	n/a	21	6	2	3	1
2697708	PROB	n/a	LTP377	ltpFR2	7	n/a	n/a	n/a	21	13	3	3	7
2699408	PROB	n/a	LTP377	ltpFR2	7	n/a	n/a	n/a	21	12	3	2	7
2703243	PROB	n/a	LTP377	ltpFR2	7	n/a	n/a	n/a	21	7	2	4	1
2706009	PROB	n/a	LTP377	ltpFR2	7	n/a	n/a	n/a	21	4	1	2	1
2707641	PROB	n/a	LTP377	ltpFR2	7	n/a	n/a	n/a	21	18	2	9	7
2710176	PROB	n/a	LTP377	ltpFR2	7	n/a	n/a	n/a	21	17	7	4	6
2712808	PROB	n/a	LTP377	ltpFR2	7	n/a	n/a	n/a	21	20	7	9	4
2717374	STOP	n/a	LTP377	ltpFR2	7	n/a	n/a	n/a	21	n/a	n/a	n/a	n/a
2719126	REC_START	n/a	LTP377	ltpFR2	7	14	n/a	n/a	n/a	n/a	0	0	0
2722387	REC_WORD	wordpools/wasnorm_wordpool_576.txt	LTP377	ltpFR2	7	14	BEAVER	109	n/a	n/a	0	0	0
2723246	REC_WORD	wordpools/wasnorm_wordpool_576.txt	LTP377	ltpFR2	7	14	LADY	794	n/a	n/a	0	0	0
2724065	REC_WORD	wordpools/wasnorm_wordpool_576.txt	LTP377	ltpFR2	7	14	COSTUME	383	n/a	n/a	0	0	0
2726116	REC_WORD	wordpools/wasnorm_wordpool_576.txt	LTP377	ltpFR2	7	14	SUITCASE	1403	n/a	n/a	0	0	0
2726953	REC_WORD	wordpools/wasnorm_wordpool_576.txt	LTP377	ltpFR2	7	14	PACKAGE	997	n/a	n/a	0	0	0
2727589	REC_WORD	wordpools/wasnorm_wordpool_576.txt	LTP377	ltpFR2	7	14	POSTAGE	1113	n/a	n/a	0	0	0
2728368	REC_WORD	wordpools/wasnorm_wordpool_576.txt	LTP377	ltpFR2	7	14	CLOTHES	327	n/a	n/a	0	0	0
2729674	REC_WORD	wordpools/wasnorm_wordpool_576.txt	LTP377	ltpFR2	7	14	LADDER	793	n/a	n/a	0	0	0
2730131	REC_WORD	wordpools/wasnorm_wordpool_576.txt	LTP377	ltpFR2	7	14	CEILING	265	n/a	n/a	0	0	0
2730734	REC_WORD	wordpools/wasnorm_wordpool_576.txt	LTP377	ltpFR2	7	14	CELLAR	267	n/a	n/a	0	0	0
2731901	REC_WORD	wordpools/wasnorm_wordpool_576.txt	LTP377	ltpFR2	7	14	STATUE	1374	n/a	n/a	0	0	0
2757264	REC_WORD	wordpools/wasnorm_wordpool_576.txt	LTP377	ltpFR2	7	14	LADY	794	n/a	n/a	0	0	0
2809573	DISTRACTOR	n/a	LTP377	ltpFR2	7	15	n/a	n/a	n/a	n/a	0	0	0
2809573	START	n/a	LTP377	ltpFR2	7	n/a	n/a	n/a	22	n/a	n/a	n/a	n/a
2809590	PROB	n/a	LTP377	ltpFR2	7	n/a	n/a	n/a	22	15	2	3	9
2812607	PROB	n/a	LTP377	ltpFR2	7	n/a	n/a	n/a	22	22	9	4	9
2816640	PROB	n/a	LTP377	ltpFR2	7	n/a	n/a	n/a	22	13	1	4	8
2818141	PROB	n/a	LTP377	ltpFR2	7	n/a	n/a	n/a	22	11	1	6	4
2819373	PROB	n/a	LTP377	ltpFR2	7	n/a	n/a	n/a	22	17	7	7	3
2821158	PROB	n/a	LTP377	ltpFR2	7	n/a	n/a	n/a	22	19	8	4	7
2823407	PROB	n/a	LTP377	ltpFR2	7	n/a	n/a	n/a	22	17	6	7	4
2826341	PROB	n/a	LTP377	ltpFR2	7	n/a	n/a	n/a	22	21	8	4	9
2829706	PROB	n/a	LTP377	ltpFR2	7	n/a	n/a	n/a	22	16	7	5	4
2831590	PROB	n/a	LTP377	ltpFR2	7	n/a	n/a	n/a	22	12	6	4	2
2832840	STOP	n/a	LTP377	ltpFR2	7	n/a	n/a	n/a	22	n/a	n/a	n/a	n/a
2834640	WORD	wordpools/wasnorm_wordpool_576.txt	LTP377	ltpFR2	7	15	FINGER	567	n/a	n/a	0	0	0
2837241	WORD	wordpools/wasnorm_wordpool_576.txt	LTP377	ltpFR2	7	15	WRIST	1626	n/a	n/a	0	0	0
2839957	WORD	wordpools/wasnorm_wordpool_576.txt	LTP377	ltpFR2	7	15	PRIMATE	1123	n/a	n/a	0	0	0
2842389	WORD	wordpools/wasnorm_wordpool_576.txt	LTP377	ltpFR2	7	15	SPHINX	1349	n/a	n/a	0	0	0
2845140	WORD	wordpools/wasnorm_wordpool_576.txt	LTP377	ltpFR2	7	15	BRICK	172	n/a	n/a	0	0	0
2847839	WORD	wordpools/wasnorm_wordpool_576.txt	LTP377	ltpFR2	7	15	FLEET	578	n/a	n/a	0	0	0
2850439	WORD	wordpools/wasnorm_wordpool_576.txt	LTP377	ltpFR2	7	15	CRIB	407	n/a	n/a	0	0	0
2852856	WORD	wordpools/wasnorm_wordpool_576.txt	LTP377	ltpFR2	7	15	BABY	64	n/a	n/a	0	0	0
2855589	WORD	wordpools/wasnorm_wordpool_576.txt	LTP377	ltpFR2	7	15	TABLE	1426	n/a	n/a	0	0	0
2858057	WORD	wordpools/wasnorm_wordpool_576.txt	LTP377	ltpFR2	7	15	BRAKE	166	n/a	n/a	0	0	0
2860539	WORD	wordpools/wasnorm_wordpool_576.txt	LTP377	ltpFR2	7	15	FIREMAN	569	n/a	n/a	0	0	0
2863090	WORD	wordpools/wasnorm_wordpool_576.txt	LTP377	ltpFR2	7	15	LION	827	n/a	n/a	0	0	0
2865556	WORD	wordpools/wasnorm_wordpool_576.txt	LTP377	ltpFR2	7	15	MAPLE	866	n/a	n/a	0	0	0
2868007	WORD	wordpools/wasnorm_wordpool_576.txt	LTP377	ltpFR2	7	15	YARN	1631	n/a	n/a	0	0	0
2870556	WORD	wordpools/wasnorm_wordpool_576.txt	LTP377	ltpFR2	7	15	TYPIST	1532	n/a	n/a	0	0	0
2873356	WORD	wordpools/wasnorm_wordpool_576.txt	LTP377	ltpFR2	7	15	MATCH	878	n/a	n/a	0	0	0
2876123	WORD	wordpools/wasnorm_wordpool_576.txt	LTP377	ltpFR2	7	15	KNIFE	785	n/a	n/a	0	0	0
2878923	WORD	wordpools/wasnorm_wordpool_576.txt	LTP377	ltpFR2	7	15	PLATE	1086	n/a	n/a	0	0	0
2881589	WORD	wordpools/wasnorm_wordpool_576.txt	LTP377	ltpFR2	7	15	TEMPLE	1448	n/a	n/a	0	0	0
2884023	WORD	wordpools/wasnorm_wordpool_576.txt	LTP377	ltpFR2	7	15	IGLOO	734	n/a	n/a	0	0	0
2886672	WORD	wordpools/wasnorm_wordpool_576.txt	LTP377	ltpFR2	7	15	SCALPEL	1243	n/a	n/a	0	0	0
2889090	WORD	wordpools/wasnorm_wordpool_576.txt	LTP377	ltpFR2	7	15	RAZOR	1171	n/a	n/a	0	0	0
2891906	WORD	wordpools/wasnorm_wordpool_576.txt	LTP377	ltpFR2	7	15	BRIEFCASE	175	n/a	n/a	0	0	0
2894555	WORD	wordpools/wasnorm_wordpool_576.txt	LTP377	ltpFR2	7	15	DONKEY	484	n/a	n/a	0	0	0
2896157	START	n/a	LTP377	ltpFR2	7	n/a	n/a	n/a	23	n/a	n/a	n/a	n/a
2897220	DISTRACTOR	n/a	LTP377	ltpFR2	7	15	n/a	n/a	n/a	n/a	0	0	0
2897223	PROB	n/a	LTP377	ltpFR2	7	n/a	n/a	n/a	23	21	8	6	7
2908538	PROB	n/a	LTP377	ltpFR2	7	n/a	n/a	n/a	23	12	6	3	3
2912256	PROB	n/a	LTP377	ltpFR2	7	n/a	n/a	n/a	23	9	2	5	2
2914705	PROB	n/a	LTP377	ltpFR2	7	n/a	n/a	n/a	23	13	3	4	6
2920139	STOP	n/a	LTP377	ltpFR2	7	n/a	n/a	n/a	23	n/a	n/a	n/a	n/a
2922023	REC_START	n/a	LTP377	ltpFR2	7	15	n/a	n/a	n/a	n/a	0	0	0
2924031	REC_WORD	wordpools/wasnorm_wordpool_576.txt	LTP377	ltpFR2	7	15	RAZOR	1171	n/a	n/a	0	0	0
2924829	REC_WORD	wordpools/wasnorm_wordpool_576.txt	LTP377	ltpFR2	7	15	SCALPEL	1243	n/a	n/a	0	0	0
2925852	REC_WORD	wordpools/wasnorm_wordpool_576.txt	LTP377	ltpFR2	7	15	IGLOO	734	n/a	n/a	0	0	0
2928623	REC_WORD	wordpools/wasnorm_wordpool_576.txt	LTP377	ltpFR2	7	15	DONKEY	484	n/a	n/a	0	0	0
2934003	REC_WORD	wordpools/wasnorm_wordpool_576.txt	LTP377	ltpFR2	7	15	FLEET	578	n/a	n/a	0	0	0
2943278	REC_WORD	wordpools/wasnorm_wordpool_576.txt	LTP377	ltpFR2	7	15	FINGER	567	n/a	n/a	0	0	0
2944052	REC_WORD	wordpools/wasnorm_wordpool_576.txt	LTP377	ltpFR2	7	15	WRIST	1626	n/a	n/a	0	0	0
2944727	REC_WORD	wordpools/wasnorm_wordpool_576.txt	LTP377	ltpFR2	7	15	PRIMATE	1123	n/a	n/a	0	0	0
3012487	WORD	wordpools/wasnorm_wordpool_576.txt	LTP377	ltpFR2	7	16	LOVER	846	n/a	n/a	0	0	0
3014955	WORD	wordpools/wasnorm_wordpool_576.txt	LTP377	ltpFR2	7	16	PLIERS	1089	n/a	n/a	0	0	0
3017437	WORD	wordpools/wasnorm_wordpool_576.txt	LTP377	ltpFR2	7	16	GROUND	666	n/a	n/a	0	0	0
3020155	WORD	wordpools/wasnorm_wordpool_576.txt	LTP377	ltpFR2	7	16	SIBLING	1301	n/a	n/a	0	0	0
3022803	WORD	wordpools/wasnorm_wordpool_576.txt	LTP377	ltpFR2	7	16	POWDER	1117	n/a	n/a	0	0	0
3025503	WORD	wordpools/wasnorm_wordpool_576.txt	LTP377	ltpFR2	7	16	ACTRESS	6	n/a	n/a	0	0	0
3027954	WORD	wordpools/wasnorm_wordpool_576.txt	LTP377	ltpFR2	7	16	AIRPLANE	12	n/a	n/a	0	0	0
3030470	WORD	wordpools/wasnorm_wordpool_576.txt	LTP377	ltpFR2	7	16	DORM	488	n/a	n/a	0	0	0
3032904	WORD	wordpools/wasnorm_wordpool_576.txt	LTP377	ltpFR2	7	16	LODGE	839	n/a	n/a	0	0	0
3035687	WORD	wordpools/wasnorm_wordpool_576.txt	LTP377	ltpFR2	7	16	FRANCE	601	n/a	n/a	0	0	0
3038221	WORD	wordpools/wasnorm_wordpool_576.txt	LTP377	ltpFR2	7	16	ACTOR	5	n/a	n/a	0	0	0
3040887	WORD	wordpools/wasnorm_wordpool_576.txt	LTP377	ltpFR2	7	16	HORSE	719	n/a	n/a	0	0	0
3043603	WORD	wordpools/wasnorm_wordpool_576.txt	LTP377	ltpFR2	7	16	CLOCK	325	n/a	n/a	0	0	0
3046087	WORD	wordpools/wasnorm_wordpool_576.txt	LTP377	ltpFR2	7	16	FIREPLACE	570	n/a	n/a	0	0	0
3048586	WORD	wordpools/wasnorm_wordpool_576.txt	LTP377	ltpFR2	7	16	TOURIST	1488	n/a	n/a	0	0	0
3051353	WORD	wordpools/wasnorm_wordpool_576.txt	LTP377	ltpFR2	7	16	MONEY	908	n/a	n/a	0	0	0
3054071	WORD	wordpools/wasnorm_wordpool_576.txt	LTP377	ltpFR2	7	16	TILE	1468	n/a	n/a	0	0	0
3056720	WORD	wordpools/wasnorm_wordpool_576.txt	LTP377	ltpFR2	7	16	PUDDING	1139	n/a	n/a	0	0	0
3059221	WORD	wordpools/wasnorm_wordpool_576.txt	LTP377	ltpFR2	7	16	HOSTESS	723	n/a	n/a	0	0	0
3062021	WORD	wordpools/wasnorm_wordpool_576.txt	LTP377	ltpFR2	7	16	CHAMPAGNE	278	n/a	n/a	0	0	0
3064786	WORD	wordpools/wasnorm_wordpool_576.txt	LTP377	ltpFR2	7	16	TRUCK	1512	n/a	n/a	0	0	0
3067486	WORD	wordpools/wasnorm_wordpool_576.txt	LTP377	ltpFR2	7	16	SCOTCH	1251	n/a	n/a	0	0	0
3070220	WORD	wordpools/wasnorm_wordpool_576.txt	LTP377	ltpFR2	7	16	BRANDY	169	n/a	n/a	0	0	0
3072736	WORD	wordpools/wasnorm_wordpool_576.txt	LTP377	ltpFR2	7	16	TROMBONE	1508	n/a	n/a	0	0	0
3074337	START	n/a	LTP377	ltpFR2	7	n/a	n/a	n/a	24	n/a	n/a	n/a	n/a
3075535	DISTRACTOR	n/a	LTP377	ltpFR2	7	16	n/a	n/a	n/a	n/a	0	0	0
3075553	PROB	n/a	LTP377	ltpFR2	7	n/a	n/a	n/a	24	8	2	4	2
3077703	PROB	n/a	LTP377	ltpFR2	7	n/a	n/a	n/a	24	10	4	5	1
3079403	PROB	n/a	LTP377	ltpFR2	7	n/a	n/a	n/a	24	19	8	9	2
3081719	PROB	n/a	LTP377	ltpFR2	7	n/a	n/a	n/a	24	15	3	3	9
3084087	PROB	n/a	LTP377	ltpFR2	7	n/a	n/a	n/a	24	18	4	5	9
3085869	PROB	n/a	LTP377	ltpFR2	7	n/a	n/a	n/a	24	10	3	2	5
3087904	PROB	n/a	LTP377	ltpFR2	7	n/a	n/a	n/a	24	13	8	3	2
3091920	PROB	n/a	LTP377	ltpFR2	7	n/a	n/a	n/a	24	14	7	6	1
3096270	PROB	n/a	LTP377	ltpFR2	7	n/a	n/a	n/a	24	12	8	2	2
3098241	STOP	n/a	LTP377	ltpFR2	7	n/a	n/a	n/a	24	n/a	n/a	n/a	n/a
3100270	REC_START	n/a	LTP377	ltpFR2	7	16	n/a	n/a	n/a	n/a	0	0	0
3101095	REC_WORD	wordpools/wasnorm_wordpool_576.txt	LTP377	ltpFR2	7	16	CHAMPAGNE	278	n/a	n/a	0	0	0
3103397	REC_WORD	wordpools/wasnorm_wordpool_576.txt	LTP377	ltpFR2	7	16	SCOTCH	1251	n/a	n/a	0	0	0
3104295	REC_WORD	wordpools/wasnorm_wordpool_576.txt	LTP377	ltpFR2	7	16	BRANDY	169	n/a	n/a	0	0	0
3105018	REC_WORD	wordpools/wasnorm_wordpool_576.txt	LTP377	ltpFR2	7	16	FRANCE	601	n/a	n/a	0	0	0
3126915	REC_WORD	wordpools/wasnorm_wordpool_576.txt	LTP377	ltpFR2	7	16	AIRPLANE	12	n/a	n/a	0	0	0
3170340	REC_WORD	wordpools/wasnorm_wordpool_576.txt	LTP377	ltpFR2	7	16	LOVER	846	n/a	n/a	0	0	0
3176818	REST_REWET	n/a	LTP377	ltpFR2	7	16	n/a	n/a	n/a	n/a	0	0	0
3310632	WORD	wordpools/wasnorm_wordpool_576.txt	LTP377	ltpFR2	7	17	SALMON	1227	n/a	n/a	0	0	0
3313117	WORD	wordpools/wasnorm_wordpool_576.txt	LTP377	ltpFR2	7	17	SWITCH	1422	n/a	n/a	0	0	0
3315649	WORD	wordpools/wasnorm_wordpool_576.txt	LTP377	ltpFR2	7	17	EYELASH	546	n/a	n/a	0	0	0
3318233	WORD	wordpools/wasnorm_wordpool_576.txt	LTP377	ltpFR2	7	17	VICTIM	1562	n/a	n/a	0	0	0
3320917	WORD	wordpools/wasnorm_wordpool_576.txt	LTP377	ltpFR2	7	17	GLOBE	641	n/a	n/a	0	0	0
3323482	WORD	wordpools/wasnorm_wordpool_576.txt	LTP377	ltpFR2	7	17	DRIVER	499	n/a	n/a	0	0	0
3325900	WORD	wordpools/wasnorm_wordpool_576.txt	LTP377	ltpFR2	7	17	OINTMENT	974	n/a	n/a	0	0	0
3328582	WORD	wordpools/wasnorm_wordpool_576.txt	LTP377	ltpFR2	7	17	DUST	508	n/a	n/a	0	0	0
3331266	WORD	wordpools/wasnorm_wordpool_576.txt	LTP377	ltpFR2	7	17	SEAGULL	1261	n/a	n/a	0	0	0
3334000	WORD	wordpools/wasnorm_wordpool_576.txt	LTP377	ltpFR2	7	17	CRAB	397	n/a	n/a	0	0	0
3336499	WORD	wordpools/wasnorm_wordpool_576.txt	LTP377	ltpFR2	7	17	DAUGHTER	442	n/a	n/a	0	0	0
3339133	WORD	wordpools/wasnorm_wordpool_576.txt	LTP377	ltpFR2	7	17	GALLON	618	n/a	n/a	0	0	0
3341699	WORD	wordpools/wasnorm_wordpool_576.txt	LTP377	ltpFR2	7	17	HEADBAND	696	n/a	n/a	0	0	0
3344133	WORD	wordpools/wasnorm_wordpool_576.txt	LTP377	ltpFR2	7	17	YACHT	1629	n/a	n/a	0	0	0
3346799	WORD	wordpools/wasnorm_wordpool_576.txt	LTP377	ltpFR2	7	17	PASSAGE	1019	n/a	n/a	0	0	0
3349565	WORD	wordpools/wasnorm_wordpool_576.txt	LTP377	ltpFR2	7	17	HATCHET	691	n/a	n/a	0	0	0
3352133	WORD	wordpools/wasnorm_wordpool_576.txt	LTP377	ltpFR2	7	17	SCISSORS	1250	n/a	n/a	0	0	0
3354565	WORD	wordpools/wasnorm_wordpool_576.txt	LTP377	ltpFR2	7	17	BLADE	134	n/a	n/a	0	0	0
3357016	WORD	wordpools/wasnorm_wordpool_576.txt	LTP377	ltpFR2	7	17	DASHBOARD	441	n/a	n/a	0	0	0
3359848	WORD	wordpools/wasnorm_wordpool_576.txt	LTP377	ltpFR2	7	17	EGYPT	519	n/a	n/a	0	0	0
3362482	WORD	wordpools/wasnorm_wordpool_576.txt	LTP377	ltpFR2	7	17	MUMMY	932	n/a	n/a	0	0	0
3364966	WORD	wordpools/wasnorm_wordpool_576.txt	LTP377	ltpFR2	7	17	PORTRAIT	1111	n/a	n/a	0	0	0
3367565	WORD	wordpools/wasnorm_wordpool_576.txt	LTP377	ltpFR2	7	17	STICKER	1382	n/a	n/a	0	0	0
3370132	WORD	wordpools/wasnorm_wordpool_576.txt	LTP377	ltpFR2	7	17	SODA	1341	n/a	n/a	0	0	0
3371748	START	n/a	LTP377	ltpFR2	7	n/a	n/a	n/a	25	n/a	n/a	n/a	n/a
3372698	DISTRACTOR	n/a	LTP377	ltpFR2	7	17	n/a	n/a	n/a	n/a	0	0	0
3372715	PROB	n/a	LTP377	ltpFR2	7	n/a	n/a	n/a	25	17	3	5	9
3375316	PROB	n/a	LTP377	ltpFR2	7	n/a	n/a	n/a	25	15	5	6	4
3377798	PROB	n/a	LTP377	ltpFR2	7	n/a	n/a	n/a	25	13	2	7	4
3380515	PROB	n/a	LTP377	ltpFR2	7	n/a	n/a	n/a	25	11	4	4	3
3383415	PROB	n/a	LTP377	ltpFR2	7	n/a	n/a	n/a	25	16	6	7	3
3385116	PROB	n/a	LTP377	ltpFR2	7	n/a	n/a	n/a	25	22	5	8	9
3387332	PROB	n/a	LTP377	ltpFR2	7	n/a	n/a	n/a	25	9	3	2	4
3390365	PROB	n/a	LTP377	ltpFR2	7	n/a	n/a	n/a	25	22	4	9	9
3391982	PROB	n/a	LTP377	ltpFR2	7	n/a	n/a	n/a	25	8	2	3	3
3393581	PROB	n/a	LTP377	ltpFR2	7	n/a	n/a	n/a	25	16	4	4	8
3395042	STOP	n/a	LTP377	ltpFR2	7	n/a	n/a	n/a	25	n/a	n/a	n/a	n/a
3397681	REC_START	n/a	LTP377	ltpFR2	7	17	n/a	n/a	n/a	n/a	0	0	0
3399763	REC_WORD	wordpools/wasnorm_wordpool_576.txt	LTP377	ltpFR2	7	17	EGYPT	519	n/a	n/a	0	0	0
3400724	REC_WORD	wordpools/wasnorm_wordpool_576.txt	LTP377	ltpFR2	7	17	MUMMY	932	n/a	n/a	0	0	0
3401377	REC_WORD	wordpools/wasnorm_wordpool_576.txt	LTP377	ltpFR2	7	17	PORTRAIT	1111	n/a	n/a	0	0	0
3402607	REC_WORD	wordpools/wasnorm_wordpool_576.txt	LTP377	ltpFR2	7	17	DASHBOARD	441	n/a	n/a	0	0	0
3409355	REC_WORD	wordpools/wasnorm_wordpool_576.txt	LTP377	ltpFR2	7	17	BLADE	134	n/a	n/a	0	0	0
3410029	REC_WORD	wordpools/wasnorm_wordpool_576.txt	LTP377	ltpFR2	7	17	SCISSORS	1250	n/a	n/a	0	0	0
3412678	REC_WORD	wordpools/wasnorm_wordpool_576.txt	LTP377	ltpFR2	7	17	YACHT	1629	n/a	n/a	0	0	0
3413171	REC_WORD	wordpools/wasnorm_wordpool_576.txt	LTP377	ltpFR2	7	17	PASSAGE	1019	n/a	n/a	0	0	0
3488114	WORD	wordpools/wasnorm_wordpool_576.txt	LTP377	ltpFR2	7	18	BURGLAR	200	n/a	n/a	0	0	0
3490931	WORD	wordpools/wasnorm_wordpool_576.txt	LTP377	ltpFR2	7	18	TUTU	1524	n/a	n/a	0	0	0
3493730	WORD	wordpools/wasnorm_wordpool_576.txt	LTP377	ltpFR2	7	18	WITNESS	1618	n/a	n/a	0	0	0
3496530	WORD	wordpools/wasnorm_wordpool_576.txt	LTP377	ltpFR2	7	18	NECKLACE	940	n/a	n/a	0	0	0
3499297	WORD	wordpools/wasnorm_wordpool_576.txt	LTP377	ltpFR2	7	18	SLUG	1329	n/a	n/a	0	0	0
3502114	WORD	wordpools/wasnorm_wordpool_576.txt	LTP377	ltpFR2	7	18	BLOUSE	139	n/a	n/a	0	0	0
3504914	WORD	wordpools/wasnorm_wordpool_576.txt	LTP377	ltpFR2	7	18	SHOVEL	1295	n/a	n/a	0	0	0
3507713	WORD	wordpools/wasnorm_wordpool_576.txt	LTP377	ltpFR2	7	18	TRENCH	1503	n/a	n/a	0	0	0
3510330	WORD	wordpools/wasnorm_wordpool_576.txt	LTP377	ltpFR2	7	18	BREAST	171	n/a	n/a	0	0	0
3513097	WORD	wordpools/wasnorm_wordpool_576.txt	LTP377	ltpFR2	7	18	PIZZA	1079	n/a	n/a	0	0	0
3515546	WORD	wordpools/wasnorm_wordpool_576.txt	LTP377	ltpFR2	7	18	LIGHTNING	820	n/a	n/a	0	0	0
3517980	WORD	wordpools/wasnorm_wordpool_576.txt	LTP377	ltpFR2	7	18	SALT	1229	n/a	n/a	0	0	0
3520679	WORD	wordpools/wasnorm_wordpool_576.txt	LTP377	ltpFR2	7	18	HERO	706	n/a	n/a	0	0	0
3523446	WORD	wordpools/wasnorm_wordpool_576.txt	LTP377	ltpFR2	7	18	CLOUD	328	n/a	n/a	0	0	0
3525930	WORD	wordpools/wasnorm_wordpool_576.txt	LTP377	ltpFR2	7	18	SNAIL	1332	n/a	n/a	0	0	0
3528729	WORD	wordpools/wasnorm_wordpool_576.txt	LTP377	ltpFR2	7	18	SALAD	1224	n/a	n/a	0	0	0
3531313	WORD	wordpools/wasnorm_wordpool_576.txt	LTP377	ltpFR2	7	18	CABBAGE	210	n/a	n/a	0	0	0
3533746	WORD	wordpools/wasnorm_wordpool_576.txt	LTP377	ltpFR2	7	18	LASER	801	n/a	n/a	0	0	0
3536330	WORD	wordpools/wasnorm_wordpool_576.txt	LTP377	ltpFR2	7	18	SHARK	1275	n/a	n/a	0	0	0
3538880	WORD	wordpools/wasnorm_wordpool_576.txt	LTP377	ltpFR2	7	18	SCARF	1246	n/a	n/a	0	0	0
3541579	WORD	wordpools/wasnorm_wordpool_576.txt	LTP377	ltpFR2	7	18	CREVICE	405	n/a	n/a	0	0	0
3544362	WORD	wordpools/wasnorm_wordpool_576.txt	LTP377	ltpFR2	7	18	MEDAL	885	n/a	n/a	0	0	0
3546795	WORD	wordpools/wasnorm_wordpool_576.txt	LTP377	ltpFR2	7	18	GYMNAST	675	n/a	n/a	0	0	0
3549395	WORD	wordpools/wasnorm_wordpool_576.txt	LTP377	ltpFR2	7	18	TORTOISE	1486	n/a	n/a	0	0	0
3550997	START	n/a	LTP377	ltpFR2	7	n/a	n/a	n/a	26	n/a	n/a	n/a	n/a
3552106	DISTRACTOR	n/a	LTP377	ltpFR2	7	18	n/a	n/a	n/a	n/a	0	0	0
3552113	PROB	n/a	LTP377	ltpFR2	7	n/a	n/a	n/a	26	9	2	6	1
3554330	PROB	n/a	LTP377	ltpFR2	7	n/a	n/a	n/a	26	15	3	9	3
3556729	PROB	n/a	LTP377	ltpFR2	7	n/a	n/a	n/a	26	18	8	2	8
3558745	PROB	n/a	LTP377	ltpFR2	7	n/a	n/a	n/a	26	25	9	7	9
3561130	PROB	n/a	LTP377	ltpFR2	7	n/a	n/a	n/a	26	25	7	9	9
3564030	PROB	n/a	LTP377	ltpFR2	7	n/a	n/a	n/a	26	11	5	3	3
3566330	PROB	n/a	LTP377	ltpFR2	7	n/a	n/a	n/a	26	20	7	4	9
3571862	PROB	n/a	LTP377	ltpFR2	7	n/a	n/a	n/a	26	13	7	5	1
3573847	STOP	n/a	LTP377	ltpFR2	7	n/a	n/a	n/a	26	n/a	n/a	n/a	n/a
3576779	REC_START	n/a	LTP377	ltpFR2	7	18	n/a	n/a	n/a	n/a	0	0	0
3577219	REC_WORD	wordpools/wasnorm_wordpool_576.txt	LTP377	ltpFR2	7	18	GYMNAST	675	n/a	n/a	0	0	0
3578073	REC_WORD	wordpools/wasnorm_wordpool_576.txt	LTP377	ltpFR2	7	18	MEDAL	885	n/a	n/a	0	0	0
3578619	REC_WORD	wordpools/wasnorm_wordpool_576.txt	LTP377	ltpFR2	7	18	SHARK	1275	n/a	n/a	0	0	0
3579633	REC_WORD	wordpools/wasnorm_wordpool_576.txt	LTP377	ltpFR2	7	18	TORTOISE	1486	n/a	n/a	0	0	0
3667211	DISTRACTOR	n/a	LTP377	ltpFR2	7	19	n/a	n/a	n/a	n/a	0	0	0
3667211	START	n/a	LTP377	ltpFR2	7	n/a	n/a	n/a	27	n/a	n/a	n/a	n/a
3667228	PROB	n/a	LTP377	ltpFR2	7	n/a	n/a	n/a	27	11	1	3	7
3668978	PROB	n/a	LTP377	ltpFR2	7	n/a	n/a	n/a	27	15	3	9	3
3670978	PROB	n/a	LTP377	ltpFR2	7	n/a	n/a	n/a	27	21	7	6	8
3674827	PROB	n/a	LTP377	ltpFR2	7	n/a	n/a	n/a	27	10	3	3	4
3677694	PROB	n/a	LTP377	ltpFR2	7	n/a	n/a	n/a	27	16	8	4	4
3680061	PROB	n/a	LTP377	ltpFR2	7	n/a	n/a	n/a	27	9	7	1	1
3681660	PROB	n/a	LTP377	ltpFR2	7	n/a	n/a	n/a	27	13	2	8	3
3685294	PROB	n/a	LTP377	ltpFR2	7	n/a	n/a	n/a	27	25	8	8	9
3688843	PROB	n/a	LTP377	ltpFR2	7	n/a	n/a	n/a	27	21	7	7	7
3690203	STOP	n/a	LTP377	ltpFR2	7	n/a	n/a	n/a	27	n/a	n/a	n/a	n/a
3692311	WORD	wordpools/wasnorm_wordpool_576.txt	LTP377	ltpFR2	7	19	PLAYGROUND	1087	n/a	n/a	0	0	0
3694944	WORD	wordpools/wasnorm_wordpool_576.txt	LTP377	ltpFR2	7	19	STAMP	1370	n/a	n/a	0	0	0
3697610	WORD	wordpools/wasnorm_wordpool_576.txt	LTP377	ltpFR2	7	19	TRIBE	1505	n/a	n/a	0	0	0
3700327	WORD	wordpools/wasnorm_wordpool_576.txt	LTP377	ltpFR2	7	19	ZIPPER	1636	n/a	n/a	0	0	0
3703061	WORD	wordpools/wasnorm_wordpool_576.txt	LTP377	ltpFR2	7	19	THREAD	1460	n/a	n/a	0	0	0
3705760	WORD	wordpools/wasnorm_wordpool_576.txt	LTP377	ltpFR2	7	19	BLOCKADE	137	n/a	n/a	0	0	0
3708476	WORD	wordpools/wasnorm_wordpool_576.txt	LTP377	ltpFR2	7	19	DRINK	498	n/a	n/a	0	0	0
3711261	WORD	wordpools/wasnorm_wordpool_576.txt	LTP377	ltpFR2	7	19	SCALLOP	1242	n/a	n/a	0	0	0
3713710	WORD	wordpools/wasnorm_wordpool_576.txt	LTP377	ltpFR2	7	19	HOOK	715	n/a	n/a	0	0	0
3716244	WORD	wordpools/wasnorm_wordpool_576.txt	LTP377	ltpFR2	7	19	HAND	683	n/a	n/a	0	0	0
3718894	WORD	wordpools/wasnorm_wordpool_576.txt	LTP377	ltpFR2	7	19	NIGHTGOWN	953	n/a	n/a	0	0	0
3721710	WORD	wordpools/wasnorm_wordpool_576.txt	LTP377	ltpFR2	7	19	PADDING	999	n/a	n/a	0	0	0
3724443	WORD	wordpools/wasnorm_wordpool_576.txt	LTP377	ltpFR2	7	19	MONSTER	912	n/a	n/a	0	0	0
3726994	WORD	wordpools/wasnorm_wordpool_576.txt	LTP377	ltpFR2	7	19	CORAL	378	n/a	n/a	0	0	0
3729609	WORD	wordpools/wasnorm_wordpool_576.txt	LTP377	ltpFR2	7	19	GLOVE	642	n/a	n/a	0	0	0
3732194	WORD	wordpools/wasnorm_wordpool_576.txt	LTP377	ltpFR2	7	19	LEOPARD	812	n/a	n/a	0	0	0
3734626	WORD	wordpools/wasnorm_wordpool_576.txt	LTP377	ltpFR2	7	19	PANTHER	1009	n/a	n/a	0	0	0
3737060	WORD	wordpools/wasnorm_wordpool_576.txt	LTP377	ltpFR2	7	19	NOMAD	955	n/a	n/a	0	0	0
3739693	WORD	wordpools/wasnorm_wordpool_576.txt	LTP377	ltpFR2	7	19	CLAM	315	n/a	n/a	0	0	0
3742144	WORD	wordpools/wasnorm_wordpool_576.txt	LTP377	ltpFR2	7	19	ISLAND	745	n/a	n/a	0	0	0
3744609	WORD	wordpools/wasnorm_wordpool_576.txt	LTP377	ltpFR2	7	19	MESSAGE	888	n/a	n/a	0	0	0
3747260	WORD	wordpools/wasnorm_wordpool_576.txt	LTP377	ltpFR2	7	19	CASHIER	254	n/a	n/a	0	0	0
3749842	WORD	wordpools/wasnorm_wordpool_576.txt	LTP377	ltpFR2	7	19	BOARD	143	n/a	n/a	0	0	0
3752310	WORD	wordpools/wasnorm_wordpool_576.txt	LTP377	ltpFR2	7	19	DANCER	437	n/a	n/a	0	0	0
3753927	START	n/a	LTP377	ltpFR2	7	n/a	n/a	n/a	28	n/a	n/a	n/a	n/a
3754783	DISTRACTOR	n/a	LTP377	ltpFR2	7	19	n/a	n/a	n/a	n/a	0	0	0
3754792	PROB	n/a	LTP377	ltpFR2	7	n/a	n/a	n/a	28	18	7	3	8
3757127	PROB	n/a	LTP377	ltpFR2	7	n/a	n/a	n/a	28	14	4	6	4
3758759	PROB	n/a	LTP377	ltpFR2	7	n/a	n/a	n/a	28	7	5	1	1
3760110	PROB	n/a	LTP377	ltpFR2	7	n/a	n/a	n/a	28	13	9	2	2
3762060	PROB	n/a	LTP377	ltpFR2	7	n/a	n/a	n/a	28	16	2	8	6
3764475	PROB	n/a	LTP377	ltpFR2	7	n/a	n/a	n/a	28	19	6	6	7
3766927	PROB	n/a	LTP377	ltpFR2	7	n/a	n/a	n/a	28	16	6	5	5
3768559	PROB	n/a	LTP377	ltpFR2	7	n/a	n/a	n/a	28	15	3	7	5
3771293	PROB	n/a	LTP377	ltpFR2	7	n/a	n/a	n/a	28	7	1	3	3
3772692	PROB	n/a	LTP377	ltpFR2	7	n/a	n/a	n/a	28	17	7	2	8
3775260	PROB	n/a	LTP377	ltpFR2	7	n/a	n/a	n/a	28	6	4	1	1
3776469	STOP	n/a	LTP377	ltpFR2	7	n/a	n/a	n/a	28	n/a	n/a	n/a	n/a
3779826	REC_START	n/a	LTP377	ltpFR2	7	19	n/a	n/a	n/a	n/a	0	0	0
3781985	REC_WORD	wordpools/wasnorm_wordpool_576.txt	LTP377	ltpFR2	7	19	BOARD	143	n/a	n/a	0	0	0
3813774	REC_WORD	wordpools/wasnorm_wordpool_576.txt	LTP377	ltpFR2	7	19	PLAYGROUND	1087	n/a	n/a	0	0	0
3827457	REC_WORD	wordpools/wasnorm_wordpool_576.txt	LTP377	ltpFR2	7	19	PANTHER	1009	n/a	n/a	0	0	0
3829583	REC_WORD	wordpools/wasnorm_wordpool_576.txt	LTP377	ltpFR2	7	19	LEOPARD	812	n/a	n/a	0	0	0
3870275	WORD	wordpools/wasnorm_wordpool_576.txt	LTP377	ltpFR2	7	20	PUPIL	1143	n/a	n/a	0	0	0
3872807	WORD	wordpools/wasnorm_wordpool_576.txt	LTP377	ltpFR2	7	20	CATTLE	261	n/a	n/a	0	0	0
3875524	WORD	wordpools/wasnorm_wordpool_576.txt	LTP377	ltpFR2	7	20	HIKER	708	n/a	n/a	0	0	0
3878075	WORD	wordpools/wasnorm_wordpool_576.txt	LTP377	ltpFR2	7	20	SEAFOOD	1260	n/a	n/a	0	0	0
3880874	WORD	wordpools/wasnorm_wordpool_576.txt	LTP377	ltpFR2	7	20	LAKE	796	n/a	n/a	0	0	0
3883325	WORD	wordpools/wasnorm_wordpool_576.txt	LTP377	ltpFR2	7	20	AUTHOR	61	n/a	n/a	0	0	0
3886008	WORD	wordpools/wasnorm_wordpool_576.txt	LTP377	ltpFR2	7	20	SNAKE	1333	n/a	n/a	0	0	0
3888757	WORD	wordpools/wasnorm_wordpool_576.txt	LTP377	ltpFR2	7	20	HUSBAND	728	n/a	n/a	0	0	0
3891325	WORD	wordpools/wasnorm_wordpool_576.txt	LTP377	ltpFR2	7	20	FLIPPER	580	n/a	n/a	0	0	0
3893757	WORD	wordpools/wasnorm_wordpool_576.txt	LTP377	ltpFR2	7	20	TABLET	1427	n/a	n/a	0	0	0
3896523	WORD	wordpools/wasnorm_wordpool_576.txt	LTP377	ltpFR2	7	20	GARDEN	623	n/a	n/a	0	0	0
3899291	WORD	wordpools/wasnorm_wordpool_576.txt	LTP377	ltpFR2	7	20	PALACE	1006	n/a	n/a	0	0	0
3901974	WORD	wordpools/wasnorm_wordpool_576.txt	LTP377	ltpFR2	7	20	VIRUS	1572	n/a	n/a	0	0	0
3904673	WORD	wordpools/wasnorm_wordpool_576.txt	LTP377	ltpFR2	7	20	COTTAGE	384	n/a	n/a	0	0	0
3907457	WORD	wordpools/wasnorm_wordpool_576.txt	LTP377	ltpFR2	7	20	FIDDLE	561	n/a	n/a	0	0	0
3910058	WORD	wordpools/wasnorm_wordpool_576.txt	LTP377	ltpFR2	7	20	BLUEPRINT	142	n/a	n/a	0	0	0
3912723	WORD	wordpools/wasnorm_wordpool_576.txt	LTP377	ltpFR2	7	20	COD	340	n/a	n/a	0	0	0
3915191	WORD	wordpools/wasnorm_wordpool_576.txt	LTP377	ltpFR2	7	20	VELVET	1555	n/a	n/a	0	0	0
3917723	WORD	wordpools/wasnorm_wordpool_576.txt	LTP377	ltpFR2	7	20	FLESH	579	n/a	n/a	0	0	0
3920224	WORD	wordpools/wasnorm_wordpool_576.txt	LTP377	ltpFR2	7	20	PLASTER	1085	n/a	n/a	0	0	0
3922856	WORD	wordpools/wasnorm_wordpool_576.txt	LTP377	ltpFR2	7	20	COWBOY	395	n/a	n/a	0	0	0
3925373	WORD	wordpools/wasnorm_wordpool_576.txt	LTP377	ltpFR2	7	20	FILM	565	n/a	n/a	0	0	0
3927924	WORD	wordpools/wasnorm_wordpool_576.txt	LTP377	ltpFR2	7	20	CRITIC	410	n/a	n/a	0	0	0
3930373	WORD	wordpools/wasnorm_wordpool_576.txt	LTP377	ltpFR2	7	20	STUDENT	1395	n/a	n/a	0	0	0
3931974	START	n/a	LTP377	ltpFR2	7	n/a	n/a	n/a	29	n/a	n/a	n/a	n/a
3933062	DISTRACTOR	n/a	LTP377	ltpFR2	7	20	n/a	n/a	n/a	n/a	0	0	0
3933074	PROB	n/a	LTP377	ltpFR2	7	n/a	n/a	n/a	29	23	9	5	9
3937473	PROB	n/a	LTP377	ltpFR2	7	n/a	n/a	n/a	29	17	4	8	5
3939324	PROB	n/a	LTP377	ltpFR2	7	n/a	n/a	n/a	29	13	1	3	9
3942907	PROB	n/a	LTP377	ltpFR2	7	n/a	n/a	n/a	29	9	2	2	5
3945406	PROB	n/a	LTP377	ltpFR2	7	n/a	n/a	n/a	29	18	7	4	7
3948040	PROB	n/a	LTP377	ltpFR2	7	n/a	n/a	n/a	29	17	5	6	6
3951656	PROB	n/a	LTP377	ltpFR2	7	n/a	n/a	n/a	29	24	6	9	9
3954690	STOP	n/a	LTP377	ltpFR2	7	n/a	n/a	n/a	29	n/a	n/a	n/a	n/a
3957790	REC_START	n/a	LTP377	ltpFR2	7	20	n/a	n/a	n/a	n/a	0	0	0
3962981	REC_WORD	wordpools/wasnorm_wordpool_576.txt	LTP377	ltpFR2	7	20	PUPIL	1143	n/a	n/a	0	0	0
3964468	REC_WORD	wordpools/wasnorm_wordpool_576.txt	LTP377	ltpFR2	7	20	STUDENT	1395	n/a	n/a	0	0	0
3965865	REC_WORD	wordpools/wasnorm_wordpool_576.txt	LTP377	ltpFR2	7	20	LAKE	796	n/a	n/a	0	0	0
3966418	REC_WORD	wordpools/wasnorm_wordpool_576.txt	LTP377	ltpFR2	7	20	SNAKE	1333	n/a	n/a	0	0	0
3967255	REC_WORD	wordpools/wasnorm_wordpool_576.txt	LTP377	ltpFR2	7	20	GARDEN	623	n/a	n/a	0	0	0
3969726	REC_WORD	wordpools/wasnorm_wordpool_576.txt	LTP377	ltpFR2	7	20	PALACE	1006	n/a	n/a	0	0	0
3970564	REC_WORD	wordpools/wasnorm_wordpool_576.txt	LTP377	ltpFR2	7	20	COTTAGE	384	n/a	n/a	0	0	0
3971405	REC_WORD	wordpools/wasnorm_wordpool_576.txt	LTP377	ltpFR2	7	20	HUSBAND	728	n/a	n/a	0	0	0
3972084	REC_WORD	wordpools/wasnorm_wordpool_576.txt	LTP377	ltpFR2	7	20	FLESH	579	n/a	n/a	0	0	0
3972819	REC_WORD	wordpools/wasnorm_wordpool_576.txt	LTP377	ltpFR2	7	20	VELVET	1555	n/a	n/a	0	0	0
3978569	REC_WORD	wordpools/wasnorm_wordpool_576.txt	LTP377	ltpFR2	7	20	FLIPPER	580	n/a	n/a	0	0	0
3979569	REC_WORD_VV	wordpools/wasnorm_wordpool_576.txt	LTP377	ltpFR2	7	20	<>	-1	n/a	n/a	0	0	0
3982652	REC_WORD	wordpools/wasnorm_wordpool_576.txt	LTP377	ltpFR2	7	20	TABLET	1427	n/a	n/a	0	0	0
3983647	REC_WORD	wordpools/wasnorm_wordpool_576.txt	LTP377	ltpFR2	7	20	AUTHOR	61	n/a	n/a	0	0	0
3986712	REC_WORD	wordpools/wasnorm_wordpool_576.txt	LTP377	ltpFR2	7	20	FIDDLE	561	n/a	n/a	0	0	0
4017490	REC_WORD	wordpools/wasnorm_wordpool_576.txt	LTP377	ltpFR2	7	20	VIRUS	1572	n/a	n/a	0	0	0
4048205	DISTRACTOR	n/a	LTP377	ltpFR2	7	21	n/a	n/a	n/a	n/a	0	0	0
4048206	START	n/a	LTP377	ltpFR2	7	n/a	n/a	n/a	30	n/a	n/a	n/a	n/a
4048222	PROB	n/a	LTP377	ltpFR2	7	n/a	n/a	n/a	30	11	6	1	4
4050688	PROB	n/a	LTP377	ltpFR2	7	n/a	n/a	n/a	30	15	7	6	2
4052989	PROB	n/a	LTP377	ltpFR2	7	n/a	n/a	n/a	30	14	4	4	6
4054989	PROB	n/a	LTP377	ltpFR2	7	n/a	n/a	n/a	30	17	4	5	8
4058222	PROB	n/a	LTP377	ltpFR2	7	n/a	n/a	n/a	30	12	2	9	1
4060005	PROB	n/a	LTP377	ltpFR2	7	n/a	n/a	n/a	30	21	9	6	6
4062754	PROB	n/a	LTP377	ltpFR2	7	n/a	n/a	n/a	30	9	6	1	2
4066272	PROB	n/a	LTP377	ltpFR2	7	n/a	n/a	n/a	30	20	5	7	8
4068787	PROB	n/a	LTP377	ltpFR2	7	n/a	n/a	n/a	30	18	8	4	6
4072205	STOP	n/a	LTP377	ltpFR2	7	n/a	n/a	n/a	30	n/a	n/a	n/a	n/a
4073255	WORD	wordpools/wasnorm_wordpool_576.txt	LTP377	ltpFR2	7	21	TOMBSTONE	1478	n/a	n/a	0	0	0
4075988	WORD	wordpools/wasnorm_wordpool_576.txt	LTP377	ltpFR2	7	21	LUGGAGE	847	n/a	n/a	0	0	0
4078754	WORD	wordpools/wasnorm_wordpool_576.txt	LTP377	ltpFR2	7	21	LAVA	804	n/a	n/a	0	0	0
4081487	WORD	wordpools/wasnorm_wordpool_576.txt	LTP377	ltpFR2	7	21	CRATER	400	n/a	n/a	0	0	0
4084272	WORD	wordpools/wasnorm_wordpool_576.txt	LTP377	ltpFR2	7	21	LIZARD	834	n/a	n/a	0	0	0
4086888	WORD	wordpools/wasnorm_wordpool_576.txt	LTP377	ltpFR2	7	21	COBRA	336	n/a	n/a	0	0	0
4089654	WORD	wordpools/wasnorm_wordpool_576.txt	LTP377	ltpFR2	7	21	GARLIC	624	n/a	n/a	0	0	0
4092454	WORD	wordpools/wasnorm_wordpool_576.txt	LTP377	ltpFR2	7	21	SHERIFF	1284	n/a	n/a	0	0	0
4094938	WORD	wordpools/wasnorm_wordpool_576.txt	LTP377	ltpFR2	7	21	CANDY	230	n/a	n/a	0	0	0
4097420	WORD	wordpools/wasnorm_wordpool_576.txt	LTP377	ltpFR2	7	21	ICING	732	n/a	n/a	0	0	0
4099921	WORD	wordpools/wasnorm_wordpool_576.txt	LTP377	ltpFR2	7	21	PASTRY	1022	n/a	n/a	0	0	0
4102504	WORD	wordpools/wasnorm_wordpool_576.txt	LTP377	ltpFR2	7	21	LOFT	840	n/a	n/a	0	0	0
4105321	WORD	wordpools/wasnorm_wordpool_576.txt	LTP377	ltpFR2	7	21	LUMBER	848	n/a	n/a	0	0	0
4108138	WORD	wordpools/wasnorm_wordpool_576.txt	LTP377	ltpFR2	7	21	SANDWICH	1232	n/a	n/a	0	0	0
4110787	WORD	wordpools/wasnorm_wordpool_576.txt	LTP377	ltpFR2	7	21	PAIL	1002	n/a	n/a	0	0	0
4113288	WORD	wordpools/wasnorm_wordpool_576.txt	LTP377	ltpFR2	7	21	TRANSPLANT	1496	n/a	n/a	0	0	0
4116021	WORD	wordpools/wasnorm_wordpool_576.txt	LTP377	ltpFR2	7	21	TERMITE	1451	n/a	n/a	0	0	0
4118520	WORD	wordpools/wasnorm_wordpool_576.txt	LTP377	ltpFR2	7	21	TART	1436	n/a	n/a	0	0	0
4121238	WORD	wordpools/wasnorm_wordpool_576.txt	LTP377	ltpFR2	7	21	SUNSET	1408	n/a	n/a	0	0	0
4123803	WORD	wordpools/wasnorm_wordpool_576.txt	LTP377	ltpFR2	7	21	POLICE	1098	n/a	n/a	0	0	0
4126420	WORD	wordpools/wasnorm_wordpool_576.txt	LTP377	ltpFR2	7	21	TURTLE	1522	n/a	n/a	0	0	0
4128987	WORD	wordpools/wasnorm_wordpool_576.txt	LTP377	ltpFR2	7	21	BRANCH	168	n/a	n/a	0	0	0
4131536	WORD	wordpools/wasnorm_wordpool_576.txt	LTP377	ltpFR2	7	21	ANTLER	29	n/a	n/a	0	0	0
4133954	WORD	wordpools/wasnorm_wordpool_576.txt	LTP377	ltpFR2	7	21	REBEL	1172	n/a	n/a	0	0	0
4135570	START	n/a	LTP377	ltpFR2	7	n/a	n/a	n/a	31	n/a	n/a	n/a	n/a
4136449	DISTRACTOR	n/a	LTP377	ltpFR2	7	21	n/a	n/a	n/a	n/a	0	0	0
4136453	PROB	n/a	LTP377	ltpFR2	7	n/a	n/a	n/a	31	13	3	2	8
4139104	PROB	n/a	LTP377	ltpFR2	7	n/a	n/a	n/a	31	13	3	3	7
4140803	PROB	n/a	LTP377	ltpFR2	7	n/a	n/a	n/a	31	14	4	8	2
4144620	PROB	n/a	LTP377	ltpFR2	7	n/a	n/a	n/a	31	5	2	1	2
4146736	PROB	n/a	LTP377	ltpFR2	7	n/a	n/a	n/a	31	15	7	7	1
4148137	PROB	n/a	LTP377	ltpFR2	7	n/a	n/a	n/a	31	16	1	6	9
4150137	PROB	n/a	LTP377	ltpFR2	7	n/a	n/a	n/a	31	15	1	6	8
4152536	PROB	n/a	LTP377	ltpFR2	7	n/a	n/a	n/a	31	8	2	3	3
4154469	PROB	n/a	LTP377	ltpFR2	7	n/a	n/a	n/a	31	9	3	2	4
4159570	STOP	n/a	LTP377	ltpFR2	7	n/a	n/a	n/a	31	n/a	n/a	n/a	n/a
4161520	REC_START	n/a	LTP377	ltpFR2	7	21	n/a	n/a	n/a	n/a	0	0	0
4162285	REC_WORD	wordpools/wasnorm_wordpool_576.txt	LTP377	ltpFR2	7	21	ANTLER	29	n/a	n/a	0	0	0
4163028	REC_WORD	wordpools/wasnorm_wordpool_576.txt	LTP377	ltpFR2	7	21	LUGGAGE	847	n/a	n/a	0	0	0
4163997	REC_WORD	wordpools/wasnorm_wordpool_576.txt	LTP377	ltpFR2	7	21	UNDER	-1	n/a	n/a	0	0	0
4164876	REC_WORD	wordpools/wasnorm_wordpool_576.txt	LTP377	ltpFR2	7	21	TOMBSTONE	1478	n/a	n/a	0	0	0
4167225	REC_WORD	wordpools/wasnorm_wordpool_576.txt	LTP377	ltpFR2	7	21	SUNSET	1408	n/a	n/a	0	0	0
4168424	REC_WORD	wordpools/wasnorm_wordpool_576.txt	LTP377	ltpFR2	7	21	VINE	1568	n/a	n/a	0	0	0
4172163	REC_WORD	wordpools/wasnorm_wordpool_576.txt	LTP377	ltpFR2	7	21	LAVA	804	n/a	n/a	0	0	0
4251952	DISTRACTOR	n/a	LTP377	ltpFR2	7	22	n/a	n/a	n/a	n/a	0	0	0
4251952	START	n/a	LTP377	ltpFR2	7	n/a	n/a	n/a	32	n/a	n/a	n/a	n/a
4251969	PROB	n/a	LTP377	ltpFR2	7	n/a	n/a	n/a	32	11	2	7	2
4255601	PROB	n/a	LTP377	ltpFR2	7	n/a	n/a	n/a	32	10	2	5	3
4257668	PROB	n/a	LTP377	ltpFR2	7	n/a	n/a	n/a	32	9	4	1	4
4259019	PROB	n/a	LTP377	ltpFR2	7	n/a	n/a	n/a	32	10	1	1	8
4260535	PROB	n/a	LTP377	ltpFR2	7	n/a	n/a	n/a	32	19	5	8	6
4262985	PROB	n/a	LTP377	ltpFR2	7	n/a	n/a	n/a	32	10	1	4	5
4264985	PROB	n/a	LTP377	ltpFR2	7	n/a	n/a	n/a	32	15	7	6	2
4267002	PROB	n/a	LTP377	ltpFR2	7	n/a	n/a	n/a	32	13	3	4	6
4269534	PROB	n/a	LTP377	ltpFR2	7	n/a	n/a	n/a	32	14	7	2	5
4271868	PROB	n/a	LTP377	ltpFR2	7	n/a	n/a	n/a	32	17	7	2	8
4274135	PROB	n/a	LTP377	ltpFR2	7	n/a	n/a	n/a	32	9	4	1	4
4275540	STOP	n/a	LTP377	ltpFR2	7	n/a	n/a	n/a	32	n/a	n/a	n/a	n/a
4276885	WORD	wordpools/wasnorm_wordpool_576.txt	LTP377	ltpFR2	7	22	CUSTARD	429	n/a	n/a	0	0	0
4279534	WORD	wordpools/wasnorm_wordpool_576.txt	LTP377	ltpFR2	7	22	CITRUS	313	n/a	n/a	0	0	0
4282235	WORD	wordpools/wasnorm_wordpool_576.txt	LTP377	ltpFR2	7	22	FARMER	553	n/a	n/a	0	0	0
4284851	WORD	wordpools/wasnorm_wordpool_576.txt	LTP377	ltpFR2	7	22	PICTURE	1061	n/a	n/a	0	0	0
4287601	WORD	wordpools/wasnorm_wordpool_576.txt	LTP377	ltpFR2	7	22	NAPKIN	937	n/a	n/a	0	0	0
4290135	WORD	wordpools/wasnorm_wordpool_576.txt	LTP377	ltpFR2	7	22	TRACTOR	1493	n/a	n/a	0	0	0
4292584	WORD	wordpools/wasnorm_wordpool_576.txt	LTP377	ltpFR2	7	22	PEDAL	1037	n/a	n/a	0	0	0
4295185	WORD	wordpools/wasnorm_wordpool_576.txt	LTP377	ltpFR2	7	22	SPOUSE	1358	n/a	n/a	0	0	0
4297935	WORD	wordpools/wasnorm_wordpool_576.txt	LTP377	ltpFR2	7	22	STAPLE	1371	n/a	n/a	0	0	0
4300734	WORD	wordpools/wasnorm_wordpool_576.txt	LTP377	ltpFR2	7	22	WIFE	1609	n/a	n/a	0	0	0
4303251	WORD	wordpools/wasnorm_wordpool_576.txt	LTP377	ltpFR2	7	22	GLASS	639	n/a	n/a	0	0	0
4305901	WORD	wordpools/wasnorm_wordpool_576.txt	LTP377	ltpFR2	7	22	WINDOW	1611	n/a	n/a	0	0	0
4308600	WORD	wordpools/wasnorm_wordpool_576.txt	LTP377	ltpFR2	7	22	BIKE	125	n/a	n/a	0	0	0
4311035	WORD	wordpools/wasnorm_wordpool_576.txt	LTP377	ltpFR2	7	22	SKILLET	1317	n/a	n/a	0	0	0
4313484	WORD	wordpools/wasnorm_wordpool_576.txt	LTP377	ltpFR2	7	22	DENTIST	447	n/a	n/a	0	0	0
4316018	WORD	wordpools/wasnorm_wordpool_576.txt	LTP377	ltpFR2	7	22	CANAL	226	n/a	n/a	0	0	0
4318667	WORD	wordpools/wasnorm_wordpool_576.txt	LTP377	ltpFR2	7	22	SWIMMER	1420	n/a	n/a	0	0	0
4321484	WORD	wordpools/wasnorm_wordpool_576.txt	LTP377	ltpFR2	7	22	PERMIT	1051	n/a	n/a	0	0	0
4324218	WORD	wordpools/wasnorm_wordpool_576.txt	LTP377	ltpFR2	7	22	GRIZZLY	662	n/a	n/a	0	0	0
4326800	WORD	wordpools/wasnorm_wordpool_576.txt	LTP377	ltpFR2	7	22	MOTEL	919	n/a	n/a	0	0	0
4329284	WORD	wordpools/wasnorm_wordpool_576.txt	LTP377	ltpFR2	7	22	TOASTER	1472	n/a	n/a	0	0	0
4331951	WORD	wordpools/wasnorm_wordpool_576.txt	LTP377	ltpFR2	7	22	QUEEN	1149	n/a	n/a	0	0	0
4334383	WORD	wordpools/wasnorm_wordpool_576.txt	LTP377	ltpFR2	7	22	SUBWAY	1400	n/a	n/a	0	0	0
4337051	WORD	wordpools/wasnorm_wordpool_576.txt	LTP377	ltpFR2	7	22	RELISH	1183	n/a	n/a	0	0	0
4338667	START	n/a	LTP377	ltpFR2	7	n/a	n/a	n/a	33	n/a	n/a	n/a	n/a
4339669	DISTRACTOR	n/a	LTP377	ltpFR2	7	22	n/a	n/a	n/a	n/a	0	0	0
4339683	PROB	n/a	LTP377	ltpFR2	7	n/a	n/a	n/a	33	18	9	1	8
4341866	PROB	n/a	LTP377	ltpFR2	7	n/a	n/a	n/a	33	10	6	3	1
4343750	PROB	n/a	LTP377	ltpFR2	7	n/a	n/a	n/a	33	14	4	6	4
4345416	PROB	n/a	LTP377	ltpFR2	7	n/a	n/a	n/a	33	10	5	3	2
4348034	PROB	n/a	LTP377	ltpFR2	7	n/a	n/a	n/a	33	8	1	3	4
4350850	PROB	n/a	LTP377	ltpFR2	7	n/a	n/a	n/a	33	15	5	9	1
4352301	PROB	n/a	LTP377	ltpFR2	7	n/a	n/a	n/a	33	17	5	6	6
4354084	PROB	n/a	LTP377	ltpFR2	7	n/a	n/a	n/a	33	19	9	5	5
4355583	PROB	n/a	LTP377	ltpFR2	7	n/a	n/a	n/a	33	23	9	7	7
4362663	STOP	n/a	LTP377	ltpFR2	7	n/a	n/a	n/a	33	n/a	n/a	n/a	n/a
4364517	REC_START	n/a	LTP377	ltpFR2	7	22	n/a	n/a	n/a	n/a	0	0	0
4365681	REC_WORD	wordpools/wasnorm_wordpool_576.txt	LTP377	ltpFR2	7	22	RELISH	1183	n/a	n/a	0	0	0
4366311	REC_WORD	wordpools/wasnorm_wordpool_576.txt	LTP377	ltpFR2	7	22	WINDOW	1611	n/a	n/a	0	0	0
4366948	REC_WORD	wordpools/wasnorm_wordpool_576.txt	LTP377	ltpFR2	7	22	GLASS	639	n/a	n/a	0	0	0
4367829	REC_WORD	wordpools/wasnorm_wordpool_576.txt	LTP377	ltpFR2	7	22	SWIMMER	1420	n/a	n/a	0	0	0
4368628	REC_WORD	wordpools/wasnorm_wordpool_576.txt	LTP377	ltpFR2	7	22	PERMIT	1051	n/a	n/a	0	0	0
4370033	REC_WORD	wordpools/wasnorm_wordpool_576.txt	LTP377	ltpFR2	7	22	MOTEL	919	n/a	n/a	0	0	0
4370919	REC_WORD	wordpools/wasnorm_wordpool_576.txt	LTP377	ltpFR2	7	22	WIFE	1609	n/a	n/a	0	0	0
4371274	REC_WORD	wordpools/wasnorm_wordpool_576.txt	LTP377	ltpFR2	7	22	SPOUSE	1358	n/a	n/a	0	0	0
4374216	REC_WORD	wordpools/wasnorm_wordpool_576.txt	LTP377	ltpFR2	7	22	SKILLET	1317	n/a	n/a	0	0	0
4376144	REC_WORD	wordpools/wasnorm_wordpool_576.txt	LTP377	ltpFR2	7	22	CANAL	226	n/a	n/a	0	0	0
4380473	REC_WORD	wordpools/wasnorm_wordpool_576.txt	LTP377	ltpFR2	7	22	DENTIST	447	n/a	n/a	0	0	0
4385964	REC_WORD	wordpools/wasnorm_wordpool_576.txt	LTP377	ltpFR2	7	22	SUBWAY	1400	n/a	n/a	0	0	0
4388432	REC_WORD	wordpools/wasnorm_wordpool_576.txt	LTP377	ltpFR2	7	22	PERMIT	1051	n/a	n/a	0	0	0
4389778	REC_WORD	wordpools/wasnorm_wordpool_576.txt	LTP377	ltpFR2	7	22	GRIZZLY	662	n/a	n/a	0	0	0
4400887	REC_WORD	wordpools/wasnorm_wordpool_576.txt	LTP377	ltpFR2	7	22	WINDOW	1611	n/a	n/a	0	0	0
4454933	DISTRACTOR	n/a	LTP377	ltpFR2	7	23	n/a	n/a	n/a	n/a	0	0	0
4454933	START	n/a	LTP377	ltpFR2	7	n/a	n/a	n/a	34	n/a	n/a	n/a	n/a
4454949	PROB	n/a	LTP377	ltpFR2	7	n/a	n/a	n/a	34	18	5	7	6
4457798	PROB	n/a	LTP377	ltpFR2	7	n/a	n/a	n/a	34	10	5	1	4
4460032	PROB	n/a	LTP377	ltpFR2	7	n/a	n/a	n/a	34	21	3	9	9
4461815	PROB	n/a	LTP377	ltpFR2	7	n/a	n/a	n/a	34	17	9	3	5
4464116	PROB	n/a	LTP377	ltpFR2	7	n/a	n/a	n/a	34	13	6	4	3
4468066	PROB	n/a	LTP377	ltpFR2	7	n/a	n/a	n/a	34	10	1	7	2
4470199	PROB	n/a	LTP377	ltpFR2	7	n/a	n/a	n/a	34	9	3	1	5
4471631	PROB	n/a	LTP377	ltpFR2	7	n/a	n/a	n/a	34	9	4	1	4
4472899	PROB	n/a	LTP377	ltpFR2	7	n/a	n/a	n/a	34	19	6	5	8
4478933	STOP	n/a	LTP377	ltpFR2	7	n/a	n/a	n/a	34	n/a	n/a	n/a	n/a
4479949	WORD	wordpools/wasnorm_wordpool_576.txt	LTP377	ltpFR2	7	23	ONION	977	n/a	n/a	0	0	0
4482448	WORD	wordpools/wasnorm_wordpool_576.txt	LTP377	ltpFR2	7	23	PLAID	1080	n/a	n/a	0	0	0
4485065	WORD	wordpools/wasnorm_wordpool_576.txt	LTP377	ltpFR2	7	23	GARBAGE	622	n/a	n/a	0	0	0
4487814	WORD	wordpools/wasnorm_wordpool_576.txt	LTP377	ltpFR2	7	23	WASP	1593	n/a	n/a	0	0	0
4490481	WORD	wordpools/wasnorm_wordpool_576.txt	LTP377	ltpFR2	7	23	JEANS	752	n/a	n/a	0	0	0
4493048	WORD	wordpools/wasnorm_wordpool_576.txt	LTP377	ltpFR2	7	23	DRAGON	492	n/a	n/a	0	0	0
4495664	WORD	wordpools/wasnorm_wordpool_576.txt	LTP377	ltpFR2	7	23	PERFUME	1049	n/a	n/a	0	0	0
4498298	WORD	wordpools/wasnorm_wordpool_576.txt	LTP377	ltpFR2	7	23	LAMP	798	n/a	n/a	0	0	0
4500882	WORD	wordpools/wasnorm_wordpool_576.txt	LTP377	ltpFR2	7	23	SLIDE	1326	n/a	n/a	0	0	0
4503647	WORD	wordpools/wasnorm_wordpool_576.txt	LTP377	ltpFR2	7	23	LAGOON	795	n/a	n/a	0	0	0
4506065	WORD	wordpools/wasnorm_wordpool_576.txt	LTP377	ltpFR2	7	23	HORNET	718	n/a	n/a	0	0	0
4508664	WORD	wordpools/wasnorm_wordpool_576.txt	LTP377	ltpFR2	7	23	OFFICE	972	n/a	n/a	0	0	0
4511381	WORD	wordpools/wasnorm_wordpool_576.txt	LTP377	ltpFR2	7	23	CASHEW	253	n/a	n/a	0	0	0
4513965	WORD	wordpools/wasnorm_wordpool_576.txt	LTP377	ltpFR2	7	23	GIFT	635	n/a	n/a	0	0	0
4516447	WORD	wordpools/wasnorm_wordpool_576.txt	LTP377	ltpFR2	7	23	ORCHID	982	n/a	n/a	0	0	0
4519165	WORD	wordpools/wasnorm_wordpool_576.txt	LTP377	ltpFR2	7	23	EMPIRE	530	n/a	n/a	0	0	0
4521664	WORD	wordpools/wasnorm_wordpool_576.txt	LTP377	ltpFR2	7	23	THRONE	1461	n/a	n/a	0	0	0
4524315	WORD	wordpools/wasnorm_wordpool_576.txt	LTP377	ltpFR2	7	23	MAILBOX	857	n/a	n/a	0	0	0
4526780	WORD	wordpools/wasnorm_wordpool_576.txt	LTP377	ltpFR2	7	23	SPACE	1345	n/a	n/a	0	0	0
4529514	WORD	wordpools/wasnorm_wordpool_576.txt	LTP377	ltpFR2	7	23	PISTOL	1075	n/a	n/a	0	0	0
4532198	WORD	wordpools/wasnorm_wordpool_576.txt	LTP377	ltpFR2	7	23	RIFLE	1192	n/a	n/a	0	0	0
4534898	WORD	wordpools/wasnorm_wordpool_576.txt	LTP377	ltpFR2	7	23	KETCHUP	771	n/a	n/a	0	0	0
4537364	WORD	wordpools/wasnorm_wordpool_576.txt	LTP377	ltpFR2	7	23	AWARD	63	n/a	n/a	0	0	0
4539797	WORD	wordpools/wasnorm_wordpool_576.txt	LTP377	ltpFR2	7	23	WOMAN	1620	n/a	n/a	0	0	0
4541414	START	n/a	LTP377	ltpFR2	7	n/a	n/a	n/a	35	n/a	n/a	n/a	n/a
4542419	DISTRACTOR	n/a	LTP377	ltpFR2	7	23	n/a	n/a	n/a	n/a	0	0	0
4542430	PROB	n/a	LTP377	ltpFR2	7	n/a	n/a	n/a	35	15	4	9	2
4546647	PROB	n/a	LTP377	ltpFR2	7	n/a	n/a	n/a	35	13	1	3	9
4548948	PROB	n/a	LTP377	ltpFR2	7	n/a	n/a	n/a	35	17	6	3	8
4552863	PROB	n/a	LTP377	ltpFR2	7	n/a	n/a	n/a	35	16	8	3	5
4555231	PROB	n/a	LTP377	ltpFR2	7	n/a	n/a	n/a	35	19	4	8	7
4559881	PROB	n/a	LTP377	ltpFR2	7	n/a	n/a	n/a	35	13	3	6	6
4565413	STOP	n/a	LTP377	ltpFR2	7	n/a	n/a	n/a	35	n/a	n/a	n/a	n/a
4567265	REC_START	n/a	LTP377	ltpFR2	7	23	n/a	n/a	n/a	n/a	0	0	0
4568762	REC_WORD	wordpools/wasnorm_wordpool_576.txt	LTP377	ltpFR2	7	23	WASP	1593	n/a	n/a	0	0	0
4576023	REC_WORD	wordpools/wasnorm_wordpool_576.txt	LTP377	ltpFR2	7	23	WOMAN	1620	n/a	n/a	0	0	0
4576606	REC_WORD	wordpools/wasnorm_wordpool_576.txt	LTP377	ltpFR2	7	23	AWARD	63	n/a	n/a	0	0	0
4577257	REC_WORD	wordpools/wasnorm_wordpool_576.txt	LTP377	ltpFR2	7	23	KETCHUP	771	n/a	n/a	0	0	0
4585962	REC_WORD	wordpools/wasnorm_wordpool_576.txt	LTP377	ltpFR2	7	23	CASHEW	253	n/a	n/a	0	0	0
4589711	REC_WORD	wordpools/wasnorm_wordpool_576.txt	LTP377	ltpFR2	7	23	EMPIRE	530	n/a	n/a	0	0	0
4657728	WORD	wordpools/wasnorm_wordpool_576.txt	LTP377	ltpFR2	7	24	POSSUM	1112	n/a	n/a	0	0	0
4660495	WORD	wordpools/wasnorm_wordpool_576.txt	LTP377	ltpFR2	7	24	NURSE	963	n/a	n/a	0	0	0
4663079	WORD	wordpools/wasnorm_wordpool_576.txt	LTP377	ltpFR2	7	24	OMELET	976	n/a	n/a	0	0	0
4665645	WORD	wordpools/wasnorm_wordpool_576.txt	LTP377	ltpFR2	7	24	FOREHEAD	592	n/a	n/a	0	0	0
4668229	WORD	wordpools/wasnorm_wordpool_576.txt	LTP377	ltpFR2	7	24	IDOL	733	n/a	n/a	0	0	0
4670896	WORD	wordpools/wasnorm_wordpool_576.txt	LTP377	ltpFR2	7	24	COMET	353	n/a	n/a	0	0	0
4673561	WORD	wordpools/wasnorm_wordpool_576.txt	LTP377	ltpFR2	7	24	HIGHWAY	707	n/a	n/a	0	0	0
4676179	WORD	wordpools/wasnorm_wordpool_576.txt	LTP377	ltpFR2	7	24	SEAL	1262	n/a	n/a	0	0	0
4678628	WORD	wordpools/wasnorm_wordpool_576.txt	LTP377	ltpFR2	7	24	HOUND	724	n/a	n/a	0	0	0
4681062	WORD	wordpools/wasnorm_wordpool_576.txt	LTP377	ltpFR2	7	24	MISTER	901	n/a	n/a	0	0	0
4683528	WORD	wordpools/wasnorm_wordpool_576.txt	LTP377	ltpFR2	7	24	HAMPER	682	n/a	n/a	0	0	0
4686229	WORD	wordpools/wasnorm_wordpool_576.txt	LTP377	ltpFR2	7	24	SUNRISE	1407	n/a	n/a	0	0	0
4688761	WORD	wordpools/wasnorm_wordpool_576.txt	LTP377	ltpFR2	7	24	FOOTBALL	591	n/a	n/a	0	0	0
4691279	WORD	wordpools/wasnorm_wordpool_576.txt	LTP377	ltpFR2	7	24	DIME	466	n/a	n/a	0	0	0
4694095	WORD	wordpools/wasnorm_wordpool_576.txt	LTP377	ltpFR2	7	24	HANDBAG	684	n/a	n/a	0	0	0
4696644	WORD	wordpools/wasnorm_wordpool_576.txt	LTP377	ltpFR2	7	24	DAISY	435	n/a	n/a	0	0	0
4699195	WORD	wordpools/wasnorm_wordpool_576.txt	LTP377	ltpFR2	7	24	HUMAN	726	n/a	n/a	0	0	0
4701744	WORD	wordpools/wasnorm_wordpool_576.txt	LTP377	ltpFR2	7	24	TROUT	1511	n/a	n/a	0	0	0
4704279	WORD	wordpools/wasnorm_wordpool_576.txt	LTP377	ltpFR2	7	24	SOFTBALL	1343	n/a	n/a	0	0	0
4707012	WORD	wordpools/wasnorm_wordpool_576.txt	LTP377	ltpFR2	7	24	CHILD	299	n/a	n/a	0	0	0
4709678	WORD	wordpools/wasnorm_wordpool_576.txt	LTP377	ltpFR2	7	24	BUNNY	198	n/a	n/a	0	0	0
4712328	WORD	wordpools/wasnorm_wordpool_576.txt	LTP377	ltpFR2	7	24	RABBIT	1152	n/a	n/a	0	0	0
4715145	WORD	wordpools/wasnorm_wordpool_576.txt	LTP377	ltpFR2	7	24	ITEM	746	n/a	n/a	0	0	0
4717711	WORD	wordpools/wasnorm_wordpool_576.txt	LTP377	ltpFR2	7	24	TURNIP	1521	n/a	n/a	0	0	0
4719328	START	n/a	LTP377	ltpFR2	7	n/a	n/a	n/a	36	n/a	n/a	n/a	n/a
4720498	DISTRACTOR	n/a	LTP377	ltpFR2	7	24	n/a	n/a	n/a	n/a	0	0	0
4720511	PROB	n/a	LTP377	ltpFR2	7	n/a	n/a	n/a	36	12	4	6	2
4723212	PROB	n/a	LTP377	ltpFR2	7	n/a	n/a	n/a	36	16	6	6	4
4725095	PROB	n/a	LTP377	ltpFR2	7	n/a	n/a	n/a	36	20	4	7	9
4727461	PROB	n/a	LTP377	ltpFR2	7	n/a	n/a	n/a	36	17	1	9	7
4729211	PROB	n/a	LTP377	ltpFR2	7	n/a	n/a	n/a	36	11	4	1	6
4730727	PROB	n/a	LTP377	ltpFR2	7	n/a	n/a	n/a	36	9	4	4	1
4731961	PROB	n/a	LTP377	ltpFR2	7	n/a	n/a	n/a	36	14	3	3	8
4735111	PROB	n/a	LTP377	ltpFR2	7	n/a	n/a	n/a	36	18	9	7	2
4737660	PROB	n/a	LTP377	ltpFR2	7	n/a	n/a	n/a	36	8	6	1	1
4739161	PROB	n/a	LTP377	ltpFR2	7	n/a	n/a	n/a	36	8	1	6	1
4740527	PROB	n/a	LTP377	ltpFR2	7	n/a	n/a	n/a	36	18	1	8	9
4742763	STOP	n/a	LTP377	ltpFR2	7	n/a	n/a	n/a	36	n/a	n/a	n/a	n/a
4745178	REC_START	n/a	LTP377	ltpFR2	7	24	n/a	n/a	n/a	n/a	0	0	0
4745782	REC_WORD	wordpools/wasnorm_wordpool_576.txt	LTP377	ltpFR2	7	24	BUNNY	198	n/a	n/a	0	0	0
4746387	REC_WORD	wordpools/wasnorm_wordpool_576.txt	LTP377	ltpFR2	7	24	RABBIT	1152	n/a	n/a	0	0	0
4747280	REC_WORD	wordpools/wasnorm_wordpool_576.txt	LTP377	ltpFR2	7	24	TURNIP	1521	n/a	n/a	0	0	0
4749627	REC_WORD	wordpools/wasnorm_wordpool_576.txt	LTP377	ltpFR2	7	24	COD	340	n/a	n/a	0	0	0
4753963	REC_WORD	wordpools/wasnorm_wordpool_576.txt	LTP377	ltpFR2	7	24	HIGHWAY	707	n/a	n/a	0	0	0
4755444	REC_WORD	wordpools/wasnorm_wordpool_576.txt	LTP377	ltpFR2	7	24	SEAL	1262	n/a	n/a	0	0	0
4757389	REC_WORD	wordpools/wasnorm_wordpool_576.txt	LTP377	ltpFR2	7	24	HOUND	724	n/a	n/a	0	0	0
4757986	REC_WORD	wordpools/wasnorm_wordpool_576.txt	LTP377	ltpFR2	7	24	MISTER	901	n/a	n/a	0	0	0
4824526	SESS_END	n/a	LTP377	ltpFR2	7	24	n/a	n/a	n/a	n/a	0	0	0
