mstime	trial_type	stim_file	subject	experiment	session	trial	task	item_name	item_num	recog_resp	recog_conf	resp	color_r	color_g	color_b	case	font
0	SESS_START	n/a	LTP289	ltpFR	4	n/a	n/a	n/a	n/a	1	n/a	n/a	n/a	n/a	n/a	n/a	n/a
82839	WORD	wordpools/wasnorm_wordpool_less_exclusions.txt	LTP289	ltpFR	4	1	1	CELLO	268	n/a	n/a	0	0.57763671875	0.412841796875	1	upper	zerothre.ttf
86900	WORD	wordpools/wasnorm_wordpool_less_exclusions.txt	LTP289	ltpFR	4	1	1	CARNIVAL	245	n/a	n/a	0	0.57763671875	0.412841796875	1	upper	zerothre.ttf
90910	WORD	wordpools/wasnorm_wordpool_less_exclusions.txt	LTP289	ltpFR	4	1	1	CANARY	227	n/a	n/a	0	0.57763671875	0.412841796875	1	upper	zerothre.ttf
95021	WORD	wordpools/wasnorm_wordpool_less_exclusions.txt	LTP289	ltpFR	4	1	1	PELICAN	1039	n/a	n/a	1	0.57763671875	0.412841796875	1	upper	zerothre.ttf
99249	WORD	wordpools/wasnorm_wordpool_less_exclusions.txt	LTP289	ltpFR	4	1	1	SEAL	1262	n/a	n/a	1	0.57763671875	0.412841796875	1	upper	zerothre.ttf
103126	WORD	wordpools/wasnorm_wordpool_less_exclusions.txt	LTP289	ltpFR	4	1	0	CONCERT	360	n/a	n/a	3	0.422607421875	0.5869140625	0	lower	amplitud.ttf
103774	KEY_MSG	n/a	LTP289	ltpFR	4	1	n/a	n/a	n/a	n/a	n/a	n/a	n/a	n/a	n/a	n/a	n/a
107003	WORD	wordpools/wasnorm_wordpool_less_exclusions.txt	LTP289	ltpFR	4	1	0	VOLUNTEER	1577	n/a	n/a	0	0.422607421875	0.5869140625	0	lower	amplitud.ttf
110914	WORD	wordpools/wasnorm_wordpool_less_exclusions.txt	LTP289	ltpFR	4	1	0	BAIT	70	n/a	n/a	0	0.422607421875	0.5869140625	0	lower	amplitud.ttf
114858	WORD	wordpools/wasnorm_wordpool_less_exclusions.txt	LTP289	ltpFR	4	1	0	KEEPER	769	n/a	n/a	1	0.422607421875	0.5869140625	0	lower	amplitud.ttf
118902	WORD	wordpools/wasnorm_wordpool_less_exclusions.txt	LTP289	ltpFR	4	1	1	SPONGE	1355	n/a	n/a	1	0.57763671875	0.412841796875	1	upper	zerothre.ttf
123012	WORD	wordpools/wasnorm_wordpool_less_exclusions.txt	LTP289	ltpFR	4	1	1	SLEIGH	1325	n/a	n/a	0	0.57763671875	0.412841796875	1	upper	zerothre.ttf
127023	WORD	wordpools/wasnorm_wordpool_less_exclusions.txt	LTP289	ltpFR	4	1	1	BANDIT	81	n/a	n/a	1	0.57763671875	0.412841796875	1	upper	zerothre.ttf
131067	WORD	wordpools/wasnorm_wordpool_less_exclusions.txt	LTP289	ltpFR	4	1	0	CLOWN	330	n/a	n/a	1	0.422607421875	0.5869140625	0	lower	amplitud.ttf
135061	WORD	wordpools/wasnorm_wordpool_less_exclusions.txt	LTP289	ltpFR	4	1	0	SHEARS	1276	n/a	n/a	0	0.422607421875	0.5869140625	0	lower	amplitud.ttf
139088	WORD	wordpools/wasnorm_wordpool_less_exclusions.txt	LTP289	ltpFR	4	1	0	HAMPER	682	n/a	n/a	0	0.422607421875	0.5869140625	0	lower	amplitud.ttf
143233	WORD	wordpools/wasnorm_wordpool_less_exclusions.txt	LTP289	ltpFR	4	1	0	POLYESTER	1100	n/a	n/a	0	0.422607421875	0.5869140625	0	lower	amplitud.ttf
148824	REC_START	n/a	LTP289	ltpFR	4	1	n/a	n/a	n/a	n/a	n/a	n/a	n/a	n/a	n/a	n/a	n/a
149574	REC_WORD	wordpools/wasnorm_wordpool_less_exclusions.txt	LTP289	ltpFR	4	1	0	POLYESTER	1100	n/a	n/a	0	n/a	n/a	n/a	n/a	n/a
150812	REC_WORD	wordpools/wasnorm_wordpool_less_exclusions.txt	LTP289	ltpFR	4	1	0	SHEARS	1276	n/a	n/a	0	n/a	n/a	n/a	n/a	n/a
151987	REC_WORD	wordpools/wasnorm_wordpool_less_exclusions.txt	LTP289	ltpFR	4	1	0	HAMPER	682	n/a	n/a	0	n/a	n/a	n/a	n/a	n/a
153457	REC_WORD	wordpools/wasnorm_wordpool_less_exclusions.txt	LTP289	ltpFR	4	1	1	CELLO	268	n/a	n/a	0	n/a	n/a	n/a	n/a	n/a
154589	REC_WORD	wordpools/wasnorm_wordpool_less_exclusions.txt	LTP289	ltpFR	4	1	1	CARNIVAL	245	n/a	n/a	0	n/a	n/a	n/a	n/a	n/a
155712	REC_WORD	wordpools/wasnorm_wordpool_less_exclusions.txt	LTP289	ltpFR	4	1	1	CANARY	227	n/a	n/a	0	n/a	n/a	n/a	n/a	n/a
157168	REC_WORD	wordpools/wasnorm_wordpool_less_exclusions.txt	LTP289	ltpFR	4	1	1	PELICAN	1039	n/a	n/a	1	n/a	n/a	n/a	n/a	n/a
174591	REC_WORD	wordpools/wasnorm_wordpool_less_exclusions.txt	LTP289	ltpFR	4	1	0	KEEPER	769	n/a	n/a	1	n/a	n/a	n/a	n/a	n/a
175596	REC_WORD	wordpools/wasnorm_wordpool_less_exclusions.txt	LTP289	ltpFR	4	1	1	SPONGE	1355	n/a	n/a	1	n/a	n/a	n/a	n/a	n/a
177261	REC_WORD	wordpools/wasnorm_wordpool_less_exclusions.txt	LTP289	ltpFR	4	1	0	BAIT	70	n/a	n/a	0	n/a	n/a	n/a	n/a	n/a
180334	REC_WORD	wordpools/wasnorm_wordpool_less_exclusions.txt	LTP289	ltpFR	4	1	1	SEAL	1262	n/a	n/a	1	n/a	n/a	n/a	n/a	n/a
246446	WORD	wordpools/wasnorm_wordpool_less_exclusions.txt	LTP289	ltpFR	4	2	0	DESSERT	453	n/a	n/a	1	0.422607421875	0.5869140625	0	lower	amplitud.ttf
250555	WORD	wordpools/wasnorm_wordpool_less_exclusions.txt	LTP289	ltpFR	4	2	0	PRESIDENT	1121	n/a	n/a	1	0.422607421875	0.5869140625	0	lower	amplitud.ttf
254549	WORD	wordpools/wasnorm_wordpool_less_exclusions.txt	LTP289	ltpFR	4	2	0	ORCHID	982	n/a	n/a	0	0.422607421875	0.5869140625	0	lower	amplitud.ttf
258461	WORD	wordpools/wasnorm_wordpool_less_exclusions.txt	LTP289	ltpFR	4	2	0	ROSE	1212	n/a	n/a	0	0.422607421875	0.5869140625	0	lower	amplitud.ttf
262339	WORD	wordpools/wasnorm_wordpool_less_exclusions.txt	LTP289	ltpFR	4	2	1	COBBLER	335	n/a	n/a	0	0.57763671875	0.412841796875	1	upper	zerothre.ttf
266200	WORD	wordpools/wasnorm_wordpool_less_exclusions.txt	LTP289	ltpFR	4	2	1	TUXEDO	1525	n/a	n/a	0	0.57763671875	0.412841796875	1	upper	zerothre.ttf
270059	WORD	wordpools/wasnorm_wordpool_less_exclusions.txt	LTP289	ltpFR	4	2	1	BUTTON	207	n/a	n/a	0	0.57763671875	0.412841796875	1	upper	zerothre.ttf
274138	WORD	wordpools/wasnorm_wordpool_less_exclusions.txt	LTP289	ltpFR	4	2	1	CHIMPANZEE	302	n/a	n/a	1	0.57763671875	0.412841796875	1	upper	zerothre.ttf
278331	WORD	wordpools/wasnorm_wordpool_less_exclusions.txt	LTP289	ltpFR	4	2	1	GROCERIES	663	n/a	n/a	0	0.57763671875	0.412841796875	1	upper	zerothre.ttf
282342	WORD	wordpools/wasnorm_wordpool_less_exclusions.txt	LTP289	ltpFR	4	2	1	OATMEAL	967	n/a	n/a	0	0.57763671875	0.412841796875	1	upper	zerothre.ttf
286336	WORD	wordpools/wasnorm_wordpool_less_exclusions.txt	LTP289	ltpFR	4	2	0	STOOL	1386	n/a	n/a	1	0.422607421875	0.5869140625	0	lower	amplitud.ttf
290313	WORD	wordpools/wasnorm_wordpool_less_exclusions.txt	LTP289	ltpFR	4	2	0	COUCH	386	n/a	n/a	1	0.422607421875	0.5869140625	0	lower	amplitud.ttf
294506	WORD	wordpools/wasnorm_wordpool_less_exclusions.txt	LTP289	ltpFR	4	2	0	BUN	197	n/a	n/a	0	0.422607421875	0.5869140625	0	lower	amplitud.ttf
298600	WORD	wordpools/wasnorm_wordpool_less_exclusions.txt	LTP289	ltpFR	4	2	0	HEADBAND	696	n/a	n/a	0	0.422607421875	0.5869140625	0	lower	amplitud.ttf
302429	WORD	wordpools/wasnorm_wordpool_less_exclusions.txt	LTP289	ltpFR	4	2	1	VASE	1549	n/a	n/a	0	0.57763671875	0.412841796875	1	upper	zerothre.ttf
306290	WORD	wordpools/wasnorm_wordpool_less_exclusions.txt	LTP289	ltpFR	4	2	1	LEADER	807	n/a	n/a	1	0.57763671875	0.412841796875	1	upper	zerothre.ttf
312148	REC_START	n/a	LTP289	ltpFR	4	2	n/a	n/a	n/a	n/a	n/a	n/a	n/a	n/a	n/a	n/a	n/a
313029	REC_WORD	wordpools/wasnorm_wordpool_less_exclusions.txt	LTP289	ltpFR	4	2	1	VASE	1549	n/a	n/a	0	n/a	n/a	n/a	n/a	n/a
314057	REC_WORD	wordpools/wasnorm_wordpool_less_exclusions.txt	LTP289	ltpFR	4	2	1	LEADER	807	n/a	n/a	1	n/a	n/a	n/a	n/a	n/a
315029	REC_WORD	wordpools/wasnorm_wordpool_less_exclusions.txt	LTP289	ltpFR	4	2	0	PRESIDENT	1121	n/a	n/a	1	n/a	n/a	n/a	n/a	n/a
316246	REC_WORD	wordpools/wasnorm_wordpool_less_exclusions.txt	LTP289	ltpFR	4	2	0	DESSERT	453	n/a	n/a	1	n/a	n/a	n/a	n/a	n/a
317656	REC_WORD	wordpools/wasnorm_wordpool_less_exclusions.txt	LTP289	ltpFR	4	2	1	CHIMPANZEE	302	n/a	n/a	1	n/a	n/a	n/a	n/a	n/a
319140	REC_WORD	wordpools/wasnorm_wordpool_less_exclusions.txt	LTP289	ltpFR	4	2	1	GROCERIES	663	n/a	n/a	0	n/a	n/a	n/a	n/a	n/a
320519	REC_WORD	wordpools/wasnorm_wordpool_less_exclusions.txt	LTP289	ltpFR	4	2	0	ORCHID	982	n/a	n/a	0	n/a	n/a	n/a	n/a	n/a
321581	REC_WORD	wordpools/wasnorm_wordpool_less_exclusions.txt	LTP289	ltpFR	4	2	0	ROSE	1212	n/a	n/a	0	n/a	n/a	n/a	n/a	n/a
332488	REC_WORD	wordpools/wasnorm_wordpool_less_exclusions.txt	LTP289	ltpFR	4	2	0	BUN	197	n/a	n/a	0	n/a	n/a	n/a	n/a	n/a
335104	REC_WORD	wordpools/wasnorm_wordpool_less_exclusions.txt	LTP289	ltpFR	4	2	0	HEADBAND	696	n/a	n/a	0	n/a	n/a	n/a	n/a	n/a
406207	WORD	wordpools/wasnorm_wordpool_less_exclusions.txt	LTP289	ltpFR	4	3	1	LUNCH	849	n/a	n/a	0	0.57763671875	0.412841796875	1	upper	zerothre.ttf
410100	WORD	wordpools/wasnorm_wordpool_less_exclusions.txt	LTP289	ltpFR	4	3	1	RATTLE	1170	n/a	n/a	0	0.57763671875	0.412841796875	1	upper	zerothre.ttf
414278	WORD	wordpools/wasnorm_wordpool_less_exclusions.txt	LTP289	ltpFR	4	3	1	CATCHER	258	n/a	n/a	1	0.57763671875	0.412841796875	1	upper	zerothre.ttf
418189	WORD	wordpools/wasnorm_wordpool_less_exclusions.txt	LTP289	ltpFR	4	3	1	TAG	1429	n/a	n/a	0	0.57763671875	0.412841796875	1	upper	zerothre.ttf
422099	WORD	wordpools/wasnorm_wordpool_less_exclusions.txt	LTP289	ltpFR	4	3	1	FLASK	576	n/a	n/a	0	0.57763671875	0.412841796875	1	upper	zerothre.ttf
426076	WORD	wordpools/wasnorm_wordpool_less_exclusions.txt	LTP289	ltpFR	4	3	0	GRASSHOPPER	656	n/a	n/a	0	0.422607421875	0.5869140625	0	lower	amplitud.ttf
429971	WORD	wordpools/wasnorm_wordpool_less_exclusions.txt	LTP289	ltpFR	4	3	0	STOMACH	1384	n/a	n/a	1	0.422607421875	0.5869140625	0	lower	amplitud.ttf
434182	WORD	wordpools/wasnorm_wordpool_less_exclusions.txt	LTP289	ltpFR	4	3	0	BEVERAGE	123	n/a	n/a	1	0.422607421875	0.5869140625	0	lower	amplitud.ttf
438409	WORD	wordpools/wasnorm_wordpool_less_exclusions.txt	LTP289	ltpFR	4	3	0	CLARINET	317	n/a	n/a	1	0.422607421875	0.5869140625	0	lower	amplitud.ttf
442420	WORD	wordpools/wasnorm_wordpool_less_exclusions.txt	LTP289	ltpFR	4	3	1	TAPE	1433	n/a	n/a	0	0.57763671875	0.412841796875	1	upper	zerothre.ttf
446347	WORD	wordpools/wasnorm_wordpool_less_exclusions.txt	LTP289	ltpFR	4	3	1	TICK	1463	n/a	n/a	0	0.57763671875	0.412841796875	1	upper	zerothre.ttf
450490	WORD	wordpools/wasnorm_wordpool_less_exclusions.txt	LTP289	ltpFR	4	3	1	BEETLE	116	n/a	n/a	1	0.57763671875	0.412841796875	1	upper	zerothre.ttf
454717	WORD	wordpools/wasnorm_wordpool_less_exclusions.txt	LTP289	ltpFR	4	3	0	DUMP	505	n/a	n/a	1	0.422607421875	0.5869140625	0	lower	amplitud.ttf
458894	WORD	wordpools/wasnorm_wordpool_less_exclusions.txt	LTP289	ltpFR	4	3	0	CLIMBER	323	n/a	n/a	1	0.422607421875	0.5869140625	0	lower	amplitud.ttf
463055	WORD	wordpools/wasnorm_wordpool_less_exclusions.txt	LTP289	ltpFR	4	3	0	BUILDER	190	n/a	n/a	1	0.422607421875	0.5869140625	0	lower	amplitud.ttf
467116	WORD	wordpools/wasnorm_wordpool_less_exclusions.txt	LTP289	ltpFR	4	3	0	LIZARD	834	n/a	n/a	0	0.422607421875	0.5869140625	0	lower	amplitud.ttf
473125	REC_START	n/a	LTP289	ltpFR	4	3	n/a	n/a	n/a	n/a	n/a	n/a	n/a	n/a	n/a	n/a	n/a
473877	REC_WORD	wordpools/wasnorm_wordpool_less_exclusions.txt	LTP289	ltpFR	4	3	0	BUILDER	190	n/a	n/a	1	n/a	n/a	n/a	n/a	n/a
474840	REC_WORD	wordpools/wasnorm_wordpool_less_exclusions.txt	LTP289	ltpFR	4	3	0	CLIMBER	323	n/a	n/a	1	n/a	n/a	n/a	n/a	n/a
476016	REC_WORD	wordpools/wasnorm_wordpool_less_exclusions.txt	LTP289	ltpFR	4	3	0	LIZARD	834	n/a	n/a	0	n/a	n/a	n/a	n/a	n/a
477591	REC_WORD	wordpools/wasnorm_wordpool_less_exclusions.txt	LTP289	ltpFR	4	3	1	TAPE	1433	n/a	n/a	0	n/a	n/a	n/a	n/a	n/a
478831	REC_WORD	wordpools/wasnorm_wordpool_less_exclusions.txt	LTP289	ltpFR	4	3	1	FLASK	576	n/a	n/a	0	n/a	n/a	n/a	n/a	n/a
480186	REC_WORD	wordpools/wasnorm_wordpool_less_exclusions.txt	LTP289	ltpFR	4	3	1	CATCHER	258	n/a	n/a	1	n/a	n/a	n/a	n/a	n/a
482782	REC_WORD	wordpools/wasnorm_wordpool_less_exclusions.txt	LTP289	ltpFR	4	3	1	TAG	1429	n/a	n/a	0	n/a	n/a	n/a	n/a	n/a
484395	REC_WORD	wordpools/wasnorm_wordpool_less_exclusions.txt	LTP289	ltpFR	4	3	1	RATTLE	1170	n/a	n/a	0	n/a	n/a	n/a	n/a	n/a
486660	REC_WORD	wordpools/wasnorm_wordpool_less_exclusions.txt	LTP289	ltpFR	4	3	1	TICK	1463	n/a	n/a	0	n/a	n/a	n/a	n/a	n/a
502606	REC_WORD	wordpools/wasnorm_wordpool_less_exclusions.txt	LTP289	ltpFR	4	3	0	CLARINET	317	n/a	n/a	1	n/a	n/a	n/a	n/a	n/a
511005	REC_WORD	wordpools/wasnorm_wordpool_less_exclusions.txt	LTP289	ltpFR	4	3	0	GRASSHOPPER	656	n/a	n/a	0	n/a	n/a	n/a	n/a	n/a
527541	REC_WORD	wordpools/wasnorm_wordpool_less_exclusions.txt	LTP289	ltpFR	4	3	1	BEETLE	116	n/a	n/a	1	n/a	n/a	n/a	n/a	n/a
537808	REC_WORD	wordpools/wasnorm_wordpool_less_exclusions.txt	LTP289	ltpFR	4	3	0	DUMP	505	n/a	n/a	1	n/a	n/a	n/a	n/a	n/a
558895	WORD	wordpools/wasnorm_wordpool_less_exclusions.txt	LTP289	ltpFR	4	4	1	STEP	1377	n/a	n/a	0	0.57763671875	0.412841796875	1	upper	zerothre.ttf
563088	WORD	wordpools/wasnorm_wordpool_less_exclusions.txt	LTP289	ltpFR	4	4	1	MOUSE	925	n/a	n/a	1	0.57763671875	0.412841796875	1	upper	zerothre.ttf
567200	WORD	wordpools/wasnorm_wordpool_less_exclusions.txt	LTP289	ltpFR	4	4	0	SAND	1230	n/a	n/a	1	0.422607421875	0.5869140625	0	lower	amplitud.ttf
571194	WORD	wordpools/wasnorm_wordpool_less_exclusions.txt	LTP289	ltpFR	4	4	0	SQUIRREL	1362	n/a	n/a	1	0.422607421875	0.5869140625	0	lower	amplitud.ttf
575288	WORD	wordpools/wasnorm_wordpool_less_exclusions.txt	LTP289	ltpFR	4	4	0	TICKET	1464	n/a	n/a	0	0.422607421875	0.5869140625	0	lower	amplitud.ttf
579232	WORD	wordpools/wasnorm_wordpool_less_exclusions.txt	LTP289	ltpFR	4	4	0	BLUEJAY	141	n/a	n/a	1	0.422607421875	0.5869140625	0	lower	amplitud.ttf
583309	WORD	wordpools/wasnorm_wordpool_less_exclusions.txt	LTP289	ltpFR	4	4	1	PEDESTRIAN	1038	n/a	n/a	1	0.57763671875	0.412841796875	1	upper	zerothre.ttf
587420	WORD	wordpools/wasnorm_wordpool_less_exclusions.txt	LTP289	ltpFR	4	4	1	CREW	406	n/a	n/a	1	0.57763671875	0.412841796875	1	upper	zerothre.ttf
591397	WORD	wordpools/wasnorm_wordpool_less_exclusions.txt	LTP289	ltpFR	4	4	0	MOVIE	927	n/a	n/a	0	0.422607421875	0.5869140625	0	lower	amplitud.ttf
595473	WORD	wordpools/wasnorm_wordpool_less_exclusions.txt	LTP289	ltpFR	4	4	0	WHEEL	1603	n/a	n/a	1	0.422607421875	0.5869140625	0	lower	amplitud.ttf
599584	WORD	wordpools/wasnorm_wordpool_less_exclusions.txt	LTP289	ltpFR	4	4	0	OVAL	990	n/a	n/a	0	0.422607421875	0.5869140625	0	lower	amplitud.ttf
603413	WORD	wordpools/wasnorm_wordpool_less_exclusions.txt	LTP289	ltpFR	4	4	0	HAWK	692	n/a	n/a	1	0.422607421875	0.5869140625	0	lower	amplitud.ttf
607506	WORD	wordpools/wasnorm_wordpool_less_exclusions.txt	LTP289	ltpFR	4	4	1	SARDINE	1235	n/a	n/a	1	0.57763671875	0.412841796875	1	upper	zerothre.ttf
611649	WORD	wordpools/wasnorm_wordpool_less_exclusions.txt	LTP289	ltpFR	4	4	1	TANK	1432	n/a	n/a	1	0.57763671875	0.412841796875	1	upper	zerothre.ttf
615577	WORD	wordpools/wasnorm_wordpool_less_exclusions.txt	LTP289	ltpFR	4	4	1	PASSENGER	1020	n/a	n/a	1	0.57763671875	0.412841796875	1	upper	zerothre.ttf
619754	WORD	wordpools/wasnorm_wordpool_less_exclusions.txt	LTP289	ltpFR	4	4	1	AIRPORT	13	n/a	n/a	0	0.57763671875	0.412841796875	1	upper	zerothre.ttf
625646	REC_START	n/a	LTP289	ltpFR	4	4	n/a	n/a	n/a	n/a	n/a	n/a	n/a	n/a	n/a	n/a	n/a
626481	REC_WORD	wordpools/wasnorm_wordpool_less_exclusions.txt	LTP289	ltpFR	4	4	1	PASSENGER	1020	n/a	n/a	1	n/a	n/a	n/a	n/a	n/a
627658	REC_WORD	wordpools/wasnorm_wordpool_less_exclusions.txt	LTP289	ltpFR	4	4	1	AIRPORT	13	n/a	n/a	0	n/a	n/a	n/a	n/a	n/a
628804	REC_WORD	wordpools/wasnorm_wordpool_less_exclusions.txt	LTP289	ltpFR	4	4	1	SARDINE	1235	n/a	n/a	1	n/a	n/a	n/a	n/a	n/a
630102	REC_WORD	wordpools/wasnorm_wordpool_less_exclusions.txt	LTP289	ltpFR	4	4	1	TANK	1432	n/a	n/a	1	n/a	n/a	n/a	n/a	n/a
637379	REC_WORD	wordpools/wasnorm_wordpool_less_exclusions.txt	LTP289	ltpFR	4	4	0	SAND	1230	n/a	n/a	1	n/a	n/a	n/a	n/a	n/a
645810	REC_WORD	wordpools/wasnorm_wordpool_less_exclusions.txt	LTP289	ltpFR	4	4	1	MOUSE	925	n/a	n/a	1	n/a	n/a	n/a	n/a	n/a
647125	REC_WORD	wordpools/wasnorm_wordpool_less_exclusions.txt	LTP289	ltpFR	4	4	1	STEP	1377	n/a	n/a	0	n/a	n/a	n/a	n/a	n/a
649847	REC_WORD	wordpools/wasnorm_wordpool_less_exclusions.txt	LTP289	ltpFR	4	4	0	TICKET	1464	n/a	n/a	0	n/a	n/a	n/a	n/a	n/a
651086	REC_WORD	wordpools/wasnorm_wordpool_less_exclusions.txt	LTP289	ltpFR	4	4	1	PEDESTRIAN	1038	n/a	n/a	1	n/a	n/a	n/a	n/a	n/a
652818	REC_WORD	wordpools/wasnorm_wordpool_less_exclusions.txt	LTP289	ltpFR	4	4	0	BLUEJAY	141	n/a	n/a	1	n/a	n/a	n/a	n/a	n/a
670518	REC_WORD	wordpools/wasnorm_wordpool_less_exclusions.txt	LTP289	ltpFR	4	4	0	SQUIRREL	1362	n/a	n/a	1	n/a	n/a	n/a	n/a	n/a
722468	WORD	wordpools/wasnorm_wordpool_less_exclusions.txt	LTP289	ltpFR	4	5	1	PERFUME	1049	n/a	n/a	0	0.57763671875	0.412841796875	1	upper	zerothre.ttf
726346	WORD	wordpools/wasnorm_wordpool_less_exclusions.txt	LTP289	ltpFR	4	5	1	POPE	1105	n/a	n/a	1	0.57763671875	0.412841796875	1	upper	zerothre.ttf
730456	WORD	wordpools/wasnorm_wordpool_less_exclusions.txt	LTP289	ltpFR	4	5	1	TUTU	1524	n/a	n/a	0	0.57763671875	0.412841796875	1	upper	zerothre.ttf
734666	WORD	wordpools/wasnorm_wordpool_less_exclusions.txt	LTP289	ltpFR	4	5	1	HOOP	716	n/a	n/a	0	0.57763671875	0.412841796875	1	upper	zerothre.ttf
738793	WORD	wordpools/wasnorm_wordpool_less_exclusions.txt	LTP289	ltpFR	4	5	1	EXPLOSION	544	n/a	n/a	0	0.57763671875	0.412841796875	1	upper	zerothre.ttf
742887	WORD	wordpools/wasnorm_wordpool_less_exclusions.txt	LTP289	ltpFR	4	5	1	SPACE	1345	n/a	n/a	0	0.57763671875	0.412841796875	1	upper	zerothre.ttf
747047	WORD	wordpools/wasnorm_wordpool_less_exclusions.txt	LTP289	ltpFR	4	5	1	ALLIGATOR	16	n/a	n/a	1	0.57763671875	0.412841796875	1	upper	zerothre.ttf
751175	WORD	wordpools/wasnorm_wordpool_less_exclusions.txt	LTP289	ltpFR	4	5	1	GIRAFFE	636	n/a	n/a	1	0.57763671875	0.412841796875	1	upper	zerothre.ttf
755269	WORD	wordpools/wasnorm_wordpool_less_exclusions.txt	LTP289	ltpFR	4	5	1	GROUND	666	n/a	n/a	0	0.57763671875	0.412841796875	1	upper	zerothre.ttf
759247	WORD	wordpools/wasnorm_wordpool_less_exclusions.txt	LTP289	ltpFR	4	5	1	MAJOR	859	n/a	n/a	1	0.57763671875	0.412841796875	1	upper	zerothre.ttf
763141	WORD	wordpools/wasnorm_wordpool_less_exclusions.txt	LTP289	ltpFR	4	5	1	ENVELOPE	537	n/a	n/a	0	0.57763671875	0.412841796875	1	upper	zerothre.ttf
767118	WORD	wordpools/wasnorm_wordpool_less_exclusions.txt	LTP289	ltpFR	4	5	1	MAILMAN	858	n/a	n/a	1	0.57763671875	0.412841796875	1	upper	zerothre.ttf
771162	WORD	wordpools/wasnorm_wordpool_less_exclusions.txt	LTP289	ltpFR	4	5	1	VINE	1568	n/a	n/a	1	0.57763671875	0.412841796875	1	upper	zerothre.ttf
775256	WORD	wordpools/wasnorm_wordpool_less_exclusions.txt	LTP289	ltpFR	4	5	1	MANSION	864	n/a	n/a	0	0.57763671875	0.412841796875	1	upper	zerothre.ttf
779250	WORD	wordpools/wasnorm_wordpool_less_exclusions.txt	LTP289	ltpFR	4	5	1	MISSILE	900	n/a	n/a	0	0.57763671875	0.412841796875	1	upper	zerothre.ttf
783261	WORD	wordpools/wasnorm_wordpool_less_exclusions.txt	LTP289	ltpFR	4	5	1	CROSS	413	n/a	n/a	0	0.57763671875	0.412841796875	1	upper	zerothre.ttf
789219	REC_START	n/a	LTP289	ltpFR	4	5	n/a	n/a	n/a	n/a	n/a	n/a	n/a	n/a	n/a	n/a	n/a
790097	REC_WORD	wordpools/wasnorm_wordpool_less_exclusions.txt	LTP289	ltpFR	4	5	1	MANSION	864	n/a	n/a	0	n/a	n/a	n/a	n/a	n/a
791267	REC_WORD	wordpools/wasnorm_wordpool_less_exclusions.txt	LTP289	ltpFR	4	5	1	MISSILE	900	n/a	n/a	0	n/a	n/a	n/a	n/a	n/a
792375	REC_WORD	wordpools/wasnorm_wordpool_less_exclusions.txt	LTP289	ltpFR	4	5	1	CROSS	413	n/a	n/a	0	n/a	n/a	n/a	n/a	n/a
793425	REC_WORD	wordpools/wasnorm_wordpool_less_exclusions.txt	LTP289	ltpFR	4	5	1	EXPLOSION	544	n/a	n/a	0	n/a	n/a	n/a	n/a	n/a
795208	REC_WORD	wordpools/wasnorm_wordpool_less_exclusions.txt	LTP289	ltpFR	4	5	1	POPE	1105	n/a	n/a	1	n/a	n/a	n/a	n/a	n/a
797933	REC_WORD	wordpools/wasnorm_wordpool_less_exclusions.txt	LTP289	ltpFR	4	5	1	ALLIGATOR	16	n/a	n/a	1	n/a	n/a	n/a	n/a	n/a
802873	REC_WORD	wordpools/wasnorm_wordpool_less_exclusions.txt	LTP289	ltpFR	4	5	1	PERFUME	1049	n/a	n/a	0	n/a	n/a	n/a	n/a	n/a
814651	REC_WORD	wordpools/wasnorm_wordpool_less_exclusions.txt	LTP289	ltpFR	4	5	1	MAJOR	859	n/a	n/a	1	n/a	n/a	n/a	n/a	n/a
815651	REC_WORD_VV	wordpools/wasnorm_wordpool_less_exclusions.txt	LTP289	ltpFR	4	5	n/a	<>	-1	n/a	n/a	n/a	n/a	n/a	n/a	n/a	n/a
816498	REC_WORD	wordpools/wasnorm_wordpool_less_exclusions.txt	LTP289	ltpFR	4	5	1	MAILMAN	858	n/a	n/a	1	n/a	n/a	n/a	n/a	n/a
826648	REC_WORD	wordpools/wasnorm_wordpool_less_exclusions.txt	LTP289	ltpFR	4	5	1	VINE	1568	n/a	n/a	1	n/a	n/a	n/a	n/a	n/a
845377	REC_WORD	wordpools/wasnorm_wordpool_less_exclusions.txt	LTP289	ltpFR	4	5	1	TUTU	1524	n/a	n/a	0	n/a	n/a	n/a	n/a	n/a
883195	WORD	wordpools/wasnorm_wordpool_less_exclusions.txt	LTP289	ltpFR	4	6	-1	SADDLE	1221	n/a	n/a	-1	1.0	1.0	1	upper	Verdana.ttf
887038	WORD	wordpools/wasnorm_wordpool_less_exclusions.txt	LTP289	ltpFR	4	6	-1	FOUNTAIN	597	n/a	n/a	-1	1.0	1.0	1	upper	Verdana.ttf
891200	WORD	wordpools/wasnorm_wordpool_less_exclusions.txt	LTP289	ltpFR	4	6	-1	ITEM	746	n/a	n/a	-1	1.0	1.0	1	upper	Verdana.ttf
895410	WORD	wordpools/wasnorm_wordpool_less_exclusions.txt	LTP289	ltpFR	4	6	-1	PILL	1068	n/a	n/a	-1	1.0	1.0	1	upper	Verdana.ttf
899603	WORD	wordpools/wasnorm_wordpool_less_exclusions.txt	LTP289	ltpFR	4	6	-1	CARROT	249	n/a	n/a	-1	1.0	1.0	1	upper	Verdana.ttf
903497	WORD	wordpools/wasnorm_wordpool_less_exclusions.txt	LTP289	ltpFR	4	6	-1	RAISIN	1163	n/a	n/a	-1	1.0	1.0	1	upper	Verdana.ttf
907524	WORD	wordpools/wasnorm_wordpool_less_exclusions.txt	LTP289	ltpFR	4	6	-1	FOLDER	588	n/a	n/a	-1	1.0	1.0	1	upper	Verdana.ttf
911436	WORD	wordpools/wasnorm_wordpool_less_exclusions.txt	LTP289	ltpFR	4	6	-1	PAD	998	n/a	n/a	-1	1.0	1.0	1	upper	Verdana.ttf
915645	WORD	wordpools/wasnorm_wordpool_less_exclusions.txt	LTP289	ltpFR	4	6	-1	VITAMIN	1574	n/a	n/a	-1	1.0	1.0	1	upper	Verdana.ttf
919723	WORD	wordpools/wasnorm_wordpool_less_exclusions.txt	LTP289	ltpFR	4	6	-1	ANIMAL	23	n/a	n/a	-1	1.0	1.0	1	upper	Verdana.ttf
923816	WORD	wordpools/wasnorm_wordpool_less_exclusions.txt	LTP289	ltpFR	4	6	-1	SNORKEL	1336	n/a	n/a	-1	1.0	1.0	1	upper	Verdana.ttf
927777	WORD	wordpools/wasnorm_wordpool_less_exclusions.txt	LTP289	ltpFR	4	6	-1	TUBA	1515	n/a	n/a	-1	1.0	1.0	1	upper	Verdana.ttf
931738	WORD	wordpools/wasnorm_wordpool_less_exclusions.txt	LTP289	ltpFR	4	6	-1	GOBLIN	645	n/a	n/a	-1	1.0	1.0	1	upper	Verdana.ttf
935849	WORD	wordpools/wasnorm_wordpool_less_exclusions.txt	LTP289	ltpFR	4	6	-1	MONSTER	912	n/a	n/a	-1	1.0	1.0	1	upper	Verdana.ttf
939942	WORD	wordpools/wasnorm_wordpool_less_exclusions.txt	LTP289	ltpFR	4	6	-1	FRECKLE	602	n/a	n/a	-1	1.0	1.0	1	upper	Verdana.ttf
944070	WORD	wordpools/wasnorm_wordpool_less_exclusions.txt	LTP289	ltpFR	4	6	-1	DUCK	504	n/a	n/a	-1	1.0	1.0	1	upper	Verdana.ttf
949878	REC_START	n/a	LTP289	ltpFR	4	6	n/a	n/a	n/a	n/a	n/a	n/a	n/a	n/a	n/a	n/a	n/a
950769	REC_WORD	wordpools/wasnorm_wordpool_less_exclusions.txt	LTP289	ltpFR	4	6	-1	DUCK	504	n/a	n/a	-1	n/a	n/a	n/a	n/a	n/a
951485	REC_WORD	wordpools/wasnorm_wordpool_less_exclusions.txt	LTP289	ltpFR	4	6	-1	MONSTER	912	n/a	n/a	-1	n/a	n/a	n/a	n/a	n/a
952648	REC_WORD	wordpools/wasnorm_wordpool_less_exclusions.txt	LTP289	ltpFR	4	6	-1	FRECKLE	602	n/a	n/a	-1	n/a	n/a	n/a	n/a	n/a
954679	REC_WORD	wordpools/wasnorm_wordpool_less_exclusions.txt	LTP289	ltpFR	4	6	-1	GOBLIN	645	n/a	n/a	-1	n/a	n/a	n/a	n/a	n/a
956129	REC_WORD	wordpools/wasnorm_wordpool_less_exclusions.txt	LTP289	ltpFR	4	6	-1	CARROT	249	n/a	n/a	-1	n/a	n/a	n/a	n/a	n/a
957521	REC_WORD	wordpools/wasnorm_wordpool_less_exclusions.txt	LTP289	ltpFR	4	6	-1	PILL	1068	n/a	n/a	-1	n/a	n/a	n/a	n/a	n/a
958928	REC_WORD	wordpools/wasnorm_wordpool_less_exclusions.txt	LTP289	ltpFR	4	6	-1	ITEM	746	n/a	n/a	-1	n/a	n/a	n/a	n/a	n/a
960345	REC_WORD	wordpools/wasnorm_wordpool_less_exclusions.txt	LTP289	ltpFR	4	6	-1	TUBA	1515	n/a	n/a	-1	n/a	n/a	n/a	n/a	n/a
968578	REC_WORD	wordpools/wasnorm_wordpool_less_exclusions.txt	LTP289	ltpFR	4	6	-1	SADDLE	1221	n/a	n/a	-1	n/a	n/a	n/a	n/a	n/a
970045	REC_WORD	wordpools/wasnorm_wordpool_less_exclusions.txt	LTP289	ltpFR	4	6	-1	FOUNTAIN	597	n/a	n/a	-1	n/a	n/a	n/a	n/a	n/a
972385	REC_WORD	wordpools/wasnorm_wordpool_less_exclusions.txt	LTP289	ltpFR	4	6	-1	ANIMAL	23	n/a	n/a	-1	n/a	n/a	n/a	n/a	n/a
989055	REC_WORD	wordpools/wasnorm_wordpool_less_exclusions.txt	LTP289	ltpFR	4	6	-1	SNORKEL	1336	n/a	n/a	-1	n/a	n/a	n/a	n/a	n/a
1042822	WORD	wordpools/wasnorm_wordpool_less_exclusions.txt	LTP289	ltpFR	4	7	-1	CATTLE	261	n/a	n/a	-1	1.0	1.0	1	upper	Verdana.ttf
1047032	WORD	wordpools/wasnorm_wordpool_less_exclusions.txt	LTP289	ltpFR	4	7	-1	BISON	131	n/a	n/a	-1	1.0	1.0	1	upper	Verdana.ttf
1051093	WORD	wordpools/wasnorm_wordpool_less_exclusions.txt	LTP289	ltpFR	4	7	-1	SANDPAPER	1231	n/a	n/a	-1	1.0	1.0	1	upper	Verdana.ttf
1054937	WORD	wordpools/wasnorm_wordpool_less_exclusions.txt	LTP289	ltpFR	4	7	-1	ROOST	1208	n/a	n/a	-1	1.0	1.0	1	upper	Verdana.ttf
1058832	WORD	wordpools/wasnorm_wordpool_less_exclusions.txt	LTP289	ltpFR	4	7	-1	RADIO	1157	n/a	n/a	-1	1.0	1.0	1	upper	Verdana.ttf
1062726	WORD	wordpools/wasnorm_wordpool_less_exclusions.txt	LTP289	ltpFR	4	7	-1	SLEEVE	1324	n/a	n/a	-1	1.0	1.0	1	upper	Verdana.ttf
1066686	WORD	wordpools/wasnorm_wordpool_less_exclusions.txt	LTP289	ltpFR	4	7	-1	LIMB	822	n/a	n/a	-1	1.0	1.0	1	upper	Verdana.ttf
1070614	WORD	wordpools/wasnorm_wordpool_less_exclusions.txt	LTP289	ltpFR	4	7	-1	COMPUTER	359	n/a	n/a	-1	1.0	1.0	1	upper	Verdana.ttf
1074443	WORD	wordpools/wasnorm_wordpool_less_exclusions.txt	LTP289	ltpFR	4	7	-1	CHAUFFEUR	283	n/a	n/a	-1	1.0	1.0	1	upper	Verdana.ttf
1078486	WORD	wordpools/wasnorm_wordpool_less_exclusions.txt	LTP289	ltpFR	4	7	-1	TURKEY	1520	n/a	n/a	-1	1.0	1.0	1	upper	Verdana.ttf
1082431	WORD	wordpools/wasnorm_wordpool_less_exclusions.txt	LTP289	ltpFR	4	7	-1	DRESSER	496	n/a	n/a	-1	1.0	1.0	1	upper	Verdana.ttf
1086657	WORD	wordpools/wasnorm_wordpool_less_exclusions.txt	LTP289	ltpFR	4	7	-1	JOURNAL	760	n/a	n/a	-1	1.0	1.0	1	upper	Verdana.ttf
1090651	WORD	wordpools/wasnorm_wordpool_less_exclusions.txt	LTP289	ltpFR	4	7	-1	LAWYER	806	n/a	n/a	-1	1.0	1.0	1	upper	Verdana.ttf
1094761	WORD	wordpools/wasnorm_wordpool_less_exclusions.txt	LTP289	ltpFR	4	7	-1	HANGER	687	n/a	n/a	-1	1.0	1.0	1	upper	Verdana.ttf
1098772	WORD	wordpools/wasnorm_wordpool_less_exclusions.txt	LTP289	ltpFR	4	7	-1	COCKTAIL	338	n/a	n/a	-1	1.0	1.0	1	upper	Verdana.ttf
1102783	WORD	wordpools/wasnorm_wordpool_less_exclusions.txt	LTP289	ltpFR	4	7	-1	SCOTCH	1251	n/a	n/a	-1	1.0	1.0	1	upper	Verdana.ttf
1108691	REC_START	n/a	LTP289	ltpFR	4	7	n/a	n/a	n/a	n/a	n/a	n/a	n/a	n/a	n/a	n/a	n/a
1109138	REC_WORD	wordpools/wasnorm_wordpool_less_exclusions.txt	LTP289	ltpFR	4	7	-1	SCOTCH	1251	n/a	n/a	-1	n/a	n/a	n/a	n/a	n/a
1110506	REC_WORD	wordpools/wasnorm_wordpool_less_exclusions.txt	LTP289	ltpFR	4	7	-1	COCKTAIL	338	n/a	n/a	-1	n/a	n/a	n/a	n/a	n/a
1111737	REC_WORD	wordpools/wasnorm_wordpool_less_exclusions.txt	LTP289	ltpFR	4	7	-1	TURKEY	1520	n/a	n/a	-1	n/a	n/a	n/a	n/a	n/a
1112818	REC_WORD	wordpools/wasnorm_wordpool_less_exclusions.txt	LTP289	ltpFR	4	7	-1	ROOST	1208	n/a	n/a	-1	n/a	n/a	n/a	n/a	n/a
1113977	REC_WORD	wordpools/wasnorm_wordpool_less_exclusions.txt	LTP289	ltpFR	4	7	-1	CATTLE	261	n/a	n/a	-1	n/a	n/a	n/a	n/a	n/a
1115275	REC_WORD	wordpools/wasnorm_wordpool_less_exclusions.txt	LTP289	ltpFR	4	7	-1	BISON	131	n/a	n/a	-1	n/a	n/a	n/a	n/a	n/a
1116572	REC_WORD	wordpools/wasnorm_wordpool_less_exclusions.txt	LTP289	ltpFR	4	7	-1	LAWYER	806	n/a	n/a	-1	n/a	n/a	n/a	n/a	n/a
1117839	REC_WORD	wordpools/wasnorm_wordpool_less_exclusions.txt	LTP289	ltpFR	4	7	-1	JOURNAL	760	n/a	n/a	-1	n/a	n/a	n/a	n/a	n/a
1119065	REC_WORD	wordpools/wasnorm_wordpool_less_exclusions.txt	LTP289	ltpFR	4	7	-1	LIMB	822	n/a	n/a	-1	n/a	n/a	n/a	n/a	n/a
1120282	REC_WORD	wordpools/wasnorm_wordpool_less_exclusions.txt	LTP289	ltpFR	4	7	-1	SLEEVE	1324	n/a	n/a	-1	n/a	n/a	n/a	n/a	n/a
1124299	REC_WORD	wordpools/wasnorm_wordpool_less_exclusions.txt	LTP289	ltpFR	4	7	-1	SANDPAPER	1231	n/a	n/a	-1	n/a	n/a	n/a	n/a	n/a
1126610	REC_WORD	wordpools/wasnorm_wordpool_less_exclusions.txt	LTP289	ltpFR	4	7	-1	CHAUFFEUR	283	n/a	n/a	-1	n/a	n/a	n/a	n/a	n/a
1128180	REC_WORD	wordpools/wasnorm_wordpool_less_exclusions.txt	LTP289	ltpFR	4	7	-1	DRESSER	496	n/a	n/a	-1	n/a	n/a	n/a	n/a	n/a
1197774	WORD	wordpools/wasnorm_wordpool_less_exclusions.txt	LTP289	ltpFR	4	8	0	CABIN	211	n/a	n/a	1	0.422607421875	0.5869140625	0	lower	amplitud.ttf
1201751	WORD	wordpools/wasnorm_wordpool_less_exclusions.txt	LTP289	ltpFR	4	8	0	DAD	433	n/a	n/a	1	0.422607421875	0.5869140625	0	lower	amplitud.ttf
1205879	WORD	wordpools/wasnorm_wordpool_less_exclusions.txt	LTP289	ltpFR	4	8	0	PRODUCER	1129	n/a	n/a	1	0.422607421875	0.5869140625	0	lower	amplitud.ttf
1209773	WORD	wordpools/wasnorm_wordpool_less_exclusions.txt	LTP289	ltpFR	4	8	0	SPOOL	1356	n/a	n/a	0	0.422607421875	0.5869140625	0	lower	amplitud.ttf
1213767	WORD	wordpools/wasnorm_wordpool_less_exclusions.txt	LTP289	ltpFR	4	8	0	STRING	1394	n/a	n/a	0	0.422607421875	0.5869140625	0	lower	amplitud.ttf
1217728	WORD	wordpools/wasnorm_wordpool_less_exclusions.txt	LTP289	ltpFR	4	8	0	WELL	1600	n/a	n/a	1	0.422607421875	0.5869140625	0	lower	amplitud.ttf
1221921	WORD	wordpools/wasnorm_wordpool_less_exclusions.txt	LTP289	ltpFR	4	8	0	CORAL	378	n/a	n/a	0	0.422607421875	0.5869140625	0	lower	amplitud.ttf
1225865	WORD	wordpools/wasnorm_wordpool_less_exclusions.txt	LTP289	ltpFR	4	8	0	PAVEMENT	1028	n/a	n/a	1	0.422607421875	0.5869140625	0	lower	amplitud.ttf
1230009	WORD	wordpools/wasnorm_wordpool_less_exclusions.txt	LTP289	ltpFR	4	8	0	HAND	683	n/a	n/a	0	0.422607421875	0.5869140625	0	lower	amplitud.ttf
1233870	WORD	wordpools/wasnorm_wordpool_less_exclusions.txt	LTP289	ltpFR	4	8	0	CRAB	397	n/a	n/a	0	0.422607421875	0.5869140625	0	lower	amplitud.ttf
1237748	WORD	wordpools/wasnorm_wordpool_less_exclusions.txt	LTP289	ltpFR	4	8	0	FIREPLACE	570	n/a	n/a	1	0.422607421875	0.5869140625	0	lower	amplitud.ttf
1241808	WORD	wordpools/wasnorm_wordpool_less_exclusions.txt	LTP289	ltpFR	4	8	0	ROBE	1198	n/a	n/a	0	0.422607421875	0.5869140625	0	lower	amplitud.ttf
1245786	WORD	wordpools/wasnorm_wordpool_less_exclusions.txt	LTP289	ltpFR	4	8	0	DESIGNER	451	n/a	n/a	1	0.422607421875	0.5869140625	0	lower	amplitud.ttf
1249647	WORD	wordpools/wasnorm_wordpool_less_exclusions.txt	LTP289	ltpFR	4	8	0	VENT	1556	n/a	n/a	0	0.422607421875	0.5869140625	0	lower	amplitud.ttf
1253807	WORD	wordpools/wasnorm_wordpool_less_exclusions.txt	LTP289	ltpFR	4	8	0	SIDEWALK	1303	n/a	n/a	0	0.422607421875	0.5869140625	0	lower	amplitud.ttf
1257884	WORD	wordpools/wasnorm_wordpool_less_exclusions.txt	LTP289	ltpFR	4	8	0	APPENDAGE	32	n/a	n/a	0	0.422607421875	0.5869140625	0	lower	amplitud.ttf
1263943	REC_START	n/a	LTP289	ltpFR	4	8	n/a	n/a	n/a	n/a	n/a	n/a	n/a	n/a	n/a	n/a	n/a
1264512	REC_WORD	wordpools/wasnorm_wordpool_less_exclusions.txt	LTP289	ltpFR	4	8	0	APPENDAGE	32	n/a	n/a	0	n/a	n/a	n/a	n/a	n/a
1265761	REC_WORD	wordpools/wasnorm_wordpool_less_exclusions.txt	LTP289	ltpFR	4	8	0	SIDEWALK	1303	n/a	n/a	0	n/a	n/a	n/a	n/a	n/a
1268044	REC_WORD	wordpools/wasnorm_wordpool_less_exclusions.txt	LTP289	ltpFR	4	8	0	CORAL	378	n/a	n/a	0	n/a	n/a	n/a	n/a	n/a
1269194	REC_WORD	wordpools/wasnorm_wordpool_less_exclusions.txt	LTP289	ltpFR	4	8	0	SPOOL	1356	n/a	n/a	0	n/a	n/a	n/a	n/a	n/a
1270591	REC_WORD	wordpools/wasnorm_wordpool_less_exclusions.txt	LTP289	ltpFR	4	8	0	CRAB	397	n/a	n/a	0	n/a	n/a	n/a	n/a	n/a
1271887	REC_WORD	wordpools/wasnorm_wordpool_less_exclusions.txt	LTP289	ltpFR	4	8	0	PRODUCER	1129	n/a	n/a	1	n/a	n/a	n/a	n/a	n/a
1273709	REC_WORD	wordpools/wasnorm_wordpool_less_exclusions.txt	LTP289	ltpFR	4	8	0	DAD	433	n/a	n/a	1	n/a	n/a	n/a	n/a	n/a
1278876	REC_WORD	wordpools/wasnorm_wordpool_less_exclusions.txt	LTP289	ltpFR	4	8	0	PAVEMENT	1028	n/a	n/a	1	n/a	n/a	n/a	n/a	n/a
1283147	REC_WORD	wordpools/wasnorm_wordpool_less_exclusions.txt	LTP289	ltpFR	4	8	0	WELL	1600	n/a	n/a	1	n/a	n/a	n/a	n/a	n/a
1315457	REC_WORD	wordpools/wasnorm_wordpool_less_exclusions.txt	LTP289	ltpFR	4	8	0	DESIGNER	451	n/a	n/a	1	n/a	n/a	n/a	n/a	n/a
1326783	REC_WORD	wordpools/wasnorm_wordpool_less_exclusions.txt	LTP289	ltpFR	4	8	0	SIDEWALK	1303	n/a	n/a	0	n/a	n/a	n/a	n/a	n/a
1339546	REST_REWET	n/a	LTP289	ltpFR	4	8	n/a	n/a	n/a	n/a	n/a	n/a	n/a	n/a	n/a	n/a	n/a
1649549	WORD	wordpools/wasnorm_wordpool_less_exclusions.txt	LTP289	ltpFR	4	9	-1	TREE	1502	n/a	n/a	-1	1.0	1.0	1	upper	Verdana.ttf
1653577	WORD	wordpools/wasnorm_wordpool_less_exclusions.txt	LTP289	ltpFR	4	9	-1	MARBLE	867	n/a	n/a	-1	1.0	1.0	1	upper	Verdana.ttf
1657471	WORD	wordpools/wasnorm_wordpool_less_exclusions.txt	LTP289	ltpFR	4	9	-1	THERMOMETER	1453	n/a	n/a	-1	1.0	1.0	1	upper	Verdana.ttf
1661648	WORD	wordpools/wasnorm_wordpool_less_exclusions.txt	LTP289	ltpFR	4	9	-1	MEAT	883	n/a	n/a	-1	1.0	1.0	1	upper	Verdana.ttf
1665609	WORD	wordpools/wasnorm_wordpool_less_exclusions.txt	LTP289	ltpFR	4	9	-1	VEHICLE	1553	n/a	n/a	-1	1.0	1.0	1	upper	Verdana.ttf
1669570	WORD	wordpools/wasnorm_wordpool_less_exclusions.txt	LTP289	ltpFR	4	9	-1	COUGAR	387	n/a	n/a	-1	1.0	1.0	1	upper	Verdana.ttf
1673747	WORD	wordpools/wasnorm_wordpool_less_exclusions.txt	LTP289	ltpFR	4	9	-1	CHEMIST	292	n/a	n/a	-1	1.0	1.0	1	upper	Verdana.ttf
1677940	WORD	wordpools/wasnorm_wordpool_less_exclusions.txt	LTP289	ltpFR	4	9	-1	BEAKER	104	n/a	n/a	-1	1.0	1.0	1	upper	Verdana.ttf
1681868	WORD	wordpools/wasnorm_wordpool_less_exclusions.txt	LTP289	ltpFR	4	9	-1	FLOOR	581	n/a	n/a	-1	1.0	1.0	1	upper	Verdana.ttf
1685779	WORD	wordpools/wasnorm_wordpool_less_exclusions.txt	LTP289	ltpFR	4	9	-1	ENCYCLOPEDIA	533	n/a	n/a	-1	1.0	1.0	1	upper	Verdana.ttf
1689873	WORD	wordpools/wasnorm_wordpool_less_exclusions.txt	LTP289	ltpFR	4	9	-1	VEAL	1551	n/a	n/a	-1	1.0	1.0	1	upper	Verdana.ttf
1693917	WORD	wordpools/wasnorm_wordpool_less_exclusions.txt	LTP289	ltpFR	4	9	-1	SCENERY	1247	n/a	n/a	-1	1.0	1.0	1	upper	Verdana.ttf
1697961	WORD	wordpools/wasnorm_wordpool_less_exclusions.txt	LTP289	ltpFR	4	9	-1	BLACKBERRY	132	n/a	n/a	-1	1.0	1.0	1	upper	Verdana.ttf
1702155	WORD	wordpools/wasnorm_wordpool_less_exclusions.txt	LTP289	ltpFR	4	9	-1	JET	756	n/a	n/a	-1	1.0	1.0	1	upper	Verdana.ttf
1706216	WORD	wordpools/wasnorm_wordpool_less_exclusions.txt	LTP289	ltpFR	4	9	-1	BANK	83	n/a	n/a	-1	1.0	1.0	1	upper	Verdana.ttf
1710360	WORD	wordpools/wasnorm_wordpool_less_exclusions.txt	LTP289	ltpFR	4	9	-1	CORPORATION	382	n/a	n/a	-1	1.0	1.0	1	upper	Verdana.ttf
1716185	REC_START	n/a	LTP289	ltpFR	4	9	n/a	n/a	n/a	n/a	n/a	n/a	n/a	n/a	n/a	n/a	n/a
1716778	REC_WORD	wordpools/wasnorm_wordpool_less_exclusions.txt	LTP289	ltpFR	4	9	-1	CORPORATION	382	n/a	n/a	-1	n/a	n/a	n/a	n/a	n/a
1718181	REC_WORD	wordpools/wasnorm_wordpool_less_exclusions.txt	LTP289	ltpFR	4	9	-1	JET	756	n/a	n/a	-1	n/a	n/a	n/a	n/a	n/a
1719293	REC_WORD	wordpools/wasnorm_wordpool_less_exclusions.txt	LTP289	ltpFR	4	9	-1	BLACKBERRY	132	n/a	n/a	-1	n/a	n/a	n/a	n/a	n/a
1720715	REC_WORD	wordpools/wasnorm_wordpool_less_exclusions.txt	LTP289	ltpFR	4	9	-1	VEAL	1551	n/a	n/a	-1	n/a	n/a	n/a	n/a	n/a
1722356	REC_WORD_VV	wordpools/wasnorm_wordpool_less_exclusions.txt	LTP289	ltpFR	4	9	n/a	<>	-1	n/a	n/a	n/a	n/a	n/a	n/a	n/a	n/a
1725602	REC_WORD	wordpools/wasnorm_wordpool_less_exclusions.txt	LTP289	ltpFR	4	9	-1	COUGAR	387	n/a	n/a	-1	n/a	n/a	n/a	n/a	n/a
1727126	REC_WORD	wordpools/wasnorm_wordpool_less_exclusions.txt	LTP289	ltpFR	4	9	-1	CHEMIST	292	n/a	n/a	-1	n/a	n/a	n/a	n/a	n/a
1728456	REC_WORD	wordpools/wasnorm_wordpool_less_exclusions.txt	LTP289	ltpFR	4	9	-1	VEHICLE	1553	n/a	n/a	-1	n/a	n/a	n/a	n/a	n/a
1729808	REC_WORD	wordpools/wasnorm_wordpool_less_exclusions.txt	LTP289	ltpFR	4	9	-1	MEAT	883	n/a	n/a	-1	n/a	n/a	n/a	n/a	n/a
1730993	REC_WORD	wordpools/wasnorm_wordpool_less_exclusions.txt	LTP289	ltpFR	4	9	-1	THERMOMETER	1453	n/a	n/a	-1	n/a	n/a	n/a	n/a	n/a
1732731	REC_WORD	wordpools/wasnorm_wordpool_less_exclusions.txt	LTP289	ltpFR	4	9	-1	BEAKER	104	n/a	n/a	-1	n/a	n/a	n/a	n/a	n/a
1740798	REC_WORD	wordpools/wasnorm_wordpool_less_exclusions.txt	LTP289	ltpFR	4	9	-1	TREE	1502	n/a	n/a	-1	n/a	n/a	n/a	n/a	n/a
1742019	REC_WORD	wordpools/wasnorm_wordpool_less_exclusions.txt	LTP289	ltpFR	4	9	-1	MARBLE	867	n/a	n/a	-1	n/a	n/a	n/a	n/a	n/a
1751690	REC_WORD	wordpools/wasnorm_wordpool_less_exclusions.txt	LTP289	ltpFR	4	9	-1	SCENERY	1247	n/a	n/a	-1	n/a	n/a	n/a	n/a	n/a
1802970	WORD	wordpools/wasnorm_wordpool_less_exclusions.txt	LTP289	ltpFR	4	10	1	PADDING	999	n/a	n/a	0	0.57763671875	0.412841796875	1	upper	zerothre.ttf
1807165	WORD	wordpools/wasnorm_wordpool_less_exclusions.txt	LTP289	ltpFR	4	10	1	LOFT	840	n/a	n/a	0	0.57763671875	0.412841796875	1	upper	zerothre.ttf
1811242	WORD	wordpools/wasnorm_wordpool_less_exclusions.txt	LTP289	ltpFR	4	10	1	FARM	552	n/a	n/a	0	0.57763671875	0.412841796875	1	upper	zerothre.ttf
1815419	WORD	wordpools/wasnorm_wordpool_less_exclusions.txt	LTP289	ltpFR	4	10	1	SKATE	1313	n/a	n/a	0	0.57763671875	0.412841796875	1	upper	zerothre.ttf
1819529	WORD	wordpools/wasnorm_wordpool_less_exclusions.txt	LTP289	ltpFR	4	10	1	SEA	1259	n/a	n/a	0	0.57763671875	0.412841796875	1	upper	zerothre.ttf
1823656	WORD	wordpools/wasnorm_wordpool_less_exclusions.txt	LTP289	ltpFR	4	10	1	OUTFIT	988	n/a	n/a	0	0.57763671875	0.412841796875	1	upper	zerothre.ttf
1827833	WORD	wordpools/wasnorm_wordpool_less_exclusions.txt	LTP289	ltpFR	4	10	1	CUFF	423	n/a	n/a	0	0.57763671875	0.412841796875	1	upper	zerothre.ttf
1831811	WORD	wordpools/wasnorm_wordpool_less_exclusions.txt	LTP289	ltpFR	4	10	1	BEAVER	109	n/a	n/a	1	0.57763671875	0.412841796875	1	upper	zerothre.ttf
1835721	WORD	wordpools/wasnorm_wordpool_less_exclusions.txt	LTP289	ltpFR	4	10	1	ACORN	3	n/a	n/a	1	0.57763671875	0.412841796875	1	upper	zerothre.ttf
1839666	WORD	wordpools/wasnorm_wordpool_less_exclusions.txt	LTP289	ltpFR	4	10	1	ELM	527	n/a	n/a	1	0.57763671875	0.412841796875	1	upper	zerothre.ttf
1843826	WORD	wordpools/wasnorm_wordpool_less_exclusions.txt	LTP289	ltpFR	4	10	1	MOSS	918	n/a	n/a	1	0.57763671875	0.412841796875	1	upper	zerothre.ttf
1847870	WORD	wordpools/wasnorm_wordpool_less_exclusions.txt	LTP289	ltpFR	4	10	1	TERRITORY	1452	n/a	n/a	0	0.57763671875	0.412841796875	1	upper	zerothre.ttf
1852030	WORD	wordpools/wasnorm_wordpool_less_exclusions.txt	LTP289	ltpFR	4	10	1	TOAST	1471	n/a	n/a	0	0.57763671875	0.412841796875	1	upper	zerothre.ttf
1855891	WORD	wordpools/wasnorm_wordpool_less_exclusions.txt	LTP289	ltpFR	4	10	1	SHRIMP	1297	n/a	n/a	1	0.57763671875	0.412841796875	1	upper	zerothre.ttf
1859902	WORD	wordpools/wasnorm_wordpool_less_exclusions.txt	LTP289	ltpFR	4	10	1	ANTEATER	26	n/a	n/a	1	0.57763671875	0.412841796875	1	upper	zerothre.ttf
1864046	WORD	wordpools/wasnorm_wordpool_less_exclusions.txt	LTP289	ltpFR	4	10	1	WOLF	1619	n/a	n/a	1	0.57763671875	0.412841796875	1	upper	zerothre.ttf
1869771	REC_START	n/a	LTP289	ltpFR	4	10	n/a	n/a	n/a	n/a	n/a	n/a	n/a	n/a	n/a	n/a	n/a
1870462	REC_WORD	wordpools/wasnorm_wordpool_less_exclusions.txt	LTP289	ltpFR	4	10	1	ANTEATER	26	n/a	n/a	1	n/a	n/a	n/a	n/a	n/a
1871704	REC_WORD	wordpools/wasnorm_wordpool_less_exclusions.txt	LTP289	ltpFR	4	10	1	WOLF	1619	n/a	n/a	1	n/a	n/a	n/a	n/a	n/a
1873041	REC_WORD	wordpools/wasnorm_wordpool_less_exclusions.txt	LTP289	ltpFR	4	10	1	BEAVER	109	n/a	n/a	1	n/a	n/a	n/a	n/a	n/a
1874223	REC_WORD	wordpools/wasnorm_wordpool_less_exclusions.txt	LTP289	ltpFR	4	10	1	ELM	527	n/a	n/a	1	n/a	n/a	n/a	n/a	n/a
1875522	REC_WORD	wordpools/wasnorm_wordpool_less_exclusions.txt	LTP289	ltpFR	4	10	1	ACORN	3	n/a	n/a	1	n/a	n/a	n/a	n/a	n/a
1877011	REC_WORD	wordpools/wasnorm_wordpool_less_exclusions.txt	LTP289	ltpFR	4	10	1	TERRITORY	1452	n/a	n/a	0	n/a	n/a	n/a	n/a	n/a
1879089	REC_WORD	wordpools/wasnorm_wordpool_less_exclusions.txt	LTP289	ltpFR	4	10	1	CUFF	423	n/a	n/a	0	n/a	n/a	n/a	n/a	n/a
1880244	REC_WORD	wordpools/wasnorm_wordpool_less_exclusions.txt	LTP289	ltpFR	4	10	1	OUTFIT	988	n/a	n/a	0	n/a	n/a	n/a	n/a	n/a
1884611	REC_WORD	wordpools/wasnorm_wordpool_less_exclusions.txt	LTP289	ltpFR	4	10	1	PADDING	999	n/a	n/a	0	n/a	n/a	n/a	n/a	n/a
1885944	REC_WORD	wordpools/wasnorm_wordpool_less_exclusions.txt	LTP289	ltpFR	4	10	1	LOFT	840	n/a	n/a	0	n/a	n/a	n/a	n/a	n/a
1887142	REC_WORD	wordpools/wasnorm_wordpool_less_exclusions.txt	LTP289	ltpFR	4	10	1	FARM	552	n/a	n/a	0	n/a	n/a	n/a	n/a	n/a
1888854	REC_WORD	wordpools/wasnorm_wordpool_less_exclusions.txt	LTP289	ltpFR	4	10	1	SKATE	1313	n/a	n/a	0	n/a	n/a	n/a	n/a	n/a
1961733	WORD	wordpools/wasnorm_wordpool_less_exclusions.txt	LTP289	ltpFR	4	11	0	TRACTOR	1493	n/a	n/a	1	0.422607421875	0.5869140625	0	lower	amplitud.ttf
1965644	WORD	wordpools/wasnorm_wordpool_less_exclusions.txt	LTP289	ltpFR	4	11	0	CART	250	n/a	n/a	1	0.422607421875	0.5869140625	0	lower	amplitud.ttf
1969755	WORD	wordpools/wasnorm_wordpool_less_exclusions.txt	LTP289	ltpFR	4	11	0	OUTLAW	989	n/a	n/a	1	0.422607421875	0.5869140625	0	lower	amplitud.ttf
1973715	WORD	wordpools/wasnorm_wordpool_less_exclusions.txt	LTP289	ltpFR	4	11	0	MINK	897	n/a	n/a	0	0.422607421875	0.5869140625	0	lower	amplitud.ttf
1977676	WORD	wordpools/wasnorm_wordpool_less_exclusions.txt	LTP289	ltpFR	4	11	1	EMPLOYEE	531	n/a	n/a	1	0.57763671875	0.412841796875	1	upper	zerothre.ttf
1981737	WORD	wordpools/wasnorm_wordpool_less_exclusions.txt	LTP289	ltpFR	4	11	1	CRICKET	408	n/a	n/a	1	0.57763671875	0.412841796875	1	upper	zerothre.ttf
1985814	WORD	wordpools/wasnorm_wordpool_less_exclusions.txt	LTP289	ltpFR	4	11	1	PLASTER	1085	n/a	n/a	0	0.57763671875	0.412841796875	1	upper	zerothre.ttf
1990024	WORD	wordpools/wasnorm_wordpool_less_exclusions.txt	LTP289	ltpFR	4	11	1	DOUGHNUT	490	n/a	n/a	0	0.57763671875	0.412841796875	1	upper	zerothre.ttf
1994102	WORD	wordpools/wasnorm_wordpool_less_exclusions.txt	LTP289	ltpFR	4	11	0	SCULPTURE	1258	n/a	n/a	1	0.422607421875	0.5869140625	0	lower	amplitud.ttf
1998062	WORD	wordpools/wasnorm_wordpool_less_exclusions.txt	LTP289	ltpFR	4	11	0	ARTIST	43	n/a	n/a	1	0.422607421875	0.5869140625	0	lower	amplitud.ttf
2001957	WORD	wordpools/wasnorm_wordpool_less_exclusions.txt	LTP289	ltpFR	4	11	0	INSECT	740	n/a	n/a	0	0.422607421875	0.5869140625	0	lower	amplitud.ttf
2006067	WORD	wordpools/wasnorm_wordpool_less_exclusions.txt	LTP289	ltpFR	4	11	0	CEILING	265	n/a	n/a	1	0.422607421875	0.5869140625	0	lower	amplitud.ttf
2010061	WORD	wordpools/wasnorm_wordpool_less_exclusions.txt	LTP289	ltpFR	4	11	1	SINK	1309	n/a	n/a	0	0.57763671875	0.412841796875	1	upper	zerothre.ttf
2014223	WORD	wordpools/wasnorm_wordpool_less_exclusions.txt	LTP289	ltpFR	4	11	1	TOILET	1475	n/a	n/a	0	0.57763671875	0.412841796875	1	upper	zerothre.ttf
2018316	WORD	wordpools/wasnorm_wordpool_less_exclusions.txt	LTP289	ltpFR	4	11	1	RACKET	1155	n/a	n/a	0	0.57763671875	0.412841796875	1	upper	zerothre.ttf
2022410	WORD	wordpools/wasnorm_wordpool_less_exclusions.txt	LTP289	ltpFR	4	11	1	YARN	1631	n/a	n/a	0	0.57763671875	0.412841796875	1	upper	zerothre.ttf
2028501	REC_START	n/a	LTP289	ltpFR	4	11	n/a	n/a	n/a	n/a	n/a	n/a	n/a	n/a	n/a	n/a	n/a
2029457	REC_WORD	wordpools/wasnorm_wordpool_less_exclusions.txt	LTP289	ltpFR	4	11	1	YARN	1631	n/a	n/a	0	n/a	n/a	n/a	n/a	n/a
2030665	REC_WORD	wordpools/wasnorm_wordpool_less_exclusions.txt	LTP289	ltpFR	4	11	1	RACKET	1155	n/a	n/a	0	n/a	n/a	n/a	n/a	n/a
2031727	REC_WORD	wordpools/wasnorm_wordpool_less_exclusions.txt	LTP289	ltpFR	4	11	1	SINK	1309	n/a	n/a	0	n/a	n/a	n/a	n/a	n/a
2033289	REC_WORD	wordpools/wasnorm_wordpool_less_exclusions.txt	LTP289	ltpFR	4	11	1	TOILET	1475	n/a	n/a	0	n/a	n/a	n/a	n/a	n/a
2035106	REC_WORD	wordpools/wasnorm_wordpool_less_exclusions.txt	LTP289	ltpFR	4	11	1	DOUGHNUT	490	n/a	n/a	0	n/a	n/a	n/a	n/a	n/a
2036200	REC_WORD	wordpools/wasnorm_wordpool_less_exclusions.txt	LTP289	ltpFR	4	11	1	PLASTER	1085	n/a	n/a	0	n/a	n/a	n/a	n/a	n/a
2037787	REC_WORD	wordpools/wasnorm_wordpool_less_exclusions.txt	LTP289	ltpFR	4	11	1	CRICKET	408	n/a	n/a	1	n/a	n/a	n/a	n/a	n/a
2050849	REC_WORD	wordpools/wasnorm_wordpool_less_exclusions.txt	LTP289	ltpFR	4	11	0	OUTLAW	989	n/a	n/a	1	n/a	n/a	n/a	n/a	n/a
2052262	REC_WORD	wordpools/wasnorm_wordpool_less_exclusions.txt	LTP289	ltpFR	4	11	0	MINK	897	n/a	n/a	0	n/a	n/a	n/a	n/a	n/a
2053495	REC_WORD	wordpools/wasnorm_wordpool_less_exclusions.txt	LTP289	ltpFR	4	11	0	TRACTOR	1493	n/a	n/a	1	n/a	n/a	n/a	n/a	n/a
2055034	REC_WORD	wordpools/wasnorm_wordpool_less_exclusions.txt	LTP289	ltpFR	4	11	0	CART	250	n/a	n/a	1	n/a	n/a	n/a	n/a	n/a
2121578	WORD	wordpools/wasnorm_wordpool_less_exclusions.txt	LTP289	ltpFR	4	12	-1	WORM	1623	n/a	n/a	-1	1.0	1.0	1	upper	Verdana.ttf
2125772	WORD	wordpools/wasnorm_wordpool_less_exclusions.txt	LTP289	ltpFR	4	12	-1	DOORBELL	487	n/a	n/a	-1	1.0	1.0	1	upper	Verdana.ttf
2129649	WORD	wordpools/wasnorm_wordpool_less_exclusions.txt	LTP289	ltpFR	4	12	-1	BANQUET	86	n/a	n/a	-1	1.0	1.0	1	upper	Verdana.ttf
2133643	WORD	wordpools/wasnorm_wordpool_less_exclusions.txt	LTP289	ltpFR	4	12	-1	COOKBOOK	373	n/a	n/a	-1	1.0	1.0	1	upper	Verdana.ttf
2137621	WORD	wordpools/wasnorm_wordpool_less_exclusions.txt	LTP289	ltpFR	4	12	-1	COOKIE	374	n/a	n/a	-1	1.0	1.0	1	upper	Verdana.ttf
2141731	WORD	wordpools/wasnorm_wordpool_less_exclusions.txt	LTP289	ltpFR	4	12	-1	CANDY	230	n/a	n/a	-1	1.0	1.0	1	upper	Verdana.ttf
2145709	WORD	wordpools/wasnorm_wordpool_less_exclusions.txt	LTP289	ltpFR	4	12	-1	POET	1095	n/a	n/a	-1	1.0	1.0	1	upper	Verdana.ttf
2149852	WORD	wordpools/wasnorm_wordpool_less_exclusions.txt	LTP289	ltpFR	4	12	-1	LASH	802	n/a	n/a	-1	1.0	1.0	1	upper	Verdana.ttf
2153763	WORD	wordpools/wasnorm_wordpool_less_exclusions.txt	LTP289	ltpFR	4	12	-1	THESAURUS	1454	n/a	n/a	-1	1.0	1.0	1	upper	Verdana.ttf
2157691	WORD	wordpools/wasnorm_wordpool_less_exclusions.txt	LTP289	ltpFR	4	12	-1	CHIPMUNK	304	n/a	n/a	-1	1.0	1.0	1	upper	Verdana.ttf
2161834	WORD	wordpools/wasnorm_wordpool_less_exclusions.txt	LTP289	ltpFR	4	12	-1	ROOM	1206	n/a	n/a	-1	1.0	1.0	1	upper	Verdana.ttf
2165679	WORD	wordpools/wasnorm_wordpool_less_exclusions.txt	LTP289	ltpFR	4	12	-1	BOOK	149	n/a	n/a	-1	1.0	1.0	1	upper	Verdana.ttf
2169839	WORD	wordpools/wasnorm_wordpool_less_exclusions.txt	LTP289	ltpFR	4	12	-1	WHALE	1601	n/a	n/a	-1	1.0	1.0	1	upper	Verdana.ttf
2173667	WORD	wordpools/wasnorm_wordpool_less_exclusions.txt	LTP289	ltpFR	4	12	-1	SUITE	1404	n/a	n/a	-1	1.0	1.0	1	upper	Verdana.ttf
2177777	WORD	wordpools/wasnorm_wordpool_less_exclusions.txt	LTP289	ltpFR	4	12	-1	DOVE	491	n/a	n/a	-1	1.0	1.0	1	upper	Verdana.ttf
2181605	WORD	wordpools/wasnorm_wordpool_less_exclusions.txt	LTP289	ltpFR	4	12	-1	DIAL	457	n/a	n/a	-1	1.0	1.0	1	upper	Verdana.ttf
2187431	REC_START	n/a	LTP289	ltpFR	4	12	n/a	n/a	n/a	n/a	n/a	n/a	n/a	n/a	n/a	n/a	n/a
2188233	REC_WORD	wordpools/wasnorm_wordpool_less_exclusions.txt	LTP289	ltpFR	4	12	-1	DOVE	491	n/a	n/a	-1	n/a	n/a	n/a	n/a	n/a
2189233	REC_WORD	wordpools/wasnorm_wordpool_less_exclusions.txt	LTP289	ltpFR	4	12	-1	DIAL	457	n/a	n/a	-1	n/a	n/a	n/a	n/a	n/a
2190209	REC_WORD	wordpools/wasnorm_wordpool_less_exclusions.txt	LTP289	ltpFR	4	12	-1	SUITE	1404	n/a	n/a	-1	n/a	n/a	n/a	n/a	n/a
2191357	REC_WORD	wordpools/wasnorm_wordpool_less_exclusions.txt	LTP289	ltpFR	4	12	-1	ROOM	1206	n/a	n/a	-1	n/a	n/a	n/a	n/a	n/a
2192711	REC_WORD	wordpools/wasnorm_wordpool_less_exclusions.txt	LTP289	ltpFR	4	12	-1	BOOK	149	n/a	n/a	-1	n/a	n/a	n/a	n/a	n/a
2193855	REC_WORD	wordpools/wasnorm_wordpool_less_exclusions.txt	LTP289	ltpFR	4	12	-1	COOKBOOK	373	n/a	n/a	-1	n/a	n/a	n/a	n/a	n/a
2195215	REC_WORD	wordpools/wasnorm_wordpool_less_exclusions.txt	LTP289	ltpFR	4	12	-1	POET	1095	n/a	n/a	-1	n/a	n/a	n/a	n/a	n/a
2196347	REC_WORD	wordpools/wasnorm_wordpool_less_exclusions.txt	LTP289	ltpFR	4	12	-1	THESAURUS	1454	n/a	n/a	-1	n/a	n/a	n/a	n/a	n/a
2197715	REC_WORD	wordpools/wasnorm_wordpool_less_exclusions.txt	LTP289	ltpFR	4	12	-1	LASH	802	n/a	n/a	-1	n/a	n/a	n/a	n/a	n/a
2200184	REC_WORD	wordpools/wasnorm_wordpool_less_exclusions.txt	LTP289	ltpFR	4	12	-1	WORM	1623	n/a	n/a	-1	n/a	n/a	n/a	n/a	n/a
2201786	REC_WORD	wordpools/wasnorm_wordpool_less_exclusions.txt	LTP289	ltpFR	4	12	-1	BANQUET	86	n/a	n/a	-1	n/a	n/a	n/a	n/a	n/a
2203050	REC_WORD	wordpools/wasnorm_wordpool_less_exclusions.txt	LTP289	ltpFR	4	12	-1	DOORBELL	487	n/a	n/a	-1	n/a	n/a	n/a	n/a	n/a
2204645	REC_WORD	wordpools/wasnorm_wordpool_less_exclusions.txt	LTP289	ltpFR	4	12	-1	COOKIE	374	n/a	n/a	-1	n/a	n/a	n/a	n/a	n/a
2205733	REC_WORD	wordpools/wasnorm_wordpool_less_exclusions.txt	LTP289	ltpFR	4	12	-1	CANDY	230	n/a	n/a	-1	n/a	n/a	n/a	n/a	n/a
2214207	REC_WORD	wordpools/wasnorm_wordpool_less_exclusions.txt	LTP289	ltpFR	4	12	-1	WHALE	1601	n/a	n/a	-1	n/a	n/a	n/a	n/a	n/a
2271820	WORD	wordpools/wasnorm_wordpool_less_exclusions.txt	LTP289	ltpFR	4	13	0	PERSON	1052	n/a	n/a	1	0.422607421875	0.5869140625	0	lower	amplitud.ttf
2275964	WORD	wordpools/wasnorm_wordpool_less_exclusions.txt	LTP289	ltpFR	4	13	0	CUCUMBER	421	n/a	n/a	0	0.422607421875	0.5869140625	0	lower	amplitud.ttf
2279991	WORD	wordpools/wasnorm_wordpool_less_exclusions.txt	LTP289	ltpFR	4	13	0	SHARK	1275	n/a	n/a	1	0.422607421875	0.5869140625	0	lower	amplitud.ttf
2284035	WORD	wordpools/wasnorm_wordpool_less_exclusions.txt	LTP289	ltpFR	4	13	1	CLOUD	328	n/a	n/a	0	0.57763671875	0.412841796875	1	upper	zerothre.ttf
2288164	WORD	wordpools/wasnorm_wordpool_less_exclusions.txt	LTP289	ltpFR	4	13	1	BUTLER	204	n/a	n/a	1	0.57763671875	0.412841796875	1	upper	zerothre.ttf
2292057	WORD	wordpools/wasnorm_wordpool_less_exclusions.txt	LTP289	ltpFR	4	13	1	MONK	910	n/a	n/a	1	0.57763671875	0.412841796875	1	upper	zerothre.ttf
2296185	WORD	wordpools/wasnorm_wordpool_less_exclusions.txt	LTP289	ltpFR	4	13	0	RIB	1188	n/a	n/a	0	0.422607421875	0.5869140625	0	lower	amplitud.ttf
2300162	WORD	wordpools/wasnorm_wordpool_less_exclusions.txt	LTP289	ltpFR	4	13	0	SUPPER	1411	n/a	n/a	0	0.422607421875	0.5869140625	0	lower	amplitud.ttf
2304072	WORD	wordpools/wasnorm_wordpool_less_exclusions.txt	LTP289	ltpFR	4	13	1	PEOPLE	1046	n/a	n/a	1	0.57763671875	0.412841796875	1	upper	zerothre.ttf
2308200	WORD	wordpools/wasnorm_wordpool_less_exclusions.txt	LTP289	ltpFR	4	13	1	MARGARINE	868	n/a	n/a	0	0.57763671875	0.412841796875	1	upper	zerothre.ttf
2312327	WORD	wordpools/wasnorm_wordpool_less_exclusions.txt	LTP289	ltpFR	4	13	1	BISCUIT	130	n/a	n/a	0	0.57763671875	0.412841796875	1	upper	zerothre.ttf
2316222	WORD	wordpools/wasnorm_wordpool_less_exclusions.txt	LTP289	ltpFR	4	13	1	LIME	823	n/a	n/a	0	0.57763671875	0.412841796875	1	upper	zerothre.ttf
2320082	WORD	wordpools/wasnorm_wordpool_less_exclusions.txt	LTP289	ltpFR	4	13	1	JAR	750	n/a	n/a	0	0.57763671875	0.412841796875	1	upper	zerothre.ttf
2324059	WORD	wordpools/wasnorm_wordpool_less_exclusions.txt	LTP289	ltpFR	4	13	0	LION	827	n/a	n/a	1	0.422607421875	0.5869140625	0	lower	amplitud.ttf
2328237	WORD	wordpools/wasnorm_wordpool_less_exclusions.txt	LTP289	ltpFR	4	13	0	HOSTESS	723	n/a	n/a	1	0.422607421875	0.5869140625	0	lower	amplitud.ttf
2332115	WORD	wordpools/wasnorm_wordpool_less_exclusions.txt	LTP289	ltpFR	4	13	0	PREACHER	1119	n/a	n/a	1	0.422607421875	0.5869140625	0	lower	amplitud.ttf
2338123	REC_START	n/a	LTP289	ltpFR	4	13	n/a	n/a	n/a	n/a	n/a	n/a	n/a	n/a	n/a	n/a	n/a
2338899	REC_WORD	wordpools/wasnorm_wordpool_less_exclusions.txt	LTP289	ltpFR	4	13	0	HOSTESS	723	n/a	n/a	1	n/a	n/a	n/a	n/a	n/a
2340124	REC_WORD	wordpools/wasnorm_wordpool_less_exclusions.txt	LTP289	ltpFR	4	13	0	PREACHER	1119	n/a	n/a	1	n/a	n/a	n/a	n/a	n/a
2341667	REC_WORD	wordpools/wasnorm_wordpool_less_exclusions.txt	LTP289	ltpFR	4	13	1	PEOPLE	1046	n/a	n/a	1	n/a	n/a	n/a	n/a	n/a
2342655	REC_WORD	wordpools/wasnorm_wordpool_less_exclusions.txt	LTP289	ltpFR	4	13	0	PERSON	1052	n/a	n/a	1	n/a	n/a	n/a	n/a	n/a
2343934	REC_WORD	wordpools/wasnorm_wordpool_less_exclusions.txt	LTP289	ltpFR	4	13	0	LION	827	n/a	n/a	1	n/a	n/a	n/a	n/a	n/a
2345223	REC_WORD	wordpools/wasnorm_wordpool_less_exclusions.txt	LTP289	ltpFR	4	13	1	BUTLER	204	n/a	n/a	1	n/a	n/a	n/a	n/a	n/a
2346551	REC_WORD	wordpools/wasnorm_wordpool_less_exclusions.txt	LTP289	ltpFR	4	13	1	MONK	910	n/a	n/a	1	n/a	n/a	n/a	n/a	n/a
2350487	REC_WORD	wordpools/wasnorm_wordpool_less_exclusions.txt	LTP289	ltpFR	4	13	1	MARGARINE	868	n/a	n/a	0	n/a	n/a	n/a	n/a	n/a
2351958	REC_WORD	wordpools/wasnorm_wordpool_less_exclusions.txt	LTP289	ltpFR	4	13	1	BISCUIT	130	n/a	n/a	0	n/a	n/a	n/a	n/a	n/a
2358106	REC_WORD	wordpools/wasnorm_wordpool_less_exclusions.txt	LTP289	ltpFR	4	13	0	RIB	1188	n/a	n/a	0	n/a	n/a	n/a	n/a	n/a
2359965	REC_WORD	wordpools/wasnorm_wordpool_less_exclusions.txt	LTP289	ltpFR	4	13	0	SUPPER	1411	n/a	n/a	0	n/a	n/a	n/a	n/a	n/a
2377718	REC_WORD	wordpools/wasnorm_wordpool_less_exclusions.txt	LTP289	ltpFR	4	13	0	SHARK	1275	n/a	n/a	1	n/a	n/a	n/a	n/a	n/a
2430185	WORD	wordpools/wasnorm_wordpool_less_exclusions.txt	LTP289	ltpFR	4	14	1	SNAIL	1332	n/a	n/a	1	0.57763671875	0.412841796875	1	upper	zerothre.ttf
2434262	WORD	wordpools/wasnorm_wordpool_less_exclusions.txt	LTP289	ltpFR	4	14	1	HELICOPTER	701	n/a	n/a	0	0.57763671875	0.412841796875	1	upper	zerothre.ttf
2438289	WORD	wordpools/wasnorm_wordpool_less_exclusions.txt	LTP289	ltpFR	4	14	1	SPOON	1357	n/a	n/a	0	0.57763671875	0.412841796875	1	upper	zerothre.ttf
2442234	WORD	wordpools/wasnorm_wordpool_less_exclusions.txt	LTP289	ltpFR	4	14	1	DOG	480	n/a	n/a	1	0.57763671875	0.412841796875	1	upper	zerothre.ttf
2446394	WORD	wordpools/wasnorm_wordpool_less_exclusions.txt	LTP289	ltpFR	4	14	1	WILDERNESS	1610	n/a	n/a	0	0.57763671875	0.412841796875	1	upper	zerothre.ttf
2450405	WORD	wordpools/wasnorm_wordpool_less_exclusions.txt	LTP289	ltpFR	4	14	1	BASSINET	97	n/a	n/a	0	0.57763671875	0.412841796875	1	upper	zerothre.ttf
2454382	WORD	wordpools/wasnorm_wordpool_less_exclusions.txt	LTP289	ltpFR	4	14	1	NOSE	957	n/a	n/a	0	0.57763671875	0.412841796875	1	upper	zerothre.ttf
2458475	WORD	wordpools/wasnorm_wordpool_less_exclusions.txt	LTP289	ltpFR	4	14	1	NEST	945	n/a	n/a	0	0.57763671875	0.412841796875	1	upper	zerothre.ttf
2462304	WORD	wordpools/wasnorm_wordpool_less_exclusions.txt	LTP289	ltpFR	4	14	1	SEAGULL	1261	n/a	n/a	1	0.57763671875	0.412841796875	1	upper	zerothre.ttf
2466513	WORD	wordpools/wasnorm_wordpool_less_exclusions.txt	LTP289	ltpFR	4	14	1	PIRATE	1074	n/a	n/a	1	0.57763671875	0.412841796875	1	upper	zerothre.ttf
2470391	WORD	wordpools/wasnorm_wordpool_less_exclusions.txt	LTP289	ltpFR	4	14	1	EAR	513	n/a	n/a	0	0.57763671875	0.412841796875	1	upper	zerothre.ttf
2474286	WORD	wordpools/wasnorm_wordpool_less_exclusions.txt	LTP289	ltpFR	4	14	1	CONTAINER	366	n/a	n/a	0	0.57763671875	0.412841796875	1	upper	zerothre.ttf
2478380	WORD	wordpools/wasnorm_wordpool_less_exclusions.txt	LTP289	ltpFR	4	14	1	BOAT	144	n/a	n/a	0	0.57763671875	0.412841796875	1	upper	zerothre.ttf
2482357	WORD	wordpools/wasnorm_wordpool_less_exclusions.txt	LTP289	ltpFR	4	14	1	BATHTUB	100	n/a	n/a	0	0.57763671875	0.412841796875	1	upper	zerothre.ttf
2486185	WORD	wordpools/wasnorm_wordpool_less_exclusions.txt	LTP289	ltpFR	4	14	1	LAKE	796	n/a	n/a	0	0.57763671875	0.412841796875	1	upper	zerothre.ttf
2490112	WORD	wordpools/wasnorm_wordpool_less_exclusions.txt	LTP289	ltpFR	4	14	1	PIER	1063	n/a	n/a	0	0.57763671875	0.412841796875	1	upper	zerothre.ttf
2496154	REC_START	n/a	LTP289	ltpFR	4	14	n/a	n/a	n/a	n/a	n/a	n/a	n/a	n/a	n/a	n/a	n/a
2496768	REC_WORD	wordpools/wasnorm_wordpool_less_exclusions.txt	LTP289	ltpFR	4	14	1	LAKE	796	n/a	n/a	0	n/a	n/a	n/a	n/a	n/a
2497872	REC_WORD	wordpools/wasnorm_wordpool_less_exclusions.txt	LTP289	ltpFR	4	14	1	PIER	1063	n/a	n/a	0	n/a	n/a	n/a	n/a	n/a
2499126	REC_WORD	wordpools/wasnorm_wordpool_less_exclusions.txt	LTP289	ltpFR	4	14	1	BASSINET	97	n/a	n/a	0	n/a	n/a	n/a	n/a	n/a
2500677	REC_WORD	wordpools/wasnorm_wordpool_less_exclusions.txt	LTP289	ltpFR	4	14	1	HELICOPTER	701	n/a	n/a	0	n/a	n/a	n/a	n/a	n/a
2502015	REC_WORD	wordpools/wasnorm_wordpool_less_exclusions.txt	LTP289	ltpFR	4	14	1	SNAIL	1332	n/a	n/a	1	n/a	n/a	n/a	n/a	n/a
2503268	REC_WORD	wordpools/wasnorm_wordpool_less_exclusions.txt	LTP289	ltpFR	4	14	1	SPOON	1357	n/a	n/a	0	n/a	n/a	n/a	n/a	n/a
2504827	REC_WORD	wordpools/wasnorm_wordpool_less_exclusions.txt	LTP289	ltpFR	4	14	1	DOG	480	n/a	n/a	1	n/a	n/a	n/a	n/a	n/a
2506131	REC_WORD	wordpools/wasnorm_wordpool_less_exclusions.txt	LTP289	ltpFR	4	14	1	WILDERNESS	1610	n/a	n/a	0	n/a	n/a	n/a	n/a	n/a
2522841	REC_WORD	wordpools/wasnorm_wordpool_less_exclusions.txt	LTP289	ltpFR	4	14	1	EAR	513	n/a	n/a	0	n/a	n/a	n/a	n/a	n/a
2523803	REC_WORD	wordpools/wasnorm_wordpool_less_exclusions.txt	LTP289	ltpFR	4	14	1	NOSE	957	n/a	n/a	0	n/a	n/a	n/a	n/a	n/a
2547825	REC_WORD	wordpools/wasnorm_wordpool_less_exclusions.txt	LTP289	ltpFR	4	14	1	NEST	945	n/a	n/a	0	n/a	n/a	n/a	n/a	n/a
2597933	WORD	wordpools/wasnorm_wordpool_less_exclusions.txt	LTP289	ltpFR	4	15	0	LAMB	797	n/a	n/a	1	0.422607421875	0.5869140625	0	lower	amplitud.ttf
2602145	WORD	wordpools/wasnorm_wordpool_less_exclusions.txt	LTP289	ltpFR	4	15	0	LOLLIPOP	842	n/a	n/a	0	0.422607421875	0.5869140625	0	lower	amplitud.ttf
2606122	WORD	wordpools/wasnorm_wordpool_less_exclusions.txt	LTP289	ltpFR	4	15	0	SKUNK	1321	n/a	n/a	1	0.422607421875	0.5869140625	0	lower	amplitud.ttf
2610133	WORD	wordpools/wasnorm_wordpool_less_exclusions.txt	LTP289	ltpFR	4	15	0	OINTMENT	974	n/a	n/a	0	0.422607421875	0.5869140625	0	lower	amplitud.ttf
2614260	WORD	wordpools/wasnorm_wordpool_less_exclusions.txt	LTP289	ltpFR	4	15	0	OZONE	996	n/a	n/a	1	0.422607421875	0.5869140625	0	lower	amplitud.ttf
2618304	WORD	wordpools/wasnorm_wordpool_less_exclusions.txt	LTP289	ltpFR	4	15	0	TREAT	1501	n/a	n/a	1	0.422607421875	0.5869140625	0	lower	amplitud.ttf
2622513	WORD	wordpools/wasnorm_wordpool_less_exclusions.txt	LTP289	ltpFR	4	15	0	HOUND	724	n/a	n/a	1	0.422607421875	0.5869140625	0	lower	amplitud.ttf
2626690	WORD	wordpools/wasnorm_wordpool_less_exclusions.txt	LTP289	ltpFR	4	15	0	ATMOSPHERE	54	n/a	n/a	1	0.422607421875	0.5869140625	0	lower	amplitud.ttf
2630784	WORD	wordpools/wasnorm_wordpool_less_exclusions.txt	LTP289	ltpFR	4	15	0	HANDBAG	684	n/a	n/a	0	0.422607421875	0.5869140625	0	lower	amplitud.ttf
2634845	WORD	wordpools/wasnorm_wordpool_less_exclusions.txt	LTP289	ltpFR	4	15	0	TAIL	1430	n/a	n/a	0	0.422607421875	0.5869140625	0	lower	amplitud.ttf
2638772	WORD	wordpools/wasnorm_wordpool_less_exclusions.txt	LTP289	ltpFR	4	15	0	BONE	148	n/a	n/a	0	0.422607421875	0.5869140625	0	lower	amplitud.ttf
2642966	WORD	wordpools/wasnorm_wordpool_less_exclusions.txt	LTP289	ltpFR	4	15	0	MAGICIAN	854	n/a	n/a	1	0.422607421875	0.5869140625	0	lower	amplitud.ttf
2647060	WORD	wordpools/wasnorm_wordpool_less_exclusions.txt	LTP289	ltpFR	4	15	0	GLOBE	641	n/a	n/a	1	0.422607421875	0.5869140625	0	lower	amplitud.ttf
2651071	WORD	wordpools/wasnorm_wordpool_less_exclusions.txt	LTP289	ltpFR	4	15	0	MAP	865	n/a	n/a	0	0.422607421875	0.5869140625	0	lower	amplitud.ttf
2655116	WORD	wordpools/wasnorm_wordpool_less_exclusions.txt	LTP289	ltpFR	4	15	0	MOOSE	915	n/a	n/a	1	0.422607421875	0.5869140625	0	lower	amplitud.ttf
2659025	WORD	wordpools/wasnorm_wordpool_less_exclusions.txt	LTP289	ltpFR	4	15	0	MATTRESS	879	n/a	n/a	1	0.422607421875	0.5869140625	0	lower	amplitud.ttf
2664867	REC_START	n/a	LTP289	ltpFR	4	15	n/a	n/a	n/a	n/a	n/a	n/a	n/a	n/a	n/a	n/a	n/a
2665780	REC_WORD	wordpools/wasnorm_wordpool_less_exclusions.txt	LTP289	ltpFR	4	15	0	MOOSE	915	n/a	n/a	1	n/a	n/a	n/a	n/a	n/a
2666911	REC_WORD	wordpools/wasnorm_wordpool_less_exclusions.txt	LTP289	ltpFR	4	15	0	MATTRESS	879	n/a	n/a	1	n/a	n/a	n/a	n/a	n/a
2668400	REC_WORD	wordpools/wasnorm_wordpool_less_exclusions.txt	LTP289	ltpFR	4	15	0	BONE	148	n/a	n/a	0	n/a	n/a	n/a	n/a	n/a
2669324	REC_WORD	wordpools/wasnorm_wordpool_less_exclusions.txt	LTP289	ltpFR	4	15	0	MAGICIAN	854	n/a	n/a	1	n/a	n/a	n/a	n/a	n/a
2671855	REC_WORD	wordpools/wasnorm_wordpool_less_exclusions.txt	LTP289	ltpFR	4	15	0	TAIL	1430	n/a	n/a	0	n/a	n/a	n/a	n/a	n/a
2679935	REC_WORD	wordpools/wasnorm_wordpool_less_exclusions.txt	LTP289	ltpFR	4	15	0	LOLLIPOP	842	n/a	n/a	0	n/a	n/a	n/a	n/a	n/a
2681902	REC_WORD	wordpools/wasnorm_wordpool_less_exclusions.txt	LTP289	ltpFR	4	15	0	TREAT	1501	n/a	n/a	1	n/a	n/a	n/a	n/a	n/a
2683625	REC_WORD	wordpools/wasnorm_wordpool_less_exclusions.txt	LTP289	ltpFR	4	15	0	HANDBAG	684	n/a	n/a	0	n/a	n/a	n/a	n/a	n/a
2703174	REC_WORD	wordpools/wasnorm_wordpool_less_exclusions.txt	LTP289	ltpFR	4	15	0	OINTMENT	974	n/a	n/a	0	n/a	n/a	n/a	n/a	n/a
2704496	REC_WORD	wordpools/wasnorm_wordpool_less_exclusions.txt	LTP289	ltpFR	4	15	0	OZONE	996	n/a	n/a	1	n/a	n/a	n/a	n/a	n/a
2705841	REC_WORD	wordpools/wasnorm_wordpool_less_exclusions.txt	LTP289	ltpFR	4	15	0	ATMOSPHERE	54	n/a	n/a	1	n/a	n/a	n/a	n/a	n/a
2712737	REC_WORD	wordpools/wasnorm_wordpool_less_exclusions.txt	LTP289	ltpFR	4	15	0	MATTRESS	879	n/a	n/a	1	n/a	n/a	n/a	n/a	n/a
2762837	WORD	wordpools/wasnorm_wordpool_less_exclusions.txt	LTP289	ltpFR	4	16	0	DIAPER	459	n/a	n/a	0	0.422607421875	0.5869140625	0	lower	amplitud.ttf
2766881	WORD	wordpools/wasnorm_wordpool_less_exclusions.txt	LTP289	ltpFR	4	16	0	GOWN	652	n/a	n/a	1	0.422607421875	0.5869140625	0	lower	amplitud.ttf
2770858	WORD	wordpools/wasnorm_wordpool_less_exclusions.txt	LTP289	ltpFR	4	16	0	TIMBER	1469	n/a	n/a	1	0.422607421875	0.5869140625	0	lower	amplitud.ttf
2774936	WORD	wordpools/wasnorm_wordpool_less_exclusions.txt	LTP289	ltpFR	4	16	0	DONKEY	484	n/a	n/a	1	0.422607421875	0.5869140625	0	lower	amplitud.ttf
2778830	WORD	wordpools/wasnorm_wordpool_less_exclusions.txt	LTP289	ltpFR	4	16	0	RICE	1190	n/a	n/a	0	0.422607421875	0.5869140625	0	lower	amplitud.ttf
2782807	WORD	wordpools/wasnorm_wordpool_less_exclusions.txt	LTP289	ltpFR	4	16	0	WASHCLOTH	1591	n/a	n/a	0	0.422607421875	0.5869140625	0	lower	amplitud.ttf
2786934	WORD	wordpools/wasnorm_wordpool_less_exclusions.txt	LTP289	ltpFR	4	16	0	SHOWER	1296	n/a	n/a	1	0.422607421875	0.5869140625	0	lower	amplitud.ttf
2791062	WORD	wordpools/wasnorm_wordpool_less_exclusions.txt	LTP289	ltpFR	4	16	0	IRON	744	n/a	n/a	0	0.422607421875	0.5869140625	0	lower	amplitud.ttf
2794972	WORD	wordpools/wasnorm_wordpool_less_exclusions.txt	LTP289	ltpFR	4	16	0	WRENCH	1625	n/a	n/a	0	0.422607421875	0.5869140625	0	lower	amplitud.ttf
2798850	WORD	wordpools/wasnorm_wordpool_less_exclusions.txt	LTP289	ltpFR	4	16	0	FOREST	593	n/a	n/a	1	0.422607421875	0.5869140625	0	lower	amplitud.ttf
2803060	WORD	wordpools/wasnorm_wordpool_less_exclusions.txt	LTP289	ltpFR	4	16	0	HAMMOCK	681	n/a	n/a	1	0.422607421875	0.5869140625	0	lower	amplitud.ttf
2807238	WORD	wordpools/wasnorm_wordpool_less_exclusions.txt	LTP289	ltpFR	4	16	0	CAFE	216	n/a	n/a	1	0.422607421875	0.5869140625	0	lower	amplitud.ttf
2811249	WORD	wordpools/wasnorm_wordpool_less_exclusions.txt	LTP289	ltpFR	4	16	0	LODGE	839	n/a	n/a	1	0.422607421875	0.5869140625	0	lower	amplitud.ttf
2815127	WORD	wordpools/wasnorm_wordpool_less_exclusions.txt	LTP289	ltpFR	4	16	0	PRAIRIE	1118	n/a	n/a	1	0.422607421875	0.5869140625	0	lower	amplitud.ttf
2819121	WORD	wordpools/wasnorm_wordpool_less_exclusions.txt	LTP289	ltpFR	4	16	0	STREAM	1392	n/a	n/a	1	0.422607421875	0.5869140625	0	lower	amplitud.ttf
2823115	WORD	wordpools/wasnorm_wordpool_less_exclusions.txt	LTP289	ltpFR	4	16	0	MARSH	874	n/a	n/a	1	0.422607421875	0.5869140625	0	lower	amplitud.ttf
2829006	REC_START	n/a	LTP289	ltpFR	4	16	n/a	n/a	n/a	n/a	n/a	n/a	n/a	n/a	n/a	n/a	n/a
2829834	REC_WORD	wordpools/wasnorm_wordpool_less_exclusions.txt	LTP289	ltpFR	4	16	0	PRAIRIE	1118	n/a	n/a	1	n/a	n/a	n/a	n/a	n/a
2830729	REC_WORD	wordpools/wasnorm_wordpool_less_exclusions.txt	LTP289	ltpFR	4	16	0	STREAM	1392	n/a	n/a	1	n/a	n/a	n/a	n/a	n/a
2832288	REC_WORD	wordpools/wasnorm_wordpool_less_exclusions.txt	LTP289	ltpFR	4	16	0	MARSH	874	n/a	n/a	1	n/a	n/a	n/a	n/a	n/a
2859347	REC_WORD	wordpools/wasnorm_wordpool_less_exclusions.txt	LTP289	ltpFR	4	16	0	LODGE	839	n/a	n/a	1	n/a	n/a	n/a	n/a	n/a
2868393	REC_WORD	wordpools/wasnorm_wordpool_less_exclusions.txt	LTP289	ltpFR	4	16	0	CAFE	216	n/a	n/a	1	n/a	n/a	n/a	n/a	n/a
2925861	REC_START	n/a	LTP289	ltpFR	4	n/a	n/a	n/a	n/a	n/a	n/a	n/a	n/a	n/a	n/a	n/a	n/a
2926978	FFR_REC_WORD	wordpools/wasnorm_wordpool_less_exclusions.txt	LTP289	ltpFR	4	n/a	1	ANTEATER	26	n/a	n/a	1	n/a	n/a	n/a	n/a	n/a
2931154	FFR_REC_WORD	wordpools/wasnorm_wordpool_less_exclusions.txt	LTP289	ltpFR	4	n/a	0	LOLLIPOP	842	n/a	n/a	0	n/a	n/a	n/a	n/a	n/a
2932346	FFR_REC_WORD	wordpools/wasnorm_wordpool_less_exclusions.txt	LTP289	ltpFR	4	n/a	0	TREAT	1501	n/a	n/a	1	n/a	n/a	n/a	n/a	n/a
2933424	FFR_REC_WORD	wordpools/wasnorm_wordpool_less_exclusions.txt	LTP289	ltpFR	4	n/a	0	TAIL	1430	n/a	n/a	0	n/a	n/a	n/a	n/a	n/a
2934691	FFR_REC_WORD	wordpools/wasnorm_wordpool_less_exclusions.txt	LTP289	ltpFR	4	n/a	0	BONE	148	n/a	n/a	0	n/a	n/a	n/a	n/a	n/a
2935856	FFR_REC_WORD	wordpools/wasnorm_wordpool_less_exclusions.txt	LTP289	ltpFR	4	n/a	1	EAR	513	n/a	n/a	0	n/a	n/a	n/a	n/a	n/a
2936995	FFR_REC_WORD	wordpools/wasnorm_wordpool_less_exclusions.txt	LTP289	ltpFR	4	n/a	1	NOSE	957	n/a	n/a	0	n/a	n/a	n/a	n/a	n/a
2938572	FFR_REC_WORD	wordpools/wasnorm_wordpool_less_exclusions.txt	LTP289	ltpFR	4	n/a	1	PELICAN	1039	n/a	n/a	1	n/a	n/a	n/a	n/a	n/a
2943690	FFR_REC_WORD	wordpools/wasnorm_wordpool_less_exclusions.txt	LTP289	ltpFR	4	n/a	0	TIMBER	1469	n/a	n/a	1	n/a	n/a	n/a	n/a	n/a
2949268	FFR_REC_WORD	wordpools/wasnorm_wordpool_less_exclusions.txt	LTP289	ltpFR	4	n/a	1	CLOUD	328	n/a	n/a	0	n/a	n/a	n/a	n/a	n/a
2950500	FFR_REC_WORD	wordpools/wasnorm_wordpool_less_exclusions.txt	LTP289	ltpFR	4	n/a	-1	COUGAR	387	n/a	n/a	-1	n/a	n/a	n/a	n/a	n/a
2951782	FFR_REC_WORD	wordpools/wasnorm_wordpool_less_exclusions.txt	LTP289	ltpFR	4	n/a	1	BUTLER	204	n/a	n/a	1	n/a	n/a	n/a	n/a	n/a
2952949	FFR_REC_WORD	wordpools/wasnorm_wordpool_less_exclusions.txt	LTP289	ltpFR	4	n/a	0	LION	827	n/a	n/a	1	n/a	n/a	n/a	n/a	n/a
2962448	FFR_REC_WORD	wordpools/wasnorm_wordpool_less_exclusions.txt	LTP289	ltpFR	4	n/a	0	CORAL	378	n/a	n/a	0	n/a	n/a	n/a	n/a	n/a
2963894	FFR_REC_WORD	wordpools/wasnorm_wordpool_less_exclusions.txt	LTP289	ltpFR	4	n/a	0	BAIT	70	n/a	n/a	0	n/a	n/a	n/a	n/a	n/a
2964757	FFR_REC_WORD	wordpools/wasnorm_wordpool_less_exclusions.txt	LTP289	ltpFR	4	n/a	1	SARDINE	1235	n/a	n/a	1	n/a	n/a	n/a	n/a	n/a
2966439	FFR_REC_WORD	wordpools/wasnorm_wordpool_less_exclusions.txt	LTP289	ltpFR	4	n/a	0	OINTMENT	974	n/a	n/a	0	n/a	n/a	n/a	n/a	n/a
2967880	FFR_REC_WORD	wordpools/wasnorm_wordpool_less_exclusions.txt	LTP289	ltpFR	4	n/a	0	ATMOSPHERE	54	n/a	n/a	1	n/a	n/a	n/a	n/a	n/a
2970190	FFR_REC_WORD	wordpools/wasnorm_wordpool_less_exclusions.txt	LTP289	ltpFR	4	n/a	0	OZONE	996	n/a	n/a	1	n/a	n/a	n/a	n/a	n/a
2971657	FFR_REC_WORD	wordpools/wasnorm_wordpool_less_exclusions.txt	LTP289	ltpFR	4	n/a	1	BISCUIT	130	n/a	n/a	0	n/a	n/a	n/a	n/a	n/a
2973004	FFR_REC_WORD	wordpools/wasnorm_wordpool_less_exclusions.txt	LTP289	ltpFR	4	n/a	1	MARGARINE	868	n/a	n/a	0	n/a	n/a	n/a	n/a	n/a
2974625	FFR_REC_WORD	wordpools/wasnorm_wordpool_less_exclusions.txt	LTP289	ltpFR	4	n/a	-1	WHALE	1601	n/a	n/a	-1	n/a	n/a	n/a	n/a	n/a
2980212	FFR_REC_WORD	wordpools/wasnorm_wordpool_less_exclusions.txt	LTP289	ltpFR	4	n/a	1	MOUSE	925	n/a	n/a	1	n/a	n/a	n/a	n/a	n/a
2981307	FFR_REC_WORD	wordpools/wasnorm_wordpool_less_exclusions.txt	LTP289	ltpFR	4	n/a	1	STEP	1377	n/a	n/a	0	n/a	n/a	n/a	n/a	n/a
2982846	FFR_REC_WORD	wordpools/wasnorm_wordpool_less_exclusions.txt	LTP289	ltpFR	4	n/a	0	TICKET	1464	n/a	n/a	0	n/a	n/a	n/a	n/a	n/a
2987590	FFR_REC_WORD	wordpools/wasnorm_wordpool_less_exclusions.txt	LTP289	ltpFR	4	n/a	-1	POET	1095	n/a	n/a	-1	n/a	n/a	n/a	n/a	n/a
2992260	FFR_REC_WORD	wordpools/wasnorm_wordpool_less_exclusions.txt	LTP289	ltpFR	4	n/a	-1	BOOK	149	n/a	n/a	-1	n/a	n/a	n/a	n/a	n/a
2993307	FFR_REC_WORD	wordpools/wasnorm_wordpool_less_exclusions.txt	LTP289	ltpFR	4	n/a	-1	COOKBOOK	373	n/a	n/a	-1	n/a	n/a	n/a	n/a	n/a
2997473	FFR_REC_WORD	wordpools/wasnorm_wordpool_less_exclusions.txt	LTP289	ltpFR	4	n/a	-1	CANDY	230	n/a	n/a	-1	n/a	n/a	n/a	n/a	n/a
2998900	FFR_REC_WORD	wordpools/wasnorm_wordpool_less_exclusions.txt	LTP289	ltpFR	4	n/a	0	TREAT	1501	n/a	n/a	1	n/a	n/a	n/a	n/a	n/a
3004078	FFR_REC_WORD	wordpools/wasnorm_wordpool_less_exclusions.txt	LTP289	ltpFR	4	n/a	1	LIME	823	n/a	n/a	0	n/a	n/a	n/a	n/a	n/a
3008977	FFR_REC_WORD	wordpools/wasnorm_wordpool_less_exclusions.txt	LTP289	ltpFR	4	n/a	1	LOFT	840	n/a	n/a	0	n/a	n/a	n/a	n/a	n/a
3010209	FFR_REC_WORD	wordpools/wasnorm_wordpool_less_exclusions.txt	LTP289	ltpFR	4	n/a	1	PADDING	999	n/a	n/a	0	n/a	n/a	n/a	n/a	n/a
3011306	FFR_REC_WORD	wordpools/wasnorm_wordpool_less_exclusions.txt	LTP289	ltpFR	4	n/a	1	FARM	552	n/a	n/a	0	n/a	n/a	n/a	n/a	n/a
3015861	FFR_REC_WORD	wordpools/wasnorm_wordpool_less_exclusions.txt	LTP289	ltpFR	4	n/a	-1	ROOST	1208	n/a	n/a	-1	n/a	n/a	n/a	n/a	n/a
3017218	FFR_REC_WORD	wordpools/wasnorm_wordpool_less_exclusions.txt	LTP289	ltpFR	4	n/a	-1	TURKEY	1520	n/a	n/a	-1	n/a	n/a	n/a	n/a	n/a
3019608	FFR_REC_WORD	wordpools/wasnorm_wordpool_less_exclusions.txt	LTP289	ltpFR	4	n/a	0	DONKEY	484	n/a	n/a	1	n/a	n/a	n/a	n/a	n/a
3021000	FFR_REC_WORD	wordpools/wasnorm_wordpool_less_exclusions.txt	LTP289	ltpFR	4	n/a	n/a	MULE	931	n/a	n/a	n/a	n/a	n/a	n/a	n/a	n/a
3028737	FFR_REC_WORD	wordpools/wasnorm_wordpool_less_exclusions.txt	LTP289	ltpFR	4	n/a	1	CHIMPANZEE	302	n/a	n/a	1	n/a	n/a	n/a	n/a	n/a
3030084	FFR_REC_WORD	wordpools/wasnorm_wordpool_less_exclusions.txt	LTP289	ltpFR	4	n/a	-1	CHAUFFEUR	283	n/a	n/a	-1	n/a	n/a	n/a	n/a	n/a
3035911	FFR_REC_WORD	wordpools/wasnorm_wordpool_less_exclusions.txt	LTP289	ltpFR	4	n/a	0	HOSTESS	723	n/a	n/a	1	n/a	n/a	n/a	n/a	n/a
3039527	FFR_REC_WORD	wordpools/wasnorm_wordpool_less_exclusions.txt	LTP289	ltpFR	4	n/a	1	MAJOR	859	n/a	n/a	1	n/a	n/a	n/a	n/a	n/a
3040745	FFR_REC_WORD	wordpools/wasnorm_wordpool_less_exclusions.txt	LTP289	ltpFR	4	n/a	0	MOVIE	927	n/a	n/a	0	n/a	n/a	n/a	n/a	n/a
3041732	FFR_REC_WORD	wordpools/wasnorm_wordpool_less_exclusions.txt	LTP289	ltpFR	4	n/a	0	SPOOL	1356	n/a	n/a	0	n/a	n/a	n/a	n/a	n/a
3043084	FFR_REC_WORD	wordpools/wasnorm_wordpool_less_exclusions.txt	LTP289	ltpFR	4	n/a	0	PRODUCER	1129	n/a	n/a	1	n/a	n/a	n/a	n/a	n/a
3044940	FFR_REC_WORD	wordpools/wasnorm_wordpool_less_exclusions.txt	LTP289	ltpFR	4	n/a	0	INSECT	740	n/a	n/a	0	n/a	n/a	n/a	n/a	n/a
3046437	FFR_REC_WORD	wordpools/wasnorm_wordpool_less_exclusions.txt	LTP289	ltpFR	4	n/a	1	BEETLE	116	n/a	n/a	1	n/a	n/a	n/a	n/a	n/a
3061208	FFR_REC_WORD	wordpools/wasnorm_wordpool_less_exclusions.txt	LTP289	ltpFR	4	n/a	1	YARN	1631	n/a	n/a	0	n/a	n/a	n/a	n/a	n/a
3101192	FFR_REC_WORD	wordpools/wasnorm_wordpool_less_exclusions.txt	LTP289	ltpFR	4	n/a	1	PIRATE	1074	n/a	n/a	1	n/a	n/a	n/a	n/a	n/a
3136263	FFR_REC_WORD	wordpools/wasnorm_wordpool_less_exclusions.txt	LTP289	ltpFR	4	n/a	1	HELICOPTER	701	n/a	n/a	0	n/a	n/a	n/a	n/a	n/a
3137614	FFR_REC_WORD	wordpools/wasnorm_wordpool_less_exclusions.txt	LTP289	ltpFR	4	n/a	1	SNAIL	1332	n/a	n/a	1	n/a	n/a	n/a	n/a	n/a
3138737	FFR_REC_WORD	wordpools/wasnorm_wordpool_less_exclusions.txt	LTP289	ltpFR	4	n/a	1	SPOON	1357	n/a	n/a	0	n/a	n/a	n/a	n/a	n/a
3151882	FFR_REC_WORD	wordpools/wasnorm_wordpool_less_exclusions.txt	LTP289	ltpFR	4	n/a	-1	MONSTER	912	n/a	n/a	-1	n/a	n/a	n/a	n/a	n/a
3152969	FFR_REC_WORD	wordpools/wasnorm_wordpool_less_exclusions.txt	LTP289	ltpFR	4	n/a	-1	FRECKLE	602	n/a	n/a	-1	n/a	n/a	n/a	n/a	n/a
3163316	FFR_REC_WORD	wordpools/wasnorm_wordpool_less_exclusions.txt	LTP289	ltpFR	4	n/a	-1	LIMB	822	n/a	n/a	-1	n/a	n/a	n/a	n/a	n/a
3164177	FFR_REC_WORD_VV	wordpools/wasnorm_wordpool_less_exclusions.txt	LTP289	ltpFR	4	n/a	n/a	<>	-1	n/a	n/a	n/a	n/a	n/a	n/a	n/a	n/a
3165112	FFR_REC_WORD	wordpools/wasnorm_wordpool_less_exclusions.txt	LTP289	ltpFR	4	n/a	0	APPENDAGE	32	n/a	n/a	0	n/a	n/a	n/a	n/a	n/a
3199334	FFR_REC_WORD	wordpools/wasnorm_wordpool_less_exclusions.txt	LTP289	ltpFR	4	n/a	1	GROCERIES	663	n/a	n/a	0	n/a	n/a	n/a	n/a	n/a
3213557	FFR_REC_WORD	wordpools/wasnorm_wordpool_less_exclusions.txt	LTP289	ltpFR	4	n/a	-1	BANQUET	86	n/a	n/a	-1	n/a	n/a	n/a	n/a	n/a
3221359	FFR_REC_WORD	wordpools/wasnorm_wordpool_less_exclusions.txt	LTP289	ltpFR	4	n/a	1	CRICKET	408	n/a	n/a	1	n/a	n/a	n/a	n/a	n/a
3223020	FFR_REC_WORD	wordpools/wasnorm_wordpool_less_exclusions.txt	LTP289	ltpFR	4	n/a	1	DOUGHNUT	490	n/a	n/a	0	n/a	n/a	n/a	n/a	n/a
3225096	FFR_REC_WORD	wordpools/wasnorm_wordpool_less_exclusions.txt	LTP289	ltpFR	4	n/a	1	PLASTER	1085	n/a	n/a	0	n/a	n/a	n/a	n/a	n/a
3703500	REC_START	n/a	LTP289	ltpFR	4	1	n/a	n/a	n/a	n/a	n/a	n/a	n/a	n/a	n/a	n/a	n/a
3703532	RECOG_TARGET	n/a	LTP289	ltpFR	4	1	0	VENT	1556	0	1	0	n/a	n/a	n/a	n/a	n/a
3705480	RECOG_RESP	n/a	LTP289	ltpFR	4	1	0	VENT	1556	0	n/a	0	n/a	n/a	n/a	n/a	n/a
3707250	RECOG_CONF	n/a	LTP289	ltpFR	4	1	0	VENT	1556	n/a	1	0	n/a	n/a	n/a	n/a	n/a
3709523	RECOG_TARGET	n/a	LTP289	ltpFR	4	1	1	CREW	406	0	2	1	n/a	n/a	n/a	n/a	n/a
3710445	RECOG_RESP	n/a	LTP289	ltpFR	4	1	1	CREW	406	0	n/a	1	n/a	n/a	n/a	n/a	n/a
3712440	RECOG_CONF	n/a	LTP289	ltpFR	4	1	1	CREW	406	n/a	2	1	n/a	n/a	n/a	n/a	n/a
3714467	RECOG_TARGET	n/a	LTP289	ltpFR	4	1	0	INSECT	740	1	4	0	n/a	n/a	n/a	n/a	n/a
3715060	RECOG_RESP	n/a	LTP289	ltpFR	4	1	0	INSECT	740	1	n/a	0	n/a	n/a	n/a	n/a	n/a
3716710	RECOG_CONF	n/a	LTP289	ltpFR	4	1	0	INSECT	740	n/a	4	0	n/a	n/a	n/a	n/a	n/a
3718876	RECOG_LURE	n/a	LTP289	ltpFR	4	1	n/a	DOUGH	489	0	3	n/a	n/a	n/a	n/a	n/a	n/a
3719640	RECOG_RESP	n/a	LTP289	ltpFR	4	1	n/a	DOUGH	489	0	n/a	n/a	n/a	n/a	n/a	n/a	n/a
3721410	RECOG_CONF	n/a	LTP289	ltpFR	4	1	n/a	DOUGH	489	n/a	3	n/a	n/a	n/a	n/a	n/a	n/a
3723354	RECOG_TARGET	n/a	LTP289	ltpFR	4	1	-1	CHAUFFEUR	283	1	5	-1	n/a	n/a	n/a	n/a	n/a
3723975	RECOG_RESP	n/a	LTP289	ltpFR	4	1	-1	CHAUFFEUR	283	1	n/a	-1	n/a	n/a	n/a	n/a	n/a
3725400	RECOG_CONF	n/a	LTP289	ltpFR	4	1	-1	CHAUFFEUR	283	n/a	5	-1	n/a	n/a	n/a	n/a	n/a
3727513	RECOG_TARGET	n/a	LTP289	ltpFR	4	1	0	BEVERAGE	123	0	1	1	n/a	n/a	n/a	n/a	n/a
3728855	RECOG_RESP	n/a	LTP289	ltpFR	4	1	0	BEVERAGE	123	0	n/a	1	n/a	n/a	n/a	n/a	n/a
3730260	RECOG_CONF	n/a	LTP289	ltpFR	4	1	0	BEVERAGE	123	n/a	1	1	n/a	n/a	n/a	n/a	n/a
3732257	RECOG_LURE	n/a	LTP289	ltpFR	4	1	n/a	CIGAR	308	0	1	n/a	n/a	n/a	n/a	n/a	n/a
3733215	RECOG_RESP	n/a	LTP289	ltpFR	4	1	n/a	CIGAR	308	0	n/a	n/a	n/a	n/a	n/a	n/a	n/a
3735110	RECOG_CONF	n/a	LTP289	ltpFR	4	1	n/a	CIGAR	308	n/a	1	n/a	n/a	n/a	n/a	n/a	n/a
3737200	RECOG_TARGET	n/a	LTP289	ltpFR	4	1	1	ACORN	3	1	5	1	n/a	n/a	n/a	n/a	n/a
3737795	RECOG_RESP	n/a	LTP289	ltpFR	4	1	1	ACORN	3	1	n/a	1	n/a	n/a	n/a	n/a	n/a
3739110	RECOG_CONF	n/a	LTP289	ltpFR	4	1	1	ACORN	3	n/a	5	1	n/a	n/a	n/a	n/a	n/a
3741327	RECOG_TARGET	n/a	LTP289	ltpFR	4	1	1	OUTFIT	988	1	2	0	n/a	n/a	n/a	n/a	n/a
3742680	RECOG_RESP	n/a	LTP289	ltpFR	4	1	1	OUTFIT	988	1	n/a	0	n/a	n/a	n/a	n/a	n/a
3744090	RECOG_CONF	n/a	LTP289	ltpFR	4	1	1	OUTFIT	988	n/a	2	0	n/a	n/a	n/a	n/a	n/a
3746336	RECOG_TARGET	n/a	LTP289	ltpFR	4	1	-1	HANGER	687	0	2	-1	n/a	n/a	n/a	n/a	n/a
3747260	RECOG_RESP	n/a	LTP289	ltpFR	4	1	-1	HANGER	687	0	n/a	-1	n/a	n/a	n/a	n/a	n/a
3749620	RECOG_CONF	n/a	LTP289	ltpFR	4	1	-1	HANGER	687	n/a	2	-1	n/a	n/a	n/a	n/a	n/a
3751661	RECOG_LURE	n/a	LTP289	ltpFR	4	1	n/a	BULB	192	0	4	n/a	n/a	n/a	n/a	n/a	n/a
3752410	RECOG_RESP	n/a	LTP289	ltpFR	4	1	n/a	BULB	192	0	n/a	n/a	n/a	n/a	n/a	n/a	n/a
3753840	RECOG_CONF	n/a	LTP289	ltpFR	4	1	n/a	BULB	192	n/a	4	n/a	n/a	n/a	n/a	n/a	n/a
3756105	RECOG_TARGET	n/a	LTP289	ltpFR	4	1	-1	FRECKLE	602	1	5	-1	n/a	n/a	n/a	n/a	n/a
3756660	RECOG_RESP	n/a	LTP289	ltpFR	4	1	-1	FRECKLE	602	1	n/a	-1	n/a	n/a	n/a	n/a	n/a
3757930	RECOG_CONF	n/a	LTP289	ltpFR	4	1	-1	FRECKLE	602	n/a	5	-1	n/a	n/a	n/a	n/a	n/a
3760265	RECOG_LURE	n/a	LTP289	ltpFR	4	1	n/a	KITE	779	0	5	n/a	n/a	n/a	n/a	n/a	n/a
3760880	RECOG_RESP	n/a	LTP289	ltpFR	4	1	n/a	KITE	779	0	n/a	n/a	n/a	n/a	n/a	n/a	n/a
3762250	RECOG_CONF	n/a	LTP289	ltpFR	4	1	n/a	KITE	779	n/a	5	n/a	n/a	n/a	n/a	n/a	n/a
3764575	RECOG_TARGET	n/a	LTP289	ltpFR	4	1	0	PRAIRIE	1118	1	3	1	n/a	n/a	n/a	n/a	n/a
3765825	RECOG_RESP	n/a	LTP289	ltpFR	4	1	0	PRAIRIE	1118	1	n/a	1	n/a	n/a	n/a	n/a	n/a
3767130	RECOG_CONF	n/a	LTP289	ltpFR	4	1	0	PRAIRIE	1118	n/a	3	1	n/a	n/a	n/a	n/a	n/a
3769252	RECOG_TARGET	n/a	LTP289	ltpFR	4	1	-1	SNORKEL	1336	1	5	-1	n/a	n/a	n/a	n/a	n/a
3769795	RECOG_RESP	n/a	LTP289	ltpFR	4	1	-1	SNORKEL	1336	1	n/a	-1	n/a	n/a	n/a	n/a	n/a
3771000	RECOG_CONF	n/a	LTP289	ltpFR	4	1	-1	SNORKEL	1336	n/a	5	-1	n/a	n/a	n/a	n/a	n/a
3773146	RECOG_TARGET	n/a	LTP289	ltpFR	4	1	0	OZONE	996	1	5	1	n/a	n/a	n/a	n/a	n/a
3773760	RECOG_RESP	n/a	LTP289	ltpFR	4	1	0	OZONE	996	1	n/a	1	n/a	n/a	n/a	n/a	n/a
3775230	RECOG_CONF	n/a	LTP289	ltpFR	4	1	0	OZONE	996	n/a	5	1	n/a	n/a	n/a	n/a	n/a
3777505	RECOG_TARGET	n/a	LTP289	ltpFR	4	1	-1	RAISIN	1163	0	2	-1	n/a	n/a	n/a	n/a	n/a
3778365	RECOG_RESP	n/a	LTP289	ltpFR	4	1	-1	RAISIN	1163	0	n/a	-1	n/a	n/a	n/a	n/a	n/a
3779950	RECOG_CONF	n/a	LTP289	ltpFR	4	1	-1	RAISIN	1163	n/a	2	-1	n/a	n/a	n/a	n/a	n/a
3781965	RECOG_TARGET	n/a	LTP289	ltpFR	4	1	-1	COMPUTER	359	0	3	-1	n/a	n/a	n/a	n/a	n/a
3782800	RECOG_RESP	n/a	LTP289	ltpFR	4	1	-1	COMPUTER	359	0	n/a	-1	n/a	n/a	n/a	n/a	n/a
3784130	RECOG_CONF	n/a	LTP289	ltpFR	4	1	-1	COMPUTER	359	n/a	3	-1	n/a	n/a	n/a	n/a	n/a
3786227	RECOG_LURE	n/a	LTP289	ltpFR	4	1	n/a	STEM	1376	0	1	n/a	n/a	n/a	n/a	n/a	n/a
3787325	RECOG_RESP	n/a	LTP289	ltpFR	4	1	n/a	STEM	1376	0	n/a	n/a	n/a	n/a	n/a	n/a	n/a
3788990	RECOG_CONF	n/a	LTP289	ltpFR	4	1	n/a	STEM	1376	n/a	1	n/a	n/a	n/a	n/a	n/a	n/a
3790985	RECOG_TARGET	n/a	LTP289	ltpFR	4	1	-1	FOLDER	588	0	2	-1	n/a	n/a	n/a	n/a	n/a
3791655	RECOG_RESP	n/a	LTP289	ltpFR	4	1	-1	FOLDER	588	0	n/a	-1	n/a	n/a	n/a	n/a	n/a
3793250	RECOG_CONF	n/a	LTP289	ltpFR	4	1	-1	FOLDER	588	n/a	2	-1	n/a	n/a	n/a	n/a	n/a
3806677	REC_START	n/a	LTP289	ltpFR	4	2	n/a	n/a	n/a	n/a	n/a	n/a	n/a	n/a	n/a	n/a	n/a
3806712	RECOG_LURE	n/a	LTP289	ltpFR	4	2	n/a	JEWEL	757	0	1	n/a	n/a	n/a	n/a	n/a	n/a
3808142	RECOG_RESP	n/a	LTP289	ltpFR	4	2	n/a	JEWEL	757	0	n/a	n/a	n/a	n/a	n/a	n/a	n/a
3809587	RECOG_CONF	n/a	LTP289	ltpFR	4	2	n/a	JEWEL	757	n/a	1	n/a	n/a	n/a	n/a	n/a	n/a
3811604	RECOG_TARGET	n/a	LTP289	ltpFR	4	2	0	CEILING	265	1	2	1	n/a	n/a	n/a	n/a	n/a
3812542	RECOG_RESP	n/a	LTP289	ltpFR	4	2	0	CEILING	265	1	n/a	1	n/a	n/a	n/a	n/a	n/a
3813967	RECOG_CONF	n/a	LTP289	ltpFR	4	2	0	CEILING	265	n/a	2	1	n/a	n/a	n/a	n/a	n/a
3815915	RECOG_TARGET	n/a	LTP289	ltpFR	4	2	1	HOOP	716	0	3	0	n/a	n/a	n/a	n/a	n/a
3816762	RECOG_RESP	n/a	LTP289	ltpFR	4	2	1	HOOP	716	0	n/a	0	n/a	n/a	n/a	n/a	n/a
3818007	RECOG_CONF	n/a	LTP289	ltpFR	4	2	1	HOOP	716	n/a	3	0	n/a	n/a	n/a	n/a	n/a
3820042	RECOG_TARGET	n/a	LTP289	ltpFR	4	2	1	STEP	1377	1	5	0	n/a	n/a	n/a	n/a	n/a
3820657	RECOG_RESP	n/a	LTP289	ltpFR	4	2	1	STEP	1377	1	n/a	0	n/a	n/a	n/a	n/a	n/a
3821907	RECOG_CONF	n/a	LTP289	ltpFR	4	2	1	STEP	1377	n/a	5	0	n/a	n/a	n/a	n/a	n/a
3824120	RECOG_LURE	n/a	LTP289	ltpFR	4	2	n/a	STICKER	1382	1	2	n/a	n/a	n/a	n/a	n/a	n/a
3825192	RECOG_RESP	n/a	LTP289	ltpFR	4	2	n/a	STICKER	1382	1	n/a	n/a	n/a	n/a	n/a	n/a	n/a
3826637	RECOG_CONF	n/a	LTP289	ltpFR	4	2	n/a	STICKER	1382	n/a	2	n/a	n/a	n/a	n/a	n/a	n/a
3828696	RECOG_TARGET	n/a	LTP289	ltpFR	4	2	0	HOSTESS	723	1	4	1	n/a	n/a	n/a	n/a	n/a
3829377	RECOG_RESP	n/a	LTP289	ltpFR	4	2	0	HOSTESS	723	1	n/a	1	n/a	n/a	n/a	n/a	n/a
3830577	RECOG_CONF	n/a	LTP289	ltpFR	4	2	0	HOSTESS	723	n/a	4	1	n/a	n/a	n/a	n/a	n/a
3832739	RECOG_TARGET	n/a	LTP289	ltpFR	4	2	0	MINK	897	1	4	0	n/a	n/a	n/a	n/a	n/a
3833282	RECOG_RESP	n/a	LTP289	ltpFR	4	2	0	MINK	897	1	n/a	0	n/a	n/a	n/a	n/a	n/a
3834917	RECOG_CONF	n/a	LTP289	ltpFR	4	2	0	MINK	897	n/a	4	0	n/a	n/a	n/a	n/a	n/a
3837201	RECOG_TARGET	n/a	LTP289	ltpFR	4	2	-1	SCENERY	1247	1	5	-1	n/a	n/a	n/a	n/a	n/a
3837807	RECOG_RESP	n/a	LTP289	ltpFR	4	2	-1	SCENERY	1247	1	n/a	-1	n/a	n/a	n/a	n/a	n/a
3838957	RECOG_CONF	n/a	LTP289	ltpFR	4	2	-1	SCENERY	1247	n/a	5	-1	n/a	n/a	n/a	n/a	n/a
3841077	RECOG_LURE	n/a	LTP289	ltpFR	4	2	n/a	WINDSHIELD	1612	0	5	n/a	n/a	n/a	n/a	n/a	n/a
3841862	RECOG_RESP	n/a	LTP289	ltpFR	4	2	n/a	WINDSHIELD	1612	0	n/a	n/a	n/a	n/a	n/a	n/a	n/a
3842997	RECOG_CONF	n/a	LTP289	ltpFR	4	2	n/a	WINDSHIELD	1612	n/a	5	n/a	n/a	n/a	n/a	n/a	n/a
3845088	RECOG_TARGET	n/a	LTP289	ltpFR	4	2	1	EAR	513	1	5	0	n/a	n/a	n/a	n/a	n/a
3845767	RECOG_RESP	n/a	LTP289	ltpFR	4	2	1	EAR	513	1	n/a	0	n/a	n/a	n/a	n/a	n/a
3847107	RECOG_CONF	n/a	LTP289	ltpFR	4	2	1	EAR	513	n/a	5	0	n/a	n/a	n/a	n/a	n/a
3849166	RECOG_TARGET	n/a	LTP289	ltpFR	4	2	1	TUTU	1524	1	4	0	n/a	n/a	n/a	n/a	n/a
3849847	RECOG_RESP	n/a	LTP289	ltpFR	4	2	1	TUTU	1524	1	n/a	0	n/a	n/a	n/a	n/a	n/a
3851247	RECOG_CONF	n/a	LTP289	ltpFR	4	2	1	TUTU	1524	n/a	4	0	n/a	n/a	n/a	n/a	n/a
3853376	RECOG_LURE	n/a	LTP289	ltpFR	4	2	n/a	ONION	977	0	4	n/a	n/a	n/a	n/a	n/a	n/a
3854142	RECOG_RESP	n/a	LTP289	ltpFR	4	2	n/a	ONION	977	0	n/a	n/a	n/a	n/a	n/a	n/a	n/a
3855447	RECOG_CONF	n/a	LTP289	ltpFR	4	2	n/a	ONION	977	n/a	4	n/a	n/a	n/a	n/a	n/a	n/a
3857486	RECOG_LURE	n/a	LTP289	ltpFR	4	2	n/a	JUPITER	765	0	3	n/a	n/a	n/a	n/a	n/a	n/a
3858212	RECOG_RESP	n/a	LTP289	ltpFR	4	2	n/a	JUPITER	765	0	n/a	n/a	n/a	n/a	n/a	n/a	n/a
3860147	RECOG_CONF	n/a	LTP289	ltpFR	4	2	n/a	JUPITER	765	n/a	3	n/a	n/a	n/a	n/a	n/a	n/a
3862147	RECOG_TARGET	n/a	LTP289	ltpFR	4	2	0	BUN	197	1	4	0	n/a	n/a	n/a	n/a	n/a
3862837	RECOG_RESP	n/a	LTP289	ltpFR	4	2	0	BUN	197	1	n/a	0	n/a	n/a	n/a	n/a	n/a
3864487	RECOG_CONF	n/a	LTP289	ltpFR	4	2	0	BUN	197	n/a	4	0	n/a	n/a	n/a	n/a	n/a
3866572	RECOG_TARGET	n/a	LTP289	ltpFR	4	2	0	TAIL	1430	1	5	0	n/a	n/a	n/a	n/a	n/a
3867157	RECOG_RESP	n/a	LTP289	ltpFR	4	2	0	TAIL	1430	1	n/a	0	n/a	n/a	n/a	n/a	n/a
3868417	RECOG_CONF	n/a	LTP289	ltpFR	4	2	0	TAIL	1430	n/a	5	0	n/a	n/a	n/a	n/a	n/a
3870533	RECOG_TARGET	n/a	LTP289	ltpFR	4	2	0	GLOBE	641	1	3	1	n/a	n/a	n/a	n/a	n/a
3871387	RECOG_RESP	n/a	LTP289	ltpFR	4	2	0	GLOBE	641	1	n/a	1	n/a	n/a	n/a	n/a	n/a
3872767	RECOG_CONF	n/a	LTP289	ltpFR	4	2	0	GLOBE	641	n/a	3	1	n/a	n/a	n/a	n/a	n/a
3874743	RECOG_TARGET	n/a	LTP289	ltpFR	4	2	0	CRAB	397	1	4	0	n/a	n/a	n/a	n/a	n/a
3875287	RECOG_RESP	n/a	LTP289	ltpFR	4	2	0	CRAB	397	1	n/a	0	n/a	n/a	n/a	n/a	n/a
3876727	RECOG_CONF	n/a	LTP289	ltpFR	4	2	0	CRAB	397	n/a	4	0	n/a	n/a	n/a	n/a	n/a
3878804	RECOG_TARGET	n/a	LTP289	ltpFR	4	2	1	PASSENGER	1020	1	4	1	n/a	n/a	n/a	n/a	n/a
3879537	RECOG_RESP	n/a	LTP289	ltpFR	4	2	1	PASSENGER	1020	1	n/a	1	n/a	n/a	n/a	n/a	n/a
3881857	RECOG_CONF	n/a	LTP289	ltpFR	4	2	1	PASSENGER	1020	n/a	4	1	n/a	n/a	n/a	n/a	n/a
3883946	RECOG_TARGET	n/a	LTP289	ltpFR	4	2	0	SPOOL	1356	0	1	0	n/a	n/a	n/a	n/a	n/a
3884542	RECOG_RESP	n/a	LTP289	ltpFR	4	2	0	SPOOL	1356	0	n/a	0	n/a	n/a	n/a	n/a	n/a
3886357	RECOG_CONF	n/a	LTP289	ltpFR	4	2	0	SPOOL	1356	n/a	1	0	n/a	n/a	n/a	n/a	n/a
3888274	RECOG_TARGET	n/a	LTP289	ltpFR	4	2	-1	VITAMIN	1574	1	3	-1	n/a	n/a	n/a	n/a	n/a
3888907	RECOG_RESP	n/a	LTP289	ltpFR	4	2	-1	VITAMIN	1574	1	n/a	-1	n/a	n/a	n/a	n/a	n/a
3890437	RECOG_CONF	n/a	LTP289	ltpFR	4	2	-1	VITAMIN	1574	n/a	3	-1	n/a	n/a	n/a	n/a	n/a
3895717	REC_START	n/a	LTP289	ltpFR	4	3	n/a	n/a	n/a	n/a	n/a	n/a	n/a	n/a	n/a	n/a	n/a
3895745	RECOG_TARGET	n/a	LTP289	ltpFR	4	3	0	LIZARD	834	1	3	0	n/a	n/a	n/a	n/a	n/a
3896512	RECOG_RESP	n/a	LTP289	ltpFR	4	3	0	LIZARD	834	1	n/a	0	n/a	n/a	n/a	n/a	n/a
3897817	RECOG_CONF	n/a	LTP289	ltpFR	4	3	0	LIZARD	834	n/a	3	0	n/a	n/a	n/a	n/a	n/a
3899789	RECOG_TARGET	n/a	LTP289	ltpFR	4	3	0	WRENCH	1625	1	4	0	n/a	n/a	n/a	n/a	n/a
3900577	RECOG_RESP	n/a	LTP289	ltpFR	4	3	0	WRENCH	1625	1	n/a	0	n/a	n/a	n/a	n/a	n/a
3902137	RECOG_CONF	n/a	LTP289	ltpFR	4	3	0	WRENCH	1625	n/a	4	0	n/a	n/a	n/a	n/a	n/a
3904250	RECOG_LURE	n/a	LTP289	ltpFR	4	3	n/a	NUN	962	0	5	n/a	n/a	n/a	n/a	n/a	n/a
3905242	RECOG_RESP	n/a	LTP289	ltpFR	4	3	n/a	NUN	962	0	n/a	n/a	n/a	n/a	n/a	n/a	n/a
3906487	RECOG_CONF	n/a	LTP289	ltpFR	4	3	n/a	NUN	962	n/a	5	n/a	n/a	n/a	n/a	n/a	n/a
3908709	RECOG_TARGET	n/a	LTP289	ltpFR	4	3	1	CATCHER	258	1	2	1	n/a	n/a	n/a	n/a	n/a
3909432	RECOG_RESP	n/a	LTP289	ltpFR	4	3	1	CATCHER	258	1	n/a	1	n/a	n/a	n/a	n/a	n/a
3910997	RECOG_CONF	n/a	LTP289	ltpFR	4	3	1	CATCHER	258	n/a	2	1	n/a	n/a	n/a	n/a	n/a
3912970	RECOG_TARGET	n/a	LTP289	ltpFR	4	3	-1	TURKEY	1520	1	5	-1	n/a	n/a	n/a	n/a	n/a
3913547	RECOG_RESP	n/a	LTP289	ltpFR	4	3	-1	TURKEY	1520	1	n/a	-1	n/a	n/a	n/a	n/a	n/a
3914827	RECOG_CONF	n/a	LTP289	ltpFR	4	3	-1	TURKEY	1520	n/a	5	-1	n/a	n/a	n/a	n/a	n/a
3917080	RECOG_LURE	n/a	LTP289	ltpFR	4	3	n/a	CAKE	219	0	1	n/a	n/a	n/a	n/a	n/a	n/a
3918242	RECOG_RESP	n/a	LTP289	ltpFR	4	3	n/a	CAKE	219	0	n/a	n/a	n/a	n/a	n/a	n/a	n/a
3919537	RECOG_CONF	n/a	LTP289	ltpFR	4	3	n/a	CAKE	219	n/a	1	n/a	n/a	n/a	n/a	n/a	n/a
3921375	RECOG_TARGET	n/a	LTP289	ltpFR	4	3	1	CANARY	227	1	3	0	n/a	n/a	n/a	n/a	n/a
3922047	RECOG_RESP	n/a	LTP289	ltpFR	4	3	1	CANARY	227	1	n/a	0	n/a	n/a	n/a	n/a	n/a
3923507	RECOG_CONF	n/a	LTP289	ltpFR	4	3	1	CANARY	227	n/a	3	0	n/a	n/a	n/a	n/a	n/a
3925584	RECOG_LURE	n/a	LTP289	ltpFR	4	3	n/a	JURY	766	1	2	n/a	n/a	n/a	n/a	n/a	n/a
3926637	RECOG_RESP	n/a	LTP289	ltpFR	4	3	n/a	JURY	766	1	n/a	n/a	n/a	n/a	n/a	n/a	n/a
3928137	RECOG_CONF	n/a	LTP289	ltpFR	4	3	n/a	JURY	766	n/a	2	n/a	n/a	n/a	n/a	n/a	n/a
3930145	RECOG_TARGET	n/a	LTP289	ltpFR	4	3	0	DAD	433	1	3	1	n/a	n/a	n/a	n/a	n/a
3930757	RECOG_RESP	n/a	LTP289	ltpFR	4	3	0	DAD	433	1	n/a	1	n/a	n/a	n/a	n/a	n/a
3932237	RECOG_CONF	n/a	LTP289	ltpFR	4	3	0	DAD	433	n/a	3	1	n/a	n/a	n/a	n/a	n/a
3934322	RECOG_TARGET	n/a	LTP289	ltpFR	4	3	0	CONCERT	360	1	1	3	n/a	n/a	n/a	n/a	n/a
3935242	RECOG_RESP	n/a	LTP289	ltpFR	4	3	0	CONCERT	360	1	n/a	3	n/a	n/a	n/a	n/a	n/a
3936617	RECOG_CONF	n/a	LTP289	ltpFR	4	3	0	CONCERT	360	n/a	1	3	n/a	n/a	n/a	n/a	n/a
3938498	RECOG_TARGET	n/a	LTP289	ltpFR	4	3	0	DUMP	505	1	2	1	n/a	n/a	n/a	n/a	n/a
3939847	RECOG_RESP	n/a	LTP289	ltpFR	4	3	0	DUMP	505	1	n/a	1	n/a	n/a	n/a	n/a	n/a
3941367	RECOG_CONF	n/a	LTP289	ltpFR	4	3	0	DUMP	505	n/a	2	1	n/a	n/a	n/a	n/a	n/a
3943425	RECOG_TARGET	n/a	LTP289	ltpFR	4	3	0	ROBE	1198	1	2	0	n/a	n/a	n/a	n/a	n/a
3944102	RECOG_RESP	n/a	LTP289	ltpFR	4	3	0	ROBE	1198	1	n/a	0	n/a	n/a	n/a	n/a	n/a
3945517	RECOG_CONF	n/a	LTP289	ltpFR	4	3	0	ROBE	1198	n/a	2	0	n/a	n/a	n/a	n/a	n/a
3947651	RECOG_TARGET	n/a	LTP289	ltpFR	4	3	0	STOOL	1386	1	4	1	n/a	n/a	n/a	n/a	n/a
3948362	RECOG_RESP	n/a	LTP289	ltpFR	4	3	0	STOOL	1386	1	n/a	1	n/a	n/a	n/a	n/a	n/a
3949777	RECOG_CONF	n/a	LTP289	ltpFR	4	3	0	STOOL	1386	n/a	4	1	n/a	n/a	n/a	n/a	n/a
3952195	RECOG_LURE	n/a	LTP289	ltpFR	4	3	n/a	CITRUS	313	0	5	n/a	n/a	n/a	n/a	n/a	n/a
3953077	RECOG_RESP	n/a	LTP289	ltpFR	4	3	n/a	CITRUS	313	0	n/a	n/a	n/a	n/a	n/a	n/a	n/a
3954577	RECOG_CONF	n/a	LTP289	ltpFR	4	3	n/a	CITRUS	313	n/a	5	n/a	n/a	n/a	n/a	n/a	n/a
3956771	RECOG_LURE	n/a	LTP289	ltpFR	4	3	n/a	PISTOL	1075	0	1	n/a	n/a	n/a	n/a	n/a	n/a
3958067	RECOG_RESP	n/a	LTP289	ltpFR	4	3	n/a	PISTOL	1075	0	n/a	n/a	n/a	n/a	n/a	n/a	n/a
3959467	RECOG_CONF	n/a	LTP289	ltpFR	4	3	n/a	PISTOL	1075	n/a	1	n/a	n/a	n/a	n/a	n/a	n/a
3961282	RECOG_TARGET	n/a	LTP289	ltpFR	4	3	-1	PAD	998	1	4	-1	n/a	n/a	n/a	n/a	n/a
3962177	RECOG_RESP	n/a	LTP289	ltpFR	4	3	-1	PAD	998	1	n/a	-1	n/a	n/a	n/a	n/a	n/a
3964417	RECOG_CONF	n/a	LTP289	ltpFR	4	3	-1	PAD	998	n/a	4	-1	n/a	n/a	n/a	n/a	n/a
3966374	RECOG_LURE	n/a	LTP289	ltpFR	4	3	n/a	BEAN	105	0	5	n/a	n/a	n/a	n/a	n/a	n/a
3966967	RECOG_RESP	n/a	LTP289	ltpFR	4	3	n/a	BEAN	105	0	n/a	n/a	n/a	n/a	n/a	n/a	n/a
3968297	RECOG_CONF	n/a	LTP289	ltpFR	4	3	n/a	BEAN	105	n/a	5	n/a	n/a	n/a	n/a	n/a	n/a
3970368	RECOG_TARGET	n/a	LTP289	ltpFR	4	3	-1	SADDLE	1221	1	5	-1	n/a	n/a	n/a	n/a	n/a
3971002	RECOG_RESP	n/a	LTP289	ltpFR	4	3	-1	SADDLE	1221	1	n/a	-1	n/a	n/a	n/a	n/a	n/a
3972187	RECOG_CONF	n/a	LTP289	ltpFR	4	3	-1	SADDLE	1221	n/a	5	-1	n/a	n/a	n/a	n/a	n/a
3974279	RECOG_LURE	n/a	LTP289	ltpFR	4	3	n/a	PROTON	1132	0	5	n/a	n/a	n/a	n/a	n/a	n/a
3975077	RECOG_RESP	n/a	LTP289	ltpFR	4	3	n/a	PROTON	1132	0	n/a	n/a	n/a	n/a	n/a	n/a	n/a
3976331	RECOG_CONF	n/a	LTP289	ltpFR	4	3	n/a	PROTON	1132	n/a	5	n/a	n/a	n/a	n/a	n/a	n/a
3978572	RECOG_LURE	n/a	LTP289	ltpFR	4	3	n/a	ABDOMEN	1	0	3	n/a	n/a	n/a	n/a	n/a	n/a
3979647	RECOG_RESP	n/a	LTP289	ltpFR	4	3	n/a	ABDOMEN	1	0	n/a	n/a	n/a	n/a	n/a	n/a	n/a
3981117	RECOG_CONF	n/a	LTP289	ltpFR	4	3	n/a	ABDOMEN	1	n/a	3	n/a	n/a	n/a	n/a	n/a	n/a
3991045	REC_START	n/a	LTP289	ltpFR	4	4	n/a	n/a	n/a	n/a	n/a	n/a	n/a	n/a	n/a	n/a	n/a
3991070	RECOG_TARGET	n/a	LTP289	ltpFR	4	4	0	SAND	1230	1	3	1	n/a	n/a	n/a	n/a	n/a
3992010	RECOG_RESP	n/a	LTP289	ltpFR	4	4	0	SAND	1230	1	n/a	1	n/a	n/a	n/a	n/a	n/a
3993325	RECOG_CONF	n/a	LTP289	ltpFR	4	4	0	SAND	1230	n/a	3	1	n/a	n/a	n/a	n/a	n/a
3995080	RECOG_LURE	n/a	LTP289	ltpFR	4	4	n/a	SOFTBALL	1343	0	5	n/a	n/a	n/a	n/a	n/a	n/a
3995740	RECOG_RESP	n/a	LTP289	ltpFR	4	4	n/a	SOFTBALL	1343	0	n/a	n/a	n/a	n/a	n/a	n/a	n/a
3996955	RECOG_CONF	n/a	LTP289	ltpFR	4	4	n/a	SOFTBALL	1343	n/a	5	n/a	n/a	n/a	n/a	n/a	n/a
3998841	RECOG_TARGET	n/a	LTP289	ltpFR	4	4	-1	ROOM	1206	1	2	-1	n/a	n/a	n/a	n/a	n/a
3999525	RECOG_RESP	n/a	LTP289	ltpFR	4	4	-1	ROOM	1206	1	n/a	-1	n/a	n/a	n/a	n/a	n/a
4001505	RECOG_CONF	n/a	LTP289	ltpFR	4	4	-1	ROOM	1206	n/a	2	-1	n/a	n/a	n/a	n/a	n/a
4003618	RECOG_LURE	n/a	LTP289	ltpFR	4	4	n/a	STABLE	1363	1	4	n/a	n/a	n/a	n/a	n/a	n/a
4004180	RECOG_RESP	n/a	LTP289	ltpFR	4	4	n/a	STABLE	1363	1	n/a	n/a	n/a	n/a	n/a	n/a	n/a
4005695	RECOG_CONF	n/a	LTP289	ltpFR	4	4	n/a	STABLE	1363	n/a	4	n/a	n/a	n/a	n/a	n/a	n/a
4007712	RECOG_TARGET	n/a	LTP289	ltpFR	4	4	-1	JOURNAL	760	1	1	-1	n/a	n/a	n/a	n/a	n/a
4008555	RECOG_RESP	n/a	LTP289	ltpFR	4	4	-1	JOURNAL	760	1	n/a	-1	n/a	n/a	n/a	n/a	n/a
4010725	RECOG_CONF	n/a	LTP289	ltpFR	4	4	-1	JOURNAL	760	n/a	1	-1	n/a	n/a	n/a	n/a	n/a
4012604	RECOG_LURE	n/a	LTP289	ltpFR	4	4	n/a	ELEPHANT	523	0	1	n/a	n/a	n/a	n/a	n/a	n/a
4013350	RECOG_RESP	n/a	LTP289	ltpFR	4	4	n/a	ELEPHANT	523	0	n/a	n/a	n/a	n/a	n/a	n/a	n/a
4015035	RECOG_CONF	n/a	LTP289	ltpFR	4	4	n/a	ELEPHANT	523	n/a	1	n/a	n/a	n/a	n/a	n/a	n/a
4016964	RECOG_TARGET	n/a	LTP289	ltpFR	4	4	1	MARGARINE	868	1	2	0	n/a	n/a	n/a	n/a	n/a
4017585	RECOG_RESP	n/a	LTP289	ltpFR	4	4	1	MARGARINE	868	1	n/a	0	n/a	n/a	n/a	n/a	n/a
4020275	RECOG_CONF	n/a	LTP289	ltpFR	4	4	1	MARGARINE	868	n/a	2	0	n/a	n/a	n/a	n/a	n/a
4022158	RECOG_TARGET	n/a	LTP289	ltpFR	4	4	1	PEOPLE	1046	1	5	1	n/a	n/a	n/a	n/a	n/a
4022910	RECOG_RESP	n/a	LTP289	ltpFR	4	4	1	PEOPLE	1046	1	n/a	1	n/a	n/a	n/a	n/a	n/a
4024195	RECOG_CONF	n/a	LTP289	ltpFR	4	4	1	PEOPLE	1046	n/a	5	1	n/a	n/a	n/a	n/a	n/a
4026152	RECOG_LURE	n/a	LTP289	ltpFR	4	4	n/a	FLAG	573	0	3	n/a	n/a	n/a	n/a	n/a	n/a
4027300	RECOG_RESP	n/a	LTP289	ltpFR	4	4	n/a	FLAG	573	0	n/a	n/a	n/a	n/a	n/a	n/a	n/a
4028675	RECOG_CONF	n/a	LTP289	ltpFR	4	4	n/a	FLAG	573	n/a	3	n/a	n/a	n/a	n/a	n/a	n/a
4030677	RECOG_LURE	n/a	LTP289	ltpFR	4	4	n/a	DESK	452	0	2	n/a	n/a	n/a	n/a	n/a	n/a
4031470	RECOG_RESP	n/a	LTP289	ltpFR	4	4	n/a	DESK	452	0	n/a	n/a	n/a	n/a	n/a	n/a	n/a
4032845	RECOG_CONF	n/a	LTP289	ltpFR	4	4	n/a	DESK	452	n/a	2	n/a	n/a	n/a	n/a	n/a	n/a
4034771	RECOG_LURE	n/a	LTP289	ltpFR	4	4	n/a	COTTON	385	0	4	n/a	n/a	n/a	n/a	n/a	n/a
4035440	RECOG_RESP	n/a	LTP289	ltpFR	4	4	n/a	COTTON	385	0	n/a	n/a	n/a	n/a	n/a	n/a	n/a
4036715	RECOG_CONF	n/a	LTP289	ltpFR	4	4	n/a	COTTON	385	n/a	4	n/a	n/a	n/a	n/a	n/a	n/a
4038898	RECOG_TARGET	n/a	LTP289	ltpFR	4	4	0	MATTRESS	879	1	2	1	n/a	n/a	n/a	n/a	n/a
4040110	RECOG_RESP	n/a	LTP289	ltpFR	4	4	0	MATTRESS	879	1	n/a	1	n/a	n/a	n/a	n/a	n/a
4041355	RECOG_CONF	n/a	LTP289	ltpFR	4	4	0	MATTRESS	879	n/a	2	1	n/a	n/a	n/a	n/a	n/a
4043393	RECOG_TARGET	n/a	LTP289	ltpFR	4	4	-1	COOKIE	374	1	3	-1	n/a	n/a	n/a	n/a	n/a
4044295	RECOG_RESP	n/a	LTP289	ltpFR	4	4	-1	COOKIE	374	1	n/a	-1	n/a	n/a	n/a	n/a	n/a
4045895	RECOG_CONF	n/a	LTP289	ltpFR	4	4	-1	COOKIE	374	n/a	3	-1	n/a	n/a	n/a	n/a	n/a
4047885	RECOG_TARGET	n/a	LTP289	ltpFR	4	4	-1	BLACKBERRY	132	1	4	-1	n/a	n/a	n/a	n/a	n/a
4048475	RECOG_RESP	n/a	LTP289	ltpFR	4	4	-1	BLACKBERRY	132	1	n/a	-1	n/a	n/a	n/a	n/a	n/a
4049995	RECOG_CONF	n/a	LTP289	ltpFR	4	4	-1	BLACKBERRY	132	n/a	4	-1	n/a	n/a	n/a	n/a	n/a
4051979	RECOG_LURE	n/a	LTP289	ltpFR	4	4	n/a	BARN	89	0	2	n/a	n/a	n/a	n/a	n/a	n/a
4053145	RECOG_RESP	n/a	LTP289	ltpFR	4	4	n/a	BARN	89	0	n/a	n/a	n/a	n/a	n/a	n/a	n/a
4055125	RECOG_CONF	n/a	LTP289	ltpFR	4	4	n/a	BARN	89	n/a	2	n/a	n/a	n/a	n/a	n/a	n/a
4057155	RECOG_TARGET	n/a	LTP289	ltpFR	4	4	1	MOSS	918	1	3	1	n/a	n/a	n/a	n/a	n/a
4057815	RECOG_RESP	n/a	LTP289	ltpFR	4	4	1	MOSS	918	1	n/a	1	n/a	n/a	n/a	n/a	n/a
4059205	RECOG_CONF	n/a	LTP289	ltpFR	4	4	1	MOSS	918	n/a	3	1	n/a	n/a	n/a	n/a	n/a
4061382	RECOG_TARGET	n/a	LTP289	ltpFR	4	4	1	TOAST	1471	1	1	0	n/a	n/a	n/a	n/a	n/a
4062550	RECOG_RESP	n/a	LTP289	ltpFR	4	4	1	TOAST	1471	1	n/a	0	n/a	n/a	n/a	n/a	n/a
4064025	RECOG_CONF	n/a	LTP289	ltpFR	4	4	1	TOAST	1471	n/a	1	0	n/a	n/a	n/a	n/a	n/a
4066109	RECOG_TARGET	n/a	LTP289	ltpFR	4	4	0	OINTMENT	974	1	5	0	n/a	n/a	n/a	n/a	n/a
4066750	RECOG_RESP	n/a	LTP289	ltpFR	4	4	0	OINTMENT	974	1	n/a	0	n/a	n/a	n/a	n/a	n/a
4067985	RECOG_CONF	n/a	LTP289	ltpFR	4	4	0	OINTMENT	974	n/a	5	0	n/a	n/a	n/a	n/a	n/a
4070068	RECOG_TARGET	n/a	LTP289	ltpFR	4	4	-1	MEAT	883	1	1	-1	n/a	n/a	n/a	n/a	n/a
4071330	RECOG_RESP	n/a	LTP289	ltpFR	4	4	-1	MEAT	883	1	n/a	-1	n/a	n/a	n/a	n/a	n/a
4072908	RECOG_CONF	n/a	LTP289	ltpFR	4	4	-1	MEAT	883	n/a	1	-1	n/a	n/a	n/a	n/a	n/a
4074928	RECOG_TARGET	n/a	LTP289	ltpFR	4	4	0	FOREST	593	1	3	1	n/a	n/a	n/a	n/a	n/a
4075665	RECOG_RESP	n/a	LTP289	ltpFR	4	4	0	FOREST	593	1	n/a	1	n/a	n/a	n/a	n/a	n/a
4077015	RECOG_CONF	n/a	LTP289	ltpFR	4	4	0	FOREST	593	n/a	3	1	n/a	n/a	n/a	n/a	n/a
4095267	REC_START	n/a	LTP289	ltpFR	4	5	n/a	n/a	n/a	n/a	n/a	n/a	n/a	n/a	n/a	n/a	n/a
4095298	RECOG_TARGET	n/a	LTP289	ltpFR	4	5	1	PADDING	999	1	2	0	n/a	n/a	n/a	n/a	n/a
4096027	RECOG_RESP	n/a	LTP289	ltpFR	4	5	1	PADDING	999	1	n/a	0	n/a	n/a	n/a	n/a	n/a
4098287	RECOG_CONF	n/a	LTP289	ltpFR	4	5	1	PADDING	999	n/a	2	0	n/a	n/a	n/a	n/a	n/a
4100090	RECOG_LURE	n/a	LTP289	ltpFR	4	5	n/a	OFFICE	972	0	3	n/a	n/a	n/a	n/a	n/a	n/a
4100927	RECOG_RESP	n/a	LTP289	ltpFR	4	5	n/a	OFFICE	972	0	n/a	n/a	n/a	n/a	n/a	n/a	n/a
4102567	RECOG_CONF	n/a	LTP289	ltpFR	4	5	n/a	OFFICE	972	n/a	3	n/a	n/a	n/a	n/a	n/a	n/a
4104617	RECOG_TARGET	n/a	LTP289	ltpFR	4	5	1	RACKET	1155	1	4	0	n/a	n/a	n/a	n/a	n/a
4105232	RECOG_RESP	n/a	LTP289	ltpFR	4	5	1	RACKET	1155	1	n/a	0	n/a	n/a	n/a	n/a	n/a
4106697	RECOG_CONF	n/a	LTP289	ltpFR	4	5	1	RACKET	1155	n/a	4	0	n/a	n/a	n/a	n/a	n/a
4108744	RECOG_TARGET	n/a	LTP289	ltpFR	4	5	-1	DIAL	457	0	1	-1	n/a	n/a	n/a	n/a	n/a
4109472	RECOG_RESP	n/a	LTP289	ltpFR	4	5	-1	DIAL	457	0	n/a	-1	n/a	n/a	n/a	n/a	n/a
4110987	RECOG_CONF	n/a	LTP289	ltpFR	4	5	-1	DIAL	457	n/a	1	-1	n/a	n/a	n/a	n/a	n/a
4112904	RECOG_TARGET	n/a	LTP289	ltpFR	4	5	1	PIRATE	1074	1	5	1	n/a	n/a	n/a	n/a	n/a
4113442	RECOG_RESP	n/a	LTP289	ltpFR	4	5	1	PIRATE	1074	1	n/a	1	n/a	n/a	n/a	n/a	n/a
4114667	RECOG_CONF	n/a	LTP289	ltpFR	4	5	1	PIRATE	1074	n/a	5	1	n/a	n/a	n/a	n/a	n/a
4116799	RECOG_TARGET	n/a	LTP289	ltpFR	4	5	1	TICK	1463	1	4	0	n/a	n/a	n/a	n/a	n/a
4117387	RECOG_RESP	n/a	LTP289	ltpFR	4	5	1	TICK	1463	1	n/a	0	n/a	n/a	n/a	n/a	n/a
4118897	RECOG_CONF	n/a	LTP289	ltpFR	4	5	1	TICK	1463	n/a	4	0	n/a	n/a	n/a	n/a	n/a
4121177	RECOG_LURE	n/a	LTP289	ltpFR	4	5	n/a	CAPTAIN	239	0	3	n/a	n/a	n/a	n/a	n/a	n/a
4121907	RECOG_RESP	n/a	LTP289	ltpFR	4	5	n/a	CAPTAIN	239	0	n/a	n/a	n/a	n/a	n/a	n/a	n/a
4123467	RECOG_CONF	n/a	LTP289	ltpFR	4	5	n/a	CAPTAIN	239	n/a	3	n/a	n/a	n/a	n/a	n/a	n/a
4125569	RECOG_TARGET	n/a	LTP289	ltpFR	4	5	-1	COOKBOOK	373	1	5	-1	n/a	n/a	n/a	n/a	n/a
4126237	RECOG_RESP	n/a	LTP289	ltpFR	4	5	-1	COOKBOOK	373	1	n/a	-1	n/a	n/a	n/a	n/a	n/a
4127517	RECOG_CONF	n/a	LTP289	ltpFR	4	5	-1	COOKBOOK	373	n/a	5	-1	n/a	n/a	n/a	n/a	n/a
4129496	RECOG_TARGET	n/a	LTP289	ltpFR	4	5	-1	GOBLIN	645	1	4	-1	n/a	n/a	n/a	n/a	n/a
4130292	RECOG_RESP	n/a	LTP289	ltpFR	4	5	-1	GOBLIN	645	1	n/a	-1	n/a	n/a	n/a	n/a	n/a
4131607	RECOG_CONF	n/a	LTP289	ltpFR	4	5	-1	GOBLIN	645	n/a	4	-1	n/a	n/a	n/a	n/a	n/a
4133557	RECOG_LURE	n/a	LTP289	ltpFR	4	5	n/a	SHACK	1273	0	1	n/a	n/a	n/a	n/a	n/a	n/a
4134497	RECOG_RESP	n/a	LTP289	ltpFR	4	5	n/a	SHACK	1273	0	n/a	n/a	n/a	n/a	n/a	n/a	n/a
4135937	RECOG_CONF	n/a	LTP289	ltpFR	4	5	n/a	SHACK	1273	n/a	1	n/a	n/a	n/a	n/a	n/a	n/a
4137984	RECOG_LURE	n/a	LTP289	ltpFR	4	5	n/a	DOLLAR	482	0	4	n/a	n/a	n/a	n/a	n/a	n/a
4138727	RECOG_RESP	n/a	LTP289	ltpFR	4	5	n/a	DOLLAR	482	0	n/a	n/a	n/a	n/a	n/a	n/a	n/a
4140147	RECOG_CONF	n/a	LTP289	ltpFR	4	5	n/a	DOLLAR	482	n/a	4	n/a	n/a	n/a	n/a	n/a	n/a
4142228	RECOG_LURE	n/a	LTP289	ltpFR	4	5	n/a	APPLE	33	0	5	n/a	n/a	n/a	n/a	n/a	n/a
4142947	RECOG_RESP	n/a	LTP289	ltpFR	4	5	n/a	APPLE	33	0	n/a	n/a	n/a	n/a	n/a	n/a	n/a
4144527	RECOG_CONF	n/a	LTP289	ltpFR	4	5	n/a	APPLE	33	n/a	5	n/a	n/a	n/a	n/a	n/a	n/a
4146471	RECOG_TARGET	n/a	LTP289	ltpFR	4	5	-1	BISON	131	1	5	-1	n/a	n/a	n/a	n/a	n/a
4147117	RECOG_RESP	n/a	LTP289	ltpFR	4	5	-1	BISON	131	1	n/a	-1	n/a	n/a	n/a	n/a	n/a
4148747	RECOG_CONF	n/a	LTP289	ltpFR	4	5	-1	BISON	131	n/a	5	-1	n/a	n/a	n/a	n/a	n/a
4150981	RECOG_LURE	n/a	LTP289	ltpFR	4	5	n/a	BATH	98	0	2	n/a	n/a	n/a	n/a	n/a	n/a
4152002	RECOG_RESP	n/a	LTP289	ltpFR	4	5	n/a	BATH	98	0	n/a	n/a	n/a	n/a	n/a	n/a	n/a
4153457	RECOG_CONF	n/a	LTP289	ltpFR	4	5	n/a	BATH	98	n/a	2	n/a	n/a	n/a	n/a	n/a	n/a
4155591	RECOG_TARGET	n/a	LTP289	ltpFR	4	5	1	CROSS	413	1	4	0	n/a	n/a	n/a	n/a	n/a
4156212	RECOG_RESP	n/a	LTP289	ltpFR	4	5	1	CROSS	413	1	n/a	0	n/a	n/a	n/a	n/a	n/a
4157587	RECOG_CONF	n/a	LTP289	ltpFR	4	5	1	CROSS	413	n/a	4	0	n/a	n/a	n/a	n/a	n/a
4159801	RECOG_LURE	n/a	LTP289	ltpFR	4	5	n/a	CAB	209	1	1	n/a	n/a	n/a	n/a	n/a	n/a
4161007	RECOG_RESP	n/a	LTP289	ltpFR	4	5	n/a	CAB	209	1	n/a	n/a	n/a	n/a	n/a	n/a	n/a
4162557	RECOG_CONF	n/a	LTP289	ltpFR	4	5	n/a	CAB	209	n/a	1	n/a	n/a	n/a	n/a	n/a	n/a
4164627	RECOG_TARGET	n/a	LTP289	ltpFR	4	5	-1	SANDPAPER	1231	1	3	-1	n/a	n/a	n/a	n/a	n/a
4165302	RECOG_RESP	n/a	LTP289	ltpFR	4	5	-1	SANDPAPER	1231	1	n/a	-1	n/a	n/a	n/a	n/a	n/a
4166747	RECOG_CONF	n/a	LTP289	ltpFR	4	5	-1	SANDPAPER	1231	n/a	3	-1	n/a	n/a	n/a	n/a	n/a
4168788	RECOG_TARGET	n/a	LTP289	ltpFR	4	5	-1	DRESSER	496	1	4	-1	n/a	n/a	n/a	n/a	n/a
4169387	RECOG_RESP	n/a	LTP289	ltpFR	4	5	-1	DRESSER	496	1	n/a	-1	n/a	n/a	n/a	n/a	n/a
4170697	RECOG_CONF	n/a	LTP289	ltpFR	4	5	-1	DRESSER	496	n/a	4	-1	n/a	n/a	n/a	n/a	n/a
4172782	RECOG_TARGET	n/a	LTP289	ltpFR	4	5	1	MANSION	864	1	4	0	n/a	n/a	n/a	n/a	n/a
4173362	RECOG_RESP	n/a	LTP289	ltpFR	4	5	1	MANSION	864	1	n/a	0	n/a	n/a	n/a	n/a	n/a
4174687	RECOG_CONF	n/a	LTP289	ltpFR	4	5	1	MANSION	864	n/a	4	0	n/a	n/a	n/a	n/a	n/a
4176892	RECOG_TARGET	n/a	LTP289	ltpFR	4	5	1	LEADER	807	1	2	1	n/a	n/a	n/a	n/a	n/a
4177857	RECOG_RESP	n/a	LTP289	ltpFR	4	5	1	LEADER	807	1	n/a	1	n/a	n/a	n/a	n/a	n/a
4179447	RECOG_CONF	n/a	LTP289	ltpFR	4	5	1	LEADER	807	n/a	2	1	n/a	n/a	n/a	n/a	n/a
4189101	REC_START	n/a	LTP289	ltpFR	4	6	n/a	n/a	n/a	n/a	n/a	n/a	n/a	n/a	n/a	n/a	n/a
4189142	RECOG_TARGET	n/a	LTP289	ltpFR	4	6	0	CLIMBER	323	1	5	1	n/a	n/a	n/a	n/a	n/a
4189906	RECOG_RESP	n/a	LTP289	ltpFR	4	6	0	CLIMBER	323	1	n/a	1	n/a	n/a	n/a	n/a	n/a
4191521	RECOG_CONF	n/a	LTP289	ltpFR	4	6	0	CLIMBER	323	n/a	5	1	n/a	n/a	n/a	n/a	n/a
4193435	RECOG_TARGET	n/a	LTP289	ltpFR	4	6	0	BLUEJAY	141	0	1	1	n/a	n/a	n/a	n/a	n/a
4194361	RECOG_RESP	n/a	LTP289	ltpFR	4	6	0	BLUEJAY	141	0	n/a	1	n/a	n/a	n/a	n/a	n/a
4195671	RECOG_CONF	n/a	LTP289	ltpFR	4	6	0	BLUEJAY	141	n/a	1	1	n/a	n/a	n/a	n/a	n/a
4197495	RECOG_TARGET	n/a	LTP289	ltpFR	4	6	1	BANDIT	81	0	2	1	n/a	n/a	n/a	n/a	n/a
4198391	RECOG_RESP	n/a	LTP289	ltpFR	4	6	1	BANDIT	81	0	n/a	1	n/a	n/a	n/a	n/a	n/a
4199921	RECOG_CONF	n/a	LTP289	ltpFR	4	6	1	BANDIT	81	n/a	2	1	n/a	n/a	n/a	n/a	n/a
4201938	RECOG_TARGET	n/a	LTP289	ltpFR	4	6	0	RICE	1190	1	3	0	n/a	n/a	n/a	n/a	n/a
4203076	RECOG_RESP	n/a	LTP289	ltpFR	4	6	0	RICE	1190	1	n/a	0	n/a	n/a	n/a	n/a	n/a
4204491	RECOG_CONF	n/a	LTP289	ltpFR	4	6	0	RICE	1190	n/a	3	0	n/a	n/a	n/a	n/a	n/a
4206515	RECOG_TARGET	n/a	LTP289	ltpFR	4	6	-1	DOVE	491	1	4	-1	n/a	n/a	n/a	n/a	n/a
4207086	RECOG_RESP	n/a	LTP289	ltpFR	4	6	-1	DOVE	491	1	n/a	-1	n/a	n/a	n/a	n/a	n/a
4208961	RECOG_CONF	n/a	LTP289	ltpFR	4	6	-1	DOVE	491	n/a	4	-1	n/a	n/a	n/a	n/a	n/a
4211091	RECOG_TARGET	n/a	LTP289	ltpFR	4	6	1	TOILET	1475	1	3	0	n/a	n/a	n/a	n/a	n/a
4211971	RECOG_RESP	n/a	LTP289	ltpFR	4	6	1	TOILET	1475	1	n/a	0	n/a	n/a	n/a	n/a	n/a
4213581	RECOG_CONF	n/a	LTP289	ltpFR	4	6	1	TOILET	1475	n/a	3	0	n/a	n/a	n/a	n/a	n/a
4215651	RECOG_LURE	n/a	LTP289	ltpFR	4	6	n/a	BARK	87	1	2	n/a	n/a	n/a	n/a	n/a	n/a
4216511	RECOG_RESP	n/a	LTP289	ltpFR	4	6	n/a	BARK	87	1	n/a	n/a	n/a	n/a	n/a	n/a	n/a
4217891	RECOG_CONF	n/a	LTP289	ltpFR	4	6	n/a	BARK	87	n/a	2	n/a	n/a	n/a	n/a	n/a	n/a
4220078	RECOG_TARGET	n/a	LTP289	ltpFR	4	6	0	LAMB	797	1	3	1	n/a	n/a	n/a	n/a	n/a
4220711	RECOG_RESP	n/a	LTP289	ltpFR	4	6	0	LAMB	797	1	n/a	1	n/a	n/a	n/a	n/a	n/a
4222431	RECOG_CONF	n/a	LTP289	ltpFR	4	6	0	LAMB	797	n/a	3	1	n/a	n/a	n/a	n/a	n/a
4224389	RECOG_LURE	n/a	LTP289	ltpFR	4	6	n/a	SCAPEGOAT	1244	0	5	n/a	n/a	n/a	n/a	n/a	n/a
4225371	RECOG_RESP	n/a	LTP289	ltpFR	4	6	n/a	SCAPEGOAT	1244	0	n/a	n/a	n/a	n/a	n/a	n/a	n/a
4226581	RECOG_CONF	n/a	LTP289	ltpFR	4	6	n/a	SCAPEGOAT	1244	n/a	5	n/a	n/a	n/a	n/a	n/a	n/a
4228582	RECOG_TARGET	n/a	LTP289	ltpFR	4	6	0	APPENDAGE	32	1	4	0	n/a	n/a	n/a	n/a	n/a
4229301	RECOG_RESP	n/a	LTP289	ltpFR	4	6	0	APPENDAGE	32	1	n/a	0	n/a	n/a	n/a	n/a	n/a
4230651	RECOG_CONF	n/a	LTP289	ltpFR	4	6	0	APPENDAGE	32	n/a	4	0	n/a	n/a	n/a	n/a	n/a
4232742	RECOG_TARGET	n/a	LTP289	ltpFR	4	6	1	CUFF	423	1	4	0	n/a	n/a	n/a	n/a	n/a
4233896	RECOG_RESP	n/a	LTP289	ltpFR	4	6	1	CUFF	423	1	n/a	0	n/a	n/a	n/a	n/a	n/a
4235261	RECOG_CONF	n/a	LTP289	ltpFR	4	6	1	CUFF	423	n/a	4	0	n/a	n/a	n/a	n/a	n/a
4237153	RECOG_TARGET	n/a	LTP289	ltpFR	4	6	0	BONE	148	1	5	0	n/a	n/a	n/a	n/a	n/a
4237821	RECOG_RESP	n/a	LTP289	ltpFR	4	6	0	BONE	148	1	n/a	0	n/a	n/a	n/a	n/a	n/a
4239141	RECOG_CONF	n/a	LTP289	ltpFR	4	6	0	BONE	148	n/a	5	0	n/a	n/a	n/a	n/a	n/a
4241314	RECOG_LURE	n/a	LTP289	ltpFR	4	6	n/a	WAVE	1596	0	1	n/a	n/a	n/a	n/a	n/a	n/a
4242201	RECOG_RESP	n/a	LTP289	ltpFR	4	6	n/a	WAVE	1596	0	n/a	n/a	n/a	n/a	n/a	n/a	n/a
4243601	RECOG_CONF	n/a	LTP289	ltpFR	4	6	n/a	WAVE	1596	n/a	1	n/a	n/a	n/a	n/a	n/a	n/a
4245673	RECOG_TARGET	n/a	LTP289	ltpFR	4	6	1	PEDESTRIAN	1038	1	2	1	n/a	n/a	n/a	n/a	n/a
4246611	RECOG_RESP	n/a	LTP289	ltpFR	4	6	1	PEDESTRIAN	1038	1	n/a	1	n/a	n/a	n/a	n/a	n/a
4248161	RECOG_CONF	n/a	LTP289	ltpFR	4	6	1	PEDESTRIAN	1038	n/a	2	1	n/a	n/a	n/a	n/a	n/a
4250300	RECOG_TARGET	n/a	LTP289	ltpFR	4	6	-1	THERMOMETER	1453	1	4	-1	n/a	n/a	n/a	n/a	n/a
4251171	RECOG_RESP	n/a	LTP289	ltpFR	4	6	-1	THERMOMETER	1453	1	n/a	-1	n/a	n/a	n/a	n/a	n/a
4252501	RECOG_CONF	n/a	LTP289	ltpFR	4	6	-1	THERMOMETER	1453	n/a	4	-1	n/a	n/a	n/a	n/a	n/a
4254461	RECOG_TARGET	n/a	LTP289	ltpFR	4	6	0	ATMOSPHERE	54	1	5	1	n/a	n/a	n/a	n/a	n/a
4255061	RECOG_RESP	n/a	LTP289	ltpFR	4	6	0	ATMOSPHERE	54	1	n/a	1	n/a	n/a	n/a	n/a	n/a
4256341	RECOG_CONF	n/a	LTP289	ltpFR	4	6	0	ATMOSPHERE	54	n/a	5	1	n/a	n/a	n/a	n/a	n/a
4258422	RECOG_TARGET	n/a	LTP289	ltpFR	4	6	0	SQUIRREL	1362	1	3	1	n/a	n/a	n/a	n/a	n/a
4259081	RECOG_RESP	n/a	LTP289	ltpFR	4	6	0	SQUIRREL	1362	1	n/a	1	n/a	n/a	n/a	n/a	n/a
4260681	RECOG_CONF	n/a	LTP289	ltpFR	4	6	0	SQUIRREL	1362	n/a	3	1	n/a	n/a	n/a	n/a	n/a
4262764	RECOG_LURE	n/a	LTP289	ltpFR	4	6	n/a	GHOST	634	0	5	n/a	n/a	n/a	n/a	n/a	n/a
4263461	RECOG_RESP	n/a	LTP289	ltpFR	4	6	n/a	GHOST	634	0	n/a	n/a	n/a	n/a	n/a	n/a	n/a
4264731	RECOG_CONF	n/a	LTP289	ltpFR	4	6	n/a	GHOST	634	n/a	5	n/a	n/a	n/a	n/a	n/a	n/a
4266741	RECOG_TARGET	n/a	LTP289	ltpFR	4	6	1	ELM	527	1	4	1	n/a	n/a	n/a	n/a	n/a
4267391	RECOG_RESP	n/a	LTP289	ltpFR	4	6	1	ELM	527	1	n/a	1	n/a	n/a	n/a	n/a	n/a
