onset	duration	trial_type	sample	stim_file	subject	experiment	session	trial	task	item_name	item_num	recog_resp	recog_conf	resp	color_r	color_g	color_b	case	font
299.71	n/a	SESS_START	149855	n/a	LTP120	ltpFR	6	n/a	n/a	n/a	n/a	1	4	n/a	n/a	n/a	n/a	n/a	n/a
384.642	n/a	WORD	192321	wordpools/wasnorm_wordpool.txt	LTP120	ltpFR	6	1	1	CREW	406	0	n/a	1	0.422607421875	0.5869140625	0	lower	zerothre.ttf
388.664	n/a	WORD	194332	wordpools/wasnorm_wordpool.txt	LTP120	ltpFR	6	1	1	ATOM	55	n/a	n/a	0	0.422607421875	0.5869140625	0	lower	zerothre.ttf
392.842	n/a	WORD	196421	wordpools/wasnorm_wordpool.txt	LTP120	ltpFR	6	1	1	BUTTON	207	n/a	n/a	0	0.422607421875	0.5869140625	0	lower	zerothre.ttf
396.828	n/a	WORD	198414	wordpools/wasnorm_wordpool.txt	LTP120	ltpFR	6	1	0	JEANS	752	n/a	n/a	0	0.57763671875	0.412841796875	1	upper	amplitud.ttf
400.924	n/a	WORD	200462	wordpools/wasnorm_wordpool.txt	LTP120	ltpFR	6	1	0	PREACHER	1119	n/a	n/a	1	0.57763671875	0.412841796875	1	upper	amplitud.ttf
404.744	n/a	WORD	202372	wordpools/wasnorm_wordpool.txt	LTP120	ltpFR	6	1	0	CHOCOLATE	306	n/a	n/a	0	0.57763671875	0.412841796875	1	upper	amplitud.ttf
408.732	n/a	WORD	204366	wordpools/wasnorm_wordpool.txt	LTP120	ltpFR	6	1	1	WAITRESS	1581	n/a	n/a	1	0.422607421875	0.5869140625	0	lower	zerothre.ttf
412.836	n/a	WORD	206418	wordpools/wasnorm_wordpool.txt	LTP120	ltpFR	6	1	1	FLASHLIGHT	575	n/a	n/a	0	0.422607421875	0.5869140625	0	lower	zerothre.ttf
416.932	n/a	WORD	208466	wordpools/wasnorm_wordpool.txt	LTP120	ltpFR	6	1	0	BADGE	68	n/a	n/a	0	0.57763671875	0.412841796875	1	upper	amplitud.ttf
421.026	n/a	WORD	210513	wordpools/wasnorm_wordpool.txt	LTP120	ltpFR	6	1	0	HANDCUFFS	685	n/a	n/a	0	0.57763671875	0.412841796875	1	upper	amplitud.ttf
424.998	n/a	WORD	212499	wordpools/wasnorm_wordpool.txt	LTP120	ltpFR	6	1	0	FLOUR	583	n/a	n/a	0	0.57763671875	0.412841796875	1	upper	amplitud.ttf
429.166	n/a	WORD	214583	wordpools/wasnorm_wordpool.txt	LTP120	ltpFR	6	1	0	BUTTER	205	n/a	n/a	0	0.57763671875	0.412841796875	1	upper	amplitud.ttf
432.98	n/a	WORD	216490	wordpools/wasnorm_wordpool.txt	LTP120	ltpFR	6	1	0	BIOLOGIST	128	n/a	n/a	1	0.57763671875	0.412841796875	1	upper	amplitud.ttf
436.832	n/a	WORD	218416	wordpools/wasnorm_wordpool.txt	LTP120	ltpFR	6	1	1	CAPTAIN	239	n/a	n/a	1	0.422607421875	0.5869140625	0	lower	zerothre.ttf
440.712	n/a	WORD	220356	wordpools/wasnorm_wordpool.txt	LTP120	ltpFR	6	1	1	MUMMY	932	n/a	n/a	1	0.422607421875	0.5869140625	0	lower	zerothre.ttf
444.714	n/a	WORD	222357	wordpools/wasnorm_wordpool.txt	LTP120	ltpFR	6	1	1	MATCH	878	n/a	n/a	0	0.422607421875	0.5869140625	0	lower	zerothre.ttf
450.376	n/a	REC_START	225188	n/a	LTP120	ltpFR	6	1	n/a	n/a	n/a	n/a	n/a	n/a	n/a	n/a	n/a	n/a	n/a
451.902	n/a	REC_WORD	225951	wordpools/wasnorm_wordpool.txt	LTP120	ltpFR	6	1	1	MUMMY	932	n/a	n/a	1	n/a	n/a	n/a	n/a	n/a
453.09	n/a	REC_WORD	226545	wordpools/wasnorm_wordpool.txt	LTP120	ltpFR	6	1	1	MATCH	878	n/a	n/a	0	n/a	n/a	n/a	n/a	n/a
454.432	n/a	REC_WORD	227216	wordpools/wasnorm_wordpool.txt	LTP120	ltpFR	6	1	1	CREW	406	n/a	n/a	1	n/a	n/a	n/a	n/a	n/a
455.878	n/a	REC_WORD	227939	wordpools/wasnorm_wordpool.txt	LTP120	ltpFR	6	1	1	CAPTAIN	239	n/a	n/a	1	n/a	n/a	n/a	n/a	n/a
457.48	n/a	REC_WORD	228740	wordpools/wasnorm_wordpool.txt	LTP120	ltpFR	6	1	1	WAITRESS	1581	n/a	n/a	1	n/a	n/a	n/a	n/a	n/a
459.136	n/a	REC_WORD	229568	wordpools/wasnorm_wordpool.txt	LTP120	ltpFR	6	1	0	JEANS	752	n/a	n/a	0	n/a	n/a	n/a	n/a	n/a
460.748	n/a	REC_WORD	230374	wordpools/wasnorm_wordpool.txt	LTP120	ltpFR	6	1	0	BIOLOGIST	128	n/a	n/a	1	n/a	n/a	n/a	n/a	n/a
462.478	n/a	REC_WORD	231239	wordpools/wasnorm_wordpool.txt	LTP120	ltpFR	6	1	0	PREACHER	1119	n/a	n/a	1	n/a	n/a	n/a	n/a	n/a
464.424	n/a	REC_WORD	232212	wordpools/wasnorm_wordpool.txt	LTP120	ltpFR	6	1	0	BUTTER	205	n/a	n/a	0	n/a	n/a	n/a	n/a	n/a
465.656	n/a	REC_WORD	232828	wordpools/wasnorm_wordpool.txt	LTP120	ltpFR	6	1	0	FLOUR	583	n/a	n/a	0	n/a	n/a	n/a	n/a	n/a
475.016	n/a	REC_WORD	237508	wordpools/wasnorm_wordpool.txt	LTP120	ltpFR	6	1	1	ATOM	55	n/a	n/a	0	n/a	n/a	n/a	n/a	n/a
476.422	n/a	REC_WORD	238211	wordpools/wasnorm_wordpool.txt	LTP120	ltpFR	6	1	1	BUTTON	207	n/a	n/a	0	n/a	n/a	n/a	n/a	n/a
500.118	n/a	REC_WORD	250059	wordpools/wasnorm_wordpool.txt	LTP120	ltpFR	6	1	0	CHOCOLATE	306	n/a	n/a	0	n/a	n/a	n/a	n/a	n/a
538.882	n/a	WORD	269441	wordpools/wasnorm_wordpool.txt	LTP120	ltpFR	6	2	0	TREE	1502	n/a	n/a	1	0.57763671875	0.412841796875	1	upper	amplitud.ttf
543.036	n/a	WORD	271518	wordpools/wasnorm_wordpool.txt	LTP120	ltpFR	6	2	0	EWE	542	n/a	n/a	1	0.57763671875	0.412841796875	1	upper	amplitud.ttf
547.108	n/a	WORD	273554	wordpools/wasnorm_wordpool.txt	LTP120	ltpFR	6	2	0	SEAGULL	1261	n/a	n/a	0	0.57763671875	0.412841796875	1	upper	amplitud.ttf
551.078	n/a	WORD	275539	wordpools/wasnorm_wordpool.txt	LTP120	ltpFR	6	2	0	RUM	1217	n/a	n/a	0	0.57763671875	0.412841796875	1	upper	amplitud.ttf
555.196	n/a	WORD	277598	wordpools/wasnorm_wordpool.txt	LTP120	ltpFR	6	2	1	CHAMPAGNE	278	n/a	n/a	0	0.422607421875	0.5869140625	0	lower	zerothre.ttf
559.25	n/a	WORD	279625	wordpools/wasnorm_wordpool.txt	LTP120	ltpFR	6	2	1	SERGEANT	1269	n/a	n/a	1	0.422607421875	0.5869140625	0	lower	zerothre.ttf
563.43	n/a	WORD	281715	wordpools/wasnorm_wordpool.txt	LTP120	ltpFR	6	2	1	COWARD	394	n/a	n/a	1	0.422607421875	0.5869140625	0	lower	zerothre.ttf
567.432	n/a	WORD	283716	wordpools/wasnorm_wordpool.txt	LTP120	ltpFR	6	2	1	VINEGAR	1569	n/a	n/a	0	0.422607421875	0.5869140625	0	lower	zerothre.ttf
571.328	n/a	WORD	285664	wordpools/wasnorm_wordpool.txt	LTP120	ltpFR	6	2	0	PAGE	1001	n/a	n/a	0	0.57763671875	0.412841796875	1	upper	amplitud.ttf
575.142	n/a	WORD	287571	wordpools/wasnorm_wordpool.txt	LTP120	ltpFR	6	2	0	UNIFORM	1539	n/a	n/a	1	0.57763671875	0.412841796875	1	upper	amplitud.ttf
579.07	n/a	WORD	289535	wordpools/wasnorm_wordpool.txt	LTP120	ltpFR	6	2	0	BACKBONE	66	n/a	n/a	1	0.57763671875	0.412841796875	1	upper	amplitud.ttf
583.048	n/a	WORD	291524	wordpools/wasnorm_wordpool.txt	LTP120	ltpFR	6	2	0	BODY	145	n/a	n/a	1	0.57763671875	0.412841796875	1	upper	amplitud.ttf
586.994	n/a	WORD	293497	wordpools/wasnorm_wordpool.txt	LTP120	ltpFR	6	2	1	BANDANNA	80	n/a	n/a	0	0.422607421875	0.5869140625	0	lower	zerothre.ttf
590.814	n/a	WORD	295407	wordpools/wasnorm_wordpool.txt	LTP120	ltpFR	6	2	1	SNACK	1331	n/a	n/a	0	0.422607421875	0.5869140625	0	lower	zerothre.ttf
594.784	n/a	WORD	297392	wordpools/wasnorm_wordpool.txt	LTP120	ltpFR	6	2	1	CUPBOARD	425	n/a	n/a	0	0.422607421875	0.5869140625	0	lower	zerothre.ttf
598.606	n/a	WORD	299303	wordpools/wasnorm_wordpool.txt	LTP120	ltpFR	6	2	1	PUBLISHER	1137	n/a	n/a	1	0.422607421875	0.5869140625	0	lower	zerothre.ttf
604.35	n/a	REC_START	302175	n/a	LTP120	ltpFR	6	2	n/a	n/a	n/a	n/a	n/a	n/a	n/a	n/a	n/a	n/a	n/a
605.782	n/a	REC_WORD	302891	wordpools/wasnorm_wordpool.txt	LTP120	ltpFR	6	2	1	PUBLISHER	1137	n/a	n/a	1	n/a	n/a	n/a	n/a	n/a
606.834	n/a	REC_WORD	303417	wordpools/wasnorm_wordpool.txt	LTP120	ltpFR	6	2	1	SNACK	1331	n/a	n/a	0	n/a	n/a	n/a	n/a	n/a
608.096	n/a	REC_WORD	304048	wordpools/wasnorm_wordpool.txt	LTP120	ltpFR	6	2	1	BANDANNA	80	n/a	n/a	0	n/a	n/a	n/a	n/a	n/a
611.64	n/a	REC_WORD_VV	305820	wordpools/wasnorm_wordpool.txt	LTP120	ltpFR	6	2	n/a	<>	-1	n/a	n/a	n/a	n/a	n/a	n/a	n/a	n/a
612.64	n/a	REC_WORD_VV	306320	wordpools/wasnorm_wordpool.txt	LTP120	ltpFR	6	2	n/a	<>	-1	n/a	n/a	n/a	n/a	n/a	n/a	n/a	n/a
613.64	n/a	REC_WORD_VV	306820	wordpools/wasnorm_wordpool.txt	LTP120	ltpFR	6	2	n/a	<>	-1	n/a	n/a	n/a	n/a	n/a	n/a	n/a	n/a
614.64	n/a	REC_WORD_VV	307320	wordpools/wasnorm_wordpool.txt	LTP120	ltpFR	6	2	n/a	<>	-1	n/a	n/a	n/a	n/a	n/a	n/a	n/a	n/a
623.286	n/a	REC_WORD	311643	wordpools/wasnorm_wordpool.txt	LTP120	ltpFR	6	2	0	SEAGULL	1261	n/a	n/a	0	n/a	n/a	n/a	n/a	n/a
628.066	n/a	REC_WORD	314033	wordpools/wasnorm_wordpool.txt	LTP120	ltpFR	6	2	0	BODY	145	n/a	n/a	1	n/a	n/a	n/a	n/a	n/a
629.478	n/a	REC_WORD	314739	wordpools/wasnorm_wordpool.txt	LTP120	ltpFR	6	2	0	BACKBONE	66	n/a	n/a	1	n/a	n/a	n/a	n/a	n/a
633.118	n/a	REC_WORD	316559	wordpools/wasnorm_wordpool.txt	LTP120	ltpFR	6	2	1	SERGEANT	1269	n/a	n/a	1	n/a	n/a	n/a	n/a	n/a
647.432	n/a	REC_WORD	323716	wordpools/wasnorm_wordpool.txt	LTP120	ltpFR	6	2	1	PUBLISHER	1137	n/a	n/a	1	n/a	n/a	n/a	n/a	n/a
651.358	n/a	REC_WORD_VV	325679	wordpools/wasnorm_wordpool.txt	LTP120	ltpFR	6	2	n/a	<>	-1	n/a	n/a	n/a	n/a	n/a	n/a	n/a	n/a
661.454	n/a	REC_WORD	330727	wordpools/wasnorm_wordpool.txt	LTP120	ltpFR	6	2	0	PAGE	1001	n/a	n/a	0	n/a	n/a	n/a	n/a	n/a
669.546	n/a	REC_WORD	334773	wordpools/wasnorm_wordpool.txt	LTP120	ltpFR	6	2	0	TREE	1502	n/a	n/a	1	n/a	n/a	n/a	n/a	n/a
709.412	n/a	WORD	354706	wordpools/wasnorm_wordpool.txt	LTP120	ltpFR	6	3	1	TUXEDO	1525	n/a	n/a	0	0.422607421875	0.5869140625	0	lower	zerothre.ttf
713.616	n/a	WORD	356808	wordpools/wasnorm_wordpool.txt	LTP120	ltpFR	6	3	1	HALL	677	n/a	n/a	0	0.422607421875	0.5869140625	0	lower	zerothre.ttf
717.81	n/a	WORD	358905	wordpools/wasnorm_wordpool.txt	LTP120	ltpFR	6	3	1	LOUNGE	845	n/a	n/a	0	0.422607421875	0.5869140625	0	lower	zerothre.ttf
721.672	n/a	WORD	360836	wordpools/wasnorm_wordpool.txt	LTP120	ltpFR	6	3	1	BARREL	91	n/a	n/a	0	0.422607421875	0.5869140625	0	lower	zerothre.ttf
725.75	n/a	WORD	362875	wordpools/wasnorm_wordpool.txt	LTP120	ltpFR	6	3	1	NEPTUNE	943	n/a	n/a	0	0.422607421875	0.5869140625	0	lower	zerothre.ttf
729.722	n/a	WORD	364861	wordpools/wasnorm_wordpool.txt	LTP120	ltpFR	6	3	1	MOB	904	n/a	n/a	1	0.422607421875	0.5869140625	0	lower	zerothre.ttf
733.85	n/a	WORD	366925	wordpools/wasnorm_wordpool.txt	LTP120	ltpFR	6	3	1	PEOPLE	1046	n/a	n/a	1	0.422607421875	0.5869140625	0	lower	zerothre.ttf
738.038	n/a	WORD	369019	wordpools/wasnorm_wordpool.txt	LTP120	ltpFR	6	3	1	ACTOR	5	n/a	n/a	1	0.422607421875	0.5869140625	0	lower	zerothre.ttf
742.108	n/a	WORD	371054	wordpools/wasnorm_wordpool.txt	LTP120	ltpFR	6	3	1	TRAIN	1494	n/a	n/a	0	0.422607421875	0.5869140625	0	lower	zerothre.ttf
745.954	n/a	WORD	372977	wordpools/wasnorm_wordpool.txt	LTP120	ltpFR	6	3	1	SAXOPHONE	1240	n/a	n/a	0	0.422607421875	0.5869140625	0	lower	zerothre.ttf
750.158	n/a	WORD	375079	wordpools/wasnorm_wordpool.txt	LTP120	ltpFR	6	3	1	ANT	25	n/a	n/a	1	0.422607421875	0.5869140625	0	lower	zerothre.ttf
754.162	n/a	WORD	377081	wordpools/wasnorm_wordpool.txt	LTP120	ltpFR	6	3	1	GRADUATE	653	n/a	n/a	1	0.422607421875	0.5869140625	0	lower	zerothre.ttf
757.99	n/a	WORD	378995	wordpools/wasnorm_wordpool.txt	LTP120	ltpFR	6	3	1	JUPITER	765	n/a	n/a	0	0.422607421875	0.5869140625	0	lower	zerothre.ttf
762.06	n/a	WORD	381030	wordpools/wasnorm_wordpool.txt	LTP120	ltpFR	6	3	1	GROUND	666	n/a	n/a	0	0.422607421875	0.5869140625	0	lower	zerothre.ttf
766.254	n/a	WORD	383127	wordpools/wasnorm_wordpool.txt	LTP120	ltpFR	6	3	1	SAND	1230	n/a	n/a	0	0.422607421875	0.5869140625	0	lower	zerothre.ttf
770.326	n/a	WORD	385163	wordpools/wasnorm_wordpool.txt	LTP120	ltpFR	6	3	1	DIRECTOR	471	n/a	n/a	1	0.422607421875	0.5869140625	0	lower	zerothre.ttf
776.028	n/a	REC_START	388014	n/a	LTP120	ltpFR	6	3	n/a	n/a	n/a	n/a	n/a	n/a	n/a	n/a	n/a	n/a	n/a
777.266	n/a	REC_WORD	388633	wordpools/wasnorm_wordpool.txt	LTP120	ltpFR	6	3	1	HALL	677	n/a	n/a	0	n/a	n/a	n/a	n/a	n/a
778.518	n/a	REC_WORD	389259	wordpools/wasnorm_wordpool.txt	LTP120	ltpFR	6	3	1	LOUNGE	845	n/a	n/a	0	n/a	n/a	n/a	n/a	n/a
780.238	n/a	REC_WORD	390119	wordpools/wasnorm_wordpool.txt	LTP120	ltpFR	6	3	1	PEOPLE	1046	n/a	n/a	1	n/a	n/a	n/a	n/a	n/a
781.396	n/a	REC_WORD	390698	wordpools/wasnorm_wordpool.txt	LTP120	ltpFR	6	3	1	TUXEDO	1525	n/a	n/a	0	n/a	n/a	n/a	n/a	n/a
783.266	n/a	REC_WORD	391633	wordpools/wasnorm_wordpool.txt	LTP120	ltpFR	6	3	1	DIRECTOR	471	n/a	n/a	1	n/a	n/a	n/a	n/a	n/a
786.21	n/a	REC_WORD	393105	wordpools/wasnorm_wordpool.txt	LTP120	ltpFR	6	3	1	GROUND	666	n/a	n/a	0	n/a	n/a	n/a	n/a	n/a
787.268	n/a	REC_WORD	393634	wordpools/wasnorm_wordpool.txt	LTP120	ltpFR	6	3	1	SAND	1230	n/a	n/a	0	n/a	n/a	n/a	n/a	n/a
788.73	n/a	REC_WORD	394365	wordpools/wasnorm_wordpool.txt	LTP120	ltpFR	6	3	1	NEPTUNE	943	n/a	n/a	0	n/a	n/a	n/a	n/a	n/a
790.256	n/a	REC_WORD	395128	wordpools/wasnorm_wordpool.txt	LTP120	ltpFR	6	3	1	JUPITER	765	n/a	n/a	0	n/a	n/a	n/a	n/a	n/a
797.0	n/a	REC_WORD	398500	wordpools/wasnorm_wordpool.txt	LTP120	ltpFR	6	3	1	MOB	904	n/a	n/a	1	n/a	n/a	n/a	n/a	n/a
888.28	n/a	WORD	444140	wordpools/wasnorm_wordpool.txt	LTP120	ltpFR	6	4	1	FURNITURE	616	n/a	n/a	0	0.422607421875	0.5869140625	0	lower	zerothre.ttf
892.252	n/a	WORD	446126	wordpools/wasnorm_wordpool.txt	LTP120	ltpFR	6	4	1	BRIDGE	174	n/a	n/a	0	0.422607421875	0.5869140625	0	lower	zerothre.ttf
896.28	n/a	WORD	448140	wordpools/wasnorm_wordpool.txt	LTP120	ltpFR	6	4	1	FROG	608	n/a	n/a	1	0.422607421875	0.5869140625	0	lower	zerothre.ttf
900.484	n/a	WORD	450242	wordpools/wasnorm_wordpool.txt	LTP120	ltpFR	6	4	1	BUTCHER	203	n/a	n/a	1	0.422607421875	0.5869140625	0	lower	zerothre.ttf
904.604	n/a	WORD	452302	wordpools/wasnorm_wordpool.txt	LTP120	ltpFR	6	4	1	RUG	1215	n/a	n/a	0	0.422607421875	0.5869140625	0	lower	zerothre.ttf
908.666	n/a	WORD	454333	wordpools/wasnorm_wordpool.txt	LTP120	ltpFR	6	4	1	NOTE	958	n/a	n/a	0	0.422607421875	0.5869140625	0	lower	zerothre.ttf
912.604	n/a	WORD	456302	wordpools/wasnorm_wordpool.txt	LTP120	ltpFR	6	4	1	POSTAGE	1113	n/a	n/a	0	0.422607421875	0.5869140625	0	lower	zerothre.ttf
916.466	n/a	WORD	458233	wordpools/wasnorm_wordpool.txt	LTP120	ltpFR	6	4	1	TICK	1463	n/a	n/a	1	0.422607421875	0.5869140625	0	lower	zerothre.ttf
920.294	n/a	WORD	460147	wordpools/wasnorm_wordpool.txt	LTP120	ltpFR	6	4	1	SCALLOP	1242	n/a	n/a	1	0.422607421875	0.5869140625	0	lower	zerothre.ttf
924.298	n/a	WORD	462149	wordpools/wasnorm_wordpool.txt	LTP120	ltpFR	6	4	1	LAGOON	795	n/a	n/a	0	0.422607421875	0.5869140625	0	lower	zerothre.ttf
928.244	n/a	WORD	464122	wordpools/wasnorm_wordpool.txt	LTP120	ltpFR	6	4	1	CARNIVAL	245	n/a	n/a	0	0.422607421875	0.5869140625	0	lower	zerothre.ttf
932.19	n/a	WORD	466095	wordpools/wasnorm_wordpool.txt	LTP120	ltpFR	6	4	1	HOSTESS	723	n/a	n/a	1	0.422607421875	0.5869140625	0	lower	zerothre.ttf
936.06	n/a	WORD	468030	wordpools/wasnorm_wordpool.txt	LTP120	ltpFR	6	4	1	HOUND	724	n/a	n/a	1	0.422607421875	0.5869140625	0	lower	zerothre.ttf
940.272	n/a	WORD	470136	wordpools/wasnorm_wordpool.txt	LTP120	ltpFR	6	4	1	CAT	257	n/a	n/a	1	0.422607421875	0.5869140625	0	lower	zerothre.ttf
944.134	n/a	WORD	472067	wordpools/wasnorm_wordpool.txt	LTP120	ltpFR	6	4	1	SHACK	1273	n/a	n/a	0	0.422607421875	0.5869140625	0	lower	zerothre.ttf
948.106	n/a	WORD	474053	wordpools/wasnorm_wordpool.txt	LTP120	ltpFR	6	4	1	SHEPHERD	1283	n/a	n/a	1	0.422607421875	0.5869140625	0	lower	zerothre.ttf
953.998	n/a	REC_START	476999	n/a	LTP120	ltpFR	6	4	n/a	n/a	n/a	n/a	n/a	n/a	n/a	n/a	n/a	n/a	n/a
955.454	n/a	REC_WORD	477727	wordpools/wasnorm_wordpool.txt	LTP120	ltpFR	6	4	1	HOUND	724	n/a	n/a	1	n/a	n/a	n/a	n/a	n/a
956.688	n/a	REC_WORD_VV	478344	wordpools/wasnorm_wordpool.txt	LTP120	ltpFR	6	4	n/a	<>	-1	n/a	n/a	n/a	n/a	n/a	n/a	n/a	n/a
957.67	n/a	REC_WORD	478835	wordpools/wasnorm_wordpool.txt	LTP120	ltpFR	6	4	1	CAT	257	n/a	n/a	1	n/a	n/a	n/a	n/a	n/a
959.012	n/a	REC_WORD	479506	wordpools/wasnorm_wordpool.txt	LTP120	ltpFR	6	4	1	FROG	608	n/a	n/a	1	n/a	n/a	n/a	n/a	n/a
960.524	n/a	REC_WORD	480262	wordpools/wasnorm_wordpool.txt	LTP120	ltpFR	6	4	1	SHEPHERD	1283	n/a	n/a	1	n/a	n/a	n/a	n/a	n/a
964.07	n/a	REC_WORD	482035	wordpools/wasnorm_wordpool.txt	LTP120	ltpFR	6	4	1	LAGOON	795	n/a	n/a	0	n/a	n/a	n/a	n/a	n/a
966.04	n/a	REC_WORD	483020	wordpools/wasnorm_wordpool.txt	LTP120	ltpFR	6	4	1	FURNITURE	616	n/a	n/a	0	n/a	n/a	n/a	n/a	n/a
967.886	n/a	REC_WORD	483943	wordpools/wasnorm_wordpool.txt	LTP120	ltpFR	6	4	1	RUG	1215	n/a	n/a	0	n/a	n/a	n/a	n/a	n/a
971.464	n/a	REC_WORD	485732	wordpools/wasnorm_wordpool.txt	LTP120	ltpFR	6	4	1	TICK	1463	n/a	n/a	1	n/a	n/a	n/a	n/a	n/a
1053.916	n/a	WORD	526958	wordpools/wasnorm_wordpool.txt	LTP120	ltpFR	6	5	0	BOY	161	n/a	n/a	0	0.57763671875	0.412841796875	1	upper	amplitud.ttf
1057.762	n/a	WORD	528881	wordpools/wasnorm_wordpool.txt	LTP120	ltpFR	6	5	0	POET	1095	n/a	n/a	1	0.57763671875	0.412841796875	1	upper	amplitud.ttf
1061.574	n/a	WORD	530787	wordpools/wasnorm_wordpool.txt	LTP120	ltpFR	6	5	0	LODGE	839	n/a	n/a	1	0.57763671875	0.412841796875	1	upper	amplitud.ttf
1065.778	n/a	WORD	532889	wordpools/wasnorm_wordpool.txt	LTP120	ltpFR	6	5	0	MOTEL	919	n/a	n/a	1	0.57763671875	0.412841796875	1	upper	amplitud.ttf
1069.616	n/a	WORD	534808	wordpools/wasnorm_wordpool.txt	LTP120	ltpFR	6	5	0	SILVERWARE	1308	n/a	n/a	0	0.57763671875	0.412841796875	1	upper	amplitud.ttf
1073.668	n/a	WORD	536834	wordpools/wasnorm_wordpool.txt	LTP120	ltpFR	6	5	0	DIPLOMA	470	n/a	n/a	0	0.57763671875	0.412841796875	1	upper	amplitud.ttf
1077.806	n/a	WORD	538903	wordpools/wasnorm_wordpool.txt	LTP120	ltpFR	6	5	0	SALAD	1224	n/a	n/a	0	0.57763671875	0.412841796875	1	upper	amplitud.ttf
1081.75	n/a	WORD	540875	wordpools/wasnorm_wordpool.txt	LTP120	ltpFR	6	5	0	CUCUMBER	421	n/a	n/a	0	0.57763671875	0.412841796875	1	upper	amplitud.ttf
1085.862	n/a	WORD	542931	wordpools/wasnorm_wordpool.txt	LTP120	ltpFR	6	5	0	GREASE	660	n/a	n/a	0	0.57763671875	0.412841796875	1	upper	amplitud.ttf
1089.9	n/a	WORD	544950	wordpools/wasnorm_wordpool.txt	LTP120	ltpFR	6	5	0	TOMATO	1476	n/a	n/a	0	0.57763671875	0.412841796875	1	upper	amplitud.ttf
1093.77	n/a	WORD	546885	wordpools/wasnorm_wordpool.txt	LTP120	ltpFR	6	5	0	LETTUCE	814	n/a	n/a	0	0.57763671875	0.412841796875	1	upper	amplitud.ttf
1097.666	n/a	WORD	548833	wordpools/wasnorm_wordpool.txt	LTP120	ltpFR	6	5	0	VILLAGE	1566	n/a	n/a	1	0.57763671875	0.412841796875	1	upper	amplitud.ttf
1101.486	n/a	WORD	550743	wordpools/wasnorm_wordpool.txt	LTP120	ltpFR	6	5	0	FAMILY	550	n/a	n/a	1	0.57763671875	0.412841796875	1	upper	amplitud.ttf
1105.69	n/a	WORD	552845	wordpools/wasnorm_wordpool.txt	LTP120	ltpFR	6	5	0	EDITOR	516	n/a	n/a	1	0.57763671875	0.412841796875	1	upper	amplitud.ttf
1109.56	n/a	WORD	554780	wordpools/wasnorm_wordpool.txt	LTP120	ltpFR	6	5	0	CHIPMUNK	304	n/a	n/a	0	0.57763671875	0.412841796875	1	upper	amplitud.ttf
1113.73	n/a	WORD	556865	wordpools/wasnorm_wordpool.txt	LTP120	ltpFR	6	5	0	WALRUS	1585	n/a	n/a	1	0.57763671875	0.412841796875	1	upper	amplitud.ttf
1119.716	n/a	REC_START	559858	n/a	LTP120	ltpFR	6	5	n/a	n/a	n/a	n/a	n/a	n/a	n/a	n/a	n/a	n/a	n/a
1120.724	n/a	REC_WORD	560362	wordpools/wasnorm_wordpool.txt	LTP120	ltpFR	6	5	0	WALRUS	1585	n/a	n/a	1	n/a	n/a	n/a	n/a	n/a
1122.43	n/a	REC_WORD	561215	wordpools/wasnorm_wordpool.txt	LTP120	ltpFR	6	5	0	LODGE	839	n/a	n/a	1	n/a	n/a	n/a	n/a	n/a
1123.93	n/a	REC_WORD	561965	wordpools/wasnorm_wordpool.txt	LTP120	ltpFR	6	5	n/a	HOTEL	-1	n/a	n/a	n/a	n/a	n/a	n/a	n/a	n/a
1125.662	n/a	REC_WORD	562831	wordpools/wasnorm_wordpool.txt	LTP120	ltpFR	6	5	0	FAMILY	550	n/a	n/a	1	n/a	n/a	n/a	n/a	n/a
1127.452	n/a	REC_WORD	563726	wordpools/wasnorm_wordpool.txt	LTP120	ltpFR	6	5	0	BOY	161	n/a	n/a	0	n/a	n/a	n/a	n/a	n/a
1128.98	n/a	REC_WORD	564490	wordpools/wasnorm_wordpool.txt	LTP120	ltpFR	6	5	0	POET	1095	n/a	n/a	1	n/a	n/a	n/a	n/a	n/a
1130.626	n/a	REC_WORD	565313	wordpools/wasnorm_wordpool.txt	LTP120	ltpFR	6	5	0	EDITOR	516	n/a	n/a	1	n/a	n/a	n/a	n/a	n/a
1140.364	n/a	REC_WORD	570182	wordpools/wasnorm_wordpool.txt	LTP120	ltpFR	6	5	0	CHIPMUNK	304	n/a	n/a	0	n/a	n/a	n/a	n/a	n/a
1164.574	n/a	REC_WORD	582287	wordpools/wasnorm_wordpool.txt	LTP120	ltpFR	6	5	0	GREASE	660	n/a	n/a	0	n/a	n/a	n/a	n/a	n/a
1175.964	n/a	REC_WORD	587982	wordpools/wasnorm_wordpool.txt	LTP120	ltpFR	6	5	0	DIPLOMA	470	n/a	n/a	0	n/a	n/a	n/a	n/a	n/a
1227.258	n/a	WORD	613629	wordpools/wasnorm_wordpool.txt	LTP120	ltpFR	6	6	-1	STAFF	1365	n/a	n/a	-1	1.0	1.0	1	upper	Verdana.ttf
1231.246	n/a	WORD	615623	wordpools/wasnorm_wordpool.txt	LTP120	ltpFR	6	6	-1	EAGLE	512	n/a	n/a	-1	1.0	1.0	1	upper	Verdana.ttf
1235.35	n/a	WORD	617675	wordpools/wasnorm_wordpool.txt	LTP120	ltpFR	6	6	-1	DAISY	435	n/a	n/a	-1	1.0	1.0	1	upper	Verdana.ttf
1239.536	n/a	WORD	619768	wordpools/wasnorm_wordpool.txt	LTP120	ltpFR	6	6	-1	GARDEN	623	n/a	n/a	-1	1.0	1.0	1	upper	Verdana.ttf
1243.432	n/a	WORD	621716	wordpools/wasnorm_wordpool.txt	LTP120	ltpFR	6	6	-1	PERCH	1048	n/a	n/a	-1	1.0	1.0	1	upper	Verdana.ttf
1247.586	n/a	WORD	623793	wordpools/wasnorm_wordpool.txt	LTP120	ltpFR	6	6	-1	PEDESTRIAN	1038	n/a	n/a	-1	1.0	1.0	1	upper	Verdana.ttf
1251.798	n/a	WORD	625899	wordpools/wasnorm_wordpool.txt	LTP120	ltpFR	6	6	-1	DRIVER	499	n/a	n/a	-1	1.0	1.0	1	upper	Verdana.ttf
1255.9	n/a	WORD	627950	wordpools/wasnorm_wordpool.txt	LTP120	ltpFR	6	6	-1	PIGEON	1065	n/a	n/a	-1	1.0	1.0	1	upper	Verdana.ttf
1259.762	n/a	WORD	629881	wordpools/wasnorm_wordpool.txt	LTP120	ltpFR	6	6	-1	BUILDING	191	n/a	n/a	-1	1.0	1.0	1	upper	Verdana.ttf
1263.6	n/a	WORD	631800	wordpools/wasnorm_wordpool.txt	LTP120	ltpFR	6	6	-1	SIDING	1304	n/a	n/a	-1	1.0	1.0	1	upper	Verdana.ttf
1267.796	n/a	WORD	633898	wordpools/wasnorm_wordpool.txt	LTP120	ltpFR	6	6	-1	SWEATER	1419	n/a	n/a	-1	1.0	1.0	1	upper	Verdana.ttf
1271.79	n/a	WORD	635895	wordpools/wasnorm_wordpool.txt	LTP120	ltpFR	6	6	-1	COAT	333	n/a	n/a	-1	1.0	1.0	1	upper	Verdana.ttf
1275.662	n/a	WORD	637831	wordpools/wasnorm_wordpool.txt	LTP120	ltpFR	6	6	-1	LIME	823	n/a	n/a	-1	1.0	1.0	1	upper	Verdana.ttf
1279.756	n/a	WORD	639878	wordpools/wasnorm_wordpool.txt	LTP120	ltpFR	6	6	-1	GAUZE	626	n/a	n/a	-1	1.0	1.0	1	upper	Verdana.ttf
1283.644	n/a	WORD	641822	wordpools/wasnorm_wordpool.txt	LTP120	ltpFR	6	6	-1	WORM	1623	n/a	n/a	-1	1.0	1.0	1	upper	Verdana.ttf
1287.582	n/a	WORD	643791	wordpools/wasnorm_wordpool.txt	LTP120	ltpFR	6	6	-1	PRUNE	1134	n/a	n/a	-1	1.0	1.0	1	upper	Verdana.ttf
1293.176	n/a	REC_START	646588	n/a	LTP120	ltpFR	6	6	n/a	n/a	n/a	n/a	n/a	n/a	n/a	n/a	n/a	n/a	n/a
1294.274	n/a	REC_WORD	647137	wordpools/wasnorm_wordpool.txt	LTP120	ltpFR	6	6	-1	WORM	1623	n/a	n/a	-1	n/a	n/a	n/a	n/a	n/a
1295.836	n/a	REC_WORD	647918	wordpools/wasnorm_wordpool.txt	LTP120	ltpFR	6	6	-1	PRUNE	1134	n/a	n/a	-1	n/a	n/a	n/a	n/a	n/a
1297.506	n/a	REC_WORD	648753	wordpools/wasnorm_wordpool.txt	LTP120	ltpFR	6	6	-1	STAFF	1365	n/a	n/a	-1	n/a	n/a	n/a	n/a	n/a
1299.408	n/a	REC_WORD	649704	wordpools/wasnorm_wordpool.txt	LTP120	ltpFR	6	6	-1	EAGLE	512	n/a	n/a	-1	n/a	n/a	n/a	n/a	n/a
1301.368	n/a	REC_WORD	650684	wordpools/wasnorm_wordpool.txt	LTP120	ltpFR	6	6	-1	DAISY	435	n/a	n/a	-1	n/a	n/a	n/a	n/a	n/a
1304.326	n/a	REC_WORD	652163	wordpools/wasnorm_wordpool.txt	LTP120	ltpFR	6	6	-1	SWEATER	1419	n/a	n/a	-1	n/a	n/a	n/a	n/a	n/a
1306.282	n/a	REC_WORD	653141	wordpools/wasnorm_wordpool.txt	LTP120	ltpFR	6	6	-1	COAT	333	n/a	n/a	-1	n/a	n/a	n/a	n/a	n/a
1335.116	n/a	REC_WORD	667558	wordpools/wasnorm_wordpool.txt	LTP120	ltpFR	6	6	-1	BUILDING	191	n/a	n/a	-1	n/a	n/a	n/a	n/a	n/a
1390.504	n/a	WORD	695252	wordpools/wasnorm_wordpool.txt	LTP120	ltpFR	6	7	0	CHAUFFEUR	283	n/a	n/a	1	0.57763671875	0.412841796875	1	upper	amplitud.ttf
1394.366	n/a	WORD	697183	wordpools/wasnorm_wordpool.txt	LTP120	ltpFR	6	7	0	CUBE	420	n/a	n/a	0	0.57763671875	0.412841796875	1	upper	amplitud.ttf
1398.32	n/a	WORD	699160	wordpools/wasnorm_wordpool.txt	LTP120	ltpFR	6	7	0	MOVIE	927	n/a	n/a	1	0.57763671875	0.412841796875	1	upper	amplitud.ttf
1402.224	n/a	WORD	701112	wordpools/wasnorm_wordpool.txt	LTP120	ltpFR	6	7	0	RELISH	1183	n/a	n/a	0	0.57763671875	0.412841796875	1	upper	amplitud.ttf
1406.104	n/a	WORD	703052	wordpools/wasnorm_wordpool.txt	LTP120	ltpFR	6	7	0	PLANT	1083	n/a	n/a	0	0.57763671875	0.412841796875	1	upper	amplitud.ttf
1410.142	n/a	WORD	705071	wordpools/wasnorm_wordpool.txt	LTP120	ltpFR	6	7	0	SAGE	1222	n/a	n/a	1	0.57763671875	0.412841796875	1	upper	amplitud.ttf
1414.12	n/a	WORD	707060	wordpools/wasnorm_wordpool.txt	LTP120	ltpFR	6	7	0	TUBE	1516	n/a	n/a	1	0.57763671875	0.412841796875	1	upper	amplitud.ttf
1418.24	n/a	WORD	709120	wordpools/wasnorm_wordpool.txt	LTP120	ltpFR	6	7	0	POTATO	1115	n/a	n/a	0	0.57763671875	0.412841796875	1	upper	amplitud.ttf
1422.052	n/a	WORD	711026	wordpools/wasnorm_wordpool.txt	LTP120	ltpFR	6	7	0	SPY	1360	n/a	n/a	0	0.57763671875	0.412841796875	1	upper	amplitud.ttf
1426.048	n/a	WORD	713024	wordpools/wasnorm_wordpool.txt	LTP120	ltpFR	6	7	0	CAB	209	n/a	n/a	1	0.57763671875	0.412841796875	1	upper	amplitud.ttf
1430.018	n/a	WORD	715009	wordpools/wasnorm_wordpool.txt	LTP120	ltpFR	6	7	0	TAVERN	1437	n/a	n/a	1	0.57763671875	0.412841796875	1	upper	amplitud.ttf
1433.99	n/a	WORD	716995	wordpools/wasnorm_wordpool.txt	LTP120	ltpFR	6	7	0	FLASK	576	n/a	n/a	0	0.57763671875	0.412841796875	1	upper	amplitud.ttf
1438.094	n/a	WORD	719047	wordpools/wasnorm_wordpool.txt	LTP120	ltpFR	6	7	0	INTESTINE	742	n/a	n/a	1	0.57763671875	0.412841796875	1	upper	amplitud.ttf
1442.072	n/a	WORD	721036	wordpools/wasnorm_wordpool.txt	LTP120	ltpFR	6	7	0	DOUGHNUT	490	n/a	n/a	0	0.57763671875	0.412841796875	1	upper	amplitud.ttf
1445.924	n/a	WORD	722962	wordpools/wasnorm_wordpool.txt	LTP120	ltpFR	6	7	0	STREAM	1392	n/a	n/a	0	0.57763671875	0.412841796875	1	upper	amplitud.ttf
1449.928	n/a	WORD	724964	wordpools/wasnorm_wordpool.txt	LTP120	ltpFR	6	7	0	BUCKET	184	n/a	n/a	0	0.57763671875	0.412841796875	1	upper	amplitud.ttf
1455.506	n/a	REC_START	727753	n/a	LTP120	ltpFR	6	7	n/a	n/a	n/a	n/a	n/a	n/a	n/a	n/a	n/a	n/a	n/a
1457.466	n/a	REC_WORD	728733	wordpools/wasnorm_wordpool.txt	LTP120	ltpFR	6	7	0	BUCKET	184	n/a	n/a	0	n/a	n/a	n/a	n/a	n/a
1458.514	n/a	REC_WORD_VV	729257	wordpools/wasnorm_wordpool.txt	LTP120	ltpFR	6	7	n/a	<>	-1	n/a	n/a	n/a	n/a	n/a	n/a	n/a	n/a
1459.112	n/a	REC_WORD	729556	wordpools/wasnorm_wordpool.txt	LTP120	ltpFR	6	7	0	STREAM	1392	n/a	n/a	0	n/a	n/a	n/a	n/a	n/a
1460.878	n/a	REC_WORD	730439	wordpools/wasnorm_wordpool.txt	LTP120	ltpFR	6	7	0	CHAUFFEUR	283	n/a	n/a	1	n/a	n/a	n/a	n/a	n/a
1472.422	n/a	REC_WORD	736211	wordpools/wasnorm_wordpool.txt	LTP120	ltpFR	6	7	0	INTESTINE	742	n/a	n/a	1	n/a	n/a	n/a	n/a	n/a
1481.63	n/a	REC_WORD	740815	wordpools/wasnorm_wordpool.txt	LTP120	ltpFR	6	7	0	TAVERN	1437	n/a	n/a	1	n/a	n/a	n/a	n/a	n/a
1483.232	n/a	REC_WORD	741616	wordpools/wasnorm_wordpool.txt	LTP120	ltpFR	6	7	0	FLASK	576	n/a	n/a	0	n/a	n/a	n/a	n/a	n/a
1485.232	n/a	REC_WORD	742616	wordpools/wasnorm_wordpool.txt	LTP120	ltpFR	6	7	0	CAB	209	n/a	n/a	1	n/a	n/a	n/a	n/a	n/a
1562.674	n/a	WORD	781337	wordpools/wasnorm_wordpool.txt	LTP120	ltpFR	6	8	0	VIDEO	1564	n/a	n/a	0	0.57763671875	0.412841796875	1	upper	amplitud.ttf
1566.736	n/a	WORD	783368	wordpools/wasnorm_wordpool.txt	LTP120	ltpFR	6	8	0	PHOTO	1055	n/a	n/a	0	0.57763671875	0.412841796875	1	upper	amplitud.ttf
1570.798	n/a	WORD	785399	wordpools/wasnorm_wordpool.txt	LTP120	ltpFR	6	8	0	COMMITTEE	355	n/a	n/a	1	0.57763671875	0.412841796875	1	upper	amplitud.ttf
1574.91	n/a	WORD	787455	wordpools/wasnorm_wordpool.txt	LTP120	ltpFR	6	8	0	FOX	598	n/a	n/a	1	0.57763671875	0.412841796875	1	upper	amplitud.ttf
1579.056	n/a	WORD	789528	wordpools/wasnorm_wordpool.txt	LTP120	ltpFR	6	8	0	RECIPE	1175	n/a	n/a	0	0.57763671875	0.412841796875	1	upper	amplitud.ttf
1583.018	n/a	WORD	791509	wordpools/wasnorm_wordpool.txt	LTP120	ltpFR	6	8	0	RING	1193	n/a	n/a	0	0.57763671875	0.412841796875	1	upper	amplitud.ttf
1586.94	n/a	WORD	793470	wordpools/wasnorm_wordpool.txt	LTP120	ltpFR	6	8	0	NECKLACE	940	n/a	n/a	0	0.57763671875	0.412841796875	1	upper	amplitud.ttf
1590.876	n/a	WORD	795438	wordpools/wasnorm_wordpool.txt	LTP120	ltpFR	6	8	0	THRONE	1461	n/a	n/a	0	0.57763671875	0.412841796875	1	upper	amplitud.ttf
1594.912	n/a	WORD	797456	wordpools/wasnorm_wordpool.txt	LTP120	ltpFR	6	8	0	PALACE	1006	n/a	n/a	1	0.57763671875	0.412841796875	1	upper	amplitud.ttf
1598.974	n/a	WORD	799487	wordpools/wasnorm_wordpool.txt	LTP120	ltpFR	6	8	0	TONGUE	1479	n/a	n/a	0	0.57763671875	0.412841796875	1	upper	amplitud.ttf
1603.02	n/a	WORD	801510	wordpools/wasnorm_wordpool.txt	LTP120	ltpFR	6	8	0	PRIEST	1122	n/a	n/a	1	0.57763671875	0.412841796875	1	upper	amplitud.ttf
1606.832	n/a	WORD	803416	wordpools/wasnorm_wordpool.txt	LTP120	ltpFR	6	8	0	BOUILLON	154	n/a	n/a	0	0.57763671875	0.412841796875	1	upper	amplitud.ttf
1610.802	n/a	WORD	805401	wordpools/wasnorm_wordpool.txt	LTP120	ltpFR	6	8	0	DENTIST	447	n/a	n/a	1	0.57763671875	0.412841796875	1	upper	amplitud.ttf
1614.99	n/a	WORD	807495	wordpools/wasnorm_wordpool.txt	LTP120	ltpFR	6	8	0	MINK	897	n/a	n/a	0	0.57763671875	0.412841796875	1	upper	amplitud.ttf
1618.834	n/a	WORD	809417	wordpools/wasnorm_wordpool.txt	LTP120	ltpFR	6	8	0	UNICORN	1538	n/a	n/a	1	0.57763671875	0.412841796875	1	upper	amplitud.ttf
1623.006	n/a	WORD	811503	wordpools/wasnorm_wordpool.txt	LTP120	ltpFR	6	8	0	SUPERMARKET	1409	n/a	n/a	1	0.57763671875	0.412841796875	1	upper	amplitud.ttf
1628.748	n/a	REC_START	814374	n/a	LTP120	ltpFR	6	8	n/a	n/a	n/a	n/a	n/a	n/a	n/a	n/a	n/a	n/a	n/a
1630.808	n/a	REC_WORD	815404	wordpools/wasnorm_wordpool.txt	LTP120	ltpFR	6	8	0	DENTIST	447	n/a	n/a	1	n/a	n/a	n/a	n/a	n/a
1633.054	n/a	REC_WORD	816527	wordpools/wasnorm_wordpool.txt	LTP120	ltpFR	6	8	0	MINK	897	n/a	n/a	0	n/a	n/a	n/a	n/a	n/a
1634.106	n/a	REC_WORD	817053	wordpools/wasnorm_wordpool.txt	LTP120	ltpFR	6	8	0	SUPERMARKET	1409	n/a	n/a	1	n/a	n/a	n/a	n/a	n/a
1636.102	n/a	REC_WORD	818051	wordpools/wasnorm_wordpool.txt	LTP120	ltpFR	6	8	0	TONGUE	1479	n/a	n/a	0	n/a	n/a	n/a	n/a	n/a
1644.896	n/a	REC_WORD	822448	wordpools/wasnorm_wordpool.txt	LTP120	ltpFR	6	8	0	BOUILLON	154	n/a	n/a	0	n/a	n/a	n/a	n/a	n/a
1680.078	n/a	REC_WORD	840039	wordpools/wasnorm_wordpool.txt	LTP120	ltpFR	6	8	0	UNICORN	1538	n/a	n/a	1	n/a	n/a	n/a	n/a	n/a
1739.188	n/a	WORD	869594	wordpools/wasnorm_wordpool.txt	LTP120	ltpFR	6	9	1	ADULT	8	n/a	n/a	1	0.422607421875	0.5869140625	0	lower	zerothre.ttf
1743.284	n/a	WORD	871642	wordpools/wasnorm_wordpool.txt	LTP120	ltpFR	6	9	1	DOCK	477	n/a	n/a	0	0.422607421875	0.5869140625	0	lower	zerothre.ttf
1747.378	n/a	WORD	873689	wordpools/wasnorm_wordpool.txt	LTP120	ltpFR	6	9	1	SAILOR	1223	n/a	n/a	1	0.422607421875	0.5869140625	0	lower	zerothre.ttf
1751.4	n/a	WORD	875700	wordpools/wasnorm_wordpool.txt	LTP120	ltpFR	6	9	1	LAMP	798	n/a	n/a	0	0.422607421875	0.5869140625	0	lower	zerothre.ttf
1755.252	n/a	WORD	877626	wordpools/wasnorm_wordpool.txt	LTP120	ltpFR	6	9	1	SKETCH	1315	n/a	n/a	0	0.422607421875	0.5869140625	0	lower	zerothre.ttf
1759.422	n/a	WORD	879711	wordpools/wasnorm_wordpool.txt	LTP120	ltpFR	6	9	1	THUMB	1462	n/a	n/a	0	0.422607421875	0.5869140625	0	lower	zerothre.ttf
1763.302	n/a	WORD	881651	wordpools/wasnorm_wordpool.txt	LTP120	ltpFR	6	9	1	TECHNICIAN	1443	n/a	n/a	1	0.422607421875	0.5869140625	0	lower	zerothre.ttf
1767.496	n/a	WORD	883748	wordpools/wasnorm_wordpool.txt	LTP120	ltpFR	6	9	1	RIVER	1194	n/a	n/a	0	0.422607421875	0.5869140625	0	lower	zerothre.ttf
1771.526	n/a	WORD	885763	wordpools/wasnorm_wordpool.txt	LTP120	ltpFR	6	9	1	TURTLE	1522	n/a	n/a	1	0.422607421875	0.5869140625	0	lower	zerothre.ttf
1775.62	n/a	WORD	887810	wordpools/wasnorm_wordpool.txt	LTP120	ltpFR	6	9	1	SHOP	1290	n/a	n/a	0	0.422607421875	0.5869140625	0	lower	zerothre.ttf
1779.658	n/a	WORD	889829	wordpools/wasnorm_wordpool.txt	LTP120	ltpFR	6	9	1	HERD	705	n/a	n/a	1	0.422607421875	0.5869140625	0	lower	zerothre.ttf
1783.654	n/a	WORD	891827	wordpools/wasnorm_wordpool.txt	LTP120	ltpFR	6	9	1	BEAST	108	n/a	n/a	1	0.422607421875	0.5869140625	0	lower	zerothre.ttf
1787.724	n/a	WORD	893862	wordpools/wasnorm_wordpool.txt	LTP120	ltpFR	6	9	1	BISON	131	n/a	n/a	1	0.422607421875	0.5869140625	0	lower	zerothre.ttf
1791.536	n/a	WORD	895768	wordpools/wasnorm_wordpool.txt	LTP120	ltpFR	6	9	1	LEOPARD	812	n/a	n/a	1	0.422607421875	0.5869140625	0	lower	zerothre.ttf
1795.556	n/a	WORD	897778	wordpools/wasnorm_wordpool.txt	LTP120	ltpFR	6	9	1	PICTURE	1061	n/a	n/a	0	0.422607421875	0.5869140625	0	lower	zerothre.ttf
1799.742	n/a	WORD	899871	wordpools/wasnorm_wordpool.txt	LTP120	ltpFR	6	9	1	PUMP	1141	n/a	n/a	0	0.422607421875	0.5869140625	0	lower	zerothre.ttf
1805.77	n/a	REC_START	902885	n/a	LTP120	ltpFR	6	9	n/a	n/a	n/a	n/a	n/a	n/a	n/a	n/a	n/a	n/a	n/a
1806.852	n/a	REC_WORD	903426	wordpools/wasnorm_wordpool.txt	LTP120	ltpFR	6	9	1	SAILOR	1223	n/a	n/a	1	n/a	n/a	n/a	n/a	n/a
1808.408	n/a	REC_WORD	904204	wordpools/wasnorm_wordpool.txt	LTP120	ltpFR	6	9	1	DOCK	477	n/a	n/a	0	n/a	n/a	n/a	n/a	n/a
1809.73	n/a	REC_WORD	904865	wordpools/wasnorm_wordpool.txt	LTP120	ltpFR	6	9	1	ADULT	8	n/a	n/a	1	n/a	n/a	n/a	n/a	n/a
1811.346	n/a	REC_WORD	905673	wordpools/wasnorm_wordpool.txt	LTP120	ltpFR	6	9	1	PUMP	1141	n/a	n/a	0	n/a	n/a	n/a	n/a	n/a
1813.044	n/a	REC_WORD	906522	wordpools/wasnorm_wordpool.txt	LTP120	ltpFR	6	9	1	TURTLE	1522	n/a	n/a	1	n/a	n/a	n/a	n/a	n/a
1814.93	n/a	REC_WORD	907465	wordpools/wasnorm_wordpool.txt	LTP120	ltpFR	6	9	1	TECHNICIAN	1443	n/a	n/a	1	n/a	n/a	n/a	n/a	n/a
1818.276	n/a	REC_WORD	909138	wordpools/wasnorm_wordpool.txt	LTP120	ltpFR	6	9	1	PICTURE	1061	n/a	n/a	0	n/a	n/a	n/a	n/a	n/a
1823.46	n/a	REC_WORD	911730	wordpools/wasnorm_wordpool.txt	LTP120	ltpFR	6	9	1	SHOP	1290	n/a	n/a	0	n/a	n/a	n/a	n/a	n/a
1919.282	n/a	WORD	959641	wordpools/wasnorm_wordpool.txt	LTP120	ltpFR	6	10	-1	RAIL	1161	n/a	n/a	-1	1.0	1.0	1	upper	Verdana.ttf
1923.418	n/a	WORD	961709	wordpools/wasnorm_wordpool.txt	LTP120	ltpFR	6	10	-1	LION	827	n/a	n/a	-1	1.0	1.0	1	upper	Verdana.ttf
1927.322	n/a	WORD	963661	wordpools/wasnorm_wordpool.txt	LTP120	ltpFR	6	10	-1	TREASURE	1500	n/a	n/a	-1	1.0	1.0	1	upper	Verdana.ttf
1931.516	n/a	WORD	965758	wordpools/wasnorm_wordpool.txt	LTP120	ltpFR	6	10	-1	BEAN	105	n/a	n/a	-1	1.0	1.0	1	upper	Verdana.ttf
1935.346	n/a	WORD	967673	wordpools/wasnorm_wordpool.txt	LTP120	ltpFR	6	10	-1	SIRLOIN	1311	n/a	n/a	-1	1.0	1.0	1	upper	Verdana.ttf
1939.45	n/a	WORD	969725	wordpools/wasnorm_wordpool.txt	LTP120	ltpFR	6	10	-1	BUILDER	190	n/a	n/a	-1	1.0	1.0	1	upper	Verdana.ttf
1943.344	n/a	WORD	971672	wordpools/wasnorm_wordpool.txt	LTP120	ltpFR	6	10	-1	COTTAGE	384	n/a	n/a	-1	1.0	1.0	1	upper	Verdana.ttf
1947.448	n/a	WORD	973724	wordpools/wasnorm_wordpool.txt	LTP120	ltpFR	6	10	-1	COMB	351	n/a	n/a	-1	1.0	1.0	1	upper	Verdana.ttf
1951.302	n/a	WORD	975651	wordpools/wasnorm_wordpool.txt	LTP120	ltpFR	6	10	-1	ROAD	1196	n/a	n/a	-1	1.0	1.0	1	upper	Verdana.ttf
1955.506	n/a	WORD	977753	wordpools/wasnorm_wordpool.txt	LTP120	ltpFR	6	10	-1	BALLOT	76	n/a	n/a	-1	1.0	1.0	1	upper	Verdana.ttf
1959.41	n/a	WORD	979705	wordpools/wasnorm_wordpool.txt	LTP120	ltpFR	6	10	-1	SKELETON	1314	n/a	n/a	-1	1.0	1.0	1	upper	Verdana.ttf
1963.364	n/a	WORD	981682	wordpools/wasnorm_wordpool.txt	LTP120	ltpFR	6	10	-1	METEOR	889	n/a	n/a	-1	1.0	1.0	1	upper	Verdana.ttf
1967.568	n/a	WORD	983784	wordpools/wasnorm_wordpool.txt	LTP120	ltpFR	6	10	-1	PRESIDENT	1121	n/a	n/a	-1	1.0	1.0	1	upper	Verdana.ttf
1971.464	n/a	WORD	985732	wordpools/wasnorm_wordpool.txt	LTP120	ltpFR	6	10	-1	FEAST	556	n/a	n/a	-1	1.0	1.0	1	upper	Verdana.ttf
1975.426	n/a	WORD	987713	wordpools/wasnorm_wordpool.txt	LTP120	ltpFR	6	10	-1	CAFE	216	n/a	n/a	-1	1.0	1.0	1	upper	Verdana.ttf
1979.246	n/a	WORD	989623	wordpools/wasnorm_wordpool.txt	LTP120	ltpFR	6	10	-1	ACTRESS	6	n/a	n/a	-1	1.0	1.0	1	upper	Verdana.ttf
1985.04	n/a	REC_START	992520	n/a	LTP120	ltpFR	6	10	n/a	n/a	n/a	n/a	n/a	n/a	n/a	n/a	n/a	n/a	n/a
1986.986	n/a	REC_WORD	993493	wordpools/wasnorm_wordpool.txt	LTP120	ltpFR	6	10	-1	BALLOT	76	n/a	n/a	-1	n/a	n/a	n/a	n/a	n/a
1987.978	n/a	REC_WORD	993989	wordpools/wasnorm_wordpool.txt	LTP120	ltpFR	6	10	-1	SKELETON	1314	n/a	n/a	-1	n/a	n/a	n/a	n/a	n/a
1989.784	n/a	REC_WORD	994892	wordpools/wasnorm_wordpool.txt	LTP120	ltpFR	6	10	-1	ACTRESS	6	n/a	n/a	-1	n/a	n/a	n/a	n/a	n/a
1991.002	n/a	REC_WORD	995501	wordpools/wasnorm_wordpool.txt	LTP120	ltpFR	6	10	-1	FEAST	556	n/a	n/a	-1	n/a	n/a	n/a	n/a	n/a
1997.288	n/a	REC_WORD	998644	wordpools/wasnorm_wordpool.txt	LTP120	ltpFR	6	10	-1	LION	827	n/a	n/a	-1	n/a	n/a	n/a	n/a	n/a
2000.28	n/a	REC_WORD	1000140	wordpools/wasnorm_wordpool.txt	LTP120	ltpFR	6	10	-1	RAIL	1161	n/a	n/a	-1	n/a	n/a	n/a	n/a	n/a
2004.382	n/a	REC_WORD	1002191	wordpools/wasnorm_wordpool.txt	LTP120	ltpFR	6	10	-1	SIRLOIN	1311	n/a	n/a	-1	n/a	n/a	n/a	n/a	n/a
2010.516	n/a	REC_WORD_VV	1005258	wordpools/wasnorm_wordpool.txt	LTP120	ltpFR	6	10	n/a	<>	-1	n/a	n/a	n/a	n/a	n/a	n/a	n/a	n/a
2011.516	n/a	REC_WORD_VV	1005758	wordpools/wasnorm_wordpool.txt	LTP120	ltpFR	6	10	n/a	<>	-1	n/a	n/a	n/a	n/a	n/a	n/a	n/a	n/a
2084.716	n/a	WORD	1042358	wordpools/wasnorm_wordpool.txt	LTP120	ltpFR	6	11	-1	CAMEL	223	n/a	n/a	-1	1.0	1.0	1	upper	Verdana.ttf
2088.612	n/a	WORD	1044306	wordpools/wasnorm_wordpool.txt	LTP120	ltpFR	6	11	-1	NOSE	957	n/a	n/a	-1	1.0	1.0	1	upper	Verdana.ttf
2092.806	n/a	WORD	1046403	wordpools/wasnorm_wordpool.txt	LTP120	ltpFR	6	11	-1	FREEZER	604	n/a	n/a	-1	1.0	1.0	1	upper	Verdana.ttf
2096.886	n/a	WORD	1048443	wordpools/wasnorm_wordpool.txt	LTP120	ltpFR	6	11	-1	GARLIC	624	n/a	n/a	-1	1.0	1.0	1	upper	Verdana.ttf
2100.998	n/a	WORD	1050499	wordpools/wasnorm_wordpool.txt	LTP120	ltpFR	6	11	-1	PARSLEY	1016	n/a	n/a	-1	1.0	1.0	1	upper	Verdana.ttf
2105.052	n/a	WORD	1052526	wordpools/wasnorm_wordpool.txt	LTP120	ltpFR	6	11	-1	LITERATURE	831	n/a	n/a	-1	1.0	1.0	1	upper	Verdana.ttf
2109.022	n/a	WORD	1054511	wordpools/wasnorm_wordpool.txt	LTP120	ltpFR	6	11	-1	ENCYCLOPEDIA	533	n/a	n/a	-1	1.0	1.0	1	upper	Verdana.ttf
2113.208	n/a	WORD	1056604	wordpools/wasnorm_wordpool.txt	LTP120	ltpFR	6	11	-1	ZUCCHINI	1638	n/a	n/a	-1	1.0	1.0	1	upper	Verdana.ttf
2117.064	n/a	WORD	1058532	wordpools/wasnorm_wordpool.txt	LTP120	ltpFR	6	11	-1	NOMAD	955	n/a	n/a	-1	1.0	1.0	1	upper	Verdana.ttf
2121.1	n/a	WORD	1060550	wordpools/wasnorm_wordpool.txt	LTP120	ltpFR	6	11	-1	PAINTER	1004	n/a	n/a	-1	1.0	1.0	1	upper	Verdana.ttf
2124.936	n/a	WORD	1062468	wordpools/wasnorm_wordpool.txt	LTP120	ltpFR	6	11	-1	MUSHROOM	934	n/a	n/a	-1	1.0	1.0	1	upper	Verdana.ttf
2128.908	n/a	WORD	1064454	wordpools/wasnorm_wordpool.txt	LTP120	ltpFR	6	11	-1	BEARD	107	n/a	n/a	-1	1.0	1.0	1	upper	Verdana.ttf
2132.886	n/a	WORD	1066443	wordpools/wasnorm_wordpool.txt	LTP120	ltpFR	6	11	-1	PERISCOPE	1050	n/a	n/a	-1	1.0	1.0	1	upper	Verdana.ttf
2136.764	n/a	WORD	1068382	wordpools/wasnorm_wordpool.txt	LTP120	ltpFR	6	11	-1	TANGERINE	1431	n/a	n/a	-1	1.0	1.0	1	upper	Verdana.ttf
2140.81	n/a	WORD	1070405	wordpools/wasnorm_wordpool.txt	LTP120	ltpFR	6	11	-1	ISLAND	745	n/a	n/a	-1	1.0	1.0	1	upper	Verdana.ttf
2144.68	n/a	WORD	1072340	wordpools/wasnorm_wordpool.txt	LTP120	ltpFR	6	11	-1	ASHTRAY	45	n/a	n/a	-1	1.0	1.0	1	upper	Verdana.ttf
2150.424	n/a	REC_START	1075212	n/a	LTP120	ltpFR	6	11	n/a	n/a	n/a	n/a	n/a	n/a	n/a	n/a	n/a	n/a	n/a
2151.696	n/a	REC_WORD	1075848	wordpools/wasnorm_wordpool.txt	LTP120	ltpFR	6	11	-1	ASHTRAY	45	n/a	n/a	-1	n/a	n/a	n/a	n/a	n/a
2153.482	n/a	REC_WORD	1076741	wordpools/wasnorm_wordpool.txt	LTP120	ltpFR	6	11	-1	NOSE	957	n/a	n/a	-1	n/a	n/a	n/a	n/a	n/a
2156.28	n/a	REC_WORD	1078140	wordpools/wasnorm_wordpool.txt	LTP120	ltpFR	6	11	-1	ZUCCHINI	1638	n/a	n/a	-1	n/a	n/a	n/a	n/a	n/a
2164.482	n/a	REC_WORD	1082241	wordpools/wasnorm_wordpool.txt	LTP120	ltpFR	6	11	-1	CAMEL	223	n/a	n/a	-1	n/a	n/a	n/a	n/a	n/a
2172.26	n/a	REC_WORD	1086130	wordpools/wasnorm_wordpool.txt	LTP120	ltpFR	6	11	-1	TANGERINE	1431	n/a	n/a	-1	n/a	n/a	n/a	n/a	n/a
2278.628	n/a	WORD	1139314	wordpools/wasnorm_wordpool.txt	LTP120	ltpFR	6	12	-1	TOWN	1491	n/a	n/a	-1	1.0	1.0	1	upper	Verdana.ttf
2282.648	n/a	WORD	1141324	wordpools/wasnorm_wordpool.txt	LTP120	ltpFR	6	12	-1	GHETTO	633	n/a	n/a	-1	1.0	1.0	1	upper	Verdana.ttf
2286.776	n/a	WORD	1143388	wordpools/wasnorm_wordpool.txt	LTP120	ltpFR	6	12	-1	FREEWAY	603	n/a	n/a	-1	1.0	1.0	1	upper	Verdana.ttf
2290.664	n/a	WORD	1145332	wordpools/wasnorm_wordpool.txt	LTP120	ltpFR	6	12	-1	MOP	916	n/a	n/a	-1	1.0	1.0	1	upper	Verdana.ttf
2294.826	n/a	WORD	1147413	wordpools/wasnorm_wordpool.txt	LTP120	ltpFR	6	12	-1	EARTH	515	n/a	n/a	-1	1.0	1.0	1	upper	Verdana.ttf
2298.838	n/a	WORD	1149419	wordpools/wasnorm_wordpool.txt	LTP120	ltpFR	6	12	-1	LAUNDRY	803	n/a	n/a	-1	1.0	1.0	1	upper	Verdana.ttf
2302.916	n/a	WORD	1151458	wordpools/wasnorm_wordpool.txt	LTP120	ltpFR	6	12	-1	RAG	1160	n/a	n/a	-1	1.0	1.0	1	upper	Verdana.ttf
2306.936	n/a	WORD	1153468	wordpools/wasnorm_wordpool.txt	LTP120	ltpFR	6	12	-1	EMPLOYEE	531	n/a	n/a	-1	1.0	1.0	1	upper	Verdana.ttf
2310.914	n/a	WORD	1155457	wordpools/wasnorm_wordpool.txt	LTP120	ltpFR	6	12	-1	OFFICE	972	n/a	n/a	-1	1.0	1.0	1	upper	Verdana.ttf
2315.06	n/a	WORD	1157530	wordpools/wasnorm_wordpool.txt	LTP120	ltpFR	6	12	-1	OREGANO	983	n/a	n/a	-1	1.0	1.0	1	upper	Verdana.ttf
2319.222	n/a	WORD	1159611	wordpools/wasnorm_wordpool.txt	LTP120	ltpFR	6	12	-1	WINGS	1614	n/a	n/a	-1	1.0	1.0	1	upper	Verdana.ttf
2323.126	n/a	WORD	1161563	wordpools/wasnorm_wordpool.txt	LTP120	ltpFR	6	12	-1	RAT	1169	n/a	n/a	-1	1.0	1.0	1	upper	Verdana.ttf
2327.196	n/a	WORD	1163598	wordpools/wasnorm_wordpool.txt	LTP120	ltpFR	6	12	-1	RACKET	1155	n/a	n/a	-1	1.0	1.0	1	upper	Verdana.ttf
2331.058	n/a	WORD	1165529	wordpools/wasnorm_wordpool.txt	LTP120	ltpFR	6	12	-1	GODDESS	646	n/a	n/a	-1	1.0	1.0	1	upper	Verdana.ttf
2335.146	n/a	WORD	1167573	wordpools/wasnorm_wordpool.txt	LTP120	ltpFR	6	12	-1	HERB	704	n/a	n/a	-1	1.0	1.0	1	upper	Verdana.ttf
2339.116	n/a	WORD	1169558	wordpools/wasnorm_wordpool.txt	LTP120	ltpFR	6	12	-1	RUST	1219	n/a	n/a	-1	1.0	1.0	1	upper	Verdana.ttf
2344.902	n/a	REC_START	1172451	n/a	LTP120	ltpFR	6	12	n/a	n/a	n/a	n/a	n/a	n/a	n/a	n/a	n/a	n/a	n/a
2345.43	n/a	REC_WORD_VV	1172715	wordpools/wasnorm_wordpool.txt	LTP120	ltpFR	6	12	n/a	<>	-1	n/a	n/a	n/a	n/a	n/a	n/a	n/a	n/a
2346.806	n/a	REC_WORD	1173403	wordpools/wasnorm_wordpool.txt	LTP120	ltpFR	6	12	-1	HERB	704	n/a	n/a	-1	n/a	n/a	n/a	n/a	n/a
2348.908	n/a	REC_WORD	1174454	wordpools/wasnorm_wordpool.txt	LTP120	ltpFR	6	12	-1	RUST	1219	n/a	n/a	-1	n/a	n/a	n/a	n/a	n/a
2351.206	n/a	REC_WORD	1175603	wordpools/wasnorm_wordpool.txt	LTP120	ltpFR	6	12	-1	OREGANO	983	n/a	n/a	-1	n/a	n/a	n/a	n/a	n/a
2410.952	n/a	REC_WORD_VV	1205476	wordpools/wasnorm_wordpool.txt	LTP120	ltpFR	6	12	n/a	<>	-1	n/a	n/a	n/a	n/a	n/a	n/a	n/a	n/a
2420.49	n/a	REST_REWET	1210245	n/a	LTP120	ltpFR	6	12	n/a	n/a	n/a	n/a	n/a	n/a	n/a	n/a	n/a	n/a	n/a
2690.596	n/a	WORD	1345298	wordpools/wasnorm_wordpool.txt	LTP120	ltpFR	6	13	1	DESSERT	453	n/a	n/a	0	0.422607421875	0.5869140625	0	lower	zerothre.ttf
2694.466	n/a	WORD	1347233	wordpools/wasnorm_wordpool.txt	LTP120	ltpFR	6	13	1	CABINET	212	n/a	n/a	0	0.422607421875	0.5869140625	0	lower	zerothre.ttf
2698.412	n/a	WORD	1349206	wordpools/wasnorm_wordpool.txt	LTP120	ltpFR	6	13	0	SHOE	1288	n/a	n/a	2	0.57763671875	0.412841796875	1	upper	amplitud.ttf
2698.602	n/a	KEY_MSG	1349301	n/a	LTP120	ltpFR	6	13	n/a	n/a	n/a	n/a	n/a	n/a	n/a	n/a	n/a	n/a	n/a
2702.498	n/a	WORD	1351249	wordpools/wasnorm_wordpool.txt	LTP120	ltpFR	6	13	0	OZONE	996	n/a	n/a	1	0.57763671875	0.412841796875	1	upper	amplitud.ttf
2706.676	n/a	WORD	1353338	wordpools/wasnorm_wordpool.txt	LTP120	ltpFR	6	13	0	WINE	1613	n/a	n/a	0	0.57763671875	0.412841796875	1	upper	amplitud.ttf
2710.738	n/a	WORD	1355369	wordpools/wasnorm_wordpool.txt	LTP120	ltpFR	6	13	1	BEVERAGE	123	n/a	n/a	0	0.422607421875	0.5869140625	0	lower	zerothre.ttf
2714.75	n/a	WORD	1357375	wordpools/wasnorm_wordpool.txt	LTP120	ltpFR	6	13	1	COOK	372	n/a	n/a	1	0.422607421875	0.5869140625	0	lower	zerothre.ttf
2718.88	n/a	WORD	1359440	wordpools/wasnorm_wordpool.txt	LTP120	ltpFR	6	13	0	ATMOSPHERE	54	n/a	n/a	1	0.57763671875	0.412841796875	1	upper	amplitud.ttf
2722.816	n/a	WORD	1361408	wordpools/wasnorm_wordpool.txt	LTP120	ltpFR	6	13	0	PUDDING	1139	n/a	n/a	0	0.57763671875	0.412841796875	1	upper	amplitud.ttf
2726.838	n/a	WORD	1363419	wordpools/wasnorm_wordpool.txt	LTP120	ltpFR	6	13	0	WHEAT	1602	n/a	n/a	0	0.57763671875	0.412841796875	1	upper	amplitud.ttf
2730.932	n/a	WORD	1365466	wordpools/wasnorm_wordpool.txt	LTP120	ltpFR	6	13	0	STOVE	1388	n/a	n/a	1	0.57763671875	0.412841796875	1	upper	amplitud.ttf
2734.954	n/a	WORD	1367477	wordpools/wasnorm_wordpool.txt	LTP120	ltpFR	6	13	0	MOSQUITO	917	n/a	n/a	0	0.57763671875	0.412841796875	1	upper	amplitud.ttf
2738.916	n/a	WORD	1369458	wordpools/wasnorm_wordpool.txt	LTP120	ltpFR	6	13	1	YOLK	1633	n/a	n/a	0	0.422607421875	0.5869140625	0	lower	zerothre.ttf
2743.054	n/a	WORD	1371527	wordpools/wasnorm_wordpool.txt	LTP120	ltpFR	6	13	1	CHICK	296	n/a	n/a	1	0.422607421875	0.5869140625	0	lower	zerothre.ttf
2747.04	n/a	WORD	1373520	wordpools/wasnorm_wordpool.txt	LTP120	ltpFR	6	13	1	TOOTHPASTE	1483	n/a	n/a	0	0.422607421875	0.5869140625	0	lower	zerothre.ttf
2751.102	n/a	WORD	1375551	wordpools/wasnorm_wordpool.txt	LTP120	ltpFR	6	13	1	SHEEP	1278	n/a	n/a	1	0.422607421875	0.5869140625	0	lower	zerothre.ttf
2756.962	n/a	REC_START	1378481	n/a	LTP120	ltpFR	6	13	n/a	n/a	n/a	n/a	n/a	n/a	n/a	n/a	n/a	n/a	n/a
2758.514	n/a	REC_WORD	1379257	wordpools/wasnorm_wordpool.txt	LTP120	ltpFR	6	13	1	YOLK	1633	n/a	n/a	0	n/a	n/a	n/a	n/a	n/a
2759.462	n/a	REC_WORD	1379731	wordpools/wasnorm_wordpool.txt	LTP120	ltpFR	6	13	1	CHICK	296	n/a	n/a	1	n/a	n/a	n/a	n/a	n/a
2761.876	n/a	REC_WORD	1380938	wordpools/wasnorm_wordpool.txt	LTP120	ltpFR	6	13	1	TOOTHPASTE	1483	n/a	n/a	0	n/a	n/a	n/a	n/a	n/a
2763.338	n/a	REC_WORD	1381669	wordpools/wasnorm_wordpool.txt	LTP120	ltpFR	6	13	1	SHEEP	1278	n/a	n/a	1	n/a	n/a	n/a	n/a	n/a
2764.724	n/a	REC_WORD	1382362	wordpools/wasnorm_wordpool.txt	LTP120	ltpFR	6	13	0	OZONE	996	n/a	n/a	1	n/a	n/a	n/a	n/a	n/a
2766.366	n/a	REC_WORD	1383183	wordpools/wasnorm_wordpool.txt	LTP120	ltpFR	6	13	0	ATMOSPHERE	54	n/a	n/a	1	n/a	n/a	n/a	n/a	n/a
2767.812	n/a	REC_WORD	1383906	wordpools/wasnorm_wordpool.txt	LTP120	ltpFR	6	13	0	MOSQUITO	917	n/a	n/a	0	n/a	n/a	n/a	n/a	n/a
2769.618	n/a	REC_WORD	1384809	wordpools/wasnorm_wordpool.txt	LTP120	ltpFR	6	13	1	COOK	372	n/a	n/a	1	n/a	n/a	n/a	n/a	n/a
2782.18	n/a	REC_WORD	1391090	wordpools/wasnorm_wordpool.txt	LTP120	ltpFR	6	13	0	SHOE	1288	n/a	n/a	2	n/a	n/a	n/a	n/a	n/a
2797.724	n/a	REC_WORD	1398862	wordpools/wasnorm_wordpool.txt	LTP120	ltpFR	6	13	1	BEVERAGE	123	n/a	n/a	0	n/a	n/a	n/a	n/a	n/a
2799.61	n/a	REC_WORD	1399805	wordpools/wasnorm_wordpool.txt	LTP120	ltpFR	6	13	0	WINE	1613	n/a	n/a	0	n/a	n/a	n/a	n/a	n/a
2868.408	n/a	WORD	1434204	wordpools/wasnorm_wordpool.txt	LTP120	ltpFR	6	14	0	POOL	1103	n/a	n/a	1	0.57763671875	0.412841796875	1	upper	amplitud.ttf
2872.544	n/a	WORD	1436272	wordpools/wasnorm_wordpool.txt	LTP120	ltpFR	6	14	0	BAIT	70	n/a	n/a	0	0.57763671875	0.412841796875	1	upper	amplitud.ttf
2876.624	n/a	WORD	1438312	wordpools/wasnorm_wordpool.txt	LTP120	ltpFR	6	14	1	FAIRY	549	n/a	n/a	1	0.422607421875	0.5869140625	0	lower	zerothre.ttf
2880.528	n/a	WORD	1440264	wordpools/wasnorm_wordpool.txt	LTP120	ltpFR	6	14	1	COCOON	339	n/a	n/a	1	0.422607421875	0.5869140625	0	lower	zerothre.ttf
2884.356	n/a	WORD	1442178	wordpools/wasnorm_wordpool.txt	LTP120	ltpFR	6	14	1	SPONGE	1355	n/a	n/a	0	0.422607421875	0.5869140625	0	lower	zerothre.ttf
2888.202	n/a	WORD	1444101	wordpools/wasnorm_wordpool.txt	LTP120	ltpFR	6	14	1	SOLDIER	1344	n/a	n/a	1	0.422607421875	0.5869140625	0	lower	zerothre.ttf
2892.222	n/a	WORD	1446111	wordpools/wasnorm_wordpool.txt	LTP120	ltpFR	6	14	1	COMMANDER	354	n/a	n/a	1	0.422607421875	0.5869140625	0	lower	zerothre.ttf
2896.12	n/a	WORD	1448060	wordpools/wasnorm_wordpool.txt	LTP120	ltpFR	6	14	0	RAZOR	1171	n/a	n/a	0	0.57763671875	0.412841796875	1	upper	amplitud.ttf
2900.19	n/a	WORD	1450095	wordpools/wasnorm_wordpool.txt	LTP120	ltpFR	6	14	0	DAM	436	n/a	n/a	1	0.57763671875	0.412841796875	1	upper	amplitud.ttf
2904.258	n/a	WORD	1452129	wordpools/wasnorm_wordpool.txt	LTP120	ltpFR	6	14	0	POPCORN	1104	n/a	n/a	0	0.57763671875	0.412841796875	1	upper	amplitud.ttf
2908.204	n/a	WORD	1454102	wordpools/wasnorm_wordpool.txt	LTP120	ltpFR	6	14	1	VOLLEYBALL	1576	n/a	n/a	0	0.422607421875	0.5869140625	0	lower	zerothre.ttf
2912.366	n/a	WORD	1456183	wordpools/wasnorm_wordpool.txt	LTP120	ltpFR	6	14	1	MOUSE	925	n/a	n/a	1	0.422607421875	0.5869140625	0	lower	zerothre.ttf
2916.244	n/a	WORD	1458122	wordpools/wasnorm_wordpool.txt	LTP120	ltpFR	6	14	1	RODENT	1204	n/a	n/a	1	0.422607421875	0.5869140625	0	lower	zerothre.ttf
2920.116	n/a	WORD	1460058	wordpools/wasnorm_wordpool.txt	LTP120	ltpFR	6	14	0	SHED	1277	n/a	n/a	2	0.57763671875	0.412841796875	1	upper	amplitud.ttf
2921.032	n/a	KEY_MSG	1460516	n/a	LTP120	ltpFR	6	14	n/a	n/a	n/a	n/a	n/a	n/a	n/a	n/a	n/a	n/a	n/a
2924.294	n/a	WORD	1462147	wordpools/wasnorm_wordpool.txt	LTP120	ltpFR	6	14	0	SALESMAN	1225	n/a	n/a	1	0.57763671875	0.412841796875	1	upper	amplitud.ttf
2928.48	n/a	WORD	1464240	wordpools/wasnorm_wordpool.txt	LTP120	ltpFR	6	14	0	PATROL	1027	n/a	n/a	1	0.57763671875	0.412841796875	1	upper	amplitud.ttf
2934.44	n/a	REC_START	1467220	n/a	LTP120	ltpFR	6	14	n/a	n/a	n/a	n/a	n/a	n/a	n/a	n/a	n/a	n/a	n/a
2936.236	n/a	REC_WORD	1468118	wordpools/wasnorm_wordpool.txt	LTP120	ltpFR	6	14	0	SHED	1277	n/a	n/a	2	n/a	n/a	n/a	n/a	n/a
2937.682	n/a	REC_WORD	1468841	wordpools/wasnorm_wordpool.txt	LTP120	ltpFR	6	14	0	PATROL	1027	n/a	n/a	1	n/a	n/a	n/a	n/a	n/a
2939.604	n/a	REC_WORD	1469802	wordpools/wasnorm_wordpool.txt	LTP120	ltpFR	6	14	0	POPCORN	1104	n/a	n/a	0	n/a	n/a	n/a	n/a	n/a
2942.826	n/a	REC_WORD	1471413	wordpools/wasnorm_wordpool.txt	LTP120	ltpFR	6	14	1	MOUSE	925	n/a	n/a	1	n/a	n/a	n/a	n/a	n/a
2944.588	n/a	REC_WORD	1472294	wordpools/wasnorm_wordpool.txt	LTP120	ltpFR	6	14	1	RODENT	1204	n/a	n/a	1	n/a	n/a	n/a	n/a	n/a
2955.632	n/a	REC_WORD_VV	1477816	wordpools/wasnorm_wordpool.txt	LTP120	ltpFR	6	14	n/a	<>	-1	n/a	n/a	n/a	n/a	n/a	n/a	n/a	n/a
2956.632	n/a	REC_WORD_VV	1478316	wordpools/wasnorm_wordpool.txt	LTP120	ltpFR	6	14	n/a	<>	-1	n/a	n/a	n/a	n/a	n/a	n/a	n/a	n/a
2971.806	n/a	REC_WORD_VV	1485903	wordpools/wasnorm_wordpool.txt	LTP120	ltpFR	6	14	n/a	<>	-1	n/a	n/a	n/a	n/a	n/a	n/a	n/a	n/a
2982.472	n/a	REC_WORD	1491236	wordpools/wasnorm_wordpool.txt	LTP120	ltpFR	6	14	1	SPONGE	1355	n/a	n/a	0	n/a	n/a	n/a	n/a	n/a
2986.05	n/a	REC_WORD	1493025	wordpools/wasnorm_wordpool.txt	LTP120	ltpFR	6	14	1	COCOON	339	n/a	n/a	1	n/a	n/a	n/a	n/a	n/a
2995.058	n/a	REC_WORD	1497529	wordpools/wasnorm_wordpool.txt	LTP120	ltpFR	6	14	0	POOL	1103	n/a	n/a	1	n/a	n/a	n/a	n/a	n/a
3034.186	n/a	WORD	1517093	wordpools/wasnorm_wordpool.txt	LTP120	ltpFR	6	15	0	BRIEFCASE	175	n/a	n/a	0	0.57763671875	0.412841796875	1	upper	amplitud.ttf
3038.056	n/a	WORD	1519028	wordpools/wasnorm_wordpool.txt	LTP120	ltpFR	6	15	0	MICROWAVE	892	n/a	n/a	1	0.57763671875	0.412841796875	1	upper	amplitud.ttf
3042.026	n/a	WORD	1521013	wordpools/wasnorm_wordpool.txt	LTP120	ltpFR	6	15	0	PASTRY	1022	n/a	n/a	0	0.57763671875	0.412841796875	1	upper	amplitud.ttf
3046.014	n/a	WORD	1523007	wordpools/wasnorm_wordpool.txt	LTP120	ltpFR	6	15	0	DIAMOND	458	n/a	n/a	0	0.57763671875	0.412841796875	1	upper	amplitud.ttf
3049.842	n/a	WORD	1524921	wordpools/wasnorm_wordpool.txt	LTP120	ltpFR	6	15	1	BANANA	77	n/a	n/a	0	0.422607421875	0.5869140625	0	lower	zerothre.ttf
3053.854	n/a	WORD	1526927	wordpools/wasnorm_wordpool.txt	LTP120	ltpFR	6	15	1	WHALE	1601	n/a	n/a	1	0.422607421875	0.5869140625	0	lower	zerothre.ttf
3058.0	n/a	WORD	1529000	wordpools/wasnorm_wordpool.txt	LTP120	ltpFR	6	15	1	CHIME	300	n/a	n/a	0	0.422607421875	0.5869140625	0	lower	zerothre.ttf
3062.202	n/a	WORD	1531101	wordpools/wasnorm_wordpool.txt	LTP120	ltpFR	6	15	0	BANDIT	81	n/a	n/a	1	0.57763671875	0.412841796875	1	upper	amplitud.ttf
3066.058	n/a	WORD	1533029	wordpools/wasnorm_wordpool.txt	LTP120	ltpFR	6	15	0	WHISKERS	1605	n/a	n/a	0	0.57763671875	0.412841796875	1	upper	amplitud.ttf
3070.202	n/a	WORD	1535101	wordpools/wasnorm_wordpool.txt	LTP120	ltpFR	6	15	0	DOG	480	n/a	n/a	1	0.57763671875	0.412841796875	1	upper	amplitud.ttf
3074.048	n/a	WORD	1537024	wordpools/wasnorm_wordpool.txt	LTP120	ltpFR	6	15	0	BURGLAR	200	n/a	n/a	1	0.57763671875	0.412841796875	1	upper	amplitud.ttf
3078.202	n/a	WORD	1539101	wordpools/wasnorm_wordpool.txt	LTP120	ltpFR	6	15	1	POCKETBOOK	1094	n/a	n/a	0	0.422607421875	0.5869140625	0	lower	zerothre.ttf
3082.08	n/a	WORD	1541040	wordpools/wasnorm_wordpool.txt	LTP120	ltpFR	6	15	1	COBBLER	335	n/a	n/a	0	0.422607421875	0.5869140625	0	lower	zerothre.ttf
3086.258	n/a	WORD	1543129	wordpools/wasnorm_wordpool.txt	LTP120	ltpFR	6	15	1	HAMPER	682	n/a	n/a	0	0.422607421875	0.5869140625	0	lower	zerothre.ttf
3090.452	n/a	WORD	1545226	wordpools/wasnorm_wordpool.txt	LTP120	ltpFR	6	15	1	JAW	751	n/a	n/a	0	0.422607421875	0.5869140625	0	lower	zerothre.ttf
3094.624	n/a	WORD	1547312	wordpools/wasnorm_wordpool.txt	LTP120	ltpFR	6	15	1	BRACES	164	n/a	n/a	0	0.422607421875	0.5869140625	0	lower	zerothre.ttf
3100.524	n/a	REC_START	1550262	n/a	LTP120	ltpFR	6	15	n/a	n/a	n/a	n/a	n/a	n/a	n/a	n/a	n/a	n/a	n/a
3101.406	n/a	REC_WORD_VV	1550703	wordpools/wasnorm_wordpool.txt	LTP120	ltpFR	6	15	n/a	<>	-1	n/a	n/a	n/a	n/a	n/a	n/a	n/a	n/a
3102.474	n/a	REC_WORD	1551237	wordpools/wasnorm_wordpool.txt	LTP120	ltpFR	6	15	1	JAW	751	n/a	n/a	0	n/a	n/a	n/a	n/a	n/a
3103.882	n/a	REC_WORD	1551941	wordpools/wasnorm_wordpool.txt	LTP120	ltpFR	6	15	1	BRACES	164	n/a	n/a	0	n/a	n/a	n/a	n/a	n/a
3105.502	n/a	REC_WORD	1552751	wordpools/wasnorm_wordpool.txt	LTP120	ltpFR	6	15	1	HAMPER	682	n/a	n/a	0	n/a	n/a	n/a	n/a	n/a
3107.388	n/a	REC_WORD	1553694	wordpools/wasnorm_wordpool.txt	LTP120	ltpFR	6	15	0	BURGLAR	200	n/a	n/a	1	n/a	n/a	n/a	n/a	n/a
3109.898	n/a	REC_WORD	1554949	wordpools/wasnorm_wordpool.txt	LTP120	ltpFR	6	15	1	BANANA	77	n/a	n/a	0	n/a	n/a	n/a	n/a	n/a
3111.878	n/a	REC_WORD	1555939	wordpools/wasnorm_wordpool.txt	LTP120	ltpFR	6	15	0	WHISKERS	1605	n/a	n/a	0	n/a	n/a	n/a	n/a	n/a
3113.898	n/a	REC_WORD	1556949	wordpools/wasnorm_wordpool.txt	LTP120	ltpFR	6	15	0	DOG	480	n/a	n/a	1	n/a	n/a	n/a	n/a	n/a
3116.946	n/a	REC_WORD	1558473	wordpools/wasnorm_wordpool.txt	LTP120	ltpFR	6	15	1	WHALE	1601	n/a	n/a	1	n/a	n/a	n/a	n/a	n/a
3118.554	n/a	REC_WORD	1559277	wordpools/wasnorm_wordpool.txt	LTP120	ltpFR	6	15	1	CHIME	300	n/a	n/a	0	n/a	n/a	n/a	n/a	n/a
3194.634	n/a	WORD	1597317	wordpools/wasnorm_wordpool.txt	LTP120	ltpFR	6	16	1	UNIVERSITY	1541	n/a	n/a	0	0.422607421875	0.5869140625	0	lower	zerothre.ttf
3198.72	n/a	WORD	1599360	wordpools/wasnorm_wordpool.txt	LTP120	ltpFR	6	16	1	BILL	126	n/a	n/a	0	0.422607421875	0.5869140625	0	lower	zerothre.ttf
3202.774	n/a	WORD	1601387	wordpools/wasnorm_wordpool.txt	LTP120	ltpFR	6	16	1	TURNIP	1521	n/a	n/a	1	0.422607421875	0.5869140625	0	lower	zerothre.ttf
3206.686	n/a	WORD	1603343	wordpools/wasnorm_wordpool.txt	LTP120	ltpFR	6	16	1	PICKLE	1059	n/a	n/a	0	0.422607421875	0.5869140625	0	lower	zerothre.ttf
3210.832	n/a	WORD	1605416	wordpools/wasnorm_wordpool.txt	LTP120	ltpFR	6	16	0	REPTILE	1185	n/a	n/a	0	0.57763671875	0.412841796875	1	upper	amplitud.ttf
3214.952	n/a	WORD	1607476	wordpools/wasnorm_wordpool.txt	LTP120	ltpFR	6	16	0	SEAFOOD	1260	n/a	n/a	0	0.57763671875	0.412841796875	1	upper	amplitud.ttf
3218.898	n/a	WORD	1609449	wordpools/wasnorm_wordpool.txt	LTP120	ltpFR	6	16	0	COURSE	390	n/a	n/a	1	0.57763671875	0.412841796875	1	upper	amplitud.ttf
3222.768	n/a	WORD	1611384	wordpools/wasnorm_wordpool.txt	LTP120	ltpFR	6	16	0	QUARTER	1148	n/a	n/a	0	0.57763671875	0.412841796875	1	upper	amplitud.ttf
3226.738	n/a	WORD	1613369	wordpools/wasnorm_wordpool.txt	LTP120	ltpFR	6	16	0	GUARD	667	n/a	n/a	1	0.57763671875	0.412841796875	1	upper	amplitud.ttf
3230.734	n/a	WORD	1615367	wordpools/wasnorm_wordpool.txt	LTP120	ltpFR	6	16	1	TWISTER	1530	n/a	n/a	0	0.422607421875	0.5869140625	0	lower	zerothre.ttf
3234.72	n/a	WORD	1617360	wordpools/wasnorm_wordpool.txt	LTP120	ltpFR	6	16	1	DUNGEON	507	n/a	n/a	0	0.422607421875	0.5869140625	0	lower	zerothre.ttf
3238.908	n/a	WORD	1619454	wordpools/wasnorm_wordpool.txt	LTP120	ltpFR	6	16	1	SEAL	1262	n/a	n/a	1	0.422607421875	0.5869140625	0	lower	zerothre.ttf
3242.754	n/a	WORD	1621377	wordpools/wasnorm_wordpool.txt	LTP120	ltpFR	6	16	1	GAZELLE	628	n/a	n/a	1	0.422607421875	0.5869140625	0	lower	zerothre.ttf
3246.906	n/a	WORD	1623453	wordpools/wasnorm_wordpool.txt	LTP120	ltpFR	6	16	0	BIKE	125	n/a	n/a	1	0.57763671875	0.412841796875	1	upper	amplitud.ttf
3251.036	n/a	WORD	1625518	wordpools/wasnorm_wordpool.txt	LTP120	ltpFR	6	16	0	MOTORCYCLE	923	n/a	n/a	1	0.57763671875	0.412841796875	1	upper	amplitud.ttf
3255.082	n/a	WORD	1627541	wordpools/wasnorm_wordpool.txt	LTP120	ltpFR	6	16	0	ANIMAL	23	n/a	n/a	1	0.57763671875	0.412841796875	1	upper	amplitud.ttf
3260.916	n/a	REC_START	1630458	n/a	LTP120	ltpFR	6	16	n/a	n/a	n/a	n/a	n/a	n/a	n/a	n/a	n/a	n/a	n/a
3261.928	n/a	REC_WORD	1630964	wordpools/wasnorm_wordpool.txt	LTP120	ltpFR	6	16	1	SEAL	1262	n/a	n/a	1	n/a	n/a	n/a	n/a	n/a
3263.096	n/a	REC_WORD	1631548	wordpools/wasnorm_wordpool.txt	LTP120	ltpFR	6	16	1	GAZELLE	628	n/a	n/a	1	n/a	n/a	n/a	n/a	n/a
3264.698	n/a	REC_WORD	1632349	wordpools/wasnorm_wordpool.txt	LTP120	ltpFR	6	16	0	BIKE	125	n/a	n/a	1	n/a	n/a	n/a	n/a	n/a
3266.024	n/a	REC_WORD	1633012	wordpools/wasnorm_wordpool.txt	LTP120	ltpFR	6	16	0	MOTORCYCLE	923	n/a	n/a	1	n/a	n/a	n/a	n/a	n/a
3275.354	n/a	REC_WORD	1637677	wordpools/wasnorm_wordpool.txt	LTP120	ltpFR	6	16	1	UNIVERSITY	1541	n/a	n/a	0	n/a	n/a	n/a	n/a	n/a
3277.668	n/a	REC_WORD	1638834	wordpools/wasnorm_wordpool.txt	LTP120	ltpFR	6	16	1	BILL	126	n/a	n/a	0	n/a	n/a	n/a	n/a	n/a
3279.144	n/a	REC_WORD	1639572	wordpools/wasnorm_wordpool.txt	LTP120	ltpFR	6	16	1	DUNGEON	507	n/a	n/a	0	n/a	n/a	n/a	n/a	n/a
3369.776	n/a	REC_START	1684888	n/a	LTP120	ltpFR	6	1	n/a	n/a	n/a	n/a	n/a	n/a	n/a	n/a	n/a	n/a	n/a
3369.808	n/a	RECOG_LURE	1684904	n/a	LTP120	ltpFR	6	1	n/a	COACH	331	0	3	n/a	n/a	n/a	n/a	n/a	n/a
3371.118	n/a	RECOG_RESP	1685559	n/a	LTP120	ltpFR	6	1	n/a	COACH	331	0	n/a	n/a	n/a	n/a	n/a	n/a	n/a
3372.984	n/a	RECOG_CONF	1686492	n/a	LTP120	ltpFR	6	1	n/a	COACH	331	n/a	3	n/a	n/a	n/a	n/a	n/a	n/a
3374.51	n/a	RECOG_TARGET	1687255	n/a	LTP120	ltpFR	6	1	0	MINK	897	1	5	0	n/a	n/a	n/a	n/a	n/a
3375.916	n/a	RECOG_RESP	1687958	n/a	LTP120	ltpFR	6	1	0	MINK	897	1	n/a	0	n/a	n/a	n/a	n/a	n/a
3376.894	n/a	RECOG_CONF	1688447	n/a	LTP120	ltpFR	6	1	0	MINK	897	n/a	5	0	n/a	n/a	n/a	n/a	n/a
3378.43	n/a	RECOG_TARGET	1689215	n/a	LTP120	ltpFR	6	1	0	EWE	542	1	5	1	n/a	n/a	n/a	n/a	n/a
3379.148	n/a	RECOG_RESP	1689574	n/a	LTP120	ltpFR	6	1	0	EWE	542	1	n/a	1	n/a	n/a	n/a	n/a	n/a
3380.036	n/a	RECOG_CONF	1690018	n/a	LTP120	ltpFR	6	1	0	EWE	542	n/a	5	1	n/a	n/a	n/a	n/a	n/a
3381.528	n/a	RECOG_TARGET	1690764	n/a	LTP120	ltpFR	6	1	1	POSTAGE	1113	0	5	0	n/a	n/a	n/a	n/a	n/a
3382.142	n/a	RECOG_RESP	1691071	n/a	LTP120	ltpFR	6	1	1	POSTAGE	1113	0	n/a	0	n/a	n/a	n/a	n/a	n/a
3383.09	n/a	RECOG_CONF	1691545	n/a	LTP120	ltpFR	6	1	1	POSTAGE	1113	n/a	5	0	n/a	n/a	n/a	n/a	n/a
3384.448	n/a	RECOG_LURE	1692224	n/a	LTP120	ltpFR	6	1	n/a	AMBULANCE	19	0	3	n/a	n/a	n/a	n/a	n/a	n/a
3385.624	n/a	RECOG_RESP	1692812	n/a	LTP120	ltpFR	6	1	n/a	AMBULANCE	19	0	n/a	n/a	n/a	n/a	n/a	n/a	n/a
3386.992	n/a	RECOG_CONF	1693496	n/a	LTP120	ltpFR	6	1	n/a	AMBULANCE	19	n/a	3	n/a	n/a	n/a	n/a	n/a	n/a
3388.386	n/a	RECOG_TARGET	1694193	n/a	LTP120	ltpFR	6	1	1	CHICK	296	1	5	1	n/a	n/a	n/a	n/a	n/a
3389.476	n/a	RECOG_RESP	1694738	n/a	LTP120	ltpFR	6	1	1	CHICK	296	1	n/a	1	n/a	n/a	n/a	n/a	n/a
3390.324	n/a	RECOG_CONF	1695162	n/a	LTP120	ltpFR	6	1	1	CHICK	296	n/a	5	1	n/a	n/a	n/a	n/a	n/a
3391.716	n/a	RECOG_LURE	1695858	n/a	LTP120	ltpFR	6	1	n/a	DIGGER	464	0	5	n/a	n/a	n/a	n/a	n/a	n/a
3392.438	n/a	RECOG_RESP	1696219	n/a	LTP120	ltpFR	6	1	n/a	DIGGER	464	0	n/a	n/a	n/a	n/a	n/a	n/a	n/a
3393.306	n/a	RECOG_CONF	1696653	n/a	LTP120	ltpFR	6	1	n/a	DIGGER	464	n/a	5	n/a	n/a	n/a	n/a	n/a	n/a
3394.688	n/a	RECOG_TARGET	1697344	n/a	LTP120	ltpFR	6	1	0	REPTILE	1185	1	5	0	n/a	n/a	n/a	n/a	n/a
3395.282	n/a	RECOG_RESP	1697641	n/a	LTP120	ltpFR	6	1	0	REPTILE	1185	1	n/a	0	n/a	n/a	n/a	n/a	n/a
3396.04	n/a	RECOG_CONF	1698020	n/a	LTP120	ltpFR	6	1	0	REPTILE	1185	n/a	5	0	n/a	n/a	n/a	n/a	n/a
3397.468	n/a	RECOG_TARGET	1698734	n/a	LTP120	ltpFR	6	1	1	NEPTUNE	943	1	5	0	n/a	n/a	n/a	n/a	n/a
3398.036	n/a	RECOG_RESP	1699018	n/a	LTP120	ltpFR	6	1	1	NEPTUNE	943	1	n/a	0	n/a	n/a	n/a	n/a	n/a
3398.774	n/a	RECOG_CONF	1699387	n/a	LTP120	ltpFR	6	1	1	NEPTUNE	943	n/a	5	0	n/a	n/a	n/a	n/a	n/a
3400.156	n/a	RECOG_TARGET	1700078	n/a	LTP120	ltpFR	6	1	0	BIOLOGIST	128	1	2	1	n/a	n/a	n/a	n/a	n/a
3400.83	n/a	RECOG_RESP	1700415	n/a	LTP120	ltpFR	6	1	0	BIOLOGIST	128	1	n/a	1	n/a	n/a	n/a	n/a	n/a
3402.376	n/a	RECOG_CONF	1701188	n/a	LTP120	ltpFR	6	1	0	BIOLOGIST	128	n/a	2	1	n/a	n/a	n/a	n/a	n/a
3403.744	n/a	RECOG_LURE	1701872	n/a	LTP120	ltpFR	6	1	n/a	FIG	563	0	5	n/a	n/a	n/a	n/a	n/a	n/a
3404.462	n/a	RECOG_RESP	1702231	n/a	LTP120	ltpFR	6	1	n/a	FIG	563	0	n/a	n/a	n/a	n/a	n/a	n/a	n/a
3405.31	n/a	RECOG_CONF	1702655	n/a	LTP120	ltpFR	6	1	n/a	FIG	563	n/a	5	n/a	n/a	n/a	n/a	n/a	n/a
3406.732	n/a	RECOG_TARGET	1703366	n/a	LTP120	ltpFR	6	1	0	RING	1193	1	5	0	n/a	n/a	n/a	n/a	n/a
3407.326	n/a	RECOG_RESP	1703663	n/a	LTP120	ltpFR	6	1	0	RING	1193	1	n/a	0	n/a	n/a	n/a	n/a	n/a
3408.084	n/a	RECOG_CONF	1704042	n/a	LTP120	ltpFR	6	1	0	RING	1193	n/a	5	0	n/a	n/a	n/a	n/a	n/a
3409.446	n/a	RECOG_LURE	1704723	n/a	LTP120	ltpFR	6	1	n/a	MEAT	883	0	2	n/a	n/a	n/a	n/a	n/a	n/a
3410.34	n/a	RECOG_RESP	1705170	n/a	LTP120	ltpFR	6	1	n/a	MEAT	883	0	n/a	n/a	n/a	n/a	n/a	n/a	n/a
3411.466	n/a	RECOG_CONF	1705733	n/a	LTP120	ltpFR	6	1	n/a	MEAT	883	n/a	2	n/a	n/a	n/a	n/a	n/a	n/a
3412.9	n/a	RECOG_TARGET	1706450	n/a	LTP120	ltpFR	6	1	-1	FEAST	556	1	5	-1	n/a	n/a	n/a	n/a	n/a
3413.476	n/a	RECOG_RESP	1706738	n/a	LTP120	ltpFR	6	1	-1	FEAST	556	1	n/a	-1	n/a	n/a	n/a	n/a	n/a
3414.29	n/a	RECOG_CONF	1707145	n/a	LTP120	ltpFR	6	1	-1	FEAST	556	n/a	5	-1	n/a	n/a	n/a	n/a	n/a
3415.73	n/a	RECOG_LURE	1707865	n/a	LTP120	ltpFR	6	1	n/a	SPAGHETTI	1346	0	5	n/a	n/a	n/a	n/a	n/a	n/a
3416.396	n/a	RECOG_RESP	1708198	n/a	LTP120	ltpFR	6	1	n/a	SPAGHETTI	1346	0	n/a	n/a	n/a	n/a	n/a	n/a	n/a
3417.184	n/a	RECOG_CONF	1708592	n/a	LTP120	ltpFR	6	1	n/a	SPAGHETTI	1346	n/a	5	n/a	n/a	n/a	n/a	n/a	n/a
3418.544	n/a	RECOG_LURE	1709272	n/a	LTP120	ltpFR	6	1	n/a	DRUG	501	1	2	n/a	n/a	n/a	n/a	n/a	n/a
3419.758	n/a	RECOG_RESP	1709879	n/a	LTP120	ltpFR	6	1	n/a	DRUG	501	1	n/a	n/a	n/a	n/a	n/a	n/a	n/a
3420.726	n/a	RECOG_CONF	1710363	n/a	LTP120	ltpFR	6	1	n/a	DRUG	501	n/a	2	n/a	n/a	n/a	n/a	n/a	n/a
3422.132	n/a	RECOG_TARGET	1711066	n/a	LTP120	ltpFR	6	1	-1	HERB	704	1	5	-1	n/a	n/a	n/a	n/a	n/a
3422.99	n/a	RECOG_RESP	1711495	n/a	LTP120	ltpFR	6	1	-1	HERB	704	1	n/a	-1	n/a	n/a	n/a	n/a	n/a
3423.778	n/a	RECOG_CONF	1711889	n/a	LTP120	ltpFR	6	1	-1	HERB	704	n/a	5	-1	n/a	n/a	n/a	n/a	n/a
3425.252	n/a	RECOG_LURE	1712626	n/a	LTP120	ltpFR	6	1	n/a	BENCH	121	0	3	n/a	n/a	n/a	n/a	n/a	n/a
3425.954	n/a	RECOG_RESP	1712977	n/a	LTP120	ltpFR	6	1	n/a	BENCH	121	0	n/a	n/a	n/a	n/a	n/a	n/a	n/a
3427.85	n/a	RECOG_CONF	1713925	n/a	LTP120	ltpFR	6	1	n/a	BENCH	121	n/a	3	n/a	n/a	n/a	n/a	n/a	n/a
3429.206	n/a	RECOG_LURE	1714603	n/a	LTP120	ltpFR	6	1	n/a	BACON	67	0	2	n/a	n/a	n/a	n/a	n/a	n/a
3430.174	n/a	RECOG_RESP	1715087	n/a	LTP120	ltpFR	6	1	n/a	BACON	67	0	n/a	n/a	n/a	n/a	n/a	n/a	n/a
3431.092	n/a	RECOG_CONF	1715546	n/a	LTP120	ltpFR	6	1	n/a	BACON	67	n/a	2	n/a	n/a	n/a	n/a	n/a	n/a
3432.478	n/a	RECOG_TARGET	1716239	n/a	LTP120	ltpFR	6	1	0	BANDIT	81	1	5	1	n/a	n/a	n/a	n/a	n/a
3433.306	n/a	RECOG_RESP	1716653	n/a	LTP120	ltpFR	6	1	0	BANDIT	81	1	n/a	1	n/a	n/a	n/a	n/a	n/a
3434.066	n/a	RECOG_CONF	1717033	n/a	LTP120	ltpFR	6	1	0	BANDIT	81	n/a	5	1	n/a	n/a	n/a	n/a	n/a
3445.212	n/a	REC_START	1722606	n/a	LTP120	ltpFR	6	2	n/a	n/a	n/a	n/a	n/a	n/a	n/a	n/a	n/a	n/a	n/a
3445.246	n/a	RECOG_LURE	1722623	n/a	LTP120	ltpFR	6	2	n/a	STEWARDESS	1381	0	5	n/a	n/a	n/a	n/a	n/a	n/a
3446.176	n/a	RECOG_RESP	1723088	n/a	LTP120	ltpFR	6	2	n/a	STEWARDESS	1381	0	n/a	n/a	n/a	n/a	n/a	n/a	n/a
3447.162	n/a	RECOG_CONF	1723581	n/a	LTP120	ltpFR	6	2	n/a	STEWARDESS	1381	n/a	5	n/a	n/a	n/a	n/a	n/a	n/a
3448.642	n/a	RECOG_LURE	1724321	n/a	LTP120	ltpFR	6	2	n/a	PORCUPINE	1107	0	5	n/a	n/a	n/a	n/a	n/a	n/a
3449.766	n/a	RECOG_RESP	1724883	n/a	LTP120	ltpFR	6	2	n/a	PORCUPINE	1107	0	n/a	n/a	n/a	n/a	n/a	n/a	n/a
3450.634	n/a	RECOG_CONF	1725317	n/a	LTP120	ltpFR	6	2	n/a	PORCUPINE	1107	n/a	5	n/a	n/a	n/a	n/a	n/a	n/a
3451.998	n/a	RECOG_LURE	1725999	n/a	LTP120	ltpFR	6	2	n/a	PELT	1040	0	3	n/a	n/a	n/a	n/a	n/a	n/a
3453.0	n/a	RECOG_RESP	1726500	n/a	LTP120	ltpFR	6	2	n/a	PELT	1040	0	n/a	n/a	n/a	n/a	n/a	n/a	n/a
3454.148	n/a	RECOG_CONF	1727074	n/a	LTP120	ltpFR	6	2	n/a	PELT	1040	n/a	3	n/a	n/a	n/a	n/a	n/a	n/a
3455.584	n/a	RECOG_TARGET	1727792	n/a	LTP120	ltpFR	6	2	-1	RAG	1160	1	5	-1	n/a	n/a	n/a	n/a	n/a
3456.212	n/a	RECOG_RESP	1728106	n/a	LTP120	ltpFR	6	2	-1	RAG	1160	1	n/a	-1	n/a	n/a	n/a	n/a	n/a
3457.03	n/a	RECOG_CONF	1728515	n/a	LTP120	ltpFR	6	2	-1	RAG	1160	n/a	5	-1	n/a	n/a	n/a	n/a	n/a
3458.414	n/a	RECOG_LURE	1729207	n/a	LTP120	ltpFR	6	2	n/a	LIP	828	0	5	n/a	n/a	n/a	n/a	n/a	n/a
3459.136	n/a	RECOG_RESP	1729568	n/a	LTP120	ltpFR	6	2	n/a	LIP	828	0	n/a	n/a	n/a	n/a	n/a	n/a	n/a
3459.934	n/a	RECOG_CONF	1729967	n/a	LTP120	ltpFR	6	2	n/a	LIP	828	n/a	5	n/a	n/a	n/a	n/a	n/a	n/a
3461.386	n/a	RECOG_LURE	1730693	n/a	LTP120	ltpFR	6	2	n/a	CABBAGE	210	0	4	n/a	n/a	n/a	n/a	n/a	n/a
3462.118	n/a	RECOG_RESP	1731059	n/a	LTP120	ltpFR	6	2	n/a	CABBAGE	210	0	n/a	n/a	n/a	n/a	n/a	n/a	n/a
3463.116	n/a	RECOG_CONF	1731558	n/a	LTP120	ltpFR	6	2	n/a	CABBAGE	210	n/a	4	n/a	n/a	n/a	n/a	n/a	n/a
3464.556	n/a	RECOG_TARGET	1732278	n/a	LTP120	ltpFR	6	2	-1	ZUCCHINI	1638	1	5	-1	n/a	n/a	n/a	n/a	n/a
3465.402	n/a	RECOG_RESP	1732701	n/a	LTP120	ltpFR	6	2	-1	ZUCCHINI	1638	1	n/a	-1	n/a	n/a	n/a	n/a	n/a
3466.11	n/a	RECOG_CONF	1733055	n/a	LTP120	ltpFR	6	2	-1	ZUCCHINI	1638	n/a	5	-1	n/a	n/a	n/a	n/a	n/a
3467.562	n/a	RECOG_LURE	1733781	n/a	LTP120	ltpFR	6	2	n/a	NIGHTGOWN	953	0	5	n/a	n/a	n/a	n/a	n/a	n/a
3468.334	n/a	RECOG_RESP	1734167	n/a	LTP120	ltpFR	6	2	n/a	NIGHTGOWN	953	0	n/a	n/a	n/a	n/a	n/a	n/a	n/a
3469.122	n/a	RECOG_CONF	1734561	n/a	LTP120	ltpFR	6	2	n/a	NIGHTGOWN	953	n/a	5	n/a	n/a	n/a	n/a	n/a	n/a
3470.5	n/a	RECOG_TARGET	1735250	n/a	LTP120	ltpFR	6	2	-1	FREEZER	604	1	5	-1	n/a	n/a	n/a	n/a	n/a
3471.078	n/a	RECOG_RESP	1735539	n/a	LTP120	ltpFR	6	2	-1	FREEZER	604	1	n/a	-1	n/a	n/a	n/a	n/a	n/a
3471.748	n/a	RECOG_CONF	1735874	n/a	LTP120	ltpFR	6	2	-1	FREEZER	604	n/a	5	-1	n/a	n/a	n/a	n/a	n/a
3473.182	n/a	RECOG_LURE	1736591	n/a	LTP120	ltpFR	6	2	n/a	PRODUCER	1129	0	3	n/a	n/a	n/a	n/a	n/a	n/a
3474.002	n/a	RECOG_RESP	1737001	n/a	LTP120	ltpFR	6	2	n/a	PRODUCER	1129	0	n/a	n/a	n/a	n/a	n/a	n/a	n/a
3474.96	n/a	RECOG_CONF	1737480	n/a	LTP120	ltpFR	6	2	n/a	PRODUCER	1129	n/a	3	n/a	n/a	n/a	n/a	n/a	n/a
3476.36	n/a	RECOG_LURE	1738180	n/a	LTP120	ltpFR	6	2	n/a	LILY	821	0	5	n/a	n/a	n/a	n/a	n/a	n/a
3477.194	n/a	RECOG_RESP	1738597	n/a	LTP120	ltpFR	6	2	n/a	LILY	821	0	n/a	n/a	n/a	n/a	n/a	n/a	n/a
3477.864	n/a	RECOG_CONF	1738932	n/a	LTP120	ltpFR	6	2	n/a	LILY	821	n/a	5	n/a	n/a	n/a	n/a	n/a	n/a
3479.282	n/a	RECOG_LURE	1739641	n/a	LTP120	ltpFR	6	2	n/a	CHIMNEY	301	0	5	n/a	n/a	n/a	n/a	n/a	n/a
3480.112	n/a	RECOG_RESP	1740056	n/a	LTP120	ltpFR	6	2	n/a	CHIMNEY	301	0	n/a	n/a	n/a	n/a	n/a	n/a	n/a
3481.096	n/a	RECOG_CONF	1740548	n/a	LTP120	ltpFR	6	2	n/a	CHIMNEY	301	n/a	5	n/a	n/a	n/a	n/a	n/a	n/a
3482.486	n/a	RECOG_TARGET	1741243	n/a	LTP120	ltpFR	6	2	0	VILLAGE	1566	1	5	1	n/a	n/a	n/a	n/a	n/a
3483.212	n/a	RECOG_RESP	1741606	n/a	LTP120	ltpFR	6	2	0	VILLAGE	1566	1	n/a	1	n/a	n/a	n/a	n/a	n/a
3483.88	n/a	RECOG_CONF	1741940	n/a	LTP120	ltpFR	6	2	0	VILLAGE	1566	n/a	5	1	n/a	n/a	n/a	n/a	n/a
3485.342	n/a	RECOG_TARGET	1742671	n/a	LTP120	ltpFR	6	2	0	NECKLACE	940	0	4	0	n/a	n/a	n/a	n/a	n/a
3486.086	n/a	RECOG_RESP	1743043	n/a	LTP120	ltpFR	6	2	0	NECKLACE	940	0	n/a	0	n/a	n/a	n/a	n/a	n/a
3487.044	n/a	RECOG_CONF	1743522	n/a	LTP120	ltpFR	6	2	0	NECKLACE	940	n/a	4	0	n/a	n/a	n/a	n/a	n/a
3488.422	n/a	RECOG_TARGET	1744211	n/a	LTP120	ltpFR	6	2	0	TOMATO	1476	1	5	0	n/a	n/a	n/a	n/a	n/a
3489.204	n/a	RECOG_RESP	1744602	n/a	LTP120	ltpFR	6	2	0	TOMATO	1476	1	n/a	0	n/a	n/a	n/a	n/a	n/a
3489.866	n/a	RECOG_CONF	1744933	n/a	LTP120	ltpFR	6	2	0	TOMATO	1476	n/a	5	0	n/a	n/a	n/a	n/a	n/a
3491.294	n/a	RECOG_LURE	1745647	n/a	LTP120	ltpFR	6	2	n/a	MONUMENT	913	0	4	n/a	n/a	n/a	n/a	n/a	n/a
3492.262	n/a	RECOG_RESP	1746131	n/a	LTP120	ltpFR	6	2	n/a	MONUMENT	913	0	n/a	n/a	n/a	n/a	n/a	n/a	n/a
3493.598	n/a	RECOG_CONF	1746799	n/a	LTP120	ltpFR	6	2	n/a	MONUMENT	913	n/a	4	n/a	n/a	n/a	n/a	n/a	n/a
3495.116	n/a	RECOG_TARGET	1747558	n/a	LTP120	ltpFR	6	2	1	BANANA	77	1	5	0	n/a	n/a	n/a	n/a	n/a
3495.774	n/a	RECOG_RESP	1747887	n/a	LTP120	ltpFR	6	2	1	BANANA	77	1	n/a	0	n/a	n/a	n/a	n/a	n/a
3496.452	n/a	RECOG_CONF	1748226	n/a	LTP120	ltpFR	6	2	1	BANANA	77	n/a	5	0	n/a	n/a	n/a	n/a	n/a
3497.87	n/a	RECOG_LURE	1748935	n/a	LTP120	ltpFR	6	2	n/a	POWDER	1117	0	5	n/a	n/a	n/a	n/a	n/a	n/a
3498.522	n/a	RECOG_RESP	1749261	n/a	LTP120	ltpFR	6	2	n/a	POWDER	1117	0	n/a	n/a	n/a	n/a	n/a	n/a	n/a
3499.246	n/a	RECOG_CONF	1749623	n/a	LTP120	ltpFR	6	2	n/a	POWDER	1117	n/a	5	n/a	n/a	n/a	n/a	n/a	n/a
3500.666	n/a	RECOG_TARGET	1750333	n/a	LTP120	ltpFR	6	2	1	MOUSE	925	1	5	1	n/a	n/a	n/a	n/a	n/a
3501.3	n/a	RECOG_RESP	1750650	n/a	LTP120	ltpFR	6	2	1	MOUSE	925	1	n/a	1	n/a	n/a	n/a	n/a	n/a
3501.93	n/a	RECOG_CONF	1750965	n/a	LTP120	ltpFR	6	2	1	MOUSE	925	n/a	5	1	n/a	n/a	n/a	n/a	n/a
3503.404	n/a	RECOG_TARGET	1751702	n/a	LTP120	ltpFR	6	2	-1	OFFICE	972	1	5	-1	n/a	n/a	n/a	n/a	n/a
3504.03	n/a	RECOG_RESP	1752015	n/a	LTP120	ltpFR	6	2	-1	OFFICE	972	1	n/a	-1	n/a	n/a	n/a	n/a	n/a
3504.724	n/a	RECOG_CONF	1752362	n/a	LTP120	ltpFR	6	2	-1	OFFICE	972	n/a	5	-1	n/a	n/a	n/a	n/a	n/a
3517.072	n/a	REC_START	1758536	n/a	LTP120	ltpFR	6	3	n/a	n/a	n/a	n/a	n/a	n/a	n/a	n/a	n/a	n/a	n/a
3517.098	n/a	RECOG_TARGET	1758549	n/a	LTP120	ltpFR	6	3	0	WINE	1613	1	5	0	n/a	n/a	n/a	n/a	n/a
3517.846	n/a	RECOG_RESP	1758923	n/a	LTP120	ltpFR	6	3	0	WINE	1613	1	n/a	0	n/a	n/a	n/a	n/a	n/a
3518.604	n/a	RECOG_CONF	1759302	n/a	LTP120	ltpFR	6	3	0	WINE	1613	n/a	5	0	n/a	n/a	n/a	n/a	n/a
3520.136	n/a	RECOG_LURE	1760068	n/a	LTP120	ltpFR	6	3	n/a	DEER	444	0	5	n/a	n/a	n/a	n/a	n/a	n/a
3520.938	n/a	RECOG_RESP	1760469	n/a	LTP120	ltpFR	6	3	n/a	DEER	444	0	n/a	n/a	n/a	n/a	n/a	n/a	n/a
3521.716	n/a	RECOG_CONF	1760858	n/a	LTP120	ltpFR	6	3	n/a	DEER	444	n/a	5	n/a	n/a	n/a	n/a	n/a	n/a
3523.1	n/a	RECOG_TARGET	1761550	n/a	LTP120	ltpFR	6	3	-1	LITERATURE	831	1	5	-1	n/a	n/a	n/a	n/a	n/a
3523.892	n/a	RECOG_RESP	1761946	n/a	LTP120	ltpFR	6	3	-1	LITERATURE	831	1	n/a	-1	n/a	n/a	n/a	n/a	n/a
3524.52	n/a	RECOG_CONF	1762260	n/a	LTP120	ltpFR	6	3	-1	LITERATURE	831	n/a	5	-1	n/a	n/a	n/a	n/a	n/a
3526.02	n/a	RECOG_TARGET	1763010	n/a	LTP120	ltpFR	6	3	-1	COMB	351	0	4	-1	n/a	n/a	n/a	n/a	n/a
3526.816	n/a	RECOG_RESP	1763408	n/a	LTP120	ltpFR	6	3	-1	COMB	351	0	n/a	-1	n/a	n/a	n/a	n/a	n/a
3527.674	n/a	RECOG_CONF	1763837	n/a	LTP120	ltpFR	6	3	-1	COMB	351	n/a	4	-1	n/a	n/a	n/a	n/a	n/a
3529.05	n/a	RECOG_LURE	1764525	n/a	LTP120	ltpFR	6	3	n/a	PILOT	1070	1	4	n/a	n/a	n/a	n/a	n/a	n/a
3529.848	n/a	RECOG_RESP	1764924	n/a	LTP120	ltpFR	6	3	n/a	PILOT	1070	1	n/a	n/a	n/a	n/a	n/a	n/a	n/a
3531.146	n/a	RECOG_CONF	1765573	n/a	LTP120	ltpFR	6	3	n/a	PILOT	1070	n/a	4	n/a	n/a	n/a	n/a	n/a	n/a
3532.612	n/a	RECOG_TARGET	1766306	n/a	LTP120	ltpFR	6	3	0	DAM	436	1	5	1	n/a	n/a	n/a	n/a	n/a
3533.38	n/a	RECOG_RESP	1766690	n/a	LTP120	ltpFR	6	3	0	DAM	436	1	n/a	1	n/a	n/a	n/a	n/a	n/a
3534.038	n/a	RECOG_CONF	1767019	n/a	LTP120	ltpFR	6	3	0	DAM	436	n/a	5	1	n/a	n/a	n/a	n/a	n/a
3535.484	n/a	RECOG_TARGET	1767742	n/a	LTP120	ltpFR	6	3	0	PAGE	1001	1	5	0	n/a	n/a	n/a	n/a	n/a
3536.084	n/a	RECOG_RESP	1768042	n/a	LTP120	ltpFR	6	3	0	PAGE	1001	1	n/a	0	n/a	n/a	n/a	n/a	n/a
3536.752	n/a	RECOG_CONF	1768376	n/a	LTP120	ltpFR	6	3	0	PAGE	1001	n/a	5	0	n/a	n/a	n/a	n/a	n/a
3538.14	n/a	RECOG_TARGET	1769070	n/a	LTP120	ltpFR	6	3	0	BAIT	70	1	5	0	n/a	n/a	n/a	n/a	n/a
3538.728	n/a	RECOG_RESP	1769364	n/a	LTP120	ltpFR	6	3	0	BAIT	70	1	n/a	0	n/a	n/a	n/a	n/a	n/a
3539.446	n/a	RECOG_CONF	1769723	n/a	LTP120	ltpFR	6	3	0	BAIT	70	n/a	5	0	n/a	n/a	n/a	n/a	n/a
3540.936	n/a	RECOG_LURE	1770468	n/a	LTP120	ltpFR	6	3	n/a	STY	1397	0	5	n/a	n/a	n/a	n/a	n/a	n/a
3541.722	n/a	RECOG_RESP	1770861	n/a	LTP120	ltpFR	6	3	n/a	STY	1397	0	n/a	n/a	n/a	n/a	n/a	n/a	n/a
3542.44	n/a	RECOG_CONF	1771220	n/a	LTP120	ltpFR	6	3	n/a	STY	1397	n/a	5	n/a	n/a	n/a	n/a	n/a	n/a
3543.8	n/a	RECOG_LURE	1771900	n/a	LTP120	ltpFR	6	3	n/a	LAWYER	806	0	5	n/a	n/a	n/a	n/a	n/a	n/a
3544.554	n/a	RECOG_RESP	1772277	n/a	LTP120	ltpFR	6	3	n/a	LAWYER	806	0	n/a	n/a	n/a	n/a	n/a	n/a	n/a
3545.264	n/a	RECOG_CONF	1772632	n/a	LTP120	ltpFR	6	3	n/a	LAWYER	806	n/a	5	n/a	n/a	n/a	n/a	n/a	n/a
3546.654	n/a	RECOG_TARGET	1773327	n/a	LTP120	ltpFR	6	3	1	HERD	705	0	2	1	n/a	n/a	n/a	n/a	n/a
3548.176	n/a	RECOG_RESP	1774088	n/a	LTP120	ltpFR	6	3	1	HERD	705	0	n/a	1	n/a	n/a	n/a	n/a	n/a
3549.214	n/a	RECOG_CONF	1774607	n/a	LTP120	ltpFR	6	3	1	HERD	705	n/a	2	1	n/a	n/a	n/a	n/a	n/a
3550.7	n/a	RECOG_TARGET	1775350	n/a	LTP120	ltpFR	6	3	-1	BUILDER	190	1	3	-1	n/a	n/a	n/a	n/a	n/a
3551.588	n/a	RECOG_RESP	1775794	n/a	LTP120	ltpFR	6	3	-1	BUILDER	190	1	n/a	-1	n/a	n/a	n/a	n/a	n/a
3552.736	n/a	RECOG_CONF	1776368	n/a	LTP120	ltpFR	6	3	-1	BUILDER	190	n/a	3	-1	n/a	n/a	n/a	n/a	n/a
3554.104	n/a	RECOG_LURE	1777052	n/a	LTP120	ltpFR	6	3	n/a	CABLE	213	0	3	n/a	n/a	n/a	n/a	n/a	n/a
3554.992	n/a	RECOG_RESP	1777496	n/a	LTP120	ltpFR	6	3	n/a	CABLE	213	0	n/a	n/a	n/a	n/a	n/a	n/a	n/a
3556.158	n/a	RECOG_CONF	1778079	n/a	LTP120	ltpFR	6	3	n/a	CABLE	213	n/a	3	n/a	n/a	n/a	n/a	n/a	n/a
3557.584	n/a	RECOG_LURE	1778792	n/a	LTP120	ltpFR	6	3	n/a	BLUEPRINT	142	0	5	n/a	n/a	n/a	n/a	n/a	n/a
3558.314	n/a	RECOG_RESP	1779157	n/a	LTP120	ltpFR	6	3	n/a	BLUEPRINT	142	0	n/a	n/a	n/a	n/a	n/a	n/a	n/a
3559.052	n/a	RECOG_CONF	1779526	n/a	LTP120	ltpFR	6	3	n/a	BLUEPRINT	142	n/a	5	n/a	n/a	n/a	n/a	n/a	n/a
3560.44	n/a	RECOG_LURE	1780220	n/a	LTP120	ltpFR	6	3	n/a	NICOTINE	951	0	5	n/a	n/a	n/a	n/a	n/a	n/a
3561.228	n/a	RECOG_RESP	1780614	n/a	LTP120	ltpFR	6	3	n/a	NICOTINE	951	0	n/a	n/a	n/a	n/a	n/a	n/a	n/a
3562.016	n/a	RECOG_CONF	1781008	n/a	LTP120	ltpFR	6	3	n/a	NICOTINE	951	n/a	5	n/a	n/a	n/a	n/a	n/a	n/a
3563.378	n/a	RECOG_TARGET	1781689	n/a	LTP120	ltpFR	6	3	1	LAMP	798	1	5	0	n/a	n/a	n/a	n/a	n/a
3564.152	n/a	RECOG_RESP	1782076	n/a	LTP120	ltpFR	6	3	1	LAMP	798	1	n/a	0	n/a	n/a	n/a	n/a	n/a
3564.85	n/a	RECOG_CONF	1782425	n/a	LTP120	ltpFR	6	3	1	LAMP	798	n/a	5	0	n/a	n/a	n/a	n/a	n/a
3566.29	n/a	RECOG_TARGET	1783145	n/a	LTP120	ltpFR	6	3	1	TECHNICIAN	1443	1	5	1	n/a	n/a	n/a	n/a	n/a
3566.944	n/a	RECOG_RESP	1783472	n/a	LTP120	ltpFR	6	3	1	TECHNICIAN	1443	1	n/a	1	n/a	n/a	n/a	n/a	n/a
3567.674	n/a	RECOG_CONF	1783837	n/a	LTP120	ltpFR	6	3	1	TECHNICIAN	1443	n/a	5	1	n/a	n/a	n/a	n/a	n/a
3569.206	n/a	RECOG_TARGET	1784603	n/a	LTP120	ltpFR	6	3	1	JAW	751	1	5	0	n/a	n/a	n/a	n/a	n/a
3569.774	n/a	RECOG_RESP	1784887	n/a	LTP120	ltpFR	6	3	1	JAW	751	1	n/a	0	n/a	n/a	n/a	n/a	n/a
3570.476	n/a	RECOG_CONF	1785238	n/a	LTP120	ltpFR	6	3	1	JAW	751	n/a	5	0	n/a	n/a	n/a	n/a	n/a
3571.86	n/a	RECOG_LURE	1785930	n/a	LTP120	ltpFR	6	3	n/a	NOOSE	956	0	5	n/a	n/a	n/a	n/a	n/a	n/a
3572.602	n/a	RECOG_RESP	1786301	n/a	LTP120	ltpFR	6	3	n/a	NOOSE	956	0	n/a	n/a	n/a	n/a	n/a	n/a	n/a
3573.3	n/a	RECOG_CONF	1786650	n/a	LTP120	ltpFR	6	3	n/a	NOOSE	956	n/a	5	n/a	n/a	n/a	n/a	n/a	n/a
3574.698	n/a	RECOG_LURE	1787349	n/a	LTP120	ltpFR	6	3	n/a	PASSENGER	1020	0	1	n/a	n/a	n/a	n/a	n/a	n/a
3575.874	n/a	RECOG_RESP	1787937	n/a	LTP120	ltpFR	6	3	n/a	PASSENGER	1020	0	n/a	n/a	n/a	n/a	n/a	n/a	n/a
3576.722	n/a	RECOG_CONF	1788361	n/a	LTP120	ltpFR	6	3	n/a	PASSENGER	1020	n/a	1	n/a	n/a	n/a	n/a	n/a	n/a
3587.692	n/a	REC_START	1793846	n/a	LTP120	ltpFR	6	4	n/a	n/a	n/a	n/a	n/a	n/a	n/a	n/a	n/a	n/a	n/a
3587.716	n/a	RECOG_TARGET	1793858	n/a	LTP120	ltpFR	6	4	1	YOLK	1633	1	5	0	n/a	n/a	n/a	n/a	n/a
3588.584	n/a	RECOG_RESP	1794292	n/a	LTP120	ltpFR	6	4	1	YOLK	1633	1	n/a	0	n/a	n/a	n/a	n/a	n/a
3589.412	n/a	RECOG_CONF	1794706	n/a	LTP120	ltpFR	6	4	1	YOLK	1633	n/a	5	0	n/a	n/a	n/a	n/a	n/a
3590.828	n/a	RECOG_LURE	1795414	n/a	LTP120	ltpFR	6	4	n/a	KEYBOARD	774	0	5	n/a	n/a	n/a	n/a	n/a	n/a
3591.768	n/a	RECOG_RESP	1795884	n/a	LTP120	ltpFR	6	4	n/a	KEYBOARD	774	0	n/a	n/a	n/a	n/a	n/a	n/a	n/a
3592.526	n/a	RECOG_CONF	1796263	n/a	LTP120	ltpFR	6	4	n/a	KEYBOARD	774	n/a	5	n/a	n/a	n/a	n/a	n/a	n/a
3593.868	n/a	RECOG_TARGET	1796934	n/a	LTP120	ltpFR	6	4	-1	TOWN	1491	1	5	-1	n/a	n/a	n/a	n/a	n/a
3594.56	n/a	RECOG_RESP	1797280	n/a	LTP120	ltpFR	6	4	-1	TOWN	1491	1	n/a	-1	n/a	n/a	n/a	n/a	n/a
3595.26	n/a	RECOG_CONF	1797630	n/a	LTP120	ltpFR	6	4	-1	TOWN	1491	n/a	5	-1	n/a	n/a	n/a	n/a	n/a
3596.656	n/a	RECOG_TARGET	1798328	n/a	LTP120	ltpFR	6	4	-1	WORM	1623	1	5	-1	n/a	n/a	n/a	n/a	n/a
3597.234	n/a	RECOG_RESP	1798617	n/a	LTP120	ltpFR	6	4	-1	WORM	1623	1	n/a	-1	n/a	n/a	n/a	n/a	n/a
3597.962	n/a	RECOG_CONF	1798981	n/a	LTP120	ltpFR	6	4	-1	WORM	1623	n/a	5	-1	n/a	n/a	n/a	n/a	n/a
3599.336	n/a	RECOG_TARGET	1799668	n/a	LTP120	ltpFR	6	4	-1	CAMEL	223	1	5	-1	n/a	n/a	n/a	n/a	n/a
3599.958	n/a	RECOG_RESP	1799979	n/a	LTP120	ltpFR	6	4	-1	CAMEL	223	1	n/a	-1	n/a	n/a	n/a	n/a	n/a
3600.656	n/a	RECOG_CONF	1800328	n/a	LTP120	ltpFR	6	4	-1	CAMEL	223	n/a	5	-1	n/a	n/a	n/a	n/a	n/a
3602.126	n/a	RECOG_TARGET	1801063	n/a	LTP120	ltpFR	6	4	-1	ACTRESS	6	0	1	-1	n/a	n/a	n/a	n/a	n/a
3603.042	n/a	RECOG_RESP	1801521	n/a	LTP120	ltpFR	6	4	-1	ACTRESS	6	0	n/a	-1	n/a	n/a	n/a	n/a	n/a
3605.026	n/a	RECOG_CONF	1802513	n/a	LTP120	ltpFR	6	4	-1	ACTRESS	6	n/a	1	-1	n/a	n/a	n/a	n/a	n/a
3606.428	n/a	RECOG_TARGET	1803214	n/a	LTP120	ltpFR	6	4	1	JUPITER	765	1	5	0	n/a	n/a	n/a	n/a	n/a
3607.282	n/a	RECOG_RESP	1803641	n/a	LTP120	ltpFR	6	4	1	JUPITER	765	1	n/a	0	n/a	n/a	n/a	n/a	n/a
3607.95	n/a	RECOG_CONF	1803975	n/a	LTP120	ltpFR	6	4	1	JUPITER	765	n/a	5	0	n/a	n/a	n/a	n/a	n/a
3609.29	n/a	RECOG_TARGET	1804645	n/a	LTP120	ltpFR	6	4	1	SKETCH	1315	1	5	0	n/a	n/a	n/a	n/a	n/a
3610.086	n/a	RECOG_RESP	1805043	n/a	LTP120	ltpFR	6	4	1	SKETCH	1315	1	n/a	0	n/a	n/a	n/a	n/a	n/a
3610.764	n/a	RECOG_CONF	1805382	n/a	LTP120	ltpFR	6	4	1	SKETCH	1315	n/a	5	0	n/a	n/a	n/a	n/a	n/a
3612.262	n/a	RECOG_TARGET	1806131	n/a	LTP120	ltpFR	6	4	0	VIDEO	1564	1	5	0	n/a	n/a	n/a	n/a	n/a
3612.8	n/a	RECOG_RESP	1806400	n/a	LTP120	ltpFR	6	4	0	VIDEO	1564	1	n/a	0	n/a	n/a	n/a	n/a	n/a
3613.458	n/a	RECOG_CONF	1806729	n/a	LTP120	ltpFR	6	4	0	VIDEO	1564	n/a	5	0	n/a	n/a	n/a	n/a	n/a
3614.884	n/a	RECOG_LURE	1807442	n/a	LTP120	ltpFR	6	4	n/a	ARTICLE	42	0	2	n/a	n/a	n/a	n/a	n/a	n/a
3615.902	n/a	RECOG_RESP	1807951	n/a	LTP120	ltpFR	6	4	n/a	ARTICLE	42	0	n/a	n/a	n/a	n/a	n/a	n/a	n/a
3616.92	n/a	RECOG_CONF	1808460	n/a	LTP120	ltpFR	6	4	n/a	ARTICLE	42	n/a	2	n/a	n/a	n/a	n/a	n/a	n/a
3618.364	n/a	RECOG_LURE	1809182	n/a	LTP120	ltpFR	6	4	n/a	GERM	632	0	5	n/a	n/a	n/a	n/a	n/a	n/a
3619.154	n/a	RECOG_RESP	1809577	n/a	LTP120	ltpFR	6	4	n/a	GERM	632	0	n/a	n/a	n/a	n/a	n/a	n/a	n/a
3619.894	n/a	RECOG_CONF	1809947	n/a	LTP120	ltpFR	6	4	n/a	GERM	632	n/a	5	n/a	n/a	n/a	n/a	n/a	n/a
3621.236	n/a	RECOG_TARGET	1810618	n/a	LTP120	ltpFR	6	4	-1	WINGS	1614	1	2	-1	n/a	n/a	n/a	n/a	n/a
3622.378	n/a	RECOG_RESP	1811189	n/a	LTP120	ltpFR	6	4	-1	WINGS	1614	1	n/a	-1	n/a	n/a	n/a	n/a	n/a
3623.346	n/a	RECOG_CONF	1811673	n/a	LTP120	ltpFR	6	4	-1	WINGS	1614	n/a	2	-1	n/a	n/a	n/a	n/a	n/a
3624.806	n/a	RECOG_LURE	1812403	n/a	LTP120	ltpFR	6	4	n/a	SHORTCAKE	1292	0	5	n/a	n/a	n/a	n/a	n/a	n/a
3625.58	n/a	RECOG_RESP	1812790	n/a	LTP120	ltpFR	6	4	n/a	SHORTCAKE	1292	0	n/a	n/a	n/a	n/a	n/a	n/a	n/a
3626.318	n/a	RECOG_CONF	1813159	n/a	LTP120	ltpFR	6	4	n/a	SHORTCAKE	1292	n/a	5	n/a	n/a	n/a	n/a	n/a	n/a
3627.77	n/a	RECOG_LURE	1813885	n/a	LTP120	ltpFR	6	4	n/a	CHEESE	289	0	3	n/a	n/a	n/a	n/a	n/a	n/a
3628.484	n/a	RECOG_RESP	1814242	n/a	LTP120	ltpFR	6	4	n/a	CHEESE	289	0	n/a	n/a	n/a	n/a	n/a	n/a	n/a
3629.392	n/a	RECOG_CONF	1814696	n/a	LTP120	ltpFR	6	4	n/a	CHEESE	289	n/a	3	n/a	n/a	n/a	n/a	n/a	n/a
3630.816	n/a	RECOG_LURE	1815408	n/a	LTP120	ltpFR	6	4	n/a	LOG	841	0	2	n/a	n/a	n/a	n/a	n/a	n/a
3631.996	n/a	RECOG_RESP	1815998	n/a	LTP120	ltpFR	6	4	n/a	LOG	841	0	n/a	n/a	n/a	n/a	n/a	n/a	n/a
3633.114	n/a	RECOG_CONF	1816557	n/a	LTP120	ltpFR	6	4	n/a	LOG	841	n/a	2	n/a	n/a	n/a	n/a	n/a	n/a
3634.562	n/a	RECOG_TARGET	1817281	n/a	LTP120	ltpFR	6	4	1	RUG	1215	1	5	0	n/a	n/a	n/a	n/a	n/a
3635.32	n/a	RECOG_RESP	1817660	n/a	LTP120	ltpFR	6	4	1	RUG	1215	1	n/a	0	n/a	n/a	n/a	n/a	n/a
3636.028	n/a	RECOG_CONF	1818014	n/a	LTP120	ltpFR	6	4	1	RUG	1215	n/a	5	0	n/a	n/a	n/a	n/a	n/a
3637.384	n/a	RECOG_LURE	1818692	n/a	LTP120	ltpFR	6	4	n/a	UMPIRE	1535	0	5	n/a	n/a	n/a	n/a	n/a	n/a
3638.172	n/a	RECOG_RESP	1819086	n/a	LTP120	ltpFR	6	4	n/a	UMPIRE	1535	0	n/a	n/a	n/a	n/a	n/a	n/a	n/a
3638.94	n/a	RECOG_CONF	1819470	n/a	LTP120	ltpFR	6	4	n/a	UMPIRE	1535	n/a	5	n/a	n/a	n/a	n/a	n/a	n/a
3640.29	n/a	RECOG_TARGET	1820145	n/a	LTP120	ltpFR	6	4	1	SCALLOP	1242	0	2	1	n/a	n/a	n/a	n/a	n/a
3641.126	n/a	RECOG_RESP	1820563	n/a	LTP120	ltpFR	6	4	1	SCALLOP	1242	0	n/a	1	n/a	n/a	n/a	n/a	n/a
3642.492	n/a	RECOG_CONF	1821246	n/a	LTP120	ltpFR	6	4	1	SCALLOP	1242	n/a	2	1	n/a	n/a	n/a	n/a	n/a
3643.876	n/a	RECOG_TARGET	1821938	n/a	LTP120	ltpFR	6	4	0	PRIEST	1122	1	5	1	n/a	n/a	n/a	n/a	n/a
3644.678	n/a	RECOG_RESP_VV	1822339	n/a	LTP120	ltpFR	6	4	0	PRIEST	1122	0	n/a	1	n/a	n/a	n/a	n/a	n/a
3645.486	n/a	RECOG_RESP	1822743	n/a	LTP120	ltpFR	6	4	0	PRIEST	1122	1	n/a	1	n/a	n/a	n/a	n/a	n/a
3646.404	n/a	RECOG_CONF	1823202	n/a	LTP120	ltpFR	6	4	0	PRIEST	1122	n/a	5	1	n/a	n/a	n/a	n/a	n/a
3647.888	n/a	RECOG_TARGET	1823944	n/a	LTP120	ltpFR	6	4	0	COMMITTEE	355	1	5	1	n/a	n/a	n/a	n/a	n/a
3648.618	n/a	RECOG_RESP	1824309	n/a	LTP120	ltpFR	6	4	0	COMMITTEE	355	1	n/a	1	n/a	n/a	n/a	n/a	n/a
3649.358	n/a	RECOG_CONF	1824679	n/a	LTP120	ltpFR	6	4	0	COMMITTEE	355	n/a	5	1	n/a	n/a	n/a	n/a	n/a
3667.736	n/a	REC_START	1833868	n/a	LTP120	ltpFR	6	5	n/a	n/a	n/a	n/a	n/a	n/a	n/a	n/a	n/a	n/a	n/a
3667.766	n/a	RECOG_TARGET	1833883	n/a	LTP120	ltpFR	6	5	1	MATCH	878	1	5	0	n/a	n/a	n/a	n/a	n/a
3668.858	n/a	RECOG_RESP	1834429	n/a	LTP120	ltpFR	6	5	1	MATCH	878	1	n/a	0	n/a	n/a	n/a	n/a	n/a
3669.568	n/a	RECOG_CONF	1834784	n/a	LTP120	ltpFR	6	5	1	MATCH	878	n/a	5	0	n/a	n/a	n/a	n/a	n/a
3671.072	n/a	RECOG_LURE	1835536	n/a	LTP120	ltpFR	6	5	n/a	FELLOW	558	0	4	n/a	n/a	n/a	n/a	n/a	n/a
3671.882	n/a	RECOG_RESP	1835941	n/a	LTP120	ltpFR	6	5	n/a	FELLOW	558	0	n/a	n/a	n/a	n/a	n/a	n/a	n/a
3672.88	n/a	RECOG_CONF	1836440	n/a	LTP120	ltpFR	6	5	n/a	FELLOW	558	n/a	4	n/a	n/a	n/a	n/a	n/a	n/a
3674.21	n/a	RECOG_LURE	1837105	n/a	LTP120	ltpFR	6	5	n/a	CRADLE	399	0	4	n/a	n/a	n/a	n/a	n/a	n/a
3675.024	n/a	RECOG_RESP	1837512	n/a	LTP120	ltpFR	6	5	n/a	CRADLE	399	0	n/a	n/a	n/a	n/a	n/a	n/a	n/a
3675.822	n/a	RECOG_CONF	1837911	n/a	LTP120	ltpFR	6	5	n/a	CRADLE	399	n/a	4	n/a	n/a	n/a	n/a	n/a	n/a
3677.206	n/a	RECOG_TARGET	1838603	n/a	LTP120	ltpFR	6	5	-1	SKELETON	1314	0	3	-1	n/a	n/a	n/a	n/a	n/a
3678.082	n/a	RECOG_RESP	1839041	n/a	LTP120	ltpFR	6	5	-1	SKELETON	1314	0	n/a	-1	n/a	n/a	n/a	n/a	n/a
3678.976	n/a	RECOG_CONF	1839488	n/a	LTP120	ltpFR	6	5	-1	SKELETON	1314	n/a	3	-1	n/a	n/a	n/a	n/a	n/a
3680.352	n/a	RECOG_TARGET	1840176	n/a	LTP120	ltpFR	6	5	0	SEAGULL	1261	1	5	0	n/a	n/a	n/a	n/a	n/a
3681.13	n/a	RECOG_RESP	1840565	n/a	LTP120	ltpFR	6	5	0	SEAGULL	1261	1	n/a	0	n/a	n/a	n/a	n/a	n/a
3681.8	n/a	RECOG_CONF	1840900	n/a	LTP120	ltpFR	6	5	0	SEAGULL	1261	n/a	5	0	n/a	n/a	n/a	n/a	n/a
3683.29	n/a	RECOG_LURE	1841645	n/a	LTP120	ltpFR	6	5	n/a	DECK	443	0	2	n/a	n/a	n/a	n/a	n/a	n/a
3685.342	n/a	RECOG_RESP	1842671	n/a	LTP120	ltpFR	6	5	n/a	DECK	443	0	n/a	n/a	n/a	n/a	n/a	n/a	n/a
3686.368	n/a	RECOG_CONF	1843184	n/a	LTP120	ltpFR	6	5	n/a	DECK	443	n/a	2	n/a	n/a	n/a	n/a	n/a	n/a
3687.85	n/a	RECOG_TARGET	1843925	n/a	LTP120	ltpFR	6	5	-1	BUILDING	191	1	5	-1	n/a	n/a	n/a	n/a	n/a
3688.534	n/a	RECOG_RESP	1844267	n/a	LTP120	ltpFR	6	5	-1	BUILDING	191	1	n/a	-1	n/a	n/a	n/a	n/a	n/a
3689.262	n/a	RECOG_CONF	1844631	n/a	LTP120	ltpFR	6	5	-1	BUILDING	191	n/a	5	-1	n/a	n/a	n/a	n/a	n/a
3690.606	n/a	RECOG_LURE	1845303	n/a	LTP120	ltpFR	6	5	n/a	BRUNETTE	181	0	2	n/a	n/a	n/a	n/a	n/a	n/a
3693.064	n/a	RECOG_RESP	1846532	n/a	LTP120	ltpFR	6	5	n/a	BRUNETTE	181	0	n/a	n/a	n/a	n/a	n/a	n/a	n/a
3694.77	n/a	RECOG_CONF	1847385	n/a	LTP120	ltpFR	6	5	n/a	BRUNETTE	181	n/a	2	n/a	n/a	n/a	n/a	n/a	n/a
3696.192	n/a	RECOG_TARGET	1848096	n/a	LTP120	ltpFR	6	5	0	DIAMOND	458	1	5	0	n/a	n/a	n/a	n/a	n/a
3697.024	n/a	RECOG_RESP	1848512	n/a	LTP120	ltpFR	6	5	0	DIAMOND	458	1	n/a	0	n/a	n/a	n/a	n/a	n/a
3697.614	n/a	RECOG_CONF	1848807	n/a	LTP120	ltpFR	6	5	0	DIAMOND	458	n/a	5	0	n/a	n/a	n/a	n/a	n/a
3699.096	n/a	RECOG_LURE	1849548	n/a	LTP120	ltpFR	6	5	n/a	VEHICLE	1553	0	5	n/a	n/a	n/a	n/a	n/a	n/a
3699.898	n/a	RECOG_RESP	1849949	n/a	LTP120	ltpFR	6	5	n/a	VEHICLE	1553	0	n/a	n/a	n/a	n/a	n/a	n/a	n/a
3700.616	n/a	RECOG_CONF	1850308	n/a	LTP120	ltpFR	6	5	n/a	VEHICLE	1553	n/a	5	n/a	n/a	n/a	n/a	n/a	n/a
3702.052	n/a	RECOG_LURE	1851026	n/a	LTP120	ltpFR	6	5	n/a	KNOB	787	0	5	n/a	n/a	n/a	n/a	n/a	n/a
3702.732	n/a	RECOG_RESP	1851366	n/a	LTP120	ltpFR	6	5	n/a	KNOB	787	0	n/a	n/a	n/a	n/a	n/a	n/a	n/a
3703.39	n/a	RECOG_CONF	1851695	n/a	LTP120	ltpFR	6	5	n/a	KNOB	787	n/a	5	n/a	n/a	n/a	n/a	n/a	n/a
3704.814	n/a	RECOG_TARGET	1852407	n/a	LTP120	ltpFR	6	5	-1	BALLOT	76	1	5	-1	n/a	n/a	n/a	n/a	n/a
3705.506	n/a	RECOG_RESP	1852753	n/a	LTP120	ltpFR	6	5	-1	BALLOT	76	1	n/a	-1	n/a	n/a	n/a	n/a	n/a
3706.164	n/a	RECOG_CONF	1853082	n/a	LTP120	ltpFR	6	5	-1	BALLOT	76	n/a	5	-1	n/a	n/a	n/a	n/a	n/a
3707.602	n/a	RECOG_TARGET	1853801	n/a	LTP120	ltpFR	6	5	0	DOUGHNUT	490	1	5	0	n/a	n/a	n/a	n/a	n/a
3708.27	n/a	RECOG_RESP	1854135	n/a	LTP120	ltpFR	6	5	0	DOUGHNUT	490	1	n/a	0	n/a	n/a	n/a	n/a	n/a
3709.266	n/a	RECOG_CONF	1854633	n/a	LTP120	ltpFR	6	5	0	DOUGHNUT	490	n/a	5	0	n/a	n/a	n/a	n/a	n/a
3710.758	n/a	RECOG_LURE	1855379	n/a	LTP120	ltpFR	6	5	n/a	CONTINENT	367	0	5	n/a	n/a	n/a	n/a	n/a	n/a
3711.462	n/a	RECOG_RESP	1855731	n/a	LTP120	ltpFR	6	5	n/a	CONTINENT	367	0	n/a	n/a	n/a	n/a	n/a	n/a	n/a
3712.272	n/a	RECOG_CONF	1856136	n/a	LTP120	ltpFR	6	5	n/a	CONTINENT	367	n/a	5	n/a	n/a	n/a	n/a	n/a	n/a
3713.638	n/a	RECOG_LURE	1856819	n/a	LTP120	ltpFR	6	5	n/a	CELLAR	267	0	2	n/a	n/a	n/a	n/a	n/a	n/a
3715.264	n/a	RECOG_RESP	1857632	n/a	LTP120	ltpFR	6	5	n/a	CELLAR	267	0	n/a	n/a	n/a	n/a	n/a	n/a	n/a
3716.232	n/a	RECOG_CONF	1858116	n/a	LTP120	ltpFR	6	5	n/a	CELLAR	267	n/a	2	n/a	n/a	n/a	n/a	n/a	n/a
3717.676	n/a	RECOG_LURE	1858838	n/a	LTP120	ltpFR	6	5	n/a	DESIGNER	451	0	2	n/a	n/a	n/a	n/a	n/a	n/a
3718.418	n/a	RECOG_RESP	1859209	n/a	LTP120	ltpFR	6	5	n/a	DESIGNER	451	0	n/a	n/a	n/a	n/a	n/a	n/a	n/a
3719.356	n/a	RECOG_CONF	1859678	n/a	LTP120	ltpFR	6	5	n/a	DESIGNER	451	n/a	2	n/a	n/a	n/a	n/a	n/a	n/a
3720.838	n/a	RECOG_LURE	1860419	n/a	LTP120	ltpFR	6	5	n/a	MUFFIN	929	0	3	n/a	n/a	n/a	n/a	n/a	n/a
3721.84	n/a	RECOG_RESP	1860920	n/a	LTP120	ltpFR	6	5	n/a	MUFFIN	929	0	n/a	n/a	n/a	n/a	n/a	n/a	n/a
3722.956	n/a	RECOG_CONF	1861478	n/a	LTP120	ltpFR	6	5	n/a	MUFFIN	929	n/a	3	n/a	n/a	n/a	n/a	n/a	n/a
3724.45	n/a	RECOG_TARGET	1862225	n/a	LTP120	ltpFR	6	5	0	TREE	1502	1	5	1	n/a	n/a	n/a	n/a	n/a
3725.072	n/a	RECOG_RESP	1862536	n/a	LTP120	ltpFR	6	5	0	TREE	1502	1	n/a	1	n/a	n/a	n/a	n/a	n/a
3725.73	n/a	RECOG_CONF	1862865	n/a	LTP120	ltpFR	6	5	0	TREE	1502	n/a	5	1	n/a	n/a	n/a	n/a	n/a
3727.264	n/a	RECOG_TARGET	1863632	n/a	LTP120	ltpFR	6	5	0	STOVE	1388	1	5	1	n/a	n/a	n/a	n/a	n/a
3727.916	n/a	RECOG_RESP	1863958	n/a	LTP120	ltpFR	6	5	0	STOVE	1388	1	n/a	1	n/a	n/a	n/a	n/a	n/a
3728.624	n/a	RECOG_CONF	1864312	n/a	LTP120	ltpFR	6	5	0	STOVE	1388	n/a	5	1	n/a	n/a	n/a	n/a	n/a
3730.096	n/a	RECOG_LURE	1865048	n/a	LTP120	ltpFR	6	5	n/a	QUAIL	1147	1	2	n/a	n/a	n/a	n/a	n/a	n/a
3731.498	n/a	RECOG_RESP	1865749	n/a	LTP120	ltpFR	6	5	n/a	QUAIL	1147	1	n/a	n/a	n/a	n/a	n/a	n/a	n/a
3732.944	n/a	RECOG_CONF	1866472	n/a	LTP120	ltpFR	6	5	n/a	QUAIL	1147	n/a	2	n/a	n/a	n/a	n/a	n/a	n/a
3744.888	n/a	REC_START	1872444	n/a	LTP120	ltpFR	6	6	n/a	n/a	n/a	n/a	n/a	n/a	n/a	n/a	n/a	n/a	n/a
3744.918	n/a	RECOG_LURE	1872459	n/a	LTP120	ltpFR	6	6	n/a	PRINTER	1126	0	1	n/a	n/a	n/a	n/a	n/a	n/a
3746.658	n/a	RECOG_RESP	1873329	n/a	LTP120	ltpFR	6	6	n/a	PRINTER	1126	0	n/a	n/a	n/a	n/a	n/a	n/a	n/a
3747.956	n/a	RECOG_CONF	1873978	n/a	LTP120	ltpFR	6	6	n/a	PRINTER	1126	n/a	1	n/a	n/a	n/a	n/a	n/a	n/a
3749.48	n/a	RECOG_TARGET	1874740	n/a	LTP120	ltpFR	6	6	0	MOTORCYCLE	923	1	5	1	n/a	n/a	n/a	n/a	n/a
3750.13	n/a	RECOG_RESP	1875065	n/a	LTP120	ltpFR	6	6	0	MOTORCYCLE	923	1	n/a	1	n/a	n/a	n/a	n/a	n/a
3750.828	n/a	RECOG_CONF	1875414	n/a	LTP120	ltpFR	6	6	0	MOTORCYCLE	923	n/a	5	1	n/a	n/a	n/a	n/a	n/a
3752.294	n/a	RECOG_TARGET	1876147	n/a	LTP120	ltpFR	6	6	0	OZONE	996	1	5	1	n/a	n/a	n/a	n/a	n/a
3752.934	n/a	RECOG_RESP	1876467	n/a	LTP120	ltpFR	6	6	0	OZONE	996	1	n/a	1	n/a	n/a	n/a	n/a	n/a
3753.582	n/a	RECOG_CONF	1876791	n/a	LTP120	ltpFR	6	6	0	OZONE	996	n/a	5	1	n/a	n/a	n/a	n/a	n/a
3755.058	n/a	RECOG_LURE	1877529	n/a	LTP120	ltpFR	6	6	n/a	CONSUMER	365	0	4	n/a	n/a	n/a	n/a	n/a	n/a
3756.072	n/a	RECOG_RESP	1878036	n/a	LTP120	ltpFR	6	6	n/a	CONSUMER	365	0	n/a	n/a	n/a	n/a	n/a	n/a	n/a
3757.454	n/a	RECOG_CONF	1878727	n/a	LTP120	ltpFR	6	6	n/a	CONSUMER	365	n/a	4	n/a	n/a	n/a	n/a	n/a	n/a
3758.928	n/a	RECOG_TARGET	1879464	n/a	LTP120	ltpFR	6	6	-1	MOP	916	1	5	-1	n/a	n/a	n/a	n/a	n/a
3759.548	n/a	RECOG_RESP	1879774	n/a	LTP120	ltpFR	6	6	-1	MOP	916	1	n/a	-1	n/a	n/a	n/a	n/a	n/a
3760.228	n/a	RECOG_CONF	1880114	n/a	LTP120	ltpFR	6	6	-1	MOP	916	n/a	5	-1	n/a	n/a	n/a	n/a	n/a
3761.582	n/a	RECOG_TARGET	1880791	n/a	LTP120	ltpFR	6	6	0	CAB	209	1	5	1	n/a	n/a	n/a	n/a	n/a
3762.272	n/a	RECOG_RESP	1881136	n/a	LTP120	ltpFR	6	6	0	CAB	209	1	n/a	1	n/a	n/a	n/a	n/a	n/a
3763.002	n/a	RECOG_CONF	1881501	n/a	LTP120	ltpFR	6	6	0	CAB	209	n/a	5	1	n/a	n/a	n/a	n/a	n/a
3764.438	n/a	RECOG_LURE	1882219	n/a	LTP120	ltpFR	6	6	n/a	WELL	1600	0	5	n/a	n/a	n/a	n/a	n/a	n/a
3765.316	n/a	RECOG_RESP	1882658	n/a	LTP120	ltpFR	6	6	n/a	WELL	1600	0	n/a	n/a	n/a	n/a	n/a	n/a	n/a
3766.134	n/a	RECOG_CONF	1883067	n/a	LTP120	ltpFR	6	6	n/a	WELL	1600	n/a	5	n/a	n/a	n/a	n/a	n/a	n/a
3767.468	n/a	RECOG_TARGET	1883734	n/a	LTP120	ltpFR	6	6	0	RUM	1217	1	5	0	n/a	n/a	n/a	n/a	n/a
3768.07	n/a	RECOG_RESP	1884035	n/a	LTP120	ltpFR	6	6	0	RUM	1217	1	n/a	0	n/a	n/a	n/a	n/a	n/a
3768.748	n/a	RECOG_CONF	1884374	n/a	LTP120	ltpFR	6	6	0	RUM	1217	n/a	5	0	n/a	n/a	n/a	n/a	n/a
3770.206	n/a	RECOG_TARGET	1885103	n/a	LTP120	ltpFR	6	6	-1	ASHTRAY	45	1	5	-1	n/a	n/a	n/a	n/a	n/a
3770.854	n/a	RECOG_RESP	1885427	n/a	LTP120	ltpFR	6	6	-1	ASHTRAY	45	1	n/a	-1	n/a	n/a	n/a	n/a	n/a
3771.532	n/a	RECOG_CONF	1885766	n/a	LTP120	ltpFR	6	6	-1	ASHTRAY	45	n/a	5	-1	n/a	n/a	n/a	n/a	n/a
3772.962	n/a	RECOG_LURE	1886481	n/a	LTP120	ltpFR	6	6	n/a	VEST	1559	0	5	n/a	n/a	n/a	n/a	n/a	n/a
3773.846	n/a	RECOG_RESP	1886923	n/a	LTP120	ltpFR	6	6	n/a	VEST	1559	0	n/a	n/a	n/a	n/a	n/a	n/a	n/a
3774.544	n/a	RECOG_CONF	1887272	n/a	LTP120	ltpFR	6	6	n/a	VEST	1559	n/a	5	n/a	n/a	n/a	n/a	n/a	n/a
3775.966	n/a	RECOG_LURE	1887983	n/a	LTP120	ltpFR	6	6	n/a	SENATOR	1268	0	5	n/a	n/a	n/a	n/a	n/a	n/a
3776.84	n/a	RECOG_RESP	1888420	n/a	LTP120	ltpFR	6	6	n/a	SENATOR	1268	0	n/a	n/a	n/a	n/a	n/a	n/a	n/a
3777.588	n/a	RECOG_CONF	1888794	n/a	LTP120	ltpFR	6	6	n/a	SENATOR	1268	n/a	5	n/a	n/a	n/a	n/a	n/a	n/a
3778.946	n/a	RECOG_LURE	1889473	n/a	LTP120	ltpFR	6	6	n/a	BLADE	134	0	2	n/a	n/a	n/a	n/a	n/a	n/a
3780.148	n/a	RECOG_RESP	1890074	n/a	LTP120	ltpFR	6	6	n/a	BLADE	134	0	n/a	n/a	n/a	n/a	n/a	n/a	n/a
3781.1	n/a	RECOG_CONF	1890550	n/a	LTP120	ltpFR	6	6	n/a	BLADE	134	n/a	2	n/a	n/a	n/a	n/a	n/a	n/a
3782.516	n/a	RECOG_LURE	1891258	n/a	LTP120	ltpFR	6	6	n/a	ACORN	3	0	3	n/a	n/a	n/a	n/a	n/a	n/a
3783.266	n/a	RECOG_RESP	1891633	n/a	LTP120	ltpFR	6	6	n/a	ACORN	3	0	n/a	n/a	n/a	n/a	n/a	n/a	n/a
3784.322	n/a	RECOG_CONF	1892161	n/a	LTP120	ltpFR	6	6	n/a	ACORN	3	n/a	3	n/a	n/a	n/a	n/a	n/a	n/a
3785.812	n/a	RECOG_TARGET	1892906	n/a	LTP120	ltpFR	6	6	1	GRADUATE	653	1	5	1	n/a	n/a	n/a	n/a	n/a
3786.478	n/a	RECOG_RESP	1893239	n/a	LTP120	ltpFR	6	6	1	GRADUATE	653	1	n/a	1	n/a	n/a	n/a	n/a	n/a
3787.178	n/a	RECOG_CONF	1893589	n/a	LTP120	ltpFR	6	6	1	GRADUATE	653	n/a	5	1	n/a	n/a	n/a	n/a	n/a
3788.57	n/a	RECOG_TARGET	1894285	n/a	LTP120	ltpFR	6	6	1	CABINET	212	1	4	0	n/a	n/a	n/a	n/a	n/a
3789.882	n/a	RECOG_RESP	1894941	n/a	LTP120	ltpFR	6	6	1	CABINET	212	1	n/a	0	n/a	n/a	n/a	n/a	n/a
3790.958	n/a	RECOG_CONF	1895479	n/a	LTP120	ltpFR	6	6	1	CABINET	212	n/a	4	0	n/a	n/a	n/a	n/a	n/a
3792.398	n/a	RECOG_TARGET	1896199	n/a	LTP120	ltpFR	6	6	1	HOUND	724	1	5	1	n/a	n/a	n/a	n/a	n/a
3793.018	n/a	RECOG_RESP	1896509	n/a	LTP120	ltpFR	6	6	1	HOUND	724	1	n/a	1	n/a	n/a	n/a	n/a	n/a
3793.732	n/a	RECOG_CONF	1896866	n/a	LTP120	ltpFR	6	6	1	HOUND	724	n/a	5	1	n/a	n/a	n/a	n/a	n/a
3795.138	n/a	RECOG_TARGET	1897569	n/a	LTP120	ltpFR	6	6	1	BEAST	108	1	5	1	n/a	n/a	n/a	n/a	n/a
3795.768	n/a	RECOG_RESP	1897884	n/a	LTP120	ltpFR	6	6	1	BEAST	108	1	n/a	1	n/a	n/a	n/a	n/a	n/a
3796.496	n/a	RECOG_CONF	1898248	n/a	LTP120	ltpFR	6	6	1	BEAST	108	n/a	5	1	n/a	n/a	n/a	n/a	n/a
3797.908	n/a	RECOG_TARGET	1898954	n/a	LTP120	ltpFR	6	6	0	SUPERMARKET	1409	1	5	1	n/a	n/a	n/a	n/a	n/a
3798.622	n/a	RECOG_RESP	1899311	n/a	LTP120	ltpFR	6	6	0	SUPERMARKET	1409	1	n/a	1	n/a	n/a	n/a	n/a	n/a
3799.34	n/a	RECOG_CONF	1899670	n/a	LTP120	ltpFR	6	6	0	SUPERMARKET	1409	n/a	5	1	n/a	n/a	n/a	n/a	n/a
3800.796	n/a	RECOG_TARGET	1900398	n/a	LTP120	ltpFR	6	6	1	SNACK	1331	1	5	0	n/a	n/a	n/a	n/a	n/a
3801.306	n/a	RECOG_RESP	1900653	n/a	LTP120	ltpFR	6	6	1	SNACK	1331	1	n/a	0	n/a	n/a	n/a	n/a	n/a
3801.994	n/a	RECOG_CONF	1900997	n/a	LTP120	ltpFR	6	6	1	SNACK	1331	n/a	5	0	n/a	n/a	n/a	n/a	n/a
3803.402	n/a	RECOG_TARGET	1901701	n/a	LTP120	ltpFR	6	6	1	FROG	608	1	5	1	n/a	n/a	n/a	n/a	n/a
3803.88	n/a	RECOG_RESP	1901940	n/a	LTP120	ltpFR	6	6	1	FROG	608	1	n/a	1	n/a	n/a	n/a	n/a	n/a
3804.578	n/a	RECOG_CONF	1902289	n/a	LTP120	ltpFR	6	6	1	FROG	608	n/a	5	1	n/a	n/a	n/a	n/a	n/a
3820.732	n/a	REC_START	1910366	n/a	LTP120	ltpFR	6	7	n/a	n/a	n/a	n/a	n/a	n/a	n/a	n/a	n/a	n/a	n/a
3820.756	n/a	RECOG_TARGET	1910378	n/a	LTP120	ltpFR	6	7	-1	PERCH	1048	1	5	-1	n/a	n/a	n/a	n/a	n/a
3821.854	n/a	RECOG_RESP	1910927	n/a	LTP120	ltpFR	6	7	-1	PERCH	1048	1	n/a	-1	n/a	n/a	n/a	n/a	n/a
3822.514	n/a	RECOG_CONF	1911257	n/a	LTP120	ltpFR	6	7	-1	PERCH	1048	n/a	5	-1	n/a	n/a	n/a	n/a	n/a
3823.952	n/a	RECOG_LURE	1911976	n/a	LTP120	ltpFR	6	7	n/a	VIOLA	1570	0	5	n/a	n/a	n/a	n/a	n/a	n/a
3824.788	n/a	RECOG_RESP	1912394	n/a	LTP120	ltpFR	6	7	n/a	VIOLA	1570	0	n/a	n/a	n/a	n/a	n/a	n/a	n/a
3825.596	n/a	RECOG_CONF	1912798	n/a	LTP120	ltpFR	6	7	n/a	VIOLA	1570	n/a	5	n/a	n/a	n/a	n/a	n/a	n/a
3826.968	n/a	RECOG_LURE	1913484	n/a	LTP120	ltpFR	6	7	n/a	STOOL	1386	0	2	n/a	n/a	n/a	n/a	n/a	n/a
3827.652	n/a	RECOG_RESP	1913826	n/a	LTP120	ltpFR	6	7	n/a	STOOL	1386	0	n/a	n/a	n/a	n/a	n/a	n/a	n/a
3828.58	n/a	RECOG_CONF	1914290	n/a	LTP120	ltpFR	6	7	n/a	STOOL	1386	n/a	2	n/a	n/a	n/a	n/a	n/a	n/a
3830.006	n/a	RECOG_LURE	1915003	n/a	LTP120	ltpFR	6	7	n/a	DWARF	510	0	5	n/a	n/a	n/a	n/a	n/a	n/a
3830.754	n/a	RECOG_RESP	1915377	n/a	LTP120	ltpFR	6	7	n/a	DWARF	510	0	n/a	n/a	n/a	n/a	n/a	n/a	n/a
3831.462	n/a	RECOG_CONF	1915731	n/a	LTP120	ltpFR	6	7	n/a	DWARF	510	n/a	5	n/a	n/a	n/a	n/a	n/a	n/a
3832.9	n/a	RECOG_TARGET	1916450	n/a	LTP120	ltpFR	6	7	0	BADGE	68	1	5	0	n/a	n/a	n/a	n/a	n/a
3833.508	n/a	RECOG_RESP	1916754	n/a	LTP120	ltpFR	6	7	0	BADGE	68	1	n/a	0	n/a	n/a	n/a	n/a	n/a
3834.136	n/a	RECOG_CONF	1917068	n/a	LTP120	ltpFR	6	7	0	BADGE	68	n/a	5	0	n/a	n/a	n/a	n/a	n/a
3835.598	n/a	RECOG_TARGET	1917799	n/a	LTP120	ltpFR	6	7	-1	ENCYCLOPEDIA	533	0	5	-1	n/a	n/a	n/a	n/a	n/a
3836.342	n/a	RECOG_RESP	1918171	n/a	LTP120	ltpFR	6	7	-1	ENCYCLOPEDIA	533	0	n/a	-1	n/a	n/a	n/a	n/a	n/a
3837.12	n/a	RECOG_CONF	1918560	n/a	LTP120	ltpFR	6	7	-1	ENCYCLOPEDIA	533	n/a	5	-1	n/a	n/a	n/a	n/a	n/a
3838.536	n/a	RECOG_TARGET	1919268	n/a	LTP120	ltpFR	6	7	0	SEAFOOD	1260	1	5	0	n/a	n/a	n/a	n/a	n/a
3839.286	n/a	RECOG_RESP	1919643	n/a	LTP120	ltpFR	6	7	0	SEAFOOD	1260	1	n/a	0	n/a	n/a	n/a	n/a	n/a
3840.084	n/a	RECOG_CONF	1920042	n/a	LTP120	ltpFR	6	7	0	SEAFOOD	1260	n/a	5	0	n/a	n/a	n/a	n/a	n/a
3841.466	n/a	RECOG_LURE	1920733	n/a	LTP120	ltpFR	6	7	n/a	BAY	102	0	5	n/a	n/a	n/a	n/a	n/a	n/a
3842.528	n/a	RECOG_RESP	1921264	n/a	LTP120	ltpFR	6	7	n/a	BAY	102	0	n/a	n/a	n/a	n/a	n/a	n/a	n/a
3843.276	n/a	RECOG_CONF	1921638	n/a	LTP120	ltpFR	6	7	n/a	BAY	102	n/a	5	n/a	n/a	n/a	n/a	n/a	n/a
3844.754	n/a	RECOG_TARGET	1922377	n/a	LTP120	ltpFR	6	7	1	BRIDGE	174	1	5	0	n/a	n/a	n/a	n/a	n/a
3845.56	n/a	RECOG_RESP	1922780	n/a	LTP120	ltpFR	6	7	1	BRIDGE	174	1	n/a	0	n/a	n/a	n/a	n/a	n/a
3846.29	n/a	RECOG_CONF	1923145	n/a	LTP120	ltpFR	6	7	1	BRIDGE	174	n/a	5	0	n/a	n/a	n/a	n/a	n/a
3847.784	n/a	RECOG_TARGET	1923892	n/a	LTP120	ltpFR	6	7	0	DENTIST	447	1	5	1	n/a	n/a	n/a	n/a	n/a
3848.384	n/a	RECOG_RESP	1924192	n/a	LTP120	ltpFR	6	7	0	DENTIST	447	1	n/a	1	n/a	n/a	n/a	n/a	n/a
3849.112	n/a	RECOG_CONF	1924556	n/a	LTP120	ltpFR	6	7	0	DENTIST	447	n/a	5	1	n/a	n/a	n/a	n/a	n/a
3850.606	n/a	RECOG_LURE	1925303	n/a	LTP120	ltpFR	6	7	n/a	BEAVER	109	1	5	n/a	n/a	n/a	n/a	n/a	n/a
3851.158	n/a	RECOG_RESP	1925579	n/a	LTP120	ltpFR	6	7	n/a	BEAVER	109	1	n/a	n/a	n/a	n/a	n/a	n/a	n/a
3851.886	n/a	RECOG_CONF	1925943	n/a	LTP120	ltpFR	6	7	n/a	BEAVER	109	n/a	5	n/a	n/a	n/a	n/a	n/a	n/a
3853.41	n/a	RECOG_LURE	1926705	n/a	LTP120	ltpFR	6	7	n/a	SUN	1406	0	3	n/a	n/a	n/a	n/a	n/a	n/a
3854.5	n/a	RECOG_RESP	1927250	n/a	LTP120	ltpFR	6	7	n/a	SUN	1406	0	n/a	n/a	n/a	n/a	n/a	n/a	n/a
3855.468	n/a	RECOG_CONF	1927734	n/a	LTP120	ltpFR	6	7	n/a	SUN	1406	n/a	3	n/a	n/a	n/a	n/a	n/a	n/a
3856.924	n/a	RECOG_LURE	1928462	n/a	LTP120	ltpFR	6	7	n/a	PROTON	1132	0	5	n/a	n/a	n/a	n/a	n/a	n/a
3857.952	n/a	RECOG_RESP	1928976	n/a	LTP120	ltpFR	6	7	n/a	PROTON	1132	0	n/a	n/a	n/a	n/a	n/a	n/a	n/a
3858.91	n/a	RECOG_CONF	1929455	n/a	LTP120	ltpFR	6	7	n/a	PROTON	1132	n/a	5	n/a	n/a	n/a	n/a	n/a	n/a
3860.302	n/a	RECOG_LURE	1930151	n/a	LTP120	ltpFR	6	7	n/a	STRAW	1390	0	2	n/a	n/a	n/a	n/a	n/a	n/a
3861.256	n/a	RECOG_RESP	1930628	n/a	LTP120	ltpFR	6	7	n/a	STRAW	1390	0	n/a	n/a	n/a	n/a	n/a	n/a	n/a
3862.252	n/a	RECOG_CONF	1931126	n/a	LTP120	ltpFR	6	7	n/a	STRAW	1390	n/a	2	n/a	n/a	n/a	n/a	n/a	n/a
3863.692	n/a	RECOG_LURE	1931846	n/a	LTP120	ltpFR	6	7	n/a	LAVA	804	0	5	n/a	n/a	n/a	n/a	n/a	n/a
3864.648	n/a	RECOG_RESP	1932324	n/a	LTP120	ltpFR	6	7	n/a	LAVA	804	0	n/a	n/a	n/a	n/a	n/a	n/a	n/a
3865.356	n/a	RECOG_CONF	1932678	n/a	LTP120	ltpFR	6	7	n/a	LAVA	804	n/a	5	n/a	n/a	n/a	n/a	n/a	n/a
3866.846	n/a	RECOG_TARGET	1933423	n/a	LTP120	ltpFR	6	7	-1	SIRLOIN	1311	1	5	-1	n/a	n/a	n/a	n/a	n/a
3867.592	n/a	RECOG_RESP	1933796	n/a	LTP120	ltpFR	6	7	-1	SIRLOIN	1311	1	n/a	-1	n/a	n/a	n/a	n/a	n/a
3868.33	n/a	RECOG_CONF	1934165	n/a	LTP120	ltpFR	6	7	-1	SIRLOIN	1311	n/a	5	-1	n/a	n/a	n/a	n/a	n/a
3869.776	n/a	RECOG_LURE	1934888	n/a	LTP120	ltpFR	6	7	n/a	OVAL	990	0	2	n/a	n/a	n/a	n/a	n/a	n/a
3870.654	n/a	RECOG_RESP	1935327	n/a	LTP120	ltpFR	6	7	n/a	OVAL	990	0	n/a	n/a	n/a	n/a	n/a	n/a	n/a
3872.002	n/a	RECOG_CONF	1936001	n/a	LTP120	ltpFR	6	7	n/a	OVAL	990	n/a	2	n/a	n/a	n/a	n/a	n/a	n/a
3873.388	n/a	RECOG_TARGET	1936694	n/a	LTP120	ltpFR	6	7	1	CARNIVAL	245	0	3	0	n/a	n/a	n/a	n/a	n/a
3874.466	n/a	RECOG_RESP	1937233	n/a	LTP120	ltpFR	6	7	1	CARNIVAL	245	0	n/a	0	n/a	n/a	n/a	n/a	n/a
3875.554	n/a	RECOG_CONF	1937777	n/a	LTP120	ltpFR	6	7	1	CARNIVAL	245	n/a	3	0	n/a	n/a	n/a	n/a	n/a
3877.01	n/a	RECOG_TARGET	1938505	n/a	LTP120	ltpFR	6	7	1	SHACK	1273	1	5	0	n/a	n/a	n/a	n/a	n/a
3878.526	n/a	RECOG_RESP	1939263	n/a	LTP120	ltpFR	6	7	1	SHACK	1273	1	n/a	0	n/a	n/a	n/a	n/a	n/a
3879.186	n/a	RECOG_CONF	1939593	n/a	LTP120	ltpFR	6	7	1	SHACK	1273	n/a	5	0	n/a	n/a	n/a	n/a	n/a
3880.696	n/a	RECOG_TARGET	1940348	n/a	LTP120	ltpFR	6	7	1	PICKLE	1059	1	5	0	n/a	n/a	n/a	n/a	n/a
3881.33	n/a	RECOG_RESP	1940665	n/a	LTP120	ltpFR	6	7	1	PICKLE	1059	1	n/a	0	n/a	n/a	n/a	n/a	n/a
3882.0	n/a	RECOG_CONF	1941000	n/a	LTP120	ltpFR	6	7	1	PICKLE	1059	n/a	5	0	n/a	n/a	n/a	n/a	n/a
3900.52	n/a	REC_START	1950260	n/a	LTP120	ltpFR	6	8	n/a	n/a	n/a	n/a	n/a	n/a	n/a	n/a	n/a	n/a	n/a
3900.548	n/a	RECOG_TARGET	1950274	n/a	LTP120	ltpFR	6	8	1	COMMANDER	354	1	5	1	n/a	n/a	n/a	n/a	n/a
3901.424	n/a	RECOG_RESP	1950712	n/a	LTP120	ltpFR	6	8	1	COMMANDER	354	1	n/a	1	n/a	n/a	n/a	n/a	n/a
3902.182	n/a	RECOG_CONF	1951091	n/a	LTP120	ltpFR	6	8	1	COMMANDER	354	n/a	5	1	n/a	n/a	n/a	n/a	n/a
3903.654	n/a	RECOG_TARGET	1951827	n/a	LTP120	ltpFR	6	8	-1	GARDEN	623	1	5	-1	n/a	n/a	n/a	n/a	n/a
3904.286	n/a	RECOG_RESP	1952143	n/a	LTP120	ltpFR	6	8	-1	GARDEN	623	1	n/a	-1	n/a	n/a	n/a	n/a	n/a
3905.026	n/a	RECOG_CONF	1952513	n/a	LTP120	ltpFR	6	8	-1	GARDEN	623	n/a	5	-1	n/a	n/a	n/a	n/a	n/a
3906.484	n/a	RECOG_TARGET	1953242	n/a	LTP120	ltpFR	6	8	-1	DRIVER	499	1	5	-1	n/a	n/a	n/a	n/a	n/a
3907.11	n/a	RECOG_RESP	1953555	n/a	LTP120	ltpFR	6	8	-1	DRIVER	499	1	n/a	-1	n/a	n/a	n/a	n/a	n/a
3907.818	n/a	RECOG_CONF	1953909	n/a	LTP120	ltpFR	6	8	-1	DRIVER	499	n/a	5	-1	n/a	n/a	n/a	n/a	n/a
3909.296	n/a	RECOG_LURE	1954648	n/a	LTP120	ltpFR	6	8	n/a	OCTOPUS	971	0	3	n/a	n/a	n/a	n/a	n/a	n/a
3910.234	n/a	RECOG_RESP	1955117	n/a	LTP120	ltpFR	6	8	n/a	OCTOPUS	971	0	n/a	n/a	n/a	n/a	n/a	n/a	n/a
3911.22	n/a	RECOG_CONF	1955610	n/a	LTP120	ltpFR	6	8	n/a	OCTOPUS	971	n/a	3	n/a	n/a	n/a	n/a	n/a	n/a
3912.576	n/a	RECOG_TARGET	1956288	n/a	LTP120	ltpFR	6	8	0	BUTTER	205	1	5	0	n/a	n/a	n/a	n/a	n/a
3913.266	n/a	RECOG_RESP	1956633	n/a	LTP120	ltpFR	6	8	0	BUTTER	205	1	n/a	0	n/a	n/a	n/a	n/a	n/a
3913.964	n/a	RECOG_CONF	1956982	n/a	LTP120	ltpFR	6	8	0	BUTTER	205	n/a	5	0	n/a	n/a	n/a	n/a	n/a
3915.39	n/a	RECOG_LURE	1957695	n/a	LTP120	ltpFR	6	8	n/a	NECK	939	0	5	n/a	n/a	n/a	n/a	n/a	n/a
3916.14	n/a	RECOG_RESP	1958070	n/a	LTP120	ltpFR	6	8	n/a	NECK	939	0	n/a	n/a	n/a	n/a	n/a	n/a	n/a
3917.098	n/a	RECOG_CONF	1958549	n/a	LTP120	ltpFR	6	8	n/a	NECK	939	n/a	5	n/a	n/a	n/a	n/a	n/a	n/a
3918.486	n/a	RECOG_LURE	1959243	n/a	LTP120	ltpFR	6	8	n/a	LITTER	832	0	1	n/a	n/a	n/a	n/a	n/a	n/a
3919.392	n/a	RECOG_RESP	1959696	n/a	LTP120	ltpFR	6	8	n/a	LITTER	832	0	n/a	n/a	n/a	n/a	n/a	n/a	n/a
3921.388	n/a	RECOG_CONF	1960694	n/a	LTP120	ltpFR	6	8	n/a	LITTER	832	n/a	1	n/a	n/a	n/a	n/a	n/a	n/a
3922.83	n/a	RECOG_LURE	1961415	n/a	LTP120	ltpFR	6	8	n/a	MAT	877	1	2	n/a	n/a	n/a	n/a	n/a	n/a
3925.09	n/a	RECOG_RESP	1962545	n/a	LTP120	ltpFR	6	8	n/a	MAT	877	1	n/a	n/a	n/a	n/a	n/a	n/a	n/a
3926.766	n/a	RECOG_CONF	1963383	n/a	LTP120	ltpFR	6	8	n/a	MAT	877	n/a	2	n/a	n/a	n/a	n/a	n/a	n/a
3928.184	n/a	RECOG_LURE	1964092	n/a	LTP120	ltpFR	6	8	n/a	WIRE	1616	0	5	n/a	n/a	n/a	n/a	n/a	n/a
3929.19	n/a	RECOG_RESP	1964595	n/a	LTP120	ltpFR	6	8	n/a	WIRE	1616	0	n/a	n/a	n/a	n/a	n/a	n/a	n/a
3930.018	n/a	RECOG_CONF	1965009	n/a	LTP120	ltpFR	6	8	n/a	WIRE	1616	n/a	5	n/a	n/a	n/a	n/a	n/a	n/a
3931.48	n/a	RECOG_LURE	1965740	n/a	LTP120	ltpFR	6	8	n/a	BRANDY	169	0	1	n/a	n/a	n/a	n/a	n/a	n/a
3932.966	n/a	RECOG_RESP_VV	1966483	n/a	LTP120	ltpFR	6	8	n/a	BRANDY	169	1	n/a	n/a	n/a	n/a	n/a	n/a	n/a
3933.61	n/a	RECOG_RESP	1966805	n/a	LTP120	ltpFR	6	8	n/a	BRANDY	169	0	n/a	n/a	n/a	n/a	n/a	n/a	n/a
3934.678	n/a	RECOG_CONF	1967339	n/a	LTP120	ltpFR	6	8	n/a	BRANDY	169	n/a	1	n/a	n/a	n/a	n/a	n/a	n/a
3936.192	n/a	RECOG_LURE	1968096	n/a	LTP120	ltpFR	6	8	n/a	COLLEGE	346	0	1	n/a	n/a	n/a	n/a	n/a	n/a
