mstime	trial_type	stim_file	subject	experiment	session	trial	task	item_name	item_num	recog_conf	resp	answer	test_x	test_y	test_z	color_b	color_g	color_r	case	font
0	SESS_START	n/a	LTP140	ltpFR	12	n/a	n/a	n/a	n/a	n/a	n/a	n/a	0	0	0	n/a	n/a	n/a	n/a	n/a
26552	START	n/a	LTP140	ltpFR	12	n/a	n/a	n/a	n/a	n/a	n/a	n/a	n/a	n/a	n/a	n/a	n/a	n/a	n/a	n/a
26577	PROB	n/a	LTP140	ltpFR	12	n/a	n/a	n/a	n/a	n/a	n/a	18	7	6	5	n/a	n/a	n/a	n/a	n/a
28385	PROB	n/a	LTP140	ltpFR	12	n/a	n/a	n/a	n/a	n/a	n/a	18	6	5	7	n/a	n/a	n/a	n/a	n/a
29835	PROB	n/a	LTP140	ltpFR	12	n/a	n/a	n/a	n/a	n/a	n/a	9	3	5	1	n/a	n/a	n/a	n/a	n/a
31200	PROB	n/a	LTP140	ltpFR	12	n/a	n/a	n/a	n/a	n/a	n/a	15	7	3	5	n/a	n/a	n/a	n/a	n/a
32408	PROB	n/a	LTP140	ltpFR	12	n/a	n/a	n/a	n/a	n/a	n/a	18	8	2	8	n/a	n/a	n/a	n/a	n/a
33592	PROB	n/a	LTP140	ltpFR	12	n/a	n/a	n/a	n/a	n/a	n/a	18	9	5	4	n/a	n/a	n/a	n/a	n/a
35124	PROB	n/a	LTP140	ltpFR	12	n/a	n/a	n/a	n/a	n/a	n/a	17	9	2	6	n/a	n/a	n/a	n/a	n/a
37082	PROB	n/a	LTP140	ltpFR	12	n/a	n/a	n/a	n/a	n/a	n/a	11	4	5	2	n/a	n/a	n/a	n/a	n/a
38398	PROB	n/a	LTP140	ltpFR	12	n/a	n/a	n/a	n/a	n/a	n/a	14	9	4	1	n/a	n/a	n/a	n/a	n/a
40080	PROB	n/a	LTP140	ltpFR	12	n/a	n/a	n/a	n/a	n/a	n/a	12	4	2	6	n/a	n/a	n/a	n/a	n/a
41839	PROB	n/a	LTP140	ltpFR	12	n/a	n/a	n/a	n/a	n/a	n/a	14	7	2	5	n/a	n/a	n/a	n/a	n/a
43805	PROB	n/a	LTP140	ltpFR	12	n/a	n/a	n/a	n/a	n/a	n/a	18	9	5	4	n/a	n/a	n/a	n/a	n/a
45172	STOP	n/a	LTP140	ltpFR	12	n/a	n/a	n/a	n/a	n/a	n/a	n/a	n/a	n/a	n/a	n/a	n/a	n/a	n/a	n/a
68605	WORD	wordpools/wasnorm_wordpool.txt	LTP140	ltpFR	12	1	1	STREET	1393	n/a	0	n/a	0	0	0	1	0.412841796875	0.57763671875	upper	../fonts/zerothre.ttf
72536	WORD	wordpools/wasnorm_wordpool.txt	LTP140	ltpFR	12	1	1	COOKBOOK	373	n/a	0	n/a	0	0	0	1	0.412841796875	0.57763671875	upper	../fonts/zerothre.ttf
76618	WORD	wordpools/wasnorm_wordpool.txt	LTP140	ltpFR	12	1	0	BELLY	119	n/a	1	n/a	0	0	0	0	0.5869140625	0.422607421875	lower	../fonts/amplitud.ttf
80458	WORD	wordpools/wasnorm_wordpool.txt	LTP140	ltpFR	12	1	0	ROAD	1196	n/a	1	n/a	0	0	0	0	0.5869140625	0.422607421875	lower	../fonts/amplitud.ttf
84523	WORD	wordpools/wasnorm_wordpool.txt	LTP140	ltpFR	12	1	0	POISON	1096	n/a	0	n/a	0	0	0	0	0.5869140625	0.422607421875	lower	../fonts/amplitud.ttf
88522	WORD	wordpools/wasnorm_wordpool.txt	LTP140	ltpFR	12	1	0	CRAB	397	n/a	0	n/a	0	0	0	0	0.5869140625	0.422607421875	lower	../fonts/amplitud.ttf
92370	WORD	wordpools/wasnorm_wordpool.txt	LTP140	ltpFR	12	1	1	TRAY	1498	n/a	0	n/a	0	0	0	1	0.412841796875	0.57763671875	upper	../fonts/zerothre.ttf
96452	WORD	wordpools/wasnorm_wordpool.txt	LTP140	ltpFR	12	1	1	CROW	414	n/a	1	n/a	0	0	0	1	0.412841796875	0.57763671875	upper	../fonts/zerothre.ttf
100484	WORD	wordpools/wasnorm_wordpool.txt	LTP140	ltpFR	12	1	1	SAPPHIRE	1234	n/a	0	n/a	0	0	0	1	0.412841796875	0.57763671875	upper	../fonts/zerothre.ttf
104299	WORD	wordpools/wasnorm_wordpool.txt	LTP140	ltpFR	12	1	1	SNOB	1335	n/a	1	n/a	0	0	0	1	0.412841796875	0.57763671875	upper	../fonts/zerothre.ttf
108298	WORD	wordpools/wasnorm_wordpool.txt	LTP140	ltpFR	12	1	1	IDOL	733	n/a	0	n/a	0	0	0	1	0.412841796875	0.57763671875	upper	../fonts/zerothre.ttf
112171	WORD	wordpools/wasnorm_wordpool.txt	LTP140	ltpFR	12	1	1	ASTRONAUT	51	n/a	1	n/a	0	0	0	1	0.412841796875	0.57763671875	upper	../fonts/zerothre.ttf
116137	WORD	wordpools/wasnorm_wordpool.txt	LTP140	ltpFR	12	1	0	LAMB	797	n/a	1	n/a	0	0	0	0	0.5869140625	0.422607421875	lower	../fonts/amplitud.ttf
120127	WORD	wordpools/wasnorm_wordpool.txt	LTP140	ltpFR	12	1	0	SWEATER	1419	n/a	1	n/a	0	0	0	0	0.5869140625	0.422607421875	lower	../fonts/amplitud.ttf
124192	WORD	wordpools/wasnorm_wordpool.txt	LTP140	ltpFR	12	1	0	REINDEER	1181	n/a	1	n/a	0	0	0	0	0.5869140625	0.422607421875	lower	../fonts/amplitud.ttf
128032	WORD	wordpools/wasnorm_wordpool.txt	LTP140	ltpFR	12	1	0	SLEIGH	1325	n/a	1	n/a	0	0	0	0	0.5869140625	0.422607421875	lower	../fonts/amplitud.ttf
131040	START	n/a	LTP140	ltpFR	12	n/a	n/a	n/a	n/a	n/a	n/a	n/a	n/a	n/a	n/a	n/a	n/a	n/a	n/a	n/a
132139	PROB	n/a	LTP140	ltpFR	12	n/a	n/a	n/a	n/a	n/a	n/a	16	2	6	8	n/a	n/a	n/a	n/a	n/a
134014	PROB	n/a	LTP140	ltpFR	12	n/a	n/a	n/a	n/a	n/a	n/a	19	7	5	7	n/a	n/a	n/a	n/a	n/a
135772	PROB	n/a	LTP140	ltpFR	12	n/a	n/a	n/a	n/a	n/a	n/a	16	4	8	4	n/a	n/a	n/a	n/a	n/a
139040	STOP	n/a	LTP140	ltpFR	12	n/a	n/a	n/a	n/a	n/a	n/a	n/a	n/a	n/a	n/a	n/a	n/a	n/a	n/a	n/a
140895	REC_START	n/a	LTP140	ltpFR	12	1	n/a	n/a	n/a	n/a	n/a	n/a	0	0	0	n/a	n/a	n/a	n/a	n/a
142451	REC_WORD	wordpools/wasnorm_wordpool.txt	LTP140	ltpFR	12	1	1	COOKBOOK	373	n/a	0	n/a	0	0	0	n/a	n/a	n/a	n/a	n/a
143953	REC_WORD	wordpools/wasnorm_wordpool.txt	LTP140	ltpFR	12	1	0	ROAD	1196	n/a	1	n/a	0	0	0	n/a	n/a	n/a	n/a	n/a
144861	REC_WORD	wordpools/wasnorm_wordpool.txt	LTP140	ltpFR	12	1	1	STREET	1393	n/a	0	n/a	0	0	0	n/a	n/a	n/a	n/a	n/a
146532	REC_WORD	wordpools/wasnorm_wordpool.txt	LTP140	ltpFR	12	1	0	BELLY	119	n/a	1	n/a	0	0	0	n/a	n/a	n/a	n/a	n/a
148233	REC_WORD	wordpools/wasnorm_wordpool.txt	LTP140	ltpFR	12	1	0	POISON	1096	n/a	0	n/a	0	0	0	n/a	n/a	n/a	n/a	n/a
149233	REC_WORD_VV	wordpools/wasnorm_wordpool.txt	LTP140	ltpFR	12	1	n/a	<>	-1	n/a	n/a	n/a	0	0	0	n/a	n/a	n/a	n/a	n/a
149859	REC_WORD	wordpools/wasnorm_wordpool.txt	LTP140	ltpFR	12	1	1	SAPPHIRE	1234	n/a	0	n/a	0	0	0	n/a	n/a	n/a	n/a	n/a
150859	REC_WORD_VV	wordpools/wasnorm_wordpool.txt	LTP140	ltpFR	12	1	n/a	<>	-1	n/a	n/a	n/a	0	0	0	n/a	n/a	n/a	n/a	n/a
151405	REC_WORD	wordpools/wasnorm_wordpool.txt	LTP140	ltpFR	12	1	1	CROW	414	n/a	1	n/a	0	0	0	n/a	n/a	n/a	n/a	n/a
153157	REC_WORD	wordpools/wasnorm_wordpool.txt	LTP140	ltpFR	12	1	0	REINDEER	1181	n/a	1	n/a	0	0	0	n/a	n/a	n/a	n/a	n/a
154157	REC_WORD_VV	wordpools/wasnorm_wordpool.txt	LTP140	ltpFR	12	1	n/a	<>	-1	n/a	n/a	n/a	0	0	0	n/a	n/a	n/a	n/a	n/a
154287	REC_WORD	wordpools/wasnorm_wordpool.txt	LTP140	ltpFR	12	1	0	SLEIGH	1325	n/a	1	n/a	0	0	0	n/a	n/a	n/a	n/a	n/a
156190	REC_WORD	wordpools/wasnorm_wordpool.txt	LTP140	ltpFR	12	1	1	IDOL	733	n/a	0	n/a	0	0	0	n/a	n/a	n/a	n/a	n/a
158190	REC_WORD	wordpools/wasnorm_wordpool.txt	LTP140	ltpFR	12	1	1	SNOB	1335	n/a	1	n/a	0	0	0	n/a	n/a	n/a	n/a	n/a
160121	REC_WORD	wordpools/wasnorm_wordpool.txt	LTP140	ltpFR	12	1	0	SWEATER	1419	n/a	1	n/a	0	0	0	n/a	n/a	n/a	n/a	n/a
161224	REC_WORD	wordpools/wasnorm_wordpool.txt	LTP140	ltpFR	12	1	0	LAMB	797	n/a	1	n/a	0	0	0	n/a	n/a	n/a	n/a	n/a
199282	REC_WORD	wordpools/wasnorm_wordpool.txt	LTP140	ltpFR	12	1	0	CRAB	397	n/a	0	n/a	0	0	0	n/a	n/a	n/a	n/a	n/a
216819	START	n/a	LTP140	ltpFR	12	n/a	n/a	n/a	n/a	n/a	n/a	n/a	n/a	n/a	n/a	n/a	n/a	n/a	n/a	n/a
218325	PROB	n/a	LTP140	ltpFR	12	n/a	n/a	n/a	n/a	n/a	n/a	12	2	2	8	n/a	n/a	n/a	n/a	n/a
220425	PROB	n/a	LTP140	ltpFR	12	n/a	n/a	n/a	n/a	n/a	n/a	12	9	3	1	n/a	n/a	n/a	n/a	n/a
221982	PROB	n/a	LTP140	ltpFR	12	n/a	n/a	n/a	n/a	n/a	n/a	16	3	9	4	n/a	n/a	n/a	n/a	n/a
223476	STOP	n/a	LTP140	ltpFR	12	n/a	n/a	n/a	n/a	n/a	n/a	n/a	n/a	n/a	n/a	n/a	n/a	n/a	n/a	n/a
225815	WORD	wordpools/wasnorm_wordpool.txt	LTP140	ltpFR	12	2	0	PUPPY	1144	n/a	1	n/a	0	0	0	0	0.5869140625	0.422607421875	lower	../fonts/amplitud.ttf
228823	START	n/a	LTP140	ltpFR	12	n/a	n/a	n/a	n/a	n/a	n/a	n/a	n/a	n/a	n/a	n/a	n/a	n/a	n/a	n/a
229764	PROB	n/a	LTP140	ltpFR	12	n/a	n/a	n/a	n/a	n/a	n/a	21	6	7	8	n/a	n/a	n/a	n/a	n/a
231462	PROB	n/a	LTP140	ltpFR	12	n/a	n/a	n/a	n/a	n/a	n/a	24	7	9	8	n/a	n/a	n/a	n/a	n/a
234919	PROB	n/a	LTP140	ltpFR	12	n/a	n/a	n/a	n/a	n/a	n/a	14	6	4	4	n/a	n/a	n/a	n/a	n/a
236244	STOP	n/a	LTP140	ltpFR	12	n/a	n/a	n/a	n/a	n/a	n/a	n/a	n/a	n/a	n/a	n/a	n/a	n/a	n/a	n/a
237661	WORD	wordpools/wasnorm_wordpool.txt	LTP140	ltpFR	12	2	0	LADY	794	n/a	1	n/a	0	0	0	0	0.5869140625	0.422607421875	lower	../fonts/amplitud.ttf
240669	START	n/a	LTP140	ltpFR	12	n/a	n/a	n/a	n/a	n/a	n/a	n/a	n/a	n/a	n/a	n/a	n/a	n/a	n/a	n/a
241500	PROB	n/a	LTP140	ltpFR	12	n/a	n/a	n/a	n/a	n/a	n/a	5	1	3	1	n/a	n/a	n/a	n/a	n/a
242558	PROB	n/a	LTP140	ltpFR	12	n/a	n/a	n/a	n/a	n/a	n/a	13	1	4	8	n/a	n/a	n/a	n/a	n/a
244025	PROB	n/a	LTP140	ltpFR	12	n/a	n/a	n/a	n/a	n/a	n/a	12	2	3	7	n/a	n/a	n/a	n/a	n/a
245407	PROB	n/a	LTP140	ltpFR	12	n/a	n/a	n/a	n/a	n/a	n/a	14	6	1	7	n/a	n/a	n/a	n/a	n/a
246733	PROB	n/a	LTP140	ltpFR	12	n/a	n/a	n/a	n/a	n/a	n/a	17	8	4	5	n/a	n/a	n/a	n/a	n/a
248356	STOP	n/a	LTP140	ltpFR	12	n/a	n/a	n/a	n/a	n/a	n/a	n/a	n/a	n/a	n/a	n/a	n/a	n/a	n/a	n/a
249599	WORD	wordpools/wasnorm_wordpool.txt	LTP140	ltpFR	12	2	1	WINNER	1615	n/a	1	n/a	0	0	0	1	0.412841796875	0.57763671875	upper	../fonts/zerothre.ttf
252606	START	n/a	LTP140	ltpFR	12	n/a	n/a	n/a	n/a	n/a	n/a	n/a	n/a	n/a	n/a	n/a	n/a	n/a	n/a	n/a
253529	PROB	n/a	LTP140	ltpFR	12	n/a	n/a	n/a	n/a	n/a	n/a	17	6	8	3	n/a	n/a	n/a	n/a	n/a
255054	PROB	n/a	LTP140	ltpFR	12	n/a	n/a	n/a	n/a	n/a	n/a	14	7	3	4	n/a	n/a	n/a	n/a	n/a
256312	PROB	n/a	LTP140	ltpFR	12	n/a	n/a	n/a	n/a	n/a	n/a	15	5	9	1	n/a	n/a	n/a	n/a	n/a
258679	PROB	n/a	LTP140	ltpFR	12	n/a	n/a	n/a	n/a	n/a	n/a	6	4	1	1	n/a	n/a	n/a	n/a	n/a
259605	STOP	n/a	LTP140	ltpFR	12	n/a	n/a	n/a	n/a	n/a	n/a	n/a	n/a	n/a	n/a	n/a	n/a	n/a	n/a	n/a
261811	WORD	wordpools/wasnorm_wordpool.txt	LTP140	ltpFR	12	2	1	LUMBER	848	n/a	0	n/a	0	0	0	1	0.412841796875	0.57763671875	upper	../fonts/zerothre.ttf
264819	START	n/a	LTP140	ltpFR	12	n/a	n/a	n/a	n/a	n/a	n/a	n/a	n/a	n/a	n/a	n/a	n/a	n/a	n/a	n/a
265892	PROB	n/a	LTP140	ltpFR	12	n/a	n/a	n/a	n/a	n/a	n/a	14	4	5	5	n/a	n/a	n/a	n/a	n/a
267216	PROB	n/a	LTP140	ltpFR	12	n/a	n/a	n/a	n/a	n/a	n/a	12	2	7	3	n/a	n/a	n/a	n/a	n/a
268532	PROB	n/a	LTP140	ltpFR	12	n/a	n/a	n/a	n/a	n/a	n/a	17	9	3	5	n/a	n/a	n/a	n/a	n/a
270074	PROB	n/a	LTP140	ltpFR	12	n/a	n/a	n/a	n/a	n/a	n/a	13	8	4	1	n/a	n/a	n/a	n/a	n/a
271300	STOP	n/a	LTP140	ltpFR	12	n/a	n/a	n/a	n/a	n/a	n/a	n/a	n/a	n/a	n/a	n/a	n/a	n/a	n/a	n/a
273748	WORD	wordpools/wasnorm_wordpool.txt	LTP140	ltpFR	12	2	1	BANKER	84	n/a	1	n/a	0	0	0	1	0.412841796875	0.57763671875	upper	../fonts/zerothre.ttf
276756	START	n/a	LTP140	ltpFR	12	n/a	n/a	n/a	n/a	n/a	n/a	n/a	n/a	n/a	n/a	n/a	n/a	n/a	n/a	n/a
277697	PROB	n/a	LTP140	ltpFR	12	n/a	n/a	n/a	n/a	n/a	n/a	15	6	6	3	n/a	n/a	n/a	n/a	n/a
279237	PROB	n/a	LTP140	ltpFR	12	n/a	n/a	n/a	n/a	n/a	n/a	12	3	1	8	n/a	n/a	n/a	n/a	n/a
280537	PROB	n/a	LTP140	ltpFR	12	n/a	n/a	n/a	n/a	n/a	n/a	17	6	4	7	n/a	n/a	n/a	n/a	n/a
281695	PROB	n/a	LTP140	ltpFR	12	n/a	n/a	n/a	n/a	n/a	n/a	7	2	1	4	n/a	n/a	n/a	n/a	n/a
282812	PROB	n/a	LTP140	ltpFR	12	n/a	n/a	n/a	n/a	n/a	n/a	13	5	3	5	n/a	n/a	n/a	n/a	n/a
284356	STOP	n/a	LTP140	ltpFR	12	n/a	n/a	n/a	n/a	n/a	n/a	n/a	n/a	n/a	n/a	n/a	n/a	n/a	n/a	n/a
285586	WORD	wordpools/wasnorm_wordpool.txt	LTP140	ltpFR	12	2	1	AWARD	63	n/a	0	n/a	0	0	0	1	0.412841796875	0.57763671875	upper	../fonts/zerothre.ttf
288593	START	n/a	LTP140	ltpFR	12	n/a	n/a	n/a	n/a	n/a	n/a	n/a	n/a	n/a	n/a	n/a	n/a	n/a	n/a	n/a
289684	PROB	n/a	LTP140	ltpFR	12	n/a	n/a	n/a	n/a	n/a	n/a	14	1	5	8	n/a	n/a	n/a	n/a	n/a
291283	PROB	n/a	LTP140	ltpFR	12	n/a	n/a	n/a	n/a	n/a	n/a	10	3	2	5	n/a	n/a	n/a	n/a	n/a
293090	PROB	n/a	LTP140	ltpFR	12	n/a	n/a	n/a	n/a	n/a	n/a	10	5	1	4	n/a	n/a	n/a	n/a	n/a
294365	PROB	n/a	LTP140	ltpFR	12	n/a	n/a	n/a	n/a	n/a	n/a	12	5	6	1	n/a	n/a	n/a	n/a	n/a
295532	STOP	n/a	LTP140	ltpFR	12	n/a	n/a	n/a	n/a	n/a	n/a	n/a	n/a	n/a	n/a	n/a	n/a	n/a	n/a	n/a
297506	WORD	wordpools/wasnorm_wordpool.txt	LTP140	ltpFR	12	2	1	METEOR	889	n/a	0	n/a	0	0	0	1	0.412841796875	0.57763671875	upper	../fonts/zerothre.ttf
300513	START	n/a	LTP140	ltpFR	12	n/a	n/a	n/a	n/a	n/a	n/a	n/a	n/a	n/a	n/a	n/a	n/a	n/a	n/a	n/a
301647	PROB	n/a	LTP140	ltpFR	12	n/a	n/a	n/a	n/a	n/a	n/a	16	5	2	9	n/a	n/a	n/a	n/a	n/a
303287	PROB	n/a	LTP140	ltpFR	12	n/a	n/a	n/a	n/a	n/a	n/a	10	1	4	5	n/a	n/a	n/a	n/a	n/a
304854	PROB	n/a	LTP140	ltpFR	12	n/a	n/a	n/a	n/a	n/a	n/a	14	6	1	7	n/a	n/a	n/a	n/a	n/a
306077	PROB	n/a	LTP140	ltpFR	12	n/a	n/a	n/a	n/a	n/a	n/a	16	8	1	7	n/a	n/a	n/a	n/a	n/a
307380	STOP	n/a	LTP140	ltpFR	12	n/a	n/a	n/a	n/a	n/a	n/a	n/a	n/a	n/a	n/a	n/a	n/a	n/a	n/a	n/a
309535	WORD	wordpools/wasnorm_wordpool.txt	LTP140	ltpFR	12	2	0	STAR	1373	n/a	1	n/a	0	0	0	0	0.5869140625	0.422607421875	lower	../fonts/amplitud.ttf
312542	START	n/a	LTP140	ltpFR	12	n/a	n/a	n/a	n/a	n/a	n/a	n/a	n/a	n/a	n/a	n/a	n/a	n/a	n/a	n/a
313516	PROB	n/a	LTP140	ltpFR	12	n/a	n/a	n/a	n/a	n/a	n/a	21	9	3	9	n/a	n/a	n/a	n/a	n/a
315058	PROB	n/a	LTP140	ltpFR	12	n/a	n/a	n/a	n/a	n/a	n/a	12	1	6	5	n/a	n/a	n/a	n/a	n/a
316207	PROB	n/a	LTP140	ltpFR	12	n/a	n/a	n/a	n/a	n/a	n/a	17	5	4	8	n/a	n/a	n/a	n/a	n/a
317548	PROB	n/a	LTP140	ltpFR	12	n/a	n/a	n/a	n/a	n/a	n/a	20	4	9	7	n/a	n/a	n/a	n/a	n/a
319597	STOP	n/a	LTP140	ltpFR	12	n/a	n/a	n/a	n/a	n/a	n/a	n/a	n/a	n/a	n/a	n/a	n/a	n/a	n/a	n/a
321372	WORD	wordpools/wasnorm_wordpool.txt	LTP140	ltpFR	12	2	0	WHEAT	1602	n/a	2	n/a	0	0	0	0	0.5869140625	0.422607421875	lower	../fonts/amplitud.ttf
322631	KEY_MSG	n/a	LTP140	ltpFR	12	2	n/a	n/a	n/a	n/a	n/a	n/a	0	0	0	n/a	n/a	n/a	n/a	n/a
324380	START	n/a	LTP140	ltpFR	12	n/a	n/a	n/a	n/a	n/a	n/a	n/a	n/a	n/a	n/a	n/a	n/a	n/a	n/a	n/a
325562	PROB	n/a	LTP140	ltpFR	12	n/a	n/a	n/a	n/a	n/a	n/a	16	6	8	2	n/a	n/a	n/a	n/a	n/a
327936	PROB	n/a	LTP140	ltpFR	12	n/a	n/a	n/a	n/a	n/a	n/a	16	5	2	9	n/a	n/a	n/a	n/a	n/a
329361	PROB	n/a	LTP140	ltpFR	12	n/a	n/a	n/a	n/a	n/a	n/a	13	8	1	4	n/a	n/a	n/a	n/a	n/a
330720	PROB	n/a	LTP140	ltpFR	12	n/a	n/a	n/a	n/a	n/a	n/a	18	8	1	9	n/a	n/a	n/a	n/a	n/a
331948	STOP	n/a	LTP140	ltpFR	12	n/a	n/a	n/a	n/a	n/a	n/a	n/a	n/a	n/a	n/a	n/a	n/a	n/a	n/a	n/a
333443	WORD	wordpools/wasnorm_wordpool.txt	LTP140	ltpFR	12	2	0	FIELD	562	n/a	1	n/a	0	0	0	0	0.5869140625	0.422607421875	lower	../fonts/amplitud.ttf
336450	START	n/a	LTP140	ltpFR	12	n/a	n/a	n/a	n/a	n/a	n/a	n/a	n/a	n/a	n/a	n/a	n/a	n/a	n/a	n/a
337550	PROB	n/a	LTP140	ltpFR	12	n/a	n/a	n/a	n/a	n/a	n/a	11	8	2	1	n/a	n/a	n/a	n/a	n/a
339141	PROB	n/a	LTP140	ltpFR	12	n/a	n/a	n/a	n/a	n/a	n/a	15	6	5	4	n/a	n/a	n/a	n/a	n/a
340874	PROB	n/a	LTP140	ltpFR	12	n/a	n/a	n/a	n/a	n/a	n/a	15	7	6	2	n/a	n/a	n/a	n/a	n/a
342006	PROB	n/a	LTP140	ltpFR	12	n/a	n/a	n/a	n/a	n/a	n/a	14	6	1	7	n/a	n/a	n/a	n/a	n/a
343124	STOP	n/a	LTP140	ltpFR	12	n/a	n/a	n/a	n/a	n/a	n/a	n/a	n/a	n/a	n/a	n/a	n/a	n/a	n/a	n/a
345372	WORD	wordpools/wasnorm_wordpool.txt	LTP140	ltpFR	12	2	1	SOAP	1337	n/a	0	n/a	0	0	0	1	0.412841796875	0.57763671875	upper	../fonts/zerothre.ttf
348379	START	n/a	LTP140	ltpFR	12	n/a	n/a	n/a	n/a	n/a	n/a	n/a	n/a	n/a	n/a	n/a	n/a	n/a	n/a	n/a
349479	PROB	n/a	LTP140	ltpFR	12	n/a	n/a	n/a	n/a	n/a	n/a	16	8	3	5	n/a	n/a	n/a	n/a	n/a
352269	PROB	n/a	LTP140	ltpFR	12	n/a	n/a	n/a	n/a	n/a	n/a	16	5	9	2	n/a	n/a	n/a	n/a	n/a
354194	PROB	n/a	LTP140	ltpFR	12	n/a	n/a	n/a	n/a	n/a	n/a	7	1	3	3	n/a	n/a	n/a	n/a	n/a
355180	STOP	n/a	LTP140	ltpFR	12	n/a	n/a	n/a	n/a	n/a	n/a	n/a	n/a	n/a	n/a	n/a	n/a	n/a	n/a	n/a
357426	WORD	wordpools/wasnorm_wordpool.txt	LTP140	ltpFR	12	2	1	BACK	65	n/a	1	n/a	0	0	0	1	0.412841796875	0.57763671875	upper	../fonts/zerothre.ttf
360433	START	n/a	LTP140	ltpFR	12	n/a	n/a	n/a	n/a	n/a	n/a	n/a	n/a	n/a	n/a	n/a	n/a	n/a	n/a	n/a
361483	PROB	n/a	LTP140	ltpFR	12	n/a	n/a	n/a	n/a	n/a	n/a	20	9	2	9	n/a	n/a	n/a	n/a	n/a
363675	PROB	n/a	LTP140	ltpFR	12	n/a	n/a	n/a	n/a	n/a	n/a	14	1	8	5	n/a	n/a	n/a	n/a	n/a
365081	PROB	n/a	LTP140	ltpFR	12	n/a	n/a	n/a	n/a	n/a	n/a	15	4	9	2	n/a	n/a	n/a	n/a	n/a
366840	PROB	n/a	LTP140	ltpFR	12	n/a	n/a	n/a	n/a	n/a	n/a	19	2	9	8	n/a	n/a	n/a	n/a	n/a
368340	STOP	n/a	LTP140	ltpFR	12	n/a	n/a	n/a	n/a	n/a	n/a	n/a	n/a	n/a	n/a	n/a	n/a	n/a	n/a	n/a
369563	WORD	wordpools/wasnorm_wordpool.txt	LTP140	ltpFR	12	2	1	BARREL	91	n/a	0	n/a	0	0	0	1	0.412841796875	0.57763671875	upper	../fonts/zerothre.ttf
372571	START	n/a	LTP140	ltpFR	12	n/a	n/a	n/a	n/a	n/a	n/a	n/a	n/a	n/a	n/a	n/a	n/a	n/a	n/a	n/a
373604	PROB	n/a	LTP140	ltpFR	12	n/a	n/a	n/a	n/a	n/a	n/a	12	1	7	4	n/a	n/a	n/a	n/a	n/a
375186	PROB	n/a	LTP140	ltpFR	12	n/a	n/a	n/a	n/a	n/a	n/a	14	5	6	3	n/a	n/a	n/a	n/a	n/a
376402	PROB	n/a	LTP140	ltpFR	12	n/a	n/a	n/a	n/a	n/a	n/a	16	8	7	1	n/a	n/a	n/a	n/a	n/a
377611	PROB	n/a	LTP140	ltpFR	12	n/a	n/a	n/a	n/a	n/a	n/a	16	1	9	6	n/a	n/a	n/a	n/a	n/a
379140	STOP	n/a	LTP140	ltpFR	12	n/a	n/a	n/a	n/a	n/a	n/a	n/a	n/a	n/a	n/a	n/a	n/a	n/a	n/a	n/a
381727	WORD	wordpools/wasnorm_wordpool.txt	LTP140	ltpFR	12	2	0	SAW	1239	n/a	1	n/a	0	0	0	0	0.5869140625	0.422607421875	lower	../fonts/amplitud.ttf
384734	START	n/a	LTP140	ltpFR	12	n/a	n/a	n/a	n/a	n/a	n/a	n/a	n/a	n/a	n/a	n/a	n/a	n/a	n/a	n/a
385907	PROB	n/a	LTP140	ltpFR	12	n/a	n/a	n/a	n/a	n/a	n/a	11	5	4	2	n/a	n/a	n/a	n/a	n/a
387224	PROB	n/a	LTP140	ltpFR	12	n/a	n/a	n/a	n/a	n/a	n/a	12	3	1	8	n/a	n/a	n/a	n/a	n/a
388515	PROB	n/a	LTP140	ltpFR	12	n/a	n/a	n/a	n/a	n/a	n/a	15	7	6	2	n/a	n/a	n/a	n/a	n/a
389640	PROB	n/a	LTP140	ltpFR	12	n/a	n/a	n/a	n/a	n/a	n/a	11	3	5	3	n/a	n/a	n/a	n/a	n/a
392733	STOP	n/a	LTP140	ltpFR	12	n/a	n/a	n/a	n/a	n/a	n/a	n/a	n/a	n/a	n/a	n/a	n/a	n/a	n/a	n/a
393622	WORD	wordpools/wasnorm_wordpool.txt	LTP140	ltpFR	12	2	0	QUARTER	1148	n/a	0	n/a	0	0	0	0	0.5869140625	0.422607421875	lower	../fonts/amplitud.ttf
396630	START	n/a	LTP140	ltpFR	12	n/a	n/a	n/a	n/a	n/a	n/a	n/a	n/a	n/a	n/a	n/a	n/a	n/a	n/a	n/a
397679	PROB	n/a	LTP140	ltpFR	12	n/a	n/a	n/a	n/a	n/a	n/a	14	5	6	3	n/a	n/a	n/a	n/a	n/a
398845	PROB	n/a	LTP140	ltpFR	12	n/a	n/a	n/a	n/a	n/a	n/a	17	6	9	2	n/a	n/a	n/a	n/a	n/a
400127	PROB	n/a	LTP140	ltpFR	12	n/a	n/a	n/a	n/a	n/a	n/a	7	2	1	4	n/a	n/a	n/a	n/a	n/a
401202	PROB	n/a	LTP140	ltpFR	12	n/a	n/a	n/a	n/a	n/a	n/a	13	4	7	2	n/a	n/a	n/a	n/a	n/a
402468	PROB	n/a	LTP140	ltpFR	12	n/a	n/a	n/a	n/a	n/a	n/a	10	4	4	2	n/a	n/a	n/a	n/a	n/a
403709	STOP	n/a	LTP140	ltpFR	12	n/a	n/a	n/a	n/a	n/a	n/a	n/a	n/a	n/a	n/a	n/a	n/a	n/a	n/a	n/a
405660	WORD	wordpools/wasnorm_wordpool.txt	LTP140	ltpFR	12	2	0	ADULT	8	n/a	1	n/a	0	0	0	0	0.5869140625	0.422607421875	lower	../fonts/amplitud.ttf
408667	START	n/a	LTP140	ltpFR	12	n/a	n/a	n/a	n/a	n/a	n/a	n/a	n/a	n/a	n/a	n/a	n/a	n/a	n/a	n/a
409733	PROB	n/a	LTP140	ltpFR	12	n/a	n/a	n/a	n/a	n/a	n/a	10	7	2	3	n/a	n/a	n/a	n/a	n/a
411766	PROB	n/a	LTP140	ltpFR	12	n/a	n/a	n/a	n/a	n/a	n/a	19	4	6	9	n/a	n/a	n/a	n/a	n/a
413081	PROB	n/a	LTP140	ltpFR	12	n/a	n/a	n/a	n/a	n/a	n/a	19	9	7	3	n/a	n/a	n/a	n/a	n/a
414581	PROB	n/a	LTP140	ltpFR	12	n/a	n/a	n/a	n/a	n/a	n/a	12	1	6	5	n/a	n/a	n/a	n/a	n/a
415709	STOP	n/a	LTP140	ltpFR	12	n/a	n/a	n/a	n/a	n/a	n/a	n/a	n/a	n/a	n/a	n/a	n/a	n/a	n/a	n/a
418505	REC_START	n/a	LTP140	ltpFR	12	2	n/a	n/a	n/a	n/a	n/a	n/a	0	0	0	n/a	n/a	n/a	n/a	n/a
419787	REC_WORD	wordpools/wasnorm_wordpool.txt	LTP140	ltpFR	12	2	0	QUARTER	1148	n/a	0	n/a	0	0	0	n/a	n/a	n/a	n/a	n/a
420694	REC_WORD	wordpools/wasnorm_wordpool.txt	LTP140	ltpFR	12	2	0	FIELD	562	n/a	1	n/a	0	0	0	n/a	n/a	n/a	n/a	n/a
422032	REC_WORD	wordpools/wasnorm_wordpool.txt	LTP140	ltpFR	12	2	1	BACK	65	n/a	1	n/a	0	0	0	n/a	n/a	n/a	n/a	n/a
422885	REC_WORD	wordpools/wasnorm_wordpool.txt	LTP140	ltpFR	12	2	1	SOAP	1337	n/a	0	n/a	0	0	0	n/a	n/a	n/a	n/a	n/a
424486	REC_WORD	wordpools/wasnorm_wordpool.txt	LTP140	ltpFR	12	2	1	BARREL	91	n/a	0	n/a	0	0	0	n/a	n/a	n/a	n/a	n/a
425593	REC_WORD	wordpools/wasnorm_wordpool.txt	LTP140	ltpFR	12	2	0	WHEAT	1602	n/a	2	n/a	0	0	0	n/a	n/a	n/a	n/a	n/a
426573	REC_WORD	wordpools/wasnorm_wordpool.txt	LTP140	ltpFR	12	2	0	STAR	1373	n/a	1	n/a	0	0	0	n/a	n/a	n/a	n/a	n/a
428203	REC_WORD	wordpools/wasnorm_wordpool.txt	LTP140	ltpFR	12	2	1	METEOR	889	n/a	0	n/a	0	0	0	n/a	n/a	n/a	n/a	n/a
429430	REC_WORD	wordpools/wasnorm_wordpool.txt	LTP140	ltpFR	12	2	1	BANKER	84	n/a	1	n/a	0	0	0	n/a	n/a	n/a	n/a	n/a
431024	REC_WORD	wordpools/wasnorm_wordpool.txt	LTP140	ltpFR	12	2	1	LUMBER	848	n/a	0	n/a	0	0	0	n/a	n/a	n/a	n/a	n/a
433012	REC_WORD	wordpools/wasnorm_wordpool.txt	LTP140	ltpFR	12	2	n/a	WOMAN	1620	n/a	n/a	n/a	0	0	0	n/a	n/a	n/a	n/a	n/a
434459	REC_WORD	wordpools/wasnorm_wordpool.txt	LTP140	ltpFR	12	2	0	PUPPY	1144	n/a	1	n/a	0	0	0	n/a	n/a	n/a	n/a	n/a
435459	REC_WORD_VV	wordpools/wasnorm_wordpool.txt	LTP140	ltpFR	12	2	n/a	<>	-1	n/a	n/a	n/a	0	0	0	n/a	n/a	n/a	n/a	n/a
437896	REC_WORD	wordpools/wasnorm_wordpool.txt	LTP140	ltpFR	12	2	1	WINNER	1615	n/a	1	n/a	0	0	0	n/a	n/a	n/a	n/a	n/a
496043	WORD	wordpools/wasnorm_wordpool.txt	LTP140	ltpFR	12	3	0	CHERRY	293	n/a	0	n/a	0	0	0	0	0.5869140625	0.422607421875	lower	../fonts/amplitud.ttf
500092	WORD	wordpools/wasnorm_wordpool.txt	LTP140	ltpFR	12	3	0	DESSERT	453	n/a	0	n/a	0	0	0	0	0.5869140625	0.422607421875	lower	../fonts/amplitud.ttf
504049	WORD	wordpools/wasnorm_wordpool.txt	LTP140	ltpFR	12	3	0	TACK	1428	n/a	0	n/a	0	0	0	0	0.5869140625	0.422607421875	lower	../fonts/amplitud.ttf
507906	WORD	wordpools/wasnorm_wordpool.txt	LTP140	ltpFR	12	3	0	BARRACUDA	90	n/a	1	n/a	0	0	0	0	0.5869140625	0.422607421875	lower	../fonts/amplitud.ttf
512096	WORD	wordpools/wasnorm_wordpool.txt	LTP140	ltpFR	12	3	0	SEAFOOD	1260	n/a	1	n/a	0	0	0	0	0.5869140625	0.422607421875	lower	../fonts/amplitud.ttf
515986	WORD	wordpools/wasnorm_wordpool.txt	LTP140	ltpFR	12	3	0	CABIN	211	n/a	1	n/a	0	0	0	0	0.5869140625	0.422607421875	lower	../fonts/amplitud.ttf
519811	WORD	wordpools/wasnorm_wordpool.txt	LTP140	ltpFR	12	3	0	APARTMENT	30	n/a	1	n/a	0	0	0	0	0.5869140625	0.422607421875	lower	../fonts/amplitud.ttf
523768	WORD	wordpools/wasnorm_wordpool.txt	LTP140	ltpFR	12	3	0	HONEY	713	n/a	0	n/a	0	0	0	0	0.5869140625	0.422607421875	lower	../fonts/amplitud.ttf
527965	WORD	wordpools/wasnorm_wordpool.txt	LTP140	ltpFR	12	3	0	SALMON	1227	n/a	1	n/a	0	0	0	0	0.5869140625	0.422607421875	lower	../fonts/amplitud.ttf
531989	WORD	wordpools/wasnorm_wordpool.txt	LTP140	ltpFR	12	3	0	SCHOOL	1248	n/a	1	n/a	0	0	0	0	0.5869140625	0.422607421875	lower	../fonts/amplitud.ttf
535872	WORD	wordpools/wasnorm_wordpool.txt	LTP140	ltpFR	12	3	0	CORAL	378	n/a	1	n/a	0	0	0	0	0.5869140625	0.422607421875	lower	../fonts/amplitud.ttf
539936	WORD	wordpools/wasnorm_wordpool.txt	LTP140	ltpFR	12	3	0	LABYRINTH	791	n/a	1	n/a	0	0	0	0	0.5869140625	0.422607421875	lower	../fonts/amplitud.ttf
544118	WORD	wordpools/wasnorm_wordpool.txt	LTP140	ltpFR	12	3	0	COBRA	336	n/a	1	n/a	0	0	0	0	0.5869140625	0.422607421875	lower	../fonts/amplitud.ttf
548225	WORD	wordpools/wasnorm_wordpool.txt	LTP140	ltpFR	12	3	0	POSSUM	1112	n/a	1	n/a	0	0	0	0	0.5869140625	0.422607421875	lower	../fonts/amplitud.ttf
552090	WORD	wordpools/wasnorm_wordpool.txt	LTP140	ltpFR	12	3	0	SQUIRREL	1362	n/a	1	n/a	0	0	0	0	0.5869140625	0.422607421875	lower	../fonts/amplitud.ttf
555955	WORD	wordpools/wasnorm_wordpool.txt	LTP140	ltpFR	12	3	0	STUDENT	1395	n/a	1	n/a	0	0	0	0	0.5869140625	0.422607421875	lower	../fonts/amplitud.ttf
558963	START	n/a	LTP140	ltpFR	12	n/a	n/a	n/a	n/a	n/a	n/a	n/a	n/a	n/a	n/a	n/a	n/a	n/a	n/a	n/a
559954	PROB	n/a	LTP140	ltpFR	12	n/a	n/a	n/a	n/a	n/a	n/a	13	2	3	8	n/a	n/a	n/a	n/a	n/a
561503	PROB	n/a	LTP140	ltpFR	12	n/a	n/a	n/a	n/a	n/a	n/a	10	4	5	1	n/a	n/a	n/a	n/a	n/a
562670	PROB	n/a	LTP140	ltpFR	12	n/a	n/a	n/a	n/a	n/a	n/a	18	7	8	3	n/a	n/a	n/a	n/a	n/a
563936	PROB	n/a	LTP140	ltpFR	12	n/a	n/a	n/a	n/a	n/a	n/a	14	8	4	2	n/a	n/a	n/a	n/a	n/a
565327	PROB	n/a	LTP140	ltpFR	12	n/a	n/a	n/a	n/a	n/a	n/a	18	1	8	9	n/a	n/a	n/a	n/a	n/a
566777	PROB	n/a	LTP140	ltpFR	12	n/a	n/a	n/a	n/a	n/a	n/a	17	5	8	4	n/a	n/a	n/a	n/a	n/a
568276	PROB	n/a	LTP140	ltpFR	12	n/a	n/a	n/a	n/a	n/a	n/a	19	5	6	8	n/a	n/a	n/a	n/a	n/a
569710	PROB	n/a	LTP140	ltpFR	12	n/a	n/a	n/a	n/a	n/a	n/a	9	2	2	5	n/a	n/a	n/a	n/a	n/a
571033	PROB	n/a	LTP140	ltpFR	12	n/a	n/a	n/a	n/a	n/a	n/a	16	8	2	6	n/a	n/a	n/a	n/a	n/a
572308	PROB	n/a	LTP140	ltpFR	12	n/a	n/a	n/a	n/a	n/a	n/a	6	1	1	4	n/a	n/a	n/a	n/a	n/a
574963	STOP	n/a	LTP140	ltpFR	12	n/a	n/a	n/a	n/a	n/a	n/a	n/a	n/a	n/a	n/a	n/a	n/a	n/a	n/a	n/a
576758	REC_START	n/a	LTP140	ltpFR	12	3	n/a	n/a	n/a	n/a	n/a	n/a	0	0	0	n/a	n/a	n/a	n/a	n/a
578209	REC_WORD	wordpools/wasnorm_wordpool.txt	LTP140	ltpFR	12	3	0	STUDENT	1395	n/a	1	n/a	0	0	0	n/a	n/a	n/a	n/a	n/a
579566	REC_WORD	wordpools/wasnorm_wordpool.txt	LTP140	ltpFR	12	3	0	SQUIRREL	1362	n/a	1	n/a	0	0	0	n/a	n/a	n/a	n/a	n/a
580834	REC_WORD	wordpools/wasnorm_wordpool.txt	LTP140	ltpFR	12	3	0	POSSUM	1112	n/a	1	n/a	0	0	0	n/a	n/a	n/a	n/a	n/a
582006	REC_WORD	wordpools/wasnorm_wordpool.txt	LTP140	ltpFR	12	3	0	COBRA	336	n/a	1	n/a	0	0	0	n/a	n/a	n/a	n/a	n/a
583607	REC_WORD	wordpools/wasnorm_wordpool.txt	LTP140	ltpFR	12	3	0	LABYRINTH	791	n/a	1	n/a	0	0	0	n/a	n/a	n/a	n/a	n/a
585582	REC_WORD	wordpools/wasnorm_wordpool.txt	LTP140	ltpFR	12	3	0	CORAL	378	n/a	1	n/a	0	0	0	n/a	n/a	n/a	n/a	n/a
586784	REC_WORD	wordpools/wasnorm_wordpool.txt	LTP140	ltpFR	12	3	0	SALMON	1227	n/a	1	n/a	0	0	0	n/a	n/a	n/a	n/a	n/a
590522	REC_WORD	wordpools/wasnorm_wordpool.txt	LTP140	ltpFR	12	3	0	CHERRY	293	n/a	0	n/a	0	0	0	n/a	n/a	n/a	n/a	n/a
591365	REC_WORD	wordpools/wasnorm_wordpool.txt	LTP140	ltpFR	12	3	0	DESSERT	453	n/a	0	n/a	0	0	0	n/a	n/a	n/a	n/a	n/a
593051	REC_WORD	wordpools/wasnorm_wordpool.txt	LTP140	ltpFR	12	3	0	TACK	1428	n/a	0	n/a	0	0	0	n/a	n/a	n/a	n/a	n/a
594213	REC_WORD	wordpools/wasnorm_wordpool.txt	LTP140	ltpFR	12	3	0	BARRACUDA	90	n/a	1	n/a	0	0	0	n/a	n/a	n/a	n/a	n/a
595989	REC_WORD	wordpools/wasnorm_wordpool.txt	LTP140	ltpFR	12	3	0	SEAFOOD	1260	n/a	1	n/a	0	0	0	n/a	n/a	n/a	n/a	n/a
597321	REC_WORD	wordpools/wasnorm_wordpool.txt	LTP140	ltpFR	12	3	0	CABIN	211	n/a	1	n/a	0	0	0	n/a	n/a	n/a	n/a	n/a
598568	REC_WORD	wordpools/wasnorm_wordpool.txt	LTP140	ltpFR	12	3	0	APARTMENT	30	n/a	1	n/a	0	0	0	n/a	n/a	n/a	n/a	n/a
599568	REC_WORD_VV	wordpools/wasnorm_wordpool.txt	LTP140	ltpFR	12	3	n/a	<>	-1	n/a	n/a	n/a	0	0	0	n/a	n/a	n/a	n/a	n/a
603527	REC_WORD	wordpools/wasnorm_wordpool.txt	LTP140	ltpFR	12	3	0	SALMON	1227	n/a	1	n/a	0	0	0	n/a	n/a	n/a	n/a	n/a
652739	START	n/a	LTP140	ltpFR	12	n/a	n/a	n/a	n/a	n/a	n/a	n/a	n/a	n/a	n/a	n/a	n/a	n/a	n/a	n/a
654245	PROB	n/a	LTP140	ltpFR	12	n/a	n/a	n/a	n/a	n/a	n/a	19	4	6	9	n/a	n/a	n/a	n/a	n/a
655837	PROB	n/a	LTP140	ltpFR	12	n/a	n/a	n/a	n/a	n/a	n/a	15	9	5	1	n/a	n/a	n/a	n/a	n/a
657294	PROB	n/a	LTP140	ltpFR	12	n/a	n/a	n/a	n/a	n/a	n/a	16	5	4	7	n/a	n/a	n/a	n/a	n/a
658820	PROB	n/a	LTP140	ltpFR	12	n/a	n/a	n/a	n/a	n/a	n/a	10	1	6	3	n/a	n/a	n/a	n/a	n/a
660228	STOP	n/a	LTP140	ltpFR	12	n/a	n/a	n/a	n/a	n/a	n/a	n/a	n/a	n/a	n/a	n/a	n/a	n/a	n/a	n/a
661610	WORD	wordpools/wasnorm_wordpool.txt	LTP140	ltpFR	12	4	0	BALCONY	72	n/a	1	n/a	0	0	0	0	0.5869140625	0.422607421875	lower	../fonts/amplitud.ttf
664618	START	n/a	LTP140	ltpFR	12	n/a	n/a	n/a	n/a	n/a	n/a	n/a	n/a	n/a	n/a	n/a	n/a	n/a	n/a	n/a
665684	PROB	n/a	LTP140	ltpFR	12	n/a	n/a	n/a	n/a	n/a	n/a	13	3	6	4	n/a	n/a	n/a	n/a	n/a
667341	PROB	n/a	LTP140	ltpFR	12	n/a	n/a	n/a	n/a	n/a	n/a	16	1	6	9	n/a	n/a	n/a	n/a	n/a
668799	PROB	n/a	LTP140	ltpFR	12	n/a	n/a	n/a	n/a	n/a	n/a	15	8	4	3	n/a	n/a	n/a	n/a	n/a
670790	PROB	n/a	LTP140	ltpFR	12	n/a	n/a	n/a	n/a	n/a	n/a	16	5	2	9	n/a	n/a	n/a	n/a	n/a
672132	STOP	n/a	LTP140	ltpFR	12	n/a	n/a	n/a	n/a	n/a	n/a	n/a	n/a	n/a	n/a	n/a	n/a	n/a	n/a	n/a
673530	WORD	wordpools/wasnorm_wordpool.txt	LTP140	ltpFR	12	4	0	SWIMMER	1420	n/a	1	n/a	0	0	0	0	0.5869140625	0.422607421875	lower	../fonts/amplitud.ttf
676538	START	n/a	LTP140	ltpFR	12	n/a	n/a	n/a	n/a	n/a	n/a	n/a	n/a	n/a	n/a	n/a	n/a	n/a	n/a	n/a
677479	PROB	n/a	LTP140	ltpFR	12	n/a	n/a	n/a	n/a	n/a	n/a	22	9	8	5	n/a	n/a	n/a	n/a	n/a
679478	PROB	n/a	LTP140	ltpFR	12	n/a	n/a	n/a	n/a	n/a	n/a	9	4	2	3	n/a	n/a	n/a	n/a	n/a
681227	PROB	n/a	LTP140	ltpFR	12	n/a	n/a	n/a	n/a	n/a	n/a	18	5	4	9	n/a	n/a	n/a	n/a	n/a
682435	PROB	n/a	LTP140	ltpFR	12	n/a	n/a	n/a	n/a	n/a	n/a	11	6	1	4	n/a	n/a	n/a	n/a	n/a
683629	STOP	n/a	LTP140	ltpFR	12	n/a	n/a	n/a	n/a	n/a	n/a	n/a	n/a	n/a	n/a	n/a	n/a	n/a	n/a	n/a
685484	WORD	wordpools/wasnorm_wordpool.txt	LTP140	ltpFR	12	4	0	WATER	1594	n/a	1	n/a	0	0	0	0	0.5869140625	0.422607421875	lower	../fonts/amplitud.ttf
688492	START	n/a	LTP140	ltpFR	12	n/a	n/a	n/a	n/a	n/a	n/a	n/a	n/a	n/a	n/a	n/a	n/a	n/a	n/a	n/a
689374	PROB	n/a	LTP140	ltpFR	12	n/a	n/a	n/a	n/a	n/a	n/a	14	4	6	4	n/a	n/a	n/a	n/a	n/a
690608	PROB	n/a	LTP140	ltpFR	12	n/a	n/a	n/a	n/a	n/a	n/a	16	4	5	7	n/a	n/a	n/a	n/a	n/a
691982	PROB	n/a	LTP140	ltpFR	12	n/a	n/a	n/a	n/a	n/a	n/a	10	3	4	3	n/a	n/a	n/a	n/a	n/a
693373	PROB	n/a	LTP140	ltpFR	12	n/a	n/a	n/a	n/a	n/a	n/a	15	7	7	1	n/a	n/a	n/a	n/a	n/a
694548	PROB	n/a	LTP140	ltpFR	12	n/a	n/a	n/a	n/a	n/a	n/a	16	4	9	3	n/a	n/a	n/a	n/a	n/a
695956	STOP	n/a	LTP140	ltpFR	12	n/a	n/a	n/a	n/a	n/a	n/a	n/a	n/a	n/a	n/a	n/a	n/a	n/a	n/a	n/a
697689	WORD	wordpools/wasnorm_wordpool.txt	LTP140	ltpFR	12	4	0	CROSS	413	n/a	0	n/a	0	0	0	0	0.5869140625	0.422607421875	lower	../fonts/amplitud.ttf
700697	START	n/a	LTP140	ltpFR	12	n/a	n/a	n/a	n/a	n/a	n/a	n/a	n/a	n/a	n/a	n/a	n/a	n/a	n/a	n/a
701671	PROB	n/a	LTP140	ltpFR	12	n/a	n/a	n/a	n/a	n/a	n/a	16	7	3	6	n/a	n/a	n/a	n/a	n/a
703028	PROB	n/a	LTP140	ltpFR	12	n/a	n/a	n/a	n/a	n/a	n/a	18	7	5	6	n/a	n/a	n/a	n/a	n/a
704587	PROB	n/a	LTP140	ltpFR	12	n/a	n/a	n/a	n/a	n/a	n/a	21	6	7	8	n/a	n/a	n/a	n/a	n/a
705985	PROB	n/a	LTP140	ltpFR	12	n/a	n/a	n/a	n/a	n/a	n/a	18	8	6	4	n/a	n/a	n/a	n/a	n/a
707284	STOP	n/a	LTP140	ltpFR	12	n/a	n/a	n/a	n/a	n/a	n/a	n/a	n/a	n/a	n/a	n/a	n/a	n/a	n/a	n/a
709793	WORD	wordpools/wasnorm_wordpool.txt	LTP140	ltpFR	12	4	0	RACK	1154	n/a	0	n/a	0	0	0	0	0.5869140625	0.422607421875	lower	../fonts/amplitud.ttf
712801	START	n/a	LTP140	ltpFR	12	n/a	n/a	n/a	n/a	n/a	n/a	n/a	n/a	n/a	n/a	n/a	n/a	n/a	n/a	n/a
713750	PROB	n/a	LTP140	ltpFR	12	n/a	n/a	n/a	n/a	n/a	n/a	14	8	1	5	n/a	n/a	n/a	n/a	n/a
715691	PROB	n/a	LTP140	ltpFR	12	n/a	n/a	n/a	n/a	n/a	n/a	20	9	6	5	n/a	n/a	n/a	n/a	n/a
718014	PROB	n/a	LTP140	ltpFR	12	n/a	n/a	n/a	n/a	n/a	n/a	14	2	4	8	n/a	n/a	n/a	n/a	n/a
719247	PROB	n/a	LTP140	ltpFR	12	n/a	n/a	n/a	n/a	n/a	n/a	14	1	5	8	n/a	n/a	n/a	n/a	n/a
720709	STOP	n/a	LTP140	ltpFR	12	n/a	n/a	n/a	n/a	n/a	n/a	n/a	n/a	n/a	n/a	n/a	n/a	n/a	n/a	n/a
721772	WORD	wordpools/wasnorm_wordpool.txt	LTP140	ltpFR	12	4	0	LABEL	790	n/a	0	n/a	0	0	0	0	0.5869140625	0.422607421875	lower	../fonts/amplitud.ttf
724780	START	n/a	LTP140	ltpFR	12	n/a	n/a	n/a	n/a	n/a	n/a	n/a	n/a	n/a	n/a	n/a	n/a	n/a	n/a	n/a
725712	PROB	n/a	LTP140	ltpFR	12	n/a	n/a	n/a	n/a	n/a	n/a	23	7	8	8	n/a	n/a	n/a	n/a	n/a
728111	PROB	n/a	LTP140	ltpFR	12	n/a	n/a	n/a	n/a	n/a	n/a	10	2	2	6	n/a	n/a	n/a	n/a	n/a
729393	PROB	n/a	LTP140	ltpFR	12	n/a	n/a	n/a	n/a	n/a	n/a	14	2	8	4	n/a	n/a	n/a	n/a	n/a
730985	PROB	n/a	LTP140	ltpFR	12	n/a	n/a	n/a	n/a	n/a	n/a	19	4	6	9	n/a	n/a	n/a	n/a	n/a
732292	STOP	n/a	LTP140	ltpFR	12	n/a	n/a	n/a	n/a	n/a	n/a	n/a	n/a	n/a	n/a	n/a	n/a	n/a	n/a	n/a
733635	WORD	wordpools/wasnorm_wordpool.txt	LTP140	ltpFR	12	4	0	OBOE	969	n/a	1	n/a	0	0	0	0	0.5869140625	0.422607421875	lower	../fonts/amplitud.ttf
736642	START	n/a	LTP140	ltpFR	12	n/a	n/a	n/a	n/a	n/a	n/a	n/a	n/a	n/a	n/a	n/a	n/a	n/a	n/a	n/a
737516	PROB	n/a	LTP140	ltpFR	12	n/a	n/a	n/a	n/a	n/a	n/a	15	8	5	2	n/a	n/a	n/a	n/a	n/a
738866	PROB	n/a	LTP140	ltpFR	12	n/a	n/a	n/a	n/a	n/a	n/a	8	1	5	2	n/a	n/a	n/a	n/a	n/a
740106	PROB	n/a	LTP140	ltpFR	12	n/a	n/a	n/a	n/a	n/a	n/a	14	5	7	2	n/a	n/a	n/a	n/a	n/a
742181	PROB	n/a	LTP140	ltpFR	12	n/a	n/a	n/a	n/a	n/a	n/a	13	4	5	4	n/a	n/a	n/a	n/a	n/a
744140	STOP	n/a	LTP140	ltpFR	12	n/a	n/a	n/a	n/a	n/a	n/a	n/a	n/a	n/a	n/a	n/a	n/a	n/a	n/a	n/a
745764	WORD	wordpools/wasnorm_wordpool.txt	LTP140	ltpFR	12	4	0	FEATHER	557	n/a	0	n/a	0	0	0	0	0.5869140625	0.422607421875	lower	../fonts/amplitud.ttf
748771	START	n/a	LTP140	ltpFR	12	n/a	n/a	n/a	n/a	n/a	n/a	n/a	n/a	n/a	n/a	n/a	n/a	n/a	n/a	n/a
749671	PROB	n/a	LTP140	ltpFR	12	n/a	n/a	n/a	n/a	n/a	n/a	15	3	3	9	n/a	n/a	n/a	n/a	n/a
750837	PROB	n/a	LTP140	ltpFR	12	n/a	n/a	n/a	n/a	n/a	n/a	20	9	8	3	n/a	n/a	n/a	n/a	n/a
752177	PROB	n/a	LTP140	ltpFR	12	n/a	n/a	n/a	n/a	n/a	n/a	20	3	8	9	n/a	n/a	n/a	n/a	n/a
754335	PROB	n/a	LTP140	ltpFR	12	n/a	n/a	n/a	n/a	n/a	n/a	14	8	1	5	n/a	n/a	n/a	n/a	n/a
756196	STOP	n/a	LTP140	ltpFR	12	n/a	n/a	n/a	n/a	n/a	n/a	n/a	n/a	n/a	n/a	n/a	n/a	n/a	n/a	n/a
757925	WORD	wordpools/wasnorm_wordpool.txt	LTP140	ltpFR	12	4	0	HIGHWAY	707	n/a	1	n/a	0	0	0	0	0.5869140625	0.422607421875	lower	../fonts/amplitud.ttf
760933	START	n/a	LTP140	ltpFR	12	n/a	n/a	n/a	n/a	n/a	n/a	n/a	n/a	n/a	n/a	n/a	n/a	n/a	n/a	n/a
762082	PROB	n/a	LTP140	ltpFR	12	n/a	n/a	n/a	n/a	n/a	n/a	22	9	7	6	n/a	n/a	n/a	n/a	n/a
763774	PROB	n/a	LTP140	ltpFR	12	n/a	n/a	n/a	n/a	n/a	n/a	23	8	9	5	n/a	n/a	n/a	n/a	n/a
765322	PROB	n/a	LTP140	ltpFR	12	n/a	n/a	n/a	n/a	n/a	n/a	14	2	9	3	n/a	n/a	n/a	n/a	n/a
766930	PROB	n/a	LTP140	ltpFR	12	n/a	n/a	n/a	n/a	n/a	n/a	18	9	3	6	n/a	n/a	n/a	n/a	n/a
768709	STOP	n/a	LTP140	ltpFR	12	n/a	n/a	n/a	n/a	n/a	n/a	n/a	n/a	n/a	n/a	n/a	n/a	n/a	n/a	n/a
770121	WORD	wordpools/wasnorm_wordpool.txt	LTP140	ltpFR	12	4	0	TROMBONE	1508	n/a	1	n/a	0	0	0	0	0.5869140625	0.422607421875	lower	../fonts/amplitud.ttf
773128	START	n/a	LTP140	ltpFR	12	n/a	n/a	n/a	n/a	n/a	n/a	n/a	n/a	n/a	n/a	n/a	n/a	n/a	n/a	n/a
774161	PROB	n/a	LTP140	ltpFR	12	n/a	n/a	n/a	n/a	n/a	n/a	13	3	5	5	n/a	n/a	n/a	n/a	n/a
775603	PROB	n/a	LTP140	ltpFR	12	n/a	n/a	n/a	n/a	n/a	n/a	17	1	7	9	n/a	n/a	n/a	n/a	n/a
776902	PROB	n/a	LTP140	ltpFR	12	n/a	n/a	n/a	n/a	n/a	n/a	12	3	4	5	n/a	n/a	n/a	n/a	n/a
778393	PROB	n/a	LTP140	ltpFR	12	n/a	n/a	n/a	n/a	n/a	n/a	22	7	9	6	n/a	n/a	n/a	n/a	n/a
780661	STOP	n/a	LTP140	ltpFR	12	n/a	n/a	n/a	n/a	n/a	n/a	n/a	n/a	n/a	n/a	n/a	n/a	n/a	n/a	n/a
782191	WORD	wordpools/wasnorm_wordpool.txt	LTP140	ltpFR	12	4	0	CAGE	218	n/a	1	n/a	0	0	0	0	0.5869140625	0.422607421875	lower	../fonts/amplitud.ttf
785199	START	n/a	LTP140	ltpFR	12	n/a	n/a	n/a	n/a	n/a	n/a	n/a	n/a	n/a	n/a	n/a	n/a	n/a	n/a	n/a
786332	PROB	n/a	LTP140	ltpFR	12	n/a	n/a	n/a	n/a	n/a	n/a	14	7	6	1	n/a	n/a	n/a	n/a	n/a
787582	PROB	n/a	LTP140	ltpFR	12	n/a	n/a	n/a	n/a	n/a	n/a	8	1	5	2	n/a	n/a	n/a	n/a	n/a
788723	PROB	n/a	LTP140	ltpFR	12	n/a	n/a	n/a	n/a	n/a	n/a	13	9	3	1	n/a	n/a	n/a	n/a	n/a
790147	PROB	n/a	LTP140	ltpFR	12	n/a	n/a	n/a	n/a	n/a	n/a	11	3	4	4	n/a	n/a	n/a	n/a	n/a
793199	STOP	n/a	LTP140	ltpFR	12	n/a	n/a	n/a	n/a	n/a	n/a	n/a	n/a	n/a	n/a	n/a	n/a	n/a	n/a	n/a
794195	WORD	wordpools/wasnorm_wordpool.txt	LTP140	ltpFR	12	4	0	TUBA	1515	n/a	1	n/a	0	0	0	0	0.5869140625	0.422607421875	lower	../fonts/amplitud.ttf
797203	START	n/a	LTP140	ltpFR	12	n/a	n/a	n/a	n/a	n/a	n/a	n/a	n/a	n/a	n/a	n/a	n/a	n/a	n/a	n/a
798236	PROB	n/a	LTP140	ltpFR	12	n/a	n/a	n/a	n/a	n/a	n/a	15	6	3	6	n/a	n/a	n/a	n/a	n/a
799695	PROB	n/a	LTP140	ltpFR	12	n/a	n/a	n/a	n/a	n/a	n/a	16	5	5	6	n/a	n/a	n/a	n/a	n/a
800777	PROB	n/a	LTP140	ltpFR	12	n/a	n/a	n/a	n/a	n/a	n/a	14	4	9	1	n/a	n/a	n/a	n/a	n/a
802168	PROB	n/a	LTP140	ltpFR	12	n/a	n/a	n/a	n/a	n/a	n/a	15	4	6	5	n/a	n/a	n/a	n/a	n/a
803725	STOP	n/a	LTP140	ltpFR	12	n/a	n/a	n/a	n/a	n/a	n/a	n/a	n/a	n/a	n/a	n/a	n/a	n/a	n/a	n/a
806016	WORD	wordpools/wasnorm_wordpool.txt	LTP140	ltpFR	12	4	0	BUGLE	189	n/a	1	n/a	0	0	0	0	0.5869140625	0.422607421875	lower	../fonts/amplitud.ttf
809024	START	n/a	LTP140	ltpFR	12	n/a	n/a	n/a	n/a	n/a	n/a	n/a	n/a	n/a	n/a	n/a	n/a	n/a	n/a	n/a
810115	PROB	n/a	LTP140	ltpFR	12	n/a	n/a	n/a	n/a	n/a	n/a	11	4	4	3	n/a	n/a	n/a	n/a	n/a
811498	PROB	n/a	LTP140	ltpFR	12	n/a	n/a	n/a	n/a	n/a	n/a	17	6	6	5	n/a	n/a	n/a	n/a	n/a
812972	PROB	n/a	LTP140	ltpFR	12	n/a	n/a	n/a	n/a	n/a	n/a	16	8	6	2	n/a	n/a	n/a	n/a	n/a
814639	PROB	n/a	LTP140	ltpFR	12	n/a	n/a	n/a	n/a	n/a	n/a	19	6	7	6	n/a	n/a	n/a	n/a	n/a
816444	STOP	n/a	LTP140	ltpFR	12	n/a	n/a	n/a	n/a	n/a	n/a	n/a	n/a	n/a	n/a	n/a	n/a	n/a	n/a	n/a
818145	WORD	wordpools/wasnorm_wordpool.txt	LTP140	ltpFR	12	4	0	CHICK	296	n/a	0	n/a	0	0	0	0	0.5869140625	0.422607421875	lower	../fonts/amplitud.ttf
821153	START	n/a	LTP140	ltpFR	12	n/a	n/a	n/a	n/a	n/a	n/a	n/a	n/a	n/a	n/a	n/a	n/a	n/a	n/a	n/a
822169	PROB	n/a	LTP140	ltpFR	12	n/a	n/a	n/a	n/a	n/a	n/a	19	7	9	3	n/a	n/a	n/a	n/a	n/a
824310	PROB	n/a	LTP140	ltpFR	12	n/a	n/a	n/a	n/a	n/a	n/a	14	6	6	2	n/a	n/a	n/a	n/a	n/a
825443	PROB	n/a	LTP140	ltpFR	12	n/a	n/a	n/a	n/a	n/a	n/a	19	9	7	3	n/a	n/a	n/a	n/a	n/a
827109	PROB	n/a	LTP140	ltpFR	12	n/a	n/a	n/a	n/a	n/a	n/a	10	4	4	2	n/a	n/a	n/a	n/a	n/a
828677	STOP	n/a	LTP140	ltpFR	12	n/a	n/a	n/a	n/a	n/a	n/a	n/a	n/a	n/a	n/a	n/a	n/a	n/a	n/a	n/a
830141	WORD	wordpools/wasnorm_wordpool.txt	LTP140	ltpFR	12	4	0	CELLAR	267	n/a	1	n/a	0	0	0	0	0.5869140625	0.422607421875	lower	../fonts/amplitud.ttf
833149	START	n/a	LTP140	ltpFR	12	n/a	n/a	n/a	n/a	n/a	n/a	n/a	n/a	n/a	n/a	n/a	n/a	n/a	n/a	n/a
834190	PROB	n/a	LTP140	ltpFR	12	n/a	n/a	n/a	n/a	n/a	n/a	19	6	7	6	n/a	n/a	n/a	n/a	n/a
835514	PROB	n/a	LTP140	ltpFR	12	n/a	n/a	n/a	n/a	n/a	n/a	15	9	3	3	n/a	n/a	n/a	n/a	n/a
836922	PROB	n/a	LTP140	ltpFR	12	n/a	n/a	n/a	n/a	n/a	n/a	15	6	5	4	n/a	n/a	n/a	n/a	n/a
838080	PROB	n/a	LTP140	ltpFR	12	n/a	n/a	n/a	n/a	n/a	n/a	19	4	9	6	n/a	n/a	n/a	n/a	n/a
839924	STOP	n/a	LTP140	ltpFR	12	n/a	n/a	n/a	n/a	n/a	n/a	n/a	n/a	n/a	n/a	n/a	n/a	n/a	n/a	n/a
842103	WORD	wordpools/wasnorm_wordpool.txt	LTP140	ltpFR	12	4	0	ENGINE	535	n/a	1	n/a	0	0	0	0	0.5869140625	0.422607421875	lower	../fonts/amplitud.ttf
845111	START	n/a	LTP140	ltpFR	12	n/a	n/a	n/a	n/a	n/a	n/a	n/a	n/a	n/a	n/a	n/a	n/a	n/a	n/a	n/a
846085	PROB	n/a	LTP140	ltpFR	12	n/a	n/a	n/a	n/a	n/a	n/a	13	3	3	7	n/a	n/a	n/a	n/a	n/a
848451	PROB	n/a	LTP140	ltpFR	12	n/a	n/a	n/a	n/a	n/a	n/a	18	9	3	6	n/a	n/a	n/a	n/a	n/a
850067	PROB	n/a	LTP140	ltpFR	12	n/a	n/a	n/a	n/a	n/a	n/a	14	6	1	7	n/a	n/a	n/a	n/a	n/a
851325	PROB	n/a	LTP140	ltpFR	12	n/a	n/a	n/a	n/a	n/a	n/a	9	3	1	5	n/a	n/a	n/a	n/a	n/a
852396	STOP	n/a	LTP140	ltpFR	12	n/a	n/a	n/a	n/a	n/a	n/a	n/a	n/a	n/a	n/a	n/a	n/a	n/a	n/a	n/a
854999	REC_START	n/a	LTP140	ltpFR	12	4	n/a	n/a	n/a	n/a	n/a	n/a	0	0	0	n/a	n/a	n/a	n/a	n/a
856865	REC_WORD	wordpools/wasnorm_wordpool.txt	LTP140	ltpFR	12	4	0	ENGINE	535	n/a	1	n/a	0	0	0	n/a	n/a	n/a	n/a	n/a
857722	REC_WORD	wordpools/wasnorm_wordpool.txt	LTP140	ltpFR	12	4	0	CELLAR	267	n/a	1	n/a	0	0	0	n/a	n/a	n/a	n/a	n/a
858722	REC_WORD_VV	wordpools/wasnorm_wordpool.txt	LTP140	ltpFR	12	4	n/a	<>	-1	n/a	n/a	n/a	0	0	0	n/a	n/a	n/a	n/a	n/a
858975	REC_WORD	wordpools/wasnorm_wordpool.txt	LTP140	ltpFR	12	4	0	CHICK	296	n/a	0	n/a	0	0	0	n/a	n/a	n/a	n/a	n/a
860277	REC_WORD	wordpools/wasnorm_wordpool.txt	LTP140	ltpFR	12	4	0	BUGLE	189	n/a	1	n/a	0	0	0	n/a	n/a	n/a	n/a	n/a
861314	REC_WORD	wordpools/wasnorm_wordpool.txt	LTP140	ltpFR	12	4	0	CAGE	218	n/a	1	n/a	0	0	0	n/a	n/a	n/a	n/a	n/a
862552	REC_WORD	wordpools/wasnorm_wordpool.txt	LTP140	ltpFR	12	4	0	TUBA	1515	n/a	1	n/a	0	0	0	n/a	n/a	n/a	n/a	n/a
864921	REC_WORD	wordpools/wasnorm_wordpool.txt	LTP140	ltpFR	12	4	0	TROMBONE	1508	n/a	1	n/a	0	0	0	n/a	n/a	n/a	n/a	n/a
865921	REC_WORD_VV	wordpools/wasnorm_wordpool.txt	LTP140	ltpFR	12	4	n/a	<>	-1	n/a	n/a	n/a	0	0	0	n/a	n/a	n/a	n/a	n/a
868014	REC_WORD	wordpools/wasnorm_wordpool.txt	LTP140	ltpFR	12	4	0	FEATHER	557	n/a	0	n/a	0	0	0	n/a	n/a	n/a	n/a	n/a
869466	REC_WORD	wordpools/wasnorm_wordpool.txt	LTP140	ltpFR	12	4	0	OBOE	969	n/a	1	n/a	0	0	0	n/a	n/a	n/a	n/a	n/a
870466	REC_WORD_VV	wordpools/wasnorm_wordpool.txt	LTP140	ltpFR	12	4	n/a	<>	-1	n/a	n/a	n/a	0	0	0	n/a	n/a	n/a	n/a	n/a
872080	REC_WORD	wordpools/wasnorm_wordpool.txt	LTP140	ltpFR	12	4	0	BALCONY	72	n/a	1	n/a	0	0	0	n/a	n/a	n/a	n/a	n/a
872917	REC_WORD	wordpools/wasnorm_wordpool.txt	LTP140	ltpFR	12	4	0	SWIMMER	1420	n/a	1	n/a	0	0	0	n/a	n/a	n/a	n/a	n/a
873917	REC_WORD_VV	wordpools/wasnorm_wordpool.txt	LTP140	ltpFR	12	4	n/a	<>	-1	n/a	n/a	n/a	0	0	0	n/a	n/a	n/a	n/a	n/a
874804	REC_WORD	wordpools/wasnorm_wordpool.txt	LTP140	ltpFR	12	4	0	WATER	1594	n/a	1	n/a	0	0	0	n/a	n/a	n/a	n/a	n/a
875881	REC_WORD	wordpools/wasnorm_wordpool.txt	LTP140	ltpFR	12	4	0	RACK	1154	n/a	0	n/a	0	0	0	n/a	n/a	n/a	n/a	n/a
877443	REC_WORD	wordpools/wasnorm_wordpool.txt	LTP140	ltpFR	12	4	0	LABEL	790	n/a	0	n/a	0	0	0	n/a	n/a	n/a	n/a	n/a
878443	REC_WORD_VV	wordpools/wasnorm_wordpool.txt	LTP140	ltpFR	12	4	n/a	<>	-1	n/a	n/a	n/a	0	0	0	n/a	n/a	n/a	n/a	n/a
935020	WORD	wordpools/wasnorm_wordpool.txt	LTP140	ltpFR	12	5	0	MUMMY	932	n/a	1	n/a	0	0	0	0	0.5869140625	0.422607421875	lower	../fonts/amplitud.ttf
939186	WORD	wordpools/wasnorm_wordpool.txt	LTP140	ltpFR	12	5	0	ELF	525	n/a	1	n/a	0	0	0	0	0.5869140625	0.422607421875	lower	../fonts/amplitud.ttf
943151	WORD	wordpools/wasnorm_wordpool.txt	LTP140	ltpFR	12	5	0	PHILOSOPHER	1054	n/a	1	n/a	0	0	0	0	0.5869140625	0.422607421875	lower	../fonts/amplitud.ttf
947099	WORD	wordpools/wasnorm_wordpool.txt	LTP140	ltpFR	12	5	0	BRAKE	166	n/a	0	n/a	0	0	0	0	0.5869140625	0.422607421875	lower	../fonts/amplitud.ttf
951223	WORD	wordpools/wasnorm_wordpool.txt	LTP140	ltpFR	12	5	0	PISTON	1076	n/a	0	n/a	0	0	0	0	0.5869140625	0.422607421875	lower	../fonts/amplitud.ttf
955055	WORD	wordpools/wasnorm_wordpool.txt	LTP140	ltpFR	12	5	0	PROFESSOR	1131	n/a	1	n/a	0	0	0	0	0.5869140625	0.422607421875	lower	../fonts/amplitud.ttf
959145	WORD	wordpools/wasnorm_wordpool.txt	LTP140	ltpFR	12	5	0	PALACE	1006	n/a	1	n/a	0	0	0	0	0.5869140625	0.422607421875	lower	../fonts/amplitud.ttf
963252	WORD	wordpools/wasnorm_wordpool.txt	LTP140	ltpFR	12	5	0	RESTAURANT	1187	n/a	1	n/a	0	0	0	0	0.5869140625	0.422607421875	lower	../fonts/amplitud.ttf
967076	WORD	wordpools/wasnorm_wordpool.txt	LTP140	ltpFR	12	5	0	HAMMER	680	n/a	0	n/a	0	0	0	0	0.5869140625	0.422607421875	lower	../fonts/amplitud.ttf
971083	WORD	wordpools/wasnorm_wordpool.txt	LTP140	ltpFR	12	5	0	LASH	802	n/a	0	n/a	0	0	0	0	0.5869140625	0.422607421875	lower	../fonts/amplitud.ttf
975139	WORD	wordpools/wasnorm_wordpool.txt	LTP140	ltpFR	12	5	0	WAITER	1580	n/a	1	n/a	0	0	0	0	0.5869140625	0.422607421875	lower	../fonts/amplitud.ttf
979021	WORD	wordpools/wasnorm_wordpool.txt	LTP140	ltpFR	12	5	0	CLIMBER	323	n/a	1	n/a	0	0	0	0	0.5869140625	0.422607421875	lower	../fonts/amplitud.ttf
983120	WORD	wordpools/wasnorm_wordpool.txt	LTP140	ltpFR	12	5	0	ESCALATOR	539	n/a	1	n/a	0	0	0	0	0.5869140625	0.422607421875	lower	../fonts/amplitud.ttf
987243	WORD	wordpools/wasnorm_wordpool.txt	LTP140	ltpFR	12	5	0	DRAWING	494	n/a	0	n/a	0	0	0	0	0.5869140625	0.422607421875	lower	../fonts/amplitud.ttf
991117	WORD	wordpools/wasnorm_wordpool.txt	LTP140	ltpFR	12	5	0	PAINT	1003	n/a	0	n/a	0	0	0	0	0.5869140625	0.422607421875	lower	../fonts/amplitud.ttf
994932	WORD	wordpools/wasnorm_wordpool.txt	LTP140	ltpFR	12	5	0	BROCCOLI	176	n/a	0	n/a	0	0	0	0	0.5869140625	0.422607421875	lower	../fonts/amplitud.ttf
997940	START	n/a	LTP140	ltpFR	12	n/a	n/a	n/a	n/a	n/a	n/a	n/a	n/a	n/a	n/a	n/a	n/a	n/a	n/a	n/a
999123	PROB	n/a	LTP140	ltpFR	12	n/a	n/a	n/a	n/a	n/a	n/a	17	2	9	6	n/a	n/a	n/a	n/a	n/a
1000756	PROB	n/a	LTP140	ltpFR	12	n/a	n/a	n/a	n/a	n/a	n/a	17	7	6	4	n/a	n/a	n/a	n/a	n/a
1002631	PROB	n/a	LTP140	ltpFR	12	n/a	n/a	n/a	n/a	n/a	n/a	13	4	7	2	n/a	n/a	n/a	n/a	n/a
1004021	PROB	n/a	LTP140	ltpFR	12	n/a	n/a	n/a	n/a	n/a	n/a	9	1	4	4	n/a	n/a	n/a	n/a	n/a
1005108	STOP	n/a	LTP140	ltpFR	12	n/a	n/a	n/a	n/a	n/a	n/a	n/a	n/a	n/a	n/a	n/a	n/a	n/a	n/a	n/a
1007855	REC_START	n/a	LTP140	ltpFR	12	5	n/a	n/a	n/a	n/a	n/a	n/a	0	0	0	n/a	n/a	n/a	n/a	n/a
1008982	REC_WORD	wordpools/wasnorm_wordpool.txt	LTP140	ltpFR	12	5	0	MUMMY	932	n/a	1	n/a	0	0	0	n/a	n/a	n/a	n/a	n/a
1010030	REC_WORD	wordpools/wasnorm_wordpool.txt	LTP140	ltpFR	12	5	0	ELF	525	n/a	1	n/a	0	0	0	n/a	n/a	n/a	n/a	n/a
1010828	REC_WORD	wordpools/wasnorm_wordpool.txt	LTP140	ltpFR	12	5	0	PHILOSOPHER	1054	n/a	1	n/a	0	0	0	n/a	n/a	n/a	n/a	n/a
1011828	REC_WORD_VV	wordpools/wasnorm_wordpool.txt	LTP140	ltpFR	12	5	n/a	<>	-1	n/a	n/a	n/a	0	0	0	n/a	n/a	n/a	n/a	n/a
1012210	REC_WORD	wordpools/wasnorm_wordpool.txt	LTP140	ltpFR	12	5	0	BRAKE	166	n/a	0	n/a	0	0	0	n/a	n/a	n/a	n/a	n/a
1013552	REC_WORD	wordpools/wasnorm_wordpool.txt	LTP140	ltpFR	12	5	0	PISTON	1076	n/a	0	n/a	0	0	0	n/a	n/a	n/a	n/a	n/a
1015053	REC_WORD	wordpools/wasnorm_wordpool.txt	LTP140	ltpFR	12	5	0	PROFESSOR	1131	n/a	1	n/a	0	0	0	n/a	n/a	n/a	n/a	n/a
1016053	REC_WORD_VV	wordpools/wasnorm_wordpool.txt	LTP140	ltpFR	12	5	n/a	<>	-1	n/a	n/a	n/a	0	0	0	n/a	n/a	n/a	n/a	n/a
1016240	REC_WORD	wordpools/wasnorm_wordpool.txt	LTP140	ltpFR	12	5	0	WAITER	1580	n/a	1	n/a	0	0	0	n/a	n/a	n/a	n/a	n/a
1017538	REC_WORD	wordpools/wasnorm_wordpool.txt	LTP140	ltpFR	12	5	0	RESTAURANT	1187	n/a	1	n/a	0	0	0	n/a	n/a	n/a	n/a	n/a
1018810	REC_WORD	wordpools/wasnorm_wordpool.txt	LTP140	ltpFR	12	5	0	HAMMER	680	n/a	0	n/a	0	0	0	n/a	n/a	n/a	n/a	n/a
1019810	REC_WORD_VV	wordpools/wasnorm_wordpool.txt	LTP140	ltpFR	12	5	n/a	<>	-1	n/a	n/a	n/a	0	0	0	n/a	n/a	n/a	n/a	n/a
1020591	REC_WORD	wordpools/wasnorm_wordpool.txt	LTP140	ltpFR	12	5	0	CLIMBER	323	n/a	1	n/a	0	0	0	n/a	n/a	n/a	n/a	n/a
1021591	REC_WORD_VV	wordpools/wasnorm_wordpool.txt	LTP140	ltpFR	12	5	n/a	<>	-1	n/a	n/a	n/a	0	0	0	n/a	n/a	n/a	n/a	n/a
1022043	REC_WORD	wordpools/wasnorm_wordpool.txt	LTP140	ltpFR	12	5	0	ESCALATOR	539	n/a	1	n/a	0	0	0	n/a	n/a	n/a	n/a	n/a
1023043	REC_WORD_VV	wordpools/wasnorm_wordpool.txt	LTP140	ltpFR	12	5	n/a	<>	-1	n/a	n/a	n/a	0	0	0	n/a	n/a	n/a	n/a	n/a
1024537	REC_WORD	wordpools/wasnorm_wordpool.txt	LTP140	ltpFR	12	5	0	PAINT	1003	n/a	0	n/a	0	0	0	n/a	n/a	n/a	n/a	n/a
1025704	REC_WORD	wordpools/wasnorm_wordpool.txt	LTP140	ltpFR	12	5	0	BROCCOLI	176	n/a	0	n/a	0	0	0	n/a	n/a	n/a	n/a	n/a
1027420	REC_WORD	wordpools/wasnorm_wordpool.txt	LTP140	ltpFR	12	5	0	DRAWING	494	n/a	0	n/a	0	0	0	n/a	n/a	n/a	n/a	n/a
1090273	WORD	wordpools/wasnorm_wordpool.txt	LTP140	ltpFR	12	6	1	SNORKEL	1336	n/a	0	n/a	0	0	0	1	0.412841796875	0.57763671875	upper	../fonts/zerothre.ttf
1094339	WORD	wordpools/wasnorm_wordpool.txt	LTP140	ltpFR	12	6	1	HUSBAND	728	n/a	1	n/a	0	0	0	1	0.412841796875	0.57763671875	upper	../fonts/zerothre.ttf
1098204	WORD	wordpools/wasnorm_wordpool.txt	LTP140	ltpFR	12	6	1	HEART	697	n/a	1	n/a	0	0	0	1	0.412841796875	0.57763671875	upper	../fonts/zerothre.ttf
1102161	WORD	wordpools/wasnorm_wordpool.txt	LTP140	ltpFR	12	6	1	BODY	145	n/a	1	n/a	0	0	0	1	0.412841796875	0.57763671875	upper	../fonts/zerothre.ttf
1106143	WORD	wordpools/wasnorm_wordpool.txt	LTP140	ltpFR	12	6	1	WASHER	1592	n/a	0	n/a	0	0	0	1	0.412841796875	0.57763671875	upper	../fonts/zerothre.ttf
1110208	WORD	wordpools/wasnorm_wordpool.txt	LTP140	ltpFR	12	6	1	PAPER	1011	n/a	0	n/a	0	0	0	1	0.412841796875	0.57763671875	upper	../fonts/zerothre.ttf
1114090	WORD	wordpools/wasnorm_wordpool.txt	LTP140	ltpFR	12	6	1	KNAPSACK	783	n/a	0	n/a	0	0	0	1	0.412841796875	0.57763671875	upper	../fonts/zerothre.ttf
1118255	WORD	wordpools/wasnorm_wordpool.txt	LTP140	ltpFR	12	6	1	KETTLE	772	n/a	0	n/a	0	0	0	1	0.412841796875	0.57763671875	upper	../fonts/zerothre.ttf
1122404	WORD	wordpools/wasnorm_wordpool.txt	LTP140	ltpFR	12	6	1	FOREST	593	n/a	0	n/a	0	0	0	1	0.412841796875	0.57763671875	upper	../fonts/zerothre.ttf
1126286	WORD	wordpools/wasnorm_wordpool.txt	LTP140	ltpFR	12	6	1	MINER	896	n/a	1	n/a	0	0	0	1	0.412841796875	0.57763671875	upper	../fonts/zerothre.ttf
1130126	WORD	wordpools/wasnorm_wordpool.txt	LTP140	ltpFR	12	6	1	MEDAL	885	n/a	0	n/a	0	0	0	1	0.412841796875	0.57763671875	upper	../fonts/zerothre.ttf
1134033	WORD	wordpools/wasnorm_wordpool.txt	LTP140	ltpFR	12	6	1	FOUNTAIN	597	n/a	0	n/a	0	0	0	1	0.412841796875	0.57763671875	upper	../fonts/zerothre.ttf
1137858	WORD	wordpools/wasnorm_wordpool.txt	LTP140	ltpFR	12	6	1	SPIDER	1351	n/a	1	n/a	0	0	0	1	0.412841796875	0.57763671875	upper	../fonts/zerothre.ttf
1141922	WORD	wordpools/wasnorm_wordpool.txt	LTP140	ltpFR	12	6	1	GRASSHOPPER	656	n/a	1	n/a	0	0	0	1	0.412841796875	0.57763671875	upper	../fonts/zerothre.ttf
1146029	WORD	wordpools/wasnorm_wordpool.txt	LTP140	ltpFR	12	6	1	ELM	527	n/a	1	n/a	0	0	0	1	0.412841796875	0.57763671875	upper	../fonts/zerothre.ttf
1149952	WORD	wordpools/wasnorm_wordpool.txt	LTP140	ltpFR	12	6	1	MERMAID	887	n/a	1	n/a	0	0	0	1	0.412841796875	0.57763671875	upper	../fonts/zerothre.ttf
1155793	REC_START	n/a	LTP140	ltpFR	12	6	n/a	n/a	n/a	n/a	n/a	n/a	0	0	0	n/a	n/a	n/a	n/a	n/a
1158826	REC_WORD	wordpools/wasnorm_wordpool.txt	LTP140	ltpFR	12	6	1	SNORKEL	1336	n/a	0	n/a	0	0	0	n/a	n/a	n/a	n/a	n/a
1159914	REC_WORD	wordpools/wasnorm_wordpool.txt	LTP140	ltpFR	12	6	1	HUSBAND	728	n/a	1	n/a	0	0	0	n/a	n/a	n/a	n/a	n/a
1161076	REC_WORD	wordpools/wasnorm_wordpool.txt	LTP140	ltpFR	12	6	1	HEART	697	n/a	1	n/a	0	0	0	n/a	n/a	n/a	n/a	n/a
1162622	REC_WORD	wordpools/wasnorm_wordpool.txt	LTP140	ltpFR	12	6	1	BODY	145	n/a	1	n/a	0	0	0	n/a	n/a	n/a	n/a	n/a
1164343	REC_WORD	wordpools/wasnorm_wordpool.txt	LTP140	ltpFR	12	6	1	KETTLE	772	n/a	0	n/a	0	0	0	n/a	n/a	n/a	n/a	n/a
1166658	REC_WORD	wordpools/wasnorm_wordpool.txt	LTP140	ltpFR	12	6	1	KNAPSACK	783	n/a	0	n/a	0	0	0	n/a	n/a	n/a	n/a	n/a
1168274	REC_WORD	wordpools/wasnorm_wordpool.txt	LTP140	ltpFR	12	6	1	PAPER	1011	n/a	0	n/a	0	0	0	n/a	n/a	n/a	n/a	n/a
1172549	REC_WORD	wordpools/wasnorm_wordpool.txt	LTP140	ltpFR	12	6	1	FOREST	593	n/a	0	n/a	0	0	0	n/a	n/a	n/a	n/a	n/a
1174909	REC_WORD	wordpools/wasnorm_wordpool.txt	LTP140	ltpFR	12	6	1	MINER	896	n/a	1	n/a	0	0	0	n/a	n/a	n/a	n/a	n/a
1176087	REC_WORD	wordpools/wasnorm_wordpool.txt	LTP140	ltpFR	12	6	1	MEDAL	885	n/a	0	n/a	0	0	0	n/a	n/a	n/a	n/a	n/a
1177353	REC_WORD	wordpools/wasnorm_wordpool.txt	LTP140	ltpFR	12	6	1	FOUNTAIN	597	n/a	0	n/a	0	0	0	n/a	n/a	n/a	n/a	n/a
1178353	REC_WORD_VV	wordpools/wasnorm_wordpool.txt	LTP140	ltpFR	12	6	n/a	<>	-1	n/a	n/a	n/a	0	0	0	n/a	n/a	n/a	n/a	n/a
1179264	REC_WORD	wordpools/wasnorm_wordpool.txt	LTP140	ltpFR	12	6	1	GRASSHOPPER	656	n/a	1	n/a	0	0	0	n/a	n/a	n/a	n/a	n/a
1180371	REC_WORD	wordpools/wasnorm_wordpool.txt	LTP140	ltpFR	12	6	1	SPIDER	1351	n/a	1	n/a	0	0	0	n/a	n/a	n/a	n/a	n/a
1181371	REC_WORD_VV	wordpools/wasnorm_wordpool.txt	LTP140	ltpFR	12	6	n/a	<>	-1	n/a	n/a	n/a	0	0	0	n/a	n/a	n/a	n/a	n/a
1181888	REC_WORD	wordpools/wasnorm_wordpool.txt	LTP140	ltpFR	12	6	1	MERMAID	887	n/a	1	n/a	0	0	0	n/a	n/a	n/a	n/a	n/a
1183644	REC_WORD	wordpools/wasnorm_wordpool.txt	LTP140	ltpFR	12	6	1	ELM	527	n/a	1	n/a	0	0	0	n/a	n/a	n/a	n/a	n/a
1210020	REC_WORD	wordpools/wasnorm_wordpool.txt	LTP140	ltpFR	12	6	1	WASHER	1592	n/a	0	n/a	0	0	0	n/a	n/a	n/a	n/a	n/a
1232632	START	n/a	LTP140	ltpFR	12	n/a	n/a	n/a	n/a	n/a	n/a	n/a	n/a	n/a	n/a	n/a	n/a	n/a	n/a	n/a
1234139	PROB	n/a	LTP140	ltpFR	12	n/a	n/a	n/a	n/a	n/a	n/a	19	7	5	7	n/a	n/a	n/a	n/a	n/a
1236063	PROB	n/a	LTP140	ltpFR	12	n/a	n/a	n/a	n/a	n/a	n/a	14	6	4	4	n/a	n/a	n/a	n/a	n/a
1237271	PROB	n/a	LTP140	ltpFR	12	n/a	n/a	n/a	n/a	n/a	n/a	10	6	1	3	n/a	n/a	n/a	n/a	n/a
1238630	PROB	n/a	LTP140	ltpFR	12	n/a	n/a	n/a	n/a	n/a	n/a	15	6	1	4	n/a	n/a	n/a	n/a	n/a
1240087	PROB	n/a	LTP140	ltpFR	12	n/a	n/a	n/a	n/a	n/a	n/a	22	9	9	4	n/a	n/a	n/a	n/a	n/a
1241961	PROB	n/a	LTP140	ltpFR	12	n/a	n/a	n/a	n/a	n/a	n/a	15	1	6	8	n/a	n/a	n/a	n/a	n/a
1243436	PROB	n/a	LTP140	ltpFR	12	n/a	n/a	n/a	n/a	n/a	n/a	11	2	3	6	n/a	n/a	n/a	n/a	n/a
1244744	PROB	n/a	LTP140	ltpFR	12	n/a	n/a	n/a	n/a	n/a	n/a	13	8	3	2	n/a	n/a	n/a	n/a	n/a
1246218	PROB	n/a	LTP140	ltpFR	12	n/a	n/a	n/a	n/a	n/a	n/a	7	2	4	1	n/a	n/a	n/a	n/a	n/a
1247348	STOP	n/a	LTP140	ltpFR	12	n/a	n/a	n/a	n/a	n/a	n/a	n/a	n/a	n/a	n/a	n/a	n/a	n/a	n/a	n/a
1249784	WORD	wordpools/wasnorm_wordpool.txt	LTP140	ltpFR	12	7	1	BALL	73	n/a	0	n/a	0	0	0	1	0.412841796875	0.57763671875	upper	../fonts/zerothre.ttf
1252792	START	n/a	LTP140	ltpFR	12	n/a	n/a	n/a	n/a	n/a	n/a	n/a	n/a	n/a	n/a	n/a	n/a	n/a	n/a	n/a
1253700	PROB	n/a	LTP140	ltpFR	12	n/a	n/a	n/a	n/a	n/a	n/a	15	5	4	6	n/a	n/a	n/a	n/a	n/a
1256081	PROB	n/a	LTP140	ltpFR	12	n/a	n/a	n/a	n/a	n/a	n/a	11	1	8	2	n/a	n/a	n/a	n/a	n/a
1257456	PROB	n/a	LTP140	ltpFR	12	n/a	n/a	n/a	n/a	n/a	n/a	17	5	6	6	n/a	n/a	n/a	n/a	n/a
1259230	PROB	n/a	LTP140	ltpFR	12	n/a	n/a	n/a	n/a	n/a	n/a	16	2	8	6	n/a	n/a	n/a	n/a	n/a
1260430	PROB	n/a	LTP140	ltpFR	12	n/a	n/a	n/a	n/a	n/a	n/a	21	3	9	9	n/a	n/a	n/a	n/a	n/a
1261805	PROB	n/a	LTP140	ltpFR	12	n/a	n/a	n/a	n/a	n/a	n/a	10	4	5	1	n/a	n/a	n/a	n/a	n/a
1262954	PROB	n/a	LTP140	ltpFR	12	n/a	n/a	n/a	n/a	n/a	n/a	14	1	5	8	n/a	n/a	n/a	n/a	n/a
1264287	PROB	n/a	LTP140	ltpFR	12	n/a	n/a	n/a	n/a	n/a	n/a	16	6	5	5	n/a	n/a	n/a	n/a	n/a
1265645	PROB	n/a	LTP140	ltpFR	12	n/a	n/a	n/a	n/a	n/a	n/a	20	8	6	6	n/a	n/a	n/a	n/a	n/a
1267396	STOP	n/a	LTP140	ltpFR	12	n/a	n/a	n/a	n/a	n/a	n/a	n/a	n/a	n/a	n/a	n/a	n/a	n/a	n/a	n/a
1269852	WORD	wordpools/wasnorm_wordpool.txt	LTP140	ltpFR	12	7	1	FURNITURE	616	n/a	0	n/a	0	0	0	1	0.412841796875	0.57763671875	upper	../fonts/zerothre.ttf
1272860	START	n/a	LTP140	ltpFR	12	n/a	n/a	n/a	n/a	n/a	n/a	n/a	n/a	n/a	n/a	n/a	n/a	n/a	n/a	n/a
1273933	PROB	n/a	LTP140	ltpFR	12	n/a	n/a	n/a	n/a	n/a	n/a	21	4	9	8	n/a	n/a	n/a	n/a	n/a
1275792	PROB	n/a	LTP140	ltpFR	12	n/a	n/a	n/a	n/a	n/a	n/a	15	8	2	5	n/a	n/a	n/a	n/a	n/a
1276990	PROB	n/a	LTP140	ltpFR	12	n/a	n/a	n/a	n/a	n/a	n/a	25	7	9	9	n/a	n/a	n/a	n/a	n/a
1278807	PROB	n/a	LTP140	ltpFR	12	n/a	n/a	n/a	n/a	n/a	n/a	11	1	1	9	n/a	n/a	n/a	n/a	n/a
1280139	PROB	n/a	LTP140	ltpFR	12	n/a	n/a	n/a	n/a	n/a	n/a	9	3	3	3	n/a	n/a	n/a	n/a	n/a
1281206	PROB	n/a	LTP140	ltpFR	12	n/a	n/a	n/a	n/a	n/a	n/a	17	5	7	5	n/a	n/a	n/a	n/a	n/a
1282831	PROB	n/a	LTP140	ltpFR	12	n/a	n/a	n/a	n/a	n/a	n/a	13	3	9	1	n/a	n/a	n/a	n/a	n/a
1284163	PROB	n/a	LTP140	ltpFR	12	n/a	n/a	n/a	n/a	n/a	n/a	16	8	4	4	n/a	n/a	n/a	n/a	n/a
1286562	PROB	n/a	LTP140	ltpFR	12	n/a	n/a	n/a	n/a	n/a	n/a	4	2	1	1	n/a	n/a	n/a	n/a	n/a
1287500	STOP	n/a	LTP140	ltpFR	12	n/a	n/a	n/a	n/a	n/a	n/a	n/a	n/a	n/a	n/a	n/a	n/a	n/a	n/a	n/a
1289770	WORD	wordpools/wasnorm_wordpool.txt	LTP140	ltpFR	12	7	1	EAGLE	512	n/a	1	n/a	0	0	0	1	0.412841796875	0.57763671875	upper	../fonts/zerothre.ttf
1292778	START	n/a	LTP140	ltpFR	12	n/a	n/a	n/a	n/a	n/a	n/a	n/a	n/a	n/a	n/a	n/a	n/a	n/a	n/a	n/a
1293702	PROB	n/a	LTP140	ltpFR	12	n/a	n/a	n/a	n/a	n/a	n/a	21	6	8	7	n/a	n/a	n/a	n/a	n/a
1295567	PROB	n/a	LTP140	ltpFR	12	n/a	n/a	n/a	n/a	n/a	n/a	7	3	1	3	n/a	n/a	n/a	n/a	n/a
1296718	PROB	n/a	LTP140	ltpFR	12	n/a	n/a	n/a	n/a	n/a	n/a	20	6	8	6	n/a	n/a	n/a	n/a	n/a
1298817	PROB	n/a	LTP140	ltpFR	12	n/a	n/a	n/a	n/a	n/a	n/a	13	4	3	6	n/a	n/a	n/a	n/a	n/a
1300666	PROB	n/a	LTP140	ltpFR	12	n/a	n/a	n/a	n/a	n/a	n/a	17	8	4	5	n/a	n/a	n/a	n/a	n/a
1302181	PROB	n/a	LTP140	ltpFR	12	n/a	n/a	n/a	n/a	n/a	n/a	10	7	2	1	n/a	n/a	n/a	n/a	n/a
1303289	PROB	n/a	LTP140	ltpFR	12	n/a	n/a	n/a	n/a	n/a	n/a	12	4	6	2	n/a	n/a	n/a	n/a	n/a
1304422	PROB	n/a	LTP140	ltpFR	12	n/a	n/a	n/a	n/a	n/a	n/a	18	4	8	6	n/a	n/a	n/a	n/a	n/a
1306263	PROB	n/a	LTP140	ltpFR	12	n/a	n/a	n/a	n/a	n/a	n/a	7	2	4	1	n/a	n/a	n/a	n/a	n/a
1307255	PROB	n/a	LTP140	ltpFR	12	n/a	n/a	n/a	n/a	n/a	n/a	15	4	7	4	n/a	n/a	n/a	n/a	n/a
1308661	STOP	n/a	LTP140	ltpFR	12	n/a	n/a	n/a	n/a	n/a	n/a	n/a	n/a	n/a	n/a	n/a	n/a	n/a	n/a	n/a
1309813	WORD	wordpools/wasnorm_wordpool.txt	LTP140	ltpFR	12	7	1	HAMMOCK	681	n/a	0	n/a	0	0	0	1	0.412841796875	0.57763671875	upper	../fonts/zerothre.ttf
1312821	START	n/a	LTP140	ltpFR	12	n/a	n/a	n/a	n/a	n/a	n/a	n/a	n/a	n/a	n/a	n/a	n/a	n/a	n/a	n/a
1313919	PROB	n/a	LTP140	ltpFR	12	n/a	n/a	n/a	n/a	n/a	n/a	8	3	3	2	n/a	n/a	n/a	n/a	n/a
1315018	PROB	n/a	LTP140	ltpFR	12	n/a	n/a	n/a	n/a	n/a	n/a	18	4	7	7	n/a	n/a	n/a	n/a	n/a
1316401	PROB	n/a	LTP140	ltpFR	12	n/a	n/a	n/a	n/a	n/a	n/a	15	3	6	6	n/a	n/a	n/a	n/a	n/a
1319092	PROB	n/a	LTP140	ltpFR	12	n/a	n/a	n/a	n/a	n/a	n/a	12	4	6	2	n/a	n/a	n/a	n/a	n/a
1320408	PROB	n/a	LTP140	ltpFR	12	n/a	n/a	n/a	n/a	n/a	n/a	17	7	8	2	n/a	n/a	n/a	n/a	n/a
1321592	PROB	n/a	LTP140	ltpFR	12	n/a	n/a	n/a	n/a	n/a	n/a	11	5	4	2	n/a	n/a	n/a	n/a	n/a
1324791	PROB	n/a	LTP140	ltpFR	12	n/a	n/a	n/a	n/a	n/a	n/a	15	9	5	1	n/a	n/a	n/a	n/a	n/a
1326065	PROB	n/a	LTP140	ltpFR	12	n/a	n/a	n/a	n/a	n/a	n/a	18	9	5	4	n/a	n/a	n/a	n/a	n/a
1327284	STOP	n/a	LTP140	ltpFR	12	n/a	n/a	n/a	n/a	n/a	n/a	n/a	n/a	n/a	n/a	n/a	n/a	n/a	n/a	n/a
1330005	WORD	wordpools/wasnorm_wordpool.txt	LTP140	ltpFR	12	7	1	CASTLE	256	n/a	0	n/a	0	0	0	1	0.412841796875	0.57763671875	upper	../fonts/zerothre.ttf
1333013	START	n/a	LTP140	ltpFR	12	n/a	n/a	n/a	n/a	n/a	n/a	n/a	n/a	n/a	n/a	n/a	n/a	n/a	n/a	n/a
1334045	PROB	n/a	LTP140	ltpFR	12	n/a	n/a	n/a	n/a	n/a	n/a	20	3	9	8	n/a	n/a	n/a	n/a	n/a
1335629	PROB	n/a	LTP140	ltpFR	12	n/a	n/a	n/a	n/a	n/a	n/a	6	1	1	4	n/a	n/a	n/a	n/a	n/a
1336645	PROB	n/a	LTP140	ltpFR	12	n/a	n/a	n/a	n/a	n/a	n/a	14	7	2	5	n/a	n/a	n/a	n/a	n/a
1339193	PROB	n/a	LTP140	ltpFR	12	n/a	n/a	n/a	n/a	n/a	n/a	8	2	3	2	n/a	n/a	n/a	n/a	n/a
1340318	PROB	n/a	LTP140	ltpFR	12	n/a	n/a	n/a	n/a	n/a	n/a	12	5	3	4	n/a	n/a	n/a	n/a	n/a
1341976	PROB	n/a	LTP140	ltpFR	12	n/a	n/a	n/a	n/a	n/a	n/a	10	1	8	1	n/a	n/a	n/a	n/a	n/a
1343142	PROB	n/a	LTP140	ltpFR	12	n/a	n/a	n/a	n/a	n/a	n/a	9	6	1	2	n/a	n/a	n/a	n/a	n/a
1344283	PROB	n/a	LTP140	ltpFR	12	n/a	n/a	n/a	n/a	n/a	n/a	14	7	3	4	n/a	n/a	n/a	n/a	n/a
1345508	PROB	n/a	LTP140	ltpFR	12	n/a	n/a	n/a	n/a	n/a	n/a	17	4	8	5	n/a	n/a	n/a	n/a	n/a
1347032	PROB	n/a	LTP140	ltpFR	12	n/a	n/a	n/a	n/a	n/a	n/a	20	8	7	5	n/a	n/a	n/a	n/a	n/a
1348436	STOP	n/a	LTP140	ltpFR	12	n/a	n/a	n/a	n/a	n/a	n/a	n/a	n/a	n/a	n/a	n/a	n/a	n/a	n/a	n/a
1350156	WORD	wordpools/wasnorm_wordpool.txt	LTP140	ltpFR	12	7	1	PRINCE	1124	n/a	1	n/a	0	0	0	1	0.412841796875	0.57763671875	upper	../fonts/zerothre.ttf
1353164	START	n/a	LTP140	ltpFR	12	n/a	n/a	n/a	n/a	n/a	n/a	n/a	n/a	n/a	n/a	n/a	n/a	n/a	n/a	n/a
1354096	PROB	n/a	LTP140	ltpFR	12	n/a	n/a	n/a	n/a	n/a	n/a	9	2	3	4	n/a	n/a	n/a	n/a	n/a
1355462	PROB	n/a	LTP140	ltpFR	12	n/a	n/a	n/a	n/a	n/a	n/a	22	4	9	9	n/a	n/a	n/a	n/a	n/a
1356771	PROB	n/a	LTP140	ltpFR	12	n/a	n/a	n/a	n/a	n/a	n/a	16	6	5	5	n/a	n/a	n/a	n/a	n/a
1358503	PROB	n/a	LTP140	ltpFR	12	n/a	n/a	n/a	n/a	n/a	n/a	12	1	5	6	n/a	n/a	n/a	n/a	n/a
1359854	PROB	n/a	LTP140	ltpFR	12	n/a	n/a	n/a	n/a	n/a	n/a	19	8	7	4	n/a	n/a	n/a	n/a	n/a
1361152	PROB	n/a	LTP140	ltpFR	12	n/a	n/a	n/a	n/a	n/a	n/a	20	8	4	8	n/a	n/a	n/a	n/a	n/a
1362960	PROB	n/a	LTP140	ltpFR	12	n/a	n/a	n/a	n/a	n/a	n/a	9	1	1	7	n/a	n/a	n/a	n/a	n/a
1363934	PROB	n/a	LTP140	ltpFR	12	n/a	n/a	n/a	n/a	n/a	n/a	12	4	6	2	n/a	n/a	n/a	n/a	n/a
1365109	PROB	n/a	LTP140	ltpFR	12	n/a	n/a	n/a	n/a	n/a	n/a	9	3	1	5	n/a	n/a	n/a	n/a	n/a
1366668	PROB	n/a	LTP140	ltpFR	12	n/a	n/a	n/a	n/a	n/a	n/a	17	7	5	5	n/a	n/a	n/a	n/a	n/a
1368148	STOP	n/a	LTP140	ltpFR	12	n/a	n/a	n/a	n/a	n/a	n/a	n/a	n/a	n/a	n/a	n/a	n/a	n/a	n/a	n/a
1370132	WORD	wordpools/wasnorm_wordpool.txt	LTP140	ltpFR	12	7	1	WRITER	1627	n/a	1	n/a	0	0	0	1	0.412841796875	0.57763671875	upper	../fonts/zerothre.ttf
1373140	START	n/a	LTP140	ltpFR	12	n/a	n/a	n/a	n/a	n/a	n/a	n/a	n/a	n/a	n/a	n/a	n/a	n/a	n/a	n/a
1374339	PROB	n/a	LTP140	ltpFR	12	n/a	n/a	n/a	n/a	n/a	n/a	10	1	6	3	n/a	n/a	n/a	n/a	n/a
1375790	PROB	n/a	LTP140	ltpFR	12	n/a	n/a	n/a	n/a	n/a	n/a	19	7	8	4	n/a	n/a	n/a	n/a	n/a
1376988	PROB	n/a	LTP140	ltpFR	12	n/a	n/a	n/a	n/a	n/a	n/a	17	9	2	6	n/a	n/a	n/a	n/a	n/a
1379004	PROB	n/a	LTP140	ltpFR	12	n/a	n/a	n/a	n/a	n/a	n/a	17	7	3	7	n/a	n/a	n/a	n/a	n/a
1380646	PROB	n/a	LTP140	ltpFR	12	n/a	n/a	n/a	n/a	n/a	n/a	17	7	6	4	n/a	n/a	n/a	n/a	n/a
1382095	PROB	n/a	LTP140	ltpFR	12	n/a	n/a	n/a	n/a	n/a	n/a	14	5	5	4	n/a	n/a	n/a	n/a	n/a
1383203	PROB	n/a	LTP140	ltpFR	12	n/a	n/a	n/a	n/a	n/a	n/a	13	4	2	7	n/a	n/a	n/a	n/a	n/a
1384803	PROB	n/a	LTP140	ltpFR	12	n/a	n/a	n/a	n/a	n/a	n/a	11	1	9	1	n/a	n/a	n/a	n/a	n/a
1386210	PROB	n/a	LTP140	ltpFR	12	n/a	n/a	n/a	n/a	n/a	n/a	9	2	1	6	n/a	n/a	n/a	n/a	n/a
1387334	PROB	n/a	LTP140	ltpFR	12	n/a	n/a	n/a	n/a	n/a	n/a	12	1	4	7	n/a	n/a	n/a	n/a	n/a
1388661	STOP	n/a	LTP140	ltpFR	12	n/a	n/a	n/a	n/a	n/a	n/a	n/a	n/a	n/a	n/a	n/a	n/a	n/a	n/a	n/a
1390208	WORD	wordpools/wasnorm_wordpool.txt	LTP140	ltpFR	12	7	1	ROOMMATE	1207	n/a	1	n/a	0	0	0	1	0.412841796875	0.57763671875	upper	../fonts/zerothre.ttf
1393216	START	n/a	LTP140	ltpFR	12	n/a	n/a	n/a	n/a	n/a	n/a	n/a	n/a	n/a	n/a	n/a	n/a	n/a	n/a	n/a
1394165	PROB	n/a	LTP140	ltpFR	12	n/a	n/a	n/a	n/a	n/a	n/a	16	9	5	2	n/a	n/a	n/a	n/a	n/a
1395774	PROB	n/a	LTP140	ltpFR	12	n/a	n/a	n/a	n/a	n/a	n/a	17	7	3	7	n/a	n/a	n/a	n/a	n/a
1397364	PROB	n/a	LTP140	ltpFR	12	n/a	n/a	n/a	n/a	n/a	n/a	13	1	3	9	n/a	n/a	n/a	n/a	n/a
1398631	PROB	n/a	LTP140	ltpFR	12	n/a	n/a	n/a	n/a	n/a	n/a	16	6	7	3	n/a	n/a	n/a	n/a	n/a
1399947	PROB	n/a	LTP140	ltpFR	12	n/a	n/a	n/a	n/a	n/a	n/a	23	9	5	9	n/a	n/a	n/a	n/a	n/a
1402396	PROB	n/a	LTP140	ltpFR	12	n/a	n/a	n/a	n/a	n/a	n/a	17	5	8	4	n/a	n/a	n/a	n/a	n/a
1403888	PROB	n/a	LTP140	ltpFR	12	n/a	n/a	n/a	n/a	n/a	n/a	7	2	3	2	n/a	n/a	n/a	n/a	n/a
1405887	PROB	n/a	LTP140	ltpFR	12	n/a	n/a	n/a	n/a	n/a	n/a	11	9	1	1	n/a	n/a	n/a	n/a	n/a
1406927	PROB	n/a	LTP140	ltpFR	12	n/a	n/a	n/a	n/a	n/a	n/a	11	6	2	3	n/a	n/a	n/a	n/a	n/a
1408420	STOP	n/a	LTP140	ltpFR	12	n/a	n/a	n/a	n/a	n/a	n/a	n/a	n/a	n/a	n/a	n/a	n/a	n/a	n/a	n/a
1410210	WORD	wordpools/wasnorm_wordpool.txt	LTP140	ltpFR	12	7	1	ROBIN	1199	n/a	1	n/a	0	0	0	1	0.412841796875	0.57763671875	upper	../fonts/zerothre.ttf
1413217	START	n/a	LTP140	ltpFR	12	n/a	n/a	n/a	n/a	n/a	n/a	n/a	n/a	n/a	n/a	n/a	n/a	n/a	n/a	n/a
1414267	PROB	n/a	LTP140	ltpFR	12	n/a	n/a	n/a	n/a	n/a	n/a	23	8	6	9	n/a	n/a	n/a	n/a	n/a
1417299	PROB	n/a	LTP140	ltpFR	12	n/a	n/a	n/a	n/a	n/a	n/a	22	7	7	8	n/a	n/a	n/a	n/a	n/a
1418791	PROB	n/a	LTP140	ltpFR	12	n/a	n/a	n/a	n/a	n/a	n/a	18	2	9	7	n/a	n/a	n/a	n/a	n/a
1420356	PROB	n/a	LTP140	ltpFR	12	n/a	n/a	n/a	n/a	n/a	n/a	16	4	4	4	n/a	n/a	n/a	n/a	n/a
1421547	PROB	n/a	LTP140	ltpFR	12	n/a	n/a	n/a	n/a	n/a	n/a	16	4	3	9	n/a	n/a	n/a	n/a	n/a
1423180	PROB	n/a	LTP140	ltpFR	12	n/a	n/a	n/a	n/a	n/a	n/a	22	8	6	8	n/a	n/a	n/a	n/a	n/a
1425171	PROB	n/a	LTP140	ltpFR	12	n/a	n/a	n/a	n/a	n/a	n/a	17	4	6	7	n/a	n/a	n/a	n/a	n/a
1426838	PROB	n/a	LTP140	ltpFR	12	n/a	n/a	n/a	n/a	n/a	n/a	17	6	8	3	n/a	n/a	n/a	n/a	n/a
1428100	STOP	n/a	LTP140	ltpFR	12	n/a	n/a	n/a	n/a	n/a	n/a	n/a	n/a	n/a	n/a	n/a	n/a	n/a	n/a	n/a
1430103	WORD	wordpools/wasnorm_wordpool.txt	LTP140	ltpFR	12	7	1	PERCH	1048	n/a	0	n/a	0	0	0	1	0.412841796875	0.57763671875	upper	../fonts/zerothre.ttf
1433110	START	n/a	LTP140	ltpFR	12	n/a	n/a	n/a	n/a	n/a	n/a	n/a	n/a	n/a	n/a	n/a	n/a	n/a	n/a	n/a
1434318	PROB	n/a	LTP140	ltpFR	12	n/a	n/a	n/a	n/a	n/a	n/a	16	7	8	1	n/a	n/a	n/a	n/a	n/a
1435618	PROB	n/a	LTP140	ltpFR	12	n/a	n/a	n/a	n/a	n/a	n/a	9	1	5	3	n/a	n/a	n/a	n/a	n/a
1437167	PROB	n/a	LTP140	ltpFR	12	n/a	n/a	n/a	n/a	n/a	n/a	17	2	7	8	n/a	n/a	n/a	n/a	n/a
1438634	PROB	n/a	LTP140	ltpFR	12	n/a	n/a	n/a	n/a	n/a	n/a	16	5	4	7	n/a	n/a	n/a	n/a	n/a
1439991	PROB	n/a	LTP140	ltpFR	12	n/a	n/a	n/a	n/a	n/a	n/a	19	9	3	7	n/a	n/a	n/a	n/a	n/a
1441465	PROB	n/a	LTP140	ltpFR	12	n/a	n/a	n/a	n/a	n/a	n/a	14	3	8	3	n/a	n/a	n/a	n/a	n/a
1442915	PROB	n/a	LTP140	ltpFR	12	n/a	n/a	n/a	n/a	n/a	n/a	18	4	8	6	n/a	n/a	n/a	n/a	n/a
1444206	PROB	n/a	LTP140	ltpFR	12	n/a	n/a	n/a	n/a	n/a	n/a	23	7	9	8	n/a	n/a	n/a	n/a	n/a
1446681	PROB	n/a	LTP140	ltpFR	12	n/a	n/a	n/a	n/a	n/a	n/a	21	9	7	5	n/a	n/a	n/a	n/a	n/a
1448605	STOP	n/a	LTP140	ltpFR	12	n/a	n/a	n/a	n/a	n/a	n/a	n/a	n/a	n/a	n/a	n/a	n/a	n/a	n/a	n/a
1450170	WORD	wordpools/wasnorm_wordpool.txt	LTP140	ltpFR	12	7	1	EDITOR	516	n/a	1	n/a	0	0	0	1	0.412841796875	0.57763671875	upper	../fonts/zerothre.ttf
1453178	START	n/a	LTP140	ltpFR	12	n/a	n/a	n/a	n/a	n/a	n/a	n/a	n/a	n/a	n/a	n/a	n/a	n/a	n/a	n/a
1454011	PROB	n/a	LTP140	ltpFR	12	n/a	n/a	n/a	n/a	n/a	n/a	9	4	2	3	n/a	n/a	n/a	n/a	n/a
1455902	PROB	n/a	LTP140	ltpFR	12	n/a	n/a	n/a	n/a	n/a	n/a	8	2	2	4	n/a	n/a	n/a	n/a	n/a
1457493	PROB	n/a	LTP140	ltpFR	12	n/a	n/a	n/a	n/a	n/a	n/a	21	9	4	8	n/a	n/a	n/a	n/a	n/a
1459184	PROB	n/a	LTP140	ltpFR	12	n/a	n/a	n/a	n/a	n/a	n/a	22	6	7	9	n/a	n/a	n/a	n/a	n/a
1460609	PROB	n/a	LTP140	ltpFR	12	n/a	n/a	n/a	n/a	n/a	n/a	13	8	3	2	n/a	n/a	n/a	n/a	n/a
1462050	PROB	n/a	LTP140	ltpFR	12	n/a	n/a	n/a	n/a	n/a	n/a	21	9	8	4	n/a	n/a	n/a	n/a	n/a
1463449	PROB	n/a	LTP140	ltpFR	12	n/a	n/a	n/a	n/a	n/a	n/a	25	8	8	9	n/a	n/a	n/a	n/a	n/a
1465340	PROB	n/a	LTP140	ltpFR	12	n/a	n/a	n/a	n/a	n/a	n/a	16	5	5	6	n/a	n/a	n/a	n/a	n/a
1469178	STOP	n/a	LTP140	ltpFR	12	n/a	n/a	n/a	n/a	n/a	n/a	n/a	n/a	n/a	n/a	n/a	n/a	n/a	n/a	n/a
1470172	WORD	wordpools/wasnorm_wordpool.txt	LTP140	ltpFR	12	7	1	WAX	1597	n/a	0	n/a	0	0	0	1	0.412841796875	0.57763671875	upper	../fonts/zerothre.ttf
1473179	START	n/a	LTP140	ltpFR	12	n/a	n/a	n/a	n/a	n/a	n/a	n/a	n/a	n/a	n/a	n/a	n/a	n/a	n/a	n/a
1474220	PROB	n/a	LTP140	ltpFR	12	n/a	n/a	n/a	n/a	n/a	n/a	13	1	6	6	n/a	n/a	n/a	n/a	n/a
1475428	PROB	n/a	LTP140	ltpFR	12	n/a	n/a	n/a	n/a	n/a	n/a	14	8	1	4	n/a	n/a	n/a	n/a	n/a
1477227	PROB	n/a	LTP140	ltpFR	12	n/a	n/a	n/a	n/a	n/a	n/a	18	8	2	8	n/a	n/a	n/a	n/a	n/a
1479077	PROB	n/a	LTP140	ltpFR	12	n/a	n/a	n/a	n/a	n/a	n/a	20	9	5	6	n/a	n/a	n/a	n/a	n/a
1480594	PROB	n/a	LTP140	ltpFR	12	n/a	n/a	n/a	n/a	n/a	n/a	19	9	5	5	n/a	n/a	n/a	n/a	n/a
1481892	PROB	n/a	LTP140	ltpFR	12	n/a	n/a	n/a	n/a	n/a	n/a	14	1	4	9	n/a	n/a	n/a	n/a	n/a
1483392	PROB	n/a	LTP140	ltpFR	12	n/a	n/a	n/a	n/a	n/a	n/a	11	3	1	7	n/a	n/a	n/a	n/a	n/a
1484726	PROB	n/a	LTP140	ltpFR	12	n/a	n/a	n/a	n/a	n/a	n/a	12	2	1	9	n/a	n/a	n/a	n/a	n/a
1486191	PROB	n/a	LTP140	ltpFR	12	n/a	n/a	n/a	n/a	n/a	n/a	4	2	1	1	n/a	n/a	n/a	n/a	n/a
1487274	PROB	n/a	LTP140	ltpFR	12	n/a	n/a	n/a	n/a	n/a	n/a	11	2	7	2	n/a	n/a	n/a	n/a	n/a
1488693	STOP	n/a	LTP140	ltpFR	12	n/a	n/a	n/a	n/a	n/a	n/a	n/a	n/a	n/a	n/a	n/a	n/a	n/a	n/a	n/a
1490056	WORD	wordpools/wasnorm_wordpool.txt	LTP140	ltpFR	12	7	1	MARBLE	867	n/a	0	n/a	0	0	0	1	0.412841796875	0.57763671875	upper	../fonts/zerothre.ttf
1493064	START	n/a	LTP140	ltpFR	12	n/a	n/a	n/a	n/a	n/a	n/a	n/a	n/a	n/a	n/a	n/a	n/a	n/a	n/a	n/a
1493872	PROB	n/a	LTP140	ltpFR	12	n/a	n/a	n/a	n/a	n/a	n/a	12	3	7	2	n/a	n/a	n/a	n/a	n/a
1495196	PROB	n/a	LTP140	ltpFR	12	n/a	n/a	n/a	n/a	n/a	n/a	14	9	3	2	n/a	n/a	n/a	n/a	n/a
1496571	PROB	n/a	LTP140	ltpFR	12	n/a	n/a	n/a	n/a	n/a	n/a	17	8	7	2	n/a	n/a	n/a	n/a	n/a
1497804	PROB	n/a	LTP140	ltpFR	12	n/a	n/a	n/a	n/a	n/a	n/a	20	4	9	7	n/a	n/a	n/a	n/a	n/a
1501720	PROB	n/a	LTP140	ltpFR	12	n/a	n/a	n/a	n/a	n/a	n/a	24	9	8	7	n/a	n/a	n/a	n/a	n/a
1503901	PROB	n/a	LTP140	ltpFR	12	n/a	n/a	n/a	n/a	n/a	n/a	18	9	8	1	n/a	n/a	n/a	n/a	n/a
1505467	PROB	n/a	LTP140	ltpFR	12	n/a	n/a	n/a	n/a	n/a	n/a	17	4	4	9	n/a	n/a	n/a	n/a	n/a
1507042	PROB	n/a	LTP140	ltpFR	12	n/a	n/a	n/a	n/a	n/a	n/a	19	7	7	5	n/a	n/a	n/a	n/a	n/a
1508340	STOP	n/a	LTP140	ltpFR	12	n/a	n/a	n/a	n/a	n/a	n/a	n/a	n/a	n/a	n/a	n/a	n/a	n/a	n/a	n/a
1510266	WORD	wordpools/wasnorm_wordpool.txt	LTP140	ltpFR	12	7	1	PHYSICIAN	1056	n/a	1	n/a	0	0	0	1	0.412841796875	0.57763671875	upper	../fonts/zerothre.ttf
1513273	START	n/a	LTP140	ltpFR	12	n/a	n/a	n/a	n/a	n/a	n/a	n/a	n/a	n/a	n/a	n/a	n/a	n/a	n/a	n/a
1514114	PROB	n/a	LTP140	ltpFR	12	n/a	n/a	n/a	n/a	n/a	n/a	11	2	4	5	n/a	n/a	n/a	n/a	n/a
1515731	PROB	n/a	LTP140	ltpFR	12	n/a	n/a	n/a	n/a	n/a	n/a	10	8	1	1	n/a	n/a	n/a	n/a	n/a
1516831	PROB	n/a	LTP140	ltpFR	12	n/a	n/a	n/a	n/a	n/a	n/a	11	2	1	8	n/a	n/a	n/a	n/a	n/a
1517996	PROB	n/a	LTP140	ltpFR	12	n/a	n/a	n/a	n/a	n/a	n/a	11	6	1	4	n/a	n/a	n/a	n/a	n/a
1519446	PROB	n/a	LTP140	ltpFR	12	n/a	n/a	n/a	n/a	n/a	n/a	19	6	7	6	n/a	n/a	n/a	n/a	n/a
1520929	PROB	n/a	LTP140	ltpFR	12	n/a	n/a	n/a	n/a	n/a	n/a	9	3	4	2	n/a	n/a	n/a	n/a	n/a
1522520	PROB	n/a	LTP140	ltpFR	12	n/a	n/a	n/a	n/a	n/a	n/a	15	6	4	5	n/a	n/a	n/a	n/a	n/a
1524211	PROB	n/a	LTP140	ltpFR	12	n/a	n/a	n/a	n/a	n/a	n/a	14	4	2	8	n/a	n/a	n/a	n/a	n/a
1525670	PROB	n/a	LTP140	ltpFR	12	n/a	n/a	n/a	n/a	n/a	n/a	13	6	5	2	n/a	n/a	n/a	n/a	n/a
1526844	PROB	n/a	LTP140	ltpFR	12	n/a	n/a	n/a	n/a	n/a	n/a	17	8	1	8	n/a	n/a	n/a	n/a	n/a
1528332	STOP	n/a	LTP140	ltpFR	12	n/a	n/a	n/a	n/a	n/a	n/a	n/a	n/a	n/a	n/a	n/a	n/a	n/a	n/a	n/a
1530367	WORD	wordpools/wasnorm_wordpool.txt	LTP140	ltpFR	12	7	1	REFEREE	1178	n/a	1	n/a	0	0	0	1	0.412841796875	0.57763671875	upper	../fonts/zerothre.ttf
1533375	START	n/a	LTP140	ltpFR	12	n/a	n/a	n/a	n/a	n/a	n/a	n/a	n/a	n/a	n/a	n/a	n/a	n/a	n/a	n/a
1534415	PROB	n/a	LTP140	ltpFR	12	n/a	n/a	n/a	n/a	n/a	n/a	7	2	4	1	n/a	n/a	n/a	n/a	n/a
1535573	PROB	n/a	LTP140	ltpFR	12	n/a	n/a	n/a	n/a	n/a	n/a	12	5	3	4	n/a	n/a	n/a	n/a	n/a
1537882	PROB	n/a	LTP140	ltpFR	12	n/a	n/a	n/a	n/a	n/a	n/a	16	4	4	8	n/a	n/a	n/a	n/a	n/a
1539572	PROB	n/a	LTP140	ltpFR	12	n/a	n/a	n/a	n/a	n/a	n/a	13	3	5	5	n/a	n/a	n/a	n/a	n/a
1540781	PROB	n/a	LTP140	ltpFR	12	n/a	n/a	n/a	n/a	n/a	n/a	13	4	1	8	n/a	n/a	n/a	n/a	n/a
1542063	PROB	n/a	LTP140	ltpFR	12	n/a	n/a	n/a	n/a	n/a	n/a	10	1	7	2	n/a	n/a	n/a	n/a	n/a
1543329	PROB	n/a	LTP140	ltpFR	12	n/a	n/a	n/a	n/a	n/a	n/a	15	1	5	9	n/a	n/a	n/a	n/a	n/a
1544688	PROB	n/a	LTP140	ltpFR	12	n/a	n/a	n/a	n/a	n/a	n/a	20	7	9	4	n/a	n/a	n/a	n/a	n/a
1546428	PROB	n/a	LTP140	ltpFR	12	n/a	n/a	n/a	n/a	n/a	n/a	24	9	9	6	n/a	n/a	n/a	n/a	n/a
1547829	STOP	n/a	LTP140	ltpFR	12	n/a	n/a	n/a	n/a	n/a	n/a	n/a	n/a	n/a	n/a	n/a	n/a	n/a	n/a	n/a
1550276	WORD	wordpools/wasnorm_wordpool.txt	LTP140	ltpFR	12	7	1	SEAT	1264	n/a	0	n/a	0	0	0	1	0.412841796875	0.57763671875	upper	../fonts/zerothre.ttf
1553284	START	n/a	LTP140	ltpFR	12	n/a	n/a	n/a	n/a	n/a	n/a	n/a	n/a	n/a	n/a	n/a	n/a	n/a	n/a	n/a
1554192	PROB	n/a	LTP140	ltpFR	12	n/a	n/a	n/a	n/a	n/a	n/a	17	9	2	6	n/a	n/a	n/a	n/a	n/a
1555867	PROB	n/a	LTP140	ltpFR	12	n/a	n/a	n/a	n/a	n/a	n/a	6	2	3	1	n/a	n/a	n/a	n/a	n/a
1556899	PROB	n/a	LTP140	ltpFR	12	n/a	n/a	n/a	n/a	n/a	n/a	21	8	4	9	n/a	n/a	n/a	n/a	n/a
1558282	PROB	n/a	LTP140	ltpFR	12	n/a	n/a	n/a	n/a	n/a	n/a	18	5	9	4	n/a	n/a	n/a	n/a	n/a
1559890	PROB	n/a	LTP140	ltpFR	12	n/a	n/a	n/a	n/a	n/a	n/a	19	3	9	7	n/a	n/a	n/a	n/a	n/a
1561406	PROB	n/a	LTP140	ltpFR	12	n/a	n/a	n/a	n/a	n/a	n/a	9	3	5	1	n/a	n/a	n/a	n/a	n/a
1562615	PROB	n/a	LTP140	ltpFR	12	n/a	n/a	n/a	n/a	n/a	n/a	21	8	4	9	n/a	n/a	n/a	n/a	n/a
1563955	PROB	n/a	LTP140	ltpFR	12	n/a	n/a	n/a	n/a	n/a	n/a	17	5	3	9	n/a	n/a	n/a	n/a	n/a
1565371	PROB	n/a	LTP140	ltpFR	12	n/a	n/a	n/a	n/a	n/a	n/a	20	6	5	9	n/a	n/a	n/a	n/a	n/a
1566647	PROB	n/a	LTP140	ltpFR	12	n/a	n/a	n/a	n/a	n/a	n/a	12	6	5	1	n/a	n/a	n/a	n/a	n/a
1567829	STOP	n/a	LTP140	ltpFR	12	n/a	n/a	n/a	n/a	n/a	n/a	n/a	n/a	n/a	n/a	n/a	n/a	n/a	n/a	n/a
1571120	REC_START	n/a	LTP140	ltpFR	12	7	n/a	n/a	n/a	n/a	n/a	n/a	0	0	0	n/a	n/a	n/a	n/a	n/a
1572187	REC_WORD	wordpools/wasnorm_wordpool.txt	LTP140	ltpFR	12	7	1	SEAT	1264	n/a	0	n/a	0	0	0	n/a	n/a	n/a	n/a	n/a
1573340	REC_WORD	wordpools/wasnorm_wordpool.txt	LTP140	ltpFR	12	7	1	REFEREE	1178	n/a	1	n/a	0	0	0	n/a	n/a	n/a	n/a	n/a
1574866	REC_WORD	wordpools/wasnorm_wordpool.txt	LTP140	ltpFR	12	7	1	PHYSICIAN	1056	n/a	1	n/a	0	0	0	n/a	n/a	n/a	n/a	n/a
1576632	REC_WORD	wordpools/wasnorm_wordpool.txt	LTP140	ltpFR	12	7	1	MARBLE	867	n/a	0	n/a	0	0	0	n/a	n/a	n/a	n/a	n/a
1577730	REC_WORD	wordpools/wasnorm_wordpool.txt	LTP140	ltpFR	12	7	1	WAX	1597	n/a	0	n/a	0	0	0	n/a	n/a	n/a	n/a	n/a
1579281	REC_WORD	wordpools/wasnorm_wordpool.txt	LTP140	ltpFR	12	7	1	EDITOR	516	n/a	1	n/a	0	0	0	n/a	n/a	n/a	n/a	n/a
1580404	REC_WORD	wordpools/wasnorm_wordpool.txt	LTP140	ltpFR	12	7	1	PERCH	1048	n/a	0	n/a	0	0	0	n/a	n/a	n/a	n/a	n/a
1581611	REC_WORD	wordpools/wasnorm_wordpool.txt	LTP140	ltpFR	12	7	1	ROBIN	1199	n/a	1	n/a	0	0	0	n/a	n/a	n/a	n/a	n/a
1583596	REC_WORD	wordpools/wasnorm_wordpool.txt	LTP140	ltpFR	12	7	1	ROOMMATE	1207	n/a	1	n/a	0	0	0	n/a	n/a	n/a	n/a	n/a
1584659	REC_WORD	wordpools/wasnorm_wordpool.txt	LTP140	ltpFR	12	7	1	WRITER	1627	n/a	1	n/a	0	0	0	n/a	n/a	n/a	n/a	n/a
1585752	REC_WORD	wordpools/wasnorm_wordpool.txt	LTP140	ltpFR	12	7	1	PRINCE	1124	n/a	1	n/a	0	0	0	n/a	n/a	n/a	n/a	n/a
1587278	REC_WORD	wordpools/wasnorm_wordpool.txt	LTP140	ltpFR	12	7	1	CASTLE	256	n/a	0	n/a	0	0	0	n/a	n/a	n/a	n/a	n/a
1588186	REC_WORD	wordpools/wasnorm_wordpool.txt	LTP140	ltpFR	12	7	1	HAMMOCK	681	n/a	0	n/a	0	0	0	n/a	n/a	n/a	n/a	n/a
1590097	REC_WORD	wordpools/wasnorm_wordpool.txt	LTP140	ltpFR	12	7	1	EAGLE	512	n/a	1	n/a	0	0	0	n/a	n/a	n/a	n/a	n/a
1591044	REC_WORD	wordpools/wasnorm_wordpool.txt	LTP140	ltpFR	12	7	1	FURNITURE	616	n/a	0	n/a	0	0	0	n/a	n/a	n/a	n/a	n/a
1592044	REC_WORD_VV	wordpools/wasnorm_wordpool.txt	LTP140	ltpFR	12	7	n/a	<>	-1	n/a	n/a	n/a	0	0	0	n/a	n/a	n/a	n/a	n/a
1592706	REC_WORD	wordpools/wasnorm_wordpool.txt	LTP140	ltpFR	12	7	1	BALL	73	n/a	0	n/a	0	0	0	n/a	n/a	n/a	n/a	n/a
1653481	WORD	wordpools/wasnorm_wordpool.txt	LTP140	ltpFR	12	8	0	COFFIN	342	n/a	1	n/a	0	0	0	0	0.5869140625	0.422607421875	lower	../fonts/amplitud.ttf
1657313	WORD	wordpools/wasnorm_wordpool.txt	LTP140	ltpFR	12	8	0	OINTMENT	974	n/a	0	n/a	0	0	0	0	0.5869140625	0.422607421875	lower	../fonts/amplitud.ttf
1661512	WORD	wordpools/wasnorm_wordpool.txt	LTP140	ltpFR	12	8	0	JAM	748	n/a	0	n/a	0	0	0	0	0.5869140625	0.422607421875	lower	../fonts/amplitud.ttf
1665703	WORD	wordpools/wasnorm_wordpool.txt	LTP140	ltpFR	12	8	0	HOUND	724	n/a	1	n/a	0	0	0	0	0.5869140625	0.422607421875	lower	../fonts/amplitud.ttf
1669585	WORD	wordpools/wasnorm_wordpool.txt	LTP140	ltpFR	12	8	1	TRICYCLE	1506	n/a	0	n/a	0	0	0	1	0.412841796875	0.57763671875	upper	../fonts/zerothre.ttf
1673734	WORD	wordpools/wasnorm_wordpool.txt	LTP140	ltpFR	12	8	1	CUBE	420	n/a	0	n/a	0	0	0	1	0.412841796875	0.57763671875	upper	../fonts/zerothre.ttf
1677931	WORD	wordpools/wasnorm_wordpool.txt	LTP140	ltpFR	12	8	1	SHARK	1275	n/a	1	n/a	0	0	0	1	0.412841796875	0.57763671875	upper	../fonts/zerothre.ttf
1681856	WORD	wordpools/wasnorm_wordpool.txt	LTP140	ltpFR	12	8	1	TROUT	1511	n/a	1	n/a	0	0	0	1	0.412841796875	0.57763671875	upper	../fonts/zerothre.ttf
1686062	WORD	wordpools/wasnorm_wordpool.txt	LTP140	ltpFR	12	8	0	PORTRAIT	1111	n/a	2	n/a	0	0	0	0	0.5869140625	0.422607421875	lower	../fonts/amplitud.ttf
1687311	KEY_MSG	n/a	LTP140	ltpFR	12	8	n/a	n/a	n/a	n/a	n/a	n/a	0	0	0	n/a	n/a	n/a	n/a	n/a
1690202	WORD	wordpools/wasnorm_wordpool.txt	LTP140	ltpFR	12	8	0	RECORD	1176	n/a	1	n/a	0	0	0	0	0.5869140625	0.422607421875	lower	../fonts/amplitud.ttf
1694125	WORD	wordpools/wasnorm_wordpool.txt	LTP140	ltpFR	12	8	0	NURSERY	964	n/a	1	n/a	0	0	0	0	0.5869140625	0.422607421875	lower	../fonts/amplitud.ttf
1698074	WORD	wordpools/wasnorm_wordpool.txt	LTP140	ltpFR	12	8	0	VILLAGE	1566	n/a	1	n/a	0	0	0	0	0.5869140625	0.422607421875	lower	../fonts/amplitud.ttf
1702014	WORD	wordpools/wasnorm_wordpool.txt	LTP140	ltpFR	12	8	1	STEAM	1375	n/a	0	n/a	0	0	0	1	0.412841796875	0.57763671875	upper	../fonts/zerothre.ttf
1706171	WORD	wordpools/wasnorm_wordpool.txt	LTP140	ltpFR	12	8	1	SCAPEGOAT	1244	n/a	1	n/a	0	0	0	1	0.412841796875	0.57763671875	upper	../fonts/zerothre.ttf
1710270	WORD	wordpools/wasnorm_wordpool.txt	LTP140	ltpFR	12	8	1	OUTLAW	989	n/a	1	n/a	0	0	0	1	0.412841796875	0.57763671875	upper	../fonts/zerothre.ttf
1714293	WORD	wordpools/wasnorm_wordpool.txt	LTP140	ltpFR	12	8	1	DOG	480	n/a	1	n/a	0	0	0	1	0.412841796875	0.57763671875	upper	../fonts/zerothre.ttf
1717301	START	n/a	LTP140	ltpFR	12	n/a	n/a	n/a	n/a	n/a	n/a	n/a	n/a	n/a	n/a	n/a	n/a	n/a	n/a	n/a
1718242	PROB	n/a	LTP140	ltpFR	12	n/a	n/a	n/a	n/a	n/a	n/a	18	9	1	8	n/a	n/a	n/a	n/a	n/a
1719700	PROB	n/a	LTP140	ltpFR	12	n/a	n/a	n/a	n/a	n/a	n/a	12	1	7	4	n/a	n/a	n/a	n/a	n/a
1720883	PROB	n/a	LTP140	ltpFR	12	n/a	n/a	n/a	n/a	n/a	n/a	16	8	1	7	n/a	n/a	n/a	n/a	n/a
1722082	PROB	n/a	LTP140	ltpFR	12	n/a	n/a	n/a	n/a	n/a	n/a	22	9	6	7	n/a	n/a	n/a	n/a	n/a
1723866	PROB	n/a	LTP140	ltpFR	12	n/a	n/a	n/a	n/a	n/a	n/a	11	1	5	5	n/a	n/a	n/a	n/a	n/a
1724989	PROB	n/a	LTP140	ltpFR	12	n/a	n/a	n/a	n/a	n/a	n/a	20	9	6	5	n/a	n/a	n/a	n/a	n/a
1726756	PROB	n/a	LTP140	ltpFR	12	n/a	n/a	n/a	n/a	n/a	n/a	11	5	3	3	n/a	n/a	n/a	n/a	n/a
1728689	PROB	n/a	LTP140	ltpFR	12	n/a	n/a	n/a	n/a	n/a	n/a	13	7	5	1	n/a	n/a	n/a	n/a	n/a
1730204	PROB	n/a	LTP140	ltpFR	12	n/a	n/a	n/a	n/a	n/a	n/a	5	1	1	3	n/a	n/a	n/a	n/a	n/a
1733301	STOP	n/a	LTP140	ltpFR	12	n/a	n/a	n/a	n/a	n/a	n/a	n/a	n/a	n/a	n/a	n/a	n/a	n/a	n/a	n/a
1735045	REC_START	n/a	LTP140	ltpFR	12	8	n/a	n/a	n/a	n/a	n/a	n/a	0	0	0	n/a	n/a	n/a	n/a	n/a
1736926	REC_WORD	wordpools/wasnorm_wordpool.txt	LTP140	ltpFR	12	8	1	DOG	480	n/a	1	n/a	0	0	0	n/a	n/a	n/a	n/a	n/a
1737868	REC_WORD	wordpools/wasnorm_wordpool.txt	LTP140	ltpFR	12	8	1	OUTLAW	989	n/a	1	n/a	0	0	0	n/a	n/a	n/a	n/a	n/a
1738865	REC_WORD	wordpools/wasnorm_wordpool.txt	LTP140	ltpFR	12	8	1	SCAPEGOAT	1244	n/a	1	n/a	0	0	0	n/a	n/a	n/a	n/a	n/a
1739865	REC_WORD_VV	wordpools/wasnorm_wordpool.txt	LTP140	ltpFR	12	8	n/a	<>	-1	n/a	n/a	n/a	0	0	0	n/a	n/a	n/a	n/a	n/a
1740317	REC_WORD	wordpools/wasnorm_wordpool.txt	LTP140	ltpFR	12	8	1	STEAM	1375	n/a	0	n/a	0	0	0	n/a	n/a	n/a	n/a	n/a
1741914	REC_WORD	wordpools/wasnorm_wordpool.txt	LTP140	ltpFR	12	8	0	NURSERY	964	n/a	1	n/a	0	0	0	n/a	n/a	n/a	n/a	n/a
1743191	REC_WORD	wordpools/wasnorm_wordpool.txt	LTP140	ltpFR	12	8	0	RECORD	1176	n/a	1	n/a	0	0	0	n/a	n/a	n/a	n/a	n/a
1745551	REC_WORD	wordpools/wasnorm_wordpool.txt	LTP140	ltpFR	12	8	1	TROUT	1511	n/a	1	n/a	0	0	0	n/a	n/a	n/a	n/a	n/a
1746479	REC_WORD	wordpools/wasnorm_wordpool.txt	LTP140	ltpFR	12	8	1	SHARK	1275	n/a	1	n/a	0	0	0	n/a	n/a	n/a	n/a	n/a
1747596	REC_WORD	wordpools/wasnorm_wordpool.txt	LTP140	ltpFR	12	8	1	CUBE	420	n/a	0	n/a	0	0	0	n/a	n/a	n/a	n/a	n/a
1748689	REC_WORD	wordpools/wasnorm_wordpool.txt	LTP140	ltpFR	12	8	1	TRICYCLE	1506	n/a	0	n/a	0	0	0	n/a	n/a	n/a	n/a	n/a
1751028	REC_WORD	wordpools/wasnorm_wordpool.txt	LTP140	ltpFR	12	8	0	HOUND	724	n/a	1	n/a	0	0	0	n/a	n/a	n/a	n/a	n/a
1755084	REC_WORD	wordpools/wasnorm_wordpool.txt	LTP140	ltpFR	12	8	0	JAM	748	n/a	0	n/a	0	0	0	n/a	n/a	n/a	n/a	n/a
1756102	REC_WORD	wordpools/wasnorm_wordpool.txt	LTP140	ltpFR	12	8	0	OINTMENT	974	n/a	0	n/a	0	0	0	n/a	n/a	n/a	n/a	n/a
1757274	REC_WORD	wordpools/wasnorm_wordpool.txt	LTP140	ltpFR	12	8	0	COFFIN	342	n/a	1	n/a	0	0	0	n/a	n/a	n/a	n/a	n/a
1812593	WORD	wordpools/wasnorm_wordpool.txt	LTP140	ltpFR	12	9	1	SATURN	1236	n/a	0	n/a	0	0	0	1	0.412841796875	0.57763671875	upper	../fonts/zerothre.ttf
1816507	WORD	wordpools/wasnorm_wordpool.txt	LTP140	ltpFR	12	9	1	HAMPER	682	n/a	0	n/a	0	0	0	1	0.412841796875	0.57763671875	upper	../fonts/zerothre.ttf
1820623	WORD	wordpools/wasnorm_wordpool.txt	LTP140	ltpFR	12	9	1	ATTIRE	57	n/a	0	n/a	0	0	0	1	0.412841796875	0.57763671875	upper	../fonts/zerothre.ttf
1824521	WORD	wordpools/wasnorm_wordpool.txt	LTP140	ltpFR	12	9	1	PORCUPINE	1107	n/a	1	n/a	0	0	0	1	0.412841796875	0.57763671875	upper	../fonts/zerothre.ttf
1828511	WORD	wordpools/wasnorm_wordpool.txt	LTP140	ltpFR	12	9	1	KEEPER	769	n/a	1	n/a	0	0	0	1	0.412841796875	0.57763671875	upper	../fonts/zerothre.ttf
1832551	WORD	wordpools/wasnorm_wordpool.txt	LTP140	ltpFR	12	9	1	ARCHITECT	36	n/a	1	n/a	0	0	0	1	0.412841796875	0.57763671875	upper	../fonts/zerothre.ttf
1836416	WORD	wordpools/wasnorm_wordpool.txt	LTP140	ltpFR	12	9	1	STEWARDESS	1381	n/a	1	n/a	0	0	0	1	0.412841796875	0.57763671875	upper	../fonts/zerothre.ttf
1840540	WORD	wordpools/wasnorm_wordpool.txt	LTP140	ltpFR	12	9	1	ROBE	1198	n/a	0	n/a	0	0	0	1	0.412841796875	0.57763671875	upper	../fonts/zerothre.ttf
1844413	WORD	wordpools/wasnorm_wordpool.txt	LTP140	ltpFR	12	9	1	GOWN	652	n/a	0	n/a	0	0	0	1	0.412841796875	0.57763671875	upper	../fonts/zerothre.ttf
1848395	WORD	wordpools/wasnorm_wordpool.txt	LTP140	ltpFR	12	9	1	THIMBLE	1458	n/a	0	n/a	0	0	0	1	0.412841796875	0.57763671875	upper	../fonts/zerothre.ttf
1852219	WORD	wordpools/wasnorm_wordpool.txt	LTP140	ltpFR	12	9	1	DUNGEON	507	n/a	0	n/a	0	0	0	1	0.412841796875	0.57763671875	upper	../fonts/zerothre.ttf
1856243	WORD	wordpools/wasnorm_wordpool.txt	LTP140	ltpFR	12	9	1	DISH	474	n/a	0	n/a	0	0	0	1	0.412841796875	0.57763671875	upper	../fonts/zerothre.ttf
1860333	WORD	wordpools/wasnorm_wordpool.txt	LTP140	ltpFR	12	9	1	LENS	811	n/a	0	n/a	0	0	0	1	0.412841796875	0.57763671875	upper	../fonts/zerothre.ttf
1864165	WORD	wordpools/wasnorm_wordpool.txt	LTP140	ltpFR	12	9	1	MOON	914	n/a	0	n/a	0	0	0	1	0.412841796875	0.57763671875	upper	../fonts/zerothre.ttf
1868222	WORD	wordpools/wasnorm_wordpool.txt	LTP140	ltpFR	12	9	1	FUGITIVE	612	n/a	1	n/a	0	0	0	1	0.412841796875	0.57763671875	upper	../fonts/zerothre.ttf
1872320	WORD	wordpools/wasnorm_wordpool.txt	LTP140	ltpFR	12	9	1	EARRING	514	n/a	0	n/a	0	0	0	1	0.412841796875	0.57763671875	upper	../fonts/zerothre.ttf
1875328	START	n/a	LTP140	ltpFR	12	n/a	n/a	n/a	n/a	n/a	n/a	n/a	n/a	n/a	n/a	n/a	n/a	n/a	n/a	n/a
1876477	PROB	n/a	LTP140	ltpFR	12	n/a	n/a	n/a	n/a	n/a	n/a	11	9	1	1	n/a	n/a	n/a	n/a	n/a
1877736	PROB	n/a	LTP140	ltpFR	12	n/a	n/a	n/a	n/a	n/a	n/a	12	6	4	2	n/a	n/a	n/a	n/a	n/a
1878852	PROB	n/a	LTP140	ltpFR	12	n/a	n/a	n/a	n/a	n/a	n/a	6	3	1	2	n/a	n/a	n/a	n/a	n/a
1879860	PROB	n/a	LTP140	ltpFR	12	n/a	n/a	n/a	n/a	n/a	n/a	10	5	4	1	n/a	n/a	n/a	n/a	n/a
1881275	PROB	n/a	LTP140	ltpFR	12	n/a	n/a	n/a	n/a	n/a	n/a	19	7	3	9	n/a	n/a	n/a	n/a	n/a
1882436	STOP	n/a	LTP140	ltpFR	12	n/a	n/a	n/a	n/a	n/a	n/a	n/a	n/a	n/a	n/a	n/a	n/a	n/a	n/a	n/a
1885058	REC_START	n/a	LTP140	ltpFR	12	9	n/a	n/a	n/a	n/a	n/a	n/a	0	0	0	n/a	n/a	n/a	n/a	n/a
1886819	REC_WORD	wordpools/wasnorm_wordpool.txt	LTP140	ltpFR	12	9	1	EARRING	514	n/a	0	n/a	0	0	0	n/a	n/a	n/a	n/a	n/a
1887791	REC_WORD	wordpools/wasnorm_wordpool.txt	LTP140	ltpFR	12	9	1	FUGITIVE	612	n/a	1	n/a	0	0	0	n/a	n/a	n/a	n/a	n/a
1889478	REC_WORD	wordpools/wasnorm_wordpool.txt	LTP140	ltpFR	12	9	1	MOON	914	n/a	0	n/a	0	0	0	n/a	n/a	n/a	n/a	n/a
1890565	REC_WORD	wordpools/wasnorm_wordpool.txt	LTP140	ltpFR	12	9	1	LENS	811	n/a	0	n/a	0	0	0	n/a	n/a	n/a	n/a	n/a
1892276	REC_WORD	wordpools/wasnorm_wordpool.txt	LTP140	ltpFR	12	9	1	THIMBLE	1458	n/a	0	n/a	0	0	0	n/a	n/a	n/a	n/a	n/a
1893524	REC_WORD	wordpools/wasnorm_wordpool.txt	LTP140	ltpFR	12	9	1	DISH	474	n/a	0	n/a	0	0	0	n/a	n/a	n/a	n/a	n/a
1895195	REC_WORD	wordpools/wasnorm_wordpool.txt	LTP140	ltpFR	12	9	1	GOWN	652	n/a	0	n/a	0	0	0	n/a	n/a	n/a	n/a	n/a
1895908	REC_WORD	wordpools/wasnorm_wordpool.txt	LTP140	ltpFR	12	9	1	ROBE	1198	n/a	0	n/a	0	0	0	n/a	n/a	n/a	n/a	n/a
1897175	REC_WORD	wordpools/wasnorm_wordpool.txt	LTP140	ltpFR	12	9	1	STEWARDESS	1381	n/a	1	n/a	0	0	0	n/a	n/a	n/a	n/a	n/a
1898175	REC_WORD_VV	wordpools/wasnorm_wordpool.txt	LTP140	ltpFR	12	9	n/a	<>	-1	n/a	n/a	n/a	0	0	0	n/a	n/a	n/a	n/a	n/a
1898592	REC_WORD	wordpools/wasnorm_wordpool.txt	LTP140	ltpFR	12	9	1	ARCHITECT	36	n/a	1	n/a	0	0	0	n/a	n/a	n/a	n/a	n/a
1899592	REC_WORD_VV	wordpools/wasnorm_wordpool.txt	LTP140	ltpFR	12	9	n/a	<>	-1	n/a	n/a	n/a	0	0	0	n/a	n/a	n/a	n/a	n/a
1901984	REC_WORD	wordpools/wasnorm_wordpool.txt	LTP140	ltpFR	12	9	1	PORCUPINE	1107	n/a	1	n/a	0	0	0	n/a	n/a	n/a	n/a	n/a
1902984	REC_WORD_VV	wordpools/wasnorm_wordpool.txt	LTP140	ltpFR	12	9	n/a	<>	-1	n/a	n/a	n/a	0	0	0	n/a	n/a	n/a	n/a	n/a
1903487	REC_WORD	wordpools/wasnorm_wordpool.txt	LTP140	ltpFR	12	9	1	HAMPER	682	n/a	0	n/a	0	0	0	n/a	n/a	n/a	n/a	n/a
1904487	REC_WORD_VV	wordpools/wasnorm_wordpool.txt	LTP140	ltpFR	12	9	n/a	<>	-1	n/a	n/a	n/a	0	0	0	n/a	n/a	n/a	n/a	n/a
1905546	REC_WORD	wordpools/wasnorm_wordpool.txt	LTP140	ltpFR	12	9	1	ATTIRE	57	n/a	0	n/a	0	0	0	n/a	n/a	n/a	n/a	n/a
1906546	REC_WORD_VV	wordpools/wasnorm_wordpool.txt	LTP140	ltpFR	12	9	n/a	<>	-1	n/a	n/a	n/a	0	0	0	n/a	n/a	n/a	n/a	n/a
1907212	REC_WORD	wordpools/wasnorm_wordpool.txt	LTP140	ltpFR	12	9	1	SATURN	1236	n/a	0	n/a	0	0	0	n/a	n/a	n/a	n/a	n/a
1909861	REC_WORD	wordpools/wasnorm_wordpool.txt	LTP140	ltpFR	12	9	1	KEEPER	769	n/a	1	n/a	0	0	0	n/a	n/a	n/a	n/a	n/a
1961089	START	n/a	LTP140	ltpFR	12	n/a	n/a	n/a	n/a	n/a	n/a	n/a	n/a	n/a	n/a	n/a	n/a	n/a	n/a	n/a
1962598	PROB	n/a	LTP140	ltpFR	12	n/a	n/a	n/a	n/a	n/a	n/a	21	8	9	4	n/a	n/a	n/a	n/a	n/a
1964479	PROB	n/a	LTP140	ltpFR	12	n/a	n/a	n/a	n/a	n/a	n/a	7	1	5	1	n/a	n/a	n/a	n/a	n/a
1965746	PROB	n/a	LTP140	ltpFR	12	n/a	n/a	n/a	n/a	n/a	n/a	13	2	2	9	n/a	n/a	n/a	n/a	n/a
1967561	PROB	n/a	LTP140	ltpFR	12	n/a	n/a	n/a	n/a	n/a	n/a	10	1	4	5	n/a	n/a	n/a	n/a	n/a
1968770	PROB	n/a	LTP140	ltpFR	12	n/a	n/a	n/a	n/a	n/a	n/a	13	4	6	3	n/a	n/a	n/a	n/a	n/a
1969969	PROB	n/a	LTP140	ltpFR	12	n/a	n/a	n/a	n/a	n/a	n/a	18	5	8	5	n/a	n/a	n/a	n/a	n/a
1971518	PROB	n/a	LTP140	ltpFR	12	n/a	n/a	n/a	n/a	n/a	n/a	19	5	8	6	n/a	n/a	n/a	n/a	n/a
1973852	PROB	n/a	LTP140	ltpFR	12	n/a	n/a	n/a	n/a	n/a	n/a	17	3	6	8	n/a	n/a	n/a	n/a	n/a
1975275	PROB	n/a	LTP140	ltpFR	12	n/a	n/a	n/a	n/a	n/a	n/a	22	7	6	9	n/a	n/a	n/a	n/a	n/a
1976645	STOP	n/a	LTP140	ltpFR	12	n/a	n/a	n/a	n/a	n/a	n/a	n/a	n/a	n/a	n/a	n/a	n/a	n/a	n/a	n/a
1978158	WORD	wordpools/wasnorm_wordpool.txt	LTP140	ltpFR	12	10	1	SUPPER	1411	n/a	0	n/a	0	0	0	1	0.412841796875	0.57763671875	upper	../fonts/zerothre.ttf
1981165	START	n/a	LTP140	ltpFR	12	n/a	n/a	n/a	n/a	n/a	n/a	n/a	n/a	n/a	n/a	n/a	n/a	n/a	n/a	n/a
1982006	PROB	n/a	LTP140	ltpFR	12	n/a	n/a	n/a	n/a	n/a	n/a	19	7	8	4	n/a	n/a	n/a	n/a	n/a
1983922	PROB	n/a	LTP140	ltpFR	12	n/a	n/a	n/a	n/a	n/a	n/a	18	8	3	7	n/a	n/a	n/a	n/a	n/a
1987079	PROB	n/a	LTP140	ltpFR	12	n/a	n/a	n/a	n/a	n/a	n/a	20	9	9	2	n/a	n/a	n/a	n/a	n/a
1988680	PROB	n/a	LTP140	ltpFR	12	n/a	n/a	n/a	n/a	n/a	n/a	14	7	3	4	n/a	n/a	n/a	n/a	n/a
1990453	PROB	n/a	LTP140	ltpFR	12	n/a	n/a	n/a	n/a	n/a	n/a	9	2	5	2	n/a	n/a	n/a	n/a	n/a
1991595	PROB	n/a	LTP140	ltpFR	12	n/a	n/a	n/a	n/a	n/a	n/a	12	4	5	3	n/a	n/a	n/a	n/a	n/a
1993870	PROB	n/a	LTP140	ltpFR	12	n/a	n/a	n/a	n/a	n/a	n/a	18	9	1	8	n/a	n/a	n/a	n/a	n/a
1995002	PROB	n/a	LTP140	ltpFR	12	n/a	n/a	n/a	n/a	n/a	n/a	9	4	2	3	n/a	n/a	n/a	n/a	n/a
1996837	STOP	n/a	LTP140	ltpFR	12	n/a	n/a	n/a	n/a	n/a	n/a	n/a	n/a	n/a	n/a	n/a	n/a	n/a	n/a	n/a
1998209	WORD	wordpools/wasnorm_wordpool.txt	LTP140	ltpFR	12	10	1	COMMANDER	354	n/a	1	n/a	0	0	0	1	0.412841796875	0.57763671875	upper	../fonts/zerothre.ttf
2001216	START	n/a	LTP140	ltpFR	12	n/a	n/a	n/a	n/a	n/a	n/a	n/a	n/a	n/a	n/a	n/a	n/a	n/a	n/a	n/a
2002399	PROB	n/a	LTP140	ltpFR	12	n/a	n/a	n/a	n/a	n/a	n/a	15	4	5	6	n/a	n/a	n/a	n/a	n/a
2004382	PROB	n/a	LTP140	ltpFR	12	n/a	n/a	n/a	n/a	n/a	n/a	10	1	3	6	n/a	n/a	n/a	n/a	n/a
2005707	PROB	n/a	LTP140	ltpFR	12	n/a	n/a	n/a	n/a	n/a	n/a	21	9	3	9	n/a	n/a	n/a	n/a	n/a
2007022	PROB	n/a	LTP140	ltpFR	12	n/a	n/a	n/a	n/a	n/a	n/a	8	1	3	4	n/a	n/a	n/a	n/a	n/a
2008114	PROB	n/a	LTP140	ltpFR	12	n/a	n/a	n/a	n/a	n/a	n/a	11	1	7	3	n/a	n/a	n/a	n/a	n/a
2009538	PROB	n/a	LTP140	ltpFR	12	n/a	n/a	n/a	n/a	n/a	n/a	10	4	1	5	n/a	n/a	n/a	n/a	n/a
2010780	PROB	n/a	LTP140	ltpFR	12	n/a	n/a	n/a	n/a	n/a	n/a	20	6	6	8	n/a	n/a	n/a	n/a	n/a
2013212	PROB	n/a	LTP140	ltpFR	12	n/a	n/a	n/a	n/a	n/a	n/a	24	8	8	7	n/a	n/a	n/a	n/a	n/a
2015011	PROB	n/a	LTP140	ltpFR	12	n/a	n/a	n/a	n/a	n/a	n/a	16	2	7	7	n/a	n/a	n/a	n/a	n/a
2016364	STOP	n/a	LTP140	ltpFR	12	n/a	n/a	n/a	n/a	n/a	n/a	n/a	n/a	n/a	n/a	n/a	n/a	n/a	n/a	n/a
2018310	WORD	wordpools/wasnorm_wordpool.txt	LTP140	ltpFR	12	10	1	AUTHOR	61	n/a	1	n/a	0	0	0	1	0.412841796875	0.57763671875	upper	../fonts/zerothre.ttf
2021318	START	n/a	LTP140	ltpFR	12	n/a	n/a	n/a	n/a	n/a	n/a	n/a	n/a	n/a	n/a	n/a	n/a	n/a	n/a	n/a
2022292	PROB	n/a	LTP140	ltpFR	12	n/a	n/a	n/a	n/a	n/a	n/a	14	9	1	4	n/a	n/a	n/a	n/a	n/a
2023492	PROB	n/a	LTP140	ltpFR	12	n/a	n/a	n/a	n/a	n/a	n/a	19	9	8	2	n/a	n/a	n/a	n/a	n/a
2025174	PROB	n/a	LTP140	ltpFR	12	n/a	n/a	n/a	n/a	n/a	n/a	9	3	4	2	n/a	n/a	n/a	n/a	n/a
2026399	PROB	n/a	LTP140	ltpFR	12	n/a	n/a	n/a	n/a	n/a	n/a	12	7	4	1	n/a	n/a	n/a	n/a	n/a
2027783	PROB	n/a	LTP140	ltpFR	12	n/a	n/a	n/a	n/a	n/a	n/a	15	6	8	1	n/a	n/a	n/a	n/a	n/a
2028939	PROB	n/a	LTP140	ltpFR	12	n/a	n/a	n/a	n/a	n/a	n/a	16	5	3	8	n/a	n/a	n/a	n/a	n/a
2030239	PROB	n/a	LTP140	ltpFR	12	n/a	n/a	n/a	n/a	n/a	n/a	8	1	2	5	n/a	n/a	n/a	n/a	n/a
2031405	PROB	n/a	LTP140	ltpFR	12	n/a	n/a	n/a	n/a	n/a	n/a	22	9	7	6	n/a	n/a	n/a	n/a	n/a
2032980	PROB	n/a	LTP140	ltpFR	12	n/a	n/a	n/a	n/a	n/a	n/a	6	1	1	4	n/a	n/a	n/a	n/a	n/a
2033954	PROB	n/a	LTP140	ltpFR	12	n/a	n/a	n/a	n/a	n/a	n/a	11	3	4	4	n/a	n/a	n/a	n/a	n/a
2035580	PROB	n/a	LTP140	ltpFR	12	n/a	n/a	n/a	n/a	n/a	n/a	17	6	2	9	n/a	n/a	n/a	n/a	n/a
2036972	STOP	n/a	LTP140	ltpFR	12	n/a	n/a	n/a	n/a	n/a	n/a	n/a	n/a	n/a	n/a	n/a	n/a	n/a	n/a	n/a
2038320	WORD	wordpools/wasnorm_wordpool.txt	LTP140	ltpFR	12	10	1	LIBRARY	816	n/a	0	n/a	0	0	0	1	0.412841796875	0.57763671875	upper	../fonts/zerothre.ttf
2041327	START	n/a	LTP140	ltpFR	12	n/a	n/a	n/a	n/a	n/a	n/a	n/a	n/a	n/a	n/a	n/a	n/a	n/a	n/a	n/a
2042168	PROB	n/a	LTP140	ltpFR	12	n/a	n/a	n/a	n/a	n/a	n/a	6	2	1	3	n/a	n/a	n/a	n/a	n/a
2043160	PROB	n/a	LTP140	ltpFR	12	n/a	n/a	n/a	n/a	n/a	n/a	22	7	9	6	n/a	n/a	n/a	n/a	n/a
2045550	PROB	n/a	LTP140	ltpFR	12	n/a	n/a	n/a	n/a	n/a	n/a	13	8	4	1	n/a	n/a	n/a	n/a	n/a
2046718	PROB	n/a	LTP140	ltpFR	12	n/a	n/a	n/a	n/a	n/a	n/a	23	9	9	5	n/a	n/a	n/a	n/a	n/a
2048108	PROB	n/a	LTP140	ltpFR	12	n/a	n/a	n/a	n/a	n/a	n/a	13	3	3	7	n/a	n/a	n/a	n/a	n/a
2049608	PROB	n/a	LTP140	ltpFR	12	n/a	n/a	n/a	n/a	n/a	n/a	22	6	8	8	n/a	n/a	n/a	n/a	n/a
2051591	PROB	n/a	LTP140	ltpFR	12	n/a	n/a	n/a	n/a	n/a	n/a	12	1	6	5	n/a	n/a	n/a	n/a	n/a
2052765	PROB	n/a	LTP140	ltpFR	12	n/a	n/a	n/a	n/a	n/a	n/a	8	4	2	2	n/a	n/a	n/a	n/a	n/a
2053914	PROB	n/a	LTP140	ltpFR	12	n/a	n/a	n/a	n/a	n/a	n/a	11	8	1	2	n/a	n/a	n/a	n/a	n/a
2057327	STOP	n/a	LTP140	ltpFR	12	n/a	n/a	n/a	n/a	n/a	n/a	n/a	n/a	n/a	n/a	n/a	n/a	n/a	n/a	n/a
2058496	WORD	wordpools/wasnorm_wordpool.txt	LTP140	ltpFR	12	10	0	TYPIST	1532	n/a	1	n/a	0	0	0	0	0.5869140625	0.422607421875	lower	../fonts/amplitud.ttf
2061503	START	n/a	LTP140	ltpFR	12	n/a	n/a	n/a	n/a	n/a	n/a	n/a	n/a	n/a	n/a	n/a	n/a	n/a	n/a	n/a
2062604	PROB	n/a	LTP140	ltpFR	12	n/a	n/a	n/a	n/a	n/a	n/a	20	8	3	9	n/a	n/a	n/a	n/a	n/a
2064135	PROB	n/a	LTP140	ltpFR	12	n/a	n/a	n/a	n/a	n/a	n/a	13	8	4	1	n/a	n/a	n/a	n/a	n/a
2065619	PROB	n/a	LTP140	ltpFR	12	n/a	n/a	n/a	n/a	n/a	n/a	17	1	7	9	n/a	n/a	n/a	n/a	n/a
2067126	PROB	n/a	LTP140	ltpFR	12	n/a	n/a	n/a	n/a	n/a	n/a	20	7	9	4	n/a	n/a	n/a	n/a	n/a
2068967	PROB	n/a	LTP140	ltpFR	12	n/a	n/a	n/a	n/a	n/a	n/a	16	2	5	9	n/a	n/a	n/a	n/a	n/a
2070358	PROB	n/a	LTP140	ltpFR	12	n/a	n/a	n/a	n/a	n/a	n/a	19	9	3	7	n/a	n/a	n/a	n/a	n/a
2071834	PROB	n/a	LTP140	ltpFR	12	n/a	n/a	n/a	n/a	n/a	n/a	17	5	9	3	n/a	n/a	n/a	n/a	n/a
2073524	PROB	n/a	LTP140	ltpFR	12	n/a	n/a	n/a	n/a	n/a	n/a	14	1	9	4	n/a	n/a	n/a	n/a	n/a
2075040	PROB	n/a	LTP140	ltpFR	12	n/a	n/a	n/a	n/a	n/a	n/a	3	1	1	1	n/a	n/a	n/a	n/a	n/a
2077502	STOP	n/a	LTP140	ltpFR	12	n/a	n/a	n/a	n/a	n/a	n/a	n/a	n/a	n/a	n/a	n/a	n/a	n/a	n/a	n/a
2078405	WORD	wordpools/wasnorm_wordpool.txt	LTP140	ltpFR	12	10	0	DEODORANT	448	n/a	0	n/a	0	0	0	0	0.5869140625	0.422607421875	lower	../fonts/amplitud.ttf
2081413	START	n/a	LTP140	ltpFR	12	n/a	n/a	n/a	n/a	n/a	n/a	n/a	n/a	n/a	n/a	n/a	n/a	n/a	n/a	n/a
2082504	PROB	n/a	LTP140	ltpFR	12	n/a	n/a	n/a	n/a	n/a	n/a	12	9	2	1	n/a	n/a	n/a	n/a	n/a
2083796	PROB	n/a	LTP140	ltpFR	12	n/a	n/a	n/a	n/a	n/a	n/a	21	5	8	8	n/a	n/a	n/a	n/a	n/a
2085319	PROB	n/a	LTP140	ltpFR	12	n/a	n/a	n/a	n/a	n/a	n/a	18	7	9	2	n/a	n/a	n/a	n/a	n/a
2086812	PROB	n/a	LTP140	ltpFR	12	n/a	n/a	n/a	n/a	n/a	n/a	14	7	1	6	n/a	n/a	n/a	n/a	n/a
2088127	PROB	n/a	LTP140	ltpFR	12	n/a	n/a	n/a	n/a	n/a	n/a	14	6	6	2	n/a	n/a	n/a	n/a	n/a
2089326	PROB	n/a	LTP140	ltpFR	12	n/a	n/a	n/a	n/a	n/a	n/a	24	7	9	8	n/a	n/a	n/a	n/a	n/a
2092751	PROB	n/a	LTP140	ltpFR	12	n/a	n/a	n/a	n/a	n/a	n/a	12	7	2	3	n/a	n/a	n/a	n/a	n/a
2094441	PROB	n/a	LTP140	ltpFR	12	n/a	n/a	n/a	n/a	n/a	n/a	20	9	3	8	n/a	n/a	n/a	n/a	n/a
2095996	STOP	n/a	LTP140	ltpFR	12	n/a	n/a	n/a	n/a	n/a	n/a	n/a	n/a	n/a	n/a	n/a	n/a	n/a	n/a	n/a
2098440	WORD	wordpools/wasnorm_wordpool.txt	LTP140	ltpFR	12	10	0	DINNER	468	n/a	1	n/a	0	0	0	0	0.5869140625	0.422607421875	lower	../fonts/amplitud.ttf
2101447	START	n/a	LTP140	ltpFR	12	n/a	n/a	n/a	n/a	n/a	n/a	n/a	n/a	n/a	n/a	n/a	n/a	n/a	n/a	n/a
2102606	PROB	n/a	LTP140	ltpFR	12	n/a	n/a	n/a	n/a	n/a	n/a	5	3	1	1	n/a	n/a	n/a	n/a	n/a
2103697	PROB	n/a	LTP140	ltpFR	12	n/a	n/a	n/a	n/a	n/a	n/a	12	7	4	1	n/a	n/a	n/a	n/a	n/a
2104780	PROB	n/a	LTP140	ltpFR	12	n/a	n/a	n/a	n/a	n/a	n/a	14	8	4	2	n/a	n/a	n/a	n/a	n/a
2106412	PROB	n/a	LTP140	ltpFR	12	n/a	n/a	n/a	n/a	n/a	n/a	15	3	6	6	n/a	n/a	n/a	n/a	n/a
2108003	PROB	n/a	LTP140	ltpFR	12	n/a	n/a	n/a	n/a	n/a	n/a	11	8	1	2	n/a	n/a	n/a	n/a	n/a
2109253	PROB	n/a	LTP140	ltpFR	12	n/a	n/a	n/a	n/a	n/a	n/a	14	2	7	5	n/a	n/a	n/a	n/a	n/a
2111202	PROB	n/a	LTP140	ltpFR	12	n/a	n/a	n/a	n/a	n/a	n/a	17	4	6	7	n/a	n/a	n/a	n/a	n/a
2112761	PROB	n/a	LTP140	ltpFR	12	n/a	n/a	n/a	n/a	n/a	n/a	18	8	6	4	n/a	n/a	n/a	n/a	n/a
2114593	PROB	n/a	LTP140	ltpFR	12	n/a	n/a	n/a	n/a	n/a	n/a	16	6	5	6	n/a	n/a	n/a	n/a	n/a
2117244	STOP	n/a	LTP140	ltpFR	12	n/a	n/a	n/a	n/a	n/a	n/a	n/a	n/a	n/a	n/a	n/a	n/a	n/a	n/a	n/a
2118349	WORD	wordpools/wasnorm_wordpool.txt	LTP140	ltpFR	12	10	0	GROCERY	664	n/a	1	n/a	0	0	0	0	0.5869140625	0.422607421875	lower	../fonts/amplitud.ttf
2121357	START	n/a	LTP140	ltpFR	12	n/a	n/a	n/a	n/a	n/a	n/a	n/a	n/a	n/a	n/a	n/a	n/a	n/a	n/a	n/a
2122223	PROB	n/a	LTP140	ltpFR	12	n/a	n/a	n/a	n/a	n/a	n/a	15	2	9	4	n/a	n/a	n/a	n/a	n/a
2123715	PROB	n/a	LTP140	ltpFR	12	n/a	n/a	n/a	n/a	n/a	n/a	8	2	1	5	n/a	n/a	n/a	n/a	n/a
2124865	PROB	n/a	LTP140	ltpFR	12	n/a	n/a	n/a	n/a	n/a	n/a	16	1	9	6	n/a	n/a	n/a	n/a	n/a
2126047	PROB	n/a	LTP140	ltpFR	12	n/a	n/a	n/a	n/a	n/a	n/a	18	7	2	9	n/a	n/a	n/a	n/a	n/a
2127896	PROB	n/a	LTP140	ltpFR	12	n/a	n/a	n/a	n/a	n/a	n/a	16	5	8	3	n/a	n/a	n/a	n/a	n/a
2129646	PROB	n/a	LTP140	ltpFR	12	n/a	n/a	n/a	n/a	n/a	n/a	9	2	6	1	n/a	n/a	n/a	n/a	n/a
2130688	PROB	n/a	LTP140	ltpFR	12	n/a	n/a	n/a	n/a	n/a	n/a	6	2	2	2	n/a	n/a	n/a	n/a	n/a
2131587	PROB	n/a	LTP140	ltpFR	12	n/a	n/a	n/a	n/a	n/a	n/a	16	2	6	8	n/a	n/a	n/a	n/a	n/a
2133028	PROB	n/a	LTP140	ltpFR	12	n/a	n/a	n/a	n/a	n/a	n/a	6	4	1	1	n/a	n/a	n/a	n/a	n/a
2133919	PROB	n/a	LTP140	ltpFR	12	n/a	n/a	n/a	n/a	n/a	n/a	20	6	6	8	n/a	n/a	n/a	n/a	n/a
2135360	PROB	n/a	LTP140	ltpFR	12	n/a	n/a	n/a	n/a	n/a	n/a	14	6	7	1	n/a	n/a	n/a	n/a	n/a
2136524	STOP	n/a	LTP140	ltpFR	12	n/a	n/a	n/a	n/a	n/a	n/a	n/a	n/a	n/a	n/a	n/a	n/a	n/a	n/a	n/a
2138367	WORD	wordpools/wasnorm_wordpool.txt	LTP140	ltpFR	12	10	0	THORN	1459	n/a	0	n/a	0	0	0	0	0.5869140625	0.422607421875	lower	../fonts/amplitud.ttf
2141375	START	n/a	LTP140	ltpFR	12	n/a	n/a	n/a	n/a	n/a	n/a	n/a	n/a	n/a	n/a	n/a	n/a	n/a	n/a	n/a
2142291	PROB	n/a	LTP140	ltpFR	12	n/a	n/a	n/a	n/a	n/a	n/a	12	6	5	1	n/a	n/a	n/a	n/a	n/a
2143349	PROB	n/a	LTP140	ltpFR	12	n/a	n/a	n/a	n/a	n/a	n/a	23	7	7	9	n/a	n/a	n/a	n/a	n/a
2146023	PROB	n/a	LTP140	ltpFR	12	n/a	n/a	n/a	n/a	n/a	n/a	13	8	1	4	n/a	n/a	n/a	n/a	n/a
2147222	PROB	n/a	LTP140	ltpFR	12	n/a	n/a	n/a	n/a	n/a	n/a	16	3	9	4	n/a	n/a	n/a	n/a	n/a
2148564	PROB	n/a	LTP140	ltpFR	12	n/a	n/a	n/a	n/a	n/a	n/a	15	5	2	8	n/a	n/a	n/a	n/a	n/a
2149897	PROB	n/a	LTP140	ltpFR	12	n/a	n/a	n/a	n/a	n/a	n/a	15	1	7	7	n/a	n/a	n/a	n/a	n/a
2150979	PROB	n/a	LTP140	ltpFR	12	n/a	n/a	n/a	n/a	n/a	n/a	13	7	1	5	n/a	n/a	n/a	n/a	n/a
2152104	PROB	n/a	LTP140	ltpFR	12	n/a	n/a	n/a	n/a	n/a	n/a	18	4	6	8	n/a	n/a	n/a	n/a	n/a
2153220	PROB	n/a	LTP140	ltpFR	12	n/a	n/a	n/a	n/a	n/a	n/a	18	1	8	9	n/a	n/a	n/a	n/a	n/a
2154453	PROB	n/a	LTP140	ltpFR	12	n/a	n/a	n/a	n/a	n/a	n/a	11	1	3	7	n/a	n/a	n/a	n/a	n/a
2156532	STOP	n/a	LTP140	ltpFR	12	n/a	n/a	n/a	n/a	n/a	n/a	n/a	n/a	n/a	n/a	n/a	n/a	n/a	n/a	n/a
2158227	WORD	wordpools/wasnorm_wordpool.txt	LTP140	ltpFR	12	10	0	STEM	1376	n/a	0	n/a	0	0	0	0	0.5869140625	0.422607421875	lower	../fonts/amplitud.ttf
2161235	START	n/a	LTP140	ltpFR	12	n/a	n/a	n/a	n/a	n/a	n/a	n/a	n/a	n/a	n/a	n/a	n/a	n/a	n/a	n/a
2162384	PROB	n/a	LTP140	ltpFR	12	n/a	n/a	n/a	n/a	n/a	n/a	18	3	6	9	n/a	n/a	n/a	n/a	n/a
2164116	PROB	n/a	LTP140	ltpFR	12	n/a	n/a	n/a	n/a	n/a	n/a	11	1	7	3	n/a	n/a	n/a	n/a	n/a
2165508	PROB	n/a	LTP140	ltpFR	12	n/a	n/a	n/a	n/a	n/a	n/a	3	1	1	1	n/a	n/a	n/a	n/a	n/a
2166391	PROB	n/a	LTP140	ltpFR	12	n/a	n/a	n/a	n/a	n/a	n/a	18	5	9	4	n/a	n/a	n/a	n/a	n/a
2168040	PROB	n/a	LTP140	ltpFR	12	n/a	n/a	n/a	n/a	n/a	n/a	14	7	1	6	n/a	n/a	n/a	n/a	n/a
2169198	PROB	n/a	LTP140	ltpFR	12	n/a	n/a	n/a	n/a	n/a	n/a	23	9	5	9	n/a	n/a	n/a	n/a	n/a
2171139	PROB	n/a	LTP140	ltpFR	12	n/a	n/a	n/a	n/a	n/a	n/a	10	5	1	4	n/a	n/a	n/a	n/a	n/a
2172430	PROB	n/a	LTP140	ltpFR	12	n/a	n/a	n/a	n/a	n/a	n/a	17	5	8	4	n/a	n/a	n/a	n/a	n/a
2174954	PROB	n/a	LTP140	ltpFR	12	n/a	n/a	n/a	n/a	n/a	n/a	16	6	6	4	n/a	n/a	n/a	n/a	n/a
2176452	STOP	n/a	LTP140	ltpFR	12	n/a	n/a	n/a	n/a	n/a	n/a	n/a	n/a	n/a	n/a	n/a	n/a	n/a	n/a	n/a
2178137	WORD	wordpools/wasnorm_wordpool.txt	LTP140	ltpFR	12	10	1	YOLK	1633	n/a	0	n/a	0	0	0	1	0.412841796875	0.57763671875	upper	../fonts/zerothre.ttf
2181144	START	n/a	LTP140	ltpFR	12	n/a	n/a	n/a	n/a	n/a	n/a	n/a	n/a	n/a	n/a	n/a	n/a	n/a	n/a	n/a
2182310	PROB	n/a	LTP140	ltpFR	12	n/a	n/a	n/a	n/a	n/a	n/a	10	3	2	5	n/a	n/a	n/a	n/a	n/a
2184326	PROB	n/a	LTP140	ltpFR	12	n/a	n/a	n/a	n/a	n/a	n/a	10	2	3	5	n/a	n/a	n/a	n/a	n/a
2185643	PROB	n/a	LTP140	ltpFR	12	n/a	n/a	n/a	n/a	n/a	n/a	11	7	3	1	n/a	n/a	n/a	n/a	n/a
2186759	PROB	n/a	LTP140	ltpFR	12	n/a	n/a	n/a	n/a	n/a	n/a	21	9	4	8	n/a	n/a	n/a	n/a	n/a
2189316	PROB	n/a	LTP140	ltpFR	12	n/a	n/a	n/a	n/a	n/a	n/a	7	4	1	2	n/a	n/a	n/a	n/a	n/a
2190390	PROB	n/a	LTP140	ltpFR	12	n/a	n/a	n/a	n/a	n/a	n/a	16	8	7	1	n/a	n/a	n/a	n/a	n/a
2191565	PROB	n/a	LTP140	ltpFR	12	n/a	n/a	n/a	n/a	n/a	n/a	22	4	9	9	n/a	n/a	n/a	n/a	n/a
2192874	PROB	n/a	LTP140	ltpFR	12	n/a	n/a	n/a	n/a	n/a	n/a	10	3	2	5	n/a	n/a	n/a	n/a	n/a
2194456	PROB	n/a	LTP140	ltpFR	12	n/a	n/a	n/a	n/a	n/a	n/a	9	5	3	1	n/a	n/a	n/a	n/a	n/a
2195489	PROB	n/a	LTP140	ltpFR	12	n/a	n/a	n/a	n/a	n/a	n/a	14	9	2	3	n/a	n/a	n/a	n/a	n/a
2197052	STOP	n/a	LTP140	ltpFR	12	n/a	n/a	n/a	n/a	n/a	n/a	n/a	n/a	n/a	n/a	n/a	n/a	n/a	n/a	n/a
2198188	WORD	wordpools/wasnorm_wordpool.txt	LTP140	ltpFR	12	10	1	UNIFORM	1539	n/a	1	n/a	0	0	0	1	0.412841796875	0.57763671875	upper	../fonts/zerothre.ttf
2201195	START	n/a	LTP140	ltpFR	12	n/a	n/a	n/a	n/a	n/a	n/a	n/a	n/a	n/a	n/a	n/a	n/a	n/a	n/a	n/a
2202178	PROB	n/a	LTP140	ltpFR	12	n/a	n/a	n/a	n/a	n/a	n/a	15	8	1	6	n/a	n/a	n/a	n/a	n/a
2203336	PROB	n/a	LTP140	ltpFR	12	n/a	n/a	n/a	n/a	n/a	n/a	17	5	8	4	n/a	n/a	n/a	n/a	n/a
2205044	PROB	n/a	LTP140	ltpFR	12	n/a	n/a	n/a	n/a	n/a	n/a	12	3	1	8	n/a	n/a	n/a	n/a	n/a
2206318	PROB	n/a	LTP140	ltpFR	12	n/a	n/a	n/a	n/a	n/a	n/a	14	7	5	2	n/a	n/a	n/a	n/a	n/a
2207518	PROB	n/a	LTP140	ltpFR	12	n/a	n/a	n/a	n/a	n/a	n/a	13	3	3	7	n/a	n/a	n/a	n/a	n/a
2208843	PROB	n/a	LTP140	ltpFR	12	n/a	n/a	n/a	n/a	n/a	n/a	13	6	5	2	n/a	n/a	n/a	n/a	n/a
2211191	PROB	n/a	LTP140	ltpFR	12	n/a	n/a	n/a	n/a	n/a	n/a	12	6	2	4	n/a	n/a	n/a	n/a	n/a
2212742	PROB	n/a	LTP140	ltpFR	12	n/a	n/a	n/a	n/a	n/a	n/a	13	5	1	7	n/a	n/a	n/a	n/a	n/a
2214174	PROB	n/a	LTP140	ltpFR	12	n/a	n/a	n/a	n/a	n/a	n/a	18	7	3	8	n/a	n/a	n/a	n/a	n/a
2217116	STOP	n/a	LTP140	ltpFR	12	n/a	n/a	n/a	n/a	n/a	n/a	n/a	n/a	n/a	n/a	n/a	n/a	n/a	n/a	n/a
2218014	WORD	wordpools/wasnorm_wordpool.txt	LTP140	ltpFR	12	10	0	BISON	131	n/a	2	n/a	0	0	0	0	0.5869140625	0.422607421875	lower	../fonts/amplitud.ttf
2218122	KEY_MSG	n/a	LTP140	ltpFR	12	10	n/a	n/a	n/a	n/a	n/a	n/a	0	0	0	n/a	n/a	n/a	n/a	n/a
2221022	START	n/a	LTP140	ltpFR	12	n/a	n/a	n/a	n/a	n/a	n/a	n/a	n/a	n/a	n/a	n/a	n/a	n/a	n/a	n/a
2222013	PROB	n/a	LTP140	ltpFR	12	n/a	n/a	n/a	n/a	n/a	n/a	219	9	4	6	n/a	n/a	n/a	n/a	n/a
2223605	PROB	n/a	LTP140	ltpFR	12	n/a	n/a	n/a	n/a	n/a	n/a	12	3	4	5	n/a	n/a	n/a	n/a	n/a
2225536	PROB	n/a	LTP140	ltpFR	12	n/a	n/a	n/a	n/a	n/a	n/a	9	3	3	3	n/a	n/a	n/a	n/a	n/a
2226670	PROB	n/a	LTP140	ltpFR	12	n/a	n/a	n/a	n/a	n/a	n/a	16	7	3	6	n/a	n/a	n/a	n/a	n/a
2227919	PROB	n/a	LTP140	ltpFR	12	n/a	n/a	n/a	n/a	n/a	n/a	13	5	4	4	n/a	n/a	n/a	n/a	n/a
2229901	PROB	n/a	LTP140	ltpFR	12	n/a	n/a	n/a	n/a	n/a	n/a	14	2	9	3	n/a	n/a	n/a	n/a	n/a
2231493	PROB	n/a	LTP140	ltpFR	12	n/a	n/a	n/a	n/a	n/a	n/a	14	3	7	4	n/a	n/a	n/a	n/a	n/a
2232925	PROB	n/a	LTP140	ltpFR	12	n/a	n/a	n/a	n/a	n/a	n/a	15	7	1	7	n/a	n/a	n/a	n/a	n/a
2234458	PROB	n/a	LTP140	ltpFR	12	n/a	n/a	n/a	n/a	n/a	n/a	19	9	2	8	n/a	n/a	n/a	n/a	n/a
2235916	STOP	n/a	LTP140	ltpFR	12	n/a	n/a	n/a	n/a	n/a	n/a	n/a	n/a	n/a	n/a	n/a	n/a	n/a	n/a	n/a
2238165	WORD	wordpools/wasnorm_wordpool.txt	LTP140	ltpFR	12	10	0	CHIMPANZEE	302	n/a	1	n/a	0	0	0	0	0.5869140625	0.422607421875	lower	../fonts/amplitud.ttf
2241173	START	n/a	LTP140	ltpFR	12	n/a	n/a	n/a	n/a	n/a	n/a	n/a	n/a	n/a	n/a	n/a	n/a	n/a	n/a	n/a
2242239	PROB	n/a	LTP140	ltpFR	12	n/a	n/a	n/a	n/a	n/a	n/a	12	2	9	1	n/a	n/a	n/a	n/a	n/a
2243631	PROB	n/a	LTP140	ltpFR	12	n/a	n/a	n/a	n/a	n/a	n/a	16	9	3	4	n/a	n/a	n/a	n/a	n/a
2246187	PROB	n/a	LTP140	ltpFR	12	n/a	n/a	n/a	n/a	n/a	n/a	11	3	1	7	n/a	n/a	n/a	n/a	n/a
2247553	PROB	n/a	LTP140	ltpFR	12	n/a	n/a	n/a	n/a	n/a	n/a	19	4	6	9	n/a	n/a	n/a	n/a	n/a
2248746	PROB	n/a	LTP140	ltpFR	12	n/a	n/a	n/a	n/a	n/a	n/a	14	6	4	6	n/a	n/a	n/a	n/a	n/a
2250094	PROB	n/a	LTP140	ltpFR	12	n/a	n/a	n/a	n/a	n/a	n/a	17	8	5	4	n/a	n/a	n/a	n/a	n/a
2251902	PROB	n/a	LTP140	ltpFR	12	n/a	n/a	n/a	n/a	n/a	n/a	17	9	4	4	n/a	n/a	n/a	n/a	n/a
2253736	PROB	n/a	LTP140	ltpFR	12	n/a	n/a	n/a	n/a	n/a	n/a	16	4	5	7	n/a	n/a	n/a	n/a	n/a
2255251	PROB	n/a	LTP140	ltpFR	12	n/a	n/a	n/a	n/a	n/a	n/a	9	4	2	3	n/a	n/a	n/a	n/a	n/a
2256908	STOP	n/a	LTP140	ltpFR	12	n/a	n/a	n/a	n/a	n/a	n/a	n/a	n/a	n/a	n/a	n/a	n/a	n/a	n/a	n/a
2258066	WORD	wordpools/wasnorm_wordpool.txt	LTP140	ltpFR	12	10	1	NEPTUNE	943	n/a	1	n/a	0	0	0	1	0.412841796875	0.57763671875	upper	../fonts/zerothre.ttf
2261074	START	n/a	LTP140	ltpFR	12	n/a	n/a	n/a	n/a	n/a	n/a	n/a	n/a	n/a	n/a	n/a	n/a	n/a	n/a	n/a
2261890	PROB	n/a	LTP140	ltpFR	12	n/a	n/a	n/a	n/a	n/a	n/a	10	4	2	4	n/a	n/a	n/a	n/a	n/a
2263215	PROB	n/a	LTP140	ltpFR	12	n/a	n/a	n/a	n/a	n/a	n/a	11	3	6	2	n/a	n/a	n/a	n/a	n/a
2264397	PROB	n/a	LTP140	ltpFR	12	n/a	n/a	n/a	n/a	n/a	n/a	16	4	6	6	n/a	n/a	n/a	n/a	n/a
2265723	PROB	n/a	LTP140	ltpFR	12	n/a	n/a	n/a	n/a	n/a	n/a	8	4	3	1	n/a	n/a	n/a	n/a	n/a
2266798	PROB	n/a	LTP140	ltpFR	12	n/a	n/a	n/a	n/a	n/a	n/a	12	3	3	6	n/a	n/a	n/a	n/a	n/a
2268313	PROB	n/a	LTP140	ltpFR	12	n/a	n/a	n/a	n/a	n/a	n/a	7	2	2	3	n/a	n/a	n/a	n/a	n/a
2269521	PROB	n/a	LTP140	ltpFR	12	n/a	n/a	n/a	n/a	n/a	n/a	17	6	6	5	n/a	n/a	n/a	n/a	n/a
2271062	PROB	n/a	LTP140	ltpFR	12	n/a	n/a	n/a	n/a	n/a	n/a	15	1	9	5	n/a	n/a	n/a	n/a	n/a
2275252	PROB	n/a	LTP140	ltpFR	12	n/a	n/a	n/a	n/a	n/a	n/a	21	9	8	4	n/a	n/a	n/a	n/a	n/a
2277036	STOP	n/a	LTP140	ltpFR	12	n/a	n/a	n/a	n/a	n/a	n/a	n/a	n/a	n/a	n/a	n/a	n/a	n/a	n/a	n/a
2278209	WORD	wordpools/wasnorm_wordpool.txt	LTP140	ltpFR	12	10	1	CABBAGE	210	n/a	1	n/a	0	0	0	1	0.412841796875	0.57763671875	upper	../fonts/zerothre.ttf
2281217	START	n/a	LTP140	ltpFR	12	n/a	n/a	n/a	n/a	n/a	n/a	n/a	n/a	n/a	n/a	n/a	n/a	n/a	n/a	n/a
2282091	PROB	n/a	LTP140	ltpFR	12	n/a	n/a	n/a	n/a	n/a	n/a	13	4	2	7	n/a	n/a	n/a	n/a	n/a
2283841	PROB	n/a	LTP140	ltpFR	12	n/a	n/a	n/a	n/a	n/a	n/a	6	1	1	4	n/a	n/a	n/a	n/a	n/a
2284808	PROB	n/a	LTP140	ltpFR	12	n/a	n/a	n/a	n/a	n/a	n/a	6	1	3	2	n/a	n/a	n/a	n/a	n/a
2285841	PROB	n/a	LTP140	ltpFR	12	n/a	n/a	n/a	n/a	n/a	n/a	9	3	1	5	n/a	n/a	n/a	n/a	n/a
2287014	PROB	n/a	LTP140	ltpFR	12	n/a	n/a	n/a	n/a	n/a	n/a	16	7	5	4	n/a	n/a	n/a	n/a	n/a
2290447	PROB	n/a	LTP140	ltpFR	12	n/a	n/a	n/a	n/a	n/a	n/a	15	5	6	4	n/a	n/a	n/a	n/a	n/a
2291655	PROB	n/a	LTP140	ltpFR	12	n/a	n/a	n/a	n/a	n/a	n/a	11	3	1	7	n/a	n/a	n/a	n/a	n/a
2292797	PROB	n/a	LTP140	ltpFR	12	n/a	n/a	n/a	n/a	n/a	n/a	9	3	4	2	n/a	n/a	n/a	n/a	n/a
2294671	PROB	n/a	LTP140	ltpFR	12	n/a	n/a	n/a	n/a	n/a	n/a	10	4	2	4	n/a	n/a	n/a	n/a	n/a
2295837	STOP	n/a	LTP140	ltpFR	12	n/a	n/a	n/a	n/a	n/a	n/a	n/a	n/a	n/a	n/a	n/a	n/a	n/a	n/a	n/a
2299119	REC_START	n/a	LTP140	ltpFR	12	10	n/a	n/a	n/a	n/a	n/a	n/a	0	0	0	n/a	n/a	n/a	n/a	n/a
2300107	REC_WORD	wordpools/wasnorm_wordpool.txt	LTP140	ltpFR	12	10	1	CABBAGE	210	n/a	1	n/a	0	0	0	n/a	n/a	n/a	n/a	n/a
2301107	REC_WORD_VV	wordpools/wasnorm_wordpool.txt	LTP140	ltpFR	12	10	n/a	<>	-1	n/a	n/a	n/a	0	0	0	n/a	n/a	n/a	n/a	n/a
2301219	REC_WORD	wordpools/wasnorm_wordpool.txt	LTP140	ltpFR	12	10	1	NEPTUNE	943	n/a	1	n/a	0	0	0	n/a	n/a	n/a	n/a	n/a
2302219	REC_WORD_VV	wordpools/wasnorm_wordpool.txt	LTP140	ltpFR	12	10	n/a	<>	-1	n/a	n/a	n/a	0	0	0	n/a	n/a	n/a	n/a	n/a
2303643	REC_WORD	wordpools/wasnorm_wordpool.txt	LTP140	ltpFR	12	10	1	YOLK	1633	n/a	0	n/a	0	0	0	n/a	n/a	n/a	n/a	n/a
2304711	REC_WORD	wordpools/wasnorm_wordpool.txt	LTP140	ltpFR	12	10	0	CHIMPANZEE	302	n/a	1	n/a	0	0	0	n/a	n/a	n/a	n/a	n/a
2306761	REC_WORD	wordpools/wasnorm_wordpool.txt	LTP140	ltpFR	12	10	0	DINNER	468	n/a	1	n/a	0	0	0	n/a	n/a	n/a	n/a	n/a
