onset	duration	trial_type	sample	stim_file	subject	experiment	session	trial	item_name	item_num	list	answer	test_x	test_y	test_z
481.096	n/a	SESS_START	240548	n/a	LTP324	ltpFR2	0	n/a	n/a	n/a	n/a	n/a	0	0	0
568.164	n/a	START	284082	n/a	LTP324	ltpFR2	0	n/a	n/a	n/a	-1	n/a	n/a	n/a	n/a
568.178	n/a	PROB	284089	n/a	LTP324	ltpFR2	0	n/a	n/a	n/a	-1	7	1	2	4
569.462	n/a	PROB	284731	n/a	LTP324	ltpFR2	0	n/a	n/a	n/a	-1	20	2	9	9
570.948	n/a	PROB	285474	n/a	LTP324	ltpFR2	0	n/a	n/a	n/a	-1	18	5	4	9
572.398	n/a	PROB	286199	n/a	LTP324	ltpFR2	0	n/a	n/a	n/a	-1	12	7	2	3
575.252	n/a	PROB	287626	n/a	LTP324	ltpFR2	0	n/a	n/a	n/a	-1	11	6	1	4
576.25	n/a	PROB	288125	n/a	LTP324	ltpFR2	0	n/a	n/a	n/a	-1	19	5	5	9
577.688	n/a	PROB	288844	n/a	LTP324	ltpFR2	0	n/a	n/a	n/a	-1	17	8	5	4
579.814	n/a	STOP	289907	n/a	LTP324	ltpFR2	0	n/a	n/a	n/a	-1	n/a	n/a	n/a	n/a
681.928	n/a	WORD	340964	wordpools/wasnorm_wordpool_576.txt	LTP324	ltpFR2	0	1	TURKEY	1520	n/a	n/a	0	0	0
684.448	n/a	WORD	342224	wordpools/wasnorm_wordpool_576.txt	LTP324	ltpFR2	0	1	BATHTUB	100	n/a	n/a	0	0	0
687.134	n/a	WORD	343567	wordpools/wasnorm_wordpool_576.txt	LTP324	ltpFR2	0	1	PADDING	999	n/a	n/a	0	0	0
689.84	n/a	WORD	344920	wordpools/wasnorm_wordpool_576.txt	LTP324	ltpFR2	0	1	INFANT	737	n/a	n/a	0	0	0
692.272	n/a	WORD	346136	wordpools/wasnorm_wordpool_576.txt	LTP324	ltpFR2	0	1	EMPIRE	530	n/a	n/a	0	0	0
694.84	n/a	WORD	347420	wordpools/wasnorm_wordpool_576.txt	LTP324	ltpFR2	0	1	LABEL	790	n/a	n/a	0	0	0
697.61	n/a	WORD	348805	wordpools/wasnorm_wordpool_576.txt	LTP324	ltpFR2	0	1	VALVE	1546	n/a	n/a	0	0	0
700.378	n/a	WORD	350189	wordpools/wasnorm_wordpool_576.txt	LTP324	ltpFR2	0	1	OX	994	n/a	n/a	0	0	0
703.048	n/a	WORD	351524	wordpools/wasnorm_wordpool_576.txt	LTP324	ltpFR2	0	1	SUMMIT	1405	n/a	n/a	0	0	0
705.752	n/a	WORD	352876	wordpools/wasnorm_wordpool_576.txt	LTP324	ltpFR2	0	1	CHEMIST	292	n/a	n/a	0	0	0
708.436	n/a	WORD	354218	wordpools/wasnorm_wordpool_576.txt	LTP324	ltpFR2	0	1	PEDAL	1037	n/a	n/a	0	0	0
711.022	n/a	WORD	355511	wordpools/wasnorm_wordpool_576.txt	LTP324	ltpFR2	0	1	CONVICT	371	n/a	n/a	0	0	0
713.676	n/a	WORD	356838	wordpools/wasnorm_wordpool_576.txt	LTP324	ltpFR2	0	1	TABLE	1426	n/a	n/a	0	0	0
716.34	n/a	WORD	358170	wordpools/wasnorm_wordpool_576.txt	LTP324	ltpFR2	0	1	COWBOY	395	n/a	n/a	0	0	0
719.128	n/a	WORD	359564	wordpools/wasnorm_wordpool_576.txt	LTP324	ltpFR2	0	1	BISON	131	n/a	n/a	0	0	0
721.714	n/a	WORD	360857	wordpools/wasnorm_wordpool_576.txt	LTP324	ltpFR2	0	1	HANDBAG	684	n/a	n/a	0	0	0
724.182	n/a	WORD	362091	wordpools/wasnorm_wordpool_576.txt	LTP324	ltpFR2	0	1	DRESSER	496	n/a	n/a	0	0	0
726.784	n/a	WORD	363392	wordpools/wasnorm_wordpool_576.txt	LTP324	ltpFR2	0	1	MATTRESS	879	n/a	n/a	0	0	0
729.218	n/a	WORD	364609	wordpools/wasnorm_wordpool_576.txt	LTP324	ltpFR2	0	1	EGYPT	519	n/a	n/a	0	0	0
731.69	n/a	WORD	365845	wordpools/wasnorm_wordpool_576.txt	LTP324	ltpFR2	0	1	TEMPLE	1448	n/a	n/a	0	0	0
734.29	n/a	WORD	367145	wordpools/wasnorm_wordpool_576.txt	LTP324	ltpFR2	0	1	CLOTHES	327	n/a	n/a	0	0	0
736.826	n/a	WORD	368413	wordpools/wasnorm_wordpool_576.txt	LTP324	ltpFR2	0	1	ZIPPER	1636	n/a	n/a	0	0	0
739.312	n/a	WORD	369656	wordpools/wasnorm_wordpool_576.txt	LTP324	ltpFR2	0	1	SPONGE	1355	n/a	n/a	0	0	0
742.064	n/a	WORD	371032	wordpools/wasnorm_wordpool_576.txt	LTP324	ltpFR2	0	1	BUCKET	184	n/a	n/a	0	0	0
743.684	n/a	START	371842	n/a	LTP324	ltpFR2	0	n/a	n/a	n/a	1	n/a	n/a	n/a	n/a
744.746	n/a	DISTRACTOR	372373	n/a	LTP324	ltpFR2	0	1	n/a	n/a	n/a	n/a	0	0	0
744.75	n/a	PROB	372375	n/a	LTP324	ltpFR2	0	n/a	n/a	n/a	1	21	5	7	9
746.518	n/a	PROB	373259	n/a	LTP324	ltpFR2	0	n/a	n/a	n/a	1	18	9	1	7
747.934	n/a	PROB	373967	n/a	LTP324	ltpFR2	0	n/a	n/a	n/a	1	23	8	8	7
750.138	n/a	PROB	375069	n/a	LTP324	ltpFR2	0	n/a	n/a	n/a	1	5	2	1	2
751.004	n/a	PROB	375502	n/a	LTP324	ltpFR2	0	n/a	n/a	n/a	1	22	9	4	8
752.338	n/a	PROB	376169	n/a	LTP324	ltpFR2	0	n/a	n/a	n/a	1	14	6	7	4
753.608	n/a	PROB	376804	n/a	LTP324	ltpFR2	0	n/a	n/a	n/a	1	7	2	2	3
755.142	n/a	PROB	377571	n/a	LTP324	ltpFR2	0	n/a	n/a	n/a	1	1	4	9	2
756.424	n/a	PROB	378212	n/a	LTP324	ltpFR2	0	n/a	n/a	n/a	1	12	2	8	2
758.644	n/a	PROB	379322	n/a	LTP324	ltpFR2	0	n/a	n/a	n/a	1	18	8	3	7
759.994	n/a	PROB	379997	n/a	LTP324	ltpFR2	0	n/a	n/a	n/a	1	19	4	8	7
761.878	n/a	PROB	380939	n/a	LTP324	ltpFR2	0	n/a	n/a	n/a	1	17	5	8	4
764.48	n/a	PROB	382240	n/a	LTP324	ltpFR2	0	n/a	n/a	n/a	1	11	2	7	2
766.594	n/a	STOP	383297	n/a	LTP324	ltpFR2	0	n/a	n/a	n/a	1	n/a	n/a	n/a	n/a
769.588	n/a	REC_START	384794	n/a	LTP324	ltpFR2	0	1	n/a	n/a	n/a	n/a	0	0	0
790.648	n/a	REC_WORD	395324	wordpools/wasnorm_wordpool_576.txt	LTP324	ltpFR2	0	1	SUMMIT	1405	n/a	n/a	0	0	0
792.544	n/a	REC_WORD	396272	wordpools/wasnorm_wordpool_576.txt	LTP324	ltpFR2	0	1	CONVICT	371	n/a	n/a	0	0	0
793.404	n/a	REC_WORD	396702	wordpools/wasnorm_wordpool_576.txt	LTP324	ltpFR2	0	1	COWBOY	395	n/a	n/a	0	0	0
795.766	n/a	REC_WORD	397883	wordpools/wasnorm_wordpool_576.txt	LTP324	ltpFR2	0	1	DRESSER	496	n/a	n/a	0	0	0
796.676	n/a	REC_WORD	398338	wordpools/wasnorm_wordpool_576.txt	LTP324	ltpFR2	0	1	HANDBAG	684	n/a	n/a	0	0	0
797.418	n/a	REC_WORD	398709	wordpools/wasnorm_wordpool_576.txt	LTP324	ltpFR2	0	1	MATTRESS	879	n/a	n/a	0	0	0
799.838	n/a	REC_WORD	399919	wordpools/wasnorm_wordpool_576.txt	LTP324	ltpFR2	0	1	OX	994	n/a	n/a	0	0	0
808.946	n/a	REC_WORD	404473	wordpools/wasnorm_wordpool_576.txt	LTP324	ltpFR2	0	1	BOOT	150	n/a	n/a	0	0	0
811.792	n/a	REC_WORD	405896	wordpools/wasnorm_wordpool_576.txt	LTP324	ltpFR2	0	1	CATTLE	261	n/a	n/a	0	0	0
824.608	n/a	REC_WORD	412304	wordpools/wasnorm_wordpool_576.txt	LTP324	ltpFR2	0	1	SOLDIER	1344	n/a	n/a	0	0	0
896.712	n/a	DISTRACTOR	448356	n/a	LTP324	ltpFR2	0	2	n/a	n/a	n/a	n/a	0	0	0
896.712	n/a	START	448356	n/a	LTP324	ltpFR2	0	n/a	n/a	n/a	2	n/a	n/a	n/a	n/a
896.728	n/a	PROB	448364	n/a	LTP324	ltpFR2	0	n/a	n/a	n/a	2	19	2	8	9
898.636	n/a	PROB	449318	n/a	LTP324	ltpFR2	0	n/a	n/a	n/a	2	9	3	4	2
899.77	n/a	PROB	449885	n/a	LTP324	ltpFR2	0	n/a	n/a	n/a	2	19	3	9	7
901.02	n/a	PROB	450510	n/a	LTP324	ltpFR2	0	n/a	n/a	n/a	2	23	9	5	9
902.622	n/a	PROB	451311	n/a	LTP324	ltpFR2	0	n/a	n/a	n/a	2	21	8	9	4
904.94	n/a	PROB	452470	n/a	LTP324	ltpFR2	0	n/a	n/a	n/a	2	16	3	8	3
906.21	n/a	PROB	453105	n/a	LTP324	ltpFR2	0	n/a	n/a	n/a	2	10	2	5	3
907.844	n/a	PROB	453922	n/a	LTP324	ltpFR2	0	n/a	n/a	n/a	2	10	3	3	4
910.714	n/a	PROB	455357	n/a	LTP324	ltpFR2	0	n/a	n/a	n/a	2	13	6	1	6
911.698	n/a	PROB	455849	n/a	LTP324	ltpFR2	0	n/a	n/a	n/a	2	21	6	6	9
915.05	n/a	PROB	457525	n/a	LTP324	ltpFR2	0	n/a	n/a	n/a	2	11	5	3	3
916.166	n/a	PROB	458083	n/a	LTP324	ltpFR2	0	n/a	n/a	n/a	2	12	7	4	1
917.602	n/a	PROB	458801	n/a	LTP324	ltpFR2	0	n/a	n/a	n/a	2	12	7	1	4
918.968	n/a	PROB	459484	n/a	LTP324	ltpFR2	0	n/a	n/a	n/a	2	15	4	2	9
920.378	n/a	STOP	460189	n/a	LTP324	ltpFR2	0	n/a	n/a	n/a	2	n/a	n/a	n/a	n/a
921.616	n/a	WORD	460808	wordpools/wasnorm_wordpool_576.txt	LTP324	ltpFR2	0	2	VELVET	1555	n/a	n/a	0	0	0
924.174	n/a	WORD	462087	wordpools/wasnorm_wordpool_576.txt	LTP324	ltpFR2	0	2	FOX	598	n/a	n/a	0	0	0
926.642	n/a	WORD	463321	wordpools/wasnorm_wordpool_576.txt	LTP324	ltpFR2	0	2	MUMMY	932	n/a	n/a	0	0	0
929.238	n/a	WORD	464619	wordpools/wasnorm_wordpool_576.txt	LTP324	ltpFR2	0	2	GLOBE	641	n/a	n/a	0	0	0
931.89	n/a	WORD	465945	wordpools/wasnorm_wordpool_576.txt	LTP324	ltpFR2	0	2	APPLE	33	n/a	n/a	0	0	0
934.314	n/a	WORD	467157	wordpools/wasnorm_wordpool_576.txt	LTP324	ltpFR2	0	2	IGLOO	734	n/a	n/a	0	0	0
936.962	n/a	WORD	468481	wordpools/wasnorm_wordpool_576.txt	LTP324	ltpFR2	0	2	ACTRESS	6	n/a	n/a	0	0	0
939.498	n/a	WORD	469749	wordpools/wasnorm_wordpool_576.txt	LTP324	ltpFR2	0	2	NEUTRON	947	n/a	n/a	0	0	0
942.118	n/a	WORD	471059	wordpools/wasnorm_wordpool_576.txt	LTP324	ltpFR2	0	2	CASKET	255	n/a	n/a	0	0	0
944.836	n/a	WORD	472418	wordpools/wasnorm_wordpool_576.txt	LTP324	ltpFR2	0	2	TUBA	1515	n/a	n/a	0	0	0
947.354	n/a	WORD	473677	wordpools/wasnorm_wordpool_576.txt	LTP324	ltpFR2	0	2	WHISTLE	1606	n/a	n/a	0	0	0
950.044	n/a	WORD	475022	wordpools/wasnorm_wordpool_576.txt	LTP324	ltpFR2	0	2	POPCORN	1104	n/a	n/a	0	0	0
952.576	n/a	WORD	476288	wordpools/wasnorm_wordpool_576.txt	LTP324	ltpFR2	0	2	SILK	1307	n/a	n/a	0	0	0
955.164	n/a	WORD	477582	wordpools/wasnorm_wordpool_576.txt	LTP324	ltpFR2	0	2	SHERIFF	1284	n/a	n/a	0	0	0
957.88	n/a	WORD	478940	wordpools/wasnorm_wordpool_576.txt	LTP324	ltpFR2	0	2	HOUND	724	n/a	n/a	0	0	0
960.466	n/a	WORD	480233	wordpools/wasnorm_wordpool_576.txt	LTP324	ltpFR2	0	2	PUPPY	1144	n/a	n/a	0	0	0
962.968	n/a	WORD	481484	wordpools/wasnorm_wordpool_576.txt	LTP324	ltpFR2	0	2	RABBIT	1152	n/a	n/a	0	0	0
965.586	n/a	WORD	482793	wordpools/wasnorm_wordpool_576.txt	LTP324	ltpFR2	0	2	COCOON	339	n/a	n/a	0	0	0
968.288	n/a	WORD	484144	wordpools/wasnorm_wordpool_576.txt	LTP324	ltpFR2	0	2	NOTEBOOK	959	n/a	n/a	0	0	0
970.742	n/a	WORD	485371	wordpools/wasnorm_wordpool_576.txt	LTP324	ltpFR2	0	2	MISSILE	900	n/a	n/a	0	0	0
973.562	n/a	WORD	486781	wordpools/wasnorm_wordpool_576.txt	LTP324	ltpFR2	0	2	JEANS	752	n/a	n/a	0	0	0
976.044	n/a	WORD	488022	wordpools/wasnorm_wordpool_576.txt	LTP324	ltpFR2	0	2	POCKET	1093	n/a	n/a	0	0	0
978.732	n/a	WORD	489366	wordpools/wasnorm_wordpool_576.txt	LTP324	ltpFR2	0	2	SEAGULL	1261	n/a	n/a	0	0	0
981.382	n/a	WORD	490691	wordpools/wasnorm_wordpool_576.txt	LTP324	ltpFR2	0	2	PICTURE	1061	n/a	n/a	0	0	0
983.002	n/a	START	491501	n/a	LTP324	ltpFR2	0	n/a	n/a	n/a	3	n/a	n/a	n/a	n/a
984.154	n/a	DISTRACTOR	492077	n/a	LTP324	ltpFR2	0	2	n/a	n/a	n/a	n/a	0	0	0
984.17	n/a	PROB	492085	n/a	LTP324	ltpFR2	0	n/a	n/a	n/a	3	27	9	8	7
985.638	n/a	PROB	492819	n/a	LTP324	ltpFR2	0	n/a	n/a	n/a	3	13	4	5	4
987.39	n/a	PROB	493695	n/a	LTP324	ltpFR2	0	n/a	n/a	n/a	3	15	3	6	6
988.422	n/a	PROB	494211	n/a	LTP324	ltpFR2	0	n/a	n/a	n/a	3	13	1	4	8
990.192	n/a	PROB	495096	n/a	LTP324	ltpFR2	0	n/a	n/a	n/a	3	9	2	4	3
992.544	n/a	PROB	496272	n/a	LTP324	ltpFR2	0	n/a	n/a	n/a	3	20	7	5	8
995.514	n/a	PROB	497757	n/a	LTP324	ltpFR2	0	n/a	n/a	n/a	3	19	8	5	6
997.33	n/a	PROB	498665	n/a	LTP324	ltpFR2	0	n/a	n/a	n/a	3	18	8	5	7
998.698	n/a	PROB	499349	n/a	LTP324	ltpFR2	0	n/a	n/a	n/a	3	15	9	2	4
1000.798	n/a	PROB	500399	n/a	LTP324	ltpFR2	0	n/a	n/a	n/a	3	16	5	4	7
1001.964	n/a	PROB	500982	n/a	LTP324	ltpFR2	0	n/a	n/a	n/a	3	15	7	6	2
1003.634	n/a	PROB	501817	n/a	LTP324	ltpFR2	0	n/a	n/a	n/a	3	18	4	5	9
1004.752	n/a	PROB	502376	n/a	LTP324	ltpFR2	0	n/a	n/a	n/a	3	21	8	7	6
1006.876	n/a	STOP	503438	n/a	LTP324	ltpFR2	0	n/a	n/a	n/a	3	n/a	n/a	n/a	n/a
1008.924	n/a	REC_START	504462	n/a	LTP324	ltpFR2	0	2	n/a	n/a	n/a	n/a	0	0	0
1011.142	n/a	REC_WORD	505571	wordpools/wasnorm_wordpool_576.txt	LTP324	ltpFR2	0	2	FOX	598	n/a	n/a	0	0	0
1012.974	n/a	REC_WORD	506487	wordpools/wasnorm_wordpool_576.txt	LTP324	ltpFR2	0	2	NEUTRON	947	n/a	n/a	0	0	0
1014.384	n/a	REC_WORD	507192	wordpools/wasnorm_wordpool_576.txt	LTP324	ltpFR2	0	2	CASKET	255	n/a	n/a	0	0	0
1016.012	n/a	REC_WORD	508006	wordpools/wasnorm_wordpool_576.txt	LTP324	ltpFR2	0	2	APPLE	33	n/a	n/a	0	0	0
1017.228	n/a	REC_WORD	508614	wordpools/wasnorm_wordpool_576.txt	LTP324	ltpFR2	0	2	HOUND	724	n/a	n/a	0	0	0
1018.854	n/a	REC_WORD	509427	wordpools/wasnorm_wordpool_576.txt	LTP324	ltpFR2	0	2	DOG	480	n/a	n/a	0	0	0
1020.108	n/a	REC_WORD	510054	wordpools/wasnorm_wordpool_576.txt	LTP324	ltpFR2	0	2	RABBIT	1152	n/a	n/a	0	0	0
1021.934	n/a	REC_WORD	510967	wordpools/wasnorm_wordpool_576.txt	LTP324	ltpFR2	0	2	STAR	1373	n/a	n/a	0	0	0
1027.372	n/a	REC_WORD	513686	wordpools/wasnorm_wordpool_576.txt	LTP324	ltpFR2	0	2	SHERIFF	1284	n/a	n/a	0	0	0
1099.344	n/a	DISTRACTOR	549672	n/a	LTP324	ltpFR2	0	3	n/a	n/a	n/a	n/a	0	0	0
1099.344	n/a	START	549672	n/a	LTP324	ltpFR2	0	n/a	n/a	n/a	4	n/a	n/a	n/a	n/a
1099.358	n/a	PROB	549679	n/a	LTP324	ltpFR2	0	n/a	n/a	n/a	4	13	7	1	5
1101.21	n/a	PROB	550605	n/a	LTP324	ltpFR2	0	n/a	n/a	n/a	4	13	1	6	6
1102.578	n/a	PROB	551289	n/a	LTP324	ltpFR2	0	n/a	n/a	n/a	4	5	1	1	3
1103.478	n/a	PROB	551739	n/a	LTP324	ltpFR2	0	n/a	n/a	n/a	4	16	7	8	4
1104.846	n/a	PROB	552423	n/a	LTP324	ltpFR2	0	n/a	n/a	n/a	4	16	5	4	7
1106.448	n/a	PROB	553224	n/a	LTP324	ltpFR2	0	n/a	n/a	n/a	4	11	1	9	1
1107.5	n/a	PROB	553750	n/a	LTP324	ltpFR2	0	n/a	n/a	n/a	4	19	3	9	7
1108.95	n/a	PROB	554475	n/a	LTP324	ltpFR2	0	n/a	n/a	n/a	4	16	3	4	9
1110.4	n/a	PROB	555200	n/a	LTP324	ltpFR2	0	n/a	n/a	n/a	4	16	7	3	6
1111.602	n/a	PROB	555801	n/a	LTP324	ltpFR2	0	n/a	n/a	n/a	4	7	2	4	1
1112.854	n/a	PROB	556427	n/a	LTP324	ltpFR2	0	n/a	n/a	n/a	4	14	2	9	3
1114.988	n/a	PROB	557494	n/a	LTP324	ltpFR2	0	n/a	n/a	n/a	4	9	2	4	3
1116.372	n/a	PROB	558186	n/a	LTP324	ltpFR2	0	n/a	n/a	n/a	4	19	9	8	2
1117.49	n/a	PROB	558745	n/a	LTP324	ltpFR2	0	n/a	n/a	n/a	4	12	5	4	3
1119.558	n/a	PROB	559779	n/a	LTP324	ltpFR2	0	n/a	n/a	n/a	4	9	5	3	1
1123.342	n/a	STOP	561671	n/a	LTP324	ltpFR2	0	n/a	n/a	n/a	4	n/a	n/a	n/a	n/a
1124.478	n/a	WORD	562239	wordpools/wasnorm_wordpool_576.txt	LTP324	ltpFR2	0	3	WAITRESS	1581	n/a	n/a	0	0	0
1126.964	n/a	WORD	563482	wordpools/wasnorm_wordpool_576.txt	LTP324	ltpFR2	0	3	TYPIST	1532	n/a	n/a	0	0	0
1129.684	n/a	WORD	564842	wordpools/wasnorm_wordpool_576.txt	LTP324	ltpFR2	0	3	SNAKE	1333	n/a	n/a	0	0	0
1132.152	n/a	WORD	566076	wordpools/wasnorm_wordpool_576.txt	LTP324	ltpFR2	0	3	THREAD	1460	n/a	n/a	0	0	0
1134.638	n/a	WORD	567319	wordpools/wasnorm_wordpool_576.txt	LTP324	ltpFR2	0	3	SEAL	1262	n/a	n/a	0	0	0
1137.238	n/a	WORD	568619	wordpools/wasnorm_wordpool_576.txt	LTP324	ltpFR2	0	3	PERCH	1048	n/a	n/a	0	0	0
1139.884	n/a	WORD	569942	wordpools/wasnorm_wordpool_576.txt	LTP324	ltpFR2	0	3	PENGUIN	1044	n/a	n/a	0	0	0
1142.42	n/a	WORD	571210	wordpools/wasnorm_wordpool_576.txt	LTP324	ltpFR2	0	3	GRAVE	658	n/a	n/a	0	0	0
1144.878	n/a	WORD	572439	wordpools/wasnorm_wordpool_576.txt	LTP324	ltpFR2	0	3	LAMP	798	n/a	n/a	0	0	0
1147.424	n/a	WORD	573712	wordpools/wasnorm_wordpool_576.txt	LTP324	ltpFR2	0	3	FOOT	590	n/a	n/a	0	0	0
1149.848	n/a	WORD	574924	wordpools/wasnorm_wordpool_576.txt	LTP324	ltpFR2	0	3	POLICE	1098	n/a	n/a	0	0	0
1152.646	n/a	WORD	576323	wordpools/wasnorm_wordpool_576.txt	LTP324	ltpFR2	0	3	LUNCH	849	n/a	n/a	0	0	0
1155.096	n/a	WORD	577548	wordpools/wasnorm_wordpool_576.txt	LTP324	ltpFR2	0	3	SCALLOP	1242	n/a	n/a	0	0	0
1157.638	n/a	WORD	578819	wordpools/wasnorm_wordpool_576.txt	LTP324	ltpFR2	0	3	LAKE	796	n/a	n/a	0	0	0
1160.184	n/a	WORD	580092	wordpools/wasnorm_wordpool_576.txt	LTP324	ltpFR2	0	3	HAWK	692	n/a	n/a	0	0	0
1162.808	n/a	WORD	581404	wordpools/wasnorm_wordpool_576.txt	LTP324	ltpFR2	0	3	POSSUM	1112	n/a	n/a	0	0	0
1165.54	n/a	WORD	582770	wordpools/wasnorm_wordpool_576.txt	LTP324	ltpFR2	0	3	MAMMAL	861	n/a	n/a	0	0	0
1168.24	n/a	WORD	584120	wordpools/wasnorm_wordpool_576.txt	LTP324	ltpFR2	0	3	OYSTER	995	n/a	n/a	0	0	0
1170.798	n/a	WORD	585399	wordpools/wasnorm_wordpool_576.txt	LTP324	ltpFR2	0	3	CAMEL	223	n/a	n/a	0	0	0
1173.234	n/a	WORD	586617	wordpools/wasnorm_wordpool_576.txt	LTP324	ltpFR2	0	3	LASER	801	n/a	n/a	0	0	0
1175.932	n/a	WORD	587966	wordpools/wasnorm_wordpool_576.txt	LTP324	ltpFR2	0	3	BUGGY	188	n/a	n/a	0	0	0
1178.416	n/a	WORD	589208	wordpools/wasnorm_wordpool_576.txt	LTP324	ltpFR2	0	3	INMATE	738	n/a	n/a	0	0	0
1180.97	n/a	WORD	590485	wordpools/wasnorm_wordpool_576.txt	LTP324	ltpFR2	0	3	OUTLAW	989	n/a	n/a	0	0	0
1183.406	n/a	WORD	591703	wordpools/wasnorm_wordpool_576.txt	LTP324	ltpFR2	0	3	FRECKLE	602	n/a	n/a	0	0	0
1185.01	n/a	START	592505	n/a	LTP324	ltpFR2	0	n/a	n/a	n/a	5	n/a	n/a	n/a	n/a
1185.994	n/a	DISTRACTOR	592997	n/a	LTP324	ltpFR2	0	3	n/a	n/a	n/a	n/a	0	0	0
1186.006	n/a	PROB	593003	n/a	LTP324	ltpFR2	0	n/a	n/a	n/a	5	11	3	1	7
1187.106	n/a	PROB	593553	n/a	LTP324	ltpFR2	0	n/a	n/a	n/a	5	14	3	6	5
1188.68	n/a	PROB	594340	n/a	LTP324	ltpFR2	0	n/a	n/a	n/a	5	17	4	5	8
1190.094	n/a	PROB	595047	n/a	LTP324	ltpFR2	0	n/a	n/a	n/a	5	9	2	4	3
1191.232	n/a	PROB	595616	n/a	LTP324	ltpFR2	0	n/a	n/a	n/a	5	16	6	3	7
1193.232	n/a	PROB	596616	n/a	LTP324	ltpFR2	0	n/a	n/a	n/a	5	18	8	7	3
1194.53	n/a	PROB	597265	n/a	LTP324	ltpFR2	0	n/a	n/a	n/a	5	17	4	7	6
1196.248	n/a	PROB	598124	n/a	LTP324	ltpFR2	0	n/a	n/a	n/a	5	17	7	2	8
1198.266	n/a	PROB	599133	n/a	LTP324	ltpFR2	0	n/a	n/a	n/a	5	17	8	6	3
1199.9	n/a	PROB	599950	n/a	LTP324	ltpFR2	0	n/a	n/a	n/a	5	20	8	9	3
1201.588	n/a	PROB	600794	n/a	LTP324	ltpFR2	0	n/a	n/a	n/a	5	14	2	5	7
1203.104	n/a	PROB	601552	n/a	LTP324	ltpFR2	0	n/a	n/a	n/a	5	15	4	8	3
1204.222	n/a	PROB	602111	n/a	LTP324	ltpFR2	0	n/a	n/a	n/a	5	13	7	3	3
1205.674	n/a	PROB	602837	n/a	LTP324	ltpFR2	0	n/a	n/a	n/a	5	9	4	3	2
1206.774	n/a	PROB	603387	n/a	LTP324	ltpFR2	0	n/a	n/a	n/a	5	10	7	1	2
1208.176	n/a	STOP	604088	n/a	LTP324	ltpFR2	0	n/a	n/a	n/a	5	n/a	n/a	n/a	n/a
1210.814	n/a	REC_START	605407	n/a	LTP324	ltpFR2	0	3	n/a	n/a	n/a	n/a	0	0	0
1214.96	n/a	REC_WORD	607480	wordpools/wasnorm_wordpool_576.txt	LTP324	ltpFR2	0	3	WAITRESS	1581	n/a	n/a	0	0	0
1216.348	n/a	REC_WORD	608174	wordpools/wasnorm_wordpool_576.txt	LTP324	ltpFR2	0	3	CAMEL	223	n/a	n/a	0	0	0
1217.484	n/a	REC_WORD	608742	wordpools/wasnorm_wordpool_576.txt	LTP324	ltpFR2	0	3	PERCH	1048	n/a	n/a	0	0	0
1218.73	n/a	REC_WORD	609365	wordpools/wasnorm_wordpool_576.txt	LTP324	ltpFR2	0	3	PENGUIN	1044	n/a	n/a	0	0	0
1221.074	n/a	REC_WORD	610537	wordpools/wasnorm_wordpool_576.txt	LTP324	ltpFR2	0	3	POLICE	1098	n/a	n/a	0	0	0
1281.198	n/a	REC_WORD	640599	wordpools/wasnorm_wordpool_576.txt	LTP324	ltpFR2	0	3	TYPIST	1532	n/a	n/a	0	0	0
1301.234	n/a	DISTRACTOR	650617	n/a	LTP324	ltpFR2	0	4	n/a	n/a	n/a	n/a	0	0	0
1301.234	n/a	START	650617	n/a	LTP324	ltpFR2	0	n/a	n/a	n/a	6	n/a	n/a	n/a	n/a
1301.248	n/a	PROB	650624	n/a	LTP324	ltpFR2	0	n/a	n/a	n/a	6	13	3	3	7
1302.35	n/a	PROB	651175	n/a	LTP324	ltpFR2	0	n/a	n/a	n/a	6	18	8	1	9
1303.886	n/a	PROB	651943	n/a	LTP324	ltpFR2	0	n/a	n/a	n/a	6	14	6	3	5
1305.67	n/a	PROB	652835	n/a	LTP324	ltpFR2	0	n/a	n/a	n/a	6	16	3	8	5
1306.97	n/a	PROB	653485	n/a	LTP324	ltpFR2	0	n/a	n/a	n/a	6	13	6	2	5
1309.004	n/a	PROB	654502	n/a	LTP324	ltpFR2	0	n/a	n/a	n/a	6	19	2	7	7
1311.024	n/a	PROB	655512	n/a	LTP324	ltpFR2	0	n/a	n/a	n/a	6	16	8	1	7
1312.758	n/a	PROB	656379	n/a	LTP324	ltpFR2	0	n/a	n/a	n/a	6	21	9	5	7
1314.058	n/a	PROB	657029	n/a	LTP324	ltpFR2	0	n/a	n/a	n/a	6	15	6	3	6
1315.16	n/a	PROB	657580	n/a	LTP324	ltpFR2	0	n/a	n/a	n/a	6	13	4	7	2
1316.862	n/a	PROB	658431	n/a	LTP324	ltpFR2	0	n/a	n/a	n/a	6	17	5	4	8
1317.996	n/a	PROB	658998	n/a	LTP324	ltpFR2	0	n/a	n/a	n/a	6	15	1	9	5
1319.13	n/a	PROB	659565	n/a	LTP324	ltpFR2	0	n/a	n/a	n/a	6	12	8	4	1
1320.296	n/a	PROB	660148	n/a	LTP324	ltpFR2	0	n/a	n/a	n/a	6	20	5	9	6
1322.266	n/a	PROB	661133	n/a	LTP324	ltpFR2	0	n/a	n/a	n/a	6	14	5	6	3
1323.85	n/a	STOP	661925	n/a	LTP324	ltpFR2	0	n/a	n/a	n/a	6	n/a	n/a	n/a	n/a
1326.17	n/a	WORD	663085	wordpools/wasnorm_wordpool_576.txt	LTP324	ltpFR2	0	4	CREATURE	403	n/a	n/a	0	0	0
1328.906	n/a	WORD	664453	wordpools/wasnorm_wordpool_576.txt	LTP324	ltpFR2	0	4	SHELTER	1282	n/a	n/a	0	0	0
1331.34	n/a	WORD	665670	wordpools/wasnorm_wordpool_576.txt	LTP324	ltpFR2	0	4	SKIRT	1319	n/a	n/a	0	0	0
1334.142	n/a	WORD	667071	wordpools/wasnorm_wordpool_576.txt	LTP324	ltpFR2	0	4	SWITCH	1422	n/a	n/a	0	0	0
1336.86	n/a	WORD	668430	wordpools/wasnorm_wordpool_576.txt	LTP324	ltpFR2	0	4	HOSTESS	723	n/a	n/a	0	0	0
1339.58	n/a	WORD	669790	wordpools/wasnorm_wordpool_576.txt	LTP324	ltpFR2	0	4	COSTUME	383	n/a	n/a	0	0	0
1342.132	n/a	WORD	671066	wordpools/wasnorm_wordpool_576.txt	LTP324	ltpFR2	0	4	MARS	873	n/a	n/a	0	0	0
1344.89	n/a	WORD	672445	wordpools/wasnorm_wordpool_576.txt	LTP324	ltpFR2	0	4	PLUTO	1092	n/a	n/a	0	0	0
1347.604	n/a	WORD	673802	wordpools/wasnorm_wordpool_576.txt	LTP324	ltpFR2	0	4	PALACE	1006	n/a	n/a	0	0	0
1350.414	n/a	WORD	675207	wordpools/wasnorm_wordpool_576.txt	LTP324	ltpFR2	0	4	ELBOW	520	n/a	n/a	0	0	0
1352.908	n/a	WORD	676454	wordpools/wasnorm_wordpool_576.txt	LTP324	ltpFR2	0	4	TWIG	1527	n/a	n/a	0	0	0
1355.652	n/a	WORD	677826	wordpools/wasnorm_wordpool_576.txt	LTP324	ltpFR2	0	4	BEAVER	109	n/a	n/a	0	0	0
1358.37	n/a	WORD	679185	wordpools/wasnorm_wordpool_576.txt	LTP324	ltpFR2	0	4	MUSTARD	935	n/a	n/a	0	0	0
1361.114	n/a	WORD	680557	wordpools/wasnorm_wordpool_576.txt	LTP324	ltpFR2	0	4	SCARF	1246	n/a	n/a	0	0	0
1363.574	n/a	WORD	681787	wordpools/wasnorm_wordpool_576.txt	LTP324	ltpFR2	0	4	SUITCASE	1403	n/a	n/a	0	0	0
1366.202	n/a	WORD	683101	wordpools/wasnorm_wordpool_576.txt	LTP324	ltpFR2	0	4	PEANUT	1032	n/a	n/a	0	0	0
1368.83	n/a	WORD	684415	wordpools/wasnorm_wordpool_576.txt	LTP324	ltpFR2	0	4	CHIPMUNK	304	n/a	n/a	0	0	0
1371.304	n/a	WORD	685652	wordpools/wasnorm_wordpool_576.txt	LTP324	ltpFR2	0	4	PRINCESS	1125	n/a	n/a	0	0	0
1374.09	n/a	WORD	687045	wordpools/wasnorm_wordpool_576.txt	LTP324	ltpFR2	0	4	STAMP	1370	n/a	n/a	0	0	0
1376.802	n/a	WORD	688401	wordpools/wasnorm_wordpool_576.txt	LTP324	ltpFR2	0	4	ARMY	39	n/a	n/a	0	0	0
1379.26	n/a	WORD	689630	wordpools/wasnorm_wordpool_576.txt	LTP324	ltpFR2	0	4	TABLET	1427	n/a	n/a	0	0	0
1381.822	n/a	WORD	690911	wordpools/wasnorm_wordpool_576.txt	LTP324	ltpFR2	0	4	SNACK	1331	n/a	n/a	0	0	0
1384.448	n/a	WORD	692224	wordpools/wasnorm_wordpool_576.txt	LTP324	ltpFR2	0	4	HORSE	719	n/a	n/a	0	0	0
1387.26	n/a	WORD	693630	wordpools/wasnorm_wordpool_576.txt	LTP324	ltpFR2	0	4	BOX	159	n/a	n/a	0	0	0
1388.868	n/a	START	694434	n/a	LTP324	ltpFR2	0	n/a	n/a	n/a	7	n/a	n/a	n/a	n/a
1389.722	n/a	DISTRACTOR	694861	n/a	LTP324	ltpFR2	0	4	n/a	n/a	n/a	n/a	0	0	0
1389.73	n/a	PROB	694865	n/a	LTP324	ltpFR2	0	n/a	n/a	n/a	7	16	6	3	7
1391.118	n/a	PROB	695559	n/a	LTP324	ltpFR2	0	n/a	n/a	n/a	7	18	3	7	8
1392.304	n/a	PROB	696152	n/a	LTP324	ltpFR2	0	n/a	n/a	n/a	7	16	7	3	6
1393.706	n/a	PROB	696853	n/a	LTP324	ltpFR2	0	n/a	n/a	n/a	7	13	7	3	3
1394.556	n/a	PROB	697278	n/a	LTP324	ltpFR2	0	n/a	n/a	n/a	7	5	2	2	1
1395.306	n/a	PROB	697653	n/a	LTP324	ltpFR2	0	n/a	n/a	n/a	7	11	3	6	2
1396.742	n/a	PROB	698371	n/a	LTP324	ltpFR2	0	n/a	n/a	n/a	7	12	7	3	2
1398.758	n/a	PROB	699379	n/a	LTP324	ltpFR2	0	n/a	n/a	n/a	7	163	5	2	9
1400.36	n/a	PROB	700180	n/a	LTP324	ltpFR2	0	n/a	n/a	n/a	7	19	9	1	9
1402.244	n/a	PROB	701122	n/a	LTP324	ltpFR2	0	n/a	n/a	n/a	7	13	5	3	5
1404.496	n/a	PROB	702248	n/a	LTP324	ltpFR2	0	n/a	n/a	n/a	7	9	1	1	7
1405.598	n/a	PROB	702799	n/a	LTP324	ltpFR2	0	n/a	n/a	n/a	7	20	9	5	6
1407.098	n/a	PROB	703549	n/a	LTP324	ltpFR2	0	n/a	n/a	n/a	7	2	9	7	9
1408.684	n/a	PROB	704342	n/a	LTP324	ltpFR2	0	n/a	n/a	n/a	7	20	8	3	9
1411.46	n/a	STOP	705730	n/a	LTP324	ltpFR2	0	n/a	n/a	n/a	7	n/a	n/a	n/a	n/a
1414.788	n/a	REC_START	707394	n/a	LTP324	ltpFR2	0	4	n/a	n/a	n/a	n/a	0	0	0
1416.968	n/a	REC_WORD	708484	wordpools/wasnorm_wordpool_576.txt	LTP324	ltpFR2	0	4	PRINCESS	1125	n/a	n/a	0	0	0
1421.782	n/a	REC_WORD	710891	wordpools/wasnorm_wordpool_576.txt	LTP324	ltpFR2	0	4	SNACK	1331	n/a	n/a	0	0	0
1425.276	n/a	REC_WORD	712638	wordpools/wasnorm_wordpool_576.txt	LTP324	ltpFR2	0	4	BEAVER	109	n/a	n/a	0	0	0
1426.856	n/a	REC_WORD	713428	wordpools/wasnorm_wordpool_576.txt	LTP324	ltpFR2	0	4	TWIG	1527	n/a	n/a	0	0	0
1429.02	n/a	REC_WORD	714510	wordpools/wasnorm_wordpool_576.txt	LTP324	ltpFR2	0	4	PLUTO	1092	n/a	n/a	0	0	0
1430.488	n/a	REC_WORD	715244	wordpools/wasnorm_wordpool_576.txt	LTP324	ltpFR2	0	4	MARS	873	n/a	n/a	0	0	0
1465.638	n/a	REC_WORD	732819	wordpools/wasnorm_wordpool_576.txt	LTP324	ltpFR2	0	4	HORSE	719	n/a	n/a	0	0	0
1515.916	n/a	WORD	757958	wordpools/wasnorm_wordpool_576.txt	LTP324	ltpFR2	0	5	TURTLE	1522	n/a	n/a	0	0	0
1518.37	n/a	WORD	759185	wordpools/wasnorm_wordpool_576.txt	LTP324	ltpFR2	0	5	SHIRT	1287	n/a	n/a	0	0	0
1520.888	n/a	WORD	760444	wordpools/wasnorm_wordpool_576.txt	LTP324	ltpFR2	0	5	XEROX	1628	n/a	n/a	0	0	0
1523.59	n/a	WORD	761795	wordpools/wasnorm_wordpool_576.txt	LTP324	ltpFR2	0	5	SPACE	1345	n/a	n/a	0	0	0
1526.176	n/a	WORD	763088	wordpools/wasnorm_wordpool_576.txt	LTP324	ltpFR2	0	5	PRIMATE	1123	n/a	n/a	0	0	0
1528.944	n/a	WORD	764472	wordpools/wasnorm_wordpool_576.txt	LTP324	ltpFR2	0	5	COLONEL	348	n/a	n/a	0	0	0
1531.664	n/a	WORD	765832	wordpools/wasnorm_wordpool_576.txt	LTP324	ltpFR2	0	5	FLEET	578	n/a	n/a	0	0	0
1534.398	n/a	WORD	767199	wordpools/wasnorm_wordpool_576.txt	LTP324	ltpFR2	0	5	UNCLE	1536	n/a	n/a	0	0	0
1536.866	n/a	WORD	768433	wordpools/wasnorm_wordpool_576.txt	LTP324	ltpFR2	0	5	PLATE	1086	n/a	n/a	0	0	0
1539.606	n/a	WORD	769803	wordpools/wasnorm_wordpool_576.txt	LTP324	ltpFR2	0	5	ATOM	55	n/a	n/a	0	0	0
1542.07	n/a	WORD	771035	wordpools/wasnorm_wordpool_576.txt	LTP324	ltpFR2	0	5	RELISH	1183	n/a	n/a	0	0	0
1544.772	n/a	WORD	772386	wordpools/wasnorm_wordpool_576.txt	LTP324	ltpFR2	0	5	REBEL	1172	n/a	n/a	0	0	0
1547.228	n/a	WORD	773614	wordpools/wasnorm_wordpool_576.txt	LTP324	ltpFR2	0	5	FLAG	573	n/a	n/a	0	0	0
1549.976	n/a	WORD	774988	wordpools/wasnorm_wordpool_576.txt	LTP324	ltpFR2	0	5	JURY	766	n/a	n/a	0	0	0
1552.68	n/a	WORD	776340	wordpools/wasnorm_wordpool_576.txt	LTP324	ltpFR2	0	5	SHOULDER	1294	n/a	n/a	0	0	0
1555.464	n/a	WORD	777732	wordpools/wasnorm_wordpool_576.txt	LTP324	ltpFR2	0	5	SCALPEL	1243	n/a	n/a	0	0	0
1558.15	n/a	WORD	779075	wordpools/wasnorm_wordpool_576.txt	LTP324	ltpFR2	0	5	DANCER	437	n/a	n/a	0	0	0
1560.786	n/a	WORD	780393	wordpools/wasnorm_wordpool_576.txt	LTP324	ltpFR2	0	5	LADY	794	n/a	n/a	0	0	0
1563.27	n/a	WORD	781635	wordpools/wasnorm_wordpool_576.txt	LTP324	ltpFR2	0	5	PATIENT	1024	n/a	n/a	0	0	0
1565.822	n/a	WORD	782911	wordpools/wasnorm_wordpool_576.txt	LTP324	ltpFR2	0	5	KETCHUP	771	n/a	n/a	0	0	0
1568.48	n/a	WORD	784240	wordpools/wasnorm_wordpool_576.txt	LTP324	ltpFR2	0	5	BEAKER	104	n/a	n/a	0	0	0
1571.044	n/a	WORD	785522	wordpools/wasnorm_wordpool_576.txt	LTP324	ltpFR2	0	5	CUPBOARD	425	n/a	n/a	0	0	0
1573.752	n/a	WORD	786876	wordpools/wasnorm_wordpool_576.txt	LTP324	ltpFR2	0	5	APRON	35	n/a	n/a	0	0	0
1576.448	n/a	WORD	788224	wordpools/wasnorm_wordpool_576.txt	LTP324	ltpFR2	0	5	JOURNAL	760	n/a	n/a	0	0	0
1578.056	n/a	START	789028	n/a	LTP324	ltpFR2	0	n/a	n/a	n/a	8	n/a	n/a	n/a	n/a
1579.146	n/a	DISTRACTOR	789573	n/a	LTP324	ltpFR2	0	5	n/a	n/a	n/a	n/a	0	0	0
1579.156	n/a	PROB	789578	n/a	LTP324	ltpFR2	0	n/a	n/a	n/a	8	15	3	9	2
1581.134	n/a	PROB	790567	n/a	LTP324	ltpFR2	0	n/a	n/a	n/a	8	19	4	6	9
1582.986	n/a	PROB	791493	n/a	LTP324	ltpFR2	0	n/a	n/a	n/a	8	14	8	4	2
1584.52	n/a	PROB	792260	n/a	LTP324	ltpFR2	0	n/a	n/a	n/a	8	17	7	9	1
1585.752	n/a	PROB	792876	n/a	LTP324	ltpFR2	0	n/a	n/a	n/a	8	17	9	2	6
1587.74	n/a	PROB	793870	n/a	LTP324	ltpFR2	0	n/a	n/a	n/a	8	13	2	3	8
1589.456	n/a	PROB	794728	n/a	LTP324	ltpFR2	0	n/a	n/a	n/a	8	19	6	5	8
1590.924	n/a	PROB	795462	n/a	LTP324	ltpFR2	0	n/a	n/a	n/a	8	21	7	6	7
1592.56	n/a	PROB	796280	n/a	LTP324	ltpFR2	0	n/a	n/a	n/a	8	17	1	5	8
1594.36	n/a	PROB	797180	n/a	LTP324	ltpFR2	0	n/a	n/a	n/a	8	11	6	1	4
1595.946	n/a	PROB	797973	n/a	LTP324	ltpFR2	0	n/a	n/a	n/a	8	17	7	4	6
1597.196	n/a	PROB	798598	n/a	LTP324	ltpFR2	0	n/a	n/a	n/a	8	27	8	9	9
1602.054	n/a	STOP	801027	n/a	LTP324	ltpFR2	0	n/a	n/a	n/a	8	n/a	n/a	n/a	n/a
1603.82	n/a	REC_START	801910	n/a	LTP324	ltpFR2	0	5	n/a	n/a	n/a	n/a	0	0	0
1605.526	n/a	REC_WORD	802763	wordpools/wasnorm_wordpool_576.txt	LTP324	ltpFR2	0	5	ATOM	55	n/a	n/a	0	0	0
1607.902	n/a	REC_WORD	803951	wordpools/wasnorm_wordpool_576.txt	LTP324	ltpFR2	0	5	DANCER	437	n/a	n/a	0	0	0
1609.042	n/a	REC_WORD	804521	wordpools/wasnorm_wordpool_576.txt	LTP324	ltpFR2	0	5	LADY	794	n/a	n/a	0	0	0
1612.824	n/a	REC_WORD	806412	wordpools/wasnorm_wordpool_576.txt	LTP324	ltpFR2	0	5	RELISH	1183	n/a	n/a	0	0	0
1613.856	n/a	REC_WORD	806928	wordpools/wasnorm_wordpool_576.txt	LTP324	ltpFR2	0	5	SOLDIER	1344	n/a	n/a	0	0	0
1616.038	n/a	REC_WORD	808019	wordpools/wasnorm_wordpool_576.txt	LTP324	ltpFR2	0	5	COLONEL	348	n/a	n/a	0	0	0
1617.032	n/a	REC_WORD	808516	wordpools/wasnorm_wordpool_576.txt	LTP324	ltpFR2	0	5	FLEET	578	n/a	n/a	0	0	0
1709.602	n/a	WORD	854801	wordpools/wasnorm_wordpool_576.txt	LTP324	ltpFR2	0	6	BEEF	113	n/a	n/a	0	0	0
1712.186	n/a	WORD	856093	wordpools/wasnorm_wordpool_576.txt	LTP324	ltpFR2	0	6	WITNESS	1618	n/a	n/a	0	0	0
1715.006	n/a	WORD	857503	wordpools/wasnorm_wordpool_576.txt	LTP324	ltpFR2	0	6	LION	827	n/a	n/a	0	0	0
1717.524	n/a	WORD	858762	wordpools/wasnorm_wordpool_576.txt	LTP324	ltpFR2	0	6	PANTHER	1009	n/a	n/a	0	0	0
1720.076	n/a	WORD	860038	wordpools/wasnorm_wordpool_576.txt	LTP324	ltpFR2	0	6	BADGE	68	n/a	n/a	0	0	0
1722.896	n/a	WORD	861448	wordpools/wasnorm_wordpool_576.txt	LTP324	ltpFR2	0	6	ATLAS	53	n/a	n/a	0	0	0
1725.498	n/a	WORD	862749	wordpools/wasnorm_wordpool_576.txt	LTP324	ltpFR2	0	6	WORLD	1622	n/a	n/a	0	0	0
1728.032	n/a	WORD	864016	wordpools/wasnorm_wordpool_576.txt	LTP324	ltpFR2	0	6	DINER	467	n/a	n/a	0	0	0
1730.768	n/a	WORD	865384	wordpools/wasnorm_wordpool_576.txt	LTP324	ltpFR2	0	6	VIRUS	1572	n/a	n/a	0	0	0
1733.27	n/a	WORD	866635	wordpools/wasnorm_wordpool_576.txt	LTP324	ltpFR2	0	6	COURSE	390	n/a	n/a	0	0	0
1735.888	n/a	WORD	867944	wordpools/wasnorm_wordpool_576.txt	LTP324	ltpFR2	0	6	WRENCH	1625	n/a	n/a	0	0	0
1738.474	n/a	WORD	869237	wordpools/wasnorm_wordpool_576.txt	LTP324	ltpFR2	0	6	SHOVEL	1295	n/a	n/a	0	0	0
1741.024	n/a	WORD	870512	wordpools/wasnorm_wordpool_576.txt	LTP324	ltpFR2	0	6	STREAM	1392	n/a	n/a	0	0	0
1743.678	n/a	WORD	871839	wordpools/wasnorm_wordpool_576.txt	LTP324	ltpFR2	0	6	VAGRANT	1544	n/a	n/a	0	0	0
1746.498	n/a	WORD	873249	wordpools/wasnorm_wordpool_576.txt	LTP324	ltpFR2	0	6	LIZARD	834	n/a	n/a	0	0	0
1749.166	n/a	WORD	874583	wordpools/wasnorm_wordpool_576.txt	LTP324	ltpFR2	0	6	SHRUB	1299	n/a	n/a	0	0	0
1751.868	n/a	WORD	875934	wordpools/wasnorm_wordpool_576.txt	LTP324	ltpFR2	0	6	BARREL	91	n/a	n/a	0	0	0
1754.336	n/a	WORD	877168	wordpools/wasnorm_wordpool_576.txt	LTP324	ltpFR2	0	6	CRICKET	408	n/a	n/a	0	0	0
1756.804	n/a	WORD	878402	wordpools/wasnorm_wordpool_576.txt	LTP324	ltpFR2	0	6	OZONE	996	n/a	n/a	0	0	0
1759.508	n/a	WORD	879754	wordpools/wasnorm_wordpool_576.txt	LTP324	ltpFR2	0	6	PAIL	1002	n/a	n/a	0	0	0
1762.126	n/a	WORD	881063	wordpools/wasnorm_wordpool_576.txt	LTP324	ltpFR2	0	6	MILDEW	893	n/a	n/a	0	0	0
1764.828	n/a	WORD	882414	wordpools/wasnorm_wordpool_576.txt	LTP324	ltpFR2	0	6	RADISH	1158	n/a	n/a	0	0	0
1767.596	n/a	WORD	883798	wordpools/wasnorm_wordpool_576.txt	LTP324	ltpFR2	0	6	STOMACH	1384	n/a	n/a	0	0	0
1770.266	n/a	WORD	885133	wordpools/wasnorm_wordpool_576.txt	LTP324	ltpFR2	0	6	CHAMPAGNE	278	n/a	n/a	0	0	0
1771.87	n/a	START	885935	n/a	LTP324	ltpFR2	0	n/a	n/a	n/a	9	n/a	n/a	n/a	n/a
1772.908	n/a	DISTRACTOR	886454	n/a	LTP324	ltpFR2	0	6	n/a	n/a	n/a	n/a	0	0	0
1772.918	n/a	PROB	886459	n/a	LTP324	ltpFR2	0	n/a	n/a	n/a	9	20	8	5	7
1776.252	n/a	PROB	888126	n/a	LTP324	ltpFR2	0	n/a	n/a	n/a	9	18	9	1	8
1777.438	n/a	PROB	888719	n/a	LTP324	ltpFR2	0	n/a	n/a	n/a	9	7	1	3	3
1778.622	n/a	PROB	889311	n/a	LTP324	ltpFR2	0	n/a	n/a	n/a	9	20	9	5	6
1780.124	n/a	PROB	890062	n/a	LTP324	ltpFR2	0	n/a	n/a	n/a	9	18	3	9	6
1781.624	n/a	PROB	890812	n/a	LTP324	ltpFR2	0	n/a	n/a	n/a	9	17	4	6	7
1784.024	n/a	PROB	892012	n/a	LTP324	ltpFR2	0	n/a	n/a	n/a	9	26	9	9	8
1786.076	n/a	PROB	893038	n/a	LTP324	ltpFR2	0	n/a	n/a	n/a	9	13	3	1	8
1787.394	n/a	PROB	893697	n/a	LTP324	ltpFR2	0	n/a	n/a	n/a	9	15	7	1	6
1788.664	n/a	PROB	894332	n/a	LTP324	ltpFR2	0	n/a	n/a	n/a	9	21	4	8	9
1791.164	n/a	PROB	895582	n/a	LTP324	ltpFR2	0	n/a	n/a	n/a	9	11	6	3	2
1793.198	n/a	PROB	896599	n/a	LTP324	ltpFR2	0	n/a	n/a	n/a	9	12	6	3	3
1794.116	n/a	PROB	897058	n/a	LTP324	ltpFR2	0	n/a	n/a	n/a	9	17	2	6	6
1795.546	n/a	STOP	897773	n/a	LTP324	ltpFR2	0	n/a	n/a	n/a	9	n/a	n/a	n/a	n/a
1797.754	n/a	REC_START	898877	n/a	LTP324	ltpFR2	0	6	n/a	n/a	n/a	n/a	0	0	0
1799.71	n/a	REC_WORD	899855	wordpools/wasnorm_wordpool_576.txt	LTP324	ltpFR2	0	6	RADISH	1158	n/a	n/a	0	0	0
1800.95	n/a	REC_WORD	900475	wordpools/wasnorm_wordpool_576.txt	LTP324	ltpFR2	0	6	VIRUS	1572	n/a	n/a	0	0	0
1802.604	n/a	REC_WORD	901302	wordpools/wasnorm_wordpool_576.txt	LTP324	ltpFR2	0	6	BEEF	113	n/a	n/a	0	0	0
1803.932	n/a	REC_WORD	901966	wordpools/wasnorm_wordpool_576.txt	LTP324	ltpFR2	0	6	LION	827	n/a	n/a	0	0	0
1805.19	n/a	REC_WORD	902595	wordpools/wasnorm_wordpool_576.txt	LTP324	ltpFR2	0	6	PANTHER	1009	n/a	n/a	0	0	0
1808.818	n/a	REC_WORD	904409	wordpools/wasnorm_wordpool_576.txt	LTP324	ltpFR2	0	6	DINER	467	n/a	n/a	0	0	0
1842.558	n/a	REC_WORD	921279	wordpools/wasnorm_wordpool_576.txt	LTP324	ltpFR2	0	6	STOMACH	1384	n/a	n/a	0	0	0
1854.176	n/a	REC_WORD	927088	wordpools/wasnorm_wordpool_576.txt	LTP324	ltpFR2	0	6	WRENCH	1625	n/a	n/a	0	0	0
1858.052	n/a	REC_WORD	929026	wordpools/wasnorm_wordpool_576.txt	LTP324	ltpFR2	0	6	VAGRANT	1544	n/a	n/a	0	0	0
1859.352	n/a	REC_WORD	929676	wordpools/wasnorm_wordpool_576.txt	LTP324	ltpFR2	0	6	STREAM	1392	n/a	n/a	0	0	0
1867.224	n/a	REC_WORD	933612	wordpools/wasnorm_wordpool_576.txt	LTP324	ltpFR2	0	6	SHOVEL	1295	n/a	n/a	0	0	0
1888.17	n/a	DISTRACTOR	944085	n/a	LTP324	ltpFR2	0	7	n/a	n/a	n/a	n/a	0	0	0
1888.17	n/a	START	944085	n/a	LTP324	ltpFR2	0	n/a	n/a	n/a	10	n/a	n/a	n/a	n/a
1888.184	n/a	PROB	944092	n/a	LTP324	ltpFR2	0	n/a	n/a	n/a	10	13	2	3	8
1889.708	n/a	PROB	944854	n/a	LTP324	ltpFR2	0	n/a	n/a	n/a	10	17	7	3	6
1891.604	n/a	PROB	945802	n/a	LTP324	ltpFR2	0	n/a	n/a	n/a	10	19	5	9	5
1893.194	n/a	PROB	946597	n/a	LTP324	ltpFR2	0	n/a	n/a	n/a	10	12	3	7	2
1894.212	n/a	PROB	947106	n/a	LTP324	ltpFR2	0	n/a	n/a	n/a	10	15	7	4	4
1895.498	n/a	PROB	947749	n/a	LTP324	ltpFR2	0	n/a	n/a	n/a	10	17	7	6	4
1896.78	n/a	PROB	948390	n/a	LTP324	ltpFR2	0	n/a	n/a	n/a	10	13	3	9	1
1898.65	n/a	PROB	949325	n/a	LTP324	ltpFR2	0	n/a	n/a	n/a	10	14	8	4	2
1900.4	n/a	PROB	950200	n/a	LTP324	ltpFR2	0	n/a	n/a	n/a	10	11	1	2	8
1901.618	n/a	PROB	950809	n/a	LTP324	ltpFR2	0	n/a	n/a	n/a	10	114	1	5	8
1902.786	n/a	PROB	951393	n/a	LTP324	ltpFR2	0	n/a	n/a	n/a	10	22	9	4	9
1904.5	n/a	PROB	952250	n/a	LTP324	ltpFR2	0	n/a	n/a	n/a	10	11	2	6	3
1906.386	n/a	PROB	953193	n/a	LTP324	ltpFR2	0	n/a	n/a	n/a	10	11	5	4	2
1907.52	n/a	PROB	953760	n/a	LTP324	ltpFR2	0	n/a	n/a	n/a	10	17	5	4	8
1908.724	n/a	PROB	954362	n/a	LTP324	ltpFR2	0	n/a	n/a	n/a	10	17	8	1	8
1909.856	n/a	PROB	954928	n/a	LTP324	ltpFR2	0	n/a	n/a	n/a	10	21	7	9	5
1911.33	n/a	STOP	955665	n/a	LTP324	ltpFR2	0	n/a	n/a	n/a	10	n/a	n/a	n/a	n/a
1913.006	n/a	WORD	956503	wordpools/wasnorm_wordpool_576.txt	LTP324	ltpFR2	0	7	SODA	1341	n/a	n/a	0	0	0
1915.742	n/a	WORD	957871	wordpools/wasnorm_wordpool_576.txt	LTP324	ltpFR2	0	7	BALLOON	75	n/a	n/a	0	0	0
1918.496	n/a	WORD	959248	wordpools/wasnorm_wordpool_576.txt	LTP324	ltpFR2	0	7	CUSTARD	429	n/a	n/a	0	0	0
1921.296	n/a	WORD	960648	wordpools/wasnorm_wordpool_576.txt	LTP324	ltpFR2	0	7	CLAM	315	n/a	n/a	0	0	0
1923.764	n/a	WORD	961882	wordpools/wasnorm_wordpool_576.txt	LTP324	ltpFR2	0	7	THRONE	1461	n/a	n/a	0	0	0
1926.484	n/a	WORD	963242	wordpools/wasnorm_wordpool_576.txt	LTP324	ltpFR2	0	7	EAGLE	512	n/a	n/a	0	0	0
1929.288	n/a	WORD	964644	wordpools/wasnorm_wordpool_576.txt	LTP324	ltpFR2	0	7	ROBIN	1199	n/a	n/a	0	0	0
1931.792	n/a	WORD	965896	wordpools/wasnorm_wordpool_576.txt	LTP324	ltpFR2	0	7	FRAME	600	n/a	n/a	0	0	0
1934.24	n/a	WORD	967120	wordpools/wasnorm_wordpool_576.txt	LTP324	ltpFR2	0	7	TRANSPLANT	1496	n/a	n/a	0	0	0
1936.86	n/a	WORD	968430	wordpools/wasnorm_wordpool_576.txt	LTP324	ltpFR2	0	7	FOREST	593	n/a	n/a	0	0	0
1939.546	n/a	WORD	969773	wordpools/wasnorm_wordpool_576.txt	LTP324	ltpFR2	0	7	FLUTE	585	n/a	n/a	0	0	0
1942.282	n/a	WORD	971141	wordpools/wasnorm_wordpool_576.txt	LTP324	ltpFR2	0	7	FREEZER	604	n/a	n/a	0	0	0
1944.85	n/a	WORD	972425	wordpools/wasnorm_wordpool_576.txt	LTP324	ltpFR2	0	7	BRANDY	169	n/a	n/a	0	0	0
1947.654	n/a	WORD	973827	wordpools/wasnorm_wordpool_576.txt	LTP324	ltpFR2	0	7	GIFT	635	n/a	n/a	0	0	0
1950.136	n/a	WORD	975068	wordpools/wasnorm_wordpool_576.txt	LTP324	ltpFR2	0	7	MAILMAN	858	n/a	n/a	0	0	0
1952.856	n/a	WORD	976428	wordpools/wasnorm_wordpool_576.txt	LTP324	ltpFR2	0	7	RIFLE	1192	n/a	n/a	0	0	0
1955.676	n/a	WORD	977838	wordpools/wasnorm_wordpool_576.txt	LTP324	ltpFR2	0	7	DONOR	485	n/a	n/a	0	0	0
1958.41	n/a	WORD	979205	wordpools/wasnorm_wordpool_576.txt	LTP324	ltpFR2	0	7	TOURIST	1488	n/a	n/a	0	0	0
1961.214	n/a	WORD	980607	wordpools/wasnorm_wordpool_576.txt	LTP324	ltpFR2	0	7	BRICK	172	n/a	n/a	0	0	0
1963.95	n/a	WORD	981975	wordpools/wasnorm_wordpool_576.txt	LTP324	ltpFR2	0	7	GRAVEL	659	n/a	n/a	0	0	0
1966.452	n/a	WORD	983226	wordpools/wasnorm_wordpool_576.txt	LTP324	ltpFR2	0	7	DRAWING	494	n/a	n/a	0	0	0
1968.986	n/a	WORD	984493	wordpools/wasnorm_wordpool_576.txt	LTP324	ltpFR2	0	7	UMPIRE	1535	n/a	n/a	0	0	0
1971.556	n/a	WORD	985778	wordpools/wasnorm_wordpool_576.txt	LTP324	ltpFR2	0	7	ASIA	46	n/a	n/a	0	0	0
1974.158	n/a	WORD	987079	wordpools/wasnorm_wordpool_576.txt	LTP324	ltpFR2	0	7	VIKING	1565	n/a	n/a	0	0	0
1975.776	n/a	START	987888	n/a	LTP324	ltpFR2	0	n/a	n/a	n/a	11	n/a	n/a	n/a	n/a
1976.648	n/a	DISTRACTOR	988324	n/a	LTP324	ltpFR2	0	7	n/a	n/a	n/a	n/a	0	0	0
1976.66	n/a	PROB	988330	n/a	LTP324	ltpFR2	0	n/a	n/a	n/a	11	14	5	8	1
1978.628	n/a	PROB	989314	n/a	LTP324	ltpFR2	0	n/a	n/a	n/a	11	14	4	1	9
1980.346	n/a	PROB	990173	n/a	LTP324	ltpFR2	0	n/a	n/a	n/a	11	23	9	5	9
1982.214	n/a	PROB	991107	n/a	LTP324	ltpFR2	0	n/a	n/a	n/a	11	7	2	4	1
1983.198	n/a	PROB	991599	n/a	LTP324	ltpFR2	0	n/a	n/a	n/a	11	13	3	2	8
1984.548	n/a	PROB	992274	n/a	LTP324	ltpFR2	0	n/a	n/a	n/a	11	23	9	6	8
1987.45	n/a	PROB	993725	n/a	LTP324	ltpFR2	0	n/a	n/a	n/a	11	16	7	7	2
1988.418	n/a	PROB	994209	n/a	LTP324	ltpFR2	0	n/a	n/a	n/a	11	23	7	7	9
1990.136	n/a	PROB	995068	n/a	LTP324	ltpFR2	0	n/a	n/a	n/a	11	16	6	8	2
1991.27	n/a	PROB	995635	n/a	LTP324	ltpFR2	0	n/a	n/a	n/a	11	11	5	5	1
1992.204	n/a	PROB	996102	n/a	LTP324	ltpFR2	0	n/a	n/a	n/a	11	16	6	4	6
1993.422	n/a	PROB	996711	n/a	LTP324	ltpFR2	0	n/a	n/a	n/a	11	8	1	5	2
1994.558	n/a	PROB	997279	n/a	LTP324	ltpFR2	0	n/a	n/a	n/a	11	12	8	1	3
1995.522	n/a	PROB	997761	n/a	LTP324	ltpFR2	0	n/a	n/a	n/a	11	12	1	6	5
1996.44	n/a	PROB	998220	n/a	LTP324	ltpFR2	0	n/a	n/a	n/a	11	14	5	1	8
1997.592	n/a	PROB	998796	n/a	LTP324	ltpFR2	0	n/a	n/a	n/a	11	12	1	4	7
1998.892	n/a	STOP	999446	n/a	LTP324	ltpFR2	0	n/a	n/a	n/a	11	n/a	n/a	n/a	n/a
2001.68	n/a	REC_START	1000840	n/a	LTP324	ltpFR2	0	7	n/a	n/a	n/a	n/a	0	0	0
2005.076	n/a	REC_WORD	1002538	wordpools/wasnorm_wordpool_576.txt	LTP324	ltpFR2	0	7	ASIA	46	n/a	n/a	0	0	0
2008.826	n/a	REC_WORD	1004413	wordpools/wasnorm_wordpool_576.txt	LTP324	ltpFR2	0	7	VIKING	1565	n/a	n/a	0	0	0
2011.012	n/a	REC_WORD	1005506	wordpools/wasnorm_wordpool_576.txt	LTP324	ltpFR2	0	7	FRAME	600	n/a	n/a	0	0	0
2013.234	n/a	REC_WORD	1006617	wordpools/wasnorm_wordpool_576.txt	LTP324	ltpFR2	0	7	THRONE	1461	n/a	n/a	0	0	0
2031.098	n/a	REC_WORD	1015549	wordpools/wasnorm_wordpool_576.txt	LTP324	ltpFR2	0	7	CUSTARD	429	n/a	n/a	0	0	0
2045.422	n/a	REC_WORD	1022711	wordpools/wasnorm_wordpool_576.txt	LTP324	ltpFR2	0	7	SODA	1341	n/a	n/a	0	0	0
2046.906	n/a	REC_WORD	1023453	wordpools/wasnorm_wordpool_576.txt	LTP324	ltpFR2	0	7	BALLOON	75	n/a	n/a	0	0	0
2122.138	n/a	DISTRACTOR	1061069	n/a	LTP324	ltpFR2	0	8	n/a	n/a	n/a	n/a	0	0	0
2122.14	n/a	START	1061070	n/a	LTP324	ltpFR2	0	n/a	n/a	n/a	12	n/a	n/a	n/a	n/a
2122.156	n/a	PROB	1061078	n/a	LTP324	ltpFR2	0	n/a	n/a	n/a	12	115	1	6	8
2123.634	n/a	PROB	1061817	n/a	LTP324	ltpFR2	0	n/a	n/a	n/a	12	20	6	8	6
2127.392	n/a	PROB	1063696	n/a	LTP324	ltpFR2	0	n/a	n/a	n/a	12	13	7	4	2
2128.91	n/a	PROB	1064455	n/a	LTP324	ltpFR2	0	n/a	n/a	n/a	12	14	7	1	6
2130.244	n/a	PROB	1065122	n/a	LTP324	ltpFR2	0	n/a	n/a	n/a	12	21	9	3	9
2131.73	n/a	PROB	1065865	n/a	LTP324	ltpFR2	0	n/a	n/a	n/a	12	13	5	3	5
2133.414	n/a	PROB	1066707	n/a	LTP324	ltpFR2	0	n/a	n/a	n/a	12	21	6	3	3
2135.348	n/a	PROB	1067674	n/a	LTP324	ltpFR2	0	n/a	n/a	n/a	12	12	5	5	2
2136.8	n/a	PROB	1068400	n/a	LTP324	ltpFR2	0	n/a	n/a	n/a	12	23	9	9	5
2138.134	n/a	PROB	1069067	n/a	LTP324	ltpFR2	0	n/a	n/a	n/a	12	11	1	6	4
2138.984	n/a	PROB	1069492	n/a	LTP324	ltpFR2	0	n/a	n/a	n/a	12	13	8	1	4
2141.186	n/a	PROB	1070593	n/a	LTP324	ltpFR2	0	n/a	n/a	n/a	12	15	6	3	6
2142.256	n/a	PROB	1071128	n/a	LTP324	ltpFR2	0	n/a	n/a	n/a	12	17	4	4	9
2143.656	n/a	PROB	1071828	n/a	LTP324	ltpFR2	0	n/a	n/a	n/a	12	14	8	3	3
2145.014	n/a	STOP	1072507	n/a	LTP324	ltpFR2	0	n/a	n/a	n/a	12	n/a	n/a	n/a	n/a
2147.356	n/a	WORD	1073678	wordpools/wasnorm_wordpool_576.txt	LTP324	ltpFR2	0	8	CONCERT	360	n/a	n/a	0	0	0
2150.042	n/a	WORD	1075021	wordpools/wasnorm_wordpool_576.txt	LTP324	ltpFR2	0	8	COUNTRY	388	n/a	n/a	0	0	0
2152.842	n/a	WORD	1076421	wordpools/wasnorm_wordpool_576.txt	LTP324	ltpFR2	0	8	STAKE	1368	n/a	n/a	0	0	0
2155.412	n/a	WORD	1077706	wordpools/wasnorm_wordpool_576.txt	LTP324	ltpFR2	0	8	LODGE	839	n/a	n/a	0	0	0
2158.014	n/a	WORD	1079007	wordpools/wasnorm_wordpool_576.txt	LTP324	ltpFR2	0	8	NECKLACE	940	n/a	n/a	0	0	0
2160.668	n/a	WORD	1080334	wordpools/wasnorm_wordpool_576.txt	LTP324	ltpFR2	0	8	COUSIN	392	n/a	n/a	0	0	0
2163.152	n/a	WORD	1081576	wordpools/wasnorm_wordpool_576.txt	LTP324	ltpFR2	0	8	WIFE	1609	n/a	n/a	0	0	0
2165.622	n/a	WORD	1082811	wordpools/wasnorm_wordpool_576.txt	LTP324	ltpFR2	0	8	LUMBER	848	n/a	n/a	0	0	0
2168.174	n/a	WORD	1084087	wordpools/wasnorm_wordpool_576.txt	LTP324	ltpFR2	0	8	BRANCH	168	n/a	n/a	0	0	0
2170.842	n/a	WORD	1085421	wordpools/wasnorm_wordpool_576.txt	LTP324	ltpFR2	0	8	BANJO	82	n/a	n/a	0	0	0
2173.428	n/a	WORD	1086714	wordpools/wasnorm_wordpool_576.txt	LTP324	ltpFR2	0	8	STOVE	1388	n/a	n/a	0	0	0
2175.88	n/a	WORD	1087940	wordpools/wasnorm_wordpool_576.txt	LTP324	ltpFR2	0	8	KITCHEN	778	n/a	n/a	0	0	0
2178.616	n/a	WORD	1089308	wordpools/wasnorm_wordpool_576.txt	LTP324	ltpFR2	0	8	MARSH	874	n/a	n/a	0	0	0
2181.234	n/a	WORD	1090617	wordpools/wasnorm_wordpool_576.txt	LTP324	ltpFR2	0	8	MARROW	872	n/a	n/a	0	0	0
2183.82	n/a	WORD	1091910	wordpools/wasnorm_wordpool_576.txt	LTP324	ltpFR2	0	8	GREASE	660	n/a	n/a	0	0	0
2186.64	n/a	WORD	1093320	wordpools/wasnorm_wordpool_576.txt	LTP324	ltpFR2	0	8	PASTRY	1022	n/a	n/a	0	0	0
2189.092	n/a	WORD	1094546	wordpools/wasnorm_wordpool_576.txt	LTP324	ltpFR2	0	8	GIRL	637	n/a	n/a	0	0	0
2191.544	n/a	WORD	1095772	wordpools/wasnorm_wordpool_576.txt	LTP324	ltpFR2	0	8	CABIN	211	n/a	n/a	0	0	0
2194.26	n/a	WORD	1097130	wordpools/wasnorm_wordpool_576.txt	LTP324	ltpFR2	0	8	PEBBLE	1035	n/a	n/a	0	0	0
2196.896	n/a	WORD	1098448	wordpools/wasnorm_wordpool_576.txt	LTP324	ltpFR2	0	8	SHORTCAKE	1292	n/a	n/a	0	0	0
2199.716	n/a	WORD	1099858	wordpools/wasnorm_wordpool_576.txt	LTP324	ltpFR2	0	8	FLOWER	584	n/a	n/a	0	0	0
2202.318	n/a	WORD	1101159	wordpools/wasnorm_wordpool_576.txt	LTP324	ltpFR2	0	8	SPOUSE	1358	n/a	n/a	0	0	0
2204.752	n/a	WORD	1102376	wordpools/wasnorm_wordpool_576.txt	LTP324	ltpFR2	0	8	PISTOL	1075	n/a	n/a	0	0	0
2207.406	n/a	WORD	1103703	wordpools/wasnorm_wordpool_576.txt	LTP324	ltpFR2	0	8	FOREHEAD	592	n/a	n/a	0	0	0
2209.024	n/a	START	1104512	n/a	LTP324	ltpFR2	0	n/a	n/a	n/a	13	n/a	n/a	n/a	n/a
2210.026	n/a	DISTRACTOR	1105013	n/a	LTP324	ltpFR2	0	8	n/a	n/a	n/a	n/a	0	0	0
2210.04	n/a	PROB	1105020	n/a	LTP324	ltpFR2	0	n/a	n/a	n/a	13	10	7	2	1
2211.258	n/a	PROB	1105629	n/a	LTP324	ltpFR2	0	n/a	n/a	n/a	13	18	4	5	9
2212.56	n/a	PROB	1106280	n/a	LTP324	ltpFR2	0	n/a	n/a	n/a	13	14	7	1	6
2213.476	n/a	PROB	1106738	n/a	LTP324	ltpFR2	0	n/a	n/a	n/a	13	13	7	5	1
2214.794	n/a	PROB	1107397	n/a	LTP324	ltpFR2	0	n/a	n/a	n/a	13	21	8	7	6
2217.296	n/a	PROB	1108648	n/a	LTP324	ltpFR2	0	n/a	n/a	n/a	13	18	5	6	7
2218.83	n/a	PROB	1109415	n/a	LTP324	ltpFR2	0	n/a	n/a	n/a	13	7	1	2	4
2219.796	n/a	PROB	1109898	n/a	LTP324	ltpFR2	0	n/a	n/a	n/a	13	15	6	2	7
2221.234	n/a	PROB	1110617	n/a	LTP324	ltpFR2	0	n/a	n/a	n/a	13	17	1	9	7
2222.484	n/a	PROB	1111242	n/a	LTP324	ltpFR2	0	n/a	n/a	n/a	13	9	3	5	1
2223.636	n/a	PROB	1111818	n/a	LTP324	ltpFR2	0	n/a	n/a	n/a	13	113	4	2	7
2225.57	n/a	PROB	1112785	n/a	LTP324	ltpFR2	0	n/a	n/a	n/a	13	2	6	9	6
2227.554	n/a	PROB	1113777	n/a	LTP324	ltpFR2	0	n/a	n/a	n/a	13	18	8	1	9
2229.34	n/a	PROB	1114670	n/a	LTP324	ltpFR2	0	n/a	n/a	n/a	13	11	5	1	5
2230.24	n/a	PROB	1115120	n/a	LTP324	ltpFR2	0	n/a	n/a	n/a	13	17	2	8	8
2233.024	n/a	STOP	1116512	n/a	LTP324	ltpFR2	0	n/a	n/a	n/a	13	n/a	n/a	n/a	n/a
2234.842	n/a	REC_START	1117421	n/a	LTP324	ltpFR2	0	8	n/a	n/a	n/a	n/a	0	0	0
2235.534	n/a	REC_WORD	1117767	wordpools/wasnorm_wordpool_576.txt	LTP324	ltpFR2	0	8	CONCERT	360	n/a	n/a	0	0	0
2237.088	n/a	REC_WORD	1118544	wordpools/wasnorm_wordpool_576.txt	LTP324	ltpFR2	0	8	PEBBLE	1035	n/a	n/a	0	0	0
2238.148	n/a	REC_WORD	1119074	wordpools/wasnorm_wordpool_576.txt	LTP324	ltpFR2	0	8	GIRL	637	n/a	n/a	0	0	0
2240.4	n/a	REC_WORD	1120200	wordpools/wasnorm_wordpool_576.txt	LTP324	ltpFR2	0	8	LODGE	839	n/a	n/a	0	0	0
2241.34	n/a	REC_WORD	1120670	wordpools/wasnorm_wordpool_576.txt	LTP324	ltpFR2	0	8	CABIN	211	n/a	n/a	0	0	0
2242.336	n/a	REC_WORD	1121168	wordpools/wasnorm_wordpool_576.txt	LTP324	ltpFR2	0	8	SHORTCAKE	1292	n/a	n/a	0	0	0
2244.388	n/a	REC_WORD	1122194	wordpools/wasnorm_wordpool_576.txt	LTP324	ltpFR2	0	8	SPOUSE	1358	n/a	n/a	0	0	0
2245.332	n/a	REC_WORD	1122666	wordpools/wasnorm_wordpool_576.txt	LTP324	ltpFR2	0	8	PISTOL	1075	n/a	n/a	0	0	0
2260.884	n/a	REC_WORD	1130442	wordpools/wasnorm_wordpool_576.txt	LTP324	ltpFR2	0	8	COUNTRY	388	n/a	n/a	0	0	0
2311.37	n/a	REST_REWET	1155685	n/a	LTP324	ltpFR2	0	8	n/a	n/a	n/a	n/a	0	0	0
2765.61	n/a	DISTRACTOR	1382805	n/a	LTP324	ltpFR2	0	9	n/a	n/a	n/a	n/a	0	0	0
2765.61	n/a	START	1382805	n/a	LTP324	ltpFR2	0	n/a	n/a	n/a	14	n/a	n/a	n/a	n/a
2765.624	n/a	PROB	1382812	n/a	LTP324	ltpFR2	0	n/a	n/a	n/a	14	15	3	3	9
2767.642	n/a	PROB	1383821	n/a	LTP324	ltpFR2	0	n/a	n/a	n/a	14	10	5	1	4
2768.628	n/a	PROB	1384314	n/a	LTP324	ltpFR2	0	n/a	n/a	n/a	14	1	6	4	5
2769.876	n/a	PROB	1384938	n/a	LTP324	ltpFR2	0	n/a	n/a	n/a	14	20	6	7	7
2771.842	n/a	PROB	1385921	n/a	LTP324	ltpFR2	0	n/a	n/a	n/a	14	16	7	2	7
2773.296	n/a	PROB	1386648	n/a	LTP324	ltpFR2	0	n/a	n/a	n/a	14	19	8	8	3
2775.18	n/a	PROB	1387590	n/a	LTP324	ltpFR2	0	n/a	n/a	n/a	14	20	9	3	8
2776.848	n/a	PROB	1388424	n/a	LTP324	ltpFR2	0	n/a	n/a	n/a	14	18	6	9	3
2778.132	n/a	PROB	1389066	n/a	LTP324	ltpFR2	0	n/a	n/a	n/a	14	27	9	9	9
2779.334	n/a	PROB	1389667	n/a	LTP324	ltpFR2	0	n/a	n/a	n/a	14	16	1	8	7
2780.534	n/a	PROB	1390267	n/a	LTP324	ltpFR2	0	n/a	n/a	n/a	14	18	8	8	2
2782.102	n/a	PROB	1391051	n/a	LTP324	ltpFR2	0	n/a	n/a	n/a	14	20	5	8	7
2784.638	n/a	PROB	1392319	n/a	LTP324	ltpFR2	0	n/a	n/a	n/a	14	7	3	1	2
2785.572	n/a	PROB	1392786	n/a	LTP324	ltpFR2	0	n/a	n/a	n/a	14	17	9	6	2
2789.608	n/a	STOP	1394804	n/a	LTP324	ltpFR2	0	n/a	n/a	n/a	14	n/a	n/a	n/a	n/a
2790.65	n/a	WORD	1395325	wordpools/wasnorm_wordpool_576.txt	LTP324	ltpFR2	0	9	LOVER	846	n/a	n/a	0	0	0
2793.378	n/a	WORD	1396689	wordpools/wasnorm_wordpool_576.txt	LTP324	ltpFR2	0	9	SOFTBALL	1343	n/a	n/a	0	0	0
2796.08	n/a	WORD	1398040	wordpools/wasnorm_wordpool_576.txt	LTP324	ltpFR2	0	9	PARENT	1013	n/a	n/a	0	0	0
2798.574	n/a	WORD	1399287	wordpools/wasnorm_wordpool_576.txt	LTP324	ltpFR2	0	9	CARROT	249	n/a	n/a	0	0	0
2801.394	n/a	WORD	1400697	wordpools/wasnorm_wordpool_576.txt	LTP324	ltpFR2	0	9	PORK	1108	n/a	n/a	0	0	0
2804.17	n/a	WORD	1402085	wordpools/wasnorm_wordpool_576.txt	LTP324	ltpFR2	0	9	BOYFRIEND	162	n/a	n/a	0	0	0
2806.856	n/a	WORD	1403428	wordpools/wasnorm_wordpool_576.txt	LTP324	ltpFR2	0	9	MARINE	869	n/a	n/a	0	0	0
2809.676	n/a	WORD	1404838	wordpools/wasnorm_wordpool_576.txt	LTP324	ltpFR2	0	9	CEILING	265	n/a	n/a	0	0	0
2812.176	n/a	WORD	1406088	wordpools/wasnorm_wordpool_576.txt	LTP324	ltpFR2	0	9	CRIB	407	n/a	n/a	0	0	0
2814.82	n/a	WORD	1407410	wordpools/wasnorm_wordpool_576.txt	LTP324	ltpFR2	0	9	SWAMP	1416	n/a	n/a	0	0	0
2817.38	n/a	WORD	1408690	wordpools/wasnorm_wordpool_576.txt	LTP324	ltpFR2	0	9	ITEM	746	n/a	n/a	0	0	0
2819.966	n/a	WORD	1409983	wordpools/wasnorm_wordpool_576.txt	LTP324	ltpFR2	0	9	CABBAGE	210	n/a	n/a	0	0	0
2822.702	n/a	WORD	1411351	wordpools/wasnorm_wordpool_576.txt	LTP324	ltpFR2	0	9	FIREMAN	569	n/a	n/a	0	0	0
2825.504	n/a	WORD	1412752	wordpools/wasnorm_wordpool_576.txt	LTP324	ltpFR2	0	9	BIKE	125	n/a	n/a	0	0	0
2828.204	n/a	WORD	1414102	wordpools/wasnorm_wordpool_576.txt	LTP324	ltpFR2	0	9	TORTOISE	1486	n/a	n/a	0	0	0
2830.702	n/a	WORD	1415351	wordpools/wasnorm_wordpool_576.txt	LTP324	ltpFR2	0	9	CAPTIVE	240	n/a	n/a	0	0	0
2833.352	n/a	WORD	1416676	wordpools/wasnorm_wordpool_576.txt	LTP324	ltpFR2	0	9	SUSPECT	1415	n/a	n/a	0	0	0
2835.888	n/a	WORD	1417944	wordpools/wasnorm_wordpool_576.txt	LTP324	ltpFR2	0	9	SWORD	1423	n/a	n/a	0	0	0
2838.516	n/a	WORD	1419258	wordpools/wasnorm_wordpool_576.txt	LTP324	ltpFR2	0	9	EUROPE	541	n/a	n/a	0	0	0
2840.944	n/a	WORD	1420472	wordpools/wasnorm_wordpool_576.txt	LTP324	ltpFR2	0	9	BUTCHER	203	n/a	n/a	0	0	0
2843.418	n/a	WORD	1421709	wordpools/wasnorm_wordpool_576.txt	LTP324	ltpFR2	0	9	MEAT	883	n/a	n/a	0	0	0
2845.848	n/a	WORD	1422924	wordpools/wasnorm_wordpool_576.txt	LTP324	ltpFR2	0	9	FINGER	567	n/a	n/a	0	0	0
2848.602	n/a	WORD	1424301	wordpools/wasnorm_wordpool_576.txt	LTP324	ltpFR2	0	9	KEEPER	769	n/a	n/a	0	0	0
2851.368	n/a	WORD	1425684	wordpools/wasnorm_wordpool_576.txt	LTP324	ltpFR2	0	9	COIN	343	n/a	n/a	0	0	0
2852.974	n/a	START	1426487	n/a	LTP324	ltpFR2	0	n/a	n/a	n/a	15	n/a	n/a	n/a	n/a
2854.064	n/a	DISTRACTOR	1427032	n/a	LTP324	ltpFR2	0	9	n/a	n/a	n/a	n/a	0	0	0
2854.07	n/a	PROB	1427035	n/a	LTP324	ltpFR2	0	n/a	n/a	n/a	15	12	2	8	2
2855.344	n/a	PROB	1427672	n/a	LTP324	ltpFR2	0	n/a	n/a	n/a	15	7	1	4	2
2856.226	n/a	PROB	1428113	n/a	LTP324	ltpFR2	0	n/a	n/a	n/a	15	18	4	8	6
2858.996	n/a	PROB	1429498	n/a	LTP324	ltpFR2	0	n/a	n/a	n/a	15	13	7	4	2
2860.346	n/a	PROB	1430173	n/a	LTP324	ltpFR2	0	n/a	n/a	n/a	15	16	5	5	6
2861.246	n/a	PROB	1430623	n/a	LTP324	ltpFR2	0	n/a	n/a	n/a	15	2	8	7	5
2863.6	n/a	PROB	1431800	n/a	LTP324	ltpFR2	0	n/a	n/a	n/a	15	27	9	9	9
2864.618	n/a	PROB	1432309	n/a	LTP324	ltpFR2	0	n/a	n/a	n/a	15	12	2	8	2
2866.118	n/a	PROB	1433059	n/a	LTP324	ltpFR2	0	n/a	n/a	n/a	15	14	3	7	4
2867.552	n/a	PROB	1433776	n/a	LTP324	ltpFR2	0	n/a	n/a	n/a	15	4	2	1	1
2868.738	n/a	PROB	1434369	n/a	LTP324	ltpFR2	0	n/a	n/a	n/a	15	2	8	8	7
2870.12	n/a	PROB	1435060	n/a	LTP324	ltpFR2	0	n/a	n/a	n/a	15	22	8	6	8
2872.04	n/a	PROB	1436020	n/a	LTP324	ltpFR2	0	n/a	n/a	n/a	15	14	6	7	1
2873.036	n/a	PROB	1436518	n/a	LTP324	ltpFR2	0	n/a	n/a	n/a	15	18	6	3	9
2875.106	n/a	PROB	1437553	n/a	LTP324	ltpFR2	0	n/a	n/a	n/a	15	23	6	5	9
2876.89	n/a	STOP	1438445	n/a	LTP324	ltpFR2	0	n/a	n/a	n/a	15	n/a	n/a	n/a	n/a
2878.762	n/a	REC_START	1439381	n/a	LTP324	ltpFR2	0	9	n/a	n/a	n/a	n/a	0	0	0
2879.778	n/a	REC_WORD	1439889	wordpools/wasnorm_wordpool_576.txt	LTP324	ltpFR2	0	9	CARROT	249	n/a	n/a	0	0	0
2880.516	n/a	REC_WORD	1440258	wordpools/wasnorm_wordpool_576.txt	LTP324	ltpFR2	0	9	PARENT	1013	n/a	n/a	0	0	0
2882.74	n/a	REC_WORD	1441370	wordpools/wasnorm_wordpool_576.txt	LTP324	ltpFR2	0	9	KEEPER	769	n/a	n/a	0	0	0
2884.404	n/a	REC_WORD	1442202	wordpools/wasnorm_wordpool_576.txt	LTP324	ltpFR2	0	9	SOCCER	-1	n/a	n/a	0	0	0
2886.772	n/a	REC_WORD	1443386	wordpools/wasnorm_wordpool_576.txt	LTP324	ltpFR2	0	9	MEAT	883	n/a	n/a	0	0	0
2887.484	n/a	REC_WORD	1443742	wordpools/wasnorm_wordpool_576.txt	LTP324	ltpFR2	0	9	BUTCHER	203	n/a	n/a	0	0	0
2888.0	n/a	REC_WORD	1444000	wordpools/wasnorm_wordpool_576.txt	LTP324	ltpFR2	0	9	FINGER	567	n/a	n/a	0	0	0
2889.088	n/a	REC_WORD	1444544	wordpools/wasnorm_wordpool_576.txt	LTP324	ltpFR2	0	9	PORK	1108	n/a	n/a	0	0	0
2906.992	n/a	REC_WORD	1453496	wordpools/wasnorm_wordpool_576.txt	LTP324	ltpFR2	0	9	CABBAGE	210	n/a	n/a	0	0	0
2910.498	n/a	REC_WORD	1455249	wordpools/wasnorm_wordpool_576.txt	LTP324	ltpFR2	0	9	EUROPE	541	n/a	n/a	0	0	0
2914.648	n/a	REC_WORD	1457324	wordpools/wasnorm_wordpool_576.txt	LTP324	ltpFR2	0	9	CAPTIVE	240	n/a	n/a	0	0	0
2989.296	n/a	WORD	1494648	wordpools/wasnorm_wordpool_576.txt	LTP324	ltpFR2	0	10	PERFUME	1049	n/a	n/a	0	0	0
2991.85	n/a	WORD	1495925	wordpools/wasnorm_wordpool_576.txt	LTP324	ltpFR2	0	10	DUST	508	n/a	n/a	0	0	0
2994.636	n/a	WORD	1497318	wordpools/wasnorm_wordpool_576.txt	LTP324	ltpFR2	0	10	JAPAN	749	n/a	n/a	0	0	0
2997.236	n/a	WORD	1498618	wordpools/wasnorm_wordpool_576.txt	LTP324	ltpFR2	0	10	HERO	706	n/a	n/a	0	0	0
2999.756	n/a	WORD	1499878	wordpools/wasnorm_wordpool_576.txt	LTP324	ltpFR2	0	10	WARDROBE	1587	n/a	n/a	0	0	0
3002.398	n/a	WORD	1501199	wordpools/wasnorm_wordpool_576.txt	LTP324	ltpFR2	0	10	TURNIP	1521	n/a	n/a	0	0	0
3005.16	n/a	WORD	1502580	wordpools/wasnorm_wordpool_576.txt	LTP324	ltpFR2	0	10	COD	340	n/a	n/a	0	0	0
3007.812	n/a	WORD	1503906	wordpools/wasnorm_wordpool_576.txt	LTP324	ltpFR2	0	10	BLACKBOARD	133	n/a	n/a	0	0	0
3010.314	n/a	WORD	1505157	wordpools/wasnorm_wordpool_576.txt	LTP324	ltpFR2	0	10	FRAGRANCE	599	n/a	n/a	0	0	0
3013.05	n/a	WORD	1506525	wordpools/wasnorm_wordpool_576.txt	LTP324	ltpFR2	0	10	PASSAGE	1019	n/a	n/a	0	0	0
3015.508	n/a	WORD	1507754	wordpools/wasnorm_wordpool_576.txt	LTP324	ltpFR2	0	10	HIGHWAY	707	n/a	n/a	0	0	0
3018.226	n/a	WORD	1509113	wordpools/wasnorm_wordpool_576.txt	LTP324	ltpFR2	0	10	ROBBER	1197	n/a	n/a	0	0	0
3020.712	n/a	WORD	1510356	wordpools/wasnorm_wordpool_576.txt	LTP324	ltpFR2	0	10	THIEF	1456	n/a	n/a	0	0	0
3023.532	n/a	WORD	1511766	wordpools/wasnorm_wordpool_576.txt	LTP324	ltpFR2	0	10	PEACH	1031	n/a	n/a	0	0	0
3026.06	n/a	WORD	1513030	wordpools/wasnorm_wordpool_576.txt	LTP324	ltpFR2	0	10	MOTEL	919	n/a	n/a	0	0	0
3028.768	n/a	WORD	1514384	wordpools/wasnorm_wordpool_576.txt	LTP324	ltpFR2	0	10	DORM	488	n/a	n/a	0	0	0
3031.498	n/a	WORD	1515749	wordpools/wasnorm_wordpool_576.txt	LTP324	ltpFR2	0	10	TWEEZERS	1526	n/a	n/a	0	0	0
3034.266	n/a	WORD	1517133	wordpools/wasnorm_wordpool_576.txt	LTP324	ltpFR2	0	10	BANQUET	86	n/a	n/a	0	0	0
3036.892	n/a	WORD	1518446	wordpools/wasnorm_wordpool_576.txt	LTP324	ltpFR2	0	10	BACKBONE	66	n/a	n/a	0	0	0
3039.352	n/a	WORD	1519676	wordpools/wasnorm_wordpool_576.txt	LTP324	ltpFR2	0	10	PIGMENT	1066	n/a	n/a	0	0	0
3041.814	n/a	WORD	1520907	wordpools/wasnorm_wordpool_576.txt	LTP324	ltpFR2	0	10	SLUG	1329	n/a	n/a	0	0	0
3044.508	n/a	WORD	1522254	wordpools/wasnorm_wordpool_576.txt	LTP324	ltpFR2	0	10	LADDER	793	n/a	n/a	0	0	0
3047.176	n/a	WORD	1523588	wordpools/wasnorm_wordpool_576.txt	LTP324	ltpFR2	0	10	BUREAU	199	n/a	n/a	0	0	0
3049.754	n/a	WORD	1524877	wordpools/wasnorm_wordpool_576.txt	LTP324	ltpFR2	0	10	BABY	64	n/a	n/a	0	0	0
3051.364	n/a	START	1525682	n/a	LTP324	ltpFR2	0	n/a	n/a	n/a	16	n/a	n/a	n/a	n/a
3052.304	n/a	DISTRACTOR	1526152	n/a	LTP324	ltpFR2	0	10	n/a	n/a	n/a	n/a	0	0	0
3052.314	n/a	PROB	1526157	n/a	LTP324	ltpFR2	0	n/a	n/a	n/a	16	18	7	9	2
3054.364	n/a	PROB	1527182	n/a	LTP324	ltpFR2	0	n/a	n/a	n/a	16	10	3	1	6
3055.432	n/a	PROB	1527716	n/a	LTP324	ltpFR2	0	n/a	n/a	n/a	16	11	1	9	1
3056.284	n/a	PROB	1528142	n/a	LTP324	ltpFR2	0	n/a	n/a	n/a	16	13	2	3	8
3057.716	n/a	PROB	1528858	n/a	LTP324	ltpFR2	0	n/a	n/a	n/a	16	15	5	1	9
3059.302	n/a	PROB	1529651	n/a	LTP324	ltpFR2	0	n/a	n/a	n/a	16	18	7	6	5
3061.136	n/a	PROB	1530568	n/a	LTP324	ltpFR2	0	n/a	n/a	n/a	16	19	8	5	6
3062.754	n/a	PROB	1531377	n/a	LTP324	ltpFR2	0	n/a	n/a	n/a	16	10	4	5	1
3063.722	n/a	PROB	1531861	n/a	LTP324	ltpFR2	0	n/a	n/a	n/a	16	10	5	2	3
3065.642	n/a	PROB	1532821	n/a	LTP324	ltpFR2	0	n/a	n/a	n/a	16	13	4	7	2
3067.29	n/a	PROB	1533645	n/a	LTP324	ltpFR2	0	n/a	n/a	n/a	16	17	5	4	8
3068.842	n/a	PROB	1534421	n/a	LTP324	ltpFR2	0	n/a	n/a	n/a	16	9	1	4	4
3070.544	n/a	PROB	1535272	n/a	LTP324	ltpFR2	0	n/a	n/a	n/a	16	18	9	2	7
3071.744	n/a	PROB	1535872	n/a	LTP324	ltpFR2	0	n/a	n/a	n/a	16	7	1	1	5
3072.578	n/a	PROB	1536289	n/a	LTP324	ltpFR2	0	n/a	n/a	n/a	16	20	6	8	7
3074.198	n/a	STOP	1537099	n/a	LTP324	ltpFR2	0	n/a	n/a	n/a	16	n/a	n/a	n/a	n/a
3077.216	n/a	REC_START	1538608	n/a	LTP324	ltpFR2	0	10	n/a	n/a	n/a	n/a	0	0	0
3077.822	n/a	REC_WORD	1538911	wordpools/wasnorm_wordpool_576.txt	LTP324	ltpFR2	0	10	PERFUME	1049	n/a	n/a	0	0	0
3079.172	n/a	REC_WORD	1539586	wordpools/wasnorm_wordpool_576.txt	LTP324	ltpFR2	0	10	FRAGRANCE	599	n/a	n/a	0	0	0
3081.232	n/a	REC_WORD	1540616	wordpools/wasnorm_wordpool_576.txt	LTP324	ltpFR2	0	10	PASSAGE	1019	n/a	n/a	0	0	0
3082.264	n/a	REC_WORD	1541132	wordpools/wasnorm_wordpool_576.txt	LTP324	ltpFR2	0	10	HIGHWAY	707	n/a	n/a	0	0	0
3086.588	n/a	REC_WORD	1543294	wordpools/wasnorm_wordpool_576.txt	LTP324	ltpFR2	0	10	SLUG	1329	n/a	n/a	0	0	0
3087.944	n/a	REC_WORD	1543972	wordpools/wasnorm_wordpool_576.txt	LTP324	ltpFR2	0	10	LADDER	793	n/a	n/a	0	0	0
3089.342	n/a	REC_WORD	1544671	wordpools/wasnorm_wordpool_576.txt	LTP324	ltpFR2	0	10	BABY	64	n/a	n/a	0	0	0
3093.09	n/a	REC_WORD	1546545	wordpools/wasnorm_wordpool_576.txt	LTP324	ltpFR2	0	10	JAPAN	749	n/a	n/a	0	0	0
3129.646	n/a	REC_WORD	1564823	wordpools/wasnorm_wordpool_576.txt	LTP324	ltpFR2	0	10	COD	340	n/a	n/a	0	0	0
3131.668	n/a	REC_WORD	1565834	wordpools/wasnorm_wordpool_576.txt	LTP324	ltpFR2	0	10	TURNIP	1521	n/a	n/a	0	0	0
3177.278	n/a	DISTRACTOR	1588639	n/a	LTP324	ltpFR2	0	11	n/a	n/a	n/a	n/a	0	0	0
3177.28	n/a	START	1588640	n/a	LTP324	ltpFR2	0	n/a	n/a	n/a	17	n/a	n/a	n/a	n/a
3177.294	n/a	PROB	1588647	n/a	LTP324	ltpFR2	0	n/a	n/a	n/a	17	10	4	3	3
3178.53	n/a	PROB	1589265	n/a	LTP324	ltpFR2	0	n/a	n/a	n/a	17	63	1	4	1
3179.378	n/a	PROB	1589689	n/a	LTP324	ltpFR2	0	n/a	n/a	n/a	17	11	7	3	1
3180.546	n/a	PROB	1590273	n/a	LTP324	ltpFR2	0	n/a	n/a	n/a	17	14	2	7	5
3181.748	n/a	PROB	1590874	n/a	LTP324	ltpFR2	0	n/a	n/a	n/a	17	11	3	5	3
3182.832	n/a	PROB	1591416	n/a	LTP324	ltpFR2	0	n/a	n/a	n/a	17	13	3	2	8
3184.548	n/a	PROB	1592274	n/a	LTP324	ltpFR2	0	n/a	n/a	n/a	17	14	4	5	5
3185.6	n/a	PROB	1592800	n/a	LTP324	ltpFR2	0	n/a	n/a	n/a	17	20	9	5	6
3187.718	n/a	PROB	1593859	n/a	LTP324	ltpFR2	0	n/a	n/a	n/a	17	8	2	4	4
3189.67	n/a	PROB	1594835	n/a	LTP324	ltpFR2	0	n/a	n/a	n/a	17	8	2	4	2
3190.638	n/a	PROB	1595319	n/a	LTP324	ltpFR2	0	n/a	n/a	n/a	17	18	7	8	3
3192.038	n/a	PROB	1596019	n/a	LTP324	ltpFR2	0	n/a	n/a	n/a	17	9	3	3	2
3193.39	n/a	PROB	1596695	n/a	LTP324	ltpFR2	0	n/a	n/a	n/a	17	13	3	1	9
3194.806	n/a	PROB	1597403	n/a	LTP324	ltpFR2	0	n/a	n/a	n/a	17	12	2	9	1
3196.274	n/a	PROB	1598137	n/a	LTP324	ltpFR2	0	n/a	n/a	n/a	17	21	4	9	8
3199.864	n/a	STOP	1599932	n/a	LTP324	ltpFR2	0	n/a	n/a	n/a	17	n/a	n/a	n/a	n/a
3202.43	n/a	WORD	1601215	wordpools/wasnorm_wordpool_576.txt	LTP324	ltpFR2	0	11	AUTHOR	61	n/a	n/a	0	0	0
3205.136	n/a	WORD	1602568	wordpools/wasnorm_wordpool_576.txt	LTP324	ltpFR2	0	11	DONKEY	484	n/a	n/a	0	0	0
3207.902	n/a	WORD	1603951	wordpools/wasnorm_wordpool_576.txt	LTP324	ltpFR2	0	11	BUG	187	n/a	n/a	0	0	0
3210.506	n/a	WORD	1605253	wordpools/wasnorm_wordpool_576.txt	LTP324	ltpFR2	0	11	GARDEN	623	n/a	n/a	0	0	0
3213.04	n/a	WORD	1606520	wordpools/wasnorm_wordpool_576.txt	LTP324	ltpFR2	0	11	BODY	145	n/a	n/a	0	0	0
3215.508	n/a	WORD	1607754	wordpools/wasnorm_wordpool_576.txt	LTP324	ltpFR2	0	11	LIVER	833	n/a	n/a	0	0	0
3218.08	n/a	WORD	1609040	wordpools/wasnorm_wordpool_576.txt	LTP324	ltpFR2	0	11	SURVEY	1414	n/a	n/a	0	0	0
3220.7	n/a	WORD	1610350	wordpools/wasnorm_wordpool_576.txt	LTP324	ltpFR2	0	11	GYMNAST	675	n/a	n/a	0	0	0
3223.196	n/a	WORD	1611598	wordpools/wasnorm_wordpool_576.txt	LTP324	ltpFR2	0	11	JUGGLER	763	n/a	n/a	0	0	0
3225.87	n/a	WORD	1612935	wordpools/wasnorm_wordpool_576.txt	LTP324	ltpFR2	0	11	GUITAR	670	n/a	n/a	0	0	0
3228.59	n/a	WORD	1614295	wordpools/wasnorm_wordpool_576.txt	LTP324	ltpFR2	0	11	RECORD	1176	n/a	n/a	0	0	0
3231.052	n/a	WORD	1615526	wordpools/wasnorm_wordpool_576.txt	LTP324	ltpFR2	0	11	SUBWAY	1400	n/a	n/a	0	0	0
3233.754	n/a	WORD	1616877	wordpools/wasnorm_wordpool_576.txt	LTP324	ltpFR2	0	11	SCRIBBLE	1256	n/a	n/a	0	0	0
3236.29	n/a	WORD	1618145	wordpools/wasnorm_wordpool_576.txt	LTP324	ltpFR2	0	11	PECAN	1036	n/a	n/a	0	0	0
3238.842	n/a	WORD	1619421	wordpools/wasnorm_wordpool_576.txt	LTP324	ltpFR2	0	11	COBRA	336	n/a	n/a	0	0	0
3241.382	n/a	WORD	1620691	wordpools/wasnorm_wordpool_576.txt	LTP324	ltpFR2	0	11	MONEY	908	n/a	n/a	0	0	0
3244.136	n/a	WORD	1622068	wordpools/wasnorm_wordpool_576.txt	LTP324	ltpFR2	0	11	MASK	876	n/a	n/a	0	0	0
3246.588	n/a	WORD	1623294	wordpools/wasnorm_wordpool_576.txt	LTP324	ltpFR2	0	11	SADDLE	1221	n/a	n/a	0	0	0
3249.156	n/a	WORD	1624578	wordpools/wasnorm_wordpool_576.txt	LTP324	ltpFR2	0	11	BUNNY	198	n/a	n/a	0	0	0
3251.752	n/a	WORD	1625876	wordpools/wasnorm_wordpool_576.txt	LTP324	ltpFR2	0	11	KIDNEY	776	n/a	n/a	0	0	0
3254.41	n/a	WORD	1627205	wordpools/wasnorm_wordpool_576.txt	LTP324	ltpFR2	0	11	PAPER	1011	n/a	n/a	0	0	0
3256.856	n/a	WORD	1628428	wordpools/wasnorm_wordpool_576.txt	LTP324	ltpFR2	0	11	SKETCH	1315	n/a	n/a	0	0	0
3259.298	n/a	WORD	1629649	wordpools/wasnorm_wordpool_576.txt	LTP324	ltpFR2	0	11	YOLK	1633	n/a	n/a	0	0	0
3262.076	n/a	WORD	1631038	wordpools/wasnorm_wordpool_576.txt	LTP324	ltpFR2	0	11	FILM	565	n/a	n/a	0	0	0
3263.686	n/a	START	1631843	n/a	LTP324	ltpFR2	0	n/a	n/a	n/a	18	n/a	n/a	n/a	n/a
3264.792	n/a	DISTRACTOR	1632396	n/a	LTP324	ltpFR2	0	11	n/a	n/a	n/a	n/a	0	0	0
3264.802	n/a	PROB	1632401	n/a	LTP324	ltpFR2	0	n/a	n/a	n/a	18	1	8	8	2
3266.112	n/a	PROB	1633056	n/a	LTP324	ltpFR2	0	n/a	n/a	n/a	18	14	1	6	7
3267.378	n/a	PROB	1633689	n/a	LTP324	ltpFR2	0	n/a	n/a	n/a	18	3	1	1	1
3268.18	n/a	PROB	1634090	n/a	LTP324	ltpFR2	0	n/a	n/a	n/a	18	10	5	1	4
3269.314	n/a	PROB	1634657	n/a	LTP324	ltpFR2	0	n/a	n/a	n/a	18	17	2	6	9
3271.048	n/a	PROB	1635524	n/a	LTP324	ltpFR2	0	n/a	n/a	n/a	18	16	8	5	3
3272.766	n/a	PROB	1636383	n/a	LTP324	ltpFR2	0	n/a	n/a	n/a	18	14	4	7	3
3273.986	n/a	PROB	1636993	n/a	LTP324	ltpFR2	0	n/a	n/a	n/a	18	8	5	1	2
3275.186	n/a	PROB	1637593	n/a	LTP324	ltpFR2	0	n/a	n/a	n/a	18	21	8	5	8
3276.504	n/a	PROB	1638252	n/a	LTP324	ltpFR2	0	n/a	n/a	n/a	18	14	5	4	5
3277.69	n/a	PROB	1638845	n/a	LTP324	ltpFR2	0	n/a	n/a	n/a	18	21	7	8	6
3280.024	n/a	PROB	1640012	n/a	LTP324	ltpFR2	0	n/a	n/a	n/a	18	21	8	7	6
3281.424	n/a	PROB	1640712	n/a	LTP324	ltpFR2	0	n/a	n/a	n/a	18	16	6	7	3
3283.36	n/a	PROB	1641680	n/a	LTP324	ltpFR2	0	n/a	n/a	n/a	18	11	1	3	7
3284.394	n/a	PROB	1642197	n/a	LTP324	ltpFR2	0	n/a	n/a	n/a	18	14	3	5	6
3286.21	n/a	STOP	1643105	n/a	LTP324	ltpFR2	0	n/a	n/a	n/a	18	n/a	n/a	n/a	n/a
3289.448	n/a	REC_START	1644724	n/a	LTP324	ltpFR2	0	11	n/a	n/a	n/a	n/a	0	0	0
3292.806	n/a	REC_WORD	1646403	wordpools/wasnorm_wordpool_576.txt	LTP324	ltpFR2	0	11	LIVER	833	n/a	n/a	0	0	0
3293.974	n/a	REC_WORD	1646987	wordpools/wasnorm_wordpool_576.txt	LTP324	ltpFR2	0	11	KIDNEY	776	n/a	n/a	0	0	0
3295.41	n/a	REC_WORD	1647705	wordpools/wasnorm_wordpool_576.txt	LTP324	ltpFR2	0	11	BODY	145	n/a	n/a	0	0	0
3305.442	n/a	REC_WORD	1652721	wordpools/wasnorm_wordpool_576.txt	LTP324	ltpFR2	0	11	PAPER	1011	n/a	n/a	0	0	0
3306.556	n/a	REC_WORD	1653278	wordpools/wasnorm_wordpool_576.txt	LTP324	ltpFR2	0	11	SKETCH	1315	n/a	n/a	0	0	0
3309.08	n/a	REC_WORD	1654540	wordpools/wasnorm_wordpool_576.txt	LTP324	ltpFR2	0	11	SADDLE	1221	n/a	n/a	0	0	0
3390.91	n/a	WORD	1695455	wordpools/wasnorm_wordpool_576.txt	LTP324	ltpFR2	0	12	SERVER	1272	n/a	n/a	0	0	0
3393.746	n/a	WORD	1696873	wordpools/wasnorm_wordpool_576.txt	LTP324	ltpFR2	0	12	ACTOR	5	n/a	n/a	0	0	0
3396.28	n/a	WORD	1698140	wordpools/wasnorm_wordpool_576.txt	LTP324	ltpFR2	0	12	QUARTER	1148	n/a	n/a	0	0	0
3398.966	n/a	WORD	1699483	wordpools/wasnorm_wordpool_576.txt	LTP324	ltpFR2	0	12	DRUG	501	n/a	n/a	0	0	0
3401.636	n/a	WORD	1700818	wordpools/wasnorm_wordpool_576.txt	LTP324	ltpFR2	0	12	WAITER	1580	n/a	n/a	0	0	0
3404.288	n/a	WORD	1702144	wordpools/wasnorm_wordpool_576.txt	LTP324	ltpFR2	0	12	CRITIC	410	n/a	n/a	0	0	0
3406.806	n/a	WORD	1703403	wordpools/wasnorm_wordpool_576.txt	LTP324	ltpFR2	0	12	TUTU	1524	n/a	n/a	0	0	0
3409.44	n/a	WORD	1704720	wordpools/wasnorm_wordpool_576.txt	LTP324	ltpFR2	0	12	DRILL	497	n/a	n/a	0	0	0
3411.878	n/a	WORD	1705939	wordpools/wasnorm_wordpool_576.txt	LTP324	ltpFR2	0	12	GARBAGE	622	n/a	n/a	0	0	0
3414.328	n/a	WORD	1707164	wordpools/wasnorm_wordpool_576.txt	LTP324	ltpFR2	0	12	NIGHTGOWN	953	n/a	n/a	0	0	0
3416.98	n/a	WORD	1708490	wordpools/wasnorm_wordpool_576.txt	LTP324	ltpFR2	0	12	LOFT	840	n/a	n/a	0	0	0
3419.55	n/a	WORD	1709775	wordpools/wasnorm_wordpool_576.txt	LTP324	ltpFR2	0	12	HAMPER	682	n/a	n/a	0	0	0
3422.368	n/a	WORD	1711184	wordpools/wasnorm_wordpool_576.txt	LTP324	ltpFR2	0	12	SNAIL	1332	n/a	n/a	0	0	0
3425.07	n/a	WORD	1712535	wordpools/wasnorm_wordpool_576.txt	LTP324	ltpFR2	0	12	MISTER	901	n/a	n/a	0	0	0
3427.506	n/a	WORD	1713753	wordpools/wasnorm_wordpool_576.txt	LTP324	ltpFR2	0	12	NOMAD	955	n/a	n/a	0	0	0
3430.324	n/a	WORD	1715162	wordpools/wasnorm_wordpool_576.txt	LTP324	ltpFR2	0	12	CHEST	295	n/a	n/a	0	0	0
3432.926	n/a	WORD	1716463	wordpools/wasnorm_wordpool_576.txt	LTP324	ltpFR2	0	12	OINTMENT	974	n/a	n/a	0	0	0
3435.696	n/a	WORD	1717848	wordpools/wasnorm_wordpool_576.txt	LTP324	ltpFR2	0	12	COUNTY	389	n/a	n/a	0	0	0
3438.448	n/a	WORD	1719224	wordpools/wasnorm_wordpool_576.txt	LTP324	ltpFR2	0	12	EXPERT	543	n/a	n/a	0	0	0
3441.066	n/a	WORD	1720533	wordpools/wasnorm_wordpool_576.txt	LTP324	ltpFR2	0	12	FRIEND	606	n/a	n/a	0	0	0
3443.784	n/a	WORD	1721892	wordpools/wasnorm_wordpool_576.txt	LTP324	ltpFR2	0	12	MONSTER	912	n/a	n/a	0	0	0
3446.488	n/a	WORD	1723244	wordpools/wasnorm_wordpool_576.txt	LTP324	ltpFR2	0	12	LEOPARD	812	n/a	n/a	0	0	0
3449.122	n/a	WORD	1724561	wordpools/wasnorm_wordpool_576.txt	LTP324	ltpFR2	0	12	NURSE	963	n/a	n/a	0	0	0
3451.876	n/a	WORD	1725938	wordpools/wasnorm_wordpool_576.txt	LTP324	ltpFR2	0	12	BEAST	108	n/a	n/a	0	0	0
3453.48	n/a	START	1726740	n/a	LTP324	ltpFR2	0	n/a	n/a	n/a	19	n/a	n/a	n/a	n/a
3454.382	n/a	DISTRACTOR	1727191	n/a	LTP324	ltpFR2	0	12	n/a	n/a	n/a	n/a	0	0	0
3454.394	n/a	PROB	1727197	n/a	LTP324	ltpFR2	0	n/a	n/a	n/a	19	19	4	9	6
3455.726	n/a	PROB	1727863	n/a	LTP324	ltpFR2	0	n/a	n/a	n/a	19	13	4	4	5
3457.646	n/a	PROB	1728823	n/a	LTP324	ltpFR2	0	n/a	n/a	n/a	19	4	2	1	1
3458.412	n/a	PROB	1729206	n/a	LTP324	ltpFR2	0	n/a	n/a	n/a	19	22	3	9	9
3460.064	n/a	PROB	1730032	n/a	LTP324	ltpFR2	0	n/a	n/a	n/a	19	20	7	8	5
3461.748	n/a	PROB	1730874	n/a	LTP324	ltpFR2	0	n/a	n/a	n/a	19	13	3	1	7
3463.2	n/a	PROB	1731600	n/a	LTP324	ltpFR2	0	n/a	n/a	n/a	19	11	5	3	3
3465.636	n/a	PROB	1732818	n/a	LTP324	ltpFR2	0	n/a	n/a	n/a	19	18	8	1	9
3466.952	n/a	PROB	1733476	n/a	LTP324	ltpFR2	0	n/a	n/a	n/a	19	17	5	5	7
3468.42	n/a	PROB	1734210	n/a	LTP324	ltpFR2	0	n/a	n/a	n/a	19	9	3	1	5
3469.504	n/a	PROB	1734752	n/a	LTP324	ltpFR2	0	n/a	n/a	n/a	19	11	5	1	5
3470.472	n/a	PROB	1735236	n/a	LTP324	ltpFR2	0	n/a	n/a	n/a	19	8	3	4	1
3471.608	n/a	PROB	1735804	n/a	LTP324	ltpFR2	0	n/a	n/a	n/a	19	14	1	7	6
3473.258	n/a	PROB	1736629	n/a	LTP324	ltpFR2	0	n/a	n/a	n/a	19	14	7	4	3
3475.192	n/a	PROB	1737596	n/a	LTP324	ltpFR2	0	n/a	n/a	n/a	19	17	8	8	1
3476.708	n/a	STOP	1738354	n/a	LTP324	ltpFR2	0	n/a	n/a	n/a	19	n/a	n/a	n/a	n/a
3479.43	n/a	REC_START	1739715	n/a	LTP324	ltpFR2	0	12	n/a	n/a	n/a	n/a	0	0	0
3480.82	n/a	REC_WORD	1740410	wordpools/wasnorm_wordpool_576.txt	LTP324	ltpFR2	0	12	WAITER	1580	n/a	n/a	0	0	0
3481.768	n/a	REC_WORD	1740884	wordpools/wasnorm_wordpool_576.txt	LTP324	ltpFR2	0	12	SERVER	1272	n/a	n/a	0	0	0
3482.942	n/a	REC_WORD	1741471	wordpools/wasnorm_wordpool_576.txt	LTP324	ltpFR2	0	12	OINTMENT	974	n/a	n/a	0	0	0
3486.04	n/a	REC_WORD	1743020	wordpools/wasnorm_wordpool_576.txt	LTP324	ltpFR2	0	12	LEOPARD	812	n/a	n/a	0	0	0
3488.66	n/a	REC_WORD	1744330	wordpools/wasnorm_wordpool_576.txt	LTP324	ltpFR2	0	12	MONSTER	912	n/a	n/a	0	0	0
3490.298	n/a	REC_WORD	1745149	wordpools/wasnorm_wordpool_576.txt	LTP324	ltpFR2	0	12	BEAST	108	n/a	n/a	0	0	0
3495.84	n/a	REC_WORD	1747920	wordpools/wasnorm_wordpool_576.txt	LTP324	ltpFR2	0	12	COUNTY	389	n/a	n/a	0	0	0
3569.866	n/a	WORD	1784933	wordpools/wasnorm_wordpool_576.txt	LTP324	ltpFR2	0	13	SUNSET	1408	n/a	n/a	0	0	0
3572.482	n/a	WORD	1786241	wordpools/wasnorm_wordpool_576.txt	LTP324	ltpFR2	0	13	RACKET	1155	n/a	n/a	0	0	0
3575.082	n/a	WORD	1787541	wordpools/wasnorm_wordpool_576.txt	LTP324	ltpFR2	0	13	TROMBONE	1508	n/a	n/a	0	0	0
3577.902	n/a	WORD	1788951	wordpools/wasnorm_wordpool_576.txt	LTP324	ltpFR2	0	13	PLAID	1080	n/a	n/a	0	0	0
3580.522	n/a	WORD	1790261	wordpools/wasnorm_wordpool_576.txt	LTP324	ltpFR2	0	13	OMELET	976	n/a	n/a	0	0	0
3583.072	n/a	WORD	1791536	wordpools/wasnorm_wordpool_576.txt	LTP324	ltpFR2	0	13	REPORT	1184	n/a	n/a	0	0	0
3585.58	n/a	WORD	1792790	wordpools/wasnorm_wordpool_576.txt	LTP324	ltpFR2	0	13	BINDER	127	n/a	n/a	0	0	0
3588.382	n/a	WORD	1794191	wordpools/wasnorm_wordpool_576.txt	LTP324	ltpFR2	0	13	LEADER	807	n/a	n/a	0	0	0
3591.15	n/a	WORD	1795575	wordpools/wasnorm_wordpool_576.txt	LTP324	ltpFR2	0	13	BACON	67	n/a	n/a	0	0	0
3593.934	n/a	WORD	1796967	wordpools/wasnorm_wordpool_576.txt	LTP324	ltpFR2	0	13	PILOT	1070	n/a	n/a	0	0	0
3596.684	n/a	WORD	1798342	wordpools/wasnorm_wordpool_576.txt	LTP324	ltpFR2	0	13	WAGON	1578	n/a	n/a	0	0	0
3599.388	n/a	WORD	1799694	wordpools/wasnorm_wordpool_576.txt	LTP324	ltpFR2	0	13	HATCHET	691	n/a	n/a	0	0	0
3601.888	n/a	WORD	1800944	wordpools/wasnorm_wordpool_576.txt	LTP324	ltpFR2	0	13	SCISSORS	1250	n/a	n/a	0	0	0
3604.308	n/a	WORD	1802154	wordpools/wasnorm_wordpool_576.txt	LTP324	ltpFR2	0	13	CURTAIN	427	n/a	n/a	0	0	0
3607.026	n/a	WORD	1803513	wordpools/wasnorm_wordpool_576.txt	LTP324	ltpFR2	0	13	LONDON	843	n/a	n/a	0	0	0
3609.446	n/a	WORD	1804723	wordpools/wasnorm_wordpool_576.txt	LTP324	ltpFR2	0	13	HONEY	713	n/a	n/a	0	0	0
3612.096	n/a	WORD	1806048	wordpools/wasnorm_wordpool_576.txt	LTP324	ltpFR2	0	13	TREAT	1501	n/a	n/a	0	0	0
3614.632	n/a	WORD	1807316	wordpools/wasnorm_wordpool_576.txt	LTP324	ltpFR2	0	13	SANDWICH	1232	n/a	n/a	0	0	0
3617.184	n/a	WORD	1808592	wordpools/wasnorm_wordpool_576.txt	LTP324	ltpFR2	0	13	GARLIC	624	n/a	n/a	0	0	0
3619.97	n/a	WORD	1809985	wordpools/wasnorm_wordpool_576.txt	LTP324	ltpFR2	0	13	COOK	372	n/a	n/a	0	0	0
3622.438	n/a	WORD	1811219	wordpools/wasnorm_wordpool_576.txt	LTP324	ltpFR2	0	13	LAPEL	800	n/a	n/a	0	0	0
3625.06	n/a	WORD	1812530	wordpools/wasnorm_wordpool_576.txt	LTP324	ltpFR2	0	13	PUPIL	1143	n/a	n/a	0	0	0
3627.71	n/a	WORD	1813855	wordpools/wasnorm_wordpool_576.txt	LTP324	ltpFR2	0	13	TEACHER	1440	n/a	n/a	0	0	0
3630.378	n/a	WORD	1815189	wordpools/wasnorm_wordpool_576.txt	LTP324	ltpFR2	0	13	QUEEN	1149	n/a	n/a	0	0	0
3631.998	n/a	START	1815999	n/a	LTP324	ltpFR2	0	n/a	n/a	n/a	20	n/a	n/a	n/a	n/a
3633.094	n/a	DISTRACTOR	1816547	n/a	LTP324	ltpFR2	0	13	n/a	n/a	n/a	n/a	0	0	0
3633.098	n/a	PROB	1816549	n/a	LTP324	ltpFR2	0	n/a	n/a	n/a	20	19	4	6	9
3634.75	n/a	PROB	1817375	n/a	LTP324	ltpFR2	0	n/a	n/a	n/a	20	16	7	6	3
3636.716	n/a	PROB	1818358	n/a	LTP324	ltpFR2	0	n/a	n/a	n/a	20	13	1	7	5
3637.618	n/a	PROB	1818809	n/a	LTP324	ltpFR2	0	n/a	n/a	n/a	20	18	6	8	4
3638.752	n/a	PROB	1819376	n/a	LTP324	ltpFR2	0	n/a	n/a	n/a	20	10	2	6	2
3639.902	n/a	PROB	1819951	n/a	LTP324	ltpFR2	0	n/a	n/a	n/a	20	18	6	8	4
3641.42	n/a	PROB	1820710	n/a	LTP324	ltpFR2	0	n/a	n/a	n/a	20	19	4	8	7
3643.124	n/a	PROB	1821562	n/a	LTP324	ltpFR2	0	n/a	n/a	n/a	20	10	2	4	4
3644.29	n/a	PROB	1822145	n/a	LTP324	ltpFR2	0	n/a	n/a	n/a	20	19	7	7	5
3646.224	n/a	PROB	1823112	n/a	LTP324	ltpFR2	0	n/a	n/a	n/a	20	14	4	6	4
3647.242	n/a	PROB	1823621	n/a	LTP324	ltpFR2	0	n/a	n/a	n/a	20	20	8	3	9
3648.944	n/a	PROB	1824472	n/a	LTP324	ltpFR2	0	n/a	n/a	n/a	20	17	2	7	8
3650.178	n/a	PROB	1825089	n/a	LTP324	ltpFR2	0	n/a	n/a	n/a	20	5	1	3	1
3650.944	n/a	PROB	1825472	n/a	LTP324	ltpFR2	0	n/a	n/a	n/a	20	11	2	6	3
3652.446	n/a	PROB	1826223	n/a	LTP324	ltpFR2	0	n/a	n/a	n/a	20	15	5	9	1
3653.614	n/a	PROB	1826807	n/a	LTP324	ltpFR2	0	n/a	n/a	n/a	20	16	1	7	8
3654.584	n/a	STOP	1827292	n/a	LTP324	ltpFR2	0	n/a	n/a	n/a	20	n/a	n/a	n/a	n/a
3657.884	n/a	REC_START	1828942	n/a	LTP324	ltpFR2	0	13	n/a	n/a	n/a	n/a	0	0	0
3662.418	n/a	REC_WORD	1831209	wordpools/wasnorm_wordpool_576.txt	LTP324	ltpFR2	0	13	LONDON	843	n/a	n/a	0	0	0
3663.862	n/a	REC_WORD	1831931	wordpools/wasnorm_wordpool_576.txt	LTP324	ltpFR2	0	13	RACKET	1155	n/a	n/a	0	0	0
3667.596	n/a	REC_WORD	1833798	wordpools/wasnorm_wordpool_576.txt	LTP324	ltpFR2	0	13	QUEEN	1149	n/a	n/a	0	0	0
3670.912	n/a	REC_WORD	1835456	wordpools/wasnorm_wordpool_576.txt	LTP324	ltpFR2	0	13	COOK	372	n/a	n/a	0	0	0
3673.082	n/a	REC_WORD	1836541	wordpools/wasnorm_wordpool_576.txt	LTP324	ltpFR2	0	13	GARLIC	624	n/a	n/a	0	0	0
3679.598	n/a	REC_WORD	1839799	wordpools/wasnorm_wordpool_576.txt	LTP324	ltpFR2	0	13	HATCHET	691	n/a	n/a	0	0	0
3680.628	n/a	REC_WORD	1840314	wordpools/wasnorm_wordpool_576.txt	LTP324	ltpFR2	0	13	SCISSORS	1250	n/a	n/a	0	0	0
3748.322	n/a	WORD	1874161	wordpools/wasnorm_wordpool_576.txt	LTP324	ltpFR2	0	14	LIGHTNING	820	n/a	n/a	0	0	0
3750.93	n/a	WORD	1875465	wordpools/wasnorm_wordpool_576.txt	LTP324	ltpFR2	0	14	ONION	977	n/a	n/a	0	0	0
3753.546	n/a	WORD	1876773	wordpools/wasnorm_wordpool_576.txt	LTP324	ltpFR2	0	14	SERVANT	1271	n/a	n/a	0	0	0
3755.978	n/a	WORD	1877989	wordpools/wasnorm_wordpool_576.txt	LTP324	ltpFR2	0	14	SCOTCH	1251	n/a	n/a	0	0	0
3758.404	n/a	WORD	1879202	wordpools/wasnorm_wordpool_576.txt	LTP324	ltpFR2	0	14	STATUE	1374	n/a	n/a	0	0	0
3761.172	n/a	WORD	1880586	wordpools/wasnorm_wordpool_576.txt	LTP324	ltpFR2	0	14	BOUQUET	157	n/a	n/a	0	0	0
3763.892	n/a	WORD	1881946	wordpools/wasnorm_wordpool_576.txt	LTP324	ltpFR2	0	14	LETTUCE	814	n/a	n/a	0	0	0
3766.462	n/a	WORD	1883231	wordpools/wasnorm_wordpool_576.txt	LTP324	ltpFR2	0	14	BLOUSE	139	n/a	n/a	0	0	0
3769.23	n/a	WORD	1884615	wordpools/wasnorm_wordpool_576.txt	LTP324	ltpFR2	0	14	HOOK	715	n/a	n/a	0	0	0
3771.724	n/a	WORD	1885862	wordpools/wasnorm_wordpool_576.txt	LTP324	ltpFR2	0	14	SEAFOOD	1260	n/a	n/a	0	0	0
3774.192	n/a	WORD	1887096	wordpools/wasnorm_wordpool_576.txt	LTP324	ltpFR2	0	14	LILY	821	n/a	n/a	0	0	0
3776.986	n/a	WORD	1888493	wordpools/wasnorm_wordpool_576.txt	LTP324	ltpFR2	0	14	COFFEE	341	n/a	n/a	0	0	0
3779.69	n/a	WORD	1889845	wordpools/wasnorm_wordpool_576.txt	LTP324	ltpFR2	0	14	WHISKERS	1605	n/a	n/a	0	0	0
3782.19	n/a	WORD	1891095	wordpools/wasnorm_wordpool_576.txt	LTP324	ltpFR2	0	14	MUFFIN	929	n/a	n/a	0	0	0
3784.66	n/a	WORD	1892330	wordpools/wasnorm_wordpool_576.txt	LTP324	ltpFR2	0	14	PATROL	1027	n/a	n/a	0	0	0
3787.096	n/a	WORD	1893548	wordpools/wasnorm_wordpool_576.txt	LTP324	ltpFR2	0	14	GUARD	667	n/a	n/a	0	0	0
3789.582	n/a	WORD	1894791	wordpools/wasnorm_wordpool_576.txt	LTP324	ltpFR2	0	14	GLASS	639	n/a	n/a	0	0	0
3792.056	n/a	WORD	1896028	wordpools/wasnorm_wordpool_576.txt	LTP324	ltpFR2	0	14	BROTHER	179	n/a	n/a	0	0	0
3794.686	n/a	WORD	1897343	wordpools/wasnorm_wordpool_576.txt	LTP324	ltpFR2	0	14	DRINK	498	n/a	n/a	0	0	0
3797.494	n/a	WORD	1898747	wordpools/wasnorm_wordpool_576.txt	LTP324	ltpFR2	0	14	DRESS	495	n/a	n/a	0	0	0
3800.156	n/a	WORD	1900078	wordpools/wasnorm_wordpool_576.txt	LTP324	ltpFR2	0	14	CHILD	299	n/a	n/a	0	0	0
3802.858	n/a	WORD	1901429	wordpools/wasnorm_wordpool_576.txt	LTP324	ltpFR2	0	14	PACKAGE	997	n/a	n/a	0	0	0
3805.394	n/a	WORD	1902697	wordpools/wasnorm_wordpool_576.txt	LTP324	ltpFR2	0	14	HELMET	702	n/a	n/a	0	0	0
3808.212	n/a	WORD	1904106	wordpools/wasnorm_wordpool_576.txt	LTP324	ltpFR2	0	14	FIDDLE	561	n/a	n/a	0	0	0
3809.82	n/a	START	1904910	n/a	LTP324	ltpFR2	0	n/a	n/a	n/a	21	n/a	n/a	n/a	n/a
3810.798	n/a	DISTRACTOR	1905399	n/a	LTP324	ltpFR2	0	14	n/a	n/a	n/a	n/a	0	0	0
3810.804	n/a	PROB	1905402	n/a	LTP324	ltpFR2	0	n/a	n/a	n/a	21	11	4	6	1
3811.804	n/a	PROB	1905902	n/a	LTP324	ltpFR2	0	n/a	n/a	n/a	21	2	8	4	8
3813.89	n/a	PROB	1906945	n/a	LTP324	ltpFR2	0	n/a	n/a	n/a	21	13	2	9	1
3816.974	n/a	PROB	1908487	n/a	LTP324	ltpFR2	0	n/a	n/a	n/a	21	15	2	7	6
3818.726	n/a	PROB	1909363	n/a	LTP324	ltpFR2	0	n/a	n/a	n/a	21	11	7	1	3
3820.112	n/a	PROB	1910056	n/a	LTP324	ltpFR2	0	n/a	n/a	n/a	21	13	1	5	7
3822.262	n/a	PROB	1911131	n/a	LTP324	ltpFR2	0	n/a	n/a	n/a	21	16	2	7	7
3823.164	n/a	PROB	1911582	n/a	LTP324	ltpFR2	0	n/a	n/a	n/a	21	21	7	7	7
3824.312	n/a	PROB	1912156	n/a	LTP324	ltpFR2	0	n/a	n/a	n/a	21	17	1	8	8
3825.432	n/a	PROB	1912716	n/a	LTP324	ltpFR2	0	n/a	n/a	n/a	21	19	2	9	8
3827.434	n/a	PROB	1913717	n/a	LTP324	ltpFR2	0	n/a	n/a	n/a	21	11	1	6	4
3828.368	n/a	PROB	1914184	n/a	LTP324	ltpFR2	0	n/a	n/a	n/a	21	22	8	5	9
3829.952	n/a	PROB	1914976	n/a	LTP324	ltpFR2	0	n/a	n/a	n/a	21	20	8	6	6
3831.554	n/a	PROB	1915777	n/a	LTP324	ltpFR2	0	n/a	n/a	n/a	21	12	8	1	3
3833.346	n/a	STOP	1916673	n/a	LTP324	ltpFR2	0	n/a	n/a	n/a	21	n/a	n/a	n/a	n/a
3835.658	n/a	REC_START	1917829	n/a	LTP324	ltpFR2	0	14	n/a	n/a	n/a	n/a	0	0	0
3838.094	n/a	REC_WORD	1919047	wordpools/wasnorm_wordpool_576.txt	LTP324	ltpFR2	0	14	FIDDLE	561	n/a	n/a	0	0	0
3839.212	n/a	REC_WORD	1919606	wordpools/wasnorm_wordpool_576.txt	LTP324	ltpFR2	0	14	STATUE	1374	n/a	n/a	0	0	0
3841.51	n/a	REC_WORD	1920755	wordpools/wasnorm_wordpool_576.txt	LTP324	ltpFR2	0	14	BROTHER	179	n/a	n/a	0	0	0
3842.384	n/a	REC_WORD	1921192	wordpools/wasnorm_wordpool_576.txt	LTP324	ltpFR2	0	14	DRINK	498	n/a	n/a	0	0	0
3843.67	n/a	REC_WORD	1921835	wordpools/wasnorm_wordpool_576.txt	LTP324	ltpFR2	0	14	DRESS	495	n/a	n/a	0	0	0
3895.566	n/a	REC_WORD	1947783	wordpools/wasnorm_wordpool_576.txt	LTP324	ltpFR2	0	14	SCOTCH	1251	n/a	n/a	0	0	0
3903.204	n/a	REC_WORD	1951602	wordpools/wasnorm_wordpool_576.txt	LTP324	ltpFR2	0	14	BOUQUET	157	n/a	n/a	0	0	0
3903.83	n/a	REC_WORD	1951915	wordpools/wasnorm_wordpool_576.txt	LTP324	ltpFR2	0	14	LILY	821	n/a	n/a	0	0	0
3926.126	n/a	WORD	1963063	wordpools/wasnorm_wordpool_576.txt	LTP324	ltpFR2	0	15	COOKBOOK	373	n/a	n/a	0	0	0
3928.746	n/a	WORD	1964373	wordpools/wasnorm_wordpool_576.txt	LTP324	ltpFR2	0	15	GROUND	666	n/a	n/a	0	0	0
3931.348	n/a	WORD	1965674	wordpools/wasnorm_wordpool_576.txt	LTP324	ltpFR2	0	15	SPARROW	1347	n/a	n/a	0	0	0
3934.016	n/a	WORD	1967008	wordpools/wasnorm_wordpool_576.txt	LTP324	ltpFR2	0	15	QUAIL	1147	n/a	n/a	0	0	0
3936.586	n/a	WORD	1968293	wordpools/wasnorm_wordpool_576.txt	LTP324	ltpFR2	0	15	JELLY	755	n/a	n/a	0	0	0
3939.34	n/a	WORD	1969670	wordpools/wasnorm_wordpool_576.txt	LTP324	ltpFR2	0	15	LIPSTICK	829	n/a	n/a	0	0	0
3942.01	n/a	WORD	1971005	wordpools/wasnorm_wordpool_576.txt	LTP324	ltpFR2	0	15	SHORTS	1293	n/a	n/a	0	0	0
3944.614	n/a	WORD	1972307	wordpools/wasnorm_wordpool_576.txt	LTP324	ltpFR2	0	15	GOBLIN	645	n/a	n/a	0	0	0
3947.148	n/a	WORD	1973574	wordpools/wasnorm_wordpool_576.txt	LTP324	ltpFR2	0	15	POSTAGE	1113	n/a	n/a	0	0	0
3949.73	n/a	WORD	1974865	wordpools/wasnorm_wordpool_576.txt	LTP324	ltpFR2	0	15	GRIZZLY	662	n/a	n/a	0	0	0
3952.17	n/a	WORD	1976085	wordpools/wasnorm_wordpool_576.txt	LTP324	ltpFR2	0	15	PADDLE	1000	n/a	n/a	0	0	0
3954.684	n/a	WORD	1977342	wordpools/wasnorm_wordpool_576.txt	LTP324	ltpFR2	0	15	SMOG	1330	n/a	n/a	0	0	0
3957.368	n/a	WORD	1978684	wordpools/wasnorm_wordpool_576.txt	LTP324	ltpFR2	0	15	TUNNEL	1519	n/a	n/a	0	0	0
3960.02	n/a	WORD	1980010	wordpools/wasnorm_wordpool_576.txt	LTP324	ltpFR2	0	15	KNIFE	785	n/a	n/a	0	0	0
3962.744	n/a	WORD	1981372	wordpools/wasnorm_wordpool_576.txt	LTP324	ltpFR2	0	15	CHAPEL	280	n/a	n/a	0	0	0
3965.324	n/a	WORD	1982662	wordpools/wasnorm_wordpool_576.txt	LTP324	ltpFR2	0	15	IDOL	733	n/a	n/a	0	0	0
3967.96	n/a	WORD	1983980	wordpools/wasnorm_wordpool_576.txt	LTP324	ltpFR2	0	15	MATCH	878	n/a	n/a	0	0	0
3970.462	n/a	WORD	1985231	wordpools/wasnorm_wordpool_576.txt	LTP324	ltpFR2	0	15	DRAGON	492	n/a	n/a	0	0	0
3972.964	n/a	WORD	1986482	wordpools/wasnorm_wordpool_576.txt	LTP324	ltpFR2	0	15	MAILBOX	857	n/a	n/a	0	0	0
3975.54	n/a	WORD	1987770	wordpools/wasnorm_wordpool_576.txt	LTP324	ltpFR2	0	15	DUSTPAN	509	n/a	n/a	0	0	0
3978.072	n/a	WORD	1989036	wordpools/wasnorm_wordpool_576.txt	LTP324	ltpFR2	0	15	FIREPLACE	570	n/a	n/a	0	0	0
3980.604	n/a	WORD	1990302	wordpools/wasnorm_wordpool_576.txt	LTP324	ltpFR2	0	15	BURGLAR	200	n/a	n/a	0	0	0
3983.372	n/a	WORD	1991686	wordpools/wasnorm_wordpool_576.txt	LTP324	ltpFR2	0	15	KLEENEX	782	n/a	n/a	0	0	0
3985.974	n/a	WORD	1992987	wordpools/wasnorm_wordpool_576.txt	LTP324	ltpFR2	0	15	GRILL	661	n/a	n/a	0	0	0
3987.584	n/a	START	1993792	n/a	LTP324	ltpFR2	0	n/a	n/a	n/a	22	n/a	n/a	n/a	n/a
3988.702	n/a	DISTRACTOR	1994351	n/a	LTP324	ltpFR2	0	15	n/a	n/a	n/a	n/a	0	0	0
3988.71	n/a	PROB	1994355	n/a	LTP324	ltpFR2	0	n/a	n/a	n/a	22	11	8	2	1
3990.026	n/a	PROB	1995013	n/a	LTP324	ltpFR2	0	n/a	n/a	n/a	22	18	6	7	5
3991.694	n/a	PROB	1995847	n/a	LTP324	ltpFR2	0	n/a	n/a	n/a	22	24	6	9	9
3993.48	n/a	PROB	1996740	n/a	LTP324	ltpFR2	0	n/a	n/a	n/a	22	13	1	7	5
3994.746	n/a	PROB	1997373	n/a	LTP324	ltpFR2	0	n/a	n/a	n/a	22	20	9	9	2
3995.746	n/a	PROB	1997873	n/a	LTP324	ltpFR2	0	n/a	n/a	n/a	22	15	8	6	1
3996.666	n/a	PROB	1998333	n/a	LTP324	ltpFR2	0	n/a	n/a	n/a	22	15	7	6	2
3997.684	n/a	PROB	1998842	n/a	LTP324	ltpFR2	0	n/a	n/a	n/a	22	13	8	1	4
3999.134	n/a	PROB	1999567	n/a	LTP324	ltpFR2	0	n/a	n/a	n/a	22	19	4	6	9
4002.268	n/a	PROB	2001134	n/a	LTP324	ltpFR2	0	n/a	n/a	n/a	22	16	5	5	6
4003.302	n/a	PROB	2001651	n/a	LTP324	ltpFR2	0	n/a	n/a	n/a	22	14	5	8	1
4004.538	n/a	PROB	2002269	n/a	LTP324	ltpFR2	0	n/a	n/a	n/a	22	15	8	4	3
4006.254	n/a	PROB	2003127	n/a	LTP324	ltpFR2	0	n/a	n/a	n/a	22	15	4	8	2
4007.374	n/a	PROB	2003687	n/a	LTP324	ltpFR2	0	n/a	n/a	n/a	22	17	6	8	3
4009.676	n/a	PROB	2004838	n/a	LTP324	ltpFR2	0	n/a	n/a	n/a	22	11	4	2	5
4011.188	n/a	STOP	2005594	n/a	LTP324	ltpFR2	0	n/a	n/a	n/a	22	n/a	n/a	n/a	n/a
4013.328	n/a	REC_START	2006664	n/a	LTP324	ltpFR2	0	15	n/a	n/a	n/a	n/a	0	0	0
4015.372	n/a	REC_WORD	2007686	wordpools/wasnorm_wordpool_576.txt	LTP324	ltpFR2	0	15	GRILL	661	n/a	n/a	0	0	0
4023.13	n/a	REC_WORD	2011565	wordpools/wasnorm_wordpool_576.txt	LTP324	ltpFR2	0	15	DRAGON	492	n/a	n/a	0	0	0
4024.266	n/a	REC_WORD	2012133	wordpools/wasnorm_wordpool_576.txt	LTP324	ltpFR2	0	15	MATCH	878	n/a	n/a	0	0	0
4045.81	n/a	REC_WORD	2022905	wordpools/wasnorm_wordpool_576.txt	LTP324	ltpFR2	0	15	COOKBOOK	373	n/a	n/a	0	0	0
4103.78	n/a	DISTRACTOR	2051890	n/a	LTP324	ltpFR2	0	16	n/a	n/a	n/a	n/a	0	0	0
4103.78	n/a	START	2051890	n/a	LTP324	ltpFR2	0	n/a	n/a	n/a	23	n/a	n/a	n/a	n/a
4103.798	n/a	PROB	2051899	n/a	LTP324	ltpFR2	0	n/a	n/a	n/a	23	14	2	7	5
4105.314	n/a	PROB	2052657	n/a	LTP324	ltpFR2	0	n/a	n/a	n/a	23	11	1	2	8
4106.414	n/a	PROB	2053207	n/a	LTP324	ltpFR2	0	n/a	n/a	n/a	23	15	2	4	9
4108.32	n/a	PROB	2054160	n/a	LTP324	ltpFR2	0	n/a	n/a	n/a	23	11	1	3	7
4109.402	n/a	PROB	2054701	n/a	LTP324	ltpFR2	0	n/a	n/a	n/a	23	9	2	3	4
4111.706	n/a	PROB	2055853	n/a	LTP324	ltpFR2	0	n/a	n/a	n/a	23	19	5	9	5
4112.72	n/a	PROB	2056360	n/a	LTP324	ltpFR2	0	n/a	n/a	n/a	23	24	9	7	8
4114.456	n/a	PROB	2057228	n/a	LTP324	ltpFR2	0	n/a	n/a	n/a	23	17	1	7	9
4116.36	n/a	PROB	2058180	n/a	LTP324	ltpFR2	0	n/a	n/a	n/a	23	14	1	9	4
4117.808	n/a	PROB	2058904	n/a	LTP324	ltpFR2	0	n/a	n/a	n/a	23	18	9	5	4
4119.76	n/a	PROB	2059880	n/a	LTP324	ltpFR2	0	n/a	n/a	n/a	23	20	4	9	7
4121.312	n/a	PROB	2060656	n/a	LTP324	ltpFR2	0	n/a	n/a	n/a	23	10	4	4	2
4122.262	n/a	PROB	2061131	n/a	LTP324	ltpFR2	0	n/a	n/a	n/a	23	9	4	1	4
4123.246	n/a	PROB	2061623	n/a	LTP324	ltpFR2	0	n/a	n/a	n/a	23	14	2	5	7
4125.714	n/a	PROB	2062857	n/a	LTP324	ltpFR2	0	n/a	n/a	n/a	23	9	4	1	4
4127.118	n/a	STOP	2063559	n/a	LTP324	ltpFR2	0	n/a	n/a	n/a	23	n/a	n/a	n/a	n/a
4128.968	n/a	WORD	2064484	wordpools/wasnorm_wordpool_576.txt	LTP324	ltpFR2	0	16	GAVEL	627	n/a	n/a	0	0	0
4131.67	n/a	WORD	2065835	wordpools/wasnorm_wordpool_576.txt	LTP324	ltpFR2	0	16	JUDGE	761	n/a	n/a	0	0	0
4134.288	n/a	WORD	2067144	wordpools/wasnorm_wordpool_576.txt	LTP324	ltpFR2	0	16	PREACHER	1119	n/a	n/a	0	0	0
4136.958	n/a	WORD	2068479	wordpools/wasnorm_wordpool_576.txt	LTP324	ltpFR2	0	16	ROCKET	1202	n/a	n/a	0	0	0
4139.794	n/a	WORD	2069897	wordpools/wasnorm_wordpool_576.txt	LTP324	ltpFR2	0	16	FUNGUS	614	n/a	n/a	0	0	0
4142.446	n/a	WORD	2071223	wordpools/wasnorm_wordpool_576.txt	LTP324	ltpFR2	0	16	TAXI	1438	n/a	n/a	0	0	0
4144.88	n/a	WORD	2072440	wordpools/wasnorm_wordpool_576.txt	LTP324	ltpFR2	0	16	DOLPHIN	483	n/a	n/a	0	0	0
4147.332	n/a	WORD	2073666	wordpools/wasnorm_wordpool_576.txt	LTP324	ltpFR2	0	16	STICKER	1382	n/a	n/a	0	0	0
4150.086	n/a	WORD	2075043	wordpools/wasnorm_wordpool_576.txt	LTP324	ltpFR2	0	16	HOOD	714	n/a	n/a	0	0	0
4152.82	n/a	WORD	2076410	wordpools/wasnorm_wordpool_576.txt	LTP324	ltpFR2	0	16	CREVICE	405	n/a	n/a	0	0	0
4155.556	n/a	WORD	2077778	wordpools/wasnorm_wordpool_576.txt	LTP324	ltpFR2	0	16	DOUGHNUT	490	n/a	n/a	0	0	0
4158.24	n/a	WORD	2079120	wordpools/wasnorm_wordpool_576.txt	LTP324	ltpFR2	0	16	DAISY	435	n/a	n/a	0	0	0
4160.91	n/a	WORD	2080455	wordpools/wasnorm_wordpool_576.txt	LTP324	ltpFR2	0	16	CHURCH	307	n/a	n/a	0	0	0
4163.562	n/a	WORD	2081781	wordpools/wasnorm_wordpool_576.txt	LTP324	ltpFR2	0	16	STAR	1373	n/a	n/a	0	0	0
4166.048	n/a	WORD	2083024	wordpools/wasnorm_wordpool_576.txt	LTP324	ltpFR2	0	16	CASHIER	254	n/a	n/a	0	0	0
4168.516	n/a	WORD	2084258	wordpools/wasnorm_wordpool_576.txt	LTP324	ltpFR2	0	16	AGENT	10	n/a	n/a	0	0	0
4171.268	n/a	WORD	2085634	wordpools/wasnorm_wordpool_576.txt	LTP324	ltpFR2	0	16	BLENDER	136	n/a	n/a	0	0	0
4173.802	n/a	WORD	2086901	wordpools/wasnorm_wordpool_576.txt	LTP324	ltpFR2	0	16	SALT	1229	n/a	n/a	0	0	0
4176.306	n/a	WORD	2088153	wordpools/wasnorm_wordpool_576.txt	LTP324	ltpFR2	0	16	BUBBLE	183	n/a	n/a	0	0	0
4179.108	n/a	WORD	2089554	wordpools/wasnorm_wordpool_576.txt	LTP324	ltpFR2	0	16	COMET	353	n/a	n/a	0	0	0
4181.576	n/a	WORD	2090788	wordpools/wasnorm_wordpool_576.txt	LTP324	ltpFR2	0	16	TILE	1468	n/a	n/a	0	0	0
4184.044	n/a	WORD	2092022	wordpools/wasnorm_wordpool_576.txt	LTP324	ltpFR2	0	16	CONTRACT	368	n/a	n/a	0	0	0
4186.83	n/a	WORD	2093415	wordpools/wasnorm_wordpool_576.txt	LTP324	ltpFR2	0	16	BANKER	84	n/a	n/a	0	0	0
4189.432	n/a	WORD	2094716	wordpools/wasnorm_wordpool_576.txt	LTP324	ltpFR2	0	16	CANAL	226	n/a	n/a	0	0	0
4191.038	n/a	START	2095519	n/a	LTP324	ltpFR2	0	n/a	n/a	n/a	24	n/a	n/a	n/a	n/a
4192.036	n/a	DISTRACTOR	2096018	n/a	LTP324	ltpFR2	0	16	n/a	n/a	n/a	n/a	0	0	0
4192.05	n/a	PROB	2096025	n/a	LTP324	ltpFR2	0	n/a	n/a	n/a	24	8	4	1	3
4193.452	n/a	PROB	2096726	n/a	LTP324	ltpFR2	0	n/a	n/a	n/a	24	16	5	5	6
4194.434	n/a	PROB	2097217	n/a	LTP324	ltpFR2	0	n/a	n/a	n/a	24	14	4	4	6
4196.086	n/a	PROB	2098043	n/a	LTP324	ltpFR2	0	n/a	n/a	n/a	24	17	8	6	3
4197.688	n/a	PROB	2098844	n/a	LTP324	ltpFR2	0	n/a	n/a	n/a	24	19	4	9	6
4199.556	n/a	PROB	2099778	n/a	LTP324	ltpFR2	0	n/a	n/a	n/a	24	9	2	4	3
4200.706	n/a	PROB	2100353	n/a	LTP324	ltpFR2	0	n/a	n/a	n/a	24	11	2	7	2
4202.274	n/a	PROB	2101137	n/a	LTP324	ltpFR2	0	n/a	n/a	n/a	24	16	2	4	8
4205.344	n/a	PROB	2102672	n/a	LTP324	ltpFR2	0	n/a	n/a	n/a	24	12	3	6	3
4207.548	n/a	PROB	2103774	n/a	LTP324	ltpFR2	0	n/a	n/a	n/a	24	13	1	8	4
4208.912	n/a	PROB	2104456	n/a	LTP324	ltpFR2	0	n/a	n/a	n/a	24	15	4	2	8
4210.114	n/a	PROB	2105057	n/a	LTP324	ltpFR2	0	n/a	n/a	n/a	24	21	3	9	9
4211.932	n/a	PROB	2105966	n/a	LTP324	ltpFR2	0	n/a	n/a	n/a	24	12	1	7	4
4213.316	n/a	PROB	2106658	n/a	LTP324	ltpFR2	0	n/a	n/a	n/a	24	10	5	2	3
4214.944	n/a	STOP	2107472	n/a	LTP324	ltpFR2	0	n/a	n/a	n/a	24	n/a	n/a	n/a	n/a
4216.802	n/a	REC_START	2108401	n/a	LTP324	ltpFR2	0	16	n/a	n/a	n/a	n/a	0	0	0
4217.746	n/a	REC_WORD	2108873	wordpools/wasnorm_wordpool_576.txt	LTP324	ltpFR2	0	16	GAVEL	627	n/a	n/a	0	0	0
4218.93	n/a	REC_WORD	2109465	wordpools/wasnorm_wordpool_576.txt	LTP324	ltpFR2	0	16	JUDGE	761	n/a	n/a	0	0	0
4220.954	n/a	REC_WORD	2110477	wordpools/wasnorm_wordpool_576.txt	LTP324	ltpFR2	0	16	COMET	353	n/a	n/a	0	0	0
4266.556	n/a	REC_WORD	2133278	wordpools/wasnorm_wordpool_576.txt	LTP324	ltpFR2	0	16	CASKET	255	n/a	n/a	0	0	0
4288.654	n/a	REC_WORD	2144327	wordpools/wasnorm_wordpool_576.txt	LTP324	ltpFR2	0	16	SHELL	1281	n/a	n/a	0	0	0
4293.33	n/a	REST_REWET	2146665	n/a	LTP324	ltpFR2	0	16	n/a	n/a	n/a	n/a	0	0	0
4670.722	n/a	WORD	2335361	wordpools/wasnorm_wordpool_576.txt	LTP324	ltpFR2	0	17	PASTA	1021	n/a	n/a	0	0	0
4673.278	n/a	WORD	2336639	wordpools/wasnorm_wordpool_576.txt	LTP324	ltpFR2	0	17	MEDAL	885	n/a	n/a	0	0	0
4675.71	n/a	WORD	2337855	wordpools/wasnorm_wordpool_576.txt	LTP324	ltpFR2	0	17	AWARD	63	n/a	n/a	0	0	0
4678.416	n/a	WORD	2339208	wordpools/wasnorm_wordpool_576.txt	LTP324	ltpFR2	0	17	SLIDE	1326	n/a	n/a	0	0	0
4681.048	n/a	WORD	2340524	wordpools/wasnorm_wordpool_576.txt	LTP324	ltpFR2	0	17	SPOOL	1356	n/a	n/a	0	0	0
4683.838	n/a	WORD	2341919	wordpools/wasnorm_wordpool_576.txt	LTP324	ltpFR2	0	17	CLAMP	316	n/a	n/a	0	0	0
4686.324	n/a	WORD	2343162	wordpools/wasnorm_wordpool_576.txt	LTP324	ltpFR2	0	17	PICNIC	1060	n/a	n/a	0	0	0
4688.854	n/a	WORD	2344427	wordpools/wasnorm_wordpool_576.txt	LTP324	ltpFR2	0	17	SLOPE	1328	n/a	n/a	0	0	0
4691.646	n/a	WORD	2345823	wordpools/wasnorm_wordpool_576.txt	LTP324	ltpFR2	0	17	PLAYGROUND	1087	n/a	n/a	0	0	0
4694.208	n/a	WORD	2347104	wordpools/wasnorm_wordpool_576.txt	LTP324	ltpFR2	0	17	PIANO	1057	n/a	n/a	0	0	0
4696.794	n/a	WORD	2348397	wordpools/wasnorm_wordpool_576.txt	LTP324	ltpFR2	0	17	YARN	1631	n/a	n/a	0	0	0
4699.262	n/a	WORD	2349631	wordpools/wasnorm_wordpool_576.txt	LTP324	ltpFR2	0	17	PORTRAIT	1111	n/a	n/a	0	0	0
4701.914	n/a	WORD	2350957	wordpools/wasnorm_wordpool_576.txt	LTP324	ltpFR2	0	17	PARTNER	1017	n/a	n/a	0	0	0
4704.44	n/a	WORD	2352220	wordpools/wasnorm_wordpool_576.txt	LTP324	ltpFR2	0	17	SISTER	1312	n/a	n/a	0	0	0
4707.24	n/a	WORD	2353620	wordpools/wasnorm_wordpool_576.txt	LTP324	ltpFR2	0	17	TRIBE	1505	n/a	n/a	0	0	0
4709.976	n/a	WORD	2354988	wordpools/wasnorm_wordpool_576.txt	LTP324	ltpFR2	0	17	FLASK	576	n/a	n/a	0	0	0
4712.564	n/a	WORD	2356282	wordpools/wasnorm_wordpool_576.txt	LTP324	ltpFR2	0	17	BROOK	177	n/a	n/a	0	0	0
4715.174	n/a	WORD	2357587	wordpools/wasnorm_wordpool_576.txt	LTP324	ltpFR2	0	17	LACE	792	n/a	n/a	0	0	0
4717.61	n/a	WORD	2358805	wordpools/wasnorm_wordpool_576.txt	LTP324	ltpFR2	0	17	ICING	732	n/a	n/a	0	0	0
4720.418	n/a	WORD	2360209	wordpools/wasnorm_wordpool_576.txt	LTP324	ltpFR2	0	17	SCULPTURE	1258	n/a	n/a	0	0	0
4723.238	n/a	WORD	2361619	wordpools/wasnorm_wordpool_576.txt	LTP324	ltpFR2	0	17	SALAD	1224	n/a	n/a	0	0	0
4725.916	n/a	WORD	2362958	wordpools/wasnorm_wordpool_576.txt	LTP324	ltpFR2	0	17	FLIPPER	580	n/a	n/a	0	0	0
4728.436	n/a	WORD	2364218	wordpools/wasnorm_wordpool_576.txt	LTP324	ltpFR2	0	17	SHARK	1275	n/a	n/a	0	0	0
4731.036	n/a	WORD	2365518	wordpools/wasnorm_wordpool_576.txt	LTP324	ltpFR2	0	17	TOASTER	1472	n/a	n/a	0	0	0
4732.648	n/a	START	2366324	n/a	LTP324	ltpFR2	0	n/a	n/a	n/a	25	n/a	n/a	n/a	n/a
4733.836	n/a	DISTRACTOR	2366918	n/a	LTP324	ltpFR2	0	17	n/a	n/a	n/a	n/a	0	0	0
4733.848	n/a	PROB	2366924	n/a	LTP324	ltpFR2	0	n/a	n/a	n/a	25	7	3	2	2
4735.356	n/a	PROB	2367678	n/a	LTP324	ltpFR2	0	n/a	n/a	n/a	25	6	3	1	2
4736.29	n/a	PROB	2368145	n/a	LTP324	ltpFR2	0	n/a	n/a	n/a	25	17	1	7	9
4737.642	n/a	PROB	2368821	n/a	LTP324	ltpFR2	0	n/a	n/a	n/a	25	110	1	5	4
4738.742	n/a	PROB	2369371	n/a	LTP324	ltpFR2	0	n/a	n/a	n/a	25	18	5	5	8
4739.86	n/a	PROB	2369930	n/a	LTP324	ltpFR2	0	n/a	n/a	n/a	25	12	1	9	3
4740.862	n/a	PROB	2370431	n/a	LTP324	ltpFR2	0	n/a	n/a	n/a	25	14	2	3	9
4742.464	n/a	PROB	2371232	n/a	LTP324	ltpFR2	0	n/a	n/a	n/a	25	22	4	9	9
4743.728	n/a	PROB	2371864	n/a	LTP324	ltpFR2	0	n/a	n/a	n/a	25	16	8	3	5
4744.864	n/a	PROB	2372432	n/a	LTP324	ltpFR2	0	n/a	n/a	n/a	25	13	5	7	1
4746.264	n/a	PROB	2373132	n/a	LTP324	ltpFR2	0	n/a	n/a	n/a	25	19	8	3	8
4747.582	n/a	PROB	2373791	n/a	LTP324	ltpFR2	0	n/a	n/a	n/a	25	23	8	9	6
4749.316	n/a	PROB	2374658	n/a	LTP324	ltpFR2	0	n/a	n/a	n/a	25	16	5	8	3
4750.434	n/a	PROB	2375217	n/a	LTP324	ltpFR2	0	n/a	n/a	n/a	25	12	4	3	5
4752.268	n/a	PROB	2376134	n/a	LTP324	ltpFR2	0	n/a	n/a	n/a	25	10	8	1	1
4753.522	n/a	PROB	2376761	n/a	LTP324	ltpFR2	0	n/a	n/a	n/a	25	15	6	5	4
4754.606	n/a	PROB	2377303	n/a	LTP324	ltpFR2	0	n/a	n/a	n/a	25	11	4	4	3
4756.16	n/a	STOP	2378080	n/a	LTP324	ltpFR2	0	n/a	n/a	n/a	25	n/a	n/a	n/a	n/a
4758.392	n/a	REC_START	2379196	n/a	LTP324	ltpFR2	0	17	n/a	n/a	n/a	n/a	0	0	0
4759.594	n/a	REC_WORD	2379797	wordpools/wasnorm_wordpool_576.txt	LTP324	ltpFR2	0	17	SCULPTURE	1258	n/a	n/a	0	0	0
4760.978	n/a	REC_WORD	2380489	wordpools/wasnorm_wordpool_576.txt	LTP324	ltpFR2	0	17	SALAD	1224	n/a	n/a	0	0	0
4764.352	n/a	REC_WORD	2382176	wordpools/wasnorm_wordpool_576.txt	LTP324	ltpFR2	0	17	AWARD	63	n/a	n/a	0	0	0
4765.346	n/a	REC_WORD	2382673	wordpools/wasnorm_wordpool_576.txt	LTP324	ltpFR2	0	17	MEDAL	885	n/a	n/a	0	0	0
4766.718	n/a	REC_WORD	2383359	wordpools/wasnorm_wordpool_576.txt	LTP324	ltpFR2	0	17	SPOOL	1356	n/a	n/a	0	0	0
4768.744	n/a	REC_WORD	2384372	wordpools/wasnorm_wordpool_576.txt	LTP324	ltpFR2	0	17	LACE	792	n/a	n/a	0	0	0
4771.884	n/a	REC_WORD	2385942	wordpools/wasnorm_wordpool_576.txt	LTP324	ltpFR2	0	17	THREAD	1460	n/a	n/a	0	0	0
4825.11	n/a	REC_WORD	2412555	wordpools/wasnorm_wordpool_576.txt	LTP324	ltpFR2	0	17	TOAST	1471	n/a	n/a	0	0	0
4829.384	n/a	REC_WORD	2414692	wordpools/wasnorm_wordpool_576.txt	LTP324	ltpFR2	0	17	ICING	732	n/a	n/a	0	0	0
4848.844	n/a	DISTRACTOR	2424422	n/a	LTP324	ltpFR2	0	18	n/a	n/a	n/a	n/a	0	0	0
4848.844	n/a	START	2424422	n/a	LTP324	ltpFR2	0	n/a	n/a	n/a	26	n/a	n/a	n/a	n/a
4848.862	n/a	PROB	2424431	n/a	LTP324	ltpFR2	0	n/a	n/a	n/a	26	19	8	5	6
4850.664	n/a	PROB	2425332	n/a	LTP324	ltpFR2	0	n/a	n/a	n/a	26	6	2	2	2
4851.448	n/a	PROB	2425724	n/a	LTP324	ltpFR2	0	n/a	n/a	n/a	26	13	3	8	2
4853.28	n/a	PROB	2426640	n/a	LTP324	ltpFR2	0	n/a	n/a	n/a	26	9	5	3	1
4854.682	n/a	PROB	2427341	n/a	LTP324	ltpFR2	0	n/a	n/a	n/a	26	23	7	8	8
4856.484	n/a	PROB	2428242	n/a	LTP324	ltpFR2	0	n/a	n/a	n/a	26	2	7	4	9
4858.302	n/a	PROB	2429151	n/a	LTP324	ltpFR2	0	n/a	n/a	n/a	26	21	9	8	4
4861.654	n/a	PROB	2430827	n/a	LTP324	ltpFR2	0	n/a	n/a	n/a	26	9	7	1	1
4862.54	n/a	PROB	2431270	n/a	LTP324	ltpFR2	0	n/a	n/a	n/a	26	13	4	1	8
4863.656	n/a	PROB	2431828	n/a	LTP324	ltpFR2	0	n/a	n/a	n/a	26	18	8	7	3
4864.79	n/a	PROB	2432395	n/a	LTP324	ltpFR2	0	n/a	n/a	n/a	26	17	6	4	7
4866.908	n/a	PROB	2433454	n/a	LTP324	ltpFR2	0	n/a	n/a	n/a	26	15	6	8	1
4868.044	n/a	PROB	2434022	n/a	LTP324	ltpFR2	0	n/a	n/a	n/a	26	16	6	9	1
4869.662	n/a	PROB	2434831	n/a	LTP324	ltpFR2	0	n/a	n/a	n/a	26	11	4	2	5
4870.926	n/a	PROB	2435463	n/a	LTP324	ltpFR2	0	n/a	n/a	n/a	26	17	4	5	8
4872.378	n/a	STOP	2436189	n/a	LTP324	ltpFR2	0	n/a	n/a	n/a	26	n/a	n/a	n/a	n/a
4873.848	n/a	WORD	2436924	wordpools/wasnorm_wordpool_576.txt	LTP324	ltpFR2	0	18	OUTFIT	988	n/a	n/a	0	0	0
4876.6	n/a	WORD	2438300	wordpools/wasnorm_wordpool_576.txt	LTP324	ltpFR2	0	18	WASHER	1592	n/a	n/a	0	0	0
4879.352	n/a	WORD	2439676	wordpools/wasnorm_wordpool_576.txt	LTP324	ltpFR2	0	18	COTTAGE	384	n/a	n/a	0	0	0
4882.172	n/a	WORD	2441086	wordpools/wasnorm_wordpool_576.txt	LTP324	ltpFR2	0	18	MACHINE	852	n/a	n/a	0	0	0
4884.858	n/a	WORD	2442429	wordpools/wasnorm_wordpool_576.txt	LTP324	ltpFR2	0	18	CROSS	413	n/a	n/a	0	0	0
4887.408	n/a	WORD	2443704	wordpools/wasnorm_wordpool_576.txt	LTP324	ltpFR2	0	18	FRIAR	605	n/a	n/a	0	0	0
4890.01	n/a	WORD	2445005	wordpools/wasnorm_wordpool_576.txt	LTP324	ltpFR2	0	18	CANDY	230	n/a	n/a	0	0	0
4892.814	n/a	WORD	2446407	wordpools/wasnorm_wordpool_576.txt	LTP324	ltpFR2	0	18	TOMBSTONE	1478	n/a	n/a	0	0	0
4895.516	n/a	WORD	2447758	wordpools/wasnorm_wordpool_576.txt	LTP324	ltpFR2	0	18	GALLON	618	n/a	n/a	0	0	0
4898.054	n/a	WORD	2449027	wordpools/wasnorm_wordpool_576.txt	LTP324	ltpFR2	0	18	CROWN	415	n/a	n/a	0	0	0
4900.486	n/a	WORD	2450243	wordpools/wasnorm_wordpool_576.txt	LTP324	ltpFR2	0	18	MOP	916	n/a	n/a	0	0	0
4903.19	n/a	WORD	2451595	wordpools/wasnorm_wordpool_576.txt	LTP324	ltpFR2	0	18	EYELASH	546	n/a	n/a	0	0	0
4905.744	n/a	WORD	2452872	wordpools/wasnorm_wordpool_576.txt	LTP324	ltpFR2	0	18	HUSBAND	728	n/a	n/a	0	0	0
4908.408	n/a	WORD	2454204	wordpools/wasnorm_wordpool_576.txt	LTP324	ltpFR2	0	18	WIDOW	1608	n/a	n/a	0	0	0
4911.132	n/a	WORD	2455566	wordpools/wasnorm_wordpool_576.txt	LTP324	ltpFR2	0	18	TART	1436	n/a	n/a	0	0	0
4913.65	n/a	WORD	2456825	wordpools/wasnorm_wordpool_576.txt	LTP324	ltpFR2	0	18	BLOCKADE	137	n/a	n/a	0	0	0
4916.198	n/a	WORD	2458099	wordpools/wasnorm_wordpool_576.txt	LTP324	ltpFR2	0	18	PISTON	1076	n/a	n/a	0	0	0
4918.784	n/a	WORD	2459392	wordpools/wasnorm_wordpool_576.txt	LTP324	ltpFR2	0	18	TROUT	1511	n/a	n/a	0	0	0
4921.302	n/a	WORD	2460651	wordpools/wasnorm_wordpool_576.txt	LTP324	ltpFR2	0	18	GAZELLE	628	n/a	n/a	0	0	0
4923.936	n/a	WORD	2461968	wordpools/wasnorm_wordpool_576.txt	LTP324	ltpFR2	0	18	FRANCE	601	n/a	n/a	0	0	0
4926.74	n/a	WORD	2463370	wordpools/wasnorm_wordpool_576.txt	LTP324	ltpFR2	0	18	GLOVE	642	n/a	n/a	0	0	0
4929.458	n/a	WORD	2464729	wordpools/wasnorm_wordpool_576.txt	LTP324	ltpFR2	0	18	GANGSTER	620	n/a	n/a	0	0	0
4931.96	n/a	WORD	2465980	wordpools/wasnorm_wordpool_576.txt	LTP324	ltpFR2	0	18	STAPLE	1371	n/a	n/a	0	0	0
4934.378	n/a	WORD	2467189	wordpools/wasnorm_wordpool_576.txt	LTP324	ltpFR2	0	18	CIGAR	308	n/a	n/a	0	0	0
4935.986	n/a	START	2467993	n/a	LTP324	ltpFR2	0	n/a	n/a	n/a	27	n/a	n/a	n/a	n/a
4936.96	n/a	DISTRACTOR	2468480	n/a	LTP324	ltpFR2	0	18	n/a	n/a	n/a	n/a	0	0	0
4936.964	n/a	PROB	2468482	n/a	LTP324	ltpFR2	0	n/a	n/a	n/a	27	8	1	1	6
4937.882	n/a	PROB	2468941	n/a	LTP324	ltpFR2	0	n/a	n/a	n/a	27	22	9	8	5
4939.782	n/a	PROB	2469891	n/a	LTP324	ltpFR2	0	n/a	n/a	n/a	27	113	3	4	6
4941.266	n/a	PROB	2470633	n/a	LTP324	ltpFR2	0	n/a	n/a	n/a	27	16	8	7	1
4942.752	n/a	PROB	2471376	n/a	LTP324	ltpFR2	0	n/a	n/a	n/a	27	12	3	5	4
4944.204	n/a	PROB	2472102	n/a	LTP324	ltpFR2	0	n/a	n/a	n/a	27	13	7	5	1
4945.77	n/a	PROB	2472885	n/a	LTP324	ltpFR2	0	n/a	n/a	n/a	27	21	8	9	4
4947.056	n/a	PROB	2473528	n/a	LTP324	ltpFR2	0	n/a	n/a	n/a	27	21	9	3	9
4948.624	n/a	PROB	2474312	n/a	LTP324	ltpFR2	0	n/a	n/a	n/a	27	8	2	4	2
4949.672	n/a	PROB	2474836	n/a	LTP324	ltpFR2	0	n/a	n/a	n/a	27	15	4	2	9
4950.84	n/a	PROB	2475420	n/a	LTP324	ltpFR2	0	n/a	n/a	n/a	27	13	5	4	4
4952.692	n/a	PROB	2476346	n/a	LTP324	ltpFR2	0	n/a	n/a	n/a	27	11	2	9	7
4953.876	n/a	PROB	2476938	n/a	LTP324	ltpFR2	0	n/a	n/a	n/a	27	19	4	6	9
4956.044	n/a	PROB	2478022	n/a	LTP324	ltpFR2	0	n/a	n/a	n/a	27	26	7	8	8
4957.412	n/a	PROB	2478706	n/a	LTP324	ltpFR2	0	n/a	n/a	n/a	27	9	2	5	2
4958.644	n/a	STOP	2479322	n/a	LTP324	ltpFR2	0	n/a	n/a	n/a	27	n/a	n/a	n/a	n/a
4961.916	n/a	REC_START	2480958	n/a	LTP324	ltpFR2	0	18	n/a	n/a	n/a	n/a	0	0	0
4962.702	n/a	REC_WORD	2481351	wordpools/wasnorm_wordpool_576.txt	LTP324	ltpFR2	0	18	TART	1436	n/a	n/a	0	0	0
4964.644	n/a	REC_WORD	2482322	wordpools/wasnorm_wordpool_576.txt	LTP324	ltpFR2	0	18	CROWN	415	n/a	n/a	0	0	0
4966.24	n/a	REC_WORD	2483120	wordpools/wasnorm_wordpool_576.txt	LTP324	ltpFR2	0	18	FRIAR	605	n/a	n/a	0	0	0
4968.706	n/a	REC_WORD	2484353	wordpools/wasnorm_wordpool_576.txt	LTP324	ltpFR2	0	18	CROSS	413	n/a	n/a	0	0	0
4979.696	n/a	REC_WORD	2489848	wordpools/wasnorm_wordpool_576.txt	LTP324	ltpFR2	0	18	COTTAGE	384	n/a	n/a	0	0	0
4987.602	n/a	REC_WORD	2493801	wordpools/wasnorm_wordpool_576.txt	LTP324	ltpFR2	0	18	CANDY	230	n/a	n/a	0	0	0
4990.122	n/a	REC_WORD	2495061	wordpools/wasnorm_wordpool_576.txt	LTP324	ltpFR2	0	18	WASHER	1592	n/a	n/a	0	0	0
4990.892	n/a	REC_WORD	2495446	wordpools/wasnorm_wordpool_576.txt	LTP324	ltpFR2	0	18	MACHINE	852	n/a	n/a	0	0	0
4996.758	n/a	REC_WORD	2498379	wordpools/wasnorm_wordpool_576.txt	LTP324	ltpFR2	0	18	PISTON	1076	n/a	n/a	0	0	0
5096.704	n/a	WORD	2548352	wordpools/wasnorm_wordpool_576.txt	LTP324	ltpFR2	0	19	RIVER	1194	n/a	n/a	0	0	0
5099.526	n/a	WORD	2549763	wordpools/wasnorm_wordpool_576.txt	LTP324	ltpFR2	0	19	LAGOON	795	n/a	n/a	0	0	0
5102.26	n/a	WORD	2551130	wordpools/wasnorm_wordpool_576.txt	LTP324	ltpFR2	0	19	OFFICE	972	n/a	n/a	0	0	0
5104.694	n/a	WORD	2552347	wordpools/wasnorm_wordpool_576.txt	LTP324	ltpFR2	0	19	HUMAN	726	n/a	n/a	0	0	0
5107.246	n/a	WORD	2553623	wordpools/wasnorm_wordpool_576.txt	LTP324	ltpFR2	0	19	FOOTBALL	591	n/a	n/a	0	0	0
5109.832	n/a	WORD	2554916	wordpools/wasnorm_wordpool_576.txt	LTP324	ltpFR2	0	19	HORNET	718	n/a	n/a	0	0	0
5112.6	n/a	WORD	2556300	wordpools/wasnorm_wordpool_576.txt	LTP324	ltpFR2	0	19	SIDEWALK	1303	n/a	n/a	0	0	0
5115.084	n/a	WORD	2557542	wordpools/wasnorm_wordpool_576.txt	LTP324	ltpFR2	0	19	RUST	1219	n/a	n/a	0	0	0
5117.704	n/a	WORD	2558852	wordpools/wasnorm_wordpool_576.txt	LTP324	ltpFR2	0	19	WORKER	1621	n/a	n/a	0	0	0
5120.222	n/a	WORD	2560111	wordpools/wasnorm_wordpool_576.txt	LTP324	ltpFR2	0	19	CORAL	378	n/a	n/a	0	0	0
5122.808	n/a	WORD	2561404	wordpools/wasnorm_wordpool_576.txt	LTP324	ltpFR2	0	19	ORCHID	982	n/a	n/a	0	0	0
5125.276	n/a	WORD	2562638	wordpools/wasnorm_wordpool_576.txt	LTP324	ltpFR2	0	19	ROD	1203	n/a	n/a	0	0	0
5127.778	n/a	WORD	2563889	wordpools/wasnorm_wordpool_576.txt	LTP324	ltpFR2	0	19	RATTLE	1170	n/a	n/a	0	0	0
5130.532	n/a	WORD	2565266	wordpools/wasnorm_wordpool_576.txt	LTP324	ltpFR2	0	19	VICTIM	1562	n/a	n/a	0	0	0
5133.184	n/a	WORD	2566592	wordpools/wasnorm_wordpool_576.txt	LTP324	ltpFR2	0	19	BULLET	194	n/a	n/a	0	0	0
5135.704	n/a	WORD	2567852	wordpools/wasnorm_wordpool_576.txt	LTP324	ltpFR2	0	19	STONE	1385	n/a	n/a	0	0	0
5138.454	n/a	WORD	2569227	wordpools/wasnorm_wordpool_576.txt	LTP324	ltpFR2	0	19	WASP	1593	n/a	n/a	0	0	0
5140.906	n/a	WORD	2570453	wordpools/wasnorm_wordpool_576.txt	LTP324	ltpFR2	0	19	COCKTAIL	338	n/a	n/a	0	0	0
5143.39	n/a	WORD	2571695	wordpools/wasnorm_wordpool_576.txt	LTP324	ltpFR2	0	19	CITRUS	313	n/a	n/a	0	0	0
5146.126	n/a	WORD	2573063	wordpools/wasnorm_wordpool_576.txt	LTP324	ltpFR2	0	19	FRUIT	610	n/a	n/a	0	0	0
5148.828	n/a	WORD	2574414	wordpools/wasnorm_wordpool_576.txt	LTP324	ltpFR2	0	19	GRAPE	654	n/a	n/a	0	0	0
5151.548	n/a	WORD	2575774	wordpools/wasnorm_wordpool_576.txt	LTP324	ltpFR2	0	19	BRIEFCASE	175	n/a	n/a	0	0	0
5154.348	n/a	WORD	2577174	wordpools/wasnorm_wordpool_576.txt	LTP324	ltpFR2	0	19	CATCHER	258	n/a	n/a	0	0	0
5156.918	n/a	WORD	2578459	wordpools/wasnorm_wordpool_576.txt	LTP324	ltpFR2	0	19	BLUEPRINT	142	n/a	n/a	0	0	0
5158.526	n/a	START	2579263	n/a	LTP324	ltpFR2	0	n/a	n/a	n/a	28	n/a	n/a	n/a	n/a
5159.712	n/a	DISTRACTOR	2579856	n/a	LTP324	ltpFR2	0	19	n/a	n/a	n/a	n/a	0	0	0
5159.72	n/a	PROB	2579860	n/a	LTP324	ltpFR2	0	n/a	n/a	n/a	28	11	2	2	7
5160.804	n/a	PROB	2580402	n/a	LTP324	ltpFR2	0	n/a	n/a	n/a	28	15	6	5	4
5162.522	n/a	PROB	2581261	n/a	LTP324	ltpFR2	0	n/a	n/a	n/a	28	21	7	5	9
5164.492	n/a	PROB	2582246	n/a	LTP324	ltpFR2	0	n/a	n/a	n/a	28	13	5	1	7
5165.706	n/a	PROB	2582853	n/a	LTP324	ltpFR2	0	n/a	n/a	n/a	28	20	4	9	7
5167.126	n/a	PROB	2583563	n/a	LTP324	ltpFR2	0	n/a	n/a	n/a	28	11	3	5	3
5168.26	n/a	PROB	2584130	n/a	LTP324	ltpFR2	0	n/a	n/a	n/a	28	16	4	4	8
5169.796	n/a	PROB	2584898	n/a	LTP324	ltpFR2	0	n/a	n/a	n/a	28	17	4	8	5
5171.378	n/a	PROB	2585689	n/a	LTP324	ltpFR2	0	n/a	n/a	n/a	28	13	4	5	4
5173.28	n/a	PROB	2586640	n/a	LTP324	ltpFR2	0	n/a	n/a	n/a	28	15	2	6	7
5174.482	n/a	PROB	2587241	n/a	LTP324	ltpFR2	0	n/a	n/a	n/a	28	15	4	6	5
5176.0	n/a	PROB	2588000	n/a	LTP324	ltpFR2	0	n/a	n/a	n/a	28	18	8	3	7
5177.318	n/a	PROB	2588659	n/a	LTP324	ltpFR2	0	n/a	n/a	n/a	28	12	9	1	2
5178.636	n/a	PROB	2589318	n/a	LTP324	ltpFR2	0	n/a	n/a	n/a	28	18	8	4	6
5182.526	n/a	STOP	2591263	n/a	LTP324	ltpFR2	0	n/a	n/a	n/a	28	n/a	n/a	n/a	n/a
5184.322	n/a	REC_START	2592161	n/a	LTP324	ltpFR2	0	19	n/a	n/a	n/a	n/a	0	0	0
5185.288	n/a	REC_WORD	2592644	wordpools/wasnorm_wordpool_576.txt	LTP324	ltpFR2	0	19	CATCHER	258	n/a	n/a	0	0	0
5186.22	n/a	REC_WORD	2593110	wordpools/wasnorm_wordpool_576.txt	LTP324	ltpFR2	0	19	FOOTBALL	591	n/a	n/a	0	0	0
