onset	duration	trial_type	sample	stim_file	subject	experiment	session	trial	task	item_name	item_num	recog_resp	recog_conf	resp	color_r	color_g	color_b	case	font
217.618	n/a	SESS_START	108809	n/a	LTP089	ltpFR	5	n/a	n/a	n/a	n/a	0	5	n/a	n/a	n/a	n/a	n/a	n/a
258.458	n/a	WORD	129229	wordpools/wasnorm_wordpool.txt	LTP089	ltpFR	5	1	0	TOASTER	1472	1	n/a	1	0.422607421875	0.5869140625	0	lower	amplitud.ttf
262.61	n/a	WORD	131305	wordpools/wasnorm_wordpool.txt	LTP089	ltpFR	5	1	0	LOAF	835	n/a	n/a	1	0.422607421875	0.5869140625	0	lower	amplitud.ttf
266.776	n/a	WORD	133388	wordpools/wasnorm_wordpool.txt	LTP089	ltpFR	5	1	0	SEAT	1264	n/a	n/a	0	0.422607421875	0.5869140625	0	lower	amplitud.ttf
270.984	n/a	WORD	135492	wordpools/wasnorm_wordpool.txt	LTP089	ltpFR	5	1	1	IGLOO	734	n/a	n/a	0	0.57763671875	0.412841796875	1	upper	zerothre.ttf
275.1	n/a	WORD	137550	wordpools/wasnorm_wordpool.txt	LTP089	ltpFR	5	1	1	VAMPIRE	1547	n/a	n/a	0	0.57763671875	0.412841796875	1	upper	zerothre.ttf
279.0	n/a	WORD	139500	wordpools/wasnorm_wordpool.txt	LTP089	ltpFR	5	1	1	CABIN	211	n/a	n/a	0	0.57763671875	0.412841796875	1	upper	zerothre.ttf
283.11	n/a	WORD	141555	wordpools/wasnorm_wordpool.txt	LTP089	ltpFR	5	1	0	BUCKLE	185	n/a	n/a	0	0.422607421875	0.5869140625	0	lower	amplitud.ttf
286.926	n/a	WORD	143463	wordpools/wasnorm_wordpool.txt	LTP089	ltpFR	5	1	0	HANDKERCHIEF	686	n/a	n/a	1	0.422607421875	0.5869140625	0	lower	amplitud.ttf
290.984	n/a	WORD	145492	wordpools/wasnorm_wordpool.txt	LTP089	ltpFR	5	1	0	COYOTE	396	n/a	n/a	1	0.422607421875	0.5869140625	0	lower	amplitud.ttf
294.832	n/a	WORD	147416	wordpools/wasnorm_wordpool.txt	LTP089	ltpFR	5	1	0	COTTAGE	384	n/a	n/a	1	0.422607421875	0.5869140625	0	lower	amplitud.ttf
298.926	n/a	WORD	149463	wordpools/wasnorm_wordpool.txt	LTP089	ltpFR	5	1	0	STRAW	1390	n/a	n/a	0	0.422607421875	0.5869140625	0	lower	amplitud.ttf
302.758	n/a	WORD	151379	wordpools/wasnorm_wordpool.txt	LTP089	ltpFR	5	1	1	GRASSHOPPER	656	n/a	n/a	0	0.57763671875	0.412841796875	1	upper	zerothre.ttf
306.858	n/a	WORD	153429	wordpools/wasnorm_wordpool.txt	LTP089	ltpFR	5	1	1	SUBURB	1399	n/a	n/a	0	0.57763671875	0.412841796875	1	upper	zerothre.ttf
311.05	n/a	WORD	155525	wordpools/wasnorm_wordpool.txt	LTP089	ltpFR	5	1	1	HOME	712	n/a	n/a	0	0.57763671875	0.412841796875	1	upper	zerothre.ttf
314.924	n/a	WORD	157462	wordpools/wasnorm_wordpool.txt	LTP089	ltpFR	5	1	1	GAZELLE	628	n/a	n/a	0	0.57763671875	0.412841796875	1	upper	zerothre.ttf
319.024	n/a	WORD	159512	wordpools/wasnorm_wordpool.txt	LTP089	ltpFR	5	1	1	BUG	187	n/a	n/a	1	0.57763671875	0.412841796875	1	upper	zerothre.ttf
324.95	n/a	REC_START	162475	n/a	LTP089	ltpFR	5	1	n/a	n/a	n/a	n/a	n/a	n/a	n/a	n/a	n/a	n/a	n/a
327.38	n/a	REC_WORD	163690	wordpools/wasnorm_wordpool.txt	LTP089	ltpFR	5	1	1	GRASSHOPPER	656	n/a	n/a	0	n/a	n/a	n/a	n/a	n/a
328.068	n/a	REC_WORD	164034	wordpools/wasnorm_wordpool.txt	LTP089	ltpFR	5	1	1	BUG	187	n/a	n/a	1	n/a	n/a	n/a	n/a	n/a
328.478	n/a	REC_WORD	164239	wordpools/wasnorm_wordpool.txt	LTP089	ltpFR	5	1	0	COYOTE	396	n/a	n/a	1	n/a	n/a	n/a	n/a	n/a
329.206	n/a	REC_WORD	164603	wordpools/wasnorm_wordpool.txt	LTP089	ltpFR	5	1	n/a	TOAST	1471	n/a	n/a	n/a	n/a	n/a	n/a	n/a	n/a
330.502	n/a	REC_WORD	165251	wordpools/wasnorm_wordpool.txt	LTP089	ltpFR	5	1	n/a	BREAD	170	n/a	n/a	n/a	n/a	n/a	n/a	n/a	n/a
330.972	n/a	REC_WORD_VV	165486	wordpools/wasnorm_wordpool.txt	LTP089	ltpFR	5	1	n/a	<>	-1	n/a	n/a	n/a	n/a	n/a	n/a	n/a	n/a
331.346	n/a	REC_WORD_VV	165673	wordpools/wasnorm_wordpool.txt	LTP089	ltpFR	5	1	n/a	<>	-1	n/a	n/a	n/a	n/a	n/a	n/a	n/a	n/a
331.704	n/a	REC_WORD	165852	wordpools/wasnorm_wordpool.txt	LTP089	ltpFR	5	1	0	LOAF	835	n/a	n/a	1	n/a	n/a	n/a	n/a	n/a
333.006	n/a	REC_WORD	166503	wordpools/wasnorm_wordpool.txt	LTP089	ltpFR	5	1	1	VAMPIRE	1547	n/a	n/a	0	n/a	n/a	n/a	n/a	n/a
333.894	n/a	REC_WORD	166947	wordpools/wasnorm_wordpool.txt	LTP089	ltpFR	5	1	0	BUCKLE	185	n/a	n/a	0	n/a	n/a	n/a	n/a	n/a
334.792	n/a	REC_WORD_VV	167396	wordpools/wasnorm_wordpool.txt	LTP089	ltpFR	5	1	n/a	<>	-1	n/a	n/a	n/a	n/a	n/a	n/a	n/a	n/a
338.944	n/a	REC_WORD	169472	wordpools/wasnorm_wordpool.txt	LTP089	ltpFR	5	1	n/a	LOG	841	n/a	n/a	n/a	n/a	n/a	n/a	n/a	n/a
339.334	n/a	REC_WORD	169667	wordpools/wasnorm_wordpool.txt	LTP089	ltpFR	5	1	1	CABIN	211	n/a	n/a	0	n/a	n/a	n/a	n/a	n/a
340.232	n/a	REC_WORD_VV	170116	wordpools/wasnorm_wordpool.txt	LTP089	ltpFR	5	1	n/a	<>	-1	n/a	n/a	n/a	n/a	n/a	n/a	n/a	n/a
340.62	n/a	REC_WORD	170310	wordpools/wasnorm_wordpool.txt	LTP089	ltpFR	5	1	n/a	WOODS	-1	n/a	n/a	n/a	n/a	n/a	n/a	n/a	n/a
342.606	n/a	REC_WORD_VV	171303	wordpools/wasnorm_wordpool.txt	LTP089	ltpFR	5	1	n/a	<>	-1	n/a	n/a	n/a	n/a	n/a	n/a	n/a	n/a
346.862	n/a	REC_WORD_VV	173431	wordpools/wasnorm_wordpool.txt	LTP089	ltpFR	5	1	n/a	<>	-1	n/a	n/a	n/a	n/a	n/a	n/a	n/a	n/a
403.43	n/a	WORD	201715	wordpools/wasnorm_wordpool.txt	LTP089	ltpFR	5	2	1	FARMER	553	n/a	n/a	2	0.57763671875	0.412841796875	1	upper	zerothre.ttf
404.498	n/a	KEY_MSG	202249	n/a	LTP089	ltpFR	5	2	n/a	n/a	n/a	n/a	n/a	n/a	n/a	n/a	n/a	n/a	n/a
407.614	n/a	WORD	203807	wordpools/wasnorm_wordpool.txt	LTP089	ltpFR	5	2	1	CART	250	n/a	n/a	0	0.57763671875	0.412841796875	1	upper	zerothre.ttf
411.614	n/a	WORD	205807	wordpools/wasnorm_wordpool.txt	LTP089	ltpFR	5	2	1	SHELTER	1282	n/a	n/a	0	0.57763671875	0.412841796875	1	upper	zerothre.ttf
415.63	n/a	WORD	207815	wordpools/wasnorm_wordpool.txt	LTP089	ltpFR	5	2	1	TORTOISE	1486	n/a	n/a	0	0.57763671875	0.412841796875	1	upper	zerothre.ttf
419.496	n/a	WORD	209748	wordpools/wasnorm_wordpool.txt	LTP089	ltpFR	5	2	1	CROSS	413	n/a	n/a	0	0.57763671875	0.412841796875	1	upper	zerothre.ttf
423.588	n/a	WORD	211794	wordpools/wasnorm_wordpool.txt	LTP089	ltpFR	5	2	0	ICEBERG	731	n/a	n/a	1	0.422607421875	0.5869140625	0	lower	amplitud.ttf
427.738	n/a	WORD	213869	wordpools/wasnorm_wordpool.txt	LTP089	ltpFR	5	2	0	SANDWICH	1232	n/a	n/a	0	0.422607421875	0.5869140625	0	lower	amplitud.ttf
431.604	n/a	WORD	215802	wordpools/wasnorm_wordpool.txt	LTP089	ltpFR	5	2	0	OLIVE	975	n/a	n/a	1	0.422607421875	0.5869140625	0	lower	amplitud.ttf
435.504	n/a	WORD	217752	wordpools/wasnorm_wordpool.txt	LTP089	ltpFR	5	2	0	TUNA	1518	n/a	n/a	0	0.422607421875	0.5869140625	0	lower	amplitud.ttf
439.63	n/a	WORD	219815	wordpools/wasnorm_wordpool.txt	LTP089	ltpFR	5	2	1	KEEPER	769	n/a	n/a	0	0.57763671875	0.412841796875	1	upper	zerothre.ttf
443.572	n/a	WORD	221786	wordpools/wasnorm_wordpool.txt	LTP089	ltpFR	5	2	1	HEATER	698	n/a	n/a	0	0.57763671875	0.412841796875	1	upper	zerothre.ttf
447.588	n/a	WORD	223794	wordpools/wasnorm_wordpool.txt	LTP089	ltpFR	5	2	1	TOMB	1477	n/a	n/a	0	0.57763671875	0.412841796875	1	upper	zerothre.ttf
451.728	n/a	WORD	225864	wordpools/wasnorm_wordpool.txt	LTP089	ltpFR	5	2	0	FISH	571	n/a	n/a	0	0.422607421875	0.5869140625	0	lower	amplitud.ttf
455.796	n/a	WORD	227898	wordpools/wasnorm_wordpool.txt	LTP089	ltpFR	5	2	0	NET	946	n/a	n/a	0	0.422607421875	0.5869140625	0	lower	amplitud.ttf
459.846	n/a	WORD	229923	wordpools/wasnorm_wordpool.txt	LTP089	ltpFR	5	2	0	SERPENT	1270	n/a	n/a	1	0.422607421875	0.5869140625	0	lower	amplitud.ttf
463.746	n/a	WORD	231873	wordpools/wasnorm_wordpool.txt	LTP089	ltpFR	5	2	0	REPTILE	1185	n/a	n/a	1	0.422607421875	0.5869140625	0	lower	amplitud.ttf
469.72	n/a	REC_START	234860	n/a	LTP089	ltpFR	5	2	n/a	n/a	n/a	n/a	n/a	n/a	n/a	n/a	n/a	n/a	n/a
473.846	n/a	REC_WORD	236923	wordpools/wasnorm_wordpool.txt	LTP089	ltpFR	5	2	0	REPTILE	1185	n/a	n/a	1	n/a	n/a	n/a	n/a	n/a
474.59	n/a	REC_WORD	237295	wordpools/wasnorm_wordpool.txt	LTP089	ltpFR	5	2	1	IGLOO	734	n/a	n/a	0	n/a	n/a	n/a	n/a	n/a
475.138	n/a	REC_WORD	237569	wordpools/wasnorm_wordpool.txt	LTP089	ltpFR	5	2	n/a	IGUANNA	-1	n/a	n/a	n/a	n/a	n/a	n/a	n/a	n/a
476.684	n/a	REC_WORD_VV	238342	wordpools/wasnorm_wordpool.txt	LTP089	ltpFR	5	2	n/a	<>	-1	n/a	n/a	n/a	n/a	n/a	n/a	n/a	n/a
479.784	n/a	REC_WORD	239892	wordpools/wasnorm_wordpool.txt	LTP089	ltpFR	5	2	0	ICEBERG	731	n/a	n/a	1	n/a	n/a	n/a	n/a	n/a
480.766	n/a	REC_WORD	240383	wordpools/wasnorm_wordpool.txt	LTP089	ltpFR	5	2	0	OLIVE	975	n/a	n/a	1	n/a	n/a	n/a	n/a	n/a
481.53	n/a	REC_WORD	240765	wordpools/wasnorm_wordpool.txt	LTP089	ltpFR	5	2	0	SANDWICH	1232	n/a	n/a	0	n/a	n/a	n/a	n/a	n/a
484.762	n/a	REC_WORD_VV	242381	wordpools/wasnorm_wordpool.txt	LTP089	ltpFR	5	2	n/a	<>	-1	n/a	n/a	n/a	n/a	n/a	n/a	n/a	n/a
530.612	n/a	REC_WORD	265306	wordpools/wasnorm_wordpool.txt	LTP089	ltpFR	5	2	0	ICEBERG	731	n/a	n/a	1	n/a	n/a	n/a	n/a	n/a
534.986	n/a	REC_WORD	267493	wordpools/wasnorm_wordpool.txt	LTP089	ltpFR	5	2	1	TORTOISE	1486	n/a	n/a	0	n/a	n/a	n/a	n/a	n/a
535.748	n/a	REC_WORD	267874	wordpools/wasnorm_wordpool.txt	LTP089	ltpFR	5	2	1	CROSS	413	n/a	n/a	0	n/a	n/a	n/a	n/a	n/a
537.774	n/a	REC_WORD	268887	wordpools/wasnorm_wordpool.txt	LTP089	ltpFR	5	2	1	KEEPER	769	n/a	n/a	0	n/a	n/a	n/a	n/a	n/a
540.458	n/a	REC_WORD	270229	wordpools/wasnorm_wordpool.txt	LTP089	ltpFR	5	2	1	FARMER	553	n/a	n/a	2	n/a	n/a	n/a	n/a	n/a
551.744	n/a	WORD	275872	wordpools/wasnorm_wordpool.txt	LTP089	ltpFR	5	3	1	ZUCCHINI	1638	n/a	n/a	3	0.57763671875	0.412841796875	1	upper	zerothre.ttf
552.22	n/a	KEY_MSG	276110	n/a	LTP089	ltpFR	5	3	n/a	n/a	n/a	n/a	n/a	n/a	n/a	n/a	n/a	n/a	n/a
555.726	n/a	WORD	277863	wordpools/wasnorm_wordpool.txt	LTP089	ltpFR	5	3	1	CLIMBER	323	n/a	n/a	1	0.57763671875	0.412841796875	1	upper	zerothre.ttf
559.752	n/a	WORD	279876	wordpools/wasnorm_wordpool.txt	LTP089	ltpFR	5	3	1	GAVEL	627	n/a	n/a	0	0.57763671875	0.412841796875	1	upper	zerothre.ttf
563.918	n/a	WORD	281959	wordpools/wasnorm_wordpool.txt	LTP089	ltpFR	5	3	1	RACKET	1155	n/a	n/a	0	0.57763671875	0.412841796875	1	upper	zerothre.ttf
567.792	n/a	WORD	283896	wordpools/wasnorm_wordpool.txt	LTP089	ltpFR	5	3	0	SOFTBALL	1343	n/a	n/a	1	0.422607421875	0.5869140625	0	lower	amplitud.ttf
571.7	n/a	WORD	285850	wordpools/wasnorm_wordpool.txt	LTP089	ltpFR	5	3	0	DETECTIVE	454	n/a	n/a	1	0.422607421875	0.5869140625	0	lower	amplitud.ttf
575.608	n/a	WORD	287804	wordpools/wasnorm_wordpool.txt	LTP089	ltpFR	5	3	0	AGENT	10	n/a	n/a	1	0.422607421875	0.5869140625	0	lower	amplitud.ttf
579.618	n/a	WORD	289809	wordpools/wasnorm_wordpool.txt	LTP089	ltpFR	5	3	1	BATTERY	101	n/a	n/a	0	0.57763671875	0.412841796875	1	upper	zerothre.ttf
583.776	n/a	WORD	291888	wordpools/wasnorm_wordpool.txt	LTP089	ltpFR	5	3	1	FACTORY	548	n/a	n/a	0	0.57763671875	0.412841796875	1	upper	zerothre.ttf
587.61	n/a	WORD	293805	wordpools/wasnorm_wordpool.txt	LTP089	ltpFR	5	3	0	STUMP	1396	n/a	n/a	1	0.422607421875	0.5869140625	0	lower	amplitud.ttf
591.568	n/a	WORD	295784	wordpools/wasnorm_wordpool.txt	LTP089	ltpFR	5	3	0	WAX	1597	n/a	n/a	1	0.422607421875	0.5869140625	0	lower	amplitud.ttf
595.7	n/a	WORD	297850	wordpools/wasnorm_wordpool.txt	LTP089	ltpFR	5	3	0	BINDER	127	n/a	n/a	1	0.422607421875	0.5869140625	0	lower	amplitud.ttf
599.784	n/a	WORD	299892	wordpools/wasnorm_wordpool.txt	LTP089	ltpFR	5	3	0	HOE	711	n/a	n/a	1	0.422607421875	0.5869140625	0	lower	amplitud.ttf
603.768	n/a	WORD	301884	wordpools/wasnorm_wordpool.txt	LTP089	ltpFR	5	3	0	LIEUTENANT	818	n/a	n/a	1	0.422607421875	0.5869140625	0	lower	amplitud.ttf
607.884	n/a	WORD	303942	wordpools/wasnorm_wordpool.txt	LTP089	ltpFR	5	3	1	CAFETERIA	217	n/a	n/a	1	0.57763671875	0.412841796875	1	upper	zerothre.ttf
611.708	n/a	WORD	305854	wordpools/wasnorm_wordpool.txt	LTP089	ltpFR	5	3	1	JUDGE	761	n/a	n/a	1	0.57763671875	0.412841796875	1	upper	zerothre.ttf
617.708	n/a	REC_START	308854	n/a	LTP089	ltpFR	5	3	n/a	n/a	n/a	n/a	n/a	n/a	n/a	n/a	n/a	n/a	n/a
619.65	n/a	REC_WORD	309825	wordpools/wasnorm_wordpool.txt	LTP089	ltpFR	5	3	1	CAFETERIA	217	n/a	n/a	1	n/a	n/a	n/a	n/a	n/a
620.322	n/a	REC_WORD	310161	wordpools/wasnorm_wordpool.txt	LTP089	ltpFR	5	3	1	JUDGE	761	n/a	n/a	1	n/a	n/a	n/a	n/a	n/a
620.762	n/a	REC_WORD	310381	wordpools/wasnorm_wordpool.txt	LTP089	ltpFR	5	3	0	LIEUTENANT	818	n/a	n/a	1	n/a	n/a	n/a	n/a	n/a
621.466	n/a	REC_WORD	310733	wordpools/wasnorm_wordpool.txt	LTP089	ltpFR	5	3	0	DETECTIVE	454	n/a	n/a	1	n/a	n/a	n/a	n/a	n/a
622.044	n/a	REC_WORD	311022	wordpools/wasnorm_wordpool.txt	LTP089	ltpFR	5	3	1	ZUCCHINI	1638	n/a	n/a	3	n/a	n/a	n/a	n/a	n/a
622.664	n/a	REC_WORD	311332	wordpools/wasnorm_wordpool.txt	LTP089	ltpFR	5	3	1	CLIMBER	323	n/a	n/a	1	n/a	n/a	n/a	n/a	n/a
691.168	n/a	REC_WORD	345584	wordpools/wasnorm_wordpool.txt	LTP089	ltpFR	5	3	1	GAVEL	627	n/a	n/a	0	n/a	n/a	n/a	n/a	n/a
691.908	n/a	REC_WORD	345954	wordpools/wasnorm_wordpool.txt	LTP089	ltpFR	5	3	1	JUDGE	761	n/a	n/a	1	n/a	n/a	n/a	n/a	n/a
698.09	n/a	WORD	349045	wordpools/wasnorm_wordpool.txt	LTP089	ltpFR	5	4	1	SKYSCRAPER	1322	n/a	n/a	3	0.57763671875	0.412841796875	1	upper	zerothre.ttf
698.522	n/a	KEY_MSG	349261	n/a	LTP089	ltpFR	5	4	n/a	n/a	n/a	n/a	n/a	n/a	n/a	n/a	n/a	n/a	n/a
701.958	n/a	WORD	350979	wordpools/wasnorm_wordpool.txt	LTP089	ltpFR	5	4	1	BRIEFCASE	175	n/a	n/a	0	0.57763671875	0.412841796875	1	upper	zerothre.ttf
705.89	n/a	WORD	352945	wordpools/wasnorm_wordpool.txt	LTP089	ltpFR	5	4	1	LOFT	840	n/a	n/a	0	0.57763671875	0.412841796875	1	upper	zerothre.ttf
709.89	n/a	WORD	354945	wordpools/wasnorm_wordpool.txt	LTP089	ltpFR	5	4	1	ANTEATER	26	n/a	n/a	0	0.57763671875	0.412841796875	1	upper	zerothre.ttf
713.706	n/a	WORD	356853	wordpools/wasnorm_wordpool.txt	LTP089	ltpFR	5	4	1	FLEA	577	n/a	n/a	1	0.57763671875	0.412841796875	1	upper	zerothre.ttf
717.672	n/a	WORD	358836	wordpools/wasnorm_wordpool.txt	LTP089	ltpFR	5	4	1	MOAT	903	n/a	n/a	0	0.57763671875	0.412841796875	1	upper	zerothre.ttf
721.798	n/a	WORD	360899	wordpools/wasnorm_wordpool.txt	LTP089	ltpFR	5	4	1	CHIP	303	n/a	n/a	0	0.57763671875	0.412841796875	1	upper	zerothre.ttf
725.83	n/a	WORD	362915	wordpools/wasnorm_wordpool.txt	LTP089	ltpFR	5	4	1	COBBLER	335	n/a	n/a	0	0.57763671875	0.412841796875	1	upper	zerothre.ttf
729.688	n/a	WORD	364844	wordpools/wasnorm_wordpool.txt	LTP089	ltpFR	5	4	1	COLUMN	350	n/a	n/a	0	0.57763671875	0.412841796875	1	upper	zerothre.ttf
733.756	n/a	WORD	366878	wordpools/wasnorm_wordpool.txt	LTP089	ltpFR	5	4	1	CONE	363	n/a	n/a	0	0.57763671875	0.412841796875	1	upper	zerothre.ttf
737.93	n/a	WORD	368965	wordpools/wasnorm_wordpool.txt	LTP089	ltpFR	5	4	1	BERRY	122	n/a	n/a	0	0.57763671875	0.412841796875	1	upper	zerothre.ttf
741.964	n/a	WORD	370982	wordpools/wasnorm_wordpool.txt	LTP089	ltpFR	5	4	1	KNAPSACK	783	n/a	n/a	1	0.57763671875	0.412841796875	1	upper	zerothre.ttf
745.896	n/a	WORD	372948	wordpools/wasnorm_wordpool.txt	LTP089	ltpFR	5	4	1	KANGAROO	768	n/a	n/a	1	0.57763671875	0.412841796875	1	upper	zerothre.ttf
750.056	n/a	WORD	375028	wordpools/wasnorm_wordpool.txt	LTP089	ltpFR	5	4	1	INFANT	737	n/a	n/a	0	0.57763671875	0.412841796875	1	upper	zerothre.ttf
754.006	n/a	WORD	377003	wordpools/wasnorm_wordpool.txt	LTP089	ltpFR	5	4	1	DIAPER	459	n/a	n/a	0	0.57763671875	0.412841796875	1	upper	zerothre.ttf
757.912	n/a	WORD	378956	wordpools/wasnorm_wordpool.txt	LTP089	ltpFR	5	4	1	CHIEF	298	n/a	n/a	0	0.57763671875	0.412841796875	1	upper	zerothre.ttf
763.756	n/a	REC_START	381878	n/a	LTP089	ltpFR	5	4	n/a	n/a	n/a	n/a	n/a	n/a	n/a	n/a	n/a	n/a	n/a
766.31	n/a	REC_WORD	383155	wordpools/wasnorm_wordpool.txt	LTP089	ltpFR	5	4	1	SKYSCRAPER	1322	n/a	n/a	3	n/a	n/a	n/a	n/a	n/a
767.344	n/a	REC_WORD	383672	wordpools/wasnorm_wordpool.txt	LTP089	ltpFR	5	4	1	BRIEFCASE	175	n/a	n/a	0	n/a	n/a	n/a	n/a	n/a
767.96	n/a	REC_WORD	383980	wordpools/wasnorm_wordpool.txt	LTP089	ltpFR	5	4	1	ANTEATER	26	n/a	n/a	0	n/a	n/a	n/a	n/a	n/a
768.624	n/a	REC_WORD	384312	wordpools/wasnorm_wordpool.txt	LTP089	ltpFR	5	4	1	LOFT	840	n/a	n/a	0	n/a	n/a	n/a	n/a	n/a
769.478	n/a	REC_WORD	384739	wordpools/wasnorm_wordpool.txt	LTP089	ltpFR	5	4	1	MOAT	903	n/a	n/a	0	n/a	n/a	n/a	n/a	n/a
770.436	n/a	REC_WORD	385218	wordpools/wasnorm_wordpool.txt	LTP089	ltpFR	5	4	1	CHIP	303	n/a	n/a	0	n/a	n/a	n/a	n/a	n/a
771.562	n/a	REC_WORD_VV	385781	wordpools/wasnorm_wordpool.txt	LTP089	ltpFR	5	4	n/a	<>	-1	n/a	n/a	n/a	n/a	n/a	n/a	n/a	n/a
772.182	n/a	REC_WORD	386091	wordpools/wasnorm_wordpool.txt	LTP089	ltpFR	5	4	1	DIAPER	459	n/a	n/a	0	n/a	n/a	n/a	n/a	n/a
773.04	n/a	REC_WORD	386520	wordpools/wasnorm_wordpool.txt	LTP089	ltpFR	5	4	1	INFANT	737	n/a	n/a	0	n/a	n/a	n/a	n/a	n/a
774.974	n/a	REC_WORD_VV	387487	wordpools/wasnorm_wordpool.txt	LTP089	ltpFR	5	4	n/a	<>	-1	n/a	n/a	n/a	n/a	n/a	n/a	n/a	n/a
778.368	n/a	REC_WORD	389184	wordpools/wasnorm_wordpool.txt	LTP089	ltpFR	5	4	1	COBBLER	335	n/a	n/a	0	n/a	n/a	n/a	n/a	n/a
841.886	n/a	WORD	420943	wordpools/wasnorm_wordpool.txt	LTP089	ltpFR	5	5	0	PRUNE	1134	n/a	n/a	1	0.422607421875	0.5869140625	0	lower	amplitud.ttf
845.92	n/a	WORD	422960	wordpools/wasnorm_wordpool.txt	LTP089	ltpFR	5	5	0	PLAID	1080	n/a	n/a	1	0.422607421875	0.5869140625	0	lower	amplitud.ttf
849.894	n/a	WORD	424947	wordpools/wasnorm_wordpool.txt	LTP089	ltpFR	5	5	0	PEAR	1033	n/a	n/a	0	0.422607421875	0.5869140625	0	lower	amplitud.ttf
854.002	n/a	WORD	427001	wordpools/wasnorm_wordpool.txt	LTP089	ltpFR	5	5	0	VILLAGE	1566	n/a	n/a	1	0.422607421875	0.5869140625	0	lower	amplitud.ttf
858.162	n/a	WORD	429081	wordpools/wasnorm_wordpool.txt	LTP089	ltpFR	5	5	0	CORPORATION	382	n/a	n/a	0	0.422607421875	0.5869140625	0	lower	amplitud.ttf
862.178	n/a	WORD	431089	wordpools/wasnorm_wordpool.txt	LTP089	ltpFR	5	5	0	KITCHEN	778	n/a	n/a	1	0.422607421875	0.5869140625	0	lower	amplitud.ttf
866.362	n/a	WORD	433181	wordpools/wasnorm_wordpool.txt	LTP089	ltpFR	5	5	0	RECIPE	1175	n/a	n/a	1	0.422607421875	0.5869140625	0	lower	amplitud.ttf
870.32	n/a	WORD	435160	wordpools/wasnorm_wordpool.txt	LTP089	ltpFR	5	5	0	VEAL	1551	n/a	n/a	1	0.422607421875	0.5869140625	0	lower	amplitud.ttf
874.502	n/a	WORD	437251	wordpools/wasnorm_wordpool.txt	LTP089	ltpFR	5	5	0	OWNER	993	n/a	n/a	1	0.422607421875	0.5869140625	0	lower	amplitud.ttf
878.51	n/a	WORD	439255	wordpools/wasnorm_wordpool.txt	LTP089	ltpFR	5	5	0	SHOP	1290	n/a	n/a	1	0.422607421875	0.5869140625	0	lower	amplitud.ttf
882.618	n/a	WORD	441309	wordpools/wasnorm_wordpool.txt	LTP089	ltpFR	5	5	0	VINE	1568	n/a	n/a	1	0.422607421875	0.5869140625	0	lower	amplitud.ttf
886.794	n/a	WORD	443397	wordpools/wasnorm_wordpool.txt	LTP089	ltpFR	5	5	0	POTATO	1115	n/a	n/a	1	0.422607421875	0.5869140625	0	lower	amplitud.ttf
890.726	n/a	WORD	445363	wordpools/wasnorm_wordpool.txt	LTP089	ltpFR	5	5	0	PHILOSOPHER	1054	n/a	n/a	1	0.422607421875	0.5869140625	0	lower	amplitud.ttf
894.55	n/a	WORD	447275	wordpools/wasnorm_wordpool.txt	LTP089	ltpFR	5	5	0	CLOSET	326	n/a	n/a	1	0.422607421875	0.5869140625	0	lower	amplitud.ttf
898.476	n/a	WORD	449238	wordpools/wasnorm_wordpool.txt	LTP089	ltpFR	5	5	0	HOOD	714	n/a	n/a	1	0.422607421875	0.5869140625	0	lower	amplitud.ttf
902.402	n/a	WORD	451201	wordpools/wasnorm_wordpool.txt	LTP089	ltpFR	5	5	0	MECHANIC	884	n/a	n/a	1	0.422607421875	0.5869140625	0	lower	amplitud.ttf
908.186	n/a	REC_START	454093	n/a	LTP089	ltpFR	5	5	n/a	n/a	n/a	n/a	n/a	n/a	n/a	n/a	n/a	n/a	n/a
909.692	n/a	REC_WORD	454846	wordpools/wasnorm_wordpool.txt	LTP089	ltpFR	5	5	0	MECHANIC	884	n/a	n/a	1	n/a	n/a	n/a	n/a	n/a
910.092	n/a	REC_WORD	455046	wordpools/wasnorm_wordpool.txt	LTP089	ltpFR	5	5	0	PHILOSOPHER	1054	n/a	n/a	1	n/a	n/a	n/a	n/a	n/a
910.628	n/a	REC_WORD	455314	wordpools/wasnorm_wordpool.txt	LTP089	ltpFR	5	5	0	HOOD	714	n/a	n/a	1	n/a	n/a	n/a	n/a	n/a
911.188	n/a	REC_WORD	455594	wordpools/wasnorm_wordpool.txt	LTP089	ltpFR	5	5	0	CLOSET	326	n/a	n/a	1	n/a	n/a	n/a	n/a	n/a
916.292	n/a	REC_WORD	458146	wordpools/wasnorm_wordpool.txt	LTP089	ltpFR	5	5	0	CORPORATION	382	n/a	n/a	0	n/a	n/a	n/a	n/a	n/a
917.174	n/a	REC_WORD	458587	wordpools/wasnorm_wordpool.txt	LTP089	ltpFR	5	5	0	RECIPE	1175	n/a	n/a	1	n/a	n/a	n/a	n/a	n/a
918.298	n/a	REC_WORD	459149	wordpools/wasnorm_wordpool.txt	LTP089	ltpFR	5	5	0	KITCHEN	778	n/a	n/a	1	n/a	n/a	n/a	n/a	n/a
992.706	n/a	WORD	496353	wordpools/wasnorm_wordpool.txt	LTP089	ltpFR	5	6	1	REFRIGERATOR	1179	n/a	n/a	1	0.57763671875	0.412841796875	1	upper	zerothre.ttf
996.648	n/a	WORD	498324	wordpools/wasnorm_wordpool.txt	LTP089	ltpFR	5	6	1	BANDAGE	79	n/a	n/a	0	0.57763671875	0.412841796875	1	upper	zerothre.ttf
1000.474	n/a	WORD	500237	wordpools/wasnorm_wordpool.txt	LTP089	ltpFR	5	6	1	APRON	35	n/a	n/a	0	0.57763671875	0.412841796875	1	upper	zerothre.ttf
1004.632	n/a	WORD	502316	wordpools/wasnorm_wordpool.txt	LTP089	ltpFR	5	6	1	TOAD	1470	n/a	n/a	1	0.57763671875	0.412841796875	1	upper	zerothre.ttf
1008.564	n/a	WORD	504282	wordpools/wasnorm_wordpool.txt	LTP089	ltpFR	5	6	1	TEAPOT	1442	n/a	n/a	1	0.57763671875	0.412841796875	1	upper	zerothre.ttf
1012.682	n/a	WORD	506341	wordpools/wasnorm_wordpool.txt	LTP089	ltpFR	5	6	1	COMMITTEE	355	n/a	n/a	0	0.57763671875	0.412841796875	1	upper	zerothre.ttf
1016.78	n/a	WORD	508390	wordpools/wasnorm_wordpool.txt	LTP089	ltpFR	5	6	1	CASHIER	254	n/a	n/a	1	0.57763671875	0.412841796875	1	upper	zerothre.ttf
1020.774	n/a	WORD	510387	wordpools/wasnorm_wordpool.txt	LTP089	ltpFR	5	6	1	SAP	1233	n/a	n/a	0	0.57763671875	0.412841796875	1	upper	zerothre.ttf
1024.648	n/a	WORD	512324	wordpools/wasnorm_wordpool.txt	LTP089	ltpFR	5	6	1	HEDGE	699	n/a	n/a	1	0.57763671875	0.412841796875	1	upper	zerothre.ttf
1028.782	n/a	WORD	514391	wordpools/wasnorm_wordpool.txt	LTP089	ltpFR	5	6	1	AUDIENCE	59	n/a	n/a	1	0.57763671875	0.412841796875	1	upper	zerothre.ttf
1032.748	n/a	WORD	516374	wordpools/wasnorm_wordpool.txt	LTP089	ltpFR	5	6	1	CHIPMUNK	304	n/a	n/a	1	0.57763671875	0.412841796875	1	upper	zerothre.ttf
1036.88	n/a	WORD	518440	wordpools/wasnorm_wordpool.txt	LTP089	ltpFR	5	6	1	ROOT	1210	n/a	n/a	1	0.57763671875	0.412841796875	1	upper	zerothre.ttf
1040.714	n/a	WORD	520357	wordpools/wasnorm_wordpool.txt	LTP089	ltpFR	5	6	1	DISC	473	n/a	n/a	0	0.57763671875	0.412841796875	1	upper	zerothre.ttf
1044.64	n/a	WORD	522320	wordpools/wasnorm_wordpool.txt	LTP089	ltpFR	5	6	1	RADIO	1157	n/a	n/a	0	0.57763671875	0.412841796875	1	upper	zerothre.ttf
1048.698	n/a	WORD	524349	wordpools/wasnorm_wordpool.txt	LTP089	ltpFR	5	6	1	HATCHET	691	n/a	n/a	0	0.57763671875	0.412841796875	1	upper	zerothre.ttf
1052.896	n/a	WORD	526448	wordpools/wasnorm_wordpool.txt	LTP089	ltpFR	5	6	1	CABINET	212	n/a	n/a	0	0.57763671875	0.412841796875	1	upper	zerothre.ttf
1058.614	n/a	REC_START	529307	n/a	LTP089	ltpFR	5	6	n/a	n/a	n/a	n/a	n/a	n/a	n/a	n/a	n/a	n/a	n/a
1061.044	n/a	REC_WORD	530522	wordpools/wasnorm_wordpool.txt	LTP089	ltpFR	5	6	1	CABINET	212	n/a	n/a	0	n/a	n/a	n/a	n/a	n/a
1061.518	n/a	REC_WORD	530759	wordpools/wasnorm_wordpool.txt	LTP089	ltpFR	5	6	1	TOAD	1470	n/a	n/a	1	n/a	n/a	n/a	n/a	n/a
1061.976	n/a	REC_WORD	530988	wordpools/wasnorm_wordpool.txt	LTP089	ltpFR	5	6	1	REFRIGERATOR	1179	n/a	n/a	1	n/a	n/a	n/a	n/a	n/a
1064.008	n/a	REC_WORD	532004	wordpools/wasnorm_wordpool.txt	LTP089	ltpFR	5	6	1	BANDAGE	79	n/a	n/a	0	n/a	n/a	n/a	n/a	n/a
1067.294	n/a	REC_WORD	533647	wordpools/wasnorm_wordpool.txt	LTP089	ltpFR	5	6	1	CHIPMUNK	304	n/a	n/a	1	n/a	n/a	n/a	n/a	n/a
1136.57	n/a	WORD	568285	wordpools/wasnorm_wordpool.txt	LTP089	ltpFR	5	7	0	SHOVEL	1295	n/a	n/a	1	0.422607421875	0.5869140625	0	lower	amplitud.ttf
1140.762	n/a	WORD	570381	wordpools/wasnorm_wordpool.txt	LTP089	ltpFR	5	7	0	CRUTCH	417	n/a	n/a	1	0.422607421875	0.5869140625	0	lower	amplitud.ttf
1144.912	n/a	WORD	572456	wordpools/wasnorm_wordpool.txt	LTP089	ltpFR	5	7	0	SEA	1259	n/a	n/a	1	0.422607421875	0.5869140625	0	lower	amplitud.ttf
1149.046	n/a	WORD	574523	wordpools/wasnorm_wordpool.txt	LTP089	ltpFR	5	7	0	BUCKET	184	n/a	n/a	1	0.422607421875	0.5869140625	0	lower	amplitud.ttf
1153.228	n/a	WORD	576614	wordpools/wasnorm_wordpool.txt	LTP089	ltpFR	5	7	0	CANARY	227	n/a	n/a	0	0.422607421875	0.5869140625	0	lower	amplitud.ttf
1157.054	n/a	WORD	578527	wordpools/wasnorm_wordpool.txt	LTP089	ltpFR	5	7	0	SHARK	1275	n/a	n/a	0	0.422607421875	0.5869140625	0	lower	amplitud.ttf
1161.12	n/a	WORD	580560	wordpools/wasnorm_wordpool.txt	LTP089	ltpFR	5	7	1	TOOTHPASTE	1483	n/a	n/a	1	0.57763671875	0.412841796875	1	upper	zerothre.ttf
1164.996	n/a	WORD	582498	wordpools/wasnorm_wordpool.txt	LTP089	ltpFR	5	7	1	CIGAR	308	n/a	n/a	0	0.57763671875	0.412841796875	1	upper	zerothre.ttf
1168.92	n/a	WORD	584460	wordpools/wasnorm_wordpool.txt	LTP089	ltpFR	5	7	1	NICOTINE	951	n/a	n/a	0	0.57763671875	0.412841796875	1	upper	zerothre.ttf
1172.918	n/a	WORD	586459	wordpools/wasnorm_wordpool.txt	LTP089	ltpFR	5	7	0	STAR	1373	n/a	n/a	1	0.422607421875	0.5869140625	0	lower	amplitud.ttf
1177.012	n/a	WORD	588506	wordpools/wasnorm_wordpool.txt	LTP089	ltpFR	5	7	0	HIP	710	n/a	n/a	1	0.422607421875	0.5869140625	0	lower	amplitud.ttf
1181.154	n/a	WORD	590577	wordpools/wasnorm_wordpool.txt	LTP089	ltpFR	5	7	1	CAP	236	n/a	n/a	0	0.57763671875	0.412841796875	1	upper	zerothre.ttf
1185.228	n/a	WORD	592614	wordpools/wasnorm_wordpool.txt	LTP089	ltpFR	5	7	1	ELF	525	n/a	n/a	0	0.57763671875	0.412841796875	1	upper	zerothre.ttf
1189.32	n/a	WORD	594660	wordpools/wasnorm_wordpool.txt	LTP089	ltpFR	5	7	1	DANDRUFF	439	n/a	n/a	0	0.57763671875	0.412841796875	1	upper	zerothre.ttf
1193.362	n/a	WORD	596681	wordpools/wasnorm_wordpool.txt	LTP089	ltpFR	5	7	1	ACTOR	5	n/a	n/a	1	0.57763671875	0.412841796875	1	upper	zerothre.ttf
1197.494	n/a	WORD	598747	wordpools/wasnorm_wordpool.txt	LTP089	ltpFR	5	7	1	NEST	945	n/a	n/a	0	0.57763671875	0.412841796875	1	upper	zerothre.ttf
1203.228	n/a	REC_START	601614	n/a	LTP089	ltpFR	5	7	n/a	n/a	n/a	n/a	n/a	n/a	n/a	n/a	n/a	n/a	n/a
1205.364	n/a	REC_WORD	602682	wordpools/wasnorm_wordpool.txt	LTP089	ltpFR	5	7	1	ACTOR	5	n/a	n/a	1	n/a	n/a	n/a	n/a	n/a
1206.196	n/a	REC_WORD	603098	wordpools/wasnorm_wordpool.txt	LTP089	ltpFR	5	7	1	DANDRUFF	439	n/a	n/a	0	n/a	n/a	n/a	n/a	n/a
1207.154	n/a	REC_WORD_VV	603577	wordpools/wasnorm_wordpool.txt	LTP089	ltpFR	5	7	n/a	<>	-1	n/a	n/a	n/a	n/a	n/a	n/a	n/a	n/a
1208.356	n/a	REC_WORD	604178	wordpools/wasnorm_wordpool.txt	LTP089	ltpFR	5	7	0	CANARY	227	n/a	n/a	0	n/a	n/a	n/a	n/a	n/a
1208.79	n/a	REC_WORD	604395	wordpools/wasnorm_wordpool.txt	LTP089	ltpFR	5	7	0	SHARK	1275	n/a	n/a	0	n/a	n/a	n/a	n/a	n/a
1209.598	n/a	REC_WORD	604799	wordpools/wasnorm_wordpool.txt	LTP089	ltpFR	5	7	1	CIGAR	308	n/a	n/a	0	n/a	n/a	n/a	n/a	n/a
1210.216	n/a	REC_WORD	605108	wordpools/wasnorm_wordpool.txt	LTP089	ltpFR	5	7	1	TOOTHPASTE	1483	n/a	n/a	1	n/a	n/a	n/a	n/a	n/a
1211.474	n/a	REC_WORD	605737	wordpools/wasnorm_wordpool.txt	LTP089	ltpFR	5	7	0	SEA	1259	n/a	n/a	1	n/a	n/a	n/a	n/a	n/a
1211.844	n/a	REC_WORD	605922	wordpools/wasnorm_wordpool.txt	LTP089	ltpFR	5	7	0	BUCKET	184	n/a	n/a	1	n/a	n/a	n/a	n/a	n/a
1212.064	n/a	REC_WORD	606032	wordpools/wasnorm_wordpool.txt	LTP089	ltpFR	5	7	0	SHOVEL	1295	n/a	n/a	1	n/a	n/a	n/a	n/a	n/a
1213.65	n/a	REC_WORD_VV	606825	wordpools/wasnorm_wordpool.txt	LTP089	ltpFR	5	7	n/a	<>	-1	n/a	n/a	n/a	n/a	n/a	n/a	n/a	n/a
1219.288	n/a	REC_WORD	609644	wordpools/wasnorm_wordpool.txt	LTP089	ltpFR	5	7	0	CANARY	227	n/a	n/a	0	n/a	n/a	n/a	n/a	n/a
1281.766	n/a	WORD	640883	wordpools/wasnorm_wordpool.txt	LTP089	ltpFR	5	8	0	PAIL	1002	n/a	n/a	2	0.422607421875	0.5869140625	0	lower	amplitud.ttf
1282.402	n/a	KEY_MSG	641201	n/a	LTP089	ltpFR	5	8	n/a	n/a	n/a	n/a	n/a	n/a	n/a	n/a	n/a	n/a	n/a
1285.842	n/a	WORD	642921	wordpools/wasnorm_wordpool.txt	LTP089	ltpFR	5	8	0	KITTEN	780	n/a	n/a	1	0.422607421875	0.5869140625	0	lower	amplitud.ttf
1289.858	n/a	WORD	644929	wordpools/wasnorm_wordpool.txt	LTP089	ltpFR	5	8	0	GRAVEL	659	n/a	n/a	1	0.422607421875	0.5869140625	0	lower	amplitud.ttf
1294.042	n/a	WORD	647021	wordpools/wasnorm_wordpool.txt	LTP089	ltpFR	5	8	0	SKILLET	1317	n/a	n/a	1	0.422607421875	0.5869140625	0	lower	amplitud.ttf
1298.218	n/a	WORD	649109	wordpools/wasnorm_wordpool.txt	LTP089	ltpFR	5	8	0	UNIVERSE	1540	n/a	n/a	1	0.422607421875	0.5869140625	0	lower	amplitud.ttf
1302.158	n/a	WORD	651079	wordpools/wasnorm_wordpool.txt	LTP089	ltpFR	5	8	0	ATOM	55	n/a	n/a	0	0.422607421875	0.5869140625	0	lower	amplitud.ttf
1306.308	n/a	WORD	653154	wordpools/wasnorm_wordpool.txt	LTP089	ltpFR	5	8	0	FAUCET	555	n/a	n/a	0	0.422607421875	0.5869140625	0	lower	amplitud.ttf
1310.35	n/a	WORD	655175	wordpools/wasnorm_wordpool.txt	LTP089	ltpFR	5	8	0	HEEL	700	n/a	n/a	0	0.422607421875	0.5869140625	0	lower	amplitud.ttf
1314.332	n/a	WORD	657166	wordpools/wasnorm_wordpool.txt	LTP089	ltpFR	5	8	0	ROAD	1196	n/a	n/a	1	0.422607421875	0.5869140625	0	lower	amplitud.ttf
1318.226	n/a	WORD	659113	wordpools/wasnorm_wordpool.txt	LTP089	ltpFR	5	8	0	GRILL	661	n/a	n/a	0	0.422607421875	0.5869140625	0	lower	amplitud.ttf
1322.334	n/a	WORD	661167	wordpools/wasnorm_wordpool.txt	LTP089	ltpFR	5	8	0	MERMAID	887	n/a	n/a	1	0.422607421875	0.5869140625	0	lower	amplitud.ttf
1326.216	n/a	WORD	663108	wordpools/wasnorm_wordpool.txt	LTP089	ltpFR	5	8	0	COD	340	n/a	n/a	1	0.422607421875	0.5869140625	0	lower	amplitud.ttf
1330.066	n/a	WORD	665033	wordpools/wasnorm_wordpool.txt	LTP089	ltpFR	5	8	0	ALLIGATOR	16	n/a	n/a	1	0.422607421875	0.5869140625	0	lower	amplitud.ttf
1334.066	n/a	WORD	667033	wordpools/wasnorm_wordpool.txt	LTP089	ltpFR	5	8	0	VET	1560	n/a	n/a	0	0.422607421875	0.5869140625	0	lower	amplitud.ttf
1338.058	n/a	WORD	669029	wordpools/wasnorm_wordpool.txt	LTP089	ltpFR	5	8	0	FORT	595	n/a	n/a	0	0.422607421875	0.5869140625	0	lower	amplitud.ttf
1341.898	n/a	WORD	670949	wordpools/wasnorm_wordpool.txt	LTP089	ltpFR	5	8	0	FLEET	578	n/a	n/a	1	0.422607421875	0.5869140625	0	lower	amplitud.ttf
1347.982	n/a	REC_START	673991	n/a	LTP089	ltpFR	5	8	n/a	n/a	n/a	n/a	n/a	n/a	n/a	n/a	n/a	n/a	n/a
1349.264	n/a	REC_WORD	674632	wordpools/wasnorm_wordpool.txt	LTP089	ltpFR	5	8	0	FLEET	578	n/a	n/a	1	n/a	n/a	n/a	n/a	n/a
1349.778	n/a	REC_WORD	674889	wordpools/wasnorm_wordpool.txt	LTP089	ltpFR	5	8	0	VET	1560	n/a	n/a	0	n/a	n/a	n/a	n/a	n/a
1350.182	n/a	REC_WORD	675091	wordpools/wasnorm_wordpool.txt	LTP089	ltpFR	5	8	0	FORT	595	n/a	n/a	0	n/a	n/a	n/a	n/a	n/a
1350.786	n/a	REC_WORD	675393	wordpools/wasnorm_wordpool.txt	LTP089	ltpFR	5	8	0	ALLIGATOR	16	n/a	n/a	1	n/a	n/a	n/a	n/a	n/a
1351.918	n/a	REC_WORD_VV	675959	wordpools/wasnorm_wordpool.txt	LTP089	ltpFR	5	8	n/a	<>	-1	n/a	n/a	n/a	n/a	n/a	n/a	n/a	n/a
1352.208	n/a	REC_WORD	676104	wordpools/wasnorm_wordpool.txt	LTP089	ltpFR	5	8	0	KITTEN	780	n/a	n/a	1	n/a	n/a	n/a	n/a	n/a
1354.098	n/a	REC_WORD	677049	wordpools/wasnorm_wordpool.txt	LTP089	ltpFR	5	8	0	GRAVEL	659	n/a	n/a	1	n/a	n/a	n/a	n/a	n/a
1426.206	n/a	WORD	713103	wordpools/wasnorm_wordpool.txt	LTP089	ltpFR	5	9	0	SUBMARINE	1398	n/a	n/a	3	0.422607421875	0.5869140625	0	lower	amplitud.ttf
1426.846	n/a	KEY_MSG	713423	n/a	LTP089	ltpFR	5	9	n/a	n/a	n/a	n/a	n/a	n/a	n/a	n/a	n/a	n/a	n/a
1430.18	n/a	WORD	715090	wordpools/wasnorm_wordpool.txt	LTP089	ltpFR	5	9	0	PAINT	1003	n/a	n/a	1	0.422607421875	0.5869140625	0	lower	amplitud.ttf
1434.354	n/a	WORD	717177	wordpools/wasnorm_wordpool.txt	LTP089	ltpFR	5	9	0	PICTURE	1061	n/a	n/a	1	0.422607421875	0.5869140625	0	lower	amplitud.ttf
1438.364	n/a	WORD	719182	wordpools/wasnorm_wordpool.txt	LTP089	ltpFR	5	9	0	SKETCH	1315	n/a	n/a	1	0.422607421875	0.5869140625	0	lower	amplitud.ttf
1442.562	n/a	WORD	721281	wordpools/wasnorm_wordpool.txt	LTP089	ltpFR	5	9	0	TYPEWRITER	1531	n/a	n/a	1	0.422607421875	0.5869140625	0	lower	amplitud.ttf
1446.596	n/a	WORD	723298	wordpools/wasnorm_wordpool.txt	LTP089	ltpFR	5	9	0	ROPE	1211	n/a	n/a	1	0.422607421875	0.5869140625	0	lower	amplitud.ttf
1450.412	n/a	WORD	725206	wordpools/wasnorm_wordpool.txt	LTP089	ltpFR	5	9	0	TIDE	1465	n/a	n/a	1	0.422607421875	0.5869140625	0	lower	amplitud.ttf
1454.594	n/a	WORD	727297	wordpools/wasnorm_wordpool.txt	LTP089	ltpFR	5	9	0	PARIS	1014	n/a	n/a	1	0.422607421875	0.5869140625	0	lower	amplitud.ttf
1458.612	n/a	WORD	729306	wordpools/wasnorm_wordpool.txt	LTP089	ltpFR	5	9	0	YARN	1631	n/a	n/a	1	0.422607421875	0.5869140625	0	lower	amplitud.ttf
1462.478	n/a	WORD	731239	wordpools/wasnorm_wordpool.txt	LTP089	ltpFR	5	9	0	RICE	1190	n/a	n/a	0	0.422607421875	0.5869140625	0	lower	amplitud.ttf
1466.412	n/a	WORD	733206	wordpools/wasnorm_wordpool.txt	LTP089	ltpFR	5	9	0	VASE	1549	n/a	n/a	1	0.422607421875	0.5869140625	0	lower	amplitud.ttf
1470.444	n/a	WORD	735222	wordpools/wasnorm_wordpool.txt	LTP089	ltpFR	5	9	0	ROSE	1212	n/a	n/a	1	0.422607421875	0.5869140625	0	lower	amplitud.ttf
1474.388	n/a	WORD	737194	wordpools/wasnorm_wordpool.txt	LTP089	ltpFR	5	9	0	CELLAR	267	n/a	n/a	1	0.422607421875	0.5869140625	0	lower	amplitud.ttf
1478.57	n/a	WORD	739285	wordpools/wasnorm_wordpool.txt	LTP089	ltpFR	5	9	0	DANCER	437	n/a	n/a	1	0.422607421875	0.5869140625	0	lower	amplitud.ttf
1482.42	n/a	WORD	741210	wordpools/wasnorm_wordpool.txt	LTP089	ltpFR	5	9	0	CHEF	290	n/a	n/a	1	0.422607421875	0.5869140625	0	lower	amplitud.ttf
1486.346	n/a	WORD	743173	wordpools/wasnorm_wordpool.txt	LTP089	ltpFR	5	9	0	LOG	841	n/a	n/a	1	0.422607421875	0.5869140625	0	lower	amplitud.ttf
1492.312	n/a	REC_START	746156	n/a	LTP089	ltpFR	5	9	n/a	n/a	n/a	n/a	n/a	n/a	n/a	n/a	n/a	n/a	n/a
1497.456	n/a	REC_WORD_VV	748728	wordpools/wasnorm_wordpool.txt	LTP089	ltpFR	5	9	n/a	<>	-1	n/a	n/a	n/a	n/a	n/a	n/a	n/a	n/a
1500.15	n/a	REC_WORD	750075	wordpools/wasnorm_wordpool.txt	LTP089	ltpFR	5	9	0	LOG	841	n/a	n/a	1	n/a	n/a	n/a	n/a	n/a
1508.99	n/a	REC_WORD	754495	wordpools/wasnorm_wordpool.txt	LTP089	ltpFR	5	9	0	SUBMARINE	1398	n/a	n/a	3	n/a	n/a	n/a	n/a	n/a
1514.27	n/a	REC_WORD	757135	wordpools/wasnorm_wordpool.txt	LTP089	ltpFR	5	9	0	YARN	1631	n/a	n/a	1	n/a	n/a	n/a	n/a	n/a
1514.84	n/a	REC_WORD	757420	wordpools/wasnorm_wordpool.txt	LTP089	ltpFR	5	9	0	RICE	1190	n/a	n/a	0	n/a	n/a	n/a	n/a	n/a
1570.394	n/a	WORD	785197	wordpools/wasnorm_wordpool.txt	LTP089	ltpFR	5	10	1	DRIVER	499	n/a	n/a	1	0.57763671875	0.412841796875	1	upper	zerothre.ttf
1574.492	n/a	WORD	787246	wordpools/wasnorm_wordpool.txt	LTP089	ltpFR	5	10	1	BOUILLON	154	n/a	n/a	1	0.57763671875	0.412841796875	1	upper	zerothre.ttf
1578.36	n/a	WORD	789180	wordpools/wasnorm_wordpool.txt	LTP089	ltpFR	5	10	0	BALLERINA	74	n/a	n/a	1	0.422607421875	0.5869140625	0	lower	amplitud.ttf
1582.268	n/a	WORD	791134	wordpools/wasnorm_wordpool.txt	LTP089	ltpFR	5	10	0	TUTU	1524	n/a	n/a	0	0.422607421875	0.5869140625	0	lower	amplitud.ttf
1586.16	n/a	WORD	793080	wordpools/wasnorm_wordpool.txt	LTP089	ltpFR	5	10	0	TAPE	1433	n/a	n/a	0	0.422607421875	0.5869140625	0	lower	amplitud.ttf
1590.234	n/a	WORD	795117	wordpools/wasnorm_wordpool.txt	LTP089	ltpFR	5	10	0	SCAPEGOAT	1244	n/a	n/a	0	0.422607421875	0.5869140625	0	lower	amplitud.ttf
1594.31	n/a	WORD	797155	wordpools/wasnorm_wordpool.txt	LTP089	ltpFR	5	10	1	ENGINE	535	n/a	n/a	1	0.57763671875	0.412841796875	1	upper	zerothre.ttf
1598.144	n/a	WORD	799072	wordpools/wasnorm_wordpool.txt	LTP089	ltpFR	5	10	1	STEREO	1378	n/a	n/a	0	0.57763671875	0.412841796875	1	upper	zerothre.ttf
1602.284	n/a	WORD	801142	wordpools/wasnorm_wordpool.txt	LTP089	ltpFR	5	10	1	FOX	598	n/a	n/a	1	0.57763671875	0.412841796875	1	upper	zerothre.ttf
1606.11	n/a	WORD	803055	wordpools/wasnorm_wordpool.txt	LTP089	ltpFR	5	10	1	TAR	1435	n/a	n/a	0	0.57763671875	0.412841796875	1	upper	zerothre.ttf
1610.126	n/a	WORD	805063	wordpools/wasnorm_wordpool.txt	LTP089	ltpFR	5	10	1	TUNNEL	1519	n/a	n/a	1	0.57763671875	0.412841796875	1	upper	zerothre.ttf
1614.192	n/a	WORD	807096	wordpools/wasnorm_wordpool.txt	LTP089	ltpFR	5	10	1	BARREL	91	n/a	n/a	0	0.57763671875	0.412841796875	1	upper	zerothre.ttf
1618.076	n/a	WORD	809038	wordpools/wasnorm_wordpool.txt	LTP089	ltpFR	5	10	0	GREASE	660	n/a	n/a	0	0.422607421875	0.5869140625	0	lower	amplitud.ttf
1622.126	n/a	WORD	811063	wordpools/wasnorm_wordpool.txt	LTP089	ltpFR	5	10	0	MAMMAL	861	n/a	n/a	1	0.422607421875	0.5869140625	0	lower	amplitud.ttf
1626.0	n/a	WORD	813000	wordpools/wasnorm_wordpool.txt	LTP089	ltpFR	5	10	0	BEAVER	109	n/a	n/a	1	0.422607421875	0.5869140625	0	lower	amplitud.ttf
1630.016	n/a	WORD	815008	wordpools/wasnorm_wordpool.txt	LTP089	ltpFR	5	10	0	CAT	257	n/a	n/a	1	0.422607421875	0.5869140625	0	lower	amplitud.ttf
1635.758	n/a	REC_START	817879	n/a	LTP089	ltpFR	5	10	n/a	n/a	n/a	n/a	n/a	n/a	n/a	n/a	n/a	n/a	n/a
1638.172	n/a	REC_WORD	819086	wordpools/wasnorm_wordpool.txt	LTP089	ltpFR	5	10	0	MAMMAL	861	n/a	n/a	1	n/a	n/a	n/a	n/a	n/a
1639.286	n/a	REC_WORD	819643	wordpools/wasnorm_wordpool.txt	LTP089	ltpFR	5	10	0	CAT	257	n/a	n/a	1	n/a	n/a	n/a	n/a	n/a
1640.538	n/a	REC_WORD	820269	wordpools/wasnorm_wordpool.txt	LTP089	ltpFR	5	10	0	BEAVER	109	n/a	n/a	1	n/a	n/a	n/a	n/a	n/a
1643.046	n/a	REC_WORD	821523	wordpools/wasnorm_wordpool.txt	LTP089	ltpFR	5	10	1	DRIVER	499	n/a	n/a	1	n/a	n/a	n/a	n/a	n/a
1643.614	n/a	REC_WORD	821807	wordpools/wasnorm_wordpool.txt	LTP089	ltpFR	5	10	1	ENGINE	535	n/a	n/a	1	n/a	n/a	n/a	n/a	n/a
1644.556	n/a	REC_WORD	822278	wordpools/wasnorm_wordpool.txt	LTP089	ltpFR	5	10	0	GREASE	660	n/a	n/a	0	n/a	n/a	n/a	n/a	n/a
1645.326	n/a	REC_WORD	822663	wordpools/wasnorm_wordpool.txt	LTP089	ltpFR	5	10	1	TAR	1435	n/a	n/a	0	n/a	n/a	n/a	n/a	n/a
1714.106	n/a	WORD	857053	wordpools/wasnorm_wordpool.txt	LTP089	ltpFR	5	11	-1	DRILL	497	n/a	n/a	-1	1.0	1.0	1	upper	Verdana.ttf
1718.29	n/a	WORD	859145	wordpools/wasnorm_wordpool.txt	LTP089	ltpFR	5	11	-1	LOUNGE	845	n/a	n/a	-1	1.0	1.0	1	upper	Verdana.ttf
1722.132	n/a	WORD	861066	wordpools/wasnorm_wordpool.txt	LTP089	ltpFR	5	11	-1	CHAMPAGNE	278	n/a	n/a	-1	1.0	1.0	1	upper	Verdana.ttf
1726.14	n/a	WORD	863070	wordpools/wasnorm_wordpool.txt	LTP089	ltpFR	5	11	-1	LANDSCAPE	799	n/a	n/a	-1	1.0	1.0	1	upper	Verdana.ttf
1730.24	n/a	WORD	865120	wordpools/wasnorm_wordpool.txt	LTP089	ltpFR	5	11	-1	DESSERT	453	n/a	n/a	-1	1.0	1.0	1	upper	Verdana.ttf
1734.114	n/a	WORD	867057	wordpools/wasnorm_wordpool.txt	LTP089	ltpFR	5	11	-1	BRIDE	173	n/a	n/a	-1	1.0	1.0	1	upper	Verdana.ttf
1738.032	n/a	WORD	869016	wordpools/wasnorm_wordpool.txt	LTP089	ltpFR	5	11	-1	CHEESE	289	n/a	n/a	-1	1.0	1.0	1	upper	Verdana.ttf
1742.03	n/a	WORD	871015	wordpools/wasnorm_wordpool.txt	LTP089	ltpFR	5	11	-1	GRATE	657	n/a	n/a	-1	1.0	1.0	1	upper	Verdana.ttf
1745.954	n/a	WORD	872977	wordpools/wasnorm_wordpool.txt	LTP089	ltpFR	5	11	-1	BISCUIT	130	n/a	n/a	-1	1.0	1.0	1	upper	Verdana.ttf
1749.946	n/a	WORD	874973	wordpools/wasnorm_wordpool.txt	LTP089	ltpFR	5	11	-1	BOOK	149	n/a	n/a	-1	1.0	1.0	1	upper	Verdana.ttf
1754.006	n/a	WORD	877003	wordpools/wasnorm_wordpool.txt	LTP089	ltpFR	5	11	-1	LINT	826	n/a	n/a	-1	1.0	1.0	1	upper	Verdana.ttf
1758.056	n/a	WORD	879028	wordpools/wasnorm_wordpool.txt	LTP089	ltpFR	5	11	-1	PLAQUE	1084	n/a	n/a	-1	1.0	1.0	1	upper	Verdana.ttf
1762.13	n/a	WORD	881065	wordpools/wasnorm_wordpool.txt	LTP089	ltpFR	5	11	-1	DIARY	460	n/a	n/a	-1	1.0	1.0	1	upper	Verdana.ttf
1766.106	n/a	WORD	883053	wordpools/wasnorm_wordpool.txt	LTP089	ltpFR	5	11	-1	GUARDIAN	668	n/a	n/a	-1	1.0	1.0	1	upper	Verdana.ttf
1770.088	n/a	WORD	885044	wordpools/wasnorm_wordpool.txt	LTP089	ltpFR	5	11	-1	ADOLESCENT	7	n/a	n/a	-1	1.0	1.0	1	upper	Verdana.ttf
1773.996	n/a	WORD	886998	wordpools/wasnorm_wordpool.txt	LTP089	ltpFR	5	11	-1	DOUGH	489	n/a	n/a	-1	1.0	1.0	1	upper	Verdana.ttf
1779.98	n/a	REC_START	889990	n/a	LTP089	ltpFR	5	11	n/a	n/a	n/a	n/a	n/a	n/a	n/a	n/a	n/a	n/a	n/a
1783.078	n/a	REC_WORD	891539	wordpools/wasnorm_wordpool.txt	LTP089	ltpFR	5	11	-1	LOUNGE	845	n/a	n/a	-1	n/a	n/a	n/a	n/a	n/a
1783.606	n/a	REC_WORD	891803	wordpools/wasnorm_wordpool.txt	LTP089	ltpFR	5	11	-1	DRILL	497	n/a	n/a	-1	n/a	n/a	n/a	n/a	n/a
1783.868	n/a	REC_WORD	891934	wordpools/wasnorm_wordpool.txt	LTP089	ltpFR	5	11	-1	CHAMPAGNE	278	n/a	n/a	-1	n/a	n/a	n/a	n/a	n/a
1784.972	n/a	REC_WORD	892486	wordpools/wasnorm_wordpool.txt	LTP089	ltpFR	5	11	-1	LANDSCAPE	799	n/a	n/a	-1	n/a	n/a	n/a	n/a	n/a
1786.67	n/a	REC_WORD	893335	wordpools/wasnorm_wordpool.txt	LTP089	ltpFR	5	11	-1	BRIDE	173	n/a	n/a	-1	n/a	n/a	n/a	n/a	n/a
1787.358	n/a	REC_WORD	893679	wordpools/wasnorm_wordpool.txt	LTP089	ltpFR	5	11	-1	BISCUIT	130	n/a	n/a	-1	n/a	n/a	n/a	n/a	n/a
1787.976	n/a	REC_WORD	893988	wordpools/wasnorm_wordpool.txt	LTP089	ltpFR	5	11	-1	GRATE	657	n/a	n/a	-1	n/a	n/a	n/a	n/a	n/a
1789.138	n/a	REC_WORD	894569	wordpools/wasnorm_wordpool.txt	LTP089	ltpFR	5	11	-1	ADOLESCENT	7	n/a	n/a	-1	n/a	n/a	n/a	n/a	n/a
1789.902	n/a	REC_WORD	894951	wordpools/wasnorm_wordpool.txt	LTP089	ltpFR	5	11	-1	GUARDIAN	668	n/a	n/a	-1	n/a	n/a	n/a	n/a	n/a
1790.77	n/a	REC_WORD	895385	wordpools/wasnorm_wordpool.txt	LTP089	ltpFR	5	11	-1	DIARY	460	n/a	n/a	-1	n/a	n/a	n/a	n/a	n/a
1792.116	n/a	REC_WORD	896058	wordpools/wasnorm_wordpool.txt	LTP089	ltpFR	5	11	-1	DOUGH	489	n/a	n/a	-1	n/a	n/a	n/a	n/a	n/a
1796.138	n/a	REC_WORD	898069	wordpools/wasnorm_wordpool.txt	LTP089	ltpFR	5	11	-1	BRIDE	173	n/a	n/a	-1	n/a	n/a	n/a	n/a	n/a
1799.322	n/a	REC_WORD	899661	wordpools/wasnorm_wordpool.txt	LTP089	ltpFR	5	11	-1	DESSERT	453	n/a	n/a	-1	n/a	n/a	n/a	n/a	n/a
1800.16	n/a	REC_WORD	900080	wordpools/wasnorm_wordpool.txt	LTP089	ltpFR	5	11	n/a	CAKE	219	n/a	n/a	n/a	n/a	n/a	n/a	n/a	n/a
1801.616	n/a	REC_WORD	900808	wordpools/wasnorm_wordpool.txt	LTP089	ltpFR	5	11	-1	CHEESE	289	n/a	n/a	-1	n/a	n/a	n/a	n/a	n/a
1860.362	n/a	WORD	930181	wordpools/wasnorm_wordpool.txt	LTP089	ltpFR	5	12	-1	SENATOR	1268	n/a	n/a	-1	1.0	1.0	1	upper	Verdana.ttf
1864.212	n/a	WORD	932106	wordpools/wasnorm_wordpool.txt	LTP089	ltpFR	5	12	-1	LENS	811	n/a	n/a	-1	1.0	1.0	1	upper	Verdana.ttf
1868.37	n/a	WORD	934185	wordpools/wasnorm_wordpool.txt	LTP089	ltpFR	5	12	-1	CANE	231	n/a	n/a	-1	1.0	1.0	1	upper	Verdana.ttf
1872.484	n/a	WORD	936242	wordpools/wasnorm_wordpool.txt	LTP089	ltpFR	5	12	-1	COOLER	375	n/a	n/a	-1	1.0	1.0	1	upper	Verdana.ttf
1876.56	n/a	WORD	938280	wordpools/wasnorm_wordpool.txt	LTP089	ltpFR	5	12	-1	EYELASH	546	n/a	n/a	-1	1.0	1.0	1	upper	Verdana.ttf
1880.602	n/a	WORD	940301	wordpools/wasnorm_wordpool.txt	LTP089	ltpFR	5	12	-1	LODGE	839	n/a	n/a	-1	1.0	1.0	1	upper	Verdana.ttf
1884.542	n/a	WORD	942271	wordpools/wasnorm_wordpool.txt	LTP089	ltpFR	5	12	-1	FUDGE	611	n/a	n/a	-1	1.0	1.0	1	upper	Verdana.ttf
1888.55	n/a	WORD	944275	wordpools/wasnorm_wordpool.txt	LTP089	ltpFR	5	12	-1	BILL	126	n/a	n/a	-1	1.0	1.0	1	upper	Verdana.ttf
1892.6	n/a	WORD	946300	wordpools/wasnorm_wordpool.txt	LTP089	ltpFR	5	12	-1	CHECK	284	n/a	n/a	-1	1.0	1.0	1	upper	Verdana.ttf
1896.51	n/a	WORD	948255	wordpools/wasnorm_wordpool.txt	LTP089	ltpFR	5	12	-1	SLIDE	1326	n/a	n/a	-1	1.0	1.0	1	upper	Verdana.ttf
1900.55	n/a	WORD	950275	wordpools/wasnorm_wordpool.txt	LTP089	ltpFR	5	12	-1	LAGOON	795	n/a	n/a	-1	1.0	1.0	1	upper	Verdana.ttf
1904.584	n/a	WORD	952292	wordpools/wasnorm_wordpool.txt	LTP089	ltpFR	5	12	-1	MOTEL	919	n/a	n/a	-1	1.0	1.0	1	upper	Verdana.ttf
1908.65	n/a	WORD	954325	wordpools/wasnorm_wordpool.txt	LTP089	ltpFR	5	12	-1	THERMOMETER	1453	n/a	n/a	-1	1.0	1.0	1	upper	Verdana.ttf
1912.676	n/a	WORD	956338	wordpools/wasnorm_wordpool.txt	LTP089	ltpFR	5	12	-1	SKULL	1320	n/a	n/a	-1	1.0	1.0	1	upper	Verdana.ttf
1916.51	n/a	WORD	958255	wordpools/wasnorm_wordpool.txt	LTP089	ltpFR	5	12	-1	BRUNETTE	181	n/a	n/a	-1	1.0	1.0	1	upper	Verdana.ttf
1920.41	n/a	WORD	960205	wordpools/wasnorm_wordpool.txt	LTP089	ltpFR	5	12	-1	SHEARS	1276	n/a	n/a	-1	1.0	1.0	1	upper	Verdana.ttf
1926.168	n/a	REC_START	963084	n/a	LTP089	ltpFR	5	12	n/a	n/a	n/a	n/a	n/a	n/a	n/a	n/a	n/a	n/a	n/a
1929.45	n/a	REC_WORD	964725	wordpools/wasnorm_wordpool.txt	LTP089	ltpFR	5	12	-1	SENATOR	1268	n/a	n/a	-1	n/a	n/a	n/a	n/a	n/a
1930.468	n/a	REC_WORD	965234	wordpools/wasnorm_wordpool.txt	LTP089	ltpFR	5	12	-1	LENS	811	n/a	n/a	-1	n/a	n/a	n/a	n/a	n/a
1931.556	n/a	REC_WORD	965778	wordpools/wasnorm_wordpool.txt	LTP089	ltpFR	5	12	-1	BILL	126	n/a	n/a	-1	n/a	n/a	n/a	n/a	n/a
1932.484	n/a	REC_WORD	966242	wordpools/wasnorm_wordpool.txt	LTP089	ltpFR	5	12	-1	CANE	231	n/a	n/a	-1	n/a	n/a	n/a	n/a	n/a
1933.562	n/a	REC_WORD	966781	wordpools/wasnorm_wordpool.txt	LTP089	ltpFR	5	12	-1	EYELASH	546	n/a	n/a	-1	n/a	n/a	n/a	n/a	n/a
1934.39	n/a	REC_WORD	967195	wordpools/wasnorm_wordpool.txt	LTP089	ltpFR	5	12	-1	COOLER	375	n/a	n/a	-1	n/a	n/a	n/a	n/a	n/a
1935.478	n/a	REC_WORD	967739	wordpools/wasnorm_wordpool.txt	LTP089	ltpFR	5	12	-1	LODGE	839	n/a	n/a	-1	n/a	n/a	n/a	n/a	n/a
1937.394	n/a	REC_WORD_VV	968697	wordpools/wasnorm_wordpool.txt	LTP089	ltpFR	5	12	n/a	<>	-1	n/a	n/a	n/a	n/a	n/a	n/a	n/a	n/a
1941.39	n/a	REC_WORD	970695	wordpools/wasnorm_wordpool.txt	LTP089	ltpFR	5	12	-1	SHEARS	1276	n/a	n/a	-1	n/a	n/a	n/a	n/a	n/a
1956.686	n/a	REC_WORD	978343	wordpools/wasnorm_wordpool.txt	LTP089	ltpFR	5	12	-1	BILL	126	n/a	n/a	-1	n/a	n/a	n/a	n/a	n/a
1958.832	n/a	REC_WORD	979416	wordpools/wasnorm_wordpool.txt	LTP089	ltpFR	5	12	-1	CHECK	284	n/a	n/a	-1	n/a	n/a	n/a	n/a	n/a
2001.764	n/a	REST_REWET	1000882	n/a	LTP089	ltpFR	5	12	n/a	n/a	n/a	n/a	n/a	n/a	n/a	n/a	n/a	n/a	n/a
2280.582	n/a	WORD	1140291	wordpools/wasnorm_wordpool.txt	LTP089	ltpFR	5	13	-1	TWINE	1529	n/a	n/a	-1	1.0	1.0	1	upper	Verdana.ttf
2284.582	n/a	WORD	1142291	wordpools/wasnorm_wordpool.txt	LTP089	ltpFR	5	13	-1	CLAW	319	n/a	n/a	-1	1.0	1.0	1	upper	Verdana.ttf
2288.716	n/a	WORD	1144358	wordpools/wasnorm_wordpool.txt	LTP089	ltpFR	5	13	-1	POPE	1105	n/a	n/a	-1	1.0	1.0	1	upper	Verdana.ttf
2292.924	n/a	WORD	1146462	wordpools/wasnorm_wordpool.txt	LTP089	ltpFR	5	13	-1	MONK	910	n/a	n/a	-1	1.0	1.0	1	upper	Verdana.ttf
2297.118	n/a	WORD	1148559	wordpools/wasnorm_wordpool.txt	LTP089	ltpFR	5	13	-1	AIRPORT	13	n/a	n/a	-1	1.0	1.0	1	upper	Verdana.ttf
2301.058	n/a	WORD	1150529	wordpools/wasnorm_wordpool.txt	LTP089	ltpFR	5	13	-1	PLANE	1081	n/a	n/a	-1	1.0	1.0	1	upper	Verdana.ttf
2305.116	n/a	WORD	1152558	wordpools/wasnorm_wordpool.txt	LTP089	ltpFR	5	13	-1	SCENERY	1247	n/a	n/a	-1	1.0	1.0	1	upper	Verdana.ttf
2309.282	n/a	WORD	1154641	wordpools/wasnorm_wordpool.txt	LTP089	ltpFR	5	13	-1	SKI	1316	n/a	n/a	-1	1.0	1.0	1	upper	Verdana.ttf
2313.134	n/a	WORD	1156567	wordpools/wasnorm_wordpool.txt	LTP089	ltpFR	5	13	-1	MOON	914	n/a	n/a	-1	1.0	1.0	1	upper	Verdana.ttf
2317.224	n/a	WORD	1158612	wordpools/wasnorm_wordpool.txt	LTP089	ltpFR	5	13	-1	KIDNEY	776	n/a	n/a	-1	1.0	1.0	1	upper	Verdana.ttf
2321.066	n/a	WORD	1160533	wordpools/wasnorm_wordpool.txt	LTP089	ltpFR	5	13	-1	GOVERNOR	651	n/a	n/a	-1	1.0	1.0	1	upper	Verdana.ttf
2325.274	n/a	WORD	1162637	wordpools/wasnorm_wordpool.txt	LTP089	ltpFR	5	13	-1	SALESMAN	1225	n/a	n/a	-1	1.0	1.0	1	upper	Verdana.ttf
2329.424	n/a	WORD	1164712	wordpools/wasnorm_wordpool.txt	LTP089	ltpFR	5	13	-1	CRAB	397	n/a	n/a	-1	1.0	1.0	1	upper	Verdana.ttf
2333.382	n/a	WORD	1166691	wordpools/wasnorm_wordpool.txt	LTP089	ltpFR	5	13	-1	CHAIRPERSON	275	n/a	n/a	-1	1.0	1.0	1	upper	Verdana.ttf
2337.516	n/a	WORD	1168758	wordpools/wasnorm_wordpool.txt	LTP089	ltpFR	5	13	-1	WINGS	1614	n/a	n/a	-1	1.0	1.0	1	upper	Verdana.ttf
2341.332	n/a	WORD	1170666	wordpools/wasnorm_wordpool.txt	LTP089	ltpFR	5	13	-1	CONSUMER	365	n/a	n/a	-1	1.0	1.0	1	upper	Verdana.ttf
2347.258	n/a	REC_START	1173629	n/a	LTP089	ltpFR	5	13	n/a	n/a	n/a	n/a	n/a	n/a	n/a	n/a	n/a	n/a	n/a
2348.814	n/a	REC_WORD_VV	1174407	wordpools/wasnorm_wordpool.txt	LTP089	ltpFR	5	13	n/a	<>	-1	n/a	n/a	n/a	n/a	n/a	n/a	n/a	n/a
2349.422	n/a	REC_WORD_VV	1174711	wordpools/wasnorm_wordpool.txt	LTP089	ltpFR	5	13	n/a	<>	-1	n/a	n/a	n/a	n/a	n/a	n/a	n/a	n/a
2349.982	n/a	REC_WORD	1174991	wordpools/wasnorm_wordpool.txt	LTP089	ltpFR	5	13	-1	TWINE	1529	n/a	n/a	-1	n/a	n/a	n/a	n/a	n/a
2350.684	n/a	REC_WORD	1175342	wordpools/wasnorm_wordpool.txt	LTP089	ltpFR	5	13	-1	CLAW	319	n/a	n/a	-1	n/a	n/a	n/a	n/a	n/a
2351.926	n/a	REC_WORD	1175963	wordpools/wasnorm_wordpool.txt	LTP089	ltpFR	5	13	-1	POPE	1105	n/a	n/a	-1	n/a	n/a	n/a	n/a	n/a
2352.512	n/a	REC_WORD	1176256	wordpools/wasnorm_wordpool.txt	LTP089	ltpFR	5	13	-1	MONK	910	n/a	n/a	-1	n/a	n/a	n/a	n/a	n/a
2353.15	n/a	REC_WORD	1176575	wordpools/wasnorm_wordpool.txt	LTP089	ltpFR	5	13	-1	AIRPORT	13	n/a	n/a	-1	n/a	n/a	n/a	n/a	n/a
2353.888	n/a	REC_WORD	1176944	wordpools/wasnorm_wordpool.txt	LTP089	ltpFR	5	13	-1	GOVERNOR	651	n/a	n/a	-1	n/a	n/a	n/a	n/a	n/a
2355.306	n/a	REC_WORD_VV	1177653	wordpools/wasnorm_wordpool.txt	LTP089	ltpFR	5	13	n/a	<>	-1	n/a	n/a	n/a	n/a	n/a	n/a	n/a	n/a
2363.682	n/a	REC_WORD_VV	1181841	wordpools/wasnorm_wordpool.txt	LTP089	ltpFR	5	13	n/a	<>	-1	n/a	n/a	n/a	n/a	n/a	n/a	n/a	n/a
2367.352	n/a	REC_WORD_VV	1183676	wordpools/wasnorm_wordpool.txt	LTP089	ltpFR	5	13	n/a	<>	-1	n/a	n/a	n/a	n/a	n/a	n/a	n/a	n/a
2368.304	n/a	REC_WORD_VV	1184152	wordpools/wasnorm_wordpool.txt	LTP089	ltpFR	5	13	n/a	<>	-1	n/a	n/a	n/a	n/a	n/a	n/a	n/a	n/a
2369.304	n/a	REC_WORD_VV	1184652	wordpools/wasnorm_wordpool.txt	LTP089	ltpFR	5	13	n/a	<>	-1	n/a	n/a	n/a	n/a	n/a	n/a	n/a	n/a
2370.304	n/a	REC_WORD_VV	1185152	wordpools/wasnorm_wordpool.txt	LTP089	ltpFR	5	13	n/a	<>	-1	n/a	n/a	n/a	n/a	n/a	n/a	n/a	n/a
2371.304	n/a	REC_WORD_VV	1185652	wordpools/wasnorm_wordpool.txt	LTP089	ltpFR	5	13	n/a	<>	-1	n/a	n/a	n/a	n/a	n/a	n/a	n/a	n/a
2372.304	n/a	REC_WORD_VV	1186152	wordpools/wasnorm_wordpool.txt	LTP089	ltpFR	5	13	n/a	<>	-1	n/a	n/a	n/a	n/a	n/a	n/a	n/a	n/a
2373.304	n/a	REC_WORD_VV	1186652	wordpools/wasnorm_wordpool.txt	LTP089	ltpFR	5	13	n/a	<>	-1	n/a	n/a	n/a	n/a	n/a	n/a	n/a	n/a
2374.304	n/a	REC_WORD_VV	1187152	wordpools/wasnorm_wordpool.txt	LTP089	ltpFR	5	13	n/a	<>	-1	n/a	n/a	n/a	n/a	n/a	n/a	n/a	n/a
2375.304	n/a	REC_WORD_VV	1187652	wordpools/wasnorm_wordpool.txt	LTP089	ltpFR	5	13	n/a	<>	-1	n/a	n/a	n/a	n/a	n/a	n/a	n/a	n/a
2376.304	n/a	REC_WORD_VV	1188152	wordpools/wasnorm_wordpool.txt	LTP089	ltpFR	5	13	n/a	<>	-1	n/a	n/a	n/a	n/a	n/a	n/a	n/a	n/a
2377.304	n/a	REC_WORD_VV	1188652	wordpools/wasnorm_wordpool.txt	LTP089	ltpFR	5	13	n/a	<>	-1	n/a	n/a	n/a	n/a	n/a	n/a	n/a	n/a
2378.304	n/a	REC_WORD_VV	1189152	wordpools/wasnorm_wordpool.txt	LTP089	ltpFR	5	13	n/a	<>	-1	n/a	n/a	n/a	n/a	n/a	n/a	n/a	n/a
2379.304	n/a	REC_WORD_VV	1189652	wordpools/wasnorm_wordpool.txt	LTP089	ltpFR	5	13	n/a	<>	-1	n/a	n/a	n/a	n/a	n/a	n/a	n/a	n/a
2380.304	n/a	REC_WORD_VV	1190152	wordpools/wasnorm_wordpool.txt	LTP089	ltpFR	5	13	n/a	<>	-1	n/a	n/a	n/a	n/a	n/a	n/a	n/a	n/a
2381.304	n/a	REC_WORD_VV	1190652	wordpools/wasnorm_wordpool.txt	LTP089	ltpFR	5	13	n/a	<>	-1	n/a	n/a	n/a	n/a	n/a	n/a	n/a	n/a
2382.304	n/a	REC_WORD_VV	1191152	wordpools/wasnorm_wordpool.txt	LTP089	ltpFR	5	13	n/a	<>	-1	n/a	n/a	n/a	n/a	n/a	n/a	n/a	n/a
2383.304	n/a	REC_WORD_VV	1191652	wordpools/wasnorm_wordpool.txt	LTP089	ltpFR	5	13	n/a	<>	-1	n/a	n/a	n/a	n/a	n/a	n/a	n/a	n/a
2384.304	n/a	REC_WORD_VV	1192152	wordpools/wasnorm_wordpool.txt	LTP089	ltpFR	5	13	n/a	<>	-1	n/a	n/a	n/a	n/a	n/a	n/a	n/a	n/a
2385.304	n/a	REC_WORD_VV	1192652	wordpools/wasnorm_wordpool.txt	LTP089	ltpFR	5	13	n/a	<>	-1	n/a	n/a	n/a	n/a	n/a	n/a	n/a	n/a
2386.304	n/a	REC_WORD_VV	1193152	wordpools/wasnorm_wordpool.txt	LTP089	ltpFR	5	13	n/a	<>	-1	n/a	n/a	n/a	n/a	n/a	n/a	n/a	n/a
2387.304	n/a	REC_WORD_VV	1193652	wordpools/wasnorm_wordpool.txt	LTP089	ltpFR	5	13	n/a	<>	-1	n/a	n/a	n/a	n/a	n/a	n/a	n/a	n/a
2388.304	n/a	REC_WORD_VV	1194152	wordpools/wasnorm_wordpool.txt	LTP089	ltpFR	5	13	n/a	<>	-1	n/a	n/a	n/a	n/a	n/a	n/a	n/a	n/a
2389.304	n/a	REC_WORD_VV	1194652	wordpools/wasnorm_wordpool.txt	LTP089	ltpFR	5	13	n/a	<>	-1	n/a	n/a	n/a	n/a	n/a	n/a	n/a	n/a
2390.304	n/a	REC_WORD_VV	1195152	wordpools/wasnorm_wordpool.txt	LTP089	ltpFR	5	13	n/a	<>	-1	n/a	n/a	n/a	n/a	n/a	n/a	n/a	n/a
2391.304	n/a	REC_WORD_VV	1195652	wordpools/wasnorm_wordpool.txt	LTP089	ltpFR	5	13	n/a	<>	-1	n/a	n/a	n/a	n/a	n/a	n/a	n/a	n/a
2392.306	n/a	REC_WORD_VV	1196153	wordpools/wasnorm_wordpool.txt	LTP089	ltpFR	5	13	n/a	<>	-1	n/a	n/a	n/a	n/a	n/a	n/a	n/a	n/a
2393.306	n/a	REC_WORD_VV	1196653	wordpools/wasnorm_wordpool.txt	LTP089	ltpFR	5	13	n/a	<>	-1	n/a	n/a	n/a	n/a	n/a	n/a	n/a	n/a
2394.306	n/a	REC_WORD_VV	1197153	wordpools/wasnorm_wordpool.txt	LTP089	ltpFR	5	13	n/a	<>	-1	n/a	n/a	n/a	n/a	n/a	n/a	n/a	n/a
2395.306	n/a	REC_WORD_VV	1197653	wordpools/wasnorm_wordpool.txt	LTP089	ltpFR	5	13	n/a	<>	-1	n/a	n/a	n/a	n/a	n/a	n/a	n/a	n/a
2396.306	n/a	REC_WORD_VV	1198153	wordpools/wasnorm_wordpool.txt	LTP089	ltpFR	5	13	n/a	<>	-1	n/a	n/a	n/a	n/a	n/a	n/a	n/a	n/a
2397.306	n/a	REC_WORD_VV	1198653	wordpools/wasnorm_wordpool.txt	LTP089	ltpFR	5	13	n/a	<>	-1	n/a	n/a	n/a	n/a	n/a	n/a	n/a	n/a
2398.306	n/a	REC_WORD_VV	1199153	wordpools/wasnorm_wordpool.txt	LTP089	ltpFR	5	13	n/a	<>	-1	n/a	n/a	n/a	n/a	n/a	n/a	n/a	n/a
2399.306	n/a	REC_WORD_VV	1199653	wordpools/wasnorm_wordpool.txt	LTP089	ltpFR	5	13	n/a	<>	-1	n/a	n/a	n/a	n/a	n/a	n/a	n/a	n/a
2400.306	n/a	REC_WORD_VV	1200153	wordpools/wasnorm_wordpool.txt	LTP089	ltpFR	5	13	n/a	<>	-1	n/a	n/a	n/a	n/a	n/a	n/a	n/a	n/a
2401.306	n/a	REC_WORD_VV	1200653	wordpools/wasnorm_wordpool.txt	LTP089	ltpFR	5	13	n/a	<>	-1	n/a	n/a	n/a	n/a	n/a	n/a	n/a	n/a
2402.306	n/a	REC_WORD_VV	1201153	wordpools/wasnorm_wordpool.txt	LTP089	ltpFR	5	13	n/a	<>	-1	n/a	n/a	n/a	n/a	n/a	n/a	n/a	n/a
2403.306	n/a	REC_WORD_VV	1201653	wordpools/wasnorm_wordpool.txt	LTP089	ltpFR	5	13	n/a	<>	-1	n/a	n/a	n/a	n/a	n/a	n/a	n/a	n/a
2404.306	n/a	REC_WORD_VV	1202153	wordpools/wasnorm_wordpool.txt	LTP089	ltpFR	5	13	n/a	<>	-1	n/a	n/a	n/a	n/a	n/a	n/a	n/a	n/a
2405.306	n/a	REC_WORD_VV	1202653	wordpools/wasnorm_wordpool.txt	LTP089	ltpFR	5	13	n/a	<>	-1	n/a	n/a	n/a	n/a	n/a	n/a	n/a	n/a
2406.306	n/a	REC_WORD_VV	1203153	wordpools/wasnorm_wordpool.txt	LTP089	ltpFR	5	13	n/a	<>	-1	n/a	n/a	n/a	n/a	n/a	n/a	n/a	n/a
2407.306	n/a	REC_WORD_VV	1203653	wordpools/wasnorm_wordpool.txt	LTP089	ltpFR	5	13	n/a	<>	-1	n/a	n/a	n/a	n/a	n/a	n/a	n/a	n/a
2408.306	n/a	REC_WORD_VV	1204153	wordpools/wasnorm_wordpool.txt	LTP089	ltpFR	5	13	n/a	<>	-1	n/a	n/a	n/a	n/a	n/a	n/a	n/a	n/a
2409.306	n/a	REC_WORD_VV	1204653	wordpools/wasnorm_wordpool.txt	LTP089	ltpFR	5	13	n/a	<>	-1	n/a	n/a	n/a	n/a	n/a	n/a	n/a	n/a
2410.306	n/a	REC_WORD_VV	1205153	wordpools/wasnorm_wordpool.txt	LTP089	ltpFR	5	13	n/a	<>	-1	n/a	n/a	n/a	n/a	n/a	n/a	n/a	n/a
2411.306	n/a	REC_WORD_VV	1205653	wordpools/wasnorm_wordpool.txt	LTP089	ltpFR	5	13	n/a	<>	-1	n/a	n/a	n/a	n/a	n/a	n/a	n/a	n/a
2412.306	n/a	REC_WORD_VV	1206153	wordpools/wasnorm_wordpool.txt	LTP089	ltpFR	5	13	n/a	<>	-1	n/a	n/a	n/a	n/a	n/a	n/a	n/a	n/a
2413.306	n/a	REC_WORD_VV	1206653	wordpools/wasnorm_wordpool.txt	LTP089	ltpFR	5	13	n/a	<>	-1	n/a	n/a	n/a	n/a	n/a	n/a	n/a	n/a
2414.306	n/a	REC_WORD_VV	1207153	wordpools/wasnorm_wordpool.txt	LTP089	ltpFR	5	13	n/a	<>	-1	n/a	n/a	n/a	n/a	n/a	n/a	n/a	n/a
2415.306	n/a	REC_WORD_VV	1207653	wordpools/wasnorm_wordpool.txt	LTP089	ltpFR	5	13	n/a	<>	-1	n/a	n/a	n/a	n/a	n/a	n/a	n/a	n/a
2416.306	n/a	REC_WORD_VV	1208153	wordpools/wasnorm_wordpool.txt	LTP089	ltpFR	5	13	n/a	<>	-1	n/a	n/a	n/a	n/a	n/a	n/a	n/a	n/a
2417.306	n/a	REC_WORD_VV	1208653	wordpools/wasnorm_wordpool.txt	LTP089	ltpFR	5	13	n/a	<>	-1	n/a	n/a	n/a	n/a	n/a	n/a	n/a	n/a
2418.306	n/a	REC_WORD_VV	1209153	wordpools/wasnorm_wordpool.txt	LTP089	ltpFR	5	13	n/a	<>	-1	n/a	n/a	n/a	n/a	n/a	n/a	n/a	n/a
2419.306	n/a	REC_WORD_VV	1209653	wordpools/wasnorm_wordpool.txt	LTP089	ltpFR	5	13	n/a	<>	-1	n/a	n/a	n/a	n/a	n/a	n/a	n/a	n/a
2420.306	n/a	REC_WORD_VV	1210153	wordpools/wasnorm_wordpool.txt	LTP089	ltpFR	5	13	n/a	<>	-1	n/a	n/a	n/a	n/a	n/a	n/a	n/a	n/a
2421.306	n/a	REC_WORD_VV	1210653	wordpools/wasnorm_wordpool.txt	LTP089	ltpFR	5	13	n/a	<>	-1	n/a	n/a	n/a	n/a	n/a	n/a	n/a	n/a
2425.38	n/a	WORD	1212690	wordpools/wasnorm_wordpool.txt	LTP089	ltpFR	5	14	1	VICTIM	1562	n/a	n/a	3	0.57763671875	0.412841796875	1	upper	zerothre.ttf
2426.512	n/a	KEY_MSG	1213256	n/a	LTP089	ltpFR	5	14	n/a	n/a	n/a	n/a	n/a	n/a	n/a	n/a	n/a	n/a	n/a
2429.23	n/a	WORD	1214615	wordpools/wasnorm_wordpool.txt	LTP089	ltpFR	5	14	1	PATIENT	1024	n/a	n/a	1	0.57763671875	0.412841796875	1	upper	zerothre.ttf
2433.414	n/a	WORD	1216707	wordpools/wasnorm_wordpool.txt	LTP089	ltpFR	5	14	1	MEDICINE	886	n/a	n/a	1	0.57763671875	0.412841796875	1	upper	zerothre.ttf
2437.52	n/a	WORD	1218760	wordpools/wasnorm_wordpool.txt	LTP089	ltpFR	5	14	1	AIRCRAFT	11	n/a	n/a	0	0.57763671875	0.412841796875	1	upper	zerothre.ttf
2441.496	n/a	WORD	1220748	wordpools/wasnorm_wordpool.txt	LTP089	ltpFR	5	14	1	RULER	1216	n/a	n/a	0	0.57763671875	0.412841796875	1	upper	zerothre.ttf
2445.346	n/a	WORD	1222673	wordpools/wasnorm_wordpool.txt	LTP089	ltpFR	5	14	1	BALCONY	72	n/a	n/a	0	0.57763671875	0.412841796875	1	upper	zerothre.ttf
2449.254	n/a	WORD	1224627	wordpools/wasnorm_wordpool.txt	LTP089	ltpFR	5	14	1	FIGHTER	564	n/a	n/a	1	0.57763671875	0.412841796875	1	upper	zerothre.ttf
2453.114	n/a	WORD	1226557	wordpools/wasnorm_wordpool.txt	LTP089	ltpFR	5	14	1	SALT	1229	n/a	n/a	0	0.57763671875	0.412841796875	1	upper	zerothre.ttf
2457.212	n/a	WORD	1228606	wordpools/wasnorm_wordpool.txt	LTP089	ltpFR	5	14	1	PIZZA	1079	n/a	n/a	0	0.57763671875	0.412841796875	1	upper	zerothre.ttf
2461.37	n/a	WORD	1230685	wordpools/wasnorm_wordpool.txt	LTP089	ltpFR	5	14	1	POISON	1096	n/a	n/a	0	0.57763671875	0.412841796875	1	upper	zerothre.ttf
2465.528	n/a	WORD	1232764	wordpools/wasnorm_wordpool.txt	LTP089	ltpFR	5	14	1	DRUG	501	n/a	n/a	0	0.57763671875	0.412841796875	1	upper	zerothre.ttf
2469.47	n/a	WORD	1234735	wordpools/wasnorm_wordpool.txt	LTP089	ltpFR	5	14	1	ANKLE	24	n/a	n/a	0	0.57763671875	0.412841796875	1	upper	zerothre.ttf
2473.578	n/a	WORD	1236789	wordpools/wasnorm_wordpool.txt	LTP089	ltpFR	5	14	1	RAFT	1159	n/a	n/a	0	0.57763671875	0.412841796875	1	upper	zerothre.ttf
2477.604	n/a	WORD	1238802	wordpools/wasnorm_wordpool.txt	LTP089	ltpFR	5	14	1	WATER	1594	n/a	n/a	1	0.57763671875	0.412841796875	1	upper	zerothre.ttf
2481.52	n/a	WORD	1240760	wordpools/wasnorm_wordpool.txt	LTP089	ltpFR	5	14	1	BASEMENT	94	n/a	n/a	0	0.57763671875	0.412841796875	1	upper	zerothre.ttf
2485.728	n/a	WORD	1242864	wordpools/wasnorm_wordpool.txt	LTP089	ltpFR	5	14	1	DRAGON	492	n/a	n/a	0	0.57763671875	0.412841796875	1	upper	zerothre.ttf
2491.678	n/a	REC_START	1245839	n/a	LTP089	ltpFR	5	14	n/a	n/a	n/a	n/a	n/a	n/a	n/a	n/a	n/a	n/a	n/a
2494.298	n/a	REC_WORD_VV	1247149	wordpools/wasnorm_wordpool.txt	LTP089	ltpFR	5	14	n/a	<>	-1	n/a	n/a	n/a	n/a	n/a	n/a	n/a	n/a
2495.298	n/a	REC_WORD_VV	1247649	wordpools/wasnorm_wordpool.txt	LTP089	ltpFR	5	14	n/a	<>	-1	n/a	n/a	n/a	n/a	n/a	n/a	n/a	n/a
2497.116	n/a	REC_WORD	1248558	wordpools/wasnorm_wordpool.txt	LTP089	ltpFR	5	14	1	DRAGON	492	n/a	n/a	0	n/a	n/a	n/a	n/a	n/a
2509.468	n/a	REC_WORD_VV	1254734	wordpools/wasnorm_wordpool.txt	LTP089	ltpFR	5	14	n/a	<>	-1	n/a	n/a	n/a	n/a	n/a	n/a	n/a	n/a
2512.462	n/a	REC_WORD_VV	1256231	wordpools/wasnorm_wordpool.txt	LTP089	ltpFR	5	14	n/a	<>	-1	n/a	n/a	n/a	n/a	n/a	n/a	n/a	n/a
2514.248	n/a	REC_WORD_VV	1257124	wordpools/wasnorm_wordpool.txt	LTP089	ltpFR	5	14	n/a	<>	-1	n/a	n/a	n/a	n/a	n/a	n/a	n/a	n/a
2515.248	n/a	REC_WORD_VV	1257624	wordpools/wasnorm_wordpool.txt	LTP089	ltpFR	5	14	n/a	<>	-1	n/a	n/a	n/a	n/a	n/a	n/a	n/a	n/a
2518.09	n/a	REC_WORD_VV	1259045	wordpools/wasnorm_wordpool.txt	LTP089	ltpFR	5	14	n/a	<>	-1	n/a	n/a	n/a	n/a	n/a	n/a	n/a	n/a
2519.09	n/a	REC_WORD_VV	1259545	wordpools/wasnorm_wordpool.txt	LTP089	ltpFR	5	14	n/a	<>	-1	n/a	n/a	n/a	n/a	n/a	n/a	n/a	n/a
2520.09	n/a	REC_WORD_VV	1260045	wordpools/wasnorm_wordpool.txt	LTP089	ltpFR	5	14	n/a	<>	-1	n/a	n/a	n/a	n/a	n/a	n/a	n/a	n/a
2521.09	n/a	REC_WORD_VV	1260545	wordpools/wasnorm_wordpool.txt	LTP089	ltpFR	5	14	n/a	<>	-1	n/a	n/a	n/a	n/a	n/a	n/a	n/a	n/a
2582.926	n/a	WORD	1291463	wordpools/wasnorm_wordpool.txt	LTP089	ltpFR	5	15	-1	PATH	1023	n/a	n/a	-1	1.0	1.0	1	upper	Verdana.ttf
2586.808	n/a	WORD	1293404	wordpools/wasnorm_wordpool.txt	LTP089	ltpFR	5	15	-1	EMPLOYEE	531	n/a	n/a	-1	1.0	1.0	1	upper	Verdana.ttf
2590.932	n/a	WORD	1295466	wordpools/wasnorm_wordpool.txt	LTP089	ltpFR	5	15	-1	TRENCH	1503	n/a	n/a	-1	1.0	1.0	1	upper	Verdana.ttf
2594.942	n/a	WORD	1297471	wordpools/wasnorm_wordpool.txt	LTP089	ltpFR	5	15	-1	WOLF	1619	n/a	n/a	-1	1.0	1.0	1	upper	Verdana.ttf
2598.942	n/a	WORD	1299471	wordpools/wasnorm_wordpool.txt	LTP089	ltpFR	5	15	-1	PIGMENT	1066	n/a	n/a	-1	1.0	1.0	1	upper	Verdana.ttf
2602.974	n/a	WORD	1301487	wordpools/wasnorm_wordpool.txt	LTP089	ltpFR	5	15	-1	CLERK	321	n/a	n/a	-1	1.0	1.0	1	upper	Verdana.ttf
2607.092	n/a	WORD	1303546	wordpools/wasnorm_wordpool.txt	LTP089	ltpFR	5	15	-1	CANYON	235	n/a	n/a	-1	1.0	1.0	1	upper	Verdana.ttf
2610.958	n/a	WORD	1305479	wordpools/wasnorm_wordpool.txt	LTP089	ltpFR	5	15	-1	DUST	508	n/a	n/a	-1	1.0	1.0	1	upper	Verdana.ttf
2615.076	n/a	WORD	1307538	wordpools/wasnorm_wordpool.txt	LTP089	ltpFR	5	15	-1	GROUND	666	n/a	n/a	-1	1.0	1.0	1	upper	Verdana.ttf
2619.218	n/a	WORD	1309609	wordpools/wasnorm_wordpool.txt	LTP089	ltpFR	5	15	-1	HELICOPTER	701	n/a	n/a	-1	1.0	1.0	1	upper	Verdana.ttf
2623.334	n/a	WORD	1311667	wordpools/wasnorm_wordpool.txt	LTP089	ltpFR	5	15	-1	TERMINAL	1450	n/a	n/a	-1	1.0	1.0	1	upper	Verdana.ttf
2627.384	n/a	WORD	1313692	wordpools/wasnorm_wordpool.txt	LTP089	ltpFR	5	15	-1	BARK	87	n/a	n/a	-1	1.0	1.0	1	upper	Verdana.ttf
2631.384	n/a	WORD	1315692	wordpools/wasnorm_wordpool.txt	LTP089	ltpFR	5	15	-1	SIRLOIN	1311	n/a	n/a	-1	1.0	1.0	1	upper	Verdana.ttf
2635.392	n/a	WORD	1317696	wordpools/wasnorm_wordpool.txt	LTP089	ltpFR	5	15	-1	MEAL	882	n/a	n/a	-1	1.0	1.0	1	upper	Verdana.ttf
2639.492	n/a	WORD	1319746	wordpools/wasnorm_wordpool.txt	LTP089	ltpFR	5	15	-1	PUPIL	1143	n/a	n/a	-1	1.0	1.0	1	upper	Verdana.ttf
2643.516	n/a	WORD	1321758	wordpools/wasnorm_wordpool.txt	LTP089	ltpFR	5	15	-1	GANG	619	n/a	n/a	-1	1.0	1.0	1	upper	Verdana.ttf
2649.316	n/a	REC_START	1324658	n/a	LTP089	ltpFR	5	15	n/a	n/a	n/a	n/a	n/a	n/a	n/a	n/a	n/a	n/a	n/a
2653.328	n/a	REC_WORD_VV	1326664	wordpools/wasnorm_wordpool.txt	LTP089	ltpFR	5	15	n/a	<>	-1	n/a	n/a	n/a	n/a	n/a	n/a	n/a	n/a
2654.334	n/a	REC_WORD_VV	1327167	wordpools/wasnorm_wordpool.txt	LTP089	ltpFR	5	15	n/a	<>	-1	n/a	n/a	n/a	n/a	n/a	n/a	n/a	n/a
2655.662	n/a	REC_WORD	1327831	wordpools/wasnorm_wordpool.txt	LTP089	ltpFR	5	15	-1	PUPIL	1143	n/a	n/a	-1	n/a	n/a	n/a	n/a	n/a
2656.06	n/a	REC_WORD	1328030	wordpools/wasnorm_wordpool.txt	LTP089	ltpFR	5	15	-1	GANG	619	n/a	n/a	-1	n/a	n/a	n/a	n/a	n/a
2657.784	n/a	REC_WORD_VV	1328892	wordpools/wasnorm_wordpool.txt	LTP089	ltpFR	5	15	n/a	<>	-1	n/a	n/a	n/a	n/a	n/a	n/a	n/a	n/a
2660.052	n/a	REC_WORD_VV	1330026	wordpools/wasnorm_wordpool.txt	LTP089	ltpFR	5	15	n/a	<>	-1	n/a	n/a	n/a	n/a	n/a	n/a	n/a	n/a
2661.37	n/a	REC_WORD	1330685	wordpools/wasnorm_wordpool.txt	LTP089	ltpFR	5	15	-1	EMPLOYEE	531	n/a	n/a	-1	n/a	n/a	n/a	n/a	n/a
2661.984	n/a	REC_WORD	1330992	wordpools/wasnorm_wordpool.txt	LTP089	ltpFR	5	15	0	ROAD	1196	n/a	n/a	1	n/a	n/a	n/a	n/a	n/a
2663.28	n/a	REC_WORD	1331640	wordpools/wasnorm_wordpool.txt	LTP089	ltpFR	5	15	-1	TRENCH	1503	n/a	n/a	-1	n/a	n/a	n/a	n/a	n/a
2664.018	n/a	REC_WORD	1332009	wordpools/wasnorm_wordpool.txt	LTP089	ltpFR	5	15	-1	WOLF	1619	n/a	n/a	-1	n/a	n/a	n/a	n/a	n/a
2664.698	n/a	REC_WORD	1332349	wordpools/wasnorm_wordpool.txt	LTP089	ltpFR	5	15	-1	PIGMENT	1066	n/a	n/a	-1	n/a	n/a	n/a	n/a	n/a
2665.212	n/a	REC_WORD	1332606	wordpools/wasnorm_wordpool.txt	LTP089	ltpFR	5	15	-1	HELICOPTER	701	n/a	n/a	-1	n/a	n/a	n/a	n/a	n/a
2665.934	n/a	REC_WORD	1332967	wordpools/wasnorm_wordpool.txt	LTP089	ltpFR	5	15	-1	DUST	508	n/a	n/a	-1	n/a	n/a	n/a	n/a	n/a
2666.444	n/a	REC_WORD	1333222	wordpools/wasnorm_wordpool.txt	LTP089	ltpFR	5	15	-1	GROUND	666	n/a	n/a	-1	n/a	n/a	n/a	n/a	n/a
2667.166	n/a	REC_WORD	1333583	wordpools/wasnorm_wordpool.txt	LTP089	ltpFR	5	15	-1	CLERK	321	n/a	n/a	-1	n/a	n/a	n/a	n/a	n/a
2668.578	n/a	REC_WORD_VV	1334289	wordpools/wasnorm_wordpool.txt	LTP089	ltpFR	5	15	n/a	<>	-1	n/a	n/a	n/a	n/a	n/a	n/a	n/a	n/a
2670.574	n/a	REC_WORD	1335287	wordpools/wasnorm_wordpool.txt	LTP089	ltpFR	5	15	-1	EMPLOYEE	531	n/a	n/a	-1	n/a	n/a	n/a	n/a	n/a
2727.988	n/a	WORD	1363994	wordpools/wasnorm_wordpool.txt	LTP089	ltpFR	5	16	0	CUCUMBER	421	n/a	n/a	3	0.422607421875	0.5869140625	0	lower	amplitud.ttf
2728.796	n/a	KEY_MSG	1364398	n/a	LTP089	ltpFR	5	16	n/a	n/a	n/a	n/a	n/a	n/a	n/a	n/a	n/a	n/a	n/a
2731.946	n/a	WORD	1365973	wordpools/wasnorm_wordpool.txt	LTP089	ltpFR	5	16	0	MILITARY	894	n/a	n/a	1	0.422607421875	0.5869140625	0	lower	amplitud.ttf
2735.804	n/a	WORD	1367902	wordpools/wasnorm_wordpool.txt	LTP089	ltpFR	5	16	1	COLONEL	348	n/a	n/a	1	0.57763671875	0.412841796875	1	upper	zerothre.ttf
2739.904	n/a	WORD	1369952	wordpools/wasnorm_wordpool.txt	LTP089	ltpFR	5	16	1	IDOL	733	n/a	n/a	1	0.57763671875	0.412841796875	1	upper	zerothre.ttf
2744.096	n/a	WORD	1372048	wordpools/wasnorm_wordpool.txt	LTP089	ltpFR	5	16	1	DEER	444	n/a	n/a	1	0.57763671875	0.412841796875	1	upper	zerothre.ttf
2748.288	n/a	WORD	1374144	wordpools/wasnorm_wordpool.txt	LTP089	ltpFR	5	16	1	EXPERT	543	n/a	n/a	1	0.57763671875	0.412841796875	1	upper	zerothre.ttf
2752.264	n/a	WORD	1376132	wordpools/wasnorm_wordpool.txt	LTP089	ltpFR	5	16	1	LOOP	844	n/a	n/a	1	0.57763671875	0.412841796875	1	upper	zerothre.ttf
2756.472	n/a	WORD	1378236	wordpools/wasnorm_wordpool.txt	LTP089	ltpFR	5	16	0	NOOSE	956	n/a	n/a	0	0.422607421875	0.5869140625	0	lower	amplitud.ttf
2760.314	n/a	WORD	1380157	wordpools/wasnorm_wordpool.txt	LTP089	ltpFR	5	16	0	SNORKEL	1336	n/a	n/a	0	0.422607421875	0.5869140625	0	lower	amplitud.ttf
2764.338	n/a	WORD	1382169	wordpools/wasnorm_wordpool.txt	LTP089	ltpFR	5	16	0	PICKLE	1059	n/a	n/a	0	0.422607421875	0.5869140625	0	lower	amplitud.ttf
2768.338	n/a	WORD	1384169	wordpools/wasnorm_wordpool.txt	LTP089	ltpFR	5	16	1	GLACIER	638	n/a	n/a	n/a	0.57763671875	0.412841796875	1	upper	zerothre.ttf
2771.364	n/a	SLOW_MSG	1385682	n/a	LTP089	ltpFR	5	16	n/a	n/a	n/a	n/a	n/a	n/a	n/a	n/a	n/a	n/a	n/a
2773.728	n/a	WORD	1386864	wordpools/wasnorm_wordpool.txt	LTP089	ltpFR	5	16	1	SINK	1309	n/a	n/a	1	0.57763671875	0.412841796875	1	upper	zerothre.ttf
2777.712	n/a	WORD	1388856	wordpools/wasnorm_wordpool.txt	LTP089	ltpFR	5	16	1	YACHT	1629	n/a	n/a	0	0.57763671875	0.412841796875	1	upper	zerothre.ttf
2781.536	n/a	WORD	1390768	wordpools/wasnorm_wordpool.txt	LTP089	ltpFR	5	16	0	KLEENEX	782	n/a	n/a	1	0.422607421875	0.5869140625	0	lower	amplitud.ttf
2785.454	n/a	WORD	1392727	wordpools/wasnorm_wordpool.txt	LTP089	ltpFR	5	16	0	BEGGAR	117	n/a	n/a	1	0.422607421875	0.5869140625	0	lower	amplitud.ttf
2789.412	n/a	WORD	1394706	wordpools/wasnorm_wordpool.txt	LTP089	ltpFR	5	16	0	BANKER	84	n/a	n/a	1	0.422607421875	0.5869140625	0	lower	amplitud.ttf
2795.288	n/a	REC_START	1397644	n/a	LTP089	ltpFR	5	16	n/a	n/a	n/a	n/a	n/a	n/a	n/a	n/a	n/a	n/a	n/a
2796.54	n/a	REC_WORD	1398270	wordpools/wasnorm_wordpool.txt	LTP089	ltpFR	5	16	0	BEGGAR	117	n/a	n/a	1	n/a	n/a	n/a	n/a	n/a
2797.012	n/a	REC_WORD	1398506	wordpools/wasnorm_wordpool.txt	LTP089	ltpFR	5	16	0	BANKER	84	n/a	n/a	1	n/a	n/a	n/a	n/a	n/a
2797.388	n/a	REC_WORD	1398694	wordpools/wasnorm_wordpool.txt	LTP089	ltpFR	5	16	0	KLEENEX	782	n/a	n/a	1	n/a	n/a	n/a	n/a	n/a
2798.416	n/a	REC_WORD	1399208	wordpools/wasnorm_wordpool.txt	LTP089	ltpFR	5	16	1	COLONEL	348	n/a	n/a	1	n/a	n/a	n/a	n/a	n/a
2799.084	n/a	REC_WORD	1399542	wordpools/wasnorm_wordpool.txt	LTP089	ltpFR	5	16	1	IDOL	733	n/a	n/a	1	n/a	n/a	n/a	n/a	n/a
2799.852	n/a	REC_WORD	1399926	wordpools/wasnorm_wordpool.txt	LTP089	ltpFR	5	16	0	MILITARY	894	n/a	n/a	1	n/a	n/a	n/a	n/a	n/a
2801.43	n/a	REC_WORD_VV	1400715	wordpools/wasnorm_wordpool.txt	LTP089	ltpFR	5	16	n/a	<>	-1	n/a	n/a	n/a	n/a	n/a	n/a	n/a	n/a
2802.696	n/a	REC_WORD	1401348	wordpools/wasnorm_wordpool.txt	LTP089	ltpFR	5	16	0	CUCUMBER	421	n/a	n/a	3	n/a	n/a	n/a	n/a	n/a
2816.346	n/a	REC_WORD_VV	1408173	wordpools/wasnorm_wordpool.txt	LTP089	ltpFR	5	16	n/a	<>	-1	n/a	n/a	n/a	n/a	n/a	n/a	n/a	n/a
2891.17	n/a	REC_START	1445585	n/a	LTP089	ltpFR	5	1	n/a	n/a	n/a	n/a	n/a	n/a	n/a	n/a	n/a	n/a	n/a
2891.202	n/a	RECOG_LURE	1445601	n/a	LTP089	ltpFR	5	1	n/a	THORN	1459	0	5	n/a	n/a	n/a	n/a	n/a	n/a
2894.846	n/a	RECOG_RESP	1447423	n/a	LTP089	ltpFR	5	1	n/a	THORN	1459	0	n/a	n/a	n/a	n/a	n/a	n/a	n/a
2896.772	n/a	RECOG_CONF	1448386	n/a	LTP089	ltpFR	5	1	n/a	THORN	1459	n/a	5	n/a	n/a	n/a	n/a	n/a	n/a
2898.318	n/a	RECOG_LURE	1449159	n/a	LTP089	ltpFR	5	1	n/a	SURGEON	1413	0	5	n/a	n/a	n/a	n/a	n/a	n/a
2899.39	n/a	RECOG_RESP	1449695	n/a	LTP089	ltpFR	5	1	n/a	SURGEON	1413	0	n/a	n/a	n/a	n/a	n/a	n/a	n/a
2900.084	n/a	RECOG_CONF	1450042	n/a	LTP089	ltpFR	5	1	n/a	SURGEON	1413	n/a	5	n/a	n/a	n/a	n/a	n/a	n/a
2901.318	n/a	RECOG_TARGET	1450659	n/a	LTP089	ltpFR	5	1	1	AIRCRAFT	11	1	5	0	n/a	n/a	n/a	n/a	n/a
2902.094	n/a	RECOG_RESP	1451047	n/a	LTP089	ltpFR	5	1	1	AIRCRAFT	11	1	n/a	0	n/a	n/a	n/a	n/a	n/a
2902.568	n/a	RECOG_CONF	1451284	n/a	LTP089	ltpFR	5	1	1	AIRCRAFT	11	n/a	5	0	n/a	n/a	n/a	n/a	n/a
2903.916	n/a	RECOG_TARGET	1451958	n/a	LTP089	ltpFR	5	1	0	POTATO	1115	0	5	1	n/a	n/a	n/a	n/a	n/a
2904.634	n/a	RECOG_RESP	1452317	n/a	LTP089	ltpFR	5	1	0	POTATO	1115	0	n/a	1	n/a	n/a	n/a	n/a	n/a
2905.102	n/a	RECOG_CONF	1452551	n/a	LTP089	ltpFR	5	1	0	POTATO	1115	n/a	5	1	n/a	n/a	n/a	n/a	n/a
2906.384	n/a	RECOG_LURE	1453192	n/a	LTP089	ltpFR	5	1	n/a	PANTHER	1009	0	5	n/a	n/a	n/a	n/a	n/a	n/a
2907.258	n/a	RECOG_RESP	1453629	n/a	LTP089	ltpFR	5	1	n/a	PANTHER	1009	0	n/a	n/a	n/a	n/a	n/a	n/a	n/a
2907.582	n/a	RECOG_CONF	1453791	n/a	LTP089	ltpFR	5	1	n/a	PANTHER	1009	n/a	5	n/a	n/a	n/a	n/a	n/a	n/a
2908.974	n/a	RECOG_LURE	1454487	n/a	LTP089	ltpFR	5	1	n/a	FELLOW	558	0	5	n/a	n/a	n/a	n/a	n/a	n/a
2909.762	n/a	RECOG_RESP	1454881	n/a	LTP089	ltpFR	5	1	n/a	FELLOW	558	0	n/a	n/a	n/a	n/a	n/a	n/a	n/a
2910.098	n/a	RECOG_CONF	1455049	n/a	LTP089	ltpFR	5	1	n/a	FELLOW	558	n/a	5	n/a	n/a	n/a	n/a	n/a	n/a
2911.526	n/a	RECOG_TARGET	1455763	n/a	LTP089	ltpFR	5	1	-1	TRENCH	1503	1	5	-1	n/a	n/a	n/a	n/a	n/a
2912.168	n/a	RECOG_RESP	1456084	n/a	LTP089	ltpFR	5	1	-1	TRENCH	1503	1	n/a	-1	n/a	n/a	n/a	n/a	n/a
2912.526	n/a	RECOG_CONF	1456263	n/a	LTP089	ltpFR	5	1	-1	TRENCH	1503	n/a	5	-1	n/a	n/a	n/a	n/a	n/a
2913.918	n/a	RECOG_TARGET	1456959	n/a	LTP089	ltpFR	5	1	0	SNORKEL	1336	0	5	0	n/a	n/a	n/a	n/a	n/a
2915.23	n/a	RECOG_RESP	1457615	n/a	LTP089	ltpFR	5	1	0	SNORKEL	1336	0	n/a	0	n/a	n/a	n/a	n/a	n/a
2915.588	n/a	RECOG_CONF	1457794	n/a	LTP089	ltpFR	5	1	0	SNORKEL	1336	n/a	5	0	n/a	n/a	n/a	n/a	n/a
2917.016	n/a	RECOG_LURE	1458508	n/a	LTP089	ltpFR	5	1	n/a	MONASTERY	907	1	5	n/a	n/a	n/a	n/a	n/a	n/a
2918.324	n/a	RECOG_RESP	1459162	n/a	LTP089	ltpFR	5	1	n/a	MONASTERY	907	1	n/a	n/a	n/a	n/a	n/a	n/a	n/a
2918.706	n/a	RECOG_CONF	1459353	n/a	LTP089	ltpFR	5	1	n/a	MONASTERY	907	n/a	5	n/a	n/a	n/a	n/a	n/a	n/a
2920.176	n/a	RECOG_LURE	1460088	n/a	LTP089	ltpFR	5	1	n/a	OTTER	986	0	5	n/a	n/a	n/a	n/a	n/a	n/a
2921.168	n/a	RECOG_RESP	1460584	n/a	LTP089	ltpFR	5	1	n/a	OTTER	986	0	n/a	n/a	n/a	n/a	n/a	n/a	n/a
2921.55	n/a	RECOG_CONF	1460775	n/a	LTP089	ltpFR	5	1	n/a	OTTER	986	n/a	5	n/a	n/a	n/a	n/a	n/a	n/a
2922.924	n/a	RECOG_LURE	1461462	n/a	LTP089	ltpFR	5	1	n/a	PRIEST	1122	0	5	n/a	n/a	n/a	n/a	n/a	n/a
2923.722	n/a	RECOG_RESP	1461861	n/a	LTP089	ltpFR	5	1	n/a	PRIEST	1122	0	n/a	n/a	n/a	n/a	n/a	n/a	n/a
2924.08	n/a	RECOG_CONF	1462040	n/a	LTP089	ltpFR	5	1	n/a	PRIEST	1122	n/a	5	n/a	n/a	n/a	n/a	n/a	n/a
2925.384	n/a	RECOG_LURE	1462692	n/a	LTP089	ltpFR	5	1	n/a	NURSERY	964	0	5	n/a	n/a	n/a	n/a	n/a	n/a
2926.944	n/a	RECOG_RESP	1463472	n/a	LTP089	ltpFR	5	1	n/a	NURSERY	964	0	n/a	n/a	n/a	n/a	n/a	n/a	n/a
2927.278	n/a	RECOG_CONF	1463639	n/a	LTP089	ltpFR	5	1	n/a	NURSERY	964	n/a	5	n/a	n/a	n/a	n/a	n/a	n/a
2928.75	n/a	RECOG_LURE	1464375	n/a	LTP089	ltpFR	5	1	n/a	RESORT	1186	0	5	n/a	n/a	n/a	n/a	n/a	n/a
2929.568	n/a	RECOG_RESP	1464784	n/a	LTP089	ltpFR	5	1	n/a	RESORT	1186	0	n/a	n/a	n/a	n/a	n/a	n/a	n/a
2929.88	n/a	RECOG_CONF	1464940	n/a	LTP089	ltpFR	5	1	n/a	RESORT	1186	n/a	5	n/a	n/a	n/a	n/a	n/a	n/a
2931.242	n/a	RECOG_TARGET	1465621	n/a	LTP089	ltpFR	5	1	1	CHIP	303	1	5	0	n/a	n/a	n/a	n/a	n/a
2932.392	n/a	RECOG_RESP	1466196	n/a	LTP089	ltpFR	5	1	1	CHIP	303	1	n/a	0	n/a	n/a	n/a	n/a	n/a
2932.856	n/a	RECOG_CONF	1466428	n/a	LTP089	ltpFR	5	1	1	CHIP	303	n/a	5	0	n/a	n/a	n/a	n/a	n/a
2934.11	n/a	RECOG_LURE	1467055	n/a	LTP089	ltpFR	5	1	n/a	HOOP	716	0	5	n/a	n/a	n/a	n/a	n/a	n/a
2935.102	n/a	RECOG_RESP	1467551	n/a	LTP089	ltpFR	5	1	n/a	HOOP	716	0	n/a	n/a	n/a	n/a	n/a	n/a	n/a
2935.464	n/a	RECOG_CONF	1467732	n/a	LTP089	ltpFR	5	1	n/a	HOOP	716	n/a	5	n/a	n/a	n/a	n/a	n/a	n/a
2936.734	n/a	RECOG_LURE	1468367	n/a	LTP089	ltpFR	5	1	n/a	BALL	73	0	5	n/a	n/a	n/a	n/a	n/a	n/a
2937.6	n/a	RECOG_RESP	1468800	n/a	LTP089	ltpFR	5	1	n/a	BALL	73	0	n/a	n/a	n/a	n/a	n/a	n/a	n/a
2937.972	n/a	RECOG_CONF	1468986	n/a	LTP089	ltpFR	5	1	n/a	BALL	73	n/a	5	n/a	n/a	n/a	n/a	n/a	n/a
2939.284	n/a	RECOG_LURE	1469642	n/a	LTP089	ltpFR	5	1	n/a	OFFICER	973	0	5	n/a	n/a	n/a	n/a	n/a	n/a
2940.544	n/a	RECOG_RESP	1470272	n/a	LTP089	ltpFR	5	1	n/a	OFFICER	973	0	n/a	n/a	n/a	n/a	n/a	n/a	n/a
2940.94	n/a	RECOG_CONF	1470470	n/a	LTP089	ltpFR	5	1	n/a	OFFICER	973	n/a	5	n/a	n/a	n/a	n/a	n/a	n/a
2942.258	n/a	RECOG_TARGET	1471129	n/a	LTP089	ltpFR	5	1	1	DISC	473	0	5	0	n/a	n/a	n/a	n/a	n/a
2943.064	n/a	RECOG_RESP	1471532	n/a	LTP089	ltpFR	5	1	1	DISC	473	0	n/a	0	n/a	n/a	n/a	n/a	n/a
2943.464	n/a	RECOG_CONF	1471732	n/a	LTP089	ltpFR	5	1	1	DISC	473	n/a	5	0	n/a	n/a	n/a	n/a	n/a
2944.7	n/a	RECOG_LURE	1472350	n/a	LTP089	ltpFR	5	1	n/a	HORNET	718	0	5	n/a	n/a	n/a	n/a	n/a	n/a
2945.732	n/a	RECOG_RESP	1472866	n/a	LTP089	ltpFR	5	1	n/a	HORNET	718	0	n/a	n/a	n/a	n/a	n/a	n/a	n/a
2946.138	n/a	RECOG_CONF	1473069	n/a	LTP089	ltpFR	5	1	n/a	HORNET	718	n/a	5	n/a	n/a	n/a	n/a	n/a	n/a
2947.392	n/a	RECOG_TARGET	1473696	n/a	LTP089	ltpFR	5	1	1	REFRIGERATOR	1179	1	5	1	n/a	n/a	n/a	n/a	n/a
2948.296	n/a	RECOG_RESP	1474148	n/a	LTP089	ltpFR	5	1	1	REFRIGERATOR	1179	1	n/a	1	n/a	n/a	n/a	n/a	n/a
2948.702	n/a	RECOG_CONF	1474351	n/a	LTP089	ltpFR	5	1	1	REFRIGERATOR	1179	n/a	5	1	n/a	n/a	n/a	n/a	n/a
2951.802	n/a	REC_START	1475901	n/a	LTP089	ltpFR	5	2	n/a	n/a	n/a	n/a	n/a	n/a	n/a	n/a	n/a	n/a	n/a
2951.832	n/a	RECOG_LURE	1475916	n/a	LTP089	ltpFR	5	2	n/a	FLUTE	585	0	5	n/a	n/a	n/a	n/a	n/a	n/a
2952.54	n/a	RECOG_RESP	1476270	n/a	LTP089	ltpFR	5	2	n/a	FLUTE	585	0	n/a	n/a	n/a	n/a	n/a	n/a	n/a
2953.008	n/a	RECOG_CONF	1476504	n/a	LTP089	ltpFR	5	2	n/a	FLUTE	585	n/a	5	n/a	n/a	n/a	n/a	n/a	n/a
2954.376	n/a	RECOG_TARGET	1477188	n/a	LTP089	ltpFR	5	2	0	COTTAGE	384	0	5	1	n/a	n/a	n/a	n/a	n/a
2955.138	n/a	RECOG_RESP	1477569	n/a	LTP089	ltpFR	5	2	0	COTTAGE	384	0	n/a	1	n/a	n/a	n/a	n/a	n/a
2955.544	n/a	RECOG_CONF	1477772	n/a	LTP089	ltpFR	5	2	0	COTTAGE	384	n/a	5	1	n/a	n/a	n/a	n/a	n/a
2957.04	n/a	RECOG_LURE	1478520	n/a	LTP089	ltpFR	5	2	n/a	HOUND	724	1	5	n/a	n/a	n/a	n/a	n/a	n/a
2957.922	n/a	RECOG_RESP	1478961	n/a	LTP089	ltpFR	5	2	n/a	HOUND	724	1	n/a	n/a	n/a	n/a	n/a	n/a	n/a
2958.318	n/a	RECOG_CONF	1479159	n/a	LTP089	ltpFR	5	2	n/a	HOUND	724	n/a	5	n/a	n/a	n/a	n/a	n/a	n/a
2959.832	n/a	RECOG_LURE	1479916	n/a	LTP089	ltpFR	5	2	n/a	GOOSE	649	0	5	n/a	n/a	n/a	n/a	n/a	n/a
2960.596	n/a	RECOG_RESP	1480298	n/a	LTP089	ltpFR	5	2	n/a	GOOSE	649	0	n/a	n/a	n/a	n/a	n/a	n/a	n/a
2961.084	n/a	RECOG_CONF	1480542	n/a	LTP089	ltpFR	5	2	n/a	GOOSE	649	n/a	5	n/a	n/a	n/a	n/a	n/a	n/a
2962.3	n/a	RECOG_LURE	1481150	n/a	LTP089	ltpFR	5	2	n/a	BATH	98	0	5	n/a	n/a	n/a	n/a	n/a	n/a
2963.938	n/a	RECOG_RESP	1481969	n/a	LTP089	ltpFR	5	2	n/a	BATH	98	0	n/a	n/a	n/a	n/a	n/a	n/a	n/a
2964.274	n/a	RECOG_CONF	1482137	n/a	LTP089	ltpFR	5	2	n/a	BATH	98	n/a	5	n/a	n/a	n/a	n/a	n/a	n/a
2965.782	n/a	RECOG_TARGET	1482891	n/a	LTP089	ltpFR	5	2	0	CHEF	290	1	5	1	n/a	n/a	n/a	n/a	n/a
2966.912	n/a	RECOG_RESP	1483456	n/a	LTP089	ltpFR	5	2	0	CHEF	290	1	n/a	1	n/a	n/a	n/a	n/a	n/a
2967.26	n/a	RECOG_CONF	1483630	n/a	LTP089	ltpFR	5	2	0	CHEF	290	n/a	5	1	n/a	n/a	n/a	n/a	n/a
2968.74	n/a	RECOG_LURE	1484370	n/a	LTP089	ltpFR	5	2	n/a	VALVE	1546	1	5	n/a	n/a	n/a	n/a	n/a	n/a
2969.596	n/a	RECOG_RESP	1484798	n/a	LTP089	ltpFR	5	2	n/a	VALVE	1546	1	n/a	n/a	n/a	n/a	n/a	n/a	n/a
2969.992	n/a	RECOG_CONF	1484996	n/a	LTP089	ltpFR	5	2	n/a	VALVE	1546	n/a	5	n/a	n/a	n/a	n/a	n/a	n/a
2971.342	n/a	RECOG_LURE	1485671	n/a	LTP089	ltpFR	5	2	n/a	PADDING	999	0	5	n/a	n/a	n/a	n/a	n/a	n/a
2974.746	n/a	RECOG_RESP	1487373	n/a	LTP089	ltpFR	5	2	n/a	PADDING	999	0	n/a	n/a	n/a	n/a	n/a	n/a	n/a
2975.196	n/a	RECOG_CONF	1487598	n/a	LTP089	ltpFR	5	2	n/a	PADDING	999	n/a	5	n/a	n/a	n/a	n/a	n/a	n/a
2976.574	n/a	RECOG_LURE	1488287	n/a	LTP089	ltpFR	5	2	n/a	ALMANAC	17	0	5	n/a	n/a	n/a	n/a	n/a	n/a
2977.37	n/a	RECOG_RESP	1488685	n/a	LTP089	ltpFR	5	2	n/a	ALMANAC	17	0	n/a	n/a	n/a	n/a	n/a	n/a	n/a
2977.752	n/a	RECOG_CONF	1488876	n/a	LTP089	ltpFR	5	2	n/a	ALMANAC	17	n/a	5	n/a	n/a	n/a	n/a	n/a	n/a
2979.016	n/a	RECOG_LURE	1489508	n/a	LTP089	ltpFR	5	2	n/a	TRAITOR	1495	0	5	n/a	n/a	n/a	n/a	n/a	n/a
2980.762	n/a	RECOG_RESP	1490381	n/a	LTP089	ltpFR	5	2	n/a	TRAITOR	1495	0	n/a	n/a	n/a	n/a	n/a	n/a	n/a
2981.156	n/a	RECOG_CONF	1490578	n/a	LTP089	ltpFR	5	2	n/a	TRAITOR	1495	n/a	5	n/a	n/a	n/a	n/a	n/a	n/a
2982.508	n/a	RECOG_TARGET	1491254	n/a	LTP089	ltpFR	5	2	-1	GROUND	666	1	5	-1	n/a	n/a	n/a	n/a	n/a
2984.084	n/a	RECOG_RESP	1492042	n/a	LTP089	ltpFR	5	2	-1	GROUND	666	1	n/a	-1	n/a	n/a	n/a	n/a	n/a
2984.502	n/a	RECOG_CONF	1492251	n/a	LTP089	ltpFR	5	2	-1	GROUND	666	n/a	5	-1	n/a	n/a	n/a	n/a	n/a
2985.782	n/a	RECOG_LURE	1492891	n/a	LTP089	ltpFR	5	2	n/a	STEAM	1375	1	5	n/a	n/a	n/a	n/a	n/a	n/a
2986.518	n/a	RECOG_RESP	1493259	n/a	LTP089	ltpFR	5	2	n/a	STEAM	1375	1	n/a	n/a	n/a	n/a	n/a	n/a	n/a
2986.854	n/a	RECOG_CONF	1493427	n/a	LTP089	ltpFR	5	2	n/a	STEAM	1375	n/a	5	n/a	n/a	n/a	n/a	n/a	n/a
2988.116	n/a	RECOG_TARGET	1494058	n/a	LTP089	ltpFR	5	2	-1	GUARDIAN	668	1	5	-1	n/a	n/a	n/a	n/a	n/a
2988.844	n/a	RECOG_RESP	1494422	n/a	LTP089	ltpFR	5	2	-1	GUARDIAN	668	1	n/a	-1	n/a	n/a	n/a	n/a	n/a
2989.226	n/a	RECOG_CONF	1494613	n/a	LTP089	ltpFR	5	2	-1	GUARDIAN	668	n/a	5	-1	n/a	n/a	n/a	n/a	n/a
2990.442	n/a	RECOG_TARGET	1495221	n/a	LTP089	ltpFR	5	2	1	TOMB	1477	1	5	0	n/a	n/a	n/a	n/a	n/a
2991.522	n/a	RECOG_RESP	1495761	n/a	LTP089	ltpFR	5	2	1	TOMB	1477	1	n/a	0	n/a	n/a	n/a	n/a	n/a
2991.952	n/a	RECOG_CONF	1495976	n/a	LTP089	ltpFR	5	2	1	TOMB	1477	n/a	5	0	n/a	n/a	n/a	n/a	n/a
2992.966	n/a	RECOG_TARGET	1496483	n/a	LTP089	ltpFR	5	2	1	YACHT	1629	0	5	0	n/a	n/a	n/a	n/a	n/a
2993.862	n/a	RECOG_RESP	1496931	n/a	LTP089	ltpFR	5	2	1	YACHT	1629	0	n/a	0	n/a	n/a	n/a	n/a	n/a
2994.244	n/a	RECOG_CONF	1497122	n/a	LTP089	ltpFR	5	2	1	YACHT	1629	n/a	5	0	n/a	n/a	n/a	n/a	n/a
2995.5	n/a	RECOG_LURE	1497750	n/a	LTP089	ltpFR	5	2	n/a	WHEAT	1602	1	5	n/a	n/a	n/a	n/a	n/a	n/a
2996.288	n/a	RECOG_RESP	1498144	n/a	LTP089	ltpFR	5	2	n/a	WHEAT	1602	1	n/a	n/a	n/a	n/a	n/a	n/a	n/a
2996.692	n/a	RECOG_CONF	1498346	n/a	LTP089	ltpFR	5	2	n/a	WHEAT	1602	n/a	5	n/a	n/a	n/a	n/a	n/a	n/a
2997.974	n/a	RECOG_LURE	1498987	n/a	LTP089	ltpFR	5	2	n/a	OATMEAL	967	0	5	n/a	n/a	n/a	n/a	n/a	n/a
2998.846	n/a	RECOG_RESP	1499423	n/a	LTP089	ltpFR	5	2	n/a	OATMEAL	967	0	n/a	n/a	n/a	n/a	n/a	n/a	n/a
2999.292	n/a	RECOG_CONF	1499646	n/a	LTP089	ltpFR	5	2	n/a	OATMEAL	967	n/a	5	n/a	n/a	n/a	n/a	n/a	n/a
3000.632	n/a	RECOG_LURE	1500316	n/a	LTP089	ltpFR	5	2	n/a	GORILLA	650	0	5	n/a	n/a	n/a	n/a	n/a	n/a
3001.674	n/a	RECOG_RESP	1500837	n/a	LTP089	ltpFR	5	2	n/a	GORILLA	650	0	n/a	n/a	n/a	n/a	n/a	n/a	n/a
3002.08	n/a	RECOG_CONF	1501040	n/a	LTP089	ltpFR	5	2	n/a	GORILLA	650	n/a	5	n/a	n/a	n/a	n/a	n/a	n/a
3003.416	n/a	RECOG_LURE	1501708	n/a	LTP089	ltpFR	5	2	n/a	PIE	1062	0	5	n/a	n/a	n/a	n/a	n/a	n/a
3004.374	n/a	RECOG_RESP	1502187	n/a	LTP089	ltpFR	5	2	n/a	PIE	1062	0	n/a	n/a	n/a	n/a	n/a	n/a	n/a
3004.736	n/a	RECOG_CONF	1502368	n/a	LTP089	ltpFR	5	2	n/a	PIE	1062	n/a	5	n/a	n/a	n/a	n/a	n/a	n/a
3006.09	n/a	RECOG_LURE	1503045	n/a	LTP089	ltpFR	5	2	n/a	SAW	1239	0	5	n/a	n/a	n/a	n/a	n/a	n/a
3006.942	n/a	RECOG_RESP	1503471	n/a	LTP089	ltpFR	5	2	n/a	SAW	1239	0	n/a	n/a	n/a	n/a	n/a	n/a	n/a
3007.416	n/a	RECOG_CONF	1503708	n/a	LTP089	ltpFR	5	2	n/a	SAW	1239	n/a	5	n/a	n/a	n/a	n/a	n/a	n/a
3010.306	n/a	REC_START	1505153	n/a	LTP089	ltpFR	5	3	n/a	n/a	n/a	n/a	n/a	n/a	n/a	n/a	n/a	n/a	n/a
3010.34	n/a	RECOG_TARGET	1505170	n/a	LTP089	ltpFR	5	3	-1	CHECK	284	1	5	-1	n/a	n/a	n/a	n/a	n/a
3011.178	n/a	RECOG_RESP	1505589	n/a	LTP089	ltpFR	5	3	-1	CHECK	284	1	n/a	-1	n/a	n/a	n/a	n/a	n/a
3011.574	n/a	RECOG_CONF	1505787	n/a	LTP089	ltpFR	5	3	-1	CHECK	284	n/a	5	-1	n/a	n/a	n/a	n/a	n/a
3012.94	n/a	RECOG_TARGET	1506470	n/a	LTP089	ltpFR	5	3	1	BASEMENT	94	1	5	0	n/a	n/a	n/a	n/a	n/a
3013.622	n/a	RECOG_RESP	1506811	n/a	LTP089	ltpFR	5	3	1	BASEMENT	94	1	n/a	0	n/a	n/a	n/a	n/a	n/a
3013.99	n/a	RECOG_CONF	1506995	n/a	LTP089	ltpFR	5	3	1	BASEMENT	94	n/a	5	0	n/a	n/a	n/a	n/a	n/a
3015.358	n/a	RECOG_TARGET	1507679	n/a	LTP089	ltpFR	5	3	1	CAFETERIA	217	0	5	1	n/a	n/a	n/a	n/a	n/a
3016.138	n/a	RECOG_RESP	1508069	n/a	LTP089	ltpFR	5	3	1	CAFETERIA	217	0	n/a	1	n/a	n/a	n/a	n/a	n/a
3016.542	n/a	RECOG_CONF	1508271	n/a	LTP089	ltpFR	5	3	1	CAFETERIA	217	n/a	5	1	n/a	n/a	n/a	n/a	n/a
3017.864	n/a	RECOG_LURE	1508932	n/a	LTP089	ltpFR	5	3	n/a	ANTENNA	28	0	5	n/a	n/a	n/a	n/a	n/a	n/a
3018.682	n/a	RECOG_RESP	1509341	n/a	LTP089	ltpFR	5	3	n/a	ANTENNA	28	0	n/a	n/a	n/a	n/a	n/a	n/a	n/a
3019.086	n/a	RECOG_CONF	1509543	n/a	LTP089	ltpFR	5	3	n/a	ANTENNA	28	n/a	5	n/a	n/a	n/a	n/a	n/a	n/a
3020.34	n/a	RECOG_LURE	1510170	n/a	LTP089	ltpFR	5	3	n/a	WASHCLOTH	1591	0	5	n/a	n/a	n/a	n/a	n/a	n/a
3021.464	n/a	RECOG_RESP	1510732	n/a	LTP089	ltpFR	5	3	n/a	WASHCLOTH	1591	0	n/a	n/a	n/a	n/a	n/a	n/a	n/a
3021.822	n/a	RECOG_CONF	1510911	n/a	LTP089	ltpFR	5	3	n/a	WASHCLOTH	1591	n/a	5	n/a	n/a	n/a	n/a	n/a	n/a
3023.198	n/a	RECOG_TARGET	1511599	n/a	LTP089	ltpFR	5	3	1	CHIEF	298	1	5	0	n/a	n/a	n/a	n/a	n/a
3024.278	n/a	RECOG_RESP	1512139	n/a	LTP089	ltpFR	5	3	1	CHIEF	298	1	n/a	0	n/a	n/a	n/a	n/a	n/a
3024.604	n/a	RECOG_CONF	1512302	n/a	LTP089	ltpFR	5	3	1	CHIEF	298	n/a	5	0	n/a	n/a	n/a	n/a	n/a
3025.972	n/a	RECOG_LURE	1512986	n/a	LTP089	ltpFR	5	3	n/a	PERISCOPE	1050	0	5	n/a	n/a	n/a	n/a	n/a	n/a
3027.382	n/a	RECOG_RESP	1513691	n/a	LTP089	ltpFR	5	3	n/a	PERISCOPE	1050	0	n/a	n/a	n/a	n/a	n/a	n/a	n/a
3027.716	n/a	RECOG_CONF	1513858	n/a	LTP089	ltpFR	5	3	n/a	PERISCOPE	1050	n/a	5	n/a	n/a	n/a	n/a	n/a	n/a
3029.182	n/a	RECOG_TARGET	1514591	n/a	LTP089	ltpFR	5	3	0	DETECTIVE	454	1	5	1	n/a	n/a	n/a	n/a	n/a
3030.236	n/a	RECOG_RESP	1515118	n/a	LTP089	ltpFR	5	3	0	DETECTIVE	454	1	n/a	1	n/a	n/a	n/a	n/a	n/a
3030.622	n/a	RECOG_CONF	1515311	n/a	LTP089	ltpFR	5	3	0	DETECTIVE	454	n/a	5	1	n/a	n/a	n/a	n/a	n/a
3031.898	n/a	RECOG_TARGET	1515949	n/a	LTP089	ltpFR	5	3	1	CABIN	211	1	5	0	n/a	n/a	n/a	n/a	n/a
3032.8	n/a	RECOG_RESP	1516400	n/a	LTP089	ltpFR	5	3	1	CABIN	211	1	n/a	0	n/a	n/a	n/a	n/a	n/a
3033.158	n/a	RECOG_CONF	1516579	n/a	LTP089	ltpFR	5	3	1	CABIN	211	n/a	5	0	n/a	n/a	n/a	n/a	n/a
3034.474	n/a	RECOG_TARGET	1517237	n/a	LTP089	ltpFR	5	3	0	COD	340	1	5	1	n/a	n/a	n/a	n/a	n/a
3035.294	n/a	RECOG_RESP	1517647	n/a	LTP089	ltpFR	5	3	0	COD	340	1	n/a	1	n/a	n/a	n/a	n/a	n/a
3035.606	n/a	RECOG_CONF	1517803	n/a	LTP089	ltpFR	5	3	0	COD	340	n/a	5	1	n/a	n/a	n/a	n/a	n/a
3036.922	n/a	RECOG_TARGET	1518461	n/a	LTP089	ltpFR	5	3	-1	SKULL	1320	0	5	-1	n/a	n/a	n/a	n/a	n/a
3037.804	n/a	RECOG_RESP	1518902	n/a	LTP089	ltpFR	5	3	-1	SKULL	1320	0	n/a	-1	n/a	n/a	n/a	n/a	n/a
3038.156	n/a	RECOG_CONF	1519078	n/a	LTP089	ltpFR	5	3	-1	SKULL	1320	n/a	5	-1	n/a	n/a	n/a	n/a	n/a
3039.406	n/a	RECOG_LURE	1519703	n/a	LTP089	ltpFR	5	3	n/a	FLIPPER	580	0	5	n/a	n/a	n/a	n/a	n/a	n/a
3040.234	n/a	RECOG_RESP	1520117	n/a	LTP089	ltpFR	5	3	n/a	FLIPPER	580	0	n/a	n/a	n/a	n/a	n/a	n/a	n/a
3040.616	n/a	RECOG_CONF	1520308	n/a	LTP089	ltpFR	5	3	n/a	FLIPPER	580	n/a	5	n/a	n/a	n/a	n/a	n/a	n/a
3041.956	n/a	RECOG_TARGET	1520978	n/a	LTP089	ltpFR	5	3	0	RECIPE	1175	1	5	1	n/a	n/a	n/a	n/a	n/a
3042.868	n/a	RECOG_RESP	1521434	n/a	LTP089	ltpFR	5	3	0	RECIPE	1175	1	n/a	1	n/a	n/a	n/a	n/a	n/a
3043.226	n/a	RECOG_CONF	1521613	n/a	LTP089	ltpFR	5	3	0	RECIPE	1175	n/a	5	1	n/a	n/a	n/a	n/a	n/a
3044.614	n/a	RECOG_TARGET	1522307	n/a	LTP089	ltpFR	5	3	0	PARIS	1014	1	5	1	n/a	n/a	n/a	n/a	n/a
3045.492	n/a	RECOG_RESP	1522746	n/a	LTP089	ltpFR	5	3	0	PARIS	1014	1	n/a	1	n/a	n/a	n/a	n/a	n/a
3045.874	n/a	RECOG_CONF	1522937	n/a	LTP089	ltpFR	5	3	0	PARIS	1014	n/a	5	1	n/a	n/a	n/a	n/a	n/a
3047.13	n/a	RECOG_TARGET	1523565	n/a	LTP089	ltpFR	5	3	1	ANKLE	24	0	5	0	n/a	n/a	n/a	n/a	n/a
3047.976	n/a	RECOG_RESP	1523988	n/a	LTP089	ltpFR	5	3	1	ANKLE	24	0	n/a	0	n/a	n/a	n/a	n/a	n/a
3048.3	n/a	RECOG_CONF	1524150	n/a	LTP089	ltpFR	5	3	1	ANKLE	24	n/a	5	0	n/a	n/a	n/a	n/a	n/a
3049.622	n/a	RECOG_LURE	1524811	n/a	LTP089	ltpFR	5	3	n/a	RAIL	1161	1	5	n/a	n/a	n/a	n/a	n/a	n/a
3050.55	n/a	RECOG_RESP	1525275	n/a	LTP089	ltpFR	5	3	n/a	RAIL	1161	1	n/a	n/a	n/a	n/a	n/a	n/a	n/a
3050.852	n/a	RECOG_CONF	1525426	n/a	LTP089	ltpFR	5	3	n/a	RAIL	1161	n/a	5	n/a	n/a	n/a	n/a	n/a	n/a
3052.19	n/a	RECOG_TARGET	1526095	n/a	LTP089	ltpFR	5	3	1	DRUG	501	1	5	0	n/a	n/a	n/a	n/a	n/a
3052.976	n/a	RECOG_RESP	1526488	n/a	LTP089	ltpFR	5	3	1	DRUG	501	1	n/a	0	n/a	n/a	n/a	n/a	n/a
3053.288	n/a	RECOG_CONF	1526644	n/a	LTP089	ltpFR	5	3	1	DRUG	501	n/a	5	0	n/a	n/a	n/a	n/a	n/a
3054.546	n/a	RECOG_LURE	1527273	n/a	LTP089	ltpFR	5	3	n/a	RAM	1165	0	5	n/a	n/a	n/a	n/a	n/a	n/a
3055.41	n/a	RECOG_RESP	1527705	n/a	LTP089	ltpFR	5	3	n/a	RAM	1165	0	n/a	n/a	n/a	n/a	n/a	n/a	n/a
3055.734	n/a	RECOG_CONF	1527867	n/a	LTP089	ltpFR	5	3	n/a	RAM	1165	n/a	5	n/a	n/a	n/a	n/a	n/a	n/a
3057.114	n/a	RECOG_TARGET	1528557	n/a	LTP089	ltpFR	5	3	0	CANARY	227	1	5	0	n/a	n/a	n/a	n/a	n/a
3058.034	n/a	RECOG_RESP	1529017	n/a	LTP089	ltpFR	5	3	0	CANARY	227	1	n/a	0	n/a	n/a	n/a	n/a	n/a
3058.368	n/a	RECOG_CONF	1529184	n/a	LTP089	ltpFR	5	3	0	CANARY	227	n/a	5	0	n/a	n/a	n/a	n/a	n/a
3059.672	n/a	RECOG_TARGET	1529836	n/a	LTP089	ltpFR	5	3	-1	SENATOR	1268	1	5	-1	n/a	n/a	n/a	n/a	n/a
3060.658	n/a	RECOG_RESP	1530329	n/a	LTP089	ltpFR	5	3	-1	SENATOR	1268	1	n/a	-1	n/a	n/a	n/a	n/a	n/a
3060.97	n/a	RECOG_CONF	1530485	n/a	LTP089	ltpFR	5	3	-1	SENATOR	1268	n/a	5	-1	n/a	n/a	n/a	n/a	n/a
3063.854	n/a	REC_START	1531927	n/a	LTP089	ltpFR	5	4	n/a	n/a	n/a	n/a	n/a	n/a	n/a	n/a	n/a	n/a	n/a
3063.888	n/a	RECOG_LURE	1531944	n/a	LTP089	ltpFR	5	4	n/a	STY	1397	0	5	n/a	n/a	n/a	n/a	n/a	n/a
3064.936	n/a	RECOG_RESP	1532468	n/a	LTP089	ltpFR	5	4	n/a	STY	1397	0	n/a	n/a	n/a	n/a	n/a	n/a	n/a
3065.308	n/a	RECOG_CONF	1532654	n/a	LTP089	ltpFR	5	4	n/a	STY	1397	n/a	5	n/a	n/a	n/a	n/a	n/a	n/a
3066.588	n/a	RECOG_TARGET	1533294	n/a	LTP089	ltpFR	5	4	1	JUDGE	761	1	5	1	n/a	n/a	n/a	n/a	n/a
3067.8	n/a	RECOG_RESP	1533900	n/a	LTP089	ltpFR	5	4	1	JUDGE	761	1	n/a	1	n/a	n/a	n/a	n/a	n/a
3068.136	n/a	RECOG_CONF	1534068	n/a	LTP089	ltpFR	5	4	1	JUDGE	761	n/a	5	1	n/a	n/a	n/a	n/a	n/a
3069.454	n/a	RECOG_LURE	1534727	n/a	LTP089	ltpFR	5	4	n/a	MALL	860	0	5	n/a	n/a	n/a	n/a	n/a	n/a
3070.206	n/a	RECOG_RESP	1535103	n/a	LTP089	ltpFR	5	4	n/a	MALL	860	0	n/a	n/a	n/a	n/a	n/a	n/a	n/a
3070.588	n/a	RECOG_CONF	1535294	n/a	LTP089	ltpFR	5	4	n/a	MALL	860	n/a	5	n/a	n/a	n/a	n/a	n/a	n/a
3071.846	n/a	RECOG_TARGET	1535923	n/a	LTP089	ltpFR	5	4	0	CORPORATION	382	1	5	0	n/a	n/a	n/a	n/a	n/a
3072.73	n/a	RECOG_RESP	1536365	n/a	LTP089	ltpFR	5	4	0	CORPORATION	382	1	n/a	0	n/a	n/a	n/a	n/a	n/a
3073.032	n/a	RECOG_CONF	1536516	n/a	LTP089	ltpFR	5	4	0	CORPORATION	382	n/a	5	0	n/a	n/a	n/a	n/a	n/a
3074.306	n/a	RECOG_TARGET	1537153	n/a	LTP089	ltpFR	5	4	0	KLEENEX	782	1	5	1	n/a	n/a	n/a	n/a	n/a
3075.084	n/a	RECOG_RESP	1537542	n/a	LTP089	ltpFR	5	4	0	KLEENEX	782	1	n/a	1	n/a	n/a	n/a	n/a	n/a
3075.41	n/a	RECOG_CONF	1537705	n/a	LTP089	ltpFR	5	4	0	KLEENEX	782	n/a	5	1	n/a	n/a	n/a	n/a	n/a
3076.604	n/a	RECOG_TARGET	1538302	n/a	LTP089	ltpFR	5	4	-1	SLIDE	1326	1	5	-1	n/a	n/a	n/a	n/a	n/a
3077.888	n/a	RECOG_RESP	1538944	n/a	LTP089	ltpFR	5	4	-1	SLIDE	1326	1	n/a	-1	n/a	n/a	n/a	n/a	n/a
3078.2	n/a	RECOG_CONF	1539100	n/a	LTP089	ltpFR	5	4	-1	SLIDE	1326	n/a	5	-1	n/a	n/a	n/a	n/a	n/a
3079.638	n/a	RECOG_TARGET	1539819	n/a	LTP089	ltpFR	5	4	1	CHIPMUNK	304	1	5	1	n/a	n/a	n/a	n/a	n/a
3080.372	n/a	RECOG_RESP	1540186	n/a	LTP089	ltpFR	5	4	1	CHIPMUNK	304	1	n/a	1	n/a	n/a	n/a	n/a	n/a
3080.708	n/a	RECOG_CONF	1540354	n/a	LTP089	ltpFR	5	4	1	CHIPMUNK	304	n/a	5	1	n/a	n/a	n/a	n/a	n/a
3082.106	n/a	RECOG_TARGET	1541053	n/a	LTP089	ltpFR	5	4	0	SHARK	1275	1	5	0	n/a	n/a	n/a	n/a	n/a
3082.788	n/a	RECOG_RESP	1541394	n/a	LTP089	ltpFR	5	4	0	SHARK	1275	1	n/a	0	n/a	n/a	n/a	n/a	n/a
3083.136	n/a	RECOG_CONF	1541568	n/a	LTP089	ltpFR	5	4	0	SHARK	1275	n/a	5	0	n/a	n/a	n/a	n/a	n/a
3084.422	n/a	RECOG_LURE	1542211	n/a	LTP089	ltpFR	5	4	n/a	BULB	192	0	5	n/a	n/a	n/a	n/a	n/a	n/a
3085.186	n/a	RECOG_RESP	1542593	n/a	LTP089	ltpFR	5	4	n/a	BULB	192	0	n/a	n/a	n/a	n/a	n/a	n/a	n/a
3085.55	n/a	RECOG_CONF	1542775	n/a	LTP089	ltpFR	5	4	n/a	BULB	192	n/a	5	n/a	n/a	n/a	n/a	n/a	n/a
3086.82	n/a	RECOG_TARGET	1543410	n/a	LTP089	ltpFR	5	4	-1	MOON	914	1	5	-1	n/a	n/a	n/a	n/a	n/a
3087.486	n/a	RECOG_RESP	1543743	n/a	LTP089	ltpFR	5	4	-1	MOON	914	1	n/a	-1	n/a	n/a	n/a	n/a	n/a
3087.788	n/a	RECOG_CONF	1543894	n/a	LTP089	ltpFR	5	4	-1	MOON	914	n/a	5	-1	n/a	n/a	n/a	n/a	n/a
3089.296	n/a	RECOG_TARGET	1544648	n/a	LTP089	ltpFR	5	4	0	SEA	1259	1	5	1	n/a	n/a	n/a	n/a	n/a
3090.5	n/a	RECOG_RESP	1545250	n/a	LTP089	ltpFR	5	4	0	SEA	1259	1	n/a	1	n/a	n/a	n/a	n/a	n/a
3090.858	n/a	RECOG_CONF	1545429	n/a	LTP089	ltpFR	5	4	0	SEA	1259	n/a	5	1	n/a	n/a	n/a	n/a	n/a
3092.296	n/a	RECOG_TARGET	1546148	n/a	LTP089	ltpFR	5	4	1	CROSS	413	1	5	0	n/a	n/a	n/a	n/a	n/a
3092.956	n/a	RECOG_RESP	1546478	n/a	LTP089	ltpFR	5	4	1	CROSS	413	1	n/a	0	n/a	n/a	n/a	n/a	n/a
3093.314	n/a	RECOG_CONF	1546657	n/a	LTP089	ltpFR	5	4	1	CROSS	413	n/a	5	0	n/a	n/a	n/a	n/a	n/a
3094.78	n/a	RECOG_LURE	1547390	n/a	LTP089	ltpFR	5	4	n/a	PASSAGE	1019	1	5	n/a	n/a	n/a	n/a	n/a	n/a
3095.35	n/a	RECOG_RESP	1547675	n/a	LTP089	ltpFR	5	4	n/a	PASSAGE	1019	1	n/a	n/a	n/a	n/a	n/a	n/a	n/a
3095.744	n/a	RECOG_CONF	1547872	n/a	LTP089	ltpFR	5	4	n/a	PASSAGE	1019	n/a	5	n/a	n/a	n/a	n/a	n/a	n/a
3097.088	n/a	RECOG_LURE	1548544	n/a	LTP089	ltpFR	5	4	n/a	VEIN	1554	0	5	n/a	n/a	n/a	n/a	n/a	n/a
3097.934	n/a	RECOG_RESP	1548967	n/a	LTP089	ltpFR	5	4	n/a	VEIN	1554	0	n/a	n/a	n/a	n/a	n/a	n/a	n/a
3098.432	n/a	RECOG_CONF	1549216	n/a	LTP089	ltpFR	5	4	n/a	VEIN	1554	n/a	5	n/a	n/a	n/a	n/a	n/a	n/a
3099.812	n/a	RECOG_TARGET	1549906	n/a	LTP089	ltpFR	5	4	1	BALCONY	72	1	5	0	n/a	n/a	n/a	n/a	n/a
3101.096	n/a	RECOG_RESP	1550548	n/a	LTP089	ltpFR	5	4	1	BALCONY	72	1	n/a	0	n/a	n/a	n/a	n/a	n/a
3101.422	n/a	RECOG_CONF	1550711	n/a	LTP089	ltpFR	5	4	1	BALCONY	72	n/a	5	0	n/a	n/a	n/a	n/a	n/a
3102.886	n/a	RECOG_LURE	1551443	n/a	LTP089	ltpFR	5	4	n/a	CHICKEN	297	0	5	n/a	n/a	n/a	n/a	n/a	n/a
3103.63	n/a	RECOG_RESP	1551815	n/a	LTP089	ltpFR	5	4	n/a	CHICKEN	297	0	n/a	n/a	n/a	n/a	n/a	n/a	n/a
3104.012	n/a	RECOG_CONF	1552006	n/a	LTP089	ltpFR	5	4	n/a	CHICKEN	297	n/a	5	n/a	n/a	n/a	n/a	n/a	n/a
3105.354	n/a	RECOG_TARGET	1552677	n/a	LTP089	ltpFR	5	4	-1	DOUGH	489	1	5	-1	n/a	n/a	n/a	n/a	n/a
3106.146	n/a	RECOG_RESP	1553073	n/a	LTP089	ltpFR	5	4	-1	DOUGH	489	1	n/a	-1	n/a	n/a	n/a	n/a	n/a
3106.55	n/a	RECOG_CONF	1553275	n/a	LTP089	ltpFR	5	4	-1	DOUGH	489	n/a	5	-1	n/a	n/a	n/a	n/a	n/a
3107.944	n/a	RECOG_LURE	1553972	n/a	LTP089	ltpFR	5	4	n/a	PICNIC	1060	0	5	n/a	n/a	n/a	n/a	n/a	n/a
3108.72	n/a	RECOG_RESP	1554360	n/a	LTP089	ltpFR	5	4	n/a	PICNIC	1060	0	n/a	n/a	n/a	n/a	n/a	n/a	n/a
3109.124	n/a	RECOG_CONF	1554562	n/a	LTP089	ltpFR	5	4	n/a	PICNIC	1060	n/a	5	n/a	n/a	n/a	n/a	n/a	n/a
3110.48	n/a	RECOG_TARGET	1555240	n/a	LTP089	ltpFR	5	4	1	WATER	1594	0	5	1	n/a	n/a	n/a	n/a	n/a
3112.182	n/a	RECOG_RESP	1556091	n/a	LTP089	ltpFR	5	4	1	WATER	1594	0	n/a	1	n/a	n/a	n/a	n/a	n/a
3112.712	n/a	RECOG_CONF	1556356	n/a	LTP089	ltpFR	5	4	1	WATER	1594	n/a	5	1	n/a	n/a	n/a	n/a	n/a
3114.08	n/a	RECOG_LURE	1557040	n/a	LTP089	ltpFR	5	4	n/a	STALLION	1369	0	5	n/a	n/a	n/a	n/a	n/a	n/a
3115.126	n/a	RECOG_RESP	1557563	n/a	LTP089	ltpFR	5	4	n/a	STALLION	1369	0	n/a	n/a	n/a	n/a	n/a	n/a	n/a
3115.498	n/a	RECOG_CONF	1557749	n/a	LTP089	ltpFR	5	4	n/a	STALLION	1369	n/a	5	n/a	n/a	n/a	n/a	n/a	n/a
3118.344	n/a	REC_START	1559172	n/a	LTP089	ltpFR	5	5	n/a	n/a	n/a	n/a	n/a	n/a	n/a	n/a	n/a	n/a	n/a
3118.38	n/a	RECOG_LURE	1559190	n/a	LTP089	ltpFR	5	5	n/a	LEMON	810	0	5	n/a	n/a	n/a	n/a	n/a	n/a
3119.512	n/a	RECOG_RESP	1559756	n/a	LTP089	ltpFR	5	5	n/a	LEMON	810	0	n/a	n/a	n/a	n/a	n/a	n/a	n/a
3119.898	n/a	RECOG_CONF	1559949	n/a	LTP089	ltpFR	5	5	n/a	LEMON	810	n/a	5	n/a	n/a	n/a	n/a	n/a	n/a
3121.162	n/a	RECOG_TARGET	1560581	n/a	LTP089	ltpFR	5	5	0	BALLERINA	74	0	5	1	n/a	n/a	n/a	n/a	n/a
3122.066	n/a	RECOG_RESP	1561033	n/a	LTP089	ltpFR	5	5	0	BALLERINA	74	0	n/a	1	n/a	n/a	n/a	n/a	n/a
3122.442	n/a	RECOG_CONF	1561221	n/a	LTP089	ltpFR	5	5	0	BALLERINA	74	n/a	5	1	n/a	n/a	n/a	n/a	n/a
3123.802	n/a	RECOG_TARGET	1561901	n/a	LTP089	ltpFR	5	5	-1	SCENERY	1247	1	5	-1	n/a	n/a	n/a	n/a	n/a
3124.606	n/a	RECOG_RESP	1562303	n/a	LTP089	ltpFR	5	5	-1	SCENERY	1247	1	n/a	-1	n/a	n/a	n/a	n/a	n/a
3125.0	n/a	RECOG_CONF	1562500	n/a	LTP089	ltpFR	5	5	-1	SCENERY	1247	n/a	5	-1	n/a	n/a	n/a	n/a	n/a
3126.354	n/a	RECOG_TARGET	1563177	n/a	LTP089	ltpFR	5	5	-1	HELICOPTER	701	1	5	-1	n/a	n/a	n/a	n/a	n/a
3127.818	n/a	RECOG_RESP	1563909	n/a	LTP089	ltpFR	5	5	-1	HELICOPTER	701	1	n/a	-1	n/a	n/a	n/a	n/a	n/a
3128.282	n/a	RECOG_CONF	1564141	n/a	LTP089	ltpFR	5	5	-1	HELICOPTER	701	n/a	5	-1	n/a	n/a	n/a	n/a	n/a
3129.528	n/a	RECOG_LURE	1564764	n/a	LTP089	ltpFR	5	5	n/a	MARSH	874	1	5	n/a	n/a	n/a	n/a	n/a	n/a
3130.842	n/a	RECOG_RESP	1565421	n/a	LTP089	ltpFR	5	5	n/a	MARSH	874	1	n/a	n/a	n/a	n/a	n/a	n/a	n/a
3131.386	n/a	RECOG_CONF	1565693	n/a	LTP089	ltpFR	5	5	n/a	MARSH	874	n/a	5	n/a	n/a	n/a	n/a	n/a	n/a
3132.544	n/a	RECOG_TARGET	1566272	n/a	LTP089	ltpFR	5	5	-1	CONSUMER	365	0	5	-1	n/a	n/a	n/a	n/a	n/a
3133.476	n/a	RECOG_RESP	1566738	n/a	LTP089	ltpFR	5	5	-1	CONSUMER	365	0	n/a	-1	n/a	n/a	n/a	n/a	n/a
3133.824	n/a	RECOG_CONF	1566912	n/a	LTP089	ltpFR	5	5	-1	CONSUMER	365	n/a	5	-1	n/a	n/a	n/a	n/a	n/a
3135.146	n/a	RECOG_LURE	1567573	n/a	LTP089	ltpFR	5	5	n/a	BRICK	172	0	5	n/a	n/a	n/a	n/a	n/a	n/a
3137.866	n/a	RECOG_RESP	1568933	n/a	LTP089	ltpFR	5	5	n/a	BRICK	172	0	n/a	n/a	n/a	n/a	n/a	n/a	n/a
3138.238	n/a	RECOG_CONF	1569119	n/a	LTP089	ltpFR	5	5	n/a	BRICK	172	n/a	5	n/a	n/a	n/a	n/a	n/a	n/a
3139.628	n/a	RECOG_TARGET	1569814	n/a	LTP089	ltpFR	5	5	1	CABINET	212	1	5	0	n/a	n/a	n/a	n/a	n/a
3140.46	n/a	RECOG_RESP	1570230	n/a	LTP089	ltpFR	5	5	1	CABINET	212	1	n/a	0	n/a	n/a	n/a	n/a	n/a
3140.786	n/a	RECOG_CONF	1570393	n/a	LTP089	ltpFR	5	5	1	CABINET	212	n/a	5	0	n/a	n/a	n/a	n/a	n/a
3142.078	n/a	RECOG_TARGET	1571039	n/a	LTP089	ltpFR	5	5	-1	CANE	231	1	5	-1	n/a	n/a	n/a	n/a	n/a
3142.824	n/a	RECOG_RESP	1571412	n/a	LTP089	ltpFR	5	5	-1	CANE	231	1	n/a	-1	n/a	n/a	n/a	n/a	n/a
3143.22	n/a	RECOG_CONF	1571610	n/a	LTP089	ltpFR	5	5	-1	CANE	231	n/a	5	-1	n/a	n/a	n/a	n/a	n/a
3144.56	n/a	RECOG_LURE	1572280	n/a	LTP089	ltpFR	5	5	n/a	TIGER	1467	0	5	n/a	n/a	n/a	n/a	n/a	n/a
3145.318	n/a	RECOG_RESP	1572659	n/a	LTP089	ltpFR	5	5	n/a	TIGER	1467	0	n/a	n/a	n/a	n/a	n/a	n/a	n/a
3145.7	n/a	RECOG_CONF	1572850	n/a	LTP089	ltpFR	5	5	n/a	TIGER	1467	n/a	5	n/a	n/a	n/a	n/a	n/a	n/a
3147.104	n/a	RECOG_LURE	1573552	n/a	LTP089	ltpFR	5	5	n/a	CAMERA	224	0	5	n/a	n/a	n/a	n/a	n/a	n/a
3148.012	n/a	RECOG_RESP	1574006	n/a	LTP089	ltpFR	5	5	n/a	CAMERA	224	0	n/a	n/a	n/a	n/a	n/a	n/a	n/a
3148.418	n/a	RECOG_CONF	1574209	n/a	LTP089	ltpFR	5	5	n/a	CAMERA	224	n/a	5	n/a	n/a	n/a	n/a	n/a	n/a
3149.728	n/a	RECOG_TARGET	1574864	n/a	LTP089	ltpFR	5	5	1	COMMITTEE	355	0	5	0	n/a	n/a	n/a	n/a	n/a
3150.368	n/a	RECOG_RESP	1575184	n/a	LTP089	ltpFR	5	5	1	COMMITTEE	355	0	n/a	0	n/a	n/a	n/a	n/a	n/a
3150.786	n/a	RECOG_CONF	1575393	n/a	LTP089	ltpFR	5	5	1	COMMITTEE	355	n/a	5	0	n/a	n/a	n/a	n/a	n/a
3152.044	n/a	RECOG_LURE	1576022	n/a	LTP089	ltpFR	5	5	n/a	DOCTOR	478	0	5	n/a	n/a	n/a	n/a	n/a	n/a
3152.852	n/a	RECOG_RESP	1576426	n/a	LTP089	ltpFR	5	5	n/a	DOCTOR	478	0	n/a	n/a	n/a	n/a	n/a	n/a	n/a
3153.234	n/a	RECOG_CONF	1576617	n/a	LTP089	ltpFR	5	5	n/a	DOCTOR	478	n/a	5	n/a	n/a	n/a	n/a	n/a	n/a
3154.594	n/a	RECOG_TARGET	1577297	n/a	LTP089	ltpFR	5	5	0	SERPENT	1270	1	5	1	n/a	n/a	n/a	n/a	n/a
3155.456	n/a	RECOG_RESP	1577728	n/a	LTP089	ltpFR	5	5	0	SERPENT	1270	1	n/a	1	n/a	n/a	n/a	n/a	n/a
3155.792	n/a	RECOG_CONF	1577896	n/a	LTP089	ltpFR	5	5	0	SERPENT	1270	n/a	5	1	n/a	n/a	n/a	n/a	n/a
3157.204	n/a	RECOG_TARGET	1578602	n/a	LTP089	ltpFR	5	5	0	STAR	1373	1	5	1	n/a	n/a	n/a	n/a	n/a
3157.902	n/a	RECOG_RESP	1578951	n/a	LTP089	ltpFR	5	5	0	STAR	1373	1	n/a	1	n/a	n/a	n/a	n/a	n/a
3158.278	n/a	RECOG_CONF	1579139	n/a	LTP089	ltpFR	5	5	0	STAR	1373	n/a	5	1	n/a	n/a	n/a	n/a	n/a
3159.52	n/a	RECOG_LURE	1579760	n/a	LTP089	ltpFR	5	5	n/a	SCARF	1246	0	5	n/a	n/a	n/a	n/a	n/a	n/a
3160.276	n/a	RECOG_RESP	1580138	n/a	LTP089	ltpFR	5	5	n/a	SCARF	1246	0	n/a	n/a	n/a	n/a	n/a	n/a	n/a
3160.672	n/a	RECOG_CONF	1580336	n/a	LTP089	ltpFR	5	5	n/a	SCARF	1246	n/a	5	n/a	n/a	n/a	n/a	n/a	n/a
3162.102	n/a	RECOG_LURE	1581051	n/a	LTP089	ltpFR	5	5	n/a	SUITE	1404	0	5	n/a	n/a	n/a	n/a	n/a	n/a
3162.67	n/a	RECOG_RESP	1581335	n/a	LTP089	ltpFR	5	5	n/a	SUITE	1404	0	n/a	n/a	n/a	n/a	n/a	n/a	n/a
3163.006	n/a	RECOG_CONF	1581503	n/a	LTP089	ltpFR	5	5	n/a	SUITE	1404	n/a	5	n/a	n/a	n/a	n/a	n/a	n/a
3164.394	n/a	RECOG_LURE	1582197	n/a	LTP089	ltpFR	5	5	n/a	CRAYON	401	0	5	n/a	n/a	n/a	n/a	n/a	n/a
3165.284	n/a	RECOG_RESP	1582642	n/a	LTP089	ltpFR	5	5	n/a	CRAYON	401	0	n/a	n/a	n/a	n/a	n/a	n/a	n/a
3165.666	n/a	RECOG_CONF	1582833	n/a	LTP089	ltpFR	5	5	n/a	CRAYON	401	n/a	5	n/a	n/a	n/a	n/a	n/a	n/a
3167.086	n/a	RECOG_TARGET	1583543	n/a	LTP089	ltpFR	5	5	1	SAP	1233	1	5	0	n/a	n/a	n/a	n/a	n/a
3167.808	n/a	RECOG_RESP	1583904	n/a	LTP089	ltpFR	5	5	1	SAP	1233	1	n/a	0	n/a	n/a	n/a	n/a	n/a
3168.214	n/a	RECOG_CONF	1584107	n/a	LTP089	ltpFR	5	5	1	SAP	1233	n/a	5	0	n/a	n/a	n/a	n/a	n/a
3169.56	n/a	RECOG_LURE	1584780	n/a	LTP089	ltpFR	5	5	n/a	PISTOL	1075	0	5	n/a	n/a	n/a	n/a	n/a	n/a
3171.182	n/a	RECOG_RESP	1585591	n/a	LTP089	ltpFR	5	5	n/a	PISTOL	1075	0	n/a	n/a	n/a	n/a	n/a	n/a	n/a
3171.554	n/a	RECOG_CONF	1585777	n/a	LTP089	ltpFR	5	5	n/a	PISTOL	1075	n/a	5	n/a	n/a	n/a	n/a	n/a	n/a
3174.39	n/a	REC_START	1587195	n/a	LTP089	ltpFR	5	6	n/a	n/a	n/a	n/a	n/a	n/a	n/a	n/a	n/a	n/a	n/a
3174.428	n/a	RECOG_LURE	1587214	n/a	LTP089	ltpFR	5	6	n/a	UMBRELLA	1534	0	5	n/a	n/a	n/a	n/a	n/a	n/a
3175.148	n/a	RECOG_RESP	1587574	n/a	LTP089	ltpFR	5	6	n/a	UMBRELLA	1534	0	n/a	n/a	n/a	n/a	n/a	n/a	n/a
3175.502	n/a	RECOG_CONF	1587751	n/a	LTP089	ltpFR	5	6	n/a	UMBRELLA	1534	n/a	5	n/a	n/a	n/a	n/a	n/a	n/a
3176.736	n/a	RECOG_LURE	1588368	n/a	LTP089	ltpFR	5	6	n/a	DOOR	486	0	5	n/a	n/a	n/a	n/a	n/a	n/a
3177.538	n/a	RECOG_RESP	1588769	n/a	LTP089	ltpFR	5	6	n/a	DOOR	486	0	n/a	n/a	n/a	n/a	n/a	n/a	n/a
3177.99	n/a	RECOG_CONF	1588995	n/a	LTP089	ltpFR	5	6	n/a	DOOR	486	n/a	5	n/a	n/a	n/a	n/a	n/a	n/a
3179.328	n/a	RECOG_LURE	1589664	n/a	LTP089	ltpFR	5	6	n/a	PARCEL	1012	0	5	n/a	n/a	n/a	n/a	n/a	n/a
3179.932	n/a	RECOG_RESP	1589966	n/a	LTP089	ltpFR	5	6	n/a	PARCEL	1012	0	n/a	n/a	n/a	n/a	n/a	n/a	n/a
3180.338	n/a	RECOG_CONF	1590169	n/a	LTP089	ltpFR	5	6	n/a	PARCEL	1012	n/a	5	n/a	n/a	n/a	n/a	n/a	n/a
3181.66	n/a	RECOG_LURE	1590830	n/a	LTP089	ltpFR	5	6	n/a	PORCUPINE	1107	0	5	n/a	n/a	n/a	n/a	n/a	n/a
3182.398	n/a	RECOG_RESP	1591199	n/a	LTP089	ltpFR	5	6	n/a	PORCUPINE	1107	0	n/a	n/a	n/a	n/a	n/a	n/a	n/a
3182.826	n/a	RECOG_CONF	1591413	n/a	LTP089	ltpFR	5	6	n/a	PORCUPINE	1107	n/a	5	n/a	n/a	n/a	n/a	n/a	n/a
3184.128	n/a	RECOG_LURE	1592064	n/a	LTP089	ltpFR	5	6	n/a	STAPLER	1372	0	5	n/a	n/a	n/a	n/a	n/a	n/a
3184.766	n/a	RECOG_RESP	1592383	n/a	LTP089	ltpFR	5	6	n/a	STAPLER	1372	0	n/a	n/a	n/a	n/a	n/a	n/a	n/a
3185.176	n/a	RECOG_CONF	1592588	n/a	LTP089	ltpFR	5	6	n/a	STAPLER	1372	n/a	5	n/a	n/a	n/a	n/a	n/a	n/a
3186.394	n/a	RECOG_TARGET	1593197	n/a	LTP089	ltpFR	5	6	0	CRUTCH	417	1	5	1	n/a	n/a	n/a	n/a	n/a
3187.016	n/a	RECOG_RESP_VV	1593508	n/a	LTP089	ltpFR	5	6	0	CRUTCH	417	0	n/a	1	n/a	n/a	n/a	n/a	n/a
3188.464	n/a	RECOG_RESP	1594232	n/a	LTP089	ltpFR	5	6	0	CRUTCH	417	1	n/a	1	n/a	n/a	n/a	n/a	n/a
3189.082	n/a	RECOG_CONF	1594541	n/a	LTP089	ltpFR	5	6	0	CRUTCH	417	n/a	5	1	n/a	n/a	n/a	n/a	n/a
3189.936	n/a	RECOG_TARGET	1594968	n/a	LTP089	ltpFR	5	6	-1	BARK	87	0	5	-1	n/a	n/a	n/a	n/a	n/a
3190.79	n/a	RECOG_RESP	1595395	n/a	LTP089	ltpFR	5	6	-1	BARK	87	0	n/a	-1	n/a	n/a	n/a	n/a	n/a
3191.24	n/a	RECOG_CONF	1595620	n/a	LTP089	ltpFR	5	6	-1	BARK	87	n/a	5	-1	n/a	n/a	n/a	n/a	n/a
3192.47	n/a	RECOG_LURE	1596235	n/a	LTP089	ltpFR	5	6	n/a	EXPLOSION	544	0	5	n/a	n/a	n/a	n/a	n/a	n/a
3193.114	n/a	RECOG_RESP	1596557	n/a	LTP089	ltpFR	5	6	n/a	EXPLOSION	544	0	n/a	n/a	n/a	n/a	n/a	n/a	n/a
3193.462	n/a	RECOG_CONF	1596731	n/a	LTP089	ltpFR	5	6	n/a	EXPLOSION	544	n/a	5	n/a	n/a	n/a	n/a	n/a	n/a
3194.802	n/a	RECOG_TARGET	1597401	n/a	LTP089	ltpFR	5	6	1	TORTOISE	1486	1	5	0	n/a	n/a	n/a	n/a	n/a
3195.698	n/a	RECOG_RESP	1597849	n/a	LTP089	ltpFR	5	6	1	TORTOISE	1486	1	n/a	0	n/a	n/a	n/a	n/a	n/a
3196.138	n/a	RECOG_CONF	1598069	n/a	LTP089	ltpFR	5	6	1	TORTOISE	1486	n/a	5	0	n/a	n/a	n/a	n/a	n/a
3197.394	n/a	RECOG_TARGET	1598697	n/a	LTP089	ltpFR	5	6	1	SHELTER	1282	1	5	0	n/a	n/a	n/a	n/a	n/a
3198.332	n/a	RECOG_RESP	1599166	n/a	LTP089	ltpFR	5	6	1	SHELTER	1282	1	n/a	0	n/a	n/a	n/a	n/a	n/a
3198.772	n/a	RECOG_CONF	1599386	n/a	LTP089	ltpFR	5	6	1	SHELTER	1282	n/a	5	0	n/a	n/a	n/a	n/a	n/a
3200.178	n/a	RECOG_LURE	1600089	n/a	LTP089	ltpFR	5	6	n/a	SHINGLE	1285	0	5	n/a	n/a	n/a	n/a	n/a	n/a
3201.534	n/a	RECOG_RESP	1600767	n/a	LTP089	ltpFR	5	6	n/a	SHINGLE	1285	0	n/a	n/a	n/a	n/a	n/a	n/a	n/a
3201.998	n/a	RECOG_CONF	1600999	n/a	LTP089	ltpFR	5	6	n/a	SHINGLE	1285	n/a	5	n/a	n/a	n/a	n/a	n/a	n/a
3203.31	n/a	RECOG_LURE	1601655	n/a	LTP089	ltpFR	5	6	n/a	VEGETABLE	1552	0	5	n/a	n/a	n/a	n/a	n/a	n/a
3204.138	n/a	RECOG_RESP	1602069	n/a	LTP089	ltpFR	5	6	n/a	VEGETABLE	1552	0	n/a	n/a	n/a	n/a	n/a	n/a	n/a
3204.51	n/a	RECOG_CONF	1602255	n/a	LTP089	ltpFR	5	6	n/a	VEGETABLE	1552	n/a	5	n/a	n/a	n/a	n/a	n/a	n/a
3205.868	n/a	RECOG_TARGET	1602934	n/a	LTP089	ltpFR	5	6	-1	MOTEL	919	0	5	-1	n/a	n/a	n/a	n/a	n/a
3206.604	n/a	RECOG_RESP	1603302	n/a	LTP089	ltpFR	5	6	-1	MOTEL	919	0	n/a	-1	n/a	n/a	n/a	n/a	n/a
3206.962	n/a	RECOG_CONF	1603481	n/a	LTP089	ltpFR	5	6	-1	MOTEL	919	n/a	5	-1	n/a	n/a	n/a	n/a	n/a
3208.252	n/a	RECOG_LURE	1604126	n/a	LTP089	ltpFR	5	6	n/a	CRADLE	399	1	5	n/a	n/a	n/a	n/a	n/a	n/a
3209.278	n/a	RECOG_RESP	1604639	n/a	LTP089	ltpFR	5	6	n/a	CRADLE	399	1	n/a	n/a	n/a	n/a	n/a	n/a	n/a
3209.684	n/a	RECOG_CONF	1604842	n/a	LTP089	ltpFR	5	6	n/a	CRADLE	399	n/a	5	n/a	n/a	n/a	n/a	n/a	n/a
3210.976	n/a	RECOG_LURE	1605488	n/a	LTP089	ltpFR	5	6	n/a	CARDINAL	244	0	5	n/a	n/a	n/a	n/a	n/a	n/a
3211.892	n/a	RECOG_RESP	1605946	n/a	LTP089	ltpFR	5	6	n/a	CARDINAL	244	0	n/a	n/a	n/a	n/a	n/a	n/a	n/a
3212.38	n/a	RECOG_CONF	1606190	n/a	LTP089	ltpFR	5	6	n/a	CARDINAL	244	n/a	5	n/a	n/a	n/a	n/a	n/a	n/a
3213.752	n/a	RECOG_LURE	1606876	n/a	LTP089	ltpFR	5	6	n/a	ROBOT	1200	0	5	n/a	n/a	n/a	n/a	n/a	n/a
3214.456	n/a	RECOG_RESP	1607228	n/a	LTP089	ltpFR	5	6	n/a	ROBOT	1200	0	n/a	n/a	n/a	n/a	n/a	n/a	n/a
3214.852	n/a	RECOG_CONF	1607426	n/a	LTP089	ltpFR	5	6	n/a	ROBOT	1200	n/a	5	n/a	n/a	n/a	n/a	n/a	n/a
3216.318	n/a	RECOG_LURE	1608159	n/a	LTP089	ltpFR	5	6	n/a	MEDAL	885	0	5	n/a	n/a	n/a	n/a	n/a	n/a
3217.25	n/a	RECOG_RESP	1608625	n/a	LTP089	ltpFR	5	6	n/a	MEDAL	885	0	n/a	n/a	n/a	n/a	n/a	n/a	n/a
