mstime	trial_type	stim_file	subject	experiment	session	trial	item_name	item_num	list	answer	test_x	test_y	test_z
0	SESS_START	n/a	LTP360	ltpFR2	0	n/a	n/a	n/a	n/a	n/a	0	0	0
34466	START	n/a	LTP360	ltpFR2	0	n/a	n/a	n/a	-1	n/a	n/a	n/a	n/a
34479	PROB	n/a	LTP360	ltpFR2	0	n/a	n/a	n/a	-1	11	2	2	7
39261	PROB	n/a	LTP360	ltpFR2	0	n/a	n/a	n/a	-1	19	8	5	6
42989	PROB	n/a	LTP360	ltpFR2	0	n/a	n/a	n/a	-1	9	5	3	1
45869	STOP	n/a	LTP360	ltpFR2	0	n/a	n/a	n/a	-1	n/a	n/a	n/a	n/a
111680	WORD	wordpools/wasnorm_wordpool_576.txt	LTP360	ltpFR2	0	1	SNAKE	1333	n/a	n/a	0	0	0
114153	WORD	wordpools/wasnorm_wordpool_576.txt	LTP360	ltpFR2	0	1	COBRA	336	n/a	n/a	0	0	0
116629	WORD	wordpools/wasnorm_wordpool_576.txt	LTP360	ltpFR2	0	1	GIFT	635	n/a	n/a	0	0	0
119270	WORD	wordpools/wasnorm_wordpool_576.txt	LTP360	ltpFR2	0	1	TAXI	1438	n/a	n/a	0	0	0
121845	WORD	wordpools/wasnorm_wordpool_576.txt	LTP360	ltpFR2	0	1	JEANS	752	n/a	n/a	0	0	0
124655	WORD	wordpools/wasnorm_wordpool_576.txt	LTP360	ltpFR2	0	1	SHORTS	1293	n/a	n/a	0	0	0
127246	WORD	wordpools/wasnorm_wordpool_576.txt	LTP360	ltpFR2	0	1	PEACH	1031	n/a	n/a	0	0	0
130021	WORD	wordpools/wasnorm_wordpool_576.txt	LTP360	ltpFR2	0	1	POSSUM	1112	n/a	n/a	0	0	0
132698	WORD	wordpools/wasnorm_wordpool_576.txt	LTP360	ltpFR2	0	1	JELLO	754	n/a	n/a	0	0	0
135138	WORD	wordpools/wasnorm_wordpool_576.txt	LTP360	ltpFR2	0	1	POCKET	1093	n/a	n/a	0	0	0
137781	WORD	wordpools/wasnorm_wordpool_576.txt	LTP360	ltpFR2	0	1	PAPER	1011	n/a	n/a	0	0	0
140356	WORD	wordpools/wasnorm_wordpool_576.txt	LTP360	ltpFR2	0	1	PUDDING	1139	n/a	n/a	0	0	0
143013	WORD	wordpools/wasnorm_wordpool_576.txt	LTP360	ltpFR2	0	1	TOURIST	1488	n/a	n/a	0	0	0
145640	WORD	wordpools/wasnorm_wordpool_576.txt	LTP360	ltpFR2	0	1	PARSLEY	1016	n/a	n/a	0	0	0
148180	WORD	wordpools/wasnorm_wordpool_576.txt	LTP360	ltpFR2	0	1	SHRUB	1299	n/a	n/a	0	0	0
150939	WORD	wordpools/wasnorm_wordpool_576.txt	LTP360	ltpFR2	0	1	PANTHER	1009	n/a	n/a	0	0	0
153582	WORD	wordpools/wasnorm_wordpool_576.txt	LTP360	ltpFR2	0	1	DASHBOARD	441	n/a	n/a	0	0	0
156089	WORD	wordpools/wasnorm_wordpool_576.txt	LTP360	ltpFR2	0	1	ORCHID	982	n/a	n/a	0	0	0
158782	WORD	wordpools/wasnorm_wordpool_576.txt	LTP360	ltpFR2	0	1	STOVE	1388	n/a	n/a	0	0	0
161357	WORD	wordpools/wasnorm_wordpool_576.txt	LTP360	ltpFR2	0	1	BRANCH	168	n/a	n/a	0	0	0
164132	WORD	wordpools/wasnorm_wordpool_576.txt	LTP360	ltpFR2	0	1	EMPIRE	530	n/a	n/a	0	0	0
166624	WORD	wordpools/wasnorm_wordpool_576.txt	LTP360	ltpFR2	0	1	SHORTCAKE	1292	n/a	n/a	0	0	0
169148	WORD	wordpools/wasnorm_wordpool_576.txt	LTP360	ltpFR2	0	1	ROBIN	1199	n/a	n/a	0	0	0
171624	WORD	wordpools/wasnorm_wordpool_576.txt	LTP360	ltpFR2	0	1	PEDAL	1037	n/a	n/a	0	0	0
173228	START	n/a	LTP360	ltpFR2	0	n/a	n/a	n/a	1	n/a	n/a	n/a	n/a
174065	DISTRACTOR	n/a	LTP360	ltpFR2	0	1	n/a	n/a	n/a	n/a	0	0	0
174081	PROB	n/a	LTP360	ltpFR2	0	n/a	n/a	n/a	1	13	5	1	7
179164	PROB	n/a	LTP360	ltpFR2	0	n/a	n/a	n/a	1	18	5	6	7
197228	STOP	n/a	LTP360	ltpFR2	0	n/a	n/a	n/a	1	n/a	n/a	n/a	n/a
199012	REC_START	n/a	LTP360	ltpFR2	0	1	n/a	n/a	n/a	n/a	0	0	0
200042	REC_WORD	wordpools/wasnorm_wordpool_576.txt	LTP360	ltpFR2	0	1	SNAKE	1333	n/a	n/a	0	0	0
201484	REC_WORD	wordpools/wasnorm_wordpool_576.txt	LTP360	ltpFR2	0	1	COBRA	336	n/a	n/a	0	0	0
203038	REC_WORD	wordpools/wasnorm_wordpool_576.txt	LTP360	ltpFR2	0	1	GIFT	635	n/a	n/a	0	0	0
204333	REC_WORD	wordpools/wasnorm_wordpool_576.txt	LTP360	ltpFR2	0	1	POSSUM	1112	n/a	n/a	0	0	0
205940	REC_WORD	wordpools/wasnorm_wordpool_576.txt	LTP360	ltpFR2	0	1	JEANS	752	n/a	n/a	0	0	0
208474	REC_WORD	wordpools/wasnorm_wordpool_576.txt	LTP360	ltpFR2	0	1	POCKET	1093	n/a	n/a	0	0	0
342961	WORD	wordpools/wasnorm_wordpool_576.txt	LTP360	ltpFR2	0	2	BLOCKADE	137	n/a	n/a	0	0	0
345738	WORD	wordpools/wasnorm_wordpool_576.txt	LTP360	ltpFR2	0	2	PARENT	1013	n/a	n/a	0	0	0
348346	WORD	wordpools/wasnorm_wordpool_576.txt	LTP360	ltpFR2	0	2	FOREST	593	n/a	n/a	0	0	0
350937	WORD	wordpools/wasnorm_wordpool_576.txt	LTP360	ltpFR2	0	2	WHISTLE	1606	n/a	n/a	0	0	0
353563	WORD	wordpools/wasnorm_wordpool_576.txt	LTP360	ltpFR2	0	2	WAITRESS	1581	n/a	n/a	0	0	0
356355	WORD	wordpools/wasnorm_wordpool_576.txt	LTP360	ltpFR2	0	2	PASTRY	1022	n/a	n/a	0	0	0
359063	WORD	wordpools/wasnorm_wordpool_576.txt	LTP360	ltpFR2	0	2	CHILD	299	n/a	n/a	0	0	0
361656	WORD	wordpools/wasnorm_wordpool_576.txt	LTP360	ltpFR2	0	2	BLENDER	136	n/a	n/a	0	0	0
364247	WORD	wordpools/wasnorm_wordpool_576.txt	LTP360	ltpFR2	0	2	HOOK	715	n/a	n/a	0	0	0
367056	WORD	wordpools/wasnorm_wordpool_576.txt	LTP360	ltpFR2	0	2	ITEM	746	n/a	n/a	0	0	0
369732	WORD	wordpools/wasnorm_wordpool_576.txt	LTP360	ltpFR2	0	2	FILM	565	n/a	n/a	0	0	0
372407	WORD	wordpools/wasnorm_wordpool_576.txt	LTP360	ltpFR2	0	2	RIFLE	1192	n/a	n/a	0	0	0
375098	WORD	wordpools/wasnorm_wordpool_576.txt	LTP360	ltpFR2	0	2	PISTOL	1075	n/a	n/a	0	0	0
377574	WORD	wordpools/wasnorm_wordpool_576.txt	LTP360	ltpFR2	0	2	CONCERT	360	n/a	n/a	0	0	0
380232	WORD	wordpools/wasnorm_wordpool_576.txt	LTP360	ltpFR2	0	2	GRAVE	658	n/a	n/a	0	0	0
382823	WORD	wordpools/wasnorm_wordpool_576.txt	LTP360	ltpFR2	0	2	POISON	1096	n/a	n/a	0	0	0
385500	WORD	wordpools/wasnorm_wordpool_576.txt	LTP360	ltpFR2	0	2	BISON	131	n/a	n/a	0	0	0
388157	WORD	wordpools/wasnorm_wordpool_576.txt	LTP360	ltpFR2	0	2	WARDROBE	1587	n/a	n/a	0	0	0
390600	WORD	wordpools/wasnorm_wordpool_576.txt	LTP360	ltpFR2	0	2	COUNTRY	388	n/a	n/a	0	0	0
393174	WORD	wordpools/wasnorm_wordpool_576.txt	LTP360	ltpFR2	0	2	LIZARD	834	n/a	n/a	0	0	0
395949	WORD	wordpools/wasnorm_wordpool_576.txt	LTP360	ltpFR2	0	2	BACKBONE	66	n/a	n/a	0	0	0
398542	WORD	wordpools/wasnorm_wordpool_576.txt	LTP360	ltpFR2	0	2	CANYON	235	n/a	n/a	0	0	0
401317	WORD	wordpools/wasnorm_wordpool_576.txt	LTP360	ltpFR2	0	2	MARROW	872	n/a	n/a	0	0	0
404109	WORD	wordpools/wasnorm_wordpool_576.txt	LTP360	ltpFR2	0	2	SEAFOOD	1260	n/a	n/a	0	0	0
405715	START	n/a	LTP360	ltpFR2	0	n/a	n/a	n/a	2	n/a	n/a	n/a	n/a
406630	DISTRACTOR	n/a	LTP360	ltpFR2	0	2	n/a	n/a	n/a	n/a	0	0	0
406635	PROB	n/a	LTP360	ltpFR2	0	n/a	n/a	n/a	2	21	6	8	7
410095	PROB	n/a	LTP360	ltpFR2	0	n/a	n/a	n/a	2	6	2	4	2
412504	PROB	n/a	LTP360	ltpFR2	0	n/a	n/a	n/a	2	15	3	6	6
415631	PROB	n/a	LTP360	ltpFR2	0	n/a	n/a	n/a	2	18	5	4	9
417620	PROB	n/a	LTP360	ltpFR2	0	n/a	n/a	n/a	2	20	8	3	9
421147	PROB	n/a	LTP360	ltpFR2	0	n/a	n/a	n/a	2	10	6	1	3
423288	PROB	n/a	LTP360	ltpFR2	0	n/a	n/a	n/a	2	15	5	5	5
426114	PROB	n/a	LTP360	ltpFR2	0	n/a	n/a	n/a	2	23	9	9	5
428897	STOP	n/a	LTP360	ltpFR2	0	n/a	n/a	n/a	2	n/a	n/a	n/a	n/a
431533	REC_START	n/a	LTP360	ltpFR2	0	2	n/a	n/a	n/a	n/a	0	0	0
432921	REC_WORD	wordpools/wasnorm_wordpool_576.txt	LTP360	ltpFR2	0	2	BLOCKADE	137	n/a	n/a	0	0	0
434396	REC_WORD	wordpools/wasnorm_wordpool_576.txt	LTP360	ltpFR2	0	2	CHILD	299	n/a	n/a	0	0	0
435782	REC_WORD	wordpools/wasnorm_wordpool_576.txt	LTP360	ltpFR2	0	2	PASTRY	1022	n/a	n/a	0	0	0
437312	REC_WORD	wordpools/wasnorm_wordpool_576.txt	LTP360	ltpFR2	0	2	BLENDER	136	n/a	n/a	0	0	0
444272	REC_WORD	wordpools/wasnorm_wordpool_576.txt	LTP360	ltpFR2	0	2	FILM	565	n/a	n/a	0	0	0
445727	REC_WORD	wordpools/wasnorm_wordpool_576.txt	LTP360	ltpFR2	0	2	ITEM	746	n/a	n/a	0	0	0
449636	REC_WORD	wordpools/wasnorm_wordpool_576.txt	LTP360	ltpFR2	0	2	PISTOL	1075	n/a	n/a	0	0	0
463615	REC_WORD	wordpools/wasnorm_wordpool_576.txt	LTP360	ltpFR2	0	2	GRAVE	658	n/a	n/a	0	0	0
521991	WORD	wordpools/wasnorm_wordpool_576.txt	LTP360	ltpFR2	0	3	VAGRANT	1544	n/a	n/a	0	0	0
524701	WORD	wordpools/wasnorm_wordpool_576.txt	LTP360	ltpFR2	0	3	FLASK	576	n/a	n/a	0	0	0
527359	WORD	wordpools/wasnorm_wordpool_576.txt	LTP360	ltpFR2	0	3	SHERIFF	1284	n/a	n/a	0	0	0
530067	WORD	wordpools/wasnorm_wordpool_576.txt	LTP360	ltpFR2	0	3	BADGE	68	n/a	n/a	0	0	0
532710	WORD	wordpools/wasnorm_wordpool_576.txt	LTP360	ltpFR2	0	3	PORK	1108	n/a	n/a	0	0	0
535301	WORD	wordpools/wasnorm_wordpool_576.txt	LTP360	ltpFR2	0	3	VENUS	1557	n/a	n/a	0	0	0
538060	WORD	wordpools/wasnorm_wordpool_576.txt	LTP360	ltpFR2	0	3	HAWK	692	n/a	n/a	0	0	0
540619	WORD	wordpools/wasnorm_wordpool_576.txt	LTP360	ltpFR2	0	3	CREVICE	405	n/a	n/a	0	0	0
543193	WORD	wordpools/wasnorm_wordpool_576.txt	LTP360	ltpFR2	0	3	SISTER	1312	n/a	n/a	0	0	0
545769	WORD	wordpools/wasnorm_wordpool_576.txt	LTP360	ltpFR2	0	3	POLICE	1098	n/a	n/a	0	0	0
548444	WORD	wordpools/wasnorm_wordpool_576.txt	LTP360	ltpFR2	0	3	BUREAU	199	n/a	n/a	0	0	0
550918	WORD	wordpools/wasnorm_wordpool_576.txt	LTP360	ltpFR2	0	3	GARBAGE	622	n/a	n/a	0	0	0
553594	WORD	wordpools/wasnorm_wordpool_576.txt	LTP360	ltpFR2	0	3	LADDER	793	n/a	n/a	0	0	0
556403	WORD	wordpools/wasnorm_wordpool_576.txt	LTP360	ltpFR2	0	3	JUNGLE	764	n/a	n/a	0	0	0
559195	WORD	wordpools/wasnorm_wordpool_576.txt	LTP360	ltpFR2	0	3	SLIME	1327	n/a	n/a	0	0	0
561920	WORD	wordpools/wasnorm_wordpool_576.txt	LTP360	ltpFR2	0	3	HIGHWAY	707	n/a	n/a	0	0	0
564614	WORD	wordpools/wasnorm_wordpool_576.txt	LTP360	ltpFR2	0	3	SCOTCH	1251	n/a	n/a	0	0	0
567137	WORD	wordpools/wasnorm_wordpool_576.txt	LTP360	ltpFR2	0	3	MARKET	871	n/a	n/a	0	0	0
569713	WORD	wordpools/wasnorm_wordpool_576.txt	LTP360	ltpFR2	0	3	CITRUS	313	n/a	n/a	0	0	0
572455	WORD	wordpools/wasnorm_wordpool_576.txt	LTP360	ltpFR2	0	3	PADDING	999	n/a	n/a	0	0	0
575213	WORD	wordpools/wasnorm_wordpool_576.txt	LTP360	ltpFR2	0	3	PECAN	1036	n/a	n/a	0	0	0
577922	WORD	wordpools/wasnorm_wordpool_576.txt	LTP360	ltpFR2	0	3	DRILL	497	n/a	n/a	0	0	0
580431	WORD	wordpools/wasnorm_wordpool_576.txt	LTP360	ltpFR2	0	3	WRENCH	1625	n/a	n/a	0	0	0
582922	WORD	wordpools/wasnorm_wordpool_576.txt	LTP360	ltpFR2	0	3	FUNGUS	614	n/a	n/a	0	0	0
584528	START	n/a	LTP360	ltpFR2	0	n/a	n/a	n/a	3	n/a	n/a	n/a	n/a
585664	DISTRACTOR	n/a	LTP360	ltpFR2	0	3	n/a	n/a	n/a	n/a	0	0	0
585665	PROB	n/a	LTP360	ltpFR2	0	n/a	n/a	n/a	3	23	8	9	6
589192	PROB	n/a	LTP360	ltpFR2	0	n/a	n/a	n/a	3	10	4	1	5
590714	PROB	n/a	LTP360	ltpFR2	0	n/a	n/a	n/a	3	18	5	8	5
592470	PROB	n/a	LTP360	ltpFR2	0	n/a	n/a	n/a	3	15	7	1	7
594308	PROB	n/a	LTP360	ltpFR2	0	n/a	n/a	n/a	3	21	5	9	7
597436	PROB	n/a	LTP360	ltpFR2	0	n/a	n/a	n/a	3	17	7	6	4
600110	PROB	n/a	LTP360	ltpFR2	0	n/a	n/a	n/a	3	19	4	9	6
603506	PROB	n/a	LTP360	ltpFR2	0	n/a	n/a	n/a	3	14	6	4	4
605060	PROB	n/a	LTP360	ltpFR2	0	n/a	n/a	n/a	3	15	3	4	8
607431	STOP	n/a	LTP360	ltpFR2	0	n/a	n/a	n/a	3	n/a	n/a	n/a	n/a
610328	REC_START	n/a	LTP360	ltpFR2	0	3	n/a	n/a	n/a	n/a	0	0	0
611344	REC_WORD	wordpools/wasnorm_wordpool_576.txt	LTP360	ltpFR2	0	3	VAGRANT	1544	n/a	n/a	0	0	0
612651	REC_WORD	wordpools/wasnorm_wordpool_576.txt	LTP360	ltpFR2	0	3	FLASK	576	n/a	n/a	0	0	0
613986	REC_WORD	wordpools/wasnorm_wordpool_576.txt	LTP360	ltpFR2	0	3	SHERIFF	1284	n/a	n/a	0	0	0
615555	REC_WORD	wordpools/wasnorm_wordpool_576.txt	LTP360	ltpFR2	0	3	BADGE	68	n/a	n/a	0	0	0
616888	REC_WORD	wordpools/wasnorm_wordpool_576.txt	LTP360	ltpFR2	0	3	GARBAGE	622	n/a	n/a	0	0	0
621975	REC_WORD	wordpools/wasnorm_wordpool_576.txt	LTP360	ltpFR2	0	3	DRILL	497	n/a	n/a	0	0	0
623387	REC_WORD	wordpools/wasnorm_wordpool_576.txt	LTP360	ltpFR2	0	3	WRENCH	1625	n/a	n/a	0	0	0
628019	REC_WORD	wordpools/wasnorm_wordpool_576.txt	LTP360	ltpFR2	0	3	POLICE	1098	n/a	n/a	0	0	0
629603	REC_WORD	wordpools/wasnorm_wordpool_576.txt	LTP360	ltpFR2	0	3	BUREAU	199	n/a	n/a	0	0	0
644759	REC_WORD	wordpools/wasnorm_wordpool_576.txt	LTP360	ltpFR2	0	3	PECAN	1036	n/a	n/a	0	0	0
652752	REC_WORD	wordpools/wasnorm_wordpool_576.txt	LTP360	ltpFR2	0	3	FUNGUS	614	n/a	n/a	0	0	0
700788	WORD	wordpools/wasnorm_wordpool_576.txt	LTP360	ltpFR2	0	4	NIGHTGOWN	953	n/a	n/a	0	0	0
703211	WORD	wordpools/wasnorm_wordpool_576.txt	LTP360	ltpFR2	0	4	CLOTHES	327	n/a	n/a	0	0	0
705622	WORD	wordpools/wasnorm_wordpool_576.txt	LTP360	ltpFR2	0	4	FINGER	567	n/a	n/a	0	0	0
708311	WORD	wordpools/wasnorm_wordpool_576.txt	LTP360	ltpFR2	0	4	FRIEND	606	n/a	n/a	0	0	0
710819	WORD	wordpools/wasnorm_wordpool_576.txt	LTP360	ltpFR2	0	4	DRUG	501	n/a	n/a	0	0	0
713378	WORD	wordpools/wasnorm_wordpool_576.txt	LTP360	ltpFR2	0	4	GYMNAST	675	n/a	n/a	0	0	0
716153	WORD	wordpools/wasnorm_wordpool_576.txt	LTP360	ltpFR2	0	4	OMELET	976	n/a	n/a	0	0	0
718845	WORD	wordpools/wasnorm_wordpool_576.txt	LTP360	ltpFR2	0	4	CYCLONE	431	n/a	n/a	0	0	0
721639	WORD	wordpools/wasnorm_wordpool_576.txt	LTP360	ltpFR2	0	4	CURTAIN	427	n/a	n/a	0	0	0
724146	WORD	wordpools/wasnorm_wordpool_576.txt	LTP360	ltpFR2	0	4	TUBA	1515	n/a	n/a	0	0	0
726804	WORD	wordpools/wasnorm_wordpool_576.txt	LTP360	ltpFR2	0	4	CORAL	378	n/a	n/a	0	0	0
729312	WORD	wordpools/wasnorm_wordpool_576.txt	LTP360	ltpFR2	0	4	TRENCH	1503	n/a	n/a	0	0	0
731904	WORD	wordpools/wasnorm_wordpool_576.txt	LTP360	ltpFR2	0	4	OX	994	n/a	n/a	0	0	0
734430	WORD	wordpools/wasnorm_wordpool_576.txt	LTP360	ltpFR2	0	4	FLUTE	585	n/a	n/a	0	0	0
736854	WORD	wordpools/wasnorm_wordpool_576.txt	LTP360	ltpFR2	0	4	PUDDLE	1140	n/a	n/a	0	0	0
739396	WORD	wordpools/wasnorm_wordpool_576.txt	LTP360	ltpFR2	0	4	PORTRAIT	1111	n/a	n/a	0	0	0
741920	WORD	wordpools/wasnorm_wordpool_576.txt	LTP360	ltpFR2	0	4	PICTURE	1061	n/a	n/a	0	0	0
744697	WORD	wordpools/wasnorm_wordpool_576.txt	LTP360	ltpFR2	0	4	MISTER	901	n/a	n/a	0	0	0
747304	WORD	wordpools/wasnorm_wordpool_576.txt	LTP360	ltpFR2	0	4	NOMAD	955	n/a	n/a	0	0	0
749963	WORD	wordpools/wasnorm_wordpool_576.txt	LTP360	ltpFR2	0	4	CLOUD	328	n/a	n/a	0	0	0
752605	WORD	wordpools/wasnorm_wordpool_576.txt	LTP360	ltpFR2	0	4	AIRPORT	13	n/a	n/a	0	0	0
755313	WORD	wordpools/wasnorm_wordpool_576.txt	LTP360	ltpFR2	0	4	SEAL	1262	n/a	n/a	0	0	0
757872	WORD	wordpools/wasnorm_wordpool_576.txt	LTP360	ltpFR2	0	4	OUTFIT	988	n/a	n/a	0	0	0
760648	WORD	wordpools/wasnorm_wordpool_576.txt	LTP360	ltpFR2	0	4	QUAIL	1147	n/a	n/a	0	0	0
762253	START	n/a	LTP360	ltpFR2	0	n/a	n/a	n/a	4	n/a	n/a	n/a	n/a
763206	DISTRACTOR	n/a	LTP360	ltpFR2	0	4	n/a	n/a	n/a	n/a	0	0	0
763222	PROB	n/a	LTP360	ltpFR2	0	n/a	n/a	n/a	4	6	2	1	3
765430	PROB	n/a	LTP360	ltpFR2	0	n/a	n/a	n/a	4	13	1	4	8
767587	PROB	n/a	LTP360	ltpFR2	0	n/a	n/a	n/a	4	13	3	7	3
769024	PROB	n/a	LTP360	ltpFR2	0	n/a	n/a	n/a	4	7	1	5	1
770480	PROB	n/a	LTP360	ltpFR2	0	n/a	n/a	n/a	4	9	1	1	7
772403	PROB	n/a	LTP360	ltpFR2	0	n/a	n/a	n/a	4	24	7	8	9
776014	PROB	n/a	LTP360	ltpFR2	0	n/a	n/a	n/a	4	20	9	5	6
781916	PROB	n/a	LTP360	ltpFR2	0	n/a	n/a	n/a	4	16	5	3	8
784835	STOP	n/a	LTP360	ltpFR2	0	n/a	n/a	n/a	4	n/a	n/a	n/a	n/a
788187	REC_START	n/a	LTP360	ltpFR2	0	4	n/a	n/a	n/a	n/a	0	0	0
801507	REC_WORD	wordpools/wasnorm_wordpool_576.txt	LTP360	ltpFR2	0	4	PUDDLE	1140	n/a	n/a	0	0	0
808969	REC_WORD	wordpools/wasnorm_wordpool_576.txt	LTP360	ltpFR2	0	4	NIGHTGOWN	953	n/a	n/a	0	0	0
817353	REC_WORD	wordpools/wasnorm_wordpool_576.txt	LTP360	ltpFR2	0	4	TRENCH	1503	n/a	n/a	0	0	0
833475	REC_WORD	wordpools/wasnorm_wordpool_576.txt	LTP360	ltpFR2	0	4	CURTAIN	427	n/a	n/a	0	0	0
843699	REC_WORD	wordpools/wasnorm_wordpool_576.txt	LTP360	ltpFR2	0	4	OMELET	976	n/a	n/a	0	0	0
848277	REC_WORD	wordpools/wasnorm_wordpool_576.txt	LTP360	ltpFR2	0	4	QUAIL	1147	n/a	n/a	0	0	0
852362	REC_WORD	wordpools/wasnorm_wordpool_576.txt	LTP360	ltpFR2	0	4	OX	994	n/a	n/a	0	0	0
878632	DISTRACTOR	n/a	LTP360	ltpFR2	0	5	n/a	n/a	n/a	n/a	0	0	0
878633	START	n/a	LTP360	ltpFR2	0	n/a	n/a	n/a	5	n/a	n/a	n/a	n/a
878647	PROB	n/a	LTP360	ltpFR2	0	n/a	n/a	n/a	5	18	8	2	8
881440	PROB	n/a	LTP360	ltpFR2	0	n/a	n/a	n/a	5	11	4	2	5
883144	PROB	n/a	LTP360	ltpFR2	0	n/a	n/a	n/a	5	17	4	8	5
885920	PROB	n/a	LTP360	ltpFR2	0	n/a	n/a	n/a	5	17	9	5	3
888763	PROB	n/a	LTP360	ltpFR2	0	n/a	n/a	n/a	5	9	1	6	2
890786	PROB	n/a	LTP360	ltpFR2	0	n/a	n/a	n/a	5	14	1	7	6
892959	PROB	n/a	LTP360	ltpFR2	0	n/a	n/a	n/a	5	5	1	3	1
894263	PROB	n/a	LTP360	ltpFR2	0	n/a	n/a	n/a	5	14	3	4	7
897139	PROB	n/a	LTP360	ltpFR2	0	n/a	n/a	n/a	5	12	1	9	2
899129	PROB	n/a	LTP360	ltpFR2	0	n/a	n/a	n/a	5	11	7	2	2
902624	STOP	n/a	LTP360	ltpFR2	0	n/a	n/a	n/a	5	n/a	n/a	n/a	n/a
903794	WORD	wordpools/wasnorm_wordpool_576.txt	LTP360	ltpFR2	0	5	PIZZA	1079	n/a	n/a	0	0	0
906604	WORD	wordpools/wasnorm_wordpool_576.txt	LTP360	ltpFR2	0	5	DINER	467	n/a	n/a	0	0	0
909111	WORD	wordpools/wasnorm_wordpool_576.txt	LTP360	ltpFR2	0	5	TROMBONE	1508	n/a	n/a	0	0	0
911721	WORD	wordpools/wasnorm_wordpool_576.txt	LTP360	ltpFR2	0	5	FLOWER	584	n/a	n/a	0	0	0
914430	WORD	wordpools/wasnorm_wordpool_576.txt	LTP360	ltpFR2	0	5	MONEY	908	n/a	n/a	0	0	0
917204	WORD	wordpools/wasnorm_wordpool_576.txt	LTP360	ltpFR2	0	5	SUBWAY	1400	n/a	n/a	0	0	0
919730	WORD	wordpools/wasnorm_wordpool_576.txt	LTP360	ltpFR2	0	5	WAGON	1578	n/a	n/a	0	0	0
922389	WORD	wordpools/wasnorm_wordpool_576.txt	LTP360	ltpFR2	0	5	SOFTBALL	1343	n/a	n/a	0	0	0
925013	WORD	wordpools/wasnorm_wordpool_576.txt	LTP360	ltpFR2	0	5	COWBOY	395	n/a	n/a	0	0	0
927706	WORD	wordpools/wasnorm_wordpool_576.txt	LTP360	ltpFR2	0	5	MUFFIN	929	n/a	n/a	0	0	0
930415	WORD	wordpools/wasnorm_wordpool_576.txt	LTP360	ltpFR2	0	5	TWISTER	1530	n/a	n/a	0	0	0
933206	WORD	wordpools/wasnorm_wordpool_576.txt	LTP360	ltpFR2	0	5	TEMPLE	1448	n/a	n/a	0	0	0
935682	WORD	wordpools/wasnorm_wordpool_576.txt	LTP360	ltpFR2	0	5	SPACE	1345	n/a	n/a	0	0	0
938441	WORD	wordpools/wasnorm_wordpool_576.txt	LTP360	ltpFR2	0	5	PUPIL	1143	n/a	n/a	0	0	0
940881	WORD	wordpools/wasnorm_wordpool_576.txt	LTP360	ltpFR2	0	5	FEMALE	559	n/a	n/a	0	0	0
943608	WORD	wordpools/wasnorm_wordpool_576.txt	LTP360	ltpFR2	0	5	PREACHER	1119	n/a	n/a	0	0	0
946232	WORD	wordpools/wasnorm_wordpool_576.txt	LTP360	ltpFR2	0	5	PEBBLE	1035	n/a	n/a	0	0	0
948741	WORD	wordpools/wasnorm_wordpool_576.txt	LTP360	ltpFR2	0	5	STONE	1385	n/a	n/a	0	0	0
951450	WORD	wordpools/wasnorm_wordpool_576.txt	LTP360	ltpFR2	0	5	SCALPEL	1243	n/a	n/a	0	0	0
953973	WORD	wordpools/wasnorm_wordpool_576.txt	LTP360	ltpFR2	0	5	TRACTOR	1493	n/a	n/a	0	0	0
956432	WORD	wordpools/wasnorm_wordpool_576.txt	LTP360	ltpFR2	0	5	OYSTER	995	n/a	n/a	0	0	0
959057	WORD	wordpools/wasnorm_wordpool_576.txt	LTP360	ltpFR2	0	5	STICKER	1382	n/a	n/a	0	0	0
961733	WORD	wordpools/wasnorm_wordpool_576.txt	LTP360	ltpFR2	0	5	PISTON	1076	n/a	n/a	0	0	0
964190	WORD	wordpools/wasnorm_wordpool_576.txt	LTP360	ltpFR2	0	5	GARLIC	624	n/a	n/a	0	0	0
965795	START	n/a	LTP360	ltpFR2	0	n/a	n/a	n/a	6	n/a	n/a	n/a	n/a
966609	DISTRACTOR	n/a	LTP360	ltpFR2	0	5	n/a	n/a	n/a	n/a	0	0	0
966615	PROB	n/a	LTP360	ltpFR2	0	n/a	n/a	n/a	6	9	2	6	1
969975	PROB	n/a	LTP360	ltpFR2	0	n/a	n/a	n/a	6	12	2	9	1
971531	PROB	n/a	LTP360	ltpFR2	0	n/a	n/a	n/a	6	15	6	6	3
974122	PROB	n/a	LTP360	ltpFR2	0	n/a	n/a	n/a	6	8	1	1	6
975578	PROB	n/a	LTP360	ltpFR2	0	n/a	n/a	n/a	6	21	4	7	7
977384	PROB	n/a	LTP360	ltpFR2	0	n/a	n/a	n/a	6	11	6	2	3
979907	PROB	n/a	LTP360	ltpFR2	0	n/a	n/a	n/a	6	16	6	6	4
982417	PROB	n/a	LTP360	ltpFR2	0	n/a	n/a	n/a	6	4	1	1	2
983854	PROB	n/a	LTP360	ltpFR2	0	n/a	n/a	n/a	6	15	3	3	9
986278	PROB	n/a	LTP360	ltpFR2	0	n/a	n/a	n/a	6	4	1	1	2
989795	STOP	n/a	LTP360	ltpFR2	0	n/a	n/a	n/a	6	n/a	n/a	n/a	n/a
991731	REC_START	n/a	LTP360	ltpFR2	0	5	n/a	n/a	n/a	n/a	0	0	0
992675	REC_WORD	wordpools/wasnorm_wordpool_576.txt	LTP360	ltpFR2	0	5	TROMBONE	1508	n/a	n/a	0	0	0
994057	REC_WORD	wordpools/wasnorm_wordpool_576.txt	LTP360	ltpFR2	0	5	FLOWER	584	n/a	n/a	0	0	0
995549	REC_WORD	wordpools/wasnorm_wordpool_576.txt	LTP360	ltpFR2	0	5	PIZZA	1079	n/a	n/a	0	0	0
997034	REC_WORD	wordpools/wasnorm_wordpool_576.txt	LTP360	ltpFR2	0	5	DINER	467	n/a	n/a	0	0	0
1007972	REC_WORD	wordpools/wasnorm_wordpool_576.txt	LTP360	ltpFR2	0	5	OYSTER	995	n/a	n/a	0	0	0
1016218	REC_WORD	wordpools/wasnorm_wordpool_576.txt	LTP360	ltpFR2	0	5	COWBOY	395	n/a	n/a	0	0	0
1021597	REC_WORD	wordpools/wasnorm_wordpool_576.txt	LTP360	ltpFR2	0	5	PEBBLE	1035	n/a	n/a	0	0	0
1022965	REC_WORD	wordpools/wasnorm_wordpool_576.txt	LTP360	ltpFR2	0	5	STONE	1385	n/a	n/a	0	0	0
1138589	DISTRACTOR	n/a	LTP360	ltpFR2	0	6	n/a	n/a	n/a	n/a	0	0	0
1138589	START	n/a	LTP360	ltpFR2	0	n/a	n/a	n/a	7	n/a	n/a	n/a	n/a
1138606	PROB	n/a	LTP360	ltpFR2	0	n/a	n/a	n/a	7	21	8	7	6
1141532	PROB	n/a	LTP360	ltpFR2	0	n/a	n/a	n/a	7	13	4	1	8
1143153	PROB	n/a	LTP360	ltpFR2	0	n/a	n/a	n/a	7	18	9	3	6
1145293	PROB	n/a	LTP360	ltpFR2	0	n/a	n/a	n/a	7	15	6	7	2
1148838	PROB	n/a	LTP360	ltpFR2	0	n/a	n/a	n/a	7	19	9	7	3
1152484	PROB	n/a	LTP360	ltpFR2	0	n/a	n/a	n/a	7	22	9	7	6
1158420	PROB	n/a	LTP360	ltpFR2	0	n/a	n/a	n/a	7	21	9	8	3
1161359	STOP	n/a	LTP360	ltpFR2	0	n/a	n/a	n/a	7	n/a	n/a	n/a	n/a
1163420	WORD	wordpools/wasnorm_wordpool_576.txt	LTP360	ltpFR2	0	6	OINTMENT	974	n/a	n/a	0	0	0
1165977	WORD	wordpools/wasnorm_wordpool_576.txt	LTP360	ltpFR2	0	6	BURGLAR	200	n/a	n/a	0	0	0
1168753	WORD	wordpools/wasnorm_wordpool_576.txt	LTP360	ltpFR2	0	6	CREATURE	403	n/a	n/a	0	0	0
1171244	WORD	wordpools/wasnorm_wordpool_576.txt	LTP360	ltpFR2	0	6	COFFEE	341	n/a	n/a	0	0	0
1173836	WORD	wordpools/wasnorm_wordpool_576.txt	LTP360	ltpFR2	0	6	ARMY	39	n/a	n/a	0	0	0
1176545	WORD	wordpools/wasnorm_wordpool_576.txt	LTP360	ltpFR2	0	6	PLAYGROUND	1087	n/a	n/a	0	0	0
1179220	WORD	wordpools/wasnorm_wordpool_576.txt	LTP360	ltpFR2	0	6	COUSIN	392	n/a	n/a	0	0	0
1181779	WORD	wordpools/wasnorm_wordpool_576.txt	LTP360	ltpFR2	0	6	BIKE	125	n/a	n/a	0	0	0
1184454	WORD	wordpools/wasnorm_wordpool_576.txt	LTP360	ltpFR2	0	6	MOTOR	922	n/a	n/a	0	0	0
1186878	WORD	wordpools/wasnorm_wordpool_576.txt	LTP360	ltpFR2	0	6	FLESH	579	n/a	n/a	0	0	0
1189420	WORD	wordpools/wasnorm_wordpool_576.txt	LTP360	ltpFR2	0	6	GHETTO	633	n/a	n/a	0	0	0
1191961	WORD	wordpools/wasnorm_wordpool_576.txt	LTP360	ltpFR2	0	6	CHEST	295	n/a	n/a	0	0	0
1194437	WORD	wordpools/wasnorm_wordpool_576.txt	LTP360	ltpFR2	0	6	SPARROW	1347	n/a	n/a	0	0	0
1197044	WORD	wordpools/wasnorm_wordpool_576.txt	LTP360	ltpFR2	0	6	BEAST	108	n/a	n/a	0	0	0
1199687	WORD	wordpools/wasnorm_wordpool_576.txt	LTP360	ltpFR2	0	6	SURVEY	1414	n/a	n/a	0	0	0
1202261	WORD	wordpools/wasnorm_wordpool_576.txt	LTP360	ltpFR2	0	6	CUPBOARD	425	n/a	n/a	0	0	0
1205003	WORD	wordpools/wasnorm_wordpool_576.txt	LTP360	ltpFR2	0	6	RADISH	1158	n/a	n/a	0	0	0
1207579	WORD	wordpools/wasnorm_wordpool_576.txt	LTP360	ltpFR2	0	6	POET	1095	n/a	n/a	0	0	0
1210220	WORD	wordpools/wasnorm_wordpool_576.txt	LTP360	ltpFR2	0	6	SHARK	1275	n/a	n/a	0	0	0
1212779	WORD	wordpools/wasnorm_wordpool_576.txt	LTP360	ltpFR2	0	6	WOMAN	1620	n/a	n/a	0	0	0
1215388	WORD	wordpools/wasnorm_wordpool_576.txt	LTP360	ltpFR2	0	6	LADY	794	n/a	n/a	0	0	0
1218129	WORD	wordpools/wasnorm_wordpool_576.txt	LTP360	ltpFR2	0	6	CONVICT	371	n/a	n/a	0	0	0
1220722	WORD	wordpools/wasnorm_wordpool_576.txt	LTP360	ltpFR2	0	6	BUGGY	188	n/a	n/a	0	0	0
1223196	WORD	wordpools/wasnorm_wordpool_576.txt	LTP360	ltpFR2	0	6	CHAUFFEUR	283	n/a	n/a	0	0	0
1224801	START	n/a	LTP360	ltpFR2	0	n/a	n/a	n/a	8	n/a	n/a	n/a	n/a
1225753	DISTRACTOR	n/a	LTP360	ltpFR2	0	6	n/a	n/a	n/a	n/a	0	0	0
1225755	PROB	n/a	LTP360	ltpFR2	0	n/a	n/a	n/a	8	12	6	5	1
1227611	PROB	n/a	LTP360	ltpFR2	0	n/a	n/a	n/a	8	9	3	4	2
1229315	PROB	n/a	LTP360	ltpFR2	0	n/a	n/a	n/a	8	16	8	5	3
1232510	PROB	n/a	LTP360	ltpFR2	0	n/a	n/a	n/a	8	7	1	5	1
1233830	PROB	n/a	LTP360	ltpFR2	0	n/a	n/a	n/a	8	19	8	5	6
1236940	PROB	n/a	LTP360	ltpFR2	0	n/a	n/a	n/a	8	17	9	3	5
1239399	PROB	n/a	LTP360	ltpFR2	0	n/a	n/a	n/a	8	24	9	8	7
1243496	PROB	n/a	LTP360	ltpFR2	0	n/a	n/a	n/a	8	9	5	1	3
1244933	PROB	n/a	LTP360	ltpFR2	0	n/a	n/a	n/a	8	13	3	2	8
1248801	STOP	n/a	LTP360	ltpFR2	0	n/a	n/a	n/a	8	n/a	n/a	n/a	n/a
1250636	REC_START	n/a	LTP360	ltpFR2	0	6	n/a	n/a	n/a	n/a	0	0	0
1252173	REC_WORD	wordpools/wasnorm_wordpool_576.txt	LTP360	ltpFR2	0	6	OINTMENT	974	n/a	n/a	0	0	0
1260610	REC_WORD	wordpools/wasnorm_wordpool_576.txt	LTP360	ltpFR2	0	6	GHETTO	633	n/a	n/a	0	0	0
1283732	REC_WORD	wordpools/wasnorm_wordpool_576.txt	LTP360	ltpFR2	0	6	SPARROW	1347	n/a	n/a	0	0	0
1389669	WORD	wordpools/wasnorm_wordpool_576.txt	LTP360	ltpFR2	0	7	CATTLE	261	n/a	n/a	0	0	0
1392327	WORD	wordpools/wasnorm_wordpool_576.txt	LTP360	ltpFR2	0	7	CLIMBER	323	n/a	n/a	0	0	0
1395052	WORD	wordpools/wasnorm_wordpool_576.txt	LTP360	ltpFR2	0	7	SLOPE	1328	n/a	n/a	0	0	0
1397762	WORD	wordpools/wasnorm_wordpool_576.txt	LTP360	ltpFR2	0	7	MAPLE	866	n/a	n/a	0	0	0
1400219	WORD	wordpools/wasnorm_wordpool_576.txt	LTP360	ltpFR2	0	7	LIGHTNING	820	n/a	n/a	0	0	0
1402928	WORD	wordpools/wasnorm_wordpool_576.txt	LTP360	ltpFR2	0	7	TRANSPLANT	1496	n/a	n/a	0	0	0
1405587	WORD	wordpools/wasnorm_wordpool_576.txt	LTP360	ltpFR2	0	7	CLOCK	325	n/a	n/a	0	0	0
1408027	WORD	wordpools/wasnorm_wordpool_576.txt	LTP360	ltpFR2	0	7	CHIPMUNK	304	n/a	n/a	0	0	0
1410520	WORD	wordpools/wasnorm_wordpool_576.txt	LTP360	ltpFR2	0	7	KNIFE	785	n/a	n/a	0	0	0
1413010	WORD	wordpools/wasnorm_wordpool_576.txt	LTP360	ltpFR2	0	7	THREAD	1460	n/a	n/a	0	0	0
1415787	WORD	wordpools/wasnorm_wordpool_576.txt	LTP360	ltpFR2	0	7	PRIMATE	1123	n/a	n/a	0	0	0
1418579	WORD	wordpools/wasnorm_wordpool_576.txt	LTP360	ltpFR2	0	7	BROOK	177	n/a	n/a	0	0	0
1421086	WORD	wordpools/wasnorm_wordpool_576.txt	LTP360	ltpFR2	0	7	WITNESS	1618	n/a	n/a	0	0	0
1423545	WORD	wordpools/wasnorm_wordpool_576.txt	LTP360	ltpFR2	0	7	ACTOR	5	n/a	n/a	0	0	0
1426303	WORD	wordpools/wasnorm_wordpool_576.txt	LTP360	ltpFR2	0	7	OUTLAW	989	n/a	n/a	0	0	0
1429012	WORD	wordpools/wasnorm_wordpool_576.txt	LTP360	ltpFR2	0	7	VICTIM	1562	n/a	n/a	0	0	0
1431438	WORD	wordpools/wasnorm_wordpool_576.txt	LTP360	ltpFR2	0	7	HAMPER	682	n/a	n/a	0	0	0
1434229	WORD	wordpools/wasnorm_wordpool_576.txt	LTP360	ltpFR2	0	7	LACE	792	n/a	n/a	0	0	0
1436871	WORD	wordpools/wasnorm_wordpool_576.txt	LTP360	ltpFR2	0	7	ANKLE	24	n/a	n/a	0	0	0
1439531	WORD	wordpools/wasnorm_wordpool_576.txt	LTP360	ltpFR2	0	7	DUSTPAN	509	n/a	n/a	0	0	0
1442322	WORD	wordpools/wasnorm_wordpool_576.txt	LTP360	ltpFR2	0	7	TWIG	1527	n/a	n/a	0	0	0
1445098	WORD	wordpools/wasnorm_wordpool_576.txt	LTP360	ltpFR2	0	7	CHAPEL	280	n/a	n/a	0	0	0
1447724	WORD	wordpools/wasnorm_wordpool_576.txt	LTP360	ltpFR2	0	7	ACTRESS	6	n/a	n/a	0	0	0
1450449	WORD	wordpools/wasnorm_wordpool_576.txt	LTP360	ltpFR2	0	7	BRIEFCASE	175	n/a	n/a	0	0	0
1452054	START	n/a	LTP360	ltpFR2	0	n/a	n/a	n/a	9	n/a	n/a	n/a	n/a
1453116	DISTRACTOR	n/a	LTP360	ltpFR2	0	7	n/a	n/a	n/a	n/a	0	0	0
1453124	PROB	n/a	LTP360	ltpFR2	0	n/a	n/a	n/a	9	11	5	3	3
1456936	PROB	n/a	LTP360	ltpFR2	0	n/a	n/a	n/a	9	11	5	5	1
1458190	PROB	n/a	LTP360	ltpFR2	0	n/a	n/a	n/a	9	20	9	9	2
1459962	PROB	n/a	LTP360	ltpFR2	0	n/a	n/a	n/a	9	13	3	3	7
1461585	PROB	n/a	LTP360	ltpFR2	0	n/a	n/a	n/a	9	20	2	9	9
1463341	PROB	n/a	LTP360	ltpFR2	0	n/a	n/a	n/a	9	9	4	4	1
1464612	PROB	n/a	LTP360	ltpFR2	0	n/a	n/a	n/a	9	15	8	1	6
1467019	PROB	n/a	LTP360	ltpFR2	0	n/a	n/a	n/a	9	22	6	7	9
1472654	PROB	n/a	LTP360	ltpFR2	0	n/a	n/a	n/a	9	15	8	4	3
1474632	STOP	n/a	LTP360	ltpFR2	0	n/a	n/a	n/a	9	n/a	n/a	n/a	n/a
1477854	REC_START	n/a	LTP360	ltpFR2	0	7	n/a	n/a	n/a	n/a	0	0	0
1478853	REC_WORD	wordpools/wasnorm_wordpool_576.txt	LTP360	ltpFR2	0	7	BRIEFCASE	175	n/a	n/a	0	0	0
1483731	REC_WORD	wordpools/wasnorm_wordpool_576.txt	LTP360	ltpFR2	0	7	OUTLAW	989	n/a	n/a	0	0	0
1486305	REC_WORD	wordpools/wasnorm_wordpool_576.txt	LTP360	ltpFR2	0	7	VICTIM	1562	n/a	n/a	0	0	0
1494150	REC_WORD	wordpools/wasnorm_wordpool_576.txt	LTP360	ltpFR2	0	7	CATTLE	261	n/a	n/a	0	0	0
1520125	REC_WORD	wordpools/wasnorm_wordpool_576.txt	LTP360	ltpFR2	0	7	WITNESS	1618	n/a	n/a	0	0	0
1530142	REC_WORD	wordpools/wasnorm_wordpool_576.txt	LTP360	ltpFR2	0	7	ACTOR	5	n/a	n/a	0	0	0
1673270	WORD	wordpools/wasnorm_wordpool_576.txt	LTP360	ltpFR2	0	8	LIPSTICK	829	n/a	n/a	0	0	0
1675979	WORD	wordpools/wasnorm_wordpool_576.txt	LTP360	ltpFR2	0	8	BOUQUET	157	n/a	n/a	0	0	0
1678655	WORD	wordpools/wasnorm_wordpool_576.txt	LTP360	ltpFR2	0	8	HERO	706	n/a	n/a	0	0	0
1681380	WORD	wordpools/wasnorm_wordpool_576.txt	LTP360	ltpFR2	0	8	CAPTIVE	240	n/a	n/a	0	0	0
1684138	WORD	wordpools/wasnorm_wordpool_576.txt	LTP360	ltpFR2	0	8	BASEMENT	94	n/a	n/a	0	0	0
1686648	WORD	wordpools/wasnorm_wordpool_576.txt	LTP360	ltpFR2	0	8	COSTUME	383	n/a	n/a	0	0	0
1689305	WORD	wordpools/wasnorm_wordpool_576.txt	LTP360	ltpFR2	0	8	PLIERS	1089	n/a	n/a	0	0	0
1691764	WORD	wordpools/wasnorm_wordpool_576.txt	LTP360	ltpFR2	0	8	FRAGRANCE	599	n/a	n/a	0	0	0
1694456	WORD	wordpools/wasnorm_wordpool_576.txt	LTP360	ltpFR2	0	8	WORKER	1621	n/a	n/a	0	0	0
1697047	WORD	wordpools/wasnorm_wordpool_576.txt	LTP360	ltpFR2	0	8	DAISY	435	n/a	n/a	0	0	0
1699472	WORD	wordpools/wasnorm_wordpool_576.txt	LTP360	ltpFR2	0	8	MARS	873	n/a	n/a	0	0	0
1702264	WORD	wordpools/wasnorm_wordpool_576.txt	LTP360	ltpFR2	0	8	IDOL	733	n/a	n/a	0	0	0
1704906	WORD	wordpools/wasnorm_wordpool_576.txt	LTP360	ltpFR2	0	8	CABBAGE	210	n/a	n/a	0	0	0
1707582	WORD	wordpools/wasnorm_wordpool_576.txt	LTP360	ltpFR2	0	8	BRANDY	169	n/a	n/a	0	0	0
1710256	WORD	wordpools/wasnorm_wordpool_576.txt	LTP360	ltpFR2	0	8	JURY	766	n/a	n/a	0	0	0
1712815	WORD	wordpools/wasnorm_wordpool_576.txt	LTP360	ltpFR2	0	8	SERVANT	1271	n/a	n/a	0	0	0
1715441	WORD	wordpools/wasnorm_wordpool_576.txt	LTP360	ltpFR2	0	8	RECORD	1176	n/a	n/a	0	0	0
1718048	WORD	wordpools/wasnorm_wordpool_576.txt	LTP360	ltpFR2	0	8	HARP	689	n/a	n/a	0	0	0
1720674	WORD	wordpools/wasnorm_wordpool_576.txt	LTP360	ltpFR2	0	8	SALAD	1224	n/a	n/a	0	0	0
1723366	WORD	wordpools/wasnorm_wordpool_576.txt	LTP360	ltpFR2	0	8	TURNIP	1521	n/a	n/a	0	0	0
1726091	WORD	wordpools/wasnorm_wordpool_576.txt	LTP360	ltpFR2	0	8	DRINK	498	n/a	n/a	0	0	0
1728750	WORD	wordpools/wasnorm_wordpool_576.txt	LTP360	ltpFR2	0	8	MOP	916	n/a	n/a	0	0	0
1731308	WORD	wordpools/wasnorm_wordpool_576.txt	LTP360	ltpFR2	0	8	CRAB	397	n/a	n/a	0	0	0
1733933	WORD	wordpools/wasnorm_wordpool_576.txt	LTP360	ltpFR2	0	8	CHEMIST	292	n/a	n/a	0	0	0
1735539	START	n/a	LTP360	ltpFR2	0	n/a	n/a	n/a	10	n/a	n/a	n/a	n/a
1736365	DISTRACTOR	n/a	LTP360	ltpFR2	0	8	n/a	n/a	n/a	n/a	0	0	0
1736375	PROB	n/a	LTP360	ltpFR2	0	n/a	n/a	n/a	10	23	5	8	5
1739317	PROB	n/a	LTP360	ltpFR2	0	n/a	n/a	n/a	10	22	2	7	8
1742696	PROB	n/a	LTP360	ltpFR2	0	n/a	n/a	n/a	10	19	6	5	8
1745303	PROB	n/a	LTP360	ltpFR2	0	n/a	n/a	n/a	10	18	9	1	8
1746725	PROB	n/a	LTP360	ltpFR2	0	n/a	n/a	n/a	10	11	4	5	2
1748330	PROB	n/a	LTP360	ltpFR2	0	n/a	n/a	n/a	10	11	4	1	6
1749535	PROB	n/a	LTP360	ltpFR2	0	n/a	n/a	n/a	10	16	5	9	2
1753765	PROB	n/a	LTP360	ltpFR2	0	n/a	n/a	n/a	10	10	4	3	3
1756524	PROB	n/a	LTP360	ltpFR2	0	n/a	n/a	n/a	10	16	6	6	5
1758713	STOP	n/a	LTP360	ltpFR2	0	n/a	n/a	n/a	10	n/a	n/a	n/a	n/a
1761474	REC_START	n/a	LTP360	ltpFR2	0	8	n/a	n/a	n/a	n/a	0	0	0
1762608	REC_WORD	wordpools/wasnorm_wordpool_576.txt	LTP360	ltpFR2	0	8	TURNIP	1521	n/a	n/a	0	0	0
1764068	REC_WORD	wordpools/wasnorm_wordpool_576.txt	LTP360	ltpFR2	0	8	CABBAGE	210	n/a	n/a	0	0	0
1765670	REC_WORD	wordpools/wasnorm_wordpool_576.txt	LTP360	ltpFR2	0	8	LIPSTICK	829	n/a	n/a	0	0	0
1767112	REC_WORD	wordpools/wasnorm_wordpool_576.txt	LTP360	ltpFR2	0	8	BOUQUET	157	n/a	n/a	0	0	0
1775366	REC_WORD	wordpools/wasnorm_wordpool_576.txt	LTP360	ltpFR2	0	8	BASEMENT	94	n/a	n/a	0	0	0
1782530	REC_WORD	wordpools/wasnorm_wordpool_576.txt	LTP360	ltpFR2	0	8	CAPTIVE	240	n/a	n/a	0	0	0
1784046	REC_WORD	wordpools/wasnorm_wordpool_576.txt	LTP360	ltpFR2	0	8	HERO	706	n/a	n/a	0	0	0
1838003	REST_REWET	n/a	LTP360	ltpFR2	0	8	n/a	n/a	n/a	n/a	0	0	0
2040794	DISTRACTOR	n/a	LTP360	ltpFR2	0	9	n/a	n/a	n/a	n/a	0	0	0
2040794	START	n/a	LTP360	ltpFR2	0	n/a	n/a	n/a	11	n/a	n/a	n/a	n/a
2040810	PROB	n/a	LTP360	ltpFR2	0	n/a	n/a	n/a	11	15	2	9	4
2044624	PROB	n/a	LTP360	ltpFR2	0	n/a	n/a	n/a	11	9	1	5	3
2046379	PROB	n/a	LTP360	ltpFR2	0	n/a	n/a	n/a	11	16	6	5	5
2048017	PROB	n/a	LTP360	ltpFR2	0	n/a	n/a	n/a	11	18	8	8	2
2050174	PROB	n/a	LTP360	ltpFR2	0	n/a	n/a	n/a	11	18	8	8	2
2051412	PROB	n/a	LTP360	ltpFR2	0	n/a	n/a	n/a	11	9	3	4	2
2054153	PROB	n/a	LTP360	ltpFR2	0	n/a	n/a	n/a	11	13	5	2	6
2057213	PROB	n/a	LTP360	ltpFR2	0	n/a	n/a	n/a	11	5	1	3	1
2058485	PROB	n/a	LTP360	ltpFR2	0	n/a	n/a	n/a	11	17	7	2	8
2060341	PROB	n/a	LTP360	ltpFR2	0	n/a	n/a	n/a	11	6	1	2	3
2064794	STOP	n/a	LTP360	ltpFR2	0	n/a	n/a	n/a	11	n/a	n/a	n/a	n/a
2065992	WORD	wordpools/wasnorm_wordpool_576.txt	LTP360	ltpFR2	0	9	TWEEZERS	1526	n/a	n/a	0	0	0
2068668	WORD	wordpools/wasnorm_wordpool_576.txt	LTP360	ltpFR2	0	9	GOBLIN	645	n/a	n/a	0	0	0
2071108	WORD	wordpools/wasnorm_wordpool_576.txt	LTP360	ltpFR2	0	9	BLACKBOARD	133	n/a	n/a	0	0	0
2073800	WORD	wordpools/wasnorm_wordpool_576.txt	LTP360	ltpFR2	0	9	SKILLET	1317	n/a	n/a	0	0	0
2076510	WORD	wordpools/wasnorm_wordpool_576.txt	LTP360	ltpFR2	0	9	COOK	372	n/a	n/a	0	0	0
2078934	WORD	wordpools/wasnorm_wordpool_576.txt	LTP360	ltpFR2	0	9	GALLON	618	n/a	n/a	0	0	0
2081393	WORD	wordpools/wasnorm_wordpool_576.txt	LTP360	ltpFR2	0	9	SCISSORS	1250	n/a	n/a	0	0	0
2084184	WORD	wordpools/wasnorm_wordpool_576.txt	LTP360	ltpFR2	0	9	LUMBER	848	n/a	n/a	0	0	0
2086626	WORD	wordpools/wasnorm_wordpool_576.txt	LTP360	ltpFR2	0	9	PATIENT	1024	n/a	n/a	0	0	0
2089385	WORD	wordpools/wasnorm_wordpool_576.txt	LTP360	ltpFR2	0	9	FRAME	600	n/a	n/a	0	0	0
2092160	WORD	wordpools/wasnorm_wordpool_576.txt	LTP360	ltpFR2	0	9	GREASE	660	n/a	n/a	0	0	0
2094852	WORD	wordpools/wasnorm_wordpool_576.txt	LTP360	ltpFR2	0	9	BREAST	171	n/a	n/a	0	0	0
2097310	WORD	wordpools/wasnorm_wordpool_576.txt	LTP360	ltpFR2	0	9	EGYPT	519	n/a	n/a	0	0	0
2099935	WORD	wordpools/wasnorm_wordpool_576.txt	LTP360	ltpFR2	0	9	MUMMY	932	n/a	n/a	0	0	0
2102411	WORD	wordpools/wasnorm_wordpool_576.txt	LTP360	ltpFR2	0	9	PILOT	1070	n/a	n/a	0	0	0
2105169	WORD	wordpools/wasnorm_wordpool_576.txt	LTP360	ltpFR2	0	9	HEDGE	699	n/a	n/a	0	0	0
2107594	WORD	wordpools/wasnorm_wordpool_576.txt	LTP360	ltpFR2	0	9	MILK	895	n/a	n/a	0	0	0
2110034	WORD	wordpools/wasnorm_wordpool_576.txt	LTP360	ltpFR2	0	9	COCKTAIL	338	n/a	n/a	0	0	0
2112843	WORD	wordpools/wasnorm_wordpool_576.txt	LTP360	ltpFR2	0	9	RATTLE	1170	n/a	n/a	0	0	0
2115587	WORD	wordpools/wasnorm_wordpool_576.txt	LTP360	ltpFR2	0	9	AIRPLANE	12	n/a	n/a	0	0	0
2118111	WORD	wordpools/wasnorm_wordpool_576.txt	LTP360	ltpFR2	0	9	SNACK	1331	n/a	n/a	0	0	0
2120636	WORD	wordpools/wasnorm_wordpool_576.txt	LTP360	ltpFR2	0	9	JELLY	755	n/a	n/a	0	0	0
2123227	WORD	wordpools/wasnorm_wordpool_576.txt	LTP360	ltpFR2	0	9	DENTIST	447	n/a	n/a	0	0	0
2125902	WORD	wordpools/wasnorm_wordpool_576.txt	LTP360	ltpFR2	0	9	OUTDOORS	987	n/a	n/a	0	0	0
2127509	START	n/a	LTP360	ltpFR2	0	n/a	n/a	n/a	12	n/a	n/a	n/a	n/a
2128333	DISTRACTOR	n/a	LTP360	ltpFR2	0	9	n/a	n/a	n/a	n/a	0	0	0
2128345	PROB	n/a	LTP360	ltpFR2	0	n/a	n/a	n/a	12	17	2	9	6
2132408	PROB	n/a	LTP360	ltpFR2	0	n/a	n/a	n/a	12	26	9	8	9
2135485	PROB	n/a	LTP360	ltpFR2	0	n/a	n/a	n/a	12	17	4	5	8
2137675	PROB	n/a	LTP360	ltpFR2	0	n/a	n/a	n/a	12	15	6	3	6
2140701	PROB	n/a	LTP360	ltpFR2	0	n/a	n/a	n/a	12	11	2	8	1
2141921	PROB	n/a	LTP360	ltpFR2	0	n/a	n/a	n/a	12	19	4	8	7
2144363	PROB	n/a	LTP360	ltpFR2	0	n/a	n/a	n/a	12	15	4	7	4
2146370	PROB	n/a	LTP360	ltpFR2	0	n/a	n/a	n/a	12	14	9	2	3
2151509	STOP	n/a	LTP360	ltpFR2	0	n/a	n/a	n/a	12	n/a	n/a	n/a	n/a
2153343	REC_START	n/a	LTP360	ltpFR2	0	9	n/a	n/a	n/a	n/a	0	0	0
2154235	REC_WORD	wordpools/wasnorm_wordpool_576.txt	LTP360	ltpFR2	0	9	SKILLET	1317	n/a	n/a	0	0	0
2155791	REC_WORD	wordpools/wasnorm_wordpool_576.txt	LTP360	ltpFR2	0	9	COOK	372	n/a	n/a	0	0	0
2157379	REC_WORD	wordpools/wasnorm_wordpool_576.txt	LTP360	ltpFR2	0	9	PILOT	1070	n/a	n/a	0	0	0
2158920	REC_WORD	wordpools/wasnorm_wordpool_576.txt	LTP360	ltpFR2	0	9	AIRPLANE	12	n/a	n/a	0	0	0
2160577	REC_WORD	wordpools/wasnorm_wordpool_576.txt	LTP360	ltpFR2	0	9	COCKTAIL	338	n/a	n/a	0	0	0
2162373	REC_WORD	wordpools/wasnorm_wordpool_576.txt	LTP360	ltpFR2	0	9	RATTLE	1170	n/a	n/a	0	0	0
2166649	REC_WORD	wordpools/wasnorm_wordpool_576.txt	LTP360	ltpFR2	0	9	FRAME	600	n/a	n/a	0	0	0
2198111	REC_WORD	wordpools/wasnorm_wordpool_576.txt	LTP360	ltpFR2	0	9	LUMBER	848	n/a	n/a	0	0	0
2199803	REC_WORD	wordpools/wasnorm_wordpool_576.txt	LTP360	ltpFR2	0	9	TWEEZERS	1526	n/a	n/a	0	0	0
2243801	WORD	wordpools/wasnorm_wordpool_576.txt	LTP360	ltpFR2	0	10	SALT	1229	n/a	n/a	0	0	0
2246326	WORD	wordpools/wasnorm_wordpool_576.txt	LTP360	ltpFR2	0	10	UNCLE	1536	n/a	n/a	0	0	0
2249085	WORD	wordpools/wasnorm_wordpool_576.txt	LTP360	ltpFR2	0	10	CUSTARD	429	n/a	n/a	0	0	0
2251494	WORD	wordpools/wasnorm_wordpool_576.txt	LTP360	ltpFR2	0	10	FRUIT	610	n/a	n/a	0	0	0
2254302	WORD	wordpools/wasnorm_wordpool_576.txt	LTP360	ltpFR2	0	10	GRAPE	654	n/a	n/a	0	0	0
2256977	WORD	wordpools/wasnorm_wordpool_576.txt	LTP360	ltpFR2	0	10	CASHEW	253	n/a	n/a	0	0	0
2259687	WORD	wordpools/wasnorm_wordpool_576.txt	LTP360	ltpFR2	0	10	COOKBOOK	373	n/a	n/a	0	0	0
2262244	WORD	wordpools/wasnorm_wordpool_576.txt	LTP360	ltpFR2	0	10	HUMAN	726	n/a	n/a	0	0	0
2264720	WORD	wordpools/wasnorm_wordpool_576.txt	LTP360	ltpFR2	0	10	ULCER	1533	n/a	n/a	0	0	0
2267495	WORD	wordpools/wasnorm_wordpool_576.txt	LTP360	ltpFR2	0	10	BELLY	119	n/a	n/a	0	0	0
2269936	WORD	wordpools/wasnorm_wordpool_576.txt	LTP360	ltpFR2	0	10	GRAVEL	659	n/a	n/a	0	0	0
2272746	WORD	wordpools/wasnorm_wordpool_576.txt	LTP360	ltpFR2	0	10	PAIL	1002	n/a	n/a	0	0	0
2275320	WORD	wordpools/wasnorm_wordpool_576.txt	LTP360	ltpFR2	0	10	BODY	145	n/a	n/a	0	0	0
2277779	WORD	wordpools/wasnorm_wordpool_576.txt	LTP360	ltpFR2	0	10	PASSAGE	1019	n/a	n/a	0	0	0
2280219	WORD	wordpools/wasnorm_wordpool_576.txt	LTP360	ltpFR2	0	10	INMATE	738	n/a	n/a	0	0	0
2282928	WORD	wordpools/wasnorm_wordpool_576.txt	LTP360	ltpFR2	0	10	HONEY	713	n/a	n/a	0	0	0
2285403	WORD	wordpools/wasnorm_wordpool_576.txt	LTP360	ltpFR2	0	10	FLASHLIGHT	575	n/a	n/a	0	0	0
2288161	WORD	wordpools/wasnorm_wordpool_576.txt	LTP360	ltpFR2	0	10	SUITCASE	1403	n/a	n/a	0	0	0
2290954	WORD	wordpools/wasnorm_wordpool_576.txt	LTP360	ltpFR2	0	10	LUGGAGE	847	n/a	n/a	0	0	0
2293379	WORD	wordpools/wasnorm_wordpool_576.txt	LTP360	ltpFR2	0	10	SLIDE	1326	n/a	n/a	0	0	0
2296020	WORD	wordpools/wasnorm_wordpool_576.txt	LTP360	ltpFR2	0	10	SUSPECT	1415	n/a	n/a	0	0	0
2298512	WORD	wordpools/wasnorm_wordpool_576.txt	LTP360	ltpFR2	0	10	GLOBE	641	n/a	n/a	0	0	0
2301137	WORD	wordpools/wasnorm_wordpool_576.txt	LTP360	ltpFR2	0	10	STALLION	1369	n/a	n/a	0	0	0
2303946	WORD	wordpools/wasnorm_wordpool_576.txt	LTP360	ltpFR2	0	10	NECKLACE	940	n/a	n/a	0	0	0
2305552	START	n/a	LTP360	ltpFR2	0	n/a	n/a	n/a	13	n/a	n/a	n/a	n/a
2306696	DISTRACTOR	n/a	LTP360	ltpFR2	0	10	n/a	n/a	n/a	n/a	0	0	0
2306706	PROB	n/a	LTP360	ltpFR2	0	n/a	n/a	n/a	13	20	5	7	8
2308962	PROB	n/a	LTP360	ltpFR2	0	n/a	n/a	n/a	13	10	2	2	6
2311505	PROB	n/a	LTP360	ltpFR2	0	n/a	n/a	n/a	13	9	2	1	6
2313126	PROB	n/a	LTP360	ltpFR2	0	n/a	n/a	n/a	13	18	8	4	6
2314881	PROB	n/a	LTP360	ltpFR2	0	n/a	n/a	n/a	13	12	3	5	4
2317924	PROB	n/a	LTP360	ltpFR2	0	n/a	n/a	n/a	13	19	5	9	5
2319312	PROB	n/a	LTP360	ltpFR2	0	n/a	n/a	n/a	13	18	4	7	7
2321554	PROB	n/a	LTP360	ltpFR2	0	n/a	n/a	n/a	13	16	5	5	6
2323007	PROB	n/a	LTP360	ltpFR2	0	n/a	n/a	n/a	13	14	7	1	6
2325315	PROB	n/a	LTP360	ltpFR2	0	n/a	n/a	n/a	13	19	8	5	6
2329551	STOP	n/a	LTP360	ltpFR2	0	n/a	n/a	n/a	13	n/a	n/a	n/a	n/a
2331369	REC_START	n/a	LTP360	ltpFR2	0	10	n/a	n/a	n/a	n/a	0	0	0
2333254	REC_WORD	wordpools/wasnorm_wordpool_576.txt	LTP360	ltpFR2	0	10	LUGGAGE	847	n/a	n/a	0	0	0
2335002	REC_WORD	wordpools/wasnorm_wordpool_576.txt	LTP360	ltpFR2	0	10	CASHEW	253	n/a	n/a	0	0	0
2336758	REC_WORD	wordpools/wasnorm_wordpool_576.txt	LTP360	ltpFR2	0	10	FRUIT	610	n/a	n/a	0	0	0
2338422	REC_WORD	wordpools/wasnorm_wordpool_576.txt	LTP360	ltpFR2	0	10	GRAPE	654	n/a	n/a	0	0	0
2340067	REC_WORD	wordpools/wasnorm_wordpool_576.txt	LTP360	ltpFR2	0	10	COOKBOOK	373	n/a	n/a	0	0	0
2352329	REC_WORD	wordpools/wasnorm_wordpool_576.txt	LTP360	ltpFR2	0	10	CHEF	290	n/a	n/a	0	0	0
2493728	DISTRACTOR	n/a	LTP360	ltpFR2	0	11	n/a	n/a	n/a	n/a	0	0	0
2493728	START	n/a	LTP360	ltpFR2	0	n/a	n/a	n/a	14	n/a	n/a	n/a	n/a
2493745	PROB	n/a	LTP360	ltpFR2	0	n/a	n/a	n/a	14	20	9	7	4
2496921	PROB	n/a	LTP360	ltpFR2	0	n/a	n/a	n/a	14	16	2	8	6
2498242	PROB	n/a	LTP360	ltpFR2	0	n/a	n/a	n/a	14	13	2	3	8
2501101	PROB	n/a	LTP360	ltpFR2	0	n/a	n/a	n/a	14	15	6	1	8
2503443	PROB	n/a	LTP360	ltpFR2	0	n/a	n/a	n/a	14	21	8	6	7
2506620	PROB	n/a	LTP360	ltpFR2	0	n/a	n/a	n/a	14	14	7	5	2
2508993	PROB	n/a	LTP360	ltpFR2	0	n/a	n/a	n/a	14	13	2	2	9
2511167	PROB	n/a	LTP360	ltpFR2	0	n/a	n/a	n/a	14	9	2	2	5
2513073	PROB	n/a	LTP360	ltpFR2	0	n/a	n/a	n/a	14	6	4	1	1
2517728	STOP	n/a	LTP360	ltpFR2	0	n/a	n/a	n/a	14	n/a	n/a	n/a	n/a
2518676	WORD	wordpools/wasnorm_wordpool_576.txt	LTP360	ltpFR2	0	11	BARREL	91	n/a	n/a	0	0	0
2521451	WORD	wordpools/wasnorm_wordpool_576.txt	LTP360	ltpFR2	0	11	DRESS	495	n/a	n/a	0	0	0
2524109	WORD	wordpools/wasnorm_wordpool_576.txt	LTP360	ltpFR2	0	11	SKIRT	1319	n/a	n/a	0	0	0
2526601	WORD	wordpools/wasnorm_wordpool_576.txt	LTP360	ltpFR2	0	11	YARN	1631	n/a	n/a	0	0	0
2529360	WORD	wordpools/wasnorm_wordpool_576.txt	LTP360	ltpFR2	0	11	DRIVER	499	n/a	n/a	0	0	0
2531984	WORD	wordpools/wasnorm_wordpool_576.txt	LTP360	ltpFR2	0	11	VALVE	1546	n/a	n/a	0	0	0
2534560	WORD	wordpools/wasnorm_wordpool_576.txt	LTP360	ltpFR2	0	11	COURSE	390	n/a	n/a	0	0	0
2537017	WORD	wordpools/wasnorm_wordpool_576.txt	LTP360	ltpFR2	0	11	SPOON	1357	n/a	n/a	0	0	0
2539826	WORD	wordpools/wasnorm_wordpool_576.txt	LTP360	ltpFR2	0	11	SWORD	1423	n/a	n/a	0	0	0
2542503	WORD	wordpools/wasnorm_wordpool_576.txt	LTP360	ltpFR2	0	11	FLEET	578	n/a	n/a	0	0	0
2545043	WORD	wordpools/wasnorm_wordpool_576.txt	LTP360	ltpFR2	0	11	SHIRT	1287	n/a	n/a	0	0	0
2547569	WORD	wordpools/wasnorm_wordpool_576.txt	LTP360	ltpFR2	0	11	CHURCH	307	n/a	n/a	0	0	0
2550059	WORD	wordpools/wasnorm_wordpool_576.txt	LTP360	ltpFR2	0	11	COCOON	339	n/a	n/a	0	0	0
2552686	WORD	wordpools/wasnorm_wordpool_576.txt	LTP360	ltpFR2	0	11	PARROT	1015	n/a	n/a	0	0	0
2555361	WORD	wordpools/wasnorm_wordpool_576.txt	LTP360	ltpFR2	0	11	TORTOISE	1486	n/a	n/a	0	0	0
2558136	WORD	wordpools/wasnorm_wordpool_576.txt	LTP360	ltpFR2	0	11	DOUGHNUT	490	n/a	n/a	0	0	0
2560611	WORD	wordpools/wasnorm_wordpool_576.txt	LTP360	ltpFR2	0	11	DIVER	476	n/a	n/a	0	0	0
2563420	WORD	wordpools/wasnorm_wordpool_576.txt	LTP360	ltpFR2	0	11	COLONEL	348	n/a	n/a	0	0	0
2566195	WORD	wordpools/wasnorm_wordpool_576.txt	LTP360	ltpFR2	0	11	FIREPLACE	570	n/a	n/a	0	0	0
2568671	WORD	wordpools/wasnorm_wordpool_576.txt	LTP360	ltpFR2	0	11	GANGSTER	620	n/a	n/a	0	0	0
2571094	WORD	wordpools/wasnorm_wordpool_576.txt	LTP360	ltpFR2	0	11	CLAM	315	n/a	n/a	0	0	0
2573887	WORD	wordpools/wasnorm_wordpool_576.txt	LTP360	ltpFR2	0	11	LILY	821	n/a	n/a	0	0	0
2576396	WORD	wordpools/wasnorm_wordpool_576.txt	LTP360	ltpFR2	0	11	SNAIL	1332	n/a	n/a	0	0	0
2578853	WORD	wordpools/wasnorm_wordpool_576.txt	LTP360	ltpFR2	0	11	COTTAGE	384	n/a	n/a	0	0	0
2580459	START	n/a	LTP360	ltpFR2	0	n/a	n/a	n/a	15	n/a	n/a	n/a	n/a
2581320	DISTRACTOR	n/a	LTP360	ltpFR2	0	11	n/a	n/a	n/a	n/a	0	0	0
2581327	PROB	n/a	LTP360	ltpFR2	0	n/a	n/a	n/a	15	16	3	8	5
2584622	PROB	n/a	LTP360	ltpFR2	0	n/a	n/a	n/a	15	7	1	5	1
2587263	PROB	n/a	LTP360	ltpFR2	0	n/a	n/a	n/a	15	21	7	9	5
2590122	PROB	n/a	LTP360	ltpFR2	0	n/a	n/a	n/a	15	14	2	6	6
2593049	PROB	n/a	LTP360	ltpFR2	0	n/a	n/a	n/a	15	10	1	1	8
2594421	PROB	n/a	LTP360	ltpFR2	0	n/a	n/a	n/a	15	13	2	7	4
2596712	PROB	n/a	LTP360	ltpFR2	0	n/a	n/a	n/a	15	12	1	9	2
2598015	PROB	n/a	LTP360	ltpFR2	0	n/a	n/a	n/a	15	9	5	1	3
2599319	PROB	n/a	LTP360	ltpFR2	0	n/a	n/a	n/a	15	19	4	9	6
2601477	PROB	n/a	LTP360	ltpFR2	0	n/a	n/a	n/a	15	12	9	1	2
2603304	STOP	n/a	LTP360	ltpFR2	0	n/a	n/a	n/a	15	n/a	n/a	n/a	n/a
2606360	REC_START	n/a	LTP360	ltpFR2	0	11	n/a	n/a	n/a	n/a	0	0	0
2607480	REC_WORD	wordpools/wasnorm_wordpool_576.txt	LTP360	ltpFR2	0	11	BARREL	91	n/a	n/a	0	0	0
2609037	REC_WORD	wordpools/wasnorm_wordpool_576.txt	LTP360	ltpFR2	0	11	DRIVER	499	n/a	n/a	0	0	0
2610591	REC_WORD	wordpools/wasnorm_wordpool_576.txt	LTP360	ltpFR2	0	11	VALVE	1546	n/a	n/a	0	0	0
2612170	REC_WORD	wordpools/wasnorm_wordpool_576.txt	LTP360	ltpFR2	0	11	COURSE	390	n/a	n/a	0	0	0
2714810	DISTRACTOR	n/a	LTP360	ltpFR2	0	12	n/a	n/a	n/a	n/a	0	0	0
2714810	START	n/a	LTP360	ltpFR2	0	n/a	n/a	n/a	16	n/a	n/a	n/a	n/a
2714826	PROB	n/a	LTP360	ltpFR2	0	n/a	n/a	n/a	16	8	3	1	4
2718356	PROB	n/a	LTP360	ltpFR2	0	n/a	n/a	n/a	16	14	8	2	4
2719976	PROB	n/a	LTP360	ltpFR2	0	n/a	n/a	n/a	16	17	5	3	8
2724358	PROB	n/a	LTP360	ltpFR2	0	n/a	n/a	n/a	16	13	5	7	1
2726314	PROB	n/a	LTP360	ltpFR2	0	n/a	n/a	n/a	16	15	7	4	3
2728136	PROB	n/a	LTP360	ltpFR2	0	n/a	n/a	n/a	16	13	7	3	3
2730378	PROB	n/a	LTP360	ltpFR2	0	n/a	n/a	n/a	16	19	7	5	7
2732968	PROB	n/a	LTP360	ltpFR2	0	n/a	n/a	n/a	16	14	5	1	8
2734742	PROB	n/a	LTP360	ltpFR2	0	n/a	n/a	n/a	16	25	7	9	8
2738308	STOP	n/a	LTP360	ltpFR2	0	n/a	n/a	n/a	16	n/a	n/a	n/a	n/a
2739624	WORD	wordpools/wasnorm_wordpool_576.txt	LTP360	ltpFR2	0	12	MARINE	869	n/a	n/a	0	0	0
2742417	WORD	wordpools/wasnorm_wordpool_576.txt	LTP360	ltpFR2	0	12	CEILING	265	n/a	n/a	0	0	0
2744941	WORD	wordpools/wasnorm_wordpool_576.txt	LTP360	ltpFR2	0	12	TILE	1468	n/a	n/a	0	0	0
2747734	WORD	wordpools/wasnorm_wordpool_576.txt	LTP360	ltpFR2	0	12	LAVA	804	n/a	n/a	0	0	0
2750443	WORD	wordpools/wasnorm_wordpool_576.txt	LTP360	ltpFR2	0	12	FOOT	590	n/a	n/a	0	0	0
2753217	WORD	wordpools/wasnorm_wordpool_576.txt	LTP360	ltpFR2	0	12	LAGOON	795	n/a	n/a	0	0	0
2755727	WORD	wordpools/wasnorm_wordpool_576.txt	LTP360	ltpFR2	0	12	LUNCH	849	n/a	n/a	0	0	0
2758419	WORD	wordpools/wasnorm_wordpool_576.txt	LTP360	ltpFR2	0	12	ROOSTER	1209	n/a	n/a	0	0	0
2761143	WORD	wordpools/wasnorm_wordpool_576.txt	LTP360	ltpFR2	0	12	YOLK	1633	n/a	n/a	0	0	0
2763936	WORD	wordpools/wasnorm_wordpool_576.txt	LTP360	ltpFR2	0	12	SUNSET	1408	n/a	n/a	0	0	0
2766628	WORD	wordpools/wasnorm_wordpool_576.txt	LTP360	ltpFR2	0	12	DAUGHTER	442	n/a	n/a	0	0	0
2769052	WORD	wordpools/wasnorm_wordpool_576.txt	LTP360	ltpFR2	0	12	BROTHER	179	n/a	n/a	0	0	0
2771611	WORD	wordpools/wasnorm_wordpool_576.txt	LTP360	ltpFR2	0	12	SMOG	1330	n/a	n/a	0	0	0
2774302	WORD	wordpools/wasnorm_wordpool_576.txt	LTP360	ltpFR2	0	12	BACON	67	n/a	n/a	0	0	0
2776827	WORD	wordpools/wasnorm_wordpool_576.txt	LTP360	ltpFR2	0	12	CASKET	255	n/a	n/a	0	0	0
2779453	WORD	wordpools/wasnorm_wordpool_576.txt	LTP360	ltpFR2	0	12	TART	1436	n/a	n/a	0	0	0
2782178	WORD	wordpools/wasnorm_wordpool_576.txt	LTP360	ltpFR2	0	12	SWIMMER	1420	n/a	n/a	0	0	0
2784787	WORD	wordpools/wasnorm_wordpool_576.txt	LTP360	ltpFR2	0	12	ISLAND	745	n/a	n/a	0	0	0
2787580	WORD	wordpools/wasnorm_wordpool_576.txt	LTP360	ltpFR2	0	12	SPOOL	1356	n/a	n/a	0	0	0
2790154	WORD	wordpools/wasnorm_wordpool_576.txt	LTP360	ltpFR2	0	12	FLAG	573	n/a	n/a	0	0	0
2792812	WORD	wordpools/wasnorm_wordpool_576.txt	LTP360	ltpFR2	0	12	BRACES	164	n/a	n/a	0	0	0
2795522	WORD	wordpools/wasnorm_wordpool_576.txt	LTP360	ltpFR2	0	12	TREAT	1501	n/a	n/a	0	0	0
2798012	WORD	wordpools/wasnorm_wordpool_576.txt	LTP360	ltpFR2	0	12	RUG	1215	n/a	n/a	0	0	0
2800589	WORD	wordpools/wasnorm_wordpool_576.txt	LTP360	ltpFR2	0	12	IGLOO	734	n/a	n/a	0	0	0
2802193	START	n/a	LTP360	ltpFR2	0	n/a	n/a	n/a	17	n/a	n/a	n/a	n/a
2803278	DISTRACTOR	n/a	LTP360	ltpFR2	0	12	n/a	n/a	n/a	n/a	0	0	0
2803280	PROB	n/a	LTP360	ltpFR2	0	n/a	n/a	n/a	17	14	3	5	6
2806692	PROB	n/a	LTP360	ltpFR2	0	n/a	n/a	n/a	17	11	3	5	3
2809098	PROB	n/a	LTP360	ltpFR2	0	n/a	n/a	n/a	17	10	1	1	8
2810370	PROB	n/a	LTP360	ltpFR2	0	n/a	n/a	n/a	17	18	6	6	6
2814081	PROB	n/a	LTP360	ltpFR2	0	n/a	n/a	n/a	17	18	4	9	5
2816957	PROB	n/a	LTP360	ltpFR2	0	n/a	n/a	n/a	17	18	1	9	8
2818480	PROB	n/a	LTP360	ltpFR2	0	n/a	n/a	n/a	17	21	5	8	8
2821137	PROB	n/a	LTP360	ltpFR2	0	n/a	n/a	n/a	17	10	2	4	4
2823429	PROB	n/a	LTP360	ltpFR2	0	n/a	n/a	n/a	17	15	5	2	8
2825014	STOP	n/a	LTP360	ltpFR2	0	n/a	n/a	n/a	17	n/a	n/a	n/a	n/a
2827960	REC_START	n/a	LTP360	ltpFR2	0	12	n/a	n/a	n/a	n/a	0	0	0
2829161	REC_WORD	wordpools/wasnorm_wordpool_576.txt	LTP360	ltpFR2	0	12	CASKET	255	n/a	n/a	0	0	0
2830607	REC_WORD	wordpools/wasnorm_wordpool_576.txt	LTP360	ltpFR2	0	12	MARINE	869	n/a	n/a	0	0	0
2832979	REC_WORD	wordpools/wasnorm_wordpool_576.txt	LTP360	ltpFR2	0	12	CEILING	265	n/a	n/a	0	0	0
2834805	REC_WORD	wordpools/wasnorm_wordpool_576.txt	LTP360	ltpFR2	0	12	TILE	1468	n/a	n/a	0	0	0
2836331	REC_WORD	wordpools/wasnorm_wordpool_576.txt	LTP360	ltpFR2	0	12	YOLK	1633	n/a	n/a	0	0	0
2837762	REC_WORD	wordpools/wasnorm_wordpool_576.txt	LTP360	ltpFR2	0	12	ROOSTER	1209	n/a	n/a	0	0	0
2854815	REC_WORD	wordpools/wasnorm_wordpool_576.txt	LTP360	ltpFR2	0	12	SPOOL	1356	n/a	n/a	0	0	0
2979032	DISTRACTOR	n/a	LTP360	ltpFR2	0	13	n/a	n/a	n/a	n/a	0	0	0
2979032	START	n/a	LTP360	ltpFR2	0	n/a	n/a	n/a	18	n/a	n/a	n/a	n/a
2979049	PROB	n/a	LTP360	ltpFR2	0	n/a	n/a	n/a	18	5	3	1	1
2980789	PROB	n/a	LTP360	ltpFR2	0	n/a	n/a	n/a	18	9	1	2	6
2983028	PROB	n/a	LTP360	ltpFR2	0	n/a	n/a	n/a	18	20	7	8	5
2985219	PROB	n/a	LTP360	ltpFR2	0	n/a	n/a	n/a	18	9	5	1	3
2987544	PROB	n/a	LTP360	ltpFR2	0	n/a	n/a	n/a	18	15	6	8	1
2989800	PROB	n/a	LTP360	ltpFR2	0	n/a	n/a	n/a	18	25	7	8	8
2992527	PROB	n/a	LTP360	ltpFR2	0	n/a	n/a	n/a	18	11	4	6	1
2993714	PROB	n/a	LTP360	ltpFR2	0	n/a	n/a	n/a	18	11	6	3	2
2995637	PROB	n/a	LTP360	ltpFR2	0	n/a	n/a	n/a	18	9	2	2	5
2997258	PROB	n/a	LTP360	ltpFR2	0	n/a	n/a	n/a	18	18	3	9	6
3003032	STOP	n/a	LTP360	ltpFR2	0	n/a	n/a	n/a	18	n/a	n/a	n/a	n/a
3004046	WORD	wordpools/wasnorm_wordpool_576.txt	LTP360	ltpFR2	0	13	BEAVER	109	n/a	n/a	0	0	0
3006805	WORD	wordpools/wasnorm_wordpool_576.txt	LTP360	ltpFR2	0	13	RUST	1219	n/a	n/a	0	0	0
3009482	WORD	wordpools/wasnorm_wordpool_576.txt	LTP360	ltpFR2	0	13	SHELTER	1282	n/a	n/a	0	0	0
3011922	WORD	wordpools/wasnorm_wordpool_576.txt	LTP360	ltpFR2	0	13	PEPPER	1047	n/a	n/a	0	0	0
3014582	WORD	wordpools/wasnorm_wordpool_576.txt	LTP360	ltpFR2	0	13	CLAMP	316	n/a	n/a	0	0	0
3017055	WORD	wordpools/wasnorm_wordpool_576.txt	LTP360	ltpFR2	0	13	GRILL	661	n/a	n/a	0	0	0
3019831	WORD	wordpools/wasnorm_wordpool_576.txt	LTP360	ltpFR2	0	13	SCALLOP	1242	n/a	n/a	0	0	0
3022574	WORD	wordpools/wasnorm_wordpool_576.txt	LTP360	ltpFR2	0	13	VALLEY	1545	n/a	n/a	0	0	0
3025367	WORD	wordpools/wasnorm_wordpool_576.txt	LTP360	ltpFR2	0	13	STREAM	1392	n/a	n/a	0	0	0
3027991	WORD	wordpools/wasnorm_wordpool_576.txt	LTP360	ltpFR2	0	13	HATCHET	691	n/a	n/a	0	0	0
3030516	WORD	wordpools/wasnorm_wordpool_576.txt	LTP360	ltpFR2	0	13	BINDER	127	n/a	n/a	0	0	0
3033174	WORD	wordpools/wasnorm_wordpool_576.txt	LTP360	ltpFR2	0	13	SKETCH	1315	n/a	n/a	0	0	0
3035633	WORD	wordpools/wasnorm_wordpool_576.txt	LTP360	ltpFR2	0	13	JAPAN	749	n/a	n/a	0	0	0
3038442	WORD	wordpools/wasnorm_wordpool_576.txt	LTP360	ltpFR2	0	13	SUMMIT	1405	n/a	n/a	0	0	0
3041250	WORD	wordpools/wasnorm_wordpool_576.txt	LTP360	ltpFR2	0	13	LEADER	807	n/a	n/a	0	0	0
3043892	WORD	wordpools/wasnorm_wordpool_576.txt	LTP360	ltpFR2	0	13	ANTLER	29	n/a	n/a	0	0	0
3046535	WORD	wordpools/wasnorm_wordpool_576.txt	LTP360	ltpFR2	0	13	SWAMP	1416	n/a	n/a	0	0	0
3049126	WORD	wordpools/wasnorm_wordpool_576.txt	LTP360	ltpFR2	0	13	SHELF	1280	n/a	n/a	0	0	0
3051818	WORD	wordpools/wasnorm_wordpool_576.txt	LTP360	ltpFR2	0	13	JOURNAL	760	n/a	n/a	0	0	0
3054394	WORD	wordpools/wasnorm_wordpool_576.txt	LTP360	ltpFR2	0	13	DRAWING	494	n/a	n/a	0	0	0
3057185	WORD	wordpools/wasnorm_wordpool_576.txt	LTP360	ltpFR2	0	13	RAZOR	1171	n/a	n/a	0	0	0
3059827	WORD	wordpools/wasnorm_wordpool_576.txt	LTP360	ltpFR2	0	13	RAFT	1159	n/a	n/a	0	0	0
3062302	WORD	wordpools/wasnorm_wordpool_576.txt	LTP360	ltpFR2	0	13	WRIST	1626	n/a	n/a	0	0	0
3064960	WORD	wordpools/wasnorm_wordpool_576.txt	LTP360	ltpFR2	0	13	ELBOW	520	n/a	n/a	0	0	0
3066567	START	n/a	LTP360	ltpFR2	0	n/a	n/a	n/a	19	n/a	n/a	n/a	n/a
3067703	DISTRACTOR	n/a	LTP360	ltpFR2	0	13	n/a	n/a	n/a	n/a	0	0	0
3067720	PROB	n/a	LTP360	ltpFR2	0	n/a	n/a	n/a	19	14	6	3	5
3070997	PROB	n/a	LTP360	ltpFR2	0	n/a	n/a	n/a	19	12	3	5	4
3074107	PROB	n/a	LTP360	ltpFR2	0	n/a	n/a	n/a	19	16	1	8	7
3076147	PROB	n/a	LTP360	ltpFR2	0	n/a	n/a	n/a	19	8	2	2	4
3078756	PROB	n/a	LTP360	ltpFR2	0	n/a	n/a	n/a	19	13	5	4	4
3080795	PROB	n/a	LTP360	ltpFR2	0	n/a	n/a	n/a	19	15	2	6	7
3085209	PROB	n/a	LTP360	ltpFR2	0	n/a	n/a	n/a	19	18	7	8	3
3090566	STOP	n/a	LTP360	ltpFR2	0	n/a	n/a	n/a	19	n/a	n/a	n/a	n/a
3092351	REC_START	n/a	LTP360	ltpFR2	0	13	n/a	n/a	n/a	n/a	0	0	0
3093434	REC_WORD	wordpools/wasnorm_wordpool_576.txt	LTP360	ltpFR2	0	13	SWAMP	1416	n/a	n/a	0	0	0
3095012	REC_WORD	wordpools/wasnorm_wordpool_576.txt	LTP360	ltpFR2	0	13	JOURNAL	760	n/a	n/a	0	0	0
3096451	REC_WORD	wordpools/wasnorm_wordpool_576.txt	LTP360	ltpFR2	0	13	DRAWING	494	n/a	n/a	0	0	0
3100675	REC_WORD	wordpools/wasnorm_wordpool_576.txt	LTP360	ltpFR2	0	13	WRIST	1626	n/a	n/a	0	0	0
3102023	REC_WORD	wordpools/wasnorm_wordpool_576.txt	LTP360	ltpFR2	0	13	ELBOW	520	n/a	n/a	0	0	0
3236433	WORD	wordpools/wasnorm_wordpool_576.txt	LTP360	ltpFR2	0	14	SPIDER	1351	n/a	n/a	0	0	0
3239174	WORD	wordpools/wasnorm_wordpool_576.txt	LTP360	ltpFR2	0	14	HELMET	702	n/a	n/a	0	0	0
3241767	WORD	wordpools/wasnorm_wordpool_576.txt	LTP360	ltpFR2	0	14	COLLEGE	346	n/a	n/a	0	0	0
3244409	WORD	wordpools/wasnorm_wordpool_576.txt	LTP360	ltpFR2	0	14	CELLAR	267	n/a	n/a	0	0	0
3247067	WORD	wordpools/wasnorm_wordpool_576.txt	LTP360	ltpFR2	0	14	HEART	697	n/a	n/a	0	0	0
3249593	WORD	wordpools/wasnorm_wordpool_576.txt	LTP360	ltpFR2	0	14	RELISH	1183	n/a	n/a	0	0	0
3252016	WORD	wordpools/wasnorm_wordpool_576.txt	LTP360	ltpFR2	0	14	ROBBER	1197	n/a	n/a	0	0	0
3254825	WORD	wordpools/wasnorm_wordpool_576.txt	LTP360	ltpFR2	0	14	QUEEN	1149	n/a	n/a	0	0	0
3257468	WORD	wordpools/wasnorm_wordpool_576.txt	LTP360	ltpFR2	0	14	VIKING	1565	n/a	n/a	0	0	0
3259942	WORD	wordpools/wasnorm_wordpool_576.txt	LTP360	ltpFR2	0	14	BUG	187	n/a	n/a	0	0	0
3262652	WORD	wordpools/wasnorm_wordpool_576.txt	LTP360	ltpFR2	0	14	FRIAR	605	n/a	n/a	0	0	0
3265209	WORD	wordpools/wasnorm_wordpool_576.txt	LTP360	ltpFR2	0	14	CROSS	413	n/a	n/a	0	0	0
3267634	WORD	wordpools/wasnorm_wordpool_576.txt	LTP360	ltpFR2	0	14	XEROX	1628	n/a	n/a	0	0	0
3270208	WORD	wordpools/wasnorm_wordpool_576.txt	LTP360	ltpFR2	0	14	LODGE	839	n/a	n/a	0	0	0
3272984	WORD	wordpools/wasnorm_wordpool_576.txt	LTP360	ltpFR2	0	14	SEAGULL	1261	n/a	n/a	0	0	0
3275677	WORD	wordpools/wasnorm_wordpool_576.txt	LTP360	ltpFR2	0	14	BLOUSE	139	n/a	n/a	0	0	0
3278318	WORD	wordpools/wasnorm_wordpool_576.txt	LTP360	ltpFR2	0	14	BARLEY	88	n/a	n/a	0	0	0
3281127	WORD	wordpools/wasnorm_wordpool_576.txt	LTP360	ltpFR2	0	14	WIFE	1609	n/a	n/a	0	0	0
3283753	WORD	wordpools/wasnorm_wordpool_576.txt	LTP360	ltpFR2	0	14	SPOUSE	1358	n/a	n/a	0	0	0
3286512	WORD	wordpools/wasnorm_wordpool_576.txt	LTP360	ltpFR2	0	14	REPORT	1184	n/a	n/a	0	0	0
3289069	WORD	wordpools/wasnorm_wordpool_576.txt	LTP360	ltpFR2	0	14	LABEL	790	n/a	n/a	0	0	0
3291578	WORD	wordpools/wasnorm_wordpool_576.txt	LTP360	ltpFR2	0	14	TURTLE	1522	n/a	n/a	0	0	0
3294102	WORD	wordpools/wasnorm_wordpool_576.txt	LTP360	ltpFR2	0	14	SADDLE	1221	n/a	n/a	0	0	0
3296628	WORD	wordpools/wasnorm_wordpool_576.txt	LTP360	ltpFR2	0	14	DENIM	446	n/a	n/a	0	0	0
3298233	START	n/a	LTP360	ltpFR2	0	n/a	n/a	n/a	20	n/a	n/a	n/a	n/a
3299257	DISTRACTOR	n/a	LTP360	ltpFR2	0	14	n/a	n/a	n/a	n/a	0	0	0
3299269	PROB	n/a	LTP360	ltpFR2	0	n/a	n/a	n/a	20	12	5	1	6
3300908	PROB	n/a	LTP360	ltpFR2	0	n/a	n/a	n/a	20	4	1	1	2
3302179	PROB	n/a	LTP360	ltpFR2	0	n/a	n/a	n/a	20	11	6	2	3
3304521	PROB	n/a	LTP360	ltpFR2	0	n/a	n/a	n/a	20	4	1	2	1
3305857	PROB	n/a	LTP360	ltpFR2	0	n/a	n/a	n/a	20	8	6	1	1
3307195	PROB	n/a	LTP360	ltpFR2	0	n/a	n/a	n/a	20	24	8	8	8
3310104	PROB	n/a	LTP360	ltpFR2	0	n/a	n/a	n/a	20	16	1	6	9
3312278	PROB	n/a	LTP360	ltpFR2	0	n/a	n/a	n/a	20	18	5	9	4
3316274	PROB	n/a	LTP360	ltpFR2	0	n/a	n/a	n/a	20	19	3	9	7
3319000	PROB	n/a	LTP360	ltpFR2	0	n/a	n/a	n/a	20	18	9	8	1
3322233	STOP	n/a	LTP360	ltpFR2	0	n/a	n/a	n/a	20	n/a	n/a	n/a	n/a
3324117	REC_START	n/a	LTP360	ltpFR2	0	14	n/a	n/a	n/a	n/a	0	0	0
3325155	REC_WORD	wordpools/wasnorm_wordpool_576.txt	LTP360	ltpFR2	0	14	XEROX	1628	n/a	n/a	0	0	0
3326742	REC_WORD	wordpools/wasnorm_wordpool_576.txt	LTP360	ltpFR2	0	14	LABEL	790	n/a	n/a	0	0	0
3338504	REC_WORD	wordpools/wasnorm_wordpool_576.txt	LTP360	ltpFR2	0	14	SPIDER	1351	n/a	n/a	0	0	0
3340879	REC_WORD	wordpools/wasnorm_wordpool_576.txt	LTP360	ltpFR2	0	14	COLLEGE	346	n/a	n/a	0	0	0
3342766	REC_WORD	wordpools/wasnorm_wordpool_576.txt	LTP360	ltpFR2	0	14	CELLAR	267	n/a	n/a	0	0	0
3348043	REC_WORD	wordpools/wasnorm_wordpool_576.txt	LTP360	ltpFR2	0	14	HEART	697	n/a	n/a	0	0	0
3349569	REC_WORD	wordpools/wasnorm_wordpool_576.txt	LTP360	ltpFR2	0	14	HELMET	702	n/a	n/a	0	0	0
3511558	DISTRACTOR	n/a	LTP360	ltpFR2	0	15	n/a	n/a	n/a	n/a	0	0	0
3511558	START	n/a	LTP360	ltpFR2	0	n/a	n/a	n/a	21	n/a	n/a	n/a	n/a
3511574	PROB	n/a	LTP360	ltpFR2	0	n/a	n/a	n/a	21	8	4	2	2
3513128	PROB	n/a	LTP360	ltpFR2	0	n/a	n/a	n/a	21	18	9	2	7
3516121	PROB	n/a	LTP360	ltpFR2	0	n/a	n/a	n/a	21	10	3	5	2
3518781	PROB	n/a	LTP360	ltpFR2	0	n/a	n/a	n/a	21	21	9	9	3
3520704	PROB	n/a	LTP360	ltpFR2	0	n/a	n/a	n/a	21	8	2	2	4
3522443	PROB	n/a	LTP360	ltpFR2	0	n/a	n/a	n/a	21	16	9	6	1
3523963	PROB	n/a	LTP360	ltpFR2	0	n/a	n/a	n/a	21	17	8	7	2
3525870	PROB	n/a	LTP360	ltpFR2	0	n/a	n/a	n/a	21	13	1	3	8
3528311	PROB	n/a	LTP360	ltpFR2	0	n/a	n/a	n/a	21	14	3	5	6
3530703	PROB	n/a	LTP360	ltpFR2	0	n/a	n/a	n/a	21	7	4	2	1
3532341	PROB	n/a	LTP360	ltpFR2	0	n/a	n/a	n/a	21	16	4	7	5
3534756	STOP	n/a	LTP360	ltpFR2	0	n/a	n/a	n/a	21	n/a	n/a	n/a	n/a
3536639	WORD	wordpools/wasnorm_wordpool_576.txt	LTP360	ltpFR2	0	15	LIVER	833	n/a	n/a	0	0	0
3539381	WORD	wordpools/wasnorm_wordpool_576.txt	LTP360	ltpFR2	0	15	STOMACH	1384	n/a	n/a	0	0	0
3541888	WORD	wordpools/wasnorm_wordpool_576.txt	LTP360	ltpFR2	0	15	ICEBERG	731	n/a	n/a	0	0	0
3544698	WORD	wordpools/wasnorm_wordpool_576.txt	LTP360	ltpFR2	0	15	BEEF	113	n/a	n/a	0	0	0
3547407	WORD	wordpools/wasnorm_wordpool_576.txt	LTP360	ltpFR2	0	15	SHOVEL	1295	n/a	n/a	0	0	0
3550215	WORD	wordpools/wasnorm_wordpool_576.txt	LTP360	ltpFR2	0	15	KITCHEN	778	n/a	n/a	0	0	0
3552857	WORD	wordpools/wasnorm_wordpool_576.txt	LTP360	ltpFR2	0	15	APPLE	33	n/a	n/a	0	0	0
3555366	WORD	wordpools/wasnorm_wordpool_576.txt	LTP360	ltpFR2	0	15	ORANGE	980	n/a	n/a	0	0	0
3558157	WORD	wordpools/wasnorm_wordpool_576.txt	LTP360	ltpFR2	0	15	BUBBLE	183	n/a	n/a	0	0	0
3560633	WORD	wordpools/wasnorm_wordpool_576.txt	LTP360	ltpFR2	0	15	BANQUET	86	n/a	n/a	0	0	0
3563140	WORD	wordpools/wasnorm_wordpool_576.txt	LTP360	ltpFR2	0	15	STAMP	1370	n/a	n/a	0	0	0
3565700	WORD	wordpools/wasnorm_wordpool_576.txt	LTP360	ltpFR2	0	15	MAMMAL	861	n/a	n/a	0	0	0
3568307	WORD	wordpools/wasnorm_wordpool_576.txt	LTP360	ltpFR2	0	15	MEDAL	885	n/a	n/a	0	0	0
3570832	WORD	wordpools/wasnorm_wordpool_576.txt	LTP360	ltpFR2	0	15	FREEZER	604	n/a	n/a	0	0	0
3573441	WORD	wordpools/wasnorm_wordpool_576.txt	LTP360	ltpFR2	0	15	LEG	809	n/a	n/a	0	0	0
3576015	WORD	wordpools/wasnorm_wordpool_576.txt	LTP360	ltpFR2	0	15	BRAKE	166	n/a	n/a	0	0	0
3578558	WORD	wordpools/wasnorm_wordpool_576.txt	LTP360	ltpFR2	0	15	BLADE	134	n/a	n/a	0	0	0
3580965	WORD	wordpools/wasnorm_wordpool_576.txt	LTP360	ltpFR2	0	15	BALLOON	75	n/a	n/a	0	0	0
3583725	WORD	wordpools/wasnorm_wordpool_576.txt	LTP360	ltpFR2	0	15	TURKEY	1520	n/a	n/a	0	0	0
3586282	WORD	wordpools/wasnorm_wordpool_576.txt	LTP360	ltpFR2	0	15	HAND	683	n/a	n/a	0	0	0
3588874	WORD	wordpools/wasnorm_wordpool_576.txt	LTP360	ltpFR2	0	15	KNAPSACK	783	n/a	n/a	0	0	0
3591550	WORD	wordpools/wasnorm_wordpool_576.txt	LTP360	ltpFR2	0	15	PIGMENT	1066	n/a	n/a	0	0	0
3594074	WORD	wordpools/wasnorm_wordpool_576.txt	LTP360	ltpFR2	0	15	VELVET	1555	n/a	n/a	0	0	0
3596883	WORD	wordpools/wasnorm_wordpool_576.txt	LTP360	ltpFR2	0	15	SUNRISE	1407	n/a	n/a	0	0	0
3598489	START	n/a	LTP360	ltpFR2	0	n/a	n/a	n/a	22	n/a	n/a	n/a	n/a
3599504	DISTRACTOR	n/a	LTP360	ltpFR2	0	15	n/a	n/a	n/a	n/a	0	0	0
3599509	PROB	n/a	LTP360	ltpFR2	0	n/a	n/a	n/a	22	8	3	3	2
3601180	PROB	n/a	LTP360	ltpFR2	0	n/a	n/a	n/a	22	20	7	8	5
3603338	PROB	n/a	LTP360	ltpFR2	0	n/a	n/a	n/a	22	14	7	6	1
3605143	PROB	n/a	LTP360	ltpFR2	0	n/a	n/a	n/a	22	15	9	2	4
3608303	PROB	n/a	LTP360	ltpFR2	0	n/a	n/a	n/a	22	20	8	3	9
3610628	PROB	n/a	LTP360	ltpFR2	0	n/a	n/a	n/a	22	12	4	5	3
3612801	PROB	n/a	LTP360	ltpFR2	0	n/a	n/a	n/a	22	16	4	8	4
3614808	PROB	n/a	LTP360	ltpFR2	0	n/a	n/a	n/a	22	20	4	7	9
3617701	PROB	n/a	LTP360	ltpFR2	0	n/a	n/a	n/a	22	14	2	5	7
3619557	PROB	n/a	LTP360	ltpFR2	0	n/a	n/a	n/a	22	10	6	2	2
3621165	STOP	n/a	LTP360	ltpFR2	0	n/a	n/a	n/a	22	n/a	n/a	n/a	n/a
3624424	REC_START	n/a	LTP360	ltpFR2	0	15	n/a	n/a	n/a	n/a	0	0	0
3625508	REC_WORD	wordpools/wasnorm_wordpool_576.txt	LTP360	ltpFR2	0	15	KNAPSACK	783	n/a	n/a	0	0	0
3627314	REC_WORD	wordpools/wasnorm_wordpool_576.txt	LTP360	ltpFR2	0	15	KNAPSACK	783	n/a	n/a	0	0	0
3629110	REC_WORD	wordpools/wasnorm_wordpool_576.txt	LTP360	ltpFR2	0	15	VELVET	1555	n/a	n/a	0	0	0
3630803	REC_WORD	wordpools/wasnorm_wordpool_576.txt	LTP360	ltpFR2	0	15	PIGMENT	1066	n/a	n/a	0	0	0
3632671	REC_WORD	wordpools/wasnorm_wordpool_576.txt	LTP360	ltpFR2	0	15	ARM	38	n/a	n/a	0	0	0
3634243	REC_WORD	wordpools/wasnorm_wordpool_576.txt	LTP360	ltpFR2	0	15	LEG	809	n/a	n/a	0	0	0
3636284	REC_WORD	wordpools/wasnorm_wordpool_576.txt	LTP360	ltpFR2	0	15	LIVER	833	n/a	n/a	0	0	0
3637928	REC_WORD	wordpools/wasnorm_wordpool_576.txt	LTP360	ltpFR2	0	15	STOMACH	1384	n/a	n/a	0	0	0
3641162	REC_WORD	wordpools/wasnorm_wordpool_576.txt	LTP360	ltpFR2	0	15	SUNRISE	1407	n/a	n/a	0	0	0
3645472	REC_WORD	wordpools/wasnorm_wordpool_576.txt	LTP360	ltpFR2	0	15	MAMMAL	861	n/a	n/a	0	0	0
3769376	DISTRACTOR	n/a	LTP360	ltpFR2	0	16	n/a	n/a	n/a	n/a	0	0	0
3769376	START	n/a	LTP360	ltpFR2	0	n/a	n/a	n/a	23	n/a	n/a	n/a	n/a
3769393	PROB	n/a	LTP360	ltpFR2	0	n/a	n/a	n/a	23	15	9	5	1
3771080	PROB	n/a	LTP360	ltpFR2	0	n/a	n/a	n/a	23	6	2	3	1
3772737	PROB	n/a	LTP360	ltpFR2	0	n/a	n/a	n/a	23	12	8	2	2
3775294	PROB	n/a	LTP360	ltpFR2	0	n/a	n/a	n/a	23	18	5	9	4
3778019	PROB	n/a	LTP360	ltpFR2	0	n/a	n/a	n/a	23	11	5	4	2
3779442	PROB	n/a	LTP360	ltpFR2	0	n/a	n/a	n/a	23	12	1	2	9
3780679	PROB	n/a	LTP360	ltpFR2	0	n/a	n/a	n/a	23	19	6	7	6
3782835	PROB	n/a	LTP360	ltpFR2	0	n/a	n/a	n/a	23	18	7	4	7
3784942	PROB	n/a	LTP360	ltpFR2	0	n/a	n/a	n/a	23	11	1	5	5
3786096	PROB	n/a	LTP360	ltpFR2	0	n/a	n/a	n/a	23	17	6	4	7
3788571	PROB	n/a	LTP360	ltpFR2	0	n/a	n/a	n/a	23	18	5	8	5
3789875	PROB	n/a	LTP360	ltpFR2	0	n/a	n/a	n/a	23	14	2	5	7
3792018	STOP	n/a	LTP360	ltpFR2	0	n/a	n/a	n/a	23	n/a	n/a	n/a	n/a
3794440	WORD	wordpools/wasnorm_wordpool_576.txt	LTP360	ltpFR2	0	16	LETTUCE	814	n/a	n/a	0	0	0
3796864	WORD	wordpools/wasnorm_wordpool_576.txt	LTP360	ltpFR2	0	16	DRESSER	496	n/a	n/a	0	0	0
3799524	WORD	wordpools/wasnorm_wordpool_576.txt	LTP360	ltpFR2	0	16	HOSTESS	723	n/a	n/a	0	0	0
3802332	WORD	wordpools/wasnorm_wordpool_576.txt	LTP360	ltpFR2	0	16	TABLET	1427	n/a	n/a	0	0	0
3805057	WORD	wordpools/wasnorm_wordpool_576.txt	LTP360	ltpFR2	0	16	LOFT	840	n/a	n/a	0	0	0
3807700	WORD	wordpools/wasnorm_wordpool_576.txt	LTP360	ltpFR2	0	16	STAPLE	1371	n/a	n/a	0	0	0
3810342	WORD	wordpools/wasnorm_wordpool_576.txt	LTP360	ltpFR2	0	16	BULLET	194	n/a	n/a	0	0	0
3813000	WORD	wordpools/wasnorm_wordpool_576.txt	LTP360	ltpFR2	0	16	HANDBAG	684	n/a	n/a	0	0	0
3815709	WORD	wordpools/wasnorm_wordpool_576.txt	LTP360	ltpFR2	0	16	APRON	35	n/a	n/a	0	0	0
3818435	WORD	wordpools/wasnorm_wordpool_576.txt	LTP360	ltpFR2	0	16	NEUTRON	947	n/a	n/a	0	0	0
3821142	WORD	wordpools/wasnorm_wordpool_576.txt	LTP360	ltpFR2	0	16	ZEBRA	1635	n/a	n/a	0	0	0
3823918	WORD	wordpools/wasnorm_wordpool_576.txt	LTP360	ltpFR2	0	16	HORSE	719	n/a	n/a	0	0	0
3826344	WORD	wordpools/wasnorm_wordpool_576.txt	LTP360	ltpFR2	0	16	FIDDLE	561	n/a	n/a	0	0	0
3828985	WORD	wordpools/wasnorm_wordpool_576.txt	LTP360	ltpFR2	0	16	SAUSAGE	1238	n/a	n/a	0	0	0
3831410	WORD	wordpools/wasnorm_wordpool_576.txt	LTP360	ltpFR2	0	16	MATTRESS	879	n/a	n/a	0	0	0
3834051	WORD	wordpools/wasnorm_wordpool_576.txt	LTP360	ltpFR2	0	16	CARROT	249	n/a	n/a	0	0	0
3836610	WORD	wordpools/wasnorm_wordpool_576.txt	LTP360	ltpFR2	0	16	DANCER	437	n/a	n/a	0	0	0
3839201	WORD	wordpools/wasnorm_wordpool_576.txt	LTP360	ltpFR2	0	16	SCARF	1246	n/a	n/a	0	0	0
3841843	WORD	wordpools/wasnorm_wordpool_576.txt	LTP360	ltpFR2	0	16	WASHER	1592	n/a	n/a	0	0	0
3844536	WORD	wordpools/wasnorm_wordpool_576.txt	LTP360	ltpFR2	0	16	BANKER	84	n/a	n/a	0	0	0
3847311	WORD	wordpools/wasnorm_wordpool_576.txt	LTP360	ltpFR2	0	16	SODA	1341	n/a	n/a	0	0	0
3849835	WORD	wordpools/wasnorm_wordpool_576.txt	LTP360	ltpFR2	0	16	PERMIT	1051	n/a	n/a	0	0	0
3852545	WORD	wordpools/wasnorm_wordpool_576.txt	LTP360	ltpFR2	0	16	WAITER	1580	n/a	n/a	0	0	0
3855153	WORD	wordpools/wasnorm_wordpool_576.txt	LTP360	ltpFR2	0	16	THIEF	1456	n/a	n/a	0	0	0
3856759	START	n/a	LTP360	ltpFR2	0	n/a	n/a	n/a	24	n/a	n/a	n/a	n/a
3857943	DISTRACTOR	n/a	LTP360	ltpFR2	0	16	n/a	n/a	n/a	n/a	0	0	0
3857945	PROB	n/a	LTP360	ltpFR2	0	n/a	n/a	n/a	24	17	9	3	5
3860638	PROB	n/a	LTP360	ltpFR2	0	n/a	n/a	n/a	24	21	4	9	8
3863397	PROB	n/a	LTP360	ltpFR2	0	n/a	n/a	n/a	24	17	6	3	8
3865302	PROB	n/a	LTP360	ltpFR2	0	n/a	n/a	n/a	24	23	9	5	9
3867827	PROB	n/a	LTP360	ltpFR2	0	n/a	n/a	n/a	24	25	8	8	9
3871523	PROB	n/a	LTP360	ltpFR2	0	n/a	n/a	n/a	24	19	2	9	8
3873311	PROB	n/a	LTP360	ltpFR2	0	n/a	n/a	n/a	24	18	2	9	7
3876154	PROB	n/a	LTP360	ltpFR2	0	n/a	n/a	n/a	24	14	5	6	3
3880758	STOP	n/a	LTP360	ltpFR2	0	n/a	n/a	n/a	24	n/a	n/a	n/a	n/a
3882560	REC_START	n/a	LTP360	ltpFR2	0	16	n/a	n/a	n/a	n/a	0	0	0
3883438	REC_WORD	wordpools/wasnorm_wordpool_576.txt	LTP360	ltpFR2	0	16	LETTUCE	814	n/a	n/a	0	0	0
3884778	REC_WORD	wordpools/wasnorm_wordpool_576.txt	LTP360	ltpFR2	0	16	FIDDLE	561	n/a	n/a	0	0	0
3886151	REC_WORD	wordpools/wasnorm_wordpool_576.txt	LTP360	ltpFR2	0	16	SAUSAGE	1238	n/a	n/a	0	0	0
3894328	REC_WORD	wordpools/wasnorm_wordpool_576.txt	LTP360	ltpFR2	0	16	WAITER	1580	n/a	n/a	0	0	0
3959089	REST_REWET	n/a	LTP360	ltpFR2	0	16	n/a	n/a	n/a	n/a	0	0	0
4144138	DISTRACTOR	n/a	LTP360	ltpFR2	0	17	n/a	n/a	n/a	n/a	0	0	0
4144139	START	n/a	LTP360	ltpFR2	0	n/a	n/a	n/a	25	n/a	n/a	n/a	n/a
4144155	PROB	n/a	LTP360	ltpFR2	0	n/a	n/a	n/a	25	16	7	5	4
4146948	PROB	n/a	LTP360	ltpFR2	0	n/a	n/a	n/a	25	13	3	4	6
4149171	PROB	n/a	LTP360	ltpFR2	0	n/a	n/a	n/a	25	13	7	1	5
4151597	PROB	n/a	LTP360	ltpFR2	0	n/a	n/a	n/a	25	10	4	4	2
4153486	PROB	n/a	LTP360	ltpFR2	0	n/a	n/a	n/a	25	10	4	5	1
4154740	PROB	n/a	LTP360	ltpFR2	0	n/a	n/a	n/a	25	15	6	8	1
4157214	PROB	n/a	LTP360	ltpFR2	0	n/a	n/a	n/a	25	10	2	1	7
4158570	PROB	n/a	LTP360	ltpFR2	0	n/a	n/a	n/a	25	8	2	3	3
4161010	PROB	n/a	LTP360	ltpFR2	0	n/a	n/a	n/a	25	17	4	4	9
4163636	PROB	n/a	LTP360	ltpFR2	0	n/a	n/a	n/a	25	9	2	5	2
4165642	PROB	n/a	LTP360	ltpFR2	0	n/a	n/a	n/a	25	8	3	4	1
4167702	STOP	n/a	LTP360	ltpFR2	0	n/a	n/a	n/a	25	n/a	n/a	n/a	n/a
4168986	WORD	wordpools/wasnorm_wordpool_576.txt	LTP360	ltpFR2	0	17	CANDY	230	n/a	n/a	0	0	0
4171545	WORD	wordpools/wasnorm_wordpool_576.txt	LTP360	ltpFR2	0	17	KEEPER	769	n/a	n/a	0	0	0
4174052	WORD	wordpools/wasnorm_wordpool_576.txt	LTP360	ltpFR2	0	17	BRICK	172	n/a	n/a	0	0	0
4176828	WORD	wordpools/wasnorm_wordpool_576.txt	LTP360	ltpFR2	0	17	PIMPLE	1071	n/a	n/a	0	0	0
4179571	WORD	wordpools/wasnorm_wordpool_576.txt	LTP360	ltpFR2	0	17	CRUTCH	417	n/a	n/a	0	0	0
4182095	WORD	wordpools/wasnorm_wordpool_576.txt	LTP360	ltpFR2	0	17	COD	340	n/a	n/a	0	0	0
4184738	WORD	wordpools/wasnorm_wordpool_576.txt	LTP360	ltpFR2	0	17	STATUE	1374	n/a	n/a	0	0	0
4187295	WORD	wordpools/wasnorm_wordpool_576.txt	LTP360	ltpFR2	0	17	QUARTER	1148	n/a	n/a	0	0	0
4189704	WORD	wordpools/wasnorm_wordpool_576.txt	LTP360	ltpFR2	0	17	PLAZA	1088	n/a	n/a	0	0	0
4192496	WORD	wordpools/wasnorm_wordpool_576.txt	LTP360	ltpFR2	0	17	SHOULDER	1294	n/a	n/a	0	0	0
4194970	WORD	wordpools/wasnorm_wordpool_576.txt	LTP360	ltpFR2	0	17	PRINCE	1124	n/a	n/a	0	0	0
4197562	WORD	wordpools/wasnorm_wordpool_576.txt	LTP360	ltpFR2	0	17	ROD	1203	n/a	n/a	0	0	0
4200304	WORD	wordpools/wasnorm_wordpool_576.txt	LTP360	ltpFR2	0	17	COUCH	386	n/a	n/a	0	0	0
4202829	WORD	wordpools/wasnorm_wordpool_576.txt	LTP360	ltpFR2	0	17	TABLE	1426	n/a	n/a	0	0	0
4205639	WORD	wordpools/wasnorm_wordpool_576.txt	LTP360	ltpFR2	0	17	PIGEON	1065	n/a	n/a	0	0	0
4208146	WORD	wordpools/wasnorm_wordpool_576.txt	LTP360	ltpFR2	0	17	TROUT	1511	n/a	n/a	0	0	0
4210722	WORD	wordpools/wasnorm_wordpool_576.txt	LTP360	ltpFR2	0	17	BOARD	143	n/a	n/a	0	0	0
4213481	WORD	wordpools/wasnorm_wordpool_576.txt	LTP360	ltpFR2	0	17	WORLD	1622	n/a	n/a	0	0	0
4216038	WORD	wordpools/wasnorm_wordpool_576.txt	LTP360	ltpFR2	0	17	DRAGON	492	n/a	n/a	0	0	0
4218480	WORD	wordpools/wasnorm_wordpool_576.txt	LTP360	ltpFR2	0	17	PENGUIN	1044	n/a	n/a	0	0	0
4221288	WORD	wordpools/wasnorm_wordpool_576.txt	LTP360	ltpFR2	0	17	FRECKLE	602	n/a	n/a	0	0	0
4223863	WORD	wordpools/wasnorm_wordpool_576.txt	LTP360	ltpFR2	0	17	KLEENEX	782	n/a	n/a	0	0	0
4226288	WORD	wordpools/wasnorm_wordpool_576.txt	LTP360	ltpFR2	0	17	MASK	876	n/a	n/a	0	0	0
4228980	WORD	wordpools/wasnorm_wordpool_576.txt	LTP360	ltpFR2	0	17	OZONE	996	n/a	n/a	0	0	0
4230586	START	n/a	LTP360	ltpFR2	0	n/a	n/a	n/a	26	n/a	n/a	n/a	n/a
4231527	DISTRACTOR	n/a	LTP360	ltpFR2	0	17	n/a	n/a	n/a	n/a	0	0	0
4231539	PROB	n/a	LTP360	ltpFR2	0	n/a	n/a	n/a	26	24	9	6	9
4236839	PROB	n/a	LTP360	ltpFR2	0	n/a	n/a	n/a	26	16	7	5	4
4239163	PROB	n/a	LTP360	ltpFR2	0	n/a	n/a	n/a	26	14	9	3	2
4242959	PROB	n/a	LTP360	ltpFR2	0	n/a	n/a	n/a	26	5	2	1	2
4244196	PROB	n/a	LTP360	ltpFR2	0	n/a	n/a	n/a	26	17	7	3	7
4245769	PROB	n/a	LTP360	ltpFR2	0	n/a	n/a	n/a	26	13	2	5	6
4247457	PROB	n/a	LTP360	ltpFR2	0	n/a	n/a	n/a	26	22	5	8	9
4250968	PROB	n/a	LTP360	ltpFR2	0	n/a	n/a	n/a	26	8	3	3	2
4254586	STOP	n/a	LTP360	ltpFR2	0	n/a	n/a	n/a	26	n/a	n/a	n/a	n/a
4256454	REC_START	n/a	LTP360	ltpFR2	0	17	n/a	n/a	n/a	n/a	0	0	0
4257622	REC_WORD	wordpools/wasnorm_wordpool_576.txt	LTP360	ltpFR2	0	17	OZONE	996	n/a	n/a	0	0	0
4259825	REC_WORD	wordpools/wasnorm_wordpool_576.txt	LTP360	ltpFR2	0	17	COUCH	386	n/a	n/a	0	0	0
4261176	REC_WORD	wordpools/wasnorm_wordpool_576.txt	LTP360	ltpFR2	0	17	TABLE	1426	n/a	n/a	0	0	0
4387978	DISTRACTOR	n/a	LTP360	ltpFR2	0	18	n/a	n/a	n/a	n/a	0	0	0
4387978	START	n/a	LTP360	ltpFR2	0	n/a	n/a	n/a	27	n/a	n/a	n/a	n/a
4387995	PROB	n/a	LTP360	ltpFR2	0	n/a	n/a	n/a	27	10	1	7	2
4389534	PROB	n/a	LTP360	ltpFR2	0	n/a	n/a	n/a	27	14	7	5	2
4391807	PROB	n/a	LTP360	ltpFR2	0	n/a	n/a	n/a	27	16	3	8	5
4394517	PROB	n/a	LTP360	ltpFR2	0	n/a	n/a	n/a	27	8	4	2	2
4396021	PROB	n/a	LTP360	ltpFR2	0	n/a	n/a	n/a	27	17	6	6	5
4398027	PROB	n/a	LTP360	ltpFR2	0	n/a	n/a	n/a	27	20	4	7	9
4400720	PROB	n/a	LTP360	ltpFR2	0	n/a	n/a	n/a	27	25	9	8	6
4403830	PROB	n/a	LTP360	ltpFR2	0	n/a	n/a	n/a	27	22	7	7	8
4408546	PROB	n/a	LTP360	ltpFR2	0	n/a	n/a	n/a	27	16	7	6	3
4411292	STOP	n/a	LTP360	ltpFR2	0	n/a	n/a	n/a	27	n/a	n/a	n/a	n/a
4412926	WORD	wordpools/wasnorm_wordpool_576.txt	LTP360	ltpFR2	0	18	MUSTARD	935	n/a	n/a	0	0	0
4415669	WORD	wordpools/wasnorm_wordpool_576.txt	LTP360	ltpFR2	0	18	MEAT	883	n/a	n/a	0	0	0
4418092	WORD	wordpools/wasnorm_wordpool_576.txt	LTP360	ltpFR2	0	18	CROWN	415	n/a	n/a	0	0	0
4420668	WORD	wordpools/wasnorm_wordpool_576.txt	LTP360	ltpFR2	0	18	PRINCESS	1125	n/a	n/a	0	0	0
4423477	WORD	wordpools/wasnorm_wordpool_576.txt	LTP360	ltpFR2	0	18	GUITAR	670	n/a	n/a	0	0	0
4426035	WORD	wordpools/wasnorm_wordpool_576.txt	LTP360	ltpFR2	0	18	GLOVE	642	n/a	n/a	0	0	0
4428678	WORD	wordpools/wasnorm_wordpool_576.txt	LTP360	ltpFR2	0	18	LAMP	798	n/a	n/a	0	0	0
4431168	WORD	wordpools/wasnorm_wordpool_576.txt	LTP360	ltpFR2	0	18	PLUTO	1092	n/a	n/a	0	0	0
4433944	WORD	wordpools/wasnorm_wordpool_576.txt	LTP360	ltpFR2	0	18	ZIPPER	1636	n/a	n/a	0	0	0
4436386	WORD	wordpools/wasnorm_wordpool_576.txt	LTP360	ltpFR2	0	18	CASHIER	254	n/a	n/a	0	0	0
4439027	WORD	wordpools/wasnorm_wordpool_576.txt	LTP360	ltpFR2	0	18	REBEL	1172	n/a	n/a	0	0	0
4441753	WORD	wordpools/wasnorm_wordpool_576.txt	LTP360	ltpFR2	0	18	ROBOT	1200	n/a	n/a	0	0	0
4444345	WORD	wordpools/wasnorm_wordpool_576.txt	LTP360	ltpFR2	0	18	FLIPPER	580	n/a	n/a	0	0	0
4447003	WORD	wordpools/wasnorm_wordpool_576.txt	LTP360	ltpFR2	0	18	GAZELLE	628	n/a	n/a	0	0	0
4449679	WORD	wordpools/wasnorm_wordpool_576.txt	LTP360	ltpFR2	0	18	SPHINX	1349	n/a	n/a	0	0	0
4452320	WORD	wordpools/wasnorm_wordpool_576.txt	LTP360	ltpFR2	0	18	PLAID	1080	n/a	n/a	0	0	0
4454845	WORD	wordpools/wasnorm_wordpool_576.txt	LTP360	ltpFR2	0	18	MONSTER	912	n/a	n/a	0	0	0
4457621	WORD	wordpools/wasnorm_wordpool_576.txt	LTP360	ltpFR2	0	18	PASTA	1021	n/a	n/a	0	0	0
4460246	WORD	wordpools/wasnorm_wordpool_576.txt	LTP360	ltpFR2	0	18	FRANCE	601	n/a	n/a	0	0	0
4462738	WORD	wordpools/wasnorm_wordpool_576.txt	LTP360	ltpFR2	0	18	EUROPE	541	n/a	n/a	0	0	0
4465295	WORD	wordpools/wasnorm_wordpool_576.txt	LTP360	ltpFR2	0	18	GRIZZLY	662	n/a	n/a	0	0	0
4467721	WORD	wordpools/wasnorm_wordpool_576.txt	LTP360	ltpFR2	0	18	MACHINE	852	n/a	n/a	0	0	0
4470363	WORD	wordpools/wasnorm_wordpool_576.txt	LTP360	ltpFR2	0	18	GARDEN	623	n/a	n/a	0	0	0
4473121	WORD	wordpools/wasnorm_wordpool_576.txt	LTP360	ltpFR2	0	18	KIDNEY	776	n/a	n/a	0	0	0
4474727	START	n/a	LTP360	ltpFR2	0	n/a	n/a	n/a	28	n/a	n/a	n/a	n/a
4475672	DISTRACTOR	n/a	LTP360	ltpFR2	0	18	n/a	n/a	n/a	n/a	0	0	0
4475680	PROB	n/a	LTP360	ltpFR2	0	n/a	n/a	n/a	28	13	9	3	1
4477452	PROB	n/a	LTP360	ltpFR2	0	n/a	n/a	n/a	28	21	8	5	8
4480730	PROB	n/a	LTP360	ltpFR2	0	n/a	n/a	n/a	28	15	1	5	9
4482183	PROB	n/a	LTP360	ltpFR2	0	n/a	n/a	n/a	28	12	4	2	6
4483773	PROB	n/a	LTP360	ltpFR2	0	n/a	n/a	n/a	28	4	1	1	2
4485026	PROB	n/a	LTP360	ltpFR2	0	n/a	n/a	n/a	28	9	3	3	3
4486213	PROB	n/a	LTP360	ltpFR2	0	n/a	n/a	n/a	28	12	7	4	1
4488270	PROB	n/a	LTP360	ltpFR2	0	n/a	n/a	n/a	28	14	7	3	4
4489575	PROB	n/a	LTP360	ltpFR2	0	n/a	n/a	n/a	28	11	2	8	1
4491079	PROB	n/a	LTP360	ltpFR2	0	n/a	n/a	n/a	28	24	8	8	8
4492534	PROB	n/a	LTP360	ltpFR2	0	n/a	n/a	n/a	28	8	3	1	4
4498727	STOP	n/a	LTP360	ltpFR2	0	n/a	n/a	n/a	28	n/a	n/a	n/a	n/a
4500561	REC_START	n/a	LTP360	ltpFR2	0	18	n/a	n/a	n/a	n/a	0	0	0
4501693	REC_WORD	wordpools/wasnorm_wordpool_576.txt	LTP360	ltpFR2	0	18	GARDEN	623	n/a	n/a	0	0	0
4503129	REC_WORD	wordpools/wasnorm_wordpool_576.txt	LTP360	ltpFR2	0	18	KIDNEY	776	n/a	n/a	0	0	0
4504648	REC_WORD	wordpools/wasnorm_wordpool_576.txt	LTP360	ltpFR2	0	18	LAMP	798	n/a	n/a	0	0	0
4510748	REC_WORD	wordpools/wasnorm_wordpool_576.txt	LTP360	ltpFR2	0	18	GRIZZLY	662	n/a	n/a	0	0	0
4512533	REC_WORD	wordpools/wasnorm_wordpool_576.txt	LTP360	ltpFR2	0	18	MACHINE	852	n/a	n/a	0	0	0
4514416	REC_WORD	wordpools/wasnorm_wordpool_576.txt	LTP360	ltpFR2	0	18	GAZELLE	628	n/a	n/a	0	0	0
4517946	REC_WORD	wordpools/wasnorm_wordpool_576.txt	LTP360	ltpFR2	0	18	SPHINX	1349	n/a	n/a	0	0	0
4533802	REC_WORD	wordpools/wasnorm_wordpool_576.txt	LTP360	ltpFR2	0	18	PRINCESS	1125	n/a	n/a	0	0	0
4535623	REC_WORD	wordpools/wasnorm_wordpool_576.txt	LTP360	ltpFR2	0	18	CROWN	415	n/a	n/a	0	0	0
4591019	WORD	wordpools/wasnorm_wordpool_576.txt	LTP360	ltpFR2	0	19	SILK	1307	n/a	n/a	0	0	0
4593812	WORD	wordpools/wasnorm_wordpool_576.txt	LTP360	ltpFR2	0	19	COUNTY	389	n/a	n/a	0	0	0
4596388	WORD	wordpools/wasnorm_wordpool_576.txt	LTP360	ltpFR2	0	19	CATCHER	258	n/a	n/a	0	0	0
4599079	WORD	wordpools/wasnorm_wordpool_576.txt	LTP360	ltpFR2	0	19	ATOM	55	n/a	n/a	0	0	0
4601638	WORD	wordpools/wasnorm_wordpool_576.txt	LTP360	ltpFR2	0	19	BOYFRIEND	162	n/a	n/a	0	0	0
4604212	WORD	wordpools/wasnorm_wordpool_576.txt	LTP360	ltpFR2	0	19	AUTHOR	61	n/a	n/a	0	0	0
4606637	WORD	wordpools/wasnorm_wordpool_576.txt	LTP360	ltpFR2	0	19	PIANO	1057	n/a	n/a	0	0	0
4609396	WORD	wordpools/wasnorm_wordpool_576.txt	LTP360	ltpFR2	0	19	MESSAGE	888	n/a	n/a	0	0	0
4611920	WORD	wordpools/wasnorm_wordpool_576.txt	LTP360	ltpFR2	0	19	POSTAGE	1113	n/a	n/a	0	0	0
4614530	WORD	wordpools/wasnorm_wordpool_576.txt	LTP360	ltpFR2	0	19	FOOTBALL	591	n/a	n/a	0	0	0
4617037	WORD	wordpools/wasnorm_wordpool_576.txt	LTP360	ltpFR2	0	19	RACKET	1155	n/a	n/a	0	0	0
4619646	WORD	wordpools/wasnorm_wordpool_576.txt	LTP360	ltpFR2	0	19	SANDWICH	1232	n/a	n/a	0	0	0
4622405	WORD	wordpools/wasnorm_wordpool_576.txt	LTP360	ltpFR2	0	19	BUNNY	198	n/a	n/a	0	0	0
4625063	WORD	wordpools/wasnorm_wordpool_576.txt	LTP360	ltpFR2	0	19	RABBIT	1152	n/a	n/a	0	0	0
4627839	WORD	wordpools/wasnorm_wordpool_576.txt	LTP360	ltpFR2	0	19	NURSE	963	n/a	n/a	0	0	0
4630515	WORD	wordpools/wasnorm_wordpool_576.txt	LTP360	ltpFR2	0	19	TUNNEL	1519	n/a	n/a	0	0	0
4633105	WORD	wordpools/wasnorm_wordpool_576.txt	LTP360	ltpFR2	0	19	EAGLE	512	n/a	n/a	0	0	0
4635598	WORD	wordpools/wasnorm_wordpool_576.txt	LTP360	ltpFR2	0	19	AGENT	10	n/a	n/a	0	0	0
4638105	WORD	wordpools/wasnorm_wordpool_576.txt	LTP360	ltpFR2	0	19	NOVEL	960	n/a	n/a	0	0	0
4640897	WORD	wordpools/wasnorm_wordpool_576.txt	LTP360	ltpFR2	0	19	CANAL	226	n/a	n/a	0	0	0
4643406	WORD	wordpools/wasnorm_wordpool_576.txt	LTP360	ltpFR2	0	19	MARKER	870	n/a	n/a	0	0	0
4646215	WORD	wordpools/wasnorm_wordpool_576.txt	LTP360	ltpFR2	0	19	LAKE	796	n/a	n/a	0	0	0
4648673	WORD	wordpools/wasnorm_wordpool_576.txt	LTP360	ltpFR2	0	19	WIDOW	1608	n/a	n/a	0	0	0
4651399	WORD	wordpools/wasnorm_wordpool_576.txt	LTP360	ltpFR2	0	19	PLASTER	1085	n/a	n/a	0	0	0
4653003	START	n/a	LTP360	ltpFR2	0	n/a	n/a	n/a	29	n/a	n/a	n/a	n/a
4653883	DISTRACTOR	n/a	LTP360	ltpFR2	0	19	n/a	n/a	n/a	n/a	0	0	0
4653889	PROB	n/a	LTP360	ltpFR2	0	n/a	n/a	n/a	29	10	5	1	4
4655646	PROB	n/a	LTP360	ltpFR2	0	n/a	n/a	n/a	29	20	5	9	6
4658805	PROB	n/a	LTP360	ltpFR2	0	n/a	n/a	n/a	29	18	6	3	9
4661865	PROB	n/a	LTP360	ltpFR2	0	n/a	n/a	n/a	29	10	2	7	1
4663388	PROB	n/a	LTP360	ltpFR2	0	n/a	n/a	n/a	29	9	2	1	6
4665226	PROB	n/a	LTP360	ltpFR2	0	n/a	n/a	n/a	29	22	6	7	9
4669975	PROB	n/a	LTP360	ltpFR2	0	n/a	n/a	n/a	29	11	1	5	5
4671296	PROB	n/a	LTP360	ltpFR2	0	n/a	n/a	n/a	29	17	4	4	9
4673521	PROB	n/a	LTP360	ltpFR2	0	n/a	n/a	n/a	29	17	8	4	5
4675540	STOP	n/a	LTP360	ltpFR2	0	n/a	n/a	n/a	29	n/a	n/a	n/a	n/a
4678804	REC_START	n/a	LTP360	ltpFR2	0	19	n/a	n/a	n/a	n/a	0	0	0
4680256	REC_WORD	wordpools/wasnorm_wordpool_576.txt	LTP360	ltpFR2	0	19	PLASTER	1085	n/a	n/a	0	0	0
4681908	REC_WORD	wordpools/wasnorm_wordpool_576.txt	LTP360	ltpFR2	0	19	PIANO	1057	n/a	n/a	0	0	0
4726417	REC_WORD	wordpools/wasnorm_wordpool_576.txt	LTP360	ltpFR2	0	19	SILK	1307	n/a	n/a	0	0	0
4769263	WORD	wordpools/wasnorm_wordpool_576.txt	LTP360	ltpFR2	0	20	ICING	732	n/a	n/a	0	0	0
4771955	WORD	wordpools/wasnorm_wordpool_576.txt	LTP360	ltpFR2	0	20	MISSILE	900	n/a	n/a	0	0	0
4774732	WORD	wordpools/wasnorm_wordpool_576.txt	LTP360	ltpFR2	0	20	DOLPHIN	483	n/a	n/a	0	0	0
4777390	WORD	wordpools/wasnorm_wordpool_576.txt	LTP360	ltpFR2	0	20	SALMON	1227	n/a	n/a	0	0	0
4779964	WORD	wordpools/wasnorm_wordpool_576.txt	LTP360	ltpFR2	0	20	MAILBOX	857	n/a	n/a	0	0	0
4782758	WORD	wordpools/wasnorm_wordpool_576.txt	LTP360	ltpFR2	0	20	HIKER	708	n/a	n/a	0	0	0
4785298	WORD	wordpools/wasnorm_wordpool_576.txt	LTP360	ltpFR2	0	20	INFANT	737	n/a	n/a	0	0	0
4787940	WORD	wordpools/wasnorm_wordpool_576.txt	LTP360	ltpFR2	0	20	CRIB	407	n/a	n/a	0	0	0
4790433	WORD	wordpools/wasnorm_wordpool_576.txt	LTP360	ltpFR2	0	20	DORM	488	n/a	n/a	0	0	0
4793107	WORD	wordpools/wasnorm_wordpool_576.txt	LTP360	ltpFR2	0	20	POWDER	1117	n/a	n/a	0	0	0
4795583	WORD	wordpools/wasnorm_wordpool_576.txt	LTP360	ltpFR2	0	20	AWARD	63	n/a	n/a	0	0	0
4798375	WORD	wordpools/wasnorm_wordpool_576.txt	LTP360	ltpFR2	0	20	PICNIC	1060	n/a	n/a	0	0	0
4801116	WORD	wordpools/wasnorm_wordpool_576.txt	LTP360	ltpFR2	0	20	CAFE	216	n/a	n/a	0	0	0
4803675	WORD	wordpools/wasnorm_wordpool_576.txt	LTP360	ltpFR2	0	20	JUGGLER	763	n/a	n/a	0	0	0
4806468	WORD	wordpools/wasnorm_wordpool_576.txt	LTP360	ltpFR2	0	20	MOTEL	919	n/a	n/a	0	0	0
4808891	WORD	wordpools/wasnorm_wordpool_576.txt	LTP360	ltpFR2	0	20	MAILMAN	858	n/a	n/a	0	0	0
4811568	WORD	wordpools/wasnorm_wordpool_576.txt	LTP360	ltpFR2	0	20	PERFUME	1049	n/a	n/a	0	0	0
4814025	WORD	wordpools/wasnorm_wordpool_576.txt	LTP360	ltpFR2	0	20	TRUCK	1512	n/a	n/a	0	0	0
4816517	WORD	wordpools/wasnorm_wordpool_576.txt	LTP360	ltpFR2	0	20	DUST	508	n/a	n/a	0	0	0
4819008	WORD	wordpools/wasnorm_wordpool_576.txt	LTP360	ltpFR2	0	20	TOASTER	1472	n/a	n/a	0	0	0
4821483	WORD	wordpools/wasnorm_wordpool_576.txt	LTP360	ltpFR2	0	20	NAPKIN	937	n/a	n/a	0	0	0
4823974	WORD	wordpools/wasnorm_wordpool_576.txt	LTP360	ltpFR2	0	20	SIBLING	1301	n/a	n/a	0	0	0
4826683	WORD	wordpools/wasnorm_wordpool_576.txt	LTP360	ltpFR2	0	20	DONOR	485	n/a	n/a	0	0	0
4829140	WORD	wordpools/wasnorm_wordpool_576.txt	LTP360	ltpFR2	0	20	SCULPTURE	1258	n/a	n/a	0	0	0
4830747	START	n/a	LTP360	ltpFR2	0	n/a	n/a	n/a	30	n/a	n/a	n/a	n/a
4831586	DISTRACTOR	n/a	LTP360	ltpFR2	0	20	n/a	n/a	n/a	n/a	0	0	0
4831599	PROB	n/a	LTP360	ltpFR2	0	n/a	n/a	n/a	30	17	8	1	8
4834993	PROB	n/a	LTP360	ltpFR2	0	n/a	n/a	n/a	30	11	8	2	1
4836313	PROB	n/a	LTP360	ltpFR2	0	n/a	n/a	n/a	30	13	5	2	6
4838939	PROB	n/a	LTP360	ltpFR2	0	n/a	n/a	n/a	30	21	9	4	8
4841348	PROB	n/a	LTP360	ltpFR2	0	n/a	n/a	n/a	30	25	9	7	9
4845075	PROB	n/a	LTP360	ltpFR2	0	n/a	n/a	n/a	30	17	6	4	7
4846447	PROB	n/a	LTP360	ltpFR2	0	n/a	n/a	n/a	30	14	3	6	5
4848487	PROB	n/a	LTP360	ltpFR2	0	n/a	n/a	n/a	30	17	8	7	2
4849974	PROB	n/a	LTP360	ltpFR2	0	n/a	n/a	n/a	30	6	2	3	1
4851881	PROB	n/a	LTP360	ltpFR2	0	n/a	n/a	n/a	30	18	4	9	5
4854474	STOP	n/a	LTP360	ltpFR2	0	n/a	n/a	n/a	30	n/a	n/a	n/a	n/a
4856547	REC_START	n/a	LTP360	ltpFR2	0	20	n/a	n/a	n/a	n/a	0	0	0
4858284	REC_WORD	wordpools/wasnorm_wordpool_576.txt	LTP360	ltpFR2	0	20	DONOR	485	n/a	n/a	0	0	0
4861030	REC_WORD	wordpools/wasnorm_wordpool_576.txt	LTP360	ltpFR2	0	20	MAILBOX	857	n/a	n/a	0	0	0
4867006	REC_WORD	wordpools/wasnorm_wordpool_576.txt	LTP360	ltpFR2	0	20	DORM	488	n/a	n/a	0	0	0
4868759	REC_WORD	wordpools/wasnorm_wordpool_576.txt	LTP360	ltpFR2	0	20	CRIB	407	n/a	n/a	0	0	0
4870562	REC_WORD	wordpools/wasnorm_wordpool_576.txt	LTP360	ltpFR2	0	20	INFANT	737	n/a	n/a	0	0	0
4872313	REC_WORD	wordpools/wasnorm_wordpool_576.txt	LTP360	ltpFR2	0	20	SIBLING	1301	n/a	n/a	0	0	0
4889041	REC_WORD	wordpools/wasnorm_wordpool_576.txt	LTP360	ltpFR2	0	20	DORM	488	n/a	n/a	0	0	0
4901636	REC_WORD	wordpools/wasnorm_wordpool_576.txt	LTP360	ltpFR2	0	20	DOLPHIN	483	n/a	n/a	0	0	0
4915872	REC_WORD	wordpools/wasnorm_wordpool_576.txt	LTP360	ltpFR2	0	20	SALMON	1227	n/a	n/a	0	0	0
4925707	REC_WORD	wordpools/wasnorm_wordpool_576.txt	LTP360	ltpFR2	0	20	CAFE	216	n/a	n/a	0	0	0
4947005	WORD	wordpools/wasnorm_wordpool_576.txt	LTP360	ltpFR2	0	21	TEACHER	1440	n/a	n/a	0	0	0
4949464	WORD	wordpools/wasnorm_wordpool_576.txt	LTP360	ltpFR2	0	21	PERCH	1048	n/a	n/a	0	0	0
4952256	WORD	wordpools/wasnorm_wordpool_576.txt	LTP360	ltpFR2	0	21	SCARECROW	1245	n/a	n/a	0	0	0
4954814	WORD	wordpools/wasnorm_wordpool_576.txt	LTP360	ltpFR2	0	21	BABY	64	n/a	n/a	0	0	0
4957305	WORD	wordpools/wasnorm_wordpool_576.txt	LTP360	ltpFR2	0	21	TOMBSTONE	1478	n/a	n/a	0	0	0
4959947	WORD	wordpools/wasnorm_wordpool_576.txt	LTP360	ltpFR2	0	21	RECEIPT	1173	n/a	n/a	0	0	0
4962657	WORD	wordpools/wasnorm_wordpool_576.txt	LTP360	ltpFR2	0	21	CARRIAGE	248	n/a	n/a	0	0	0
4965449	WORD	wordpools/wasnorm_wordpool_576.txt	LTP360	ltpFR2	0	21	TUTU	1524	n/a	n/a	0	0	0
4967957	WORD	wordpools/wasnorm_wordpool_576.txt	LTP360	ltpFR2	0	21	SLUG	1329	n/a	n/a	0	0	0
4970683	WORD	wordpools/wasnorm_wordpool_576.txt	LTP360	ltpFR2	0	21	BANK	83	n/a	n/a	0	0	0
4973358	WORD	wordpools/wasnorm_wordpool_576.txt	LTP360	ltpFR2	0	21	BUTCHER	203	n/a	n/a	0	0	0
4975983	WORD	wordpools/wasnorm_wordpool_576.txt	LTP360	ltpFR2	0	21	SCRIBBLE	1256	n/a	n/a	0	0	0
4978508	WORD	wordpools/wasnorm_wordpool_576.txt	LTP360	ltpFR2	0	21	NOTEBOOK	959	n/a	n/a	0	0	0
4980982	WORD	wordpools/wasnorm_wordpool_576.txt	LTP360	ltpFR2	0	21	PADDLE	1000	n/a	n/a	0	0	0
4983491	WORD	wordpools/wasnorm_wordpool_576.txt	LTP360	ltpFR2	0	21	YACHT	1629	n/a	n/a	0	0	0
4986099	WORD	wordpools/wasnorm_wordpool_576.txt	LTP360	ltpFR2	0	21	STUDENT	1395	n/a	n/a	0	0	0
4988675	WORD	wordpools/wasnorm_wordpool_576.txt	LTP360	ltpFR2	0	21	MILDEW	893	n/a	n/a	0	0	0
4991215	WORD	wordpools/wasnorm_wordpool_576.txt	LTP360	ltpFR2	0	21	SIDEWALK	1303	n/a	n/a	0	0	0
4993807	WORD	wordpools/wasnorm_wordpool_576.txt	LTP360	ltpFR2	0	21	FOREHEAD	592	n/a	n/a	0	0	0
4996517	WORD	wordpools/wasnorm_wordpool_576.txt	LTP360	ltpFR2	0	21	ATLAS	53	n/a	n/a	0	0	0
4999308	WORD	wordpools/wasnorm_wordpool_576.txt	LTP360	ltpFR2	0	21	GROUND	666	n/a	n/a	0	0	0
5001917	WORD	wordpools/wasnorm_wordpool_576.txt	LTP360	ltpFR2	0	21	CHAMPAGNE	278	n/a	n/a	0	0	0
5004660	WORD	wordpools/wasnorm_wordpool_576.txt	LTP360	ltpFR2	0	21	DANDRUFF	439	n/a	n/a	0	0	0
5007167	WORD	wordpools/wasnorm_wordpool_576.txt	LTP360	ltpFR2	0	21	FIREMAN	569	n/a	n/a	0	0	0
5008773	START	n/a	LTP360	ltpFR2	0	n/a	n/a	n/a	31	n/a	n/a	n/a	n/a
5009867	DISTRACTOR	n/a	LTP360	ltpFR2	0	21	n/a	n/a	n/a	n/a	0	0	0
5009876	PROB	n/a	LTP360	ltpFR2	0	n/a	n/a	n/a	31	22	8	7	7
5013421	PROB	n/a	LTP360	ltpFR2	0	n/a	n/a	n/a	31	16	9	6	1
5014875	PROB	n/a	LTP360	ltpFR2	0	n/a	n/a	n/a	31	14	4	3	7
5016565	PROB	n/a	LTP360	ltpFR2	0	n/a	n/a	n/a	31	20	7	9	4
5019558	PROB	n/a	LTP360	ltpFR2	0	n/a	n/a	n/a	31	15	2	4	9
5022115	PROB	n/a	LTP360	ltpFR2	0	n/a	n/a	n/a	31	17	6	4	7
5023804	PROB	n/a	LTP360	ltpFR2	0	n/a	n/a	n/a	31	13	4	5	4
5026698	PROB	n/a	LTP360	ltpFR2	0	n/a	n/a	n/a	31	21	6	7	8
5029641	PROB	n/a	LTP360	ltpFR2	0	n/a	n/a	n/a	31	23	8	8	7
5031974	STOP	n/a	LTP360	ltpFR2	0	n/a	n/a	n/a	31	n/a	n/a	n/a	n/a
5034607	REC_START	n/a	LTP360	ltpFR2	0	21	n/a	n/a	n/a	n/a	0	0	0
5035312	REC_WORD	wordpools/wasnorm_wordpool_576.txt	LTP360	ltpFR2	0	21	SCRIBBLE	1256	n/a	n/a	0	0	0
5036860	REC_WORD	wordpools/wasnorm_wordpool_576.txt	LTP360	ltpFR2	0	21	NOTEBOOK	959	n/a	n/a	0	0	0
5038204	REC_WORD	wordpools/wasnorm_wordpool_576.txt	LTP360	ltpFR2	0	21	STUDENT	1395	n/a	n/a	0	0	0
5039895	REC_WORD	wordpools/wasnorm_wordpool_576.txt	LTP360	ltpFR2	0	21	TOMBSTONE	1478	n/a	n/a	0	0	0
5041617	REC_WORD	wordpools/wasnorm_wordpool_576.txt	LTP360	ltpFR2	0	21	BABY	64	n/a	n/a	0	0	0
5043716	REC_WORD	wordpools/wasnorm_wordpool_576.txt	LTP360	ltpFR2	0	21	TUTU	1524	n/a	n/a	0	0	0
5049441	REC_WORD	wordpools/wasnorm_wordpool_576.txt	LTP360	ltpFR2	0	21	MILDEW	893	n/a	n/a	0	0	0
5051100	REC_WORD	wordpools/wasnorm_wordpool_576.txt	LTP360	ltpFR2	0	21	SIDEWALK	1303	n/a	n/a	0	0	0
5125049	DISTRACTOR	n/a	LTP360	ltpFR2	0	22	n/a	n/a	n/a	n/a	0	0	0
5125049	START	n/a	LTP360	ltpFR2	0	n/a	n/a	n/a	32	n/a	n/a	n/a	n/a
5125065	PROB	n/a	LTP360	ltpFR2	0	n/a	n/a	n/a	32	19	8	3	8
5128192	PROB	n/a	LTP360	ltpFR2	0	n/a	n/a	n/a	32	1	9	1	1
5129581	PROB	n/a	LTP360	ltpFR2	0	n/a	n/a	n/a	32	13	5	2	6
5133594	PROB	n/a	LTP360	ltpFR2	0	n/a	n/a	n/a	32	11	4	5	2
5135483	PROB	n/a	LTP360	ltpFR2	0	n/a	n/a	n/a	32	19	8	9	2
5137221	PROB	n/a	LTP360	ltpFR2	0	n/a	n/a	n/a	32	13	4	3	6
5139295	PROB	n/a	LTP360	ltpFR2	0	n/a	n/a	n/a	32	16	4	7	5
5142171	PROB	n/a	LTP360	ltpFR2	0	n/a	n/a	n/a	32	21	9	3	8
5149049	STOP	n/a	LTP360	ltpFR2	0	n/a	n/a	n/a	32	n/a	n/a	n/a	n/a
5150130	WORD	wordpools/wasnorm_wordpool_576.txt	LTP360	ltpFR2	0	22	SUPPER	1411	n/a	n/a	0	0	0
5152790	WORD	wordpools/wasnorm_wordpool_576.txt	LTP360	ltpFR2	0	22	PLATE	1086	n/a	n/a	0	0	0
5155415	WORD	wordpools/wasnorm_wordpool_576.txt	LTP360	ltpFR2	0	22	BUCKET	184	n/a	n/a	0	0	0
5157855	WORD	wordpools/wasnorm_wordpool_576.txt	LTP360	ltpFR2	0	22	CAMEL	223	n/a	n/a	0	0	0
5160414	WORD	wordpools/wasnorm_wordpool_576.txt	LTP360	ltpFR2	0	22	ONION	977	n/a	n/a	0	0	0
5163122	WORD	wordpools/wasnorm_wordpool_576.txt	LTP360	ltpFR2	0	22	EYELASH	546	n/a	n/a	0	0	0
5165864	WORD	wordpools/wasnorm_wordpool_576.txt	LTP360	ltpFR2	0	22	CIGAR	308	n/a	n/a	0	0	0
5168624	WORD	wordpools/wasnorm_wordpool_576.txt	LTP360	ltpFR2	0	22	TRIBE	1505	n/a	n/a	0	0	0
5171165	WORD	wordpools/wasnorm_wordpool_576.txt	LTP360	ltpFR2	0	22	HEADBAND	696	n/a	n/a	0	0	0
5173741	WORD	wordpools/wasnorm_wordpool_576.txt	LTP360	ltpFR2	0	22	DIME	466	n/a	n/a	0	0	0
5176331	WORD	wordpools/wasnorm_wordpool_576.txt	LTP360	ltpFR2	0	22	SWITCH	1422	n/a	n/a	0	0	0
5179074	WORD	wordpools/wasnorm_wordpool_576.txt	LTP360	ltpFR2	0	22	PEANUT	1032	n/a	n/a	0	0	0
5181733	WORD	wordpools/wasnorm_wordpool_576.txt	LTP360	ltpFR2	0	22	LOVER	846	n/a	n/a	0	0	0
5184425	WORD	wordpools/wasnorm_wordpool_576.txt	LTP360	ltpFR2	0	22	HORNET	718	n/a	n/a	0	0	0
5187116	WORD	wordpools/wasnorm_wordpool_576.txt	LTP360	ltpFR2	0	22	TYPIST	1532	n/a	n/a	0	0	0
5189793	WORD	wordpools/wasnorm_wordpool_576.txt	LTP360	ltpFR2	0	22	OFFICE	972	n/a	n/a	0	0	0
5192334	WORD	wordpools/wasnorm_wordpool_576.txt	LTP360	ltpFR2	0	22	HUSBAND	728	n/a	n/a	0	0	0
5194775	WORD	wordpools/wasnorm_wordpool_576.txt	LTP360	ltpFR2	0	22	LASER	801	n/a	n/a	0	0	0
5197299	WORD	wordpools/wasnorm_wordpool_576.txt	LTP360	ltpFR2	0	22	PROTON	1132	n/a	n/a	0	0	0
5199975	WORD	wordpools/wasnorm_wordpool_576.txt	LTP360	ltpFR2	0	22	COMPASS	358	n/a	n/a	0	0	0
5202551	WORD	wordpools/wasnorm_wordpool_576.txt	LTP360	ltpFR2	0	22	GUARD	667	n/a	n/a	0	0	0
5205058	WORD	wordpools/wasnorm_wordpool_576.txt	LTP360	ltpFR2	0	22	TERMITE	1451	n/a	n/a	0	0	0
5207800	WORD	wordpools/wasnorm_wordpool_576.txt	LTP360	ltpFR2	0	22	CABIN	211	n/a	n/a	0	0	0
5210560	WORD	wordpools/wasnorm_wordpool_576.txt	LTP360	ltpFR2	0	22	COIN	343	n/a	n/a	0	0	0
5212164	START	n/a	LTP360	ltpFR2	0	n/a	n/a	n/a	33	n/a	n/a	n/a	n/a
5213357	DISTRACTOR	n/a	LTP360	ltpFR2	0	22	n/a	n/a	n/a	n/a	0	0	0
5213369	PROB	n/a	LTP360	ltpFR2	0	n/a	n/a	n/a	33	12	4	3	5
5215960	PROB	n/a	LTP360	ltpFR2	0	n/a	n/a	n/a	33	11	5	3	3
5218200	PROB	n/a	LTP360	ltpFR2	0	n/a	n/a	n/a	33	20	7	8	5
5221780	PROB	n/a	LTP360	ltpFR2	0	n/a	n/a	n/a	33	15	9	1	5
5223418	PROB	n/a	LTP360	ltpFR2	0	n/a	n/a	n/a	33	12	5	6	1
5225575	PROB	n/a	LTP360	ltpFR2	0	n/a	n/a	n/a	33	17	9	2	6
5228652	PROB	n/a	LTP360	ltpFR2	0	n/a	n/a	n/a	33	10	3	1	6
5230206	PROB	n/a	LTP360	ltpFR2	0	n/a	n/a	n/a	33	14	6	7	1
5232898	PROB	n/a	LTP360	ltpFR2	0	n/a	n/a	n/a	33	7	4	2	1
5235443	STOP	n/a	LTP360	ltpFR2	0	n/a	n/a	n/a	33	n/a	n/a	n/a	n/a
5237998	REC_START	n/a	LTP360	ltpFR2	0	22	n/a	n/a	n/a	n/a	0	0	0
5238979	REC_WORD	wordpools/wasnorm_wordpool_576.txt	LTP360	ltpFR2	0	22	OFFICE	972	n/a	n/a	0	0	0
5240330	REC_WORD	wordpools/wasnorm_wordpool_576.txt	LTP360	ltpFR2	0	22	TYPIST	1532	n/a	n/a	0	0	0
5241974	REC_WORD	wordpools/wasnorm_wordpool_576.txt	LTP360	ltpFR2	0	22	PARENT	1013	n/a	n/a	0	0	0
5243964	REC_WORD	wordpools/wasnorm_wordpool_576.txt	LTP360	ltpFR2	0	22	CABIN	211	n/a	n/a	0	0	0
5245583	REC_WORD	wordpools/wasnorm_wordpool_576.txt	LTP360	ltpFR2	0	22	TERMITE	1451	n/a	n/a	0	0	0
5252881	REC_WORD	wordpools/wasnorm_wordpool_576.txt	LTP360	ltpFR2	0	22	STUDENT	1395	n/a	n/a	0	0	0
5328458	WORD	wordpools/wasnorm_wordpool_576.txt	LTP360	ltpFR2	0	23	CONTRACT	368	n/a	n/a	0	0	0
5331116	WORD	wordpools/wasnorm_wordpool_576.txt	LTP360	ltpFR2	0	23	MATCH	878	n/a	n/a	0	0	0
5333908	WORD	wordpools/wasnorm_wordpool_576.txt	LTP360	ltpFR2	0	23	CRICKET	408	n/a	n/a	0	0	0
5336468	WORD	wordpools/wasnorm_wordpool_576.txt	LTP360	ltpFR2	0	23	POPCORN	1104	n/a	n/a	0	0	0
5338891	WORD	wordpools/wasnorm_wordpool_576.txt	LTP360	ltpFR2	0	23	UMPIRE	1535	n/a	n/a	0	0	0
5341568	WORD	wordpools/wasnorm_wordpool_576.txt	LTP360	ltpFR2	0	23	STAKE	1368	n/a	n/a	0	0	0
5344309	WORD	wordpools/wasnorm_wordpool_576.txt	LTP360	ltpFR2	0	23	PATROL	1027	n/a	n/a	0	0	0
5346817	WORD	wordpools/wasnorm_wordpool_576.txt	LTP360	ltpFR2	0	23	ROCKET	1202	n/a	n/a	0	0	0
5349325	WORD	wordpools/wasnorm_wordpool_576.txt	LTP360	ltpFR2	0	23	KETCHUP	771	n/a	n/a	0	0	0
5351850	WORD	wordpools/wasnorm_wordpool_576.txt	LTP360	ltpFR2	0	23	WHISKERS	1605	n/a	n/a	0	0	0
5354342	WORD	wordpools/wasnorm_wordpool_576.txt	LTP360	ltpFR2	0	23	CRAYON	401	n/a	n/a	0	0	0
5356767	WORD	wordpools/wasnorm_wordpool_576.txt	LTP360	ltpFR2	0	23	WASP	1593	n/a	n/a	0	0	0
5359240	WORD	wordpools/wasnorm_wordpool_576.txt	LTP360	ltpFR2	0	23	BLUEPRINT	142	n/a	n/a	0	0	0
5361882	WORD	wordpools/wasnorm_wordpool_576.txt	LTP360	ltpFR2	0	23	SPONGE	1355	n/a	n/a	0	0	0
5364508	WORD	wordpools/wasnorm_wordpool_576.txt	LTP360	ltpFR2	0	23	RIVER	1194	n/a	n/a	0	0	0
5367216	WORD	wordpools/wasnorm_wordpool_576.txt	LTP360	ltpFR2	0	23	WINDOW	1611	n/a	n/a	0	0	0
5369892	WORD	wordpools/wasnorm_wordpool_576.txt	LTP360	ltpFR2	0	23	LEOPARD	812	n/a	n/a	0	0	0
5372652	WORD	wordpools/wasnorm_wordpool_576.txt	LTP360	ltpFR2	0	23	LION	827	n/a	n/a	0	0	0
5375108	WORD	wordpools/wasnorm_wordpool_576.txt	LTP360	ltpFR2	0	23	THRONE	1461	n/a	n/a	0	0	0
5377668	WORD	wordpools/wasnorm_wordpool_576.txt	LTP360	ltpFR2	0	23	BANJO	82	n/a	n/a	0	0	0
5380393	WORD	wordpools/wasnorm_wordpool_576.txt	LTP360	ltpFR2	0	23	STAR	1373	n/a	n/a	0	0	0
5383135	WORD	wordpools/wasnorm_wordpool_576.txt	LTP360	ltpFR2	0	23	PALACE	1006	n/a	n/a	0	0	0
5385910	WORD	wordpools/wasnorm_wordpool_576.txt	LTP360	ltpFR2	0	23	GLASS	639	n/a	n/a	0	0	0
5388486	WORD	wordpools/wasnorm_wordpool_576.txt	LTP360	ltpFR2	0	23	EXPERT	543	n/a	n/a	0	0	0
5390091	START	n/a	LTP360	ltpFR2	0	n/a	n/a	n/a	34	n/a	n/a	n/a	n/a
5390994	DISTRACTOR	n/a	LTP360	ltpFR2	0	23	n/a	n/a	n/a	n/a	0	0	0
5391010	PROB	n/a	LTP360	ltpFR2	0	n/a	n/a	n/a	34	12	5	2	5
5392849	PROB	n/a	LTP360	ltpFR2	0	n/a	n/a	n/a	34	15	7	5	3
5394472	PROB	n/a	LTP360	ltpFR2	0	n/a	n/a	n/a	34	21	9	4	8
5397582	PROB	n/a	LTP360	ltpFR2	0	n/a	n/a	n/a	34	20	8	9	3
5400324	PROB	n/a	LTP360	ltpFR2	0	n/a	n/a	n/a	34	20	8	8	4
5402415	PROB	n/a	LTP360	ltpFR2	0	n/a	n/a	n/a	34	21	3	9	9
5404286	PROB	n/a	LTP360	ltpFR2	0	n/a	n/a	n/a	34	12	6	2	4
5405642	PROB	n/a	LTP360	ltpFR2	0	n/a	n/a	n/a	34	10	5	2	3
5408501	PROB	n/a	LTP360	ltpFR2	0	n/a	n/a	n/a	34	13	2	5	6
5410591	PROB	n/a	LTP360	ltpFR2	0	n/a	n/a	n/a	34	13	7	1	5
5414091	STOP	n/a	LTP360	ltpFR2	0	n/a	n/a	n/a	34	n/a	n/a	n/a	n/a
5415891	REC_START	n/a	LTP360	ltpFR2	0	23	n/a	n/a	n/a	n/a	0	0	0
5429905	REC_WORD	wordpools/wasnorm_wordpool_576.txt	LTP360	ltpFR2	0	23	THRONE	1461	n/a	n/a	0	0	0
5431509	REC_WORD	wordpools/wasnorm_wordpool_576.txt	LTP360	ltpFR2	0	23	PATROL	1027	n/a	n/a	0	0	0
5435631	REC_WORD	wordpools/wasnorm_wordpool_576.txt	LTP360	ltpFR2	0	23	MUSTARD	935	n/a	n/a	0	0	0
5506334	DISTRACTOR	n/a	LTP360	ltpFR2	0	24	n/a	n/a	n/a	n/a	0	0	0
5506335	START	n/a	LTP360	ltpFR2	0	n/a	n/a	n/a	35	n/a	n/a	n/a	n/a
5506351	PROB	n/a	LTP360	ltpFR2	0	n/a	n/a	n/a	35	17	9	5	3
5511818	PROB	n/a	LTP360	ltpFR2	0	n/a	n/a	n/a	35	15	3	3	9
5514695	PROB	n/a	LTP360	ltpFR2	0	n/a	n/a	n/a	35	17	5	9	3
5518891	PROB	n/a	LTP360	ltpFR2	0	n/a	n/a	n/a	35	6	4	1	1
5520380	PROB	n/a	LTP360	ltpFR2	0	n/a	n/a	n/a	35	16	7	1	8
5522503	PROB	n/a	LTP360	ltpFR2	0	n/a	n/a	n/a	35	12	6	2	4
5523807	PROB	n/a	LTP360	ltpFR2	0	n/a	n/a	n/a	35	12	5	1	6
5525144	PROB	n/a	LTP360	ltpFR2	0	n/a	n/a	n/a	35	24	8	9	7
5529437	STOP	n/a	LTP360	ltpFR2	0	n/a	n/a	n/a	35	n/a	n/a	n/a	n/a
5531214	WORD	wordpools/wasnorm_wordpool_576.txt	LTP360	ltpFR2	0	24	DONKEY	484	n/a	n/a	0	0	0
5533673	WORD	wordpools/wasnorm_wordpool_576.txt	LTP360	ltpFR2	0	24	LONDON	843	n/a	n/a	0	0	0
5536432	WORD	wordpools/wasnorm_wordpool_576.txt	LTP360	ltpFR2	0	24	HOOD	714	n/a	n/a	0	0	0
5539139	WORD	wordpools/wasnorm_wordpool_576.txt	LTP360	ltpFR2	0	24	LAPEL	800	n/a	n/a	0	0	0
5541932	WORD	wordpools/wasnorm_wordpool_576.txt	LTP360	ltpFR2	0	24	ARM	38	n/a	n/a	0	0	0
5544625	WORD	wordpools/wasnorm_wordpool_576.txt	LTP360	ltpFR2	0	24	FOX	598	n/a	n/a	0	0	0
5547132	WORD	wordpools/wasnorm_wordpool_576.txt	LTP360	ltpFR2	0	24	FARMER	553	n/a	n/a	0	0	0
5549857	WORD	wordpools/wasnorm_wordpool_576.txt	LTP360	ltpFR2	0	24	ASIA	46	n/a	n/a	0	0	0
5552668	WORD	wordpools/wasnorm_wordpool_576.txt	LTP360	ltpFR2	0	24	JUDGE	761	n/a	n/a	0	0	0
5555242	WORD	wordpools/wasnorm_wordpool_576.txt	LTP360	ltpFR2	0	24	PARTNER	1017	n/a	n/a	0	0	0
5558034	WORD	wordpools/wasnorm_wordpool_576.txt	LTP360	ltpFR2	0	24	GIRL	637	n/a	n/a	0	0	0
5560560	WORD	wordpools/wasnorm_wordpool_576.txt	LTP360	ltpFR2	0	24	CRITIC	410	n/a	n/a	0	0	0
5563301	WORD	wordpools/wasnorm_wordpool_576.txt	LTP360	ltpFR2	0	24	BEAKER	104	n/a	n/a	0	0	0
5565727	WORD	wordpools/wasnorm_wordpool_576.txt	LTP360	ltpFR2	0	24	COMET	353	n/a	n/a	0	0	0
5568435	WORD	wordpools/wasnorm_wordpool_576.txt	LTP360	ltpFR2	0	24	PUPPY	1144	n/a	n/a	0	0	0
5571110	WORD	wordpools/wasnorm_wordpool_576.txt	LTP360	ltpFR2	0	24	HOUND	724	n/a	n/a	0	0	0
5573852	WORD	wordpools/wasnorm_wordpool_576.txt	LTP360	ltpFR2	0	24	CRATER	400	n/a	n/a	0	0	0
5576344	WORD	wordpools/wasnorm_wordpool_576.txt	LTP360	ltpFR2	0	24	GAVEL	627	n/a	n/a	0	0	0
5579119	WORD	wordpools/wasnorm_wordpool_576.txt	LTP360	ltpFR2	0	24	BOX	159	n/a	n/a	0	0	0
5581678	WORD	wordpools/wasnorm_wordpool_576.txt	LTP360	ltpFR2	0	24	SERVER	1272	n/a	n/a	0	0	0
5584219	WORD	wordpools/wasnorm_wordpool_576.txt	LTP360	ltpFR2	0	24	BATHTUB	100	n/a	n/a	0	0	0
5586961	WORD	wordpools/wasnorm_wordpool_576.txt	LTP360	ltpFR2	0	24	MARSH	874	n/a	n/a	0	0	0
5589403	WORD	wordpools/wasnorm_wordpool_576.txt	LTP360	ltpFR2	0	24	PACKAGE	997	n/a	n/a	0	0	0
5592144	WORD	wordpools/wasnorm_wordpool_576.txt	LTP360	ltpFR2	0	24	VIRUS	1572	n/a	n/a	0	0	0
5593751	START	n/a	LTP360	ltpFR2	0	n/a	n/a	n/a	36	n/a	n/a	n/a	n/a
5594701	DISTRACTOR	n/a	LTP360	ltpFR2	0	24	n/a	n/a	n/a	n/a	0	0	0
5594704	PROB	n/a	LTP360	ltpFR2	0	n/a	n/a	n/a	36	16	2	9	5
5597396	PROB	n/a	LTP360	ltpFR2	0	n/a	n/a	n/a	36	7	2	3	2
5601342	PROB	n/a	LTP360	ltpFR2	0	n/a	n/a	n/a	36	12	2	2	8
5602796	PROB	n/a	LTP360	ltpFR2	0	n/a	n/a	n/a	36	6	3	1	2
5604469	PROB	n/a	LTP360	ltpFR2	0	n/a	n/a	n/a	36	15	3	7	5
5605839	PROB	n/a	LTP360	ltpFR2	0	n/a	n/a	n/a	36	18	5	5	8
5607160	PROB	n/a	LTP360	ltpFR2	0	n/a	n/a	n/a	36	16	4	4	7
5610605	PROB	n/a	LTP360	ltpFR2	0	n/a	n/a	n/a	36	14	5	2	7
5613381	PROB	n/a	LTP360	ltpFR2	0	n/a	n/a	n/a	36	11	5	4	2
5617750	STOP	n/a	LTP360	ltpFR2	0	n/a	n/a	n/a	36	n/a	n/a	n/a	n/a
5619602	REC_START	n/a	LTP360	ltpFR2	0	24	n/a	n/a	n/a	n/a	0	0	0
5621088	REC_WORD	wordpools/wasnorm_wordpool_576.txt	LTP360	ltpFR2	0	24	LAPEL	800	n/a	n/a	0	0	0
5622545	REC_WORD	wordpools/wasnorm_wordpool_576.txt	LTP360	ltpFR2	0	24	DONKEY	484	n/a	n/a	0	0	0
5623930	REC_WORD	wordpools/wasnorm_wordpool_576.txt	LTP360	ltpFR2	0	24	MARSH	874	n/a	n/a	0	0	0
5637617	REC_WORD	wordpools/wasnorm_wordpool_576.txt	LTP360	ltpFR2	0	24	BOX	159	n/a	n/a	0	0	0
5640224	REC_WORD	wordpools/wasnorm_wordpool_576.txt	LTP360	ltpFR2	0	24	PACKAGE	997	n/a	n/a	0	0	0
5641721	REC_WORD	wordpools/wasnorm_wordpool_576.txt	LTP360	ltpFR2	0	24	VIRUS	1572	n/a	n/a	0	0	0
5701550	SESS_END	n/a	LTP360	ltpFR2	0	24	n/a	n/a	n/a	n/a	0	0	0
