mstime	trial_type	stim_file	subject	experiment	session	trial	item_name	item_num	list	answer	test_x	test_y	test_z
0	SESS_START	n/a	LTP359	ltpFR2	2	n/a	n/a	n/a	n/a	n/a	0	0	0
19098	START	n/a	LTP359	ltpFR2	2	n/a	n/a	n/a	-1	n/a	n/a	n/a	n/a
19112	PROB	n/a	LTP359	ltpFR2	2	n/a	n/a	n/a	-1	18	4	8	6
21470	PROB	n/a	LTP359	ltpFR2	2	n/a	n/a	n/a	-1	18	4	5	9
23342	PROB	n/a	LTP359	ltpFR2	2	n/a	n/a	n/a	-1	13	5	4	4
25047	PROB	n/a	LTP359	ltpFR2	2	n/a	n/a	n/a	-1	11	1	6	4
26736	PROB	n/a	LTP359	ltpFR2	2	n/a	n/a	n/a	-1	21	7	8	6
28877	PROB	n/a	LTP359	ltpFR2	2	n/a	n/a	n/a	-1	13	9	3	1
30536	STOP	n/a	LTP359	ltpFR2	2	n/a	n/a	n/a	-1	n/a	n/a	n/a	n/a
98770	DISTRACTOR	n/a	LTP359	ltpFR2	2	1	n/a	n/a	n/a	n/a	0	0	0
98770	START	n/a	LTP359	ltpFR2	2	n/a	n/a	n/a	1	n/a	n/a	n/a	n/a
98786	PROB	n/a	LTP359	ltpFR2	2	n/a	n/a	n/a	1	16	2	5	9
102616	PROB	n/a	LTP359	ltpFR2	2	n/a	n/a	n/a	1	11	8	1	2
104889	PROB	n/a	LTP359	ltpFR2	2	n/a	n/a	n/a	1	17	7	7	3
106377	PROB	n/a	LTP359	ltpFR2	2	n/a	n/a	n/a	1	26	9	8	9
108083	PROB	n/a	LTP359	ltpFR2	2	n/a	n/a	n/a	1	18	7	4	7
110842	PROB	n/a	LTP359	ltpFR2	2	n/a	n/a	n/a	1	16	8	2	6
112263	PROB	n/a	LTP359	ltpFR2	2	n/a	n/a	n/a	1	19	4	6	9
114186	PROB	n/a	LTP359	ltpFR2	2	n/a	n/a	n/a	1	17	6	4	7
115692	PROB	n/a	LTP359	ltpFR2	2	n/a	n/a	n/a	1	17	3	9	5
117397	PROB	n/a	LTP359	ltpFR2	2	n/a	n/a	n/a	1	18	2	8	8
118952	PROB	n/a	LTP359	ltpFR2	2	n/a	n/a	n/a	1	13	4	1	8
120373	PROB	n/a	LTP359	ltpFR2	2	n/a	n/a	n/a	1	16	8	7	1
122099	STOP	n/a	LTP359	ltpFR2	2	n/a	n/a	n/a	1	n/a	n/a	n/a	n/a
123934	WORD	wordpools/wasnorm_wordpool_576.txt	LTP359	ltpFR2	2	1	COD	340	n/a	n/a	0	0	0
126477	WORD	wordpools/wasnorm_wordpool_576.txt	LTP359	ltpFR2	2	1	CATCHER	258	n/a	n/a	0	0	0
129051	WORD	wordpools/wasnorm_wordpool_576.txt	LTP359	ltpFR2	2	1	DRIVER	499	n/a	n/a	0	0	0
131560	WORD	wordpools/wasnorm_wordpool_576.txt	LTP359	ltpFR2	2	1	HAWK	692	n/a	n/a	0	0	0
134301	WORD	wordpools/wasnorm_wordpool_576.txt	LTP359	ltpFR2	2	1	GLOVE	642	n/a	n/a	0	0	0
136993	WORD	wordpools/wasnorm_wordpool_576.txt	LTP359	ltpFR2	2	1	ARMY	39	n/a	n/a	0	0	0
139620	WORD	wordpools/wasnorm_wordpool_576.txt	LTP359	ltpFR2	2	1	MISSILE	900	n/a	n/a	0	0	0
142327	WORD	wordpools/wasnorm_wordpool_576.txt	LTP359	ltpFR2	2	1	MUSTARD	935	n/a	n/a	0	0	0
144819	WORD	wordpools/wasnorm_wordpool_576.txt	LTP359	ltpFR2	2	1	CHAUFFEUR	283	n/a	n/a	0	0	0
147595	WORD	wordpools/wasnorm_wordpool_576.txt	LTP359	ltpFR2	2	1	DASHBOARD	441	n/a	n/a	0	0	0
150019	WORD	wordpools/wasnorm_wordpool_576.txt	LTP359	ltpFR2	2	1	GUITAR	670	n/a	n/a	0	0	0
152795	WORD	wordpools/wasnorm_wordpool_576.txt	LTP359	ltpFR2	2	1	ANKLE	24	n/a	n/a	0	0	0
155454	WORD	wordpools/wasnorm_wordpool_576.txt	LTP359	ltpFR2	2	1	VIRUS	1572	n/a	n/a	0	0	0
157911	WORD	wordpools/wasnorm_wordpool_576.txt	LTP359	ltpFR2	2	1	SMOG	1330	n/a	n/a	0	0	0
160336	WORD	wordpools/wasnorm_wordpool_576.txt	LTP359	ltpFR2	2	1	FLIPPER	580	n/a	n/a	0	0	0
162877	WORD	wordpools/wasnorm_wordpool_576.txt	LTP359	ltpFR2	2	1	CROSS	413	n/a	n/a	0	0	0
165302	WORD	wordpools/wasnorm_wordpool_576.txt	LTP359	ltpFR2	2	1	TRACTOR	1493	n/a	n/a	0	0	0
167944	WORD	wordpools/wasnorm_wordpool_576.txt	LTP359	ltpFR2	2	1	FRIAR	605	n/a	n/a	0	0	0
170453	WORD	wordpools/wasnorm_wordpool_576.txt	LTP359	ltpFR2	2	1	SCALLOP	1242	n/a	n/a	0	0	0
172910	WORD	wordpools/wasnorm_wordpool_576.txt	LTP359	ltpFR2	2	1	SHARK	1275	n/a	n/a	0	0	0
175368	WORD	wordpools/wasnorm_wordpool_576.txt	LTP359	ltpFR2	2	1	CHURCH	307	n/a	n/a	0	0	0
178160	WORD	wordpools/wasnorm_wordpool_576.txt	LTP359	ltpFR2	2	1	PASTRY	1022	n/a	n/a	0	0	0
180785	WORD	wordpools/wasnorm_wordpool_576.txt	LTP359	ltpFR2	2	1	GUARD	667	n/a	n/a	0	0	0
183562	WORD	wordpools/wasnorm_wordpool_576.txt	LTP359	ltpFR2	2	1	RIFLE	1192	n/a	n/a	0	0	0
185166	START	n/a	LTP359	ltpFR2	2	n/a	n/a	n/a	2	n/a	n/a	n/a	n/a
186110	DISTRACTOR	n/a	LTP359	ltpFR2	2	1	n/a	n/a	n/a	n/a	0	0	0
186119	PROB	n/a	LTP359	ltpFR2	2	n/a	n/a	n/a	2	9	1	1	7
188511	PROB	n/a	LTP359	ltpFR2	2	n/a	n/a	n/a	2	23	8	6	9
191002	PROB	n/a	LTP359	ltpFR2	2	n/a	n/a	n/a	2	17	3	7	7
192389	PROB	n/a	LTP359	ltpFR2	2	n/a	n/a	n/a	2	13	3	9	1
193761	PROB	n/a	LTP359	ltpFR2	2	n/a	n/a	n/a	2	15	2	5	8
195366	PROB	n/a	LTP359	ltpFR2	2	n/a	n/a	n/a	2	11	5	1	5
196904	PROB	n/a	LTP359	ltpFR2	2	n/a	n/a	n/a	2	22	9	8	5
199780	PROB	n/a	LTP359	ltpFR2	2	n/a	n/a	n/a	2	25	9	7	9
202355	PROB	n/a	LTP359	ltpFR2	2	n/a	n/a	n/a	2	20	9	6	5
204194	PROB	n/a	LTP359	ltpFR2	2	n/a	n/a	n/a	2	14	4	7	3
205749	PROB	n/a	LTP359	ltpFR2	2	n/a	n/a	n/a	2	16	4	6	6
207104	PROB	n/a	LTP359	ltpFR2	2	n/a	n/a	n/a	2	16	6	5	5
208348	STOP	n/a	LTP359	ltpFR2	2	n/a	n/a	n/a	2	n/a	n/a	n/a	n/a
211017	REC_START	n/a	LTP359	ltpFR2	2	1	n/a	n/a	n/a	n/a	0	0	0
212060	REC_WORD	wordpools/wasnorm_wordpool_576.txt	LTP359	ltpFR2	2	1	CHURCH	307	n/a	n/a	0	0	0
212974	REC_WORD	wordpools/wasnorm_wordpool_576.txt	LTP359	ltpFR2	2	1	FRIAR	605	n/a	n/a	0	0	0
214113	REC_WORD	wordpools/wasnorm_wordpool_576.txt	LTP359	ltpFR2	2	1	CROSS	413	n/a	n/a	0	0	0
215413	REC_WORD	wordpools/wasnorm_wordpool_576.txt	LTP359	ltpFR2	2	1	ARMY	39	n/a	n/a	0	0	0
217659	REC_WORD	wordpools/wasnorm_wordpool_576.txt	LTP359	ltpFR2	2	1	TRACTOR	1493	n/a	n/a	0	0	0
218918	REC_WORD	wordpools/wasnorm_wordpool_576.txt	LTP359	ltpFR2	2	1	MISSILE	900	n/a	n/a	0	0	0
220130	REC_WORD	wordpools/wasnorm_wordpool_576.txt	LTP359	ltpFR2	2	1	SMOG	1330	n/a	n/a	0	0	0
222141	REC_WORD	wordpools/wasnorm_wordpool_576.txt	LTP359	ltpFR2	2	1	VIRUS	1572	n/a	n/a	0	0	0
228666	REC_WORD	wordpools/wasnorm_wordpool_576.txt	LTP359	ltpFR2	2	1	COD	340	n/a	n/a	0	0	0
231207	REC_WORD	wordpools/wasnorm_wordpool_576.txt	LTP359	ltpFR2	2	1	HAWK	692	n/a	n/a	0	0	0
232148	REC_WORD	wordpools/wasnorm_wordpool_576.txt	LTP359	ltpFR2	2	1	SCALLOP	1242	n/a	n/a	0	0	0
233348	REC_WORD	wordpools/wasnorm_wordpool_576.txt	LTP359	ltpFR2	2	1	SHARK	1275	n/a	n/a	0	0	0
235210	REC_WORD	wordpools/wasnorm_wordpool_576.txt	LTP359	ltpFR2	2	1	GLOVE	642	n/a	n/a	0	0	0
236346	REC_WORD	wordpools/wasnorm_wordpool_576.txt	LTP359	ltpFR2	2	1	DASHBOARD	441	n/a	n/a	0	0	0
237365	REC_WORD	wordpools/wasnorm_wordpool_576.txt	LTP359	ltpFR2	2	1	DRIVER	499	n/a	n/a	0	0	0
239159	REC_WORD	wordpools/wasnorm_wordpool_576.txt	LTP359	ltpFR2	2	1	CHAUFFEUR	283	n/a	n/a	0	0	0
257991	REC_WORD	wordpools/wasnorm_wordpool_576.txt	LTP359	ltpFR2	2	1	ARMY	39	n/a	n/a	0	0	0
274461	REC_WORD	wordpools/wasnorm_wordpool_576.txt	LTP359	ltpFR2	2	1	FLIPPER	580	n/a	n/a	0	0	0
278721	REC_WORD	wordpools/wasnorm_wordpool_576.txt	LTP359	ltpFR2	2	1	MUSTARD	935	n/a	n/a	0	0	0
283824	REC_WORD	wordpools/wasnorm_wordpool_576.txt	LTP359	ltpFR2	2	1	TRACTOR	1493	n/a	n/a	0	0	0
301460	DISTRACTOR	n/a	LTP359	ltpFR2	2	2	n/a	n/a	n/a	n/a	0	0	0
301461	START	n/a	LTP359	ltpFR2	2	n/a	n/a	n/a	3	n/a	n/a	n/a	n/a
301477	PROB	n/a	LTP359	ltpFR2	2	n/a	n/a	n/a	3	15	6	2	7
303617	PROB	n/a	LTP359	ltpFR2	2	n/a	n/a	n/a	3	13	2	9	2
305389	PROB	n/a	LTP359	ltpFR2	2	n/a	n/a	n/a	3	17	2	7	7
306927	PROB	n/a	LTP359	ltpFR2	2	n/a	n/a	n/a	3	18	3	6	9
310087	PROB	n/a	LTP359	ltpFR2	2	n/a	n/a	n/a	3	17	8	6	3
311677	PROB	n/a	LTP359	ltpFR2	2	n/a	n/a	n/a	3	13	4	6	3
312813	PROB	n/a	LTP359	ltpFR2	2	n/a	n/a	n/a	3	14	3	7	4
314736	PROB	n/a	LTP359	ltpFR2	2	n/a	n/a	n/a	3	19	7	5	7
317361	PROB	n/a	LTP359	ltpFR2	2	n/a	n/a	n/a	3	10	2	5	3
319117	PROB	n/a	LTP359	ltpFR2	2	n/a	n/a	n/a	3	24	6	9	9
320755	PROB	n/a	LTP359	ltpFR2	2	n/a	n/a	n/a	3	18	8	4	6
322495	PROB	n/a	LTP359	ltpFR2	2	n/a	n/a	n/a	3	16	3	5	8
324327	STOP	n/a	LTP359	ltpFR2	2	n/a	n/a	n/a	3	n/a	n/a	n/a	n/a
326323	WORD	wordpools/wasnorm_wordpool_576.txt	LTP359	ltpFR2	2	2	RATTLE	1170	n/a	n/a	0	0	0
328798	WORD	wordpools/wasnorm_wordpool_576.txt	LTP359	ltpFR2	2	2	DUSTPAN	509	n/a	n/a	0	0	0
331341	WORD	wordpools/wasnorm_wordpool_576.txt	LTP359	ltpFR2	2	2	KITCHEN	778	n/a	n/a	0	0	0
334115	WORD	wordpools/wasnorm_wordpool_576.txt	LTP359	ltpFR2	2	2	DENTIST	447	n/a	n/a	0	0	0
336557	WORD	wordpools/wasnorm_wordpool_576.txt	LTP359	ltpFR2	2	2	ROD	1203	n/a	n/a	0	0	0
339349	WORD	wordpools/wasnorm_wordpool_576.txt	LTP359	ltpFR2	2	2	CRAB	397	n/a	n/a	0	0	0
341974	WORD	wordpools/wasnorm_wordpool_576.txt	LTP359	ltpFR2	2	2	PUPPY	1144	n/a	n/a	0	0	0
344416	WORD	wordpools/wasnorm_wordpool_576.txt	LTP359	ltpFR2	2	2	FOREST	593	n/a	n/a	0	0	0
347057	WORD	wordpools/wasnorm_wordpool_576.txt	LTP359	ltpFR2	2	2	BURGLAR	200	n/a	n/a	0	0	0
349766	WORD	wordpools/wasnorm_wordpool_576.txt	LTP359	ltpFR2	2	2	BUTCHER	203	n/a	n/a	0	0	0
352274	WORD	wordpools/wasnorm_wordpool_576.txt	LTP359	ltpFR2	2	2	WARDROBE	1587	n/a	n/a	0	0	0
354933	WORD	wordpools/wasnorm_wordpool_576.txt	LTP359	ltpFR2	2	2	GREASE	660	n/a	n/a	0	0	0
357742	WORD	wordpools/wasnorm_wordpool_576.txt	LTP359	ltpFR2	2	2	BARREL	91	n/a	n/a	0	0	0
360350	WORD	wordpools/wasnorm_wordpool_576.txt	LTP359	ltpFR2	2	2	FUNGUS	614	n/a	n/a	0	0	0
363009	WORD	wordpools/wasnorm_wordpool_576.txt	LTP359	ltpFR2	2	2	ISLAND	745	n/a	n/a	0	0	0
365568	WORD	wordpools/wasnorm_wordpool_576.txt	LTP359	ltpFR2	2	2	SAUSAGE	1238	n/a	n/a	0	0	0
368125	WORD	wordpools/wasnorm_wordpool_576.txt	LTP359	ltpFR2	2	2	BANK	83	n/a	n/a	0	0	0
370867	WORD	wordpools/wasnorm_wordpool_576.txt	LTP359	ltpFR2	2	2	RACKET	1155	n/a	n/a	0	0	0
373427	WORD	wordpools/wasnorm_wordpool_576.txt	LTP359	ltpFR2	2	2	JUGGLER	763	n/a	n/a	0	0	0
376034	WORD	wordpools/wasnorm_wordpool_576.txt	LTP359	ltpFR2	2	2	BEEF	113	n/a	n/a	0	0	0
378727	WORD	wordpools/wasnorm_wordpool_576.txt	LTP359	ltpFR2	2	2	BIKE	125	n/a	n/a	0	0	0
381218	WORD	wordpools/wasnorm_wordpool_576.txt	LTP359	ltpFR2	2	2	HELMET	702	n/a	n/a	0	0	0
383826	WORD	wordpools/wasnorm_wordpool_576.txt	LTP359	ltpFR2	2	2	REBEL	1172	n/a	n/a	0	0	0
386267	WORD	wordpools/wasnorm_wordpool_576.txt	LTP359	ltpFR2	2	2	QUARTER	1148	n/a	n/a	0	0	0
387873	START	n/a	LTP359	ltpFR2	2	n/a	n/a	n/a	4	n/a	n/a	n/a	n/a
388902	DISTRACTOR	n/a	LTP359	ltpFR2	2	2	n/a	n/a	n/a	n/a	0	0	0
388909	PROB	n/a	LTP359	ltpFR2	2	n/a	n/a	n/a	4	12	8	2	2
391384	PROB	n/a	LTP359	ltpFR2	2	n/a	n/a	n/a	4	6	1	3	2
393407	PROB	n/a	LTP359	ltpFR2	2	n/a	n/a	n/a	4	9	3	1	5
395565	PROB	n/a	LTP359	ltpFR2	2	n/a	n/a	n/a	4	15	6	3	6
398542	PROB	n/a	LTP359	ltpFR2	2	n/a	n/a	n/a	4	13	5	2	6
399928	PROB	n/a	LTP359	ltpFR2	2	n/a	n/a	n/a	4	19	9	1	9
401299	PROB	n/a	LTP359	ltpFR2	2	n/a	n/a	n/a	4	16	1	8	7
403858	PROB	n/a	LTP359	ltpFR2	2	n/a	n/a	n/a	4	16	7	1	8
405564	PROB	n/a	LTP359	ltpFR2	2	n/a	n/a	n/a	4	20	2	9	9
408305	PROB	n/a	LTP359	ltpFR2	2	n/a	n/a	n/a	4	16	1	6	9
410078	PROB	n/a	LTP359	ltpFR2	2	n/a	n/a	n/a	4	11	3	3	5
411419	STOP	n/a	LTP359	ltpFR2	2	n/a	n/a	n/a	4	n/a	n/a	n/a	n/a
413808	REC_START	n/a	LTP359	ltpFR2	2	2	n/a	n/a	n/a	n/a	0	0	0
414432	REC_WORD	wordpools/wasnorm_wordpool_576.txt	LTP359	ltpFR2	2	2	RATTLE	1170	n/a	n/a	0	0	0
419886	REC_WORD	wordpools/wasnorm_wordpool_576.txt	LTP359	ltpFR2	2	2	FOREST	593	n/a	n/a	0	0	0
421594	REC_WORD	wordpools/wasnorm_wordpool_576.txt	LTP359	ltpFR2	2	2	PUPPY	1144	n/a	n/a	0	0	0
422815	REC_WORD	wordpools/wasnorm_wordpool_576.txt	LTP359	ltpFR2	2	2	ROD	1203	n/a	n/a	0	0	0
425953	REC_WORD	wordpools/wasnorm_wordpool_576.txt	LTP359	ltpFR2	2	2	RIFLE	1192	n/a	n/a	0	0	0
426993	REC_WORD	wordpools/wasnorm_wordpool_576.txt	LTP359	ltpFR2	2	2	FUNGUS	614	n/a	n/a	0	0	0
428873	REC_WORD	wordpools/wasnorm_wordpool_576.txt	LTP359	ltpFR2	2	2	DENTIST	447	n/a	n/a	0	0	0
429771	REC_WORD	wordpools/wasnorm_wordpool_576.txt	LTP359	ltpFR2	2	2	KITCHEN	778	n/a	n/a	0	0	0
430959	REC_WORD	wordpools/wasnorm_wordpool_576.txt	LTP359	ltpFR2	2	2	ISLAND	745	n/a	n/a	0	0	0
431861	REC_WORD	wordpools/wasnorm_wordpool_576.txt	LTP359	ltpFR2	2	2	SAUSAGE	1238	n/a	n/a	0	0	0
434552	REC_WORD	wordpools/wasnorm_wordpool_576.txt	LTP359	ltpFR2	2	2	DUSTPAN	509	n/a	n/a	0	0	0
438950	REC_WORD	wordpools/wasnorm_wordpool_576.txt	LTP359	ltpFR2	2	2	REBEL	1172	n/a	n/a	0	0	0
440587	REC_WORD	wordpools/wasnorm_wordpool_576.txt	LTP359	ltpFR2	2	2	BIKE	125	n/a	n/a	0	0	0
441345	REC_WORD	wordpools/wasnorm_wordpool_576.txt	LTP359	ltpFR2	2	2	HELMET	702	n/a	n/a	0	0	0
442294	REC_WORD	wordpools/wasnorm_wordpool_576.txt	LTP359	ltpFR2	2	2	QUARTER	1148	n/a	n/a	0	0	0
443786	REC_WORD	wordpools/wasnorm_wordpool_576.txt	LTP359	ltpFR2	2	2	JUGGLER	763	n/a	n/a	0	0	0
445117	REC_WORD	wordpools/wasnorm_wordpool_576.txt	LTP359	ltpFR2	2	2	BEEF	113	n/a	n/a	0	0	0
445991	REC_WORD	wordpools/wasnorm_wordpool_576.txt	LTP359	ltpFR2	2	2	BUTCHER	203	n/a	n/a	0	0	0
446949	REC_WORD	wordpools/wasnorm_wordpool_576.txt	LTP359	ltpFR2	2	2	BURGLAR	200	n/a	n/a	0	0	0
448418	REC_WORD	wordpools/wasnorm_wordpool_576.txt	LTP359	ltpFR2	2	2	BANK	83	n/a	n/a	0	0	0
469162	REC_WORD	wordpools/wasnorm_wordpool_576.txt	LTP359	ltpFR2	2	2	ISLAND	745	n/a	n/a	0	0	0
470027	REC_WORD	wordpools/wasnorm_wordpool_576.txt	LTP359	ltpFR2	2	2	WARDROBE	1587	n/a	n/a	0	0	0
504266	WORD	wordpools/wasnorm_wordpool_576.txt	LTP359	ltpFR2	2	3	MASK	876	n/a	n/a	0	0	0
506825	WORD	wordpools/wasnorm_wordpool_576.txt	LTP359	ltpFR2	2	3	FLUTE	585	n/a	n/a	0	0	0
509366	WORD	wordpools/wasnorm_wordpool_576.txt	LTP359	ltpFR2	2	3	XEROX	1628	n/a	n/a	0	0	0
511924	WORD	wordpools/wasnorm_wordpool_576.txt	LTP359	ltpFR2	2	3	FIREMAN	569	n/a	n/a	0	0	0
514750	WORD	wordpools/wasnorm_wordpool_576.txt	LTP359	ltpFR2	2	3	ANTLER	29	n/a	n/a	0	0	0
517342	WORD	wordpools/wasnorm_wordpool_576.txt	LTP359	ltpFR2	2	3	FARMER	553	n/a	n/a	0	0	0
519833	WORD	wordpools/wasnorm_wordpool_576.txt	LTP359	ltpFR2	2	3	BISON	131	n/a	n/a	0	0	0
522426	WORD	wordpools/wasnorm_wordpool_576.txt	LTP359	ltpFR2	2	3	FOOTBALL	591	n/a	n/a	0	0	0
524866	WORD	wordpools/wasnorm_wordpool_576.txt	LTP359	ltpFR2	2	3	PEDAL	1037	n/a	n/a	0	0	0
527308	WORD	wordpools/wasnorm_wordpool_576.txt	LTP359	ltpFR2	2	3	BRAKE	166	n/a	n/a	0	0	0
530050	WORD	wordpools/wasnorm_wordpool_576.txt	LTP359	ltpFR2	2	3	SCOTCH	1251	n/a	n/a	0	0	0
532659	WORD	wordpools/wasnorm_wordpool_576.txt	LTP359	ltpFR2	2	3	BOUQUET	157	n/a	n/a	0	0	0
535334	WORD	wordpools/wasnorm_wordpool_576.txt	LTP359	ltpFR2	2	3	MUFFIN	929	n/a	n/a	0	0	0
538009	WORD	wordpools/wasnorm_wordpool_576.txt	LTP359	ltpFR2	2	3	PIANO	1057	n/a	n/a	0	0	0
540685	WORD	wordpools/wasnorm_wordpool_576.txt	LTP359	ltpFR2	2	3	PIZZA	1079	n/a	n/a	0	0	0
543427	WORD	wordpools/wasnorm_wordpool_576.txt	LTP359	ltpFR2	2	3	BUGGY	188	n/a	n/a	0	0	0
546202	WORD	wordpools/wasnorm_wordpool_576.txt	LTP359	ltpFR2	2	3	CARRIAGE	248	n/a	n/a	0	0	0
548794	WORD	wordpools/wasnorm_wordpool_576.txt	LTP359	ltpFR2	2	3	SHRUB	1299	n/a	n/a	0	0	0
551354	WORD	wordpools/wasnorm_wordpool_576.txt	LTP359	ltpFR2	2	3	SOFTBALL	1343	n/a	n/a	0	0	0
553844	WORD	wordpools/wasnorm_wordpool_576.txt	LTP359	ltpFR2	2	3	WRIST	1626	n/a	n/a	0	0	0
556335	WORD	wordpools/wasnorm_wordpool_576.txt	LTP359	ltpFR2	2	3	AUTHOR	61	n/a	n/a	0	0	0
558927	WORD	wordpools/wasnorm_wordpool_576.txt	LTP359	ltpFR2	2	3	PISTON	1076	n/a	n/a	0	0	0
561401	WORD	wordpools/wasnorm_wordpool_576.txt	LTP359	ltpFR2	2	3	FLOWER	584	n/a	n/a	0	0	0
563859	WORD	wordpools/wasnorm_wordpool_576.txt	LTP359	ltpFR2	2	3	ARM	38	n/a	n/a	0	0	0
565466	START	n/a	LTP359	ltpFR2	2	n/a	n/a	n/a	5	n/a	n/a	n/a	n/a
566266	DISTRACTOR	n/a	LTP359	ltpFR2	2	3	n/a	n/a	n/a	n/a	0	0	0
566267	PROB	n/a	LTP359	ltpFR2	2	n/a	n/a	n/a	5	17	5	6	6
569829	PROB	n/a	LTP359	ltpFR2	2	n/a	n/a	n/a	5	19	2	9	8
571485	PROB	n/a	LTP359	ltpFR2	2	n/a	n/a	n/a	5	14	8	4	2
572672	PROB	n/a	LTP359	ltpFR2	2	n/a	n/a	n/a	5	19	9	6	4
574126	PROB	n/a	LTP359	ltpFR2	2	n/a	n/a	n/a	5	11	2	2	7
575213	PROB	n/a	LTP359	ltpFR2	2	n/a	n/a	n/a	5	9	4	4	1
576535	PROB	n/a	LTP359	ltpFR2	2	n/a	n/a	n/a	5	10	4	5	1
577672	PROB	n/a	LTP359	ltpFR2	2	n/a	n/a	n/a	5	20	2	9	9
579242	PROB	n/a	LTP359	ltpFR2	2	n/a	n/a	n/a	5	14	2	3	9
581249	PROB	n/a	LTP359	ltpFR2	2	n/a	n/a	n/a	5	16	6	8	2
582705	PROB	n/a	LTP359	ltpFR2	2	n/a	n/a	n/a	5	12	7	3	2
583924	PROB	n/a	LTP359	ltpFR2	2	n/a	n/a	n/a	5	16	1	9	6
585228	PROB	n/a	LTP359	ltpFR2	2	n/a	n/a	n/a	5	15	5	3	7
587520	PROB	n/a	LTP359	ltpFR2	2	n/a	n/a	n/a	5	18	8	1	9
589127	STOP	n/a	LTP359	ltpFR2	2	n/a	n/a	n/a	5	n/a	n/a	n/a	n/a
591215	REC_START	n/a	LTP359	ltpFR2	2	3	n/a	n/a	n/a	n/a	0	0	0
591757	REC_WORD	wordpools/wasnorm_wordpool_576.txt	LTP359	ltpFR2	2	3	WRIST	1626	n/a	n/a	0	0	0
592893	REC_WORD	wordpools/wasnorm_wordpool_576.txt	LTP359	ltpFR2	2	3	ARM	38	n/a	n/a	0	0	0
595305	REC_WORD	wordpools/wasnorm_wordpool_576.txt	LTP359	ltpFR2	2	3	AUTHOR	61	n/a	n/a	0	0	0
596174	REC_WORD	wordpools/wasnorm_wordpool_576.txt	LTP359	ltpFR2	2	3	XEROX	1628	n/a	n/a	0	0	0
597350	REC_WORD	wordpools/wasnorm_wordpool_576.txt	LTP359	ltpFR2	2	3	FOOTBALL	591	n/a	n/a	0	0	0
598749	REC_WORD	wordpools/wasnorm_wordpool_576.txt	LTP359	ltpFR2	2	3	SOFTBALL	1343	n/a	n/a	0	0	0
600003	REC_WORD	wordpools/wasnorm_wordpool_576.txt	LTP359	ltpFR2	2	3	BOUQUET	157	n/a	n/a	0	0	0
601114	REC_WORD	wordpools/wasnorm_wordpool_576.txt	LTP359	ltpFR2	2	3	FLOWER	584	n/a	n/a	0	0	0
602288	REC_WORD	wordpools/wasnorm_wordpool_576.txt	LTP359	ltpFR2	2	3	MUFFIN	929	n/a	n/a	0	0	0
604140	REC_WORD	wordpools/wasnorm_wordpool_576.txt	LTP359	ltpFR2	2	3	FIREMAN	569	n/a	n/a	0	0	0
605246	REC_WORD	wordpools/wasnorm_wordpool_576.txt	LTP359	ltpFR2	2	3	MASK	876	n/a	n/a	0	0	0
606098	REC_WORD	wordpools/wasnorm_wordpool_576.txt	LTP359	ltpFR2	2	3	FLUTE	585	n/a	n/a	0	0	0
608412	REC_WORD	wordpools/wasnorm_wordpool_576.txt	LTP359	ltpFR2	2	3	SHRUB	1299	n/a	n/a	0	0	0
609617	REC_WORD	wordpools/wasnorm_wordpool_576.txt	LTP359	ltpFR2	2	3	ANTLER	29	n/a	n/a	0	0	0
611825	REC_WORD	wordpools/wasnorm_wordpool_576.txt	LTP359	ltpFR2	2	3	PISTOL	1075	n/a	n/a	0	0	0
612938	REC_WORD	wordpools/wasnorm_wordpool_576.txt	LTP359	ltpFR2	2	3	BISON	131	n/a	n/a	0	0	0
614408	REC_WORD	wordpools/wasnorm_wordpool_576.txt	LTP359	ltpFR2	2	3	FARMER	553	n/a	n/a	0	0	0
615651	REC_WORD	wordpools/wasnorm_wordpool_576.txt	LTP359	ltpFR2	2	3	BUGGY	188	n/a	n/a	0	0	0
616503	REC_WORD	wordpools/wasnorm_wordpool_576.txt	LTP359	ltpFR2	2	3	CARRIAGE	248	n/a	n/a	0	0	0
618460	REC_WORD	wordpools/wasnorm_wordpool_576.txt	LTP359	ltpFR2	2	3	BRAKE	166	n/a	n/a	0	0	0
619410	REC_WORD	wordpools/wasnorm_wordpool_576.txt	LTP359	ltpFR2	2	3	PEDAL	1037	n/a	n/a	0	0	0
626834	REC_WORD	wordpools/wasnorm_wordpool_576.txt	LTP359	ltpFR2	2	3	FIREMAN	569	n/a	n/a	0	0	0
637973	REC_WORD	wordpools/wasnorm_wordpool_576.txt	LTP359	ltpFR2	2	3	SCOTCH	1251	n/a	n/a	0	0	0
648547	REC_WORD	wordpools/wasnorm_wordpool_576.txt	LTP359	ltpFR2	2	3	PIZZA	1079	n/a	n/a	0	0	0
650092	REC_WORD	wordpools/wasnorm_wordpool_576.txt	LTP359	ltpFR2	2	3	PIANO	1057	n/a	n/a	0	0	0
681659	DISTRACTOR	n/a	LTP359	ltpFR2	2	4	n/a	n/a	n/a	n/a	0	0	0
681659	START	n/a	LTP359	ltpFR2	2	n/a	n/a	n/a	6	n/a	n/a	n/a	n/a
681675	PROB	n/a	LTP359	ltpFR2	2	n/a	n/a	n/a	6	11	9	1	1
684015	PROB	n/a	LTP359	ltpFR2	2	n/a	n/a	n/a	6	21	8	6	7
687393	PROB	n/a	LTP359	ltpFR2	2	n/a	n/a	n/a	6	18	7	8	3
689299	PROB	n/a	LTP359	ltpFR2	2	n/a	n/a	n/a	6	13	9	3	1
691691	PROB	n/a	LTP359	ltpFR2	2	n/a	n/a	n/a	6	19	9	3	7
693044	PROB	n/a	LTP359	ltpFR2	2	n/a	n/a	n/a	6	19	4	9	6
695654	PROB	n/a	LTP359	ltpFR2	2	n/a	n/a	n/a	6	19	9	2	8
697107	PROB	n/a	LTP359	ltpFR2	2	n/a	n/a	n/a	6	20	5	8	7
699014	PROB	n/a	LTP359	ltpFR2	2	n/a	n/a	n/a	6	10	6	2	2
700853	PROB	n/a	LTP359	ltpFR2	2	n/a	n/a	n/a	6	13	2	4	7
702543	PROB	n/a	LTP359	ltpFR2	2	n/a	n/a	n/a	6	17	6	5	6
704963	STOP	n/a	LTP359	ltpFR2	2	n/a	n/a	n/a	6	n/a	n/a	n/a	n/a
706706	WORD	wordpools/wasnorm_wordpool_576.txt	LTP359	ltpFR2	2	4	AWARD	63	n/a	n/a	0	0	0
709247	WORD	wordpools/wasnorm_wordpool_576.txt	LTP359	ltpFR2	2	4	MEDAL	885	n/a	n/a	0	0	0
711822	WORD	wordpools/wasnorm_wordpool_576.txt	LTP359	ltpFR2	2	4	EAGLE	512	n/a	n/a	0	0	0
714397	WORD	wordpools/wasnorm_wordpool_576.txt	LTP359	ltpFR2	2	4	CHILD	299	n/a	n/a	0	0	0
717055	WORD	wordpools/wasnorm_wordpool_576.txt	LTP359	ltpFR2	2	4	OX	994	n/a	n/a	0	0	0
719764	WORD	wordpools/wasnorm_wordpool_576.txt	LTP359	ltpFR2	2	4	PLATE	1086	n/a	n/a	0	0	0
722239	WORD	wordpools/wasnorm_wordpool_576.txt	LTP359	ltpFR2	2	4	GROUND	666	n/a	n/a	0	0	0
724814	WORD	wordpools/wasnorm_wordpool_576.txt	LTP359	ltpFR2	2	4	FRUIT	610	n/a	n/a	0	0	0
727440	WORD	wordpools/wasnorm_wordpool_576.txt	LTP359	ltpFR2	2	4	GAZELLE	628	n/a	n/a	0	0	0
729997	WORD	wordpools/wasnorm_wordpool_576.txt	LTP359	ltpFR2	2	4	CRIB	407	n/a	n/a	0	0	0
732440	WORD	wordpools/wasnorm_wordpool_576.txt	LTP359	ltpFR2	2	4	CLOCK	325	n/a	n/a	0	0	0
734930	WORD	wordpools/wasnorm_wordpool_576.txt	LTP359	ltpFR2	2	4	PIGMENT	1066	n/a	n/a	0	0	0
737489	WORD	wordpools/wasnorm_wordpool_576.txt	LTP359	ltpFR2	2	4	INFANT	737	n/a	n/a	0	0	0
740231	WORD	wordpools/wasnorm_wordpool_576.txt	LTP359	ltpFR2	2	4	EUROPE	541	n/a	n/a	0	0	0
742755	WORD	wordpools/wasnorm_wordpool_576.txt	LTP359	ltpFR2	2	4	PLASTER	1085	n/a	n/a	0	0	0
745314	WORD	wordpools/wasnorm_wordpool_576.txt	LTP359	ltpFR2	2	4	ACTOR	5	n/a	n/a	0	0	0
747805	WORD	wordpools/wasnorm_wordpool_576.txt	LTP359	ltpFR2	2	4	GARBAGE	622	n/a	n/a	0	0	0
750448	WORD	wordpools/wasnorm_wordpool_576.txt	LTP359	ltpFR2	2	4	CYCLONE	431	n/a	n/a	0	0	0
753256	WORD	wordpools/wasnorm_wordpool_576.txt	LTP359	ltpFR2	2	4	LAGOON	795	n/a	n/a	0	0	0
756048	WORD	wordpools/wasnorm_wordpool_576.txt	LTP359	ltpFR2	2	4	CIGAR	308	n/a	n/a	0	0	0
758691	WORD	wordpools/wasnorm_wordpool_576.txt	LTP359	ltpFR2	2	4	STAR	1373	n/a	n/a	0	0	0
761299	WORD	wordpools/wasnorm_wordpool_576.txt	LTP359	ltpFR2	2	4	BEAVER	109	n/a	n/a	0	0	0
764058	WORD	wordpools/wasnorm_wordpool_576.txt	LTP359	ltpFR2	2	4	ATLAS	53	n/a	n/a	0	0	0
766584	WORD	wordpools/wasnorm_wordpool_576.txt	LTP359	ltpFR2	2	4	THIEF	1456	n/a	n/a	0	0	0
768188	START	n/a	LTP359	ltpFR2	2	n/a	n/a	n/a	7	n/a	n/a	n/a	n/a
769247	DISTRACTOR	n/a	LTP359	ltpFR2	2	4	n/a	n/a	n/a	n/a	0	0	0
769258	PROB	n/a	LTP359	ltpFR2	2	n/a	n/a	n/a	7	20	8	4	8
772201	PROB	n/a	LTP359	ltpFR2	2	n/a	n/a	n/a	7	22	6	8	8
773940	PROB	n/a	LTP359	ltpFR2	2	n/a	n/a	n/a	7	11	2	6	3
775328	PROB	n/a	LTP359	ltpFR2	2	n/a	n/a	n/a	7	18	7	2	9
776966	PROB	n/a	LTP359	ltpFR2	2	n/a	n/a	n/a	7	12	5	1	6
778489	PROB	n/a	LTP359	ltpFR2	2	n/a	n/a	n/a	7	18	5	6	7
779959	PROB	n/a	LTP359	ltpFR2	2	n/a	n/a	n/a	7	20	8	8	4
781782	PROB	n/a	LTP359	ltpFR2	2	n/a	n/a	n/a	7	22	7	8	7
783772	PROB	n/a	LTP359	ltpFR2	2	n/a	n/a	n/a	7	15	1	9	5
784959	PROB	n/a	LTP359	ltpFR2	2	n/a	n/a	n/a	7	16	1	9	6
789273	PROB	n/a	LTP359	ltpFR2	2	n/a	n/a	n/a	7	11	2	7	2
791805	STOP	n/a	LTP359	ltpFR2	2	n/a	n/a	n/a	7	n/a	n/a	n/a	n/a
794072	REC_START	n/a	LTP359	ltpFR2	2	4	n/a	n/a	n/a	n/a	0	0	0
794705	REC_WORD	wordpools/wasnorm_wordpool_576.txt	LTP359	ltpFR2	2	4	BEAVER	109	n/a	n/a	0	0	0
795926	REC_WORD	wordpools/wasnorm_wordpool_576.txt	LTP359	ltpFR2	2	4	ATLAS	53	n/a	n/a	0	0	0
797131	REC_WORD	wordpools/wasnorm_wordpool_576.txt	LTP359	ltpFR2	2	4	THIEF	1456	n/a	n/a	0	0	0
799083	REC_WORD	wordpools/wasnorm_wordpool_576.txt	LTP359	ltpFR2	2	4	INFANT	737	n/a	n/a	0	0	0
800582	REC_WORD	wordpools/wasnorm_wordpool_576.txt	LTP359	ltpFR2	2	4	CRIB	407	n/a	n/a	0	0	0
801565	REC_WORD	wordpools/wasnorm_wordpool_576.txt	LTP359	ltpFR2	2	4	EUROPE	541	n/a	n/a	0	0	0
802414	REC_WORD	wordpools/wasnorm_wordpool_576.txt	LTP359	ltpFR2	2	4	PLASTER	1085	n/a	n/a	0	0	0
803583	REC_WORD	wordpools/wasnorm_wordpool_576.txt	LTP359	ltpFR2	2	4	PIGMENT	1066	n/a	n/a	0	0	0
805204	REC_WORD	wordpools/wasnorm_wordpool_576.txt	LTP359	ltpFR2	2	4	CLOCK	325	n/a	n/a	0	0	0
807623	REC_WORD	wordpools/wasnorm_wordpool_576.txt	LTP359	ltpFR2	2	4	ACTOR	5	n/a	n/a	0	0	0
808504	REC_WORD	wordpools/wasnorm_wordpool_576.txt	LTP359	ltpFR2	2	4	GARBAGE	622	n/a	n/a	0	0	0
809471	REC_WORD	wordpools/wasnorm_wordpool_576.txt	LTP359	ltpFR2	2	4	CYCLONE	431	n/a	n/a	0	0	0
811076	REC_WORD	wordpools/wasnorm_wordpool_576.txt	LTP359	ltpFR2	2	4	LAGOON	795	n/a	n/a	0	0	0
813068	REC_WORD	wordpools/wasnorm_wordpool_576.txt	LTP359	ltpFR2	2	4	STAR	1373	n/a	n/a	0	0	0
814228	REC_WORD	wordpools/wasnorm_wordpool_576.txt	LTP359	ltpFR2	2	4	CIGAR	308	n/a	n/a	0	0	0
817508	REC_WORD	wordpools/wasnorm_wordpool_576.txt	LTP359	ltpFR2	2	4	CHILD	299	n/a	n/a	0	0	0
818494	REC_WORD	wordpools/wasnorm_wordpool_576.txt	LTP359	ltpFR2	2	4	EAGLE	512	n/a	n/a	0	0	0
819425	REC_WORD	wordpools/wasnorm_wordpool_576.txt	LTP359	ltpFR2	2	4	OX	994	n/a	n/a	0	0	0
820184	REC_WORD	wordpools/wasnorm_wordpool_576.txt	LTP359	ltpFR2	2	4	FRUIT	610	n/a	n/a	0	0	0
821128	REC_WORD	wordpools/wasnorm_wordpool_576.txt	LTP359	ltpFR2	2	4	PLATE	1086	n/a	n/a	0	0	0
821900	REC_WORD	wordpools/wasnorm_wordpool_576.txt	LTP359	ltpFR2	2	4	GAZELLE	628	n/a	n/a	0	0	0
825660	REC_WORD	wordpools/wasnorm_wordpool_576.txt	LTP359	ltpFR2	2	4	AWARD	63	n/a	n/a	0	0	0
827523	REC_WORD	wordpools/wasnorm_wordpool_576.txt	LTP359	ltpFR2	2	4	MEDAL	885	n/a	n/a	0	0	0
833377	REC_WORD	wordpools/wasnorm_wordpool_576.txt	LTP359	ltpFR2	2	4	CRIB	407	n/a	n/a	0	0	0
850050	REC_WORD	wordpools/wasnorm_wordpool_576.txt	LTP359	ltpFR2	2	4	PLASTER	1085	n/a	n/a	0	0	0
884516	DISTRACTOR	n/a	LTP359	ltpFR2	2	5	n/a	n/a	n/a	n/a	0	0	0
884516	START	n/a	LTP359	ltpFR2	2	n/a	n/a	n/a	8	n/a	n/a	n/a	n/a
884532	PROB	n/a	LTP359	ltpFR2	2	n/a	n/a	n/a	8	13	3	9	1
886706	PROB	n/a	LTP359	ltpFR2	2	n/a	n/a	n/a	8	18	7	7	4
889163	PROB	n/a	LTP359	ltpFR2	2	n/a	n/a	n/a	8	11	5	4	2
890367	PROB	n/a	LTP359	ltpFR2	2	n/a	n/a	n/a	8	16	1	8	7
891755	PROB	n/a	LTP359	ltpFR2	2	n/a	n/a	n/a	8	13	2	7	4
894682	PROB	n/a	LTP359	ltpFR2	2	n/a	n/a	n/a	8	16	6	4	6
895985	PROB	n/a	LTP359	ltpFR2	2	n/a	n/a	n/a	8	16	5	9	2
897491	PROB	n/a	LTP359	ltpFR2	2	n/a	n/a	n/a	8	22	8	6	8
899648	PROB	n/a	LTP359	ltpFR2	2	n/a	n/a	n/a	8	10	1	3	6
900851	PROB	n/a	LTP359	ltpFR2	2	n/a	n/a	n/a	8	17	1	7	9
902557	PROB	n/a	LTP359	ltpFR2	2	n/a	n/a	n/a	8	21	8	7	6
904797	PROB	n/a	LTP359	ltpFR2	2	n/a	n/a	n/a	8	18	7	2	9
906101	PROB	n/a	LTP359	ltpFR2	2	n/a	n/a	n/a	8	15	2	4	9
907649	STOP	n/a	LTP359	ltpFR2	2	n/a	n/a	n/a	8	n/a	n/a	n/a	n/a
909714	WORD	wordpools/wasnorm_wordpool_576.txt	LTP359	ltpFR2	2	5	DANCER	437	n/a	n/a	0	0	0
912137	WORD	wordpools/wasnorm_wordpool_576.txt	LTP359	ltpFR2	2	5	ASIA	46	n/a	n/a	0	0	0
914630	WORD	wordpools/wasnorm_wordpool_576.txt	LTP359	ltpFR2	2	5	WITNESS	1618	n/a	n/a	0	0	0
917137	WORD	wordpools/wasnorm_wordpool_576.txt	LTP359	ltpFR2	2	5	TAXI	1438	n/a	n/a	0	0	0
919646	WORD	wordpools/wasnorm_wordpool_576.txt	LTP359	ltpFR2	2	5	WAGON	1578	n/a	n/a	0	0	0
922203	WORD	wordpools/wasnorm_wordpool_576.txt	LTP359	ltpFR2	2	5	COUNTY	389	n/a	n/a	0	0	0
924879	WORD	wordpools/wasnorm_wordpool_576.txt	LTP359	ltpFR2	2	5	COUSIN	392	n/a	n/a	0	0	0
927622	WORD	wordpools/wasnorm_wordpool_576.txt	LTP359	ltpFR2	2	5	DAISY	435	n/a	n/a	0	0	0
930296	WORD	wordpools/wasnorm_wordpool_576.txt	LTP359	ltpFR2	2	5	FLAG	573	n/a	n/a	0	0	0
932905	WORD	wordpools/wasnorm_wordpool_576.txt	LTP359	ltpFR2	2	5	RUG	1215	n/a	n/a	0	0	0
935497	WORD	wordpools/wasnorm_wordpool_576.txt	LTP359	ltpFR2	2	5	CELLAR	267	n/a	n/a	0	0	0
938138	WORD	wordpools/wasnorm_wordpool_576.txt	LTP359	ltpFR2	2	5	DENIM	446	n/a	n/a	0	0	0
940647	WORD	wordpools/wasnorm_wordpool_576.txt	LTP359	ltpFR2	2	5	STATUE	1374	n/a	n/a	0	0	0
943440	WORD	wordpools/wasnorm_wordpool_576.txt	LTP359	ltpFR2	2	5	CANDY	230	n/a	n/a	0	0	0
946014	WORD	wordpools/wasnorm_wordpool_576.txt	LTP359	ltpFR2	2	5	DANDRUFF	439	n/a	n/a	0	0	0
948623	WORD	wordpools/wasnorm_wordpool_576.txt	LTP359	ltpFR2	2	5	FRECKLE	602	n/a	n/a	0	0	0
951080	WORD	wordpools/wasnorm_wordpool_576.txt	LTP359	ltpFR2	2	5	GAVEL	627	n/a	n/a	0	0	0
953706	WORD	wordpools/wasnorm_wordpool_576.txt	LTP359	ltpFR2	2	5	MARINE	869	n/a	n/a	0	0	0
956381	WORD	wordpools/wasnorm_wordpool_576.txt	LTP359	ltpFR2	2	5	PALACE	1006	n/a	n/a	0	0	0
958822	WORD	wordpools/wasnorm_wordpool_576.txt	LTP359	ltpFR2	2	5	BOYFRIEND	162	n/a	n/a	0	0	0
961515	WORD	wordpools/wasnorm_wordpool_576.txt	LTP359	ltpFR2	2	5	BABY	64	n/a	n/a	0	0	0
964206	WORD	wordpools/wasnorm_wordpool_576.txt	LTP359	ltpFR2	2	5	BLOUSE	139	n/a	n/a	0	0	0
966848	WORD	wordpools/wasnorm_wordpool_576.txt	LTP359	ltpFR2	2	5	HIGHWAY	707	n/a	n/a	0	0	0
969389	WORD	wordpools/wasnorm_wordpool_576.txt	LTP359	ltpFR2	2	5	SIDEWALK	1303	n/a	n/a	0	0	0
970995	START	n/a	LTP359	ltpFR2	2	n/a	n/a	n/a	9	n/a	n/a	n/a	n/a
972194	DISTRACTOR	n/a	LTP359	ltpFR2	2	5	n/a	n/a	n/a	n/a	0	0	0
972199	PROB	n/a	LTP359	ltpFR2	2	n/a	n/a	n/a	9	7	4	2	1
975292	PROB	n/a	LTP359	ltpFR2	2	n/a	n/a	n/a	9	12	3	2	7
977867	PROB	n/a	LTP359	ltpFR2	2	n/a	n/a	n/a	9	20	9	7	4
979640	PROB	n/a	LTP359	ltpFR2	2	n/a	n/a	n/a	9	15	5	8	2
980910	PROB	n/a	LTP359	ltpFR2	2	n/a	n/a	n/a	9	19	8	2	9
982164	PROB	n/a	LTP359	ltpFR2	2	n/a	n/a	n/a	9	18	4	6	8
983553	PROB	n/a	LTP359	ltpFR2	2	n/a	n/a	n/a	9	16	4	6	6
985341	PROB	n/a	LTP359	ltpFR2	2	n/a	n/a	n/a	9	18	9	7	2
986846	PROB	n/a	LTP359	ltpFR2	2	n/a	n/a	n/a	9	15	6	1	8
988384	PROB	n/a	LTP359	ltpFR2	2	n/a	n/a	n/a	9	15	6	8	1
990559	PROB	n/a	LTP359	ltpFR2	2	n/a	n/a	n/a	9	10	6	1	3
991896	PROB	n/a	LTP359	ltpFR2	2	n/a	n/a	n/a	9	19	1	9	9
993556	STOP	n/a	LTP359	ltpFR2	2	n/a	n/a	n/a	9	n/a	n/a	n/a	n/a
996796	REC_START	n/a	LTP359	ltpFR2	2	5	n/a	n/a	n/a	n/a	0	0	0
998181	REC_WORD	wordpools/wasnorm_wordpool_576.txt	LTP359	ltpFR2	2	5	MARINE	869	n/a	n/a	0	0	0
999220	REC_WORD	wordpools/wasnorm_wordpool_576.txt	LTP359	ltpFR2	2	5	BOYFRIEND	162	n/a	n/a	0	0	0
1000185	REC_WORD	wordpools/wasnorm_wordpool_576.txt	LTP359	ltpFR2	2	5	BLOUSE	139	n/a	n/a	0	0	0
1000983	REC_WORD	wordpools/wasnorm_wordpool_576.txt	LTP359	ltpFR2	2	5	HIGHWAY	707	n/a	n/a	0	0	0
1001994	REC_WORD	wordpools/wasnorm_wordpool_576.txt	LTP359	ltpFR2	2	5	SIDEWALK	1303	n/a	n/a	0	0	0
1003491	REC_WORD	wordpools/wasnorm_wordpool_576.txt	LTP359	ltpFR2	2	5	BABY	64	n/a	n/a	0	0	0
1005256	REC_WORD	wordpools/wasnorm_wordpool_576.txt	LTP359	ltpFR2	2	5	GAVEL	627	n/a	n/a	0	0	0
1008147	REC_WORD	wordpools/wasnorm_wordpool_576.txt	LTP359	ltpFR2	2	5	DANCER	437	n/a	n/a	0	0	0
1009536	REC_WORD	wordpools/wasnorm_wordpool_576.txt	LTP359	ltpFR2	2	5	ASIA	46	n/a	n/a	0	0	0
1010808	REC_WORD	wordpools/wasnorm_wordpool_576.txt	LTP359	ltpFR2	2	5	TAXI	1438	n/a	n/a	0	0	0
1012004	REC_WORD	wordpools/wasnorm_wordpool_576.txt	LTP359	ltpFR2	2	5	WAGON	1578	n/a	n/a	0	0	0
1016384	REC_WORD	wordpools/wasnorm_wordpool_576.txt	LTP359	ltpFR2	2	5	COUSIN	392	n/a	n/a	0	0	0
1017399	REC_WORD	wordpools/wasnorm_wordpool_576.txt	LTP359	ltpFR2	2	5	DAISY	435	n/a	n/a	0	0	0
1018162	REC_WORD	wordpools/wasnorm_wordpool_576.txt	LTP359	ltpFR2	2	5	FRECKLE	602	n/a	n/a	0	0	0
1019224	REC_WORD	wordpools/wasnorm_wordpool_576.txt	LTP359	ltpFR2	2	5	DANDRUFF	439	n/a	n/a	0	0	0
1021027	REC_WORD	wordpools/wasnorm_wordpool_576.txt	LTP359	ltpFR2	2	5	CELLAR	267	n/a	n/a	0	0	0
1022139	REC_WORD	wordpools/wasnorm_wordpool_576.txt	LTP359	ltpFR2	2	5	CANDY	230	n/a	n/a	0	0	0
1023178	REC_WORD	wordpools/wasnorm_wordpool_576.txt	LTP359	ltpFR2	2	5	STATUE	1374	n/a	n/a	0	0	0
1025602	REC_WORD	wordpools/wasnorm_wordpool_576.txt	LTP359	ltpFR2	2	5	RUG	1215	n/a	n/a	0	0	0
1026377	REC_WORD	wordpools/wasnorm_wordpool_576.txt	LTP359	ltpFR2	2	5	FLAG	573	n/a	n/a	0	0	0
1033654	REC_WORD	wordpools/wasnorm_wordpool_576.txt	LTP359	ltpFR2	2	5	WITNESS	1618	n/a	n/a	0	0	0
1038698	REC_WORD	wordpools/wasnorm_wordpool_576.txt	LTP359	ltpFR2	2	5	COUNTY	389	n/a	n/a	0	0	0
1050992	REC_WORD	wordpools/wasnorm_wordpool_576.txt	LTP359	ltpFR2	2	5	BOYFRIEND	162	n/a	n/a	0	0	0
1055928	REC_WORD	wordpools/wasnorm_wordpool_576.txt	LTP359	ltpFR2	2	5	DENIM	446	n/a	n/a	0	0	0
1066644	REC_WORD	wordpools/wasnorm_wordpool_576.txt	LTP359	ltpFR2	2	5	PALACE	1006	n/a	n/a	0	0	0
1087254	WORD	wordpools/wasnorm_wordpool_576.txt	LTP359	ltpFR2	2	6	LUMBER	848	n/a	n/a	0	0	0
1089697	WORD	wordpools/wasnorm_wordpool_576.txt	LTP359	ltpFR2	2	6	BRICK	172	n/a	n/a	0	0	0
1092371	WORD	wordpools/wasnorm_wordpool_576.txt	LTP359	ltpFR2	2	6	RAZOR	1171	n/a	n/a	0	0	0
1094996	WORD	wordpools/wasnorm_wordpool_576.txt	LTP359	ltpFR2	2	6	PLIERS	1089	n/a	n/a	0	0	0
1097789	WORD	wordpools/wasnorm_wordpool_576.txt	LTP359	ltpFR2	2	6	TWEEZERS	1526	n/a	n/a	0	0	0
1100414	WORD	wordpools/wasnorm_wordpool_576.txt	LTP359	ltpFR2	2	6	OUTDOORS	987	n/a	n/a	0	0	0
1103190	WORD	wordpools/wasnorm_wordpool_576.txt	LTP359	ltpFR2	2	6	POSSUM	1112	n/a	n/a	0	0	0
1105615	WORD	wordpools/wasnorm_wordpool_576.txt	LTP359	ltpFR2	2	6	SCALPEL	1243	n/a	n/a	0	0	0
1108406	WORD	wordpools/wasnorm_wordpool_576.txt	LTP359	ltpFR2	2	6	BROOK	177	n/a	n/a	0	0	0
1110914	WORD	wordpools/wasnorm_wordpool_576.txt	LTP359	ltpFR2	2	6	TUTU	1524	n/a	n/a	0	0	0
1113474	WORD	wordpools/wasnorm_wordpool_576.txt	LTP359	ltpFR2	2	6	GHETTO	633	n/a	n/a	0	0	0
1116265	WORD	wordpools/wasnorm_wordpool_576.txt	LTP359	ltpFR2	2	6	BUNNY	198	n/a	n/a	0	0	0
1118857	WORD	wordpools/wasnorm_wordpool_576.txt	LTP359	ltpFR2	2	6	SALMON	1227	n/a	n/a	0	0	0
1121399	WORD	wordpools/wasnorm_wordpool_576.txt	LTP359	ltpFR2	2	6	MAMMAL	861	n/a	n/a	0	0	0
1123923	WORD	wordpools/wasnorm_wordpool_576.txt	LTP359	ltpFR2	2	6	DOLPHIN	483	n/a	n/a	0	0	0
1126499	WORD	wordpools/wasnorm_wordpool_576.txt	LTP359	ltpFR2	2	6	RABBIT	1152	n/a	n/a	0	0	0
1129157	WORD	wordpools/wasnorm_wordpool_576.txt	LTP359	ltpFR2	2	6	PASTA	1021	n/a	n/a	0	0	0
1131882	WORD	wordpools/wasnorm_wordpool_576.txt	LTP359	ltpFR2	2	6	SLIDE	1326	n/a	n/a	0	0	0
1134492	WORD	wordpools/wasnorm_wordpool_576.txt	LTP359	ltpFR2	2	6	CURTAIN	427	n/a	n/a	0	0	0
1136982	WORD	wordpools/wasnorm_wordpool_576.txt	LTP359	ltpFR2	2	6	LAKE	796	n/a	n/a	0	0	0
1139659	WORD	wordpools/wasnorm_wordpool_576.txt	LTP359	ltpFR2	2	6	PIGEON	1065	n/a	n/a	0	0	0
1142166	WORD	wordpools/wasnorm_wordpool_576.txt	LTP359	ltpFR2	2	6	MAPLE	866	n/a	n/a	0	0	0
1144941	WORD	wordpools/wasnorm_wordpool_576.txt	LTP359	ltpFR2	2	6	SEAFOOD	1260	n/a	n/a	0	0	0
1147517	WORD	wordpools/wasnorm_wordpool_576.txt	LTP359	ltpFR2	2	6	BRIEFCASE	175	n/a	n/a	0	0	0
1149122	START	n/a	LTP359	ltpFR2	2	n/a	n/a	n/a	10	n/a	n/a	n/a	n/a
1149948	DISTRACTOR	n/a	LTP359	ltpFR2	2	6	n/a	n/a	n/a	n/a	0	0	0
1149958	PROB	n/a	LTP359	ltpFR2	2	n/a	n/a	n/a	10	15	2	8	5
1152248	PROB	n/a	LTP359	ltpFR2	2	n/a	n/a	n/a	10	17	5	5	7
1153637	PROB	n/a	LTP359	ltpFR2	2	n/a	n/a	n/a	10	9	5	2	2
1155527	PROB	n/a	LTP359	ltpFR2	2	n/a	n/a	n/a	10	21	5	7	9
1158251	PROB	n/a	LTP359	ltpFR2	2	n/a	n/a	n/a	10	7	2	3	2
1159923	PROB	n/a	LTP359	ltpFR2	2	n/a	n/a	n/a	10	10	4	3	3
1161411	PROB	n/a	LTP359	ltpFR2	2	n/a	n/a	n/a	10	7	1	2	4
1162866	PROB	n/a	LTP359	ltpFR2	2	n/a	n/a	n/a	10	19	9	7	3
1164321	PROB	n/a	LTP359	ltpFR2	2	n/a	n/a	n/a	10	21	7	5	9
1165742	PROB	n/a	LTP359	ltpFR2	2	n/a	n/a	n/a	10	14	7	1	6
1167230	PROB	n/a	LTP359	ltpFR2	2	n/a	n/a	n/a	10	14	4	3	7
1168653	PROB	n/a	LTP359	ltpFR2	2	n/a	n/a	n/a	10	16	5	5	6
1169738	PROB	n/a	LTP359	ltpFR2	2	n/a	n/a	n/a	10	23	8	7	8
1171428	PROB	n/a	LTP359	ltpFR2	2	n/a	n/a	n/a	10	19	7	9	3
1173016	STOP	n/a	LTP359	ltpFR2	2	n/a	n/a	n/a	10	n/a	n/a	n/a	n/a
1175023	REC_START	n/a	LTP359	ltpFR2	2	6	n/a	n/a	n/a	n/a	0	0	0
1175484	REC_WORD	wordpools/wasnorm_wordpool_576.txt	LTP359	ltpFR2	2	6	PIGEON	1065	n/a	n/a	0	0	0
1176417	REC_WORD	wordpools/wasnorm_wordpool_576.txt	LTP359	ltpFR2	2	6	LAKE	796	n/a	n/a	0	0	0
1177121	REC_WORD	wordpools/wasnorm_wordpool_576.txt	LTP359	ltpFR2	2	6	MAPLE	866	n/a	n/a	0	0	0
1178140	REC_WORD	wordpools/wasnorm_wordpool_576.txt	LTP359	ltpFR2	2	6	SEAFOOD	1260	n/a	n/a	0	0	0
1179829	REC_WORD	wordpools/wasnorm_wordpool_576.txt	LTP359	ltpFR2	2	6	BRIEFCASE	175	n/a	n/a	0	0	0
1181934	REC_WORD	wordpools/wasnorm_wordpool_576.txt	LTP359	ltpFR2	2	6	BEAVER	109	n/a	n/a	0	0	0
1184802	REC_WORD	wordpools/wasnorm_wordpool_576.txt	LTP359	ltpFR2	2	6	BUNNY	198	n/a	n/a	0	0	0
1185825	REC_WORD	wordpools/wasnorm_wordpool_576.txt	LTP359	ltpFR2	2	6	RABBIT	1152	n/a	n/a	0	0	0
1186641	REC_WORD	wordpools/wasnorm_wordpool_576.txt	LTP359	ltpFR2	2	6	SALMON	1227	n/a	n/a	0	0	0
1187730	REC_WORD	wordpools/wasnorm_wordpool_576.txt	LTP359	ltpFR2	2	6	MAMMAL	861	n/a	n/a	0	0	0
1188833	REC_WORD	wordpools/wasnorm_wordpool_576.txt	LTP359	ltpFR2	2	6	DOLPHIN	483	n/a	n/a	0	0	0
1193238	REC_WORD	wordpools/wasnorm_wordpool_576.txt	LTP359	ltpFR2	2	6	GHETTO	633	n/a	n/a	0	0	0
1194164	REC_WORD	wordpools/wasnorm_wordpool_576.txt	LTP359	ltpFR2	2	6	TUTU	1524	n/a	n/a	0	0	0
1198873	REC_WORD	wordpools/wasnorm_wordpool_576.txt	LTP359	ltpFR2	2	6	LUMBER	848	n/a	n/a	0	0	0
1200131	REC_WORD	wordpools/wasnorm_wordpool_576.txt	LTP359	ltpFR2	2	6	OUTDOORS	987	n/a	n/a	0	0	0
1202743	REC_WORD	wordpools/wasnorm_wordpool_576.txt	LTP359	ltpFR2	2	6	BRICK	172	n/a	n/a	0	0	0
1203699	REC_WORD	wordpools/wasnorm_wordpool_576.txt	LTP359	ltpFR2	2	6	BROOK	177	n/a	n/a	0	0	0
1207341	REC_WORD	wordpools/wasnorm_wordpool_576.txt	LTP359	ltpFR2	2	6	TWEEZERS	1526	n/a	n/a	0	0	0
1208624	REC_WORD	wordpools/wasnorm_wordpool_576.txt	LTP359	ltpFR2	2	6	PLIERS	1089	n/a	n/a	0	0	0
1209870	REC_WORD	wordpools/wasnorm_wordpool_576.txt	LTP359	ltpFR2	2	6	RAZOR	1171	n/a	n/a	0	0	0
1213738	REC_WORD	wordpools/wasnorm_wordpool_576.txt	LTP359	ltpFR2	2	6	SCALPEL	1243	n/a	n/a	0	0	0
1218456	REC_WORD	wordpools/wasnorm_wordpool_576.txt	LTP359	ltpFR2	2	6	RABBIT	1152	n/a	n/a	0	0	0
1265500	WORD	wordpools/wasnorm_wordpool_576.txt	LTP359	ltpFR2	2	7	PADDING	999	n/a	n/a	0	0	0
1268257	WORD	wordpools/wasnorm_wordpool_576.txt	LTP359	ltpFR2	2	7	BRACES	164	n/a	n/a	0	0	0
1270683	WORD	wordpools/wasnorm_wordpool_576.txt	LTP359	ltpFR2	2	7	WIDOW	1608	n/a	n/a	0	0	0
1273207	WORD	wordpools/wasnorm_wordpool_576.txt	LTP359	ltpFR2	2	7	TABLE	1426	n/a	n/a	0	0	0
1275916	WORD	wordpools/wasnorm_wordpool_576.txt	LTP359	ltpFR2	2	7	MATTRESS	879	n/a	n/a	0	0	0
1278559	WORD	wordpools/wasnorm_wordpool_576.txt	LTP359	ltpFR2	2	7	CANYON	235	n/a	n/a	0	0	0
1281099	WORD	wordpools/wasnorm_wordpool_576.txt	LTP359	ltpFR2	2	7	DONKEY	484	n/a	n/a	0	0	0
1283692	WORD	wordpools/wasnorm_wordpool_576.txt	LTP359	ltpFR2	2	7	STAKE	1368	n/a	n/a	0	0	0
1286501	WORD	wordpools/wasnorm_wordpool_576.txt	LTP359	ltpFR2	2	7	COUCH	386	n/a	n/a	0	0	0
1289092	WORD	wordpools/wasnorm_wordpool_576.txt	LTP359	ltpFR2	2	7	RAFT	1159	n/a	n/a	0	0	0
1291551	WORD	wordpools/wasnorm_wordpool_576.txt	LTP359	ltpFR2	2	7	LACE	792	n/a	n/a	0	0	0
1294258	WORD	wordpools/wasnorm_wordpool_576.txt	LTP359	ltpFR2	2	7	SKIRT	1319	n/a	n/a	0	0	0
1297017	WORD	wordpools/wasnorm_wordpool_576.txt	LTP359	ltpFR2	2	7	BACON	67	n/a	n/a	0	0	0
1299827	WORD	wordpools/wasnorm_wordpool_576.txt	LTP359	ltpFR2	2	7	BELLY	119	n/a	n/a	0	0	0
1302436	WORD	wordpools/wasnorm_wordpool_576.txt	LTP359	ltpFR2	2	7	PATIENT	1024	n/a	n/a	0	0	0
1304843	WORD	wordpools/wasnorm_wordpool_576.txt	LTP359	ltpFR2	2	7	SILK	1307	n/a	n/a	0	0	0
1307317	WORD	wordpools/wasnorm_wordpool_576.txt	LTP359	ltpFR2	2	7	SHERIFF	1284	n/a	n/a	0	0	0
1309859	WORD	wordpools/wasnorm_wordpool_576.txt	LTP359	ltpFR2	2	7	HEART	697	n/a	n/a	0	0	0
1312502	WORD	wordpools/wasnorm_wordpool_576.txt	LTP359	ltpFR2	2	7	ROBIN	1199	n/a	n/a	0	0	0
1315026	WORD	wordpools/wasnorm_wordpool_576.txt	LTP359	ltpFR2	2	7	PEANUT	1032	n/a	n/a	0	0	0
1317751	WORD	wordpools/wasnorm_wordpool_576.txt	LTP359	ltpFR2	2	7	PECAN	1036	n/a	n/a	0	0	0
1320343	WORD	wordpools/wasnorm_wordpool_576.txt	LTP359	ltpFR2	2	7	LODGE	839	n/a	n/a	0	0	0
1322801	WORD	wordpools/wasnorm_wordpool_576.txt	LTP359	ltpFR2	2	7	HOOD	714	n/a	n/a	0	0	0
1325409	WORD	wordpools/wasnorm_wordpool_576.txt	LTP359	ltpFR2	2	7	ACTRESS	6	n/a	n/a	0	0	0
1327015	START	n/a	LTP359	ltpFR2	2	n/a	n/a	n/a	11	n/a	n/a	n/a	n/a
1327831	DISTRACTOR	n/a	LTP359	ltpFR2	2	7	n/a	n/a	n/a	n/a	0	0	0
1327834	PROB	n/a	LTP359	ltpFR2	2	n/a	n/a	n/a	11	16	7	8	1
1330325	PROB	n/a	LTP359	ltpFR2	2	n/a	n/a	n/a	11	13	5	5	4
1332766	PROB	n/a	LTP359	ltpFR2	2	n/a	n/a	n/a	11	12	2	1	9
1337533	PROB	n/a	LTP359	ltpFR2	2	n/a	n/a	n/a	11	11	5	5	1
1338570	PROB	n/a	LTP359	ltpFR2	2	n/a	n/a	n/a	11	18	7	6	5
1340006	PROB	n/a	LTP359	ltpFR2	2	n/a	n/a	n/a	11	12	9	1	2
1341462	PROB	n/a	LTP359	ltpFR2	2	n/a	n/a	n/a	11	17	8	6	3
1343619	PROB	n/a	LTP359	ltpFR2	2	n/a	n/a	n/a	11	15	8	2	5
1344706	PROB	n/a	LTP359	ltpFR2	2	n/a	n/a	n/a	11	20	4	7	9
1346411	PROB	n/a	LTP359	ltpFR2	2	n/a	n/a	n/a	11	18	6	6	6
1348166	PROB	n/a	LTP359	ltpFR2	2	n/a	n/a	n/a	11	7	5	1	1
1349472	PROB	n/a	LTP359	ltpFR2	2	n/a	n/a	n/a	11	9	4	4	1
1350885	STOP	n/a	LTP359	ltpFR2	2	n/a	n/a	n/a	11	n/a	n/a	n/a	n/a
1352932	REC_START	n/a	LTP359	ltpFR2	2	7	n/a	n/a	n/a	n/a	0	0	0
1354063	REC_WORD	wordpools/wasnorm_wordpool_576.txt	LTP359	ltpFR2	2	7	WIDOW	1608	n/a	n/a	0	0	0
1355025	REC_WORD	wordpools/wasnorm_wordpool_576.txt	LTP359	ltpFR2	2	7	LODGE	839	n/a	n/a	0	0	0
1357081	REC_WORD	wordpools/wasnorm_wordpool_576.txt	LTP359	ltpFR2	2	7	BACON	67	n/a	n/a	0	0	0
1358076	REC_WORD	wordpools/wasnorm_wordpool_576.txt	LTP359	ltpFR2	2	7	BELLY	119	n/a	n/a	0	0	0
1360419	REC_WORD	wordpools/wasnorm_wordpool_576.txt	LTP359	ltpFR2	2	7	CANYON	235	n/a	n/a	0	0	0
1361934	REC_WORD	wordpools/wasnorm_wordpool_576.txt	LTP359	ltpFR2	2	7	MATTRESS	879	n/a	n/a	0	0	0
1363911	REC_WORD	wordpools/wasnorm_wordpool_576.txt	LTP359	ltpFR2	2	7	PADDING	999	n/a	n/a	0	0	0
1365839	REC_WORD	wordpools/wasnorm_wordpool_576.txt	LTP359	ltpFR2	2	7	BRACES	164	n/a	n/a	0	0	0
1366839	REC_WORD_VV	wordpools/wasnorm_wordpool_576.txt	LTP359	ltpFR2	2	7	<>	-1	n/a	n/a	0	0	0
1369726	REC_WORD	wordpools/wasnorm_wordpool_576.txt	LTP359	ltpFR2	2	7	LACE	792	n/a	n/a	0	0	0
1371140	REC_WORD	wordpools/wasnorm_wordpool_576.txt	LTP359	ltpFR2	2	7	RAFT	1159	n/a	n/a	0	0	0
1373792	REC_WORD	wordpools/wasnorm_wordpool_576.txt	LTP359	ltpFR2	2	7	PATIENT	1024	n/a	n/a	0	0	0
1375243	REC_WORD	wordpools/wasnorm_wordpool_576.txt	LTP359	ltpFR2	2	7	SILK	1307	n/a	n/a	0	0	0
1379548	REC_WORD	wordpools/wasnorm_wordpool_576.txt	LTP359	ltpFR2	2	7	SHERIFF	1284	n/a	n/a	0	0	0
1381248	REC_WORD	wordpools/wasnorm_wordpool_576.txt	LTP359	ltpFR2	2	7	ROBIN	1199	n/a	n/a	0	0	0
1382154	REC_WORD	wordpools/wasnorm_wordpool_576.txt	LTP359	ltpFR2	2	7	HOOD	714	n/a	n/a	0	0	0
1383770	REC_WORD	wordpools/wasnorm_wordpool_576.txt	LTP359	ltpFR2	2	7	LODGE	839	n/a	n/a	0	0	0
1386006	REC_WORD	wordpools/wasnorm_wordpool_576.txt	LTP359	ltpFR2	2	7	PEANUT	1032	n/a	n/a	0	0	0
1387025	REC_WORD	wordpools/wasnorm_wordpool_576.txt	LTP359	ltpFR2	2	7	PECAN	1036	n/a	n/a	0	0	0
1443375	DISTRACTOR	n/a	LTP359	ltpFR2	2	8	n/a	n/a	n/a	n/a	0	0	0
1443375	START	n/a	LTP359	ltpFR2	2	n/a	n/a	n/a	12	n/a	n/a	n/a	n/a
1443391	PROB	n/a	LTP359	ltpFR2	2	n/a	n/a	n/a	12	7	3	2	2
1445483	PROB	n/a	LTP359	ltpFR2	2	n/a	n/a	n/a	12	14	3	7	4
1447404	PROB	n/a	LTP359	ltpFR2	2	n/a	n/a	n/a	12	12	2	8	2
1448542	PROB	n/a	LTP359	ltpFR2	2	n/a	n/a	n/a	12	11	2	3	6
1450414	PROB	n/a	LTP359	ltpFR2	2	n/a	n/a	n/a	12	11	4	3	4
1452755	PROB	n/a	LTP359	ltpFR2	2	n/a	n/a	n/a	12	13	4	3	6
1454293	PROB	n/a	LTP359	ltpFR2	2	n/a	n/a	n/a	12	17	4	9	4
1456200	PROB	n/a	LTP359	ltpFR2	2	n/a	n/a	n/a	12	20	8	8	4
1457655	PROB	n/a	LTP359	ltpFR2	2	n/a	n/a	n/a	12	19	8	8	3
1459612	PROB	n/a	LTP359	ltpFR2	2	n/a	n/a	n/a	12	16	2	9	5
1461601	PROB	n/a	LTP359	ltpFR2	2	n/a	n/a	n/a	12	23	8	9	6
1463441	PROB	n/a	LTP359	ltpFR2	2	n/a	n/a	n/a	12	10	4	2	4
1465195	PROB	n/a	LTP359	ltpFR2	2	n/a	n/a	n/a	12	19	6	4	9
1466538	STOP	n/a	LTP359	ltpFR2	2	n/a	n/a	n/a	12	n/a	n/a	n/a	n/a
1468557	WORD	wordpools/wasnorm_wordpool_576.txt	LTP359	ltpFR2	2	8	BARLEY	88	n/a	n/a	0	0	0
1471265	WORD	wordpools/wasnorm_wordpool_576.txt	LTP359	ltpFR2	2	8	CROWN	415	n/a	n/a	0	0	0
1474074	WORD	wordpools/wasnorm_wordpool_576.txt	LTP359	ltpFR2	2	8	THRONE	1461	n/a	n/a	0	0	0
1476717	WORD	wordpools/wasnorm_wordpool_576.txt	LTP359	ltpFR2	2	8	TURTLE	1522	n/a	n/a	0	0	0
1479509	WORD	wordpools/wasnorm_wordpool_576.txt	LTP359	ltpFR2	2	8	TURNIP	1521	n/a	n/a	0	0	0
1482016	WORD	wordpools/wasnorm_wordpool_576.txt	LTP359	ltpFR2	2	8	RECEIPT	1173	n/a	n/a	0	0	0
1484559	WORD	wordpools/wasnorm_wordpool_576.txt	LTP359	ltpFR2	2	8	BATHTUB	100	n/a	n/a	0	0	0
1487016	WORD	wordpools/wasnorm_wordpool_576.txt	LTP359	ltpFR2	2	8	BLADE	134	n/a	n/a	0	0	0
1489709	WORD	wordpools/wasnorm_wordpool_576.txt	LTP359	ltpFR2	2	8	FIDDLE	561	n/a	n/a	0	0	0
1492485	WORD	wordpools/wasnorm_wordpool_576.txt	LTP359	ltpFR2	2	8	KNAPSACK	783	n/a	n/a	0	0	0
1494908	WORD	wordpools/wasnorm_wordpool_576.txt	LTP359	ltpFR2	2	8	RECORD	1176	n/a	n/a	0	0	0
1497451	WORD	wordpools/wasnorm_wordpool_576.txt	LTP359	ltpFR2	2	8	MACHINE	852	n/a	n/a	0	0	0
1499908	WORD	wordpools/wasnorm_wordpool_576.txt	LTP359	ltpFR2	2	8	COMPASS	358	n/a	n/a	0	0	0
1502467	WORD	wordpools/wasnorm_wordpool_576.txt	LTP359	ltpFR2	2	8	MILDEW	893	n/a	n/a	0	0	0
1504924	WORD	wordpools/wasnorm_wordpool_576.txt	LTP359	ltpFR2	2	8	BULLET	194	n/a	n/a	0	0	0
1507416	WORD	wordpools/wasnorm_wordpool_576.txt	LTP359	ltpFR2	2	8	BANQUET	86	n/a	n/a	0	0	0
1510225	WORD	wordpools/wasnorm_wordpool_576.txt	LTP359	ltpFR2	2	8	CLOTHES	327	n/a	n/a	0	0	0
1512700	WORD	wordpools/wasnorm_wordpool_576.txt	LTP359	ltpFR2	2	8	ATOM	55	n/a	n/a	0	0	0
1515375	WORD	wordpools/wasnorm_wordpool_576.txt	LTP359	ltpFR2	2	8	CHEMIST	292	n/a	n/a	0	0	0
1518083	WORD	wordpools/wasnorm_wordpool_576.txt	LTP359	ltpFR2	2	8	COTTAGE	384	n/a	n/a	0	0	0
1520859	WORD	wordpools/wasnorm_wordpool_576.txt	LTP359	ltpFR2	2	8	BLUEPRINT	142	n/a	n/a	0	0	0
1523586	WORD	wordpools/wasnorm_wordpool_576.txt	LTP359	ltpFR2	2	8	SLUG	1329	n/a	n/a	0	0	0
1526076	WORD	wordpools/wasnorm_wordpool_576.txt	LTP359	ltpFR2	2	8	NAPKIN	937	n/a	n/a	0	0	0
1528852	WORD	wordpools/wasnorm_wordpool_576.txt	LTP359	ltpFR2	2	8	TUBA	1515	n/a	n/a	0	0	0
1530458	START	n/a	LTP359	ltpFR2	2	n/a	n/a	n/a	13	n/a	n/a	n/a	n/a
1531500	DISTRACTOR	n/a	LTP359	ltpFR2	2	8	n/a	n/a	n/a	n/a	0	0	0
1531511	PROB	n/a	LTP359	ltpFR2	2	n/a	n/a	n/a	13	11	5	5	1
1533885	PROB	n/a	LTP359	ltpFR2	2	n/a	n/a	n/a	13	15	1	5	9
1535908	PROB	n/a	LTP359	ltpFR2	2	n/a	n/a	n/a	13	14	7	6	1
1537631	PROB	n/a	LTP359	ltpFR2	2	n/a	n/a	n/a	13	9	4	3	2
1538934	PROB	n/a	LTP359	ltpFR2	2	n/a	n/a	n/a	13	22	7	6	9
1542597	PROB	n/a	LTP359	ltpFR2	2	n/a	n/a	n/a	13	9	6	1	2
1546074	PROB	n/a	LTP359	ltpFR2	2	n/a	n/a	n/a	13	7	4	1	2
1547463	PROB	n/a	LTP359	ltpFR2	2	n/a	n/a	n/a	13	13	2	9	2
1549251	PROB	n/a	LTP359	ltpFR2	2	n/a	n/a	n/a	13	14	2	9	3
1551023	PROB	n/a	LTP359	ltpFR2	2	n/a	n/a	n/a	13	9	4	2	3
1553371	STOP	n/a	LTP359	ltpFR2	2	n/a	n/a	n/a	13	n/a	n/a	n/a	n/a
1556291	REC_START	n/a	LTP359	ltpFR2	2	8	n/a	n/a	n/a	n/a	0	0	0
1557015	REC_WORD	wordpools/wasnorm_wordpool_576.txt	LTP359	ltpFR2	2	8	TUBA	1515	n/a	n/a	0	0	0
1557871	REC_WORD	wordpools/wasnorm_wordpool_576.txt	LTP359	ltpFR2	2	8	FIDDLE	561	n/a	n/a	0	0	0
1559006	REC_WORD	wordpools/wasnorm_wordpool_576.txt	LTP359	ltpFR2	2	8	BLUEPRINT	142	n/a	n/a	0	0	0
1560274	REC_WORD	wordpools/wasnorm_wordpool_576.txt	LTP359	ltpFR2	2	8	NAPKIN	937	n/a	n/a	0	0	0
1561249	REC_WORD	wordpools/wasnorm_wordpool_576.txt	LTP359	ltpFR2	2	8	CHEMIST	292	n/a	n/a	0	0	0
1562288	REC_WORD	wordpools/wasnorm_wordpool_576.txt	LTP359	ltpFR2	2	8	ATOM	55	n/a	n/a	0	0	0
1564066	REC_WORD	wordpools/wasnorm_wordpool_576.txt	LTP359	ltpFR2	2	8	COTTAGE	384	n/a	n/a	0	0	0
1566404	REC_WORD	wordpools/wasnorm_wordpool_576.txt	LTP359	ltpFR2	2	8	CROWN	415	n/a	n/a	0	0	0
1567452	REC_WORD	wordpools/wasnorm_wordpool_576.txt	LTP359	ltpFR2	2	8	THRONE	1461	n/a	n/a	0	0	0
1568552	REC_WORD	wordpools/wasnorm_wordpool_576.txt	LTP359	ltpFR2	2	8	BARLEY	88	n/a	n/a	0	0	0
1569462	REC_WORD	wordpools/wasnorm_wordpool_576.txt	LTP359	ltpFR2	2	8	TURNIP	1521	n/a	n/a	0	0	0
1570879	REC_WORD	wordpools/wasnorm_wordpool_576.txt	LTP359	ltpFR2	2	8	TURTLE	1522	n/a	n/a	0	0	0
1571700	REC_WORD	wordpools/wasnorm_wordpool_576.txt	LTP359	ltpFR2	2	8	SLUG	1329	n/a	n/a	0	0	0
1572896	REC_WORD	wordpools/wasnorm_wordpool_576.txt	LTP359	ltpFR2	2	8	MILDEW	893	n/a	n/a	0	0	0
1574850	REC_WORD	wordpools/wasnorm_wordpool_576.txt	LTP359	ltpFR2	2	8	KNAPSACK	783	n/a	n/a	0	0	0
1577444	REC_WORD	wordpools/wasnorm_wordpool_576.txt	LTP359	ltpFR2	2	8	BULLET	194	n/a	n/a	0	0	0
1578381	REC_WORD	wordpools/wasnorm_wordpool_576.txt	LTP359	ltpFR2	2	8	COMPASS	358	n/a	n/a	0	0	0
1580453	REC_WORD	wordpools/wasnorm_wordpool_576.txt	LTP359	ltpFR2	2	8	BANQUET	86	n/a	n/a	0	0	0
1581661	REC_WORD	wordpools/wasnorm_wordpool_576.txt	LTP359	ltpFR2	2	8	CLOTHES	327	n/a	n/a	0	0	0
1586043	REC_WORD	wordpools/wasnorm_wordpool_576.txt	LTP359	ltpFR2	2	8	RECORDING	-1	n/a	n/a	0	0	0
1587519	REC_WORD	wordpools/wasnorm_wordpool_576.txt	LTP359	ltpFR2	2	8	RECORD	1176	n/a	n/a	0	0	0
1589539	REC_WORD	wordpools/wasnorm_wordpool_576.txt	LTP359	ltpFR2	2	8	MACHINE	852	n/a	n/a	0	0	0
1632822	REST_REWET	n/a	LTP359	ltpFR2	2	8	n/a	n/a	n/a	n/a	0	0	0
1761137	WORD	wordpools/wasnorm_wordpool_576.txt	LTP359	ltpFR2	2	9	DRUG	501	n/a	n/a	0	0	0
1763896	WORD	wordpools/wasnorm_wordpool_576.txt	LTP359	ltpFR2	2	9	CREVICE	405	n/a	n/a	0	0	0
1766388	WORD	wordpools/wasnorm_wordpool_576.txt	LTP359	ltpFR2	2	9	NECKLACE	940	n/a	n/a	0	0	0
1769197	WORD	wordpools/wasnorm_wordpool_576.txt	LTP359	ltpFR2	2	9	CRATER	400	n/a	n/a	0	0	0
1771622	WORD	wordpools/wasnorm_wordpool_576.txt	LTP359	ltpFR2	2	9	VALVE	1546	n/a	n/a	0	0	0
1774330	WORD	wordpools/wasnorm_wordpool_576.txt	LTP359	ltpFR2	2	9	OUTFIT	988	n/a	n/a	0	0	0
1776972	WORD	wordpools/wasnorm_wordpool_576.txt	LTP359	ltpFR2	2	9	TWIG	1527	n/a	n/a	0	0	0
1779413	WORD	wordpools/wasnorm_wordpool_576.txt	LTP359	ltpFR2	2	9	CATTLE	261	n/a	n/a	0	0	0
1782222	WORD	wordpools/wasnorm_wordpool_576.txt	LTP359	ltpFR2	2	9	DINER	467	n/a	n/a	0	0	0
1784797	WORD	wordpools/wasnorm_wordpool_576.txt	LTP359	ltpFR2	2	9	DRAGON	492	n/a	n/a	0	0	0
1787607	WORD	wordpools/wasnorm_wordpool_576.txt	LTP359	ltpFR2	2	9	MONEY	908	n/a	n/a	0	0	0
1790215	WORD	wordpools/wasnorm_wordpool_576.txt	LTP359	ltpFR2	2	9	DIME	466	n/a	n/a	0	0	0
1792756	WORD	wordpools/wasnorm_wordpool_576.txt	LTP359	ltpFR2	2	9	CARROT	249	n/a	n/a	0	0	0
1795365	WORD	wordpools/wasnorm_wordpool_576.txt	LTP359	ltpFR2	2	9	VALLEY	1545	n/a	n/a	0	0	0
1797890	WORD	wordpools/wasnorm_wordpool_576.txt	LTP359	ltpFR2	2	9	COUNTRY	388	n/a	n/a	0	0	0
1800432	WORD	wordpools/wasnorm_wordpool_576.txt	LTP359	ltpFR2	2	9	BOX	159	n/a	n/a	0	0	0
1802856	WORD	wordpools/wasnorm_wordpool_576.txt	LTP359	ltpFR2	2	9	BUBBLE	183	n/a	n/a	0	0	0
1805364	WORD	wordpools/wasnorm_wordpool_576.txt	LTP359	ltpFR2	2	9	JAPAN	749	n/a	n/a	0	0	0
1808073	WORD	wordpools/wasnorm_wordpool_576.txt	LTP359	ltpFR2	2	9	UNCLE	1536	n/a	n/a	0	0	0
1810582	WORD	wordpools/wasnorm_wordpool_576.txt	LTP359	ltpFR2	2	9	TROUT	1511	n/a	n/a	0	0	0
1813089	WORD	wordpools/wasnorm_wordpool_576.txt	LTP359	ltpFR2	2	9	HEADBAND	696	n/a	n/a	0	0	0
1815598	WORD	wordpools/wasnorm_wordpool_576.txt	LTP359	ltpFR2	2	9	SCARF	1246	n/a	n/a	0	0	0
1818222	WORD	wordpools/wasnorm_wordpool_576.txt	LTP359	ltpFR2	2	9	MILK	895	n/a	n/a	0	0	0
1820964	WORD	wordpools/wasnorm_wordpool_576.txt	LTP359	ltpFR2	2	9	WAITRESS	1581	n/a	n/a	0	0	0
1822571	START	n/a	LTP359	ltpFR2	2	n/a	n/a	n/a	14	n/a	n/a	n/a	n/a
1823690	DISTRACTOR	n/a	LTP359	ltpFR2	2	9	n/a	n/a	n/a	n/a	0	0	0
1823691	PROB	n/a	LTP359	ltpFR2	2	n/a	n/a	n/a	14	15	1	8	6
1827553	PROB	n/a	LTP359	ltpFR2	2	n/a	n/a	n/a	14	10	1	5	4
1829977	PROB	n/a	LTP359	ltpFR2	2	n/a	n/a	n/a	14	15	4	4	7
1832586	PROB	n/a	LTP359	ltpFR2	2	n/a	n/a	n/a	14	11	3	7	1
1834107	PROB	n/a	LTP359	ltpFR2	2	n/a	n/a	n/a	14	21	6	9	6
1837067	PROB	n/a	LTP359	ltpFR2	2	n/a	n/a	n/a	14	8	6	1	1
1838354	PROB	n/a	LTP359	ltpFR2	2	n/a	n/a	n/a	14	14	6	6	2
1840745	PROB	n/a	LTP359	ltpFR2	2	n/a	n/a	n/a	14	21	7	7	7
1842033	PROB	n/a	LTP359	ltpFR2	2	n/a	n/a	n/a	14	21	4	9	8
1844089	PROB	n/a	LTP359	ltpFR2	2	n/a	n/a	n/a	14	11	4	4	3
1845756	STOP	n/a	LTP359	ltpFR2	2	n/a	n/a	n/a	14	n/a	n/a	n/a	n/a
1848370	REC_START	n/a	LTP359	ltpFR2	2	9	n/a	n/a	n/a	n/a	0	0	0
1849999	REC_WORD	wordpools/wasnorm_wordpool_576.txt	LTP359	ltpFR2	2	9	CATTLE	261	n/a	n/a	0	0	0
1852447	REC_WORD	wordpools/wasnorm_wordpool_576.txt	LTP359	ltpFR2	2	9	TWIG	1527	n/a	n/a	0	0	0
1854609	REC_WORD	wordpools/wasnorm_wordpool_576.txt	LTP359	ltpFR2	2	9	OUTFIT	988	n/a	n/a	0	0	0
1856481	REC_WORD	wordpools/wasnorm_wordpool_576.txt	LTP359	ltpFR2	2	9	DINER	467	n/a	n/a	0	0	0
1858218	REC_WORD	wordpools/wasnorm_wordpool_576.txt	LTP359	ltpFR2	2	9	DRAGON	492	n/a	n/a	0	0	0
1861717	REC_WORD	wordpools/wasnorm_wordpool_576.txt	LTP359	ltpFR2	2	9	MONEY	908	n/a	n/a	0	0	0
1862862	REC_WORD	wordpools/wasnorm_wordpool_576.txt	LTP359	ltpFR2	2	9	DIME	466	n/a	n/a	0	0	0
1863963	REC_WORD	wordpools/wasnorm_wordpool_576.txt	LTP359	ltpFR2	2	9	CARROT	249	n/a	n/a	0	0	0
1867607	REC_WORD	wordpools/wasnorm_wordpool_576.txt	LTP359	ltpFR2	2	9	BOX	159	n/a	n/a	0	0	0
1868764	REC_WORD	wordpools/wasnorm_wordpool_576.txt	LTP359	ltpFR2	2	9	BUBBLE	183	n/a	n/a	0	0	0
1869535	REC_WORD	wordpools/wasnorm_wordpool_576.txt	LTP359	ltpFR2	2	9	JAPAN	749	n/a	n/a	0	0	0
1871484	REC_WORD	wordpools/wasnorm_wordpool_576.txt	LTP359	ltpFR2	2	9	TROUT	1511	n/a	n/a	0	0	0
1873859	REC_WORD	wordpools/wasnorm_wordpool_576.txt	LTP359	ltpFR2	2	9	HEADBAND	696	n/a	n/a	0	0	0
1874941	REC_WORD	wordpools/wasnorm_wordpool_576.txt	LTP359	ltpFR2	2	9	SCARF	1246	n/a	n/a	0	0	0
1877621	REC_WORD	wordpools/wasnorm_wordpool_576.txt	LTP359	ltpFR2	2	9	WAITRESS	1581	n/a	n/a	0	0	0
1879112	REC_WORD	wordpools/wasnorm_wordpool_576.txt	LTP359	ltpFR2	2	9	MILK	895	n/a	n/a	0	0	0
1893110	REC_WORD	wordpools/wasnorm_wordpool_576.txt	LTP359	ltpFR2	2	9	DRUG	501	n/a	n/a	0	0	0
1893766	REC_WORD	wordpools/wasnorm_wordpool_576.txt	LTP359	ltpFR2	2	9	CREVICE	405	n/a	n/a	0	0	0
1894938	REC_WORD	wordpools/wasnorm_wordpool_576.txt	LTP359	ltpFR2	2	9	NECKLACE	940	n/a	n/a	0	0	0
1896640	REC_WORD	wordpools/wasnorm_wordpool_576.txt	LTP359	ltpFR2	2	9	CRATER	400	n/a	n/a	0	0	0
1897723	REC_WORD	wordpools/wasnorm_wordpool_576.txt	LTP359	ltpFR2	2	9	VALVE	1546	n/a	n/a	0	0	0
1917899	REC_WORD	wordpools/wasnorm_wordpool_576.txt	LTP359	ltpFR2	2	9	VALLEY	1545	n/a	n/a	0	0	0
1918986	REC_WORD	wordpools/wasnorm_wordpool_576.txt	LTP359	ltpFR2	2	9	COUNTRY	388	n/a	n/a	0	0	0
1938813	DISTRACTOR	n/a	LTP359	ltpFR2	2	10	n/a	n/a	n/a	n/a	0	0	0
1938813	START	n/a	LTP359	ltpFR2	2	n/a	n/a	n/a	15	n/a	n/a	n/a	n/a
1938829	PROB	n/a	LTP359	ltpFR2	2	n/a	n/a	n/a	15	15	8	3	4
1941371	PROB	n/a	LTP359	ltpFR2	2	n/a	n/a	n/a	15	14	5	4	5
1943479	PROB	n/a	LTP359	ltpFR2	2	n/a	n/a	n/a	15	20	8	6	6
1945300	PROB	n/a	LTP359	ltpFR2	2	n/a	n/a	n/a	15	15	7	6	2
1946906	PROB	n/a	LTP359	ltpFR2	2	n/a	n/a	n/a	15	14	2	6	6
1948495	PROB	n/a	LTP359	ltpFR2	2	n/a	n/a	n/a	15	16	3	7	6
1949748	PROB	n/a	LTP359	ltpFR2	2	n/a	n/a	n/a	15	23	8	9	6
1951622	PROB	n/a	LTP359	ltpFR2	2	n/a	n/a	n/a	15	18	2	8	8
1953076	PROB	n/a	LTP359	ltpFR2	2	n/a	n/a	n/a	15	7	1	5	1
1954279	PROB	n/a	LTP359	ltpFR2	2	n/a	n/a	n/a	15	16	4	8	4
1956085	PROB	n/a	LTP359	ltpFR2	2	n/a	n/a	n/a	15	12	6	1	5
1957757	PROB	n/a	LTP359	ltpFR2	2	n/a	n/a	n/a	15	15	3	6	6
1959631	PROB	n/a	LTP359	ltpFR2	2	n/a	n/a	n/a	15	18	7	6	5
1962813	STOP	n/a	LTP359	ltpFR2	2	n/a	n/a	n/a	15	n/a	n/a	n/a	n/a
1963844	WORD	wordpools/wasnorm_wordpool_576.txt	LTP359	ltpFR2	2	10	FLASK	576	n/a	n/a	0	0	0
1966437	WORD	wordpools/wasnorm_wordpool_576.txt	LTP359	ltpFR2	2	10	WHISTLE	1606	n/a	n/a	0	0	0
1968994	WORD	wordpools/wasnorm_wordpool_576.txt	LTP359	ltpFR2	2	10	CASKET	255	n/a	n/a	0	0	0
1971419	WORD	wordpools/wasnorm_wordpool_576.txt	LTP359	ltpFR2	2	10	CEILING	265	n/a	n/a	0	0	0
1973943	WORD	wordpools/wasnorm_wordpool_576.txt	LTP359	ltpFR2	2	10	MOP	916	n/a	n/a	0	0	0
1976703	WORD	wordpools/wasnorm_wordpool_576.txt	LTP359	ltpFR2	2	10	POSTAGE	1113	n/a	n/a	0	0	0
1979160	WORD	wordpools/wasnorm_wordpool_576.txt	LTP359	ltpFR2	2	10	GIFT	635	n/a	n/a	0	0	0
1981619	WORD	wordpools/wasnorm_wordpool_576.txt	LTP359	ltpFR2	2	10	SCULPTURE	1258	n/a	n/a	0	0	0
1984277	WORD	wordpools/wasnorm_wordpool_576.txt	LTP359	ltpFR2	2	10	STAMP	1370	n/a	n/a	0	0	0
1986702	WORD	wordpools/wasnorm_wordpool_576.txt	LTP359	ltpFR2	2	10	SPOOL	1356	n/a	n/a	0	0	0
1989428	WORD	wordpools/wasnorm_wordpool_576.txt	LTP359	ltpFR2	2	10	TART	1436	n/a	n/a	0	0	0
1992169	WORD	wordpools/wasnorm_wordpool_576.txt	LTP359	ltpFR2	2	10	TYPIST	1532	n/a	n/a	0	0	0
1994894	WORD	wordpools/wasnorm_wordpool_576.txt	LTP359	ltpFR2	2	10	OFFICE	972	n/a	n/a	0	0	0
1997352	WORD	wordpools/wasnorm_wordpool_576.txt	LTP359	ltpFR2	2	10	COMET	353	n/a	n/a	0	0	0
2000011	WORD	wordpools/wasnorm_wordpool_576.txt	LTP359	ltpFR2	2	10	AIRPLANE	12	n/a	n/a	0	0	0
2002554	WORD	wordpools/wasnorm_wordpool_576.txt	LTP359	ltpFR2	2	10	MOTEL	919	n/a	n/a	0	0	0
2005345	WORD	wordpools/wasnorm_wordpool_576.txt	LTP359	ltpFR2	2	10	COBRA	336	n/a	n/a	0	0	0
2008070	WORD	wordpools/wasnorm_wordpool_576.txt	LTP359	ltpFR2	2	10	KETCHUP	771	n/a	n/a	0	0	0
2010663	WORD	wordpools/wasnorm_wordpool_576.txt	LTP359	ltpFR2	2	10	UMPIRE	1535	n/a	n/a	0	0	0
2013439	WORD	wordpools/wasnorm_wordpool_576.txt	LTP359	ltpFR2	2	10	CABIN	211	n/a	n/a	0	0	0
2016180	WORD	wordpools/wasnorm_wordpool_576.txt	LTP359	ltpFR2	2	10	ICING	732	n/a	n/a	0	0	0
2018939	WORD	wordpools/wasnorm_wordpool_576.txt	LTP359	ltpFR2	2	10	TREAT	1501	n/a	n/a	0	0	0
2021748	WORD	wordpools/wasnorm_wordpool_576.txt	LTP359	ltpFR2	2	10	PARROT	1015	n/a	n/a	0	0	0
2024424	WORD	wordpools/wasnorm_wordpool_576.txt	LTP359	ltpFR2	2	10	TOMBSTONE	1478	n/a	n/a	0	0	0
2026029	START	n/a	LTP359	ltpFR2	2	n/a	n/a	n/a	16	n/a	n/a	n/a	n/a
2026998	DISTRACTOR	n/a	LTP359	ltpFR2	2	10	n/a	n/a	n/a	n/a	0	0	0
2027015	PROB	n/a	LTP359	ltpFR2	2	n/a	n/a	n/a	16	17	8	8	1
2030744	PROB	n/a	LTP359	ltpFR2	2	n/a	n/a	n/a	16	13	3	5	5
2032081	PROB	n/a	LTP359	ltpFR2	2	n/a	n/a	n/a	16	11	4	4	3
2033269	PROB	n/a	LTP359	ltpFR2	2	n/a	n/a	n/a	16	11	1	7	3
2034591	PROB	n/a	LTP359	ltpFR2	2	n/a	n/a	n/a	16	19	9	1	9
2036011	PROB	n/a	LTP359	ltpFR2	2	n/a	n/a	n/a	16	13	4	4	5
2037148	PROB	n/a	LTP359	ltpFR2	2	n/a	n/a	n/a	16	13	2	6	5
2038853	PROB	n/a	LTP359	ltpFR2	2	n/a	n/a	n/a	16	20	8	6	6
2041780	PROB	n/a	LTP359	ltpFR2	2	n/a	n/a	n/a	16	8	4	2	2
2043553	PROB	n/a	LTP359	ltpFR2	2	n/a	n/a	n/a	16	9	3	4	2
2044823	PROB	n/a	LTP359	ltpFR2	2	n/a	n/a	n/a	16	14	2	8	4
2046094	PROB	n/a	LTP359	ltpFR2	2	n/a	n/a	n/a	16	19	6	8	5
2047683	PROB	n/a	LTP359	ltpFR2	2	n/a	n/a	n/a	16	5	2	2	1
2048770	STOP	n/a	LTP359	ltpFR2	2	n/a	n/a	n/a	16	n/a	n/a	n/a	n/a
2051863	REC_START	n/a	LTP359	ltpFR2	2	10	n/a	n/a	n/a	n/a	0	0	0
2053663	REC_WORD	wordpools/wasnorm_wordpool_576.txt	LTP359	ltpFR2	2	10	CASKET	255	n/a	n/a	0	0	0
2055956	REC_WORD	wordpools/wasnorm_wordpool_576.txt	LTP359	ltpFR2	2	10	TOMBSTONE	1478	n/a	n/a	0	0	0
2058338	REC_WORD	wordpools/wasnorm_wordpool_576.txt	LTP359	ltpFR2	2	10	WHISTLE	1606	n/a	n/a	0	0	0
2061280	REC_WORD	wordpools/wasnorm_wordpool_576.txt	LTP359	ltpFR2	2	10	FLASK	576	n/a	n/a	0	0	0
2063832	REC_WORD	wordpools/wasnorm_wordpool_576.txt	LTP359	ltpFR2	2	10	POSTAGE	1113	n/a	n/a	0	0	0
2064756	REC_WORD	wordpools/wasnorm_wordpool_576.txt	LTP359	ltpFR2	2	10	STAMP	1370	n/a	n/a	0	0	0
2066744	REC_WORD	wordpools/wasnorm_wordpool_576.txt	LTP359	ltpFR2	2	10	GIFT	635	n/a	n/a	0	0	0
2068235	REC_WORD	wordpools/wasnorm_wordpool_576.txt	LTP359	ltpFR2	2	10	SCULPTURE	1258	n/a	n/a	0	0	0
2069369	REC_WORD	wordpools/wasnorm_wordpool_576.txt	LTP359	ltpFR2	2	10	SPOOL	1356	n/a	n/a	0	0	0
2070650	REC_WORD	wordpools/wasnorm_wordpool_576.txt	LTP359	ltpFR2	2	10	TART	1436	n/a	n/a	0	0	0
2072033	REC_WORD	wordpools/wasnorm_wordpool_576.txt	LTP359	ltpFR2	2	10	ICING	732	n/a	n/a	0	0	0
2073535	REC_WORD	wordpools/wasnorm_wordpool_576.txt	LTP359	ltpFR2	2	10	TYPIST	1532	n/a	n/a	0	0	0
2074405	REC_WORD	wordpools/wasnorm_wordpool_576.txt	LTP359	ltpFR2	2	10	OFFICE	972	n/a	n/a	0	0	0
2076501	REC_WORD	wordpools/wasnorm_wordpool_576.txt	LTP359	ltpFR2	2	10	COMET	353	n/a	n/a	0	0	0
2077559	REC_WORD	wordpools/wasnorm_wordpool_576.txt	LTP359	ltpFR2	2	10	AIRPLANE	12	n/a	n/a	0	0	0
2079709	REC_WORD	wordpools/wasnorm_wordpool_576.txt	LTP359	ltpFR2	2	10	MOTEL	919	n/a	n/a	0	0	0
2080802	REC_WORD	wordpools/wasnorm_wordpool_576.txt	LTP359	ltpFR2	2	10	CABIN	211	n/a	n/a	0	0	0
2085679	REC_WORD	wordpools/wasnorm_wordpool_576.txt	LTP359	ltpFR2	2	10	COBRA	336	n/a	n/a	0	0	0
2088028	REC_WORD	wordpools/wasnorm_wordpool_576.txt	LTP359	ltpFR2	2	10	PARROT	1015	n/a	n/a	0	0	0
2090512	REC_WORD	wordpools/wasnorm_wordpool_576.txt	LTP359	ltpFR2	2	10	TREAT	1501	n/a	n/a	0	0	0
2142305	DISTRACTOR	n/a	LTP359	ltpFR2	2	11	n/a	n/a	n/a	n/a	0	0	0
2142305	START	n/a	LTP359	ltpFR2	2	n/a	n/a	n/a	17	n/a	n/a	n/a	n/a
2142322	PROB	n/a	LTP359	ltpFR2	2	n/a	n/a	n/a	17	17	4	6	7
2144981	PROB	n/a	LTP359	ltpFR2	2	n/a	n/a	n/a	17	16	8	6	2
2146887	PROB	n/a	LTP359	ltpFR2	2	n/a	n/a	n/a	17	18	7	7	4
2148843	PROB	n/a	LTP359	ltpFR2	2	n/a	n/a	n/a	17	18	7	4	7
2151184	PROB	n/a	LTP359	ltpFR2	2	n/a	n/a	n/a	17	8	2	3	3
2153157	PROB	n/a	LTP359	ltpFR2	2	n/a	n/a	n/a	17	10	1	8	1
2154512	PROB	n/a	LTP359	ltpFR2	2	n/a	n/a	n/a	17	23	5	9	9
2156669	PROB	n/a	LTP359	ltpFR2	2	n/a	n/a	n/a	17	16	6	6	4
2158006	PROB	n/a	LTP359	ltpFR2	2	n/a	n/a	n/a	17	13	2	7	4
2159495	PROB	n/a	LTP359	ltpFR2	2	n/a	n/a	n/a	17	16	6	1	9
2161049	PROB	n/a	LTP359	ltpFR2	2	n/a	n/a	n/a	17	16	9	4	3
2162722	PROB	n/a	LTP359	ltpFR2	2	n/a	n/a	n/a	17	17	5	3	9
2164326	PROB	n/a	LTP359	ltpFR2	2	n/a	n/a	n/a	17	16	9	2	5
2165741	STOP	n/a	LTP359	ltpFR2	2	n/a	n/a	n/a	17	n/a	n/a	n/a	n/a
2167202	WORD	wordpools/wasnorm_wordpool_576.txt	LTP359	ltpFR2	2	11	CLIMBER	323	n/a	n/a	0	0	0
2169645	WORD	wordpools/wasnorm_wordpool_576.txt	LTP359	ltpFR2	2	11	LADDER	793	n/a	n/a	0	0	0
2172386	WORD	wordpools/wasnorm_wordpool_576.txt	LTP359	ltpFR2	2	11	SUPPER	1411	n/a	n/a	0	0	0
2174961	WORD	wordpools/wasnorm_wordpool_576.txt	LTP359	ltpFR2	2	11	REPORT	1184	n/a	n/a	0	0	0
2177487	WORD	wordpools/wasnorm_wordpool_576.txt	LTP359	ltpFR2	2	11	LUNCH	849	n/a	n/a	0	0	0
2180245	WORD	wordpools/wasnorm_wordpool_576.txt	LTP359	ltpFR2	2	11	PICNIC	1060	n/a	n/a	0	0	0
2182920	WORD	wordpools/wasnorm_wordpool_576.txt	LTP359	ltpFR2	2	11	ITEM	746	n/a	n/a	0	0	0
2185697	WORD	wordpools/wasnorm_wordpool_576.txt	LTP359	ltpFR2	2	11	BLENDER	136	n/a	n/a	0	0	0
2188472	WORD	wordpools/wasnorm_wordpool_576.txt	LTP359	ltpFR2	2	11	POET	1095	n/a	n/a	0	0	0
2191180	WORD	wordpools/wasnorm_wordpool_576.txt	LTP359	ltpFR2	2	11	SPOUSE	1358	n/a	n/a	0	0	0
2193755	WORD	wordpools/wasnorm_wordpool_576.txt	LTP359	ltpFR2	2	11	LOVER	846	n/a	n/a	0	0	0
2196280	WORD	wordpools/wasnorm_wordpool_576.txt	LTP359	ltpFR2	2	11	PERFUME	1049	n/a	n/a	0	0	0
2198955	WORD	wordpools/wasnorm_wordpool_576.txt	LTP359	ltpFR2	2	11	DRILL	497	n/a	n/a	0	0	0
2201715	WORD	wordpools/wasnorm_wordpool_576.txt	LTP359	ltpFR2	2	11	LIVER	833	n/a	n/a	0	0	0
2204289	WORD	wordpools/wasnorm_wordpool_576.txt	LTP359	ltpFR2	2	11	WORLD	1622	n/a	n/a	0	0	0
2206864	WORD	wordpools/wasnorm_wordpool_576.txt	LTP359	ltpFR2	2	11	SUNRISE	1407	n/a	n/a	0	0	0
2209490	WORD	wordpools/wasnorm_wordpool_576.txt	LTP359	ltpFR2	2	11	WIFE	1609	n/a	n/a	0	0	0
2212282	WORD	wordpools/wasnorm_wordpool_576.txt	LTP359	ltpFR2	2	11	GRIZZLY	662	n/a	n/a	0	0	0
2214874	WORD	wordpools/wasnorm_wordpool_576.txt	LTP359	ltpFR2	2	11	HAMPER	682	n/a	n/a	0	0	0
2217348	WORD	wordpools/wasnorm_wordpool_576.txt	LTP359	ltpFR2	2	11	JELLY	755	n/a	n/a	0	0	0
2219773	WORD	wordpools/wasnorm_wordpool_576.txt	LTP359	ltpFR2	2	11	LEOPARD	812	n/a	n/a	0	0	0
2222566	WORD	wordpools/wasnorm_wordpool_576.txt	LTP359	ltpFR2	2	11	CHIPMUNK	304	n/a	n/a	0	0	0
2224973	WORD	wordpools/wasnorm_wordpool_576.txt	LTP359	ltpFR2	2	11	GYMNAST	675	n/a	n/a	0	0	0
2227632	WORD	wordpools/wasnorm_wordpool_576.txt	LTP359	ltpFR2	2	11	ONION	977	n/a	n/a	0	0	0
2229237	START	n/a	LTP359	ltpFR2	2	n/a	n/a	n/a	18	n/a	n/a	n/a	n/a
2230175	DISTRACTOR	n/a	LTP359	ltpFR2	2	11	n/a	n/a	n/a	n/a	0	0	0
2230190	PROB	n/a	LTP359	ltpFR2	2	n/a	n/a	n/a	18	13	9	2	2
2233801	PROB	n/a	LTP359	ltpFR2	2	n/a	n/a	n/a	18	13	9	1	3
2235039	PROB	n/a	LTP359	ltpFR2	2	n/a	n/a	n/a	18	24	7	9	8
2237213	PROB	n/a	LTP359	ltpFR2	2	n/a	n/a	n/a	18	24	9	8	7
2240608	PROB	n/a	LTP359	ltpFR2	2	n/a	n/a	n/a	18	9	1	4	4
2242078	PROB	n/a	LTP359	ltpFR2	2	n/a	n/a	n/a	18	15	5	3	7
2244051	PROB	n/a	LTP359	ltpFR2	2	n/a	n/a	n/a	18	14	2	3	9
2246743	PROB	n/a	LTP359	ltpFR2	2	n/a	n/a	n/a	18	18	9	4	5
2248517	PROB	n/a	LTP359	ltpFR2	2	n/a	n/a	n/a	18	16	4	9	3
2250473	PROB	n/a	LTP359	ltpFR2	2	n/a	n/a	n/a	18	10	1	8	1
2251644	PROB	n/a	LTP359	ltpFR2	2	n/a	n/a	n/a	18	19	5	6	8
2252880	STOP	n/a	LTP359	ltpFR2	2	n/a	n/a	n/a	18	n/a	n/a	n/a	n/a
2255004	REC_START	n/a	LTP359	ltpFR2	2	11	n/a	n/a	n/a	n/a	0	0	0
2255681	REC_WORD	wordpools/wasnorm_wordpool_576.txt	LTP359	ltpFR2	2	11	CLIMBER	323	n/a	n/a	0	0	0
2257473	REC_WORD	wordpools/wasnorm_wordpool_576.txt	LTP359	ltpFR2	2	11	LADDER	793	n/a	n/a	0	0	0
2260474	REC_WORD	wordpools/wasnorm_wordpool_576.txt	LTP359	ltpFR2	2	11	SUPPER	1411	n/a	n/a	0	0	0
2261525	REC_WORD	wordpools/wasnorm_wordpool_576.txt	LTP359	ltpFR2	2	11	REPORT	1184	n/a	n/a	0	0	0
2262665	REC_WORD	wordpools/wasnorm_wordpool_576.txt	LTP359	ltpFR2	2	11	LUNCH	849	n/a	n/a	0	0	0
2263676	REC_WORD	wordpools/wasnorm_wordpool_576.txt	LTP359	ltpFR2	2	11	PICNIC	1060	n/a	n/a	0	0	0
2264746	REC_WORD	wordpools/wasnorm_wordpool_576.txt	LTP359	ltpFR2	2	11	ONION	977	n/a	n/a	0	0	0
2268799	REC_WORD	wordpools/wasnorm_wordpool_576.txt	LTP359	ltpFR2	2	11	ITEM	746	n/a	n/a	0	0	0
2269548	REC_WORD	wordpools/wasnorm_wordpool_576.txt	LTP359	ltpFR2	2	11	BLENDER	136	n/a	n/a	0	0	0
2271326	REC_WORD	wordpools/wasnorm_wordpool_576.txt	LTP359	ltpFR2	2	11	WIFE	1609	n/a	n/a	0	0	0
2272168	REC_WORD	wordpools/wasnorm_wordpool_576.txt	LTP359	ltpFR2	2	11	SPOUSE	1358	n/a	n/a	0	0	0
2273378	REC_WORD	wordpools/wasnorm_wordpool_576.txt	LTP359	ltpFR2	2	11	LOVER	846	n/a	n/a	0	0	0
2274431	REC_WORD	wordpools/wasnorm_wordpool_576.txt	LTP359	ltpFR2	2	11	LIVER	833	n/a	n/a	0	0	0
2276090	REC_WORD	wordpools/wasnorm_wordpool_576.txt	LTP359	ltpFR2	2	11	DRILL	497	n/a	n/a	0	0	0
2279396	REC_WORD	wordpools/wasnorm_wordpool_576.txt	LTP359	ltpFR2	2	11	GYMNAST	675	n/a	n/a	0	0	0
2281798	REC_WORD	wordpools/wasnorm_wordpool_576.txt	LTP359	ltpFR2	2	11	GRIZZLY	662	n/a	n/a	0	0	0
2285006	REC_WORD	wordpools/wasnorm_wordpool_576.txt	LTP359	ltpFR2	2	11	LEOPARD	812	n/a	n/a	0	0	0
2287293	REC_WORD	wordpools/wasnorm_wordpool_576.txt	LTP359	ltpFR2	2	11	HAMPER	682	n/a	n/a	0	0	0
2288554	REC_WORD	wordpools/wasnorm_wordpool_576.txt	LTP359	ltpFR2	2	11	JELLY	755	n/a	n/a	0	0	0
2291213	REC_WORD	wordpools/wasnorm_wordpool_576.txt	LTP359	ltpFR2	2	11	CHIPMUNK	304	n/a	n/a	0	0	0
2293709	REC_WORD	wordpools/wasnorm_wordpool_576.txt	LTP359	ltpFR2	2	11	GYMNAST	675	n/a	n/a	0	0	0
2315068	REC_WORD	wordpools/wasnorm_wordpool_576.txt	LTP359	ltpFR2	2	11	WORLD	1622	n/a	n/a	0	0	0
2316156	REC_WORD	wordpools/wasnorm_wordpool_576.txt	LTP359	ltpFR2	2	11	SUNRISE	1407	n/a	n/a	0	0	0
2345449	DISTRACTOR	n/a	LTP359	ltpFR2	2	12	n/a	n/a	n/a	n/a	0	0	0
2345450	START	n/a	LTP359	ltpFR2	2	n/a	n/a	n/a	19	n/a	n/a	n/a	n/a
2345464	PROB	n/a	LTP359	ltpFR2	2	n/a	n/a	n/a	19	13	3	6	4
2347571	PROB	n/a	LTP359	ltpFR2	2	n/a	n/a	n/a	19	17	7	1	9
2349209	PROB	n/a	LTP359	ltpFR2	2	n/a	n/a	n/a	19	21	9	6	6
2351867	PROB	n/a	LTP359	ltpFR2	2	n/a	n/a	n/a	19	16	3	7	6
2353055	PROB	n/a	LTP359	ltpFR2	2	n/a	n/a	n/a	19	14	6	3	5
2355094	PROB	n/a	LTP359	ltpFR2	2	n/a	n/a	n/a	19	17	9	7	1
2356817	PROB	n/a	LTP359	ltpFR2	2	n/a	n/a	n/a	19	12	6	4	2
2357753	PROB	n/a	LTP359	ltpFR2	2	n/a	n/a	n/a	19	17	6	7	4
2359141	PROB	n/a	LTP359	ltpFR2	2	n/a	n/a	n/a	19	15	6	5	4
2361900	PROB	n/a	LTP359	ltpFR2	2	n/a	n/a	n/a	19	18	1	8	9
2363321	PROB	n/a	LTP359	ltpFR2	2	n/a	n/a	n/a	19	19	7	8	4
2365110	PROB	n/a	LTP359	ltpFR2	2	n/a	n/a	n/a	19	15	5	8	2
2366633	PROB	n/a	LTP359	ltpFR2	2	n/a	n/a	n/a	19	13	7	2	4
2367939	STOP	n/a	LTP359	ltpFR2	2	n/a	n/a	n/a	19	n/a	n/a	n/a	n/a
2370529	WORD	wordpools/wasnorm_wordpool_576.txt	LTP359	ltpFR2	2	12	OZONE	996	n/a	n/a	0	0	0
2372952	WORD	wordpools/wasnorm_wordpool_576.txt	LTP359	ltpFR2	2	12	PIMPLE	1071	n/a	n/a	0	0	0
2375545	WORD	wordpools/wasnorm_wordpool_576.txt	LTP359	ltpFR2	2	12	JUDGE	761	n/a	n/a	0	0	0
2378336	WORD	wordpools/wasnorm_wordpool_576.txt	LTP359	ltpFR2	2	12	MARROW	872	n/a	n/a	0	0	0
2380861	WORD	wordpools/wasnorm_wordpool_576.txt	LTP359	ltpFR2	2	12	MONSTER	912	n/a	n/a	0	0	0
2383336	WORD	wordpools/wasnorm_wordpool_576.txt	LTP359	ltpFR2	2	12	LUGGAGE	847	n/a	n/a	0	0	0
2385861	WORD	wordpools/wasnorm_wordpool_576.txt	LTP359	ltpFR2	2	12	SUITCASE	1403	n/a	n/a	0	0	0
2388587	WORD	wordpools/wasnorm_wordpool_576.txt	LTP359	ltpFR2	2	12	COOKBOOK	373	n/a	n/a	0	0	0
2391345	WORD	wordpools/wasnorm_wordpool_576.txt	LTP359	ltpFR2	2	12	PREACHER	1119	n/a	n/a	0	0	0
2394004	WORD	wordpools/wasnorm_wordpool_576.txt	LTP359	ltpFR2	2	12	COOK	372	n/a	n/a	0	0	0
2396697	WORD	wordpools/wasnorm_wordpool_576.txt	LTP359	ltpFR2	2	12	LION	827	n/a	n/a	0	0	0
2399237	WORD	wordpools/wasnorm_wordpool_576.txt	LTP359	ltpFR2	2	12	APRON	35	n/a	n/a	0	0	0
2401796	WORD	wordpools/wasnorm_wordpool_576.txt	LTP359	ltpFR2	2	12	CORAL	378	n/a	n/a	0	0	0
2404237	WORD	wordpools/wasnorm_wordpool_576.txt	LTP359	ltpFR2	2	12	SEAGULL	1261	n/a	n/a	0	0	0
2406979	WORD	wordpools/wasnorm_wordpool_576.txt	LTP359	ltpFR2	2	12	KNIFE	785	n/a	n/a	0	0	0
2409771	WORD	wordpools/wasnorm_wordpool_576.txt	LTP359	ltpFR2	2	12	STOVE	1388	n/a	n/a	0	0	0
2412448	WORD	wordpools/wasnorm_wordpool_576.txt	LTP359	ltpFR2	2	12	DIVER	476	n/a	n/a	0	0	0
2415089	WORD	wordpools/wasnorm_wordpool_576.txt	LTP359	ltpFR2	2	12	CLAM	315	n/a	n/a	0	0	0
2417732	WORD	wordpools/wasnorm_wordpool_576.txt	LTP359	ltpFR2	2	12	FRAGRANCE	599	n/a	n/a	0	0	0
2420440	WORD	wordpools/wasnorm_wordpool_576.txt	LTP359	ltpFR2	2	12	GARLIC	624	n/a	n/a	0	0	0
2423081	WORD	wordpools/wasnorm_wordpool_576.txt	LTP359	ltpFR2	2	12	SPONGE	1355	n/a	n/a	0	0	0
2425641	WORD	wordpools/wasnorm_wordpool_576.txt	LTP359	ltpFR2	2	12	PRINCESS	1125	n/a	n/a	0	0	0
2428131	WORD	wordpools/wasnorm_wordpool_576.txt	LTP359	ltpFR2	2	12	PANTHER	1009	n/a	n/a	0	0	0
2430657	WORD	wordpools/wasnorm_wordpool_576.txt	LTP359	ltpFR2	2	12	FOX	598	n/a	n/a	0	0	0
2432262	START	n/a	LTP359	ltpFR2	2	n/a	n/a	n/a	20	n/a	n/a	n/a	n/a
2433443	DISTRACTOR	n/a	LTP359	ltpFR2	2	12	n/a	n/a	n/a	n/a	0	0	0
2433449	PROB	n/a	LTP359	ltpFR2	2	n/a	n/a	n/a	20	17	8	5	4
2437445	PROB	n/a	LTP359	ltpFR2	2	n/a	n/a	n/a	20	12	1	4	7
2438899	PROB	n/a	LTP359	ltpFR2	2	n/a	n/a	n/a	20	12	4	4	4
2440020	PROB	n/a	LTP359	ltpFR2	2	n/a	n/a	n/a	20	14	6	7	1
2441676	PROB	n/a	LTP359	ltpFR2	2	n/a	n/a	n/a	20	16	9	1	6
2442879	PROB	n/a	LTP359	ltpFR2	2	n/a	n/a	n/a	20	7	2	1	4
2444400	PROB	n/a	LTP359	ltpFR2	2	n/a	n/a	n/a	20	21	9	9	3
2445822	PROB	n/a	LTP359	ltpFR2	2	n/a	n/a	n/a	20	18	9	6	3
2447561	PROB	n/a	LTP359	ltpFR2	2	n/a	n/a	n/a	20	8	3	3	2
2450286	PROB	n/a	LTP359	ltpFR2	2	n/a	n/a	n/a	20	11	7	3	1
2451658	PROB	n/a	LTP359	ltpFR2	2	n/a	n/a	n/a	20	13	1	7	5
2456262	STOP	n/a	LTP359	ltpFR2	2	n/a	n/a	n/a	20	n/a	n/a	n/a	n/a
2458180	REC_START	n/a	LTP359	ltpFR2	2	12	n/a	n/a	n/a	n/a	0	0	0
2460166	REC_WORD	wordpools/wasnorm_wordpool_576.txt	LTP359	ltpFR2	2	12	OZONE	996	n/a	n/a	0	0	0
2461635	REC_WORD	wordpools/wasnorm_wordpool_576.txt	LTP359	ltpFR2	2	12	CORAL	378	n/a	n/a	0	0	0
2462479	REC_WORD	wordpools/wasnorm_wordpool_576.txt	LTP359	ltpFR2	2	12	SEAGULL	1261	n/a	n/a	0	0	0
2465293	REC_WORD	wordpools/wasnorm_wordpool_576.txt	LTP359	ltpFR2	2	12	DIVER	476	n/a	n/a	0	0	0
2466351	REC_WORD	wordpools/wasnorm_wordpool_576.txt	LTP359	ltpFR2	2	12	CLAM	315	n/a	n/a	0	0	0
2468590	REC_WORD	wordpools/wasnorm_wordpool_576.txt	LTP359	ltpFR2	2	12	JUDGE	761	n/a	n/a	0	0	0
2469479	REC_WORD	wordpools/wasnorm_wordpool_576.txt	LTP359	ltpFR2	2	12	PIMPLE	1071	n/a	n/a	0	0	0
2471358	REC_WORD	wordpools/wasnorm_wordpool_576.txt	LTP359	ltpFR2	2	12	MARROW	872	n/a	n/a	0	0	0
2472344	REC_WORD	wordpools/wasnorm_wordpool_576.txt	LTP359	ltpFR2	2	12	MONSTER	912	n/a	n/a	0	0	0
2475001	REC_WORD	wordpools/wasnorm_wordpool_576.txt	LTP359	ltpFR2	2	12	LUGGAGE	847	n/a	n/a	0	0	0
2476085	REC_WORD	wordpools/wasnorm_wordpool_576.txt	LTP359	ltpFR2	2	12	SUITCASE	1403	n/a	n/a	0	0	0
2478980	REC_WORD	wordpools/wasnorm_wordpool_576.txt	LTP359	ltpFR2	2	12	COOKBOOK	373	n/a	n/a	0	0	0
2480118	REC_WORD	wordpools/wasnorm_wordpool_576.txt	LTP359	ltpFR2	2	12	COOK	372	n/a	n/a	0	0	0
2481790	REC_WORD	wordpools/wasnorm_wordpool_576.txt	LTP359	ltpFR2	2	12	LION	827	n/a	n/a	0	0	0
2484972	REC_WORD	wordpools/wasnorm_wordpool_576.txt	LTP359	ltpFR2	2	12	FOX	598	n/a	n/a	0	0	0
2485707	REC_WORD	wordpools/wasnorm_wordpool_576.txt	LTP359	ltpFR2	2	12	PANTHER	1009	n/a	n/a	0	0	0
2488223	REC_WORD	wordpools/wasnorm_wordpool_576.txt	LTP359	ltpFR2	2	12	PRINCESS	1125	n/a	n/a	0	0	0
2493985	REC_WORD	wordpools/wasnorm_wordpool_576.txt	LTP359	ltpFR2	2	12	PREACHER	1119	n/a	n/a	0	0	0
2495188	REC_WORD	wordpools/wasnorm_wordpool_576.txt	LTP359	ltpFR2	2	12	KNIFE	785	n/a	n/a	0	0	0
2496729	REC_WORD	wordpools/wasnorm_wordpool_576.txt	LTP359	ltpFR2	2	12	STOVE	1388	n/a	n/a	0	0	0
2498132	REC_WORD	wordpools/wasnorm_wordpool_576.txt	LTP359	ltpFR2	2	12	APRON	35	n/a	n/a	0	0	0
2530666	REC_WORD	wordpools/wasnorm_wordpool_576.txt	LTP359	ltpFR2	2	12	FRAGRANCE	599	n/a	n/a	0	0	0
2548605	DISTRACTOR	n/a	LTP359	ltpFR2	2	13	n/a	n/a	n/a	n/a	0	0	0
2548606	START	n/a	LTP359	ltpFR2	2	n/a	n/a	n/a	21	n/a	n/a	n/a	n/a
2548622	PROB	n/a	LTP359	ltpFR2	2	n/a	n/a	n/a	21	19	8	7	4
2551649	PROB	n/a	LTP359	ltpFR2	2	n/a	n/a	n/a	21	16	5	6	5
2552935	PROB	n/a	LTP359	ltpFR2	2	n/a	n/a	n/a	21	14	4	1	9
2554223	PROB	n/a	LTP359	ltpFR2	2	n/a	n/a	n/a	21	21	8	4	9
2555545	PROB	n/a	LTP359	ltpFR2	2	n/a	n/a	n/a	21	10	2	6	2
2556848	PROB	n/a	LTP359	ltpFR2	2	n/a	n/a	n/a	21	19	9	2	8
2558202	PROB	n/a	LTP359	ltpFR2	2	n/a	n/a	n/a	21	17	1	9	7
2559424	PROB	n/a	LTP359	ltpFR2	2	n/a	n/a	n/a	21	13	1	7	5
2561028	PROB	n/a	LTP359	ltpFR2	2	n/a	n/a	n/a	21	15	3	7	5
2562098	PROB	n/a	LTP359	ltpFR2	2	n/a	n/a	n/a	21	17	6	3	8
2563437	PROB	n/a	LTP359	ltpFR2	2	n/a	n/a	n/a	21	15	7	2	6
2564774	PROB	n/a	LTP359	ltpFR2	2	n/a	n/a	n/a	21	16	7	5	4
2566614	PROB	n/a	LTP359	ltpFR2	2	n/a	n/a	n/a	21	21	8	7	6
2568001	PROB	n/a	LTP359	ltpFR2	2	n/a	n/a	n/a	21	11	1	1	9
2569154	PROB	n/a	LTP359	ltpFR2	2	n/a	n/a	n/a	21	22	6	7	9
2571722	STOP	n/a	LTP359	ltpFR2	2	n/a	n/a	n/a	21	n/a	n/a	n/a	n/a
2573637	WORD	wordpools/wasnorm_wordpool_576.txt	LTP359	ltpFR2	2	13	COLONEL	348	n/a	n/a	0	0	0
2576378	WORD	wordpools/wasnorm_wordpool_576.txt	LTP359	ltpFR2	2	13	CHAPEL	280	n/a	n/a	0	0	0
2578919	WORD	wordpools/wasnorm_wordpool_576.txt	LTP359	ltpFR2	2	13	OMELET	976	n/a	n/a	0	0	0
2581696	WORD	wordpools/wasnorm_wordpool_576.txt	LTP359	ltpFR2	2	13	FRANCE	601	n/a	n/a	0	0	0
2584370	WORD	wordpools/wasnorm_wordpool_576.txt	LTP359	ltpFR2	2	13	SHOULDER	1294	n/a	n/a	0	0	0
2586962	WORD	wordpools/wasnorm_wordpool_576.txt	LTP359	ltpFR2	2	13	MARS	873	n/a	n/a	0	0	0
2589438	WORD	wordpools/wasnorm_wordpool_576.txt	LTP359	ltpFR2	2	13	PLUTO	1092	n/a	n/a	0	0	0
2592229	WORD	wordpools/wasnorm_wordpool_576.txt	LTP359	ltpFR2	2	13	SWIMMER	1420	n/a	n/a	0	0	0
2594655	WORD	wordpools/wasnorm_wordpool_576.txt	LTP359	ltpFR2	2	13	PEBBLE	1035	n/a	n/a	0	0	0
2597245	WORD	wordpools/wasnorm_wordpool_576.txt	LTP359	ltpFR2	2	13	KIDNEY	776	n/a	n/a	0	0	0
2599854	WORD	wordpools/wasnorm_wordpool_576.txt	LTP359	ltpFR2	2	13	POWDER	1117	n/a	n/a	0	0	0
2602597	WORD	wordpools/wasnorm_wordpool_576.txt	LTP359	ltpFR2	2	13	CRUTCH	417	n/a	n/a	0	0	0
2605271	WORD	wordpools/wasnorm_wordpool_576.txt	LTP359	ltpFR2	2	13	BUCKET	184	n/a	n/a	0	0	0
2607830	WORD	wordpools/wasnorm_wordpool_576.txt	LTP359	ltpFR2	2	13	COURSE	390	n/a	n/a	0	0	0
2610271	WORD	wordpools/wasnorm_wordpool_576.txt	LTP359	ltpFR2	2	13	BINDER	127	n/a	n/a	0	0	0
2612762	WORD	wordpools/wasnorm_wordpool_576.txt	LTP359	ltpFR2	2	13	GLOBE	641	n/a	n/a	0	0	0
2615472	WORD	wordpools/wasnorm_wordpool_576.txt	LTP359	ltpFR2	2	13	PROTON	1132	n/a	n/a	0	0	0
2618163	WORD	wordpools/wasnorm_wordpool_576.txt	LTP359	ltpFR2	2	13	SPACE	1345	n/a	n/a	0	0	0
2620872	WORD	wordpools/wasnorm_wordpool_576.txt	LTP359	ltpFR2	2	13	CONCERT	360	n/a	n/a	0	0	0
2623665	WORD	wordpools/wasnorm_wordpool_576.txt	LTP359	ltpFR2	2	13	SURVEY	1414	n/a	n/a	0	0	0
2626239	WORD	wordpools/wasnorm_wordpool_576.txt	LTP359	ltpFR2	2	13	CASHIER	254	n/a	n/a	0	0	0
2628898	WORD	wordpools/wasnorm_wordpool_576.txt	LTP359	ltpFR2	2	13	ROOSTER	1209	n/a	n/a	0	0	0
2631424	WORD	wordpools/wasnorm_wordpool_576.txt	LTP359	ltpFR2	2	13	VELVET	1555	n/a	n/a	0	0	0
2633847	WORD	wordpools/wasnorm_wordpool_576.txt	LTP359	ltpFR2	2	13	EGYPT	519	n/a	n/a	0	0	0
2635454	START	n/a	LTP359	ltpFR2	2	n/a	n/a	n/a	22	n/a	n/a	n/a	n/a
2636357	DISTRACTOR	n/a	LTP359	ltpFR2	2	13	n/a	n/a	n/a	n/a	0	0	0
2636372	PROB	n/a	LTP359	ltpFR2	2	n/a	n/a	n/a	22	20	4	7	9
2639917	PROB	n/a	LTP359	ltpFR2	2	n/a	n/a	n/a	22	16	6	2	8
2641590	PROB	n/a	LTP359	ltpFR2	2	n/a	n/a	n/a	22	11	4	4	3
2643763	PROB	n/a	LTP359	ltpFR2	2	n/a	n/a	n/a	22	15	7	3	5
2644850	PROB	n/a	LTP359	ltpFR2	2	n/a	n/a	n/a	22	14	2	4	8
2647057	PROB	n/a	LTP359	ltpFR2	2	n/a	n/a	n/a	22	11	2	3	6
2649097	PROB	n/a	LTP359	ltpFR2	2	n/a	n/a	n/a	22	14	2	5	7
2650919	PROB	n/a	LTP359	ltpFR2	2	n/a	n/a	n/a	22	21	7	9	5
2653996	PROB	n/a	LTP359	ltpFR2	2	n/a	n/a	n/a	22	27	9	9	9
2655485	PROB	n/a	LTP359	ltpFR2	2	n/a	n/a	n/a	22	17	2	7	8
2659454	STOP	n/a	LTP359	ltpFR2	2	n/a	n/a	n/a	22	n/a	n/a	n/a	n/a
2661337	REC_START	n/a	LTP359	ltpFR2	2	13	n/a	n/a	n/a	n/a	0	0	0
2661757	REC_WORD	wordpools/wasnorm_wordpool_576.txt	LTP359	ltpFR2	2	13	COLONEL	348	n/a	n/a	0	0	0
2662833	REC_WORD	wordpools/wasnorm_wordpool_576.txt	LTP359	ltpFR2	2	13	CHAPEL	280	n/a	n/a	0	0	0
2664158	REC_WORD	wordpools/wasnorm_wordpool_576.txt	LTP359	ltpFR2	2	13	OMELET	976	n/a	n/a	0	0	0
2665983	REC_WORD	wordpools/wasnorm_wordpool_576.txt	LTP359	ltpFR2	2	13	POWDER	1117	n/a	n/a	0	0	0
2670617	REC_WORD	wordpools/wasnorm_wordpool_576.txt	LTP359	ltpFR2	2	13	GLOBE	641	n/a	n/a	0	0	0
2673524	REC_WORD	wordpools/wasnorm_wordpool_576.txt	LTP359	ltpFR2	2	13	FRANCE	601	n/a	n/a	0	0	0
2675121	REC_WORD	wordpools/wasnorm_wordpool_576.txt	LTP359	ltpFR2	2	13	SWIMMER	1420	n/a	n/a	0	0	0
2676282	REC_WORD	wordpools/wasnorm_wordpool_576.txt	LTP359	ltpFR2	2	13	PEBBLE	1035	n/a	n/a	0	0	0
2676958	REC_WORD	wordpools/wasnorm_wordpool_576.txt	LTP359	ltpFR2	2	13	KIDNEY	776	n/a	n/a	0	0	0
2678598	REC_WORD	wordpools/wasnorm_wordpool_576.txt	LTP359	ltpFR2	2	13	CRUTCH	417	n/a	n/a	0	0	0
2679678	REC_WORD	wordpools/wasnorm_wordpool_576.txt	LTP359	ltpFR2	2	13	BUCKET	184	n/a	n/a	0	0	0
2681585	REC_WORD	wordpools/wasnorm_wordpool_576.txt	LTP359	ltpFR2	2	13	SHOULDER	1294	n/a	n/a	0	0	0
2682554	REC_WORD	wordpools/wasnorm_wordpool_576.txt	LTP359	ltpFR2	2	13	MARS	873	n/a	n/a	0	0	0
2683274	REC_WORD	wordpools/wasnorm_wordpool_576.txt	LTP359	ltpFR2	2	13	PLUTO	1092	n/a	n/a	0	0	0
2685176	REC_WORD	wordpools/wasnorm_wordpool_576.txt	LTP359	ltpFR2	2	13	SPACE	1345	n/a	n/a	0	0	0
2686747	REC_WORD	wordpools/wasnorm_wordpool_576.txt	LTP359	ltpFR2	2	13	ATOM	55	n/a	n/a	0	0	0
2688816	REC_WORD	wordpools/wasnorm_wordpool_576.txt	LTP359	ltpFR2	2	13	CONCERT	360	n/a	n/a	0	0	0
2691154	REC_WORD	wordpools/wasnorm_wordpool_576.txt	LTP359	ltpFR2	2	13	CASHIER	254	n/a	n/a	0	0	0
2693850	REC_WORD	wordpools/wasnorm_wordpool_576.txt	LTP359	ltpFR2	2	13	SURVEY	1414	n/a	n/a	0	0	0
2695110	REC_WORD	wordpools/wasnorm_wordpool_576.txt	LTP359	ltpFR2	2	13	ROOSTER	1209	n/a	n/a	0	0	0
2696159	REC_WORD	wordpools/wasnorm_wordpool_576.txt	LTP359	ltpFR2	2	13	VELVET	1555	n/a	n/a	0	0	0
2698000	REC_WORD	wordpools/wasnorm_wordpool_576.txt	LTP359	ltpFR2	2	13	EGYPT	519	n/a	n/a	0	0	0
2751796	WORD	wordpools/wasnorm_wordpool_576.txt	LTP359	ltpFR2	2	14	TABLET	1427	n/a	n/a	0	0	0
2754522	WORD	wordpools/wasnorm_wordpool_576.txt	LTP359	ltpFR2	2	14	WOMAN	1620	n/a	n/a	0	0	0
2757230	WORD	wordpools/wasnorm_wordpool_576.txt	LTP359	ltpFR2	2	14	SNAKE	1333	n/a	n/a	0	0	0
2760023	WORD	wordpools/wasnorm_wordpool_576.txt	LTP359	ltpFR2	2	14	SWAMP	1416	n/a	n/a	0	0	0
2762482	WORD	wordpools/wasnorm_wordpool_576.txt	LTP359	ltpFR2	2	14	FEMALE	559	n/a	n/a	0	0	0
2765189	WORD	wordpools/wasnorm_wordpool_576.txt	LTP359	ltpFR2	2	14	ROBBER	1197	n/a	n/a	0	0	0
2767665	WORD	wordpools/wasnorm_wordpool_576.txt	LTP359	ltpFR2	2	14	TEACHER	1440	n/a	n/a	0	0	0
2770390	WORD	wordpools/wasnorm_wordpool_576.txt	LTP359	ltpFR2	2	14	COLLEGE	346	n/a	n/a	0	0	0
2773015	WORD	wordpools/wasnorm_wordpool_576.txt	LTP359	ltpFR2	2	14	LEADER	807	n/a	n/a	0	0	0
2775724	WORD	wordpools/wasnorm_wordpool_576.txt	LTP359	ltpFR2	2	14	TWISTER	1530	n/a	n/a	0	0	0
2778534	WORD	wordpools/wasnorm_wordpool_576.txt	LTP359	ltpFR2	2	14	LETTUCE	814	n/a	n/a	0	0	0
2781108	WORD	wordpools/wasnorm_wordpool_576.txt	LTP359	ltpFR2	2	14	MARSH	874	n/a	n/a	0	0	0
2783567	WORD	wordpools/wasnorm_wordpool_576.txt	LTP359	ltpFR2	2	14	YARN	1631	n/a	n/a	0	0	0
2786375	WORD	wordpools/wasnorm_wordpool_576.txt	LTP359	ltpFR2	2	14	THREAD	1460	n/a	n/a	0	0	0
2788966	WORD	wordpools/wasnorm_wordpool_576.txt	LTP359	ltpFR2	2	14	NEUTRON	947	n/a	n/a	0	0	0
2791593	WORD	wordpools/wasnorm_wordpool_576.txt	LTP359	ltpFR2	2	14	JURY	766	n/a	n/a	0	0	0
2794233	WORD	wordpools/wasnorm_wordpool_576.txt	LTP359	ltpFR2	2	14	SUSPECT	1415	n/a	n/a	0	0	0
2796726	WORD	wordpools/wasnorm_wordpool_576.txt	LTP359	ltpFR2	2	14	DRAWING	494	n/a	n/a	0	0	0
2799535	WORD	wordpools/wasnorm_wordpool_576.txt	LTP359	ltpFR2	2	14	TURKEY	1520	n/a	n/a	0	0	0
2802159	WORD	wordpools/wasnorm_wordpool_576.txt	LTP359	ltpFR2	2	14	SISTER	1312	n/a	n/a	0	0	0
2804868	WORD	wordpools/wasnorm_wordpool_576.txt	LTP359	ltpFR2	2	14	COIN	343	n/a	n/a	0	0	0
2807393	WORD	wordpools/wasnorm_wordpool_576.txt	LTP359	ltpFR2	2	14	SCARECROW	1245	n/a	n/a	0	0	0
2810135	WORD	wordpools/wasnorm_wordpool_576.txt	LTP359	ltpFR2	2	14	PERCH	1048	n/a	n/a	0	0	0
2812777	WORD	wordpools/wasnorm_wordpool_576.txt	LTP359	ltpFR2	2	14	LIPSTICK	829	n/a	n/a	0	0	0
2814382	START	n/a	LTP359	ltpFR2	2	n/a	n/a	n/a	23	n/a	n/a	n/a	n/a
2815410	DISTRACTOR	n/a	LTP359	ltpFR2	2	14	n/a	n/a	n/a	n/a	0	0	0
2815420	PROB	n/a	LTP359	ltpFR2	2	n/a	n/a	n/a	23	16	2	5	9
2819081	PROB	n/a	LTP359	ltpFR2	2	n/a	n/a	n/a	23	17	8	2	7
2820167	PROB	n/a	LTP359	ltpFR2	2	n/a	n/a	n/a	23	14	5	3	6
2821623	PROB	n/a	LTP359	ltpFR2	2	n/a	n/a	n/a	23	9	1	4	4
2823579	PROB	n/a	LTP359	ltpFR2	2	n/a	n/a	n/a	23	19	8	7	4
2825686	PROB	n/a	LTP359	ltpFR2	2	n/a	n/a	n/a	23	17	4	2	9
2827274	PROB	n/a	LTP359	ltpFR2	2	n/a	n/a	n/a	23	15	7	2	6
2830250	PROB	n/a	LTP359	ltpFR2	2	n/a	n/a	n/a	23	19	3	9	7
2832139	PROB	n/a	LTP359	ltpFR2	2	n/a	n/a	n/a	23	19	8	9	2
2833979	PROB	n/a	LTP359	ltpFR2	2	n/a	n/a	n/a	23	16	3	4	9
2838382	STOP	n/a	LTP359	ltpFR2	2	n/a	n/a	n/a	23	n/a	n/a	n/a	n/a
2840166	REC_START	n/a	LTP359	ltpFR2	2	14	n/a	n/a	n/a	n/a	0	0	0
2842908	REC_WORD	wordpools/wasnorm_wordpool_576.txt	LTP359	ltpFR2	2	14	SWAMP	1416	n/a	n/a	0	0	0
2844628	REC_WORD	wordpools/wasnorm_wordpool_576.txt	LTP359	ltpFR2	2	14	WOMAN	1620	n/a	n/a	0	0	0
2846133	REC_WORD	wordpools/wasnorm_wordpool_576.txt	LTP359	ltpFR2	2	14	FEMALE	559	n/a	n/a	0	0	0
2847586	REC_WORD	wordpools/wasnorm_wordpool_576.txt	LTP359	ltpFR2	2	14	TEACHER	1440	n/a	n/a	0	0	0
2849075	REC_WORD	wordpools/wasnorm_wordpool_576.txt	LTP359	ltpFR2	2	14	COLLEGE	346	n/a	n/a	0	0	0
2850459	REC_WORD	wordpools/wasnorm_wordpool_576.txt	LTP359	ltpFR2	2	14	TWISTER	1530	n/a	n/a	0	0	0
2851950	REC_WORD	wordpools/wasnorm_wordpool_576.txt	LTP359	ltpFR2	2	14	ROBBER	1197	n/a	n/a	0	0	0
2854613	REC_WORD	wordpools/wasnorm_wordpool_576.txt	LTP359	ltpFR2	2	14	LETTUCE	814	n/a	n/a	0	0	0
2856102	REC_WORD	wordpools/wasnorm_wordpool_576.txt	LTP359	ltpFR2	2	14	YARN	1631	n/a	n/a	0	0	0
2857910	REC_WORD	wordpools/wasnorm_wordpool_576.txt	LTP359	ltpFR2	2	14	THREAD	1460	n/a	n/a	0	0	0
2864793	REC_WORD	wordpools/wasnorm_wordpool_576.txt	LTP359	ltpFR2	2	14	MARSH	874	n/a	n/a	0	0	0
2868201	REC_WORD	wordpools/wasnorm_wordpool_576.txt	LTP359	ltpFR2	2	14	TURKEY	1520	n/a	n/a	0	0	0
2871757	REC_WORD	wordpools/wasnorm_wordpool_576.txt	LTP359	ltpFR2	2	14	JURY	766	n/a	n/a	0	0	0
2872643	REC_WORD	wordpools/wasnorm_wordpool_576.txt	LTP359	ltpFR2	2	14	SUSPECT	1415	n/a	n/a	0	0	0
2874627	REC_WORD	wordpools/wasnorm_wordpool_576.txt	LTP359	ltpFR2	2	14	COIN	343	n/a	n/a	0	0	0
2875675	REC_WORD	wordpools/wasnorm_wordpool_576.txt	LTP359	ltpFR2	2	14	DRAWING	494	n/a	n/a	0	0	0
2876786	REC_WORD	wordpools/wasnorm_wordpool_576.txt	LTP359	ltpFR2	2	14	SISTER	1312	n/a	n/a	0	0	0
2879821	REC_WORD	wordpools/wasnorm_wordpool_576.txt	LTP359	ltpFR2	2	14	SCARECROW	1245	n/a	n/a	0	0	0
2882198	REC_WORD	wordpools/wasnorm_wordpool_576.txt	LTP359	ltpFR2	2	14	PERCH	1048	n/a	n/a	0	0	0
2883299	REC_WORD	wordpools/wasnorm_wordpool_576.txt	LTP359	ltpFR2	2	14	LIPSTICK	829	n/a	n/a	0	0	0
2890356	REC_WORD	wordpools/wasnorm_wordpool_576.txt	LTP359	ltpFR2	2	14	LEADER	807	n/a	n/a	0	0	0
2891904	REC_WORD	wordpools/wasnorm_wordpool_576.txt	LTP359	ltpFR2	2	14	NEUTRON	947	n/a	n/a	0	0	0
2902931	REC_WORD	wordpools/wasnorm_wordpool_576.txt	LTP359	ltpFR2	2	14	TABLET	1427	n/a	n/a	0	0	0
2904153	REC_WORD	wordpools/wasnorm_wordpool_576.txt	LTP359	ltpFR2	2	14	SNAKE	1333	n/a	n/a	0	0	0
2930593	DISTRACTOR	n/a	LTP359	ltpFR2	2	15	n/a	n/a	n/a	n/a	0	0	0
2930593	START	n/a	LTP359	ltpFR2	2	n/a	n/a	n/a	24	n/a	n/a	n/a	n/a
2930609	PROB	n/a	LTP359	ltpFR2	2	n/a	n/a	n/a	24	20	7	8	5
2933183	PROB	n/a	LTP359	ltpFR2	2	n/a	n/a	n/a	24	13	6	5	2
2935274	PROB	n/a	LTP359	ltpFR2	2	n/a	n/a	n/a	24	8	5	2	1
2936795	PROB	n/a	LTP359	ltpFR2	2	n/a	n/a	n/a	24	24	9	9	6
2939236	PROB	n/a	LTP359	ltpFR2	2	n/a	n/a	n/a	24	20	8	3	9
2940992	PROB	n/a	LTP359	ltpFR2	2	n/a	n/a	n/a	24	10	2	1	7
2942129	PROB	n/a	LTP359	ltpFR2	2	n/a	n/a	n/a	24	8	2	1	5
2943652	PROB	n/a	LTP359	ltpFR2	2	n/a	n/a	n/a	24	17	2	6	9
2945306	PROB	n/a	LTP359	ltpFR2	2	n/a	n/a	n/a	24	12	2	6	4
2946410	PROB	n/a	LTP359	ltpFR2	2	n/a	n/a	n/a	24	18	9	4	5
2948685	PROB	n/a	LTP359	ltpFR2	2	n/a	n/a	n/a	24	15	3	8	4
2950373	PROB	n/a	LTP359	ltpFR2	2	n/a	n/a	n/a	24	6	2	1	3
2951644	PROB	n/a	LTP359	ltpFR2	2	n/a	n/a	n/a	24	13	2	6	5
2952964	PROB	n/a	LTP359	ltpFR2	2	n/a	n/a	n/a	24	17	9	3	7
2954188	STOP	n/a	LTP359	ltpFR2	2	n/a	n/a	n/a	24	n/a	n/a	n/a	n/a
2955507	WORD	wordpools/wasnorm_wordpool_576.txt	LTP359	ltpFR2	2	15	COFFEE	341	n/a	n/a	0	0	0
2958014	WORD	wordpools/wasnorm_wordpool_576.txt	LTP359	ltpFR2	2	15	ELBOW	520	n/a	n/a	0	0	0
2960674	WORD	wordpools/wasnorm_wordpool_576.txt	LTP359	ltpFR2	2	15	FOOT	590	n/a	n/a	0	0	0
2963231	WORD	wordpools/wasnorm_wordpool_576.txt	LTP359	ltpFR2	2	15	BANKER	84	n/a	n/a	0	0	0
2965806	WORD	wordpools/wasnorm_wordpool_576.txt	LTP359	ltpFR2	2	15	SPIDER	1351	n/a	n/a	0	0	0
2968214	WORD	wordpools/wasnorm_wordpool_576.txt	LTP359	ltpFR2	2	15	OYSTER	995	n/a	n/a	0	0	0
2970706	WORD	wordpools/wasnorm_wordpool_576.txt	LTP359	ltpFR2	2	15	DOUGHNUT	490	n/a	n/a	0	0	0
2973482	WORD	wordpools/wasnorm_wordpool_576.txt	LTP359	ltpFR2	2	15	HUSBAND	728	n/a	n/a	0	0	0
2976106	WORD	wordpools/wasnorm_wordpool_576.txt	LTP359	ltpFR2	2	15	CONVICT	371	n/a	n/a	0	0	0
2978881	WORD	wordpools/wasnorm_wordpool_576.txt	LTP359	ltpFR2	2	15	OUTLAW	989	n/a	n/a	0	0	0
2981508	WORD	wordpools/wasnorm_wordpool_576.txt	LTP359	ltpFR2	2	15	SNAIL	1332	n/a	n/a	0	0	0
2984048	WORD	wordpools/wasnorm_wordpool_576.txt	LTP359	ltpFR2	2	15	PORK	1108	n/a	n/a	0	0	0
2986524	WORD	wordpools/wasnorm_wordpool_576.txt	LTP359	ltpFR2	2	15	SHORTS	1293	n/a	n/a	0	0	0
2989181	WORD	wordpools/wasnorm_wordpool_576.txt	LTP359	ltpFR2	2	15	COCKTAIL	338	n/a	n/a	0	0	0
2991823	WORD	wordpools/wasnorm_wordpool_576.txt	LTP359	ltpFR2	2	15	CAFE	216	n/a	n/a	0	0	0
2994298	WORD	wordpools/wasnorm_wordpool_576.txt	LTP359	ltpFR2	2	15	PICTURE	1061	n/a	n/a	0	0	0
2997024	WORD	wordpools/wasnorm_wordpool_576.txt	LTP359	ltpFR2	2	15	TOURIST	1488	n/a	n/a	0	0	0
2999700	WORD	wordpools/wasnorm_wordpool_576.txt	LTP359	ltpFR2	2	15	BRANCH	168	n/a	n/a	0	0	0
3002324	WORD	wordpools/wasnorm_wordpool_576.txt	LTP359	ltpFR2	2	15	HEDGE	699	n/a	n/a	0	0	0
3005016	WORD	wordpools/wasnorm_wordpool_576.txt	LTP359	ltpFR2	2	15	SUNSET	1408	n/a	n/a	0	0	0
3007825	WORD	wordpools/wasnorm_wordpool_576.txt	LTP359	ltpFR2	2	15	FOREHEAD	592	n/a	n/a	0	0	0
3010568	WORD	wordpools/wasnorm_wordpool_576.txt	LTP359	ltpFR2	2	15	GANGSTER	620	n/a	n/a	0	0	0
3013209	WORD	wordpools/wasnorm_wordpool_576.txt	LTP359	ltpFR2	2	15	VAGRANT	1544	n/a	n/a	0	0	0
3015885	WORD	wordpools/wasnorm_wordpool_576.txt	LTP359	ltpFR2	2	15	CRICKET	408	n/a	n/a	0	0	0
3017491	START	n/a	LTP359	ltpFR2	2	n/a	n/a	n/a	25	n/a	n/a	n/a	n/a
3018599	DISTRACTOR	n/a	LTP359	ltpFR2	2	15	n/a	n/a	n/a	n/a	0	0	0
3018611	PROB	n/a	LTP359	ltpFR2	2	n/a	n/a	n/a	25	22	6	7	9
3023877	PROB	n/a	LTP359	ltpFR2	2	n/a	n/a	n/a	25	18	5	5	8
3024981	PROB	n/a	LTP359	ltpFR2	2	n/a	n/a	n/a	25	14	5	4	5
3026721	PROB	n/a	LTP359	ltpFR2	2	n/a	n/a	n/a	25	12	3	8	1
3028275	PROB	n/a	LTP359	ltpFR2	2	n/a	n/a	n/a	25	7	2	1	4
3029530	PROB	n/a	LTP359	ltpFR2	2	n/a	n/a	n/a	25	20	6	7	7
3030950	PROB	n/a	LTP359	ltpFR2	2	n/a	n/a	n/a	25	12	5	3	4
3032238	PROB	n/a	LTP359	ltpFR2	2	n/a	n/a	n/a	25	14	2	5	7
3033776	PROB	n/a	LTP359	ltpFR2	2	n/a	n/a	n/a	25	18	8	7	3
3035080	PROB	n/a	LTP359	ltpFR2	2	n/a	n/a	n/a	25	13	7	4	2
3036703	PROB	n/a	LTP359	ltpFR2	2	n/a	n/a	n/a	25	20	4	9	7
3038742	PROB	n/a	LTP359	ltpFR2	2	n/a	n/a	n/a	25	14	5	1	8
3039943	STOP	n/a	LTP359	ltpFR2	2	n/a	n/a	n/a	25	n/a	n/a	n/a	n/a
3043257	REC_START	n/a	LTP359	ltpFR2	2	15	n/a	n/a	n/a	n/a	0	0	0
3045352	REC_WORD	wordpools/wasnorm_wordpool_576.txt	LTP359	ltpFR2	2	15	SPIDER	1351	n/a	n/a	0	0	0
3047484	REC_WORD	wordpools/wasnorm_wordpool_576.txt	LTP359	ltpFR2	2	15	BANKER	84	n/a	n/a	0	0	0
3048460	REC_WORD	wordpools/wasnorm_wordpool_576.txt	LTP359	ltpFR2	2	15	COFFEE	341	n/a	n/a	0	0	0
3049741	REC_WORD	wordpools/wasnorm_wordpool_576.txt	LTP359	ltpFR2	2	15	ELBOW	520	n/a	n/a	0	0	0
3050951	REC_WORD	wordpools/wasnorm_wordpool_576.txt	LTP359	ltpFR2	2	15	FOOT	590	n/a	n/a	0	0	0
3054590	REC_WORD	wordpools/wasnorm_wordpool_576.txt	LTP359	ltpFR2	2	15	OYSTER	995	n/a	n/a	0	0	0
3055967	REC_WORD	wordpools/wasnorm_wordpool_576.txt	LTP359	ltpFR2	2	15	DOUGHNUT	490	n/a	n/a	0	0	0
3058698	REC_WORD	wordpools/wasnorm_wordpool_576.txt	LTP359	ltpFR2	2	15	HUSBAND	728	n/a	n/a	0	0	0
3061180	REC_WORD	wordpools/wasnorm_wordpool_576.txt	LTP359	ltpFR2	2	15	SNAIL	1332	n/a	n/a	0	0	0
3062322	REC_WORD	wordpools/wasnorm_wordpool_576.txt	LTP359	ltpFR2	2	15	SHORTS	1293	n/a	n/a	0	0	0
3066410	REC_WORD	wordpools/wasnorm_wordpool_576.txt	LTP359	ltpFR2	2	15	COCKTAIL	338	n/a	n/a	0	0	0
3068590	REC_WORD	wordpools/wasnorm_wordpool_576.txt	LTP359	ltpFR2	2	15	PORK	1108	n/a	n/a	0	0	0
3070294	REC_WORD	wordpools/wasnorm_wordpool_576.txt	LTP359	ltpFR2	2	15	HEDGE	699	n/a	n/a	0	0	0
3071085	REC_WORD	wordpools/wasnorm_wordpool_576.txt	LTP359	ltpFR2	2	15	FOREHEAD	592	n/a	n/a	0	0	0
3072688	REC_WORD	wordpools/wasnorm_wordpool_576.txt	LTP359	ltpFR2	2	15	GANGSTER	620	n/a	n/a	0	0	0
3073768	REC_WORD	wordpools/wasnorm_wordpool_576.txt	LTP359	ltpFR2	2	15	VAGRANT	1544	n/a	n/a	0	0	0
3075449	REC_WORD	wordpools/wasnorm_wordpool_576.txt	LTP359	ltpFR2	2	15	CRICKET	408	n/a	n/a	0	0	0
3098383	REC_WORD	wordpools/wasnorm_wordpool_576.txt	LTP359	ltpFR2	2	15	CAFE	216	n/a	n/a	0	0	0
3099652	REC_WORD	wordpools/wasnorm_wordpool_576.txt	LTP359	ltpFR2	2	15	PICTURE	1061	n/a	n/a	0	0	0
3101574	REC_WORD	wordpools/wasnorm_wordpool_576.txt	LTP359	ltpFR2	2	15	TOURIST	1488	n/a	n/a	0	0	0
3103825	REC_WORD	wordpools/wasnorm_wordpool_576.txt	LTP359	ltpFR2	2	15	BRANCH	168	n/a	n/a	0	0	0
3133701	DISTRACTOR	n/a	LTP359	ltpFR2	2	16	n/a	n/a	n/a	n/a	0	0	0
3133701	START	n/a	LTP359	ltpFR2	2	n/a	n/a	n/a	26	n/a	n/a	n/a	n/a
3133717	PROB	n/a	LTP359	ltpFR2	2	n/a	n/a	n/a	26	16	6	8	2
3135557	PROB	n/a	LTP359	ltpFR2	2	n/a	n/a	n/a	26	10	5	3	2
3137244	PROB	n/a	LTP359	ltpFR2	2	n/a	n/a	n/a	26	13	7	5	1
3138799	PROB	n/a	LTP359	ltpFR2	2	n/a	n/a	n/a	26	16	2	5	9
3140590	PROB	n/a	LTP359	ltpFR2	2	n/a	n/a	n/a	26	13	6	6	1
3142093	PROB	n/a	LTP359	ltpFR2	2	n/a	n/a	n/a	26	16	2	6	8
3143816	PROB	n/a	LTP359	ltpFR2	2	n/a	n/a	n/a	26	13	1	3	9
3146257	PROB	n/a	LTP359	ltpFR2	2	n/a	n/a	n/a	26	11	5	4	2
3148599	PROB	n/a	LTP359	ltpFR2	2	n/a	n/a	n/a	26	20	9	8	3
3150086	PROB	n/a	LTP359	ltpFR2	2	n/a	n/a	n/a	26	13	2	2	9
3151390	PROB	n/a	LTP359	ltpFR2	2	n/a	n/a	n/a	26	12	5	2	5
3152778	PROB	n/a	LTP359	ltpFR2	2	n/a	n/a	n/a	26	23	7	7	9
3155336	PROB	n/a	LTP359	ltpFR2	2	n/a	n/a	n/a	26	18	8	8	2
3156906	STOP	n/a	LTP359	ltpFR2	2	n/a	n/a	n/a	26	n/a	n/a	n/a	n/a
3158747	WORD	wordpools/wasnorm_wordpool_576.txt	LTP359	ltpFR2	2	16	CUSTARD	429	n/a	n/a	0	0	0
3161474	WORD	wordpools/wasnorm_wordpool_576.txt	LTP359	ltpFR2	2	16	PACKAGE	997	n/a	n/a	0	0	0
3164249	WORD	wordpools/wasnorm_wordpool_576.txt	LTP359	ltpFR2	2	16	LAMP	798	n/a	n/a	0	0	0
3166674	WORD	wordpools/wasnorm_wordpool_576.txt	LTP359	ltpFR2	2	16	BRANDY	169	n/a	n/a	0	0	0
3169483	WORD	wordpools/wasnorm_wordpool_576.txt	LTP359	ltpFR2	2	16	EYELASH	546	n/a	n/a	0	0	0
3172007	WORD	wordpools/wasnorm_wordpool_576.txt	LTP359	ltpFR2	2	16	HORNET	718	n/a	n/a	0	0	0
3174684	WORD	wordpools/wasnorm_wordpool_576.txt	LTP359	ltpFR2	2	16	TRUCK	1512	n/a	n/a	0	0	0
3177140	WORD	wordpools/wasnorm_wordpool_576.txt	LTP359	ltpFR2	2	16	MOTOR	922	n/a	n/a	0	0	0
3179650	WORD	wordpools/wasnorm_wordpool_576.txt	LTP359	ltpFR2	2	16	GRAVEL	659	n/a	n/a	0	0	0
3182140	WORD	wordpools/wasnorm_wordpool_576.txt	LTP359	ltpFR2	2	16	PUPIL	1143	n/a	n/a	0	0	0
3184666	WORD	wordpools/wasnorm_wordpool_576.txt	LTP359	ltpFR2	2	16	BACKBONE	66	n/a	n/a	0	0	0
3187307	WORD	wordpools/wasnorm_wordpool_576.txt	LTP359	ltpFR2	2	16	CUPBOARD	425	n/a	n/a	0	0	0
3189882	WORD	wordpools/wasnorm_wordpool_576.txt	LTP359	ltpFR2	2	16	STUDENT	1395	n/a	n/a	0	0	0
3192675	WORD	wordpools/wasnorm_wordpool_576.txt	LTP359	ltpFR2	2	16	LADY	794	n/a	n/a	0	0	0
3195399	WORD	wordpools/wasnorm_wordpool_576.txt	LTP359	ltpFR2	2	16	CAMEL	223	n/a	n/a	0	0	0
3198008	WORD	wordpools/wasnorm_wordpool_576.txt	LTP359	ltpFR2	2	16	DUST	508	n/a	n/a	0	0	0
3200433	WORD	wordpools/wasnorm_wordpool_576.txt	LTP359	ltpFR2	2	16	PISTOL	1075	n/a	n/a	0	0	0
3203124	WORD	wordpools/wasnorm_wordpool_576.txt	LTP359	ltpFR2	2	16	NOMAD	955	n/a	n/a	0	0	0
3205734	WORD	wordpools/wasnorm_wordpool_576.txt	LTP359	ltpFR2	2	16	PLAYGROUND	1087	n/a	n/a	0	0	0
3208308	WORD	wordpools/wasnorm_wordpool_576.txt	LTP359	ltpFR2	2	16	STOMACH	1384	n/a	n/a	0	0	0
3210850	WORD	wordpools/wasnorm_wordpool_576.txt	LTP359	ltpFR2	2	16	SNACK	1331	n/a	n/a	0	0	0
3213476	WORD	wordpools/wasnorm_wordpool_576.txt	LTP359	ltpFR2	2	16	PUDDING	1139	n/a	n/a	0	0	0
3216284	WORD	wordpools/wasnorm_wordpool_576.txt	LTP359	ltpFR2	2	16	LONDON	843	n/a	n/a	0	0	0
3218976	WORD	wordpools/wasnorm_wordpool_576.txt	LTP359	ltpFR2	2	16	MATCH	878	n/a	n/a	0	0	0
3220582	START	n/a	LTP359	ltpFR2	2	n/a	n/a	n/a	27	n/a	n/a	n/a	n/a
3221559	DISTRACTOR	n/a	LTP359	ltpFR2	2	16	n/a	n/a	n/a	n/a	0	0	0
3221569	PROB	n/a	LTP359	ltpFR2	2	n/a	n/a	n/a	27	21	9	6	6
3225112	PROB	n/a	LTP359	ltpFR2	2	n/a	n/a	n/a	27	21	5	7	9
3226918	PROB	n/a	LTP359	ltpFR2	2	n/a	n/a	n/a	27	11	5	3	3
3229878	PROB	n/a	LTP359	ltpFR2	2	n/a	n/a	n/a	27	8	3	1	4
3231784	PROB	n/a	LTP359	ltpFR2	2	n/a	n/a	n/a	27	23	9	9	5
3233088	PROB	n/a	LTP359	ltpFR2	2	n/a	n/a	n/a	27	13	5	4	4
3234678	PROB	n/a	LTP359	ltpFR2	2	n/a	n/a	n/a	27	15	5	8	2
3235914	PROB	n/a	LTP359	ltpFR2	2	n/a	n/a	n/a	27	10	2	5	3
3237637	PROB	n/a	LTP359	ltpFR2	2	n/a	n/a	n/a	27	21	9	9	3
3239644	PROB	n/a	LTP359	ltpFR2	2	n/a	n/a	n/a	27	25	9	9	7
3242201	PROB	n/a	LTP359	ltpFR2	2	n/a	n/a	n/a	27	15	5	8	2
3243478	STOP	n/a	LTP359	ltpFR2	2	n/a	n/a	n/a	27	n/a	n/a	n/a	n/a
3246332	REC_START	n/a	LTP359	ltpFR2	2	16	n/a	n/a	n/a	n/a	0	0	0
3247103	REC_WORD	wordpools/wasnorm_wordpool_576.txt	LTP359	ltpFR2	2	16	CUSTARD	429	n/a	n/a	0	0	0
3248276	REC_WORD	wordpools/wasnorm_wordpool_576.txt	LTP359	ltpFR2	2	16	PACKAGE	997	n/a	n/a	0	0	0
3249278	REC_WORD	wordpools/wasnorm_wordpool_576.txt	LTP359	ltpFR2	2	16	LAMP	798	n/a	n/a	0	0	0
3252871	REC_WORD	wordpools/wasnorm_wordpool_576.txt	LTP359	ltpFR2	2	16	EYELASH	546	n/a	n/a	0	0	0
3253879	REC_WORD	wordpools/wasnorm_wordpool_576.txt	LTP359	ltpFR2	2	16	HORNET	718	n/a	n/a	0	0	0
3255720	REC_WORD	wordpools/wasnorm_wordpool_576.txt	LTP359	ltpFR2	2	16	PUPIL	1143	n/a	n/a	0	0	0
3256702	REC_WORD	wordpools/wasnorm_wordpool_576.txt	LTP359	ltpFR2	2	16	BACKBONE	66	n/a	n/a	0	0	0
3258602	REC_WORD	wordpools/wasnorm_wordpool_576.txt	LTP359	ltpFR2	2	16	MOTOR	922	n/a	n/a	0	0	0
3259329	REC_WORD	wordpools/wasnorm_wordpool_576.txt	LTP359	ltpFR2	2	16	TRUCK	1512	n/a	n/a	0	0	0
3260454	REC_WORD	wordpools/wasnorm_wordpool_576.txt	LTP359	ltpFR2	2	16	GRAVEL	659	n/a	n/a	0	0	0
3263972	REC_WORD	wordpools/wasnorm_wordpool_576.txt	LTP359	ltpFR2	2	16	LADY	794	n/a	n/a	0	0	0
3264817	REC_WORD	wordpools/wasnorm_wordpool_576.txt	LTP359	ltpFR2	2	16	CAMEL	223	n/a	n/a	0	0	0
3268459	REC_WORD	wordpools/wasnorm_wordpool_576.txt	LTP359	ltpFR2	2	16	PISTOL	1075	n/a	n/a	0	0	0
3269369	REC_WORD	wordpools/wasnorm_wordpool_576.txt	LTP359	ltpFR2	2	16	CUPBOARD	425	n/a	n/a	0	0	0
3271142	REC_WORD	wordpools/wasnorm_wordpool_576.txt	LTP359	ltpFR2	2	16	DUST	508	n/a	n/a	0	0	0
3272119	REC_WORD	wordpools/wasnorm_wordpool_576.txt	LTP359	ltpFR2	2	16	NOMAD	955	n/a	n/a	0	0	0
3273236	REC_WORD	wordpools/wasnorm_wordpool_576.txt	LTP359	ltpFR2	2	16	PLAYGROUND	1087	n/a	n/a	0	0	0
3278093	REC_WORD	wordpools/wasnorm_wordpool_576.txt	LTP359	ltpFR2	2	16	LONDON	843	n/a	n/a	0	0	0
3279151	REC_WORD	wordpools/wasnorm_wordpool_576.txt	LTP359	ltpFR2	2	16	MATCH	878	n/a	n/a	0	0	0
3285054	REC_WORD	wordpools/wasnorm_wordpool_576.txt	LTP359	ltpFR2	2	16	STUDENT	1395	n/a	n/a	0	0	0
3317159	REC_WORD	wordpools/wasnorm_wordpool_576.txt	LTP359	ltpFR2	2	16	SNACK	1331	n/a	n/a	0	0	0
3318068	REC_WORD	wordpools/wasnorm_wordpool_576.txt	LTP359	ltpFR2	2	16	STOMACH	1384	n/a	n/a	0	0	0
3322879	REST_REWET	n/a	LTP359	ltpFR2	2	16	n/a	n/a	n/a	n/a	0	0	0
3449104	WORD	wordpools/wasnorm_wordpool_576.txt	LTP359	ltpFR2	2	17	BODY	145	n/a	n/a	0	0	0
3451780	WORD	wordpools/wasnorm_wordpool_576.txt	LTP359	ltpFR2	2	17	NURSE	963	n/a	n/a	0	0	0
3454221	WORD	wordpools/wasnorm_wordpool_576.txt	LTP359	ltpFR2	2	17	TRANSPLANT	1496	n/a	n/a	0	0	0
3456913	WORD	wordpools/wasnorm_wordpool_576.txt	LTP359	ltpFR2	2	17	PAPER	1011	n/a	n/a	0	0	0
3459590	WORD	wordpools/wasnorm_wordpool_576.txt	LTP359	ltpFR2	2	17	NOTEBOOK	959	n/a	n/a	0	0	0
3462381	WORD	wordpools/wasnorm_wordpool_576.txt	LTP359	ltpFR2	2	17	LAVA	804	n/a	n/a	0	0	0
3464839	WORD	wordpools/wasnorm_wordpool_576.txt	LTP359	ltpFR2	2	17	BUG	187	n/a	n/a	0	0	0
3467549	WORD	wordpools/wasnorm_wordpool_576.txt	LTP359	ltpFR2	2	17	VENUS	1557	n/a	n/a	0	0	0
3470106	WORD	wordpools/wasnorm_wordpool_576.txt	LTP359	ltpFR2	2	17	RELISH	1183	n/a	n/a	0	0	0
3472848	WORD	wordpools/wasnorm_wordpool_576.txt	LTP359	ltpFR2	2	17	FIREPLACE	570	n/a	n/a	0	0	0
3475273	WORD	wordpools/wasnorm_wordpool_576.txt	LTP359	ltpFR2	2	17	SALAD	1224	n/a	n/a	0	0	0
3477715	WORD	wordpools/wasnorm_wordpool_576.txt	LTP359	ltpFR2	2	17	SCRIBBLE	1256	n/a	n/a	0	0	0
3480205	WORD	wordpools/wasnorm_wordpool_576.txt	LTP359	ltpFR2	2	17	HOSTESS	723	n/a	n/a	0	0	0
3482847	WORD	wordpools/wasnorm_wordpool_576.txt	LTP359	ltpFR2	2	17	SPARROW	1347	n/a	n/a	0	0	0
3485322	WORD	wordpools/wasnorm_wordpool_576.txt	LTP359	ltpFR2	2	17	SEAL	1262	n/a	n/a	0	0	0
3487763	WORD	wordpools/wasnorm_wordpool_576.txt	LTP359	ltpFR2	2	17	OINTMENT	974	n/a	n/a	0	0	0
3490188	WORD	wordpools/wasnorm_wordpool_576.txt	LTP359	ltpFR2	2	17	TERMITE	1451	n/a	n/a	0	0	0
3492880	WORD	wordpools/wasnorm_wordpool_576.txt	LTP359	ltpFR2	2	17	KLEENEX	782	n/a	n/a	0	0	0
3495388	WORD	wordpools/wasnorm_wordpool_576.txt	LTP359	ltpFR2	2	17	ROCKET	1202	n/a	n/a	0	0	0
3497946	WORD	wordpools/wasnorm_wordpool_576.txt	LTP359	ltpFR2	2	17	SHELTER	1282	n/a	n/a	0	0	0
3500673	WORD	wordpools/wasnorm_wordpool_576.txt	LTP359	ltpFR2	2	17	CHAMPAGNE	278	n/a	n/a	0	0	0
3503297	WORD	wordpools/wasnorm_wordpool_576.txt	LTP359	ltpFR2	2	17	GRAPE	654	n/a	n/a	0	0	0
3505771	WORD	wordpools/wasnorm_wordpool_576.txt	LTP359	ltpFR2	2	17	FREEZER	604	n/a	n/a	0	0	0
3508313	WORD	wordpools/wasnorm_wordpool_576.txt	LTP359	ltpFR2	2	17	GRAVE	658	n/a	n/a	0	0	0
3509918	START	n/a	LTP359	ltpFR2	2	n/a	n/a	n/a	28	n/a	n/a	n/a	n/a
3510938	DISTRACTOR	n/a	LTP359	ltpFR2	2	17	n/a	n/a	n/a	n/a	0	0	0
3510955	PROB	n/a	LTP359	ltpFR2	2	n/a	n/a	n/a	28	11	1	3	7
3514934	PROB	n/a	LTP359	ltpFR2	2	n/a	n/a	n/a	28	7	3	1	3
3517794	PROB	n/a	LTP359	ltpFR2	2	n/a	n/a	n/a	28	17	2	9	6
3522091	PROB	n/a	LTP359	ltpFR2	2	n/a	n/a	n/a	28	10	1	5	4
3524114	PROB	n/a	LTP359	ltpFR2	2	n/a	n/a	n/a	28	7	2	3	2
3526540	PROB	n/a	LTP359	ltpFR2	2	n/a	n/a	n/a	28	25	8	8	9
3529533	PROB	n/a	LTP359	ltpFR2	2	n/a	n/a	n/a	28	20	9	5	6
3531221	PROB	n/a	LTP359	ltpFR2	2	n/a	n/a	n/a	28	11	5	4	2
3533405	STOP	n/a	LTP359	ltpFR2	2	n/a	n/a	n/a	28	n/a	n/a	n/a	n/a
3535769	REC_START	n/a	LTP359	ltpFR2	2	17	n/a	n/a	n/a	n/a	0	0	0
3536489	REC_WORD	wordpools/wasnorm_wordpool_576.txt	LTP359	ltpFR2	2	17	NURSE	963	n/a	n/a	0	0	0
3537481	REC_WORD	wordpools/wasnorm_wordpool_576.txt	LTP359	ltpFR2	2	17	BODY	145	n/a	n/a	0	0	0
3538220	REC_WORD	wordpools/wasnorm_wordpool_576.txt	LTP359	ltpFR2	2	17	TRANSPLANT	1496	n/a	n/a	0	0	0
3539823	REC_WORD	wordpools/wasnorm_wordpool_576.txt	LTP359	ltpFR2	2	17	NOTEBOOK	959	n/a	n/a	0	0	0
3540594	REC_WORD	wordpools/wasnorm_wordpool_576.txt	LTP359	ltpFR2	2	17	PAPER	1011	n/a	n/a	0	0	0
3541455	REC_WORD	wordpools/wasnorm_wordpool_576.txt	LTP359	ltpFR2	2	17	SCRIBBLE	1256	n/a	n/a	0	0	0
3543087	REC_WORD	wordpools/wasnorm_wordpool_576.txt	LTP359	ltpFR2	2	17	LAVA	804	n/a	n/a	0	0	0
3543920	REC_WORD	wordpools/wasnorm_wordpool_576.txt	LTP359	ltpFR2	2	17	BUG	187	n/a	n/a	0	0	0
3544693	REC_WORD	wordpools/wasnorm_wordpool_576.txt	LTP359	ltpFR2	2	17	VENUS	1557	n/a	n/a	0	0	0
3545959	REC_WORD	wordpools/wasnorm_wordpool_576.txt	LTP359	ltpFR2	2	17	SALAD	1224	n/a	n/a	0	0	0
3547190	REC_WORD	wordpools/wasnorm_wordpool_576.txt	LTP359	ltpFR2	2	17	HOSTESS	723	n/a	n/a	0	0	0
3548985	REC_WORD	wordpools/wasnorm_wordpool_576.txt	LTP359	ltpFR2	2	17	SPARROW	1347	n/a	n/a	0	0	0
3550125	REC_WORD	wordpools/wasnorm_wordpool_576.txt	LTP359	ltpFR2	2	17	SEAL	1262	n/a	n/a	0	0	0
3553769	REC_WORD	wordpools/wasnorm_wordpool_576.txt	LTP359	ltpFR2	2	17	OINTMENT	974	n/a	n/a	0	0	0
3556548	REC_WORD	wordpools/wasnorm_wordpool_576.txt	LTP359	ltpFR2	2	17	TERMITE	1451	n/a	n/a	0	0	0
3557469	REC_WORD	wordpools/wasnorm_wordpool_576.txt	LTP359	ltpFR2	2	17	KLEENEX	782	n/a	n/a	0	0	0
3559420	REC_WORD	wordpools/wasnorm_wordpool_576.txt	LTP359	ltpFR2	2	17	ROCKET	1202	n/a	n/a	0	0	0
3561594	REC_WORD	wordpools/wasnorm_wordpool_576.txt	LTP359	ltpFR2	2	17	SHELTER	1282	n/a	n/a	0	0	0
3563898	REC_WORD	wordpools/wasnorm_wordpool_576.txt	LTP359	ltpFR2	2	17	SPACE	1345	n/a	n/a	0	0	0
3567673	REC_WORD	wordpools/wasnorm_wordpool_576.txt	LTP359	ltpFR2	2	17	CHAMPAGNE	278	n/a	n/a	0	0	0
3568698	REC_WORD	wordpools/wasnorm_wordpool_576.txt	LTP359	ltpFR2	2	17	GRAPE	654	n/a	n/a	0	0	0
3570596	REC_WORD	wordpools/wasnorm_wordpool_576.txt	LTP359	ltpFR2	2	17	FREEZER	604	n/a	n/a	0	0	0
3573887	REC_WORD	wordpools/wasnorm_wordpool_576.txt	LTP359	ltpFR2	2	17	GRAVE	658	n/a	n/a	0	0	0
3626245	WORD	wordpools/wasnorm_wordpool_576.txt	LTP359	ltpFR2	2	18	PARENT	1013	n/a	n/a	0	0	0
3629037	WORD	wordpools/wasnorm_wordpool_576.txt	LTP359	ltpFR2	2	18	SANDWICH	1232	n/a	n/a	0	0	0
3631730	WORD	wordpools/wasnorm_wordpool_576.txt	LTP359	ltpFR2	2	18	RUST	1219	n/a	n/a	0	0	0
3634171	WORD	wordpools/wasnorm_wordpool_576.txt	LTP359	ltpFR2	2	18	SUMMIT	1405	n/a	n/a	0	0	0
3636696	WORD	wordpools/wasnorm_wordpool_576.txt	LTP359	ltpFR2	2	18	SKILLET	1317	n/a	n/a	0	0	0
