onset	duration	trial_type	sample	stim_file	subject	experiment	session	trial	task	item_name	item_num	recog_resp	recog_conf	resp	answer	test_x	test_y	test_z	color_r	color_g	color_b	case	font
241.164	n/a	SESS_START	120582	n/a	LTP274	ltpFR	12	n/a	n/a	n/a	n/a	1	1	n/a	n/a	0	0	0	n/a	n/a	n/a	n/a	n/a
263.344	n/a	START	131672	n/a	LTP274	ltpFR	12	n/a	n/a	n/a	n/a	n/a	n/a	n/a	n/a	n/a	n/a	n/a	n/a	n/a	n/a	n/a	n/a
263.392	n/a	PROB	131696	n/a	LTP274	ltpFR	12	n/a	n/a	n/a	n/a	n/a	n/a	n/a	12	7	1	4	n/a	n/a	n/a	n/a	n/a
265.434	n/a	PROB	132717	n/a	LTP274	ltpFR	12	n/a	n/a	n/a	n/a	n/a	n/a	n/a	2	8	9	6	n/a	n/a	n/a	n/a	n/a
266.806	n/a	PROB	133403	n/a	LTP274	ltpFR	12	n/a	n/a	n/a	n/a	n/a	n/a	n/a	7	3	3	1	n/a	n/a	n/a	n/a	n/a
267.776	n/a	PROB	133888	n/a	LTP274	ltpFR	12	n/a	n/a	n/a	n/a	n/a	n/a	n/a	12	6	2	4	n/a	n/a	n/a	n/a	n/a
269.266	n/a	PROB	134633	n/a	LTP274	ltpFR	12	n/a	n/a	n/a	n/a	n/a	n/a	n/a	14	9	2	3	n/a	n/a	n/a	n/a	n/a
271.04	n/a	PROB	135520	n/a	LTP274	ltpFR	12	n/a	n/a	n/a	n/a	n/a	n/a	n/a	18	9	4	5	n/a	n/a	n/a	n/a	n/a
272.328	n/a	PROB	136164	n/a	LTP274	ltpFR	12	n/a	n/a	n/a	n/a	n/a	n/a	n/a	19	6	8	5	n/a	n/a	n/a	n/a	n/a
273.514	n/a	PROB	136757	n/a	LTP274	ltpFR	12	n/a	n/a	n/a	n/a	n/a	n/a	n/a	19	8	7	4	n/a	n/a	n/a	n/a	n/a
274.668	n/a	PROB	137334	n/a	LTP274	ltpFR	12	n/a	n/a	n/a	n/a	n/a	n/a	n/a	13	1	4	8	n/a	n/a	n/a	n/a	n/a
275.69	n/a	PROB	137845	n/a	LTP274	ltpFR	12	n/a	n/a	n/a	n/a	n/a	n/a	n/a	18	4	5	9	n/a	n/a	n/a	n/a	n/a
277.33	n/a	PROB	138665	n/a	LTP274	ltpFR	12	n/a	n/a	n/a	n/a	n/a	n/a	n/a	11	2	2	7	n/a	n/a	n/a	n/a	n/a
278.418	n/a	PROB	139209	n/a	LTP274	ltpFR	12	n/a	n/a	n/a	n/a	n/a	n/a	n/a	11	2	7	2	n/a	n/a	n/a	n/a	n/a
279.402	n/a	PROB	139701	n/a	LTP274	ltpFR	12	n/a	n/a	n/a	n/a	n/a	n/a	n/a	17	1	9	7	n/a	n/a	n/a	n/a	n/a
280.908	n/a	PROB	140454	n/a	LTP274	ltpFR	12	n/a	n/a	n/a	n/a	n/a	n/a	n/a	16	7	8	1	n/a	n/a	n/a	n/a	n/a
281.97	n/a	STOP	140985	n/a	LTP274	ltpFR	12	n/a	n/a	n/a	n/a	n/a	n/a	n/a	n/a	n/a	n/a	n/a	n/a	n/a	n/a	n/a	n/a
306.742	n/a	START	153371	n/a	LTP274	ltpFR	12	n/a	n/a	n/a	n/a	n/a	n/a	n/a	n/a	n/a	n/a	n/a	n/a	n/a	n/a	n/a	n/a
308.248	n/a	PROB	154124	n/a	LTP274	ltpFR	12	n/a	n/a	n/a	n/a	n/a	n/a	n/a	13	1	5	7	n/a	n/a	n/a	n/a	n/a
309.318	n/a	PROB	154659	n/a	LTP274	ltpFR	12	n/a	n/a	n/a	n/a	n/a	n/a	n/a	21	4	9	8	n/a	n/a	n/a	n/a	n/a
310.774	n/a	PROB	155387	n/a	LTP274	ltpFR	12	n/a	n/a	n/a	n/a	n/a	n/a	n/a	12	5	5	2	n/a	n/a	n/a	n/a	n/a
311.66	n/a	PROB	155830	n/a	LTP274	ltpFR	12	n/a	n/a	n/a	n/a	n/a	n/a	n/a	15	3	8	4	n/a	n/a	n/a	n/a	n/a
313.116	n/a	PROB	156558	n/a	LTP274	ltpFR	12	n/a	n/a	n/a	n/a	n/a	n/a	n/a	20	5	6	9	n/a	n/a	n/a	n/a	n/a
314.596	n/a	STOP	157298	n/a	LTP274	ltpFR	12	n/a	n/a	n/a	n/a	n/a	n/a	n/a	n/a	n/a	n/a	n/a	n/a	n/a	n/a	n/a	n/a
315.892	n/a	WORD	157946	wordpools/wasnorm_wordpool_less_exclusions.txt	LTP274	ltpFR	12	1	0	ARCHITECT	36	0	4	1	n/a	0	0	0	0.422607421875	0.5869140625	0	lower	amplitud.ttf
318.906	n/a	START	159453	n/a	LTP274	ltpFR	12	n/a	n/a	n/a	n/a	n/a	n/a	n/a	n/a	n/a	n/a	n/a	n/a	n/a	n/a	n/a	n/a
319.808	n/a	PROB	159904	n/a	LTP274	ltpFR	12	n/a	n/a	n/a	n/a	n/a	n/a	n/a	8	1	3	4	n/a	n/a	n/a	n/a	n/a
320.812	n/a	PROB	160406	n/a	LTP274	ltpFR	12	n/a	n/a	n/a	n/a	n/a	n/a	n/a	10	3	4	3	n/a	n/a	n/a	n/a	n/a
322.05	n/a	PROB	161025	n/a	LTP274	ltpFR	12	n/a	n/a	n/a	n/a	n/a	n/a	n/a	16	3	6	7	n/a	n/a	n/a	n/a	n/a
323.638	n/a	PROB	161819	n/a	LTP274	ltpFR	12	n/a	n/a	n/a	n/a	n/a	n/a	n/a	16	7	5	4	n/a	n/a	n/a	n/a	n/a
324.812	n/a	PROB	162406	n/a	LTP274	ltpFR	12	n/a	n/a	n/a	n/a	n/a	n/a	n/a	18	4	6	8	n/a	n/a	n/a	n/a	n/a
325.934	n/a	STOP	162967	n/a	LTP274	ltpFR	12	n/a	n/a	n/a	n/a	n/a	n/a	n/a	n/a	n/a	n/a	n/a	n/a	n/a	n/a	n/a	n/a
327.974	n/a	WORD	163987	wordpools/wasnorm_wordpool_less_exclusions.txt	LTP274	ltpFR	12	1	0	SAUSAGE	1238	0	n/a	0	n/a	0	0	0	0.422607421875	0.5869140625	0	lower	amplitud.ttf
330.986	n/a	START	165493	n/a	LTP274	ltpFR	12	n/a	n/a	n/a	n/a	n/a	n/a	n/a	n/a	n/a	n/a	n/a	n/a	n/a	n/a	n/a	n/a
331.822	n/a	PROB	165911	n/a	LTP274	ltpFR	12	n/a	n/a	n/a	n/a	n/a	n/a	n/a	11	1	4	6	n/a	n/a	n/a	n/a	n/a
332.806	n/a	PROB	166403	n/a	LTP274	ltpFR	12	n/a	n/a	n/a	n/a	n/a	n/a	n/a	18	8	5	5	n/a	n/a	n/a	n/a	n/a
333.76	n/a	PROB	166880	n/a	LTP274	ltpFR	12	n/a	n/a	n/a	n/a	n/a	n/a	n/a	20	6	9	5	n/a	n/a	n/a	n/a	n/a
334.966	n/a	PROB	167483	n/a	LTP274	ltpFR	12	n/a	n/a	n/a	n/a	n/a	n/a	n/a	10	1	8	1	n/a	n/a	n/a	n/a	n/a
336.054	n/a	PROB	168027	n/a	LTP274	ltpFR	12	n/a	n/a	n/a	n/a	n/a	n/a	n/a	7	3	3	1	n/a	n/a	n/a	n/a	n/a
336.99	n/a	PROB	168495	n/a	LTP274	ltpFR	12	n/a	n/a	n/a	n/a	n/a	n/a	n/a	15	6	2	7	n/a	n/a	n/a	n/a	n/a
337.998	n/a	STOP	168999	n/a	LTP274	ltpFR	12	n/a	n/a	n/a	n/a	n/a	n/a	n/a	n/a	n/a	n/a	n/a	n/a	n/a	n/a	n/a	n/a
339.986	n/a	WORD	169993	wordpools/wasnorm_wordpool_less_exclusions.txt	LTP274	ltpFR	12	1	0	JAR	750	n/a	n/a	0	n/a	0	0	0	0.422607421875	0.5869140625	0	lower	amplitud.ttf
342.998	n/a	START	171499	n/a	LTP274	ltpFR	12	n/a	n/a	n/a	n/a	n/a	n/a	n/a	n/a	n/a	n/a	n/a	n/a	n/a	n/a	n/a	n/a
344.136	n/a	PROB	172068	n/a	LTP274	ltpFR	12	n/a	n/a	n/a	n/a	n/a	n/a	n/a	18	6	5	7	n/a	n/a	n/a	n/a	n/a
346.01	n/a	PROB	173005	n/a	LTP274	ltpFR	12	n/a	n/a	n/a	n/a	n/a	n/a	n/a	18	6	6	6	n/a	n/a	n/a	n/a	n/a
346.896	n/a	PROB	173448	n/a	LTP274	ltpFR	12	n/a	n/a	n/a	n/a	n/a	n/a	n/a	10	5	1	4	n/a	n/a	n/a	n/a	n/a
347.982	n/a	PROB	173991	n/a	LTP274	ltpFR	12	n/a	n/a	n/a	n/a	n/a	n/a	n/a	11	5	3	3	n/a	n/a	n/a	n/a	n/a
349.188	n/a	PROB	174594	n/a	LTP274	ltpFR	12	n/a	n/a	n/a	n/a	n/a	n/a	n/a	11	1	6	4	n/a	n/a	n/a	n/a	n/a
350.07	n/a	STOP	175035	n/a	LTP274	ltpFR	12	n/a	n/a	n/a	n/a	n/a	n/a	n/a	n/a	n/a	n/a	n/a	n/a	n/a	n/a	n/a	n/a
352.132	n/a	WORD	176066	wordpools/wasnorm_wordpool_less_exclusions.txt	LTP274	ltpFR	12	1	0	BUILDING	191	n/a	n/a	1	n/a	0	0	0	0.422607421875	0.5869140625	0	lower	amplitud.ttf
355.144	n/a	START	177572	n/a	LTP274	ltpFR	12	n/a	n/a	n/a	n/a	n/a	n/a	n/a	n/a	n/a	n/a	n/a	n/a	n/a	n/a	n/a	n/a
355.964	n/a	PROB	177982	n/a	LTP274	ltpFR	12	n/a	n/a	n/a	n/a	n/a	n/a	n/a	16	4	5	7	n/a	n/a	n/a	n/a	n/a
357.584	n/a	PROB	178792	n/a	LTP274	ltpFR	12	n/a	n/a	n/a	n/a	n/a	n/a	n/a	15	2	5	8	n/a	n/a	n/a	n/a	n/a
358.908	n/a	PROB	179454	n/a	LTP274	ltpFR	12	n/a	n/a	n/a	n/a	n/a	n/a	n/a	8	2	2	4	n/a	n/a	n/a	n/a	n/a
360.028	n/a	PROB	180014	n/a	LTP274	ltpFR	12	n/a	n/a	n/a	n/a	n/a	n/a	n/a	16	3	5	8	n/a	n/a	n/a	n/a	n/a
361.634	n/a	PROB	180817	n/a	LTP274	ltpFR	12	n/a	n/a	n/a	n/a	n/a	n/a	n/a	16	8	1	7	n/a	n/a	n/a	n/a	n/a
362.462	n/a	STOP	181231	n/a	LTP274	ltpFR	12	n/a	n/a	n/a	n/a	n/a	n/a	n/a	n/a	n/a	n/a	n/a	n/a	n/a	n/a	n/a	n/a
364.228	n/a	WORD	182114	wordpools/wasnorm_wordpool_less_exclusions.txt	LTP274	ltpFR	12	1	1	DANDELION	438	n/a	n/a	0	n/a	0	0	0	0.57763671875	0.412841796875	1	upper	zerothre.ttf
367.24	n/a	START	183620	n/a	LTP274	ltpFR	12	n/a	n/a	n/a	n/a	n/a	n/a	n/a	n/a	n/a	n/a	n/a	n/a	n/a	n/a	n/a	n/a
368.428	n/a	PROB	184214	n/a	LTP274	ltpFR	12	n/a	n/a	n/a	n/a	n/a	n/a	n/a	17	5	4	8	n/a	n/a	n/a	n/a	n/a
370.418	n/a	PROB	185209	n/a	LTP274	ltpFR	12	n/a	n/a	n/a	n/a	n/a	n/a	n/a	21	8	5	8	n/a	n/a	n/a	n/a	n/a
371.924	n/a	PROB	185962	n/a	LTP274	ltpFR	12	n/a	n/a	n/a	n/a	n/a	n/a	n/a	15	6	3	6	n/a	n/a	n/a	n/a	n/a
372.878	n/a	PROB	186439	n/a	LTP274	ltpFR	12	n/a	n/a	n/a	n/a	n/a	n/a	n/a	13	1	9	3	n/a	n/a	n/a	n/a	n/a
374.016	n/a	STOP	187008	n/a	LTP274	ltpFR	12	n/a	n/a	n/a	n/a	n/a	n/a	n/a	n/a	n/a	n/a	n/a	n/a	n/a	n/a	n/a	n/a
376.258	n/a	WORD	188129	wordpools/wasnorm_wordpool_less_exclusions.txt	LTP274	ltpFR	12	1	1	BEGGAR	117	n/a	n/a	1	n/a	0	0	0	0.57763671875	0.412841796875	1	upper	zerothre.ttf
379.27	n/a	START	189635	n/a	LTP274	ltpFR	12	n/a	n/a	n/a	n/a	n/a	n/a	n/a	n/a	n/a	n/a	n/a	n/a	n/a	n/a	n/a	n/a
380.138	n/a	PROB	190069	n/a	LTP274	ltpFR	12	n/a	n/a	n/a	n/a	n/a	n/a	n/a	4	1	1	2	n/a	n/a	n/a	n/a	n/a
380.99	n/a	PROB	190495	n/a	LTP274	ltpFR	12	n/a	n/a	n/a	n/a	n/a	n/a	n/a	15	4	2	9	n/a	n/a	n/a	n/a	n/a
382.232	n/a	PROB	191116	n/a	LTP274	ltpFR	12	n/a	n/a	n/a	n/a	n/a	n/a	n/a	17	9	6	2	n/a	n/a	n/a	n/a	n/a
383.35	n/a	PROB	191675	n/a	LTP274	ltpFR	12	n/a	n/a	n/a	n/a	n/a	n/a	n/a	11	8	2	1	n/a	n/a	n/a	n/a	n/a
384.506	n/a	PROB	192253	n/a	LTP274	ltpFR	12	n/a	n/a	n/a	n/a	n/a	n/a	n/a	21	4	9	8	n/a	n/a	n/a	n/a	n/a
385.742	n/a	PROB	192871	n/a	LTP274	ltpFR	12	n/a	n/a	n/a	n/a	n/a	n/a	n/a	8	2	3	3	n/a	n/a	n/a	n/a	n/a
386.904	n/a	STOP	193452	n/a	LTP274	ltpFR	12	n/a	n/a	n/a	n/a	n/a	n/a	n/a	n/a	n/a	n/a	n/a	n/a	n/a	n/a	n/a	n/a
388.22	n/a	WORD	194110	wordpools/wasnorm_wordpool_less_exclusions.txt	LTP274	ltpFR	12	1	1	MISSILE	900	n/a	n/a	0	n/a	0	0	0	0.57763671875	0.412841796875	1	upper	zerothre.ttf
391.232	n/a	START	195616	n/a	LTP274	ltpFR	12	n/a	n/a	n/a	n/a	n/a	n/a	n/a	n/a	n/a	n/a	n/a	n/a	n/a	n/a	n/a	n/a
392.202	n/a	PROB	196101	n/a	LTP274	ltpFR	12	n/a	n/a	n/a	n/a	n/a	n/a	n/a	16	1	7	8	n/a	n/a	n/a	n/a	n/a
393.122	n/a	PROB	196561	n/a	LTP274	ltpFR	12	n/a	n/a	n/a	n/a	n/a	n/a	n/a	24	9	7	8	n/a	n/a	n/a	n/a	n/a
395.312	n/a	PROB	197656	n/a	LTP274	ltpFR	12	n/a	n/a	n/a	n/a	n/a	n/a	n/a	22	9	9	4	n/a	n/a	n/a	n/a	n/a
396.484	n/a	PROB	198242	n/a	LTP274	ltpFR	12	n/a	n/a	n/a	n/a	n/a	n/a	n/a	16	6	2	8	n/a	n/a	n/a	n/a	n/a
397.72	n/a	STOP	198860	n/a	LTP274	ltpFR	12	n/a	n/a	n/a	n/a	n/a	n/a	n/a	n/a	n/a	n/a	n/a	n/a	n/a	n/a	n/a	n/a
400.434	n/a	WORD	200217	wordpools/wasnorm_wordpool_less_exclusions.txt	LTP274	ltpFR	12	1	0	CANNON	232	n/a	n/a	0	n/a	0	0	0	0.422607421875	0.5869140625	0	lower	amplitud.ttf
403.446	n/a	START	201723	n/a	LTP274	ltpFR	12	n/a	n/a	n/a	n/a	n/a	n/a	n/a	n/a	n/a	n/a	n/a	n/a	n/a	n/a	n/a	n/a
404.332	n/a	PROB	202166	n/a	LTP274	ltpFR	12	n/a	n/a	n/a	n/a	n/a	n/a	n/a	20	6	5	9	n/a	n/a	n/a	n/a	n/a
406.022	n/a	PROB	203011	n/a	LTP274	ltpFR	12	n/a	n/a	n/a	n/a	n/a	n/a	n/a	6	4	1	1	n/a	n/a	n/a	n/a	n/a
406.876	n/a	PROB	203438	n/a	LTP274	ltpFR	12	n/a	n/a	n/a	n/a	n/a	n/a	n/a	9	3	1	5	n/a	n/a	n/a	n/a	n/a
407.946	n/a	PROB	203973	n/a	LTP274	ltpFR	12	n/a	n/a	n/a	n/a	n/a	n/a	n/a	4	1	1	2	n/a	n/a	n/a	n/a	n/a
408.764	n/a	PROB	204382	n/a	LTP274	ltpFR	12	n/a	n/a	n/a	n/a	n/a	n/a	n/a	13	3	7	3	n/a	n/a	n/a	n/a	n/a
409.784	n/a	PROB	204892	n/a	LTP274	ltpFR	12	n/a	n/a	n/a	n/a	n/a	n/a	n/a	17	6	5	6	n/a	n/a	n/a	n/a	n/a
411.354	n/a	STOP	205677	n/a	LTP274	ltpFR	12	n/a	n/a	n/a	n/a	n/a	n/a	n/a	n/a	n/a	n/a	n/a	n/a	n/a	n/a	n/a	n/a
412.562	n/a	WORD	206281	wordpools/wasnorm_wordpool_less_exclusions.txt	LTP274	ltpFR	12	1	0	WHEEL	1603	n/a	n/a	1	n/a	0	0	0	0.422607421875	0.5869140625	0	lower	amplitud.ttf
415.574	n/a	START	207787	n/a	LTP274	ltpFR	12	n/a	n/a	n/a	n/a	n/a	n/a	n/a	n/a	n/a	n/a	n/a	n/a	n/a	n/a	n/a	n/a
416.56	n/a	PROB	208280	n/a	LTP274	ltpFR	12	n/a	n/a	n/a	n/a	n/a	n/a	n/a	9	1	5	3	n/a	n/a	n/a	n/a	n/a
417.562	n/a	PROB	208781	n/a	LTP274	ltpFR	12	n/a	n/a	n/a	n/a	n/a	n/a	n/a	11	3	3	5	n/a	n/a	n/a	n/a	n/a
418.97	n/a	PROB	209485	n/a	LTP274	ltpFR	12	n/a	n/a	n/a	n/a	n/a	n/a	n/a	16	6	7	3	n/a	n/a	n/a	n/a	n/a
420.042	n/a	PROB	210021	n/a	LTP274	ltpFR	12	n/a	n/a	n/a	n/a	n/a	n/a	n/a	15	5	7	3	n/a	n/a	n/a	n/a	n/a
421.044	n/a	PROB	210522	n/a	LTP274	ltpFR	12	n/a	n/a	n/a	n/a	n/a	n/a	n/a	17	9	3	5	n/a	n/a	n/a	n/a	n/a
422.298	n/a	STOP	211149	n/a	LTP274	ltpFR	12	n/a	n/a	n/a	n/a	n/a	n/a	n/a	n/a	n/a	n/a	n/a	n/a	n/a	n/a	n/a	n/a
424.476	n/a	WORD	212238	wordpools/wasnorm_wordpool_less_exclusions.txt	LTP274	ltpFR	12	1	1	PLANT	1083	n/a	n/a	1	n/a	0	0	0	0.57763671875	0.412841796875	1	upper	zerothre.ttf
427.488	n/a	START	213744	n/a	LTP274	ltpFR	12	n/a	n/a	n/a	n/a	n/a	n/a	n/a	n/a	n/a	n/a	n/a	n/a	n/a	n/a	n/a	n/a
428.59	n/a	PROB	214295	n/a	LTP274	ltpFR	12	n/a	n/a	n/a	n/a	n/a	n/a	n/a	10	2	7	1	n/a	n/a	n/a	n/a	n/a
430.164	n/a	PROB	215082	n/a	LTP274	ltpFR	12	n/a	n/a	n/a	n/a	n/a	n/a	n/a	14	7	2	5	n/a	n/a	n/a	n/a	n/a
431.534	n/a	PROB	215767	n/a	LTP274	ltpFR	12	n/a	n/a	n/a	n/a	n/a	n/a	n/a	6	3	1	2	n/a	n/a	n/a	n/a	n/a
432.522	n/a	PROB	216261	n/a	LTP274	ltpFR	12	n/a	n/a	n/a	n/a	n/a	n/a	n/a	17	4	5	8	n/a	n/a	n/a	n/a	n/a
434.434	n/a	STOP	217217	n/a	LTP274	ltpFR	12	n/a	n/a	n/a	n/a	n/a	n/a	n/a	n/a	n/a	n/a	n/a	n/a	n/a	n/a	n/a	n/a
436.354	n/a	WORD	218177	wordpools/wasnorm_wordpool_less_exclusions.txt	LTP274	ltpFR	12	1	1	INTESTINE	742	n/a	n/a	1	n/a	0	0	0	0.57763671875	0.412841796875	1	upper	zerothre.ttf
439.366	n/a	START	219683	n/a	LTP274	ltpFR	12	n/a	n/a	n/a	n/a	n/a	n/a	n/a	n/a	n/a	n/a	n/a	n/a	n/a	n/a	n/a	n/a
440.218	n/a	PROB	220109	n/a	LTP274	ltpFR	12	n/a	n/a	n/a	n/a	n/a	n/a	n/a	12	7	2	3	n/a	n/a	n/a	n/a	n/a
441.656	n/a	PROB	220828	n/a	LTP274	ltpFR	12	n/a	n/a	n/a	n/a	n/a	n/a	n/a	14	3	4	7	n/a	n/a	n/a	n/a	n/a
442.896	n/a	PROB	221448	n/a	LTP274	ltpFR	12	n/a	n/a	n/a	n/a	n/a	n/a	n/a	14	3	9	2	n/a	n/a	n/a	n/a	n/a
444.184	n/a	PROB	222092	n/a	LTP274	ltpFR	12	n/a	n/a	n/a	n/a	n/a	n/a	n/a	9	3	2	4	n/a	n/a	n/a	n/a	n/a
445.688	n/a	PROB	222844	n/a	LTP274	ltpFR	12	n/a	n/a	n/a	n/a	n/a	n/a	n/a	9	1	3	5	n/a	n/a	n/a	n/a	n/a
446.714	n/a	STOP	223357	n/a	LTP274	ltpFR	12	n/a	n/a	n/a	n/a	n/a	n/a	n/a	n/a	n/a	n/a	n/a	n/a	n/a	n/a	n/a	n/a
448.468	n/a	WORD	224234	wordpools/wasnorm_wordpool_less_exclusions.txt	LTP274	ltpFR	12	1	1	DRUM	502	n/a	n/a	0	n/a	0	0	0	0.57763671875	0.412841796875	1	upper	zerothre.ttf
451.48	n/a	START	225740	n/a	LTP274	ltpFR	12	n/a	n/a	n/a	n/a	n/a	n/a	n/a	n/a	n/a	n/a	n/a	n/a	n/a	n/a	n/a	n/a
452.298	n/a	PROB	226149	n/a	LTP274	ltpFR	12	n/a	n/a	n/a	n/a	n/a	n/a	n/a	17	7	8	2	n/a	n/a	n/a	n/a	n/a
453.436	n/a	PROB	226718	n/a	LTP274	ltpFR	12	n/a	n/a	n/a	n/a	n/a	n/a	n/a	14	6	2	4	n/a	n/a	n/a	n/a	n/a
454.74	n/a	PROB	227370	n/a	LTP274	ltpFR	12	n/a	n/a	n/a	n/a	n/a	n/a	n/a	15	4	7	4	n/a	n/a	n/a	n/a	n/a
456.762	n/a	PROB	228381	n/a	LTP274	ltpFR	12	n/a	n/a	n/a	n/a	n/a	n/a	n/a	15	5	2	8	n/a	n/a	n/a	n/a	n/a
458.316	n/a	STOP	229158	n/a	LTP274	ltpFR	12	n/a	n/a	n/a	n/a	n/a	n/a	n/a	n/a	n/a	n/a	n/a	n/a	n/a	n/a	n/a	n/a
460.514	n/a	WORD	230257	wordpools/wasnorm_wordpool_less_exclusions.txt	LTP274	ltpFR	12	1	1	OBOE	969	n/a	n/a	0	n/a	0	0	0	0.57763671875	0.412841796875	1	upper	zerothre.ttf
463.524	n/a	START	231762	n/a	LTP274	ltpFR	12	n/a	n/a	n/a	n/a	n/a	n/a	n/a	n/a	n/a	n/a	n/a	n/a	n/a	n/a	n/a	n/a
464.412	n/a	PROB	232206	n/a	LTP274	ltpFR	12	n/a	n/a	n/a	n/a	n/a	n/a	n/a	4	1	1	2	n/a	n/a	n/a	n/a	n/a
465.182	n/a	PROB	232591	n/a	LTP274	ltpFR	12	n/a	n/a	n/a	n/a	n/a	n/a	n/a	15	8	2	5	n/a	n/a	n/a	n/a	n/a
466.45	n/a	PROB	233225	n/a	LTP274	ltpFR	12	n/a	n/a	n/a	n/a	n/a	n/a	n/a	18	6	6	6	n/a	n/a	n/a	n/a	n/a
467.356	n/a	PROB	233678	n/a	LTP274	ltpFR	12	n/a	n/a	n/a	n/a	n/a	n/a	n/a	11	4	2	5	n/a	n/a	n/a	n/a	n/a
469.028	n/a	PROB	234514	n/a	LTP274	ltpFR	12	n/a	n/a	n/a	n/a	n/a	n/a	n/a	18	7	5	6	n/a	n/a	n/a	n/a	n/a
470.116	n/a	STOP	235058	n/a	LTP274	ltpFR	12	n/a	n/a	n/a	n/a	n/a	n/a	n/a	n/a	n/a	n/a	n/a	n/a	n/a	n/a	n/a	n/a
472.458	n/a	WORD	236229	wordpools/wasnorm_wordpool_less_exclusions.txt	LTP274	ltpFR	12	1	1	TWIG	1527	n/a	n/a	0	n/a	0	0	0	0.57763671875	0.412841796875	1	upper	zerothre.ttf
475.47	n/a	START	237735	n/a	LTP274	ltpFR	12	n/a	n/a	n/a	n/a	n/a	n/a	n/a	n/a	n/a	n/a	n/a	n/a	n/a	n/a	n/a	n/a
476.324	n/a	PROB	238162	n/a	LTP274	ltpFR	12	n/a	n/a	n/a	n/a	n/a	n/a	n/a	10	1	3	6	n/a	n/a	n/a	n/a	n/a
477.378	n/a	PROB	238689	n/a	LTP274	ltpFR	12	n/a	n/a	n/a	n/a	n/a	n/a	n/a	10	2	5	3	n/a	n/a	n/a	n/a	n/a
478.348	n/a	PROB	239174	n/a	LTP274	ltpFR	12	n/a	n/a	n/a	n/a	n/a	n/a	n/a	17	5	7	5	n/a	n/a	n/a	n/a	n/a
479.502	n/a	PROB	239751	n/a	LTP274	ltpFR	12	n/a	n/a	n/a	n/a	n/a	n/a	n/a	9	7	1	1	n/a	n/a	n/a	n/a	n/a
480.39	n/a	PROB	240195	n/a	LTP274	ltpFR	12	n/a	n/a	n/a	n/a	n/a	n/a	n/a	23	8	9	6	n/a	n/a	n/a	n/a	n/a
482.814	n/a	STOP	241407	n/a	LTP274	ltpFR	12	n/a	n/a	n/a	n/a	n/a	n/a	n/a	n/a	n/a	n/a	n/a	n/a	n/a	n/a	n/a	n/a
484.372	n/a	WORD	242186	wordpools/wasnorm_wordpool_less_exclusions.txt	LTP274	ltpFR	12	1	0	SPY	1360	n/a	n/a	1	n/a	0	0	0	0.422607421875	0.5869140625	0	lower	amplitud.ttf
487.384	n/a	START	243692	n/a	LTP274	ltpFR	12	n/a	n/a	n/a	n/a	n/a	n/a	n/a	n/a	n/a	n/a	n/a	n/a	n/a	n/a	n/a	n/a
488.218	n/a	PROB	244109	n/a	LTP274	ltpFR	12	n/a	n/a	n/a	n/a	n/a	n/a	n/a	9	2	6	1	n/a	n/a	n/a	n/a	n/a
489.206	n/a	PROB	244603	n/a	LTP274	ltpFR	12	n/a	n/a	n/a	n/a	n/a	n/a	n/a	12	2	2	8	n/a	n/a	n/a	n/a	n/a
490.476	n/a	PROB	245238	n/a	LTP274	ltpFR	12	n/a	n/a	n/a	n/a	n/a	n/a	n/a	19	9	6	4	n/a	n/a	n/a	n/a	n/a
491.732	n/a	PROB	245866	n/a	LTP274	ltpFR	12	n/a	n/a	n/a	n/a	n/a	n/a	n/a	5	3	1	1	n/a	n/a	n/a	n/a	n/a
492.502	n/a	PROB	246251	n/a	LTP274	ltpFR	12	n/a	n/a	n/a	n/a	n/a	n/a	n/a	15	5	5	5	n/a	n/a	n/a	n/a	n/a
493.406	n/a	PROB	246703	n/a	LTP274	ltpFR	12	n/a	n/a	n/a	n/a	n/a	n/a	n/a	16	6	5	5	n/a	n/a	n/a	n/a	n/a
494.294	n/a	STOP	247147	n/a	LTP274	ltpFR	12	n/a	n/a	n/a	n/a	n/a	n/a	n/a	n/a	n/a	n/a	n/a	n/a	n/a	n/a	n/a	n/a
496.368	n/a	WORD	248184	wordpools/wasnorm_wordpool_less_exclusions.txt	LTP274	ltpFR	12	1	0	TICKET	1464	n/a	n/a	0	n/a	0	0	0	0.422607421875	0.5869140625	0	lower	amplitud.ttf
499.38	n/a	START	249690	n/a	LTP274	ltpFR	12	n/a	n/a	n/a	n/a	n/a	n/a	n/a	n/a	n/a	n/a	n/a	n/a	n/a	n/a	n/a	n/a
500.266	n/a	PROB	250133	n/a	LTP274	ltpFR	12	n/a	n/a	n/a	n/a	n/a	n/a	n/a	14	5	6	3	n/a	n/a	n/a	n/a	n/a
501.584	n/a	PROB	250792	n/a	LTP274	ltpFR	12	n/a	n/a	n/a	n/a	n/a	n/a	n/a	8	4	3	1	n/a	n/a	n/a	n/a	n/a
502.674	n/a	PROB	251337	n/a	LTP274	ltpFR	12	n/a	n/a	n/a	n/a	n/a	n/a	n/a	13	1	6	6	n/a	n/a	n/a	n/a	n/a
503.644	n/a	PROB	251822	n/a	LTP274	ltpFR	12	n/a	n/a	n/a	n/a	n/a	n/a	n/a	12	7	1	4	n/a	n/a	n/a	n/a	n/a
505.05	n/a	PROB	252525	n/a	LTP274	ltpFR	12	n/a	n/a	n/a	n/a	n/a	n/a	n/a	18	8	9	1	n/a	n/a	n/a	n/a	n/a
505.99	n/a	STOP	252995	n/a	LTP274	ltpFR	12	n/a	n/a	n/a	n/a	n/a	n/a	n/a	n/a	n/a	n/a	n/a	n/a	n/a	n/a	n/a	n/a
509.15	n/a	REC_START	254575	n/a	LTP274	ltpFR	12	1	n/a	n/a	n/a	n/a	n/a	n/a	n/a	0	0	0	n/a	n/a	n/a	n/a	n/a
511.32	n/a	REC_WORD	255660	wordpools/wasnorm_wordpool_less_exclusions.txt	LTP274	ltpFR	12	1	0	ARCHITECT	36	n/a	n/a	1	n/a	0	0	0	n/a	n/a	n/a	n/a	n/a
512.432	n/a	REC_WORD	256216	wordpools/wasnorm_wordpool_less_exclusions.txt	LTP274	ltpFR	12	1	1	OBOE	969	n/a	n/a	0	n/a	0	0	0	n/a	n/a	n/a	n/a	n/a
521.15	n/a	REC_WORD	260575	wordpools/wasnorm_wordpool_less_exclusions.txt	LTP274	ltpFR	12	1	0	CANNON	232	n/a	n/a	0	n/a	0	0	0	n/a	n/a	n/a	n/a	n/a
521.65	n/a	REC_WORD	260825	wordpools/wasnorm_wordpool_less_exclusions.txt	LTP274	ltpFR	12	1	0	WHEEL	1603	n/a	n/a	1	n/a	0	0	0	n/a	n/a	n/a	n/a	n/a
534.478	n/a	REC_WORD	267239	wordpools/wasnorm_wordpool_less_exclusions.txt	LTP274	ltpFR	12	1	0	BUILDING	191	n/a	n/a	1	n/a	0	0	0	n/a	n/a	n/a	n/a	n/a
557.436	n/a	REC_WORD	278718	wordpools/wasnorm_wordpool_less_exclusions.txt	LTP274	ltpFR	12	1	1	BEGGAR	117	n/a	n/a	1	n/a	0	0	0	n/a	n/a	n/a	n/a	n/a
593.622	n/a	WORD	296811	wordpools/wasnorm_wordpool_less_exclusions.txt	LTP274	ltpFR	12	2	0	TIDE	1465	n/a	n/a	1	n/a	0	0	0	0.422607421875	0.5869140625	0	lower	amplitud.ttf
597.786	n/a	WORD	298893	wordpools/wasnorm_wordpool_less_exclusions.txt	LTP274	ltpFR	12	2	0	KETCHUP	771	n/a	n/a	0	n/a	0	0	0	0.422607421875	0.5869140625	0	lower	amplitud.ttf
601.752	n/a	WORD	300876	wordpools/wasnorm_wordpool_less_exclusions.txt	LTP274	ltpFR	12	2	0	WHALE	1601	n/a	n/a	1	n/a	0	0	0	0.422607421875	0.5869140625	0	lower	amplitud.ttf
605.918	n/a	WORD	302959	wordpools/wasnorm_wordpool_less_exclusions.txt	LTP274	ltpFR	12	2	0	TOWEL	1489	n/a	n/a	0	n/a	0	0	0	0.422607421875	0.5869140625	0	lower	amplitud.ttf
609.834	n/a	WORD	304917	wordpools/wasnorm_wordpool_less_exclusions.txt	LTP274	ltpFR	12	2	0	MOAT	903	n/a	n/a	1	n/a	0	0	0	0.422607421875	0.5869140625	0	lower	amplitud.ttf
613.9	n/a	WORD	306950	wordpools/wasnorm_wordpool_less_exclusions.txt	LTP274	ltpFR	12	2	0	GIFT	635	n/a	n/a	0	n/a	0	0	0	0.422607421875	0.5869140625	0	lower	amplitud.ttf
617.746	n/a	WORD	308873	wordpools/wasnorm_wordpool_less_exclusions.txt	LTP274	ltpFR	12	2	0	CONE	363	n/a	n/a	0	n/a	0	0	0	0.422607421875	0.5869140625	0	lower	amplitud.ttf
621.83	n/a	WORD	310915	wordpools/wasnorm_wordpool_less_exclusions.txt	LTP274	ltpFR	12	2	0	CANDY	230	n/a	n/a	0	n/a	0	0	0	0.422607421875	0.5869140625	0	lower	amplitud.ttf
625.996	n/a	WORD	312998	wordpools/wasnorm_wordpool_less_exclusions.txt	LTP274	ltpFR	12	2	0	CIGARETTE	309	n/a	n/a	0	n/a	0	0	0	0.422607421875	0.5869140625	0	lower	amplitud.ttf
630.094	n/a	WORD	315047	wordpools/wasnorm_wordpool_less_exclusions.txt	LTP274	ltpFR	12	2	0	DISH	474	n/a	n/a	0	n/a	0	0	0	0.422607421875	0.5869140625	0	lower	amplitud.ttf
633.942	n/a	WORD	316971	wordpools/wasnorm_wordpool_less_exclusions.txt	LTP274	ltpFR	12	2	0	TILE	1468	n/a	n/a	1	n/a	0	0	0	0.422607421875	0.5869140625	0	lower	amplitud.ttf
637.974	n/a	WORD	318987	wordpools/wasnorm_wordpool_less_exclusions.txt	LTP274	ltpFR	12	2	0	KITE	779	n/a	n/a	1	n/a	0	0	0	0.422607421875	0.5869140625	0	lower	amplitud.ttf
641.89	n/a	WORD	320945	wordpools/wasnorm_wordpool_less_exclusions.txt	LTP274	ltpFR	12	2	0	FLY	586	n/a	n/a	0	n/a	0	0	0	0.422607421875	0.5869140625	0	lower	amplitud.ttf
645.838	n/a	WORD	322919	wordpools/wasnorm_wordpool_less_exclusions.txt	LTP274	ltpFR	12	2	0	DUST	508	n/a	n/a	0	n/a	0	0	0	0.422607421875	0.5869140625	0	lower	amplitud.ttf
649.888	n/a	WORD	324944	wordpools/wasnorm_wordpool_less_exclusions.txt	LTP274	ltpFR	12	2	0	SEA	1259	n/a	n/a	0	n/a	0	0	0	0.422607421875	0.5869140625	0	lower	amplitud.ttf
654.02	n/a	WORD	327010	wordpools/wasnorm_wordpool_less_exclusions.txt	LTP274	ltpFR	12	2	0	MERMAID	887	n/a	n/a	1	n/a	0	0	0	0.422607421875	0.5869140625	0	lower	amplitud.ttf
657.032	n/a	START	328516	n/a	LTP274	ltpFR	12	n/a	n/a	n/a	n/a	n/a	n/a	n/a	n/a	n/a	n/a	n/a	n/a	n/a	n/a	n/a	n/a
658.15	n/a	PROB	329075	n/a	LTP274	ltpFR	12	n/a	n/a	n/a	n/a	n/a	n/a	n/a	15	6	8	1	n/a	n/a	n/a	n/a	n/a
659.354	n/a	PROB	329677	n/a	LTP274	ltpFR	12	n/a	n/a	n/a	n/a	n/a	n/a	n/a	17	2	8	7	n/a	n/a	n/a	n/a	n/a
660.726	n/a	PROB	330363	n/a	LTP274	ltpFR	12	n/a	n/a	n/a	n/a	n/a	n/a	n/a	13	4	3	6	n/a	n/a	n/a	n/a	n/a
662.016	n/a	PROB	331008	n/a	LTP274	ltpFR	12	n/a	n/a	n/a	n/a	n/a	n/a	n/a	15	3	6	6	n/a	n/a	n/a	n/a	n/a
662.986	n/a	PROB	331493	n/a	LTP274	ltpFR	12	n/a	n/a	n/a	n/a	n/a	n/a	n/a	15	2	5	8	n/a	n/a	n/a	n/a	n/a
664.342	n/a	STOP	332171	n/a	LTP274	ltpFR	12	n/a	n/a	n/a	n/a	n/a	n/a	n/a	n/a	n/a	n/a	n/a	n/a	n/a	n/a	n/a	n/a
666.986	n/a	REC_START	333493	n/a	LTP274	ltpFR	12	2	n/a	n/a	n/a	n/a	n/a	n/a	n/a	0	0	0	n/a	n/a	n/a	n/a	n/a
668.432	n/a	REC_WORD	334216	wordpools/wasnorm_wordpool_less_exclusions.txt	LTP274	ltpFR	12	2	0	SEA	1259	n/a	n/a	0	n/a	0	0	0	n/a	n/a	n/a	n/a	n/a
669.356	n/a	REC_WORD	334678	wordpools/wasnorm_wordpool_less_exclusions.txt	LTP274	ltpFR	12	2	0	MERMAID	887	n/a	n/a	1	n/a	0	0	0	n/a	n/a	n/a	n/a	n/a
743.278	n/a	START	371639	n/a	LTP274	ltpFR	12	n/a	n/a	n/a	n/a	n/a	n/a	n/a	n/a	n/a	n/a	n/a	n/a	n/a	n/a	n/a	n/a
744.782	n/a	PROB	372391	n/a	LTP274	ltpFR	12	n/a	n/a	n/a	n/a	n/a	n/a	n/a	12	5	1	6	n/a	n/a	n/a	n/a	n/a
746.172	n/a	PROB	373086	n/a	LTP274	ltpFR	12	n/a	n/a	n/a	n/a	n/a	n/a	n/a	16	6	3	7	n/a	n/a	n/a	n/a	n/a
747.61	n/a	PROB	373805	n/a	LTP274	ltpFR	12	n/a	n/a	n/a	n/a	n/a	n/a	n/a	21	6	3	9	n/a	n/a	n/a	n/a	n/a
749.234	n/a	PROB	374617	n/a	LTP274	ltpFR	12	n/a	n/a	n/a	n/a	n/a	n/a	n/a	14	4	2	8	n/a	n/a	n/a	n/a	n/a
750.682	n/a	STOP	375341	n/a	LTP274	ltpFR	12	n/a	n/a	n/a	n/a	n/a	n/a	n/a	n/a	n/a	n/a	n/a	n/a	n/a	n/a	n/a	n/a
752.178	n/a	WORD	376089	wordpools/wasnorm_wordpool_less_exclusions.txt	LTP274	ltpFR	12	3	0	DRESS	495	n/a	n/a	0	n/a	0	0	0	0.422607421875	0.5869140625	0	lower	amplitud.ttf
755.19	n/a	START	377595	n/a	LTP274	ltpFR	12	n/a	n/a	n/a	n/a	n/a	n/a	n/a	n/a	n/a	n/a	n/a	n/a	n/a	n/a	n/a	n/a
756.36	n/a	PROB	378180	n/a	LTP274	ltpFR	12	n/a	n/a	n/a	n/a	n/a	n/a	n/a	13	2	2	9	n/a	n/a	n/a	n/a	n/a
757.43	n/a	PROB	378715	n/a	LTP274	ltpFR	12	n/a	n/a	n/a	n/a	n/a	n/a	n/a	18	5	5	8	n/a	n/a	n/a	n/a	n/a
758.432	n/a	PROB	379216	n/a	LTP274	ltpFR	12	n/a	n/a	n/a	n/a	n/a	n/a	n/a	21	3	9	9	n/a	n/a	n/a	n/a	n/a
759.808	n/a	PROB	379904	n/a	LTP274	ltpFR	12	n/a	n/a	n/a	n/a	n/a	n/a	n/a	16	2	5	9	n/a	n/a	n/a	n/a	n/a
761.43	n/a	PROB	380715	n/a	LTP274	ltpFR	12	n/a	n/a	n/a	n/a	n/a	n/a	n/a	15	5	2	8	n/a	n/a	n/a	n/a	n/a
762.5	n/a	STOP	381250	n/a	LTP274	ltpFR	12	n/a	n/a	n/a	n/a	n/a	n/a	n/a	n/a	n/a	n/a	n/a	n/a	n/a	n/a	n/a	n/a
764.274	n/a	WORD	382137	wordpools/wasnorm_wordpool_less_exclusions.txt	LTP274	ltpFR	12	3	0	FOUNTAIN	597	n/a	n/a	1	n/a	0	0	0	0.422607421875	0.5869140625	0	lower	amplitud.ttf
767.286	n/a	START	383643	n/a	LTP274	ltpFR	12	n/a	n/a	n/a	n/a	n/a	n/a	n/a	n/a	n/a	n/a	n/a	n/a	n/a	n/a	n/a	n/a
768.19	n/a	PROB	384095	n/a	LTP274	ltpFR	12	n/a	n/a	n/a	n/a	n/a	n/a	n/a	8	2	4	2	n/a	n/a	n/a	n/a	n/a
769.244	n/a	PROB	384622	n/a	LTP274	ltpFR	12	n/a	n/a	n/a	n/a	n/a	n/a	n/a	18	8	5	5	n/a	n/a	n/a	n/a	n/a
770.196	n/a	PROB	385098	n/a	LTP274	ltpFR	12	n/a	n/a	n/a	n/a	n/a	n/a	n/a	18	8	8	2	n/a	n/a	n/a	n/a	n/a
771.3	n/a	PROB	385650	n/a	LTP274	ltpFR	12	n/a	n/a	n/a	n/a	n/a	n/a	n/a	18	4	6	8	n/a	n/a	n/a	n/a	n/a
772.856	n/a	PROB	386428	n/a	LTP274	ltpFR	12	n/a	n/a	n/a	n/a	n/a	n/a	n/a	18	8	4	6	n/a	n/a	n/a	n/a	n/a
773.844	n/a	STOP	386922	n/a	LTP274	ltpFR	12	n/a	n/a	n/a	n/a	n/a	n/a	n/a	n/a	n/a	n/a	n/a	n/a	n/a	n/a	n/a	n/a
776.302	n/a	WORD	388151	wordpools/wasnorm_wordpool_less_exclusions.txt	LTP274	ltpFR	12	3	0	SLIDE	1326	n/a	n/a	1	n/a	0	0	0	0.422607421875	0.5869140625	0	lower	amplitud.ttf
779.316	n/a	START	389658	n/a	LTP274	ltpFR	12	n/a	n/a	n/a	n/a	n/a	n/a	n/a	n/a	n/a	n/a	n/a	n/a	n/a	n/a	n/a	n/a
780.168	n/a	PROB	390084	n/a	LTP274	ltpFR	12	n/a	n/a	n/a	n/a	n/a	n/a	n/a	21	7	9	5	n/a	n/a	n/a	n/a	n/a
781.438	n/a	PROB	390719	n/a	LTP274	ltpFR	12	n/a	n/a	n/a	n/a	n/a	n/a	n/a	16	5	8	3	n/a	n/a	n/a	n/a	n/a
782.928	n/a	PROB	391464	n/a	LTP274	ltpFR	12	n/a	n/a	n/a	n/a	n/a	n/a	n/a	15	7	1	7	n/a	n/a	n/a	n/a	n/a
783.916	n/a	PROB	391958	n/a	LTP274	ltpFR	12	n/a	n/a	n/a	n/a	n/a	n/a	n/a	13	3	4	6	n/a	n/a	n/a	n/a	n/a
785.338	n/a	PROB	392669	n/a	LTP274	ltpFR	12	n/a	n/a	n/a	n/a	n/a	n/a	n/a	21	7	9	5	n/a	n/a	n/a	n/a	n/a
786.526	n/a	STOP	393263	n/a	LTP274	ltpFR	12	n/a	n/a	n/a	n/a	n/a	n/a	n/a	n/a	n/a	n/a	n/a	n/a	n/a	n/a	n/a	n/a
788.35	n/a	WORD	394175	wordpools/wasnorm_wordpool_less_exclusions.txt	LTP274	ltpFR	12	3	0	EDITOR	516	n/a	n/a	1	n/a	0	0	0	0.422607421875	0.5869140625	0	lower	amplitud.ttf
791.362	n/a	START	395681	n/a	LTP274	ltpFR	12	n/a	n/a	n/a	n/a	n/a	n/a	n/a	n/a	n/a	n/a	n/a	n/a	n/a	n/a	n/a	n/a
792.198	n/a	PROB	396099	n/a	LTP274	ltpFR	12	n/a	n/a	n/a	n/a	n/a	n/a	n/a	14	4	1	9	n/a	n/a	n/a	n/a	n/a
793.466	n/a	PROB	396733	n/a	LTP274	ltpFR	12	n/a	n/a	n/a	n/a	n/a	n/a	n/a	18	8	5	5	n/a	n/a	n/a	n/a	n/a
794.354	n/a	PROB	397177	n/a	LTP274	ltpFR	12	n/a	n/a	n/a	n/a	n/a	n/a	n/a	15	7	2	6	n/a	n/a	n/a	n/a	n/a
795.426	n/a	PROB	397713	n/a	LTP274	ltpFR	12	n/a	n/a	n/a	n/a	n/a	n/a	n/a	21	7	8	6	n/a	n/a	n/a	n/a	n/a
797.166	n/a	PROB	398583	n/a	LTP274	ltpFR	12	n/a	n/a	n/a	n/a	n/a	n/a	n/a	15	6	6	3	n/a	n/a	n/a	n/a	n/a
798.014	n/a	STOP	399007	n/a	LTP274	ltpFR	12	n/a	n/a	n/a	n/a	n/a	n/a	n/a	n/a	n/a	n/a	n/a	n/a	n/a	n/a	n/a	n/a
800.278	n/a	WORD	400139	wordpools/wasnorm_wordpool_less_exclusions.txt	LTP274	ltpFR	12	3	0	THERMOMETER	1453	n/a	n/a	0	n/a	0	0	0	0.422607421875	0.5869140625	0	lower	amplitud.ttf
803.29	n/a	START	401645	n/a	LTP274	ltpFR	12	n/a	n/a	n/a	n/a	n/a	n/a	n/a	n/a	n/a	n/a	n/a	n/a	n/a	n/a	n/a	n/a
804.278	n/a	PROB	402139	n/a	LTP274	ltpFR	12	n/a	n/a	n/a	n/a	n/a	n/a	n/a	12	1	8	3	n/a	n/a	n/a	n/a	n/a
805.848	n/a	PROB	402924	n/a	LTP274	ltpFR	12	n/a	n/a	n/a	n/a	n/a	n/a	n/a	14	4	2	8	n/a	n/a	n/a	n/a	n/a
807.222	n/a	PROB	403611	n/a	LTP274	ltpFR	12	n/a	n/a	n/a	n/a	n/a	n/a	n/a	16	3	9	4	n/a	n/a	n/a	n/a	n/a
808.81	n/a	PROB	404405	n/a	LTP274	ltpFR	12	n/a	n/a	n/a	n/a	n/a	n/a	n/a	17	8	6	3	n/a	n/a	n/a	n/a	n/a
809.878	n/a	STOP	404939	n/a	LTP274	ltpFR	12	n/a	n/a	n/a	n/a	n/a	n/a	n/a	n/a	n/a	n/a	n/a	n/a	n/a	n/a	n/a	n/a
812.424	n/a	WORD	406212	wordpools/wasnorm_wordpool_less_exclusions.txt	LTP274	ltpFR	12	3	0	PORCH	1106	n/a	n/a	1	n/a	0	0	0	0.422607421875	0.5869140625	0	lower	amplitud.ttf
815.438	n/a	START	407719	n/a	LTP274	ltpFR	12	n/a	n/a	n/a	n/a	n/a	n/a	n/a	n/a	n/a	n/a	n/a	n/a	n/a	n/a	n/a	n/a
816.374	n/a	PROB	408187	n/a	LTP274	ltpFR	12	n/a	n/a	n/a	n/a	n/a	n/a	n/a	21	7	7	7	n/a	n/a	n/a	n/a	n/a
817.544	n/a	PROB	408772	n/a	LTP274	ltpFR	12	n/a	n/a	n/a	n/a	n/a	n/a	n/a	23	8	8	7	n/a	n/a	n/a	n/a	n/a
818.934	n/a	PROB	409467	n/a	LTP274	ltpFR	12	n/a	n/a	n/a	n/a	n/a	n/a	n/a	13	5	6	2	n/a	n/a	n/a	n/a	n/a
819.954	n/a	PROB	409977	n/a	LTP274	ltpFR	12	n/a	n/a	n/a	n/a	n/a	n/a	n/a	16	8	4	2	n/a	n/a	n/a	n/a	n/a
821.074	n/a	PROB	410537	n/a	LTP274	ltpFR	12	n/a	n/a	n/a	n/a	n/a	n/a	n/a	12	3	4	5	n/a	n/a	n/a	n/a	n/a
822.758	n/a	STOP	411379	n/a	LTP274	ltpFR	12	n/a	n/a	n/a	n/a	n/a	n/a	n/a	n/a	n/a	n/a	n/a	n/a	n/a	n/a	n/a	n/a
824.304	n/a	WORD	412152	wordpools/wasnorm_wordpool_less_exclusions.txt	LTP274	ltpFR	12	3	0	ROOF	1205	n/a	n/a	1	n/a	0	0	0	0.422607421875	0.5869140625	0	lower	amplitud.ttf
827.316	n/a	START	413658	n/a	LTP274	ltpFR	12	n/a	n/a	n/a	n/a	n/a	n/a	n/a	n/a	n/a	n/a	n/a	n/a	n/a	n/a	n/a	n/a
828.252	n/a	PROB	414126	n/a	LTP274	ltpFR	12	n/a	n/a	n/a	n/a	n/a	n/a	n/a	18	8	1	9	n/a	n/a	n/a	n/a	n/a
829.306	n/a	PROB	414653	n/a	LTP274	ltpFR	12	n/a	n/a	n/a	n/a	n/a	n/a	n/a	11	2	2	7	n/a	n/a	n/a	n/a	n/a
830.742	n/a	PROB	415371	n/a	LTP274	ltpFR	12	n/a	n/a	n/a	n/a	n/a	n/a	n/a	17	5	6	7	n/a	n/a	n/a	n/a	n/a
832.502	n/a	PROB	416251	n/a	LTP274	ltpFR	12	n/a	n/a	n/a	n/a	n/a	n/a	n/a	21	9	9	3	n/a	n/a	n/a	n/a	n/a
833.772	n/a	PROB	416886	n/a	LTP274	ltpFR	12	n/a	n/a	n/a	n/a	n/a	n/a	n/a	12	2	6	4	n/a	n/a	n/a	n/a	n/a
835.104	n/a	STOP	417552	n/a	LTP274	ltpFR	12	n/a	n/a	n/a	n/a	n/a	n/a	n/a	n/a	n/a	n/a	n/a	n/a	n/a	n/a	n/a	n/a
836.518	n/a	WORD	418259	wordpools/wasnorm_wordpool_less_exclusions.txt	LTP274	ltpFR	12	3	0	EDITORIAL	517	n/a	n/a	0	n/a	0	0	0	0.422607421875	0.5869140625	0	lower	amplitud.ttf
839.53	n/a	START	419765	n/a	LTP274	ltpFR	12	n/a	n/a	n/a	n/a	n/a	n/a	n/a	n/a	n/a	n/a	n/a	n/a	n/a	n/a	n/a	n/a
840.616	n/a	PROB	420308	n/a	LTP274	ltpFR	12	n/a	n/a	n/a	n/a	n/a	n/a	n/a	16	4	6	6	n/a	n/a	n/a	n/a	n/a
841.82	n/a	PROB	420910	n/a	LTP274	ltpFR	12	n/a	n/a	n/a	n/a	n/a	n/a	n/a	9	7	1	1	n/a	n/a	n/a	n/a	n/a
842.788	n/a	PROB	421394	n/a	LTP274	ltpFR	12	n/a	n/a	n/a	n/a	n/a	n/a	n/a	18	5	7	6	n/a	n/a	n/a	n/a	n/a
844.06	n/a	PROB	422030	n/a	LTP274	ltpFR	12	n/a	n/a	n/a	n/a	n/a	n/a	n/a	20	7	9	4	n/a	n/a	n/a	n/a	n/a
845.584	n/a	PROB	422792	n/a	LTP274	ltpFR	12	n/a	n/a	n/a	n/a	n/a	n/a	n/a	8	3	3	2	n/a	n/a	n/a	n/a	n/a
846.504	n/a	STOP	423252	n/a	LTP274	ltpFR	12	n/a	n/a	n/a	n/a	n/a	n/a	n/a	n/a	n/a	n/a	n/a	n/a	n/a	n/a	n/a	n/a
848.362	n/a	WORD	424181	wordpools/wasnorm_wordpool_less_exclusions.txt	LTP274	ltpFR	12	3	0	SCOUT	1252	n/a	n/a	1	n/a	0	0	0	0.422607421875	0.5869140625	0	lower	amplitud.ttf
851.374	n/a	START	425687	n/a	LTP274	ltpFR	12	n/a	n/a	n/a	n/a	n/a	n/a	n/a	n/a	n/a	n/a	n/a	n/a	n/a	n/a	n/a	n/a
852.46	n/a	PROB	426230	n/a	LTP274	ltpFR	12	n/a	n/a	n/a	n/a	n/a	n/a	n/a	11	4	3	4	n/a	n/a	n/a	n/a	n/a
853.9	n/a	PROB	426950	n/a	LTP274	ltpFR	12	n/a	n/a	n/a	n/a	n/a	n/a	n/a	15	8	4	3	n/a	n/a	n/a	n/a	n/a
854.92	n/a	PROB	427460	n/a	LTP274	ltpFR	12	n/a	n/a	n/a	n/a	n/a	n/a	n/a	10	1	4	5	n/a	n/a	n/a	n/a	n/a
855.974	n/a	PROB	427987	n/a	LTP274	ltpFR	12	n/a	n/a	n/a	n/a	n/a	n/a	n/a	12	1	8	3	n/a	n/a	n/a	n/a	n/a
857.448	n/a	PROB	428724	n/a	LTP274	ltpFR	12	n/a	n/a	n/a	n/a	n/a	n/a	n/a	15	7	4	4	n/a	n/a	n/a	n/a	n/a
858.97	n/a	STOP	429485	n/a	LTP274	ltpFR	12	n/a	n/a	n/a	n/a	n/a	n/a	n/a	n/a	n/a	n/a	n/a	n/a	n/a	n/a	n/a	n/a
860.54	n/a	WORD	430270	wordpools/wasnorm_wordpool_less_exclusions.txt	LTP274	ltpFR	12	3	0	STEAM	1375	n/a	n/a	0	n/a	0	0	0	0.422607421875	0.5869140625	0	lower	amplitud.ttf
863.554	n/a	START	431777	n/a	LTP274	ltpFR	12	n/a	n/a	n/a	n/a	n/a	n/a	n/a	n/a	n/a	n/a	n/a	n/a	n/a	n/a	n/a	n/a
864.706	n/a	PROB	432353	n/a	LTP274	ltpFR	12	n/a	n/a	n/a	n/a	n/a	n/a	n/a	17	4	6	7	n/a	n/a	n/a	n/a	n/a
866.866	n/a	PROB	433433	n/a	LTP274	ltpFR	12	n/a	n/a	n/a	n/a	n/a	n/a	n/a	10	6	1	3	n/a	n/a	n/a	n/a	n/a
867.986	n/a	PROB	433993	n/a	LTP274	ltpFR	12	n/a	n/a	n/a	n/a	n/a	n/a	n/a	16	7	7	2	n/a	n/a	n/a	n/a	n/a
869.04	n/a	PROB	434520	n/a	LTP274	ltpFR	12	n/a	n/a	n/a	n/a	n/a	n/a	n/a	17	8	8	1	n/a	n/a	n/a	n/a	n/a
870.044	n/a	PROB	435022	n/a	LTP274	ltpFR	12	n/a	n/a	n/a	n/a	n/a	n/a	n/a	16	6	2	8	n/a	n/a	n/a	n/a	n/a
871.13	n/a	STOP	435565	n/a	LTP274	ltpFR	12	n/a	n/a	n/a	n/a	n/a	n/a	n/a	n/a	n/a	n/a	n/a	n/a	n/a	n/a	n/a	n/a
872.738	n/a	WORD	436369	wordpools/wasnorm_wordpool_less_exclusions.txt	LTP274	ltpFR	12	3	0	FOREST	593	n/a	n/a	1	n/a	0	0	0	0.422607421875	0.5869140625	0	lower	amplitud.ttf
875.75	n/a	START	437875	n/a	LTP274	ltpFR	12	n/a	n/a	n/a	n/a	n/a	n/a	n/a	n/a	n/a	n/a	n/a	n/a	n/a	n/a	n/a	n/a
876.804	n/a	PROB	438402	n/a	LTP274	ltpFR	12	n/a	n/a	n/a	n/a	n/a	n/a	n/a	12	8	1	3	n/a	n/a	n/a	n/a	n/a
877.876	n/a	PROB	438938	n/a	LTP274	ltpFR	12	n/a	n/a	n/a	n/a	n/a	n/a	n/a	23	8	8	7	n/a	n/a	n/a	n/a	n/a
879.062	n/a	PROB	439531	n/a	LTP274	ltpFR	12	n/a	n/a	n/a	n/a	n/a	n/a	n/a	16	4	5	7	n/a	n/a	n/a	n/a	n/a
880.35	n/a	PROB	440175	n/a	LTP274	ltpFR	12	n/a	n/a	n/a	n/a	n/a	n/a	n/a	11	2	8	1	n/a	n/a	n/a	n/a	n/a
881.238	n/a	PROB	440619	n/a	LTP274	ltpFR	12	n/a	n/a	n/a	n/a	n/a	n/a	n/a	5	1	3	1	n/a	n/a	n/a	n/a	n/a
882.024	n/a	PROB	441012	n/a	LTP274	ltpFR	12	n/a	n/a	n/a	n/a	n/a	n/a	n/a	15	6	1	8	n/a	n/a	n/a	n/a	n/a
882.874	n/a	STOP	441437	n/a	LTP274	ltpFR	12	n/a	n/a	n/a	n/a	n/a	n/a	n/a	n/a	n/a	n/a	n/a	n/a	n/a	n/a	n/a	n/a
884.8	n/a	WORD	442400	wordpools/wasnorm_wordpool_less_exclusions.txt	LTP274	ltpFR	12	3	0	TIMBER	1469	n/a	n/a	0	n/a	0	0	0	0.422607421875	0.5869140625	0	lower	amplitud.ttf
887.814	n/a	START	443907	n/a	LTP274	ltpFR	12	n/a	n/a	n/a	n/a	n/a	n/a	n/a	n/a	n/a	n/a	n/a	n/a	n/a	n/a	n/a	n/a
888.884	n/a	PROB	444442	n/a	LTP274	ltpFR	12	n/a	n/a	n/a	n/a	n/a	n/a	n/a	16	3	5	7	n/a	n/a	n/a	n/a	n/a
890.088	n/a	PROB	445044	n/a	LTP274	ltpFR	12	n/a	n/a	n/a	n/a	n/a	n/a	n/a	20	9	5	6	n/a	n/a	n/a	n/a	n/a
891.51	n/a	PROB	445755	n/a	LTP274	ltpFR	12	n/a	n/a	n/a	n/a	n/a	n/a	n/a	17	9	7	1	n/a	n/a	n/a	n/a	n/a
892.68	n/a	PROB	446340	n/a	LTP274	ltpFR	12	n/a	n/a	n/a	n/a	n/a	n/a	n/a	16	9	2	8	n/a	n/a	n/a	n/a	n/a
894.068	n/a	PROB	447034	n/a	LTP274	ltpFR	12	n/a	n/a	n/a	n/a	n/a	n/a	n/a	21	8	5	8	n/a	n/a	n/a	n/a	n/a
895.244	n/a	STOP	447622	n/a	LTP274	ltpFR	12	n/a	n/a	n/a	n/a	n/a	n/a	n/a	n/a	n/a	n/a	n/a	n/a	n/a	n/a	n/a	n/a
896.78	n/a	WORD	448390	wordpools/wasnorm_wordpool_less_exclusions.txt	LTP274	ltpFR	12	3	0	JUPITER	765	n/a	n/a	1	n/a	0	0	0	0.422607421875	0.5869140625	0	lower	amplitud.ttf
899.792	n/a	START	449896	n/a	LTP274	ltpFR	12	n/a	n/a	n/a	n/a	n/a	n/a	n/a	n/a	n/a	n/a	n/a	n/a	n/a	n/a	n/a	n/a
900.744	n/a	PROB	450372	n/a	LTP274	ltpFR	12	n/a	n/a	n/a	n/a	n/a	n/a	n/a	21	7	9	5	n/a	n/a	n/a	n/a	n/a
901.866	n/a	PROB	450933	n/a	LTP274	ltpFR	12	n/a	n/a	n/a	n/a	n/a	n/a	n/a	20	8	5	7	n/a	n/a	n/a	n/a	n/a
903.322	n/a	PROB	451661	n/a	LTP274	ltpFR	12	n/a	n/a	n/a	n/a	n/a	n/a	n/a	20	8	7	5	n/a	n/a	n/a	n/a	n/a
904.274	n/a	PROB	452137	n/a	LTP274	ltpFR	12	n/a	n/a	n/a	n/a	n/a	n/a	n/a	18	9	5	4	n/a	n/a	n/a	n/a	n/a
906.05	n/a	PROB	453025	n/a	LTP274	ltpFR	12	n/a	n/a	n/a	n/a	n/a	n/a	n/a	15	3	3	9	n/a	n/a	n/a	n/a	n/a
907.252	n/a	STOP	453626	n/a	LTP274	ltpFR	12	n/a	n/a	n/a	n/a	n/a	n/a	n/a	n/a	n/a	n/a	n/a	n/a	n/a	n/a	n/a	n/a
909.01	n/a	WORD	454505	wordpools/wasnorm_wordpool_less_exclusions.txt	LTP274	ltpFR	12	3	0	DRYER	503	n/a	n/a	1	n/a	0	0	0	0.422607421875	0.5869140625	0	lower	amplitud.ttf
912.024	n/a	START	456012	n/a	LTP274	ltpFR	12	n/a	n/a	n/a	n/a	n/a	n/a	n/a	n/a	n/a	n/a	n/a	n/a	n/a	n/a	n/a	n/a
912.876	n/a	PROB	456438	n/a	LTP274	ltpFR	12	n/a	n/a	n/a	n/a	n/a	n/a	n/a	17	5	6	6	n/a	n/a	n/a	n/a	n/a
914.648	n/a	PROB	457324	n/a	LTP274	ltpFR	12	n/a	n/a	n/a	n/a	n/a	n/a	n/a	6	4	1	1	n/a	n/a	n/a	n/a	n/a
915.518	n/a	PROB	457759	n/a	LTP274	ltpFR	12	n/a	n/a	n/a	n/a	n/a	n/a	n/a	19	4	8	7	n/a	n/a	n/a	n/a	n/a
916.858	n/a	PROB	458429	n/a	LTP274	ltpFR	12	n/a	n/a	n/a	n/a	n/a	n/a	n/a	22	9	4	9	n/a	n/a	n/a	n/a	n/a
918.094	n/a	PROB	459047	n/a	LTP274	ltpFR	12	n/a	n/a	n/a	n/a	n/a	n/a	n/a	15	1	8	6	n/a	n/a	n/a	n/a	n/a
918.948	n/a	STOP	459474	n/a	LTP274	ltpFR	12	n/a	n/a	n/a	n/a	n/a	n/a	n/a	n/a	n/a	n/a	n/a	n/a	n/a	n/a	n/a	n/a
920.972	n/a	WORD	460486	wordpools/wasnorm_wordpool_less_exclusions.txt	LTP274	ltpFR	12	3	0	PORK	1108	n/a	n/a	1	n/a	0	0	0	0.422607421875	0.5869140625	0	lower	amplitud.ttf
923.986	n/a	START	461993	n/a	LTP274	ltpFR	12	n/a	n/a	n/a	n/a	n/a	n/a	n/a	n/a	n/a	n/a	n/a	n/a	n/a	n/a	n/a	n/a
925.188	n/a	PROB	462594	n/a	LTP274	ltpFR	12	n/a	n/a	n/a	n/a	n/a	n/a	n/a	18	8	4	6	n/a	n/a	n/a	n/a	n/a
926.478	n/a	PROB	463239	n/a	LTP274	ltpFR	12	n/a	n/a	n/a	n/a	n/a	n/a	n/a	19	2	9	8	n/a	n/a	n/a	n/a	n/a
927.864	n/a	PROB	463932	n/a	LTP274	ltpFR	12	n/a	n/a	n/a	n/a	n/a	n/a	n/a	15	7	4	4	n/a	n/a	n/a	n/a	n/a
928.97	n/a	PROB	464485	n/a	LTP274	ltpFR	12	n/a	n/a	n/a	n/a	n/a	n/a	n/a	14	5	3	6	n/a	n/a	n/a	n/a	n/a
930.29	n/a	PROB	465145	n/a	LTP274	ltpFR	12	n/a	n/a	n/a	n/a	n/a	n/a	n/a	13	2	7	4	n/a	n/a	n/a	n/a	n/a
931.486	n/a	STOP	465743	n/a	LTP274	ltpFR	12	n/a	n/a	n/a	n/a	n/a	n/a	n/a	n/a	n/a	n/a	n/a	n/a	n/a	n/a	n/a	n/a
933.17	n/a	WORD	466585	wordpools/wasnorm_wordpool_less_exclusions.txt	LTP274	ltpFR	12	3	0	YARN	1631	n/a	n/a	1	n/a	0	0	0	0.422607421875	0.5869140625	0	lower	amplitud.ttf
936.182	n/a	START	468091	n/a	LTP274	ltpFR	12	n/a	n/a	n/a	n/a	n/a	n/a	n/a	n/a	n/a	n/a	n/a	n/a	n/a	n/a	n/a	n/a
937.0	n/a	PROB	468500	n/a	LTP274	ltpFR	12	n/a	n/a	n/a	n/a	n/a	n/a	n/a	15	1	7	7	n/a	n/a	n/a	n/a	n/a
937.852	n/a	PROB	468926	n/a	LTP274	ltpFR	12	n/a	n/a	n/a	n/a	n/a	n/a	n/a	15	2	6	7	n/a	n/a	n/a	n/a	n/a
939.226	n/a	PROB	469613	n/a	LTP274	ltpFR	12	n/a	n/a	n/a	n/a	n/a	n/a	n/a	12	7	2	3	n/a	n/a	n/a	n/a	n/a
940.9	n/a	PROB	470450	n/a	LTP274	ltpFR	12	n/a	n/a	n/a	n/a	n/a	n/a	n/a	10	1	8	1	n/a	n/a	n/a	n/a	n/a
941.886	n/a	PROB	470943	n/a	LTP274	ltpFR	12	n/a	n/a	n/a	n/a	n/a	n/a	n/a	14	4	4	6	n/a	n/a	n/a	n/a	n/a
943.51	n/a	STOP	471755	n/a	LTP274	ltpFR	12	n/a	n/a	n/a	n/a	n/a	n/a	n/a	n/a	n/a	n/a	n/a	n/a	n/a	n/a	n/a	n/a
946.018	n/a	REC_START	473009	n/a	LTP274	ltpFR	12	3	n/a	n/a	n/a	n/a	n/a	n/a	n/a	0	0	0	n/a	n/a	n/a	n/a	n/a
950.866	n/a	REC_WORD	475433	wordpools/wasnorm_wordpool_less_exclusions.txt	LTP274	ltpFR	12	3	0	YARN	1631	n/a	n/a	1	n/a	0	0	0	n/a	n/a	n/a	n/a	n/a
951.456	n/a	REC_WORD	475728	wordpools/wasnorm_wordpool_less_exclusions.txt	LTP274	ltpFR	12	3	0	THERMOMETER	1453	n/a	n/a	0	n/a	0	0	0	n/a	n/a	n/a	n/a	n/a
952.278	n/a	REC_WORD	476139	wordpools/wasnorm_wordpool_less_exclusions.txt	LTP274	ltpFR	12	3	0	ROOF	1205	n/a	n/a	1	n/a	0	0	0	n/a	n/a	n/a	n/a	n/a
953.048	n/a	REC_WORD	476524	wordpools/wasnorm_wordpool_less_exclusions.txt	LTP274	ltpFR	12	3	0	PORCH	1106	n/a	n/a	1	n/a	0	0	0	n/a	n/a	n/a	n/a	n/a
955.034	n/a	REC_WORD	477517	wordpools/wasnorm_wordpool_less_exclusions.txt	LTP274	ltpFR	12	3	0	PORK	1108	n/a	n/a	1	n/a	0	0	0	n/a	n/a	n/a	n/a	n/a
963.264	n/a	REC_WORD	481632	wordpools/wasnorm_wordpool_less_exclusions.txt	LTP274	ltpFR	12	3	0	EDITORIAL	517	n/a	n/a	0	n/a	0	0	0	n/a	n/a	n/a	n/a	n/a
1025.172	n/a	WORD	512586	wordpools/wasnorm_wordpool_less_exclusions.txt	LTP274	ltpFR	12	4	1	PIANO	1057	n/a	n/a	0	n/a	0	0	0	0.57763671875	0.412841796875	1	upper	zerothre.ttf
1029.052	n/a	WORD	514526	wordpools/wasnorm_wordpool_less_exclusions.txt	LTP274	ltpFR	12	4	1	GOVERNOR	651	n/a	n/a	1	n/a	0	0	0	0.57763671875	0.412841796875	1	upper	zerothre.ttf
1033.168	n/a	WORD	516584	wordpools/wasnorm_wordpool_less_exclusions.txt	LTP274	ltpFR	12	4	0	TOMATO	1476	n/a	n/a	0	n/a	0	0	0	0.422607421875	0.5869140625	0	lower	amplitud.ttf
1037.148	n/a	WORD	518574	wordpools/wasnorm_wordpool_less_exclusions.txt	LTP274	ltpFR	12	4	0	VELVET	1555	n/a	n/a	0	n/a	0	0	0	0.422607421875	0.5869140625	0	lower	amplitud.ttf
1040.98	n/a	WORD	520490	wordpools/wasnorm_wordpool_less_exclusions.txt	LTP274	ltpFR	12	4	0	COUNTY	389	n/a	n/a	1	n/a	0	0	0	0.422607421875	0.5869140625	0	lower	amplitud.ttf
1045.148	n/a	WORD	522574	wordpools/wasnorm_wordpool_less_exclusions.txt	LTP274	ltpFR	12	4	0	SAXOPHONE	1240	n/a	n/a	1	n/a	0	0	0	0.422607421875	0.5869140625	0	lower	amplitud.ttf
1049.364	n/a	WORD	524682	wordpools/wasnorm_wordpool_less_exclusions.txt	LTP274	ltpFR	12	4	1	FRUIT	610	n/a	n/a	0	n/a	0	0	0	0.57763671875	0.412841796875	1	upper	zerothre.ttf
1053.462	n/a	WORD	526731	wordpools/wasnorm_wordpool_less_exclusions.txt	LTP274	ltpFR	12	4	1	BREAST	171	n/a	n/a	1	n/a	0	0	0	0.57763671875	0.412841796875	1	upper	zerothre.ttf
1057.528	n/a	WORD	528764	wordpools/wasnorm_wordpool_less_exclusions.txt	LTP274	ltpFR	12	4	1	CARTON	251	n/a	n/a	0	n/a	0	0	0	0.57763671875	0.412841796875	1	upper	zerothre.ttf
1061.56	n/a	WORD	530780	wordpools/wasnorm_wordpool_less_exclusions.txt	LTP274	ltpFR	12	4	0	BRAN	167	n/a	n/a	0	n/a	0	0	0	0.422607421875	0.5869140625	0	lower	amplitud.ttf
1065.458	n/a	WORD	532729	wordpools/wasnorm_wordpool_less_exclusions.txt	LTP274	ltpFR	12	4	0	SCULPTURE	1258	n/a	n/a	1	n/a	0	0	0	0.422607421875	0.5869140625	0	lower	amplitud.ttf
1069.458	n/a	WORD	534729	wordpools/wasnorm_wordpool_less_exclusions.txt	LTP274	ltpFR	12	4	0	POTTERY	1116	n/a	n/a	1	n/a	0	0	0	0.422607421875	0.5869140625	0	lower	amplitud.ttf
1073.438	n/a	WORD	536719	wordpools/wasnorm_wordpool_less_exclusions.txt	LTP274	ltpFR	12	4	0	BIOLOGIST	128	n/a	n/a	1	n/a	0	0	0	0.422607421875	0.5869140625	0	lower	amplitud.ttf
1077.554	n/a	WORD	538777	wordpools/wasnorm_wordpool_less_exclusions.txt	LTP274	ltpFR	12	4	1	CHEERLEADER	288	n/a	n/a	1	n/a	0	0	0	0.57763671875	0.412841796875	1	upper	zerothre.ttf
1081.552	n/a	WORD	540776	wordpools/wasnorm_wordpool_less_exclusions.txt	LTP274	ltpFR	12	4	1	RELATIVE	1182	n/a	n/a	1	n/a	0	0	0	0.57763671875	0.412841796875	1	upper	zerothre.ttf
1085.584	n/a	WORD	542792	wordpools/wasnorm_wordpool_less_exclusions.txt	LTP274	ltpFR	12	4	1	COUSIN	392	n/a	n/a	1	n/a	0	0	0	0.57763671875	0.412841796875	1	upper	zerothre.ttf
1091.608	n/a	REC_START	545804	n/a	LTP274	ltpFR	12	4	n/a	n/a	n/a	n/a	n/a	n/a	n/a	0	0	0	n/a	n/a	n/a	n/a	n/a
1093.822	n/a	REC_WORD	546911	wordpools/wasnorm_wordpool_less_exclusions.txt	LTP274	ltpFR	12	4	1	CHEERLEADER	288	n/a	n/a	1	n/a	0	0	0	n/a	n/a	n/a	n/a	n/a
1094.426	n/a	REC_WORD	547213	wordpools/wasnorm_wordpool_less_exclusions.txt	LTP274	ltpFR	12	4	1	RELATIVE	1182	n/a	n/a	1	n/a	0	0	0	n/a	n/a	n/a	n/a	n/a
1095.024	n/a	REC_WORD	547512	wordpools/wasnorm_wordpool_less_exclusions.txt	LTP274	ltpFR	12	4	1	COUSIN	392	n/a	n/a	1	n/a	0	0	0	n/a	n/a	n/a	n/a	n/a
1170.844	n/a	WORD	585422	wordpools/wasnorm_wordpool_less_exclusions.txt	LTP274	ltpFR	12	5	1	ANKLE	24	n/a	n/a	0	n/a	0	0	0	0.57763671875	0.412841796875	1	upper	zerothre.ttf
1175.044	n/a	WORD	587522	wordpools/wasnorm_wordpool_less_exclusions.txt	LTP274	ltpFR	12	5	1	TOASTER	1472	n/a	n/a	0	n/a	0	0	0	0.57763671875	0.412841796875	1	upper	zerothre.ttf
1179.092	n/a	WORD	589546	wordpools/wasnorm_wordpool_less_exclusions.txt	LTP274	ltpFR	12	5	1	TULIP	1517	n/a	n/a	0	n/a	0	0	0	0.57763671875	0.412841796875	1	upper	zerothre.ttf
1183.024	n/a	WORD	591512	wordpools/wasnorm_wordpool_less_exclusions.txt	LTP274	ltpFR	12	5	1	HIKER	708	n/a	n/a	1	n/a	0	0	0	0.57763671875	0.412841796875	1	upper	zerothre.ttf
1187.19	n/a	WORD	593595	wordpools/wasnorm_wordpool_less_exclusions.txt	LTP274	ltpFR	12	5	1	LEG	809	n/a	n/a	0	n/a	0	0	0	0.57763671875	0.412841796875	1	upper	zerothre.ttf
1191.054	n/a	WORD	595527	wordpools/wasnorm_wordpool_less_exclusions.txt	LTP274	ltpFR	12	5	1	CARPENTER	246	n/a	n/a	1	n/a	0	0	0	0.57763671875	0.412841796875	1	upper	zerothre.ttf
1195.054	n/a	WORD	597527	wordpools/wasnorm_wordpool_less_exclusions.txt	LTP274	ltpFR	12	5	1	SICKLE	1302	n/a	n/a	0	n/a	0	0	0	0.57763671875	0.412841796875	1	upper	zerothre.ttf
1199.252	n/a	WORD	599626	wordpools/wasnorm_wordpool_less_exclusions.txt	LTP274	ltpFR	12	5	1	BEVERAGE	123	n/a	n/a	0	n/a	0	0	0	0.57763671875	0.412841796875	1	upper	zerothre.ttf
1203.368	n/a	WORD	601684	wordpools/wasnorm_wordpool_less_exclusions.txt	LTP274	ltpFR	12	5	1	THICKET	1455	n/a	n/a	1	n/a	0	0	0	0.57763671875	0.412841796875	1	upper	zerothre.ttf
1207.418	n/a	WORD	603709	wordpools/wasnorm_wordpool_less_exclusions.txt	LTP274	ltpFR	12	5	1	BREAD	170	n/a	n/a	0	n/a	0	0	0	0.57763671875	0.412841796875	1	upper	zerothre.ttf
1211.516	n/a	WORD	605758	wordpools/wasnorm_wordpool_less_exclusions.txt	LTP274	ltpFR	12	5	1	RECORD	1176	n/a	n/a	0	n/a	0	0	0	0.57763671875	0.412841796875	1	upper	zerothre.ttf
1215.466	n/a	WORD	607733	wordpools/wasnorm_wordpool_less_exclusions.txt	LTP274	ltpFR	12	5	1	FLUTE	585	n/a	n/a	0	n/a	0	0	0	0.57763671875	0.412841796875	1	upper	zerothre.ttf
1219.58	n/a	WORD	609790	wordpools/wasnorm_wordpool_less_exclusions.txt	LTP274	ltpFR	12	5	1	INVENTOR	743	n/a	n/a	1	n/a	0	0	0	0.57763671875	0.412841796875	1	upper	zerothre.ttf
1223.662	n/a	WORD	611831	wordpools/wasnorm_wordpool_less_exclusions.txt	LTP274	ltpFR	12	5	1	VEGETABLE	1552	n/a	n/a	0	n/a	0	0	0	0.57763671875	0.412841796875	1	upper	zerothre.ttf
1227.81	n/a	WORD	613905	wordpools/wasnorm_wordpool_less_exclusions.txt	LTP274	ltpFR	12	5	1	LADY	794	n/a	n/a	1	n/a	0	0	0	0.57763671875	0.412841796875	1	upper	zerothre.ttf
1231.946	n/a	WORD	615973	wordpools/wasnorm_wordpool_less_exclusions.txt	LTP274	ltpFR	12	5	1	FELLOW	558	n/a	n/a	1	n/a	0	0	0	0.57763671875	0.412841796875	1	upper	zerothre.ttf
1234.956	n/a	START	617478	n/a	LTP274	ltpFR	12	n/a	n/a	n/a	n/a	n/a	n/a	n/a	n/a	n/a	n/a	n/a	n/a	n/a	n/a	n/a	n/a
1235.792	n/a	PROB	617896	n/a	LTP274	ltpFR	12	n/a	n/a	n/a	n/a	n/a	n/a	n/a	15	9	1	5	n/a	n/a	n/a	n/a	n/a
1237.064	n/a	PROB	618532	n/a	LTP274	ltpFR	12	n/a	n/a	n/a	n/a	n/a	n/a	n/a	21	9	3	9	n/a	n/a	n/a	n/a	n/a
1238.27	n/a	PROB	619135	n/a	LTP274	ltpFR	12	n/a	n/a	n/a	n/a	n/a	n/a	n/a	12	1	9	2	n/a	n/a	n/a	n/a	n/a
1239.322	n/a	PROB	619661	n/a	LTP274	ltpFR	12	n/a	n/a	n/a	n/a	n/a	n/a	n/a	16	5	7	7	n/a	n/a	n/a	n/a	n/a
1240.726	n/a	PROB	620363	n/a	LTP274	ltpFR	12	n/a	n/a	n/a	n/a	n/a	n/a	n/a	18	9	7	2	n/a	n/a	n/a	n/a	n/a
1241.898	n/a	PROB	620949	n/a	LTP274	ltpFR	12	n/a	n/a	n/a	n/a	n/a	n/a	n/a	12	6	1	5	n/a	n/a	n/a	n/a	n/a
1243.138	n/a	PROB	621569	n/a	LTP274	ltpFR	12	n/a	n/a	n/a	n/a	n/a	n/a	n/a	19	6	9	4	n/a	n/a	n/a	n/a	n/a
1244.358	n/a	PROB	622179	n/a	LTP274	ltpFR	12	n/a	n/a	n/a	n/a	n/a	n/a	n/a	16	7	6	3	n/a	n/a	n/a	n/a	n/a
1245.362	n/a	PROB	622681	n/a	LTP274	ltpFR	12	n/a	n/a	n/a	n/a	n/a	n/a	n/a	1	1	7	2	n/a	n/a	n/a	n/a	n/a
1246.434	n/a	PROB	623217	n/a	LTP274	ltpFR	12	n/a	n/a	n/a	n/a	n/a	n/a	n/a	15	4	4	7	n/a	n/a	n/a	n/a	n/a
1247.77	n/a	PROB	623885	n/a	LTP274	ltpFR	12	n/a	n/a	n/a	n/a	n/a	n/a	n/a	19	2	9	8	n/a	n/a	n/a	n/a	n/a
1249.044	n/a	PROB	624522	n/a	LTP274	ltpFR	12	n/a	n/a	n/a	n/a	n/a	n/a	n/a	11	1	5	5	n/a	n/a	n/a	n/a	n/a
1249.854	n/a	STOP	624927	n/a	LTP274	ltpFR	12	n/a	n/a	n/a	n/a	n/a	n/a	n/a	n/a	n/a	n/a	n/a	n/a	n/a	n/a	n/a	n/a
1252.86	n/a	REC_START	626430	n/a	LTP274	ltpFR	12	5	n/a	n/a	n/a	n/a	n/a	n/a	n/a	0	0	0	n/a	n/a	n/a	n/a	n/a
1254.91	n/a	REC_WORD	627455	wordpools/wasnorm_wordpool_less_exclusions.txt	LTP274	ltpFR	12	5	1	INVENTOR	743	n/a	n/a	1	n/a	0	0	0	n/a	n/a	n/a	n/a	n/a
1256.506	n/a	REC_WORD	628253	wordpools/wasnorm_wordpool_less_exclusions.txt	LTP274	ltpFR	12	5	1	LADY	794	n/a	n/a	1	n/a	0	0	0	n/a	n/a	n/a	n/a	n/a
1261.604	n/a	REC_WORD	630802	wordpools/wasnorm_wordpool_less_exclusions.txt	LTP274	ltpFR	12	5	1	ANKLE	24	n/a	n/a	0	n/a	0	0	0	n/a	n/a	n/a	n/a	n/a
1330.322	n/a	START	665161	n/a	LTP274	ltpFR	12	n/a	n/a	n/a	n/a	n/a	n/a	n/a	n/a	n/a	n/a	n/a	n/a	n/a	n/a	n/a	n/a
1331.826	n/a	PROB	665913	n/a	LTP274	ltpFR	12	n/a	n/a	n/a	n/a	n/a	n/a	n/a	14	3	9	2	n/a	n/a	n/a	n/a	n/a
1333.364	n/a	PROB	666682	n/a	LTP274	ltpFR	12	n/a	n/a	n/a	n/a	n/a	n/a	n/a	7	5	1	1	n/a	n/a	n/a	n/a	n/a
1334.37	n/a	PROB	667185	n/a	LTP274	ltpFR	12	n/a	n/a	n/a	n/a	n/a	n/a	n/a	14	2	6	6	n/a	n/a	n/a	n/a	n/a
1335.524	n/a	PROB	667762	n/a	LTP274	ltpFR	12	n/a	n/a	n/a	n/a	n/a	n/a	n/a	8	1	5	2	n/a	n/a	n/a	n/a	n/a
1336.428	n/a	PROB	668214	n/a	LTP274	ltpFR	12	n/a	n/a	n/a	n/a	n/a	n/a	n/a	19	7	7	5	n/a	n/a	n/a	n/a	n/a
1337.464	n/a	PROB	668732	n/a	LTP274	ltpFR	12	n/a	n/a	n/a	n/a	n/a	n/a	n/a	20	5	7	8	n/a	n/a	n/a	n/a	n/a
1339.388	n/a	PROB	669694	n/a	LTP274	ltpFR	12	n/a	n/a	n/a	n/a	n/a	n/a	n/a	21	9	5	7	n/a	n/a	n/a	n/a	n/a
1341.43	n/a	PROB	670715	n/a	LTP274	ltpFR	12	n/a	n/a	n/a	n/a	n/a	n/a	n/a	16	9	5	2	n/a	n/a	n/a	n/a	n/a
1342.716	n/a	PROB	671358	n/a	LTP274	ltpFR	12	n/a	n/a	n/a	n/a	n/a	n/a	n/a	13	3	8	2	n/a	n/a	n/a	n/a	n/a
1344.358	n/a	PROB	672179	n/a	LTP274	ltpFR	12	n/a	n/a	n/a	n/a	n/a	n/a	n/a	13	3	6	4	n/a	n/a	n/a	n/a	n/a
1345.9	n/a	STOP	672950	n/a	LTP274	ltpFR	12	n/a	n/a	n/a	n/a	n/a	n/a	n/a	n/a	n/a	n/a	n/a	n/a	n/a	n/a	n/a	n/a
1347.27	n/a	WORD	673635	wordpools/wasnorm_wordpool_less_exclusions.txt	LTP274	ltpFR	12	6	0	SAGE	1222	n/a	n/a	1	n/a	0	0	0	0.422607421875	0.5869140625	0	lower	amplitud.ttf
1350.282	n/a	START	675141	n/a	LTP274	ltpFR	12	n/a	n/a	n/a	n/a	n/a	n/a	n/a	n/a	n/a	n/a	n/a	n/a	n/a	n/a	n/a	n/a
1351.25	n/a	PROB	675625	n/a	LTP274	ltpFR	12	n/a	n/a	n/a	n/a	n/a	n/a	n/a	14	9	4	1	n/a	n/a	n/a	n/a	n/a
1352.538	n/a	PROB	676269	n/a	LTP274	ltpFR	12	n/a	n/a	n/a	n/a	n/a	n/a	n/a	17	6	2	9	n/a	n/a	n/a	n/a	n/a
1354.462	n/a	PROB	677231	n/a	LTP274	ltpFR	12	n/a	n/a	n/a	n/a	n/a	n/a	n/a	9	2	5	2	n/a	n/a	n/a	n/a	n/a
1355.564	n/a	PROB	677782	n/a	LTP274	ltpFR	12	n/a	n/a	n/a	n/a	n/a	n/a	n/a	8	2	5	1	n/a	n/a	n/a	n/a	n/a
1356.718	n/a	PROB	678359	n/a	LTP274	ltpFR	12	n/a	n/a	n/a	n/a	n/a	n/a	n/a	23	7	9	9	n/a	n/a	n/a	n/a	n/a
1357.992	n/a	PROB	678996	n/a	LTP274	ltpFR	12	n/a	n/a	n/a	n/a	n/a	n/a	n/a	21	7	8	6	n/a	n/a	n/a	n/a	n/a
1359.548	n/a	PROB	679774	n/a	LTP274	ltpFR	12	n/a	n/a	n/a	n/a	n/a	n/a	n/a	12	1	2	9	n/a	n/a	n/a	n/a	n/a
1360.736	n/a	PROB	680368	n/a	LTP274	ltpFR	12	n/a	n/a	n/a	n/a	n/a	n/a	n/a	7	4	2	1	n/a	n/a	n/a	n/a	n/a
1361.706	n/a	PROB	680853	n/a	LTP274	ltpFR	12	n/a	n/a	n/a	n/a	n/a	n/a	n/a	15	5	9	1	n/a	n/a	n/a	n/a	n/a
1362.792	n/a	PROB	681396	n/a	LTP274	ltpFR	12	n/a	n/a	n/a	n/a	n/a	n/a	n/a	23	9	5	9	n/a	n/a	n/a	n/a	n/a
1364.912	n/a	STOP	682456	n/a	LTP274	ltpFR	12	n/a	n/a	n/a	n/a	n/a	n/a	n/a	n/a	n/a	n/a	n/a	n/a	n/a	n/a	n/a	n/a
1367.278	n/a	WORD	683639	wordpools/wasnorm_wordpool_less_exclusions.txt	LTP274	ltpFR	12	6	0	PAW	1029	n/a	n/a	0	n/a	0	0	0	0.422607421875	0.5869140625	0	lower	amplitud.ttf
1370.29	n/a	START	685145	n/a	LTP274	ltpFR	12	n/a	n/a	n/a	n/a	n/a	n/a	n/a	n/a	n/a	n/a	n/a	n/a	n/a	n/a	n/a	n/a
1371.144	n/a	PROB	685572	n/a	LTP274	ltpFR	12	n/a	n/a	n/a	n/a	n/a	n/a	n/a	19	9	4	6	n/a	n/a	n/a	n/a	n/a
1372.95	n/a	PROB	686475	n/a	LTP274	ltpFR	12	n/a	n/a	n/a	n/a	n/a	n/a	n/a	14	4	4	6	n/a	n/a	n/a	n/a	n/a
1374.422	n/a	PROB	687211	n/a	LTP274	ltpFR	12	n/a	n/a	n/a	n/a	n/a	n/a	n/a	24	9	9	6	n/a	n/a	n/a	n/a	n/a
1375.742	n/a	PROB	687871	n/a	LTP274	ltpFR	12	n/a	n/a	n/a	n/a	n/a	n/a	n/a	8	2	1	5	n/a	n/a	n/a	n/a	n/a
1376.614	n/a	PROB	688307	n/a	LTP274	ltpFR	12	n/a	n/a	n/a	n/a	n/a	n/a	n/a	10	2	3	5	n/a	n/a	n/a	n/a	n/a
1377.836	n/a	PROB	688918	n/a	LTP274	ltpFR	12	n/a	n/a	n/a	n/a	n/a	n/a	n/a	19	5	9	9	n/a	n/a	n/a	n/a	n/a
1379.44	n/a	PROB	689720	n/a	LTP274	ltpFR	12	n/a	n/a	n/a	n/a	n/a	n/a	n/a	19	9	3	7	n/a	n/a	n/a	n/a	n/a
1382.552	n/a	PROB	691276	n/a	LTP274	ltpFR	12	n/a	n/a	n/a	n/a	n/a	n/a	n/a	18	7	7	4	n/a	n/a	n/a	n/a	n/a
1383.774	n/a	PROB	691887	n/a	LTP274	ltpFR	12	n/a	n/a	n/a	n/a	n/a	n/a	n/a	16	7	4	5	n/a	n/a	n/a	n/a	n/a
1385.158	n/a	STOP	692579	n/a	LTP274	ltpFR	12	n/a	n/a	n/a	n/a	n/a	n/a	n/a	n/a	n/a	n/a	n/a	n/a	n/a	n/a	n/a	n/a
1387.306	n/a	WORD	693653	wordpools/wasnorm_wordpool_less_exclusions.txt	LTP274	ltpFR	12	6	1	SWIMMER	1420	n/a	n/a	1	n/a	0	0	0	0.57763671875	0.412841796875	1	upper	zerothre.ttf
1390.318	n/a	START	695159	n/a	LTP274	ltpFR	12	n/a	n/a	n/a	n/a	n/a	n/a	n/a	n/a	n/a	n/a	n/a	n/a	n/a	n/a	n/a	n/a
1391.388	n/a	PROB	695694	n/a	LTP274	ltpFR	12	n/a	n/a	n/a	n/a	n/a	n/a	n/a	14	7	3	4	n/a	n/a	n/a	n/a	n/a
1392.86	n/a	PROB	696430	n/a	LTP274	ltpFR	12	n/a	n/a	n/a	n/a	n/a	n/a	n/a	12	2	6	4	n/a	n/a	n/a	n/a	n/a
1394.698	n/a	PROB	697349	n/a	LTP274	ltpFR	12	n/a	n/a	n/a	n/a	n/a	n/a	n/a	16	6	3	7	n/a	n/a	n/a	n/a	n/a
1396.036	n/a	PROB	698018	n/a	LTP274	ltpFR	12	n/a	n/a	n/a	n/a	n/a	n/a	n/a	19	1	9	9	n/a	n/a	n/a	n/a	n/a
1397.176	n/a	PROB	698588	n/a	LTP274	ltpFR	12	n/a	n/a	n/a	n/a	n/a	n/a	n/a	18	8	1	9	n/a	n/a	n/a	n/a	n/a
1398.748	n/a	PROB	699374	n/a	LTP274	ltpFR	12	n/a	n/a	n/a	n/a	n/a	n/a	n/a	18	4	5	9	n/a	n/a	n/a	n/a	n/a
1400.372	n/a	PROB	700186	n/a	LTP274	ltpFR	12	n/a	n/a	n/a	n/a	n/a	n/a	n/a	20	9	8	3	n/a	n/a	n/a	n/a	n/a
1401.744	n/a	PROB	700872	n/a	LTP274	ltpFR	12	n/a	n/a	n/a	n/a	n/a	n/a	n/a	19	9	6	4	n/a	n/a	n/a	n/a	n/a
1402.966	n/a	PROB	701483	n/a	LTP274	ltpFR	12	n/a	n/a	n/a	n/a	n/a	n/a	n/a	10	1	2	7	n/a	n/a	n/a	n/a	n/a
1404.036	n/a	PROB	702018	n/a	LTP274	ltpFR	12	n/a	n/a	n/a	n/a	n/a	n/a	n/a	18	6	8	4	n/a	n/a	n/a	n/a	n/a
1405.03	n/a	STOP	702515	n/a	LTP274	ltpFR	12	n/a	n/a	n/a	n/a	n/a	n/a	n/a	n/a	n/a	n/a	n/a	n/a	n/a	n/a	n/a	n/a
1407.282	n/a	WORD	703641	wordpools/wasnorm_wordpool_less_exclusions.txt	LTP274	ltpFR	12	6	1	VETERAN	1561	n/a	n/a	0	n/a	0	0	0	0.57763671875	0.412841796875	1	upper	zerothre.ttf
1410.294	n/a	START	705147	n/a	LTP274	ltpFR	12	n/a	n/a	n/a	n/a	n/a	n/a	n/a	n/a	n/a	n/a	n/a	n/a	n/a	n/a	n/a	n/a
1411.38	n/a	PROB	705690	n/a	LTP274	ltpFR	12	n/a	n/a	n/a	n/a	n/a	n/a	n/a	22	8	8	6	n/a	n/a	n/a	n/a	n/a
1412.6	n/a	PROB	706300	n/a	LTP274	ltpFR	12	n/a	n/a	n/a	n/a	n/a	n/a	n/a	13	5	5	3	n/a	n/a	n/a	n/a	n/a
1413.622	n/a	PROB	706811	n/a	LTP274	ltpFR	12	n/a	n/a	n/a	n/a	n/a	n/a	n/a	20	6	9	5	n/a	n/a	n/a	n/a	n/a
1414.86	n/a	PROB	707430	n/a	LTP274	ltpFR	12	n/a	n/a	n/a	n/a	n/a	n/a	n/a	20	5	9	6	n/a	n/a	n/a	n/a	n/a
1415.83	n/a	PROB	707915	n/a	LTP274	ltpFR	12	n/a	n/a	n/a	n/a	n/a	n/a	n/a	12	5	4	3	n/a	n/a	n/a	n/a	n/a
1417.134	n/a	PROB	708567	n/a	LTP274	ltpFR	12	n/a	n/a	n/a	n/a	n/a	n/a	n/a	18	6	3	9	n/a	n/a	n/a	n/a	n/a
1418.39	n/a	PROB	709195	n/a	LTP274	ltpFR	12	n/a	n/a	n/a	n/a	n/a	n/a	n/a	20	7	4	9	n/a	n/a	n/a	n/a	n/a
1419.676	n/a	PROB	709838	n/a	LTP274	ltpFR	12	n/a	n/a	n/a	n/a	n/a	n/a	n/a	14	5	2	7	n/a	n/a	n/a	n/a	n/a
1421.218	n/a	PROB	710609	n/a	LTP274	ltpFR	12	n/a	n/a	n/a	n/a	n/a	n/a	n/a	20	3	8	9	n/a	n/a	n/a	n/a	n/a
1422.372	n/a	PROB	711186	n/a	LTP274	ltpFR	12	n/a	n/a	n/a	n/a	n/a	n/a	n/a	23	8	8	7	n/a	n/a	n/a	n/a	n/a
1423.56	n/a	PROB	711780	n/a	LTP274	ltpFR	12	n/a	n/a	n/a	n/a	n/a	n/a	n/a	11	4	1	6	n/a	n/a	n/a	n/a	n/a
1426.294	n/a	STOP	713147	n/a	LTP274	ltpFR	12	n/a	n/a	n/a	n/a	n/a	n/a	n/a	n/a	n/a	n/a	n/a	n/a	n/a	n/a	n/a	n/a
1427.442	n/a	WORD	713721	wordpools/wasnorm_wordpool_less_exclusions.txt	LTP274	ltpFR	12	6	1	CAT	257	n/a	n/a	1	n/a	0	0	0	0.57763671875	0.412841796875	1	upper	zerothre.ttf
1430.454	n/a	START	715227	n/a	LTP274	ltpFR	12	n/a	n/a	n/a	n/a	n/a	n/a	n/a	n/a	n/a	n/a	n/a	n/a	n/a	n/a	n/a	n/a
1431.356	n/a	PROB	715678	n/a	LTP274	ltpFR	12	n/a	n/a	n/a	n/a	n/a	n/a	n/a	11	2	5	4	n/a	n/a	n/a	n/a	n/a
1432.592	n/a	PROB	716296	n/a	LTP274	ltpFR	12	n/a	n/a	n/a	n/a	n/a	n/a	n/a	17	6	9	2	n/a	n/a	n/a	n/a	n/a
1433.682	n/a	PROB	716841	n/a	LTP274	ltpFR	12	n/a	n/a	n/a	n/a	n/a	n/a	n/a	11	5	1	5	n/a	n/a	n/a	n/a	n/a
1434.618	n/a	PROB	717309	n/a	LTP274	ltpFR	12	n/a	n/a	n/a	n/a	n/a	n/a	n/a	24	6	9	9	n/a	n/a	n/a	n/a	n/a
1436.008	n/a	PROB	718004	n/a	LTP274	ltpFR	12	n/a	n/a	n/a	n/a	n/a	n/a	n/a	18	9	8	1	n/a	n/a	n/a	n/a	n/a
1437.078	n/a	PROB	718539	n/a	LTP274	ltpFR	12	n/a	n/a	n/a	n/a	n/a	n/a	n/a	7	3	3	1	n/a	n/a	n/a	n/a	n/a
1438.032	n/a	PROB	719016	n/a	LTP274	ltpFR	12	n/a	n/a	n/a	n/a	n/a	n/a	n/a	12	3	3	6	n/a	n/a	n/a	n/a	n/a
1439.302	n/a	PROB	719651	n/a	LTP274	ltpFR	12	n/a	n/a	n/a	n/a	n/a	n/a	n/a	13	9	1	3	n/a	n/a	n/a	n/a	n/a
1440.342	n/a	PROB	720171	n/a	LTP274	ltpFR	12	n/a	n/a	n/a	n/a	n/a	n/a	n/a	10	2	3	5	n/a	n/a	n/a	n/a	n/a
1441.494	n/a	PROB	720747	n/a	LTP274	ltpFR	12	n/a	n/a	n/a	n/a	n/a	n/a	n/a	12	1	9	2	n/a	n/a	n/a	n/a	n/a
1442.432	n/a	PROB	721216	n/a	LTP274	ltpFR	12	n/a	n/a	n/a	n/a	n/a	n/a	n/a	12	2	7	3	n/a	n/a	n/a	n/a	n/a
1443.802	n/a	PROB	721901	n/a	LTP274	ltpFR	12	n/a	n/a	n/a	n/a	n/a	n/a	n/a	14	4	5	5	n/a	n/a	n/a	n/a	n/a
1444.864	n/a	STOP	722432	n/a	LTP274	ltpFR	12	n/a	n/a	n/a	n/a	n/a	n/a	n/a	n/a	n/a	n/a	n/a	n/a	n/a	n/a	n/a	n/a
1447.486	n/a	WORD	723743	wordpools/wasnorm_wordpool_less_exclusions.txt	LTP274	ltpFR	12	6	1	LION	827	n/a	n/a	1	n/a	0	0	0	0.57763671875	0.412841796875	1	upper	zerothre.ttf
1450.498	n/a	START	725249	n/a	LTP274	ltpFR	12	n/a	n/a	n/a	n/a	n/a	n/a	n/a	n/a	n/a	n/a	n/a	n/a	n/a	n/a	n/a	n/a
1451.616	n/a	PROB	725808	n/a	LTP274	ltpFR	12	n/a	n/a	n/a	n/a	n/a	n/a	n/a	9	1	7	1	n/a	n/a	n/a	n/a	n/a
1452.586	n/a	PROB	726293	n/a	LTP274	ltpFR	12	n/a	n/a	n/a	n/a	n/a	n/a	n/a	11	7	3	1	n/a	n/a	n/a	n/a	n/a
1453.924	n/a	PROB	726962	n/a	LTP274	ltpFR	12	n/a	n/a	n/a	n/a	n/a	n/a	n/a	15	4	7	4	n/a	n/a	n/a	n/a	n/a
1455.816	n/a	PROB	727908	n/a	LTP274	ltpFR	12	n/a	n/a	n/a	n/a	n/a	n/a	n/a	9	4	1	4	n/a	n/a	n/a	n/a	n/a
1456.872	n/a	PROB	728436	n/a	LTP274	ltpFR	12	n/a	n/a	n/a	n/a	n/a	n/a	n/a	9	2	1	6	n/a	n/a	n/a	n/a	n/a
1458.224	n/a	PROB	729112	n/a	LTP274	ltpFR	12	n/a	n/a	n/a	n/a	n/a	n/a	n/a	14	5	8	1	n/a	n/a	n/a	n/a	n/a
1459.382	n/a	PROB	729691	n/a	LTP274	ltpFR	12	n/a	n/a	n/a	n/a	n/a	n/a	n/a	8	1	4	3	n/a	n/a	n/a	n/a	n/a
1460.282	n/a	PROB	730141	n/a	LTP274	ltpFR	12	n/a	n/a	n/a	n/a	n/a	n/a	n/a	14	1	8	5	n/a	n/a	n/a	n/a	n/a
1461.406	n/a	PROB	730703	n/a	LTP274	ltpFR	12	n/a	n/a	n/a	n/a	n/a	n/a	n/a	15	6	1	8	n/a	n/a	n/a	n/a	n/a
1462.426	n/a	PROB	731213	n/a	LTP274	ltpFR	12	n/a	n/a	n/a	n/a	n/a	n/a	n/a	5	2	2	1	n/a	n/a	n/a	n/a	n/a
1463.514	n/a	PROB	731757	n/a	LTP274	ltpFR	12	n/a	n/a	n/a	n/a	n/a	n/a	n/a	16	8	4	4	n/a	n/a	n/a	n/a	n/a
1464.75	n/a	PROB	732375	n/a	LTP274	ltpFR	12	n/a	n/a	n/a	n/a	n/a	n/a	n/a	14	1	8	5	n/a	n/a	n/a	n/a	n/a
1465.768	n/a	STOP	732884	n/a	LTP274	ltpFR	12	n/a	n/a	n/a	n/a	n/a	n/a	n/a	n/a	n/a	n/a	n/a	n/a	n/a	n/a	n/a	n/a
1467.61	n/a	WORD	733805	wordpools/wasnorm_wordpool_less_exclusions.txt	LTP274	ltpFR	12	6	0	TIGER	1467	n/a	n/a	0	n/a	0	0	0	0.422607421875	0.5869140625	0	lower	amplitud.ttf
1470.622	n/a	START	735311	n/a	LTP274	ltpFR	12	n/a	n/a	n/a	n/a	n/a	n/a	n/a	n/a	n/a	n/a	n/a	n/a	n/a	n/a	n/a	n/a
1471.642	n/a	PROB	735821	n/a	LTP274	ltpFR	12	n/a	n/a	n/a	n/a	n/a	n/a	n/a	16	1	6	9	n/a	n/a	n/a	n/a	n/a
1472.998	n/a	PROB	736499	n/a	LTP274	ltpFR	12	n/a	n/a	n/a	n/a	n/a	n/a	n/a	9	1	4	4	n/a	n/a	n/a	n/a	n/a
1473.95	n/a	PROB	736975	n/a	LTP274	ltpFR	12	n/a	n/a	n/a	n/a	n/a	n/a	n/a	12	4	2	6	n/a	n/a	n/a	n/a	n/a
1475.59	n/a	PROB	737795	n/a	LTP274	ltpFR	12	n/a	n/a	n/a	n/a	n/a	n/a	n/a	15	1	8	6	n/a	n/a	n/a	n/a	n/a
1476.494	n/a	PROB	738247	n/a	LTP274	ltpFR	12	n/a	n/a	n/a	n/a	n/a	n/a	n/a	17	8	4	5	n/a	n/a	n/a	n/a	n/a
1477.984	n/a	PROB	738992	n/a	LTP274	ltpFR	12	n/a	n/a	n/a	n/a	n/a	n/a	n/a	13	3	2	8	n/a	n/a	n/a	n/a	n/a
1479.156	n/a	PROB	739578	n/a	LTP274	ltpFR	12	n/a	n/a	n/a	n/a	n/a	n/a	n/a	17	9	6	2	n/a	n/a	n/a	n/a	n/a
1480.31	n/a	PROB	740155	n/a	LTP274	ltpFR	12	n/a	n/a	n/a	n/a	n/a	n/a	n/a	16	4	9	6	n/a	n/a	n/a	n/a	n/a
1481.698	n/a	PROB	740849	n/a	LTP274	ltpFR	12	n/a	n/a	n/a	n/a	n/a	n/a	n/a	9	1	5	3	n/a	n/a	n/a	n/a	n/a
1482.92	n/a	PROB	741460	n/a	LTP274	ltpFR	12	n/a	n/a	n/a	n/a	n/a	n/a	n/a	7	2	2	3	n/a	n/a	n/a	n/a	n/a
1486.61	n/a	STOP	743305	n/a	LTP274	ltpFR	12	n/a	n/a	n/a	n/a	n/a	n/a	n/a	n/a	n/a	n/a	n/a	n/a	n/a	n/a	n/a	n/a
1487.522	n/a	WORD	743761	wordpools/wasnorm_wordpool_less_exclusions.txt	LTP274	ltpFR	12	6	0	SANDWICH	1232	n/a	n/a	0	n/a	0	0	0	0.422607421875	0.5869140625	0	lower	amplitud.ttf
1490.534	n/a	START	745267	n/a	LTP274	ltpFR	12	n/a	n/a	n/a	n/a	n/a	n/a	n/a	n/a	n/a	n/a	n/a	n/a	n/a	n/a	n/a	n/a
1491.536	n/a	PROB	745768	n/a	LTP274	ltpFR	12	n/a	n/a	n/a	n/a	n/a	n/a	n/a	15	3	2	9	n/a	n/a	n/a	n/a	n/a
1492.556	n/a	PROB	746278	n/a	LTP274	ltpFR	12	n/a	n/a	n/a	n/a	n/a	n/a	n/a	19	9	4	6	n/a	n/a	n/a	n/a	n/a
1495.534	n/a	PROB	747767	n/a	LTP274	ltpFR	12	n/a	n/a	n/a	n/a	n/a	n/a	n/a	16	9	6	1	n/a	n/a	n/a	n/a	n/a
1497.192	n/a	PROB	748596	n/a	LTP274	ltpFR	12	n/a	n/a	n/a	n/a	n/a	n/a	n/a	22	8	9	5	n/a	n/a	n/a	n/a	n/a
1499.266	n/a	PROB	749633	n/a	LTP274	ltpFR	12	n/a	n/a	n/a	n/a	n/a	n/a	n/a	16	5	6	5	n/a	n/a	n/a	n/a	n/a
1500.304	n/a	PROB	750152	n/a	LTP274	ltpFR	12	n/a	n/a	n/a	n/a	n/a	n/a	n/a	13	3	6	4	n/a	n/a	n/a	n/a	n/a
1501.458	n/a	PROB	750729	n/a	LTP274	ltpFR	12	n/a	n/a	n/a	n/a	n/a	n/a	n/a	17	4	6	7	n/a	n/a	n/a	n/a	n/a
1502.646	n/a	PROB	751323	n/a	LTP274	ltpFR	12	n/a	n/a	n/a	n/a	n/a	n/a	n/a	11	6	3	2	n/a	n/a	n/a	n/a	n/a
1503.7	n/a	PROB	751850	n/a	LTP274	ltpFR	12	n/a	n/a	n/a	n/a	n/a	n/a	n/a	12	3	6	3	n/a	n/a	n/a	n/a	n/a
1505.1	n/a	STOP	752550	n/a	LTP274	ltpFR	12	n/a	n/a	n/a	n/a	n/a	n/a	n/a	n/a	n/a	n/a	n/a	n/a	n/a	n/a	n/a	n/a
1507.548	n/a	WORD	753774	wordpools/wasnorm_wordpool_less_exclusions.txt	LTP274	ltpFR	12	6	0	CAFETERIA	217	n/a	n/a	1	n/a	0	0	0	0.422607421875	0.5869140625	0	lower	amplitud.ttf
1510.56	n/a	START	755280	n/a	LTP274	ltpFR	12	n/a	n/a	n/a	n/a	n/a	n/a	n/a	n/a	n/a	n/a	n/a	n/a	n/a	n/a	n/a	n/a
1511.562	n/a	PROB	755781	n/a	LTP274	ltpFR	12	n/a	n/a	n/a	n/a	n/a	n/a	n/a	13	3	7	3	n/a	n/a	n/a	n/a	n/a
1512.918	n/a	PROB	756459	n/a	LTP274	ltpFR	12	n/a	n/a	n/a	n/a	n/a	n/a	n/a	13	1	3	9	n/a	n/a	n/a	n/a	n/a
1513.99	n/a	PROB	756995	n/a	LTP274	ltpFR	12	n/a	n/a	n/a	n/a	n/a	n/a	n/a	15	2	8	5	n/a	n/a	n/a	n/a	n/a
1515.176	n/a	PROB	757588	n/a	LTP274	ltpFR	12	n/a	n/a	n/a	n/a	n/a	n/a	n/a	11	1	6	4	n/a	n/a	n/a	n/a	n/a
1516.18	n/a	PROB	758090	n/a	LTP274	ltpFR	12	n/a	n/a	n/a	n/a	n/a	n/a	n/a	19	5	8	6	n/a	n/a	n/a	n/a	n/a
1517.502	n/a	PROB	758751	n/a	LTP274	ltpFR	12	n/a	n/a	n/a	n/a	n/a	n/a	n/a	18	5	4	9	n/a	n/a	n/a	n/a	n/a
1518.992	n/a	PROB	759496	n/a	LTP274	ltpFR	12	n/a	n/a	n/a	n/a	n/a	n/a	n/a	19	8	3	8	n/a	n/a	n/a	n/a	n/a
1520.464	n/a	PROB	760232	n/a	LTP274	ltpFR	12	n/a	n/a	n/a	n/a	n/a	n/a	n/a	16	8	5	3	n/a	n/a	n/a	n/a	n/a
1521.616	n/a	PROB	760808	n/a	LTP274	ltpFR	12	n/a	n/a	n/a	n/a	n/a	n/a	n/a	9	1	7	1	n/a	n/a	n/a	n/a	n/a
1522.654	n/a	PROB	761327	n/a	LTP274	ltpFR	12	n/a	n/a	n/a	n/a	n/a	n/a	n/a	16	8	3	8	n/a	n/a	n/a	n/a	n/a
1523.64	n/a	PROB	761820	n/a	LTP274	ltpFR	12	n/a	n/a	n/a	n/a	n/a	n/a	n/a	12	4	4	4	n/a	n/a	n/a	n/a	n/a
1524.962	n/a	PROB	762481	n/a	LTP274	ltpFR	12	n/a	n/a	n/a	n/a	n/a	n/a	n/a	13	6	3	4	n/a	n/a	n/a	n/a	n/a
1526.212	n/a	STOP	763106	n/a	LTP274	ltpFR	12	n/a	n/a	n/a	n/a	n/a	n/a	n/a	n/a	n/a	n/a	n/a	n/a	n/a	n/a	n/a	n/a
1527.574	n/a	WORD	763787	wordpools/wasnorm_wordpool_less_exclusions.txt	LTP274	ltpFR	12	6	0	MARINE	869	n/a	n/a	1	n/a	0	0	0	0.422607421875	0.5869140625	0	lower	amplitud.ttf
1530.586	n/a	START	765293	n/a	LTP274	ltpFR	12	n/a	n/a	n/a	n/a	n/a	n/a	n/a	n/a	n/a	n/a	n/a	n/a	n/a	n/a	n/a	n/a
1531.572	n/a	PROB	765786	n/a	LTP274	ltpFR	12	n/a	n/a	n/a	n/a	n/a	n/a	n/a	27	9	9	9	n/a	n/a	n/a	n/a	n/a
1532.896	n/a	PROB	766448	n/a	LTP274	ltpFR	12	n/a	n/a	n/a	n/a	n/a	n/a	n/a	13	5	2	6	n/a	n/a	n/a	n/a	n/a
1534.316	n/a	PROB	767158	n/a	LTP274	ltpFR	12	n/a	n/a	n/a	n/a	n/a	n/a	n/a	7	2	3	2	n/a	n/a	n/a	n/a	n/a
1535.372	n/a	PROB	767686	n/a	LTP274	ltpFR	12	n/a	n/a	n/a	n/a	n/a	n/a	n/a	6	4	1	1	n/a	n/a	n/a	n/a	n/a
1536.222	n/a	PROB	768111	n/a	LTP274	ltpFR	12	n/a	n/a	n/a	n/a	n/a	n/a	n/a	19	9	6	4	n/a	n/a	n/a	n/a	n/a
1537.344	n/a	PROB	768672	n/a	LTP274	ltpFR	12	n/a	n/a	n/a	n/a	n/a	n/a	n/a	12	7	3	2	n/a	n/a	n/a	n/a	n/a
1538.466	n/a	PROB	769233	n/a	LTP274	ltpFR	12	n/a	n/a	n/a	n/a	n/a	n/a	n/a	9	3	5	1	n/a	n/a	n/a	n/a	n/a
1539.47	n/a	PROB	769735	n/a	LTP274	ltpFR	12	n/a	n/a	n/a	n/a	n/a	n/a	n/a	13	2	9	2	n/a	n/a	n/a	n/a	n/a
1540.49	n/a	PROB	770245	n/a	LTP274	ltpFR	12	n/a	n/a	n/a	n/a	n/a	n/a	n/a	11	4	3	2	n/a	n/a	n/a	n/a	n/a
1541.66	n/a	PROB	770830	n/a	LTP274	ltpFR	12	n/a	n/a	n/a	n/a	n/a	n/a	n/a	19	5	8	6	n/a	n/a	n/a	n/a	n/a
1543.486	n/a	PROB	771743	n/a	LTP274	ltpFR	12	n/a	n/a	n/a	n/a	n/a	n/a	n/a	15	5	1	9	n/a	n/a	n/a	n/a	n/a
1544.804	n/a	PROB	772402	n/a	LTP274	ltpFR	12	n/a	n/a	n/a	n/a	n/a	n/a	n/a	12	3	5	4	n/a	n/a	n/a	n/a	n/a
1545.95	n/a	STOP	772975	n/a	LTP274	ltpFR	12	n/a	n/a	n/a	n/a	n/a	n/a	n/a	n/a	n/a	n/a	n/a	n/a	n/a	n/a	n/a	n/a
1547.8	n/a	WORD	773900	wordpools/wasnorm_wordpool_less_exclusions.txt	LTP274	ltpFR	12	6	0	RESORT	1186	n/a	n/a	1	n/a	0	0	0	0.422607421875	0.5869140625	0	lower	amplitud.ttf
1550.812	n/a	START	775406	n/a	LTP274	ltpFR	12	n/a	n/a	n/a	n/a	n/a	n/a	n/a	n/a	n/a	n/a	n/a	n/a	n/a	n/a	n/a	n/a
1551.934	n/a	PROB	775967	n/a	LTP274	ltpFR	12	n/a	n/a	n/a	n/a	n/a	n/a	n/a	11	6	3	2	n/a	n/a	n/a	n/a	n/a
1553.088	n/a	PROB	776544	n/a	LTP274	ltpFR	12	n/a	n/a	n/a	n/a	n/a	n/a	n/a	19	2	8	9	n/a	n/a	n/a	n/a	n/a
1554.292	n/a	PROB	777146	n/a	LTP274	ltpFR	12	n/a	n/a	n/a	n/a	n/a	n/a	n/a	10	3	5	2	n/a	n/a	n/a	n/a	n/a
1555.362	n/a	PROB	777681	n/a	LTP274	ltpFR	12	n/a	n/a	n/a	n/a	n/a	n/a	n/a	7	5	1	1	n/a	n/a	n/a	n/a	n/a
1556.252	n/a	PROB	778126	n/a	LTP274	ltpFR	12	n/a	n/a	n/a	n/a	n/a	n/a	n/a	16	4	7	5	n/a	n/a	n/a	n/a	n/a
1557.388	n/a	PROB	778694	n/a	LTP274	ltpFR	12	n/a	n/a	n/a	n/a	n/a	n/a	n/a	16	6	8	2	n/a	n/a	n/a	n/a	n/a
1558.41	n/a	PROB	779205	n/a	LTP274	ltpFR	12	n/a	n/a	n/a	n/a	n/a	n/a	n/a	12	1	9	2	n/a	n/a	n/a	n/a	n/a
1559.512	n/a	PROB	779756	n/a	LTP274	ltpFR	12	n/a	n/a	n/a	n/a	n/a	n/a	n/a	13	4	8	1	n/a	n/a	n/a	n/a	n/a
1560.45	n/a	PROB	780225	n/a	LTP274	ltpFR	12	n/a	n/a	n/a	n/a	n/a	n/a	n/a	10	3	2	5	n/a	n/a	n/a	n/a	n/a
1561.502	n/a	PROB	780751	n/a	LTP274	ltpFR	12	n/a	n/a	n/a	n/a	n/a	n/a	n/a	12	4	4	4	n/a	n/a	n/a	n/a	n/a
1562.672	n/a	PROB	781336	n/a	LTP274	ltpFR	12	n/a	n/a	n/a	n/a	n/a	n/a	n/a	16	1	7	8	n/a	n/a	n/a	n/a	n/a
1563.578	n/a	PROB	781789	n/a	LTP274	ltpFR	12	n/a	n/a	n/a	n/a	n/a	n/a	n/a	19	7	7	5	n/a	n/a	n/a	n/a	n/a
1564.68	n/a	PROB	782340	n/a	LTP274	ltpFR	12	n/a	n/a	n/a	n/a	n/a	n/a	n/a	16	7	3	6	n/a	n/a	n/a	n/a	n/a
1566.422	n/a	STOP	783211	n/a	LTP274	ltpFR	12	n/a	n/a	n/a	n/a	n/a	n/a	n/a	n/a	n/a	n/a	n/a	n/a	n/a	n/a	n/a	n/a
1567.726	n/a	WORD	783863	wordpools/wasnorm_wordpool_less_exclusions.txt	LTP274	ltpFR	12	6	0	LOFT	840	n/a	n/a	1	n/a	0	0	0	0.422607421875	0.5869140625	0	lower	amplitud.ttf
1570.74	n/a	START	785370	n/a	LTP274	ltpFR	12	n/a	n/a	n/a	n/a	n/a	n/a	n/a	n/a	n/a	n/a	n/a	n/a	n/a	n/a	n/a	n/a
1571.66	n/a	PROB	785830	n/a	LTP274	ltpFR	12	n/a	n/a	n/a	n/a	n/a	n/a	n/a	9	5	1	3	n/a	n/a	n/a	n/a	n/a
1573.082	n/a	PROB	786541	n/a	LTP274	ltpFR	12	n/a	n/a	n/a	n/a	n/a	n/a	n/a	15	6	6	3	n/a	n/a	n/a	n/a	n/a
1574.052	n/a	PROB	787026	n/a	LTP274	ltpFR	12	n/a	n/a	n/a	n/a	n/a	n/a	n/a	16	3	8	5	n/a	n/a	n/a	n/a	n/a
1575.006	n/a	PROB	787503	n/a	LTP274	ltpFR	12	n/a	n/a	n/a	n/a	n/a	n/a	n/a	19	9	4	6	n/a	n/a	n/a	n/a	n/a
1576.546	n/a	PROB	788273	n/a	LTP274	ltpFR	12	n/a	n/a	n/a	n/a	n/a	n/a	n/a	17	6	4	7	n/a	n/a	n/a	n/a	n/a
1577.898	n/a	PROB	788949	n/a	LTP274	ltpFR	12	n/a	n/a	n/a	n/a	n/a	n/a	n/a	10	7	1	2	n/a	n/a	n/a	n/a	n/a
1578.92	n/a	PROB	789460	n/a	LTP274	ltpFR	12	n/a	n/a	n/a	n/a	n/a	n/a	n/a	12	1	8	3	n/a	n/a	n/a	n/a	n/a
1580.074	n/a	PROB	790037	n/a	LTP274	ltpFR	12	n/a	n/a	n/a	n/a	n/a	n/a	n/a	19	9	5	5	n/a	n/a	n/a	n/a	n/a
1581.196	n/a	PROB	790598	n/a	LTP274	ltpFR	12	n/a	n/a	n/a	n/a	n/a	n/a	n/a	13	5	7	1	n/a	n/a	n/a	n/a	n/a
1582.082	n/a	PROB	791041	n/a	LTP274	ltpFR	12	n/a	n/a	n/a	n/a	n/a	n/a	n/a	16	5	6	5	n/a	n/a	n/a	n/a	n/a
1582.986	n/a	PROB	791493	n/a	LTP274	ltpFR	12	n/a	n/a	n/a	n/a	n/a	n/a	n/a	9	5	3	1	n/a	n/a	n/a	n/a	n/a
1583.988	n/a	PROB	791994	n/a	LTP274	ltpFR	12	n/a	n/a	n/a	n/a	n/a	n/a	n/a	14	5	5	4	n/a	n/a	n/a	n/a	n/a
1584.976	n/a	PROB	792488	n/a	LTP274	ltpFR	12	n/a	n/a	n/a	n/a	n/a	n/a	n/a	16	7	4	5	n/a	n/a	n/a	n/a	n/a
1586.192	n/a	STOP	793096	n/a	LTP274	ltpFR	12	n/a	n/a	n/a	n/a	n/a	n/a	n/a	n/a	n/a	n/a	n/a	n/a	n/a	n/a	n/a	n/a
1587.62	n/a	WORD	793810	wordpools/wasnorm_wordpool_less_exclusions.txt	LTP274	ltpFR	12	6	1	TUBE	1516	n/a	n/a	0	n/a	0	0	0	0.57763671875	0.412841796875	1	upper	zerothre.ttf
1590.632	n/a	START	795316	n/a	LTP274	ltpFR	12	n/a	n/a	n/a	n/a	n/a	n/a	n/a	n/a	n/a	n/a	n/a	n/a	n/a	n/a	n/a	n/a
1591.686	n/a	PROB	795843	n/a	LTP274	ltpFR	12	n/a	n/a	n/a	n/a	n/a	n/a	n/a	7	2	3	2	n/a	n/a	n/a	n/a	n/a
1593.224	n/a	PROB	796612	n/a	LTP274	ltpFR	12	n/a	n/a	n/a	n/a	n/a	n/a	n/a	19	9	8	2	n/a	n/a	n/a	n/a	n/a
1594.528	n/a	PROB	797264	n/a	LTP274	ltpFR	12	n/a	n/a	n/a	n/a	n/a	n/a	n/a	12	5	4	3	n/a	n/a	n/a	n/a	n/a
1596.554	n/a	PROB	798277	n/a	LTP274	ltpFR	12	n/a	n/a	n/a	n/a	n/a	n/a	n/a	10	3	1	6	n/a	n/a	n/a	n/a	n/a
1597.976	n/a	PROB	798988	n/a	LTP274	ltpFR	12	n/a	n/a	n/a	n/a	n/a	n/a	n/a	18	9	4	5	n/a	n/a	n/a	n/a	n/a
1599.648	n/a	PROB	799824	n/a	LTP274	ltpFR	12	n/a	n/a	n/a	n/a	n/a	n/a	n/a	9	6	1	2	n/a	n/a	n/a	n/a	n/a
1600.82	n/a	PROB	800410	n/a	LTP274	ltpFR	12	n/a	n/a	n/a	n/a	n/a	n/a	n/a	18	8	9	1	n/a	n/a	n/a	n/a	n/a
1601.84	n/a	PROB	800920	n/a	LTP274	ltpFR	12	n/a	n/a	n/a	n/a	n/a	n/a	n/a	17	5	8	4	n/a	n/a	n/a	n/a	n/a
1603.128	n/a	PROB	801564	n/a	LTP274	ltpFR	12	n/a	n/a	n/a	n/a	n/a	n/a	n/a	11	6	2	3	n/a	n/a	n/a	n/a	n/a
1604.634	n/a	PROB	802317	n/a	LTP274	ltpFR	12	n/a	n/a	n/a	n/a	n/a	n/a	n/a	12	3	6	3	n/a	n/a	n/a	n/a	n/a
1605.96	n/a	STOP	802980	n/a	LTP274	ltpFR	12	n/a	n/a	n/a	n/a	n/a	n/a	n/a	n/a	n/a	n/a	n/a	n/a	n/a	n/a	n/a	n/a
1607.612	n/a	WORD	803806	wordpools/wasnorm_wordpool_less_exclusions.txt	LTP274	ltpFR	12	6	1	BLOUSE	139	n/a	n/a	0	n/a	0	0	0	0.57763671875	0.412841796875	1	upper	zerothre.ttf
1610.626	n/a	START	805313	n/a	LTP274	ltpFR	12	n/a	n/a	n/a	n/a	n/a	n/a	n/a	n/a	n/a	n/a	n/a	n/a	n/a	n/a	n/a	n/a
1611.712	n/a	PROB	805856	n/a	LTP274	ltpFR	12	n/a	n/a	n/a	n/a	n/a	n/a	n/a	20	9	5	6	n/a	n/a	n/a	n/a	n/a
1614.606	n/a	PROB	807303	n/a	LTP274	ltpFR	12	n/a	n/a	n/a	n/a	n/a	n/a	n/a	1	2	6	4	n/a	n/a	n/a	n/a	n/a
1616.514	n/a	PROB	808257	n/a	LTP274	ltpFR	12	n/a	n/a	n/a	n/a	n/a	n/a	n/a	9	2	2	5	n/a	n/a	n/a	n/a	n/a
1618.204	n/a	PROB	809102	n/a	LTP274	ltpFR	12	n/a	n/a	n/a	n/a	n/a	n/a	n/a	11	3	7	1	n/a	n/a	n/a	n/a	n/a
1619.192	n/a	PROB	809596	n/a	LTP274	ltpFR	12	n/a	n/a	n/a	n/a	n/a	n/a	n/a	18	7	5	6	n/a	n/a	n/a	n/a	n/a
1620.83	n/a	PROB	810415	n/a	LTP274	ltpFR	12	n/a	n/a	n/a	n/a	n/a	n/a	n/a	18	5	7	6	n/a	n/a	n/a	n/a	n/a
1622.034	n/a	PROB	811017	n/a	LTP274	ltpFR	12	n/a	n/a	n/a	n/a	n/a	n/a	n/a	22	8	8	6	n/a	n/a	n/a	n/a	n/a
1623.222	n/a	PROB	811611	n/a	LTP274	ltpFR	12	n/a	n/a	n/a	n/a	n/a	n/a	n/a	11	4	6	1	n/a	n/a	n/a	n/a	n/a
1624.158	n/a	PROB	812079	n/a	LTP274	ltpFR	12	n/a	n/a	n/a	n/a	n/a	n/a	n/a	21	9	8	4	n/a	n/a	n/a	n/a	n/a
1625.338	n/a	STOP	812669	n/a	LTP274	ltpFR	12	n/a	n/a	n/a	n/a	n/a	n/a	n/a	n/a	n/a	n/a	n/a	n/a	n/a	n/a	n/a	n/a
1627.69	n/a	WORD	813845	wordpools/wasnorm_wordpool_less_exclusions.txt	LTP274	ltpFR	12	6	1	CONSOLE	364	n/a	n/a	0	n/a	0	0	0	0.57763671875	0.412841796875	1	upper	zerothre.ttf
1630.702	n/a	START	815351	n/a	LTP274	ltpFR	12	n/a	n/a	n/a	n/a	n/a	n/a	n/a	n/a	n/a	n/a	n/a	n/a	n/a	n/a	n/a	n/a
1631.588	n/a	PROB	815794	n/a	LTP274	ltpFR	12	n/a	n/a	n/a	n/a	n/a	n/a	n/a	16	3	6	7	n/a	n/a	n/a	n/a	n/a
1632.792	n/a	PROB	816396	n/a	LTP274	ltpFR	12	n/a	n/a	n/a	n/a	n/a	n/a	n/a	20	6	7	7	n/a	n/a	n/a	n/a	n/a
1634.25	n/a	PROB	817125	n/a	LTP274	ltpFR	12	n/a	n/a	n/a	n/a	n/a	n/a	n/a	19	1	9	9	n/a	n/a	n/a	n/a	n/a
1635.352	n/a	PROB	817676	n/a	LTP274	ltpFR	12	n/a	n/a	n/a	n/a	n/a	n/a	n/a	18	7	9	2	n/a	n/a	n/a	n/a	n/a
1636.456	n/a	PROB	818228	n/a	LTP274	ltpFR	12	n/a	n/a	n/a	n/a	n/a	n/a	n/a	20	3	9	8	n/a	n/a	n/a	n/a	n/a
1637.712	n/a	PROB	818856	n/a	LTP274	ltpFR	12	n/a	n/a	n/a	n/a	n/a	n/a	n/a	20	5	7	8	n/a	n/a	n/a	n/a	n/a
1639.716	n/a	PROB	819858	n/a	LTP274	ltpFR	12	n/a	n/a	n/a	n/a	n/a	n/a	n/a	18	4	9	5	n/a	n/a	n/a	n/a	n/a
1641.324	n/a	PROB	820662	n/a	LTP274	ltpFR	12	n/a	n/a	n/a	n/a	n/a	n/a	n/a	14	7	4	3	n/a	n/a	n/a	n/a	n/a
1642.898	n/a	PROB	821449	n/a	LTP274	ltpFR	12	n/a	n/a	n/a	n/a	n/a	n/a	n/a	12	2	8	2	n/a	n/a	n/a	n/a	n/a
1643.85	n/a	PROB	821925	n/a	LTP274	ltpFR	12	n/a	n/a	n/a	n/a	n/a	n/a	n/a	15	4	9	2	n/a	n/a	n/a	n/a	n/a
1645.378	n/a	STOP	822689	n/a	LTP274	ltpFR	12	n/a	n/a	n/a	n/a	n/a	n/a	n/a	n/a	n/a	n/a	n/a	n/a	n/a	n/a	n/a	n/a
1647.766	n/a	WORD	823883	wordpools/wasnorm_wordpool_less_exclusions.txt	LTP274	ltpFR	12	6	1	LIBRARY	816	n/a	n/a	0	n/a	0	0	0	0.57763671875	0.412841796875	1	upper	zerothre.ttf
1650.778	n/a	START	825389	n/a	LTP274	ltpFR	12	n/a	n/a	n/a	n/a	n/a	n/a	n/a	n/a	n/a	n/a	n/a	n/a	n/a	n/a	n/a	n/a
1651.782	n/a	PROB	825891	n/a	LTP274	ltpFR	12	n/a	n/a	n/a	n/a	n/a	n/a	n/a	15	8	5	2	n/a	n/a	n/a	n/a	n/a
1652.988	n/a	PROB	826494	n/a	LTP274	ltpFR	12	n/a	n/a	n/a	n/a	n/a	n/a	n/a	14	7	5	2	n/a	n/a	n/a	n/a	n/a
1654.324	n/a	PROB	827162	n/a	LTP274	ltpFR	12	n/a	n/a	n/a	n/a	n/a	n/a	n/a	11	7	2	2	n/a	n/a	n/a	n/a	n/a
1655.628	n/a	PROB	827814	n/a	LTP274	ltpFR	12	n/a	n/a	n/a	n/a	n/a	n/a	n/a	15	5	2	8	n/a	n/a	n/a	n/a	n/a
1657.354	n/a	PROB	828677	n/a	LTP274	ltpFR	12	n/a	n/a	n/a	n/a	n/a	n/a	n/a	21	6	6	9	n/a	n/a	n/a	n/a	n/a
1658.672	n/a	PROB	829336	n/a	LTP274	ltpFR	12	n/a	n/a	n/a	n/a	n/a	n/a	n/a	12	2	6	4	n/a	n/a	n/a	n/a	n/a
1660.198	n/a	PROB	830099	n/a	LTP274	ltpFR	12	n/a	n/a	n/a	n/a	n/a	n/a	n/a	4	1	1	2	n/a	n/a	n/a	n/a	n/a
1661.082	n/a	PROB	830541	n/a	LTP274	ltpFR	12	n/a	n/a	n/a	n/a	n/a	n/a	n/a	18	7	3	8	n/a	n/a	n/a	n/a	n/a
1662.238	n/a	PROB	831119	n/a	LTP274	ltpFR	12	n/a	n/a	n/a	n/a	n/a	n/a	n/a	14	2	3	9	n/a	n/a	n/a	n/a	n/a
1663.576	n/a	PROB	831788	n/a	LTP274	ltpFR	12	n/a	n/a	n/a	n/a	n/a	n/a	n/a	11	1	5	5	n/a	n/a	n/a	n/a	n/a
1664.53	n/a	PROB	832265	n/a	LTP274	ltpFR	12	n/a	n/a	n/a	n/a	n/a	n/a	n/a	15	5	8	2	n/a	n/a	n/a	n/a	n/a
1665.524	n/a	STOP	832762	n/a	LTP274	ltpFR	12	n/a	n/a	n/a	n/a	n/a	n/a	n/a	n/a	n/a	n/a	n/a	n/a	n/a	n/a	n/a	n/a
1668.646	n/a	REC_START	834323	n/a	LTP274	ltpFR	12	6	n/a	n/a	n/a	n/a	n/a	n/a	n/a	0	0	0	n/a	n/a	n/a	n/a	n/a
1672.142	n/a	REC_WORD	836071	wordpools/wasnorm_wordpool_less_exclusions.txt	LTP274	ltpFR	12	6	1	LIBRARY	816	n/a	n/a	0	n/a	0	0	0	n/a	n/a	n/a	n/a	n/a
1680.59	n/a	REC_WORD	840295	wordpools/wasnorm_wordpool_less_exclusions.txt	LTP274	ltpFR	12	6	1	TUBE	1516	n/a	n/a	0	n/a	0	0	0	n/a	n/a	n/a	n/a	n/a
1744.304	n/a	REST_REWET	872152	n/a	LTP274	ltpFR	12	6	n/a	n/a	n/a	n/a	n/a	n/a	n/a	0	0	0	n/a	n/a	n/a	n/a	n/a
2030.73	n/a	WORD	1015365	wordpools/wasnorm_wordpool_less_exclusions.txt	LTP274	ltpFR	12	7	1	HONEY	713	n/a	n/a	0	n/a	0	0	0	0.57763671875	0.412841796875	1	upper	zerothre.ttf
2034.712	n/a	WORD	1017356	wordpools/wasnorm_wordpool_less_exclusions.txt	LTP274	ltpFR	12	7	1	PARTY	1018	n/a	n/a	0	n/a	0	0	0	0.57763671875	0.412841796875	1	upper	zerothre.ttf
2038.928	n/a	WORD	1019464	wordpools/wasnorm_wordpool_less_exclusions.txt	LTP274	ltpFR	12	7	1	ANIMAL	23	n/a	n/a	0	n/a	0	0	0	0.57763671875	0.412841796875	1	upper	zerothre.ttf
2042.776	n/a	WORD	1021388	wordpools/wasnorm_wordpool_less_exclusions.txt	LTP274	ltpFR	12	7	1	WITCH	1617	n/a	n/a	1	n/a	0	0	0	0.57763671875	0.412841796875	1	upper	zerothre.ttf
2046.606	n/a	WORD	1023303	wordpools/wasnorm_wordpool_less_exclusions.txt	LTP274	ltpFR	12	7	0	DIAPER	459	n/a	n/a	0	n/a	0	0	0	0.422607421875	0.5869140625	0	lower	amplitud.ttf
2050.622	n/a	WORD	1025311	wordpools/wasnorm_wordpool_less_exclusions.txt	LTP274	ltpFR	12	7	0	ISLAND	745	n/a	n/a	1	n/a	0	0	0	0.422607421875	0.5869140625	0	lower	amplitud.ttf
2054.654	n/a	WORD	1027327	wordpools/wasnorm_wordpool_less_exclusions.txt	LTP274	ltpFR	12	7	0	MAGICIAN	854	n/a	n/a	1	n/a	0	0	0	0.422607421875	0.5869140625	0	lower	amplitud.ttf
2058.836	n/a	WORD	1029418	wordpools/wasnorm_wordpool_less_exclusions.txt	LTP274	ltpFR	12	7	0	BABY	64	n/a	n/a	0	n/a	0	0	0	0.422607421875	0.5869140625	0	lower	amplitud.ttf
2062.82	n/a	WORD	1031410	wordpools/wasnorm_wordpool_less_exclusions.txt	LTP274	ltpFR	12	7	1	TELESCOPE	1446	n/a	n/a	0	n/a	0	0	0	0.57763671875	0.412841796875	1	upper	zerothre.ttf
2066.936	n/a	WORD	1033468	wordpools/wasnorm_wordpool_less_exclusions.txt	LTP274	ltpFR	12	7	1	FROG	608	n/a	n/a	1	n/a	0	0	0	0.57763671875	0.412841796875	1	upper	zerothre.ttf
2071.068	n/a	WORD	1035534	wordpools/wasnorm_wordpool_less_exclusions.txt	LTP274	ltpFR	12	7	1	WAVE	1596	n/a	n/a	0	n/a	0	0	0	0.57763671875	0.412841796875	1	upper	zerothre.ttf
2075.1	n/a	WORD	1037550	wordpools/wasnorm_wordpool_less_exclusions.txt	LTP274	ltpFR	12	7	1	LAKE	796	n/a	n/a	0	n/a	0	0	0	0.57763671875	0.412841796875	1	upper	zerothre.ttf
2079.216	n/a	WORD	1039608	wordpools/wasnorm_wordpool_less_exclusions.txt	LTP274	ltpFR	12	7	0	GRASSHOPPER	656	n/a	n/a	0	n/a	0	0	0	0.422607421875	0.5869140625	0	lower	amplitud.ttf
2083.232	n/a	WORD	1041616	wordpools/wasnorm_wordpool_less_exclusions.txt	LTP274	ltpFR	12	7	0	CANAL	226	n/a	n/a	1	n/a	0	0	0	0.422607421875	0.5869140625	0	lower	amplitud.ttf
2087.196	n/a	WORD	1043598	wordpools/wasnorm_wordpool_less_exclusions.txt	LTP274	ltpFR	12	7	0	DAM	436	n/a	n/a	1	n/a	0	0	0	0.422607421875	0.5869140625	0	lower	amplitud.ttf
2091.094	n/a	WORD	1045547	wordpools/wasnorm_wordpool_less_exclusions.txt	LTP274	ltpFR	12	7	0	VINEGAR	1569	n/a	n/a	0	n/a	0	0	0	0.422607421875	0.5869140625	0	lower	amplitud.ttf
2094.106	n/a	START	1047053	n/a	LTP274	ltpFR	12	n/a	n/a	n/a	n/a	n/a	n/a	n/a	n/a	n/a	n/a	n/a	n/a	n/a	n/a	n/a	n/a
2095.278	n/a	PROB	1047639	n/a	LTP274	ltpFR	12	n/a	n/a	n/a	n/a	n/a	n/a	n/a	16	9	5	2	n/a	n/a	n/a	n/a	n/a
2097.202	n/a	PROB	1048601	n/a	LTP274	ltpFR	12	n/a	n/a	n/a	n/a	n/a	n/a	n/a	16	4	5	7	n/a	n/a	n/a	n/a	n/a
2098.606	n/a	PROB	1049303	n/a	LTP274	ltpFR	12	n/a	n/a	n/a	n/a	n/a	n/a	n/a	13	4	8	1	n/a	n/a	n/a	n/a	n/a
2099.626	n/a	PROB	1049813	n/a	LTP274	ltpFR	12	n/a	n/a	n/a	n/a	n/a	n/a	n/a	20	2	9	9	n/a	n/a	n/a	n/a	n/a
2100.706	n/a	STOP	1050353	n/a	LTP274	ltpFR	12	n/a	n/a	n/a	n/a	n/a	n/a	n/a	n/a	n/a	n/a	n/a	n/a	n/a	n/a	n/a	n/a
2103.912	n/a	REC_START	1051956	n/a	LTP274	ltpFR	12	7	n/a	n/a	n/a	n/a	n/a	n/a	n/a	0	0	0	n/a	n/a	n/a	n/a	n/a
2106.304	n/a	REC_WORD	1053152	wordpools/wasnorm_wordpool_less_exclusions.txt	LTP274	ltpFR	12	7	0	VINEGAR	1569	n/a	n/a	0	n/a	0	0	0	n/a	n/a	n/a	n/a	n/a
2109.07	n/a	REC_WORD	1054535	wordpools/wasnorm_wordpool_less_exclusions.txt	LTP274	ltpFR	12	7	1	FROG	608	n/a	n/a	1	n/a	0	0	0	n/a	n/a	n/a	n/a	n/a
2109.846	n/a	REC_WORD	1054923	wordpools/wasnorm_wordpool_less_exclusions.txt	LTP274	ltpFR	12	7	0	GRASSHOPPER	656	n/a	n/a	0	n/a	0	0	0	n/a	n/a	n/a	n/a	n/a
2110.8	n/a	REC_WORD	1055400	wordpools/wasnorm_wordpool_less_exclusions.txt	LTP274	ltpFR	12	7	1	PARTY	1018	n/a	n/a	0	n/a	0	0	0	n/a	n/a	n/a	n/a	n/a
2111.52	n/a	REC_WORD	1055760	wordpools/wasnorm_wordpool_less_exclusions.txt	LTP274	ltpFR	12	7	1	ANIMAL	23	n/a	n/a	0	n/a	0	0	0	n/a	n/a	n/a	n/a	n/a
2112.106	n/a	REC_WORD	1056053	wordpools/wasnorm_wordpool_less_exclusions.txt	LTP274	ltpFR	12	7	0	ISLAND	745	n/a	n/a	1	n/a	0	0	0	n/a	n/a	n/a	n/a	n/a
2113.268	n/a	REC_WORD	1056634	wordpools/wasnorm_wordpool_less_exclusions.txt	LTP274	ltpFR	12	7	0	MAGICIAN	854	n/a	n/a	1	n/a	0	0	0	n/a	n/a	n/a	n/a	n/a
2113.994	n/a	REC_WORD	1056997	wordpools/wasnorm_wordpool_less_exclusions.txt	LTP274	ltpFR	12	7	1	WITCH	1617	n/a	n/a	1	n/a	0	0	0	n/a	n/a	n/a	n/a	n/a
2115.71	n/a	REC_WORD	1057855	wordpools/wasnorm_wordpool_less_exclusions.txt	LTP274	ltpFR	12	7	1	HONEY	713	n/a	n/a	0	n/a	0	0	0	n/a	n/a	n/a	n/a	n/a
2116.414	n/a	REC_WORD	1058207	wordpools/wasnorm_wordpool_less_exclusions.txt	LTP274	ltpFR	12	7	0	BABY	64	n/a	n/a	0	n/a	0	0	0	n/a	n/a	n/a	n/a	n/a
2116.938	n/a	REC_WORD	1058469	wordpools/wasnorm_wordpool_less_exclusions.txt	LTP274	ltpFR	12	7	1	TELESCOPE	1446	n/a	n/a	0	n/a	0	0	0	n/a	n/a	n/a	n/a	n/a
2129.708	n/a	REC_WORD	1064854	wordpools/wasnorm_wordpool_less_exclusions.txt	LTP274	ltpFR	12	7	1	LAKE	796	n/a	n/a	0	n/a	0	0	0	n/a	n/a	n/a	n/a	n/a
2132.452	n/a	REC_WORD	1066226	wordpools/wasnorm_wordpool_less_exclusions.txt	LTP274	ltpFR	12	7	0	DAM	436	n/a	n/a	1	n/a	0	0	0	n/a	n/a	n/a	n/a	n/a
2132.832	n/a	REC_WORD	1066416	wordpools/wasnorm_wordpool_less_exclusions.txt	LTP274	ltpFR	12	7	0	CANAL	226	n/a	n/a	1	n/a	0	0	0	n/a	n/a	n/a	n/a	n/a
2188.348	n/a	START	1094174	n/a	LTP274	ltpFR	12	n/a	n/a	n/a	n/a	n/a	n/a	n/a	n/a	n/a	n/a	n/a	n/a	n/a	n/a	n/a	n/a
2189.854	n/a	PROB	1094927	n/a	LTP274	ltpFR	12	n/a	n/a	n/a	n/a	n/a	n/a	n/a	18	5	6	7	n/a	n/a	n/a	n/a	n/a
2191.596	n/a	PROB	1095798	n/a	LTP274	ltpFR	12	n/a	n/a	n/a	n/a	n/a	n/a	n/a	15	8	6	1	n/a	n/a	n/a	n/a	n/a
2192.53	n/a	PROB	1096265	n/a	LTP274	ltpFR	12	n/a	n/a	n/a	n/a	n/a	n/a	n/a	12	3	5	4	n/a	n/a	n/a	n/a	n/a
2193.686	n/a	PROB	1096843	n/a	LTP274	ltpFR	12	n/a	n/a	n/a	n/a	n/a	n/a	n/a	17	8	5	4	n/a	n/a	n/a	n/a	n/a
2195.41	n/a	PROB	1097705	n/a	LTP274	ltpFR	12	n/a	n/a	n/a	n/a	n/a	n/a	n/a	10	3	6	1	n/a	n/a	n/a	n/a	n/a
2196.432	n/a	PROB	1098216	n/a	LTP274	ltpFR	12	n/a	n/a	n/a	n/a	n/a	n/a	n/a	10	5	1	4	n/a	n/a	n/a	n/a	n/a
2197.434	n/a	PROB	1098717	n/a	LTP274	ltpFR	12	n/a	n/a	n/a	n/a	n/a	n/a	n/a	13	5	1	7	n/a	n/a	n/a	n/a	n/a
2198.506	n/a	PROB	1099253	n/a	LTP274	ltpFR	12	n/a	n/a	n/a	n/a	n/a	n/a	n/a	19	4	9	6	n/a	n/a	n/a	n/a	n/a
2199.776	n/a	PROB	1099888	n/a	LTP274	ltpFR	12	n/a	n/a	n/a	n/a	n/a	n/a	n/a	15	8	3	4	n/a	n/a	n/a	n/a	n/a
2201.264	n/a	PROB	1100632	n/a	LTP274	ltpFR	12	n/a	n/a	n/a	n/a	n/a	n/a	n/a	19	4	8	7	n/a	n/a	n/a	n/a	n/a
2204.35	n/a	STOP	1102175	n/a	LTP274	ltpFR	12	n/a	n/a	n/a	n/a	n/a	n/a	n/a	n/a	n/a	n/a	n/a	n/a	n/a	n/a	n/a	n/a
2205.432	n/a	WORD	1102716	wordpools/wasnorm_wordpool_less_exclusions.txt	LTP274	ltpFR	12	8	1	DISHWASHER	475	n/a	n/a	0	n/a	0	0	0	0.57763671875	0.412841796875	1	upper	zerothre.ttf
2208.444	n/a	START	1104222	n/a	LTP274	ltpFR	12	n/a	n/a	n/a	n/a	n/a	n/a	n/a	n/a	n/a	n/a	n/a	n/a	n/a	n/a	n/a	n/a
2209.396	n/a	PROB	1104698	n/a	LTP274	ltpFR	12	n/a	n/a	n/a	n/a	n/a	n/a	n/a	19	6	5	8	n/a	n/a	n/a	n/a	n/a
2211.134	n/a	PROB	1105567	n/a	LTP274	ltpFR	12	n/a	n/a	n/a	n/a	n/a	n/a	n/a	18	8	4	6	n/a	n/a	n/a	n/a	n/a
2212.724	n/a	PROB	1106362	n/a	LTP274	ltpFR	12	n/a	n/a	n/a	n/a	n/a	n/a	n/a	13	4	6	3	n/a	n/a	n/a	n/a	n/a
2213.712	n/a	PROB	1106856	n/a	LTP274	ltpFR	12	n/a	n/a	n/a	n/a	n/a	n/a	n/a	18	3	6	9	n/a	n/a	n/a	n/a	n/a
2215.202	n/a	PROB	1107601	n/a	LTP274	ltpFR	12	n/a	n/a	n/a	n/a	n/a	n/a	n/a	18	7	3	8	n/a	n/a	n/a	n/a	n/a
2216.658	n/a	PROB	1108329	n/a	LTP274	ltpFR	12	n/a	n/a	n/a	n/a	n/a	n/a	n/a	9	5	3	1	n/a	n/a	n/a	n/a	n/a
2218.028	n/a	PROB	1109014	n/a	LTP274	ltpFR	12	n/a	n/a	n/a	n/a	n/a	n/a	n/a	18	8	7	3	n/a	n/a	n/a	n/a	n/a
2218.95	n/a	PROB	1109475	n/a	LTP274	ltpFR	12	n/a	n/a	n/a	n/a	n/a	n/a	n/a	14	1	6	7	n/a	n/a	n/a	n/a	n/a
2220.088	n/a	PROB	1110044	n/a	LTP274	ltpFR	12	n/a	n/a	n/a	n/a	n/a	n/a	n/a	10	1	5	4	n/a	n/a	n/a	n/a	n/a
2221.158	n/a	PROB	1110579	n/a	LTP274	ltpFR	12	n/a	n/a	n/a	n/a	n/a	n/a	n/a	8	2	3	3	n/a	n/a	n/a	n/a	n/a
2222.044	n/a	PROB	1111022	n/a	LTP274	ltpFR	12	n/a	n/a	n/a	n/a	n/a	n/a	n/a	19	3	9	7	n/a	n/a	n/a	n/a	n/a
2223.426	n/a	STOP	1111713	n/a	LTP274	ltpFR	12	n/a	n/a	n/a	n/a	n/a	n/a	n/a	n/a	n/a	n/a	n/a	n/a	n/a	n/a	n/a	n/a
2225.592	n/a	WORD	1112796	wordpools/wasnorm_wordpool_less_exclusions.txt	LTP274	ltpFR	12	8	1	FORK	594	n/a	n/a	0	n/a	0	0	0	0.57763671875	0.412841796875	1	upper	zerothre.ttf
2228.604	n/a	START	1114302	n/a	LTP274	ltpFR	12	n/a	n/a	n/a	n/a	n/a	n/a	n/a	n/a	n/a	n/a	n/a	n/a	n/a	n/a	n/a	n/a
2229.574	n/a	PROB	1114787	n/a	LTP274	ltpFR	12	n/a	n/a	n/a	n/a	n/a	n/a	n/a	5	1	2	2	n/a	n/a	n/a	n/a	n/a
2230.494	n/a	PROB	1115247	n/a	LTP274	ltpFR	12	n/a	n/a	n/a	n/a	n/a	n/a	n/a	14	9	1	4	n/a	n/a	n/a	n/a	n/a
2231.932	n/a	PROB	1115966	n/a	LTP274	ltpFR	12	n/a	n/a	n/a	n/a	n/a	n/a	n/a	8	3	4	1	n/a	n/a	n/a	n/a	n/a
2232.92	n/a	PROB	1116460	n/a	LTP274	ltpFR	12	n/a	n/a	n/a	n/a	n/a	n/a	n/a	16	4	4	8	n/a	n/a	n/a	n/a	n/a
2234.31	n/a	PROB	1117155	n/a	LTP274	ltpFR	12	n/a	n/a	n/a	n/a	n/a	n/a	n/a	22	9	4	9	n/a	n/a	n/a	n/a	n/a
2235.464	n/a	PROB	1117732	n/a	LTP274	ltpFR	12	n/a	n/a	n/a	n/a	n/a	n/a	n/a	11	2	4	7	n/a	n/a	n/a	n/a	n/a
2236.55	n/a	PROB	1118275	n/a	LTP274	ltpFR	12	n/a	n/a	n/a	n/a	n/a	n/a	n/a	20	5	8	7	n/a	n/a	n/a	n/a	n/a
2238.576	n/a	PROB	1119288	n/a	LTP274	ltpFR	12	n/a	n/a	n/a	n/a	n/a	n/a	n/a	18	9	1	8	n/a	n/a	n/a	n/a	n/a
2239.56	n/a	PROB	1119780	n/a	LTP274	ltpFR	12	n/a	n/a	n/a	n/a	n/a	n/a	n/a	8	4	1	3	n/a	n/a	n/a	n/a	n/a
2240.414	n/a	PROB	1120207	n/a	LTP274	ltpFR	12	n/a	n/a	n/a	n/a	n/a	n/a	n/a	15	4	9	2	n/a	n/a	n/a	n/a	n/a
2241.436	n/a	PROB	1120718	n/a	LTP274	ltpFR	12	n/a	n/a	n/a	n/a	n/a	n/a	n/a	18	8	9	1	n/a	n/a	n/a	n/a	n/a
2244.604	n/a	STOP	1122302	n/a	LTP274	ltpFR	12	n/a	n/a	n/a	n/a	n/a	n/a	n/a	n/a	n/a	n/a	n/a	n/a	n/a	n/a	n/a	n/a
2245.634	n/a	WORD	1122817	wordpools/wasnorm_wordpool_less_exclusions.txt	LTP274	ltpFR	12	8	1	CAB	209	n/a	n/a	0	n/a	0	0	0	0.57763671875	0.412841796875	1	upper	zerothre.ttf
2248.646	n/a	START	1124323	n/a	LTP274	ltpFR	12	n/a	n/a	n/a	n/a	n/a	n/a	n/a	n/a	n/a	n/a	n/a	n/a	n/a	n/a	n/a	n/a
2249.584	n/a	PROB	1124792	n/a	LTP274	ltpFR	12	n/a	n/a	n/a	n/a	n/a	n/a	n/a	13	1	4	8	n/a	n/a	n/a	n/a	n/a
2250.536	n/a	PROB	1125268	n/a	LTP274	ltpFR	12	n/a	n/a	n/a	n/a	n/a	n/a	n/a	20	9	8	3	n/a	n/a	n/a	n/a	n/a
2251.674	n/a	PROB	1125837	n/a	LTP274	ltpFR	12	n/a	n/a	n/a	n/a	n/a	n/a	n/a	18	8	3	7	n/a	n/a	n/a	n/a	n/a
2252.998	n/a	PROB	1126499	n/a	LTP274	ltpFR	12	n/a	n/a	n/a	n/a	n/a	n/a	n/a	19	5	6	8	n/a	n/a	n/a	n/a	n/a
2255.104	n/a	PROB	1127552	n/a	LTP274	ltpFR	12	n/a	n/a	n/a	n/a	n/a	n/a	n/a	12	8	2	2	n/a	n/a	n/a	n/a	n/a
2256.294	n/a	PROB	1128147	n/a	LTP274	ltpFR	12	n/a	n/a	n/a	n/a	n/a	n/a	n/a	7	2	2	3	n/a	n/a	n/a	n/a	n/a
2258.384	n/a	PROB	1129192	n/a	LTP274	ltpFR	12	n/a	n/a	n/a	n/a	n/a	n/a	n/a	12	2	3	7	n/a	n/a	n/a	n/a	n/a
2259.606	n/a	PROB	1129803	n/a	LTP274	ltpFR	12	n/a	n/a	n/a	n/a	n/a	n/a	n/a	10	2	3	5	n/a	n/a	n/a	n/a	n/a
2260.928	n/a	PROB	1130464	n/a	LTP274	ltpFR	12	n/a	n/a	n/a	n/a	n/a	n/a	n/a	14	2	9	3	n/a	n/a	n/a	n/a	n/a
2263.252	n/a	STOP	1131626	n/a	LTP274	ltpFR	12	n/a	n/a	n/a	n/a	n/a	n/a	n/a	n/a	n/a	n/a	n/a	n/a	n/a	n/a	n/a	n/a
2265.844	n/a	WORD	1132922	wordpools/wasnorm_wordpool_less_exclusions.txt	LTP274	ltpFR	12	8	1	PASSENGER	1020	n/a	n/a	1	n/a	0	0	0	0.57763671875	0.412841796875	1	upper	zerothre.ttf
2268.858	n/a	START	1134429	n/a	LTP274	ltpFR	12	n/a	n/a	n/a	n/a	n/a	n/a	n/a	n/a	n/a	n/a	n/a	n/a	n/a	n/a	n/a	n/a
2269.978	n/a	PROB	1134989	n/a	LTP274	ltpFR	12	n/a	n/a	n/a	n/a	n/a	n/a	n/a	13	5	7	1	n/a	n/a	n/a	n/a	n/a
2270.966	n/a	PROB	1135483	n/a	LTP274	ltpFR	12	n/a	n/a	n/a	n/a	n/a	n/a	n/a	14	3	8	3	n/a	n/a	n/a	n/a	n/a
2272.372	n/a	PROB	1136186	n/a	LTP274	ltpFR	12	n/a	n/a	n/a	n/a	n/a	n/a	n/a	14	4	2	8	n/a	n/a	n/a	n/a	n/a
2273.658	n/a	PROB	1136829	n/a	LTP274	ltpFR	12	n/a	n/a	n/a	n/a	n/a	n/a	n/a	15	4	2	9	n/a	n/a	n/a	n/a	n/a
2275.416	n/a	PROB	1137708	n/a	LTP274	ltpFR	12	n/a	n/a	n/a	n/a	n/a	n/a	n/a	14	7	5	2	n/a	n/a	n/a	n/a	n/a
2277.424	n/a	PROB	1138712	n/a	LTP274	ltpFR	12	n/a	n/a	n/a	n/a	n/a	n/a	n/a	17	8	4	5	n/a	n/a	n/a	n/a	n/a
2278.76	n/a	PROB	1139380	n/a	LTP274	ltpFR	12	n/a	n/a	n/a	n/a	n/a	n/a	n/a	11	1	1	9	n/a	n/a	n/a	n/a	n/a
2279.746	n/a	PROB	1139873	n/a	LTP274	ltpFR	12	n/a	n/a	n/a	n/a	n/a	n/a	n/a	16	7	1	8	n/a	n/a	n/a	n/a	n/a
2280.886	n/a	PROB	1140443	n/a	LTP274	ltpFR	12	n/a	n/a	n/a	n/a	n/a	n/a	n/a	21	8	5	8	n/a	n/a	n/a	n/a	n/a
2282.376	n/a	PROB	1141188	n/a	LTP274	ltpFR	12	n/a	n/a	n/a	n/a	n/a	n/a	n/a	3	9	9	7	n/a	n/a	n/a	n/a	n/a
2283.404	n/a	STOP	1141702	n/a	LTP274	ltpFR	12	n/a	n/a	n/a	n/a	n/a	n/a	n/a	n/a	n/a	n/a	n/a	n/a	n/a	n/a	n/a	n/a
2285.72	n/a	WORD	1142860	wordpools/wasnorm_wordpool_less_exclusions.txt	LTP274	ltpFR	12	8	1	BOY	161	n/a	n/a	1	n/a	0	0	0	0.57763671875	0.412841796875	1	upper	zerothre.ttf
2288.734	n/a	START	1144367	n/a	LTP274	ltpFR	12	n/a	n/a	n/a	n/a	n/a	n/a	n/a	n/a	n/a	n/a	n/a	n/a	n/a	n/a	n/a	n/a
2289.57	n/a	PROB	1144785	n/a	LTP274	ltpFR	12	n/a	n/a	n/a	n/a	n/a	n/a	n/a	8	1	6	1	n/a	n/a	n/a	n/a	n/a
2290.674	n/a	PROB	1145337	n/a	LTP274	ltpFR	12	n/a	n/a	n/a	n/a	n/a	n/a	n/a	15	3	9	3	n/a	n/a	n/a	n/a	n/a
2292.23	n/a	PROB	1146115	n/a	LTP274	ltpFR	12	n/a	n/a	n/a	n/a	n/a	n/a	n/a	15	7	4	4	n/a	n/a	n/a	n/a	n/a
2293.3	n/a	PROB	1146650	n/a	LTP274	ltpFR	12	n/a	n/a	n/a	n/a	n/a	n/a	n/a	15	8	1	6	n/a	n/a	n/a	n/a	n/a
2294.172	n/a	PROB	1147086	n/a	LTP274	ltpFR	12	n/a	n/a	n/a	n/a	n/a	n/a	n/a	15	4	9	3	n/a	n/a	n/a	n/a	n/a
2295.942	n/a	PROB	1147971	n/a	LTP274	ltpFR	12	n/a	n/a	n/a	n/a	n/a	n/a	n/a	20	9	2	9	n/a	n/a	n/a	n/a	n/a
2297.834	n/a	PROB	1148917	n/a	LTP274	ltpFR	12	n/a	n/a	n/a	n/a	n/a	n/a	n/a	18	8	8	2	n/a	n/a	n/a	n/a	n/a
2299.624	n/a	PROB	1149812	n/a	LTP274	ltpFR	12	n/a	n/a	n/a	n/a	n/a	n/a	n/a	17	9	2	6	n/a	n/a	n/a	n/a	n/a
2300.812	n/a	PROB	1150406	n/a	LTP274	ltpFR	12	n/a	n/a	n/a	n/a	n/a	n/a	n/a	10	1	7	2	n/a	n/a	n/a	n/a	n/a
2301.848	n/a	PROB	1150924	n/a	LTP274	ltpFR	12	n/a	n/a	n/a	n/a	n/a	n/a	n/a	23	9	9	7	n/a	n/a	n/a	n/a	n/a
2304.734	n/a	STOP	1152367	n/a	LTP274	ltpFR	12	n/a	n/a	n/a	n/a	n/a	n/a	n/a	n/a	n/a	n/a	n/a	n/a	n/a	n/a	n/a	n/a
2305.798	n/a	WORD	1152899	wordpools/wasnorm_wordpool_less_exclusions.txt	LTP274	ltpFR	12	8	1	COP	376	n/a	n/a	1	n/a	0	0	0	0.57763671875	0.412841796875	1	upper	zerothre.ttf
2308.81	n/a	START	1154405	n/a	LTP274	ltpFR	12	n/a	n/a	n/a	n/a	n/a	n/a	n/a	n/a	n/a	n/a	n/a	n/a	n/a	n/a	n/a	n/a
2309.628	n/a	PROB	1154814	n/a	LTP274	ltpFR	12	n/a	n/a	n/a	n/a	n/a	n/a	n/a	18	9	7	2	n/a	n/a	n/a	n/a	n/a
2311.236	n/a	PROB	1155618	n/a	LTP274	ltpFR	12	n/a	n/a	n/a	n/a	n/a	n/a	n/a	14	2	4	8	n/a	n/a	n/a	n/a	n/a
2313.244	n/a	PROB	1156622	n/a	LTP274	ltpFR	12	n/a	n/a	n/a	n/a	n/a	n/a	n/a	15	3	9	3	n/a	n/a	n/a	n/a	n/a
2314.516	n/a	PROB	1157258	n/a	LTP274	ltpFR	12	n/a	n/a	n/a	n/a	n/a	n/a	n/a	16	9	1	6	n/a	n/a	n/a	n/a	n/a
2315.718	n/a	PROB	1157859	n/a	LTP274	ltpFR	12	n/a	n/a	n/a	n/a	n/a	n/a	n/a	7	1	5	1	n/a	n/a	n/a	n/a	n/a
2316.64	n/a	PROB	1158320	n/a	LTP274	ltpFR	12	n/a	n/a	n/a	n/a	n/a	n/a	n/a	9	4	2	3	n/a	n/a	n/a	n/a	n/a
2318.18	n/a	PROB	1159090	n/a	LTP274	ltpFR	12	n/a	n/a	n/a	n/a	n/a	n/a	n/a	10	6	3	1	n/a	n/a	n/a	n/a	n/a
2319.4	n/a	PROB	1159700	n/a	LTP274	ltpFR	12	n/a	n/a	n/a	n/a	n/a	n/a	n/a	13	9	1	3	n/a	n/a	n/a	n/a	n/a
2320.588	n/a	PROB	1160294	n/a	LTP274	ltpFR	12	n/a	n/a	n/a	n/a	n/a	n/a	n/a	6	3	1	2	n/a	n/a	n/a	n/a	n/a
2321.574	n/a	PROB	1160787	n/a	LTP274	ltpFR	12	n/a	n/a	n/a	n/a	n/a	n/a	n/a	18	4	5	9	n/a	n/a	n/a	n/a	n/a
2323.096	n/a	PROB	1161548	n/a	LTP274	ltpFR	12	n/a	n/a	n/a	n/a	n/a	n/a	n/a	16	6	6	4	n/a	n/a	n/a	n/a	n/a
2324.174	n/a	STOP	1162087	n/a	LTP274	ltpFR	12	n/a	n/a	n/a	n/a	n/a	n/a	n/a	n/a	n/a	n/a	n/a	n/a	n/a	n/a	n/a	n/a
2325.992	n/a	WORD	1162996	wordpools/wasnorm_wordpool_less_exclusions.txt	LTP274	ltpFR	12	8	1	SCARECROW	1245	n/a	n/a	1	n/a	0	0	0	0.57763671875	0.412841796875	1	upper	zerothre.ttf
2329.006	n/a	START	1164503	n/a	LTP274	ltpFR	12	n/a	n/a	n/a	n/a	n/a	n/a	n/a	n/a	n/a	n/a	n/a	n/a	n/a	n/a	n/a	n/a
2329.84	n/a	PROB	1164920	n/a	LTP274	ltpFR	12	n/a	n/a	n/a	n/a	n/a	n/a	n/a	8	1	3	4	n/a	n/a	n/a	n/a	n/a
2330.694	n/a	PROB	1165347	n/a	LTP274	ltpFR	12	n/a	n/a	n/a	n/a	n/a	n/a	n/a	20	5	6	9	n/a	n/a	n/a	n/a	n/a
2332.532	n/a	PROB	1166266	n/a	LTP274	ltpFR	12	n/a	n/a	n/a	n/a	n/a	n/a	n/a	21	6	6	9	n/a	n/a	n/a	n/a	n/a
2333.94	n/a	PROB	1166970	n/a	LTP274	ltpFR	12	n/a	n/a	n/a	n/a	n/a	n/a	n/a	18	6	9	3	n/a	n/a	n/a	n/a	n/a
2335.512	n/a	PROB	1167756	n/a	LTP274	ltpFR	12	n/a	n/a	n/a	n/a	n/a	n/a	n/a	19	2	8	9	n/a	n/a	n/a	n/a	n/a
2336.732	n/a	PROB	1168366	n/a	LTP274	ltpFR	12	n/a	n/a	n/a	n/a	n/a	n/a	n/a	12	5	5	2	n/a	n/a	n/a	n/a	n/a
2337.836	n/a	PROB	1168918	n/a	LTP274	ltpFR	12	n/a	n/a	n/a	n/a	n/a	n/a	n/a	13	3	7	3	n/a	n/a	n/a	n/a	n/a
2339.426	n/a	PROB	1169713	n/a	LTP274	ltpFR	12	n/a	n/a	n/a	n/a	n/a	n/a	n/a	21	8	5	8	n/a	n/a	n/a	n/a	n/a
2340.932	n/a	PROB	1170466	n/a	LTP274	ltpFR	12	n/a	n/a	n/a	n/a	n/a	n/a	n/a	13	3	7	1	n/a	n/a	n/a	n/a	n/a
2342.002	n/a	PROB	1171001	n/a	LTP274	ltpFR	12	n/a	n/a	n/a	n/a	n/a	n/a	n/a	8	2	4	2	n/a	n/a	n/a	n/a	n/a
2343.792	n/a	STOP	1171896	n/a	LTP274	ltpFR	12	n/a	n/a	n/a	n/a	n/a	n/a	n/a	n/a	n/a	n/a	n/a	n/a	n/a	n/a	n/a	n/a
2346.22	n/a	WORD	1173110	wordpools/wasnorm_wordpool_less_exclusions.txt	LTP274	ltpFR	12	8	1	SPARROW	1347	n/a	n/a	1	n/a	0	0	0	0.57763671875	0.412841796875	1	upper	zerothre.ttf
2349.232	n/a	START	1174616	n/a	LTP274	ltpFR	12	n/a	n/a	n/a	n/a	n/a	n/a	n/a	n/a	n/a	n/a	n/a	n/a	n/a	n/a	n/a	n/a
2350.42	n/a	PROB	1175210	n/a	LTP274	ltpFR	12	n/a	n/a	n/a	n/a	n/a	n/a	n/a	23	9	9	5	n/a	n/a	n/a	n/a	n/a
2351.908	n/a	PROB	1175954	n/a	LTP274	ltpFR	12	n/a	n/a	n/a	n/a	n/a	n/a	n/a	13	2	9	2	n/a	n/a	n/a	n/a	n/a
2353.244	n/a	PROB	1176622	n/a	LTP274	ltpFR	12	n/a	n/a	n/a	n/a	n/a	n/a	n/a	16	5	2	9	n/a	n/a	n/a	n/a	n/a
2354.902	n/a	PROB	1177451	n/a	LTP274	ltpFR	12	n/a	n/a	n/a	n/a	n/a	n/a	n/a	18	3	7	8	n/a	n/a	n/a	n/a	n/a
2356.04	n/a	PROB	1178020	n/a	LTP274	ltpFR	12	n/a	n/a	n/a	n/a	n/a	n/a	n/a	15	5	5	5	n/a	n/a	n/a	n/a	n/a
2356.978	n/a	PROB	1178489	n/a	LTP274	ltpFR	12	n/a	n/a	n/a	n/a	n/a	n/a	n/a	17	2	8	7	n/a	n/a	n/a	n/a	n/a
2358.132	n/a	PROB	1179066	n/a	LTP274	ltpFR	12	n/a	n/a	n/a	n/a	n/a	n/a	n/a	25	9	7	9	n/a	n/a	n/a	n/a	n/a
2360.222	n/a	PROB	1180111	n/a	LTP274	ltpFR	12	n/a	n/a	n/a	n/a	n/a	n/a	n/a	13	1	9	3	n/a	n/a	n/a	n/a	n/a
2361.41	n/a	PROB	1180705	n/a	LTP274	ltpFR	12	n/a	n/a	n/a	n/a	n/a	n/a	n/a	22	9	4	9	n/a	n/a	n/a	n/a	n/a
2362.732	n/a	PROB	1181366	n/a	LTP274	ltpFR	12	n/a	n/a	n/a	n/a	n/a	n/a	n/a	5	3	1	1	n/a	n/a	n/a	n/a	n/a
2363.536	n/a	PROB	1181768	n/a	LTP274	ltpFR	12	n/a	n/a	n/a	n/a	n/a	n/a	n/a	19	4	6	9	n/a	n/a	n/a	n/a	n/a
2364.778	n/a	STOP	1182389	n/a	LTP274	ltpFR	12	n/a	n/a	n/a	n/a	n/a	n/a	n/a	n/a	n/a	n/a	n/a	n/a	n/a	n/a	n/a	n/a
2366.398	n/a	WORD	1183199	wordpools/wasnorm_wordpool_less_exclusions.txt	LTP274	ltpFR	12	8	1	JEWEL	757	n/a	n/a	0	n/a	0	0	0	0.57763671875	0.412841796875	1	upper	zerothre.ttf
2369.41	n/a	START	1184705	n/a	LTP274	ltpFR	12	n/a	n/a	n/a	n/a	n/a	n/a	n/a	n/a	n/a	n/a	n/a	n/a	n/a	n/a	n/a	n/a
2370.562	n/a	PROB	1185281	n/a	LTP274	ltpFR	12	n/a	n/a	n/a	n/a	n/a	n/a	n/a	21	5	6	6	n/a	n/a	n/a	n/a	n/a
2371.566	n/a	PROB	1185783	n/a	LTP274	ltpFR	12	n/a	n/a	n/a	n/a	n/a	n/a	n/a	15	5	2	8	n/a	n/a	n/a	n/a	n/a
2373.608	n/a	PROB	1186804	n/a	LTP274	ltpFR	12	n/a	n/a	n/a	n/a	n/a	n/a	n/a	13	3	8	2	n/a	n/a	n/a	n/a	n/a
2374.894	n/a	PROB	1187447	n/a	LTP274	ltpFR	12	n/a	n/a	n/a	n/a	n/a	n/a	n/a	16	2	9	5	n/a	n/a	n/a	n/a	n/a
2376.268	n/a	PROB	1188134	n/a	LTP274	ltpFR	12	n/a	n/a	n/a	n/a	n/a	n/a	n/a	18	9	7	2	n/a	n/a	n/a	n/a	n/a
2377.438	n/a	PROB	1188719	n/a	LTP274	ltpFR	12	n/a	n/a	n/a	n/a	n/a	n/a	n/a	13	6	3	4	n/a	n/a	n/a	n/a	n/a
2378.792	n/a	PROB	1189396	n/a	LTP274	ltpFR	12	n/a	n/a	n/a	n/a	n/a	n/a	n/a	21	8	7	6	n/a	n/a	n/a	n/a	n/a
2380.298	n/a	PROB	1190149	n/a	LTP274	ltpFR	12	n/a	n/a	n/a	n/a	n/a	n/a	n/a	15	5	3	7	n/a	n/a	n/a	n/a	n/a
2381.506	n/a	PROB	1190753	n/a	LTP274	ltpFR	12	n/a	n/a	n/a	n/a	n/a	n/a	n/a	15	3	6	6	n/a	n/a	n/a	n/a	n/a
2382.56	n/a	PROB	1191280	n/a	LTP274	ltpFR	12	n/a	n/a	n/a	n/a	n/a	n/a	n/a	15	5	3	8	n/a	n/a	n/a	n/a	n/a
2383.728	n/a	PROB	1191864	n/a	LTP274	ltpFR	12	n/a	n/a	n/a	n/a	n/a	n/a	n/a	8	1	2	5	n/a	n/a	n/a	n/a	n/a
2384.594	n/a	STOP	1192297	n/a	LTP274	ltpFR	12	n/a	n/a	n/a	n/a	n/a	n/a	n/a	n/a	n/a	n/a	n/a	n/a	n/a	n/a	n/a	n/a
2386.558	n/a	WORD	1193279	wordpools/wasnorm_wordpool_less_exclusions.txt	LTP274	ltpFR	12	8	1	SAPPHIRE	1234	n/a	n/a	0	n/a	0	0	0	0.57763671875	0.412841796875	1	upper	zerothre.ttf
2389.57	n/a	START	1194785	n/a	LTP274	ltpFR	12	n/a	n/a	n/a	n/a	n/a	n/a	n/a	n/a	n/a	n/a	n/a	n/a	n/a	n/a	n/a	n/a
2390.388	n/a	PROB	1195194	n/a	LTP274	ltpFR	12	n/a	n/a	n/a	n/a	n/a	n/a	n/a	16	9	3	4	n/a	n/a	n/a	n/a	n/a
2391.69	n/a	PROB	1195845	n/a	LTP274	ltpFR	12	n/a	n/a	n/a	n/a	n/a	n/a	n/a	14	5	7	2	n/a	n/a	n/a	n/a	n/a
2393.332	n/a	PROB	1196666	n/a	LTP274	ltpFR	12	n/a	n/a	n/a	n/a	n/a	n/a	n/a	20	7	7	6	n/a	n/a	n/a	n/a	n/a
2394.838	n/a	PROB	1197419	n/a	LTP274	ltpFR	12	n/a	n/a	n/a	n/a	n/a	n/a	n/a	15	2	5	9	n/a	n/a	n/a	n/a	n/a
2396.024	n/a	PROB	1198012	n/a	LTP274	ltpFR	12	n/a	n/a	n/a	n/a	n/a	n/a	n/a	24	9	8	7	n/a	n/a	n/a	n/a	n/a
2397.95	n/a	PROB	1198975	n/a	LTP274	ltpFR	12	n/a	n/a	n/a	n/a	n/a	n/a	n/a	9	2	3	4	n/a	n/a	n/a	n/a	n/a
2399.238	n/a	PROB	1199619	n/a	LTP274	ltpFR	12	n/a	n/a	n/a	n/a	n/a	n/a	n/a	15	7	1	7	n/a	n/a	n/a	n/a	n/a
2400.192	n/a	PROB	1200096	n/a	LTP274	ltpFR	12	n/a	n/a	n/a	n/a	n/a	n/a	n/a	17	9	1	7	n/a	n/a	n/a	n/a	n/a
2401.648	n/a	PROB	1200824	n/a	LTP274	ltpFR	12	n/a	n/a	n/a	n/a	n/a	n/a	n/a	16	4	5	7	n/a	n/a	n/a	n/a	n/a
2402.904	n/a	PROB	1201452	n/a	LTP274	ltpFR	12	n/a	n/a	n/a	n/a	n/a	n/a	n/a	21	5	8	8	n/a	n/a	n/a	n/a	n/a
2404.058	n/a	PROB	1202029	n/a	LTP274	ltpFR	12	n/a	n/a	n/a	n/a	n/a	n/a	n/a	13	3	5	5	n/a	n/a	n/a	n/a	n/a
2404.924	n/a	STOP	1202462	n/a	LTP274	ltpFR	12	n/a	n/a	n/a	n/a	n/a	n/a	n/a	n/a	n/a	n/a	n/a	n/a	n/a	n/a	n/a	n/a
2406.45	n/a	WORD	1203225	wordpools/wasnorm_wordpool_less_exclusions.txt	LTP274	ltpFR	12	8	1	POLICE	1098	n/a	n/a	1	n/a	0	0	0	0.57763671875	0.412841796875	1	upper	zerothre.ttf
2409.462	n/a	START	1204731	n/a	LTP274	ltpFR	12	n/a	n/a	n/a	n/a	n/a	n/a	n/a	n/a	n/a	n/a	n/a	n/a	n/a	n/a	n/a	n/a
2410.666	n/a	PROB	1205333	n/a	LTP274	ltpFR	12	n/a	n/a	n/a	n/a	n/a	n/a	n/a	11	9	1	1	n/a	n/a	n/a	n/a	n/a
2411.652	n/a	PROB	1205826	n/a	LTP274	ltpFR	12	n/a	n/a	n/a	n/a	n/a	n/a	n/a	15	1	9	5	n/a	n/a	n/a	n/a	n/a
2413.208	n/a	PROB	1206604	n/a	LTP274	ltpFR	12	n/a	n/a	n/a	n/a	n/a	n/a	n/a	11	5	4	2	n/a	n/a	n/a	n/a	n/a
2414.33	n/a	PROB	1207165	n/a	LTP274	ltpFR	12	n/a	n/a	n/a	n/a	n/a	n/a	n/a	20	8	4	8	n/a	n/a	n/a	n/a	n/a
2415.816	n/a	PROB	1207908	n/a	LTP274	ltpFR	12	n/a	n/a	n/a	n/a	n/a	n/a	n/a	25	7	9	7	n/a	n/a	n/a	n/a	n/a
2417.624	n/a	PROB	1208812	n/a	LTP274	ltpFR	12	n/a	n/a	n/a	n/a	n/a	n/a	n/a	13	4	8	1	n/a	n/a	n/a	n/a	n/a
2419.818	n/a	PROB	1209909	n/a	LTP274	ltpFR	12	n/a	n/a	n/a	n/a	n/a	n/a	n/a	12	6	3	3	n/a	n/a	n/a	n/a	n/a
2421.474	n/a	PROB	1210737	n/a	LTP274	ltpFR	12	n/a	n/a	n/a	n/a	n/a	n/a	n/a	19	3	7	9	n/a	n/a	n/a	n/a	n/a
2422.728	n/a	PROB	1211364	n/a	LTP274	ltpFR	12	n/a	n/a	n/a	n/a	n/a	n/a	n/a	14	2	9	3	n/a	n/a	n/a	n/a	n/a
2424.564	n/a	STOP	1212282	n/a	LTP274	ltpFR	12	n/a	n/a	n/a	n/a	n/a	n/a	n/a	n/a	n/a	n/a	n/a	n/a	n/a	n/a	n/a	n/a
2426.31	n/a	WORD	1213155	wordpools/wasnorm_wordpool_less_exclusions.txt	LTP274	ltpFR	12	8	1	LINEN	825	n/a	n/a	0	n/a	0	0	0	0.57763671875	0.412841796875	1	upper	zerothre.ttf
2429.322	n/a	START	1214661	n/a	LTP274	ltpFR	12	n/a	n/a	n/a	n/a	n/a	n/a	n/a	n/a	n/a	n/a	n/a	n/a	n/a	n/a	n/a	n/a
2430.24	n/a	PROB	1215120	n/a	LTP274	ltpFR	12	n/a	n/a	n/a	n/a	n/a	n/a	n/a	26	9	9	8	n/a	n/a	n/a	n/a	n/a
2431.912	n/a	PROB	1215956	n/a	LTP274	ltpFR	12	n/a	n/a	n/a	n/a	n/a	n/a	n/a	16	6	6	4	n/a	n/a	n/a	n/a	n/a
2433.0	n/a	PROB	1216500	n/a	LTP274	ltpFR	12	n/a	n/a	n/a	n/a	n/a	n/a	n/a	8	1	4	3	n/a	n/a	n/a	n/a	n/a
2434.892	n/a	PROB	1217446	n/a	LTP274	ltpFR	12	n/a	n/a	n/a	n/a	n/a	n/a	n/a	17	8	6	3	n/a	n/a	n/a	n/a	n/a
2436.598	n/a	PROB	1218299	n/a	LTP274	ltpFR	12	n/a	n/a	n/a	n/a	n/a	n/a	n/a	11	4	2	5	n/a	n/a	n/a	n/a	n/a
2438.656	n/a	PROB	1219328	n/a	LTP274	ltpFR	12	n/a	n/a	n/a	n/a	n/a	n/a	n/a	12	3	6	3	n/a	n/a	n/a	n/a	n/a
2439.71	n/a	PROB	1219855	n/a	LTP274	ltpFR	12	n/a	n/a	n/a	n/a	n/a	n/a	n/a	14	3	7	4	n/a	n/a	n/a	n/a	n/a
2440.914	n/a	PROB	1220457	n/a	LTP274	ltpFR	12	n/a	n/a	n/a	n/a	n/a	n/a	n/a	17	8	3	6	n/a	n/a	n/a	n/a	n/a
2442.22	n/a	PROB	1221110	n/a	LTP274	ltpFR	12	n/a	n/a	n/a	n/a	n/a	n/a	n/a	14	7	4	3	n/a	n/a	n/a	n/a	n/a
2443.622	n/a	PROB	1221811	n/a	LTP274	ltpFR	12	n/a	n/a	n/a	n/a	n/a	n/a	n/a	23	8	8	7	n/a	n/a	n/a	n/a	n/a
2444.748	n/a	STOP	1222374	n/a	LTP274	ltpFR	12	n/a	n/a	n/a	n/a	n/a	n/a	n/a	n/a	n/a	n/a	n/a	n/a	n/a	n/a	n/a	n/a
2446.284	n/a	WORD	1223142	wordpools/wasnorm_wordpool_less_exclusions.txt	LTP274	ltpFR	12	8	1	SCALPEL	1243	n/a	n/a	0	n/a	0	0	0	0.57763671875	0.412841796875	1	upper	zerothre.ttf
2449.298	n/a	START	1224649	n/a	LTP274	ltpFR	12	n/a	n/a	n/a	n/a	n/a	n/a	n/a	n/a	n/a	n/a	n/a	n/a	n/a	n/a	n/a	n/a
2450.452	n/a	PROB	1225226	n/a	LTP274	ltpFR	12	n/a	n/a	n/a	n/a	n/a	n/a	n/a	13	3	5	5	n/a	n/a	n/a	n/a	n/a
2451.37	n/a	PROB	1225685	n/a	LTP274	ltpFR	12	n/a	n/a	n/a	n/a	n/a	n/a	n/a	21	6	6	9	n/a	n/a	n/a	n/a	n/a
2452.576	n/a	PROB	1226288	n/a	LTP274	ltpFR	12	n/a	n/a	n/a	n/a	n/a	n/a	n/a	17	5	8	4	n/a	n/a	n/a	n/a	n/a
2453.762	n/a	PROB	1226881	n/a	LTP274	ltpFR	12	n/a	n/a	n/a	n/a	n/a	n/a	n/a	18	6	9	3	n/a	n/a	n/a	n/a	n/a
2454.764	n/a	PROB	1227382	n/a	LTP274	ltpFR	12	n/a	n/a	n/a	n/a	n/a	n/a	n/a	12	2	4	6	n/a	n/a	n/a	n/a	n/a
2455.82	n/a	PROB	1227910	n/a	LTP274	ltpFR	12	n/a	n/a	n/a	n/a	n/a	n/a	n/a	12	6	1	5	n/a	n/a	n/a	n/a	n/a
2457.36	n/a	PROB	1228680	n/a	LTP274	ltpFR	12	n/a	n/a	n/a	n/a	n/a	n/a	n/a	10	1	3	6	n/a	n/a	n/a	n/a	n/a
2458.382	n/a	PROB	1229191	n/a	LTP274	ltpFR	12	n/a	n/a	n/a	n/a	n/a	n/a	n/a	6	1	4	1	n/a	n/a	n/a	n/a	n/a
2459.286	n/a	PROB	1229643	n/a	LTP274	ltpFR	12	n/a	n/a	n/a	n/a	n/a	n/a	n/a	2	8	8	4	n/a	n/a	n/a	n/a	n/a
2460.474	n/a	PROB	1230237	n/a	LTP274	ltpFR	12	n/a	n/a	n/a	n/a	n/a	n/a	n/a	21	3	9	9	n/a	n/a	n/a	n/a	n/a
2462.564	n/a	PROB	1231282	n/a	LTP274	ltpFR	12	n/a	n/a	n/a	n/a	n/a	n/a	n/a	14	5	5	4	n/a	n/a	n/a	n/a	n/a
2463.55	n/a	PROB	1231775	n/a	LTP274	ltpFR	12	n/a	n/a	n/a	n/a	n/a	n/a	n/a	20	4	8	8	n/a	n/a	n/a	n/a	n/a
2464.622	n/a	STOP	1232311	n/a	LTP274	ltpFR	12	n/a	n/a	n/a	n/a	n/a	n/a	n/a	n/a	n/a	n/a	n/a	n/a	n/a	n/a	n/a	n/a
2466.396	n/a	WORD	1233198	wordpools/wasnorm_wordpool_less_exclusions.txt	LTP274	ltpFR	12	8	1	PHOTO	1055	n/a	n/a	0	n/a	0	0	0	0.57763671875	0.412841796875	1	upper	zerothre.ttf
2469.408	n/a	START	1234704	n/a	LTP274	ltpFR	12	n/a	n/a	n/a	n/a	n/a	n/a	n/a	n/a	n/a	n/a	n/a	n/a	n/a	n/a	n/a	n/a
2470.428	n/a	PROB	1235214	n/a	LTP274	ltpFR	12	n/a	n/a	n/a	n/a	n/a	n/a	n/a	7	3	2	2	n/a	n/a	n/a	n/a	n/a
2471.916	n/a	PROB	1235958	n/a	LTP274	ltpFR	12	n/a	n/a	n/a	n/a	n/a	n/a	n/a	17	5	7	5	n/a	n/a	n/a	n/a	n/a
2473.036	n/a	PROB	1236518	n/a	LTP274	ltpFR	12	n/a	n/a	n/a	n/a	n/a	n/a	n/a	17	4	4	9	n/a	n/a	n/a	n/a	n/a
2474.41	n/a	PROB	1237205	n/a	LTP274	ltpFR	12	n/a	n/a	n/a	n/a	n/a	n/a	n/a	20	5	6	9	n/a	n/a	n/a	n/a	n/a
2475.764	n/a	PROB	1237882	n/a	LTP274	ltpFR	12	n/a	n/a	n/a	n/a	n/a	n/a	n/a	17	7	8	2	n/a	n/a	n/a	n/a	n/a
2476.984	n/a	PROB	1238492	n/a	LTP274	ltpFR	12	n/a	n/a	n/a	n/a	n/a	n/a	n/a	14	9	2	3	n/a	n/a	n/a	n/a	n/a
2478.892	n/a	PROB	1239446	n/a	LTP274	ltpFR	12	n/a	n/a	n/a	n/a	n/a	n/a	n/a	14	7	4	1	n/a	n/a	n/a	n/a	n/a
2480.432	n/a	PROB	1240216	n/a	LTP274	ltpFR	12	n/a	n/a	n/a	n/a	n/a	n/a	n/a	15	5	7	3	n/a	n/a	n/a	n/a	n/a
2482.34	n/a	PROB	1241170	n/a	LTP274	ltpFR	12	n/a	n/a	n/a	n/a	n/a	n/a	n/a	15	3	6	6	n/a	n/a	n/a	n/a	n/a
2483.394	n/a	PROB	1241697	n/a	LTP274	ltpFR	12	n/a	n/a	n/a	n/a	n/a	n/a	n/a	14	4	5	5	n/a	n/a	n/a	n/a	n/a
2484.758	n/a	STOP	1242379	n/a	LTP274	ltpFR	12	n/a	n/a	n/a	n/a	n/a	n/a	n/a	n/a	n/a	n/a	n/a	n/a	n/a	n/a	n/a	n/a
2486.44	n/a	WORD	1243220	wordpools/wasnorm_wordpool_less_exclusions.txt	LTP274	ltpFR	12	8	1	SPHINX	1349	n/a	n/a	0	n/a	0	0	0	0.57763671875	0.412841796875	1	upper	zerothre.ttf
2489.45	n/a	START	1244725	n/a	LTP274	ltpFR	12	n/a	n/a	n/a	n/a	n/a	n/a	n/a	n/a	n/a	n/a	n/a	n/a	n/a	n/a	n/a	n/a
2490.404	n/a	PROB	1245202	n/a	LTP274	ltpFR	12	n/a	n/a	n/a	n/a	n/a	n/a	n/a	19	5	5	9	n/a	n/a	n/a	n/a	n/a
2491.624	n/a	PROB	1245812	n/a	LTP274	ltpFR	12	n/a	n/a	n/a	n/a	n/a	n/a	n/a	19	7	9	3	n/a	n/a	n/a	n/a	n/a
2492.878	n/a	PROB	1246439	n/a	LTP274	ltpFR	12	n/a	n/a	n/a	n/a	n/a	n/a	n/a	13	8	4	1	n/a	n/a	n/a	n/a	n/a
2493.968	n/a	PROB	1246984	n/a	LTP274	ltpFR	12	n/a	n/a	n/a	n/a	n/a	n/a	n/a	18	4	9	5	n/a	n/a	n/a	n/a	n/a
2495.74	n/a	PROB	1247870	n/a	LTP274	ltpFR	12	n/a	n/a	n/a	n/a	n/a	n/a	n/a	18	6	6	6	n/a	n/a	n/a	n/a	n/a
2496.76	n/a	PROB	1248380	n/a	LTP274	ltpFR	12	n/a	n/a	n/a	n/a	n/a	n/a	n/a	15	6	3	6	n/a	n/a	n/a	n/a	n/a
2497.816	n/a	PROB	1248908	n/a	LTP274	ltpFR	12	n/a	n/a	n/a	n/a	n/a	n/a	n/a	17	5	3	9	n/a	n/a	n/a	n/a	n/a
2499.522	n/a	PROB	1249761	n/a	LTP274	ltpFR	12	n/a	n/a	n/a	n/a	n/a	n/a	n/a	12	4	6	2	n/a	n/a	n/a	n/a	n/a
2500.742	n/a	PROB	1250371	n/a	LTP274	ltpFR	12	n/a	n/a	n/a	n/a	n/a	n/a	n/a	17	7	2	8	n/a	n/a	n/a	n/a	n/a
2501.846	n/a	PROB	1250923	n/a	LTP274	ltpFR	12	n/a	n/a	n/a	n/a	n/a	n/a	n/a	19	8	8	3	n/a	n/a	n/a	n/a	n/a
2502.986	n/a	PROB	1251493	n/a	LTP274	ltpFR	12	n/a	n/a	n/a	n/a	n/a	n/a	n/a	9	4	2	3	n/a	n/a	n/a	n/a	n/a
