mstime	trial_type	stim_file	subject	experiment	session	trial	task	item_name	item_num	recog_conf	resp	color_b	color_g	color_r	case	font
0	SESS_START	n/a	LTP258	ltpFR	17	n/a	n/a	n/a	n/a	3	n/a	n/a	n/a	n/a	n/a	n/a
24824	WORD	wordpools/wasnorm_wordpool_less_exclusions.txt	LTP258	ltpFR	17	1	1	TOILET	1475	n/a	0	0	0.5869140625	0.422607421875	upper	../fonts/amplitud.ttf
28968	WORD	wordpools/wasnorm_wordpool_less_exclusions.txt	LTP258	ltpFR	17	1	1	BROCCOLI	176	n/a	1	0	0.5869140625	0.422607421875	upper	../fonts/amplitud.ttf
32928	WORD	wordpools/wasnorm_wordpool_less_exclusions.txt	LTP258	ltpFR	17	1	1	ARMY	39	n/a	1	0	0.5869140625	0.422607421875	upper	../fonts/amplitud.ttf
36956	WORD	wordpools/wasnorm_wordpool_less_exclusions.txt	LTP258	ltpFR	17	1	1	GARAGE	621	n/a	0	0	0.5869140625	0.422607421875	upper	../fonts/amplitud.ttf
41149	WORD	wordpools/wasnorm_wordpool_less_exclusions.txt	LTP258	ltpFR	17	1	0	TIE	1466	n/a	0	1	0.412841796875	0.57763671875	lower	../fonts/zerothre.ttf
44977	WORD	wordpools/wasnorm_wordpool_less_exclusions.txt	LTP258	ltpFR	17	1	0	VOLLEYBALL	1576	n/a	0	1	0.412841796875	0.57763671875	lower	../fonts/zerothre.ttf
48904	WORD	wordpools/wasnorm_wordpool_less_exclusions.txt	LTP258	ltpFR	17	1	1	REEF	1177	n/a	1	0	0.5869140625	0.422607421875	upper	../fonts/amplitud.ttf
52982	WORD	wordpools/wasnorm_wordpool_less_exclusions.txt	LTP258	ltpFR	17	1	1	SLEEVE	1324	n/a	0	0	0.5869140625	0.422607421875	upper	../fonts/amplitud.ttf
56809	WORD	wordpools/wasnorm_wordpool_less_exclusions.txt	LTP258	ltpFR	17	1	0	SOFTBALL	1343	n/a	0	1	0.412841796875	0.57763671875	lower	../fonts/zerothre.ttf
60753	WORD	wordpools/wasnorm_wordpool_less_exclusions.txt	LTP258	ltpFR	17	1	0	WHEEL	1603	n/a	1	1	0.412841796875	0.57763671875	lower	../fonts/zerothre.ttf
64764	WORD	wordpools/wasnorm_wordpool_less_exclusions.txt	LTP258	ltpFR	17	1	0	GOVERNOR	651	n/a	1	1	0.412841796875	0.57763671875	lower	../fonts/zerothre.ttf
68841	WORD	wordpools/wasnorm_wordpool_less_exclusions.txt	LTP258	ltpFR	17	1	0	SENATE	1267	n/a	1	1	0.412841796875	0.57763671875	lower	../fonts/zerothre.ttf
72702	WORD	wordpools/wasnorm_wordpool_less_exclusions.txt	LTP258	ltpFR	17	1	0	PIGEON	1065	n/a	0	1	0.412841796875	0.57763671875	lower	../fonts/zerothre.ttf
76796	WORD	wordpools/wasnorm_wordpool_less_exclusions.txt	LTP258	ltpFR	17	1	0	FEATHER	557	n/a	0	1	0.412841796875	0.57763671875	lower	../fonts/zerothre.ttf
80873	WORD	wordpools/wasnorm_wordpool_less_exclusions.txt	LTP258	ltpFR	17	1	1	STEW	1380	n/a	0	0	0.5869140625	0.422607421875	upper	../fonts/amplitud.ttf
84801	WORD	wordpools/wasnorm_wordpool_less_exclusions.txt	LTP258	ltpFR	17	1	1	COOK	372	n/a	1	0	0.5869140625	0.422607421875	upper	../fonts/amplitud.ttf
90459	REC_START	n/a	LTP258	ltpFR	17	1	n/a	n/a	n/a	n/a	n/a	n/a	n/a	n/a	n/a	n/a
92610	REC_WORD	wordpools/wasnorm_wordpool_less_exclusions.txt	LTP258	ltpFR	17	1	1	STEW	1380	n/a	0	n/a	n/a	n/a	n/a	n/a
93804	REC_WORD	wordpools/wasnorm_wordpool_less_exclusions.txt	LTP258	ltpFR	17	1	1	COOK	372	n/a	1	n/a	n/a	n/a	n/a	n/a
94853	REC_WORD	wordpools/wasnorm_wordpool_less_exclusions.txt	LTP258	ltpFR	17	1	0	PIGEON	1065	n/a	0	n/a	n/a	n/a	n/a	n/a
95723	REC_WORD	wordpools/wasnorm_wordpool_less_exclusions.txt	LTP258	ltpFR	17	1	0	FEATHER	557	n/a	0	n/a	n/a	n/a	n/a	n/a
96990	REC_WORD	wordpools/wasnorm_wordpool_less_exclusions.txt	LTP258	ltpFR	17	1	0	WHEEL	1603	n/a	1	n/a	n/a	n/a	n/a	n/a
98484	REC_WORD	wordpools/wasnorm_wordpool_less_exclusions.txt	LTP258	ltpFR	17	1	1	ARMY	39	n/a	1	n/a	n/a	n/a	n/a	n/a
100642	REC_WORD	wordpools/wasnorm_wordpool_less_exclusions.txt	LTP258	ltpFR	17	1	1	SLEEVE	1324	n/a	0	n/a	n/a	n/a	n/a	n/a
102608	REC_WORD	wordpools/wasnorm_wordpool_less_exclusions.txt	LTP258	ltpFR	17	1	0	TIE	1466	n/a	0	n/a	n/a	n/a	n/a	n/a
104183	REC_WORD	wordpools/wasnorm_wordpool_less_exclusions.txt	LTP258	ltpFR	17	1	0	VOLLEYBALL	1576	n/a	0	n/a	n/a	n/a	n/a	n/a
105317	REC_WORD	wordpools/wasnorm_wordpool_less_exclusions.txt	LTP258	ltpFR	17	1	0	SOFTBALL	1343	n/a	0	n/a	n/a	n/a	n/a	n/a
112497	REC_WORD	wordpools/wasnorm_wordpool_less_exclusions.txt	LTP258	ltpFR	17	1	1	BROCCOLI	176	n/a	1	n/a	n/a	n/a	n/a	n/a
121213	REC_WORD	wordpools/wasnorm_wordpool_less_exclusions.txt	LTP258	ltpFR	17	1	1	REEF	1177	n/a	1	n/a	n/a	n/a	n/a	n/a
126310	REC_WORD	wordpools/wasnorm_wordpool_less_exclusions.txt	LTP258	ltpFR	17	1	0	SENATE	1267	n/a	1	n/a	n/a	n/a	n/a	n/a
127393	REC_WORD	wordpools/wasnorm_wordpool_less_exclusions.txt	LTP258	ltpFR	17	1	0	GOVERNOR	651	n/a	1	n/a	n/a	n/a	n/a	n/a
134853	REC_WORD	wordpools/wasnorm_wordpool_less_exclusions.txt	LTP258	ltpFR	17	1	1	TOILET	1475	n/a	0	n/a	n/a	n/a	n/a	n/a
170472	WORD	wordpools/wasnorm_wordpool_less_exclusions.txt	LTP258	ltpFR	17	2	0	BOULEVARD	156	n/a	1	1	0.412841796875	0.57763671875	lower	../fonts/zerothre.ttf
174350	WORD	wordpools/wasnorm_wordpool_less_exclusions.txt	LTP258	ltpFR	17	2	0	GRAVEL	659	n/a	0	1	0.412841796875	0.57763671875	lower	../fonts/zerothre.ttf
178278	WORD	wordpools/wasnorm_wordpool_less_exclusions.txt	LTP258	ltpFR	17	2	1	SPICE	1350	n/a	0	0	0.5869140625	0.422607421875	upper	../fonts/amplitud.ttf
182322	WORD	wordpools/wasnorm_wordpool_less_exclusions.txt	LTP258	ltpFR	17	2	1	PANTHER	1009	n/a	1	0	0.5869140625	0.422607421875	upper	../fonts/amplitud.ttf
186316	WORD	wordpools/wasnorm_wordpool_less_exclusions.txt	LTP258	ltpFR	17	2	0	WALNUT	1584	n/a	0	1	0.412841796875	0.57763671875	lower	../fonts/zerothre.ttf
190343	WORD	wordpools/wasnorm_wordpool_less_exclusions.txt	LTP258	ltpFR	17	2	0	TRIBE	1505	n/a	1	1	0.412841796875	0.57763671875	lower	../fonts/zerothre.ttf
194536	WORD	wordpools/wasnorm_wordpool_less_exclusions.txt	LTP258	ltpFR	17	2	1	BELL	118	n/a	0	0	0.5869140625	0.422607421875	upper	../fonts/amplitud.ttf
198580	WORD	wordpools/wasnorm_wordpool_less_exclusions.txt	LTP258	ltpFR	17	2	1	LUNG	850	n/a	0	0	0.5869140625	0.422607421875	upper	../fonts/amplitud.ttf
202691	WORD	wordpools/wasnorm_wordpool_less_exclusions.txt	LTP258	ltpFR	17	2	1	TUNA	1518	n/a	1	0	0.5869140625	0.422607421875	upper	../fonts/amplitud.ttf
206585	WORD	wordpools/wasnorm_wordpool_less_exclusions.txt	LTP258	ltpFR	17	2	1	SARDINE	1235	n/a	1	0	0.5869140625	0.422607421875	upper	../fonts/amplitud.ttf
210763	WORD	wordpools/wasnorm_wordpool_less_exclusions.txt	LTP258	ltpFR	17	2	1	MAPLE	866	n/a	1	0	0.5869140625	0.422607421875	upper	../fonts/amplitud.ttf
214724	WORD	wordpools/wasnorm_wordpool_less_exclusions.txt	LTP258	ltpFR	17	2	1	CLOVE	329	n/a	0	0	0.5869140625	0.422607421875	upper	../fonts/amplitud.ttf
218884	WORD	wordpools/wasnorm_wordpool_less_exclusions.txt	LTP258	ltpFR	17	2	0	FURNITURE	616	n/a	1	1	0.412841796875	0.57763671875	lower	../fonts/zerothre.ttf
222778	WORD	wordpools/wasnorm_wordpool_less_exclusions.txt	LTP258	ltpFR	17	2	0	LODGE	839	n/a	1	1	0.412841796875	0.57763671875	lower	../fonts/zerothre.ttf
226972	WORD	wordpools/wasnorm_wordpool_less_exclusions.txt	LTP258	ltpFR	17	2	0	BEAST	108	n/a	1	1	0.412841796875	0.57763671875	lower	../fonts/zerothre.ttf
230833	WORD	wordpools/wasnorm_wordpool_less_exclusions.txt	LTP258	ltpFR	17	2	0	PROFESSIONAL	1130	n/a	1	1	0.412841796875	0.57763671875	lower	../fonts/zerothre.ttf
236508	REC_START	n/a	LTP258	ltpFR	17	2	n/a	n/a	n/a	n/a	n/a	n/a	n/a	n/a	n/a	n/a
238812	REC_WORD	wordpools/wasnorm_wordpool_less_exclusions.txt	LTP258	ltpFR	17	2	0	PROFESSIONAL	1130	n/a	1	n/a	n/a	n/a	n/a	n/a
240033	REC_WORD	wordpools/wasnorm_wordpool_less_exclusions.txt	LTP258	ltpFR	17	2	0	BEAST	108	n/a	1	n/a	n/a	n/a	n/a	n/a
241561	REC_WORD	wordpools/wasnorm_wordpool_less_exclusions.txt	LTP258	ltpFR	17	2	0	BOULEVARD	156	n/a	1	n/a	n/a	n/a	n/a	n/a
243790	REC_WORD	wordpools/wasnorm_wordpool_less_exclusions.txt	LTP258	ltpFR	17	2	1	CLOVE	329	n/a	0	n/a	n/a	n/a	n/a	n/a
245594	REC_WORD	wordpools/wasnorm_wordpool_less_exclusions.txt	LTP258	ltpFR	17	2	1	SPICE	1350	n/a	0	n/a	n/a	n/a	n/a	n/a
257190	REC_WORD	wordpools/wasnorm_wordpool_less_exclusions.txt	LTP258	ltpFR	17	2	1	MAPLE	866	n/a	1	n/a	n/a	n/a	n/a	n/a
259667	REC_WORD	wordpools/wasnorm_wordpool_less_exclusions.txt	LTP258	ltpFR	17	2	1	SARDINE	1235	n/a	1	n/a	n/a	n/a	n/a	n/a
261406	REC_WORD	wordpools/wasnorm_wordpool_less_exclusions.txt	LTP258	ltpFR	17	2	1	TUNA	1518	n/a	1	n/a	n/a	n/a	n/a	n/a
262597	REC_WORD	wordpools/wasnorm_wordpool_less_exclusions.txt	LTP258	ltpFR	17	2	1	LUNG	850	n/a	0	n/a	n/a	n/a	n/a	n/a
279182	REC_WORD	wordpools/wasnorm_wordpool_less_exclusions.txt	LTP258	ltpFR	17	2	0	FURNITURE	616	n/a	1	n/a	n/a	n/a	n/a	n/a
292010	REC_WORD	wordpools/wasnorm_wordpool_less_exclusions.txt	LTP258	ltpFR	17	2	0	LODGE	839	n/a	1	n/a	n/a	n/a	n/a	n/a
305202	REC_WORD	wordpools/wasnorm_wordpool_less_exclusions.txt	LTP258	ltpFR	17	2	0	GRAVEL	659	n/a	0	n/a	n/a	n/a	n/a	n/a
315622	WORD	wordpools/wasnorm_wordpool_less_exclusions.txt	LTP258	ltpFR	17	3	-1	SUPERVISOR	1410	n/a	-1	1	1.0	1.0	upper	../fonts/Verdana.ttf
319683	WORD	wordpools/wasnorm_wordpool_less_exclusions.txt	LTP258	ltpFR	17	3	-1	BOSS	152	n/a	-1	1	1.0	1.0	upper	../fonts/Verdana.ttf
323894	WORD	wordpools/wasnorm_wordpool_less_exclusions.txt	LTP258	ltpFR	17	3	-1	COUGAR	387	n/a	-1	1	1.0	1.0	upper	../fonts/Verdana.ttf
327938	WORD	wordpools/wasnorm_wordpool_less_exclusions.txt	LTP258	ltpFR	17	3	-1	DOG	480	n/a	-1	1	1.0	1.0	upper	../fonts/Verdana.ttf
332115	WORD	wordpools/wasnorm_wordpool_less_exclusions.txt	LTP258	ltpFR	17	3	-1	SCRIBBLE	1256	n/a	-1	1	1.0	1.0	upper	../fonts/Verdana.ttf
335992	WORD	wordpools/wasnorm_wordpool_less_exclusions.txt	LTP258	ltpFR	17	3	-1	FAIRY	549	n/a	-1	1	1.0	1.0	upper	../fonts/Verdana.ttf
339970	WORD	wordpools/wasnorm_wordpool_less_exclusions.txt	LTP258	ltpFR	17	3	-1	TERMITE	1451	n/a	-1	1	1.0	1.0	upper	../fonts/Verdana.ttf
344114	WORD	wordpools/wasnorm_wordpool_less_exclusions.txt	LTP258	ltpFR	17	3	-1	CHICKEN	297	n/a	-1	1	1.0	1.0	upper	../fonts/Verdana.ttf
348324	WORD	wordpools/wasnorm_wordpool_less_exclusions.txt	LTP258	ltpFR	17	3	-1	APPLICATION	34	n/a	-1	1	1.0	1.0	upper	../fonts/Verdana.ttf
352467	WORD	wordpools/wasnorm_wordpool_less_exclusions.txt	LTP258	ltpFR	17	3	-1	SWORD	1423	n/a	-1	1	1.0	1.0	upper	../fonts/Verdana.ttf
356627	WORD	wordpools/wasnorm_wordpool_less_exclusions.txt	LTP258	ltpFR	17	3	-1	JACKET	747	n/a	-1	1	1.0	1.0	upper	../fonts/Verdana.ttf
360605	WORD	wordpools/wasnorm_wordpool_less_exclusions.txt	LTP258	ltpFR	17	3	-1	SALAD	1224	n/a	-1	1	1.0	1.0	upper	../fonts/Verdana.ttf
364615	WORD	wordpools/wasnorm_wordpool_less_exclusions.txt	LTP258	ltpFR	17	3	-1	KING	777	n/a	-1	1	1.0	1.0	upper	../fonts/Verdana.ttf
368810	WORD	wordpools/wasnorm_wordpool_less_exclusions.txt	LTP258	ltpFR	17	3	-1	CARD	243	n/a	-1	1	1.0	1.0	upper	../fonts/Verdana.ttf
373020	WORD	wordpools/wasnorm_wordpool_less_exclusions.txt	LTP258	ltpFR	17	3	-1	SPIDER	1351	n/a	-1	1	1.0	1.0	upper	../fonts/Verdana.ttf
377164	WORD	wordpools/wasnorm_wordpool_less_exclusions.txt	LTP258	ltpFR	17	3	-1	PRINCE	1124	n/a	-1	1	1.0	1.0	upper	../fonts/Verdana.ttf
382740	REC_START	n/a	LTP258	ltpFR	17	3	n/a	n/a	n/a	n/a	n/a	n/a	n/a	n/a	n/a	n/a
385066	REC_WORD	wordpools/wasnorm_wordpool_less_exclusions.txt	LTP258	ltpFR	17	3	-1	KING	777	n/a	-1	n/a	n/a	n/a	n/a	n/a
385849	REC_WORD	wordpools/wasnorm_wordpool_less_exclusions.txt	LTP258	ltpFR	17	3	-1	CARD	243	n/a	-1	n/a	n/a	n/a	n/a	n/a
386667	REC_WORD	wordpools/wasnorm_wordpool_less_exclusions.txt	LTP258	ltpFR	17	3	-1	SPIDER	1351	n/a	-1	n/a	n/a	n/a	n/a	n/a
387891	REC_WORD	wordpools/wasnorm_wordpool_less_exclusions.txt	LTP258	ltpFR	17	3	-1	PRINCE	1124	n/a	-1	n/a	n/a	n/a	n/a	n/a
389191	REC_WORD	wordpools/wasnorm_wordpool_less_exclusions.txt	LTP258	ltpFR	17	3	-1	FAIRY	549	n/a	-1	n/a	n/a	n/a	n/a	n/a
391121	REC_WORD	wordpools/wasnorm_wordpool_less_exclusions.txt	LTP258	ltpFR	17	3	-1	SUPERVISOR	1410	n/a	-1	n/a	n/a	n/a	n/a	n/a
392288	REC_WORD	wordpools/wasnorm_wordpool_less_exclusions.txt	LTP258	ltpFR	17	3	-1	BOSS	152	n/a	-1	n/a	n/a	n/a	n/a	n/a
394485	REC_WORD	wordpools/wasnorm_wordpool_less_exclusions.txt	LTP258	ltpFR	17	3	-1	SALAD	1224	n/a	-1	n/a	n/a	n/a	n/a	n/a
395600	REC_WORD	wordpools/wasnorm_wordpool_less_exclusions.txt	LTP258	ltpFR	17	3	-1	JACKET	747	n/a	-1	n/a	n/a	n/a	n/a	n/a
414110	REC_WORD	wordpools/wasnorm_wordpool_less_exclusions.txt	LTP258	ltpFR	17	3	-1	CHICKEN	297	n/a	-1	n/a	n/a	n/a	n/a	n/a
431471	REC_WORD	wordpools/wasnorm_wordpool_less_exclusions.txt	LTP258	ltpFR	17	3	-1	DOG	480	n/a	-1	n/a	n/a	n/a	n/a	n/a
437943	REC_WORD	wordpools/wasnorm_wordpool_less_exclusions.txt	LTP258	ltpFR	17	3	-1	APPLICATION	34	n/a	-1	n/a	n/a	n/a	n/a	n/a
463003	WORD	wordpools/wasnorm_wordpool_less_exclusions.txt	LTP258	ltpFR	17	4	1	HORSE	719	n/a	1	0	0.5869140625	0.422607421875	upper	../fonts/amplitud.ttf
467063	WORD	wordpools/wasnorm_wordpool_less_exclusions.txt	LTP258	ltpFR	17	4	1	STRAW	1390	n/a	0	0	0.5869140625	0.422607421875	upper	../fonts/amplitud.ttf
471057	WORD	wordpools/wasnorm_wordpool_less_exclusions.txt	LTP258	ltpFR	17	4	1	NECKLACE	940	n/a	0	0	0.5869140625	0.422607421875	upper	../fonts/amplitud.ttf
475118	WORD	wordpools/wasnorm_wordpool_less_exclusions.txt	LTP258	ltpFR	17	4	1	SPATULA	1348	n/a	0	0	0.5869140625	0.422607421875	upper	../fonts/amplitud.ttf
479062	WORD	wordpools/wasnorm_wordpool_less_exclusions.txt	LTP258	ltpFR	17	4	1	APRON	35	n/a	0	0	0.5869140625	0.422607421875	upper	../fonts/amplitud.ttf
482906	WORD	wordpools/wasnorm_wordpool_less_exclusions.txt	LTP258	ltpFR	17	4	1	SIREN	1310	n/a	0	0	0.5869140625	0.422607421875	upper	../fonts/amplitud.ttf
486867	WORD	wordpools/wasnorm_wordpool_less_exclusions.txt	LTP258	ltpFR	17	4	0	SHRUB	1299	n/a	0	1	0.412841796875	0.57763671875	lower	../fonts/zerothre.ttf
490828	WORD	wordpools/wasnorm_wordpool_less_exclusions.txt	LTP258	ltpFR	17	4	0	COAT	333	n/a	0	1	0.412841796875	0.57763671875	lower	../fonts/zerothre.ttf
494905	WORD	wordpools/wasnorm_wordpool_less_exclusions.txt	LTP258	ltpFR	17	4	0	OATS	968	n/a	0	1	0.412841796875	0.57763671875	lower	../fonts/zerothre.ttf
498816	WORD	wordpools/wasnorm_wordpool_less_exclusions.txt	LTP258	ltpFR	17	4	0	TAIL	1430	n/a	0	1	0.412841796875	0.57763671875	lower	../fonts/zerothre.ttf
502860	WORD	wordpools/wasnorm_wordpool_less_exclusions.txt	LTP258	ltpFR	17	4	0	ANIMAL	23	n/a	1	1	0.412841796875	0.57763671875	lower	../fonts/zerothre.ttf
506771	WORD	wordpools/wasnorm_wordpool_less_exclusions.txt	LTP258	ltpFR	17	4	1	RACCOON	1153	n/a	1	0	0.5869140625	0.422607421875	upper	../fonts/amplitud.ttf
510647	WORD	wordpools/wasnorm_wordpool_less_exclusions.txt	LTP258	ltpFR	17	4	1	SPY	1360	n/a	1	0	0.5869140625	0.422607421875	upper	../fonts/amplitud.ttf
514709	WORD	wordpools/wasnorm_wordpool_less_exclusions.txt	LTP258	ltpFR	17	4	0	GAVEL	627	n/a	2	1	0.412841796875	0.57763671875	lower	../fonts/zerothre.ttf
516522	KEY_MSG	n/a	LTP258	ltpFR	17	4	n/a	n/a	n/a	n/a	n/a	n/a	n/a	n/a	n/a	n/a
519219	WORD	wordpools/wasnorm_wordpool_less_exclusions.txt	LTP258	ltpFR	17	4	0	JUDGE	761	n/a	1	1	0.412841796875	0.57763671875	lower	../fonts/zerothre.ttf
523096	WORD	wordpools/wasnorm_wordpool_less_exclusions.txt	LTP258	ltpFR	17	4	0	JUPITER	765	n/a	1	1	0.412841796875	0.57763671875	lower	../fonts/zerothre.ttf
528971	REC_START	n/a	LTP258	ltpFR	17	4	n/a	n/a	n/a	n/a	n/a	n/a	n/a	n/a	n/a	n/a
531023	REC_WORD	wordpools/wasnorm_wordpool_less_exclusions.txt	LTP258	ltpFR	17	4	0	GAVEL	627	n/a	2	n/a	n/a	n/a	n/a	n/a
531911	REC_WORD	wordpools/wasnorm_wordpool_less_exclusions.txt	LTP258	ltpFR	17	4	0	JUDGE	761	n/a	1	n/a	n/a	n/a	n/a	n/a
532762	REC_WORD	wordpools/wasnorm_wordpool_less_exclusions.txt	LTP258	ltpFR	17	4	0	JUPITER	765	n/a	1	n/a	n/a	n/a	n/a	n/a
536884	REC_WORD	wordpools/wasnorm_wordpool_less_exclusions.txt	LTP258	ltpFR	17	4	1	HORSE	719	n/a	1	n/a	n/a	n/a	n/a	n/a
537709	REC_WORD	wordpools/wasnorm_wordpool_less_exclusions.txt	LTP258	ltpFR	17	4	1	STRAW	1390	n/a	0	n/a	n/a	n/a	n/a	n/a
539475	REC_WORD	wordpools/wasnorm_wordpool_less_exclusions.txt	LTP258	ltpFR	17	4	0	OATS	968	n/a	0	n/a	n/a	n/a	n/a	n/a
540367	REC_WORD	wordpools/wasnorm_wordpool_less_exclusions.txt	LTP258	ltpFR	17	4	0	TAIL	1430	n/a	0	n/a	n/a	n/a	n/a	n/a
542562	REC_WORD	wordpools/wasnorm_wordpool_less_exclusions.txt	LTP258	ltpFR	17	4	0	ANIMAL	23	n/a	1	n/a	n/a	n/a	n/a	n/a
544958	REC_WORD	wordpools/wasnorm_wordpool_less_exclusions.txt	LTP258	ltpFR	17	4	1	RACCOON	1153	n/a	1	n/a	n/a	n/a	n/a	n/a
574886	REC_WORD	wordpools/wasnorm_wordpool_less_exclusions.txt	LTP258	ltpFR	17	4	0	COAT	333	n/a	0	n/a	n/a	n/a	n/a	n/a
608685	WORD	wordpools/wasnorm_wordpool_less_exclusions.txt	LTP258	ltpFR	17	5	0	PARSLEY	1016	n/a	0	1	0.412841796875	0.57763671875	lower	../fonts/zerothre.ttf
612545	WORD	wordpools/wasnorm_wordpool_less_exclusions.txt	LTP258	ltpFR	17	5	0	HERB	704	n/a	0	1	0.412841796875	0.57763671875	lower	../fonts/zerothre.ttf
616707	WORD	wordpools/wasnorm_wordpool_less_exclusions.txt	LTP258	ltpFR	17	5	1	LOUNGE	845	n/a	0	0	0.5869140625	0.422607421875	upper	../fonts/amplitud.ttf
620834	WORD	wordpools/wasnorm_wordpool_less_exclusions.txt	LTP258	ltpFR	17	5	1	OLIVE	975	n/a	0	0	0.5869140625	0.422607421875	upper	../fonts/amplitud.ttf
624878	WORD	wordpools/wasnorm_wordpool_less_exclusions.txt	LTP258	ltpFR	17	5	1	VILLAGE	1566	n/a	1	0	0.5869140625	0.422607421875	upper	../fonts/amplitud.ttf
628839	WORD	wordpools/wasnorm_wordpool_less_exclusions.txt	LTP258	ltpFR	17	5	1	SIDING	1304	n/a	0	0	0.5869140625	0.422607421875	upper	../fonts/amplitud.ttf
632699	WORD	wordpools/wasnorm_wordpool_less_exclusions.txt	LTP258	ltpFR	17	5	1	ELM	527	n/a	1	0	0.5869140625	0.422607421875	upper	../fonts/amplitud.ttf
636760	WORD	wordpools/wasnorm_wordpool_less_exclusions.txt	LTP258	ltpFR	17	5	1	ANTELOPE	27	n/a	1	0	0.5869140625	0.422607421875	upper	../fonts/amplitud.ttf
640804	WORD	wordpools/wasnorm_wordpool_less_exclusions.txt	LTP258	ltpFR	17	5	0	BARTENDER	92	n/a	1	1	0.412841796875	0.57763671875	lower	../fonts/zerothre.ttf
644931	WORD	wordpools/wasnorm_wordpool_less_exclusions.txt	LTP258	ltpFR	17	5	0	GORILLA	650	n/a	1	1	0.412841796875	0.57763671875	lower	../fonts/zerothre.ttf
648975	WORD	wordpools/wasnorm_wordpool_less_exclusions.txt	LTP258	ltpFR	17	5	0	BIBLE	124	n/a	0	1	0.412841796875	0.57763671875	lower	../fonts/zerothre.ttf
652936	WORD	wordpools/wasnorm_wordpool_less_exclusions.txt	LTP258	ltpFR	17	5	1	CASHIER	254	n/a	1	0	0.5869140625	0.422607421875	upper	../fonts/amplitud.ttf
657013	WORD	wordpools/wasnorm_wordpool_less_exclusions.txt	LTP258	ltpFR	17	5	1	ELK	526	n/a	1	0	0.5869140625	0.422607421875	upper	../fonts/amplitud.ttf
660891	WORD	wordpools/wasnorm_wordpool_less_exclusions.txt	LTP258	ltpFR	17	5	0	FIG	563	n/a	0	1	0.412841796875	0.57763671875	lower	../fonts/zerothre.ttf
664785	WORD	wordpools/wasnorm_wordpool_less_exclusions.txt	LTP258	ltpFR	17	5	0	LOG	841	n/a	0	1	0.412841796875	0.57763671875	lower	../fonts/zerothre.ttf
668661	WORD	wordpools/wasnorm_wordpool_less_exclusions.txt	LTP258	ltpFR	17	5	0	DOUGHNUT	490	n/a	0	1	0.412841796875	0.57763671875	lower	../fonts/zerothre.ttf
674338	REC_START	n/a	LTP258	ltpFR	17	5	n/a	n/a	n/a	n/a	n/a	n/a	n/a	n/a	n/a	n/a
676650	REC_WORD	wordpools/wasnorm_wordpool_less_exclusions.txt	LTP258	ltpFR	17	5	0	DOUGHNUT	490	n/a	0	n/a	n/a	n/a	n/a	n/a
677430	REC_WORD	wordpools/wasnorm_wordpool_less_exclusions.txt	LTP258	ltpFR	17	5	0	FIG	563	n/a	0	n/a	n/a	n/a	n/a	n/a
678514	REC_WORD	wordpools/wasnorm_wordpool_less_exclusions.txt	LTP258	ltpFR	17	5	0	LOG	841	n/a	0	n/a	n/a	n/a	n/a	n/a
680467	REC_WORD	wordpools/wasnorm_wordpool_less_exclusions.txt	LTP258	ltpFR	17	5	1	VILLAGE	1566	n/a	1	n/a	n/a	n/a	n/a	n/a
681609	REC_WORD	wordpools/wasnorm_wordpool_less_exclusions.txt	LTP258	ltpFR	17	5	1	ELM	527	n/a	1	n/a	n/a	n/a	n/a	n/a
682721	REC_WORD	wordpools/wasnorm_wordpool_less_exclusions.txt	LTP258	ltpFR	17	5	1	ANTELOPE	27	n/a	1	n/a	n/a	n/a	n/a	n/a
688737	REC_WORD	wordpools/wasnorm_wordpool_less_exclusions.txt	LTP258	ltpFR	17	5	0	GORILLA	650	n/a	1	n/a	n/a	n/a	n/a	n/a
705062	REC_WORD	wordpools/wasnorm_wordpool_less_exclusions.txt	LTP258	ltpFR	17	5	0	HERB	704	n/a	0	n/a	n/a	n/a	n/a	n/a
706407	REC_WORD	wordpools/wasnorm_wordpool_less_exclusions.txt	LTP258	ltpFR	17	5	0	PARSLEY	1016	n/a	0	n/a	n/a	n/a	n/a	n/a
713293	REC_WORD	wordpools/wasnorm_wordpool_less_exclusions.txt	LTP258	ltpFR	17	5	0	BARTENDER	92	n/a	1	n/a	n/a	n/a	n/a	n/a
714397	REC_WORD	wordpools/wasnorm_wordpool_less_exclusions.txt	LTP258	ltpFR	17	5	1	CASHIER	254	n/a	1	n/a	n/a	n/a	n/a	n/a
753702	WORD	wordpools/wasnorm_wordpool_less_exclusions.txt	LTP258	ltpFR	17	6	0	LENS	811	n/a	0	1	0.412841796875	0.57763671875	lower	../fonts/zerothre.ttf
757896	WORD	wordpools/wasnorm_wordpool_less_exclusions.txt	LTP258	ltpFR	17	6	0	PARROT	1015	n/a	0	1	0.412841796875	0.57763671875	lower	../fonts/zerothre.ttf
761973	WORD	wordpools/wasnorm_wordpool_less_exclusions.txt	LTP258	ltpFR	17	6	0	LAKE	796	n/a	1	1	0.412841796875	0.57763671875	lower	../fonts/zerothre.ttf
765917	WORD	wordpools/wasnorm_wordpool_less_exclusions.txt	LTP258	ltpFR	17	6	0	PERSON	1052	n/a	1	1	0.412841796875	0.57763671875	lower	../fonts/zerothre.ttf
770061	WORD	wordpools/wasnorm_wordpool_less_exclusions.txt	LTP258	ltpFR	17	6	0	SIRLOIN	1311	n/a	0	1	0.412841796875	0.57763671875	lower	../fonts/zerothre.ttf
773988	WORD	wordpools/wasnorm_wordpool_less_exclusions.txt	LTP258	ltpFR	17	6	0	CAGE	218	n/a	1	1	0.412841796875	0.57763671875	lower	../fonts/zerothre.ttf
778149	WORD	wordpools/wasnorm_wordpool_less_exclusions.txt	LTP258	ltpFR	17	6	0	LOBBY	836	n/a	1	1	0.412841796875	0.57763671875	lower	../fonts/zerothre.ttf
782243	WORD	wordpools/wasnorm_wordpool_less_exclusions.txt	LTP258	ltpFR	17	6	0	RESORT	1186	n/a	1	1	0.412841796875	0.57763671875	lower	../fonts/zerothre.ttf
786303	WORD	wordpools/wasnorm_wordpool_less_exclusions.txt	LTP258	ltpFR	17	6	0	BULL	193	n/a	1	1	0.412841796875	0.57763671875	lower	../fonts/zerothre.ttf
790297	WORD	wordpools/wasnorm_wordpool_less_exclusions.txt	LTP258	ltpFR	17	6	0	ROOF	1205	n/a	1	1	0.412841796875	0.57763671875	lower	../fonts/zerothre.ttf
794424	WORD	wordpools/wasnorm_wordpool_less_exclusions.txt	LTP258	ltpFR	17	6	0	CANNON	232	n/a	1	1	0.412841796875	0.57763671875	lower	../fonts/zerothre.ttf
798419	WORD	wordpools/wasnorm_wordpool_less_exclusions.txt	LTP258	ltpFR	17	6	0	GANG	619	n/a	1	1	0.412841796875	0.57763671875	lower	../fonts/zerothre.ttf
802528	WORD	wordpools/wasnorm_wordpool_less_exclusions.txt	LTP258	ltpFR	17	6	0	CEILING	265	n/a	1	1	0.412841796875	0.57763671875	lower	../fonts/zerothre.ttf
806423	WORD	wordpools/wasnorm_wordpool_less_exclusions.txt	LTP258	ltpFR	17	6	0	BABY	64	n/a	1	1	0.412841796875	0.57763671875	lower	../fonts/zerothre.ttf
810301	WORD	wordpools/wasnorm_wordpool_less_exclusions.txt	LTP258	ltpFR	17	6	0	COCKTAIL	338	n/a	0	1	0.412841796875	0.57763671875	lower	../fonts/zerothre.ttf
814311	WORD	wordpools/wasnorm_wordpool_less_exclusions.txt	LTP258	ltpFR	17	6	0	SCREWDRIVER	1255	n/a	0	1	0.412841796875	0.57763671875	lower	../fonts/zerothre.ttf
820103	REC_START	n/a	LTP258	ltpFR	17	6	n/a	n/a	n/a	n/a	n/a	n/a	n/a	n/a	n/a	n/a
821530	REC_WORD	wordpools/wasnorm_wordpool_less_exclusions.txt	LTP258	ltpFR	17	6	0	SCREWDRIVER	1255	n/a	0	n/a	n/a	n/a	n/a	n/a
822686	REC_WORD	wordpools/wasnorm_wordpool_less_exclusions.txt	LTP258	ltpFR	17	6	0	COCKTAIL	338	n/a	0	n/a	n/a	n/a	n/a	n/a
824879	REC_WORD	wordpools/wasnorm_wordpool_less_exclusions.txt	LTP258	ltpFR	17	6	0	CEILING	265	n/a	1	n/a	n/a	n/a	n/a	n/a
825822	REC_WORD	wordpools/wasnorm_wordpool_less_exclusions.txt	LTP258	ltpFR	17	6	0	ROOF	1205	n/a	1	n/a	n/a	n/a	n/a	n/a
827263	REC_WORD	wordpools/wasnorm_wordpool_less_exclusions.txt	LTP258	ltpFR	17	6	0	PARROT	1015	n/a	0	n/a	n/a	n/a	n/a	n/a
834050	REC_WORD	wordpools/wasnorm_wordpool_less_exclusions.txt	LTP258	ltpFR	17	6	0	RESORT	1186	n/a	1	n/a	n/a	n/a	n/a	n/a
847712	REC_WORD	wordpools/wasnorm_wordpool_less_exclusions.txt	LTP258	ltpFR	17	6	0	CAGE	218	n/a	1	n/a	n/a	n/a	n/a	n/a
848649	REC_WORD	wordpools/wasnorm_wordpool_less_exclusions.txt	LTP258	ltpFR	17	6	0	LOBBY	836	n/a	1	n/a	n/a	n/a	n/a	n/a
850786	REC_WORD	wordpools/wasnorm_wordpool_less_exclusions.txt	LTP258	ltpFR	17	6	0	PERSON	1052	n/a	1	n/a	n/a	n/a	n/a	n/a
903695	WORD	wordpools/wasnorm_wordpool_less_exclusions.txt	LTP258	ltpFR	17	7	-1	HAMMER	680	n/a	-1	1	1.0	1.0	upper	../fonts/Verdana.ttf
907604	WORD	wordpools/wasnorm_wordpool_less_exclusions.txt	LTP258	ltpFR	17	7	-1	TANK	1432	n/a	-1	1	1.0	1.0	upper	../fonts/Verdana.ttf
911565	WORD	wordpools/wasnorm_wordpool_less_exclusions.txt	LTP258	ltpFR	17	7	-1	SCALLOP	1242	n/a	-1	1	1.0	1.0	upper	../fonts/Verdana.ttf
915676	WORD	wordpools/wasnorm_wordpool_less_exclusions.txt	LTP258	ltpFR	17	7	-1	WRENCH	1625	n/a	-1	1	1.0	1.0	upper	../fonts/Verdana.ttf
919520	WORD	wordpools/wasnorm_wordpool_less_exclusions.txt	LTP258	ltpFR	17	7	-1	SIBLING	1301	n/a	-1	1	1.0	1.0	upper	../fonts/Verdana.ttf
923415	WORD	wordpools/wasnorm_wordpool_less_exclusions.txt	LTP258	ltpFR	17	7	-1	CYLINDER	432	n/a	-1	1	1.0	1.0	upper	../fonts/Verdana.ttf
927426	WORD	wordpools/wasnorm_wordpool_less_exclusions.txt	LTP258	ltpFR	17	7	-1	LID	817	n/a	-1	1	1.0	1.0	upper	../fonts/Verdana.ttf
931535	WORD	wordpools/wasnorm_wordpool_less_exclusions.txt	LTP258	ltpFR	17	7	-1	SEAT	1264	n/a	-1	1	1.0	1.0	upper	../fonts/Verdana.ttf
935596	WORD	wordpools/wasnorm_wordpool_less_exclusions.txt	LTP258	ltpFR	17	7	-1	DESK	452	n/a	-1	1	1.0	1.0	upper	../fonts/Verdana.ttf
939807	WORD	wordpools/wasnorm_wordpool_less_exclusions.txt	LTP258	ltpFR	17	7	-1	CROWN	415	n/a	-1	1	1.0	1.0	upper	../fonts/Verdana.ttf
943651	WORD	wordpools/wasnorm_wordpool_less_exclusions.txt	LTP258	ltpFR	17	7	-1	FLANNEL	574	n/a	-1	1	1.0	1.0	upper	../fonts/Verdana.ttf
947611	WORD	wordpools/wasnorm_wordpool_less_exclusions.txt	LTP258	ltpFR	17	7	-1	TROUSERS	1510	n/a	-1	1	1.0	1.0	upper	../fonts/Verdana.ttf
951472	WORD	wordpools/wasnorm_wordpool_less_exclusions.txt	LTP258	ltpFR	17	7	-1	DICTATOR	462	n/a	-1	1	1.0	1.0	upper	../fonts/Verdana.ttf
955483	WORD	wordpools/wasnorm_wordpool_less_exclusions.txt	LTP258	ltpFR	17	7	-1	KNAPSACK	783	n/a	-1	1	1.0	1.0	upper	../fonts/Verdana.ttf
959677	WORD	wordpools/wasnorm_wordpool_less_exclusions.txt	LTP258	ltpFR	17	7	-1	TROUT	1511	n/a	-1	1	1.0	1.0	upper	../fonts/Verdana.ttf
963621	WORD	wordpools/wasnorm_wordpool_less_exclusions.txt	LTP258	ltpFR	17	7	-1	NEWSSTAND	949	n/a	-1	1	1.0	1.0	upper	../fonts/Verdana.ttf
969414	REC_START	n/a	LTP258	ltpFR	17	7	n/a	n/a	n/a	n/a	n/a	n/a	n/a	n/a	n/a	n/a
970982	REC_WORD	wordpools/wasnorm_wordpool_less_exclusions.txt	LTP258	ltpFR	17	7	-1	NEWSSTAND	949	n/a	-1	n/a	n/a	n/a	n/a	n/a
972292	REC_WORD	wordpools/wasnorm_wordpool_less_exclusions.txt	LTP258	ltpFR	17	7	-1	DICTATOR	462	n/a	-1	n/a	n/a	n/a	n/a	n/a
973420	REC_WORD	wordpools/wasnorm_wordpool_less_exclusions.txt	LTP258	ltpFR	17	7	-1	TROUT	1511	n/a	-1	n/a	n/a	n/a	n/a	n/a
975605	REC_WORD	wordpools/wasnorm_wordpool_less_exclusions.txt	LTP258	ltpFR	17	7	-1	TROUSERS	1510	n/a	-1	n/a	n/a	n/a	n/a	n/a
977659	REC_WORD	wordpools/wasnorm_wordpool_less_exclusions.txt	LTP258	ltpFR	17	7	-1	FLANNEL	574	n/a	-1	n/a	n/a	n/a	n/a	n/a
984913	REC_WORD	wordpools/wasnorm_wordpool_less_exclusions.txt	LTP258	ltpFR	17	7	-1	SIBLING	1301	n/a	-1	n/a	n/a	n/a	n/a	n/a
985964	REC_WORD	wordpools/wasnorm_wordpool_less_exclusions.txt	LTP258	ltpFR	17	7	-1	CYLINDER	432	n/a	-1	n/a	n/a	n/a	n/a	n/a
990367	REC_WORD	wordpools/wasnorm_wordpool_less_exclusions.txt	LTP258	ltpFR	17	7	-1	LID	817	n/a	-1	n/a	n/a	n/a	n/a	n/a
994213	REC_WORD	wordpools/wasnorm_wordpool_less_exclusions.txt	LTP258	ltpFR	17	7	-1	SEAT	1264	n/a	-1	n/a	n/a	n/a	n/a	n/a
995306	REC_WORD	wordpools/wasnorm_wordpool_less_exclusions.txt	LTP258	ltpFR	17	7	-1	DESK	452	n/a	-1	n/a	n/a	n/a	n/a	n/a
1020908	REC_WORD	wordpools/wasnorm_wordpool_less_exclusions.txt	LTP258	ltpFR	17	7	-1	CROWN	415	n/a	-1	n/a	n/a	n/a	n/a	n/a
1049710	WORD	wordpools/wasnorm_wordpool_less_exclusions.txt	LTP258	ltpFR	17	8	0	ARTERY	41	n/a	0	1	0.412841796875	0.57763671875	lower	../fonts/zerothre.ttf
1053687	WORD	wordpools/wasnorm_wordpool_less_exclusions.txt	LTP258	ltpFR	17	8	0	KLEENEX	782	n/a	0	1	0.412841796875	0.57763671875	lower	../fonts/zerothre.ttf
1057630	WORD	wordpools/wasnorm_wordpool_less_exclusions.txt	LTP258	ltpFR	17	8	0	COBRA	336	n/a	0	1	0.412841796875	0.57763671875	lower	../fonts/zerothre.ttf
1061775	WORD	wordpools/wasnorm_wordpool_less_exclusions.txt	LTP258	ltpFR	17	8	0	PARIS	1014	n/a	1	1	0.412841796875	0.57763671875	lower	../fonts/zerothre.ttf
1065819	WORD	wordpools/wasnorm_wordpool_less_exclusions.txt	LTP258	ltpFR	17	8	0	PICNIC	1060	n/a	1	1	0.412841796875	0.57763671875	lower	../fonts/zerothre.ttf
1069813	WORD	wordpools/wasnorm_wordpool_less_exclusions.txt	LTP258	ltpFR	17	8	0	CHEF	290	n/a	1	1	0.412841796875	0.57763671875	lower	../fonts/zerothre.ttf
1073673	WORD	wordpools/wasnorm_wordpool_less_exclusions.txt	LTP258	ltpFR	17	8	0	POSSUM	1112	n/a	1	1	0.412841796875	0.57763671875	lower	../fonts/zerothre.ttf
1077651	WORD	wordpools/wasnorm_wordpool_less_exclusions.txt	LTP258	ltpFR	17	8	0	DENIM	446	n/a	0	1	0.412841796875	0.57763671875	lower	../fonts/zerothre.ttf
1081712	WORD	wordpools/wasnorm_wordpool_less_exclusions.txt	LTP258	ltpFR	17	8	0	PANTS	1010	n/a	1	1	0.412841796875	0.57763671875	lower	../fonts/zerothre.ttf
1085690	WORD	wordpools/wasnorm_wordpool_less_exclusions.txt	LTP258	ltpFR	17	8	0	WALRUS	1585	n/a	1	1	0.412841796875	0.57763671875	lower	../fonts/zerothre.ttf
1089850	WORD	wordpools/wasnorm_wordpool_less_exclusions.txt	LTP258	ltpFR	17	8	0	BRIEFCASE	175	n/a	1	1	0.412841796875	0.57763671875	lower	../fonts/zerothre.ttf
1093961	WORD	wordpools/wasnorm_wordpool_less_exclusions.txt	LTP258	ltpFR	17	8	0	SERPENT	1270	n/a	0	1	0.412841796875	0.57763671875	lower	../fonts/zerothre.ttf
1097855	WORD	wordpools/wasnorm_wordpool_less_exclusions.txt	LTP258	ltpFR	17	8	0	SUITE	1404	n/a	1	1	0.412841796875	0.57763671875	lower	../fonts/zerothre.ttf
1101699	WORD	wordpools/wasnorm_wordpool_less_exclusions.txt	LTP258	ltpFR	17	8	0	GRASS	655	n/a	0	1	0.412841796875	0.57763671875	lower	../fonts/zerothre.ttf
1105726	WORD	wordpools/wasnorm_wordpool_less_exclusions.txt	LTP258	ltpFR	17	8	0	ZOO	1637	n/a	1	1	0.412841796875	0.57763671875	lower	../fonts/zerothre.ttf
1109754	WORD	wordpools/wasnorm_wordpool_less_exclusions.txt	LTP258	ltpFR	17	8	0	ELEPHANT	523	n/a	1	1	0.412841796875	0.57763671875	lower	../fonts/zerothre.ttf
1115644	REC_START	n/a	LTP258	ltpFR	17	8	n/a	n/a	n/a	n/a	n/a	n/a	n/a	n/a	n/a	n/a
1117530	REC_WORD	wordpools/wasnorm_wordpool_less_exclusions.txt	LTP258	ltpFR	17	8	0	ELEPHANT	523	n/a	1	n/a	n/a	n/a	n/a	n/a
1118450	REC_WORD	wordpools/wasnorm_wordpool_less_exclusions.txt	LTP258	ltpFR	17	8	0	ZOO	1637	n/a	1	n/a	n/a	n/a	n/a	n/a
1119649	REC_WORD	wordpools/wasnorm_wordpool_less_exclusions.txt	LTP258	ltpFR	17	8	0	GRASS	655	n/a	0	n/a	n/a	n/a	n/a	n/a
1120735	REC_WORD	wordpools/wasnorm_wordpool_less_exclusions.txt	LTP258	ltpFR	17	8	0	SERPENT	1270	n/a	0	n/a	n/a	n/a	n/a	n/a
1122001	REC_WORD	wordpools/wasnorm_wordpool_less_exclusions.txt	LTP258	ltpFR	17	8	0	COBRA	336	n/a	0	n/a	n/a	n/a	n/a	n/a
1126507	REC_WORD	wordpools/wasnorm_wordpool_less_exclusions.txt	LTP258	ltpFR	17	8	0	PARIS	1014	n/a	1	n/a	n/a	n/a	n/a	n/a
1135055	REC_WORD	wordpools/wasnorm_wordpool_less_exclusions.txt	LTP258	ltpFR	17	8	0	KLEENEX	782	n/a	0	n/a	n/a	n/a	n/a	n/a
1156354	REC_WORD	wordpools/wasnorm_wordpool_less_exclusions.txt	LTP258	ltpFR	17	8	0	DENIM	446	n/a	0	n/a	n/a	n/a	n/a	n/a
1157346	REC_WORD	wordpools/wasnorm_wordpool_less_exclusions.txt	LTP258	ltpFR	17	8	0	PANTS	1010	n/a	1	n/a	n/a	n/a	n/a	n/a
1166646	REC_WORD	wordpools/wasnorm_wordpool_less_exclusions.txt	LTP258	ltpFR	17	8	0	BRIEFCASE	175	n/a	1	n/a	n/a	n/a	n/a	n/a
1209072	WORD	wordpools/wasnorm_wordpool_less_exclusions.txt	LTP258	ltpFR	17	9	1	LIST	830	n/a	0	0	0.5869140625	0.422607421875	upper	../fonts/amplitud.ttf
1213066	WORD	wordpools/wasnorm_wordpool_less_exclusions.txt	LTP258	ltpFR	17	9	1	DRAWER	493	n/a	0	0	0.5869140625	0.422607421875	upper	../fonts/amplitud.ttf
1217043	WORD	wordpools/wasnorm_wordpool_less_exclusions.txt	LTP258	ltpFR	17	9	0	VET	1560	n/a	1	1	0.412841796875	0.57763671875	lower	../fonts/zerothre.ttf
1221154	WORD	wordpools/wasnorm_wordpool_less_exclusions.txt	LTP258	ltpFR	17	9	0	AUTOMOBILE	62	n/a	1	1	0.412841796875	0.57763671875	lower	../fonts/zerothre.ttf
1224998	WORD	wordpools/wasnorm_wordpool_less_exclusions.txt	LTP258	ltpFR	17	9	0	MOUTH	926	n/a	0	1	0.412841796875	0.57763671875	lower	../fonts/zerothre.ttf
1228959	WORD	wordpools/wasnorm_wordpool_less_exclusions.txt	LTP258	ltpFR	17	9	0	PORPOISE	1109	n/a	1	1	0.412841796875	0.57763671875	lower	../fonts/zerothre.ttf
1233103	WORD	wordpools/wasnorm_wordpool_less_exclusions.txt	LTP258	ltpFR	17	9	1	BUFFALO	186	n/a	1	0	0.5869140625	0.422607421875	upper	../fonts/amplitud.ttf
1236947	WORD	wordpools/wasnorm_wordpool_less_exclusions.txt	LTP258	ltpFR	17	9	1	LIZARD	834	n/a	1	0	0.5869140625	0.422607421875	upper	../fonts/amplitud.ttf
1240825	WORD	wordpools/wasnorm_wordpool_less_exclusions.txt	LTP258	ltpFR	17	9	1	REPTILE	1185	n/a	1	0	0.5869140625	0.422607421875	upper	../fonts/amplitud.ttf
1244918	WORD	wordpools/wasnorm_wordpool_less_exclusions.txt	LTP258	ltpFR	17	9	1	FLUTE	585	n/a	0	0	0.5869140625	0.422607421875	upper	../fonts/amplitud.ttf
1249112	WORD	wordpools/wasnorm_wordpool_less_exclusions.txt	LTP258	ltpFR	17	9	0	CHAMBER	277	n/a	1	1	0.412841796875	0.57763671875	lower	../fonts/zerothre.ttf
1253140	WORD	wordpools/wasnorm_wordpool_less_exclusions.txt	LTP258	ltpFR	17	9	0	TROMBONE	1508	n/a	1	1	0.412841796875	0.57763671875	lower	../fonts/zerothre.ttf
1257217	WORD	wordpools/wasnorm_wordpool_less_exclusions.txt	LTP258	ltpFR	17	9	0	CUPBOARD	425	n/a	1	1	0.412841796875	0.57763671875	lower	../fonts/zerothre.ttf
1261311	WORD	wordpools/wasnorm_wordpool_less_exclusions.txt	LTP258	ltpFR	17	9	0	DINER	467	n/a	1	1	0.412841796875	0.57763671875	lower	../fonts/zerothre.ttf
1265405	WORD	wordpools/wasnorm_wordpool_less_exclusions.txt	LTP258	ltpFR	17	9	1	DRESSER	496	n/a	0	0	0.5869140625	0.422607421875	upper	../fonts/amplitud.ttf
1269481	WORD	wordpools/wasnorm_wordpool_less_exclusions.txt	LTP258	ltpFR	17	9	1	BOOK	149	n/a	0	0	0.5869140625	0.422607421875	upper	../fonts/amplitud.ttf
1275207	REC_START	n/a	LTP258	ltpFR	17	9	n/a	n/a	n/a	n/a	n/a	n/a	n/a	n/a	n/a	n/a
1277061	REC_WORD	wordpools/wasnorm_wordpool_less_exclusions.txt	LTP258	ltpFR	17	9	1	DRESSER	496	n/a	0	n/a	n/a	n/a	n/a	n/a
1278102	REC_WORD	wordpools/wasnorm_wordpool_less_exclusions.txt	LTP258	ltpFR	17	9	1	BOOK	149	n/a	0	n/a	n/a	n/a	n/a	n/a
1279037	REC_WORD	wordpools/wasnorm_wordpool_less_exclusions.txt	LTP258	ltpFR	17	9	1	DRAWER	493	n/a	0	n/a	n/a	n/a	n/a	n/a
1296376	REC_WORD	wordpools/wasnorm_wordpool_less_exclusions.txt	LTP258	ltpFR	17	9	0	PORPOISE	1109	n/a	1	n/a	n/a	n/a	n/a	n/a
1297526	REC_WORD	wordpools/wasnorm_wordpool_less_exclusions.txt	LTP258	ltpFR	17	9	1	REPTILE	1185	n/a	1	n/a	n/a	n/a	n/a	n/a
1298697	REC_WORD	wordpools/wasnorm_wordpool_less_exclusions.txt	LTP258	ltpFR	17	9	1	LIZARD	834	n/a	1	n/a	n/a	n/a	n/a	n/a
1354422	WORD	wordpools/wasnorm_wordpool_less_exclusions.txt	LTP258	ltpFR	17	10	1	KIDNEY	776	n/a	1	0	0.5869140625	0.422607421875	upper	../fonts/amplitud.ttf
1358249	WORD	wordpools/wasnorm_wordpool_less_exclusions.txt	LTP258	ltpFR	17	10	1	CAR	241	n/a	0	0	0.5869140625	0.422607421875	upper	../fonts/amplitud.ttf
1362443	WORD	wordpools/wasnorm_wordpool_less_exclusions.txt	LTP258	ltpFR	17	10	1	GRAPE	654	n/a	1	0	0.5869140625	0.422607421875	upper	../fonts/amplitud.ttf
1366387	WORD	wordpools/wasnorm_wordpool_less_exclusions.txt	LTP258	ltpFR	17	10	1	JUG	762	n/a	0	0	0.5869140625	0.422607421875	upper	../fonts/amplitud.ttf
1370281	WORD	wordpools/wasnorm_wordpool_less_exclusions.txt	LTP258	ltpFR	17	10	1	DRILL	497	n/a	0	0	0.5869140625	0.422607421875	upper	../fonts/amplitud.ttf
1374474	WORD	wordpools/wasnorm_wordpool_less_exclusions.txt	LTP258	ltpFR	17	10	1	CHERRY	293	n/a	1	0	0.5869140625	0.422607421875	upper	../fonts/amplitud.ttf
1378551	WORD	wordpools/wasnorm_wordpool_less_exclusions.txt	LTP258	ltpFR	17	10	1	TECHNICIAN	1443	n/a	1	0	0.5869140625	0.422607421875	upper	../fonts/amplitud.ttf
1382462	WORD	wordpools/wasnorm_wordpool_less_exclusions.txt	LTP258	ltpFR	17	10	1	PEBBLE	1035	n/a	0	0	0.5869140625	0.422607421875	upper	../fonts/amplitud.ttf
1386606	WORD	wordpools/wasnorm_wordpool_less_exclusions.txt	LTP258	ltpFR	17	10	1	MANAGER	863	n/a	1	0	0.5869140625	0.422607421875	upper	../fonts/amplitud.ttf
1390517	WORD	wordpools/wasnorm_wordpool_less_exclusions.txt	LTP258	ltpFR	17	10	1	CORPORATION	382	n/a	1	0	0.5869140625	0.422607421875	upper	../fonts/amplitud.ttf
1394412	WORD	wordpools/wasnorm_wordpool_less_exclusions.txt	LTP258	ltpFR	17	10	1	BLUEBERRY	140	n/a	1	0	0.5869140625	0.422607421875	upper	../fonts/amplitud.ttf
1398256	WORD	wordpools/wasnorm_wordpool_less_exclusions.txt	LTP258	ltpFR	17	10	1	FROG	608	n/a	1	0	0.5869140625	0.422607421875	upper	../fonts/amplitud.ttf
1402217	WORD	wordpools/wasnorm_wordpool_less_exclusions.txt	LTP258	ltpFR	17	10	1	POLITICIAN	1099	n/a	1	0	0.5869140625	0.422607421875	upper	../fonts/amplitud.ttf
1406377	WORD	wordpools/wasnorm_wordpool_less_exclusions.txt	LTP258	ltpFR	17	10	1	CURTAIN	427	n/a	0	0	0.5869140625	0.422607421875	upper	../fonts/amplitud.ttf
1410504	WORD	wordpools/wasnorm_wordpool_less_exclusions.txt	LTP258	ltpFR	17	10	1	CHICK	296	n/a	1	0	0.5869140625	0.422607421875	upper	../fonts/amplitud.ttf
1414399	WORD	wordpools/wasnorm_wordpool_less_exclusions.txt	LTP258	ltpFR	17	10	1	HEN	703	n/a	1	0	0.5869140625	0.422607421875	upper	../fonts/amplitud.ttf
1420274	REC_START	n/a	LTP258	ltpFR	17	10	n/a	n/a	n/a	n/a	n/a	n/a	n/a	n/a	n/a	n/a
1421457	REC_WORD	wordpools/wasnorm_wordpool_less_exclusions.txt	LTP258	ltpFR	17	10	1	CHICK	296	n/a	1	n/a	n/a	n/a	n/a	n/a
1422287	REC_WORD	wordpools/wasnorm_wordpool_less_exclusions.txt	LTP258	ltpFR	17	10	1	HEN	703	n/a	1	n/a	n/a	n/a	n/a	n/a
1422882	REC_WORD	wordpools/wasnorm_wordpool_less_exclusions.txt	LTP258	ltpFR	17	10	1	POLITICIAN	1099	n/a	1	n/a	n/a	n/a	n/a	n/a
1425135	REC_WORD	wordpools/wasnorm_wordpool_less_exclusions.txt	LTP258	ltpFR	17	10	1	GRAPE	654	n/a	1	n/a	n/a	n/a	n/a	n/a
1425922	REC_WORD	wordpools/wasnorm_wordpool_less_exclusions.txt	LTP258	ltpFR	17	10	1	CHERRY	293	n/a	1	n/a	n/a	n/a	n/a	n/a
1426726	REC_WORD	wordpools/wasnorm_wordpool_less_exclusions.txt	LTP258	ltpFR	17	10	1	BLUEBERRY	140	n/a	1	n/a	n/a	n/a	n/a	n/a
1436088	REC_WORD	wordpools/wasnorm_wordpool_less_exclusions.txt	LTP258	ltpFR	17	10	1	KIDNEY	776	n/a	1	n/a	n/a	n/a	n/a	n/a
1447524	REC_WORD	wordpools/wasnorm_wordpool_less_exclusions.txt	LTP258	ltpFR	17	10	1	FROG	608	n/a	1	n/a	n/a	n/a	n/a	n/a
1476247	REC_WORD	wordpools/wasnorm_wordpool_less_exclusions.txt	LTP258	ltpFR	17	10	1	JUG	762	n/a	0	n/a	n/a	n/a	n/a	n/a
1499189	WORD	wordpools/wasnorm_wordpool_less_exclusions.txt	LTP258	ltpFR	17	11	1	PLANT	1083	n/a	1	0	0.5869140625	0.422607421875	upper	../fonts/amplitud.ttf
1503083	WORD	wordpools/wasnorm_wordpool_less_exclusions.txt	LTP258	ltpFR	17	11	1	MECHANIC	884	n/a	1	0	0.5869140625	0.422607421875	upper	../fonts/amplitud.ttf
1507194	WORD	wordpools/wasnorm_wordpool_less_exclusions.txt	LTP258	ltpFR	17	11	1	ASSISTANT	48	n/a	1	0	0.5869140625	0.422607421875	upper	../fonts/amplitud.ttf
1511171	WORD	wordpools/wasnorm_wordpool_less_exclusions.txt	LTP258	ltpFR	17	11	1	ACTRESS	6	n/a	1	0	0.5869140625	0.422607421875	upper	../fonts/amplitud.ttf
1515198	WORD	wordpools/wasnorm_wordpool_less_exclusions.txt	LTP258	ltpFR	17	11	1	COURSE	390	n/a	0	0	0.5869140625	0.422607421875	upper	../fonts/amplitud.ttf
1519292	WORD	wordpools/wasnorm_wordpool_less_exclusions.txt	LTP258	ltpFR	17	11	1	LADY	794	n/a	1	0	0.5869140625	0.422607421875	upper	../fonts/amplitud.ttf
1523501	WORD	wordpools/wasnorm_wordpool_less_exclusions.txt	LTP258	ltpFR	17	11	1	WOMAN	1620	n/a	1	0	0.5869140625	0.422607421875	upper	../fonts/amplitud.ttf
1527330	WORD	wordpools/wasnorm_wordpool_less_exclusions.txt	LTP258	ltpFR	17	11	1	STONE	1385	n/a	0	0	0.5869140625	0.422607421875	upper	../fonts/amplitud.ttf
1531407	WORD	wordpools/wasnorm_wordpool_less_exclusions.txt	LTP258	ltpFR	17	11	1	SIDEWALK	1303	n/a	0	0	0.5869140625	0.422607421875	upper	../fonts/amplitud.ttf
1535318	WORD	wordpools/wasnorm_wordpool_less_exclusions.txt	LTP258	ltpFR	17	11	1	WEED	1599	n/a	1	0	0.5869140625	0.422607421875	upper	../fonts/amplitud.ttf
1539379	WORD	wordpools/wasnorm_wordpool_less_exclusions.txt	LTP258	ltpFR	17	11	1	FOUNTAIN	597	n/a	0	0	0.5869140625	0.422607421875	upper	../fonts/amplitud.ttf
1543240	WORD	wordpools/wasnorm_wordpool_less_exclusions.txt	LTP258	ltpFR	17	11	1	PIER	1063	n/a	1	0	0.5869140625	0.422607421875	upper	../fonts/amplitud.ttf
1547067	WORD	wordpools/wasnorm_wordpool_less_exclusions.txt	LTP258	ltpFR	17	11	1	CARPET	247	n/a	0	0	0.5869140625	0.422607421875	upper	../fonts/amplitud.ttf
1551228	WORD	wordpools/wasnorm_wordpool_less_exclusions.txt	LTP258	ltpFR	17	11	1	BLOCKADE	137	n/a	0	0	0.5869140625	0.422607421875	upper	../fonts/amplitud.ttf
1555322	WORD	wordpools/wasnorm_wordpool_less_exclusions.txt	LTP258	ltpFR	17	11	1	BATHTUB	100	n/a	0	0	0.5869140625	0.422607421875	upper	../fonts/amplitud.ttf
1559232	WORD	wordpools/wasnorm_wordpool_less_exclusions.txt	LTP258	ltpFR	17	11	1	TRUCK	1512	n/a	0	0	0.5869140625	0.422607421875	upper	../fonts/amplitud.ttf
1564875	REC_START	n/a	LTP258	ltpFR	17	11	n/a	n/a	n/a	n/a	n/a	n/a	n/a	n/a	n/a	n/a
1566393	REC_WORD	wordpools/wasnorm_wordpool_less_exclusions.txt	LTP258	ltpFR	17	11	1	TRUCK	1512	n/a	0	n/a	n/a	n/a	n/a	n/a
1567367	REC_WORD	wordpools/wasnorm_wordpool_less_exclusions.txt	LTP258	ltpFR	17	11	1	BATHTUB	100	n/a	0	n/a	n/a	n/a	n/a	n/a
1569273	REC_WORD	wordpools/wasnorm_wordpool_less_exclusions.txt	LTP258	ltpFR	17	11	1	PIER	1063	n/a	1	n/a	n/a	n/a	n/a	n/a
1571135	REC_WORD	wordpools/wasnorm_wordpool_less_exclusions.txt	LTP258	ltpFR	17	11	1	WOMAN	1620	n/a	1	n/a	n/a	n/a	n/a	n/a
1571925	REC_WORD	wordpools/wasnorm_wordpool_less_exclusions.txt	LTP258	ltpFR	17	11	1	LADY	794	n/a	1	n/a	n/a	n/a	n/a	n/a
1572879	REC_WORD	wordpools/wasnorm_wordpool_less_exclusions.txt	LTP258	ltpFR	17	11	1	CARPET	247	n/a	0	n/a	n/a	n/a	n/a	n/a
1573899	REC_WORD	wordpools/wasnorm_wordpool_less_exclusions.txt	LTP258	ltpFR	17	11	1	ACTRESS	6	n/a	1	n/a	n/a	n/a	n/a	n/a
1575752	REC_WORD	wordpools/wasnorm_wordpool_less_exclusions.txt	LTP258	ltpFR	17	11	1	ASSISTANT	48	n/a	1	n/a	n/a	n/a	n/a	n/a
1577243	REC_WORD	wordpools/wasnorm_wordpool_less_exclusions.txt	LTP258	ltpFR	17	11	1	MECHANIC	884	n/a	1	n/a	n/a	n/a	n/a	n/a
1581227	REC_WORD	wordpools/wasnorm_wordpool_less_exclusions.txt	LTP258	ltpFR	17	11	1	PLANT	1083	n/a	1	n/a	n/a	n/a	n/a	n/a
1582276	REC_WORD	wordpools/wasnorm_wordpool_less_exclusions.txt	LTP258	ltpFR	17	11	1	WEED	1599	n/a	1	n/a	n/a	n/a	n/a	n/a
1643723	WORD	wordpools/wasnorm_wordpool_less_exclusions.txt	LTP258	ltpFR	17	12	-1	TOWEL	1489	n/a	-1	1	1.0	1.0	upper	../fonts/Verdana.ttf
1647800	WORD	wordpools/wasnorm_wordpool_less_exclusions.txt	LTP258	ltpFR	17	12	-1	OAR	966	n/a	-1	1	1.0	1.0	upper	../fonts/Verdana.ttf
1651794	WORD	wordpools/wasnorm_wordpool_less_exclusions.txt	LTP258	ltpFR	17	12	-1	BRIDGE	174	n/a	-1	1	1.0	1.0	upper	../fonts/Verdana.ttf
1655971	WORD	wordpools/wasnorm_wordpool_less_exclusions.txt	LTP258	ltpFR	17	12	-1	CASTLE	256	n/a	-1	1	1.0	1.0	upper	../fonts/Verdana.ttf
1659999	WORD	wordpools/wasnorm_wordpool_less_exclusions.txt	LTP258	ltpFR	17	12	-1	CAFE	216	n/a	-1	1	1.0	1.0	upper	../fonts/Verdana.ttf
1663826	WORD	wordpools/wasnorm_wordpool_less_exclusions.txt	LTP258	ltpFR	17	12	-1	VACUUM	1543	n/a	-1	1	1.0	1.0	upper	../fonts/Verdana.ttf
1667704	WORD	wordpools/wasnorm_wordpool_less_exclusions.txt	LTP258	ltpFR	17	12	-1	LUGGAGE	847	n/a	-1	1	1.0	1.0	upper	../fonts/Verdana.ttf
1671731	WORD	wordpools/wasnorm_wordpool_less_exclusions.txt	LTP258	ltpFR	17	12	-1	MOTOR	922	n/a	-1	1	1.0	1.0	upper	../fonts/Verdana.ttf
1675708	WORD	wordpools/wasnorm_wordpool_less_exclusions.txt	LTP258	ltpFR	17	12	-1	CATTLE	261	n/a	-1	1	1.0	1.0	upper	../fonts/Verdana.ttf
1679869	WORD	wordpools/wasnorm_wordpool_less_exclusions.txt	LTP258	ltpFR	17	12	-1	MILK	895	n/a	-1	1	1.0	1.0	upper	../fonts/Verdana.ttf
1683830	WORD	wordpools/wasnorm_wordpool_less_exclusions.txt	LTP258	ltpFR	17	12	-1	CABIN	211	n/a	-1	1	1.0	1.0	upper	../fonts/Verdana.ttf
1687673	WORD	wordpools/wasnorm_wordpool_less_exclusions.txt	LTP258	ltpFR	17	12	-1	HOUSE	725	n/a	-1	1	1.0	1.0	upper	../fonts/Verdana.ttf
1691718	WORD	wordpools/wasnorm_wordpool_less_exclusions.txt	LTP258	ltpFR	17	12	-1	CUSTARD	429	n/a	-1	1	1.0	1.0	upper	../fonts/Verdana.ttf
1695545	WORD	wordpools/wasnorm_wordpool_less_exclusions.txt	LTP258	ltpFR	17	12	-1	LANDSCAPE	799	n/a	-1	1	1.0	1.0	upper	../fonts/Verdana.ttf
1699406	WORD	wordpools/wasnorm_wordpool_less_exclusions.txt	LTP258	ltpFR	17	12	-1	POTTERY	1116	n/a	-1	1	1.0	1.0	upper	../fonts/Verdana.ttf
1703583	WORD	wordpools/wasnorm_wordpool_less_exclusions.txt	LTP258	ltpFR	17	12	-1	ENGINE	535	n/a	-1	1	1.0	1.0	upper	../fonts/Verdana.ttf
1709492	REC_START	n/a	LTP258	ltpFR	17	12	n/a	n/a	n/a	n/a	n/a	n/a	n/a	n/a	n/a	n/a
1711132	REC_WORD	wordpools/wasnorm_wordpool_less_exclusions.txt	LTP258	ltpFR	17	12	-1	ENGINE	535	n/a	-1	n/a	n/a	n/a	n/a	n/a
1712464	REC_WORD	wordpools/wasnorm_wordpool_less_exclusions.txt	LTP258	ltpFR	17	12	-1	LANDSCAPE	799	n/a	-1	n/a	n/a	n/a	n/a	n/a
1714056	REC_WORD	wordpools/wasnorm_wordpool_less_exclusions.txt	LTP258	ltpFR	17	12	-1	POTTERY	1116	n/a	-1	n/a	n/a	n/a	n/a	n/a
1720058	REC_WORD	wordpools/wasnorm_wordpool_less_exclusions.txt	LTP258	ltpFR	17	12	-1	CATTLE	261	n/a	-1	n/a	n/a	n/a	n/a	n/a
1732309	REC_WORD	wordpools/wasnorm_wordpool_less_exclusions.txt	LTP258	ltpFR	17	12	-1	BRIDGE	174	n/a	-1	n/a	n/a	n/a	n/a	n/a
1733219	REC_WORD	wordpools/wasnorm_wordpool_less_exclusions.txt	LTP258	ltpFR	17	12	-1	CASTLE	256	n/a	-1	n/a	n/a	n/a	n/a	n/a
1734781	REC_WORD	wordpools/wasnorm_wordpool_less_exclusions.txt	LTP258	ltpFR	17	12	-1	MOTOR	922	n/a	-1	n/a	n/a	n/a	n/a	n/a
1740432	REC_WORD	wordpools/wasnorm_wordpool_less_exclusions.txt	LTP258	ltpFR	17	12	-1	CAFE	216	n/a	-1	n/a	n/a	n/a	n/a	n/a
1744546	REC_WORD	wordpools/wasnorm_wordpool_less_exclusions.txt	LTP258	ltpFR	17	12	-1	HOUSE	725	n/a	-1	n/a	n/a	n/a	n/a	n/a
1748470	REC_WORD	wordpools/wasnorm_wordpool_less_exclusions.txt	LTP258	ltpFR	17	12	-1	TOWEL	1489	n/a	-1	n/a	n/a	n/a	n/a	n/a
1764897	REC_WORD	wordpools/wasnorm_wordpool_less_exclusions.txt	LTP258	ltpFR	17	12	-1	OAR	966	n/a	-1	n/a	n/a	n/a	n/a	n/a
1780185	REC_WORD	wordpools/wasnorm_wordpool_less_exclusions.txt	LTP258	ltpFR	17	12	-1	CABIN	211	n/a	-1	n/a	n/a	n/a	n/a	n/a
1785095	REST_REWET	n/a	LTP258	ltpFR	17	12	n/a	n/a	n/a	n/a	n/a	n/a	n/a	n/a	n/a	n/a
2241697	WORD	wordpools/wasnorm_wordpool_less_exclusions.txt	LTP258	ltpFR	17	13	0	RODENT	1204	n/a	1	1	0.412841796875	0.57763671875	lower	../fonts/zerothre.ttf
2245623	WORD	wordpools/wasnorm_wordpool_less_exclusions.txt	LTP258	ltpFR	17	13	0	MOUSE	925	n/a	0	1	0.412841796875	0.57763671875	lower	../fonts/zerothre.ttf
2249718	WORD	wordpools/wasnorm_wordpool_less_exclusions.txt	LTP258	ltpFR	17	13	1	RUNNER	1218	n/a	1	0	0.5869140625	0.422607421875	upper	../fonts/amplitud.ttf
2253595	WORD	wordpools/wasnorm_wordpool_less_exclusions.txt	LTP258	ltpFR	17	13	1	PATH	1023	n/a	0	0	0.5869140625	0.422607421875	upper	../fonts/amplitud.ttf
2257589	WORD	wordpools/wasnorm_wordpool_less_exclusions.txt	LTP258	ltpFR	17	13	0	PIKE	1067	n/a	0	1	0.412841796875	0.57763671875	lower	../fonts/zerothre.ttf
2261533	WORD	wordpools/wasnorm_wordpool_less_exclusions.txt	LTP258	ltpFR	17	13	0	MERMAID	887	n/a	1	1	0.412841796875	0.57763671875	lower	../fonts/zerothre.ttf
2265660	WORD	wordpools/wasnorm_wordpool_less_exclusions.txt	LTP258	ltpFR	17	13	0	CART	250	n/a	0	1	0.412841796875	0.57763671875	lower	../fonts/zerothre.ttf
2269722	WORD	wordpools/wasnorm_wordpool_less_exclusions.txt	LTP258	ltpFR	17	13	0	SPAGHETTI	1346	n/a	0	1	0.412841796875	0.57763671875	lower	../fonts/zerothre.ttf
2273815	WORD	wordpools/wasnorm_wordpool_less_exclusions.txt	LTP258	ltpFR	17	13	0	GUITAR	670	n/a	1	1	0.412841796875	0.57763671875	lower	../fonts/zerothre.ttf
2277776	WORD	wordpools/wasnorm_wordpool_less_exclusions.txt	LTP258	ltpFR	17	13	0	DIGGER	464	n/a	1	1	0.412841796875	0.57763671875	lower	../fonts/zerothre.ttf
2281687	WORD	wordpools/wasnorm_wordpool_less_exclusions.txt	LTP258	ltpFR	17	13	1	JEEP	753	n/a	0	0	0.5869140625	0.422607421875	upper	../fonts/amplitud.ttf
2285831	WORD	wordpools/wasnorm_wordpool_less_exclusions.txt	LTP258	ltpFR	17	13	1	PLASTER	1085	n/a	0	0	0.5869140625	0.422607421875	upper	../fonts/amplitud.ttf
2289825	WORD	wordpools/wasnorm_wordpool_less_exclusions.txt	LTP258	ltpFR	17	13	1	TOMATO	1476	n/a	0	0	0.5869140625	0.422607421875	upper	../fonts/amplitud.ttf
2293919	WORD	wordpools/wasnorm_wordpool_less_exclusions.txt	LTP258	ltpFR	17	13	1	FOLLOWER	589	n/a	0	0	0.5869140625	0.422607421875	upper	../fonts/amplitud.ttf
2297813	WORD	wordpools/wasnorm_wordpool_less_exclusions.txt	LTP258	ltpFR	17	13	1	STEREO	1378	n/a	0	0	0.5869140625	0.422607421875	upper	../fonts/amplitud.ttf
2301640	WORD	wordpools/wasnorm_wordpool_less_exclusions.txt	LTP258	ltpFR	17	13	1	LOOP	844	n/a	0	0	0.5869140625	0.422607421875	upper	../fonts/amplitud.ttf
2307449	REC_START	n/a	LTP258	ltpFR	17	13	n/a	n/a	n/a	n/a	n/a	n/a	n/a	n/a	n/a	n/a
2311610	REC_WORD	wordpools/wasnorm_wordpool_less_exclusions.txt	LTP258	ltpFR	17	13	1	STEREO	1378	n/a	0	n/a	n/a	n/a	n/a	n/a
2312540	REC_WORD	wordpools/wasnorm_wordpool_less_exclusions.txt	LTP258	ltpFR	17	13	1	FOLLOWER	589	n/a	0	n/a	n/a	n/a	n/a	n/a
2313562	REC_WORD	wordpools/wasnorm_wordpool_less_exclusions.txt	LTP258	ltpFR	17	13	1	LOOP	844	n/a	0	n/a	n/a	n/a	n/a	n/a
2323634	REC_WORD	wordpools/wasnorm_wordpool_less_exclusions.txt	LTP258	ltpFR	17	13	1	RUNNER	1218	n/a	1	n/a	n/a	n/a	n/a	n/a
2324540	REC_WORD	wordpools/wasnorm_wordpool_less_exclusions.txt	LTP258	ltpFR	17	13	1	PATH	1023	n/a	0	n/a	n/a	n/a	n/a	n/a
2335044	REC_WORD	wordpools/wasnorm_wordpool_less_exclusions.txt	LTP258	ltpFR	17	13	0	RODENT	1204	n/a	1	n/a	n/a	n/a	n/a	n/a
2336021	REC_WORD	wordpools/wasnorm_wordpool_less_exclusions.txt	LTP258	ltpFR	17	13	0	MOUSE	925	n/a	0	n/a	n/a	n/a	n/a	n/a
2352344	REC_WORD	wordpools/wasnorm_wordpool_less_exclusions.txt	LTP258	ltpFR	17	13	0	MERMAID	887	n/a	1	n/a	n/a	n/a	n/a	n/a
2354481	REC_WORD	wordpools/wasnorm_wordpool_less_exclusions.txt	LTP258	ltpFR	17	13	0	PIKE	1067	n/a	0	n/a	n/a	n/a	n/a	n/a
2386697	WORD	wordpools/wasnorm_wordpool_less_exclusions.txt	LTP258	ltpFR	17	14	-1	OVEN	991	n/a	-1	1	1.0	1.0	upper	../fonts/Verdana.ttf
2390824	WORD	wordpools/wasnorm_wordpool_less_exclusions.txt	LTP258	ltpFR	17	14	-1	CLOSET	326	n/a	-1	1	1.0	1.0	upper	../fonts/Verdana.ttf
2394901	WORD	wordpools/wasnorm_wordpool_less_exclusions.txt	LTP258	ltpFR	17	14	-1	SINK	1309	n/a	-1	1	1.0	1.0	upper	../fonts/Verdana.ttf
2398829	WORD	wordpools/wasnorm_wordpool_less_exclusions.txt	LTP258	ltpFR	17	14	-1	WASHER	1592	n/a	-1	1	1.0	1.0	upper	../fonts/Verdana.ttf
2402873	WORD	wordpools/wasnorm_wordpool_less_exclusions.txt	LTP258	ltpFR	17	14	-1	GRIZZLY	662	n/a	-1	1	1.0	1.0	upper	../fonts/Verdana.ttf
2407016	WORD	wordpools/wasnorm_wordpool_less_exclusions.txt	LTP258	ltpFR	17	14	-1	TAG	1429	n/a	-1	1	1.0	1.0	upper	../fonts/Verdana.ttf
2411194	WORD	wordpools/wasnorm_wordpool_less_exclusions.txt	LTP258	ltpFR	17	14	-1	HEART	697	n/a	-1	1	1.0	1.0	upper	../fonts/Verdana.ttf
2415154	WORD	wordpools/wasnorm_wordpool_less_exclusions.txt	LTP258	ltpFR	17	14	-1	DONOR	485	n/a	-1	1	1.0	1.0	upper	../fonts/Verdana.ttf
2419098	WORD	wordpools/wasnorm_wordpool_less_exclusions.txt	LTP258	ltpFR	17	14	-1	CABBAGE	210	n/a	-1	1	1.0	1.0	upper	../fonts/Verdana.ttf
2423309	WORD	wordpools/wasnorm_wordpool_less_exclusions.txt	LTP258	ltpFR	17	14	-1	EMERALD	528	n/a	-1	1	1.0	1.0	upper	../fonts/Verdana.ttf
2427186	WORD	wordpools/wasnorm_wordpool_less_exclusions.txt	LTP258	ltpFR	17	14	-1	FATHER	554	n/a	-1	1	1.0	1.0	upper	../fonts/Verdana.ttf
2431114	WORD	wordpools/wasnorm_wordpool_less_exclusions.txt	LTP258	ltpFR	17	14	-1	CHAUFFEUR	283	n/a	-1	1	1.0	1.0	upper	../fonts/Verdana.ttf
2435158	WORD	wordpools/wasnorm_wordpool_less_exclusions.txt	LTP258	ltpFR	17	14	-1	TONGUE	1479	n/a	-1	1	1.0	1.0	upper	../fonts/Verdana.ttf
2439135	WORD	wordpools/wasnorm_wordpool_less_exclusions.txt	LTP258	ltpFR	17	14	-1	TREAT	1501	n/a	-1	1	1.0	1.0	upper	../fonts/Verdana.ttf
2443046	WORD	wordpools/wasnorm_wordpool_less_exclusions.txt	LTP258	ltpFR	17	14	-1	DASHBOARD	441	n/a	-1	1	1.0	1.0	upper	../fonts/Verdana.ttf
2447057	WORD	wordpools/wasnorm_wordpool_less_exclusions.txt	LTP258	ltpFR	17	14	-1	SNORKEL	1336	n/a	-1	1	1.0	1.0	upper	../fonts/Verdana.ttf
2453098	REC_START	n/a	LTP258	ltpFR	17	14	n/a	n/a	n/a	n/a	n/a	n/a	n/a	n/a	n/a	n/a
2455636	REC_WORD	wordpools/wasnorm_wordpool_less_exclusions.txt	LTP258	ltpFR	17	14	-1	TONGUE	1479	n/a	-1	n/a	n/a	n/a	n/a	n/a
2456332	REC_WORD	wordpools/wasnorm_wordpool_less_exclusions.txt	LTP258	ltpFR	17	14	-1	DASHBOARD	441	n/a	-1	n/a	n/a	n/a	n/a	n/a
2456939	REC_WORD	wordpools/wasnorm_wordpool_less_exclusions.txt	LTP258	ltpFR	17	14	-1	SNORKEL	1336	n/a	-1	n/a	n/a	n/a	n/a	n/a
2458658	REC_WORD	wordpools/wasnorm_wordpool_less_exclusions.txt	LTP258	ltpFR	17	14	-1	CHAUFFEUR	283	n/a	-1	n/a	n/a	n/a	n/a	n/a
2459467	REC_WORD	wordpools/wasnorm_wordpool_less_exclusions.txt	LTP258	ltpFR	17	14	-1	FATHER	554	n/a	-1	n/a	n/a	n/a	n/a	n/a
2460545	REC_WORD	wordpools/wasnorm_wordpool_less_exclusions.txt	LTP258	ltpFR	17	14	-1	CABBAGE	210	n/a	-1	n/a	n/a	n/a	n/a	n/a
2461350	REC_WORD	wordpools/wasnorm_wordpool_less_exclusions.txt	LTP258	ltpFR	17	14	-1	EMERALD	528	n/a	-1	n/a	n/a	n/a	n/a	n/a
2468608	REC_WORD	wordpools/wasnorm_wordpool_less_exclusions.txt	LTP258	ltpFR	17	14	-1	OVEN	991	n/a	-1	n/a	n/a	n/a	n/a	n/a
2470823	REC_WORD	wordpools/wasnorm_wordpool_less_exclusions.txt	LTP258	ltpFR	17	14	-1	SINK	1309	n/a	-1	n/a	n/a	n/a	n/a	n/a
2471742	REC_WORD	wordpools/wasnorm_wordpool_less_exclusions.txt	LTP258	ltpFR	17	14	-1	WASHER	1592	n/a	-1	n/a	n/a	n/a	n/a	n/a
2483675	REC_WORD	wordpools/wasnorm_wordpool_less_exclusions.txt	LTP258	ltpFR	17	14	-1	GRIZZLY	662	n/a	-1	n/a	n/a	n/a	n/a	n/a
2487072	REC_WORD	wordpools/wasnorm_wordpool_less_exclusions.txt	LTP258	ltpFR	17	14	-1	HEART	697	n/a	-1	n/a	n/a	n/a	n/a	n/a
2488156	REC_WORD	wordpools/wasnorm_wordpool_less_exclusions.txt	LTP258	ltpFR	17	14	-1	DONOR	485	n/a	-1	n/a	n/a	n/a	n/a	n/a
2489312	REC_WORD	wordpools/wasnorm_wordpool_less_exclusions.txt	LTP258	ltpFR	17	14	-1	TAG	1429	n/a	-1	n/a	n/a	n/a	n/a	n/a
2533378	WORD	wordpools/wasnorm_wordpool_less_exclusions.txt	LTP258	ltpFR	17	15	1	PHOTO	1055	n/a	0	0	0.5869140625	0.422607421875	upper	../fonts/amplitud.ttf
2537604	WORD	wordpools/wasnorm_wordpool_less_exclusions.txt	LTP258	ltpFR	17	15	1	LITERATURE	831	n/a	0	0	0.5869140625	0.422607421875	upper	../fonts/amplitud.ttf
2541799	WORD	wordpools/wasnorm_wordpool_less_exclusions.txt	LTP258	ltpFR	17	15	1	COLLAR	345	n/a	0	0	0.5869140625	0.422607421875	upper	../fonts/amplitud.ttf
2545693	WORD	wordpools/wasnorm_wordpool_less_exclusions.txt	LTP258	ltpFR	17	15	1	SOAP	1337	n/a	0	0	0.5869140625	0.422607421875	upper	../fonts/amplitud.ttf
2549720	WORD	wordpools/wasnorm_wordpool_less_exclusions.txt	LTP258	ltpFR	17	15	1	EXPERT	543	n/a	1	0	0.5869140625	0.422607421875	upper	../fonts/amplitud.ttf
2553797	WORD	wordpools/wasnorm_wordpool_less_exclusions.txt	LTP258	ltpFR	17	15	1	CANAL	226	n/a	0	0	0.5869140625	0.422607421875	upper	../fonts/amplitud.ttf
2557708	WORD	wordpools/wasnorm_wordpool_less_exclusions.txt	LTP258	ltpFR	17	15	1	WATERFALL	1595	n/a	0	0	0.5869140625	0.422607421875	upper	../fonts/amplitud.ttf
2561852	WORD	wordpools/wasnorm_wordpool_less_exclusions.txt	LTP258	ltpFR	17	15	1	SNOB	1335	n/a	1	0	0.5869140625	0.422607421875	upper	../fonts/amplitud.ttf
2565896	WORD	wordpools/wasnorm_wordpool_less_exclusions.txt	LTP258	ltpFR	17	15	1	WORKER	1621	n/a	1	0	0.5869140625	0.422607421875	upper	../fonts/amplitud.ttf
2570090	WORD	wordpools/wasnorm_wordpool_less_exclusions.txt	LTP258	ltpFR	17	15	1	LAPEL	800	n/a	0	0	0.5869140625	0.422607421875	upper	../fonts/amplitud.ttf
2573917	WORD	wordpools/wasnorm_wordpool_less_exclusions.txt	LTP258	ltpFR	17	15	1	CROCODILE	411	n/a	1	0	0.5869140625	0.422607421875	upper	../fonts/amplitud.ttf
2577928	WORD	wordpools/wasnorm_wordpool_less_exclusions.txt	LTP258	ltpFR	17	15	1	CREATURE	403	n/a	1	0	0.5869140625	0.422607421875	upper	../fonts/amplitud.ttf
2582088	WORD	wordpools/wasnorm_wordpool_less_exclusions.txt	LTP258	ltpFR	17	15	1	TAPE	1433	n/a	0	0	0.5869140625	0.422607421875	upper	../fonts/amplitud.ttf
2586199	WORD	wordpools/wasnorm_wordpool_less_exclusions.txt	LTP258	ltpFR	17	15	1	DISH	474	n/a	0	0	0.5869140625	0.422607421875	upper	../fonts/amplitud.ttf
2590343	WORD	wordpools/wasnorm_wordpool_less_exclusions.txt	LTP258	ltpFR	17	15	1	INVENTOR	743	n/a	1	0	0.5869140625	0.422607421875	upper	../fonts/amplitud.ttf
2594320	WORD	wordpools/wasnorm_wordpool_less_exclusions.txt	LTP258	ltpFR	17	15	1	ARCHITECT	36	n/a	1	0	0.5869140625	0.422607421875	upper	../fonts/amplitud.ttf
2599996	REC_START	n/a	LTP258	ltpFR	17	15	n/a	n/a	n/a	n/a	n/a	n/a	n/a	n/a	n/a	n/a
2602206	REC_WORD	wordpools/wasnorm_wordpool_less_exclusions.txt	LTP258	ltpFR	17	15	1	INVENTOR	743	n/a	1	n/a	n/a	n/a	n/a	n/a
2603136	REC_WORD	wordpools/wasnorm_wordpool_less_exclusions.txt	LTP258	ltpFR	17	15	1	ARCHITECT	36	n/a	1	n/a	n/a	n/a	n/a	n/a
2604465	REC_WORD	wordpools/wasnorm_wordpool_less_exclusions.txt	LTP258	ltpFR	17	15	1	TAPE	1433	n/a	0	n/a	n/a	n/a	n/a	n/a
2605338	REC_WORD	wordpools/wasnorm_wordpool_less_exclusions.txt	LTP258	ltpFR	17	15	1	DISH	474	n/a	0	n/a	n/a	n/a	n/a	n/a
2609302	REC_WORD	wordpools/wasnorm_wordpool_less_exclusions.txt	LTP258	ltpFR	17	15	1	COLLAR	345	n/a	0	n/a	n/a	n/a	n/a	n/a
2610233	REC_WORD	wordpools/wasnorm_wordpool_less_exclusions.txt	LTP258	ltpFR	17	15	1	LAPEL	800	n/a	0	n/a	n/a	n/a	n/a	n/a
2613965	REC_WORD	wordpools/wasnorm_wordpool_less_exclusions.txt	LTP258	ltpFR	17	15	1	CROCODILE	411	n/a	1	n/a	n/a	n/a	n/a	n/a
2619877	REC_WORD	wordpools/wasnorm_wordpool_less_exclusions.txt	LTP258	ltpFR	17	15	1	EXPERT	543	n/a	1	n/a	n/a	n/a	n/a	n/a
2621031	REC_WORD	wordpools/wasnorm_wordpool_less_exclusions.txt	LTP258	ltpFR	17	15	1	CANAL	226	n/a	0	n/a	n/a	n/a	n/a	n/a
2622688	REC_WORD	wordpools/wasnorm_wordpool_less_exclusions.txt	LTP258	ltpFR	17	15	1	SNOB	1335	n/a	1	n/a	n/a	n/a	n/a	n/a
2680540	WORD	wordpools/wasnorm_wordpool_less_exclusions.txt	LTP258	ltpFR	17	16	0	COOKBOOK	373	n/a	1	1	0.412841796875	0.57763671875	lower	../fonts/zerothre.ttf
2684484	WORD	wordpools/wasnorm_wordpool_less_exclusions.txt	LTP258	ltpFR	17	16	0	CUE	422	n/a	0	1	0.412841796875	0.57763671875	lower	../fonts/zerothre.ttf
2688346	WORD	wordpools/wasnorm_wordpool_less_exclusions.txt	LTP258	ltpFR	17	16	0	TICKET	1464	n/a	0	1	0.412841796875	0.57763671875	lower	../fonts/zerothre.ttf
2692340	WORD	wordpools/wasnorm_wordpool_less_exclusions.txt	LTP258	ltpFR	17	16	0	PADDLE	1000	n/a	0	1	0.412841796875	0.57763671875	lower	../fonts/zerothre.ttf
2696368	WORD	wordpools/wasnorm_wordpool_less_exclusions.txt	LTP258	ltpFR	17	16	0	ACROBAT	4	n/a	1	1	0.412841796875	0.57763671875	lower	../fonts/zerothre.ttf
2700577	WORD	wordpools/wasnorm_wordpool_less_exclusions.txt	LTP258	ltpFR	17	16	0	RIB	1188	n/a	1	1	0.412841796875	0.57763671875	lower	../fonts/zerothre.ttf
2704638	WORD	wordpools/wasnorm_wordpool_less_exclusions.txt	LTP258	ltpFR	17	16	0	COLESLAW	344	n/a	0	1	0.412841796875	0.57763671875	lower	../fonts/zerothre.ttf
2708549	WORD	wordpools/wasnorm_wordpool_less_exclusions.txt	LTP258	ltpFR	17	16	0	CRAB	397	n/a	0	1	0.412841796875	0.57763671875	lower	../fonts/zerothre.ttf
2712710	WORD	wordpools/wasnorm_wordpool_less_exclusions.txt	LTP258	ltpFR	17	16	0	HANGER	687	n/a	0	1	0.412841796875	0.57763671875	lower	../fonts/zerothre.ttf
2716553	WORD	wordpools/wasnorm_wordpool_less_exclusions.txt	LTP258	ltpFR	17	16	0	HAMPER	682	n/a	1	1	0.412841796875	0.57763671875	lower	../fonts/zerothre.ttf
2720531	WORD	wordpools/wasnorm_wordpool_less_exclusions.txt	LTP258	ltpFR	17	16	0	YARN	1631	n/a	0	1	0.412841796875	0.57763671875	lower	../fonts/zerothre.ttf
2724376	WORD	wordpools/wasnorm_wordpool_less_exclusions.txt	LTP258	ltpFR	17	16	0	PORT	1110	n/a	1	1	0.412841796875	0.57763671875	lower	../fonts/zerothre.ttf
2728585	WORD	wordpools/wasnorm_wordpool_less_exclusions.txt	LTP258	ltpFR	17	16	0	NOMAD	955	n/a	1	1	0.412841796875	0.57763671875	lower	../fonts/zerothre.ttf
2732747	WORD	wordpools/wasnorm_wordpool_less_exclusions.txt	LTP258	ltpFR	17	16	0	MUFFIN	929	n/a	0	1	0.412841796875	0.57763671875	lower	../fonts/zerothre.ttf
2736724	WORD	wordpools/wasnorm_wordpool_less_exclusions.txt	LTP258	ltpFR	17	16	0	PLAZA	1088	n/a	0	1	0.412841796875	0.57763671875	lower	../fonts/zerothre.ttf
2740752	WORD	wordpools/wasnorm_wordpool_less_exclusions.txt	LTP258	ltpFR	17	16	0	CHEERLEADER	288	n/a	1	1	0.412841796875	0.57763671875	lower	../fonts/zerothre.ttf
2746361	REC_START	n/a	LTP258	ltpFR	17	16	n/a	n/a	n/a	n/a	n/a	n/a	n/a	n/a	n/a	n/a
2750999	REC_WORD	wordpools/wasnorm_wordpool_less_exclusions.txt	LTP258	ltpFR	17	16	0	CHEERLEADER	288	n/a	1	n/a	n/a	n/a	n/a	n/a
2752060	REC_WORD	wordpools/wasnorm_wordpool_less_exclusions.txt	LTP258	ltpFR	17	16	0	NOMAD	955	n/a	1	n/a	n/a	n/a	n/a	n/a
2753154	REC_WORD	wordpools/wasnorm_wordpool_less_exclusions.txt	LTP258	ltpFR	17	16	0	PORT	1110	n/a	1	n/a	n/a	n/a	n/a	n/a
2755617	REC_WORD	wordpools/wasnorm_wordpool_less_exclusions.txt	LTP258	ltpFR	17	16	0	RIB	1188	n/a	1	n/a	n/a	n/a	n/a	n/a
2757190	REC_WORD	wordpools/wasnorm_wordpool_less_exclusions.txt	LTP258	ltpFR	17	16	0	COLESLAW	344	n/a	0	n/a	n/a	n/a	n/a	n/a
2759489	REC_WORD	wordpools/wasnorm_wordpool_less_exclusions.txt	LTP258	ltpFR	17	16	0	MUFFIN	929	n/a	0	n/a	n/a	n/a	n/a	n/a
2780431	REC_WORD	wordpools/wasnorm_wordpool_less_exclusions.txt	LTP258	ltpFR	17	16	0	PADDLE	1000	n/a	0	n/a	n/a	n/a	n/a	n/a
2784191	REC_WORD	wordpools/wasnorm_wordpool_less_exclusions.txt	LTP258	ltpFR	17	16	0	CUE	422	n/a	0	n/a	n/a	n/a	n/a	n/a
2838722	REC_START	n/a	LTP258	ltpFR	17	n/a	n/a	n/a	n/a	n/a	n/a	n/a	n/a	n/a	n/a	n/a
2840982	FFR_REC_WORD	wordpools/wasnorm_wordpool_less_exclusions.txt	LTP258	ltpFR	17	n/a	0	PADDLE	1000	n/a	0	n/a	n/a	n/a	n/a	n/a
2841675	FFR_REC_WORD	wordpools/wasnorm_wordpool_less_exclusions.txt	LTP258	ltpFR	17	n/a	0	CUE	422	n/a	0	n/a	n/a	n/a	n/a	n/a
2855623	FFR_REC_WORD	wordpools/wasnorm_wordpool_less_exclusions.txt	LTP258	ltpFR	17	n/a	1	HORSE	719	n/a	1	n/a	n/a	n/a	n/a	n/a
2856691	FFR_REC_WORD	wordpools/wasnorm_wordpool_less_exclusions.txt	LTP258	ltpFR	17	n/a	0	VET	1560	n/a	1	n/a	n/a	n/a	n/a	n/a
2857754	FFR_REC_WORD	wordpools/wasnorm_wordpool_less_exclusions.txt	LTP258	ltpFR	17	n/a	-1	DOG	480	n/a	-1	n/a	n/a	n/a	n/a	n/a
2859834	FFR_REC_WORD	wordpools/wasnorm_wordpool_less_exclusions.txt	LTP258	ltpFR	17	n/a	1	CROCODILE	411	n/a	1	n/a	n/a	n/a	n/a	n/a
2861187	FFR_REC_WORD	wordpools/wasnorm_wordpool_less_exclusions.txt	LTP258	ltpFR	17	n/a	1	REPTILE	1185	n/a	1	n/a	n/a	n/a	n/a	n/a
2862293	FFR_REC_WORD	wordpools/wasnorm_wordpool_less_exclusions.txt	LTP258	ltpFR	17	n/a	1	FROG	608	n/a	1	n/a	n/a	n/a	n/a	n/a
2863361	FFR_REC_WORD	wordpools/wasnorm_wordpool_less_exclusions.txt	LTP258	ltpFR	17	n/a	1	LIZARD	834	n/a	1	n/a	n/a	n/a	n/a	n/a
2864518	FFR_REC_WORD	wordpools/wasnorm_wordpool_less_exclusions.txt	LTP258	ltpFR	17	n/a	0	SERPENT	1270	n/a	0	n/a	n/a	n/a	n/a	n/a
2865835	FFR_REC_WORD	wordpools/wasnorm_wordpool_less_exclusions.txt	LTP258	ltpFR	17	n/a	0	COBRA	336	n/a	0	n/a	n/a	n/a	n/a	n/a
2867995	FFR_REC_WORD	wordpools/wasnorm_wordpool_less_exclusions.txt	LTP258	ltpFR	17	n/a	-1	CATTLE	261	n/a	-1	n/a	n/a	n/a	n/a	n/a
2869138	FFR_REC_WORD	wordpools/wasnorm_wordpool_less_exclusions.txt	LTP258	ltpFR	17	n/a	0	BULL	193	n/a	1	n/a	n/a	n/a	n/a	n/a
2880706	FFR_REC_WORD	wordpools/wasnorm_wordpool_less_exclusions.txt	LTP258	ltpFR	17	n/a	0	MERMAID	887	n/a	1	n/a	n/a	n/a	n/a	n/a
2886937	FFR_REC_WORD	wordpools/wasnorm_wordpool_less_exclusions.txt	LTP258	ltpFR	17	n/a	1	ANTELOPE	27	n/a	1	n/a	n/a	n/a	n/a	n/a
2890175	FFR_REC_WORD	wordpools/wasnorm_wordpool_less_exclusions.txt	LTP258	ltpFR	17	n/a	0	PORPOISE	1109	n/a	1	n/a	n/a	n/a	n/a	n/a
2898645	FFR_REC_WORD	wordpools/wasnorm_wordpool_less_exclusions.txt	LTP258	ltpFR	17	n/a	1	MECHANIC	884	n/a	1	n/a	n/a	n/a	n/a	n/a
2901664	FFR_REC_WORD	wordpools/wasnorm_wordpool_less_exclusions.txt	LTP258	ltpFR	17	n/a	1	WOMAN	1620	n/a	1	n/a	n/a	n/a	n/a	n/a
2902462	FFR_REC_WORD	wordpools/wasnorm_wordpool_less_exclusions.txt	LTP258	ltpFR	17	n/a	1	LADY	794	n/a	1	n/a	n/a	n/a	n/a	n/a
2903569	FFR_REC_WORD	wordpools/wasnorm_wordpool_less_exclusions.txt	LTP258	ltpFR	17	n/a	1	ACTRESS	6	n/a	1	n/a	n/a	n/a	n/a	n/a
2904471	FFR_REC_WORD	wordpools/wasnorm_wordpool_less_exclusions.txt	LTP258	ltpFR	17	n/a	1	ASSISTANT	48	n/a	1	n/a	n/a	n/a	n/a	n/a
2905510	FFR_REC_WORD	wordpools/wasnorm_wordpool_less_exclusions.txt	LTP258	ltpFR	17	n/a	-1	SUPERVISOR	1410	n/a	-1	n/a	n/a	n/a	n/a	n/a
2906752	FFR_REC_WORD	wordpools/wasnorm_wordpool_less_exclusions.txt	LTP258	ltpFR	17	n/a	-1	BOSS	152	n/a	-1	n/a	n/a	n/a	n/a	n/a
2909770	FFR_REC_WORD	wordpools/wasnorm_wordpool_less_exclusions.txt	LTP258	ltpFR	17	n/a	1	RUNNER	1218	n/a	1	n/a	n/a	n/a	n/a	n/a
2921304	FFR_REC_WORD	wordpools/wasnorm_wordpool_less_exclusions.txt	LTP258	ltpFR	17	n/a	0	BOULEVARD	156	n/a	1	n/a	n/a	n/a	n/a	n/a
2922312	FFR_REC_WORD	wordpools/wasnorm_wordpool_less_exclusions.txt	LTP258	ltpFR	17	n/a	0	GRAVEL	659	n/a	0	n/a	n/a	n/a	n/a	n/a
2931276	FFR_REC_WORD	wordpools/wasnorm_wordpool_less_exclusions.txt	LTP258	ltpFR	17	n/a	1	POLITICIAN	1099	n/a	1	n/a	n/a	n/a	n/a	n/a
2941284	FFR_REC_WORD	wordpools/wasnorm_wordpool_less_exclusions.txt	LTP258	ltpFR	17	n/a	-1	OVEN	991	n/a	-1	n/a	n/a	n/a	n/a	n/a
2942870	FFR_REC_WORD	wordpools/wasnorm_wordpool_less_exclusions.txt	LTP258	ltpFR	17	n/a	-1	WASHER	1592	n/a	-1	n/a	n/a	n/a	n/a	n/a
2943872	FFR_REC_WORD	wordpools/wasnorm_wordpool_less_exclusions.txt	LTP258	ltpFR	17	n/a	-1	SINK	1309	n/a	-1	n/a	n/a	n/a	n/a	n/a
2947470	FFR_REC_WORD	wordpools/wasnorm_wordpool_less_exclusions.txt	LTP258	ltpFR	17	n/a	-1	GRIZZLY	662	n/a	-1	n/a	n/a	n/a	n/a	n/a
2949385	FFR_REC_WORD	wordpools/wasnorm_wordpool_less_exclusions.txt	LTP258	ltpFR	17	n/a	-1	HEART	697	n/a	-1	n/a	n/a	n/a	n/a	n/a
2950498	FFR_REC_WORD	wordpools/wasnorm_wordpool_less_exclusions.txt	LTP258	ltpFR	17	n/a	-1	DONOR	485	n/a	-1	n/a	n/a	n/a	n/a	n/a
2953725	FFR_REC_WORD	wordpools/wasnorm_wordpool_less_exclusions.txt	LTP258	ltpFR	17	n/a	1	KIDNEY	776	n/a	1	n/a	n/a	n/a	n/a	n/a
2954474	FFR_REC_WORD	wordpools/wasnorm_wordpool_less_exclusions.txt	LTP258	ltpFR	17	n/a	1	LUNG	850	n/a	0	n/a	n/a	n/a	n/a	n/a
2957143	FFR_REC_WORD	wordpools/wasnorm_wordpool_less_exclusions.txt	LTP258	ltpFR	17	n/a	0	ARTERY	41	n/a	0	n/a	n/a	n/a	n/a	n/a
2964521	FFR_REC_WORD	wordpools/wasnorm_wordpool_less_exclusions.txt	LTP258	ltpFR	17	n/a	-1	CABBAGE	210	n/a	-1	n/a	n/a	n/a	n/a	n/a
2966032	FFR_REC_WORD	wordpools/wasnorm_wordpool_less_exclusions.txt	LTP258	ltpFR	17	n/a	-1	EMERALD	528	n/a	-1	n/a	n/a	n/a	n/a	n/a
2967210	FFR_REC_WORD	wordpools/wasnorm_wordpool_less_exclusions.txt	LTP258	ltpFR	17	n/a	-1	FATHER	554	n/a	-1	n/a	n/a	n/a	n/a	n/a
2968335	FFR_REC_WORD	wordpools/wasnorm_wordpool_less_exclusions.txt	LTP258	ltpFR	17	n/a	-1	SIBLING	1301	n/a	-1	n/a	n/a	n/a	n/a	n/a
2970502	FFR_REC_WORD	wordpools/wasnorm_wordpool_less_exclusions.txt	LTP258	ltpFR	17	n/a	-1	CYLINDER	432	n/a	-1	n/a	n/a	n/a	n/a	n/a
2974119	FFR_REC_WORD	wordpools/wasnorm_wordpool_less_exclusions.txt	LTP258	ltpFR	17	n/a	-1	CHAUFFEUR	283	n/a	-1	n/a	n/a	n/a	n/a	n/a
2978110	FFR_REC_WORD	wordpools/wasnorm_wordpool_less_exclusions.txt	LTP258	ltpFR	17	n/a	-1	MOTOR	922	n/a	-1	n/a	n/a	n/a	n/a	n/a
2981797	FFR_REC_WORD	wordpools/wasnorm_wordpool_less_exclusions.txt	LTP258	ltpFR	17	n/a	-1	DASHBOARD	441	n/a	-1	n/a	n/a	n/a	n/a	n/a
2990562	FFR_REC_WORD	wordpools/wasnorm_wordpool_less_exclusions.txt	LTP258	ltpFR	17	n/a	0	HANGER	687	n/a	0	n/a	n/a	n/a	n/a	n/a
2996842	FFR_REC_WORD	wordpools/wasnorm_wordpool_less_exclusions.txt	LTP258	ltpFR	17	n/a	0	GRASS	655	n/a	0	n/a	n/a	n/a	n/a	n/a
3003807	FFR_REC_WORD	wordpools/wasnorm_wordpool_less_exclusions.txt	LTP258	ltpFR	17	n/a	0	LAKE	796	n/a	1	n/a	n/a	n/a	n/a	n/a
3007807	FFR_REC_WORD	wordpools/wasnorm_wordpool_less_exclusions.txt	LTP258	ltpFR	17	n/a	0	HERB	704	n/a	0	n/a	n/a	n/a	n/a	n/a
3008920	FFR_REC_WORD	wordpools/wasnorm_wordpool_less_exclusions.txt	LTP258	ltpFR	17	n/a	0	PARSLEY	1016	n/a	0	n/a	n/a	n/a	n/a	n/a
3011759	FFR_REC_WORD	wordpools/wasnorm_wordpool_less_exclusions.txt	LTP258	ltpFR	17	n/a	1	BLUEBERRY	140	n/a	1	n/a	n/a	n/a	n/a	n/a
3012706	FFR_REC_WORD	wordpools/wasnorm_wordpool_less_exclusions.txt	LTP258	ltpFR	17	n/a	1	CHERRY	293	n/a	1	n/a	n/a	n/a	n/a	n/a
3013544	FFR_REC_WORD	wordpools/wasnorm_wordpool_less_exclusions.txt	LTP258	ltpFR	17	n/a	1	GRAPE	654	n/a	1	n/a	n/a	n/a	n/a	n/a
3015939	FFR_REC_WORD	wordpools/wasnorm_wordpool_less_exclusions.txt	LTP258	ltpFR	17	n/a	0	COLESLAW	344	n/a	0	n/a	n/a	n/a	n/a	n/a
3021062	FFR_REC_WORD	wordpools/wasnorm_wordpool_less_exclusions.txt	LTP258	ltpFR	17	n/a	0	MUFFIN	929	n/a	0	n/a	n/a	n/a	n/a	n/a
3025692	FFR_REC_WORD	wordpools/wasnorm_wordpool_less_exclusions.txt	LTP258	ltpFR	17	n/a	0	DOUGHNUT	490	n/a	0	n/a	n/a	n/a	n/a	n/a
3032726	FFR_REC_WORD	wordpools/wasnorm_wordpool_less_exclusions.txt	LTP258	ltpFR	17	n/a	-1	SALAD	1224	n/a	-1	n/a	n/a	n/a	n/a	n/a
3037595	FFR_REC_WORD	wordpools/wasnorm_wordpool_less_exclusions.txt	LTP258	ltpFR	17	n/a	0	KLEENEX	782	n/a	0	n/a	n/a	n/a	n/a	n/a
3040842	FFR_REC_WORD	wordpools/wasnorm_wordpool_less_exclusions.txt	LTP258	ltpFR	17	n/a	-1	COUGAR	387	n/a	-1	n/a	n/a	n/a	n/a	n/a
3053399	FFR_REC_WORD	wordpools/wasnorm_wordpool_less_exclusions.txt	LTP258	ltpFR	17	n/a	0	JUPITER	765	n/a	1	n/a	n/a	n/a	n/a	n/a
3061570	FFR_REC_WORD	wordpools/wasnorm_wordpool_less_exclusions.txt	LTP258	ltpFR	17	n/a	0	RODENT	1204	n/a	1	n/a	n/a	n/a	n/a	n/a
3062468	FFR_REC_WORD	wordpools/wasnorm_wordpool_less_exclusions.txt	LTP258	ltpFR	17	n/a	0	MOUSE	925	n/a	0	n/a	n/a	n/a	n/a	n/a
3068355	FFR_REC_WORD	wordpools/wasnorm_wordpool_less_exclusions.txt	LTP258	ltpFR	17	n/a	1	STRAW	1390	n/a	0	n/a	n/a	n/a	n/a	n/a
3069527	FFR_REC_WORD	wordpools/wasnorm_wordpool_less_exclusions.txt	LTP258	ltpFR	17	n/a	0	OATS	968	n/a	0	n/a	n/a	n/a	n/a	n/a
3070695	FFR_REC_WORD	wordpools/wasnorm_wordpool_less_exclusions.txt	LTP258	ltpFR	17	n/a	0	TAIL	1430	n/a	0	n/a	n/a	n/a	n/a	n/a
3071612	FFR_REC_WORD	wordpools/wasnorm_wordpool_less_exclusions.txt	LTP258	ltpFR	17	n/a	0	ANIMAL	23	n/a	1	n/a	n/a	n/a	n/a	n/a
3079140	FFR_REC_WORD	wordpools/wasnorm_wordpool_less_exclusions.txt	LTP258	ltpFR	17	n/a	-1	CASTLE	256	n/a	-1	n/a	n/a	n/a	n/a	n/a
3081345	FFR_REC_WORD	wordpools/wasnorm_wordpool_less_exclusions.txt	LTP258	ltpFR	17	n/a	-1	HOUSE	725	n/a	-1	n/a	n/a	n/a	n/a	n/a
3082528	FFR_REC_WORD	wordpools/wasnorm_wordpool_less_exclusions.txt	LTP258	ltpFR	17	n/a	-1	CABIN	211	n/a	-1	n/a	n/a	n/a	n/a	n/a
3085167	FFR_REC_WORD	wordpools/wasnorm_wordpool_less_exclusions.txt	LTP258	ltpFR	17	n/a	-1	CAFE	216	n/a	-1	n/a	n/a	n/a	n/a	n/a
3108015	FFR_REC_WORD	wordpools/wasnorm_wordpool_less_exclusions.txt	LTP258	ltpFR	17	n/a	1	DRESSER	496	n/a	0	n/a	n/a	n/a	n/a	n/a
3112609	FFR_REC_WORD	wordpools/wasnorm_wordpool_less_exclusions.txt	LTP258	ltpFR	17	n/a	-1	APPLICATION	34	n/a	-1	n/a	n/a	n/a	n/a	n/a
3117820	FFR_REC_WORD	wordpools/wasnorm_wordpool_less_exclusions.txt	LTP258	ltpFR	17	n/a	-1	SWORD	1423	n/a	-1	n/a	n/a	n/a	n/a	n/a
3132224	FFR_REC_WORD	wordpools/wasnorm_wordpool_less_exclusions.txt	LTP258	ltpFR	17	n/a	0	ZOO	1637	n/a	1	n/a	n/a	n/a	n/a	n/a
3133138	FFR_REC_WORD	wordpools/wasnorm_wordpool_less_exclusions.txt	LTP258	ltpFR	17	n/a	0	ELEPHANT	523	n/a	1	n/a	n/a	n/a	n/a	n/a
3137608	FFR_REC_WORD	wordpools/wasnorm_wordpool_less_exclusions.txt	LTP258	ltpFR	17	n/a	0	CRAB	397	n/a	0	n/a	n/a	n/a	n/a	n/a
3166435	REC_START	n/a	LTP258	ltpFR	17	1	n/a	n/a	n/a	n/a	n/a	n/a	n/a	n/a	n/a	n/a
3166465	RECOG_LURE	n/a	LTP258	ltpFR	17	1	n/a	DINNER	468	3	n/a	n/a	n/a	n/a	n/a	n/a
3168610	RECOG_RESP	n/a	LTP258	ltpFR	17	1	n/a	DINNER	468	n/a	n/a	n/a	n/a	n/a	n/a	n/a
3169952	RECOG_CONF	n/a	LTP258	ltpFR	17	1	n/a	DINNER	468	3	n/a	n/a	n/a	n/a	n/a	n/a
3171758	RECOG_TARGET	n/a	LTP258	ltpFR	17	1	1	DRAWER	493	4	0	n/a	n/a	n/a	n/a	n/a
3172765	RECOG_RESP	n/a	LTP258	ltpFR	17	1	1	DRAWER	493	n/a	0	n/a	n/a	n/a	n/a	n/a
3173913	RECOG_CONF	n/a	LTP258	ltpFR	17	1	1	DRAWER	493	4	0	n/a	n/a	n/a	n/a	n/a
3175518	RECOG_LURE	n/a	LTP258	ltpFR	17	1	n/a	DUMP	505	4	n/a	n/a	n/a	n/a	n/a	n/a
3176721	RECOG_RESP	n/a	LTP258	ltpFR	17	1	n/a	DUMP	505	n/a	n/a	n/a	n/a	n/a	n/a	n/a
3177535	RECOG_CONF	n/a	LTP258	ltpFR	17	1	n/a	DUMP	505	4	n/a	n/a	n/a	n/a	n/a	n/a
3179247	RECOG_TARGET	n/a	LTP258	ltpFR	17	1	1	SLEEVE	1324	4	0	n/a	n/a	n/a	n/a	n/a
3180034	RECOG_RESP	n/a	LTP258	ltpFR	17	1	1	SLEEVE	1324	n/a	0	n/a	n/a	n/a	n/a	n/a
3180967	RECOG_CONF	n/a	LTP258	ltpFR	17	1	1	SLEEVE	1324	4	0	n/a	n/a	n/a	n/a	n/a
3182725	RECOG_TARGET	n/a	LTP258	ltpFR	17	1	1	TOILET	1475	5	0	n/a	n/a	n/a	n/a	n/a
3183371	RECOG_RESP	n/a	LTP258	ltpFR	17	1	1	TOILET	1475	n/a	0	n/a	n/a	n/a	n/a	n/a
3184199	RECOG_CONF	n/a	LTP258	ltpFR	17	1	1	TOILET	1475	5	0	n/a	n/a	n/a	n/a	n/a
3185987	RECOG_TARGET	n/a	LTP258	ltpFR	17	1	0	SCREWDRIVER	1255	5	0	n/a	n/a	n/a	n/a	n/a
3186674	RECOG_RESP	n/a	LTP258	ltpFR	17	1	0	SCREWDRIVER	1255	n/a	0	n/a	n/a	n/a	n/a	n/a
3187442	RECOG_CONF	n/a	LTP258	ltpFR	17	1	0	SCREWDRIVER	1255	5	0	n/a	n/a	n/a	n/a	n/a
3189132	RECOG_TARGET	n/a	LTP258	ltpFR	17	1	1	COOK	372	2	1	n/a	n/a	n/a	n/a	n/a
3190271	RECOG_RESP	n/a	LTP258	ltpFR	17	1	1	COOK	372	n/a	1	n/a	n/a	n/a	n/a	n/a
3191553	RECOG_CONF	n/a	LTP258	ltpFR	17	1	1	COOK	372	2	1	n/a	n/a	n/a	n/a	n/a
3193193	RECOG_TARGET	n/a	LTP258	ltpFR	17	1	1	LOUNGE	845	1	0	n/a	n/a	n/a	n/a	n/a
3199250	RECOG_RESP	n/a	LTP258	ltpFR	17	1	1	LOUNGE	845	n/a	0	n/a	n/a	n/a	n/a	n/a
3200093	RECOG_CONF	n/a	LTP258	ltpFR	17	1	1	LOUNGE	845	1	0	n/a	n/a	n/a	n/a	n/a
3201830	RECOG_TARGET	n/a	LTP258	ltpFR	17	1	1	RACCOON	1153	5	1	n/a	n/a	n/a	n/a	n/a
3202623	RECOG_RESP	n/a	LTP258	ltpFR	17	1	1	RACCOON	1153	n/a	1	n/a	n/a	n/a	n/a	n/a
3203356	RECOG_CONF	n/a	LTP258	ltpFR	17	1	1	RACCOON	1153	5	1	n/a	n/a	n/a	n/a	n/a
3205141	RECOG_TARGET	n/a	LTP258	ltpFR	17	1	1	WORKER	1621	2	1	n/a	n/a	n/a	n/a	n/a
3207102	RECOG_RESP	n/a	LTP258	ltpFR	17	1	1	WORKER	1621	n/a	1	n/a	n/a	n/a	n/a	n/a
3207916	RECOG_CONF	n/a	LTP258	ltpFR	17	1	1	WORKER	1621	2	1	n/a	n/a	n/a	n/a	n/a
3209567	RECOG_TARGET	n/a	LTP258	ltpFR	17	1	0	DENIM	446	5	0	n/a	n/a	n/a	n/a	n/a
3210270	RECOG_RESP	n/a	LTP258	ltpFR	17	1	0	DENIM	446	n/a	0	n/a	n/a	n/a	n/a	n/a
3211088	RECOG_CONF	n/a	LTP258	ltpFR	17	1	0	DENIM	446	5	0	n/a	n/a	n/a	n/a	n/a
3212813	RECOG_TARGET	n/a	LTP258	ltpFR	17	1	0	TIE	1466	4	0	n/a	n/a	n/a	n/a	n/a
3213787	RECOG_RESP	n/a	LTP258	ltpFR	17	1	0	TIE	1466	n/a	0	n/a	n/a	n/a	n/a	n/a
3215947	RECOG_CONF	n/a	LTP258	ltpFR	17	1	0	TIE	1466	4	0	n/a	n/a	n/a	n/a	n/a
3217622	RECOG_TARGET	n/a	LTP258	ltpFR	17	1	1	CHICK	296	5	1	n/a	n/a	n/a	n/a	n/a
3218287	RECOG_RESP	n/a	LTP258	ltpFR	17	1	1	CHICK	296	n/a	1	n/a	n/a	n/a	n/a	n/a
3218990	RECOG_CONF	n/a	LTP258	ltpFR	17	1	1	CHICK	296	5	1	n/a	n/a	n/a	n/a	n/a
3220751	RECOG_TARGET	n/a	LTP258	ltpFR	17	1	1	KIDNEY	776	5	1	n/a	n/a	n/a	n/a	n/a
3221570	RECOG_RESP	n/a	LTP258	ltpFR	17	1	1	KIDNEY	776	n/a	1	n/a	n/a	n/a	n/a	n/a
3223021	RECOG_CONF	n/a	LTP258	ltpFR	17	1	1	KIDNEY	776	5	1	n/a	n/a	n/a	n/a	n/a
3224795	RECOG_LURE	n/a	LTP258	ltpFR	17	1	n/a	HAND	683	3	n/a	n/a	n/a	n/a	n/a	n/a
3226922	RECOG_RESP	n/a	LTP258	ltpFR	17	1	n/a	HAND	683	n/a	n/a	n/a	n/a	n/a	n/a	n/a
3228140	RECOG_CONF	n/a	LTP258	ltpFR	17	1	n/a	HAND	683	3	n/a	n/a	n/a	n/a	n/a	n/a
3229788	RECOG_TARGET	n/a	LTP258	ltpFR	17	1	0	SIRLOIN	1311	3	0	n/a	n/a	n/a	n/a	n/a
3232350	RECOG_RESP	n/a	LTP258	ltpFR	17	1	0	SIRLOIN	1311	n/a	0	n/a	n/a	n/a	n/a	n/a
3233198	RECOG_CONF	n/a	LTP258	ltpFR	17	1	0	SIRLOIN	1311	3	0	n/a	n/a	n/a	n/a	n/a
3234980	RECOG_TARGET	n/a	LTP258	ltpFR	17	1	0	RESORT	1186	5	1	n/a	n/a	n/a	n/a	n/a
3235687	RECOG_RESP	n/a	LTP258	ltpFR	17	1	0	RESORT	1186	n/a	1	n/a	n/a	n/a	n/a	n/a
3236481	RECOG_CONF	n/a	LTP258	ltpFR	17	1	0	RESORT	1186	5	1	n/a	n/a	n/a	n/a	n/a
3238175	RECOG_TARGET	n/a	LTP258	ltpFR	17	1	1	STEW	1380	3	0	n/a	n/a	n/a	n/a	n/a
3242517	RECOG_RESP	n/a	LTP258	ltpFR	17	1	1	STEW	1380	n/a	0	n/a	n/a	n/a	n/a	n/a
3243694	RECOG_CONF	n/a	LTP258	ltpFR	17	1	1	STEW	1380	3	0	n/a	n/a	n/a	n/a	n/a
3245448	RECOG_LURE	n/a	LTP258	ltpFR	17	1	n/a	ROBOT	1200	5	n/a	n/a	n/a	n/a	n/a	n/a
3246418	RECOG_RESP	n/a	LTP258	ltpFR	17	1	n/a	ROBOT	1200	n/a	n/a	n/a	n/a	n/a	n/a	n/a
3247166	RECOG_CONF	n/a	LTP258	ltpFR	17	1	n/a	ROBOT	1200	5	n/a	n/a	n/a	n/a	n/a	n/a
3248926	RECOG_TARGET	n/a	LTP258	ltpFR	17	1	-1	FAIRY	549	4	-1	n/a	n/a	n/a	n/a	n/a
3249730	RECOG_RESP	n/a	LTP258	ltpFR	17	1	-1	FAIRY	549	n/a	-1	n/a	n/a	n/a	n/a	n/a
3250599	RECOG_CONF	n/a	LTP258	ltpFR	17	1	-1	FAIRY	549	4	-1	n/a	n/a	n/a	n/a	n/a
3253815	REC_START	n/a	LTP258	ltpFR	17	2	n/a	n/a	n/a	n/a	n/a	n/a	n/a	n/a	n/a	n/a
3253852	RECOG_TARGET	n/a	LTP258	ltpFR	17	2	0	SHRUB	1299	4	0	n/a	n/a	n/a	n/a	n/a
3254763	RECOG_RESP	n/a	LTP258	ltpFR	17	2	0	SHRUB	1299	n/a	0	n/a	n/a	n/a	n/a	n/a
3255586	RECOG_CONF	n/a	LTP258	ltpFR	17	2	0	SHRUB	1299	4	0	n/a	n/a	n/a	n/a	n/a
3257147	RECOG_TARGET	n/a	LTP258	ltpFR	17	2	0	VET	1560	5	1	n/a	n/a	n/a	n/a	n/a
3257906	RECOG_RESP	n/a	LTP258	ltpFR	17	2	0	VET	1560	n/a	1	n/a	n/a	n/a	n/a	n/a
3258699	RECOG_CONF	n/a	LTP258	ltpFR	17	2	0	VET	1560	5	1	n/a	n/a	n/a	n/a	n/a
3260359	RECOG_LURE	n/a	LTP258	ltpFR	17	2	n/a	QUARTER	1148	4	n/a	n/a	n/a	n/a	n/a	n/a
3261916	RECOG_RESP	n/a	LTP258	ltpFR	17	2	n/a	QUARTER	1148	n/a	n/a	n/a	n/a	n/a	n/a	n/a
3263368	RECOG_CONF	n/a	LTP258	ltpFR	17	2	n/a	QUARTER	1148	4	n/a	n/a	n/a	n/a	n/a	n/a
3265085	RECOG_TARGET	n/a	LTP258	ltpFR	17	2	1	LIST	830	3	0	n/a	n/a	n/a	n/a	n/a
3266087	RECOG_RESP	n/a	LTP258	ltpFR	17	2	1	LIST	830	n/a	0	n/a	n/a	n/a	n/a	n/a
3267090	RECOG_CONF	n/a	LTP258	ltpFR	17	2	1	LIST	830	3	0	n/a	n/a	n/a	n/a	n/a
3268830	RECOG_TARGET	n/a	LTP258	ltpFR	17	2	1	RUNNER	1218	5	1	n/a	n/a	n/a	n/a	n/a
3269724	RECOG_RESP	n/a	LTP258	ltpFR	17	2	1	RUNNER	1218	n/a	1	n/a	n/a	n/a	n/a	n/a
3271280	RECOG_CONF	n/a	LTP258	ltpFR	17	2	1	RUNNER	1218	5	1	n/a	n/a	n/a	n/a	n/a
3272924	RECOG_TARGET	n/a	LTP258	ltpFR	17	2	0	MUFFIN	929	5	0	n/a	n/a	n/a	n/a	n/a
3273864	RECOG_RESP	n/a	LTP258	ltpFR	17	2	0	MUFFIN	929	n/a	0	n/a	n/a	n/a	n/a	n/a
3274782	RECOG_CONF	n/a	LTP258	ltpFR	17	2	0	MUFFIN	929	5	0	n/a	n/a	n/a	n/a	n/a
3276634	RECOG_TARGET	n/a	LTP258	ltpFR	17	2	1	LUNG	850	5	0	n/a	n/a	n/a	n/a	n/a
3277321	RECOG_RESP	n/a	LTP258	ltpFR	17	2	1	LUNG	850	n/a	0	n/a	n/a	n/a	n/a	n/a
3278204	RECOG_CONF	n/a	LTP258	ltpFR	17	2	1	LUNG	850	5	0	n/a	n/a	n/a	n/a	n/a
3279930	RECOG_TARGET	n/a	LTP258	ltpFR	17	2	1	MANAGER	863	1	1	n/a	n/a	n/a	n/a	n/a
3281088	RECOG_RESP	n/a	LTP258	ltpFR	17	2	1	MANAGER	863	n/a	1	n/a	n/a	n/a	n/a	n/a
3282814	RECOG_CONF	n/a	LTP258	ltpFR	17	2	1	MANAGER	863	1	1	n/a	n/a	n/a	n/a	n/a
3284390	RECOG_TARGET	n/a	LTP258	ltpFR	17	2	-1	TROUT	1511	5	-1	n/a	n/a	n/a	n/a	n/a
3285268	RECOG_RESP	n/a	LTP258	ltpFR	17	2	-1	TROUT	1511	n/a	-1	n/a	n/a	n/a	n/a	n/a
3286096	RECOG_CONF	n/a	LTP258	ltpFR	17	2	-1	TROUT	1511	5	-1	n/a	n/a	n/a	n/a	n/a
3287851	RECOG_TARGET	n/a	LTP258	ltpFR	17	2	1	PHOTO	1055	5	0	n/a	n/a	n/a	n/a	n/a
3288486	RECOG_RESP	n/a	LTP258	ltpFR	17	2	1	PHOTO	1055	n/a	0	n/a	n/a	n/a	n/a	n/a
3289299	RECOG_CONF	n/a	LTP258	ltpFR	17	2	1	PHOTO	1055	5	0	n/a	n/a	n/a	n/a	n/a
3290947	RECOG_TARGET	n/a	LTP258	ltpFR	17	2	-1	SCALLOP	1242	5	-1	n/a	n/a	n/a	n/a	n/a
3291579	RECOG_RESP	n/a	LTP258	ltpFR	17	2	-1	SCALLOP	1242	n/a	-1	n/a	n/a	n/a	n/a	n/a
3292392	RECOG_CONF	n/a	LTP258	ltpFR	17	2	-1	SCALLOP	1242	5	-1	n/a	n/a	n/a	n/a	n/a
3294175	RECOG_LURE	n/a	LTP258	ltpFR	17	2	n/a	CARPENTER	246	1	n/a	n/a	n/a	n/a	n/a	n/a
3295984	RECOG_RESP	n/a	LTP258	ltpFR	17	2	n/a	CARPENTER	246	n/a	n/a	n/a	n/a	n/a	n/a	n/a
3297680	RECOG_CONF	n/a	LTP258	ltpFR	17	2	n/a	CARPENTER	246	1	n/a	n/a	n/a	n/a	n/a	n/a
3299451	RECOG_LURE	n/a	LTP258	ltpFR	17	2	n/a	LOVER	846	4	n/a	n/a	n/a	n/a	n/a	n/a
3300324	RECOG_RESP	n/a	LTP258	ltpFR	17	2	n/a	LOVER	846	n/a	n/a	n/a	n/a	n/a	n/a	n/a
3301202	RECOG_CONF	n/a	LTP258	ltpFR	17	2	n/a	LOVER	846	4	n/a	n/a	n/a	n/a	n/a	n/a
3302862	RECOG_TARGET	n/a	LTP258	ltpFR	17	2	-1	DESK	452	5	-1	n/a	n/a	n/a	n/a	n/a
3303662	RECOG_RESP	n/a	LTP258	ltpFR	17	2	-1	DESK	452	n/a	-1	n/a	n/a	n/a	n/a	n/a
3304395	RECOG_CONF	n/a	LTP258	ltpFR	17	2	-1	DESK	452	5	-1	n/a	n/a	n/a	n/a	n/a
3306057	RECOG_TARGET	n/a	LTP258	ltpFR	17	2	1	CASHIER	254	5	1	n/a	n/a	n/a	n/a	n/a
3307233	RECOG_RESP	n/a	LTP258	ltpFR	17	2	1	CASHIER	254	n/a	1	n/a	n/a	n/a	n/a	n/a
3308007	RECOG_CONF	n/a	LTP258	ltpFR	17	2	1	CASHIER	254	5	1	n/a	n/a	n/a	n/a	n/a
3309634	RECOG_TARGET	n/a	LTP258	ltpFR	17	2	1	REPTILE	1185	5	1	n/a	n/a	n/a	n/a	n/a
3311918	RECOG_RESP	n/a	LTP258	ltpFR	17	2	1	REPTILE	1185	n/a	1	n/a	n/a	n/a	n/a	n/a
3312656	RECOG_CONF	n/a	LTP258	ltpFR	17	2	1	REPTILE	1185	5	1	n/a	n/a	n/a	n/a	n/a
3314378	RECOG_TARGET	n/a	LTP258	ltpFR	17	2	1	PEBBLE	1035	3	0	n/a	n/a	n/a	n/a	n/a
3316353	RECOG_RESP	n/a	LTP258	ltpFR	17	2	1	PEBBLE	1035	n/a	0	n/a	n/a	n/a	n/a	n/a
3317236	RECOG_CONF	n/a	LTP258	ltpFR	17	2	1	PEBBLE	1035	3	0	n/a	n/a	n/a	n/a	n/a
3319055	RECOG_TARGET	n/a	LTP258	ltpFR	17	2	1	BLUEBERRY	140	5	1	n/a	n/a	n/a	n/a	n/a
3319900	RECOG_RESP	n/a	LTP258	ltpFR	17	2	1	BLUEBERRY	140	n/a	1	n/a	n/a	n/a	n/a	n/a
3320608	RECOG_CONF	n/a	LTP258	ltpFR	17	2	1	BLUEBERRY	140	5	1	n/a	n/a	n/a	n/a	n/a
3322233	RECOG_TARGET	n/a	LTP258	ltpFR	17	2	0	PERSON	1052	5	1	n/a	n/a	n/a	n/a	n/a
3323172	RECOG_RESP	n/a	LTP258	ltpFR	17	2	0	PERSON	1052	n/a	1	n/a	n/a	n/a	n/a	n/a
3323871	RECOG_CONF	n/a	LTP258	ltpFR	17	2	0	PERSON	1052	5	1	n/a	n/a	n/a	n/a	n/a
3325644	RECOG_TARGET	n/a	LTP258	ltpFR	17	2	-1	CAFE	216	5	-1	n/a	n/a	n/a	n/a	n/a
3330067	RECOG_RESP	n/a	LTP258	ltpFR	17	2	-1	CAFE	216	n/a	-1	n/a	n/a	n/a	n/a	n/a
3330705	RECOG_CONF	n/a	LTP258	ltpFR	17	2	-1	CAFE	216	5	-1	n/a	n/a	n/a	n/a	n/a
3341180	REC_START	n/a	LTP258	ltpFR	17	3	n/a	n/a	n/a	n/a	n/a	n/a	n/a	n/a	n/a	n/a
3341222	RECOG_TARGET	n/a	LTP258	ltpFR	17	3	0	CHEERLEADER	288	5	1	n/a	n/a	n/a	n/a	n/a
3342043	RECOG_RESP	n/a	LTP258	ltpFR	17	3	0	CHEERLEADER	288	n/a	1	n/a	n/a	n/a	n/a	n/a
3342791	RECOG_CONF	n/a	LTP258	ltpFR	17	3	0	CHEERLEADER	288	5	1	n/a	n/a	n/a	n/a	n/a
3344367	RECOG_TARGET	n/a	LTP258	ltpFR	17	3	1	CAR	241	1	0	n/a	n/a	n/a	n/a	n/a
3346039	RECOG_RESP	n/a	LTP258	ltpFR	17	3	1	CAR	241	n/a	0	n/a	n/a	n/a	n/a	n/a
3347361	RECOG_CONF	n/a	LTP258	ltpFR	17	3	1	CAR	241	1	0	n/a	n/a	n/a	n/a	n/a
3348960	RECOG_TARGET	n/a	LTP258	ltpFR	17	3	0	BABY	64	5	1	n/a	n/a	n/a	n/a	n/a
3349785	RECOG_RESP	n/a	LTP258	ltpFR	17	3	0	BABY	64	n/a	1	n/a	n/a	n/a	n/a	n/a
3350454	RECOG_CONF	n/a	LTP258	ltpFR	17	3	0	BABY	64	5	1	n/a	n/a	n/a	n/a	n/a
3352288	RECOG_TARGET	n/a	LTP258	ltpFR	17	3	-1	SNORKEL	1336	5	-1	n/a	n/a	n/a	n/a	n/a
3352923	RECOG_RESP	n/a	LTP258	ltpFR	17	3	-1	SNORKEL	1336	n/a	-1	n/a	n/a	n/a	n/a	n/a
3353597	RECOG_CONF	n/a	LTP258	ltpFR	17	3	-1	SNORKEL	1336	5	-1	n/a	n/a	n/a	n/a	n/a
3355350	RECOG_TARGET	n/a	LTP258	ltpFR	17	3	0	GAVEL	627	5	2	n/a	n/a	n/a	n/a	n/a
3355951	RECOG_RESP	n/a	LTP258	ltpFR	17	3	0	GAVEL	627	n/a	2	n/a	n/a	n/a	n/a	n/a
3356570	RECOG_CONF	n/a	LTP258	ltpFR	17	3	0	GAVEL	627	5	2	n/a	n/a	n/a	n/a	n/a
3358229	RECOG_TARGET	n/a	LTP258	ltpFR	17	3	0	PARROT	1015	5	0	n/a	n/a	n/a	n/a	n/a
3358865	RECOG_RESP	n/a	LTP258	ltpFR	17	3	0	PARROT	1015	n/a	0	n/a	n/a	n/a	n/a	n/a
3359533	RECOG_CONF	n/a	LTP258	ltpFR	17	3	0	PARROT	1015	5	0	n/a	n/a	n/a	n/a	n/a
3361225	RECOG_TARGET	n/a	LTP258	ltpFR	17	3	1	CORPORATION	382	5	1	n/a	n/a	n/a	n/a	n/a
3362077	RECOG_RESP	n/a	LTP258	ltpFR	17	3	1	CORPORATION	382	n/a	1	n/a	n/a	n/a	n/a	n/a
3362646	RECOG_CONF	n/a	LTP258	ltpFR	17	3	1	CORPORATION	382	5	1	n/a	n/a	n/a	n/a	n/a
3364287	RECOG_TARGET	n/a	LTP258	ltpFR	17	3	1	CREATURE	403	3	1	n/a	n/a	n/a	n/a	n/a
3364896	RECOG_RESP_VV	n/a	LTP258	ltpFR	17	3	1	CREATURE	403	n/a	1	n/a	n/a	n/a	n/a	n/a
3368069	RECOG_RESP	n/a	LTP258	ltpFR	17	3	1	CREATURE	403	n/a	1	n/a	n/a	n/a	n/a	n/a
3368872	RECOG_CONF	n/a	LTP258	ltpFR	17	3	1	CREATURE	403	3	1	n/a	n/a	n/a	n/a	n/a
3370643	RECOG_TARGET	n/a	LTP258	ltpFR	17	3	0	WHEEL	1603	5	1	n/a	n/a	n/a	n/a	n/a
3371366	RECOG_RESP	n/a	LTP258	ltpFR	17	3	0	WHEEL	1603	n/a	1	n/a	n/a	n/a	n/a	n/a
3372065	RECOG_CONF	n/a	LTP258	ltpFR	17	3	0	WHEEL	1603	5	1	n/a	n/a	n/a	n/a	n/a
3373723	RECOG_TARGET	n/a	LTP258	ltpFR	17	3	0	MOUTH	926	5	0	n/a	n/a	n/a	n/a	n/a
3374399	RECOG_RESP	n/a	LTP258	ltpFR	17	3	0	MOUTH	926	n/a	0	n/a	n/a	n/a	n/a	n/a
3374988	RECOG_CONF	n/a	LTP258	ltpFR	17	3	0	MOUTH	926	5	0	n/a	n/a	n/a	n/a	n/a
3376618	RECOG_TARGET	n/a	LTP258	ltpFR	17	3	0	POSSUM	1112	4	1	n/a	n/a	n/a	n/a	n/a
3377358	RECOG_RESP	n/a	LTP258	ltpFR	17	3	0	POSSUM	1112	n/a	1	n/a	n/a	n/a	n/a	n/a
3378091	RECOG_CONF	n/a	LTP258	ltpFR	17	3	0	POSSUM	1112	4	1	n/a	n/a	n/a	n/a	n/a
3379864	RECOG_TARGET	n/a	LTP258	ltpFR	17	3	-1	LUGGAGE	847	5	-1	n/a	n/a	n/a	n/a	n/a
3382845	RECOG_RESP	n/a	LTP258	ltpFR	17	3	-1	LUGGAGE	847	n/a	-1	n/a	n/a	n/a	n/a	n/a
3383559	RECOG_CONF	n/a	LTP258	ltpFR	17	3	-1	LUGGAGE	847	5	-1	n/a	n/a	n/a	n/a	n/a
3385156	RECOG_TARGET	n/a	LTP258	ltpFR	17	3	1	SIREN	1310	1	0	n/a	n/a	n/a	n/a	n/a
3386173	RECOG_RESP	n/a	LTP258	ltpFR	17	3	1	SIREN	1310	n/a	0	n/a	n/a	n/a	n/a	n/a
3386861	RECOG_CONF	n/a	LTP258	ltpFR	17	3	1	SIREN	1310	1	0	n/a	n/a	n/a	n/a	n/a
3388550	RECOG_LURE	n/a	LTP258	ltpFR	17	3	n/a	BED	110	2	n/a	n/a	n/a	n/a	n/a	n/a
3390333	RECOG_RESP	n/a	LTP258	ltpFR	17	3	n/a	BED	110	n/a	n/a	n/a	n/a	n/a	n/a	n/a
3391770	RECOG_CONF	n/a	LTP258	ltpFR	17	3	n/a	BED	110	2	n/a	n/a	n/a	n/a	n/a	n/a
3393559	RECOG_TARGET	n/a	LTP258	ltpFR	17	3	1	BATHTUB	100	5	0	n/a	n/a	n/a	n/a	n/a
3394334	RECOG_RESP	n/a	LTP258	ltpFR	17	3	1	BATHTUB	100	n/a	0	n/a	n/a	n/a	n/a	n/a
3394953	RECOG_CONF	n/a	LTP258	ltpFR	17	3	1	BATHTUB	100	5	0	n/a	n/a	n/a	n/a	n/a
3396671	RECOG_TARGET	n/a	LTP258	ltpFR	17	3	1	BUFFALO	186	4	1	n/a	n/a	n/a	n/a	n/a
3398968	RECOG_RESP	n/a	LTP258	ltpFR	17	3	1	BUFFALO	186	n/a	1	n/a	n/a	n/a	n/a	n/a
3399841	RECOG_CONF	n/a	LTP258	ltpFR	17	3	1	BUFFALO	186	4	1	n/a	n/a	n/a	n/a	n/a
3401914	RECOG_TARGET	n/a	LTP258	ltpFR	17	3	1	INVENTOR	743	4	1	n/a	n/a	n/a	n/a	n/a
3403184	RECOG_RESP	n/a	LTP258	ltpFR	17	3	1	INVENTOR	743	n/a	1	n/a	n/a	n/a	n/a	n/a
3403912	RECOG_CONF	n/a	LTP258	ltpFR	17	3	1	INVENTOR	743	4	1	n/a	n/a	n/a	n/a	n/a
3405574	RECOG_TARGET	n/a	LTP258	ltpFR	17	3	1	WATERFALL	1595	5	0	n/a	n/a	n/a	n/a	n/a
3406232	RECOG_RESP	n/a	LTP258	ltpFR	17	3	1	WATERFALL	1595	n/a	0	n/a	n/a	n/a	n/a	n/a
3406826	RECOG_CONF	n/a	LTP258	ltpFR	17	3	1	WATERFALL	1595	5	0	n/a	n/a	n/a	n/a	n/a
3408438	RECOG_LURE	n/a	LTP258	ltpFR	17	3	n/a	SHORE	1291	3	n/a	n/a	n/a	n/a	n/a	n/a
3409400	RECOG_RESP	n/a	LTP258	ltpFR	17	3	n/a	SHORE	1291	n/a	n/a	n/a	n/a	n/a	n/a	n/a
3410148	RECOG_CONF	n/a	LTP258	ltpFR	17	3	n/a	SHORE	1291	3	n/a	n/a	n/a	n/a	n/a	n/a
3411716	RECOG_LURE	n/a	LTP258	ltpFR	17	3	n/a	ESCALATOR	539	5	n/a	n/a	n/a	n/a	n/a	n/a
3412468	RECOG_RESP	n/a	LTP258	ltpFR	17	3	n/a	ESCALATOR	539	n/a	n/a	n/a	n/a	n/a	n/a	n/a
3413141	RECOG_CONF	n/a	LTP258	ltpFR	17	3	n/a	ESCALATOR	539	5	n/a	n/a	n/a	n/a	n/a	n/a
3416624	REC_START	n/a	LTP258	ltpFR	17	4	n/a	n/a	n/a	n/a	n/a	n/a	n/a	n/a	n/a	n/a
3416658	RECOG_TARGET	n/a	LTP258	ltpFR	17	4	-1	TAG	1429	5	-1	n/a	n/a	n/a	n/a	n/a
3417711	RECOG_RESP	n/a	LTP258	ltpFR	17	4	-1	TAG	1429	n/a	-1	n/a	n/a	n/a	n/a	n/a
3418395	RECOG_CONF	n/a	LTP258	ltpFR	17	4	-1	TAG	1429	5	-1	n/a	n/a	n/a	n/a	n/a
3420070	RECOG_TARGET	n/a	LTP258	ltpFR	17	4	1	COURSE	390	3	0	n/a	n/a	n/a	n/a	n/a
3421333	RECOG_RESP	n/a	LTP258	ltpFR	17	4	1	COURSE	390	n/a	0	n/a	n/a	n/a	n/a	n/a
3422306	RECOG_CONF	n/a	LTP258	ltpFR	17	4	1	COURSE	390	3	0	n/a	n/a	n/a	n/a	n/a
3424081	RECOG_LURE	n/a	LTP258	ltpFR	17	4	n/a	KETTLE	772	4	n/a	n/a	n/a	n/a	n/a	n/a
3425035	RECOG_RESP	n/a	LTP258	ltpFR	17	4	n/a	KETTLE	772	n/a	n/a	n/a	n/a	n/a	n/a	n/a
3425778	RECOG_CONF	n/a	LTP258	ltpFR	17	4	n/a	KETTLE	772	4	n/a	n/a	n/a	n/a	n/a	n/a
3427426	RECOG_LURE	n/a	LTP258	ltpFR	17	4	n/a	STY	1397	5	n/a	n/a	n/a	n/a	n/a	n/a
3428212	RECOG_RESP	n/a	LTP258	ltpFR	17	4	n/a	STY	1397	n/a	n/a	n/a	n/a	n/a	n/a	n/a
3428831	RECOG_CONF	n/a	LTP258	ltpFR	17	4	n/a	STY	1397	5	n/a	n/a	n/a	n/a	n/a	n/a
3430688	RECOG_TARGET	n/a	LTP258	ltpFR	17	4	-1	JACKET	747	5	-1	n/a	n/a	n/a	n/a	n/a
3431430	RECOG_RESP	n/a	LTP258	ltpFR	17	4	-1	JACKET	747	n/a	-1	n/a	n/a	n/a	n/a	n/a
3432183	RECOG_CONF	n/a	LTP258	ltpFR	17	4	-1	JACKET	747	5	-1	n/a	n/a	n/a	n/a	n/a
3434050	RECOG_TARGET	n/a	LTP258	ltpFR	17	4	1	BLOCKADE	137	1	0	n/a	n/a	n/a	n/a	n/a
3437417	RECOG_RESP	n/a	LTP258	ltpFR	17	4	1	BLOCKADE	137	n/a	0	n/a	n/a	n/a	n/a	n/a
3438200	RECOG_CONF	n/a	LTP258	ltpFR	17	4	1	BLOCKADE	137	1	0	n/a	n/a	n/a	n/a	n/a
3439957	RECOG_LURE	n/a	LTP258	ltpFR	17	4	n/a	PATROL	1027	3	n/a	n/a	n/a	n/a	n/a	n/a
3440819	RECOG_RESP	n/a	LTP258	ltpFR	17	4	n/a	PATROL	1027	n/a	n/a	n/a	n/a	n/a	n/a	n/a
3441502	RECOG_CONF	n/a	LTP258	ltpFR	17	4	n/a	PATROL	1027	3	n/a	n/a	n/a	n/a	n/a	n/a
3443236	RECOG_TARGET	n/a	LTP258	ltpFR	17	4	1	SARDINE	1235	5	1	n/a	n/a	n/a	n/a	n/a
3443937	RECOG_RESP	n/a	LTP258	ltpFR	17	4	1	SARDINE	1235	n/a	1	n/a	n/a	n/a	n/a	n/a
3444595	RECOG_CONF	n/a	LTP258	ltpFR	17	4	1	SARDINE	1235	5	1	n/a	n/a	n/a	n/a	n/a
3446215	RECOG_TARGET	n/a	LTP258	ltpFR	17	4	1	JUG	762	5	0	n/a	n/a	n/a	n/a	n/a
3446865	RECOG_RESP	n/a	LTP258	ltpFR	17	4	1	JUG	762	n/a	0	n/a	n/a	n/a	n/a	n/a
3447529	RECOG_CONF	n/a	LTP258	ltpFR	17	4	1	JUG	762	5	0	n/a	n/a	n/a	n/a	n/a
3449260	RECOG_TARGET	n/a	LTP258	ltpFR	17	4	1	WEED	1599	5	1	n/a	n/a	n/a	n/a	n/a
3450118	RECOG_RESP	n/a	LTP258	ltpFR	17	4	1	WEED	1599	n/a	1	n/a	n/a	n/a	n/a	n/a
3450831	RECOG_CONF	n/a	LTP258	ltpFR	17	4	1	WEED	1599	5	1	n/a	n/a	n/a	n/a	n/a
3452688	RECOG_TARGET	n/a	LTP258	ltpFR	17	4	-1	VACUUM	1543	5	-1	n/a	n/a	n/a	n/a	n/a
3453465	RECOG_RESP	n/a	LTP258	ltpFR	17	4	-1	VACUUM	1543	n/a	-1	n/a	n/a	n/a	n/a	n/a
3454213	RECOG_CONF	n/a	LTP258	ltpFR	17	4	-1	VACUUM	1543	5	-1	n/a	n/a	n/a	n/a	n/a
3455917	RECOG_TARGET	n/a	LTP258	ltpFR	17	4	1	ELK	526	2	1	n/a	n/a	n/a	n/a	n/a
3457177	RECOG_RESP	n/a	LTP258	ltpFR	17	4	1	ELK	526	n/a	1	n/a	n/a	n/a	n/a	n/a
3457995	RECOG_CONF	n/a	LTP258	ltpFR	17	4	1	ELK	526	2	1	n/a	n/a	n/a	n/a	n/a
3459677	RECOG_TARGET	n/a	LTP258	ltpFR	17	4	1	FROG	608	5	1	n/a	n/a	n/a	n/a	n/a
3460414	RECOG_RESP	n/a	LTP258	ltpFR	17	4	1	FROG	608	n/a	1	n/a	n/a	n/a	n/a	n/a
3461118	RECOG_CONF	n/a	LTP258	ltpFR	17	4	1	FROG	608	5	1	n/a	n/a	n/a	n/a	n/a
3462857	RECOG_LURE	n/a	LTP258	ltpFR	17	4	n/a	RACKET	1155	3	n/a	n/a	n/a	n/a	n/a	n/a
3466580	RECOG_RESP	n/a	LTP258	ltpFR	17	4	n/a	RACKET	1155	n/a	n/a	n/a	n/a	n/a	n/a	n/a
3467304	RECOG_CONF	n/a	LTP258	ltpFR	17	4	n/a	RACKET	1155	3	n/a	n/a	n/a	n/a	n/a	n/a
3469014	RECOG_TARGET	n/a	LTP258	ltpFR	17	4	-1	SIBLING	1301	5	-1	n/a	n/a	n/a	n/a	n/a
3469698	RECOG_RESP	n/a	LTP258	ltpFR	17	4	-1	SIBLING	1301	n/a	-1	n/a	n/a	n/a	n/a	n/a
3470367	RECOG_CONF	n/a	LTP258	ltpFR	17	4	-1	SIBLING	1301	5	-1	n/a	n/a	n/a	n/a	n/a
3472109	RECOG_TARGET	n/a	LTP258	ltpFR	17	4	1	PIER	1063	5	1	n/a	n/a	n/a	n/a	n/a
3472741	RECOG_RESP	n/a	LTP258	ltpFR	17	4	1	PIER	1063	n/a	1	n/a	n/a	n/a	n/a	n/a
3473420	RECOG_CONF	n/a	LTP258	ltpFR	17	4	1	PIER	1063	5	1	n/a	n/a	n/a	n/a	n/a
3475072	RECOG_TARGET	n/a	LTP258	ltpFR	17	4	1	ELM	527	5	1	n/a	n/a	n/a	n/a	n/a
3476243	RECOG_RESP	n/a	LTP258	ltpFR	17	4	1	ELM	527	n/a	1	n/a	n/a	n/a	n/a	n/a
3476922	RECOG_CONF	n/a	LTP258	ltpFR	17	4	1	ELM	527	5	1	n/a	n/a	n/a	n/a	n/a
3478499	RECOG_TARGET	n/a	LTP258	ltpFR	17	4	0	FEATHER	557	5	0	n/a	n/a	n/a	n/a	n/a
3480105	RECOG_RESP	n/a	LTP258	ltpFR	17	4	0	FEATHER	557	n/a	0	n/a	n/a	n/a	n/a	n/a
3480853	RECOG_CONF	n/a	LTP258	ltpFR	17	4	0	FEATHER	557	5	0	n/a	n/a	n/a	n/a	n/a
3482444	RECOG_TARGET	n/a	LTP258	ltpFR	17	4	0	HAMPER	682	5	1	n/a	n/a	n/a	n/a	n/a
3483212	RECOG_RESP	n/a	LTP258	ltpFR	17	4	0	HAMPER	682	n/a	1	n/a	n/a	n/a	n/a	n/a
3483966	RECOG_CONF	n/a	LTP258	ltpFR	17	4	0	HAMPER	682	5	1	n/a	n/a	n/a	n/a	n/a
3485756	RECOG_TARGET	n/a	LTP258	ltpFR	17	4	1	LOOP	844	5	0	n/a	n/a	n/a	n/a	n/a
3486400	RECOG_RESP	n/a	LTP258	ltpFR	17	4	1	LOOP	844	n/a	0	n/a	n/a	n/a	n/a	n/a
3487089	RECOG_CONF	n/a	LTP258	ltpFR	17	4	1	LOOP	844	5	0	n/a	n/a	n/a	n/a	n/a
3490321	REC_START	n/a	LTP258	ltpFR	17	5	n/a	n/a	n/a	n/a	n/a	n/a	n/a	n/a	n/a	n/a
3490349	RECOG_TARGET	n/a	LTP258	ltpFR	17	5	1	SPY	1360	5	1	n/a	n/a	n/a	n/a	n/a
3491413	RECOG_RESP	n/a	LTP258	ltpFR	17	5	1	SPY	1360	n/a	1	n/a	n/a	n/a	n/a	n/a
3492122	RECOG_CONF	n/a	LTP258	ltpFR	17	5	1	SPY	1360	5	1	n/a	n/a	n/a	n/a	n/a
3493794	RECOG_LURE	n/a	LTP258	ltpFR	17	5	n/a	KEY	773	3	n/a	n/a	n/a	n/a	n/a	n/a
3494821	RECOG_RESP	n/a	LTP258	ltpFR	17	5	n/a	KEY	773	n/a	n/a	n/a	n/a	n/a	n/a	n/a
3495534	RECOG_CONF	n/a	LTP258	ltpFR	17	5	n/a	KEY	773	3	n/a	n/a	n/a	n/a	n/a	n/a
3497155	RECOG_TARGET	n/a	LTP258	ltpFR	17	5	-1	APPLICATION	34	5	-1	n/a	n/a	n/a	n/a	n/a
3497789	RECOG_RESP	n/a	LTP258	ltpFR	17	5	-1	APPLICATION	34	n/a	-1	n/a	n/a	n/a	n/a	n/a
3498497	RECOG_CONF	n/a	LTP258	ltpFR	17	5	-1	APPLICATION	34	5	-1	n/a	n/a	n/a	n/a	n/a
3500301	RECOG_LURE	n/a	LTP258	ltpFR	17	5	n/a	ONION	977	3	n/a	n/a	n/a	n/a	n/a	n/a
3501790	RECOG_RESP	n/a	LTP258	ltpFR	17	5	n/a	ONION	977	n/a	n/a	n/a	n/a	n/a	n/a	n/a
3502608	RECOG_CONF	n/a	LTP258	ltpFR	17	5	n/a	ONION	977	3	n/a	n/a	n/a	n/a	n/a	n/a
3504178	RECOG_TARGET	n/a	LTP258	ltpFR	17	5	-1	LID	817	5	-1	n/a	n/a	n/a	n/a	n/a
3504963	RECOG_RESP	n/a	LTP258	ltpFR	17	5	-1	LID	817	n/a	-1	n/a	n/a	n/a	n/a	n/a
3505741	RECOG_CONF	n/a	LTP258	ltpFR	17	5	-1	LID	817	5	-1	n/a	n/a	n/a	n/a	n/a
3507555	RECOG_LURE	n/a	LTP258	ltpFR	17	5	n/a	ASTRONAUT	51	4	n/a	n/a	n/a	n/a	n/a	n/a
3508495	RECOG_RESP	n/a	LTP258	ltpFR	17	5	n/a	ASTRONAUT	51	n/a	n/a	n/a	n/a	n/a	n/a	n/a
3509402	RECOG_CONF	n/a	LTP258	ltpFR	17	5	n/a	ASTRONAUT	51	4	n/a	n/a	n/a	n/a	n/a	n/a
3511135	RECOG_TARGET	n/a	LTP258	ltpFR	17	5	1	CROCODILE	411	5	1	n/a	n/a	n/a	n/a	n/a
3511782	RECOG_RESP	n/a	LTP258	ltpFR	17	5	1	CROCODILE	411	n/a	1	n/a	n/a	n/a	n/a	n/a
3512545	RECOG_CONF	n/a	LTP258	ltpFR	17	5	1	CROCODILE	411	5	1	n/a	n/a	n/a	n/a	n/a
3514180	RECOG_TARGET	n/a	LTP258	ltpFR	17	5	0	BARTENDER	92	5	1	n/a	n/a	n/a	n/a	n/a
3514800	RECOG_RESP	n/a	LTP258	ltpFR	17	5	0	BARTENDER	92	n/a	1	n/a	n/a	n/a	n/a	n/a
3515568	RECOG_CONF	n/a	LTP258	ltpFR	17	5	0	BARTENDER	92	5	1	n/a	n/a	n/a	n/a	n/a
3517242	RECOG_TARGET	n/a	LTP258	ltpFR	17	5	0	SERPENT	1270	5	0	n/a	n/a	n/a	n/a	n/a
3517768	RECOG_RESP	n/a	LTP258	ltpFR	17	5	0	SERPENT	1270	n/a	0	n/a	n/a	n/a	n/a	n/a
3518572	RECOG_CONF	n/a	LTP258	ltpFR	17	5	0	SERPENT	1270	5	0	n/a	n/a	n/a	n/a	n/a
3520421	RECOG_LURE	n/a	LTP258	ltpFR	17	5	n/a	ROOMMATE	1207	2	n/a	n/a	n/a	n/a	n/a	n/a
3522353	RECOG_RESP	n/a	LTP258	ltpFR	17	5	n/a	ROOMMATE	1207	n/a	n/a	n/a	n/a	n/a	n/a	n/a
3523860	RECOG_CONF	n/a	LTP258	ltpFR	17	5	n/a	ROOMMATE	1207	2	n/a	n/a	n/a	n/a	n/a	n/a
3525612	RECOG_TARGET	n/a	LTP258	ltpFR	17	5	1	SOAP	1337	5	0	n/a	n/a	n/a	n/a	n/a
3526369	RECOG_RESP	n/a	LTP258	ltpFR	17	5	1	SOAP	1337	n/a	0	n/a	n/a	n/a	n/a	n/a
3527152	RECOG_CONF	n/a	LTP258	ltpFR	17	5	1	SOAP	1337	5	0	n/a	n/a	n/a	n/a	n/a
3528958	RECOG_TARGET	n/a	LTP258	ltpFR	17	5	1	APRON	35	5	0	n/a	n/a	n/a	n/a	n/a
3529607	RECOG_RESP	n/a	LTP258	ltpFR	17	5	1	APRON	35	n/a	0	n/a	n/a	n/a	n/a	n/a
3530415	RECOG_CONF	n/a	LTP258	ltpFR	17	5	1	APRON	35	5	0	n/a	n/a	n/a	n/a	n/a
3532103	RECOG_TARGET	n/a	LTP258	ltpFR	17	5	0	PORPOISE	1109	5	1	n/a	n/a	n/a	n/a	n/a
3532839	RECOG_RESP	n/a	LTP258	ltpFR	17	5	0	PORPOISE	1109	n/a	1	n/a	n/a	n/a	n/a	n/a
3533647	RECOG_CONF	n/a	LTP258	ltpFR	17	5	0	PORPOISE	1109	5	1	n/a	n/a	n/a	n/a	n/a
3535282	RECOG_TARGET	n/a	LTP258	ltpFR	17	5	-1	TONGUE	1479	5	-1	n/a	n/a	n/a	n/a	n/a
3535942	RECOG_RESP	n/a	LTP258	ltpFR	17	5	-1	TONGUE	1479	n/a	-1	n/a	n/a	n/a	n/a	n/a
3536730	RECOG_CONF	n/a	LTP258	ltpFR	17	5	-1	TONGUE	1479	5	-1	n/a	n/a	n/a	n/a	n/a
3538311	RECOG_TARGET	n/a	LTP258	ltpFR	17	5	0	PIGEON	1065	4	0	n/a	n/a	n/a	n/a	n/a
3539280	RECOG_RESP	n/a	LTP258	ltpFR	17	5	0	PIGEON	1065	n/a	0	n/a	n/a	n/a	n/a	n/a
3540362	RECOG_CONF	n/a	LTP258	ltpFR	17	5	0	PIGEON	1065	4	0	n/a	n/a	n/a	n/a	n/a
3541972	RECOG_TARGET	n/a	LTP258	ltpFR	17	5	-1	CATTLE	261	5	-1	n/a	n/a	n/a	n/a	n/a
3542677	RECOG_RESP	n/a	LTP258	ltpFR	17	5	-1	CATTLE	261	n/a	-1	n/a	n/a	n/a	n/a	n/a
3543415	RECOG_CONF	n/a	LTP258	ltpFR	17	5	-1	CATTLE	261	5	-1	n/a	n/a	n/a	n/a	n/a
3545050	RECOG_TARGET	n/a	LTP258	ltpFR	17	5	1	CLOVE	329	4	0	n/a	n/a	n/a	n/a	n/a
3545640	RECOG_RESP	n/a	LTP258	ltpFR	17	5	1	CLOVE	329	n/a	0	n/a	n/a	n/a	n/a	n/a
3546348	RECOG_CONF	n/a	LTP258	ltpFR	17	5	1	CLOVE	329	4	0	n/a	n/a	n/a	n/a	n/a
3547979	RECOG_TARGET	n/a	LTP258	ltpFR	17	5	1	SPICE	1350	5	0	n/a	n/a	n/a	n/a	n/a
3548628	RECOG_RESP	n/a	LTP258	ltpFR	17	5	1	SPICE	1350	n/a	0	n/a	n/a	n/a	n/a	n/a
3549282	RECOG_CONF	n/a	LTP258	ltpFR	17	5	1	SPICE	1350	5	0	n/a	n/a	n/a	n/a	n/a
3551125	RECOG_TARGET	n/a	LTP258	ltpFR	17	5	-1	KNAPSACK	783	3	-1	n/a	n/a	n/a	n/a	n/a
3552300	RECOG_RESP	n/a	LTP258	ltpFR	17	5	-1	KNAPSACK	783	n/a	-1	n/a	n/a	n/a	n/a	n/a
3553452	RECOG_CONF	n/a	LTP258	ltpFR	17	5	-1	KNAPSACK	783	3	-1	n/a	n/a	n/a	n/a	n/a
3555102	RECOG_TARGET	n/a	LTP258	ltpFR	17	5	0	LENS	811	5	0	n/a	n/a	n/a	n/a	n/a
3555752	RECOG_RESP	n/a	LTP258	ltpFR	17	5	0	LENS	811	n/a	0	n/a	n/a	n/a	n/a	n/a
3556495	RECOG_CONF	n/a	LTP258	ltpFR	17	5	0	LENS	811	5	0	n/a	n/a	n/a	n/a	n/a
3562984	REC_START	n/a	LTP258	ltpFR	17	6	n/a	n/a	n/a	n/a	n/a	n/a	n/a	n/a	n/a	n/a
3563024	RECOG_TARGET	n/a	LTP258	ltpFR	17	6	1	NECKLACE	940	5	0	n/a	n/a	n/a	n/a	n/a
3563942	RECOG_RESP	n/a	LTP258	ltpFR	17	6	1	NECKLACE	940	n/a	0	n/a	n/a	n/a	n/a	n/a
3564675	RECOG_CONF	n/a	LTP258	ltpFR	17	6	1	NECKLACE	940	5	0	n/a	n/a	n/a	n/a	n/a
3566335	RECOG_TARGET	n/a	LTP258	ltpFR	17	6	1	FOUNTAIN	597	3	0	n/a	n/a	n/a	n/a	n/a
3567793	RECOG_RESP	n/a	LTP258	ltpFR	17	6	1	FOUNTAIN	597	n/a	0	n/a	n/a	n/a	n/a	n/a
3568506	RECOG_CONF	n/a	LTP258	ltpFR	17	6	1	FOUNTAIN	597	3	0	n/a	n/a	n/a	n/a	n/a
3570096	RECOG_TARGET	n/a	LTP258	ltpFR	17	6	-1	SPIDER	1351	5	-1	n/a	n/a	n/a	n/a	n/a
3571874	RECOG_RESP	n/a	LTP258	ltpFR	17	6	-1	SPIDER	1351	n/a	-1	n/a	n/a	n/a	n/a	n/a
3572567	RECOG_CONF	n/a	LTP258	ltpFR	17	6	-1	SPIDER	1351	5	-1	n/a	n/a	n/a	n/a	n/a
3574307	RECOG_LURE	n/a	LTP258	ltpFR	17	6	n/a	GLACIER	638	4	n/a	n/a	n/a	n/a	n/a	n/a
3575126	RECOG_RESP	n/a	LTP258	ltpFR	17	6	n/a	GLACIER	638	n/a	n/a	n/a	n/a	n/a	n/a	n/a
3575750	RECOG_CONF	n/a	LTP258	ltpFR	17	6	n/a	GLACIER	638	4	n/a	n/a	n/a	n/a	n/a	n/a
3577419	RECOG_TARGET	n/a	LTP258	ltpFR	17	6	1	ACTRESS	6	5	1	n/a	n/a	n/a	n/a	n/a
3578050	RECOG_RESP	n/a	LTP258	ltpFR	17	6	1	ACTRESS	6	n/a	1	n/a	n/a	n/a	n/a	n/a
3578763	RECOG_CONF	n/a	LTP258	ltpFR	17	6	1	ACTRESS	6	5	1	n/a	n/a	n/a	n/a	n/a
3580448	RECOG_TARGET	n/a	LTP258	ltpFR	17	6	-1	EMERALD	528	5	-1	n/a	n/a	n/a	n/a	n/a
3581028	RECOG_RESP	n/a	LTP258	ltpFR	17	6	-1	EMERALD	528	n/a	-1	n/a	n/a	n/a	n/a	n/a
3581736	RECOG_CONF	n/a	LTP258	ltpFR	17	6	-1	EMERALD	528	5	-1	n/a	n/a	n/a	n/a	n/a
3583393	RECOG_TARGET	n/a	LTP258	ltpFR	17	6	1	MAPLE	866	4	1	n/a	n/a	n/a	n/a	n/a
3584505	RECOG_RESP	n/a	LTP258	ltpFR	17	6	1	MAPLE	866	n/a	1	n/a	n/a	n/a	n/a	n/a
3585428	RECOG_CONF	n/a	LTP258	ltpFR	17	6	1	MAPLE	866	4	1	n/a	n/a	n/a	n/a	n/a
3587071	RECOG_LURE	n/a	LTP258	ltpFR	17	6	n/a	PORK	1108	4	n/a	n/a	n/a	n/a	n/a	n/a
3588002	RECOG_RESP	n/a	LTP258	ltpFR	17	6	n/a	PORK	1108	n/a	n/a	n/a	n/a	n/a	n/a	n/a
3588960	RECOG_CONF	n/a	LTP258	ltpFR	17	6	n/a	PORK	1108	4	n/a	n/a	n/a	n/a	n/a	n/a
3590548	RECOG_TARGET	n/a	LTP258	ltpFR	17	6	-1	DASHBOARD	441	5	-1	n/a	n/a	n/a	n/a	n/a
3591279	RECOG_RESP	n/a	LTP258	ltpFR	17	6	-1	DASHBOARD	441	n/a	-1	n/a	n/a	n/a	n/a	n/a
3591913	RECOG_CONF	n/a	LTP258	ltpFR	17	6	-1	DASHBOARD	441	5	-1	n/a	n/a	n/a	n/a	n/a
3593477	RECOG_TARGET	n/a	LTP258	ltpFR	17	6	-1	CROWN	415	5	-1	n/a	n/a	n/a	n/a	n/a
3594198	RECOG_RESP	n/a	LTP258	ltpFR	17	6	-1	CROWN	415	n/a	-1	n/a	n/a	n/a	n/a	n/a
3594886	RECOG_CONF	n/a	LTP258	ltpFR	17	6	-1	CROWN	415	5	-1	n/a	n/a	n/a	n/a	n/a
3596606	RECOG_TARGET	n/a	LTP258	ltpFR	17	6	0	COCKTAIL	338	5	0	n/a	n/a	n/a	n/a	n/a
3597371	RECOG_RESP	n/a	LTP258	ltpFR	17	6	0	COCKTAIL	338	n/a	0	n/a	n/a	n/a	n/a	n/a
3598019	RECOG_CONF	n/a	LTP258	ltpFR	17	6	0	COCKTAIL	338	5	0	n/a	n/a	n/a	n/a	n/a
3599585	RECOG_LURE	n/a	LTP258	ltpFR	17	6	n/a	DEER	444	4	n/a	n/a	n/a	n/a	n/a	n/a
3600658	RECOG_RESP	n/a	LTP258	ltpFR	17	6	n/a	DEER	444	n/a	n/a	n/a	n/a	n/a	n/a	n/a
3601781	RECOG_CONF	n/a	LTP258	ltpFR	17	6	n/a	DEER	444	4	n/a	n/a	n/a	n/a	n/a	n/a
3603380	RECOG_TARGET	n/a	LTP258	ltpFR	17	6	0	CRAB	397	5	0	n/a	n/a	n/a	n/a	n/a
3604070	RECOG_RESP	n/a	LTP258	ltpFR	17	6	0	CRAB	397	n/a	0	n/a	n/a	n/a	n/a	n/a
3604764	RECOG_CONF	n/a	LTP258	ltpFR	17	6	0	CRAB	397	5	0	n/a	n/a	n/a	n/a	n/a
3606474	RECOG_LURE	n/a	LTP258	ltpFR	17	6	n/a	RULER	1216	2	n/a	n/a	n/a	n/a	n/a	n/a
3607667	RECOG_RESP	n/a	LTP258	ltpFR	17	6	n/a	RULER	1216	n/a	n/a	n/a	n/a	n/a	n/a	n/a
3610311	RECOG_CONF	n/a	LTP258	ltpFR	17	6	n/a	RULER	1216	2	n/a	n/a	n/a	n/a	n/a	n/a
3612050	RECOG_TARGET	n/a	LTP258	ltpFR	17	6	0	PADDLE	1000	5	0	n/a	n/a	n/a	n/a	n/a
3612816	RECOG_RESP	n/a	LTP258	ltpFR	17	6	0	PADDLE	1000	n/a	0	n/a	n/a	n/a	n/a	n/a
3613913	RECOG_CONF	n/a	LTP258	ltpFR	17	6	0	PADDLE	1000	5	0	n/a	n/a	n/a	n/a	n/a
3615544	RECOG_LURE	n/a	LTP258	ltpFR	17	6	n/a	GIRAFFE	636	4	n/a	n/a	n/a	n/a	n/a	n/a
3617435	RECOG_RESP	n/a	LTP258	ltpFR	17	6	n/a	GIRAFFE	636	n/a	n/a	n/a	n/a	n/a	n/a	n/a
3620648	RECOG_CONF	n/a	LTP258	ltpFR	17	6	n/a	GIRAFFE	636	4	n/a	n/a	n/a	n/a	n/a	n/a
3622318	RECOG_TARGET	n/a	LTP258	ltpFR	17	6	0	BULL	193	5	1	n/a	n/a	n/a	n/a	n/a
3623042	RECOG_RESP	n/a	LTP258	ltpFR	17	6	0	BULL	193	n/a	1	n/a	n/a	n/a	n/a	n/a
3624060	RECOG_CONF	n/a	LTP258	ltpFR	17	6	0	BULL	193	5	1	n/a	n/a	n/a	n/a	n/a
3625863	RECOG_LURE	n/a	LTP258	ltpFR	17	6	n/a	LASER	801	3	n/a	n/a	n/a	n/a	n/a	n/a
3628704	RECOG_RESP	n/a	LTP258	ltpFR	17	6	n/a	LASER	801	n/a	n/a	n/a	n/a	n/a	n/a	n/a
3630555	RECOG_CONF	n/a	LTP258	ltpFR	17	6	n/a	LASER	801	3	n/a	n/a	n/a	n/a	n/a	n/a
3632254	RECOG_TARGET	n/a	LTP258	ltpFR	17	6	1	TAPE	1433	5	0	n/a	n/a	n/a	n/a	n/a
3632995	RECOG_RESP	n/a	LTP258	ltpFR	17	6	1	TAPE	1433	n/a	0	n/a	n/a	n/a	n/a	n/a
3633748	RECOG_CONF	n/a	LTP258	ltpFR	17	6	1	TAPE	1433	5	0	n/a	n/a	n/a	n/a	n/a
3635366	RECOG_LURE	n/a	LTP258	ltpFR	17	6	n/a	COLOGNE	347	4	n/a	n/a	n/a	n/a	n/a	n/a
3636297	RECOG_RESP	n/a	LTP258	ltpFR	17	6	n/a	COLOGNE	347	n/a	n/a	n/a	n/a	n/a	n/a	n/a
