onset	duration	trial_type	sample	stim_file	subject	experiment	session	trial	task	item_name	item_num	recog_resp	recog_conf	resp	answer	test_x	test_y	test_z	color_r	color_g	color_b	case	font
258.772	n/a	SESS_START	129386	n/a	LTP098	ltpFR	13	n/a	n/a	n/a	n/a	1	n/a	n/a	n/a	0	0	0	n/a	n/a	n/a	n/a	n/a
285.12	n/a	START	142560	n/a	LTP098	ltpFR	13	n/a	n/a	n/a	n/a	n/a	n/a	n/a	n/a	n/a	n/a	n/a	n/a	n/a	n/a	n/a	n/a
285.152	n/a	PROB	142576	n/a	LTP098	ltpFR	13	n/a	n/a	n/a	n/a	n/a	n/a	n/a	12	1	2	9	n/a	n/a	n/a	n/a	n/a
288.386	n/a	PROB	144193	n/a	LTP098	ltpFR	13	n/a	n/a	n/a	n/a	n/a	n/a	n/a	17	5	5	7	n/a	n/a	n/a	n/a	n/a
289.66	n/a	PROB	144830	n/a	LTP098	ltpFR	13	n/a	n/a	n/a	n/a	n/a	n/a	n/a	21	9	7	5	n/a	n/a	n/a	n/a	n/a
291.386	n/a	PROB	145693	n/a	LTP098	ltpFR	13	n/a	n/a	n/a	n/a	n/a	n/a	n/a	15	8	4	3	n/a	n/a	n/a	n/a	n/a
293.36	n/a	PROB	146680	n/a	LTP098	ltpFR	13	n/a	n/a	n/a	n/a	n/a	n/a	n/a	11	2	5	4	n/a	n/a	n/a	n/a	n/a
295.002	n/a	PROB	147501	n/a	LTP098	ltpFR	13	n/a	n/a	n/a	n/a	n/a	n/a	n/a	20	4	8	8	n/a	n/a	n/a	n/a	n/a
296.842	n/a	PROB	148421	n/a	LTP098	ltpFR	13	n/a	n/a	n/a	n/a	n/a	n/a	n/a	9	4	4	1	n/a	n/a	n/a	n/a	n/a
298.46	n/a	PROB	149230	n/a	LTP098	ltpFR	13	n/a	n/a	n/a	n/a	n/a	n/a	n/a	15	4	6	5	n/a	n/a	n/a	n/a	n/a
299.818	n/a	PROB	149909	n/a	LTP098	ltpFR	13	n/a	n/a	n/a	n/a	n/a	n/a	n/a	18	8	9	1	n/a	n/a	n/a	n/a	n/a
301.494	n/a	PROB	150747	n/a	LTP098	ltpFR	13	n/a	n/a	n/a	n/a	n/a	n/a	n/a	14	5	4	5	n/a	n/a	n/a	n/a	n/a
302.784	n/a	PROB	151392	n/a	LTP098	ltpFR	13	n/a	n/a	n/a	n/a	n/a	n/a	n/a	11	7	1	3	n/a	n/a	n/a	n/a	n/a
304.054	n/a	STOP	152027	n/a	LTP098	ltpFR	13	n/a	n/a	n/a	n/a	n/a	n/a	n/a	n/a	n/a	n/a	n/a	n/a	n/a	n/a	n/a	n/a
342.41	n/a	WORD	171205	wordpools/wasnorm_wordpool.txt	LTP098	ltpFR	13	1	0	WEED	1599	1	n/a	0	n/a	0	0	0	0.422607421875	0.5869140625	0	lower	amplitud.ttf
346.46	n/a	WORD	173230	wordpools/wasnorm_wordpool.txt	LTP098	ltpFR	13	1	0	CHIEF	298	n/a	n/a	1	n/a	0	0	0	0.422607421875	0.5869140625	0	lower	amplitud.ttf
350.484	n/a	WORD	175242	wordpools/wasnorm_wordpool.txt	LTP098	ltpFR	13	1	1	GOVERNOR	651	n/a	n/a	1	n/a	0	0	0	0.57763671875	0.412841796875	1	upper	zerothre.ttf
354.476	n/a	WORD	177238	wordpools/wasnorm_wordpool.txt	LTP098	ltpFR	13	1	1	LABEL	790	n/a	n/a	0	n/a	0	0	0	0.57763671875	0.412841796875	1	upper	zerothre.ttf
358.376	n/a	WORD	179188	wordpools/wasnorm_wordpool.txt	LTP098	ltpFR	13	1	1	BLACKBERRY	132	n/a	n/a	1	n/a	0	0	0	0.57763671875	0.412841796875	1	upper	zerothre.ttf
362.226	n/a	WORD	181113	wordpools/wasnorm_wordpool.txt	LTP098	ltpFR	13	1	1	SUPERMARKET	1409	n/a	n/a	0	n/a	0	0	0	0.57763671875	0.412841796875	1	upper	zerothre.ttf
366.208	n/a	WORD	183104	wordpools/wasnorm_wordpool.txt	LTP098	ltpFR	13	1	1	DRESS	495	n/a	n/a	0	n/a	0	0	0	0.57763671875	0.412841796875	1	upper	zerothre.ttf
370.2	n/a	WORD	185100	wordpools/wasnorm_wordpool.txt	LTP098	ltpFR	13	1	1	SERGEANT	1269	n/a	n/a	1	n/a	0	0	0	0.57763671875	0.412841796875	1	upper	zerothre.ttf
374.126	n/a	WORD	187063	wordpools/wasnorm_wordpool.txt	LTP098	ltpFR	13	1	0	COLONEL	348	n/a	n/a	1	n/a	0	0	0	0.422607421875	0.5869140625	0	lower	amplitud.ttf
378.192	n/a	WORD	189096	wordpools/wasnorm_wordpool.txt	LTP098	ltpFR	13	1	0	ORGAN	984	n/a	n/a	0	n/a	0	0	0	0.422607421875	0.5869140625	0	lower	amplitud.ttf
382.392	n/a	WORD	191196	wordpools/wasnorm_wordpool.txt	LTP098	ltpFR	13	1	1	ZUCCHINI	1638	n/a	n/a	1	n/a	0	0	0	0.57763671875	0.412841796875	1	upper	zerothre.ttf
386.566	n/a	WORD	193283	wordpools/wasnorm_wordpool.txt	LTP098	ltpFR	13	1	1	BISCUIT	130	n/a	n/a	0	n/a	0	0	0	0.57763671875	0.412841796875	1	upper	zerothre.ttf
390.656	n/a	WORD	195328	wordpools/wasnorm_wordpool.txt	LTP098	ltpFR	13	1	0	PLANET	1082	n/a	n/a	1	n/a	0	0	0	0.422607421875	0.5869140625	0	lower	amplitud.ttf
394.492	n/a	WORD	197246	wordpools/wasnorm_wordpool.txt	LTP098	ltpFR	13	1	0	UNIVERSE	1540	n/a	n/a	1	n/a	0	0	0	0.422607421875	0.5869140625	0	lower	amplitud.ttf
398.698	n/a	WORD	199349	wordpools/wasnorm_wordpool.txt	LTP098	ltpFR	13	1	0	BUTTER	205	n/a	n/a	0	n/a	0	0	0	0.422607421875	0.5869140625	0	lower	amplitud.ttf
402.866	n/a	WORD	201433	wordpools/wasnorm_wordpool.txt	LTP098	ltpFR	13	1	0	RAKE	1164	n/a	n/a	1	n/a	0	0	0	0.422607421875	0.5869140625	0	lower	amplitud.ttf
405.874	n/a	START	202937	n/a	LTP098	ltpFR	13	n/a	n/a	n/a	n/a	n/a	n/a	n/a	n/a	n/a	n/a	n/a	n/a	n/a	n/a	n/a	n/a
407.058	n/a	PROB	203529	n/a	LTP098	ltpFR	13	n/a	n/a	n/a	n/a	n/a	n/a	n/a	14	3	5	6	n/a	n/a	n/a	n/a	n/a
408.864	n/a	PROB	204432	n/a	LTP098	ltpFR	13	n/a	n/a	n/a	n/a	n/a	n/a	n/a	20	7	4	9	n/a	n/a	n/a	n/a	n/a
413.874	n/a	STOP	206937	n/a	LTP098	ltpFR	13	n/a	n/a	n/a	n/a	n/a	n/a	n/a	n/a	n/a	n/a	n/a	n/a	n/a	n/a	n/a	n/a
415.808	n/a	REC_START	207904	n/a	LTP098	ltpFR	13	1	n/a	n/a	n/a	n/a	n/a	n/a	n/a	0	0	0	n/a	n/a	n/a	n/a	n/a
416.47	n/a	REC_WORD	208235	wordpools/wasnorm_wordpool.txt	LTP098	ltpFR	13	1	0	ORGAN	984	n/a	n/a	0	n/a	0	0	0	n/a	n/a	n/a	n/a	n/a
417.13	n/a	REC_WORD	208565	wordpools/wasnorm_wordpool.txt	LTP098	ltpFR	13	1	1	ZUCCHINI	1638	n/a	n/a	1	n/a	0	0	0	n/a	n/a	n/a	n/a	n/a
418.496	n/a	REC_WORD	209248	wordpools/wasnorm_wordpool.txt	LTP098	ltpFR	13	1	1	BISCUIT	130	n/a	n/a	0	n/a	0	0	0	n/a	n/a	n/a	n/a	n/a
419.43	n/a	REC_WORD	209715	wordpools/wasnorm_wordpool.txt	LTP098	ltpFR	13	1	0	PLANET	1082	n/a	n/a	1	n/a	0	0	0	n/a	n/a	n/a	n/a	n/a
420.332	n/a	REC_WORD	210166	wordpools/wasnorm_wordpool.txt	LTP098	ltpFR	13	1	0	UNIVERSE	1540	n/a	n/a	1	n/a	0	0	0	n/a	n/a	n/a	n/a	n/a
421.778	n/a	REC_WORD	210889	wordpools/wasnorm_wordpool.txt	LTP098	ltpFR	13	1	1	GOVERNOR	651	n/a	n/a	1	n/a	0	0	0	n/a	n/a	n/a	n/a	n/a
422.676	n/a	REC_WORD	211338	wordpools/wasnorm_wordpool.txt	LTP098	ltpFR	13	1	1	DRESS	495	n/a	n/a	0	n/a	0	0	0	n/a	n/a	n/a	n/a	n/a
423.534	n/a	REC_WORD	211767	wordpools/wasnorm_wordpool.txt	LTP098	ltpFR	13	1	1	SUPERMARKET	1409	n/a	n/a	0	n/a	0	0	0	n/a	n/a	n/a	n/a	n/a
424.742	n/a	REC_WORD	212371	wordpools/wasnorm_wordpool.txt	LTP098	ltpFR	13	1	1	LABEL	790	n/a	n/a	0	n/a	0	0	0	n/a	n/a	n/a	n/a	n/a
426.678	n/a	REC_WORD	213339	wordpools/wasnorm_wordpool.txt	LTP098	ltpFR	13	1	0	COLONEL	348	n/a	n/a	1	n/a	0	0	0	n/a	n/a	n/a	n/a	n/a
427.556	n/a	REC_WORD	213778	wordpools/wasnorm_wordpool.txt	LTP098	ltpFR	13	1	1	SERGEANT	1269	n/a	n/a	1	n/a	0	0	0	n/a	n/a	n/a	n/a	n/a
428.554	n/a	REC_WORD	214277	wordpools/wasnorm_wordpool.txt	LTP098	ltpFR	13	1	0	CHIEF	298	n/a	n/a	1	n/a	0	0	0	n/a	n/a	n/a	n/a	n/a
429.432	n/a	REC_WORD	214716	wordpools/wasnorm_wordpool.txt	LTP098	ltpFR	13	1	0	WEED	1599	n/a	n/a	0	n/a	0	0	0	n/a	n/a	n/a	n/a	n/a
432.156	n/a	REC_WORD	216078	wordpools/wasnorm_wordpool.txt	LTP098	ltpFR	13	1	0	RAKE	1164	n/a	n/a	1	n/a	0	0	0	n/a	n/a	n/a	n/a	n/a
492.888	n/a	START	246444	n/a	LTP098	ltpFR	13	n/a	n/a	n/a	n/a	n/a	n/a	n/a	n/a	n/a	n/a	n/a	n/a	n/a	n/a	n/a	n/a
494.398	n/a	PROB	247199	n/a	LTP098	ltpFR	13	n/a	n/a	n/a	n/a	n/a	n/a	n/a	12	6	4	2	n/a	n/a	n/a	n/a	n/a
495.804	n/a	PROB	247902	n/a	LTP098	ltpFR	13	n/a	n/a	n/a	n/a	n/a	n/a	n/a	17	7	1	9	n/a	n/a	n/a	n/a	n/a
498.196	n/a	PROB	249098	n/a	LTP098	ltpFR	13	n/a	n/a	n/a	n/a	n/a	n/a	n/a	16	4	3	9	n/a	n/a	n/a	n/a	n/a
499.574	n/a	STOP	249787	n/a	LTP098	ltpFR	13	n/a	n/a	n/a	n/a	n/a	n/a	n/a	n/a	n/a	n/a	n/a	n/a	n/a	n/a	n/a	n/a
501.87	n/a	WORD	250935	wordpools/wasnorm_wordpool.txt	LTP098	ltpFR	13	2	0	GODDESS	646	n/a	n/a	1	n/a	0	0	0	0.422607421875	0.5869140625	0	lower	amplitud.ttf
504.88	n/a	START	252440	n/a	LTP098	ltpFR	13	n/a	n/a	n/a	n/a	n/a	n/a	n/a	n/a	n/a	n/a	n/a	n/a	n/a	n/a	n/a	n/a
505.778	n/a	PROB	252889	n/a	LTP098	ltpFR	13	n/a	n/a	n/a	n/a	n/a	n/a	n/a	20	8	5	7	n/a	n/a	n/a	n/a	n/a
507.58	n/a	PROB	253790	n/a	LTP098	ltpFR	13	n/a	n/a	n/a	n/a	n/a	n/a	n/a	10	2	3	5	n/a	n/a	n/a	n/a	n/a
508.812	n/a	PROB	254406	n/a	LTP098	ltpFR	13	n/a	n/a	n/a	n/a	n/a	n/a	n/a	16	8	1	7	n/a	n/a	n/a	n/a	n/a
510.456	n/a	PROB	255228	n/a	LTP098	ltpFR	13	n/a	n/a	n/a	n/a	n/a	n/a	n/a	11	7	2	2	n/a	n/a	n/a	n/a	n/a
511.76	n/a	STOP	255880	n/a	LTP098	ltpFR	13	n/a	n/a	n/a	n/a	n/a	n/a	n/a	n/a	n/a	n/a	n/a	n/a	n/a	n/a	n/a	n/a
513.696	n/a	WORD	256848	wordpools/wasnorm_wordpool.txt	LTP098	ltpFR	13	2	0	TUB	1514	n/a	n/a	1	n/a	0	0	0	0.422607421875	0.5869140625	0	lower	amplitud.ttf
516.696	n/a	START	258348	n/a	LTP098	ltpFR	13	n/a	n/a	n/a	n/a	n/a	n/a	n/a	n/a	n/a	n/a	n/a	n/a	n/a	n/a	n/a	n/a
517.778	n/a	PROB	258889	n/a	LTP098	ltpFR	13	n/a	n/a	n/a	n/a	n/a	n/a	n/a	18	6	3	9	n/a	n/a	n/a	n/a	n/a
519.254	n/a	PROB	259627	n/a	LTP098	ltpFR	13	n/a	n/a	n/a	n/a	n/a	n/a	n/a	9	6	1	2	n/a	n/a	n/a	n/a	n/a
520.662	n/a	PROB	260331	n/a	LTP098	ltpFR	13	n/a	n/a	n/a	n/a	n/a	n/a	n/a	13	3	6	4	n/a	n/a	n/a	n/a	n/a
522.046	n/a	PROB	261023	n/a	LTP098	ltpFR	13	n/a	n/a	n/a	n/a	n/a	n/a	n/a	17	4	4	9	n/a	n/a	n/a	n/a	n/a
523.584	n/a	STOP	261792	n/a	LTP098	ltpFR	13	n/a	n/a	n/a	n/a	n/a	n/a	n/a	n/a	n/a	n/a	n/a	n/a	n/a	n/a	n/a	n/a
525.628	n/a	WORD	262814	wordpools/wasnorm_wordpool.txt	LTP098	ltpFR	13	2	0	HERB	704	n/a	n/a	0	n/a	0	0	0	0.422607421875	0.5869140625	0	lower	amplitud.ttf
528.638	n/a	START	264319	n/a	LTP098	ltpFR	13	n/a	n/a	n/a	n/a	n/a	n/a	n/a	n/a	n/a	n/a	n/a	n/a	n/a	n/a	n/a	n/a
529.796	n/a	PROB	264898	n/a	LTP098	ltpFR	13	n/a	n/a	n/a	n/a	n/a	n/a	n/a	18	7	7	4	n/a	n/a	n/a	n/a	n/a
531.464	n/a	PROB	265732	n/a	LTP098	ltpFR	13	n/a	n/a	n/a	n/a	n/a	n/a	n/a	17	1	8	8	n/a	n/a	n/a	n/a	n/a
532.854	n/a	PROB	266427	n/a	LTP098	ltpFR	13	n/a	n/a	n/a	n/a	n/a	n/a	n/a	12	4	3	5	n/a	n/a	n/a	n/a	n/a
536.638	n/a	STOP	268319	n/a	LTP098	ltpFR	13	n/a	n/a	n/a	n/a	n/a	n/a	n/a	n/a	n/a	n/a	n/a	n/a	n/a	n/a	n/a	n/a
537.636	n/a	WORD	268818	wordpools/wasnorm_wordpool.txt	LTP098	ltpFR	13	2	1	OFFICE	972	n/a	n/a	0	n/a	0	0	0	0.57763671875	0.412841796875	1	upper	zerothre.ttf
540.646	n/a	START	270323	n/a	LTP098	ltpFR	13	n/a	n/a	n/a	n/a	n/a	n/a	n/a	n/a	n/a	n/a	n/a	n/a	n/a	n/a	n/a	n/a
541.602	n/a	PROB	270801	n/a	LTP098	ltpFR	13	n/a	n/a	n/a	n/a	n/a	n/a	n/a	19	5	6	8	n/a	n/a	n/a	n/a	n/a
543.786	n/a	PROB	271893	n/a	LTP098	ltpFR	13	n/a	n/a	n/a	n/a	n/a	n/a	n/a	11	3	4	4	n/a	n/a	n/a	n/a	n/a
545.178	n/a	PROB	272589	n/a	LTP098	ltpFR	13	n/a	n/a	n/a	n/a	n/a	n/a	n/a	16	4	5	7	n/a	n/a	n/a	n/a	n/a
548.646	n/a	STOP	274323	n/a	LTP098	ltpFR	13	n/a	n/a	n/a	n/a	n/a	n/a	n/a	n/a	n/a	n/a	n/a	n/a	n/a	n/a	n/a	n/a
549.612	n/a	WORD	274806	wordpools/wasnorm_wordpool.txt	LTP098	ltpFR	13	2	1	CLERK	321	n/a	n/a	0	n/a	0	0	0	0.57763671875	0.412841796875	1	upper	zerothre.ttf
552.62	n/a	START	276310	n/a	LTP098	ltpFR	13	n/a	n/a	n/a	n/a	n/a	n/a	n/a	n/a	n/a	n/a	n/a	n/a	n/a	n/a	n/a	n/a
553.538	n/a	PROB	276769	n/a	LTP098	ltpFR	13	n/a	n/a	n/a	n/a	n/a	n/a	n/a	14	2	3	9	n/a	n/a	n/a	n/a	n/a
556.028	n/a	PROB	278014	n/a	LTP098	ltpFR	13	n/a	n/a	n/a	n/a	n/a	n/a	n/a	11	5	3	3	n/a	n/a	n/a	n/a	n/a
557.728	n/a	PROB	278864	n/a	LTP098	ltpFR	13	n/a	n/a	n/a	n/a	n/a	n/a	n/a	21	8	4	9	n/a	n/a	n/a	n/a	n/a
559.202	n/a	STOP	279601	n/a	LTP098	ltpFR	13	n/a	n/a	n/a	n/a	n/a	n/a	n/a	n/a	n/a	n/a	n/a	n/a	n/a	n/a	n/a	n/a
561.496	n/a	WORD	280748	wordpools/wasnorm_wordpool.txt	LTP098	ltpFR	13	2	1	TIGER	1467	n/a	n/a	1	n/a	0	0	0	0.57763671875	0.412841796875	1	upper	zerothre.ttf
564.504	n/a	START	282252	n/a	LTP098	ltpFR	13	n/a	n/a	n/a	n/a	n/a	n/a	n/a	n/a	n/a	n/a	n/a	n/a	n/a	n/a	n/a	n/a
565.594	n/a	PROB	282797	n/a	LTP098	ltpFR	13	n/a	n/a	n/a	n/a	n/a	n/a	n/a	6	1	3	2	n/a	n/a	n/a	n/a	n/a
567.254	n/a	PROB	283627	n/a	LTP098	ltpFR	13	n/a	n/a	n/a	n/a	n/a	n/a	n/a	7	1	1	5	n/a	n/a	n/a	n/a	n/a
568.504	n/a	PROB	284252	n/a	LTP098	ltpFR	13	n/a	n/a	n/a	n/a	n/a	n/a	n/a	20	7	7	6	n/a	n/a	n/a	n/a	n/a
569.82	n/a	PROB	284910	n/a	LTP098	ltpFR	13	n/a	n/a	n/a	n/a	n/a	n/a	n/a	18	9	1	8	n/a	n/a	n/a	n/a	n/a
571.292	n/a	STOP	285646	n/a	LTP098	ltpFR	13	n/a	n/a	n/a	n/a	n/a	n/a	n/a	n/a	n/a	n/a	n/a	n/a	n/a	n/a	n/a	n/a
573.536	n/a	WORD	286768	wordpools/wasnorm_wordpool.txt	LTP098	ltpFR	13	2	0	SUGAR	1401	n/a	n/a	0	n/a	0	0	0	0.422607421875	0.5869140625	0	lower	amplitud.ttf
576.544	n/a	START	288272	n/a	LTP098	ltpFR	13	n/a	n/a	n/a	n/a	n/a	n/a	n/a	n/a	n/a	n/a	n/a	n/a	n/a	n/a	n/a	n/a
577.644	n/a	PROB	288822	n/a	LTP098	ltpFR	13	n/a	n/a	n/a	n/a	n/a	n/a	n/a	12	5	2	5	n/a	n/a	n/a	n/a	n/a
578.878	n/a	PROB	289439	n/a	LTP098	ltpFR	13	n/a	n/a	n/a	n/a	n/a	n/a	n/a	9	6	2	1	n/a	n/a	n/a	n/a	n/a
580.12	n/a	PROB	290060	n/a	LTP098	ltpFR	13	n/a	n/a	n/a	n/a	n/a	n/a	n/a	21	5	9	7	n/a	n/a	n/a	n/a	n/a
584.544	n/a	STOP	292272	n/a	LTP098	ltpFR	13	n/a	n/a	n/a	n/a	n/a	n/a	n/a	n/a	n/a	n/a	n/a	n/a	n/a	n/a	n/a	n/a
585.594	n/a	WORD	292797	wordpools/wasnorm_wordpool.txt	LTP098	ltpFR	13	2	0	KIDNEY	776	n/a	n/a	n/a	n/a	0	0	0	0.422607421875	0.5869140625	0	lower	amplitud.ttf
588.62	n/a	SLOW_MSG	294310	n/a	LTP098	ltpFR	13	2	n/a	n/a	n/a	n/a	n/a	n/a	n/a	0	0	0	n/a	n/a	n/a	n/a	n/a
590.128	n/a	START	295064	n/a	LTP098	ltpFR	13	n/a	n/a	n/a	n/a	n/a	n/a	n/a	n/a	n/a	n/a	n/a	n/a	n/a	n/a	n/a	n/a
591.012	n/a	PROB	295506	n/a	LTP098	ltpFR	13	n/a	n/a	n/a	n/a	n/a	n/a	n/a	17	8	4	5	n/a	n/a	n/a	n/a	n/a
593.028	n/a	PROB	296514	n/a	LTP098	ltpFR	13	n/a	n/a	n/a	n/a	n/a	n/a	n/a	11	2	2	7	n/a	n/a	n/a	n/a	n/a
594.336	n/a	PROB	297168	n/a	LTP098	ltpFR	13	n/a	n/a	n/a	n/a	n/a	n/a	n/a	11	4	5	2	n/a	n/a	n/a	n/a	n/a
596.028	n/a	PROB	298014	n/a	LTP098	ltpFR	13	n/a	n/a	n/a	n/a	n/a	n/a	n/a	10	2	3	5	n/a	n/a	n/a	n/a	n/a
597.516	n/a	STOP	298758	n/a	LTP098	ltpFR	13	n/a	n/a	n/a	n/a	n/a	n/a	n/a	n/a	n/a	n/a	n/a	n/a	n/a	n/a	n/a	n/a
599.228	n/a	WORD	299614	wordpools/wasnorm_wordpool.txt	LTP098	ltpFR	13	2	0	PEBBLE	1035	n/a	n/a	0	n/a	0	0	0	0.422607421875	0.5869140625	0	lower	amplitud.ttf
602.236	n/a	START	301118	n/a	LTP098	ltpFR	13	n/a	n/a	n/a	n/a	n/a	n/a	n/a	n/a	n/a	n/a	n/a	n/a	n/a	n/a	n/a	n/a
603.154	n/a	PROB	301577	n/a	LTP098	ltpFR	13	n/a	n/a	n/a	n/a	n/a	n/a	n/a	17	9	4	4	n/a	n/a	n/a	n/a	n/a
604.81	n/a	PROB	302405	n/a	LTP098	ltpFR	13	n/a	n/a	n/a	n/a	n/a	n/a	n/a	17	5	9	3	n/a	n/a	n/a	n/a	n/a
606.504	n/a	PROB	303252	n/a	LTP098	ltpFR	13	n/a	n/a	n/a	n/a	n/a	n/a	n/a	25	8	8	9	n/a	n/a	n/a	n/a	n/a
608.078	n/a	PROB	304039	n/a	LTP098	ltpFR	13	n/a	n/a	n/a	n/a	n/a	n/a	n/a	15	2	6	7	n/a	n/a	n/a	n/a	n/a
609.58	n/a	STOP	304790	n/a	LTP098	ltpFR	13	n/a	n/a	n/a	n/a	n/a	n/a	n/a	n/a	n/a	n/a	n/a	n/a	n/a	n/a	n/a	n/a
611.336	n/a	WORD	305668	wordpools/wasnorm_wordpool.txt	LTP098	ltpFR	13	2	0	GRAPE	654	n/a	n/a	0	n/a	0	0	0	0.422607421875	0.5869140625	0	lower	amplitud.ttf
614.344	n/a	START	307172	n/a	LTP098	ltpFR	13	n/a	n/a	n/a	n/a	n/a	n/a	n/a	n/a	n/a	n/a	n/a	n/a	n/a	n/a	n/a	n/a
615.328	n/a	PROB	307664	n/a	LTP098	ltpFR	13	n/a	n/a	n/a	n/a	n/a	n/a	n/a	8	2	1	5	n/a	n/a	n/a	n/a	n/a
617.06	n/a	PROB	308530	n/a	LTP098	ltpFR	13	n/a	n/a	n/a	n/a	n/a	n/a	n/a	10	1	6	3	n/a	n/a	n/a	n/a	n/a
618.302	n/a	PROB	309151	n/a	LTP098	ltpFR	13	n/a	n/a	n/a	n/a	n/a	n/a	n/a	17	9	6	2	n/a	n/a	n/a	n/a	n/a
622.346	n/a	STOP	311173	n/a	LTP098	ltpFR	13	n/a	n/a	n/a	n/a	n/a	n/a	n/a	n/a	n/a	n/a	n/a	n/a	n/a	n/a	n/a	n/a
623.302	n/a	WORD	311651	wordpools/wasnorm_wordpool.txt	LTP098	ltpFR	13	2	0	OLIVE	975	n/a	n/a	0	n/a	0	0	0	0.422607421875	0.5869140625	0	lower	amplitud.ttf
626.312	n/a	START	313156	n/a	LTP098	ltpFR	13	n/a	n/a	n/a	n/a	n/a	n/a	n/a	n/a	n/a	n/a	n/a	n/a	n/a	n/a	n/a	n/a
627.328	n/a	PROB	313664	n/a	LTP098	ltpFR	13	n/a	n/a	n/a	n/a	n/a	n/a	n/a	16	5	5	6	n/a	n/a	n/a	n/a	n/a
628.568	n/a	PROB	314284	n/a	LTP098	ltpFR	13	n/a	n/a	n/a	n/a	n/a	n/a	n/a	23	5	9	9	n/a	n/a	n/a	n/a	n/a
630.302	n/a	PROB	315151	n/a	LTP098	ltpFR	13	n/a	n/a	n/a	n/a	n/a	n/a	n/a	17	7	5	5	n/a	n/a	n/a	n/a	n/a
631.652	n/a	PROB	315826	n/a	LTP098	ltpFR	13	n/a	n/a	n/a	n/a	n/a	n/a	n/a	9	1	5	3	n/a	n/a	n/a	n/a	n/a
633.494	n/a	STOP	316747	n/a	LTP098	ltpFR	13	n/a	n/a	n/a	n/a	n/a	n/a	n/a	n/a	n/a	n/a	n/a	n/a	n/a	n/a	n/a	n/a
635.268	n/a	WORD	317634	wordpools/wasnorm_wordpool.txt	LTP098	ltpFR	13	2	1	CRAB	397	n/a	n/a	1	n/a	0	0	0	0.57763671875	0.412841796875	1	upper	zerothre.ttf
638.276	n/a	START	319138	n/a	LTP098	ltpFR	13	n/a	n/a	n/a	n/a	n/a	n/a	n/a	n/a	n/a	n/a	n/a	n/a	n/a	n/a	n/a	n/a
639.276	n/a	PROB	319638	n/a	LTP098	ltpFR	13	n/a	n/a	n/a	n/a	n/a	n/a	n/a	12	2	4	6	n/a	n/a	n/a	n/a	n/a
640.55	n/a	PROB	320275	n/a	LTP098	ltpFR	13	n/a	n/a	n/a	n/a	n/a	n/a	n/a	17	5	5	7	n/a	n/a	n/a	n/a	n/a
641.842	n/a	PROB	320921	n/a	LTP098	ltpFR	13	n/a	n/a	n/a	n/a	n/a	n/a	n/a	16	9	3	4	n/a	n/a	n/a	n/a	n/a
643.584	n/a	PROB	321792	n/a	LTP098	ltpFR	13	n/a	n/a	n/a	n/a	n/a	n/a	n/a	11	6	4	1	n/a	n/a	n/a	n/a	n/a
644.83	n/a	STOP	322415	n/a	LTP098	ltpFR	13	n/a	n/a	n/a	n/a	n/a	n/a	n/a	n/a	n/a	n/a	n/a	n/a	n/a	n/a	n/a	n/a
647.452	n/a	WORD	323726	wordpools/wasnorm_wordpool.txt	LTP098	ltpFR	13	2	1	FAUCET	555	n/a	n/a	0	n/a	0	0	0	0.57763671875	0.412841796875	1	upper	zerothre.ttf
650.452	n/a	START	325226	n/a	LTP098	ltpFR	13	n/a	n/a	n/a	n/a	n/a	n/a	n/a	n/a	n/a	n/a	n/a	n/a	n/a	n/a	n/a	n/a
651.284	n/a	PROB	325642	n/a	LTP098	ltpFR	13	n/a	n/a	n/a	n/a	n/a	n/a	n/a	16	5	2	9	n/a	n/a	n/a	n/a	n/a
653.284	n/a	PROB	326642	n/a	LTP098	ltpFR	13	n/a	n/a	n/a	n/a	n/a	n/a	n/a	17	6	2	9	n/a	n/a	n/a	n/a	n/a
654.684	n/a	PROB	327342	n/a	LTP098	ltpFR	13	n/a	n/a	n/a	n/a	n/a	n/a	n/a	15	1	9	5	n/a	n/a	n/a	n/a	n/a
655.95	n/a	PROB	327975	n/a	LTP098	ltpFR	13	n/a	n/a	n/a	n/a	n/a	n/a	n/a	16	9	1	6	n/a	n/a	n/a	n/a	n/a
657.168	n/a	STOP	328584	n/a	LTP098	ltpFR	13	n/a	n/a	n/a	n/a	n/a	n/a	n/a	n/a	n/a	n/a	n/a	n/a	n/a	n/a	n/a	n/a
659.326	n/a	WORD	329663	wordpools/wasnorm_wordpool.txt	LTP098	ltpFR	13	2	1	MUSHROOM	934	n/a	n/a	1	n/a	0	0	0	0.57763671875	0.412841796875	1	upper	zerothre.ttf
662.328	n/a	START	331164	n/a	LTP098	ltpFR	13	n/a	n/a	n/a	n/a	n/a	n/a	n/a	n/a	n/a	n/a	n/a	n/a	n/a	n/a	n/a	n/a
663.41	n/a	PROB	331705	n/a	LTP098	ltpFR	13	n/a	n/a	n/a	n/a	n/a	n/a	n/a	21	7	6	8	n/a	n/a	n/a	n/a	n/a
665.426	n/a	PROB	332713	n/a	LTP098	ltpFR	13	n/a	n/a	n/a	n/a	n/a	n/a	n/a	16	4	3	9	n/a	n/a	n/a	n/a	n/a
666.866	n/a	PROB	333433	n/a	LTP098	ltpFR	13	n/a	n/a	n/a	n/a	n/a	n/a	n/a	15	8	2	5	n/a	n/a	n/a	n/a	n/a
668.102	n/a	PROB	334051	n/a	LTP098	ltpFR	13	n/a	n/a	n/a	n/a	n/a	n/a	n/a	15	6	5	4	n/a	n/a	n/a	n/a	n/a
669.664	n/a	STOP	334832	n/a	LTP098	ltpFR	13	n/a	n/a	n/a	n/a	n/a	n/a	n/a	n/a	n/a	n/a	n/a	n/a	n/a	n/a	n/a	n/a
671.168	n/a	WORD	335584	wordpools/wasnorm_wordpool.txt	LTP098	ltpFR	13	2	1	ELM	527	n/a	n/a	1	n/a	0	0	0	0.57763671875	0.412841796875	1	upper	zerothre.ttf
674.176	n/a	START	337088	n/a	LTP098	ltpFR	13	n/a	n/a	n/a	n/a	n/a	n/a	n/a	n/a	n/a	n/a	n/a	n/a	n/a	n/a	n/a	n/a
675.042	n/a	PROB	337521	n/a	LTP098	ltpFR	13	n/a	n/a	n/a	n/a	n/a	n/a	n/a	14	6	6	2	n/a	n/a	n/a	n/a	n/a
676.358	n/a	PROB	338179	n/a	LTP098	ltpFR	13	n/a	n/a	n/a	n/a	n/a	n/a	n/a	9	1	4	4	n/a	n/a	n/a	n/a	n/a
677.492	n/a	PROB	338746	n/a	LTP098	ltpFR	13	n/a	n/a	n/a	n/a	n/a	n/a	n/a	10	2	4	4	n/a	n/a	n/a	n/a	n/a
678.942	n/a	PROB	339471	n/a	LTP098	ltpFR	13	n/a	n/a	n/a	n/a	n/a	n/a	n/a	16	6	1	9	n/a	n/a	n/a	n/a	n/a
680.434	n/a	PROB	340217	n/a	LTP098	ltpFR	13	n/a	n/a	n/a	n/a	n/a	n/a	n/a	15	7	7	1	n/a	n/a	n/a	n/a	n/a
681.552	n/a	STOP	340776	n/a	LTP098	ltpFR	13	n/a	n/a	n/a	n/a	n/a	n/a	n/a	n/a	n/a	n/a	n/a	n/a	n/a	n/a	n/a	n/a
683.342	n/a	WORD	341671	wordpools/wasnorm_wordpool.txt	LTP098	ltpFR	13	2	1	IDOL	733	n/a	n/a	0	n/a	0	0	0	0.57763671875	0.412841796875	1	upper	zerothre.ttf
686.352	n/a	START	343176	n/a	LTP098	ltpFR	13	n/a	n/a	n/a	n/a	n/a	n/a	n/a	n/a	n/a	n/a	n/a	n/a	n/a	n/a	n/a	n/a
687.268	n/a	PROB	343634	n/a	LTP098	ltpFR	13	n/a	n/a	n/a	n/a	n/a	n/a	n/a	16	6	6	4	n/a	n/a	n/a	n/a	n/a
689.092	n/a	PROB	344546	n/a	LTP098	ltpFR	13	n/a	n/a	n/a	n/a	n/a	n/a	n/a	16	7	8	1	n/a	n/a	n/a	n/a	n/a
690.492	n/a	PROB	345246	n/a	LTP098	ltpFR	13	n/a	n/a	n/a	n/a	n/a	n/a	n/a	11	4	1	6	n/a	n/a	n/a	n/a	n/a
691.916	n/a	PROB	345958	n/a	LTP098	ltpFR	13	n/a	n/a	n/a	n/a	n/a	n/a	n/a	10	3	4	3	n/a	n/a	n/a	n/a	n/a
693.728	n/a	STOP	346864	n/a	LTP098	ltpFR	13	n/a	n/a	n/a	n/a	n/a	n/a	n/a	n/a	n/a	n/a	n/a	n/a	n/a	n/a	n/a	n/a
696.184	n/a	REC_START	348092	n/a	LTP098	ltpFR	13	2	n/a	n/a	n/a	n/a	n/a	n/a	n/a	0	0	0	n/a	n/a	n/a	n/a	n/a
697.116	n/a	REC_WORD	348558	wordpools/wasnorm_wordpool.txt	LTP098	ltpFR	13	2	1	IDOL	733	n/a	n/a	0	n/a	0	0	0	n/a	n/a	n/a	n/a	n/a
697.78	n/a	REC_WORD	348890	wordpools/wasnorm_wordpool.txt	LTP098	ltpFR	13	2	1	FAUCET	555	n/a	n/a	0	n/a	0	0	0	n/a	n/a	n/a	n/a	n/a
698.948	n/a	REC_WORD	349474	wordpools/wasnorm_wordpool.txt	LTP098	ltpFR	13	2	0	GRAPE	654	n/a	n/a	0	n/a	0	0	0	n/a	n/a	n/a	n/a	n/a
699.822	n/a	REC_WORD	349911	wordpools/wasnorm_wordpool.txt	LTP098	ltpFR	13	2	0	PEBBLE	1035	n/a	n/a	0	n/a	0	0	0	n/a	n/a	n/a	n/a	n/a
700.864	n/a	REC_WORD	350432	wordpools/wasnorm_wordpool.txt	LTP098	ltpFR	13	2	0	OLIVE	975	n/a	n/a	0	n/a	0	0	0	n/a	n/a	n/a	n/a	n/a
704.032	n/a	REC_WORD	352016	wordpools/wasnorm_wordpool.txt	LTP098	ltpFR	13	2	0	HERB	704	n/a	n/a	0	n/a	0	0	0	n/a	n/a	n/a	n/a	n/a
707.634	n/a	REC_WORD	353817	wordpools/wasnorm_wordpool.txt	LTP098	ltpFR	13	2	0	TUB	1514	n/a	n/a	1	n/a	0	0	0	n/a	n/a	n/a	n/a	n/a
774.206	n/a	WORD	387103	wordpools/wasnorm_wordpool.txt	LTP098	ltpFR	13	3	1	SOCKET	1340	n/a	n/a	0	n/a	0	0	0	0.57763671875	0.412841796875	1	upper	zerothre.ttf
778.232	n/a	WORD	389116	wordpools/wasnorm_wordpool.txt	LTP098	ltpFR	13	3	1	FROST	609	n/a	n/a	0	n/a	0	0	0	0.57763671875	0.412841796875	1	upper	zerothre.ttf
782.406	n/a	WORD	391203	wordpools/wasnorm_wordpool.txt	LTP098	ltpFR	13	3	1	CUP	424	n/a	n/a	0	n/a	0	0	0	0.57763671875	0.412841796875	1	upper	zerothre.ttf
786.374	n/a	WORD	393187	wordpools/wasnorm_wordpool.txt	LTP098	ltpFR	13	3	1	SAUCER	1237	n/a	n/a	0	n/a	0	0	0	0.57763671875	0.412841796875	1	upper	zerothre.ttf
790.414	n/a	WORD	395207	wordpools/wasnorm_wordpool.txt	LTP098	ltpFR	13	3	1	BANJO	82	n/a	n/a	0	n/a	0	0	0	0.57763671875	0.412841796875	1	upper	zerothre.ttf
794.54	n/a	WORD	397270	wordpools/wasnorm_wordpool.txt	LTP098	ltpFR	13	3	1	DISH	474	n/a	n/a	0	n/a	0	0	0	0.57763671875	0.412841796875	1	upper	zerothre.ttf
798.548	n/a	WORD	399274	wordpools/wasnorm_wordpool.txt	LTP098	ltpFR	13	3	1	KETTLE	772	n/a	n/a	0	n/a	0	0	0	0.57763671875	0.412841796875	1	upper	zerothre.ttf
802.606	n/a	WORD	401303	wordpools/wasnorm_wordpool.txt	LTP098	ltpFR	13	3	1	APE	31	n/a	n/a	1	n/a	0	0	0	0.57763671875	0.412841796875	1	upper	zerothre.ttf
806.448	n/a	WORD	403224	wordpools/wasnorm_wordpool.txt	LTP098	ltpFR	13	3	1	TEA	1439	n/a	n/a	0	n/a	0	0	0	0.57763671875	0.412841796875	1	upper	zerothre.ttf
810.596	n/a	WORD	405298	wordpools/wasnorm_wordpool.txt	LTP098	ltpFR	13	3	1	JUG	762	n/a	n/a	0	n/a	0	0	0	0.57763671875	0.412841796875	1	upper	zerothre.ttf
814.414	n/a	WORD	407207	wordpools/wasnorm_wordpool.txt	LTP098	ltpFR	13	3	1	UNDERWEAR	1537	n/a	n/a	0	n/a	0	0	0	0.57763671875	0.412841796875	1	upper	zerothre.ttf
818.356	n/a	WORD	409178	wordpools/wasnorm_wordpool.txt	LTP098	ltpFR	13	3	1	CAT	257	n/a	n/a	1	n/a	0	0	0	0.57763671875	0.412841796875	1	upper	zerothre.ttf
822.28	n/a	WORD	411140	wordpools/wasnorm_wordpool.txt	LTP098	ltpFR	13	3	1	GIRAFFE	636	n/a	n/a	1	n/a	0	0	0	0.57763671875	0.412841796875	1	upper	zerothre.ttf
826.13	n/a	WORD	413065	wordpools/wasnorm_wordpool.txt	LTP098	ltpFR	13	3	1	CLOSET	326	n/a	n/a	0	n/a	0	0	0	0.57763671875	0.412841796875	1	upper	zerothre.ttf
830.206	n/a	WORD	415103	wordpools/wasnorm_wordpool.txt	LTP098	ltpFR	13	3	1	FLEA	577	n/a	n/a	1	n/a	0	0	0	0.57763671875	0.412841796875	1	upper	zerothre.ttf
834.356	n/a	WORD	417178	wordpools/wasnorm_wordpool.txt	LTP098	ltpFR	13	3	1	FRIEND	606	n/a	n/a	1	n/a	0	0	0	0.57763671875	0.412841796875	1	upper	zerothre.ttf
837.356	n/a	START	418678	n/a	LTP098	ltpFR	13	n/a	n/a	n/a	n/a	n/a	n/a	n/a	n/a	n/a	n/a	n/a	n/a	n/a	n/a	n/a	n/a
838.406	n/a	PROB	419203	n/a	LTP098	ltpFR	13	n/a	n/a	n/a	n/a	n/a	n/a	n/a	17	4	2	9	n/a	n/a	n/a	n/a	n/a
840.82	n/a	PROB	420410	n/a	LTP098	ltpFR	13	n/a	n/a	n/a	n/a	n/a	n/a	n/a	12	1	6	5	n/a	n/a	n/a	n/a	n/a
842.78	n/a	PROB	421390	n/a	LTP098	ltpFR	13	n/a	n/a	n/a	n/a	n/a	n/a	n/a	16	8	7	1	n/a	n/a	n/a	n/a	n/a
844.106	n/a	PROB	422053	n/a	LTP098	ltpFR	13	n/a	n/a	n/a	n/a	n/a	n/a	n/a	20	6	5	9	n/a	n/a	n/a	n/a	n/a
845.488	n/a	PROB	422744	n/a	LTP098	ltpFR	13	n/a	n/a	n/a	n/a	n/a	n/a	n/a	21	5	9	7	n/a	n/a	n/a	n/a	n/a
848.488	n/a	PROB	424244	n/a	LTP098	ltpFR	13	n/a	n/a	n/a	n/a	n/a	n/a	n/a	20	4	9	7	n/a	n/a	n/a	n/a	n/a
850.554	n/a	PROB	425277	n/a	LTP098	ltpFR	13	n/a	n/a	n/a	n/a	n/a	n/a	n/a	16	6	8	2	n/a	n/a	n/a	n/a	n/a
851.846	n/a	PROB	425923	n/a	LTP098	ltpFR	13	n/a	n/a	n/a	n/a	n/a	n/a	n/a	15	9	4	2	n/a	n/a	n/a	n/a	n/a
853.082	n/a	STOP	426541	n/a	LTP098	ltpFR	13	n/a	n/a	n/a	n/a	n/a	n/a	n/a	n/a	n/a	n/a	n/a	n/a	n/a	n/a	n/a	n/a
855.164	n/a	REC_START	427582	n/a	LTP098	ltpFR	13	3	n/a	n/a	n/a	n/a	n/a	n/a	n/a	0	0	0	n/a	n/a	n/a	n/a	n/a
855.922	n/a	REC_WORD	427961	wordpools/wasnorm_wordpool.txt	LTP098	ltpFR	13	3	1	CAT	257	n/a	n/a	1	n/a	0	0	0	n/a	n/a	n/a	n/a	n/a
856.432	n/a	REC_WORD	428216	wordpools/wasnorm_wordpool.txt	LTP098	ltpFR	13	3	1	GIRAFFE	636	n/a	n/a	1	n/a	0	0	0	n/a	n/a	n/a	n/a	n/a
857.244	n/a	REC_WORD	428622	wordpools/wasnorm_wordpool.txt	LTP098	ltpFR	13	3	1	FLEA	577	n/a	n/a	1	n/a	0	0	0	n/a	n/a	n/a	n/a	n/a
858.162	n/a	REC_WORD	429081	wordpools/wasnorm_wordpool.txt	LTP098	ltpFR	13	3	1	APE	31	n/a	n/a	1	n/a	0	0	0	n/a	n/a	n/a	n/a	n/a
859.22	n/a	REC_WORD	429610	wordpools/wasnorm_wordpool.txt	LTP098	ltpFR	13	3	1	SOCKET	1340	n/a	n/a	0	n/a	0	0	0	n/a	n/a	n/a	n/a	n/a
860.796	n/a	REC_WORD	430398	wordpools/wasnorm_wordpool.txt	LTP098	ltpFR	13	3	1	FROST	609	n/a	n/a	0	n/a	0	0	0	n/a	n/a	n/a	n/a	n/a
862.668	n/a	REC_WORD	431334	wordpools/wasnorm_wordpool.txt	LTP098	ltpFR	13	3	1	CUP	424	n/a	n/a	0	n/a	0	0	0	n/a	n/a	n/a	n/a	n/a
864.148	n/a	REC_WORD	432074	wordpools/wasnorm_wordpool.txt	LTP098	ltpFR	13	3	1	SAUCER	1237	n/a	n/a	0	n/a	0	0	0	n/a	n/a	n/a	n/a	n/a
866.08	n/a	REC_WORD	433040	wordpools/wasnorm_wordpool.txt	LTP098	ltpFR	13	3	1	JUG	762	n/a	n/a	0	n/a	0	0	0	n/a	n/a	n/a	n/a	n/a
867.85	n/a	REC_WORD	433925	wordpools/wasnorm_wordpool.txt	LTP098	ltpFR	13	3	1	UNDERWEAR	1537	n/a	n/a	0	n/a	0	0	0	n/a	n/a	n/a	n/a	n/a
869.078	n/a	REC_WORD	434539	wordpools/wasnorm_wordpool.txt	LTP098	ltpFR	13	3	1	FRIEND	606	n/a	n/a	1	n/a	0	0	0	n/a	n/a	n/a	n/a	n/a
870.324	n/a	REC_WORD	435162	wordpools/wasnorm_wordpool.txt	LTP098	ltpFR	13	3	1	CLOSET	326	n/a	n/a	0	n/a	0	0	0	n/a	n/a	n/a	n/a	n/a
872.362	n/a	REC_WORD	436181	wordpools/wasnorm_wordpool.txt	LTP098	ltpFR	13	3	1	TEA	1439	n/a	n/a	0	n/a	0	0	0	n/a	n/a	n/a	n/a	n/a
873.448	n/a	REC_WORD	436724	wordpools/wasnorm_wordpool.txt	LTP098	ltpFR	13	3	1	KETTLE	772	n/a	n/a	0	n/a	0	0	0	n/a	n/a	n/a	n/a	n/a
898.542	n/a	REC_WORD	449271	wordpools/wasnorm_wordpool.txt	LTP098	ltpFR	13	3	1	DISH	474	n/a	n/a	0	n/a	0	0	0	n/a	n/a	n/a	n/a	n/a
963.976	n/a	WORD	481988	wordpools/wasnorm_wordpool.txt	LTP098	ltpFR	13	4	0	PENNY	1045	n/a	n/a	0	n/a	0	0	0	0.422607421875	0.5869140625	0	lower	amplitud.ttf
967.918	n/a	WORD	483959	wordpools/wasnorm_wordpool.txt	LTP098	ltpFR	13	4	0	FOLDER	588	n/a	n/a	0	n/a	0	0	0	0.422607421875	0.5869140625	0	lower	amplitud.ttf
971.802	n/a	WORD	485901	wordpools/wasnorm_wordpool.txt	LTP098	ltpFR	13	4	0	BAND	78	n/a	n/a	1	n/a	0	0	0	0.422607421875	0.5869140625	0	lower	amplitud.ttf
975.684	n/a	WORD	487842	wordpools/wasnorm_wordpool.txt	LTP098	ltpFR	13	4	0	CONE	363	n/a	n/a	0	n/a	0	0	0	0.422607421875	0.5869140625	0	lower	amplitud.ttf
979.776	n/a	WORD	489888	wordpools/wasnorm_wordpool.txt	LTP098	ltpFR	13	4	0	THICKET	1455	n/a	n/a	1	n/a	0	0	0	0.422607421875	0.5869140625	0	lower	amplitud.ttf
983.976	n/a	WORD	491988	wordpools/wasnorm_wordpool.txt	LTP098	ltpFR	13	4	0	FOREST	593	n/a	n/a	1	n/a	0	0	0	0.422607421875	0.5869140625	0	lower	amplitud.ttf
987.918	n/a	WORD	493959	wordpools/wasnorm_wordpool.txt	LTP098	ltpFR	13	4	0	MALL	860	n/a	n/a	1	n/a	0	0	0	0.422607421875	0.5869140625	0	lower	amplitud.ttf
991.926	n/a	WORD	495963	wordpools/wasnorm_wordpool.txt	LTP098	ltpFR	13	4	0	BOULDER	155	n/a	n/a	1	n/a	0	0	0	0.422607421875	0.5869140625	0	lower	amplitud.ttf
996.102	n/a	WORD	498051	wordpools/wasnorm_wordpool.txt	LTP098	ltpFR	13	4	0	RADIATOR	1156	n/a	n/a	1	n/a	0	0	0	0.422607421875	0.5869140625	0	lower	amplitud.ttf
999.95	n/a	WORD	499975	wordpools/wasnorm_wordpool.txt	LTP098	ltpFR	13	4	0	TRANSPLANT	1496	n/a	n/a	1	n/a	0	0	0	0.422607421875	0.5869140625	0	lower	amplitud.ttf
1003.834	n/a	WORD	501917	wordpools/wasnorm_wordpool.txt	LTP098	ltpFR	13	4	0	DRINK	498	n/a	n/a	0	n/a	0	0	0	0.422607421875	0.5869140625	0	lower	amplitud.ttf
1007.658	n/a	WORD	503829	wordpools/wasnorm_wordpool.txt	LTP098	ltpFR	13	4	0	BLENDER	136	n/a	n/a	0	n/a	0	0	0	0.422607421875	0.5869140625	0	lower	amplitud.ttf
1011.492	n/a	WORD	505746	wordpools/wasnorm_wordpool.txt	LTP098	ltpFR	13	4	0	CANDY	230	n/a	n/a	0	n/a	0	0	0	0.422607421875	0.5869140625	0	lower	amplitud.ttf
1015.56	n/a	WORD	507780	wordpools/wasnorm_wordpool.txt	LTP098	ltpFR	13	4	0	TREASURE	1500	n/a	n/a	1	n/a	0	0	0	0.422607421875	0.5869140625	0	lower	amplitud.ttf
1019.632	n/a	WORD	509816	wordpools/wasnorm_wordpool.txt	LTP098	ltpFR	13	4	0	SUBMARINE	1398	n/a	n/a	1	n/a	0	0	0	0.422607421875	0.5869140625	0	lower	amplitud.ttf
1023.484	n/a	WORD	511742	wordpools/wasnorm_wordpool.txt	LTP098	ltpFR	13	4	0	BROOK	177	n/a	n/a	1	n/a	0	0	0	0.422607421875	0.5869140625	0	lower	amplitud.ttf
1029.56	n/a	REC_START	514780	n/a	LTP098	ltpFR	13	4	n/a	n/a	n/a	n/a	n/a	n/a	n/a	0	0	0	n/a	n/a	n/a	n/a	n/a
1030.362	n/a	REC_WORD	515181	wordpools/wasnorm_wordpool.txt	LTP098	ltpFR	13	4	0	TRANSPLANT	1496	n/a	n/a	1	n/a	0	0	0	n/a	n/a	n/a	n/a	n/a
1031.64	n/a	REC_WORD	515820	wordpools/wasnorm_wordpool.txt	LTP098	ltpFR	13	4	0	CANDY	230	n/a	n/a	0	n/a	0	0	0	n/a	n/a	n/a	n/a	n/a
1032.628	n/a	REC_WORD	516314	wordpools/wasnorm_wordpool.txt	LTP098	ltpFR	13	4	0	BROOK	177	n/a	n/a	1	n/a	0	0	0	n/a	n/a	n/a	n/a	n/a
1033.406	n/a	REC_WORD	516703	wordpools/wasnorm_wordpool.txt	LTP098	ltpFR	13	4	0	SUBMARINE	1398	n/a	n/a	1	n/a	0	0	0	n/a	n/a	n/a	n/a	n/a
1035.082	n/a	REC_WORD	517541	wordpools/wasnorm_wordpool.txt	LTP098	ltpFR	13	4	0	MALL	860	n/a	n/a	1	n/a	0	0	0	n/a	n/a	n/a	n/a	n/a
1035.98	n/a	REC_WORD	517990	wordpools/wasnorm_wordpool.txt	LTP098	ltpFR	13	4	0	BOULDER	155	n/a	n/a	1	n/a	0	0	0	n/a	n/a	n/a	n/a	n/a
1036.764	n/a	REC_WORD	518382	wordpools/wasnorm_wordpool.txt	LTP098	ltpFR	13	4	0	RADIATOR	1156	n/a	n/a	1	n/a	0	0	0	n/a	n/a	n/a	n/a	n/a
1038.314	n/a	REC_WORD	519157	wordpools/wasnorm_wordpool.txt	LTP098	ltpFR	13	4	0	PENNY	1045	n/a	n/a	0	n/a	0	0	0	n/a	n/a	n/a	n/a	n/a
1039.98	n/a	REC_WORD	519990	wordpools/wasnorm_wordpool.txt	LTP098	ltpFR	13	4	0	FOLDER	588	n/a	n/a	0	n/a	0	0	0	n/a	n/a	n/a	n/a	n/a
1042.284	n/a	REC_WORD	521142	wordpools/wasnorm_wordpool.txt	LTP098	ltpFR	13	4	0	THICKET	1455	n/a	n/a	1	n/a	0	0	0	n/a	n/a	n/a	n/a	n/a
1043.018	n/a	REC_WORD	521509	wordpools/wasnorm_wordpool.txt	LTP098	ltpFR	13	4	0	FOREST	593	n/a	n/a	1	n/a	0	0	0	n/a	n/a	n/a	n/a	n/a
1067.85	n/a	REC_WORD	533925	wordpools/wasnorm_wordpool.txt	LTP098	ltpFR	13	4	0	BAND	78	n/a	n/a	1	n/a	0	0	0	n/a	n/a	n/a	n/a	n/a
1083.066	n/a	REC_WORD	541533	wordpools/wasnorm_wordpool.txt	LTP098	ltpFR	13	4	0	ORGAN	984	n/a	n/a	0	n/a	0	0	0	n/a	n/a	n/a	n/a	n/a
1084.094	n/a	REC_WORD	542047	wordpools/wasnorm_wordpool.txt	LTP098	ltpFR	13	4	0	BROOK	177	n/a	n/a	1	n/a	0	0	0	n/a	n/a	n/a	n/a	n/a
1105.948	n/a	START	552974	n/a	LTP098	ltpFR	13	n/a	n/a	n/a	n/a	n/a	n/a	n/a	n/a	n/a	n/a	n/a	n/a	n/a	n/a	n/a	n/a
1107.448	n/a	PROB	553724	n/a	LTP098	ltpFR	13	n/a	n/a	n/a	n/a	n/a	n/a	n/a	19	7	7	5	n/a	n/a	n/a	n/a	n/a
1108.956	n/a	PROB	554478	n/a	LTP098	ltpFR	13	n/a	n/a	n/a	n/a	n/a	n/a	n/a	18	6	9	3	n/a	n/a	n/a	n/a	n/a
1112.356	n/a	PROB	556178	n/a	LTP098	ltpFR	13	n/a	n/a	n/a	n/a	n/a	n/a	n/a	16	5	3	8	n/a	n/a	n/a	n/a	n/a
1113.886	n/a	STOP	556943	n/a	LTP098	ltpFR	13	n/a	n/a	n/a	n/a	n/a	n/a	n/a	n/a	n/a	n/a	n/a	n/a	n/a	n/a	n/a	n/a
1114.798	n/a	WORD	557399	wordpools/wasnorm_wordpool.txt	LTP098	ltpFR	13	5	1	WAIST	1579	n/a	n/a	0	n/a	0	0	0	0.57763671875	0.412841796875	1	upper	zerothre.ttf
1117.806	n/a	START	558903	n/a	LTP098	ltpFR	13	n/a	n/a	n/a	n/a	n/a	n/a	n/a	n/a	n/a	n/a	n/a	n/a	n/a	n/a	n/a	n/a
1118.672	n/a	PROB	559336	n/a	LTP098	ltpFR	13	n/a	n/a	n/a	n/a	n/a	n/a	n/a	10	1	4	5	n/a	n/a	n/a	n/a	n/a
1120.098	n/a	PROB	560049	n/a	LTP098	ltpFR	13	n/a	n/a	n/a	n/a	n/a	n/a	n/a	14	8	2	4	n/a	n/a	n/a	n/a	n/a
1121.548	n/a	PROB	560774	n/a	LTP098	ltpFR	13	n/a	n/a	n/a	n/a	n/a	n/a	n/a	15	3	7	5	n/a	n/a	n/a	n/a	n/a
1122.822	n/a	PROB	561411	n/a	LTP098	ltpFR	13	n/a	n/a	n/a	n/a	n/a	n/a	n/a	18	3	9	6	n/a	n/a	n/a	n/a	n/a
1124.52	n/a	STOP	562260	n/a	LTP098	ltpFR	13	n/a	n/a	n/a	n/a	n/a	n/a	n/a	n/a	n/a	n/a	n/a	n/a	n/a	n/a	n/a	n/a
1126.772	n/a	WORD	563386	wordpools/wasnorm_wordpool.txt	LTP098	ltpFR	13	5	1	FEAST	556	n/a	n/a	0	n/a	0	0	0	0.57763671875	0.412841796875	1	upper	zerothre.ttf
1129.78	n/a	START	564890	n/a	LTP098	ltpFR	13	n/a	n/a	n/a	n/a	n/a	n/a	n/a	n/a	n/a	n/a	n/a	n/a	n/a	n/a	n/a	n/a
1130.764	n/a	PROB	565382	n/a	LTP098	ltpFR	13	n/a	n/a	n/a	n/a	n/a	n/a	n/a	17	3	8	6	n/a	n/a	n/a	n/a	n/a
1132.364	n/a	PROB	566182	n/a	LTP098	ltpFR	13	n/a	n/a	n/a	n/a	n/a	n/a	n/a	16	6	1	9	n/a	n/a	n/a	n/a	n/a
1133.872	n/a	PROB	566936	n/a	LTP098	ltpFR	13	n/a	n/a	n/a	n/a	n/a	n/a	n/a	10	1	1	8	n/a	n/a	n/a	n/a	n/a
1135.098	n/a	PROB	567549	n/a	LTP098	ltpFR	13	n/a	n/a	n/a	n/a	n/a	n/a	n/a	21	9	4	8	n/a	n/a	n/a	n/a	n/a
1137.136	n/a	STOP	568568	n/a	LTP098	ltpFR	13	n/a	n/a	n/a	n/a	n/a	n/a	n/a	n/a	n/a	n/a	n/a	n/a	n/a	n/a	n/a	n/a
1138.664	n/a	WORD	569332	wordpools/wasnorm_wordpool.txt	LTP098	ltpFR	13	5	1	KITCHEN	778	n/a	n/a	0	n/a	0	0	0	0.57763671875	0.412841796875	1	upper	zerothre.ttf
1141.664	n/a	START	570832	n/a	LTP098	ltpFR	13	n/a	n/a	n/a	n/a	n/a	n/a	n/a	n/a	n/a	n/a	n/a	n/a	n/a	n/a	n/a	n/a
1142.848	n/a	PROB	571424	n/a	LTP098	ltpFR	13	n/a	n/a	n/a	n/a	n/a	n/a	n/a	14	4	5	5	n/a	n/a	n/a	n/a	n/a
1144.098	n/a	PROB	572049	n/a	LTP098	ltpFR	13	n/a	n/a	n/a	n/a	n/a	n/a	n/a	10	2	6	2	n/a	n/a	n/a	n/a	n/a
1145.896	n/a	PROB	572948	n/a	LTP098	ltpFR	13	n/a	n/a	n/a	n/a	n/a	n/a	n/a	19	9	6	4	n/a	n/a	n/a	n/a	n/a
1147.548	n/a	PROB	573774	n/a	LTP098	ltpFR	13	n/a	n/a	n/a	n/a	n/a	n/a	n/a	22	7	8	7	n/a	n/a	n/a	n/a	n/a
1149.202	n/a	STOP	574601	n/a	LTP098	ltpFR	13	n/a	n/a	n/a	n/a	n/a	n/a	n/a	n/a	n/a	n/a	n/a	n/a	n/a	n/a	n/a	n/a
1150.604	n/a	WORD	575302	wordpools/wasnorm_wordpool.txt	LTP098	ltpFR	13	5	0	SQUID	1361	n/a	n/a	1	n/a	0	0	0	0.422607421875	0.5869140625	0	lower	amplitud.ttf
1153.614	n/a	START	576807	n/a	LTP098	ltpFR	13	n/a	n/a	n/a	n/a	n/a	n/a	n/a	n/a	n/a	n/a	n/a	n/a	n/a	n/a	n/a	n/a
1154.788	n/a	PROB	577394	n/a	LTP098	ltpFR	13	n/a	n/a	n/a	n/a	n/a	n/a	n/a	19	3	9	7	n/a	n/a	n/a	n/a	n/a
1156.564	n/a	PROB	578282	n/a	LTP098	ltpFR	13	n/a	n/a	n/a	n/a	n/a	n/a	n/a	13	1	5	7	n/a	n/a	n/a	n/a	n/a
1158.256	n/a	PROB	579128	n/a	LTP098	ltpFR	13	n/a	n/a	n/a	n/a	n/a	n/a	n/a	17	7	6	4	n/a	n/a	n/a	n/a	n/a
1159.572	n/a	PROB	579786	n/a	LTP098	ltpFR	13	n/a	n/a	n/a	n/a	n/a	n/a	n/a	9	5	3	1	n/a	n/a	n/a	n/a	n/a
1160.618	n/a	STOP	580309	n/a	LTP098	ltpFR	13	n/a	n/a	n/a	n/a	n/a	n/a	n/a	n/a	n/a	n/a	n/a	n/a	n/a	n/a	n/a	n/a
1162.43	n/a	WORD	581215	wordpools/wasnorm_wordpool.txt	LTP098	ltpFR	13	5	0	CASTLE	256	n/a	n/a	1	n/a	0	0	0	0.422607421875	0.5869140625	0	lower	amplitud.ttf
1165.44	n/a	START	582720	n/a	LTP098	ltpFR	13	n/a	n/a	n/a	n/a	n/a	n/a	n/a	n/a	n/a	n/a	n/a	n/a	n/a	n/a	n/a	n/a
1166.464	n/a	PROB	583232	n/a	LTP098	ltpFR	13	n/a	n/a	n/a	n/a	n/a	n/a	n/a	17	8	5	4	n/a	n/a	n/a	n/a	n/a
1168.13	n/a	PROB	584065	n/a	LTP098	ltpFR	13	n/a	n/a	n/a	n/a	n/a	n/a	n/a	27	9	9	9	n/a	n/a	n/a	n/a	n/a
1169.654	n/a	PROB	584827	n/a	LTP098	ltpFR	13	n/a	n/a	n/a	n/a	n/a	n/a	n/a	9	6	2	1	n/a	n/a	n/a	n/a	n/a
1170.762	n/a	PROB	585381	n/a	LTP098	ltpFR	13	n/a	n/a	n/a	n/a	n/a	n/a	n/a	17	7	4	6	n/a	n/a	n/a	n/a	n/a
1172.466	n/a	STOP	586233	n/a	LTP098	ltpFR	13	n/a	n/a	n/a	n/a	n/a	n/a	n/a	n/a	n/a	n/a	n/a	n/a	n/a	n/a	n/a	n/a
1174.62	n/a	WORD	587310	wordpools/wasnorm_wordpool.txt	LTP098	ltpFR	13	5	0	EMPEROR	529	n/a	n/a	1	n/a	0	0	0	0.422607421875	0.5869140625	0	lower	amplitud.ttf
1177.63	n/a	START	588815	n/a	LTP098	ltpFR	13	n/a	n/a	n/a	n/a	n/a	n/a	n/a	n/a	n/a	n/a	n/a	n/a	n/a	n/a	n/a	n/a
1178.712	n/a	PROB	589356	n/a	LTP098	ltpFR	13	n/a	n/a	n/a	n/a	n/a	n/a	n/a	6	1	1	4	n/a	n/a	n/a	n/a	n/a
1179.972	n/a	PROB	589986	n/a	LTP098	ltpFR	13	n/a	n/a	n/a	n/a	n/a	n/a	n/a	10	5	3	2	n/a	n/a	n/a	n/a	n/a
1181.53	n/a	PROB	590765	n/a	LTP098	ltpFR	13	n/a	n/a	n/a	n/a	n/a	n/a	n/a	15	8	1	6	n/a	n/a	n/a	n/a	n/a
1183.164	n/a	PROB	591582	n/a	LTP098	ltpFR	13	n/a	n/a	n/a	n/a	n/a	n/a	n/a	14	1	5	8	n/a	n/a	n/a	n/a	n/a
1184.564	n/a	STOP	592282	n/a	LTP098	ltpFR	13	n/a	n/a	n/a	n/a	n/a	n/a	n/a	n/a	n/a	n/a	n/a	n/a	n/a	n/a	n/a	n/a
1186.788	n/a	WORD	593394	wordpools/wasnorm_wordpool.txt	LTP098	ltpFR	13	5	0	TOWN	1491	n/a	n/a	1	n/a	0	0	0	0.422607421875	0.5869140625	0	lower	amplitud.ttf
1189.796	n/a	START	594898	n/a	LTP098	ltpFR	13	n/a	n/a	n/a	n/a	n/a	n/a	n/a	n/a	n/a	n/a	n/a	n/a	n/a	n/a	n/a	n/a
1190.938	n/a	PROB	595469	n/a	LTP098	ltpFR	13	n/a	n/a	n/a	n/a	n/a	n/a	n/a	11	8	1	2	n/a	n/a	n/a	n/a	n/a
1192.354	n/a	PROB	596177	n/a	LTP098	ltpFR	13	n/a	n/a	n/a	n/a	n/a	n/a	n/a	14	9	1	4	n/a	n/a	n/a	n/a	n/a
1194.296	n/a	PROB	597148	n/a	LTP098	ltpFR	13	n/a	n/a	n/a	n/a	n/a	n/a	n/a	16	1	7	8	n/a	n/a	n/a	n/a	n/a
1195.63	n/a	PROB	597815	n/a	LTP098	ltpFR	13	n/a	n/a	n/a	n/a	n/a	n/a	n/a	20	7	4	9	n/a	n/a	n/a	n/a	n/a
1197.028	n/a	STOP	598514	n/a	LTP098	ltpFR	13	n/a	n/a	n/a	n/a	n/a	n/a	n/a	n/a	n/a	n/a	n/a	n/a	n/a	n/a	n/a	n/a
1198.862	n/a	WORD	599431	wordpools/wasnorm_wordpool.txt	LTP098	ltpFR	13	5	1	RIFLE	1192	n/a	n/a	0	n/a	0	0	0	0.57763671875	0.412841796875	1	upper	zerothre.ttf
1201.87	n/a	START	600935	n/a	LTP098	ltpFR	13	n/a	n/a	n/a	n/a	n/a	n/a	n/a	n/a	n/a	n/a	n/a	n/a	n/a	n/a	n/a	n/a
1202.77	n/a	PROB	601385	n/a	LTP098	ltpFR	13	n/a	n/a	n/a	n/a	n/a	n/a	n/a	20	7	6	7	n/a	n/a	n/a	n/a	n/a
1204.222	n/a	PROB	602111	n/a	LTP098	ltpFR	13	n/a	n/a	n/a	n/a	n/a	n/a	n/a	16	2	6	8	n/a	n/a	n/a	n/a	n/a
1205.912	n/a	PROB	602956	n/a	LTP098	ltpFR	13	n/a	n/a	n/a	n/a	n/a	n/a	n/a	21	9	7	6	n/a	n/a	n/a	n/a	n/a
1208.932	n/a	STOP	604466	n/a	LTP098	ltpFR	13	n/a	n/a	n/a	n/a	n/a	n/a	n/a	n/a	n/a	n/a	n/a	n/a	n/a	n/a	n/a	n/a
1210.828	n/a	WORD	605414	wordpools/wasnorm_wordpool.txt	LTP098	ltpFR	13	5	1	SALMON	1227	n/a	n/a	1	n/a	0	0	0	0.57763671875	0.412841796875	1	upper	zerothre.ttf
1213.836	n/a	START	606918	n/a	LTP098	ltpFR	13	n/a	n/a	n/a	n/a	n/a	n/a	n/a	n/a	n/a	n/a	n/a	n/a	n/a	n/a	n/a	n/a
1214.962	n/a	PROB	607481	n/a	LTP098	ltpFR	13	n/a	n/a	n/a	n/a	n/a	n/a	n/a	20	7	9	4	n/a	n/a	n/a	n/a	n/a
1216.596	n/a	PROB	608298	n/a	LTP098	ltpFR	13	n/a	n/a	n/a	n/a	n/a	n/a	n/a	19	3	7	9	n/a	n/a	n/a	n/a	n/a
1217.862	n/a	PROB	608931	n/a	LTP098	ltpFR	13	n/a	n/a	n/a	n/a	n/a	n/a	n/a	16	1	8	7	n/a	n/a	n/a	n/a	n/a
1219.72	n/a	PROB	609860	n/a	LTP098	ltpFR	13	n/a	n/a	n/a	n/a	n/a	n/a	n/a	16	4	3	9	n/a	n/a	n/a	n/a	n/a
1221.342	n/a	STOP	610671	n/a	LTP098	ltpFR	13	n/a	n/a	n/a	n/a	n/a	n/a	n/a	n/a	n/a	n/a	n/a	n/a	n/a	n/a	n/a	n/a
1222.704	n/a	WORD	611352	wordpools/wasnorm_wordpool.txt	LTP098	ltpFR	13	5	0	COOK	372	n/a	n/a	1	n/a	0	0	0	0.422607421875	0.5869140625	0	lower	amplitud.ttf
1225.712	n/a	START	612856	n/a	LTP098	ltpFR	13	n/a	n/a	n/a	n/a	n/a	n/a	n/a	n/a	n/a	n/a	n/a	n/a	n/a	n/a	n/a	n/a
1226.562	n/a	PROB	613281	n/a	LTP098	ltpFR	13	n/a	n/a	n/a	n/a	n/a	n/a	n/a	16	4	3	9	n/a	n/a	n/a	n/a	n/a
1228.346	n/a	PROB	614173	n/a	LTP098	ltpFR	13	n/a	n/a	n/a	n/a	n/a	n/a	n/a	21	7	6	8	n/a	n/a	n/a	n/a	n/a
1230.162	n/a	PROB	615081	n/a	LTP098	ltpFR	13	n/a	n/a	n/a	n/a	n/a	n/a	n/a	15	8	5	2	n/a	n/a	n/a	n/a	n/a
1231.578	n/a	PROB	615789	n/a	LTP098	ltpFR	13	n/a	n/a	n/a	n/a	n/a	n/a	n/a	15	6	5	4	n/a	n/a	n/a	n/a	n/a
1233.014	n/a	STOP	616507	n/a	LTP098	ltpFR	13	n/a	n/a	n/a	n/a	n/a	n/a	n/a	n/a	n/a	n/a	n/a	n/a	n/a	n/a	n/a	n/a
1234.92	n/a	WORD	617460	wordpools/wasnorm_wordpool.txt	LTP098	ltpFR	13	5	0	HOSTAGE	722	n/a	n/a	1	n/a	0	0	0	0.422607421875	0.5869140625	0	lower	amplitud.ttf
1237.92	n/a	START	618960	n/a	LTP098	ltpFR	13	n/a	n/a	n/a	n/a	n/a	n/a	n/a	n/a	n/a	n/a	n/a	n/a	n/a	n/a	n/a	n/a
1238.986	n/a	PROB	619493	n/a	LTP098	ltpFR	13	n/a	n/a	n/a	n/a	n/a	n/a	n/a	18	2	7	9	n/a	n/a	n/a	n/a	n/a
1241.002	n/a	PROB	620501	n/a	LTP098	ltpFR	13	n/a	n/a	n/a	n/a	n/a	n/a	n/a	18	9	8	1	n/a	n/a	n/a	n/a	n/a
1242.412	n/a	PROB	621206	n/a	LTP098	ltpFR	13	n/a	n/a	n/a	n/a	n/a	n/a	n/a	18	5	8	5	n/a	n/a	n/a	n/a	n/a
1243.686	n/a	PROB	621843	n/a	LTP098	ltpFR	13	n/a	n/a	n/a	n/a	n/a	n/a	n/a	14	6	2	6	n/a	n/a	n/a	n/a	n/a
1245.094	n/a	STOP	622547	n/a	LTP098	ltpFR	13	n/a	n/a	n/a	n/a	n/a	n/a	n/a	n/a	n/a	n/a	n/a	n/a	n/a	n/a	n/a	n/a
1247.012	n/a	WORD	623506	wordpools/wasnorm_wordpool.txt	LTP098	ltpFR	13	5	0	RUST	1219	n/a	n/a	0	n/a	0	0	0	0.422607421875	0.5869140625	0	lower	amplitud.ttf
1250.02	n/a	START	625010	n/a	LTP098	ltpFR	13	n/a	n/a	n/a	n/a	n/a	n/a	n/a	n/a	n/a	n/a	n/a	n/a	n/a	n/a	n/a	n/a
1250.944	n/a	PROB	625472	n/a	LTP098	ltpFR	13	n/a	n/a	n/a	n/a	n/a	n/a	n/a	19	5	7	7	n/a	n/a	n/a	n/a	n/a
1253.728	n/a	PROB	626864	n/a	LTP098	ltpFR	13	n/a	n/a	n/a	n/a	n/a	n/a	n/a	18	7	2	9	n/a	n/a	n/a	n/a	n/a
1255.386	n/a	PROB	627693	n/a	LTP098	ltpFR	13	n/a	n/a	n/a	n/a	n/a	n/a	n/a	10	3	1	6	n/a	n/a	n/a	n/a	n/a
1256.742	n/a	STOP	628371	n/a	LTP098	ltpFR	13	n/a	n/a	n/a	n/a	n/a	n/a	n/a	n/a	n/a	n/a	n/a	n/a	n/a	n/a	n/a	n/a
1258.97	n/a	WORD	629485	wordpools/wasnorm_wordpool.txt	LTP098	ltpFR	13	5	0	PIZZA	1079	n/a	n/a	0	n/a	0	0	0	0.422607421875	0.5869140625	0	lower	amplitud.ttf
1261.978	n/a	START	630989	n/a	LTP098	ltpFR	13	n/a	n/a	n/a	n/a	n/a	n/a	n/a	n/a	n/a	n/a	n/a	n/a	n/a	n/a	n/a	n/a
1262.894	n/a	PROB	631447	n/a	LTP098	ltpFR	13	n/a	n/a	n/a	n/a	n/a	n/a	n/a	20	5	9	6	n/a	n/a	n/a	n/a	n/a
1265.786	n/a	PROB	632893	n/a	LTP098	ltpFR	13	n/a	n/a	n/a	n/a	n/a	n/a	n/a	19	2	8	9	n/a	n/a	n/a	n/a	n/a
1267.036	n/a	PROB	633518	n/a	LTP098	ltpFR	13	n/a	n/a	n/a	n/a	n/a	n/a	n/a	16	3	4	9	n/a	n/a	n/a	n/a	n/a
1268.412	n/a	PROB	634206	n/a	LTP098	ltpFR	13	n/a	n/a	n/a	n/a	n/a	n/a	n/a	16	7	7	2	n/a	n/a	n/a	n/a	n/a
1269.622	n/a	STOP	634811	n/a	LTP098	ltpFR	13	n/a	n/a	n/a	n/a	n/a	n/a	n/a	n/a	n/a	n/a	n/a	n/a	n/a	n/a	n/a	n/a
1271.078	n/a	WORD	635539	wordpools/wasnorm_wordpool.txt	LTP098	ltpFR	13	5	1	SQUIRREL	1362	n/a	n/a	1	n/a	0	0	0	0.57763671875	0.412841796875	1	upper	zerothre.ttf
1274.088	n/a	START	637044	n/a	LTP098	ltpFR	13	n/a	n/a	n/a	n/a	n/a	n/a	n/a	n/a	n/a	n/a	n/a	n/a	n/a	n/a	n/a	n/a
1275.278	n/a	PROB	637639	n/a	LTP098	ltpFR	13	n/a	n/a	n/a	n/a	n/a	n/a	n/a	20	8	3	9	n/a	n/a	n/a	n/a	n/a
1276.794	n/a	PROB	638397	n/a	LTP098	ltpFR	13	n/a	n/a	n/a	n/a	n/a	n/a	n/a	13	4	8	1	n/a	n/a	n/a	n/a	n/a
1278.078	n/a	PROB	639039	n/a	LTP098	ltpFR	13	n/a	n/a	n/a	n/a	n/a	n/a	n/a	10	5	3	2	n/a	n/a	n/a	n/a	n/a
1279.302	n/a	PROB	639651	n/a	LTP098	ltpFR	13	n/a	n/a	n/a	n/a	n/a	n/a	n/a	10	5	1	4	n/a	n/a	n/a	n/a	n/a
1281.032	n/a	STOP	640516	n/a	LTP098	ltpFR	13	n/a	n/a	n/a	n/a	n/a	n/a	n/a	n/a	n/a	n/a	n/a	n/a	n/a	n/a	n/a	n/a
1283.244	n/a	WORD	641622	wordpools/wasnorm_wordpool.txt	LTP098	ltpFR	13	5	1	BUFFALO	186	n/a	n/a	1	n/a	0	0	0	0.57763671875	0.412841796875	1	upper	zerothre.ttf
1286.252	n/a	START	643126	n/a	LTP098	ltpFR	13	n/a	n/a	n/a	n/a	n/a	n/a	n/a	n/a	n/a	n/a	n/a	n/a	n/a	n/a	n/a	n/a
1287.336	n/a	PROB	643668	n/a	LTP098	ltpFR	13	n/a	n/a	n/a	n/a	n/a	n/a	n/a	18	4	6	8	n/a	n/a	n/a	n/a	n/a
1288.768	n/a	PROB	644384	n/a	LTP098	ltpFR	13	n/a	n/a	n/a	n/a	n/a	n/a	n/a	7	3	3	1	n/a	n/a	n/a	n/a	n/a
1290.41	n/a	PROB	645205	n/a	LTP098	ltpFR	13	n/a	n/a	n/a	n/a	n/a	n/a	n/a	11	2	3	6	n/a	n/a	n/a	n/a	n/a
1292.294	n/a	PROB	646147	n/a	LTP098	ltpFR	13	n/a	n/a	n/a	n/a	n/a	n/a	n/a	23	9	9	5	n/a	n/a	n/a	n/a	n/a
1293.872	n/a	STOP	646936	n/a	LTP098	ltpFR	13	n/a	n/a	n/a	n/a	n/a	n/a	n/a	n/a	n/a	n/a	n/a	n/a	n/a	n/a	n/a	n/a
1295.22	n/a	WORD	647610	wordpools/wasnorm_wordpool.txt	LTP098	ltpFR	13	5	1	PLATE	1086	n/a	n/a	0	n/a	0	0	0	0.57763671875	0.412841796875	1	upper	zerothre.ttf
1298.228	n/a	START	649114	n/a	LTP098	ltpFR	13	n/a	n/a	n/a	n/a	n/a	n/a	n/a	n/a	n/a	n/a	n/a	n/a	n/a	n/a	n/a	n/a
1299.036	n/a	PROB	649518	n/a	LTP098	ltpFR	13	n/a	n/a	n/a	n/a	n/a	n/a	n/a	15	6	1	8	n/a	n/a	n/a	n/a	n/a
1300.468	n/a	PROB	650234	n/a	LTP098	ltpFR	13	n/a	n/a	n/a	n/a	n/a	n/a	n/a	18	7	5	6	n/a	n/a	n/a	n/a	n/a
1302.144	n/a	PROB	651072	n/a	LTP098	ltpFR	13	n/a	n/a	n/a	n/a	n/a	n/a	n/a	19	5	6	8	n/a	n/a	n/a	n/a	n/a
1304.502	n/a	PROB	652251	n/a	LTP098	ltpFR	13	n/a	n/a	n/a	n/a	n/a	n/a	n/a	12	5	2	5	n/a	n/a	n/a	n/a	n/a
1305.728	n/a	STOP	652864	n/a	LTP098	ltpFR	13	n/a	n/a	n/a	n/a	n/a	n/a	n/a	n/a	n/a	n/a	n/a	n/a	n/a	n/a	n/a	n/a
1308.052	n/a	REC_START	654026	n/a	LTP098	ltpFR	13	5	n/a	n/a	n/a	n/a	n/a	n/a	n/a	0	0	0	n/a	n/a	n/a	n/a	n/a
1308.716	n/a	REC_WORD	654358	wordpools/wasnorm_wordpool.txt	LTP098	ltpFR	13	5	1	SQUIRREL	1362	n/a	n/a	1	n/a	0	0	0	n/a	n/a	n/a	n/a	n/a
1310.286	n/a	REC_WORD	655143	wordpools/wasnorm_wordpool.txt	LTP098	ltpFR	13	5	0	HOSTAGE	722	n/a	n/a	1	n/a	0	0	0	n/a	n/a	n/a	n/a	n/a
1311.052	n/a	REC_WORD	655526	wordpools/wasnorm_wordpool.txt	LTP098	ltpFR	13	5	1	RIFLE	1192	n/a	n/a	0	n/a	0	0	0	n/a	n/a	n/a	n/a	n/a
1311.98	n/a	REC_WORD	655990	wordpools/wasnorm_wordpool.txt	LTP098	ltpFR	13	5	1	PLATE	1086	n/a	n/a	0	n/a	0	0	0	n/a	n/a	n/a	n/a	n/a
1313.496	n/a	REC_WORD	656748	wordpools/wasnorm_wordpool.txt	LTP098	ltpFR	13	5	1	FEAST	556	n/a	n/a	0	n/a	0	0	0	n/a	n/a	n/a	n/a	n/a
1314.254	n/a	REC_WORD	657127	wordpools/wasnorm_wordpool.txt	LTP098	ltpFR	13	5	1	WAIST	1579	n/a	n/a	0	n/a	0	0	0	n/a	n/a	n/a	n/a	n/a
1324.91	n/a	REC_WORD	662455	wordpools/wasnorm_wordpool.txt	LTP098	ltpFR	13	5	0	PIZZA	1079	n/a	n/a	0	n/a	0	0	0	n/a	n/a	n/a	n/a	n/a
1385.026	n/a	START	692513	n/a	LTP098	ltpFR	13	n/a	n/a	n/a	n/a	n/a	n/a	n/a	n/a	n/a	n/a	n/a	n/a	n/a	n/a	n/a	n/a
1386.534	n/a	PROB	693267	n/a	LTP098	ltpFR	13	n/a	n/a	n/a	n/a	n/a	n/a	n/a	10	1	4	5	n/a	n/a	n/a	n/a	n/a
1388.326	n/a	PROB	694163	n/a	LTP098	ltpFR	13	n/a	n/a	n/a	n/a	n/a	n/a	n/a	15	6	7	2	n/a	n/a	n/a	n/a	n/a
1389.716	n/a	PROB	694858	n/a	LTP098	ltpFR	13	n/a	n/a	n/a	n/a	n/a	n/a	n/a	11	1	9	1	n/a	n/a	n/a	n/a	n/a
1390.916	n/a	PROB	695458	n/a	LTP098	ltpFR	13	n/a	n/a	n/a	n/a	n/a	n/a	n/a	11	5	5	1	n/a	n/a	n/a	n/a	n/a
1392.016	n/a	PROB	696008	n/a	LTP098	ltpFR	13	n/a	n/a	n/a	n/a	n/a	n/a	n/a	12	2	6	4	n/a	n/a	n/a	n/a	n/a
1393.284	n/a	PROB	696642	n/a	LTP098	ltpFR	13	n/a	n/a	n/a	n/a	n/a	n/a	n/a	19	6	5	8	n/a	n/a	n/a	n/a	n/a
1395.242	n/a	PROB	697621	n/a	LTP098	ltpFR	13	n/a	n/a	n/a	n/a	n/a	n/a	n/a	18	6	6	6	n/a	n/a	n/a	n/a	n/a
1396.782	n/a	PROB	698391	n/a	LTP098	ltpFR	13	n/a	n/a	n/a	n/a	n/a	n/a	n/a	15	1	6	8	n/a	n/a	n/a	n/a	n/a
1398.192	n/a	PROB	699096	n/a	LTP098	ltpFR	13	n/a	n/a	n/a	n/a	n/a	n/a	n/a	16	1	9	6	n/a	n/a	n/a	n/a	n/a
1399.408	n/a	PROB	699704	n/a	LTP098	ltpFR	13	n/a	n/a	n/a	n/a	n/a	n/a	n/a	18	7	7	4	n/a	n/a	n/a	n/a	n/a
1400.782	n/a	STOP	700391	n/a	LTP098	ltpFR	13	n/a	n/a	n/a	n/a	n/a	n/a	n/a	n/a	n/a	n/a	n/a	n/a	n/a	n/a	n/a	n/a
1401.99	n/a	WORD	700995	wordpools/wasnorm_wordpool.txt	LTP098	ltpFR	13	6	1	VET	1560	n/a	n/a	1	n/a	0	0	0	0.57763671875	0.412841796875	1	upper	zerothre.ttf
1404.998	n/a	START	702499	n/a	LTP098	ltpFR	13	n/a	n/a	n/a	n/a	n/a	n/a	n/a	n/a	n/a	n/a	n/a	n/a	n/a	n/a	n/a	n/a
1405.882	n/a	PROB	702941	n/a	LTP098	ltpFR	13	n/a	n/a	n/a	n/a	n/a	n/a	n/a	13	8	4	1	n/a	n/a	n/a	n/a	n/a
1407.126	n/a	PROB	703563	n/a	LTP098	ltpFR	13	n/a	n/a	n/a	n/a	n/a	n/a	n/a	12	8	2	2	n/a	n/a	n/a	n/a	n/a
1408.674	n/a	PROB	704337	n/a	LTP098	ltpFR	13	n/a	n/a	n/a	n/a	n/a	n/a	n/a	11	8	1	2	n/a	n/a	n/a	n/a	n/a
1410.274	n/a	PROB	705137	n/a	LTP098	ltpFR	13	n/a	n/a	n/a	n/a	n/a	n/a	n/a	15	2	4	9	n/a	n/a	n/a	n/a	n/a
1412.274	n/a	PROB	706137	n/a	LTP098	ltpFR	13	n/a	n/a	n/a	n/a	n/a	n/a	n/a	18	9	6	3	n/a	n/a	n/a	n/a	n/a
1413.956	n/a	PROB	706978	n/a	LTP098	ltpFR	13	n/a	n/a	n/a	n/a	n/a	n/a	n/a	21	9	8	5	n/a	n/a	n/a	n/a	n/a
1416.208	n/a	PROB	708104	n/a	LTP098	ltpFR	13	n/a	n/a	n/a	n/a	n/a	n/a	n/a	17	5	7	5	n/a	n/a	n/a	n/a	n/a
1417.574	n/a	PROB	708787	n/a	LTP098	ltpFR	13	n/a	n/a	n/a	n/a	n/a	n/a	n/a	16	5	7	6	n/a	n/a	n/a	n/a	n/a
1420.568	n/a	STOP	710284	n/a	LTP098	ltpFR	13	n/a	n/a	n/a	n/a	n/a	n/a	n/a	n/a	n/a	n/a	n/a	n/a	n/a	n/a	n/a	n/a
1422.066	n/a	WORD	711033	wordpools/wasnorm_wordpool.txt	LTP098	ltpFR	13	6	1	ADULT	8	n/a	n/a	1	n/a	0	0	0	0.57763671875	0.412841796875	1	upper	zerothre.ttf
1425.076	n/a	START	712538	n/a	LTP098	ltpFR	13	n/a	n/a	n/a	n/a	n/a	n/a	n/a	n/a	n/a	n/a	n/a	n/a	n/a	n/a	n/a	n/a
1425.998	n/a	PROB	712999	n/a	LTP098	ltpFR	13	n/a	n/a	n/a	n/a	n/a	n/a	n/a	20	5	8	7	n/a	n/a	n/a	n/a	n/a
1427.948	n/a	PROB	713974	n/a	LTP098	ltpFR	13	n/a	n/a	n/a	n/a	n/a	n/a	n/a	14	2	9	3	n/a	n/a	n/a	n/a	n/a
1429.432	n/a	PROB	714716	n/a	LTP098	ltpFR	13	n/a	n/a	n/a	n/a	n/a	n/a	n/a	16	1	8	7	n/a	n/a	n/a	n/a	n/a
1431.132	n/a	PROB	715566	n/a	LTP098	ltpFR	13	n/a	n/a	n/a	n/a	n/a	n/a	n/a	14	8	1	5	n/a	n/a	n/a	n/a	n/a
1432.956	n/a	PROB	716478	n/a	LTP098	ltpFR	13	n/a	n/a	n/a	n/a	n/a	n/a	n/a	18	9	1	8	n/a	n/a	n/a	n/a	n/a
1434.482	n/a	PROB	717241	n/a	LTP098	ltpFR	13	n/a	n/a	n/a	n/a	n/a	n/a	n/a	13	2	4	7	n/a	n/a	n/a	n/a	n/a
1436.066	n/a	PROB	718033	n/a	LTP098	ltpFR	13	n/a	n/a	n/a	n/a	n/a	n/a	n/a	9	2	3	4	n/a	n/a	n/a	n/a	n/a
1437.614	n/a	PROB	718807	n/a	LTP098	ltpFR	13	n/a	n/a	n/a	n/a	n/a	n/a	n/a	16	8	6	2	n/a	n/a	n/a	n/a	n/a
1438.922	n/a	PROB	719461	n/a	LTP098	ltpFR	13	n/a	n/a	n/a	n/a	n/a	n/a	n/a	17	5	8	4	n/a	n/a	n/a	n/a	n/a
1440.856	n/a	STOP	720428	n/a	LTP098	ltpFR	13	n/a	n/a	n/a	n/a	n/a	n/a	n/a	n/a	n/a	n/a	n/a	n/a	n/a	n/a	n/a	n/a
1442.232	n/a	WORD	721116	wordpools/wasnorm_wordpool.txt	LTP098	ltpFR	13	6	1	RIDER	1191	n/a	n/a	1	n/a	0	0	0	0.57763671875	0.412841796875	1	upper	zerothre.ttf
1445.242	n/a	START	722621	n/a	LTP098	ltpFR	13	n/a	n/a	n/a	n/a	n/a	n/a	n/a	n/a	n/a	n/a	n/a	n/a	n/a	n/a	n/a	n/a
1446.1	n/a	PROB	723050	n/a	LTP098	ltpFR	13	n/a	n/a	n/a	n/a	n/a	n/a	n/a	25	9	9	7	n/a	n/a	n/a	n/a	n/a
1448.49	n/a	PROB	724245	n/a	LTP098	ltpFR	13	n/a	n/a	n/a	n/a	n/a	n/a	n/a	17	7	1	9	n/a	n/a	n/a	n/a	n/a
1450.032	n/a	PROB	725016	n/a	LTP098	ltpFR	13	n/a	n/a	n/a	n/a	n/a	n/a	n/a	15	1	8	6	n/a	n/a	n/a	n/a	n/a
1451.448	n/a	PROB	725724	n/a	LTP098	ltpFR	13	n/a	n/a	n/a	n/a	n/a	n/a	n/a	14	4	3	7	n/a	n/a	n/a	n/a	n/a
1453.566	n/a	PROB	726783	n/a	LTP098	ltpFR	13	n/a	n/a	n/a	n/a	n/a	n/a	n/a	13	3	7	3	n/a	n/a	n/a	n/a	n/a
1455.348	n/a	PROB	727674	n/a	LTP098	ltpFR	13	n/a	n/a	n/a	n/a	n/a	n/a	n/a	17	3	7	7	n/a	n/a	n/a	n/a	n/a
1457.574	n/a	PROB	728787	n/a	LTP098	ltpFR	13	n/a	n/a	n/a	n/a	n/a	n/a	n/a	15	2	5	8	n/a	n/a	n/a	n/a	n/a
1459.406	n/a	PROB	729703	n/a	LTP098	ltpFR	13	n/a	n/a	n/a	n/a	n/a	n/a	n/a	13	6	1	6	n/a	n/a	n/a	n/a	n/a
1460.68	n/a	STOP	730340	n/a	LTP098	ltpFR	13	n/a	n/a	n/a	n/a	n/a	n/a	n/a	n/a	n/a	n/a	n/a	n/a	n/a	n/a	n/a	n/a
1462.306	n/a	WORD	731153	wordpools/wasnorm_wordpool.txt	LTP098	ltpFR	13	6	1	VISITOR	1573	n/a	n/a	1	n/a	0	0	0	0.57763671875	0.412841796875	1	upper	zerothre.ttf
1465.316	n/a	START	732658	n/a	LTP098	ltpFR	13	n/a	n/a	n/a	n/a	n/a	n/a	n/a	n/a	n/a	n/a	n/a	n/a	n/a	n/a	n/a	n/a
1466.216	n/a	PROB	733108	n/a	LTP098	ltpFR	13	n/a	n/a	n/a	n/a	n/a	n/a	n/a	9	3	5	1	n/a	n/a	n/a	n/a	n/a
1467.356	n/a	PROB	733678	n/a	LTP098	ltpFR	13	n/a	n/a	n/a	n/a	n/a	n/a	n/a	22	9	4	9	n/a	n/a	n/a	n/a	n/a
1468.864	n/a	PROB	734432	n/a	LTP098	ltpFR	13	n/a	n/a	n/a	n/a	n/a	n/a	n/a	16	6	4	6	n/a	n/a	n/a	n/a	n/a
1471.356	n/a	PROB	735678	n/a	LTP098	ltpFR	13	n/a	n/a	n/a	n/a	n/a	n/a	n/a	9	1	7	1	n/a	n/a	n/a	n/a	n/a
1472.414	n/a	PROB	736207	n/a	LTP098	ltpFR	13	n/a	n/a	n/a	n/a	n/a	n/a	n/a	22	8	8	6	n/a	n/a	n/a	n/a	n/a
1475.14	n/a	PROB	737570	n/a	LTP098	ltpFR	13	n/a	n/a	n/a	n/a	n/a	n/a	n/a	16	7	4	5	n/a	n/a	n/a	n/a	n/a
1476.846	n/a	PROB	738423	n/a	LTP098	ltpFR	13	n/a	n/a	n/a	n/a	n/a	n/a	n/a	11	1	6	4	n/a	n/a	n/a	n/a	n/a
1478.056	n/a	PROB	739028	n/a	LTP098	ltpFR	13	n/a	n/a	n/a	n/a	n/a	n/a	n/a	10	1	2	7	n/a	n/a	n/a	n/a	n/a
1479.264	n/a	PROB	739632	n/a	LTP098	ltpFR	13	n/a	n/a	n/a	n/a	n/a	n/a	n/a	12	5	6	1	n/a	n/a	n/a	n/a	n/a
1480.426	n/a	STOP	740213	n/a	LTP098	ltpFR	13	n/a	n/a	n/a	n/a	n/a	n/a	n/a	n/a	n/a	n/a	n/a	n/a	n/a	n/a	n/a	n/a
1482.148	n/a	WORD	741074	wordpools/wasnorm_wordpool.txt	LTP098	ltpFR	13	6	1	MOUNTAIN	924	n/a	n/a	0	n/a	0	0	0	0.57763671875	0.412841796875	1	upper	zerothre.ttf
1485.156	n/a	START	742578	n/a	LTP098	ltpFR	13	n/a	n/a	n/a	n/a	n/a	n/a	n/a	n/a	n/a	n/a	n/a	n/a	n/a	n/a	n/a	n/a
1486.314	n/a	PROB	743157	n/a	LTP098	ltpFR	13	n/a	n/a	n/a	n/a	n/a	n/a	n/a	17	2	7	8	n/a	n/a	n/a	n/a	n/a
1488.938	n/a	PROB	744469	n/a	LTP098	ltpFR	13	n/a	n/a	n/a	n/a	n/a	n/a	n/a	6	1	1	4	n/a	n/a	n/a	n/a	n/a
1490.072	n/a	PROB	745036	n/a	LTP098	ltpFR	13	n/a	n/a	n/a	n/a	n/a	n/a	n/a	19	9	2	8	n/a	n/a	n/a	n/a	n/a
1491.922	n/a	PROB	745961	n/a	LTP098	ltpFR	13	n/a	n/a	n/a	n/a	n/a	n/a	n/a	18	2	8	8	n/a	n/a	n/a	n/a	n/a
1493.464	n/a	PROB	746732	n/a	LTP098	ltpFR	13	n/a	n/a	n/a	n/a	n/a	n/a	n/a	21	8	9	4	n/a	n/a	n/a	n/a	n/a
1498.962	n/a	PROB	749481	n/a	LTP098	ltpFR	13	n/a	n/a	n/a	n/a	n/a	n/a	n/a	16	8	2	6	n/a	n/a	n/a	n/a	n/a
1500.1	n/a	STOP	750050	n/a	LTP098	ltpFR	13	n/a	n/a	n/a	n/a	n/a	n/a	n/a	n/a	n/a	n/a	n/a	n/a	n/a	n/a	n/a	n/a
1502.306	n/a	WORD	751153	wordpools/wasnorm_wordpool.txt	LTP098	ltpFR	13	6	1	SUMMIT	1405	n/a	n/a	0	n/a	0	0	0	0.57763671875	0.412841796875	1	upper	zerothre.ttf
1505.314	n/a	START	752657	n/a	LTP098	ltpFR	13	n/a	n/a	n/a	n/a	n/a	n/a	n/a	n/a	n/a	n/a	n/a	n/a	n/a	n/a	n/a	n/a
1506.314	n/a	PROB	753157	n/a	LTP098	ltpFR	13	n/a	n/a	n/a	n/a	n/a	n/a	n/a	16	6	6	4	n/a	n/a	n/a	n/a	n/a
1508.038	n/a	PROB	754019	n/a	LTP098	ltpFR	13	n/a	n/a	n/a	n/a	n/a	n/a	n/a	9	4	3	2	n/a	n/a	n/a	n/a	n/a
1510.746	n/a	PROB	755373	n/a	LTP098	ltpFR	13	n/a	n/a	n/a	n/a	n/a	n/a	n/a	19	8	9	2	n/a	n/a	n/a	n/a	n/a
1512.704	n/a	PROB	756352	n/a	LTP098	ltpFR	13	n/a	n/a	n/a	n/a	n/a	n/a	n/a	13	1	4	8	n/a	n/a	n/a	n/a	n/a
1514.072	n/a	PROB	757036	n/a	LTP098	ltpFR	13	n/a	n/a	n/a	n/a	n/a	n/a	n/a	17	8	7	2	n/a	n/a	n/a	n/a	n/a
1516.012	n/a	PROB	758006	n/a	LTP098	ltpFR	13	n/a	n/a	n/a	n/a	n/a	n/a	n/a	23	8	6	9	n/a	n/a	n/a	n/a	n/a
1521.316	n/a	STOP	760658	n/a	LTP098	ltpFR	13	n/a	n/a	n/a	n/a	n/a	n/a	n/a	n/a	n/a	n/a	n/a	n/a	n/a	n/a	n/a	n/a
1522.206	n/a	WORD	761103	wordpools/wasnorm_wordpool.txt	LTP098	ltpFR	13	6	1	PARTY	1018	n/a	n/a	0	n/a	0	0	0	0.57763671875	0.412841796875	1	upper	zerothre.ttf
1525.214	n/a	START	762607	n/a	LTP098	ltpFR	13	n/a	n/a	n/a	n/a	n/a	n/a	n/a	n/a	n/a	n/a	n/a	n/a	n/a	n/a	n/a	n/a
1526.072	n/a	PROB	763036	n/a	LTP098	ltpFR	13	n/a	n/a	n/a	n/a	n/a	n/a	n/a	20	9	4	7	n/a	n/a	n/a	n/a	n/a
1527.896	n/a	PROB	763948	n/a	LTP098	ltpFR	13	n/a	n/a	n/a	n/a	n/a	n/a	n/a	16	2	6	8	n/a	n/a	n/a	n/a	n/a
1529.43	n/a	PROB	764715	n/a	LTP098	ltpFR	13	n/a	n/a	n/a	n/a	n/a	n/a	n/a	15	5	4	6	n/a	n/a	n/a	n/a	n/a
1532.404	n/a	PROB	766202	n/a	LTP098	ltpFR	13	n/a	n/a	n/a	n/a	n/a	n/a	n/a	16	7	4	5	n/a	n/a	n/a	n/a	n/a
1534.02	n/a	PROB	767010	n/a	LTP098	ltpFR	13	n/a	n/a	n/a	n/a	n/a	n/a	n/a	17	8	1	8	n/a	n/a	n/a	n/a	n/a
1535.412	n/a	PROB	767706	n/a	LTP098	ltpFR	13	n/a	n/a	n/a	n/a	n/a	n/a	n/a	13	2	1	9	n/a	n/a	n/a	n/a	n/a
1537.58	n/a	PROB	768790	n/a	LTP098	ltpFR	13	n/a	n/a	n/a	n/a	n/a	n/a	n/a	19	6	6	7	n/a	n/a	n/a	n/a	n/a
1540.822	n/a	STOP	770411	n/a	LTP098	ltpFR	13	n/a	n/a	n/a	n/a	n/a	n/a	n/a	n/a	n/a	n/a	n/a	n/a	n/a	n/a	n/a	n/a
1542.188	n/a	WORD	771094	wordpools/wasnorm_wordpool.txt	LTP098	ltpFR	13	6	1	HOSTESS	723	n/a	n/a	1	n/a	0	0	0	0.57763671875	0.412841796875	1	upper	zerothre.ttf
1545.196	n/a	START	772598	n/a	LTP098	ltpFR	13	n/a	n/a	n/a	n/a	n/a	n/a	n/a	n/a	n/a	n/a	n/a	n/a	n/a	n/a	n/a	n/a
1546.23	n/a	PROB	773115	n/a	LTP098	ltpFR	13	n/a	n/a	n/a	n/a	n/a	n/a	n/a	16	6	4	6	n/a	n/a	n/a	n/a	n/a
1547.72	n/a	PROB	773860	n/a	LTP098	ltpFR	13	n/a	n/a	n/a	n/a	n/a	n/a	n/a	11	4	2	5	n/a	n/a	n/a	n/a	n/a
1550.096	n/a	PROB	775048	n/a	LTP098	ltpFR	13	n/a	n/a	n/a	n/a	n/a	n/a	n/a	8	1	1	6	n/a	n/a	n/a	n/a	n/a
1551.728	n/a	PROB	775864	n/a	LTP098	ltpFR	13	n/a	n/a	n/a	n/a	n/a	n/a	n/a	20	7	9	4	n/a	n/a	n/a	n/a	n/a
1553.512	n/a	PROB	776756	n/a	LTP098	ltpFR	13	n/a	n/a	n/a	n/a	n/a	n/a	n/a	18	5	8	5	n/a	n/a	n/a	n/a	n/a
1554.928	n/a	PROB	777464	n/a	LTP098	ltpFR	13	n/a	n/a	n/a	n/a	n/a	n/a	n/a	11	5	5	1	n/a	n/a	n/a	n/a	n/a
1556.128	n/a	PROB	778064	n/a	LTP098	ltpFR	13	n/a	n/a	n/a	n/a	n/a	n/a	n/a	19	7	3	9	n/a	n/a	n/a	n/a	n/a
1557.346	n/a	PROB	778673	n/a	LTP098	ltpFR	13	n/a	n/a	n/a	n/a	n/a	n/a	n/a	17	3	7	7	n/a	n/a	n/a	n/a	n/a
1559.62	n/a	PROB	779810	n/a	LTP098	ltpFR	13	n/a	n/a	n/a	n/a	n/a	n/a	n/a	18	7	2	9	n/a	n/a	n/a	n/a	n/a
1560.918	n/a	STOP	780459	n/a	LTP098	ltpFR	13	n/a	n/a	n/a	n/a	n/a	n/a	n/a	n/a	n/a	n/a	n/a	n/a	n/a	n/a	n/a	n/a
1562.072	n/a	WORD	781036	wordpools/wasnorm_wordpool.txt	LTP098	ltpFR	13	6	1	DONKEY	484	n/a	n/a	1	n/a	0	0	0	0.57763671875	0.412841796875	1	upper	zerothre.ttf
1565.08	n/a	START	782540	n/a	LTP098	ltpFR	13	n/a	n/a	n/a	n/a	n/a	n/a	n/a	n/a	n/a	n/a	n/a	n/a	n/a	n/a	n/a	n/a
1566.154	n/a	PROB	783077	n/a	LTP098	ltpFR	13	n/a	n/a	n/a	n/a	n/a	n/a	n/a	18	9	6	3	n/a	n/a	n/a	n/a	n/a
1567.762	n/a	PROB	783881	n/a	LTP098	ltpFR	13	n/a	n/a	n/a	n/a	n/a	n/a	n/a	19	9	1	9	n/a	n/a	n/a	n/a	n/a
1570.304	n/a	PROB	785152	n/a	LTP098	ltpFR	13	n/a	n/a	n/a	n/a	n/a	n/a	n/a	15	9	5	1	n/a	n/a	n/a	n/a	n/a
1572.154	n/a	PROB	786077	n/a	LTP098	ltpFR	13	n/a	n/a	n/a	n/a	n/a	n/a	n/a	17	9	3	7	n/a	n/a	n/a	n/a	n/a
1573.72	n/a	PROB	786860	n/a	LTP098	ltpFR	13	n/a	n/a	n/a	n/a	n/a	n/a	n/a	20	9	9	2	n/a	n/a	n/a	n/a	n/a
1577.22	n/a	PROB	788610	n/a	LTP098	ltpFR	13	n/a	n/a	n/a	n/a	n/a	n/a	n/a	9	4	1	4	n/a	n/a	n/a	n/a	n/a
1578.404	n/a	PROB	789202	n/a	LTP098	ltpFR	13	n/a	n/a	n/a	n/a	n/a	n/a	n/a	21	7	9	3	n/a	n/a	n/a	n/a	n/a
1580.24	n/a	STOP	790120	n/a	LTP098	ltpFR	13	n/a	n/a	n/a	n/a	n/a	n/a	n/a	n/a	n/a	n/a	n/a	n/a	n/a	n/a	n/a	n/a
1582.278	n/a	WORD	791139	wordpools/wasnorm_wordpool.txt	LTP098	ltpFR	13	6	1	CARD	243	n/a	n/a	0	n/a	0	0	0	0.57763671875	0.412841796875	1	upper	zerothre.ttf
1585.288	n/a	START	792644	n/a	LTP098	ltpFR	13	n/a	n/a	n/a	n/a	n/a	n/a	n/a	n/a	n/a	n/a	n/a	n/a	n/a	n/a	n/a	n/a
1586.22	n/a	PROB	793110	n/a	LTP098	ltpFR	13	n/a	n/a	n/a	n/a	n/a	n/a	n/a	19	6	5	8	n/a	n/a	n/a	n/a	n/a
1590.262	n/a	PROB	795131	n/a	LTP098	ltpFR	13	n/a	n/a	n/a	n/a	n/a	n/a	n/a	14	2	9	3	n/a	n/a	n/a	n/a	n/a
1591.794	n/a	PROB	795897	n/a	LTP098	ltpFR	13	n/a	n/a	n/a	n/a	n/a	n/a	n/a	18	9	3	6	n/a	n/a	n/a	n/a	n/a
1593.578	n/a	PROB	796789	n/a	LTP098	ltpFR	13	n/a	n/a	n/a	n/a	n/a	n/a	n/a	18	7	8	3	n/a	n/a	n/a	n/a	n/a
1595.578	n/a	PROB	797789	n/a	LTP098	ltpFR	13	n/a	n/a	n/a	n/a	n/a	n/a	n/a	11	4	3	4	n/a	n/a	n/a	n/a	n/a
1597.588	n/a	PROB	798794	n/a	LTP098	ltpFR	13	n/a	n/a	n/a	n/a	n/a	n/a	n/a	16	8	2	6	n/a	n/a	n/a	n/a	n/a
1598.86	n/a	PROB	799430	n/a	LTP098	ltpFR	13	n/a	n/a	n/a	n/a	n/a	n/a	n/a	12	4	3	5	n/a	n/a	n/a	n/a	n/a
1600.578	n/a	STOP	800289	n/a	LTP098	ltpFR	13	n/a	n/a	n/a	n/a	n/a	n/a	n/a	n/a	n/a	n/a	n/a	n/a	n/a	n/a	n/a	n/a
1602.178	n/a	WORD	801089	wordpools/wasnorm_wordpool.txt	LTP098	ltpFR	13	6	1	MILK	895	n/a	n/a	0	n/a	0	0	0	0.57763671875	0.412841796875	1	upper	zerothre.ttf
1605.186	n/a	START	802593	n/a	LTP098	ltpFR	13	n/a	n/a	n/a	n/a	n/a	n/a	n/a	n/a	n/a	n/a	n/a	n/a	n/a	n/a	n/a	n/a
1606.17	n/a	PROB	803085	n/a	LTP098	ltpFR	13	n/a	n/a	n/a	n/a	n/a	n/a	n/a	16	3	5	8	n/a	n/a	n/a	n/a	n/a
1607.868	n/a	PROB	803934	n/a	LTP098	ltpFR	13	n/a	n/a	n/a	n/a	n/a	n/a	n/a	20	2	9	9	n/a	n/a	n/a	n/a	n/a
1609.252	n/a	PROB	804626	n/a	LTP098	ltpFR	13	n/a	n/a	n/a	n/a	n/a	n/a	n/a	9	2	5	2	n/a	n/a	n/a	n/a	n/a
1610.976	n/a	PROB	805488	n/a	LTP098	ltpFR	13	n/a	n/a	n/a	n/a	n/a	n/a	n/a	8	1	2	5	n/a	n/a	n/a	n/a	n/a
1612.402	n/a	PROB	806201	n/a	LTP098	ltpFR	13	n/a	n/a	n/a	n/a	n/a	n/a	n/a	11	3	6	2	n/a	n/a	n/a	n/a	n/a
1614.102	n/a	PROB	807051	n/a	LTP098	ltpFR	13	n/a	n/a	n/a	n/a	n/a	n/a	n/a	19	4	7	8	n/a	n/a	n/a	n/a	n/a
1615.968	n/a	PROB	807984	n/a	LTP098	ltpFR	13	n/a	n/a	n/a	n/a	n/a	n/a	n/a	16	2	6	8	n/a	n/a	n/a	n/a	n/a
1617.578	n/a	PROB	808789	n/a	LTP098	ltpFR	13	n/a	n/a	n/a	n/a	n/a	n/a	n/a	19	4	7	8	n/a	n/a	n/a	n/a	n/a
1619.61	n/a	PROB	809805	n/a	LTP098	ltpFR	13	n/a	n/a	n/a	n/a	n/a	n/a	n/a	13	5	5	3	n/a	n/a	n/a	n/a	n/a
1620.762	n/a	STOP	810381	n/a	LTP098	ltpFR	13	n/a	n/a	n/a	n/a	n/a	n/a	n/a	n/a	n/a	n/a	n/a	n/a	n/a	n/a	n/a	n/a
1622.152	n/a	WORD	811076	wordpools/wasnorm_wordpool.txt	LTP098	ltpFR	13	6	1	ADOLESCENT	7	n/a	n/a	1	n/a	0	0	0	0.57763671875	0.412841796875	1	upper	zerothre.ttf
1625.162	n/a	START	812581	n/a	LTP098	ltpFR	13	n/a	n/a	n/a	n/a	n/a	n/a	n/a	n/a	n/a	n/a	n/a	n/a	n/a	n/a	n/a	n/a
1626.152	n/a	PROB	813076	n/a	LTP098	ltpFR	13	n/a	n/a	n/a	n/a	n/a	n/a	n/a	18	1	9	8	n/a	n/a	n/a	n/a	n/a
1627.834	n/a	PROB	813917	n/a	LTP098	ltpFR	13	n/a	n/a	n/a	n/a	n/a	n/a	n/a	21	6	8	7	n/a	n/a	n/a	n/a	n/a
1629.336	n/a	PROB	814668	n/a	LTP098	ltpFR	13	n/a	n/a	n/a	n/a	n/a	n/a	n/a	20	6	8	6	n/a	n/a	n/a	n/a	n/a
1631.236	n/a	PROB	815618	n/a	LTP098	ltpFR	13	n/a	n/a	n/a	n/a	n/a	n/a	n/a	15	2	6	7	n/a	n/a	n/a	n/a	n/a
1632.718	n/a	PROB	816359	n/a	LTP098	ltpFR	13	n/a	n/a	n/a	n/a	n/a	n/a	n/a	18	4	8	6	n/a	n/a	n/a	n/a	n/a
1635.42	n/a	PROB	817710	n/a	LTP098	ltpFR	13	n/a	n/a	n/a	n/a	n/a	n/a	n/a	11	7	1	3	n/a	n/a	n/a	n/a	n/a
1636.91	n/a	PROB	818455	n/a	LTP098	ltpFR	13	n/a	n/a	n/a	n/a	n/a	n/a	n/a	12	5	3	4	n/a	n/a	n/a	n/a	n/a
1638.91	n/a	PROB	819455	n/a	LTP098	ltpFR	13	n/a	n/a	n/a	n/a	n/a	n/a	n/a	18	5	8	5	n/a	n/a	n/a	n/a	n/a
1640.244	n/a	STOP	820122	n/a	LTP098	ltpFR	13	n/a	n/a	n/a	n/a	n/a	n/a	n/a	n/a	n/a	n/a	n/a	n/a	n/a	n/a	n/a	n/a
1642.018	n/a	WORD	821009	wordpools/wasnorm_wordpool.txt	LTP098	ltpFR	13	6	1	COWBOY	395	n/a	n/a	1	n/a	0	0	0	0.57763671875	0.412841796875	1	upper	zerothre.ttf
1645.018	n/a	START	822509	n/a	LTP098	ltpFR	13	n/a	n/a	n/a	n/a	n/a	n/a	n/a	n/a	n/a	n/a	n/a	n/a	n/a	n/a	n/a	n/a
1645.992	n/a	PROB	822996	n/a	LTP098	ltpFR	13	n/a	n/a	n/a	n/a	n/a	n/a	n/a	11	8	2	1	n/a	n/a	n/a	n/a	n/a
1647.402	n/a	PROB	823701	n/a	LTP098	ltpFR	13	n/a	n/a	n/a	n/a	n/a	n/a	n/a	20	9	4	7	n/a	n/a	n/a	n/a	n/a
1648.818	n/a	PROB	824409	n/a	LTP098	ltpFR	13	n/a	n/a	n/a	n/a	n/a	n/a	n/a	14	3	5	6	n/a	n/a	n/a	n/a	n/a
1650.958	n/a	PROB	825479	n/a	LTP098	ltpFR	13	n/a	n/a	n/a	n/a	n/a	n/a	n/a	17	8	6	3	n/a	n/a	n/a	n/a	n/a
1652.668	n/a	PROB	826334	n/a	LTP098	ltpFR	13	n/a	n/a	n/a	n/a	n/a	n/a	n/a	15	8	2	5	n/a	n/a	n/a	n/a	n/a
1653.984	n/a	PROB	826992	n/a	LTP098	ltpFR	13	n/a	n/a	n/a	n/a	n/a	n/a	n/a	14	8	4	2	n/a	n/a	n/a	n/a	n/a
1655.51	n/a	PROB	827755	n/a	LTP098	ltpFR	13	n/a	n/a	n/a	n/a	n/a	n/a	n/a	12	2	9	1	n/a	n/a	n/a	n/a	n/a
1657.228	n/a	PROB	828614	n/a	LTP098	ltpFR	13	n/a	n/a	n/a	n/a	n/a	n/a	n/a	9	3	2	2	n/a	n/a	n/a	n/a	n/a
1661.02	n/a	STOP	830510	n/a	LTP098	ltpFR	13	n/a	n/a	n/a	n/a	n/a	n/a	n/a	n/a	n/a	n/a	n/a	n/a	n/a	n/a	n/a	n/a
1662.21	n/a	WORD	831105	wordpools/wasnorm_wordpool.txt	LTP098	ltpFR	13	6	1	SPACE	1345	n/a	n/a	0	n/a	0	0	0	0.57763671875	0.412841796875	1	upper	zerothre.ttf
1665.21	n/a	START	832605	n/a	LTP098	ltpFR	13	n/a	n/a	n/a	n/a	n/a	n/a	n/a	n/a	n/a	n/a	n/a	n/a	n/a	n/a	n/a	n/a
1666.076	n/a	PROB	833038	n/a	LTP098	ltpFR	13	n/a	n/a	n/a	n/a	n/a	n/a	n/a	13	1	8	4	n/a	n/a	n/a	n/a	n/a
1667.384	n/a	PROB	833692	n/a	LTP098	ltpFR	13	n/a	n/a	n/a	n/a	n/a	n/a	n/a	10	1	2	7	n/a	n/a	n/a	n/a	n/a
1668.758	n/a	PROB	834379	n/a	LTP098	ltpFR	13	n/a	n/a	n/a	n/a	n/a	n/a	n/a	15	5	6	4	n/a	n/a	n/a	n/a	n/a
1670.7	n/a	PROB	835350	n/a	LTP098	ltpFR	13	n/a	n/a	n/a	n/a	n/a	n/a	n/a	18	4	6	8	n/a	n/a	n/a	n/a	n/a
1673.56	n/a	PROB	836780	n/a	LTP098	ltpFR	13	n/a	n/a	n/a	n/a	n/a	n/a	n/a	12	7	1	4	n/a	n/a	n/a	n/a	n/a
1675.344	n/a	PROB	837672	n/a	LTP098	ltpFR	13	n/a	n/a	n/a	n/a	n/a	n/a	n/a	10	4	4	2	n/a	n/a	n/a	n/a	n/a
1676.75	n/a	PROB	838375	n/a	LTP098	ltpFR	13	n/a	n/a	n/a	n/a	n/a	n/a	n/a	16	6	3	7	n/a	n/a	n/a	n/a	n/a
1678.16	n/a	PROB	839080	n/a	LTP098	ltpFR	13	n/a	n/a	n/a	n/a	n/a	n/a	n/a	21	6	8	7	n/a	n/a	n/a	n/a	n/a
1680.238	n/a	STOP	840119	n/a	LTP098	ltpFR	13	n/a	n/a	n/a	n/a	n/a	n/a	n/a	n/a	n/a	n/a	n/a	n/a	n/a	n/a	n/a	n/a
1682.092	n/a	WORD	841046	wordpools/wasnorm_wordpool.txt	LTP098	ltpFR	13	6	1	LIVER	833	n/a	n/a	1	n/a	0	0	0	0.57763671875	0.412841796875	1	upper	zerothre.ttf
1685.102	n/a	START	842551	n/a	LTP098	ltpFR	13	n/a	n/a	n/a	n/a	n/a	n/a	n/a	n/a	n/a	n/a	n/a	n/a	n/a	n/a	n/a	n/a
1686.0	n/a	PROB	843000	n/a	LTP098	ltpFR	13	n/a	n/a	n/a	n/a	n/a	n/a	n/a	17	3	5	9	n/a	n/a	n/a	n/a	n/a
1687.51	n/a	PROB	843755	n/a	LTP098	ltpFR	13	n/a	n/a	n/a	n/a	n/a	n/a	n/a	14	4	4	6	n/a	n/a	n/a	n/a	n/a
1689.008	n/a	PROB	844504	n/a	LTP098	ltpFR	13	n/a	n/a	n/a	n/a	n/a	n/a	n/a	14	1	4	9	n/a	n/a	n/a	n/a	n/a
1691.192	n/a	PROB	845596	n/a	LTP098	ltpFR	13	n/a	n/a	n/a	n/a	n/a	n/a	n/a	26	9	9	8	n/a	n/a	n/a	n/a	n/a
1694.484	n/a	PROB	847242	n/a	LTP098	ltpFR	13	n/a	n/a	n/a	n/a	n/a	n/a	n/a	20	8	7	5	n/a	n/a	n/a	n/a	n/a
1696.234	n/a	PROB	848117	n/a	LTP098	ltpFR	13	n/a	n/a	n/a	n/a	n/a	n/a	n/a	14	4	2	8	n/a	n/a	n/a	n/a	n/a
1697.916	n/a	PROB	848958	n/a	LTP098	ltpFR	13	n/a	n/a	n/a	n/a	n/a	n/a	n/a	18	7	5	4	n/a	n/a	n/a	n/a	n/a
1700.294	n/a	STOP	850147	n/a	LTP098	ltpFR	13	n/a	n/a	n/a	n/a	n/a	n/a	n/a	n/a	n/a	n/a	n/a	n/a	n/a	n/a	n/a	n/a
1702.226	n/a	WORD	851113	wordpools/wasnorm_wordpool.txt	LTP098	ltpFR	13	6	1	HEN	703	n/a	n/a	1	n/a	0	0	0	0.57763671875	0.412841796875	1	upper	zerothre.ttf
1705.234	n/a	START	852617	n/a	LTP098	ltpFR	13	n/a	n/a	n/a	n/a	n/a	n/a	n/a	n/a	n/a	n/a	n/a	n/a	n/a	n/a	n/a	n/a
1706.284	n/a	PROB	853142	n/a	LTP098	ltpFR	13	n/a	n/a	n/a	n/a	n/a	n/a	n/a	9	3	5	1	n/a	n/a	n/a	n/a	n/a
1707.534	n/a	PROB	853767	n/a	LTP098	ltpFR	13	n/a	n/a	n/a	n/a	n/a	n/a	n/a	17	2	7	8	n/a	n/a	n/a	n/a	n/a
1711.21	n/a	PROB	855605	n/a	LTP098	ltpFR	13	n/a	n/a	n/a	n/a	n/a	n/a	n/a	19	7	6	5	n/a	n/a	n/a	n/a	n/a
1713.016	n/a	PROB	856508	n/a	LTP098	ltpFR	13	n/a	n/a	n/a	n/a	n/a	n/a	n/a	18	6	5	7	n/a	n/a	n/a	n/a	n/a
1714.75	n/a	PROB	857375	n/a	LTP098	ltpFR	13	n/a	n/a	n/a	n/a	n/a	n/a	n/a	5	1	3	1	n/a	n/a	n/a	n/a	n/a
1715.816	n/a	PROB	857908	n/a	LTP098	ltpFR	13	n/a	n/a	n/a	n/a	n/a	n/a	n/a	12	3	4	5	n/a	n/a	n/a	n/a	n/a
1717.992	n/a	PROB	858996	n/a	LTP098	ltpFR	13	n/a	n/a	n/a	n/a	n/a	n/a	n/a	6	1	2	3	n/a	n/a	n/a	n/a	n/a
1719.258	n/a	PROB	859629	n/a	LTP098	ltpFR	13	n/a	n/a	n/a	n/a	n/a	n/a	n/a	16	7	4	5	n/a	n/a	n/a	n/a	n/a
1720.536	n/a	STOP	860268	n/a	LTP098	ltpFR	13	n/a	n/a	n/a	n/a	n/a	n/a	n/a	n/a	n/a	n/a	n/a	n/a	n/a	n/a	n/a	n/a
1723.15	n/a	REC_START	861575	n/a	LTP098	ltpFR	13	6	n/a	n/a	n/a	n/a	n/a	n/a	n/a	0	0	0	n/a	n/a	n/a	n/a	n/a
1723.794	n/a	REC_WORD	861897	wordpools/wasnorm_wordpool.txt	LTP098	ltpFR	13	6	1	HEN	703	n/a	n/a	1	n/a	0	0	0	n/a	n/a	n/a	n/a	n/a
1725.19	n/a	REC_WORD	862595	wordpools/wasnorm_wordpool.txt	LTP098	ltpFR	13	6	1	LIVER	833	n/a	n/a	1	n/a	0	0	0	n/a	n/a	n/a	n/a	n/a
1726.402	n/a	REC_WORD	863201	wordpools/wasnorm_wordpool.txt	LTP098	ltpFR	13	6	1	ADOLESCENT	7	n/a	n/a	1	n/a	0	0	0	n/a	n/a	n/a	n/a	n/a
1727.754	n/a	REC_WORD	863877	wordpools/wasnorm_wordpool.txt	LTP098	ltpFR	13	6	1	VET	1560	n/a	n/a	1	n/a	0	0	0	n/a	n/a	n/a	n/a	n/a
1729.012	n/a	REC_WORD	864506	wordpools/wasnorm_wordpool.txt	LTP098	ltpFR	13	6	1	ADULT	8	n/a	n/a	1	n/a	0	0	0	n/a	n/a	n/a	n/a	n/a
1811.09	n/a	WORD	905545	wordpools/wasnorm_wordpool.txt	LTP098	ltpFR	13	7	0	CIRCUS	311	n/a	n/a	1	n/a	0	0	0	0.422607421875	0.5869140625	0	lower	amplitud.ttf
1815.048	n/a	WORD	907524	wordpools/wasnorm_wordpool.txt	LTP098	ltpFR	13	7	0	PEACH	1031	n/a	n/a	0	n/a	0	0	0	0.422607421875	0.5869140625	0	lower	amplitud.ttf
1818.988	n/a	WORD	909494	wordpools/wasnorm_wordpool.txt	LTP098	ltpFR	13	7	0	SHORTCAKE	1292	n/a	n/a	0	n/a	0	0	0	0.422607421875	0.5869140625	0	lower	amplitud.ttf
1823.122	n/a	WORD	911561	wordpools/wasnorm_wordpool.txt	LTP098	ltpFR	13	7	0	CEILING	265	n/a	n/a	1	n/a	0	0	0	0.422607421875	0.5869140625	0	lower	amplitud.ttf
1827.322	n/a	WORD	913661	wordpools/wasnorm_wordpool.txt	LTP098	ltpFR	13	7	0	SEAL	1262	n/a	n/a	1	n/a	0	0	0	0.422607421875	0.5869140625	0	lower	amplitud.ttf
1831.14	n/a	WORD	915570	wordpools/wasnorm_wordpool.txt	LTP098	ltpFR	13	7	0	DINNER	468	n/a	n/a	1	n/a	0	0	0	0.422607421875	0.5869140625	0	lower	amplitud.ttf
1835.064	n/a	WORD	917532	wordpools/wasnorm_wordpool.txt	LTP098	ltpFR	13	7	0	GRILL	661	n/a	n/a	1	n/a	0	0	0	0.422607421875	0.5869140625	0	lower	amplitud.ttf
1838.904	n/a	WORD	919452	wordpools/wasnorm_wordpool.txt	LTP098	ltpFR	13	7	0	MOB	904	n/a	n/a	1	n/a	0	0	0	0.422607421875	0.5869140625	0	lower	amplitud.ttf
1842.812	n/a	WORD	921406	wordpools/wasnorm_wordpool.txt	LTP098	ltpFR	13	7	0	BULLETIN	195	n/a	n/a	1	n/a	0	0	0	0.422607421875	0.5869140625	0	lower	amplitud.ttf
1846.922	n/a	WORD	923461	wordpools/wasnorm_wordpool.txt	LTP098	ltpFR	13	7	0	GREASE	660	n/a	n/a	0	n/a	0	0	0	0.422607421875	0.5869140625	0	lower	amplitud.ttf
1851.03	n/a	WORD	925515	wordpools/wasnorm_wordpool.txt	LTP098	ltpFR	13	7	0	RATTLE	1170	n/a	n/a	0	n/a	0	0	0	0.422607421875	0.5869140625	0	lower	amplitud.ttf
1855.038	n/a	WORD	927519	wordpools/wasnorm_wordpool.txt	LTP098	ltpFR	13	7	0	PLASTER	1085	n/a	n/a	0	n/a	0	0	0	0.422607421875	0.5869140625	0	lower	amplitud.ttf
1858.912	n/a	WORD	929456	wordpools/wasnorm_wordpool.txt	LTP098	ltpFR	13	7	0	LETTUCE	814	n/a	n/a	1	n/a	0	0	0	0.422607421875	0.5869140625	0	lower	amplitud.ttf
1862.754	n/a	WORD	931377	wordpools/wasnorm_wordpool.txt	LTP098	ltpFR	13	7	0	COBRA	336	n/a	n/a	0	n/a	0	0	0	0.422607421875	0.5869140625	0	lower	amplitud.ttf
1866.962	n/a	WORD	933481	wordpools/wasnorm_wordpool.txt	LTP098	ltpFR	13	7	0	FOOT	590	n/a	n/a	0	n/a	0	0	0	0.422607421875	0.5869140625	0	lower	amplitud.ttf
1871.104	n/a	WORD	935552	wordpools/wasnorm_wordpool.txt	LTP098	ltpFR	13	7	0	HIP	710	n/a	n/a	1	n/a	0	0	0	0.422607421875	0.5869140625	0	lower	amplitud.ttf
1874.104	n/a	START	937052	n/a	LTP098	ltpFR	13	n/a	n/a	n/a	n/a	n/a	n/a	n/a	n/a	n/a	n/a	n/a	n/a	n/a	n/a	n/a	n/a
1875.122	n/a	PROB	937561	n/a	LTP098	ltpFR	13	n/a	n/a	n/a	n/a	n/a	n/a	n/a	17	6	7	4	n/a	n/a	n/a	n/a	n/a
1877.004	n/a	PROB	938502	n/a	LTP098	ltpFR	13	n/a	n/a	n/a	n/a	n/a	n/a	n/a	17	2	9	6	n/a	n/a	n/a	n/a	n/a
1878.812	n/a	PROB	939406	n/a	LTP098	ltpFR	13	n/a	n/a	n/a	n/a	n/a	n/a	n/a	16	5	7	4	n/a	n/a	n/a	n/a	n/a
1881.006	n/a	STOP	940503	n/a	LTP098	ltpFR	13	n/a	n/a	n/a	n/a	n/a	n/a	n/a	n/a	n/a	n/a	n/a	n/a	n/a	n/a	n/a	n/a
1883.98	n/a	REC_START	941990	n/a	LTP098	ltpFR	13	7	n/a	n/a	n/a	n/a	n/a	n/a	n/a	0	0	0	n/a	n/a	n/a	n/a	n/a
1884.854	n/a	REC_WORD	942427	wordpools/wasnorm_wordpool.txt	LTP098	ltpFR	13	7	0	COBRA	336	n/a	n/a	0	n/a	0	0	0	n/a	n/a	n/a	n/a	n/a
1887.532	n/a	REC_WORD	943766	wordpools/wasnorm_wordpool.txt	LTP098	ltpFR	13	7	0	FOOT	590	n/a	n/a	0	n/a	0	0	0	n/a	n/a	n/a	n/a	n/a
1888.914	n/a	REC_WORD	944457	wordpools/wasnorm_wordpool.txt	LTP098	ltpFR	13	7	0	LETTUCE	814	n/a	n/a	1	n/a	0	0	0	n/a	n/a	n/a	n/a	n/a
1891.996	n/a	REC_WORD	945998	wordpools/wasnorm_wordpool.txt	LTP098	ltpFR	13	7	0	SHORTCAKE	1292	n/a	n/a	0	n/a	0	0	0	n/a	n/a	n/a	n/a	n/a
1893.234	n/a	REC_WORD	946617	wordpools/wasnorm_wordpool.txt	LTP098	ltpFR	13	7	0	PEACH	1031	n/a	n/a	0	n/a	0	0	0	n/a	n/a	n/a	n/a	n/a
1894.46	n/a	REC_WORD	947230	wordpools/wasnorm_wordpool.txt	LTP098	ltpFR	13	7	0	BULLETIN	195	n/a	n/a	1	n/a	0	0	0	n/a	n/a	n/a	n/a	n/a
1895.458	n/a	REC_WORD	947729	wordpools/wasnorm_wordpool.txt	LTP098	ltpFR	13	7	0	MOB	904	n/a	n/a	1	n/a	0	0	0	n/a	n/a	n/a	n/a	n/a
1896.476	n/a	REC_WORD	948238	wordpools/wasnorm_wordpool.txt	LTP098	ltpFR	13	7	0	CIRCUS	311	n/a	n/a	1	n/a	0	0	0	n/a	n/a	n/a	n/a	n/a
1897.568	n/a	REC_WORD	948784	wordpools/wasnorm_wordpool.txt	LTP098	ltpFR	13	7	0	CEILING	265	n/a	n/a	1	n/a	0	0	0	n/a	n/a	n/a	n/a	n/a
1904.184	n/a	REC_WORD	952092	wordpools/wasnorm_wordpool.txt	LTP098	ltpFR	13	7	0	DINNER	468	n/a	n/a	1	n/a	0	0	0	n/a	n/a	n/a	n/a	n/a
1906.224	n/a	REC_WORD	953112	wordpools/wasnorm_wordpool.txt	LTP098	ltpFR	13	7	0	GREASE	660	n/a	n/a	0	n/a	0	0	0	n/a	n/a	n/a	n/a	n/a
1960.528	n/a	START	980264	n/a	LTP098	ltpFR	13	n/a	n/a	n/a	n/a	n/a	n/a	n/a	n/a	n/a	n/a	n/a	n/a	n/a	n/a	n/a	n/a
1962.036	n/a	PROB	981018	n/a	LTP098	ltpFR	13	n/a	n/a	n/a	n/a	n/a	n/a	n/a	11	1	3	7	n/a	n/a	n/a	n/a	n/a
1963.786	n/a	PROB	981893	n/a	LTP098	ltpFR	13	n/a	n/a	n/a	n/a	n/a	n/a	n/a	16	1	7	8	n/a	n/a	n/a	n/a	n/a
1965.27	n/a	PROB	982635	n/a	LTP098	ltpFR	13	n/a	n/a	n/a	n/a	n/a	n/a	n/a	11	2	4	5	n/a	n/a	n/a	n/a	n/a
1966.934	n/a	PROB	983467	n/a	LTP098	ltpFR	13	n/a	n/a	n/a	n/a	n/a	n/a	n/a	13	9	1	3	n/a	n/a	n/a	n/a	n/a
1968.626	n/a	PROB	984313	n/a	LTP098	ltpFR	13	n/a	n/a	n/a	n/a	n/a	n/a	n/a	16	8	5	3	n/a	n/a	n/a	n/a	n/a
1970.16	n/a	PROB	985080	n/a	LTP098	ltpFR	13	n/a	n/a	n/a	n/a	n/a	n/a	n/a	15	3	3	9	n/a	n/a	n/a	n/a	n/a
1971.834	n/a	PROB	985917	n/a	LTP098	ltpFR	13	n/a	n/a	n/a	n/a	n/a	n/a	n/a	13	2	5	6	n/a	n/a	n/a	n/a	n/a
1973.294	n/a	PROB	986647	n/a	LTP098	ltpFR	13	n/a	n/a	n/a	n/a	n/a	n/a	n/a	9	4	1	4	n/a	n/a	n/a	n/a	n/a
1976.528	n/a	STOP	988264	n/a	LTP098	ltpFR	13	n/a	n/a	n/a	n/a	n/a	n/a	n/a	n/a	n/a	n/a	n/a	n/a	n/a	n/a	n/a	n/a
1977.676	n/a	WORD	988838	wordpools/wasnorm_wordpool.txt	LTP098	ltpFR	13	8	1	CAP	236	n/a	n/a	0	n/a	0	0	0	0.57763671875	0.412841796875	1	upper	zerothre.ttf
1980.686	n/a	START	990343	n/a	LTP098	ltpFR	13	n/a	n/a	n/a	n/a	n/a	n/a	n/a	n/a	n/a	n/a	n/a	n/a	n/a	n/a	n/a	n/a
1981.602	n/a	PROB	990801	n/a	LTP098	ltpFR	13	n/a	n/a	n/a	n/a	n/a	n/a	n/a	10	4	3	3	n/a	n/a	n/a	n/a	n/a
1983.494	n/a	PROB	991747	n/a	LTP098	ltpFR	13	n/a	n/a	n/a	n/a	n/a	n/a	n/a	11	4	1	6	n/a	n/a	n/a	n/a	n/a
1984.834	n/a	PROB	992417	n/a	LTP098	ltpFR	13	n/a	n/a	n/a	n/a	n/a	n/a	n/a	14	7	4	3	n/a	n/a	n/a	n/a	n/a
1986.168	n/a	PROB	993084	n/a	LTP098	ltpFR	13	n/a	n/a	n/a	n/a	n/a	n/a	n/a	18	6	3	9	n/a	n/a	n/a	n/a	n/a
1987.576	n/a	PROB	993788	n/a	LTP098	ltpFR	13	n/a	n/a	n/a	n/a	n/a	n/a	n/a	20	4	4	8	n/a	n/a	n/a	n/a	n/a
1989.742	n/a	PROB	994871	n/a	LTP098	ltpFR	13	n/a	n/a	n/a	n/a	n/a	n/a	n/a	13	1	8	4	n/a	n/a	n/a	n/a	n/a
1991.718	n/a	PROB	995859	n/a	LTP098	ltpFR	13	n/a	n/a	n/a	n/a	n/a	n/a	n/a	17	9	7	1	n/a	n/a	n/a	n/a	n/a
1993.076	n/a	PROB	996538	n/a	LTP098	ltpFR	13	n/a	n/a	n/a	n/a	n/a	n/a	n/a	18	2	8	8	n/a	n/a	n/a	n/a	n/a
1994.544	n/a	PROB	997272	n/a	LTP098	ltpFR	13	n/a	n/a	n/a	n/a	n/a	n/a	n/a	6	1	4	1	n/a	n/a	n/a	n/a	n/a
1995.668	n/a	STOP	997834	n/a	LTP098	ltpFR	13	n/a	n/a	n/a	n/a	n/a	n/a	n/a	n/a	n/a	n/a	n/a	n/a	n/a	n/a	n/a	n/a
1997.76	n/a	WORD	998880	wordpools/wasnorm_wordpool.txt	LTP098	ltpFR	13	8	1	HOOD	714	n/a	n/a	0	n/a	0	0	0	0.57763671875	0.412841796875	1	upper	zerothre.ttf
2000.768	n/a	START	1000384	n/a	LTP098	ltpFR	13	n/a	n/a	n/a	n/a	n/a	n/a	n/a	n/a	n/a	n/a	n/a	n/a	n/a	n/a	n/a	n/a
2001.71	n/a	PROB	1000855	n/a	LTP098	ltpFR	13	n/a	n/a	n/a	n/a	n/a	n/a	n/a	24	8	9	7	n/a	n/a	n/a	n/a	n/a
2004.26	n/a	PROB	1002130	n/a	LTP098	ltpFR	13	n/a	n/a	n/a	n/a	n/a	n/a	n/a	18	1	8	9	n/a	n/a	n/a	n/a	n/a
2006.06	n/a	PROB	1003030	n/a	LTP098	ltpFR	13	n/a	n/a	n/a	n/a	n/a	n/a	n/a	6	2	2	2	n/a	n/a	n/a	n/a	n/a
2007.152	n/a	PROB	1003576	n/a	LTP098	ltpFR	13	n/a	n/a	n/a	n/a	n/a	n/a	n/a	19	7	5	7	n/a	n/a	n/a	n/a	n/a
2009.026	n/a	PROB	1004513	n/a	LTP098	ltpFR	13	n/a	n/a	n/a	n/a	n/a	n/a	n/a	22	8	8	6	n/a	n/a	n/a	n/a	n/a
2010.866	n/a	PROB	1005433	n/a	LTP098	ltpFR	13	n/a	n/a	n/a	n/a	n/a	n/a	n/a	15	3	9	3	n/a	n/a	n/a	n/a	n/a
2012.658	n/a	PROB	1006329	n/a	LTP098	ltpFR	13	n/a	n/a	n/a	n/a	n/a	n/a	n/a	11	3	2	6	n/a	n/a	n/a	n/a	n/a
2016.768	n/a	STOP	1008384	n/a	LTP098	ltpFR	13	n/a	n/a	n/a	n/a	n/a	n/a	n/a	n/a	n/a	n/a	n/a	n/a	n/a	n/a	n/a	n/a
2017.61	n/a	WORD	1008805	wordpools/wasnorm_wordpool.txt	LTP098	ltpFR	13	8	0	SACK	1220	n/a	n/a	0	n/a	0	0	0	0.422607421875	0.5869140625	0	lower	amplitud.ttf
2020.61	n/a	START	1010305	n/a	LTP098	ltpFR	13	n/a	n/a	n/a	n/a	n/a	n/a	n/a	n/a	n/a	n/a	n/a	n/a	n/a	n/a	n/a	n/a
2021.56	n/a	PROB	1010780	n/a	LTP098	ltpFR	13	n/a	n/a	n/a	n/a	n/a	n/a	n/a	20	6	5	9	n/a	n/a	n/a	n/a	n/a
2023.26	n/a	PROB	1011630	n/a	LTP098	ltpFR	13	n/a	n/a	n/a	n/a	n/a	n/a	n/a	10	3	3	4	n/a	n/a	n/a	n/a	n/a
2024.734	n/a	PROB	1012367	n/a	LTP098	ltpFR	13	n/a	n/a	n/a	n/a	n/a	n/a	n/a	16	6	8	2	n/a	n/a	n/a	n/a	n/a
2027.168	n/a	PROB	1013584	n/a	LTP098	ltpFR	13	n/a	n/a	n/a	n/a	n/a	n/a	n/a	11	9	1	1	n/a	n/a	n/a	n/a	n/a
2028.276	n/a	PROB	1014138	n/a	LTP098	ltpFR	13	n/a	n/a	n/a	n/a	n/a	n/a	n/a	22	5	9	8	n/a	n/a	n/a	n/a	n/a
2030.95	n/a	PROB	1015475	n/a	LTP098	ltpFR	13	n/a	n/a	n/a	n/a	n/a	n/a	n/a	8	2	5	1	n/a	n/a	n/a	n/a	n/a
2033.192	n/a	PROB	1016596	n/a	LTP098	ltpFR	13	n/a	n/a	n/a	n/a	n/a	n/a	n/a	17	2	9	6	n/a	n/a	n/a	n/a	n/a
2036.612	n/a	STOP	1018306	n/a	LTP098	ltpFR	13	n/a	n/a	n/a	n/a	n/a	n/a	n/a	n/a	n/a	n/a	n/a	n/a	n/a	n/a	n/a	n/a
2037.518	n/a	WORD	1018759	wordpools/wasnorm_wordpool.txt	LTP098	ltpFR	13	8	0	LEMON	810	n/a	n/a	0	n/a	0	0	0	0.422607421875	0.5869140625	0	lower	amplitud.ttf
2040.526	n/a	START	1020263	n/a	LTP098	ltpFR	13	n/a	n/a	n/a	n/a	n/a	n/a	n/a	n/a	n/a	n/a	n/a	n/a	n/a	n/a	n/a	n/a
2041.418	n/a	PROB	1020709	n/a	LTP098	ltpFR	13	n/a	n/a	n/a	n/a	n/a	n/a	n/a	16	6	7	3	n/a	n/a	n/a	n/a	n/a
2042.966	n/a	PROB	1021483	n/a	LTP098	ltpFR	13	n/a	n/a	n/a	n/a	n/a	n/a	n/a	7	3	2	2	n/a	n/a	n/a	n/a	n/a
2044.708	n/a	PROB	1022354	n/a	LTP098	ltpFR	13	n/a	n/a	n/a	n/a	n/a	n/a	n/a	15	5	1	9	n/a	n/a	n/a	n/a	n/a
2048.932	n/a	PROB	1024466	n/a	LTP098	ltpFR	13	n/a	n/a	n/a	n/a	n/a	n/a	n/a	16	5	3	8	n/a	n/a	n/a	n/a	n/a
2050.334	n/a	PROB	1025167	n/a	LTP098	ltpFR	13	n/a	n/a	n/a	n/a	n/a	n/a	n/a	17	8	5	4	n/a	n/a	n/a	n/a	n/a
2052.066	n/a	PROB	1026033	n/a	LTP098	ltpFR	13	n/a	n/a	n/a	n/a	n/a	n/a	n/a	19	7	5	7	n/a	n/a	n/a	n/a	n/a
2053.908	n/a	PROB	1026954	n/a	LTP098	ltpFR	13	n/a	n/a	n/a	n/a	n/a	n/a	n/a	21	6	9	6	n/a	n/a	n/a	n/a	n/a
2055.872	n/a	STOP	1027936	n/a	LTP098	ltpFR	13	n/a	n/a	n/a	n/a	n/a	n/a	n/a	n/a	n/a	n/a	n/a	n/a	n/a	n/a	n/a	n/a
2057.568	n/a	WORD	1028784	wordpools/wasnorm_wordpool.txt	LTP098	ltpFR	13	8	0	SALT	1229	n/a	n/a	0	n/a	0	0	0	0.422607421875	0.5869140625	0	lower	amplitud.ttf
2060.576	n/a	START	1030288	n/a	LTP098	ltpFR	13	n/a	n/a	n/a	n/a	n/a	n/a	n/a	n/a	n/a	n/a	n/a	n/a	n/a	n/a	n/a	n/a
2061.534	n/a	PROB	1030767	n/a	LTP098	ltpFR	13	n/a	n/a	n/a	n/a	n/a	n/a	n/a	9	1	1	7	n/a	n/a	n/a	n/a	n/a
2067.342	n/a	PROB	1033671	n/a	LTP098	ltpFR	13	n/a	n/a	n/a	n/a	n/a	n/a	n/a	19	2	8	9	n/a	n/a	n/a	n/a	n/a
2069.998	n/a	PROB	1034999	n/a	LTP098	ltpFR	13	n/a	n/a	n/a	n/a	n/a	n/a	n/a	6	2	1	3	n/a	n/a	n/a	n/a	n/a
2071.474	n/a	PROB	1035737	n/a	LTP098	ltpFR	13	n/a	n/a	n/a	n/a	n/a	n/a	n/a	17	1	7	9	n/a	n/a	n/a	n/a	n/a
2073.508	n/a	PROB	1036754	n/a	LTP098	ltpFR	13	n/a	n/a	n/a	n/a	n/a	n/a	n/a	13	7	3	3	n/a	n/a	n/a	n/a	n/a
2074.732	n/a	PROB	1037366	n/a	LTP098	ltpFR	13	n/a	n/a	n/a	n/a	n/a	n/a	n/a	8	3	3	2	n/a	n/a	n/a	n/a	n/a
2075.978	n/a	STOP	1037989	n/a	LTP098	ltpFR	13	n/a	n/a	n/a	n/a	n/a	n/a	n/a	n/a	n/a	n/a	n/a	n/a	n/a	n/a	n/a	n/a
2077.724	n/a	WORD	1038862	wordpools/wasnorm_wordpool.txt	LTP098	ltpFR	13	8	1	STUMP	1396	n/a	n/a	0	n/a	0	0	0	0.57763671875	0.412841796875	1	upper	zerothre.ttf
2080.732	n/a	START	1040366	n/a	LTP098	ltpFR	13	n/a	n/a	n/a	n/a	n/a	n/a	n/a	n/a	n/a	n/a	n/a	n/a	n/a	n/a	n/a	n/a
2081.64	n/a	PROB	1040820	n/a	LTP098	ltpFR	13	n/a	n/a	n/a	n/a	n/a	n/a	n/a	18	1	8	9	n/a	n/a	n/a	n/a	n/a
2083.424	n/a	PROB	1041712	n/a	LTP098	ltpFR	13	n/a	n/a	n/a	n/a	n/a	n/a	n/a	4	2	1	1	n/a	n/a	n/a	n/a	n/a
2084.542	n/a	PROB	1042271	n/a	LTP098	ltpFR	13	n/a	n/a	n/a	n/a	n/a	n/a	n/a	17	9	7	1	n/a	n/a	n/a	n/a	n/a
2085.932	n/a	PROB	1042966	n/a	LTP098	ltpFR	13	n/a	n/a	n/a	n/a	n/a	n/a	n/a	10	7	1	2	n/a	n/a	n/a	n/a	n/a
2087.408	n/a	PROB	1043704	n/a	LTP098	ltpFR	13	n/a	n/a	n/a	n/a	n/a	n/a	n/a	15	2	9	4	n/a	n/a	n/a	n/a	n/a
2089.066	n/a	PROB	1044533	n/a	LTP098	ltpFR	13	n/a	n/a	n/a	n/a	n/a	n/a	n/a	23	9	8	6	n/a	n/a	n/a	n/a	n/a
2091.166	n/a	PROB	1045583	n/a	LTP098	ltpFR	13	n/a	n/a	n/a	n/a	n/a	n/a	n/a	15	5	9	1	n/a	n/a	n/a	n/a	n/a
2092.756	n/a	PROB	1046378	n/a	LTP098	ltpFR	13	n/a	n/a	n/a	n/a	n/a	n/a	n/a	17	7	6	4	n/a	n/a	n/a	n/a	n/a
2096.734	n/a	STOP	1048367	n/a	LTP098	ltpFR	13	n/a	n/a	n/a	n/a	n/a	n/a	n/a	n/a	n/a	n/a	n/a	n/a	n/a	n/a	n/a	n/a
2097.682	n/a	WORD	1048841	wordpools/wasnorm_wordpool.txt	LTP098	ltpFR	13	8	1	BISON	131	n/a	n/a	1	n/a	0	0	0	0.57763671875	0.412841796875	1	upper	zerothre.ttf
2100.69	n/a	START	1050345	n/a	LTP098	ltpFR	13	n/a	n/a	n/a	n/a	n/a	n/a	n/a	n/a	n/a	n/a	n/a	n/a	n/a	n/a	n/a	n/a
2101.774	n/a	PROB	1050887	n/a	LTP098	ltpFR	13	n/a	n/a	n/a	n/a	n/a	n/a	n/a	15	9	2	4	n/a	n/a	n/a	n/a	n/a
2104.832	n/a	PROB	1052416	n/a	LTP098	ltpFR	13	n/a	n/a	n/a	n/a	n/a	n/a	n/a	21	5	8	9	n/a	n/a	n/a	n/a	n/a
2107.348	n/a	PROB	1053674	n/a	LTP098	ltpFR	13	n/a	n/a	n/a	n/a	n/a	n/a	n/a	24	9	9	6	n/a	n/a	n/a	n/a	n/a
2109.266	n/a	PROB	1054633	n/a	LTP098	ltpFR	13	n/a	n/a	n/a	n/a	n/a	n/a	n/a	13	8	1	4	n/a	n/a	n/a	n/a	n/a
2110.998	n/a	PROB	1055499	n/a	LTP098	ltpFR	13	n/a	n/a	n/a	n/a	n/a	n/a	n/a	15	4	9	2	n/a	n/a	n/a	n/a	n/a
2112.764	n/a	PROB	1056382	n/a	LTP098	ltpFR	13	n/a	n/a	n/a	n/a	n/a	n/a	n/a	20	4	9	7	n/a	n/a	n/a	n/a	n/a
2114.714	n/a	PROB	1057357	n/a	LTP098	ltpFR	13	n/a	n/a	n/a	n/a	n/a	n/a	n/a	15	6	4	5	n/a	n/a	n/a	n/a	n/a
2116.356	n/a	STOP	1058178	n/a	LTP098	ltpFR	13	n/a	n/a	n/a	n/a	n/a	n/a	n/a	n/a	n/a	n/a	n/a	n/a	n/a	n/a	n/a	n/a
2117.798	n/a	WORD	1058899	wordpools/wasnorm_wordpool.txt	LTP098	ltpFR	13	8	1	CREATURE	403	n/a	n/a	1	n/a	0	0	0	0.57763671875	0.412841796875	1	upper	zerothre.ttf
2120.798	n/a	START	1060399	n/a	LTP098	ltpFR	13	n/a	n/a	n/a	n/a	n/a	n/a	n/a	n/a	n/a	n/a	n/a	n/a	n/a	n/a	n/a	n/a
2121.764	n/a	PROB	1060882	n/a	LTP098	ltpFR	13	n/a	n/a	n/a	n/a	n/a	n/a	n/a	20	9	8	3	n/a	n/a	n/a	n/a	n/a
2123.648	n/a	PROB	1061824	n/a	LTP098	ltpFR	13	n/a	n/a	n/a	n/a	n/a	n/a	n/a	6	2	1	3	n/a	n/a	n/a	n/a	n/a
2125.548	n/a	PROB	1062774	n/a	LTP098	ltpFR	13	n/a	n/a	n/a	n/a	n/a	n/a	n/a	12	3	3	6	n/a	n/a	n/a	n/a	n/a
2127.532	n/a	PROB	1063766	n/a	LTP098	ltpFR	13	n/a	n/a	n/a	n/a	n/a	n/a	n/a	14	1	4	9	n/a	n/a	n/a	n/a	n/a
2129.222	n/a	PROB	1064611	n/a	LTP098	ltpFR	13	n/a	n/a	n/a	n/a	n/a	n/a	n/a	17	7	3	7	n/a	n/a	n/a	n/a	n/a
2130.93	n/a	PROB	1065465	n/a	LTP098	ltpFR	13	n/a	n/a	n/a	n/a	n/a	n/a	n/a	11	1	2	8	n/a	n/a	n/a	n/a	n/a
2132.158	n/a	PROB	1066079	n/a	LTP098	ltpFR	13	n/a	n/a	n/a	n/a	n/a	n/a	n/a	8	5	1	2	n/a	n/a	n/a	n/a	n/a
2133.606	n/a	PROB	1066803	n/a	LTP098	ltpFR	13	n/a	n/a	n/a	n/a	n/a	n/a	n/a	21	9	8	5	n/a	n/a	n/a	n/a	n/a
2135.398	n/a	STOP	1067699	n/a	LTP098	ltpFR	13	n/a	n/a	n/a	n/a	n/a	n/a	n/a	n/a	n/a	n/a	n/a	n/a	n/a	n/a	n/a	n/a
2137.648	n/a	WORD	1068824	wordpools/wasnorm_wordpool.txt	LTP098	ltpFR	13	8	1	CLAM	315	n/a	n/a	1	n/a	0	0	0	0.57763671875	0.412841796875	1	upper	zerothre.ttf
2140.656	n/a	START	1070328	n/a	LTP098	ltpFR	13	n/a	n/a	n/a	n/a	n/a	n/a	n/a	n/a	n/a	n/a	n/a	n/a	n/a	n/a	n/a	n/a
2141.814	n/a	PROB	1070907	n/a	LTP098	ltpFR	13	n/a	n/a	n/a	n/a	n/a	n/a	n/a	23	9	9	5	n/a	n/a	n/a	n/a	n/a
2143.448	n/a	PROB	1071724	n/a	LTP098	ltpFR	13	n/a	n/a	n/a	n/a	n/a	n/a	n/a	7	4	1	2	n/a	n/a	n/a	n/a	n/a
2146.072	n/a	PROB	1073036	n/a	LTP098	ltpFR	13	n/a	n/a	n/a	n/a	n/a	n/a	n/a	21	9	8	5	n/a	n/a	n/a	n/a	n/a
2147.964	n/a	PROB	1073982	n/a	LTP098	ltpFR	13	n/a	n/a	n/a	n/a	n/a	n/a	n/a	6	1	2	3	n/a	n/a	n/a	n/a	n/a
2149.398	n/a	PROB	1074699	n/a	LTP098	ltpFR	13	n/a	n/a	n/a	n/a	n/a	n/a	n/a	12	3	7	2	n/a	n/a	n/a	n/a	n/a
2150.748	n/a	PROB	1075374	n/a	LTP098	ltpFR	13	n/a	n/a	n/a	n/a	n/a	n/a	n/a	15	5	6	4	n/a	n/a	n/a	n/a	n/a
2152.156	n/a	PROB	1076078	n/a	LTP098	ltpFR	13	n/a	n/a	n/a	n/a	n/a	n/a	n/a	9	2	4	3	n/a	n/a	n/a	n/a	n/a
2154.074	n/a	PROB	1077037	n/a	LTP098	ltpFR	13	n/a	n/a	n/a	n/a	n/a	n/a	n/a	15	5	1	9	n/a	n/a	n/a	n/a	n/a
2156.63	n/a	STOP	1078315	n/a	LTP098	ltpFR	13	n/a	n/a	n/a	n/a	n/a	n/a	n/a	n/a	n/a	n/a	n/a	n/a	n/a	n/a	n/a	n/a
2157.506	n/a	WORD	1078753	wordpools/wasnorm_wordpool.txt	LTP098	ltpFR	13	8	1	TREAT	1501	n/a	n/a	0	n/a	0	0	0	0.57763671875	0.412841796875	1	upper	zerothre.ttf
2160.514	n/a	START	1080257	n/a	LTP098	ltpFR	13	n/a	n/a	n/a	n/a	n/a	n/a	n/a	n/a	n/a	n/a	n/a	n/a	n/a	n/a	n/a	n/a
2161.53	n/a	PROB	1080765	n/a	LTP098	ltpFR	13	n/a	n/a	n/a	n/a	n/a	n/a	n/a	11	4	3	4	n/a	n/a	n/a	n/a	n/a
2162.938	n/a	PROB	1081469	n/a	LTP098	ltpFR	13	n/a	n/a	n/a	n/a	n/a	n/a	n/a	13	5	6	2	n/a	n/a	n/a	n/a	n/a
2164.288	n/a	PROB	1082144	n/a	LTP098	ltpFR	13	n/a	n/a	n/a	n/a	n/a	n/a	n/a	17	1	8	8	n/a	n/a	n/a	n/a	n/a
2165.688	n/a	PROB	1082844	n/a	LTP098	ltpFR	13	n/a	n/a	n/a	n/a	n/a	n/a	n/a	21	9	8	4	n/a	n/a	n/a	n/a	n/a
2167.456	n/a	PROB	1083728	n/a	LTP098	ltpFR	13	n/a	n/a	n/a	n/a	n/a	n/a	n/a	23	5	9	9	n/a	n/a	n/a	n/a	n/a
2168.996	n/a	PROB	1084498	n/a	LTP098	ltpFR	13	n/a	n/a	n/a	n/a	n/a	n/a	n/a	23	7	9	7	n/a	n/a	n/a	n/a	n/a
2171.414	n/a	PROB	1085707	n/a	LTP098	ltpFR	13	n/a	n/a	n/a	n/a	n/a	n/a	n/a	18	9	8	1	n/a	n/a	n/a	n/a	n/a
2173.106	n/a	PROB	1086553	n/a	LTP098	ltpFR	13	n/a	n/a	n/a	n/a	n/a	n/a	n/a	22	8	6	8	n/a	n/a	n/a	n/a	n/a
2175.504	n/a	STOP	1087752	n/a	LTP098	ltpFR	13	n/a	n/a	n/a	n/a	n/a	n/a	n/a	n/a	n/a	n/a	n/a	n/a	n/a	n/a	n/a	n/a
2177.722	n/a	WORD	1088861	wordpools/wasnorm_wordpool.txt	LTP098	ltpFR	13	8	1	LOLLIPOP	842	n/a	n/a	0	n/a	0	0	0	0.57763671875	0.412841796875	1	upper	zerothre.ttf
2180.73	n/a	START	1090365	n/a	LTP098	ltpFR	13	n/a	n/a	n/a	n/a	n/a	n/a	n/a	n/a	n/a	n/a	n/a	n/a	n/a	n/a	n/a	n/a
2181.688	n/a	PROB	1090844	n/a	LTP098	ltpFR	13	n/a	n/a	n/a	n/a	n/a	n/a	n/a	10	5	3	2	n/a	n/a	n/a	n/a	n/a
2183.054	n/a	PROB	1091527	n/a	LTP098	ltpFR	13	n/a	n/a	n/a	n/a	n/a	n/a	n/a	22	8	6	8	n/a	n/a	n/a	n/a	n/a
2186.296	n/a	PROB	1093148	n/a	LTP098	ltpFR	13	n/a	n/a	n/a	n/a	n/a	n/a	n/a	15	6	8	1	n/a	n/a	n/a	n/a	n/a
2187.522	n/a	PROB	1093761	n/a	LTP098	ltpFR	13	n/a	n/a	n/a	n/a	n/a	n/a	n/a	13	1	3	9	n/a	n/a	n/a	n/a	n/a
2188.888	n/a	PROB	1094444	n/a	LTP098	ltpFR	13	n/a	n/a	n/a	n/a	n/a	n/a	n/a	17	7	5	5	n/a	n/a	n/a	n/a	n/a
2190.398	n/a	PROB	1095199	n/a	LTP098	ltpFR	13	n/a	n/a	n/a	n/a	n/a	n/a	n/a	17	8	2	7	n/a	n/a	n/a	n/a	n/a
2191.704	n/a	PROB	1095852	n/a	LTP098	ltpFR	13	n/a	n/a	n/a	n/a	n/a	n/a	n/a	19	6	7	6	n/a	n/a	n/a	n/a	n/a
2193.514	n/a	PROB	1096757	n/a	LTP098	ltpFR	13	n/a	n/a	n/a	n/a	n/a	n/a	n/a	23	9	5	9	n/a	n/a	n/a	n/a	n/a
2195.2	n/a	STOP	1097600	n/a	LTP098	ltpFR	13	n/a	n/a	n/a	n/a	n/a	n/a	n/a	n/a	n/a	n/a	n/a	n/a	n/a	n/a	n/a	n/a
2197.788	n/a	WORD	1098894	wordpools/wasnorm_wordpool.txt	LTP098	ltpFR	13	8	0	TREE	1502	n/a	n/a	1	n/a	0	0	0	0.422607421875	0.5869140625	0	lower	amplitud.ttf
2200.796	n/a	START	1100398	n/a	LTP098	ltpFR	13	n/a	n/a	n/a	n/a	n/a	n/a	n/a	n/a	n/a	n/a	n/a	n/a	n/a	n/a	n/a	n/a
2201.762	n/a	PROB	1100881	n/a	LTP098	ltpFR	13	n/a	n/a	n/a	n/a	n/a	n/a	n/a	12	9	1	2	n/a	n/a	n/a	n/a	n/a
2204.362	n/a	PROB	1102181	n/a	LTP098	ltpFR	13	n/a	n/a	n/a	n/a	n/a	n/a	n/a	18	3	6	9	n/a	n/a	n/a	n/a	n/a
2207.754	n/a	PROB	1103877	n/a	LTP098	ltpFR	13	n/a	n/a	n/a	n/a	n/a	n/a	n/a	12	6	5	1	n/a	n/a	n/a	n/a	n/a
2209.03	n/a	PROB	1104515	n/a	LTP098	ltpFR	13	n/a	n/a	n/a	n/a	n/a	n/a	n/a	20	7	5	8	n/a	n/a	n/a	n/a	n/a
2210.812	n/a	PROB	1105406	n/a	LTP098	ltpFR	13	n/a	n/a	n/a	n/a	n/a	n/a	n/a	23	7	8	8	n/a	n/a	n/a	n/a	n/a
2213.978	n/a	PROB	1106989	n/a	LTP098	ltpFR	13	n/a	n/a	n/a	n/a	n/a	n/a	n/a	17	7	2	8	n/a	n/a	n/a	n/a	n/a
2215.394	n/a	STOP	1107697	n/a	LTP098	ltpFR	13	n/a	n/a	n/a	n/a	n/a	n/a	n/a	n/a	n/a	n/a	n/a	n/a	n/a	n/a	n/a	n/a
2217.67	n/a	WORD	1108835	wordpools/wasnorm_wordpool.txt	LTP098	ltpFR	13	8	0	DEER	444	n/a	n/a	1	n/a	0	0	0	0.422607421875	0.5869140625	0	lower	amplitud.ttf
2220.678	n/a	START	1110339	n/a	LTP098	ltpFR	13	n/a	n/a	n/a	n/a	n/a	n/a	n/a	n/a	n/a	n/a	n/a	n/a	n/a	n/a	n/a	n/a
2221.496	n/a	PROB	1110748	n/a	LTP098	ltpFR	13	n/a	n/a	n/a	n/a	n/a	n/a	n/a	8	2	3	3	n/a	n/a	n/a	n/a	n/a
2222.762	n/a	PROB	1111381	n/a	LTP098	ltpFR	13	n/a	n/a	n/a	n/a	n/a	n/a	n/a	18	2	9	7	n/a	n/a	n/a	n/a	n/a
2224.836	n/a	PROB	1112418	n/a	LTP098	ltpFR	13	n/a	n/a	n/a	n/a	n/a	n/a	n/a	13	4	6	3	n/a	n/a	n/a	n/a	n/a
2226.162	n/a	PROB	1113081	n/a	LTP098	ltpFR	13	n/a	n/a	n/a	n/a	n/a	n/a	n/a	12	3	8	1	n/a	n/a	n/a	n/a	n/a
2227.572	n/a	PROB	1113786	n/a	LTP098	ltpFR	13	n/a	n/a	n/a	n/a	n/a	n/a	n/a	15	5	1	9	n/a	n/a	n/a	n/a	n/a
2229.396	n/a	PROB	1114698	n/a	LTP098	ltpFR	13	n/a	n/a	n/a	n/a	n/a	n/a	n/a	12	5	6	1	n/a	n/a	n/a	n/a	n/a
2230.836	n/a	PROB	1115418	n/a	LTP098	ltpFR	13	n/a	n/a	n/a	n/a	n/a	n/a	n/a	18	3	7	8	n/a	n/a	n/a	n/a	n/a
2232.296	n/a	PROB	1116148	n/a	LTP098	ltpFR	13	n/a	n/a	n/a	n/a	n/a	n/a	n/a	14	2	3	9	n/a	n/a	n/a	n/a	n/a
2236.678	n/a	STOP	1118339	n/a	LTP098	ltpFR	13	n/a	n/a	n/a	n/a	n/a	n/a	n/a	n/a	n/a	n/a	n/a	n/a	n/a	n/a	n/a	n/a
2237.762	n/a	WORD	1118881	wordpools/wasnorm_wordpool.txt	LTP098	ltpFR	13	8	0	WALRUS	1585	n/a	n/a	1	n/a	0	0	0	0.422607421875	0.5869140625	0	lower	amplitud.ttf
2240.77	n/a	START	1120385	n/a	LTP098	ltpFR	13	n/a	n/a	n/a	n/a	n/a	n/a	n/a	n/a	n/a	n/a	n/a	n/a	n/a	n/a	n/a	n/a
2241.852	n/a	PROB	1120926	n/a	LTP098	ltpFR	13	n/a	n/a	n/a	n/a	n/a	n/a	n/a	13	1	6	6	n/a	n/a	n/a	n/a	n/a
2243.112	n/a	PROB	1121556	n/a	LTP098	ltpFR	13	n/a	n/a	n/a	n/a	n/a	n/a	n/a	6	3	1	2	n/a	n/a	n/a	n/a	n/a
2245.594	n/a	PROB	1122797	n/a	LTP098	ltpFR	13	n/a	n/a	n/a	n/a	n/a	n/a	n/a	18	7	6	5	n/a	n/a	n/a	n/a	n/a
2247.72	n/a	PROB	1123860	n/a	LTP098	ltpFR	13	n/a	n/a	n/a	n/a	n/a	n/a	n/a	16	4	8	4	n/a	n/a	n/a	n/a	n/a
2249.894	n/a	PROB	1124947	n/a	LTP098	ltpFR	13	n/a	n/a	n/a	n/a	n/a	n/a	n/a	16	8	2	6	n/a	n/a	n/a	n/a	n/a
2251.412	n/a	PROB	1125706	n/a	LTP098	ltpFR	13	n/a	n/a	n/a	n/a	n/a	n/a	n/a	18	4	6	8	n/a	n/a	n/a	n/a	n/a
2252.87	n/a	PROB	1126435	n/a	LTP098	ltpFR	13	n/a	n/a	n/a	n/a	n/a	n/a	n/a	14	3	3	8	n/a	n/a	n/a	n/a	n/a
2254.554	n/a	PROB	1127277	n/a	LTP098	ltpFR	13	n/a	n/a	n/a	n/a	n/a	n/a	n/a	14	5	5	4	n/a	n/a	n/a	n/a	n/a
2255.714	n/a	STOP	1127857	n/a	LTP098	ltpFR	13	n/a	n/a	n/a	n/a	n/a	n/a	n/a	n/a	n/a	n/a	n/a	n/a	n/a	n/a	n/a	n/a
2257.868	n/a	WORD	1128934	wordpools/wasnorm_wordpool.txt	LTP098	ltpFR	13	8	0	AIRPLANE	12	n/a	n/a	1	n/a	0	0	0	0.422607421875	0.5869140625	0	lower	amplitud.ttf
2260.87	n/a	START	1130435	n/a	LTP098	ltpFR	13	n/a	n/a	n/a	n/a	n/a	n/a	n/a	n/a	n/a	n/a	n/a	n/a	n/a	n/a	n/a	n/a
2261.76	n/a	PROB	1130880	n/a	LTP098	ltpFR	13	n/a	n/a	n/a	n/a	n/a	n/a	n/a	19	7	7	5	n/a	n/a	n/a	n/a	n/a
2263.152	n/a	PROB	1131576	n/a	LTP098	ltpFR	13	n/a	n/a	n/a	n/a	n/a	n/a	n/a	15	2	8	5	n/a	n/a	n/a	n/a	n/a
2264.436	n/a	PROB	1132218	n/a	LTP098	ltpFR	13	n/a	n/a	n/a	n/a	n/a	n/a	n/a	15	6	7	2	n/a	n/a	n/a	n/a	n/a
2266.378	n/a	PROB	1133189	n/a	LTP098	ltpFR	13	n/a	n/a	n/a	n/a	n/a	n/a	n/a	5	2	2	1	n/a	n/a	n/a	n/a	n/a
2267.52	n/a	PROB	1133760	n/a	LTP098	ltpFR	13	n/a	n/a	n/a	n/a	n/a	n/a	n/a	21	8	8	5	n/a	n/a	n/a	n/a	n/a
2271.728	n/a	PROB	1135864	n/a	LTP098	ltpFR	13	n/a	n/a	n/a	n/a	n/a	n/a	n/a	10	2	5	3	n/a	n/a	n/a	n/a	n/a
2273.644	n/a	PROB	1136822	n/a	LTP098	ltpFR	13	n/a	n/a	n/a	n/a	n/a	n/a	n/a	18	2	8	8	n/a	n/a	n/a	n/a	n/a
2274.986	n/a	PROB	1137493	n/a	LTP098	ltpFR	13	n/a	n/a	n/a	n/a	n/a	n/a	n/a	16	9	2	5	n/a	n/a	n/a	n/a	n/a
2276.236	n/a	STOP	1138118	n/a	LTP098	ltpFR	13	n/a	n/a	n/a	n/a	n/a	n/a	n/a	n/a	n/a	n/a	n/a	n/a	n/a	n/a	n/a	n/a
2277.936	n/a	WORD	1138968	wordpools/wasnorm_wordpool.txt	LTP098	ltpFR	13	8	0	PURSE	1145	n/a	n/a	0	n/a	0	0	0	0.422607421875	0.5869140625	0	lower	amplitud.ttf
2280.944	n/a	START	1140472	n/a	LTP098	ltpFR	13	n/a	n/a	n/a	n/a	n/a	n/a	n/a	n/a	n/a	n/a	n/a	n/a	n/a	n/a	n/a	n/a
2281.952	n/a	PROB	1140976	n/a	LTP098	ltpFR	13	n/a	n/a	n/a	n/a	n/a	n/a	n/a	13	4	2	7	n/a	n/a	n/a	n/a	n/a
2284.852	n/a	PROB	1142426	n/a	LTP098	ltpFR	13	n/a	n/a	n/a	n/a	n/a	n/a	n/a	8	6	1	1	n/a	n/a	n/a	n/a	n/a
2285.96	n/a	PROB	1142980	n/a	LTP098	ltpFR	13	n/a	n/a	n/a	n/a	n/a	n/a	n/a	18	5	8	5	n/a	n/a	n/a	n/a	n/a
2288.112	n/a	PROB	1144056	n/a	LTP098	ltpFR	13	n/a	n/a	n/a	n/a	n/a	n/a	n/a	7	2	1	4	n/a	n/a	n/a	n/a	n/a
2289.786	n/a	PROB	1144893	n/a	LTP098	ltpFR	13	n/a	n/a	n/a	n/a	n/a	n/a	n/a	9	5	2	2	n/a	n/a	n/a	n/a	n/a
2291.37	n/a	PROB	1145685	n/a	LTP098	ltpFR	13	n/a	n/a	n/a	n/a	n/a	n/a	n/a	13	4	8	1	n/a	n/a	n/a	n/a	n/a
2292.594	n/a	PROB	1146297	n/a	LTP098	ltpFR	13	n/a	n/a	n/a	n/a	n/a	n/a	n/a	17	8	2	7	n/a	n/a	n/a	n/a	n/a
2293.944	n/a	PROB	1146972	n/a	LTP098	ltpFR	13	n/a	n/a	n/a	n/a	n/a	n/a	n/a	10	1	4	5	n/a	n/a	n/a	n/a	n/a
2295.27	n/a	PROB	1147635	n/a	LTP098	ltpFR	13	n/a	n/a	n/a	n/a	n/a	n/a	n/a	12	5	2	5	n/a	n/a	n/a	n/a	n/a
2296.462	n/a	STOP	1148231	n/a	LTP098	ltpFR	13	n/a	n/a	n/a	n/a	n/a	n/a	n/a	n/a	n/a	n/a	n/a	n/a	n/a	n/a	n/a	n/a
2298.736	n/a	REC_START	1149368	n/a	LTP098	ltpFR	13	8	n/a	n/a	n/a	n/a	n/a	n/a	n/a	0	0	0	n/a	n/a	n/a	n/a	n/a
2300.108	n/a	REC_WORD	1150054	wordpools/wasnorm_wordpool.txt	LTP098	ltpFR	13	8	0	PURSE	1145	n/a	n/a	0	n/a	0	0	0	n/a	n/a	n/a	n/a	n/a
2300.906	n/a	REC_WORD	1150453	wordpools/wasnorm_wordpool.txt	LTP098	ltpFR	13	8	0	WALRUS	1585	n/a	n/a	1	n/a	0	0	0	n/a	n/a	n/a	n/a	n/a
2301.848	n/a	REC_WORD	1150924	wordpools/wasnorm_wordpool.txt	LTP098	ltpFR	13	8	0	AIRPLANE	12	n/a	n/a	1	n/a	0	0	0	n/a	n/a	n/a	n/a	n/a
2302.846	n/a	REC_WORD	1151423	wordpools/wasnorm_wordpool.txt	LTP098	ltpFR	13	8	1	HOOD	714	n/a	n/a	0	n/a	0	0	0	n/a	n/a	n/a	n/a	n/a
2303.75	n/a	REC_WORD	1151875	wordpools/wasnorm_wordpool.txt	LTP098	ltpFR	13	8	1	CAP	236	n/a	n/a	0	n/a	0	0	0	n/a	n/a	n/a	n/a	n/a
2397.424	n/a	WORD	1198712	wordpools/wasnorm_wordpool.txt	LTP098	ltpFR	13	9	0	HOUSE	725	n/a	n/a	1	n/a	0	0	0	0.422607421875	0.5869140625	0	lower	amplitud.ttf
2401.242	n/a	WORD	1200621	wordpools/wasnorm_wordpool.txt	LTP098	ltpFR	13	9	0	CAMEL	223	n/a	n/a	1	n/a	0	0	0	0.422607421875	0.5869140625	0	lower	amplitud.ttf
2405.234	n/a	WORD	1202617	wordpools/wasnorm_wordpool.txt	LTP098	ltpFR	13	9	0	CUSHION	428	n/a	n/a	0	n/a	0	0	0	0.422607421875	0.5869140625	0	lower	amplitud.ttf
2409.416	n/a	WORD	1204708	wordpools/wasnorm_wordpool.txt	LTP098	ltpFR	13	9	0	CAPITAL	238	n/a	n/a	1	n/a	0	0	0	0.422607421875	0.5869140625	0	lower	amplitud.ttf
2413.566	n/a	WORD	1206783	wordpools/wasnorm_wordpool.txt	LTP098	ltpFR	13	9	0	BANKER	84	n/a	n/a	1	n/a	0	0	0	0.422607421875	0.5869140625	0	lower	amplitud.ttf
2417.682	n/a	WORD	1208841	wordpools/wasnorm_wordpool.txt	LTP098	ltpFR	13	9	0	ARCHITECT	36	n/a	n/a	1	n/a	0	0	0	0.422607421875	0.5869140625	0	lower	amplitud.ttf
2421.658	n/a	WORD	1210829	wordpools/wasnorm_wordpool.txt	LTP098	ltpFR	13	9	0	PRAIRIE	1118	n/a	n/a	1	n/a	0	0	0	0.422607421875	0.5869140625	0	lower	amplitud.ttf
2425.79	n/a	WORD	1212895	wordpools/wasnorm_wordpool.txt	LTP098	ltpFR	13	9	0	RECEIPT	1173	n/a	n/a	0	n/a	0	0	0	0.422607421875	0.5869140625	0	lower	amplitud.ttf
2429.814	n/a	WORD	1214907	wordpools/wasnorm_wordpool.txt	LTP098	ltpFR	13	9	0	ATHLETE	52	n/a	n/a	1	n/a	0	0	0	0.422607421875	0.5869140625	0	lower	amplitud.ttf
2433.632	n/a	WORD	1216816	wordpools/wasnorm_wordpool.txt	LTP098	ltpFR	13	9	0	NICOTINE	951	n/a	n/a	0	n/a	0	0	0	0.422607421875	0.5869140625	0	lower	amplitud.ttf
2437.55	n/a	WORD	1218775	wordpools/wasnorm_wordpool.txt	LTP098	ltpFR	13	9	0	PIPE	1073	n/a	n/a	0	n/a	0	0	0	0.422607421875	0.5869140625	0	lower	amplitud.ttf
2441.5	n/a	WORD	1220750	wordpools/wasnorm_wordpool.txt	LTP098	ltpFR	13	9	0	ASH	44	n/a	n/a	0	n/a	0	0	0	0.422607421875	0.5869140625	0	lower	amplitud.ttf
2445.698	n/a	WORD	1222849	wordpools/wasnorm_wordpool.txt	LTP098	ltpFR	13	9	0	CIGARETTE	309	n/a	n/a	0	n/a	0	0	0	0.422607421875	0.5869140625	0	lower	amplitud.ttf
2449.722	n/a	WORD	1224861	wordpools/wasnorm_wordpool.txt	LTP098	ltpFR	13	9	0	CARPENTER	246	n/a	n/a	1	n/a	0	0	0	0.422607421875	0.5869140625	0	lower	amplitud.ttf
2453.888	n/a	WORD	1226944	wordpools/wasnorm_wordpool.txt	LTP098	ltpFR	13	9	0	SHIP	1286	n/a	n/a	1	n/a	0	0	0	0.422607421875	0.5869140625	0	lower	amplitud.ttf
2457.848	n/a	WORD	1228924	wordpools/wasnorm_wordpool.txt	LTP098	ltpFR	13	9	0	MARINE	869	n/a	n/a	1	n/a	0	0	0	0.422607421875	0.5869140625	0	lower	amplitud.ttf
2460.856	n/a	START	1230428	n/a	LTP098	ltpFR	13	n/a	n/a	n/a	n/a	n/a	n/a	n/a	n/a	n/a	n/a	n/a	n/a	n/a	n/a	n/a	n/a
2462.056	n/a	PROB	1231028	n/a	LTP098	ltpFR	13	n/a	n/a	n/a	n/a	n/a	n/a	n/a	12	5	2	5	n/a	n/a	n/a	n/a	n/a
2463.73	n/a	PROB	1231865	n/a	LTP098	ltpFR	13	n/a	n/a	n/a	n/a	n/a	n/a	n/a	20	6	8	6	n/a	n/a	n/a	n/a	n/a
2465.506	n/a	PROB	1232753	n/a	LTP098	ltpFR	13	n/a	n/a	n/a	n/a	n/a	n/a	n/a	13	2	7	4	n/a	n/a	n/a	n/a	n/a
2467.124	n/a	PROB	1233562	n/a	LTP098	ltpFR	13	n/a	n/a	n/a	n/a	n/a	n/a	n/a	11	2	5	4	n/a	n/a	n/a	n/a	n/a
2468.558	n/a	STOP	1234279	n/a	LTP098	ltpFR	13	n/a	n/a	n/a	n/a	n/a	n/a	n/a	n/a	n/a	n/a	n/a	n/a	n/a	n/a	n/a	n/a
2470.756	n/a	REC_START	1235378	n/a	LTP098	ltpFR	13	9	n/a	n/a	n/a	n/a	n/a	n/a	n/a	0	0	0	n/a	n/a	n/a	n/a	n/a
2471.134	n/a	REC_WORD	1235567	wordpools/wasnorm_wordpool.txt	LTP098	ltpFR	13	9	0	NICOTINE	951	n/a	n/a	0	n/a	0	0	0	n/a	n/a	n/a	n/a	n/a
2472.198	n/a	REC_WORD	1236099	wordpools/wasnorm_wordpool.txt	LTP098	ltpFR	13	9	0	PIPE	1073	n/a	n/a	0	n/a	0	0	0	n/a	n/a	n/a	n/a	n/a
2473.274	n/a	REC_WORD	1236637	wordpools/wasnorm_wordpool.txt	LTP098	ltpFR	13	9	0	ASH	44	n/a	n/a	0	n/a	0	0	0	n/a	n/a	n/a	n/a	n/a
2473.982	n/a	REC_WORD	1236991	wordpools/wasnorm_wordpool.txt	LTP098	ltpFR	13	9	0	CIGARETTE	309	n/a	n/a	0	n/a	0	0	0	n/a	n/a	n/a	n/a	n/a
2475.57	n/a	REC_WORD	1237785	wordpools/wasnorm_wordpool.txt	LTP098	ltpFR	13	9	0	MARINE	869	n/a	n/a	1	n/a	0	0	0	n/a	n/a	n/a	n/a	n/a
2476.558	n/a	REC_WORD	1238279	wordpools/wasnorm_wordpool.txt	LTP098	ltpFR	13	9	0	SHIP	1286	n/a	n/a	1	n/a	0	0	0	n/a	n/a	n/a	n/a	n/a
2478.748	n/a	REC_WORD	1239374	wordpools/wasnorm_wordpool.txt	LTP098	ltpFR	13	9	0	CARPENTER	246	n/a	n/a	1	n/a	0	0	0	n/a	n/a	n/a	n/a	n/a
2479.94	n/a	REC_WORD	1239970	wordpools/wasnorm_wordpool.txt	LTP098	ltpFR	13	9	0	ARCHITECT	36	n/a	n/a	1	n/a	0	0	0	n/a	n/a	n/a	n/a	n/a
2481.038	n/a	REC_WORD	1240519	wordpools/wasnorm_wordpool.txt	LTP098	ltpFR	13	9	0	BANKER	84	n/a	n/a	1	n/a	0	0	0	n/a	n/a	n/a	n/a	n/a
2484.96	n/a	REC_WORD	1242480	wordpools/wasnorm_wordpool.txt	LTP098	ltpFR	13	9	0	ATHLETE	52	n/a	n/a	1	n/a	0	0	0	n/a	n/a	n/a	n/a	n/a
2486.944	n/a	REC_WORD	1243472	wordpools/wasnorm_wordpool.txt	LTP098	ltpFR	13	9	0	HOUSE	725	n/a	n/a	1	n/a	0	0	0	n/a	n/a	n/a	n/a	n/a
2487.982	n/a	REC_WORD	1243991	wordpools/wasnorm_wordpool.txt	LTP098	ltpFR	13	9	0	CAMEL	223	n/a	n/a	1	n/a	0	0	0	n/a	n/a	n/a	n/a	n/a
2488.84	n/a	REC_WORD	1244420	wordpools/wasnorm_wordpool.txt	LTP098	ltpFR	13	9	0	RECEIPT	1173	n/a	n/a	0	n/a	0	0	0	n/a	n/a	n/a	n/a	n/a
2490.266	n/a	REC_WORD	1245133	wordpools/wasnorm_wordpool.txt	LTP098	ltpFR	13	9	0	CUSHION	428	n/a	n/a	0	n/a	0	0	0	n/a	n/a	n/a	n/a	n/a
2497.602	n/a	REC_WORD	1248801	wordpools/wasnorm_wordpool.txt	LTP098	ltpFR	13	9	0	PRAIRIE	1118	n/a	n/a	1	n/a	0	0	0	n/a	n/a	n/a	n/a	n/a
2552.114	n/a	START	1276057	n/a	LTP098	ltpFR	13	n/a	n/a	n/a	n/a	n/a	n/a	n/a	n/a	n/a	n/a	n/a	n/a	n/a	n/a	n/a	n/a
2553.622	n/a	PROB	1276811	n/a	LTP098	ltpFR	13	n/a	n/a	n/a	n/a	n/a	n/a	n/a	19	6	4	9	n/a	n/a	n/a	n/a	n/a
2555.204	n/a	PROB	1277602	n/a	LTP098	ltpFR	13	n/a	n/a	n/a	n/a	n/a	n/a	n/a	12	3	4	5	n/a	n/a	n/a	n/a	n/a
2557.72	n/a	PROB	1278860	n/a	LTP098	ltpFR	13	n/a	n/a	n/a	n/a	n/a	n/a	n/a	13	8	4	1	n/a	n/a	n/a	n/a	n/a
2558.994	n/a	STOP	1279497	n/a	LTP098	ltpFR	13	n/a	n/a	n/a	n/a	n/a	n/a	n/a	n/a	n/a	n/a	n/a	n/a	n/a	n/a	n/a	n/a
2560.97	n/a	WORD	1280485	wordpools/wasnorm_wordpool.txt	LTP098	ltpFR	13	10	1	WIDOW	1608	n/a	n/a	1	n/a	0	0	0	0.57763671875	0.412841796875	1	upper	zerothre.ttf
2563.978	n/a	START	1281989	n/a	LTP098	ltpFR	13	n/a	n/a	n/a	n/a	n/a	n/a	n/a	n/a	n/a	n/a	n/a	n/a	n/a	n/a	n/a	n/a
2565.162	n/a	PROB	1282581	n/a	LTP098	ltpFR	13	n/a	n/a	n/a	n/a	n/a	n/a	n/a	14	6	5	3	n/a	n/a	n/a	n/a	n/a
2566.77	n/a	PROB	1283385	n/a	LTP098	ltpFR	13	n/a	n/a	n/a	n/a	n/a	n/a	n/a	16	3	6	7	n/a	n/a	n/a	n/a	n/a
2570.154	n/a	PROB	1285077	n/a	LTP098	ltpFR	13	n/a	n/a	n/a	n/a	n/a	n/a	n/a	13	8	4	1	n/a	n/a	n/a	n/a	n/a
2571.324	n/a	STOP	1285662	n/a	LTP098	ltpFR	13	n/a	n/a	n/a	n/a	n/a	n/a	n/a	n/a	n/a	n/a	n/a	n/a	n/a	n/a	n/a	n/a
2572.97	n/a	WORD	1286485	wordpools/wasnorm_wordpool.txt	LTP098	ltpFR	13	10	1	CABINET	212	n/a	n/a	0	n/a	0	0	0	0.57763671875	0.412841796875	1	upper	zerothre.ttf
2575.97	n/a	START	1287985	n/a	LTP098	ltpFR	13	n/a	n/a	n/a	n/a	n/a	n/a	n/a	n/a	n/a	n/a	n/a	n/a	n/a	n/a	n/a	n/a
2577.12	n/a	PROB	1288560	n/a	LTP098	ltpFR	13	n/a	n/a	n/a	n/a	n/a	n/a	n/a	18	8	9	1	n/a	n/a	n/a	n/a	n/a
2578.812	n/a	PROB	1289406	n/a	LTP098	ltpFR	13	n/a	n/a	n/a	n/a	n/a	n/a	n/a	16	8	1	7	n/a	n/a	n/a	n/a	n/a
2580.512	n/a	PROB	1290256	n/a	LTP098	ltpFR	13	n/a	n/a	n/a	n/a	n/a	n/a	n/a	19	9	2	8	n/a	n/a	n/a	n/a	n/a
2582.524	n/a	STOP	1291262	n/a	LTP098	ltpFR	13	n/a	n/a	n/a	n/a	n/a	n/a	n/a	n/a	n/a	n/a	n/a	n/a	n/a	n/a	n/a	n/a
2585.07	n/a	WORD	1292535	wordpools/wasnorm_wordpool.txt	LTP098	ltpFR	13	10	0	SCROLL	1257	n/a	n/a	0	n/a	0	0	0	0.422607421875	0.5869140625	0	lower	amplitud.ttf
2588.078	n/a	START	1294039	n/a	LTP098	ltpFR	13	n/a	n/a	n/a	n/a	n/a	n/a	n/a	n/a	n/a	n/a	n/a	n/a	n/a	n/a	n/a	n/a
2588.928	n/a	PROB	1294464	n/a	LTP098	ltpFR	13	n/a	n/a	n/a	n/a	n/a	n/a	n/a	18	3	8	7	n/a	n/a	n/a	n/a	n/a
2590.42	n/a	PROB	1295210	n/a	LTP098	ltpFR	13	n/a	n/a	n/a	n/a	n/a	n/a	n/a	22	6	9	7	n/a	n/a	n/a	n/a	n/a
2592.188	n/a	PROB	1296094	n/a	LTP098	ltpFR	13	n/a	n/a	n/a	n/a	n/a	n/a	n/a	15	5	7	3	n/a	n/a	n/a	n/a	n/a
2593.986	n/a	PROB	1296993	n/a	LTP098	ltpFR	13	n/a	n/a	n/a	n/a	n/a	n/a	n/a	13	4	7	2	n/a	n/a	n/a	n/a	n/a
2595.382	n/a	STOP	1297691	n/a	LTP098	ltpFR	13	n/a	n/a	n/a	n/a	n/a	n/a	n/a	n/a	n/a	n/a	n/a	n/a	n/a	n/a	n/a	n/a
2597.028	n/a	WORD	1298514	wordpools/wasnorm_wordpool.txt	LTP098	ltpFR	13	10	0	REFEREE	1178	n/a	n/a	1	n/a	0	0	0	0.422607421875	0.5869140625	0	lower	amplitud.ttf
2600.036	n/a	START	1300018	n/a	LTP098	ltpFR	13	n/a	n/a	n/a	n/a	n/a	n/a	n/a	n/a	n/a	n/a	n/a	n/a	n/a	n/a	n/a	n/a
2600.844	n/a	PROB	1300422	n/a	LTP098	ltpFR	13	n/a	n/a	n/a	n/a	n/a	n/a	n/a	13	2	8	3	n/a	n/a	n/a	n/a	n/a
2602.294	n/a	PROB	1301147	n/a	LTP098	ltpFR	13	n/a	n/a	n/a	n/a	n/a	n/a	n/a	18	9	6	1	n/a	n/a	n/a	n/a	n/a
2605.328	n/a	PROB	1302664	n/a	LTP098	ltpFR	13	n/a	n/a	n/a	n/a	n/a	n/a	n/a	16	6	6	4	n/a	n/a	n/a	n/a	n/a
2607.796	n/a	STOP	1303898	n/a	LTP098	ltpFR	13	n/a	n/a	n/a	n/a	n/a	n/a	n/a	n/a	n/a	n/a	n/a	n/a	n/a	n/a	n/a	n/a
2609.186	n/a	WORD	1304593	wordpools/wasnorm_wordpool.txt	LTP098	ltpFR	13	10	0	TEAM	1441	n/a	n/a	1	n/a	0	0	0	0.422607421875	0.5869140625	0	lower	amplitud.ttf
2612.196	n/a	START	1306098	n/a	LTP098	ltpFR	13	n/a	n/a	n/a	n/a	n/a	n/a	n/a	n/a	n/a	n/a	n/a	n/a	n/a	n/a	n/a	n/a
2613.01	n/a	PROB	1306505	n/a	LTP098	ltpFR	13	n/a	n/a	n/a	n/a	n/a	n/a	n/a	21	9	7	5	n/a	n/a	n/a	n/a	n/a
2615.294	n/a	PROB	1307647	n/a	LTP098	ltpFR	13	n/a	n/a	n/a	n/a	n/a	n/a	n/a	14	8	1	5	n/a	n/a	n/a	n/a	n/a
2617.044	n/a	PROB	1308522	n/a	LTP098	ltpFR	13	n/a	n/a	n/a	n/a	n/a	n/a	n/a	14	6	5	3	n/a	n/a	n/a	n/a	n/a
2620.196	n/a	STOP	1310098	n/a	LTP098	ltpFR	13	n/a	n/a	n/a	n/a	n/a	n/a	n/a	n/a	n/a	n/a	n/a	n/a	n/a	n/a	n/a	n/a
2621.086	n/a	WORD	1310543	wordpools/wasnorm_wordpool.txt	LTP098	ltpFR	13	10	0	HAT	690	n/a	n/a	0	n/a	0	0	0	0.422607421875	0.5869140625	0	lower	amplitud.ttf
2624.086	n/a	START	1312043	n/a	LTP098	ltpFR	13	n/a	n/a	n/a	n/a	n/a	n/a	n/a	n/a	n/a	n/a	n/a	n/a	n/a	n/a	n/a	n/a
2625.244	n/a	PROB	1312622	n/a	LTP098	ltpFR	13	n/a	n/a	n/a	n/a	n/a	n/a	n/a	15	5	5	5	n/a	n/a	n/a	n/a	n/a
2626.636	n/a	PROB	1313318	n/a	LTP098	ltpFR	13	n/a	n/a	n/a	n/a	n/a	n/a	n/a	20	6	7	7	n/a	n/a	n/a	n/a	n/a
2630.252	n/a	PROB	1315126	n/a	LTP098	ltpFR	13	n/a	n/a	n/a	n/a	n/a	n/a	n/a	16	5	6	5	n/a	n/a	n/a	n/a	n/a
2631.56	n/a	STOP	1315780	n/a	LTP098	ltpFR	13	n/a	n/a	n/a	n/a	n/a	n/a	n/a	n/a	n/a	n/a	n/a	n/a	n/a	n/a	n/a	n/a
2633.128	n/a	WORD	1316564	wordpools/wasnorm_wordpool.txt	LTP098	ltpFR	13	10	1	POOL	1103	n/a	n/a	0	n/a	0	0	0	0.57763671875	0.412841796875	1	upper	zerothre.ttf
2636.136	n/a	START	1318068	n/a	LTP098	ltpFR	13	n/a	n/a	n/a	n/a	n/a	n/a	n/a	n/a	n/a	n/a	n/a	n/a	n/a	n/a	n/a	n/a
2636.968	n/a	PROB	1318484	n/a	LTP098	ltpFR	13	n/a	n/a	n/a	n/a	n/a	n/a	n/a	8	2	5	1	n/a	n/a	n/a	n/a	n/a
2638.494	n/a	PROB	1319247	n/a	LTP098	ltpFR	13	n/a	n/a	n/a	n/a	n/a	n/a	n/a	20	8	4	8	n/a	n/a	n/a	n/a	n/a
