mstime	trial_type	stim_file	subject	experiment	session	trial	item_name	item_num	list	answer	test_x	test_y	test_z
0	SESS_START	n/a	LTP260	ltpFR2	16	n/a	n/a	n/a	n/a	n/a	0	0	0
30780	START	n/a	LTP260	ltpFR2	16	n/a	n/a	n/a	-1	n/a	n/a	n/a	n/a
30829	PROB	n/a	LTP260	ltpFR2	16	n/a	n/a	n/a	-1	15	9	4	2
32448	PROB	n/a	LTP260	ltpFR2	16	n/a	n/a	n/a	-1	17	5	3	9
34003	PROB	n/a	LTP260	ltpFR2	16	n/a	n/a	n/a	-1	17	5	5	7
35179	PROB	n/a	LTP260	ltpFR2	16	n/a	n/a	n/a	-1	21	6	6	9
36886	PROB	n/a	LTP260	ltpFR2	16	n/a	n/a	n/a	-1	12	8	2	2
38576	PROB	n/a	LTP260	ltpFR2	16	n/a	n/a	n/a	-1	18	8	1	9
39964	PROB	n/a	LTP260	ltpFR2	16	n/a	n/a	n/a	-1	10	2	7	1
41018	PROB	n/a	LTP260	ltpFR2	16	n/a	n/a	n/a	-1	21	6	7	8
42700	STOP	n/a	LTP260	ltpFR2	16	n/a	n/a	n/a	-1	n/a	n/a	n/a	n/a
112721	WORD	wordpools/wasnorm_wordpool_576.txt	LTP260	ltpFR2	16	1	STAMP	1370	n/a	n/a	0	0	0
115147	WORD	wordpools/wasnorm_wordpool_576.txt	LTP260	ltpFR2	16	1	SEAL	1262	n/a	n/a	0	0	0
117869	WORD	wordpools/wasnorm_wordpool_576.txt	LTP260	ltpFR2	16	1	FINGER	567	n/a	n/a	0	0	0
120435	WORD	wordpools/wasnorm_wordpool_576.txt	LTP260	ltpFR2	16	1	VELVET	1555	n/a	n/a	0	0	0
122988	WORD	wordpools/wasnorm_wordpool_576.txt	LTP260	ltpFR2	16	1	CHIPMUNK	304	n/a	n/a	0	0	0
125437	WORD	wordpools/wasnorm_wordpool_576.txt	LTP260	ltpFR2	16	1	BABY	64	n/a	n/a	0	0	0
128196	WORD	wordpools/wasnorm_wordpool_576.txt	LTP260	ltpFR2	16	1	CYCLONE	431	n/a	n/a	0	0	0
130773	WORD	wordpools/wasnorm_wordpool_576.txt	LTP260	ltpFR2	16	1	CANDY	230	n/a	n/a	0	0	0
133210	WORD	wordpools/wasnorm_wordpool_576.txt	LTP260	ltpFR2	16	1	GOBLIN	645	n/a	n/a	0	0	0
135954	WORD	wordpools/wasnorm_wordpool_576.txt	LTP260	ltpFR2	16	1	CHEMIST	292	n/a	n/a	0	0	0
138386	WORD	wordpools/wasnorm_wordpool_576.txt	LTP260	ltpFR2	16	1	KITCHEN	778	n/a	n/a	0	0	0
140995	WORD	wordpools/wasnorm_wordpool_576.txt	LTP260	ltpFR2	16	1	BLADE	134	n/a	n/a	0	0	0
143655	WORD	wordpools/wasnorm_wordpool_576.txt	LTP260	ltpFR2	16	1	GARDEN	623	n/a	n/a	0	0	0
146142	WORD	wordpools/wasnorm_wordpool_576.txt	LTP260	ltpFR2	16	1	VAGRANT	1544	n/a	n/a	0	0	0
148618	WORD	wordpools/wasnorm_wordpool_576.txt	LTP260	ltpFR2	16	1	ROCKET	1202	n/a	n/a	0	0	0
151111	WORD	wordpools/wasnorm_wordpool_576.txt	LTP260	ltpFR2	16	1	OFFICE	972	n/a	n/a	0	0	0
153743	WORD	wordpools/wasnorm_wordpool_576.txt	LTP260	ltpFR2	16	1	TYPIST	1532	n/a	n/a	0	0	0
156566	WORD	wordpools/wasnorm_wordpool_576.txt	LTP260	ltpFR2	16	1	PALACE	1006	n/a	n/a	0	0	0
159163	WORD	wordpools/wasnorm_wordpool_576.txt	LTP260	ltpFR2	16	1	HAND	683	n/a	n/a	0	0	0
161739	WORD	wordpools/wasnorm_wordpool_576.txt	LTP260	ltpFR2	16	1	POWDER	1117	n/a	n/a	0	0	0
164312	WORD	wordpools/wasnorm_wordpool_576.txt	LTP260	ltpFR2	16	1	SNACK	1331	n/a	n/a	0	0	0
167138	WORD	wordpools/wasnorm_wordpool_576.txt	LTP260	ltpFR2	16	1	BANK	83	n/a	n/a	0	0	0
169714	WORD	wordpools/wasnorm_wordpool_576.txt	LTP260	ltpFR2	16	1	NOMAD	955	n/a	n/a	0	0	0
172297	WORD	wordpools/wasnorm_wordpool_576.txt	LTP260	ltpFR2	16	1	HEADBAND	696	n/a	n/a	0	0	0
173914	START	n/a	LTP260	ltpFR2	16	n/a	n/a	n/a	1	n/a	n/a	n/a	n/a
175065	DISTRACTOR	n/a	LTP260	ltpFR2	16	1	n/a	n/a	n/a	n/a	0	0	0
175073	PROB	n/a	LTP260	ltpFR2	16	n/a	n/a	n/a	1	23	5	9	9
176508	PROB	n/a	LTP260	ltpFR2	16	n/a	n/a	n/a	1	17	7	1	9
178034	PROB	n/a	LTP260	ltpFR2	16	n/a	n/a	n/a	1	12	9	1	2
179100	PROB	n/a	LTP260	ltpFR2	16	n/a	n/a	n/a	1	17	5	8	4
180627	PROB	n/a	LTP260	ltpFR2	16	n/a	n/a	n/a	1	16	7	6	3
182480	PROB	n/a	LTP260	ltpFR2	16	n/a	n/a	n/a	1	20	7	5	8
184207	PROB	n/a	LTP260	ltpFR2	16	n/a	n/a	n/a	1	20	3	9	8
186098	PROB	n/a	LTP260	ltpFR2	16	n/a	n/a	n/a	1	13	3	1	9
187197	PROB	n/a	LTP260	ltpFR2	16	n/a	n/a	n/a	1	13	5	3	5
188256	PROB	n/a	LTP260	ltpFR2	16	n/a	n/a	n/a	1	16	2	7	7
190258	PROB	n/a	LTP260	ltpFR2	16	n/a	n/a	n/a	1	11	2	8	1
191469	PROB	n/a	LTP260	ltpFR2	16	n/a	n/a	n/a	1	21	9	8	4
193220	PROB	n/a	LTP260	ltpFR2	16	n/a	n/a	n/a	1	19	5	6	8
194848	PROB	n/a	LTP260	ltpFR2	16	n/a	n/a	n/a	1	10	5	3	2
196030	PROB	n/a	LTP260	ltpFR2	16	n/a	n/a	n/a	1	15	9	9	5
196996	STOP	n/a	LTP260	ltpFR2	16	n/a	n/a	n/a	1	n/a	n/a	n/a	n/a
199695	REC_START	n/a	LTP260	ltpFR2	16	1	n/a	n/a	n/a	n/a	0	0	0
201334	REC_WORD	wordpools/wasnorm_wordpool_576.txt	LTP260	ltpFR2	16	1	PALACE	1006	n/a	n/a	0	0	0
203400	REC_WORD	wordpools/wasnorm_wordpool_576.txt	LTP260	ltpFR2	16	1	CYCLONE	431	n/a	n/a	0	0	0
204522	REC_WORD	wordpools/wasnorm_wordpool_576.txt	LTP260	ltpFR2	16	1	ROCKET	1202	n/a	n/a	0	0	0
205340	REC_WORD	wordpools/wasnorm_wordpool_576.txt	LTP260	ltpFR2	16	1	NOMAD	955	n/a	n/a	0	0	0
206243	REC_WORD	wordpools/wasnorm_wordpool_576.txt	LTP260	ltpFR2	16	1	VAGRANT	1544	n/a	n/a	0	0	0
208049	REC_WORD	wordpools/wasnorm_wordpool_576.txt	LTP260	ltpFR2	16	1	GOBLIN	645	n/a	n/a	0	0	0
209092	REC_WORD	wordpools/wasnorm_wordpool_576.txt	LTP260	ltpFR2	16	1	GARDEN	623	n/a	n/a	0	0	0
211532	REC_WORD	wordpools/wasnorm_wordpool_576.txt	LTP260	ltpFR2	16	1	KITCHEN	778	n/a	n/a	0	0	0
213287	REC_WORD	wordpools/wasnorm_wordpool_576.txt	LTP260	ltpFR2	16	1	BLADE	134	n/a	n/a	0	0	0
215594	REC_WORD	wordpools/wasnorm_wordpool_576.txt	LTP260	ltpFR2	16	1	CHEMIST	292	n/a	n/a	0	0	0
216465	REC_WORD	wordpools/wasnorm_wordpool_576.txt	LTP260	ltpFR2	16	1	HEADBAND	696	n/a	n/a	0	0	0
218879	REC_WORD	wordpools/wasnorm_wordpool_576.txt	LTP260	ltpFR2	16	1	BABY	64	n/a	n/a	0	0	0
219553	REC_WORD	wordpools/wasnorm_wordpool_576.txt	LTP260	ltpFR2	16	1	CHIPMUNK	304	n/a	n/a	0	0	0
220879	REC_WORD	wordpools/wasnorm_wordpool_576.txt	LTP260	ltpFR2	16	1	HAND	683	n/a	n/a	0	0	0
221731	REC_WORD	wordpools/wasnorm_wordpool_576.txt	LTP260	ltpFR2	16	1	FINGER	567	n/a	n/a	0	0	0
223670	REC_WORD	wordpools/wasnorm_wordpool_576.txt	LTP260	ltpFR2	16	1	OFFICE	972	n/a	n/a	0	0	0
224621	REC_WORD	wordpools/wasnorm_wordpool_576.txt	LTP260	ltpFR2	16	1	TYPIST	1532	n/a	n/a	0	0	0
226756	REC_WORD	wordpools/wasnorm_wordpool_576.txt	LTP260	ltpFR2	16	1	POWDER	1117	n/a	n/a	0	0	0
228363	REC_WORD	wordpools/wasnorm_wordpool_576.txt	LTP260	ltpFR2	16	1	SNACK	1331	n/a	n/a	0	0	0
229354	REC_WORD	wordpools/wasnorm_wordpool_576.txt	LTP260	ltpFR2	16	1	CANDY	230	n/a	n/a	0	0	0
230368	REC_WORD	wordpools/wasnorm_wordpool_576.txt	LTP260	ltpFR2	16	1	POWDER	1117	n/a	n/a	0	0	0
233455	REC_WORD	wordpools/wasnorm_wordpool_576.txt	LTP260	ltpFR2	16	1	SEAL	1262	n/a	n/a	0	0	0
234567	REC_WORD	wordpools/wasnorm_wordpool_576.txt	LTP260	ltpFR2	16	1	STAMP	1370	n/a	n/a	0	0	0
236335	REC_WORD	wordpools/wasnorm_wordpool_576.txt	LTP260	ltpFR2	16	1	VELVET	1555	n/a	n/a	0	0	0
290726	DISTRACTOR	n/a	LTP260	ltpFR2	16	2	n/a	n/a	n/a	n/a	0	0	0
290726	START	n/a	LTP260	ltpFR2	16	n/a	n/a	n/a	2	n/a	n/a	n/a	n/a
290776	PROB	n/a	LTP260	ltpFR2	16	n/a	n/a	n/a	2	15	2	9	4
292277	PROB	n/a	LTP260	ltpFR2	16	n/a	n/a	n/a	2	6	2	1	3
293498	PROB	n/a	LTP260	ltpFR2	16	n/a	n/a	n/a	2	18	3	6	9
295037	PROB	n/a	LTP260	ltpFR2	16	n/a	n/a	n/a	2	20	8	4	8
296443	PROB	n/a	LTP260	ltpFR2	16	n/a	n/a	n/a	2	14	9	1	4
298434	PROB	n/a	LTP260	ltpFR2	16	n/a	n/a	n/a	2	10	7	2	1
299471	PROB	n/a	LTP260	ltpFR2	16	n/a	n/a	n/a	2	19	7	4	8
301043	PROB	n/a	LTP260	ltpFR2	16	n/a	n/a	n/a	2	11	9	1	1
302615	PROB	n/a	LTP260	ltpFR2	16	n/a	n/a	n/a	2	15	2	5	8
304176	PROB	n/a	LTP260	ltpFR2	16	n/a	n/a	n/a	2	5	2	1	2
305281	PROB	n/a	LTP260	ltpFR2	16	n/a	n/a	n/a	2	8	6	1	1
306636	PROB	n/a	LTP260	ltpFR2	16	n/a	n/a	n/a	2	18	8	2	8
308236	PROB	n/a	LTP260	ltpFR2	16	n/a	n/a	n/a	2	12	5	6	1
309464	PROB	n/a	LTP260	ltpFR2	16	n/a	n/a	n/a	2	12	4	1	7
311014	PROB	n/a	LTP260	ltpFR2	16	n/a	n/a	n/a	2	19	8	6	5
312653	PROB	n/a	LTP260	ltpFR2	16	n/a	n/a	n/a	2	11	5	1	5
313596	STOP	n/a	LTP260	ltpFR2	16	n/a	n/a	n/a	2	n/a	n/a	n/a	n/a
315837	WORD	wordpools/wasnorm_wordpool_576.txt	LTP260	ltpFR2	16	2	LOVER	846	n/a	n/a	0	0	0
318526	WORD	wordpools/wasnorm_wordpool_576.txt	LTP260	ltpFR2	16	2	FRIEND	606	n/a	n/a	0	0	0
321102	WORD	wordpools/wasnorm_wordpool_576.txt	LTP260	ltpFR2	16	2	WIFE	1609	n/a	n/a	0	0	0
323784	WORD	wordpools/wasnorm_wordpool_576.txt	LTP260	ltpFR2	16	2	ITEM	746	n/a	n/a	0	0	0
326594	WORD	wordpools/wasnorm_wordpool_576.txt	LTP260	ltpFR2	16	2	BARLEY	88	n/a	n/a	0	0	0
329356	WORD	wordpools/wasnorm_wordpool_576.txt	LTP260	ltpFR2	16	2	SCULPTURE	1258	n/a	n/a	0	0	0
332182	WORD	wordpools/wasnorm_wordpool_576.txt	LTP260	ltpFR2	16	2	ORANGE	980	n/a	n/a	0	0	0
334742	WORD	wordpools/wasnorm_wordpool_576.txt	LTP260	ltpFR2	16	2	SPONGE	1355	n/a	n/a	0	0	0
337269	WORD	wordpools/wasnorm_wordpool_576.txt	LTP260	ltpFR2	16	2	MAPLE	866	n/a	n/a	0	0	0
339945	WORD	wordpools/wasnorm_wordpool_576.txt	LTP260	ltpFR2	16	2	CONCERT	360	n/a	n/a	0	0	0
342633	WORD	wordpools/wasnorm_wordpool_576.txt	LTP260	ltpFR2	16	2	MAMMAL	861	n/a	n/a	0	0	0
345064	WORD	wordpools/wasnorm_wordpool_576.txt	LTP260	ltpFR2	16	2	SPACE	1345	n/a	n/a	0	0	0
347524	WORD	wordpools/wasnorm_wordpool_576.txt	LTP260	ltpFR2	16	2	NAPKIN	937	n/a	n/a	0	0	0
350217	WORD	wordpools/wasnorm_wordpool_576.txt	LTP260	ltpFR2	16	2	PIGEON	1065	n/a	n/a	0	0	0
352994	WORD	wordpools/wasnorm_wordpool_576.txt	LTP260	ltpFR2	16	2	SANDWICH	1232	n/a	n/a	0	0	0
355566	WORD	wordpools/wasnorm_wordpool_576.txt	LTP260	ltpFR2	16	2	RADISH	1158	n/a	n/a	0	0	0
358180	WORD	wordpools/wasnorm_wordpool_576.txt	LTP260	ltpFR2	16	2	TEACHER	1440	n/a	n/a	0	0	0
360940	WORD	wordpools/wasnorm_wordpool_576.txt	LTP260	ltpFR2	16	2	COLLEGE	346	n/a	n/a	0	0	0
363484	WORD	wordpools/wasnorm_wordpool_576.txt	LTP260	ltpFR2	16	2	JEANS	752	n/a	n/a	0	0	0
366143	WORD	wordpools/wasnorm_wordpool_576.txt	LTP260	ltpFR2	16	2	ROOSTER	1209	n/a	n/a	0	0	0
368669	WORD	wordpools/wasnorm_wordpool_576.txt	LTP260	ltpFR2	16	2	DOLPHIN	483	n/a	n/a	0	0	0
371314	WORD	wordpools/wasnorm_wordpool_576.txt	LTP260	ltpFR2	16	2	SHORTS	1293	n/a	n/a	0	0	0
373867	WORD	wordpools/wasnorm_wordpool_576.txt	LTP260	ltpFR2	16	2	BOX	159	n/a	n/a	0	0	0
376666	WORD	wordpools/wasnorm_wordpool_576.txt	LTP260	ltpFR2	16	2	RELISH	1183	n/a	n/a	0	0	0
378274	START	n/a	LTP260	ltpFR2	16	n/a	n/a	n/a	3	n/a	n/a	n/a	n/a
379081	DISTRACTOR	n/a	LTP260	ltpFR2	16	2	n/a	n/a	n/a	n/a	0	0	0
379092	PROB	n/a	LTP260	ltpFR2	16	n/a	n/a	n/a	3	11	6	1	4
380224	PROB	n/a	LTP260	ltpFR2	16	n/a	n/a	n/a	3	16	2	7	7
381663	PROB	n/a	LTP260	ltpFR2	16	n/a	n/a	n/a	3	17	5	3	9
383671	PROB	n/a	LTP260	ltpFR2	16	n/a	n/a	n/a	3	7	1	2	5
385479	PROB	n/a	LTP260	ltpFR2	16	n/a	n/a	n/a	3	10	2	5	3
387172	PROB	n/a	LTP260	ltpFR2	16	n/a	n/a	n/a	3	16	8	3	5
388529	PROB	n/a	LTP260	ltpFR2	16	n/a	n/a	n/a	3	14	3	9	2
390100	PROB	n/a	LTP260	ltpFR2	16	n/a	n/a	n/a	3	15	9	1	5
391182	PROB	n/a	LTP260	ltpFR2	16	n/a	n/a	n/a	3	13	2	6	5
393447	PROB	n/a	LTP260	ltpFR2	16	n/a	n/a	n/a	3	24	8	8	8
394762	PROB	n/a	LTP260	ltpFR2	16	n/a	n/a	n/a	3	14	8	4	2
396341	PROB	n/a	LTP260	ltpFR2	16	n/a	n/a	n/a	3	9	2	3	4
398577	PROB	n/a	LTP260	ltpFR2	16	n/a	n/a	n/a	3	13	7	2	4
400238	PROB	n/a	LTP260	ltpFR2	16	n/a	n/a	n/a	3	8	3	3	2
401580	STOP	n/a	LTP260	ltpFR2	16	n/a	n/a	n/a	3	n/a	n/a	n/a	n/a
404098	REC_START	n/a	LTP260	ltpFR2	16	2	n/a	n/a	n/a	n/a	0	0	0
405684	REC_WORD	wordpools/wasnorm_wordpool_576.txt	LTP260	ltpFR2	16	2	COLLEGE	346	n/a	n/a	0	0	0
406489	REC_WORD	wordpools/wasnorm_wordpool_576.txt	LTP260	ltpFR2	16	2	TEACHER	1440	n/a	n/a	0	0	0
407281	REC_WORD	wordpools/wasnorm_wordpool_576.txt	LTP260	ltpFR2	16	2	JEANS	752	n/a	n/a	0	0	0
408054	REC_WORD	wordpools/wasnorm_wordpool_576.txt	LTP260	ltpFR2	16	2	SHORTS	1293	n/a	n/a	0	0	0
409105	REC_WORD	wordpools/wasnorm_wordpool_576.txt	LTP260	ltpFR2	16	2	CONCERT	360	n/a	n/a	0	0	0
409954	REC_WORD	wordpools/wasnorm_wordpool_576.txt	LTP260	ltpFR2	16	2	SPACE	1345	n/a	n/a	0	0	0
411420	REC_WORD	wordpools/wasnorm_wordpool_576.txt	LTP260	ltpFR2	16	2	SCULPTURE	1258	n/a	n/a	0	0	0
412406	REC_WORD	wordpools/wasnorm_wordpool_576.txt	LTP260	ltpFR2	16	2	MAMMAL	861	n/a	n/a	0	0	0
413343	REC_WORD	wordpools/wasnorm_wordpool_576.txt	LTP260	ltpFR2	16	2	DOLPHIN	483	n/a	n/a	0	0	0
414180	REC_WORD	wordpools/wasnorm_wordpool_576.txt	LTP260	ltpFR2	16	2	ROOSTER	1209	n/a	n/a	0	0	0
415078	REC_WORD	wordpools/wasnorm_wordpool_576.txt	LTP260	ltpFR2	16	2	PIGEON	1065	n/a	n/a	0	0	0
416961	REC_WORD	wordpools/wasnorm_wordpool_576.txt	LTP260	ltpFR2	16	2	BOX	159	n/a	n/a	0	0	0
417584	REC_WORD	wordpools/wasnorm_wordpool_576.txt	LTP260	ltpFR2	16	2	NAPKIN	937	n/a	n/a	0	0	0
418381	REC_WORD	wordpools/wasnorm_wordpool_576.txt	LTP260	ltpFR2	16	2	ITEM	746	n/a	n/a	0	0	0
419766	REC_WORD	wordpools/wasnorm_wordpool_576.txt	LTP260	ltpFR2	16	2	SANDWICH	1232	n/a	n/a	0	0	0
421050	REC_WORD	wordpools/wasnorm_wordpool_576.txt	LTP260	ltpFR2	16	2	BARLEY	88	n/a	n/a	0	0	0
423247	REC_WORD	wordpools/wasnorm_wordpool_576.txt	LTP260	ltpFR2	16	2	ORANGE	980	n/a	n/a	0	0	0
424186	REC_WORD	wordpools/wasnorm_wordpool_576.txt	LTP260	ltpFR2	16	2	MAPLE	866	n/a	n/a	0	0	0
425290	REC_WORD_VV	wordpools/wasnorm_wordpool_576.txt	LTP260	ltpFR2	16	2	<>	-1	n/a	n/a	0	0	0
425965	REC_WORD_VV	wordpools/wasnorm_wordpool_576.txt	LTP260	ltpFR2	16	2	<>	-1	n/a	n/a	0	0	0
426465	REC_WORD	wordpools/wasnorm_wordpool_576.txt	LTP260	ltpFR2	16	2	RELISH	1183	n/a	n/a	0	0	0
428451	REC_WORD	wordpools/wasnorm_wordpool_576.txt	LTP260	ltpFR2	16	2	RADISH	1158	n/a	n/a	0	0	0
434817	REC_WORD	wordpools/wasnorm_wordpool_576.txt	LTP260	ltpFR2	16	2	SCULPTURE	1258	n/a	n/a	0	0	0
435638	REC_WORD	wordpools/wasnorm_wordpool_576.txt	LTP260	ltpFR2	16	2	SPONGE	1355	n/a	n/a	0	0	0
438468	REC_WORD	wordpools/wasnorm_wordpool_576.txt	LTP260	ltpFR2	16	2	WIFE	1609	n/a	n/a	0	0	0
439167	REC_WORD	wordpools/wasnorm_wordpool_576.txt	LTP260	ltpFR2	16	2	FRIEND	606	n/a	n/a	0	0	0
439968	REC_WORD	wordpools/wasnorm_wordpool_576.txt	LTP260	ltpFR2	16	2	LOVER	846	n/a	n/a	0	0	0
495146	DISTRACTOR	n/a	LTP260	ltpFR2	16	3	n/a	n/a	n/a	n/a	0	0	0
495146	START	n/a	LTP260	ltpFR2	16	n/a	n/a	n/a	4	n/a	n/a	n/a	n/a
495196	PROB	n/a	LTP260	ltpFR2	16	n/a	n/a	n/a	4	8	1	6	1
496263	PROB	n/a	LTP260	ltpFR2	16	n/a	n/a	n/a	4	6	1	2	3
497434	PROB	n/a	LTP260	ltpFR2	16	n/a	n/a	n/a	4	13	2	5	6
498621	PROB	n/a	LTP260	ltpFR2	16	n/a	n/a	n/a	4	13	6	6	1
499725	PROB	n/a	LTP260	ltpFR2	16	n/a	n/a	n/a	4	15	3	7	5
501035	PROB	n/a	LTP260	ltpFR2	16	n/a	n/a	n/a	4	17	9	5	3
502525	PROB	n/a	LTP260	ltpFR2	16	n/a	n/a	n/a	4	12	3	3	6
503639	PROB	n/a	LTP260	ltpFR2	16	n/a	n/a	n/a	4	18	5	6	7
507877	PROB	n/a	LTP260	ltpFR2	16	n/a	n/a	n/a	4	19	9	2	8
509863	PROB	n/a	LTP260	ltpFR2	16	n/a	n/a	n/a	4	19	5	7	7
511269	PROB	n/a	LTP260	ltpFR2	16	n/a	n/a	n/a	4	7	4	1	2
512891	PROB	n/a	LTP260	ltpFR2	16	n/a	n/a	n/a	4	22	7	8	7
514515	PROB	n/a	LTP260	ltpFR2	16	n/a	n/a	n/a	4	13	3	9	1
515585	PROB	n/a	LTP260	ltpFR2	16	n/a	n/a	n/a	4	9	3	5	1
516945	PROB	n/a	LTP260	ltpFR2	16	n/a	n/a	n/a	4	9	7	1	1
518341	STOP	n/a	LTP260	ltpFR2	16	n/a	n/a	n/a	4	n/a	n/a	n/a	n/a
519990	WORD	wordpools/wasnorm_wordpool_576.txt	LTP260	ltpFR2	16	3	PEANUT	1032	n/a	n/a	0	0	0
522445	WORD	wordpools/wasnorm_wordpool_576.txt	LTP260	ltpFR2	16	3	WASP	1593	n/a	n/a	0	0	0
525254	WORD	wordpools/wasnorm_wordpool_576.txt	LTP260	ltpFR2	16	3	POLICE	1098	n/a	n/a	0	0	0
527836	WORD	wordpools/wasnorm_wordpool_576.txt	LTP260	ltpFR2	16	3	AGENT	10	n/a	n/a	0	0	0
530580	WORD	wordpools/wasnorm_wordpool_576.txt	LTP260	ltpFR2	16	3	RATTLE	1170	n/a	n/a	0	0	0
533072	WORD	wordpools/wasnorm_wordpool_576.txt	LTP260	ltpFR2	16	3	RABBIT	1152	n/a	n/a	0	0	0
535549	WORD	wordpools/wasnorm_wordpool_576.txt	LTP260	ltpFR2	16	3	CABBAGE	210	n/a	n/a	0	0	0
538002	WORD	wordpools/wasnorm_wordpool_576.txt	LTP260	ltpFR2	16	3	WORKER	1621	n/a	n/a	0	0	0
540768	WORD	wordpools/wasnorm_wordpool_576.txt	LTP260	ltpFR2	16	3	DRINK	498	n/a	n/a	0	0	0
543446	WORD	wordpools/wasnorm_wordpool_576.txt	LTP260	ltpFR2	16	3	TILE	1468	n/a	n/a	0	0	0
545904	WORD	wordpools/wasnorm_wordpool_576.txt	LTP260	ltpFR2	16	3	GRILL	661	n/a	n/a	0	0	0
548631	WORD	wordpools/wasnorm_wordpool_576.txt	LTP260	ltpFR2	16	3	CREATURE	403	n/a	n/a	0	0	0
551426	WORD	wordpools/wasnorm_wordpool_576.txt	LTP260	ltpFR2	16	3	ANTLER	29	n/a	n/a	0	0	0
554063	WORD	wordpools/wasnorm_wordpool_576.txt	LTP260	ltpFR2	16	3	VALVE	1546	n/a	n/a	0	0	0
556862	WORD	wordpools/wasnorm_wordpool_576.txt	LTP260	ltpFR2	16	3	PISTON	1076	n/a	n/a	0	0	0
559439	WORD	wordpools/wasnorm_wordpool_576.txt	LTP260	ltpFR2	16	3	BREAST	171	n/a	n/a	0	0	0
562182	WORD	wordpools/wasnorm_wordpool_576.txt	LTP260	ltpFR2	16	3	BURGLAR	200	n/a	n/a	0	0	0
564837	WORD	wordpools/wasnorm_wordpool_576.txt	LTP260	ltpFR2	16	3	HONEY	713	n/a	n/a	0	0	0
567364	WORD	wordpools/wasnorm_wordpool_576.txt	LTP260	ltpFR2	16	3	MILK	895	n/a	n/a	0	0	0
569895	WORD	wordpools/wasnorm_wordpool_576.txt	LTP260	ltpFR2	16	3	PRINCE	1124	n/a	n/a	0	0	0
572422	WORD	wordpools/wasnorm_wordpool_576.txt	LTP260	ltpFR2	16	3	BUG	187	n/a	n/a	0	0	0
574997	WORD	wordpools/wasnorm_wordpool_576.txt	LTP260	ltpFR2	16	3	CRICKET	408	n/a	n/a	0	0	0
577590	WORD	wordpools/wasnorm_wordpool_576.txt	LTP260	ltpFR2	16	3	RECEIPT	1173	n/a	n/a	0	0	0
580268	WORD	wordpools/wasnorm_wordpool_576.txt	LTP260	ltpFR2	16	3	PASTA	1021	n/a	n/a	0	0	0
581885	START	n/a	LTP260	ltpFR2	16	n/a	n/a	n/a	5	n/a	n/a	n/a	n/a
583038	DISTRACTOR	n/a	LTP260	ltpFR2	16	3	n/a	n/a	n/a	n/a	0	0	0
583055	PROB	n/a	LTP260	ltpFR2	16	n/a	n/a	n/a	5	16	6	3	7
585130	PROB	n/a	LTP260	ltpFR2	16	n/a	n/a	n/a	5	12	7	1	4
586758	PROB	n/a	LTP260	ltpFR2	16	n/a	n/a	n/a	5	11	5	1	5
587812	PROB	n/a	LTP260	ltpFR2	16	n/a	n/a	n/a	5	21	9	7	5
589881	PROB	n/a	LTP260	ltpFR2	16	n/a	n/a	n/a	5	12	2	8	2
591310	PROB	n/a	LTP260	ltpFR2	16	n/a	n/a	n/a	5	14	7	3	4
592481	PROB	n/a	LTP260	ltpFR2	16	n/a	n/a	n/a	5	11	3	4	4
594416	PROB	n/a	LTP260	ltpFR2	16	n/a	n/a	n/a	5	14	1	9	4
595576	PROB	n/a	LTP260	ltpFR2	16	n/a	n/a	n/a	5	7	2	3	2
597632	PROB	n/a	LTP260	ltpFR2	16	n/a	n/a	n/a	5	18	5	7	6
599757	PROB	n/a	LTP260	ltpFR2	16	n/a	n/a	n/a	5	15	9	3	3
601112	PROB	n/a	LTP260	ltpFR2	16	n/a	n/a	n/a	5	13	6	6	1
602279	PROB	n/a	LTP260	ltpFR2	16	n/a	n/a	n/a	5	11	1	3	7
603417	PROB	n/a	LTP260	ltpFR2	16	n/a	n/a	n/a	5	6	1	4	1
604756	STOP	n/a	LTP260	ltpFR2	16	n/a	n/a	n/a	5	n/a	n/a	n/a	n/a
607799	REC_START	n/a	LTP260	ltpFR2	16	3	n/a	n/a	n/a	n/a	0	0	0
608422	REC_WORD	wordpools/wasnorm_wordpool_576.txt	LTP260	ltpFR2	16	3	PASTA	1021	n/a	n/a	0	0	0
609100	REC_WORD	wordpools/wasnorm_wordpool_576.txt	LTP260	ltpFR2	16	3	RECEIPT	1173	n/a	n/a	0	0	0
610103	REC_WORD	wordpools/wasnorm_wordpool_576.txt	LTP260	ltpFR2	16	3	PRINCE	1124	n/a	n/a	0	0	0
610831	REC_WORD	wordpools/wasnorm_wordpool_576.txt	LTP260	ltpFR2	16	3	MILK	895	n/a	n/a	0	0	0
611534	REC_WORD	wordpools/wasnorm_wordpool_576.txt	LTP260	ltpFR2	16	3	HONEY	713	n/a	n/a	0	0	0
614258	REC_WORD	wordpools/wasnorm_wordpool_576.txt	LTP260	ltpFR2	16	3	POLICE	1098	n/a	n/a	0	0	0
614998	REC_WORD	wordpools/wasnorm_wordpool_576.txt	LTP260	ltpFR2	16	3	AGENT	10	n/a	n/a	0	0	0
617497	REC_WORD	wordpools/wasnorm_wordpool_576.txt	LTP260	ltpFR2	16	3	WORKER	1621	n/a	n/a	0	0	0
618447	REC_WORD	wordpools/wasnorm_wordpool_576.txt	LTP260	ltpFR2	16	3	BREAST	171	n/a	n/a	0	0	0
620503	REC_WORD	wordpools/wasnorm_wordpool_576.txt	LTP260	ltpFR2	16	3	TILE	1468	n/a	n/a	0	0	0
621602	REC_WORD	wordpools/wasnorm_wordpool_576.txt	LTP260	ltpFR2	16	3	GRILL	661	n/a	n/a	0	0	0
622520	REC_WORD	wordpools/wasnorm_wordpool_576.txt	LTP260	ltpFR2	16	3	VALVE	1546	n/a	n/a	0	0	0
623254	REC_WORD	wordpools/wasnorm_wordpool_576.txt	LTP260	ltpFR2	16	3	PISTON	1076	n/a	n/a	0	0	0
626350	REC_WORD	wordpools/wasnorm_wordpool_576.txt	LTP260	ltpFR2	16	3	BURGLAR	200	n/a	n/a	0	0	0
629036	REC_WORD	wordpools/wasnorm_wordpool_576.txt	LTP260	ltpFR2	16	3	RABBIT	1152	n/a	n/a	0	0	0
629727	REC_WORD	wordpools/wasnorm_wordpool_576.txt	LTP260	ltpFR2	16	3	ANTLER	29	n/a	n/a	0	0	0
631158	REC_WORD	wordpools/wasnorm_wordpool_576.txt	LTP260	ltpFR2	16	3	CABBAGE	210	n/a	n/a	0	0	0
633547	REC_WORD	wordpools/wasnorm_wordpool_576.txt	LTP260	ltpFR2	16	3	CREATURE	403	n/a	n/a	0	0	0
635170	REC_WORD	wordpools/wasnorm_wordpool_576.txt	LTP260	ltpFR2	16	3	BUG	187	n/a	n/a	0	0	0
635763	REC_WORD	wordpools/wasnorm_wordpool_576.txt	LTP260	ltpFR2	16	3	CRICKET	408	n/a	n/a	0	0	0
637892	REC_WORD	wordpools/wasnorm_wordpool_576.txt	LTP260	ltpFR2	16	3	PEANUT	1032	n/a	n/a	0	0	0
640605	REC_WORD	wordpools/wasnorm_wordpool_576.txt	LTP260	ltpFR2	16	3	WASP	1593	n/a	n/a	0	0	0
646144	REC_WORD	wordpools/wasnorm_wordpool_576.txt	LTP260	ltpFR2	16	3	DRINK	498	n/a	n/a	0	0	0
698847	WORD	wordpools/wasnorm_wordpool_576.txt	LTP260	ltpFR2	16	4	CHURCH	307	n/a	n/a	0	0	0
701291	WORD	wordpools/wasnorm_wordpool_576.txt	LTP260	ltpFR2	16	4	TURNIP	1521	n/a	n/a	0	0	0
703933	WORD	wordpools/wasnorm_wordpool_576.txt	LTP260	ltpFR2	16	4	FLASK	576	n/a	n/a	0	0	0
706371	WORD	wordpools/wasnorm_wordpool_576.txt	LTP260	ltpFR2	16	4	CLAMP	316	n/a	n/a	0	0	0
709181	WORD	wordpools/wasnorm_wordpool_576.txt	LTP260	ltpFR2	16	4	BEAKER	104	n/a	n/a	0	0	0
711796	WORD	wordpools/wasnorm_wordpool_576.txt	LTP260	ltpFR2	16	4	PUPIL	1143	n/a	n/a	0	0	0
714424	WORD	wordpools/wasnorm_wordpool_576.txt	LTP260	ltpFR2	16	4	BADGE	68	n/a	n/a	0	0	0
717077	WORD	wordpools/wasnorm_wordpool_576.txt	LTP260	ltpFR2	16	4	CANYON	235	n/a	n/a	0	0	0
719726	WORD	wordpools/wasnorm_wordpool_576.txt	LTP260	ltpFR2	16	4	JOURNAL	760	n/a	n/a	0	0	0
722298	WORD	wordpools/wasnorm_wordpool_576.txt	LTP260	ltpFR2	16	4	GAVEL	627	n/a	n/a	0	0	0
724912	WORD	wordpools/wasnorm_wordpool_576.txt	LTP260	ltpFR2	16	4	MEAT	883	n/a	n/a	0	0	0
727606	WORD	wordpools/wasnorm_wordpool_576.txt	LTP260	ltpFR2	16	4	BUTCHER	203	n/a	n/a	0	0	0
730367	WORD	wordpools/wasnorm_wordpool_576.txt	LTP260	ltpFR2	16	4	FUNGUS	614	n/a	n/a	0	0	0
733076	WORD	wordpools/wasnorm_wordpool_576.txt	LTP260	ltpFR2	16	4	LIZARD	834	n/a	n/a	0	0	0
735664	WORD	wordpools/wasnorm_wordpool_576.txt	LTP260	ltpFR2	16	4	MONSTER	912	n/a	n/a	0	0	0
738431	WORD	wordpools/wasnorm_wordpool_576.txt	LTP260	ltpFR2	16	4	OYSTER	995	n/a	n/a	0	0	0
741190	WORD	wordpools/wasnorm_wordpool_576.txt	LTP260	ltpFR2	16	4	HERO	706	n/a	n/a	0	0	0
743884	WORD	wordpools/wasnorm_wordpool_576.txt	LTP260	ltpFR2	16	4	IDOL	733	n/a	n/a	0	0	0
746622	WORD	wordpools/wasnorm_wordpool_576.txt	LTP260	ltpFR2	16	4	ACTOR	5	n/a	n/a	0	0	0
749120	WORD	wordpools/wasnorm_wordpool_576.txt	LTP260	ltpFR2	16	4	HORSE	719	n/a	n/a	0	0	0
751680	WORD	wordpools/wasnorm_wordpool_576.txt	LTP260	ltpFR2	16	4	STUDENT	1395	n/a	n/a	0	0	0
754491	WORD	wordpools/wasnorm_wordpool_576.txt	LTP260	ltpFR2	16	4	WAITER	1580	n/a	n/a	0	0	0
756966	WORD	wordpools/wasnorm_wordpool_576.txt	LTP260	ltpFR2	16	4	PREACHER	1119	n/a	n/a	0	0	0
759755	WORD	wordpools/wasnorm_wordpool_576.txt	LTP260	ltpFR2	16	4	MARKER	870	n/a	n/a	0	0	0
761367	START	n/a	LTP260	ltpFR2	16	n/a	n/a	n/a	6	n/a	n/a	n/a	n/a
762442	DISTRACTOR	n/a	LTP260	ltpFR2	16	4	n/a	n/a	n/a	n/a	0	0	0
762455	PROB	n/a	LTP260	ltpFR2	16	n/a	n/a	n/a	6	10	5	2	3
763770	PROB	n/a	LTP260	ltpFR2	16	n/a	n/a	n/a	6	9	1	7	1
764908	PROB	n/a	LTP260	ltpFR2	16	n/a	n/a	n/a	6	14	3	5	6
766553	PROB	n/a	LTP260	ltpFR2	16	n/a	n/a	n/a	6	9	4	1	4
768041	PROB	n/a	LTP260	ltpFR2	16	n/a	n/a	n/a	6	22	9	9	4
769314	PROB	n/a	LTP260	ltpFR2	16	n/a	n/a	n/a	6	16	7	1	8
770518	PROB	n/a	LTP260	ltpFR2	16	n/a	n/a	n/a	6	14	3	7	4
771867	PROB	n/a	LTP260	ltpFR2	16	n/a	n/a	n/a	6	18	1	9	8
773072	PROB	n/a	LTP260	ltpFR2	16	n/a	n/a	n/a	6	10	3	1	6
774215	PROB	n/a	LTP260	ltpFR2	16	n/a	n/a	n/a	6	20	4	9	7
776256	PROB	n/a	LTP260	ltpFR2	16	n/a	n/a	n/a	6	19	9	3	7
777990	PROB	n/a	LTP260	ltpFR2	16	n/a	n/a	n/a	6	11	4	6	1
779144	PROB	n/a	LTP260	ltpFR2	16	n/a	n/a	n/a	6	13	1	4	8
780400	PROB	n/a	LTP260	ltpFR2	16	n/a	n/a	n/a	6	15	5	9	1
781793	PROB	n/a	LTP260	ltpFR2	16	n/a	n/a	n/a	6	20	9	9	2
783093	PROB	n/a	LTP260	ltpFR2	16	n/a	n/a	n/a	6	20	7	4	9
784748	STOP	n/a	LTP260	ltpFR2	16	n/a	n/a	n/a	6	n/a	n/a	n/a	n/a
787209	REC_START	n/a	LTP260	ltpFR2	16	4	n/a	n/a	n/a	n/a	0	0	0
789617	REC_WORD	wordpools/wasnorm_wordpool_576.txt	LTP260	ltpFR2	16	4	CANYON	235	n/a	n/a	0	0	0
790522	REC_WORD	wordpools/wasnorm_wordpool_576.txt	LTP260	ltpFR2	16	4	LIZARD	834	n/a	n/a	0	0	0
791394	REC_WORD	wordpools/wasnorm_wordpool_576.txt	LTP260	ltpFR2	16	4	MONSTER	912	n/a	n/a	0	0	0
792336	REC_WORD	wordpools/wasnorm_wordpool_576.txt	LTP260	ltpFR2	16	4	OYSTER	995	n/a	n/a	0	0	0
793058	REC_WORD	wordpools/wasnorm_wordpool_576.txt	LTP260	ltpFR2	16	4	HERO	706	n/a	n/a	0	0	0
793957	REC_WORD	wordpools/wasnorm_wordpool_576.txt	LTP260	ltpFR2	16	4	ACTOR	5	n/a	n/a	0	0	0
794792	REC_WORD	wordpools/wasnorm_wordpool_576.txt	LTP260	ltpFR2	16	4	HORSE	719	n/a	n/a	0	0	0
798126	REC_WORD	wordpools/wasnorm_wordpool_576.txt	LTP260	ltpFR2	16	4	STUDENT	1395	n/a	n/a	0	0	0
799284	REC_WORD	wordpools/wasnorm_wordpool_576.txt	LTP260	ltpFR2	16	4	PUPIL	1143	n/a	n/a	0	0	0
801429	REC_WORD	wordpools/wasnorm_wordpool_576.txt	LTP260	ltpFR2	16	4	CLAMP	316	n/a	n/a	0	0	0
802344	REC_WORD	wordpools/wasnorm_wordpool_576.txt	LTP260	ltpFR2	16	4	BEAKER	104	n/a	n/a	0	0	0
803420	REC_WORD	wordpools/wasnorm_wordpool_576.txt	LTP260	ltpFR2	16	4	BADGE	68	n/a	n/a	0	0	0
805255	REC_WORD	wordpools/wasnorm_wordpool_576.txt	LTP260	ltpFR2	16	4	JOURNAL	760	n/a	n/a	0	0	0
807832	REC_WORD	wordpools/wasnorm_wordpool_576.txt	LTP260	ltpFR2	16	4	MEAT	883	n/a	n/a	0	0	0
808434	REC_WORD	wordpools/wasnorm_wordpool_576.txt	LTP260	ltpFR2	16	4	BUTCHER	203	n/a	n/a	0	0	0
811382	REC_WORD	wordpools/wasnorm_wordpool_576.txt	LTP260	ltpFR2	16	4	CHURCH	307	n/a	n/a	0	0	0
813220	REC_WORD	wordpools/wasnorm_wordpool_576.txt	LTP260	ltpFR2	16	4	PREACHER	1119	n/a	n/a	0	0	0
814059	REC_WORD	wordpools/wasnorm_wordpool_576.txt	LTP260	ltpFR2	16	4	WAITER	1580	n/a	n/a	0	0	0
814879	REC_WORD	wordpools/wasnorm_wordpool_576.txt	LTP260	ltpFR2	16	4	MARKER	870	n/a	n/a	0	0	0
817246	REC_WORD	wordpools/wasnorm_wordpool_576.txt	LTP260	ltpFR2	16	4	TURNIP	1521	n/a	n/a	0	0	0
818915	REC_WORD	wordpools/wasnorm_wordpool_576.txt	LTP260	ltpFR2	16	4	FLASK	576	n/a	n/a	0	0	0
830866	REC_WORD	wordpools/wasnorm_wordpool_576.txt	LTP260	ltpFR2	16	4	IDOL	733	n/a	n/a	0	0	0
878257	WORD	wordpools/wasnorm_wordpool_576.txt	LTP260	ltpFR2	16	5	SERVER	1272	n/a	n/a	0	0	0
880811	WORD	wordpools/wasnorm_wordpool_576.txt	LTP260	ltpFR2	16	5	FOX	598	n/a	n/a	0	0	0
883288	WORD	wordpools/wasnorm_wordpool_576.txt	LTP260	ltpFR2	16	5	DIME	466	n/a	n/a	0	0	0
885785	WORD	wordpools/wasnorm_wordpool_576.txt	LTP260	ltpFR2	16	5	TORTOISE	1486	n/a	n/a	0	0	0
888396	WORD	wordpools/wasnorm_wordpool_576.txt	LTP260	ltpFR2	16	5	HARP	689	n/a	n/a	0	0	0
891133	WORD	wordpools/wasnorm_wordpool_576.txt	LTP260	ltpFR2	16	5	STONE	1385	n/a	n/a	0	0	0
893961	WORD	wordpools/wasnorm_wordpool_576.txt	LTP260	ltpFR2	16	5	BUREAU	199	n/a	n/a	0	0	0
896604	WORD	wordpools/wasnorm_wordpool_576.txt	LTP260	ltpFR2	16	5	HOOK	715	n/a	n/a	0	0	0
899169	WORD	wordpools/wasnorm_wordpool_576.txt	LTP260	ltpFR2	16	5	KEEPER	769	n/a	n/a	0	0	0
901946	WORD	wordpools/wasnorm_wordpool_576.txt	LTP260	ltpFR2	16	5	KNIFE	785	n/a	n/a	0	0	0
904507	WORD	wordpools/wasnorm_wordpool_576.txt	LTP260	ltpFR2	16	5	WARDROBE	1587	n/a	n/a	0	0	0
907227	WORD	wordpools/wasnorm_wordpool_576.txt	LTP260	ltpFR2	16	5	INMATE	738	n/a	n/a	0	0	0
909725	WORD	wordpools/wasnorm_wordpool_576.txt	LTP260	ltpFR2	16	5	CAPTIVE	240	n/a	n/a	0	0	0
912364	WORD	wordpools/wasnorm_wordpool_576.txt	LTP260	ltpFR2	16	5	PERMIT	1051	n/a	n/a	0	0	0
914895	WORD	wordpools/wasnorm_wordpool_576.txt	LTP260	ltpFR2	16	5	SPOON	1357	n/a	n/a	0	0	0
917588	WORD	wordpools/wasnorm_wordpool_576.txt	LTP260	ltpFR2	16	5	RAZOR	1171	n/a	n/a	0	0	0
920248	WORD	wordpools/wasnorm_wordpool_576.txt	LTP260	ltpFR2	16	5	SWAMP	1416	n/a	n/a	0	0	0
922691	WORD	wordpools/wasnorm_wordpool_576.txt	LTP260	ltpFR2	16	5	BRICK	172	n/a	n/a	0	0	0
925167	WORD	wordpools/wasnorm_wordpool_576.txt	LTP260	ltpFR2	16	5	SLOPE	1328	n/a	n/a	0	0	0
927721	WORD	wordpools/wasnorm_wordpool_576.txt	LTP260	ltpFR2	16	5	SUMMIT	1405	n/a	n/a	0	0	0
930533	WORD	wordpools/wasnorm_wordpool_576.txt	LTP260	ltpFR2	16	5	ICEBERG	731	n/a	n/a	0	0	0
933013	WORD	wordpools/wasnorm_wordpool_576.txt	LTP260	ltpFR2	16	5	BUCKET	184	n/a	n/a	0	0	0
935518	WORD	wordpools/wasnorm_wordpool_576.txt	LTP260	ltpFR2	16	5	GUARD	667	n/a	n/a	0	0	0
938301	WORD	wordpools/wasnorm_wordpool_576.txt	LTP260	ltpFR2	16	5	LODGE	839	n/a	n/a	0	0	0
939918	START	n/a	LTP260	ltpFR2	16	n/a	n/a	n/a	7	n/a	n/a	n/a	n/a
941103	DISTRACTOR	n/a	LTP260	ltpFR2	16	5	n/a	n/a	n/a	n/a	0	0	0
941110	PROB	n/a	LTP260	ltpFR2	16	n/a	n/a	n/a	7	21	7	9	5
943598	PROB	n/a	LTP260	ltpFR2	16	n/a	n/a	n/a	7	16	4	6	6
945192	PROB	n/a	LTP260	ltpFR2	16	n/a	n/a	n/a	7	13	8	3	2
947318	PROB	n/a	LTP260	ltpFR2	16	n/a	n/a	n/a	7	10	4	1	5
948417	PROB	n/a	LTP260	ltpFR2	16	n/a	n/a	n/a	7	17	5	6	6
949922	PROB	n/a	LTP260	ltpFR2	16	n/a	n/a	n/a	7	19	8	4	7
952449	PROB	n/a	LTP260	ltpFR2	16	n/a	n/a	n/a	7	15	7	5	3
953853	PROB	n/a	LTP260	ltpFR2	16	n/a	n/a	n/a	7	19	9	6	4
955258	PROB	n/a	LTP260	ltpFR2	16	n/a	n/a	n/a	7	21	7	6	8
957417	PROB	n/a	LTP260	ltpFR2	16	n/a	n/a	n/a	7	18	6	7	5
961366	PROB	n/a	LTP260	ltpFR2	16	n/a	n/a	n/a	7	14	7	2	5
962764	STOP	n/a	LTP260	ltpFR2	16	n/a	n/a	n/a	7	n/a	n/a	n/a	n/a
965754	REC_START	n/a	LTP260	ltpFR2	16	5	n/a	n/a	n/a	n/a	0	0	0
970499	REC_WORD	wordpools/wasnorm_wordpool_576.txt	LTP260	ltpFR2	16	5	ICEBERG	731	n/a	n/a	0	0	0
971524	REC_WORD	wordpools/wasnorm_wordpool_576.txt	LTP260	ltpFR2	16	5	SLOPE	1328	n/a	n/a	0	0	0
972461	REC_WORD	wordpools/wasnorm_wordpool_576.txt	LTP260	ltpFR2	16	5	SUMMIT	1405	n/a	n/a	0	0	0
973557	REC_WORD_VV	wordpools/wasnorm_wordpool_576.txt	LTP260	ltpFR2	16	5	<>	-1	n/a	n/a	0	0	0
974373	REC_WORD	wordpools/wasnorm_wordpool_576.txt	LTP260	ltpFR2	16	5	BRICK	172	n/a	n/a	0	0	0
974981	REC_WORD	wordpools/wasnorm_wordpool_576.txt	LTP260	ltpFR2	16	5	STONE	1385	n/a	n/a	0	0	0
975868	REC_WORD	wordpools/wasnorm_wordpool_576.txt	LTP260	ltpFR2	16	5	SWAMP	1416	n/a	n/a	0	0	0
977619	REC_WORD	wordpools/wasnorm_wordpool_576.txt	LTP260	ltpFR2	16	5	BUREAU	199	n/a	n/a	0	0	0
978952	REC_WORD	wordpools/wasnorm_wordpool_576.txt	LTP260	ltpFR2	16	5	GUARD	667	n/a	n/a	0	0	0
980364	REC_WORD	wordpools/wasnorm_wordpool_576.txt	LTP260	ltpFR2	16	5	INMATE	738	n/a	n/a	0	0	0
983312	REC_WORD	wordpools/wasnorm_wordpool_576.txt	LTP260	ltpFR2	16	5	CONVICT	371	n/a	n/a	0	0	0
988260	REC_WORD	wordpools/wasnorm_wordpool_576.txt	LTP260	ltpFR2	16	5	RAZOR	1171	n/a	n/a	0	0	0
989116	REC_WORD	wordpools/wasnorm_wordpool_576.txt	LTP260	ltpFR2	16	5	KNIFE	785	n/a	n/a	0	0	0
990778	REC_WORD	wordpools/wasnorm_wordpool_576.txt	LTP260	ltpFR2	16	5	HOOK	715	n/a	n/a	0	0	0
991649	REC_WORD	wordpools/wasnorm_wordpool_576.txt	LTP260	ltpFR2	16	5	WARDROBE	1587	n/a	n/a	0	0	0
992707	REC_WORD	wordpools/wasnorm_wordpool_576.txt	LTP260	ltpFR2	16	5	SPOON	1357	n/a	n/a	0	0	0
994044	REC_WORD	wordpools/wasnorm_wordpool_576.txt	LTP260	ltpFR2	16	5	PERMIT	1051	n/a	n/a	0	0	0
996162	REC_WORD	wordpools/wasnorm_wordpool_576.txt	LTP260	ltpFR2	16	5	FOX	598	n/a	n/a	0	0	0
996980	REC_WORD	wordpools/wasnorm_wordpool_576.txt	LTP260	ltpFR2	16	5	TORTOISE	1486	n/a	n/a	0	0	0
1003234	REC_WORD	wordpools/wasnorm_wordpool_576.txt	LTP260	ltpFR2	16	5	SERVER	1272	n/a	n/a	0	0	0
1004855	REC_WORD	wordpools/wasnorm_wordpool_576.txt	LTP260	ltpFR2	16	5	DIME	466	n/a	n/a	0	0	0
1005640	REC_WORD	wordpools/wasnorm_wordpool_576.txt	LTP260	ltpFR2	16	5	HARP	689	n/a	n/a	0	0	0
1056796	DISTRACTOR	n/a	LTP260	ltpFR2	16	6	n/a	n/a	n/a	n/a	0	0	0
1056796	START	n/a	LTP260	ltpFR2	16	n/a	n/a	n/a	8	n/a	n/a	n/a	n/a
1056846	PROB	n/a	LTP260	ltpFR2	16	n/a	n/a	n/a	8	10	5	1	4
1057945	PROB	n/a	LTP260	ltpFR2	16	n/a	n/a	n/a	8	20	5	9	6
1059970	PROB	n/a	LTP260	ltpFR2	16	n/a	n/a	n/a	8	16	2	9	5
1061726	PROB	n/a	LTP260	ltpFR2	16	n/a	n/a	n/a	8	24	9	6	9
1063401	PROB	n/a	LTP260	ltpFR2	16	n/a	n/a	n/a	8	12	5	4	3
1064922	PROB	n/a	LTP260	ltpFR2	16	n/a	n/a	n/a	8	15	4	2	9
1066728	PROB	n/a	LTP260	ltpFR2	16	n/a	n/a	n/a	8	11	5	2	4
1068167	PROB	n/a	LTP260	ltpFR2	16	n/a	n/a	n/a	8	17	7	7	3
1069745	PROB	n/a	LTP260	ltpFR2	16	n/a	n/a	n/a	8	22	7	8	7
1072032	PROB	n/a	LTP260	ltpFR2	16	n/a	n/a	n/a	8	23	8	8	7
1073927	PROB	n/a	LTP260	ltpFR2	16	n/a	n/a	n/a	8	14	2	5	7
1076550	PROB	n/a	LTP260	ltpFR2	16	n/a	n/a	n/a	8	14	5	2	7
1077820	PROB	n/a	LTP260	ltpFR2	16	n/a	n/a	n/a	8	14	7	3	4
1080795	STOP	n/a	LTP260	ltpFR2	16	n/a	n/a	n/a	8	n/a	n/a	n/a	n/a
1081618	WORD	wordpools/wasnorm_wordpool_576.txt	LTP260	ltpFR2	16	6	AWARD	63	n/a	n/a	0	0	0
1084435	WORD	wordpools/wasnorm_wordpool_576.txt	LTP260	ltpFR2	16	6	FLESH	579	n/a	n/a	0	0	0
1087144	WORD	wordpools/wasnorm_wordpool_576.txt	LTP260	ltpFR2	16	6	COURSE	390	n/a	n/a	0	0	0
1089966	WORD	wordpools/wasnorm_wordpool_576.txt	LTP260	ltpFR2	16	6	DONKEY	484	n/a	n/a	0	0	0
1092732	WORD	wordpools/wasnorm_wordpool_576.txt	LTP260	ltpFR2	16	6	CARRIAGE	248	n/a	n/a	0	0	0
1095174	WORD	wordpools/wasnorm_wordpool_576.txt	LTP260	ltpFR2	16	6	DRESS	495	n/a	n/a	0	0	0
1097846	WORD	wordpools/wasnorm_wordpool_576.txt	LTP260	ltpFR2	16	6	APPLE	33	n/a	n/a	0	0	0
1100378	WORD	wordpools/wasnorm_wordpool_576.txt	LTP260	ltpFR2	16	6	TWISTER	1530	n/a	n/a	0	0	0
1102987	WORD	wordpools/wasnorm_wordpool_576.txt	LTP260	ltpFR2	16	6	PICNIC	1060	n/a	n/a	0	0	0
1105531	WORD	wordpools/wasnorm_wordpool_576.txt	LTP260	ltpFR2	16	6	MARINE	869	n/a	n/a	0	0	0
1108185	WORD	wordpools/wasnorm_wordpool_576.txt	LTP260	ltpFR2	16	6	PLAID	1080	n/a	n/a	0	0	0
1110649	WORD	wordpools/wasnorm_wordpool_576.txt	LTP260	ltpFR2	16	6	ATOM	55	n/a	n/a	0	0	0
1113075	WORD	wordpools/wasnorm_wordpool_576.txt	LTP260	ltpFR2	16	6	MISSILE	900	n/a	n/a	0	0	0
1115802	WORD	wordpools/wasnorm_wordpool_576.txt	LTP260	ltpFR2	16	6	COMPASS	358	n/a	n/a	0	0	0
1118558	WORD	wordpools/wasnorm_wordpool_576.txt	LTP260	ltpFR2	16	6	LEG	809	n/a	n/a	0	0	0
1121274	WORD	wordpools/wasnorm_wordpool_576.txt	LTP260	ltpFR2	16	6	PADDLE	1000	n/a	n/a	0	0	0
1123949	WORD	wordpools/wasnorm_wordpool_576.txt	LTP260	ltpFR2	16	6	BANJO	82	n/a	n/a	0	0	0
1126660	WORD	wordpools/wasnorm_wordpool_576.txt	LTP260	ltpFR2	16	6	PORTRAIT	1111	n/a	n/a	0	0	0
1129253	WORD	wordpools/wasnorm_wordpool_576.txt	LTP260	ltpFR2	16	6	PLAYGROUND	1087	n/a	n/a	0	0	0
1132013	WORD	wordpools/wasnorm_wordpool_576.txt	LTP260	ltpFR2	16	6	LACE	792	n/a	n/a	0	0	0
1134552	WORD	wordpools/wasnorm_wordpool_576.txt	LTP260	ltpFR2	16	6	SCALPEL	1243	n/a	n/a	0	0	0
1137279	WORD	wordpools/wasnorm_wordpool_576.txt	LTP260	ltpFR2	16	6	NURSE	963	n/a	n/a	0	0	0
1139960	WORD	wordpools/wasnorm_wordpool_576.txt	LTP260	ltpFR2	16	6	ROD	1203	n/a	n/a	0	0	0
1142687	WORD	wordpools/wasnorm_wordpool_576.txt	LTP260	ltpFR2	16	6	PIZZA	1079	n/a	n/a	0	0	0
1144294	START	n/a	LTP260	ltpFR2	16	n/a	n/a	n/a	9	n/a	n/a	n/a	n/a
1145442	DISTRACTOR	n/a	LTP260	ltpFR2	16	6	n/a	n/a	n/a	n/a	0	0	0
1145459	PROB	n/a	LTP260	ltpFR2	16	n/a	n/a	n/a	9	12	5	4	3
1147048	PROB	n/a	LTP260	ltpFR2	16	n/a	n/a	n/a	9	20	9	9	2
1149825	PROB	n/a	LTP260	ltpFR2	16	n/a	n/a	n/a	9	10	1	4	5
1150845	PROB	n/a	LTP260	ltpFR2	16	n/a	n/a	n/a	9	13	5	1	7
1152302	PROB	n/a	LTP260	ltpFR2	16	n/a	n/a	n/a	9	13	6	5	2
1153929	PROB	n/a	LTP260	ltpFR2	16	n/a	n/a	n/a	9	19	5	6	8
1156216	PROB	n/a	LTP260	ltpFR2	16	n/a	n/a	n/a	9	13	7	2	4
1157522	PROB	n/a	LTP260	ltpFR2	16	n/a	n/a	n/a	9	9	2	2	5
1158926	PROB	n/a	LTP260	ltpFR2	16	n/a	n/a	n/a	9	21	8	5	8
1160499	PROB	n/a	LTP260	ltpFR2	16	n/a	n/a	n/a	9	18	7	7	4
1161904	PROB	n/a	LTP260	ltpFR2	16	n/a	n/a	n/a	9	9	4	4	1
1163247	PROB	n/a	LTP260	ltpFR2	16	n/a	n/a	n/a	9	19	9	8	2
1164848	PROB	n/a	LTP260	ltpFR2	16	n/a	n/a	n/a	9	18	6	6	6
1168269	STOP	n/a	LTP260	ltpFR2	16	n/a	n/a	n/a	9	n/a	n/a	n/a	n/a
1170052	REC_START	n/a	LTP260	ltpFR2	16	6	n/a	n/a	n/a	n/a	0	0	0
1171062	REC_WORD	wordpools/wasnorm_wordpool_576.txt	LTP260	ltpFR2	16	6	NURSE	963	n/a	n/a	0	0	0
1171876	REC_WORD	wordpools/wasnorm_wordpool_576.txt	LTP260	ltpFR2	16	6	SCALPEL	1243	n/a	n/a	0	0	0
1172837	REC_WORD	wordpools/wasnorm_wordpool_576.txt	LTP260	ltpFR2	16	6	ROD	1203	n/a	n/a	0	0	0
1175297	REC_WORD	wordpools/wasnorm_wordpool_576.txt	LTP260	ltpFR2	16	6	TWISTER	1530	n/a	n/a	0	0	0
1176238	REC_WORD	wordpools/wasnorm_wordpool_576.txt	LTP260	ltpFR2	16	6	MISSILE	900	n/a	n/a	0	0	0
1178044	REC_WORD	wordpools/wasnorm_wordpool_576.txt	LTP260	ltpFR2	16	6	DONKEY	484	n/a	n/a	0	0	0
1179427	REC_WORD	wordpools/wasnorm_wordpool_576.txt	LTP260	ltpFR2	16	6	CARRIAGE	248	n/a	n/a	0	0	0
1180565	REC_WORD	wordpools/wasnorm_wordpool_576.txt	LTP260	ltpFR2	16	6	COURSE	390	n/a	n/a	0	0	0
1181743	REC_WORD	wordpools/wasnorm_wordpool_576.txt	LTP260	ltpFR2	16	6	AWARD	63	n/a	n/a	0	0	0
1182489	REC_WORD	wordpools/wasnorm_wordpool_576.txt	LTP260	ltpFR2	16	6	FLESH	579	n/a	n/a	0	0	0
1185607	REC_WORD	wordpools/wasnorm_wordpool_576.txt	LTP260	ltpFR2	16	6	PLAYGROUND	1087	n/a	n/a	0	0	0
1187831	REC_WORD	wordpools/wasnorm_wordpool_576.txt	LTP260	ltpFR2	16	6	MARINE	869	n/a	n/a	0	0	0
1189222	REC_WORD	wordpools/wasnorm_wordpool_576.txt	LTP260	ltpFR2	16	6	PLAID	1080	n/a	n/a	0	0	0
1190100	REC_WORD	wordpools/wasnorm_wordpool_576.txt	LTP260	ltpFR2	16	6	COMPASS	358	n/a	n/a	0	0	0
1190977	REC_WORD	wordpools/wasnorm_wordpool_576.txt	LTP260	ltpFR2	16	6	LEG	809	n/a	n/a	0	0	0
1191957	REC_WORD	wordpools/wasnorm_wordpool_576.txt	LTP260	ltpFR2	16	6	PADDLE	1000	n/a	n/a	0	0	0
1193487	REC_WORD	wordpools/wasnorm_wordpool_576.txt	LTP260	ltpFR2	16	6	BANJO	82	n/a	n/a	0	0	0
1194948	REC_WORD	wordpools/wasnorm_wordpool_576.txt	LTP260	ltpFR2	16	6	PICNIC	1060	n/a	n/a	0	0	0
1195745	REC_WORD	wordpools/wasnorm_wordpool_576.txt	LTP260	ltpFR2	16	6	APPLE	33	n/a	n/a	0	0	0
1196518	REC_WORD	wordpools/wasnorm_wordpool_576.txt	LTP260	ltpFR2	16	6	PIZZA	1079	n/a	n/a	0	0	0
1198663	REC_WORD	wordpools/wasnorm_wordpool_576.txt	LTP260	ltpFR2	16	6	PORTRAIT	1111	n/a	n/a	0	0	0
1199545	REC_WORD	wordpools/wasnorm_wordpool_576.txt	LTP260	ltpFR2	16	6	DRESS	495	n/a	n/a	0	0	0
1200262	REC_WORD	wordpools/wasnorm_wordpool_576.txt	LTP260	ltpFR2	16	6	LACE	792	n/a	n/a	0	0	0
1261167	WORD	wordpools/wasnorm_wordpool_576.txt	LTP260	ltpFR2	16	7	ISLAND	745	n/a	n/a	0	0	0
1263972	WORD	wordpools/wasnorm_wordpool_576.txt	LTP260	ltpFR2	16	7	STREAM	1392	n/a	n/a	0	0	0
1266404	WORD	wordpools/wasnorm_wordpool_576.txt	LTP260	ltpFR2	16	7	PASSAGE	1019	n/a	n/a	0	0	0
1268829	WORD	wordpools/wasnorm_wordpool_576.txt	LTP260	ltpFR2	16	7	WHISKERS	1605	n/a	n/a	0	0	0
1271300	WORD	wordpools/wasnorm_wordpool_576.txt	LTP260	ltpFR2	16	7	PENGUIN	1044	n/a	n/a	0	0	0
1273826	WORD	wordpools/wasnorm_wordpool_576.txt	LTP260	ltpFR2	16	7	DANDRUFF	439	n/a	n/a	0	0	0
1276325	WORD	wordpools/wasnorm_wordpool_576.txt	LTP260	ltpFR2	16	7	FOREHEAD	592	n/a	n/a	0	0	0
1278800	WORD	wordpools/wasnorm_wordpool_576.txt	LTP260	ltpFR2	16	7	FILM	565	n/a	n/a	0	0	0
1281321	WORD	wordpools/wasnorm_wordpool_576.txt	LTP260	ltpFR2	16	7	XEROX	1628	n/a	n/a	0	0	0
1283964	WORD	wordpools/wasnorm_wordpool_576.txt	LTP260	ltpFR2	16	7	JUNGLE	764	n/a	n/a	0	0	0
1286596	WORD	wordpools/wasnorm_wordpool_576.txt	LTP260	ltpFR2	16	7	TABLE	1426	n/a	n/a	0	0	0
1289055	WORD	wordpools/wasnorm_wordpool_576.txt	LTP260	ltpFR2	16	7	SHELF	1280	n/a	n/a	0	0	0
1291577	WORD	wordpools/wasnorm_wordpool_576.txt	LTP260	ltpFR2	16	7	PATROL	1027	n/a	n/a	0	0	0
1294091	WORD	wordpools/wasnorm_wordpool_576.txt	LTP260	ltpFR2	16	7	TRACTOR	1493	n/a	n/a	0	0	0
1296784	WORD	wordpools/wasnorm_wordpool_576.txt	LTP260	ltpFR2	16	7	GLOBE	641	n/a	n/a	0	0	0
1299261	WORD	wordpools/wasnorm_wordpool_576.txt	LTP260	ltpFR2	16	7	FIDDLE	561	n/a	n/a	0	0	0
1301870	WORD	wordpools/wasnorm_wordpool_576.txt	LTP260	ltpFR2	16	7	NIGHTGOWN	953	n/a	n/a	0	0	0
1304380	WORD	wordpools/wasnorm_wordpool_576.txt	LTP260	ltpFR2	16	7	CLOCK	325	n/a	n/a	0	0	0
1306889	WORD	wordpools/wasnorm_wordpool_576.txt	LTP260	ltpFR2	16	7	COUCH	386	n/a	n/a	0	0	0
1309411	WORD	wordpools/wasnorm_wordpool_576.txt	LTP260	ltpFR2	16	7	FLOWER	584	n/a	n/a	0	0	0
1311925	WORD	wordpools/wasnorm_wordpool_576.txt	LTP260	ltpFR2	16	7	CASKET	255	n/a	n/a	0	0	0
1314446	WORD	wordpools/wasnorm_wordpool_576.txt	LTP260	ltpFR2	16	7	TOMBSTONE	1478	n/a	n/a	0	0	0
1317172	WORD	wordpools/wasnorm_wordpool_576.txt	LTP260	ltpFR2	16	7	BEAVER	109	n/a	n/a	0	0	0
1319838	WORD	wordpools/wasnorm_wordpool_576.txt	LTP260	ltpFR2	16	7	LOFT	840	n/a	n/a	0	0	0
1321445	START	n/a	LTP260	ltpFR2	16	n/a	n/a	n/a	10	n/a	n/a	n/a	n/a
1322450	DISTRACTOR	n/a	LTP260	ltpFR2	16	7	n/a	n/a	n/a	n/a	0	0	0
1322465	PROB	n/a	LTP260	ltpFR2	16	n/a	n/a	n/a	10	13	4	1	8
1323936	PROB	n/a	LTP260	ltpFR2	16	n/a	n/a	n/a	10	22	9	4	9
1325421	PROB	n/a	LTP260	ltpFR2	16	n/a	n/a	n/a	10	19	5	7	7
1326881	PROB	n/a	LTP260	ltpFR2	16	n/a	n/a	n/a	10	9	3	4	2
1330640	PROB	n/a	LTP260	ltpFR2	16	n/a	n/a	n/a	10	20	9	7	4
1332431	PROB	n/a	LTP260	ltpFR2	16	n/a	n/a	n/a	10	22	4	9	9
1333807	PROB	n/a	LTP260	ltpFR2	16	n/a	n/a	n/a	10	19	3	9	7
1336027	PROB	n/a	LTP260	ltpFR2	16	n/a	n/a	n/a	10	9	1	6	2
1337248	PROB	n/a	LTP260	ltpFR2	16	n/a	n/a	n/a	10	22	9	4	9
1338571	PROB	n/a	LTP260	ltpFR2	16	n/a	n/a	n/a	10	10	7	2	1
1339657	PROB	n/a	LTP260	ltpFR2	16	n/a	n/a	n/a	10	19	8	3	8
1341062	PROB	n/a	LTP260	ltpFR2	16	n/a	n/a	n/a	10	15	1	6	8
1342601	PROB	n/a	LTP260	ltpFR2	16	n/a	n/a	n/a	10	15	9	5	1
1344366	STOP	n/a	LTP260	ltpFR2	16	n/a	n/a	n/a	10	n/a	n/a	n/a	n/a
1347377	REC_START	n/a	LTP260	ltpFR2	16	7	n/a	n/a	n/a	n/a	0	0	0
1348870	REC_WORD	wordpools/wasnorm_wordpool_576.txt	LTP260	ltpFR2	16	7	LOFT	840	n/a	n/a	0	0	0
1349861	REC_WORD	wordpools/wasnorm_wordpool_576.txt	LTP260	ltpFR2	16	7	COUCH	386	n/a	n/a	0	0	0
1350924	REC_WORD	wordpools/wasnorm_wordpool_576.txt	LTP260	ltpFR2	16	7	TABLE	1426	n/a	n/a	0	0	0
1351954	REC_WORD	wordpools/wasnorm_wordpool_576.txt	LTP260	ltpFR2	16	7	SHELF	1280	n/a	n/a	0	0	0
1353265	REC_WORD	wordpools/wasnorm_wordpool_576.txt	LTP260	ltpFR2	16	7	GLOBE	641	n/a	n/a	0	0	0
1354222	REC_WORD	wordpools/wasnorm_wordpool_576.txt	LTP260	ltpFR2	16	7	XEROX	1628	n/a	n/a	0	0	0
1356200	REC_WORD	wordpools/wasnorm_wordpool_576.txt	LTP260	ltpFR2	16	7	CLOCK	325	n/a	n/a	0	0	0
1357280	REC_WORD	wordpools/wasnorm_wordpool_576.txt	LTP260	ltpFR2	16	7	FILM	565	n/a	n/a	0	0	0
1359092	REC_WORD	wordpools/wasnorm_wordpool_576.txt	LTP260	ltpFR2	16	7	ISLAND	745	n/a	n/a	0	0	0
1361221	REC_WORD	wordpools/wasnorm_wordpool_576.txt	LTP260	ltpFR2	16	7	JUNGLE	764	n/a	n/a	0	0	0
1362407	REC_WORD	wordpools/wasnorm_wordpool_576.txt	LTP260	ltpFR2	16	7	STREAM	1392	n/a	n/a	0	0	0
1363601	REC_WORD	wordpools/wasnorm_wordpool_576.txt	LTP260	ltpFR2	16	7	PASSAGE	1019	n/a	n/a	0	0	0
1365854	REC_WORD	wordpools/wasnorm_wordpool_576.txt	LTP260	ltpFR2	16	7	CASKET	255	n/a	n/a	0	0	0
1366703	REC_WORD	wordpools/wasnorm_wordpool_576.txt	LTP260	ltpFR2	16	7	FLOWER	584	n/a	n/a	0	0	0
1367558	REC_WORD	wordpools/wasnorm_wordpool_576.txt	LTP260	ltpFR2	16	7	TOMBSTONE	1478	n/a	n/a	0	0	0
1368532	REC_WORD	wordpools/wasnorm_wordpool_576.txt	LTP260	ltpFR2	16	7	BEAVER	109	n/a	n/a	0	0	0
1369383	REC_WORD	wordpools/wasnorm_wordpool_576.txt	LTP260	ltpFR2	16	7	PENGUIN	1044	n/a	n/a	0	0	0
1370446	REC_WORD	wordpools/wasnorm_wordpool_576.txt	LTP260	ltpFR2	16	7	FOREHEAD	592	n/a	n/a	0	0	0
1371742	REC_WORD	wordpools/wasnorm_wordpool_576.txt	LTP260	ltpFR2	16	7	DANDRUFF	439	n/a	n/a	0	0	0
1372685	REC_WORD	wordpools/wasnorm_wordpool_576.txt	LTP260	ltpFR2	16	7	WHISKERS	1605	n/a	n/a	0	0	0
1376920	REC_WORD	wordpools/wasnorm_wordpool_576.txt	LTP260	ltpFR2	16	7	PATROL	1027	n/a	n/a	0	0	0
1378046	REC_WORD	wordpools/wasnorm_wordpool_576.txt	LTP260	ltpFR2	16	7	NIGHTGOWN	953	n/a	n/a	0	0	0
1379273	REC_WORD	wordpools/wasnorm_wordpool_576.txt	LTP260	ltpFR2	16	7	TRACTOR	1493	n/a	n/a	0	0	0
1438452	WORD	wordpools/wasnorm_wordpool_576.txt	LTP260	ltpFR2	16	8	ARM	38	n/a	n/a	0	0	0
1441123	WORD	wordpools/wasnorm_wordpool_576.txt	LTP260	ltpFR2	16	8	GREASE	660	n/a	n/a	0	0	0
1443939	WORD	wordpools/wasnorm_wordpool_576.txt	LTP260	ltpFR2	16	8	EXPERT	543	n/a	n/a	0	0	0
1446449	WORD	wordpools/wasnorm_wordpool_576.txt	LTP260	ltpFR2	16	8	BUGGY	188	n/a	n/a	0	0	0
1449225	WORD	wordpools/wasnorm_wordpool_576.txt	LTP260	ltpFR2	16	8	CATTLE	261	n/a	n/a	0	0	0
1451701	WORD	wordpools/wasnorm_wordpool_576.txt	LTP260	ltpFR2	16	8	BISON	131	n/a	n/a	0	0	0
1454139	WORD	wordpools/wasnorm_wordpool_576.txt	LTP260	ltpFR2	16	8	SHOULDER	1294	n/a	n/a	0	0	0
1456888	WORD	wordpools/wasnorm_wordpool_576.txt	LTP260	ltpFR2	16	8	IGLOO	734	n/a	n/a	0	0	0
1459381	WORD	wordpools/wasnorm_wordpool_576.txt	LTP260	ltpFR2	16	8	COCOON	339	n/a	n/a	0	0	0
1461839	WORD	wordpools/wasnorm_wordpool_576.txt	LTP260	ltpFR2	16	8	OINTMENT	974	n/a	n/a	0	0	0
1464417	WORD	wordpools/wasnorm_wordpool_576.txt	LTP260	ltpFR2	16	8	DAUGHTER	442	n/a	n/a	0	0	0
1467104	WORD	wordpools/wasnorm_wordpool_576.txt	LTP260	ltpFR2	16	8	WOMAN	1620	n/a	n/a	0	0	0
1469597	WORD	wordpools/wasnorm_wordpool_576.txt	LTP260	ltpFR2	16	8	CHILD	299	n/a	n/a	0	0	0
1472162	WORD	wordpools/wasnorm_wordpool_576.txt	LTP260	ltpFR2	16	8	SISTER	1312	n/a	n/a	0	0	0
1474671	WORD	wordpools/wasnorm_wordpool_576.txt	LTP260	ltpFR2	16	8	SIBLING	1301	n/a	n/a	0	0	0
1477461	WORD	wordpools/wasnorm_wordpool_576.txt	LTP260	ltpFR2	16	8	PUDDLE	1140	n/a	n/a	0	0	0
1480142	WORD	wordpools/wasnorm_wordpool_576.txt	LTP260	ltpFR2	16	8	GROUND	666	n/a	n/a	0	0	0
1482885	WORD	wordpools/wasnorm_wordpool_576.txt	LTP260	ltpFR2	16	8	STOVE	1388	n/a	n/a	0	0	0
1485429	WORD	wordpools/wasnorm_wordpool_576.txt	LTP260	ltpFR2	16	8	LEOPARD	812	n/a	n/a	0	0	0
1488122	WORD	wordpools/wasnorm_wordpool_576.txt	LTP260	ltpFR2	16	8	FARMER	553	n/a	n/a	0	0	0
1490748	WORD	wordpools/wasnorm_wordpool_576.txt	LTP260	ltpFR2	16	8	SERVANT	1271	n/a	n/a	0	0	0
1493560	WORD	wordpools/wasnorm_wordpool_576.txt	LTP260	ltpFR2	16	8	HAMPER	682	n/a	n/a	0	0	0
1496102	WORD	wordpools/wasnorm_wordpool_576.txt	LTP260	ltpFR2	16	8	BOUQUET	157	n/a	n/a	0	0	0
1498712	WORD	wordpools/wasnorm_wordpool_576.txt	LTP260	ltpFR2	16	8	MOTOR	922	n/a	n/a	0	0	0
1500319	START	n/a	LTP260	ltpFR2	16	n/a	n/a	n/a	11	n/a	n/a	n/a	n/a
1501131	DISTRACTOR	n/a	LTP260	ltpFR2	16	8	n/a	n/a	n/a	n/a	0	0	0
1501149	PROB	n/a	LTP260	ltpFR2	16	n/a	n/a	n/a	11	21	9	7	5
1503475	PROB	n/a	LTP260	ltpFR2	16	n/a	n/a	n/a	11	16	4	4	8
1505014	PROB	n/a	LTP260	ltpFR2	16	n/a	n/a	n/a	11	22	8	7	7
1506475	PROB	n/a	LTP260	ltpFR2	16	n/a	n/a	n/a	11	13	7	5	1
1508265	PROB	n/a	LTP260	ltpFR2	16	n/a	n/a	n/a	11	15	4	4	7
1509815	PROB	n/a	LTP260	ltpFR2	16	n/a	n/a	n/a	11	18	6	9	3
1511655	PROB	n/a	LTP260	ltpFR2	16	n/a	n/a	n/a	11	23	9	9	5
1512977	PROB	n/a	LTP260	ltpFR2	16	n/a	n/a	n/a	11	7	3	1	3
1514500	PROB	n/a	LTP260	ltpFR2	16	n/a	n/a	n/a	11	8	4	3	1
1516144	PROB	n/a	LTP260	ltpFR2	16	n/a	n/a	n/a	11	18	6	6	6
1518949	PROB	n/a	LTP260	ltpFR2	16	n/a	n/a	n/a	11	24	9	7	8
1520946	PROB	n/a	LTP260	ltpFR2	16	n/a	n/a	n/a	11	15	4	2	9
1522988	STOP	n/a	LTP260	ltpFR2	16	n/a	n/a	n/a	11	n/a	n/a	n/a	n/a
1526194	REC_START	n/a	LTP260	ltpFR2	16	8	n/a	n/a	n/a	n/a	0	0	0
1528012	REC_WORD	wordpools/wasnorm_wordpool_576.txt	LTP260	ltpFR2	16	8	LEOPARD	812	n/a	n/a	0	0	0
1529161	REC_WORD	wordpools/wasnorm_wordpool_576.txt	LTP260	ltpFR2	16	8	FARMER	553	n/a	n/a	0	0	0
1529958	REC_WORD	wordpools/wasnorm_wordpool_576.txt	LTP260	ltpFR2	16	8	SERVANT	1271	n/a	n/a	0	0	0
1531393	REC_WORD	wordpools/wasnorm_wordpool_576.txt	LTP260	ltpFR2	16	8	PUDDLE	1140	n/a	n/a	0	0	0
1532096	REC_WORD	wordpools/wasnorm_wordpool_576.txt	LTP260	ltpFR2	16	8	GROUND	666	n/a	n/a	0	0	0
1532899	REC_WORD	wordpools/wasnorm_wordpool_576.txt	LTP260	ltpFR2	16	8	IGLOO	734	n/a	n/a	0	0	0
1535067	REC_WORD	wordpools/wasnorm_wordpool_576.txt	LTP260	ltpFR2	16	8	STOVE	1388	n/a	n/a	0	0	0
1535982	REC_WORD	wordpools/wasnorm_wordpool_576.txt	LTP260	ltpFR2	16	8	HAMPER	682	n/a	n/a	0	0	0
1537124	REC_WORD	wordpools/wasnorm_wordpool_576.txt	LTP260	ltpFR2	16	8	BOUQUET	157	n/a	n/a	0	0	0
1544082	REC_WORD	wordpools/wasnorm_wordpool_576.txt	LTP260	ltpFR2	16	8	WOMAN	1620	n/a	n/a	0	0	0
1547458	REC_WORD	wordpools/wasnorm_wordpool_576.txt	LTP260	ltpFR2	16	8	SISTER	1312	n/a	n/a	0	0	0
1550217	REC_WORD	wordpools/wasnorm_wordpool_576.txt	LTP260	ltpFR2	16	8	DAUGHTER	442	n/a	n/a	0	0	0
1550944	REC_WORD	wordpools/wasnorm_wordpool_576.txt	LTP260	ltpFR2	16	8	CHILD	299	n/a	n/a	0	0	0
1553505	REC_WORD	wordpools/wasnorm_wordpool_576.txt	LTP260	ltpFR2	16	8	SIBLING	1301	n/a	n/a	0	0	0
1560049	REC_WORD	wordpools/wasnorm_wordpool_576.txt	LTP260	ltpFR2	16	8	EXPERT	543	n/a	n/a	0	0	0
1561013	REC_WORD	wordpools/wasnorm_wordpool_576.txt	LTP260	ltpFR2	16	8	ARM	38	n/a	n/a	0	0	0
1561583	REC_WORD	wordpools/wasnorm_wordpool_576.txt	LTP260	ltpFR2	16	8	SHOULDER	1294	n/a	n/a	0	0	0
1562358	REC_WORD	wordpools/wasnorm_wordpool_576.txt	LTP260	ltpFR2	16	8	GREASE	660	n/a	n/a	0	0	0
1562948	REC_WORD	wordpools/wasnorm_wordpool_576.txt	LTP260	ltpFR2	16	8	OINTMENT	974	n/a	n/a	0	0	0
1564401	REC_WORD	wordpools/wasnorm_wordpool_576.txt	LTP260	ltpFR2	16	8	BUGGY	188	n/a	n/a	0	0	0
1565248	REC_WORD	wordpools/wasnorm_wordpool_576.txt	LTP260	ltpFR2	16	8	MOTOR	922	n/a	n/a	0	0	0
1567851	REC_WORD	wordpools/wasnorm_wordpool_576.txt	LTP260	ltpFR2	16	8	BISON	131	n/a	n/a	0	0	0
1570098	REC_WORD	wordpools/wasnorm_wordpool_576.txt	LTP260	ltpFR2	16	8	CATTLE	261	n/a	n/a	0	0	0
1598401	REC_WORD	wordpools/wasnorm_wordpool_576.txt	LTP260	ltpFR2	16	8	EXPERT	543	n/a	n/a	0	0	0
1602966	REST_REWET	n/a	LTP260	ltpFR2	16	8	n/a	n/a	n/a	n/a	0	0	0
2257103	WORD	wordpools/wasnorm_wordpool_576.txt	LTP260	ltpFR2	16	9	TOASTER	1472	n/a	n/a	0	0	0
2259530	WORD	wordpools/wasnorm_wordpool_576.txt	LTP260	ltpFR2	16	9	LUNCH	849	n/a	n/a	0	0	0
2262172	WORD	wordpools/wasnorm_wordpool_576.txt	LTP260	ltpFR2	16	9	LION	827	n/a	n/a	0	0	0
2264983	WORD	wordpools/wasnorm_wordpool_576.txt	LTP260	ltpFR2	16	9	NOTEBOOK	959	n/a	n/a	0	0	0
2267654	WORD	wordpools/wasnorm_wordpool_576.txt	LTP260	ltpFR2	16	9	FOREST	593	n/a	n/a	0	0	0
2270416	WORD	wordpools/wasnorm_wordpool_576.txt	LTP260	ltpFR2	16	9	BRANDY	169	n/a	n/a	0	0	0
2272930	WORD	wordpools/wasnorm_wordpool_576.txt	LTP260	ltpFR2	16	9	CRAYON	401	n/a	n/a	0	0	0
2275569	WORD	wordpools/wasnorm_wordpool_576.txt	LTP260	ltpFR2	16	9	POISON	1096	n/a	n/a	0	0	0
2278177	WORD	wordpools/wasnorm_wordpool_576.txt	LTP260	ltpFR2	16	9	WIDOW	1608	n/a	n/a	0	0	0
2280910	WORD	wordpools/wasnorm_wordpool_576.txt	LTP260	ltpFR2	16	9	DENTIST	447	n/a	n/a	0	0	0
2283637	WORD	wordpools/wasnorm_wordpool_576.txt	LTP260	ltpFR2	16	9	HUSBAND	728	n/a	n/a	0	0	0
2286174	WORD	wordpools/wasnorm_wordpool_576.txt	LTP260	ltpFR2	16	9	LAKE	796	n/a	n/a	0	0	0
2288756	WORD	wordpools/wasnorm_wordpool_576.txt	LTP260	ltpFR2	16	9	CREVICE	405	n/a	n/a	0	0	0
2291546	WORD	wordpools/wasnorm_wordpool_576.txt	LTP260	ltpFR2	16	9	SMOG	1330	n/a	n/a	0	0	0
2294043	WORD	wordpools/wasnorm_wordpool_576.txt	LTP260	ltpFR2	16	9	COD	340	n/a	n/a	0	0	0
2296520	WORD	wordpools/wasnorm_wordpool_576.txt	LTP260	ltpFR2	16	9	CRAB	397	n/a	n/a	0	0	0
2298961	WORD	wordpools/wasnorm_wordpool_576.txt	LTP260	ltpFR2	16	9	APRON	35	n/a	n/a	0	0	0
2301550	WORD	wordpools/wasnorm_wordpool_576.txt	LTP260	ltpFR2	16	9	BRANCH	168	n/a	n/a	0	0	0
2304114	WORD	wordpools/wasnorm_wordpool_576.txt	LTP260	ltpFR2	16	9	SHRUB	1299	n/a	n/a	0	0	0
2306635	WORD	wordpools/wasnorm_wordpool_576.txt	LTP260	ltpFR2	16	9	BUNNY	198	n/a	n/a	0	0	0
2309149	WORD	wordpools/wasnorm_wordpool_576.txt	LTP260	ltpFR2	16	9	BEAST	108	n/a	n/a	0	0	0
2311771	WORD	wordpools/wasnorm_wordpool_576.txt	LTP260	ltpFR2	16	9	MUFFIN	929	n/a	n/a	0	0	0
2314270	WORD	wordpools/wasnorm_wordpool_576.txt	LTP260	ltpFR2	16	9	OX	994	n/a	n/a	0	0	0
2316962	WORD	wordpools/wasnorm_wordpool_576.txt	LTP260	ltpFR2	16	9	CORAL	378	n/a	n/a	0	0	0
2318570	START	n/a	LTP260	ltpFR2	16	n/a	n/a	n/a	12	n/a	n/a	n/a	n/a
2319686	DISTRACTOR	n/a	LTP260	ltpFR2	16	9	n/a	n/a	n/a	n/a	0	0	0
2319701	PROB	n/a	LTP260	ltpFR2	16	n/a	n/a	n/a	12	18	6	9	3
2321296	PROB	n/a	LTP260	ltpFR2	16	n/a	n/a	n/a	12	14	5	2	7
2322768	PROB	n/a	LTP260	ltpFR2	16	n/a	n/a	n/a	12	23	9	8	6
2325009	PROB	n/a	LTP260	ltpFR2	16	n/a	n/a	n/a	12	18	6	5	7
2327078	PROB	n/a	LTP260	ltpFR2	16	n/a	n/a	n/a	12	14	2	4	8
2329343	PROB	n/a	LTP260	ltpFR2	16	n/a	n/a	n/a	12	17	9	6	2
2331362	PROB	n/a	LTP260	ltpFR2	16	n/a	n/a	n/a	12	12	5	5	2
2332472	PROB	n/a	LTP260	ltpFR2	16	n/a	n/a	n/a	12	14	8	3	3
2333742	PROB	n/a	LTP260	ltpFR2	16	n/a	n/a	n/a	12	16	4	7	5
2335528	PROB	n/a	LTP260	ltpFR2	16	n/a	n/a	n/a	12	13	9	1	4
2336765	PROB	n/a	LTP260	ltpFR2	16	n/a	n/a	n/a	12	22	8	6	8
2342570	STOP	n/a	LTP260	ltpFR2	16	n/a	n/a	n/a	12	n/a	n/a	n/a	n/a
2344395	REC_START	n/a	LTP260	ltpFR2	16	9	n/a	n/a	n/a	n/a	0	0	0
2346452	REC_WORD	wordpools/wasnorm_wordpool_576.txt	LTP260	ltpFR2	16	9	FOREST	593	n/a	n/a	0	0	0
2348006	REC_WORD	wordpools/wasnorm_wordpool_576.txt	LTP260	ltpFR2	16	9	LAKE	796	n/a	n/a	0	0	0
2348890	REC_WORD	wordpools/wasnorm_wordpool_576.txt	LTP260	ltpFR2	16	9	HUSBAND	728	n/a	n/a	0	0	0
2350100	REC_WORD	wordpools/wasnorm_wordpool_576.txt	LTP260	ltpFR2	16	9	DENTIST	447	n/a	n/a	0	0	0
2351180	REC_WORD	wordpools/wasnorm_wordpool_576.txt	LTP260	ltpFR2	16	9	POISON	1096	n/a	n/a	0	0	0
2353130	REC_WORD	wordpools/wasnorm_wordpool_576.txt	LTP260	ltpFR2	16	9	COD	340	n/a	n/a	0	0	0
2353998	REC_WORD	wordpools/wasnorm_wordpool_576.txt	LTP260	ltpFR2	16	9	CRAB	397	n/a	n/a	0	0	0
2356436	REC_WORD	wordpools/wasnorm_wordpool_576.txt	LTP260	ltpFR2	16	9	CREVICE	405	n/a	n/a	0	0	0
2357245	REC_WORD	wordpools/wasnorm_wordpool_576.txt	LTP260	ltpFR2	16	9	SMOG	1330	n/a	n/a	0	0	0
2361368	REC_WORD	wordpools/wasnorm_wordpool_576.txt	LTP260	ltpFR2	16	9	SHRUB	1299	n/a	n/a	0	0	0
2362259	REC_WORD	wordpools/wasnorm_wordpool_576.txt	LTP260	ltpFR2	16	9	BRANCH	168	n/a	n/a	0	0	0
2365617	REC_WORD	wordpools/wasnorm_wordpool_576.txt	LTP260	ltpFR2	16	9	WIDOW	1608	n/a	n/a	0	0	0
2366700	REC_WORD	wordpools/wasnorm_wordpool_576.txt	LTP260	ltpFR2	16	9	APRON	35	n/a	n/a	0	0	0
2367997	REC_WORD	wordpools/wasnorm_wordpool_576.txt	LTP260	ltpFR2	16	9	LUNCH	849	n/a	n/a	0	0	0
2369012	REC_WORD	wordpools/wasnorm_wordpool_576.txt	LTP260	ltpFR2	16	9	TOASTER	1472	n/a	n/a	0	0	0
2371295	REC_WORD	wordpools/wasnorm_wordpool_576.txt	LTP260	ltpFR2	16	9	MUFFIN	929	n/a	n/a	0	0	0
2372609	REC_WORD	wordpools/wasnorm_wordpool_576.txt	LTP260	ltpFR2	16	9	BRANDY	169	n/a	n/a	0	0	0
2374474	REC_WORD	wordpools/wasnorm_wordpool_576.txt	LTP260	ltpFR2	16	9	NOTEBOOK	959	n/a	n/a	0	0	0
2375812	REC_WORD	wordpools/wasnorm_wordpool_576.txt	LTP260	ltpFR2	16	9	BEAST	108	n/a	n/a	0	0	0
2377230	REC_WORD	wordpools/wasnorm_wordpool_576.txt	LTP260	ltpFR2	16	9	BUNNY	198	n/a	n/a	0	0	0
2378623	REC_WORD	wordpools/wasnorm_wordpool_576.txt	LTP260	ltpFR2	16	9	OX	994	n/a	n/a	0	0	0
2380668	REC_WORD	wordpools/wasnorm_wordpool_576.txt	LTP260	ltpFR2	16	9	LION	827	n/a	n/a	0	0	0
2415004	REC_WORD	wordpools/wasnorm_wordpool_576.txt	LTP260	ltpFR2	16	9	CRAYON	401	n/a	n/a	0	0	0
2435426	DISTRACTOR	n/a	LTP260	ltpFR2	16	10	n/a	n/a	n/a	n/a	0	0	0
2435427	START	n/a	LTP260	ltpFR2	16	n/a	n/a	n/a	13	n/a	n/a	n/a	n/a
2435477	PROB	n/a	LTP260	ltpFR2	16	n/a	n/a	n/a	13	6	1	2	3
2436608	PROB	n/a	LTP260	ltpFR2	16	n/a	n/a	n/a	13	10	4	3	3
2438002	PROB	n/a	LTP260	ltpFR2	16	n/a	n/a	n/a	13	15	9	4	2
2439369	PROB	n/a	LTP260	ltpFR2	16	n/a	n/a	n/a	13	17	9	6	2
2441008	PROB	n/a	LTP260	ltpFR2	16	n/a	n/a	n/a	13	11	9	1	1
2441961	PROB	n/a	LTP260	ltpFR2	16	n/a	n/a	n/a	13	17	8	5	4
2443936	PROB	n/a	LTP260	ltpFR2	16	n/a	n/a	n/a	13	11	2	1	8
2445325	PROB	n/a	LTP260	ltpFR2	16	n/a	n/a	n/a	13	18	9	7	2
2447181	PROB	n/a	LTP260	ltpFR2	16	n/a	n/a	n/a	13	10	1	1	8
2448202	PROB	n/a	LTP260	ltpFR2	16	n/a	n/a	n/a	13	16	7	7	2
2449396	PROB	n/a	LTP260	ltpFR2	16	n/a	n/a	n/a	13	19	5	8	6
2450878	PROB	n/a	LTP260	ltpFR2	16	n/a	n/a	n/a	13	24	9	6	9
2452167	PROB	n/a	LTP260	ltpFR2	16	n/a	n/a	n/a	13	10	3	2	5
2453711	PROB	n/a	LTP260	ltpFR2	16	n/a	n/a	n/a	13	18	8	3	7
2454999	PROB	n/a	LTP260	ltpFR2	16	n/a	n/a	n/a	13	24	7	8	9
2456672	PROB	n/a	LTP260	ltpFR2	16	n/a	n/a	n/a	13	8	5	1	2
2457821	PROB	n/a	LTP260	ltpFR2	16	n/a	n/a	n/a	13	14	7	4	3
2458861	STOP	n/a	LTP260	ltpFR2	16	n/a	n/a	n/a	13	n/a	n/a	n/a	n/a
2460488	WORD	wordpools/wasnorm_wordpool_576.txt	LTP260	ltpFR2	16	10	FIREMAN	569	n/a	n/a	0	0	0
2462963	WORD	wordpools/wasnorm_wordpool_576.txt	LTP260	ltpFR2	16	10	PANTHER	1009	n/a	n/a	0	0	0
2465389	WORD	wordpools/wasnorm_wordpool_576.txt	LTP260	ltpFR2	16	10	SNAIL	1332	n/a	n/a	0	0	0
2467915	WORD	wordpools/wasnorm_wordpool_576.txt	LTP260	ltpFR2	16	10	DRILL	497	n/a	n/a	0	0	0
2470675	WORD	wordpools/wasnorm_wordpool_576.txt	LTP260	ltpFR2	16	10	MASK	876	n/a	n/a	0	0	0
2473201	WORD	wordpools/wasnorm_wordpool_576.txt	LTP260	ltpFR2	16	10	CHAUFFEUR	283	n/a	n/a	0	0	0
2475761	WORD	wordpools/wasnorm_wordpool_576.txt	LTP260	ltpFR2	16	10	OUTDOORS	987	n/a	n/a	0	0	0
2478483	WORD	wordpools/wasnorm_wordpool_576.txt	LTP260	ltpFR2	16	10	PILOT	1070	n/a	n/a	0	0	0
2481248	WORD	wordpools/wasnorm_wordpool_576.txt	LTP260	ltpFR2	16	10	THREAD	1460	n/a	n/a	0	0	0
2483987	WORD	wordpools/wasnorm_wordpool_576.txt	LTP260	ltpFR2	16	10	GAZELLE	628	n/a	n/a	0	0	0
2486502	WORD	wordpools/wasnorm_wordpool_576.txt	LTP260	ltpFR2	16	10	KNAPSACK	783	n/a	n/a	0	0	0
2488994	WORD	wordpools/wasnorm_wordpool_576.txt	LTP260	ltpFR2	16	10	SUITCASE	1403	n/a	n/a	0	0	0
2491454	WORD	wordpools/wasnorm_wordpool_576.txt	LTP260	ltpFR2	16	10	GARBAGE	622	n/a	n/a	0	0	0
2494008	WORD	wordpools/wasnorm_wordpool_576.txt	LTP260	ltpFR2	16	10	BRAKE	166	n/a	n/a	0	0	0
2496835	WORD	wordpools/wasnorm_wordpool_576.txt	LTP260	ltpFR2	16	10	SPOOL	1356	n/a	n/a	0	0	0
2499584	WORD	wordpools/wasnorm_wordpool_576.txt	LTP260	ltpFR2	16	10	YARN	1631	n/a	n/a	0	0	0
2502362	WORD	wordpools/wasnorm_wordpool_576.txt	LTP260	ltpFR2	16	10	LASER	801	n/a	n/a	0	0	0
2504798	WORD	wordpools/wasnorm_wordpool_576.txt	LTP260	ltpFR2	16	10	CARROT	249	n/a	n/a	0	0	0
2507481	WORD	wordpools/wasnorm_wordpool_576.txt	LTP260	ltpFR2	16	10	POPCORN	1104	n/a	n/a	0	0	0
2510073	WORD	wordpools/wasnorm_wordpool_576.txt	LTP260	ltpFR2	16	10	GARLIC	624	n/a	n/a	0	0	0
2512829	WORD	wordpools/wasnorm_wordpool_576.txt	LTP260	ltpFR2	16	10	BASEMENT	94	n/a	n/a	0	0	0
2515344	WORD	wordpools/wasnorm_wordpool_576.txt	LTP260	ltpFR2	16	10	ANKLE	24	n/a	n/a	0	0	0
2517903	WORD	wordpools/wasnorm_wordpool_576.txt	LTP260	ltpFR2	16	10	PAPER	1011	n/a	n/a	0	0	0
2520564	WORD	wordpools/wasnorm_wordpool_576.txt	LTP260	ltpFR2	16	10	SLUG	1329	n/a	n/a	0	0	0
2522181	START	n/a	LTP260	ltpFR2	16	n/a	n/a	n/a	14	n/a	n/a	n/a	n/a
2522983	DISTRACTOR	n/a	LTP260	ltpFR2	16	10	n/a	n/a	n/a	n/a	0	0	0
2523000	PROB	n/a	LTP260	ltpFR2	16	n/a	n/a	n/a	14	19	9	7	3
2524406	PROB	n/a	LTP260	ltpFR2	16	n/a	n/a	n/a	14	14	7	2	5
2526999	PROB	n/a	LTP260	ltpFR2	16	n/a	n/a	n/a	14	14	3	5	6
2528688	PROB	n/a	LTP260	ltpFR2	16	n/a	n/a	n/a	14	13	3	5	5
2529898	PROB	n/a	LTP260	ltpFR2	16	n/a	n/a	n/a	14	11	1	8	2
2530980	PROB	n/a	LTP260	ltpFR2	16	n/a	n/a	n/a	14	9	1	3	5
2532336	PROB	n/a	LTP260	ltpFR2	16	n/a	n/a	n/a	14	15	4	3	8
2534528	PROB	n/a	LTP260	ltpFR2	16	n/a	n/a	n/a	14	10	1	5	4
2536217	PROB	n/a	LTP260	ltpFR2	16	n/a	n/a	n/a	14	12	3	2	7
2537394	PROB	n/a	LTP260	ltpFR2	16	n/a	n/a	n/a	14	16	9	6	1
2538560	PROB	n/a	LTP260	ltpFR2	16	n/a	n/a	n/a	14	11	4	5	2
2539802	PROB	n/a	LTP260	ltpFR2	16	n/a	n/a	n/a	14	20	5	9	6
2541426	PROB	n/a	LTP260	ltpFR2	16	n/a	n/a	n/a	14	18	9	4	5
2542975	PROB	n/a	LTP260	ltpFR2	16	n/a	n/a	n/a	14	13	6	4	3
2544837	STOP	n/a	LTP260	ltpFR2	16	n/a	n/a	n/a	14	n/a	n/a	n/a	n/a
2547962	REC_START	n/a	LTP260	ltpFR2	16	10	n/a	n/a	n/a	n/a	0	0	0
2549608	REC_WORD	wordpools/wasnorm_wordpool_576.txt	LTP260	ltpFR2	16	10	SLUG	1329	n/a	n/a	0	0	0
2550547	REC_WORD	wordpools/wasnorm_wordpool_576.txt	LTP260	ltpFR2	16	10	SNAIL	1332	n/a	n/a	0	0	0
2551893	REC_WORD	wordpools/wasnorm_wordpool_576.txt	LTP260	ltpFR2	16	10	SPOOL	1356	n/a	n/a	0	0	0
2553078	REC_WORD	wordpools/wasnorm_wordpool_576.txt	LTP260	ltpFR2	16	10	YARN	1631	n/a	n/a	0	0	0
2553966	REC_WORD	wordpools/wasnorm_wordpool_576.txt	LTP260	ltpFR2	16	10	THREAD	1460	n/a	n/a	0	0	0
2557575	REC_WORD	wordpools/wasnorm_wordpool_576.txt	LTP260	ltpFR2	16	10	PILOT	1070	n/a	n/a	0	0	0
2558264	REC_WORD	wordpools/wasnorm_wordpool_576.txt	LTP260	ltpFR2	16	10	CHAUFFEUR	283	n/a	n/a	0	0	0
2559281	REC_WORD	wordpools/wasnorm_wordpool_576.txt	LTP260	ltpFR2	16	10	OUTDOORS	987	n/a	n/a	0	0	0
2560356	REC_WORD	wordpools/wasnorm_wordpool_576.txt	LTP260	ltpFR2	16	10	LUGGAGE	847	n/a	n/a	0	0	0
2561116	REC_WORD	wordpools/wasnorm_wordpool_576.txt	LTP260	ltpFR2	16	10	KNAPSACK	783	n/a	n/a	0	0	0
2562304	REC_WORD	wordpools/wasnorm_wordpool_576.txt	LTP260	ltpFR2	16	10	GARBAGE	622	n/a	n/a	0	0	0
2563604	REC_WORD	wordpools/wasnorm_wordpool_576.txt	LTP260	ltpFR2	16	10	PAPER	1011	n/a	n/a	0	0	0
2564370	REC_WORD	wordpools/wasnorm_wordpool_576.txt	LTP260	ltpFR2	16	10	POPCORN	1104	n/a	n/a	0	0	0
2566024	REC_WORD	wordpools/wasnorm_wordpool_576.txt	LTP260	ltpFR2	16	10	GARLIC	624	n/a	n/a	0	0	0
2573045	REC_WORD	wordpools/wasnorm_wordpool_576.txt	LTP260	ltpFR2	16	10	FIREMAN	569	n/a	n/a	0	0	0
2574752	REC_WORD	wordpools/wasnorm_wordpool_576.txt	LTP260	ltpFR2	16	10	BASEMENT	94	n/a	n/a	0	0	0
2576501	REC_WORD	wordpools/wasnorm_wordpool_576.txt	LTP260	ltpFR2	16	10	DRILL	497	n/a	n/a	0	0	0
2577237	REC_WORD	wordpools/wasnorm_wordpool_576.txt	LTP260	ltpFR2	16	10	LASER	801	n/a	n/a	0	0	0
2578398	REC_WORD	wordpools/wasnorm_wordpool_576.txt	LTP260	ltpFR2	16	10	ANKLE	24	n/a	n/a	0	0	0
2579656	REC_WORD	wordpools/wasnorm_wordpool_576.txt	LTP260	ltpFR2	16	10	PANTHER	1009	n/a	n/a	0	0	0
2580550	REC_WORD	wordpools/wasnorm_wordpool_576.txt	LTP260	ltpFR2	16	10	GAZELLE	628	n/a	n/a	0	0	0
2611029	REC_WORD	wordpools/wasnorm_wordpool_576.txt	LTP260	ltpFR2	16	10	OUTDOORS	987	n/a	n/a	0	0	0
2638993	WORD	wordpools/wasnorm_wordpool_576.txt	LTP260	ltpFR2	16	11	HORNET	718	n/a	n/a	0	0	0
2641669	WORD	wordpools/wasnorm_wordpool_576.txt	LTP260	ltpFR2	16	11	BALLOON	75	n/a	n/a	0	0	0
2644381	WORD	wordpools/wasnorm_wordpool_576.txt	LTP260	ltpFR2	16	11	HANDBAG	684	n/a	n/a	0	0	0
2646834	WORD	wordpools/wasnorm_wordpool_576.txt	LTP260	ltpFR2	16	11	SILK	1307	n/a	n/a	0	0	0
2649433	WORD	wordpools/wasnorm_wordpool_576.txt	LTP260	ltpFR2	16	11	RACKET	1155	n/a	n/a	0	0	0
2652087	WORD	wordpools/wasnorm_wordpool_576.txt	LTP260	ltpFR2	16	11	MATCH	878	n/a	n/a	0	0	0
2654552	WORD	wordpools/wasnorm_wordpool_576.txt	LTP260	ltpFR2	16	11	FRAGRANCE	599	n/a	n/a	0	0	0
2657291	WORD	wordpools/wasnorm_wordpool_576.txt	LTP260	ltpFR2	16	11	SAUSAGE	1238	n/a	n/a	0	0	0
2660022	WORD	wordpools/wasnorm_wordpool_576.txt	LTP260	ltpFR2	16	11	CIGAR	308	n/a	n/a	0	0	0
2662782	WORD	wordpools/wasnorm_wordpool_576.txt	LTP260	ltpFR2	16	11	BOYFRIEND	162	n/a	n/a	0	0	0
2665293	WORD	wordpools/wasnorm_wordpool_576.txt	LTP260	ltpFR2	16	11	PARTNER	1017	n/a	n/a	0	0	0
2667997	WORD	wordpools/wasnorm_wordpool_576.txt	LTP260	ltpFR2	16	11	STAR	1373	n/a	n/a	0	0	0
2670496	WORD	wordpools/wasnorm_wordpool_576.txt	LTP260	ltpFR2	16	11	SUBWAY	1400	n/a	n/a	0	0	0
2673071	WORD	wordpools/wasnorm_wordpool_576.txt	LTP260	ltpFR2	16	11	FRECKLE	602	n/a	n/a	0	0	0
2675664	WORD	wordpools/wasnorm_wordpool_576.txt	LTP260	ltpFR2	16	11	JELLY	755	n/a	n/a	0	0	0
2678107	WORD	wordpools/wasnorm_wordpool_576.txt	LTP260	ltpFR2	16	11	EMPIRE	530	n/a	n/a	0	0	0
2680884	WORD	wordpools/wasnorm_wordpool_576.txt	LTP260	ltpFR2	16	11	PAIL	1002	n/a	n/a	0	0	0
2683411	WORD	wordpools/wasnorm_wordpool_576.txt	LTP260	ltpFR2	16	11	PEDAL	1037	n/a	n/a	0	0	0
2685853	WORD	wordpools/wasnorm_wordpool_576.txt	LTP260	ltpFR2	16	11	CAMEL	223	n/a	n/a	0	0	0
2688608	WORD	wordpools/wasnorm_wordpool_576.txt	LTP260	ltpFR2	16	11	CASHIER	254	n/a	n/a	0	0	0
2691106	WORD	wordpools/wasnorm_wordpool_576.txt	LTP260	ltpFR2	16	11	BANKER	84	n/a	n/a	0	0	0
2693665	WORD	wordpools/wasnorm_wordpool_576.txt	LTP260	ltpFR2	16	11	BEEF	113	n/a	n/a	0	0	0
2696405	WORD	wordpools/wasnorm_wordpool_576.txt	LTP260	ltpFR2	16	11	PEACH	1031	n/a	n/a	0	0	0
2699047	WORD	wordpools/wasnorm_wordpool_576.txt	LTP260	ltpFR2	16	11	BUBBLE	183	n/a	n/a	0	0	0
2700659	START	n/a	LTP260	ltpFR2	16	n/a	n/a	n/a	15	n/a	n/a	n/a	n/a
2701736	DISTRACTOR	n/a	LTP260	ltpFR2	16	11	n/a	n/a	n/a	n/a	0	0	0
2701746	PROB	n/a	LTP260	ltpFR2	16	n/a	n/a	n/a	15	15	9	5	1
2704301	PROB	n/a	LTP260	ltpFR2	16	n/a	n/a	n/a	15	8	1	6	1
2705594	PROB	n/a	LTP260	ltpFR2	16	n/a	n/a	n/a	15	22	8	7	7
2706994	PROB	n/a	LTP260	ltpFR2	16	n/a	n/a	n/a	15	21	7	7	7
2708232	PROB	n/a	LTP260	ltpFR2	16	n/a	n/a	n/a	15	11	4	3	4
2710724	PROB	n/a	LTP260	ltpFR2	16	n/a	n/a	n/a	15	17	1	7	9
2712197	PROB	n/a	LTP260	ltpFR2	16	n/a	n/a	n/a	15	11	4	5	2
2713553	PROB	n/a	LTP260	ltpFR2	16	n/a	n/a	n/a	15	15	1	5	9
2714812	PROB	n/a	LTP260	ltpFR2	16	n/a	n/a	n/a	15	15	4	4	7
2716150	PROB	n/a	LTP260	ltpFR2	16	n/a	n/a	n/a	15	12	2	3	7
2717568	PROB	n/a	LTP260	ltpFR2	16	n/a	n/a	n/a	15	14	2	9	3
2719257	PROB	n/a	LTP260	ltpFR2	16	n/a	n/a	n/a	15	21	7	8	6
2721197	PROB	n/a	LTP260	ltpFR2	16	n/a	n/a	n/a	15	16	8	5	3
2722853	PROB	n/a	LTP260	ltpFR2	16	n/a	n/a	n/a	15	6	2	3	1
2723933	STOP	n/a	LTP260	ltpFR2	16	n/a	n/a	n/a	15	n/a	n/a	n/a	n/a
2726541	REC_START	n/a	LTP260	ltpFR2	16	11	n/a	n/a	n/a	n/a	0	0	0
2728530	REC_WORD	wordpools/wasnorm_wordpool_576.txt	LTP260	ltpFR2	16	11	EMPIRE	530	n/a	n/a	0	0	0
2729807	REC_WORD	wordpools/wasnorm_wordpool_576.txt	LTP260	ltpFR2	16	11	CAMEL	223	n/a	n/a	0	0	0
2730918	REC_WORD	wordpools/wasnorm_wordpool_576.txt	LTP260	ltpFR2	16	11	SUBWAY	1400	n/a	n/a	0	0	0
2732211	REC_WORD	wordpools/wasnorm_wordpool_576.txt	LTP260	ltpFR2	16	11	STAR	1373	n/a	n/a	0	0	0
2734238	REC_WORD	wordpools/wasnorm_wordpool_576.txt	LTP260	ltpFR2	16	11	CASHIER	254	n/a	n/a	0	0	0
2735696	REC_WORD	wordpools/wasnorm_wordpool_576.txt	LTP260	ltpFR2	16	11	BANKER	84	n/a	n/a	0	0	0
2736934	REC_WORD	wordpools/wasnorm_wordpool_576.txt	LTP260	ltpFR2	16	11	BOYFRIEND	162	n/a	n/a	0	0	0
2739121	REC_WORD	wordpools/wasnorm_wordpool_576.txt	LTP260	ltpFR2	16	11	CIGAR	308	n/a	n/a	0	0	0
2740317	REC_WORD	wordpools/wasnorm_wordpool_576.txt	LTP260	ltpFR2	16	11	PAIL	1002	n/a	n/a	0	0	0
2742775	REC_WORD	wordpools/wasnorm_wordpool_576.txt	LTP260	ltpFR2	16	11	RACKET	1155	n/a	n/a	0	0	0
2744239	REC_WORD	wordpools/wasnorm_wordpool_576.txt	LTP260	ltpFR2	16	11	SAUSAGE	1238	n/a	n/a	0	0	0
2745253	REC_WORD	wordpools/wasnorm_wordpool_576.txt	LTP260	ltpFR2	16	11	BEEF	113	n/a	n/a	0	0	0
2746444	REC_WORD	wordpools/wasnorm_wordpool_576.txt	LTP260	ltpFR2	16	11	PARTNER	1017	n/a	n/a	0	0	0
2748477	REC_WORD	wordpools/wasnorm_wordpool_576.txt	LTP260	ltpFR2	16	11	PEACH	1031	n/a	n/a	0	0	0
2749625	REC_WORD	wordpools/wasnorm_wordpool_576.txt	LTP260	ltpFR2	16	11	HANDBAG	684	n/a	n/a	0	0	0
2750691	REC_WORD	wordpools/wasnorm_wordpool_576.txt	LTP260	ltpFR2	16	11	SILK	1307	n/a	n/a	0	0	0
2751897	REC_WORD	wordpools/wasnorm_wordpool_576.txt	LTP260	ltpFR2	16	11	MATCH	878	n/a	n/a	0	0	0
2753231	REC_WORD	wordpools/wasnorm_wordpool_576.txt	LTP260	ltpFR2	16	11	BALLOON	75	n/a	n/a	0	0	0
2754064	REC_WORD	wordpools/wasnorm_wordpool_576.txt	LTP260	ltpFR2	16	11	HORNET	718	n/a	n/a	0	0	0
2817594	DISTRACTOR	n/a	LTP260	ltpFR2	16	12	n/a	n/a	n/a	n/a	0	0	0
2817594	START	n/a	LTP260	ltpFR2	16	n/a	n/a	n/a	16	n/a	n/a	n/a	n/a
2817649	PROB	n/a	LTP260	ltpFR2	16	n/a	n/a	n/a	16	15	3	6	6
2818932	PROB	n/a	LTP260	ltpFR2	16	n/a	n/a	n/a	16	9	6	1	2
2820086	PROB	n/a	LTP260	ltpFR2	16	n/a	n/a	n/a	16	13	2	5	6
2821760	PROB	n/a	LTP260	ltpFR2	16	n/a	n/a	n/a	16	11	1	6	4
2822847	PROB	n/a	LTP260	ltpFR2	16	n/a	n/a	n/a	16	12	2	3	7
2824224	PROB	n/a	LTP260	ltpFR2	16	n/a	n/a	n/a	16	11	5	5	1
2825256	PROB	n/a	LTP260	ltpFR2	16	n/a	n/a	n/a	16	13	5	4	4
2827029	PROB	n/a	LTP260	ltpFR2	16	n/a	n/a	n/a	16	5	2	1	2
2828089	PROB	n/a	LTP260	ltpFR2	16	n/a	n/a	n/a	16	21	4	9	8
2829807	PROB	n/a	LTP260	ltpFR2	16	n/a	n/a	n/a	16	15	3	7	5
2831397	PROB	n/a	LTP260	ltpFR2	16	n/a	n/a	n/a	16	9	2	4	3
2833438	PROB	n/a	LTP260	ltpFR2	16	n/a	n/a	n/a	16	15	4	5	6
2835879	PROB	n/a	LTP260	ltpFR2	16	n/a	n/a	n/a	16	10	4	5	1
2837051	PROB	n/a	LTP260	ltpFR2	16	n/a	n/a	n/a	16	17	4	5	8
2838657	PROB	n/a	LTP260	ltpFR2	16	n/a	n/a	n/a	16	19	6	5	8
2840310	STOP	n/a	LTP260	ltpFR2	16	n/a	n/a	n/a	16	n/a	n/a	n/a	n/a
2842655	WORD	wordpools/wasnorm_wordpool_576.txt	LTP260	ltpFR2	16	12	BATHTUB	100	n/a	n/a	0	0	0
2845253	WORD	wordpools/wasnorm_wordpool_576.txt	LTP260	ltpFR2	16	12	JELLO	754	n/a	n/a	0	0	0
2847947	WORD	wordpools/wasnorm_wordpool_576.txt	LTP260	ltpFR2	16	12	PASTRY	1022	n/a	n/a	0	0	0
2850407	WORD	wordpools/wasnorm_wordpool_576.txt	LTP260	ltpFR2	16	12	DOUGHNUT	490	n/a	n/a	0	0	0
2853167	WORD	wordpools/wasnorm_wordpool_576.txt	LTP260	ltpFR2	16	12	SUNSET	1408	n/a	n/a	0	0	0
2855643	WORD	wordpools/wasnorm_wordpool_576.txt	LTP260	ltpFR2	16	12	SWORD	1423	n/a	n/a	0	0	0
2858130	WORD	wordpools/wasnorm_wordpool_576.txt	LTP260	ltpFR2	16	12	SODA	1341	n/a	n/a	0	0	0
2860656	WORD	wordpools/wasnorm_wordpool_576.txt	LTP260	ltpFR2	16	12	SKETCH	1315	n/a	n/a	0	0	0
2863351	WORD	wordpools/wasnorm_wordpool_576.txt	LTP260	ltpFR2	16	12	PICTURE	1061	n/a	n/a	0	0	0
2865982	WORD	wordpools/wasnorm_wordpool_576.txt	LTP260	ltpFR2	16	12	SIDEWALK	1303	n/a	n/a	0	0	0
2868542	WORD	wordpools/wasnorm_wordpool_576.txt	LTP260	ltpFR2	16	12	QUEEN	1149	n/a	n/a	0	0	0
2871364	WORD	wordpools/wasnorm_wordpool_576.txt	LTP260	ltpFR2	16	12	BLENDER	136	n/a	n/a	0	0	0
2873844	WORD	wordpools/wasnorm_wordpool_576.txt	LTP260	ltpFR2	16	12	POSSUM	1112	n/a	n/a	0	0	0
2876622	WORD	wordpools/wasnorm_wordpool_576.txt	LTP260	ltpFR2	16	12	GIRL	637	n/a	n/a	0	0	0
2879181	WORD	wordpools/wasnorm_wordpool_576.txt	LTP260	ltpFR2	16	12	DRAGON	492	n/a	n/a	0	0	0
2881908	WORD	wordpools/wasnorm_wordpool_576.txt	LTP260	ltpFR2	16	12	LAPEL	800	n/a	n/a	0	0	0
2884514	WORD	wordpools/wasnorm_wordpool_576.txt	LTP260	ltpFR2	16	12	HIGHWAY	707	n/a	n/a	0	0	0
2887228	WORD	wordpools/wasnorm_wordpool_576.txt	LTP260	ltpFR2	16	12	DUSTPAN	509	n/a	n/a	0	0	0
2889721	WORD	wordpools/wasnorm_wordpool_576.txt	LTP260	ltpFR2	16	12	HEDGE	699	n/a	n/a	0	0	0
2892360	WORD	wordpools/wasnorm_wordpool_576.txt	LTP260	ltpFR2	16	12	ROBIN	1199	n/a	n/a	0	0	0
2894857	WORD	wordpools/wasnorm_wordpool_576.txt	LTP260	ltpFR2	16	12	SLIDE	1326	n/a	n/a	0	0	0
2897546	WORD	wordpools/wasnorm_wordpool_576.txt	LTP260	ltpFR2	16	12	DIVER	476	n/a	n/a	0	0	0
2900043	WORD	wordpools/wasnorm_wordpool_576.txt	LTP260	ltpFR2	16	12	TWIG	1527	n/a	n/a	0	0	0
2902653	WORD	wordpools/wasnorm_wordpool_576.txt	LTP260	ltpFR2	16	12	PEPPER	1047	n/a	n/a	0	0	0
2904260	START	n/a	LTP260	ltpFR2	16	n/a	n/a	n/a	17	n/a	n/a	n/a	n/a
2905182	DISTRACTOR	n/a	LTP260	ltpFR2	16	12	n/a	n/a	n/a	n/a	0	0	0
2905196	PROB	n/a	LTP260	ltpFR2	16	n/a	n/a	n/a	17	13	9	2	2
2906718	PROB	n/a	LTP260	ltpFR2	16	n/a	n/a	n/a	17	21	8	7	6
2908871	PROB	n/a	LTP260	ltpFR2	16	n/a	n/a	n/a	17	17	6	4	7
2910328	PROB	n/a	LTP260	ltpFR2	16	n/a	n/a	n/a	17	8	3	2	3
2911615	PROB	n/a	LTP260	ltpFR2	16	n/a	n/a	n/a	17	19	6	5	8
2913104	PROB	n/a	LTP260	ltpFR2	16	n/a	n/a	n/a	17	20	8	4	8
2914410	PROB	n/a	LTP260	ltpFR2	16	n/a	n/a	n/a	17	14	6	7	1
2915898	PROB	n/a	LTP260	ltpFR2	16	n/a	n/a	n/a	17	18	8	1	9
2917136	PROB	n/a	LTP260	ltpFR2	16	n/a	n/a	n/a	17	8	3	2	3
2918564	PROB	n/a	LTP260	ltpFR2	16	n/a	n/a	n/a	17	13	8	4	1
2919762	PROB	n/a	LTP260	ltpFR2	16	n/a	n/a	n/a	17	9	1	7	1
2921084	PROB	n/a	LTP260	ltpFR2	16	n/a	n/a	n/a	17	10	4	1	5
2922311	PROB	n/a	LTP260	ltpFR2	16	n/a	n/a	n/a	17	19	3	9	7
2924034	PROB	n/a	LTP260	ltpFR2	16	n/a	n/a	n/a	17	13	8	4	1
2925273	PROB	n/a	LTP260	ltpFR2	16	n/a	n/a	n/a	17	12	5	5	2
2926343	PROB	n/a	LTP260	ltpFR2	16	n/a	n/a	n/a	17	10	3	5	2
2928037	STOP	n/a	LTP260	ltpFR2	16	n/a	n/a	n/a	17	n/a	n/a	n/a	n/a
2930208	REC_START	n/a	LTP260	ltpFR2	16	12	n/a	n/a	n/a	n/a	0	0	0
2931124	REC_WORD	wordpools/wasnorm_wordpool_576.txt	LTP260	ltpFR2	16	12	PEPPER	1047	n/a	n/a	0	0	0
2931860	REC_WORD	wordpools/wasnorm_wordpool_576.txt	LTP260	ltpFR2	16	12	SLIDE	1326	n/a	n/a	0	0	0
2932838	REC_WORD	wordpools/wasnorm_wordpool_576.txt	LTP260	ltpFR2	16	12	HIGHWAY	707	n/a	n/a	0	0	0
2933838	REC_WORD	wordpools/wasnorm_wordpool_576.txt	LTP260	ltpFR2	16	12	SIDEWALK	1303	n/a	n/a	0	0	0
2934985	REC_WORD	wordpools/wasnorm_wordpool_576.txt	LTP260	ltpFR2	16	12	POSSUM	1112	n/a	n/a	0	0	0
2935903	REC_WORD	wordpools/wasnorm_wordpool_576.txt	LTP260	ltpFR2	16	12	DRAGON	492	n/a	n/a	0	0	0
2937211	REC_WORD	wordpools/wasnorm_wordpool_576.txt	LTP260	ltpFR2	16	12	LAPEL	800	n/a	n/a	0	0	0
2940485	REC_WORD	wordpools/wasnorm_wordpool_576.txt	LTP260	ltpFR2	16	12	BATHTUB	100	n/a	n/a	0	0	0
2942096	REC_WORD	wordpools/wasnorm_wordpool_576.txt	LTP260	ltpFR2	16	12	PICTURE	1061	n/a	n/a	0	0	0
2942827	REC_WORD	wordpools/wasnorm_wordpool_576.txt	LTP260	ltpFR2	16	12	SKETCH	1315	n/a	n/a	0	0	0
2943861	REC_WORD	wordpools/wasnorm_wordpool_576.txt	LTP260	ltpFR2	16	12	SUNSET	1408	n/a	n/a	0	0	0
2949305	REC_WORD	wordpools/wasnorm_wordpool_576.txt	LTP260	ltpFR2	16	12	JELLO	754	n/a	n/a	0	0	0
2949993	REC_WORD	wordpools/wasnorm_wordpool_576.txt	LTP260	ltpFR2	16	12	SODA	1341	n/a	n/a	0	0	0
2951295	REC_WORD	wordpools/wasnorm_wordpool_576.txt	LTP260	ltpFR2	16	12	DOUGHNUT	490	n/a	n/a	0	0	0
2952004	REC_WORD	wordpools/wasnorm_wordpool_576.txt	LTP260	ltpFR2	16	12	PASTRY	1022	n/a	n/a	0	0	0
2952904	REC_WORD	wordpools/wasnorm_wordpool_576.txt	LTP260	ltpFR2	16	12	QUEEN	1149	n/a	n/a	0	0	0
2953657	REC_WORD	wordpools/wasnorm_wordpool_576.txt	LTP260	ltpFR2	16	12	GIRL	637	n/a	n/a	0	0	0
2971320	REC_WORD	wordpools/wasnorm_wordpool_576.txt	LTP260	ltpFR2	16	12	TWIG	1527	n/a	n/a	0	0	0
3021233	DISTRACTOR	n/a	LTP260	ltpFR2	16	13	n/a	n/a	n/a	n/a	0	0	0
3021233	START	n/a	LTP260	ltpFR2	16	n/a	n/a	n/a	18	n/a	n/a	n/a	n/a
3021284	PROB	n/a	LTP260	ltpFR2	16	n/a	n/a	n/a	18	12	3	2	7
3022417	PROB	n/a	LTP260	ltpFR2	16	n/a	n/a	n/a	18	13	4	5	4
3023994	PROB	n/a	LTP260	ltpFR2	16	n/a	n/a	n/a	18	26	9	8	9
3025528	PROB	n/a	LTP260	ltpFR2	16	n/a	n/a	n/a	18	19	9	9	1
3027139	PROB	n/a	LTP260	ltpFR2	16	n/a	n/a	n/a	18	11	4	5	2
3028378	PROB	n/a	LTP260	ltpFR2	16	n/a	n/a	n/a	18	18	6	9	3
3029743	PROB	n/a	LTP260	ltpFR2	16	n/a	n/a	n/a	18	8	3	2	3
3030987	PROB	n/a	LTP260	ltpFR2	16	n/a	n/a	n/a	18	14	1	9	4
3032293	PROB	n/a	LTP260	ltpFR2	16	n/a	n/a	n/a	18	12	4	6	2
3033442	PROB	n/a	LTP260	ltpFR2	16	n/a	n/a	n/a	18	6	3	2	1
3034551	PROB	n/a	LTP260	ltpFR2	16	n/a	n/a	n/a	18	18	4	8	6
3035883	PROB	n/a	LTP260	ltpFR2	16	n/a	n/a	n/a	18	12	2	9	1
3037026	PROB	n/a	LTP260	ltpFR2	16	n/a	n/a	n/a	18	17	3	8	6
3038582	PROB	n/a	LTP260	ltpFR2	16	n/a	n/a	n/a	18	10	4	1	5
3039714	PROB	n/a	LTP260	ltpFR2	16	n/a	n/a	n/a	18	15	3	9	3
3041271	PROB	n/a	LTP260	ltpFR2	16	n/a	n/a	n/a	18	9	1	4	4
3042809	PROB	n/a	LTP260	ltpFR2	16	n/a	n/a	n/a	18	21	9	3	9
3044013	STOP	n/a	LTP260	ltpFR2	16	n/a	n/a	n/a	18	n/a	n/a	n/a	n/a
3046324	WORD	wordpools/wasnorm_wordpool_576.txt	LTP260	ltpFR2	16	13	JURY	766	n/a	n/a	0	0	0
3049116	WORD	wordpools/wasnorm_wordpool_576.txt	LTP260	ltpFR2	16	13	LAVA	804	n/a	n/a	0	0	0
3051748	WORD	wordpools/wasnorm_wordpool_576.txt	LTP260	ltpFR2	16	13	HOOD	714	n/a	n/a	0	0	0
3054202	WORD	wordpools/wasnorm_wordpool_576.txt	LTP260	ltpFR2	16	13	TURTLE	1522	n/a	n/a	0	0	0
3056801	WORD	wordpools/wasnorm_wordpool_576.txt	LTP260	ltpFR2	16	13	BANQUET	86	n/a	n/a	0	0	0
3059562	WORD	wordpools/wasnorm_wordpool_576.txt	LTP260	ltpFR2	16	13	ULCER	1533	n/a	n/a	0	0	0
3062389	WORD	wordpools/wasnorm_wordpool_576.txt	LTP260	ltpFR2	16	13	CLAM	315	n/a	n/a	0	0	0
3065216	WORD	wordpools/wasnorm_wordpool_576.txt	LTP260	ltpFR2	16	13	PATIENT	1024	n/a	n/a	0	0	0
3067959	WORD	wordpools/wasnorm_wordpool_576.txt	LTP260	ltpFR2	16	13	VIRUS	1572	n/a	n/a	0	0	0
3070648	WORD	wordpools/wasnorm_wordpool_576.txt	LTP260	ltpFR2	16	13	SHELTER	1282	n/a	n/a	0	0	0
3073174	WORD	wordpools/wasnorm_wordpool_576.txt	LTP260	ltpFR2	16	13	LADDER	793	n/a	n/a	0	0	0
3075655	WORD	wordpools/wasnorm_wordpool_576.txt	LTP260	ltpFR2	16	13	POCKET	1093	n/a	n/a	0	0	0
3078114	WORD	wordpools/wasnorm_wordpool_576.txt	LTP260	ltpFR2	16	13	COBRA	336	n/a	n/a	0	0	0
3080669	WORD	wordpools/wasnorm_wordpool_576.txt	LTP260	ltpFR2	16	13	FEMALE	559	n/a	n/a	0	0	0
3083234	WORD	wordpools/wasnorm_wordpool_576.txt	LTP260	ltpFR2	16	13	VALLEY	1545	n/a	n/a	0	0	0
3085810	WORD	wordpools/wasnorm_wordpool_576.txt	LTP260	ltpFR2	16	13	COLONEL	348	n/a	n/a	0	0	0
3088571	WORD	wordpools/wasnorm_wordpool_576.txt	LTP260	ltpFR2	16	13	ARMY	39	n/a	n/a	0	0	0
3091349	WORD	wordpools/wasnorm_wordpool_576.txt	LTP260	ltpFR2	16	13	FOOT	590	n/a	n/a	0	0	0
3093818	WORD	wordpools/wasnorm_wordpool_576.txt	LTP260	ltpFR2	16	13	HELMET	702	n/a	n/a	0	0	0
3096468	WORD	wordpools/wasnorm_wordpool_576.txt	LTP260	ltpFR2	16	13	SUSPECT	1415	n/a	n/a	0	0	0
3099144	WORD	wordpools/wasnorm_wordpool_576.txt	LTP260	ltpFR2	16	13	THIEF	1456	n/a	n/a	0	0	0
3101598	WORD	wordpools/wasnorm_wordpool_576.txt	LTP260	ltpFR2	16	13	DINER	467	n/a	n/a	0	0	0
3104297	WORD	wordpools/wasnorm_wordpool_576.txt	LTP260	ltpFR2	16	13	QUARTER	1148	n/a	n/a	0	0	0
3106985	WORD	wordpools/wasnorm_wordpool_576.txt	LTP260	ltpFR2	16	13	HAWK	692	n/a	n/a	0	0	0
3108596	START	n/a	LTP260	ltpFR2	16	n/a	n/a	n/a	19	n/a	n/a	n/a	n/a
3109454	DISTRACTOR	n/a	LTP260	ltpFR2	16	13	n/a	n/a	n/a	n/a	0	0	0
3109467	PROB	n/a	LTP260	ltpFR2	16	n/a	n/a	n/a	19	16	6	6	4
3111369	PROB	n/a	LTP260	ltpFR2	16	n/a	n/a	n/a	19	13	2	3	8
3112512	PROB	n/a	LTP260	ltpFR2	16	n/a	n/a	n/a	19	8	2	2	4
3113894	PROB	n/a	LTP260	ltpFR2	16	n/a	n/a	n/a	19	16	3	7	6
3115857	PROB	n/a	LTP260	ltpFR2	16	n/a	n/a	n/a	19	5	1	3	1
3117011	PROB	n/a	LTP260	ltpFR2	16	n/a	n/a	n/a	19	18	8	1	9
3118177	PROB	n/a	LTP260	ltpFR2	16	n/a	n/a	n/a	19	8	3	2	3
3119704	PROB	n/a	LTP260	ltpFR2	16	n/a	n/a	n/a	19	8	3	1	4
3121273	PROB	n/a	LTP260	ltpFR2	16	n/a	n/a	n/a	19	12	2	2	8
3123246	PROB	n/a	LTP260	ltpFR2	16	n/a	n/a	n/a	19	18	3	7	8
3124552	PROB	n/a	LTP260	ltpFR2	16	n/a	n/a	n/a	19	5	2	2	1
3125588	PROB	n/a	LTP260	ltpFR2	16	n/a	n/a	n/a	19	18	9	5	4
3127110	PROB	n/a	LTP260	ltpFR2	16	n/a	n/a	n/a	19	8	1	4	3
3128399	PROB	n/a	LTP260	ltpFR2	16	n/a	n/a	n/a	19	18	8	4	6
3130574	PROB	n/a	LTP260	ltpFR2	16	n/a	n/a	n/a	19	12	4	4	4
3132502	STOP	n/a	LTP260	ltpFR2	16	n/a	n/a	n/a	19	n/a	n/a	n/a	n/a
3134523	REC_START	n/a	LTP260	ltpFR2	16	13	n/a	n/a	n/a	n/a	0	0	0
3136975	REC_WORD	wordpools/wasnorm_wordpool_576.txt	LTP260	ltpFR2	16	13	VALLEY	1545	n/a	n/a	0	0	0
3137763	REC_WORD	wordpools/wasnorm_wordpool_576.txt	LTP260	ltpFR2	16	13	LAVA	804	n/a	n/a	0	0	0
3141662	REC_WORD	wordpools/wasnorm_wordpool_576.txt	LTP260	ltpFR2	16	13	HAWK	692	n/a	n/a	0	0	0
3143091	REC_WORD	wordpools/wasnorm_wordpool_576.txt	LTP260	ltpFR2	16	13	TURTLE	1522	n/a	n/a	0	0	0
3145093	REC_WORD	wordpools/wasnorm_wordpool_576.txt	LTP260	ltpFR2	16	13	COBRA	336	n/a	n/a	0	0	0
3148547	REC_WORD	wordpools/wasnorm_wordpool_576.txt	LTP260	ltpFR2	16	13	BANQUET	86	n/a	n/a	0	0	0
3149351	REC_WORD	wordpools/wasnorm_wordpool_576.txt	LTP260	ltpFR2	16	13	CLAM	315	n/a	n/a	0	0	0
3150112	REC_WORD	wordpools/wasnorm_wordpool_576.txt	LTP260	ltpFR2	16	13	QUARTER	1148	n/a	n/a	0	0	0
3150892	REC_WORD	wordpools/wasnorm_wordpool_576.txt	LTP260	ltpFR2	16	13	DINER	467	n/a	n/a	0	0	0
3152559	REC_WORD	wordpools/wasnorm_wordpool_576.txt	LTP260	ltpFR2	16	13	JURY	766	n/a	n/a	0	0	0
3153281	REC_WORD	wordpools/wasnorm_wordpool_576.txt	LTP260	ltpFR2	16	13	LADDER	793	n/a	n/a	0	0	0
3155518	REC_WORD	wordpools/wasnorm_wordpool_576.txt	LTP260	ltpFR2	16	13	SUSPECT	1415	n/a	n/a	0	0	0
3156430	REC_WORD	wordpools/wasnorm_wordpool_576.txt	LTP260	ltpFR2	16	13	COLONEL	348	n/a	n/a	0	0	0
3157732	REC_WORD	wordpools/wasnorm_wordpool_576.txt	LTP260	ltpFR2	16	13	ARMY	39	n/a	n/a	0	0	0
3159879	REC_WORD	wordpools/wasnorm_wordpool_576.txt	LTP260	ltpFR2	16	13	HELMET	702	n/a	n/a	0	0	0
3163618	REC_WORD	wordpools/wasnorm_wordpool_576.txt	LTP260	ltpFR2	16	13	FOOT	590	n/a	n/a	0	0	0
3167343	REC_WORD	wordpools/wasnorm_wordpool_576.txt	LTP260	ltpFR2	16	13	PATIENT	1024	n/a	n/a	0	0	0
3169483	REC_WORD	wordpools/wasnorm_wordpool_576.txt	LTP260	ltpFR2	16	13	HOOD	714	n/a	n/a	0	0	0
3170551	REC_WORD	wordpools/wasnorm_wordpool_576.txt	LTP260	ltpFR2	16	13	VIRUS	1572	n/a	n/a	0	0	0
3171475	REC_WORD	wordpools/wasnorm_wordpool_576.txt	LTP260	ltpFR2	16	13	ULCER	1533	n/a	n/a	0	0	0
3172945	REC_WORD	wordpools/wasnorm_wordpool_576.txt	LTP260	ltpFR2	16	13	FEMALE	559	n/a	n/a	0	0	0
3225670	WORD	wordpools/wasnorm_wordpool_576.txt	LTP260	ltpFR2	16	14	WITNESS	1618	n/a	n/a	0	0	0
3228315	WORD	wordpools/wasnorm_wordpool_576.txt	LTP260	ltpFR2	16	14	GRAPE	654	n/a	n/a	0	0	0
3230968	WORD	wordpools/wasnorm_wordpool_576.txt	LTP260	ltpFR2	16	14	TREAT	1501	n/a	n/a	0	0	0
3233584	WORD	wordpools/wasnorm_wordpool_576.txt	LTP260	ltpFR2	16	14	RIVER	1194	n/a	n/a	0	0	0
3236171	WORD	wordpools/wasnorm_wordpool_576.txt	LTP260	ltpFR2	16	14	DANCER	437	n/a	n/a	0	0	0
3238631	WORD	wordpools/wasnorm_wordpool_576.txt	LTP260	ltpFR2	16	14	COFFEE	341	n/a	n/a	0	0	0
3241123	WORD	wordpools/wasnorm_wordpool_576.txt	LTP260	ltpFR2	16	14	PUDDING	1139	n/a	n/a	0	0	0
3243906	WORD	wordpools/wasnorm_wordpool_576.txt	LTP260	ltpFR2	16	14	COUSIN	392	n/a	n/a	0	0	0
3246678	WORD	wordpools/wasnorm_wordpool_576.txt	LTP260	ltpFR2	16	14	TUBA	1515	n/a	n/a	0	0	0
3249394	WORD	wordpools/wasnorm_wordpool_576.txt	LTP260	ltpFR2	16	14	FLIPPER	580	n/a	n/a	0	0	0
3252131	WORD	wordpools/wasnorm_wordpool_576.txt	LTP260	ltpFR2	16	14	COSTUME	383	n/a	n/a	0	0	0
3254697	WORD	wordpools/wasnorm_wordpool_576.txt	LTP260	ltpFR2	16	14	VIKING	1565	n/a	n/a	0	0	0
3257201	WORD	wordpools/wasnorm_wordpool_576.txt	LTP260	ltpFR2	16	14	CHEST	295	n/a	n/a	0	0	0
3259833	WORD	wordpools/wasnorm_wordpool_576.txt	LTP260	ltpFR2	16	14	BELLY	119	n/a	n/a	0	0	0
3262326	WORD	wordpools/wasnorm_wordpool_576.txt	LTP260	ltpFR2	16	14	SALT	1229	n/a	n/a	0	0	0
3264935	WORD	wordpools/wasnorm_wordpool_576.txt	LTP260	ltpFR2	16	14	TART	1436	n/a	n/a	0	0	0
3267662	WORD	wordpools/wasnorm_wordpool_576.txt	LTP260	ltpFR2	16	14	CROWN	415	n/a	n/a	0	0	0
3270133	WORD	wordpools/wasnorm_wordpool_576.txt	LTP260	ltpFR2	16	14	THRONE	1461	n/a	n/a	0	0	0
3272932	WORD	wordpools/wasnorm_wordpool_576.txt	LTP260	ltpFR2	16	14	PORK	1108	n/a	n/a	0	0	0
3275476	WORD	wordpools/wasnorm_wordpool_576.txt	LTP260	ltpFR2	16	14	JUDGE	761	n/a	n/a	0	0	0
3278130	WORD	wordpools/wasnorm_wordpool_576.txt	LTP260	ltpFR2	16	14	FRAME	600	n/a	n/a	0	0	0
3280840	WORD	wordpools/wasnorm_wordpool_576.txt	LTP260	ltpFR2	16	14	DRAWING	494	n/a	n/a	0	0	0
3283456	WORD	wordpools/wasnorm_wordpool_576.txt	LTP260	ltpFR2	16	14	TRIBE	1505	n/a	n/a	0	0	0
3286148	WORD	wordpools/wasnorm_wordpool_576.txt	LTP260	ltpFR2	16	14	POET	1095	n/a	n/a	0	0	0
3287755	START	n/a	LTP260	ltpFR2	16	n/a	n/a	n/a	20	n/a	n/a	n/a	n/a
3288647	DISTRACTOR	n/a	LTP260	ltpFR2	16	14	n/a	n/a	n/a	n/a	0	0	0
3288658	PROB	n/a	LTP260	ltpFR2	16	n/a	n/a	n/a	20	11	5	5	1
3289656	PROB	n/a	LTP260	ltpFR2	16	n/a	n/a	n/a	20	11	3	2	6
3291597	PROB	n/a	LTP260	ltpFR2	16	n/a	n/a	n/a	20	17	9	5	3
3293561	PROB	n/a	LTP260	ltpFR2	16	n/a	n/a	n/a	20	17	2	9	6
3296014	PROB	n/a	LTP260	ltpFR2	16	n/a	n/a	n/a	20	16	5	6	5
3297353	PROB	n/a	LTP260	ltpFR2	16	n/a	n/a	n/a	20	17	2	6	9
3299025	PROB	n/a	LTP260	ltpFR2	16	n/a	n/a	n/a	20	14	5	7	2
3300664	PROB	n/a	LTP260	ltpFR2	16	n/a	n/a	n/a	20	14	6	5	3
3302305	PROB	n/a	LTP260	ltpFR2	16	n/a	n/a	n/a	20	9	3	5	1
3303860	PROB	n/a	LTP260	ltpFR2	16	n/a	n/a	n/a	20	16	6	8	2
3305506	PROB	n/a	LTP260	ltpFR2	16	n/a	n/a	n/a	20	12	1	6	5
3307144	PROB	n/a	LTP260	ltpFR2	16	n/a	n/a	n/a	20	17	9	5	3
3308578	PROB	n/a	LTP260	ltpFR2	16	n/a	n/a	n/a	20	21	8	7	6
3310237	STOP	n/a	LTP260	ltpFR2	16	n/a	n/a	n/a	20	n/a	n/a	n/a	n/a
3313619	REC_START	n/a	LTP260	ltpFR2	16	14	n/a	n/a	n/a	n/a	0	0	0
3314925	REC_WORD	wordpools/wasnorm_wordpool_576.txt	LTP260	ltpFR2	16	14	TUBA	1515	n/a	n/a	0	0	0
3317444	REC_WORD	wordpools/wasnorm_wordpool_576.txt	LTP260	ltpFR2	16	14	JUDGE	761	n/a	n/a	0	0	0
3319385	REC_WORD	wordpools/wasnorm_wordpool_576.txt	LTP260	ltpFR2	16	14	WITNESS	1618	n/a	n/a	0	0	0
3321309	REC_WORD	wordpools/wasnorm_wordpool_576.txt	LTP260	ltpFR2	16	14	TRIBE	1505	n/a	n/a	0	0	0
3322703	REC_WORD	wordpools/wasnorm_wordpool_576.txt	LTP260	ltpFR2	16	14	DRAWING	494	n/a	n/a	0	0	0
3323535	REC_WORD	wordpools/wasnorm_wordpool_576.txt	LTP260	ltpFR2	16	14	FRAME	600	n/a	n/a	0	0	0
3324535	REC_WORD	wordpools/wasnorm_wordpool_576.txt	LTP260	ltpFR2	16	14	POET	1095	n/a	n/a	0	0	0
3326811	REC_WORD	wordpools/wasnorm_wordpool_576.txt	LTP260	ltpFR2	16	14	RIVER	1194	n/a	n/a	0	0	0
3327468	REC_WORD	wordpools/wasnorm_wordpool_576.txt	LTP260	ltpFR2	16	14	SALT	1229	n/a	n/a	0	0	0
3328933	REC_WORD	wordpools/wasnorm_wordpool_576.txt	LTP260	ltpFR2	16	14	COUSIN	392	n/a	n/a	0	0	0
3332659	REC_WORD	wordpools/wasnorm_wordpool_576.txt	LTP260	ltpFR2	16	14	DANCER	437	n/a	n/a	0	0	0
3333839	REC_WORD	wordpools/wasnorm_wordpool_576.txt	LTP260	ltpFR2	16	14	COSTUME	383	n/a	n/a	0	0	0
3334644	REC_WORD	wordpools/wasnorm_wordpool_576.txt	LTP260	ltpFR2	16	14	VIKING	1565	n/a	n/a	0	0	0
3335488	REC_WORD	wordpools/wasnorm_wordpool_576.txt	LTP260	ltpFR2	16	14	CHEST	295	n/a	n/a	0	0	0
3336235	REC_WORD	wordpools/wasnorm_wordpool_576.txt	LTP260	ltpFR2	16	14	CROWN	415	n/a	n/a	0	0	0
3337391	REC_WORD	wordpools/wasnorm_wordpool_576.txt	LTP260	ltpFR2	16	14	BELLY	119	n/a	n/a	0	0	0
3338207	REC_WORD	wordpools/wasnorm_wordpool_576.txt	LTP260	ltpFR2	16	14	THRONE	1461	n/a	n/a	0	0	0
3340676	REC_WORD	wordpools/wasnorm_wordpool_576.txt	LTP260	ltpFR2	16	14	TREAT	1501	n/a	n/a	0	0	0
3341941	REC_WORD	wordpools/wasnorm_wordpool_576.txt	LTP260	ltpFR2	16	14	TART	1436	n/a	n/a	0	0	0
3342653	REC_WORD	wordpools/wasnorm_wordpool_576.txt	LTP260	ltpFR2	16	14	PORK	1108	n/a	n/a	0	0	0
3346311	REC_WORD	wordpools/wasnorm_wordpool_576.txt	LTP260	ltpFR2	16	14	PUDDING	1139	n/a	n/a	0	0	0
3347429	REC_WORD	wordpools/wasnorm_wordpool_576.txt	LTP260	ltpFR2	16	14	GRAPE	654	n/a	n/a	0	0	0
3348801	REC_WORD	wordpools/wasnorm_wordpool_576.txt	LTP260	ltpFR2	16	14	COFFEE	341	n/a	n/a	0	0	0
3404678	DISTRACTOR	n/a	LTP260	ltpFR2	16	15	n/a	n/a	n/a	n/a	0	0	0
3404679	START	n/a	LTP260	ltpFR2	16	n/a	n/a	n/a	21	n/a	n/a	n/a	n/a
3404729	PROB	n/a	LTP260	ltpFR2	16	n/a	n/a	n/a	21	18	8	5	5
3405945	PROB	n/a	LTP260	ltpFR2	16	n/a	n/a	n/a	21	17	4	9	4
3407601	PROB	n/a	LTP260	ltpFR2	16	n/a	n/a	n/a	21	21	8	8	5
3408922	PROB	n/a	LTP260	ltpFR2	16	n/a	n/a	n/a	21	17	1	9	7
3410267	PROB	n/a	LTP260	ltpFR2	16	n/a	n/a	n/a	21	20	5	6	9
3411906	PROB	n/a	LTP260	ltpFR2	16	n/a	n/a	n/a	21	17	8	2	7
3413357	PROB	n/a	LTP260	ltpFR2	16	n/a	n/a	n/a	21	11	4	2	5
3414878	PROB	n/a	LTP260	ltpFR2	16	n/a	n/a	n/a	21	16	1	6	9
3416474	PROB	n/a	LTP260	ltpFR2	16	n/a	n/a	n/a	21	9	2	2	5
3417722	PROB	n/a	LTP260	ltpFR2	16	n/a	n/a	n/a	21	17	9	3	5
3420020	PROB	n/a	LTP260	ltpFR2	16	n/a	n/a	n/a	21	20	9	8	3
3421743	PROB	n/a	LTP260	ltpFR2	16	n/a	n/a	n/a	21	14	3	7	4
3423048	PROB	n/a	LTP260	ltpFR2	16	n/a	n/a	n/a	21	20	8	6	6
3424654	PROB	n/a	LTP260	ltpFR2	16	n/a	n/a	n/a	21	12	3	1	8
3426009	PROB	n/a	LTP260	ltpFR2	16	n/a	n/a	n/a	21	14	4	1	9
3427109	STOP	n/a	LTP260	ltpFR2	16	n/a	n/a	n/a	21	n/a	n/a	n/a	n/a
3429606	WORD	wordpools/wasnorm_wordpool_576.txt	LTP260	ltpFR2	16	15	SPOUSE	1358	n/a	n/a	0	0	0
3432312	WORD	wordpools/wasnorm_wordpool_576.txt	LTP260	ltpFR2	16	15	DRIVER	499	n/a	n/a	0	0	0
3434909	WORD	wordpools/wasnorm_wordpool_576.txt	LTP260	ltpFR2	16	15	RUST	1219	n/a	n/a	0	0	0
3437653	WORD	wordpools/wasnorm_wordpool_576.txt	LTP260	ltpFR2	16	15	GHETTO	633	n/a	n/a	0	0	0
3440229	WORD	wordpools/wasnorm_wordpool_576.txt	LTP260	ltpFR2	16	15	LETTUCE	814	n/a	n/a	0	0	0
3442722	WORD	wordpools/wasnorm_wordpool_576.txt	LTP260	ltpFR2	16	15	TROUT	1511	n/a	n/a	0	0	0
3445467	WORD	wordpools/wasnorm_wordpool_576.txt	LTP260	ltpFR2	16	15	SCARECROW	1245	n/a	n/a	0	0	0
3447975	WORD	wordpools/wasnorm_wordpool_576.txt	LTP260	ltpFR2	16	15	TUNNEL	1519	n/a	n/a	0	0	0
3450618	WORD	wordpools/wasnorm_wordpool_576.txt	LTP260	ltpFR2	16	15	OMELET	976	n/a	n/a	0	0	0
3453211	WORD	wordpools/wasnorm_wordpool_576.txt	LTP260	ltpFR2	16	15	BIKE	125	n/a	n/a	0	0	0
3455955	WORD	wordpools/wasnorm_wordpool_576.txt	LTP260	ltpFR2	16	15	TAXI	1438	n/a	n/a	0	0	0
3458582	WORD	wordpools/wasnorm_wordpool_576.txt	LTP260	ltpFR2	16	15	SALMON	1227	n/a	n/a	0	0	0
3461225	WORD	wordpools/wasnorm_wordpool_576.txt	LTP260	ltpFR2	16	15	NECKLACE	940	n/a	n/a	0	0	0
3463801	WORD	wordpools/wasnorm_wordpool_576.txt	LTP260	ltpFR2	16	15	SKILLET	1317	n/a	n/a	0	0	0
3466323	WORD	wordpools/wasnorm_wordpool_576.txt	LTP260	ltpFR2	16	15	MONEY	908	n/a	n/a	0	0	0
3468803	WORD	wordpools/wasnorm_wordpool_576.txt	LTP260	ltpFR2	16	15	MARKET	871	n/a	n/a	0	0	0
3471314	WORD	wordpools/wasnorm_wordpool_576.txt	LTP260	ltpFR2	16	15	PLAZA	1088	n/a	n/a	0	0	0
3474124	WORD	wordpools/wasnorm_wordpool_576.txt	LTP260	ltpFR2	16	15	TRENCH	1503	n/a	n/a	0	0	0
3476666	WORD	wordpools/wasnorm_wordpool_576.txt	LTP260	ltpFR2	16	15	SEAGULL	1261	n/a	n/a	0	0	0
3479254	WORD	wordpools/wasnorm_wordpool_576.txt	LTP260	ltpFR2	16	15	SNAKE	1333	n/a	n/a	0	0	0
3481752	WORD	wordpools/wasnorm_wordpool_576.txt	LTP260	ltpFR2	16	15	BACON	67	n/a	n/a	0	0	0
3484313	WORD	wordpools/wasnorm_wordpool_576.txt	LTP260	ltpFR2	16	15	PARROT	1015	n/a	n/a	0	0	0
3486938	WORD	wordpools/wasnorm_wordpool_576.txt	LTP260	ltpFR2	16	15	KLEENEX	782	n/a	n/a	0	0	0
3489699	WORD	wordpools/wasnorm_wordpool_576.txt	LTP260	ltpFR2	16	15	SCALLOP	1242	n/a	n/a	0	0	0
3491306	START	n/a	LTP260	ltpFR2	16	n/a	n/a	n/a	22	n/a	n/a	n/a	n/a
3492309	DISTRACTOR	n/a	LTP260	ltpFR2	16	15	n/a	n/a	n/a	n/a	0	0	0
3492326	PROB	n/a	LTP260	ltpFR2	16	n/a	n/a	n/a	22	10	2	4	4
3493809	PROB	n/a	LTP260	ltpFR2	16	n/a	n/a	n/a	22	14	2	3	9
3496168	PROB	n/a	LTP260	ltpFR2	16	n/a	n/a	n/a	22	11	7	1	3
3497273	PROB	n/a	LTP260	ltpFR2	16	n/a	n/a	n/a	22	12	9	1	2
3498561	PROB	n/a	LTP260	ltpFR2	16	n/a	n/a	n/a	22	8	4	1	3
3500099	PROB	n/a	LTP260	ltpFR2	16	n/a	n/a	n/a	22	12	3	7	2
3501305	PROB	n/a	LTP260	ltpFR2	16	n/a	n/a	n/a	22	18	5	6	7
3504064	PROB	n/a	LTP260	ltpFR2	16	n/a	n/a	n/a	22	18	7	4	7
3505721	PROB	n/a	LTP260	ltpFR2	16	n/a	n/a	n/a	22	18	1	8	9
3507278	PROB	n/a	LTP260	ltpFR2	16	n/a	n/a	n/a	22	15	7	2	6
3509407	PROB	n/a	LTP260	ltpFR2	16	n/a	n/a	n/a	22	14	1	6	7
3510862	PROB	n/a	LTP260	ltpFR2	16	n/a	n/a	n/a	22	21	9	3	9
3512234	PROB	n/a	LTP260	ltpFR2	16	n/a	n/a	n/a	22	16	7	2	7
3515306	STOP	n/a	LTP260	ltpFR2	16	n/a	n/a	n/a	22	n/a	n/a	n/a	n/a
3517253	REC_START	n/a	LTP260	ltpFR2	16	15	n/a	n/a	n/a	n/a	0	0	0
3518425	REC_WORD	wordpools/wasnorm_wordpool_576.txt	LTP260	ltpFR2	16	15	KLEENEX	782	n/a	n/a	0	0	0
3521052	REC_WORD	wordpools/wasnorm_wordpool_576.txt	LTP260	ltpFR2	16	15	SCALLOP	1242	n/a	n/a	0	0	0
3522075	REC_WORD	wordpools/wasnorm_wordpool_576.txt	LTP260	ltpFR2	16	15	TROUT	1511	n/a	n/a	0	0	0
3522927	REC_WORD	wordpools/wasnorm_wordpool_576.txt	LTP260	ltpFR2	16	15	SALMON	1227	n/a	n/a	0	0	0
3523960	REC_WORD	wordpools/wasnorm_wordpool_576.txt	LTP260	ltpFR2	16	15	LETTUCE	814	n/a	n/a	0	0	0
3524891	REC_WORD	wordpools/wasnorm_wordpool_576.txt	LTP260	ltpFR2	16	15	SKILLET	1317	n/a	n/a	0	0	0
3525953	REC_WORD	wordpools/wasnorm_wordpool_576.txt	LTP260	ltpFR2	16	15	BACON	67	n/a	n/a	0	0	0
3526845	REC_WORD	wordpools/wasnorm_wordpool_576.txt	LTP260	ltpFR2	16	15	OMELET	976	n/a	n/a	0	0	0
3533820	REC_WORD	wordpools/wasnorm_wordpool_576.txt	LTP260	ltpFR2	16	15	SPOUSE	1358	n/a	n/a	0	0	0
3534985	REC_WORD	wordpools/wasnorm_wordpool_576.txt	LTP260	ltpFR2	16	15	BIKE	125	n/a	n/a	0	0	0
3535776	REC_WORD	wordpools/wasnorm_wordpool_576.txt	LTP260	ltpFR2	16	15	PLAZA	1088	n/a	n/a	0	0	0
3536635	REC_WORD	wordpools/wasnorm_wordpool_576.txt	LTP260	ltpFR2	16	15	MARKET	871	n/a	n/a	0	0	0
3537602	REC_WORD	wordpools/wasnorm_wordpool_576.txt	LTP260	ltpFR2	16	15	NECKLACE	940	n/a	n/a	0	0	0
3538395	REC_WORD	wordpools/wasnorm_wordpool_576.txt	LTP260	ltpFR2	16	15	MONEY	908	n/a	n/a	0	0	0
3540506	REC_WORD	wordpools/wasnorm_wordpool_576.txt	LTP260	ltpFR2	16	15	GHETTO	633	n/a	n/a	0	0	0
3541385	REC_WORD	wordpools/wasnorm_wordpool_576.txt	LTP260	ltpFR2	16	15	TAXI	1438	n/a	n/a	0	0	0
3542441	REC_WORD	wordpools/wasnorm_wordpool_576.txt	LTP260	ltpFR2	16	15	DRIVER	499	n/a	n/a	0	0	0
3543540	REC_WORD	wordpools/wasnorm_wordpool_576.txt	LTP260	ltpFR2	16	15	RUST	1219	n/a	n/a	0	0	0
3544930	REC_WORD	wordpools/wasnorm_wordpool_576.txt	LTP260	ltpFR2	16	15	TUNNEL	1519	n/a	n/a	0	0	0
3547741	REC_WORD	wordpools/wasnorm_wordpool_576.txt	LTP260	ltpFR2	16	15	SCARECROW	1245	n/a	n/a	0	0	0
3548843	REC_WORD	wordpools/wasnorm_wordpool_576.txt	LTP260	ltpFR2	16	15	PARROT	1015	n/a	n/a	0	0	0
3550899	REC_WORD	wordpools/wasnorm_wordpool_576.txt	LTP260	ltpFR2	16	15	SEAGULL	1261	n/a	n/a	0	0	0
3551956	REC_WORD	wordpools/wasnorm_wordpool_576.txt	LTP260	ltpFR2	16	15	SNAKE	1333	n/a	n/a	0	0	0
3563076	REC_WORD	wordpools/wasnorm_wordpool_576.txt	LTP260	ltpFR2	16	15	SCALLOP	1242	n/a	n/a	0	0	0
3608314	WORD	wordpools/wasnorm_wordpool_576.txt	LTP260	ltpFR2	16	16	PEBBLE	1035	n/a	n/a	0	0	0
3610800	WORD	wordpools/wasnorm_wordpool_576.txt	LTP260	ltpFR2	16	16	BROTHER	179	n/a	n/a	0	0	0
3613483	WORD	wordpools/wasnorm_wordpool_576.txt	LTP260	ltpFR2	16	16	BLOCKADE	137	n/a	n/a	0	0	0
3616260	WORD	wordpools/wasnorm_wordpool_576.txt	LTP260	ltpFR2	16	16	LIGHTNING	820	n/a	n/a	0	0	0
3618830	WORD	wordpools/wasnorm_wordpool_576.txt	LTP260	ltpFR2	16	16	PACKAGE	997	n/a	n/a	0	0	0
3621408	WORD	wordpools/wasnorm_wordpool_576.txt	LTP260	ltpFR2	16	16	VENUS	1557	n/a	n/a	0	0	0
3624184	WORD	wordpools/wasnorm_wordpool_576.txt	LTP260	ltpFR2	16	16	CROSS	413	n/a	n/a	0	0	0
3626715	WORD	wordpools/wasnorm_wordpool_576.txt	LTP260	ltpFR2	16	16	BRACES	164	n/a	n/a	0	0	0
3629169	WORD	wordpools/wasnorm_wordpool_576.txt	LTP260	ltpFR2	16	16	RECORD	1176	n/a	n/a	0	0	0
3631701	WORD	wordpools/wasnorm_wordpool_576.txt	LTP260	ltpFR2	16	16	SHARK	1275	n/a	n/a	0	0	0
3634312	WORD	wordpools/wasnorm_wordpool_576.txt	LTP260	ltpFR2	16	16	SCISSORS	1250	n/a	n/a	0	0	0
3636787	WORD	wordpools/wasnorm_wordpool_576.txt	LTP260	ltpFR2	16	16	HATCHET	691	n/a	n/a	0	0	0
3639359	WORD	wordpools/wasnorm_wordpool_576.txt	LTP260	ltpFR2	16	16	ROBBER	1197	n/a	n/a	0	0	0
3641939	WORD	wordpools/wasnorm_wordpool_576.txt	LTP260	ltpFR2	16	16	CITRUS	313	n/a	n/a	0	0	0
3644467	WORD	wordpools/wasnorm_wordpool_576.txt	LTP260	ltpFR2	16	16	CRITIC	410	n/a	n/a	0	0	0
3647104	WORD	wordpools/wasnorm_wordpool_576.txt	LTP260	ltpFR2	16	16	PECAN	1036	n/a	n/a	0	0	0
3649752	WORD	wordpools/wasnorm_wordpool_576.txt	LTP260	ltpFR2	16	16	CASHEW	253	n/a	n/a	0	0	0
3652396	WORD	wordpools/wasnorm_wordpool_576.txt	LTP260	ltpFR2	16	16	ACTRESS	6	n/a	n/a	0	0	0
3654888	WORD	wordpools/wasnorm_wordpool_576.txt	LTP260	ltpFR2	16	16	EGYPT	519	n/a	n/a	0	0	0
3657593	WORD	wordpools/wasnorm_wordpool_576.txt	LTP260	ltpFR2	16	16	COUNTRY	388	n/a	n/a	0	0	0
3660203	WORD	wordpools/wasnorm_wordpool_576.txt	LTP260	ltpFR2	16	16	FLUTE	585	n/a	n/a	0	0	0
3662952	WORD	wordpools/wasnorm_wordpool_576.txt	LTP260	ltpFR2	16	16	WRENCH	1625	n/a	n/a	0	0	0
3665712	WORD	wordpools/wasnorm_wordpool_576.txt	LTP260	ltpFR2	16	16	CLIMBER	323	n/a	n/a	0	0	0
3668138	WORD	wordpools/wasnorm_wordpool_576.txt	LTP260	ltpFR2	16	16	HIKER	708	n/a	n/a	0	0	0
3669744	START	n/a	LTP260	ltpFR2	16	n/a	n/a	n/a	23	n/a	n/a	n/a	n/a
3670824	DISTRACTOR	n/a	LTP260	ltpFR2	16	16	n/a	n/a	n/a	n/a	0	0	0
3670831	PROB	n/a	LTP260	ltpFR2	16	n/a	n/a	n/a	23	17	7	5	5
3672266	PROB	n/a	LTP260	ltpFR2	16	n/a	n/a	n/a	23	5	1	3	1
3673337	PROB	n/a	LTP260	ltpFR2	16	n/a	n/a	n/a	23	16	5	3	8
3674590	PROB	n/a	LTP260	ltpFR2	16	n/a	n/a	n/a	23	11	3	7	1
3675678	PROB	n/a	LTP260	ltpFR2	16	n/a	n/a	n/a	23	14	7	2	5
3677307	PROB	n/a	LTP260	ltpFR2	16	n/a	n/a	n/a	23	8	3	4	1
3678489	PROB	n/a	LTP260	ltpFR2	16	n/a	n/a	n/a	23	15	9	4	2
3679849	PROB	n/a	LTP260	ltpFR2	16	n/a	n/a	n/a	23	15	4	6	5
3681656	PROB	n/a	LTP260	ltpFR2	16	n/a	n/a	n/a	23	9	5	3	1
3682989	PROB	n/a	LTP260	ltpFR2	16	n/a	n/a	n/a	23	22	7	6	9
3685169	PROB	n/a	LTP260	ltpFR2	16	n/a	n/a	n/a	23	16	8	6	2
3686853	PROB	n/a	LTP260	ltpFR2	16	n/a	n/a	n/a	23	17	6	2	9
3688799	PROB	n/a	LTP260	ltpFR2	16	n/a	n/a	n/a	23	12	7	1	4
3690049	PROB	n/a	LTP260	ltpFR2	16	n/a	n/a	n/a	23	22	7	7	8
3691360	PROB	n/a	LTP260	ltpFR2	16	n/a	n/a	n/a	23	18	3	8	7
3693109	STOP	n/a	LTP260	ltpFR2	16	n/a	n/a	n/a	23	n/a	n/a	n/a	n/a
3695643	REC_START	n/a	LTP260	ltpFR2	16	16	n/a	n/a	n/a	n/a	0	0	0
3699873	REC_WORD	wordpools/wasnorm_wordpool_576.txt	LTP260	ltpFR2	16	16	CLIMBER	323	n/a	n/a	0	0	0
3702403	REC_WORD	wordpools/wasnorm_wordpool_576.txt	LTP260	ltpFR2	16	16	ROBBER	1197	n/a	n/a	0	0	0
3703481	REC_WORD	wordpools/wasnorm_wordpool_576.txt	LTP260	ltpFR2	16	16	HATCHET	691	n/a	n/a	0	0	0
3704567	REC_WORD	wordpools/wasnorm_wordpool_576.txt	LTP260	ltpFR2	16	16	WRENCH	1625	n/a	n/a	0	0	0
3705621	REC_WORD	wordpools/wasnorm_wordpool_576.txt	LTP260	ltpFR2	16	16	SHARK	1275	n/a	n/a	0	0	0
3706992	REC_WORD	wordpools/wasnorm_wordpool_576.txt	LTP260	ltpFR2	16	16	CRITIC	410	n/a	n/a	0	0	0
3708525	REC_WORD	wordpools/wasnorm_wordpool_576.txt	LTP260	ltpFR2	16	16	ACTRESS	6	n/a	n/a	0	0	0
3709537	REC_WORD	wordpools/wasnorm_wordpool_576.txt	LTP260	ltpFR2	16	16	FLUTE	585	n/a	n/a	0	0	0
3712723	REC_WORD	wordpools/wasnorm_wordpool_576.txt	LTP260	ltpFR2	16	16	CASHEW	253	n/a	n/a	0	0	0
3715555	REC_WORD	wordpools/wasnorm_wordpool_576.txt	LTP260	ltpFR2	16	16	PECAN	1036	n/a	n/a	0	0	0
3716551	REC_WORD	wordpools/wasnorm_wordpool_576.txt	LTP260	ltpFR2	16	16	CITRUS	313	n/a	n/a	0	0	0
3720505	REC_WORD	wordpools/wasnorm_wordpool_576.txt	LTP260	ltpFR2	16	16	ORANGE	980	n/a	n/a	0	0	0
3722304	REC_WORD	wordpools/wasnorm_wordpool_576.txt	LTP260	ltpFR2	16	16	PACKAGE	997	n/a	n/a	0	0	0
3724771	REC_WORD	wordpools/wasnorm_wordpool_576.txt	LTP260	ltpFR2	16	16	RECORD	1176	n/a	n/a	0	0	0
3728819	REC_WORD	wordpools/wasnorm_wordpool_576.txt	LTP260	ltpFR2	16	16	SCISSORS	1250	n/a	n/a	0	0	0
3729839	REC_WORD	wordpools/wasnorm_wordpool_576.txt	LTP260	ltpFR2	16	16	CROSS	413	n/a	n/a	0	0	0
3732193	REC_WORD	wordpools/wasnorm_wordpool_576.txt	LTP260	ltpFR2	16	16	BROTHER	179	n/a	n/a	0	0	0
3733165	REC_WORD	wordpools/wasnorm_wordpool_576.txt	LTP260	ltpFR2	16	16	BRACES	164	n/a	n/a	0	0	0
3736393	REC_WORD	wordpools/wasnorm_wordpool_576.txt	LTP260	ltpFR2	16	16	VENUS	1557	n/a	n/a	0	0	0
3737367	REC_WORD	wordpools/wasnorm_wordpool_576.txt	LTP260	ltpFR2	16	16	LIGHTNING	820	n/a	n/a	0	0	0
3740526	REC_WORD	wordpools/wasnorm_wordpool_576.txt	LTP260	ltpFR2	16	16	BLOCKADE	137	n/a	n/a	0	0	0
3741850	REC_WORD	wordpools/wasnorm_wordpool_576.txt	LTP260	ltpFR2	16	16	PEBBLE	1035	n/a	n/a	0	0	0
3772410	REST_REWET	n/a	LTP260	ltpFR2	16	16	n/a	n/a	n/a	n/a	0	0	0
4264921	DISTRACTOR	n/a	LTP260	ltpFR2	16	17	n/a	n/a	n/a	n/a	0	0	0
4264921	START	n/a	LTP260	ltpFR2	16	n/a	n/a	n/a	24	n/a	n/a	n/a	n/a
4264971	PROB	n/a	LTP260	ltpFR2	16	n/a	n/a	n/a	24	11	4	3	4
4266594	PROB	n/a	LTP260	ltpFR2	16	n/a	n/a	n/a	24	16	6	7	4
4268552	PROB	n/a	LTP260	ltpFR2	16	n/a	n/a	n/a	24	11	1	5	5
4269705	PROB	n/a	LTP260	ltpFR2	16	n/a	n/a	n/a	24	22	8	7	7
4270921	PROB	n/a	LTP260	ltpFR2	16	n/a	n/a	n/a	24	15	4	7	4
4272378	PROB	n/a	LTP260	ltpFR2	16	n/a	n/a	n/a	24	17	8	6	3
4273732	PROB	n/a	LTP260	ltpFR2	16	n/a	n/a	n/a	24	5	1	3	1
4274669	PROB	n/a	LTP260	ltpFR2	16	n/a	n/a	n/a	24	11	5	2	4
4275957	PROB	n/a	LTP260	ltpFR2	16	n/a	n/a	n/a	24	25	8	9	8
4277970	PROB	n/a	LTP260	ltpFR2	16	n/a	n/a	n/a	24	18	2	8	8
4279671	PROB	n/a	LTP260	ltpFR2	16	n/a	n/a	n/a	24	24	7	8	9
4281484	PROB	n/a	LTP260	ltpFR2	16	n/a	n/a	n/a	24	13	8	4	1
4283167	PROB	n/a	LTP260	ltpFR2	16	n/a	n/a	n/a	24	15	5	9	1
4284456	PROB	n/a	LTP260	ltpFR2	16	n/a	n/a	n/a	24	19	9	2	8
4285928	PROB	n/a	LTP260	ltpFR2	16	n/a	n/a	n/a	24	19	5	8	6
4287454	STOP	n/a	LTP260	ltpFR2	16	n/a	n/a	n/a	24	n/a	n/a	n/a	n/a
4289826	WORD	wordpools/wasnorm_wordpool_576.txt	LTP260	ltpFR2	16	17	MATTRESS	879	n/a	n/a	0	0	0
4292642	WORD	wordpools/wasnorm_wordpool_576.txt	LTP260	ltpFR2	16	17	SURVEY	1414	n/a	n/a	0	0	0
4295129	WORD	wordpools/wasnorm_wordpool_576.txt	LTP260	ltpFR2	16	17	REPORT	1184	n/a	n/a	0	0	0
4297828	WORD	wordpools/wasnorm_wordpool_576.txt	LTP260	ltpFR2	16	17	PARSLEY	1016	n/a	n/a	0	0	0
4300355	WORD	wordpools/wasnorm_wordpool_576.txt	LTP260	ltpFR2	16	17	OUTFIT	988	n/a	n/a	0	0	0
4303131	WORD	wordpools/wasnorm_wordpool_576.txt	LTP260	ltpFR2	16	17	ROBOT	1200	n/a	n/a	0	0	0
4305652	WORD	wordpools/wasnorm_wordpool_576.txt	LTP260	ltpFR2	16	17	MARROW	872	n/a	n/a	0	0	0
4308178	WORD	wordpools/wasnorm_wordpool_576.txt	LTP260	ltpFR2	16	17	BACKBONE	66	n/a	n/a	0	0	0
4310609	WORD	wordpools/wasnorm_wordpool_576.txt	LTP260	ltpFR2	16	17	MOP	916	n/a	n/a	0	0	0
4313349	WORD	wordpools/wasnorm_wordpool_576.txt	LTP260	ltpFR2	16	17	DUST	508	n/a	n/a	0	0	0
4316047	WORD	wordpools/wasnorm_wordpool_576.txt	LTP260	ltpFR2	16	17	CAFE	216	n/a	n/a	0	0	0
4318740	WORD	wordpools/wasnorm_wordpool_576.txt	LTP260	ltpFR2	16	17	REBEL	1172	n/a	n/a	0	0	0
4321227	WORD	wordpools/wasnorm_wordpool_576.txt	LTP260	ltpFR2	16	17	STAKE	1368	n/a	n/a	0	0	0
4323776	WORD	wordpools/wasnorm_wordpool_576.txt	LTP260	ltpFR2	16	17	WASHER	1592	n/a	n/a	0	0	0
4326520	WORD	wordpools/wasnorm_wordpool_576.txt	LTP260	ltpFR2	16	17	GRAVE	658	n/a	n/a	0	0	0
4329029	WORD	wordpools/wasnorm_wordpool_576.txt	LTP260	ltpFR2	16	17	FIREPLACE	570	n/a	n/a	0	0	0
4331583	WORD	wordpools/wasnorm_wordpool_576.txt	LTP260	ltpFR2	16	17	COMET	353	n/a	n/a	0	0	0
4334411	WORD	wordpools/wasnorm_wordpool_576.txt	LTP260	ltpFR2	16	17	FLASHLIGHT	575	n/a	n/a	0	0	0
4337093	WORD	wordpools/wasnorm_wordpool_576.txt	LTP260	ltpFR2	16	17	SADDLE	1221	n/a	n/a	0	0	0
4339536	WORD	wordpools/wasnorm_wordpool_576.txt	LTP260	ltpFR2	16	17	STALLION	1369	n/a	n/a	0	0	0
4342358	WORD	wordpools/wasnorm_wordpool_576.txt	LTP260	ltpFR2	16	17	LILY	821	n/a	n/a	0	0	0
4345073	WORD	wordpools/wasnorm_wordpool_576.txt	LTP260	ltpFR2	16	17	WAGON	1578	n/a	n/a	0	0	0
4347528	WORD	wordpools/wasnorm_wordpool_576.txt	LTP260	ltpFR2	16	17	SEAFOOD	1260	n/a	n/a	0	0	0
4350120	WORD	wordpools/wasnorm_wordpool_576.txt	LTP260	ltpFR2	16	17	MEDAL	885	n/a	n/a	0	0	0
4351731	START	n/a	LTP260	ltpFR2	16	n/a	n/a	n/a	25	n/a	n/a	n/a	n/a
4352789	DISTRACTOR	n/a	LTP260	ltpFR2	16	17	n/a	n/a	n/a	n/a	0	0	0
4352802	PROB	n/a	LTP260	ltpFR2	16	n/a	n/a	n/a	25	18	1	8	9
4354152	PROB	n/a	LTP260	ltpFR2	16	n/a	n/a	n/a	25	18	7	2	9
4356193	PROB	n/a	LTP260	ltpFR2	16	n/a	n/a	n/a	25	21	9	6	6
4357554	PROB	n/a	LTP260	ltpFR2	16	n/a	n/a	n/a	25	18	4	6	8
4358970	PROB	n/a	LTP260	ltpFR2	16	n/a	n/a	n/a	25	24	8	6	8
4360432	PROB	n/a	LTP260	ltpFR2	16	n/a	n/a	n/a	25	18	2	9	7
4362890	PROB	n/a	LTP260	ltpFR2	16	n/a	n/a	n/a	25	14	2	3	9
4364658	PROB	n/a	LTP260	ltpFR2	16	n/a	n/a	n/a	25	18	7	9	2
4366046	PROB	n/a	LTP260	ltpFR2	16	n/a	n/a	n/a	25	16	3	6	7
4367920	PROB	n/a	LTP260	ltpFR2	16	n/a	n/a	n/a	25	9	2	2	5
4369282	PROB	n/a	LTP260	ltpFR2	16	n/a	n/a	n/a	25	16	3	6	7
4371568	PROB	n/a	LTP260	ltpFR2	16	n/a	n/a	n/a	25	18	3	9	6
4375731	STOP	n/a	LTP260	ltpFR2	16	n/a	n/a	n/a	25	n/a	n/a	n/a	n/a
4377674	REC_START	n/a	LTP260	ltpFR2	16	17	n/a	n/a	n/a	n/a	0	0	0
4379706	REC_WORD	wordpools/wasnorm_wordpool_576.txt	LTP260	ltpFR2	16	17	GRAVE	658	n/a	n/a	0	0	0
4381732	REC_WORD	wordpools/wasnorm_wordpool_576.txt	LTP260	ltpFR2	16	17	LILY	821	n/a	n/a	0	0	0
4383015	REC_WORD	wordpools/wasnorm_wordpool_576.txt	LTP260	ltpFR2	16	17	COMET	353	n/a	n/a	0	0	0
4384298	REC_WORD	wordpools/wasnorm_wordpool_576.txt	LTP260	ltpFR2	16	17	STALLION	1369	n/a	n/a	0	0	0
4385570	REC_WORD	wordpools/wasnorm_wordpool_576.txt	LTP260	ltpFR2	16	17	SADDLE	1221	n/a	n/a	0	0	0
4386720	REC_WORD	wordpools/wasnorm_wordpool_576.txt	LTP260	ltpFR2	16	17	WAGON	1578	n/a	n/a	0	0	0
