onset	duration	trial_type	sample	stim_file	subject	experiment	session	trial	item_name	item_num	list	answer	test_x	test_y	test_z
209.56201171875	n/a	SESS_START	429183	n/a	LTP336	ltpFR2	22	n/a	n/a	n/a	n/a	n/a	0	0	0
222.8232421875	n/a	START	456342	n/a	LTP336	ltpFR2	22	n/a	n/a	n/a	-1	n/a	n/a	n/a	n/a
222.83642578125	n/a	PROB	456369	n/a	LTP336	ltpFR2	22	n/a	n/a	n/a	-1	20	6	9	5
227.2685546875	n/a	PROB	465446	n/a	LTP336	ltpFR2	22	n/a	n/a	n/a	-1	10	2	3	5
230.1611328125	n/a	PROB	471370	n/a	LTP336	ltpFR2	22	n/a	n/a	n/a	-1	18	3	8	7
232.0341796875	n/a	PROB	475206	n/a	LTP336	ltpFR2	22	n/a	n/a	n/a	-1	11	5	2	4
233.412109375	n/a	STOP	478028	n/a	LTP336	ltpFR2	22	n/a	n/a	n/a	-1	n/a	n/a	n/a	n/a
262.5322265625	n/a	DISTRACTOR	537666	n/a	LTP336	ltpFR2	22	1	n/a	n/a	n/a	n/a	0	0	0
262.5322265625	n/a	START	537666	n/a	LTP336	ltpFR2	22	n/a	n/a	n/a	1	n/a	n/a	n/a	n/a
262.54833984375	n/a	PROB	537699	n/a	LTP336	ltpFR2	22	n/a	n/a	n/a	1	17	8	1	8
264.4384765625	n/a	PROB	541570	n/a	LTP336	ltpFR2	22	n/a	n/a	n/a	1	23	8	9	6
267.748046875	n/a	PROB	548348	n/a	LTP336	ltpFR2	22	n/a	n/a	n/a	1	23	9	5	9
269.37109375	n/a	PROB	551672	n/a	LTP336	ltpFR2	22	n/a	n/a	n/a	1	17	8	7	2
271.52734375	n/a	PROB	556088	n/a	LTP336	ltpFR2	22	n/a	n/a	n/a	1	14	5	8	1
273.08203125	n/a	PROB	559272	n/a	LTP336	ltpFR2	22	n/a	n/a	n/a	1	24	7	9	8
275.2900390625	n/a	PROB	563794	n/a	LTP336	ltpFR2	22	n/a	n/a	n/a	1	23	8	6	9
277.24609375	n/a	PROB	567800	n/a	LTP336	ltpFR2	22	n/a	n/a	n/a	1	13	7	4	2
278.75	n/a	PROB	570880	n/a	LTP336	ltpFR2	22	n/a	n/a	n/a	1	4	1	2	1
280.171875	n/a	PROB	573792	n/a	LTP336	ltpFR2	22	n/a	n/a	n/a	1	12	2	1	9
281.35888671875	n/a	PROB	576223	n/a	LTP336	ltpFR2	22	n/a	n/a	n/a	1	24	8	7	9
284.5029296875	n/a	PROB	582662	n/a	LTP336	ltpFR2	22	n/a	n/a	n/a	1	17	9	1	7
285.71484375	n/a	STOP	585144	n/a	LTP336	ltpFR2	22	n/a	n/a	n/a	1	n/a	n/a	n/a	n/a
287.5458984375	n/a	WORD	588894	wordpools/wasnorm_wordpool_576.txt	LTP336	ltpFR2	22	1	ACTRESS	6	n/a	n/a	0	0	0
290.3544921875	n/a	WORD	594646	wordpools/wasnorm_wordpool_576.txt	LTP336	ltpFR2	22	1	WIFE	1609	n/a	n/a	0	0	0
293.11376953125	n/a	WORD	600297	wordpools/wasnorm_wordpool_576.txt	LTP336	ltpFR2	22	1	GUARD	667	n/a	n/a	0	0	0
295.83740234375	n/a	WORD	605875	wordpools/wasnorm_wordpool_576.txt	LTP336	ltpFR2	22	1	PLAZA	1088	n/a	n/a	0	0	0
298.48046875	n/a	WORD	611288	wordpools/wasnorm_wordpool_576.txt	LTP336	ltpFR2	22	1	FRAME	600	n/a	n/a	0	0	0
300.955078125	n/a	WORD	616356	wordpools/wasnorm_wordpool_576.txt	LTP336	ltpFR2	22	1	UNCLE	1536	n/a	n/a	0	0	0
303.5302734375	n/a	WORD	621630	wordpools/wasnorm_wordpool_576.txt	LTP336	ltpFR2	22	1	TRIBE	1505	n/a	n/a	0	0	0
306.27197265625	n/a	WORD	627245	wordpools/wasnorm_wordpool_576.txt	LTP336	ltpFR2	22	1	COWBOY	395	n/a	n/a	0	0	0
309.0478515625	n/a	WORD	632930	wordpools/wasnorm_wordpool_576.txt	LTP336	ltpFR2	22	1	CREVICE	405	n/a	n/a	0	0	0
311.63916015625	n/a	WORD	638237	wordpools/wasnorm_wordpool_576.txt	LTP336	ltpFR2	22	1	HERO	706	n/a	n/a	0	0	0
314.2978515625	n/a	WORD	643682	wordpools/wasnorm_wordpool_576.txt	LTP336	ltpFR2	22	1	LEADER	807	n/a	n/a	0	0	0
316.82177734375	n/a	WORD	648851	wordpools/wasnorm_wordpool_576.txt	LTP336	ltpFR2	22	1	RABBIT	1152	n/a	n/a	0	0	0
319.248046875	n/a	WORD	653820	wordpools/wasnorm_wordpool_576.txt	LTP336	ltpFR2	22	1	FOX	598	n/a	n/a	0	0	0
321.78759765625	n/a	WORD	659021	wordpools/wasnorm_wordpool_576.txt	LTP336	ltpFR2	22	1	COUSIN	392	n/a	n/a	0	0	0
324.49755859375	n/a	WORD	664571	wordpools/wasnorm_wordpool_576.txt	LTP336	ltpFR2	22	1	FOOTBALL	591	n/a	n/a	0	0	0
327.2734375	n/a	WORD	670256	wordpools/wasnorm_wordpool_576.txt	LTP336	ltpFR2	22	1	SKILLET	1317	n/a	n/a	0	0	0
329.8974609375	n/a	WORD	675630	wordpools/wasnorm_wordpool_576.txt	LTP336	ltpFR2	22	1	YOLK	1633	n/a	n/a	0	0	0
332.3896484375	n/a	WORD	680734	wordpools/wasnorm_wordpool_576.txt	LTP336	ltpFR2	22	1	TREAT	1501	n/a	n/a	0	0	0
334.84619140625	n/a	WORD	685765	wordpools/wasnorm_wordpool_576.txt	LTP336	ltpFR2	22	1	MAPLE	866	n/a	n/a	0	0	0
337.38916015625	n/a	WORD	690973	wordpools/wasnorm_wordpool_576.txt	LTP336	ltpFR2	22	1	BULLET	194	n/a	n/a	0	0	0
340.0810546875	n/a	WORD	696486	wordpools/wasnorm_wordpool_576.txt	LTP336	ltpFR2	22	1	CURTAIN	427	n/a	n/a	0	0	0
342.68798828125	n/a	WORD	701825	wordpools/wasnorm_wordpool_576.txt	LTP336	ltpFR2	22	1	DRAWING	494	n/a	n/a	0	0	0
345.26416015625	n/a	WORD	707101	wordpools/wasnorm_wordpool_576.txt	LTP336	ltpFR2	22	1	JAPAN	749	n/a	n/a	0	0	0
347.80517578125	n/a	WORD	712305	wordpools/wasnorm_wordpool_576.txt	LTP336	ltpFR2	22	1	AGENT	10	n/a	n/a	0	0	0
349.4111328125	n/a	START	715594	n/a	LTP336	ltpFR2	22	n/a	n/a	n/a	2	n/a	n/a	n/a	n/a
350.49609375	n/a	DISTRACTOR	717816	n/a	LTP336	ltpFR2	22	1	n/a	n/a	n/a	n/a	0	0	0
350.498046875	n/a	PROB	717820	n/a	LTP336	ltpFR2	22	n/a	n/a	n/a	2	11	1	4	6
352.287109375	n/a	PROB	721484	n/a	LTP336	ltpFR2	22	n/a	n/a	n/a	2	12	2	5	5
353.60693359375	n/a	PROB	724187	n/a	LTP336	ltpFR2	22	n/a	n/a	n/a	2	20	8	3	9
355.39697265625	n/a	PROB	727853	n/a	LTP336	ltpFR2	22	n/a	n/a	n/a	2	15	3	9	3
357.9716796875	n/a	PROB	733126	n/a	LTP336	ltpFR2	22	n/a	n/a	n/a	2	23	9	7	7
359.69287109375	n/a	PROB	736651	n/a	LTP336	ltpFR2	22	n/a	n/a	n/a	2	15	2	8	5
361.24853515625	n/a	PROB	739837	n/a	LTP336	ltpFR2	22	n/a	n/a	n/a	2	10	3	2	5
363.53955078125	n/a	PROB	744529	n/a	LTP336	ltpFR2	22	n/a	n/a	n/a	2	10	3	2	5
365.6123046875	n/a	PROB	748774	n/a	LTP336	ltpFR2	22	n/a	n/a	n/a	2	17	5	5	7
367.03466796875	n/a	PROB	751687	n/a	LTP336	ltpFR2	22	n/a	n/a	n/a	2	12	4	7	1
368.53955078125	n/a	PROB	754769	n/a	LTP336	ltpFR2	22	n/a	n/a	n/a	2	27	9	9	9
370.54541015625	n/a	PROB	758877	n/a	LTP336	ltpFR2	22	n/a	n/a	n/a	2	15	3	8	4
372.42041015625	n/a	STOP	762717	n/a	LTP336	ltpFR2	22	n/a	n/a	n/a	2	n/a	n/a	n/a	n/a
375.29541015625	n/a	REC_START	768605	n/a	LTP336	ltpFR2	22	1	n/a	n/a	n/a	n/a	0	0	0
375.7041015625	n/a	REC_WORD	769442	wordpools/wasnorm_wordpool_576.txt	LTP336	ltpFR2	22	1	DRAWING	494	n/a	n/a	0	0	0
376.60546875	n/a	REC_WORD	771288	wordpools/wasnorm_wordpool_576.txt	LTP336	ltpFR2	22	1	JAPAN	749	n/a	n/a	0	0	0
377.75	n/a	REC_WORD	773632	wordpools/wasnorm_wordpool_576.txt	LTP336	ltpFR2	22	1	AGENT	10	n/a	n/a	0	0	0
379.0341796875	n/a	REC_WORD	776262	wordpools/wasnorm_wordpool_576.txt	LTP336	ltpFR2	22	1	MAPLE	866	n/a	n/a	0	0	0
380.416015625	n/a	REC_WORD	779092	wordpools/wasnorm_wordpool_576.txt	LTP336	ltpFR2	22	1	BULLET	194	n/a	n/a	0	0	0
381.38623046875	n/a	REC_WORD	781079	wordpools/wasnorm_wordpool_576.txt	LTP336	ltpFR2	22	1	YOLK	1633	n/a	n/a	0	0	0
382.18798828125	n/a	REC_WORD	782721	wordpools/wasnorm_wordpool_576.txt	LTP336	ltpFR2	22	1	FOOTBALL	591	n/a	n/a	0	0	0
383.30126953125	n/a	REC_WORD	785001	wordpools/wasnorm_wordpool_576.txt	LTP336	ltpFR2	22	1	SKILLET	1317	n/a	n/a	0	0	0
384.7177734375	n/a	REC_WORD	787902	wordpools/wasnorm_wordpool_576.txt	LTP336	ltpFR2	22	1	ACTRESS	6	n/a	n/a	0	0	0
385.8310546875	n/a	REC_WORD	790182	wordpools/wasnorm_wordpool_576.txt	LTP336	ltpFR2	22	1	CREVICE	405	n/a	n/a	0	0	0
388.46875	n/a	REC_WORD	795584	wordpools/wasnorm_wordpool_576.txt	LTP336	ltpFR2	22	1	HERO	706	n/a	n/a	0	0	0
389.98974609375	n/a	REC_WORD	798699	wordpools/wasnorm_wordpool_576.txt	LTP336	ltpFR2	22	1	LEADER	807	n/a	n/a	0	0	0
391.041015625	n/a	REC_WORD	800852	wordpools/wasnorm_wordpool_576.txt	LTP336	ltpFR2	22	1	RABBIT	1152	n/a	n/a	0	0	0
392.34375	n/a	REC_WORD	803520	wordpools/wasnorm_wordpool_576.txt	LTP336	ltpFR2	22	1	FOX	598	n/a	n/a	0	0	0
393.28173828125	n/a	REC_WORD	805441	wordpools/wasnorm_wordpool_576.txt	LTP336	ltpFR2	22	1	COUSIN	392	n/a	n/a	0	0	0
465.73388671875	n/a	DISTRACTOR	953823	n/a	LTP336	ltpFR2	22	2	n/a	n/a	n/a	n/a	0	0	0
465.73388671875	n/a	START	953823	n/a	LTP336	ltpFR2	22	n/a	n/a	n/a	3	n/a	n/a	n/a	n/a
465.7509765625	n/a	PROB	953858	n/a	LTP336	ltpFR2	22	n/a	n/a	n/a	3	17	6	2	9
469.16259765625	n/a	PROB	960845	n/a	LTP336	ltpFR2	22	n/a	n/a	n/a	3	20	4	7	9
471.88671875	n/a	PROB	966424	n/a	LTP336	ltpFR2	22	n/a	n/a	n/a	3	13	1	9	3
473.1083984375	n/a	PROB	968926	n/a	LTP336	ltpFR2	22	n/a	n/a	n/a	3	15	5	4	6
474.71240234375	n/a	PROB	972211	n/a	LTP336	ltpFR2	22	n/a	n/a	n/a	3	16	1	6	9
476.1015625	n/a	PROB	975056	n/a	LTP336	ltpFR2	22	n/a	n/a	n/a	3	24	9	7	8
479.21142578125	n/a	PROB	981425	n/a	LTP336	ltpFR2	22	n/a	n/a	n/a	3	10	1	6	3
480.41552734375	n/a	PROB	983891	n/a	LTP336	ltpFR2	22	n/a	n/a	n/a	3	18	9	5	4
482.1201171875	n/a	PROB	987382	n/a	LTP336	ltpFR2	22	n/a	n/a	n/a	3	19	8	9	2
485.0634765625	n/a	PROB	993410	n/a	LTP336	ltpFR2	22	n/a	n/a	n/a	3	15	8	2	5
486.26708984375	n/a	PROB	995875	n/a	LTP336	ltpFR2	22	n/a	n/a	n/a	3	18	9	5	4
487.72119140625	n/a	PROB	998853	n/a	LTP336	ltpFR2	22	n/a	n/a	n/a	3	20	8	4	8
489.15625	n/a	STOP	1001792	n/a	LTP336	ltpFR2	22	n/a	n/a	n/a	3	n/a	n/a	n/a	n/a
490.8310546875	n/a	WORD	1005222	wordpools/wasnorm_wordpool_576.txt	LTP336	ltpFR2	22	2	PLAYGROUND	1087	n/a	n/a	0	0	0
493.45703125	n/a	WORD	1010600	wordpools/wasnorm_wordpool_576.txt	LTP336	ltpFR2	22	2	BRICK	172	n/a	n/a	0	0	0
496.11572265625	n/a	WORD	1016045	wordpools/wasnorm_wordpool_576.txt	LTP336	ltpFR2	22	2	SWITCH	1422	n/a	n/a	0	0	0
498.83984375	n/a	WORD	1021624	wordpools/wasnorm_wordpool_576.txt	LTP336	ltpFR2	22	2	GRILL	661	n/a	n/a	0	0	0
501.39892578125	n/a	WORD	1026865	wordpools/wasnorm_wordpool_576.txt	LTP336	ltpFR2	22	2	BALLOON	75	n/a	n/a	0	0	0
504.1748046875	n/a	WORD	1032550	wordpools/wasnorm_wordpool_576.txt	LTP336	ltpFR2	22	2	COCKTAIL	338	n/a	n/a	0	0	0
506.8154296875	n/a	WORD	1037958	wordpools/wasnorm_wordpool_576.txt	LTP336	ltpFR2	22	2	TURKEY	1520	n/a	n/a	0	0	0
509.44140625	n/a	WORD	1043336	wordpools/wasnorm_wordpool_576.txt	LTP336	ltpFR2	22	2	KNAPSACK	783	n/a	n/a	0	0	0
512.06640625	n/a	WORD	1048712	wordpools/wasnorm_wordpool_576.txt	LTP336	ltpFR2	22	2	PASSAGE	1019	n/a	n/a	0	0	0
514.62451171875	n/a	WORD	1053951	wordpools/wasnorm_wordpool_576.txt	LTP336	ltpFR2	22	2	LOVER	846	n/a	n/a	0	0	0
517.33349609375	n/a	WORD	1059499	wordpools/wasnorm_wordpool_576.txt	LTP336	ltpFR2	22	2	PARTNER	1017	n/a	n/a	0	0	0
519.95947265625	n/a	WORD	1064877	wordpools/wasnorm_wordpool_576.txt	LTP336	ltpFR2	22	2	DOUGHNUT	490	n/a	n/a	0	0	0
522.5830078125	n/a	WORD	1070250	wordpools/wasnorm_wordpool_576.txt	LTP336	ltpFR2	22	2	SMOG	1330	n/a	n/a	0	0	0
525.0751953125	n/a	WORD	1075354	wordpools/wasnorm_wordpool_576.txt	LTP336	ltpFR2	22	2	SHIRT	1287	n/a	n/a	0	0	0
527.80029296875	n/a	WORD	1080935	wordpools/wasnorm_wordpool_576.txt	LTP336	ltpFR2	22	2	CITRUS	313	n/a	n/a	0	0	0
530.3759765625	n/a	WORD	1086210	wordpools/wasnorm_wordpool_576.txt	LTP336	ltpFR2	22	2	SPACE	1345	n/a	n/a	0	0	0
532.8828125	n/a	WORD	1091344	wordpools/wasnorm_wordpool_576.txt	LTP336	ltpFR2	22	2	COTTAGE	384	n/a	n/a	0	0	0
535.57470703125	n/a	WORD	1096857	wordpools/wasnorm_wordpool_576.txt	LTP336	ltpFR2	22	2	RAFT	1159	n/a	n/a	0	0	0
538.31787109375	n/a	WORD	1102475	wordpools/wasnorm_wordpool_576.txt	LTP336	ltpFR2	22	2	CLOUD	328	n/a	n/a	0	0	0
541.10986328125	n/a	WORD	1108193	wordpools/wasnorm_wordpool_576.txt	LTP336	ltpFR2	22	2	TURTLE	1522	n/a	n/a	0	0	0
543.7177734375	n/a	WORD	1113534	wordpools/wasnorm_wordpool_576.txt	LTP336	ltpFR2	22	2	CLAM	315	n/a	n/a	0	0	0
546.3935546875	n/a	WORD	1119014	wordpools/wasnorm_wordpool_576.txt	LTP336	ltpFR2	22	2	DIVER	476	n/a	n/a	0	0	0
549.052734375	n/a	WORD	1124460	wordpools/wasnorm_wordpool_576.txt	LTP336	ltpFR2	22	2	COIN	343	n/a	n/a	0	0	0
551.7265625	n/a	WORD	1129936	wordpools/wasnorm_wordpool_576.txt	LTP336	ltpFR2	22	2	APRON	35	n/a	n/a	0	0	0
553.33349609375	n/a	START	1133227	n/a	LTP336	ltpFR2	22	n/a	n/a	n/a	4	n/a	n/a	n/a	n/a
554.2841796875	n/a	DISTRACTOR	1135174	n/a	LTP336	ltpFR2	22	2	n/a	n/a	n/a	n/a	0	0	0
554.28515625	n/a	PROB	1135176	n/a	LTP336	ltpFR2	22	n/a	n/a	n/a	4	14	4	9	1
556.42626953125	n/a	PROB	1139561	n/a	LTP336	ltpFR2	22	n/a	n/a	n/a	4	6	3	2	1
557.96435546875	n/a	PROB	1142711	n/a	LTP336	ltpFR2	22	n/a	n/a	n/a	4	15	2	8	5
559.28515625	n/a	PROB	1145416	n/a	LTP336	ltpFR2	22	n/a	n/a	n/a	4	19	9	9	1
560.55615234375	n/a	PROB	1148019	n/a	LTP336	ltpFR2	22	n/a	n/a	n/a	4	5	1	2	2
561.80908203125	n/a	PROB	1150585	n/a	LTP336	ltpFR2	22	n/a	n/a	n/a	4	16	9	1	6
563.0302734375	n/a	PROB	1153086	n/a	LTP336	ltpFR2	22	n/a	n/a	n/a	4	21	8	9	4
566.94287109375	n/a	PROB	1161099	n/a	LTP336	ltpFR2	22	n/a	n/a	n/a	4	22	9	4	9
568.23095703125	n/a	PROB	1163737	n/a	LTP336	ltpFR2	22	n/a	n/a	n/a	4	20	2	9	9
570.02001953125	n/a	PROB	1167401	n/a	LTP336	ltpFR2	22	n/a	n/a	n/a	4	13	1	6	6
571.32373046875	n/a	PROB	1170071	n/a	LTP336	ltpFR2	22	n/a	n/a	n/a	4	12	9	2	1
572.5107421875	n/a	PROB	1172502	n/a	LTP336	ltpFR2	22	n/a	n/a	n/a	4	24	9	7	7
575.7958984375	n/a	STOP	1179230	n/a	LTP336	ltpFR2	22	n/a	n/a	n/a	4	n/a	n/a	n/a	n/a
579.08251953125	n/a	REC_START	1185961	n/a	LTP336	ltpFR2	22	2	n/a	n/a	n/a	n/a	0	0	0
579.66259765625	n/a	REC_WORD	1187149	wordpools/wasnorm_wordpool_576.txt	LTP336	ltpFR2	22	2	TURTLE	1522	n/a	n/a	0	0	0
580.3984375	n/a	REC_WORD	1188656	wordpools/wasnorm_wordpool_576.txt	LTP336	ltpFR2	22	2	CLAM	315	n/a	n/a	0	0	0
581.37158203125	n/a	REC_WORD	1190649	wordpools/wasnorm_wordpool_576.txt	LTP336	ltpFR2	22	2	COIN	343	n/a	n/a	0	0	0
582.4287109375	n/a	REC_WORD	1192814	wordpools/wasnorm_wordpool_576.txt	LTP336	ltpFR2	22	2	DIVER	476	n/a	n/a	0	0	0
583.91064453125	n/a	REC_WORD	1195849	wordpools/wasnorm_wordpool_576.txt	LTP336	ltpFR2	22	2	APRON	35	n/a	n/a	0	0	0
586.1376953125	n/a	REC_WORD	1200410	wordpools/wasnorm_wordpool_576.txt	LTP336	ltpFR2	22	2	COCKTAIL	338	n/a	n/a	0	0	0
587.20361328125	n/a	REC_WORD	1202593	wordpools/wasnorm_wordpool_576.txt	LTP336	ltpFR2	22	2	TURKEY	1520	n/a	n/a	0	0	0
588.36328125	n/a	REC_WORD	1204968	wordpools/wasnorm_wordpool_576.txt	LTP336	ltpFR2	22	2	BALLOON	75	n/a	n/a	0	0	0
589.45361328125	n/a	REC_WORD	1207201	wordpools/wasnorm_wordpool_576.txt	LTP336	ltpFR2	22	2	GRILL	661	n/a	n/a	0	0	0
590.5283203125	n/a	REC_WORD	1209402	wordpools/wasnorm_wordpool_576.txt	LTP336	ltpFR2	22	2	SWITCH	1422	n/a	n/a	0	0	0
592.9140625	n/a	REC_WORD	1214288	wordpools/wasnorm_wordpool_576.txt	LTP336	ltpFR2	22	2	SPACE	1345	n/a	n/a	0	0	0
593.79931640625	n/a	REC_WORD	1216101	wordpools/wasnorm_wordpool_576.txt	LTP336	ltpFR2	22	2	COTTAGE	384	n/a	n/a	0	0	0
669.52197265625	n/a	DISTRACTOR	1371181	n/a	LTP336	ltpFR2	22	3	n/a	n/a	n/a	n/a	0	0	0
669.52294921875	n/a	START	1371183	n/a	LTP336	ltpFR2	22	n/a	n/a	n/a	5	n/a	n/a	n/a	n/a
669.5390625	n/a	PROB	1371216	n/a	LTP336	ltpFR2	22	n/a	n/a	n/a	5	20	6	8	6
674.5390625	n/a	PROB	1381456	n/a	LTP336	ltpFR2	22	n/a	n/a	n/a	5	12	6	5	1
676.328125	n/a	PROB	1385120	n/a	LTP336	ltpFR2	22	n/a	n/a	n/a	5	12	2	6	4
677.6640625	n/a	PROB	1387856	n/a	LTP336	ltpFR2	22	n/a	n/a	n/a	5	18	6	9	3
679.9560546875	n/a	PROB	1392550	n/a	LTP336	ltpFR2	22	n/a	n/a	n/a	5	18	7	2	9
681.36083984375	n/a	PROB	1395427	n/a	LTP336	ltpFR2	22	n/a	n/a	n/a	5	16	8	3	5
682.9990234375	n/a	PROB	1398782	n/a	LTP336	ltpFR2	22	n/a	n/a	n/a	5	27	9	9	9
684.38671875	n/a	PROB	1401624	n/a	LTP336	ltpFR2	22	n/a	n/a	n/a	5	22	7	7	8
686.0087890625	n/a	PROB	1404946	n/a	LTP336	ltpFR2	22	n/a	n/a	n/a	5	16	6	7	3
687.4638671875	n/a	PROB	1407926	n/a	LTP336	ltpFR2	22	n/a	n/a	n/a	5	12	3	6	3
688.83349609375	n/a	PROB	1410731	n/a	LTP336	ltpFR2	22	n/a	n/a	n/a	5	19	7	9	3
690.47265625	n/a	PROB	1414088	n/a	LTP336	ltpFR2	22	n/a	n/a	n/a	5	18	8	7	3
691.759765625	n/a	PROB	1416724	n/a	LTP336	ltpFR2	22	n/a	n/a	n/a	5	12	2	3	7
693.236328125	n/a	STOP	1419748	n/a	LTP336	ltpFR2	22	n/a	n/a	n/a	5	n/a	n/a	n/a	n/a
694.50244140625	n/a	WORD	1422341	wordpools/wasnorm_wordpool_576.txt	LTP336	ltpFR2	22	3	GIFT	635	n/a	n/a	0	0	0
697.04443359375	n/a	WORD	1427547	wordpools/wasnorm_wordpool_576.txt	LTP336	ltpFR2	22	3	CRAYON	401	n/a	n/a	0	0	0
699.701171875	n/a	WORD	1432988	wordpools/wasnorm_wordpool_576.txt	LTP336	ltpFR2	22	3	SPONGE	1355	n/a	n/a	0	0	0
702.21142578125	n/a	WORD	1438129	wordpools/wasnorm_wordpool_576.txt	LTP336	ltpFR2	22	3	FREEZER	604	n/a	n/a	0	0	0
704.986328125	n/a	WORD	1443812	wordpools/wasnorm_wordpool_576.txt	LTP336	ltpFR2	22	3	OFFICE	972	n/a	n/a	0	0	0
707.4609375	n/a	WORD	1448880	wordpools/wasnorm_wordpool_576.txt	LTP336	ltpFR2	22	3	CATCHER	258	n/a	n/a	0	0	0
709.96923828125	n/a	WORD	1454017	wordpools/wasnorm_wordpool_576.txt	LTP336	ltpFR2	22	3	CHEST	295	n/a	n/a	0	0	0
712.64306640625	n/a	WORD	1459493	wordpools/wasnorm_wordpool_576.txt	LTP336	ltpFR2	22	3	CANAL	226	n/a	n/a	0	0	0
715.3701171875	n/a	WORD	1465078	wordpools/wasnorm_wordpool_576.txt	LTP336	ltpFR2	22	3	COCOON	339	n/a	n/a	0	0	0
717.99462890625	n/a	WORD	1470453	wordpools/wasnorm_wordpool_576.txt	LTP336	ltpFR2	22	3	PIGMENT	1066	n/a	n/a	0	0	0
720.6015625	n/a	WORD	1475792	wordpools/wasnorm_wordpool_576.txt	LTP336	ltpFR2	22	3	FLESH	579	n/a	n/a	0	0	0
723.2119140625	n/a	WORD	1481138	wordpools/wasnorm_wordpool_576.txt	LTP336	ltpFR2	22	3	ULCER	1533	n/a	n/a	0	0	0
725.9365234375	n/a	WORD	1486718	wordpools/wasnorm_wordpool_576.txt	LTP336	ltpFR2	22	3	SKIRT	1319	n/a	n/a	0	0	0
728.5947265625	n/a	WORD	1492162	wordpools/wasnorm_wordpool_576.txt	LTP336	ltpFR2	22	3	CLIMBER	323	n/a	n/a	0	0	0
731.3876953125	n/a	WORD	1497882	wordpools/wasnorm_wordpool_576.txt	LTP336	ltpFR2	22	3	SLOPE	1328	n/a	n/a	0	0	0
733.91259765625	n/a	WORD	1503053	wordpools/wasnorm_wordpool_576.txt	LTP336	ltpFR2	22	3	CRUTCH	417	n/a	n/a	0	0	0
736.50439453125	n/a	WORD	1508361	wordpools/wasnorm_wordpool_576.txt	LTP336	ltpFR2	22	3	LIVER	833	n/a	n/a	0	0	0
739.04638671875	n/a	WORD	1513567	wordpools/wasnorm_wordpool_576.txt	LTP336	ltpFR2	22	3	RADISH	1158	n/a	n/a	0	0	0
741.50341796875	n/a	WORD	1518599	wordpools/wasnorm_wordpool_576.txt	LTP336	ltpFR2	22	3	NOTEBOOK	959	n/a	n/a	0	0	0
743.92822265625	n/a	WORD	1523565	wordpools/wasnorm_wordpool_576.txt	LTP336	ltpFR2	22	3	MARKER	870	n/a	n/a	0	0	0
746.6689453125	n/a	WORD	1529178	wordpools/wasnorm_wordpool_576.txt	LTP336	ltpFR2	22	3	SPIDER	1351	n/a	n/a	0	0	0
749.27880859375	n/a	WORD	1534523	wordpools/wasnorm_wordpool_576.txt	LTP336	ltpFR2	22	3	CRITIC	410	n/a	n/a	0	0	0
751.98681640625	n/a	WORD	1540069	wordpools/wasnorm_wordpool_576.txt	LTP336	ltpFR2	22	3	WAITER	1580	n/a	n/a	0	0	0
754.51171875	n/a	WORD	1545240	wordpools/wasnorm_wordpool_576.txt	LTP336	ltpFR2	22	3	IDOL	733	n/a	n/a	0	0	0
756.11767578125	n/a	START	1548529	n/a	LTP336	ltpFR2	22	n/a	n/a	n/a	6	n/a	n/a	n/a	n/a
757.24853515625	n/a	DISTRACTOR	1550845	n/a	LTP336	ltpFR2	22	3	n/a	n/a	n/a	n/a	0	0	0
757.2548828125	n/a	PROB	1550858	n/a	LTP336	ltpFR2	22	n/a	n/a	n/a	6	14	3	2	9
759.794921875	n/a	PROB	1556060	n/a	LTP336	ltpFR2	22	n/a	n/a	n/a	6	14	3	5	6
762.08642578125	n/a	PROB	1560753	n/a	LTP336	ltpFR2	22	n/a	n/a	n/a	6	16	9	6	1
763.40771484375	n/a	PROB	1563459	n/a	LTP336	ltpFR2	22	n/a	n/a	n/a	6	10	3	1	6
764.62646484375	n/a	PROB	1565955	n/a	LTP336	ltpFR2	22	n/a	n/a	n/a	6	21	8	9	4
767.11962890625	n/a	PROB	1571061	n/a	LTP336	ltpFR2	22	n/a	n/a	n/a	6	5	1	1	3
768.28955078125	n/a	PROB	1573457	n/a	LTP336	ltpFR2	22	n/a	n/a	n/a	6	19	2	8	9
769.76025390625	n/a	PROB	1576469	n/a	LTP336	ltpFR2	22	n/a	n/a	n/a	6	15	4	8	3
771.33251953125	n/a	PROB	1579689	n/a	LTP336	ltpFR2	22	n/a	n/a	n/a	6	17	7	1	9
773.00537109375	n/a	PROB	1583115	n/a	LTP336	ltpFR2	22	n/a	n/a	n/a	6	14	5	2	7
774.4931640625	n/a	PROB	1586162	n/a	LTP336	ltpFR2	22	n/a	n/a	n/a	6	15	9	5	1
775.67919921875	n/a	PROB	1588591	n/a	LTP336	ltpFR2	22	n/a	n/a	n/a	6	12	4	3	5
777.486328125	n/a	PROB	1592292	n/a	LTP336	ltpFR2	22	n/a	n/a	n/a	6	23	8	8	7
779.27734375	n/a	STOP	1595960	n/a	LTP336	ltpFR2	22	n/a	n/a	n/a	6	n/a	n/a	n/a	n/a
781.9169921875	n/a	REC_START	1601366	n/a	LTP336	ltpFR2	22	3	n/a	n/a	n/a	n/a	0	0	0
782.47998046875	n/a	REC_WORD	1602519	wordpools/wasnorm_wordpool_576.txt	LTP336	ltpFR2	22	3	SPIDER	1351	n/a	n/a	0	0	0
783.42626953125	n/a	REC_WORD	1604457	wordpools/wasnorm_wordpool_576.txt	LTP336	ltpFR2	22	3	CRICKET	408	n/a	n/a	0	0	0
784.57421875	n/a	REC_WORD	1606808	wordpools/wasnorm_wordpool_576.txt	LTP336	ltpFR2	22	3	IDOL	733	n/a	n/a	0	0	0
785.60498046875	n/a	REC_WORD	1608919	wordpools/wasnorm_wordpool_576.txt	LTP336	ltpFR2	22	3	WAITRESS	1581	n/a	n/a	0	0	0
787.4091796875	n/a	REC_WORD	1612614	wordpools/wasnorm_wordpool_576.txt	LTP336	ltpFR2	22	3	COCOON	339	n/a	n/a	0	0	0
788.5849609375	n/a	REC_WORD	1615022	wordpools/wasnorm_wordpool_576.txt	LTP336	ltpFR2	22	3	CANAL	226	n/a	n/a	0	0	0
790.05078125	n/a	REC_WORD	1618024	wordpools/wasnorm_wordpool_576.txt	LTP336	ltpFR2	22	3	PIGMENT	1066	n/a	n/a	0	0	0
792.041015625	n/a	REC_WORD	1622100	wordpools/wasnorm_wordpool_576.txt	LTP336	ltpFR2	22	3	CATCHER	258	n/a	n/a	0	0	0
794.015625	n/a	REC_WORD	1626144	wordpools/wasnorm_wordpool_576.txt	LTP336	ltpFR2	22	3	SPONGE	1355	n/a	n/a	0	0	0
795.6416015625	n/a	REC_WORD	1629474	wordpools/wasnorm_wordpool_576.txt	LTP336	ltpFR2	22	3	FREEZER	604	n/a	n/a	0	0	0
796.8798828125	n/a	REC_WORD	1632010	wordpools/wasnorm_wordpool_576.txt	LTP336	ltpFR2	22	3	CRAYON	401	n/a	n/a	0	0	0
797.9375	n/a	REC_WORD	1634176	wordpools/wasnorm_wordpool_576.txt	LTP336	ltpFR2	22	3	GIFT	635	n/a	n/a	0	0	0
872.37353515625	n/a	WORD	1786621	wordpools/wasnorm_wordpool_576.txt	LTP336	ltpFR2	22	4	SCALPEL	1243	n/a	n/a	0	0	0
874.91552734375	n/a	WORD	1791827	wordpools/wasnorm_wordpool_576.txt	LTP336	ltpFR2	22	4	SIDEWALK	1303	n/a	n/a	0	0	0
877.5732421875	n/a	WORD	1797270	wordpools/wasnorm_wordpool_576.txt	LTP336	ltpFR2	22	4	BOARD	143	n/a	n/a	0	0	0
880.0654296875	n/a	WORD	1802374	wordpools/wasnorm_wordpool_576.txt	LTP336	ltpFR2	22	4	WINDOW	1611	n/a	n/a	0	0	0
882.87353515625	n/a	WORD	1808125	wordpools/wasnorm_wordpool_576.txt	LTP336	ltpFR2	22	4	TUBA	1515	n/a	n/a	0	0	0
885.43212890625	n/a	WORD	1813365	wordpools/wasnorm_wordpool_576.txt	LTP336	ltpFR2	22	4	DORM	488	n/a	n/a	0	0	0
888.00732421875	n/a	WORD	1818639	wordpools/wasnorm_wordpool_576.txt	LTP336	ltpFR2	22	4	PADDING	999	n/a	n/a	0	0	0
890.46533203125	n/a	WORD	1823673	wordpools/wasnorm_wordpool_576.txt	LTP336	ltpFR2	22	4	COUCH	386	n/a	n/a	0	0	0
893.2412109375	n/a	WORD	1829358	wordpools/wasnorm_wordpool_576.txt	LTP336	ltpFR2	22	4	GHETTO	633	n/a	n/a	0	0	0
895.93310546875	n/a	WORD	1834871	wordpools/wasnorm_wordpool_576.txt	LTP336	ltpFR2	22	4	GAVEL	627	n/a	n/a	0	0	0
898.74072265625	n/a	WORD	1840621	wordpools/wasnorm_wordpool_576.txt	LTP336	ltpFR2	22	4	BLACKBOARD	133	n/a	n/a	0	0	0
901.2998046875	n/a	WORD	1845862	wordpools/wasnorm_wordpool_576.txt	LTP336	ltpFR2	22	4	WHISTLE	1606	n/a	n/a	0	0	0
903.8076171875	n/a	WORD	1850998	wordpools/wasnorm_wordpool_576.txt	LTP336	ltpFR2	22	4	COLONEL	348	n/a	n/a	0	0	0
906.41650390625	n/a	WORD	1856341	wordpools/wasnorm_wordpool_576.txt	LTP336	ltpFR2	22	4	MISSILE	900	n/a	n/a	0	0	0
909.07568359375	n/a	WORD	1861787	wordpools/wasnorm_wordpool_576.txt	LTP336	ltpFR2	22	4	CRATER	400	n/a	n/a	0	0	0
911.849609375	n/a	WORD	1867468	wordpools/wasnorm_wordpool_576.txt	LTP336	ltpFR2	22	4	HIKER	708	n/a	n/a	0	0	0
914.42529296875	n/a	WORD	1872743	wordpools/wasnorm_wordpool_576.txt	LTP336	ltpFR2	22	4	PACKAGE	997	n/a	n/a	0	0	0
917.0673828125	n/a	WORD	1878154	wordpools/wasnorm_wordpool_576.txt	LTP336	ltpFR2	22	4	BOX	159	n/a	n/a	0	0	0
919.50830078125	n/a	WORD	1883153	wordpools/wasnorm_wordpool_576.txt	LTP336	ltpFR2	22	4	SKETCH	1315	n/a	n/a	0	0	0
922.30126953125	n/a	WORD	1888873	wordpools/wasnorm_wordpool_576.txt	LTP336	ltpFR2	22	4	SERVANT	1271	n/a	n/a	0	0	0
924.92626953125	n/a	WORD	1894249	wordpools/wasnorm_wordpool_576.txt	LTP336	ltpFR2	22	4	PEBBLE	1035	n/a	n/a	0	0	0
927.6171875	n/a	WORD	1899760	wordpools/wasnorm_wordpool_576.txt	LTP336	ltpFR2	22	4	LODGE	839	n/a	n/a	0	0	0
930.16015625	n/a	WORD	1904968	wordpools/wasnorm_wordpool_576.txt	LTP336	ltpFR2	22	4	POCKET	1093	n/a	n/a	0	0	0
932.9521484375	n/a	WORD	1910686	wordpools/wasnorm_wordpool_576.txt	LTP336	ltpFR2	22	4	DANDRUFF	439	n/a	n/a	0	0	0
934.5556640625	n/a	START	1913970	n/a	LTP336	ltpFR2	22	n/a	n/a	n/a	7	n/a	n/a	n/a	n/a
935.556640625	n/a	DISTRACTOR	1916020	n/a	LTP336	ltpFR2	22	4	n/a	n/a	n/a	n/a	0	0	0
935.55908203125	n/a	PROB	1916025	n/a	LTP336	ltpFR2	22	n/a	n/a	n/a	7	18	6	6	6
937.5830078125	n/a	PROB	1920170	n/a	LTP336	ltpFR2	22	n/a	n/a	n/a	7	8	3	2	3
939.53955078125	n/a	PROB	1924177	n/a	LTP336	ltpFR2	22	n/a	n/a	n/a	7	13	7	5	1
941.37890625	n/a	PROB	1927944	n/a	LTP336	ltpFR2	22	n/a	n/a	n/a	7	15	3	3	9
943.25146484375	n/a	PROB	1931779	n/a	LTP336	ltpFR2	22	n/a	n/a	n/a	7	19	6	6	7
944.9404296875	n/a	PROB	1935238	n/a	LTP336	ltpFR2	22	n/a	n/a	n/a	7	20	9	5	6
948.16748046875	n/a	PROB	1941847	n/a	LTP336	ltpFR2	22	n/a	n/a	n/a	7	17	5	4	8
952.23046875	n/a	PROB	1950168	n/a	LTP336	ltpFR2	22	n/a	n/a	n/a	7	20	6	9	5
958.55517578125	n/a	STOP	1963121	n/a	LTP336	ltpFR2	22	n/a	n/a	n/a	7	n/a	n/a	n/a	n/a
960.39013671875	n/a	REC_START	1966879	n/a	LTP336	ltpFR2	22	4	n/a	n/a	n/a	n/a	0	0	0
960.88232421875	n/a	REC_WORD	1967887	wordpools/wasnorm_wordpool_576.txt	LTP336	ltpFR2	22	4	LODGE	839	n/a	n/a	0	0	0
961.7900390625	n/a	REC_WORD	1969746	wordpools/wasnorm_wordpool_576.txt	LTP336	ltpFR2	22	4	POCKET	1093	n/a	n/a	0	0	0
963.037109375	n/a	REC_WORD	1972300	wordpools/wasnorm_wordpool_576.txt	LTP336	ltpFR2	22	4	DANDRUFF	439	n/a	n/a	0	0	0
966.14208984375	n/a	REC_WORD	1978659	wordpools/wasnorm_wordpool_576.txt	LTP336	ltpFR2	22	4	HIKER	708	n/a	n/a	0	0	0
967.07080078125	n/a	REC_WORD	1980561	wordpools/wasnorm_wordpool_576.txt	LTP336	ltpFR2	22	4	SKETCH	1315	n/a	n/a	0	0	0
968.130859375	n/a	REC_WORD	1982732	wordpools/wasnorm_wordpool_576.txt	LTP336	ltpFR2	22	4	PEBBLE	1035	n/a	n/a	0	0	0
1050.82958984375	n/a	DISTRACTOR	2152099	n/a	LTP336	ltpFR2	22	5	n/a	n/a	n/a	n/a	0	0	0
1050.82958984375	n/a	START	2152099	n/a	LTP336	ltpFR2	22	n/a	n/a	n/a	8	n/a	n/a	n/a	n/a
1050.845703125	n/a	PROB	2152132	n/a	LTP336	ltpFR2	22	n/a	n/a	n/a	8	14	1	7	6
1053.62158203125	n/a	PROB	2157817	n/a	LTP336	ltpFR2	22	n/a	n/a	n/a	8	20	3	8	9
1056.41552734375	n/a	PROB	2163539	n/a	LTP336	ltpFR2	22	n/a	n/a	n/a	8	8	3	1	4
1059.12353515625	n/a	PROB	2169085	n/a	LTP336	ltpFR2	22	n/a	n/a	n/a	8	12	4	7	1
1067.35009765625	n/a	PROB	2185933	n/a	LTP336	ltpFR2	22	n/a	n/a	n/a	8	5	2	1	2
1069.65625	n/a	PROB	2190656	n/a	LTP336	ltpFR2	22	n/a	n/a	n/a	8	21	8	4	9
1071.24609375	n/a	PROB	2193912	n/a	LTP336	ltpFR2	22	n/a	n/a	n/a	8	9	3	5	1
1072.5830078125	n/a	PROB	2196650	n/a	LTP336	ltpFR2	22	n/a	n/a	n/a	8	17	6	5	6
1074.10107421875	n/a	STOP	2199759	n/a	LTP336	ltpFR2	22	n/a	n/a	n/a	8	n/a	n/a	n/a	n/a
1076.044921875	n/a	WORD	2203740	wordpools/wasnorm_wordpool_576.txt	LTP336	ltpFR2	22	5	SHERIFF	1284	n/a	n/a	0	0	0
1078.60205078125	n/a	WORD	2208977	wordpools/wasnorm_wordpool_576.txt	LTP336	ltpFR2	22	5	BADGE	68	n/a	n/a	0	0	0
1081.3447265625	n/a	WORD	2214594	wordpools/wasnorm_wordpool_576.txt	LTP336	ltpFR2	22	5	CATTLE	261	n/a	n/a	0	0	0
1084.02099609375	n/a	WORD	2220075	wordpools/wasnorm_wordpool_576.txt	LTP336	ltpFR2	22	5	BISON	131	n/a	n/a	0	0	0
1086.7119140625	n/a	WORD	2225586	wordpools/wasnorm_wordpool_576.txt	LTP336	ltpFR2	22	5	SPARROW	1347	n/a	n/a	0	0	0
1089.2705078125	n/a	WORD	2230826	wordpools/wasnorm_wordpool_576.txt	LTP336	ltpFR2	22	5	CLAMP	316	n/a	n/a	0	0	0
1091.8447265625	n/a	WORD	2236098	wordpools/wasnorm_wordpool_576.txt	LTP336	ltpFR2	22	5	PARENT	1013	n/a	n/a	0	0	0
1094.37060546875	n/a	WORD	2241271	wordpools/wasnorm_wordpool_576.txt	LTP336	ltpFR2	22	5	BANJO	82	n/a	n/a	0	0	0
1096.8955078125	n/a	WORD	2246442	wordpools/wasnorm_wordpool_576.txt	LTP336	ltpFR2	22	5	ROBIN	1199	n/a	n/a	0	0	0
1099.369140625	n/a	WORD	2251508	wordpools/wasnorm_wordpool_576.txt	LTP336	ltpFR2	22	5	LAMP	798	n/a	n/a	0	0	0
1101.89453125	n/a	WORD	2256680	wordpools/wasnorm_wordpool_576.txt	LTP336	ltpFR2	22	5	TUNNEL	1519	n/a	n/a	0	0	0
1104.66943359375	n/a	WORD	2262363	wordpools/wasnorm_wordpool_576.txt	LTP336	ltpFR2	22	5	HOOK	715	n/a	n/a	0	0	0
1107.31201171875	n/a	WORD	2267775	wordpools/wasnorm_wordpool_576.txt	LTP336	ltpFR2	22	5	AIRPLANE	12	n/a	n/a	0	0	0
1110.00390625	n/a	WORD	2273288	wordpools/wasnorm_wordpool_576.txt	LTP336	ltpFR2	22	5	MISTER	901	n/a	n/a	0	0	0
1112.578125	n/a	WORD	2278560	wordpools/wasnorm_wordpool_576.txt	LTP336	ltpFR2	22	5	NOMAD	955	n/a	n/a	0	0	0
1115.2880859375	n/a	WORD	2284110	wordpools/wasnorm_wordpool_576.txt	LTP336	ltpFR2	22	5	KLEENEX	782	n/a	n/a	0	0	0
1117.7109375	n/a	WORD	2289072	wordpools/wasnorm_wordpool_576.txt	LTP336	ltpFR2	22	5	OUTDOORS	987	n/a	n/a	0	0	0
1120.2197265625	n/a	WORD	2294210	wordpools/wasnorm_wordpool_576.txt	LTP336	ltpFR2	22	5	MEAT	883	n/a	n/a	0	0	0
1122.74365234375	n/a	WORD	2299379	wordpools/wasnorm_wordpool_576.txt	LTP336	ltpFR2	22	5	FLAG	573	n/a	n/a	0	0	0
1125.26953125	n/a	WORD	2304552	wordpools/wasnorm_wordpool_576.txt	LTP336	ltpFR2	22	5	WITNESS	1618	n/a	n/a	0	0	0
1127.87646484375	n/a	WORD	2309891	wordpools/wasnorm_wordpool_576.txt	LTP336	ltpFR2	22	5	LEG	809	n/a	n/a	0	0	0
1130.4697265625	n/a	WORD	2315202	wordpools/wasnorm_wordpool_576.txt	LTP336	ltpFR2	22	5	GARBAGE	622	n/a	n/a	0	0	0
1133.01123046875	n/a	WORD	2320407	wordpools/wasnorm_wordpool_576.txt	LTP336	ltpFR2	22	5	COUNTY	389	n/a	n/a	0	0	0
1135.78515625	n/a	WORD	2326088	wordpools/wasnorm_wordpool_576.txt	LTP336	ltpFR2	22	5	IGLOO	734	n/a	n/a	0	0	0
1137.39208984375	n/a	START	2329379	n/a	LTP336	ltpFR2	22	n/a	n/a	n/a	9	n/a	n/a	n/a	n/a
1138.2783203125	n/a	DISTRACTOR	2331194	n/a	LTP336	ltpFR2	22	5	n/a	n/a	n/a	n/a	0	0	0
1138.29443359375	n/a	PROB	2331227	n/a	LTP336	ltpFR2	22	n/a	n/a	n/a	9	12	1	3	9
1142.30712890625	n/a	PROB	2339445	n/a	LTP336	ltpFR2	22	n/a	n/a	n/a	9	16	4	9	3
1144.76416015625	n/a	PROB	2344477	n/a	LTP336	ltpFR2	22	n/a	n/a	n/a	9	24	8	9	7
1147.44091796875	n/a	PROB	2349959	n/a	LTP336	ltpFR2	22	n/a	n/a	n/a	9	16	4	3	9
1149.796875	n/a	PROB	2354784	n/a	LTP336	ltpFR2	22	n/a	n/a	n/a	9	21	6	6	9
1151.419921875	n/a	PROB	2358108	n/a	LTP336	ltpFR2	22	n/a	n/a	n/a	9	11	6	1	4
1153.32568359375	n/a	PROB	2362011	n/a	LTP336	ltpFR2	22	n/a	n/a	n/a	9	11	5	2	4
1155.11572265625	n/a	PROB	2365677	n/a	LTP336	ltpFR2	22	n/a	n/a	n/a	9	16	6	8	2
1157.40576171875	n/a	PROB	2370367	n/a	LTP336	ltpFR2	22	n/a	n/a	n/a	9	18	6	8	4
1158.9775390625	n/a	PROB	2373586	n/a	LTP336	ltpFR2	22	n/a	n/a	n/a	9	16	8	7	1
1160.341796875	n/a	STOP	2376380	n/a	LTP336	ltpFR2	22	n/a	n/a	n/a	9	n/a	n/a	n/a	n/a
1163.29248046875	n/a	REC_START	2382423	n/a	LTP336	ltpFR2	22	5	n/a	n/a	n/a	n/a	0	0	0
1163.79248046875	n/a	REC_WORD	2383447	wordpools/wasnorm_wordpool_576.txt	LTP336	ltpFR2	22	5	ARM	38	n/a	n/a	0	0	0
1164.7763671875	n/a	REC_WORD	2385462	wordpools/wasnorm_wordpool_576.txt	LTP336	ltpFR2	22	5	PHOTO	1055	n/a	n/a	0	0	0
1167.07568359375	n/a	REC_WORD	2390171	wordpools/wasnorm_wordpool_576.txt	LTP336	ltpFR2	22	5	SWITCH	1422	n/a	n/a	0	0	0
1253.73095703125	n/a	DISTRACTOR	2567641	n/a	LTP336	ltpFR2	22	6	n/a	n/a	n/a	n/a	0	0	0
1253.73095703125	n/a	START	2567641	n/a	LTP336	ltpFR2	22	n/a	n/a	n/a	10	n/a	n/a	n/a	n/a
1253.748046875	n/a	PROB	2567676	n/a	LTP336	ltpFR2	22	n/a	n/a	n/a	10	13	8	2	3
1256.60693359375	n/a	PROB	2573531	n/a	LTP336	ltpFR2	22	n/a	n/a	n/a	10	13	4	2	7
1260.98876953125	n/a	PROB	2582505	n/a	LTP336	ltpFR2	22	n/a	n/a	n/a	10	14	6	7	1
1263.72998046875	n/a	PROB	2588119	n/a	LTP336	ltpFR2	22	n/a	n/a	n/a	10	16	4	7	5
1267.99462890625	n/a	PROB	2596853	n/a	LTP336	ltpFR2	22	n/a	n/a	n/a	10	16	6	6	4
1269.74951171875	n/a	PROB	2600447	n/a	LTP336	ltpFR2	22	n/a	n/a	n/a	10	20	8	5	7
1271.73876953125	n/a	PROB	2604521	n/a	LTP336	ltpFR2	22	n/a	n/a	n/a	10	7	1	3	3
1273.11083984375	n/a	PROB	2607331	n/a	LTP336	ltpFR2	22	n/a	n/a	n/a	10	9	2	1	6
1274.431640625	n/a	PROB	2610036	n/a	LTP336	ltpFR2	22	n/a	n/a	n/a	10	17	3	9	5
1276.27734375	n/a	STOP	2613816	n/a	LTP336	ltpFR2	22	n/a	n/a	n/a	10	n/a	n/a	n/a	n/a
1278.611328125	n/a	WORD	2618596	wordpools/wasnorm_wordpool_576.txt	LTP336	ltpFR2	22	6	BLADE	134	n/a	n/a	0	0	0
1281.37158203125	n/a	WORD	2624249	wordpools/wasnorm_wordpool_576.txt	LTP336	ltpFR2	22	6	SPOON	1357	n/a	n/a	0	0	0
1283.79443359375	n/a	WORD	2629211	wordpools/wasnorm_wordpool_576.txt	LTP336	ltpFR2	22	6	DANCER	437	n/a	n/a	0	0	0
1286.43701171875	n/a	WORD	2634623	wordpools/wasnorm_wordpool_576.txt	LTP336	ltpFR2	22	6	CONCERT	360	n/a	n/a	0	0	0
1289.1123046875	n/a	WORD	2640102	wordpools/wasnorm_wordpool_576.txt	LTP336	ltpFR2	22	6	BACKBONE	66	n/a	n/a	0	0	0
1291.56884765625	n/a	WORD	2645133	wordpools/wasnorm_wordpool_576.txt	LTP336	ltpFR2	22	6	GARDEN	623	n/a	n/a	0	0	0
1294.3291015625	n/a	WORD	2650786	wordpools/wasnorm_wordpool_576.txt	LTP336	ltpFR2	22	6	ONION	977	n/a	n/a	0	0	0
1296.88818359375	n/a	WORD	2656027	wordpools/wasnorm_wordpool_576.txt	LTP336	ltpFR2	22	6	VIRUS	1572	n/a	n/a	0	0	0
1299.3291015625	n/a	WORD	2661026	wordpools/wasnorm_wordpool_576.txt	LTP336	ltpFR2	22	6	GREASE	660	n/a	n/a	0	0	0
1302.03759765625	n/a	WORD	2666573	wordpools/wasnorm_wordpool_576.txt	LTP336	ltpFR2	22	6	LADY	794	n/a	n/a	0	0	0
1304.61181640625	n/a	WORD	2671845	wordpools/wasnorm_wordpool_576.txt	LTP336	ltpFR2	22	6	SLUG	1329	n/a	n/a	0	0	0
1307.32080078125	n/a	WORD	2677393	wordpools/wasnorm_wordpool_576.txt	LTP336	ltpFR2	22	6	TORTOISE	1486	n/a	n/a	0	0	0
1310.04638671875	n/a	WORD	2682975	wordpools/wasnorm_wordpool_576.txt	LTP336	ltpFR2	22	6	DAUGHTER	442	n/a	n/a	0	0	0
1312.4873046875	n/a	WORD	2687974	wordpools/wasnorm_wordpool_576.txt	LTP336	ltpFR2	22	6	FRANCE	601	n/a	n/a	0	0	0
1315.21240234375	n/a	WORD	2693555	wordpools/wasnorm_wordpool_576.txt	LTP336	ltpFR2	22	6	WASHER	1592	n/a	n/a	0	0	0
1317.95556640625	n/a	WORD	2699173	wordpools/wasnorm_wordpool_576.txt	LTP336	ltpFR2	22	6	COOK	372	n/a	n/a	0	0	0
1320.37939453125	n/a	WORD	2704137	wordpools/wasnorm_wordpool_576.txt	LTP336	ltpFR2	22	6	BUGGY	188	n/a	n/a	0	0	0
1322.93701171875	n/a	WORD	2709375	wordpools/wasnorm_wordpool_576.txt	LTP336	ltpFR2	22	6	SHORTS	1293	n/a	n/a	0	0	0
1325.59521484375	n/a	WORD	2714819	wordpools/wasnorm_wordpool_576.txt	LTP336	ltpFR2	22	6	SWORD	1423	n/a	n/a	0	0	0
1328.35498046875	n/a	WORD	2720471	wordpools/wasnorm_wordpool_576.txt	LTP336	ltpFR2	22	6	PRIMATE	1123	n/a	n/a	0	0	0
1330.8798828125	n/a	WORD	2725642	wordpools/wasnorm_wordpool_576.txt	LTP336	ltpFR2	22	6	CARRIAGE	248	n/a	n/a	0	0	0
1333.38818359375	n/a	WORD	2730779	wordpools/wasnorm_wordpool_576.txt	LTP336	ltpFR2	22	6	SADDLE	1221	n/a	n/a	0	0	0
1336.0126953125	n/a	WORD	2736154	wordpools/wasnorm_wordpool_576.txt	LTP336	ltpFR2	22	6	VALVE	1546	n/a	n/a	0	0	0
1338.48779296875	n/a	WORD	2741223	wordpools/wasnorm_wordpool_576.txt	LTP336	ltpFR2	22	6	BANQUET	86	n/a	n/a	0	0	0
1340.0927734375	n/a	START	2744510	n/a	LTP336	ltpFR2	22	n/a	n/a	n/a	11	n/a	n/a	n/a	n/a
1341.22265625	n/a	DISTRACTOR	2746824	n/a	LTP336	ltpFR2	22	6	n/a	n/a	n/a	n/a	0	0	0
1341.2294921875	n/a	PROB	2746838	n/a	LTP336	ltpFR2	22	n/a	n/a	n/a	11	18	4	6	8
1343.36962890625	n/a	PROB	2751221	n/a	LTP336	ltpFR2	22	n/a	n/a	n/a	11	15	2	9	4
1345.4267578125	n/a	PROB	2755434	n/a	LTP336	ltpFR2	22	n/a	n/a	n/a	11	15	8	6	1
1347.33251953125	n/a	PROB	2759337	n/a	LTP336	ltpFR2	22	n/a	n/a	n/a	11	17	9	5	3
1349.40673828125	n/a	PROB	2763585	n/a	LTP336	ltpFR2	22	n/a	n/a	n/a	11	17	4	5	8
1351.4296875	n/a	PROB	2767728	n/a	LTP336	ltpFR2	22	n/a	n/a	n/a	11	8	4	3	1
1352.984375	n/a	PROB	2770912	n/a	LTP336	ltpFR2	22	n/a	n/a	n/a	11	8	1	5	2
1356.04443359375	n/a	PROB	2777179	n/a	LTP336	ltpFR2	22	n/a	n/a	n/a	11	18	7	9	2
1357.96728515625	n/a	PROB	2781117	n/a	LTP336	ltpFR2	22	n/a	n/a	n/a	11	7	2	2	3
1359.43798828125	n/a	PROB	2784129	n/a	LTP336	ltpFR2	22	n/a	n/a	n/a	11	10	5	1	4
1360.943359375	n/a	PROB	2787212	n/a	LTP336	ltpFR2	22	n/a	n/a	n/a	11	20	8	4	8
1362.78125	n/a	STOP	2790976	n/a	LTP336	ltpFR2	22	n/a	n/a	n/a	11	n/a	n/a	n/a	n/a
1365.9931640625	n/a	REC_START	2797554	n/a	LTP336	ltpFR2	22	6	n/a	n/a	n/a	n/a	0	0	0
1366.62109375	n/a	REC_WORD	2798840	wordpools/wasnorm_wordpool_576.txt	LTP336	ltpFR2	22	6	VALVE	1546	n/a	n/a	0	0	0
1367.5009765625	n/a	REC_WORD	2800642	wordpools/wasnorm_wordpool_576.txt	LTP336	ltpFR2	22	6	BANQUET	86	n/a	n/a	0	0	0
1368.9130859375	n/a	REC_WORD	2803534	wordpools/wasnorm_wordpool_576.txt	LTP336	ltpFR2	22	6	PRIMATE	1123	n/a	n/a	0	0	0
1369.82470703125	n/a	REC_WORD	2805401	wordpools/wasnorm_wordpool_576.txt	LTP336	ltpFR2	22	6	CARRIAGE	248	n/a	n/a	0	0	0
1370.86572265625	n/a	REC_WORD	2807533	wordpools/wasnorm_wordpool_576.txt	LTP336	ltpFR2	22	6	SADDLE	1221	n/a	n/a	0	0	0
1372.173828125	n/a	REC_WORD	2810212	wordpools/wasnorm_wordpool_576.txt	LTP336	ltpFR2	22	6	GARDEN	623	n/a	n/a	0	0	0
1456.44970703125	n/a	WORD	2982809	wordpools/wasnorm_wordpool_576.txt	LTP336	ltpFR2	22	7	PLASTER	1085	n/a	n/a	0	0	0
1459.25830078125	n/a	WORD	2988561	wordpools/wasnorm_wordpool_576.txt	LTP336	ltpFR2	22	7	DRESS	495	n/a	n/a	0	0	0
1461.91748046875	n/a	WORD	2994007	wordpools/wasnorm_wordpool_576.txt	LTP336	ltpFR2	22	7	SHOULDER	1294	n/a	n/a	0	0	0
1464.658203125	n/a	WORD	2999620	wordpools/wasnorm_wordpool_576.txt	LTP336	ltpFR2	22	7	CAFE	216	n/a	n/a	0	0	0
1467.41845703125	n/a	WORD	3005273	wordpools/wasnorm_wordpool_576.txt	LTP336	ltpFR2	22	7	POET	1095	n/a	n/a	0	0	0
1470.2109375	n/a	WORD	3010992	wordpools/wasnorm_wordpool_576.txt	LTP336	ltpFR2	22	7	SWIMMER	1420	n/a	n/a	0	0	0
1472.953125	n/a	WORD	3016608	wordpools/wasnorm_wordpool_576.txt	LTP336	ltpFR2	22	7	DRINK	498	n/a	n/a	0	0	0
1475.744140625	n/a	WORD	3022324	wordpools/wasnorm_wordpool_576.txt	LTP336	ltpFR2	22	7	WRIST	1626	n/a	n/a	0	0	0
1478.287109375	n/a	WORD	3027532	wordpools/wasnorm_wordpool_576.txt	LTP336	ltpFR2	22	7	BURGLAR	200	n/a	n/a	0	0	0
1481.095703125	n/a	WORD	3033284	wordpools/wasnorm_wordpool_576.txt	LTP336	ltpFR2	22	7	SUSPECT	1415	n/a	n/a	0	0	0
1483.5859375	n/a	WORD	3038384	wordpools/wasnorm_wordpool_576.txt	LTP336	ltpFR2	22	7	BATHTUB	100	n/a	n/a	0	0	0
1486.01171875	n/a	WORD	3043352	wordpools/wasnorm_wordpool_576.txt	LTP336	ltpFR2	22	7	PORTRAIT	1111	n/a	n/a	0	0	0
1488.41845703125	n/a	WORD	3048281	wordpools/wasnorm_wordpool_576.txt	LTP336	ltpFR2	22	7	FRAGRANCE	599	n/a	n/a	0	0	0
1491.177734375	n/a	WORD	3053932	wordpools/wasnorm_wordpool_576.txt	LTP336	ltpFR2	22	7	FLOWER	584	n/a	n/a	0	0	0
1493.78564453125	n/a	WORD	3059273	wordpools/wasnorm_wordpool_576.txt	LTP336	ltpFR2	22	7	CELLAR	267	n/a	n/a	0	0	0
1496.32763671875	n/a	WORD	3064479	wordpools/wasnorm_wordpool_576.txt	LTP336	ltpFR2	22	7	ICEBERG	731	n/a	n/a	0	0	0
1498.8515625	n/a	WORD	3069648	wordpools/wasnorm_wordpool_576.txt	LTP336	ltpFR2	22	7	HARP	689	n/a	n/a	0	0	0
1501.62744140625	n/a	WORD	3075333	wordpools/wasnorm_wordpool_576.txt	LTP336	ltpFR2	22	7	TAXI	1438	n/a	n/a	0	0	0
1504.43701171875	n/a	WORD	3081087	wordpools/wasnorm_wordpool_576.txt	LTP336	ltpFR2	22	7	DRIVER	499	n/a	n/a	0	0	0
1506.89501953125	n/a	WORD	3086121	wordpools/wasnorm_wordpool_576.txt	LTP336	ltpFR2	22	7	OUTLAW	989	n/a	n/a	0	0	0
1509.68603515625	n/a	WORD	3091837	wordpools/wasnorm_wordpool_576.txt	LTP336	ltpFR2	22	7	RECEIPT	1173	n/a	n/a	0	0	0
1512.39599609375	n/a	WORD	3097387	wordpools/wasnorm_wordpool_576.txt	LTP336	ltpFR2	22	7	ARMY	39	n/a	n/a	0	0	0
1515.15478515625	n/a	WORD	3103037	wordpools/wasnorm_wordpool_576.txt	LTP336	ltpFR2	22	7	CROSS	413	n/a	n/a	0	0	0
1517.74609375	n/a	WORD	3108344	wordpools/wasnorm_wordpool_576.txt	LTP336	ltpFR2	22	7	VICTIM	1562	n/a	n/a	0	0	0
1519.35205078125	n/a	START	3111633	n/a	LTP336	ltpFR2	22	n/a	n/a	n/a	12	n/a	n/a	n/a	n/a
1520.1767578125	n/a	DISTRACTOR	3113322	n/a	LTP336	ltpFR2	22	7	n/a	n/a	n/a	n/a	0	0	0
1520.18798828125	n/a	PROB	3113345	n/a	LTP336	ltpFR2	22	n/a	n/a	n/a	12	13	5	3	5
1522.4287109375	n/a	PROB	3117934	n/a	LTP336	ltpFR2	22	n/a	n/a	n/a	12	18	7	6	5
1524.7177734375	n/a	PROB	3122622	n/a	LTP336	ltpFR2	22	n/a	n/a	n/a	12	12	1	7	4
1526.173828125	n/a	PROB	3125604	n/a	LTP336	ltpFR2	22	n/a	n/a	n/a	12	11	2	7	2
1527.7275390625	n/a	PROB	3128786	n/a	LTP336	ltpFR2	22	n/a	n/a	n/a	12	17	5	5	7
1529.2666015625	n/a	PROB	3131938	n/a	LTP336	ltpFR2	22	n/a	n/a	n/a	12	19	9	8	2
1531.306640625	n/a	PROB	3136116	n/a	LTP336	ltpFR2	22	n/a	n/a	n/a	12	15	2	7	6
1535.33642578125	n/a	PROB	3144369	n/a	LTP336	ltpFR2	22	n/a	n/a	n/a	12	12	6	5	1
1536.92529296875	n/a	PROB	3147623	n/a	LTP336	ltpFR2	22	n/a	n/a	n/a	12	12	6	2	4
1538.4130859375	n/a	PROB	3150670	n/a	LTP336	ltpFR2	22	n/a	n/a	n/a	12	16	9	4	3
1541.80615234375	n/a	PROB	3157619	n/a	LTP336	ltpFR2	22	n/a	n/a	n/a	12	12	5	2	5
1543.27001953125	n/a	STOP	3160617	n/a	LTP336	ltpFR2	22	n/a	n/a	n/a	12	n/a	n/a	n/a	n/a
1545.236328125	n/a	REC_START	3164644	n/a	LTP336	ltpFR2	22	7	n/a	n/a	n/a	n/a	0	0	0
1546.35888671875	n/a	REC_WORD	3166943	wordpools/wasnorm_wordpool_576.txt	LTP336	ltpFR2	22	7	ARM	38	n/a	n/a	0	0	0
1547.7060546875	n/a	REC_WORD	3169702	wordpools/wasnorm_wordpool_576.txt	LTP336	ltpFR2	22	7	LEG	809	n/a	n/a	0	0	0
1550.85009765625	n/a	REC_WORD	3176141	wordpools/wasnorm_wordpool_576.txt	LTP336	ltpFR2	22	7	RAID	-1	n/a	n/a	0	0	0
1553.55810546875	n/a	REC_WORD	3181687	wordpools/wasnorm_wordpool_576.txt	LTP336	ltpFR2	22	7	PLASTER	1085	n/a	n/a	0	0	0
1635.6748046875	n/a	DISTRACTOR	3349862	n/a	LTP336	ltpFR2	22	8	n/a	n/a	n/a	n/a	0	0	0
1635.6748046875	n/a	START	3349862	n/a	LTP336	ltpFR2	22	n/a	n/a	n/a	13	n/a	n/a	n/a	n/a
1635.6904296875	n/a	PROB	3349894	n/a	LTP336	ltpFR2	22	n/a	n/a	n/a	13	15	7	2	6
1639.83740234375	n/a	PROB	3358387	n/a	LTP336	ltpFR2	22	n/a	n/a	n/a	13	18	9	5	4
1641.2763671875	n/a	PROB	3361334	n/a	LTP336	ltpFR2	22	n/a	n/a	n/a	13	19	1	9	9
1642.74755859375	n/a	PROB	3364347	n/a	LTP336	ltpFR2	22	n/a	n/a	n/a	13	19	4	9	6
1644.03564453125	n/a	PROB	3366985	n/a	LTP336	ltpFR2	22	n/a	n/a	n/a	13	23	8	8	7
1645.79052734375	n/a	PROB	3370579	n/a	LTP336	ltpFR2	22	n/a	n/a	n/a	13	17	8	7	2
1647.830078125	n/a	PROB	3374756	n/a	LTP336	ltpFR2	22	n/a	n/a	n/a	13	11	2	7	2
1649.25244140625	n/a	PROB	3377669	n/a	LTP336	ltpFR2	22	n/a	n/a	n/a	13	21	9	8	4
1652.34521484375	n/a	PROB	3384003	n/a	LTP336	ltpFR2	22	n/a	n/a	n/a	13	12	6	2	4
1653.59912109375	n/a	PROB	3386571	n/a	LTP336	ltpFR2	22	n/a	n/a	n/a	13	16	1	7	8
1654.8359375	n/a	PROB	3389104	n/a	LTP336	ltpFR2	22	n/a	n/a	n/a	13	16	7	7	2
1656.27490234375	n/a	PROB	3392051	n/a	LTP336	ltpFR2	22	n/a	n/a	n/a	13	15	6	1	8
1658.31005859375	n/a	STOP	3396219	n/a	LTP336	ltpFR2	22	n/a	n/a	n/a	13	n/a	n/a	n/a	n/a
1660.68798828125	n/a	WORD	3401089	wordpools/wasnorm_wordpool_576.txt	LTP336	ltpFR2	22	8	ORANGE	980	n/a	n/a	0	0	0
1663.263671875	n/a	WORD	3406364	wordpools/wasnorm_wordpool_576.txt	LTP336	ltpFR2	22	8	KETCHUP	771	n/a	n/a	0	0	0
1665.720703125	n/a	WORD	3411396	wordpools/wasnorm_wordpool_576.txt	LTP336	ltpFR2	22	8	STAPLE	1371	n/a	n/a	0	0	0
1668.53076171875	n/a	WORD	3417151	wordpools/wasnorm_wordpool_576.txt	LTP336	ltpFR2	22	8	CLOTHES	327	n/a	n/a	0	0	0
1670.98876953125	n/a	WORD	3422185	wordpools/wasnorm_wordpool_576.txt	LTP336	ltpFR2	22	8	RAZOR	1171	n/a	n/a	0	0	0
1673.57958984375	n/a	WORD	3427491	wordpools/wasnorm_wordpool_576.txt	LTP336	ltpFR2	22	8	SCISSORS	1250	n/a	n/a	0	0	0
1676.12255859375	n/a	WORD	3432699	wordpools/wasnorm_wordpool_576.txt	LTP336	ltpFR2	22	8	DONKEY	484	n/a	n/a	0	0	0
1678.66259765625	n/a	WORD	3437901	wordpools/wasnorm_wordpool_576.txt	LTP336	ltpFR2	22	8	YACHT	1629	n/a	n/a	0	0	0
1681.35546875	n/a	WORD	3443416	wordpools/wasnorm_wordpool_576.txt	LTP336	ltpFR2	22	8	CASHEW	253	n/a	n/a	0	0	0
1683.96435546875	n/a	WORD	3448759	wordpools/wasnorm_wordpool_576.txt	LTP336	ltpFR2	22	8	COFFEE	341	n/a	n/a	0	0	0
1686.47216796875	n/a	WORD	3453895	wordpools/wasnorm_wordpool_576.txt	LTP336	ltpFR2	22	8	MATTRESS	879	n/a	n/a	0	0	0
1688.99609375	n/a	WORD	3459064	wordpools/wasnorm_wordpool_576.txt	LTP336	ltpFR2	22	8	COUNTRY	388	n/a	n/a	0	0	0
1691.7880859375	n/a	WORD	3464782	wordpools/wasnorm_wordpool_576.txt	LTP336	ltpFR2	22	8	PLATE	1086	n/a	n/a	0	0	0
1694.2470703125	n/a	WORD	3469818	wordpools/wasnorm_wordpool_576.txt	LTP336	ltpFR2	22	8	CHIPMUNK	304	n/a	n/a	0	0	0
1696.921875	n/a	WORD	3475296	wordpools/wasnorm_wordpool_576.txt	LTP336	ltpFR2	22	8	SPOOL	1356	n/a	n/a	0	0	0
1699.6630859375	n/a	WORD	3480910	wordpools/wasnorm_wordpool_576.txt	LTP336	ltpFR2	22	8	YARN	1631	n/a	n/a	0	0	0
1702.37255859375	n/a	WORD	3486459	wordpools/wasnorm_wordpool_576.txt	LTP336	ltpFR2	22	8	JURY	766	n/a	n/a	0	0	0
1704.9306640625	n/a	WORD	3491698	wordpools/wasnorm_wordpool_576.txt	LTP336	ltpFR2	22	8	BARREL	91	n/a	n/a	0	0	0
1707.5224609375	n/a	WORD	3497006	wordpools/wasnorm_wordpool_576.txt	LTP336	ltpFR2	22	8	BRANCH	168	n/a	n/a	0	0	0
1710.0146484375	n/a	WORD	3502110	wordpools/wasnorm_wordpool_576.txt	LTP336	ltpFR2	22	8	PENGUIN	1044	n/a	n/a	0	0	0
1712.67138671875	n/a	WORD	3507551	wordpools/wasnorm_wordpool_576.txt	LTP336	ltpFR2	22	8	NAPKIN	937	n/a	n/a	0	0	0
1715.09765625	n/a	WORD	3512520	wordpools/wasnorm_wordpool_576.txt	LTP336	ltpFR2	22	8	LION	827	n/a	n/a	0	0	0
1717.75439453125	n/a	WORD	3517961	wordpools/wasnorm_wordpool_576.txt	LTP336	ltpFR2	22	8	FRUIT	610	n/a	n/a	0	0	0
1720.43115234375	n/a	WORD	3523443	wordpools/wasnorm_wordpool_576.txt	LTP336	ltpFR2	22	8	PEACH	1031	n/a	n/a	0	0	0
1722.0361328125	n/a	START	3526730	n/a	LTP336	ltpFR2	22	n/a	n/a	n/a	14	n/a	n/a	n/a	n/a
1722.9501953125	n/a	DISTRACTOR	3528602	n/a	LTP336	ltpFR2	22	8	n/a	n/a	n/a	n/a	0	0	0
1722.9560546875	n/a	PROB	3528614	n/a	LTP336	ltpFR2	22	n/a	n/a	n/a	14	8	3	2	3
1724.81103515625	n/a	PROB	3532413	n/a	LTP336	ltpFR2	22	n/a	n/a	n/a	14	20	6	6	8
1726.54931640625	n/a	PROB	3535973	n/a	LTP336	ltpFR2	22	n/a	n/a	n/a	14	16	1	6	9
1728.97509765625	n/a	PROB	3540941	n/a	LTP336	ltpFR2	22	n/a	n/a	n/a	14	12	1	9	2
1730.4130859375	n/a	PROB	3543886	n/a	LTP336	ltpFR2	22	n/a	n/a	n/a	14	11	1	2	8
1731.6162109375	n/a	PROB	3546350	n/a	LTP336	ltpFR2	22	n/a	n/a	n/a	14	19	6	8	5
1733.52294921875	n/a	PROB	3550255	n/a	LTP336	ltpFR2	22	n/a	n/a	n/a	14	7	3	2	2
1735.4287109375	n/a	PROB	3554158	n/a	LTP336	ltpFR2	22	n/a	n/a	n/a	14	20	2	9	9
1736.7158203125	n/a	PROB	3556794	n/a	LTP336	ltpFR2	22	n/a	n/a	n/a	14	10	4	3	3
1738.27197265625	n/a	PROB	3559981	n/a	LTP336	ltpFR2	22	n/a	n/a	n/a	14	9	5	1	3
1739.82568359375	n/a	PROB	3563163	n/a	LTP336	ltpFR2	22	n/a	n/a	n/a	14	9	3	1	5
1742.03369140625	n/a	PROB	3567685	n/a	LTP336	ltpFR2	22	n/a	n/a	n/a	14	15	5	4	6
1743.57080078125	n/a	PROB	3570833	n/a	LTP336	ltpFR2	22	n/a	n/a	n/a	14	5	1	3	1
1744.78173828125	n/a	STOP	3573313	n/a	LTP336	ltpFR2	22	n/a	n/a	n/a	14	n/a	n/a	n/a	n/a
1747.91943359375	n/a	REC_START	3579739	n/a	LTP336	ltpFR2	22	8	n/a	n/a	n/a	n/a	0	0	0
1748.42431640625	n/a	REC_WORD	3580773	wordpools/wasnorm_wordpool_576.txt	LTP336	ltpFR2	22	8	FRUIT	610	n/a	n/a	0	0	0
1749.4873046875	n/a	REC_WORD	3582950	wordpools/wasnorm_wordpool_576.txt	LTP336	ltpFR2	22	8	PEACH	1031	n/a	n/a	0	0	0
1750.45947265625	n/a	REC_WORD	3584941	wordpools/wasnorm_wordpool_576.txt	LTP336	ltpFR2	22	8	SPOOL	1356	n/a	n/a	0	0	0
1751.99658203125	n/a	REC_WORD	3588089	wordpools/wasnorm_wordpool_576.txt	LTP336	ltpFR2	22	8	YARN	1631	n/a	n/a	0	0	0
1753.1005859375	n/a	REC_WORD	3590350	wordpools/wasnorm_wordpool_576.txt	LTP336	ltpFR2	22	8	JURY	766	n/a	n/a	0	0	0
1754.38525390625	n/a	REC_WORD	3592981	wordpools/wasnorm_wordpool_576.txt	LTP336	ltpFR2	22	8	ORANGE	980	n/a	n/a	0	0	0
1756.03515625	n/a	REC_WORD	3596360	wordpools/wasnorm_wordpool_576.txt	LTP336	ltpFR2	22	8	KETCHUP	771	n/a	n/a	0	0	0
1824.4482421875	n/a	REST_REWET	3736470	n/a	LTP336	ltpFR2	22	8	n/a	n/a	n/a	n/a	0	0	0
1937.361328125	n/a	WORD	3967716	wordpools/wasnorm_wordpool_576.txt	LTP336	ltpFR2	22	9	STREAM	1392	n/a	n/a	0	0	0
1939.986328125	n/a	WORD	3973092	wordpools/wasnorm_wordpool_576.txt	LTP336	ltpFR2	22	9	PUDDLE	1140	n/a	n/a	0	0	0
1942.66015625	n/a	WORD	3978568	wordpools/wasnorm_wordpool_576.txt	LTP336	ltpFR2	22	9	MARINE	869	n/a	n/a	0	0	0
1945.0859375	n/a	WORD	3983536	wordpools/wasnorm_wordpool_576.txt	LTP336	ltpFR2	22	9	DENTIST	447	n/a	n/a	0	0	0
1947.84423828125	n/a	WORD	3989185	wordpools/wasnorm_wordpool_576.txt	LTP336	ltpFR2	22	9	CEILING	265	n/a	n/a	0	0	0
1950.65283203125	n/a	WORD	3994937	wordpools/wasnorm_wordpool_576.txt	LTP336	ltpFR2	22	9	MAILMAN	858	n/a	n/a	0	0	0
1953.39599609375	n/a	WORD	4000555	wordpools/wasnorm_wordpool_576.txt	LTP336	ltpFR2	22	9	CASHIER	254	n/a	n/a	0	0	0
1955.90380859375	n/a	WORD	4005691	wordpools/wasnorm_wordpool_576.txt	LTP336	ltpFR2	22	9	PERFUME	1049	n/a	n/a	0	0	0
1958.3447265625	n/a	WORD	4010690	wordpools/wasnorm_wordpool_576.txt	LTP336	ltpFR2	22	9	CIGAR	308	n/a	n/a	0	0	0
1960.88671875	n/a	WORD	4015896	wordpools/wasnorm_wordpool_576.txt	LTP336	ltpFR2	22	9	PISTON	1076	n/a	n/a	0	0	0
1963.677734375	n/a	WORD	4021612	wordpools/wasnorm_wordpool_576.txt	LTP336	ltpFR2	22	9	MOTOR	922	n/a	n/a	0	0	0
1966.20361328125	n/a	WORD	4026785	wordpools/wasnorm_wordpool_576.txt	LTP336	ltpFR2	22	9	WAGON	1578	n/a	n/a	0	0	0
1968.6435546875	n/a	WORD	4031782	wordpools/wasnorm_wordpool_576.txt	LTP336	ltpFR2	22	9	GANGSTER	620	n/a	n/a	0	0	0
1971.20361328125	n/a	WORD	4037025	wordpools/wasnorm_wordpool_576.txt	LTP336	ltpFR2	22	9	THIEF	1456	n/a	n/a	0	0	0
1973.71044921875	n/a	WORD	4042159	wordpools/wasnorm_wordpool_576.txt	LTP336	ltpFR2	22	9	SCULPTURE	1258	n/a	n/a	0	0	0
1976.2861328125	n/a	WORD	4047434	wordpools/wasnorm_wordpool_576.txt	LTP336	ltpFR2	22	9	HUMAN	726	n/a	n/a	0	0	0
1978.72607421875	n/a	WORD	4052431	wordpools/wasnorm_wordpool_576.txt	LTP336	ltpFR2	22	9	OUTFIT	988	n/a	n/a	0	0	0
1981.28515625	n/a	WORD	4057672	wordpools/wasnorm_wordpool_576.txt	LTP336	ltpFR2	22	9	LADDER	793	n/a	n/a	0	0	0
1983.75927734375	n/a	WORD	4062739	wordpools/wasnorm_wordpool_576.txt	LTP336	ltpFR2	22	9	BACON	67	n/a	n/a	0	0	0
1986.40185546875	n/a	WORD	4068151	wordpools/wasnorm_wordpool_576.txt	LTP336	ltpFR2	22	9	JOURNAL	760	n/a	n/a	0	0	0
1989.009765625	n/a	WORD	4073492	wordpools/wasnorm_wordpool_576.txt	LTP336	ltpFR2	22	9	DRILL	497	n/a	n/a	0	0	0
1991.66796875	n/a	WORD	4078936	wordpools/wasnorm_wordpool_576.txt	LTP336	ltpFR2	22	9	OMELET	976	n/a	n/a	0	0	0
1994.24365234375	n/a	WORD	4084211	wordpools/wasnorm_wordpool_576.txt	LTP336	ltpFR2	22	9	BEEF	113	n/a	n/a	0	0	0
1996.83447265625	n/a	WORD	4089517	wordpools/wasnorm_wordpool_576.txt	LTP336	ltpFR2	22	9	PANTHER	1009	n/a	n/a	0	0	0
1998.4404296875	n/a	START	4092806	n/a	LTP336	ltpFR2	22	n/a	n/a	n/a	15	n/a	n/a	n/a	n/a
1999.3154296875	n/a	DISTRACTOR	4094598	n/a	LTP336	ltpFR2	22	9	n/a	n/a	n/a	n/a	0	0	0
1999.32666015625	n/a	PROB	4094621	n/a	LTP336	ltpFR2	22	n/a	n/a	n/a	15	19	9	3	7
2002.53564453125	n/a	PROB	4101193	n/a	LTP336	ltpFR2	22	n/a	n/a	n/a	15	12	9	1	2
2003.94140625	n/a	PROB	4104072	n/a	LTP336	ltpFR2	22	n/a	n/a	n/a	15	18	5	8	5
2005.49658203125	n/a	PROB	4107257	n/a	LTP336	ltpFR2	22	n/a	n/a	n/a	15	8	4	3	1
2006.9345703125	n/a	PROB	4110202	n/a	LTP336	ltpFR2	22	n/a	n/a	n/a	15	18	4	5	9
2008.80615234375	n/a	PROB	4114035	n/a	LTP336	ltpFR2	22	n/a	n/a	n/a	15	16	5	7	4
2011.49951171875	n/a	PROB	4119551	n/a	LTP336	ltpFR2	22	n/a	n/a	n/a	15	11	5	1	5
2012.71826171875	n/a	PROB	4122047	n/a	LTP336	ltpFR2	22	n/a	n/a	n/a	15	21	6	7	8
2014.8603515625	n/a	PROB	4126434	n/a	LTP336	ltpFR2	22	n/a	n/a	n/a	15	18	7	3	8
2016.46533203125	n/a	PROB	4129721	n/a	LTP336	ltpFR2	22	n/a	n/a	n/a	15	15	9	4	2
2018.2373046875	n/a	PROB	4133350	n/a	LTP336	ltpFR2	22	n/a	n/a	n/a	15	6	1	3	2
2019.7412109375	n/a	PROB	4136430	n/a	LTP336	ltpFR2	22	n/a	n/a	n/a	15	14	3	2	9
2021.3671875	n/a	STOP	4139760	n/a	LTP336	ltpFR2	22	n/a	n/a	n/a	15	n/a	n/a	n/a	n/a
2024.24072265625	n/a	REC_START	4145645	n/a	LTP336	ltpFR2	22	9	n/a	n/a	n/a	n/a	0	0	0
2024.8369140625	n/a	REC_WORD	4146866	wordpools/wasnorm_wordpool_576.txt	LTP336	ltpFR2	22	9	OMELET	976	n/a	n/a	0	0	0
2025.77880859375	n/a	REC_WORD	4148795	wordpools/wasnorm_wordpool_576.txt	LTP336	ltpFR2	22	9	BEEF	113	n/a	n/a	0	0	0
2026.97265625	n/a	REC_WORD	4151240	wordpools/wasnorm_wordpool_576.txt	LTP336	ltpFR2	22	9	BACON	67	n/a	n/a	0	0	0
2028.06884765625	n/a	REC_WORD	4153485	wordpools/wasnorm_wordpool_576.txt	LTP336	ltpFR2	22	9	DRILL	497	n/a	n/a	0	0	0
2029.39404296875	n/a	REC_WORD	4156199	wordpools/wasnorm_wordpool_576.txt	LTP336	ltpFR2	22	9	PANTHER	1009	n/a	n/a	0	0	0
2030.81396484375	n/a	REC_WORD	4159107	wordpools/wasnorm_wordpool_576.txt	LTP336	ltpFR2	22	9	COUNTRY	388	n/a	n/a	0	0	0
2114.6796875	n/a	DISTRACTOR	4330864	n/a	LTP336	ltpFR2	22	10	n/a	n/a	n/a	n/a	0	0	0
2114.6796875	n/a	START	4330864	n/a	LTP336	ltpFR2	22	n/a	n/a	n/a	16	n/a	n/a	n/a	n/a
2114.6962890625	n/a	PROB	4330898	n/a	LTP336	ltpFR2	22	n/a	n/a	n/a	16	14	1	8	5
2117.60546875	n/a	PROB	4336856	n/a	LTP336	ltpFR2	22	n/a	n/a	n/a	16	11	4	6	1
2118.75927734375	n/a	PROB	4339219	n/a	LTP336	ltpFR2	22	n/a	n/a	n/a	16	7	1	1	5
2119.91455078125	n/a	PROB	4341585	n/a	LTP336	ltpFR2	22	n/a	n/a	n/a	16	15	7	6	2
2121.53515625	n/a	PROB	4344904	n/a	LTP336	ltpFR2	22	n/a	n/a	n/a	16	20	8	4	8
2122.873046875	n/a	PROB	4347644	n/a	LTP336	ltpFR2	22	n/a	n/a	n/a	16	14	6	7	1
2124.1943359375	n/a	PROB	4350350	n/a	LTP336	ltpFR2	22	n/a	n/a	n/a	16	11	7	1	3
2125.365234375	n/a	PROB	4352748	n/a	LTP336	ltpFR2	22	n/a	n/a	n/a	16	26	9	9	8
2126.97021484375	n/a	PROB	4356035	n/a	LTP336	ltpFR2	22	n/a	n/a	n/a	16	12	5	2	5
2128.17431640625	n/a	PROB	4358501	n/a	LTP336	ltpFR2	22	n/a	n/a	n/a	16	12	3	7	2
2129.34423828125	n/a	PROB	4360897	n/a	LTP336	ltpFR2	22	n/a	n/a	n/a	16	19	9	7	3
2130.94921875	n/a	PROB	4364184	n/a	LTP336	ltpFR2	22	n/a	n/a	n/a	16	15	8	1	6
2132.48779296875	n/a	PROB	4367335	n/a	LTP336	ltpFR2	22	n/a	n/a	n/a	16	11	4	3	3
2134.05908203125	n/a	PROB	4370553	n/a	LTP336	ltpFR2	22	n/a	n/a	n/a	16	9	7	1	1
2135.4638671875	n/a	PROB	4373430	n/a	LTP336	ltpFR2	22	n/a	n/a	n/a	16	11	8	2	1
2136.51708984375	n/a	PROB	4375587	n/a	LTP336	ltpFR2	22	n/a	n/a	n/a	16	13	6	6	1
2137.958984375	n/a	STOP	4378540	n/a	LTP336	ltpFR2	22	n/a	n/a	n/a	16	n/a	n/a	n/a	n/a
2139.89453125	n/a	WORD	4382504	wordpools/wasnorm_wordpool_576.txt	LTP336	ltpFR2	22	10	SHELF	1280	n/a	n/a	0	0	0
2142.61962890625	n/a	WORD	4388085	wordpools/wasnorm_wordpool_576.txt	LTP336	ltpFR2	22	10	CANDY	230	n/a	n/a	0	0	0
2145.19482421875	n/a	WORD	4393359	wordpools/wasnorm_wordpool_576.txt	LTP336	ltpFR2	22	10	KEEPER	769	n/a	n/a	0	0	0
2147.78564453125	n/a	WORD	4398665	wordpools/wasnorm_wordpool_576.txt	LTP336	ltpFR2	22	10	BLUEPRINT	142	n/a	n/a	0	0	0
2150.37841796875	n/a	WORD	4403975	wordpools/wasnorm_wordpool_576.txt	LTP336	ltpFR2	22	10	MOP	916	n/a	n/a	0	0	0
2152.97021484375	n/a	WORD	4409283	wordpools/wasnorm_wordpool_576.txt	LTP336	ltpFR2	22	10	BUREAU	199	n/a	n/a	0	0	0
2155.67724609375	n/a	WORD	4414827	wordpools/wasnorm_wordpool_576.txt	LTP336	ltpFR2	22	10	WARDROBE	1587	n/a	n/a	0	0	0
2158.30419921875	n/a	WORD	4420207	wordpools/wasnorm_wordpool_576.txt	LTP336	ltpFR2	22	10	GLOVE	642	n/a	n/a	0	0	0
2160.72705078125	n/a	WORD	4425169	wordpools/wasnorm_wordpool_576.txt	LTP336	ltpFR2	22	10	HEART	697	n/a	n/a	0	0	0
2163.419921875	n/a	WORD	4430684	wordpools/wasnorm_wordpool_576.txt	LTP336	ltpFR2	22	10	DIME	466	n/a	n/a	0	0	0
2166.14599609375	n/a	WORD	4436267	wordpools/wasnorm_wordpool_576.txt	LTP336	ltpFR2	22	10	PADDLE	1000	n/a	n/a	0	0	0
2168.619140625	n/a	WORD	4441332	wordpools/wasnorm_wordpool_576.txt	LTP336	ltpFR2	22	10	ANKLE	24	n/a	n/a	0	0	0
2171.345703125	n/a	WORD	4446916	wordpools/wasnorm_wordpool_576.txt	LTP336	ltpFR2	22	10	FLIPPER	580	n/a	n/a	0	0	0
2173.81982421875	n/a	WORD	4451983	wordpools/wasnorm_wordpool_576.txt	LTP336	ltpFR2	22	10	DOLPHIN	483	n/a	n/a	0	0	0
2176.62890625	n/a	WORD	4457736	wordpools/wasnorm_wordpool_576.txt	LTP336	ltpFR2	22	10	BRACES	164	n/a	n/a	0	0	0
2179.28759765625	n/a	WORD	4463181	wordpools/wasnorm_wordpool_576.txt	LTP336	ltpFR2	22	10	CONTRACT	368	n/a	n/a	0	0	0
2181.79443359375	n/a	WORD	4468315	wordpools/wasnorm_wordpool_576.txt	LTP336	ltpFR2	22	10	RIVER	1194	n/a	n/a	0	0	0
2184.50439453125	n/a	WORD	4473865	wordpools/wasnorm_wordpool_576.txt	LTP336	ltpFR2	22	10	REPORT	1184	n/a	n/a	0	0	0
2187.11328125	n/a	WORD	4479208	wordpools/wasnorm_wordpool_576.txt	LTP336	ltpFR2	22	10	BRIEFCASE	175	n/a	n/a	0	0	0
2189.70361328125	n/a	WORD	4484513	wordpools/wasnorm_wordpool_576.txt	LTP336	ltpFR2	22	10	BASEMENT	94	n/a	n/a	0	0	0
2192.24609375	n/a	WORD	4489720	wordpools/wasnorm_wordpool_576.txt	LTP336	ltpFR2	22	10	RUG	1215	n/a	n/a	0	0	0
2194.80322265625	n/a	WORD	4494957	wordpools/wasnorm_wordpool_576.txt	LTP336	ltpFR2	22	10	TROUT	1511	n/a	n/a	0	0	0
2197.26220703125	n/a	WORD	4499993	wordpools/wasnorm_wordpool_576.txt	LTP336	ltpFR2	22	10	BROOK	177	n/a	n/a	0	0	0
2199.85302734375	n/a	WORD	4505299	wordpools/wasnorm_wordpool_576.txt	LTP336	ltpFR2	22	10	FINGER	567	n/a	n/a	0	0	0
2201.458984375	n/a	START	4508588	n/a	LTP336	ltpFR2	22	n/a	n/a	n/a	17	n/a	n/a	n/a	n/a
2202.55029296875	n/a	DISTRACTOR	4510823	n/a	LTP336	ltpFR2	22	10	n/a	n/a	n/a	n/a	0	0	0
2202.56201171875	n/a	PROB	4510847	n/a	LTP336	ltpFR2	22	n/a	n/a	n/a	17	18	8	6	4
2204.66796875	n/a	PROB	4515160	n/a	LTP336	ltpFR2	22	n/a	n/a	n/a	17	15	3	4	8
2206.4921875	n/a	PROB	4518896	n/a	LTP336	ltpFR2	22	n/a	n/a	n/a	17	17	2	7	8
2208.2138671875	n/a	PROB	4522422	n/a	LTP336	ltpFR2	22	n/a	n/a	n/a	17	24	6	9	9
2209.9697265625	n/a	PROB	4526018	n/a	LTP336	ltpFR2	22	n/a	n/a	n/a	17	18	5	7	6
2211.65771484375	n/a	PROB	4529475	n/a	LTP336	ltpFR2	22	n/a	n/a	n/a	17	12	2	5	5
2213.41357421875	n/a	PROB	4533071	n/a	LTP336	ltpFR2	22	n/a	n/a	n/a	17	13	5	1	7
2215.5048828125	n/a	PROB	4537354	n/a	LTP336	ltpFR2	22	n/a	n/a	n/a	17	16	5	6	5
2216.99267578125	n/a	PROB	4540401	n/a	LTP336	ltpFR2	22	n/a	n/a	n/a	17	15	5	5	5
2218.24658203125	n/a	PROB	4542969	n/a	LTP336	ltpFR2	22	n/a	n/a	n/a	17	9	4	1	4
2219.517578125	n/a	PROB	4545572	n/a	LTP336	ltpFR2	22	n/a	n/a	n/a	17	14	7	1	6
2221.306640625	n/a	PROB	4549236	n/a	LTP336	ltpFR2	22	n/a	n/a	n/a	17	9	6	1	2
2222.7265625	n/a	PROB	4552144	n/a	LTP336	ltpFR2	22	n/a	n/a	n/a	17	20	7	5	8
2224.03125	n/a	STOP	4554816	n/a	LTP336	ltpFR2	22	n/a	n/a	n/a	17	n/a	n/a	n/a	n/a
2227.359375	n/a	REC_START	4561632	n/a	LTP336	ltpFR2	22	10	n/a	n/a	n/a	n/a	0	0	0
2227.865234375	n/a	REC_WORD	4562668	wordpools/wasnorm_wordpool_576.txt	LTP336	ltpFR2	22	10	RUG	1215	n/a	n/a	0	0	0
2228.703125	n/a	REC_WORD	4564384	wordpools/wasnorm_wordpool_576.txt	LTP336	ltpFR2	22	10	TROUT	1511	n/a	n/a	0	0	0
2229.775390625	n/a	REC_WORD	4566580	wordpools/wasnorm_wordpool_576.txt	LTP336	ltpFR2	22	10	BOOK	149	n/a	n/a	0	0	0
2231.04345703125	n/a	REC_WORD	4569177	wordpools/wasnorm_wordpool_576.txt	LTP336	ltpFR2	22	10	BROOK	177	n/a	n/a	0	0	0
2231.85009765625	n/a	REC_WORD	4570829	wordpools/wasnorm_wordpool_576.txt	LTP336	ltpFR2	22	10	REPORT	1184	n/a	n/a	0	0	0
2233.2763671875	n/a	REC_WORD	4573750	wordpools/wasnorm_wordpool_576.txt	LTP336	ltpFR2	22	10	CONTRACT	368	n/a	n/a	0	0	0
2235.15234375	n/a	REC_WORD	4577592	wordpools/wasnorm_wordpool_576.txt	LTP336	ltpFR2	22	10	RIVER	1194	n/a	n/a	0	0	0
2236.34033203125	n/a	REC_WORD	4580025	wordpools/wasnorm_wordpool_576.txt	LTP336	ltpFR2	22	10	RUG	1215	n/a	n/a	0	0	0
2238.10888671875	n/a	REC_WORD	4583647	wordpools/wasnorm_wordpool_576.txt	LTP336	ltpFR2	22	10	SHELF	1280	n/a	n/a	0	0	0
2239.7421875	n/a	REC_WORD	4586992	wordpools/wasnorm_wordpool_576.txt	LTP336	ltpFR2	22	10	CANDY	230	n/a	n/a	0	0	0
2241.55322265625	n/a	REC_WORD	4590701	wordpools/wasnorm_wordpool_576.txt	LTP336	ltpFR2	22	10	CANDY	230	n/a	n/a	0	0	0
2242.64111328125	n/a	REC_WORD	4592929	wordpools/wasnorm_wordpool_576.txt	LTP336	ltpFR2	22	10	KEEPER	769	n/a	n/a	0	0	0
2248.8828125	n/a	REC_WORD	4605712	wordpools/wasnorm_wordpool_576.txt	LTP336	ltpFR2	22	10	ANKLE	24	n/a	n/a	0	0	0
2250.69384765625	n/a	REC_WORD	4609421	wordpools/wasnorm_wordpool_576.txt	LTP336	ltpFR2	22	10	FLIPPER	580	n/a	n/a	0	0	0
2252.23974609375	n/a	REC_WORD	4612587	wordpools/wasnorm_wordpool_576.txt	LTP336	ltpFR2	22	10	DOLPHIN	483	n/a	n/a	0	0	0
2317.798828125	n/a	DISTRACTOR	4746852	n/a	LTP336	ltpFR2	22	11	n/a	n/a	n/a	n/a	0	0	0
2317.798828125	n/a	START	4746852	n/a	LTP336	ltpFR2	22	n/a	n/a	n/a	18	n/a	n/a	n/a	n/a
2317.81494140625	n/a	PROB	4746885	n/a	LTP336	ltpFR2	22	n/a	n/a	n/a	18	14	8	3	3
2319.68798828125	n/a	PROB	4750721	n/a	LTP336	ltpFR2	22	n/a	n/a	n/a	18	13	2	6	5
2322.046875	n/a	PROB	4755552	n/a	LTP336	ltpFR2	22	n/a	n/a	n/a	18	5	3	1	1
2323.33349609375	n/a	PROB	4758187	n/a	LTP336	ltpFR2	22	n/a	n/a	n/a	18	20	6	5	9
2325.8916015625	n/a	PROB	4763426	n/a	LTP336	ltpFR2	22	n/a	n/a	n/a	18	14	8	5	1
2327.74658203125	n/a	PROB	4767225	n/a	LTP336	ltpFR2	22	n/a	n/a	n/a	18	17	9	7	1
2329.736328125	n/a	PROB	4771300	n/a	LTP336	ltpFR2	22	n/a	n/a	n/a	18	12	3	7	2
2331.20947265625	n/a	PROB	4774317	n/a	LTP336	ltpFR2	22	n/a	n/a	n/a	18	12	4	7	1
2332.88134765625	n/a	PROB	4777741	n/a	LTP336	ltpFR2	22	n/a	n/a	n/a	18	17	9	6	2
2335.10546875	n/a	PROB	4782296	n/a	LTP336	ltpFR2	22	n/a	n/a	n/a	18	24	9	7	8
2337.8291015625	n/a	PROB	4787874	n/a	LTP336	ltpFR2	22	n/a	n/a	n/a	18	14	6	1	7
2339.4521484375	n/a	PROB	4791198	n/a	LTP336	ltpFR2	22	n/a	n/a	n/a	18	15	5	7	3
2341.2392578125	n/a	STOP	4794858	n/a	LTP336	ltpFR2	22	n/a	n/a	n/a	18	n/a	n/a	n/a	n/a
2342.779296875	n/a	WORD	4798012	wordpools/wasnorm_wordpool_576.txt	LTP336	ltpFR2	22	11	PRINCE	1124	n/a	n/a	0	0	0
2345.52099609375	n/a	WORD	4803627	wordpools/wasnorm_wordpool_576.txt	LTP336	ltpFR2	22	11	TWISTER	1530	n/a	n/a	0	0	0
2348.1640625	n/a	WORD	4809040	wordpools/wasnorm_wordpool_576.txt	LTP336	ltpFR2	22	11	ROCKET	1202	n/a	n/a	0	0	0
2350.90576171875	n/a	WORD	4814655	wordpools/wasnorm_wordpool_576.txt	LTP336	ltpFR2	22	11	COMET	353	n/a	n/a	0	0	0
2353.6298828125	n/a	WORD	4820234	wordpools/wasnorm_wordpool_576.txt	LTP336	ltpFR2	22	11	LIGHTNING	820	n/a	n/a	0	0	0
2356.0888671875	n/a	WORD	4825270	wordpools/wasnorm_wordpool_576.txt	LTP336	ltpFR2	22	11	HAND	683	n/a	n/a	0	0	0
2358.64697265625	n/a	WORD	4830509	wordpools/wasnorm_wordpool_576.txt	LTP336	ltpFR2	22	11	POSTAGE	1113	n/a	n/a	0	0	0
2361.23876953125	n/a	WORD	4835817	wordpools/wasnorm_wordpool_576.txt	LTP336	ltpFR2	22	11	BEAST	108	n/a	n/a	0	0	0
2363.9306640625	n/a	WORD	4841330	wordpools/wasnorm_wordpool_576.txt	LTP336	ltpFR2	22	11	BUNNY	198	n/a	n/a	0	0	0
2366.37255859375	n/a	WORD	4846331	wordpools/wasnorm_wordpool_576.txt	LTP336	ltpFR2	22	11	TWEEZERS	1526	n/a	n/a	0	0	0
2369.04736328125	n/a	WORD	4851809	wordpools/wasnorm_wordpool_576.txt	LTP336	ltpFR2	22	11	MILK	895	n/a	n/a	0	0	0
2371.55419921875	n/a	WORD	4856943	wordpools/wasnorm_wordpool_576.txt	LTP336	ltpFR2	22	11	BARLEY	88	n/a	n/a	0	0	0
2374.28125	n/a	WORD	4862528	wordpools/wasnorm_wordpool_576.txt	LTP336	ltpFR2	22	11	SEAL	1262	n/a	n/a	0	0	0
2376.7041015625	n/a	WORD	4867490	wordpools/wasnorm_wordpool_576.txt	LTP336	ltpFR2	22	11	LOFT	840	n/a	n/a	0	0	0
2379.14599609375	n/a	WORD	4872491	wordpools/wasnorm_wordpool_576.txt	LTP336	ltpFR2	22	11	PEANUT	1032	n/a	n/a	0	0	0
2381.8369140625	n/a	WORD	4878002	wordpools/wasnorm_wordpool_576.txt	LTP336	ltpFR2	22	11	PECAN	1036	n/a	n/a	0	0	0
2384.4970703125	n/a	WORD	4883450	wordpools/wasnorm_wordpool_576.txt	LTP336	ltpFR2	22	11	CASKET	255	n/a	n/a	0	0	0
2387.05517578125	n/a	WORD	4888689	wordpools/wasnorm_wordpool_576.txt	LTP336	ltpFR2	22	11	NIGHTGOWN	953	n/a	n/a	0	0	0
2389.4970703125	n/a	WORD	4893690	wordpools/wasnorm_wordpool_576.txt	LTP336	ltpFR2	22	11	VALLEY	1545	n/a	n/a	0	0	0
2392.171875	n/a	WORD	4899168	wordpools/wasnorm_wordpool_576.txt	LTP336	ltpFR2	22	11	FUNGUS	614	n/a	n/a	0	0	0
2394.98095703125	n/a	WORD	4904921	wordpools/wasnorm_wordpool_576.txt	LTP336	ltpFR2	22	11	LASER	801	n/a	n/a	0	0	0
2397.62158203125	n/a	WORD	4910329	wordpools/wasnorm_wordpool_576.txt	LTP336	ltpFR2	22	11	ANTLER	29	n/a	n/a	0	0	0
2400.314453125	n/a	WORD	4915844	wordpools/wasnorm_wordpool_576.txt	LTP336	ltpFR2	22	11	TERMITE	1451	n/a	n/a	0	0	0
2402.98974609375	n/a	WORD	4921323	wordpools/wasnorm_wordpool_576.txt	LTP336	ltpFR2	22	11	MUMMY	932	n/a	n/a	0	0	0
2404.5947265625	n/a	START	4924610	n/a	LTP336	ltpFR2	22	n/a	n/a	n/a	19	n/a	n/a	n/a	n/a
2405.6875	n/a	DISTRACTOR	4926848	n/a	LTP336	ltpFR2	22	11	n/a	n/a	n/a	n/a	0	0	0
2405.697265625	n/a	PROB	4926868	n/a	LTP336	ltpFR2	22	n/a	n/a	n/a	19	14	8	1	5
2408.6064453125	n/a	PROB	4932826	n/a	LTP336	ltpFR2	22	n/a	n/a	n/a	19	15	4	5	6
2411.83447265625	n/a	PROB	4939437	n/a	LTP336	ltpFR2	22	n/a	n/a	n/a	19	7	2	4	1
2413.3232421875	n/a	PROB	4942486	n/a	LTP336	ltpFR2	22	n/a	n/a	n/a	19	22	9	6	7
2415.06201171875	n/a	PROB	4946047	n/a	LTP336	ltpFR2	22	n/a	n/a	n/a	19	18	7	5	6
2416.76611328125	n/a	PROB	4949537	n/a	LTP336	ltpFR2	22	n/a	n/a	n/a	19	16	6	5	5
2418.1552734375	n/a	PROB	4952382	n/a	LTP336	ltpFR2	22	n/a	n/a	n/a	19	15	4	5	6
2419.9609375	n/a	PROB	4956080	n/a	LTP336	ltpFR2	22	n/a	n/a	n/a	19	10	2	1	7
2421.33203125	n/a	PROB	4958888	n/a	LTP336	ltpFR2	22	n/a	n/a	n/a	19	8	1	2	5
2422.8701171875	n/a	PROB	4962038	n/a	LTP336	ltpFR2	22	n/a	n/a	n/a	19	14	5	8	1
2424.5087890625	n/a	PROB	4965394	n/a	LTP336	ltpFR2	22	n/a	n/a	n/a	19	16	2	8	6
2428.59375	n/a	STOP	4973760	n/a	LTP336	ltpFR2	22	n/a	n/a	n/a	19	n/a	n/a	n/a	n/a
2430.52783203125	n/a	REC_START	4977721	n/a	LTP336	ltpFR2	22	11	n/a	n/a	n/a	n/a	0	0	0
2431.30859375	n/a	REC_WORD	4979320	wordpools/wasnorm_wordpool_576.txt	LTP336	ltpFR2	22	11	LASER	801	n/a	n/a	0	0	0
2432.27587890625	n/a	REC_WORD	4981301	wordpools/wasnorm_wordpool_576.txt	LTP336	ltpFR2	22	11	TERMITE	1451	n/a	n/a	0	0	0
2433.5966796875	n/a	REC_WORD	4984006	wordpools/wasnorm_wordpool_576.txt	LTP336	ltpFR2	22	11	CRYSTAL	418	n/a	n/a	0	0	0
2435.0615234375	n/a	REC_WORD	4987006	wordpools/wasnorm_wordpool_576.txt	LTP336	ltpFR2	22	11	ROCKET	1202	n/a	n/a	0	0	0
2436.056640625	n/a	REC_WORD	4989044	wordpools/wasnorm_wordpool_576.txt	LTP336	ltpFR2	22	11	TWISTER	1530	n/a	n/a	0	0	0
2437.1064453125	n/a	REC_WORD	4991194	wordpools/wasnorm_wordpool_576.txt	LTP336	ltpFR2	22	11	COMET	353	n/a	n/a	0	0	0
2520.9521484375	n/a	DISTRACTOR	5162910	n/a	LTP336	ltpFR2	22	12	n/a	n/a	n/a	n/a	0	0	0
2520.9521484375	n/a	START	5162910	n/a	LTP336	ltpFR2	22	n/a	n/a	n/a	20	n/a	n/a	n/a	n/a
2520.96826171875	n/a	PROB	5162943	n/a	LTP336	ltpFR2	22	n/a	n/a	n/a	20	20	4	9	7
2523.42626953125	n/a	PROB	5167977	n/a	LTP336	ltpFR2	22	n/a	n/a	n/a	20	14	6	5	3
2526.068359375	n/a	PROB	5173388	n/a	LTP336	ltpFR2	22	n/a	n/a	n/a	20	18	9	3	6
2529.17822265625	n/a	PROB	5179757	n/a	LTP336	ltpFR2	22	n/a	n/a	n/a	20	12	2	5	5
2530.33203125	n/a	PROB	5182120	n/a	LTP336	ltpFR2	22	n/a	n/a	n/a	20	9	2	5	2
2531.98681640625	n/a	PROB	5185509	n/a	LTP336	ltpFR2	22	n/a	n/a	n/a	20	8	5	1	2
2533.77490234375	n/a	PROB	5189171	n/a	LTP336	ltpFR2	22	n/a	n/a	n/a	20	8	2	5	1
2536.51806640625	n/a	PROB	5194789	n/a	LTP336	ltpFR2	22	n/a	n/a	n/a	20	11	3	5	3
2538.32470703125	n/a	PROB	5198489	n/a	LTP336	ltpFR2	22	n/a	n/a	n/a	20	18	4	9	5
2540.81494140625	n/a	PROB	5203589	n/a	LTP336	ltpFR2	22	n/a	n/a	n/a	20	19	6	7	6
2542.87255859375	n/a	PROB	5207803	n/a	LTP336	ltpFR2	22	n/a	n/a	n/a	20	16	6	3	7
2544.07958984375	n/a	STOP	5210275	n/a	LTP336	ltpFR2	22	n/a	n/a	n/a	20	n/a	n/a	n/a	n/a
2545.9326171875	n/a	WORD	5214070	wordpools/wasnorm_wordpool_576.txt	LTP336	ltpFR2	22	12	PATROL	1027	n/a	n/a	0	0	0
2548.390625	n/a	WORD	5219104	wordpools/wasnorm_wordpool_576.txt	LTP336	ltpFR2	22	12	JELLY	755	n/a	n/a	0	0	0
2551.19970703125	n/a	WORD	5224857	wordpools/wasnorm_wordpool_576.txt	LTP336	ltpFR2	22	12	SCRIBBLE	1256	n/a	n/a	0	0	0
2553.8916015625	n/a	WORD	5230370	wordpools/wasnorm_wordpool_576.txt	LTP336	ltpFR2	22	12	PAPER	1011	n/a	n/a	0	0	0
2556.49951171875	n/a	WORD	5235711	wordpools/wasnorm_wordpool_576.txt	LTP336	ltpFR2	22	12	FRIAR	605	n/a	n/a	0	0	0
2558.97412109375	n/a	WORD	5240779	wordpools/wasnorm_wordpool_576.txt	LTP336	ltpFR2	22	12	RUST	1219	n/a	n/a	0	0	0
2561.43212890625	n/a	WORD	5245813	wordpools/wasnorm_wordpool_576.txt	LTP336	ltpFR2	22	12	FIREPLACE	570	n/a	n/a	0	0	0
2564.14013671875	n/a	WORD	5251359	wordpools/wasnorm_wordpool_576.txt	LTP336	ltpFR2	22	12	DRAGON	492	n/a	n/a	0	0	0
2566.84912109375	n/a	WORD	5256907	wordpools/wasnorm_wordpool_576.txt	LTP336	ltpFR2	22	12	XEROX	1628	n/a	n/a	0	0	0
2569.6240234375	n/a	WORD	5262590	wordpools/wasnorm_wordpool_576.txt	LTP336	ltpFR2	22	12	LACE	792	n/a	n/a	0	0	0
2572.31689453125	n/a	WORD	5268105	wordpools/wasnorm_wordpool_576.txt	LTP336	ltpFR2	22	12	ROOSTER	1209	n/a	n/a	0	0	0
2574.958984375	n/a	WORD	5273516	wordpools/wasnorm_wordpool_576.txt	LTP336	ltpFR2	22	12	PEPPER	1047	n/a	n/a	0	0	0
2577.69970703125	n/a	WORD	5279129	wordpools/wasnorm_wordpool_576.txt	LTP336	ltpFR2	22	12	PUDDING	1139	n/a	n/a	0	0	0
2580.24267578125	n/a	WORD	5284337	wordpools/wasnorm_wordpool_576.txt	LTP336	ltpFR2	22	12	INMATE	738	n/a	n/a	0	0	0
2582.69970703125	n/a	WORD	5289369	wordpools/wasnorm_wordpool_576.txt	LTP336	ltpFR2	22	12	HAMPER	682	n/a	n/a	0	0	0
2585.224609375	n/a	WORD	5294540	wordpools/wasnorm_wordpool_576.txt	LTP336	ltpFR2	22	12	FIREMAN	569	n/a	n/a	0	0	0
2587.95068359375	n/a	WORD	5300123	wordpools/wasnorm_wordpool_576.txt	LTP336	ltpFR2	22	12	SILK	1307	n/a	n/a	0	0	0
2590.69140625	n/a	WORD	5305736	wordpools/wasnorm_wordpool_576.txt	LTP336	ltpFR2	22	12	HEADBAND	696	n/a	n/a	0	0	0
2593.150390625	n/a	WORD	5310772	wordpools/wasnorm_wordpool_576.txt	LTP336	ltpFR2	22	12	RACKET	1155	n/a	n/a	0	0	0
2595.607421875	n/a	WORD	5315804	wordpools/wasnorm_wordpool_576.txt	LTP336	ltpFR2	22	12	ITEM	746	n/a	n/a	0	0	0
2598.2001953125	n/a	WORD	5321114	wordpools/wasnorm_wordpool_576.txt	LTP336	ltpFR2	22	12	VIKING	1565	n/a	n/a	0	0	0
2600.68994140625	n/a	WORD	5326213	wordpools/wasnorm_wordpool_576.txt	LTP336	ltpFR2	22	12	HAWK	692	n/a	n/a	0	0	0
2603.23291015625	n/a	WORD	5331421	wordpools/wasnorm_wordpool_576.txt	LTP336	ltpFR2	22	12	JUNGLE	764	n/a	n/a	0	0	0
2606.0078125	n/a	WORD	5337104	wordpools/wasnorm_wordpool_576.txt	LTP336	ltpFR2	22	12	CHURCH	307	n/a	n/a	0	0	0
2607.61279296875	n/a	START	5340391	n/a	LTP336	ltpFR2	22	n/a	n/a	n/a	21	n/a	n/a	n/a	n/a
2608.64501953125	n/a	DISTRACTOR	5342505	n/a	LTP336	ltpFR2	22	12	n/a	n/a	n/a	n/a	0	0	0
2608.64892578125	n/a	PROB	5342513	n/a	LTP336	ltpFR2	22	n/a	n/a	n/a	21	15	6	5	4
2611.1416015625	n/a	PROB	5347618	n/a	LTP336	ltpFR2	22	n/a	n/a	n/a	21	10	4	4	2
2612.44580078125	n/a	PROB	5350289	n/a	LTP336	ltpFR2	22	n/a	n/a	n/a	21	21	9	6	6
2614.23486328125	n/a	PROB	5353953	n/a	LTP336	ltpFR2	22	n/a	n/a	n/a	21	25	8	9	8
2618.681640625	n/a	PROB	5363060	n/a	LTP336	ltpFR2	22	n/a	n/a	n/a	21	11	6	1	4
2619.8017578125	n/a	PROB	5365354	n/a	LTP336	ltpFR2	22	n/a	n/a	n/a	21	10	5	2	3
2621.12353515625	n/a	PROB	5368061	n/a	LTP336	ltpFR2	22	n/a	n/a	n/a	21	13	3	2	8
2622.7275390625	n/a	PROB	5371346	n/a	LTP336	ltpFR2	22	n/a	n/a	n/a	21	21	8	8	5
2624.0166015625	n/a	PROB	5373986	n/a	LTP336	ltpFR2	22	n/a	n/a	n/a	21	9	1	3	5
2625.236328125	n/a	PROB	5376484	n/a	LTP336	ltpFR2	22	n/a	n/a	n/a	21	12	3	6	3
2626.45751953125	n/a	PROB	5378985	n/a	LTP336	ltpFR2	22	n/a	n/a	n/a	21	22	7	8	7
2628.83056640625	n/a	PROB	5383845	n/a	LTP336	ltpFR2	22	n/a	n/a	n/a	21	20	6	5	9
2631.17626953125	n/a	STOP	5388649	n/a	LTP336	ltpFR2	22	n/a	n/a	n/a	21	n/a	n/a	n/a	n/a
2633.38134765625	n/a	REC_START	5393165	n/a	LTP336	ltpFR2	22	12	n/a	n/a	n/a	n/a	0	0	0
2634.30126953125	n/a	REC_WORD	5395049	wordpools/wasnorm_wordpool_576.txt	LTP336	ltpFR2	22	12	PEPPER	1047	n/a	n/a	0	0	0
2635.00537109375	n/a	REC_WORD	5396491	wordpools/wasnorm_wordpool_576.txt	LTP336	ltpFR2	22	12	PATROL	1027	n/a	n/a	0	0	0
2636.41015625	n/a	REC_WORD	5399368	wordpools/wasnorm_wordpool_576.txt	LTP336	ltpFR2	22	12	JELLY	755	n/a	n/a	0	0	0
2637.84619140625	n/a	REC_WORD	5402309	wordpools/wasnorm_wordpool_576.txt	LTP336	ltpFR2	22	12	CHURCH	307	n/a	n/a	0	0	0
2723.8359375	n/a	WORD	5578416	wordpools/wasnorm_wordpool_576.txt	LTP336	ltpFR2	22	13	GUITAR	670	n/a	n/a	0	0	0
2726.39453125	n/a	WORD	5583656	wordpools/wasnorm_wordpool_576.txt	LTP336	ltpFR2	22	13	POWDER	1117	n/a	n/a	0	0	0
2728.86962890625	n/a	WORD	5588725	wordpools/wasnorm_wordpool_576.txt	LTP336	ltpFR2	22	13	POSSUM	1112	n/a	n/a	0	0	0
2731.37744140625	n/a	WORD	5593861	wordpools/wasnorm_wordpool_576.txt	LTP336	ltpFR2	22	13	SPOUSE	1358	n/a	n/a	0	0	0
2733.986328125	n/a	WORD	5599204	wordpools/wasnorm_wordpool_576.txt	LTP336	ltpFR2	22	13	DASHBOARD	441	n/a	n/a	0	0	0
2736.4443359375	n/a	WORD	5604238	wordpools/wasnorm_wordpool_576.txt	LTP336	ltpFR2	22	13	FRECKLE	602	n/a	n/a	0	0	0
2739.236328125	n/a	WORD	5609956	wordpools/wasnorm_wordpool_576.txt	LTP336	ltpFR2	22	13	BLOCKADE	137	n/a	n/a	0	0	0
2741.72607421875	n/a	WORD	5615055	wordpools/wasnorm_wordpool_576.txt	LTP336	ltpFR2	22	13	MARROW	872	n/a	n/a	0	0	0
2744.369140625	n/a	WORD	5620468	wordpools/wasnorm_wordpool_576.txt	LTP336	ltpFR2	22	13	ICING	732	n/a	n/a	0	0	0
2747.162109375	n/a	WORD	5626188	wordpools/wasnorm_wordpool_576.txt	LTP336	ltpFR2	22	13	AIRPORT	13	n/a	n/a	0	0	0
2749.60205078125	n/a	WORD	5631185	wordpools/wasnorm_wordpool_576.txt	LTP336	ltpFR2	22	13	MASK	876	n/a	n/a	0	0	0
2752.078125	n/a	WORD	5636256	wordpools/wasnorm_wordpool_576.txt	LTP336	ltpFR2	22	13	GRAVEL	659	n/a	n/a	0	0	0
2754.68505859375	n/a	WORD	5641595	wordpools/wasnorm_wordpool_576.txt	LTP336	ltpFR2	22	13	PIMPLE	1071	n/a	n/a	0	0	0
2757.24365234375	n/a	WORD	5646835	wordpools/wasnorm_wordpool_576.txt	LTP336	ltpFR2	22	13	GRAVE	658	n/a	n/a	0	0	0
2759.9697265625	n/a	WORD	5652418	wordpools/wasnorm_wordpool_576.txt	LTP336	ltpFR2	22	13	EYELASH	546	n/a	n/a	0	0	0
2762.427734375	n/a	WORD	5657452	wordpools/wasnorm_wordpool_576.txt	LTP336	ltpFR2	22	13	SHARK	1275	n/a	n/a	0	0	0
2764.91845703125	n/a	WORD	5662553	wordpools/wasnorm_wordpool_576.txt	LTP336	ltpFR2	22	13	SEAFOOD	1260	n/a	n/a	0	0	0
2767.693359375	n/a	WORD	5668236	wordpools/wasnorm_wordpool_576.txt	LTP336	ltpFR2	22	13	EAGLE	512	n/a	n/a	0	0	0
2770.486328125	n/a	WORD	5673956	wordpools/wasnorm_wordpool_576.txt	LTP336	ltpFR2	22	13	HUSBAND	728	n/a	n/a	0	0	0
2773.17822265625	n/a	WORD	5679469	wordpools/wasnorm_wordpool_576.txt	LTP336	ltpFR2	22	13	CONVICT	371	n/a	n/a	0	0	0
2775.83642578125	n/a	WORD	5684913	wordpools/wasnorm_wordpool_576.txt	LTP336	ltpFR2	22	13	CAPTIVE	240	n/a	n/a	0	0	0
2778.328125	n/a	WORD	5690016	wordpools/wasnorm_wordpool_576.txt	LTP336	ltpFR2	22	13	TOASTER	1472	n/a	n/a	0	0	0
2781.037109375	n/a	WORD	5695564	wordpools/wasnorm_wordpool_576.txt	LTP336	ltpFR2	22	13	COLLEGE	346	n/a	n/a	0	0	0
2783.6611328125	n/a	WORD	5700938	wordpools/wasnorm_wordpool_576.txt	LTP336	ltpFR2	22	13	PUPIL	1143	n/a	n/a	0	0	0
2785.26806640625	n/a	START	5704229	n/a	LTP336	ltpFR2	22	n/a	n/a	n/a	22	n/a	n/a	n/a	n/a
2786.2890625	n/a	DISTRACTOR	5706320	n/a	LTP336	ltpFR2	22	13	n/a	n/a	n/a	n/a	0	0	0
2786.30419921875	n/a	PROB	5706351	n/a	LTP336	ltpFR2	22	n/a	n/a	n/a	22	16	3	5	5
2788.86181640625	n/a	PROB	5711589	n/a	LTP336	ltpFR2	22	n/a	n/a	n/a	22	10	1	4	5
2790.216796875	n/a	PROB	5714364	n/a	LTP336	ltpFR2	22	n/a	n/a	n/a	22	12	2	6	4
2791.52001953125	n/a	PROB	5717033	n/a	LTP336	ltpFR2	22	n/a	n/a	n/a	22	12	8	3	1
2792.841796875	n/a	PROB	5719740	n/a	LTP336	ltpFR2	22	n/a	n/a	n/a	22	17	6	3	8
2794.6298828125	n/a	PROB	5723402	n/a	LTP336	ltpFR2	22	n/a	n/a	n/a	22	12	1	8	3
2795.86767578125	n/a	PROB	5725937	n/a	LTP336	ltpFR2	22	n/a	n/a	n/a	22	15	8	1	6
2797.77392578125	n/a	PROB	5729841	n/a	LTP336	ltpFR2	22	n/a	n/a	n/a	22	9	1	4	4
2798.927734375	n/a	PROB	5732204	n/a	LTP336	ltpFR2	22	n/a	n/a	n/a	22	17	7	5	5
2800.181640625	n/a	PROB	5734772	n/a	LTP336	ltpFR2	22	n/a	n/a	n/a	22	7	1	3	3
2801.435546875	n/a	PROB	5737340	n/a	LTP336	ltpFR2	22	n/a	n/a	n/a	22	20	8	9	3
2803.45947265625	n/a	PROB	5741485	n/a	LTP336	ltpFR2	22	n/a	n/a	n/a	22	9	1	7	1
2804.611328125	n/a	PROB	5743844	n/a	LTP336	ltpFR2	22	n/a	n/a	n/a	22	19	8	3	8
2806.36865234375	n/a	PROB	5747443	n/a	LTP336	ltpFR2	22	n/a	n/a	n/a	22	8	1	5	2
2809.2666015625	n/a	STOP	5753378	n/a	LTP336	ltpFR2	22	n/a	n/a	n/a	22	n/a	n/a	n/a	n/a
2811.13427734375	n/a	REC_START	5757203	n/a	LTP336	ltpFR2	22	13	n/a	n/a	n/a	n/a	0	0	0
2811.8154296875	n/a	REC_WORD	5758598	wordpools/wasnorm_wordpool_576.txt	LTP336	ltpFR2	22	13	TOASTER	1472	n/a	n/a	0	0	0
2812.8955078125	n/a	REC_WORD	5760810	wordpools/wasnorm_wordpool_576.txt	LTP336	ltpFR2	22	13	COLLEGE	346	n/a	n/a	0	0	0
2813.9091796875	n/a	REC_WORD	5762886	wordpools/wasnorm_wordpool_576.txt	LTP336	ltpFR2	22	13	BLOCKADE	137	n/a	n/a	0	0	0
2815.37841796875	n/a	REC_WORD	5765895	wordpools/wasnorm_wordpool_576.txt	LTP336	ltpFR2	22	13	EYELASH	546	n/a	n/a	0	0	0
2816.33740234375	n/a	REC_WORD	5767859	wordpools/wasnorm_wordpool_576.txt	LTP336	ltpFR2	22	13	FRECKLE	602	n/a	n/a	0	0	0
2821.73291015625	n/a	REC_WORD	5778909	wordpools/wasnorm_wordpool_576.txt	LTP336	ltpFR2	22	13	GUITAR	670	n/a	n/a	0	0	0
2822.7490234375	n/a	REC_WORD	5780990	wordpools/wasnorm_wordpool_576.txt	LTP336	ltpFR2	22	13	POWDER	1117	n/a	n/a	0	0	0
2901.58984375	n/a	WORD	5942456	wordpools/wasnorm_wordpool_576.txt	LTP336	ltpFR2	22	14	HOSTESS	723	n/a	n/a	0	0	0
2904.0830078125	n/a	WORD	5947562	wordpools/wasnorm_wordpool_576.txt	LTP336	ltpFR2	22	14	WAITRESS	1581	n/a	n/a	0	0	0
2906.5224609375	n/a	WORD	5952558	wordpools/wasnorm_wordpool_576.txt	LTP336	ltpFR2	22	14	PLUTO	1092	n/a	n/a	0	0	0
2909.0986328125	n/a	WORD	5957834	wordpools/wasnorm_wordpool_576.txt	LTP336	ltpFR2	22	14	SCARF	1246	n/a	n/a	0	0	0
2911.62255859375	n/a	WORD	5963003	wordpools/wasnorm_wordpool_576.txt	LTP336	ltpFR2	22	14	POISON	1096	n/a	n/a	0	0	0
2914.16455078125	n/a	WORD	5968209	wordpools/wasnorm_wordpool_576.txt	LTP336	ltpFR2	22	14	STONE	1385	n/a	n/a	0	0	0
2916.6884765625	n/a	WORD	5973378	wordpools/wasnorm_wordpool_576.txt	LTP336	ltpFR2	22	14	KIDNEY	776	n/a	n/a	0	0	0
2919.1142578125	n/a	WORD	5978346	wordpools/wasnorm_wordpool_576.txt	LTP336	ltpFR2	22	14	OYSTER	995	n/a	n/a	0	0	0
2921.537109375	n/a	WORD	5983308	wordpools/wasnorm_wordpool_576.txt	LTP336	ltpFR2	22	14	SNAIL	1332	n/a	n/a	0	0	0
2924.21435546875	n/a	WORD	5988791	wordpools/wasnorm_wordpool_576.txt	LTP336	ltpFR2	22	14	INFANT	737	n/a	n/a	0	0	0
2926.669921875	n/a	WORD	5993820	wordpools/wasnorm_wordpool_576.txt	LTP336	ltpFR2	22	14	MESSAGE	888	n/a	n/a	0	0	0
2929.11328125	n/a	WORD	5998824	wordpools/wasnorm_wordpool_576.txt	LTP336	ltpFR2	22	14	PASTRY	1022	n/a	n/a	0	0	0
2931.85498046875	n/a	WORD	6004439	wordpools/wasnorm_wordpool_576.txt	LTP336	ltpFR2	22	14	ROBOT	1200	n/a	n/a	0	0	0
2934.61279296875	n/a	WORD	6010087	wordpools/wasnorm_wordpool_576.txt	LTP336	ltpFR2	22	14	PARSLEY	1016	n/a	n/a	0	0	0
2937.4228515625	n/a	WORD	6015842	wordpools/wasnorm_wordpool_576.txt	LTP336	ltpFR2	22	14	VAGRANT	1544	n/a	n/a	0	0	0
2940.23193359375	n/a	WORD	6021595	wordpools/wasnorm_wordpool_576.txt	LTP336	ltpFR2	22	14	COD	340	n/a	n/a	0	0	0
2942.83984375	n/a	WORD	6026936	wordpools/wasnorm_wordpool_576.txt	LTP336	ltpFR2	22	14	DAISY	435	n/a	n/a	0	0	0
2945.5478515625	n/a	WORD	6032482	wordpools/wasnorm_wordpool_576.txt	LTP336	ltpFR2	22	14	HIGHWAY	707	n/a	n/a	0	0	0
2948.29052734375	n/a	WORD	6038099	wordpools/wasnorm_wordpool_576.txt	LTP336	ltpFR2	22	14	VENUS	1557	n/a	n/a	0	0	0
2950.86572265625	n/a	WORD	6043373	wordpools/wasnorm_wordpool_576.txt	LTP336	ltpFR2	22	14	JELLO	754	n/a	n/a	0	0	0
2953.34033203125	n/a	WORD	6048441	wordpools/wasnorm_wordpool_576.txt	LTP336	ltpFR2	22	14	GAZELLE	628	n/a	n/a	0	0	0
2955.96533203125	n/a	WORD	6053817	wordpools/wasnorm_wordpool_576.txt	LTP336	ltpFR2	22	14	LETTUCE	814	n/a	n/a	0	0	0
2958.5234375	n/a	WORD	6059056	wordpools/wasnorm_wordpool_576.txt	LTP336	ltpFR2	22	14	SERVER	1272	n/a	n/a	0	0	0
2961.1494140625	n/a	WORD	6064434	wordpools/wasnorm_wordpool_576.txt	LTP336	ltpFR2	22	14	CUSTARD	429	n/a	n/a	0	0	0
2962.7529296875	n/a	START	6067718	n/a	LTP336	ltpFR2	22	n/a	n/a	n/a	23	n/a	n/a	n/a	n/a
2963.64599609375	n/a	DISTRACTOR	6069547	n/a	LTP336	ltpFR2	22	14	n/a	n/a	n/a	n/a	0	0	0
2963.65625	n/a	PROB	6069568	n/a	LTP336	ltpFR2	22	n/a	n/a	n/a	23	14	9	3	2
2965.72900390625	n/a	PROB	6073813	n/a	LTP336	ltpFR2	22	n/a	n/a	n/a	23	19	4	9	6
2967.30224609375	n/a	PROB	6077035	n/a	LTP336	ltpFR2	22	n/a	n/a	n/a	23	14	2	3	9
2968.82275390625	n/a	PROB	6080149	n/a	LTP336	ltpFR2	22	n/a	n/a	n/a	23	21	8	9	4
2971.19775390625	n/a	PROB	6085013	n/a	LTP336	ltpFR2	22	n/a	n/a	n/a	23	18	6	3	9
2972.61767578125	n/a	PROB	6087921	n/a	LTP336	ltpFR2	22	n/a	n/a	n/a	23	22	7	8	7
2974.375	n/a	PROB	6091520	n/a	LTP336	ltpFR2	22	n/a	n/a	n/a	23	13	8	4	1
2975.962890625	n/a	PROB	6094772	n/a	LTP336	ltpFR2	22	n/a	n/a	n/a	23	17	7	8	2
2978.2705078125	n/a	PROB	6099498	n/a	LTP336	ltpFR2	22	n/a	n/a	n/a	23	13	3	7	3
2979.5908203125	n/a	PROB	6102202	n/a	LTP336	ltpFR2	22	n/a	n/a	n/a	23	26	8	9	9
2981.44775390625	n/a	PROB	6106005	n/a	LTP336	ltpFR2	22	n/a	n/a	n/a	23	17	7	4	6
2982.9013671875	n/a	PROB	6108982	n/a	LTP336	ltpFR2	22	n/a	n/a	n/a	23	14	6	6	2
2984.17236328125	n/a	PROB	6111585	n/a	LTP336	ltpFR2	22	n/a	n/a	n/a	23	11	6	1	4
2985.2646484375	n/a	STOP	6113822	n/a	LTP336	ltpFR2	22	n/a	n/a	n/a	23	n/a	n/a	n/a	n/a
2988.63623046875	n/a	REC_START	6120727	n/a	LTP336	ltpFR2	22	14	n/a	n/a	n/a	n/a	0	0	0
2989.2744140625	n/a	REC_WORD	6122034	wordpools/wasnorm_wordpool_576.txt	LTP336	ltpFR2	22	14	LETTUCE	814	n/a	n/a	0	0	0
2990.109375	n/a	REC_WORD	6123744	wordpools/wasnorm_wordpool_576.txt	LTP336	ltpFR2	22	14	SERVER	1272	n/a	n/a	0	0	0
2991.21337890625	n/a	REC_WORD	6126005	wordpools/wasnorm_wordpool_576.txt	LTP336	ltpFR2	22	14	CUSTARD	429	n/a	n/a	0	0	0
2992.71630859375	n/a	REC_WORD	6129083	wordpools/wasnorm_wordpool_576.txt	LTP336	ltpFR2	22	14	JELLO	754	n/a	n/a	0	0	0
2993.83740234375	n/a	REC_WORD	6131379	wordpools/wasnorm_wordpool_576.txt	LTP336	ltpFR2	22	14	VENUS	1557	n/a	n/a	0	0	0
2994.9033203125	n/a	REC_WORD	6133562	wordpools/wasnorm_wordpool_576.txt	LTP336	ltpFR2	22	14	GAZELLE	628	n/a	n/a	0	0	0
3000.10693359375	n/a	REC_WORD	6144219	wordpools/wasnorm_wordpool_576.txt	LTP336	ltpFR2	22	14	KIDNEY	776	n/a	n/a	0	0	0
3003.09619140625	n/a	REC_WORD	6150341	wordpools/wasnorm_wordpool_576.txt	LTP336	ltpFR2	22	14	WAITRESS	1581	n/a	n/a	0	0	0
3004.1591796875	n/a	REC_WORD	6152518	wordpools/wasnorm_wordpool_576.txt	LTP336	ltpFR2	22	14	HOSTESS	723	n/a	n/a	0	0	0
3079.09375	n/a	WORD	6305984	wordpools/wasnorm_wordpool_576.txt	LTP336	ltpFR2	22	15	OINTMENT	974	n/a	n/a	0	0	0
3081.8017578125	n/a	WORD	6311530	wordpools/wasnorm_wordpool_576.txt	LTP336	ltpFR2	22	15	MUSTARD	935	n/a	n/a	0	0	0
3084.3447265625	n/a	WORD	6316738	wordpools/wasnorm_wordpool_576.txt	LTP336	ltpFR2	22	15	CABIN	211	n/a	n/a	0	0	0
3087.0537109375	n/a	WORD	6322286	wordpools/wasnorm_wordpool_576.txt	LTP336	ltpFR2	22	15	CREATURE	403	n/a	n/a	0	0	0
3089.77783203125	n/a	WORD	6327865	wordpools/wasnorm_wordpool_576.txt	LTP336	ltpFR2	22	15	LAVA	804	n/a	n/a	0	0	0
3092.38671875	n/a	WORD	6333208	wordpools/wasnorm_wordpool_576.txt	LTP336	ltpFR2	22	15	DINER	467	n/a	n/a	0	0	0
3094.99560546875	n/a	WORD	6338551	wordpools/wasnorm_wordpool_576.txt	LTP336	ltpFR2	22	15	BANK	83	n/a	n/a	0	0	0
3097.47021484375	n/a	WORD	6343619	wordpools/wasnorm_wordpool_576.txt	LTP336	ltpFR2	22	15	RIFLE	1192	n/a	n/a	0	0	0
3100.1455078125	n/a	WORD	6349098	wordpools/wasnorm_wordpool_576.txt	LTP336	ltpFR2	22	15	PISTOL	1075	n/a	n/a	0	0	0
3102.904296875	n/a	WORD	6354748	wordpools/wasnorm_wordpool_576.txt	LTP336	ltpFR2	22	15	CABBAGE	210	n/a	n/a	0	0	0
3105.4462890625	n/a	WORD	6359954	wordpools/wasnorm_wordpool_576.txt	LTP336	ltpFR2	22	15	FLASHLIGHT	575	n/a	n/a	0	0	0
3108.2041015625	n/a	WORD	6365602	wordpools/wasnorm_wordpool_576.txt	LTP336	ltpFR2	22	15	MATCH	878	n/a	n/a	0	0	0
3110.830078125	n/a	WORD	6370980	wordpools/wasnorm_wordpool_576.txt	LTP336	ltpFR2	22	15	SHELTER	1282	n/a	n/a	0	0	0
3113.40478515625	n/a	WORD	6376253	wordpools/wasnorm_wordpool_576.txt	LTP336	ltpFR2	22	15	PASTA	1021	n/a	n/a	0	0	0
3115.84619140625	n/a	WORD	6381253	wordpools/wasnorm_wordpool_576.txt	LTP336	ltpFR2	22	15	WRENCH	1625	n/a	n/a	0	0	0
3118.5537109375	n/a	WORD	6386798	wordpools/wasnorm_wordpool_576.txt	LTP336	ltpFR2	22	15	MACHINE	852	n/a	n/a	0	0	0
3121.1796875	n/a	WORD	6392176	wordpools/wasnorm_wordpool_576.txt	LTP336	ltpFR2	22	15	MAMMAL	861	n/a	n/a	0	0	0
3123.70361328125	n/a	WORD	6397345	wordpools/wasnorm_wordpool_576.txt	LTP336	ltpFR2	22	15	CHAUFFEUR	283	n/a	n/a	0	0	0
3126.41259765625	n/a	WORD	6402893	wordpools/wasnorm_wordpool_576.txt	LTP336	ltpFR2	22	15	JEANS	752	n/a	n/a	0	0	0
3128.98779296875	n/a	WORD	6408167	wordpools/wasnorm_wordpool_576.txt	LTP336	ltpFR2	22	15	NURSE	963	n/a	n/a	0	0	0
3131.74560546875	n/a	WORD	6413815	wordpools/wasnorm_wordpool_576.txt	LTP336	ltpFR2	22	15	TABLET	1427	n/a	n/a	0	0	0
3134.271484375	n/a	WORD	6418988	wordpools/wasnorm_wordpool_576.txt	LTP336	ltpFR2	22	15	HOUND	724	n/a	n/a	0	0	0
3136.86328125	n/a	WORD	6424296	wordpools/wasnorm_wordpool_576.txt	LTP336	ltpFR2	22	15	OZONE	996	n/a	n/a	0	0	0
3139.404296875	n/a	WORD	6429500	wordpools/wasnorm_wordpool_576.txt	LTP336	ltpFR2	22	15	KNIFE	785	n/a	n/a	0	0	0
3141.01025390625	n/a	START	6432789	n/a	LTP336	ltpFR2	22	n/a	n/a	n/a	24	n/a	n/a	n/a	n/a
3142.0283203125	n/a	DISTRACTOR	6434874	n/a	LTP336	ltpFR2	22	15	n/a	n/a	n/a	n/a	0	0	0
3142.0302734375	n/a	PROB	6434878	n/a	LTP336	ltpFR2	22	n/a	n/a	n/a	24	12	9	2	1
3143.93603515625	n/a	PROB	6438781	n/a	LTP336	ltpFR2	22	n/a	n/a	n/a	24	14	7	4	3
3146.52587890625	n/a	PROB	6444085	n/a	LTP336	ltpFR2	22	n/a	n/a	n/a	24	15	7	7	1
3147.865234375	n/a	PROB	6446828	n/a	LTP336	ltpFR2	22	n/a	n/a	n/a	24	14	4	5	5
3149.30322265625	n/a	PROB	6449773	n/a	LTP336	ltpFR2	22	n/a	n/a	n/a	24	11	1	7	3
3150.4072265625	n/a	PROB	6452034	n/a	LTP336	ltpFR2	22	n/a	n/a	n/a	24	12	8	2	2
3151.52587890625	n/a	PROB	6454325	n/a	LTP336	ltpFR2	22	n/a	n/a	n/a	24	12	3	2	7
3152.93212890625	n/a	PROB	6457205	n/a	LTP336	ltpFR2	22	n/a	n/a	n/a	24	10	2	6	2
3154.18603515625	n/a	PROB	6459773	n/a	LTP336	ltpFR2	22	n/a	n/a	n/a	24	15	9	1	5
3155.4560546875	n/a	PROB	6462374	n/a	LTP336	ltpFR2	22	n/a	n/a	n/a	24	15	3	5	7
3158.11474609375	n/a	PROB	6467819	n/a	LTP336	ltpFR2	22	n/a	n/a	n/a	24	11	4	3	4
3159.3857421875	n/a	PROB	6470422	n/a	LTP336	ltpFR2	22	n/a	n/a	n/a	24	13	3	6	4
3160.94091796875	n/a	PROB	6473607	n/a	LTP336	ltpFR2	22	n/a	n/a	n/a	24	14	9	3	2
3162.3115234375	n/a	PROB	6476414	n/a	LTP336	ltpFR2	22	n/a	n/a	n/a	24	12	4	5	3
3163.61572265625	n/a	STOP	6479085	n/a	LTP336	ltpFR2	22	n/a	n/a	n/a	24	n/a	n/a	n/a	n/a
3166.927734375	n/a	REC_START	6485868	n/a	LTP336	ltpFR2	22	15	n/a	n/a	n/a	n/a	0	0	0
3167.271484375	n/a	REC_WORD	6486572	wordpools/wasnorm_wordpool_576.txt	LTP336	ltpFR2	22	15	HOUND	724	n/a	n/a	0	0	0
3168.150390625	n/a	REC_WORD	6488372	wordpools/wasnorm_wordpool_576.txt	LTP336	ltpFR2	22	15	OZONE	996	n/a	n/a	0	0	0
3169.359375	n/a	REC_WORD	6490848	wordpools/wasnorm_wordpool_576.txt	LTP336	ltpFR2	22	15	KNIFE	785	n/a	n/a	0	0	0
3170.7724609375	n/a	REC_WORD	6493742	wordpools/wasnorm_wordpool_576.txt	LTP336	ltpFR2	22	15	LAVA	804	n/a	n/a	0	0	0
3171.8251953125	n/a	REC_WORD	6495898	wordpools/wasnorm_wordpool_576.txt	LTP336	ltpFR2	22	15	FLASHLIGHT	575	n/a	n/a	0	0	0
3257.3671875	n/a	DISTRACTOR	6671088	n/a	LTP336	ltpFR2	22	16	n/a	n/a	n/a	n/a	0	0	0
3257.3671875	n/a	START	6671088	n/a	LTP336	ltpFR2	22	n/a	n/a	n/a	25	n/a	n/a	n/a	n/a
3257.38427734375	n/a	PROB	6671123	n/a	LTP336	ltpFR2	22	n/a	n/a	n/a	25	16	5	5	6
3259.43994140625	n/a	PROB	6675333	n/a	LTP336	ltpFR2	22	n/a	n/a	n/a	25	8	2	1	5
3260.6767578125	n/a	PROB	6677866	n/a	LTP336	ltpFR2	22	n/a	n/a	n/a	25	20	6	9	5
3263.31982421875	n/a	PROB	6683279	n/a	LTP336	ltpFR2	22	n/a	n/a	n/a	25	11	1	9	1
3264.4560546875	n/a	PROB	6685606	n/a	LTP336	ltpFR2	22	n/a	n/a	n/a	25	16	6	3	7
3268.15185546875	n/a	PROB	6693175	n/a	LTP336	ltpFR2	22	n/a	n/a	n/a	25	15	2	4	9
3269.72265625	n/a	PROB	6696392	n/a	LTP336	ltpFR2	22	n/a	n/a	n/a	25	8	6	1	1
3270.7587890625	n/a	PROB	6698514	n/a	LTP336	ltpFR2	22	n/a	n/a	n/a	25	18	8	8	2
3272.03076171875	n/a	PROB	6701119	n/a	LTP336	ltpFR2	22	n/a	n/a	n/a	25	10	2	7	1
3273.134765625	n/a	PROB	6703380	n/a	LTP336	ltpFR2	22	n/a	n/a	n/a	25	22	6	8	8
3274.58740234375	n/a	PROB	6706355	n/a	LTP336	ltpFR2	22	n/a	n/a	n/a	25	14	1	5	8
3276.361328125	n/a	PROB	6709988	n/a	LTP336	ltpFR2	22	n/a	n/a	n/a	25	18	9	3	6
3278.45166015625	n/a	PROB	6714269	n/a	LTP336	ltpFR2	22	n/a	n/a	n/a	25	4	1	1	2
3279.58740234375	n/a	PROB	6716595	n/a	LTP336	ltpFR2	22	n/a	n/a	n/a	25	10	4	4	2
3280.91357421875	n/a	STOP	6719311	n/a	LTP336	ltpFR2	22	n/a	n/a	n/a	25	n/a	n/a	n/a	n/a
3282.43017578125	n/a	WORD	6722417	wordpools/wasnorm_wordpool_576.txt	LTP336	ltpFR2	22	16	SURVEY	1414	n/a	n/a	0	0	0
3284.9052734375	n/a	WORD	6727486	wordpools/wasnorm_wordpool_576.txt	LTP336	ltpFR2	22	16	PLIERS	1089	n/a	n/a	0	0	0
3287.68017578125	n/a	WORD	6733169	wordpools/wasnorm_wordpool_576.txt	LTP336	ltpFR2	22	16	JUDGE	761	n/a	n/a	0	0	0
3290.17236328125	n/a	WORD	6738273	wordpools/wasnorm_wordpool_576.txt	LTP336	ltpFR2	22	16	ZIPPER	1636	n/a	n/a	0	0	0
3292.9140625	n/a	WORD	6743888	wordpools/wasnorm_wordpool_576.txt	LTP336	ltpFR2	22	16	SOFTBALL	1343	n/a	n/a	0	0	0
3295.6220703125	n/a	WORD	6749434	wordpools/wasnorm_wordpool_576.txt	LTP336	ltpFR2	22	16	BINDER	127	n/a	n/a	0	0	0
3298.18115234375	n/a	WORD	6754675	wordpools/wasnorm_wordpool_576.txt	LTP336	ltpFR2	22	16	JUGGLER	763	n/a	n/a	0	0	0
3300.85693359375	n/a	WORD	6760155	wordpools/wasnorm_wordpool_576.txt	LTP336	ltpFR2	22	16	COBRA	336	n/a	n/a	0	0	0
3303.53076171875	n/a	WORD	6765631	wordpools/wasnorm_wordpool_576.txt	LTP336	ltpFR2	22	16	TRENCH	1503	n/a	n/a	0	0	0
3306.3076171875	n/a	WORD	6771318	wordpools/wasnorm_wordpool_576.txt	LTP336	ltpFR2	22	16	QUARTER	1148	n/a	n/a	0	0	0
3308.8486328125	n/a	WORD	6776522	wordpools/wasnorm_wordpool_576.txt	LTP336	ltpFR2	22	16	LONDON	843	n/a	n/a	0	0	0
3311.6064453125	n/a	WORD	6782170	wordpools/wasnorm_wordpool_576.txt	LTP336	ltpFR2	22	16	EUROPE	541	n/a	n/a	0	0	0
3314.400390625	n/a	WORD	6787892	wordpools/wasnorm_wordpool_576.txt	LTP336	ltpFR2	22	16	GYMNAST	675	n/a	n/a	0	0	0
3317.025390625	n/a	WORD	6793268	wordpools/wasnorm_wordpool_576.txt	LTP336	ltpFR2	22	16	MEDAL	885	n/a	n/a	0	0	0
3319.5654296875	n/a	WORD	6798470	wordpools/wasnorm_wordpool_576.txt	LTP336	ltpFR2	22	16	SODA	1341	n/a	n/a	0	0	0
3322.34228515625	n/a	WORD	6804157	wordpools/wasnorm_wordpool_576.txt	LTP336	ltpFR2	22	16	ISLAND	745	n/a	n/a	0	0	0
3324.76611328125	n/a	WORD	6809121	wordpools/wasnorm_wordpool_576.txt	LTP336	ltpFR2	22	16	LAKE	796	n/a	n/a	0	0	0
3327.458984375	n/a	WORD	6814636	wordpools/wasnorm_wordpool_576.txt	LTP336	ltpFR2	22	16	PATIENT	1024	n/a	n/a	0	0	0
3330.05029296875	n/a	WORD	6819943	wordpools/wasnorm_wordpool_576.txt	LTP336	ltpFR2	22	16	HOOD	714	n/a	n/a	0	0	0
3332.57421875	n/a	WORD	6825112	wordpools/wasnorm_wordpool_576.txt	LTP336	ltpFR2	22	16	BOUQUET	157	n/a	n/a	0	0	0
3335.11669921875	n/a	WORD	6830319	wordpools/wasnorm_wordpool_576.txt	LTP336	ltpFR2	22	16	POPCORN	1104	n/a	n/a	0	0	0
3337.8759765625	n/a	WORD	6835970	wordpools/wasnorm_wordpool_576.txt	LTP336	ltpFR2	22	16	UMPIRE	1535	n/a	n/a	0	0	0
3340.40087890625	n/a	WORD	6841141	wordpools/wasnorm_wordpool_576.txt	LTP336	ltpFR2	22	16	EGYPT	519	n/a	n/a	0	0	0
3342.95849609375	n/a	WORD	6846379	wordpools/wasnorm_wordpool_576.txt	LTP336	ltpFR2	22	16	BUBBLE	183	n/a	n/a	0	0	0
3344.5625	n/a	START	6849664	n/a	LTP336	ltpFR2	22	n/a	n/a	n/a	26	n/a	n/a	n/a	n/a
3345.5068359375	n/a	DISTRACTOR	6851598	n/a	LTP336	ltpFR2	22	16	n/a	n/a	n/a	n/a	0	0	0
3345.515625	n/a	PROB	6851616	n/a	LTP336	ltpFR2	22	n/a	n/a	n/a	26	22	7	6	9
3350.11474609375	n/a	PROB	6861035	n/a	LTP336	ltpFR2	22	n/a	n/a	n/a	26	18	6	4	8
3351.53564453125	n/a	PROB	6863945	n/a	LTP336	ltpFR2	22	n/a	n/a	n/a	26	16	8	6	2
3352.990234375	n/a	PROB	6866924	n/a	LTP336	ltpFR2	22	n/a	n/a	n/a	26	9	2	2	5
3354.41259765625	n/a	PROB	6869837	n/a	LTP336	ltpFR2	22	n/a	n/a	n/a	26	15	5	6	4
3356.1845703125	n/a	PROB	6873466	n/a	LTP336	ltpFR2	22	n/a	n/a	n/a	26	13	1	4	8
3357.654296875	n/a	PROB	6876476	n/a	LTP336	ltpFR2	22	n/a	n/a	n/a	26	20	2	9	9
3359.16015625	n/a	PROB	6879560	n/a	LTP336	ltpFR2	22	n/a	n/a	n/a	26	15	3	3	9
3361.5341796875	n/a	PROB	6884422	n/a	LTP336	ltpFR2	22	n/a	n/a	n/a	26	17	9	4	4
3363.34033203125	n/a	PROB	6888121	n/a	LTP336	ltpFR2	22	n/a	n/a	n/a	26	18	2	7	9
3365.96630859375	n/a	PROB	6893499	n/a	LTP336	ltpFR2	22	n/a	n/a	n/a	26	21	9	9	3
3368.51220703125	n/a	STOP	6898713	n/a	LTP336	ltpFR2	22	n/a	n/a	n/a	26	n/a	n/a	n/a	n/a
3370.380859375	n/a	REC_START	6902540	n/a	LTP336	ltpFR2	22	16	n/a	n/a	n/a	n/a	0	0	0
3370.8271484375	n/a	REC_WORD	6903454	wordpools/wasnorm_wordpool_576.txt	LTP336	ltpFR2	22	16	EGYPT	519	n/a	n/a	0	0	0
3372.470703125	n/a	REC_WORD	6906820	wordpools/wasnorm_wordpool_576.txt	LTP336	ltpFR2	22	16	BUBBLE	183	n/a	n/a	0	0	0
3375.73974609375	n/a	REC_WORD	6913515	wordpools/wasnorm_wordpool_576.txt	LTP336	ltpFR2	22	16	SOFTBALL	1343	n/a	n/a	0	0	0
3377.0	n/a	REC_WORD	6916096	wordpools/wasnorm_wordpool_576.txt	LTP336	ltpFR2	22	16	JUDGE	761	n/a	n/a	0	0	0
3378.11181640625	n/a	REC_WORD	6918373	wordpools/wasnorm_wordpool_576.txt	LTP336	ltpFR2	22	16	ZIPPER	1636	n/a	n/a	0	0	0
3404.2109375	n/a	REC_WORD_VV	6971824	wordpools/wasnorm_wordpool_576.txt	LTP336	ltpFR2	22	16	<>	-1	n/a	n/a	0	0	0
3411.66162109375	n/a	REC_WORD	6987083	wordpools/wasnorm_wordpool_576.txt	LTP336	ltpFR2	22	16	SLIPPERS	-1	n/a	n/a	0	0	0
3446.90869140625	n/a	REST_REWET	7059269	n/a	LTP336	ltpFR2	22	16	n/a	n/a	n/a	n/a	0	0	0
3541.4951171875	n/a	WORD	7252982	wordpools/wasnorm_wordpool_576.txt	LTP336	ltpFR2	22	17	DUSTPAN	509	n/a	n/a	0	0	0
3543.9541015625	n/a	WORD	7258018	wordpools/wasnorm_wordpool_576.txt	LTP336	ltpFR2	22	17	DUST	508	n/a	n/a	0	0	0
3546.7451171875	n/a	WORD	7263734	wordpools/wasnorm_wordpool_576.txt	LTP336	ltpFR2	22	17	ORCHID	982	n/a	n/a	0	0	0
3549.2041015625	n/a	WORD	7268770	wordpools/wasnorm_wordpool_576.txt	LTP336	ltpFR2	22	17	FLEET	578	n/a	n/a	0	0	0
3551.6279296875	n/a	WORD	7273734	wordpools/wasnorm_wordpool_576.txt	LTP336	ltpFR2	22	17	COOKBOOK	373	n/a	n/a	0	0	0
3554.4208984375	n/a	WORD	7279454	wordpools/wasnorm_wordpool_576.txt	LTP336	ltpFR2	22	17	TABLE	1426	n/a	n/a	0	0	0
3556.97900390625	n/a	WORD	7284693	wordpools/wasnorm_wordpool_576.txt	LTP336	ltpFR2	22	17	BEAVER	109	n/a	n/a	0	0	0
3559.45361328125	n/a	WORD	7289761	wordpools/wasnorm_wordpool_576.txt	LTP336	ltpFR2	22	17	OX	994	n/a	n/a	0	0	0
3562.07861328125	n/a	WORD	7295137	wordpools/wasnorm_wordpool_576.txt	LTP336	ltpFR2	22	17	STOVE	1388	n/a	n/a	0	0	0
3564.83740234375	n/a	WORD	7300787	wordpools/wasnorm_wordpool_576.txt	LTP336	ltpFR2	22	17	MUFFIN	929	n/a	n/a	0	0	0
3567.44677734375	n/a	WORD	7306131	wordpools/wasnorm_wordpool_576.txt	LTP336	ltpFR2	22	17	BUG	187	n/a	n/a	0	0	0
3570.20458984375	n/a	WORD	7311779	wordpools/wasnorm_wordpool_576.txt	LTP336	ltpFR2	22	17	FARMER	553	n/a	n/a	0	0	0
3572.8125	n/a	WORD	7317120	wordpools/wasnorm_wordpool_576.txt	LTP336	ltpFR2	22	17	TYPIST	1532	n/a	n/a	0	0	0
3575.58837890625	n/a	WORD	7322805	wordpools/wasnorm_wordpool_576.txt	LTP336	ltpFR2	22	17	CARROT	249	n/a	n/a	0	0	0
3578.3310546875	n/a	WORD	7328422	wordpools/wasnorm_wordpool_576.txt	LTP336	ltpFR2	22	17	SNACK	1331	n/a	n/a	0	0	0
3580.85595703125	n/a	WORD	7333593	wordpools/wasnorm_wordpool_576.txt	LTP336	ltpFR2	22	17	FILM	565	n/a	n/a	0	0	0
3583.5302734375	n/a	WORD	7339070	wordpools/wasnorm_wordpool_576.txt	LTP336	ltpFR2	22	17	CAMEL	223	n/a	n/a	0	0	0
3586.2060546875	n/a	WORD	7344550	wordpools/wasnorm_wordpool_576.txt	LTP336	ltpFR2	22	17	ARM	38	n/a	n/a	0	0	0
3588.93212890625	n/a	WORD	7350133	wordpools/wasnorm_wordpool_576.txt	LTP336	ltpFR2	22	17	ELBOW	520	n/a	n/a	0	0	0
3591.505859375	n/a	WORD	7355404	wordpools/wasnorm_wordpool_576.txt	LTP336	ltpFR2	22	17	PUPPY	1144	n/a	n/a	0	0	0
3593.9306640625	n/a	WORD	7360370	wordpools/wasnorm_wordpool_576.txt	LTP336	ltpFR2	22	17	GRIZZLY	662	n/a	n/a	0	0	0
3596.68896484375	n/a	WORD	7366019	wordpools/wasnorm_wordpool_576.txt	LTP336	ltpFR2	22	17	SIBLING	1301	n/a	n/a	0	0	0
3599.16455078125	n/a	WORD	7371089	wordpools/wasnorm_wordpool_576.txt	LTP336	ltpFR2	22	17	ZEBRA	1635	n/a	n/a	0	0	0
3601.82373046875	n/a	WORD	7376535	wordpools/wasnorm_wordpool_576.txt	LTP336	ltpFR2	22	17	LILY	821	n/a	n/a	0	0	0
3603.4287109375	n/a	START	7379822	n/a	LTP336	ltpFR2	22	n/a	n/a	n/a	27	n/a	n/a	n/a	n/a
3604.28857421875	n/a	DISTRACTOR	7381583	n/a	LTP336	ltpFR2	22	17	n/a	n/a	n/a	n/a	0	0	0
3604.29736328125	n/a	PROB	7381601	n/a	LTP336	ltpFR2	22	n/a	n/a	n/a	27	11	1	8	2
3606.3046875	n/a	PROB	7385712	n/a	LTP336	ltpFR2	22	n/a	n/a	n/a	27	15	8	2	5
3607.84228515625	n/a	PROB	7388861	n/a	LTP336	ltpFR2	22	n/a	n/a	n/a	27	14	7	6	1
3609.26318359375	n/a	PROB	7391771	n/a	LTP336	ltpFR2	22	n/a	n/a	n/a	27	14	5	3	6
3610.90234375	n/a	PROB	7395128	n/a	LTP336	ltpFR2	22	n/a	n/a	n/a	27	14	5	7	2
3612.2734375	n/a	PROB	7397936	n/a	LTP336	ltpFR2	22	n/a	n/a	n/a	27	15	6	5	4
3614.0791015625	n/a	PROB	7401634	n/a	LTP336	ltpFR2	22	n/a	n/a	n/a	27	18	4	8	6
3615.91796875	n/a	PROB	7405400	n/a	LTP336	ltpFR2	22	n/a	n/a	n/a	27	21	4	9	8
3619.462890625	n/a	PROB	7412660	n/a	LTP336	ltpFR2	22	n/a	n/a	n/a	27	14	7	1	6
3620.85107421875	n/a	PROB	7415503	n/a	LTP336	ltpFR2	22	n/a	n/a	n/a	27	15	5	8	2
3622.1552734375	n/a	PROB	7418174	n/a	LTP336	ltpFR2	22	n/a	n/a	n/a	27	20	7	8	5
3624.9140625	n/a	PROB	7423824	n/a	LTP336	ltpFR2	22	n/a	n/a	n/a	27	17	8	8	1
3626.1376953125	n/a	STOP	7426330	n/a	LTP336	ltpFR2	22	n/a	n/a	n/a	27	n/a	n/a	n/a	n/a
3629.345703125	n/a	REC_START	7432900	n/a	LTP336	ltpFR2	22	17	n/a	n/a	n/a	n/a	0	0	0
3629.85986328125	n/a	REC_WORD	7433953	wordpools/wasnorm_wordpool_576.txt	LTP336	ltpFR2	22	17	GRIZZLY	662	n/a	n/a	0	0	0
3630.75390625	n/a	REC_WORD	7435784	wordpools/wasnorm_wordpool_576.txt	LTP336	ltpFR2	22	17	SIBLING	1301	n/a	n/a	0	0	0
3632.134765625	n/a	REC_WORD	7438612	wordpools/wasnorm_wordpool_576.txt	LTP336	ltpFR2	22	17	ZEBRA	1635	n/a	n/a	0	0	0
3633.23388671875	n/a	REC_WORD	7440863	wordpools/wasnorm_wordpool_576.txt	LTP336	ltpFR2	22	17	PUPPET	-1	n/a	n/a	0	0	0
3634.3828125	n/a	REC_WORD	7443216	wordpools/wasnorm_wordpool_576.txt	LTP336	ltpFR2	22	17	CARROT	249	n/a	n/a	0	0	0
3635.5546875	n/a	REC_WORD	7445616	wordpools/wasnorm_wordpool_576.txt	LTP336	ltpFR2	22	17	SNACK	1331	n/a	n/a	0	0	0
3636.62158203125	n/a	REC_WORD	7447801	wordpools/wasnorm_wordpool_576.txt	LTP336	ltpFR2	22	17	FILM	565	n/a	n/a	0	0	0
3637.77880859375	n/a	REC_WORD	7450171	wordpools/wasnorm_wordpool_576.txt	LTP336	ltpFR2	22	17	ARM	38	n/a	n/a	0	0	0
3639.17041015625	n/a	REC_WORD	7453021	wordpools/wasnorm_wordpool_576.txt	LTP336	ltpFR2	22	17	CAMEL	223	n/a	n/a	0	0	0
3640.1826171875	n/a	REC_WORD	7455094	wordpools/wasnorm_wordpool_576.txt	LTP336	ltpFR2	22	17	TYPIST	1532	n/a	n/a	0	0	0
3642.36962890625	n/a	REC_WORD	7459573	wordpools/wasnorm_wordpool_576.txt	LTP336	ltpFR2	22	17	ORCHID	982	n/a	n/a	0	0	0
3643.50048828125	n/a	REC_WORD	7461889	wordpools/wasnorm_wordpool_576.txt	LTP336	ltpFR2	22	17	DUST	508	n/a	n/a	0	0	0
3644.736328125	n/a	REC_WORD	7464420	wordpools/wasnorm_wordpool_576.txt	LTP336	ltpFR2	22	17	DUSTPAN	509	n/a	n/a	0	0	0
3645.95458984375	n/a	REC_WORD	7466915	wordpools/wasnorm_wordpool_576.txt	LTP336	ltpFR2	22	17	FLEET	578	n/a	n/a	0	0	0
3719.80126953125	n/a	WORD	7618153	wordpools/wasnorm_wordpool_576.txt	LTP336	ltpFR2	22	18	PORK	1108	n/a	n/a	0	0	0
3722.50927734375	n/a	WORD	7623699	wordpools/wasnorm_wordpool_576.txt	LTP336	ltpFR2	22	18	ROD	1203	n/a	n/a	0	0	0
3725.2861328125	n/a	WORD	7629386	wordpools/wasnorm_wordpool_576.txt	LTP336	ltpFR2	22	18	SCARECROW	1245	n/a	n/a	0	0	0
3727.828125	n/a	WORD	7634592	wordpools/wasnorm_wordpool_576.txt	LTP336	ltpFR2	22	18	PREACHER	1119	n/a	n/a	0	0	0
3730.4189453125	n/a	WORD	7639898	wordpools/wasnorm_wordpool_576.txt	LTP336	ltpFR2	22	18	PAIL	1002	n/a	n/a	0	0	0
3733.14501953125	n/a	WORD	7645481	wordpools/wasnorm_wordpool_576.txt	LTP336	ltpFR2	22	18	HONEY	713	n/a	n/a	0	0	0
3735.90380859375	n/a	WORD	7651131	wordpools/wasnorm_wordpool_576.txt	LTP336	ltpFR2	22	18	QUAIL	1147	n/a	n/a	0	0	0
3738.5107421875	n/a	WORD	7656470	wordpools/wasnorm_wordpool_576.txt	LTP336	ltpFR2	22	18	PARROT	1015	n/a	n/a	0	0	0
3741.18798828125	n/a	WORD	7661953	wordpools/wasnorm_wordpool_576.txt	LTP336	ltpFR2	22	18	SCALLOP	1242	n/a	n/a	0	0	0
3743.66064453125	n/a	WORD	7667017	wordpools/wasnorm_wordpool_576.txt	LTP336	ltpFR2	22	18	HORNET	718	n/a	n/a	0	0	0
3746.20361328125	n/a	WORD	7672225	wordpools/wasnorm_wordpool_576.txt	LTP336	ltpFR2	22	18	LUMBER	848	n/a	n/a	0	0	0
3748.87841796875	n/a	WORD	7677703	wordpools/wasnorm_wordpool_576.txt	LTP336	ltpFR2	22	18	HORSE	719	n/a	n/a	0	0	0
3751.6865234375	n/a	WORD	7683454	wordpools/wasnorm_wordpool_576.txt	LTP336	ltpFR2	22	18	MILDEW	893	n/a	n/a	0	0	0
3754.2294921875	n/a	WORD	7688662	wordpools/wasnorm_wordpool_576.txt	LTP336	ltpFR2	22	18	CRICKET	408	n/a	n/a	0	0	0
3756.6865234375	n/a	WORD	7693694	wordpools/wasnorm_wordpool_576.txt	LTP336	ltpFR2	22	18	GRAPE	654	n/a	n/a	0	0	0
3759.4951171875	n/a	WORD	7699446	wordpools/wasnorm_wordpool_576.txt	LTP336	ltpFR2	22	18	STAKE	1368	n/a	n/a	0	0	0
3762.205078125	n/a	WORD	7704996	wordpools/wasnorm_wordpool_576.txt	LTP336	ltpFR2	22	18	THREAD	1460	n/a	n/a	0	0	0
3764.89697265625	n/a	WORD	7710509	wordpools/wasnorm_wordpool_576.txt	LTP336	ltpFR2	22	18	FOREST	593	n/a	n/a	0	0	0
3767.57080078125	n/a	WORD	7715985	wordpools/wasnorm_wordpool_576.txt	LTP336	ltpFR2	22	18	NECKLACE	940	n/a	n/a	0	0	0
3770.06298828125	n/a	WORD	7721089	wordpools/wasnorm_wordpool_576.txt	LTP336	ltpFR2	22	18	AWARD	63	n/a	n/a	0	0	0
3772.73779296875	n/a	WORD	7726567	wordpools/wasnorm_wordpool_576.txt	LTP336	ltpFR2	22	18	WOMAN	1620	n/a	n/a	0	0	0
3775.5126953125	n/a	WORD	7732250	wordpools/wasnorm_wordpool_576.txt	LTP336	ltpFR2	22	18	FEMALE	559	n/a	n/a	0	0	0
3778.1728515625	n/a	WORD	7737698	wordpools/wasnorm_wordpool_576.txt	LTP336	ltpFR2	22	18	BRANDY	169	n/a	n/a	0	0	0
3780.5966796875	n/a	WORD	7742662	wordpools/wasnorm_wordpool_576.txt	LTP336	ltpFR2	22	18	CHAMPAGNE	278	n/a	n/a	0	0	0
3782.20263671875	n/a	START	7745951	n/a	LTP336	ltpFR2	22	n/a	n/a	n/a	28	n/a	n/a	n/a	n/a
3783.267578125	n/a	DISTRACTOR	7748132	n/a	LTP336	ltpFR2	22	18	n/a	n/a	n/a	n/a	0	0	0
3783.2724609375	n/a	PROB	7748142	n/a	LTP336	ltpFR2	22	n/a	n/a	n/a	28	11	2	3	6
3785.5126953125	n/a	PROB	7752730	n/a	LTP336	ltpFR2	22	n/a	n/a	n/a	28	15	2	8	5
3786.8505859375	n/a	PROB	7755470	n/a	LTP336	ltpFR2	22	n/a	n/a	n/a	28	20	9	7	4
3788.388671875	n/a	PROB	7758620	n/a	LTP336	ltpFR2	22	n/a	n/a	n/a	28	18	5	9	4
3790.111328125	n/a	PROB	7762148	n/a	LTP336	ltpFR2	22	n/a	n/a	n/a	28	18	2	9	7
3791.76513671875	n/a	PROB	7765535	n/a	LTP336	ltpFR2	22	n/a	n/a	n/a	28	13	3	4	6
3793.42236328125	n/a	PROB	7768929	n/a	LTP336	ltpFR2	22	n/a	n/a	n/a	28	19	8	3	8
3795.06005859375	n/a	PROB	7772283	n/a	LTP336	ltpFR2	22	n/a	n/a	n/a	28	11	4	6	1
3796.1640625	n/a	PROB	7774544	n/a	LTP336	ltpFR2	22	n/a	n/a	n/a	28	21	4	9	8
3800.4443359375	n/a	PROB	7783310	n/a	LTP336	ltpFR2	22	n/a	n/a	n/a	28	17	8	6	3
3802.60009765625	n/a	PROB	7787725	n/a	LTP336	ltpFR2	22	n/a	n/a	n/a	28	13	8	1	4
3806.2021484375	n/a	STOP	7795102	n/a	LTP336	ltpFR2	22	n/a	n/a	n/a	28	n/a	n/a	n/a	n/a
3808.0361328125	n/a	REC_START	7798858	n/a	LTP336	ltpFR2	22	18	n/a	n/a	n/a	n/a	0	0	0
3808.5517578125	n/a	REC_WORD	7799914	wordpools/wasnorm_wordpool_576.txt	LTP336	ltpFR2	22	18	WOMAN	1620	n/a	n/a	0	0	0
3809.796875	n/a	REC_WORD	7802464	wordpools/wasnorm_wordpool_576.txt	LTP336	ltpFR2	22	18	FEMALE	559	n/a	n/a	0	0	0
3811.84765625	n/a	REC_WORD	7806664	wordpools/wasnorm_wordpool_576.txt	LTP336	ltpFR2	22	18	SCARECROW	1245	n/a	n/a	0	0	0
