onset	duration	trial_type	sample	stim_file	subject	experiment	session	trial	task	item_name	item_num	recog_resp	recog_conf	resp	color_r	color_g	color_b	case	font
238.166	n/a	SESS_START	119083	n/a	LTP147	ltpFR	5	n/a	n/a	n/a	n/a	1	4	n/a	n/a	n/a	n/a	n/a	n/a
280.32	n/a	WORD	140160	wordpools/wasnorm_wordpool.txt	LTP147	ltpFR	5	1	1	PEAR	1033	0	n/a	0	0.422607421875	0.5869140625	0	upper	zerothre.ttf
284.26	n/a	WORD	142130	wordpools/wasnorm_wordpool.txt	LTP147	ltpFR	5	1	1	CONDUCTOR	362	n/a	n/a	0	0.422607421875	0.5869140625	0	upper	zerothre.ttf
288.384	n/a	WORD	144192	wordpools/wasnorm_wordpool.txt	LTP147	ltpFR	5	1	1	SEAT	1264	n/a	n/a	0	0.422607421875	0.5869140625	0	upper	zerothre.ttf
292.6	n/a	WORD	146300	wordpools/wasnorm_wordpool.txt	LTP147	ltpFR	5	1	0	GAUZE	626	n/a	n/a	0	0.57763671875	0.412841796875	1	lower	amplitud.ttf
296.456	n/a	WORD	148228	wordpools/wasnorm_wordpool.txt	LTP147	ltpFR	5	1	0	PEACH	1031	n/a	n/a	0	0.57763671875	0.412841796875	1	lower	amplitud.ttf
300.348	n/a	WORD	150174	wordpools/wasnorm_wordpool.txt	LTP147	ltpFR	5	1	0	PICNIC	1060	n/a	n/a	0	0.57763671875	0.412841796875	1	lower	amplitud.ttf
304.304	n/a	WORD	152152	wordpools/wasnorm_wordpool.txt	LTP147	ltpFR	5	1	1	CORPORATION	382	n/a	n/a	0	0.422607421875	0.5869140625	0	upper	zerothre.ttf
308.362	n/a	WORD	154181	wordpools/wasnorm_wordpool.txt	LTP147	ltpFR	5	1	1	BAIT	70	n/a	n/a	0	0.422607421875	0.5869140625	0	upper	zerothre.ttf
312.544	n/a	WORD	156272	wordpools/wasnorm_wordpool.txt	LTP147	ltpFR	5	1	0	BAND	78	n/a	n/a	1	0.57763671875	0.412841796875	1	lower	amplitud.ttf
316.484	n/a	WORD	158242	wordpools/wasnorm_wordpool.txt	LTP147	ltpFR	5	1	0	SAXOPHONE	1240	n/a	n/a	1	0.57763671875	0.412841796875	1	lower	amplitud.ttf
320.666	n/a	WORD	160333	wordpools/wasnorm_wordpool.txt	LTP147	ltpFR	5	1	0	UMPIRE	1535	n/a	n/a	1	0.57763671875	0.412841796875	1	lower	amplitud.ttf
324.506	n/a	WORD	162253	wordpools/wasnorm_wordpool.txt	LTP147	ltpFR	5	1	0	COACH	331	n/a	n/a	1	0.57763671875	0.412841796875	1	lower	amplitud.ttf
328.506	n/a	WORD	164253	wordpools/wasnorm_wordpool.txt	LTP147	ltpFR	5	1	0	SALESMAN	1225	n/a	n/a	1	0.57763671875	0.412841796875	1	lower	amplitud.ttf
332.512	n/a	WORD	166256	wordpools/wasnorm_wordpool.txt	LTP147	ltpFR	5	1	1	MALL	860	n/a	n/a	0	0.422607421875	0.5869140625	0	upper	zerothre.ttf
336.52	n/a	WORD	168260	wordpools/wasnorm_wordpool.txt	LTP147	ltpFR	5	1	1	SCIENTIST	1249	n/a	n/a	1	0.422607421875	0.5869140625	0	upper	zerothre.ttf
340.528	n/a	WORD	170264	wordpools/wasnorm_wordpool.txt	LTP147	ltpFR	5	1	1	WHISTLE	1606	n/a	n/a	0	0.422607421875	0.5869140625	0	upper	zerothre.ttf
346.568	n/a	REC_START	173284	n/a	LTP147	ltpFR	5	1	n/a	n/a	n/a	n/a	n/a	n/a	n/a	n/a	n/a	n/a	n/a
347.33	n/a	REC_WORD	173665	wordpools/wasnorm_wordpool.txt	LTP147	ltpFR	5	1	1	CONDUCTOR	362	n/a	n/a	0	n/a	n/a	n/a	n/a	n/a
348.588	n/a	REC_WORD	174294	wordpools/wasnorm_wordpool.txt	LTP147	ltpFR	5	1	1	CORPORATION	382	n/a	n/a	0	n/a	n/a	n/a	n/a	n/a
350.034	n/a	REC_WORD	175017	wordpools/wasnorm_wordpool.txt	LTP147	ltpFR	5	1	1	WHISTLE	1606	n/a	n/a	0	n/a	n/a	n/a	n/a	n/a
351.356	n/a	REC_WORD	175678	wordpools/wasnorm_wordpool.txt	LTP147	ltpFR	5	1	n/a	APPLE	33	n/a	n/a	n/a	n/a	n/a	n/a	n/a	n/a
352.324	n/a	REC_WORD	176162	wordpools/wasnorm_wordpool.txt	LTP147	ltpFR	5	1	1	PEAR	1033	n/a	n/a	0	n/a	n/a	n/a	n/a	n/a
353.376	n/a	REC_WORD	176688	wordpools/wasnorm_wordpool.txt	LTP147	ltpFR	5	1	1	MALL	860	n/a	n/a	0	n/a	n/a	n/a	n/a	n/a
354.24	n/a	REC_WORD	177120	wordpools/wasnorm_wordpool.txt	LTP147	ltpFR	5	1	1	SCIENTIST	1249	n/a	n/a	1	n/a	n/a	n/a	n/a	n/a
356.61	n/a	REC_WORD	178305	wordpools/wasnorm_wordpool.txt	LTP147	ltpFR	5	1	0	SALESMAN	1225	n/a	n/a	1	n/a	n/a	n/a	n/a	n/a
358.75	n/a	REC_WORD	179375	wordpools/wasnorm_wordpool.txt	LTP147	ltpFR	5	1	n/a	ENGINEER	536	n/a	n/a	n/a	n/a	n/a	n/a	n/a	n/a
361.224	n/a	REC_WORD	180612	wordpools/wasnorm_wordpool.txt	LTP147	ltpFR	5	1	1	CORPORATION	382	n/a	n/a	0	n/a	n/a	n/a	n/a	n/a
363.714	n/a	REC_WORD	181857	wordpools/wasnorm_wordpool.txt	LTP147	ltpFR	5	1	1	SEAT	1264	n/a	n/a	0	n/a	n/a	n/a	n/a	n/a
365.006	n/a	REC_WORD	182503	wordpools/wasnorm_wordpool.txt	LTP147	ltpFR	5	1	0	GAUZE	626	n/a	n/a	0	n/a	n/a	n/a	n/a	n/a
366.888	n/a	REC_WORD	183444	wordpools/wasnorm_wordpool.txt	LTP147	ltpFR	5	1	0	UMPIRE	1535	n/a	n/a	1	n/a	n/a	n/a	n/a	n/a
368.01	n/a	REC_WORD	184005	wordpools/wasnorm_wordpool.txt	LTP147	ltpFR	5	1	0	COACH	331	n/a	n/a	1	n/a	n/a	n/a	n/a	n/a
370.14	n/a	REC_WORD	185070	wordpools/wasnorm_wordpool.txt	LTP147	ltpFR	5	1	0	SAXOPHONE	1240	n/a	n/a	1	n/a	n/a	n/a	n/a	n/a
371.308	n/a	REC_WORD	185654	wordpools/wasnorm_wordpool.txt	LTP147	ltpFR	5	1	0	BAND	78	n/a	n/a	1	n/a	n/a	n/a	n/a	n/a
372.334	n/a	REC_WORD	186167	wordpools/wasnorm_wordpool.txt	LTP147	ltpFR	5	1	n/a	REFEREE	1178	n/a	n/a	n/a	n/a	n/a	n/a	n/a	n/a
378.088	n/a	REC_WORD	189044	wordpools/wasnorm_wordpool.txt	LTP147	ltpFR	5	1	1	BAIT	70	n/a	n/a	0	n/a	n/a	n/a	n/a	n/a
383.54	n/a	REC_WORD	191770	wordpools/wasnorm_wordpool.txt	LTP147	ltpFR	5	1	1	PEAR	1033	n/a	n/a	0	n/a	n/a	n/a	n/a	n/a
384.088	n/a	REC_WORD	192044	wordpools/wasnorm_wordpool.txt	LTP147	ltpFR	5	1	0	PEACH	1031	n/a	n/a	0	n/a	n/a	n/a	n/a	n/a
399.654	n/a	REC_WORD	199827	wordpools/wasnorm_wordpool.txt	LTP147	ltpFR	5	1	0	PICNIC	1060	n/a	n/a	0	n/a	n/a	n/a	n/a	n/a
418.114	n/a	REC_WORD	209057	wordpools/wasnorm_wordpool.txt	LTP147	ltpFR	5	1	1	MALL	860	n/a	n/a	0	n/a	n/a	n/a	n/a	n/a
439.222	n/a	WORD	219611	wordpools/wasnorm_wordpool.txt	LTP147	ltpFR	5	2	0	CHARCOAL	281	n/a	n/a	0	0.57763671875	0.412841796875	1	lower	amplitud.ttf
443.238	n/a	WORD	221619	wordpools/wasnorm_wordpool.txt	LTP147	ltpFR	5	2	0	CHEF	290	n/a	n/a	0	0.57763671875	0.412841796875	1	lower	amplitud.ttf
447.162	n/a	WORD	223581	wordpools/wasnorm_wordpool.txt	LTP147	ltpFR	5	2	1	SEAFOOD	1260	n/a	n/a	1	0.422607421875	0.5869140625	0	upper	zerothre.ttf
451.228	n/a	WORD	225614	wordpools/wasnorm_wordpool.txt	LTP147	ltpFR	5	2	1	COWBOY	395	n/a	n/a	1	0.422607421875	0.5869140625	0	upper	zerothre.ttf
455.36	n/a	WORD	227680	wordpools/wasnorm_wordpool.txt	LTP147	ltpFR	5	2	1	DIAL	457	n/a	n/a	0	0.422607421875	0.5869140625	0	upper	zerothre.ttf
459.174	n/a	WORD	229587	wordpools/wasnorm_wordpool.txt	LTP147	ltpFR	5	2	0	SHACK	1273	n/a	n/a	1	0.57763671875	0.412841796875	1	lower	amplitud.ttf
462.998	n/a	WORD	231499	wordpools/wasnorm_wordpool.txt	LTP147	ltpFR	5	2	0	PROTRACTOR	1133	n/a	n/a	0	0.57763671875	0.412841796875	1	lower	amplitud.ttf
466.882	n/a	WORD	233441	wordpools/wasnorm_wordpool.txt	LTP147	ltpFR	5	2	0	TUSK	1523	n/a	n/a	0	0.57763671875	0.412841796875	1	lower	amplitud.ttf
471.088	n/a	WORD	235544	wordpools/wasnorm_wordpool.txt	LTP147	ltpFR	5	2	1	BANJO	82	n/a	n/a	0	0.422607421875	0.5869140625	0	upper	zerothre.ttf
475.22	n/a	WORD	237610	wordpools/wasnorm_wordpool.txt	LTP147	ltpFR	5	2	1	VIOLIN	1571	n/a	n/a	0	0.422607421875	0.5869140625	0	upper	zerothre.ttf
479.376	n/a	WORD	239688	wordpools/wasnorm_wordpool.txt	LTP147	ltpFR	5	2	1	COOK	372	n/a	n/a	1	0.422607421875	0.5869140625	0	upper	zerothre.ttf
483.466	n/a	WORD	241733	wordpools/wasnorm_wordpool.txt	LTP147	ltpFR	5	2	1	SHOULDER	1294	n/a	n/a	0	0.422607421875	0.5869140625	0	upper	zerothre.ttf
487.608	n/a	WORD	243804	wordpools/wasnorm_wordpool.txt	LTP147	ltpFR	5	2	1	REPTILE	1185	n/a	n/a	1	0.422607421875	0.5869140625	0	upper	zerothre.ttf
491.806	n/a	WORD	245903	wordpools/wasnorm_wordpool.txt	LTP147	ltpFR	5	2	0	ALLIGATOR	16	n/a	n/a	1	0.57763671875	0.412841796875	1	lower	amplitud.ttf
495.914	n/a	WORD	247957	wordpools/wasnorm_wordpool.txt	LTP147	ltpFR	5	2	0	SLEEVE	1324	n/a	n/a	0	0.57763671875	0.412841796875	1	lower	amplitud.ttf
499.996	n/a	WORD	249998	wordpools/wasnorm_wordpool.txt	LTP147	ltpFR	5	2	0	SQUID	1361	n/a	n/a	0	0.57763671875	0.412841796875	1	lower	amplitud.ttf
505.67	n/a	REC_START	252835	n/a	LTP147	ltpFR	5	2	n/a	n/a	n/a	n/a	n/a	n/a	n/a	n/a	n/a	n/a	n/a
506.434	n/a	REC_WORD	253217	wordpools/wasnorm_wordpool.txt	LTP147	ltpFR	5	2	0	SQUID	1361	n/a	n/a	0	n/a	n/a	n/a	n/a	n/a
507.426	n/a	REC_WORD	253713	wordpools/wasnorm_wordpool.txt	LTP147	ltpFR	5	2	1	REPTILE	1185	n/a	n/a	1	n/a	n/a	n/a	n/a	n/a
508.424	n/a	REC_WORD	254212	wordpools/wasnorm_wordpool.txt	LTP147	ltpFR	5	2	0	ALLIGATOR	16	n/a	n/a	1	n/a	n/a	n/a	n/a	n/a
509.352	n/a	REC_WORD	254676	wordpools/wasnorm_wordpool.txt	LTP147	ltpFR	5	2	0	SLEEVE	1324	n/a	n/a	0	n/a	n/a	n/a	n/a	n/a
513.568	n/a	REC_WORD	256784	wordpools/wasnorm_wordpool.txt	LTP147	ltpFR	5	2	1	VIOLIN	1571	n/a	n/a	0	n/a	n/a	n/a	n/a	n/a
515.632	n/a	REC_WORD	257816	wordpools/wasnorm_wordpool.txt	LTP147	ltpFR	5	2	0	SAXOPHONE	1240	n/a	n/a	1	n/a	n/a	n/a	n/a	n/a
517.258	n/a	REC_WORD	258629	wordpools/wasnorm_wordpool.txt	LTP147	ltpFR	5	2	1	BANJO	82	n/a	n/a	0	n/a	n/a	n/a	n/a	n/a
522.182	n/a	REC_WORD	261091	wordpools/wasnorm_wordpool.txt	LTP147	ltpFR	5	2	1	COOK	372	n/a	n/a	1	n/a	n/a	n/a	n/a	n/a
523.136	n/a	REC_WORD	261568	wordpools/wasnorm_wordpool.txt	LTP147	ltpFR	5	2	1	COWBOY	395	n/a	n/a	1	n/a	n/a	n/a	n/a	n/a
527.302	n/a	REC_WORD	263651	wordpools/wasnorm_wordpool.txt	LTP147	ltpFR	5	2	n/a	MAIL	-1	n/a	n/a	n/a	n/a	n/a	n/a	n/a	n/a
532.026	n/a	REC_WORD	266013	wordpools/wasnorm_wordpool.txt	LTP147	ltpFR	5	2	1	SEAFOOD	1260	n/a	n/a	1	n/a	n/a	n/a	n/a	n/a
536.216	n/a	REC_WORD	268108	wordpools/wasnorm_wordpool.txt	LTP147	ltpFR	5	2	1	DIAL	457	n/a	n/a	0	n/a	n/a	n/a	n/a	n/a
546.824	n/a	REC_WORD_VV	273412	wordpools/wasnorm_wordpool.txt	LTP147	ltpFR	5	2	n/a	<>	-1	n/a	n/a	n/a	n/a	n/a	n/a	n/a	n/a
556.562	n/a	REC_WORD	278281	wordpools/wasnorm_wordpool.txt	LTP147	ltpFR	5	2	1	SHOULDER	1294	n/a	n/a	0	n/a	n/a	n/a	n/a	n/a
559.166	n/a	REC_WORD	279583	wordpools/wasnorm_wordpool.txt	LTP147	ltpFR	5	2	1	VIOLIN	1571	n/a	n/a	0	n/a	n/a	n/a	n/a	n/a
585.028	n/a	WORD	292514	wordpools/wasnorm_wordpool.txt	LTP147	ltpFR	5	3	-1	HUMAN	726	n/a	n/a	-1	1.0	1.0	1	upper	Verdana.ttf
588.968	n/a	WORD	294484	wordpools/wasnorm_wordpool.txt	LTP147	ltpFR	5	3	-1	CHESS	294	n/a	n/a	-1	1.0	1.0	1	upper	Verdana.ttf
592.842	n/a	WORD	296421	wordpools/wasnorm_wordpool.txt	LTP147	ltpFR	5	3	-1	COUCH	386	n/a	n/a	-1	1.0	1.0	1	upper	Verdana.ttf
596.782	n/a	WORD	298391	wordpools/wasnorm_wordpool.txt	LTP147	ltpFR	5	3	-1	WARRIOR	1589	n/a	n/a	-1	1.0	1.0	1	upper	Verdana.ttf
600.824	n/a	WORD	300412	wordpools/wasnorm_wordpool.txt	LTP147	ltpFR	5	3	-1	PATRIOT	1026	n/a	n/a	-1	1.0	1.0	1	upper	Verdana.ttf
605.014	n/a	WORD	302507	wordpools/wasnorm_wordpool.txt	LTP147	ltpFR	5	3	-1	FIGHTER	564	n/a	n/a	-1	1.0	1.0	1	upper	Verdana.ttf
608.92	n/a	WORD	304460	wordpools/wasnorm_wordpool.txt	LTP147	ltpFR	5	3	-1	REFEREE	1178	n/a	n/a	-1	1.0	1.0	1	upper	Verdana.ttf
613.036	n/a	WORD	306518	wordpools/wasnorm_wordpool.txt	LTP147	ltpFR	5	3	-1	TYPEWRITER	1531	n/a	n/a	-1	1.0	1.0	1	upper	Verdana.ttf
616.918	n/a	WORD	308459	wordpools/wasnorm_wordpool.txt	LTP147	ltpFR	5	3	-1	LIST	830	n/a	n/a	-1	1.0	1.0	1	upper	Verdana.ttf
621.134	n/a	WORD	310567	wordpools/wasnorm_wordpool.txt	LTP147	ltpFR	5	3	-1	MONKEY	911	n/a	n/a	-1	1.0	1.0	1	upper	Verdana.ttf
625.092	n/a	WORD	312546	wordpools/wasnorm_wordpool.txt	LTP147	ltpFR	5	3	-1	POLE	1097	n/a	n/a	-1	1.0	1.0	1	upper	Verdana.ttf
628.974	n/a	WORD	314487	wordpools/wasnorm_wordpool.txt	LTP147	ltpFR	5	3	-1	PELICAN	1039	n/a	n/a	-1	1.0	1.0	1	upper	Verdana.ttf
632.856	n/a	WORD	316428	wordpools/wasnorm_wordpool.txt	LTP147	ltpFR	5	3	-1	CROW	414	n/a	n/a	-1	1.0	1.0	1	upper	Verdana.ttf
637.054	n/a	WORD	318527	wordpools/wasnorm_wordpool.txt	LTP147	ltpFR	5	3	-1	PLANE	1081	n/a	n/a	-1	1.0	1.0	1	upper	Verdana.ttf
641.204	n/a	WORD	320602	wordpools/wasnorm_wordpool.txt	LTP147	ltpFR	5	3	-1	MAID	856	n/a	n/a	-1	1.0	1.0	1	upper	Verdana.ttf
645.31	n/a	WORD	322655	wordpools/wasnorm_wordpool.txt	LTP147	ltpFR	5	3	-1	MAGICIAN	854	n/a	n/a	-1	1.0	1.0	1	upper	Verdana.ttf
650.966	n/a	REC_START	325483	n/a	LTP147	ltpFR	5	3	n/a	n/a	n/a	n/a	n/a	n/a	n/a	n/a	n/a	n/a	n/a
651.37	n/a	REC_WORD	325685	wordpools/wasnorm_wordpool.txt	LTP147	ltpFR	5	3	-1	MAGICIAN	854	n/a	n/a	-1	n/a	n/a	n/a	n/a	n/a
653.42	n/a	REC_WORD	326710	wordpools/wasnorm_wordpool.txt	LTP147	ltpFR	5	3	-1	HUMAN	726	n/a	n/a	-1	n/a	n/a	n/a	n/a	n/a
654.702	n/a	REC_WORD	327351	wordpools/wasnorm_wordpool.txt	LTP147	ltpFR	5	3	-1	CHESS	294	n/a	n/a	-1	n/a	n/a	n/a	n/a	n/a
655.772	n/a	REC_WORD	327886	wordpools/wasnorm_wordpool.txt	LTP147	ltpFR	5	3	-1	COUCH	386	n/a	n/a	-1	n/a	n/a	n/a	n/a	n/a
656.954	n/a	REC_WORD	328477	wordpools/wasnorm_wordpool.txt	LTP147	ltpFR	5	3	-1	WARRIOR	1589	n/a	n/a	-1	n/a	n/a	n/a	n/a	n/a
658.446	n/a	REC_WORD	329223	wordpools/wasnorm_wordpool.txt	LTP147	ltpFR	5	3	-1	PATRIOT	1026	n/a	n/a	-1	n/a	n/a	n/a	n/a	n/a
664.486	n/a	REC_WORD	332243	wordpools/wasnorm_wordpool.txt	LTP147	ltpFR	5	3	-1	REFEREE	1178	n/a	n/a	-1	n/a	n/a	n/a	n/a	n/a
667.5	n/a	REC_WORD	333750	wordpools/wasnorm_wordpool.txt	LTP147	ltpFR	5	3	-1	TYPEWRITER	1531	n/a	n/a	-1	n/a	n/a	n/a	n/a	n/a
668.622	n/a	REC_WORD	334311	wordpools/wasnorm_wordpool.txt	LTP147	ltpFR	5	3	-1	LIST	830	n/a	n/a	-1	n/a	n/a	n/a	n/a	n/a
670.114	n/a	REC_WORD	335057	wordpools/wasnorm_wordpool.txt	LTP147	ltpFR	5	3	-1	POLE	1097	n/a	n/a	-1	n/a	n/a	n/a	n/a	n/a
671.466	n/a	REC_WORD	335733	wordpools/wasnorm_wordpool.txt	LTP147	ltpFR	5	3	-1	PELICAN	1039	n/a	n/a	-1	n/a	n/a	n/a	n/a	n/a
672.654	n/a	REC_WORD	336327	wordpools/wasnorm_wordpool.txt	LTP147	ltpFR	5	3	-1	CROW	414	n/a	n/a	-1	n/a	n/a	n/a	n/a	n/a
674.03	n/a	REC_WORD	337015	wordpools/wasnorm_wordpool.txt	LTP147	ltpFR	5	3	-1	PLANE	1081	n/a	n/a	-1	n/a	n/a	n/a	n/a	n/a
676.704	n/a	REC_WORD	338352	wordpools/wasnorm_wordpool.txt	LTP147	ltpFR	5	3	-1	MAGICIAN	854	n/a	n/a	-1	n/a	n/a	n/a	n/a	n/a
678.236	n/a	REC_WORD	339118	wordpools/wasnorm_wordpool.txt	LTP147	ltpFR	5	3	-1	MAID	856	n/a	n/a	-1	n/a	n/a	n/a	n/a	n/a
693.578	n/a	REC_WORD	346789	wordpools/wasnorm_wordpool.txt	LTP147	ltpFR	5	3	-1	HUMAN	726	n/a	n/a	-1	n/a	n/a	n/a	n/a	n/a
737.54	n/a	WORD	368770	wordpools/wasnorm_wordpool.txt	LTP147	ltpFR	5	4	-1	ROSE	1212	n/a	n/a	-1	1.0	1.0	1	upper	Verdana.ttf
741.464	n/a	WORD	370732	wordpools/wasnorm_wordpool.txt	LTP147	ltpFR	5	4	-1	MILDEW	893	n/a	n/a	-1	1.0	1.0	1	upper	Verdana.ttf
745.646	n/a	WORD	372823	wordpools/wasnorm_wordpool.txt	LTP147	ltpFR	5	4	-1	COLESLAW	344	n/a	n/a	-1	1.0	1.0	1	upper	Verdana.ttf
749.546	n/a	WORD	374773	wordpools/wasnorm_wordpool.txt	LTP147	ltpFR	5	4	-1	ORCHID	982	n/a	n/a	-1	1.0	1.0	1	upper	Verdana.ttf
753.628	n/a	WORD	376814	wordpools/wasnorm_wordpool.txt	LTP147	ltpFR	5	4	-1	WINDSHIELD	1612	n/a	n/a	-1	1.0	1.0	1	upper	Verdana.ttf
757.626	n/a	WORD	378813	wordpools/wasnorm_wordpool.txt	LTP147	ltpFR	5	4	-1	TRICYCLE	1506	n/a	n/a	-1	1.0	1.0	1	upper	Verdana.ttf
761.592	n/a	WORD	380796	wordpools/wasnorm_wordpool.txt	LTP147	ltpFR	5	4	-1	POWDER	1117	n/a	n/a	-1	1.0	1.0	1	upper	Verdana.ttf
765.79	n/a	WORD	382895	wordpools/wasnorm_wordpool.txt	LTP147	ltpFR	5	4	-1	HORIZON	717	n/a	n/a	-1	1.0	1.0	1	upper	Verdana.ttf
769.682	n/a	WORD	384841	wordpools/wasnorm_wordpool.txt	LTP147	ltpFR	5	4	-1	TELESCOPE	1446	n/a	n/a	-1	1.0	1.0	1	upper	Verdana.ttf
773.822	n/a	WORD	386911	wordpools/wasnorm_wordpool.txt	LTP147	ltpFR	5	4	-1	COMET	353	n/a	n/a	-1	1.0	1.0	1	upper	Verdana.ttf
777.844	n/a	WORD	388922	wordpools/wasnorm_wordpool.txt	LTP147	ltpFR	5	4	-1	COBBLER	335	n/a	n/a	-1	1.0	1.0	1	upper	Verdana.ttf
781.668	n/a	WORD	390834	wordpools/wasnorm_wordpool.txt	LTP147	ltpFR	5	4	-1	FRUIT	610	n/a	n/a	-1	1.0	1.0	1	upper	Verdana.ttf
785.818	n/a	WORD	392909	wordpools/wasnorm_wordpool.txt	LTP147	ltpFR	5	4	-1	CELERY	266	n/a	n/a	-1	1.0	1.0	1	upper	Verdana.ttf
789.658	n/a	WORD	394829	wordpools/wasnorm_wordpool.txt	LTP147	ltpFR	5	4	-1	GANGSTER	620	n/a	n/a	-1	1.0	1.0	1	upper	Verdana.ttf
793.648	n/a	WORD	396824	wordpools/wasnorm_wordpool.txt	LTP147	ltpFR	5	4	-1	WORKER	1621	n/a	n/a	-1	1.0	1.0	1	upper	Verdana.ttf
797.738	n/a	WORD	398869	wordpools/wasnorm_wordpool.txt	LTP147	ltpFR	5	4	-1	GHETTO	633	n/a	n/a	-1	1.0	1.0	1	upper	Verdana.ttf
803.646	n/a	REC_START	401823	n/a	LTP147	ltpFR	5	4	n/a	n/a	n/a	n/a	n/a	n/a	n/a	n/a	n/a	n/a	n/a
804.682	n/a	REC_WORD	402341	wordpools/wasnorm_wordpool.txt	LTP147	ltpFR	5	4	-1	GHETTO	633	n/a	n/a	-1	n/a	n/a	n/a	n/a	n/a
805.296	n/a	REC_WORD	402648	wordpools/wasnorm_wordpool.txt	LTP147	ltpFR	5	4	-1	GANGSTER	620	n/a	n/a	-1	n/a	n/a	n/a	n/a	n/a
805.996	n/a	REC_WORD	402998	wordpools/wasnorm_wordpool.txt	LTP147	ltpFR	5	4	-1	WORKER	1621	n/a	n/a	-1	n/a	n/a	n/a	n/a	n/a
807.528	n/a	REC_WORD	403764	wordpools/wasnorm_wordpool.txt	LTP147	ltpFR	5	4	-1	COBBLER	335	n/a	n/a	-1	n/a	n/a	n/a	n/a	n/a
808.206	n/a	REC_WORD	404103	wordpools/wasnorm_wordpool.txt	LTP147	ltpFR	5	4	-1	FRUIT	610	n/a	n/a	-1	n/a	n/a	n/a	n/a	n/a
814.232	n/a	REC_WORD	407116	wordpools/wasnorm_wordpool.txt	LTP147	ltpFR	5	4	-1	COMET	353	n/a	n/a	-1	n/a	n/a	n/a	n/a	n/a
815.254	n/a	REC_WORD	407627	wordpools/wasnorm_wordpool.txt	LTP147	ltpFR	5	4	-1	POWDER	1117	n/a	n/a	-1	n/a	n/a	n/a	n/a	n/a
816.502	n/a	REC_WORD	408251	wordpools/wasnorm_wordpool.txt	LTP147	ltpFR	5	4	-1	HORIZON	717	n/a	n/a	-1	n/a	n/a	n/a	n/a	n/a
819.61	n/a	REC_WORD	409805	wordpools/wasnorm_wordpool.txt	LTP147	ltpFR	5	4	-1	TELESCOPE	1446	n/a	n/a	-1	n/a	n/a	n/a	n/a	n/a
827.818	n/a	REC_WORD	413909	wordpools/wasnorm_wordpool.txt	LTP147	ltpFR	5	4	-1	ROSE	1212	n/a	n/a	-1	n/a	n/a	n/a	n/a	n/a
828.816	n/a	REC_WORD	414408	wordpools/wasnorm_wordpool.txt	LTP147	ltpFR	5	4	-1	MILDEW	893	n/a	n/a	-1	n/a	n/a	n/a	n/a	n/a
829.688	n/a	REC_WORD	414844	wordpools/wasnorm_wordpool.txt	LTP147	ltpFR	5	4	-1	COLESLAW	344	n/a	n/a	-1	n/a	n/a	n/a	n/a	n/a
833.464	n/a	REC_WORD	416732	wordpools/wasnorm_wordpool.txt	LTP147	ltpFR	5	4	-1	WINDSHIELD	1612	n/a	n/a	-1	n/a	n/a	n/a	n/a	n/a
834.492	n/a	REC_WORD	417246	wordpools/wasnorm_wordpool.txt	LTP147	ltpFR	5	4	-1	TRICYCLE	1506	n/a	n/a	-1	n/a	n/a	n/a	n/a	n/a
869.554	n/a	REC_WORD	434777	wordpools/wasnorm_wordpool.txt	LTP147	ltpFR	5	4	-1	GHETTO	633	n/a	n/a	-1	n/a	n/a	n/a	n/a	n/a
870.492	n/a	REC_WORD	435246	wordpools/wasnorm_wordpool.txt	LTP147	ltpFR	5	4	-1	GANGSTER	620	n/a	n/a	-1	n/a	n/a	n/a	n/a	n/a
871.82	n/a	REC_WORD	435910	wordpools/wasnorm_wordpool.txt	LTP147	ltpFR	5	4	-1	WORKER	1621	n/a	n/a	-1	n/a	n/a	n/a	n/a	n/a
891.802	n/a	WORD	445901	wordpools/wasnorm_wordpool.txt	LTP147	ltpFR	5	5	-1	RADISH	1158	n/a	n/a	-1	1.0	1.0	1	upper	Verdana.ttf
895.934	n/a	WORD	447967	wordpools/wasnorm_wordpool.txt	LTP147	ltpFR	5	5	-1	SEAGULL	1261	n/a	n/a	-1	1.0	1.0	1	upper	Verdana.ttf
899.784	n/a	WORD	449892	wordpools/wasnorm_wordpool.txt	LTP147	ltpFR	5	5	-1	TRIBE	1505	n/a	n/a	-1	1.0	1.0	1	upper	Verdana.ttf
903.632	n/a	WORD	451816	wordpools/wasnorm_wordpool.txt	LTP147	ltpFR	5	5	-1	PARSLEY	1016	n/a	n/a	-1	1.0	1.0	1	upper	Verdana.ttf
907.598	n/a	WORD	453799	wordpools/wasnorm_wordpool.txt	LTP147	ltpFR	5	5	-1	THERMOMETER	1453	n/a	n/a	-1	1.0	1.0	1	upper	Verdana.ttf
911.48	n/a	WORD	455740	wordpools/wasnorm_wordpool.txt	LTP147	ltpFR	5	5	-1	BIRD	129	n/a	n/a	-1	1.0	1.0	1	upper	Verdana.ttf
915.594	n/a	WORD	457797	wordpools/wasnorm_wordpool.txt	LTP147	ltpFR	5	5	-1	CEMETERY	269	n/a	n/a	-1	1.0	1.0	1	upper	Verdana.ttf
919.41	n/a	WORD	459705	wordpools/wasnorm_wordpool.txt	LTP147	ltpFR	5	5	-1	BANDANNA	80	n/a	n/a	-1	1.0	1.0	1	upper	Verdana.ttf
923.602	n/a	WORD	461801	wordpools/wasnorm_wordpool.txt	LTP147	ltpFR	5	5	-1	SNORKEL	1336	n/a	n/a	-1	1.0	1.0	1	upper	Verdana.ttf
927.55	n/a	WORD	463775	wordpools/wasnorm_wordpool.txt	LTP147	ltpFR	5	5	-1	FUGITIVE	612	n/a	n/a	-1	1.0	1.0	1	upper	Verdana.ttf
931.664	n/a	WORD	465832	wordpools/wasnorm_wordpool.txt	LTP147	ltpFR	5	5	-1	BANDIT	81	n/a	n/a	-1	1.0	1.0	1	upper	Verdana.ttf
935.522	n/a	WORD	467761	wordpools/wasnorm_wordpool.txt	LTP147	ltpFR	5	5	-1	DOLL	481	n/a	n/a	-1	1.0	1.0	1	upper	Verdana.ttf
939.354	n/a	WORD	469677	wordpools/wasnorm_wordpool.txt	LTP147	ltpFR	5	5	-1	CONTINENT	367	n/a	n/a	-1	1.0	1.0	1	upper	Verdana.ttf
943.554	n/a	WORD	471777	wordpools/wasnorm_wordpool.txt	LTP147	ltpFR	5	5	-1	PEPPER	1047	n/a	n/a	-1	1.0	1.0	1	upper	Verdana.ttf
947.594	n/a	WORD	473797	wordpools/wasnorm_wordpool.txt	LTP147	ltpFR	5	5	-1	CAR	241	n/a	n/a	-1	1.0	1.0	1	upper	Verdana.ttf
951.792	n/a	WORD	475896	wordpools/wasnorm_wordpool.txt	LTP147	ltpFR	5	5	-1	CAB	209	n/a	n/a	-1	1.0	1.0	1	upper	Verdana.ttf
957.674	n/a	REC_START	478837	n/a	LTP147	ltpFR	5	5	n/a	n/a	n/a	n/a	n/a	n/a	n/a	n/a	n/a	n/a	n/a
958.538	n/a	REC_WORD	479269	wordpools/wasnorm_wordpool.txt	LTP147	ltpFR	5	5	-1	CAB	209	n/a	n/a	-1	n/a	n/a	n/a	n/a	n/a
959.516	n/a	REC_WORD	479758	wordpools/wasnorm_wordpool.txt	LTP147	ltpFR	5	5	-1	CAR	241	n/a	n/a	-1	n/a	n/a	n/a	n/a	n/a
960.692	n/a	REC_WORD	480346	wordpools/wasnorm_wordpool.txt	LTP147	ltpFR	5	5	-1	PEPPER	1047	n/a	n/a	-1	n/a	n/a	n/a	n/a	n/a
962.882	n/a	REC_WORD	481441	wordpools/wasnorm_wordpool.txt	LTP147	ltpFR	5	5	-1	RADISH	1158	n/a	n/a	-1	n/a	n/a	n/a	n/a	n/a
963.866	n/a	REC_WORD	481933	wordpools/wasnorm_wordpool.txt	LTP147	ltpFR	5	5	-1	SEAGULL	1261	n/a	n/a	-1	n/a	n/a	n/a	n/a	n/a
967.672	n/a	REC_WORD	483836	wordpools/wasnorm_wordpool.txt	LTP147	ltpFR	5	5	-1	TRIBE	1505	n/a	n/a	-1	n/a	n/a	n/a	n/a	n/a
969.048	n/a	REC_WORD	484524	wordpools/wasnorm_wordpool.txt	LTP147	ltpFR	5	5	-1	PARSLEY	1016	n/a	n/a	-1	n/a	n/a	n/a	n/a	n/a
974.96	n/a	REC_WORD	487480	wordpools/wasnorm_wordpool.txt	LTP147	ltpFR	5	5	-1	FUGITIVE	612	n/a	n/a	-1	n/a	n/a	n/a	n/a	n/a
979.446	n/a	REC_WORD	489723	wordpools/wasnorm_wordpool.txt	LTP147	ltpFR	5	5	-1	BANDIT	81	n/a	n/a	-1	n/a	n/a	n/a	n/a	n/a
984.6	n/a	REC_WORD	492300	wordpools/wasnorm_wordpool.txt	LTP147	ltpFR	5	5	n/a	CONVICT	371	n/a	n/a	n/a	n/a	n/a	n/a	n/a	n/a
990.296	n/a	REC_WORD	495148	wordpools/wasnorm_wordpool.txt	LTP147	ltpFR	5	5	-1	SNORKEL	1336	n/a	n/a	-1	n/a	n/a	n/a	n/a	n/a
999.266	n/a	REC_WORD	499633	wordpools/wasnorm_wordpool.txt	LTP147	ltpFR	5	5	-1	CONTINENT	367	n/a	n/a	-1	n/a	n/a	n/a	n/a	n/a
1002.63	n/a	REC_WORD	501315	wordpools/wasnorm_wordpool.txt	LTP147	ltpFR	5	5	-1	CAR	241	n/a	n/a	-1	n/a	n/a	n/a	n/a	n/a
1004.226	n/a	REC_WORD	502113	wordpools/wasnorm_wordpool.txt	LTP147	ltpFR	5	5	-1	PEPPER	1047	n/a	n/a	-1	n/a	n/a	n/a	n/a	n/a
1004.844	n/a	REC_WORD	502422	wordpools/wasnorm_wordpool.txt	LTP147	ltpFR	5	5	-1	CAB	209	n/a	n/a	-1	n/a	n/a	n/a	n/a	n/a
1052.888	n/a	WORD	526444	wordpools/wasnorm_wordpool.txt	LTP147	ltpFR	5	6	1	TOOTHPASTE	1483	n/a	n/a	1	0.422607421875	0.5869140625	0	upper	zerothre.ttf
1056.978	n/a	WORD	528489	wordpools/wasnorm_wordpool.txt	LTP147	ltpFR	5	6	1	DUCK	504	n/a	n/a	1	0.422607421875	0.5869140625	0	upper	zerothre.ttf
1060.8	n/a	WORD	530400	wordpools/wasnorm_wordpool.txt	LTP147	ltpFR	5	6	1	FLY	586	n/a	n/a	1	0.422607421875	0.5869140625	0	upper	zerothre.ttf
1064.766	n/a	WORD	532383	wordpools/wasnorm_wordpool.txt	LTP147	ltpFR	5	6	1	THIEF	1456	n/a	n/a	0	0.422607421875	0.5869140625	0	upper	zerothre.ttf
1068.89	n/a	WORD	534445	wordpools/wasnorm_wordpool.txt	LTP147	ltpFR	5	6	0	CREVICE	405	n/a	n/a	1	0.57763671875	0.412841796875	1	lower	amplitud.ttf
1072.714	n/a	WORD	536357	wordpools/wasnorm_wordpool.txt	LTP147	ltpFR	5	6	0	CRATER	400	n/a	n/a	1	0.57763671875	0.412841796875	1	lower	amplitud.ttf
1076.788	n/a	WORD	538394	wordpools/wasnorm_wordpool.txt	LTP147	ltpFR	5	6	0	ANIMAL	23	n/a	n/a	1	0.57763671875	0.412841796875	1	lower	amplitud.ttf
1080.944	n/a	WORD	540472	wordpools/wasnorm_wordpool.txt	LTP147	ltpFR	5	6	0	BRACELET	163	n/a	n/a	1	0.57763671875	0.412841796875	1	lower	amplitud.ttf
1085.068	n/a	WORD	542534	wordpools/wasnorm_wordpool.txt	LTP147	ltpFR	5	6	0	DINNER	468	n/a	n/a	0	0.57763671875	0.412841796875	1	lower	amplitud.ttf
1089.202	n/a	WORD	544601	wordpools/wasnorm_wordpool.txt	LTP147	ltpFR	5	6	0	TOOTHBRUSH	1482	n/a	n/a	0	0.57763671875	0.412841796875	1	lower	amplitud.ttf
1093.25	n/a	WORD	546625	wordpools/wasnorm_wordpool.txt	LTP147	ltpFR	5	6	1	CHIME	300	n/a	n/a	0	0.422607421875	0.5869140625	0	upper	zerothre.ttf
1097.132	n/a	WORD	548566	wordpools/wasnorm_wordpool.txt	LTP147	ltpFR	5	6	1	VIDEO	1564	n/a	n/a	0	0.422607421875	0.5869140625	0	upper	zerothre.ttf
1101.072	n/a	WORD	550536	wordpools/wasnorm_wordpool.txt	LTP147	ltpFR	5	6	1	CRITIC	410	n/a	n/a	1	0.422607421875	0.5869140625	0	upper	zerothre.ttf
1104.93	n/a	WORD	552465	wordpools/wasnorm_wordpool.txt	LTP147	ltpFR	5	6	1	DIGGER	464	n/a	n/a	1	0.422607421875	0.5869140625	0	upper	zerothre.ttf
1108.87	n/a	WORD	554435	wordpools/wasnorm_wordpool.txt	LTP147	ltpFR	5	6	0	PHYSICIAN	1056	n/a	n/a	1	0.57763671875	0.412841796875	1	lower	amplitud.ttf
1112.868	n/a	WORD	556434	wordpools/wasnorm_wordpool.txt	LTP147	ltpFR	5	6	0	LEOPARD	812	n/a	n/a	1	0.57763671875	0.412841796875	1	lower	amplitud.ttf
1118.868	n/a	REC_START	559434	n/a	LTP147	ltpFR	5	6	n/a	n/a	n/a	n/a	n/a	n/a	n/a	n/a	n/a	n/a	n/a
1119.222	n/a	REC_WORD	559611	wordpools/wasnorm_wordpool.txt	LTP147	ltpFR	5	6	0	LEOPARD	812	n/a	n/a	1	n/a	n/a	n/a	n/a	n/a
1120.104	n/a	REC_WORD	560052	wordpools/wasnorm_wordpool.txt	LTP147	ltpFR	5	6	0	PHYSICIAN	1056	n/a	n/a	1	n/a	n/a	n/a	n/a	n/a
1123.008	n/a	REC_WORD	561504	wordpools/wasnorm_wordpool.txt	LTP147	ltpFR	5	6	1	FLY	586	n/a	n/a	1	n/a	n/a	n/a	n/a	n/a
1124.12	n/a	REC_WORD	562060	wordpools/wasnorm_wordpool.txt	LTP147	ltpFR	5	6	1	DUCK	504	n/a	n/a	1	n/a	n/a	n/a	n/a	n/a
1124.928	n/a	REC_WORD	562464	wordpools/wasnorm_wordpool.txt	LTP147	ltpFR	5	6	1	TOOTHPASTE	1483	n/a	n/a	1	n/a	n/a	n/a	n/a	n/a
1126.056	n/a	REC_WORD	563028	wordpools/wasnorm_wordpool.txt	LTP147	ltpFR	5	6	1	THIEF	1456	n/a	n/a	0	n/a	n/a	n/a	n/a	n/a
1149.02	n/a	REC_WORD	574510	wordpools/wasnorm_wordpool.txt	LTP147	ltpFR	5	6	1	DIGGER	464	n/a	n/a	1	n/a	n/a	n/a	n/a	n/a
1151.94	n/a	REC_WORD	575970	wordpools/wasnorm_wordpool.txt	LTP147	ltpFR	5	6	0	CREVICE	405	n/a	n/a	1	n/a	n/a	n/a	n/a	n/a
1153.116	n/a	REC_WORD	576558	wordpools/wasnorm_wordpool.txt	LTP147	ltpFR	5	6	0	CRATER	400	n/a	n/a	1	n/a	n/a	n/a	n/a	n/a
1208.814	n/a	WORD	604407	wordpools/wasnorm_wordpool.txt	LTP147	ltpFR	5	7	1	PUMP	1141	n/a	n/a	0	0.422607421875	0.5869140625	0	upper	zerothre.ttf
1212.688	n/a	WORD	606344	wordpools/wasnorm_wordpool.txt	LTP147	ltpFR	5	7	1	ROOST	1208	n/a	n/a	0	0.422607421875	0.5869140625	0	upper	zerothre.ttf
1216.52	n/a	WORD	608260	wordpools/wasnorm_wordpool.txt	LTP147	ltpFR	5	7	1	TOENAIL	1474	n/a	n/a	0	0.422607421875	0.5869140625	0	upper	zerothre.ttf
1220.712	n/a	WORD	610356	wordpools/wasnorm_wordpool.txt	LTP147	ltpFR	5	7	1	HAND	683	n/a	n/a	0	0.422607421875	0.5869140625	0	upper	zerothre.ttf
1224.894	n/a	WORD	612447	wordpools/wasnorm_wordpool.txt	LTP147	ltpFR	5	7	1	VISITOR	1573	n/a	n/a	1	0.422607421875	0.5869140625	0	upper	zerothre.ttf
1228.85	n/a	WORD	614425	wordpools/wasnorm_wordpool.txt	LTP147	ltpFR	5	7	1	CALCULATOR	220	n/a	n/a	0	0.422607421875	0.5869140625	0	upper	zerothre.ttf
1233.058	n/a	WORD	616529	wordpools/wasnorm_wordpool.txt	LTP147	ltpFR	5	7	1	GYMNAST	675	n/a	n/a	1	0.422607421875	0.5869140625	0	upper	zerothre.ttf
1237.09	n/a	WORD	618545	wordpools/wasnorm_wordpool.txt	LTP147	ltpFR	5	7	1	SERVER	1272	n/a	n/a	1	0.422607421875	0.5869140625	0	upper	zerothre.ttf
1241.064	n/a	WORD	620532	wordpools/wasnorm_wordpool.txt	LTP147	ltpFR	5	7	1	LION	827	n/a	n/a	1	0.422607421875	0.5869140625	0	upper	zerothre.ttf
1245.07	n/a	WORD	622535	wordpools/wasnorm_wordpool.txt	LTP147	ltpFR	5	7	1	STETHOSCOPE	1379	n/a	n/a	0	0.422607421875	0.5869140625	0	upper	zerothre.ttf
1249.002	n/a	WORD	624501	wordpools/wasnorm_wordpool.txt	LTP147	ltpFR	5	7	1	SCALPEL	1243	n/a	n/a	0	0.422607421875	0.5869140625	0	upper	zerothre.ttf
1252.818	n/a	WORD	626409	wordpools/wasnorm_wordpool.txt	LTP147	ltpFR	5	7	1	BATHTUB	100	n/a	n/a	0	0.422607421875	0.5869140625	0	upper	zerothre.ttf
1256.85	n/a	WORD	628425	wordpools/wasnorm_wordpool.txt	LTP147	ltpFR	5	7	1	ROOSTER	1209	n/a	n/a	1	0.422607421875	0.5869140625	0	upper	zerothre.ttf
1260.79	n/a	WORD	630395	wordpools/wasnorm_wordpool.txt	LTP147	ltpFR	5	7	1	RIDER	1191	n/a	n/a	1	0.422607421875	0.5869140625	0	upper	zerothre.ttf
1264.864	n/a	WORD	632432	wordpools/wasnorm_wordpool.txt	LTP147	ltpFR	5	7	1	TRACTOR	1493	n/a	n/a	0	0.422607421875	0.5869140625	0	upper	zerothre.ttf
1268.696	n/a	WORD	634348	wordpools/wasnorm_wordpool.txt	LTP147	ltpFR	5	7	1	GENERAL	630	n/a	n/a	1	0.422607421875	0.5869140625	0	upper	zerothre.ttf
1274.628	n/a	REC_START	637314	n/a	LTP147	ltpFR	5	7	n/a	n/a	n/a	n/a	n/a	n/a	n/a	n/a	n/a	n/a	n/a
1275.326	n/a	REC_WORD	637663	wordpools/wasnorm_wordpool.txt	LTP147	ltpFR	5	7	1	GENERAL	630	n/a	n/a	1	n/a	n/a	n/a	n/a	n/a
1275.93	n/a	REC_WORD	637965	wordpools/wasnorm_wordpool.txt	LTP147	ltpFR	5	7	1	TRACTOR	1493	n/a	n/a	0	n/a	n/a	n/a	n/a	n/a
1276.618	n/a	REC_WORD	638309	wordpools/wasnorm_wordpool.txt	LTP147	ltpFR	5	7	1	ROOSTER	1209	n/a	n/a	1	n/a	n/a	n/a	n/a	n/a
1277.538	n/a	REC_WORD	638769	wordpools/wasnorm_wordpool.txt	LTP147	ltpFR	5	7	1	PUMP	1141	n/a	n/a	0	n/a	n/a	n/a	n/a	n/a
1278.44	n/a	REC_WORD	639220	wordpools/wasnorm_wordpool.txt	LTP147	ltpFR	5	7	1	ROOST	1208	n/a	n/a	0	n/a	n/a	n/a	n/a	n/a
1280.49	n/a	REC_WORD	640245	wordpools/wasnorm_wordpool.txt	LTP147	ltpFR	5	7	1	TOENAIL	1474	n/a	n/a	0	n/a	n/a	n/a	n/a	n/a
1281.17	n/a	REC_WORD	640585	wordpools/wasnorm_wordpool.txt	LTP147	ltpFR	5	7	1	HAND	683	n/a	n/a	0	n/a	n/a	n/a	n/a	n/a
1285.096	n/a	REC_WORD	642548	wordpools/wasnorm_wordpool.txt	LTP147	ltpFR	5	7	1	VISITOR	1573	n/a	n/a	1	n/a	n/a	n/a	n/a	n/a
1288.364	n/a	REC_WORD	644182	wordpools/wasnorm_wordpool.txt	LTP147	ltpFR	5	7	1	LION	827	n/a	n/a	1	n/a	n/a	n/a	n/a	n/a
1288.986	n/a	REC_WORD	644493	wordpools/wasnorm_wordpool.txt	LTP147	ltpFR	5	7	1	STETHOSCOPE	1379	n/a	n/a	0	n/a	n/a	n/a	n/a	n/a
1290.902	n/a	REC_WORD	645451	wordpools/wasnorm_wordpool.txt	LTP147	ltpFR	5	7	1	SCALPEL	1243	n/a	n/a	0	n/a	n/a	n/a	n/a	n/a
1295.508	n/a	REC_WORD	647754	wordpools/wasnorm_wordpool.txt	LTP147	ltpFR	5	7	1	GYMNAST	675	n/a	n/a	1	n/a	n/a	n/a	n/a	n/a
1308.13	n/a	REC_WORD	654065	wordpools/wasnorm_wordpool.txt	LTP147	ltpFR	5	7	1	BATHTUB	100	n/a	n/a	0	n/a	n/a	n/a	n/a	n/a
1312.34	n/a	REC_WORD	656170	wordpools/wasnorm_wordpool.txt	LTP147	ltpFR	5	7	1	SERVER	1272	n/a	n/a	1	n/a	n/a	n/a	n/a	n/a
1346.768	n/a	REC_WORD	673384	wordpools/wasnorm_wordpool.txt	LTP147	ltpFR	5	7	1	ROOSTER	1209	n/a	n/a	1	n/a	n/a	n/a	n/a	n/a
1365.592	n/a	WORD	682796	wordpools/wasnorm_wordpool.txt	LTP147	ltpFR	5	8	0	COTTON	385	n/a	n/a	0	0.57763671875	0.412841796875	1	lower	amplitud.ttf
1369.508	n/a	WORD	684754	wordpools/wasnorm_wordpool.txt	LTP147	ltpFR	5	8	0	CARAVAN	242	n/a	n/a	1	0.57763671875	0.412841796875	1	lower	amplitud.ttf
1373.532	n/a	WORD	686766	wordpools/wasnorm_wordpool.txt	LTP147	ltpFR	5	8	0	KIWI	781	n/a	n/a	0	0.57763671875	0.412841796875	1	lower	amplitud.ttf
1377.372	n/a	WORD	688686	wordpools/wasnorm_wordpool.txt	LTP147	ltpFR	5	8	0	COW	393	n/a	n/a	1	0.57763671875	0.412841796875	1	lower	amplitud.ttf
1381.496	n/a	WORD	690748	wordpools/wasnorm_wordpool.txt	LTP147	ltpFR	5	8	0	ATTIC	56	n/a	n/a	1	0.57763671875	0.412841796875	1	lower	amplitud.ttf
1385.478	n/a	WORD	692739	wordpools/wasnorm_wordpool.txt	LTP147	ltpFR	5	8	0	PAN	1008	n/a	n/a	0	0.57763671875	0.412841796875	1	lower	amplitud.ttf
1389.644	n/a	WORD	694822	wordpools/wasnorm_wordpool.txt	LTP147	ltpFR	5	8	0	MINER	896	n/a	n/a	1	0.57763671875	0.412841796875	1	lower	amplitud.ttf
1393.484	n/a	WORD	696742	wordpools/wasnorm_wordpool.txt	LTP147	ltpFR	5	8	0	LOG	841	n/a	n/a	1	0.57763671875	0.412841796875	1	lower	amplitud.ttf
1397.316	n/a	WORD	698658	wordpools/wasnorm_wordpool.txt	LTP147	ltpFR	5	8	0	CARTON	251	n/a	n/a	0	0.57763671875	0.412841796875	1	lower	amplitud.ttf
1401.198	n/a	WORD	700599	wordpools/wasnorm_wordpool.txt	LTP147	ltpFR	5	8	0	STRAWBERRY	1391	n/a	n/a	0	0.57763671875	0.412841796875	1	lower	amplitud.ttf
1405.396	n/a	WORD	702698	wordpools/wasnorm_wordpool.txt	LTP147	ltpFR	5	8	0	CHIPMUNK	304	n/a	n/a	0	0.57763671875	0.412841796875	1	lower	amplitud.ttf
1409.23	n/a	WORD	704615	wordpools/wasnorm_wordpool.txt	LTP147	ltpFR	5	8	0	FOX	598	n/a	n/a	1	0.57763671875	0.412841796875	1	lower	amplitud.ttf
1413.228	n/a	WORD	706614	wordpools/wasnorm_wordpool.txt	LTP147	ltpFR	5	8	0	CERAMICS	271	n/a	n/a	0	0.57763671875	0.412841796875	1	lower	amplitud.ttf
1417.294	n/a	WORD	708647	wordpools/wasnorm_wordpool.txt	LTP147	ltpFR	5	8	0	INSECT	740	n/a	n/a	0	0.57763671875	0.412841796875	1	lower	amplitud.ttf
1421.242	n/a	WORD	710621	wordpools/wasnorm_wordpool.txt	LTP147	ltpFR	5	8	0	ORANGE	980	n/a	n/a	0	0.57763671875	0.412841796875	1	lower	amplitud.ttf
1425.398	n/a	WORD	712699	wordpools/wasnorm_wordpool.txt	LTP147	ltpFR	5	8	0	BERRY	122	n/a	n/a	0	0.57763671875	0.412841796875	1	lower	amplitud.ttf
1431.056	n/a	REC_START	715528	n/a	LTP147	ltpFR	5	8	n/a	n/a	n/a	n/a	n/a	n/a	n/a	n/a	n/a	n/a	n/a
1431.496	n/a	REC_WORD	715748	wordpools/wasnorm_wordpool.txt	LTP147	ltpFR	5	8	0	ORANGE	980	n/a	n/a	0	n/a	n/a	n/a	n/a	n/a
1432.244	n/a	REC_WORD	716122	wordpools/wasnorm_wordpool.txt	LTP147	ltpFR	5	8	0	BERRY	122	n/a	n/a	0	n/a	n/a	n/a	n/a	n/a
1433.392	n/a	REC_WORD	716696	wordpools/wasnorm_wordpool.txt	LTP147	ltpFR	5	8	0	KIWI	781	n/a	n/a	0	n/a	n/a	n/a	n/a	n/a
1434.056	n/a	REC_WORD	717028	wordpools/wasnorm_wordpool.txt	LTP147	ltpFR	5	8	0	COW	393	n/a	n/a	1	n/a	n/a	n/a	n/a	n/a
1435.392	n/a	REC_WORD	717696	wordpools/wasnorm_wordpool.txt	LTP147	ltpFR	5	8	0	INSECT	740	n/a	n/a	0	n/a	n/a	n/a	n/a	n/a
1437.078	n/a	REC_WORD	718539	wordpools/wasnorm_wordpool.txt	LTP147	ltpFR	5	8	0	STRAWBERRY	1391	n/a	n/a	0	n/a	n/a	n/a	n/a	n/a
1438.504	n/a	REC_WORD	719252	wordpools/wasnorm_wordpool.txt	LTP147	ltpFR	5	8	0	CARTON	251	n/a	n/a	0	n/a	n/a	n/a	n/a	n/a
1439.726	n/a	REC_WORD	719863	wordpools/wasnorm_wordpool.txt	LTP147	ltpFR	5	8	0	LOG	841	n/a	n/a	1	n/a	n/a	n/a	n/a	n/a
1440.58	n/a	REC_WORD	720290	wordpools/wasnorm_wordpool.txt	LTP147	ltpFR	5	8	0	MINER	896	n/a	n/a	1	n/a	n/a	n/a	n/a	n/a
1441.612	n/a	REC_WORD	720806	wordpools/wasnorm_wordpool.txt	LTP147	ltpFR	5	8	0	ATTIC	56	n/a	n/a	1	n/a	n/a	n/a	n/a	n/a
1443.852	n/a	REC_WORD	721926	wordpools/wasnorm_wordpool.txt	LTP147	ltpFR	5	8	0	COW	393	n/a	n/a	1	n/a	n/a	n/a	n/a	n/a
1456.424	n/a	REC_WORD	728212	wordpools/wasnorm_wordpool.txt	LTP147	ltpFR	5	8	0	COTTON	385	n/a	n/a	0	n/a	n/a	n/a	n/a	n/a
1458.286	n/a	REC_WORD	729143	wordpools/wasnorm_wordpool.txt	LTP147	ltpFR	5	8	0	CARAVAN	242	n/a	n/a	1	n/a	n/a	n/a	n/a	n/a
1462.55	n/a	REC_WORD	731275	wordpools/wasnorm_wordpool.txt	LTP147	ltpFR	5	8	0	PAN	1008	n/a	n/a	0	n/a	n/a	n/a	n/a	n/a
1469.7	n/a	REC_WORD	734850	wordpools/wasnorm_wordpool.txt	LTP147	ltpFR	5	8	0	MINER	896	n/a	n/a	1	n/a	n/a	n/a	n/a	n/a
1470.604	n/a	REC_WORD	735302	wordpools/wasnorm_wordpool.txt	LTP147	ltpFR	5	8	0	LOG	841	n/a	n/a	1	n/a	n/a	n/a	n/a	n/a
1479.254	n/a	REC_WORD	739627	wordpools/wasnorm_wordpool.txt	LTP147	ltpFR	5	8	0	CARTON	251	n/a	n/a	0	n/a	n/a	n/a	n/a	n/a
1480.062	n/a	REC_WORD	740031	wordpools/wasnorm_wordpool.txt	LTP147	ltpFR	5	8	0	STRAWBERRY	1391	n/a	n/a	0	n/a	n/a	n/a	n/a	n/a
1522.138	n/a	WORD	761069	wordpools/wasnorm_wordpool.txt	LTP147	ltpFR	5	9	-1	BALCONY	72	n/a	n/a	-1	1.0	1.0	1	upper	Verdana.ttf
1526.244	n/a	WORD	763122	wordpools/wasnorm_wordpool.txt	LTP147	ltpFR	5	9	-1	SKI	1316	n/a	n/a	-1	1.0	1.0	1	upper	Verdana.ttf
1530.31	n/a	WORD	765155	wordpools/wasnorm_wordpool.txt	LTP147	ltpFR	5	9	-1	FOUNTAIN	597	n/a	n/a	-1	1.0	1.0	1	upper	Verdana.ttf
1534.474	n/a	WORD	767237	wordpools/wasnorm_wordpool.txt	LTP147	ltpFR	5	9	-1	CUCUMBER	421	n/a	n/a	-1	1.0	1.0	1	upper	Verdana.ttf
1538.314	n/a	WORD	769157	wordpools/wasnorm_wordpool.txt	LTP147	ltpFR	5	9	-1	WINDOW	1611	n/a	n/a	-1	1.0	1.0	1	upper	Verdana.ttf
1542.38	n/a	WORD	771190	wordpools/wasnorm_wordpool.txt	LTP147	ltpFR	5	9	-1	SICKLE	1302	n/a	n/a	-1	1.0	1.0	1	upper	Verdana.ttf
1546.538	n/a	WORD	773269	wordpools/wasnorm_wordpool.txt	LTP147	ltpFR	5	9	-1	COCKTAIL	338	n/a	n/a	-1	1.0	1.0	1	upper	Verdana.ttf
1550.702	n/a	WORD	775351	wordpools/wasnorm_wordpool.txt	LTP147	ltpFR	5	9	-1	OPERA	978	n/a	n/a	-1	1.0	1.0	1	upper	Verdana.ttf
1554.518	n/a	WORD	777259	wordpools/wasnorm_wordpool.txt	LTP147	ltpFR	5	9	-1	CYCLONE	431	n/a	n/a	-1	1.0	1.0	1	upper	Verdana.ttf
1558.416	n/a	WORD	779208	wordpools/wasnorm_wordpool.txt	LTP147	ltpFR	5	9	-1	CHILD	299	n/a	n/a	-1	1.0	1.0	1	upper	Verdana.ttf
1562.592	n/a	WORD	781296	wordpools/wasnorm_wordpool.txt	LTP147	ltpFR	5	9	-1	TOY	1492	n/a	n/a	-1	1.0	1.0	1	upper	Verdana.ttf
1566.79	n/a	WORD	783395	wordpools/wasnorm_wordpool.txt	LTP147	ltpFR	5	9	-1	MARSH	874	n/a	n/a	-1	1.0	1.0	1	upper	Verdana.ttf
1570.738	n/a	WORD	785369	wordpools/wasnorm_wordpool.txt	LTP147	ltpFR	5	9	-1	BARTENDER	92	n/a	n/a	-1	1.0	1.0	1	upper	Verdana.ttf
1574.946	n/a	WORD	787473	wordpools/wasnorm_wordpool.txt	LTP147	ltpFR	5	9	-1	BUILDING	191	n/a	n/a	-1	1.0	1.0	1	upper	Verdana.ttf
1578.828	n/a	WORD	789414	wordpools/wasnorm_wordpool.txt	LTP147	ltpFR	5	9	-1	SKYSCRAPER	1322	n/a	n/a	-1	1.0	1.0	1	upper	Verdana.ttf
1582.902	n/a	WORD	791451	wordpools/wasnorm_wordpool.txt	LTP147	ltpFR	5	9	-1	KEYBOARD	774	n/a	n/a	-1	1.0	1.0	1	upper	Verdana.ttf
1588.658	n/a	REC_START	794329	n/a	LTP147	ltpFR	5	9	n/a	n/a	n/a	n/a	n/a	n/a	n/a	n/a	n/a	n/a	n/a
1589.422	n/a	REC_WORD	794711	wordpools/wasnorm_wordpool.txt	LTP147	ltpFR	5	9	-1	KEYBOARD	774	n/a	n/a	-1	n/a	n/a	n/a	n/a	n/a
1590.096	n/a	REC_WORD	795048	wordpools/wasnorm_wordpool.txt	LTP147	ltpFR	5	9	-1	CUCUMBER	421	n/a	n/a	-1	n/a	n/a	n/a	n/a	n/a
1590.862	n/a	REC_WORD	795431	wordpools/wasnorm_wordpool.txt	LTP147	ltpFR	5	9	-1	SKYSCRAPER	1322	n/a	n/a	-1	n/a	n/a	n/a	n/a	n/a
1592.01	n/a	REC_WORD	796005	wordpools/wasnorm_wordpool.txt	LTP147	ltpFR	5	9	-1	BUILDING	191	n/a	n/a	-1	n/a	n/a	n/a	n/a	n/a
1593.242	n/a	REC_WORD	796621	wordpools/wasnorm_wordpool.txt	LTP147	ltpFR	5	9	-1	BARTENDER	92	n/a	n/a	-1	n/a	n/a	n/a	n/a	n/a
1594.984	n/a	REC_WORD	797492	wordpools/wasnorm_wordpool.txt	LTP147	ltpFR	5	9	-1	CHILD	299	n/a	n/a	-1	n/a	n/a	n/a	n/a	n/a
1596.612	n/a	REC_WORD	798306	wordpools/wasnorm_wordpool.txt	LTP147	ltpFR	5	9	-1	TOY	1492	n/a	n/a	-1	n/a	n/a	n/a	n/a	n/a
1602.198	n/a	REC_WORD	801099	wordpools/wasnorm_wordpool.txt	LTP147	ltpFR	5	9	-1	BALCONY	72	n/a	n/a	-1	n/a	n/a	n/a	n/a	n/a
1602.84	n/a	REC_WORD	801420	wordpools/wasnorm_wordpool.txt	LTP147	ltpFR	5	9	-1	SKI	1316	n/a	n/a	-1	n/a	n/a	n/a	n/a	n/a
1603.586	n/a	REC_WORD	801793	wordpools/wasnorm_wordpool.txt	LTP147	ltpFR	5	9	-1	FOUNTAIN	597	n/a	n/a	-1	n/a	n/a	n/a	n/a	n/a
1606.384	n/a	REC_WORD	803192	wordpools/wasnorm_wordpool.txt	LTP147	ltpFR	5	9	-1	CUCUMBER	421	n/a	n/a	-1	n/a	n/a	n/a	n/a	n/a
1610.898	n/a	REC_WORD	805449	wordpools/wasnorm_wordpool.txt	LTP147	ltpFR	5	9	-1	MARSH	874	n/a	n/a	-1	n/a	n/a	n/a	n/a	n/a
1614.326	n/a	REC_WORD	807163	wordpools/wasnorm_wordpool.txt	LTP147	ltpFR	5	9	-1	WINDOW	1611	n/a	n/a	-1	n/a	n/a	n/a	n/a	n/a
1676.49	n/a	WORD	838245	wordpools/wasnorm_wordpool.txt	LTP147	ltpFR	5	10	1	RADIO	1157	n/a	n/a	0	0.422607421875	0.5869140625	0	upper	zerothre.ttf
1680.588	n/a	WORD	840294	wordpools/wasnorm_wordpool.txt	LTP147	ltpFR	5	10	1	SKIN	1318	n/a	n/a	1	0.422607421875	0.5869140625	0	upper	zerothre.ttf
1684.646	n/a	WORD	842323	wordpools/wasnorm_wordpool.txt	LTP147	ltpFR	5	10	1	BREAST	171	n/a	n/a	1	0.422607421875	0.5869140625	0	upper	zerothre.ttf
1688.802	n/a	WORD	844401	wordpools/wasnorm_wordpool.txt	LTP147	ltpFR	5	10	1	BINDER	127	n/a	n/a	0	0.422607421875	0.5869140625	0	upper	zerothre.ttf
1692.752	n/a	WORD	846376	wordpools/wasnorm_wordpool.txt	LTP147	ltpFR	5	10	0	PIZZA	1079	n/a	n/a	0	0.57763671875	0.412841796875	1	lower	amplitud.ttf
1696.668	n/a	WORD	848334	wordpools/wasnorm_wordpool.txt	LTP147	ltpFR	5	10	0	CORAL	378	n/a	n/a	0	0.57763671875	0.412841796875	1	lower	amplitud.ttf
1700.74	n/a	WORD	850370	wordpools/wasnorm_wordpool.txt	LTP147	ltpFR	5	10	0	FOREST	593	n/a	n/a	1	0.57763671875	0.412841796875	1	lower	amplitud.ttf
1704.764	n/a	WORD	852382	wordpools/wasnorm_wordpool.txt	LTP147	ltpFR	5	10	0	PONY	1102	n/a	n/a	1	0.57763671875	0.412841796875	1	lower	amplitud.ttf
1708.83	n/a	WORD	854415	wordpools/wasnorm_wordpool.txt	LTP147	ltpFR	5	10	1	RANCH	1166	n/a	n/a	0	0.422607421875	0.5869140625	0	upper	zerothre.ttf
1712.746	n/a	WORD	856373	wordpools/wasnorm_wordpool.txt	LTP147	ltpFR	5	10	1	POLITICIAN	1099	n/a	n/a	1	0.422607421875	0.5869140625	0	upper	zerothre.ttf
1716.836	n/a	WORD	858418	wordpools/wasnorm_wordpool.txt	LTP147	ltpFR	5	10	0	ANTENNA	28	n/a	n/a	0	0.57763671875	0.412841796875	1	lower	amplitud.ttf
1720.676	n/a	WORD	860338	wordpools/wasnorm_wordpool.txt	LTP147	ltpFR	5	10	0	HARP	689	n/a	n/a	0	0.57763671875	0.412841796875	1	lower	amplitud.ttf
1724.584	n/a	WORD	862292	wordpools/wasnorm_wordpool.txt	LTP147	ltpFR	5	10	0	FLORIDA	582	n/a	n/a	1	0.57763671875	0.412841796875	1	lower	amplitud.ttf
1728.5	n/a	WORD	864250	wordpools/wasnorm_wordpool.txt	LTP147	ltpFR	5	10	0	PAPER	1011	n/a	n/a	0	0.57763671875	0.412841796875	1	lower	amplitud.ttf
1732.624	n/a	WORD	866312	wordpools/wasnorm_wordpool.txt	LTP147	ltpFR	5	10	1	ONION	977	n/a	n/a	1	0.422607421875	0.5869140625	0	upper	zerothre.ttf
1736.456	n/a	WORD	868228	wordpools/wasnorm_wordpool.txt	LTP147	ltpFR	5	10	1	SKUNK	1321	n/a	n/a	1	0.422607421875	0.5869140625	0	upper	zerothre.ttf
1742.22	n/a	REC_START	871110	n/a	LTP147	ltpFR	5	10	n/a	n/a	n/a	n/a	n/a	n/a	n/a	n/a	n/a	n/a	n/a
1742.444	n/a	REC_WORD	871222	wordpools/wasnorm_wordpool.txt	LTP147	ltpFR	5	10	1	SKUNK	1321	n/a	n/a	1	n/a	n/a	n/a	n/a	n/a
1743.388	n/a	REC_WORD	871694	wordpools/wasnorm_wordpool.txt	LTP147	ltpFR	5	10	1	ONION	977	n/a	n/a	1	n/a	n/a	n/a	n/a	n/a
1744.022	n/a	REC_WORD	872011	wordpools/wasnorm_wordpool.txt	LTP147	ltpFR	5	10	0	PAPER	1011	n/a	n/a	0	n/a	n/a	n/a	n/a	n/a
1745.788	n/a	REC_WORD	872894	wordpools/wasnorm_wordpool.txt	LTP147	ltpFR	5	10	1	BINDER	127	n/a	n/a	0	n/a	n/a	n/a	n/a	n/a
1746.406	n/a	REC_WORD	873203	wordpools/wasnorm_wordpool.txt	LTP147	ltpFR	5	10	1	BREAST	171	n/a	n/a	1	n/a	n/a	n/a	n/a	n/a
1747.634	n/a	REC_WORD	873817	wordpools/wasnorm_wordpool.txt	LTP147	ltpFR	5	10	1	SKIN	1318	n/a	n/a	1	n/a	n/a	n/a	n/a	n/a
1748.452	n/a	REC_WORD	874226	wordpools/wasnorm_wordpool.txt	LTP147	ltpFR	5	10	1	RADIO	1157	n/a	n/a	0	n/a	n/a	n/a	n/a	n/a
1749.28	n/a	REC_WORD	874640	wordpools/wasnorm_wordpool.txt	LTP147	ltpFR	5	10	0	ANTENNA	28	n/a	n/a	0	n/a	n/a	n/a	n/a	n/a
1750.766	n/a	REC_WORD	875383	wordpools/wasnorm_wordpool.txt	LTP147	ltpFR	5	10	0	FLORIDA	582	n/a	n/a	1	n/a	n/a	n/a	n/a	n/a
1751.596	n/a	REC_WORD	875798	wordpools/wasnorm_wordpool.txt	LTP147	ltpFR	5	10	0	HARP	689	n/a	n/a	0	n/a	n/a	n/a	n/a	n/a
1773.362	n/a	REC_WORD	886681	wordpools/wasnorm_wordpool.txt	LTP147	ltpFR	5	10	1	POLITICIAN	1099	n/a	n/a	1	n/a	n/a	n/a	n/a	n/a
1774.384	n/a	REC_WORD	887192	wordpools/wasnorm_wordpool.txt	LTP147	ltpFR	5	10	1	RANCH	1166	n/a	n/a	0	n/a	n/a	n/a	n/a	n/a
1775.104	n/a	REC_WORD	887552	wordpools/wasnorm_wordpool.txt	LTP147	ltpFR	5	10	0	PONY	1102	n/a	n/a	1	n/a	n/a	n/a	n/a	n/a
1775.664	n/a	REC_WORD	887832	wordpools/wasnorm_wordpool.txt	LTP147	ltpFR	5	10	0	FOREST	593	n/a	n/a	1	n/a	n/a	n/a	n/a	n/a
1776.504	n/a	REC_WORD	888252	wordpools/wasnorm_wordpool.txt	LTP147	ltpFR	5	10	0	PIZZA	1079	n/a	n/a	0	n/a	n/a	n/a	n/a	n/a
1777.368	n/a	REC_WORD	888684	wordpools/wasnorm_wordpool.txt	LTP147	ltpFR	5	10	0	CORAL	378	n/a	n/a	0	n/a	n/a	n/a	n/a	n/a
1837.308	n/a	WORD	918654	wordpools/wasnorm_wordpool.txt	LTP147	ltpFR	5	11	0	TEAM	1441	n/a	n/a	1	0.57763671875	0.412841796875	1	lower	amplitud.ttf
1841.232	n/a	WORD	920616	wordpools/wasnorm_wordpool.txt	LTP147	ltpFR	5	11	0	CARDINAL	244	n/a	n/a	1	0.57763671875	0.412841796875	1	lower	amplitud.ttf
1845.056	n/a	WORD	922528	wordpools/wasnorm_wordpool.txt	LTP147	ltpFR	5	11	0	COB	334	n/a	n/a	0	0.57763671875	0.412841796875	1	lower	amplitud.ttf
1849.012	n/a	WORD	924506	wordpools/wasnorm_wordpool.txt	LTP147	ltpFR	5	11	0	DAM	436	n/a	n/a	1	0.57763671875	0.412841796875	1	lower	amplitud.ttf
1853.22	n/a	WORD	926610	wordpools/wasnorm_wordpool.txt	LTP147	ltpFR	5	11	0	RAFT	1159	n/a	n/a	1	0.57763671875	0.412841796875	1	lower	amplitud.ttf
1857.318	n/a	WORD	928659	wordpools/wasnorm_wordpool.txt	LTP147	ltpFR	5	11	0	PAIL	1002	n/a	n/a	1	0.57763671875	0.412841796875	1	lower	amplitud.ttf
1861.226	n/a	WORD	930613	wordpools/wasnorm_wordpool.txt	LTP147	ltpFR	5	11	0	PERCH	1048	n/a	n/a	0	0.57763671875	0.412841796875	1	lower	amplitud.ttf
1865.084	n/a	WORD	932542	wordpools/wasnorm_wordpool.txt	LTP147	ltpFR	5	11	0	CLOTHES	327	n/a	n/a	1	0.57763671875	0.412841796875	1	lower	amplitud.ttf
1869.014	n/a	WORD	934507	wordpools/wasnorm_wordpool.txt	LTP147	ltpFR	5	11	0	PLASTER	1085	n/a	n/a	0	0.57763671875	0.412841796875	1	lower	amplitud.ttf
1873.18	n/a	WORD	936590	wordpools/wasnorm_wordpool.txt	LTP147	ltpFR	5	11	0	LIGHTER	819	n/a	n/a	0	0.57763671875	0.412841796875	1	lower	amplitud.ttf
1877.18	n/a	WORD	938590	wordpools/wasnorm_wordpool.txt	LTP147	ltpFR	5	11	0	SURF	1412	n/a	n/a	1	0.57763671875	0.412841796875	1	lower	amplitud.ttf
1881.278	n/a	WORD	940639	wordpools/wasnorm_wordpool.txt	LTP147	ltpFR	5	11	0	WAVE	1596	n/a	n/a	1	0.57763671875	0.412841796875	1	lower	amplitud.ttf
1885.336	n/a	WORD	942668	wordpools/wasnorm_wordpool.txt	LTP147	ltpFR	5	11	0	OATS	968	n/a	n/a	0	0.57763671875	0.412841796875	1	lower	amplitud.ttf
1889.292	n/a	WORD	944646	wordpools/wasnorm_wordpool.txt	LTP147	ltpFR	5	11	0	FISH	571	n/a	n/a	0	0.57763671875	0.412841796875	1	lower	amplitud.ttf
1893.216	n/a	WORD	946608	wordpools/wasnorm_wordpool.txt	LTP147	ltpFR	5	11	0	LIPSTICK	829	n/a	n/a	0	0.57763671875	0.412841796875	1	lower	amplitud.ttf
1897.056	n/a	WORD	948528	wordpools/wasnorm_wordpool.txt	LTP147	ltpFR	5	11	0	PIGMENT	1066	n/a	n/a	0	0.57763671875	0.412841796875	1	lower	amplitud.ttf
1902.98	n/a	REC_START	951490	n/a	LTP147	ltpFR	5	11	n/a	n/a	n/a	n/a	n/a	n/a	n/a	n/a	n/a	n/a	n/a
1903.224	n/a	REC_WORD	951612	wordpools/wasnorm_wordpool.txt	LTP147	ltpFR	5	11	0	LIPSTICK	829	n/a	n/a	0	n/a	n/a	n/a	n/a	n/a
1904.118	n/a	REC_WORD	952059	wordpools/wasnorm_wordpool.txt	LTP147	ltpFR	5	11	0	PIGMENT	1066	n/a	n/a	0	n/a	n/a	n/a	n/a	n/a
1904.636	n/a	REC_WORD	952318	wordpools/wasnorm_wordpool.txt	LTP147	ltpFR	5	11	0	FISH	571	n/a	n/a	0	n/a	n/a	n/a	n/a	n/a
1909.626	n/a	REC_WORD	954813	wordpools/wasnorm_wordpool.txt	LTP147	ltpFR	5	11	0	COB	334	n/a	n/a	0	n/a	n/a	n/a	n/a	n/a
1918.73	n/a	REC_WORD	959365	wordpools/wasnorm_wordpool.txt	LTP147	ltpFR	5	11	0	PAIL	1002	n/a	n/a	1	n/a	n/a	n/a	n/a	n/a
1920.456	n/a	REC_WORD	960228	wordpools/wasnorm_wordpool.txt	LTP147	ltpFR	5	11	0	OATS	968	n/a	n/a	0	n/a	n/a	n/a	n/a	n/a
1924.602	n/a	REC_WORD	962301	wordpools/wasnorm_wordpool.txt	LTP147	ltpFR	5	11	0	LIGHTER	819	n/a	n/a	0	n/a	n/a	n/a	n/a	n/a
1926.414	n/a	REC_WORD	963207	wordpools/wasnorm_wordpool.txt	LTP147	ltpFR	5	11	0	PLASTER	1085	n/a	n/a	0	n/a	n/a	n/a	n/a	n/a
1945.95	n/a	REC_WORD	972975	wordpools/wasnorm_wordpool.txt	LTP147	ltpFR	5	11	n/a	SERGEANT	1269	n/a	n/a	n/a	n/a	n/a	n/a	n/a	n/a
1947.002	n/a	REC_WORD	973501	wordpools/wasnorm_wordpool.txt	LTP147	ltpFR	5	11	n/a	SQUAD	-1	n/a	n/a	n/a	n/a	n/a	n/a	n/a	n/a
1988.012	n/a	WORD	994006	wordpools/wasnorm_wordpool.txt	LTP147	ltpFR	5	12	0	VASE	1549	n/a	n/a	0	0.57763671875	0.412841796875	1	lower	amplitud.ttf
1991.87	n/a	WORD	995935	wordpools/wasnorm_wordpool.txt	LTP147	ltpFR	5	12	0	MISTER	901	n/a	n/a	1	0.57763671875	0.412841796875	1	lower	amplitud.ttf
1995.96	n/a	WORD	997980	wordpools/wasnorm_wordpool.txt	LTP147	ltpFR	5	12	0	CUSTOMER	430	n/a	n/a	1	0.57763671875	0.412841796875	1	lower	amplitud.ttf
1999.908	n/a	WORD	999954	wordpools/wasnorm_wordpool.txt	LTP147	ltpFR	5	12	0	PAWN	1030	n/a	n/a	0	0.57763671875	0.412841796875	1	lower	amplitud.ttf
2003.882	n/a	WORD	1001941	wordpools/wasnorm_wordpool.txt	LTP147	ltpFR	5	12	0	KITTEN	780	n/a	n/a	0	0.57763671875	0.412841796875	1	lower	amplitud.ttf
2007.814	n/a	WORD	1003907	wordpools/wasnorm_wordpool.txt	LTP147	ltpFR	5	12	1	COUGAR	387	n/a	n/a	1	0.422607421875	0.5869140625	0	upper	zerothre.ttf
2011.888	n/a	WORD	1005944	wordpools/wasnorm_wordpool.txt	LTP147	ltpFR	5	12	1	TERMITE	1451	n/a	n/a	1	0.422607421875	0.5869140625	0	upper	zerothre.ttf
2016.07	n/a	WORD	1008035	wordpools/wasnorm_wordpool.txt	LTP147	ltpFR	5	12	1	RIVER	1194	n/a	n/a	1	0.422607421875	0.5869140625	0	upper	zerothre.ttf
2019.96	n/a	WORD	1009980	wordpools/wasnorm_wordpool.txt	LTP147	ltpFR	5	12	1	RUST	1219	n/a	n/a	0	0.422607421875	0.5869140625	0	upper	zerothre.ttf
2024.134	n/a	WORD	1012067	wordpools/wasnorm_wordpool.txt	LTP147	ltpFR	5	12	0	RODENT	1204	n/a	n/a	0	0.57763671875	0.412841796875	1	lower	amplitud.ttf
2028.242	n/a	WORD	1014121	wordpools/wasnorm_wordpool.txt	LTP147	ltpFR	5	12	0	CHECK	284	n/a	n/a	0	0.57763671875	0.412841796875	1	lower	amplitud.ttf
2032.24	n/a	WORD	1016120	wordpools/wasnorm_wordpool.txt	LTP147	ltpFR	5	12	0	VAN	1548	n/a	n/a	1	0.57763671875	0.412841796875	1	lower	amplitud.ttf
2036.148	n/a	WORD	1018074	wordpools/wasnorm_wordpool.txt	LTP147	ltpFR	5	12	1	PICKLE	1059	n/a	n/a	1	0.422607421875	0.5869140625	0	upper	zerothre.ttf
2040.19	n/a	WORD	1020095	wordpools/wasnorm_wordpool.txt	LTP147	ltpFR	5	12	1	WALLET	1583	n/a	n/a	0	0.422607421875	0.5869140625	0	upper	zerothre.ttf
2044.004	n/a	WORD	1022002	wordpools/wasnorm_wordpool.txt	LTP147	ltpFR	5	12	1	STRAW	1390	n/a	n/a	0	0.422607421875	0.5869140625	0	upper	zerothre.ttf
2047.936	n/a	WORD	1023968	wordpools/wasnorm_wordpool.txt	LTP147	ltpFR	5	12	1	BRICK	172	n/a	n/a	1	0.422607421875	0.5869140625	0	upper	zerothre.ttf
2053.834	n/a	REC_START	1026917	n/a	LTP147	ltpFR	5	12	n/a	n/a	n/a	n/a	n/a	n/a	n/a	n/a	n/a	n/a	n/a
2054.748	n/a	REC_WORD	1027374	wordpools/wasnorm_wordpool.txt	LTP147	ltpFR	5	12	1	STRAW	1390	n/a	n/a	0	n/a	n/a	n/a	n/a	n/a
2055.576	n/a	REC_WORD	1027788	wordpools/wasnorm_wordpool.txt	LTP147	ltpFR	5	12	1	BRICK	172	n/a	n/a	1	n/a	n/a	n/a	n/a	n/a
2057.106	n/a	REC_WORD	1028553	wordpools/wasnorm_wordpool.txt	LTP147	ltpFR	5	12	1	PICKLE	1059	n/a	n/a	1	n/a	n/a	n/a	n/a	n/a
2057.73	n/a	REC_WORD	1028865	wordpools/wasnorm_wordpool.txt	LTP147	ltpFR	5	12	1	WALLET	1583	n/a	n/a	0	n/a	n/a	n/a	n/a	n/a
2058.35	n/a	REC_WORD	1029175	wordpools/wasnorm_wordpool.txt	LTP147	ltpFR	5	12	0	RODENT	1204	n/a	n/a	0	n/a	n/a	n/a	n/a	n/a
2059.108	n/a	REC_WORD	1029554	wordpools/wasnorm_wordpool.txt	LTP147	ltpFR	5	12	1	RIVER	1194	n/a	n/a	1	n/a	n/a	n/a	n/a	n/a
2061.93	n/a	REC_WORD	1030965	wordpools/wasnorm_wordpool.txt	LTP147	ltpFR	5	12	1	TERMITE	1451	n/a	n/a	1	n/a	n/a	n/a	n/a	n/a
2063.028	n/a	REC_WORD	1031514	wordpools/wasnorm_wordpool.txt	LTP147	ltpFR	5	12	0	KITTEN	780	n/a	n/a	0	n/a	n/a	n/a	n/a	n/a
2063.892	n/a	REC_WORD	1031946	wordpools/wasnorm_wordpool.txt	LTP147	ltpFR	5	12	1	COUGAR	387	n/a	n/a	1	n/a	n/a	n/a	n/a	n/a
2073.6	n/a	REC_WORD	1036800	wordpools/wasnorm_wordpool.txt	LTP147	ltpFR	5	12	0	VASE	1549	n/a	n/a	0	n/a	n/a	n/a	n/a	n/a
2078.878	n/a	REC_WORD	1039439	wordpools/wasnorm_wordpool.txt	LTP147	ltpFR	5	12	0	CUSTOMER	430	n/a	n/a	1	n/a	n/a	n/a	n/a	n/a
2080.31	n/a	REC_WORD	1040155	wordpools/wasnorm_wordpool.txt	LTP147	ltpFR	5	12	0	PAWN	1030	n/a	n/a	0	n/a	n/a	n/a	n/a	n/a
2119.996	n/a	REC_WORD	1059998	wordpools/wasnorm_wordpool.txt	LTP147	ltpFR	5	12	1	TERMITE	1451	n/a	n/a	1	n/a	n/a	n/a	n/a	n/a
2129.436	n/a	REST_REWET	1064718	n/a	LTP147	ltpFR	5	12	n/a	n/a	n/a	n/a	n/a	n/a	n/a	n/a	n/a	n/a	n/a
2589.78	n/a	WORD	1294890	wordpools/wasnorm_wordpool.txt	LTP147	ltpFR	5	13	0	GOLD	647	n/a	n/a	0	0.57763671875	0.412841796875	1	lower	amplitud.ttf
2593.854	n/a	WORD	1296927	wordpools/wasnorm_wordpool.txt	LTP147	ltpFR	5	13	0	IRON	744	n/a	n/a	0	0.57763671875	0.412841796875	1	lower	amplitud.ttf
2597.97	n/a	WORD	1298985	wordpools/wasnorm_wordpool.txt	LTP147	ltpFR	5	13	0	SAP	1233	n/a	n/a	0	0.57763671875	0.412841796875	1	lower	amplitud.ttf
2601.944	n/a	WORD	1300972	wordpools/wasnorm_wordpool.txt	LTP147	ltpFR	5	13	0	BANK	83	n/a	n/a	1	0.57763671875	0.412841796875	1	lower	amplitud.ttf
2605.784	n/a	WORD	1302892	wordpools/wasnorm_wordpool.txt	LTP147	ltpFR	5	13	0	SEED	1266	n/a	n/a	0	0.57763671875	0.412841796875	1	lower	amplitud.ttf
2609.99	n/a	WORD	1304995	wordpools/wasnorm_wordpool.txt	LTP147	ltpFR	5	13	0	TROUSERS	1510	n/a	n/a	1	0.57763671875	0.412841796875	1	lower	amplitud.ttf
2614.124	n/a	WORD	1307062	wordpools/wasnorm_wordpool.txt	LTP147	ltpFR	5	13	0	SHORTS	1293	n/a	n/a	1	0.57763671875	0.412841796875	1	lower	amplitud.ttf
2618.072	n/a	WORD	1309036	wordpools/wasnorm_wordpool.txt	LTP147	ltpFR	5	13	0	COFFEE	341	n/a	n/a	1	0.57763671875	0.412841796875	1	lower	amplitud.ttf
2621.904	n/a	WORD	1310952	wordpools/wasnorm_wordpool.txt	LTP147	ltpFR	5	13	0	LANDSCAPE	799	n/a	n/a	1	0.57763671875	0.412841796875	1	lower	amplitud.ttf
2625.928	n/a	WORD	1312964	wordpools/wasnorm_wordpool.txt	LTP147	ltpFR	5	13	0	RIBBON	1189	n/a	n/a	0	0.57763671875	0.412841796875	1	lower	amplitud.ttf
2630.002	n/a	WORD	1315001	wordpools/wasnorm_wordpool.txt	LTP147	ltpFR	5	13	0	SHRUB	1299	n/a	n/a	1	0.57763671875	0.412841796875	1	lower	amplitud.ttf
2633.91	n/a	WORD	1316955	wordpools/wasnorm_wordpool.txt	LTP147	ltpFR	5	13	0	ACORN	3	n/a	n/a	1	0.57763671875	0.412841796875	1	lower	amplitud.ttf
2637.982	n/a	WORD	1318991	wordpools/wasnorm_wordpool.txt	LTP147	ltpFR	5	13	0	WINNER	1615	n/a	n/a	1	0.57763671875	0.412841796875	1	lower	amplitud.ttf
2641.956	n/a	WORD	1320978	wordpools/wasnorm_wordpool.txt	LTP147	ltpFR	5	13	0	SCROLL	1257	n/a	n/a	0	0.57763671875	0.412841796875	1	lower	amplitud.ttf
2645.838	n/a	WORD	1322919	wordpools/wasnorm_wordpool.txt	LTP147	ltpFR	5	13	0	STEM	1376	n/a	n/a	0	0.57763671875	0.412841796875	1	lower	amplitud.ttf
2649.92	n/a	WORD	1324960	wordpools/wasnorm_wordpool.txt	LTP147	ltpFR	5	13	0	FIELD	562	n/a	n/a	1	0.57763671875	0.412841796875	1	lower	amplitud.ttf
2656.002	n/a	REC_START	1328001	n/a	LTP147	ltpFR	5	13	n/a	n/a	n/a	n/a	n/a	n/a	n/a	n/a	n/a	n/a	n/a
2656.886	n/a	REC_WORD	1328443	wordpools/wasnorm_wordpool.txt	LTP147	ltpFR	5	13	0	FIELD	562	n/a	n/a	1	n/a	n/a	n/a	n/a	n/a
2657.44	n/a	REC_WORD	1328720	wordpools/wasnorm_wordpool.txt	LTP147	ltpFR	5	13	0	SCROLL	1257	n/a	n/a	0	n/a	n/a	n/a	n/a	n/a
2658.312	n/a	REC_WORD	1329156	wordpools/wasnorm_wordpool.txt	LTP147	ltpFR	5	13	0	STEM	1376	n/a	n/a	0	n/a	n/a	n/a	n/a	n/a
2661.0	n/a	REC_WORD	1330500	wordpools/wasnorm_wordpool.txt	LTP147	ltpFR	5	13	0	LANDSCAPE	799	n/a	n/a	1	n/a	n/a	n/a	n/a	n/a
2662.208	n/a	REC_WORD	1331104	wordpools/wasnorm_wordpool.txt	LTP147	ltpFR	5	13	0	SEED	1266	n/a	n/a	0	n/a	n/a	n/a	n/a	n/a
2663.172	n/a	REC_WORD	1331586	wordpools/wasnorm_wordpool.txt	LTP147	ltpFR	5	13	0	TROUSERS	1510	n/a	n/a	1	n/a	n/a	n/a	n/a	n/a
2664.908	n/a	REC_WORD	1332454	wordpools/wasnorm_wordpool.txt	LTP147	ltpFR	5	13	0	SHORTS	1293	n/a	n/a	1	n/a	n/a	n/a	n/a	n/a
2666.444	n/a	REC_WORD	1333222	wordpools/wasnorm_wordpool.txt	LTP147	ltpFR	5	13	0	GOLD	647	n/a	n/a	0	n/a	n/a	n/a	n/a	n/a
2667.022	n/a	REC_WORD	1333511	wordpools/wasnorm_wordpool.txt	LTP147	ltpFR	5	13	0	IRON	744	n/a	n/a	0	n/a	n/a	n/a	n/a	n/a
2667.648	n/a	REC_WORD	1333824	wordpools/wasnorm_wordpool.txt	LTP147	ltpFR	5	13	0	SAP	1233	n/a	n/a	0	n/a	n/a	n/a	n/a	n/a
2671.098	n/a	REC_WORD	1335549	wordpools/wasnorm_wordpool.txt	LTP147	ltpFR	5	13	0	SHRUB	1299	n/a	n/a	1	n/a	n/a	n/a	n/a	n/a
2674.452	n/a	REC_WORD	1337226	wordpools/wasnorm_wordpool.txt	LTP147	ltpFR	5	13	0	BANK	83	n/a	n/a	1	n/a	n/a	n/a	n/a	n/a
2678.622	n/a	REC_WORD	1339311	wordpools/wasnorm_wordpool.txt	LTP147	ltpFR	5	13	0	WINNER	1615	n/a	n/a	1	n/a	n/a	n/a	n/a	n/a
2716.318	n/a	REC_WORD	1358159	wordpools/wasnorm_wordpool.txt	LTP147	ltpFR	5	13	0	LANDSCAPE	799	n/a	n/a	1	n/a	n/a	n/a	n/a	n/a
2717.142	n/a	REC_WORD	1358571	wordpools/wasnorm_wordpool.txt	LTP147	ltpFR	5	13	0	FIELD	562	n/a	n/a	1	n/a	n/a	n/a	n/a	n/a
2718.742	n/a	REC_WORD	1359371	wordpools/wasnorm_wordpool.txt	LTP147	ltpFR	5	13	0	COFFEE	341	n/a	n/a	1	n/a	n/a	n/a	n/a	n/a
2751.74	n/a	WORD	1375870	wordpools/wasnorm_wordpool.txt	LTP147	ltpFR	5	14	1	TURNIP	1521	n/a	n/a	1	0.422607421875	0.5869140625	0	upper	zerothre.ttf
2755.872	n/a	WORD	1377936	wordpools/wasnorm_wordpool.txt	LTP147	ltpFR	5	14	1	DANDELION	438	n/a	n/a	1	0.422607421875	0.5869140625	0	upper	zerothre.ttf
2760.02	n/a	WORD	1380010	wordpools/wasnorm_wordpool.txt	LTP147	ltpFR	5	14	1	NECKLACE	940	n/a	n/a	0	0.422607421875	0.5869140625	0	upper	zerothre.ttf
2764.078	n/a	WORD	1382039	wordpools/wasnorm_wordpool.txt	LTP147	ltpFR	5	14	1	UMBRELLA	1534	n/a	n/a	0	0.422607421875	0.5869140625	0	upper	zerothre.ttf
2768.052	n/a	WORD	1384026	wordpools/wasnorm_wordpool.txt	LTP147	ltpFR	5	14	1	NUN	962	n/a	n/a	1	0.422607421875	0.5869140625	0	upper	zerothre.ttf
2772.226	n/a	WORD	1386113	wordpools/wasnorm_wordpool.txt	LTP147	ltpFR	5	14	1	PAINTER	1004	n/a	n/a	1	0.422607421875	0.5869140625	0	upper	zerothre.ttf
2776.108	n/a	WORD	1388054	wordpools/wasnorm_wordpool.txt	LTP147	ltpFR	5	14	1	ATMOSPHERE	54	n/a	n/a	1	0.422607421875	0.5869140625	0	upper	zerothre.ttf
2780.08	n/a	WORD	1390040	wordpools/wasnorm_wordpool.txt	LTP147	ltpFR	5	14	1	JEWEL	757	n/a	n/a	0	0.422607421875	0.5869140625	0	upper	zerothre.ttf
2784.296	n/a	WORD	1392148	wordpools/wasnorm_wordpool.txt	LTP147	ltpFR	5	14	1	MONK	910	n/a	n/a	1	0.422607421875	0.5869140625	0	upper	zerothre.ttf
2788.212	n/a	WORD	1394106	wordpools/wasnorm_wordpool.txt	LTP147	ltpFR	5	14	1	WINE	1613	n/a	n/a	0	0.422607421875	0.5869140625	0	upper	zerothre.ttf
2792.194	n/a	WORD	1396097	wordpools/wasnorm_wordpool.txt	LTP147	ltpFR	5	14	1	POTATO	1115	n/a	n/a	1	0.422607421875	0.5869140625	0	upper	zerothre.ttf
2796.076	n/a	WORD	1398038	wordpools/wasnorm_wordpool.txt	LTP147	ltpFR	5	14	1	RECIPE	1175	n/a	n/a	0	0.422607421875	0.5869140625	0	upper	zerothre.ttf
2800.2	n/a	WORD	1400100	wordpools/wasnorm_wordpool.txt	LTP147	ltpFR	5	14	1	TOAST	1471	n/a	n/a	0	0.422607421875	0.5869140625	0	upper	zerothre.ttf
2804.05	n/a	WORD	1402025	wordpools/wasnorm_wordpool.txt	LTP147	ltpFR	5	14	1	PASTRY	1022	n/a	n/a	0	0.422607421875	0.5869140625	0	upper	zerothre.ttf
2807.882	n/a	WORD	1403941	wordpools/wasnorm_wordpool.txt	LTP147	ltpFR	5	14	1	SERVANT	1271	n/a	n/a	1	0.422607421875	0.5869140625	0	upper	zerothre.ttf
2811.88	n/a	WORD	1405940	wordpools/wasnorm_wordpool.txt	LTP147	ltpFR	5	14	1	CUP	424	n/a	n/a	0	0.422607421875	0.5869140625	0	upper	zerothre.ttf
2817.586	n/a	REC_START	1408793	n/a	LTP147	ltpFR	5	14	n/a	n/a	n/a	n/a	n/a	n/a	n/a	n/a	n/a	n/a	n/a
2817.946	n/a	REC_WORD	1408973	wordpools/wasnorm_wordpool.txt	LTP147	ltpFR	5	14	1	SERVANT	1271	n/a	n/a	1	n/a	n/a	n/a	n/a	n/a
2818.59	n/a	REC_WORD	1409295	wordpools/wasnorm_wordpool.txt	LTP147	ltpFR	5	14	1	CUP	424	n/a	n/a	0	n/a	n/a	n/a	n/a	n/a
2819.034	n/a	REC_WORD	1409517	wordpools/wasnorm_wordpool.txt	LTP147	ltpFR	5	14	1	WINE	1613	n/a	n/a	0	n/a	n/a	n/a	n/a	n/a
2821.054	n/a	REC_WORD	1410527	wordpools/wasnorm_wordpool.txt	LTP147	ltpFR	5	14	1	NUN	962	n/a	n/a	1	n/a	n/a	n/a	n/a	n/a
2821.668	n/a	REC_WORD	1410834	wordpools/wasnorm_wordpool.txt	LTP147	ltpFR	5	14	1	MONK	910	n/a	n/a	1	n/a	n/a	n/a	n/a	n/a
2822.866	n/a	REC_WORD	1411433	wordpools/wasnorm_wordpool.txt	LTP147	ltpFR	5	14	1	RECIPE	1175	n/a	n/a	0	n/a	n/a	n/a	n/a	n/a
2825.24	n/a	REC_WORD	1412620	wordpools/wasnorm_wordpool.txt	LTP147	ltpFR	5	14	1	PASTRY	1022	n/a	n/a	0	n/a	n/a	n/a	n/a	n/a
2826.302	n/a	REC_WORD	1413151	wordpools/wasnorm_wordpool.txt	LTP147	ltpFR	5	14	1	TOAST	1471	n/a	n/a	0	n/a	n/a	n/a	n/a	n/a
2829.724	n/a	REC_WORD	1414862	wordpools/wasnorm_wordpool.txt	LTP147	ltpFR	5	14	1	PAINTER	1004	n/a	n/a	1	n/a	n/a	n/a	n/a	n/a
2830.518	n/a	REC_WORD	1415259	wordpools/wasnorm_wordpool.txt	LTP147	ltpFR	5	14	1	NECKLACE	940	n/a	n/a	0	n/a	n/a	n/a	n/a	n/a
2831.666	n/a	REC_WORD	1415833	wordpools/wasnorm_wordpool.txt	LTP147	ltpFR	5	14	1	JEWEL	757	n/a	n/a	0	n/a	n/a	n/a	n/a	n/a
2837.338	n/a	REC_WORD	1418669	wordpools/wasnorm_wordpool.txt	LTP147	ltpFR	5	14	1	TURNIP	1521	n/a	n/a	1	n/a	n/a	n/a	n/a	n/a
2838.67	n/a	REC_WORD	1419335	wordpools/wasnorm_wordpool.txt	LTP147	ltpFR	5	14	1	DANDELION	438	n/a	n/a	1	n/a	n/a	n/a	n/a	n/a
2846.992	n/a	REC_WORD	1423496	wordpools/wasnorm_wordpool.txt	LTP147	ltpFR	5	14	1	NECKLACE	940	n/a	n/a	0	n/a	n/a	n/a	n/a	n/a
2852.894	n/a	REC_WORD	1426447	wordpools/wasnorm_wordpool.txt	LTP147	ltpFR	5	14	n/a	JEWELRY	-1	n/a	n/a	n/a	n/a	n/a	n/a	n/a	n/a
2862.482	n/a	REC_WORD	1431241	wordpools/wasnorm_wordpool.txt	LTP147	ltpFR	5	14	1	POTATO	1115	n/a	n/a	1	n/a	n/a	n/a	n/a	n/a
2865.052	n/a	REC_WORD	1432526	wordpools/wasnorm_wordpool.txt	LTP147	ltpFR	5	14	1	WINE	1613	n/a	n/a	0	n/a	n/a	n/a	n/a	n/a
2916.574	n/a	WORD	1458287	wordpools/wasnorm_wordpool.txt	LTP147	ltpFR	5	15	0	METEOR	889	n/a	n/a	1	0.57763671875	0.412841796875	1	lower	amplitud.ttf
2920.614	n/a	WORD	1460307	wordpools/wasnorm_wordpool.txt	LTP147	ltpFR	5	15	0	STAPLER	1372	n/a	n/a	0	0.57763671875	0.412841796875	1	lower	amplitud.ttf
2924.638	n/a	WORD	1462319	wordpools/wasnorm_wordpool.txt	LTP147	ltpFR	5	15	1	REPORT	1184	n/a	n/a	0	0.422607421875	0.5869140625	0	upper	zerothre.ttf
2928.594	n/a	WORD	1464297	wordpools/wasnorm_wordpool.txt	LTP147	ltpFR	5	15	1	DICE	461	n/a	n/a	0	0.422607421875	0.5869140625	0	upper	zerothre.ttf
2932.434	n/a	WORD	1466217	wordpools/wasnorm_wordpool.txt	LTP147	ltpFR	5	15	0	BUS	201	n/a	n/a	1	0.57763671875	0.412841796875	1	lower	amplitud.ttf
2936.56	n/a	WORD	1468280	wordpools/wasnorm_wordpool.txt	LTP147	ltpFR	5	15	0	BULLY	196	n/a	n/a	1	0.57763671875	0.412841796875	1	lower	amplitud.ttf
2940.542	n/a	WORD	1470271	wordpools/wasnorm_wordpool.txt	LTP147	ltpFR	5	15	1	BRUISE	180	n/a	n/a	0	0.422607421875	0.5869140625	0	upper	zerothre.ttf
2944.514	n/a	WORD	1472257	wordpools/wasnorm_wordpool.txt	LTP147	ltpFR	5	15	1	CREATURE	403	n/a	n/a	1	0.422607421875	0.5869140625	0	upper	zerothre.ttf
2948.564	n/a	WORD	1474282	wordpools/wasnorm_wordpool.txt	LTP147	ltpFR	5	15	1	OZONE	996	n/a	n/a	1	0.422607421875	0.5869140625	0	upper	zerothre.ttf
2952.512	n/a	WORD	1476256	wordpools/wasnorm_wordpool.txt	LTP147	ltpFR	5	15	1	JUGGLER	763	n/a	n/a	1	0.422607421875	0.5869140625	0	upper	zerothre.ttf
2956.404	n/a	WORD	1478202	wordpools/wasnorm_wordpool.txt	LTP147	ltpFR	5	15	1	WOLF	1619	n/a	n/a	1	0.422607421875	0.5869140625	0	upper	zerothre.ttf
2960.244	n/a	WORD	1480122	wordpools/wasnorm_wordpool.txt	LTP147	ltpFR	5	15	1	PRUNE	1134	n/a	n/a	0	0.422607421875	0.5869140625	0	upper	zerothre.ttf
2964.358	n/a	WORD	1482179	wordpools/wasnorm_wordpool.txt	LTP147	ltpFR	5	15	0	APPLE	33	n/a	n/a	0	0.57763671875	0.412841796875	1	lower	amplitud.ttf
2968.258	n/a	WORD	1484129	wordpools/wasnorm_wordpool.txt	LTP147	ltpFR	5	15	0	SPACE	1345	n/a	n/a	1	0.57763671875	0.412841796875	1	lower	amplitud.ttf
2972.456	n/a	WORD	1486228	wordpools/wasnorm_wordpool.txt	LTP147	ltpFR	5	15	0	BRUNETTE	181	n/a	n/a	0	0.57763671875	0.412841796875	1	lower	amplitud.ttf
2976.322	n/a	WORD	1488161	wordpools/wasnorm_wordpool.txt	LTP147	ltpFR	5	15	0	CRYSTAL	418	n/a	n/a	0	0.57763671875	0.412841796875	1	lower	amplitud.ttf
2982.336	n/a	REC_START	1491168	n/a	LTP147	ltpFR	5	15	n/a	n/a	n/a	n/a	n/a	n/a	n/a	n/a	n/a	n/a	n/a
2983.568	n/a	REC_WORD	1491784	wordpools/wasnorm_wordpool.txt	LTP147	ltpFR	5	15	0	BRUNETTE	181	n/a	n/a	0	n/a	n/a	n/a	n/a	n/a
2984.272	n/a	REC_WORD	1492136	wordpools/wasnorm_wordpool.txt	LTP147	ltpFR	5	15	0	CRYSTAL	418	n/a	n/a	0	n/a	n/a	n/a	n/a	n/a
2985.958	n/a	REC_WORD	1492979	wordpools/wasnorm_wordpool.txt	LTP147	ltpFR	5	15	0	SPACE	1345	n/a	n/a	1	n/a	n/a	n/a	n/a	n/a
2987.514	n/a	REC_WORD	1493757	wordpools/wasnorm_wordpool.txt	LTP147	ltpFR	5	15	1	OZONE	996	n/a	n/a	1	n/a	n/a	n/a	n/a	n/a
2988.372	n/a	REC_WORD	1494186	wordpools/wasnorm_wordpool.txt	LTP147	ltpFR	5	15	1	ATMOSPHERE	54	n/a	n/a	1	n/a	n/a	n/a	n/a	n/a
2992.664	n/a	REC_WORD	1496332	wordpools/wasnorm_wordpool.txt	LTP147	ltpFR	5	15	0	METEOR	889	n/a	n/a	1	n/a	n/a	n/a	n/a	n/a
2994.678	n/a	REC_WORD	1497339	wordpools/wasnorm_wordpool.txt	LTP147	ltpFR	5	15	0	STAPLER	1372	n/a	n/a	0	n/a	n/a	n/a	n/a	n/a
3002.152	n/a	REC_WORD	1501076	wordpools/wasnorm_wordpool.txt	LTP147	ltpFR	5	15	1	WOLF	1619	n/a	n/a	1	n/a	n/a	n/a	n/a	n/a
3003.06	n/a	REC_WORD	1501530	wordpools/wasnorm_wordpool.txt	LTP147	ltpFR	5	15	1	JUGGLER	763	n/a	n/a	1	n/a	n/a	n/a	n/a	n/a
3005.4	n/a	REC_WORD	1502700	wordpools/wasnorm_wordpool.txt	LTP147	ltpFR	5	15	0	BUS	201	n/a	n/a	1	n/a	n/a	n/a	n/a	n/a
3006.422	n/a	REC_WORD	1503211	wordpools/wasnorm_wordpool.txt	LTP147	ltpFR	5	15	0	BULLY	196	n/a	n/a	1	n/a	n/a	n/a	n/a	n/a
3007.63	n/a	REC_WORD	1503815	wordpools/wasnorm_wordpool.txt	LTP147	ltpFR	5	15	1	BRUISE	180	n/a	n/a	0	n/a	n/a	n/a	n/a	n/a
3033.858	n/a	REC_WORD	1516929	wordpools/wasnorm_wordpool.txt	LTP147	ltpFR	5	15	1	ATMOSPHERE	54	n/a	n/a	1	n/a	n/a	n/a	n/a	n/a
3099.9	n/a	WORD	1549950	wordpools/wasnorm_wordpool.txt	LTP147	ltpFR	5	16	1	PILOT	1070	n/a	n/a	1	0.422607421875	0.5869140625	0	upper	zerothre.ttf
3103.734	n/a	WORD	1551867	wordpools/wasnorm_wordpool.txt	LTP147	ltpFR	5	16	1	BEAN	105	n/a	n/a	1	0.422607421875	0.5869140625	0	upper	zerothre.ttf
3107.658	n/a	WORD	1553829	wordpools/wasnorm_wordpool.txt	LTP147	ltpFR	5	16	1	CASHEW	253	n/a	n/a	1	0.422607421875	0.5869140625	0	upper	zerothre.ttf
3111.806	n/a	WORD	1555903	wordpools/wasnorm_wordpool.txt	LTP147	ltpFR	5	16	1	ROCK	1201	n/a	n/a	0	0.422607421875	0.5869140625	0	upper	zerothre.ttf
3115.646	n/a	WORD	1557823	wordpools/wasnorm_wordpool.txt	LTP147	ltpFR	5	16	1	ALLEY	15	n/a	n/a	0	0.422607421875	0.5869140625	0	upper	zerothre.ttf
3119.662	n/a	WORD	1559831	wordpools/wasnorm_wordpool.txt	LTP147	ltpFR	5	16	1	SHARK	1275	n/a	n/a	1	0.422607421875	0.5869140625	0	upper	zerothre.ttf
3123.836	n/a	WORD	1561918	wordpools/wasnorm_wordpool.txt	LTP147	ltpFR	5	16	1	TROUT	1511	n/a	n/a	1	0.422607421875	0.5869140625	0	upper	zerothre.ttf
3128.034	n/a	WORD	1564017	wordpools/wasnorm_wordpool.txt	LTP147	ltpFR	5	16	1	DINOSAUR	469	n/a	n/a	1	0.422607421875	0.5869140625	0	upper	zerothre.ttf
3132.016	n/a	WORD	1566008	wordpools/wasnorm_wordpool.txt	LTP147	ltpFR	5	16	1	RAT	1169	n/a	n/a	1	0.422607421875	0.5869140625	0	upper	zerothre.ttf
3136.04	n/a	WORD	1568020	wordpools/wasnorm_wordpool.txt	LTP147	ltpFR	5	16	1	BOLT	146	n/a	n/a	0	0.422607421875	0.5869140625	0	upper	zerothre.ttf
3140.248	n/a	WORD	1570124	wordpools/wasnorm_wordpool.txt	LTP147	ltpFR	5	16	1	ASSISTANT	48	n/a	n/a	1	0.422607421875	0.5869140625	0	upper	zerothre.ttf
3144.18	n/a	WORD	1572090	wordpools/wasnorm_wordpool.txt	LTP147	ltpFR	5	16	1	DOUGHNUT	490	n/a	n/a	0	0.422607421875	0.5869140625	0	upper	zerothre.ttf
3148.278	n/a	WORD	1574139	wordpools/wasnorm_wordpool.txt	LTP147	ltpFR	5	16	1	SHORTCAKE	1292	n/a	n/a	1	0.422607421875	0.5869140625	0	upper	zerothre.ttf
3152.286	n/a	WORD	1576143	wordpools/wasnorm_wordpool.txt	LTP147	ltpFR	5	16	1	SHOP	1290	n/a	n/a	0	0.422607421875	0.5869140625	0	upper	zerothre.ttf
3156.25	n/a	WORD	1578125	wordpools/wasnorm_wordpool.txt	LTP147	ltpFR	5	16	1	RECEIPT	1173	n/a	n/a	0	0.422607421875	0.5869140625	0	upper	zerothre.ttf
3160.35	n/a	WORD	1580175	wordpools/wasnorm_wordpool.txt	LTP147	ltpFR	5	16	1	RECEPTIONIST	1174	n/a	n/a	1	0.422607421875	0.5869140625	0	upper	zerothre.ttf
3166.19	n/a	REC_START	1583095	n/a	LTP147	ltpFR	5	16	n/a	n/a	n/a	n/a	n/a	n/a	n/a	n/a	n/a	n/a	n/a
3166.754	n/a	REC_WORD	1583377	wordpools/wasnorm_wordpool.txt	LTP147	ltpFR	5	16	1	RECEPTIONIST	1174	n/a	n/a	1	n/a	n/a	n/a	n/a	n/a
3167.75	n/a	REC_WORD	1583875	wordpools/wasnorm_wordpool.txt	LTP147	ltpFR	5	16	1	RECEIPT	1173	n/a	n/a	0	n/a	n/a	n/a	n/a	n/a
3168.528	n/a	REC_WORD	1584264	wordpools/wasnorm_wordpool.txt	LTP147	ltpFR	5	16	1	SHOP	1290	n/a	n/a	0	n/a	n/a	n/a	n/a	n/a
3169.212	n/a	REC_WORD	1584606	wordpools/wasnorm_wordpool.txt	LTP147	ltpFR	5	16	1	SHORTCAKE	1292	n/a	n/a	1	n/a	n/a	n/a	n/a	n/a
3170.784	n/a	REC_WORD	1585392	wordpools/wasnorm_wordpool.txt	LTP147	ltpFR	5	16	1	DOUGHNUT	490	n/a	n/a	0	n/a	n/a	n/a	n/a	n/a
3171.322	n/a	REC_WORD	1585661	wordpools/wasnorm_wordpool.txt	LTP147	ltpFR	5	16	1	ASSISTANT	48	n/a	n/a	1	n/a	n/a	n/a	n/a	n/a
3174.45	n/a	REC_WORD	1587225	wordpools/wasnorm_wordpool.txt	LTP147	ltpFR	5	16	1	DINOSAUR	469	n/a	n/a	1	n/a	n/a	n/a	n/a	n/a
3175.26	n/a	REC_WORD	1587630	wordpools/wasnorm_wordpool.txt	LTP147	ltpFR	5	16	1	RAT	1169	n/a	n/a	1	n/a	n/a	n/a	n/a	n/a
3181.804	n/a	REC_WORD	1590902	wordpools/wasnorm_wordpool.txt	LTP147	ltpFR	5	16	1	SHARK	1275	n/a	n/a	1	n/a	n/a	n/a	n/a	n/a
3182.748	n/a	REC_WORD	1591374	wordpools/wasnorm_wordpool.txt	LTP147	ltpFR	5	16	1	TROUT	1511	n/a	n/a	1	n/a	n/a	n/a	n/a	n/a
3206.994	n/a	REC_WORD	1603497	wordpools/wasnorm_wordpool.txt	LTP147	ltpFR	5	16	1	ALLEY	15	n/a	n/a	0	n/a	n/a	n/a	n/a	n/a
3211.004	n/a	REC_WORD	1605502	wordpools/wasnorm_wordpool.txt	LTP147	ltpFR	5	16	0	APPLE	33	n/a	n/a	0	n/a	n/a	n/a	n/a	n/a
3269.076	n/a	REC_START	1634538	n/a	LTP147	ltpFR	5	1	n/a	n/a	n/a	n/a	n/a	n/a	n/a	n/a	n/a	n/a	n/a
3269.108	n/a	RECOG_LURE	1634554	n/a	LTP147	ltpFR	5	1	n/a	SHEEP	1278	0	5	n/a	n/a	n/a	n/a	n/a	n/a
3270.284	n/a	RECOG_RESP	1635142	n/a	LTP147	ltpFR	5	1	n/a	SHEEP	1278	0	n/a	n/a	n/a	n/a	n/a	n/a	n/a
3271.942	n/a	RECOG_CONF	1635971	n/a	LTP147	ltpFR	5	1	n/a	SHEEP	1278	n/a	5	n/a	n/a	n/a	n/a	n/a	n/a
3273.548	n/a	RECOG_LURE	1636774	n/a	LTP147	ltpFR	5	1	n/a	VINE	1568	0	4	n/a	n/a	n/a	n/a	n/a	n/a
3274.492	n/a	RECOG_RESP	1637246	n/a	LTP147	ltpFR	5	1	n/a	VINE	1568	0	n/a	n/a	n/a	n/a	n/a	n/a	n/a
3275.486	n/a	RECOG_CONF	1637743	n/a	LTP147	ltpFR	5	1	n/a	VINE	1568	n/a	4	n/a	n/a	n/a	n/a	n/a	n/a
3276.914	n/a	RECOG_LURE	1638457	n/a	LTP147	ltpFR	5	1	n/a	SUIT	1402	0	4	n/a	n/a	n/a	n/a	n/a	n/a
3277.672	n/a	RECOG_RESP	1638836	n/a	LTP147	ltpFR	5	1	n/a	SUIT	1402	0	n/a	n/a	n/a	n/a	n/a	n/a	n/a
3278.58	n/a	RECOG_CONF	1639290	n/a	LTP147	ltpFR	5	1	n/a	SUIT	1402	n/a	4	n/a	n/a	n/a	n/a	n/a	n/a
3280.046	n/a	RECOG_TARGET	1640023	n/a	LTP147	ltpFR	5	1	1	CRITIC	410	1	5	1	n/a	n/a	n/a	n/a	n/a
3281.434	n/a	RECOG_RESP	1640717	n/a	LTP147	ltpFR	5	1	1	CRITIC	410	1	n/a	1	n/a	n/a	n/a	n/a	n/a
3282.31	n/a	RECOG_CONF	1641155	n/a	LTP147	ltpFR	5	1	1	CRITIC	410	n/a	5	1	n/a	n/a	n/a	n/a	n/a
3283.846	n/a	RECOG_TARGET	1641923	n/a	LTP147	ltpFR	5	1	-1	THERMOMETER	1453	1	4	-1	n/a	n/a	n/a	n/a	n/a
3284.822	n/a	RECOG_RESP	1642411	n/a	LTP147	ltpFR	5	1	-1	THERMOMETER	1453	1	n/a	-1	n/a	n/a	n/a	n/a	n/a
3285.704	n/a	RECOG_CONF	1642852	n/a	LTP147	ltpFR	5	1	-1	THERMOMETER	1453	n/a	4	-1	n/a	n/a	n/a	n/a	n/a
3287.144	n/a	RECOG_TARGET	1643572	n/a	LTP147	ltpFR	5	1	1	WINE	1613	1	5	0	n/a	n/a	n/a	n/a	n/a
3287.918	n/a	RECOG_RESP	1643959	n/a	LTP147	ltpFR	5	1	1	WINE	1613	1	n/a	0	n/a	n/a	n/a	n/a	n/a
3288.684	n/a	RECOG_CONF	1644342	n/a	LTP147	ltpFR	5	1	1	WINE	1613	n/a	5	0	n/a	n/a	n/a	n/a	n/a
3290.11	n/a	RECOG_TARGET	1645055	n/a	LTP147	ltpFR	5	1	1	DICE	461	1	5	0	n/a	n/a	n/a	n/a	n/a
3290.79	n/a	RECOG_RESP	1645395	n/a	LTP147	ltpFR	5	1	1	DICE	461	1	n/a	0	n/a	n/a	n/a	n/a	n/a
3291.524	n/a	RECOG_CONF	1645762	n/a	LTP147	ltpFR	5	1	1	DICE	461	n/a	5	0	n/a	n/a	n/a	n/a	n/a
3292.976	n/a	RECOG_TARGET	1646488	n/a	LTP147	ltpFR	5	1	1	REPTILE	1185	1	5	1	n/a	n/a	n/a	n/a	n/a
3293.646	n/a	RECOG_RESP	1646823	n/a	LTP147	ltpFR	5	1	1	REPTILE	1185	1	n/a	1	n/a	n/a	n/a	n/a	n/a
3294.364	n/a	RECOG_CONF	1647182	n/a	LTP147	ltpFR	5	1	1	REPTILE	1185	n/a	5	1	n/a	n/a	n/a	n/a	n/a
3295.726	n/a	RECOG_TARGET	1647863	n/a	LTP147	ltpFR	5	1	0	FOREST	593	1	5	1	n/a	n/a	n/a	n/a	n/a
3296.396	n/a	RECOG_RESP	1648198	n/a	LTP147	ltpFR	5	1	0	FOREST	593	1	n/a	1	n/a	n/a	n/a	n/a	n/a
3297.144	n/a	RECOG_CONF	1648572	n/a	LTP147	ltpFR	5	1	0	FOREST	593	n/a	5	1	n/a	n/a	n/a	n/a	n/a
3298.45	n/a	RECOG_TARGET	1649225	n/a	LTP147	ltpFR	5	1	-1	BIRD	129	0	3	-1	n/a	n/a	n/a	n/a	n/a
3299.21	n/a	RECOG_RESP	1649605	n/a	LTP147	ltpFR	5	1	-1	BIRD	129	0	n/a	-1	n/a	n/a	n/a	n/a	n/a
3299.98	n/a	RECOG_CONF	1649990	n/a	LTP147	ltpFR	5	1	-1	BIRD	129	n/a	3	-1	n/a	n/a	n/a	n/a	n/a
3301.166	n/a	RECOG_TARGET	1650583	n/a	LTP147	ltpFR	5	1	-1	GANGSTER	620	1	5	-1	n/a	n/a	n/a	n/a	n/a
3302.014	n/a	RECOG_RESP	1651007	n/a	LTP147	ltpFR	5	1	-1	GANGSTER	620	1	n/a	-1	n/a	n/a	n/a	n/a	n/a
3302.718	n/a	RECOG_CONF	1651359	n/a	LTP147	ltpFR	5	1	-1	GANGSTER	620	n/a	5	-1	n/a	n/a	n/a	n/a	n/a
3304.072	n/a	RECOG_TARGET	1652036	n/a	LTP147	ltpFR	5	1	0	SLEEVE	1324	1	5	0	n/a	n/a	n/a	n/a	n/a
3304.726	n/a	RECOG_RESP	1652363	n/a	LTP147	ltpFR	5	1	0	SLEEVE	1324	1	n/a	0	n/a	n/a	n/a	n/a	n/a
3305.438	n/a	RECOG_CONF	1652719	n/a	LTP147	ltpFR	5	1	0	SLEEVE	1324	n/a	5	0	n/a	n/a	n/a	n/a	n/a
3306.804	n/a	RECOG_LURE	1653402	n/a	LTP147	ltpFR	5	1	n/a	ASHTRAY	45	0	5	n/a	n/a	n/a	n/a	n/a	n/a
3307.61	n/a	RECOG_RESP	1653805	n/a	LTP147	ltpFR	5	1	n/a	ASHTRAY	45	0	n/a	n/a	n/a	n/a	n/a	n/a	n/a
3308.21	n/a	RECOG_CONF	1654105	n/a	LTP147	ltpFR	5	1	n/a	ASHTRAY	45	n/a	5	n/a	n/a	n/a	n/a	n/a	n/a
3309.646	n/a	RECOG_TARGET	1654823	n/a	LTP147	ltpFR	5	1	1	PICKLE	1059	1	5	1	n/a	n/a	n/a	n/a	n/a
3310.34	n/a	RECOG_RESP	1655170	n/a	LTP147	ltpFR	5	1	1	PICKLE	1059	1	n/a	1	n/a	n/a	n/a	n/a	n/a
3311.04	n/a	RECOG_CONF	1655520	n/a	LTP147	ltpFR	5	1	1	PICKLE	1059	n/a	5	1	n/a	n/a	n/a	n/a	n/a
3312.488	n/a	RECOG_TARGET	1656244	n/a	LTP147	ltpFR	5	1	1	SCIENTIST	1249	1	5	1	n/a	n/a	n/a	n/a	n/a
3313.132	n/a	RECOG_RESP	1656566	n/a	LTP147	ltpFR	5	1	1	SCIENTIST	1249	1	n/a	1	n/a	n/a	n/a	n/a	n/a
3313.844	n/a	RECOG_CONF	1656922	n/a	LTP147	ltpFR	5	1	1	SCIENTIST	1249	n/a	5	1	n/a	n/a	n/a	n/a	n/a
3315.036	n/a	RECOG_TARGET	1657518	n/a	LTP147	ltpFR	5	1	1	SHOULDER	1294	1	5	0	n/a	n/a	n/a	n/a	n/a
3315.782	n/a	RECOG_RESP	1657891	n/a	LTP147	ltpFR	5	1	1	SHOULDER	1294	1	n/a	0	n/a	n/a	n/a	n/a	n/a
3316.466	n/a	RECOG_CONF	1658233	n/a	LTP147	ltpFR	5	1	1	SHOULDER	1294	n/a	5	0	n/a	n/a	n/a	n/a	n/a
3317.676	n/a	RECOG_LURE	1658838	n/a	LTP147	ltpFR	5	1	n/a	RUM	1217	0	4	n/a	n/a	n/a	n/a	n/a	n/a
3318.276	n/a	RECOG_RESP_VV	1659138	n/a	LTP147	ltpFR	5	1	n/a	RUM	1217	1	n/a	n/a	n/a	n/a	n/a	n/a	n/a
3319.414	n/a	RECOG_RESP	1659707	n/a	LTP147	ltpFR	5	1	n/a	RUM	1217	0	n/a	n/a	n/a	n/a	n/a	n/a	n/a
3320.496	n/a	RECOG_CONF	1660248	n/a	LTP147	ltpFR	5	1	n/a	RUM	1217	n/a	4	n/a	n/a	n/a	n/a	n/a	n/a
3321.818	n/a	RECOG_TARGET	1660909	n/a	LTP147	ltpFR	5	1	0	ATTIC	56	1	5	1	n/a	n/a	n/a	n/a	n/a
3322.588	n/a	RECOG_RESP	1661294	n/a	LTP147	ltpFR	5	1	0	ATTIC	56	1	n/a	1	n/a	n/a	n/a	n/a	n/a
3323.256	n/a	RECOG_CONF	1661628	n/a	LTP147	ltpFR	5	1	0	ATTIC	56	n/a	5	1	n/a	n/a	n/a	n/a	n/a
3324.666	n/a	RECOG_LURE	1662333	n/a	LTP147	ltpFR	5	1	n/a	FROST	609	0	5	n/a	n/a	n/a	n/a	n/a	n/a
3325.338	n/a	RECOG_RESP	1662669	n/a	LTP147	ltpFR	5	1	n/a	FROST	609	0	n/a	n/a	n/a	n/a	n/a	n/a	n/a
3326.07	n/a	RECOG_CONF	1663035	n/a	LTP147	ltpFR	5	1	n/a	FROST	609	n/a	5	n/a	n/a	n/a	n/a	n/a	n/a
3327.516	n/a	RECOG_LURE	1663758	n/a	LTP147	ltpFR	5	1	n/a	STOCKING	1383	0	5	n/a	n/a	n/a	n/a	n/a	n/a
3328.458	n/a	RECOG_RESP	1664229	n/a	LTP147	ltpFR	5	1	n/a	STOCKING	1383	0	n/a	n/a	n/a	n/a	n/a	n/a	n/a
3329.008	n/a	RECOG_CONF	1664504	n/a	LTP147	ltpFR	5	1	n/a	STOCKING	1383	n/a	5	n/a	n/a	n/a	n/a	n/a	n/a
3336.674	n/a	REC_START	1668337	n/a	LTP147	ltpFR	5	2	n/a	n/a	n/a	n/a	n/a	n/a	n/a	n/a	n/a	n/a	n/a
3336.704	n/a	RECOG_TARGET	1668352	n/a	LTP147	ltpFR	5	2	0	TUSK	1523	1	5	0	n/a	n/a	n/a	n/a	n/a
3337.52	n/a	RECOG_RESP	1668760	n/a	LTP147	ltpFR	5	2	0	TUSK	1523	1	n/a	0	n/a	n/a	n/a	n/a	n/a
3338.256	n/a	RECOG_RESP_VV	1669128	n/a	LTP147	ltpFR	5	2	0	TUSK	1523	n/a	5	0	n/a	n/a	n/a	n/a	n/a
3339.204	n/a	RECOG_CONF	1669602	n/a	LTP147	ltpFR	5	2	0	TUSK	1523	n/a	5	0	n/a	n/a	n/a	n/a	n/a
3340.186	n/a	RECOG_LURE	1670093	n/a	LTP147	ltpFR	5	2	n/a	TAG	1429	0	5	n/a	n/a	n/a	n/a	n/a	n/a
3341.666	n/a	RECOG_RESP	1670833	n/a	LTP147	ltpFR	5	2	n/a	TAG	1429	0	n/a	n/a	n/a	n/a	n/a	n/a	n/a
3342.702	n/a	RECOG_CONF	1671351	n/a	LTP147	ltpFR	5	2	n/a	TAG	1429	n/a	5	n/a	n/a	n/a	n/a	n/a	n/a
3344.36	n/a	RECOG_TARGET	1672180	n/a	LTP147	ltpFR	5	2	1	PEAR	1033	1	5	0	n/a	n/a	n/a	n/a	n/a
3345.26	n/a	RECOG_RESP	1672630	n/a	LTP147	ltpFR	5	2	1	PEAR	1033	1	n/a	0	n/a	n/a	n/a	n/a	n/a
3346.162	n/a	RECOG_CONF	1673081	n/a	LTP147	ltpFR	5	2	1	PEAR	1033	n/a	5	0	n/a	n/a	n/a	n/a	n/a
3347.96	n/a	RECOG_TARGET	1673980	n/a	LTP147	ltpFR	5	2	1	RECEIPT	1173	1	5	0	n/a	n/a	n/a	n/a	n/a
3348.798	n/a	RECOG_RESP	1674399	n/a	LTP147	ltpFR	5	2	1	RECEIPT	1173	1	n/a	0	n/a	n/a	n/a	n/a	n/a
3349.57	n/a	RECOG_CONF	1674785	n/a	LTP147	ltpFR	5	2	1	RECEIPT	1173	n/a	5	0	n/a	n/a	n/a	n/a	n/a
3350.992	n/a	RECOG_TARGET	1675496	n/a	LTP147	ltpFR	5	2	1	CALCULATOR	220	1	5	0	n/a	n/a	n/a	n/a	n/a
3351.718	n/a	RECOG_RESP	1675859	n/a	LTP147	ltpFR	5	2	1	CALCULATOR	220	1	n/a	0	n/a	n/a	n/a	n/a	n/a
3352.542	n/a	RECOG_CONF	1676271	n/a	LTP147	ltpFR	5	2	1	CALCULATOR	220	n/a	5	0	n/a	n/a	n/a	n/a	n/a
3353.958	n/a	RECOG_TARGET	1676979	n/a	LTP147	ltpFR	5	2	0	LIPSTICK	829	1	5	0	n/a	n/a	n/a	n/a	n/a
3355.118	n/a	RECOG_RESP	1677559	n/a	LTP147	ltpFR	5	2	0	LIPSTICK	829	1	n/a	0	n/a	n/a	n/a	n/a	n/a
3355.886	n/a	RECOG_CONF	1677943	n/a	LTP147	ltpFR	5	2	0	LIPSTICK	829	n/a	5	0	n/a	n/a	n/a	n/a	n/a
3357.732	n/a	RECOG_TARGET	1678866	n/a	LTP147	ltpFR	5	2	1	SHORTCAKE	1292	1	5	1	n/a	n/a	n/a	n/a	n/a
3358.592	n/a	RECOG_RESP	1679296	n/a	LTP147	ltpFR	5	2	1	SHORTCAKE	1292	1	n/a	1	n/a	n/a	n/a	n/a	n/a
3359.392	n/a	RECOG_CONF	1679696	n/a	LTP147	ltpFR	5	2	1	SHORTCAKE	1292	n/a	5	1	n/a	n/a	n/a	n/a	n/a
3360.672	n/a	RECOG_TARGET	1680336	n/a	LTP147	ltpFR	5	2	1	COWBOY	395	1	5	1	n/a	n/a	n/a	n/a	n/a
3361.292	n/a	RECOG_RESP	1680646	n/a	LTP147	ltpFR	5	2	1	COWBOY	395	1	n/a	1	n/a	n/a	n/a	n/a	n/a
3362.116	n/a	RECOG_CONF	1681058	n/a	LTP147	ltpFR	5	2	1	COWBOY	395	n/a	5	1	n/a	n/a	n/a	n/a	n/a
3363.288	n/a	RECOG_LURE	1681644	n/a	LTP147	ltpFR	5	2	n/a	SOCK	1339	1	4	n/a	n/a	n/a	n/a	n/a	n/a
3364.208	n/a	RECOG_RESP	1682104	n/a	LTP147	ltpFR	5	2	n/a	SOCK	1339	1	n/a	n/a	n/a	n/a	n/a	n/a	n/a
3365.086	n/a	RECOG_CONF	1682543	n/a	LTP147	ltpFR	5	2	n/a	SOCK	1339	n/a	4	n/a	n/a	n/a	n/a	n/a	n/a
3366.304	n/a	RECOG_TARGET	1683152	n/a	LTP147	ltpFR	5	2	1	RANCH	1166	1	5	0	n/a	n/a	n/a	n/a	n/a
3367.338	n/a	RECOG_RESP	1683669	n/a	LTP147	ltpFR	5	2	1	RANCH	1166	1	n/a	0	n/a	n/a	n/a	n/a	n/a
3368.06	n/a	RECOG_CONF	1684030	n/a	LTP147	ltpFR	5	2	1	RANCH	1166	n/a	5	0	n/a	n/a	n/a	n/a	n/a
3369.494	n/a	RECOG_LURE	1684747	n/a	LTP147	ltpFR	5	2	n/a	FINGER	567	1	2	n/a	n/a	n/a	n/a	n/a	n/a
3370.496	n/a	RECOG_RESP	1685248	n/a	LTP147	ltpFR	5	2	n/a	FINGER	567	1	n/a	n/a	n/a	n/a	n/a	n/a	n/a
3371.44	n/a	RECOG_CONF	1685720	n/a	LTP147	ltpFR	5	2	n/a	FINGER	567	n/a	2	n/a	n/a	n/a	n/a	n/a	n/a
3372.902	n/a	RECOG_TARGET	1686451	n/a	LTP147	ltpFR	5	2	-1	COCKTAIL	338	0	5	-1	n/a	n/a	n/a	n/a	n/a
3374.066	n/a	RECOG_RESP	1687033	n/a	LTP147	ltpFR	5	2	-1	COCKTAIL	338	0	n/a	-1	n/a	n/a	n/a	n/a	n/a
3374.798	n/a	RECOG_CONF	1687399	n/a	LTP147	ltpFR	5	2	-1	COCKTAIL	338	n/a	5	-1	n/a	n/a	n/a	n/a	n/a
3376.542	n/a	RECOG_TARGET	1688271	n/a	LTP147	ltpFR	5	2	-1	LIST	830	1	5	-1	n/a	n/a	n/a	n/a	n/a
3377.83	n/a	RECOG_RESP	1688915	n/a	LTP147	ltpFR	5	2	-1	LIST	830	1	n/a	-1	n/a	n/a	n/a	n/a	n/a
3378.378	n/a	RECOG_CONF	1689189	n/a	LTP147	ltpFR	5	2	-1	LIST	830	n/a	5	-1	n/a	n/a	n/a	n/a	n/a
3380.09	n/a	RECOG_TARGET	1690045	n/a	LTP147	ltpFR	5	2	-1	KEYBOARD	774	1	5	-1	n/a	n/a	n/a	n/a	n/a
3380.728	n/a	RECOG_RESP	1690364	n/a	LTP147	ltpFR	5	2	-1	KEYBOARD	774	1	n/a	-1	n/a	n/a	n/a	n/a	n/a
3381.594	n/a	RECOG_CONF	1690797	n/a	LTP147	ltpFR	5	2	-1	KEYBOARD	774	n/a	5	-1	n/a	n/a	n/a	n/a	n/a
3383.664	n/a	RECOG_TARGET	1691832	n/a	LTP147	ltpFR	5	2	0	BULLY	196	1	5	1	n/a	n/a	n/a	n/a	n/a
3384.352	n/a	RECOG_RESP	1692176	n/a	LTP147	ltpFR	5	2	0	BULLY	196	1	n/a	1	n/a	n/a	n/a	n/a	n/a
3385.188	n/a	RECOG_CONF	1692594	n/a	LTP147	ltpFR	5	2	0	BULLY	196	n/a	5	1	n/a	n/a	n/a	n/a	n/a
3386.922	n/a	RECOG_TARGET	1693461	n/a	LTP147	ltpFR	5	2	0	WINNER	1615	1	5	1	n/a	n/a	n/a	n/a	n/a
3387.63	n/a	RECOG_RESP	1693815	n/a	LTP147	ltpFR	5	2	0	WINNER	1615	1	n/a	1	n/a	n/a	n/a	n/a	n/a
3388.644	n/a	RECOG_CONF	1694322	n/a	LTP147	ltpFR	5	2	0	WINNER	1615	n/a	5	1	n/a	n/a	n/a	n/a	n/a
3389.964	n/a	RECOG_LURE	1694982	n/a	LTP147	ltpFR	5	2	n/a	SNEAKER	1334	0	5	n/a	n/a	n/a	n/a	n/a	n/a
3390.93	n/a	RECOG_RESP	1695465	n/a	LTP147	ltpFR	5	2	n/a	SNEAKER	1334	0	n/a	n/a	n/a	n/a	n/a	n/a	n/a
3391.782	n/a	RECOG_CONF	1695891	n/a	LTP147	ltpFR	5	2	n/a	SNEAKER	1334	n/a	5	n/a	n/a	n/a	n/a	n/a	n/a
3393.138	n/a	RECOG_TARGET	1696569	n/a	LTP147	ltpFR	5	2	0	SPACE	1345	1	5	1	n/a	n/a	n/a	n/a	n/a
3394.056	n/a	RECOG_RESP	1697028	n/a	LTP147	ltpFR	5	2	0	SPACE	1345	1	n/a	1	n/a	n/a	n/a	n/a	n/a
3394.826	n/a	RECOG_CONF	1697413	n/a	LTP147	ltpFR	5	2	0	SPACE	1345	n/a	5	1	n/a	n/a	n/a	n/a	n/a
3396.352	n/a	RECOG_TARGET	1698176	n/a	LTP147	ltpFR	5	2	1	BANJO	82	1	5	0	n/a	n/a	n/a	n/a	n/a
3397.13	n/a	RECOG_RESP	1698565	n/a	LTP147	ltpFR	5	2	1	BANJO	82	1	n/a	0	n/a	n/a	n/a	n/a	n/a
3398.004	n/a	RECOG_CONF	1699002	n/a	LTP147	ltpFR	5	2	1	BANJO	82	n/a	5	0	n/a	n/a	n/a	n/a	n/a
3399.076	n/a	RECOG_TARGET	1699538	n/a	LTP147	ltpFR	5	2	-1	TRICYCLE	1506	1	5	-1	n/a	n/a	n/a	n/a	n/a
3399.884	n/a	RECOG_RESP	1699942	n/a	LTP147	ltpFR	5	2	-1	TRICYCLE	1506	1	n/a	-1	n/a	n/a	n/a	n/a	n/a
3400.662	n/a	RECOG_CONF	1700331	n/a	LTP147	ltpFR	5	2	-1	TRICYCLE	1506	n/a	5	-1	n/a	n/a	n/a	n/a	n/a
3412.538	n/a	REC_START	1706269	n/a	LTP147	ltpFR	5	3	n/a	n/a	n/a	n/a	n/a	n/a	n/a	n/a	n/a	n/a	n/a
3412.574	n/a	RECOG_TARGET	1706287	n/a	LTP147	ltpFR	5	3	0	PAPER	1011	1	5	0	n/a	n/a	n/a	n/a	n/a
3413.56	n/a	RECOG_RESP	1706780	n/a	LTP147	ltpFR	5	3	0	PAPER	1011	1	n/a	0	n/a	n/a	n/a	n/a	n/a
3414.418	n/a	RECOG_CONF	1707209	n/a	LTP147	ltpFR	5	3	0	PAPER	1011	n/a	5	0	n/a	n/a	n/a	n/a	n/a
3415.588	n/a	RECOG_LURE	1707794	n/a	LTP147	ltpFR	5	3	n/a	EMPLOYEE	531	1	5	n/a	n/a	n/a	n/a	n/a	n/a
3416.162	n/a	RECOG_RESP	1708081	n/a	LTP147	ltpFR	5	3	n/a	EMPLOYEE	531	1	n/a	n/a	n/a	n/a	n/a	n/a	n/a
3416.782	n/a	RECOG_CONF	1708391	n/a	LTP147	ltpFR	5	3	n/a	EMPLOYEE	531	n/a	5	n/a	n/a	n/a	n/a	n/a	n/a
3418.146	n/a	RECOG_LURE	1709073	n/a	LTP147	ltpFR	5	3	n/a	NAIL	936	1	4	n/a	n/a	n/a	n/a	n/a	n/a
3418.66	n/a	RECOG_RESP	1709330	n/a	LTP147	ltpFR	5	3	n/a	NAIL	936	1	n/a	n/a	n/a	n/a	n/a	n/a	n/a
3419.394	n/a	RECOG_CONF	1709697	n/a	LTP147	ltpFR	5	3	n/a	NAIL	936	n/a	4	n/a	n/a	n/a	n/a	n/a	n/a
3420.796	n/a	RECOG_LURE	1710398	n/a	LTP147	ltpFR	5	3	n/a	UNIVERSITY	1541	0	4	n/a	n/a	n/a	n/a	n/a	n/a
3421.514	n/a	RECOG_RESP	1710757	n/a	LTP147	ltpFR	5	3	n/a	UNIVERSITY	1541	0	n/a	n/a	n/a	n/a	n/a	n/a	n/a
3422.218	n/a	RECOG_CONF	1711109	n/a	LTP147	ltpFR	5	3	n/a	UNIVERSITY	1541	n/a	4	n/a	n/a	n/a	n/a	n/a	n/a
3423.462	n/a	RECOG_TARGET	1711731	n/a	LTP147	ltpFR	5	3	1	RUST	1219	1	5	0	n/a	n/a	n/a	n/a	n/a
3424.162	n/a	RECOG_RESP	1712081	n/a	LTP147	ltpFR	5	3	1	RUST	1219	1	n/a	0	n/a	n/a	n/a	n/a	n/a
3424.772	n/a	RECOG_CONF	1712386	n/a	LTP147	ltpFR	5	3	1	RUST	1219	n/a	5	0	n/a	n/a	n/a	n/a	n/a
3426.028	n/a	RECOG_TARGET	1713014	n/a	LTP147	ltpFR	5	3	1	ASSISTANT	48	1	5	1	n/a	n/a	n/a	n/a	n/a
3426.642	n/a	RECOG_RESP	1713321	n/a	LTP147	ltpFR	5	3	1	ASSISTANT	48	1	n/a	1	n/a	n/a	n/a	n/a	n/a
3427.38	n/a	RECOG_CONF	1713690	n/a	LTP147	ltpFR	5	3	1	ASSISTANT	48	n/a	5	1	n/a	n/a	n/a	n/a	n/a
3428.652	n/a	RECOG_TARGET	1714326	n/a	LTP147	ltpFR	5	3	1	COUGAR	387	1	5	1	n/a	n/a	n/a	n/a	n/a
3429.204	n/a	RECOG_RESP	1714602	n/a	LTP147	ltpFR	5	3	1	COUGAR	387	1	n/a	1	n/a	n/a	n/a	n/a	n/a
3429.798	n/a	RECOG_CONF	1714899	n/a	LTP147	ltpFR	5	3	1	COUGAR	387	n/a	5	1	n/a	n/a	n/a	n/a	n/a
3431.118	n/a	RECOG_TARGET	1715559	n/a	LTP147	ltpFR	5	3	1	FLY	586	1	5	1	n/a	n/a	n/a	n/a	n/a
3431.702	n/a	RECOG_RESP	1715851	n/a	LTP147	ltpFR	5	3	1	FLY	586	1	n/a	1	n/a	n/a	n/a	n/a	n/a
3432.358	n/a	RECOG_CONF	1716179	n/a	LTP147	ltpFR	5	3	1	FLY	586	n/a	5	1	n/a	n/a	n/a	n/a	n/a
3433.658	n/a	RECOG_TARGET	1716829	n/a	LTP147	ltpFR	5	3	0	COFFEE	341	1	5	1	n/a	n/a	n/a	n/a	n/a
3434.118	n/a	RECOG_RESP	1717059	n/a	LTP147	ltpFR	5	3	0	COFFEE	341	1	n/a	1	n/a	n/a	n/a	n/a	n/a
3434.78	n/a	RECOG_CONF	1717390	n/a	LTP147	ltpFR	5	3	0	COFFEE	341	n/a	5	1	n/a	n/a	n/a	n/a	n/a
3436.116	n/a	RECOG_LURE	1718058	n/a	LTP147	ltpFR	5	3	n/a	PLUTO	1092	0	5	n/a	n/a	n/a	n/a	n/a	n/a
3437.062	n/a	RECOG_RESP	1718531	n/a	LTP147	ltpFR	5	3	n/a	PLUTO	1092	0	n/a	n/a	n/a	n/a	n/a	n/a	n/a
3437.7	n/a	RECOG_CONF	1718850	n/a	LTP147	ltpFR	5	3	n/a	PLUTO	1092	n/a	5	n/a	n/a	n/a	n/a	n/a	n/a
3439.024	n/a	RECOG_TARGET	1719512	n/a	LTP147	ltpFR	5	3	0	PONY	1102	1	5	1	n/a	n/a	n/a	n/a	n/a
3440.04	n/a	RECOG_RESP	1720020	n/a	LTP147	ltpFR	5	3	0	PONY	1102	1	n/a	1	n/a	n/a	n/a	n/a	n/a
3440.732	n/a	RECOG_CONF	1720366	n/a	LTP147	ltpFR	5	3	0	PONY	1102	n/a	5	1	n/a	n/a	n/a	n/a	n/a
3442.056	n/a	RECOG_TARGET	1721028	n/a	LTP147	ltpFR	5	3	0	BRUNETTE	181	1	5	0	n/a	n/a	n/a	n/a	n/a
3442.752	n/a	RECOG_RESP	1721376	n/a	LTP147	ltpFR	5	3	0	BRUNETTE	181	1	n/a	0	n/a	n/a	n/a	n/a	n/a
3443.442	n/a	RECOG_CONF	1721721	n/a	LTP147	ltpFR	5	3	0	BRUNETTE	181	n/a	5	0	n/a	n/a	n/a	n/a	n/a
3444.572	n/a	RECOG_TARGET	1722286	n/a	LTP147	ltpFR	5	3	1	SKIN	1318	1	5	1	n/a	n/a	n/a	n/a	n/a
3445.234	n/a	RECOG_RESP	1722617	n/a	LTP147	ltpFR	5	3	1	SKIN	1318	1	n/a	1	n/a	n/a	n/a	n/a	n/a
3445.996	n/a	RECOG_CONF	1722998	n/a	LTP147	ltpFR	5	3	1	SKIN	1318	n/a	5	1	n/a	n/a	n/a	n/a	n/a
3447.122	n/a	RECOG_TARGET	1723561	n/a	LTP147	ltpFR	5	3	0	IRON	744	1	5	0	n/a	n/a	n/a	n/a	n/a
3447.728	n/a	RECOG_RESP	1723864	n/a	LTP147	ltpFR	5	3	0	IRON	744	1	n/a	0	n/a	n/a	n/a	n/a	n/a
3448.446	n/a	RECOG_CONF	1724223	n/a	LTP147	ltpFR	5	3	0	IRON	744	n/a	5	0	n/a	n/a	n/a	n/a	n/a
3449.678	n/a	RECOG_TARGET	1724839	n/a	LTP147	ltpFR	5	3	-1	DOLL	481	1	5	-1	n/a	n/a	n/a	n/a	n/a
3450.392	n/a	RECOG_RESP	1725196	n/a	LTP147	ltpFR	5	3	-1	DOLL	481	1	n/a	-1	n/a	n/a	n/a	n/a	n/a
3451.062	n/a	RECOG_CONF	1725531	n/a	LTP147	ltpFR	5	3	-1	DOLL	481	n/a	5	-1	n/a	n/a	n/a	n/a	n/a
3452.47	n/a	RECOG_LURE	1726235	n/a	LTP147	ltpFR	5	3	n/a	SHEET	1279	1	3	n/a	n/a	n/a	n/a	n/a	n/a
3453.122	n/a	RECOG_RESP	1726561	n/a	LTP147	ltpFR	5	3	n/a	SHEET	1279	1	n/a	n/a	n/a	n/a	n/a	n/a	n/a
3454.19	n/a	RECOG_CONF	1727095	n/a	LTP147	ltpFR	5	3	n/a	SHEET	1279	n/a	3	n/a	n/a	n/a	n/a	n/a	n/a
3455.51	n/a	RECOG_TARGET	1727755	n/a	LTP147	ltpFR	5	3	0	SAXOPHONE	1240	1	5	1	n/a	n/a	n/a	n/a	n/a
3456.162	n/a	RECOG_RESP	1728081	n/a	LTP147	ltpFR	5	3	0	SAXOPHONE	1240	1	n/a	1	n/a	n/a	n/a	n/a	n/a
3456.824	n/a	RECOG_CONF	1728412	n/a	LTP147	ltpFR	5	3	0	SAXOPHONE	1240	n/a	5	1	n/a	n/a	n/a	n/a	n/a
3458.168	n/a	RECOG_LURE	1729084	n/a	LTP147	ltpFR	5	3	n/a	RIB	1188	0	5	n/a	n/a	n/a	n/a	n/a	n/a
3458.962	n/a	RECOG_RESP	1729481	n/a	LTP147	ltpFR	5	3	n/a	RIB	1188	0	n/a	n/a	n/a	n/a	n/a	n/a	n/a
3459.548	n/a	RECOG_CONF	1729774	n/a	LTP147	ltpFR	5	3	n/a	RIB	1188	n/a	5	n/a	n/a	n/a	n/a	n/a	n/a
3460.908	n/a	RECOG_TARGET	1730454	n/a	LTP147	ltpFR	5	3	1	JUGGLER	763	1	5	1	n/a	n/a	n/a	n/a	n/a
3461.794	n/a	RECOG_RESP	1730897	n/a	LTP147	ltpFR	5	3	1	JUGGLER	763	1	n/a	1	n/a	n/a	n/a	n/a	n/a
3462.522	n/a	RECOG_CONF	1731261	n/a	LTP147	ltpFR	5	3	1	JUGGLER	763	n/a	5	1	n/a	n/a	n/a	n/a	n/a
3464.142	n/a	RECOG_TARGET	1732071	n/a	LTP147	ltpFR	5	3	-1	CUCUMBER	421	1	5	-1	n/a	n/a	n/a	n/a	n/a
3464.9	n/a	RECOG_RESP	1732450	n/a	LTP147	ltpFR	5	3	-1	CUCUMBER	421	1	n/a	-1	n/a	n/a	n/a	n/a	n/a
3465.55	n/a	RECOG_CONF	1732775	n/a	LTP147	ltpFR	5	3	-1	CUCUMBER	421	n/a	5	-1	n/a	n/a	n/a	n/a	n/a
3469.492	n/a	REC_START	1734746	n/a	LTP147	ltpFR	5	4	n/a	n/a	n/a	n/a	n/a	n/a	n/a	n/a	n/a	n/a	n/a
3469.53	n/a	RECOG_TARGET	1734765	n/a	LTP147	ltpFR	5	4	0	SCROLL	1257	1	5	0	n/a	n/a	n/a	n/a	n/a
3470.168	n/a	RECOG_RESP	1735084	n/a	LTP147	ltpFR	5	4	0	SCROLL	1257	1	n/a	0	n/a	n/a	n/a	n/a	n/a
3470.848	n/a	RECOG_CONF	1735424	n/a	LTP147	ltpFR	5	4	0	SCROLL	1257	n/a	5	0	n/a	n/a	n/a	n/a	n/a
3472.254	n/a	RECOG_TARGET	1736127	n/a	LTP147	ltpFR	5	4	1	HAND	683	1	2	0	n/a	n/a	n/a	n/a	n/a
3472.734	n/a	RECOG_RESP	1736367	n/a	LTP147	ltpFR	5	4	1	HAND	683	1	n/a	0	n/a	n/a	n/a	n/a	n/a
3473.802	n/a	RECOG_CONF	1736901	n/a	LTP147	ltpFR	5	4	1	HAND	683	n/a	2	0	n/a	n/a	n/a	n/a	n/a
3475.188	n/a	RECOG_TARGET	1737594	n/a	LTP147	ltpFR	5	4	0	FLORIDA	582	1	5	1	n/a	n/a	n/a	n/a	n/a
3475.816	n/a	RECOG_RESP	1737908	n/a	LTP147	ltpFR	5	4	0	FLORIDA	582	1	n/a	1	n/a	n/a	n/a	n/a	n/a
3476.64	n/a	RECOG_CONF	1738320	n/a	LTP147	ltpFR	5	4	0	FLORIDA	582	n/a	5	1	n/a	n/a	n/a	n/a	n/a
3478.078	n/a	RECOG_TARGET	1739039	n/a	LTP147	ltpFR	5	4	-1	MAGICIAN	854	1	5	-1	n/a	n/a	n/a	n/a	n/a
3478.722	n/a	RECOG_RESP	1739361	n/a	LTP147	ltpFR	5	4	-1	MAGICIAN	854	1	n/a	-1	n/a	n/a	n/a	n/a	n/a
3479.41	n/a	RECOG_CONF	1739705	n/a	LTP147	ltpFR	5	4	-1	MAGICIAN	854	n/a	5	-1	n/a	n/a	n/a	n/a	n/a
3480.894	n/a	RECOG_LURE	1740447	n/a	LTP147	ltpFR	5	4	n/a	NUT	965	1	3	n/a	n/a	n/a	n/a	n/a	n/a
3481.44	n/a	RECOG_RESP	1740720	n/a	LTP147	ltpFR	5	4	n/a	NUT	965	1	n/a	n/a	n/a	n/a	n/a	n/a	n/a
3482.662	n/a	RECOG_CONF	1741331	n/a	LTP147	ltpFR	5	4	n/a	NUT	965	n/a	3	n/a	n/a	n/a	n/a	n/a	n/a
3484.202	n/a	RECOG_LURE	1742101	n/a	LTP147	ltpFR	5	4	n/a	PITCHFORK	1078	0	4	n/a	n/a	n/a	n/a	n/a	n/a
3485.126	n/a	RECOG_RESP	1742563	n/a	LTP147	ltpFR	5	4	n/a	PITCHFORK	1078	0	n/a	n/a	n/a	n/a	n/a	n/a	n/a
3485.97	n/a	RECOG_CONF	1742985	n/a	LTP147	ltpFR	5	4	n/a	PITCHFORK	1078	n/a	4	n/a	n/a	n/a	n/a	n/a	n/a
3487.26	n/a	RECOG_TARGET	1743630	n/a	LTP147	ltpFR	5	4	1	DIAL	457	1	5	0	n/a	n/a	n/a	n/a	n/a
3488.538	n/a	RECOG_RESP	1744269	n/a	LTP147	ltpFR	5	4	1	DIAL	457	1	n/a	0	n/a	n/a	n/a	n/a	n/a
3489.776	n/a	RECOG_CONF	1744888	n/a	LTP147	ltpFR	5	4	1	DIAL	457	n/a	5	0	n/a	n/a	n/a	n/a	n/a
3491.408	n/a	RECOG_TARGET	1745704	n/a	LTP147	ltpFR	5	4	1	DINOSAUR	469	1	5	1	n/a	n/a	n/a	n/a	n/a
3492.168	n/a	RECOG_RESP	1746084	n/a	LTP147	ltpFR	5	4	1	DINOSAUR	469	1	n/a	1	n/a	n/a	n/a	n/a	n/a
3492.916	n/a	RECOG_CONF	1746458	n/a	LTP147	ltpFR	5	4	1	DINOSAUR	469	n/a	5	1	n/a	n/a	n/a	n/a	n/a
3494.214	n/a	RECOG_TARGET	1747107	n/a	LTP147	ltpFR	5	4	-1	REFEREE	1178	1	5	-1	n/a	n/a	n/a	n/a	n/a
3494.87	n/a	RECOG_RESP	1747435	n/a	LTP147	ltpFR	5	4	-1	REFEREE	1178	1	n/a	-1	n/a	n/a	n/a	n/a	n/a
3495.57	n/a	RECOG_CONF	1747785	n/a	LTP147	ltpFR	5	4	-1	REFEREE	1178	n/a	5	-1	n/a	n/a	n/a	n/a	n/a
3496.788	n/a	RECOG_TARGET	1748394	n/a	LTP147	ltpFR	5	4	1	WOLF	1619	1	5	1	n/a	n/a	n/a	n/a	n/a
3497.35	n/a	RECOG_RESP	1748675	n/a	LTP147	ltpFR	5	4	1	WOLF	1619	1	n/a	1	n/a	n/a	n/a	n/a	n/a
3498.116	n/a	RECOG_CONF	1749058	n/a	LTP147	ltpFR	5	4	1	WOLF	1619	n/a	5	1	n/a	n/a	n/a	n/a	n/a
3499.156	n/a	RECOG_LURE	1749578	n/a	LTP147	ltpFR	5	4	n/a	WALNUT	1584	1	4	n/a	n/a	n/a	n/a	n/a	n/a
3499.916	n/a	RECOG_RESP	1749958	n/a	LTP147	ltpFR	5	4	n/a	WALNUT	1584	1	n/a	n/a	n/a	n/a	n/a	n/a	n/a
3500.724	n/a	RECOG_CONF	1750362	n/a	LTP147	ltpFR	5	4	n/a	WALNUT	1584	n/a	4	n/a	n/a	n/a	n/a	n/a	n/a
3502.088	n/a	RECOG_TARGET	1751044	n/a	LTP147	ltpFR	5	4	-1	CAR	241	1	5	-1	n/a	n/a	n/a	n/a	n/a
3502.856	n/a	RECOG_RESP	1751428	n/a	LTP147	ltpFR	5	4	-1	CAR	241	1	n/a	-1	n/a	n/a	n/a	n/a	n/a
3503.632	n/a	RECOG_CONF	1751816	n/a	LTP147	ltpFR	5	4	-1	CAR	241	n/a	5	-1	n/a	n/a	n/a	n/a	n/a
3504.862	n/a	RECOG_TARGET	1752431	n/a	LTP147	ltpFR	5	4	-1	COUCH	386	1	5	-1	n/a	n/a	n/a	n/a	n/a
3505.622	n/a	RECOG_RESP	1752811	n/a	LTP147	ltpFR	5	4	-1	COUCH	386	1	n/a	-1	n/a	n/a	n/a	n/a	n/a
3506.216	n/a	RECOG_CONF	1753108	n/a	LTP147	ltpFR	5	4	-1	COUCH	386	n/a	5	-1	n/a	n/a	n/a	n/a	n/a
3507.444	n/a	RECOG_TARGET	1753722	n/a	LTP147	ltpFR	5	4	0	ACORN	3	1	5	1	n/a	n/a	n/a	n/a	n/a
3508.252	n/a	RECOG_RESP	1754126	n/a	LTP147	ltpFR	5	4	0	ACORN	3	1	n/a	1	n/a	n/a	n/a	n/a	n/a
3508.94	n/a	RECOG_CONF	1754470	n/a	LTP147	ltpFR	5	4	0	ACORN	3	n/a	5	1	n/a	n/a	n/a	n/a	n/a
3510.202	n/a	RECOG_TARGET	1755101	n/a	LTP147	ltpFR	5	4	0	PLASTER	1085	1	5	0	n/a	n/a	n/a	n/a	n/a
3510.826	n/a	RECOG_RESP	1755413	n/a	LTP147	ltpFR	5	4	0	PLASTER	1085	1	n/a	0	n/a	n/a	n/a	n/a	n/a
3511.382	n/a	RECOG_CONF	1755691	n/a	LTP147	ltpFR	5	4	0	PLASTER	1085	n/a	5	0	n/a	n/a	n/a	n/a	n/a
3512.65	n/a	RECOG_TARGET	1756325	n/a	LTP147	ltpFR	5	4	1	DANDELION	438	1	5	1	n/a	n/a	n/a	n/a	n/a
3513.276	n/a	RECOG_RESP	1756638	n/a	LTP147	ltpFR	5	4	1	DANDELION	438	1	n/a	1	n/a	n/a	n/a	n/a	n/a
3513.99	n/a	RECOG_CONF	1756995	n/a	LTP147	ltpFR	5	4	1	DANDELION	438	n/a	5	1	n/a	n/a	n/a	n/a	n/a
3515.268	n/a	RECOG_LURE	1757634	n/a	LTP147	ltpFR	5	4	n/a	TRANSPLANT	1496	0	5	n/a	n/a	n/a	n/a	n/a	n/a
3516.61	n/a	RECOG_RESP	1758305	n/a	LTP147	ltpFR	5	4	n/a	TRANSPLANT	1496	0	n/a	n/a	n/a	n/a	n/a	n/a	n/a
3517.256	n/a	RECOG_CONF	1758628	n/a	LTP147	ltpFR	5	4	n/a	TRANSPLANT	1496	n/a	5	n/a	n/a	n/a	n/a	n/a	n/a
3518.724	n/a	RECOG_TARGET	1759362	n/a	LTP147	ltpFR	5	4	0	SALESMAN	1225	1	5	1	n/a	n/a	n/a	n/a	n/a
3519.69	n/a	RECOG_RESP	1759845	n/a	LTP147	ltpFR	5	4	0	SALESMAN	1225	1	n/a	1	n/a	n/a	n/a	n/a	n/a
3520.364	n/a	RECOG_CONF	1760182	n/a	LTP147	ltpFR	5	4	0	SALESMAN	1225	n/a	5	1	n/a	n/a	n/a	n/a	n/a
3521.79	n/a	RECOG_TARGET	1760895	n/a	LTP147	ltpFR	5	4	0	CLOTHES	327	1	3	1	n/a	n/a	n/a	n/a	n/a
3522.51	n/a	RECOG_RESP	1761255	n/a	LTP147	ltpFR	5	4	0	CLOTHES	327	1	n/a	1	n/a	n/a	n/a	n/a	n/a
3523.208	n/a	RECOG_CONF	1761604	n/a	LTP147	ltpFR	5	4	0	CLOTHES	327	n/a	3	1	n/a	n/a	n/a	n/a	n/a
3524.464	n/a	RECOG_LURE	1762232	n/a	LTP147	ltpFR	5	4	n/a	DOCUMENT	479	1	3	n/a	n/a	n/a	n/a	n/a	n/a
3525.218	n/a	RECOG_RESP	1762609	n/a	LTP147	ltpFR	5	4	n/a	DOCUMENT	479	1	n/a	n/a	n/a	n/a	n/a	n/a	n/a
3525.964	n/a	RECOG_CONF	1762982	n/a	LTP147	ltpFR	5	4	n/a	DOCUMENT	479	n/a	3	n/a	n/a	n/a	n/a	n/a	n/a
3533.158	n/a	REC_START	1766579	n/a	LTP147	ltpFR	5	5	n/a	n/a	n/a	n/a	n/a	n/a	n/a	n/a	n/a	n/a	n/a
3533.194	n/a	RECOG_LURE	1766597	n/a	LTP147	ltpFR	5	5	n/a	CABINET	212	1	5	n/a	n/a	n/a	n/a	n/a	n/a
3533.894	n/a	RECOG_RESP	1766947	n/a	LTP147	ltpFR	5	5	n/a	CABINET	212	1	n/a	n/a	n/a	n/a	n/a	n/a	n/a
3534.516	n/a	RECOG_CONF	1767258	n/a	LTP147	ltpFR	5	5	n/a	CABINET	212	n/a	5	n/a	n/a	n/a	n/a	n/a	n/a
3535.844	n/a	RECOG_LURE	1767922	n/a	LTP147	ltpFR	5	5	n/a	ROBOT	1200	0	4	n/a	n/a	n/a	n/a	n/a	n/a
3537.006	n/a	RECOG_RESP	1768503	n/a	LTP147	ltpFR	5	5	n/a	ROBOT	1200	0	n/a	n/a	n/a	n/a	n/a	n/a	n/a
3537.714	n/a	RECOG_CONF	1768857	n/a	LTP147	ltpFR	5	5	n/a	ROBOT	1200	n/a	4	n/a	n/a	n/a	n/a	n/a	n/a
3538.844	n/a	RECOG_LURE	1769422	n/a	LTP147	ltpFR	5	5	n/a	PRINCE	1124	0	4	n/a	n/a	n/a	n/a	n/a	n/a
3539.618	n/a	RECOG_RESP	1769809	n/a	LTP147	ltpFR	5	5	n/a	PRINCE	1124	0	n/a	n/a	n/a	n/a	n/a	n/a	n/a
3540.198	n/a	RECOG_CONF	1770099	n/a	LTP147	ltpFR	5	5	n/a	PRINCE	1124	n/a	4	n/a	n/a	n/a	n/a	n/a	n/a
3541.468	n/a	RECOG_TARGET	1770734	n/a	LTP147	ltpFR	5	5	0	SHACK	1273	1	4	1	n/a	n/a	n/a	n/a	n/a
3542.182	n/a	RECOG_RESP	1771091	n/a	LTP147	ltpFR	5	5	0	SHACK	1273	1	n/a	1	n/a	n/a	n/a	n/a	n/a
3542.826	n/a	RECOG_CONF	1771413	n/a	LTP147	ltpFR	5	5	0	SHACK	1273	n/a	4	1	n/a	n/a	n/a	n/a	n/a
3544.026	n/a	RECOG_LURE	1772013	n/a	LTP147	ltpFR	5	5	n/a	SHRINE	1298	0	4	n/a	n/a	n/a	n/a	n/a	n/a
3544.808	n/a	RECOG_RESP	1772404	n/a	LTP147	ltpFR	5	5	n/a	SHRINE	1298	0	n/a	n/a	n/a	n/a	n/a	n/a	n/a
3545.716	n/a	RECOG_CONF	1772858	n/a	LTP147	ltpFR	5	5	n/a	SHRINE	1298	n/a	4	n/a	n/a	n/a	n/a	n/a	n/a
3546.698	n/a	RECOG_TARGET	1773349	n/a	LTP147	ltpFR	5	5	1	BRICK	172	1	4	1	n/a	n/a	n/a	n/a	n/a
3547.488	n/a	RECOG_RESP	1773744	n/a	LTP147	ltpFR	5	5	1	BRICK	172	1	n/a	1	n/a	n/a	n/a	n/a	n/a
3548.136	n/a	RECOG_CONF	1774068	n/a	LTP147	ltpFR	5	5	1	BRICK	172	n/a	4	1	n/a	n/a	n/a	n/a	n/a
3549.49	n/a	RECOG_TARGET	1774745	n/a	LTP147	ltpFR	5	5	0	COTTON	385	1	5	0	n/a	n/a	n/a	n/a	n/a
3550.16	n/a	RECOG_RESP	1775080	n/a	LTP147	ltpFR	5	5	0	COTTON	385	1	n/a	0	n/a	n/a	n/a	n/a	n/a
3550.88	n/a	RECOG_CONF	1775440	n/a	LTP147	ltpFR	5	5	0	COTTON	385	n/a	5	0	n/a	n/a	n/a	n/a	n/a
3552.188	n/a	RECOG_TARGET	1776094	n/a	LTP147	ltpFR	5	5	0	GAUZE	626	1	5	0	n/a	n/a	n/a	n/a	n/a
3552.944	n/a	RECOG_RESP	1776472	n/a	LTP147	ltpFR	5	5	0	GAUZE	626	1	n/a	0	n/a	n/a	n/a	n/a	n/a
3553.628	n/a	RECOG_CONF	1776814	n/a	LTP147	ltpFR	5	5	0	GAUZE	626	n/a	5	0	n/a	n/a	n/a	n/a	n/a
3554.698	n/a	RECOG_TARGET	1777349	n/a	LTP147	ltpFR	5	5	1	ALLEY	15	1	5	0	n/a	n/a	n/a	n/a	n/a
3555.376	n/a	RECOG_RESP	1777688	n/a	LTP147	ltpFR	5	5	1	ALLEY	15	1	n/a	0	n/a	n/a	n/a	n/a	n/a
3556.114	n/a	RECOG_CONF	1778057	n/a	LTP147	ltpFR	5	5	1	ALLEY	15	n/a	5	0	n/a	n/a	n/a	n/a	n/a
3557.012	n/a	RECOG_LURE	1778506	n/a	LTP147	ltpFR	5	5	n/a	ROACH	1195	0	5	n/a	n/a	n/a	n/a	n/a	n/a
3557.962	n/a	RECOG_RESP	1778981	n/a	LTP147	ltpFR	5	5	n/a	ROACH	1195	0	n/a	n/a	n/a	n/a	n/a	n/a	n/a
3558.618	n/a	RECOG_CONF	1779309	n/a	LTP147	ltpFR	5	5	n/a	ROACH	1195	n/a	5	n/a	n/a	n/a	n/a	n/a	n/a
3559.688	n/a	RECOG_LURE	1779844	n/a	LTP147	ltpFR	5	5	n/a	CLERK	321	0	4	n/a	n/a	n/a	n/a	n/a	n/a
3561.428	n/a	RECOG_RESP_VV	1780714	n/a	LTP147	ltpFR	5	5	n/a	CLERK	321	1	n/a	n/a	n/a	n/a	n/a	n/a	n/a
3563.256	n/a	RECOG_RESP	1781628	n/a	LTP147	ltpFR	5	5	n/a	CLERK	321	0	n/a	n/a	n/a	n/a	n/a	n/a	n/a
3564.534	n/a	RECOG_CONF	1782267	n/a	LTP147	ltpFR	5	5	n/a	CLERK	321	n/a	4	n/a	n/a	n/a	n/a	n/a	n/a
3565.96	n/a	RECOG_TARGET	1782980	n/a	LTP147	ltpFR	5	5	0	RAFT	1159	1	5	1	n/a	n/a	n/a	n/a	n/a
3567.316	n/a	RECOG_RESP	1783658	n/a	LTP147	ltpFR	5	5	0	RAFT	1159	1	n/a	1	n/a	n/a	n/a	n/a	n/a
3568.032	n/a	RECOG_CONF	1784016	n/a	LTP147	ltpFR	5	5	0	RAFT	1159	n/a	5	1	n/a	n/a	n/a	n/a	n/a
3569.542	n/a	RECOG_LURE	1784771	n/a	LTP147	ltpFR	5	5	n/a	FRAME	600	0	5	n/a	n/a	n/a	n/a	n/a	n/a
3570.59	n/a	RECOG_RESP	1785295	n/a	LTP147	ltpFR	5	5	n/a	FRAME	600	0	n/a	n/a	n/a	n/a	n/a	n/a	n/a
3571.282	n/a	RECOG_CONF	1785641	n/a	LTP147	ltpFR	5	5	n/a	FRAME	600	n/a	5	n/a	n/a	n/a	n/a	n/a	n/a
3572.65	n/a	RECOG_TARGET	1786325	n/a	LTP147	ltpFR	5	5	-1	WINDOW	1611	1	5	-1	n/a	n/a	n/a	n/a	n/a
3573.486	n/a	RECOG_RESP	1786743	n/a	LTP147	ltpFR	5	5	-1	WINDOW	1611	1	n/a	-1	n/a	n/a	n/a	n/a	n/a
3574.194	n/a	RECOG_CONF	1787097	n/a	LTP147	ltpFR	5	5	-1	WINDOW	1611	n/a	5	-1	n/a	n/a	n/a	n/a	n/a
3575.582	n/a	RECOG_TARGET	1787791	n/a	LTP147	ltpFR	5	5	0	HARP	689	1	5	0	n/a	n/a	n/a	n/a	n/a
3576.234	n/a	RECOG_RESP	1788117	n/a	LTP147	ltpFR	5	5	0	HARP	689	1	n/a	0	n/a	n/a	n/a	n/a	n/a
3576.976	n/a	RECOG_CONF	1788488	n/a	LTP147	ltpFR	5	5	0	HARP	689	n/a	5	0	n/a	n/a	n/a	n/a	n/a
3578.398	n/a	RECOG_TARGET	1789199	n/a	LTP147	ltpFR	5	5	1	TOENAIL	1474	1	5	0	n/a	n/a	n/a	n/a	n/a
3579.482	n/a	RECOG_RESP	1789741	n/a	LTP147	ltpFR	5	5	1	TOENAIL	1474	1	n/a	0	n/a	n/a	n/a	n/a	n/a
3580.18	n/a	RECOG_CONF	1790090	n/a	LTP147	ltpFR	5	5	1	TOENAIL	1474	n/a	5	0	n/a	n/a	n/a	n/a	n/a
3581.306	n/a	RECOG_TARGET	1790653	n/a	LTP147	ltpFR	5	5	-1	TOY	1492	1	3	-1	n/a	n/a	n/a	n/a	n/a
3582.53	n/a	RECOG_RESP	1791265	n/a	LTP147	ltpFR	5	5	-1	TOY	1492	1	n/a	-1	n/a	n/a	n/a	n/a	n/a
3583.264	n/a	RECOG_CONF	1791632	n/a	LTP147	ltpFR	5	5	-1	TOY	1492	n/a	3	-1	n/a	n/a	n/a	n/a	n/a
3584.562	n/a	RECOG_TARGET	1792281	n/a	LTP147	ltpFR	5	5	1	THIEF	1456	1	5	0	n/a	n/a	n/a	n/a	n/a
3585.306	n/a	RECOG_RESP	1792653	n/a	LTP147	ltpFR	5	5	1	THIEF	1456	1	n/a	0	n/a	n/a	n/a	n/a	n/a
3586.116	n/a	RECOG_CONF	1793058	n/a	LTP147	ltpFR	5	5	1	THIEF	1456	n/a	5	0	n/a	n/a	n/a	n/a	n/a
3587.37	n/a	RECOG_LURE	1793685	n/a	LTP147	ltpFR	5	5	n/a	BUG	187	0	3	n/a	n/a	n/a	n/a	n/a	n/a
3588.364	n/a	RECOG_RESP	1794182	n/a	LTP147	ltpFR	5	5	n/a	BUG	187	0	n/a	n/a	n/a	n/a	n/a	n/a	n/a
3589.24	n/a	RECOG_CONF	1794620	n/a	LTP147	ltpFR	5	5	n/a	BUG	187	n/a	3	n/a	n/a	n/a	n/a	n/a	n/a
3590.46	n/a	RECOG_LURE	1795230	n/a	LTP147	ltpFR	5	5	n/a	CARNIVAL	245	0	3	n/a	n/a	n/a	n/a	n/a	n/a
3591.428	n/a	RECOG_RESP	1795714	n/a	LTP147	ltpFR	5	5	n/a	CARNIVAL	245	0	n/a	n/a	n/a	n/a	n/a	n/a	n/a
3592.136	n/a	RECOG_CONF	1796068	n/a	LTP147	ltpFR	5	5	n/a	CARNIVAL	245	n/a	3	n/a	n/a	n/a	n/a	n/a	n/a
3598.764	n/a	REC_START	1799382	n/a	LTP147	ltpFR	5	6	n/a	n/a	n/a	n/a	n/a	n/a	n/a	n/a	n/a	n/a	n/a
3598.808	n/a	RECOG_TARGET	1799404	n/a	LTP147	ltpFR	5	6	-1	POLE	1097	1	5	-1	n/a	n/a	n/a	n/a	n/a
3599.684	n/a	RECOG_RESP	1799842	n/a	LTP147	ltpFR	5	6	-1	POLE	1097	1	n/a	-1	n/a	n/a	n/a	n/a	n/a
3600.44	n/a	RECOG_CONF	1800220	n/a	LTP147	ltpFR	5	6	-1	POLE	1097	n/a	5	-1	n/a	n/a	n/a	n/a	n/a
3601.69	n/a	RECOG_TARGET	1800845	n/a	LTP147	ltpFR	5	6	0	BAND	78	1	5	1	n/a	n/a	n/a	n/a	n/a
3602.304	n/a	RECOG_RESP	1801152	n/a	LTP147	ltpFR	5	6	0	BAND	78	1	n/a	1	n/a	n/a	n/a	n/a	n/a
3602.914	n/a	RECOG_CONF	1801457	n/a	LTP147	ltpFR	5	6	0	BAND	78	n/a	5	1	n/a	n/a	n/a	n/a	n/a
3604.14	n/a	RECOG_TARGET	1802070	n/a	LTP147	ltpFR	5	6	0	BERRY	122	1	5	0	n/a	n/a	n/a	n/a	n/a
3604.816	n/a	RECOG_RESP	1802408	n/a	LTP147	ltpFR	5	6	0	BERRY	122	1	n/a	0	n/a	n/a	n/a	n/a	n/a
3605.538	n/a	RECOG_CONF	1802769	n/a	LTP147	ltpFR	5	6	0	BERRY	122	n/a	5	0	n/a	n/a	n/a	n/a	n/a
3606.822	n/a	RECOG_TARGET	1803411	n/a	LTP147	ltpFR	5	6	1	TROUT	1511	1	5	1	n/a	n/a	n/a	n/a	n/a
3607.46	n/a	RECOG_RESP	1803730	n/a	LTP147	ltpFR	5	6	1	TROUT	1511	1	n/a	1	n/a	n/a	n/a	n/a	n/a
3608.218	n/a	RECOG_CONF	1804109	n/a	LTP147	ltpFR	5	6	1	TROUT	1511	n/a	5	1	n/a	n/a	n/a	n/a	n/a
3609.438	n/a	RECOG_LURE	1804719	n/a	LTP147	ltpFR	5	6	n/a	WAND	1586	1	2	n/a	n/a	n/a	n/a	n/a	n/a
3610.036	n/a	RECOG_RESP	1805018	n/a	LTP147	ltpFR	5	6	n/a	WAND	1586	1	n/a	n/a	n/a	n/a	n/a	n/a	n/a
3610.942	n/a	RECOG_CONF	1805471	n/a	LTP147	ltpFR	5	6	n/a	WAND	1586	n/a	2	n/a	n/a	n/a	n/a	n/a	n/a
3612.496	n/a	RECOG_TARGET	1806248	n/a	LTP147	ltpFR	5	6	-1	PATRIOT	1026	1	5	-1	n/a	n/a	n/a	n/a	n/a
3613.212	n/a	RECOG_RESP	1806606	n/a	LTP147	ltpFR	5	6	-1	PATRIOT	1026	1	n/a	-1	n/a	n/a	n/a	n/a	n/a
3613.886	n/a	RECOG_CONF	1806943	n/a	LTP147	ltpFR	5	6	-1	PATRIOT	1026	n/a	5	-1	n/a	n/a	n/a	n/a	n/a
3615.036	n/a	RECOG_TARGET	1807518	n/a	LTP147	ltpFR	5	6	-1	PEPPER	1047	1	5	-1	n/a	n/a	n/a	n/a	n/a
3615.816	n/a	RECOG_RESP	1807908	n/a	LTP147	ltpFR	5	6	-1	PEPPER	1047	1	n/a	-1	n/a	n/a	n/a	n/a	n/a
3616.506	n/a	RECOG_CONF	1808253	n/a	LTP147	ltpFR	5	6	-1	PEPPER	1047	n/a	5	-1	n/a	n/a	n/a	n/a	n/a
3618.052	n/a	RECOG_LURE	1809026	n/a	LTP147	ltpFR	5	6	n/a	NICKEL	950	0	5	n/a	n/a	n/a	n/a	n/a	n/a
3618.976	n/a	RECOG_RESP	1809488	n/a	LTP147	ltpFR	5	6	n/a	NICKEL	950	0	n/a	n/a	n/a	n/a	n/a	n/a	n/a
3619.706	n/a	RECOG_CONF	1809853	n/a	LTP147	ltpFR	5	6	n/a	NICKEL	950	n/a	5	n/a	n/a	n/a	n/a	n/a	n/a
3621.21	n/a	RECOG_TARGET	1810605	n/a	LTP147	ltpFR	5	6	1	COOK	372	1	5	1	n/a	n/a	n/a	n/a	n/a
3622.112	n/a	RECOG_RESP	1811056	n/a	LTP147	ltpFR	5	6	1	COOK	372	1	n/a	1	n/a	n/a	n/a	n/a	n/a
3622.914	n/a	RECOG_CONF	1811457	n/a	LTP147	ltpFR	5	6	1	COOK	372	n/a	5	1	n/a	n/a	n/a	n/a	n/a
3624.376	n/a	RECOG_LURE	1812188	n/a	LTP147	ltpFR	5	6	n/a	SCAPEGOAT	1244	0	5	n/a	n/a	n/a	n/a	n/a	n/a
3625.414	n/a	RECOG_RESP	1812707	n/a	LTP147	ltpFR	5	6	n/a	SCAPEGOAT	1244	0	n/a	n/a	n/a	n/a	n/a	n/a	n/a
3626.116	n/a	RECOG_CONF	1813058	n/a	LTP147	ltpFR	5	6	n/a	SCAPEGOAT	1244	n/a	5	n/a	n/a	n/a	n/a	n/a	n/a
3627.65	n/a	RECOG_TARGET	1813825	n/a	LTP147	ltpFR	5	6	1	RECIPE	1175	1	5	0	n/a	n/a	n/a	n/a	n/a
3628.522	n/a	RECOG_RESP	1814261	n/a	LTP147	ltpFR	5	6	1	RECIPE	1175	1	n/a	0	n/a	n/a	n/a	n/a	n/a
3629.28	n/a	RECOG_CONF	1814640	n/a	LTP147	ltpFR	5	6	1	RECIPE	1175	n/a	5	0	n/a	n/a	n/a	n/a	n/a
3630.524	n/a	RECOG_TARGET	1815262	n/a	LTP147	ltpFR	5	6	0	DINNER	468	1	2	0	n/a	n/a	n/a	n/a	n/a
3631.324	n/a	RECOG_RESP	1815662	n/a	LTP147	ltpFR	5	6	0	DINNER	468	1	n/a	0	n/a	n/a	n/a	n/a	n/a
3632.16	n/a	RECOG_CONF	1816080	n/a	LTP147	ltpFR	5	6	0	DINNER	468	n/a	2	0	n/a	n/a	n/a	n/a	n/a
3633.44	n/a	RECOG_TARGET	1816720	n/a	LTP147	ltpFR	5	6	0	COW	393	1	5	1	n/a	n/a	n/a	n/a	n/a
3634.124	n/a	RECOG_RESP	1817062	n/a	LTP147	ltpFR	5	6	0	COW	393	1	n/a	1	n/a	n/a	n/a	n/a	n/a
3634.872	n/a	RECOG_CONF	1817436	n/a	LTP147	ltpFR	5	6	0	COW	393	n/a	5	1	n/a	n/a	n/a	n/a	n/a
