onset	duration	trial_type	sample	stim_file	subject	experiment	session	trial	item_name	item_num	list	answer	test_x	test_y	test_z
201.81982421875	n/a	SESS_START	413327	n/a	LTP342	ltpFR2	8	n/a	n/a	n/a	n/a	n/a	0	0	0
215.91552734375	n/a	START	442195	n/a	LTP342	ltpFR2	8	n/a	n/a	n/a	-1	n/a	n/a	n/a	n/a
215.9453125	n/a	PROB	442256	n/a	LTP342	ltpFR2	8	n/a	n/a	n/a	-1	15	1	8	6
217.6123046875	n/a	PROB	445670	n/a	LTP342	ltpFR2	8	n/a	n/a	n/a	-1	9	1	7	1
218.861328125	n/a	PROB	448228	n/a	LTP342	ltpFR2	8	n/a	n/a	n/a	-1	20	7	5	8
220.8935546875	n/a	PROB	452390	n/a	LTP342	ltpFR2	8	n/a	n/a	n/a	-1	15	7	2	6
222.2431640625	n/a	PROB	455154	n/a	LTP342	ltpFR2	8	n/a	n/a	n/a	-1	14	2	3	9
224.55908203125	n/a	PROB	459897	n/a	LTP342	ltpFR2	8	n/a	n/a	n/a	-1	16	8	2	6
226.4462890625	n/a	STOP	463762	n/a	LTP342	ltpFR2	8	n/a	n/a	n/a	-1	n/a	n/a	n/a	n/a
273.95166015625	n/a	WORD	561053	wordpools/wasnorm_wordpool_576.txt	LTP342	ltpFR2	8	1	UMPIRE	1535	n/a	n/a	0	0	0
276.75	n/a	WORD	566784	wordpools/wasnorm_wordpool_576.txt	LTP342	ltpFR2	8	1	MEAT	883	n/a	n/a	0	0	0
279.24853515625	n/a	WORD	571901	wordpools/wasnorm_wordpool_576.txt	LTP342	ltpFR2	8	1	TURKEY	1520	n/a	n/a	0	0	0
281.8974609375	n/a	WORD	577326	wordpools/wasnorm_wordpool_576.txt	LTP342	ltpFR2	8	1	ANTLER	29	n/a	n/a	0	0	0
284.396484375	n/a	WORD	582444	wordpools/wasnorm_wordpool_576.txt	LTP342	ltpFR2	8	1	GAZELLE	628	n/a	n/a	0	0	0
286.91162109375	n/a	WORD	587595	wordpools/wasnorm_wordpool_576.txt	LTP342	ltpFR2	8	1	SPOOL	1356	n/a	n/a	0	0	0
289.49560546875	n/a	WORD	592887	wordpools/wasnorm_wordpool_576.txt	LTP342	ltpFR2	8	1	SILK	1307	n/a	n/a	0	0	0
292.1591796875	n/a	WORD	598342	wordpools/wasnorm_wordpool_576.txt	LTP342	ltpFR2	8	1	LACE	792	n/a	n/a	0	0	0
294.70849609375	n/a	WORD	603563	wordpools/wasnorm_wordpool_576.txt	LTP342	ltpFR2	8	1	GARBAGE	622	n/a	n/a	0	0	0
297.357421875	n/a	WORD	608988	wordpools/wasnorm_wordpool_576.txt	LTP342	ltpFR2	8	1	TREAT	1501	n/a	n/a	0	0	0
300.0390625	n/a	WORD	614480	wordpools/wasnorm_wordpool_576.txt	LTP342	ltpFR2	8	1	BANJO	82	n/a	n/a	0	0	0
302.72119140625	n/a	WORD	619973	wordpools/wasnorm_wordpool_576.txt	LTP342	ltpFR2	8	1	SCARECROW	1245	n/a	n/a	0	0	0
305.2861328125	n/a	WORD	625226	wordpools/wasnorm_wordpool_576.txt	LTP342	ltpFR2	8	1	KLEENEX	782	n/a	n/a	0	0	0
308.001953125	n/a	WORD	630788	wordpools/wasnorm_wordpool_576.txt	LTP342	ltpFR2	8	1	CANDY	230	n/a	n/a	0	0	0
310.66796875	n/a	WORD	636248	wordpools/wasnorm_wordpool_576.txt	LTP342	ltpFR2	8	1	COUNTRY	388	n/a	n/a	0	0	0
313.23291015625	n/a	WORD	641501	wordpools/wasnorm_wordpool_576.txt	LTP342	ltpFR2	8	1	LEOPARD	812	n/a	n/a	0	0	0
315.78173828125	n/a	WORD	646721	wordpools/wasnorm_wordpool_576.txt	LTP342	ltpFR2	8	1	RAZOR	1171	n/a	n/a	0	0	0
318.4296875	n/a	WORD	652144	wordpools/wasnorm_wordpool_576.txt	LTP342	ltpFR2	8	1	PRINCE	1124	n/a	n/a	0	0	0
320.96240234375	n/a	WORD	657331	wordpools/wasnorm_wordpool_576.txt	LTP342	ltpFR2	8	1	MACHINE	852	n/a	n/a	0	0	0
323.51171875	n/a	WORD	662552	wordpools/wasnorm_wordpool_576.txt	LTP342	ltpFR2	8	1	TYPIST	1532	n/a	n/a	0	0	0
326.04345703125	n/a	WORD	667737	wordpools/wasnorm_wordpool_576.txt	LTP342	ltpFR2	8	1	PEPPER	1047	n/a	n/a	0	0	0
328.6591796875	n/a	WORD	673094	wordpools/wasnorm_wordpool_576.txt	LTP342	ltpFR2	8	1	TURTLE	1522	n/a	n/a	0	0	0
331.1904296875	n/a	WORD	678278	wordpools/wasnorm_wordpool_576.txt	LTP342	ltpFR2	8	1	SKIRT	1319	n/a	n/a	0	0	0
333.75634765625	n/a	WORD	683533	wordpools/wasnorm_wordpool_576.txt	LTP342	ltpFR2	8	1	EMPIRE	530	n/a	n/a	0	0	0
335.3720703125	n/a	START	686842	n/a	LTP342	ltpFR2	8	n/a	n/a	n/a	1	n/a	n/a	n/a	n/a
336.361328125	n/a	DISTRACTOR	688868	n/a	LTP342	ltpFR2	8	1	n/a	n/a	n/a	n/a	0	0	0
336.37109375	n/a	PROB	688888	n/a	LTP342	ltpFR2	8	n/a	n/a	n/a	1	19	8	3	8
338.3369140625	n/a	PROB	692914	n/a	LTP342	ltpFR2	8	n/a	n/a	n/a	1	8	3	1	4
339.80322265625	n/a	PROB	695917	n/a	LTP342	ltpFR2	8	n/a	n/a	n/a	1	15	8	4	3
341.43603515625	n/a	PROB	699261	n/a	LTP342	ltpFR2	8	n/a	n/a	n/a	1	12	5	5	2
342.43505859375	n/a	PROB	701307	n/a	LTP342	ltpFR2	8	n/a	n/a	n/a	1	16	5	6	5
344.26806640625	n/a	PROB	705061	n/a	LTP342	ltpFR2	8	n/a	n/a	n/a	1	7	3	2	2
345.86669921875	n/a	PROB	708335	n/a	LTP342	ltpFR2	8	n/a	n/a	n/a	1	15	3	7	5
347.265625	n/a	PROB	711200	n/a	LTP342	ltpFR2	8	n/a	n/a	n/a	1	18	6	3	9
349.5	n/a	PROB	715776	n/a	LTP342	ltpFR2	8	n/a	n/a	n/a	1	10	1	8	1
350.71484375	n/a	PROB	718264	n/a	LTP342	ltpFR2	8	n/a	n/a	n/a	1	14	6	5	3
352.03076171875	n/a	PROB	720959	n/a	LTP342	ltpFR2	8	n/a	n/a	n/a	1	7	3	2	2
353.94677734375	n/a	PROB	724883	n/a	LTP342	ltpFR2	8	n/a	n/a	n/a	1	11	7	2	2
355.62939453125	n/a	PROB	728329	n/a	LTP342	ltpFR2	8	n/a	n/a	n/a	1	16	6	9	1
357.41162109375	n/a	PROB	731979	n/a	LTP342	ltpFR2	8	n/a	n/a	n/a	1	14	1	5	8
359.33447265625	n/a	STOP	735917	n/a	LTP342	ltpFR2	8	n/a	n/a	n/a	1	n/a	n/a	n/a	n/a
361.26025390625	n/a	REC_START	739861	n/a	LTP342	ltpFR2	8	1	n/a	n/a	n/a	n/a	0	0	0
362.79345703125	n/a	REC_WORD	743001	wordpools/wasnorm_wordpool_576.txt	LTP342	ltpFR2	8	1	UMPIRE	1535	n/a	n/a	0	0	0
363.79541015625	n/a	REC_WORD	745053	wordpools/wasnorm_wordpool_576.txt	LTP342	ltpFR2	8	1	EMPIRE	530	n/a	n/a	0	0	0
365.33837890625	n/a	REC_WORD	748213	wordpools/wasnorm_wordpool_576.txt	LTP342	ltpFR2	8	1	MEAT	883	n/a	n/a	0	0	0
366.43310546875	n/a	REC_WORD	750455	wordpools/wasnorm_wordpool_576.txt	LTP342	ltpFR2	8	1	TURKEY	1520	n/a	n/a	0	0	0
368.39208984375	n/a	REC_WORD	754467	wordpools/wasnorm_wordpool_576.txt	LTP342	ltpFR2	8	1	SPOOL	1356	n/a	n/a	0	0	0
369.31201171875	n/a	REC_WORD	756351	wordpools/wasnorm_wordpool_576.txt	LTP342	ltpFR2	8	1	LACE	792	n/a	n/a	0	0	0
369.93701171875	n/a	REC_WORD	757631	wordpools/wasnorm_wordpool_576.txt	LTP342	ltpFR2	8	1	SILK	1307	n/a	n/a	0	0	0
370.58203125	n/a	REC_WORD	758952	wordpools/wasnorm_wordpool_576.txt	LTP342	ltpFR2	8	1	GAZELLE	628	n/a	n/a	0	0	0
371.39111328125	n/a	REC_WORD	760609	wordpools/wasnorm_wordpool_576.txt	LTP342	ltpFR2	8	1	ANTLER	29	n/a	n/a	0	0	0
374.68115234375	n/a	REC_WORD	767347	wordpools/wasnorm_wordpool_576.txt	LTP342	ltpFR2	8	1	BANJO	82	n/a	n/a	0	0	0
375.3701171875	n/a	REC_WORD	768758	wordpools/wasnorm_wordpool_576.txt	LTP342	ltpFR2	8	1	SCARECROW	1245	n/a	n/a	0	0	0
377.64111328125	n/a	REC_WORD	773409	wordpools/wasnorm_wordpool_576.txt	LTP342	ltpFR2	8	1	TISSUE	-1	n/a	n/a	0	0	0
378.4521484375	n/a	REC_WORD	775070	wordpools/wasnorm_wordpool_576.txt	LTP342	ltpFR2	8	1	CANDY	230	n/a	n/a	0	0	0
383.595703125	n/a	REC_WORD	785604	wordpools/wasnorm_wordpool_576.txt	LTP342	ltpFR2	8	1	SKIRT	1319	n/a	n/a	0	0	0
385.4755859375	n/a	REC_WORD	789454	wordpools/wasnorm_wordpool_576.txt	LTP342	ltpFR2	8	1	LEOPARD	812	n/a	n/a	0	0	0
386.20166015625	n/a	REC_WORD	790941	wordpools/wasnorm_wordpool_576.txt	LTP342	ltpFR2	8	1	COUNTRY	388	n/a	n/a	0	0	0
388.35888671875	n/a	REC_WORD	795359	wordpools/wasnorm_wordpool_576.txt	LTP342	ltpFR2	8	1	PRINCE	1124	n/a	n/a	0	0	0
391.91357421875	n/a	REC_WORD	802639	wordpools/wasnorm_wordpool_576.txt	LTP342	ltpFR2	8	1	MACHINE	852	n/a	n/a	0	0	0
392.87646484375	n/a	REC_WORD	804611	wordpools/wasnorm_wordpool_576.txt	LTP342	ltpFR2	8	1	TYPIST	1532	n/a	n/a	0	0	0
400.83544921875	n/a	REC_WORD	820911	wordpools/wasnorm_wordpool_576.txt	LTP342	ltpFR2	8	1	RAZOR	1171	n/a	n/a	0	0	0
403.96630859375	n/a	REC_WORD	827323	wordpools/wasnorm_wordpool_576.txt	LTP342	ltpFR2	8	1	PEPPER	1047	n/a	n/a	0	0	0
404.8701171875	n/a	REC_WORD	829174	wordpools/wasnorm_wordpool_576.txt	LTP342	ltpFR2	8	1	TURTLE	1522	n/a	n/a	0	0	0
451.69873046875	n/a	WORD	925079	wordpools/wasnorm_wordpool_576.txt	LTP342	ltpFR2	8	2	BLUEPRINT	142	n/a	n/a	0	0	0
454.51611328125	n/a	WORD	930849	wordpools/wasnorm_wordpool_576.txt	LTP342	ltpFR2	8	2	ARM	38	n/a	n/a	0	0	0
457.2138671875	n/a	WORD	936374	wordpools/wasnorm_wordpool_576.txt	LTP342	ltpFR2	8	2	MATCH	878	n/a	n/a	0	0	0
459.69580078125	n/a	WORD	941457	wordpools/wasnorm_wordpool_576.txt	LTP342	ltpFR2	8	2	PATROL	1027	n/a	n/a	0	0	0
462.46142578125	n/a	WORD	947121	wordpools/wasnorm_wordpool_576.txt	LTP342	ltpFR2	8	2	FARMER	553	n/a	n/a	0	0	0
464.9267578125	n/a	WORD	952170	wordpools/wasnorm_wordpool_576.txt	LTP342	ltpFR2	8	2	CUPBOARD	425	n/a	n/a	0	0	0
467.642578125	n/a	WORD	957732	wordpools/wasnorm_wordpool_576.txt	LTP342	ltpFR2	8	2	POISON	1096	n/a	n/a	0	0	0
470.107421875	n/a	WORD	962780	wordpools/wasnorm_wordpool_576.txt	LTP342	ltpFR2	8	2	HORNET	718	n/a	n/a	0	0	0
472.62353515625	n/a	WORD	967933	wordpools/wasnorm_wordpool_576.txt	LTP342	ltpFR2	8	2	STONE	1385	n/a	n/a	0	0	0
475.38818359375	n/a	WORD	973595	wordpools/wasnorm_wordpool_576.txt	LTP342	ltpFR2	8	2	MILDEW	893	n/a	n/a	0	0	0
477.8203125	n/a	WORD	978576	wordpools/wasnorm_wordpool_576.txt	LTP342	ltpFR2	8	2	TRUCK	1512	n/a	n/a	0	0	0
480.3349609375	n/a	WORD	983726	wordpools/wasnorm_wordpool_576.txt	LTP342	ltpFR2	8	2	WORLD	1622	n/a	n/a	0	0	0
482.76806640625	n/a	WORD	988709	wordpools/wasnorm_wordpool_576.txt	LTP342	ltpFR2	8	2	MARROW	872	n/a	n/a	0	0	0
485.5009765625	n/a	WORD	994306	wordpools/wasnorm_wordpool_576.txt	LTP342	ltpFR2	8	2	WASP	1593	n/a	n/a	0	0	0
488.23193359375	n/a	WORD	999899	wordpools/wasnorm_wordpool_576.txt	LTP342	ltpFR2	8	2	CABBAGE	210	n/a	n/a	0	0	0
490.6650390625	n/a	WORD	1004882	wordpools/wasnorm_wordpool_576.txt	LTP342	ltpFR2	8	2	FRAME	600	n/a	n/a	0	0	0
493.22998046875	n/a	WORD	1010135	wordpools/wasnorm_wordpool_576.txt	LTP342	ltpFR2	8	2	BEAVER	109	n/a	n/a	0	0	0
495.8447265625	n/a	WORD	1015490	wordpools/wasnorm_wordpool_576.txt	LTP342	ltpFR2	8	2	BEAST	108	n/a	n/a	0	0	0
498.37646484375	n/a	WORD	1020675	wordpools/wasnorm_wordpool_576.txt	LTP342	ltpFR2	8	2	DRAWING	494	n/a	n/a	0	0	0
501.142578125	n/a	WORD	1026340	wordpools/wasnorm_wordpool_576.txt	LTP342	ltpFR2	8	2	STAKE	1368	n/a	n/a	0	0	0
503.857421875	n/a	WORD	1031900	wordpools/wasnorm_wordpool_576.txt	LTP342	ltpFR2	8	2	JEANS	752	n/a	n/a	0	0	0
506.3896484375	n/a	WORD	1037086	wordpools/wasnorm_wordpool_576.txt	LTP342	ltpFR2	8	2	POCKET	1093	n/a	n/a	0	0	0
509.12158203125	n/a	WORD	1042681	wordpools/wasnorm_wordpool_576.txt	LTP342	ltpFR2	8	2	FEMALE	559	n/a	n/a	0	0	0
511.67138671875	n/a	WORD	1047903	wordpools/wasnorm_wordpool_576.txt	LTP342	ltpFR2	8	2	PISTON	1076	n/a	n/a	0	0	0
513.2861328125	n/a	START	1051210	n/a	LTP342	ltpFR2	8	n/a	n/a	n/a	2	n/a	n/a	n/a	n/a
514.18408203125	n/a	DISTRACTOR	1053049	n/a	LTP342	ltpFR2	8	2	n/a	n/a	n/a	n/a	0	0	0
514.18603515625	n/a	PROB	1053053	n/a	LTP342	ltpFR2	8	n/a	n/a	n/a	2	9	1	7	1
515.68505859375	n/a	PROB	1056123	n/a	LTP342	ltpFR2	8	n/a	n/a	n/a	2	7	1	3	3
516.9013671875	n/a	PROB	1058614	n/a	LTP342	ltpFR2	8	n/a	n/a	n/a	2	7	2	2	3
518.201171875	n/a	PROB	1061276	n/a	LTP342	ltpFR2	8	n/a	n/a	n/a	2	18	3	8	6
520.1328125	n/a	PROB	1065232	n/a	LTP342	ltpFR2	8	n/a	n/a	n/a	2	11	1	5	3
521.5498046875	n/a	PROB	1068134	n/a	LTP342	ltpFR2	8	n/a	n/a	n/a	2	26	9	9	8
524.39794921875	n/a	PROB	1073967	n/a	LTP342	ltpFR2	8	n/a	n/a	n/a	2	13	1	7	5
526.9130859375	n/a	PROB	1079118	n/a	LTP342	ltpFR2	8	n/a	n/a	n/a	2	15	8	2	5
528.24560546875	n/a	PROB	1081847	n/a	LTP342	ltpFR2	8	n/a	n/a	n/a	2	12	3	5	4
529.8447265625	n/a	PROB	1085122	n/a	LTP342	ltpFR2	8	n/a	n/a	n/a	2	14	4	1	9
531.82763671875	n/a	PROB	1089183	n/a	LTP342	ltpFR2	8	n/a	n/a	n/a	2	16	3	6	9
534.10986328125	n/a	PROB	1093857	n/a	LTP342	ltpFR2	8	n/a	n/a	n/a	2	7	2	3	3
537.28466796875	n/a	STOP	1100359	n/a	LTP342	ltpFR2	8	n/a	n/a	n/a	2	n/a	n/a	n/a	n/a
539.17431640625	n/a	REC_START	1104229	n/a	LTP342	ltpFR2	8	2	n/a	n/a	n/a	n/a	0	0	0
541.181640625	n/a	REC_WORD	1108340	wordpools/wasnorm_wordpool_576.txt	LTP342	ltpFR2	8	2	BLUEPRINT	142	n/a	n/a	0	0	0
542.24951171875	n/a	REC_WORD	1110527	wordpools/wasnorm_wordpool_576.txt	LTP342	ltpFR2	8	2	ARM	38	n/a	n/a	0	0	0
543.95654296875	n/a	REC_WORD	1114023	wordpools/wasnorm_wordpool_576.txt	LTP342	ltpFR2	8	2	PATROL	1027	n/a	n/a	0	0	0
544.84912109375	n/a	REC_WORD	1115851	wordpools/wasnorm_wordpool_576.txt	LTP342	ltpFR2	8	2	FARMER	553	n/a	n/a	0	0	0
545.83447265625	n/a	REC_WORD	1117869	wordpools/wasnorm_wordpool_576.txt	LTP342	ltpFR2	8	2	CUPBOARD	425	n/a	n/a	0	0	0
546.55419921875	n/a	REC_WORD	1119343	wordpools/wasnorm_wordpool_576.txt	LTP342	ltpFR2	8	2	HORNET	718	n/a	n/a	0	0	0
547.34619140625	n/a	REC_WORD	1120965	wordpools/wasnorm_wordpool_576.txt	LTP342	ltpFR2	8	2	WASP	1593	n/a	n/a	0	0	0
548.16845703125	n/a	REC_WORD	1122649	wordpools/wasnorm_wordpool_576.txt	LTP342	ltpFR2	8	2	POISON	1096	n/a	n/a	0	0	0
549.041015625	n/a	REC_WORD	1124436	wordpools/wasnorm_wordpool_576.txt	LTP342	ltpFR2	8	2	STONE	1385	n/a	n/a	0	0	0
549.95703125	n/a	REC_WORD	1126312	wordpools/wasnorm_wordpool_576.txt	LTP342	ltpFR2	8	2	MILDEW	893	n/a	n/a	0	0	0
553.13916015625	n/a	REC_WORD	1132829	wordpools/wasnorm_wordpool_576.txt	LTP342	ltpFR2	8	2	TRUCK	1512	n/a	n/a	0	0	0
554.001953125	n/a	REC_WORD	1134596	wordpools/wasnorm_wordpool_576.txt	LTP342	ltpFR2	8	2	WORLD	1622	n/a	n/a	0	0	0
555.48486328125	n/a	REC_WORD	1137633	wordpools/wasnorm_wordpool_576.txt	LTP342	ltpFR2	8	2	MARROW	872	n/a	n/a	0	0	0
557.9990234375	n/a	REC_WORD	1142782	wordpools/wasnorm_wordpool_576.txt	LTP342	ltpFR2	8	2	BEAVER	109	n/a	n/a	0	0	0
558.89208984375	n/a	REC_WORD	1144611	wordpools/wasnorm_wordpool_576.txt	LTP342	ltpFR2	8	2	BEAST	108	n/a	n/a	0	0	0
563.7529296875	n/a	REC_WORD	1154566	wordpools/wasnorm_wordpool_576.txt	LTP342	ltpFR2	8	2	STAKE	1368	n/a	n/a	0	0	0
564.724609375	n/a	REC_WORD	1156556	wordpools/wasnorm_wordpool_576.txt	LTP342	ltpFR2	8	2	JEANS	752	n/a	n/a	0	0	0
565.517578125	n/a	REC_WORD	1158180	wordpools/wasnorm_wordpool_576.txt	LTP342	ltpFR2	8	2	POCKET	1093	n/a	n/a	0	0	0
566.169921875	n/a	REC_WORD	1159516	wordpools/wasnorm_wordpool_576.txt	LTP342	ltpFR2	8	2	FEMALE	559	n/a	n/a	0	0	0
569.7734375	n/a	REC_WORD	1166896	wordpools/wasnorm_wordpool_576.txt	LTP342	ltpFR2	8	2	CABBAGE	210	n/a	n/a	0	0	0
629.630859375	n/a	WORD	1289484	wordpools/wasnorm_wordpool_576.txt	LTP342	ltpFR2	8	3	JELLY	755	n/a	n/a	0	0	0
632.24609375	n/a	WORD	1294840	wordpools/wasnorm_wordpool_576.txt	LTP342	ltpFR2	8	3	SHOVEL	1295	n/a	n/a	0	0	0
634.74462890625	n/a	WORD	1299957	wordpools/wasnorm_wordpool_576.txt	LTP342	ltpFR2	8	3	CITRUS	313	n/a	n/a	0	0	0
637.259765625	n/a	WORD	1305108	wordpools/wasnorm_wordpool_576.txt	LTP342	ltpFR2	8	3	CARROT	249	n/a	n/a	0	0	0
640.02587890625	n/a	WORD	1310773	wordpools/wasnorm_wordpool_576.txt	LTP342	ltpFR2	8	3	PERCH	1048	n/a	n/a	0	0	0
642.49169921875	n/a	WORD	1315823	wordpools/wasnorm_wordpool_576.txt	LTP342	ltpFR2	8	3	COLONEL	348	n/a	n/a	0	0	0
645.08935546875	n/a	WORD	1321143	wordpools/wasnorm_wordpool_576.txt	LTP342	ltpFR2	8	3	COMPASS	358	n/a	n/a	0	0	0
647.6064453125	n/a	WORD	1326298	wordpools/wasnorm_wordpool_576.txt	LTP342	ltpFR2	8	3	DORM	488	n/a	n/a	0	0	0
650.3203125	n/a	WORD	1331856	wordpools/wasnorm_wordpool_576.txt	LTP342	ltpFR2	8	3	CEILING	265	n/a	n/a	0	0	0
653.15234375	n/a	WORD	1337656	wordpools/wasnorm_wordpool_576.txt	LTP342	ltpFR2	8	3	SPARROW	1347	n/a	n/a	0	0	0
655.68408203125	n/a	WORD	1342841	wordpools/wasnorm_wordpool_576.txt	LTP342	ltpFR2	8	3	FIREMAN	569	n/a	n/a	0	0	0
658.3330078125	n/a	WORD	1348266	wordpools/wasnorm_wordpool_576.txt	LTP342	ltpFR2	8	3	COURSE	390	n/a	n/a	0	0	0
661.09912109375	n/a	WORD	1353931	wordpools/wasnorm_wordpool_576.txt	LTP342	ltpFR2	8	3	PIGMENT	1066	n/a	n/a	0	0	0
663.5322265625	n/a	WORD	1358914	wordpools/wasnorm_wordpool_576.txt	LTP342	ltpFR2	8	3	OZONE	996	n/a	n/a	0	0	0
666.09619140625	n/a	WORD	1364165	wordpools/wasnorm_wordpool_576.txt	LTP342	ltpFR2	8	3	TOASTER	1472	n/a	n/a	0	0	0
668.8779296875	n/a	WORD	1369862	wordpools/wasnorm_wordpool_576.txt	LTP342	ltpFR2	8	3	SEAGULL	1261	n/a	n/a	0	0	0
671.5947265625	n/a	WORD	1375426	wordpools/wasnorm_wordpool_576.txt	LTP342	ltpFR2	8	3	PIGEON	1065	n/a	n/a	0	0	0
674.04296875	n/a	WORD	1380440	wordpools/wasnorm_wordpool_576.txt	LTP342	ltpFR2	8	3	TORTOISE	1486	n/a	n/a	0	0	0
676.79150390625	n/a	WORD	1386069	wordpools/wasnorm_wordpool_576.txt	LTP342	ltpFR2	8	3	PUPPY	1144	n/a	n/a	0	0	0
679.5908203125	n/a	WORD	1391802	wordpools/wasnorm_wordpool_576.txt	LTP342	ltpFR2	8	3	BUG	187	n/a	n/a	0	0	0
682.0556640625	n/a	WORD	1396850	wordpools/wasnorm_wordpool_576.txt	LTP342	ltpFR2	8	3	GRILL	661	n/a	n/a	0	0	0
684.60546875	n/a	WORD	1402072	wordpools/wasnorm_wordpool_576.txt	LTP342	ltpFR2	8	3	SWITCH	1422	n/a	n/a	0	0	0
687.33642578125	n/a	WORD	1407665	wordpools/wasnorm_wordpool_576.txt	LTP342	ltpFR2	8	3	MARKER	870	n/a	n/a	0	0	0
689.935546875	n/a	WORD	1412988	wordpools/wasnorm_wordpool_576.txt	LTP342	ltpFR2	8	3	PARROT	1015	n/a	n/a	0	0	0
691.55224609375	n/a	START	1416299	n/a	LTP342	ltpFR2	8	n/a	n/a	n/a	3	n/a	n/a	n/a	n/a
692.6611328125	n/a	DISTRACTOR	1418570	n/a	LTP342	ltpFR2	8	3	n/a	n/a	n/a	n/a	0	0	0
692.66845703125	n/a	PROB	1418585	n/a	LTP342	ltpFR2	8	n/a	n/a	n/a	3	8	5	2	1
694.13330078125	n/a	PROB	1421585	n/a	LTP342	ltpFR2	8	n/a	n/a	n/a	3	18	5	7	6
697.31494140625	n/a	PROB	1428101	n/a	LTP342	ltpFR2	8	n/a	n/a	n/a	3	8	1	3	4
698.73095703125	n/a	PROB	1431001	n/a	LTP342	ltpFR2	8	n/a	n/a	n/a	3	8	1	6	1
699.8798828125	n/a	PROB	1433354	n/a	LTP342	ltpFR2	8	n/a	n/a	n/a	3	16	6	2	8
702.2958984375	n/a	PROB	1438302	n/a	LTP342	ltpFR2	8	n/a	n/a	n/a	3	7	4	2	1
703.47900390625	n/a	PROB	1440725	n/a	LTP342	ltpFR2	8	n/a	n/a	n/a	3	19	8	2	9
704.81103515625	n/a	PROB	1443453	n/a	LTP342	ltpFR2	8	n/a	n/a	n/a	3	16	5	3	8
706.16064453125	n/a	PROB	1446217	n/a	LTP342	ltpFR2	8	n/a	n/a	n/a	3	7	5	1	1
707.6279296875	n/a	PROB	1449222	n/a	LTP342	ltpFR2	8	n/a	n/a	n/a	3	16	2	5	9
709.0087890625	n/a	PROB	1452050	n/a	LTP342	ltpFR2	8	n/a	n/a	n/a	3	17	9	6	2
711.1416015625	n/a	PROB	1456418	n/a	LTP342	ltpFR2	8	n/a	n/a	n/a	3	15	2	6	7
712.99072265625	n/a	PROB	1460205	n/a	LTP342	ltpFR2	8	n/a	n/a	n/a	3	14	7	1	6
714.5927734375	n/a	STOP	1463486	n/a	LTP342	ltpFR2	8	n/a	n/a	n/a	3	n/a	n/a	n/a	n/a
717.37158203125	n/a	REC_START	1469177	n/a	LTP342	ltpFR2	8	3	n/a	n/a	n/a	n/a	0	0	0
720.08154296875	n/a	REC_WORD	1474727	wordpools/wasnorm_wordpool_576.txt	LTP342	ltpFR2	8	3	SPARROW	1347	n/a	n/a	0	0	0
720.9482421875	n/a	REC_WORD	1476502	wordpools/wasnorm_wordpool_576.txt	LTP342	ltpFR2	8	3	PIGEON	1065	n/a	n/a	0	0	0
721.54541015625	n/a	REC_WORD	1477725	wordpools/wasnorm_wordpool_576.txt	LTP342	ltpFR2	8	3	SEAGULL	1261	n/a	n/a	0	0	0
724.87451171875	n/a	REC_WORD	1484543	wordpools/wasnorm_wordpool_576.txt	LTP342	ltpFR2	8	3	BUG	187	n/a	n/a	0	0	0
725.55126953125	n/a	REC_WORD	1485929	wordpools/wasnorm_wordpool_576.txt	LTP342	ltpFR2	8	3	PUPPY	1144	n/a	n/a	0	0	0
726.5341796875	n/a	REC_WORD	1487942	wordpools/wasnorm_wordpool_576.txt	LTP342	ltpFR2	8	3	TORTOISE	1486	n/a	n/a	0	0	0
730.60302734375	n/a	REC_WORD	1496275	wordpools/wasnorm_wordpool_576.txt	LTP342	ltpFR2	8	3	COLONEL	348	n/a	n/a	0	0	0
731.2822265625	n/a	REC_WORD	1497666	wordpools/wasnorm_wordpool_576.txt	LTP342	ltpFR2	8	3	COMPASS	358	n/a	n/a	0	0	0
733.201171875	n/a	REC_WORD	1501596	wordpools/wasnorm_wordpool_576.txt	LTP342	ltpFR2	8	3	JELLY	755	n/a	n/a	0	0	0
733.6953125	n/a	REC_WORD	1502608	wordpools/wasnorm_wordpool_576.txt	LTP342	ltpFR2	8	3	SHOVEL	1295	n/a	n/a	0	0	0
734.2822265625	n/a	REC_WORD	1503810	wordpools/wasnorm_wordpool_576.txt	LTP342	ltpFR2	8	3	CITRUS	313	n/a	n/a	0	0	0
735.04931640625	n/a	REC_WORD	1505381	wordpools/wasnorm_wordpool_576.txt	LTP342	ltpFR2	8	3	CARROT	249	n/a	n/a	0	0	0
739.9970703125	n/a	REC_WORD	1515514	wordpools/wasnorm_wordpool_576.txt	LTP342	ltpFR2	8	3	DORM	488	n/a	n/a	0	0	0
740.6669921875	n/a	REC_WORD	1516886	wordpools/wasnorm_wordpool_576.txt	LTP342	ltpFR2	8	3	CEILING	265	n/a	n/a	0	0	0
741.49609375	n/a	REC_WORD	1518584	wordpools/wasnorm_wordpool_576.txt	LTP342	ltpFR2	8	3	FIREMAN	569	n/a	n/a	0	0	0
746.6669921875	n/a	REC_WORD	1529174	wordpools/wasnorm_wordpool_576.txt	LTP342	ltpFR2	8	3	TOASTER	1472	n/a	n/a	0	0	0
747.44580078125	n/a	REC_WORD	1530769	wordpools/wasnorm_wordpool_576.txt	LTP342	ltpFR2	8	3	GRILL	661	n/a	n/a	0	0	0
750.9775390625	n/a	REC_WORD	1538002	wordpools/wasnorm_wordpool_576.txt	LTP342	ltpFR2	8	3	MARKER	870	n/a	n/a	0	0	0
757.02734375	n/a	REC_WORD	1550392	wordpools/wasnorm_wordpool_576.txt	LTP342	ltpFR2	8	3	PARROT	1015	n/a	n/a	0	0	0
807.828125	n/a	DISTRACTOR	1654432	n/a	LTP342	ltpFR2	8	4	n/a	n/a	n/a	n/a	0	0	0
807.828125	n/a	START	1654432	n/a	LTP342	ltpFR2	8	n/a	n/a	n/a	4	n/a	n/a	n/a	n/a
807.84521484375	n/a	PROB	1654467	n/a	LTP342	ltpFR2	8	n/a	n/a	n/a	4	13	2	2	9
809.19384765625	n/a	PROB	1657229	n/a	LTP342	ltpFR2	8	n/a	n/a	n/a	4	21	5	8	8
811.02685546875	n/a	PROB	1660983	n/a	LTP342	ltpFR2	8	n/a	n/a	n/a	4	7	5	1	1
812.35888671875	n/a	PROB	1663711	n/a	LTP342	ltpFR2	8	n/a	n/a	n/a	4	19	4	8	7
813.97509765625	n/a	PROB	1667021	n/a	LTP342	ltpFR2	8	n/a	n/a	n/a	4	17	6	9	2
815.90771484375	n/a	PROB	1670979	n/a	LTP342	ltpFR2	8	n/a	n/a	n/a	4	13	4	5	4
818.07275390625	n/a	PROB	1675413	n/a	LTP342	ltpFR2	8	n/a	n/a	n/a	4	8	4	2	2
819.5908203125	n/a	PROB	1678522	n/a	LTP342	ltpFR2	8	n/a	n/a	n/a	4	14	3	2	9
821.20458984375	n/a	PROB	1681827	n/a	LTP342	ltpFR2	8	n/a	n/a	n/a	4	21	9	4	8
822.7705078125	n/a	PROB	1685034	n/a	LTP342	ltpFR2	8	n/a	n/a	n/a	4	17	9	1	7
824.37060546875	n/a	PROB	1688311	n/a	LTP342	ltpFR2	8	n/a	n/a	n/a	4	18	8	4	6
825.90234375	n/a	PROB	1691448	n/a	LTP342	ltpFR2	8	n/a	n/a	n/a	4	14	2	7	5
827.302734375	n/a	PROB	1694316	n/a	LTP342	ltpFR2	8	n/a	n/a	n/a	4	18	5	9	4
829.55224609375	n/a	PROB	1698923	n/a	LTP342	ltpFR2	8	n/a	n/a	n/a	4	16	5	9	2
831.38427734375	n/a	STOP	1702675	n/a	LTP342	ltpFR2	8	n/a	n/a	n/a	4	n/a	n/a	n/a	n/a
832.849609375	n/a	WORD	1705676	wordpools/wasnorm_wordpool_576.txt	LTP342	ltpFR2	8	4	NIGHTGOWN	953	n/a	n/a	0	0	0
835.43115234375	n/a	WORD	1710963	wordpools/wasnorm_wordpool_576.txt	LTP342	ltpFR2	8	4	GAVEL	627	n/a	n/a	0	0	0
838.18017578125	n/a	WORD	1716593	wordpools/wasnorm_wordpool_576.txt	LTP342	ltpFR2	8	4	GRAPE	654	n/a	n/a	0	0	0
840.63037109375	n/a	WORD	1721611	wordpools/wasnorm_wordpool_576.txt	LTP342	ltpFR2	8	4	COOKBOOK	373	n/a	n/a	0	0	0
843.17822265625	n/a	WORD	1726829	wordpools/wasnorm_wordpool_576.txt	LTP342	ltpFR2	8	4	COTTAGE	384	n/a	n/a	0	0	0
845.67724609375	n/a	WORD	1731947	wordpools/wasnorm_wordpool_576.txt	LTP342	ltpFR2	8	4	JUGGLER	763	n/a	n/a	0	0	0
848.27490234375	n/a	WORD	1737267	wordpools/wasnorm_wordpool_576.txt	LTP342	ltpFR2	8	4	CLOTHES	327	n/a	n/a	0	0	0
850.99072265625	n/a	WORD	1742829	wordpools/wasnorm_wordpool_576.txt	LTP342	ltpFR2	8	4	BLOUSE	139	n/a	n/a	0	0	0
853.72265625	n/a	WORD	1748424	wordpools/wasnorm_wordpool_576.txt	LTP342	ltpFR2	8	4	SNAIL	1332	n/a	n/a	0	0	0
856.18896484375	n/a	WORD	1753475	wordpools/wasnorm_wordpool_576.txt	LTP342	ltpFR2	8	4	BRANDY	169	n/a	n/a	0	0	0
858.82080078125	n/a	WORD	1758865	wordpools/wasnorm_wordpool_576.txt	LTP342	ltpFR2	8	4	FIREPLACE	570	n/a	n/a	0	0	0
861.41943359375	n/a	WORD	1764187	wordpools/wasnorm_wordpool_576.txt	LTP342	ltpFR2	8	4	ORANGE	980	n/a	n/a	0	0	0
864.05126953125	n/a	WORD	1769577	wordpools/wasnorm_wordpool_576.txt	LTP342	ltpFR2	8	4	WITNESS	1618	n/a	n/a	0	0	0
866.81640625	n/a	WORD	1775240	wordpools/wasnorm_wordpool_576.txt	LTP342	ltpFR2	8	4	CLIMBER	323	n/a	n/a	0	0	0
869.33251953125	n/a	WORD	1780393	wordpools/wasnorm_wordpool_576.txt	LTP342	ltpFR2	8	4	CANYON	235	n/a	n/a	0	0	0
871.7802734375	n/a	WORD	1785406	wordpools/wasnorm_wordpool_576.txt	LTP342	ltpFR2	8	4	LUNCH	849	n/a	n/a	0	0	0
874.564453125	n/a	WORD	1791108	wordpools/wasnorm_wordpool_576.txt	LTP342	ltpFR2	8	4	ELBOW	520	n/a	n/a	0	0	0
877.2109375	n/a	WORD	1796528	wordpools/wasnorm_wordpool_576.txt	LTP342	ltpFR2	8	4	POWDER	1117	n/a	n/a	0	0	0
879.6611328125	n/a	WORD	1801546	wordpools/wasnorm_wordpool_576.txt	LTP342	ltpFR2	8	4	ACTRESS	6	n/a	n/a	0	0	0
882.091796875	n/a	WORD	1806524	wordpools/wasnorm_wordpool_576.txt	LTP342	ltpFR2	8	4	CRITIC	410	n/a	n/a	0	0	0
884.8408203125	n/a	WORD	1812154	wordpools/wasnorm_wordpool_576.txt	LTP342	ltpFR2	8	4	SPHINX	1349	n/a	n/a	0	0	0
887.6240234375	n/a	WORD	1817854	wordpools/wasnorm_wordpool_576.txt	LTP342	ltpFR2	8	4	SHARK	1275	n/a	n/a	0	0	0
890.28857421875	n/a	WORD	1823311	wordpools/wasnorm_wordpool_576.txt	LTP342	ltpFR2	8	4	BRACES	164	n/a	n/a	0	0	0
892.8876953125	n/a	WORD	1828634	wordpools/wasnorm_wordpool_576.txt	LTP342	ltpFR2	8	4	SLOPE	1328	n/a	n/a	0	0	0
894.5048828125	n/a	START	1831946	n/a	LTP342	ltpFR2	8	n/a	n/a	n/a	5	n/a	n/a	n/a	n/a
895.5546875	n/a	DISTRACTOR	1834096	n/a	LTP342	ltpFR2	8	4	n/a	n/a	n/a	n/a	0	0	0
895.57080078125	n/a	PROB	1834129	n/a	LTP342	ltpFR2	8	n/a	n/a	n/a	5	11	4	1	6
897.33544921875	n/a	PROB	1837743	n/a	LTP342	ltpFR2	8	n/a	n/a	n/a	5	12	2	1	9
898.6845703125	n/a	PROB	1840506	n/a	LTP342	ltpFR2	8	n/a	n/a	n/a	5	12	2	9	1
900.25048828125	n/a	PROB	1843713	n/a	LTP342	ltpFR2	8	n/a	n/a	n/a	5	21	5	7	9
902.31640625	n/a	PROB	1847944	n/a	LTP342	ltpFR2	8	n/a	n/a	n/a	5	21	8	4	9
903.96533203125	n/a	PROB	1851321	n/a	LTP342	ltpFR2	8	n/a	n/a	n/a	5	16	3	7	6
905.44921875	n/a	PROB	1854360	n/a	LTP342	ltpFR2	8	n/a	n/a	n/a	5	21	7	9	5
908.0634765625	n/a	PROB	1859714	n/a	LTP342	ltpFR2	8	n/a	n/a	n/a	5	16	3	9	4
909.63037109375	n/a	PROB	1862923	n/a	LTP342	ltpFR2	8	n/a	n/a	n/a	5	16	7	3	6
911.04541015625	n/a	PROB	1865821	n/a	LTP342	ltpFR2	8	n/a	n/a	n/a	5	13	3	9	1
912.31103515625	n/a	PROB	1868413	n/a	LTP342	ltpFR2	8	n/a	n/a	n/a	5	9	1	5	3
914.34423828125	n/a	PROB	1872577	n/a	LTP342	ltpFR2	8	n/a	n/a	n/a	5	16	7	3	6
915.69287109375	n/a	PROB	1875339	n/a	LTP342	ltpFR2	8	n/a	n/a	n/a	5	21	5	7	9
917.6728515625	n/a	STOP	1879394	n/a	LTP342	ltpFR2	8	n/a	n/a	n/a	5	n/a	n/a	n/a	n/a
920.40771484375	n/a	REC_START	1884995	n/a	LTP342	ltpFR2	8	4	n/a	n/a	n/a	n/a	0	0	0
922.0419921875	n/a	REC_WORD	1888342	wordpools/wasnorm_wordpool_576.txt	LTP342	ltpFR2	8	4	SHARK	1275	n/a	n/a	0	0	0
922.97900390625	n/a	REC_WORD	1890261	wordpools/wasnorm_wordpool_576.txt	LTP342	ltpFR2	8	4	BRACES	164	n/a	n/a	0	0	0
923.64892578125	n/a	REC_WORD	1891633	wordpools/wasnorm_wordpool_576.txt	LTP342	ltpFR2	8	4	SLOPE	1328	n/a	n/a	0	0	0
925.2119140625	n/a	REC_WORD	1894834	wordpools/wasnorm_wordpool_576.txt	LTP342	ltpFR2	8	4	ACTRESS	6	n/a	n/a	0	0	0
925.84765625	n/a	REC_WORD	1896136	wordpools/wasnorm_wordpool_576.txt	LTP342	ltpFR2	8	4	CRITIC	410	n/a	n/a	0	0	0
926.3330078125	n/a	REC_WORD	1897130	wordpools/wasnorm_wordpool_576.txt	LTP342	ltpFR2	8	4	SPHINX	1349	n/a	n/a	0	0	0
927.28564453125	n/a	REC_WORD	1899081	wordpools/wasnorm_wordpool_576.txt	LTP342	ltpFR2	8	4	CLIMBER	323	n/a	n/a	0	0	0
928.02197265625	n/a	REC_WORD	1900589	wordpools/wasnorm_wordpool_576.txt	LTP342	ltpFR2	8	4	CANYON	235	n/a	n/a	0	0	0
928.8076171875	n/a	REC_WORD	1902198	wordpools/wasnorm_wordpool_576.txt	LTP342	ltpFR2	8	4	ELBOW	520	n/a	n/a	0	0	0
929.4365234375	n/a	REC_WORD	1903486	wordpools/wasnorm_wordpool_576.txt	LTP342	ltpFR2	8	4	LUNCH	849	n/a	n/a	0	0	0
933.12060546875	n/a	REC_WORD	1911031	wordpools/wasnorm_wordpool_576.txt	LTP342	ltpFR2	8	4	COOKBOOK	373	n/a	n/a	0	0	0
933.9384765625	n/a	REC_WORD	1912706	wordpools/wasnorm_wordpool_576.txt	LTP342	ltpFR2	8	4	NIGHTGOWN	953	n/a	n/a	0	0	0
934.75634765625	n/a	REC_WORD	1914381	wordpools/wasnorm_wordpool_576.txt	LTP342	ltpFR2	8	4	BLOUSE	139	n/a	n/a	0	0	0
937.447265625	n/a	REC_WORD	1919892	wordpools/wasnorm_wordpool_576.txt	LTP342	ltpFR2	8	4	CITRUS	313	n/a	n/a	0	0	0
940.0283203125	n/a	REC_WORD	1925178	wordpools/wasnorm_wordpool_576.txt	LTP342	ltpFR2	8	4	ORANGE	980	n/a	n/a	0	0	0
943.03955078125	n/a	REC_WORD	1931345	wordpools/wasnorm_wordpool_576.txt	LTP342	ltpFR2	8	4	BRANDY	169	n/a	n/a	0	0	0
943.6201171875	n/a	REC_WORD	1932534	wordpools/wasnorm_wordpool_576.txt	LTP342	ltpFR2	8	4	FIREPLACE	570	n/a	n/a	0	0	0
945.8603515625	n/a	REC_WORD	1937122	wordpools/wasnorm_wordpool_576.txt	LTP342	ltpFR2	8	4	JUGGLER	763	n/a	n/a	0	0	0
948.77099609375	n/a	REC_WORD	1943083	wordpools/wasnorm_wordpool_576.txt	LTP342	ltpFR2	8	4	GAVEL	627	n/a	n/a	0	0	0
949.5439453125	n/a	REC_WORD	1944666	wordpools/wasnorm_wordpool_576.txt	LTP342	ltpFR2	8	4	GRAPE	654	n/a	n/a	0	0	0
950.9052734375	n/a	REC_WORD	1947454	wordpools/wasnorm_wordpool_576.txt	LTP342	ltpFR2	8	4	COTTAGE	384	n/a	n/a	0	0	0
1010.8642578125	n/a	WORD	2070250	wordpools/wasnorm_wordpool_576.txt	LTP342	ltpFR2	8	5	EAGLE	512	n/a	n/a	0	0	0
1013.41259765625	n/a	WORD	2075469	wordpools/wasnorm_wordpool_576.txt	LTP342	ltpFR2	8	5	TERMITE	1451	n/a	n/a	0	0	0
1015.861328125	n/a	WORD	2080484	wordpools/wasnorm_wordpool_576.txt	LTP342	ltpFR2	8	5	BALLOON	75	n/a	n/a	0	0	0
1018.62841796875	n/a	WORD	2086151	wordpools/wasnorm_wordpool_576.txt	LTP342	ltpFR2	8	5	HARP	689	n/a	n/a	0	0	0
1021.17626953125	n/a	WORD	2091369	wordpools/wasnorm_wordpool_576.txt	LTP342	ltpFR2	8	5	POET	1095	n/a	n/a	0	0	0
1023.625	n/a	WORD	2096384	wordpools/wasnorm_wordpool_576.txt	LTP342	ltpFR2	8	5	LIPSTICK	829	n/a	n/a	0	0	0
1026.1728515625	n/a	WORD	2101602	wordpools/wasnorm_wordpool_576.txt	LTP342	ltpFR2	8	5	LIGHTNING	820	n/a	n/a	0	0	0
1028.921875	n/a	WORD	2107232	wordpools/wasnorm_wordpool_576.txt	LTP342	ltpFR2	8	5	MAMMAL	861	n/a	n/a	0	0	0
1031.52197265625	n/a	WORD	2112557	wordpools/wasnorm_wordpool_576.txt	LTP342	ltpFR2	8	5	BISON	131	n/a	n/a	0	0	0
1034.02001953125	n/a	WORD	2117673	wordpools/wasnorm_wordpool_576.txt	LTP342	ltpFR2	8	5	SPIDER	1351	n/a	n/a	0	0	0
1036.7177734375	n/a	WORD	2123198	wordpools/wasnorm_wordpool_576.txt	LTP342	ltpFR2	8	5	CHIPMUNK	304	n/a	n/a	0	0	0
1039.2666015625	n/a	WORD	2128418	wordpools/wasnorm_wordpool_576.txt	LTP342	ltpFR2	8	5	RABBIT	1152	n/a	n/a	0	0	0
1041.71533203125	n/a	WORD	2133433	wordpools/wasnorm_wordpool_576.txt	LTP342	ltpFR2	8	5	ROD	1203	n/a	n/a	0	0	0
1044.33154296875	n/a	WORD	2138791	wordpools/wasnorm_wordpool_576.txt	LTP342	ltpFR2	8	5	PENGUIN	1044	n/a	n/a	0	0	0
1046.84619140625	n/a	WORD	2143941	wordpools/wasnorm_wordpool_576.txt	LTP342	ltpFR2	8	5	RUST	1219	n/a	n/a	0	0	0
1049.57958984375	n/a	WORD	2149539	wordpools/wasnorm_wordpool_576.txt	LTP342	ltpFR2	8	5	COCKTAIL	338	n/a	n/a	0	0	0
1052.0615234375	n/a	WORD	2154622	wordpools/wasnorm_wordpool_576.txt	LTP342	ltpFR2	8	5	PALACE	1006	n/a	n/a	0	0	0
1054.59423828125	n/a	WORD	2159809	wordpools/wasnorm_wordpool_576.txt	LTP342	ltpFR2	8	5	CROWN	415	n/a	n/a	0	0	0
1057.125	n/a	WORD	2164992	wordpools/wasnorm_wordpool_576.txt	LTP342	ltpFR2	8	5	VALVE	1546	n/a	n/a	0	0	0
1059.55810546875	n/a	WORD	2169975	wordpools/wasnorm_wordpool_576.txt	LTP342	ltpFR2	8	5	TOMBSTONE	1478	n/a	n/a	0	0	0
1062.2890625	n/a	WORD	2175568	wordpools/wasnorm_wordpool_576.txt	LTP342	ltpFR2	8	5	BARREL	91	n/a	n/a	0	0	0
1064.955078125	n/a	WORD	2181028	wordpools/wasnorm_wordpool_576.txt	LTP342	ltpFR2	8	5	FOX	598	n/a	n/a	0	0	0
1067.7529296875	n/a	WORD	2186758	wordpools/wasnorm_wordpool_576.txt	LTP342	ltpFR2	8	5	PUDDLE	1140	n/a	n/a	0	0	0
1070.3359375	n/a	WORD	2192048	wordpools/wasnorm_wordpool_576.txt	LTP342	ltpFR2	8	5	FLAG	573	n/a	n/a	0	0	0
1071.95166015625	n/a	START	2195357	n/a	LTP342	ltpFR2	8	n/a	n/a	n/a	6	n/a	n/a	n/a	n/a
1073.0126953125	n/a	DISTRACTOR	2197530	n/a	LTP342	ltpFR2	8	5	n/a	n/a	n/a	n/a	0	0	0
1073.017578125	n/a	PROB	2197540	n/a	LTP342	ltpFR2	8	n/a	n/a	n/a	6	18	8	4	6
1075.2666015625	n/a	PROB	2202146	n/a	LTP342	ltpFR2	8	n/a	n/a	n/a	6	10	4	2	4
1076.732421875	n/a	PROB	2205148	n/a	LTP342	ltpFR2	8	n/a	n/a	n/a	6	19	7	6	6
1078.86474609375	n/a	PROB	2209515	n/a	LTP342	ltpFR2	8	n/a	n/a	n/a	6	18	4	6	8
1080.3974609375	n/a	PROB	2212654	n/a	LTP342	ltpFR2	8	n/a	n/a	n/a	6	16	6	7	3
1082.013671875	n/a	PROB	2215964	n/a	LTP342	ltpFR2	8	n/a	n/a	n/a	6	8	2	2	4
1083.2294921875	n/a	PROB	2218454	n/a	LTP342	ltpFR2	8	n/a	n/a	n/a	6	22	7	8	7
1084.92822265625	n/a	PROB	2221933	n/a	LTP342	ltpFR2	8	n/a	n/a	n/a	6	2	5	3	4
1086.92724609375	n/a	PROB	2226027	n/a	LTP342	ltpFR2	8	n/a	n/a	n/a	6	16	1	9	6
1088.84326171875	n/a	PROB	2229951	n/a	LTP342	ltpFR2	8	n/a	n/a	n/a	6	17	7	9	1
1090.5263671875	n/a	PROB	2233398	n/a	LTP342	ltpFR2	8	n/a	n/a	n/a	6	10	1	4	5
1092.05810546875	n/a	PROB	2236535	n/a	LTP342	ltpFR2	8	n/a	n/a	n/a	6	10	2	7	1
1093.27392578125	n/a	PROB	2239025	n/a	LTP342	ltpFR2	8	n/a	n/a	n/a	6	19	5	9	5
1095.06494140625	n/a	STOP	2242693	n/a	LTP342	ltpFR2	8	n/a	n/a	n/a	6	n/a	n/a	n/a	n/a
1097.80615234375	n/a	REC_START	2248307	n/a	LTP342	ltpFR2	8	5	n/a	n/a	n/a	n/a	0	0	0
1099.408203125	n/a	REC_WORD	2251588	wordpools/wasnorm_wordpool_576.txt	LTP342	ltpFR2	8	5	MAMMAL	861	n/a	n/a	0	0	0
1100.08203125	n/a	REC_WORD	2252968	wordpools/wasnorm_wordpool_576.txt	LTP342	ltpFR2	8	5	BISON	131	n/a	n/a	0	0	0
1100.64404296875	n/a	REC_WORD	2254119	wordpools/wasnorm_wordpool_576.txt	LTP342	ltpFR2	8	5	EAGLE	512	n/a	n/a	0	0	0
1101.32177734375	n/a	REC_WORD	2255507	wordpools/wasnorm_wordpool_576.txt	LTP342	ltpFR2	8	5	TERMITE	1451	n/a	n/a	0	0	0
1102.63671875	n/a	REC_WORD	2258200	wordpools/wasnorm_wordpool_576.txt	LTP342	ltpFR2	8	5	CHIPMUNK	304	n/a	n/a	0	0	0
1103.19775390625	n/a	REC_WORD	2259349	wordpools/wasnorm_wordpool_576.txt	LTP342	ltpFR2	8	5	SPIDER	1351	n/a	n/a	0	0	0
1105.85595703125	n/a	REC_WORD	2264793	wordpools/wasnorm_wordpool_576.txt	LTP342	ltpFR2	8	5	PENGUIN	1044	n/a	n/a	0	0	0
1106.74755859375	n/a	REC_WORD	2266619	wordpools/wasnorm_wordpool_576.txt	LTP342	ltpFR2	8	5	FOX	598	n/a	n/a	0	0	0
1109.6767578125	n/a	REC_WORD	2272618	wordpools/wasnorm_wordpool_576.txt	LTP342	ltpFR2	8	5	ROD	1203	n/a	n/a	0	0	0
1110.349609375	n/a	REC_WORD	2273996	wordpools/wasnorm_wordpool_576.txt	LTP342	ltpFR2	8	5	LIGHTNING	820	n/a	n/a	0	0	0
1111.0068359375	n/a	REC_WORD	2275342	wordpools/wasnorm_wordpool_576.txt	LTP342	ltpFR2	8	5	LIPSTICK	829	n/a	n/a	0	0	0
1111.5927734375	n/a	REC_WORD	2276542	wordpools/wasnorm_wordpool_576.txt	LTP342	ltpFR2	8	5	HARP	689	n/a	n/a	0	0	0
1112.43359375	n/a	REC_WORD	2278264	wordpools/wasnorm_wordpool_576.txt	LTP342	ltpFR2	8	5	POET	1095	n/a	n/a	0	0	0
1116.822265625	n/a	REC_WORD	2287252	wordpools/wasnorm_wordpool_576.txt	LTP342	ltpFR2	8	5	BALLOON	75	n/a	n/a	0	0	0
1117.7666015625	n/a	REC_WORD	2289186	wordpools/wasnorm_wordpool_576.txt	LTP342	ltpFR2	8	5	PUDDLE	1140	n/a	n/a	0	0	0
1120.658203125	n/a	REC_WORD	2295108	wordpools/wasnorm_wordpool_576.txt	LTP342	ltpFR2	8	5	TOMBSTONE	1478	n/a	n/a	0	0	0
1121.369140625	n/a	REC_WORD	2296564	wordpools/wasnorm_wordpool_576.txt	LTP342	ltpFR2	8	5	BARREL	91	n/a	n/a	0	0	0
1122.05322265625	n/a	REC_WORD	2297965	wordpools/wasnorm_wordpool_576.txt	LTP342	ltpFR2	8	5	CACTUS	215	n/a	n/a	0	0	0
1128.10302734375	n/a	REC_WORD	2310355	wordpools/wasnorm_wordpool_576.txt	LTP342	ltpFR2	8	5	CROWN	415	n/a	n/a	0	0	0
1188.228515625	n/a	DISTRACTOR	2433492	n/a	LTP342	ltpFR2	8	6	n/a	n/a	n/a	n/a	0	0	0
1188.228515625	n/a	START	2433492	n/a	LTP342	ltpFR2	8	n/a	n/a	n/a	7	n/a	n/a	n/a	n/a
1188.24560546875	n/a	PROB	2433527	n/a	LTP342	ltpFR2	8	n/a	n/a	n/a	7	14	1	6	7
1190.02734375	n/a	PROB	2437176	n/a	LTP342	ltpFR2	8	n/a	n/a	n/a	7	25	9	8	8
1192.04345703125	n/a	PROB	2441305	n/a	LTP342	ltpFR2	8	n/a	n/a	n/a	7	16	5	6	5
1193.42626953125	n/a	PROB	2444137	n/a	LTP342	ltpFR2	8	n/a	n/a	n/a	7	20	7	5	8
1195.42529296875	n/a	PROB	2448231	n/a	LTP342	ltpFR2	8	n/a	n/a	n/a	7	12	5	3	4
1197.7744140625	n/a	PROB	2453042	n/a	LTP342	ltpFR2	8	n/a	n/a	n/a	7	13	4	7	2
1199.25732421875	n/a	PROB	2456079	n/a	LTP342	ltpFR2	8	n/a	n/a	n/a	7	6	4	1	1
1200.38916015625	n/a	PROB	2458397	n/a	LTP342	ltpFR2	8	n/a	n/a	n/a	7	9	3	3	3
1201.50732421875	n/a	PROB	2460687	n/a	LTP342	ltpFR2	8	n/a	n/a	n/a	7	9	2	2	5
1203.60595703125	n/a	PROB	2464985	n/a	LTP342	ltpFR2	8	n/a	n/a	n/a	7	18	8	4	6
1205.287109375	n/a	PROB	2468428	n/a	LTP342	ltpFR2	8	n/a	n/a	n/a	7	16	2	8	6
1206.60400390625	n/a	PROB	2471125	n/a	LTP342	ltpFR2	8	n/a	n/a	n/a	7	23	5	9	9
1208.8017578125	n/a	PROB	2475626	n/a	LTP342	ltpFR2	8	n/a	n/a	n/a	7	22	4	9	9
1211.09765625	n/a	STOP	2480328	n/a	LTP342	ltpFR2	8	n/a	n/a	n/a	7	n/a	n/a	n/a	n/a
1213.0498046875	n/a	WORD	2484326	wordpools/wasnorm_wordpool_576.txt	LTP342	ltpFR2	8	6	GREASE	660	n/a	n/a	0	0	0
1215.49951171875	n/a	WORD	2489343	wordpools/wasnorm_wordpool_576.txt	LTP342	ltpFR2	8	6	DASHBOARD	441	n/a	n/a	0	0	0
1217.9306640625	n/a	WORD	2494322	wordpools/wasnorm_wordpool_576.txt	LTP342	ltpFR2	8	6	DANDRUFF	439	n/a	n/a	0	0	0
1220.36376953125	n/a	WORD	2499305	wordpools/wasnorm_wordpool_576.txt	LTP342	ltpFR2	8	6	UNCLE	1536	n/a	n/a	0	0	0
1222.845703125	n/a	WORD	2504388	wordpools/wasnorm_wordpool_576.txt	LTP342	ltpFR2	8	6	FILM	565	n/a	n/a	0	0	0
1225.4453125	n/a	WORD	2509712	wordpools/wasnorm_wordpool_576.txt	LTP342	ltpFR2	8	6	FRECKLE	602	n/a	n/a	0	0	0
1227.9091796875	n/a	WORD	2514758	wordpools/wasnorm_wordpool_576.txt	LTP342	ltpFR2	8	6	TWEEZERS	1526	n/a	n/a	0	0	0
1230.72509765625	n/a	WORD	2520525	wordpools/wasnorm_wordpool_576.txt	LTP342	ltpFR2	8	6	MOTOR	922	n/a	n/a	0	0	0
1233.44140625	n/a	WORD	2526088	wordpools/wasnorm_wordpool_576.txt	LTP342	ltpFR2	8	6	HONEY	713	n/a	n/a	0	0	0
1236.02197265625	n/a	WORD	2531373	wordpools/wasnorm_wordpool_576.txt	LTP342	ltpFR2	8	6	EGYPT	519	n/a	n/a	0	0	0
1238.63916015625	n/a	WORD	2536733	wordpools/wasnorm_wordpool_576.txt	LTP342	ltpFR2	8	6	CHURCH	307	n/a	n/a	0	0	0
1241.43701171875	n/a	WORD	2542463	wordpools/wasnorm_wordpool_576.txt	LTP342	ltpFR2	8	6	ARMY	39	n/a	n/a	0	0	0
1244.18505859375	n/a	WORD	2548091	wordpools/wasnorm_wordpool_576.txt	LTP342	ltpFR2	8	6	BUGGY	188	n/a	n/a	0	0	0
1246.634765625	n/a	WORD	2553108	wordpools/wasnorm_wordpool_576.txt	LTP342	ltpFR2	8	6	SMOG	1330	n/a	n/a	0	0	0
1249.25	n/a	WORD	2558464	wordpools/wasnorm_wordpool_576.txt	LTP342	ltpFR2	8	6	ASIA	46	n/a	n/a	0	0	0
1251.83154296875	n/a	WORD	2563751	wordpools/wasnorm_wordpool_576.txt	LTP342	ltpFR2	8	6	JAPAN	749	n/a	n/a	0	0	0
1254.3134765625	n/a	WORD	2568834	wordpools/wasnorm_wordpool_576.txt	LTP342	ltpFR2	8	6	ACTOR	5	n/a	n/a	0	0	0
1256.91259765625	n/a	WORD	2574157	wordpools/wasnorm_wordpool_576.txt	LTP342	ltpFR2	8	6	CRAYON	401	n/a	n/a	0	0	0
1259.4453125	n/a	WORD	2579344	wordpools/wasnorm_wordpool_576.txt	LTP342	ltpFR2	8	6	NOTEBOOK	959	n/a	n/a	0	0	0
1261.92626953125	n/a	WORD	2584425	wordpools/wasnorm_wordpool_576.txt	LTP342	ltpFR2	8	6	OX	994	n/a	n/a	0	0	0
1264.50927734375	n/a	WORD	2589715	wordpools/wasnorm_wordpool_576.txt	LTP342	ltpFR2	8	6	TRIBE	1505	n/a	n/a	0	0	0
1267.1572265625	n/a	WORD	2595138	wordpools/wasnorm_wordpool_576.txt	LTP342	ltpFR2	8	6	COWBOY	395	n/a	n/a	0	0	0
1269.9560546875	n/a	WORD	2600870	wordpools/wasnorm_wordpool_576.txt	LTP342	ltpFR2	8	6	MUMMY	932	n/a	n/a	0	0	0
1272.72119140625	n/a	WORD	2606533	wordpools/wasnorm_wordpool_576.txt	LTP342	ltpFR2	8	6	APPLE	33	n/a	n/a	0	0	0
1274.3369140625	n/a	START	2609842	n/a	LTP342	ltpFR2	8	n/a	n/a	n/a	8	n/a	n/a	n/a	n/a
1275.2900390625	n/a	DISTRACTOR	2611794	n/a	LTP342	ltpFR2	8	6	n/a	n/a	n/a	n/a	0	0	0
1275.30322265625	n/a	PROB	2611821	n/a	LTP342	ltpFR2	8	n/a	n/a	n/a	8	22	6	8	8
1276.98583984375	n/a	PROB	2615267	n/a	LTP342	ltpFR2	8	n/a	n/a	n/a	8	16	1	5	3
1279.2177734375	n/a	PROB	2619838	n/a	LTP342	ltpFR2	8	n/a	n/a	n/a	8	24	8	8	8
1281.56787109375	n/a	PROB	2624651	n/a	LTP342	ltpFR2	8	n/a	n/a	n/a	8	15	5	3	7
1283.916015625	n/a	PROB	2629460	n/a	LTP342	ltpFR2	8	n/a	n/a	n/a	8	6	1	4	1
1285.048828125	n/a	PROB	2631780	n/a	LTP342	ltpFR2	8	n/a	n/a	n/a	8	7	3	2	2
1286.48291015625	n/a	PROB	2634717	n/a	LTP342	ltpFR2	8	n/a	n/a	n/a	8	14	4	6	4
1288.23095703125	n/a	PROB	2638297	n/a	LTP342	ltpFR2	8	n/a	n/a	n/a	8	14	4	5	5
1289.74658203125	n/a	PROB	2641401	n/a	LTP342	ltpFR2	8	n/a	n/a	n/a	8	120	7	4	9
1291.99560546875	n/a	PROB	2646007	n/a	LTP342	ltpFR2	8	n/a	n/a	n/a	8	10	2	5	3
1295.32763671875	n/a	PROB	2652831	n/a	LTP342	ltpFR2	8	n/a	n/a	n/a	8	15	9	1	5
1296.66064453125	n/a	PROB	2655561	n/a	LTP342	ltpFR2	8	n/a	n/a	n/a	8	20	7	6	7
1298.20263671875	n/a	STOP	2658719	n/a	LTP342	ltpFR2	8	n/a	n/a	n/a	8	n/a	n/a	n/a	n/a
1300.25830078125	n/a	REC_START	2662929	n/a	LTP342	ltpFR2	8	6	n/a	n/a	n/a	n/a	0	0	0
1303.59521484375	n/a	REC_WORD	2669763	wordpools/wasnorm_wordpool_576.txt	LTP342	ltpFR2	8	6	GREASE	660	n/a	n/a	0	0	0
1304.369140625	n/a	REC_WORD	2671348	wordpools/wasnorm_wordpool_576.txt	LTP342	ltpFR2	8	6	DASHBOARD	441	n/a	n/a	0	0	0
1306.5322265625	n/a	REC_WORD	2675778	wordpools/wasnorm_wordpool_576.txt	LTP342	ltpFR2	8	6	DANDRUFF	439	n/a	n/a	0	0	0
1309.52099609375	n/a	REC_WORD	2681899	wordpools/wasnorm_wordpool_576.txt	LTP342	ltpFR2	8	6	UNCLE	1536	n/a	n/a	0	0	0
1310.2099609375	n/a	REC_WORD	2683310	wordpools/wasnorm_wordpool_576.txt	LTP342	ltpFR2	8	6	TWEEZERS	1526	n/a	n/a	0	0	0
1311.06591796875	n/a	REC_WORD	2685063	wordpools/wasnorm_wordpool_576.txt	LTP342	ltpFR2	8	6	MOTOR	922	n/a	n/a	0	0	0
1314.68017578125	n/a	REC_WORD	2692465	wordpools/wasnorm_wordpool_576.txt	LTP342	ltpFR2	8	6	EGYPT	519	n/a	n/a	0	0	0
1317.19775390625	n/a	REC_WORD	2697621	wordpools/wasnorm_wordpool_576.txt	LTP342	ltpFR2	8	6	CHURCH	307	n/a	n/a	0	0	0
1318.626953125	n/a	REC_WORD	2700548	wordpools/wasnorm_wordpool_576.txt	LTP342	ltpFR2	8	6	ARMY	39	n/a	n/a	0	0	0
1321.1259765625	n/a	REC_WORD	2705666	wordpools/wasnorm_wordpool_576.txt	LTP342	ltpFR2	8	6	FILM	565	n/a	n/a	0	0	0
1322.169921875	n/a	REC_WORD	2707804	wordpools/wasnorm_wordpool_576.txt	LTP342	ltpFR2	8	6	ACTOR	5	n/a	n/a	0	0	0
1324.24658203125	n/a	REC_WORD	2712057	wordpools/wasnorm_wordpool_576.txt	LTP342	ltpFR2	8	6	ASIA	46	n/a	n/a	0	0	0
1324.78076171875	n/a	REC_WORD	2713151	wordpools/wasnorm_wordpool_576.txt	LTP342	ltpFR2	8	6	JAPAN	749	n/a	n/a	0	0	0
1329.677734375	n/a	REC_WORD	2723180	wordpools/wasnorm_wordpool_576.txt	LTP342	ltpFR2	8	6	BUGGY	188	n/a	n/a	0	0	0
1333.8876953125	n/a	REC_WORD	2731802	wordpools/wasnorm_wordpool_576.txt	LTP342	ltpFR2	8	6	CRAYON	401	n/a	n/a	0	0	0
1335.3984375	n/a	REC_WORD	2734896	wordpools/wasnorm_wordpool_576.txt	LTP342	ltpFR2	8	6	JOURNAL	760	n/a	n/a	0	0	0
1336.236328125	n/a	REC_WORD	2736612	wordpools/wasnorm_wordpool_576.txt	LTP342	ltpFR2	8	6	OX	994	n/a	n/a	0	0	0
1341.21142578125	n/a	REC_WORD	2746801	wordpools/wasnorm_wordpool_576.txt	LTP342	ltpFR2	8	6	TRIBE	1505	n/a	n/a	0	0	0
1342.1904296875	n/a	REC_WORD	2748806	wordpools/wasnorm_wordpool_576.txt	LTP342	ltpFR2	8	6	COWBOY	395	n/a	n/a	0	0	0
1358.0146484375	n/a	REC_WORD	2781214	wordpools/wasnorm_wordpool_576.txt	LTP342	ltpFR2	8	6	MUMMY	932	n/a	n/a	0	0	0
1390.69775390625	n/a	DISTRACTOR	2848149	n/a	LTP342	ltpFR2	8	7	n/a	n/a	n/a	n/a	0	0	0
1390.69775390625	n/a	START	2848149	n/a	LTP342	ltpFR2	8	n/a	n/a	n/a	9	n/a	n/a	n/a	n/a
1390.71484375	n/a	PROB	2848184	n/a	LTP342	ltpFR2	8	n/a	n/a	n/a	9	17	8	7	2
1392.3466796875	n/a	PROB	2851526	n/a	LTP342	ltpFR2	8	n/a	n/a	n/a	9	17	2	8	7
1393.77978515625	n/a	PROB	2854461	n/a	LTP342	ltpFR2	8	n/a	n/a	n/a	9	10	5	1	4
1395.8955078125	n/a	PROB	2858794	n/a	LTP342	ltpFR2	8	n/a	n/a	n/a	9	11	1	6	4
1397.228515625	n/a	PROB	2861524	n/a	LTP342	ltpFR2	8	n/a	n/a	n/a	9	20	6	7	7
1398.61181640625	n/a	PROB	2864357	n/a	LTP342	ltpFR2	8	n/a	n/a	n/a	9	10	1	8	1
1399.71044921875	n/a	PROB	2866607	n/a	LTP342	ltpFR2	8	n/a	n/a	n/a	9	22	9	9	4
1401.0263671875	n/a	PROB	2869302	n/a	LTP342	ltpFR2	8	n/a	n/a	n/a	9	16	2	7	7
1403.4423828125	n/a	PROB	2874250	n/a	LTP342	ltpFR2	8	n/a	n/a	n/a	9	20	7	7	6
1404.84130859375	n/a	PROB	2877115	n/a	LTP342	ltpFR2	8	n/a	n/a	n/a	9	17	3	8	6
1406.45849609375	n/a	PROB	2880427	n/a	LTP342	ltpFR2	8	n/a	n/a	n/a	9	11	1	2	8
1407.6904296875	n/a	PROB	2882950	n/a	LTP342	ltpFR2	8	n/a	n/a	n/a	9	19	9	7	3
1409.54052734375	n/a	PROB	2886739	n/a	LTP342	ltpFR2	8	n/a	n/a	n/a	9	12	7	1	4
1411.75439453125	n/a	PROB	2891273	n/a	LTP342	ltpFR2	8	n/a	n/a	n/a	9	17	6	6	5
1413.314453125	n/a	STOP	2894468	n/a	LTP342	ltpFR2	8	n/a	n/a	n/a	9	n/a	n/a	n/a	n/a
1415.7021484375	n/a	WORD	2899358	wordpools/wasnorm_wordpool_576.txt	LTP342	ltpFR2	8	7	WHISKERS	1605	n/a	n/a	0	0	0
1418.43603515625	n/a	WORD	2904957	wordpools/wasnorm_wordpool_576.txt	LTP342	ltpFR2	8	7	JURY	766	n/a	n/a	0	0	0
1421.14990234375	n/a	WORD	2910515	wordpools/wasnorm_wordpool_576.txt	LTP342	ltpFR2	8	7	BARLEY	88	n/a	n/a	0	0	0
1423.78173828125	n/a	WORD	2915905	wordpools/wasnorm_wordpool_576.txt	LTP342	ltpFR2	8	7	SNAKE	1333	n/a	n/a	0	0	0
1426.263671875	n/a	WORD	2920988	wordpools/wasnorm_wordpool_576.txt	LTP342	ltpFR2	8	7	DONOR	485	n/a	n/a	0	0	0
1428.86279296875	n/a	WORD	2926311	wordpools/wasnorm_wordpool_576.txt	LTP342	ltpFR2	8	7	TROUT	1511	n/a	n/a	0	0	0
1431.39453125	n/a	WORD	2931496	wordpools/wasnorm_wordpool_576.txt	LTP342	ltpFR2	8	7	FRUIT	610	n/a	n/a	0	0	0
1434.04345703125	n/a	WORD	2936921	wordpools/wasnorm_wordpool_576.txt	LTP342	ltpFR2	8	7	CUSTARD	429	n/a	n/a	0	0	0
1436.52685546875	n/a	WORD	2942007	wordpools/wasnorm_wordpool_576.txt	LTP342	ltpFR2	8	7	STAMP	1370	n/a	n/a	0	0	0
1439.1083984375	n/a	WORD	2947294	wordpools/wasnorm_wordpool_576.txt	LTP342	ltpFR2	8	7	PASTA	1021	n/a	n/a	0	0	0
1441.7734375	n/a	WORD	2952752	wordpools/wasnorm_wordpool_576.txt	LTP342	ltpFR2	8	7	BACKBONE	66	n/a	n/a	0	0	0
1444.4052734375	n/a	WORD	2958142	wordpools/wasnorm_wordpool_576.txt	LTP342	ltpFR2	8	7	GALLON	618	n/a	n/a	0	0	0
1447.08740234375	n/a	WORD	2963635	wordpools/wasnorm_wordpool_576.txt	LTP342	ltpFR2	8	7	DENTIST	447	n/a	n/a	0	0	0
1449.85302734375	n/a	WORD	2969299	wordpools/wasnorm_wordpool_576.txt	LTP342	ltpFR2	8	7	STICKER	1382	n/a	n/a	0	0	0
1452.6513671875	n/a	WORD	2975030	wordpools/wasnorm_wordpool_576.txt	LTP342	ltpFR2	8	7	GYMNAST	675	n/a	n/a	0	0	0
1455.1669921875	n/a	WORD	2980182	wordpools/wasnorm_wordpool_576.txt	LTP342	ltpFR2	8	7	HEART	697	n/a	n/a	0	0	0
1457.64990234375	n/a	WORD	2985267	wordpools/wasnorm_wordpool_576.txt	LTP342	ltpFR2	8	7	SEAFOOD	1260	n/a	n/a	0	0	0
1460.4150390625	n/a	WORD	2990930	wordpools/wasnorm_wordpool_576.txt	LTP342	ltpFR2	8	7	MOP	916	n/a	n/a	0	0	0
1463.1796875	n/a	WORD	2996592	wordpools/wasnorm_wordpool_576.txt	LTP342	ltpFR2	8	7	DUSTPAN	509	n/a	n/a	0	0	0
1465.87890625	n/a	WORD	3002120	wordpools/wasnorm_wordpool_576.txt	LTP342	ltpFR2	8	7	PARSLEY	1016	n/a	n/a	0	0	0
1468.51171875	n/a	WORD	3007512	wordpools/wasnorm_wordpool_576.txt	LTP342	ltpFR2	8	7	MONEY	908	n/a	n/a	0	0	0
1471.32568359375	n/a	WORD	3013275	wordpools/wasnorm_wordpool_576.txt	LTP342	ltpFR2	8	7	DENIM	446	n/a	n/a	0	0	0
1474.12451171875	n/a	WORD	3019007	wordpools/wasnorm_wordpool_576.txt	LTP342	ltpFR2	8	7	BLADE	134	n/a	n/a	0	0	0
1476.607421875	n/a	WORD	3024092	wordpools/wasnorm_wordpool_576.txt	LTP342	ltpFR2	8	7	SCALPEL	1243	n/a	n/a	0	0	0
1478.22265625	n/a	START	3027400	n/a	LTP342	ltpFR2	8	n/a	n/a	n/a	10	n/a	n/a	n/a	n/a
1479.38134765625	n/a	DISTRACTOR	3029773	n/a	LTP342	ltpFR2	8	7	n/a	n/a	n/a	n/a	0	0	0
1479.38818359375	n/a	PROB	3029787	n/a	LTP342	ltpFR2	8	n/a	n/a	n/a	10	19	7	7	5
1481.1044921875	n/a	PROB	3033302	n/a	LTP342	ltpFR2	8	n/a	n/a	n/a	10	13	2	4	7
1482.654296875	n/a	PROB	3036476	n/a	LTP342	ltpFR2	8	n/a	n/a	n/a	10	17	6	6	9
1484.66943359375	n/a	PROB	3040603	n/a	LTP342	ltpFR2	8	n/a	n/a	n/a	10	13	7	4	2
1487.16796875	n/a	PROB	3045720	n/a	LTP342	ltpFR2	8	n/a	n/a	n/a	10	19	8	3	8
1489.2841796875	n/a	PROB	3050054	n/a	LTP342	ltpFR2	8	n/a	n/a	n/a	10	18	9	1	8
1490.6669921875	n/a	PROB	3052886	n/a	LTP342	ltpFR2	8	n/a	n/a	n/a	10	22	6	8	6
1492.09912109375	n/a	PROB	3055819	n/a	LTP342	ltpFR2	8	n/a	n/a	n/a	10	21	6	6	9
1494.26513671875	n/a	PROB	3060255	n/a	LTP342	ltpFR2	8	n/a	n/a	n/a	10	15	8	5	2
1496.48193359375	n/a	PROB	3064795	n/a	LTP342	ltpFR2	8	n/a	n/a	n/a	10	10	5	2	3
1498.06298828125	n/a	PROB	3068033	n/a	LTP342	ltpFR2	8	n/a	n/a	n/a	10	13	3	6	4
1499.7958984375	n/a	PROB	3071582	n/a	LTP342	ltpFR2	8	n/a	n/a	n/a	10	18	7	6	5
1501.70703125	n/a	STOP	3075496	n/a	LTP342	ltpFR2	8	n/a	n/a	n/a	10	n/a	n/a	n/a	n/a
1504.16064453125	n/a	REC_START	3080521	n/a	LTP342	ltpFR2	8	7	n/a	n/a	n/a	n/a	0	0	0
1506.24169921875	n/a	REC_WORD	3084783	wordpools/wasnorm_wordpool_576.txt	LTP342	ltpFR2	8	7	WHISKERS	1605	n/a	n/a	0	0	0
1507.20654296875	n/a	REC_WORD	3086759	wordpools/wasnorm_wordpool_576.txt	LTP342	ltpFR2	8	7	JURY	766	n/a	n/a	0	0	0
1509.66162109375	n/a	REC_WORD	3091787	wordpools/wasnorm_wordpool_576.txt	LTP342	ltpFR2	8	7	DONOR	485	n/a	n/a	0	0	0
1511.1533203125	n/a	REC_WORD	3094842	wordpools/wasnorm_wordpool_576.txt	LTP342	ltpFR2	8	7	CUSTARD	429	n/a	n/a	0	0	0
1511.91943359375	n/a	REC_WORD	3096411	wordpools/wasnorm_wordpool_576.txt	LTP342	ltpFR2	8	7	FRUIT	610	n/a	n/a	0	0	0
1513.0986328125	n/a	REC_WORD	3098826	wordpools/wasnorm_wordpool_576.txt	LTP342	ltpFR2	8	7	SCALPEL	1243	n/a	n/a	0	0	0
1513.96044921875	n/a	REC_WORD	3100591	wordpools/wasnorm_wordpool_576.txt	LTP342	ltpFR2	8	7	BLADE	134	n/a	n/a	0	0	0
1514.63720703125	n/a	REC_WORD	3101977	wordpools/wasnorm_wordpool_576.txt	LTP342	ltpFR2	8	7	DENIM	446	n/a	n/a	0	0	0
1515.21728515625	n/a	REC_WORD	3103165	wordpools/wasnorm_wordpool_576.txt	LTP342	ltpFR2	8	7	MONEY	908	n/a	n/a	0	0	0
1516.4833984375	n/a	REC_WORD_VV	3105758	wordpools/wasnorm_wordpool_576.txt	LTP342	ltpFR2	8	7	<>	-1	n/a	n/a	0	0	0
1517.04931640625	n/a	REC_WORD	3106917	wordpools/wasnorm_wordpool_576.txt	LTP342	ltpFR2	8	7	PASTA	1021	n/a	n/a	0	0	0
1518.34326171875	n/a	REC_WORD	3109567	wordpools/wasnorm_wordpool_576.txt	LTP342	ltpFR2	8	7	STAMP	1370	n/a	n/a	0	0	0
1521.2392578125	n/a	REC_WORD	3115498	wordpools/wasnorm_wordpool_576.txt	LTP342	ltpFR2	8	7	GALLON	618	n/a	n/a	0	0	0
1522.83935546875	n/a	REC_WORD	3118775	wordpools/wasnorm_wordpool_576.txt	LTP342	ltpFR2	8	7	DENTIST	447	n/a	n/a	0	0	0
1524.95703125	n/a	REC_WORD	3123112	wordpools/wasnorm_wordpool_576.txt	LTP342	ltpFR2	8	7	STICKER	1382	n/a	n/a	0	0	0
1525.79833984375	n/a	REC_WORD	3124835	wordpools/wasnorm_wordpool_576.txt	LTP342	ltpFR2	8	7	GYMNAST	675	n/a	n/a	0	0	0
1594.60107421875	n/a	WORD	3265743	wordpools/wasnorm_wordpool_576.txt	LTP342	ltpFR2	8	8	CLOUD	328	n/a	n/a	0	0	0
1597.29931640625	n/a	WORD	3271269	wordpools/wasnorm_wordpool_576.txt	LTP342	ltpFR2	8	8	GARLIC	624	n/a	n/a	0	0	0
1599.9638671875	n/a	WORD	3276726	wordpools/wasnorm_wordpool_576.txt	LTP342	ltpFR2	8	8	MARINE	869	n/a	n/a	0	0	0
1602.69580078125	n/a	WORD	3282321	wordpools/wasnorm_wordpool_576.txt	LTP342	ltpFR2	8	8	BABY	64	n/a	n/a	0	0	0
1605.22802734375	n/a	WORD	3287507	wordpools/wasnorm_wordpool_576.txt	LTP342	ltpFR2	8	8	CARRIAGE	248	n/a	n/a	0	0	0
1608.0439453125	n/a	WORD	3293274	wordpools/wasnorm_wordpool_576.txt	LTP342	ltpFR2	8	8	SPONGE	1355	n/a	n/a	0	0	0
1610.67578125	n/a	WORD	3298664	wordpools/wasnorm_wordpool_576.txt	LTP342	ltpFR2	8	8	PEANUT	1032	n/a	n/a	0	0	0
1613.390625	n/a	WORD	3304224	wordpools/wasnorm_wordpool_576.txt	LTP342	ltpFR2	8	8	LONDON	843	n/a	n/a	0	0	0
1616.056640625	n/a	WORD	3309684	wordpools/wasnorm_wordpool_576.txt	LTP342	ltpFR2	8	8	EUROPE	541	n/a	n/a	0	0	0
1618.6396484375	n/a	WORD	3314974	wordpools/wasnorm_wordpool_576.txt	LTP342	ltpFR2	8	8	REBEL	1172	n/a	n/a	0	0	0
1621.2705078125	n/a	WORD	3320362	wordpools/wasnorm_wordpool_576.txt	LTP342	ltpFR2	8	8	STREAM	1392	n/a	n/a	0	0	0
1624.08642578125	n/a	WORD	3326129	wordpools/wasnorm_wordpool_576.txt	LTP342	ltpFR2	8	8	ITEM	746	n/a	n/a	0	0	0
1626.701171875	n/a	WORD	3331484	wordpools/wasnorm_wordpool_576.txt	LTP342	ltpFR2	8	8	GLASS	639	n/a	n/a	0	0	0
1629.400390625	n/a	WORD	3337012	wordpools/wasnorm_wordpool_576.txt	LTP342	ltpFR2	8	8	GRAVEL	659	n/a	n/a	0	0	0
1631.865234375	n/a	WORD	3342060	wordpools/wasnorm_wordpool_576.txt	LTP342	ltpFR2	8	8	QUEEN	1149	n/a	n/a	0	0	0
1634.54833984375	n/a	WORD	3347555	wordpools/wasnorm_wordpool_576.txt	LTP342	ltpFR2	8	8	SCOTCH	1251	n/a	n/a	0	0	0
1637.212890625	n/a	WORD	3353012	wordpools/wasnorm_wordpool_576.txt	LTP342	ltpFR2	8	8	DANCER	437	n/a	n/a	0	0	0
1639.97802734375	n/a	WORD	3358675	wordpools/wasnorm_wordpool_576.txt	LTP342	ltpFR2	8	8	MAILBOX	857	n/a	n/a	0	0	0
1642.56103515625	n/a	WORD	3363965	wordpools/wasnorm_wordpool_576.txt	LTP342	ltpFR2	8	8	GIRL	637	n/a	n/a	0	0	0
1645.0927734375	n/a	WORD	3369150	wordpools/wasnorm_wordpool_576.txt	LTP342	ltpFR2	8	8	WOMAN	1620	n/a	n/a	0	0	0
1647.591796875	n/a	WORD	3374268	wordpools/wasnorm_wordpool_576.txt	LTP342	ltpFR2	8	8	YACHT	1629	n/a	n/a	0	0	0
1650.03955078125	n/a	WORD	3379281	wordpools/wasnorm_wordpool_576.txt	LTP342	ltpFR2	8	8	DOUGHNUT	490	n/a	n/a	0	0	0
1652.57373046875	n/a	WORD	3384471	wordpools/wasnorm_wordpool_576.txt	LTP342	ltpFR2	8	8	PICTURE	1061	n/a	n/a	0	0	0
1655.25439453125	n/a	WORD	3389961	wordpools/wasnorm_wordpool_576.txt	LTP342	ltpFR2	8	8	YARN	1631	n/a	n/a	0	0	0
1656.87060546875	n/a	START	3393271	n/a	LTP342	ltpFR2	8	n/a	n/a	n/a	11	n/a	n/a	n/a	n/a
1657.87060546875	n/a	DISTRACTOR	3395319	n/a	LTP342	ltpFR2	8	8	n/a	n/a	n/a	n/a	0	0	0
1657.88623046875	n/a	PROB	3395351	n/a	LTP342	ltpFR2	8	n/a	n/a	n/a	11	24	6	9	9
1660.1513671875	n/a	PROB	3399990	n/a	LTP342	ltpFR2	8	n/a	n/a	n/a	11	21	9	8	4
1661.7685546875	n/a	PROB	3403302	n/a	LTP342	ltpFR2	8	n/a	n/a	n/a	11	13	4	2	7
1663.25048828125	n/a	PROB	3406337	n/a	LTP342	ltpFR2	8	n/a	n/a	n/a	11	18	3	8	7
1664.8994140625	n/a	PROB	3409714	n/a	LTP342	ltpFR2	8	n/a	n/a	n/a	11	5	1	2	2
1665.84912109375	n/a	PROB	3411659	n/a	LTP342	ltpFR2	8	n/a	n/a	n/a	11	12	3	2	7
1667.84814453125	n/a	PROB	3415753	n/a	LTP342	ltpFR2	8	n/a	n/a	n/a	11	15	4	8	3
1669.28125	n/a	PROB	3418688	n/a	LTP342	ltpFR2	8	n/a	n/a	n/a	11	19	9	2	8
1670.5810546875	n/a	PROB	3421350	n/a	LTP342	ltpFR2	8	n/a	n/a	n/a	11	17	8	2	7
1671.92919921875	n/a	PROB	3424111	n/a	LTP342	ltpFR2	8	n/a	n/a	n/a	11	21	4	9	8
1673.24609375	n/a	PROB	3426808	n/a	LTP342	ltpFR2	8	n/a	n/a	n/a	11	11	1	2	8
1674.42919921875	n/a	PROB	3429231	n/a	LTP342	ltpFR2	8	n/a	n/a	n/a	11	15	2	6	7
1676.244140625	n/a	PROB	3432948	n/a	LTP342	ltpFR2	8	n/a	n/a	n/a	11	21	5	9	7
1677.97705078125	n/a	PROB	3436497	n/a	LTP342	ltpFR2	8	n/a	n/a	n/a	11	16	2	5	9
1679.8359375	n/a	STOP	3440304	n/a	LTP342	ltpFR2	8	n/a	n/a	n/a	11	n/a	n/a	n/a	n/a
1682.6748046875	n/a	REC_START	3446118	n/a	LTP342	ltpFR2	8	8	n/a	n/a	n/a	n/a	0	0	0
1683.96875	n/a	REC_WORD	3448768	wordpools/wasnorm_wordpool_576.txt	LTP342	ltpFR2	8	8	YARN	1631	n/a	n/a	0	0	0
1684.630859375	n/a	REC_WORD	3450124	wordpools/wasnorm_wordpool_576.txt	LTP342	ltpFR2	8	8	PICTURE	1061	n/a	n/a	0	0	0
1685.21484375	n/a	REC_WORD	3451320	wordpools/wasnorm_wordpool_576.txt	LTP342	ltpFR2	8	8	YACHT	1629	n/a	n/a	0	0	0
1685.7275390625	n/a	REC_WORD	3452370	wordpools/wasnorm_wordpool_576.txt	LTP342	ltpFR2	8	8	REBEL	1172	n/a	n/a	0	0	0
1686.08984375	n/a	REC_WORD	3453112	wordpools/wasnorm_wordpool_576.txt	LTP342	ltpFR2	8	8	STREAM	1392	n/a	n/a	0	0	0
1687.134765625	n/a	REC_WORD_VV	3455252	wordpools/wasnorm_wordpool_576.txt	LTP342	ltpFR2	8	8	<>	-1	n/a	n/a	0	0	0
1687.8134765625	n/a	REC_WORD	3456642	wordpools/wasnorm_wordpool_576.txt	LTP342	ltpFR2	8	8	GLASS	639	n/a	n/a	0	0	0
1689.2265625	n/a	REC_WORD	3459536	wordpools/wasnorm_wordpool_576.txt	LTP342	ltpFR2	8	8	ITEM	746	n/a	n/a	0	0	0
1689.6875	n/a	REC_WORD	3460480	wordpools/wasnorm_wordpool_576.txt	LTP342	ltpFR2	8	8	GRAVEL	659	n/a	n/a	0	0	0
1691.37353515625	n/a	REC_WORD	3463933	wordpools/wasnorm_wordpool_576.txt	LTP342	ltpFR2	8	8	DOUGHNUT	490	n/a	n/a	0	0	0
1695.1435546875	n/a	REC_WORD	3471654	wordpools/wasnorm_wordpool_576.txt	LTP342	ltpFR2	8	8	LONDON	843	n/a	n/a	0	0	0
1695.87451171875	n/a	REC_WORD	3473151	wordpools/wasnorm_wordpool_576.txt	LTP342	ltpFR2	8	8	EUROPE	541	n/a	n/a	0	0	0
1696.8994140625	n/a	REC_WORD	3475250	wordpools/wasnorm_wordpool_576.txt	LTP342	ltpFR2	8	8	CLOUD	328	n/a	n/a	0	0	0
1698.64111328125	n/a	REC_WORD	3478817	wordpools/wasnorm_wordpool_576.txt	LTP342	ltpFR2	8	8	MARINE	869	n/a	n/a	0	0	0
1700.4091796875	n/a	REC_WORD	3482438	wordpools/wasnorm_wordpool_576.txt	LTP342	ltpFR2	8	8	CARRIAGE	248	n/a	n/a	0	0	0
1700.91943359375	n/a	REC_WORD	3483483	wordpools/wasnorm_wordpool_576.txt	LTP342	ltpFR2	8	8	BABY	64	n/a	n/a	0	0	0
1715.81982421875	n/a	REC_WORD	3513999	wordpools/wasnorm_wordpool_576.txt	LTP342	ltpFR2	8	8	SPONGE	1355	n/a	n/a	0	0	0
1716.7890625	n/a	REC_WORD	3515984	wordpools/wasnorm_wordpool_576.txt	LTP342	ltpFR2	8	8	PEANUT	1032	n/a	n/a	0	0	0
1720.52197265625	n/a	REC_WORD	3523629	wordpools/wasnorm_wordpool_576.txt	LTP342	ltpFR2	8	8	SCOTCH	1251	n/a	n/a	0	0	0
1759.220703125	n/a	REST_REWET	3602884	n/a	LTP342	ltpFR2	8	8	n/a	n/a	n/a	n/a	0	0	0
1971.8857421875	n/a	WORD	4038422	wordpools/wasnorm_wordpool_576.txt	LTP342	ltpFR2	8	9	CAMEL	223	n/a	n/a	0	0	0
1974.435546875	n/a	WORD	4043644	wordpools/wasnorm_wordpool_576.txt	LTP342	ltpFR2	8	9	BUREAU	199	n/a	n/a	0	0	0
1977.19970703125	n/a	WORD	4049305	wordpools/wasnorm_wordpool_576.txt	LTP342	ltpFR2	8	9	WINDOW	1611	n/a	n/a	0	0	0
1979.94873046875	n/a	WORD	4054935	wordpools/wasnorm_wordpool_576.txt	LTP342	ltpFR2	8	9	HOOK	715	n/a	n/a	0	0	0
1982.6474609375	n/a	WORD	4060462	wordpools/wasnorm_wordpool_576.txt	LTP342	ltpFR2	8	9	PIANO	1057	n/a	n/a	0	0	0
1985.43017578125	n/a	WORD	4066161	wordpools/wasnorm_wordpool_576.txt	LTP342	ltpFR2	8	9	RECORD	1176	n/a	n/a	0	0	0
1987.9443359375	n/a	WORD	4071310	wordpools/wasnorm_wordpool_576.txt	LTP342	ltpFR2	8	9	GUITAR	670	n/a	n/a	0	0	0
1990.51123046875	n/a	WORD	4076567	wordpools/wasnorm_wordpool_576.txt	LTP342	ltpFR2	8	9	SALT	1229	n/a	n/a	0	0	0
1993.00830078125	n/a	WORD	4081681	wordpools/wasnorm_wordpool_576.txt	LTP342	ltpFR2	8	9	LAVA	804	n/a	n/a	0	0	0
1995.52490234375	n/a	WORD	4086835	wordpools/wasnorm_wordpool_576.txt	LTP342	ltpFR2	8	9	FUNGUS	614	n/a	n/a	0	0	0
1998.1728515625	n/a	WORD	4092258	wordpools/wasnorm_wordpool_576.txt	LTP342	ltpFR2	8	9	GHETTO	633	n/a	n/a	0	0	0
2000.955078125	n/a	WORD	4097956	wordpools/wasnorm_wordpool_576.txt	LTP342	ltpFR2	8	9	COSTUME	383	n/a	n/a	0	0	0
2003.455078125	n/a	WORD	4103076	wordpools/wasnorm_wordpool_576.txt	LTP342	ltpFR2	8	9	SUITCASE	1403	n/a	n/a	0	0	0
2005.93603515625	n/a	WORD	4108157	wordpools/wasnorm_wordpool_576.txt	LTP342	ltpFR2	8	9	LILY	821	n/a	n/a	0	0	0
2008.6015625	n/a	WORD	4113616	wordpools/wasnorm_wordpool_576.txt	LTP342	ltpFR2	8	9	DAISY	435	n/a	n/a	0	0	0
2011.23388671875	n/a	WORD	4119007	wordpools/wasnorm_wordpool_576.txt	LTP342	ltpFR2	8	9	SCULPTURE	1258	n/a	n/a	0	0	0
2013.86572265625	n/a	WORD	4124397	wordpools/wasnorm_wordpool_576.txt	LTP342	ltpFR2	8	9	OUTLAW	989	n/a	n/a	0	0	0
2016.44873046875	n/a	WORD	4129687	wordpools/wasnorm_wordpool_576.txt	LTP342	ltpFR2	8	9	LUGGAGE	847	n/a	n/a	0	0	0
2018.91259765625	n/a	WORD	4134733	wordpools/wasnorm_wordpool_576.txt	LTP342	ltpFR2	8	9	SCALLOP	1242	n/a	n/a	0	0	0
2021.4462890625	n/a	WORD	4139922	wordpools/wasnorm_wordpool_576.txt	LTP342	ltpFR2	8	9	BROTHER	179	n/a	n/a	0	0	0
2023.9775390625	n/a	WORD	4145106	wordpools/wasnorm_wordpool_576.txt	LTP342	ltpFR2	8	9	HANDBAG	684	n/a	n/a	0	0	0
2026.7919921875	n/a	WORD	4150870	wordpools/wasnorm_wordpool_576.txt	LTP342	ltpFR2	8	9	COIN	343	n/a	n/a	0	0	0
2029.4921875	n/a	WORD	4156400	wordpools/wasnorm_wordpool_576.txt	LTP342	ltpFR2	8	9	HOUND	724	n/a	n/a	0	0	0
2031.97314453125	n/a	WORD	4161481	wordpools/wasnorm_wordpool_576.txt	LTP342	ltpFR2	8	9	LADDER	793	n/a	n/a	0	0	0
2033.58984375	n/a	START	4164792	n/a	LTP342	ltpFR2	8	n/a	n/a	n/a	12	n/a	n/a	n/a	n/a
2034.4228515625	n/a	DISTRACTOR	4166498	n/a	LTP342	ltpFR2	8	9	n/a	n/a	n/a	n/a	0	0	0
2034.43994140625	n/a	PROB	4166533	n/a	LTP342	ltpFR2	8	n/a	n/a	n/a	12	7	4	2	1
2035.85498046875	n/a	PROB	4169431	n/a	LTP342	ltpFR2	8	n/a	n/a	n/a	12	18	6	7	4
2037.421875	n/a	PROB	4172640	n/a	LTP342	ltpFR2	8	n/a	n/a	n/a	12	18	9	8	1
2039.23681640625	n/a	PROB	4176357	n/a	LTP342	ltpFR2	8	n/a	n/a	n/a	12	23	8	8	7
2041.3359375	n/a	PROB	4180656	n/a	LTP342	ltpFR2	8	n/a	n/a	n/a	12	18	6	7	4
2043.267578125	n/a	PROB	4184612	n/a	LTP342	ltpFR2	8	n/a	n/a	n/a	12	17	4	4	9
2044.7666015625	n/a	PROB	4187682	n/a	LTP342	ltpFR2	8	n/a	n/a	n/a	12	8	2	2	4
2046.08251953125	n/a	PROB	4190377	n/a	LTP342	ltpFR2	8	n/a	n/a	n/a	12	21	7	9	5
2047.5498046875	n/a	PROB	4193382	n/a	LTP342	ltpFR2	8	n/a	n/a	n/a	12	10	2	1	7
2049.482421875	n/a	PROB	4197340	n/a	LTP342	ltpFR2	8	n/a	n/a	n/a	12	14	5	8	1
2051.24755859375	n/a	PROB	4200955	n/a	LTP342	ltpFR2	8	n/a	n/a	n/a	12	14	6	5	3
2052.8134765625	n/a	PROB	4204162	n/a	LTP342	ltpFR2	8	n/a	n/a	n/a	12	23	7	9	7
2055.46337890625	n/a	PROB	4209589	n/a	LTP342	ltpFR2	8	n/a	n/a	n/a	12	12	2	9	1
2056.78125	n/a	STOP	4212288	n/a	LTP342	ltpFR2	8	n/a	n/a	n/a	12	n/a	n/a	n/a	n/a
2059.37744140625	n/a	REC_START	4217605	n/a	LTP342	ltpFR2	8	9	n/a	n/a	n/a	n/a	0	0	0
2060.0224609375	n/a	REC_WORD	4218926	wordpools/wasnorm_wordpool_576.txt	LTP342	ltpFR2	8	9	HOUND	724	n/a	n/a	0	0	0
2060.787109375	n/a	REC_WORD	4220492	wordpools/wasnorm_wordpool_576.txt	LTP342	ltpFR2	8	9	BRIEFCASE	175	n/a	n/a	0	0	0
2061.47216796875	n/a	REC_WORD	4221895	wordpools/wasnorm_wordpool_576.txt	LTP342	ltpFR2	8	9	LUGGAGE	847	n/a	n/a	0	0	0
2062.494140625	n/a	REC_WORD	4223988	wordpools/wasnorm_wordpool_576.txt	LTP342	ltpFR2	8	9	HANDBAG	684	n/a	n/a	0	0	0
2065.63720703125	n/a	REC_WORD	4230425	wordpools/wasnorm_wordpool_576.txt	LTP342	ltpFR2	8	9	SCULPTURE	1258	n/a	n/a	0	0	0
2066.59033203125	n/a	REC_WORD	4232377	wordpools/wasnorm_wordpool_576.txt	LTP342	ltpFR2	8	9	SCALLOP	1242	n/a	n/a	0	0	0
2068.072265625	n/a	REC_WORD	4235412	wordpools/wasnorm_wordpool_576.txt	LTP342	ltpFR2	8	9	LILY	821	n/a	n/a	0	0	0
2068.48193359375	n/a	REC_WORD	4236251	wordpools/wasnorm_wordpool_576.txt	LTP342	ltpFR2	8	9	DAISY	435	n/a	n/a	0	0	0
2068.90087890625	n/a	REC_WORD	4237109	wordpools/wasnorm_wordpool_576.txt	LTP342	ltpFR2	8	9	OUTLAW	989	n/a	n/a	0	0	0
2070.05322265625	n/a	REC_WORD	4239469	wordpools/wasnorm_wordpool_576.txt	LTP342	ltpFR2	8	9	COSTUME	383	n/a	n/a	0	0	0
2072.81201171875	n/a	REC_WORD	4245119	wordpools/wasnorm_wordpool_576.txt	LTP342	ltpFR2	8	9	BROTHER	179	n/a	n/a	0	0	0
2077.86376953125	n/a	REC_WORD	4255465	wordpools/wasnorm_wordpool_576.txt	LTP342	ltpFR2	8	9	BUREAU	199	n/a	n/a	0	0	0
2078.875	n/a	REC_WORD	4257536	wordpools/wasnorm_wordpool_576.txt	LTP342	ltpFR2	8	9	HOOK	715	n/a	n/a	0	0	0
2079.79296875	n/a	REC_WORD	4259416	wordpools/wasnorm_wordpool_576.txt	LTP342	ltpFR2	8	9	PIANO	1057	n/a	n/a	0	0	0
2080.82275390625	n/a	REC_WORD	4261525	wordpools/wasnorm_wordpool_576.txt	LTP342	ltpFR2	8	9	RECORD	1176	n/a	n/a	0	0	0
2081.89892578125	n/a	REC_WORD	4263729	wordpools/wasnorm_wordpool_576.txt	LTP342	ltpFR2	8	9	GUITAR	670	n/a	n/a	0	0	0
2084.56982421875	n/a	REC_WORD	4269199	wordpools/wasnorm_wordpool_576.txt	LTP342	ltpFR2	8	9	SALT	1229	n/a	n/a	0	0	0
2085.29638671875	n/a	REC_WORD	4270687	wordpools/wasnorm_wordpool_576.txt	LTP342	ltpFR2	8	9	LAVA	804	n/a	n/a	0	0	0
2087.5224609375	n/a	REC_WORD	4275246	wordpools/wasnorm_wordpool_576.txt	LTP342	ltpFR2	8	9	CAMEL	223	n/a	n/a	0	0	0
2089.1787109375	n/a	REC_WORD	4278638	wordpools/wasnorm_wordpool_576.txt	LTP342	ltpFR2	8	9	WINDOW	1611	n/a	n/a	0	0	0
2149.81689453125	n/a	WORD	4402825	wordpools/wasnorm_wordpool_576.txt	LTP342	ltpFR2	8	10	LUMBER	848	n/a	n/a	0	0	0
2152.41650390625	n/a	WORD	4408149	wordpools/wasnorm_wordpool_576.txt	LTP342	ltpFR2	8	10	REPORT	1184	n/a	n/a	0	0	0
2155.16357421875	n/a	WORD	4413775	wordpools/wasnorm_wordpool_576.txt	LTP342	ltpFR2	8	10	ONION	977	n/a	n/a	0	0	0
2157.91259765625	n/a	WORD	4419405	wordpools/wasnorm_wordpool_576.txt	LTP342	ltpFR2	8	10	PERFUME	1049	n/a	n/a	0	0	0
2160.49560546875	n/a	WORD	4424695	wordpools/wasnorm_wordpool_576.txt	LTP342	ltpFR2	8	10	LIVER	833	n/a	n/a	0	0	0
2163.0263671875	n/a	WORD	4429878	wordpools/wasnorm_wordpool_576.txt	LTP342	ltpFR2	8	10	PASTRY	1022	n/a	n/a	0	0	0
2165.79248046875	n/a	WORD	4435543	wordpools/wasnorm_wordpool_576.txt	LTP342	ltpFR2	8	10	BLOCKADE	137	n/a	n/a	0	0	0
2168.25732421875	n/a	WORD	4440591	wordpools/wasnorm_wordpool_576.txt	LTP342	ltpFR2	8	10	AGENT	10	n/a	n/a	0	0	0
2170.6904296875	n/a	WORD	4445574	wordpools/wasnorm_wordpool_576.txt	LTP342	ltpFR2	8	10	LODGE	839	n/a	n/a	0	0	0
2173.50634765625	n/a	WORD	4451341	wordpools/wasnorm_wordpool_576.txt	LTP342	ltpFR2	8	10	WAGON	1578	n/a	n/a	0	0	0
2176.0869140625	n/a	WORD	4456626	wordpools/wasnorm_wordpool_576.txt	LTP342	ltpFR2	8	10	ROOSTER	1209	n/a	n/a	0	0	0
2178.6689453125	n/a	WORD	4461914	wordpools/wasnorm_wordpool_576.txt	LTP342	ltpFR2	8	10	BREAST	171	n/a	n/a	0	0	0
2181.46875	n/a	WORD	4467648	wordpools/wasnorm_wordpool_576.txt	LTP342	ltpFR2	8	10	OYSTER	995	n/a	n/a	0	0	0
2184.25	n/a	WORD	4473344	wordpools/wasnorm_wordpool_576.txt	LTP342	ltpFR2	8	10	LABEL	790	n/a	n/a	0	0	0
2187.015625	n/a	WORD	4479008	wordpools/wasnorm_wordpool_576.txt	LTP342	ltpFR2	8	10	CONTRACT	368	n/a	n/a	0	0	0
2189.66357421875	n/a	WORD	4484431	wordpools/wasnorm_wordpool_576.txt	LTP342	ltpFR2	8	10	STALLION	1369	n/a	n/a	0	0	0
2192.3125	n/a	WORD	4489856	wordpools/wasnorm_wordpool_576.txt	LTP342	ltpFR2	8	10	ROBBER	1197	n/a	n/a	0	0	0
2195.02880859375	n/a	WORD	4495419	wordpools/wasnorm_wordpool_576.txt	LTP342	ltpFR2	8	10	SHELF	1280	n/a	n/a	0	0	0
2197.7763671875	n/a	WORD	4501046	wordpools/wasnorm_wordpool_576.txt	LTP342	ltpFR2	8	10	DRIVER	499	n/a	n/a	0	0	0
2200.4091796875	n/a	WORD	4506438	wordpools/wasnorm_wordpool_576.txt	LTP342	ltpFR2	8	10	SUBWAY	1400	n/a	n/a	0	0	0
2203.0244140625	n/a	WORD	4511794	wordpools/wasnorm_wordpool_576.txt	LTP342	ltpFR2	8	10	CLAM	315	n/a	n/a	0	0	0
2205.55712890625	n/a	WORD	4516981	wordpools/wasnorm_wordpool_576.txt	LTP342	ltpFR2	8	10	JOURNAL	760	n/a	n/a	0	0	0
2208.322265625	n/a	WORD	4522644	wordpools/wasnorm_wordpool_576.txt	LTP342	ltpFR2	8	10	STUDENT	1395	n/a	n/a	0	0	0
2211.037109375	n/a	WORD	4528204	wordpools/wasnorm_wordpool_576.txt	LTP342	ltpFR2	8	10	QUARTER	1148	n/a	n/a	0	0	0
2212.65283203125	n/a	START	4531513	n/a	LTP342	ltpFR2	8	n/a	n/a	n/a	13	n/a	n/a	n/a	n/a
2213.7998046875	n/a	DISTRACTOR	4533862	n/a	LTP342	ltpFR2	8	10	n/a	n/a	n/a	n/a	0	0	0
2213.80322265625	n/a	PROB	4533869	n/a	LTP342	ltpFR2	8	n/a	n/a	n/a	13	17	5	6	6
2215.46923828125	n/a	PROB	4537281	n/a	LTP342	ltpFR2	8	n/a	n/a	n/a	13	24	9	7	8
2217.41796875	n/a	PROB	4541272	n/a	LTP342	ltpFR2	8	n/a	n/a	n/a	13	9	1	6	2
2219.06689453125	n/a	PROB	4544649	n/a	LTP342	ltpFR2	8	n/a	n/a	n/a	13	12	4	5	3
2220.3330078125	n/a	PROB	4547242	n/a	LTP342	ltpFR2	8	n/a	n/a	n/a	13	21	7	6	8
2221.81591796875	n/a	PROB	4550279	n/a	LTP342	ltpFR2	8	n/a	n/a	n/a	13	8	5	2	1
2223.34765625	n/a	PROB	4553416	n/a	LTP342	ltpFR2	8	n/a	n/a	n/a	13	20	6	8	6
2225.0966796875	n/a	PROB	4556998	n/a	LTP342	ltpFR2	8	n/a	n/a	n/a	13	10	1	5	4
2226.8798828125	n/a	PROB	4560650	n/a	LTP342	ltpFR2	8	n/a	n/a	n/a	13	23	9	5	9
2228.6455078125	n/a	PROB	4564266	n/a	LTP342	ltpFR2	8	n/a	n/a	n/a	13	17	4	7	6
2230.37744140625	n/a	PROB	4567813	n/a	LTP342	ltpFR2	8	n/a	n/a	n/a	13	16	2	9	5
2231.87744140625	n/a	PROB	4570885	n/a	LTP342	ltpFR2	8	n/a	n/a	n/a	13	9	6	1	2
2233.51025390625	n/a	PROB	4574229	n/a	LTP342	ltpFR2	8	n/a	n/a	n/a	13	12	4	6	2
2234.6103515625	n/a	PROB	4576482	n/a	LTP342	ltpFR2	8	n/a	n/a	n/a	13	20	3	8	9
2236.1572265625	n/a	STOP	4579650	n/a	LTP342	ltpFR2	8	n/a	n/a	n/a	13	n/a	n/a	n/a	n/a
2238.5771484375	n/a	REC_START	4584606	n/a	LTP342	ltpFR2	8	10	n/a	n/a	n/a	n/a	0	0	0
2239.1162109375	n/a	REC_WORD	4585710	wordpools/wasnorm_wordpool_576.txt	LTP342	ltpFR2	8	10	QUARTER	1148	n/a	n/a	0	0	0
2239.71630859375	n/a	REC_WORD	4586939	wordpools/wasnorm_wordpool_576.txt	LTP342	ltpFR2	8	10	JOURNAL	760	n/a	n/a	0	0	0
2240.111328125	n/a	REC_WORD	4587748	wordpools/wasnorm_wordpool_576.txt	LTP342	ltpFR2	8	10	STUDENT	1395	n/a	n/a	0	0	0
2240.908203125	n/a	REC_WORD	4589380	wordpools/wasnorm_wordpool_576.txt	LTP342	ltpFR2	8	10	WAGON	1578	n/a	n/a	0	0	0
2241.47607421875	n/a	REC_WORD	4590543	wordpools/wasnorm_wordpool_576.txt	LTP342	ltpFR2	8	10	ROOSTER	1209	n/a	n/a	0	0	0
2242.10009765625	n/a	REC_WORD	4591821	wordpools/wasnorm_wordpool_576.txt	LTP342	ltpFR2	8	10	BREAST	171	n/a	n/a	0	0	0
2242.63037109375	n/a	REC_WORD	4592907	wordpools/wasnorm_wordpool_576.txt	LTP342	ltpFR2	8	10	PERFUME	1049	n/a	n/a	0	0	0
2243.84814453125	n/a	REC_WORD	4595401	wordpools/wasnorm_wordpool_576.txt	LTP342	ltpFR2	8	10	REPORT	1184	n/a	n/a	0	0	0
2244.55712890625	n/a	REC_WORD	4596853	wordpools/wasnorm_wordpool_576.txt	LTP342	ltpFR2	8	10	LUMBER	848	n/a	n/a	0	0	0
2245.22607421875	n/a	REC_WORD	4598223	wordpools/wasnorm_wordpool_576.txt	LTP342	ltpFR2	8	10	ONION	977	n/a	n/a	0	0	0
2246.541015625	n/a	REC_WORD	4600916	wordpools/wasnorm_wordpool_576.txt	LTP342	ltpFR2	8	10	LODGE	839	n/a	n/a	0	0	0
2248.31884765625	n/a	REC_WORD	4604557	wordpools/wasnorm_wordpool_576.txt	LTP342	ltpFR2	8	10	LIVER	833	n/a	n/a	0	0	0
2252.18896484375	n/a	REC_WORD	4612483	wordpools/wasnorm_wordpool_576.txt	LTP342	ltpFR2	8	10	PASTRY	1022	n/a	n/a	0	0	0
2253.14404296875	n/a	REC_WORD	4614439	wordpools/wasnorm_wordpool_576.txt	LTP342	ltpFR2	8	10	AGENT	10	n/a	n/a	0	0	0
2256.802734375	n/a	REC_WORD	4621932	wordpools/wasnorm_wordpool_576.txt	LTP342	ltpFR2	8	10	DRIVER	499	n/a	n/a	0	0	0
2257.40966796875	n/a	REC_WORD	4623175	wordpools/wasnorm_wordpool_576.txt	LTP342	ltpFR2	8	10	STALLION	1369	n/a	n/a	0	0	0
2258.18798828125	n/a	REC_WORD	4624769	wordpools/wasnorm_wordpool_576.txt	LTP342	ltpFR2	8	10	ROBBER	1197	n/a	n/a	0	0	0
2258.8505859375	n/a	REC_WORD	4626126	wordpools/wasnorm_wordpool_576.txt	LTP342	ltpFR2	8	10	SHELF	1280	n/a	n/a	0	0	0
2329.03076171875	n/a	WORD	4769855	wordpools/wasnorm_wordpool_576.txt	LTP342	ltpFR2	8	11	CRICKET	408	n/a	n/a	0	0	0
2331.513671875	n/a	WORD	4774940	wordpools/wasnorm_wordpool_576.txt	LTP342	ltpFR2	8	11	ORCHID	982	n/a	n/a	0	0	0
2334.044921875	n/a	WORD	4780124	wordpools/wasnorm_wordpool_576.txt	LTP342	ltpFR2	8	11	SEAL	1262	n/a	n/a	0	0	0
2336.8095703125	n/a	WORD	4785786	wordpools/wasnorm_wordpool_576.txt	LTP342	ltpFR2	8	11	POSSUM	1112	n/a	n/a	0	0	0
2339.3427734375	n/a	WORD	4790974	wordpools/wasnorm_wordpool_576.txt	LTP342	ltpFR2	8	11	PREACHER	1119	n/a	n/a	0	0	0
2341.8916015625	n/a	WORD	4796194	wordpools/wasnorm_wordpool_576.txt	LTP342	ltpFR2	8	11	SLUG	1329	n/a	n/a	0	0	0
2344.4072265625	n/a	WORD	4801346	wordpools/wasnorm_wordpool_576.txt	LTP342	ltpFR2	8	11	LION	827	n/a	n/a	0	0	0
2347.03857421875	n/a	WORD	4806735	wordpools/wasnorm_wordpool_576.txt	LTP342	ltpFR2	8	11	BIKE	125	n/a	n/a	0	0	0
2349.50537109375	n/a	WORD	4811787	wordpools/wasnorm_wordpool_576.txt	LTP342	ltpFR2	8	11	CHAUFFEUR	283	n/a	n/a	0	0	0
2352.21923828125	n/a	WORD	4817345	wordpools/wasnorm_wordpool_576.txt	LTP342	ltpFR2	8	11	CONCERT	360	n/a	n/a	0	0	0
2354.701171875	n/a	WORD	4822428	wordpools/wasnorm_wordpool_576.txt	LTP342	ltpFR2	8	11	TABLET	1427	n/a	n/a	0	0	0
2357.39990234375	n/a	WORD	4827955	wordpools/wasnorm_wordpool_576.txt	LTP342	ltpFR2	8	11	XEROX	1628	n/a	n/a	0	0	0
2359.84912109375	n/a	WORD	4832971	wordpools/wasnorm_wordpool_576.txt	LTP342	ltpFR2	8	11	MARSH	874	n/a	n/a	0	0	0
2362.64794921875	n/a	WORD	4838703	wordpools/wasnorm_wordpool_576.txt	LTP342	ltpFR2	8	11	COUNTY	389	n/a	n/a	0	0	0
2365.4140625	n/a	WORD	4844368	wordpools/wasnorm_wordpool_576.txt	LTP342	ltpFR2	8	11	NOMAD	955	n/a	n/a	0	0	0
2368.1787109375	n/a	WORD	4850030	wordpools/wasnorm_wordpool_576.txt	LTP342	ltpFR2	8	11	PILOT	1070	n/a	n/a	0	0	0
2370.7607421875	n/a	WORD	4855318	wordpools/wasnorm_wordpool_576.txt	LTP342	ltpFR2	8	11	MATTRESS	879	n/a	n/a	0	0	0
2373.4765625	n/a	WORD	4860880	wordpools/wasnorm_wordpool_576.txt	LTP342	ltpFR2	8	11	COCOON	339	n/a	n/a	0	0	0
2376.20751953125	n/a	WORD	4866473	wordpools/wasnorm_wordpool_576.txt	LTP342	ltpFR2	8	11	LAPEL	800	n/a	n/a	0	0	0
2378.806640625	n/a	WORD	4871796	wordpools/wasnorm_wordpool_576.txt	LTP342	ltpFR2	8	11	FRANCE	601	n/a	n/a	0	0	0
2381.439453125	n/a	WORD	4877188	wordpools/wasnorm_wordpool_576.txt	LTP342	ltpFR2	8	11	RAFT	1159	n/a	n/a	0	0	0
2383.9873046875	n/a	WORD	4882406	wordpools/wasnorm_wordpool_576.txt	LTP342	ltpFR2	8	11	BROOK	177	n/a	n/a	0	0	0
2386.60400390625	n/a	WORD	4887765	wordpools/wasnorm_wordpool_576.txt	LTP342	ltpFR2	8	11	AIRPORT	13	n/a	n/a	0	0	0
2389.2353515625	n/a	WORD	4893154	wordpools/wasnorm_wordpool_576.txt	LTP342	ltpFR2	8	11	TEACHER	1440	n/a	n/a	0	0	0
2390.85107421875	n/a	START	4896463	n/a	LTP342	ltpFR2	8	n/a	n/a	n/a	14	n/a	n/a	n/a	n/a
2392.01513671875	n/a	DISTRACTOR	4898847	n/a	LTP342	ltpFR2	8	11	n/a	n/a	n/a	n/a	0	0	0
2392.01708984375	n/a	PROB	4898851	n/a	LTP342	ltpFR2	8	n/a	n/a	n/a	14	8	5	2	1
2395.416015625	n/a	PROB	4905812	n/a	LTP342	ltpFR2	8	n/a	n/a	n/a	14	19	6	7	6
2398.01416015625	n/a	PROB	4911133	n/a	LTP342	ltpFR2	8	n/a	n/a	n/a	14	15	9	5	1
2399.22998046875	n/a	PROB	4913623	n/a	LTP342	ltpFR2	8	n/a	n/a	n/a	14	20	7	8	5
2400.5966796875	n/a	PROB	4916422	n/a	LTP342	ltpFR2	8	n/a	n/a	n/a	14	13	1	3	9
2401.72900390625	n/a	PROB	4918741	n/a	LTP342	ltpFR2	8	n/a	n/a	n/a	14	11	3	2	6
2402.89501953125	n/a	PROB	4921129	n/a	LTP342	ltpFR2	8	n/a	n/a	n/a	14	22	6	8	8
2404.6435546875	n/a	PROB	4924710	n/a	LTP342	ltpFR2	8	n/a	n/a	n/a	14	16	7	2	7
2406.20947265625	n/a	PROB	4927917	n/a	LTP342	ltpFR2	8	n/a	n/a	n/a	14	13	8	3	2
2407.90966796875	n/a	PROB	4931399	n/a	LTP342	ltpFR2	8	n/a	n/a	n/a	14	10	1	1	8
2408.92578125	n/a	PROB	4933480	n/a	LTP342	ltpFR2	8	n/a	n/a	n/a	14	21	9	6	6
2410.357421875	n/a	PROB	4936412	n/a	LTP342	ltpFR2	8	n/a	n/a	n/a	14	15	5	7	3
2411.70751953125	n/a	PROB	4939177	n/a	LTP342	ltpFR2	8	n/a	n/a	n/a	14	14	9	3	2
2413.74267578125	n/a	STOP	4943345	n/a	LTP342	ltpFR2	8	n/a	n/a	n/a	14	n/a	n/a	n/a	n/a
2416.70556640625	n/a	REC_START	4949413	n/a	LTP342	ltpFR2	8	11	n/a	n/a	n/a	n/a	0	0	0
2417.42919921875	n/a	REC_WORD	4950895	wordpools/wasnorm_wordpool_576.txt	LTP342	ltpFR2	8	11	BROOK	177	n/a	n/a	0	0	0
2417.990234375	n/a	REC_WORD	4952044	wordpools/wasnorm_wordpool_576.txt	LTP342	ltpFR2	8	11	SEAL	1262	n/a	n/a	0	0	0
2418.71435546875	n/a	REC_WORD	4953527	wordpools/wasnorm_wordpool_576.txt	LTP342	ltpFR2	8	11	ORCHID	982	n/a	n/a	0	0	0
2419.33154296875	n/a	REC_WORD	4954791	wordpools/wasnorm_wordpool_576.txt	LTP342	ltpFR2	8	11	CRICKET	408	n/a	n/a	0	0	0
2420.09423828125	n/a	REC_WORD	4956353	wordpools/wasnorm_wordpool_576.txt	LTP342	ltpFR2	8	11	LION	827	n/a	n/a	0	0	0
2420.68408203125	n/a	REC_WORD	4957561	wordpools/wasnorm_wordpool_576.txt	LTP342	ltpFR2	8	11	BIKE	125	n/a	n/a	0	0	0
2421.84716796875	n/a	REC_WORD	4959943	wordpools/wasnorm_wordpool_576.txt	LTP342	ltpFR2	8	11	PREACHER	1119	n/a	n/a	0	0	0
2422.5771484375	n/a	REC_WORD	4961438	wordpools/wasnorm_wordpool_576.txt	LTP342	ltpFR2	8	11	CHAUFFEUR	283	n/a	n/a	0	0	0
2423.4111328125	n/a	REC_WORD	4963146	wordpools/wasnorm_wordpool_576.txt	LTP342	ltpFR2	8	11	CONCERT	360	n/a	n/a	0	0	0
2424.7333984375	n/a	REC_WORD	4965854	wordpools/wasnorm_wordpool_576.txt	LTP342	ltpFR2	8	11	TABLET	1427	n/a	n/a	0	0	0
2425.54638671875	n/a	REC_WORD	4967519	wordpools/wasnorm_wordpool_576.txt	LTP342	ltpFR2	8	11	XEROX	1628	n/a	n/a	0	0	0
2426.34130859375	n/a	REC_WORD	4969147	wordpools/wasnorm_wordpool_576.txt	LTP342	ltpFR2	8	11	MARSH	874	n/a	n/a	0	0	0
2435.0107421875	n/a	REC_WORD	4986902	wordpools/wasnorm_wordpool_576.txt	LTP342	ltpFR2	8	11	TEACHER	1440	n/a	n/a	0	0	0
2437.35888671875	n/a	REC_WORD	4991711	wordpools/wasnorm_wordpool_576.txt	LTP342	ltpFR2	8	11	AIRPORT	13	n/a	n/a	0	0	0
2440.974609375	n/a	REC_WORD	4999116	wordpools/wasnorm_wordpool_576.txt	LTP342	ltpFR2	8	11	RAFT	1159	n/a	n/a	0	0	0
2444.84765625	n/a	REC_WORD	5007048	wordpools/wasnorm_wordpool_576.txt	LTP342	ltpFR2	8	11	MATTRESS	879	n/a	n/a	0	0	0
2454.328125	n/a	REC_WORD	5026464	wordpools/wasnorm_wordpool_576.txt	LTP342	ltpFR2	8	11	LAPEL	800	n/a	n/a	0	0	0
2463.55029296875	n/a	REC_WORD	5045351	wordpools/wasnorm_wordpool_576.txt	LTP342	ltpFR2	8	11	POSSUM	1112	n/a	n/a	0	0	0
2507.14501953125	n/a	WORD	5134633	wordpools/wasnorm_wordpool_576.txt	LTP342	ltpFR2	8	12	BOX	159	n/a	n/a	0	0	0
2509.57763671875	n/a	WORD	5139615	wordpools/wasnorm_wordpool_576.txt	LTP342	ltpFR2	8	12	MASK	876	n/a	n/a	0	0	0
2512.3427734375	n/a	WORD	5145278	wordpools/wasnorm_wordpool_576.txt	LTP342	ltpFR2	8	12	HOOD	714	n/a	n/a	0	0	0
2515.12451171875	n/a	WORD	5150975	wordpools/wasnorm_wordpool_576.txt	LTP342	ltpFR2	8	12	SWORD	1423	n/a	n/a	0	0	0
2517.923828125	n/a	WORD	5156708	wordpools/wasnorm_wordpool_576.txt	LTP342	ltpFR2	8	12	BADGE	68	n/a	n/a	0	0	0
2520.5224609375	n/a	WORD	5162030	wordpools/wasnorm_wordpool_576.txt	LTP342	ltpFR2	8	12	GUARD	667	n/a	n/a	0	0	0
2523.30322265625	n/a	WORD	5167725	wordpools/wasnorm_wordpool_576.txt	LTP342	ltpFR2	8	12	FREEZER	604	n/a	n/a	0	0	0
2525.869140625	n/a	WORD	5172980	wordpools/wasnorm_wordpool_576.txt	LTP342	ltpFR2	8	12	LOVER	846	n/a	n/a	0	0	0
2528.68408203125	n/a	WORD	5178745	wordpools/wasnorm_wordpool_576.txt	LTP342	ltpFR2	8	12	FLIPPER	580	n/a	n/a	0	0	0
2531.43408203125	n/a	WORD	5184377	wordpools/wasnorm_wordpool_576.txt	LTP342	ltpFR2	8	12	HAMPER	682	n/a	n/a	0	0	0
2533.96533203125	n/a	WORD	5189561	wordpools/wasnorm_wordpool_576.txt	LTP342	ltpFR2	8	12	LASER	801	n/a	n/a	0	0	0
2536.59814453125	n/a	WORD	5194953	wordpools/wasnorm_wordpool_576.txt	LTP342	ltpFR2	8	12	BULLET	194	n/a	n/a	0	0	0
2539.4140625	n/a	WORD	5200720	wordpools/wasnorm_wordpool_576.txt	LTP342	ltpFR2	8	12	PISTOL	1075	n/a	n/a	0	0	0
2542.06201171875	n/a	WORD	5206143	wordpools/wasnorm_wordpool_576.txt	LTP342	ltpFR2	8	12	SIDEWALK	1303	n/a	n/a	0	0	0
2544.77685546875	n/a	WORD	5211703	wordpools/wasnorm_wordpool_576.txt	LTP342	ltpFR2	8	12	SCARF	1246	n/a	n/a	0	0	0
2547.49267578125	n/a	WORD	5217265	wordpools/wasnorm_wordpool_576.txt	LTP342	ltpFR2	8	12	LAGOON	795	n/a	n/a	0	0	0
2549.99072265625	n/a	WORD	5222381	wordpools/wasnorm_wordpool_576.txt	LTP342	ltpFR2	8	12	TRACTOR	1493	n/a	n/a	0	0	0
2552.70654296875	n/a	WORD	5227943	wordpools/wasnorm_wordpool_576.txt	LTP342	ltpFR2	8	12	TUBA	1515	n/a	n/a	0	0	0
2555.40576171875	n/a	WORD	5233471	wordpools/wasnorm_wordpool_576.txt	LTP342	ltpFR2	8	12	CHEMIST	292	n/a	n/a	0	0	0
2558.12060546875	n/a	WORD	5239031	wordpools/wasnorm_wordpool_576.txt	LTP342	ltpFR2	8	12	HIGHWAY	707	n/a	n/a	0	0	0
2560.70263671875	n/a	WORD	5244319	wordpools/wasnorm_wordpool_576.txt	LTP342	ltpFR2	8	12	STATUE	1374	n/a	n/a	0	0	0
2563.30126953125	n/a	WORD	5249641	wordpools/wasnorm_wordpool_576.txt	LTP342	ltpFR2	8	12	KEEPER	769	n/a	n/a	0	0	0
2565.85009765625	n/a	WORD	5254861	wordpools/wasnorm_wordpool_576.txt	LTP342	ltpFR2	8	12	HUSBAND	728	n/a	n/a	0	0	0
2568.33203125	n/a	WORD	5259944	wordpools/wasnorm_wordpool_576.txt	LTP342	ltpFR2	8	12	TOURIST	1488	n/a	n/a	0	0	0
2569.9482421875	n/a	START	5263254	n/a	LTP342	ltpFR2	8	n/a	n/a	n/a	15	n/a	n/a	n/a	n/a
2570.8359375	n/a	DISTRACTOR	5265072	n/a	LTP342	ltpFR2	8	12	n/a	n/a	n/a	n/a	0	0	0
2570.84716796875	n/a	PROB	5265095	n/a	LTP342	ltpFR2	8	n/a	n/a	n/a	15	17	9	8	1
2572.56396484375	n/a	PROB	5268611	n/a	LTP342	ltpFR2	8	n/a	n/a	n/a	15	18	5	9	4
2575.17919921875	n/a	PROB	5273967	n/a	LTP342	ltpFR2	8	n/a	n/a	n/a	15	25	9	7	8
2577.2109375	n/a	PROB	5278128	n/a	LTP342	ltpFR2	8	n/a	n/a	n/a	15	24	8	8	6
2580.126953125	n/a	PROB	5284100	n/a	LTP342	ltpFR2	8	n/a	n/a	n/a	15	16	1	6	9
2583.375	n/a	PROB	5290752	n/a	LTP342	ltpFR2	8	n/a	n/a	n/a	15	14	2	5	7
2585.79052734375	n/a	PROB	5295699	n/a	LTP342	ltpFR2	8	n/a	n/a	n/a	15	18	1	8	9
2587.0068359375	n/a	PROB	5298190	n/a	LTP342	ltpFR2	8	n/a	n/a	n/a	15	19	7	7	5
2588.53955078125	n/a	PROB	5301329	n/a	LTP342	ltpFR2	8	n/a	n/a	n/a	15	16	3	4	7
2589.9384765625	n/a	PROB	5304194	n/a	LTP342	ltpFR2	8	n/a	n/a	n/a	15	16	4	9	3
2592.560546875	n/a	STOP	5309564	n/a	LTP342	ltpFR2	8	n/a	n/a	n/a	15	n/a	n/a	n/a	n/a
2595.80224609375	n/a	REC_START	5316203	n/a	LTP342	ltpFR2	8	12	n/a	n/a	n/a	n/a	0	0	0
2596.73046875	n/a	REC_WORD	5318104	wordpools/wasnorm_wordpool_576.txt	LTP342	ltpFR2	8	12	KEEPER	769	n/a	n/a	0	0	0
2597.4423828125	n/a	REC_WORD	5319562	wordpools/wasnorm_wordpool_576.txt	LTP342	ltpFR2	8	12	HUSBAND	728	n/a	n/a	0	0	0
2598.04638671875	n/a	REC_WORD	5320799	wordpools/wasnorm_wordpool_576.txt	LTP342	ltpFR2	8	12	STATUE	1374	n/a	n/a	0	0	0
2598.859375	n/a	REC_WORD	5322464	wordpools/wasnorm_wordpool_576.txt	LTP342	ltpFR2	8	12	HIGHWAY	707	n/a	n/a	0	0	0
2599.6474609375	n/a	REC_WORD	5324078	wordpools/wasnorm_wordpool_576.txt	LTP342	ltpFR2	8	12	CHEMIST	292	n/a	n/a	0	0	0
2600.54443359375	n/a	REC_WORD	5325915	wordpools/wasnorm_wordpool_576.txt	LTP342	ltpFR2	8	12	TRACTOR	1493	n/a	n/a	0	0	0
2604.54638671875	n/a	REC_WORD	5334111	wordpools/wasnorm_wordpool_576.txt	LTP342	ltpFR2	8	12	TUBA	1515	n/a	n/a	0	0	0
2605.833984375	n/a	REC_WORD	5336748	wordpools/wasnorm_wordpool_576.txt	LTP342	ltpFR2	8	12	GUARD	667	n/a	n/a	0	0	0
2607.58203125	n/a	REC_WORD	5340328	wordpools/wasnorm_wordpool_576.txt	LTP342	ltpFR2	8	12	FREEZER	604	n/a	n/a	0	0	0
2608.3349609375	n/a	REC_WORD	5341870	wordpools/wasnorm_wordpool_576.txt	LTP342	ltpFR2	8	12	LAGOON	795	n/a	n/a	0	0	0
2610.6640625	n/a	REC_WORD	5346640	wordpools/wasnorm_wordpool_576.txt	LTP342	ltpFR2	8	12	SIDEWALK	1303	n/a	n/a	0	0	0
2611.56982421875	n/a	REC_WORD	5348495	wordpools/wasnorm_wordpool_576.txt	LTP342	ltpFR2	8	12	LASER	801	n/a	n/a	0	0	0
2612.47509765625	n/a	REC_WORD	5350349	wordpools/wasnorm_wordpool_576.txt	LTP342	ltpFR2	8	12	BULLET	194	n/a	n/a	0	0	0
2613.30615234375	n/a	REC_WORD	5352051	wordpools/wasnorm_wordpool_576.txt	LTP342	ltpFR2	8	12	PISTOL	1075	n/a	n/a	0	0	0
2615.15380859375	n/a	REC_WORD	5355835	wordpools/wasnorm_wordpool_576.txt	LTP342	ltpFR2	8	12	BOX	159	n/a	n/a	0	0	0
2615.7177734375	n/a	REC_WORD	5356990	wordpools/wasnorm_wordpool_576.txt	LTP342	ltpFR2	8	12	MASK	876	n/a	n/a	0	0	0
2616.32080078125	n/a	REC_WORD	5358225	wordpools/wasnorm_wordpool_576.txt	LTP342	ltpFR2	8	12	BADGE	68	n/a	n/a	0	0	0
2616.81884765625	n/a	REC_WORD	5359245	wordpools/wasnorm_wordpool_576.txt	LTP342	ltpFR2	8	12	HOOD	714	n/a	n/a	0	0	0
2617.2529296875	n/a	REC_WORD	5360134	wordpools/wasnorm_wordpool_576.txt	LTP342	ltpFR2	8	12	SWORD	1423	n/a	n/a	0	0	0
2622.15966796875	n/a	REC_WORD	5370183	wordpools/wasnorm_wordpool_576.txt	LTP342	ltpFR2	8	12	SCARF	1246	n/a	n/a	0	0	0
2625.0546875	n/a	REC_WORD	5376112	wordpools/wasnorm_wordpool_576.txt	LTP342	ltpFR2	8	12	HAMPER	682	n/a	n/a	0	0	0
2634.9384765625	n/a	REC_WORD	5396354	wordpools/wasnorm_wordpool_576.txt	LTP342	ltpFR2	8	12	FLIPPER	580	n/a	n/a	0	0	0
2686.24169921875	n/a	DISTRACTOR	5501423	n/a	LTP342	ltpFR2	8	13	n/a	n/a	n/a	n/a	0	0	0
2686.24169921875	n/a	START	5501423	n/a	LTP342	ltpFR2	8	n/a	n/a	n/a	16	n/a	n/a	n/a	n/a
2686.2587890625	n/a	PROB	5501458	n/a	LTP342	ltpFR2	8	n/a	n/a	n/a	16	13	1	7	5
2688.0078125	n/a	PROB	5505040	n/a	LTP342	ltpFR2	8	n/a	n/a	n/a	16	14	4	6	4
2689.52490234375	n/a	PROB	5508147	n/a	LTP342	ltpFR2	8	n/a	n/a	n/a	16	20	5	6	9
2691.35693359375	n/a	PROB	5511899	n/a	LTP342	ltpFR2	8	n/a	n/a	n/a	16	14	2	3	9
2692.53955078125	n/a	PROB	5514321	n/a	LTP342	ltpFR2	8	n/a	n/a	n/a	16	18	3	6	9
2693.78857421875	n/a	PROB	5516879	n/a	LTP342	ltpFR2	8	n/a	n/a	n/a	16	16	1	9	6
2694.87158203125	n/a	PROB	5519097	n/a	LTP342	ltpFR2	8	n/a	n/a	n/a	16	5	2	1	2
2695.7705078125	n/a	PROB	5520938	n/a	LTP342	ltpFR2	8	n/a	n/a	n/a	16	17	2	9	6
2697.32080078125	n/a	PROB	5524113	n/a	LTP342	ltpFR2	8	n/a	n/a	n/a	16	6	1	2	3
2698.2197265625	n/a	PROB	5525954	n/a	LTP342	ltpFR2	8	n/a	n/a	n/a	16	18	3	7	8
2699.33544921875	n/a	PROB	5528239	n/a	LTP342	ltpFR2	8	n/a	n/a	n/a	16	15	6	8	1
2701.2353515625	n/a	PROB	5532130	n/a	LTP342	ltpFR2	8	n/a	n/a	n/a	16	18	9	4	5
2702.734375	n/a	PROB	5535200	n/a	LTP342	ltpFR2	8	n/a	n/a	n/a	16	12	5	5	2
2703.86767578125	n/a	PROB	5537521	n/a	LTP342	ltpFR2	8	n/a	n/a	n/a	16	19	7	8	4
2705.08349609375	n/a	PROB	5540011	n/a	LTP342	ltpFR2	8	n/a	n/a	n/a	16	16	3	8	5
2706.365234375	n/a	PROB	5542636	n/a	LTP342	ltpFR2	8	n/a	n/a	n/a	16	12	5	4	3
2707.7314453125	n/a	PROB	5545434	n/a	LTP342	ltpFR2	8	n/a	n/a	n/a	16	15	3	7	5
2708.91943359375	n/a	STOP	5547867	n/a	LTP342	ltpFR2	8	n/a	n/a	n/a	16	n/a	n/a	n/a	n/a
2711.1630859375	n/a	WORD	5552462	wordpools/wasnorm_wordpool_576.txt	LTP342	ltpFR2	8	13	PASSAGE	1019	n/a	n/a	0	0	0
2713.62939453125	n/a	WORD	5557513	wordpools/wasnorm_wordpool_576.txt	LTP342	ltpFR2	8	13	HUMAN	726	n/a	n/a	0	0	0
2716.17822265625	n/a	WORD	5562733	wordpools/wasnorm_wordpool_576.txt	LTP342	ltpFR2	8	13	FLUTE	585	n/a	n/a	0	0	0
2718.9931640625	n/a	WORD	5568498	wordpools/wasnorm_wordpool_576.txt	LTP342	ltpFR2	8	13	PIZZA	1079	n/a	n/a	0	0	0
2721.64208984375	n/a	WORD	5573923	wordpools/wasnorm_wordpool_576.txt	LTP342	ltpFR2	8	13	PRIMATE	1123	n/a	n/a	0	0	0
2724.35693359375	n/a	WORD	5579483	wordpools/wasnorm_wordpool_576.txt	LTP342	ltpFR2	8	13	BANQUET	86	n/a	n/a	0	0	0
2727.07275390625	n/a	WORD	5585045	wordpools/wasnorm_wordpool_576.txt	LTP342	ltpFR2	8	13	WAITER	1580	n/a	n/a	0	0	0
2729.5556640625	n/a	WORD	5590130	wordpools/wasnorm_wordpool_576.txt	LTP342	ltpFR2	8	13	WHISTLE	1606	n/a	n/a	0	0	0
2732.0205078125	n/a	WORD	5595178	wordpools/wasnorm_wordpool_576.txt	LTP342	ltpFR2	8	13	INFANT	737	n/a	n/a	0	0	0
2734.70263671875	n/a	WORD	5600671	wordpools/wasnorm_wordpool_576.txt	LTP342	ltpFR2	8	13	FIDDLE	561	n/a	n/a	0	0	0
2737.50146484375	n/a	WORD	5606403	wordpools/wasnorm_wordpool_576.txt	LTP342	ltpFR2	8	13	NOVEL	960	n/a	n/a	0	0	0
2740.24951171875	n/a	WORD	5612031	wordpools/wasnorm_wordpool_576.txt	LTP342	ltpFR2	8	13	MISTER	901	n/a	n/a	0	0	0
2742.78125	n/a	WORD	5617216	wordpools/wasnorm_wordpool_576.txt	LTP342	ltpFR2	8	13	PECAN	1036	n/a	n/a	0	0	0
2745.3984375	n/a	WORD	5622576	wordpools/wasnorm_wordpool_576.txt	LTP342	ltpFR2	8	13	SHORTCAKE	1292	n/a	n/a	0	0	0
2747.84619140625	n/a	WORD	5627589	wordpools/wasnorm_wordpool_576.txt	LTP342	ltpFR2	8	13	VALLEY	1545	n/a	n/a	0	0	0
2750.5791015625	n/a	WORD	5633186	wordpools/wasnorm_wordpool_576.txt	LTP342	ltpFR2	8	13	HIKER	708	n/a	n/a	0	0	0
2753.39306640625	n/a	WORD	5638949	wordpools/wasnorm_wordpool_576.txt	LTP342	ltpFR2	8	13	CHAPEL	280	n/a	n/a	0	0	0
2756.19189453125	n/a	WORD	5644681	wordpools/wasnorm_wordpool_576.txt	LTP342	ltpFR2	8	13	DUST	508	n/a	n/a	0	0	0
2758.673828125	n/a	WORD	5649764	wordpools/wasnorm_wordpool_576.txt	LTP342	ltpFR2	8	13	LAKE	796	n/a	n/a	0	0	0
2761.22265625	n/a	WORD	5654984	wordpools/wasnorm_wordpool_576.txt	LTP342	ltpFR2	8	13	THIEF	1456	n/a	n/a	0	0	0
2763.921875	n/a	WORD	5660512	wordpools/wasnorm_wordpool_576.txt	LTP342	ltpFR2	8	13	TABLE	1426	n/a	n/a	0	0	0
2766.37060546875	n/a	WORD	5665527	wordpools/wasnorm_wordpool_576.txt	LTP342	ltpFR2	8	13	PADDING	999	n/a	n/a	0	0	0
2769.185546875	n/a	WORD	5671292	wordpools/wasnorm_wordpool_576.txt	LTP342	ltpFR2	8	13	PLAYGROUND	1087	n/a	n/a	0	0	0
2771.7177734375	n/a	WORD	5676478	wordpools/wasnorm_wordpool_576.txt	LTP342	ltpFR2	8	13	TROMBONE	1508	n/a	n/a	0	0	0
2773.33349609375	n/a	START	5679787	n/a	LTP342	ltpFR2	8	n/a	n/a	n/a	17	n/a	n/a	n/a	n/a
2774.50341796875	n/a	DISTRACTOR	5682183	n/a	LTP342	ltpFR2	8	13	n/a	n/a	n/a	n/a	0	0	0
2774.517578125	n/a	PROB	5682212	n/a	LTP342	ltpFR2	8	n/a	n/a	n/a	17	1	2	3	6
2776.1484375	n/a	PROB	5685552	n/a	LTP342	ltpFR2	8	n/a	n/a	n/a	17	9	3	1	5
2777.78125	n/a	PROB	5688896	n/a	LTP342	ltpFR2	8	n/a	n/a	n/a	17	8	1	2	5
2778.96435546875	n/a	PROB	5691319	n/a	LTP342	ltpFR2	8	n/a	n/a	n/a	17	16	3	7	6
2780.18017578125	n/a	PROB	5693809	n/a	LTP342	ltpFR2	8	n/a	n/a	n/a	17	17	8	6	3
2781.9130859375	n/a	PROB	5697358	n/a	LTP342	ltpFR2	8	n/a	n/a	n/a	17	5	3	1	1
2782.84521484375	n/a	PROB	5699267	n/a	LTP342	ltpFR2	8	n/a	n/a	n/a	17	16	5	6	6
2784.17822265625	n/a	PROB	5701997	n/a	LTP342	ltpFR2	8	n/a	n/a	n/a	17	17	5	7	5
2786.0439453125	n/a	PROB	5705818	n/a	LTP342	ltpFR2	8	n/a	n/a	n/a	17	19	6	8	5
2787.7099609375	n/a	PROB	5709230	n/a	LTP342	ltpFR2	8	n/a	n/a	n/a	17	17	1	9	7
2789.10888671875	n/a	PROB	5712095	n/a	LTP342	ltpFR2	8	n/a	n/a	n/a	17	12	2	5	5
2790.375	n/a	PROB	5714688	n/a	LTP342	ltpFR2	8	n/a	n/a	n/a	17	19	5	2	2
2792.5751953125	n/a	PROB	5719194	n/a	LTP342	ltpFR2	8	n/a	n/a	n/a	17	12	1	5	6
2794.27392578125	n/a	PROB	5722673	n/a	LTP342	ltpFR2	8	n/a	n/a	n/a	17	19	9	5	4
2796.0556640625	n/a	STOP	5726322	n/a	LTP342	ltpFR2	8	n/a	n/a	n/a	17	n/a	n/a	n/a	n/a
2799.27197265625	n/a	REC_START	5732909	n/a	LTP342	ltpFR2	8	13	n/a	n/a	n/a	n/a	0	0	0
2801.03173828125	n/a	REC_WORD	5736513	wordpools/wasnorm_wordpool_576.txt	LTP342	ltpFR2	8	13	HIKER	708	n/a	n/a	0	0	0
2801.64892578125	n/a	REC_WORD	5737777	wordpools/wasnorm_wordpool_576.txt	LTP342	ltpFR2	8	13	DUST	508	n/a	n/a	0	0	0
2802.0439453125	n/a	REC_WORD	5738586	wordpools/wasnorm_wordpool_576.txt	LTP342	ltpFR2	8	13	LAKE	796	n/a	n/a	0	0	0
2802.4697265625	n/a	REC_WORD	5739458	wordpools/wasnorm_wordpool_576.txt	LTP342	ltpFR2	8	13	INFANT	737	n/a	n/a	0	0	0
2803.0458984375	n/a	REC_WORD	5740638	wordpools/wasnorm_wordpool_576.txt	LTP342	ltpFR2	8	13	FIDDLE	561	n/a	n/a	0	0	0
2804.24365234375	n/a	REC_WORD	5743091	wordpools/wasnorm_wordpool_576.txt	LTP342	ltpFR2	8	13	TROMBONE	1508	n/a	n/a	0	0	0
2804.8095703125	n/a	REC_WORD	5744250	wordpools/wasnorm_wordpool_576.txt	LTP342	ltpFR2	8	13	FLUTE	585	n/a	n/a	0	0	0
2805.2177734375	n/a	REC_WORD	5745086	wordpools/wasnorm_wordpool_576.txt	LTP342	ltpFR2	8	13	WHISTLE	1606	n/a	n/a	0	0	0
2806.3857421875	n/a	REC_WORD	5747478	wordpools/wasnorm_wordpool_576.txt	LTP342	ltpFR2	8	13	PASSAGE	1019	n/a	n/a	0	0	0
2806.927734375	n/a	REC_WORD	5748588	wordpools/wasnorm_wordpool_576.txt	LTP342	ltpFR2	8	13	WAITER	1580	n/a	n/a	0	0	0
2807.6416015625	n/a	REC_WORD	5750050	wordpools/wasnorm_wordpool_576.txt	LTP342	ltpFR2	8	13	BANQUET	86	n/a	n/a	0	0	0
2808.560546875	n/a	REC_WORD	5751932	wordpools/wasnorm_wordpool_576.txt	LTP342	ltpFR2	8	13	HUMAN	726	n/a	n/a	0	0	0
2809.09033203125	n/a	REC_WORD	5753017	wordpools/wasnorm_wordpool_576.txt	LTP342	ltpFR2	8	13	PRIMATE	1123	n/a	n/a	0	0	0
2812.20947265625	n/a	REC_WORD	5759405	wordpools/wasnorm_wordpool_576.txt	LTP342	ltpFR2	8	13	PIZZA	1079	n/a	n/a	0	0	0
2816.78955078125	n/a	REC_WORD	5768785	wordpools/wasnorm_wordpool_576.txt	LTP342	ltpFR2	8	13	PADDING	999	n/a	n/a	0	0	0
2817.63427734375	n/a	REC_WORD	5770515	wordpools/wasnorm_wordpool_576.txt	LTP342	ltpFR2	8	13	TABLE	1426	n/a	n/a	0	0	0
2818.7333984375	n/a	REC_WORD	5772766	wordpools/wasnorm_wordpool_576.txt	LTP342	ltpFR2	8	13	THIEF	1456	n/a	n/a	0	0	0
2821.25732421875	n/a	REC_WORD	5777935	wordpools/wasnorm_wordpool_576.txt	LTP342	ltpFR2	8	13	PLAYGROUND	1087	n/a	n/a	0	0	0
2889.71142578125	n/a	WORD	5918129	wordpools/wasnorm_wordpool_576.txt	LTP342	ltpFR2	8	14	LADY	794	n/a	n/a	0	0	0
2892.16015625	n/a	WORD	5923144	wordpools/wasnorm_wordpool_576.txt	LTP342	ltpFR2	8	14	DINER	467	n/a	n/a	0	0	0
2894.77490234375	n/a	WORD	5928499	wordpools/wasnorm_wordpool_576.txt	LTP342	ltpFR2	8	14	FLASK	576	n/a	n/a	0	0	0
2897.3740234375	n/a	WORD	5933822	wordpools/wasnorm_wordpool_576.txt	LTP342	ltpFR2	8	14	SALMON	1227	n/a	n/a	0	0	0
2899.97314453125	n/a	WORD	5939145	wordpools/wasnorm_wordpool_576.txt	LTP342	ltpFR2	8	14	SALAD	1224	n/a	n/a	0	0	0
2902.55615234375	n/a	WORD	5944435	wordpools/wasnorm_wordpool_576.txt	LTP342	ltpFR2	8	14	PLAID	1080	n/a	n/a	0	0	0
2905.23681640625	n/a	WORD	5949925	wordpools/wasnorm_wordpool_576.txt	LTP342	ltpFR2	8	14	DRESS	495	n/a	n/a	0	0	0
2907.935546875	n/a	WORD	5955452	wordpools/wasnorm_wordpool_576.txt	LTP342	ltpFR2	8	14	SAUSAGE	1238	n/a	n/a	0	0	0
2910.5859375	n/a	WORD	5960880	wordpools/wasnorm_wordpool_576.txt	LTP342	ltpFR2	8	14	GANGSTER	620	n/a	n/a	0	0	0
2913.349609375	n/a	WORD	5966540	wordpools/wasnorm_wordpool_576.txt	LTP342	ltpFR2	8	14	WRENCH	1625	n/a	n/a	0	0	0
2916.11572265625	n/a	WORD	5972205	wordpools/wasnorm_wordpool_576.txt	LTP342	ltpFR2	8	14	SERVANT	1271	n/a	n/a	0	0	0
2918.73046875	n/a	WORD	5977560	wordpools/wasnorm_wordpool_576.txt	LTP342	ltpFR2	8	14	WAITRESS	1581	n/a	n/a	0	0	0
2921.3125	n/a	WORD	5982848	wordpools/wasnorm_wordpool_576.txt	LTP342	ltpFR2	8	14	SHORTS	1293	n/a	n/a	0	0	0
2923.978515625	n/a	WORD	5988308	wordpools/wasnorm_wordpool_576.txt	LTP342	ltpFR2	8	14	CAFE	216	n/a	n/a	0	0	0
2926.66015625	n/a	WORD	5993800	wordpools/wasnorm_wordpool_576.txt	LTP342	ltpFR2	8	14	HELMET	702	n/a	n/a	0	0	0
2929.1591796875	n/a	WORD	5998918	wordpools/wasnorm_wordpool_576.txt	LTP342	ltpFR2	8	14	WRIST	1626	n/a	n/a	0	0	0
2931.89111328125	n/a	WORD	6004513	wordpools/wasnorm_wordpool_576.txt	LTP342	ltpFR2	8	14	DIME	466	n/a	n/a	0	0	0
2934.60693359375	n/a	WORD	6010075	wordpools/wasnorm_wordpool_576.txt	LTP342	ltpFR2	8	14	STAR	1373	n/a	n/a	0	0	0
2937.35498046875	n/a	WORD	6015703	wordpools/wasnorm_wordpool_576.txt	LTP342	ltpFR2	8	14	CURTAIN	427	n/a	n/a	0	0	0
2939.88671875	n/a	WORD	6020888	wordpools/wasnorm_wordpool_576.txt	LTP342	ltpFR2	8	14	RIFLE	1192	n/a	n/a	0	0	0
2942.3359375	n/a	WORD	6025904	wordpools/wasnorm_wordpool_576.txt	LTP342	ltpFR2	8	14	CHAMPAGNE	278	n/a	n/a	0	0	0
2945.03466796875	n/a	WORD	6031431	wordpools/wasnorm_wordpool_576.txt	LTP342	ltpFR2	8	14	VAGRANT	1544	n/a	n/a	0	0	0
2947.78369140625	n/a	WORD	6037061	wordpools/wasnorm_wordpool_576.txt	LTP342	ltpFR2	8	14	CASHIER	254	n/a	n/a	0	0	0
2950.49951171875	n/a	WORD	6042623	wordpools/wasnorm_wordpool_576.txt	LTP342	ltpFR2	8	14	PLAZA	1088	n/a	n/a	0	0	0
2952.11474609375	n/a	START	6045931	n/a	LTP342	ltpFR2	8	n/a	n/a	n/a	18	n/a	n/a	n/a	n/a
2953.13671875	n/a	DISTRACTOR	6048024	n/a	LTP342	ltpFR2	8	14	n/a	n/a	n/a	n/a	0	0	0
2953.1474609375	n/a	PROB	6048046	n/a	LTP342	ltpFR2	8	n/a	n/a	n/a	18	14	2	3	9
2954.6796875	n/a	PROB	6051184	n/a	LTP342	ltpFR2	8	n/a	n/a	n/a	18	6	2	1	3
2955.7626953125	n/a	PROB	6053402	n/a	LTP342	ltpFR2	8	n/a	n/a	n/a	18	14	4	2	8
2957.29541015625	n/a	PROB	6056541	n/a	LTP342	ltpFR2	8	n/a	n/a	n/a	18	14	9	3	2
2958.54541015625	n/a	PROB	6059101	n/a	LTP342	ltpFR2	8	n/a	n/a	n/a	18	20	4	9	7
2960.42822265625	n/a	PROB	6062957	n/a	LTP342	ltpFR2	8	n/a	n/a	n/a	18	18	9	8	1
2961.9091796875	n/a	PROB	6065990	n/a	LTP342	ltpFR2	8	n/a	n/a	n/a	18	19	8	5	6
2963.609375	n/a	PROB	6069472	n/a	LTP342	ltpFR2	8	n/a	n/a	n/a	18	14	4	1	9
2964.7421875	n/a	PROB	6071792	n/a	LTP342	ltpFR2	8	n/a	n/a	n/a	18	24	8	9	7
2966.5419921875	n/a	PROB	6075478	n/a	LTP342	ltpFR2	8	n/a	n/a	n/a	18	24	8	8	8
2967.85693359375	n/a	PROB	6078171	n/a	LTP342	ltpFR2	8	n/a	n/a	n/a	18	10	8	1	1
2968.873046875	n/a	PROB	6080252	n/a	LTP342	ltpFR2	8	n/a	n/a	n/a	18	14	1	7	6
2970.43994140625	n/a	PROB	6083461	n/a	LTP342	ltpFR2	8	n/a	n/a	n/a	18	16	5	3	8
2971.7548828125	n/a	PROB	6086154	n/a	LTP342	ltpFR2	8	n/a	n/a	n/a	18	11	3	1	7
2973.15380859375	n/a	PROB	6089019	n/a	LTP342	ltpFR2	8	n/a	n/a	n/a	18	18	2	9	7
2974.720703125	n/a	STOP	6092228	n/a	LTP342	ltpFR2	8	n/a	n/a	n/a	18	n/a	n/a	n/a	n/a
2977.93603515625	n/a	REC_START	6098813	n/a	LTP342	ltpFR2	8	14	n/a	n/a	n/a	n/a	0	0	0
2979.43994140625	n/a	REC_WORD	6101893	wordpools/wasnorm_wordpool_576.txt	LTP342	ltpFR2	8	14	SERVANT	1271	n/a	n/a	0	0	0
2980.2236328125	n/a	REC_WORD	6103498	wordpools/wasnorm_wordpool_576.txt	LTP342	ltpFR2	8	14	WAITRESS	1581	n/a	n/a	0	0	0
2980.90087890625	n/a	REC_WORD	6104885	wordpools/wasnorm_wordpool_576.txt	LTP342	ltpFR2	8	14	LADY	794	n/a	n/a	0	0	0
2982.3544921875	n/a	REC_WORD	6107862	wordpools/wasnorm_wordpool_576.txt	LTP342	ltpFR2	8	14	PLAID	1080	n/a	n/a	0	0	0
2983.1298828125	n/a	REC_WORD	6109450	wordpools/wasnorm_wordpool_576.txt	LTP342	ltpFR2	8	14	DRESS	495	n/a	n/a	0	0	0
2984.0458984375	n/a	REC_WORD	6111326	wordpools/wasnorm_wordpool_576.txt	LTP342	ltpFR2	8	14	FLASK	576	n/a	n/a	0	0	0
2985.6904296875	n/a	REC_WORD	6114694	wordpools/wasnorm_wordpool_576.txt	LTP342	ltpFR2	8	14	SALMON	1227	n/a	n/a	0	0	0
2986.29052734375	n/a	REC_WORD	6115923	wordpools/wasnorm_wordpool_576.txt	LTP342	ltpFR2	8	14	SALAD	1224	n/a	n/a	0	0	0
2989.2197265625	n/a	REC_WORD	6121922	wordpools/wasnorm_wordpool_576.txt	LTP342	ltpFR2	8	14	DINER	467	n/a	n/a	0	0	0
2989.767578125	n/a	REC_WORD	6123044	wordpools/wasnorm_wordpool_576.txt	LTP342	ltpFR2	8	14	RIFLE	1192	n/a	n/a	0	0	0
2990.322265625	n/a	REC_WORD	6124180	wordpools/wasnorm_wordpool_576.txt	LTP342	ltpFR2	8	14	PLAZA	1088	n/a	n/a	0	0	0
2992.74658203125	n/a	REC_WORD	6129145	wordpools/wasnorm_wordpool_576.txt	LTP342	ltpFR2	8	14	SAUSAGE	1238	n/a	n/a	0	0	0
2993.96142578125	n/a	REC_WORD	6131633	wordpools/wasnorm_wordpool_576.txt	LTP342	ltpFR2	8	14	GANGSTER	620	n/a	n/a	0	0	0
3001.2353515625	n/a	REC_WORD	6146530	wordpools/wasnorm_wordpool_576.txt	LTP342	ltpFR2	8	14	WRENCH	1625	n/a	n/a	0	0	0
3004.4140625	n/a	REC_WORD_VV	6153040	wordpools/wasnorm_wordpool_576.txt	LTP342	ltpFR2	8	14	<>	-1	n/a	n/a	0	0	0
3005.06396484375	n/a	REC_WORD	6154371	wordpools/wasnorm_wordpool_576.txt	LTP342	ltpFR2	8	14	SHORTS	1293	n/a	n/a	0	0	0
3012.61083984375	n/a	REC_WORD	6169827	wordpools/wasnorm_wordpool_576.txt	LTP342	ltpFR2	8	14	DIME	466	n/a	n/a	0	0	0
3013.14501953125	n/a	REC_WORD	6170921	wordpools/wasnorm_wordpool_576.txt	LTP342	ltpFR2	8	14	STAR	1373	n/a	n/a	0	0	0
3013.97705078125	n/a	REC_WORD	6172625	wordpools/wasnorm_wordpool_576.txt	LTP342	ltpFR2	8	14	WRIST	1626	n/a	n/a	0	0	0
3014.5849609375	n/a	REC_WORD	6173870	wordpools/wasnorm_wordpool_576.txt	LTP342	ltpFR2	8	14	HELMET	702	n/a	n/a	0	0	0
3015.3505859375	n/a	REC_WORD	6175438	wordpools/wasnorm_wordpool_576.txt	LTP342	ltpFR2	8	14	CAFE	216	n/a	n/a	0	0	0
3016.86572265625	n/a	REC_WORD	6178541	wordpools/wasnorm_wordpool_576.txt	LTP342	ltpFR2	8	14	VAGRANT	1544	n/a	n/a	0	0	0
3017.6298828125	n/a	REC_WORD	6180106	wordpools/wasnorm_wordpool_576.txt	LTP342	ltpFR2	8	14	CASHIER	254	n/a	n/a	0	0	0
3018.32666015625	n/a	REC_WORD	6181533	wordpools/wasnorm_wordpool_576.txt	LTP342	ltpFR2	8	14	CHAMPAGNE	278	n/a	n/a	0	0	0
3025.57763671875	n/a	REC_WORD	6196383	wordpools/wasnorm_wordpool_576.txt	LTP342	ltpFR2	8	14	CURTAIN	427	n/a	n/a	0	0	0
3068.3583984375	n/a	DISTRACTOR	6283998	n/a	LTP342	ltpFR2	8	15	n/a	n/a	n/a	n/a	0	0	0
3068.359375	n/a	START	6284000	n/a	LTP342	ltpFR2	8	n/a	n/a	n/a	19	n/a	n/a	n/a	n/a
3068.37548828125	n/a	PROB	6284033	n/a	LTP342	ltpFR2	8	n/a	n/a	n/a	19	11	5	2	4
3070.4423828125	n/a	PROB	6288266	n/a	LTP342	ltpFR2	8	n/a	n/a	n/a	19	147	9	7	1
3072.2900390625	n/a	PROB	6292050	n/a	LTP342	ltpFR2	8	n/a	n/a	n/a	19	21	7	8	6
3074.59033203125	n/a	PROB	6296761	n/a	LTP342	ltpFR2	8	n/a	n/a	n/a	19	18	5	5	8
3075.63818359375	n/a	PROB	6298907	n/a	LTP342	ltpFR2	8	n/a	n/a	n/a	19	16	6	4	6
3076.9208984375	n/a	PROB	6301534	n/a	LTP342	ltpFR2	8	n/a	n/a	n/a	19	12	1	9	2
3077.98681640625	n/a	PROB	6303717	n/a	LTP342	ltpFR2	8	n/a	n/a	n/a	19	15	7	4	4
3079.77001953125	n/a	PROB	6307369	n/a	LTP342	ltpFR2	8	n/a	n/a	n/a	19	15	5	4	6
3081.23583984375	n/a	PROB	6310371	n/a	LTP342	ltpFR2	8	n/a	n/a	n/a	19	4	1	1	2
3082.23486328125	n/a	PROB	6312417	n/a	LTP342	ltpFR2	8	n/a	n/a	n/a	19	14	8	3	3
3083.93408203125	n/a	PROB	6315897	n/a	LTP342	ltpFR2	8	n/a	n/a	n/a	19	7	1	1	5
3085.10107421875	n/a	PROB	6318287	n/a	LTP342	ltpFR2	8	n/a	n/a	n/a	19	9	3	3	3
3086.0	n/a	PROB	6320128	n/a	LTP342	ltpFR2	8	n/a	n/a	n/a	19	13	8	2	3
3087.31591796875	n/a	PROB	6322823	n/a	LTP342	ltpFR2	8	n/a	n/a	n/a	19	14	5	1	8
3088.91552734375	n/a	PROB	6326099	n/a	LTP342	ltpFR2	8	n/a	n/a	n/a	19	10	3	1	6
3090.49853515625	n/a	PROB	6329341	n/a	LTP342	ltpFR2	8	n/a	n/a	n/a	19	6	1	3	2
3091.5458984375	n/a	STOP	6331486	n/a	LTP342	ltpFR2	8	n/a	n/a	n/a	19	n/a	n/a	n/a	n/a
3093.32958984375	n/a	WORD	6335139	wordpools/wasnorm_wordpool_576.txt	LTP342	ltpFR2	8	15	DRESSER	496	n/a	n/a	0	0	0
3095.99560546875	n/a	WORD	6340599	wordpools/wasnorm_wordpool_576.txt	LTP342	ltpFR2	8	15	CHEST	295	n/a	n/a	0	0	0
3098.74365234375	n/a	WORD	6346227	wordpools/wasnorm_wordpool_576.txt	LTP342	ltpFR2	8	15	RIVER	1194	n/a	n/a	0	0	0
3101.443359375	n/a	WORD	6351756	wordpools/wasnorm_wordpool_576.txt	LTP342	ltpFR2	8	15	CRAB	397	n/a	n/a	0	0	0
3104.09130859375	n/a	WORD	6357179	wordpools/wasnorm_wordpool_576.txt	LTP342	ltpFR2	8	15	MUFFIN	929	n/a	n/a	0	0	0
3106.7900390625	n/a	WORD	6362706	wordpools/wasnorm_wordpool_576.txt	LTP342	ltpFR2	8	15	VELVET	1555	n/a	n/a	0	0	0
3109.33935546875	n/a	WORD	6367927	wordpools/wasnorm_wordpool_576.txt	LTP342	ltpFR2	8	15	PANTHER	1009	n/a	n/a	0	0	0
3112.0712890625	n/a	WORD	6373522	wordpools/wasnorm_wordpool_576.txt	LTP342	ltpFR2	8	15	YOLK	1633	n/a	n/a	0	0	0
3114.52099609375	n/a	WORD	6378539	wordpools/wasnorm_wordpool_576.txt	LTP342	ltpFR2	8	15	COOK	372	n/a	n/a	0	0	0
3117.21875	n/a	WORD	6384064	wordpools/wasnorm_wordpool_576.txt	LTP342	ltpFR2	8	15	SUPPER	1411	n/a	n/a	0	0	0
3119.833984375	n/a	WORD	6389420	wordpools/wasnorm_wordpool_576.txt	LTP342	ltpFR2	8	15	RACKET	1155	n/a	n/a	0	0	0
3122.4169921875	n/a	WORD	6394710	wordpools/wasnorm_wordpool_576.txt	LTP342	ltpFR2	8	15	CRATER	400	n/a	n/a	0	0	0
3125.09765625	n/a	WORD	6400200	wordpools/wasnorm_wordpool_576.txt	LTP342	ltpFR2	8	15	INMATE	738	n/a	n/a	0	0	0
3127.763671875	n/a	WORD	6405660	wordpools/wasnorm_wordpool_576.txt	LTP342	ltpFR2	8	15	FOREHEAD	592	n/a	n/a	0	0	0
3130.2626953125	n/a	WORD	6410778	wordpools/wasnorm_wordpool_576.txt	LTP342	ltpFR2	8	15	KETCHUP	771	n/a	n/a	0	0	0
3133.02734375	n/a	WORD	6416440	wordpools/wasnorm_wordpool_576.txt	LTP342	ltpFR2	8	15	MUSTARD	935	n/a	n/a	0	0	0
3135.52734375	n/a	WORD	6421560	wordpools/wasnorm_wordpool_576.txt	LTP342	ltpFR2	8	15	SERVER	1272	n/a	n/a	0	0	0
3138.34130859375	n/a	WORD	6427323	wordpools/wasnorm_wordpool_576.txt	LTP342	ltpFR2	8	15	PATIENT	1024	n/a	n/a	0	0	0
3140.92333984375	n/a	WORD	6432611	wordpools/wasnorm_wordpool_576.txt	LTP342	ltpFR2	8	15	CLAMP	316	n/a	n/a	0	0	0
3143.6220703125	n/a	WORD	6438138	wordpools/wasnorm_wordpool_576.txt	LTP342	ltpFR2	8	15	THRONE	1461	n/a	n/a	0	0	0
3146.38916015625	n/a	WORD	6443805	wordpools/wasnorm_wordpool_576.txt	LTP342	ltpFR2	8	15	NURSE	963	n/a	n/a	0	0	0
3148.8701171875	n/a	WORD	6448886	wordpools/wasnorm_wordpool_576.txt	LTP342	ltpFR2	8	15	CAPTIVE	240	n/a	n/a	0	0	0
3151.5361328125	n/a	WORD	6454346	wordpools/wasnorm_wordpool_576.txt	LTP342	ltpFR2	8	15	SKILLET	1317	n/a	n/a	0	0	0
3154.0341796875	n/a	WORD	6459462	wordpools/wasnorm_wordpool_576.txt	LTP342	ltpFR2	8	15	TILE	1468	n/a	n/a	0	0	0
3155.64990234375	n/a	START	6462771	n/a	LTP342	ltpFR2	8	n/a	n/a	n/a	20	n/a	n/a	n/a	n/a
3156.77001953125	n/a	DISTRACTOR	6465065	n/a	LTP342	ltpFR2	8	15	n/a	n/a	n/a	n/a	0	0	0
3156.78271484375	n/a	PROB	6465091	n/a	LTP342	ltpFR2	8	n/a	n/a	n/a	20	17	3	5	9
3158.4658203125	n/a	PROB	6468538	n/a	LTP342	ltpFR2	8	n/a	n/a	n/a	20	14	1	7	6
3160.73095703125	n/a	PROB	6473177	n/a	LTP342	ltpFR2	8	n/a	n/a	n/a	20	18	4	9	5
3162.66357421875	n/a	PROB	6477135	n/a	LTP342	ltpFR2	8	n/a	n/a	n/a	20	14	2	3	9
3164.0126953125	n/a	PROB	6479898	n/a	LTP342	ltpFR2	8	n/a	n/a	n/a	20	9	3	2	4
3166.29443359375	n/a	PROB	6484571	n/a	LTP342	ltpFR2	8	n/a	n/a	n/a	20	13	3	9	1
3167.82763671875	n/a	PROB	6487711	n/a	LTP342	ltpFR2	8	n/a	n/a	n/a	20	15	6	7	2
3169.12646484375	n/a	PROB	6490371	n/a	LTP342	ltpFR2	8	n/a	n/a	n/a	20	16	6	3	6
3170.859375	n/a	PROB	6493920	n/a	LTP342	ltpFR2	8	n/a	n/a	n/a	20	12	1	8	3
3173.0751953125	n/a	PROB	6498458	n/a	LTP342	ltpFR2	8	n/a	n/a	n/a	20	14	5	2	7
3174.6572265625	n/a	PROB	6501698	n/a	LTP342	ltpFR2	8	n/a	n/a	n/a	20	22	8	5	9
3176.65625	n/a	PROB	6505792	n/a	LTP342	ltpFR2	8	n/a	n/a	n/a	20	2	3	5	4
3178.490234375	n/a	STOP	6509548	n/a	LTP342	ltpFR2	8	n/a	n/a	n/a	20	n/a	n/a	n/a	n/a
3181.43896484375	n/a	REC_START	6515587	n/a	LTP342	ltpFR2	8	15	n/a	n/a	n/a	n/a	0	0	0
3182.30126953125	n/a	REC_WORD	6517353	wordpools/wasnorm_wordpool_576.txt	LTP342	ltpFR2	8	15	SKILLET	1317	n/a	n/a	0	0	0
3183.126953125	n/a	REC_WORD	6519044	wordpools/wasnorm_wordpool_576.txt	LTP342	ltpFR2	8	15	RACKET	1155	n/a	n/a	0	0	0
3183.75830078125	n/a	REC_WORD	6520337	wordpools/wasnorm_wordpool_576.txt	LTP342	ltpFR2	8	15	COOK	372	n/a	n/a	0	0	0
3184.77685546875	n/a	REC_WORD	6522423	wordpools/wasnorm_wordpool_576.txt	LTP342	ltpFR2	8	15	INMATE	738	n/a	n/a	0	0	0
