mstime	trial_type	stim_file	subject	experiment	session	trial	item_name	item_num	list	answer	test_x	test_y	test_z
0	SESS_START	n/a	LTP207	ltpFR2	11	n/a	n/a	n/a	n/a	n/a	0	0	0
18275	START	n/a	LTP207	ltpFR2	11	n/a	n/a	n/a	-1	n/a	n/a	n/a	n/a
18335	PROB	n/a	LTP207	ltpFR2	11	n/a	n/a	n/a	-1	12	4	5	3
20215	PROB	n/a	LTP207	ltpFR2	11	n/a	n/a	n/a	-1	12	2	7	3
21547	PROB	n/a	LTP207	ltpFR2	11	n/a	n/a	n/a	-1	15	5	8	2
22859	PROB	n/a	LTP207	ltpFR2	11	n/a	n/a	n/a	-1	16	6	4	6
24826	PROB	n/a	LTP207	ltpFR2	11	n/a	n/a	n/a	-1	18	8	5	5
26298	PROB	n/a	LTP207	ltpFR2	11	n/a	n/a	n/a	-1	13	2	6	5
27687	PROB	n/a	LTP207	ltpFR2	11	n/a	n/a	n/a	-1	18	4	7	7
29096	STOP	n/a	LTP207	ltpFR2	11	n/a	n/a	n/a	-1	n/a	n/a	n/a	n/a
93073	WORD	wordpools/wasnorm_wordpool_576.txt	LTP207	ltpFR2	11	1	FRIAR	605	n/a	n/a	0	0	0
95776	WORD	wordpools/wasnorm_wordpool_576.txt	LTP207	ltpFR2	11	1	CHAPEL	280	n/a	n/a	0	0	0
98411	WORD	wordpools/wasnorm_wordpool_576.txt	LTP207	ltpFR2	11	1	TWEEZERS	1526	n/a	n/a	0	0	0
101137	WORD	wordpools/wasnorm_wordpool_576.txt	LTP207	ltpFR2	11	1	LAMP	798	n/a	n/a	0	0	0
103757	WORD	wordpools/wasnorm_wordpool_576.txt	LTP207	ltpFR2	11	1	BUG	187	n/a	n/a	0	0	0
106350	WORD	wordpools/wasnorm_wordpool_576.txt	LTP207	ltpFR2	11	1	COCOON	339	n/a	n/a	0	0	0
108826	WORD	wordpools/wasnorm_wordpool_576.txt	LTP207	ltpFR2	11	1	DANCER	437	n/a	n/a	0	0	0
111519	WORD	wordpools/wasnorm_wordpool_576.txt	LTP207	ltpFR2	11	1	LEOPARD	812	n/a	n/a	0	0	0
114304	WORD	wordpools/wasnorm_wordpool_576.txt	LTP207	ltpFR2	11	1	PORTRAIT	1111	n/a	n/a	0	0	0
116864	WORD	wordpools/wasnorm_wordpool_576.txt	LTP207	ltpFR2	11	1	DUSTPAN	509	n/a	n/a	0	0	0
119332	WORD	wordpools/wasnorm_wordpool_576.txt	LTP207	ltpFR2	11	1	AWARD	63	n/a	n/a	0	0	0
121875	WORD	wordpools/wasnorm_wordpool_576.txt	LTP207	ltpFR2	11	1	CHURCH	307	n/a	n/a	0	0	0
124351	WORD	wordpools/wasnorm_wordpool_576.txt	LTP207	ltpFR2	11	1	CONTRACT	368	n/a	n/a	0	0	0
127010	WORD	wordpools/wasnorm_wordpool_576.txt	LTP207	ltpFR2	11	1	REPORT	1184	n/a	n/a	0	0	0
129561	WORD	wordpools/wasnorm_wordpool_576.txt	LTP207	ltpFR2	11	1	GLASS	639	n/a	n/a	0	0	0
132229	WORD	wordpools/wasnorm_wordpool_576.txt	LTP207	ltpFR2	11	1	SUPPER	1411	n/a	n/a	0	0	0
134915	WORD	wordpools/wasnorm_wordpool_576.txt	LTP207	ltpFR2	11	1	MEAT	883	n/a	n/a	0	0	0
137625	WORD	wordpools/wasnorm_wordpool_576.txt	LTP207	ltpFR2	11	1	WRENCH	1625	n/a	n/a	0	0	0
140117	WORD	wordpools/wasnorm_wordpool_576.txt	LTP207	ltpFR2	11	1	TILE	1468	n/a	n/a	0	0	0
142670	WORD	wordpools/wasnorm_wordpool_576.txt	LTP207	ltpFR2	11	1	POSTAGE	1113	n/a	n/a	0	0	0
145488	WORD	wordpools/wasnorm_wordpool_576.txt	LTP207	ltpFR2	11	1	CURTAIN	427	n/a	n/a	0	0	0
148030	WORD	wordpools/wasnorm_wordpool_576.txt	LTP207	ltpFR2	11	1	PAPER	1011	n/a	n/a	0	0	0
150600	WORD	wordpools/wasnorm_wordpool_576.txt	LTP207	ltpFR2	11	1	OMELET	976	n/a	n/a	0	0	0
153318	WORD	wordpools/wasnorm_wordpool_576.txt	LTP207	ltpFR2	11	1	HAND	683	n/a	n/a	0	0	0
154933	START	n/a	LTP207	ltpFR2	11	n/a	n/a	n/a	1	n/a	n/a	n/a	n/a
156085	DISTRACTOR	n/a	LTP207	ltpFR2	11	1	n/a	n/a	n/a	n/a	0	0	0
156103	PROB	n/a	LTP207	ltpFR2	11	n/a	n/a	n/a	1	17	7	4	6
157902	PROB	n/a	LTP207	ltpFR2	11	n/a	n/a	n/a	1	18	3	7	8
159064	PROB	n/a	LTP207	ltpFR2	11	n/a	n/a	n/a	1	9	6	1	2
161508	PROB	n/a	LTP207	ltpFR2	11	n/a	n/a	n/a	1	21	6	6	9
162796	PROB	n/a	LTP207	ltpFR2	11	n/a	n/a	n/a	1	16	6	6	4
164543	PROB	n/a	LTP207	ltpFR2	11	n/a	n/a	n/a	1	14	2	4	8
166098	PROB	n/a	LTP207	ltpFR2	11	n/a	n/a	n/a	1	13	1	7	5
168417	PROB	n/a	LTP207	ltpFR2	11	n/a	n/a	n/a	1	11	5	5	1
169345	PROB	n/a	LTP207	ltpFR2	11	n/a	n/a	n/a	1	22	8	6	8
171813	PROB	n/a	LTP207	ltpFR2	11	n/a	n/a	n/a	1	11	3	2	6
173084	PROB	n/a	LTP207	ltpFR2	11	n/a	n/a	n/a	1	18	6	8	4
174757	PROB	n/a	LTP207	ltpFR2	11	n/a	n/a	n/a	1	18	7	9	2
176414	PROB	n/a	LTP207	ltpFR2	11	n/a	n/a	n/a	1	14	8	3	3
177665	STOP	n/a	LTP207	ltpFR2	11	n/a	n/a	n/a	1	n/a	n/a	n/a	n/a
180823	REC_START	n/a	LTP207	ltpFR2	11	1	n/a	n/a	n/a	n/a	0	0	0
183084	REC_WORD	wordpools/wasnorm_wordpool_576.txt	LTP207	ltpFR2	11	1	CHURCH	307	n/a	n/a	0	0	0
184105	REC_WORD	wordpools/wasnorm_wordpool_576.txt	LTP207	ltpFR2	11	1	FRIAR	605	n/a	n/a	0	0	0
185356	REC_WORD	wordpools/wasnorm_wordpool_576.txt	LTP207	ltpFR2	11	1	CHAPEL	280	n/a	n/a	0	0	0
187225	REC_WORD	wordpools/wasnorm_wordpool_576.txt	LTP207	ltpFR2	11	1	TWEEZERS	1526	n/a	n/a	0	0	0
189111	REC_WORD	wordpools/wasnorm_wordpool_576.txt	LTP207	ltpFR2	11	1	LAMP	798	n/a	n/a	0	0	0
190306	REC_WORD	wordpools/wasnorm_wordpool_576.txt	LTP207	ltpFR2	11	1	BUG	187	n/a	n/a	0	0	0
192144	REC_WORD	wordpools/wasnorm_wordpool_576.txt	LTP207	ltpFR2	11	1	COCOON	339	n/a	n/a	0	0	0
194133	REC_WORD	wordpools/wasnorm_wordpool_576.txt	LTP207	ltpFR2	11	1	LEOPARD	812	n/a	n/a	0	0	0
196032	REC_WORD	wordpools/wasnorm_wordpool_576.txt	LTP207	ltpFR2	11	1	PORTRAIT	1111	n/a	n/a	0	0	0
197921	REC_WORD	wordpools/wasnorm_wordpool_576.txt	LTP207	ltpFR2	11	1	DUSTPAN	509	n/a	n/a	0	0	0
200431	REC_WORD	wordpools/wasnorm_wordpool_576.txt	LTP207	ltpFR2	11	1	DANCER	437	n/a	n/a	0	0	0
209493	REC_WORD	wordpools/wasnorm_wordpool_576.txt	LTP207	ltpFR2	11	1	REPORT	1184	n/a	n/a	0	0	0
292032	WORD	wordpools/wasnorm_wordpool_576.txt	LTP207	ltpFR2	11	2	FLAG	573	n/a	n/a	0	0	0
294600	WORD	wordpools/wasnorm_wordpool_576.txt	LTP207	ltpFR2	11	2	ACTOR	5	n/a	n/a	0	0	0
297327	WORD	wordpools/wasnorm_wordpool_576.txt	LTP207	ltpFR2	11	2	BARLEY	88	n/a	n/a	0	0	0
300020	WORD	wordpools/wasnorm_wordpool_576.txt	LTP207	ltpFR2	11	2	PEACH	1031	n/a	n/a	0	0	0
302706	WORD	wordpools/wasnorm_wordpool_576.txt	LTP207	ltpFR2	11	2	ORANGE	980	n/a	n/a	0	0	0
305239	WORD	wordpools/wasnorm_wordpool_576.txt	LTP207	ltpFR2	11	2	MUSTARD	935	n/a	n/a	0	0	0
307876	WORD	wordpools/wasnorm_wordpool_576.txt	LTP207	ltpFR2	11	2	DRINK	498	n/a	n/a	0	0	0
310352	WORD	wordpools/wasnorm_wordpool_576.txt	LTP207	ltpFR2	11	2	FLASK	576	n/a	n/a	0	0	0
312869	WORD	wordpools/wasnorm_wordpool_576.txt	LTP207	ltpFR2	11	2	NOTEBOOK	959	n/a	n/a	0	0	0
315596	WORD	wordpools/wasnorm_wordpool_576.txt	LTP207	ltpFR2	11	2	POET	1095	n/a	n/a	0	0	0
318188	WORD	wordpools/wasnorm_wordpool_576.txt	LTP207	ltpFR2	11	2	DASHBOARD	441	n/a	n/a	0	0	0
320849	WORD	wordpools/wasnorm_wordpool_576.txt	LTP207	ltpFR2	11	2	FRIEND	606	n/a	n/a	0	0	0
323669	WORD	wordpools/wasnorm_wordpool_576.txt	LTP207	ltpFR2	11	2	AIRPLANE	12	n/a	n/a	0	0	0
326244	WORD	wordpools/wasnorm_wordpool_576.txt	LTP207	ltpFR2	11	2	EGYPT	519	n/a	n/a	0	0	0
328922	WORD	wordpools/wasnorm_wordpool_576.txt	LTP207	ltpFR2	11	2	GYMNAST	675	n/a	n/a	0	0	0
331556	WORD	wordpools/wasnorm_wordpool_576.txt	LTP207	ltpFR2	11	2	COSTUME	383	n/a	n/a	0	0	0
334048	WORD	wordpools/wasnorm_wordpool_576.txt	LTP207	ltpFR2	11	2	SISTER	1312	n/a	n/a	0	0	0
336726	WORD	wordpools/wasnorm_wordpool_576.txt	LTP207	ltpFR2	11	2	TABLET	1427	n/a	n/a	0	0	0
339193	WORD	wordpools/wasnorm_wordpool_576.txt	LTP207	ltpFR2	11	2	RELISH	1183	n/a	n/a	0	0	0
341737	WORD	wordpools/wasnorm_wordpool_576.txt	LTP207	ltpFR2	11	2	COOKBOOK	373	n/a	n/a	0	0	0
344371	WORD	wordpools/wasnorm_wordpool_576.txt	LTP207	ltpFR2	11	2	INFANT	737	n/a	n/a	0	0	0
346864	WORD	wordpools/wasnorm_wordpool_576.txt	LTP207	ltpFR2	11	2	TEMPLE	1448	n/a	n/a	0	0	0
349641	WORD	wordpools/wasnorm_wordpool_576.txt	LTP207	ltpFR2	11	2	STOMACH	1384	n/a	n/a	0	0	0
352368	WORD	wordpools/wasnorm_wordpool_576.txt	LTP207	ltpFR2	11	2	GRAVE	658	n/a	n/a	0	0	0
353982	START	n/a	LTP207	ltpFR2	11	n/a	n/a	n/a	2	n/a	n/a	n/a	n/a
354899	DISTRACTOR	n/a	LTP207	ltpFR2	11	2	n/a	n/a	n/a	n/a	0	0	0
354911	PROB	n/a	LTP207	ltpFR2	11	n/a	n/a	n/a	2	12	6	4	2
356885	PROB	n/a	LTP207	ltpFR2	11	n/a	n/a	n/a	2	12	2	5	5
358072	PROB	n/a	LTP207	ltpFR2	11	n/a	n/a	n/a	2	12	8	1	3
359420	PROB	n/a	LTP207	ltpFR2	11	n/a	n/a	n/a	2	20	4	7	9
361578	PROB	n/a	LTP207	ltpFR2	11	n/a	n/a	n/a	2	20	3	8	9
363335	PROB	n/a	LTP207	ltpFR2	11	n/a	n/a	n/a	2	9	1	2	6
364932	PROB	n/a	LTP207	ltpFR2	11	n/a	n/a	n/a	2	13	6	6	1
367098	PROB	n/a	LTP207	ltpFR2	11	n/a	n/a	n/a	2	6	3	1	2
368227	PROB	n/a	LTP207	ltpFR2	11	n/a	n/a	n/a	2	19	8	7	4
369983	PROB	n/a	LTP207	ltpFR2	11	n/a	n/a	n/a	2	10	2	7	1
371188	PROB	n/a	LTP207	ltpFR2	11	n/a	n/a	n/a	2	15	8	2	5
372444	PROB	n/a	LTP207	ltpFR2	11	n/a	n/a	n/a	2	20	7	5	8
373899	PROB	n/a	LTP207	ltpFR2	11	n/a	n/a	n/a	2	20	9	5	6
375481	PROB	n/a	LTP207	ltpFR2	11	n/a	n/a	n/a	2	17	9	4	4
376818	STOP	n/a	LTP207	ltpFR2	11	n/a	n/a	n/a	2	n/a	n/a	n/a	n/a
379738	REC_START	n/a	LTP207	ltpFR2	11	2	n/a	n/a	n/a	n/a	0	0	0
380840	REC_WORD_VV	wordpools/wasnorm_wordpool_576.txt	LTP207	ltpFR2	11	2	<>	-1	n/a	n/a	0	0	0
381551	REC_WORD	wordpools/wasnorm_wordpool_576.txt	LTP207	ltpFR2	11	2	AIRPLANE	12	n/a	n/a	0	0	0
383881	REC_WORD	wordpools/wasnorm_wordpool_576.txt	LTP207	ltpFR2	11	2	EGYPT	519	n/a	n/a	0	0	0
385303	REC_WORD	wordpools/wasnorm_wordpool_576.txt	LTP207	ltpFR2	11	2	DASHBOARD	441	n/a	n/a	0	0	0
394899	REC_WORD	wordpools/wasnorm_wordpool_576.txt	LTP207	ltpFR2	11	2	GYMNAST	675	n/a	n/a	0	0	0
398631	REC_WORD	wordpools/wasnorm_wordpool_576.txt	LTP207	ltpFR2	11	2	BARLEY	88	n/a	n/a	0	0	0
470898	WORD	wordpools/wasnorm_wordpool_576.txt	LTP207	ltpFR2	11	3	STONE	1385	n/a	n/a	0	0	0
473333	WORD	wordpools/wasnorm_wordpool_576.txt	LTP207	ltpFR2	11	3	SKETCH	1315	n/a	n/a	0	0	0
476000	WORD	wordpools/wasnorm_wordpool_576.txt	LTP207	ltpFR2	11	3	BABY	64	n/a	n/a	0	0	0
478761	WORD	wordpools/wasnorm_wordpool_576.txt	LTP207	ltpFR2	11	3	BLENDER	136	n/a	n/a	0	0	0
481388	WORD	wordpools/wasnorm_wordpool_576.txt	LTP207	ltpFR2	11	3	GIRL	637	n/a	n/a	0	0	0
484080	WORD	wordpools/wasnorm_wordpool_576.txt	LTP207	ltpFR2	11	3	BLUEPRINT	142	n/a	n/a	0	0	0
486791	WORD	wordpools/wasnorm_wordpool_576.txt	LTP207	ltpFR2	11	3	BRICK	172	n/a	n/a	0	0	0
489510	WORD	wordpools/wasnorm_wordpool_576.txt	LTP207	ltpFR2	11	3	REBEL	1172	n/a	n/a	0	0	0
492127	WORD	wordpools/wasnorm_wordpool_576.txt	LTP207	ltpFR2	11	3	KLEENEX	782	n/a	n/a	0	0	0
494898	WORD	wordpools/wasnorm_wordpool_576.txt	LTP207	ltpFR2	11	3	MOTEL	919	n/a	n/a	0	0	0
497398	WORD	wordpools/wasnorm_wordpool_576.txt	LTP207	ltpFR2	11	3	MUFFIN	929	n/a	n/a	0	0	0
500191	WORD	wordpools/wasnorm_wordpool_576.txt	LTP207	ltpFR2	11	3	FREEZER	604	n/a	n/a	0	0	0
502811	WORD	wordpools/wasnorm_wordpool_576.txt	LTP207	ltpFR2	11	3	SEAGULL	1261	n/a	n/a	0	0	0
505571	WORD	wordpools/wasnorm_wordpool_576.txt	LTP207	ltpFR2	11	3	EMPIRE	530	n/a	n/a	0	0	0
508063	WORD	wordpools/wasnorm_wordpool_576.txt	LTP207	ltpFR2	11	3	PILOT	1070	n/a	n/a	0	0	0
510698	WORD	wordpools/wasnorm_wordpool_576.txt	LTP207	ltpFR2	11	3	AIRPORT	13	n/a	n/a	0	0	0
513132	WORD	wordpools/wasnorm_wordpool_576.txt	LTP207	ltpFR2	11	3	BEAST	108	n/a	n/a	0	0	0
515767	WORD	wordpools/wasnorm_wordpool_576.txt	LTP207	ltpFR2	11	3	CONCERT	360	n/a	n/a	0	0	0
518360	WORD	wordpools/wasnorm_wordpool_576.txt	LTP207	ltpFR2	11	3	CRIB	407	n/a	n/a	0	0	0
520970	WORD	wordpools/wasnorm_wordpool_576.txt	LTP207	ltpFR2	11	3	PROTON	1132	n/a	n/a	0	0	0
523680	WORD	wordpools/wasnorm_wordpool_576.txt	LTP207	ltpFR2	11	3	BELLY	119	n/a	n/a	0	0	0
526433	WORD	wordpools/wasnorm_wordpool_576.txt	LTP207	ltpFR2	11	3	TURKEY	1520	n/a	n/a	0	0	0
529250	WORD	wordpools/wasnorm_wordpool_576.txt	LTP207	ltpFR2	11	3	CHILD	299	n/a	n/a	0	0	0
531870	WORD	wordpools/wasnorm_wordpool_576.txt	LTP207	ltpFR2	11	3	STOVE	1388	n/a	n/a	0	0	0
533484	START	n/a	LTP207	ltpFR2	11	n/a	n/a	n/a	3	n/a	n/a	n/a	n/a
534546	DISTRACTOR	n/a	LTP207	ltpFR2	11	3	n/a	n/a	n/a	n/a	0	0	0
534564	PROB	n/a	LTP207	ltpFR2	11	n/a	n/a	n/a	3	20	9	7	4
535869	PROB	n/a	LTP207	ltpFR2	11	n/a	n/a	n/a	3	13	2	7	4
537733	PROB	n/a	LTP207	ltpFR2	11	n/a	n/a	n/a	3	13	4	2	7
538938	PROB	n/a	LTP207	ltpFR2	11	n/a	n/a	n/a	3	12	3	4	5
540285	PROB	n/a	LTP207	ltpFR2	11	n/a	n/a	n/a	3	14	1	7	6
541832	PROB	n/a	LTP207	ltpFR2	11	n/a	n/a	n/a	3	16	8	6	2
543287	PROB	n/a	LTP207	ltpFR2	11	n/a	n/a	n/a	3	14	7	5	2
544652	PROB	n/a	LTP207	ltpFR2	11	n/a	n/a	n/a	3	15	5	7	3
545847	PROB	n/a	LTP207	ltpFR2	11	n/a	n/a	n/a	3	14	3	4	7
547412	PROB	n/a	LTP207	ltpFR2	11	n/a	n/a	n/a	3	15	9	4	2
548691	PROB	n/a	LTP207	ltpFR2	11	n/a	n/a	n/a	3	12	8	1	3
549795	PROB	n/a	LTP207	ltpFR2	11	n/a	n/a	n/a	3	20	8	9	3
552170	PROB	n/a	LTP207	ltpFR2	11	n/a	n/a	n/a	3	17	2	6	9
553693	PROB	n/a	LTP207	ltpFR2	11	n/a	n/a	n/a	3	16	6	6	4
555081	PROB	n/a	LTP207	ltpFR2	11	n/a	n/a	n/a	3	15	3	6	6
556192	STOP	n/a	LTP207	ltpFR2	11	n/a	n/a	n/a	3	n/a	n/a	n/a	n/a
559256	REC_START	n/a	LTP207	ltpFR2	11	3	n/a	n/a	n/a	n/a	0	0	0
565724	REC_WORD_VV	wordpools/wasnorm_wordpool_576.txt	LTP207	ltpFR2	11	3	<>	-1	n/a	n/a	0	0	0
566627	REC_WORD_VV	wordpools/wasnorm_wordpool_576.txt	LTP207	ltpFR2	11	3	<>	-1	n/a	n/a	0	0	0
569476	REC_WORD	wordpools/wasnorm_wordpool_576.txt	LTP207	ltpFR2	11	3	STONE	1385	n/a	n/a	0	0	0
572958	REC_WORD	wordpools/wasnorm_wordpool_576.txt	LTP207	ltpFR2	11	3	BABY	64	n/a	n/a	0	0	0
575277	REC_WORD	wordpools/wasnorm_wordpool_576.txt	LTP207	ltpFR2	11	3	SKETCH	1315	n/a	n/a	0	0	0
579313	REC_WORD	wordpools/wasnorm_wordpool_576.txt	LTP207	ltpFR2	11	3	BRICK	172	n/a	n/a	0	0	0
580983	REC_WORD	wordpools/wasnorm_wordpool_576.txt	LTP207	ltpFR2	11	3	GIRL	637	n/a	n/a	0	0	0
582450	REC_WORD	wordpools/wasnorm_wordpool_576.txt	LTP207	ltpFR2	11	3	BLENDER	136	n/a	n/a	0	0	0
587197	REC_WORD	wordpools/wasnorm_wordpool_576.txt	LTP207	ltpFR2	11	3	BLUEPRINT	142	n/a	n/a	0	0	0
588641	REC_WORD	wordpools/wasnorm_wordpool_576.txt	LTP207	ltpFR2	11	3	REBEL	1172	n/a	n/a	0	0	0
591508	REC_WORD	wordpools/wasnorm_wordpool_576.txt	LTP207	ltpFR2	11	3	MUFFIN	929	n/a	n/a	0	0	0
593263	REC_WORD	wordpools/wasnorm_wordpool_576.txt	LTP207	ltpFR2	11	3	SEAGULL	1261	n/a	n/a	0	0	0
669220	WORD	wordpools/wasnorm_wordpool_576.txt	LTP207	ltpFR2	11	4	PLAYGROUND	1087	n/a	n/a	0	0	0
671839	WORD	wordpools/wasnorm_wordpool_576.txt	LTP207	ltpFR2	11	4	FLESH	579	n/a	n/a	0	0	0
674415	WORD	wordpools/wasnorm_wordpool_576.txt	LTP207	ltpFR2	11	4	HEART	697	n/a	n/a	0	0	0
676883	WORD	wordpools/wasnorm_wordpool_576.txt	LTP207	ltpFR2	11	4	IDOL	733	n/a	n/a	0	0	0
679426	WORD	wordpools/wasnorm_wordpool_576.txt	LTP207	ltpFR2	11	4	OUTFIT	988	n/a	n/a	0	0	0
682177	WORD	wordpools/wasnorm_wordpool_576.txt	LTP207	ltpFR2	11	4	SPARROW	1347	n/a	n/a	0	0	0
684620	WORD	wordpools/wasnorm_wordpool_576.txt	LTP207	ltpFR2	11	4	NOVEL	960	n/a	n/a	0	0	0
687356	WORD	wordpools/wasnorm_wordpool_576.txt	LTP207	ltpFR2	11	4	COMET	353	n/a	n/a	0	0	0
690157	WORD	wordpools/wasnorm_wordpool_576.txt	LTP207	ltpFR2	11	4	OX	994	n/a	n/a	0	0	0
692660	WORD	wordpools/wasnorm_wordpool_576.txt	LTP207	ltpFR2	11	4	ONION	977	n/a	n/a	0	0	0
695259	WORD	wordpools/wasnorm_wordpool_576.txt	LTP207	ltpFR2	11	4	GROUND	666	n/a	n/a	0	0	0
697986	WORD	wordpools/wasnorm_wordpool_576.txt	LTP207	ltpFR2	11	4	PREACHER	1119	n/a	n/a	0	0	0
700506	WORD	wordpools/wasnorm_wordpool_576.txt	LTP207	ltpFR2	11	4	HERO	706	n/a	n/a	0	0	0
703206	WORD	wordpools/wasnorm_wordpool_576.txt	LTP207	ltpFR2	11	4	WOMAN	1620	n/a	n/a	0	0	0
705649	WORD	wordpools/wasnorm_wordpool_576.txt	LTP207	ltpFR2	11	4	PERFUME	1049	n/a	n/a	0	0	0
708158	WORD	wordpools/wasnorm_wordpool_576.txt	LTP207	ltpFR2	11	4	SOFTBALL	1343	n/a	n/a	0	0	0
710769	WORD	wordpools/wasnorm_wordpool_576.txt	LTP207	ltpFR2	11	4	CATCHER	258	n/a	n/a	0	0	0
713244	WORD	wordpools/wasnorm_wordpool_576.txt	LTP207	ltpFR2	11	4	PERCH	1048	n/a	n/a	0	0	0
715947	WORD	wordpools/wasnorm_wordpool_576.txt	LTP207	ltpFR2	11	4	PASTRY	1022	n/a	n/a	0	0	0
718715	WORD	wordpools/wasnorm_wordpool_576.txt	LTP207	ltpFR2	11	4	DANDRUFF	439	n/a	n/a	0	0	0
721250	WORD	wordpools/wasnorm_wordpool_576.txt	LTP207	ltpFR2	11	4	GUITAR	670	n/a	n/a	0	0	0
723818	WORD	wordpools/wasnorm_wordpool_576.txt	LTP207	ltpFR2	11	4	MOTOR	922	n/a	n/a	0	0	0
726403	WORD	wordpools/wasnorm_wordpool_576.txt	LTP207	ltpFR2	11	4	RADISH	1158	n/a	n/a	0	0	0
729113	WORD	wordpools/wasnorm_wordpool_576.txt	LTP207	ltpFR2	11	4	FARMER	553	n/a	n/a	0	0	0
730728	START	n/a	LTP207	ltpFR2	11	n/a	n/a	n/a	4	n/a	n/a	n/a	n/a
731810	DISTRACTOR	n/a	LTP207	ltpFR2	11	4	n/a	n/a	n/a	n/a	0	0	0
731824	PROB	n/a	LTP207	ltpFR2	11	n/a	n/a	n/a	4	24	9	7	8
733764	PROB	n/a	LTP207	ltpFR2	11	n/a	n/a	n/a	4	15	8	3	4
735135	PROB	n/a	LTP207	ltpFR2	11	n/a	n/a	n/a	4	8	3	4	1
736893	PROB	n/a	LTP207	ltpFR2	11	n/a	n/a	n/a	4	19	6	4	9
738365	PROB	n/a	LTP207	ltpFR2	11	n/a	n/a	n/a	4	14	2	7	5
740724	PROB	n/a	LTP207	ltpFR2	11	n/a	n/a	n/a	4	9	3	3	3
741862	PROB	n/a	LTP207	ltpFR2	11	n/a	n/a	n/a	4	7	1	3	3
743910	PROB	n/a	LTP207	ltpFR2	11	n/a	n/a	n/a	4	16	7	7	2
745466	PROB	n/a	LTP207	ltpFR2	11	n/a	n/a	n/a	4	14	8	1	5
746763	PROB	n/a	LTP207	ltpFR2	11	n/a	n/a	n/a	4	12	5	5	2
747751	PROB	n/a	LTP207	ltpFR2	11	n/a	n/a	n/a	4	18	1	8	9
749205	PROB	n/a	LTP207	ltpFR2	11	n/a	n/a	n/a	4	15	7	7	1
750327	PROB	n/a	LTP207	ltpFR2	11	n/a	n/a	n/a	4	21	5	8	8
752703	PROB	n/a	LTP207	ltpFR2	11	n/a	n/a	n/a	4	18	5	8	5
754009	STOP	n/a	LTP207	ltpFR2	11	n/a	n/a	n/a	4	n/a	n/a	n/a	n/a
756551	REC_START	n/a	LTP207	ltpFR2	11	4	n/a	n/a	n/a	n/a	0	0	0
757503	REC_WORD_VV	wordpools/wasnorm_wordpool_576.txt	LTP207	ltpFR2	11	4	<>	-1	n/a	n/a	0	0	0
759774	REC_WORD	wordpools/wasnorm_wordpool_576.txt	LTP207	ltpFR2	11	4	PASTRY	1022	n/a	n/a	0	0	0
762230	REC_WORD	wordpools/wasnorm_wordpool_576.txt	LTP207	ltpFR2	11	4	PERCH	1048	n/a	n/a	0	0	0
768697	REC_WORD	wordpools/wasnorm_wordpool_576.txt	LTP207	ltpFR2	11	4	OUTFIT	988	n/a	n/a	0	0	0
773021	REC_WORD	wordpools/wasnorm_wordpool_576.txt	LTP207	ltpFR2	11	4	IDOL	733	n/a	n/a	0	0	0
788480	REC_WORD_VV	wordpools/wasnorm_wordpool_576.txt	LTP207	ltpFR2	11	4	<>	-1	n/a	n/a	0	0	0
817656	REC_WORD	wordpools/wasnorm_wordpool_576.txt	LTP207	ltpFR2	11	4	SPARROW	1347	n/a	n/a	0	0	0
847651	DISTRACTOR	n/a	LTP207	ltpFR2	11	5	n/a	n/a	n/a	n/a	0	0	0
847652	START	n/a	LTP207	ltpFR2	11	n/a	n/a	n/a	5	n/a	n/a	n/a	n/a
847711	PROB	n/a	LTP207	ltpFR2	11	n/a	n/a	n/a	5	17	8	8	1
848981	PROB	n/a	LTP207	ltpFR2	11	n/a	n/a	n/a	5	15	2	8	5
850018	PROB	n/a	LTP207	ltpFR2	11	n/a	n/a	n/a	5	12	6	4	2
851113	PROB	n/a	LTP207	ltpFR2	11	n/a	n/a	n/a	5	23	7	7	9
852319	PROB	n/a	LTP207	ltpFR2	11	n/a	n/a	n/a	5	18	3	7	8
853348	PROB	n/a	LTP207	ltpFR2	11	n/a	n/a	n/a	5	12	9	2	1
854285	PROB	n/a	LTP207	ltpFR2	11	n/a	n/a	n/a	5	13	4	4	5
856652	PROB	n/a	LTP207	ltpFR2	11	n/a	n/a	n/a	5	10	5	4	1
857882	PROB	n/a	LTP207	ltpFR2	11	n/a	n/a	n/a	5	20	7	8	5
860089	PROB	n/a	LTP207	ltpFR2	11	n/a	n/a	n/a	5	17	8	6	3
861721	PROB	n/a	LTP207	ltpFR2	11	n/a	n/a	n/a	5	11	2	8	1
863008	PROB	n/a	LTP207	ltpFR2	11	n/a	n/a	n/a	5	12	4	7	1
865318	PROB	n/a	LTP207	ltpFR2	11	n/a	n/a	n/a	5	12	8	2	2
866398	PROB	n/a	LTP207	ltpFR2	11	n/a	n/a	n/a	5	10	4	4	2
867686	PROB	n/a	LTP207	ltpFR2	11	n/a	n/a	n/a	5	14	3	6	5
870073	STOP	n/a	LTP207	ltpFR2	11	n/a	n/a	n/a	5	n/a	n/a	n/a	n/a
872788	WORD	wordpools/wasnorm_wordpool_576.txt	LTP207	ltpFR2	11	5	CARRIAGE	248	n/a	n/a	0	0	0
875263	WORD	wordpools/wasnorm_wordpool_576.txt	LTP207	ltpFR2	11	5	TRACTOR	1493	n/a	n/a	0	0	0
877765	WORD	wordpools/wasnorm_wordpool_576.txt	LTP207	ltpFR2	11	5	FIREPLACE	570	n/a	n/a	0	0	0
880425	WORD	wordpools/wasnorm_wordpool_576.txt	LTP207	ltpFR2	11	5	POCKET	1093	n/a	n/a	0	0	0
883043	WORD	wordpools/wasnorm_wordpool_576.txt	LTP207	ltpFR2	11	5	FINGER	567	n/a	n/a	0	0	0
885486	WORD	wordpools/wasnorm_wordpool_576.txt	LTP207	ltpFR2	11	5	WRIST	1626	n/a	n/a	0	0	0
888129	WORD	wordpools/wasnorm_wordpool_576.txt	LTP207	ltpFR2	11	5	GRAPE	654	n/a	n/a	0	0	0
890773	WORD	wordpools/wasnorm_wordpool_576.txt	LTP207	ltpFR2	11	5	MAILBOX	857	n/a	n/a	0	0	0
893248	WORD	wordpools/wasnorm_wordpool_576.txt	LTP207	ltpFR2	11	5	BRANCH	168	n/a	n/a	0	0	0
896025	WORD	wordpools/wasnorm_wordpool_576.txt	LTP207	ltpFR2	11	5	PERMIT	1051	n/a	n/a	0	0	0
898619	WORD	wordpools/wasnorm_wordpool_576.txt	LTP207	ltpFR2	11	5	ZEBRA	1635	n/a	n/a	0	0	0
901380	WORD	wordpools/wasnorm_wordpool_576.txt	LTP207	ltpFR2	11	5	ANTLER	29	n/a	n/a	0	0	0
903939	WORD	wordpools/wasnorm_wordpool_576.txt	LTP207	ltpFR2	11	5	JELLY	755	n/a	n/a	0	0	0
906690	WORD	wordpools/wasnorm_wordpool_576.txt	LTP207	ltpFR2	11	5	SUBWAY	1400	n/a	n/a	0	0	0
909141	WORD	wordpools/wasnorm_wordpool_576.txt	LTP207	ltpFR2	11	5	PORK	1108	n/a	n/a	0	0	0
911802	WORD	wordpools/wasnorm_wordpool_576.txt	LTP207	ltpFR2	11	5	KIDNEY	776	n/a	n/a	0	0	0
914369	WORD	wordpools/wasnorm_wordpool_576.txt	LTP207	ltpFR2	11	5	MISTER	901	n/a	n/a	0	0	0
916812	WORD	wordpools/wasnorm_wordpool_576.txt	LTP207	ltpFR2	11	5	BOARD	143	n/a	n/a	0	0	0
919297	WORD	wordpools/wasnorm_wordpool_576.txt	LTP207	ltpFR2	11	5	STAKE	1368	n/a	n/a	0	0	0
922123	WORD	wordpools/wasnorm_wordpool_576.txt	LTP207	ltpFR2	11	5	OUTLAW	989	n/a	n/a	0	0	0
924591	WORD	wordpools/wasnorm_wordpool_576.txt	LTP207	ltpFR2	11	5	TART	1436	n/a	n/a	0	0	0
927200	WORD	wordpools/wasnorm_wordpool_576.txt	LTP207	ltpFR2	11	5	CANDY	230	n/a	n/a	0	0	0
929971	WORD	wordpools/wasnorm_wordpool_576.txt	LTP207	ltpFR2	11	5	INMATE	738	n/a	n/a	0	0	0
932421	WORD	wordpools/wasnorm_wordpool_576.txt	LTP207	ltpFR2	11	5	NAPKIN	937	n/a	n/a	0	0	0
934035	START	n/a	LTP207	ltpFR2	11	n/a	n/a	n/a	6	n/a	n/a	n/a	n/a
935106	DISTRACTOR	n/a	LTP207	ltpFR2	11	5	n/a	n/a	n/a	n/a	0	0	0
935122	PROB	n/a	LTP207	ltpFR2	11	n/a	n/a	n/a	6	15	9	3	3
936411	PROB	n/a	LTP207	ltpFR2	11	n/a	n/a	n/a	6	20	5	6	9
937624	PROB	n/a	LTP207	ltpFR2	11	n/a	n/a	n/a	6	6	1	4	1
938637	PROB	n/a	LTP207	ltpFR2	11	n/a	n/a	n/a	6	14	7	6	1
940015	PROB	n/a	LTP207	ltpFR2	11	n/a	n/a	n/a	6	14	5	3	6
941548	PROB	n/a	LTP207	ltpFR2	11	n/a	n/a	n/a	6	23	6	9	8
943086	PROB	n/a	LTP207	ltpFR2	11	n/a	n/a	n/a	6	16	5	3	8
944483	PROB	n/a	LTP207	ltpFR2	11	n/a	n/a	n/a	6	21	6	7	8
946188	PROB	n/a	LTP207	ltpFR2	11	n/a	n/a	n/a	6	19	2	9	8
948205	PROB	n/a	LTP207	ltpFR2	11	n/a	n/a	n/a	6	9	3	5	1
950857	PROB	n/a	LTP207	ltpFR2	11	n/a	n/a	n/a	6	19	9	1	9
952161	PROB	n/a	LTP207	ltpFR2	11	n/a	n/a	n/a	6	13	8	1	4
953350	PROB	n/a	LTP207	ltpFR2	11	n/a	n/a	n/a	6	21	8	9	4
954939	PROB	n/a	LTP207	ltpFR2	11	n/a	n/a	n/a	6	23	8	9	6
957370	STOP	n/a	LTP207	ltpFR2	11	n/a	n/a	n/a	6	n/a	n/a	n/a	n/a
959825	REC_START	n/a	LTP207	ltpFR2	11	5	n/a	n/a	n/a	n/a	0	0	0
960953	REC_WORD	wordpools/wasnorm_wordpool_576.txt	LTP207	ltpFR2	11	5	CARRIAGE	248	n/a	n/a	0	0	0
962973	REC_WORD	wordpools/wasnorm_wordpool_576.txt	LTP207	ltpFR2	11	5	TRACTOR	1493	n/a	n/a	0	0	0
965092	REC_WORD	wordpools/wasnorm_wordpool_576.txt	LTP207	ltpFR2	11	5	PERMIT	1051	n/a	n/a	0	0	0
966983	REC_WORD	wordpools/wasnorm_wordpool_576.txt	LTP207	ltpFR2	11	5	FIREPLACE	570	n/a	n/a	0	0	0
967983	REC_WORD_VV	wordpools/wasnorm_wordpool_576.txt	LTP207	ltpFR2	11	5	<>	-1	n/a	n/a	0	0	0
969477	REC_WORD	wordpools/wasnorm_wordpool_576.txt	LTP207	ltpFR2	11	5	GRAPE	654	n/a	n/a	0	0	0
971849	REC_WORD	wordpools/wasnorm_wordpool_576.txt	LTP207	ltpFR2	11	5	ZEBRA	1635	n/a	n/a	0	0	0
973725	REC_WORD	wordpools/wasnorm_wordpool_576.txt	LTP207	ltpFR2	11	5	JELLY	755	n/a	n/a	0	0	0
974705	REC_WORD_VV	wordpools/wasnorm_wordpool_576.txt	LTP207	ltpFR2	11	5	<>	-1	n/a	n/a	0	0	0
975705	REC_WORD_VV	wordpools/wasnorm_wordpool_576.txt	LTP207	ltpFR2	11	5	<>	-1	n/a	n/a	0	0	0
976705	REC_WORD_VV	wordpools/wasnorm_wordpool_576.txt	LTP207	ltpFR2	11	5	<>	-1	n/a	n/a	0	0	0
1021684	REC_WORD	wordpools/wasnorm_wordpool_576.txt	LTP207	ltpFR2	11	5	WRIST	1626	n/a	n/a	0	0	0
1022818	REC_WORD	wordpools/wasnorm_wordpool_576.txt	LTP207	ltpFR2	11	5	POCKET	1093	n/a	n/a	0	0	0
1033122	REC_WORD	wordpools/wasnorm_wordpool_576.txt	LTP207	ltpFR2	11	5	FINGER	567	n/a	n/a	0	0	0
1079190	DISTRACTOR	n/a	LTP207	ltpFR2	11	6	n/a	n/a	n/a	n/a	0	0	0
1079190	START	n/a	LTP207	ltpFR2	11	n/a	n/a	n/a	7	n/a	n/a	n/a	n/a
1079240	PROB	n/a	LTP207	ltpFR2	11	n/a	n/a	n/a	7	7	2	2	3
1080906	PROB	n/a	LTP207	ltpFR2	11	n/a	n/a	n/a	7	14	5	5	4
1082000	PROB	n/a	LTP207	ltpFR2	11	n/a	n/a	n/a	7	20	4	8	8
1083306	PROB	n/a	LTP207	ltpFR2	11	n/a	n/a	n/a	7	15	4	8	3
1084654	PROB	n/a	LTP207	ltpFR2	11	n/a	n/a	n/a	7	9	3	5	1
1086032	PROB	n/a	LTP207	ltpFR2	11	n/a	n/a	n/a	7	11	2	2	7
1087397	PROB	n/a	LTP207	ltpFR2	11	n/a	n/a	n/a	7	15	7	4	4
1089010	PROB	n/a	LTP207	ltpFR2	11	n/a	n/a	n/a	7	11	4	5	2
1090542	PROB	n/a	LTP207	ltpFR2	11	n/a	n/a	n/a	7	15	6	4	5
1091814	PROB	n/a	LTP207	ltpFR2	11	n/a	n/a	n/a	7	13	3	8	2
1093612	PROB	n/a	LTP207	ltpFR2	11	n/a	n/a	n/a	7	21	7	9	5
1095377	PROB	n/a	LTP207	ltpFR2	11	n/a	n/a	n/a	7	19	1	9	9
1096749	PROB	n/a	LTP207	ltpFR2	11	n/a	n/a	n/a	7	12	2	6	4
1098497	PROB	n/a	LTP207	ltpFR2	11	n/a	n/a	n/a	7	13	2	5	6
1099752	PROB	n/a	LTP207	ltpFR2	11	n/a	n/a	n/a	7	8	5	2	1
1103190	STOP	n/a	LTP207	ltpFR2	11	n/a	n/a	n/a	7	n/a	n/a	n/a	n/a
1104026	WORD	wordpools/wasnorm_wordpool_576.txt	LTP207	ltpFR2	11	6	PISTOL	1075	n/a	n/a	0	0	0
1106477	WORD	wordpools/wasnorm_wordpool_576.txt	LTP207	ltpFR2	11	6	OZONE	996	n/a	n/a	0	0	0
1109253	WORD	wordpools/wasnorm_wordpool_576.txt	LTP207	ltpFR2	11	6	MARSH	874	n/a	n/a	0	0	0
1111864	WORD	wordpools/wasnorm_wordpool_576.txt	LTP207	ltpFR2	11	6	MATTRESS	879	n/a	n/a	0	0	0
1114583	WORD	wordpools/wasnorm_wordpool_576.txt	LTP207	ltpFR2	11	6	LASER	801	n/a	n/a	0	0	0
1117049	WORD	wordpools/wasnorm_wordpool_576.txt	LTP207	ltpFR2	11	6	SWITCH	1422	n/a	n/a	0	0	0
1119485	WORD	wordpools/wasnorm_wordpool_576.txt	LTP207	ltpFR2	11	6	XEROX	1628	n/a	n/a	0	0	0
1122060	WORD	wordpools/wasnorm_wordpool_576.txt	LTP207	ltpFR2	11	6	POISON	1096	n/a	n/a	0	0	0
1124712	WORD	wordpools/wasnorm_wordpool_576.txt	LTP207	ltpFR2	11	6	PEPPER	1047	n/a	n/a	0	0	0
1127314	WORD	wordpools/wasnorm_wordpool_576.txt	LTP207	ltpFR2	11	6	LOFT	840	n/a	n/a	0	0	0
1129941	WORD	wordpools/wasnorm_wordpool_576.txt	LTP207	ltpFR2	11	6	PLUTO	1092	n/a	n/a	0	0	0
1132425	WORD	wordpools/wasnorm_wordpool_576.txt	LTP207	ltpFR2	11	6	ICING	732	n/a	n/a	0	0	0
1135210	WORD	wordpools/wasnorm_wordpool_576.txt	LTP207	ltpFR2	11	6	BUGGY	188	n/a	n/a	0	0	0
1137728	WORD	wordpools/wasnorm_wordpool_576.txt	LTP207	ltpFR2	11	6	SMOG	1330	n/a	n/a	0	0	0
1140488	WORD	wordpools/wasnorm_wordpool_576.txt	LTP207	ltpFR2	11	6	PUDDLE	1140	n/a	n/a	0	0	0
1143223	WORD	wordpools/wasnorm_wordpool_576.txt	LTP207	ltpFR2	11	6	STAR	1373	n/a	n/a	0	0	0
1145935	WORD	wordpools/wasnorm_wordpool_576.txt	LTP207	ltpFR2	11	6	COUNTRY	388	n/a	n/a	0	0	0
1148485	WORD	wordpools/wasnorm_wordpool_576.txt	LTP207	ltpFR2	11	6	ASIA	46	n/a	n/a	0	0	0
1151312	WORD	wordpools/wasnorm_wordpool_576.txt	LTP207	ltpFR2	11	6	LILY	821	n/a	n/a	0	0	0
1153788	WORD	wordpools/wasnorm_wordpool_576.txt	LTP207	ltpFR2	11	6	ROBOT	1200	n/a	n/a	0	0	0
1156524	WORD	wordpools/wasnorm_wordpool_576.txt	LTP207	ltpFR2	11	6	PACKAGE	997	n/a	n/a	0	0	0
1159285	WORD	wordpools/wasnorm_wordpool_576.txt	LTP207	ltpFR2	11	6	BALLOON	75	n/a	n/a	0	0	0
1161718	WORD	wordpools/wasnorm_wordpool_576.txt	LTP207	ltpFR2	11	6	LUNCH	849	n/a	n/a	0	0	0
1164538	WORD	wordpools/wasnorm_wordpool_576.txt	LTP207	ltpFR2	11	6	COD	340	n/a	n/a	0	0	0
1166151	START	n/a	LTP207	ltpFR2	11	n/a	n/a	n/a	8	n/a	n/a	n/a	n/a
1167319	DISTRACTOR	n/a	LTP207	ltpFR2	11	6	n/a	n/a	n/a	n/a	0	0	0
1167332	PROB	n/a	LTP207	ltpFR2	11	n/a	n/a	n/a	8	9	1	1	7
1168594	PROB	n/a	LTP207	ltpFR2	11	n/a	n/a	n/a	8	16	2	6	8
1169891	PROB	n/a	LTP207	ltpFR2	11	n/a	n/a	n/a	8	20	9	4	7
1171203	PROB	n/a	LTP207	ltpFR2	11	n/a	n/a	n/a	8	9	5	3	1
1172585	PROB	n/a	LTP207	ltpFR2	11	n/a	n/a	n/a	8	20	4	7	9
1173780	PROB	n/a	LTP207	ltpFR2	11	n/a	n/a	n/a	8	12	7	3	2
1175077	PROB	n/a	LTP207	ltpFR2	11	n/a	n/a	n/a	8	18	9	3	6
1176818	PROB	n/a	LTP207	ltpFR2	11	n/a	n/a	n/a	8	15	8	1	6
1178255	PROB	n/a	LTP207	ltpFR2	11	n/a	n/a	n/a	8	12	1	7	4
1179619	PROB	n/a	LTP207	ltpFR2	11	n/a	n/a	n/a	8	21	8	7	6
1181157	PROB	n/a	LTP207	ltpFR2	11	n/a	n/a	n/a	8	15	5	1	9
1182463	PROB	n/a	LTP207	ltpFR2	11	n/a	n/a	n/a	8	7	2	3	2
1184430	PROB	n/a	LTP207	ltpFR2	11	n/a	n/a	n/a	8	15	5	9	1
1185592	PROB	n/a	LTP207	ltpFR2	11	n/a	n/a	n/a	8	17	9	2	6
1187180	PROB	n/a	LTP207	ltpFR2	11	n/a	n/a	n/a	8	11	5	3	3
1188874	STOP	n/a	LTP207	ltpFR2	11	n/a	n/a	n/a	8	n/a	n/a	n/a	n/a
1192075	REC_START	n/a	LTP207	ltpFR2	11	6	n/a	n/a	n/a	n/a	0	0	0
1193877	REC_WORD	wordpools/wasnorm_wordpool_576.txt	LTP207	ltpFR2	11	6	PUDDLE	1140	n/a	n/a	0	0	0
1196971	REC_WORD	wordpools/wasnorm_wordpool_576.txt	LTP207	ltpFR2	11	6	ROBOT	1200	n/a	n/a	0	0	0
1198388	REC_WORD	wordpools/wasnorm_wordpool_576.txt	LTP207	ltpFR2	11	6	LILY	821	n/a	n/a	0	0	0
1199601	REC_WORD	wordpools/wasnorm_wordpool_576.txt	LTP207	ltpFR2	11	6	STAR	1373	n/a	n/a	0	0	0
1201790	REC_WORD	wordpools/wasnorm_wordpool_576.txt	LTP207	ltpFR2	11	6	COUNTRY	388	n/a	n/a	0	0	0
1203502	REC_WORD	wordpools/wasnorm_wordpool_576.txt	LTP207	ltpFR2	11	6	ASIA	46	n/a	n/a	0	0	0
1283234	WORD	wordpools/wasnorm_wordpool_576.txt	LTP207	ltpFR2	11	7	VAGRANT	1544	n/a	n/a	0	0	0
1285736	WORD	wordpools/wasnorm_wordpool_576.txt	LTP207	ltpFR2	11	7	MESSAGE	888	n/a	n/a	0	0	0
1288211	WORD	wordpools/wasnorm_wordpool_576.txt	LTP207	ltpFR2	11	7	DRESSER	496	n/a	n/a	0	0	0
1290680	WORD	wordpools/wasnorm_wordpool_576.txt	LTP207	ltpFR2	11	7	TRANSPLANT	1496	n/a	n/a	0	0	0
1293314	WORD	wordpools/wasnorm_wordpool_576.txt	LTP207	ltpFR2	11	7	KITCHEN	778	n/a	n/a	0	0	0
1295757	WORD	wordpools/wasnorm_wordpool_576.txt	LTP207	ltpFR2	11	7	BRACES	164	n/a	n/a	0	0	0
1298274	WORD	wordpools/wasnorm_wordpool_576.txt	LTP207	ltpFR2	11	7	CUSTARD	429	n/a	n/a	0	0	0
1300943	WORD	wordpools/wasnorm_wordpool_576.txt	LTP207	ltpFR2	11	7	SPOON	1357	n/a	n/a	0	0	0
1303763	WORD	wordpools/wasnorm_wordpool_576.txt	LTP207	ltpFR2	11	7	WARDROBE	1587	n/a	n/a	0	0	0
1306514	WORD	wordpools/wasnorm_wordpool_576.txt	LTP207	ltpFR2	11	7	SCULPTURE	1258	n/a	n/a	0	0	0
1309266	WORD	wordpools/wasnorm_wordpool_576.txt	LTP207	ltpFR2	11	7	VALVE	1546	n/a	n/a	0	0	0
1311784	WORD	wordpools/wasnorm_wordpool_576.txt	LTP207	ltpFR2	11	7	PATIENT	1024	n/a	n/a	0	0	0
1314259	WORD	wordpools/wasnorm_wordpool_576.txt	LTP207	ltpFR2	11	7	VICTIM	1562	n/a	n/a	0	0	0
1317019	WORD	wordpools/wasnorm_wordpool_576.txt	LTP207	ltpFR2	11	7	SCARF	1246	n/a	n/a	0	0	0
1319790	WORD	wordpools/wasnorm_wordpool_576.txt	LTP207	ltpFR2	11	7	PENGUIN	1044	n/a	n/a	0	0	0
1322567	WORD	wordpools/wasnorm_wordpool_576.txt	LTP207	ltpFR2	11	7	STATUE	1374	n/a	n/a	0	0	0
1325200	WORD	wordpools/wasnorm_wordpool_576.txt	LTP207	ltpFR2	11	7	SEAFOOD	1260	n/a	n/a	0	0	0
1327861	WORD	wordpools/wasnorm_wordpool_576.txt	LTP207	ltpFR2	11	7	EXPERT	543	n/a	n/a	0	0	0
1330454	WORD	wordpools/wasnorm_wordpool_576.txt	LTP207	ltpFR2	11	7	NURSE	963	n/a	n/a	0	0	0
1332947	WORD	wordpools/wasnorm_wordpool_576.txt	LTP207	ltpFR2	11	7	DAUGHTER	442	n/a	n/a	0	0	0
1335490	WORD	wordpools/wasnorm_wordpool_576.txt	LTP207	ltpFR2	11	7	PARENT	1013	n/a	n/a	0	0	0
1338007	WORD	wordpools/wasnorm_wordpool_576.txt	LTP207	ltpFR2	11	7	WIDOW	1608	n/a	n/a	0	0	0
1340451	WORD	wordpools/wasnorm_wordpool_576.txt	LTP207	ltpFR2	11	7	CAMEL	223	n/a	n/a	0	0	0
1343194	WORD	wordpools/wasnorm_wordpool_576.txt	LTP207	ltpFR2	11	7	CIGAR	308	n/a	n/a	0	0	0
1344809	START	n/a	LTP207	ltpFR2	11	n/a	n/a	n/a	9	n/a	n/a	n/a	n/a
1345974	DISTRACTOR	n/a	LTP207	ltpFR2	11	7	n/a	n/a	n/a	n/a	0	0	0
1345988	PROB	n/a	LTP207	ltpFR2	11	n/a	n/a	n/a	9	9	2	3	4
1348907	PROB	n/a	LTP207	ltpFR2	11	n/a	n/a	n/a	9	15	4	9	2
1350372	PROB	n/a	LTP207	ltpFR2	11	n/a	n/a	n/a	9	24	9	8	7
1352168	PROB	n/a	LTP207	ltpFR2	11	n/a	n/a	n/a	9	11	6	3	2
1353651	PROB	n/a	LTP207	ltpFR2	11	n/a	n/a	n/a	9	14	2	5	7
1355029	PROB	n/a	LTP207	ltpFR2	11	n/a	n/a	n/a	9	14	5	5	4
1356167	PROB	n/a	LTP207	ltpFR2	11	n/a	n/a	n/a	9	16	4	6	6
1357707	PROB	n/a	LTP207	ltpFR2	11	n/a	n/a	n/a	9	9	3	1	5
1358954	PROB	n/a	LTP207	ltpFR2	11	n/a	n/a	n/a	9	18	8	6	4
1360300	PROB	n/a	LTP207	ltpFR2	11	n/a	n/a	n/a	9	18	8	3	7
1361497	PROB	n/a	LTP207	ltpFR2	11	n/a	n/a	n/a	9	16	6	7	3
1363059	PROB	n/a	LTP207	ltpFR2	11	n/a	n/a	n/a	9	16	5	9	2
1364609	PROB	n/a	LTP207	ltpFR2	11	n/a	n/a	n/a	9	15	6	2	7
1366205	PROB	n/a	LTP207	ltpFR2	11	n/a	n/a	n/a	9	13	3	9	1
1367498	STOP	n/a	LTP207	ltpFR2	11	n/a	n/a	n/a	9	n/a	n/a	n/a	n/a
1370606	REC_START	n/a	LTP207	ltpFR2	11	7	n/a	n/a	n/a	n/a	0	0	0
1372598	REC_WORD	wordpools/wasnorm_wordpool_576.txt	LTP207	ltpFR2	11	7	SPOON	1357	n/a	n/a	0	0	0
1374731	REC_WORD	wordpools/wasnorm_wordpool_576.txt	LTP207	ltpFR2	11	7	CUSTARD	429	n/a	n/a	0	0	0
1377147	REC_WORD	wordpools/wasnorm_wordpool_576.txt	LTP207	ltpFR2	11	7	BRACES	164	n/a	n/a	0	0	0
1382787	REC_WORD	wordpools/wasnorm_wordpool_576.txt	LTP207	ltpFR2	11	7	TRANSPLANT	1496	n/a	n/a	0	0	0
1388389	REC_WORD	wordpools/wasnorm_wordpool_576.txt	LTP207	ltpFR2	11	7	KITCHEN	778	n/a	n/a	0	0	0
1461749	WORD	wordpools/wasnorm_wordpool_576.txt	LTP207	ltpFR2	11	8	PATROL	1027	n/a	n/a	0	0	0
1464560	WORD	wordpools/wasnorm_wordpool_576.txt	LTP207	ltpFR2	11	8	COUNTY	389	n/a	n/a	0	0	0
1467329	WORD	wordpools/wasnorm_wordpool_576.txt	LTP207	ltpFR2	11	8	GOBLIN	645	n/a	n/a	0	0	0
1470122	WORD	wordpools/wasnorm_wordpool_576.txt	LTP207	ltpFR2	11	8	MONSTER	912	n/a	n/a	0	0	0
1472724	WORD	wordpools/wasnorm_wordpool_576.txt	LTP207	ltpFR2	11	8	BULLET	194	n/a	n/a	0	0	0
1475326	WORD	wordpools/wasnorm_wordpool_576.txt	LTP207	ltpFR2	11	8	LADY	794	n/a	n/a	0	0	0
1478126	WORD	wordpools/wasnorm_wordpool_576.txt	LTP207	ltpFR2	11	8	GAVEL	627	n/a	n/a	0	0	0
1480780	WORD	wordpools/wasnorm_wordpool_576.txt	LTP207	ltpFR2	11	8	COBRA	336	n/a	n/a	0	0	0
1483246	WORD	wordpools/wasnorm_wordpool_576.txt	LTP207	ltpFR2	11	8	HUSBAND	728	n/a	n/a	0	0	0
1485940	WORD	wordpools/wasnorm_wordpool_576.txt	LTP207	ltpFR2	11	8	CORAL	378	n/a	n/a	0	0	0
1488734	WORD	wordpools/wasnorm_wordpool_576.txt	LTP207	ltpFR2	11	8	PAIL	1002	n/a	n/a	0	0	0
1491470	WORD	wordpools/wasnorm_wordpool_576.txt	LTP207	ltpFR2	11	8	COUCH	386	n/a	n/a	0	0	0
1493963	WORD	wordpools/wasnorm_wordpool_576.txt	LTP207	ltpFR2	11	8	JUDGE	761	n/a	n/a	0	0	0
1496547	WORD	wordpools/wasnorm_wordpool_576.txt	LTP207	ltpFR2	11	8	BISON	131	n/a	n/a	0	0	0
1499350	WORD	wordpools/wasnorm_wordpool_576.txt	LTP207	ltpFR2	11	8	FLIPPER	580	n/a	n/a	0	0	0
1501843	WORD	wordpools/wasnorm_wordpool_576.txt	LTP207	ltpFR2	11	8	SADDLE	1221	n/a	n/a	0	0	0
1504275	WORD	wordpools/wasnorm_wordpool_576.txt	LTP207	ltpFR2	11	8	STALLION	1369	n/a	n/a	0	0	0
1507044	WORD	wordpools/wasnorm_wordpool_576.txt	LTP207	ltpFR2	11	8	CRAB	397	n/a	n/a	0	0	0
1509705	WORD	wordpools/wasnorm_wordpool_576.txt	LTP207	ltpFR2	11	8	FRAGRANCE	599	n/a	n/a	0	0	0
1512164	WORD	wordpools/wasnorm_wordpool_576.txt	LTP207	ltpFR2	11	8	SPHINX	1349	n/a	n/a	0	0	0
1514849	WORD	wordpools/wasnorm_wordpool_576.txt	LTP207	ltpFR2	11	8	CHAUFFEUR	283	n/a	n/a	0	0	0
1517418	WORD	wordpools/wasnorm_wordpool_576.txt	LTP207	ltpFR2	11	8	SWIMMER	1420	n/a	n/a	0	0	0
1520034	WORD	wordpools/wasnorm_wordpool_576.txt	LTP207	ltpFR2	11	8	DRESS	495	n/a	n/a	0	0	0
1522729	WORD	wordpools/wasnorm_wordpool_576.txt	LTP207	ltpFR2	11	8	ZIPPER	1636	n/a	n/a	0	0	0
1524344	START	n/a	LTP207	ltpFR2	11	n/a	n/a	n/a	10	n/a	n/a	n/a	n/a
1525178	DISTRACTOR	n/a	LTP207	ltpFR2	11	8	n/a	n/a	n/a	n/a	0	0	0
1525196	PROB	n/a	LTP207	ltpFR2	11	n/a	n/a	n/a	10	16	4	8	4
1527187	PROB	n/a	LTP207	ltpFR2	11	n/a	n/a	n/a	10	16	2	7	7
1528702	PROB	n/a	LTP207	ltpFR2	11	n/a	n/a	n/a	10	22	7	7	8
1530384	PROB	n/a	LTP207	ltpFR2	11	n/a	n/a	n/a	10	12	5	5	2
1531629	PROB	n/a	LTP207	ltpFR2	11	n/a	n/a	n/a	10	19	2	8	9
1532859	PROB	n/a	LTP207	ltpFR2	11	n/a	n/a	n/a	10	25	8	8	9
1534255	PROB	n/a	LTP207	ltpFR2	11	n/a	n/a	n/a	10	14	8	1	5
1535536	PROB	n/a	LTP207	ltpFR2	11	n/a	n/a	n/a	10	16	4	7	5
1537602	PROB	n/a	LTP207	ltpFR2	11	n/a	n/a	n/a	10	21	9	7	5
1539668	PROB	n/a	LTP207	ltpFR2	11	n/a	n/a	n/a	10	19	8	6	5
1541023	PROB	n/a	LTP207	ltpFR2	11	n/a	n/a	n/a	10	7	3	3	1
1543533	PROB	n/a	LTP207	ltpFR2	11	n/a	n/a	n/a	10	12	7	2	3
1544938	PROB	n/a	LTP207	ltpFR2	11	n/a	n/a	n/a	10	20	9	6	5
1546175	PROB	n/a	LTP207	ltpFR2	11	n/a	n/a	n/a	10	11	4	6	1
1547145	STOP	n/a	LTP207	ltpFR2	11	n/a	n/a	n/a	10	n/a	n/a	n/a	n/a
1550225	REC_START	n/a	LTP207	ltpFR2	11	8	n/a	n/a	n/a	n/a	0	0	0
1559930	REC_WORD	wordpools/wasnorm_wordpool_576.txt	LTP207	ltpFR2	11	8	FLIPPER	580	n/a	n/a	0	0	0
1572195	REC_WORD	wordpools/wasnorm_wordpool_576.txt	LTP207	ltpFR2	11	8	SADDLE	1221	n/a	n/a	0	0	0
1573875	REC_WORD	wordpools/wasnorm_wordpool_576.txt	LTP207	ltpFR2	11	8	STALLION	1369	n/a	n/a	0	0	0
1627097	REST_REWET	n/a	LTP207	ltpFR2	11	8	n/a	n/a	n/a	n/a	0	0	0
1903372	WORD	wordpools/wasnorm_wordpool_576.txt	LTP207	ltpFR2	11	9	SCALLOP	1242	n/a	n/a	0	0	0
1906022	WORD	wordpools/wasnorm_wordpool_576.txt	LTP207	ltpFR2	11	9	CROWN	415	n/a	n/a	0	0	0
1908817	WORD	wordpools/wasnorm_wordpool_576.txt	LTP207	ltpFR2	11	9	PRINCE	1124	n/a	n/a	0	0	0
1911511	WORD	wordpools/wasnorm_wordpool_576.txt	LTP207	ltpFR2	11	9	YARN	1631	n/a	n/a	0	0	0
1914129	WORD	wordpools/wasnorm_wordpool_576.txt	LTP207	ltpFR2	11	9	TWIG	1527	n/a	n/a	0	0	0
1916848	WORD	wordpools/wasnorm_wordpool_576.txt	LTP207	ltpFR2	11	9	BEAKER	104	n/a	n/a	0	0	0
1919517	WORD	wordpools/wasnorm_wordpool_576.txt	LTP207	ltpFR2	11	9	CATTLE	261	n/a	n/a	0	0	0
1922311	WORD	wordpools/wasnorm_wordpool_576.txt	LTP207	ltpFR2	11	9	RIVER	1194	n/a	n/a	0	0	0
1924820	WORD	wordpools/wasnorm_wordpool_576.txt	LTP207	ltpFR2	11	9	CHEMIST	292	n/a	n/a	0	0	0
1927329	WORD	wordpools/wasnorm_wordpool_576.txt	LTP207	ltpFR2	11	9	SCARECROW	1245	n/a	n/a	0	0	0
1929822	WORD	wordpools/wasnorm_wordpool_576.txt	LTP207	ltpFR2	11	9	LIGHTNING	820	n/a	n/a	0	0	0
1932549	WORD	wordpools/wasnorm_wordpool_576.txt	LTP207	ltpFR2	11	9	SERVER	1272	n/a	n/a	0	0	0
1935091	WORD	wordpools/wasnorm_wordpool_576.txt	LTP207	ltpFR2	11	9	HOSTESS	723	n/a	n/a	0	0	0
1937726	WORD	wordpools/wasnorm_wordpool_576.txt	LTP207	ltpFR2	11	9	JURY	766	n/a	n/a	0	0	0
1940386	WORD	wordpools/wasnorm_wordpool_576.txt	LTP207	ltpFR2	11	9	TUNNEL	1519	n/a	n/a	0	0	0
1942896	WORD	wordpools/wasnorm_wordpool_576.txt	LTP207	ltpFR2	11	9	SCISSORS	1250	n/a	n/a	0	0	0
1945405	WORD	wordpools/wasnorm_wordpool_576.txt	LTP207	ltpFR2	11	9	LIPSTICK	829	n/a	n/a	0	0	0
1948090	WORD	wordpools/wasnorm_wordpool_576.txt	LTP207	ltpFR2	11	9	SCRIBBLE	1256	n/a	n/a	0	0	0
1950584	WORD	wordpools/wasnorm_wordpool_576.txt	LTP207	ltpFR2	11	9	JOURNAL	760	n/a	n/a	0	0	0
1953352	WORD	wordpools/wasnorm_wordpool_576.txt	LTP207	ltpFR2	11	9	LIZARD	834	n/a	n/a	0	0	0
1955911	WORD	wordpools/wasnorm_wordpool_576.txt	LTP207	ltpFR2	11	9	APRON	35	n/a	n/a	0	0	0
1958354	WORD	wordpools/wasnorm_wordpool_576.txt	LTP207	ltpFR2	11	9	LIVER	833	n/a	n/a	0	0	0
1960956	WORD	wordpools/wasnorm_wordpool_576.txt	LTP207	ltpFR2	11	9	SALMON	1227	n/a	n/a	0	0	0
1963624	WORD	wordpools/wasnorm_wordpool_576.txt	LTP207	ltpFR2	11	9	BUTCHER	203	n/a	n/a	0	0	0
1965238	START	n/a	LTP207	ltpFR2	11	n/a	n/a	n/a	11	n/a	n/a	n/a	n/a
1966164	DISTRACTOR	n/a	LTP207	ltpFR2	11	9	n/a	n/a	n/a	n/a	0	0	0
1966175	PROB	n/a	LTP207	ltpFR2	11	n/a	n/a	n/a	11	10	1	5	4
1967873	PROB	n/a	LTP207	ltpFR2	11	n/a	n/a	n/a	11	7	2	3	2
1969429	PROB	n/a	LTP207	ltpFR2	11	n/a	n/a	n/a	11	10	1	1	8
1970533	PROB	n/a	LTP207	ltpFR2	11	n/a	n/a	n/a	11	7	5	1	1
1971721	PROB	n/a	LTP207	ltpFR2	11	n/a	n/a	n/a	11	11	2	3	6
1973192	PROB	n/a	LTP207	ltpFR2	11	n/a	n/a	n/a	11	11	2	1	8
1974415	PROB	n/a	LTP207	ltpFR2	11	n/a	n/a	n/a	11	23	8	7	7
1975913	PROB	n/a	LTP207	ltpFR2	11	n/a	n/a	n/a	11	13	4	6	3
1977140	PROB	n/a	LTP207	ltpFR2	11	n/a	n/a	n/a	11	9	3	2	4
1979868	PROB	n/a	LTP207	ltpFR2	11	n/a	n/a	n/a	11	16	8	3	5
1981525	PROB	n/a	LTP207	ltpFR2	11	n/a	n/a	n/a	11	21	8	9	4
1982830	PROB	n/a	LTP207	ltpFR2	11	n/a	n/a	n/a	11	18	1	9	8
1984503	PROB	n/a	LTP207	ltpFR2	11	n/a	n/a	n/a	11	17	5	7	5
1987044	PROB	n/a	LTP207	ltpFR2	11	n/a	n/a	n/a	11	10	2	3	5
1988562	STOP	n/a	LTP207	ltpFR2	11	n/a	n/a	n/a	11	n/a	n/a	n/a	n/a
1991094	REC_START	n/a	LTP207	ltpFR2	11	9	n/a	n/a	n/a	n/a	0	0	0
1994118	REC_WORD	wordpools/wasnorm_wordpool_576.txt	LTP207	ltpFR2	11	9	TUNNEL	1519	n/a	n/a	0	0	0
1996713	REC_WORD	wordpools/wasnorm_wordpool_576.txt	LTP207	ltpFR2	11	9	BRIDGE	174	n/a	n/a	0	0	0
1999220	REC_WORD_VV	wordpools/wasnorm_wordpool_576.txt	LTP207	ltpFR2	11	9	<>	-1	n/a	n/a	0	0	0
2002119	REC_WORD	wordpools/wasnorm_wordpool_576.txt	LTP207	ltpFR2	11	9	SCALLOP	1242	n/a	n/a	0	0	0
2004111	REC_WORD	wordpools/wasnorm_wordpool_576.txt	LTP207	ltpFR2	11	9	CROWN	415	n/a	n/a	0	0	0
2005812	REC_WORD	wordpools/wasnorm_wordpool_576.txt	LTP207	ltpFR2	11	9	PRINCE	1124	n/a	n/a	0	0	0
2082153	DISTRACTOR	n/a	LTP207	ltpFR2	11	10	n/a	n/a	n/a	n/a	0	0	0
2082153	START	n/a	LTP207	ltpFR2	11	n/a	n/a	n/a	12	n/a	n/a	n/a	n/a
2082203	PROB	n/a	LTP207	ltpFR2	11	n/a	n/a	n/a	12	8	3	4	1
2083518	PROB	n/a	LTP207	ltpFR2	11	n/a	n/a	n/a	12	15	5	4	6
2085843	PROB	n/a	LTP207	ltpFR2	11	n/a	n/a	n/a	12	21	7	6	8
2087088	PROB	n/a	LTP207	ltpFR2	11	n/a	n/a	n/a	12	11	3	3	5
2088243	PROB	n/a	LTP207	ltpFR2	11	n/a	n/a	n/a	12	20	8	7	5
2090109	PROB	n/a	LTP207	ltpFR2	11	n/a	n/a	n/a	12	14	4	5	5
2091539	PROB	n/a	LTP207	ltpFR2	11	n/a	n/a	n/a	12	13	5	5	3
2092794	PROB	n/a	LTP207	ltpFR2	11	n/a	n/a	n/a	12	22	5	8	9
2095287	PROB	n/a	LTP207	ltpFR2	11	n/a	n/a	n/a	12	18	8	4	7
2097118	PROB	n/a	LTP207	ltpFR2	11	n/a	n/a	n/a	12	13	3	9	1
2098659	PROB	n/a	LTP207	ltpFR2	11	n/a	n/a	n/a	12	9	3	3	3
2099763	PROB	n/a	LTP207	ltpFR2	11	n/a	n/a	n/a	12	14	6	3	5
2101376	PROB	n/a	LTP207	ltpFR2	11	n/a	n/a	n/a	12	11	1	4	6
2102439	PROB	n/a	LTP207	ltpFR2	11	n/a	n/a	n/a	12	21	7	7	7
2106153	STOP	n/a	LTP207	ltpFR2	11	n/a	n/a	n/a	12	n/a	n/a	n/a	n/a
2107089	WORD	wordpools/wasnorm_wordpool_576.txt	LTP207	ltpFR2	11	10	STREAM	1392	n/a	n/a	0	0	0
2109557	WORD	wordpools/wasnorm_wordpool_576.txt	LTP207	ltpFR2	11	10	GAZELLE	628	n/a	n/a	0	0	0
2112041	WORD	wordpools/wasnorm_wordpool_576.txt	LTP207	ltpFR2	11	10	MUMMY	932	n/a	n/a	0	0	0
2114686	WORD	wordpools/wasnorm_wordpool_576.txt	LTP207	ltpFR2	11	10	PRIMATE	1123	n/a	n/a	0	0	0
2117211	WORD	wordpools/wasnorm_wordpool_576.txt	LTP207	ltpFR2	11	10	LUMBER	848	n/a	n/a	0	0	0
2119712	WORD	wordpools/wasnorm_wordpool_576.txt	LTP207	ltpFR2	11	10	SUNSET	1408	n/a	n/a	0	0	0
2122473	WORD	wordpools/wasnorm_wordpool_576.txt	LTP207	ltpFR2	11	10	SUNRISE	1407	n/a	n/a	0	0	0
2125031	WORD	wordpools/wasnorm_wordpool_576.txt	LTP207	ltpFR2	11	10	LAPEL	800	n/a	n/a	0	0	0
2127676	WORD	wordpools/wasnorm_wordpool_576.txt	LTP207	ltpFR2	11	10	MARKET	871	n/a	n/a	0	0	0
2130217	WORD	wordpools/wasnorm_wordpool_576.txt	LTP207	ltpFR2	11	10	DRUG	501	n/a	n/a	0	0	0
2132921	WORD	wordpools/wasnorm_wordpool_576.txt	LTP207	ltpFR2	11	10	BRANDY	169	n/a	n/a	0	0	0
2135656	WORD	wordpools/wasnorm_wordpool_576.txt	LTP207	ltpFR2	11	10	SODA	1341	n/a	n/a	0	0	0
2138248	WORD	wordpools/wasnorm_wordpool_576.txt	LTP207	ltpFR2	11	10	SLIDE	1326	n/a	n/a	0	0	0
2141051	WORD	wordpools/wasnorm_wordpool_576.txt	LTP207	ltpFR2	11	10	VALLEY	1545	n/a	n/a	0	0	0
2143519	WORD	wordpools/wasnorm_wordpool_576.txt	LTP207	ltpFR2	11	10	BRAKE	166	n/a	n/a	0	0	0
2146288	WORD	wordpools/wasnorm_wordpool_576.txt	LTP207	ltpFR2	11	10	DRIVER	499	n/a	n/a	0	0	0
2148755	WORD	wordpools/wasnorm_wordpool_576.txt	LTP207	ltpFR2	11	10	COOK	372	n/a	n/a	0	0	0
2151474	WORD	wordpools/wasnorm_wordpool_576.txt	LTP207	ltpFR2	11	10	CRITIC	410	n/a	n/a	0	0	0
2154292	WORD	wordpools/wasnorm_wordpool_576.txt	LTP207	ltpFR2	11	10	PISTON	1076	n/a	n/a	0	0	0
2156886	WORD	wordpools/wasnorm_wordpool_576.txt	LTP207	ltpFR2	11	10	BLACKBOARD	133	n/a	n/a	0	0	0
2159663	WORD	wordpools/wasnorm_wordpool_576.txt	LTP207	ltpFR2	11	10	BASEMENT	94	n/a	n/a	0	0	0
2162205	WORD	wordpools/wasnorm_wordpool_576.txt	LTP207	ltpFR2	11	10	GLOBE	641	n/a	n/a	0	0	0
2164899	WORD	wordpools/wasnorm_wordpool_576.txt	LTP207	ltpFR2	11	10	FILM	565	n/a	n/a	0	0	0
2167710	WORD	wordpools/wasnorm_wordpool_576.txt	LTP207	ltpFR2	11	10	TRENCH	1503	n/a	n/a	0	0	0
2169325	START	n/a	LTP207	ltpFR2	11	n/a	n/a	n/a	13	n/a	n/a	n/a	n/a
2170210	DISTRACTOR	n/a	LTP207	ltpFR2	11	10	n/a	n/a	n/a	n/a	0	0	0
2170227	PROB	n/a	LTP207	ltpFR2	11	n/a	n/a	n/a	13	15	2	4	9
2172209	PROB	n/a	LTP207	ltpFR2	11	n/a	n/a	n/a	13	7	3	2	2
2173599	PROB	n/a	LTP207	ltpFR2	11	n/a	n/a	n/a	13	17	5	5	7
2177120	PROB	n/a	LTP207	ltpFR2	11	n/a	n/a	n/a	13	13	5	1	7
2179135	PROB	n/a	LTP207	ltpFR2	11	n/a	n/a	n/a	13	15	7	3	5
2180651	PROB	n/a	LTP207	ltpFR2	11	n/a	n/a	n/a	13	9	1	1	7
2182122	PROB	n/a	LTP207	ltpFR2	11	n/a	n/a	n/a	13	14	5	3	6
2184607	PROB	n/a	LTP207	ltpFR2	11	n/a	n/a	n/a	13	12	4	2	6
2187091	PROB	n/a	LTP207	ltpFR2	11	n/a	n/a	n/a	13	6	1	2	3
2188715	PROB	n/a	LTP207	ltpFR2	11	n/a	n/a	n/a	13	15	6	2	7
2190253	PROB	n/a	LTP207	ltpFR2	11	n/a	n/a	n/a	13	14	5	1	8
2191850	STOP	n/a	LTP207	ltpFR2	11	n/a	n/a	n/a	13	n/a	n/a	n/a	n/a
2195113	REC_START	n/a	LTP207	ltpFR2	11	10	n/a	n/a	n/a	n/a	0	0	0
2205896	REC_WORD	wordpools/wasnorm_wordpool_576.txt	LTP207	ltpFR2	11	10	STREAM	1392	n/a	n/a	0	0	0
2207150	REC_WORD	wordpools/wasnorm_wordpool_576.txt	LTP207	ltpFR2	11	10	GAZELLE	628	n/a	n/a	0	0	0
2208967	REC_WORD	wordpools/wasnorm_wordpool_576.txt	LTP207	ltpFR2	11	10	PRIMATE	1123	n/a	n/a	0	0	0
2210211	REC_WORD	wordpools/wasnorm_wordpool_576.txt	LTP207	ltpFR2	11	10	LUMBER	848	n/a	n/a	0	0	0
2211688	REC_WORD	wordpools/wasnorm_wordpool_576.txt	LTP207	ltpFR2	11	10	LAPEL	800	n/a	n/a	0	0	0
2214177	REC_WORD	wordpools/wasnorm_wordpool_576.txt	LTP207	ltpFR2	11	10	MARKET	871	n/a	n/a	0	0	0
2215778	REC_WORD	wordpools/wasnorm_wordpool_576.txt	LTP207	ltpFR2	11	10	SUNRISE	1407	n/a	n/a	0	0	0
2216778	REC_WORD_VV	wordpools/wasnorm_wordpool_576.txt	LTP207	ltpFR2	11	10	<>	-1	n/a	n/a	0	0	0
2217383	REC_WORD	wordpools/wasnorm_wordpool_576.txt	LTP207	ltpFR2	11	10	SUNSET	1408	n/a	n/a	0	0	0
2223763	REC_WORD	wordpools/wasnorm_wordpool_576.txt	LTP207	ltpFR2	11	10	DRUG	501	n/a	n/a	0	0	0
2227594	REC_WORD	wordpools/wasnorm_wordpool_576.txt	LTP207	ltpFR2	11	10	BRANDY	169	n/a	n/a	0	0	0
2286256	WORD	wordpools/wasnorm_wordpool_576.txt	LTP207	ltpFR2	11	11	BREAST	171	n/a	n/a	0	0	0
2288749	WORD	wordpools/wasnorm_wordpool_576.txt	LTP207	ltpFR2	11	11	JUGGLER	763	n/a	n/a	0	0	0
2291493	WORD	wordpools/wasnorm_wordpool_576.txt	LTP207	ltpFR2	11	11	PARTNER	1017	n/a	n/a	0	0	0
2294068	WORD	wordpools/wasnorm_wordpool_576.txt	LTP207	ltpFR2	11	11	WHISKERS	1605	n/a	n/a	0	0	0
2296554	WORD	wordpools/wasnorm_wordpool_576.txt	LTP207	ltpFR2	11	11	MAILMAN	858	n/a	n/a	0	0	0
2299254	WORD	wordpools/wasnorm_wordpool_576.txt	LTP207	ltpFR2	11	11	CLAM	315	n/a	n/a	0	0	0
2301990	WORD	wordpools/wasnorm_wordpool_576.txt	LTP207	ltpFR2	11	11	MARINE	869	n/a	n/a	0	0	0
2304642	WORD	wordpools/wasnorm_wordpool_576.txt	LTP207	ltpFR2	11	11	SPOOL	1356	n/a	n/a	0	0	0
2307328	WORD	wordpools/wasnorm_wordpool_576.txt	LTP207	ltpFR2	11	11	BACKBONE	66	n/a	n/a	0	0	0
2309788	WORD	wordpools/wasnorm_wordpool_576.txt	LTP207	ltpFR2	11	11	BOUQUET	157	n/a	n/a	0	0	0
2312431	WORD	wordpools/wasnorm_wordpool_576.txt	LTP207	ltpFR2	11	11	PIGMENT	1066	n/a	n/a	0	0	0
2315056	WORD	wordpools/wasnorm_wordpool_576.txt	LTP207	ltpFR2	11	11	ELBOW	520	n/a	n/a	0	0	0
2317684	WORD	wordpools/wasnorm_wordpool_576.txt	LTP207	ltpFR2	11	11	ANKLE	24	n/a	n/a	0	0	0
2320167	WORD	wordpools/wasnorm_wordpool_576.txt	LTP207	ltpFR2	11	11	CASKET	255	n/a	n/a	0	0	0
2322694	WORD	wordpools/wasnorm_wordpool_576.txt	LTP207	ltpFR2	11	11	TOMBSTONE	1478	n/a	n/a	0	0	0
2325337	WORD	wordpools/wasnorm_wordpool_576.txt	LTP207	ltpFR2	11	11	FRAME	600	n/a	n/a	0	0	0
2328163	WORD	wordpools/wasnorm_wordpool_576.txt	LTP207	ltpFR2	11	11	RIFLE	1192	n/a	n/a	0	0	0
2330599	WORD	wordpools/wasnorm_wordpool_576.txt	LTP207	ltpFR2	11	11	RACKET	1155	n/a	n/a	0	0	0
2333208	WORD	wordpools/wasnorm_wordpool_576.txt	LTP207	ltpFR2	11	11	THREAD	1460	n/a	n/a	0	0	0
2335726	WORD	wordpools/wasnorm_wordpool_576.txt	LTP207	ltpFR2	11	11	SILK	1307	n/a	n/a	0	0	0
2338328	WORD	wordpools/wasnorm_wordpool_576.txt	LTP207	ltpFR2	11	11	YACHT	1629	n/a	n/a	0	0	0
2340855	WORD	wordpools/wasnorm_wordpool_576.txt	LTP207	ltpFR2	11	11	DIME	466	n/a	n/a	0	0	0
2343665	WORD	wordpools/wasnorm_wordpool_576.txt	LTP207	ltpFR2	11	11	VELVET	1555	n/a	n/a	0	0	0
2346476	WORD	wordpools/wasnorm_wordpool_576.txt	LTP207	ltpFR2	11	11	STAPLE	1371	n/a	n/a	0	0	0
2348089	START	n/a	LTP207	ltpFR2	11	n/a	n/a	n/a	14	n/a	n/a	n/a	n/a
2349191	DISTRACTOR	n/a	LTP207	ltpFR2	11	11	n/a	n/a	n/a	n/a	0	0	0
2349209	PROB	n/a	LTP207	ltpFR2	11	n/a	n/a	n/a	14	12	7	3	2
2352070	PROB	n/a	LTP207	ltpFR2	11	n/a	n/a	n/a	14	15	4	8	3
2353636	PROB	n/a	LTP207	ltpFR2	11	n/a	n/a	n/a	14	12	6	5	1
2354698	PROB	n/a	LTP207	ltpFR2	11	n/a	n/a	n/a	14	25	7	8	8
2356505	PROB	n/a	LTP207	ltpFR2	11	n/a	n/a	n/a	14	9	3	5	1
2357969	PROB	n/a	LTP207	ltpFR2	11	n/a	n/a	n/a	14	9	2	3	4
2360804	PROB	n/a	LTP207	ltpFR2	11	n/a	n/a	n/a	14	10	6	2	2
2361967	PROB	n/a	LTP207	ltpFR2	11	n/a	n/a	n/a	14	14	9	1	4
2363698	PROB	n/a	LTP207	ltpFR2	11	n/a	n/a	n/a	14	11	1	7	3
2364761	PROB	n/a	LTP207	ltpFR2	11	n/a	n/a	n/a	14	20	8	8	4
2366182	PROB	n/a	LTP207	ltpFR2	11	n/a	n/a	n/a	14	16	8	1	7
2367338	PROB	n/a	LTP207	ltpFR2	11	n/a	n/a	n/a	14	15	1	9	5
2368717	PROB	n/a	LTP207	ltpFR2	11	n/a	n/a	n/a	14	18	5	5	8
2369838	PROB	n/a	LTP207	ltpFR2	11	n/a	n/a	n/a	14	11	1	7	3
2371610	STOP	n/a	LTP207	ltpFR2	11	n/a	n/a	n/a	14	n/a	n/a	n/a	n/a
2373863	REC_START	n/a	LTP207	ltpFR2	11	11	n/a	n/a	n/a	n/a	0	0	0
2378651	REC_WORD	wordpools/wasnorm_wordpool_576.txt	LTP207	ltpFR2	11	11	TOMBSTONE	1478	n/a	n/a	0	0	0
2380774	REC_WORD	wordpools/wasnorm_wordpool_576.txt	LTP207	ltpFR2	11	11	CASKET	255	n/a	n/a	0	0	0
2388955	REC_WORD_VV	wordpools/wasnorm_wordpool_576.txt	LTP207	ltpFR2	11	11	<>	-1	n/a	n/a	0	0	0
2409258	REC_WORD	wordpools/wasnorm_wordpool_576.txt	LTP207	ltpFR2	11	11	BOUQUET	157	n/a	n/a	0	0	0
2443750	REC_WORD	wordpools/wasnorm_wordpool_576.txt	LTP207	ltpFR2	11	11	SPOOL	1356	n/a	n/a	0	0	0
2464956	DISTRACTOR	n/a	LTP207	ltpFR2	11	12	n/a	n/a	n/a	n/a	0	0	0
2464956	START	n/a	LTP207	ltpFR2	11	n/a	n/a	n/a	15	n/a	n/a	n/a	n/a
2465005	PROB	n/a	LTP207	ltpFR2	11	n/a	n/a	n/a	15	13	5	6	2
2466512	PROB	n/a	LTP207	ltpFR2	11	n/a	n/a	n/a	15	21	9	6	6
2468091	PROB	n/a	LTP207	ltpFR2	11	n/a	n/a	n/a	15	15	4	8	3
2469447	PROB	n/a	LTP207	ltpFR2	11	n/a	n/a	n/a	15	19	5	8	6
2470845	PROB	n/a	LTP207	ltpFR2	11	n/a	n/a	n/a	15	10	1	3	6
2471865	PROB	n/a	LTP207	ltpFR2	11	n/a	n/a	n/a	15	14	9	3	2
2473035	PROB	n/a	LTP207	ltpFR2	11	n/a	n/a	n/a	15	14	9	4	1
2474130	PROB	n/a	LTP207	ltpFR2	11	n/a	n/a	n/a	15	19	6	6	7
2475302	PROB	n/a	LTP207	ltpFR2	11	n/a	n/a	n/a	15	18	5	7	6
2476925	PROB	n/a	LTP207	ltpFR2	11	n/a	n/a	n/a	15	11	2	7	2
2478238	PROB	n/a	LTP207	ltpFR2	11	n/a	n/a	n/a	15	22	9	5	8
2480522	PROB	n/a	LTP207	ltpFR2	11	n/a	n/a	n/a	15	13	8	2	3
2481911	PROB	n/a	LTP207	ltpFR2	11	n/a	n/a	n/a	15	12	5	1	6
2483164	PROB	n/a	LTP207	ltpFR2	11	n/a	n/a	n/a	15	10	2	1	7
2485474	PROB	n/a	LTP207	ltpFR2	11	n/a	n/a	n/a	15	16	3	6	7
2488041	STOP	n/a	LTP207	ltpFR2	11	n/a	n/a	n/a	15	n/a	n/a	n/a	n/a
2489933	WORD	wordpools/wasnorm_wordpool_576.txt	LTP207	ltpFR2	11	12	BLADE	134	n/a	n/a	0	0	0
2492727	WORD	wordpools/wasnorm_wordpool_576.txt	LTP207	ltpFR2	11	12	TYPIST	1532	n/a	n/a	0	0	0
2495328	WORD	wordpools/wasnorm_wordpool_576.txt	LTP207	ltpFR2	11	12	FIDDLE	561	n/a	n/a	0	0	0
2497829	WORD	wordpools/wasnorm_wordpool_576.txt	LTP207	ltpFR2	11	12	TUBA	1515	n/a	n/a	0	0	0
2500306	WORD	wordpools/wasnorm_wordpool_576.txt	LTP207	ltpFR2	11	12	FOOTBALL	591	n/a	n/a	0	0	0
2503048	WORD	wordpools/wasnorm_wordpool_576.txt	LTP207	ltpFR2	11	12	SHARK	1275	n/a	n/a	0	0	0
2505592	WORD	wordpools/wasnorm_wordpool_576.txt	LTP207	ltpFR2	11	12	PASTA	1021	n/a	n/a	0	0	0
2508209	WORD	wordpools/wasnorm_wordpool_576.txt	LTP207	ltpFR2	11	12	SWORD	1423	n/a	n/a	0	0	0
2510719	WORD	wordpools/wasnorm_wordpool_576.txt	LTP207	ltpFR2	11	12	ARMY	39	n/a	n/a	0	0	0
2513305	WORD	wordpools/wasnorm_wordpool_576.txt	LTP207	ltpFR2	11	12	DOLPHIN	483	n/a	n/a	0	0	0
2515831	WORD	wordpools/wasnorm_wordpool_576.txt	LTP207	ltpFR2	11	12	TROUT	1511	n/a	n/a	0	0	0
2518307	WORD	wordpools/wasnorm_wordpool_576.txt	LTP207	ltpFR2	11	12	BOYFRIEND	162	n/a	n/a	0	0	0
2520982	WORD	wordpools/wasnorm_wordpool_576.txt	LTP207	ltpFR2	11	12	RECORD	1176	n/a	n/a	0	0	0
2523752	WORD	wordpools/wasnorm_wordpool_576.txt	LTP207	ltpFR2	11	12	BINDER	127	n/a	n/a	0	0	0
2526529	WORD	wordpools/wasnorm_wordpool_576.txt	LTP207	ltpFR2	11	12	SHOVEL	1295	n/a	n/a	0	0	0
2529356	WORD	wordpools/wasnorm_wordpool_576.txt	LTP207	ltpFR2	11	12	DUST	508	n/a	n/a	0	0	0
2532175	WORD	wordpools/wasnorm_wordpool_576.txt	LTP207	ltpFR2	11	12	BANQUET	86	n/a	n/a	0	0	0
2534802	WORD	wordpools/wasnorm_wordpool_576.txt	LTP207	ltpFR2	11	12	DONKEY	484	n/a	n/a	0	0	0
2537227	WORD	wordpools/wasnorm_wordpool_576.txt	LTP207	ltpFR2	11	12	BUCKET	184	n/a	n/a	0	0	0
2539912	WORD	wordpools/wasnorm_wordpool_576.txt	LTP207	ltpFR2	11	12	ISLAND	745	n/a	n/a	0	0	0
2542372	WORD	wordpools/wasnorm_wordpool_576.txt	LTP207	ltpFR2	11	12	CRUTCH	417	n/a	n/a	0	0	0
2545148	WORD	wordpools/wasnorm_wordpool_576.txt	LTP207	ltpFR2	11	12	DAISY	435	n/a	n/a	0	0	0
2547959	WORD	wordpools/wasnorm_wordpool_576.txt	LTP207	ltpFR2	11	12	SNAIL	1332	n/a	n/a	0	0	0
2550402	WORD	wordpools/wasnorm_wordpool_576.txt	LTP207	ltpFR2	11	12	SWAMP	1416	n/a	n/a	0	0	0
2552016	START	n/a	LTP207	ltpFR2	11	n/a	n/a	n/a	16	n/a	n/a	n/a	n/a
2552942	DISTRACTOR	n/a	LTP207	ltpFR2	11	12	n/a	n/a	n/a	n/a	0	0	0
2552954	PROB	n/a	LTP207	ltpFR2	11	n/a	n/a	n/a	16	14	4	7	3
2554644	PROB	n/a	LTP207	ltpFR2	11	n/a	n/a	n/a	16	20	4	8	8
2555973	PROB	n/a	LTP207	ltpFR2	11	n/a	n/a	n/a	16	14	5	3	6
2557579	PROB	n/a	LTP207	ltpFR2	11	n/a	n/a	n/a	16	9	3	1	5
2559143	PROB	n/a	LTP207	ltpFR2	11	n/a	n/a	n/a	16	15	4	7	4
2560566	PROB	n/a	LTP207	ltpFR2	11	n/a	n/a	n/a	16	18	2	7	9
2561821	PROB	n/a	LTP207	ltpFR2	11	n/a	n/a	n/a	16	17	5	5	7
2563108	PROB	n/a	LTP207	ltpFR2	11	n/a	n/a	n/a	16	11	7	1	3
2564606	PROB	n/a	LTP207	ltpFR2	11	n/a	n/a	n/a	16	6	2	3	1
2565819	PROB	n/a	LTP207	ltpFR2	11	n/a	n/a	n/a	16	17	7	1	9
2568026	PROB	n/a	LTP207	ltpFR2	11	n/a	n/a	n/a	16	14	7	3	4
2569366	PROB	n/a	LTP207	ltpFR2	11	n/a	n/a	n/a	16	15	1	7	7
2570695	PROB	n/a	LTP207	ltpFR2	11	n/a	n/a	n/a	16	10	4	4	2
2572511	PROB	n/a	LTP207	ltpFR2	11	n/a	n/a	n/a	16	20	6	8	6
2573799	PROB	n/a	LTP207	ltpFR2	11	n/a	n/a	n/a	16	8	2	4	2
2575722	STOP	n/a	LTP207	ltpFR2	11	n/a	n/a	n/a	16	n/a	n/a	n/a	n/a
2577940	REC_START	n/a	LTP207	ltpFR2	11	12	n/a	n/a	n/a	n/a	0	0	0
2580079	REC_WORD	wordpools/wasnorm_wordpool_576.txt	LTP207	ltpFR2	11	12	BOYFRIEND	162	n/a	n/a	0	0	0
2581738	REC_WORD	wordpools/wasnorm_wordpool_576.txt	LTP207	ltpFR2	11	12	RECORD	1176	n/a	n/a	0	0	0
2583720	REC_WORD	wordpools/wasnorm_wordpool_576.txt	LTP207	ltpFR2	11	12	TROUT	1511	n/a	n/a	0	0	0
2669015	DISTRACTOR	n/a	LTP207	ltpFR2	11	13	n/a	n/a	n/a	n/a	0	0	0
2669015	START	n/a	LTP207	ltpFR2	11	n/a	n/a	n/a	17	n/a	n/a	n/a	n/a
2669065	PROB	n/a	LTP207	ltpFR2	11	n/a	n/a	n/a	17	11	7	1	3
2670789	PROB	n/a	LTP207	ltpFR2	11	n/a	n/a	n/a	17	15	9	5	1
2671977	PROB	n/a	LTP207	ltpFR2	11	n/a	n/a	n/a	17	17	4	9	4
2673466	PROB	n/a	LTP207	ltpFR2	11	n/a	n/a	n/a	17	17	4	4	9
2674780	PROB	n/a	LTP207	ltpFR2	11	n/a	n/a	n/a	17	11	8	2	1
2675741	PROB	n/a	LTP207	ltpFR2	11	n/a	n/a	n/a	17	15	8	2	5
2676711	PROB	n/a	LTP207	ltpFR2	11	n/a	n/a	n/a	17	18	6	5	7
2678360	PROB	n/a	LTP207	ltpFR2	11	n/a	n/a	n/a	17	14	1	9	4
2679639	PROB	n/a	LTP207	ltpFR2	11	n/a	n/a	n/a	17	23	7	8	8
2681177	PROB	n/a	LTP207	ltpFR2	11	n/a	n/a	n/a	17	18	8	2	8
2684390	PROB	n/a	LTP207	ltpFR2	11	n/a	n/a	n/a	17	8	2	2	4
2685444	PROB	n/a	LTP207	ltpFR2	11	n/a	n/a	n/a	17	16	7	6	5
2686842	PROB	n/a	LTP207	ltpFR2	11	n/a	n/a	n/a	17	11	4	4	3
2689460	PROB	n/a	LTP207	ltpFR2	11	n/a	n/a	n/a	17	22	5	9	8
2690773	PROB	n/a	LTP207	ltpFR2	11	n/a	n/a	n/a	17	12	1	3	8
2691866	STOP	n/a	LTP207	ltpFR2	11	n/a	n/a	n/a	17	n/a	n/a	n/a	n/a
2694026	WORD	wordpools/wasnorm_wordpool_576.txt	LTP207	ltpFR2	11	13	CLOCK	325	n/a	n/a	0	0	0
2696703	WORD	wordpools/wasnorm_wordpool_576.txt	LTP207	ltpFR2	11	13	LETTUCE	814	n/a	n/a	0	0	0
2699245	WORD	wordpools/wasnorm_wordpool_576.txt	LTP207	ltpFR2	11	13	APPLE	33	n/a	n/a	0	0	0
2701949	WORD	wordpools/wasnorm_wordpool_576.txt	LTP207	ltpFR2	11	13	LACE	792	n/a	n/a	0	0	0
2704626	WORD	wordpools/wasnorm_wordpool_576.txt	LTP207	ltpFR2	11	13	PALACE	1006	n/a	n/a	0	0	0
2707092	WORD	wordpools/wasnorm_wordpool_576.txt	LTP207	ltpFR2	11	13	SEAL	1262	n/a	n/a	0	0	0
2709895	WORD	wordpools/wasnorm_wordpool_576.txt	LTP207	ltpFR2	11	13	ATLAS	53	n/a	n/a	0	0	0
2712563	WORD	wordpools/wasnorm_wordpool_576.txt	LTP207	ltpFR2	11	13	SHORTS	1293	n/a	n/a	0	0	0
2715349	WORD	wordpools/wasnorm_wordpool_576.txt	LTP207	ltpFR2	11	13	SHIRT	1287	n/a	n/a	0	0	0
2718150	WORD	wordpools/wasnorm_wordpool_576.txt	LTP207	ltpFR2	11	13	NEUTRON	947	n/a	n/a	0	0	0
2720761	WORD	wordpools/wasnorm_wordpool_576.txt	LTP207	ltpFR2	11	13	CLOTHES	327	n/a	n/a	0	0	0
2723571	WORD	wordpools/wasnorm_wordpool_576.txt	LTP207	ltpFR2	11	13	PUPPY	1144	n/a	n/a	0	0	0
2726163	WORD	wordpools/wasnorm_wordpool_576.txt	LTP207	ltpFR2	11	13	BIKE	125	n/a	n/a	0	0	0
2728640	WORD	wordpools/wasnorm_wordpool_576.txt	LTP207	ltpFR2	11	13	TROMBONE	1508	n/a	n/a	0	0	0
2731283	WORD	wordpools/wasnorm_wordpool_576.txt	LTP207	ltpFR2	11	13	GALLON	618	n/a	n/a	0	0	0
2734077	WORD	wordpools/wasnorm_wordpool_576.txt	LTP207	ltpFR2	11	13	ACTRESS	6	n/a	n/a	0	0	0
2736570	WORD	wordpools/wasnorm_wordpool_576.txt	LTP207	ltpFR2	11	13	HELMET	702	n/a	n/a	0	0	0
2739205	WORD	wordpools/wasnorm_wordpool_576.txt	LTP207	ltpFR2	11	13	GANGSTER	620	n/a	n/a	0	0	0
2741773	WORD	wordpools/wasnorm_wordpool_576.txt	LTP207	ltpFR2	11	13	STAMP	1370	n/a	n/a	0	0	0
2744292	WORD	wordpools/wasnorm_wordpool_576.txt	LTP207	ltpFR2	11	13	PADDING	999	n/a	n/a	0	0	0
2747001	WORD	wordpools/wasnorm_wordpool_576.txt	LTP207	ltpFR2	11	13	TABLE	1426	n/a	n/a	0	0	0
2749779	WORD	wordpools/wasnorm_wordpool_576.txt	LTP207	ltpFR2	11	13	DENTIST	447	n/a	n/a	0	0	0
2752363	WORD	wordpools/wasnorm_wordpool_576.txt	LTP207	ltpFR2	11	13	HOOK	715	n/a	n/a	0	0	0
2755115	WORD	wordpools/wasnorm_wordpool_576.txt	LTP207	ltpFR2	11	13	FLEET	578	n/a	n/a	0	0	0
2756730	START	n/a	LTP207	ltpFR2	11	n/a	n/a	n/a	18	n/a	n/a	n/a	n/a
2757758	DISTRACTOR	n/a	LTP207	ltpFR2	11	13	n/a	n/a	n/a	n/a	0	0	0
2757776	PROB	n/a	LTP207	ltpFR2	11	n/a	n/a	n/a	18	13	2	8	3
2759104	PROB	n/a	LTP207	ltpFR2	11	n/a	n/a	n/a	18	10	2	7	1
2760352	PROB	n/a	LTP207	ltpFR2	11	n/a	n/a	n/a	18	16	1	6	9
2761741	PROB	n/a	LTP207	ltpFR2	11	n/a	n/a	n/a	18	21	9	8	4
2763095	PROB	n/a	LTP207	ltpFR2	11	n/a	n/a	n/a	18	18	5	4	9
2764291	PROB	n/a	LTP207	ltpFR2	11	n/a	n/a	n/a	18	12	4	7	1
2765756	PROB	n/a	LTP207	ltpFR2	11	n/a	n/a	n/a	18	15	5	3	7
2767001	PROB	n/a	LTP207	ltpFR2	11	n/a	n/a	n/a	18	18	5	8	5
2768433	PROB	n/a	LTP207	ltpFR2	11	n/a	n/a	n/a	18	12	9	1	2
2769687	PROB	n/a	LTP207	ltpFR2	11	n/a	n/a	n/a	18	18	9	5	4
2771226	PROB	n/a	LTP207	ltpFR2	11	n/a	n/a	n/a	18	17	3	8	6
2773099	PROB	n/a	LTP207	ltpFR2	11	n/a	n/a	n/a	18	22	7	7	8
2774346	PROB	n/a	LTP207	ltpFR2	11	n/a	n/a	n/a	18	21	5	9	7
2775885	PROB	n/a	LTP207	ltpFR2	11	n/a	n/a	n/a	18	7	1	3	3
2777374	PROB	n/a	LTP207	ltpFR2	11	n/a	n/a	n/a	18	15	9	2	4
2778671	PROB	n/a	LTP207	ltpFR2	11	n/a	n/a	n/a	18	14	6	2	6
2779970	STOP	n/a	LTP207	ltpFR2	11	n/a	n/a	n/a	18	n/a	n/a	n/a	n/a
2782620	REC_START	n/a	LTP207	ltpFR2	11	13	n/a	n/a	n/a	n/a	0	0	0
2784300	REC_WORD	wordpools/wasnorm_wordpool_576.txt	LTP207	ltpFR2	11	13	FLEET	578	n/a	n/a	0	0	0
2786249	REC_WORD	wordpools/wasnorm_wordpool_576.txt	LTP207	ltpFR2	11	13	ATLAS	53	n/a	n/a	0	0	0
2788036	REC_WORD	wordpools/wasnorm_wordpool_576.txt	LTP207	ltpFR2	11	13	SEAL	1262	n/a	n/a	0	0	0
2789887	REC_WORD	wordpools/wasnorm_wordpool_576.txt	LTP207	ltpFR2	11	13	PALACE	1006	n/a	n/a	0	0	0
2791801	REC_WORD	wordpools/wasnorm_wordpool_576.txt	LTP207	ltpFR2	11	13	CLOCK	325	n/a	n/a	0	0	0
2793528	REC_WORD	wordpools/wasnorm_wordpool_576.txt	LTP207	ltpFR2	11	13	LETTUCE	814	n/a	n/a	0	0	0
2795238	REC_WORD	wordpools/wasnorm_wordpool_576.txt	LTP207	ltpFR2	11	13	APPLE	33	n/a	n/a	0	0	0
2797523	REC_WORD	wordpools/wasnorm_wordpool_576.txt	LTP207	ltpFR2	11	13	SHIRT	1287	n/a	n/a	0	0	0
2799124	REC_WORD	wordpools/wasnorm_wordpool_576.txt	LTP207	ltpFR2	11	13	SHORTS	1293	n/a	n/a	0	0	0
2873796	WORD	wordpools/wasnorm_wordpool_576.txt	LTP207	ltpFR2	11	14	BACON	67	n/a	n/a	0	0	0
2876531	WORD	wordpools/wasnorm_wordpool_576.txt	LTP207	ltpFR2	11	14	HUMAN	726	n/a	n/a	0	0	0
2879317	WORD	wordpools/wasnorm_wordpool_576.txt	LTP207	ltpFR2	11	14	WIFE	1609	n/a	n/a	0	0	0
2882001	WORD	wordpools/wasnorm_wordpool_576.txt	LTP207	ltpFR2	11	14	STUDENT	1395	n/a	n/a	0	0	0
2884829	WORD	wordpools/wasnorm_wordpool_576.txt	LTP207	ltpFR2	11	14	COLLEGE	346	n/a	n/a	0	0	0
2887573	WORD	wordpools/wasnorm_wordpool_576.txt	LTP207	ltpFR2	11	14	LUGGAGE	847	n/a	n/a	0	0	0
2890065	WORD	wordpools/wasnorm_wordpool_576.txt	LTP207	ltpFR2	11	14	TUTU	1524	n/a	n/a	0	0	0
2892558	WORD	wordpools/wasnorm_wordpool_576.txt	LTP207	ltpFR2	11	14	LAKE	796	n/a	n/a	0	0	0
2895276	WORD	wordpools/wasnorm_wordpool_576.txt	LTP207	ltpFR2	11	14	PUPIL	1143	n/a	n/a	0	0	0
2897728	WORD	wordpools/wasnorm_wordpool_576.txt	LTP207	ltpFR2	11	14	RUG	1215	n/a	n/a	0	0	0
2900338	WORD	wordpools/wasnorm_wordpool_576.txt	LTP207	ltpFR2	11	14	PEANUT	1032	n/a	n/a	0	0	0
2902864	WORD	wordpools/wasnorm_wordpool_576.txt	LTP207	ltpFR2	11	14	RECEIPT	1173	n/a	n/a	0	0	0
2905349	WORD	wordpools/wasnorm_wordpool_576.txt	LTP207	ltpFR2	11	14	AGENT	10	n/a	n/a	0	0	0
2908099	WORD	wordpools/wasnorm_wordpool_576.txt	LTP207	ltpFR2	11	14	CEILING	265	n/a	n/a	0	0	0
2910669	WORD	wordpools/wasnorm_wordpool_576.txt	LTP207	ltpFR2	11	14	BRIEFCASE	175	n/a	n/a	0	0	0
2913487	WORD	wordpools/wasnorm_wordpool_576.txt	LTP207	ltpFR2	11	14	COMPASS	358	n/a	n/a	0	0	0
2916196	WORD	wordpools/wasnorm_wordpool_576.txt	LTP207	ltpFR2	11	14	SLOPE	1328	n/a	n/a	0	0	0
2918900	WORD	wordpools/wasnorm_wordpool_576.txt	LTP207	ltpFR2	11	14	BUNNY	198	n/a	n/a	0	0	0
2921534	WORD	wordpools/wasnorm_wordpool_576.txt	LTP207	ltpFR2	11	14	CARROT	249	n/a	n/a	0	0	0
2924143	WORD	wordpools/wasnorm_wordpool_576.txt	LTP207	ltpFR2	11	14	BROOK	177	n/a	n/a	0	0	0
2926770	WORD	wordpools/wasnorm_wordpool_576.txt	LTP207	ltpFR2	11	14	DONOR	485	n/a	n/a	0	0	0
2929490	WORD	wordpools/wasnorm_wordpool_576.txt	LTP207	ltpFR2	11	14	COURSE	390	n/a	n/a	0	0	0
2931966	WORD	wordpools/wasnorm_wordpool_576.txt	LTP207	ltpFR2	11	14	PEBBLE	1035	n/a	n/a	0	0	0
2934483	WORD	wordpools/wasnorm_wordpool_576.txt	LTP207	ltpFR2	11	14	ROOSTER	1209	n/a	n/a	0	0	0
2936097	START	n/a	LTP207	ltpFR2	11	n/a	n/a	n/a	19	n/a	n/a	n/a	n/a
2937189	DISTRACTOR	n/a	LTP207	ltpFR2	11	14	n/a	n/a	n/a	n/a	0	0	0
2937201	PROB	n/a	LTP207	ltpFR2	11	n/a	n/a	n/a	19	143	4	8	2
2940916	PROB	n/a	LTP207	ltpFR2	11	n/a	n/a	n/a	19	10	4	5	1
2942413	PROB	n/a	LTP207	ltpFR2	11	n/a	n/a	n/a	19	22	8	7	7
2944537	PROB	n/a	LTP207	ltpFR2	11	n/a	n/a	n/a	19	16	7	6	3
2946260	PROB	n/a	LTP207	ltpFR2	11	n/a	n/a	n/a	19	25	9	8	8
2947809	PROB	n/a	LTP207	ltpFR2	11	n/a	n/a	n/a	19	13	6	2	5
2949221	PROB	n/a	LTP207	ltpFR2	11	n/a	n/a	n/a	19	20	9	5	6
2951748	PROB	n/a	LTP207	ltpFR2	11	n/a	n/a	n/a	19	21	6	9	6
2953178	PROB	n/a	LTP207	ltpFR2	11	n/a	n/a	n/a	19	20	4	7	9
2954475	PROB	n/a	LTP207	ltpFR2	11	n/a	n/a	n/a	19	13	3	2	8
2956130	PROB	n/a	LTP207	ltpFR2	11	n/a	n/a	n/a	19	23	7	9	7
2957520	PROB	n/a	LTP207	ltpFR2	11	n/a	n/a	n/a	19	9	2	5	2
2959065	STOP	n/a	LTP207	ltpFR2	11	n/a	n/a	n/a	19	n/a	n/a	n/a	n/a
2961853	REC_START	n/a	LTP207	ltpFR2	11	14	n/a	n/a	n/a	n/a	0	0	0
2992179	REC_WORD_VV	wordpools/wasnorm_wordpool_576.txt	LTP207	ltpFR2	11	14	<>	-1	n/a	n/a	0	0	0
2993179	REC_WORD_VV	wordpools/wasnorm_wordpool_576.txt	LTP207	ltpFR2	11	14	<>	-1	n/a	n/a	0	0	0
2994179	REC_WORD_VV	wordpools/wasnorm_wordpool_576.txt	LTP207	ltpFR2	11	14	<>	-1	n/a	n/a	0	0	0
3032627	REC_WORD	wordpools/wasnorm_wordpool_576.txt	LTP207	ltpFR2	11	14	ROD	1203	n/a	n/a	0	0	0
3052963	WORD	wordpools/wasnorm_wordpool_576.txt	LTP207	ltpFR2	11	15	FLUTE	585	n/a	n/a	0	0	0
3055665	WORD	wordpools/wasnorm_wordpool_576.txt	LTP207	ltpFR2	11	15	LADDER	793	n/a	n/a	0	0	0
3058114	WORD	wordpools/wasnorm_wordpool_576.txt	LTP207	ltpFR2	11	15	LOVER	846	n/a	n/a	0	0	0
3060751	WORD	wordpools/wasnorm_wordpool_576.txt	LTP207	ltpFR2	11	15	MISSILE	900	n/a	n/a	0	0	0
3063327	WORD	wordpools/wasnorm_wordpool_576.txt	LTP207	ltpFR2	11	15	SPOUSE	1358	n/a	n/a	0	0	0
3066078	WORD	wordpools/wasnorm_wordpool_576.txt	LTP207	ltpFR2	11	15	HORSE	719	n/a	n/a	0	0	0
3068806	WORD	wordpools/wasnorm_wordpool_576.txt	LTP207	ltpFR2	11	15	BODY	145	n/a	n/a	0	0	0
3071542	WORD	wordpools/wasnorm_wordpool_576.txt	LTP207	ltpFR2	11	15	LEADER	807	n/a	n/a	0	0	0
3074201	WORD	wordpools/wasnorm_wordpool_576.txt	LTP207	ltpFR2	11	15	BANK	83	n/a	n/a	0	0	0
3077028	WORD	wordpools/wasnorm_wordpool_576.txt	LTP207	ltpFR2	11	15	GIFT	635	n/a	n/a	0	0	0
3079814	WORD	wordpools/wasnorm_wordpool_576.txt	LTP207	ltpFR2	11	15	THRONE	1461	n/a	n/a	0	0	0
3082440	WORD	wordpools/wasnorm_wordpool_576.txt	LTP207	ltpFR2	11	15	SKILLET	1317	n/a	n/a	0	0	0
3085250	WORD	wordpools/wasnorm_wordpool_576.txt	LTP207	ltpFR2	11	15	YOLK	1633	n/a	n/a	0	0	0
3087777	WORD	wordpools/wasnorm_wordpool_576.txt	LTP207	ltpFR2	11	15	PLASTER	1085	n/a	n/a	0	0	0
3090487	WORD	wordpools/wasnorm_wordpool_576.txt	LTP207	ltpFR2	11	15	LONDON	843	n/a	n/a	0	0	0
3092930	WORD	wordpools/wasnorm_wordpool_576.txt	LTP207	ltpFR2	11	15	FRUIT	610	n/a	n/a	0	0	0
3095566	WORD	wordpools/wasnorm_wordpool_576.txt	LTP207	ltpFR2	11	15	DOUGHNUT	490	n/a	n/a	0	0	0
3098199	WORD	wordpools/wasnorm_wordpool_576.txt	LTP207	ltpFR2	11	15	MAMMAL	861	n/a	n/a	0	0	0
3100743	WORD	wordpools/wasnorm_wordpool_576.txt	LTP207	ltpFR2	11	15	ROCKET	1202	n/a	n/a	0	0	0
3103562	WORD	wordpools/wasnorm_wordpool_576.txt	LTP207	ltpFR2	11	15	CELLAR	267	n/a	n/a	0	0	0
3106188	WORD	wordpools/wasnorm_wordpool_576.txt	LTP207	ltpFR2	11	15	KEEPER	769	n/a	n/a	0	0	0
3108765	WORD	wordpools/wasnorm_wordpool_576.txt	LTP207	ltpFR2	11	15	POLICE	1098	n/a	n/a	0	0	0
3111543	WORD	wordpools/wasnorm_wordpool_576.txt	LTP207	ltpFR2	11	15	QUEEN	1149	n/a	n/a	0	0	0
3114126	WORD	wordpools/wasnorm_wordpool_576.txt	LTP207	ltpFR2	11	15	FEMALE	559	n/a	n/a	0	0	0
3115742	START	n/a	LTP207	ltpFR2	11	n/a	n/a	n/a	20	n/a	n/a	n/a	n/a
3116664	DISTRACTOR	n/a	LTP207	ltpFR2	11	15	n/a	n/a	n/a	n/a	0	0	0
3116679	PROB	n/a	LTP207	ltpFR2	11	n/a	n/a	n/a	20	8	2	5	1
3118174	PROB	n/a	LTP207	ltpFR2	11	n/a	n/a	n/a	20	13	8	3	2
3121236	PROB	n/a	LTP207	ltpFR2	11	n/a	n/a	n/a	20	12	7	1	4
3122793	PROB	n/a	LTP207	ltpFR2	11	n/a	n/a	n/a	20	21	9	8	4
3124575	PROB	n/a	LTP207	ltpFR2	11	n/a	n/a	n/a	20	17	4	9	4
3126121	PROB	n/a	LTP207	ltpFR2	11	n/a	n/a	n/a	20	17	9	7	1
3127570	PROB	n/a	LTP207	ltpFR2	11	n/a	n/a	n/a	20	10	2	1	7
3128841	PROB	n/a	LTP207	ltpFR2	11	n/a	n/a	n/a	20	15	2	8	5
3130321	PROB	n/a	LTP207	ltpFR2	11	n/a	n/a	n/a	20	12	2	2	8
3131710	PROB	n/a	LTP207	ltpFR2	11	n/a	n/a	n/a	20	10	3	4	3
3133851	PROB	n/a	LTP207	ltpFR2	11	n/a	n/a	n/a	20	17	2	7	8
3135516	PROB	n/a	LTP207	ltpFR2	11	n/a	n/a	n/a	20	18	9	4	5
3137414	PROB	n/a	LTP207	ltpFR2	11	n/a	n/a	n/a	20	11	2	8	1
3138498	STOP	n/a	LTP207	ltpFR2	11	n/a	n/a	n/a	20	n/a	n/a	n/a	n/a
3141648	REC_START	n/a	LTP207	ltpFR2	11	15	n/a	n/a	n/a	n/a	0	0	0
3145275	REC_WORD	wordpools/wasnorm_wordpool_576.txt	LTP207	ltpFR2	11	15	FIDDLE	561	n/a	n/a	0	0	0
3154088	REC_WORD	wordpools/wasnorm_wordpool_576.txt	LTP207	ltpFR2	11	15	FLUTE	585	n/a	n/a	0	0	0
3155750	REC_WORD	wordpools/wasnorm_wordpool_576.txt	LTP207	ltpFR2	11	15	LOVER	846	n/a	n/a	0	0	0
3157473	REC_WORD	wordpools/wasnorm_wordpool_576.txt	LTP207	ltpFR2	11	15	LADDER	793	n/a	n/a	0	0	0
3159600	REC_WORD	wordpools/wasnorm_wordpool_576.txt	LTP207	ltpFR2	11	15	MAILMAN	858	n/a	n/a	0	0	0
3171614	REC_WORD_VV	wordpools/wasnorm_wordpool_576.txt	LTP207	ltpFR2	11	15	<>	-1	n/a	n/a	0	0	0
3172614	REC_WORD_VV	wordpools/wasnorm_wordpool_576.txt	LTP207	ltpFR2	11	15	<>	-1	n/a	n/a	0	0	0
3173614	REC_WORD_VV	wordpools/wasnorm_wordpool_576.txt	LTP207	ltpFR2	11	15	<>	-1	n/a	n/a	0	0	0
3174425	REC_WORD	wordpools/wasnorm_wordpool_576.txt	LTP207	ltpFR2	11	15	FRUIT	610	n/a	n/a	0	0	0
3193677	REC_WORD	wordpools/wasnorm_wordpool_576.txt	LTP207	ltpFR2	11	15	POSE	-1	n/a	n/a	0	0	0
3207297	REC_WORD_VV	wordpools/wasnorm_wordpool_576.txt	LTP207	ltpFR2	11	15	<>	-1	n/a	n/a	0	0	0
3255887	DISTRACTOR	n/a	LTP207	ltpFR2	11	16	n/a	n/a	n/a	n/a	0	0	0
3255887	START	n/a	LTP207	ltpFR2	11	n/a	n/a	n/a	21	n/a	n/a	n/a	n/a
3255944	PROB	n/a	LTP207	ltpFR2	11	n/a	n/a	n/a	21	18	6	4	8
3257224	PROB	n/a	LTP207	ltpFR2	11	n/a	n/a	n/a	21	13	2	9	2
3258664	PROB	n/a	LTP207	ltpFR2	11	n/a	n/a	n/a	21	14	9	4	1
3259876	PROB	n/a	LTP207	ltpFR2	11	n/a	n/a	n/a	21	18	1	8	9
3261599	PROB	n/a	LTP207	ltpFR2	11	n/a	n/a	n/a	21	9	1	2	6
3262846	PROB	n/a	LTP207	ltpFR2	11	n/a	n/a	n/a	21	18	9	6	3
3264443	PROB	n/a	LTP207	ltpFR2	11	n/a	n/a	n/a	21	21	8	5	8
3267638	PROB	n/a	LTP207	ltpFR2	11	n/a	n/a	n/a	21	13	4	5	4
3269210	PROB	n/a	LTP207	ltpFR2	11	n/a	n/a	n/a	21	14	1	6	7
3270927	PROB	n/a	LTP207	ltpFR2	11	n/a	n/a	n/a	21	9	6	2	1
3272423	PROB	n/a	LTP207	ltpFR2	11	n/a	n/a	n/a	21	16	7	4	5
3274095	PROB	n/a	LTP207	ltpFR2	11	n/a	n/a	n/a	21	11	8	1	2
3275494	PROB	n/a	LTP207	ltpFR2	11	n/a	n/a	n/a	21	14	7	6	1
3276782	PROB	n/a	LTP207	ltpFR2	11	n/a	n/a	n/a	21	16	3	5	8
3279887	STOP	n/a	LTP207	ltpFR2	11	n/a	n/a	n/a	21	n/a	n/a	n/a	n/a
3280830	WORD	wordpools/wasnorm_wordpool_576.txt	LTP207	ltpFR2	11	16	DRILL	497	n/a	n/a	0	0	0
3283263	WORD	wordpools/wasnorm_wordpool_576.txt	LTP207	ltpFR2	11	16	TOURIST	1488	n/a	n/a	0	0	0
3285982	WORD	wordpools/wasnorm_wordpool_576.txt	LTP207	ltpFR2	11	16	BLOUSE	139	n/a	n/a	0	0	0
3288434	WORD	wordpools/wasnorm_wordpool_576.txt	LTP207	ltpFR2	11	16	GARBAGE	622	n/a	n/a	0	0	0
3290992	WORD	wordpools/wasnorm_wordpool_576.txt	LTP207	ltpFR2	11	16	HORNET	718	n/a	n/a	0	0	0
3293763	WORD	wordpools/wasnorm_wordpool_576.txt	LTP207	ltpFR2	11	16	HONEY	713	n/a	n/a	0	0	0
3296229	WORD	wordpools/wasnorm_wordpool_576.txt	LTP207	ltpFR2	11	16	JELLO	754	n/a	n/a	0	0	0
3298772	WORD	wordpools/wasnorm_wordpool_576.txt	LTP207	ltpFR2	11	16	PIANO	1057	n/a	n/a	0	0	0
3301408	WORD	wordpools/wasnorm_wordpool_576.txt	LTP207	ltpFR2	11	16	MASK	876	n/a	n/a	0	0	0
3303901	WORD	wordpools/wasnorm_wordpool_576.txt	LTP207	ltpFR2	11	16	WORKER	1621	n/a	n/a	0	0	0
3306578	WORD	wordpools/wasnorm_wordpool_576.txt	LTP207	ltpFR2	11	16	OFFICE	972	n/a	n/a	0	0	0
3309120	WORD	wordpools/wasnorm_wordpool_576.txt	LTP207	ltpFR2	11	16	SNAKE	1333	n/a	n/a	0	0	0
3311705	WORD	wordpools/wasnorm_wordpool_576.txt	LTP207	ltpFR2	11	16	CREATURE	403	n/a	n/a	0	0	0
3314507	WORD	wordpools/wasnorm_wordpool_576.txt	LTP207	ltpFR2	11	16	FOOT	590	n/a	n/a	0	0	0
3317141	WORD	wordpools/wasnorm_wordpool_576.txt	LTP207	ltpFR2	11	16	SPIDER	1351	n/a	n/a	0	0	0
3319945	WORD	wordpools/wasnorm_wordpool_576.txt	LTP207	ltpFR2	11	16	DENIM	446	n/a	n/a	0	0	0
3322412	WORD	wordpools/wasnorm_wordpool_576.txt	LTP207	ltpFR2	11	16	MILK	895	n/a	n/a	0	0	0
3325063	WORD	wordpools/wasnorm_wordpool_576.txt	LTP207	ltpFR2	11	16	CLOUD	328	n/a	n/a	0	0	0
3327724	WORD	wordpools/wasnorm_wordpool_576.txt	LTP207	ltpFR2	11	16	SIBLING	1301	n/a	n/a	0	0	0
3330358	WORD	wordpools/wasnorm_wordpool_576.txt	LTP207	ltpFR2	11	16	FOREHEAD	592	n/a	n/a	0	0	0
3333034	WORD	wordpools/wasnorm_wordpool_576.txt	LTP207	ltpFR2	11	16	CONVICT	371	n/a	n/a	0	0	0
3335855	WORD	wordpools/wasnorm_wordpool_576.txt	LTP207	ltpFR2	11	16	EAGLE	512	n/a	n/a	0	0	0
3338515	WORD	wordpools/wasnorm_wordpool_576.txt	LTP207	ltpFR2	11	16	CYCLONE	431	n/a	n/a	0	0	0
3341073	WORD	wordpools/wasnorm_wordpool_576.txt	LTP207	ltpFR2	11	16	CAPTIVE	240	n/a	n/a	0	0	0
3342688	START	n/a	LTP207	ltpFR2	11	n/a	n/a	n/a	22	n/a	n/a	n/a	n/a
3343507	DISTRACTOR	n/a	LTP207	ltpFR2	11	16	n/a	n/a	n/a	n/a	0	0	0
3343524	PROB	n/a	LTP207	ltpFR2	11	n/a	n/a	n/a	22	18	3	9	6
3345558	PROB	n/a	LTP207	ltpFR2	11	n/a	n/a	n/a	22	15	7	7	1
3346612	PROB	n/a	LTP207	ltpFR2	11	n/a	n/a	n/a	22	14	3	2	9
3347924	PROB	n/a	LTP207	ltpFR2	11	n/a	n/a	n/a	22	12	3	1	8
3348986	PROB	n/a	LTP207	ltpFR2	11	n/a	n/a	n/a	22	16	4	8	4
3350744	PROB	n/a	LTP207	ltpFR2	11	n/a	n/a	n/a	22	16	5	6	5
3352139	PROB	n/a	LTP207	ltpFR2	11	n/a	n/a	n/a	22	8	3	3	2
3353612	PROB	n/a	LTP207	ltpFR2	11	n/a	n/a	n/a	22	11	7	3	1
3354859	PROB	n/a	LTP207	ltpFR2	11	n/a	n/a	n/a	22	11	3	3	5
3356096	PROB	n/a	LTP207	ltpFR2	11	n/a	n/a	n/a	22	16	8	1	7
3357410	PROB	n/a	LTP207	ltpFR2	11	n/a	n/a	n/a	22	18	3	7	8
3358615	PROB	n/a	LTP207	ltpFR2	11	n/a	n/a	n/a	22	11	3	3	5
3359853	PROB	n/a	LTP207	ltpFR2	11	n/a	n/a	n/a	22	12	1	5	6
3361049	PROB	n/a	LTP207	ltpFR2	11	n/a	n/a	n/a	22	14	7	5	5
3362412	PROB	n/a	LTP207	ltpFR2	11	n/a	n/a	n/a	22	21	8	7	6
3363868	PROB	n/a	LTP207	ltpFR2	11	n/a	n/a	n/a	22	16	6	1	9
3366687	STOP	n/a	LTP207	ltpFR2	11	n/a	n/a	n/a	22	n/a	n/a	n/a	n/a
3368462	REC_START	n/a	LTP207	ltpFR2	11	16	n/a	n/a	n/a	n/a	0	0	0
3443462	REC_WORD_VV	wordpools/wasnorm_wordpool_576.txt	LTP207	ltpFR2	11	16	<>	-1	n/a	n/a	0	0	0
3445240	REST_REWET	n/a	LTP207	ltpFR2	11	16	n/a	n/a	n/a	n/a	0	0	0
3839644	DISTRACTOR	n/a	LTP207	ltpFR2	11	17	n/a	n/a	n/a	n/a	0	0	0
3839644	START	n/a	LTP207	ltpFR2	11	n/a	n/a	n/a	23	n/a	n/a	n/a	n/a
3839695	PROB	n/a	LTP207	ltpFR2	11	n/a	n/a	n/a	23	13	5	7	1
3841501	PROB	n/a	LTP207	ltpFR2	11	n/a	n/a	n/a	23	9	3	4	2
3843977	PROB	n/a	LTP207	ltpFR2	11	n/a	n/a	n/a	23	14	3	6	5
3845960	PROB	n/a	LTP207	ltpFR2	11	n/a	n/a	n/a	23	11	3	2	6
3847674	PROB	n/a	LTP207	ltpFR2	11	n/a	n/a	n/a	23	10	3	4	3
3849263	PROB	n/a	LTP207	ltpFR2	11	n/a	n/a	n/a	23	9	1	7	1
3851766	PROB	n/a	LTP207	ltpFR2	11	n/a	n/a	n/a	23	14	2	5	7
3855051	PROB	n/a	LTP207	ltpFR2	11	n/a	n/a	n/a	23	10	4	2	4
3856592	PROB	n/a	LTP207	ltpFR2	11	n/a	n/a	n/a	23	15	4	7	4
3859311	PROB	n/a	LTP207	ltpFR2	11	n/a	n/a	n/a	23	13	3	1	9
3860465	PROB	n/a	LTP207	ltpFR2	11	n/a	n/a	n/a	23	14	8	5	1
3862554	STOP	n/a	LTP207	ltpFR2	11	n/a	n/a	n/a	23	n/a	n/a	n/a	n/a
3864672	WORD	wordpools/wasnorm_wordpool_576.txt	LTP207	ltpFR2	11	17	FLOWER	584	n/a	n/a	0	0	0
3867332	WORD	wordpools/wasnorm_wordpool_576.txt	LTP207	ltpFR2	11	17	PEDAL	1037	n/a	n/a	0	0	0
3869808	WORD	wordpools/wasnorm_wordpool_576.txt	LTP207	ltpFR2	11	17	VENUS	1557	n/a	n/a	0	0	0
3872501	WORD	wordpools/wasnorm_wordpool_576.txt	LTP207	ltpFR2	11	17	PICTURE	1061	n/a	n/a	0	0	0
3875060	WORD	wordpools/wasnorm_wordpool_576.txt	LTP207	ltpFR2	11	17	EUROPE	541	n/a	n/a	0	0	0
3877771	WORD	wordpools/wasnorm_wordpool_576.txt	LTP207	ltpFR2	11	17	FRANCE	601	n/a	n/a	0	0	0
3880306	WORD	wordpools/wasnorm_wordpool_576.txt	LTP207	ltpFR2	11	17	HIKER	708	n/a	n/a	0	0	0
3883107	WORD	wordpools/wasnorm_wordpool_576.txt	LTP207	ltpFR2	11	17	LION	827	n/a	n/a	0	0	0
3885744	WORD	wordpools/wasnorm_wordpool_576.txt	LTP207	ltpFR2	11	17	CABIN	211	n/a	n/a	0	0	0
3888545	WORD	wordpools/wasnorm_wordpool_576.txt	LTP207	ltpFR2	11	17	SALT	1229	n/a	n/a	0	0	0
3891104	WORD	wordpools/wasnorm_wordpool_576.txt	LTP207	ltpFR2	11	17	PICNIC	1060	n/a	n/a	0	0	0
3893724	WORD	wordpools/wasnorm_wordpool_576.txt	LTP207	ltpFR2	11	17	GARLIC	624	n/a	n/a	0	0	0
3896341	WORD	wordpools/wasnorm_wordpool_576.txt	LTP207	ltpFR2	11	17	BURGLAR	200	n/a	n/a	0	0	0
3898927	WORD	wordpools/wasnorm_wordpool_576.txt	LTP207	ltpFR2	11	17	LODGE	839	n/a	n/a	0	0	0
3901720	WORD	wordpools/wasnorm_wordpool_576.txt	LTP207	ltpFR2	11	17	VIRUS	1572	n/a	n/a	0	0	0
3904514	WORD	wordpools/wasnorm_wordpool_576.txt	LTP207	ltpFR2	11	17	ROD	1203	n/a	n/a	0	0	0
3907173	WORD	wordpools/wasnorm_wordpool_576.txt	LTP207	ltpFR2	11	17	LABEL	790	n/a	n/a	0	0	0
3909859	WORD	wordpools/wasnorm_wordpool_576.txt	LTP207	ltpFR2	11	17	KETCHUP	771	n/a	n/a	0	0	0
3912310	WORD	wordpools/wasnorm_wordpool_576.txt	LTP207	ltpFR2	11	17	MARS	873	n/a	n/a	0	0	0
3914961	WORD	wordpools/wasnorm_wordpool_576.txt	LTP207	ltpFR2	11	17	SERVANT	1271	n/a	n/a	0	0	0
3917471	WORD	wordpools/wasnorm_wordpool_576.txt	LTP207	ltpFR2	11	17	SANDWICH	1232	n/a	n/a	0	0	0
3920130	WORD	wordpools/wasnorm_wordpool_576.txt	LTP207	ltpFR2	11	17	MACHINE	852	n/a	n/a	0	0	0
3922683	WORD	wordpools/wasnorm_wordpool_576.txt	LTP207	ltpFR2	11	17	WASHER	1592	n/a	n/a	0	0	0
3925300	WORD	wordpools/wasnorm_wordpool_576.txt	LTP207	ltpFR2	11	17	TOASTER	1472	n/a	n/a	0	0	0
3926916	START	n/a	LTP207	ltpFR2	11	n/a	n/a	n/a	24	n/a	n/a	n/a	n/a
3928087	DISTRACTOR	n/a	LTP207	ltpFR2	11	17	n/a	n/a	n/a	n/a	0	0	0
3928102	PROB	n/a	LTP207	ltpFR2	11	n/a	n/a	n/a	24	17	9	3	5
3930067	PROB	n/a	LTP207	ltpFR2	11	n/a	n/a	n/a	24	14	1	6	7
3931332	PROB	n/a	LTP207	ltpFR2	11	n/a	n/a	n/a	24	13	3	8	2
3933999	PROB	n/a	LTP207	ltpFR2	11	n/a	n/a	n/a	24	9	2	5	2
3935321	PROB	n/a	LTP207	ltpFR2	11	n/a	n/a	n/a	24	16	9	5	2
3936543	PROB	n/a	LTP207	ltpFR2	11	n/a	n/a	n/a	24	13	4	2	7
3937957	PROB	n/a	LTP207	ltpFR2	11	n/a	n/a	n/a	24	12	5	6	1
3939101	PROB	n/a	LTP207	ltpFR2	11	n/a	n/a	n/a	24	10	6	2	2
3940281	PROB	n/a	LTP207	ltpFR2	11	n/a	n/a	n/a	24	17	6	4	7
3942196	PROB	n/a	LTP207	ltpFR2	11	n/a	n/a	n/a	24	25	9	9	7
3943863	PROB	n/a	LTP207	ltpFR2	11	n/a	n/a	n/a	24	12	2	5	5
3945183	PROB	n/a	LTP207	ltpFR2	11	n/a	n/a	n/a	24	17	8	3	6
3946898	PROB	n/a	LTP207	ltpFR2	11	n/a	n/a	n/a	24	19	7	6	6
3948363	PROB	n/a	LTP207	ltpFR2	11	n/a	n/a	n/a	24	11	1	6	4
3949330	STOP	n/a	LTP207	ltpFR2	11	n/a	n/a	n/a	24	n/a	n/a	n/a	n/a
3952814	REC_START	n/a	LTP207	ltpFR2	11	17	n/a	n/a	n/a	n/a	0	0	0
3953413	REC_WORD	wordpools/wasnorm_wordpool_576.txt	LTP207	ltpFR2	11	17	FLOWER	584	n/a	n/a	0	0	0
3954996	REC_WORD	wordpools/wasnorm_wordpool_576.txt	LTP207	ltpFR2	11	17	PEDAL	1037	n/a	n/a	0	0	0
3958036	REC_WORD	wordpools/wasnorm_wordpool_576.txt	LTP207	ltpFR2	11	17	VENUS	1557	n/a	n/a	0	0	0
3962249	REC_WORD	wordpools/wasnorm_wordpool_576.txt	LTP207	ltpFR2	11	17	PHOTO	1055	n/a	n/a	0	0	0
3964074	REC_WORD	wordpools/wasnorm_wordpool_576.txt	LTP207	ltpFR2	11	17	EUROPE	541	n/a	n/a	0	0	0
3965678	REC_WORD	wordpools/wasnorm_wordpool_576.txt	LTP207	ltpFR2	11	17	FRANCE	601	n/a	n/a	0	0	0
3967726	REC_WORD	wordpools/wasnorm_wordpool_576.txt	LTP207	ltpFR2	11	17	SANDWICH	1232	n/a	n/a	0	0	0
3969732	REC_WORD	wordpools/wasnorm_wordpool_576.txt	LTP207	ltpFR2	11	17	SERVANT	1271	n/a	n/a	0	0	0
4043914	DISTRACTOR	n/a	LTP207	ltpFR2	11	18	n/a	n/a	n/a	n/a	0	0	0
4043914	START	n/a	LTP207	ltpFR2	11	n/a	n/a	n/a	25	n/a	n/a	n/a	n/a
4043964	PROB	n/a	LTP207	ltpFR2	11	n/a	n/a	n/a	25	17	5	6	6
4045763	PROB	n/a	LTP207	ltpFR2	11	n/a	n/a	n/a	25	15	2	4	9
4046991	PROB	n/a	LTP207	ltpFR2	11	n/a	n/a	n/a	25	20	8	5	7
4049284	PROB	n/a	LTP207	ltpFR2	11	n/a	n/a	n/a	25	21	3	9	9
4050950	PROB	n/a	LTP207	ltpFR2	11	n/a	n/a	n/a	25	20	8	4	8
4052563	PROB	n/a	LTP207	ltpFR2	11	n/a	n/a	n/a	25	17	6	9	2
4054597	PROB	n/a	LTP207	ltpFR2	11	n/a	n/a	n/a	25	19	9	2	8
4056303	PROB	n/a	LTP207	ltpFR2	11	n/a	n/a	n/a	25	10	1	5	4
4057892	PROB	n/a	LTP207	ltpFR2	11	n/a	n/a	n/a	25	17	3	5	9
4059331	PROB	n/a	LTP207	ltpFR2	11	n/a	n/a	n/a	25	17	7	8	2
4060911	PROB	n/a	LTP207	ltpFR2	11	n/a	n/a	n/a	25	14	9	4	1
4063882	PROB	n/a	LTP207	ltpFR2	11	n/a	n/a	n/a	25	13	3	7	3
4065202	PROB	n/a	LTP207	ltpFR2	11	n/a	n/a	n/a	25	15	1	6	8
4066358	PROB	n/a	LTP207	ltpFR2	11	n/a	n/a	n/a	25	15	7	2	6
4067786	STOP	n/a	LTP207	ltpFR2	11	n/a	n/a	n/a	25	n/a	n/a	n/a	n/a
4069050	WORD	wordpools/wasnorm_wordpool_576.txt	LTP207	ltpFR2	11	18	UNCLE	1536	n/a	n/a	0	0	0
4071544	WORD	wordpools/wasnorm_wordpool_576.txt	LTP207	ltpFR2	11	18	QUARTER	1148	n/a	n/a	0	0	0
4074169	WORD	wordpools/wasnorm_wordpool_576.txt	LTP207	ltpFR2	11	18	DRAGON	492	n/a	n/a	0	0	0
4076630	WORD	wordpools/wasnorm_wordpool_576.txt	LTP207	ltpFR2	11	18	TREAT	1501	n/a	n/a	0	0	0
4079222	WORD	wordpools/wasnorm_wordpool_576.txt	LTP207	ltpFR2	11	18	TORTOISE	1486	n/a	n/a	0	0	0
4081924	WORD	wordpools/wasnorm_wordpool_576.txt	LTP207	ltpFR2	11	18	CHIPMUNK	304	n/a	n/a	0	0	0
4084450	WORD	wordpools/wasnorm_wordpool_576.txt	LTP207	ltpFR2	11	18	SUMMIT	1405	n/a	n/a	0	0	0
4087035	WORD	wordpools/wasnorm_wordpool_576.txt	LTP207	ltpFR2	11	18	CANYON	235	n/a	n/a	0	0	0
4089820	WORD	wordpools/wasnorm_wordpool_576.txt	LTP207	ltpFR2	11	18	PLAID	1080	n/a	n/a	0	0	0
4092640	WORD	wordpools/wasnorm_wordpool_576.txt	LTP207	ltpFR2	11	18	RUST	1219	n/a	n/a	0	0	0
4095308	WORD	wordpools/wasnorm_wordpool_576.txt	LTP207	ltpFR2	11	18	WINDOW	1611	n/a	n/a	0	0	0
4097918	WORD	wordpools/wasnorm_wordpool_576.txt	LTP207	ltpFR2	11	18	WAITER	1580	n/a	n/a	0	0	0
4100728	WORD	wordpools/wasnorm_wordpool_576.txt	LTP207	ltpFR2	11	18	MARKER	870	n/a	n/a	0	0	0
4103330	WORD	wordpools/wasnorm_wordpool_576.txt	LTP207	ltpFR2	11	18	TAXI	1438	n/a	n/a	0	0	0
4105790	WORD	wordpools/wasnorm_wordpool_576.txt	LTP207	ltpFR2	11	18	MATCH	878	n/a	n/a	0	0	0
4108491	WORD	wordpools/wasnorm_wordpool_576.txt	LTP207	ltpFR2	11	18	PUDDING	1139	n/a	n/a	0	0	0
4111285	WORD	wordpools/wasnorm_wordpool_576.txt	LTP207	ltpFR2	11	18	RAFT	1159	n/a	n/a	0	0	0
4113736	WORD	wordpools/wasnorm_wordpool_576.txt	LTP207	ltpFR2	11	18	CANAL	226	n/a	n/a	0	0	0
4116521	WORD	wordpools/wasnorm_wordpool_576.txt	LTP207	ltpFR2	11	18	PARROT	1015	n/a	n/a	0	0	0
4119046	WORD	wordpools/wasnorm_wordpool_576.txt	LTP207	ltpFR2	11	18	HATCHET	691	n/a	n/a	0	0	0
4121640	WORD	wordpools/wasnorm_wordpool_576.txt	LTP207	ltpFR2	11	18	EYELASH	546	n/a	n/a	0	0	0
4124326	WORD	wordpools/wasnorm_wordpool_576.txt	LTP207	ltpFR2	11	18	SURVEY	1414	n/a	n/a	0	0	0
4126843	WORD	wordpools/wasnorm_wordpool_576.txt	LTP207	ltpFR2	11	18	COUSIN	392	n/a	n/a	0	0	0
4129379	WORD	wordpools/wasnorm_wordpool_576.txt	LTP207	ltpFR2	11	18	DRAWING	494	n/a	n/a	0	0	0
4130992	START	n/a	LTP207	ltpFR2	11	n/a	n/a	n/a	26	n/a	n/a	n/a	n/a
4131879	DISTRACTOR	n/a	LTP207	ltpFR2	11	18	n/a	n/a	n/a	n/a	0	0	0
4131896	PROB	n/a	LTP207	ltpFR2	11	n/a	n/a	n/a	26	12	6	4	2
4133327	PROB	n/a	LTP207	ltpFR2	11	n/a	n/a	n/a	26	19	5	6	8
4134715	PROB	n/a	LTP207	ltpFR2	11	n/a	n/a	n/a	26	22	9	6	7
4136321	PROB	n/a	LTP207	ltpFR2	11	n/a	n/a	n/a	26	17	5	8	4
4137760	PROB	n/a	LTP207	ltpFR2	11	n/a	n/a	n/a	26	9	2	4	3
4140420	PROB	n/a	LTP207	ltpFR2	11	n/a	n/a	n/a	26	24	9	6	9
4142133	PROB	n/a	LTP207	ltpFR2	11	n/a	n/a	n/a	26	14	7	5	2
4144543	PROB	n/a	LTP207	ltpFR2	11	n/a	n/a	n/a	26	20	8	4	8
4146090	PROB	n/a	LTP207	ltpFR2	11	n/a	n/a	n/a	26	17	8	1	8
4147521	PROB	n/a	LTP207	ltpFR2	11	n/a	n/a	n/a	26	13	3	9	1
4148659	PROB	n/a	LTP207	ltpFR2	11	n/a	n/a	n/a	26	9	3	3	3
4149772	PROB	n/a	LTP207	ltpFR2	11	n/a	n/a	n/a	26	25	9	7	9
4151386	PROB	n/a	LTP207	ltpFR2	11	n/a	n/a	n/a	26	13	5	4	4
4154992	STOP	n/a	LTP207	ltpFR2	11	n/a	n/a	n/a	26	n/a	n/a	n/a	n/a
4156833	REC_START	n/a	LTP207	ltpFR2	11	18	n/a	n/a	n/a	n/a	0	0	0
4158313	REC_WORD	wordpools/wasnorm_wordpool_576.txt	LTP207	ltpFR2	11	18	UNCLE	1536	n/a	n/a	0	0	0
4161726	REC_WORD	wordpools/wasnorm_wordpool_576.txt	LTP207	ltpFR2	11	18	DRAGON	492	n/a	n/a	0	0	0
4164336	REC_WORD	wordpools/wasnorm_wordpool_576.txt	LTP207	ltpFR2	11	18	TREAT	1501	n/a	n/a	0	0	0
4166096	REC_WORD	wordpools/wasnorm_wordpool_576.txt	LTP207	ltpFR2	11	18	CHIPMUNK	304	n/a	n/a	0	0	0
4167863	REC_WORD	wordpools/wasnorm_wordpool_576.txt	LTP207	ltpFR2	11	18	TORTOISE	1486	n/a	n/a	0	0	0
4247959	WORD	wordpools/wasnorm_wordpool_576.txt	LTP207	ltpFR2	11	19	ICEBERG	731	n/a	n/a	0	0	0
4250753	WORD	wordpools/wasnorm_wordpool_576.txt	LTP207	ltpFR2	11	19	GRIZZLY	662	n/a	n/a	0	0	0
4253303	WORD	wordpools/wasnorm_wordpool_576.txt	LTP207	ltpFR2	11	19	NECKLACE	940	n/a	n/a	0	0	0
4255829	WORD	wordpools/wasnorm_wordpool_576.txt	LTP207	ltpFR2	11	19	STICKER	1382	n/a	n/a	0	0	0
4258423	WORD	wordpools/wasnorm_wordpool_576.txt	LTP207	ltpFR2	11	19	PECAN	1036	n/a	n/a	0	0	0
4260908	WORD	wordpools/wasnorm_wordpool_576.txt	LTP207	ltpFR2	11	19	SHERIFF	1284	n/a	n/a	0	0	0
4263709	WORD	wordpools/wasnorm_wordpool_576.txt	LTP207	ltpFR2	11	19	BLOCKADE	137	n/a	n/a	0	0	0
4266295	WORD	wordpools/wasnorm_wordpool_576.txt	LTP207	ltpFR2	11	19	MEDAL	885	n/a	n/a	0	0	0
4268962	WORD	wordpools/wasnorm_wordpool_576.txt	LTP207	ltpFR2	11	19	GLOVE	642	n/a	n/a	0	0	0
4271622	WORD	wordpools/wasnorm_wordpool_576.txt	LTP207	ltpFR2	11	19	GUARD	667	n/a	n/a	0	0	0
4274123	WORD	wordpools/wasnorm_wordpool_576.txt	LTP207	ltpFR2	11	19	BADGE	68	n/a	n/a	0	0	0
4276641	WORD	wordpools/wasnorm_wordpool_576.txt	LTP207	ltpFR2	11	19	ROBBER	1197	n/a	n/a	0	0	0
4279250	WORD	wordpools/wasnorm_wordpool_576.txt	LTP207	ltpFR2	11	19	GREASE	660	n/a	n/a	0	0	0
4281777	WORD	wordpools/wasnorm_wordpool_576.txt	LTP207	ltpFR2	11	19	BANKER	84	n/a	n/a	0	0	0
4284446	WORD	wordpools/wasnorm_wordpool_576.txt	LTP207	ltpFR2	11	19	CASHIER	254	n/a	n/a	0	0	0
4287163	WORD	wordpools/wasnorm_wordpool_576.txt	LTP207	ltpFR2	11	19	BARREL	91	n/a	n/a	0	0	0
4289874	WORD	wordpools/wasnorm_wordpool_576.txt	LTP207	ltpFR2	11	19	SHELF	1280	n/a	n/a	0	0	0
4292518	WORD	wordpools/wasnorm_wordpool_576.txt	LTP207	ltpFR2	11	19	BOX	159	n/a	n/a	0	0	0
4295202	WORD	wordpools/wasnorm_wordpool_576.txt	LTP207	ltpFR2	11	19	CRAYON	401	n/a	n/a	0	0	0
4297804	WORD	wordpools/wasnorm_wordpool_576.txt	LTP207	ltpFR2	11	19	ORCHID	982	n/a	n/a	0	0	0
4300238	WORD	wordpools/wasnorm_wordpool_576.txt	LTP207	ltpFR2	11	19	HARP	689	n/a	n/a	0	0	0
4302782	WORD	wordpools/wasnorm_wordpool_576.txt	LTP207	ltpFR2	11	19	SLUG	1329	n/a	n/a	0	0	0
4305240	WORD	wordpools/wasnorm_wordpool_576.txt	LTP207	ltpFR2	11	19	CASHEW	253	n/a	n/a	0	0	0
4307935	WORD	wordpools/wasnorm_wordpool_576.txt	LTP207	ltpFR2	11	19	UMPIRE	1535	n/a	n/a	0	0	0
4309549	START	n/a	LTP207	ltpFR2	11	n/a	n/a	n/a	27	n/a	n/a	n/a	n/a
4310558	DISTRACTOR	n/a	LTP207	ltpFR2	11	19	n/a	n/a	n/a	n/a	0	0	0
4310569	PROB	n/a	LTP207	ltpFR2	11	n/a	n/a	n/a	27	14	4	8	2
4312150	PROB	n/a	LTP207	ltpFR2	11	n/a	n/a	n/a	27	20	9	7	4
4313597	PROB	n/a	LTP207	ltpFR2	11	n/a	n/a	n/a	27	16	8	4	4
4315161	PROB	n/a	LTP207	ltpFR2	11	n/a	n/a	n/a	27	10	2	1	7
4316367	PROB	n/a	LTP207	ltpFR2	11	n/a	n/a	n/a	27	10	2	5	3
4317964	PROB	n/a	LTP207	ltpFR2	11	n/a	n/a	n/a	27	24	9	8	7
4320180	PROB	n/a	LTP207	ltpFR2	11	n/a	n/a	n/a	27	8	4	2	2
4321553	PROB	n/a	LTP207	ltpFR2	11	n/a	n/a	n/a	27	16	5	8	3
4322941	PROB	n/a	LTP207	ltpFR2	11	n/a	n/a	n/a	27	21	4	9	8
4324313	PROB	n/a	LTP207	ltpFR2	11	n/a	n/a	n/a	27	18	1	8	9
4325927	PROB	n/a	LTP207	ltpFR2	11	n/a	n/a	n/a	27	23	7	8	8
4327458	PROB	n/a	LTP207	ltpFR2	11	n/a	n/a	n/a	27	14	6	4	4
4328980	PROB	n/a	LTP207	ltpFR2	11	n/a	n/a	n/a	27	15	7	5	1
4330955	PROB	n/a	LTP207	ltpFR2	11	n/a	n/a	n/a	27	16	6	3	7
4333137	STOP	n/a	LTP207	ltpFR2	11	n/a	n/a	n/a	27	n/a	n/a	n/a	n/a
4335439	REC_START	n/a	LTP207	ltpFR2	11	19	n/a	n/a	n/a	n/a	0	0	0
4336766	REC_WORD	wordpools/wasnorm_wordpool_576.txt	LTP207	ltpFR2	11	19	SLUG	1329	n/a	n/a	0	0	0
4353755	REC_WORD	wordpools/wasnorm_wordpool_576.txt	LTP207	ltpFR2	11	19	CRAYON	401	n/a	n/a	0	0	0
4355150	REC_WORD	wordpools/wasnorm_wordpool_576.txt	LTP207	ltpFR2	11	19	HARP	689	n/a	n/a	0	0	0
4356649	REC_WORD	wordpools/wasnorm_wordpool_576.txt	LTP207	ltpFR2	11	19	ORCHID	982	n/a	n/a	0	0	0
4358202	REC_WORD	wordpools/wasnorm_wordpool_576.txt	LTP207	ltpFR2	11	19	BOX	159	n/a	n/a	0	0	0
4426539	DISTRACTOR	n/a	LTP207	ltpFR2	11	20	n/a	n/a	n/a	n/a	0	0	0
4426540	START	n/a	LTP207	ltpFR2	11	n/a	n/a	n/a	28	n/a	n/a	n/a	n/a
4426590	PROB	n/a	LTP207	ltpFR2	11	n/a	n/a	n/a	28	13	4	3	6
4427811	PROB	n/a	LTP207	ltpFR2	11	n/a	n/a	n/a	28	22	5	8	9
4429543	PROB	n/a	LTP207	ltpFR2	11	n/a	n/a	n/a	28	17	8	4	5
4431525	PROB	n/a	LTP207	ltpFR2	11	n/a	n/a	n/a	28	15	3	6	6
4432872	PROB	n/a	LTP207	ltpFR2	11	n/a	n/a	n/a	28	15	1	7	7
4433992	PROB	n/a	LTP207	ltpFR2	11	n/a	n/a	n/a	28	18	8	3	7
4435213	PROB	n/a	LTP207	ltpFR2	11	n/a	n/a	n/a	28	1	3	5	3
4436360	PROB	n/a	LTP207	ltpFR2	11	n/a	n/a	n/a	28	9	4	2	3
4438869	PROB	n/a	LTP207	ltpFR2	11	n/a	n/a	n/a	28	11	1	4	6
4439832	PROB	n/a	LTP207	ltpFR2	11	n/a	n/a	n/a	28	14	4	8	2
4441713	PROB	n/a	LTP207	ltpFR2	11	n/a	n/a	n/a	28	17	5	3	9
4443000	PROB	n/a	LTP207	ltpFR2	11	n/a	n/a	n/a	28	20	9	7	4
4444231	PROB	n/a	LTP207	ltpFR2	11	n/a	n/a	n/a	28	11	6	2	3
4445604	PROB	n/a	LTP207	ltpFR2	11	n/a	n/a	n/a	28	7	3	2	2
4446825	PROB	n/a	LTP207	ltpFR2	11	n/a	n/a	n/a	28	14	8	1	5
4448237	PROB	n/a	LTP207	ltpFR2	11	n/a	n/a	n/a	28	7	1	4	2
4449474	STOP	n/a	LTP207	ltpFR2	11	n/a	n/a	n/a	28	n/a	n/a	n/a	n/a
4451768	WORD	wordpools/wasnorm_wordpool_576.txt	LTP207	ltpFR2	11	20	BROTHER	179	n/a	n/a	0	0	0
4454294	WORD	wordpools/wasnorm_wordpool_576.txt	LTP207	ltpFR2	11	20	MONEY	908	n/a	n/a	0	0	0
4457062	WORD	wordpools/wasnorm_wordpool_576.txt	LTP207	ltpFR2	11	20	VIKING	1565	n/a	n/a	0	0	0
4459564	WORD	wordpools/wasnorm_wordpool_576.txt	LTP207	ltpFR2	11	20	ARM	38	n/a	n/a	0	0	0
4462367	WORD	wordpools/wasnorm_wordpool_576.txt	LTP207	ltpFR2	11	20	LEG	809	n/a	n/a	0	0	0
4465076	WORD	wordpools/wasnorm_wordpool_576.txt	LTP207	ltpFR2	11	20	GRAVEL	659	n/a	n/a	0	0	0
4467812	WORD	wordpools/wasnorm_wordpool_576.txt	LTP207	ltpFR2	11	20	DIVER	476	n/a	n/a	0	0	0
4470631	WORD	wordpools/wasnorm_wordpool_576.txt	LTP207	ltpFR2	11	20	PRINCESS	1125	n/a	n/a	0	0	0
4473399	WORD	wordpools/wasnorm_wordpool_576.txt	LTP207	ltpFR2	11	20	SCALPEL	1243	n/a	n/a	0	0	0
4476017	WORD	wordpools/wasnorm_wordpool_576.txt	LTP207	ltpFR2	11	20	OINTMENT	974	n/a	n/a	0	0	0
4478578	WORD	wordpools/wasnorm_wordpool_576.txt	LTP207	ltpFR2	11	20	ULCER	1533	n/a	n/a	0	0	0
4481355	WORD	wordpools/wasnorm_wordpool_576.txt	LTP207	ltpFR2	11	20	JEANS	752	n/a	n/a	0	0	0
4483814	WORD	wordpools/wasnorm_wordpool_576.txt	LTP207	ltpFR2	11	20	LAVA	804	n/a	n/a	0	0	0
4486474	WORD	wordpools/wasnorm_wordpool_576.txt	LTP207	ltpFR2	11	20	CRATER	400	n/a	n/a	0	0	0
4489016	WORD	wordpools/wasnorm_wordpool_576.txt	LTP207	ltpFR2	11	20	ROBIN	1199	n/a	n/a	0	0	0
4491484	WORD	wordpools/wasnorm_wordpool_576.txt	LTP207	ltpFR2	11	20	SKIRT	1319	n/a	n/a	0	0	0
4494043	WORD	wordpools/wasnorm_wordpool_576.txt	LTP207	ltpFR2	11	20	OYSTER	995	n/a	n/a	0	0	0
4496737	WORD	wordpools/wasnorm_wordpool_576.txt	LTP207	ltpFR2	11	20	PLAZA	1088	n/a	n/a	0	0	0
4499397	WORD	wordpools/wasnorm_wordpool_576.txt	LTP207	ltpFR2	11	20	PLIERS	1089	n/a	n/a	0	0	0
4501924	WORD	wordpools/wasnorm_wordpool_576.txt	LTP207	ltpFR2	11	20	SCOTCH	1251	n/a	n/a	0	0	0
4504392	WORD	wordpools/wasnorm_wordpool_576.txt	LTP207	ltpFR2	11	20	PADDLE	1000	n/a	n/a	0	0	0
4507142	WORD	wordpools/wasnorm_wordpool_576.txt	LTP207	ltpFR2	11	20	FIREMAN	569	n/a	n/a	0	0	0
4509753	WORD	wordpools/wasnorm_wordpool_576.txt	LTP207	ltpFR2	11	20	CITRUS	313	n/a	n/a	0	0	0
4512456	WORD	wordpools/wasnorm_wordpool_576.txt	LTP207	ltpFR2	11	20	HIGHWAY	707	n/a	n/a	0	0	0
4514069	START	n/a	LTP207	ltpFR2	11	n/a	n/a	n/a	29	n/a	n/a	n/a	n/a
4514991	DISTRACTOR	n/a	LTP207	ltpFR2	11	20	n/a	n/a	n/a	n/a	0	0	0
4515005	PROB	n/a	LTP207	ltpFR2	11	n/a	n/a	n/a	29	7	1	3	3
4516169	PROB	n/a	LTP207	ltpFR2	11	n/a	n/a	n/a	29	9	1	2	6
4517348	PROB	n/a	LTP207	ltpFR2	11	n/a	n/a	n/a	29	17	6	6	5
4518921	PROB	n/a	LTP207	ltpFR2	11	n/a	n/a	n/a	29	14	3	5	6
4520553	PROB	n/a	LTP207	ltpFR2	11	n/a	n/a	n/a	29	18	8	7	3
4522007	PROB	n/a	LTP207	ltpFR2	11	n/a	n/a	n/a	29	24	9	6	9
4523430	PROB	n/a	LTP207	ltpFR2	11	n/a	n/a	n/a	29	9	2	1	6
4524509	PROB	n/a	LTP207	ltpFR2	11	n/a	n/a	n/a	29	14	6	4	4
4526626	PROB	n/a	LTP207	ltpFR2	11	n/a	n/a	n/a	29	13	9	3	1
4527938	PROB	n/a	LTP207	ltpFR2	11	n/a	n/a	n/a	29	9	2	6	1
4529008	PROB	n/a	LTP207	ltpFR2	11	n/a	n/a	n/a	29	11	6	3	2
4530340	PROB	n/a	LTP207	ltpFR2	11	n/a	n/a	n/a	29	4	1	2	1
4532505	PROB	n/a	LTP207	ltpFR2	11	n/a	n/a	n/a	29	25	9	7	9
4533877	PROB	n/a	LTP207	ltpFR2	11	n/a	n/a	n/a	29	17	8	3	6
4535550	PROB	n/a	LTP207	ltpFR2	11	n/a	n/a	n/a	29	18	9	3	6
4536794	STOP	n/a	LTP207	ltpFR2	11	n/a	n/a	n/a	29	n/a	n/a	n/a	n/a
4539977	REC_START	n/a	LTP207	ltpFR2	11	20	n/a	n/a	n/a	n/a	0	0	0
4542595	REC_WORD	wordpools/wasnorm_wordpool_576.txt	LTP207	ltpFR2	11	20	BROTHER	179	n/a	n/a	0	0	0
4543448	REC_WORD	wordpools/wasnorm_wordpool_576.txt	LTP207	ltpFR2	11	20	MONEY	908	n/a	n/a	0	0	0
4544548	REC_WORD	wordpools/wasnorm_wordpool_576.txt	LTP207	ltpFR2	11	20	VIKING	1565	n/a	n/a	0	0	0
4546957	REC_WORD	wordpools/wasnorm_wordpool_576.txt	LTP207	ltpFR2	11	20	ARM	38	n/a	n/a	0	0	0
4548042	REC_WORD	wordpools/wasnorm_wordpool_576.txt	LTP207	ltpFR2	11	20	LEG	809	n/a	n/a	0	0	0
4631085	DISTRACTOR	n/a	LTP207	ltpFR2	11	21	n/a	n/a	n/a	n/a	0	0	0
4631085	START	n/a	LTP207	ltpFR2	11	n/a	n/a	n/a	30	n/a	n/a	n/a	n/a
4631143	PROB	n/a	LTP207	ltpFR2	11	n/a	n/a	n/a	30	15	6	5	4
4632642	PROB	n/a	LTP207	ltpFR2	11	n/a	n/a	n/a	30	14	7	6	1
4634440	PROB	n/a	LTP207	ltpFR2	11	n/a	n/a	n/a	30	21	7	8	6
4635987	PROB	n/a	LTP207	ltpFR2	11	n/a	n/a	n/a	30	18	5	7	6
4638112	PROB	n/a	LTP207	ltpFR2	11	n/a	n/a	n/a	30	13	5	2	6
4639509	PROB	n/a	LTP207	ltpFR2	11	n/a	n/a	n/a	30	14	8	3	3
4640789	PROB	n/a	LTP207	ltpFR2	11	n/a	n/a	n/a	30	13	8	1	4
4641884	PROB	n/a	LTP207	ltpFR2	11	n/a	n/a	n/a	30	15	9	3	3
4642947	PROB	n/a	LTP207	ltpFR2	11	n/a	n/a	n/a	30	13	5	7	1
4644654	PROB	n/a	LTP207	ltpFR2	11	n/a	n/a	n/a	30	16	5	9	2
4646108	PROB	n/a	LTP207	ltpFR2	11	n/a	n/a	n/a	30	12	1	5	6
4647162	PROB	n/a	LTP207	ltpFR2	11	n/a	n/a	n/a	30	18	8	6	4
4648309	PROB	n/a	LTP207	ltpFR2	11	n/a	n/a	n/a	30	19	7	8	4
4651588	PROB	n/a	LTP207	ltpFR2	11	n/a	n/a	n/a	30	16	9	3	4
4652818	PROB	n/a	LTP207	ltpFR2	11	n/a	n/a	n/a	30	18	4	5	9
4653970	STOP	n/a	LTP207	ltpFR2	11	n/a	n/a	n/a	30	n/a	n/a	n/a	n/a
4656305	WORD	wordpools/wasnorm_wordpool_576.txt	LTP207	ltpFR2	11	21	MAPLE	866	n/a	n/a	0	0	0
4658925	WORD	wordpools/wasnorm_wordpool_576.txt	LTP207	ltpFR2	11	21	HAMPER	682	n/a	n/a	0	0	0
4661709	WORD	wordpools/wasnorm_wordpool_576.txt	LTP207	ltpFR2	11	21	PARSLEY	1016	n/a	n/a	0	0	0
4664495	WORD	wordpools/wasnorm_wordpool_576.txt	LTP207	ltpFR2	11	21	JUNGLE	764	n/a	n/a	0	0	0
4667104	WORD	wordpools/wasnorm_wordpool_576.txt	LTP207	ltpFR2	11	21	CROSS	413	n/a	n/a	0	0	0
4669899	WORD	wordpools/wasnorm_wordpool_576.txt	LTP207	ltpFR2	11	21	SPONGE	1355	n/a	n/a	0	0	0
4672332	WORD	wordpools/wasnorm_wordpool_576.txt	LTP207	ltpFR2	11	21	CREVICE	405	n/a	n/a	0	0	0
4675101	WORD	wordpools/wasnorm_wordpool_576.txt	LTP207	ltpFR2	11	21	SPACE	1345	n/a	n/a	0	0	0
4677653	WORD	wordpools/wasnorm_wordpool_576.txt	LTP207	ltpFR2	11	21	THIEF	1456	n/a	n/a	0	0	0
4680254	WORD	wordpools/wasnorm_wordpool_576.txt	LTP207	ltpFR2	11	21	JAPAN	749	n/a	n/a	0	0	0
4683038	WORD	wordpools/wasnorm_wordpool_576.txt	LTP207	ltpFR2	11	21	SIDEWALK	1303	n/a	n/a	0	0	0
4685783	WORD	wordpools/wasnorm_wordpool_576.txt	LTP207	ltpFR2	11	21	BUBBLE	183	n/a	n/a	0	0	0
4688234	WORD	wordpools/wasnorm_wordpool_576.txt	LTP207	ltpFR2	11	21	BATHTUB	100	n/a	n/a	0	0	0
4691019	WORD	wordpools/wasnorm_wordpool_576.txt	LTP207	ltpFR2	11	21	RATTLE	1170	n/a	n/a	0	0	0
4693680	WORD	wordpools/wasnorm_wordpool_576.txt	LTP207	ltpFR2	11	21	QUAIL	1147	n/a	n/a	0	0	0
4696121	WORD	wordpools/wasnorm_wordpool_576.txt	LTP207	ltpFR2	11	21	PIGEON	1065	n/a	n/a	0	0	0
4698875	WORD	wordpools/wasnorm_wordpool_576.txt	LTP207	ltpFR2	11	21	FUNGUS	614	n/a	n/a	0	0	0
4701635	WORD	wordpools/wasnorm_wordpool_576.txt	LTP207	ltpFR2	11	21	WORLD	1622	n/a	n/a	0	0	0
4704235	WORD	wordpools/wasnorm_wordpool_576.txt	LTP207	ltpFR2	11	21	LAGOON	795	n/a	n/a	0	0	0
4707062	WORD	wordpools/wasnorm_wordpool_576.txt	LTP207	ltpFR2	11	21	SHORTCAKE	1292	n/a	n/a	0	0	0
4709606	WORD	wordpools/wasnorm_wordpool_576.txt	LTP207	ltpFR2	11	21	COLONEL	348	n/a	n/a	0	0	0
4712090	WORD	wordpools/wasnorm_wordpool_576.txt	LTP207	ltpFR2	11	21	FOREST	593	n/a	n/a	0	0	0
4714601	WORD	wordpools/wasnorm_wordpool_576.txt	LTP207	ltpFR2	11	21	WAITRESS	1581	n/a	n/a	0	0	0
4717302	WORD	wordpools/wasnorm_wordpool_576.txt	LTP207	ltpFR2	11	21	SNACK	1331	n/a	n/a	0	0	0
4718917	START	n/a	LTP207	ltpFR2	11	n/a	n/a	n/a	31	n/a	n/a	n/a	n/a
4719938	DISTRACTOR	n/a	LTP207	ltpFR2	11	21	n/a	n/a	n/a	n/a	0	0	0
4719954	PROB	n/a	LTP207	ltpFR2	11	n/a	n/a	n/a	31	19	2	8	9
4721560	PROB	n/a	LTP207	ltpFR2	11	n/a	n/a	n/a	31	11	4	4	3
4722715	PROB	n/a	LTP207	ltpFR2	11	n/a	n/a	n/a	31	12	2	1	9
4723877	PROB	n/a	LTP207	ltpFR2	11	n/a	n/a	n/a	31	20	3	9	8
4725633	PROB	n/a	LTP207	ltpFR2	11	n/a	n/a	n/a	31	12	1	8	3
4726696	PROB	n/a	LTP207	ltpFR2	11	n/a	n/a	n/a	31	12	2	9	1
4728637	PROB	n/a	LTP207	ltpFR2	11	n/a	n/a	n/a	31	17	5	9	3
4730091	PROB	n/a	LTP207	ltpFR2	11	n/a	n/a	n/a	31	19	6	7	6
4731498	PROB	n/a	LTP207	ltpFR2	11	n/a	n/a	n/a	31	17	3	9	5
4733103	PROB	n/a	LTP207	ltpFR2	11	n/a	n/a	n/a	31	19	4	6	9
4734459	PROB	n/a	LTP207	ltpFR2	11	n/a	n/a	n/a	31	11	4	6	1
4735521	PROB	n/a	LTP207	ltpFR2	11	n/a	n/a	n/a	31	20	6	8	6
4737042	PROB	n/a	LTP207	ltpFR2	11	n/a	n/a	n/a	31	12	2	7	3
4738272	PROB	n/a	LTP207	ltpFR2	11	n/a	n/a	n/a	31	17	3	7	7
4739846	PROB	n/a	LTP207	ltpFR2	11	n/a	n/a	n/a	31	17	8	7	2
4741362	STOP	n/a	LTP207	ltpFR2	11	n/a	n/a	n/a	31	n/a	n/a	n/a	n/a
4744682	REC_START	n/a	LTP207	ltpFR2	11	21	n/a	n/a	n/a	n/a	0	0	0
4745559	REC_WORD	wordpools/wasnorm_wordpool_576.txt	LTP207	ltpFR2	11	21	MAPLE	866	n/a	n/a	0	0	0
4750864	REC_WORD	wordpools/wasnorm_wordpool_576.txt	LTP207	ltpFR2	11	21	JUNGLE	764	n/a	n/a	0	0	0
4752417	REC_WORD	wordpools/wasnorm_wordpool_576.txt	LTP207	ltpFR2	11	21	CROSS	413	n/a	n/a	0	0	0
4754483	REC_WORD	wordpools/wasnorm_wordpool_576.txt	LTP207	ltpFR2	11	21	HAMPER	682	n/a	n/a	0	0	0
4872663	DISTRACTOR	n/a	LTP207	ltpFR2	11	22	n/a	n/a	n/a	n/a	0	0	0
4872663	START	n/a	LTP207	ltpFR2	11	n/a	n/a	n/a	32	n/a	n/a	n/a	n/a
4872713	PROB	n/a	LTP207	ltpFR2	11	n/a	n/a	n/a	32	18	4	6	8
4874058	PROB	n/a	LTP207	ltpFR2	11	n/a	n/a	n/a	32	19	5	6	8
4875440	PROB	n/a	LTP207	ltpFR2	11	n/a	n/a	n/a	32	11	6	3	2
4876686	PROB	n/a	LTP207	ltpFR2	11	n/a	n/a	n/a	32	19	7	9	3
4878023	PROB	n/a	LTP207	ltpFR2	11	n/a	n/a	n/a	32	14	5	1	8
4879430	PROB	n/a	LTP207	ltpFR2	11	n/a	n/a	n/a	32	21	5	8	8
4880710	PROB	n/a	LTP207	ltpFR2	11	n/a	n/a	n/a	32	14	8	3	3
4882064	PROB	n/a	LTP207	ltpFR2	11	n/a	n/a	n/a	32	21	8	5	8
4884508	PROB	n/a	LTP207	ltpFR2	11	n/a	n/a	n/a	32	15	5	9	1
4885629	PROB	n/a	LTP207	ltpFR2	11	n/a	n/a	n/a	32	11	1	3	7
4886699	PROB	n/a	LTP207	ltpFR2	11	n/a	n/a	n/a	32	18	4	5	9
4888020	PROB	n/a	LTP207	ltpFR2	11	n/a	n/a	n/a	32	23	8	7	8
4889752	PROB	n/a	LTP207	ltpFR2	11	n/a	n/a	n/a	32	11	1	7	3
4890973	PROB	n/a	LTP207	ltpFR2	11	n/a	n/a	n/a	32	10	1	4	5
4893826	PROB	n/a	LTP207	ltpFR2	11	n/a	n/a	n/a	32	7	1	2	4
4894980	PROB	n/a	LTP207	ltpFR2	11	n/a	n/a	n/a	32	10	1	5	4
4896105	STOP	n/a	LTP207	ltpFR2	11	n/a	n/a	n/a	32	n/a	n/a	n/a	n/a
4897607	WORD	wordpools/wasnorm_wordpool_576.txt	LTP207	ltpFR2	11	22	FLASHLIGHT	575	n/a	n/a	0	0	0
4900173	WORD	wordpools/wasnorm_wordpool_576.txt	LTP207	ltpFR2	11	22	HANDBAG	684	n/a	n/a	0	0	0
4902877	WORD	wordpools/wasnorm_wordpool_576.txt	LTP207	ltpFR2	11	22	MOP	916	n/a	n/a	0	0	0
4905695	WORD	wordpools/wasnorm_wordpool_576.txt	LTP207	ltpFR2	11	22	AUTHOR	61	n/a	n/a	0	0	0
4908422	WORD	wordpools/wasnorm_wordpool_576.txt	LTP207	ltpFR2	11	22	OUTDOORS	987	n/a	n/a	0	0	0
4911198	WORD	wordpools/wasnorm_wordpool_576.txt	LTP207	ltpFR2	11	22	HAWK	692	n/a	n/a	0	0	0
4913809	WORD	wordpools/wasnorm_wordpool_576.txt	LTP207	ltpFR2	11	22	WAGON	1578	n/a	n/a	0	0	0
4916536	WORD	wordpools/wasnorm_wordpool_576.txt	LTP207	ltpFR2	11	22	TRUCK	1512	n/a	n/a	0	0	0
4918979	WORD	wordpools/wasnorm_wordpool_576.txt	LTP207	ltpFR2	11	22	TWISTER	1530	n/a	n/a	0	0	0
4921698	WORD	wordpools/wasnorm_wordpool_576.txt	LTP207	ltpFR2	11	22	ATOM	55	n/a	n/a	0	0	0
4924399	WORD	wordpools/wasnorm_wordpool_576.txt	LTP207	ltpFR2	11	22	TEACHER	1440	n/a	n/a	0	0	0
4927075	WORD	wordpools/wasnorm_wordpool_576.txt	LTP207	ltpFR2	11	22	COIN	343	n/a	n/a	0	0	0
4929753	WORD	wordpools/wasnorm_wordpool_576.txt	LTP207	ltpFR2	11	22	PASSAGE	1019	n/a	n/a	0	0	0
4932261	WORD	wordpools/wasnorm_wordpool_576.txt	LTP207	ltpFR2	11	22	RABBIT	1152	n/a	n/a	0	0	0
4934997	WORD	wordpools/wasnorm_wordpool_576.txt	LTP207	ltpFR2	11	22	FOX	598	n/a	n/a	0	0	0
4937457	WORD	wordpools/wasnorm_wordpool_576.txt	LTP207	ltpFR2	11	22	GARDEN	623	n/a	n/a	0	0	0
4939983	WORD	wordpools/wasnorm_wordpool_576.txt	LTP207	ltpFR2	11	22	GRILL	661	n/a	n/a	0	0	0
4942510	WORD	wordpools/wasnorm_wordpool_576.txt	LTP207	ltpFR2	11	22	TURTLE	1522	n/a	n/a	0	0	0
4944985	WORD	wordpools/wasnorm_wordpool_576.txt	LTP207	ltpFR2	11	22	IGLOO	734	n/a	n/a	0	0	0
4947486	WORD	wordpools/wasnorm_wordpool_576.txt	LTP207	ltpFR2	11	22	BEAVER	109	n/a	n/a	0	0	0
4949921	WORD	wordpools/wasnorm_wordpool_576.txt	LTP207	ltpFR2	11	22	CHAMPAGNE	278	n/a	n/a	0	0	0
4952539	WORD	wordpools/wasnorm_wordpool_576.txt	LTP207	ltpFR2	11	22	COCKTAIL	338	n/a	n/a	0	0	0
4955248	WORD	wordpools/wasnorm_wordpool_576.txt	LTP207	ltpFR2	11	22	POSSUM	1112	n/a	n/a	0	0	0
4958034	WORD	wordpools/wasnorm_wordpool_576.txt	LTP207	ltpFR2	11	22	HOUND	724	n/a	n/a	0	0	0
4959649	START	n/a	LTP207	ltpFR2	11	n/a	n/a	n/a	33	n/a	n/a	n/a	n/a
4960722	DISTRACTOR	n/a	LTP207	ltpFR2	11	22	n/a	n/a	n/a	n/a	0	0	0
4960736	PROB	n/a	LTP207	ltpFR2	11	n/a	n/a	n/a	33	16	2	8	6
4962636	PROB	n/a	LTP207	ltpFR2	11	n/a	n/a	n/a	33	11	9	1	1
4963714	PROB	n/a	LTP207	ltpFR2	11	n/a	n/a	n/a	33	18	8	3	7
4964984	PROB	n/a	LTP207	ltpFR2	11	n/a	n/a	n/a	33	26	9	9	8
4966357	PROB	n/a	LTP207	ltpFR2	11	n/a	n/a	n/a	33	13	3	7	3
4967545	PROB	n/a	LTP207	ltpFR2	11	n/a	n/a	n/a	33	12	8	1	4
4968599	PROB	n/a	LTP207	ltpFR2	11	n/a	n/a	n/a	33	8	1	5	2
4970289	PROB	n/a	LTP207	ltpFR2	11	n/a	n/a	n/a	33	11	2	8	1
4971419	PROB	n/a	LTP207	ltpFR2	11	n/a	n/a	n/a	33	15	7	3	5
4972413	PROB	n/a	LTP207	ltpFR2	11	n/a	n/a	n/a	33	11	1	8	2
4973493	PROB	n/a	LTP207	ltpFR2	11	n/a	n/a	n/a	33	24	9	7	8
4975098	PROB	n/a	LTP207	ltpFR2	11	n/a	n/a	n/a	33	7	1	4	2
4976462	PROB	n/a	LTP207	ltpFR2	11	n/a	n/a	n/a	33	18	4	5	9
4977566	PROB	n/a	LTP207	ltpFR2	11	n/a	n/a	n/a	33	8	4	1	3
4978897	PROB	n/a	LTP207	ltpFR2	11	n/a	n/a	n/a	33	16	6	7	3
4980184	PROB	n/a	LTP207	ltpFR2	11	n/a	n/a	n/a	33	14	5	4	5
4981640	PROB	n/a	LTP207	ltpFR2	11	n/a	n/a	n/a	33	10	4	1	5
4982985	STOP	n/a	LTP207	ltpFR2	11	n/a	n/a	n/a	33	n/a	n/a	n/a	n/a
4985473	REC_START	n/a	LTP207	ltpFR2	11	22	n/a	n/a	n/a	n/a	0	0	0
4986647	REC_WORD	wordpools/wasnorm_wordpool_576.txt	LTP207	ltpFR2	11	22	FLASHLIGHT	575	n/a	n/a	0	0	0
4987514	REC_WORD	wordpools/wasnorm_wordpool_576.txt	LTP207	ltpFR2	11	22	HANDBAG	684	n/a	n/a	0	0	0
4989108	REC_WORD	wordpools/wasnorm_wordpool_576.txt	LTP207	ltpFR2	11	22	BEAVER	109	n/a	n/a	0	0	0
4990617	REC_WORD	wordpools/wasnorm_wordpool_576.txt	LTP207	ltpFR2	11	22	POSSUM	1112	n/a	n/a	0	0	0
4999579	REC_WORD	wordpools/wasnorm_wordpool_576.txt	LTP207	ltpFR2	11	22	CHAMPAGNE	278	n/a	n/a	0	0	0
5002079	REC_WORD	wordpools/wasnorm_wordpool_576.txt	LTP207	ltpFR2	11	22	HOUND	724	n/a	n/a	0	0	0
5006602	REC_WORD	wordpools/wasnorm_wordpool_576.txt	LTP207	ltpFR2	11	22	MOP	916	n/a	n/a	0	0	0
5076598	WORD	wordpools/wasnorm_wordpool_576.txt	LTP207	ltpFR2	11	23	TURNIP	1521	n/a	n/a	0	0	0
5079409	WORD	wordpools/wasnorm_wordpool_576.txt	LTP207	ltpFR2	11	23	HOOD	714	n/a	n/a	0	0	0
5081969	WORD	wordpools/wasnorm_wordpool_576.txt	LTP207	ltpFR2	11	23	TRIBE	1505	n/a	n/a	0	0	0
5084687	WORD	wordpools/wasnorm_wordpool_576.txt	LTP207	ltpFR2	11	23	COWBOY	395	n/a	n/a	0	0	0
5087212	WORD	wordpools/wasnorm_wordpool_576.txt	LTP207	ltpFR2	11	23	MARROW	872	n/a	n/a	0	0	0
5089815	WORD	wordpools/wasnorm_wordpool_576.txt	LTP207	ltpFR2	11	23	GHETTO	633	n/a	n/a	0	0	0
5092291	WORD	wordpools/wasnorm_wordpool_576.txt	LTP207	ltpFR2	11	23	CLAMP	316	n/a	n/a	0	0	0
5094758	WORD	wordpools/wasnorm_wordpool_576.txt	LTP207	ltpFR2	11	23	COFFEE	341	n/a	n/a	0	0	0
5097435	WORD	wordpools/wasnorm_wordpool_576.txt	LTP207	ltpFR2	11	23	PANTHER	1009	n/a	n/a	0	0	0
5100211	WORD	wordpools/wasnorm_wordpool_576.txt	LTP207	ltpFR2	11	23	WITNESS	1618	n/a	n/a	0	0	0
5102898	WORD	wordpools/wasnorm_wordpool_576.txt	LTP207	ltpFR2	11	23	BANJO	82	n/a	n/a	0	0	0
