mstime	trial_type	stim_file	subject	experiment	session	trial	task	item_name	item_num	recog_resp	recog_conf	resp	answer	test_x	test_y	test_z	color_r	color_g	color_b	case	font
0	SESS_START	n/a	LTP196	ltpFR	10	n/a	n/a	n/a	n/a	0	2	n/a	n/a	0	0	0	n/a	n/a	n/a	n/a	n/a
33020	START	n/a	LTP196	ltpFR	10	n/a	n/a	n/a	n/a	n/a	n/a	n/a	n/a	n/a	n/a	n/a	n/a	n/a	n/a	n/a	n/a
33053	PROB	n/a	LTP196	ltpFR	10	n/a	n/a	n/a	n/a	n/a	n/a	n/a	6	1	2	3	n/a	n/a	n/a	n/a	n/a
35832	PROB	n/a	LTP196	ltpFR	10	n/a	n/a	n/a	n/a	n/a	n/a	n/a	14	8	4	2	n/a	n/a	n/a	n/a	n/a
37680	PROB	n/a	LTP196	ltpFR	10	n/a	n/a	n/a	n/a	n/a	n/a	n/a	18	9	8	1	n/a	n/a	n/a	n/a	n/a
39345	PROB	n/a	LTP196	ltpFR	10	n/a	n/a	n/a	n/a	n/a	n/a	n/a	15	7	3	5	n/a	n/a	n/a	n/a	n/a
40758	PROB	n/a	LTP196	ltpFR	10	n/a	n/a	n/a	n/a	n/a	n/a	n/a	5	2	2	1	n/a	n/a	n/a	n/a	n/a
41956	PROB	n/a	LTP196	ltpFR	10	n/a	n/a	n/a	n/a	n/a	n/a	n/a	15	1	5	9	n/a	n/a	n/a	n/a	n/a
43472	PROB	n/a	LTP196	ltpFR	10	n/a	n/a	n/a	n/a	n/a	n/a	n/a	17	5	5	7	n/a	n/a	n/a	n/a	n/a
45035	PROB	n/a	LTP196	ltpFR	10	n/a	n/a	n/a	n/a	n/a	n/a	n/a	14	4	7	3	n/a	n/a	n/a	n/a	n/a
46633	PROB	n/a	LTP196	ltpFR	10	n/a	n/a	n/a	n/a	n/a	n/a	n/a	25	6	9	9	n/a	n/a	n/a	n/a	n/a
48979	PROB	n/a	LTP196	ltpFR	10	n/a	n/a	n/a	n/a	n/a	n/a	n/a	13	1	6	6	n/a	n/a	n/a	n/a	n/a
50743	PROB	n/a	LTP196	ltpFR	10	n/a	n/a	n/a	n/a	n/a	n/a	n/a	11	1	4	6	n/a	n/a	n/a	n/a	n/a
52485	STOP	n/a	LTP196	ltpFR	10	n/a	n/a	n/a	n/a	n/a	n/a	n/a	n/a	n/a	n/a	n/a	n/a	n/a	n/a	n/a	n/a
85343	START	n/a	LTP196	ltpFR	10	n/a	n/a	n/a	n/a	n/a	n/a	n/a	n/a	n/a	n/a	n/a	n/a	n/a	n/a	n/a	n/a
86856	PROB	n/a	LTP196	ltpFR	10	n/a	n/a	n/a	n/a	n/a	n/a	n/a	12	8	1	3	n/a	n/a	n/a	n/a	n/a
88853	PROB	n/a	LTP196	ltpFR	10	n/a	n/a	n/a	n/a	n/a	n/a	n/a	17	4	5	8	n/a	n/a	n/a	n/a	n/a
92501	STOP	n/a	LTP196	ltpFR	10	n/a	n/a	n/a	n/a	n/a	n/a	n/a	n/a	n/a	n/a	n/a	n/a	n/a	n/a	n/a	n/a
94396	WORD	wordpools/wasnorm_wordpool_less_exclusions.txt	LTP196	ltpFR	10	1	0	BRANDY	169	0	n/a	0	n/a	0	0	0	0.422607421875	0.5869140625	0	lower	zerothre.ttf
97408	START	n/a	LTP196	ltpFR	10	n/a	n/a	n/a	n/a	n/a	n/a	n/a	n/a	n/a	n/a	n/a	n/a	n/a	n/a	n/a	n/a
98407	PROB	n/a	LTP196	ltpFR	10	n/a	n/a	n/a	n/a	n/a	n/a	n/a	8	1	3	4	n/a	n/a	n/a	n/a	n/a
101701	PROB	n/a	LTP196	ltpFR	10	n/a	n/a	n/a	n/a	n/a	n/a	n/a	11	2	3	6	n/a	n/a	n/a	n/a	n/a
103956	STOP	n/a	LTP196	ltpFR	10	n/a	n/a	n/a	n/a	n/a	n/a	n/a	n/a	n/a	n/a	n/a	n/a	n/a	n/a	n/a	n/a
106478	WORD	wordpools/wasnorm_wordpool_less_exclusions.txt	LTP196	ltpFR	10	1	0	LIME	823	n/a	n/a	0	n/a	0	0	0	0.422607421875	0.5869140625	0	lower	zerothre.ttf
109490	START	n/a	LTP196	ltpFR	10	n/a	n/a	n/a	n/a	n/a	n/a	n/a	n/a	n/a	n/a	n/a	n/a	n/a	n/a	n/a	n/a
110670	PROB	n/a	LTP196	ltpFR	10	n/a	n/a	n/a	n/a	n/a	n/a	n/a	22	9	8	5	n/a	n/a	n/a	n/a	n/a
113766	PROB	n/a	LTP196	ltpFR	10	n/a	n/a	n/a	n/a	n/a	n/a	n/a	18	9	2	7	n/a	n/a	n/a	n/a	n/a
116028	STOP	n/a	LTP196	ltpFR	10	n/a	n/a	n/a	n/a	n/a	n/a	n/a	n/a	n/a	n/a	n/a	n/a	n/a	n/a	n/a	n/a
118443	WORD	wordpools/wasnorm_wordpool_less_exclusions.txt	LTP196	ltpFR	10	1	0	ELM	527	n/a	n/a	1	n/a	0	0	0	0.422607421875	0.5869140625	0	lower	zerothre.ttf
121456	START	n/a	LTP196	ltpFR	10	n/a	n/a	n/a	n/a	n/a	n/a	n/a	n/a	n/a	n/a	n/a	n/a	n/a	n/a	n/a	n/a
122471	PROB	n/a	LTP196	ltpFR	10	n/a	n/a	n/a	n/a	n/a	n/a	n/a	14	4	1	9	n/a	n/a	n/a	n/a	n/a
124301	PROB	n/a	LTP196	ltpFR	10	n/a	n/a	n/a	n/a	n/a	n/a	n/a	13	7	2	4	n/a	n/a	n/a	n/a	n/a
127029	PROB	n/a	LTP196	ltpFR	10	n/a	n/a	n/a	n/a	n/a	n/a	n/a	13	4	7	2	n/a	n/a	n/a	n/a	n/a
128908	STOP	n/a	LTP196	ltpFR	10	n/a	n/a	n/a	n/a	n/a	n/a	n/a	n/a	n/a	n/a	n/a	n/a	n/a	n/a	n/a	n/a
130276	WORD	wordpools/wasnorm_wordpool_less_exclusions.txt	LTP196	ltpFR	10	1	0	KNIGHT	786	n/a	n/a	1	n/a	0	0	0	0.422607421875	0.5869140625	0	lower	zerothre.ttf
133288	START	n/a	LTP196	ltpFR	10	n/a	n/a	n/a	n/a	n/a	n/a	n/a	n/a	n/a	n/a	n/a	n/a	n/a	n/a	n/a	n/a
134253	PROB	n/a	LTP196	ltpFR	10	n/a	n/a	n/a	n/a	n/a	n/a	n/a	10	7	1	2	n/a	n/a	n/a	n/a	n/a
135866	PROB	n/a	LTP196	ltpFR	10	n/a	n/a	n/a	n/a	n/a	n/a	n/a	19	9	6	4	n/a	n/a	n/a	n/a	n/a
137481	PROB	n/a	LTP196	ltpFR	10	n/a	n/a	n/a	n/a	n/a	n/a	n/a	15	1	5	9	n/a	n/a	n/a	n/a	n/a
141288	STOP	n/a	LTP196	ltpFR	10	n/a	n/a	n/a	n/a	n/a	n/a	n/a	n/a	n/a	n/a	n/a	n/a	n/a	n/a	n/a	n/a
142141	WORD	wordpools/wasnorm_wordpool_less_exclusions.txt	LTP196	ltpFR	10	1	0	ELECTRICIAN	521	n/a	n/a	1	n/a	0	0	0	0.422607421875	0.5869140625	0	lower	zerothre.ttf
145154	START	n/a	LTP196	ltpFR	10	n/a	n/a	n/a	n/a	n/a	n/a	n/a	n/a	n/a	n/a	n/a	n/a	n/a	n/a	n/a	n/a
146285	PROB	n/a	LTP196	ltpFR	10	n/a	n/a	n/a	n/a	n/a	n/a	n/a	4	1	2	1	n/a	n/a	n/a	n/a	n/a
148015	PROB	n/a	LTP196	ltpFR	10	n/a	n/a	n/a	n/a	n/a	n/a	n/a	14	4	8	2	n/a	n/a	n/a	n/a	n/a
149579	PROB	n/a	LTP196	ltpFR	10	n/a	n/a	n/a	n/a	n/a	n/a	n/a	8	2	2	4	n/a	n/a	n/a	n/a	n/a
153149	STOP	n/a	LTP196	ltpFR	10	n/a	n/a	n/a	n/a	n/a	n/a	n/a	n/a	n/a	n/a	n/a	n/a	n/a	n/a	n/a	n/a
154206	WORD	wordpools/wasnorm_wordpool_less_exclusions.txt	LTP196	ltpFR	10	1	0	FLASHLIGHT	575	n/a	n/a	0	n/a	0	0	0	0.422607421875	0.5869140625	0	lower	zerothre.ttf
157219	START	n/a	LTP196	ltpFR	10	n/a	n/a	n/a	n/a	n/a	n/a	n/a	n/a	n/a	n/a	n/a	n/a	n/a	n/a	n/a	n/a
158317	PROB	n/a	LTP196	ltpFR	10	n/a	n/a	n/a	n/a	n/a	n/a	n/a	19	3	7	9	n/a	n/a	n/a	n/a	n/a
160862	PROB	n/a	LTP196	ltpFR	10	n/a	n/a	n/a	n/a	n/a	n/a	n/a	20	5	9	6	n/a	n/a	n/a	n/a	n/a
163692	STOP	n/a	LTP196	ltpFR	10	n/a	n/a	n/a	n/a	n/a	n/a	n/a	n/a	n/a	n/a	n/a	n/a	n/a	n/a	n/a	n/a
166038	WORD	wordpools/wasnorm_wordpool_less_exclusions.txt	LTP196	ltpFR	10	1	1	WILDERNESS	1610	n/a	n/a	0	n/a	0	0	0	0.57763671875	0.412841796875	1	upper	amplitud.ttf
169050	START	n/a	LTP196	ltpFR	10	n/a	n/a	n/a	n/a	n/a	n/a	n/a	n/a	n/a	n/a	n/a	n/a	n/a	n/a	n/a	n/a
170082	PROB	n/a	LTP196	ltpFR	10	n/a	n/a	n/a	n/a	n/a	n/a	n/a	18	6	5	7	n/a	n/a	n/a	n/a	n/a
172180	PROB	n/a	LTP196	ltpFR	10	n/a	n/a	n/a	n/a	n/a	n/a	n/a	6	4	1	1	n/a	n/a	n/a	n/a	n/a
173793	PROB	n/a	LTP196	ltpFR	10	n/a	n/a	n/a	n/a	n/a	n/a	n/a	16	5	2	9	n/a	n/a	n/a	n/a	n/a
176221	STOP	n/a	LTP196	ltpFR	10	n/a	n/a	n/a	n/a	n/a	n/a	n/a	n/a	n/a	n/a	n/a	n/a	n/a	n/a	n/a	n/a
178221	WORD	wordpools/wasnorm_wordpool_less_exclusions.txt	LTP196	ltpFR	10	1	1	PEDESTRIAN	1038	n/a	n/a	1	n/a	0	0	0	0.57763671875	0.412841796875	1	upper	amplitud.ttf
181233	START	n/a	LTP196	ltpFR	10	n/a	n/a	n/a	n/a	n/a	n/a	n/a	n/a	n/a	n/a	n/a	n/a	n/a	n/a	n/a	n/a
182081	PROB	n/a	LTP196	ltpFR	10	n/a	n/a	n/a	n/a	n/a	n/a	n/a	10	4	4	2	n/a	n/a	n/a	n/a	n/a
184511	PROB	n/a	LTP196	ltpFR	10	n/a	n/a	n/a	n/a	n/a	n/a	n/a	15	1	5	9	n/a	n/a	n/a	n/a	n/a
186175	PROB	n/a	LTP196	ltpFR	10	n/a	n/a	n/a	n/a	n/a	n/a	n/a	19	9	1	9	n/a	n/a	n/a	n/a	n/a
189233	STOP	n/a	LTP196	ltpFR	10	n/a	n/a	n/a	n/a	n/a	n/a	n/a	n/a	n/a	n/a	n/a	n/a	n/a	n/a	n/a	n/a
190236	WORD	wordpools/wasnorm_wordpool_less_exclusions.txt	LTP196	ltpFR	10	1	1	WHIP	1604	n/a	n/a	1	n/a	0	0	0	0.57763671875	0.412841796875	1	upper	amplitud.ttf
193249	START	n/a	LTP196	ltpFR	10	n/a	n/a	n/a	n/a	n/a	n/a	n/a	n/a	n/a	n/a	n/a	n/a	n/a	n/a	n/a	n/a
194180	PROB	n/a	LTP196	ltpFR	10	n/a	n/a	n/a	n/a	n/a	n/a	n/a	24	8	8	8	n/a	n/a	n/a	n/a	n/a
196527	PROB	n/a	LTP196	ltpFR	10	n/a	n/a	n/a	n/a	n/a	n/a	n/a	11	7	2	2	n/a	n/a	n/a	n/a	n/a
198341	PROB	n/a	LTP196	ltpFR	10	n/a	n/a	n/a	n/a	n/a	n/a	n/a	21	6	9	6	n/a	n/a	n/a	n/a	n/a
200572	STOP	n/a	LTP196	ltpFR	10	n/a	n/a	n/a	n/a	n/a	n/a	n/a	n/a	n/a	n/a	n/a	n/a	n/a	n/a	n/a	n/a
202118	WORD	wordpools/wasnorm_wordpool_less_exclusions.txt	LTP196	ltpFR	10	1	1	CHART	282	n/a	n/a	0	n/a	0	0	0	0.57763671875	0.412841796875	1	upper	amplitud.ttf
205131	START	n/a	LTP196	ltpFR	10	n/a	n/a	n/a	n/a	n/a	n/a	n/a	n/a	n/a	n/a	n/a	n/a	n/a	n/a	n/a	n/a
206028	PROB	n/a	LTP196	ltpFR	10	n/a	n/a	n/a	n/a	n/a	n/a	n/a	14	7	1	6	n/a	n/a	n/a	n/a	n/a
208442	PROB	n/a	LTP196	ltpFR	10	n/a	n/a	n/a	n/a	n/a	n/a	n/a	8	2	3	3	n/a	n/a	n/a	n/a	n/a
210323	PROB	n/a	LTP196	ltpFR	10	n/a	n/a	n/a	n/a	n/a	n/a	n/a	9	5	3	1	n/a	n/a	n/a	n/a	n/a
211892	STOP	n/a	LTP196	ltpFR	10	n/a	n/a	n/a	n/a	n/a	n/a	n/a	n/a	n/a	n/a	n/a	n/a	n/a	n/a	n/a	n/a
214100	WORD	wordpools/wasnorm_wordpool_less_exclusions.txt	LTP196	ltpFR	10	1	1	BUSH	202	n/a	n/a	1	n/a	0	0	0	0.57763671875	0.412841796875	1	upper	amplitud.ttf
217113	START	n/a	LTP196	ltpFR	10	n/a	n/a	n/a	n/a	n/a	n/a	n/a	n/a	n/a	n/a	n/a	n/a	n/a	n/a	n/a	n/a
218060	PROB	n/a	LTP196	ltpFR	10	n/a	n/a	n/a	n/a	n/a	n/a	n/a	21	9	4	8	n/a	n/a	n/a	n/a	n/a
220508	PROB	n/a	LTP196	ltpFR	10	n/a	n/a	n/a	n/a	n/a	n/a	n/a	14	6	5	3	n/a	n/a	n/a	n/a	n/a
225113	STOP	n/a	LTP196	ltpFR	10	n/a	n/a	n/a	n/a	n/a	n/a	n/a	n/a	n/a	n/a	n/a	n/a	n/a	n/a	n/a	n/a
225932	WORD	wordpools/wasnorm_wordpool_less_exclusions.txt	LTP196	ltpFR	10	1	1	SHARK	1275	n/a	n/a	1	n/a	0	0	0	0.57763671875	0.412841796875	1	upper	amplitud.ttf
228944	START	n/a	LTP196	ltpFR	10	n/a	n/a	n/a	n/a	n/a	n/a	n/a	n/a	n/a	n/a	n/a	n/a	n/a	n/a	n/a	n/a
229776	PROB	n/a	LTP196	ltpFR	10	n/a	n/a	n/a	n/a	n/a	n/a	n/a	20	9	9	2	n/a	n/a	n/a	n/a	n/a
231623	PROB	n/a	LTP196	ltpFR	10	n/a	n/a	n/a	n/a	n/a	n/a	n/a	8	3	1	4	n/a	n/a	n/a	n/a	n/a
233505	PROB	n/a	LTP196	ltpFR	10	n/a	n/a	n/a	n/a	n/a	n/a	n/a	12	2	4	6	n/a	n/a	n/a	n/a	n/a
236943	STOP	n/a	LTP196	ltpFR	10	n/a	n/a	n/a	n/a	n/a	n/a	n/a	n/a	n/a	n/a	n/a	n/a	n/a	n/a	n/a	n/a
237797	WORD	wordpools/wasnorm_wordpool_less_exclusions.txt	LTP196	ltpFR	10	1	0	WATERFALL	1595	n/a	n/a	1	n/a	0	0	0	0.422607421875	0.5869140625	0	lower	zerothre.ttf
240810	START	n/a	LTP196	ltpFR	10	n/a	n/a	n/a	n/a	n/a	n/a	n/a	n/a	n/a	n/a	n/a	n/a	n/a	n/a	n/a	n/a
241708	PROB	n/a	LTP196	ltpFR	10	n/a	n/a	n/a	n/a	n/a	n/a	n/a	14	4	8	2	n/a	n/a	n/a	n/a	n/a
243473	PROB	n/a	LTP196	ltpFR	10	n/a	n/a	n/a	n/a	n/a	n/a	n/a	13	3	4	6	n/a	n/a	n/a	n/a	n/a
245337	PROB	n/a	LTP196	ltpFR	10	n/a	n/a	n/a	n/a	n/a	n/a	n/a	19	8	9	2	n/a	n/a	n/a	n/a	n/a
248809	STOP	n/a	LTP196	ltpFR	10	n/a	n/a	n/a	n/a	n/a	n/a	n/a	n/a	n/a	n/a	n/a	n/a	n/a	n/a	n/a	n/a
249829	WORD	wordpools/wasnorm_wordpool_less_exclusions.txt	LTP196	ltpFR	10	1	0	TIDE	1465	n/a	n/a	0	n/a	0	0	0	0.422607421875	0.5869140625	0	lower	zerothre.ttf
252842	START	n/a	LTP196	ltpFR	10	n/a	n/a	n/a	n/a	n/a	n/a	n/a	n/a	n/a	n/a	n/a	n/a	n/a	n/a	n/a	n/a
253940	PROB	n/a	LTP196	ltpFR	10	n/a	n/a	n/a	n/a	n/a	n/a	n/a	17	5	7	5	n/a	n/a	n/a	n/a	n/a
255654	PROB	n/a	LTP196	ltpFR	10	n/a	n/a	n/a	n/a	n/a	n/a	n/a	9	5	3	1	n/a	n/a	n/a	n/a	n/a
258067	PROB	n/a	LTP196	ltpFR	10	n/a	n/a	n/a	n/a	n/a	n/a	n/a	10	5	2	3	n/a	n/a	n/a	n/a	n/a
260109	STOP	n/a	LTP196	ltpFR	10	n/a	n/a	n/a	n/a	n/a	n/a	n/a	n/a	n/a	n/a	n/a	n/a	n/a	n/a	n/a	n/a
262011	WORD	wordpools/wasnorm_wordpool_less_exclusions.txt	LTP196	ltpFR	10	1	1	SALOON	1228	n/a	n/a	n/a	n/a	0	0	0	0.57763671875	0.412841796875	1	upper	amplitud.ttf
265040	SLOW_MSG	n/a	LTP196	ltpFR	10	1	n/a	n/a	n/a	n/a	n/a	n/a	n/a	0	0	0	n/a	n/a	n/a	n/a	n/a
266571	START	n/a	LTP196	ltpFR	10	n/a	n/a	n/a	n/a	n/a	n/a	n/a	n/a	n/a	n/a	n/a	n/a	n/a	n/a	n/a	n/a
267521	PROB	n/a	LTP196	ltpFR	10	n/a	n/a	n/a	n/a	n/a	n/a	n/a	11	1	9	1	n/a	n/a	n/a	n/a	n/a
268967	PROB	n/a	LTP196	ltpFR	10	n/a	n/a	n/a	n/a	n/a	n/a	n/a	12	2	9	1	n/a	n/a	n/a	n/a	n/a
271465	PROB	n/a	LTP196	ltpFR	10	n/a	n/a	n/a	n/a	n/a	n/a	n/a	13	2	8	3	n/a	n/a	n/a	n/a	n/a
273173	STOP	n/a	LTP196	ltpFR	10	n/a	n/a	n/a	n/a	n/a	n/a	n/a	n/a	n/a	n/a	n/a	n/a	n/a	n/a	n/a	n/a
275558	WORD	wordpools/wasnorm_wordpool_less_exclusions.txt	LTP196	ltpFR	10	1	1	PLUM	1090	n/a	n/a	0	n/a	0	0	0	0.57763671875	0.412841796875	1	upper	amplitud.ttf
278570	START	n/a	LTP196	ltpFR	10	n/a	n/a	n/a	n/a	n/a	n/a	n/a	n/a	n/a	n/a	n/a	n/a	n/a	n/a	n/a	n/a
279552	PROB	n/a	LTP196	ltpFR	10	n/a	n/a	n/a	n/a	n/a	n/a	n/a	12	3	5	4	n/a	n/a	n/a	n/a	n/a
283180	PROB	n/a	LTP196	ltpFR	10	n/a	n/a	n/a	n/a	n/a	n/a	n/a	17	6	3	8	n/a	n/a	n/a	n/a	n/a
285333	STOP	n/a	LTP196	ltpFR	10	n/a	n/a	n/a	n/a	n/a	n/a	n/a	n/a	n/a	n/a	n/a	n/a	n/a	n/a	n/a	n/a
288373	REC_START	n/a	LTP196	ltpFR	10	1	n/a	n/a	n/a	n/a	n/a	n/a	n/a	0	0	0	n/a	n/a	n/a	n/a	n/a
290902	REC_WORD	wordpools/wasnorm_wordpool_less_exclusions.txt	LTP196	ltpFR	10	1	1	PLUM	1090	n/a	n/a	0	n/a	0	0	0	n/a	n/a	n/a	n/a	n/a
293446	REC_WORD	wordpools/wasnorm_wordpool_less_exclusions.txt	LTP196	ltpFR	10	1	0	WATERFALL	1595	n/a	n/a	1	n/a	0	0	0	n/a	n/a	n/a	n/a	n/a
295038	REC_WORD	wordpools/wasnorm_wordpool_less_exclusions.txt	LTP196	ltpFR	10	1	1	WILDERNESS	1610	n/a	n/a	0	n/a	0	0	0	n/a	n/a	n/a	n/a	n/a
296038	REC_WORD_VV	wordpools/wasnorm_wordpool_less_exclusions.txt	LTP196	ltpFR	10	1	n/a	<>	-1	n/a	n/a	n/a	n/a	0	0	0	n/a	n/a	n/a	n/a	n/a
296863	REC_WORD	wordpools/wasnorm_wordpool_less_exclusions.txt	LTP196	ltpFR	10	1	1	BUSH	202	n/a	n/a	1	n/a	0	0	0	n/a	n/a	n/a	n/a	n/a
300321	REC_WORD	wordpools/wasnorm_wordpool_less_exclusions.txt	LTP196	ltpFR	10	1	1	CHART	282	n/a	n/a	0	n/a	0	0	0	n/a	n/a	n/a	n/a	n/a
305933	REC_WORD	wordpools/wasnorm_wordpool_less_exclusions.txt	LTP196	ltpFR	10	1	0	LIME	823	n/a	n/a	0	n/a	0	0	0	n/a	n/a	n/a	n/a	n/a
307839	REC_WORD	wordpools/wasnorm_wordpool_less_exclusions.txt	LTP196	ltpFR	10	1	n/a	TECHNICIAN	1443	n/a	n/a	n/a	n/a	0	0	0	n/a	n/a	n/a	n/a	n/a
309794	REC_WORD	wordpools/wasnorm_wordpool_less_exclusions.txt	LTP196	ltpFR	10	1	0	ELM	527	n/a	n/a	1	n/a	0	0	0	n/a	n/a	n/a	n/a	n/a
314269	REC_WORD	wordpools/wasnorm_wordpool_less_exclusions.txt	LTP196	ltpFR	10	1	0	FLASHLIGHT	575	n/a	n/a	0	n/a	0	0	0	n/a	n/a	n/a	n/a	n/a
322934	REC_WORD	wordpools/wasnorm_wordpool_less_exclusions.txt	LTP196	ltpFR	10	1	0	TIDE	1465	n/a	n/a	0	n/a	0	0	0	n/a	n/a	n/a	n/a	n/a
370134	WORD	wordpools/wasnorm_wordpool_less_exclusions.txt	LTP196	ltpFR	10	2	0	SAGE	1222	n/a	n/a	0	n/a	0	0	0	0.422607421875	0.5869140625	0	lower	zerothre.ttf
374344	WORD	wordpools/wasnorm_wordpool_less_exclusions.txt	LTP196	ltpFR	10	2	0	CLOVE	329	n/a	n/a	0	n/a	0	0	0	0.422607421875	0.5869140625	0	lower	zerothre.ttf
378272	WORD	wordpools/wasnorm_wordpool_less_exclusions.txt	LTP196	ltpFR	10	2	0	MARINE	869	n/a	n/a	1	n/a	0	0	0	0.422607421875	0.5869140625	0	lower	zerothre.ttf
382416	WORD	wordpools/wasnorm_wordpool_less_exclusions.txt	LTP196	ltpFR	10	2	0	CHAMPAGNE	278	n/a	n/a	0	n/a	0	0	0	0.422607421875	0.5869140625	0	lower	zerothre.ttf
386476	WORD	wordpools/wasnorm_wordpool_less_exclusions.txt	LTP196	ltpFR	10	2	0	ASTEROID	50	n/a	n/a	0	n/a	0	0	0	0.422607421875	0.5869140625	0	lower	zerothre.ttf
390552	WORD	wordpools/wasnorm_wordpool_less_exclusions.txt	LTP196	ltpFR	10	2	0	SNORKEL	1336	n/a	n/a	1	n/a	0	0	0	0.422607421875	0.5869140625	0	lower	zerothre.ttf
394498	WORD	wordpools/wasnorm_wordpool_less_exclusions.txt	LTP196	ltpFR	10	2	0	DIARY	460	n/a	n/a	0	n/a	0	0	0	0.422607421875	0.5869140625	0	lower	zerothre.ttf
398657	WORD	wordpools/wasnorm_wordpool_less_exclusions.txt	LTP196	ltpFR	10	2	0	TERRITORY	1452	n/a	n/a	1	n/a	0	0	0	0.422607421875	0.5869140625	0	lower	zerothre.ttf
402585	WORD	wordpools/wasnorm_wordpool_less_exclusions.txt	LTP196	ltpFR	10	2	0	JUG	762	n/a	n/a	0	n/a	0	0	0	0.422607421875	0.5869140625	0	lower	zerothre.ttf
406645	WORD	wordpools/wasnorm_wordpool_less_exclusions.txt	LTP196	ltpFR	10	2	0	SWITCH	1422	n/a	n/a	0	n/a	0	0	0	0.422607421875	0.5869140625	0	lower	zerothre.ttf
410855	WORD	wordpools/wasnorm_wordpool_less_exclusions.txt	LTP196	ltpFR	10	2	0	CHECKERS	285	n/a	n/a	0	n/a	0	0	0	0.422607421875	0.5869140625	0	lower	zerothre.ttf
415066	WORD	wordpools/wasnorm_wordpool_less_exclusions.txt	LTP196	ltpFR	10	2	0	PUCK	1138	n/a	n/a	0	n/a	0	0	0	0.422607421875	0.5869140625	0	lower	zerothre.ttf
419277	WORD	wordpools/wasnorm_wordpool_less_exclusions.txt	LTP196	ltpFR	10	2	0	ACROBAT	4	n/a	n/a	1	n/a	0	0	0	0.422607421875	0.5869140625	0	lower	zerothre.ttf
423388	WORD	wordpools/wasnorm_wordpool_less_exclusions.txt	LTP196	ltpFR	10	2	0	MASCARA	875	n/a	n/a	0	n/a	0	0	0	0.422607421875	0.5869140625	0	lower	zerothre.ttf
427332	WORD	wordpools/wasnorm_wordpool_less_exclusions.txt	LTP196	ltpFR	10	2	0	SHOE	1288	n/a	n/a	0	n/a	0	0	0	0.422607421875	0.5869140625	0	lower	zerothre.ttf
431526	WORD	wordpools/wasnorm_wordpool_less_exclusions.txt	LTP196	ltpFR	10	2	0	LACE	792	n/a	n/a	0	n/a	0	0	0	0.422607421875	0.5869140625	0	lower	zerothre.ttf
434538	START	n/a	LTP196	ltpFR	10	n/a	n/a	n/a	n/a	n/a	n/a	n/a	n/a	n/a	n/a	n/a	n/a	n/a	n/a	n/a	n/a
435520	PROB	n/a	LTP196	ltpFR	10	n/a	n/a	n/a	n/a	n/a	n/a	n/a	18	6	8	4	n/a	n/a	n/a	n/a	n/a
438432	PROB	n/a	LTP196	ltpFR	10	n/a	n/a	n/a	n/a	n/a	n/a	n/a	14	4	9	1	n/a	n/a	n/a	n/a	n/a
439762	PROB	n/a	LTP196	ltpFR	10	n/a	n/a	n/a	n/a	n/a	n/a	n/a	16	5	5	6	n/a	n/a	n/a	n/a	n/a
442538	STOP	n/a	LTP196	ltpFR	10	n/a	n/a	n/a	n/a	n/a	n/a	n/a	n/a	n/a	n/a	n/a	n/a	n/a	n/a	n/a	n/a
444474	REC_START	n/a	LTP196	ltpFR	10	2	n/a	n/a	n/a	n/a	n/a	n/a	n/a	0	0	0	n/a	n/a	n/a	n/a	n/a
447108	REC_WORD	wordpools/wasnorm_wordpool_less_exclusions.txt	LTP196	ltpFR	10	2	0	ACROBAT	4	n/a	n/a	1	n/a	0	0	0	n/a	n/a	n/a	n/a	n/a
448804	REC_WORD	wordpools/wasnorm_wordpool_less_exclusions.txt	LTP196	ltpFR	10	2	n/a	SHOELACE	1289	n/a	n/a	n/a	n/a	0	0	0	n/a	n/a	n/a	n/a	n/a
449804	REC_WORD_VV	wordpools/wasnorm_wordpool_less_exclusions.txt	LTP196	ltpFR	10	2	n/a	<>	-1	n/a	n/a	n/a	n/a	0	0	0	n/a	n/a	n/a	n/a	n/a
455688	REC_WORD	wordpools/wasnorm_wordpool_less_exclusions.txt	LTP196	ltpFR	10	2	0	MARINE	869	n/a	n/a	1	n/a	0	0	0	n/a	n/a	n/a	n/a	n/a
457734	REC_WORD	wordpools/wasnorm_wordpool_less_exclusions.txt	LTP196	ltpFR	10	2	0	TERRITORY	1452	n/a	n/a	1	n/a	0	0	0	n/a	n/a	n/a	n/a	n/a
459973	REC_WORD	wordpools/wasnorm_wordpool_less_exclusions.txt	LTP196	ltpFR	10	2	0	SNORKEL	1336	n/a	n/a	1	n/a	0	0	0	n/a	n/a	n/a	n/a	n/a
467531	REC_WORD	wordpools/wasnorm_wordpool_less_exclusions.txt	LTP196	ltpFR	10	2	0	ASTEROID	50	n/a	n/a	0	n/a	0	0	0	n/a	n/a	n/a	n/a	n/a
469731	REC_WORD	wordpools/wasnorm_wordpool_less_exclusions.txt	LTP196	ltpFR	10	2	0	JUG	762	n/a	n/a	0	n/a	0	0	0	n/a	n/a	n/a	n/a	n/a
471018	REC_WORD	wordpools/wasnorm_wordpool_less_exclusions.txt	LTP196	ltpFR	10	2	0	CHAMPAGNE	278	n/a	n/a	0	n/a	0	0	0	n/a	n/a	n/a	n/a	n/a
492819	REC_WORD	wordpools/wasnorm_wordpool_less_exclusions.txt	LTP196	ltpFR	10	2	0	DIARY	460	n/a	n/a	0	n/a	0	0	0	n/a	n/a	n/a	n/a	n/a
521724	START	n/a	LTP196	ltpFR	10	n/a	n/a	n/a	n/a	n/a	n/a	n/a	n/a	n/a	n/a	n/a	n/a	n/a	n/a	n/a	n/a
523239	PROB	n/a	LTP196	ltpFR	10	n/a	n/a	n/a	n/a	n/a	n/a	n/a	11	3	5	3	n/a	n/a	n/a	n/a	n/a
525369	PROB	n/a	LTP196	ltpFR	10	n/a	n/a	n/a	n/a	n/a	n/a	n/a	17	1	9	7	n/a	n/a	n/a	n/a	n/a
526849	PROB	n/a	LTP196	ltpFR	10	n/a	n/a	n/a	n/a	n/a	n/a	n/a	17	7	7	3	n/a	n/a	n/a	n/a	n/a
528946	PROB	n/a	LTP196	ltpFR	10	n/a	n/a	n/a	n/a	n/a	n/a	n/a	12	2	3	7	n/a	n/a	n/a	n/a	n/a
531360	PROB	n/a	LTP196	ltpFR	10	n/a	n/a	n/a	n/a	n/a	n/a	n/a	21	7	5	9	n/a	n/a	n/a	n/a	n/a
533938	PROB	n/a	LTP196	ltpFR	10	n/a	n/a	n/a	n/a	n/a	n/a	n/a	13	6	6	1	n/a	n/a	n/a	n/a	n/a
537724	STOP	n/a	LTP196	ltpFR	10	n/a	n/a	n/a	n/a	n/a	n/a	n/a	n/a	n/a	n/a	n/a	n/a	n/a	n/a	n/a	n/a
538931	WORD	wordpools/wasnorm_wordpool_less_exclusions.txt	LTP196	ltpFR	10	3	1	BUTTER	205	n/a	n/a	0	n/a	0	0	0	0.57763671875	0.412841796875	1	upper	amplitud.ttf
541943	START	n/a	LTP196	ltpFR	10	n/a	n/a	n/a	n/a	n/a	n/a	n/a	n/a	n/a	n/a	n/a	n/a	n/a	n/a	n/a	n/a
542808	PROB	n/a	LTP196	ltpFR	10	n/a	n/a	n/a	n/a	n/a	n/a	n/a	13	7	4	1	n/a	n/a	n/a	n/a	n/a
545156	PROB	n/a	LTP196	ltpFR	10	n/a	n/a	n/a	n/a	n/a	n/a	n/a	15	4	9	2	n/a	n/a	n/a	n/a	n/a
547834	PROB	n/a	LTP196	ltpFR	10	n/a	n/a	n/a	n/a	n/a	n/a	n/a	11	8	2	1	n/a	n/a	n/a	n/a	n/a
549466	PROB	n/a	LTP196	ltpFR	10	n/a	n/a	n/a	n/a	n/a	n/a	n/a	14	2	9	3	n/a	n/a	n/a	n/a	n/a
551530	PROB	n/a	LTP196	ltpFR	10	n/a	n/a	n/a	n/a	n/a	n/a	n/a	16	7	1	8	n/a	n/a	n/a	n/a	n/a
553493	PROB	n/a	LTP196	ltpFR	10	n/a	n/a	n/a	n/a	n/a	n/a	n/a	14	3	4	7	n/a	n/a	n/a	n/a	n/a
556055	PROB	n/a	LTP196	ltpFR	10	n/a	n/a	n/a	n/a	n/a	n/a	n/a	10	5	3	2	n/a	n/a	n/a	n/a	n/a
557772	STOP	n/a	LTP196	ltpFR	10	n/a	n/a	n/a	n/a	n/a	n/a	n/a	n/a	n/a	n/a	n/a	n/a	n/a	n/a	n/a	n/a
558901	WORD	wordpools/wasnorm_wordpool_less_exclusions.txt	LTP196	ltpFR	10	3	1	GLACIER	638	n/a	n/a	1	n/a	0	0	0	0.57763671875	0.412841796875	1	upper	amplitud.ttf
561914	START	n/a	LTP196	ltpFR	10	n/a	n/a	n/a	n/a	n/a	n/a	n/a	n/a	n/a	n/a	n/a	n/a	n/a	n/a	n/a	n/a
562729	PROB	n/a	LTP196	ltpFR	10	n/a	n/a	n/a	n/a	n/a	n/a	n/a	14	1	6	7	n/a	n/a	n/a	n/a	n/a
564609	PROB	n/a	LTP196	ltpFR	10	n/a	n/a	n/a	n/a	n/a	n/a	n/a	6	1	1	4	n/a	n/a	n/a	n/a	n/a
566274	PROB	n/a	LTP196	ltpFR	10	n/a	n/a	n/a	n/a	n/a	n/a	n/a	21	3	9	9	n/a	n/a	n/a	n/a	n/a
568105	PROB	n/a	LTP196	ltpFR	10	n/a	n/a	n/a	n/a	n/a	n/a	n/a	20	3	8	9	n/a	n/a	n/a	n/a	n/a
572299	PROB	n/a	LTP196	ltpFR	10	n/a	n/a	n/a	n/a	n/a	n/a	n/a	14	6	2	6	n/a	n/a	n/a	n/a	n/a
573962	PROB	n/a	LTP196	ltpFR	10	n/a	n/a	n/a	n/a	n/a	n/a	n/a	14	7	5	2	n/a	n/a	n/a	n/a	n/a
575759	PROB	n/a	LTP196	ltpFR	10	n/a	n/a	n/a	n/a	n/a	n/a	n/a	17	4	9	4	n/a	n/a	n/a	n/a	n/a
577596	STOP	n/a	LTP196	ltpFR	10	n/a	n/a	n/a	n/a	n/a	n/a	n/a	n/a	n/a	n/a	n/a	n/a	n/a	n/a	n/a	n/a
578838	WORD	wordpools/wasnorm_wordpool_less_exclusions.txt	LTP196	ltpFR	10	3	0	GOO	648	n/a	n/a	0	n/a	0	0	0	0.422607421875	0.5869140625	0	lower	zerothre.ttf
581850	START	n/a	LTP196	ltpFR	10	n/a	n/a	n/a	n/a	n/a	n/a	n/a	n/a	n/a	n/a	n/a	n/a	n/a	n/a	n/a	n/a
582865	PROB	n/a	LTP196	ltpFR	10	n/a	n/a	n/a	n/a	n/a	n/a	n/a	13	6	6	1	n/a	n/a	n/a	n/a	n/a
584896	PROB	n/a	LTP196	ltpFR	10	n/a	n/a	n/a	n/a	n/a	n/a	n/a	11	2	8	1	n/a	n/a	n/a	n/a	n/a
586478	PROB	n/a	LTP196	ltpFR	10	n/a	n/a	n/a	n/a	n/a	n/a	n/a	18	3	8	7	n/a	n/a	n/a	n/a	n/a
588723	PROB	n/a	LTP196	ltpFR	10	n/a	n/a	n/a	n/a	n/a	n/a	n/a	16	5	9	2	n/a	n/a	n/a	n/a	n/a
590538	PROB	n/a	LTP196	ltpFR	10	n/a	n/a	n/a	n/a	n/a	n/a	n/a	25	8	9	8	n/a	n/a	n/a	n/a	n/a
597849	STOP	n/a	LTP196	ltpFR	10	n/a	n/a	n/a	n/a	n/a	n/a	n/a	n/a	n/a	n/a	n/a	n/a	n/a	n/a	n/a	n/a
598875	WORD	wordpools/wasnorm_wordpool_less_exclusions.txt	LTP196	ltpFR	10	3	0	BUGGY	188	n/a	n/a	1	n/a	0	0	0	0.422607421875	0.5869140625	0	lower	zerothre.ttf
601887	START	n/a	LTP196	ltpFR	10	n/a	n/a	n/a	n/a	n/a	n/a	n/a	n/a	n/a	n/a	n/a	n/a	n/a	n/a	n/a	n/a
602719	PROB	n/a	LTP196	ltpFR	10	n/a	n/a	n/a	n/a	n/a	n/a	n/a	19	2	8	9	n/a	n/a	n/a	n/a	n/a
604716	PROB	n/a	LTP196	ltpFR	10	n/a	n/a	n/a	n/a	n/a	n/a	n/a	13	8	2	3	n/a	n/a	n/a	n/a	n/a
606563	PROB	n/a	LTP196	ltpFR	10	n/a	n/a	n/a	n/a	n/a	n/a	n/a	19	6	6	7	n/a	n/a	n/a	n/a	n/a
608893	PROB	n/a	LTP196	ltpFR	10	n/a	n/a	n/a	n/a	n/a	n/a	n/a	15	2	9	4	n/a	n/a	n/a	n/a	n/a
610923	PROB	n/a	LTP196	ltpFR	10	n/a	n/a	n/a	n/a	n/a	n/a	n/a	14	3	7	4	n/a	n/a	n/a	n/a	n/a
612505	PROB	n/a	LTP196	ltpFR	10	n/a	n/a	n/a	n/a	n/a	n/a	n/a	16	3	8	5	n/a	n/a	n/a	n/a	n/a
614601	PROB	n/a	LTP196	ltpFR	10	n/a	n/a	n/a	n/a	n/a	n/a	n/a	17	9	5	3	n/a	n/a	n/a	n/a	n/a
616509	STOP	n/a	LTP196	ltpFR	10	n/a	n/a	n/a	n/a	n/a	n/a	n/a	n/a	n/a	n/a	n/a	n/a	n/a	n/a	n/a	n/a
618928	WORD	wordpools/wasnorm_wordpool_less_exclusions.txt	LTP196	ltpFR	10	3	0	DIVER	476	n/a	n/a	1	n/a	0	0	0	0.422607421875	0.5869140625	0	lower	zerothre.ttf
621941	START	n/a	LTP196	ltpFR	10	n/a	n/a	n/a	n/a	n/a	n/a	n/a	n/a	n/a	n/a	n/a	n/a	n/a	n/a	n/a	n/a
623088	PROB	n/a	LTP196	ltpFR	10	n/a	n/a	n/a	n/a	n/a	n/a	n/a	12	1	8	3	n/a	n/a	n/a	n/a	n/a
625019	PROB	n/a	LTP196	ltpFR	10	n/a	n/a	n/a	n/a	n/a	n/a	n/a	18	8	2	8	n/a	n/a	n/a	n/a	n/a
626683	PROB	n/a	LTP196	ltpFR	10	n/a	n/a	n/a	n/a	n/a	n/a	n/a	16	2	9	5	n/a	n/a	n/a	n/a	n/a
628531	PROB	n/a	LTP196	ltpFR	10	n/a	n/a	n/a	n/a	n/a	n/a	n/a	12	1	4	7	n/a	n/a	n/a	n/a	n/a
632176	PROB	n/a	LTP196	ltpFR	10	n/a	n/a	n/a	n/a	n/a	n/a	n/a	15	2	7	6	n/a	n/a	n/a	n/a	n/a
634671	PROB	n/a	LTP196	ltpFR	10	n/a	n/a	n/a	n/a	n/a	n/a	n/a	19	8	9	2	n/a	n/a	n/a	n/a	n/a
636421	STOP	n/a	LTP196	ltpFR	10	n/a	n/a	n/a	n/a	n/a	n/a	n/a	n/a	n/a	n/a	n/a	n/a	n/a	n/a	n/a	n/a
639031	WORD	wordpools/wasnorm_wordpool_less_exclusions.txt	LTP196	ltpFR	10	3	0	STREAM	1392	n/a	n/a	1	n/a	0	0	0	0.422607421875	0.5869140625	0	lower	zerothre.ttf
642044	START	n/a	LTP196	ltpFR	10	n/a	n/a	n/a	n/a	n/a	n/a	n/a	n/a	n/a	n/a	n/a	n/a	n/a	n/a	n/a	n/a
642992	PROB	n/a	LTP196	ltpFR	10	n/a	n/a	n/a	n/a	n/a	n/a	n/a	16	6	3	7	n/a	n/a	n/a	n/a	n/a
644556	PROB	n/a	LTP196	ltpFR	10	n/a	n/a	n/a	n/a	n/a	n/a	n/a	11	5	4	2	n/a	n/a	n/a	n/a	n/a
647885	PROB	n/a	LTP196	ltpFR	10	n/a	n/a	n/a	n/a	n/a	n/a	n/a	5	3	1	1	n/a	n/a	n/a	n/a	n/a
649334	PROB	n/a	LTP196	ltpFR	10	n/a	n/a	n/a	n/a	n/a	n/a	n/a	15	3	6	3	n/a	n/a	n/a	n/a	n/a
651247	PROB	n/a	LTP196	ltpFR	10	n/a	n/a	n/a	n/a	n/a	n/a	n/a	11	3	7	1	n/a	n/a	n/a	n/a	n/a
653693	PROB	n/a	LTP196	ltpFR	10	n/a	n/a	n/a	n/a	n/a	n/a	n/a	8	5	1	2	n/a	n/a	n/a	n/a	n/a
656006	PROB	n/a	LTP196	ltpFR	10	n/a	n/a	n/a	n/a	n/a	n/a	n/a	19	8	2	9	n/a	n/a	n/a	n/a	n/a
657469	STOP	n/a	LTP196	ltpFR	10	n/a	n/a	n/a	n/a	n/a	n/a	n/a	n/a	n/a	n/a	n/a	n/a	n/a	n/a	n/a	n/a
658985	WORD	wordpools/wasnorm_wordpool_less_exclusions.txt	LTP196	ltpFR	10	3	0	LIVER	833	n/a	n/a	1	n/a	0	0	0	0.422607421875	0.5869140625	0	lower	zerothre.ttf
661997	START	n/a	LTP196	ltpFR	10	n/a	n/a	n/a	n/a	n/a	n/a	n/a	n/a	n/a	n/a	n/a	n/a	n/a	n/a	n/a	n/a
663079	PROB	n/a	LTP196	ltpFR	10	n/a	n/a	n/a	n/a	n/a	n/a	n/a	17	2	9	6	n/a	n/a	n/a	n/a	n/a
665642	PROB	n/a	LTP196	ltpFR	10	n/a	n/a	n/a	n/a	n/a	n/a	n/a	15	8	5	2	n/a	n/a	n/a	n/a	n/a
668172	PROB	n/a	LTP196	ltpFR	10	n/a	n/a	n/a	n/a	n/a	n/a	n/a	24	6	9	9	n/a	n/a	n/a	n/a	n/a
670751	PROB	n/a	LTP196	ltpFR	10	n/a	n/a	n/a	n/a	n/a	n/a	n/a	10	2	7	1	n/a	n/a	n/a	n/a	n/a
672764	PROB	n/a	LTP196	ltpFR	10	n/a	n/a	n/a	n/a	n/a	n/a	n/a	8	3	2	3	n/a	n/a	n/a	n/a	n/a
674745	PROB	n/a	LTP196	ltpFR	10	n/a	n/a	n/a	n/a	n/a	n/a	n/a	18	8	5	5	n/a	n/a	n/a	n/a	n/a
677997	STOP	n/a	LTP196	ltpFR	10	n/a	n/a	n/a	n/a	n/a	n/a	n/a	n/a	n/a	n/a	n/a	n/a	n/a	n/a	n/a	n/a
678922	WORD	wordpools/wasnorm_wordpool_less_exclusions.txt	LTP196	ltpFR	10	3	1	SICKLE	1302	n/a	n/a	0	n/a	0	0	0	0.57763671875	0.412841796875	1	upper	amplitud.ttf
681934	START	n/a	LTP196	ltpFR	10	n/a	n/a	n/a	n/a	n/a	n/a	n/a	n/a	n/a	n/a	n/a	n/a	n/a	n/a	n/a	n/a
683150	PROB	n/a	LTP196	ltpFR	10	n/a	n/a	n/a	n/a	n/a	n/a	n/a	14	4	1	9	n/a	n/a	n/a	n/a	n/a
684763	PROB	n/a	LTP196	ltpFR	10	n/a	n/a	n/a	n/a	n/a	n/a	n/a	9	4	4	1	n/a	n/a	n/a	n/a	n/a
686044	PROB	n/a	LTP196	ltpFR	10	n/a	n/a	n/a	n/a	n/a	n/a	n/a	17	8	1	8	n/a	n/a	n/a	n/a	n/a
687892	PROB	n/a	LTP196	ltpFR	10	n/a	n/a	n/a	n/a	n/a	n/a	n/a	12	4	3	5	n/a	n/a	n/a	n/a	n/a
689939	PROB	n/a	LTP196	ltpFR	10	n/a	n/a	n/a	n/a	n/a	n/a	n/a	14	2	3	9	n/a	n/a	n/a	n/a	n/a
691719	PROB	n/a	LTP196	ltpFR	10	n/a	n/a	n/a	n/a	n/a	n/a	n/a	11	5	1	5	n/a	n/a	n/a	n/a	n/a
693034	PROB	n/a	LTP196	ltpFR	10	n/a	n/a	n/a	n/a	n/a	n/a	n/a	17	4	6	7	n/a	n/a	n/a	n/a	n/a
694598	PROB	n/a	LTP196	ltpFR	10	n/a	n/a	n/a	n/a	n/a	n/a	n/a	8	4	1	3	n/a	n/a	n/a	n/a	n/a
696437	STOP	n/a	LTP196	ltpFR	10	n/a	n/a	n/a	n/a	n/a	n/a	n/a	n/a	n/a	n/a	n/a	n/a	n/a	n/a	n/a	n/a
698892	WORD	wordpools/wasnorm_wordpool_less_exclusions.txt	LTP196	ltpFR	10	3	1	OWL	992	n/a	n/a	1	n/a	0	0	0	0.57763671875	0.412841796875	1	upper	amplitud.ttf
701905	START	n/a	LTP196	ltpFR	10	n/a	n/a	n/a	n/a	n/a	n/a	n/a	n/a	n/a	n/a	n/a	n/a	n/a	n/a	n/a	n/a
702952	PROB	n/a	LTP196	ltpFR	10	n/a	n/a	n/a	n/a	n/a	n/a	n/a	12	5	3	4	n/a	n/a	n/a	n/a	n/a
705599	PROB	n/a	LTP196	ltpFR	10	n/a	n/a	n/a	n/a	n/a	n/a	n/a	15	3	4	8	n/a	n/a	n/a	n/a	n/a
707962	PROB	n/a	LTP196	ltpFR	10	n/a	n/a	n/a	n/a	n/a	n/a	n/a	10	1	5	4	n/a	n/a	n/a	n/a	n/a
710392	PROB	n/a	LTP196	ltpFR	10	n/a	n/a	n/a	n/a	n/a	n/a	n/a	19	8	4	7	n/a	n/a	n/a	n/a	n/a
712240	PROB	n/a	LTP196	ltpFR	10	n/a	n/a	n/a	n/a	n/a	n/a	n/a	17	3	8	6	n/a	n/a	n/a	n/a	n/a
714486	PROB	n/a	LTP196	ltpFR	10	n/a	n/a	n/a	n/a	n/a	n/a	n/a	10	6	2	2	n/a	n/a	n/a	n/a	n/a
716580	STOP	n/a	LTP196	ltpFR	10	n/a	n/a	n/a	n/a	n/a	n/a	n/a	n/a	n/a	n/a	n/a	n/a	n/a	n/a	n/a	n/a
719129	WORD	wordpools/wasnorm_wordpool_less_exclusions.txt	LTP196	ltpFR	10	3	1	DOUGH	489	n/a	n/a	0	n/a	0	0	0	0.57763671875	0.412841796875	1	upper	amplitud.ttf
722142	START	n/a	LTP196	ltpFR	10	n/a	n/a	n/a	n/a	n/a	n/a	n/a	n/a	n/a	n/a	n/a	n/a	n/a	n/a	n/a	n/a
723140	PROB	n/a	LTP196	ltpFR	10	n/a	n/a	n/a	n/a	n/a	n/a	n/a	21	3	9	9	n/a	n/a	n/a	n/a	n/a
725069	PROB	n/a	LTP196	ltpFR	10	n/a	n/a	n/a	n/a	n/a	n/a	n/a	18	7	7	4	n/a	n/a	n/a	n/a	n/a
727151	PROB	n/a	LTP196	ltpFR	10	n/a	n/a	n/a	n/a	n/a	n/a	n/a	13	1	4	7	n/a	n/a	n/a	n/a	n/a
729047	PROB	n/a	LTP196	ltpFR	10	n/a	n/a	n/a	n/a	n/a	n/a	n/a	9	3	5	1	n/a	n/a	n/a	n/a	n/a
732143	PROB	n/a	LTP196	ltpFR	10	n/a	n/a	n/a	n/a	n/a	n/a	n/a	21	9	5	7	n/a	n/a	n/a	n/a	n/a
738141	STOP	n/a	LTP196	ltpFR	10	n/a	n/a	n/a	n/a	n/a	n/a	n/a	n/a	n/a	n/a	n/a	n/a	n/a	n/a	n/a	n/a
739366	WORD	wordpools/wasnorm_wordpool_less_exclusions.txt	LTP196	ltpFR	10	3	1	WAITER	1580	n/a	n/a	1	n/a	0	0	0	0.57763671875	0.412841796875	1	upper	amplitud.ttf
742378	START	n/a	LTP196	ltpFR	10	n/a	n/a	n/a	n/a	n/a	n/a	n/a	n/a	n/a	n/a	n/a	n/a	n/a	n/a	n/a	n/a
743277	PROB	n/a	LTP196	ltpFR	10	n/a	n/a	n/a	n/a	n/a	n/a	n/a	11	8	2	1	n/a	n/a	n/a	n/a	n/a
745174	PROB	n/a	LTP196	ltpFR	10	n/a	n/a	n/a	n/a	n/a	n/a	n/a	14	1	7	6	n/a	n/a	n/a	n/a	n/a
748369	PROB	n/a	LTP196	ltpFR	10	n/a	n/a	n/a	n/a	n/a	n/a	n/a	14	6	1	7	n/a	n/a	n/a	n/a	n/a
750433	PROB	n/a	LTP196	ltpFR	10	n/a	n/a	n/a	n/a	n/a	n/a	n/a	12	4	5	3	n/a	n/a	n/a	n/a	n/a
753362	PROB	n/a	LTP196	ltpFR	10	n/a	n/a	n/a	n/a	n/a	n/a	n/a	27	9	9	9	n/a	n/a	n/a	n/a	n/a
755657	PROB	n/a	LTP196	ltpFR	10	n/a	n/a	n/a	n/a	n/a	n/a	n/a	15	9	4	2	n/a	n/a	n/a	n/a	n/a
757908	STOP	n/a	LTP196	ltpFR	10	n/a	n/a	n/a	n/a	n/a	n/a	n/a	n/a	n/a	n/a	n/a	n/a	n/a	n/a	n/a	n/a
759436	WORD	wordpools/wasnorm_wordpool_less_exclusions.txt	LTP196	ltpFR	10	3	0	SNACK	1331	n/a	n/a	0	n/a	0	0	0	0.422607421875	0.5869140625	0	lower	zerothre.ttf
762449	START	n/a	LTP196	ltpFR	10	n/a	n/a	n/a	n/a	n/a	n/a	n/a	n/a	n/a	n/a	n/a	n/a	n/a	n/a	n/a	n/a
763330	PROB	n/a	LTP196	ltpFR	10	n/a	n/a	n/a	n/a	n/a	n/a	n/a	18	5	7	6	n/a	n/a	n/a	n/a	n/a
766874	PROB	n/a	LTP196	ltpFR	10	n/a	n/a	n/a	n/a	n/a	n/a	n/a	21	6	9	6	n/a	n/a	n/a	n/a	n/a
770336	PROB	n/a	LTP196	ltpFR	10	n/a	n/a	n/a	n/a	n/a	n/a	n/a	15	5	4	6	n/a	n/a	n/a	n/a	n/a
772300	PROB	n/a	LTP196	ltpFR	10	n/a	n/a	n/a	n/a	n/a	n/a	n/a	18	9	6	3	n/a	n/a	n/a	n/a	n/a
773946	PROB	n/a	LTP196	ltpFR	10	n/a	n/a	n/a	n/a	n/a	n/a	n/a	15	9	3	3	n/a	n/a	n/a	n/a	n/a
775777	PROB	n/a	LTP196	ltpFR	10	n/a	n/a	n/a	n/a	n/a	n/a	n/a	9	4	3	2	n/a	n/a	n/a	n/a	n/a
778397	STOP	n/a	LTP196	ltpFR	10	n/a	n/a	n/a	n/a	n/a	n/a	n/a	n/a	n/a	n/a	n/a	n/a	n/a	n/a	n/a	n/a
779472	WORD	wordpools/wasnorm_wordpool_less_exclusions.txt	LTP196	ltpFR	10	3	0	STEW	1380	n/a	n/a	0	n/a	0	0	0	0.422607421875	0.5869140625	0	lower	zerothre.ttf
782485	START	n/a	LTP196	ltpFR	10	n/a	n/a	n/a	n/a	n/a	n/a	n/a	n/a	n/a	n/a	n/a	n/a	n/a	n/a	n/a	n/a
783333	PROB	n/a	LTP196	ltpFR	10	n/a	n/a	n/a	n/a	n/a	n/a	n/a	16	6	6	4	n/a	n/a	n/a	n/a	n/a
785281	PROB	n/a	LTP196	ltpFR	10	n/a	n/a	n/a	n/a	n/a	n/a	n/a	19	9	5	5	n/a	n/a	n/a	n/a	n/a
787144	PROB	n/a	LTP196	ltpFR	10	n/a	n/a	n/a	n/a	n/a	n/a	n/a	10	2	5	3	n/a	n/a	n/a	n/a	n/a
789690	PROB	n/a	LTP196	ltpFR	10	n/a	n/a	n/a	n/a	n/a	n/a	n/a	12	4	7	2	n/a	n/a	n/a	n/a	n/a
792752	PROB	n/a	LTP196	ltpFR	10	n/a	n/a	n/a	n/a	n/a	n/a	n/a	13	1	9	4	n/a	n/a	n/a	n/a	n/a
794566	PROB	n/a	LTP196	ltpFR	10	n/a	n/a	n/a	n/a	n/a	n/a	n/a	24	8	8	8	n/a	n/a	n/a	n/a	n/a
797812	STOP	n/a	LTP196	ltpFR	10	n/a	n/a	n/a	n/a	n/a	n/a	n/a	n/a	n/a	n/a	n/a	n/a	n/a	n/a	n/a	n/a
799376	WORD	wordpools/wasnorm_wordpool_less_exclusions.txt	LTP196	ltpFR	10	3	0	OUTLAW	989	n/a	n/a	1	n/a	0	0	0	0.422607421875	0.5869140625	0	lower	zerothre.ttf
802389	START	n/a	LTP196	ltpFR	10	n/a	n/a	n/a	n/a	n/a	n/a	n/a	n/a	n/a	n/a	n/a	n/a	n/a	n/a	n/a	n/a
803204	PROB	n/a	LTP196	ltpFR	10	n/a	n/a	n/a	n/a	n/a	n/a	n/a	15	1	8	6	n/a	n/a	n/a	n/a	n/a
805017	PROB	n/a	LTP196	ltpFR	10	n/a	n/a	n/a	n/a	n/a	n/a	n/a	19	6	7	6	n/a	n/a	n/a	n/a	n/a
807080	PROB	n/a	LTP196	ltpFR	10	n/a	n/a	n/a	n/a	n/a	n/a	n/a	24	9	7	8	n/a	n/a	n/a	n/a	n/a
811973	PROB	n/a	LTP196	ltpFR	10	n/a	n/a	n/a	n/a	n/a	n/a	n/a	17	6	7	4	n/a	n/a	n/a	n/a	n/a
814053	PROB	n/a	LTP196	ltpFR	10	n/a	n/a	n/a	n/a	n/a	n/a	n/a	13	9	2	2	n/a	n/a	n/a	n/a	n/a
817636	STOP	n/a	LTP196	ltpFR	10	n/a	n/a	n/a	n/a	n/a	n/a	n/a	n/a	n/a	n/a	n/a	n/a	n/a	n/a	n/a	n/a
819296	WORD	wordpools/wasnorm_wordpool_less_exclusions.txt	LTP196	ltpFR	10	3	1	HUMAN	726	n/a	n/a	1	n/a	0	0	0	0.57763671875	0.412841796875	1	upper	amplitud.ttf
822309	START	n/a	LTP196	ltpFR	10	n/a	n/a	n/a	n/a	n/a	n/a	n/a	n/a	n/a	n/a	n/a	n/a	n/a	n/a	n/a	n/a
823207	PROB	n/a	LTP196	ltpFR	10	n/a	n/a	n/a	n/a	n/a	n/a	n/a	14	9	2	3	n/a	n/a	n/a	n/a	n/a
824987	PROB	n/a	LTP196	ltpFR	10	n/a	n/a	n/a	n/a	n/a	n/a	n/a	19	7	6	6	n/a	n/a	n/a	n/a	n/a
827401	PROB	n/a	LTP196	ltpFR	10	n/a	n/a	n/a	n/a	n/a	n/a	n/a	17	9	1	7	n/a	n/a	n/a	n/a	n/a
829064	PROB	n/a	LTP196	ltpFR	10	n/a	n/a	n/a	n/a	n/a	n/a	n/a	19	5	9	5	n/a	n/a	n/a	n/a	n/a
830778	PROB	n/a	LTP196	ltpFR	10	n/a	n/a	n/a	n/a	n/a	n/a	n/a	19	7	9	3	n/a	n/a	n/a	n/a	n/a
832775	PROB	n/a	LTP196	ltpFR	10	n/a	n/a	n/a	n/a	n/a	n/a	n/a	15	9	1	5	n/a	n/a	n/a	n/a	n/a
834357	PROB	n/a	LTP196	ltpFR	10	n/a	n/a	n/a	n/a	n/a	n/a	n/a	22	4	9	9	n/a	n/a	n/a	n/a	n/a
837900	STOP	n/a	LTP196	ltpFR	10	n/a	n/a	n/a	n/a	n/a	n/a	n/a	n/a	n/a	n/a	n/a	n/a	n/a	n/a	n/a	n/a
839416	WORD	wordpools/wasnorm_wordpool_less_exclusions.txt	LTP196	ltpFR	10	3	1	LAUNDRY	803	n/a	n/a	0	n/a	0	0	0	0.57763671875	0.412841796875	1	upper	amplitud.ttf
842429	START	n/a	LTP196	ltpFR	10	n/a	n/a	n/a	n/a	n/a	n/a	n/a	n/a	n/a	n/a	n/a	n/a	n/a	n/a	n/a	n/a
843244	PROB	n/a	LTP196	ltpFR	10	n/a	n/a	n/a	n/a	n/a	n/a	n/a	11	2	7	2	n/a	n/a	n/a	n/a	n/a
846123	PROB	n/a	LTP196	ltpFR	10	n/a	n/a	n/a	n/a	n/a	n/a	n/a	15	7	6	2	n/a	n/a	n/a	n/a	n/a
849418	PROB	n/a	LTP196	ltpFR	10	n/a	n/a	n/a	n/a	n/a	n/a	n/a	16	4	4	8	n/a	n/a	n/a	n/a	n/a
852247	PROB	n/a	LTP196	ltpFR	10	n/a	n/a	n/a	n/a	n/a	n/a	n/a	18	8	9	1	n/a	n/a	n/a	n/a	n/a
853777	PROB	n/a	LTP196	ltpFR	10	n/a	n/a	n/a	n/a	n/a	n/a	n/a	25	7	9	9	n/a	n/a	n/a	n/a	n/a
858429	STOP	n/a	LTP196	ltpFR	10	n/a	n/a	n/a	n/a	n/a	n/a	n/a	n/a	n/a	n/a	n/a	n/a	n/a	n/a	n/a	n/a
860386	REC_START	n/a	LTP196	ltpFR	10	3	n/a	n/a	n/a	n/a	n/a	n/a	n/a	0	0	0	n/a	n/a	n/a	n/a	n/a
863085	REC_WORD	wordpools/wasnorm_wordpool_less_exclusions.txt	LTP196	ltpFR	10	3	1	HUMAN	726	n/a	n/a	1	n/a	0	0	0	n/a	n/a	n/a	n/a	n/a
864661	REC_WORD	wordpools/wasnorm_wordpool_less_exclusions.txt	LTP196	ltpFR	10	3	1	LAUNDRY	803	n/a	n/a	0	n/a	0	0	0	n/a	n/a	n/a	n/a	n/a
868777	REC_WORD	wordpools/wasnorm_wordpool_less_exclusions.txt	LTP196	ltpFR	10	3	n/a	RIVER	1194	n/a	n/a	n/a	n/a	0	0	0	n/a	n/a	n/a	n/a	n/a
877711	REC_WORD	wordpools/wasnorm_wordpool_less_exclusions.txt	LTP196	ltpFR	10	3	0	GOO	648	n/a	n/a	0	n/a	0	0	0	n/a	n/a	n/a	n/a	n/a
895830	REC_WORD	wordpools/wasnorm_wordpool_less_exclusions.txt	LTP196	ltpFR	10	3	n/a	CARRIAGE	248	n/a	n/a	n/a	n/a	0	0	0	n/a	n/a	n/a	n/a	n/a
939749	WORD	wordpools/wasnorm_wordpool_less_exclusions.txt	LTP196	ltpFR	10	4	1	SOCK	1339	n/a	n/a	0	n/a	0	0	0	0.57763671875	0.412841796875	1	upper	amplitud.ttf
943859	WORD	wordpools/wasnorm_wordpool_less_exclusions.txt	LTP196	ltpFR	10	4	1	NOTE	958	n/a	n/a	0	n/a	0	0	0	0.57763671875	0.412841796875	1	upper	amplitud.ttf
947770	WORD	wordpools/wasnorm_wordpool_less_exclusions.txt	LTP196	ltpFR	10	4	1	CONDUCTOR	362	n/a	n/a	1	n/a	0	0	0	0.57763671875	0.412841796875	1	upper	amplitud.ttf
951714	WORD	wordpools/wasnorm_wordpool_less_exclusions.txt	LTP196	ltpFR	10	4	1	MAN	862	n/a	n/a	1	n/a	0	0	0	0.57763671875	0.412841796875	1	upper	amplitud.ttf
955808	WORD	wordpools/wasnorm_wordpool_less_exclusions.txt	LTP196	ltpFR	10	4	1	EAGLE	512	n/a	n/a	1	n/a	0	0	0	0.57763671875	0.412841796875	1	upper	amplitud.ttf
959769	WORD	wordpools/wasnorm_wordpool_less_exclusions.txt	LTP196	ltpFR	10	4	1	DUST	508	n/a	n/a	0	n/a	0	0	0	0.57763671875	0.412841796875	1	upper	amplitud.ttf
963763	WORD	wordpools/wasnorm_wordpool_less_exclusions.txt	LTP196	ltpFR	10	4	1	FOOT	590	n/a	n/a	0	n/a	0	0	0	0.57763671875	0.412841796875	1	upper	amplitud.ttf
967774	WORD	wordpools/wasnorm_wordpool_less_exclusions.txt	LTP196	ltpFR	10	4	1	CITRUS	313	n/a	n/a	0	n/a	0	0	0	0.57763671875	0.412841796875	1	upper	amplitud.ttf
971718	WORD	wordpools/wasnorm_wordpool_less_exclusions.txt	LTP196	ltpFR	10	4	1	CHERRY	293	n/a	n/a	0	n/a	0	0	0	0.57763671875	0.412841796875	1	upper	amplitud.ttf
975629	WORD	wordpools/wasnorm_wordpool_less_exclusions.txt	LTP196	ltpFR	10	4	1	OVEN	991	n/a	n/a	0	n/a	0	0	0	0.57763671875	0.412841796875	1	upper	amplitud.ttf
979474	WORD	wordpools/wasnorm_wordpool_less_exclusions.txt	LTP196	ltpFR	10	4	1	TROUSERS	1510	n/a	n/a	0	n/a	0	0	0	0.57763671875	0.412841796875	1	upper	amplitud.ttf
983551	WORD	wordpools/wasnorm_wordpool_less_exclusions.txt	LTP196	ltpFR	10	4	1	FELLOW	558	n/a	n/a	1	n/a	0	0	0	0.57763671875	0.412841796875	1	upper	amplitud.ttf
987644	WORD	wordpools/wasnorm_wordpool_less_exclusions.txt	LTP196	ltpFR	10	4	1	BOARD	143	n/a	n/a	0	n/a	0	0	0	0.57763671875	0.412841796875	1	upper	amplitud.ttf
991688	WORD	wordpools/wasnorm_wordpool_less_exclusions.txt	LTP196	ltpFR	10	4	1	FOE	587	n/a	n/a	1	n/a	0	0	0	0.57763671875	0.412841796875	1	upper	amplitud.ttf
995898	WORD	wordpools/wasnorm_wordpool_less_exclusions.txt	LTP196	ltpFR	10	4	1	OUTFIT	988	n/a	n/a	0	n/a	0	0	0	0.57763671875	0.412841796875	1	upper	amplitud.ttf
999942	WORD	wordpools/wasnorm_wordpool_less_exclusions.txt	LTP196	ltpFR	10	4	1	TAG	1429	n/a	n/a	0	n/a	0	0	0	0.57763671875	0.412841796875	1	upper	amplitud.ttf
1002955	START	n/a	LTP196	ltpFR	10	n/a	n/a	n/a	n/a	n/a	n/a	n/a	n/a	n/a	n/a	n/a	n/a	n/a	n/a	n/a	n/a
1003920	PROB	n/a	LTP196	ltpFR	10	n/a	n/a	n/a	n/a	n/a	n/a	n/a	14	9	4	1	n/a	n/a	n/a	n/a	n/a
1006117	PROB	n/a	LTP196	ltpFR	10	n/a	n/a	n/a	n/a	n/a	n/a	n/a	10	1	3	6	n/a	n/a	n/a	n/a	n/a
1008414	PROB	n/a	LTP196	ltpFR	10	n/a	n/a	n/a	n/a	n/a	n/a	n/a	14	3	4	7	n/a	n/a	n/a	n/a	n/a
1010660	STOP	n/a	LTP196	ltpFR	10	n/a	n/a	n/a	n/a	n/a	n/a	n/a	n/a	n/a	n/a	n/a	n/a	n/a	n/a	n/a	n/a
1012857	REC_START	n/a	LTP196	ltpFR	10	4	n/a	n/a	n/a	n/a	n/a	n/a	n/a	0	0	0	n/a	n/a	n/a	n/a	n/a
1016065	REC_WORD	wordpools/wasnorm_wordpool_less_exclusions.txt	LTP196	ltpFR	10	4	1	CONDUCTOR	362	n/a	n/a	1	n/a	0	0	0	n/a	n/a	n/a	n/a	n/a
1019411	REC_WORD	wordpools/wasnorm_wordpool_less_exclusions.txt	LTP196	ltpFR	10	4	1	BOARD	143	n/a	n/a	0	n/a	0	0	0	n/a	n/a	n/a	n/a	n/a
1022086	REC_WORD	wordpools/wasnorm_wordpool_less_exclusions.txt	LTP196	ltpFR	10	4	1	EAGLE	512	n/a	n/a	1	n/a	0	0	0	n/a	n/a	n/a	n/a	n/a
1024639	REC_WORD	wordpools/wasnorm_wordpool_less_exclusions.txt	LTP196	ltpFR	10	4	1	FELLOW	558	n/a	n/a	1	n/a	0	0	0	n/a	n/a	n/a	n/a	n/a
1025837	REC_WORD	wordpools/wasnorm_wordpool_less_exclusions.txt	LTP196	ltpFR	10	4	1	FOE	587	n/a	n/a	1	n/a	0	0	0	n/a	n/a	n/a	n/a	n/a
1028641	REC_WORD	wordpools/wasnorm_wordpool_less_exclusions.txt	LTP196	ltpFR	10	4	1	TROUSERS	1510	n/a	n/a	0	n/a	0	0	0	n/a	n/a	n/a	n/a	n/a
1029669	REC_WORD	wordpools/wasnorm_wordpool_less_exclusions.txt	LTP196	ltpFR	10	4	1	OUTFIT	988	n/a	n/a	0	n/a	0	0	0	n/a	n/a	n/a	n/a	n/a
1037132	REC_WORD	wordpools/wasnorm_wordpool_less_exclusions.txt	LTP196	ltpFR	10	4	1	CHERRY	293	n/a	n/a	0	n/a	0	0	0	n/a	n/a	n/a	n/a	n/a
1039037	REC_WORD	wordpools/wasnorm_wordpool_less_exclusions.txt	LTP196	ltpFR	10	4	n/a	LEMON	810	n/a	n/a	n/a	n/a	0	0	0	n/a	n/a	n/a	n/a	n/a
1040030	REC_WORD	wordpools/wasnorm_wordpool_less_exclusions.txt	LTP196	ltpFR	10	4	1	OVEN	991	n/a	n/a	0	n/a	0	0	0	n/a	n/a	n/a	n/a	n/a
1056084	REC_WORD	wordpools/wasnorm_wordpool_less_exclusions.txt	LTP196	ltpFR	10	4	1	SOCK	1339	n/a	n/a	0	n/a	0	0	0	n/a	n/a	n/a	n/a	n/a
1059481	REC_WORD	wordpools/wasnorm_wordpool_less_exclusions.txt	LTP196	ltpFR	10	4	1	DUST	508	n/a	n/a	0	n/a	0	0	0	n/a	n/a	n/a	n/a	n/a
1060159	REC_WORD	wordpools/wasnorm_wordpool_less_exclusions.txt	LTP196	ltpFR	10	4	1	FOOT	590	n/a	n/a	0	n/a	0	0	0	n/a	n/a	n/a	n/a	n/a
1061805	REC_WORD	wordpools/wasnorm_wordpool_less_exclusions.txt	LTP196	ltpFR	10	4	1	NOTE	958	n/a	n/a	0	n/a	0	0	0	n/a	n/a	n/a	n/a	n/a
1087268	REC_WORD	wordpools/wasnorm_wordpool_less_exclusions.txt	LTP196	ltpFR	10	4	1	MAN	862	n/a	n/a	1	n/a	0	0	0	n/a	n/a	n/a	n/a	n/a
1093320	WORD	wordpools/wasnorm_wordpool_less_exclusions.txt	LTP196	ltpFR	10	5	1	LETTER	813	n/a	n/a	0	n/a	0	0	0	0.57763671875	0.412841796875	1	upper	amplitud.ttf
1097448	WORD	wordpools/wasnorm_wordpool_less_exclusions.txt	LTP196	ltpFR	10	5	1	SEAL	1262	n/a	n/a	1	n/a	0	0	0	0.57763671875	0.412841796875	1	upper	amplitud.ttf
1101308	WORD	wordpools/wasnorm_wordpool_less_exclusions.txt	LTP196	ltpFR	10	5	1	FLESH	579	n/a	n/a	1	n/a	0	0	0	0.57763671875	0.412841796875	1	upper	amplitud.ttf
1105186	WORD	wordpools/wasnorm_wordpool_less_exclusions.txt	LTP196	ltpFR	10	5	1	COP	376	n/a	n/a	1	n/a	0	0	0	0.57763671875	0.412841796875	1	upper	amplitud.ttf
1109130	WORD	wordpools/wasnorm_wordpool_less_exclusions.txt	LTP196	ltpFR	10	5	1	STRAWBERRY	1391	n/a	n/a	1	n/a	0	0	0	0.57763671875	0.412841796875	1	upper	amplitud.ttf
1113174	WORD	wordpools/wasnorm_wordpool_less_exclusions.txt	LTP196	ltpFR	10	5	1	ARTERY	41	n/a	n/a	1	n/a	0	0	0	0.57763671875	0.412841796875	1	upper	amplitud.ttf
1117318	WORD	wordpools/wasnorm_wordpool_less_exclusions.txt	LTP196	ltpFR	10	5	0	VET	1560	n/a	n/a	0	n/a	0	0	0	0.422607421875	0.5869140625	0	lower	zerothre.ttf
1121528	WORD	wordpools/wasnorm_wordpool_less_exclusions.txt	LTP196	ltpFR	10	5	0	ELK	526	n/a	n/a	1	n/a	0	0	0	0.422607421875	0.5869140625	0	lower	zerothre.ttf
1125721	WORD	wordpools/wasnorm_wordpool_less_exclusions.txt	LTP196	ltpFR	10	5	0	BLENDER	136	n/a	n/a	1	n/a	0	0	0	0.422607421875	0.5869140625	0	lower	zerothre.ttf
1129898	WORD	wordpools/wasnorm_wordpool_less_exclusions.txt	LTP196	ltpFR	10	5	0	SAND	1230	n/a	n/a	0	n/a	0	0	0	0.422607421875	0.5869140625	0	lower	zerothre.ttf
1134059	WORD	wordpools/wasnorm_wordpool_less_exclusions.txt	LTP196	ltpFR	10	5	1	LETTUCE	814	n/a	n/a	0	n/a	0	0	0	0.57763671875	0.412841796875	1	upper	amplitud.ttf
1138036	WORD	wordpools/wasnorm_wordpool_less_exclusions.txt	LTP196	ltpFR	10	5	1	ATOM	55	n/a	n/a	2	n/a	0	0	0	0.57763671875	0.412841796875	1	upper	amplitud.ttf
1139584	KEY_MSG	n/a	LTP196	ltpFR	10	5	n/a	n/a	n/a	n/a	n/a	n/a	n/a	0	0	0	n/a	n/a	n/a	n/a	n/a
1142314	WORD	wordpools/wasnorm_wordpool_less_exclusions.txt	LTP196	ltpFR	10	5	0	HAND	683	n/a	n/a	0	n/a	0	0	0	0.422607421875	0.5869140625	0	lower	zerothre.ttf
1146424	WORD	wordpools/wasnorm_wordpool_less_exclusions.txt	LTP196	ltpFR	10	5	0	FINGER	567	n/a	n/a	0	n/a	0	0	0	0.422607421875	0.5869140625	0	lower	zerothre.ttf
1150418	WORD	wordpools/wasnorm_wordpool_less_exclusions.txt	LTP196	ltpFR	10	5	0	POLICE	1098	n/a	n/a	1	n/a	0	0	0	0.422607421875	0.5869140625	0	lower	zerothre.ttf
1154496	WORD	wordpools/wasnorm_wordpool_less_exclusions.txt	LTP196	ltpFR	10	5	0	SPARROW	1347	n/a	n/a	0	n/a	0	0	0	0.422607421875	0.5869140625	0	lower	zerothre.ttf
1157508	START	n/a	LTP196	ltpFR	10	n/a	n/a	n/a	n/a	n/a	n/a	n/a	n/a	n/a	n/a	n/a	n/a	n/a	n/a	n/a	n/a
1158423	PROB	n/a	LTP196	ltpFR	10	n/a	n/a	n/a	n/a	n/a	n/a	n/a	16	8	7	1	n/a	n/a	n/a	n/a	n/a
1161052	PROB	n/a	LTP196	ltpFR	10	n/a	n/a	n/a	n/a	n/a	n/a	n/a	11	4	6	1	n/a	n/a	n/a	n/a	n/a
1162583	PROB	n/a	LTP196	ltpFR	10	n/a	n/a	n/a	n/a	n/a	n/a	n/a	22	9	8	6	n/a	n/a	n/a	n/a	n/a
1167393	PROB	n/a	LTP196	ltpFR	10	n/a	n/a	n/a	n/a	n/a	n/a	n/a	17	3	7	7	n/a	n/a	n/a	n/a	n/a
1169655	PROB	n/a	LTP196	ltpFR	10	n/a	n/a	n/a	n/a	n/a	n/a	n/a	19	9	1	9	n/a	n/a	n/a	n/a	n/a
1173508	STOP	n/a	LTP196	ltpFR	10	n/a	n/a	n/a	n/a	n/a	n/a	n/a	n/a	n/a	n/a	n/a	n/a	n/a	n/a	n/a	n/a
1175265	REC_START	n/a	LTP196	ltpFR	10	5	n/a	n/a	n/a	n/a	n/a	n/a	n/a	0	0	0	n/a	n/a	n/a	n/a	n/a
1179460	REC_WORD	wordpools/wasnorm_wordpool_less_exclusions.txt	LTP196	ltpFR	10	5	1	LETTER	813	n/a	n/a	0	n/a	0	0	0	n/a	n/a	n/a	n/a	n/a
1180642	REC_WORD	wordpools/wasnorm_wordpool_less_exclusions.txt	LTP196	ltpFR	10	5	1	SEAL	1262	n/a	n/a	1	n/a	0	0	0	n/a	n/a	n/a	n/a	n/a
1182907	REC_WORD	wordpools/wasnorm_wordpool_less_exclusions.txt	LTP196	ltpFR	10	5	0	SPARROW	1347	n/a	n/a	0	n/a	0	0	0	n/a	n/a	n/a	n/a	n/a
1184204	REC_WORD	wordpools/wasnorm_wordpool_less_exclusions.txt	LTP196	ltpFR	10	5	0	POLICE	1098	n/a	n/a	1	n/a	0	0	0	n/a	n/a	n/a	n/a	n/a
1190894	REC_WORD	wordpools/wasnorm_wordpool_less_exclusions.txt	LTP196	ltpFR	10	5	0	BLENDER	136	n/a	n/a	1	n/a	0	0	0	n/a	n/a	n/a	n/a	n/a
1191907	REC_WORD	wordpools/wasnorm_wordpool_less_exclusions.txt	LTP196	ltpFR	10	5	0	ELK	526	n/a	n/a	1	n/a	0	0	0	n/a	n/a	n/a	n/a	n/a
1200123	REC_WORD	wordpools/wasnorm_wordpool_less_exclusions.txt	LTP196	ltpFR	10	5	0	VET	1560	n/a	n/a	0	n/a	0	0	0	n/a	n/a	n/a	n/a	n/a
1202608	REC_WORD	wordpools/wasnorm_wordpool_less_exclusions.txt	LTP196	ltpFR	10	5	0	SAND	1230	n/a	n/a	0	n/a	0	0	0	n/a	n/a	n/a	n/a	n/a
1211033	REC_WORD	wordpools/wasnorm_wordpool_less_exclusions.txt	LTP196	ltpFR	10	5	0	FINGER	567	n/a	n/a	0	n/a	0	0	0	n/a	n/a	n/a	n/a	n/a
1212969	REC_WORD	wordpools/wasnorm_wordpool_less_exclusions.txt	LTP196	ltpFR	10	5	0	HAND	683	n/a	n/a	0	n/a	0	0	0	n/a	n/a	n/a	n/a	n/a
1255095	WORD	wordpools/wasnorm_wordpool_less_exclusions.txt	LTP196	ltpFR	10	6	1	WORKER	1621	n/a	n/a	1	n/a	0	0	0	0.57763671875	0.412841796875	1	upper	amplitud.ttf
1259139	WORD	wordpools/wasnorm_wordpool_less_exclusions.txt	LTP196	ltpFR	10	6	1	MONUMENT	913	n/a	n/a	0	n/a	0	0	0	0.57763671875	0.412841796875	1	upper	amplitud.ttf
1263333	WORD	wordpools/wasnorm_wordpool_less_exclusions.txt	LTP196	ltpFR	10	6	1	COACH	331	n/a	n/a	1	n/a	0	0	0	0.57763671875	0.412841796875	1	upper	amplitud.ttf
1267427	WORD	wordpools/wasnorm_wordpool_less_exclusions.txt	LTP196	ltpFR	10	6	1	MICROSCOPE	891	n/a	n/a	0	n/a	0	0	0	0.57763671875	0.412841796875	1	upper	amplitud.ttf
1271620	WORD	wordpools/wasnorm_wordpool_less_exclusions.txt	LTP196	ltpFR	10	6	1	PANTS	1010	n/a	n/a	0	n/a	0	0	0	0.57763671875	0.412841796875	1	upper	amplitud.ttf
1275448	WORD	wordpools/wasnorm_wordpool_less_exclusions.txt	LTP196	ltpFR	10	6	1	CELERY	266	n/a	n/a	0	n/a	0	0	0	0.57763671875	0.412841796875	1	upper	amplitud.ttf
1279276	WORD	wordpools/wasnorm_wordpool_less_exclusions.txt	LTP196	ltpFR	10	6	1	ATHLETE	52	n/a	n/a	1	n/a	0	0	0	0.57763671875	0.412841796875	1	upper	amplitud.ttf
1283303	WORD	wordpools/wasnorm_wordpool_less_exclusions.txt	LTP196	ltpFR	10	6	1	POT	1114	n/a	n/a	0	n/a	0	0	0	0.57763671875	0.412841796875	1	upper	amplitud.ttf
1287181	WORD	wordpools/wasnorm_wordpool_less_exclusions.txt	LTP196	ltpFR	10	6	1	HERB	704	n/a	n/a	0	n/a	0	0	0	0.57763671875	0.412841796875	1	upper	amplitud.ttf
1291108	WORD	wordpools/wasnorm_wordpool_less_exclusions.txt	LTP196	ltpFR	10	6	1	SHOWER	1296	n/a	n/a	0	n/a	0	0	0	0.57763671875	0.412841796875	1	upper	amplitud.ttf
1295068	WORD	wordpools/wasnorm_wordpool_less_exclusions.txt	LTP196	ltpFR	10	6	1	TREAD	1499	n/a	n/a	0	n/a	0	0	0	0.57763671875	0.412841796875	1	upper	amplitud.ttf
1299263	WORD	wordpools/wasnorm_wordpool_less_exclusions.txt	LTP196	ltpFR	10	6	1	WAIST	1579	n/a	n/a	0	n/a	0	0	0	0.57763671875	0.412841796875	1	upper	amplitud.ttf
1303440	WORD	wordpools/wasnorm_wordpool_less_exclusions.txt	LTP196	ltpFR	10	6	1	BELT	120	n/a	n/a	0	n/a	0	0	0	0.57763671875	0.412841796875	1	upper	amplitud.ttf
1307334	WORD	wordpools/wasnorm_wordpool_less_exclusions.txt	LTP196	ltpFR	10	6	1	SAXOPHONE	1240	n/a	n/a	0	n/a	0	0	0	0.57763671875	0.412841796875	1	upper	amplitud.ttf
1311311	WORD	wordpools/wasnorm_wordpool_less_exclusions.txt	LTP196	ltpFR	10	6	1	EMPLOYER	532	n/a	n/a	1	n/a	0	0	0	0.57763671875	0.412841796875	1	upper	amplitud.ttf
1315355	WORD	wordpools/wasnorm_wordpool_less_exclusions.txt	LTP196	ltpFR	10	6	1	BELL	118	n/a	n/a	0	n/a	0	0	0	0.57763671875	0.412841796875	1	upper	amplitud.ttf
1321331	REC_START	n/a	LTP196	ltpFR	10	6	n/a	n/a	n/a	n/a	n/a	n/a	n/a	0	0	0	n/a	n/a	n/a	n/a	n/a
1325092	REC_WORD	wordpools/wasnorm_wordpool_less_exclusions.txt	LTP196	ltpFR	10	6	1	SAXOPHONE	1240	n/a	n/a	0	n/a	0	0	0	n/a	n/a	n/a	n/a	n/a
1327307	REC_WORD	wordpools/wasnorm_wordpool_less_exclusions.txt	LTP196	ltpFR	10	6	1	BELL	118	n/a	n/a	0	n/a	0	0	0	n/a	n/a	n/a	n/a	n/a
1330764	REC_WORD	wordpools/wasnorm_wordpool_less_exclusions.txt	LTP196	ltpFR	10	6	1	COACH	331	n/a	n/a	1	n/a	0	0	0	n/a	n/a	n/a	n/a	n/a
1331912	REC_WORD	wordpools/wasnorm_wordpool_less_exclusions.txt	LTP196	ltpFR	10	6	1	ATHLETE	52	n/a	n/a	1	n/a	0	0	0	n/a	n/a	n/a	n/a	n/a
1333842	REC_WORD	wordpools/wasnorm_wordpool_less_exclusions.txt	LTP196	ltpFR	10	6	1	SHOWER	1296	n/a	n/a	0	n/a	0	0	0	n/a	n/a	n/a	n/a	n/a
1336152	REC_WORD	wordpools/wasnorm_wordpool_less_exclusions.txt	LTP196	ltpFR	10	6	1	MONUMENT	913	n/a	n/a	0	n/a	0	0	0	n/a	n/a	n/a	n/a	n/a
1343750	REC_WORD	wordpools/wasnorm_wordpool_less_exclusions.txt	LTP196	ltpFR	10	6	1	WAIST	1579	n/a	n/a	0	n/a	0	0	0	n/a	n/a	n/a	n/a	n/a
1356586	REC_WORD	wordpools/wasnorm_wordpool_less_exclusions.txt	LTP196	ltpFR	10	6	1	TREAD	1499	n/a	n/a	0	n/a	0	0	0	n/a	n/a	n/a	n/a	n/a
1400062	START	n/a	LTP196	ltpFR	10	n/a	n/a	n/a	n/a	n/a	n/a	n/a	n/a	n/a	n/a	n/a	n/a	n/a	n/a	n/a	n/a
1401576	PROB	n/a	LTP196	ltpFR	10	n/a	n/a	n/a	n/a	n/a	n/a	n/a	18	9	8	1	n/a	n/a	n/a	n/a	n/a
1408062	STOP	n/a	LTP196	ltpFR	10	n/a	n/a	n/a	n/a	n/a	n/a	n/a	n/a	n/a	n/a	n/a	n/a	n/a	n/a	n/a	n/a
1409132	WORD	wordpools/wasnorm_wordpool_less_exclusions.txt	LTP196	ltpFR	10	7	0	FARM	552	n/a	n/a	1	n/a	0	0	0	0.422607421875	0.5869140625	0	lower	zerothre.ttf
1412145	START	n/a	LTP196	ltpFR	10	n/a	n/a	n/a	n/a	n/a	n/a	n/a	n/a	n/a	n/a	n/a	n/a	n/a	n/a	n/a	n/a
1413209	PROB	n/a	LTP196	ltpFR	10	n/a	n/a	n/a	n/a	n/a	n/a	n/a	10	2	7	1	n/a	n/a	n/a	n/a	n/a
1415022	PROB	n/a	LTP196	ltpFR	10	n/a	n/a	n/a	n/a	n/a	n/a	n/a	10	5	2	3	n/a	n/a	n/a	n/a	n/a
1416803	PROB	n/a	LTP196	ltpFR	10	n/a	n/a	n/a	n/a	n/a	n/a	n/a	16	9	2	5	n/a	n/a	n/a	n/a	n/a
1419165	STOP	n/a	LTP196	ltpFR	10	n/a	n/a	n/a	n/a	n/a	n/a	n/a	n/a	n/a	n/a	n/a	n/a	n/a	n/a	n/a	n/a
1421047	WORD	wordpools/wasnorm_wordpool_less_exclusions.txt	LTP196	ltpFR	10	7	0	SHORE	1291	n/a	n/a	1	n/a	0	0	0	0.422607421875	0.5869140625	0	lower	zerothre.ttf
1424059	START	n/a	LTP196	ltpFR	10	n/a	n/a	n/a	n/a	n/a	n/a	n/a	n/a	n/a	n/a	n/a	n/a	n/a	n/a	n/a	n/a
1425191	PROB	n/a	LTP196	ltpFR	10	n/a	n/a	n/a	n/a	n/a	n/a	n/a	13	7	1	5	n/a	n/a	n/a	n/a	n/a
1427953	PROB	n/a	LTP196	ltpFR	10	n/a	n/a	n/a	n/a	n/a	n/a	n/a	20	6	5	9	n/a	n/a	n/a	n/a	n/a
1431020	STOP	n/a	LTP196	ltpFR	10	n/a	n/a	n/a	n/a	n/a	n/a	n/a	n/a	n/a	n/a	n/a	n/a	n/a	n/a	n/a	n/a
1433279	WORD	wordpools/wasnorm_wordpool_less_exclusions.txt	LTP196	ltpFR	10	7	0	RODENT	1204	n/a	n/a	0	n/a	0	0	0	0.422607421875	0.5869140625	0	lower	zerothre.ttf
1436292	START	n/a	LTP196	ltpFR	10	n/a	n/a	n/a	n/a	n/a	n/a	n/a	n/a	n/a	n/a	n/a	n/a	n/a	n/a	n/a	n/a
1437340	PROB	n/a	LTP196	ltpFR	10	n/a	n/a	n/a	n/a	n/a	n/a	n/a	17	2	9	6	n/a	n/a	n/a	n/a	n/a
1439702	PROB	n/a	LTP196	ltpFR	10	n/a	n/a	n/a	n/a	n/a	n/a	n/a	12	8	1	3	n/a	n/a	n/a	n/a	n/a
1441267	PROB	n/a	LTP196	ltpFR	10	n/a	n/a	n/a	n/a	n/a	n/a	n/a	18	8	2	8	n/a	n/a	n/a	n/a	n/a
1442740	STOP	n/a	LTP196	ltpFR	10	n/a	n/a	n/a	n/a	n/a	n/a	n/a	n/a	n/a	n/a	n/a	n/a	n/a	n/a	n/a	n/a
1445261	WORD	wordpools/wasnorm_wordpool_less_exclusions.txt	LTP196	ltpFR	10	7	0	KETTLE	772	n/a	n/a	0	n/a	0	0	0	0.422607421875	0.5869140625	0	lower	zerothre.ttf
1448274	START	n/a	LTP196	ltpFR	10	n/a	n/a	n/a	n/a	n/a	n/a	n/a	n/a	n/a	n/a	n/a	n/a	n/a	n/a	n/a	n/a
1449405	PROB	n/a	LTP196	ltpFR	10	n/a	n/a	n/a	n/a	n/a	n/a	n/a	12	7	2	2	n/a	n/a	n/a	n/a	n/a
1456274	STOP	n/a	LTP196	ltpFR	10	n/a	n/a	n/a	n/a	n/a	n/a	n/a	n/a	n/a	n/a	n/a	n/a	n/a	n/a	n/a	n/a
1457110	WORD	wordpools/wasnorm_wordpool_less_exclusions.txt	LTP196	ltpFR	10	7	0	LAGOON	795	n/a	n/a	1	n/a	0	0	0	0.422607421875	0.5869140625	0	lower	zerothre.ttf
1460123	START	n/a	LTP196	ltpFR	10	n/a	n/a	n/a	n/a	n/a	n/a	n/a	n/a	n/a	n/a	n/a	n/a	n/a	n/a	n/a	n/a
1461271	PROB	n/a	LTP196	ltpFR	10	n/a	n/a	n/a	n/a	n/a	n/a	n/a	12	7	1	4	n/a	n/a	n/a	n/a	n/a
1463451	PROB	n/a	LTP196	ltpFR	10	n/a	n/a	n/a	n/a	n/a	n/a	n/a	17	9	3	5	n/a	n/a	n/a	n/a	n/a
1468122	STOP	n/a	LTP196	ltpFR	10	n/a	n/a	n/a	n/a	n/a	n/a	n/a	n/a	n/a	n/a	n/a	n/a	n/a	n/a	n/a	n/a
1468958	WORD	wordpools/wasnorm_wordpool_less_exclusions.txt	LTP196	ltpFR	10	7	0	CREAM	402	n/a	n/a	1	n/a	0	0	0	0.422607421875	0.5869140625	0	lower	zerothre.ttf
1471971	START	n/a	LTP196	ltpFR	10	n/a	n/a	n/a	n/a	n/a	n/a	n/a	n/a	n/a	n/a	n/a	n/a	n/a	n/a	n/a	n/a
1472786	PROB	n/a	LTP196	ltpFR	10	n/a	n/a	n/a	n/a	n/a	n/a	n/a	18	3	9	6	n/a	n/a	n/a	n/a	n/a
1475931	PROB	n/a	LTP196	ltpFR	10	n/a	n/a	n/a	n/a	n/a	n/a	n/a	13	3	2	8	n/a	n/a	n/a	n/a	n/a
1479971	STOP	n/a	LTP196	ltpFR	10	n/a	n/a	n/a	n/a	n/a	n/a	n/a	n/a	n/a	n/a	n/a	n/a	n/a	n/a	n/a	n/a
1481158	WORD	wordpools/wasnorm_wordpool_less_exclusions.txt	LTP196	ltpFR	10	7	0	TRAY	1498	n/a	n/a	0	n/a	0	0	0	0.422607421875	0.5869140625	0	lower	zerothre.ttf
1484170	START	n/a	LTP196	ltpFR	10	n/a	n/a	n/a	n/a	n/a	n/a	n/a	n/a	n/a	n/a	n/a	n/a	n/a	n/a	n/a	n/a
1485168	PROB	n/a	LTP196	ltpFR	10	n/a	n/a	n/a	n/a	n/a	n/a	n/a	24	8	7	9	n/a	n/a	n/a	n/a	n/a
1489229	PROB	n/a	LTP196	ltpFR	10	n/a	n/a	n/a	n/a	n/a	n/a	n/a	5	3	1	1	n/a	n/a	n/a	n/a	n/a
1490620	STOP	n/a	LTP196	ltpFR	10	n/a	n/a	n/a	n/a	n/a	n/a	n/a	n/a	n/a	n/a	n/a	n/a	n/a	n/a	n/a	n/a
1493223	WORD	wordpools/wasnorm_wordpool_less_exclusions.txt	LTP196	ltpFR	10	7	0	FARMER	553	n/a	n/a	1	n/a	0	0	0	0.422607421875	0.5869140625	0	lower	zerothre.ttf
1496236	START	n/a	LTP196	ltpFR	10	n/a	n/a	n/a	n/a	n/a	n/a	n/a	n/a	n/a	n/a	n/a	n/a	n/a	n/a	n/a	n/a
1497317	PROB	n/a	LTP196	ltpFR	10	n/a	n/a	n/a	n/a	n/a	n/a	n/a	13	3	5	5	n/a	n/a	n/a	n/a	n/a
1499547	PROB	n/a	LTP196	ltpFR	10	n/a	n/a	n/a	n/a	n/a	n/a	n/a	11	5	2	4	n/a	n/a	n/a	n/a	n/a
1503820	STOP	n/a	LTP196	ltpFR	10	n/a	n/a	n/a	n/a	n/a	n/a	n/a	n/a	n/a	n/a	n/a	n/a	n/a	n/a	n/a	n/a
1505255	WORD	wordpools/wasnorm_wordpool_less_exclusions.txt	LTP196	ltpFR	10	7	0	BEETLE	116	n/a	n/a	0	n/a	0	0	0	0.422607421875	0.5869140625	0	lower	zerothre.ttf
1508268	START	n/a	LTP196	ltpFR	10	n/a	n/a	n/a	n/a	n/a	n/a	n/a	n/a	n/a	n/a	n/a	n/a	n/a	n/a	n/a	n/a
1509399	PROB	n/a	LTP196	ltpFR	10	n/a	n/a	n/a	n/a	n/a	n/a	n/a	17	7	3	7	n/a	n/a	n/a	n/a	n/a
1511079	PROB	n/a	LTP196	ltpFR	10	n/a	n/a	n/a	n/a	n/a	n/a	n/a	11	2	6	3	n/a	n/a	n/a	n/a	n/a
1516268	STOP	n/a	LTP196	ltpFR	10	n/a	n/a	n/a	n/a	n/a	n/a	n/a	n/a	n/a	n/a	n/a	n/a	n/a	n/a	n/a	n/a
1517420	WORD	wordpools/wasnorm_wordpool_less_exclusions.txt	LTP196	ltpFR	10	7	0	CLIMBER	323	n/a	n/a	1	n/a	0	0	0	0.422607421875	0.5869140625	0	lower	zerothre.ttf
1520433	START	n/a	LTP196	ltpFR	10	n/a	n/a	n/a	n/a	n/a	n/a	n/a	n/a	n/a	n/a	n/a	n/a	n/a	n/a	n/a	n/a
1521381	PROB	n/a	LTP196	ltpFR	10	n/a	n/a	n/a	n/a	n/a	n/a	n/a	24	9	7	8	n/a	n/a	n/a	n/a	n/a
1524076	PROB	n/a	LTP196	ltpFR	10	n/a	n/a	n/a	n/a	n/a	n/a	n/a	15	5	2	8	n/a	n/a	n/a	n/a	n/a
1528433	STOP	n/a	LTP196	ltpFR	10	n/a	n/a	n/a	n/a	n/a	n/a	n/a	n/a	n/a	n/a	n/a	n/a	n/a	n/a	n/a	n/a
1529568	WORD	wordpools/wasnorm_wordpool_less_exclusions.txt	LTP196	ltpFR	10	7	0	CANYON	235	n/a	n/a	1	n/a	0	0	0	0.422607421875	0.5869140625	0	lower	zerothre.ttf
1532580	START	n/a	LTP196	ltpFR	10	n/a	n/a	n/a	n/a	n/a	n/a	n/a	n/a	n/a	n/a	n/a	n/a	n/a	n/a	n/a	n/a
1533595	PROB	n/a	LTP196	ltpFR	10	n/a	n/a	n/a	n/a	n/a	n/a	n/a	7	1	1	5	n/a	n/a	n/a	n/a	n/a
1535527	PROB	n/a	LTP196	ltpFR	10	n/a	n/a	n/a	n/a	n/a	n/a	n/a	12	4	7	1	n/a	n/a	n/a	n/a	n/a
1537939	PROB	n/a	LTP196	ltpFR	10	n/a	n/a	n/a	n/a	n/a	n/a	n/a	17	7	5	5	n/a	n/a	n/a	n/a	n/a
1539437	STOP	n/a	LTP196	ltpFR	10	n/a	n/a	n/a	n/a	n/a	n/a	n/a	n/a	n/a	n/a	n/a	n/a	n/a	n/a	n/a	n/a
1541401	WORD	wordpools/wasnorm_wordpool_less_exclusions.txt	LTP196	ltpFR	10	7	0	VEGETABLE	1552	n/a	n/a	0	n/a	0	0	0	0.422607421875	0.5869140625	0	lower	zerothre.ttf
1544414	START	n/a	LTP196	ltpFR	10	n/a	n/a	n/a	n/a	n/a	n/a	n/a	n/a	n/a	n/a	n/a	n/a	n/a	n/a	n/a	n/a
1545312	PROB	n/a	LTP196	ltpFR	10	n/a	n/a	n/a	n/a	n/a	n/a	n/a	10	4	4	2	n/a	n/a	n/a	n/a	n/a
1547008	PROB	n/a	LTP196	ltpFR	10	n/a	n/a	n/a	n/a	n/a	n/a	n/a	12	2	5	5	n/a	n/a	n/a	n/a	n/a
1548307	PROB	n/a	LTP196	ltpFR	10	n/a	n/a	n/a	n/a	n/a	n/a	n/a	17	9	5	3	n/a	n/a	n/a	n/a	n/a
1552414	STOP	n/a	LTP196	ltpFR	10	n/a	n/a	n/a	n/a	n/a	n/a	n/a	n/a	n/a	n/a	n/a	n/a	n/a	n/a	n/a	n/a
1553333	WORD	wordpools/wasnorm_wordpool_less_exclusions.txt	LTP196	ltpFR	10	7	0	HAWK	692	n/a	n/a	0	n/a	0	0	0	0.422607421875	0.5869140625	0	lower	zerothre.ttf
1556346	START	n/a	LTP196	ltpFR	10	n/a	n/a	n/a	n/a	n/a	n/a	n/a	n/a	n/a	n/a	n/a	n/a	n/a	n/a	n/a	n/a
1557494	PROB	n/a	LTP196	ltpFR	10	n/a	n/a	n/a	n/a	n/a	n/a	n/a	20	4	9	7	n/a	n/a	n/a	n/a	n/a
1560306	PROB	n/a	LTP196	ltpFR	10	n/a	n/a	n/a	n/a	n/a	n/a	n/a	12	8	1	3	n/a	n/a	n/a	n/a	n/a
1564346	STOP	n/a	LTP196	ltpFR	10	n/a	n/a	n/a	n/a	n/a	n/a	n/a	n/a	n/a	n/a	n/a	n/a	n/a	n/a	n/a	n/a
1565448	WORD	wordpools/wasnorm_wordpool_less_exclusions.txt	LTP196	ltpFR	10	7	0	CUBE	420	n/a	n/a	0	n/a	0	0	0	0.422607421875	0.5869140625	0	lower	zerothre.ttf
1568461	START	n/a	LTP196	ltpFR	10	n/a	n/a	n/a	n/a	n/a	n/a	n/a	n/a	n/a	n/a	n/a	n/a	n/a	n/a	n/a	n/a
1569509	PROB	n/a	LTP196	ltpFR	10	n/a	n/a	n/a	n/a	n/a	n/a	n/a	16	9	1	6	n/a	n/a	n/a	n/a	n/a
1570973	PROB	n/a	LTP196	ltpFR	10	n/a	n/a	n/a	n/a	n/a	n/a	n/a	13	3	5	5	n/a	n/a	n/a	n/a	n/a
1572505	PROB	n/a	LTP196	ltpFR	10	n/a	n/a	n/a	n/a	n/a	n/a	n/a	25	9	6	9	n/a	n/a	n/a	n/a	n/a
1575269	STOP	n/a	LTP196	ltpFR	10	n/a	n/a	n/a	n/a	n/a	n/a	n/a	n/a	n/a	n/a	n/a	n/a	n/a	n/a	n/a	n/a
1577464	WORD	wordpools/wasnorm_wordpool_less_exclusions.txt	LTP196	ltpFR	10	7	0	BREAST	171	n/a	n/a	0	n/a	0	0	0	0.422607421875	0.5869140625	0	lower	zerothre.ttf
1580476	START	n/a	LTP196	ltpFR	10	n/a	n/a	n/a	n/a	n/a	n/a	n/a	n/a	n/a	n/a	n/a	n/a	n/a	n/a	n/a	n/a
1581458	PROB	n/a	LTP196	ltpFR	10	n/a	n/a	n/a	n/a	n/a	n/a	n/a	17	5	5	7	n/a	n/a	n/a	n/a	n/a
1583172	PROB	n/a	LTP196	ltpFR	10	n/a	n/a	n/a	n/a	n/a	n/a	n/a	13	6	6	1	n/a	n/a	n/a	n/a	n/a
1584735	PROB	n/a	LTP196	ltpFR	10	n/a	n/a	n/a	n/a	n/a	n/a	n/a	20	8	7	5	n/a	n/a	n/a	n/a	n/a
1588333	STOP	n/a	LTP196	ltpFR	10	n/a	n/a	n/a	n/a	n/a	n/a	n/a	n/a	n/a	n/a	n/a	n/a	n/a	n/a	n/a	n/a
1589645	WORD	wordpools/wasnorm_wordpool_less_exclusions.txt	LTP196	ltpFR	10	7	0	BOUILLON	154	n/a	n/a	0	n/a	0	0	0	0.422607421875	0.5869140625	0	lower	zerothre.ttf
1592657	START	n/a	LTP196	ltpFR	10	n/a	n/a	n/a	n/a	n/a	n/a	n/a	n/a	n/a	n/a	n/a	n/a	n/a	n/a	n/a	n/a
1593772	PROB	n/a	LTP196	ltpFR	10	n/a	n/a	n/a	n/a	n/a	n/a	n/a	14	5	6	3	n/a	n/a	n/a	n/a	n/a
1597135	PROB	n/a	LTP196	ltpFR	10	n/a	n/a	n/a	n/a	n/a	n/a	n/a	24	8	8	8	n/a	n/a	n/a	n/a	n/a
1598714	PROB	n/a	LTP196	ltpFR	10	n/a	n/a	n/a	n/a	n/a	n/a	n/a	14	7	4	3	n/a	n/a	n/a	n/a	n/a
1600405	STOP	n/a	LTP196	ltpFR	10	n/a	n/a	n/a	n/a	n/a	n/a	n/a	n/a	n/a	n/a	n/a	n/a	n/a	n/a	n/a	n/a
1602444	REC_START	n/a	LTP196	ltpFR	10	7	n/a	n/a	n/a	n/a	n/a	n/a	n/a	0	0	0	n/a	n/a	n/a	n/a	n/a
1605791	REC_WORD	wordpools/wasnorm_wordpool_less_exclusions.txt	LTP196	ltpFR	10	7	0	BOUILLON	154	n/a	n/a	0	n/a	0	0	0	n/a	n/a	n/a	n/a	n/a
1611199	REC_WORD	wordpools/wasnorm_wordpool_less_exclusions.txt	LTP196	ltpFR	10	7	0	CUBE	420	n/a	n/a	0	n/a	0	0	0	n/a	n/a	n/a	n/a	n/a
1612905	REC_WORD	wordpools/wasnorm_wordpool_less_exclusions.txt	LTP196	ltpFR	10	7	0	BREAST	171	n/a	n/a	0	n/a	0	0	0	n/a	n/a	n/a	n/a	n/a
1617979	REC_WORD	wordpools/wasnorm_wordpool_less_exclusions.txt	LTP196	ltpFR	10	7	0	KETTLE	772	n/a	n/a	0	n/a	0	0	0	n/a	n/a	n/a	n/a	n/a
1619879	REC_WORD	wordpools/wasnorm_wordpool_less_exclusions.txt	LTP196	ltpFR	10	7	0	FARM	552	n/a	n/a	1	n/a	0	0	0	n/a	n/a	n/a	n/a	n/a
1621969	REC_WORD	wordpools/wasnorm_wordpool_less_exclusions.txt	LTP196	ltpFR	10	7	0	SHORE	1291	n/a	n/a	1	n/a	0	0	0	n/a	n/a	n/a	n/a	n/a
1623840	REC_WORD	wordpools/wasnorm_wordpool_less_exclusions.txt	LTP196	ltpFR	10	7	0	FARMER	553	n/a	n/a	1	n/a	0	0	0	n/a	n/a	n/a	n/a	n/a
1627203	REC_WORD	wordpools/wasnorm_wordpool_less_exclusions.txt	LTP196	ltpFR	10	7	0	RODENT	1204	n/a	n/a	0	n/a	0	0	0	n/a	n/a	n/a	n/a	n/a
1630625	REC_WORD	wordpools/wasnorm_wordpool_less_exclusions.txt	LTP196	ltpFR	10	7	0	LAGOON	795	n/a	n/a	1	n/a	0	0	0	n/a	n/a	n/a	n/a	n/a
1685884	WORD	wordpools/wasnorm_wordpool_less_exclusions.txt	LTP196	ltpFR	10	8	0	LIEUTENANT	818	n/a	n/a	1	n/a	0	0	0	0.422607421875	0.5869140625	0	lower	zerothre.ttf
1690011	WORD	wordpools/wasnorm_wordpool_less_exclusions.txt	LTP196	ltpFR	10	8	0	PORK	1108	n/a	n/a	0	n/a	0	0	0	0.422607421875	0.5869140625	0	lower	zerothre.ttf
1694039	WORD	wordpools/wasnorm_wordpool_less_exclusions.txt	LTP196	ltpFR	10	8	0	BRACES	164	n/a	n/a	0	n/a	0	0	0	0.422607421875	0.5869140625	0	lower	zerothre.ttf
1698134	WORD	wordpools/wasnorm_wordpool_less_exclusions.txt	LTP196	ltpFR	10	8	1	PEARL	1034	n/a	n/a	0	n/a	0	0	0	0.57763671875	0.412841796875	1	upper	amplitud.ttf
1702194	WORD	wordpools/wasnorm_wordpool_less_exclusions.txt	LTP196	ltpFR	10	8	1	INSTRUCTOR	741	n/a	n/a	1	n/a	0	0	0	0.57763671875	0.412841796875	1	upper	amplitud.ttf
1706054	WORD	wordpools/wasnorm_wordpool_less_exclusions.txt	LTP196	ltpFR	10	8	1	SCOUT	1252	n/a	n/a	1	n/a	0	0	0	0.57763671875	0.412841796875	1	upper	amplitud.ttf
1710216	WORD	wordpools/wasnorm_wordpool_less_exclusions.txt	LTP196	ltpFR	10	8	1	BEEF	113	n/a	n/a	1	n/a	0	0	0	0.57763671875	0.412841796875	1	upper	amplitud.ttf
1714160	WORD	wordpools/wasnorm_wordpool_less_exclusions.txt	LTP196	ltpFR	10	8	1	CHIME	300	n/a	n/a	0	n/a	0	0	0	0.57763671875	0.412841796875	1	upper	amplitud.ttf
1717986	WORD	wordpools/wasnorm_wordpool_less_exclusions.txt	LTP196	ltpFR	10	8	0	FUGITIVE	612	n/a	n/a	1	n/a	0	0	0	0.422607421875	0.5869140625	0	lower	zerothre.ttf
1722098	WORD	wordpools/wasnorm_wordpool_less_exclusions.txt	LTP196	ltpFR	10	8	0	DUNGEON	507	n/a	n/a	1	n/a	0	0	0	0.422607421875	0.5869140625	0	lower	zerothre.ttf
1726292	WORD	wordpools/wasnorm_wordpool_less_exclusions.txt	LTP196	ltpFR	10	8	0	MOVIE	927	n/a	n/a	0	n/a	0	0	0	0.422607421875	0.5869140625	0	lower	zerothre.ttf
1730502	WORD	wordpools/wasnorm_wordpool_less_exclusions.txt	LTP196	ltpFR	10	8	1	CREATURE	403	n/a	n/a	1	n/a	0	0	0	0.57763671875	0.412841796875	1	upper	amplitud.ttf
1734413	WORD	wordpools/wasnorm_wordpool_less_exclusions.txt	LTP196	ltpFR	10	8	1	TOOTHBRUSH	1482	n/a	n/a	0	n/a	0	0	0	0.57763671875	0.412841796875	1	upper	amplitud.ttf
1738572	WORD	wordpools/wasnorm_wordpool_less_exclusions.txt	LTP196	ltpFR	10	8	1	ROBOT	1200	n/a	n/a	0	n/a	0	0	0	0.57763671875	0.412841796875	1	upper	amplitud.ttf
1742783	WORD	wordpools/wasnorm_wordpool_less_exclusions.txt	LTP196	ltpFR	10	8	0	COPIER	377	n/a	n/a	1	n/a	0	0	0	0.422607421875	0.5869140625	0	lower	zerothre.ttf
1746960	WORD	wordpools/wasnorm_wordpool_less_exclusions.txt	LTP196	ltpFR	10	8	0	PIGEON	1065	n/a	n/a	0	n/a	0	0	0	0.422607421875	0.5869140625	0	lower	zerothre.ttf
1749972	START	n/a	LTP196	ltpFR	10	n/a	n/a	n/a	n/a	n/a	n/a	n/a	n/a	n/a	n/a	n/a	n/a	n/a	n/a	n/a	n/a
1750920	PROB	n/a	LTP196	ltpFR	10	n/a	n/a	n/a	n/a	n/a	n/a	n/a	15	1	9	5	n/a	n/a	n/a	n/a	n/a
1752934	PROB	n/a	LTP196	ltpFR	10	n/a	n/a	n/a	n/a	n/a	n/a	n/a	12	1	3	8	n/a	n/a	n/a	n/a	n/a
1755215	PROB	n/a	LTP196	ltpFR	10	n/a	n/a	n/a	n/a	n/a	n/a	n/a	13	8	3	2	n/a	n/a	n/a	n/a	n/a
1756895	PROB	n/a	LTP196	ltpFR	10	n/a	n/a	n/a	n/a	n/a	n/a	n/a	16	2	5	9	n/a	n/a	n/a	n/a	n/a
1758775	PROB	n/a	LTP196	ltpFR	10	n/a	n/a	n/a	n/a	n/a	n/a	n/a	17	5	9	3	n/a	n/a	n/a	n/a	n/a
1760955	PROB	n/a	LTP196	ltpFR	10	n/a	n/a	n/a	n/a	n/a	n/a	n/a	13	1	4	7	n/a	n/a	n/a	n/a	n/a
1765972	STOP	n/a	LTP196	ltpFR	10	n/a	n/a	n/a	n/a	n/a	n/a	n/a	n/a	n/a	n/a	n/a	n/a	n/a	n/a	n/a	n/a
1767796	REC_START	n/a	LTP196	ltpFR	10	8	n/a	n/a	n/a	n/a	n/a	n/a	n/a	0	0	0	n/a	n/a	n/a	n/a	n/a
1770380	REC_WORD	wordpools/wasnorm_wordpool_less_exclusions.txt	LTP196	ltpFR	10	8	0	LIEUTENANT	818	n/a	n/a	1	n/a	0	0	0	n/a	n/a	n/a	n/a	n/a
1772540	REC_WORD	wordpools/wasnorm_wordpool_less_exclusions.txt	LTP196	ltpFR	10	8	1	INSTRUCTOR	741	n/a	n/a	1	n/a	0	0	0	n/a	n/a	n/a	n/a	n/a
1773540	REC_WORD_VV	wordpools/wasnorm_wordpool_less_exclusions.txt	LTP196	ltpFR	10	8	n/a	<>	-1	n/a	n/a	n/a	n/a	0	0	0	n/a	n/a	n/a	n/a	n/a
1775359	REC_WORD	wordpools/wasnorm_wordpool_less_exclusions.txt	LTP196	ltpFR	10	8	1	PEARL	1034	n/a	n/a	0	n/a	0	0	0	n/a	n/a	n/a	n/a	n/a
1781913	REC_WORD	wordpools/wasnorm_wordpool_less_exclusions.txt	LTP196	ltpFR	10	8	1	BEEF	113	n/a	n/a	1	n/a	0	0	0	n/a	n/a	n/a	n/a	n/a
1783231	REC_WORD	wordpools/wasnorm_wordpool_less_exclusions.txt	LTP196	ltpFR	10	8	0	PORK	1108	n/a	n/a	0	n/a	0	0	0	n/a	n/a	n/a	n/a	n/a
1786443	REC_WORD	wordpools/wasnorm_wordpool_less_exclusions.txt	LTP196	ltpFR	10	8	0	BRACES	164	n/a	n/a	0	n/a	0	0	0	n/a	n/a	n/a	n/a	n/a
1787606	REC_WORD	wordpools/wasnorm_wordpool_less_exclusions.txt	LTP196	ltpFR	10	8	1	TOOTHBRUSH	1482	n/a	n/a	0	n/a	0	0	0	n/a	n/a	n/a	n/a	n/a
1821713	REC_WORD	wordpools/wasnorm_wordpool_less_exclusions.txt	LTP196	ltpFR	10	8	1	SCOUT	1252	n/a	n/a	1	n/a	0	0	0	n/a	n/a	n/a	n/a	n/a
1834304	REC_WORD	wordpools/wasnorm_wordpool_less_exclusions.txt	LTP196	ltpFR	10	8	0	DUNGEON	507	n/a	n/a	1	n/a	0	0	0	n/a	n/a	n/a	n/a	n/a
1836245	REC_WORD	wordpools/wasnorm_wordpool_less_exclusions.txt	LTP196	ltpFR	10	8	0	FUGITIVE	612	n/a	n/a	1	n/a	0	0	0	n/a	n/a	n/a	n/a	n/a
1837901	REC_WORD	wordpools/wasnorm_wordpool_less_exclusions.txt	LTP196	ltpFR	10	8	1	CREATURE	403	n/a	n/a	1	n/a	0	0	0	n/a	n/a	n/a	n/a	n/a
1846960	WORD	wordpools/wasnorm_wordpool_less_exclusions.txt	LTP196	ltpFR	10	9	0	SHEPHERD	1283	n/a	n/a	1	n/a	0	0	0	0.422607421875	0.5869140625	0	lower	zerothre.ttf
1850788	WORD	wordpools/wasnorm_wordpool_less_exclusions.txt	LTP196	ltpFR	10	9	0	ZOO	1637	n/a	n/a	1	n/a	0	0	0	0.422607421875	0.5869140625	0	lower	zerothre.ttf
1854632	WORD	wordpools/wasnorm_wordpool_less_exclusions.txt	LTP196	ltpFR	10	9	0	COIN	343	n/a	n/a	0	n/a	0	0	0	0.422607421875	0.5869140625	0	lower	zerothre.ttf
1858676	WORD	wordpools/wasnorm_wordpool_less_exclusions.txt	LTP196	ltpFR	10	9	0	ESSAY	540	n/a	n/a	0	n/a	0	0	0	0.422607421875	0.5869140625	0	lower	zerothre.ttf
1862687	WORD	wordpools/wasnorm_wordpool_less_exclusions.txt	LTP196	ltpFR	10	9	0	BINDER	127	n/a	n/a	0	n/a	0	0	0	0.422607421875	0.5869140625	0	lower	zerothre.ttf
1866714	WORD	wordpools/wasnorm_wordpool_less_exclusions.txt	LTP196	ltpFR	10	9	0	ABDOMEN	1	n/a	n/a	1	n/a	0	0	0	0.422607421875	0.5869140625	0	lower	zerothre.ttf
1870741	WORD	wordpools/wasnorm_wordpool_less_exclusions.txt	LTP196	ltpFR	10	9	0	APRON	35	n/a	n/a	0	n/a	0	0	0	0.422607421875	0.5869140625	0	lower	zerothre.ttf
1874769	WORD	wordpools/wasnorm_wordpool_less_exclusions.txt	LTP196	ltpFR	10	9	0	CORN	381	n/a	n/a	0	n/a	0	0	0	0.422607421875	0.5869140625	0	lower	zerothre.ttf
1878779	WORD	wordpools/wasnorm_wordpool_less_exclusions.txt	LTP196	ltpFR	10	9	0	GAZELLE	628	n/a	n/a	1	n/a	0	0	0	0.422607421875	0.5869140625	0	lower	zerothre.ttf
1882607	WORD	wordpools/wasnorm_wordpool_less_exclusions.txt	LTP196	ltpFR	10	9	0	PERSONNEL	1053	n/a	n/a	1	n/a	0	0	0	0.422607421875	0.5869140625	0	lower	zerothre.ttf
1886436	WORD	wordpools/wasnorm_wordpool_less_exclusions.txt	LTP196	ltpFR	10	9	0	RECEIPT	1173	n/a	n/a	0	n/a	0	0	0	0.422607421875	0.5869140625	0	lower	zerothre.ttf
1890297	WORD	wordpools/wasnorm_wordpool_less_exclusions.txt	LTP196	ltpFR	10	9	0	FURNITURE	616	n/a	n/a	1	n/a	0	0	0	0.422607421875	0.5869140625	0	lower	zerothre.ttf
1894390	WORD	wordpools/wasnorm_wordpool_less_exclusions.txt	LTP196	ltpFR	10	9	0	LODGE	839	n/a	n/a	1	n/a	0	0	0	0.422607421875	0.5869140625	0	lower	zerothre.ttf
1898368	WORD	wordpools/wasnorm_wordpool_less_exclusions.txt	LTP196	ltpFR	10	9	0	TEMPLE	1448	n/a	n/a	1	n/a	0	0	0	0.422607421875	0.5869140625	0	lower	zerothre.ttf
1902545	WORD	wordpools/wasnorm_wordpool_less_exclusions.txt	LTP196	ltpFR	10	9	0	CATHEDRAL	260	n/a	n/a	1	n/a	0	0	0	0.422607421875	0.5869140625	0	lower	zerothre.ttf
1906655	WORD	wordpools/wasnorm_wordpool_less_exclusions.txt	LTP196	ltpFR	10	9	0	BONE	148	n/a	n/a	0	n/a	0	0	0	0.422607421875	0.5869140625	0	lower	zerothre.ttf
1909667	START	n/a	LTP196	ltpFR	10	n/a	n/a	n/a	n/a	n/a	n/a	n/a	n/a	n/a	n/a	n/a	n/a	n/a	n/a	n/a	n/a
1910582	PROB	n/a	LTP196	ltpFR	10	n/a	n/a	n/a	n/a	n/a	n/a	n/a	13	6	1	6	n/a	n/a	n/a	n/a	n/a
1912596	PROB	n/a	LTP196	ltpFR	10	n/a	n/a	n/a	n/a	n/a	n/a	n/a	12	8	2	2	n/a	n/a	n/a	n/a	n/a
1914311	PROB	n/a	LTP196	ltpFR	10	n/a	n/a	n/a	n/a	n/a	n/a	n/a	22	8	5	9	n/a	n/a	n/a	n/a	n/a
1917485	STOP	n/a	LTP196	ltpFR	10	n/a	n/a	n/a	n/a	n/a	n/a	n/a	n/a	n/a	n/a	n/a	n/a	n/a	n/a	n/a	n/a
1919602	REC_START	n/a	LTP196	ltpFR	10	9	n/a	n/a	n/a	n/a	n/a	n/a	n/a	0	0	0	n/a	n/a	n/a	n/a	n/a
1922331	REC_WORD	wordpools/wasnorm_wordpool_less_exclusions.txt	LTP196	ltpFR	10	9	0	SHEPHERD	1283	n/a	n/a	1	n/a	0	0	0	n/a	n/a	n/a	n/a	n/a
1924271	REC_WORD	wordpools/wasnorm_wordpool_less_exclusions.txt	LTP196	ltpFR	10	9	0	GAZELLE	628	n/a	n/a	1	n/a	0	0	0	n/a	n/a	n/a	n/a	n/a
1925917	REC_WORD	wordpools/wasnorm_wordpool_less_exclusions.txt	LTP196	ltpFR	10	9	0	ZOO	1637	n/a	n/a	1	n/a	0	0	0	n/a	n/a	n/a	n/a	n/a
1927619	REC_WORD	wordpools/wasnorm_wordpool_less_exclusions.txt	LTP196	ltpFR	10	9	0	PERSONNEL	1053	n/a	n/a	1	n/a	0	0	0	n/a	n/a	n/a	n/a	n/a
1929868	REC_WORD	wordpools/wasnorm_wordpool_less_exclusions.txt	LTP196	ltpFR	10	9	0	CORN	381	n/a	n/a	0	n/a	0	0	0	n/a	n/a	n/a	n/a	n/a
1932293	REC_WORD	wordpools/wasnorm_wordpool_less_exclusions.txt	LTP196	ltpFR	10	9	0	LODGE	839	n/a	n/a	1	n/a	0	0	0	n/a	n/a	n/a	n/a	n/a
1935251	REC_WORD	wordpools/wasnorm_wordpool_less_exclusions.txt	LTP196	ltpFR	10	9	0	FURNITURE	616	n/a	n/a	1	n/a	0	0	0	n/a	n/a	n/a	n/a	n/a
1940893	REC_WORD	wordpools/wasnorm_wordpool_less_exclusions.txt	LTP196	ltpFR	10	9	0	ESSAY	540	n/a	n/a	0	n/a	0	0	0	n/a	n/a	n/a	n/a	n/a
1942051	REC_WORD	wordpools/wasnorm_wordpool_less_exclusions.txt	LTP196	ltpFR	10	9	0	COIN	343	n/a	n/a	0	n/a	0	0	0	n/a	n/a	n/a	n/a	n/a
1943363	REC_WORD	wordpools/wasnorm_wordpool_less_exclusions.txt	LTP196	ltpFR	10	9	0	BINDER	127	n/a	n/a	0	n/a	0	0	0	n/a	n/a	n/a	n/a	n/a
1952786	REC_WORD	wordpools/wasnorm_wordpool_less_exclusions.txt	LTP196	ltpFR	10	9	0	TEMPLE	1448	n/a	n/a	1	n/a	0	0	0	n/a	n/a	n/a	n/a	n/a
1957600	REC_WORD	wordpools/wasnorm_wordpool_less_exclusions.txt	LTP196	ltpFR	10	9	0	CATHEDRAL	260	n/a	n/a	1	n/a	0	0	0	n/a	n/a	n/a	n/a	n/a
1969752	REC_WORD	wordpools/wasnorm_wordpool_less_exclusions.txt	LTP196	ltpFR	10	9	0	BONE	148	n/a	n/a	0	n/a	0	0	0	n/a	n/a	n/a	n/a	n/a
1998567	WORD	wordpools/wasnorm_wordpool_less_exclusions.txt	LTP196	ltpFR	10	10	1	OTTER	986	n/a	n/a	1	n/a	0	0	0	0.57763671875	0.412841796875	1	upper	amplitud.ttf
2002628	WORD	wordpools/wasnorm_wordpool_less_exclusions.txt	LTP196	ltpFR	10	10	1	PORCUPINE	1107	n/a	n/a	1	n/a	0	0	0	0.57763671875	0.412841796875	1	upper	amplitud.ttf
2006655	WORD	wordpools/wasnorm_wordpool_less_exclusions.txt	LTP196	ltpFR	10	10	0	SKUNK	1321	n/a	n/a	1	n/a	0	0	0	0.422607421875	0.5869140625	0	lower	zerothre.ttf
2010699	WORD	wordpools/wasnorm_wordpool_less_exclusions.txt	LTP196	ltpFR	10	10	0	BERRY	122	n/a	n/a	0	n/a	0	0	0	0.422607421875	0.5869140625	0	lower	zerothre.ttf
2014643	WORD	wordpools/wasnorm_wordpool_less_exclusions.txt	LTP196	ltpFR	10	10	0	CONTRACT	368	n/a	n/a	0	n/a	0	0	0	0.422607421875	0.5869140625	0	lower	zerothre.ttf
2018554	WORD	wordpools/wasnorm_wordpool_less_exclusions.txt	LTP196	ltpFR	10	10	0	TOOL	1480	n/a	n/a	0	n/a	0	0	0	0.422607421875	0.5869140625	0	lower	zerothre.ttf
2022631	WORD	wordpools/wasnorm_wordpool_less_exclusions.txt	LTP196	ltpFR	10	10	1	HAMMER	680	n/a	n/a	0	n/a	0	0	0	0.57763671875	0.412841796875	1	upper	amplitud.ttf
2026758	WORD	wordpools/wasnorm_wordpool_less_exclusions.txt	LTP196	ltpFR	10	10	1	SERGEANT	1269	n/a	n/a	1	n/a	0	0	0	0.57763671875	0.412841796875	1	upper	amplitud.ttf
2030836	WORD	wordpools/wasnorm_wordpool_less_exclusions.txt	LTP196	ltpFR	10	10	1	CAPTAIN	239	n/a	n/a	1	n/a	0	0	0	0.57763671875	0.412841796875	1	upper	amplitud.ttf
2034963	WORD	wordpools/wasnorm_wordpool_less_exclusions.txt	LTP196	ltpFR	10	10	1	TAPIOCA	1434	n/a	n/a	0	n/a	0	0	0	0.57763671875	0.412841796875	1	upper	amplitud.ttf
2038840	WORD	wordpools/wasnorm_wordpool_less_exclusions.txt	LTP196	ltpFR	10	10	0	SHORTCAKE	1292	n/a	n/a	2	n/a	0	0	0	0.422607421875	0.5869140625	0	lower	zerothre.ttf
2039806	KEY_MSG	n/a	LTP196	ltpFR	10	10	n/a	n/a	n/a	n/a	n/a	n/a	n/a	0	0	0	n/a	n/a	n/a	n/a	n/a
2042685	WORD	wordpools/wasnorm_wordpool_less_exclusions.txt	LTP196	ltpFR	10	10	0	GENTLEMAN	631	n/a	n/a	1	n/a	0	0	0	0.422607421875	0.5869140625	0	lower	zerothre.ttf
2046729	WORD	wordpools/wasnorm_wordpool_less_exclusions.txt	LTP196	ltpFR	10	10	0	PIE	1062	n/a	n/a	0	n/a	0	0	0	0.422607421875	0.5869140625	0	lower	zerothre.ttf
2050706	WORD	wordpools/wasnorm_wordpool_less_exclusions.txt	LTP196	ltpFR	10	10	0	MAID	856	n/a	n/a	0	n/a	0	0	0	0.422607421875	0.5869140625	0	lower	zerothre.ttf
2054733	WORD	wordpools/wasnorm_wordpool_less_exclusions.txt	LTP196	ltpFR	10	10	1	WAND	1586	n/a	n/a	0	n/a	0	0	0	0.57763671875	0.412841796875	1	upper	amplitud.ttf
2058677	WORD	wordpools/wasnorm_wordpool_less_exclusions.txt	LTP196	ltpFR	10	10	1	OINTMENT	974	n/a	n/a	0	n/a	0	0	0	0.57763671875	0.412841796875	1	upper	amplitud.ttf
2064719	REC_START	n/a	LTP196	ltpFR	10	10	n/a	n/a	n/a	n/a	n/a	n/a	n/a	0	0	0	n/a	n/a	n/a	n/a	n/a
2068216	REC_WORD	wordpools/wasnorm_wordpool_less_exclusions.txt	LTP196	ltpFR	10	10	1	SERGEANT	1269	n/a	n/a	1	n/a	0	0	0	n/a	n/a	n/a	n/a	n/a
2071129	REC_WORD	wordpools/wasnorm_wordpool_less_exclusions.txt	LTP196	ltpFR	10	10	1	OINTMENT	974	n/a	n/a	0	n/a	0	0	0	n/a	n/a	n/a	n/a	n/a
2073364	REC_WORD	wordpools/wasnorm_wordpool_less_exclusions.txt	LTP196	ltpFR	10	10	0	TOOL	1480	n/a	n/a	0	n/a	0	0	0	n/a	n/a	n/a	n/a	n/a
2075125	REC_WORD	wordpools/wasnorm_wordpool_less_exclusions.txt	LTP196	ltpFR	10	10	1	HAMMER	680	n/a	n/a	0	n/a	0	0	0	n/a	n/a	n/a	n/a	n/a
2077210	REC_WORD	wordpools/wasnorm_wordpool_less_exclusions.txt	LTP196	ltpFR	10	10	0	CONTRACT	368	n/a	n/a	0	n/a	0	0	0	n/a	n/a	n/a	n/a	n/a
2079530	REC_WORD	wordpools/wasnorm_wordpool_less_exclusions.txt	LTP196	ltpFR	10	10	0	BERRY	122	n/a	n/a	0	n/a	0	0	0	n/a	n/a	n/a	n/a	n/a
2081740	REC_WORD	wordpools/wasnorm_wordpool_less_exclusions.txt	LTP196	ltpFR	10	10	1	PORCUPINE	1107	n/a	n/a	1	n/a	0	0	0	n/a	n/a	n/a	n/a	n/a
2082838	REC_WORD	wordpools/wasnorm_wordpool_less_exclusions.txt	LTP196	ltpFR	10	10	1	OTTER	986	n/a	n/a	1	n/a	0	0	0	n/a	n/a	n/a	n/a	n/a
2089891	REC_WORD	wordpools/wasnorm_wordpool_less_exclusions.txt	LTP196	ltpFR	10	10	0	GENTLEMAN	631	n/a	n/a	1	n/a	0	0	0	n/a	n/a	n/a	n/a	n/a
2091258	REC_WORD	wordpools/wasnorm_wordpool_less_exclusions.txt	LTP196	ltpFR	10	10	0	MAID	856	n/a	n/a	0	n/a	0	0	0	n/a	n/a	n/a	n/a	n/a
2092850	REC_WORD	wordpools/wasnorm_wordpool_less_exclusions.txt	LTP196	ltpFR	10	10	0	PIE	1062	n/a	n/a	0	n/a	0	0	0	n/a	n/a	n/a	n/a	n/a
2140307	REST_REWET	n/a	LTP196	ltpFR	10	10	n/a	n/a	n/a	n/a	n/a	n/a	n/a	0	0	0	n/a	n/a	n/a	n/a	n/a
2440325	START	n/a	LTP196	ltpFR	10	n/a	n/a	n/a	n/a	n/a	n/a	n/a	n/a	n/a	n/a	n/a	n/a	n/a	n/a	n/a	n/a
2441838	PROB	n/a	LTP196	ltpFR	10	n/a	n/a	n/a	n/a	n/a	n/a	n/a	14	2	9	3	n/a	n/a	n/a	n/a	n/a
2444584	PROB	n/a	LTP196	ltpFR	10	n/a	n/a	n/a	n/a	n/a	n/a	n/a	23	9	5	9	n/a	n/a	n/a	n/a	n/a
2446981	PROB	n/a	LTP196	ltpFR	10	n/a	n/a	n/a	n/a	n/a	n/a	n/a	10	3	1	6	n/a	n/a	n/a	n/a	n/a
2448645	PROB	n/a	LTP196	ltpFR	10	n/a	n/a	n/a	n/a	n/a	n/a	n/a	12	8	1	3	n/a	n/a	n/a	n/a	n/a
2450477	PROB	n/a	LTP196	ltpFR	10	n/a	n/a	n/a	n/a	n/a	n/a	n/a	15	8	2	5	n/a	n/a	n/a	n/a	n/a
2451923	PROB	n/a	LTP196	ltpFR	10	n/a	n/a	n/a	n/a	n/a	n/a	n/a	7	4	1	2	n/a	n/a	n/a	n/a	n/a
2456325	STOP	n/a	LTP196	ltpFR	10	n/a	n/a	n/a	n/a	n/a	n/a	n/a	n/a	n/a	n/a	n/a	n/a	n/a	n/a	n/a	n/a
2457516	WORD	wordpools/wasnorm_wordpool_less_exclusions.txt	LTP196	ltpFR	10	11	1	PAINTER	1004	n/a	n/a	1	n/a	0	0	0	0.57763671875	0.412841796875	1	upper	amplitud.ttf
2460529	START	n/a	LTP196	ltpFR	10	n/a	n/a	n/a	n/a	n/a	n/a	n/a	n/a	n/a	n/a	n/a	n/a	n/a	n/a	n/a	n/a
2461527	PROB	n/a	LTP196	ltpFR	10	n/a	n/a	n/a	n/a	n/a	n/a	n/a	19	8	6	5	n/a	n/a	n/a	n/a	n/a
2463889	PROB	n/a	LTP196	ltpFR	10	n/a	n/a	n/a	n/a	n/a	n/a	n/a	3	1	1	1	n/a	n/a	n/a	n/a	n/a
2465271	PROB	n/a	LTP196	ltpFR	10	n/a	n/a	n/a	n/a	n/a	n/a	n/a	20	9	7	4	n/a	n/a	n/a	n/a	n/a
2467484	PROB	n/a	LTP196	ltpFR	10	n/a	n/a	n/a	n/a	n/a	n/a	n/a	22	8	7	7	n/a	n/a	n/a	n/a	n/a
2471362	PROB	n/a	LTP196	ltpFR	10	n/a	n/a	n/a	n/a	n/a	n/a	n/a	16	9	3	4	n/a	n/a	n/a	n/a	n/a
2473974	PROB	n/a	LTP196	ltpFR	10	n/a	n/a	n/a	n/a	n/a	n/a	n/a	19	7	9	3	n/a	n/a	n/a	n/a	n/a
2476165	STOP	n/a	LTP196	ltpFR	10	n/a	n/a	n/a	n/a	n/a	n/a	n/a	n/a	n/a	n/a	n/a	n/a	n/a	n/a	n/a	n/a
2477568	WORD	wordpools/wasnorm_wordpool_less_exclusions.txt	LTP196	ltpFR	10	11	1	PLASTER	1085	n/a	n/a	0	n/a	0	0	0	0.57763671875	0.412841796875	1	upper	amplitud.ttf
2480581	START	n/a	LTP196	ltpFR	10	n/a	n/a	n/a	n/a	n/a	n/a	n/a	n/a	n/a	n/a	n/a	n/a	n/a	n/a	n/a	n/a
2481629	PROB	n/a	LTP196	ltpFR	10	n/a	n/a	n/a	n/a	n/a	n/a	n/a	18	6	9	3	n/a	n/a	n/a	n/a	n/a
2485706	PROB	n/a	LTP196	ltpFR	10	n/a	n/a	n/a	n/a	n/a	n/a	n/a	19	3	8	8	n/a	n/a	n/a	n/a	n/a
2487521	PROB	n/a	LTP196	ltpFR	10	n/a	n/a	n/a	n/a	n/a	n/a	n/a	15	3	9	3	n/a	n/a	n/a	n/a	n/a
2489700	PROB	n/a	LTP196	ltpFR	10	n/a	n/a	n/a	n/a	n/a	n/a	n/a	24	8	9	7	n/a	n/a	n/a	n/a	n/a
2495900	STOP	n/a	LTP196	ltpFR	10	n/a	n/a	n/a	n/a	n/a	n/a	n/a	n/a	n/a	n/a	n/a	n/a	n/a	n/a	n/a	n/a
2497705	WORD	wordpools/wasnorm_wordpool_less_exclusions.txt	LTP196	ltpFR	10	11	1	INSECT	740	n/a	n/a	1	n/a	0	0	0	0.57763671875	0.412841796875	1	upper	amplitud.ttf
2500718	START	n/a	LTP196	ltpFR	10	n/a	n/a	n/a	n/a	n/a	n/a	n/a	n/a	n/a	n/a	n/a	n/a	n/a	n/a	n/a	n/a
2501534	PROB	n/a	LTP196	ltpFR	10	n/a	n/a	n/a	n/a	n/a	n/a	n/a	17	8	6	3	n/a	n/a	n/a	n/a	n/a
2504045	PROB	n/a	LTP196	ltpFR	10	n/a	n/a	n/a	n/a	n/a	n/a	n/a	21	6	6	9	n/a	n/a	n/a	n/a	n/a
2507890	PROB	n/a	LTP196	ltpFR	10	n/a	n/a	n/a	n/a	n/a	n/a	n/a	15	8	2	5	n/a	n/a	n/a	n/a	n/a
2510204	PROB	n/a	LTP196	ltpFR	10	n/a	n/a	n/a	n/a	n/a	n/a	n/a	13	3	3	7	n/a	n/a	n/a	n/a	n/a
2516718	STOP	n/a	LTP196	ltpFR	10	n/a	n/a	n/a	n/a	n/a	n/a	n/a	n/a	n/a	n/a	n/a	n/a	n/a	n/a	n/a	n/a
2517875	WORD	wordpools/wasnorm_wordpool_less_exclusions.txt	LTP196	ltpFR	10	11	1	COURSE	390	n/a	n/a	0	n/a	0	0	0	0.57763671875	0.412841796875	1	upper	amplitud.ttf
2520887	START	n/a	LTP196	ltpFR	10	n/a	n/a	n/a	n/a	n/a	n/a	n/a	n/a	n/a	n/a	n/a	n/a	n/a	n/a	n/a	n/a
2521719	PROB	n/a	LTP196	ltpFR	10	n/a	n/a	n/a	n/a	n/a	n/a	n/a	7	2	4	1	n/a	n/a	n/a	n/a	n/a
2525014	PROB	n/a	LTP196	ltpFR	10	n/a	n/a	n/a	n/a	n/a	n/a	n/a	12	8	3	1	n/a	n/a	n/a	n/a	n/a
2526795	PROB	n/a	LTP196	ltpFR	10	n/a	n/a	n/a	n/a	n/a	n/a	n/a	12	4	5	4	n/a	n/a	n/a	n/a	n/a
2529857	PROB	n/a	LTP196	ltpFR	10	n/a	n/a	n/a	n/a	n/a	n/a	n/a	13	2	3	8	n/a	n/a	n/a	n/a	n/a
2532138	PROB	n/a	LTP196	ltpFR	10	n/a	n/a	n/a	n/a	n/a	n/a	n/a	17	7	9	1	n/a	n/a	n/a	n/a	n/a
2536887	STOP	n/a	LTP196	ltpFR	10	n/a	n/a	n/a	n/a	n/a	n/a	n/a	n/a	n/a	n/a	n/a	n/a	n/a	n/a	n/a	n/a
2537712	WORD	wordpools/wasnorm_wordpool_less_exclusions.txt	LTP196	ltpFR	10	11	1	LIMOUSINE	824	n/a	n/a	0	n/a	0	0	0	0.57763671875	0.412841796875	1	upper	amplitud.ttf
2540724	START	n/a	LTP196	ltpFR	10	n/a	n/a	n/a	n/a	n/a	n/a	n/a	n/a	n/a	n/a	n/a	n/a	n/a	n/a	n/a	n/a
2541856	PROB	n/a	LTP196	ltpFR	10	n/a	n/a	n/a	n/a	n/a	n/a	n/a	9	1	2	6	n/a	n/a	n/a	n/a	n/a
2543819	PROB	n/a	LTP196	ltpFR	10	n/a	n/a	n/a	n/a	n/a	n/a	n/a	17	7	6	4	n/a	n/a	n/a	n/a	n/a
2545816	PROB	n/a	LTP196	ltpFR	10	n/a	n/a	n/a	n/a	n/a	n/a	n/a	18	5	7	6	n/a	n/a	n/a	n/a	n/a
2548131	PROB	n/a	LTP196	ltpFR	10	n/a	n/a	n/a	n/a	n/a	n/a	n/a	12	7	1	4	n/a	n/a	n/a	n/a	n/a
2550411	PROB	n/a	LTP196	ltpFR	10	n/a	n/a	n/a	n/a	n/a	n/a	n/a	13	7	4	1	n/a	n/a	n/a	n/a	n/a
2552773	PROB	n/a	LTP196	ltpFR	10	n/a	n/a	n/a	n/a	n/a	n/a	n/a	15	7	4	4	n/a	n/a	n/a	n/a	n/a
2556205	STOP	n/a	LTP196	ltpFR	10	n/a	n/a	n/a	n/a	n/a	n/a	n/a	n/a	n/a	n/a	n/a	n/a	n/a	n/a	n/a	n/a
2557915	WORD	wordpools/wasnorm_wordpool_less_exclusions.txt	LTP196	ltpFR	10	11	1	RAM	1165	n/a	n/a	1	n/a	0	0	0	0.57763671875	0.412841796875	1	upper	amplitud.ttf
2560928	START	n/a	LTP196	ltpFR	10	n/a	n/a	n/a	n/a	n/a	n/a	n/a	n/a	n/a	n/a	n/a	n/a	n/a	n/a	n/a	n/a
2561776	PROB	n/a	LTP196	ltpFR	10	n/a	n/a	n/a	n/a	n/a	n/a	n/a	18	6	3	9	n/a	n/a	n/a	n/a	n/a
2564290	PROB	n/a	LTP196	ltpFR	10	n/a	n/a	n/a	n/a	n/a	n/a	n/a	17	4	7	6	n/a	n/a	n/a	n/a	n/a
2567302	PROB	n/a	LTP196	ltpFR	10	n/a	n/a	n/a	n/a	n/a	n/a	n/a	21	9	7	5	n/a	n/a	n/a	n/a	n/a
2571130	PROB	n/a	LTP196	ltpFR	10	n/a	n/a	n/a	n/a	n/a	n/a	n/a	5	2	2	1	n/a	n/a	n/a	n/a	n/a
2572444	PROB	n/a	LTP196	ltpFR	10	n/a	n/a	n/a	n/a	n/a	n/a	n/a	20	6	5	9	n/a	n/a	n/a	n/a	n/a
2576928	STOP	n/a	LTP196	ltpFR	10	n/a	n/a	n/a	n/a	n/a	n/a	n/a	n/a	n/a	n/a	n/a	n/a	n/a	n/a	n/a	n/a
2578068	WORD	wordpools/wasnorm_wordpool_less_exclusions.txt	LTP196	ltpFR	10	11	1	ANIMAL	23	n/a	n/a	1	n/a	0	0	0	0.57763671875	0.412841796875	1	upper	amplitud.ttf
2581081	START	n/a	LTP196	ltpFR	10	n/a	n/a	n/a	n/a	n/a	n/a	n/a	n/a	n/a	n/a	n/a	n/a	n/a	n/a	n/a	n/a
2581979	PROB	n/a	LTP196	ltpFR	10	n/a	n/a	n/a	n/a	n/a	n/a	n/a	13	8	3	2	n/a	n/a	n/a	n/a	n/a
2585458	PROB	n/a	LTP196	ltpFR	10	n/a	n/a	n/a	n/a	n/a	n/a	n/a	17	9	1	7	n/a	n/a	n/a	n/a	n/a
2587189	PROB	n/a	LTP196	ltpFR	10	n/a	n/a	n/a	n/a	n/a	n/a	n/a	18	2	8	8	n/a	n/a	n/a	n/a	n/a
2588969	PROB	n/a	LTP196	ltpFR	10	n/a	n/a	n/a	n/a	n/a	n/a	n/a	20	7	4	9	n/a	n/a	n/a	n/a	n/a
2591150	PROB	n/a	LTP196	ltpFR	10	n/a	n/a	n/a	n/a	n/a	n/a	n/a	15	6	1	8	n/a	n/a	n/a	n/a	n/a
2593213	PROB	n/a	LTP196	ltpFR	10	n/a	n/a	n/a	n/a	n/a	n/a	n/a	15	3	8	6	n/a	n/a	n/a	n/a	n/a
2597081	STOP	n/a	LTP196	ltpFR	10	n/a	n/a	n/a	n/a	n/a	n/a	n/a	n/a	n/a	n/a	n/a	n/a	n/a	n/a	n/a	n/a
2597989	WORD	wordpools/wasnorm_wordpool_less_exclusions.txt	LTP196	ltpFR	10	11	1	ASSISTANT	48	n/a	n/a	1	n/a	0	0	0	0.57763671875	0.412841796875	1	upper	amplitud.ttf
2601001	START	n/a	LTP196	ltpFR	10	n/a	n/a	n/a	n/a	n/a	n/a	n/a	n/a	n/a	n/a	n/a	n/a	n/a	n/a	n/a	n/a
2602117	PROB	n/a	LTP196	ltpFR	10	n/a	n/a	n/a	n/a	n/a	n/a	n/a	19	6	9	4	n/a	n/a	n/a	n/a	n/a
2605195	PROB	n/a	LTP196	ltpFR	10	n/a	n/a	n/a	n/a	n/a	n/a	n/a	12	8	2	2	n/a	n/a	n/a	n/a	n/a
2606642	PROB	n/a	LTP196	ltpFR	10	n/a	n/a	n/a	n/a	n/a	n/a	n/a	13	5	7	1	n/a	n/a	n/a	n/a	n/a
2610321	PROB	n/a	LTP196	ltpFR	10	n/a	n/a	n/a	n/a	n/a	n/a	n/a	11	2	8	1	n/a	n/a	n/a	n/a	n/a
2612018	PROB	n/a	LTP196	ltpFR	10	n/a	n/a	n/a	n/a	n/a	n/a	n/a	18	9	4	5	n/a	n/a	n/a	n/a	n/a
2617001	STOP	n/a	LTP196	ltpFR	10	n/a	n/a	n/a	n/a	n/a	n/a	n/a	n/a	n/a	n/a	n/a	n/a	n/a	n/a	n/a	n/a
2618159	WORD	wordpools/wasnorm_wordpool_less_exclusions.txt	LTP196	ltpFR	10	11	1	WHEAT	1602	n/a	n/a	0	n/a	0	0	0	0.57763671875	0.412841796875	1	upper	amplitud.ttf
2621172	START	n/a	LTP196	ltpFR	10	n/a	n/a	n/a	n/a	n/a	n/a	n/a	n/a	n/a	n/a	n/a	n/a	n/a	n/a	n/a	n/a
2622153	PROB	n/a	LTP196	ltpFR	10	n/a	n/a	n/a	n/a	n/a	n/a	n/a	11	1	6	4	n/a	n/a	n/a	n/a	n/a
2624016	PROB	n/a	LTP196	ltpFR	10	n/a	n/a	n/a	n/a	n/a	n/a	n/a	15	7	6	2	n/a	n/a	n/a	n/a	n/a
2628044	PROB	n/a	LTP196	ltpFR	10	n/a	n/a	n/a	n/a	n/a	n/a	n/a	10	4	2	4	n/a	n/a	n/a	n/a	n/a
2630191	PROB	n/a	LTP196	ltpFR	10	n/a	n/a	n/a	n/a	n/a	n/a	n/a	12	2	1	9	n/a	n/a	n/a	n/a	n/a
2632054	PROB	n/a	LTP196	ltpFR	10	n/a	n/a	n/a	n/a	n/a	n/a	n/a	8	5	1	2	n/a	n/a	n/a	n/a	n/a
2633569	PROB	n/a	LTP196	ltpFR	10	n/a	n/a	n/a	n/a	n/a	n/a	n/a	20	2	9	9	n/a	n/a	n/a	n/a	n/a
2637172	STOP	n/a	LTP196	ltpFR	10	n/a	n/a	n/a	n/a	n/a	n/a	n/a	n/a	n/a	n/a	n/a	n/a	n/a	n/a	n/a	n/a
2638279	WORD	wordpools/wasnorm_wordpool_less_exclusions.txt	LTP196	ltpFR	10	11	1	BEAN	105	n/a	n/a	0	n/a	0	0	0	0.57763671875	0.412841796875	1	upper	amplitud.ttf
2641292	START	n/a	LTP196	ltpFR	10	n/a	n/a	n/a	n/a	n/a	n/a	n/a	n/a	n/a	n/a	n/a	n/a	n/a	n/a	n/a	n/a
2642157	PROB	n/a	LTP196	ltpFR	10	n/a	n/a	n/a	n/a	n/a	n/a	n/a	20	9	9	2	n/a	n/a	n/a	n/a	n/a
2643903	PROB	n/a	LTP196	ltpFR	10	n/a	n/a	n/a	n/a	n/a	n/a	n/a	7	2	4	1	n/a	n/a	n/a	n/a	n/a
2646400	PROB	n/a	LTP196	ltpFR	10	n/a	n/a	n/a	n/a	n/a	n/a	n/a	17	9	4	4	n/a	n/a	n/a	n/a	n/a
2648464	PROB	n/a	LTP196	ltpFR	10	n/a	n/a	n/a	n/a	n/a	n/a	n/a	16	9	6	1	n/a	n/a	n/a	n/a	n/a
2650710	PROB	n/a	LTP196	ltpFR	10	n/a	n/a	n/a	n/a	n/a	n/a	n/a	23	7	9	7	n/a	n/a	n/a	n/a	n/a
2657292	STOP	n/a	LTP196	ltpFR	10	n/a	n/a	n/a	n/a	n/a	n/a	n/a	n/a	n/a	n/a	n/a	n/a	n/a	n/a	n/a	n/a
2658333	WORD	wordpools/wasnorm_wordpool_less_exclusions.txt	LTP196	ltpFR	10	11	1	DASHBOARD	441	n/a	n/a	0	n/a	0	0	0	0.57763671875	0.412841796875	1	upper	amplitud.ttf
2661345	START	n/a	LTP196	ltpFR	10	n/a	n/a	n/a	n/a	n/a	n/a	n/a	n/a	n/a	n/a	n/a	n/a	n/a	n/a	n/a	n/a
2662410	PROB	n/a	LTP196	ltpFR	10	n/a	n/a	n/a	n/a	n/a	n/a	n/a	22	8	9	5	n/a	n/a	n/a	n/a	n/a
2666504	PROB	n/a	LTP196	ltpFR	10	n/a	n/a	n/a	n/a	n/a	n/a	n/a	16	7	7	2	n/a	n/a	n/a	n/a	n/a
2668168	PROB	n/a	LTP196	ltpFR	10	n/a	n/a	n/a	n/a	n/a	n/a	n/a	16	6	7	3	n/a	n/a	n/a	n/a	n/a
2669848	PROB	n/a	LTP196	ltpFR	10	n/a	n/a	n/a	n/a	n/a	n/a	n/a	18	4	5	9	n/a	n/a	n/a	n/a	n/a
2671678	PROB	n/a	LTP196	ltpFR	10	n/a	n/a	n/a	n/a	n/a	n/a	n/a	24	8	8	9	n/a	n/a	n/a	n/a	n/a
2677344	STOP	n/a	LTP196	ltpFR	10	n/a	n/a	n/a	n/a	n/a	n/a	n/a	n/a	n/a	n/a	n/a	n/a	n/a	n/a	n/a	n/a
2678403	WORD	wordpools/wasnorm_wordpool_less_exclusions.txt	LTP196	ltpFR	10	11	1	SENATOR	1268	n/a	n/a	1	n/a	0	0	0	0.57763671875	0.412841796875	1	upper	amplitud.ttf
2681415	START	n/a	LTP196	ltpFR	10	n/a	n/a	n/a	n/a	n/a	n/a	n/a	n/a	n/a	n/a	n/a	n/a	n/a	n/a	n/a	n/a
2682247	PROB	n/a	LTP196	ltpFR	10	n/a	n/a	n/a	n/a	n/a	n/a	n/a	7	3	2	2	n/a	n/a	n/a	n/a	n/a
2684527	PROB	n/a	LTP196	ltpFR	10	n/a	n/a	n/a	n/a	n/a	n/a	n/a	13	3	2	8	n/a	n/a	n/a	n/a	n/a
2686457	PROB	n/a	LTP196	ltpFR	10	n/a	n/a	n/a	n/a	n/a	n/a	n/a	13	2	6	5	n/a	n/a	n/a	n/a	n/a
2688936	PROB	n/a	LTP196	ltpFR	10	n/a	n/a	n/a	n/a	n/a	n/a	n/a	14	4	8	2	n/a	n/a	n/a	n/a	n/a
2691267	PROB	n/a	LTP196	ltpFR	10	n/a	n/a	n/a	n/a	n/a	n/a	n/a	22	9	6	7	n/a	n/a	n/a	n/a	n/a
2697414	STOP	n/a	LTP196	ltpFR	10	n/a	n/a	n/a	n/a	n/a	n/a	n/a	n/a	n/a	n/a	n/a	n/a	n/a	n/a	n/a	n/a
2698373	WORD	wordpools/wasnorm_wordpool_less_exclusions.txt	LTP196	ltpFR	10	11	1	PHOTO	1055	n/a	n/a	0	n/a	0	0	0	0.57763671875	0.412841796875	1	upper	amplitud.ttf
2701385	START	n/a	LTP196	ltpFR	10	n/a	n/a	n/a	n/a	n/a	n/a	n/a	n/a	n/a	n/a	n/a	n/a	n/a	n/a	n/a	n/a
2702334	PROB	n/a	LTP196	ltpFR	10	n/a	n/a	n/a	n/a	n/a	n/a	n/a	10	3	2	5	n/a	n/a	n/a	n/a	n/a
2704063	PROB	n/a	LTP196	ltpFR	10	n/a	n/a	n/a	n/a	n/a	n/a	n/a	18	6	8	4	n/a	n/a	n/a	n/a	n/a
2706411	PROB	n/a	LTP196	ltpFR	10	n/a	n/a	n/a	n/a	n/a	n/a	n/a	15	9	3	3	n/a	n/a	n/a	n/a	n/a
2708408	PROB	n/a	LTP196	ltpFR	10	n/a	n/a	n/a	n/a	n/a	n/a	n/a	9	2	3	4	n/a	n/a	n/a	n/a	n/a
2710703	PROB	n/a	LTP196	ltpFR	10	n/a	n/a	n/a	n/a	n/a	n/a	n/a	16	6	5	5	n/a	n/a	n/a	n/a	n/a
2712485	PROB	n/a	LTP196	ltpFR	10	n/a	n/a	n/a	n/a	n/a	n/a	n/a	16	1	6	9	n/a	n/a	n/a	n/a	n/a
2717385	STOP	n/a	LTP196	ltpFR	10	n/a	n/a	n/a	n/a	n/a	n/a	n/a	n/a	n/a	n/a	n/a	n/a	n/a	n/a	n/a	n/a
2718343	WORD	wordpools/wasnorm_wordpool_less_exclusions.txt	LTP196	ltpFR	10	11	1	CEILING	265	n/a	n/a	0	n/a	0	0	0	0.57763671875	0.412841796875	1	upper	amplitud.ttf
2721356	START	n/a	LTP196	ltpFR	10	n/a	n/a	n/a	n/a	n/a	n/a	n/a	n/a	n/a	n/a	n/a	n/a	n/a	n/a	n/a	n/a
2722187	PROB	n/a	LTP196	ltpFR	10	n/a	n/a	n/a	n/a	n/a	n/a	n/a	15	8	4	3	n/a	n/a	n/a	n/a	n/a
2726115	PROB	n/a	LTP196	ltpFR	10	n/a	n/a	n/a	n/a	n/a	n/a	n/a	18	7	2	9	n/a	n/a	n/a	n/a	n/a
2727828	PROB	n/a	LTP196	ltpFR	10	n/a	n/a	n/a	n/a	n/a	n/a	n/a	18	6	5	7	n/a	n/a	n/a	n/a	n/a
2729875	PROB	n/a	LTP196	ltpFR	10	n/a	n/a	n/a	n/a	n/a	n/a	n/a	14	4	9	1	n/a	n/a	n/a	n/a	n/a
2731357	PROB	n/a	LTP196	ltpFR	10	n/a	n/a	n/a	n/a	n/a	n/a	n/a	11	9	1	1	n/a	n/a	n/a	n/a	n/a
2733087	PROB	n/a	LTP196	ltpFR	10	n/a	n/a	n/a	n/a	n/a	n/a	n/a	12	1	6	5	n/a	n/a	n/a	n/a	n/a
2735201	PROB	n/a	LTP196	ltpFR	10	n/a	n/a	n/a	n/a	n/a	n/a	n/a	12	4	4	3	n/a	n/a	n/a	n/a	n/a
2737012	STOP	n/a	LTP196	ltpFR	10	n/a	n/a	n/a	n/a	n/a	n/a	n/a	n/a	n/a	n/a	n/a	n/a	n/a	n/a	n/a	n/a
2738546	WORD	wordpools/wasnorm_wordpool_less_exclusions.txt	LTP196	ltpFR	10	11	1	LAPEL	800	n/a	n/a	0	n/a	0	0	0	0.57763671875	0.412841796875	1	upper	amplitud.ttf
2741558	START	n/a	LTP196	ltpFR	10	n/a	n/a	n/a	n/a	n/a	n/a	n/a	n/a	n/a	n/a	n/a	n/a	n/a	n/a	n/a	n/a
2742424	PROB	n/a	LTP196	ltpFR	10	n/a	n/a	n/a	n/a	n/a	n/a	n/a	20	6	5	9	n/a	n/a	n/a	n/a	n/a
2744437	PROB	n/a	LTP196	ltpFR	10	n/a	n/a	n/a	n/a	n/a	n/a	n/a	12	1	9	2	n/a	n/a	n/a	n/a	n/a
2746135	PROB	n/a	LTP196	ltpFR	10	n/a	n/a	n/a	n/a	n/a	n/a	n/a	13	6	7	2	n/a	n/a	n/a	n/a	n/a
2750445	PROB	n/a	LTP196	ltpFR	10	n/a	n/a	n/a	n/a	n/a	n/a	n/a	15	9	3	3	n/a	n/a	n/a	n/a	n/a
2752641	PROB	n/a	LTP196	ltpFR	10	n/a	n/a	n/a	n/a	n/a	n/a	n/a	17	9	1	7	n/a	n/a	n/a	n/a	n/a
2757557	STOP	n/a	LTP196	ltpFR	10	n/a	n/a	n/a	n/a	n/a	n/a	n/a	n/a	n/a	n/a	n/a	n/a	n/a	n/a	n/a	n/a
2758682	WORD	wordpools/wasnorm_wordpool_less_exclusions.txt	LTP196	ltpFR	10	11	1	FLANNEL	574	n/a	n/a	0	n/a	0	0	0	0.57763671875	0.412841796875	1	upper	amplitud.ttf
2761694	START	n/a	LTP196	ltpFR	10	n/a	n/a	n/a	n/a	n/a	n/a	n/a	n/a	n/a	n/a	n/a	n/a	n/a	n/a	n/a	n/a
2762609	PROB	n/a	LTP196	ltpFR	10	n/a	n/a	n/a	n/a	n/a	n/a	n/a	14	8	2	4	n/a	n/a	n/a	n/a	n/a
2764191	PROB	n/a	LTP196	ltpFR	10	n/a	n/a	n/a	n/a	n/a	n/a	n/a	19	8	9	2	n/a	n/a	n/a	n/a	n/a
2767270	PROB	n/a	LTP196	ltpFR	10	n/a	n/a	n/a	n/a	n/a	n/a	n/a	11	2	8	1	n/a	n/a	n/a	n/a	n/a
2769632	PROB	n/a	LTP196	ltpFR	10	n/a	n/a	n/a	n/a	n/a	n/a	n/a	23	8	8	7	n/a	n/a	n/a	n/a	n/a
2773709	PROB	n/a	LTP196	ltpFR	10	n/a	n/a	n/a	n/a	n/a	n/a	n/a	13	5	1	7	n/a	n/a	n/a	n/a	n/a
2776365	STOP	n/a	LTP196	ltpFR	10	n/a	n/a	n/a	n/a	n/a	n/a	n/a	n/a	n/a	n/a	n/a	n/a	n/a	n/a	n/a	n/a
2779552	REC_START	n/a	LTP196	ltpFR	10	11	n/a	n/a	n/a	n/a	n/a	n/a	n/a	0	0	0	n/a	n/a	n/a	n/a	n/a
2782894	REC_WORD	wordpools/wasnorm_wordpool_less_exclusions.txt	LTP196	ltpFR	10	11	1	LAPEL	800	n/a	n/a	0	n/a	0	0	0	n/a	n/a	n/a	n/a	n/a
2784446	REC_WORD	wordpools/wasnorm_wordpool_less_exclusions.txt	LTP196	ltpFR	10	11	1	FLANNEL	574	n/a	n/a	0	n/a	0	0	0	n/a	n/a	n/a	n/a	n/a
2786960	REC_WORD	wordpools/wasnorm_wordpool_less_exclusions.txt	LTP196	ltpFR	10	11	1	ANIMAL	23	n/a	n/a	1	n/a	0	0	0	n/a	n/a	n/a	n/a	n/a
2788980	REC_WORD	wordpools/wasnorm_wordpool_less_exclusions.txt	LTP196	ltpFR	10	11	1	RAM	1165	n/a	n/a	1	n/a	0	0	0	n/a	n/a	n/a	n/a	n/a
2790262	REC_WORD	wordpools/wasnorm_wordpool_less_exclusions.txt	LTP196	ltpFR	10	11	1	LIMOUSINE	824	n/a	n/a	0	n/a	0	0	0	n/a	n/a	n/a	n/a	n/a
2792507	REC_WORD	wordpools/wasnorm_wordpool_less_exclusions.txt	LTP196	ltpFR	10	11	1	PAINTER	1004	n/a	n/a	1	n/a	0	0	0	n/a	n/a	n/a	n/a	n/a
2795007	REC_WORD	wordpools/wasnorm_wordpool_less_exclusions.txt	LTP196	ltpFR	10	11	1	COURSE	390	n/a	n/a	0	n/a	0	0	0	n/a	n/a	n/a	n/a	n/a
2798559	REC_WORD	wordpools/wasnorm_wordpool_less_exclusions.txt	LTP196	ltpFR	10	11	n/a	ANT	25	n/a	n/a	n/a	n/a	0	0	0	n/a	n/a	n/a	n/a	n/a
2801686	REC_WORD	wordpools/wasnorm_wordpool_less_exclusions.txt	LTP196	ltpFR	10	11	1	PLASTER	1085	n/a	n/a	0	n/a	0	0	0	n/a	n/a	n/a	n/a	n/a
2804979	REC_WORD	wordpools/wasnorm_wordpool_less_exclusions.txt	LTP196	ltpFR	10	11	1	SENATOR	1268	n/a	n/a	1	n/a	0	0	0	n/a	n/a	n/a	n/a	n/a
2810407	REC_WORD	wordpools/wasnorm_wordpool_less_exclusions.txt	LTP196	ltpFR	10	11	1	CEILING	265	n/a	n/a	0	n/a	0	0	0	n/a	n/a	n/a	n/a	n/a
2817859	REC_WORD	wordpools/wasnorm_wordpool_less_exclusions.txt	LTP196	ltpFR	10	11	1	PHOTO	1055	n/a	n/a	0	n/a	0	0	0	n/a	n/a	n/a	n/a	n/a
2837480	REC_WORD	wordpools/wasnorm_wordpool_less_exclusions.txt	LTP196	ltpFR	10	11	1	ASSISTANT	48	n/a	n/a	1	n/a	0	0	0	n/a	n/a	n/a	n/a	n/a
2840458	REC_WORD	wordpools/wasnorm_wordpool_less_exclusions.txt	LTP196	ltpFR	10	11	1	BEAN	105	n/a	n/a	0	n/a	0	0	0	n/a	n/a	n/a	n/a	n/a
2842189	REC_WORD	wordpools/wasnorm_wordpool_less_exclusions.txt	LTP196	ltpFR	10	11	1	DASHBOARD	441	n/a	n/a	0	n/a	0	0	0	n/a	n/a	n/a	n/a	n/a
2843152	REC_WORD	wordpools/wasnorm_wordpool_less_exclusions.txt	LTP196	ltpFR	10	11	1	WHEAT	1602	n/a	n/a	0	n/a	0	0	0	n/a	n/a	n/a	n/a	n/a
2853174	REC_WORD	wordpools/wasnorm_wordpool_less_exclusions.txt	LTP196	ltpFR	10	11	1	PHOTO	1055	n/a	n/a	0	n/a	0	0	0	n/a	n/a	n/a	n/a	n/a
2857103	START	n/a	LTP196	ltpFR	10	n/a	n/a	n/a	n/a	n/a	n/a	n/a	n/a	n/a	n/a	n/a	n/a	n/a	n/a	n/a	n/a
2858616	PROB	n/a	LTP196	ltpFR	10	n/a	n/a	n/a	n/a	n/a	n/a	n/a	10	5	3	2	n/a	n/a	n/a	n/a	n/a
2860713	PROB	n/a	LTP196	ltpFR	10	n/a	n/a	n/a	n/a	n/a	n/a	n/a	12	6	1	5	n/a	n/a	n/a	n/a	n/a
2862411	PROB	n/a	LTP196	ltpFR	10	n/a	n/a	n/a	n/a	n/a	n/a	n/a	14	2	7	5	n/a	n/a	n/a	n/a	n/a
2864301	STOP	n/a	LTP196	ltpFR	10	n/a	n/a	n/a	n/a	n/a	n/a	n/a	n/a	n/a	n/a	n/a	n/a	n/a	n/a	n/a	n/a
2866106	WORD	wordpools/wasnorm_wordpool_less_exclusions.txt	LTP196	ltpFR	10	12	0	GYMNAST	675	n/a	n/a	1	n/a	0	0	0	0.422607421875	0.5869140625	0	lower	zerothre.ttf
2869118	START	n/a	LTP196	ltpFR	10	n/a	n/a	n/a	n/a	n/a	n/a	n/a	n/a	n/a	n/a	n/a	n/a	n/a	n/a	n/a	n/a
2870316	PROB	n/a	LTP196	ltpFR	10	n/a	n/a	n/a	n/a	n/a	n/a	n/a	15	3	9	3	n/a	n/a	n/a	n/a	n/a
2872330	PROB	n/a	LTP196	ltpFR	10	n/a	n/a	n/a	n/a	n/a	n/a	n/a	8	1	3	4	n/a	n/a	n/a	n/a	n/a
2874059	PROB	n/a	LTP196	ltpFR	10	n/a	n/a	n/a	n/a	n/a	n/a	n/a	20	7	9	5	n/a	n/a	n/a	n/a	n/a
2876836	STOP	n/a	LTP196	ltpFR	10	n/a	n/a	n/a	n/a	n/a	n/a	n/a	n/a	n/a	n/a	n/a	n/a	n/a	n/a	n/a	n/a
2878020	WORD	wordpools/wasnorm_wordpool_less_exclusions.txt	LTP196	ltpFR	10	12	0	UNDERWEAR	1537	n/a	n/a	0	n/a	0	0	0	0.422607421875	0.5869140625	0	lower	zerothre.ttf
2881033	START	n/a	LTP196	ltpFR	10	n/a	n/a	n/a	n/a	n/a	n/a	n/a	n/a	n/a	n/a	n/a	n/a	n/a	n/a	n/a	n/a
2882048	PROB	n/a	LTP196	ltpFR	10	n/a	n/a	n/a	n/a	n/a	n/a	n/a	10	4	4	2	n/a	n/a	n/a	n/a	n/a
2883862	PROB	n/a	LTP196	ltpFR	10	n/a	n/a	n/a	n/a	n/a	n/a	n/a	21	6	9	6	n/a	n/a	n/a	n/a	n/a
2886557	PROB	n/a	LTP196	ltpFR	10	n/a	n/a	n/a	n/a	n/a	n/a	n/a	13	4	7	2	n/a	n/a	n/a	n/a	n/a
2888756	STOP	n/a	LTP196	ltpFR	10	n/a	n/a	n/a	n/a	n/a	n/a	n/a	n/a	n/a	n/a	n/a	n/a	n/a	n/a	n/a	n/a
2890036	WORD	wordpools/wasnorm_wordpool_less_exclusions.txt	LTP196	ltpFR	10	12	0	TURNIP	1521	n/a	n/a	0	n/a	0	0	0	0.422607421875	0.5869140625	0	lower	zerothre.ttf
2893048	START	n/a	LTP196	ltpFR	10	n/a	n/a	n/a	n/a	n/a	n/a	n/a	n/a	n/a	n/a	n/a	n/a	n/a	n/a	n/a	n/a
2894080	PROB	n/a	LTP196	ltpFR	10	n/a	n/a	n/a	n/a	n/a	n/a	n/a	16	8	7	1	n/a	n/a	n/a	n/a	n/a
2896277	PROB	n/a	LTP196	ltpFR	10	n/a	n/a	n/a	n/a	n/a	n/a	n/a	9	6	3	1	n/a	n/a	n/a	n/a	n/a
2901048	STOP	n/a	LTP196	ltpFR	10	n/a	n/a	n/a	n/a	n/a	n/a	n/a	n/a	n/a	n/a	n/a	n/a	n/a	n/a	n/a	n/a
2902235	WORD	wordpools/wasnorm_wordpool_less_exclusions.txt	LTP196	ltpFR	10	12	1	ORCHID	982	n/a	n/a	1	n/a	0	0	0	0.57763671875	0.412841796875	1	upper	amplitud.ttf
2905248	START	n/a	LTP196	ltpFR	10	n/a	n/a	n/a	n/a	n/a	n/a	n/a	n/a	n/a	n/a	n/a	n/a	n/a	n/a	n/a	n/a
2906246	PROB	n/a	LTP196	ltpFR	10	n/a	n/a	n/a	n/a	n/a	n/a	n/a	15	9	4	2	n/a	n/a	n/a	n/a	n/a
2908209	PROB	n/a	LTP196	ltpFR	10	n/a	n/a	n/a	n/a	n/a	n/a	n/a	7	1	1	5	n/a	n/a	n/a	n/a	n/a
2910273	PROB	n/a	LTP196	ltpFR	10	n/a	n/a	n/a	n/a	n/a	n/a	n/a	17	5	6	6	n/a	n/a	n/a	n/a	n/a
2913165	STOP	n/a	LTP196	ltpFR	10	n/a	n/a	n/a	n/a	n/a	n/a	n/a	n/a	n/a	n/a	n/a	n/a	n/a	n/a	n/a	n/a
2914167	WORD	wordpools/wasnorm_wordpool_less_exclusions.txt	LTP196	ltpFR	10	12	1	TRUCK	1512	n/a	n/a	0	n/a	0	0	0	0.57763671875	0.412841796875	1	upper	amplitud.ttf
2917180	START	n/a	LTP196	ltpFR	10	n/a	n/a	n/a	n/a	n/a	n/a	n/a	n/a	n/a	n/a	n/a	n/a	n/a	n/a	n/a	n/a
2918361	PROB	n/a	LTP196	ltpFR	10	n/a	n/a	n/a	n/a	n/a	n/a	n/a	17	7	5	5	n/a	n/a	n/a	n/a	n/a
2920308	PROB	n/a	LTP196	ltpFR	10	n/a	n/a	n/a	n/a	n/a	n/a	n/a	19	6	4	9	n/a	n/a	n/a	n/a	n/a
2922272	PROB	n/a	LTP196	ltpFR	10	n/a	n/a	n/a	n/a	n/a	n/a	n/a	10	2	7	1	n/a	n/a	n/a	n/a	n/a
2924101	STOP	n/a	LTP196	ltpFR	10	n/a	n/a	n/a	n/a	n/a	n/a	n/a	n/a	n/a	n/a	n/a	n/a	n/a	n/a	n/a	n/a
2926166	WORD	wordpools/wasnorm_wordpool_less_exclusions.txt	LTP196	ltpFR	10	12	1	CROCODILE	411	n/a	n/a	1	n/a	0	0	0	0.57763671875	0.412841796875	1	upper	amplitud.ttf
2929179	START	n/a	LTP196	ltpFR	10	n/a	n/a	n/a	n/a	n/a	n/a	n/a	n/a	n/a	n/a	n/a	n/a	n/a	n/a	n/a	n/a
2930043	PROB	n/a	LTP196	ltpFR	10	n/a	n/a	n/a	n/a	n/a	n/a	n/a	9	6	1	2	n/a	n/a	n/a	n/a	n/a
2932457	PROB	n/a	LTP196	ltpFR	10	n/a	n/a	n/a	n/a	n/a	n/a	n/a	20	9	8	3	n/a	n/a	n/a	n/a	n/a
2936468	STOP	n/a	LTP196	ltpFR	10	n/a	n/a	n/a	n/a	n/a	n/a	n/a	n/a	n/a	n/a	n/a	n/a	n/a	n/a	n/a	n/a
2938081	WORD	wordpools/wasnorm_wordpool_less_exclusions.txt	LTP196	ltpFR	10	12	1	OFFICE	972	n/a	n/a	0	n/a	0	0	0	0.57763671875	0.412841796875	1	upper	amplitud.ttf
2941094	START	n/a	LTP196	ltpFR	10	n/a	n/a	n/a	n/a	n/a	n/a	n/a	n/a	n/a	n/a	n/a	n/a	n/a	n/a	n/a	n/a
2941958	PROB	n/a	LTP196	ltpFR	10	n/a	n/a	n/a	n/a	n/a	n/a	n/a	13	3	7	3	n/a	n/a	n/a	n/a	n/a
2943739	PROB	n/a	LTP196	ltpFR	10	n/a	n/a	n/a	n/a	n/a	n/a	n/a	14	9	3	2	n/a	n/a	n/a	n/a	n/a
2947812	STOP	n/a	LTP196	ltpFR	10	n/a	n/a	n/a	n/a	n/a	n/a	n/a	n/a	n/a	n/a	n/a	n/a	n/a	n/a	n/a	n/a
2949913	WORD	wordpools/wasnorm_wordpool_less_exclusions.txt	LTP196	ltpFR	10	12	1	CHIMPANZEE	302	n/a	n/a	1	n/a	0	0	0	0.57763671875	0.412841796875	1	upper	amplitud.ttf
2952925	START	n/a	LTP196	ltpFR	10	n/a	n/a	n/a	n/a	n/a	n/a	n/a	n/a	n/a	n/a	n/a	n/a	n/a	n/a	n/a	n/a
2954124	PROB	n/a	LTP196	ltpFR	10	n/a	n/a	n/a	n/a	n/a	n/a	n/a	8	4	2	2	n/a	n/a	n/a	n/a	n/a
2956421	PROB	n/a	LTP196	ltpFR	10	n/a	n/a	n/a	n/a	n/a	n/a	n/a	18	2	9	7	n/a	n/a	n/a	n/a	n/a
2959509	STOP	n/a	LTP196	ltpFR	10	n/a	n/a	n/a	n/a	n/a	n/a	n/a	n/a	n/a	n/a	n/a	n/a	n/a	n/a	n/a	n/a
2961961	WORD	wordpools/wasnorm_wordpool_less_exclusions.txt	LTP196	ltpFR	10	12	1	DAM	436	n/a	n/a	0	n/a	0	0	0	0.57763671875	0.412841796875	1	upper	amplitud.ttf
2964974	START	n/a	LTP196	ltpFR	10	n/a	n/a	n/a	n/a	n/a	n/a	n/a	n/a	n/a	n/a	n/a	n/a	n/a	n/a	n/a	n/a
2965922	PROB	n/a	LTP196	ltpFR	10	n/a	n/a	n/a	n/a	n/a	n/a	n/a	15	4	5	6	n/a	n/a	n/a	n/a	n/a
2968220	PROB	n/a	LTP196	ltpFR	10	n/a	n/a	n/a	n/a	n/a	n/a	n/a	14	9	2	3	n/a	n/a	n/a	n/a	n/a
2972974	STOP	n/a	LTP196	ltpFR	10	n/a	n/a	n/a	n/a	n/a	n/a	n/a	n/a	n/a	n/a	n/a	n/a	n/a	n/a	n/a	n/a
2973960	WORD	wordpools/wasnorm_wordpool_less_exclusions.txt	LTP196	ltpFR	10	12	0	SALESMAN	1225	n/a	n/a	1	n/a	0	0	0	0.422607421875	0.5869140625	0	lower	zerothre.ttf
2976973	START	n/a	LTP196	ltpFR	10	n/a	n/a	n/a	n/a	n/a	n/a	n/a	n/a	n/a	n/a	n/a	n/a	n/a	n/a	n/a	n/a
2978071	PROB	n/a	LTP196	ltpFR	10	n/a	n/a	n/a	n/a	n/a	n/a	n/a	23	9	5	9	n/a	n/a	n/a	n/a	n/a
2981334	PROB	n/a	LTP196	ltpFR	10	n/a	n/a	n/a	n/a	n/a	n/a	n/a	17	6	6	5	n/a	n/a	n/a	n/a	n/a
2983405	STOP	n/a	LTP196	ltpFR	10	n/a	n/a	n/a	n/a	n/a	n/a	n/a	n/a	n/a	n/a	n/a	n/a	n/a	n/a	n/a	n/a
2985859	WORD	wordpools/wasnorm_wordpool_less_exclusions.txt	LTP196	ltpFR	10	12	0	STEP	1377	n/a	n/a	1	n/a	0	0	0	0.422607421875	0.5869140625	0	lower	zerothre.ttf
2988872	START	n/a	LTP196	ltpFR	10	n/a	n/a	n/a	n/a	n/a	n/a	n/a	n/a	n/a	n/a	n/a	n/a	n/a	n/a	n/a	n/a
2989836	PROB	n/a	LTP196	ltpFR	10	n/a	n/a	n/a	n/a	n/a	n/a	n/a	10	1	3	6	n/a	n/a	n/a	n/a	n/a
2991552	PROB	n/a	LTP196	ltpFR	10	n/a	n/a	n/a	n/a	n/a	n/a	n/a	15	5	1	9	n/a	n/a	n/a	n/a	n/a
2993664	PROB	n/a	LTP196	ltpFR	10	n/a	n/a	n/a	n/a	n/a	n/a	n/a	16	3	9	4	n/a	n/a	n/a	n/a	n/a
2995549	STOP	n/a	LTP196	ltpFR	10	n/a	n/a	n/a	n/a	n/a	n/a	n/a	n/a	n/a	n/a	n/a	n/a	n/a	n/a	n/a	n/a
2997908	WORD	wordpools/wasnorm_wordpool_less_exclusions.txt	LTP196	ltpFR	10	12	0	JUGGLER	763	n/a	n/a	1	n/a	0	0	0	0.422607421875	0.5869140625	0	lower	zerothre.ttf
3000920	START	n/a	LTP196	ltpFR	10	n/a	n/a	n/a	n/a	n/a	n/a	n/a	n/a	n/a	n/a	n/a	n/a	n/a	n/a	n/a	n/a
3001852	PROB	n/a	LTP196	ltpFR	10	n/a	n/a	n/a	n/a	n/a	n/a	n/a	17	6	8	3	n/a	n/a	n/a	n/a	n/a
3008920	STOP	n/a	LTP196	ltpFR	10	n/a	n/a	n/a	n/a	n/a	n/a	n/a	n/a	n/a	n/a	n/a	n/a	n/a	n/a	n/a	n/a
3009990	WORD	wordpools/wasnorm_wordpool_less_exclusions.txt	LTP196	ltpFR	10	12	1	ARTICLE	42	n/a	n/a	0	n/a	0	0	0	0.57763671875	0.412841796875	1	upper	amplitud.ttf
3013002	START	n/a	LTP196	ltpFR	10	n/a	n/a	n/a	n/a	n/a	n/a	n/a	n/a	n/a	n/a	n/a	n/a	n/a	n/a	n/a	n/a
3014118	PROB	n/a	LTP196	ltpFR	10	n/a	n/a	n/a	n/a	n/a	n/a	n/a	23	7	9	7	n/a	n/a	n/a	n/a	n/a
3016630	PROB	n/a	LTP196	ltpFR	10	n/a	n/a	n/a	n/a	n/a	n/a	n/a	22	5	8	9	n/a	n/a	n/a	n/a	n/a
3020245	STOP	n/a	LTP196	ltpFR	10	n/a	n/a	n/a	n/a	n/a	n/a	n/a	n/a	n/a	n/a	n/a	n/a	n/a	n/a	n/a	n/a
3022022	WORD	wordpools/wasnorm_wordpool_less_exclusions.txt	LTP196	ltpFR	10	12	1	JOURNAL	760	n/a	n/a	0	n/a	0	0	0	0.57763671875	0.412841796875	1	upper	amplitud.ttf
3025034	START	n/a	LTP196	ltpFR	10	n/a	n/a	n/a	n/a	n/a	n/a	n/a	n/a	n/a	n/a	n/a	n/a	n/a	n/a	n/a	n/a
3026217	PROB	n/a	LTP196	ltpFR	10	n/a	n/a	n/a	n/a	n/a	n/a	n/a	17	6	8	3	n/a	n/a	n/a	n/a	n/a
3033034	STOP	n/a	LTP196	ltpFR	10	n/a	n/a	n/a	n/a	n/a	n/a	n/a	n/a	n/a	n/a	n/a	n/a	n/a	n/a	n/a	n/a
3033887	WORD	wordpools/wasnorm_wordpool_less_exclusions.txt	LTP196	ltpFR	10	12	0	GRILL	661	n/a	n/a	1	n/a	0	0	0	0.422607421875	0.5869140625	0	lower	zerothre.ttf
3036900	START	n/a	LTP196	ltpFR	10	n/a	n/a	n/a	n/a	n/a	n/a	n/a	n/a	n/a	n/a	n/a	n/a	n/a	n/a	n/a	n/a
3038015	PROB	n/a	LTP196	ltpFR	10	n/a	n/a	n/a	n/a	n/a	n/a	n/a	12	8	1	3	n/a	n/a	n/a	n/a	n/a
3040412	PROB	n/a	LTP196	ltpFR	10	n/a	n/a	n/a	n/a	n/a	n/a	n/a	13	7	5	1	n/a	n/a	n/a	n/a	n/a
3042957	PROB	n/a	LTP196	ltpFR	10	n/a	n/a	n/a	n/a	n/a	n/a	n/a	21	6	6	9	n/a	n/a	n/a	n/a	n/a
3044788	STOP	n/a	LTP196	ltpFR	10	n/a	n/a	n/a	n/a	n/a	n/a	n/a	n/a	n/a	n/a	n/a	n/a	n/a	n/a	n/a	n/a
3046053	WORD	wordpools/wasnorm_wordpool_less_exclusions.txt	LTP196	ltpFR	10	12	0	SHRIMP	1297	n/a	n/a	0	n/a	0	0	0	0.422607421875	0.5869140625	0	lower	zerothre.ttf
3049065	START	n/a	LTP196	ltpFR	10	n/a	n/a	n/a	n/a	n/a	n/a	n/a	n/a	n/a	n/a	n/a	n/a	n/a	n/a	n/a	n/a
3050131	PROB	n/a	LTP196	ltpFR	10	n/a	n/a	n/a	n/a	n/a	n/a	n/a	17	5	7	5	n/a	n/a	n/a	n/a	n/a
3051761	PROB	n/a	LTP196	ltpFR	10	n/a	n/a	n/a	n/a	n/a	n/a	n/a	15	6	6	3	n/a	n/a	n/a	n/a	n/a
3053758	PROB	n/a	LTP196	ltpFR	10	n/a	n/a	n/a	n/a	n/a	n/a	n/a	13	2	6	5	n/a	n/a	n/a	n/a	n/a
3055668	STOP	n/a	LTP196	ltpFR	10	n/a	n/a	n/a	n/a	n/a	n/a	n/a	n/a	n/a	n/a	n/a	n/a	n/a	n/a	n/a	n/a
3058984	REC_START	n/a	LTP196	ltpFR	10	12	n/a	n/a	n/a	n/a	n/a	n/a	n/a	0	0	0	n/a	n/a	n/a	n/a	n/a
3062067	REC_WORD	wordpools/wasnorm_wordpool_less_exclusions.txt	LTP196	ltpFR	10	12	0	GYMNAST	675	n/a	n/a	1	n/a	0	0	0	n/a	n/a	n/a	n/a	n/a
3063708	REC_WORD	wordpools/wasnorm_wordpool_less_exclusions.txt	LTP196	ltpFR	10	12	0	JUGGLER	763	n/a	n/a	1	n/a	0	0	0	n/a	n/a	n/a	n/a	n/a
3066252	REC_WORD	wordpools/wasnorm_wordpool_less_exclusions.txt	LTP196	ltpFR	10	12	1	ARTICLE	42	n/a	n/a	0	n/a	0	0	0	n/a	n/a	n/a	n/a	n/a
3068707	REC_WORD	wordpools/wasnorm_wordpool_less_exclusions.txt	LTP196	ltpFR	10	12	1	JOURNAL	760	n/a	n/a	0	n/a	0	0	0	n/a	n/a	n/a	n/a	n/a
3071311	REC_WORD	wordpools/wasnorm_wordpool_less_exclusions.txt	LTP196	ltpFR	10	12	0	SHRIMP	1297	n/a	n/a	0	n/a	0	0	0	n/a	n/a	n/a	n/a	n/a
3090831	REC_WORD	wordpools/wasnorm_wordpool_less_exclusions.txt	LTP196	ltpFR	10	12	0	UNDERWEAR	1537	n/a	n/a	0	n/a	0	0	0	n/a	n/a	n/a	n/a	n/a
3157054	REC_START	n/a	LTP196	ltpFR	10	1	n/a	n/a	n/a	n/a	n/a	n/a	n/a	0	0	0	n/a	n/a	n/a	n/a	n/a
3157087	RECOG_TARGET	n/a	LTP196	ltpFR	10	1	1	DUST	508	1	5	0	n/a	0	0	0	n/a	n/a	n/a	n/a	n/a
3158815	RECOG_RESP	n/a	LTP196	ltpFR	10	1	1	DUST	508	1	n/a	0	n/a	0	0	0	n/a	n/a	n/a	n/a	n/a
3160428	RECOG_CONF	n/a	LTP196	ltpFR	10	1	1	DUST	508	n/a	5	0	n/a	0	0	0	n/a	n/a	n/a	n/a	n/a
3162363	RECOG_TARGET	n/a	LTP196	ltpFR	10	1	1	SALOON	1228	1	4	n/a	n/a	0	0	0	n/a	n/a	n/a	n/a	n/a
3164312	RECOG_RESP	n/a	LTP196	ltpFR	10	1	1	SALOON	1228	1	n/a	n/a	n/a	0	0	0	n/a	n/a	n/a	n/a	n/a
3165559	RECOG_CONF	n/a	LTP196	ltpFR	10	1	1	SALOON	1228	n/a	4	n/a	n/a	0	0	0	n/a	n/a	n/a	n/a	n/a
3167322	RECOG_TARGET	n/a	LTP196	ltpFR	10	1	1	FELLOW	558	1	5	1	n/a	0	0	0	n/a	n/a	n/a	n/a	n/a
3168114	RECOG_RESP	n/a	LTP196	ltpFR	10	1	1	FELLOW	558	1	n/a	1	n/a	0	0	0	n/a	n/a	n/a	n/a	n/a
3168982	RECOG_CONF	n/a	LTP196	ltpFR	10	1	1	FELLOW	558	n/a	5	1	n/a	0	0	0	n/a	n/a	n/a	n/a	n/a
3170683	RECOG_LURE	n/a	LTP196	ltpFR	10	1	n/a	MOP	916	1	1	n/a	n/a	0	0	0	n/a	n/a	n/a	n/a	n/a
3172134	RECOG_RESP	n/a	LTP196	ltpFR	10	1	n/a	MOP	916	1	n/a	n/a	n/a	0	0	0	n/a	n/a	n/a	n/a	n/a
