mstime	trial_type	stim_file	subject	experiment	session	trial	task	item_name	item_num	recog_conf	resp	answer	test_x	test_y	test_z	color_b	color_g	color_r	case	font
0	SESS_START	n/a	LTP251	ltpFR	9	n/a	n/a	n/a	n/a	1	n/a	n/a	0	0	0	n/a	n/a	n/a	n/a	n/a
27730	START	n/a	LTP251	ltpFR	9	n/a	n/a	n/a	n/a	n/a	n/a	n/a	n/a	n/a	n/a	n/a	n/a	n/a	n/a	n/a
27780	PROB	n/a	LTP251	ltpFR	9	n/a	n/a	n/a	n/a	n/a	n/a	13	3	2	5	n/a	n/a	n/a	n/a	n/a
30273	PROB	n/a	LTP251	ltpFR	9	n/a	n/a	n/a	n/a	n/a	n/a	13	2	4	7	n/a	n/a	n/a	n/a	n/a
32896	PROB	n/a	LTP251	ltpFR	9	n/a	n/a	n/a	n/a	n/a	n/a	15	9	4	1	n/a	n/a	n/a	n/a	n/a
35392	PROB	n/a	LTP251	ltpFR	9	n/a	n/a	n/a	n/a	n/a	n/a	21	8	9	4	n/a	n/a	n/a	n/a	n/a
37935	PROB	n/a	LTP251	ltpFR	9	n/a	n/a	n/a	n/a	n/a	n/a	15	7	6	2	n/a	n/a	n/a	n/a	n/a
39558	PROB	n/a	LTP251	ltpFR	9	n/a	n/a	n/a	n/a	n/a	n/a	13	3	4	6	n/a	n/a	n/a	n/a	n/a
41480	PROB	n/a	LTP251	ltpFR	9	n/a	n/a	n/a	n/a	n/a	n/a	9	4	4	1	n/a	n/a	n/a	n/a	n/a
42719	PROB	n/a	LTP251	ltpFR	9	n/a	n/a	n/a	n/a	n/a	n/a	16	8	1	7	n/a	n/a	n/a	n/a	n/a
44158	PROB	n/a	LTP251	ltpFR	9	n/a	n/a	n/a	n/a	n/a	n/a	9	4	4	1	n/a	n/a	n/a	n/a	n/a
45379	PROB	n/a	LTP251	ltpFR	9	n/a	n/a	n/a	n/a	n/a	n/a	17	1	9	8	n/a	n/a	n/a	n/a	n/a
46934	STOP	n/a	LTP251	ltpFR	9	n/a	n/a	n/a	n/a	n/a	n/a	n/a	n/a	n/a	n/a	n/a	n/a	n/a	n/a	n/a
71111	START	n/a	LTP251	ltpFR	9	n/a	n/a	n/a	n/a	n/a	n/a	n/a	n/a	n/a	n/a	n/a	n/a	n/a	n/a	n/a
72615	PROB	n/a	LTP251	ltpFR	9	n/a	n/a	n/a	n/a	n/a	n/a	16	6	9	1	n/a	n/a	n/a	n/a	n/a
74539	PROB	n/a	LTP251	ltpFR	9	n/a	n/a	n/a	n/a	n/a	n/a	13	9	1	2	n/a	n/a	n/a	n/a	n/a
76212	PROB	n/a	LTP251	ltpFR	9	n/a	n/a	n/a	n/a	n/a	n/a	4	2	2	1	n/a	n/a	n/a	n/a	n/a
78335	STOP	n/a	LTP251	ltpFR	9	n/a	n/a	n/a	n/a	n/a	n/a	n/a	n/a	n/a	n/a	n/a	n/a	n/a	n/a	n/a
79977	WORD	wordpools/wasnorm_wordpool_less_exclusions.txt	LTP251	ltpFR	9	1	0	TOWER	1490	1	1	n/a	0	0	0	0	0.5869140625	0.422607421875	lower	../fonts/amplitud.ttf
82989	START	n/a	LTP251	ltpFR	9	n/a	n/a	n/a	n/a	n/a	n/a	n/a	n/a	n/a	n/a	n/a	n/a	n/a	n/a	n/a
83808	PROB	n/a	LTP251	ltpFR	9	n/a	n/a	n/a	n/a	n/a	n/a	19	7	3	9	n/a	n/a	n/a	n/a	n/a
85782	PROB	n/a	LTP251	ltpFR	9	n/a	n/a	n/a	n/a	n/a	n/a	17	3	7	7	n/a	n/a	n/a	n/a	n/a
87706	PROB	n/a	LTP251	ltpFR	9	n/a	n/a	n/a	n/a	n/a	n/a	13	1	8	4	n/a	n/a	n/a	n/a	n/a
89027	PROB	n/a	LTP251	ltpFR	9	n/a	n/a	n/a	n/a	n/a	n/a	8	6	1	1	n/a	n/a	n/a	n/a	n/a
90278	STOP	n/a	LTP251	ltpFR	9	n/a	n/a	n/a	n/a	n/a	n/a	n/a	n/a	n/a	n/a	n/a	n/a	n/a	n/a	n/a
92206	WORD	wordpools/wasnorm_wordpool_less_exclusions.txt	LTP251	ltpFR	9	1	0	LETTER	813	n/a	0	n/a	0	0	0	0	0.5869140625	0.422607421875	lower	../fonts/amplitud.ttf
95218	START	n/a	LTP251	ltpFR	9	n/a	n/a	n/a	n/a	n/a	n/a	n/a	n/a	n/a	n/a	n/a	n/a	n/a	n/a	n/a
96422	PROB	n/a	LTP251	ltpFR	9	n/a	n/a	n/a	n/a	n/a	n/a	17	7	5	5	n/a	n/a	n/a	n/a	n/a
97894	PROB	n/a	LTP251	ltpFR	9	n/a	n/a	n/a	n/a	n/a	n/a	14	3	8	3	n/a	n/a	n/a	n/a	n/a
99684	PROB	n/a	LTP251	ltpFR	9	n/a	n/a	n/a	n/a	n/a	n/a	16	6	5	5	n/a	n/a	n/a	n/a	n/a
101456	PROB	n/a	LTP251	ltpFR	9	n/a	n/a	n/a	n/a	n/a	n/a	12	9	2	1	n/a	n/a	n/a	n/a	n/a
102886	STOP	n/a	LTP251	ltpFR	9	n/a	n/a	n/a	n/a	n/a	n/a	n/a	n/a	n/a	n/a	n/a	n/a	n/a	n/a	n/a
104434	WORD	wordpools/wasnorm_wordpool_less_exclusions.txt	LTP251	ltpFR	9	1	0	BASKET	95	n/a	1	n/a	0	0	0	0	0.5869140625	0.422607421875	lower	../fonts/amplitud.ttf
107446	START	n/a	LTP251	ltpFR	9	n/a	n/a	n/a	n/a	n/a	n/a	n/a	n/a	n/a	n/a	n/a	n/a	n/a	n/a	n/a
108433	PROB	n/a	LTP251	ltpFR	9	n/a	n/a	n/a	n/a	n/a	n/a	15	7	5	3	n/a	n/a	n/a	n/a	n/a
110040	PROB	n/a	LTP251	ltpFR	9	n/a	n/a	n/a	n/a	n/a	n/a	22	6	7	9	n/a	n/a	n/a	n/a	n/a
112529	PROB	n/a	LTP251	ltpFR	9	n/a	n/a	n/a	n/a	n/a	n/a	16	5	9	2	n/a	n/a	n/a	n/a	n/a
115135	STOP	n/a	LTP251	ltpFR	9	n/a	n/a	n/a	n/a	n/a	n/a	n/a	n/a	n/a	n/a	n/a	n/a	n/a	n/a	n/a
116297	WORD	wordpools/wasnorm_wordpool_less_exclusions.txt	LTP251	ltpFR	9	1	1	COTTON	385	n/a	0	n/a	0	0	0	1	0.412841796875	0.57763671875	upper	../fonts/zerothre.ttf
119309	START	n/a	LTP251	ltpFR	9	n/a	n/a	n/a	n/a	n/a	n/a	n/a	n/a	n/a	n/a	n/a	n/a	n/a	n/a	n/a
120178	PROB	n/a	LTP251	ltpFR	9	n/a	n/a	n/a	n/a	n/a	n/a	13	8	2	3	n/a	n/a	n/a	n/a	n/a
121948	PROB	n/a	LTP251	ltpFR	9	n/a	n/a	n/a	n/a	n/a	n/a	10	5	3	2	n/a	n/a	n/a	n/a	n/a
123521	PROB	n/a	LTP251	ltpFR	9	n/a	n/a	n/a	n/a	n/a	n/a	9	1	5	3	n/a	n/a	n/a	n/a	n/a
127308	STOP	n/a	LTP251	ltpFR	9	n/a	n/a	n/a	n/a	n/a	n/a	n/a	n/a	n/a	n/a	n/a	n/a	n/a	n/a	n/a
128192	WORD	wordpools/wasnorm_wordpool_less_exclusions.txt	LTP251	ltpFR	9	1	1	SCROLL	1257	n/a	0	n/a	0	0	0	1	0.412841796875	0.57763671875	upper	../fonts/zerothre.ttf
131204	START	n/a	LTP251	ltpFR	9	n/a	n/a	n/a	n/a	n/a	n/a	n/a	n/a	n/a	n/a	n/a	n/a	n/a	n/a	n/a
132220	PROB	n/a	LTP251	ltpFR	9	n/a	n/a	n/a	n/a	n/a	n/a	10	5	3	2	n/a	n/a	n/a	n/a	n/a
134529	PROB	n/a	LTP251	ltpFR	9	n/a	n/a	n/a	n/a	n/a	n/a	19	7	4	8	n/a	n/a	n/a	n/a	n/a
137624	PROB	n/a	LTP251	ltpFR	9	n/a	n/a	n/a	n/a	n/a	n/a	18	8	2	8	n/a	n/a	n/a	n/a	n/a
139135	STOP	n/a	LTP251	ltpFR	9	n/a	n/a	n/a	n/a	n/a	n/a	n/a	n/a	n/a	n/a	n/a	n/a	n/a	n/a	n/a
140103	WORD	wordpools/wasnorm_wordpool_less_exclusions.txt	LTP251	ltpFR	9	1	1	SECRETARY	1265	n/a	0	n/a	0	0	0	1	0.412841796875	0.57763671875	upper	../fonts/zerothre.ttf
143115	START	n/a	LTP251	ltpFR	9	n/a	n/a	n/a	n/a	n/a	n/a	n/a	n/a	n/a	n/a	n/a	n/a	n/a	n/a	n/a
143951	PROB	n/a	LTP251	ltpFR	9	n/a	n/a	n/a	n/a	n/a	n/a	14	9	1	3	n/a	n/a	n/a	n/a	n/a
145256	PROB	n/a	LTP251	ltpFR	9	n/a	n/a	n/a	n/a	n/a	n/a	13	3	4	7	n/a	n/a	n/a	n/a	n/a
147160	PROB	n/a	LTP251	ltpFR	9	n/a	n/a	n/a	n/a	n/a	n/a	11	9	2	2	n/a	n/a	n/a	n/a	n/a
151115	STOP	n/a	LTP251	ltpFR	9	n/a	n/a	n/a	n/a	n/a	n/a	n/a	n/a	n/a	n/a	n/a	n/a	n/a	n/a	n/a
151981	WORD	wordpools/wasnorm_wordpool_less_exclusions.txt	LTP251	ltpFR	9	1	1	EMPLOYEE	531	n/a	0	n/a	0	0	0	1	0.412841796875	0.57763671875	upper	../fonts/zerothre.ttf
154993	START	n/a	LTP251	ltpFR	9	n/a	n/a	n/a	n/a	n/a	n/a	n/a	n/a	n/a	n/a	n/a	n/a	n/a	n/a	n/a
156147	PROB	n/a	LTP251	ltpFR	9	n/a	n/a	n/a	n/a	n/a	n/a	18	6	6	6	n/a	n/a	n/a	n/a	n/a
157666	PROB	n/a	LTP251	ltpFR	9	n/a	n/a	n/a	n/a	n/a	n/a	22	6	9	7	n/a	n/a	n/a	n/a	n/a
161250	PROB	n/a	LTP251	ltpFR	9	n/a	n/a	n/a	n/a	n/a	n/a	19	7	5	7	n/a	n/a	n/a	n/a	n/a
162854	STOP	n/a	LTP251	ltpFR	9	n/a	n/a	n/a	n/a	n/a	n/a	n/a	n/a	n/a	n/a	n/a	n/a	n/a	n/a	n/a
164043	WORD	wordpools/wasnorm_wordpool_less_exclusions.txt	LTP251	ltpFR	9	1	1	BALL	73	n/a	0	n/a	0	0	0	1	0.412841796875	0.57763671875	upper	../fonts/zerothre.ttf
167055	START	n/a	LTP251	ltpFR	9	n/a	n/a	n/a	n/a	n/a	n/a	n/a	n/a	n/a	n/a	n/a	n/a	n/a	n/a	n/a
168176	PROB	n/a	LTP251	ltpFR	9	n/a	n/a	n/a	n/a	n/a	n/a	8	2	3	3	n/a	n/a	n/a	n/a	n/a
170217	PROB	n/a	LTP251	ltpFR	9	n/a	n/a	n/a	n/a	n/a	n/a	11	1	2	8	n/a	n/a	n/a	n/a	n/a
171756	PROB	n/a	LTP251	ltpFR	9	n/a	n/a	n/a	n/a	n/a	n/a	20	3	4	8	n/a	n/a	n/a	n/a	n/a
175055	STOP	n/a	LTP251	ltpFR	9	n/a	n/a	n/a	n/a	n/a	n/a	n/a	n/a	n/a	n/a	n/a	n/a	n/a	n/a	n/a
175902	WORD	wordpools/wasnorm_wordpool_less_exclusions.txt	LTP251	ltpFR	9	1	1	COTTAGE	384	n/a	0	n/a	0	0	0	1	0.412841796875	0.57763671875	upper	../fonts/zerothre.ttf
178917	START	n/a	LTP251	ltpFR	9	n/a	n/a	n/a	n/a	n/a	n/a	n/a	n/a	n/a	n/a	n/a	n/a	n/a	n/a	n/a
179987	PROB	n/a	LTP251	ltpFR	9	n/a	n/a	n/a	n/a	n/a	n/a	25	9	7	9	n/a	n/a	n/a	n/a	n/a
182145	PROB	n/a	LTP251	ltpFR	9	n/a	n/a	n/a	n/a	n/a	n/a	18	9	6	3	n/a	n/a	n/a	n/a	n/a
184370	PROB	n/a	LTP251	ltpFR	9	n/a	n/a	n/a	n/a	n/a	n/a	21	6	8	7	n/a	n/a	n/a	n/a	n/a
186606	STOP	n/a	LTP251	ltpFR	9	n/a	n/a	n/a	n/a	n/a	n/a	n/a	n/a	n/a	n/a	n/a	n/a	n/a	n/a	n/a
187933	WORD	wordpools/wasnorm_wordpool_less_exclusions.txt	LTP251	ltpFR	9	1	0	HOME	712	n/a	0	n/a	0	0	0	0	0.5869140625	0.422607421875	lower	../fonts/amplitud.ttf
190945	START	n/a	LTP251	ltpFR	9	n/a	n/a	n/a	n/a	n/a	n/a	n/a	n/a	n/a	n/a	n/a	n/a	n/a	n/a	n/a
192066	PROB	n/a	LTP251	ltpFR	9	n/a	n/a	n/a	n/a	n/a	n/a	14	4	5	5	n/a	n/a	n/a	n/a	n/a
193819	PROB	n/a	LTP251	ltpFR	9	n/a	n/a	n/a	n/a	n/a	n/a	18	6	5	7	n/a	n/a	n/a	n/a	n/a
195512	PROB	n/a	LTP251	ltpFR	9	n/a	n/a	n/a	n/a	n/a	n/a	15	8	2	5	n/a	n/a	n/a	n/a	n/a
197001	PROB	n/a	LTP251	ltpFR	9	n/a	n/a	n/a	n/a	n/a	n/a	13	6	5	1	n/a	n/a	n/a	n/a	n/a
198367	STOP	n/a	LTP251	ltpFR	9	n/a	n/a	n/a	n/a	n/a	n/a	n/a	n/a	n/a	n/a	n/a	n/a	n/a	n/a	n/a
200012	WORD	wordpools/wasnorm_wordpool_less_exclusions.txt	LTP251	ltpFR	9	1	0	SIDEWALK	1303	n/a	1	n/a	0	0	0	0	0.5869140625	0.422607421875	lower	../fonts/amplitud.ttf
203024	START	n/a	LTP251	ltpFR	9	n/a	n/a	n/a	n/a	n/a	n/a	n/a	n/a	n/a	n/a	n/a	n/a	n/a	n/a	n/a
203991	PROB	n/a	LTP251	ltpFR	9	n/a	n/a	n/a	n/a	n/a	n/a	24	9	8	7	n/a	n/a	n/a	n/a	n/a
207240	PROB	n/a	LTP251	ltpFR	9	n/a	n/a	n/a	n/a	n/a	n/a	10	4	2	4	n/a	n/a	n/a	n/a	n/a
210022	STOP	n/a	LTP251	ltpFR	9	n/a	n/a	n/a	n/a	n/a	n/a	n/a	n/a	n/a	n/a	n/a	n/a	n/a	n/a	n/a
212041	WORD	wordpools/wasnorm_wordpool_less_exclusions.txt	LTP251	ltpFR	9	1	0	SEAGULL	1261	n/a	0	n/a	0	0	0	0	0.5869140625	0.422607421875	lower	../fonts/amplitud.ttf
215053	START	n/a	LTP251	ltpFR	9	n/a	n/a	n/a	n/a	n/a	n/a	n/a	n/a	n/a	n/a	n/a	n/a	n/a	n/a	n/a
215905	PROB	n/a	LTP251	ltpFR	9	n/a	n/a	n/a	n/a	n/a	n/a	16	3	4	9	n/a	n/a	n/a	n/a	n/a
217495	PROB	n/a	LTP251	ltpFR	9	n/a	n/a	n/a	n/a	n/a	n/a	14	9	3	2	n/a	n/a	n/a	n/a	n/a
219369	PROB	n/a	LTP251	ltpFR	9	n/a	n/a	n/a	n/a	n/a	n/a	12	1	6	5	n/a	n/a	n/a	n/a	n/a
221550	STOP	n/a	LTP251	ltpFR	9	n/a	n/a	n/a	n/a	n/a	n/a	n/a	n/a	n/a	n/a	n/a	n/a	n/a	n/a	n/a
224237	WORD	wordpools/wasnorm_wordpool_less_exclusions.txt	LTP251	ltpFR	9	1	1	PELICAN	1039	n/a	0	n/a	0	0	0	1	0.412841796875	0.57763671875	upper	../fonts/zerothre.ttf
227249	START	n/a	LTP251	ltpFR	9	n/a	n/a	n/a	n/a	n/a	n/a	n/a	n/a	n/a	n/a	n/a	n/a	n/a	n/a	n/a
228185	PROB	n/a	LTP251	ltpFR	9	n/a	n/a	n/a	n/a	n/a	n/a	10	8	1	1	n/a	n/a	n/a	n/a	n/a
229423	PROB	n/a	LTP251	ltpFR	9	n/a	n/a	n/a	n/a	n/a	n/a	8	2	3	3	n/a	n/a	n/a	n/a	n/a
231344	PROB	n/a	LTP251	ltpFR	9	n/a	n/a	n/a	n/a	n/a	n/a	18	8	9	1	n/a	n/a	n/a	n/a	n/a
233902	STOP	n/a	LTP251	ltpFR	9	n/a	n/a	n/a	n/a	n/a	n/a	n/a	n/a	n/a	n/a	n/a	n/a	n/a	n/a	n/a
236465	WORD	wordpools/wasnorm_wordpool_less_exclusions.txt	LTP251	ltpFR	9	1	1	FOLDER	588	n/a	0	n/a	0	0	0	1	0.412841796875	0.57763671875	upper	../fonts/zerothre.ttf
239477	START	n/a	LTP251	ltpFR	9	n/a	n/a	n/a	n/a	n/a	n/a	n/a	n/a	n/a	n/a	n/a	n/a	n/a	n/a	n/a
240565	PROB	n/a	LTP251	ltpFR	9	n/a	n/a	n/a	n/a	n/a	n/a	15	5	4	6	n/a	n/a	n/a	n/a	n/a
242201	PROB	n/a	LTP251	ltpFR	9	n/a	n/a	n/a	n/a	n/a	n/a	17	8	7	2	n/a	n/a	n/a	n/a	n/a
243995	PROB	n/a	LTP251	ltpFR	9	n/a	n/a	n/a	n/a	n/a	n/a	19	9	3	7	n/a	n/a	n/a	n/a	n/a
246238	STOP	n/a	LTP251	ltpFR	9	n/a	n/a	n/a	n/a	n/a	n/a	n/a	n/a	n/a	n/a	n/a	n/a	n/a	n/a	n/a
248659	WORD	wordpools/wasnorm_wordpool_less_exclusions.txt	LTP251	ltpFR	9	1	0	PAPER	1011	n/a	0	n/a	0	0	0	0	0.5869140625	0.422607421875	lower	../fonts/amplitud.ttf
251674	START	n/a	LTP251	ltpFR	9	n/a	n/a	n/a	n/a	n/a	n/a	n/a	n/a	n/a	n/a	n/a	n/a	n/a	n/a	n/a
252510	PROB	n/a	LTP251	ltpFR	9	n/a	n/a	n/a	n/a	n/a	n/a	15	2	4	9	n/a	n/a	n/a	n/a	n/a
254632	PROB	n/a	LTP251	ltpFR	9	n/a	n/a	n/a	n/a	n/a	n/a	16	1	6	9	n/a	n/a	n/a	n/a	n/a
256857	PROB	n/a	LTP251	ltpFR	9	n/a	n/a	n/a	n/a	n/a	n/a	10	2	7	1	n/a	n/a	n/a	n/a	n/a
258518	STOP	n/a	LTP251	ltpFR	9	n/a	n/a	n/a	n/a	n/a	n/a	n/a	n/a	n/a	n/a	n/a	n/a	n/a	n/a	n/a
260507	WORD	wordpools/wasnorm_wordpool_less_exclusions.txt	LTP251	ltpFR	9	1	0	ARCHITECT	36	n/a	1	n/a	0	0	0	0	0.5869140625	0.422607421875	lower	../fonts/amplitud.ttf
263519	START	n/a	LTP251	ltpFR	9	n/a	n/a	n/a	n/a	n/a	n/a	n/a	n/a	n/a	n/a	n/a	n/a	n/a	n/a	n/a
264639	PROB	n/a	LTP251	ltpFR	9	n/a	n/a	n/a	n/a	n/a	n/a	19	8	9	2	n/a	n/a	n/a	n/a	n/a
267717	PROB	n/a	LTP251	ltpFR	9	n/a	n/a	n/a	n/a	n/a	n/a	17	5	6	6	n/a	n/a	n/a	n/a	n/a
270461	STOP	n/a	LTP251	ltpFR	9	n/a	n/a	n/a	n/a	n/a	n/a	n/a	n/a	n/a	n/a	n/a	n/a	n/a	n/a	n/a
273339	REC_START	n/a	LTP251	ltpFR	9	1	n/a	n/a	n/a	n/a	n/a	n/a	0	0	0	n/a	n/a	n/a	n/a	n/a
274955	REC_WORD	wordpools/wasnorm_wordpool_less_exclusions.txt	LTP251	ltpFR	9	1	1	SCROLL	1257	n/a	0	n/a	0	0	0	n/a	n/a	n/a	n/a	n/a
276102	REC_WORD	wordpools/wasnorm_wordpool_less_exclusions.txt	LTP251	ltpFR	9	1	0	SEAGULL	1261	n/a	0	n/a	0	0	0	n/a	n/a	n/a	n/a	n/a
277749	REC_WORD	wordpools/wasnorm_wordpool_less_exclusions.txt	LTP251	ltpFR	9	1	1	PELICAN	1039	n/a	0	n/a	0	0	0	n/a	n/a	n/a	n/a	n/a
280298	REC_WORD	wordpools/wasnorm_wordpool_less_exclusions.txt	LTP251	ltpFR	9	1	0	LETTER	813	n/a	0	n/a	0	0	0	n/a	n/a	n/a	n/a	n/a
281490	REC_WORD	wordpools/wasnorm_wordpool_less_exclusions.txt	LTP251	ltpFR	9	1	0	ARCHITECT	36	n/a	1	n/a	0	0	0	n/a	n/a	n/a	n/a	n/a
283945	REC_WORD	wordpools/wasnorm_wordpool_less_exclusions.txt	LTP251	ltpFR	9	1	1	BALL	73	n/a	0	n/a	0	0	0	n/a	n/a	n/a	n/a	n/a
291971	REC_WORD	wordpools/wasnorm_wordpool_less_exclusions.txt	LTP251	ltpFR	9	1	1	COTTAGE	384	n/a	0	n/a	0	0	0	n/a	n/a	n/a	n/a	n/a
351952	WORD	wordpools/wasnorm_wordpool_less_exclusions.txt	LTP251	ltpFR	9	2	1	INVENTOR	743	n/a	0	n/a	0	0	0	1	0.412841796875	0.57763671875	upper	../fonts/zerothre.ttf
356034	WORD	wordpools/wasnorm_wordpool_less_exclusions.txt	LTP251	ltpFR	9	2	1	PEAR	1033	n/a	1	n/a	0	0	0	1	0.412841796875	0.57763671875	upper	../fonts/zerothre.ttf
360015	WORD	wordpools/wasnorm_wordpool_less_exclusions.txt	LTP251	ltpFR	9	2	1	DOLPHIN	483	n/a	1	n/a	0	0	0	1	0.412841796875	0.57763671875	upper	../fonts/zerothre.ttf
364114	WORD	wordpools/wasnorm_wordpool_less_exclusions.txt	LTP251	ltpFR	9	2	1	BELL	118	n/a	0	n/a	0	0	0	1	0.412841796875	0.57763671875	upper	../fonts/zerothre.ttf
368330	WORD	wordpools/wasnorm_wordpool_less_exclusions.txt	LTP251	ltpFR	9	2	1	PHILOSOPHER	1054	n/a	0	n/a	0	0	0	1	0.412841796875	0.57763671875	upper	../fonts/zerothre.ttf
372242	WORD	wordpools/wasnorm_wordpool_less_exclusions.txt	LTP251	ltpFR	9	2	1	FRIES	607	n/a	0	n/a	0	0	0	1	0.412841796875	0.57763671875	upper	../fonts/zerothre.ttf
376394	WORD	wordpools/wasnorm_wordpool_less_exclusions.txt	LTP251	ltpFR	9	2	1	MARGARINE	868	n/a	0	n/a	0	0	0	1	0.412841796875	0.57763671875	upper	../fonts/zerothre.ttf
380526	WORD	wordpools/wasnorm_wordpool_less_exclusions.txt	LTP251	ltpFR	9	2	1	VAN	1548	n/a	0	n/a	0	0	0	1	0.412841796875	0.57763671875	upper	../fonts/zerothre.ttf
384437	WORD	wordpools/wasnorm_wordpool_less_exclusions.txt	LTP251	ltpFR	9	2	1	CAR	241	n/a	0	n/a	0	0	0	1	0.412841796875	0.57763671875	upper	../fonts/zerothre.ttf
388305	WORD	wordpools/wasnorm_wordpool_less_exclusions.txt	LTP251	ltpFR	9	2	1	SQUID	1361	n/a	1	n/a	0	0	0	1	0.412841796875	0.57763671875	upper	../fonts/zerothre.ttf
392387	WORD	wordpools/wasnorm_wordpool_less_exclusions.txt	LTP251	ltpFR	9	2	1	RAG	1160	n/a	0	n/a	0	0	0	1	0.412841796875	0.57763671875	upper	../fonts/zerothre.ttf
396383	WORD	wordpools/wasnorm_wordpool_less_exclusions.txt	LTP251	ltpFR	9	2	1	BED	110	n/a	0	n/a	0	0	0	1	0.412841796875	0.57763671875	upper	../fonts/zerothre.ttf
400433	WORD	wordpools/wasnorm_wordpool_less_exclusions.txt	LTP251	ltpFR	9	2	1	HUT	729	n/a	0	n/a	0	0	0	1	0.412841796875	0.57763671875	upper	../fonts/zerothre.ttf
404399	WORD	wordpools/wasnorm_wordpool_less_exclusions.txt	LTP251	ltpFR	9	2	1	TRIBE	1505	n/a	0	n/a	0	0	0	1	0.412841796875	0.57763671875	upper	../fonts/zerothre.ttf
408347	WORD	wordpools/wasnorm_wordpool_less_exclusions.txt	LTP251	ltpFR	9	2	1	PUMP	1141	n/a	0	n/a	0	0	0	1	0.412841796875	0.57763671875	upper	../fonts/zerothre.ttf
412496	WORD	wordpools/wasnorm_wordpool_less_exclusions.txt	LTP251	ltpFR	9	2	1	FRUIT	610	n/a	1	n/a	0	0	0	1	0.412841796875	0.57763671875	upper	../fonts/zerothre.ttf
415508	START	n/a	LTP251	ltpFR	9	n/a	n/a	n/a	n/a	n/a	n/a	n/a	n/a	n/a	n/a	n/a	n/a	n/a	n/a	n/a
416378	PROB	n/a	LTP251	ltpFR	9	n/a	n/a	n/a	n/a	n/a	n/a	14	2	9	3	n/a	n/a	n/a	n/a	n/a
419807	PROB	n/a	LTP251	ltpFR	9	n/a	n/a	n/a	n/a	n/a	n/a	20	7	8	5	n/a	n/a	n/a	n/a	n/a
421413	PROB	n/a	LTP251	ltpFR	9	n/a	n/a	n/a	n/a	n/a	n/a	11	1	6	4	n/a	n/a	n/a	n/a	n/a
422477	STOP	n/a	LTP251	ltpFR	9	n/a	n/a	n/a	n/a	n/a	n/a	n/a	n/a	n/a	n/a	n/a	n/a	n/a	n/a	n/a
425279	REC_START	n/a	LTP251	ltpFR	9	2	n/a	n/a	n/a	n/a	n/a	n/a	0	0	0	n/a	n/a	n/a	n/a	n/a
426117	REC_WORD	wordpools/wasnorm_wordpool_less_exclusions.txt	LTP251	ltpFR	9	2	1	PEAR	1033	n/a	1	n/a	0	0	0	n/a	n/a	n/a	n/a	n/a
427164	REC_WORD	wordpools/wasnorm_wordpool_less_exclusions.txt	LTP251	ltpFR	9	2	1	DOLPHIN	483	n/a	1	n/a	0	0	0	n/a	n/a	n/a	n/a	n/a
428197	REC_WORD	wordpools/wasnorm_wordpool_less_exclusions.txt	LTP251	ltpFR	9	2	1	PHILOSOPHER	1054	n/a	0	n/a	0	0	0	n/a	n/a	n/a	n/a	n/a
429813	REC_WORD	wordpools/wasnorm_wordpool_less_exclusions.txt	LTP251	ltpFR	9	2	1	FRUIT	610	n/a	1	n/a	0	0	0	n/a	n/a	n/a	n/a	n/a
431609	REC_WORD	wordpools/wasnorm_wordpool_less_exclusions.txt	LTP251	ltpFR	9	2	1	SQUID	1361	n/a	1	n/a	0	0	0	n/a	n/a	n/a	n/a	n/a
438713	REC_WORD	wordpools/wasnorm_wordpool_less_exclusions.txt	LTP251	ltpFR	9	2	1	MARGARINE	868	n/a	0	n/a	0	0	0	n/a	n/a	n/a	n/a	n/a
504058	WORD	wordpools/wasnorm_wordpool_less_exclusions.txt	LTP251	ltpFR	9	3	1	PIKE	1067	n/a	0	n/a	0	0	0	1	0.412841796875	0.57763671875	upper	../fonts/zerothre.ttf
507956	WORD	wordpools/wasnorm_wordpool_less_exclusions.txt	LTP251	ltpFR	9	3	1	ACTRESS	6	n/a	1	n/a	0	0	0	1	0.412841796875	0.57763671875	upper	../fonts/zerothre.ttf
512155	WORD	wordpools/wasnorm_wordpool_less_exclusions.txt	LTP251	ltpFR	9	3	1	PAGE	1001	n/a	0	n/a	0	0	0	1	0.412841796875	0.57763671875	upper	../fonts/zerothre.ttf
516070	WORD	wordpools/wasnorm_wordpool_less_exclusions.txt	LTP251	ltpFR	9	3	1	SEAFOOD	1260	n/a	0	n/a	0	0	0	1	0.412841796875	0.57763671875	upper	../fonts/zerothre.ttf
520269	WORD	wordpools/wasnorm_wordpool_less_exclusions.txt	LTP251	ltpFR	9	3	1	AGENT	10	n/a	1	n/a	0	0	0	1	0.412841796875	0.57763671875	upper	../fonts/zerothre.ttf
524147	WORD	wordpools/wasnorm_wordpool_less_exclusions.txt	LTP251	ltpFR	9	3	1	SHELF	1280	n/a	0	n/a	0	0	0	1	0.412841796875	0.57763671875	upper	../fonts/zerothre.ttf
528199	WORD	wordpools/wasnorm_wordpool_less_exclusions.txt	LTP251	ltpFR	9	3	1	BLUEJAY	141	n/a	1	n/a	0	0	0	1	0.412841796875	0.57763671875	upper	../fonts/zerothre.ttf
532365	WORD	wordpools/wasnorm_wordpool_less_exclusions.txt	LTP251	ltpFR	9	3	1	ROOSTER	1209	n/a	1	n/a	0	0	0	1	0.412841796875	0.57763671875	upper	../fonts/zerothre.ttf
536246	WORD	wordpools/wasnorm_wordpool_less_exclusions.txt	LTP251	ltpFR	9	3	1	PIER	1063	n/a	0	n/a	0	0	0	1	0.412841796875	0.57763671875	upper	../fonts/zerothre.ttf
540328	WORD	wordpools/wasnorm_wordpool_less_exclusions.txt	LTP251	ltpFR	9	3	1	BUCKET	184	n/a	0	n/a	0	0	0	1	0.412841796875	0.57763671875	upper	../fonts/zerothre.ttf
544226	WORD	wordpools/wasnorm_wordpool_less_exclusions.txt	LTP251	ltpFR	9	3	1	TRAITOR	1495	n/a	0	n/a	0	0	0	1	0.412841796875	0.57763671875	upper	../fonts/zerothre.ttf
548158	WORD	wordpools/wasnorm_wordpool_less_exclusions.txt	LTP251	ltpFR	9	3	1	SCREEN	1253	n/a	0	n/a	0	0	0	1	0.412841796875	0.57763671875	upper	../fonts/zerothre.ttf
551989	WORD	wordpools/wasnorm_wordpool_less_exclusions.txt	LTP251	ltpFR	9	3	1	PRODUCER	1129	n/a	0	n/a	0	0	0	1	0.412841796875	0.57763671875	upper	../fonts/zerothre.ttf
555987	WORD	wordpools/wasnorm_wordpool_less_exclusions.txt	LTP251	ltpFR	9	3	1	HEAD	695	n/a	0	n/a	0	0	0	1	0.412841796875	0.57763671875	upper	../fonts/zerothre.ttf
560119	WORD	wordpools/wasnorm_wordpool_less_exclusions.txt	LTP251	ltpFR	9	3	1	TOY	1492	n/a	0	n/a	0	0	0	1	0.412841796875	0.57763671875	upper	../fonts/zerothre.ttf
564235	WORD	wordpools/wasnorm_wordpool_less_exclusions.txt	LTP251	ltpFR	9	3	1	PRINCESS	1125	n/a	0	n/a	0	0	0	1	0.412841796875	0.57763671875	upper	../fonts/zerothre.ttf
567247	START	n/a	LTP251	ltpFR	9	n/a	n/a	n/a	n/a	n/a	n/a	n/a	n/a	n/a	n/a	n/a	n/a	n/a	n/a	n/a
568080	PROB	n/a	LTP251	ltpFR	9	n/a	n/a	n/a	n/a	n/a	n/a	10	3	5	2	n/a	n/a	n/a	n/a	n/a
570857	PROB	n/a	LTP251	ltpFR	9	n/a	n/a	n/a	n/a	n/a	n/a	8	3	1	4	n/a	n/a	n/a	n/a	n/a
572312	PROB	n/a	LTP251	ltpFR	9	n/a	n/a	n/a	n/a	n/a	n/a	18	3	7	8	n/a	n/a	n/a	n/a	n/a
574791	PROB	n/a	LTP251	ltpFR	9	n/a	n/a	n/a	n/a	n/a	n/a	19	8	3	8	n/a	n/a	n/a	n/a	n/a
576480	PROB	n/a	LTP251	ltpFR	9	n/a	n/a	n/a	n/a	n/a	n/a	20	8	6	6	n/a	n/a	n/a	n/a	n/a
578756	PROB	n/a	LTP251	ltpFR	9	n/a	n/a	n/a	n/a	n/a	n/a	12	5	4	3	n/a	n/a	n/a	n/a	n/a
581048	PROB	n/a	LTP251	ltpFR	9	n/a	n/a	n/a	n/a	n/a	n/a	15	1	6	8	n/a	n/a	n/a	n/a	n/a
582477	STOP	n/a	LTP251	ltpFR	9	n/a	n/a	n/a	n/a	n/a	n/a	n/a	n/a	n/a	n/a	n/a	n/a	n/a	n/a	n/a
585048	REC_START	n/a	LTP251	ltpFR	9	3	n/a	n/a	n/a	n/a	n/a	n/a	0	0	0	n/a	n/a	n/a	n/a	n/a
586155	REC_WORD	wordpools/wasnorm_wordpool_less_exclusions.txt	LTP251	ltpFR	9	3	1	ROOSTER	1209	n/a	1	n/a	0	0	0	n/a	n/a	n/a	n/a	n/a
587387	REC_WORD	wordpools/wasnorm_wordpool_less_exclusions.txt	LTP251	ltpFR	9	3	1	ACTRESS	6	n/a	1	n/a	0	0	0	n/a	n/a	n/a	n/a	n/a
588999	REC_WORD	wordpools/wasnorm_wordpool_less_exclusions.txt	LTP251	ltpFR	9	3	1	PAGE	1001	n/a	0	n/a	0	0	0	n/a	n/a	n/a	n/a	n/a
590076	REC_WORD	wordpools/wasnorm_wordpool_less_exclusions.txt	LTP251	ltpFR	9	3	1	PIKE	1067	n/a	0	n/a	0	0	0	n/a	n/a	n/a	n/a	n/a
591304	REC_WORD	wordpools/wasnorm_wordpool_less_exclusions.txt	LTP251	ltpFR	9	3	1	PIER	1063	n/a	0	n/a	0	0	0	n/a	n/a	n/a	n/a	n/a
603097	REC_WORD	wordpools/wasnorm_wordpool_less_exclusions.txt	LTP251	ltpFR	9	3	1	SEAFOOD	1260	n/a	0	n/a	0	0	0	n/a	n/a	n/a	n/a	n/a
627451	REC_WORD	wordpools/wasnorm_wordpool_less_exclusions.txt	LTP251	ltpFR	9	3	1	TOY	1492	n/a	0	n/a	0	0	0	n/a	n/a	n/a	n/a	n/a
663526	WORD	wordpools/wasnorm_wordpool_less_exclusions.txt	LTP251	ltpFR	9	4	0	SLIDE	1326	n/a	1	n/a	0	0	0	0	0.5869140625	0.422607421875	lower	../fonts/amplitud.ttf
667625	WORD	wordpools/wasnorm_wordpool_less_exclusions.txt	LTP251	ltpFR	9	4	0	TOENAIL	1474	n/a	1	n/a	0	0	0	0	0.5869140625	0.422607421875	lower	../fonts/amplitud.ttf
671770	WORD	wordpools/wasnorm_wordpool_less_exclusions.txt	LTP251	ltpFR	9	4	0	CHISEL	305	n/a	0	n/a	0	0	0	0	0.5869140625	0.422607421875	lower	../fonts/amplitud.ttf
675739	WORD	wordpools/wasnorm_wordpool_less_exclusions.txt	LTP251	ltpFR	9	4	0	CATHEDRAL	260	n/a	1	n/a	0	0	0	0	0.5869140625	0.422607421875	lower	../fonts/amplitud.ttf
679951	WORD	wordpools/wasnorm_wordpool_less_exclusions.txt	LTP251	ltpFR	9	4	0	UNIFORM	1539	n/a	1	n/a	0	0	0	0	0.5869140625	0.422607421875	lower	../fonts/amplitud.ttf
684137	WORD	wordpools/wasnorm_wordpool_less_exclusions.txt	LTP251	ltpFR	9	4	0	SURF	1412	n/a	1	n/a	0	0	0	0	0.5869140625	0.422607421875	lower	../fonts/amplitud.ttf
688018	WORD	wordpools/wasnorm_wordpool_less_exclusions.txt	LTP251	ltpFR	9	4	0	BEAST	108	n/a	1	n/a	0	0	0	0	0.5869140625	0.422607421875	lower	../fonts/amplitud.ttf
692150	WORD	wordpools/wasnorm_wordpool_less_exclusions.txt	LTP251	ltpFR	9	4	0	DASHBOARD	441	n/a	1	n/a	0	0	0	0	0.5869140625	0.422607421875	lower	../fonts/amplitud.ttf
696095	WORD	wordpools/wasnorm_wordpool_less_exclusions.txt	LTP251	ltpFR	9	4	0	CONSOLE	364	n/a	1	n/a	0	0	0	0	0.5869140625	0.422607421875	lower	../fonts/amplitud.ttf
700010	WORD	wordpools/wasnorm_wordpool_less_exclusions.txt	LTP251	ltpFR	9	4	0	FORT	595	n/a	1	n/a	0	0	0	0	0.5869140625	0.422607421875	lower	../fonts/amplitud.ttf
704062	WORD	wordpools/wasnorm_wordpool_less_exclusions.txt	LTP251	ltpFR	9	4	0	BOLT	146	n/a	1	n/a	0	0	0	0	0.5869140625	0.422607421875	lower	../fonts/amplitud.ttf
708161	WORD	wordpools/wasnorm_wordpool_less_exclusions.txt	LTP251	ltpFR	9	4	0	SPRINKLE	1359	n/a	1	n/a	0	0	0	0	0.5869140625	0.422607421875	lower	../fonts/amplitud.ttf
712156	WORD	wordpools/wasnorm_wordpool_less_exclusions.txt	LTP251	ltpFR	9	4	0	WATER	1594	n/a	1	n/a	0	0	0	0	0.5869140625	0.422607421875	lower	../fonts/amplitud.ttf
716238	WORD	wordpools/wasnorm_wordpool_less_exclusions.txt	LTP251	ltpFR	9	4	0	WALNUT	1584	n/a	0	n/a	0	0	0	0	0.5869140625	0.422607421875	lower	../fonts/amplitud.ttf
720189	WORD	wordpools/wasnorm_wordpool_less_exclusions.txt	LTP251	ltpFR	9	4	0	WITNESS	1618	n/a	1	n/a	0	0	0	0	0.5869140625	0.422607421875	lower	../fonts/amplitud.ttf
724121	WORD	wordpools/wasnorm_wordpool_less_exclusions.txt	LTP251	ltpFR	9	4	0	COURT	391	n/a	1	n/a	0	0	0	0	0.5869140625	0.422607421875	lower	../fonts/amplitud.ttf
730094	REC_START	n/a	LTP251	ltpFR	9	4	n/a	n/a	n/a	n/a	n/a	n/a	0	0	0	n/a	n/a	n/a	n/a	n/a
731126	REC_WORD	wordpools/wasnorm_wordpool_less_exclusions.txt	LTP251	ltpFR	9	4	0	CHISEL	305	n/a	0	n/a	0	0	0	n/a	n/a	n/a	n/a	n/a
732403	REC_WORD	wordpools/wasnorm_wordpool_less_exclusions.txt	LTP251	ltpFR	9	4	0	WALNUT	1584	n/a	0	n/a	0	0	0	n/a	n/a	n/a	n/a	n/a
733765	REC_WORD	wordpools/wasnorm_wordpool_less_exclusions.txt	LTP251	ltpFR	9	4	0	WATER	1594	n/a	1	n/a	0	0	0	n/a	n/a	n/a	n/a	n/a
735347	REC_WORD	wordpools/wasnorm_wordpool_less_exclusions.txt	LTP251	ltpFR	9	4	0	CATHEDRAL	260	n/a	1	n/a	0	0	0	n/a	n/a	n/a	n/a	n/a
751934	REC_WORD	wordpools/wasnorm_wordpool_less_exclusions.txt	LTP251	ltpFR	9	4	0	CONSOLE	364	n/a	1	n/a	0	0	0	n/a	n/a	n/a	n/a	n/a
808171	WORD	wordpools/wasnorm_wordpool_less_exclusions.txt	LTP251	ltpFR	9	5	1	WHEAT	1602	n/a	1	n/a	0	0	0	1	0.412841796875	0.57763671875	upper	../fonts/zerothre.ttf
812052	WORD	wordpools/wasnorm_wordpool_less_exclusions.txt	LTP251	ltpFR	9	5	1	DIRECTOR	471	n/a	0	n/a	0	0	0	1	0.412841796875	0.57763671875	upper	../fonts/zerothre.ttf
816185	WORD	wordpools/wasnorm_wordpool_less_exclusions.txt	LTP251	ltpFR	9	5	1	SPINACH	1352	n/a	1	n/a	0	0	0	1	0.412841796875	0.57763671875	upper	../fonts/zerothre.ttf
820130	WORD	wordpools/wasnorm_wordpool_less_exclusions.txt	LTP251	ltpFR	9	5	0	SLUG	1329	n/a	0	n/a	0	0	0	0	0.5869140625	0.422607421875	lower	../fonts/amplitud.ttf
824215	WORD	wordpools/wasnorm_wordpool_less_exclusions.txt	LTP251	ltpFR	9	5	0	PIG	1064	n/a	0	n/a	0	0	0	0	0.5869140625	0.422607421875	lower	../fonts/amplitud.ttf
828260	WORD	wordpools/wasnorm_wordpool_less_exclusions.txt	LTP251	ltpFR	9	5	0	COW	393	n/a	1	n/a	0	0	0	0	0.5869140625	0.422607421875	lower	../fonts/amplitud.ttf
832462	WORD	wordpools/wasnorm_wordpool_less_exclusions.txt	LTP251	ltpFR	9	5	0	LEAF	808	n/a	1	n/a	0	0	0	0	0.5869140625	0.422607421875	lower	../fonts/amplitud.ttf
836411	WORD	wordpools/wasnorm_wordpool_less_exclusions.txt	LTP251	ltpFR	9	5	0	DRUM	502	n/a	1	n/a	0	0	0	0	0.5869140625	0.422607421875	lower	../fonts/amplitud.ttf
840576	WORD	wordpools/wasnorm_wordpool_less_exclusions.txt	LTP251	ltpFR	9	5	1	CONCERT	360	n/a	0	n/a	0	0	0	1	0.412841796875	0.57763671875	upper	../fonts/zerothre.ttf
844625	WORD	wordpools/wasnorm_wordpool_less_exclusions.txt	LTP251	ltpFR	9	5	1	CHEMIST	292	n/a	1	n/a	0	0	0	1	0.412841796875	0.57763671875	upper	../fonts/zerothre.ttf
848570	WORD	wordpools/wasnorm_wordpool_less_exclusions.txt	LTP251	ltpFR	9	5	1	SHRUB	1299	n/a	1	n/a	0	0	0	1	0.412841796875	0.57763671875	upper	../fonts/zerothre.ttf
852487	WORD	wordpools/wasnorm_wordpool_less_exclusions.txt	LTP251	ltpFR	9	5	0	HELICOPTER	701	n/a	1	n/a	0	0	0	0	0.5869140625	0.422607421875	lower	../fonts/amplitud.ttf
856386	WORD	wordpools/wasnorm_wordpool_less_exclusions.txt	LTP251	ltpFR	9	5	0	TICKET	1464	n/a	0	n/a	0	0	0	0	0.5869140625	0.422607421875	lower	../fonts/amplitud.ttf
860502	WORD	wordpools/wasnorm_wordpool_less_exclusions.txt	LTP251	ltpFR	9	5	0	THICKET	1455	n/a	1	n/a	0	0	0	0	0.5869140625	0.422607421875	lower	../fonts/amplitud.ttf
864462	WORD	wordpools/wasnorm_wordpool_less_exclusions.txt	LTP251	ltpFR	9	5	1	POTATO	1115	n/a	1	n/a	0	0	0	1	0.412841796875	0.57763671875	upper	../fonts/zerothre.ttf
868398	WORD	wordpools/wasnorm_wordpool_less_exclusions.txt	LTP251	ltpFR	9	5	1	TREE	1502	n/a	1	n/a	0	0	0	1	0.412841796875	0.57763671875	upper	../fonts/zerothre.ttf
871410	START	n/a	LTP251	ltpFR	9	n/a	n/a	n/a	n/a	n/a	n/a	n/a	n/a	n/a	n/a	n/a	n/a	n/a	n/a	n/a
872279	PROB	n/a	LTP251	ltpFR	9	n/a	n/a	n/a	n/a	n/a	n/a	14	4	6	9	n/a	n/a	n/a	n/a	n/a
874470	PROB	n/a	LTP251	ltpFR	9	n/a	n/a	n/a	n/a	n/a	n/a	16	7	1	8	n/a	n/a	n/a	n/a	n/a
876646	PROB	n/a	LTP251	ltpFR	9	n/a	n/a	n/a	n/a	n/a	n/a	18	1	9	8	n/a	n/a	n/a	n/a	n/a
878671	STOP	n/a	LTP251	ltpFR	9	n/a	n/a	n/a	n/a	n/a	n/a	n/a	n/a	n/a	n/a	n/a	n/a	n/a	n/a	n/a
881314	REC_START	n/a	LTP251	ltpFR	9	5	n/a	n/a	n/a	n/a	n/a	n/a	0	0	0	n/a	n/a	n/a	n/a	n/a
881732	REC_WORD	wordpools/wasnorm_wordpool_less_exclusions.txt	LTP251	ltpFR	9	5	1	SPINACH	1352	n/a	1	n/a	0	0	0	n/a	n/a	n/a	n/a	n/a
882895	REC_WORD	wordpools/wasnorm_wordpool_less_exclusions.txt	LTP251	ltpFR	9	5	1	WHEAT	1602	n/a	1	n/a	0	0	0	n/a	n/a	n/a	n/a	n/a
893716	REC_WORD	wordpools/wasnorm_wordpool_less_exclusions.txt	LTP251	ltpFR	9	5	1	DIRECTOR	471	n/a	0	n/a	0	0	0	n/a	n/a	n/a	n/a	n/a
899273	REC_WORD	wordpools/wasnorm_wordpool_less_exclusions.txt	LTP251	ltpFR	9	5	0	COW	393	n/a	1	n/a	0	0	0	n/a	n/a	n/a	n/a	n/a
900410	REC_WORD	wordpools/wasnorm_wordpool_less_exclusions.txt	LTP251	ltpFR	9	5	0	SLUG	1329	n/a	0	n/a	0	0	0	n/a	n/a	n/a	n/a	n/a
903064	REC_WORD	wordpools/wasnorm_wordpool_less_exclusions.txt	LTP251	ltpFR	9	5	0	LEAF	808	n/a	1	n/a	0	0	0	n/a	n/a	n/a	n/a	n/a
915272	REC_WORD	wordpools/wasnorm_wordpool_less_exclusions.txt	LTP251	ltpFR	9	5	0	HELICOPTER	701	n/a	1	n/a	0	0	0	n/a	n/a	n/a	n/a	n/a
958639	START	n/a	LTP251	ltpFR	9	n/a	n/a	n/a	n/a	n/a	n/a	n/a	n/a	n/a	n/a	n/a	n/a	n/a	n/a	n/a
960144	PROB	n/a	LTP251	ltpFR	9	n/a	n/a	n/a	n/a	n/a	n/a	10	4	3	3	n/a	n/a	n/a	n/a	n/a
961964	PROB	n/a	LTP251	ltpFR	9	n/a	n/a	n/a	n/a	n/a	n/a	16	9	5	2	n/a	n/a	n/a	n/a	n/a
963737	PROB	n/a	LTP251	ltpFR	9	n/a	n/a	n/a	n/a	n/a	n/a	13	1	9	3	n/a	n/a	n/a	n/a	n/a
965287	STOP	n/a	LTP251	ltpFR	9	n/a	n/a	n/a	n/a	n/a	n/a	n/a	n/a	n/a	n/a	n/a	n/a	n/a	n/a	n/a
967655	WORD	wordpools/wasnorm_wordpool_less_exclusions.txt	LTP251	ltpFR	9	6	1	PLUMBER	1091	n/a	0	n/a	0	0	0	1	0.412841796875	0.57763671875	upper	../fonts/zerothre.ttf
970667	START	n/a	LTP251	ltpFR	9	n/a	n/a	n/a	n/a	n/a	n/a	n/a	n/a	n/a	n/a	n/a	n/a	n/a	n/a	n/a
971838	PROB	n/a	LTP251	ltpFR	9	n/a	n/a	n/a	n/a	n/a	n/a	24	9	9	8	n/a	n/a	n/a	n/a	n/a
975769	PROB	n/a	LTP251	ltpFR	9	n/a	n/a	n/a	n/a	n/a	n/a	9	2	5	1	n/a	n/a	n/a	n/a	n/a
977469	STOP	n/a	LTP251	ltpFR	9	n/a	n/a	n/a	n/a	n/a	n/a	n/a	n/a	n/a	n/a	n/a	n/a	n/a	n/a	n/a
979698	WORD	wordpools/wasnorm_wordpool_less_exclusions.txt	LTP251	ltpFR	9	6	1	WATERFALL	1595	n/a	0	n/a	0	0	0	1	0.412841796875	0.57763671875	upper	../fonts/zerothre.ttf
982713	START	n/a	LTP251	ltpFR	9	n/a	n/a	n/a	n/a	n/a	n/a	n/a	n/a	n/a	n/a	n/a	n/a	n/a	n/a	n/a
983800	PROB	n/a	LTP251	ltpFR	9	n/a	n/a	n/a	n/a	n/a	n/a	10	6	1	3	n/a	n/a	n/a	n/a	n/a
985336	PROB	n/a	LTP251	ltpFR	9	n/a	n/a	n/a	n/a	n/a	n/a	10	2	1	7	n/a	n/a	n/a	n/a	n/a
986774	PROB	n/a	LTP251	ltpFR	9	n/a	n/a	n/a	n/a	n/a	n/a	10	1	8	1	n/a	n/a	n/a	n/a	n/a
987912	PROB	n/a	LTP251	ltpFR	9	n/a	n/a	n/a	n/a	n/a	n/a	11	8	1	2	n/a	n/a	n/a	n/a	n/a
989239	STOP	n/a	LTP251	ltpFR	9	n/a	n/a	n/a	n/a	n/a	n/a	n/a	n/a	n/a	n/a	n/a	n/a	n/a	n/a	n/a
991746	WORD	wordpools/wasnorm_wordpool_less_exclusions.txt	LTP251	ltpFR	9	6	0	BANJO	82	n/a	1	n/a	0	0	0	0	0.5869140625	0.422607421875	lower	../fonts/amplitud.ttf
994758	START	n/a	LTP251	ltpFR	9	n/a	n/a	n/a	n/a	n/a	n/a	n/a	n/a	n/a	n/a	n/a	n/a	n/a	n/a	n/a
995912	PROB	n/a	LTP251	ltpFR	9	n/a	n/a	n/a	n/a	n/a	n/a	19	2	9	8	n/a	n/a	n/a	n/a	n/a
997615	PROB	n/a	LTP251	ltpFR	9	n/a	n/a	n/a	n/a	n/a	n/a	25	9	7	8	n/a	n/a	n/a	n/a	n/a
1001262	STOP	n/a	LTP251	ltpFR	9	n/a	n/a	n/a	n/a	n/a	n/a	n/a	n/a	n/a	n/a	n/a	n/a	n/a	n/a	n/a
1003674	WORD	wordpools/wasnorm_wordpool_less_exclusions.txt	LTP251	ltpFR	9	6	0	BUGLE	189	n/a	1	n/a	0	0	0	0	0.5869140625	0.422607421875	lower	../fonts/amplitud.ttf
1006686	START	n/a	LTP251	ltpFR	9	n/a	n/a	n/a	n/a	n/a	n/a	n/a	n/a	n/a	n/a	n/a	n/a	n/a	n/a	n/a
1007890	PROB	n/a	LTP251	ltpFR	9	n/a	n/a	n/a	n/a	n/a	n/a	14	1	2	9	n/a	n/a	n/a	n/a	n/a
1009747	PROB	n/a	LTP251	ltpFR	9	n/a	n/a	n/a	n/a	n/a	n/a	14	7	8	2	n/a	n/a	n/a	n/a	n/a
1012337	PROB	n/a	LTP251	ltpFR	9	n/a	n/a	n/a	n/a	n/a	n/a	10	1	4	4	n/a	n/a	n/a	n/a	n/a
1013623	STOP	n/a	LTP251	ltpFR	9	n/a	n/a	n/a	n/a	n/a	n/a	n/a	n/a	n/a	n/a	n/a	n/a	n/a	n/a	n/a
1015720	WORD	wordpools/wasnorm_wordpool_less_exclusions.txt	LTP251	ltpFR	9	6	0	REEF	1177	n/a	0	n/a	0	0	0	0	0.5869140625	0.422607421875	lower	../fonts/amplitud.ttf
1018732	START	n/a	LTP251	ltpFR	9	n/a	n/a	n/a	n/a	n/a	n/a	n/a	n/a	n/a	n/a	n/a	n/a	n/a	n/a	n/a
1019869	PROB	n/a	LTP251	ltpFR	9	n/a	n/a	n/a	n/a	n/a	n/a	20	7	5	8	n/a	n/a	n/a	n/a	n/a
1021960	PROB	n/a	LTP251	ltpFR	9	n/a	n/a	n/a	n/a	n/a	n/a	13	4	1	8	n/a	n/a	n/a	n/a	n/a
1023600	PROB	n/a	LTP251	ltpFR	9	n/a	n/a	n/a	n/a	n/a	n/a	18	6	7	5	n/a	n/a	n/a	n/a	n/a
1026731	STOP	n/a	LTP251	ltpFR	9	n/a	n/a	n/a	n/a	n/a	n/a	n/a	n/a	n/a	n/a	n/a	n/a	n/a	n/a	n/a
1027581	WORD	wordpools/wasnorm_wordpool_less_exclusions.txt	LTP251	ltpFR	9	6	1	BANKER	84	n/a	1	n/a	0	0	0	1	0.412841796875	0.57763671875	upper	../fonts/zerothre.ttf
1030593	START	n/a	LTP251	ltpFR	9	n/a	n/a	n/a	n/a	n/a	n/a	n/a	n/a	n/a	n/a	n/a	n/a	n/a	n/a	n/a
1031563	PROB	n/a	LTP251	ltpFR	9	n/a	n/a	n/a	n/a	n/a	n/a	20	5	8	7	n/a	n/a	n/a	n/a	n/a
1033132	PROB	n/a	LTP251	ltpFR	9	n/a	n/a	n/a	n/a	n/a	n/a	14	5	3	6	n/a	n/a	n/a	n/a	n/a
1035177	PROB	n/a	LTP251	ltpFR	9	n/a	n/a	n/a	n/a	n/a	n/a	14	8	5	1	n/a	n/a	n/a	n/a	n/a
1036515	PROB	n/a	LTP251	ltpFR	9	n/a	n/a	n/a	n/a	n/a	n/a	15	5	4	6	n/a	n/a	n/a	n/a	n/a
1037647	STOP	n/a	LTP251	ltpFR	9	n/a	n/a	n/a	n/a	n/a	n/a	n/a	n/a	n/a	n/a	n/a	n/a	n/a	n/a	n/a
1039744	WORD	wordpools/wasnorm_wordpool_less_exclusions.txt	LTP251	ltpFR	9	6	1	BILL	126	n/a	0	n/a	0	0	0	1	0.412841796875	0.57763671875	upper	../fonts/zerothre.ttf
1042756	START	n/a	LTP251	ltpFR	9	n/a	n/a	n/a	n/a	n/a	n/a	n/a	n/a	n/a	n/a	n/a	n/a	n/a	n/a	n/a
1043776	PROB	n/a	LTP251	ltpFR	9	n/a	n/a	n/a	n/a	n/a	n/a	16	2	7	7	n/a	n/a	n/a	n/a	n/a
1045833	PROB	n/a	LTP251	ltpFR	9	n/a	n/a	n/a	n/a	n/a	n/a	19	8	7	4	n/a	n/a	n/a	n/a	n/a
1048273	PROB	n/a	LTP251	ltpFR	9	n/a	n/a	n/a	n/a	n/a	n/a	12	7	3	2	n/a	n/a	n/a	n/a	n/a
1049742	STOP	n/a	LTP251	ltpFR	9	n/a	n/a	n/a	n/a	n/a	n/a	n/a	n/a	n/a	n/a	n/a	n/a	n/a	n/a	n/a
1051672	WORD	wordpools/wasnorm_wordpool_less_exclusions.txt	LTP251	ltpFR	9	6	1	UNICORN	1538	n/a	0	n/a	0	0	0	1	0.412841796875	0.57763671875	upper	../fonts/zerothre.ttf
1054684	START	n/a	LTP251	ltpFR	9	n/a	n/a	n/a	n/a	n/a	n/a	n/a	n/a	n/a	n/a	n/a	n/a	n/a	n/a	n/a
1055801	PROB	n/a	LTP251	ltpFR	9	n/a	n/a	n/a	n/a	n/a	n/a	10	5	2	3	n/a	n/a	n/a	n/a	n/a
1057290	PROB	n/a	LTP251	ltpFR	9	n/a	n/a	n/a	n/a	n/a	n/a	24	9	7	8	n/a	n/a	n/a	n/a	n/a
1062684	STOP	n/a	LTP251	ltpFR	9	n/a	n/a	n/a	n/a	n/a	n/a	n/a	n/a	n/a	n/a	n/a	n/a	n/a	n/a	n/a
1063835	WORD	wordpools/wasnorm_wordpool_less_exclusions.txt	LTP251	ltpFR	9	6	1	BARRACUDA	90	n/a	0	n/a	0	0	0	1	0.412841796875	0.57763671875	upper	../fonts/zerothre.ttf
1066846	START	n/a	LTP251	ltpFR	9	n/a	n/a	n/a	n/a	n/a	n/a	n/a	n/a	n/a	n/a	n/a	n/a	n/a	n/a	n/a
1067813	PROB	n/a	LTP251	ltpFR	9	n/a	n/a	n/a	n/a	n/a	n/a	24	8	7	9	n/a	n/a	n/a	n/a	n/a
1071226	PROB	n/a	LTP251	ltpFR	9	n/a	n/a	n/a	n/a	n/a	n/a	15	1	5	9	n/a	n/a	n/a	n/a	n/a
1074839	STOP	n/a	LTP251	ltpFR	9	n/a	n/a	n/a	n/a	n/a	n/a	n/a	n/a	n/a	n/a	n/a	n/a	n/a	n/a	n/a
1075810	WORD	wordpools/wasnorm_wordpool_less_exclusions.txt	LTP251	ltpFR	9	6	0	LID	817	n/a	2	n/a	0	0	0	0	0.5869140625	0.422607421875	lower	../fonts/amplitud.ttf
1078489	KEY_MSG	n/a	LTP251	ltpFR	9	6	n/a	n/a	n/a	n/a	n/a	n/a	0	0	0	n/a	n/a	n/a	n/a	n/a
1080013	START	n/a	LTP251	ltpFR	9	n/a	n/a	n/a	n/a	n/a	n/a	n/a	n/a	n/a	n/a	n/a	n/a	n/a	n/a	n/a
1080916	PROB	n/a	LTP251	ltpFR	9	n/a	n/a	n/a	n/a	n/a	n/a	21	7	8	6	n/a	n/a	n/a	n/a	n/a
1082923	PROB	n/a	LTP251	ltpFR	9	n/a	n/a	n/a	n/a	n/a	n/a	16	9	3	3	n/a	n/a	n/a	n/a	n/a
1084278	PROB	n/a	LTP251	ltpFR	9	n/a	n/a	n/a	n/a	n/a	n/a	18	3	6	9	n/a	n/a	n/a	n/a	n/a
1086416	PROB	n/a	LTP251	ltpFR	9	n/a	n/a	n/a	n/a	n/a	n/a	16	5	8	3	n/a	n/a	n/a	n/a	n/a
1087959	STOP	n/a	LTP251	ltpFR	9	n/a	n/a	n/a	n/a	n/a	n/a	n/a	n/a	n/a	n/a	n/a	n/a	n/a	n/a	n/a
1089063	WORD	wordpools/wasnorm_wordpool_less_exclusions.txt	LTP251	ltpFR	9	6	0	STOOL	1386	n/a	0	n/a	0	0	0	0	0.5869140625	0.422607421875	lower	../fonts/amplitud.ttf
1092075	START	n/a	LTP251	ltpFR	9	n/a	n/a	n/a	n/a	n/a	n/a	n/a	n/a	n/a	n/a	n/a	n/a	n/a	n/a	n/a
1093045	PROB	n/a	LTP251	ltpFR	9	n/a	n/a	n/a	n/a	n/a	n/a	21	9	4	8	n/a	n/a	n/a	n/a	n/a
1095119	PROB	n/a	LTP251	ltpFR	9	n/a	n/a	n/a	n/a	n/a	n/a	9	3	3	3	n/a	n/a	n/a	n/a	n/a
1096270	PROB	n/a	LTP251	ltpFR	9	n/a	n/a	n/a	n/a	n/a	n/a	10	3	2	5	n/a	n/a	n/a	n/a	n/a
1100074	STOP	n/a	LTP251	ltpFR	9	n/a	n/a	n/a	n/a	n/a	n/a	n/a	n/a	n/a	n/a	n/a	n/a	n/a	n/a	n/a
1101008	WORD	wordpools/wasnorm_wordpool_less_exclusions.txt	LTP251	ltpFR	9	6	0	PAIL	1002	n/a	0	n/a	0	0	0	0	0.5869140625	0.422607421875	lower	../fonts/amplitud.ttf
1104020	START	n/a	LTP251	ltpFR	9	n/a	n/a	n/a	n/a	n/a	n/a	n/a	n/a	n/a	n/a	n/a	n/a	n/a	n/a	n/a
1104990	PROB	n/a	LTP251	ltpFR	9	n/a	n/a	n/a	n/a	n/a	n/a	19	9	3	7	n/a	n/a	n/a	n/a	n/a
1106392	PROB	n/a	LTP251	ltpFR	9	n/a	n/a	n/a	n/a	n/a	n/a	15	7	4	3	n/a	n/a	n/a	n/a	n/a
1112019	STOP	n/a	LTP251	ltpFR	9	n/a	n/a	n/a	n/a	n/a	n/a	n/a	n/a	n/a	n/a	n/a	n/a	n/a	n/a	n/a
1112886	WORD	wordpools/wasnorm_wordpool_less_exclusions.txt	LTP251	ltpFR	9	6	0	MULE	931	n/a	1	n/a	0	0	0	0	0.5869140625	0.422607421875	lower	../fonts/amplitud.ttf
1115898	START	n/a	LTP251	ltpFR	9	n/a	n/a	n/a	n/a	n/a	n/a	n/a	n/a	n/a	n/a	n/a	n/a	n/a	n/a	n/a
1116784	PROB	n/a	LTP251	ltpFR	9	n/a	n/a	n/a	n/a	n/a	n/a	19	9	5	5	n/a	n/a	n/a	n/a	n/a
1118052	PROB	n/a	LTP251	ltpFR	9	n/a	n/a	n/a	n/a	n/a	n/a	14	6	1	7	n/a	n/a	n/a	n/a	n/a
1119608	PROB	n/a	LTP251	ltpFR	9	n/a	n/a	n/a	n/a	n/a	n/a	18	6	5	7	n/a	n/a	n/a	n/a	n/a
1121451	PROB	n/a	LTP251	ltpFR	9	n/a	n/a	n/a	n/a	n/a	n/a	22	5	8	9	n/a	n/a	n/a	n/a	n/a
1123847	STOP	n/a	LTP251	ltpFR	9	n/a	n/a	n/a	n/a	n/a	n/a	n/a	n/a	n/a	n/a	n/a	n/a	n/a	n/a	n/a
1124978	WORD	wordpools/wasnorm_wordpool_less_exclusions.txt	LTP251	ltpFR	9	6	0	GRATE	657	n/a	1	n/a	0	0	0	0	0.5869140625	0.422607421875	lower	../fonts/amplitud.ttf
1127994	START	n/a	LTP251	ltpFR	9	n/a	n/a	n/a	n/a	n/a	n/a	n/a	n/a	n/a	n/a	n/a	n/a	n/a	n/a	n/a
1128977	PROB	n/a	LTP251	ltpFR	9	n/a	n/a	n/a	n/a	n/a	n/a	16	7	3	6	n/a	n/a	n/a	n/a	n/a
1130431	PROB	n/a	LTP251	ltpFR	9	n/a	n/a	n/a	n/a	n/a	n/a	17	7	5	5	n/a	n/a	n/a	n/a	n/a
1132774	PROB	n/a	LTP251	ltpFR	9	n/a	n/a	n/a	n/a	n/a	n/a	11	2	3	6	n/a	n/a	n/a	n/a	n/a
1134417	PROB	n/a	LTP251	ltpFR	9	n/a	n/a	n/a	n/a	n/a	n/a	14	8	4	2	n/a	n/a	n/a	n/a	n/a
1135703	STOP	n/a	LTP251	ltpFR	9	n/a	n/a	n/a	n/a	n/a	n/a	n/a	n/a	n/a	n/a	n/a	n/a	n/a	n/a	n/a
1136876	WORD	wordpools/wasnorm_wordpool_less_exclusions.txt	LTP251	ltpFR	9	6	1	DUCK	504	n/a	0	n/a	0	0	0	1	0.412841796875	0.57763671875	upper	../fonts/zerothre.ttf
1139889	START	n/a	LTP251	ltpFR	9	n/a	n/a	n/a	n/a	n/a	n/a	n/a	n/a	n/a	n/a	n/a	n/a	n/a	n/a	n/a
1140858	PROB	n/a	LTP251	ltpFR	9	n/a	n/a	n/a	n/a	n/a	n/a	13	8	3	2	n/a	n/a	n/a	n/a	n/a
1143297	PROB	n/a	LTP251	ltpFR	9	n/a	n/a	n/a	n/a	n/a	n/a	17	2	9	6	n/a	n/a	n/a	n/a	n/a
1146671	STOP	n/a	LTP251	ltpFR	9	n/a	n/a	n/a	n/a	n/a	n/a	n/a	n/a	n/a	n/a	n/a	n/a	n/a	n/a	n/a
1148905	WORD	wordpools/wasnorm_wordpool_less_exclusions.txt	LTP251	ltpFR	9	6	1	NEST	945	n/a	0	n/a	0	0	0	1	0.412841796875	0.57763671875	upper	../fonts/zerothre.ttf
1151917	START	n/a	LTP251	ltpFR	9	n/a	n/a	n/a	n/a	n/a	n/a	n/a	n/a	n/a	n/a	n/a	n/a	n/a	n/a	n/a
1152753	PROB	n/a	LTP251	ltpFR	9	n/a	n/a	n/a	n/a	n/a	n/a	20	9	8	3	n/a	n/a	n/a	n/a	n/a
1154911	PROB	n/a	LTP251	ltpFR	9	n/a	n/a	n/a	n/a	n/a	n/a	21	9	5	8	n/a	n/a	n/a	n/a	n/a
1157789	PROB	n/a	LTP251	ltpFR	9	n/a	n/a	n/a	n/a	n/a	n/a	11	5	1	4	n/a	n/a	n/a	n/a	n/a
1159847	STOP	n/a	LTP251	ltpFR	9	n/a	n/a	n/a	n/a	n/a	n/a	n/a	n/a	n/a	n/a	n/a	n/a	n/a	n/a	n/a
1161688	REC_START	n/a	LTP251	ltpFR	9	6	n/a	n/a	n/a	n/a	n/a	n/a	0	0	0	n/a	n/a	n/a	n/a	n/a
1163244	REC_WORD	wordpools/wasnorm_wordpool_less_exclusions.txt	LTP251	ltpFR	9	6	1	NEST	945	n/a	0	n/a	0	0	0	n/a	n/a	n/a	n/a	n/a
1164137	REC_WORD	wordpools/wasnorm_wordpool_less_exclusions.txt	LTP251	ltpFR	9	6	0	BANJO	82	n/a	1	n/a	0	0	0	n/a	n/a	n/a	n/a	n/a
1167076	REC_WORD	wordpools/wasnorm_wordpool_less_exclusions.txt	LTP251	ltpFR	9	6	0	GRATE	657	n/a	1	n/a	0	0	0	n/a	n/a	n/a	n/a	n/a
1170178	REC_WORD	wordpools/wasnorm_wordpool_less_exclusions.txt	LTP251	ltpFR	9	6	0	MULE	931	n/a	1	n/a	0	0	0	n/a	n/a	n/a	n/a	n/a
1178460	REC_WORD	wordpools/wasnorm_wordpool_less_exclusions.txt	LTP251	ltpFR	9	6	1	BARRACUDA	90	n/a	0	n/a	0	0	0	n/a	n/a	n/a	n/a	n/a
1192124	REC_WORD	wordpools/wasnorm_wordpool_less_exclusions.txt	LTP251	ltpFR	9	6	1	BILL	126	n/a	0	n/a	0	0	0	n/a	n/a	n/a	n/a	n/a
1238560	START	n/a	LTP251	ltpFR	9	n/a	n/a	n/a	n/a	n/a	n/a	n/a	n/a	n/a	n/a	n/a	n/a	n/a	n/a	n/a
1240065	PROB	n/a	LTP251	ltpFR	9	n/a	n/a	n/a	n/a	n/a	n/a	20	2	9	9	n/a	n/a	n/a	n/a	n/a
1241618	PROB	n/a	LTP251	ltpFR	9	n/a	n/a	n/a	n/a	n/a	n/a	11	5	2	4	n/a	n/a	n/a	n/a	n/a
1243726	PROB	n/a	LTP251	ltpFR	9	n/a	n/a	n/a	n/a	n/a	n/a	19	8	2	9	n/a	n/a	n/a	n/a	n/a
1245131	PROB	n/a	LTP251	ltpFR	9	n/a	n/a	n/a	n/a	n/a	n/a	20	8	6	3	n/a	n/a	n/a	n/a	n/a
1246821	PROB	n/a	LTP251	ltpFR	9	n/a	n/a	n/a	n/a	n/a	n/a	14	2	4	7	n/a	n/a	n/a	n/a	n/a
1248276	PROB	n/a	LTP251	ltpFR	9	n/a	n/a	n/a	n/a	n/a	n/a	14	5	7	2	n/a	n/a	n/a	n/a	n/a
1249568	PROB	n/a	LTP251	ltpFR	9	n/a	n/a	n/a	n/a	n/a	n/a	13	9	2	2	n/a	n/a	n/a	n/a	n/a
1251338	PROB	n/a	LTP251	ltpFR	9	n/a	n/a	n/a	n/a	n/a	n/a	17	7	6	4	n/a	n/a	n/a	n/a	n/a
1252760	PROB	n/a	LTP251	ltpFR	9	n/a	n/a	n/a	n/a	n/a	n/a	7	1	5	1	n/a	n/a	n/a	n/a	n/a
1254023	STOP	n/a	LTP251	ltpFR	9	n/a	n/a	n/a	n/a	n/a	n/a	n/a	n/a	n/a	n/a	n/a	n/a	n/a	n/a	n/a
1255390	WORD	wordpools/wasnorm_wordpool_less_exclusions.txt	LTP251	ltpFR	9	7	0	SHOWER	1296	n/a	1	n/a	0	0	0	0	0.5869140625	0.422607421875	lower	../fonts/amplitud.ttf
1258402	START	n/a	LTP251	ltpFR	9	n/a	n/a	n/a	n/a	n/a	n/a	n/a	n/a	n/a	n/a	n/a	n/a	n/a	n/a	n/a
1259454	PROB	n/a	LTP251	ltpFR	9	n/a	n/a	n/a	n/a	n/a	n/a	14	5	2	7	n/a	n/a	n/a	n/a	n/a
1261041	PROB	n/a	LTP251	ltpFR	9	n/a	n/a	n/a	n/a	n/a	n/a	24	8	9	9	n/a	n/a	n/a	n/a	n/a
1263601	PROB	n/a	LTP251	ltpFR	9	n/a	n/a	n/a	n/a	n/a	n/a	22	8	5	9	n/a	n/a	n/a	n/a	n/a
1266378	PROB	n/a	LTP251	ltpFR	9	n/a	n/a	n/a	n/a	n/a	n/a	12	6	5	1	n/a	n/a	n/a	n/a	n/a
1267917	PROB	n/a	LTP251	ltpFR	9	n/a	n/a	n/a	n/a	n/a	n/a	10	1	4	5	n/a	n/a	n/a	n/a	n/a
1269455	PROB	n/a	LTP251	ltpFR	9	n/a	n/a	n/a	n/a	n/a	n/a	25	9	7	9	n/a	n/a	n/a	n/a	n/a
1272772	PROB	n/a	LTP251	ltpFR	9	n/a	n/a	n/a	n/a	n/a	n/a	10	4	5	1	n/a	n/a	n/a	n/a	n/a
1273902	STOP	n/a	LTP251	ltpFR	9	n/a	n/a	n/a	n/a	n/a	n/a	n/a	n/a	n/a	n/a	n/a	n/a	n/a	n/a	n/a
1275448	WORD	wordpools/wasnorm_wordpool_less_exclusions.txt	LTP251	ltpFR	9	7	0	TOWEL	1489	n/a	0	n/a	0	0	0	0	0.5869140625	0.422607421875	lower	../fonts/amplitud.ttf
1278460	START	n/a	LTP251	ltpFR	9	n/a	n/a	n/a	n/a	n/a	n/a	n/a	n/a	n/a	n/a	n/a	n/a	n/a	n/a	n/a
1279611	PROB	n/a	LTP251	ltpFR	9	n/a	n/a	n/a	n/a	n/a	n/a	13	5	3	5	n/a	n/a	n/a	n/a	n/a
1281385	PROB	n/a	LTP251	ltpFR	9	n/a	n/a	n/a	n/a	n/a	n/a	10	3	4	4	n/a	n/a	n/a	n/a	n/a
1283010	PROB	n/a	LTP251	ltpFR	9	n/a	n/a	n/a	n/a	n/a	n/a	13	3	2	8	n/a	n/a	n/a	n/a	n/a
1284915	PROB	n/a	LTP251	ltpFR	9	n/a	n/a	n/a	n/a	n/a	n/a	7	3	1	3	n/a	n/a	n/a	n/a	n/a
1286842	PROB	n/a	LTP251	ltpFR	9	n/a	n/a	n/a	n/a	n/a	n/a	11	1	3	7	n/a	n/a	n/a	n/a	n/a
1288060	PROB	n/a	LTP251	ltpFR	9	n/a	n/a	n/a	n/a	n/a	n/a	12	2	4	6	n/a	n/a	n/a	n/a	n/a
1289652	PROB	n/a	LTP251	ltpFR	9	n/a	n/a	n/a	n/a	n/a	n/a	9	4	4	1	n/a	n/a	n/a	n/a	n/a
1291038	PROB	n/a	LTP251	ltpFR	9	n/a	n/a	n/a	n/a	n/a	n/a	15	7	6	2	n/a	n/a	n/a	n/a	n/a
1294459	STOP	n/a	LTP251	ltpFR	9	n/a	n/a	n/a	n/a	n/a	n/a	n/a	n/a	n/a	n/a	n/a	n/a	n/a	n/a	n/a
1295641	WORD	wordpools/wasnorm_wordpool_less_exclusions.txt	LTP251	ltpFR	9	7	0	PLUM	1090	n/a	0	n/a	0	0	0	0	0.5869140625	0.422607421875	lower	../fonts/amplitud.ttf
1298653	START	n/a	LTP251	ltpFR	9	n/a	n/a	n/a	n/a	n/a	n/a	n/a	n/a	n/a	n/a	n/a	n/a	n/a	n/a	n/a
1299790	PROB	n/a	LTP251	ltpFR	9	n/a	n/a	n/a	n/a	n/a	n/a	12	2	9	1	n/a	n/a	n/a	n/a	n/a
1303016	PROB	n/a	LTP251	ltpFR	9	n/a	n/a	n/a	n/a	n/a	n/a	15	7	4	4	n/a	n/a	n/a	n/a	n/a
1304609	PROB	n/a	LTP251	ltpFR	9	n/a	n/a	n/a	n/a	n/a	n/a	13	2	8	3	n/a	n/a	n/a	n/a	n/a
1306345	PROB	n/a	LTP251	ltpFR	9	n/a	n/a	n/a	n/a	n/a	n/a	21	6	6	7	n/a	n/a	n/a	n/a	n/a
1307955	PROB	n/a	LTP251	ltpFR	9	n/a	n/a	n/a	n/a	n/a	n/a	15	4	4	7	n/a	n/a	n/a	n/a	n/a
1310227	PROB	n/a	LTP251	ltpFR	9	n/a	n/a	n/a	n/a	n/a	n/a	25	6	3	6	n/a	n/a	n/a	n/a	n/a
1312134	PROB	n/a	LTP251	ltpFR	9	n/a	n/a	n/a	n/a	n/a	n/a	17	8	4	3	n/a	n/a	n/a	n/a	n/a
1313935	STOP	n/a	LTP251	ltpFR	9	n/a	n/a	n/a	n/a	n/a	n/a	n/a	n/a	n/a	n/a	n/a	n/a	n/a	n/a	n/a
1315734	WORD	wordpools/wasnorm_wordpool_less_exclusions.txt	LTP251	ltpFR	9	7	0	CABINET	212	n/a	1	n/a	0	0	0	0	0.5869140625	0.422607421875	lower	../fonts/amplitud.ttf
1318746	START	n/a	LTP251	ltpFR	9	n/a	n/a	n/a	n/a	n/a	n/a	n/a	n/a	n/a	n/a	n/a	n/a	n/a	n/a	n/a
1319715	PROB	n/a	LTP251	ltpFR	9	n/a	n/a	n/a	n/a	n/a	n/a	11	5	4	2	n/a	n/a	n/a	n/a	n/a
1321034	PROB	n/a	LTP251	ltpFR	9	n/a	n/a	n/a	n/a	n/a	n/a	23	9	7	7	n/a	n/a	n/a	n/a	n/a
1325183	PROB	n/a	LTP251	ltpFR	9	n/a	n/a	n/a	n/a	n/a	n/a	15	9	1	5	n/a	n/a	n/a	n/a	n/a
1327006	PROB	n/a	LTP251	ltpFR	9	n/a	n/a	n/a	n/a	n/a	n/a	10	4	1	5	n/a	n/a	n/a	n/a	n/a
1328478	PROB	n/a	LTP251	ltpFR	9	n/a	n/a	n/a	n/a	n/a	n/a	10	2	5	3	n/a	n/a	n/a	n/a	n/a
1330269	PROB	n/a	LTP251	ltpFR	9	n/a	n/a	n/a	n/a	n/a	n/a	22	4	9	9	n/a	n/a	n/a	n/a	n/a
1334746	STOP	n/a	LTP251	ltpFR	9	n/a	n/a	n/a	n/a	n/a	n/a	n/a	n/a	n/a	n/a	n/a	n/a	n/a	n/a	n/a
1335826	WORD	wordpools/wasnorm_wordpool_less_exclusions.txt	LTP251	ltpFR	9	7	0	COOKIE	374	n/a	0	n/a	0	0	0	0	0.5869140625	0.422607421875	lower	../fonts/amplitud.ttf
1338838	START	n/a	LTP251	ltpFR	9	n/a	n/a	n/a	n/a	n/a	n/a	n/a	n/a	n/a	n/a	n/a	n/a	n/a	n/a	n/a
1339758	PROB	n/a	LTP251	ltpFR	9	n/a	n/a	n/a	n/a	n/a	n/a	20	8	6	6	n/a	n/a	n/a	n/a	n/a
1341113	PROB	n/a	LTP251	ltpFR	9	n/a	n/a	n/a	n/a	n/a	n/a	15	9	2	4	n/a	n/a	n/a	n/a	n/a
1343050	PROB	n/a	LTP251	ltpFR	9	n/a	n/a	n/a	n/a	n/a	n/a	20	2	9	9	n/a	n/a	n/a	n/a	n/a
1345091	PROB	n/a	LTP251	ltpFR	9	n/a	n/a	n/a	n/a	n/a	n/a	19	9	6	4	n/a	n/a	n/a	n/a	n/a
1346614	PROB	n/a	LTP251	ltpFR	9	n/a	n/a	n/a	n/a	n/a	n/a	21	9	3	9	n/a	n/a	n/a	n/a	n/a
1348421	PROB	n/a	LTP251	ltpFR	9	n/a	n/a	n/a	n/a	n/a	n/a	24	9	7	8	n/a	n/a	n/a	n/a	n/a
1350796	PROB	n/a	LTP251	ltpFR	9	n/a	n/a	n/a	n/a	n/a	n/a	15	8	4	3	n/a	n/a	n/a	n/a	n/a
1352288	PROB	n/a	LTP251	ltpFR	9	n/a	n/a	n/a	n/a	n/a	n/a	9	1	5	3	n/a	n/a	n/a	n/a	n/a
1354095	STOP	n/a	LTP251	ltpFR	9	n/a	n/a	n/a	n/a	n/a	n/a	n/a	n/a	n/a	n/a	n/a	n/a	n/a	n/a	n/a
1355885	WORD	wordpools/wasnorm_wordpool_less_exclusions.txt	LTP251	ltpFR	9	7	0	PUDDING	1139	n/a	1	n/a	0	0	0	0	0.5869140625	0.422607421875	lower	../fonts/amplitud.ttf
1358897	START	n/a	LTP251	ltpFR	9	n/a	n/a	n/a	n/a	n/a	n/a	n/a	n/a	n/a	n/a	n/a	n/a	n/a	n/a	n/a
1360001	PROB	n/a	LTP251	ltpFR	9	n/a	n/a	n/a	n/a	n/a	n/a	7	2	2	3	n/a	n/a	n/a	n/a	n/a
1362791	PROB	n/a	LTP251	ltpFR	9	n/a	n/a	n/a	n/a	n/a	n/a	15	1	5	9	n/a	n/a	n/a	n/a	n/a
1365100	PROB	n/a	LTP251	ltpFR	9	n/a	n/a	n/a	n/a	n/a	n/a	9	2	5	2	n/a	n/a	n/a	n/a	n/a
1366589	PROB	n/a	LTP251	ltpFR	9	n/a	n/a	n/a	n/a	n/a	n/a	10	1	2	7	n/a	n/a	n/a	n/a	n/a
1367810	PROB	n/a	LTP251	ltpFR	9	n/a	n/a	n/a	n/a	n/a	n/a	9	1	1	7	n/a	n/a	n/a	n/a	n/a
1369018	PROB	n/a	LTP251	ltpFR	9	n/a	n/a	n/a	n/a	n/a	n/a	13	4	7	2	n/a	n/a	n/a	n/a	n/a
1372130	PROB	n/a	LTP251	ltpFR	9	n/a	n/a	n/a	n/a	n/a	n/a	18	5	5	8	n/a	n/a	n/a	n/a	n/a
1373919	STOP	n/a	LTP251	ltpFR	9	n/a	n/a	n/a	n/a	n/a	n/a	n/a	n/a	n/a	n/a	n/a	n/a	n/a	n/a	n/a
1375961	WORD	wordpools/wasnorm_wordpool_less_exclusions.txt	LTP251	ltpFR	9	7	0	CHEMICAL	291	n/a	1	n/a	0	0	0	0	0.5869140625	0.422607421875	lower	../fonts/amplitud.ttf
1378973	START	n/a	LTP251	ltpFR	9	n/a	n/a	n/a	n/a	n/a	n/a	n/a	n/a	n/a	n/a	n/a	n/a	n/a	n/a	n/a
1380093	PROB	n/a	LTP251	ltpFR	9	n/a	n/a	n/a	n/a	n/a	n/a	15	5	3	6	n/a	n/a	n/a	n/a	n/a
1382399	PROB	n/a	LTP251	ltpFR	9	n/a	n/a	n/a	n/a	n/a	n/a	13	4	1	8	n/a	n/a	n/a	n/a	n/a
1384205	PROB	n/a	LTP251	ltpFR	9	n/a	n/a	n/a	n/a	n/a	n/a	14	2	9	3	n/a	n/a	n/a	n/a	n/a
1388538	PROB	n/a	LTP251	ltpFR	9	n/a	n/a	n/a	n/a	n/a	n/a	24	8	7	9	n/a	n/a	n/a	n/a	n/a
1391985	PROB	n/a	LTP251	ltpFR	9	n/a	n/a	n/a	n/a	n/a	n/a	10	3	2	5	n/a	n/a	n/a	n/a	n/a
1394973	STOP	n/a	LTP251	ltpFR	9	n/a	n/a	n/a	n/a	n/a	n/a	n/a	n/a	n/a	n/a	n/a	n/a	n/a	n/a	n/a
1396020	WORD	wordpools/wasnorm_wordpool_less_exclusions.txt	LTP251	ltpFR	9	7	0	ALBUM	14	n/a	0	n/a	0	0	0	0	0.5869140625	0.422607421875	lower	../fonts/amplitud.ttf
1399032	START	n/a	LTP251	ltpFR	9	n/a	n/a	n/a	n/a	n/a	n/a	n/a	n/a	n/a	n/a	n/a	n/a	n/a	n/a	n/a
1399901	PROB	n/a	LTP251	ltpFR	9	n/a	n/a	n/a	n/a	n/a	n/a	1	5	1	7	n/a	n/a	n/a	n/a	n/a
1401337	PROB	n/a	LTP251	ltpFR	9	n/a	n/a	n/a	n/a	n/a	n/a	14	2	7	5	n/a	n/a	n/a	n/a	n/a
1404231	PROB	n/a	LTP251	ltpFR	9	n/a	n/a	n/a	n/a	n/a	n/a	12	2	1	9	n/a	n/a	n/a	n/a	n/a
1405653	PROB	n/a	LTP251	ltpFR	9	n/a	n/a	n/a	n/a	n/a	n/a	19	3	7	9	n/a	n/a	n/a	n/a	n/a
1406958	PROB	n/a	LTP251	ltpFR	9	n/a	n/a	n/a	n/a	n/a	n/a	21	7	8	6	n/a	n/a	n/a	n/a	n/a
1408698	PROB	n/a	LTP251	ltpFR	9	n/a	n/a	n/a	n/a	n/a	n/a	14	2	3	9	n/a	n/a	n/a	n/a	n/a
1410705	PROB	n/a	LTP251	ltpFR	9	n/a	n/a	n/a	n/a	n/a	n/a	13	3	3	7	n/a	n/a	n/a	n/a	n/a
1412111	PROB	n/a	LTP251	ltpFR	9	n/a	n/a	n/a	n/a	n/a	n/a	17	3	5	9	n/a	n/a	n/a	n/a	n/a
1413927	STOP	n/a	LTP251	ltpFR	9	n/a	n/a	n/a	n/a	n/a	n/a	n/a	n/a	n/a	n/a	n/a	n/a	n/a	n/a	n/a
1416012	WORD	wordpools/wasnorm_wordpool_less_exclusions.txt	LTP251	ltpFR	9	7	0	HAYSTACK	694	n/a	1	n/a	0	0	0	0	0.5869140625	0.422607421875	lower	../fonts/amplitud.ttf
1419024	START	n/a	LTP251	ltpFR	9	n/a	n/a	n/a	n/a	n/a	n/a	n/a	n/a	n/a	n/a	n/a	n/a	n/a	n/a	n/a
1419893	PROB	n/a	LTP251	ltpFR	9	n/a	n/a	n/a	n/a	n/a	n/a	13	7	1	5	n/a	n/a	n/a	n/a	n/a
1421566	PROB	n/a	LTP251	ltpFR	9	n/a	n/a	n/a	n/a	n/a	n/a	10	4	5	1	n/a	n/a	n/a	n/a	n/a
1422851	PROB	n/a	LTP251	ltpFR	9	n/a	n/a	n/a	n/a	n/a	n/a	6	4	1	1	n/a	n/a	n/a	n/a	n/a
1424439	PROB	n/a	LTP251	ltpFR	9	n/a	n/a	n/a	n/a	n/a	n/a	15	7	7	4	n/a	n/a	n/a	n/a	n/a
1427003	PROB	n/a	LTP251	ltpFR	9	n/a	n/a	n/a	n/a	n/a	n/a	11	6	3	2	n/a	n/a	n/a	n/a	n/a
1429008	PROB	n/a	LTP251	ltpFR	9	n/a	n/a	n/a	n/a	n/a	n/a	13	1	7	5	n/a	n/a	n/a	n/a	n/a
1430383	PROB	n/a	LTP251	ltpFR	9	n/a	n/a	n/a	n/a	n/a	n/a	23	9	7	7	n/a	n/a	n/a	n/a	n/a
1434143	STOP	n/a	LTP251	ltpFR	9	n/a	n/a	n/a	n/a	n/a	n/a	n/a	n/a	n/a	n/a	n/a	n/a	n/a	n/a	n/a
1435987	WORD	wordpools/wasnorm_wordpool_less_exclusions.txt	LTP251	ltpFR	9	7	0	WINGS	1614	n/a	0	n/a	0	0	0	0	0.5869140625	0.422607421875	lower	../fonts/amplitud.ttf
1438999	START	n/a	LTP251	ltpFR	9	n/a	n/a	n/a	n/a	n/a	n/a	n/a	n/a	n/a	n/a	n/a	n/a	n/a	n/a	n/a
1439818	PROB	n/a	LTP251	ltpFR	9	n/a	n/a	n/a	n/a	n/a	n/a	14	3	3	8	n/a	n/a	n/a	n/a	n/a
1441237	PROB	n/a	LTP251	ltpFR	9	n/a	n/a	n/a	n/a	n/a	n/a	23	9	9	5	n/a	n/a	n/a	n/a	n/a
1443448	PROB	n/a	LTP251	ltpFR	9	n/a	n/a	n/a	n/a	n/a	n/a	14	4	5	8	n/a	n/a	n/a	n/a	n/a
1445085	PROB	n/a	LTP251	ltpFR	9	n/a	n/a	n/a	n/a	n/a	n/a	19	6	5	8	n/a	n/a	n/a	n/a	n/a
1448330	PROB	n/a	LTP251	ltpFR	9	n/a	n/a	n/a	n/a	n/a	n/a	5	1	3	2	n/a	n/a	n/a	n/a	n/a
1449635	PROB	n/a	LTP251	ltpFR	9	n/a	n/a	n/a	n/a	n/a	n/a	5	2	1	2	n/a	n/a	n/a	n/a	n/a
1451345	PROB	n/a	LTP251	ltpFR	9	n/a	n/a	n/a	n/a	n/a	n/a	10	1	6	3	n/a	n/a	n/a	n/a	n/a
1453663	STOP	n/a	LTP251	ltpFR	9	n/a	n/a	n/a	n/a	n/a	n/a	n/a	n/a	n/a	n/a	n/a	n/a	n/a	n/a	n/a
1456146	WORD	wordpools/wasnorm_wordpool_less_exclusions.txt	LTP251	ltpFR	9	7	0	KITE	779	n/a	1	n/a	0	0	0	0	0.5869140625	0.422607421875	lower	../fonts/amplitud.ttf
1459159	START	n/a	LTP251	ltpFR	9	n/a	n/a	n/a	n/a	n/a	n/a	n/a	n/a	n/a	n/a	n/a	n/a	n/a	n/a	n/a
1460245	PROB	n/a	LTP251	ltpFR	9	n/a	n/a	n/a	n/a	n/a	n/a	17	9	2	6	n/a	n/a	n/a	n/a	n/a
1462634	PROB	n/a	LTP251	ltpFR	9	n/a	n/a	n/a	n/a	n/a	n/a	24	9	7	8	n/a	n/a	n/a	n/a	n/a
1465880	PROB	n/a	LTP251	ltpFR	9	n/a	n/a	n/a	n/a	n/a	n/a	18	6	5	7	n/a	n/a	n/a	n/a	n/a
1467737	PROB	n/a	LTP251	ltpFR	9	n/a	n/a	n/a	n/a	n/a	n/a	20	9	4	7	n/a	n/a	n/a	n/a	n/a
1470179	PROB	n/a	LTP251	ltpFR	9	n/a	n/a	n/a	n/a	n/a	n/a	9	3	5	1	n/a	n/a	n/a	n/a	n/a
1471538	PROB	n/a	LTP251	ltpFR	9	n/a	n/a	n/a	n/a	n/a	n/a	15	8	6	1	n/a	n/a	n/a	n/a	n/a
1475158	STOP	n/a	LTP251	ltpFR	9	n/a	n/a	n/a	n/a	n/a	n/a	n/a	n/a	n/a	n/a	n/a	n/a	n/a	n/a	n/a
1476319	WORD	wordpools/wasnorm_wordpool_less_exclusions.txt	LTP251	ltpFR	9	7	0	FENCE	560	n/a	1	n/a	0	0	0	0	0.5869140625	0.422607421875	lower	../fonts/amplitud.ttf
1479334	START	n/a	LTP251	ltpFR	9	n/a	n/a	n/a	n/a	n/a	n/a	n/a	n/a	n/a	n/a	n/a	n/a	n/a	n/a	n/a
1480502	PROB	n/a	LTP251	ltpFR	9	n/a	n/a	n/a	n/a	n/a	n/a	22	7	8	7	n/a	n/a	n/a	n/a	n/a
1483115	PROB	n/a	LTP251	ltpFR	9	n/a	n/a	n/a	n/a	n/a	n/a	11	2	4	5	n/a	n/a	n/a	n/a	n/a
1484482	PROB	n/a	LTP251	ltpFR	9	n/a	n/a	n/a	n/a	n/a	n/a	15	4	2	9	n/a	n/a	n/a	n/a	n/a
1486273	PROB	n/a	LTP251	ltpFR	9	n/a	n/a	n/a	n/a	n/a	n/a	14	5	8	1	n/a	n/a	n/a	n/a	n/a
1487846	PROB	n/a	LTP251	ltpFR	9	n/a	n/a	n/a	n/a	n/a	n/a	14	6	7	1	n/a	n/a	n/a	n/a	n/a
1489402	PROB	n/a	LTP251	ltpFR	9	n/a	n/a	n/a	n/a	n/a	n/a	11	5	3	6	n/a	n/a	n/a	n/a	n/a
1490941	PROB	n/a	LTP251	ltpFR	9	n/a	n/a	n/a	n/a	n/a	n/a	8	3	2	3	n/a	n/a	n/a	n/a	n/a
1493735	PROB	n/a	LTP251	ltpFR	9	n/a	n/a	n/a	n/a	n/a	n/a	8	5	2	3	n/a	n/a	n/a	n/a	n/a
1494703	STOP	n/a	LTP251	ltpFR	9	n/a	n/a	n/a	n/a	n/a	n/a	n/a	n/a	n/a	n/a	n/a	n/a	n/a	n/a	n/a
1496264	WORD	wordpools/wasnorm_wordpool_less_exclusions.txt	LTP251	ltpFR	9	7	0	FRIAR	605	n/a	1	n/a	0	0	0	0	0.5869140625	0.422607421875	lower	../fonts/amplitud.ttf
1499276	START	n/a	LTP251	ltpFR	9	n/a	n/a	n/a	n/a	n/a	n/a	n/a	n/a	n/a	n/a	n/a	n/a	n/a	n/a	n/a
1500279	PROB	n/a	LTP251	ltpFR	9	n/a	n/a	n/a	n/a	n/a	n/a	9	4	4	1	n/a	n/a	n/a	n/a	n/a
1501380	PROB	n/a	LTP251	ltpFR	9	n/a	n/a	n/a	n/a	n/a	n/a	12	7	3	2	n/a	n/a	n/a	n/a	n/a
1502585	PROB	n/a	LTP251	ltpFR	9	n/a	n/a	n/a	n/a	n/a	n/a	8	2	4	3	n/a	n/a	n/a	n/a	n/a
1504509	PROB	n/a	LTP251	ltpFR	9	n/a	n/a	n/a	n/a	n/a	n/a	17	4	9	4	n/a	n/a	n/a	n/a	n/a
1507202	PROB	n/a	LTP251	ltpFR	9	n/a	n/a	n/a	n/a	n/a	n/a	18	7	6	5	n/a	n/a	n/a	n/a	n/a
1509009	PROB	n/a	LTP251	ltpFR	9	n/a	n/a	n/a	n/a	n/a	n/a	18	6	6	6	n/a	n/a	n/a	n/a	n/a
1510230	PROB	n/a	LTP251	ltpFR	9	n/a	n/a	n/a	n/a	n/a	n/a	13	8	3	2	n/a	n/a	n/a	n/a	n/a
1513108	PROB	n/a	LTP251	ltpFR	9	n/a	n/a	n/a	n/a	n/a	n/a	9	1	1	7	n/a	n/a	n/a	n/a	n/a
1514159	STOP	n/a	LTP251	ltpFR	9	n/a	n/a	n/a	n/a	n/a	n/a	n/a	n/a	n/a	n/a	n/a	n/a	n/a	n/a	n/a
1516206	WORD	wordpools/wasnorm_wordpool_less_exclusions.txt	LTP251	ltpFR	9	7	0	SPOOL	1356	n/a	1	n/a	0	0	0	0	0.5869140625	0.422607421875	lower	../fonts/amplitud.ttf
1519218	START	n/a	LTP251	ltpFR	9	n/a	n/a	n/a	n/a	n/a	n/a	n/a	n/a	n/a	n/a	n/a	n/a	n/a	n/a	n/a
1520204	PROB	n/a	LTP251	ltpFR	9	n/a	n/a	n/a	n/a	n/a	n/a	13	4	8	1	n/a	n/a	n/a	n/a	n/a
1521908	PROB	n/a	LTP251	ltpFR	9	n/a	n/a	n/a	n/a	n/a	n/a	18	9	5	4	n/a	n/a	n/a	n/a	n/a
1524537	PROB	n/a	LTP251	ltpFR	9	n/a	n/a	n/a	n/a	n/a	n/a	18	8	7	3	n/a	n/a	n/a	n/a	n/a
1526659	PROB	n/a	LTP251	ltpFR	9	n/a	n/a	n/a	n/a	n/a	n/a	18	2	8	8	n/a	n/a	n/a	n/a	n/a
1529269	PROB	n/a	LTP251	ltpFR	9	n/a	n/a	n/a	n/a	n/a	n/a	20	8	7	5	n/a	n/a	n/a	n/a	n/a
1531025	PROB	n/a	LTP251	ltpFR	9	n/a	n/a	n/a	n/a	n/a	n/a	18	7	9	2	n/a	n/a	n/a	n/a	n/a
1535218	STOP	n/a	LTP251	ltpFR	9	n/a	n/a	n/a	n/a	n/a	n/a	n/a	n/a	n/a	n/a	n/a	n/a	n/a	n/a	n/a
1536412	WORD	wordpools/wasnorm_wordpool_less_exclusions.txt	LTP251	ltpFR	9	7	0	SKETCH	1315	n/a	0	n/a	0	0	0	0	0.5869140625	0.422607421875	lower	../fonts/amplitud.ttf
1539428	START	n/a	LTP251	ltpFR	9	n/a	n/a	n/a	n/a	n/a	n/a	n/a	n/a	n/a	n/a	n/a	n/a	n/a	n/a	n/a
1540498	PROB	n/a	LTP251	ltpFR	9	n/a	n/a	n/a	n/a	n/a	n/a	22	8	9	5	n/a	n/a	n/a	n/a	n/a
1543338	PROB	n/a	LTP251	ltpFR	9	n/a	n/a	n/a	n/a	n/a	n/a	21	8	3	9	n/a	n/a	n/a	n/a	n/a
1546534	PROB	n/a	LTP251	ltpFR	9	n/a	n/a	n/a	n/a	n/a	n/a	14	6	5	3	n/a	n/a	n/a	n/a	n/a
1547959	PROB	n/a	LTP251	ltpFR	9	n/a	n/a	n/a	n/a	n/a	n/a	5	2	2	1	n/a	n/a	n/a	n/a	n/a
1549060	PROB	n/a	LTP251	ltpFR	9	n/a	n/a	n/a	n/a	n/a	n/a	15	9	1	5	n/a	n/a	n/a	n/a	n/a
1551285	PROB	n/a	LTP251	ltpFR	9	n/a	n/a	n/a	n/a	n/a	n/a	9	5	2	4	n/a	n/a	n/a	n/a	n/a
1552861	PROB	n/a	LTP251	ltpFR	9	n/a	n/a	n/a	n/a	n/a	n/a	7	3	3	4	n/a	n/a	n/a	n/a	n/a
1554711	STOP	n/a	LTP251	ltpFR	9	n/a	n/a	n/a	n/a	n/a	n/a	n/a	n/a	n/a	n/a	n/a	n/a	n/a	n/a	n/a
1556287	WORD	wordpools/wasnorm_wordpool_less_exclusions.txt	LTP251	ltpFR	9	7	0	LIGHTER	819	n/a	0	n/a	0	0	0	0	0.5869140625	0.422607421875	lower	../fonts/amplitud.ttf
1559302	START	n/a	LTP251	ltpFR	9	n/a	n/a	n/a	n/a	n/a	n/a	n/a	n/a	n/a	n/a	n/a	n/a	n/a	n/a	n/a
1560406	PROB	n/a	LTP251	ltpFR	9	n/a	n/a	n/a	n/a	n/a	n/a	9	1	2	6	n/a	n/a	n/a	n/a	n/a
1561708	PROB	n/a	LTP251	ltpFR	9	n/a	n/a	n/a	n/a	n/a	n/a	14	3	6	5	n/a	n/a	n/a	n/a	n/a
1563096	PROB	n/a	LTP251	ltpFR	9	n/a	n/a	n/a	n/a	n/a	n/a	11	5	3	3	n/a	n/a	n/a	n/a	n/a
1565773	PROB	n/a	LTP251	ltpFR	9	n/a	n/a	n/a	n/a	n/a	n/a	13	9	1	3	n/a	n/a	n/a	n/a	n/a
1568018	PROB	n/a	LTP251	ltpFR	9	n/a	n/a	n/a	n/a	n/a	n/a	18	6	9	3	n/a	n/a	n/a	n/a	n/a
1570641	PROB	n/a	LTP251	ltpFR	9	n/a	n/a	n/a	n/a	n/a	n/a	12	7	4	2	n/a	n/a	n/a	n/a	n/a
1572850	PROB	n/a	LTP251	ltpFR	9	n/a	n/a	n/a	n/a	n/a	n/a	15	8	2	5	n/a	n/a	n/a	n/a	n/a
1574367	STOP	n/a	LTP251	ltpFR	9	n/a	n/a	n/a	n/a	n/a	n/a	n/a	n/a	n/a	n/a	n/a	n/a	n/a	n/a	n/a
1577120	REC_START	n/a	LTP251	ltpFR	9	7	n/a	n/a	n/a	n/a	n/a	n/a	0	0	0	n/a	n/a	n/a	n/a	n/a
1577868	REC_WORD	wordpools/wasnorm_wordpool_less_exclusions.txt	LTP251	ltpFR	9	7	0	ALBUM	14	n/a	0	n/a	0	0	0	n/a	n/a	n/a	n/a	n/a
1578616	REC_WORD	wordpools/wasnorm_wordpool_less_exclusions.txt	LTP251	ltpFR	9	7	0	TOWEL	1489	n/a	0	n/a	0	0	0	n/a	n/a	n/a	n/a	n/a
1579370	REC_WORD	wordpools/wasnorm_wordpool_less_exclusions.txt	LTP251	ltpFR	9	7	0	WINGS	1614	n/a	0	n/a	0	0	0	n/a	n/a	n/a	n/a	n/a
1580263	REC_WORD	wordpools/wasnorm_wordpool_less_exclusions.txt	LTP251	ltpFR	9	7	0	SPOOL	1356	n/a	1	n/a	0	0	0	n/a	n/a	n/a	n/a	n/a
1581171	REC_WORD	wordpools/wasnorm_wordpool_less_exclusions.txt	LTP251	ltpFR	9	7	0	SKETCH	1315	n/a	0	n/a	0	0	0	n/a	n/a	n/a	n/a	n/a
1582088	REC_WORD	wordpools/wasnorm_wordpool_less_exclusions.txt	LTP251	ltpFR	9	7	0	FRIAR	605	n/a	1	n/a	0	0	0	n/a	n/a	n/a	n/a	n/a
1585800	REC_WORD	wordpools/wasnorm_wordpool_less_exclusions.txt	LTP251	ltpFR	9	7	0	LIGHTER	819	n/a	0	n/a	0	0	0	n/a	n/a	n/a	n/a	n/a
1655715	WORD	wordpools/wasnorm_wordpool_less_exclusions.txt	LTP251	ltpFR	9	8	0	BUTLER	204	n/a	1	n/a	0	0	0	0	0.5869140625	0.422607421875	lower	../fonts/amplitud.ttf
1659694	WORD	wordpools/wasnorm_wordpool_less_exclusions.txt	LTP251	ltpFR	9	8	0	COLT	349	n/a	1	n/a	0	0	0	0	0.5869140625	0.422607421875	lower	../fonts/amplitud.ttf
1663612	WORD	wordpools/wasnorm_wordpool_less_exclusions.txt	LTP251	ltpFR	9	8	1	PAWN	1030	n/a	0	n/a	0	0	0	1	0.412841796875	0.57763671875	upper	../fonts/zerothre.ttf
1667710	WORD	wordpools/wasnorm_wordpool_less_exclusions.txt	LTP251	ltpFR	9	8	1	DIAMOND	458	n/a	0	n/a	0	0	0	1	0.412841796875	0.57763671875	upper	../fonts/zerothre.ttf
1671843	WORD	wordpools/wasnorm_wordpool_less_exclusions.txt	LTP251	ltpFR	9	8	1	FRIEND	606	n/a	0	n/a	0	0	0	1	0.412841796875	0.57763671875	upper	../fonts/zerothre.ttf
1675674	WORD	wordpools/wasnorm_wordpool_less_exclusions.txt	LTP251	ltpFR	9	8	1	REGISTER	1180	n/a	0	n/a	0	0	0	1	0.412841796875	0.57763671875	upper	../fonts/zerothre.ttf
1679772	WORD	wordpools/wasnorm_wordpool_less_exclusions.txt	LTP251	ltpFR	9	8	1	CATTLE	261	n/a	0	n/a	0	0	0	1	0.412841796875	0.57763671875	upper	../fonts/zerothre.ttf
1683637	WORD	wordpools/wasnorm_wordpool_less_exclusions.txt	LTP251	ltpFR	9	8	0	ANIMAL	23	n/a	1	n/a	0	0	0	0	0.5869140625	0.422607421875	lower	../fonts/amplitud.ttf
1687766	WORD	wordpools/wasnorm_wordpool_less_exclusions.txt	LTP251	ltpFR	9	8	0	FLIPPER	580	n/a	1	n/a	0	0	0	0	0.5869140625	0.422607421875	lower	../fonts/amplitud.ttf
1691835	WORD	wordpools/wasnorm_wordpool_less_exclusions.txt	LTP251	ltpFR	9	8	1	MAMMAL	861	n/a	1	n/a	0	0	0	1	0.412841796875	0.57763671875	upper	../fonts/zerothre.ttf
1696047	WORD	wordpools/wasnorm_wordpool_less_exclusions.txt	LTP251	ltpFR	9	8	1	FOE	587	n/a	1	n/a	0	0	0	1	0.412841796875	0.57763671875	upper	../fonts/zerothre.ttf
1700233	WORD	wordpools/wasnorm_wordpool_less_exclusions.txt	LTP251	ltpFR	9	8	1	COBRA	336	n/a	1	n/a	0	0	0	1	0.412841796875	0.57763671875	upper	../fonts/zerothre.ttf
1704312	WORD	wordpools/wasnorm_wordpool_less_exclusions.txt	LTP251	ltpFR	9	8	0	TOILET	1475	n/a	1	n/a	0	0	0	0	0.5869140625	0.422607421875	lower	../fonts/amplitud.ttf
1708327	WORD	wordpools/wasnorm_wordpool_less_exclusions.txt	LTP251	ltpFR	9	8	0	EMERALD	528	n/a	0	n/a	0	0	0	0	0.5869140625	0.422607421875	lower	../fonts/amplitud.ttf
1712262	WORD	wordpools/wasnorm_wordpool_less_exclusions.txt	LTP251	ltpFR	9	8	0	CAULIFLOWER	262	n/a	0	n/a	0	0	0	0	0.5869140625	0.422607421875	lower	../fonts/amplitud.ttf
1716140	WORD	wordpools/wasnorm_wordpool_less_exclusions.txt	LTP251	ltpFR	9	8	0	WAGON	1578	n/a	1	n/a	0	0	0	0	0.5869140625	0.422607421875	lower	../fonts/amplitud.ttf
1721899	REC_START	n/a	LTP251	ltpFR	9	8	n/a	n/a	n/a	n/a	n/a	n/a	0	0	0	n/a	n/a	n/a	n/a	n/a
1723026	REC_WORD	wordpools/wasnorm_wordpool_less_exclusions.txt	LTP251	ltpFR	9	8	0	EMERALD	528	n/a	0	n/a	0	0	0	n/a	n/a	n/a	n/a	n/a
1723909	REC_WORD	wordpools/wasnorm_wordpool_less_exclusions.txt	LTP251	ltpFR	9	8	0	CAULIFLOWER	262	n/a	0	n/a	0	0	0	n/a	n/a	n/a	n/a	n/a
1725271	REC_WORD	wordpools/wasnorm_wordpool_less_exclusions.txt	LTP251	ltpFR	9	8	1	DIAMOND	458	n/a	0	n/a	0	0	0	n/a	n/a	n/a	n/a	n/a
1726803	REC_WORD	wordpools/wasnorm_wordpool_less_exclusions.txt	LTP251	ltpFR	9	8	1	FOE	587	n/a	1	n/a	0	0	0	n/a	n/a	n/a	n/a	n/a
1728284	REC_WORD	wordpools/wasnorm_wordpool_less_exclusions.txt	LTP251	ltpFR	9	8	1	CATTLE	261	n/a	0	n/a	0	0	0	n/a	n/a	n/a	n/a	n/a
1742961	REC_WORD	wordpools/wasnorm_wordpool_less_exclusions.txt	LTP251	ltpFR	9	8	0	COLT	349	n/a	1	n/a	0	0	0	n/a	n/a	n/a	n/a	n/a
1744517	REC_WORD	wordpools/wasnorm_wordpool_less_exclusions.txt	LTP251	ltpFR	9	8	0	ANIMAL	23	n/a	1	n/a	0	0	0	n/a	n/a	n/a	n/a	n/a
1752549	REC_WORD	wordpools/wasnorm_wordpool_less_exclusions.txt	LTP251	ltpFR	9	8	0	TOILET	1475	n/a	1	n/a	0	0	0	n/a	n/a	n/a	n/a	n/a
1754594	REC_WORD	wordpools/wasnorm_wordpool_less_exclusions.txt	LTP251	ltpFR	9	8	0	BUTLER	204	n/a	1	n/a	0	0	0	n/a	n/a	n/a	n/a	n/a
1799440	START	n/a	LTP251	ltpFR	9	n/a	n/a	n/a	n/a	n/a	n/a	n/a	n/a	n/a	n/a	n/a	n/a	n/a	n/a	n/a
1800946	PROB	n/a	LTP251	ltpFR	9	n/a	n/a	n/a	n/a	n/a	n/a	21	6	9	6	n/a	n/a	n/a	n/a	n/a
1804438	PROB	n/a	LTP251	ltpFR	9	n/a	n/a	n/a	n/a	n/a	n/a	17	6	4	7	n/a	n/a	n/a	n/a	n/a
1807440	STOP	n/a	LTP251	ltpFR	9	n/a	n/a	n/a	n/a	n/a	n/a	n/a	n/a	n/a	n/a	n/a	n/a	n/a	n/a	n/a
1808490	WORD	wordpools/wasnorm_wordpool_less_exclusions.txt	LTP251	ltpFR	9	9	1	MANAGER	863	n/a	0	n/a	0	0	0	1	0.412841796875	0.57763671875	upper	../fonts/zerothre.ttf
1811503	START	n/a	LTP251	ltpFR	9	n/a	n/a	n/a	n/a	n/a	n/a	n/a	n/a	n/a	n/a	n/a	n/a	n/a	n/a	n/a
1812389	PROB	n/a	LTP251	ltpFR	9	n/a	n/a	n/a	n/a	n/a	n/a	18	7	4	7	n/a	n/a	n/a	n/a	n/a
1814193	PROB	n/a	LTP251	ltpFR	9	n/a	n/a	n/a	n/a	n/a	n/a	13	2	2	9	n/a	n/a	n/a	n/a	n/a
1816170	PROB	n/a	LTP251	ltpFR	9	n/a	n/a	n/a	n/a	n/a	n/a	19	4	6	9	n/a	n/a	n/a	n/a	n/a
1817973	PROB	n/a	LTP251	ltpFR	9	n/a	n/a	n/a	n/a	n/a	n/a	18	2	6	6	n/a	n/a	n/a	n/a	n/a
1819263	STOP	n/a	LTP251	ltpFR	9	n/a	n/a	n/a	n/a	n/a	n/a	n/a	n/a	n/a	n/a	n/a	n/a	n/a	n/a	n/a
1820653	WORD	wordpools/wasnorm_wordpool_less_exclusions.txt	LTP251	ltpFR	9	9	1	ASSISTANT	48	n/a	1	n/a	0	0	0	1	0.412841796875	0.57763671875	upper	../fonts/zerothre.ttf
1823665	START	n/a	LTP251	ltpFR	9	n/a	n/a	n/a	n/a	n/a	n/a	n/a	n/a	n/a	n/a	n/a	n/a	n/a	n/a	n/a
1824735	PROB	n/a	LTP251	ltpFR	9	n/a	n/a	n/a	n/a	n/a	n/a	9	1	2	6	n/a	n/a	n/a	n/a	n/a
1827392	PROB	n/a	LTP251	ltpFR	9	n/a	n/a	n/a	n/a	n/a	n/a	24	9	8	8	n/a	n/a	n/a	n/a	n/a
1830799	STOP	n/a	LTP251	ltpFR	9	n/a	n/a	n/a	n/a	n/a	n/a	n/a	n/a	n/a	n/a	n/a	n/a	n/a	n/a	n/a
1832732	WORD	wordpools/wasnorm_wordpool_less_exclusions.txt	LTP251	ltpFR	9	9	1	CLARINET	317	n/a	0	n/a	0	0	0	1	0.412841796875	0.57763671875	upper	../fonts/zerothre.ttf
1835744	START	n/a	LTP251	ltpFR	9	n/a	n/a	n/a	n/a	n/a	n/a	n/a	n/a	n/a	n/a	n/a	n/a	n/a	n/a	n/a
1836881	PROB	n/a	LTP251	ltpFR	9	n/a	n/a	n/a	n/a	n/a	n/a	13	8	4	1	n/a	n/a	n/a	n/a	n/a
1838133	PROB	n/a	LTP251	ltpFR	9	n/a	n/a	n/a	n/a	n/a	n/a	9	5	2	3	n/a	n/a	n/a	n/a	n/a
1842391	STOP	n/a	LTP251	ltpFR	9	n/a	n/a	n/a	n/a	n/a	n/a	n/a	n/a	n/a	n/a	n/a	n/a	n/a	n/a	n/a
1844911	WORD	wordpools/wasnorm_wordpool_less_exclusions.txt	LTP251	ltpFR	9	9	1	BOYFRIEND	162	n/a	1	n/a	0	0	0	1	0.412841796875	0.57763671875	upper	../fonts/zerothre.ttf
1847923	START	n/a	LTP251	ltpFR	9	n/a	n/a	n/a	n/a	n/a	n/a	n/a	n/a	n/a	n/a	n/a	n/a	n/a	n/a	n/a
1848943	PROB	n/a	LTP251	ltpFR	9	n/a	n/a	n/a	n/a	n/a	n/a	15	5	4	6	n/a	n/a	n/a	n/a	n/a
1851215	PROB	n/a	LTP251	ltpFR	9	n/a	n/a	n/a	n/a	n/a	n/a	16	2	7	7	n/a	n/a	n/a	n/a	n/a
1853778	PROB	n/a	LTP251	ltpFR	9	n/a	n/a	n/a	n/a	n/a	n/a	11	4	5	2	n/a	n/a	n/a	n/a	n/a
1855079	STOP	n/a	LTP251	ltpFR	9	n/a	n/a	n/a	n/a	n/a	n/a	n/a	n/a	n/a	n/a	n/a	n/a	n/a	n/a	n/a
1856790	WORD	wordpools/wasnorm_wordpool_less_exclusions.txt	LTP251	ltpFR	9	9	0	CONTAINER	366	n/a	0	n/a	0	0	0	0	0.5869140625	0.422607421875	lower	../fonts/amplitud.ttf
1859801	START	n/a	LTP251	ltpFR	9	n/a	n/a	n/a	n/a	n/a	n/a	n/a	n/a	n/a	n/a	n/a	n/a	n/a	n/a	n/a
1860805	PROB	n/a	LTP251	ltpFR	9	n/a	n/a	n/a	n/a	n/a	n/a	19	8	7	4	n/a	n/a	n/a	n/a	n/a
1864131	PROB	n/a	LTP251	ltpFR	9	n/a	n/a	n/a	n/a	n/a	n/a	16	4	8	4	n/a	n/a	n/a	n/a	n/a
1866511	STOP	n/a	LTP251	ltpFR	9	n/a	n/a	n/a	n/a	n/a	n/a	n/a	n/a	n/a	n/a	n/a	n/a	n/a	n/a	n/a
1869002	WORD	wordpools/wasnorm_wordpool_less_exclusions.txt	LTP251	ltpFR	9	9	0	BOSS	152	n/a	1	n/a	0	0	0	0	0.5869140625	0.422607421875	lower	../fonts/amplitud.ttf
1872014	START	n/a	LTP251	ltpFR	9	n/a	n/a	n/a	n/a	n/a	n/a	n/a	n/a	n/a	n/a	n/a	n/a	n/a	n/a	n/a
1872884	PROB	n/a	LTP251	ltpFR	9	n/a	n/a	n/a	n/a	n/a	n/a	11	2	6	3	n/a	n/a	n/a	n/a	n/a
1874972	PROB	n/a	LTP251	ltpFR	9	n/a	n/a	n/a	n/a	n/a	n/a	12	3	4	5	n/a	n/a	n/a	n/a	n/a
1876544	PROB	n/a	LTP251	ltpFR	9	n/a	n/a	n/a	n/a	n/a	n/a	13	7	1	5	n/a	n/a	n/a	n/a	n/a
1878815	STOP	n/a	LTP251	ltpFR	9	n/a	n/a	n/a	n/a	n/a	n/a	n/a	n/a	n/a	n/a	n/a	n/a	n/a	n/a	n/a
1881064	WORD	wordpools/wasnorm_wordpool_less_exclusions.txt	LTP251	ltpFR	9	9	0	FELLOW	558	n/a	1	n/a	0	0	0	0	0.5869140625	0.422607421875	lower	../fonts/amplitud.ttf
1884077	START	n/a	LTP251	ltpFR	9	n/a	n/a	n/a	n/a	n/a	n/a	n/a	n/a	n/a	n/a	n/a	n/a	n/a	n/a	n/a
1885244	PROB	n/a	LTP251	ltpFR	9	n/a	n/a	n/a	n/a	n/a	n/a	21	9	6	6	n/a	n/a	n/a	n/a	n/a
1892077	STOP	n/a	LTP251	ltpFR	9	n/a	n/a	n/a	n/a	n/a	n/a	n/a	n/a	n/a	n/a	n/a	n/a	n/a	n/a	n/a
1892943	WORD	wordpools/wasnorm_wordpool_less_exclusions.txt	LTP251	ltpFR	9	9	1	COMMUNITY	356	n/a	1	n/a	0	0	0	1	0.412841796875	0.57763671875	upper	../fonts/zerothre.ttf
1895955	START	n/a	LTP251	ltpFR	9	n/a	n/a	n/a	n/a	n/a	n/a	n/a	n/a	n/a	n/a	n/a	n/a	n/a	n/a	n/a
1896991	PROB	n/a	LTP251	ltpFR	9	n/a	n/a	n/a	n/a	n/a	n/a	15	2	4	9	n/a	n/a	n/a	n/a	n/a
1898644	PROB	n/a	LTP251	ltpFR	9	n/a	n/a	n/a	n/a	n/a	n/a	21	9	9	3	n/a	n/a	n/a	n/a	n/a
1900688	PROB	n/a	LTP251	ltpFR	9	n/a	n/a	n/a	n/a	n/a	n/a	8	3	1	4	n/a	n/a	n/a	n/a	n/a
1902847	STOP	n/a	LTP251	ltpFR	9	n/a	n/a	n/a	n/a	n/a	n/a	n/a	n/a	n/a	n/a	n/a	n/a	n/a	n/a	n/a
1904804	WORD	wordpools/wasnorm_wordpool_less_exclusions.txt	LTP251	ltpFR	9	9	1	HEN	703	n/a	0	n/a	0	0	0	1	0.412841796875	0.57763671875	upper	../fonts/zerothre.ttf
1907816	START	n/a	LTP251	ltpFR	9	n/a	n/a	n/a	n/a	n/a	n/a	n/a	n/a	n/a	n/a	n/a	n/a	n/a	n/a	n/a
1908635	PROB	n/a	LTP251	ltpFR	9	n/a	n/a	n/a	n/a	n/a	n/a	12	2	7	3	n/a	n/a	n/a	n/a	n/a
1910057	PROB	n/a	LTP251	ltpFR	9	n/a	n/a	n/a	n/a	n/a	n/a	10	5	1	4	n/a	n/a	n/a	n/a	n/a
1912751	PROB	n/a	LTP251	ltpFR	9	n/a	n/a	n/a	n/a	n/a	n/a	18	4	8	5	n/a	n/a	n/a	n/a	n/a
1914287	STOP	n/a	LTP251	ltpFR	9	n/a	n/a	n/a	n/a	n/a	n/a	n/a	n/a	n/a	n/a	n/a	n/a	n/a	n/a	n/a
1916749	WORD	wordpools/wasnorm_wordpool_less_exclusions.txt	LTP251	ltpFR	9	9	1	RECORD	1176	n/a	0	n/a	0	0	0	1	0.412841796875	0.57763671875	upper	../fonts/zerothre.ttf
1919761	START	n/a	LTP251	ltpFR	9	n/a	n/a	n/a	n/a	n/a	n/a	n/a	n/a	n/a	n/a	n/a	n/a	n/a	n/a	n/a
1920761	PROB	n/a	LTP251	ltpFR	9	n/a	n/a	n/a	n/a	n/a	n/a	12	5	6	1	n/a	n/a	n/a	n/a	n/a
1923354	PROB	n/a	LTP251	ltpFR	9	n/a	n/a	n/a	n/a	n/a	n/a	19	9	7	3	n/a	n/a	n/a	n/a	n/a
1924876	PROB	n/a	LTP251	ltpFR	9	n/a	n/a	n/a	n/a	n/a	n/a	19	8	7	4	n/a	n/a	n/a	n/a	n/a
1926430	STOP	n/a	LTP251	ltpFR	9	n/a	n/a	n/a	n/a	n/a	n/a	n/a	n/a	n/a	n/a	n/a	n/a	n/a	n/a	n/a
1928811	WORD	wordpools/wasnorm_wordpool_less_exclusions.txt	LTP251	ltpFR	9	9	1	BANANA	77	n/a	0	n/a	0	0	0	1	0.412841796875	0.57763671875	upper	../fonts/zerothre.ttf
1931823	START	n/a	LTP251	ltpFR	9	n/a	n/a	n/a	n/a	n/a	n/a	n/a	n/a	n/a	n/a	n/a	n/a	n/a	n/a	n/a
1932759	PROB	n/a	LTP251	ltpFR	9	n/a	n/a	n/a	n/a	n/a	n/a	14	7	4	3	n/a	n/a	n/a	n/a	n/a
1934596	PROB	n/a	LTP251	ltpFR	9	n/a	n/a	n/a	n/a	n/a	n/a	17	4	4	9	n/a	n/a	n/a	n/a	n/a
1937059	PROB	n/a	LTP251	ltpFR	9	n/a	n/a	n/a	n/a	n/a	n/a	18	3	7	8	n/a	n/a	n/a	n/a	n/a
1938607	STOP	n/a	LTP251	ltpFR	9	n/a	n/a	n/a	n/a	n/a	n/a	n/a	n/a	n/a	n/a	n/a	n/a	n/a	n/a	n/a
1941007	WORD	wordpools/wasnorm_wordpool_less_exclusions.txt	LTP251	ltpFR	9	9	0	PEACH	1031	n/a	0	n/a	0	0	0	0	0.5869140625	0.422607421875	lower	../fonts/amplitud.ttf
1944019	START	n/a	LTP251	ltpFR	9	n/a	n/a	n/a	n/a	n/a	n/a	n/a	n/a	n/a	n/a	n/a	n/a	n/a	n/a	n/a
1944872	PROB	n/a	LTP251	ltpFR	9	n/a	n/a	n/a	n/a	n/a	n/a	14	7	1	6	n/a	n/a	n/a	n/a	n/a
1946473	PROB	n/a	LTP251	ltpFR	9	n/a	n/a	n/a	n/a	n/a	n/a	11	5	2	4	n/a	n/a	n/a	n/a	n/a
1947897	PROB	n/a	LTP251	ltpFR	9	n/a	n/a	n/a	n/a	n/a	n/a	15	8	1	6	n/a	n/a	n/a	n/a	n/a
1949468	PROB	n/a	LTP251	ltpFR	9	n/a	n/a	n/a	n/a	n/a	n/a	12	4	1	7	n/a	n/a	n/a	n/a	n/a
1950791	STOP	n/a	LTP251	ltpFR	9	n/a	n/a	n/a	n/a	n/a	n/a	n/a	n/a	n/a	n/a	n/a	n/a	n/a	n/a	n/a
1952935	WORD	wordpools/wasnorm_wordpool_less_exclusions.txt	LTP251	ltpFR	9	9	0	COLESLAW	344	n/a	0	n/a	0	0	0	0	0.5869140625	0.422607421875	lower	../fonts/amplitud.ttf
1955948	START	n/a	LTP251	ltpFR	9	n/a	n/a	n/a	n/a	n/a	n/a	n/a	n/a	n/a	n/a	n/a	n/a	n/a	n/a	n/a
1957051	PROB	n/a	LTP251	ltpFR	9	n/a	n/a	n/a	n/a	n/a	n/a	17	1	7	9	n/a	n/a	n/a	n/a	n/a
1960330	PROB	n/a	LTP251	ltpFR	9	n/a	n/a	n/a	n/a	n/a	n/a	22	7	8	7	n/a	n/a	n/a	n/a	n/a
1962631	STOP	n/a	LTP251	ltpFR	9	n/a	n/a	n/a	n/a	n/a	n/a	n/a	n/a	n/a	n/a	n/a	n/a	n/a	n/a	n/a
1964780	WORD	wordpools/wasnorm_wordpool_less_exclusions.txt	LTP251	ltpFR	9	9	0	SCALLOP	1242	n/a	0	n/a	0	0	0	0	0.5869140625	0.422607421875	lower	../fonts/amplitud.ttf
1967792	START	n/a	LTP251	ltpFR	9	n/a	n/a	n/a	n/a	n/a	n/a	n/a	n/a	n/a	n/a	n/a	n/a	n/a	n/a	n/a
1968962	PROB	n/a	LTP251	ltpFR	9	n/a	n/a	n/a	n/a	n/a	n/a	17	4	6	7	n/a	n/a	n/a	n/a	n/a
1971753	PROB	n/a	LTP251	ltpFR	9	n/a	n/a	n/a	n/a	n/a	n/a	17	4	7	6	n/a	n/a	n/a	n/a	n/a
1973426	PROB	n/a	LTP251	ltpFR	9	n/a	n/a	n/a	n/a	n/a	n/a	6	1	1	4	n/a	n/a	n/a	n/a	n/a
1974735	STOP	n/a	LTP251	ltpFR	9	n/a	n/a	n/a	n/a	n/a	n/a	n/a	n/a	n/a	n/a	n/a	n/a	n/a	n/a	n/a
1976708	WORD	wordpools/wasnorm_wordpool_less_exclusions.txt	LTP251	ltpFR	9	9	0	WORM	1623	n/a	0	n/a	0	0	0	0	0.5869140625	0.422607421875	lower	../fonts/amplitud.ttf
1979720	START	n/a	LTP251	ltpFR	9	n/a	n/a	n/a	n/a	n/a	n/a	n/a	n/a	n/a	n/a	n/a	n/a	n/a	n/a	n/a
1980573	PROB	n/a	LTP251	ltpFR	9	n/a	n/a	n/a	n/a	n/a	n/a	14	1	8	3	n/a	n/a	n/a	n/a	n/a
1982293	PROB	n/a	LTP251	ltpFR	9	n/a	n/a	n/a	n/a	n/a	n/a	23	7	9	7	n/a	n/a	n/a	n/a	n/a
1986599	STOP	n/a	LTP251	ltpFR	9	n/a	n/a	n/a	n/a	n/a	n/a	n/a	n/a	n/a	n/a	n/a	n/a	n/a	n/a	n/a
1988670	WORD	wordpools/wasnorm_wordpool_less_exclusions.txt	LTP251	ltpFR	9	9	0	LONDON	843	n/a	1	n/a	0	0	0	0	0.5869140625	0.422607421875	lower	../fonts/amplitud.ttf
1991682	START	n/a	LTP251	ltpFR	9	n/a	n/a	n/a	n/a	n/a	n/a	n/a	n/a	n/a	n/a	n/a	n/a	n/a	n/a	n/a
1992652	PROB	n/a	LTP251	ltpFR	9	n/a	n/a	n/a	n/a	n/a	n/a	15	4	9	2	n/a	n/a	n/a	n/a	n/a
1994441	PROB	n/a	LTP251	ltpFR	9	n/a	n/a	n/a	n/a	n/a	n/a	16	9	6	1	n/a	n/a	n/a	n/a	n/a
1997182	PROB	n/a	LTP251	ltpFR	9	n/a	n/a	n/a	n/a	n/a	n/a	17	5	4	7	n/a	n/a	n/a	n/a	n/a
1999031	STOP	n/a	LTP251	ltpFR	9	n/a	n/a	n/a	n/a	n/a	n/a	n/a	n/a	n/a	n/a	n/a	n/a	n/a	n/a	n/a
2001553	REC_START	n/a	LTP251	ltpFR	9	9	n/a	n/a	n/a	n/a	n/a	n/a	0	0	0	n/a	n/a	n/a	n/a	n/a
2002820	REC_WORD	wordpools/wasnorm_wordpool_less_exclusions.txt	LTP251	ltpFR	9	9	0	PEACH	1031	n/a	0	n/a	0	0	0	n/a	n/a	n/a	n/a	n/a
2003828	REC_WORD	wordpools/wasnorm_wordpool_less_exclusions.txt	LTP251	ltpFR	9	9	0	WORM	1623	n/a	0	n/a	0	0	0	n/a	n/a	n/a	n/a	n/a
2005005	REC_WORD	wordpools/wasnorm_wordpool_less_exclusions.txt	LTP251	ltpFR	9	9	0	CONTAINER	366	n/a	0	n/a	0	0	0	n/a	n/a	n/a	n/a	n/a
2006352	REC_WORD	wordpools/wasnorm_wordpool_less_exclusions.txt	LTP251	ltpFR	9	9	0	SCALLOP	1242	n/a	0	n/a	0	0	0	n/a	n/a	n/a	n/a	n/a
2007719	REC_WORD	wordpools/wasnorm_wordpool_less_exclusions.txt	LTP251	ltpFR	9	9	0	COLESLAW	344	n/a	0	n/a	0	0	0	n/a	n/a	n/a	n/a	n/a
2009021	REC_WORD	wordpools/wasnorm_wordpool_less_exclusions.txt	LTP251	ltpFR	9	9	0	LONDON	843	n/a	1	n/a	0	0	0	n/a	n/a	n/a	n/a	n/a
2081302	WORD	wordpools/wasnorm_wordpool_less_exclusions.txt	LTP251	ltpFR	9	10	0	CARD	243	n/a	0	n/a	0	0	0	0	0.5869140625	0.422607421875	lower	../fonts/amplitud.ttf
2085267	WORD	wordpools/wasnorm_wordpool_less_exclusions.txt	LTP251	ltpFR	9	10	0	PROFESSIONAL	1130	n/a	1	n/a	0	0	0	0	0.5869140625	0.422607421875	lower	../fonts/amplitud.ttf
2089432	WORD	wordpools/wasnorm_wordpool_less_exclusions.txt	LTP251	ltpFR	9	10	0	SCALPEL	1243	n/a	0	n/a	0	0	0	0	0.5869140625	0.422607421875	lower	../fonts/amplitud.ttf
2093415	WORD	wordpools/wasnorm_wordpool_less_exclusions.txt	LTP251	ltpFR	9	10	0	VASE	1549	n/a	1	n/a	0	0	0	0	0.5869140625	0.422607421875	lower	../fonts/amplitud.ttf
2097380	WORD	wordpools/wasnorm_wordpool_less_exclusions.txt	LTP251	ltpFR	9	10	1	DANDELION	438	n/a	1	n/a	0	0	0	1	0.412841796875	0.57763671875	upper	../fonts/zerothre.ttf
2101592	WORD	wordpools/wasnorm_wordpool_less_exclusions.txt	LTP251	ltpFR	9	10	1	GARDEN	623	n/a	1	n/a	0	0	0	1	0.412841796875	0.57763671875	upper	../fonts/zerothre.ttf
2105728	WORD	wordpools/wasnorm_wordpool_less_exclusions.txt	LTP251	ltpFR	9	10	1	CALENDAR	221	n/a	0	n/a	0	0	0	1	0.412841796875	0.57763671875	upper	../fonts/zerothre.ttf
2109874	WORD	wordpools/wasnorm_wordpool_less_exclusions.txt	LTP251	ltpFR	9	10	1	JOKER	759	n/a	1	n/a	0	0	0	1	0.412841796875	0.57763671875	upper	../fonts/zerothre.ttf
2113825	WORD	wordpools/wasnorm_wordpool_less_exclusions.txt	LTP251	ltpFR	9	10	1	NEPHEW	942	n/a	1	n/a	0	0	0	1	0.412841796875	0.57763671875	upper	../fonts/zerothre.ttf
2117873	WORD	wordpools/wasnorm_wordpool_less_exclusions.txt	LTP251	ltpFR	9	10	1	ROOT	1210	n/a	1	n/a	0	0	0	1	0.412841796875	0.57763671875	upper	../fonts/zerothre.ttf
2122006	WORD	wordpools/wasnorm_wordpool_less_exclusions.txt	LTP251	ltpFR	9	10	0	PEDAL	1037	n/a	0	n/a	0	0	0	0	0.5869140625	0.422607421875	lower	../fonts/amplitud.ttf
2125901	WORD	wordpools/wasnorm_wordpool_less_exclusions.txt	LTP251	ltpFR	9	10	0	OFFICER	973	n/a	1	n/a	0	0	0	0	0.5869140625	0.422607421875	lower	../fonts/amplitud.ttf
2129869	WORD	wordpools/wasnorm_wordpool_less_exclusions.txt	LTP251	ltpFR	9	10	0	PANTS	1010	n/a	1	n/a	0	0	0	0	0.5869140625	0.422607421875	lower	../fonts/amplitud.ttf
2133800	WORD	wordpools/wasnorm_wordpool_less_exclusions.txt	LTP251	ltpFR	9	10	0	BUTTON	207	n/a	1	n/a	0	0	0	0	0.5869140625	0.422607421875	lower	../fonts/amplitud.ttf
2137779	WORD	wordpools/wasnorm_wordpool_less_exclusions.txt	LTP251	ltpFR	9	10	1	SHERIFF	1284	n/a	1	n/a	0	0	0	1	0.412841796875	0.57763671875	upper	../fonts/zerothre.ttf
2141797	WORD	wordpools/wasnorm_wordpool_less_exclusions.txt	LTP251	ltpFR	9	10	1	IGLOO	734	n/a	1	n/a	0	0	0	1	0.412841796875	0.57763671875	upper	../fonts/zerothre.ttf
2144809	START	n/a	LTP251	ltpFR	9	n/a	n/a	n/a	n/a	n/a	n/a	n/a	n/a	n/a	n/a	n/a	n/a	n/a	n/a	n/a
2145862	PROB	n/a	LTP251	ltpFR	9	n/a	n/a	n/a	n/a	n/a	n/a	14	4	1	9	n/a	n/a	n/a	n/a	n/a
2149623	PROB	n/a	LTP251	ltpFR	9	n/a	n/a	n/a	n/a	n/a	n/a	13	1	9	3	n/a	n/a	n/a	n/a	n/a
2151951	STOP	n/a	LTP251	ltpFR	9	n/a	n/a	n/a	n/a	n/a	n/a	n/a	n/a	n/a	n/a	n/a	n/a	n/a	n/a	n/a
2154688	REC_START	n/a	LTP251	ltpFR	9	10	n/a	n/a	n/a	n/a	n/a	n/a	0	0	0	n/a	n/a	n/a	n/a	n/a
2155361	REC_WORD	wordpools/wasnorm_wordpool_less_exclusions.txt	LTP251	ltpFR	9	10	0	CARD	243	n/a	0	n/a	0	0	0	n/a	n/a	n/a	n/a	n/a
2156359	REC_WORD	wordpools/wasnorm_wordpool_less_exclusions.txt	LTP251	ltpFR	9	10	0	SCALPEL	1243	n/a	0	n/a	0	0	0	n/a	n/a	n/a	n/a	n/a
2157766	REC_WORD	wordpools/wasnorm_wordpool_less_exclusions.txt	LTP251	ltpFR	9	10	0	VASE	1549	n/a	1	n/a	0	0	0	n/a	n/a	n/a	n/a	n/a
2158903	REC_WORD	wordpools/wasnorm_wordpool_less_exclusions.txt	LTP251	ltpFR	9	10	0	BUTTON	207	n/a	1	n/a	0	0	0	n/a	n/a	n/a	n/a	n/a
2160365	REC_WORD	wordpools/wasnorm_wordpool_less_exclusions.txt	LTP251	ltpFR	9	10	1	DANDELION	438	n/a	1	n/a	0	0	0	n/a	n/a	n/a	n/a	n/a
2173141	REC_WORD	wordpools/wasnorm_wordpool_less_exclusions.txt	LTP251	ltpFR	9	10	1	IGLOO	734	n/a	1	n/a	0	0	0	n/a	n/a	n/a	n/a	n/a
2230311	REST_REWET	n/a	LTP251	ltpFR	9	10	n/a	n/a	n/a	n/a	n/a	n/a	0	0	0	n/a	n/a	n/a	n/a	n/a
2490977	START	n/a	LTP251	ltpFR	9	n/a	n/a	n/a	n/a	n/a	n/a	n/a	n/a	n/a	n/a	n/a	n/a	n/a	n/a	n/a
2492484	PROB	n/a	LTP251	ltpFR	9	n/a	n/a	n/a	n/a	n/a	n/a	19	9	6	4	n/a	n/a	n/a	n/a	n/a
2494590	PROB	n/a	LTP251	ltpFR	9	n/a	n/a	n/a	n/a	n/a	n/a	14	9	1	4	n/a	n/a	n/a	n/a	n/a
2496015	PROB	n/a	LTP251	ltpFR	9	n/a	n/a	n/a	n/a	n/a	n/a	17	3	9	4	n/a	n/a	n/a	n/a	n/a
2497638	PROB	n/a	LTP251	ltpFR	9	n/a	n/a	n/a	n/a	n/a	n/a	21	9	7	5	n/a	n/a	n/a	n/a	n/a
2500281	PROB	n/a	LTP251	ltpFR	9	n/a	n/a	n/a	n/a	n/a	n/a	17	5	5	7	n/a	n/a	n/a	n/a	n/a
2501553	PROB	n/a	LTP251	ltpFR	9	n/a	n/a	n/a	n/a	n/a	n/a	20	4	8	6	n/a	n/a	n/a	n/a	n/a
2503858	PROB	n/a	LTP251	ltpFR	9	n/a	n/a	n/a	n/a	n/a	n/a	6	1	1	2	n/a	n/a	n/a	n/a	n/a
2505233	PROB	n/a	LTP251	ltpFR	9	n/a	n/a	n/a	n/a	n/a	n/a	11	6	1	4	n/a	n/a	n/a	n/a	n/a
2506671	STOP	n/a	LTP251	ltpFR	9	n/a	n/a	n/a	n/a	n/a	n/a	n/a	n/a	n/a	n/a	n/a	n/a	n/a	n/a	n/a
2507944	WORD	wordpools/wasnorm_wordpool_less_exclusions.txt	LTP251	ltpFR	9	11	1	ESSAY	540	n/a	0	n/a	0	0	0	1	0.412841796875	0.57763671875	upper	../fonts/zerothre.ttf
2510956	START	n/a	LTP251	ltpFR	9	n/a	n/a	n/a	n/a	n/a	n/a	n/a	n/a	n/a	n/a	n/a	n/a	n/a	n/a	n/a
2511825	PROB	n/a	LTP251	ltpFR	9	n/a	n/a	n/a	n/a	n/a	n/a	2	9	5	8	n/a	n/a	n/a	n/a	n/a
2517225	PROB	n/a	LTP251	ltpFR	9	n/a	n/a	n/a	n/a	n/a	n/a	15	3	3	9	n/a	n/a	n/a	n/a	n/a
2520705	PROB	n/a	LTP251	ltpFR	9	n/a	n/a	n/a	n/a	n/a	n/a	6	1	2	3	n/a	n/a	n/a	n/a	n/a
2522010	PROB	n/a	LTP251	ltpFR	9	n/a	n/a	n/a	n/a	n/a	n/a	15	3	3	9	n/a	n/a	n/a	n/a	n/a
2524101	PROB	n/a	LTP251	ltpFR	9	n/a	n/a	n/a	n/a	n/a	n/a	13	3	1	9	n/a	n/a	n/a	n/a	n/a
2526319	STOP	n/a	LTP251	ltpFR	9	n/a	n/a	n/a	n/a	n/a	n/a	n/a	n/a	n/a	n/a	n/a	n/a	n/a	n/a	n/a
2528002	WORD	wordpools/wasnorm_wordpool_less_exclusions.txt	LTP251	ltpFR	9	11	1	SPATULA	1348	n/a	0	n/a	0	0	0	1	0.412841796875	0.57763671875	upper	../fonts/zerothre.ttf
2531014	START	n/a	LTP251	ltpFR	9	n/a	n/a	n/a	n/a	n/a	n/a	n/a	n/a	n/a	n/a	n/a	n/a	n/a	n/a	n/a
2531964	PROB	n/a	LTP251	ltpFR	9	n/a	n/a	n/a	n/a	n/a	n/a	24	8	9	8	n/a	n/a	n/a	n/a	n/a
2535347	PROB	n/a	LTP251	ltpFR	9	n/a	n/a	n/a	n/a	n/a	n/a	22	9	6	7	n/a	n/a	n/a	n/a	n/a
2540379	PROB	n/a	LTP251	ltpFR	9	n/a	n/a	n/a	n/a	n/a	n/a	10	3	6	3	n/a	n/a	n/a	n/a	n/a
2542287	PROB	n/a	LTP251	ltpFR	9	n/a	n/a	n/a	n/a	n/a	n/a	17	9	5	3	n/a	n/a	n/a	n/a	n/a
2544930	PROB	n/a	LTP251	ltpFR	9	n/a	n/a	n/a	n/a	n/a	n/a	6	2	2	2	n/a	n/a	n/a	n/a	n/a
2546087	STOP	n/a	LTP251	ltpFR	9	n/a	n/a	n/a	n/a	n/a	n/a	n/a	n/a	n/a	n/a	n/a	n/a	n/a	n/a	n/a
2547961	WORD	wordpools/wasnorm_wordpool_less_exclusions.txt	LTP251	ltpFR	9	11	1	SPIDER	1351	n/a	1	n/a	0	0	0	1	0.412841796875	0.57763671875	upper	../fonts/zerothre.ttf
2550973	START	n/a	LTP251	ltpFR	9	n/a	n/a	n/a	n/a	n/a	n/a	n/a	n/a	n/a	n/a	n/a	n/a	n/a	n/a	n/a
2551943	PROB	n/a	LTP251	ltpFR	9	n/a	n/a	n/a	n/a	n/a	n/a	6	3	2	1	n/a	n/a	n/a	n/a	n/a
2554031	PROB	n/a	LTP251	ltpFR	9	n/a	n/a	n/a	n/a	n/a	n/a	11	4	5	2	n/a	n/a	n/a	n/a	n/a
2555369	PROB	n/a	LTP251	ltpFR	9	n/a	n/a	n/a	n/a	n/a	n/a	12	6	5	1	n/a	n/a	n/a	n/a	n/a
2557360	PROB	n/a	LTP251	ltpFR	9	n/a	n/a	n/a	n/a	n/a	n/a	18	8	6	4	n/a	n/a	n/a	n/a	n/a
2559371	PROB	n/a	LTP251	ltpFR	9	n/a	n/a	n/a	n/a	n/a	n/a	18	5	9	3	n/a	n/a	n/a	n/a	n/a
2561562	PROB	n/a	LTP251	ltpFR	9	n/a	n/a	n/a	n/a	n/a	n/a	19	8	6	5	n/a	n/a	n/a	n/a	n/a
2566973	STOP	n/a	LTP251	ltpFR	9	n/a	n/a	n/a	n/a	n/a	n/a	n/a	n/a	n/a	n/a	n/a	n/a	n/a	n/a	n/a
2568020	WORD	wordpools/wasnorm_wordpool_less_exclusions.txt	LTP251	ltpFR	9	11	1	CREATURE	403	n/a	0	n/a	0	0	0	1	0.412841796875	0.57763671875	upper	../fonts/zerothre.ttf
2571032	START	n/a	LTP251	ltpFR	9	n/a	n/a	n/a	n/a	n/a	n/a	n/a	n/a	n/a	n/a	n/a	n/a	n/a	n/a	n/a
2572152	PROB	n/a	LTP251	ltpFR	9	n/a	n/a	n/a	n/a	n/a	n/a	21	9	3	9	n/a	n/a	n/a	n/a	n/a
2575247	PROB	n/a	LTP251	ltpFR	9	n/a	n/a	n/a	n/a	n/a	n/a	8	4	3	1	n/a	n/a	n/a	n/a	n/a
2576666	PROB	n/a	LTP251	ltpFR	9	n/a	n/a	n/a	n/a	n/a	n/a	10	3	2	5	n/a	n/a	n/a	n/a	n/a
2578442	PROB	n/a	LTP251	ltpFR	9	n/a	n/a	n/a	n/a	n/a	n/a	22	8	9	5	n/a	n/a	n/a	n/a	n/a
2580163	PROB	n/a	LTP251	ltpFR	9	n/a	n/a	n/a	n/a	n/a	n/a	9	3	5	1	n/a	n/a	n/a	n/a	n/a
2583525	PROB	n/a	LTP251	ltpFR	9	n/a	n/a	n/a	n/a	n/a	n/a	18	6	8	4	n/a	n/a	n/a	n/a	n/a
2585215	PROB	n/a	LTP251	ltpFR	9	n/a	n/a	n/a	n/a	n/a	n/a	10	1	6	3	n/a	n/a	n/a	n/a	n/a
2586438	STOP	n/a	LTP251	ltpFR	9	n/a	n/a	n/a	n/a	n/a	n/a	n/a	n/a	n/a	n/a	n/a	n/a	n/a	n/a	n/a
2587975	WORD	wordpools/wasnorm_wordpool_less_exclusions.txt	LTP251	ltpFR	9	11	1	DRESS	495	n/a	0	n/a	0	0	0	1	0.412841796875	0.57763671875	upper	../fonts/zerothre.ttf
2590990	START	n/a	LTP251	ltpFR	9	n/a	n/a	n/a	n/a	n/a	n/a	n/a	n/a	n/a	n/a	n/a	n/a	n/a	n/a	n/a
2592057	PROB	n/a	LTP251	ltpFR	9	n/a	n/a	n/a	n/a	n/a	n/a	10	1	6	3	n/a	n/a	n/a	n/a	n/a
2593312	PROB	n/a	LTP251	ltpFR	9	n/a	n/a	n/a	n/a	n/a	n/a	18	3	6	9	n/a	n/a	n/a	n/a	n/a
2596340	PROB	n/a	LTP251	ltpFR	9	n/a	n/a	n/a	n/a	n/a	n/a	19	7	7	5	n/a	n/a	n/a	n/a	n/a
2598953	PROB	n/a	LTP251	ltpFR	9	n/a	n/a	n/a	n/a	n/a	n/a	11	6	1	4	n/a	n/a	n/a	n/a	n/a
2600071	PROB	n/a	LTP251	ltpFR	9	n/a	n/a	n/a	n/a	n/a	n/a	5	1	2	2	n/a	n/a	n/a	n/a	n/a
2601309	PROB	n/a	LTP251	ltpFR	9	n/a	n/a	n/a	n/a	n/a	n/a	14	2	5	7	n/a	n/a	n/a	n/a	n/a
2602815	PROB	n/a	LTP251	ltpFR	9	n/a	n/a	n/a	n/a	n/a	n/a	20	3	9	8	n/a	n/a	n/a	n/a	n/a
2604337	PROB	n/a	LTP251	ltpFR	9	n/a	n/a	n/a	n/a	n/a	n/a	5	1	3	1	n/a	n/a	n/a	n/a	n/a
2605671	STOP	n/a	LTP251	ltpFR	9	n/a	n/a	n/a	n/a	n/a	n/a	n/a	n/a	n/a	n/a	n/a	n/a	n/a	n/a	n/a
2607837	WORD	wordpools/wasnorm_wordpool_less_exclusions.txt	LTP251	ltpFR	9	11	1	COLLAR	345	n/a	0	n/a	0	0	0	1	0.412841796875	0.57763671875	upper	../fonts/zerothre.ttf
2610849	START	n/a	LTP251	ltpFR	9	n/a	n/a	n/a	n/a	n/a	n/a	n/a	n/a	n/a	n/a	n/a	n/a	n/a	n/a	n/a
2611902	PROB	n/a	LTP251	ltpFR	9	n/a	n/a	n/a	n/a	n/a	n/a	22	6	9	6	n/a	n/a	n/a	n/a	n/a
2615431	PROB	n/a	LTP251	ltpFR	9	n/a	n/a	n/a	n/a	n/a	n/a	5	2	1	2	n/a	n/a	n/a	n/a	n/a
2617353	PROB	n/a	LTP251	ltpFR	9	n/a	n/a	n/a	n/a	n/a	n/a	12	3	1	8	n/a	n/a	n/a	n/a	n/a
2619280	PROB	n/a	LTP251	ltpFR	9	n/a	n/a	n/a	n/a	n/a	n/a	11	2	5	4	n/a	n/a	n/a	n/a	n/a
2620632	PROB	n/a	LTP251	ltpFR	9	n/a	n/a	n/a	n/a	n/a	n/a	7	4	1	2	n/a	n/a	n/a	n/a	n/a
2622392	PROB	n/a	LTP251	ltpFR	9	n/a	n/a	n/a	n/a	n/a	n/a	10	1	5	4	n/a	n/a	n/a	n/a	n/a
2623777	PROB	n/a	LTP251	ltpFR	9	n/a	n/a	n/a	n/a	n/a	n/a	17	3	5	9	n/a	n/a	n/a	n/a	n/a
2625575	STOP	n/a	LTP251	ltpFR	9	n/a	n/a	n/a	n/a	n/a	n/a	n/a	n/a	n/a	n/a	n/a	n/a	n/a	n/a	n/a
2627842	WORD	wordpools/wasnorm_wordpool_less_exclusions.txt	LTP251	ltpFR	9	11	1	VET	1560	n/a	0	n/a	0	0	0	1	0.412841796875	0.57763671875	upper	../fonts/zerothre.ttf
2630857	START	n/a	LTP251	ltpFR	9	n/a	n/a	n/a	n/a	n/a	n/a	n/a	n/a	n/a	n/a	n/a	n/a	n/a	n/a	n/a
2631944	PROB	n/a	LTP251	ltpFR	9	n/a	n/a	n/a	n/a	n/a	n/a	16	6	5	5	n/a	n/a	n/a	n/a	n/a
2633915	PROB	n/a	LTP251	ltpFR	9	n/a	n/a	n/a	n/a	n/a	n/a	14	3	8	3	n/a	n/a	n/a	n/a	n/a
2635675	PROB	n/a	LTP251	ltpFR	9	n/a	n/a	n/a	n/a	n/a	n/a	9	2	1	6	n/a	n/a	n/a	n/a	n/a
2637144	PROB	n/a	LTP251	ltpFR	9	n/a	n/a	n/a	n/a	n/a	n/a	17	5	6	6	n/a	n/a	n/a	n/a	n/a
2639051	PROB	n/a	LTP251	ltpFR	9	n/a	n/a	n/a	n/a	n/a	n/a	4	2	1	1	n/a	n/a	n/a	n/a	n/a
2642129	PROB	n/a	LTP251	ltpFR	9	n/a	n/a	n/a	n/a	n/a	n/a	14	5	6	3	n/a	n/a	n/a	n/a	n/a
2644237	PROB	n/a	LTP251	ltpFR	9	n/a	n/a	n/a	n/a	n/a	n/a	9	4	4	1	n/a	n/a	n/a	n/a	n/a
2645399	STOP	n/a	LTP251	ltpFR	9	n/a	n/a	n/a	n/a	n/a	n/a	n/a	n/a	n/a	n/a	n/a	n/a	n/a	n/a	n/a
2648072	WORD	wordpools/wasnorm_wordpool_less_exclusions.txt	LTP251	ltpFR	9	11	1	BANDIT	81	n/a	0	n/a	0	0	0	1	0.412841796875	0.57763671875	upper	../fonts/zerothre.ttf
2651084	START	n/a	LTP251	ltpFR	9	n/a	n/a	n/a	n/a	n/a	n/a	n/a	n/a	n/a	n/a	n/a	n/a	n/a	n/a	n/a
2652020	PROB	n/a	LTP251	ltpFR	9	n/a	n/a	n/a	n/a	n/a	n/a	14	6	1	7	n/a	n/a	n/a	n/a	n/a
2654496	PROB	n/a	LTP251	ltpFR	9	n/a	n/a	n/a	n/a	n/a	n/a	22	4	9	9	n/a	n/a	n/a	n/a	n/a
2656801	PROB	n/a	LTP251	ltpFR	9	n/a	n/a	n/a	n/a	n/a	n/a	13	2	7	4	n/a	n/a	n/a	n/a	n/a
2659595	PROB	n/a	LTP251	ltpFR	9	n/a	n/a	n/a	n/a	n/a	n/a	12	4	2	6	n/a	n/a	n/a	n/a	n/a
2661285	PROB	n/a	LTP251	ltpFR	9	n/a	n/a	n/a	n/a	n/a	n/a	23	6	8	9	n/a	n/a	n/a	n/a	n/a
2664597	PROB	n/a	LTP251	ltpFR	9	n/a	n/a	n/a	n/a	n/a	n/a	23	4	8	9	n/a	n/a	n/a	n/a	n/a
2666071	STOP	n/a	LTP251	ltpFR	9	n/a	n/a	n/a	n/a	n/a	n/a	n/a	n/a	n/a	n/a	n/a	n/a	n/a	n/a	n/a
2668064	WORD	wordpools/wasnorm_wordpool_less_exclusions.txt	LTP251	ltpFR	9	11	1	LASER	801	n/a	0	n/a	0	0	0	1	0.412841796875	0.57763671875	upper	../fonts/zerothre.ttf
2671076	START	n/a	LTP251	ltpFR	9	n/a	n/a	n/a	n/a	n/a	n/a	n/a	n/a	n/a	n/a	n/a	n/a	n/a	n/a	n/a
2671945	PROB	n/a	LTP251	ltpFR	9	n/a	n/a	n/a	n/a	n/a	n/a	15	1	5	9	n/a	n/a	n/a	n/a	n/a
2673819	PROB	n/a	LTP251	ltpFR	9	n/a	n/a	n/a	n/a	n/a	n/a	18	5	5	8	n/a	n/a	n/a	n/a	n/a
2675057	PROB	n/a	LTP251	ltpFR	9	n/a	n/a	n/a	n/a	n/a	n/a	22	9	6	9	n/a	n/a	n/a	n/a	n/a
2677064	PROB	n/a	LTP251	ltpFR	9	n/a	n/a	n/a	n/a	n/a	n/a	18	4	9	5	n/a	n/a	n/a	n/a	n/a
2679755	PROB	n/a	LTP251	ltpFR	9	n/a	n/a	n/a	n/a	n/a	n/a	13	3	5	5	n/a	n/a	n/a	n/a	n/a
2681093	PROB	n/a	LTP251	ltpFR	9	n/a	n/a	n/a	n/a	n/a	n/a	12	4	2	6	n/a	n/a	n/a	n/a	n/a
2682933	PROB	n/a	LTP251	ltpFR	9	n/a	n/a	n/a	n/a	n/a	n/a	17	3	6	8	n/a	n/a	n/a	n/a	n/a
2687075	STOP	n/a	LTP251	ltpFR	9	n/a	n/a	n/a	n/a	n/a	n/a	n/a	n/a	n/a	n/a	n/a	n/a	n/a	n/a	n/a
2688136	WORD	wordpools/wasnorm_wordpool_less_exclusions.txt	LTP251	ltpFR	9	11	1	BULB	192	n/a	0	n/a	0	0	0	1	0.412841796875	0.57763671875	upper	../fonts/zerothre.ttf
2691151	START	n/a	LTP251	ltpFR	9	n/a	n/a	n/a	n/a	n/a	n/a	n/a	n/a	n/a	n/a	n/a	n/a	n/a	n/a	n/a
2692021	PROB	n/a	LTP251	ltpFR	9	n/a	n/a	n/a	n/a	n/a	n/a	17	5	4	8	n/a	n/a	n/a	n/a	n/a
2693757	PROB	n/a	LTP251	ltpFR	9	n/a	n/a	n/a	n/a	n/a	n/a	6	2	3	1	n/a	n/a	n/a	n/a	n/a
2695849	PROB	n/a	LTP251	ltpFR	9	n/a	n/a	n/a	n/a	n/a	n/a	13	9	2	2	n/a	n/a	n/a	n/a	n/a
2697692	PROB	n/a	LTP251	ltpFR	9	n/a	n/a	n/a	n/a	n/a	n/a	16	7	5	6	n/a	n/a	n/a	n/a	n/a
2698960	PROB	n/a	LTP251	ltpFR	9	n/a	n/a	n/a	n/a	n/a	n/a	21	3	9	9	n/a	n/a	n/a	n/a	n/a
2701724	PROB	n/a	LTP251	ltpFR	9	n/a	n/a	n/a	n/a	n/a	n/a	14	2	8	4	n/a	n/a	n/a	n/a	n/a
2704029	PROB	n/a	LTP251	ltpFR	9	n/a	n/a	n/a	n/a	n/a	n/a	16	9	4	3	n/a	n/a	n/a	n/a	n/a
2707143	STOP	n/a	LTP251	ltpFR	9	n/a	n/a	n/a	n/a	n/a	n/a	n/a	n/a	n/a	n/a	n/a	n/a	n/a	n/a	n/a
2708349	WORD	wordpools/wasnorm_wordpool_less_exclusions.txt	LTP251	ltpFR	9	11	1	PLANT	1083	n/a	1	n/a	0	0	0	1	0.412841796875	0.57763671875	upper	../fonts/zerothre.ttf
2711361	START	n/a	LTP251	ltpFR	9	n/a	n/a	n/a	n/a	n/a	n/a	n/a	n/a	n/a	n/a	n/a	n/a	n/a	n/a	n/a
2712280	PROB	n/a	LTP251	ltpFR	9	n/a	n/a	n/a	n/a	n/a	n/a	21	9	6	6	n/a	n/a	n/a	n/a	n/a
2715657	PROB	n/a	LTP251	ltpFR	9	n/a	n/a	n/a	n/a	n/a	n/a	14	9	1	4	n/a	n/a	n/a	n/a	n/a
2717296	PROB	n/a	LTP251	ltpFR	9	n/a	n/a	n/a	n/a	n/a	n/a	14	9	2	3	n/a	n/a	n/a	n/a	n/a
2719036	PROB	n/a	LTP251	ltpFR	9	n/a	n/a	n/a	n/a	n/a	n/a	17	3	9	5	n/a	n/a	n/a	n/a	n/a
2721298	PROB	n/a	LTP251	ltpFR	9	n/a	n/a	n/a	n/a	n/a	n/a	13	3	8	2	n/a	n/a	n/a	n/a	n/a
2722549	PROB	n/a	LTP251	ltpFR	9	n/a	n/a	n/a	n/a	n/a	n/a	12	1	3	8	n/a	n/a	n/a	n/a	n/a
2724041	PROB	n/a	LTP251	ltpFR	9	n/a	n/a	n/a	n/a	n/a	n/a	14	1	8	5	n/a	n/a	n/a	n/a	n/a
2725442	PROB	n/a	LTP251	ltpFR	9	n/a	n/a	n/a	n/a	n/a	n/a	15	2	6	7	n/a	n/a	n/a	n/a	n/a
2726959	STOP	n/a	LTP251	ltpFR	9	n/a	n/a	n/a	n/a	n/a	n/a	n/a	n/a	n/a	n/a	n/a	n/a	n/a	n/a	n/a
2728324	WORD	wordpools/wasnorm_wordpool_less_exclusions.txt	LTP251	ltpFR	9	11	1	NOTEBOOK	959	n/a	0	n/a	0	0	0	1	0.412841796875	0.57763671875	upper	../fonts/zerothre.ttf
2731336	START	n/a	LTP251	ltpFR	9	n/a	n/a	n/a	n/a	n/a	n/a	n/a	n/a	n/a	n/a	n/a	n/a	n/a	n/a	n/a
2732439	PROB	n/a	LTP251	ltpFR	9	n/a	n/a	n/a	n/a	n/a	n/a	4	1	1	2	n/a	n/a	n/a	n/a	n/a
2733741	PROB	n/a	LTP251	ltpFR	9	n/a	n/a	n/a	n/a	n/a	n/a	9	1	1	7	n/a	n/a	n/a	n/a	n/a
2735832	PROB	n/a	LTP251	ltpFR	9	n/a	n/a	n/a	n/a	n/a	n/a	14	4	7	3	n/a	n/a	n/a	n/a	n/a
2738579	PROB	n/a	LTP251	ltpFR	9	n/a	n/a	n/a	n/a	n/a	n/a	23	7	8	8	n/a	n/a	n/a	n/a	n/a
2741253	PROB	n/a	LTP251	ltpFR	9	n/a	n/a	n/a	n/a	n/a	n/a	9	1	5	3	n/a	n/a	n/a	n/a	n/a
2743311	PROB	n/a	LTP251	ltpFR	9	n/a	n/a	n/a	n/a	n/a	n/a	10	2	3	5	n/a	n/a	n/a	n/a	n/a
2747055	STOP	n/a	LTP251	ltpFR	9	n/a	n/a	n/a	n/a	n/a	n/a	n/a	n/a	n/a	n/a	n/a	n/a	n/a	n/a	n/a
2748366	WORD	wordpools/wasnorm_wordpool_less_exclusions.txt	LTP251	ltpFR	9	11	1	DENIM	446	n/a	0	n/a	0	0	0	1	0.412841796875	0.57763671875	upper	../fonts/zerothre.ttf
2751378	START	n/a	LTP251	ltpFR	9	n/a	n/a	n/a	n/a	n/a	n/a	n/a	n/a	n/a	n/a	n/a	n/a	n/a	n/a	n/a
2752214	PROB	n/a	LTP251	ltpFR	9	n/a	n/a	n/a	n/a	n/a	n/a	11	5	5	1	n/a	n/a	n/a	n/a	n/a
2753298	PROB	n/a	LTP251	ltpFR	9	n/a	n/a	n/a	n/a	n/a	n/a	18	7	7	4	n/a	n/a	n/a	n/a	n/a
2756062	PROB	n/a	LTP251	ltpFR	9	n/a	n/a	n/a	n/a	n/a	n/a	17	1	8	8	n/a	n/a	n/a	n/a	n/a
2758234	PROB	n/a	LTP251	ltpFR	9	n/a	n/a	n/a	n/a	n/a	n/a	18	5	9	3	n/a	n/a	n/a	n/a	n/a
2760158	PROB	n/a	LTP251	ltpFR	9	n/a	n/a	n/a	n/a	n/a	n/a	14	4	4	5	n/a	n/a	n/a	n/a	n/a
2763821	PROB	n/a	LTP251	ltpFR	9	n/a	n/a	n/a	n/a	n/a	n/a	1	6	4	1	n/a	n/a	n/a	n/a	n/a
2765330	PROB	n/a	LTP251	ltpFR	9	n/a	n/a	n/a	n/a	n/a	n/a	15	5	1	9	n/a	n/a	n/a	n/a	n/a
2767231	STOP	n/a	LTP251	ltpFR	9	n/a	n/a	n/a	n/a	n/a	n/a	n/a	n/a	n/a	n/a	n/a	n/a	n/a	n/a	n/a
2768509	WORD	wordpools/wasnorm_wordpool_less_exclusions.txt	LTP251	ltpFR	9	11	1	YARN	1631	n/a	0	n/a	0	0	0	1	0.412841796875	0.57763671875	upper	../fonts/zerothre.ttf
2771521	START	n/a	LTP251	ltpFR	9	n/a	n/a	n/a	n/a	n/a	n/a	n/a	n/a	n/a	n/a	n/a	n/a	n/a	n/a	n/a
2772370	PROB	n/a	LTP251	ltpFR	9	n/a	n/a	n/a	n/a	n/a	n/a	7	2	3	2	n/a	n/a	n/a	n/a	n/a
2774314	PROB	n/a	LTP251	ltpFR	9	n/a	n/a	n/a	n/a	n/a	n/a	19	9	3	7	n/a	n/a	n/a	n/a	n/a
2775800	PROB	n/a	LTP251	ltpFR	9	n/a	n/a	n/a	n/a	n/a	n/a	13	5	4	4	n/a	n/a	n/a	n/a	n/a
2777724	PROB	n/a	LTP251	ltpFR	9	n/a	n/a	n/a	n/a	n/a	n/a	17	3	8	4	n/a	n/a	n/a	n/a	n/a
2779380	PROB	n/a	LTP251	ltpFR	9	n/a	n/a	n/a	n/a	n/a	n/a	15	6	7	2	n/a	n/a	n/a	n/a	n/a
2781019	PROB	n/a	LTP251	ltpFR	9	n/a	n/a	n/a	n/a	n/a	n/a	21	7	5	9	n/a	n/a	n/a	n/a	n/a
2784369	PROB	n/a	LTP251	ltpFR	9	n/a	n/a	n/a	n/a	n/a	n/a	14	7	4	3	n/a	n/a	n/a	n/a	n/a
2786367	STOP	n/a	LTP251	ltpFR	9	n/a	n/a	n/a	n/a	n/a	n/a	n/a	n/a	n/a	n/a	n/a	n/a	n/a	n/a	n/a
2788635	WORD	wordpools/wasnorm_wordpool_less_exclusions.txt	LTP251	ltpFR	9	11	1	QUILT	1151	n/a	0	n/a	0	0	0	1	0.412841796875	0.57763671875	upper	../fonts/zerothre.ttf
2791647	START	n/a	LTP251	ltpFR	9	n/a	n/a	n/a	n/a	n/a	n/a	n/a	n/a	n/a	n/a	n/a	n/a	n/a	n/a	n/a
2792630	PROB	n/a	LTP251	ltpFR	9	n/a	n/a	n/a	n/a	n/a	n/a	21	6	9	6	n/a	n/a	n/a	n/a	n/a
2796882	PROB	n/a	LTP251	ltpFR	9	n/a	n/a	n/a	n/a	n/a	n/a	11	4	5	2	n/a	n/a	n/a	n/a	n/a
2798301	PROB	n/a	LTP251	ltpFR	9	n/a	n/a	n/a	n/a	n/a	n/a	12	7	3	2	n/a	n/a	n/a	n/a	n/a
2799523	PROB	n/a	LTP251	ltpFR	9	n/a	n/a	n/a	n/a	n/a	n/a	16	9	4	3	n/a	n/a	n/a	n/a	n/a
2801380	PROB	n/a	LTP251	ltpFR	9	n/a	n/a	n/a	n/a	n/a	n/a	12	4	7	1	n/a	n/a	n/a	n/a	n/a
2807631	STOP	n/a	LTP251	ltpFR	9	n/a	n/a	n/a	n/a	n/a	n/a	n/a	n/a	n/a	n/a	n/a	n/a	n/a	n/a	n/a
2808560	WORD	wordpools/wasnorm_wordpool_less_exclusions.txt	LTP251	ltpFR	9	11	1	SNEAKER	1334	n/a	0	n/a	0	0	0	1	0.412841796875	0.57763671875	upper	../fonts/zerothre.ttf
2811571	START	n/a	LTP251	ltpFR	9	n/a	n/a	n/a	n/a	n/a	n/a	n/a	n/a	n/a	n/a	n/a	n/a	n/a	n/a	n/a
2812709	PROB	n/a	LTP251	ltpFR	9	n/a	n/a	n/a	n/a	n/a	n/a	11	1	7	3	n/a	n/a	n/a	n/a	n/a
2814077	PROB	n/a	LTP251	ltpFR	9	n/a	n/a	n/a	n/a	n/a	n/a	15	9	5	1	n/a	n/a	n/a	n/a	n/a
2815770	PROB	n/a	LTP251	ltpFR	9	n/a	n/a	n/a	n/a	n/a	n/a	21	9	7	5	n/a	n/a	n/a	n/a	n/a
2818109	PROB	n/a	LTP251	ltpFR	9	n/a	n/a	n/a	n/a	n/a	n/a	17	7	5	5	n/a	n/a	n/a	n/a	n/a
2819648	PROB	n/a	LTP251	ltpFR	9	n/a	n/a	n/a	n/a	n/a	n/a	15	3	3	9	n/a	n/a	n/a	n/a	n/a
2821488	PROB	n/a	LTP251	ltpFR	9	n/a	n/a	n/a	n/a	n/a	n/a	17	1	9	7	n/a	n/a	n/a	n/a	n/a
2824316	PROB	n/a	LTP251	ltpFR	9	n/a	n/a	n/a	n/a	n/a	n/a	16	9	3	4	n/a	n/a	n/a	n/a	n/a
2827571	STOP	n/a	LTP251	ltpFR	9	n/a	n/a	n/a	n/a	n/a	n/a	n/a	n/a	n/a	n/a	n/a	n/a	n/a	n/a	n/a
2829472	REC_START	n/a	LTP251	ltpFR	9	11	n/a	n/a	n/a	n/a	n/a	n/a	0	0	0	n/a	n/a	n/a	n/a	n/a
2830509	REC_WORD	wordpools/wasnorm_wordpool_less_exclusions.txt	LTP251	ltpFR	9	11	1	VET	1560	n/a	0	n/a	0	0	0	n/a	n/a	n/a	n/a	n/a
2831063	REC_WORD	wordpools/wasnorm_wordpool_less_exclusions.txt	LTP251	ltpFR	9	11	1	CREATURE	403	n/a	0	n/a	0	0	0	n/a	n/a	n/a	n/a	n/a
2831981	REC_WORD	wordpools/wasnorm_wordpool_less_exclusions.txt	LTP251	ltpFR	9	11	1	BULB	192	n/a	0	n/a	0	0	0	n/a	n/a	n/a	n/a	n/a
2832864	REC_WORD	wordpools/wasnorm_wordpool_less_exclusions.txt	LTP251	ltpFR	9	11	1	ESSAY	540	n/a	0	n/a	0	0	0	n/a	n/a	n/a	n/a	n/a
2833727	REC_WORD	wordpools/wasnorm_wordpool_less_exclusions.txt	LTP251	ltpFR	9	11	1	DENIM	446	n/a	0	n/a	0	0	0	n/a	n/a	n/a	n/a	n/a
2834660	REC_WORD	wordpools/wasnorm_wordpool_less_exclusions.txt	LTP251	ltpFR	9	11	1	QUILT	1151	n/a	0	n/a	0	0	0	n/a	n/a	n/a	n/a	n/a
2907918	WORD	wordpools/wasnorm_wordpool_less_exclusions.txt	LTP251	ltpFR	9	12	0	GLASS	639	n/a	0	n/a	0	0	0	0	0.5869140625	0.422607421875	lower	../fonts/amplitud.ttf
2912117	WORD	wordpools/wasnorm_wordpool_less_exclusions.txt	LTP251	ltpFR	9	12	0	EXPERT	543	n/a	1	n/a	0	0	0	0	0.5869140625	0.422607421875	lower	../fonts/amplitud.ttf
2916316	WORD	wordpools/wasnorm_wordpool_less_exclusions.txt	LTP251	ltpFR	9	12	0	RELISH	1183	n/a	0	n/a	0	0	0	0	0.5869140625	0.422607421875	lower	../fonts/amplitud.ttf
2920430	WORD	wordpools/wasnorm_wordpool_less_exclusions.txt	LTP251	ltpFR	9	12	0	CARPET	247	n/a	1	n/a	0	0	0	0	0.5869140625	0.422607421875	lower	../fonts/amplitud.ttf
2924279	WORD	wordpools/wasnorm_wordpool_less_exclusions.txt	LTP251	ltpFR	9	12	0	CROCODILE	411	n/a	1	n/a	0	0	0	0	0.5869140625	0.422607421875	lower	../fonts/amplitud.ttf
2928458	WORD	wordpools/wasnorm_wordpool_less_exclusions.txt	LTP251	ltpFR	9	12	0	BARN	89	n/a	1	n/a	0	0	0	0	0.5869140625	0.422607421875	lower	../fonts/amplitud.ttf
2932691	WORD	wordpools/wasnorm_wordpool_less_exclusions.txt	LTP251	ltpFR	9	12	0	PONY	1102	n/a	1	n/a	0	0	0	0	0.5869140625	0.422607421875	lower	../fonts/amplitud.ttf
2936693	WORD	wordpools/wasnorm_wordpool_less_exclusions.txt	LTP251	ltpFR	9	12	0	TOOTHPASTE	1483	n/a	1	n/a	0	0	0	0	0.5869140625	0.422607421875	lower	../fonts/amplitud.ttf
2940691	WORD	wordpools/wasnorm_wordpool_less_exclusions.txt	LTP251	ltpFR	9	12	0	WINDOW	1611	n/a	1	n/a	0	0	0	0	0.5869140625	0.422607421875	lower	../fonts/amplitud.ttf
2944773	WORD	wordpools/wasnorm_wordpool_less_exclusions.txt	LTP251	ltpFR	9	12	0	CONE	363	n/a	0	n/a	0	0	0	0	0.5869140625	0.422607421875	lower	../fonts/amplitud.ttf
2948872	WORD	wordpools/wasnorm_wordpool_less_exclusions.txt	LTP251	ltpFR	9	12	0	FOREHEAD	592	n/a	0	n/a	0	0	0	0	0.5869140625	0.422607421875	lower	../fonts/amplitud.ttf
2953004	WORD	wordpools/wasnorm_wordpool_less_exclusions.txt	LTP251	ltpFR	9	12	0	INFANT	737	n/a	0	n/a	0	0	0	0	0.5869140625	0.422607421875	lower	../fonts/amplitud.ttf
2956885	WORD	wordpools/wasnorm_wordpool_less_exclusions.txt	LTP251	ltpFR	9	12	0	BOOK	149	n/a	0	n/a	0	0	0	0	0.5869140625	0.422607421875	lower	../fonts/amplitud.ttf
2960800	WORD	wordpools/wasnorm_wordpool_less_exclusions.txt	LTP251	ltpFR	9	12	0	JOURNAL	760	n/a	0	n/a	0	0	0	0	0.5869140625	0.422607421875	lower	../fonts/amplitud.ttf
2964916	WORD	wordpools/wasnorm_wordpool_less_exclusions.txt	LTP251	ltpFR	9	12	0	DIAPER	459	n/a	0	n/a	0	0	0	0	0.5869140625	0.422607421875	lower	../fonts/amplitud.ttf
2968978	WORD	wordpools/wasnorm_wordpool_less_exclusions.txt	LTP251	ltpFR	9	12	0	LIEUTENANT	818	n/a	1	n/a	0	0	0	0	0.5869140625	0.422607421875	lower	../fonts/amplitud.ttf
2971993	START	n/a	LTP251	ltpFR	9	n/a	n/a	n/a	n/a	n/a	n/a	n/a	n/a	n/a	n/a	n/a	n/a	n/a	n/a	n/a
2973026	PROB	n/a	LTP251	ltpFR	9	n/a	n/a	n/a	n/a	n/a	n/a	22	6	7	7	n/a	n/a	n/a	n/a	n/a
2977179	PROB	n/a	LTP251	ltpFR	9	n/a	n/a	n/a	n/a	n/a	n/a	21	4	9	8	n/a	n/a	n/a	n/a	n/a
2978801	PROB	n/a	LTP251	ltpFR	9	n/a	n/a	n/a	n/a	n/a	n/a	21	6	9	6	n/a	n/a	n/a	n/a	n/a
2982044	PROB	n/a	LTP251	ltpFR	9	n/a	n/a	n/a	n/a	n/a	n/a	16	7	8	1	n/a	n/a	n/a	n/a	n/a
2983533	PROB	n/a	LTP251	ltpFR	9	n/a	n/a	n/a	n/a	n/a	n/a	11	9	1	1	n/a	n/a	n/a	n/a	n/a
2987991	STOP	n/a	LTP251	ltpFR	9	n/a	n/a	n/a	n/a	n/a	n/a	n/a	n/a	n/a	n/a	n/a	n/a	n/a	n/a	n/a
2989760	REC_START	n/a	LTP251	ltpFR	9	12	n/a	n/a	n/a	n/a	n/a	n/a	0	0	0	n/a	n/a	n/a	n/a	n/a
2990229	REC_WORD	wordpools/wasnorm_wordpool_less_exclusions.txt	LTP251	ltpFR	9	12	0	GLASS	639	n/a	0	n/a	0	0	0	n/a	n/a	n/a	n/a	n/a
2991027	REC_WORD	wordpools/wasnorm_wordpool_less_exclusions.txt	LTP251	ltpFR	9	12	0	RELISH	1183	n/a	0	n/a	0	0	0	n/a	n/a	n/a	n/a	n/a
2992085	REC_WORD	wordpools/wasnorm_wordpool_less_exclusions.txt	LTP251	ltpFR	9	12	0	TOOTHPASTE	1483	n/a	1	n/a	0	0	0	n/a	n/a	n/a	n/a	n/a
2993222	REC_WORD	wordpools/wasnorm_wordpool_less_exclusions.txt	LTP251	ltpFR	9	12	0	CONE	363	n/a	0	n/a	0	0	0	n/a	n/a	n/a	n/a	n/a
2994120	REC_WORD	wordpools/wasnorm_wordpool_less_exclusions.txt	LTP251	ltpFR	9	12	0	BOOK	149	n/a	0	n/a	0	0	0	n/a	n/a	n/a	n/a	n/a
2994883	REC_WORD	wordpools/wasnorm_wordpool_less_exclusions.txt	LTP251	ltpFR	9	12	0	JOURNAL	760	n/a	0	n/a	0	0	0	n/a	n/a	n/a	n/a	n/a
2996415	REC_WORD	wordpools/wasnorm_wordpool_less_exclusions.txt	LTP251	ltpFR	9	12	0	BARN	89	n/a	1	n/a	0	0	0	n/a	n/a	n/a	n/a	n/a
3075901	REC_START	n/a	LTP251	ltpFR	9	n/a	n/a	n/a	n/a	n/a	n/a	n/a	0	0	0	n/a	n/a	n/a	n/a	n/a
3076390	FFR_REC_WORD	wordpools/wasnorm_wordpool_less_exclusions.txt	LTP251	ltpFR	9	n/a	0	GLASS	639	n/a	0	n/a	0	0	0	n/a	n/a	n/a	n/a	n/a
3077313	FFR_REC_WORD	wordpools/wasnorm_wordpool_less_exclusions.txt	LTP251	ltpFR	9	n/a	0	TOOTHPASTE	1483	n/a	1	n/a	0	0	0	n/a	n/a	n/a	n/a	n/a
3078560	FFR_REC_WORD	wordpools/wasnorm_wordpool_less_exclusions.txt	LTP251	ltpFR	9	n/a	0	RELISH	1183	n/a	0	n/a	0	0	0	n/a	n/a	n/a	n/a	n/a
3079862	FFR_REC_WORD	wordpools/wasnorm_wordpool_less_exclusions.txt	LTP251	ltpFR	9	n/a	0	CONE	363	n/a	0	n/a	0	0	0	n/a	n/a	n/a	n/a	n/a
3081174	FFR_REC_WORD	wordpools/wasnorm_wordpool_less_exclusions.txt	LTP251	ltpFR	9	n/a	0	JOURNAL	760	n/a	0	n/a	0	0	0	n/a	n/a	n/a	n/a	n/a
3082531	FFR_REC_WORD	wordpools/wasnorm_wordpool_less_exclusions.txt	LTP251	ltpFR	9	n/a	0	BOOK	149	n/a	0	n/a	0	0	0	n/a	n/a	n/a	n/a	n/a
3084057	FFR_REC_WORD	wordpools/wasnorm_wordpool_less_exclusions.txt	LTP251	ltpFR	9	n/a	0	BARN	89	n/a	1	n/a	0	0	0	n/a	n/a	n/a	n/a	n/a
3085529	FFR_REC_WORD	wordpools/wasnorm_wordpool_less_exclusions.txt	LTP251	ltpFR	9	n/a	1	BARRACUDA	90	n/a	0	n/a	0	0	0	n/a	n/a	n/a	n/a	n/a
3087095	FFR_REC_WORD	wordpools/wasnorm_wordpool_less_exclusions.txt	LTP251	ltpFR	9	n/a	1	SEAFOOD	1260	n/a	0	n/a	0	0	0	n/a	n/a	n/a	n/a	n/a
3088482	FFR_REC_WORD	wordpools/wasnorm_wordpool_less_exclusions.txt	LTP251	ltpFR	9	n/a	0	SCALLOP	1242	n/a	0	n/a	0	0	0	n/a	n/a	n/a	n/a	n/a
3092568	FFR_REC_WORD	wordpools/wasnorm_wordpool_less_exclusions.txt	LTP251	ltpFR	9	n/a	0	PONY	1102	n/a	1	n/a	0	0	0	n/a	n/a	n/a	n/a	n/a
3093690	FFR_REC_WORD	wordpools/wasnorm_wordpool_less_exclusions.txt	LTP251	ltpFR	9	n/a	0	COW	393	n/a	1	n/a	0	0	0	n/a	n/a	n/a	n/a	n/a
3094798	FFR_REC_WORD	wordpools/wasnorm_wordpool_less_exclusions.txt	LTP251	ltpFR	9	n/a	1	CATTLE	261	n/a	0	n/a	0	0	0	n/a	n/a	n/a	n/a	n/a
3096713	FFR_REC_WORD	wordpools/wasnorm_wordpool_less_exclusions.txt	LTP251	ltpFR	9	n/a	0	COLT	349	n/a	1	n/a	0	0	0	n/a	n/a	n/a	n/a	n/a
3105354	FFR_REC_WORD	wordpools/wasnorm_wordpool_less_exclusions.txt	LTP251	ltpFR	9	n/a	1	DIAMOND	458	n/a	0	n/a	0	0	0	n/a	n/a	n/a	n/a	n/a
3106536	FFR_REC_WORD	wordpools/wasnorm_wordpool_less_exclusions.txt	LTP251	ltpFR	9	n/a	0	EMERALD	528	n/a	0	n/a	0	0	0	n/a	n/a	n/a	n/a	n/a
3116005	FFR_REC_WORD	wordpools/wasnorm_wordpool_less_exclusions.txt	LTP251	ltpFR	9	n/a	0	REEF	1177	n/a	0	n/a	0	0	0	n/a	n/a	n/a	n/a	n/a
3117985	FFR_REC_WORD	wordpools/wasnorm_wordpool_less_exclusions.txt	LTP251	ltpFR	9	n/a	0	COLESLAW	344	n/a	0	n/a	0	0	0	n/a	n/a	n/a	n/a	n/a
3120240	FFR_REC_WORD	wordpools/wasnorm_wordpool_less_exclusions.txt	LTP251	ltpFR	9	n/a	0	LONDON	843	n/a	1	n/a	0	0	0	n/a	n/a	n/a	n/a	n/a
3126476	FFR_REC_WORD	wordpools/wasnorm_wordpool_less_exclusions.txt	LTP251	ltpFR	9	n/a	1	FRUIT	610	n/a	1	n/a	0	0	0	n/a	n/a	n/a	n/a	n/a
3127833	FFR_REC_WORD	wordpools/wasnorm_wordpool_less_exclusions.txt	LTP251	ltpFR	9	n/a	1	CREATURE	403	n/a	0	n/a	0	0	0	n/a	n/a	n/a	n/a	n/a
3129589	FFR_REC_WORD	wordpools/wasnorm_wordpool_less_exclusions.txt	LTP251	ltpFR	9	n/a	0	ANIMAL	23	n/a	1	n/a	0	0	0	n/a	n/a	n/a	n/a	n/a
3136802	FFR_REC_WORD	wordpools/wasnorm_wordpool_less_exclusions.txt	LTP251	ltpFR	9	n/a	1	BLUEJAY	141	n/a	1	n/a	0	0	0	n/a	n/a	n/a	n/a	n/a
3140344	FFR_REC_WORD	wordpools/wasnorm_wordpool_less_exclusions.txt	LTP251	ltpFR	9	n/a	0	SEAGULL	1261	n/a	0	n/a	0	0	0	n/a	n/a	n/a	n/a	n/a
3146316	FFR_REC_WORD	wordpools/wasnorm_wordpool_less_exclusions.txt	LTP251	ltpFR	9	n/a	1	IGLOO	734	n/a	1	n/a	0	0	0	n/a	n/a	n/a	n/a	n/a
3149838	FFR_REC_WORD	wordpools/wasnorm_wordpool_less_exclusions.txt	LTP251	ltpFR	9	n/a	1	DIRECTOR	471	n/a	0	n/a	0	0	0	n/a	n/a	n/a	n/a	n/a
3166056	FFR_REC_WORD	wordpools/wasnorm_wordpool_less_exclusions.txt	LTP251	ltpFR	9	n/a	1	PLANT	1083	n/a	1	n/a	0	0	0	n/a	n/a	n/a	n/a	n/a
3175844	FFR_REC_WORD	wordpools/wasnorm_wordpool_less_exclusions.txt	LTP251	ltpFR	9	n/a	0	GRATE	657	n/a	1	n/a	0	0	0	n/a	n/a	n/a	n/a	n/a
3198597	FFR_REC_WORD	wordpools/wasnorm_wordpool_less_exclusions.txt	LTP251	ltpFR	9	n/a	0	SKETCH	1315	n/a	0	n/a	0	0	0	n/a	n/a	n/a	n/a	n/a
3204678	FFR_REC_WORD	wordpools/wasnorm_wordpool_less_exclusions.txt	LTP251	ltpFR	9	n/a	1	PEAR	1033	n/a	1	n/a	0	0	0	n/a	n/a	n/a	n/a	n/a
3206225	FFR_REC_WORD	wordpools/wasnorm_wordpool_less_exclusions.txt	LTP251	ltpFR	9	n/a	1	DOLPHIN	483	n/a	1	n/a	0	0	0	n/a	n/a	n/a	n/a	n/a
3227032	FFR_REC_WORD	wordpools/wasnorm_wordpool_less_exclusions.txt	LTP251	ltpFR	9	n/a	0	WATER	1594	n/a	1	n/a	0	0	0	n/a	n/a	n/a	n/a	n/a
3301573	FFR_REC_WORD	wordpools/wasnorm_wordpool_less_exclusions.txt	LTP251	ltpFR	9	n/a	0	CATHEDRAL	260	n/a	1	n/a	0	0	0	n/a	n/a	n/a	n/a	n/a
3317133	FFR_REC_WORD	wordpools/wasnorm_wordpool_less_exclusions.txt	LTP251	ltpFR	9	n/a	1	COMMUNITY	356	n/a	1	n/a	0	0	0	n/a	n/a	n/a	n/a	n/a
3398953	REC_START	n/a	LTP251	ltpFR	9	1	n/a	n/a	n/a	n/a	n/a	n/a	0	0	0	n/a	n/a	n/a	n/a	n/a
3399002	RECOG_TARGET	n/a	LTP251	ltpFR	9	1	0	TOWER	1490	5	1	n/a	0	0	0	n/a	n/a	n/a	n/a	n/a
3400223	RECOG_RESP	n/a	LTP251	ltpFR	9	1	0	TOWER	1490	n/a	1	n/a	0	0	0	n/a	n/a	n/a	n/a	n/a
3401393	RECOG_CONF	n/a	LTP251	ltpFR	9	1	0	TOWER	1490	5	1	n/a	0	0	0	n/a	n/a	n/a	n/a	n/a
