onset	duration	trial_type	sample	stim_file	subject	experiment	session	trial	task	item_name	item_num	recog_conf	resp	color_b	color_g	color_r	case	font
490.536	n/a	SESS_START	245268	n/a	LTP264	ltpFR	2	n/a	n/a	n/a	n/a	3	n/a	n/a	n/a	n/a	n/a	n/a
535.664	n/a	WORD	267832	wordpools/wasnorm_wordpool_less_exclusions.txt	LTP264	ltpFR	2	1	0	DRYER	503	5	1	0	0.5869140625	0.422607421875	upper	../fonts/zerothre.ttf
539.714	n/a	WORD	269857	wordpools/wasnorm_wordpool_less_exclusions.txt	LTP264	ltpFR	2	1	0	PISTON	1076	n/a	0	0	0.5869140625	0.422607421875	upper	../fonts/zerothre.ttf
543.762	n/a	WORD	271881	wordpools/wasnorm_wordpool_less_exclusions.txt	LTP264	ltpFR	2	1	0	RADIATOR	1156	n/a	1	0	0.5869140625	0.422607421875	upper	../fonts/zerothre.ttf
547.976	n/a	WORD	273988	wordpools/wasnorm_wordpool_less_exclusions.txt	LTP264	ltpFR	2	1	1	ANTENNA	28	n/a	0	1	0.412841796875	0.57763671875	lower	../fonts/amplitud.ttf
551.992	n/a	WORD	275996	wordpools/wasnorm_wordpool_less_exclusions.txt	LTP264	ltpFR	2	1	1	TABLE	1426	n/a	1	1	0.412841796875	0.57763671875	lower	../fonts/amplitud.ttf
556.09	n/a	WORD	278045	wordpools/wasnorm_wordpool_less_exclusions.txt	LTP264	ltpFR	2	1	1	LIMOUSINE	824	n/a	0	1	0.412841796875	0.57763671875	lower	../fonts/amplitud.ttf
559.972	n/a	WORD	279986	wordpools/wasnorm_wordpool_less_exclusions.txt	LTP264	ltpFR	2	1	0	ATHLETE	52	n/a	1	0	0.5869140625	0.422607421875	upper	../fonts/zerothre.ttf
564.038	n/a	WORD	282019	wordpools/wasnorm_wordpool_less_exclusions.txt	LTP264	ltpFR	2	1	0	WICK	1607	n/a	1	0	0.5869140625	0.422607421875	upper	../fonts/zerothre.ttf
568.02	n/a	WORD	284010	wordpools/wasnorm_wordpool_less_exclusions.txt	LTP264	ltpFR	2	1	0	LACE	792	n/a	0	0	0.5869140625	0.422607421875	upper	../fonts/zerothre.ttf
572.068	n/a	WORD	286034	wordpools/wasnorm_wordpool_less_exclusions.txt	LTP264	ltpFR	2	1	1	EAGLE	512	n/a	1	1	0.412841796875	0.57763671875	lower	../fonts/amplitud.ttf
576.066	n/a	WORD	288033	wordpools/wasnorm_wordpool_less_exclusions.txt	LTP264	ltpFR	2	1	1	CROW	414	n/a	1	1	0.412841796875	0.57763671875	lower	../fonts/amplitud.ttf
580.15	n/a	WORD	290075	wordpools/wasnorm_wordpool_less_exclusions.txt	LTP264	ltpFR	2	1	1	COMB	351	n/a	0	1	0.412841796875	0.57763671875	lower	../fonts/amplitud.ttf
584.098	n/a	WORD	292049	wordpools/wasnorm_wordpool_less_exclusions.txt	LTP264	ltpFR	2	1	1	FOREHEAD	592	n/a	1	1	0.412841796875	0.57763671875	lower	../fonts/amplitud.ttf
588.114	n/a	WORD	294057	wordpools/wasnorm_wordpool_less_exclusions.txt	LTP264	ltpFR	2	1	1	DESIGNER	451	n/a	1	1	0.412841796875	0.57763671875	lower	../fonts/amplitud.ttf
592.312	n/a	WORD	296156	wordpools/wasnorm_wordpool_less_exclusions.txt	LTP264	ltpFR	2	1	0	OUTFIT	988	n/a	1	0	0.5869140625	0.422607421875	upper	../fonts/zerothre.ttf
596.194	n/a	WORD	298097	wordpools/wasnorm_wordpool_less_exclusions.txt	LTP264	ltpFR	2	1	0	SALMON	1227	n/a	1	0	0.5869140625	0.422607421875	upper	../fonts/zerothre.ttf
602.118	n/a	REC_START	301059	n/a	LTP264	ltpFR	2	1	n/a	n/a	n/a	n/a	n/a	n/a	n/a	n/a	n/a	n/a
602.702	n/a	REC_WORD	301351	wordpools/wasnorm_wordpool_less_exclusions.txt	LTP264	ltpFR	2	1	1	DESIGNER	451	n/a	1	n/a	n/a	n/a	n/a	n/a
603.504	n/a	REC_WORD	301752	wordpools/wasnorm_wordpool_less_exclusions.txt	LTP264	ltpFR	2	1	0	SALMON	1227	n/a	1	n/a	n/a	n/a	n/a	n/a
604.47	n/a	REC_WORD	302235	wordpools/wasnorm_wordpool_less_exclusions.txt	LTP264	ltpFR	2	1	0	OUTFIT	988	n/a	1	n/a	n/a	n/a	n/a	n/a
605.236	n/a	REC_WORD	302618	wordpools/wasnorm_wordpool_less_exclusions.txt	LTP264	ltpFR	2	1	0	PISTON	1076	n/a	0	n/a	n/a	n/a	n/a	n/a
605.988	n/a	REC_WORD	302994	wordpools/wasnorm_wordpool_less_exclusions.txt	LTP264	ltpFR	2	1	0	RADIATOR	1156	n/a	1	n/a	n/a	n/a	n/a	n/a
607.308	n/a	REC_WORD	303654	wordpools/wasnorm_wordpool_less_exclusions.txt	LTP264	ltpFR	2	1	0	DRYER	503	n/a	1	n/a	n/a	n/a	n/a	n/a
608.23	n/a	REC_WORD	304115	wordpools/wasnorm_wordpool_less_exclusions.txt	LTP264	ltpFR	2	1	1	EAGLE	512	n/a	1	n/a	n/a	n/a	n/a	n/a
608.808	n/a	REC_WORD	304404	wordpools/wasnorm_wordpool_less_exclusions.txt	LTP264	ltpFR	2	1	1	CROW	414	n/a	1	n/a	n/a	n/a	n/a	n/a
609.658	n/a	REC_WORD	304829	wordpools/wasnorm_wordpool_less_exclusions.txt	LTP264	ltpFR	2	1	1	COMB	351	n/a	0	n/a	n/a	n/a	n/a	n/a
610.564	n/a	REC_WORD	305282	wordpools/wasnorm_wordpool_less_exclusions.txt	LTP264	ltpFR	2	1	0	WICK	1607	n/a	1	n/a	n/a	n/a	n/a	n/a
611.308	n/a	REC_WORD	305654	wordpools/wasnorm_wordpool_less_exclusions.txt	LTP264	ltpFR	2	1	0	LACE	792	n/a	0	n/a	n/a	n/a	n/a	n/a
613.826	n/a	REC_WORD	306913	wordpools/wasnorm_wordpool_less_exclusions.txt	LTP264	ltpFR	2	1	0	ATHLETE	52	n/a	1	n/a	n/a	n/a	n/a	n/a
615.54	n/a	REC_WORD	307770	wordpools/wasnorm_wordpool_less_exclusions.txt	LTP264	ltpFR	2	1	1	FOREHEAD	592	n/a	1	n/a	n/a	n/a	n/a	n/a
683.746	n/a	WORD	341873	wordpools/wasnorm_wordpool_less_exclusions.txt	LTP264	ltpFR	2	2	1	SIDING	1304	n/a	0	1	0.412841796875	0.57763671875	lower	../fonts/amplitud.ttf
687.694	n/a	WORD	343847	wordpools/wasnorm_wordpool_less_exclusions.txt	LTP264	ltpFR	2	2	1	PRESIDENT	1121	n/a	1	1	0.412841796875	0.57763671875	lower	../fonts/amplitud.ttf
691.742	n/a	WORD	345871	wordpools/wasnorm_wordpool_less_exclusions.txt	LTP264	ltpFR	2	2	1	LEADER	807	n/a	1	1	0.412841796875	0.57763671875	lower	../fonts/amplitud.ttf
695.81	n/a	WORD	347905	wordpools/wasnorm_wordpool_less_exclusions.txt	LTP264	ltpFR	2	2	0	PENCIL	1042	n/a	1	0	0.5869140625	0.422607421875	upper	../fonts/zerothre.ttf
699.974	n/a	WORD	349987	wordpools/wasnorm_wordpool_less_exclusions.txt	LTP264	ltpFR	2	2	0	DOVE	491	n/a	0	0	0.5869140625	0.422607421875	upper	../fonts/zerothre.ttf
703.906	n/a	WORD	351953	wordpools/wasnorm_wordpool_less_exclusions.txt	LTP264	ltpFR	2	2	0	SWIMMER	1420	n/a	1	0	0.5869140625	0.422607421875	upper	../fonts/zerothre.ttf
708.104	n/a	WORD	354052	wordpools/wasnorm_wordpool_less_exclusions.txt	LTP264	ltpFR	2	2	0	SCREEN	1253	n/a	1	0	0.5869140625	0.422607421875	upper	../fonts/zerothre.ttf
711.954	n/a	WORD	355977	wordpools/wasnorm_wordpool_less_exclusions.txt	LTP264	ltpFR	2	2	1	DOOR	486	n/a	1	1	0.412841796875	0.57763671875	lower	../fonts/amplitud.ttf
716.17	n/a	WORD	358085	wordpools/wasnorm_wordpool_less_exclusions.txt	LTP264	ltpFR	2	2	1	NECKLACE	940	n/a	0	1	0.412841796875	0.57763671875	lower	../fonts/amplitud.ttf
720.032	n/a	WORD	360016	wordpools/wasnorm_wordpool_less_exclusions.txt	LTP264	ltpFR	2	2	0	PAINT	1003	n/a	0	0	0.5869140625	0.422607421875	upper	../fonts/zerothre.ttf
723.982	n/a	WORD	361991	wordpools/wasnorm_wordpool_less_exclusions.txt	LTP264	ltpFR	2	2	0	SQUID	1361	n/a	1	0	0.5869140625	0.422607421875	upper	../fonts/zerothre.ttf
727.898	n/a	WORD	363949	wordpools/wasnorm_wordpool_less_exclusions.txt	LTP264	ltpFR	2	2	0	POCKETBOOK	1094	n/a	0	0	0.5869140625	0.422607421875	upper	../fonts/zerothre.ttf
732.03	n/a	WORD	366015	wordpools/wasnorm_wordpool_less_exclusions.txt	LTP264	ltpFR	2	2	0	RUBY	1214	n/a	1	0	0.5869140625	0.422607421875	upper	../fonts/zerothre.ttf
736.212	n/a	WORD	368106	wordpools/wasnorm_wordpool_less_exclusions.txt	LTP264	ltpFR	2	2	1	NET	946	n/a	0	1	0.412841796875	0.57763671875	lower	../fonts/amplitud.ttf
740.194	n/a	WORD	370097	wordpools/wasnorm_wordpool_less_exclusions.txt	LTP264	ltpFR	2	2	1	STREAM	1392	n/a	0	1	0.412841796875	0.57763671875	lower	../fonts/amplitud.ttf
744.076	n/a	WORD	372038	wordpools/wasnorm_wordpool_less_exclusions.txt	LTP264	ltpFR	2	2	1	LAKE	796	n/a	0	1	0.412841796875	0.57763671875	lower	../fonts/amplitud.ttf
750.136	n/a	REC_START	375068	n/a	LTP264	ltpFR	2	2	n/a	n/a	n/a	n/a	n/a	n/a	n/a	n/a	n/a	n/a
752.128	n/a	REC_WORD	376064	wordpools/wasnorm_wordpool_less_exclusions.txt	LTP264	ltpFR	2	2	1	STREAM	1392	n/a	0	n/a	n/a	n/a	n/a	n/a
753.12	n/a	REC_WORD	376560	wordpools/wasnorm_wordpool_less_exclusions.txt	LTP264	ltpFR	2	2	1	LAKE	796	n/a	0	n/a	n/a	n/a	n/a	n/a
753.502	n/a	REC_WORD	376751	wordpools/wasnorm_wordpool_less_exclusions.txt	LTP264	ltpFR	2	2	1	PRESIDENT	1121	n/a	1	n/a	n/a	n/a	n/a	n/a
754.078	n/a	REC_WORD	377039	wordpools/wasnorm_wordpool_less_exclusions.txt	LTP264	ltpFR	2	2	1	SIDING	1304	n/a	0	n/a	n/a	n/a	n/a	n/a
754.876	n/a	REC_WORD	377438	wordpools/wasnorm_wordpool_less_exclusions.txt	LTP264	ltpFR	2	2	0	PENCIL	1042	n/a	1	n/a	n/a	n/a	n/a	n/a
755.726	n/a	REC_WORD	377863	wordpools/wasnorm_wordpool_less_exclusions.txt	LTP264	ltpFR	2	2	0	DOVE	491	n/a	0	n/a	n/a	n/a	n/a	n/a
757.52	n/a	REC_WORD	378760	wordpools/wasnorm_wordpool_less_exclusions.txt	LTP264	ltpFR	2	2	0	SQUID	1361	n/a	1	n/a	n/a	n/a	n/a	n/a
758.172	n/a	REC_WORD	379086	wordpools/wasnorm_wordpool_less_exclusions.txt	LTP264	ltpFR	2	2	0	POCKETBOOK	1094	n/a	0	n/a	n/a	n/a	n/a	n/a
759.114	n/a	REC_WORD	379557	wordpools/wasnorm_wordpool_less_exclusions.txt	LTP264	ltpFR	2	2	0	RUBY	1214	n/a	1	n/a	n/a	n/a	n/a	n/a
791.602	n/a	REC_WORD	395801	wordpools/wasnorm_wordpool_less_exclusions.txt	LTP264	ltpFR	2	2	1	SIDING	1304	n/a	0	n/a	n/a	n/a	n/a	n/a
793.032	n/a	REC_WORD	396516	wordpools/wasnorm_wordpool_less_exclusions.txt	LTP264	ltpFR	2	2	1	NET	946	n/a	0	n/a	n/a	n/a	n/a	n/a
794.128	n/a	REC_WORD	397064	wordpools/wasnorm_wordpool_less_exclusions.txt	LTP264	ltpFR	2	2	1	NECKLACE	940	n/a	0	n/a	n/a	n/a	n/a	n/a
796.07	n/a	REC_WORD	398035	wordpools/wasnorm_wordpool_less_exclusions.txt	LTP264	ltpFR	2	2	0	PAINT	1003	n/a	0	n/a	n/a	n/a	n/a	n/a
811.38	n/a	REC_WORD	405690	wordpools/wasnorm_wordpool_less_exclusions.txt	LTP264	ltpFR	2	2	1	DOOR	486	n/a	1	n/a	n/a	n/a	n/a	n/a
818.928	n/a	REC_WORD	409464	wordpools/wasnorm_wordpool_less_exclusions.txt	LTP264	ltpFR	2	2	1	NET	946	n/a	0	n/a	n/a	n/a	n/a	n/a
821.208	n/a	REC_WORD	410604	wordpools/wasnorm_wordpool_less_exclusions.txt	LTP264	ltpFR	2	2	0	SCREEN	1253	n/a	1	n/a	n/a	n/a	n/a	n/a
831.646	n/a	WORD	415823	wordpools/wasnorm_wordpool_less_exclusions.txt	LTP264	ltpFR	2	3	0	LIBRARY	816	n/a	1	0	0.5869140625	0.422607421875	upper	../fonts/zerothre.ttf
835.606	n/a	WORD	417803	wordpools/wasnorm_wordpool_less_exclusions.txt	LTP264	ltpFR	2	3	0	ACROBAT	4	n/a	1	0	0.5869140625	0.422607421875	upper	../fonts/zerothre.ttf
839.508	n/a	WORD	419754	wordpools/wasnorm_wordpool_less_exclusions.txt	LTP264	ltpFR	2	3	0	COLESLAW	344	n/a	0	0	0.5869140625	0.422607421875	upper	../fonts/zerothre.ttf
843.508	n/a	WORD	421754	wordpools/wasnorm_wordpool_less_exclusions.txt	LTP264	ltpFR	2	3	0	NOTE	958	n/a	1	0	0.5869140625	0.422607421875	upper	../fonts/zerothre.ttf
847.486	n/a	WORD	423743	wordpools/wasnorm_wordpool_less_exclusions.txt	LTP264	ltpFR	2	3	1	CONVENT	370	n/a	0	1	0.412841796875	0.57763671875	lower	../fonts/amplitud.ttf
851.504	n/a	WORD	425752	wordpools/wasnorm_wordpool_less_exclusions.txt	LTP264	ltpFR	2	3	1	SHORTCAKE	1292	n/a	0	1	0.412841796875	0.57763671875	lower	../fonts/amplitud.ttf
855.666	n/a	WORD	427833	wordpools/wasnorm_wordpool_less_exclusions.txt	LTP264	ltpFR	2	3	1	PICNIC	1060	n/a	0	1	0.412841796875	0.57763671875	lower	../fonts/amplitud.ttf
859.75	n/a	WORD	429875	wordpools/wasnorm_wordpool_less_exclusions.txt	LTP264	ltpFR	2	3	0	DONKEY	484	n/a	1	0	0.5869140625	0.422607421875	upper	../fonts/zerothre.ttf
863.964	n/a	WORD	431982	wordpools/wasnorm_wordpool_less_exclusions.txt	LTP264	ltpFR	2	3	0	HORSE	719	n/a	1	0	0.5869140625	0.422607421875	upper	../fonts/zerothre.ttf
867.934	n/a	WORD	433967	wordpools/wasnorm_wordpool_less_exclusions.txt	LTP264	ltpFR	2	3	0	JOINT	758	n/a	1	0	0.5869140625	0.422607421875	upper	../fonts/zerothre.ttf
872.082	n/a	WORD	436041	wordpools/wasnorm_wordpool_less_exclusions.txt	LTP264	ltpFR	2	3	0	GANG	619	n/a	1	0	0.5869140625	0.422607421875	upper	../fonts/zerothre.ttf
876.046	n/a	WORD	438023	wordpools/wasnorm_wordpool_less_exclusions.txt	LTP264	ltpFR	2	3	1	PEOPLE	1046	n/a	1	1	0.412841796875	0.57763671875	lower	../fonts/amplitud.ttf
880.196	n/a	WORD	440098	wordpools/wasnorm_wordpool_less_exclusions.txt	LTP264	ltpFR	2	3	1	HOUND	724	n/a	1	1	0.412841796875	0.57763671875	lower	../fonts/amplitud.ttf
884.078	n/a	WORD	442039	wordpools/wasnorm_wordpool_less_exclusions.txt	LTP264	ltpFR	2	3	1	PORTRAIT	1111	n/a	0	1	0.412841796875	0.57763671875	lower	../fonts/amplitud.ttf
888.01	n/a	WORD	444005	wordpools/wasnorm_wordpool_less_exclusions.txt	LTP264	ltpFR	2	3	1	CAULIFLOWER	262	n/a	1	1	0.412841796875	0.57763671875	lower	../fonts/amplitud.ttf
892.008	n/a	WORD	446004	wordpools/wasnorm_wordpool_less_exclusions.txt	LTP264	ltpFR	2	3	1	CHURCH	307	n/a	1	1	0.412841796875	0.57763671875	lower	../fonts/amplitud.ttf
897.964	n/a	REC_START	448982	n/a	LTP264	ltpFR	2	3	n/a	n/a	n/a	n/a	n/a	n/a	n/a	n/a	n/a	n/a
899.238	n/a	REC_WORD	449619	wordpools/wasnorm_wordpool_less_exclusions.txt	LTP264	ltpFR	2	3	0	LIBRARY	816	n/a	1	n/a	n/a	n/a	n/a	n/a
900.344	n/a	REC_WORD	450172	wordpools/wasnorm_wordpool_less_exclusions.txt	LTP264	ltpFR	2	3	0	ACROBAT	4	n/a	1	n/a	n/a	n/a	n/a	n/a
901.4	n/a	REC_WORD	450700	wordpools/wasnorm_wordpool_less_exclusions.txt	LTP264	ltpFR	2	3	0	COLESLAW	344	n/a	0	n/a	n/a	n/a	n/a	n/a
903.014	n/a	REC_WORD	451507	wordpools/wasnorm_wordpool_less_exclusions.txt	LTP264	ltpFR	2	3	1	CONVENT	370	n/a	0	n/a	n/a	n/a	n/a	n/a
904.412	n/a	REC_WORD	452206	wordpools/wasnorm_wordpool_less_exclusions.txt	LTP264	ltpFR	2	3	0	HORSE	719	n/a	1	n/a	n/a	n/a	n/a	n/a
905.55	n/a	REC_WORD	452775	wordpools/wasnorm_wordpool_less_exclusions.txt	LTP264	ltpFR	2	3	0	DONKEY	484	n/a	1	n/a	n/a	n/a	n/a	n/a
907.914	n/a	REC_WORD	453957	wordpools/wasnorm_wordpool_less_exclusions.txt	LTP264	ltpFR	2	3	0	JOINT	758	n/a	1	n/a	n/a	n/a	n/a	n/a
913.192	n/a	REC_WORD	456596	wordpools/wasnorm_wordpool_less_exclusions.txt	LTP264	ltpFR	2	3	1	PICNIC	1060	n/a	0	n/a	n/a	n/a	n/a	n/a
915.962	n/a	REC_WORD	457981	wordpools/wasnorm_wordpool_less_exclusions.txt	LTP264	ltpFR	2	3	1	CHURCH	307	n/a	1	n/a	n/a	n/a	n/a	n/a
917.18	n/a	REC_WORD	458590	wordpools/wasnorm_wordpool_less_exclusions.txt	LTP264	ltpFR	2	3	0	GANG	619	n/a	1	n/a	n/a	n/a	n/a	n/a
918.06	n/a	REC_WORD	459030	wordpools/wasnorm_wordpool_less_exclusions.txt	LTP264	ltpFR	2	3	1	PEOPLE	1046	n/a	1	n/a	n/a	n/a	n/a	n/a
924.538	n/a	REC_WORD	462269	wordpools/wasnorm_wordpool_less_exclusions.txt	LTP264	ltpFR	2	3	1	CAULIFLOWER	262	n/a	1	n/a	n/a	n/a	n/a	n/a
925.346	n/a	REC_WORD	462673	wordpools/wasnorm_wordpool_less_exclusions.txt	LTP264	ltpFR	2	3	1	PORTRAIT	1111	n/a	0	n/a	n/a	n/a	n/a	n/a
984.044	n/a	WORD	492022	wordpools/wasnorm_wordpool_less_exclusions.txt	LTP264	ltpFR	2	4	0	OBOE	969	n/a	0	0	0.5869140625	0.422607421875	upper	../fonts/zerothre.ttf
988.242	n/a	WORD	494121	wordpools/wasnorm_wordpool_less_exclusions.txt	LTP264	ltpFR	2	4	0	WAITRESS	1581	n/a	1	0	0.5869140625	0.422607421875	upper	../fonts/zerothre.ttf
992.324	n/a	WORD	496162	wordpools/wasnorm_wordpool_less_exclusions.txt	LTP264	ltpFR	2	4	0	BLANKET	135	n/a	1	0	0.5869140625	0.422607421875	upper	../fonts/zerothre.ttf
996.492	n/a	WORD	498246	wordpools/wasnorm_wordpool_less_exclusions.txt	LTP264	ltpFR	2	4	0	WHEEL	1603	n/a	1	0	0.5869140625	0.422607421875	upper	../fonts/zerothre.ttf
1000.674	n/a	WORD	500337	wordpools/wasnorm_wordpool_less_exclusions.txt	LTP264	ltpFR	2	4	0	BALCONY	72	n/a	1	0	0.5869140625	0.422607421875	upper	../fonts/zerothre.ttf
1004.706	n/a	WORD	502353	wordpools/wasnorm_wordpool_less_exclusions.txt	LTP264	ltpFR	2	4	0	PAGE	1001	n/a	1	0	0.5869140625	0.422607421875	upper	../fonts/zerothre.ttf
1008.838	n/a	WORD	504419	wordpools/wasnorm_wordpool_less_exclusions.txt	LTP264	ltpFR	2	4	0	BUS	201	n/a	1	0	0.5869140625	0.422607421875	upper	../fonts/zerothre.ttf
1012.888	n/a	WORD	506444	wordpools/wasnorm_wordpool_less_exclusions.txt	LTP264	ltpFR	2	4	0	SHEPHERD	1283	n/a	1	0	0.5869140625	0.422607421875	upper	../fonts/zerothre.ttf
1017.002	n/a	WORD	508501	wordpools/wasnorm_wordpool_less_exclusions.txt	LTP264	ltpFR	2	4	0	SHEEP	1278	n/a	1	0	0.5869140625	0.422607421875	upper	../fonts/zerothre.ttf
1021.186	n/a	WORD	510593	wordpools/wasnorm_wordpool_less_exclusions.txt	LTP264	ltpFR	2	4	0	SAXOPHONE	1240	n/a	1	0	0.5869140625	0.422607421875	upper	../fonts/zerothre.ttf
1025.116	n/a	WORD	512558	wordpools/wasnorm_wordpool_less_exclusions.txt	LTP264	ltpFR	2	4	0	COURSE	390	n/a	0	0	0.5869140625	0.422607421875	upper	../fonts/zerothre.ttf
1029.166	n/a	WORD	514583	wordpools/wasnorm_wordpool_less_exclusions.txt	LTP264	ltpFR	2	4	0	CLIFF	322	n/a	1	0	0.5869140625	0.422607421875	upper	../fonts/zerothre.ttf
1033.182	n/a	WORD	516591	wordpools/wasnorm_wordpool_less_exclusions.txt	LTP264	ltpFR	2	4	0	MESSAGE	888	n/a	1	0	0.5869140625	0.422607421875	upper	../fonts/zerothre.ttf
1037.03	n/a	WORD	518515	wordpools/wasnorm_wordpool_less_exclusions.txt	LTP264	ltpFR	2	4	0	BILL	126	n/a	0	0	0.5869140625	0.422607421875	upper	../fonts/zerothre.ttf
1041.078	n/a	WORD	520539	wordpools/wasnorm_wordpool_less_exclusions.txt	LTP264	ltpFR	2	4	0	POWDER	1117	n/a	0	0	0.5869140625	0.422607421875	upper	../fonts/zerothre.ttf
1045.276	n/a	WORD	522638	wordpools/wasnorm_wordpool_less_exclusions.txt	LTP264	ltpFR	2	4	0	GLASSES	640	n/a	1	0	0.5869140625	0.422607421875	upper	../fonts/zerothre.ttf
1051.032	n/a	REC_START	525516	n/a	LTP264	ltpFR	2	4	n/a	n/a	n/a	n/a	n/a	n/a	n/a	n/a	n/a	n/a
1052.144	n/a	REC_WORD	526072	wordpools/wasnorm_wordpool_less_exclusions.txt	LTP264	ltpFR	2	4	0	MESSAGE	888	n/a	1	n/a	n/a	n/a	n/a	n/a
1053.132	n/a	REC_WORD	526566	wordpools/wasnorm_wordpool_less_exclusions.txt	LTP264	ltpFR	2	4	0	BILL	126	n/a	0	n/a	n/a	n/a	n/a	n/a
1053.758	n/a	REC_WORD	526879	wordpools/wasnorm_wordpool_less_exclusions.txt	LTP264	ltpFR	2	4	0	POWDER	1117	n/a	0	n/a	n/a	n/a	n/a	n/a
1054.542	n/a	REC_WORD	527271	wordpools/wasnorm_wordpool_less_exclusions.txt	LTP264	ltpFR	2	4	0	GLASSES	640	n/a	1	n/a	n/a	n/a	n/a	n/a
1055.476	n/a	REC_WORD	527738	wordpools/wasnorm_wordpool_less_exclusions.txt	LTP264	ltpFR	2	4	0	WAITRESS	1581	n/a	1	n/a	n/a	n/a	n/a	n/a
1056.24	n/a	REC_WORD	528120	wordpools/wasnorm_wordpool_less_exclusions.txt	LTP264	ltpFR	2	4	0	BLANKET	135	n/a	1	n/a	n/a	n/a	n/a	n/a
1056.958	n/a	REC_WORD	528479	wordpools/wasnorm_wordpool_less_exclusions.txt	LTP264	ltpFR	2	4	0	OBOE	969	n/a	0	n/a	n/a	n/a	n/a	n/a
1057.644	n/a	REC_WORD	528822	wordpools/wasnorm_wordpool_less_exclusions.txt	LTP264	ltpFR	2	4	0	BALCONY	72	n/a	1	n/a	n/a	n/a	n/a	n/a
1058.716	n/a	REC_WORD	529358	wordpools/wasnorm_wordpool_less_exclusions.txt	LTP264	ltpFR	2	4	0	SHEPHERD	1283	n/a	1	n/a	n/a	n/a	n/a	n/a
1059.466	n/a	REC_WORD	529733	wordpools/wasnorm_wordpool_less_exclusions.txt	LTP264	ltpFR	2	4	0	SHEEP	1278	n/a	1	n/a	n/a	n/a	n/a	n/a
1060.076	n/a	REC_WORD	530038	wordpools/wasnorm_wordpool_less_exclusions.txt	LTP264	ltpFR	2	4	0	SAXOPHONE	1240	n/a	1	n/a	n/a	n/a	n/a	n/a
1061.002	n/a	REC_WORD	530501	wordpools/wasnorm_wordpool_less_exclusions.txt	LTP264	ltpFR	2	4	0	BUS	201	n/a	1	n/a	n/a	n/a	n/a	n/a
1061.604	n/a	REC_WORD	530802	wordpools/wasnorm_wordpool_less_exclusions.txt	LTP264	ltpFR	2	4	0	PAGE	1001	n/a	1	n/a	n/a	n/a	n/a	n/a
1066.978	n/a	REC_WORD	533489	wordpools/wasnorm_wordpool_less_exclusions.txt	LTP264	ltpFR	2	4	0	BILL	126	n/a	0	n/a	n/a	n/a	n/a	n/a
1093.868	n/a	REC_WORD	546934	wordpools/wasnorm_wordpool_less_exclusions.txt	LTP264	ltpFR	2	4	0	CLIFF	322	n/a	1	n/a	n/a	n/a	n/a	n/a
1137.882	n/a	WORD	568941	wordpools/wasnorm_wordpool_less_exclusions.txt	LTP264	ltpFR	2	5	-1	BARLEY	88	n/a	-1	1	1.0	1.0	upper	../fonts/Verdana.ttf
1141.73	n/a	WORD	570865	wordpools/wasnorm_wordpool_less_exclusions.txt	LTP264	ltpFR	2	5	-1	ROOSTER	1209	n/a	-1	1	1.0	1.0	upper	../fonts/Verdana.ttf
1145.578	n/a	WORD	572789	wordpools/wasnorm_wordpool_less_exclusions.txt	LTP264	ltpFR	2	5	-1	KITE	779	n/a	-1	1	1.0	1.0	upper	../fonts/Verdana.ttf
1149.724	n/a	WORD	574862	wordpools/wasnorm_wordpool_less_exclusions.txt	LTP264	ltpFR	2	5	-1	PEAR	1033	n/a	-1	1	1.0	1.0	upper	../fonts/Verdana.ttf
1153.69	n/a	WORD	576845	wordpools/wasnorm_wordpool_less_exclusions.txt	LTP264	ltpFR	2	5	-1	TOWN	1491	n/a	-1	1	1.0	1.0	upper	../fonts/Verdana.ttf
1157.724	n/a	WORD	578862	wordpools/wasnorm_wordpool_less_exclusions.txt	LTP264	ltpFR	2	5	-1	JEWEL	757	n/a	-1	1	1.0	1.0	upper	../fonts/Verdana.ttf
1161.572	n/a	WORD	580786	wordpools/wasnorm_wordpool_less_exclusions.txt	LTP264	ltpFR	2	5	-1	RING	1193	n/a	-1	1	1.0	1.0	upper	../fonts/Verdana.ttf
1165.672	n/a	WORD	582836	wordpools/wasnorm_wordpool_less_exclusions.txt	LTP264	ltpFR	2	5	-1	RAZOR	1171	n/a	-1	1	1.0	1.0	upper	../fonts/Verdana.ttf
1169.718	n/a	WORD	584859	wordpools/wasnorm_wordpool_less_exclusions.txt	LTP264	ltpFR	2	5	-1	SHEARS	1276	n/a	-1	1	1.0	1.0	upper	../fonts/Verdana.ttf
1173.652	n/a	WORD	586826	wordpools/wasnorm_wordpool_less_exclusions.txt	LTP264	ltpFR	2	5	-1	MOTEL	919	n/a	-1	1	1.0	1.0	upper	../fonts/Verdana.ttf
1177.718	n/a	WORD	588859	wordpools/wasnorm_wordpool_less_exclusions.txt	LTP264	ltpFR	2	5	-1	NEWSPAPER	948	n/a	-1	1	1.0	1.0	upper	../fonts/Verdana.ttf
1181.746	n/a	WORD	590873	wordpools/wasnorm_wordpool_less_exclusions.txt	LTP264	ltpFR	2	5	-1	SEAGULL	1261	n/a	-1	1	1.0	1.0	upper	../fonts/Verdana.ttf
1185.666	n/a	WORD	592833	wordpools/wasnorm_wordpool_less_exclusions.txt	LTP264	ltpFR	2	5	-1	SMOG	1330	n/a	-1	1	1.0	1.0	upper	../fonts/Verdana.ttf
1189.78	n/a	WORD	594890	wordpools/wasnorm_wordpool_less_exclusions.txt	LTP264	ltpFR	2	5	-1	SUITE	1404	n/a	-1	1	1.0	1.0	upper	../fonts/Verdana.ttf
1193.88	n/a	WORD	596940	wordpools/wasnorm_wordpool_less_exclusions.txt	LTP264	ltpFR	2	5	-1	PLANET	1082	n/a	-1	1	1.0	1.0	upper	../fonts/Verdana.ttf
1197.994	n/a	WORD	598997	wordpools/wasnorm_wordpool_less_exclusions.txt	LTP264	ltpFR	2	5	-1	CLOUD	328	n/a	-1	1	1.0	1.0	upper	../fonts/Verdana.ttf
1204.102	n/a	REC_START	602051	n/a	LTP264	ltpFR	2	5	n/a	n/a	n/a	n/a	n/a	n/a	n/a	n/a	n/a	n/a
1205.76	n/a	REC_WORD	602880	wordpools/wasnorm_wordpool_less_exclusions.txt	LTP264	ltpFR	2	5	-1	SUITE	1404	n/a	-1	n/a	n/a	n/a	n/a	n/a
1206.748	n/a	REC_WORD	603374	wordpools/wasnorm_wordpool_less_exclusions.txt	LTP264	ltpFR	2	5	-1	PLANET	1082	n/a	-1	n/a	n/a	n/a	n/a	n/a
1207.69	n/a	REC_WORD	603845	wordpools/wasnorm_wordpool_less_exclusions.txt	LTP264	ltpFR	2	5	-1	CLOUD	328	n/a	-1	n/a	n/a	n/a	n/a	n/a
1210.018	n/a	REC_WORD	605009	wordpools/wasnorm_wordpool_less_exclusions.txt	LTP264	ltpFR	2	5	-1	JEWEL	757	n/a	-1	n/a	n/a	n/a	n/a	n/a
1211.012	n/a	REC_WORD	605506	wordpools/wasnorm_wordpool_less_exclusions.txt	LTP264	ltpFR	2	5	-1	RING	1193	n/a	-1	n/a	n/a	n/a	n/a	n/a
1212.022	n/a	REC_WORD	606011	wordpools/wasnorm_wordpool_less_exclusions.txt	LTP264	ltpFR	2	5	-1	NEWSPAPER	948	n/a	-1	n/a	n/a	n/a	n/a	n/a
1213.08	n/a	REC_WORD	606540	wordpools/wasnorm_wordpool_less_exclusions.txt	LTP264	ltpFR	2	5	-1	SHEARS	1276	n/a	-1	n/a	n/a	n/a	n/a	n/a
1214.328	n/a	REC_WORD	607164	wordpools/wasnorm_wordpool_less_exclusions.txt	LTP264	ltpFR	2	5	-1	MOTEL	919	n/a	-1	n/a	n/a	n/a	n/a	n/a
1215.538	n/a	REC_WORD	607769	wordpools/wasnorm_wordpool_less_exclusions.txt	LTP264	ltpFR	2	5	-1	ROOSTER	1209	n/a	-1	n/a	n/a	n/a	n/a	n/a
1216.352	n/a	REC_WORD	608176	wordpools/wasnorm_wordpool_less_exclusions.txt	LTP264	ltpFR	2	5	-1	PEAR	1033	n/a	-1	n/a	n/a	n/a	n/a	n/a
1217.454	n/a	REC_WORD	608727	wordpools/wasnorm_wordpool_less_exclusions.txt	LTP264	ltpFR	2	5	-1	KITE	779	n/a	-1	n/a	n/a	n/a	n/a	n/a
1218.368	n/a	REC_WORD	609184	wordpools/wasnorm_wordpool_less_exclusions.txt	LTP264	ltpFR	2	5	-1	BARLEY	88	n/a	-1	n/a	n/a	n/a	n/a	n/a
1235.058	n/a	REC_WORD	617529	wordpools/wasnorm_wordpool_less_exclusions.txt	LTP264	ltpFR	2	5	-1	SMOG	1330	n/a	-1	n/a	n/a	n/a	n/a	n/a
1248.64	n/a	REC_WORD	624320	wordpools/wasnorm_wordpool_less_exclusions.txt	LTP264	ltpFR	2	5	-1	TOWN	1491	n/a	-1	n/a	n/a	n/a	n/a	n/a
1249.844	n/a	REC_WORD	624922	wordpools/wasnorm_wordpool_less_exclusions.txt	LTP264	ltpFR	2	5	-1	NEWSPAPER	948	n/a	-1	n/a	n/a	n/a	n/a	n/a
1288.792	n/a	WORD	644396	wordpools/wasnorm_wordpool_less_exclusions.txt	LTP264	ltpFR	2	6	1	SHELL	1281	n/a	0	1	0.412841796875	0.57763671875	lower	../fonts/amplitud.ttf
1292.84	n/a	WORD	646420	wordpools/wasnorm_wordpool_less_exclusions.txt	LTP264	ltpFR	2	6	1	CAGE	218	n/a	0	1	0.412841796875	0.57763671875	lower	../fonts/amplitud.ttf
1296.856	n/a	WORD	648428	wordpools/wasnorm_wordpool_less_exclusions.txt	LTP264	ltpFR	2	6	1	FIELD	562	n/a	1	1	0.412841796875	0.57763671875	lower	../fonts/amplitud.ttf
1301.054	n/a	WORD	650527	wordpools/wasnorm_wordpool_less_exclusions.txt	LTP264	ltpFR	2	6	1	COACH	331	n/a	0	1	0.412841796875	0.57763671875	lower	../fonts/amplitud.ttf
1305.02	n/a	WORD	652510	wordpools/wasnorm_wordpool_less_exclusions.txt	LTP264	ltpFR	2	6	0	SEED	1266	n/a	0	0	0.5869140625	0.422607421875	upper	../fonts/zerothre.ttf
1309.152	n/a	WORD	654576	wordpools/wasnorm_wordpool_less_exclusions.txt	LTP264	ltpFR	2	6	0	VEST	1559	n/a	0	0	0.5869140625	0.422607421875	upper	../fonts/zerothre.ttf
1313.15	n/a	WORD	656575	wordpools/wasnorm_wordpool_less_exclusions.txt	LTP264	ltpFR	2	6	1	MIRROR	899	n/a	0	1	0.412841796875	0.57763671875	lower	../fonts/amplitud.ttf
1317.28	n/a	WORD	658640	wordpools/wasnorm_wordpool_less_exclusions.txt	LTP264	ltpFR	2	6	1	FEMALE	559	n/a	1	1	0.412841796875	0.57763671875	lower	../fonts/amplitud.ttf
1321.366	n/a	WORD	660683	wordpools/wasnorm_wordpool_less_exclusions.txt	LTP264	ltpFR	2	6	0	UMPIRE	1535	n/a	1	0	0.5869140625	0.422607421875	upper	../fonts/zerothre.ttf
1325.416	n/a	WORD	662708	wordpools/wasnorm_wordpool_less_exclusions.txt	LTP264	ltpFR	2	6	0	TICKET	1464	n/a	1	0	0.5869140625	0.422607421875	upper	../fonts/zerothre.ttf
1329.398	n/a	WORD	664699	wordpools/wasnorm_wordpool_less_exclusions.txt	LTP264	ltpFR	2	6	0	TWISTER	1530	n/a	1	0	0.5869140625	0.422607421875	upper	../fonts/zerothre.ttf
1333.376	n/a	WORD	666688	wordpools/wasnorm_wordpool_less_exclusions.txt	LTP264	ltpFR	2	6	0	QUAIL	1147	n/a	0	0	0.5869140625	0.422607421875	upper	../fonts/zerothre.ttf
1337.358	n/a	WORD	668679	wordpools/wasnorm_wordpool_less_exclusions.txt	LTP264	ltpFR	2	6	0	PLANT	1083	n/a	0	0	0.5869140625	0.422607421875	upper	../fonts/zerothre.ttf
1341.558	n/a	WORD	670779	wordpools/wasnorm_wordpool_less_exclusions.txt	LTP264	ltpFR	2	6	0	SNAKE	1333	n/a	1	0	0.5869140625	0.422607421875	upper	../fonts/zerothre.ttf
1345.476	n/a	WORD	672738	wordpools/wasnorm_wordpool_less_exclusions.txt	LTP264	ltpFR	2	6	1	SERPENT	1270	n/a	0	1	0.412841796875	0.57763671875	lower	../fonts/amplitud.ttf
1349.59	n/a	WORD	674795	wordpools/wasnorm_wordpool_less_exclusions.txt	LTP264	ltpFR	2	6	1	SHOELACE	1289	n/a	1	1	0.412841796875	0.57763671875	lower	../fonts/amplitud.ttf
1355.33	n/a	REC_START	677665	n/a	LTP264	ltpFR	2	6	n/a	n/a	n/a	n/a	n/a	n/a	n/a	n/a	n/a	n/a
1356.576	n/a	REC_WORD	678288	wordpools/wasnorm_wordpool_less_exclusions.txt	LTP264	ltpFR	2	6	0	SNAKE	1333	n/a	1	n/a	n/a	n/a	n/a	n/a
1357.296	n/a	REC_WORD	678648	wordpools/wasnorm_wordpool_less_exclusions.txt	LTP264	ltpFR	2	6	1	SERPENT	1270	n/a	0	n/a	n/a	n/a	n/a	n/a
1358.382	n/a	REC_WORD	679191	wordpools/wasnorm_wordpool_less_exclusions.txt	LTP264	ltpFR	2	6	1	SHOELACE	1289	n/a	1	n/a	n/a	n/a	n/a	n/a
1359.366	n/a	REC_WORD	679683	wordpools/wasnorm_wordpool_less_exclusions.txt	LTP264	ltpFR	2	6	1	FIELD	562	n/a	1	n/a	n/a	n/a	n/a	n/a
1360.618	n/a	REC_WORD	680309	wordpools/wasnorm_wordpool_less_exclusions.txt	LTP264	ltpFR	2	6	1	CAGE	218	n/a	0	n/a	n/a	n/a	n/a	n/a
1361.258	n/a	REC_WORD	680629	wordpools/wasnorm_wordpool_less_exclusions.txt	LTP264	ltpFR	2	6	1	SHELL	1281	n/a	0	n/a	n/a	n/a	n/a	n/a
1361.976	n/a	REC_WORD	680988	wordpools/wasnorm_wordpool_less_exclusions.txt	LTP264	ltpFR	2	6	1	MIRROR	899	n/a	0	n/a	n/a	n/a	n/a	n/a
1362.86	n/a	REC_WORD	681430	wordpools/wasnorm_wordpool_less_exclusions.txt	LTP264	ltpFR	2	6	1	FEMALE	559	n/a	1	n/a	n/a	n/a	n/a	n/a
1364.338	n/a	REC_WORD	682169	wordpools/wasnorm_wordpool_less_exclusions.txt	LTP264	ltpFR	2	6	0	UMPIRE	1535	n/a	1	n/a	n/a	n/a	n/a	n/a
1366.58	n/a	REC_WORD	683290	wordpools/wasnorm_wordpool_less_exclusions.txt	LTP264	ltpFR	2	6	1	COACH	331	n/a	0	n/a	n/a	n/a	n/a	n/a
1368.872	n/a	REC_WORD	684436	wordpools/wasnorm_wordpool_less_exclusions.txt	LTP264	ltpFR	2	6	0	SEED	1266	n/a	0	n/a	n/a	n/a	n/a	n/a
1369.768	n/a	REC_WORD	684884	wordpools/wasnorm_wordpool_less_exclusions.txt	LTP264	ltpFR	2	6	0	VEST	1559	n/a	0	n/a	n/a	n/a	n/a	n/a
1373.348	n/a	REC_WORD	686674	wordpools/wasnorm_wordpool_less_exclusions.txt	LTP264	ltpFR	2	6	0	TWISTER	1530	n/a	1	n/a	n/a	n/a	n/a	n/a
1374.278	n/a	REC_WORD	687139	wordpools/wasnorm_wordpool_less_exclusions.txt	LTP264	ltpFR	2	6	0	QUAIL	1147	n/a	0	n/a	n/a	n/a	n/a	n/a
1434.114	n/a	WORD	717057	wordpools/wasnorm_wordpool_less_exclusions.txt	LTP264	ltpFR	2	7	-1	BAND	78	n/a	-1	1	1.0	1.0	upper	../fonts/Verdana.ttf
1438.242	n/a	WORD	719121	wordpools/wasnorm_wordpool_less_exclusions.txt	LTP264	ltpFR	2	7	-1	PIANO	1057	n/a	-1	1	1.0	1.0	upper	../fonts/Verdana.ttf
1442.194	n/a	WORD	721097	wordpools/wasnorm_wordpool_less_exclusions.txt	LTP264	ltpFR	2	7	-1	BEEF	113	n/a	-1	1	1.0	1.0	upper	../fonts/Verdana.ttf
1446.41	n/a	WORD	723205	wordpools/wasnorm_wordpool_less_exclusions.txt	LTP264	ltpFR	2	7	-1	HERD	705	n/a	-1	1	1.0	1.0	upper	../fonts/Verdana.ttf
1450.342	n/a	WORD	725171	wordpools/wasnorm_wordpool_less_exclusions.txt	LTP264	ltpFR	2	7	-1	BAKER	71	n/a	-1	1	1.0	1.0	upper	../fonts/Verdana.ttf
1454.442	n/a	WORD	727221	wordpools/wasnorm_wordpool_less_exclusions.txt	LTP264	ltpFR	2	7	-1	TORCH	1484	n/a	-1	1	1.0	1.0	upper	../fonts/Verdana.ttf
1458.322	n/a	WORD	729161	wordpools/wasnorm_wordpool_less_exclusions.txt	LTP264	ltpFR	2	7	-1	VACUUM	1543	n/a	-1	1	1.0	1.0	upper	../fonts/Verdana.ttf
1462.234	n/a	WORD	731117	wordpools/wasnorm_wordpool_less_exclusions.txt	LTP264	ltpFR	2	7	-1	APPENDAGE	32	n/a	-1	1	1.0	1.0	upper	../fonts/Verdana.ttf
1466.068	n/a	WORD	733034	wordpools/wasnorm_wordpool_less_exclusions.txt	LTP264	ltpFR	2	7	-1	BISCUIT	130	n/a	-1	1	1.0	1.0	upper	../fonts/Verdana.ttf
1470.018	n/a	WORD	735009	wordpools/wasnorm_wordpool_less_exclusions.txt	LTP264	ltpFR	2	7	-1	SPACE	1345	n/a	-1	1	1.0	1.0	upper	../fonts/Verdana.ttf
1473.93	n/a	WORD	736965	wordpools/wasnorm_wordpool_less_exclusions.txt	LTP264	ltpFR	2	7	-1	BOX	159	n/a	-1	1	1.0	1.0	upper	../fonts/Verdana.ttf
1477.948	n/a	WORD	738974	wordpools/wasnorm_wordpool_less_exclusions.txt	LTP264	ltpFR	2	7	-1	DRAGON	492	n/a	-1	1	1.0	1.0	upper	../fonts/Verdana.ttf
1482.13	n/a	WORD	741065	wordpools/wasnorm_wordpool_less_exclusions.txt	LTP264	ltpFR	2	7	-1	WITCH	1617	n/a	-1	1	1.0	1.0	upper	../fonts/Verdana.ttf
1486.212	n/a	WORD	743106	wordpools/wasnorm_wordpool_less_exclusions.txt	LTP264	ltpFR	2	7	-1	GOBLIN	645	n/a	-1	1	1.0	1.0	upper	../fonts/Verdana.ttf
1490.394	n/a	WORD	745197	wordpools/wasnorm_wordpool_less_exclusions.txt	LTP264	ltpFR	2	7	-1	SHOWER	1296	n/a	-1	1	1.0	1.0	upper	../fonts/Verdana.ttf
1494.376	n/a	WORD	747188	wordpools/wasnorm_wordpool_less_exclusions.txt	LTP264	ltpFR	2	7	-1	DOUGHNUT	490	n/a	-1	1	1.0	1.0	upper	../fonts/Verdana.ttf
1500.334	n/a	REC_START	750167	n/a	LTP264	ltpFR	2	7	n/a	n/a	n/a	n/a	n/a	n/a	n/a	n/a	n/a	n/a
1501.434	n/a	REC_WORD	750717	wordpools/wasnorm_wordpool_less_exclusions.txt	LTP264	ltpFR	2	7	-1	SHOWER	1296	n/a	-1	n/a	n/a	n/a	n/a	n/a
1502.508	n/a	REC_WORD	751254	wordpools/wasnorm_wordpool_less_exclusions.txt	LTP264	ltpFR	2	7	-1	DOUGHNUT	490	n/a	-1	n/a	n/a	n/a	n/a	n/a
1503.14	n/a	REC_WORD	751570	wordpools/wasnorm_wordpool_less_exclusions.txt	LTP264	ltpFR	2	7	-1	DRAGON	492	n/a	-1	n/a	n/a	n/a	n/a	n/a
1504.05	n/a	REC_WORD	752025	wordpools/wasnorm_wordpool_less_exclusions.txt	LTP264	ltpFR	2	7	-1	WITCH	1617	n/a	-1	n/a	n/a	n/a	n/a	n/a
1504.634	n/a	REC_WORD	752317	wordpools/wasnorm_wordpool_less_exclusions.txt	LTP264	ltpFR	2	7	-1	GOBLIN	645	n/a	-1	n/a	n/a	n/a	n/a	n/a
1506.542	n/a	REC_WORD	753271	wordpools/wasnorm_wordpool_less_exclusions.txt	LTP264	ltpFR	2	7	-1	BAKER	71	n/a	-1	n/a	n/a	n/a	n/a	n/a
1508.59	n/a	REC_WORD	754295	wordpools/wasnorm_wordpool_less_exclusions.txt	LTP264	ltpFR	2	7	-1	PIANO	1057	n/a	-1	n/a	n/a	n/a	n/a	n/a
1510.508	n/a	REC_WORD	755254	wordpools/wasnorm_wordpool_less_exclusions.txt	LTP264	ltpFR	2	7	-1	BEEF	113	n/a	-1	n/a	n/a	n/a	n/a	n/a
1512.89	n/a	REC_WORD	756445	wordpools/wasnorm_wordpool_less_exclusions.txt	LTP264	ltpFR	2	7	-1	VACUUM	1543	n/a	-1	n/a	n/a	n/a	n/a	n/a
1514.22	n/a	REC_WORD	757110	wordpools/wasnorm_wordpool_less_exclusions.txt	LTP264	ltpFR	2	7	-1	BAND	78	n/a	-1	n/a	n/a	n/a	n/a	n/a
1517.512	n/a	REC_WORD	758756	wordpools/wasnorm_wordpool_less_exclusions.txt	LTP264	ltpFR	2	7	-1	SPACE	1345	n/a	-1	n/a	n/a	n/a	n/a	n/a
1519.47	n/a	REC_WORD	759735	wordpools/wasnorm_wordpool_less_exclusions.txt	LTP264	ltpFR	2	7	-1	BISCUIT	130	n/a	-1	n/a	n/a	n/a	n/a	n/a
1521.416	n/a	REC_WORD	760708	wordpools/wasnorm_wordpool_less_exclusions.txt	LTP264	ltpFR	2	7	-1	BOX	159	n/a	-1	n/a	n/a	n/a	n/a	n/a
1585.308	n/a	WORD	792654	wordpools/wasnorm_wordpool_less_exclusions.txt	LTP264	ltpFR	2	8	-1	FRAME	600	n/a	-1	1	1.0	1.0	upper	../fonts/Verdana.ttf
1589.206	n/a	WORD	794603	wordpools/wasnorm_wordpool_less_exclusions.txt	LTP264	ltpFR	2	8	-1	SKETCH	1315	n/a	-1	1	1.0	1.0	upper	../fonts/Verdana.ttf
1593.238	n/a	WORD	796619	wordpools/wasnorm_wordpool_less_exclusions.txt	LTP264	ltpFR	2	8	-1	TAIL	1430	n/a	-1	1	1.0	1.0	upper	../fonts/Verdana.ttf
1597.136	n/a	WORD	798568	wordpools/wasnorm_wordpool_less_exclusions.txt	LTP264	ltpFR	2	8	-1	MOTOR	922	n/a	-1	1	1.0	1.0	upper	../fonts/Verdana.ttf
1601.068	n/a	WORD	800534	wordpools/wasnorm_wordpool_less_exclusions.txt	LTP264	ltpFR	2	8	-1	TRUCK	1512	n/a	-1	1	1.0	1.0	upper	../fonts/Verdana.ttf
1605.25	n/a	WORD	802625	wordpools/wasnorm_wordpool_less_exclusions.txt	LTP264	ltpFR	2	8	-1	HORIZON	717	n/a	-1	1	1.0	1.0	upper	../fonts/Verdana.ttf
1609.434	n/a	WORD	804717	wordpools/wasnorm_wordpool_less_exclusions.txt	LTP264	ltpFR	2	8	-1	WITNESS	1618	n/a	-1	1	1.0	1.0	upper	../fonts/Verdana.ttf
1613.65	n/a	WORD	806825	wordpools/wasnorm_wordpool_less_exclusions.txt	LTP264	ltpFR	2	8	-1	ESSAY	540	n/a	-1	1	1.0	1.0	upper	../fonts/Verdana.ttf
1617.832	n/a	WORD	808916	wordpools/wasnorm_wordpool_less_exclusions.txt	LTP264	ltpFR	2	8	-1	CRATER	400	n/a	-1	1	1.0	1.0	upper	../fonts/Verdana.ttf
1622.014	n/a	WORD	811007	wordpools/wasnorm_wordpool_less_exclusions.txt	LTP264	ltpFR	2	8	-1	ALMOND	18	n/a	-1	1	1.0	1.0	upper	../fonts/Verdana.ttf
1625.864	n/a	WORD	812932	wordpools/wasnorm_wordpool_less_exclusions.txt	LTP264	ltpFR	2	8	-1	SKUNK	1321	n/a	-1	1	1.0	1.0	upper	../fonts/Verdana.ttf
1629.778	n/a	WORD	814889	wordpools/wasnorm_wordpool_less_exclusions.txt	LTP264	ltpFR	2	8	-1	FOX	598	n/a	-1	1	1.0	1.0	upper	../fonts/Verdana.ttf
1633.81	n/a	WORD	816905	wordpools/wasnorm_wordpool_less_exclusions.txt	LTP264	ltpFR	2	8	-1	MOUNTAIN	924	n/a	-1	1	1.0	1.0	upper	../fonts/Verdana.ttf
1637.908	n/a	WORD	818954	wordpools/wasnorm_wordpool_less_exclusions.txt	LTP264	ltpFR	2	8	-1	BOLT	146	n/a	-1	1	1.0	1.0	upper	../fonts/Verdana.ttf
1641.742	n/a	WORD	820871	wordpools/wasnorm_wordpool_less_exclusions.txt	LTP264	ltpFR	2	8	-1	BARN	89	n/a	-1	1	1.0	1.0	upper	../fonts/Verdana.ttf
1645.62	n/a	WORD	822810	wordpools/wasnorm_wordpool_less_exclusions.txt	LTP264	ltpFR	2	8	-1	GAZELLE	628	n/a	-1	1	1.0	1.0	upper	../fonts/Verdana.ttf
1651.712	n/a	REC_START	825856	n/a	LTP264	ltpFR	2	8	n/a	n/a	n/a	n/a	n/a	n/a	n/a	n/a	n/a	n/a
1653.208	n/a	REC_WORD	826604	wordpools/wasnorm_wordpool_less_exclusions.txt	LTP264	ltpFR	2	8	-1	BOLT	146	n/a	-1	n/a	n/a	n/a	n/a	n/a
1654.102	n/a	REC_WORD	827051	wordpools/wasnorm_wordpool_less_exclusions.txt	LTP264	ltpFR	2	8	-1	BARN	89	n/a	-1	n/a	n/a	n/a	n/a	n/a
1654.95	n/a	REC_WORD	827475	wordpools/wasnorm_wordpool_less_exclusions.txt	LTP264	ltpFR	2	8	-1	GAZELLE	628	n/a	-1	n/a	n/a	n/a	n/a	n/a
1655.994	n/a	REC_WORD	827997	wordpools/wasnorm_wordpool_less_exclusions.txt	LTP264	ltpFR	2	8	-1	ALMOND	18	n/a	-1	n/a	n/a	n/a	n/a	n/a
1656.546	n/a	REC_WORD	828273	wordpools/wasnorm_wordpool_less_exclusions.txt	LTP264	ltpFR	2	8	-1	FOX	598	n/a	-1	n/a	n/a	n/a	n/a	n/a
1661.122	n/a	REC_WORD	830561	wordpools/wasnorm_wordpool_less_exclusions.txt	LTP264	ltpFR	2	8	-1	ESSAY	540	n/a	-1	n/a	n/a	n/a	n/a	n/a
1664.23	n/a	REC_WORD	832115	wordpools/wasnorm_wordpool_less_exclusions.txt	LTP264	ltpFR	2	8	-1	WITNESS	1618	n/a	-1	n/a	n/a	n/a	n/a	n/a
1666.43	n/a	REC_WORD	833215	wordpools/wasnorm_wordpool_less_exclusions.txt	LTP264	ltpFR	2	8	-1	TRUCK	1512	n/a	-1	n/a	n/a	n/a	n/a	n/a
1668.47	n/a	REC_WORD	834235	wordpools/wasnorm_wordpool_less_exclusions.txt	LTP264	ltpFR	2	8	-1	FRAME	600	n/a	-1	n/a	n/a	n/a	n/a	n/a
1669.126	n/a	REC_WORD	834563	wordpools/wasnorm_wordpool_less_exclusions.txt	LTP264	ltpFR	2	8	-1	SKETCH	1315	n/a	-1	n/a	n/a	n/a	n/a	n/a
1677.078	n/a	REC_WORD	838539	wordpools/wasnorm_wordpool_less_exclusions.txt	LTP264	ltpFR	2	8	-1	CRATER	400	n/a	-1	n/a	n/a	n/a	n/a	n/a
1680.386	n/a	REC_WORD	840193	wordpools/wasnorm_wordpool_less_exclusions.txt	LTP264	ltpFR	2	8	-1	ALMOND	18	n/a	-1	n/a	n/a	n/a	n/a	n/a
1684.452	n/a	REC_WORD	842226	wordpools/wasnorm_wordpool_less_exclusions.txt	LTP264	ltpFR	2	8	-1	MOUNTAIN	924	n/a	-1	n/a	n/a	n/a	n/a	n/a
1718.62	n/a	REC_WORD	859310	wordpools/wasnorm_wordpool_less_exclusions.txt	LTP264	ltpFR	2	8	-1	GAZELLE	628	n/a	-1	n/a	n/a	n/a	n/a	n/a
1731.264	n/a	WORD	865632	wordpools/wasnorm_wordpool_less_exclusions.txt	LTP264	ltpFR	2	9	1	PEPPER	1047	n/a	0	1	0.412841796875	0.57763671875	lower	../fonts/amplitud.ttf
1735.416	n/a	WORD	867708	wordpools/wasnorm_wordpool_less_exclusions.txt	LTP264	ltpFR	2	9	1	GARDEN	623	n/a	1	1	0.412841796875	0.57763671875	lower	../fonts/amplitud.ttf
1739.582	n/a	WORD	869791	wordpools/wasnorm_wordpool_less_exclusions.txt	LTP264	ltpFR	2	9	1	MONARCH	906	n/a	1	1	0.412841796875	0.57763671875	lower	../fonts/amplitud.ttf
1743.73	n/a	WORD	871865	wordpools/wasnorm_wordpool_less_exclusions.txt	LTP264	ltpFR	2	9	1	LINT	826	n/a	1	1	0.412841796875	0.57763671875	lower	../fonts/amplitud.ttf
1747.78	n/a	WORD	873890	wordpools/wasnorm_wordpool_less_exclusions.txt	LTP264	ltpFR	2	9	1	SECRETARY	1265	n/a	1	1	0.412841796875	0.57763671875	lower	../fonts/amplitud.ttf
1751.76	n/a	WORD	875880	wordpools/wasnorm_wordpool_less_exclusions.txt	LTP264	ltpFR	2	9	1	OPERATOR	979	n/a	1	1	0.412841796875	0.57763671875	lower	../fonts/amplitud.ttf
1755.844	n/a	WORD	877922	wordpools/wasnorm_wordpool_less_exclusions.txt	LTP264	ltpFR	2	9	1	CUP	424	n/a	0	1	0.412841796875	0.57763671875	lower	../fonts/amplitud.ttf
1759.992	n/a	WORD	879996	wordpools/wasnorm_wordpool_less_exclusions.txt	LTP264	ltpFR	2	9	1	SCRIBBLE	1256	n/a	0	1	0.412841796875	0.57763671875	lower	../fonts/amplitud.ttf
1763.89	n/a	WORD	881945	wordpools/wasnorm_wordpool_less_exclusions.txt	LTP264	ltpFR	2	9	1	EMPEROR	529	n/a	1	1	0.412841796875	0.57763671875	lower	../fonts/amplitud.ttf
1767.972	n/a	WORD	883986	wordpools/wasnorm_wordpool_less_exclusions.txt	LTP264	ltpFR	2	9	1	CRACKER	398	n/a	0	1	0.412841796875	0.57763671875	lower	../fonts/amplitud.ttf
1772.172	n/a	WORD	886086	wordpools/wasnorm_wordpool_less_exclusions.txt	LTP264	ltpFR	2	9	1	MEADOW	881	n/a	1	1	0.412841796875	0.57763671875	lower	../fonts/amplitud.ttf
1776.054	n/a	WORD	888027	wordpools/wasnorm_wordpool_less_exclusions.txt	LTP264	ltpFR	2	9	1	LENS	811	n/a	0	1	0.412841796875	0.57763671875	lower	../fonts/amplitud.ttf
1780.186	n/a	WORD	890093	wordpools/wasnorm_wordpool_less_exclusions.txt	LTP264	ltpFR	2	9	1	CREATURE	403	n/a	1	1	0.412841796875	0.57763671875	lower	../fonts/amplitud.ttf
1784.232	n/a	WORD	892116	wordpools/wasnorm_wordpool_less_exclusions.txt	LTP264	ltpFR	2	9	1	ANTEATER	26	n/a	0	1	0.412841796875	0.57763671875	lower	../fonts/amplitud.ttf
1788.4	n/a	WORD	894200	wordpools/wasnorm_wordpool_less_exclusions.txt	LTP264	ltpFR	2	9	1	BISON	131	n/a	1	1	0.412841796875	0.57763671875	lower	../fonts/amplitud.ttf
1792.584	n/a	WORD	896292	wordpools/wasnorm_wordpool_less_exclusions.txt	LTP264	ltpFR	2	9	1	CATTLE	261	n/a	1	1	0.412841796875	0.57763671875	lower	../fonts/amplitud.ttf
1798.39	n/a	REC_START	899195	n/a	LTP264	ltpFR	2	9	n/a	n/a	n/a	n/a	n/a	n/a	n/a	n/a	n/a	n/a
1799.686	n/a	REC_WORD	899843	wordpools/wasnorm_wordpool_less_exclusions.txt	LTP264	ltpFR	2	9	1	BISON	131	n/a	1	n/a	n/a	n/a	n/a	n/a
1800.42	n/a	REC_WORD	900210	wordpools/wasnorm_wordpool_less_exclusions.txt	LTP264	ltpFR	2	9	1	ANTEATER	26	n/a	0	n/a	n/a	n/a	n/a	n/a
1801.192	n/a	REC_WORD	900596	wordpools/wasnorm_wordpool_less_exclusions.txt	LTP264	ltpFR	2	9	1	CATTLE	261	n/a	1	n/a	n/a	n/a	n/a	n/a
1802.146	n/a	REC_WORD	901073	wordpools/wasnorm_wordpool_less_exclusions.txt	LTP264	ltpFR	2	9	1	MEADOW	881	n/a	1	n/a	n/a	n/a	n/a	n/a
1803.446	n/a	REC_WORD	901723	wordpools/wasnorm_wordpool_less_exclusions.txt	LTP264	ltpFR	2	9	1	EMPEROR	529	n/a	1	n/a	n/a	n/a	n/a	n/a
1804.17	n/a	REC_WORD	902085	wordpools/wasnorm_wordpool_less_exclusions.txt	LTP264	ltpFR	2	9	1	CRACKER	398	n/a	0	n/a	n/a	n/a	n/a	n/a
1810.536	n/a	REC_WORD	905268	wordpools/wasnorm_wordpool_less_exclusions.txt	LTP264	ltpFR	2	9	1	MONARCH	906	n/a	1	n/a	n/a	n/a	n/a	n/a
1811.114	n/a	REC_WORD	905557	wordpools/wasnorm_wordpool_less_exclusions.txt	LTP264	ltpFR	2	9	1	SECRETARY	1265	n/a	1	n/a	n/a	n/a	n/a	n/a
1812.314	n/a	REC_WORD	906157	wordpools/wasnorm_wordpool_less_exclusions.txt	LTP264	ltpFR	2	9	1	OPERATOR	979	n/a	1	n/a	n/a	n/a	n/a	n/a
1813.092	n/a	REC_WORD	906546	wordpools/wasnorm_wordpool_less_exclusions.txt	LTP264	ltpFR	2	9	1	CUP	424	n/a	0	n/a	n/a	n/a	n/a	n/a
1815.554	n/a	REC_WORD	907777	wordpools/wasnorm_wordpool_less_exclusions.txt	LTP264	ltpFR	2	9	1	GARDEN	623	n/a	1	n/a	n/a	n/a	n/a	n/a
1816.43	n/a	REC_WORD	908215	wordpools/wasnorm_wordpool_less_exclusions.txt	LTP264	ltpFR	2	9	1	PEPPER	1047	n/a	0	n/a	n/a	n/a	n/a	n/a
1826.478	n/a	REC_WORD	913239	wordpools/wasnorm_wordpool_less_exclusions.txt	LTP264	ltpFR	2	9	1	BISON	131	n/a	1	n/a	n/a	n/a	n/a	n/a
1878.496	n/a	WORD	939248	wordpools/wasnorm_wordpool_less_exclusions.txt	LTP264	ltpFR	2	10	1	OUTLAW	989	n/a	1	1	0.412841796875	0.57763671875	lower	../fonts/amplitud.ttf
1882.524	n/a	WORD	941262	wordpools/wasnorm_wordpool_less_exclusions.txt	LTP264	ltpFR	2	10	1	DEPUTY	450	n/a	1	1	0.412841796875	0.57763671875	lower	../fonts/amplitud.ttf
1886.358	n/a	WORD	943179	wordpools/wasnorm_wordpool_less_exclusions.txt	LTP264	ltpFR	2	10	1	PALACE	1006	n/a	1	1	0.412841796875	0.57763671875	lower	../fonts/amplitud.ttf
1890.19	n/a	WORD	945095	wordpools/wasnorm_wordpool_less_exclusions.txt	LTP264	ltpFR	2	10	1	BEETLE	116	n/a	1	1	0.412841796875	0.57763671875	lower	../fonts/amplitud.ttf
1894.12	n/a	WORD	947060	wordpools/wasnorm_wordpool_less_exclusions.txt	LTP264	ltpFR	2	10	1	RECIPE	1175	n/a	0	1	0.412841796875	0.57763671875	lower	../fonts/amplitud.ttf
1898.304	n/a	WORD	949152	wordpools/wasnorm_wordpool_less_exclusions.txt	LTP264	ltpFR	2	10	1	ROAD	1196	n/a	0	1	0.412841796875	0.57763671875	lower	../fonts/amplitud.ttf
1902.368	n/a	WORD	951184	wordpools/wasnorm_wordpool_less_exclusions.txt	LTP264	ltpFR	2	10	1	FREEWAY	603	n/a	1	1	0.412841796875	0.57763671875	lower	../fonts/amplitud.ttf
1906.25	n/a	WORD	953125	wordpools/wasnorm_wordpool_less_exclusions.txt	LTP264	ltpFR	2	10	1	PLAID	1080	n/a	0	1	0.412841796875	0.57763671875	lower	../fonts/amplitud.ttf
1910.232	n/a	WORD	955116	wordpools/wasnorm_wordpool_less_exclusions.txt	LTP264	ltpFR	2	10	1	FLANNEL	574	n/a	0	1	0.412841796875	0.57763671875	lower	../fonts/amplitud.ttf
1914.278	n/a	WORD	957139	wordpools/wasnorm_wordpool_less_exclusions.txt	LTP264	ltpFR	2	10	1	PASTRY	1022	n/a	1	1	0.412841796875	0.57763671875	lower	../fonts/amplitud.ttf
1918.498	n/a	WORD	959249	wordpools/wasnorm_wordpool_less_exclusions.txt	LTP264	ltpFR	2	10	1	FLY	586	n/a	0	1	0.412841796875	0.57763671875	lower	../fonts/amplitud.ttf
1922.58	n/a	WORD	961290	wordpools/wasnorm_wordpool_less_exclusions.txt	LTP264	ltpFR	2	10	1	FUGITIVE	612	n/a	1	1	0.412841796875	0.57763671875	lower	../fonts/amplitud.ttf
1926.412	n/a	WORD	963206	wordpools/wasnorm_wordpool_less_exclusions.txt	LTP264	ltpFR	2	10	1	DRIVER	499	n/a	1	1	0.412841796875	0.57763671875	lower	../fonts/amplitud.ttf
1930.272	n/a	WORD	965136	wordpools/wasnorm_wordpool_less_exclusions.txt	LTP264	ltpFR	2	10	1	TURKEY	1520	n/a	1	1	0.412841796875	0.57763671875	lower	../fonts/amplitud.ttf
1934.14	n/a	WORD	967070	wordpools/wasnorm_wordpool_less_exclusions.txt	LTP264	ltpFR	2	10	1	CROWN	415	n/a	0	1	0.412841796875	0.57763671875	lower	../fonts/amplitud.ttf
1938.256	n/a	WORD	969128	wordpools/wasnorm_wordpool_less_exclusions.txt	LTP264	ltpFR	2	10	1	BUGLE	189	n/a	1	1	0.412841796875	0.57763671875	lower	../fonts/amplitud.ttf
1944.114	n/a	REC_START	972057	n/a	LTP264	ltpFR	2	10	n/a	n/a	n/a	n/a	n/a	n/a	n/a	n/a	n/a	n/a
1945.14	n/a	REC_WORD	972570	wordpools/wasnorm_wordpool_less_exclusions.txt	LTP264	ltpFR	2	10	1	CROWN	415	n/a	0	n/a	n/a	n/a	n/a	n/a
1946.684	n/a	REC_WORD	973342	wordpools/wasnorm_wordpool_less_exclusions.txt	LTP264	ltpFR	2	10	1	BUGLE	189	n/a	1	n/a	n/a	n/a	n/a	n/a
1948.65	n/a	REC_WORD	974325	wordpools/wasnorm_wordpool_less_exclusions.txt	LTP264	ltpFR	2	10	1	FREEWAY	603	n/a	1	n/a	n/a	n/a	n/a	n/a
1949.734	n/a	REC_WORD	974867	wordpools/wasnorm_wordpool_less_exclusions.txt	LTP264	ltpFR	2	10	1	ROAD	1196	n/a	0	n/a	n/a	n/a	n/a	n/a
1950.588	n/a	REC_WORD	975294	wordpools/wasnorm_wordpool_less_exclusions.txt	LTP264	ltpFR	2	10	1	PLAID	1080	n/a	0	n/a	n/a	n/a	n/a	n/a
1951.732	n/a	REC_WORD	975866	wordpools/wasnorm_wordpool_less_exclusions.txt	LTP264	ltpFR	2	10	1	PASTRY	1022	n/a	1	n/a	n/a	n/a	n/a	n/a
1953.832	n/a	REC_WORD	976916	wordpools/wasnorm_wordpool_less_exclusions.txt	LTP264	ltpFR	2	10	1	OUTLAW	989	n/a	1	n/a	n/a	n/a	n/a	n/a
1954.476	n/a	REC_WORD	977238	wordpools/wasnorm_wordpool_less_exclusions.txt	LTP264	ltpFR	2	10	1	DEPUTY	450	n/a	1	n/a	n/a	n/a	n/a	n/a
1955.078	n/a	REC_WORD	977539	wordpools/wasnorm_wordpool_less_exclusions.txt	LTP264	ltpFR	2	10	1	PALACE	1006	n/a	1	n/a	n/a	n/a	n/a	n/a
1960.608	n/a	REC_WORD	980304	wordpools/wasnorm_wordpool_less_exclusions.txt	LTP264	ltpFR	2	10	1	FUGITIVE	612	n/a	1	n/a	n/a	n/a	n/a	n/a
1961.61	n/a	REC_WORD	980805	wordpools/wasnorm_wordpool_less_exclusions.txt	LTP264	ltpFR	2	10	1	DRIVER	499	n/a	1	n/a	n/a	n/a	n/a	n/a
1963.574	n/a	REC_WORD	981787	wordpools/wasnorm_wordpool_less_exclusions.txt	LTP264	ltpFR	2	10	1	TURKEY	1520	n/a	1	n/a	n/a	n/a	n/a	n/a
2024.722	n/a	WORD	1012361	wordpools/wasnorm_wordpool_less_exclusions.txt	LTP264	ltpFR	2	11	0	ELEPHANT	523	n/a	1	0	0.5869140625	0.422607421875	upper	../fonts/zerothre.ttf
2028.854	n/a	WORD	1014427	wordpools/wasnorm_wordpool_less_exclusions.txt	LTP264	ltpFR	2	11	0	SIBLING	1301	n/a	1	0	0.5869140625	0.422607421875	upper	../fonts/zerothre.ttf
2032.918	n/a	WORD	1016459	wordpools/wasnorm_wordpool_less_exclusions.txt	LTP264	ltpFR	2	11	1	MUFFIN	929	n/a	0	1	0.412841796875	0.57763671875	lower	../fonts/amplitud.ttf
2036.834	n/a	WORD	1018417	wordpools/wasnorm_wordpool_less_exclusions.txt	LTP264	ltpFR	2	11	1	POLE	1097	n/a	0	1	0.412841796875	0.57763671875	lower	../fonts/amplitud.ttf
2040.75	n/a	WORD	1020375	wordpools/wasnorm_wordpool_less_exclusions.txt	LTP264	ltpFR	2	11	0	BULL	193	n/a	1	0	0.5869140625	0.422607421875	upper	../fonts/zerothre.ttf
2044.812	n/a	WORD	1022406	wordpools/wasnorm_wordpool_less_exclusions.txt	LTP264	ltpFR	2	11	0	BROOK	177	n/a	0	0	0.5869140625	0.422607421875	upper	../fonts/zerothre.ttf
2048.93	n/a	WORD	1024465	wordpools/wasnorm_wordpool_less_exclusions.txt	LTP264	ltpFR	2	11	0	MONUMENT	913	n/a	1	0	0.5869140625	0.422607421875	upper	../fonts/zerothre.ttf
2052.812	n/a	WORD	1026406	wordpools/wasnorm_wordpool_less_exclusions.txt	LTP264	ltpFR	2	11	1	ARCHITECT	36	n/a	1	1	0.412841796875	0.57763671875	lower	../fonts/amplitud.ttf
2056.942	n/a	WORD	1028471	wordpools/wasnorm_wordpool_less_exclusions.txt	LTP264	ltpFR	2	11	1	MAGNET	855	n/a	0	1	0.412841796875	0.57763671875	lower	../fonts/amplitud.ttf
2061.16	n/a	WORD	1030580	wordpools/wasnorm_wordpool_less_exclusions.txt	LTP264	ltpFR	2	11	1	BUFFALO	186	n/a	1	1	0.412841796875	0.57763671875	lower	../fonts/amplitud.ttf
2065.174	n/a	WORD	1032587	wordpools/wasnorm_wordpool_less_exclusions.txt	LTP264	ltpFR	2	11	1	TOOTHBRUSH	1482	n/a	0	1	0.412841796875	0.57763671875	lower	../fonts/amplitud.ttf
2069.09	n/a	WORD	1034545	wordpools/wasnorm_wordpool_less_exclusions.txt	LTP264	ltpFR	2	11	1	TOOTHPASTE	1483	n/a	0	1	0.412841796875	0.57763671875	lower	../fonts/amplitud.ttf
2073.104	n/a	WORD	1036552	wordpools/wasnorm_wordpool_less_exclusions.txt	LTP264	ltpFR	2	11	1	COOKBOOK	373	n/a	1	1	0.412841796875	0.57763671875	lower	../fonts/amplitud.ttf
2077.154	n/a	WORD	1038577	wordpools/wasnorm_wordpool_less_exclusions.txt	LTP264	ltpFR	2	11	0	SAUSAGE	1238	n/a	1	0	0.5869140625	0.422607421875	upper	../fonts/zerothre.ttf
2081.02	n/a	WORD	1040510	wordpools/wasnorm_wordpool_less_exclusions.txt	LTP264	ltpFR	2	11	0	CREEK	404	n/a	1	0	0.5869140625	0.422607421875	upper	../fonts/zerothre.ttf
2085.202	n/a	WORD	1042601	wordpools/wasnorm_wordpool_less_exclusions.txt	LTP264	ltpFR	2	11	0	SUPERMARKET	1409	n/a	1	0	0.5869140625	0.422607421875	upper	../fonts/zerothre.ttf
2091.208	n/a	REC_START	1045604	n/a	LTP264	ltpFR	2	11	n/a	n/a	n/a	n/a	n/a	n/a	n/a	n/a	n/a	n/a
2093.03	n/a	REC_WORD	1046515	wordpools/wasnorm_wordpool_less_exclusions.txt	LTP264	ltpFR	2	11	0	ELEPHANT	523	n/a	1	n/a	n/a	n/a	n/a	n/a
2093.706	n/a	REC_WORD	1046853	wordpools/wasnorm_wordpool_less_exclusions.txt	LTP264	ltpFR	2	11	0	SIBLING	1301	n/a	1	n/a	n/a	n/a	n/a	n/a
2095.036	n/a	REC_WORD	1047518	wordpools/wasnorm_wordpool_less_exclusions.txt	LTP264	ltpFR	2	11	1	MUFFIN	929	n/a	0	n/a	n/a	n/a	n/a	n/a
2096.674	n/a	REC_WORD	1048337	wordpools/wasnorm_wordpool_less_exclusions.txt	LTP264	ltpFR	2	11	1	POLE	1097	n/a	0	n/a	n/a	n/a	n/a	n/a
2100.952	n/a	REC_WORD	1050476	wordpools/wasnorm_wordpool_less_exclusions.txt	LTP264	ltpFR	2	11	0	SUPERMARKET	1409	n/a	1	n/a	n/a	n/a	n/a	n/a
2169.64	n/a	WORD	1084820	wordpools/wasnorm_wordpool_less_exclusions.txt	LTP264	ltpFR	2	12	0	STOOL	1386	n/a	1	0	0.5869140625	0.422607421875	upper	../fonts/zerothre.ttf
2173.49	n/a	WORD	1086745	wordpools/wasnorm_wordpool_less_exclusions.txt	LTP264	ltpFR	2	12	0	CREVICE	405	n/a	1	0	0.5869140625	0.422607421875	upper	../fonts/zerothre.ttf
2177.522	n/a	WORD	1088761	wordpools/wasnorm_wordpool_less_exclusions.txt	LTP264	ltpFR	2	12	0	CURB	426	n/a	1	0	0.5869140625	0.422607421875	upper	../fonts/zerothre.ttf
2181.436	n/a	WORD	1090718	wordpools/wasnorm_wordpool_less_exclusions.txt	LTP264	ltpFR	2	12	0	VALLEY	1545	n/a	1	0	0.5869140625	0.422607421875	upper	../fonts/zerothre.ttf
2185.284	n/a	WORD	1092642	wordpools/wasnorm_wordpool_less_exclusions.txt	LTP264	ltpFR	2	12	0	ANKLE	24	n/a	1	0	0.5869140625	0.422607421875	upper	../fonts/zerothre.ttf
2189.416	n/a	WORD	1094708	wordpools/wasnorm_wordpool_less_exclusions.txt	LTP264	ltpFR	2	12	0	SUIT	1402	n/a	1	0	0.5869140625	0.422607421875	upper	../fonts/zerothre.ttf
2193.48	n/a	WORD	1096740	wordpools/wasnorm_wordpool_less_exclusions.txt	LTP264	ltpFR	2	12	0	DANDELION	438	n/a	1	0	0.5869140625	0.422607421875	upper	../fonts/zerothre.ttf
2197.682	n/a	WORD	1098841	wordpools/wasnorm_wordpool_less_exclusions.txt	LTP264	ltpFR	2	12	0	DRINK	498	n/a	1	0	0.5869140625	0.422607421875	upper	../fonts/zerothre.ttf
2201.58	n/a	WORD	1100790	wordpools/wasnorm_wordpool_less_exclusions.txt	LTP264	ltpFR	2	12	0	LOUNGE	845	n/a	1	0	0.5869140625	0.422607421875	upper	../fonts/zerothre.ttf
2205.528	n/a	WORD	1102764	wordpools/wasnorm_wordpool_less_exclusions.txt	LTP264	ltpFR	2	12	0	BANANA	77	n/a	1	0	0.5869140625	0.422607421875	upper	../fonts/zerothre.ttf
2209.406	n/a	WORD	1104703	wordpools/wasnorm_wordpool_less_exclusions.txt	LTP264	ltpFR	2	12	0	STRAWBERRY	1391	n/a	1	0	0.5869140625	0.422607421875	upper	../fonts/zerothre.ttf
2213.542	n/a	WORD	1106771	wordpools/wasnorm_wordpool_less_exclusions.txt	LTP264	ltpFR	2	12	0	PEDAL	1037	n/a	0	0	0.5869140625	0.422607421875	upper	../fonts/zerothre.ttf
2217.424	n/a	WORD	1108712	wordpools/wasnorm_wordpool_less_exclusions.txt	LTP264	ltpFR	2	12	0	ROD	1203	n/a	1	0	0.5869140625	0.422607421875	upper	../fonts/zerothre.ttf
2221.254	n/a	WORD	1110627	wordpools/wasnorm_wordpool_less_exclusions.txt	LTP264	ltpFR	2	12	0	RUNNER	1218	n/a	1	0	0.5869140625	0.422607421875	upper	../fonts/zerothre.ttf
2225.236	n/a	WORD	1112618	wordpools/wasnorm_wordpool_less_exclusions.txt	LTP264	ltpFR	2	12	0	CLIMBER	323	n/a	1	0	0.5869140625	0.422607421875	upper	../fonts/zerothre.ttf
2229.436	n/a	WORD	1114718	wordpools/wasnorm_wordpool_less_exclusions.txt	LTP264	ltpFR	2	12	0	SNEAKER	1334	n/a	1	0	0.5869140625	0.422607421875	upper	../fonts/zerothre.ttf
2235.208	n/a	REC_START	1117604	n/a	LTP264	ltpFR	2	12	n/a	n/a	n/a	n/a	n/a	n/a	n/a	n/a	n/a	n/a
2237.626	n/a	REC_WORD	1118813	wordpools/wasnorm_wordpool_less_exclusions.txt	LTP264	ltpFR	2	12	0	RUNNER	1218	n/a	1	n/a	n/a	n/a	n/a	n/a
2238.572	n/a	REC_WORD	1119286	wordpools/wasnorm_wordpool_less_exclusions.txt	LTP264	ltpFR	2	12	0	CLIMBER	323	n/a	1	n/a	n/a	n/a	n/a	n/a
2239.038	n/a	REC_WORD	1119519	wordpools/wasnorm_wordpool_less_exclusions.txt	LTP264	ltpFR	2	12	0	SNEAKER	1334	n/a	1	n/a	n/a	n/a	n/a	n/a
2240.282	n/a	REC_WORD	1120141	wordpools/wasnorm_wordpool_less_exclusions.txt	LTP264	ltpFR	2	12	0	LOUNGE	845	n/a	1	n/a	n/a	n/a	n/a	n/a
2241.528	n/a	REC_WORD	1120764	wordpools/wasnorm_wordpool_less_exclusions.txt	LTP264	ltpFR	2	12	0	VALLEY	1545	n/a	1	n/a	n/a	n/a	n/a	n/a
2242.038	n/a	REC_WORD	1121019	wordpools/wasnorm_wordpool_less_exclusions.txt	LTP264	ltpFR	2	12	0	STOOL	1386	n/a	1	n/a	n/a	n/a	n/a	n/a
2243.022	n/a	REC_WORD	1121511	wordpools/wasnorm_wordpool_less_exclusions.txt	LTP264	ltpFR	2	12	0	CURB	426	n/a	1	n/a	n/a	n/a	n/a	n/a
2250.138	n/a	REC_WORD	1125069	wordpools/wasnorm_wordpool_less_exclusions.txt	LTP264	ltpFR	2	12	0	SAUSAGE	1238	n/a	1	n/a	n/a	n/a	n/a	n/a
2271.014	n/a	REC_WORD	1135507	wordpools/wasnorm_wordpool_less_exclusions.txt	LTP264	ltpFR	2	12	0	SUIT	1402	n/a	1	n/a	n/a	n/a	n/a	n/a
2281.97	n/a	REC_WORD	1140985	wordpools/wasnorm_wordpool_less_exclusions.txt	LTP264	ltpFR	2	12	0	BANANA	77	n/a	1	n/a	n/a	n/a	n/a	n/a
2282.396	n/a	REC_WORD	1141198	wordpools/wasnorm_wordpool_less_exclusions.txt	LTP264	ltpFR	2	12	0	STRAWBERRY	1391	n/a	1	n/a	n/a	n/a	n/a	n/a
2310.864	n/a	REST_REWET	1155432	n/a	LTP264	ltpFR	2	12	n/a	n/a	n/a	n/a	n/a	n/a	n/a	n/a	n/a	n/a
2635.052	n/a	WORD	1317526	wordpools/wasnorm_wordpool_less_exclusions.txt	LTP264	ltpFR	2	13	1	CAMERA	224	n/a	0	1	0.412841796875	0.57763671875	lower	../fonts/amplitud.ttf
2638.964	n/a	WORD	1319482	wordpools/wasnorm_wordpool_less_exclusions.txt	LTP264	ltpFR	2	13	1	PARENT	1013	n/a	1	1	0.412841796875	0.57763671875	lower	../fonts/amplitud.ttf
2643.034	n/a	WORD	1321517	wordpools/wasnorm_wordpool_less_exclusions.txt	LTP264	ltpFR	2	13	1	DAD	433	n/a	1	1	0.412841796875	0.57763671875	lower	../fonts/amplitud.ttf
2647.082	n/a	WORD	1323541	wordpools/wasnorm_wordpool_less_exclusions.txt	LTP264	ltpFR	2	13	1	TOTE	1487	n/a	0	1	0.412841796875	0.57763671875	lower	../fonts/amplitud.ttf
2651.214	n/a	WORD	1325607	wordpools/wasnorm_wordpool_less_exclusions.txt	LTP264	ltpFR	2	13	1	MECHANIC	884	n/a	1	1	0.412841796875	0.57763671875	lower	../fonts/amplitud.ttf
2655.326	n/a	WORD	1327663	wordpools/wasnorm_wordpool_less_exclusions.txt	LTP264	ltpFR	2	13	1	WORLD	1622	n/a	1	1	0.412841796875	0.57763671875	lower	../fonts/amplitud.ttf
2659.262	n/a	WORD	1329631	wordpools/wasnorm_wordpool_less_exclusions.txt	LTP264	ltpFR	2	13	1	RECORD	1176	n/a	1	1	0.412841796875	0.57763671875	lower	../fonts/amplitud.ttf
2663.446	n/a	WORD	1331723	wordpools/wasnorm_wordpool_less_exclusions.txt	LTP264	ltpFR	2	13	1	ENGINEER	536	n/a	1	1	0.412841796875	0.57763671875	lower	../fonts/amplitud.ttf
2667.474	n/a	WORD	1333737	wordpools/wasnorm_wordpool_less_exclusions.txt	LTP264	ltpFR	2	13	1	CAP	236	n/a	1	1	0.412841796875	0.57763671875	lower	../fonts/amplitud.ttf
2671.542	n/a	WORD	1335771	wordpools/wasnorm_wordpool_less_exclusions.txt	LTP264	ltpFR	2	13	1	BASKETBALL	96	n/a	0	1	0.412841796875	0.57763671875	lower	../fonts/amplitud.ttf
2675.574	n/a	WORD	1337787	wordpools/wasnorm_wordpool_less_exclusions.txt	LTP264	ltpFR	2	13	1	PRODUCER	1129	n/a	1	1	0.412841796875	0.57763671875	lower	../fonts/amplitud.ttf
2679.59	n/a	WORD	1339795	wordpools/wasnorm_wordpool_less_exclusions.txt	LTP264	ltpFR	2	13	1	DIRECTOR	471	n/a	1	1	0.412841796875	0.57763671875	lower	../fonts/amplitud.ttf
2683.622	n/a	WORD	1341811	wordpools/wasnorm_wordpool_less_exclusions.txt	LTP264	ltpFR	2	13	1	KETTLE	772	n/a	0	1	0.412841796875	0.57763671875	lower	../fonts/amplitud.ttf
2687.822	n/a	WORD	1343911	wordpools/wasnorm_wordpool_less_exclusions.txt	LTP264	ltpFR	2	13	1	HANDBAG	684	n/a	0	1	0.412841796875	0.57763671875	lower	../fonts/amplitud.ttf
2691.97	n/a	WORD	1345985	wordpools/wasnorm_wordpool_less_exclusions.txt	LTP264	ltpFR	2	13	1	GLACIER	638	n/a	1	1	0.412841796875	0.57763671875	lower	../fonts/amplitud.ttf
2695.886	n/a	WORD	1347943	wordpools/wasnorm_wordpool_less_exclusions.txt	LTP264	ltpFR	2	13	1	DRUM	502	n/a	1	1	0.412841796875	0.57763671875	lower	../fonts/amplitud.ttf
2701.658	n/a	REC_START	1350829	n/a	LTP264	ltpFR	2	13	n/a	n/a	n/a	n/a	n/a	n/a	n/a	n/a	n/a	n/a
2703.168	n/a	REC_WORD	1351584	wordpools/wasnorm_wordpool_less_exclusions.txt	LTP264	ltpFR	2	13	1	DRUM	502	n/a	1	n/a	n/a	n/a	n/a	n/a
2704.152	n/a	REC_WORD	1352076	wordpools/wasnorm_wordpool_less_exclusions.txt	LTP264	ltpFR	2	13	1	GLACIER	638	n/a	1	n/a	n/a	n/a	n/a	n/a
2705.35	n/a	REC_WORD	1352675	wordpools/wasnorm_wordpool_less_exclusions.txt	LTP264	ltpFR	2	13	1	DIRECTOR	471	n/a	1	n/a	n/a	n/a	n/a	n/a
2706.466	n/a	REC_WORD	1353233	wordpools/wasnorm_wordpool_less_exclusions.txt	LTP264	ltpFR	2	13	1	TOTE	1487	n/a	0	n/a	n/a	n/a	n/a	n/a
2708.196	n/a	REC_WORD	1354098	wordpools/wasnorm_wordpool_less_exclusions.txt	LTP264	ltpFR	2	13	1	TOTE	1487	n/a	0	n/a	n/a	n/a	n/a	n/a
2708.452	n/a	REC_WORD	1354226	wordpools/wasnorm_wordpool_less_exclusions.txt	LTP264	ltpFR	2	13	n/a	BAG	69	n/a	n/a	n/a	n/a	n/a	n/a	n/a
2711.414	n/a	REC_WORD	1355707	wordpools/wasnorm_wordpool_less_exclusions.txt	LTP264	ltpFR	2	13	1	ENGINEER	536	n/a	1	n/a	n/a	n/a	n/a	n/a
2712.04	n/a	REC_WORD	1356020	wordpools/wasnorm_wordpool_less_exclusions.txt	LTP264	ltpFR	2	13	1	CAP	236	n/a	1	n/a	n/a	n/a	n/a	n/a
2712.68	n/a	REC_WORD	1356340	wordpools/wasnorm_wordpool_less_exclusions.txt	LTP264	ltpFR	2	13	1	BASKETBALL	96	n/a	0	n/a	n/a	n/a	n/a	n/a
2716.182	n/a	REC_WORD	1358091	wordpools/wasnorm_wordpool_less_exclusions.txt	LTP264	ltpFR	2	13	1	MECHANIC	884	n/a	1	n/a	n/a	n/a	n/a	n/a
2718.732	n/a	REC_WORD	1359366	wordpools/wasnorm_wordpool_less_exclusions.txt	LTP264	ltpFR	2	13	1	RECORD	1176	n/a	1	n/a	n/a	n/a	n/a	n/a
2719.842	n/a	REC_WORD	1359921	wordpools/wasnorm_wordpool_less_exclusions.txt	LTP264	ltpFR	2	13	1	WORLD	1622	n/a	1	n/a	n/a	n/a	n/a	n/a
2725.336	n/a	REC_WORD	1362668	wordpools/wasnorm_wordpool_less_exclusions.txt	LTP264	ltpFR	2	13	1	PARENT	1013	n/a	1	n/a	n/a	n/a	n/a	n/a
2726.444	n/a	REC_WORD	1363222	wordpools/wasnorm_wordpool_less_exclusions.txt	LTP264	ltpFR	2	13	1	DAD	433	n/a	1	n/a	n/a	n/a	n/a	n/a
2728.318	n/a	REC_WORD	1364159	wordpools/wasnorm_wordpool_less_exclusions.txt	LTP264	ltpFR	2	13	1	CAMERA	224	n/a	0	n/a	n/a	n/a	n/a	n/a
2781.53	n/a	WORD	1390765	wordpools/wasnorm_wordpool_less_exclusions.txt	LTP264	ltpFR	2	14	-1	SIRLOIN	1311	n/a	-1	1	1.0	1.0	upper	../fonts/Verdana.ttf
2785.728	n/a	WORD	1392864	wordpools/wasnorm_wordpool_less_exclusions.txt	LTP264	ltpFR	2	14	-1	DRESS	495	n/a	-1	1	1.0	1.0	upper	../fonts/Verdana.ttf
2789.878	n/a	WORD	1394939	wordpools/wasnorm_wordpool_less_exclusions.txt	LTP264	ltpFR	2	14	-1	RUST	1219	n/a	-1	1	1.0	1.0	upper	../fonts/Verdana.ttf
2793.726	n/a	WORD	1396863	wordpools/wasnorm_wordpool_less_exclusions.txt	LTP264	ltpFR	2	14	-1	RECEPTIONIST	1174	n/a	-1	1	1.0	1.0	upper	../fonts/Verdana.ttf
2797.91	n/a	WORD	1398955	wordpools/wasnorm_wordpool_less_exclusions.txt	LTP264	ltpFR	2	14	-1	WORKER	1621	n/a	-1	1	1.0	1.0	upper	../fonts/Verdana.ttf
2801.89	n/a	WORD	1400945	wordpools/wasnorm_wordpool_less_exclusions.txt	LTP264	ltpFR	2	14	-1	WINDSHIELD	1612	n/a	-1	1	1.0	1.0	upper	../fonts/Verdana.ttf
2805.94	n/a	WORD	1402970	wordpools/wasnorm_wordpool_less_exclusions.txt	LTP264	ltpFR	2	14	-1	HOOP	716	n/a	-1	1	1.0	1.0	upper	../fonts/Verdana.ttf
2810.088	n/a	WORD	1405044	wordpools/wasnorm_wordpool_less_exclusions.txt	LTP264	ltpFR	2	14	-1	MASK	876	n/a	-1	1	1.0	1.0	upper	../fonts/Verdana.ttf
2814.22	n/a	WORD	1407110	wordpools/wasnorm_wordpool_less_exclusions.txt	LTP264	ltpFR	2	14	-1	SHELTER	1282	n/a	-1	1	1.0	1.0	upper	../fonts/Verdana.ttf
2818.4	n/a	WORD	1409200	wordpools/wasnorm_wordpool_less_exclusions.txt	LTP264	ltpFR	2	14	-1	DICE	461	n/a	-1	1	1.0	1.0	upper	../fonts/Verdana.ttf
2822.268	n/a	WORD	1411134	wordpools/wasnorm_wordpool_less_exclusions.txt	LTP264	ltpFR	2	14	-1	STADIUM	1364	n/a	-1	1	1.0	1.0	upper	../fonts/Verdana.ttf
2826.216	n/a	WORD	1413108	wordpools/wasnorm_wordpool_less_exclusions.txt	LTP264	ltpFR	2	14	-1	DOCK	477	n/a	-1	1	1.0	1.0	upper	../fonts/Verdana.ttf
2830.13	n/a	WORD	1415065	wordpools/wasnorm_wordpool_less_exclusions.txt	LTP264	ltpFR	2	14	-1	CAPTAIN	239	n/a	-1	1	1.0	1.0	upper	../fonts/Verdana.ttf
2834.18	n/a	WORD	1417090	wordpools/wasnorm_wordpool_less_exclusions.txt	LTP264	ltpFR	2	14	-1	SILK	1307	n/a	-1	1	1.0	1.0	upper	../fonts/Verdana.ttf
2838.276	n/a	WORD	1419138	wordpools/wasnorm_wordpool_less_exclusions.txt	LTP264	ltpFR	2	14	-1	HOUSE	725	n/a	-1	1	1.0	1.0	upper	../fonts/Verdana.ttf
2842.244	n/a	WORD	1421122	wordpools/wasnorm_wordpool_less_exclusions.txt	LTP264	ltpFR	2	14	-1	LAPEL	800	n/a	-1	1	1.0	1.0	upper	../fonts/Verdana.ttf
2848.352	n/a	REC_START	1424176	n/a	LTP264	ltpFR	2	14	n/a	n/a	n/a	n/a	n/a	n/a	n/a	n/a	n/a	n/a
2849.306	n/a	REC_WORD	1424653	wordpools/wasnorm_wordpool_less_exclusions.txt	LTP264	ltpFR	2	14	-1	CAPTAIN	239	n/a	-1	n/a	n/a	n/a	n/a	n/a
2849.91	n/a	REC_WORD	1424955	wordpools/wasnorm_wordpool_less_exclusions.txt	LTP264	ltpFR	2	14	-1	HOUSE	725	n/a	-1	n/a	n/a	n/a	n/a	n/a
2850.802	n/a	REC_WORD	1425401	wordpools/wasnorm_wordpool_less_exclusions.txt	LTP264	ltpFR	2	14	-1	LAPEL	800	n/a	-1	n/a	n/a	n/a	n/a	n/a
2851.39	n/a	REC_WORD	1425695	wordpools/wasnorm_wordpool_less_exclusions.txt	LTP264	ltpFR	2	14	-1	STADIUM	1364	n/a	-1	n/a	n/a	n/a	n/a	n/a
2852.232	n/a	REC_WORD	1426116	wordpools/wasnorm_wordpool_less_exclusions.txt	LTP264	ltpFR	2	14	n/a	SHACK	1273	n/a	n/a	n/a	n/a	n/a	n/a	n/a
2854.384	n/a	REC_WORD	1427192	wordpools/wasnorm_wordpool_less_exclusions.txt	LTP264	ltpFR	2	14	-1	RECEPTIONIST	1174	n/a	-1	n/a	n/a	n/a	n/a	n/a
2855.856	n/a	REC_WORD	1427928	wordpools/wasnorm_wordpool_less_exclusions.txt	LTP264	ltpFR	2	14	-1	WORKER	1621	n/a	-1	n/a	n/a	n/a	n/a	n/a
2856.652	n/a	REC_WORD	1428326	wordpools/wasnorm_wordpool_less_exclusions.txt	LTP264	ltpFR	2	14	-1	SIRLOIN	1311	n/a	-1	n/a	n/a	n/a	n/a	n/a
2857.556	n/a	REC_WORD	1428778	wordpools/wasnorm_wordpool_less_exclusions.txt	LTP264	ltpFR	2	14	-1	DRESS	495	n/a	-1	n/a	n/a	n/a	n/a	n/a
2858.76	n/a	REC_WORD	1429380	wordpools/wasnorm_wordpool_less_exclusions.txt	LTP264	ltpFR	2	14	-1	RUST	1219	n/a	-1	n/a	n/a	n/a	n/a	n/a
2863.3	n/a	REC_WORD	1431650	wordpools/wasnorm_wordpool_less_exclusions.txt	LTP264	ltpFR	2	14	-1	DOCK	477	n/a	-1	n/a	n/a	n/a	n/a	n/a
2865.834	n/a	REC_WORD	1432917	wordpools/wasnorm_wordpool_less_exclusions.txt	LTP264	ltpFR	2	14	-1	HOUSE	725	n/a	-1	n/a	n/a	n/a	n/a	n/a
2930.096	n/a	WORD	1465048	wordpools/wasnorm_wordpool_less_exclusions.txt	LTP264	ltpFR	2	15	1	BEARD	107	n/a	0	1	0.412841796875	0.57763671875	lower	../fonts/amplitud.ttf
2934.01	n/a	WORD	1467005	wordpools/wasnorm_wordpool_less_exclusions.txt	LTP264	ltpFR	2	15	1	CORAL	378	n/a	0	1	0.412841796875	0.57763671875	lower	../fonts/amplitud.ttf
2938.044	n/a	WORD	1469022	wordpools/wasnorm_wordpool_less_exclusions.txt	LTP264	ltpFR	2	15	1	SENATOR	1268	n/a	1	1	0.412841796875	0.57763671875	lower	../fonts/amplitud.ttf
2942.076	n/a	WORD	1471038	wordpools/wasnorm_wordpool_less_exclusions.txt	LTP264	ltpFR	2	15	1	BATH	98	n/a	0	1	0.412841796875	0.57763671875	lower	../fonts/amplitud.ttf
2946.254	n/a	WORD	1473127	wordpools/wasnorm_wordpool_less_exclusions.txt	LTP264	ltpFR	2	15	0	LAUNDRY	803	n/a	1	0	0.5869140625	0.422607421875	upper	../fonts/zerothre.ttf
2950.106	n/a	WORD	1475053	wordpools/wasnorm_wordpool_less_exclusions.txt	LTP264	ltpFR	2	15	0	DONOR	485	n/a	1	0	0.5869140625	0.422607421875	upper	../fonts/zerothre.ttf
2954.038	n/a	WORD	1477019	wordpools/wasnorm_wordpool_less_exclusions.txt	LTP264	ltpFR	2	15	0	POLITICIAN	1099	n/a	1	0	0.5869140625	0.422607421875	upper	../fonts/zerothre.ttf
2957.92	n/a	WORD	1478960	wordpools/wasnorm_wordpool_less_exclusions.txt	LTP264	ltpFR	2	15	0	DOLL	481	n/a	1	0	0.5869140625	0.422607421875	upper	../fonts/zerothre.ttf
2962.05	n/a	WORD	1481025	wordpools/wasnorm_wordpool_less_exclusions.txt	LTP264	ltpFR	2	15	0	SHOULDER	1294	n/a	1	0	0.5869140625	0.422607421875	upper	../fonts/zerothre.ttf
2966.252	n/a	WORD	1483126	wordpools/wasnorm_wordpool_less_exclusions.txt	LTP264	ltpFR	2	15	0	THUMB	1462	n/a	1	0	0.5869140625	0.422607421875	upper	../fonts/zerothre.ttf
2970.132	n/a	WORD	1485066	wordpools/wasnorm_wordpool_less_exclusions.txt	LTP264	ltpFR	2	15	1	BEAVER	109	n/a	1	1	0.412841796875	0.57763671875	lower	../fonts/amplitud.ttf
2974.032	n/a	WORD	1487016	wordpools/wasnorm_wordpool_less_exclusions.txt	LTP264	ltpFR	2	15	1	TANK	1432	n/a	1	1	0.412841796875	0.57763671875	lower	../fonts/amplitud.ttf
2978.112	n/a	WORD	1489056	wordpools/wasnorm_wordpool_less_exclusions.txt	LTP264	ltpFR	2	15	1	ESCALATOR	539	n/a	0	1	0.412841796875	0.57763671875	lower	../fonts/amplitud.ttf
2981.992	n/a	WORD	1490996	wordpools/wasnorm_wordpool_less_exclusions.txt	LTP264	ltpFR	2	15	1	STEP	1377	n/a	0	1	0.412841796875	0.57763671875	lower	../fonts/amplitud.ttf
2986.012	n/a	WORD	1493006	wordpools/wasnorm_wordpool_less_exclusions.txt	LTP264	ltpFR	2	15	0	CRAB	397	n/a	1	0	0.5869140625	0.422607421875	upper	../fonts/zerothre.ttf
2990.21	n/a	WORD	1495105	wordpools/wasnorm_wordpool_less_exclusions.txt	LTP264	ltpFR	2	15	0	CHEST	295	n/a	1	0	0.5869140625	0.422607421875	upper	../fonts/zerothre.ttf
2996.25	n/a	REC_START	1498125	n/a	LTP264	ltpFR	2	15	n/a	n/a	n/a	n/a	n/a	n/a	n/a	n/a	n/a	n/a
2997.856	n/a	REC_WORD	1498928	wordpools/wasnorm_wordpool_less_exclusions.txt	LTP264	ltpFR	2	15	0	CRAB	397	n/a	1	n/a	n/a	n/a	n/a	n/a
2998.854	n/a	REC_WORD	1499427	wordpools/wasnorm_wordpool_less_exclusions.txt	LTP264	ltpFR	2	15	0	CHEST	295	n/a	1	n/a	n/a	n/a	n/a	n/a
2999.866	n/a	REC_WORD	1499933	wordpools/wasnorm_wordpool_less_exclusions.txt	LTP264	ltpFR	2	15	1	SENATOR	1268	n/a	1	n/a	n/a	n/a	n/a	n/a
3000.866	n/a	REC_WORD	1500433	wordpools/wasnorm_wordpool_less_exclusions.txt	LTP264	ltpFR	2	15	1	CORAL	378	n/a	0	n/a	n/a	n/a	n/a	n/a
3001.986	n/a	REC_WORD	1500993	wordpools/wasnorm_wordpool_less_exclusions.txt	LTP264	ltpFR	2	15	1	BEARD	107	n/a	0	n/a	n/a	n/a	n/a	n/a
3003.65	n/a	REC_WORD	1501825	wordpools/wasnorm_wordpool_less_exclusions.txt	LTP264	ltpFR	2	15	0	POLITICIAN	1099	n/a	1	n/a	n/a	n/a	n/a	n/a
3005.672	n/a	REC_WORD	1502836	wordpools/wasnorm_wordpool_less_exclusions.txt	LTP264	ltpFR	2	15	0	DONOR	485	n/a	1	n/a	n/a	n/a	n/a	n/a
3006.518	n/a	REC_WORD	1503259	wordpools/wasnorm_wordpool_less_exclusions.txt	LTP264	ltpFR	2	15	1	BATH	98	n/a	0	n/a	n/a	n/a	n/a	n/a
3008.39	n/a	REC_WORD	1504195	wordpools/wasnorm_wordpool_less_exclusions.txt	LTP264	ltpFR	2	15	1	ESCALATOR	539	n/a	0	n/a	n/a	n/a	n/a	n/a
3009.24	n/a	REC_WORD	1504620	wordpools/wasnorm_wordpool_less_exclusions.txt	LTP264	ltpFR	2	15	1	STEP	1377	n/a	0	n/a	n/a	n/a	n/a	n/a
3010.79	n/a	REC_WORD	1505395	wordpools/wasnorm_wordpool_less_exclusions.txt	LTP264	ltpFR	2	15	1	TANK	1432	n/a	1	n/a	n/a	n/a	n/a	n/a
3011.426	n/a	REC_WORD	1505713	wordpools/wasnorm_wordpool_less_exclusions.txt	LTP264	ltpFR	2	15	1	BEAVER	109	n/a	1	n/a	n/a	n/a	n/a	n/a
3012.036	n/a	REC_WORD	1506018	wordpools/wasnorm_wordpool_less_exclusions.txt	LTP264	ltpFR	2	15	0	THUMB	1462	n/a	1	n/a	n/a	n/a	n/a	n/a
3013.262	n/a	REC_WORD	1506631	wordpools/wasnorm_wordpool_less_exclusions.txt	LTP264	ltpFR	2	15	0	SHOULDER	1294	n/a	1	n/a	n/a	n/a	n/a	n/a
3078.48	n/a	WORD	1539240	wordpools/wasnorm_wordpool_less_exclusions.txt	LTP264	ltpFR	2	16	0	RECEIPT	1173	n/a	0	0	0.5869140625	0.422607421875	upper	../fonts/zerothre.ttf
3082.628	n/a	WORD	1541314	wordpools/wasnorm_wordpool_less_exclusions.txt	LTP264	ltpFR	2	16	0	CABBAGE	210	n/a	0	0	0.5869140625	0.422607421875	upper	../fonts/zerothre.ttf
3086.512	n/a	WORD	1543256	wordpools/wasnorm_wordpool_less_exclusions.txt	LTP264	ltpFR	2	16	0	CORK	380	n/a	0	0	0.5869140625	0.422607421875	upper	../fonts/zerothre.ttf
3090.372	n/a	WORD	1545186	wordpools/wasnorm_wordpool_less_exclusions.txt	LTP264	ltpFR	2	16	0	RAKE	1164	n/a	0	0	0.5869140625	0.422607421875	upper	../fonts/zerothre.ttf
3094.358	n/a	WORD	1547179	wordpools/wasnorm_wordpool_less_exclusions.txt	LTP264	ltpFR	2	16	0	SHRIMP	1297	n/a	0	0	0.5869140625	0.422607421875	upper	../fonts/zerothre.ttf
3098.218	n/a	WORD	1549109	wordpools/wasnorm_wordpool_less_exclusions.txt	LTP264	ltpFR	2	16	0	SHARK	1275	n/a	1	0	0.5869140625	0.422607421875	upper	../fonts/zerothre.ttf
3102.372	n/a	WORD	1551186	wordpools/wasnorm_wordpool_less_exclusions.txt	LTP264	ltpFR	2	16	0	BROTHER	179	n/a	1	0	0.5869140625	0.422607421875	upper	../fonts/zerothre.ttf
3106.404	n/a	WORD	1553202	wordpools/wasnorm_wordpool_less_exclusions.txt	LTP264	ltpFR	2	16	0	VISITOR	1573	n/a	1	0	0.5869140625	0.422607421875	upper	../fonts/zerothre.ttf
3110.57	n/a	WORD	1555285	wordpools/wasnorm_wordpool_less_exclusions.txt	LTP264	ltpFR	2	16	0	DIME	466	n/a	0	0	0.5869140625	0.422607421875	upper	../fonts/zerothre.ttf
3114.516	n/a	WORD	1557258	wordpools/wasnorm_wordpool_less_exclusions.txt	LTP264	ltpFR	2	16	0	BROOM	178	n/a	0	0	0.5869140625	0.422607421875	upper	../fonts/zerothre.ttf
3118.616	n/a	WORD	1559308	wordpools/wasnorm_wordpool_less_exclusions.txt	LTP264	ltpFR	2	16	0	TURNIP	1521	n/a	0	0	0.5869140625	0.422607421875	upper	../fonts/zerothre.ttf
3122.482	n/a	WORD	1561241	wordpools/wasnorm_wordpool_less_exclusions.txt	LTP264	ltpFR	2	16	0	TAVERN	1437	n/a	1	0	0.5869140625	0.422607421875	upper	../fonts/zerothre.ttf
3126.414	n/a	WORD	1563207	wordpools/wasnorm_wordpool_less_exclusions.txt	LTP264	ltpFR	2	16	0	CUFF	423	n/a	1	0	0.5869140625	0.422607421875	upper	../fonts/zerothre.ttf
3130.428	n/a	WORD	1565214	wordpools/wasnorm_wordpool_less_exclusions.txt	LTP264	ltpFR	2	16	0	JACKET	747	n/a	1	0	0.5869140625	0.422607421875	upper	../fonts/zerothre.ttf
3134.31	n/a	WORD	1567155	wordpools/wasnorm_wordpool_less_exclusions.txt	LTP264	ltpFR	2	16	0	SNOB	1335	n/a	1	0	0.5869140625	0.422607421875	upper	../fonts/zerothre.ttf
3138.292	n/a	WORD	1569146	wordpools/wasnorm_wordpool_less_exclusions.txt	LTP264	ltpFR	2	16	0	SHOVEL	1295	n/a	0	0	0.5869140625	0.422607421875	upper	../fonts/zerothre.ttf
3144.332	n/a	REC_START	1572166	n/a	LTP264	ltpFR	2	16	n/a	n/a	n/a	n/a	n/a	n/a	n/a	n/a	n/a	n/a
3146.908	n/a	REC_WORD	1573454	wordpools/wasnorm_wordpool_less_exclusions.txt	LTP264	ltpFR	2	16	0	SHOVEL	1295	n/a	0	n/a	n/a	n/a	n/a	n/a
3148.012	n/a	REC_WORD	1574006	wordpools/wasnorm_wordpool_less_exclusions.txt	LTP264	ltpFR	2	16	0	BROTHER	179	n/a	1	n/a	n/a	n/a	n/a	n/a
3149.092	n/a	REC_WORD	1574546	wordpools/wasnorm_wordpool_less_exclusions.txt	LTP264	ltpFR	2	16	0	VISITOR	1573	n/a	1	n/a	n/a	n/a	n/a	n/a
3152.178	n/a	REC_WORD	1576089	wordpools/wasnorm_wordpool_less_exclusions.txt	LTP264	ltpFR	2	16	0	CUFF	423	n/a	1	n/a	n/a	n/a	n/a	n/a
3154.156	n/a	REC_WORD	1577078	wordpools/wasnorm_wordpool_less_exclusions.txt	LTP264	ltpFR	2	16	0	JACKET	747	n/a	1	n/a	n/a	n/a	n/a	n/a
3157.57	n/a	REC_WORD	1578785	wordpools/wasnorm_wordpool_less_exclusions.txt	LTP264	ltpFR	2	16	0	CABBAGE	210	n/a	0	n/a	n/a	n/a	n/a	n/a
3159.64	n/a	REC_WORD	1579820	wordpools/wasnorm_wordpool_less_exclusions.txt	LTP264	ltpFR	2	16	0	RAKE	1164	n/a	0	n/a	n/a	n/a	n/a	n/a
3160.484	n/a	REC_WORD	1580242	wordpools/wasnorm_wordpool_less_exclusions.txt	LTP264	ltpFR	2	16	0	BROOM	178	n/a	0	n/a	n/a	n/a	n/a	n/a
3163.28	n/a	REC_WORD	1581640	wordpools/wasnorm_wordpool_less_exclusions.txt	LTP264	ltpFR	2	16	0	CORK	380	n/a	0	n/a	n/a	n/a	n/a	n/a
3165.376	n/a	REC_WORD	1582688	wordpools/wasnorm_wordpool_less_exclusions.txt	LTP264	ltpFR	2	16	0	RECEIPT	1173	n/a	0	n/a	n/a	n/a	n/a	n/a
3169.464	n/a	REC_WORD	1584732	wordpools/wasnorm_wordpool_less_exclusions.txt	LTP264	ltpFR	2	16	0	TAVERN	1437	n/a	1	n/a	n/a	n/a	n/a	n/a
3243.092	n/a	REC_START	1621546	n/a	LTP264	ltpFR	2	n/a	n/a	n/a	n/a	n/a	n/a	n/a	n/a	n/a	n/a	n/a
3243.82	n/a	FFR_REC_WORD	1621910	wordpools/wasnorm_wordpool_less_exclusions.txt	LTP264	ltpFR	2	n/a	1	SIDING	1304	n/a	0	n/a	n/a	n/a	n/a	n/a
3244.924	n/a	FFR_REC_WORD	1622462	wordpools/wasnorm_wordpool_less_exclusions.txt	LTP264	ltpFR	2	n/a	1	PRESIDENT	1121	n/a	1	n/a	n/a	n/a	n/a	n/a
3246.12	n/a	FFR_REC_WORD	1623060	wordpools/wasnorm_wordpool_less_exclusions.txt	LTP264	ltpFR	2	n/a	0	POLITICIAN	1099	n/a	1	n/a	n/a	n/a	n/a	n/a
3246.944	n/a	FFR_REC_WORD	1623472	wordpools/wasnorm_wordpool_less_exclusions.txt	LTP264	ltpFR	2	n/a	1	SENATOR	1268	n/a	1	n/a	n/a	n/a	n/a	n/a
3247.976	n/a	FFR_REC_WORD	1623988	wordpools/wasnorm_wordpool_less_exclusions.txt	LTP264	ltpFR	2	n/a	1	BEARD	107	n/a	0	n/a	n/a	n/a	n/a	n/a
3248.81	n/a	FFR_REC_WORD	1624405	wordpools/wasnorm_wordpool_less_exclusions.txt	LTP264	ltpFR	2	n/a	1	CORAL	378	n/a	0	n/a	n/a	n/a	n/a	n/a
3250.266	n/a	FFR_REC_WORD	1625133	wordpools/wasnorm_wordpool_less_exclusions.txt	LTP264	ltpFR	2	n/a	1	BATH	98	n/a	0	n/a	n/a	n/a	n/a	n/a
3250.8	n/a	FFR_REC_WORD	1625400	wordpools/wasnorm_wordpool_less_exclusions.txt	LTP264	ltpFR	2	n/a	1	ESCALATOR	539	n/a	0	n/a	n/a	n/a	n/a	n/a
3252.872	n/a	FFR_REC_WORD	1626436	wordpools/wasnorm_wordpool_less_exclusions.txt	LTP264	ltpFR	2	n/a	0	BROOM	178	n/a	0	n/a	n/a	n/a	n/a	n/a
3253.854	n/a	FFR_REC_WORD	1626927	wordpools/wasnorm_wordpool_less_exclusions.txt	LTP264	ltpFR	2	n/a	0	RAKE	1164	n/a	0	n/a	n/a	n/a	n/a	n/a
3254.806	n/a	FFR_REC_WORD	1627403	wordpools/wasnorm_wordpool_less_exclusions.txt	LTP264	ltpFR	2	n/a	0	CABBAGE	210	n/a	0	n/a	n/a	n/a	n/a	n/a
3259.422	n/a	FFR_REC_WORD	1629711	wordpools/wasnorm_wordpool_less_exclusions.txt	LTP264	ltpFR	2	n/a	0	CORK	380	n/a	0	n/a	n/a	n/a	n/a	n/a
3260.19	n/a	FFR_REC_WORD	1630095	wordpools/wasnorm_wordpool_less_exclusions.txt	LTP264	ltpFR	2	n/a	0	TAVERN	1437	n/a	1	n/a	n/a	n/a	n/a	n/a
3260.992	n/a	FFR_REC_WORD	1630496	wordpools/wasnorm_wordpool_less_exclusions.txt	LTP264	ltpFR	2	n/a	0	BROTHER	179	n/a	1	n/a	n/a	n/a	n/a	n/a
3261.81	n/a	FFR_REC_WORD	1630905	wordpools/wasnorm_wordpool_less_exclusions.txt	LTP264	ltpFR	2	n/a	0	SIBLING	1301	n/a	1	n/a	n/a	n/a	n/a	n/a
3262.4	n/a	FFR_REC_WORD_VV	1631200	wordpools/wasnorm_wordpool_less_exclusions.txt	LTP264	ltpFR	2	n/a	n/a	<>	-1	n/a	n/a	n/a	n/a	n/a	n/a	n/a
3263.452	n/a	FFR_REC_WORD	1631726	wordpools/wasnorm_wordpool_less_exclusions.txt	LTP264	ltpFR	2	n/a	1	PARENT	1013	n/a	1	n/a	n/a	n/a	n/a	n/a
3264.18	n/a	FFR_REC_WORD	1632090	wordpools/wasnorm_wordpool_less_exclusions.txt	LTP264	ltpFR	2	n/a	1	DAD	433	n/a	1	n/a	n/a	n/a	n/a	n/a
3264.77	n/a	FFR_REC_WORD	1632385	wordpools/wasnorm_wordpool_less_exclusions.txt	LTP264	ltpFR	2	n/a	1	CAMERA	224	n/a	0	n/a	n/a	n/a	n/a	n/a
3265.508	n/a	FFR_REC_WORD	1632754	wordpools/wasnorm_wordpool_less_exclusions.txt	LTP264	ltpFR	2	n/a	1	LENS	811	n/a	0	n/a	n/a	n/a	n/a	n/a
3266.126	n/a	FFR_REC_WORD	1633063	wordpools/wasnorm_wordpool_less_exclusions.txt	LTP264	ltpFR	2	n/a	1	MEADOW	881	n/a	1	n/a	n/a	n/a	n/a	n/a
3267.344	n/a	FFR_REC_WORD	1633672	wordpools/wasnorm_wordpool_less_exclusions.txt	LTP264	ltpFR	2	n/a	1	LAKE	796	n/a	0	n/a	n/a	n/a	n/a	n/a
3267.962	n/a	FFR_REC_WORD	1633981	wordpools/wasnorm_wordpool_less_exclusions.txt	LTP264	ltpFR	2	n/a	1	STREAM	1392	n/a	0	n/a	n/a	n/a	n/a	n/a
3270.856	n/a	FFR_REC_WORD	1635428	wordpools/wasnorm_wordpool_less_exclusions.txt	LTP264	ltpFR	2	n/a	1	SIDING	1304	n/a	0	n/a	n/a	n/a	n/a	n/a
3273.29	n/a	FFR_REC_WORD	1636645	wordpools/wasnorm_wordpool_less_exclusions.txt	LTP264	ltpFR	2	n/a	1	EAGLE	512	n/a	1	n/a	n/a	n/a	n/a	n/a
3273.98	n/a	FFR_REC_WORD	1636990	wordpools/wasnorm_wordpool_less_exclusions.txt	LTP264	ltpFR	2	n/a	1	CROW	414	n/a	1	n/a	n/a	n/a	n/a	n/a
3274.956	n/a	FFR_REC_WORD	1637478	wordpools/wasnorm_wordpool_less_exclusions.txt	LTP264	ltpFR	2	n/a	1	COMB	351	n/a	0	n/a	n/a	n/a	n/a	n/a
3278.494	n/a	FFR_REC_WORD	1639247	wordpools/wasnorm_wordpool_less_exclusions.txt	LTP264	ltpFR	2	n/a	n/a	WASHER	1592	n/a	n/a	n/a	n/a	n/a	n/a	n/a
3279.258	n/a	FFR_REC_WORD	1639629	wordpools/wasnorm_wordpool_less_exclusions.txt	LTP264	ltpFR	2	n/a	0	DRYER	503	n/a	1	n/a	n/a	n/a	n/a	n/a
3281.876	n/a	FFR_REC_WORD	1640938	wordpools/wasnorm_wordpool_less_exclusions.txt	LTP264	ltpFR	2	n/a	0	PISTON	1076	n/a	0	n/a	n/a	n/a	n/a	n/a
3283.038	n/a	FFR_REC_WORD	1641519	wordpools/wasnorm_wordpool_less_exclusions.txt	LTP264	ltpFR	2	n/a	0	RADIATOR	1156	n/a	1	n/a	n/a	n/a	n/a	n/a
3285.518	n/a	FFR_REC_WORD	1642759	wordpools/wasnorm_wordpool_less_exclusions.txt	LTP264	ltpFR	2	n/a	-1	TAIL	1430	n/a	-1	n/a	n/a	n/a	n/a	n/a
3286.456	n/a	FFR_REC_WORD	1643228	wordpools/wasnorm_wordpool_less_exclusions.txt	LTP264	ltpFR	2	n/a	-1	FRAME	600	n/a	-1	n/a	n/a	n/a	n/a	n/a
3287.318	n/a	FFR_REC_WORD	1643659	wordpools/wasnorm_wordpool_less_exclusions.txt	LTP264	ltpFR	2	n/a	-1	SKETCH	1315	n/a	-1	n/a	n/a	n/a	n/a	n/a
3288.368	n/a	FFR_REC_WORD	1644184	wordpools/wasnorm_wordpool_less_exclusions.txt	LTP264	ltpFR	2	n/a	-1	TRUCK	1512	n/a	-1	n/a	n/a	n/a	n/a	n/a
3289.426	n/a	FFR_REC_WORD	1644713	wordpools/wasnorm_wordpool_less_exclusions.txt	LTP264	ltpFR	2	n/a	-1	MOTOR	922	n/a	-1	n/a	n/a	n/a	n/a	n/a
3291.92	n/a	FFR_REC_WORD	1645960	wordpools/wasnorm_wordpool_less_exclusions.txt	LTP264	ltpFR	2	n/a	1	FIELD	562	n/a	1	n/a	n/a	n/a	n/a	n/a
3293.386	n/a	FFR_REC_WORD	1646693	wordpools/wasnorm_wordpool_less_exclusions.txt	LTP264	ltpFR	2	n/a	1	CAGE	218	n/a	0	n/a	n/a	n/a	n/a	n/a
3294.044	n/a	FFR_REC_WORD	1647022	wordpools/wasnorm_wordpool_less_exclusions.txt	LTP264	ltpFR	2	n/a	1	SHELL	1281	n/a	0	n/a	n/a	n/a	n/a	n/a
3300.794	n/a	FFR_REC_WORD	1650397	wordpools/wasnorm_wordpool_less_exclusions.txt	LTP264	ltpFR	2	n/a	0	SAUSAGE	1238	n/a	1	n/a	n/a	n/a	n/a	n/a
3302.874	n/a	FFR_REC_WORD	1651437	wordpools/wasnorm_wordpool_less_exclusions.txt	LTP264	ltpFR	2	n/a	n/a	TORNADO	1485	n/a	n/a	n/a	n/a	n/a	n/a	n/a
3303.684	n/a	FFR_REC_WORD	1651842	wordpools/wasnorm_wordpool_less_exclusions.txt	LTP264	ltpFR	2	n/a	0	QUAIL	1147	n/a	0	n/a	n/a	n/a	n/a	n/a
3314.14	n/a	FFR_REC_WORD	1657070	wordpools/wasnorm_wordpool_less_exclusions.txt	LTP264	ltpFR	2	n/a	-1	LAPEL	800	n/a	-1	n/a	n/a	n/a	n/a	n/a
3314.962	n/a	FFR_REC_WORD	1657481	wordpools/wasnorm_wordpool_less_exclusions.txt	LTP264	ltpFR	2	n/a	-1	HOUSE	725	n/a	-1	n/a	n/a	n/a	n/a	n/a
3317.408	n/a	FFR_REC_WORD	1658704	wordpools/wasnorm_wordpool_less_exclusions.txt	LTP264	ltpFR	2	n/a	-1	CAPTAIN	239	n/a	-1	n/a	n/a	n/a	n/a	n/a
3317.986	n/a	FFR_REC_WORD	1658993	wordpools/wasnorm_wordpool_less_exclusions.txt	LTP264	ltpFR	2	n/a	-1	STADIUM	1364	n/a	-1	n/a	n/a	n/a	n/a	n/a
3318.724	n/a	FFR_REC_WORD	1659362	wordpools/wasnorm_wordpool_less_exclusions.txt	LTP264	ltpFR	2	n/a	n/a	SHACK	1273	n/a	n/a	n/a	n/a	n/a	n/a	n/a
3319.422	n/a	FFR_REC_WORD	1659711	wordpools/wasnorm_wordpool_less_exclusions.txt	LTP264	ltpFR	2	n/a	-1	WINDSHIELD	1612	n/a	-1	n/a	n/a	n/a	n/a	n/a
3320.31	n/a	FFR_REC_WORD	1660155	wordpools/wasnorm_wordpool_less_exclusions.txt	LTP264	ltpFR	2	n/a	n/a	TICK	1463	n/a	n/a	n/a	n/a	n/a	n/a	n/a
3322.974	n/a	FFR_REC_WORD	1661487	wordpools/wasnorm_wordpool_less_exclusions.txt	LTP264	ltpFR	2	n/a	-1	RUST	1219	n/a	-1	n/a	n/a	n/a	n/a	n/a
3323.684	n/a	FFR_REC_WORD	1661842	wordpools/wasnorm_wordpool_less_exclusions.txt	LTP264	ltpFR	2	n/a	-1	SIRLOIN	1311	n/a	-1	n/a	n/a	n/a	n/a	n/a
3324.596	n/a	FFR_REC_WORD	1662298	wordpools/wasnorm_wordpool_less_exclusions.txt	LTP264	ltpFR	2	n/a	-1	RECEPTIONIST	1174	n/a	-1	n/a	n/a	n/a	n/a	n/a
3325.628	n/a	FFR_REC_WORD	1662814	wordpools/wasnorm_wordpool_less_exclusions.txt	LTP264	ltpFR	2	n/a	-1	WORKER	1621	n/a	-1	n/a	n/a	n/a	n/a	n/a
3329.53	n/a	FFR_REC_WORD	1664765	wordpools/wasnorm_wordpool_less_exclusions.txt	LTP264	ltpFR	2	n/a	-1	DRESS	495	n/a	-1	n/a	n/a	n/a	n/a	n/a
3331.272	n/a	FFR_REC_WORD	1665636	wordpools/wasnorm_wordpool_less_exclusions.txt	LTP264	ltpFR	2	n/a	0	SUIT	1402	n/a	1	n/a	n/a	n/a	n/a	n/a
3336.68	n/a	FFR_REC_WORD	1668340	wordpools/wasnorm_wordpool_less_exclusions.txt	LTP264	ltpFR	2	n/a	n/a	[???]	-1	n/a	n/a	n/a	n/a	n/a	n/a	n/a
3337.488	n/a	FFR_REC_WORD	1668744	wordpools/wasnorm_wordpool_less_exclusions.txt	LTP264	ltpFR	2	n/a	0	VALLEY	1545	n/a	1	n/a	n/a	n/a	n/a	n/a
3340.79	n/a	FFR_REC_WORD	1670395	wordpools/wasnorm_wordpool_less_exclusions.txt	LTP264	ltpFR	2	n/a	0	STOOL	1386	n/a	1	n/a	n/a	n/a	n/a	n/a
3341.704	n/a	FFR_REC_WORD	1670852	wordpools/wasnorm_wordpool_less_exclusions.txt	LTP264	ltpFR	2	n/a	0	CURB	426	n/a	1	n/a	n/a	n/a	n/a	n/a
3348.314	n/a	FFR_REC_WORD	1674157	wordpools/wasnorm_wordpool_less_exclusions.txt	LTP264	ltpFR	2	n/a	1	BISON	131	n/a	1	n/a	n/a	n/a	n/a	n/a
3351.058	n/a	FFR_REC_WORD_VV	1675529	wordpools/wasnorm_wordpool_less_exclusions.txt	LTP264	ltpFR	2	n/a	n/a	<>	-1	n/a	n/a	n/a	n/a	n/a	n/a	n/a
3352.058	n/a	FFR_REC_WORD_VV	1676029	wordpools/wasnorm_wordpool_less_exclusions.txt	LTP264	ltpFR	2	n/a	n/a	<>	-1	n/a	n/a	n/a	n/a	n/a	n/a	n/a
3353.058	n/a	FFR_REC_WORD_VV	1676529	wordpools/wasnorm_wordpool_less_exclusions.txt	LTP264	ltpFR	2	n/a	n/a	<>	-1	n/a	n/a	n/a	n/a	n/a	n/a	n/a
3354.948	n/a	FFR_REC_WORD	1677474	wordpools/wasnorm_wordpool_less_exclusions.txt	LTP264	ltpFR	2	n/a	0	STRAWBERRY	1391	n/a	1	n/a	n/a	n/a	n/a	n/a
3355.922	n/a	FFR_REC_WORD	1677961	wordpools/wasnorm_wordpool_less_exclusions.txt	LTP264	ltpFR	2	n/a	0	BANANA	77	n/a	1	n/a	n/a	n/a	n/a	n/a
3359.928	n/a	FFR_REC_WORD	1679964	wordpools/wasnorm_wordpool_less_exclusions.txt	LTP264	ltpFR	2	n/a	1	DIRECTOR	471	n/a	1	n/a	n/a	n/a	n/a	n/a
3363.374	n/a	FFR_REC_WORD	1681687	wordpools/wasnorm_wordpool_less_exclusions.txt	LTP264	ltpFR	2	n/a	1	POLE	1097	n/a	0	n/a	n/a	n/a	n/a	n/a
3365.262	n/a	FFR_REC_WORD	1682631	wordpools/wasnorm_wordpool_less_exclusions.txt	LTP264	ltpFR	2	n/a	0	TURNIP	1521	n/a	0	n/a	n/a	n/a	n/a	n/a
3372.556	n/a	FFR_REC_WORD	1686278	wordpools/wasnorm_wordpool_less_exclusions.txt	LTP264	ltpFR	2	n/a	1	MUFFIN	929	n/a	0	n/a	n/a	n/a	n/a	n/a
3375.014	n/a	FFR_REC_WORD	1687507	wordpools/wasnorm_wordpool_less_exclusions.txt	LTP264	ltpFR	2	n/a	0	BROTHER	179	n/a	1	n/a	n/a	n/a	n/a	n/a
3421.428	n/a	FFR_REC_WORD	1710714	wordpools/wasnorm_wordpool_less_exclusions.txt	LTP264	ltpFR	2	n/a	1	ENGINEER	536	n/a	1	n/a	n/a	n/a	n/a	n/a
3422.264	n/a	FFR_REC_WORD	1711132	wordpools/wasnorm_wordpool_less_exclusions.txt	LTP264	ltpFR	2	n/a	1	MECHANIC	884	n/a	1	n/a	n/a	n/a	n/a	n/a
3448.332	n/a	FFR_REC_WORD	1724166	wordpools/wasnorm_wordpool_less_exclusions.txt	LTP264	ltpFR	2	n/a	0	SQUID	1361	n/a	1	n/a	n/a	n/a	n/a	n/a
3451.498	n/a	FFR_REC_WORD	1725749	wordpools/wasnorm_wordpool_less_exclusions.txt	LTP264	ltpFR	2	n/a	n/a	ADDRESS	-1	n/a	n/a	n/a	n/a	n/a	n/a	n/a
3452.042	n/a	FFR_REC_WORD	1726021	wordpools/wasnorm_wordpool_less_exclusions.txt	LTP264	ltpFR	2	n/a	n/a	BOOK	149	n/a	n/a	n/a	n/a	n/a	n/a	n/a
3456.852	n/a	FFR_REC_WORD	1728426	wordpools/wasnorm_wordpool_less_exclusions.txt	LTP264	ltpFR	2	n/a	1	ANTEATER	26	n/a	0	n/a	n/a	n/a	n/a	n/a
3462.022	n/a	FFR_REC_WORD	1731011	wordpools/wasnorm_wordpool_less_exclusions.txt	LTP264	ltpFR	2	n/a	-1	FOX	598	n/a	-1	n/a	n/a	n/a	n/a	n/a
3463.742	n/a	FFR_REC_WORD	1731871	wordpools/wasnorm_wordpool_less_exclusions.txt	LTP264	ltpFR	2	n/a	-1	ALMOND	18	n/a	-1	n/a	n/a	n/a	n/a	n/a
3464.516	n/a	FFR_REC_WORD	1732258	wordpools/wasnorm_wordpool_less_exclusions.txt	LTP264	ltpFR	2	n/a	-1	CRATER	400	n/a	-1	n/a	n/a	n/a	n/a	n/a
3466.732	n/a	FFR_REC_WORD	1733366	wordpools/wasnorm_wordpool_less_exclusions.txt	LTP264	ltpFR	2	n/a	-1	MOUNTAIN	924	n/a	-1	n/a	n/a	n/a	n/a	n/a
3492.384	n/a	FFR_REC_WORD	1746192	wordpools/wasnorm_wordpool_less_exclusions.txt	LTP264	ltpFR	2	n/a	1	CHURCH	307	n/a	1	n/a	n/a	n/a	n/a	n/a
3493.636	n/a	FFR_REC_WORD	1746818	wordpools/wasnorm_wordpool_less_exclusions.txt	LTP264	ltpFR	2	n/a	0	LIBRARY	816	n/a	1	n/a	n/a	n/a	n/a	n/a
3494.578	n/a	FFR_REC_WORD	1747289	wordpools/wasnorm_wordpool_less_exclusions.txt	LTP264	ltpFR	2	n/a	0	ACROBAT	4	n/a	1	n/a	n/a	n/a	n/a	n/a
3498.246	n/a	FFR_REC_WORD	1749123	wordpools/wasnorm_wordpool_less_exclusions.txt	LTP264	ltpFR	2	n/a	0	COLESLAW	344	n/a	0	n/a	n/a	n/a	n/a	n/a
3499.09	n/a	FFR_REC_WORD	1749545	wordpools/wasnorm_wordpool_less_exclusions.txt	LTP264	ltpFR	2	n/a	1	CONVENT	370	n/a	0	n/a	n/a	n/a	n/a	n/a
3500.018	n/a	FFR_REC_WORD	1750009	wordpools/wasnorm_wordpool_less_exclusions.txt	LTP264	ltpFR	2	n/a	1	PICNIC	1060	n/a	0	n/a	n/a	n/a	n/a	n/a
3500.736	n/a	FFR_REC_WORD	1750368	wordpools/wasnorm_wordpool_less_exclusions.txt	LTP264	ltpFR	2	n/a	0	HORSE	719	n/a	1	n/a	n/a	n/a	n/a	n/a
3502.048	n/a	FFR_REC_WORD	1751024	wordpools/wasnorm_wordpool_less_exclusions.txt	LTP264	ltpFR	2	n/a	n/a	MULE	931	n/a	n/a	n/a	n/a	n/a	n/a	n/a
3503.874	n/a	FFR_REC_WORD	1751937	wordpools/wasnorm_wordpool_less_exclusions.txt	LTP264	ltpFR	2	n/a	1	CHURCH	307	n/a	1	n/a	n/a	n/a	n/a	n/a
3505.554	n/a	FFR_REC_WORD	1752777	wordpools/wasnorm_wordpool_less_exclusions.txt	LTP264	ltpFR	2	n/a	1	PEOPLE	1046	n/a	1	n/a	n/a	n/a	n/a	n/a
3506.582	n/a	FFR_REC_WORD	1753291	wordpools/wasnorm_wordpool_less_exclusions.txt	LTP264	ltpFR	2	n/a	0	GANG	619	n/a	1	n/a	n/a	n/a	n/a	n/a
3508.872	n/a	FFR_REC_WORD	1754436	wordpools/wasnorm_wordpool_less_exclusions.txt	LTP264	ltpFR	2	n/a	0	JOINT	758	n/a	1	n/a	n/a	n/a	n/a	n/a
3517.16	n/a	FFR_REC_WORD	1758580	wordpools/wasnorm_wordpool_less_exclusions.txt	LTP264	ltpFR	2	n/a	1	PALACE	1006	n/a	1	n/a	n/a	n/a	n/a	n/a
3518.916	n/a	FFR_REC_WORD	1759458	wordpools/wasnorm_wordpool_less_exclusions.txt	LTP264	ltpFR	2	n/a	1	OUTLAW	989	n/a	1	n/a	n/a	n/a	n/a	n/a
3519.688	n/a	FFR_REC_WORD	1759844	wordpools/wasnorm_wordpool_less_exclusions.txt	LTP264	ltpFR	2	n/a	1	DEPUTY	450	n/a	1	n/a	n/a	n/a	n/a	n/a
3528.578	n/a	FFR_REC_WORD	1764289	wordpools/wasnorm_wordpool_less_exclusions.txt	LTP264	ltpFR	2	n/a	1	FUGITIVE	612	n/a	1	n/a	n/a	n/a	n/a	n/a
3539.788	n/a	FFR_REC_WORD	1769894	wordpools/wasnorm_wordpool_less_exclusions.txt	LTP264	ltpFR	2	n/a	1	FUGITIVE	612	n/a	1	n/a	n/a	n/a	n/a	n/a
3573.422	n/a	REC_START	1786711	n/a	LTP264	ltpFR	2	1	n/a	n/a	n/a	n/a	n/a	n/a	n/a	n/a	n/a	n/a
3573.486	n/a	RECOG_TARGET	1786743	n/a	LTP264	ltpFR	2	1	0	STRAWBERRY	1391	5	1	n/a	n/a	n/a	n/a	n/a
3574.514	n/a	RECOG_RESP	1787257	n/a	LTP264	ltpFR	2	1	0	STRAWBERRY	1391	n/a	1	n/a	n/a	n/a	n/a	n/a
3575.552	n/a	RECOG_CONF	1787776	n/a	LTP264	ltpFR	2	1	0	STRAWBERRY	1391	5	1	n/a	n/a	n/a	n/a	n/a
3577.4	n/a	RECOG_TARGET	1788700	n/a	LTP264	ltpFR	2	1	-1	KITE	779	5	-1	n/a	n/a	n/a	n/a	n/a
3578.242	n/a	RECOG_RESP	1789121	n/a	LTP264	ltpFR	2	1	-1	KITE	779	n/a	-1	n/a	n/a	n/a	n/a	n/a
3579.194	n/a	RECOG_CONF	1789597	n/a	LTP264	ltpFR	2	1	-1	KITE	779	5	-1	n/a	n/a	n/a	n/a	n/a
3580.784	n/a	RECOG_TARGET	1790392	n/a	LTP264	ltpFR	2	1	-1	SIRLOIN	1311	5	-1	n/a	n/a	n/a	n/a	n/a
3581.314	n/a	RECOG_RESP	1790657	n/a	LTP264	ltpFR	2	1	-1	SIRLOIN	1311	n/a	-1	n/a	n/a	n/a	n/a	n/a
3582.318	n/a	RECOG_CONF	1791159	n/a	LTP264	ltpFR	2	1	-1	SIRLOIN	1311	5	-1	n/a	n/a	n/a	n/a	n/a
3584.128	n/a	RECOG_TARGET	1792064	n/a	LTP264	ltpFR	2	1	1	TOTE	1487	5	0	n/a	n/a	n/a	n/a	n/a
3584.796	n/a	RECOG_RESP	1792398	n/a	LTP264	ltpFR	2	1	1	TOTE	1487	n/a	0	n/a	n/a	n/a	n/a	n/a
3585.72	n/a	RECOG_CONF	1792860	n/a	LTP264	ltpFR	2	1	1	TOTE	1487	5	0	n/a	n/a	n/a	n/a	n/a
3587.474	n/a	RECOG_TARGET	1793737	n/a	LTP264	ltpFR	2	1	-1	TORCH	1484	5	-1	n/a	n/a	n/a	n/a	n/a
3587.954	n/a	RECOG_RESP	1793977	n/a	LTP264	ltpFR	2	1	-1	TORCH	1484	n/a	-1	n/a	n/a	n/a	n/a	n/a
3588.912	n/a	RECOG_CONF	1794456	n/a	LTP264	ltpFR	2	1	-1	TORCH	1484	5	-1	n/a	n/a	n/a	n/a	n/a
3590.722	n/a	RECOG_LURE	1795361	n/a	LTP264	ltpFR	2	1	n/a	VOLLEYBALL	1576	3	n/a	n/a	n/a	n/a	n/a	n/a
3593.174	n/a	RECOG_RESP	1796587	n/a	LTP264	ltpFR	2	1	n/a	VOLLEYBALL	1576	n/a	n/a	n/a	n/a	n/a	n/a	n/a
3594.32	n/a	RECOG_CONF	1797160	n/a	LTP264	ltpFR	2	1	n/a	VOLLEYBALL	1576	3	n/a	n/a	n/a	n/a	n/a	n/a
3595.958	n/a	RECOG_LURE	1797979	n/a	LTP264	ltpFR	2	1	n/a	DOLPHIN	483	3	n/a	n/a	n/a	n/a	n/a	n/a
3598.292	n/a	RECOG_RESP	1799146	n/a	LTP264	ltpFR	2	1	n/a	DOLPHIN	483	n/a	n/a	n/a	n/a	n/a	n/a	n/a
3599.29	n/a	RECOG_CONF	1799645	n/a	LTP264	ltpFR	2	1	n/a	DOLPHIN	483	3	n/a	n/a	n/a	n/a	n/a	n/a
3601.128	n/a	RECOG_TARGET	1800564	n/a	LTP264	ltpFR	2	1	1	LIMOUSINE	824	5	0	n/a	n/a	n/a	n/a	n/a
3602.502	n/a	RECOG_RESP	1801251	n/a	LTP264	ltpFR	2	1	1	LIMOUSINE	824	n/a	0	n/a	n/a	n/a	n/a	n/a
3603.32	n/a	RECOG_CONF	1801660	n/a	LTP264	ltpFR	2	1	1	LIMOUSINE	824	5	0	n/a	n/a	n/a	n/a	n/a
3604.96	n/a	RECOG_LURE	1802480	n/a	LTP264	ltpFR	2	1	n/a	BERRY	122	1	n/a	n/a	n/a	n/a	n/a	n/a
3606.658	n/a	RECOG_RESP	1803329	n/a	LTP264	ltpFR	2	1	n/a	BERRY	122	n/a	n/a	n/a	n/a	n/a	n/a	n/a
3608.398	n/a	RECOG_CONF	1804199	n/a	LTP264	ltpFR	2	1	n/a	BERRY	122	1	n/a	n/a	n/a	n/a	n/a	n/a
3610.124	n/a	RECOG_TARGET	1805062	n/a	LTP264	ltpFR	2	1	0	UMPIRE	1535	5	1	n/a	n/a	n/a	n/a	n/a
3610.914	n/a	RECOG_RESP	1805457	n/a	LTP264	ltpFR	2	1	0	UMPIRE	1535	n/a	1	n/a	n/a	n/a	n/a	n/a
3611.722	n/a	RECOG_CONF	1805861	n/a	LTP264	ltpFR	2	1	0	UMPIRE	1535	5	1	n/a	n/a	n/a	n/a	n/a
3613.358	n/a	RECOG_LURE	1806679	n/a	LTP264	ltpFR	2	1	n/a	NEEDLE	941	2	n/a	n/a	n/a	n/a	n/a	n/a
3616.138	n/a	RECOG_RESP	1808069	n/a	LTP264	ltpFR	2	1	n/a	NEEDLE	941	n/a	n/a	n/a	n/a	n/a	n/a	n/a
3617.48	n/a	RECOG_CONF	1808740	n/a	LTP264	ltpFR	2	1	n/a	NEEDLE	941	2	n/a	n/a	n/a	n/a	n/a	n/a
3619.196	n/a	RECOG_LURE	1809598	n/a	LTP264	ltpFR	2	1	n/a	CARNIVAL	245	3	n/a	n/a	n/a	n/a	n/a	n/a
3620.242	n/a	RECOG_RESP	1810121	n/a	LTP264	ltpFR	2	1	n/a	CARNIVAL	245	n/a	n/a	n/a	n/a	n/a	n/a	n/a
3621.14	n/a	RECOG_CONF	1810570	n/a	LTP264	ltpFR	2	1	n/a	CARNIVAL	245	3	n/a	n/a	n/a	n/a	n/a	n/a
3622.892	n/a	RECOG_LURE	1811446	n/a	LTP264	ltpFR	2	1	n/a	DUMP	505	3	n/a	n/a	n/a	n/a	n/a	n/a
3623.874	n/a	RECOG_RESP	1811937	n/a	LTP264	ltpFR	2	1	n/a	DUMP	505	n/a	n/a	n/a	n/a	n/a	n/a	n/a
3625.162	n/a	RECOG_CONF	1812581	n/a	LTP264	ltpFR	2	1	n/a	DUMP	505	3	n/a	n/a	n/a	n/a	n/a	n/a
3626.91	n/a	RECOG_TARGET	1813455	n/a	LTP264	ltpFR	2	1	0	POWDER	1117	5	0	n/a	n/a	n/a	n/a	n/a
3627.642	n/a	RECOG_RESP	1813821	n/a	LTP264	ltpFR	2	1	0	POWDER	1117	n/a	0	n/a	n/a	n/a	n/a	n/a
3628.594	n/a	RECOG_CONF	1814297	n/a	LTP264	ltpFR	2	1	0	POWDER	1117	5	0	n/a	n/a	n/a	n/a	n/a
3630.34	n/a	RECOG_TARGET	1815170	n/a	LTP264	ltpFR	2	1	0	SNEAKER	1334	5	1	n/a	n/a	n/a	n/a	n/a
3631.03	n/a	RECOG_RESP	1815515	n/a	LTP264	ltpFR	2	1	0	SNEAKER	1334	n/a	1	n/a	n/a	n/a	n/a	n/a
3631.948	n/a	RECOG_CONF	1815974	n/a	LTP264	ltpFR	2	1	0	SNEAKER	1334	5	1	n/a	n/a	n/a	n/a	n/a
3633.602	n/a	RECOG_LURE	1816801	n/a	LTP264	ltpFR	2	1	n/a	GRASSHOPPER	656	3	n/a	n/a	n/a	n/a	n/a	n/a
3637.404	n/a	RECOG_RESP	1818702	n/a	LTP264	ltpFR	2	1	n/a	GRASSHOPPER	656	n/a	n/a	n/a	n/a	n/a	n/a	n/a
3638.204	n/a	RECOG_CONF	1819102	n/a	LTP264	ltpFR	2	1	n/a	GRASSHOPPER	656	3	n/a	n/a	n/a	n/a	n/a	n/a
3640.01	n/a	RECOG_LURE	1820005	n/a	LTP264	ltpFR	2	1	n/a	DICTIONARY	463	5	n/a	n/a	n/a	n/a	n/a	n/a
3640.838	n/a	RECOG_RESP	1820419	n/a	LTP264	ltpFR	2	1	n/a	DICTIONARY	463	n/a	n/a	n/a	n/a	n/a	n/a	n/a
3641.636	n/a	RECOG_CONF	1820818	n/a	LTP264	ltpFR	2	1	n/a	DICTIONARY	463	5	n/a	n/a	n/a	n/a	n/a	n/a
3643.322	n/a	RECOG_TARGET	1821661	n/a	LTP264	ltpFR	2	1	0	POCKETBOOK	1094	5	0	n/a	n/a	n/a	n/a	n/a
3644.06	n/a	RECOG_RESP	1822030	n/a	LTP264	ltpFR	2	1	0	POCKETBOOK	1094	n/a	0	n/a	n/a	n/a	n/a	n/a
3644.948	n/a	RECOG_CONF	1822474	n/a	LTP264	ltpFR	2	1	0	POCKETBOOK	1094	5	0	n/a	n/a	n/a	n/a	n/a
3646.636	n/a	RECOG_LURE	1823318	n/a	LTP264	ltpFR	2	1	n/a	FLASK	576	5	n/a	n/a	n/a	n/a	n/a	n/a
3647.702	n/a	RECOG_RESP	1823851	n/a	LTP264	ltpFR	2	1	n/a	FLASK	576	n/a	n/a	n/a	n/a	n/a	n/a	n/a
3648.57	n/a	RECOG_CONF	1824285	n/a	LTP264	ltpFR	2	1	n/a	FLASK	576	5	n/a	n/a	n/a	n/a	n/a	n/a
3650.33	n/a	RECOG_TARGET	1825165	n/a	LTP264	ltpFR	2	1	-1	SHOWER	1296	3	-1	n/a	n/a	n/a	n/a	n/a
3651.704	n/a	RECOG_RESP	1825852	n/a	LTP264	ltpFR	2	1	-1	SHOWER	1296	n/a	-1	n/a	n/a	n/a	n/a	n/a
3652.682	n/a	RECOG_CONF	1826341	n/a	LTP264	ltpFR	2	1	-1	SHOWER	1296	3	-1	n/a	n/a	n/a	n/a	n/a
3656.562	n/a	REC_START	1828281	n/a	LTP264	ltpFR	2	2	n/a	n/a	n/a	n/a	n/a	n/a	n/a	n/a	n/a	n/a
3656.606	n/a	RECOG_LURE	1828303	n/a	LTP264	ltpFR	2	2	n/a	TRUMPET	1513	3	n/a	n/a	n/a	n/a	n/a	n/a
3657.678	n/a	RECOG_RESP	1828839	n/a	LTP264	ltpFR	2	2	n/a	TRUMPET	1513	n/a	n/a	n/a	n/a	n/a	n/a	n/a
3658.822	n/a	RECOG_CONF	1829411	n/a	LTP264	ltpFR	2	2	n/a	TRUMPET	1513	3	n/a	n/a	n/a	n/a	n/a	n/a
3660.636	n/a	RECOG_TARGET	1830318	n/a	LTP264	ltpFR	2	2	1	CUP	424	5	0	n/a	n/a	n/a	n/a	n/a
3661.734	n/a	RECOG_RESP	1830867	n/a	LTP264	ltpFR	2	2	1	CUP	424	n/a	0	n/a	n/a	n/a	n/a	n/a
3662.602	n/a	RECOG_CONF	1831301	n/a	LTP264	ltpFR	2	2	1	CUP	424	5	0	n/a	n/a	n/a	n/a	n/a
3664.366	n/a	RECOG_TARGET	1832183	n/a	LTP264	ltpFR	2	2	1	TURKEY	1520	5	1	n/a	n/a	n/a	n/a	n/a
3665.546	n/a	RECOG_RESP	1832773	n/a	LTP264	ltpFR	2	2	1	TURKEY	1520	n/a	1	n/a	n/a	n/a	n/a	n/a
3666.424	n/a	RECOG_CONF	1833212	n/a	LTP264	ltpFR	2	2	1	TURKEY	1520	5	1	n/a	n/a	n/a	n/a	n/a
3668.25	n/a	RECOG_LURE	1834125	n/a	LTP264	ltpFR	2	2	n/a	BACK	65	3	n/a	n/a	n/a	n/a	n/a	n/a
3669.522	n/a	RECOG_RESP	1834761	n/a	LTP264	ltpFR	2	2	n/a	BACK	65	n/a	n/a	n/a	n/a	n/a	n/a	n/a
3670.426	n/a	RECOG_CONF	1835213	n/a	LTP264	ltpFR	2	2	n/a	BACK	65	3	n/a	n/a	n/a	n/a	n/a	n/a
3672.082	n/a	RECOG_TARGET	1836041	n/a	LTP264	ltpFR	2	2	1	BEARD	107	5	0	n/a	n/a	n/a	n/a	n/a
3672.74	n/a	RECOG_RESP	1836370	n/a	LTP264	ltpFR	2	2	1	BEARD	107	n/a	0	n/a	n/a	n/a	n/a	n/a
3673.528	n/a	RECOG_CONF	1836764	n/a	LTP264	ltpFR	2	2	1	BEARD	107	5	0	n/a	n/a	n/a	n/a	n/a
3675.258	n/a	RECOG_TARGET	1837629	n/a	LTP264	ltpFR	2	2	0	VISITOR	1573	5	1	n/a	n/a	n/a	n/a	n/a
3676.058	n/a	RECOG_RESP	1838029	n/a	LTP264	ltpFR	2	2	0	VISITOR	1573	n/a	1	n/a	n/a	n/a	n/a	n/a
3676.842	n/a	RECOG_CONF	1838421	n/a	LTP264	ltpFR	2	2	0	VISITOR	1573	5	1	n/a	n/a	n/a	n/a	n/a
3678.674	n/a	RECOG_TARGET	1839337	n/a	LTP264	ltpFR	2	2	1	NET	946	5	0	n/a	n/a	n/a	n/a	n/a
3679.654	n/a	RECOG_RESP	1839827	n/a	LTP264	ltpFR	2	2	1	NET	946	n/a	0	n/a	n/a	n/a	n/a	n/a
3680.522	n/a	RECOG_CONF	1840261	n/a	LTP264	ltpFR	2	2	1	NET	946	5	0	n/a	n/a	n/a	n/a	n/a
3682.234	n/a	RECOG_TARGET	1841117	n/a	LTP264	ltpFR	2	2	0	TURNIP	1521	5	0	n/a	n/a	n/a	n/a	n/a
3682.898	n/a	RECOG_RESP	1841449	n/a	LTP264	ltpFR	2	2	0	TURNIP	1521	n/a	0	n/a	n/a	n/a	n/a	n/a
3683.716	n/a	RECOG_CONF	1841858	n/a	LTP264	ltpFR	2	2	0	TURNIP	1521	5	0	n/a	n/a	n/a	n/a	n/a
3685.466	n/a	RECOG_TARGET	1842733	n/a	LTP264	ltpFR	2	2	0	SEED	1266	5	0	n/a	n/a	n/a	n/a	n/a
3686.68	n/a	RECOG_RESP	1843340	n/a	LTP264	ltpFR	2	2	0	SEED	1266	n/a	0	n/a	n/a	n/a	n/a	n/a
3687.448	n/a	RECOG_CONF	1843724	n/a	LTP264	ltpFR	2	2	0	SEED	1266	5	0	n/a	n/a	n/a	n/a	n/a
3689.164	n/a	RECOG_TARGET	1844582	n/a	LTP264	ltpFR	2	2	0	DRINK	498	3	1	n/a	n/a	n/a	n/a	n/a
3693.146	n/a	RECOG_RESP	1846573	n/a	LTP264	ltpFR	2	2	0	DRINK	498	n/a	1	n/a	n/a	n/a	n/a	n/a
3693.994	n/a	RECOG_CONF	1846997	n/a	LTP264	ltpFR	2	2	0	DRINK	498	3	1	n/a	n/a	n/a	n/a	n/a
3695.82	n/a	RECOG_TARGET	1847910	n/a	LTP264	ltpFR	2	2	1	POLE	1097	5	0	n/a	n/a	n/a	n/a	n/a
3696.866	n/a	RECOG_RESP	1848433	n/a	LTP264	ltpFR	2	2	1	POLE	1097	n/a	0	n/a	n/a	n/a	n/a	n/a
3697.714	n/a	RECOG_CONF	1848857	n/a	LTP264	ltpFR	2	2	1	POLE	1097	5	0	n/a	n/a	n/a	n/a	n/a
3699.352	n/a	RECOG_LURE	1849676	n/a	LTP264	ltpFR	2	2	n/a	TEACHER	1440	3	n/a	n/a	n/a	n/a	n/a	n/a
3699.98	n/a	RECOG_RESP	1849990	n/a	LTP264	ltpFR	2	2	n/a	TEACHER	1440	n/a	n/a	n/a	n/a	n/a	n/a	n/a
3701.156	n/a	RECOG_CONF	1850578	n/a	LTP264	ltpFR	2	2	n/a	TEACHER	1440	3	n/a	n/a	n/a	n/a	n/a	n/a
3702.866	n/a	RECOG_TARGET	1851433	n/a	LTP264	ltpFR	2	2	0	NOTE	958	5	1	n/a	n/a	n/a	n/a	n/a
3704.62	n/a	RECOG_RESP	1852310	n/a	LTP264	ltpFR	2	2	0	NOTE	958	n/a	1	n/a	n/a	n/a	n/a	n/a
3705.418	n/a	RECOG_CONF	1852709	n/a	LTP264	ltpFR	2	2	0	NOTE	958	5	1	n/a	n/a	n/a	n/a	n/a
3707.164	n/a	RECOG_LURE	1853582	n/a	LTP264	ltpFR	2	2	n/a	MASCARA	875	5	n/a	n/a	n/a	n/a	n/a	n/a
3707.972	n/a	RECOG_RESP	1853986	n/a	LTP264	ltpFR	2	2	n/a	MASCARA	875	n/a	n/a	n/a	n/a	n/a	n/a	n/a
3708.78	n/a	RECOG_CONF	1854390	n/a	LTP264	ltpFR	2	2	n/a	MASCARA	875	5	n/a	n/a	n/a	n/a	n/a	n/a
3710.412	n/a	RECOG_TARGET	1855206	n/a	LTP264	ltpFR	2	2	1	MAGNET	855	5	0	n/a	n/a	n/a	n/a	n/a
3711.624	n/a	RECOG_RESP	1855812	n/a	LTP264	ltpFR	2	2	1	MAGNET	855	n/a	0	n/a	n/a	n/a	n/a	n/a
3712.422	n/a	RECOG_CONF	1856211	n/a	LTP264	ltpFR	2	2	1	MAGNET	855	5	0	n/a	n/a	n/a	n/a	n/a
3713.974	n/a	RECOG_TARGET	1856987	n/a	LTP264	ltpFR	2	2	-1	SMOG	1330	5	-1	n/a	n/a	n/a	n/a	n/a
3714.628	n/a	RECOG_RESP	1857314	n/a	LTP264	ltpFR	2	2	-1	SMOG	1330	n/a	-1	n/a	n/a	n/a	n/a	n/a
3715.306	n/a	RECOG_CONF	1857653	n/a	LTP264	ltpFR	2	2	-1	SMOG	1330	5	-1	n/a	n/a	n/a	n/a	n/a
3717.018	n/a	RECOG_LURE	1858509	n/a	LTP264	ltpFR	2	2	n/a	PEARL	1034	3	n/a	n/a	n/a	n/a	n/a	n/a
3718.08	n/a	RECOG_RESP	1859040	n/a	LTP264	ltpFR	2	2	n/a	PEARL	1034	n/a	n/a	n/a	n/a	n/a	n/a	n/a
3718.898	n/a	RECOG_CONF	1859449	n/a	LTP264	ltpFR	2	2	n/a	PEARL	1034	3	n/a	n/a	n/a	n/a	n/a	n/a
3720.534	n/a	RECOG_LURE	1860267	n/a	LTP264	ltpFR	2	2	n/a	FORK	594	5	n/a	n/a	n/a	n/a	n/a	n/a
3721.532	n/a	RECOG_RESP	1860766	n/a	LTP264	ltpFR	2	2	n/a	FORK	594	n/a	n/a	n/a	n/a	n/a	n/a	n/a
3722.68	n/a	RECOG_CONF	1861340	n/a	LTP264	ltpFR	2	2	n/a	FORK	594	5	n/a	n/a	n/a	n/a	n/a	n/a
3724.348	n/a	RECOG_LURE	1862174	n/a	LTP264	ltpFR	2	2	n/a	FUNGUS	614	5	n/a	n/a	n/a	n/a	n/a	n/a
3725.134	n/a	RECOG_RESP	1862567	n/a	LTP264	ltpFR	2	2	n/a	FUNGUS	614	n/a	n/a	n/a	n/a	n/a	n/a	n/a
3725.892	n/a	RECOG_CONF	1862946	n/a	LTP264	ltpFR	2	2	n/a	FUNGUS	614	5	n/a	n/a	n/a	n/a	n/a	n/a
3727.426	n/a	RECOG_TARGET	1863713	n/a	LTP264	ltpFR	2	2	0	RUNNER	1218	3	1	n/a	n/a	n/a	n/a	n/a
3728.596	n/a	RECOG_RESP	1864298	n/a	LTP264	ltpFR	2	2	0	RUNNER	1218	n/a	1	n/a	n/a	n/a	n/a	n/a
3729.544	n/a	RECOG_CONF	1864772	n/a	LTP264	ltpFR	2	2	0	RUNNER	1218	3	1	n/a	n/a	n/a	n/a	n/a
3732.898	n/a	REC_START	1866449	n/a	LTP264	ltpFR	2	3	n/a	n/a	n/a	n/a	n/a	n/a	n/a	n/a	n/a	n/a
3732.948	n/a	RECOG_LURE	1866474	n/a	LTP264	ltpFR	2	3	n/a	VELVET	1555	3	n/a	n/a	n/a	n/a	n/a	n/a
3734.31	n/a	RECOG_RESP	1867155	n/a	LTP264	ltpFR	2	3	n/a	VELVET	1555	n/a	n/a	n/a	n/a	n/a	n/a	n/a
3735.128	n/a	RECOG_CONF	1867564	n/a	LTP264	ltpFR	2	3	n/a	VELVET	1555	3	n/a	n/a	n/a	n/a	n/a	n/a
3736.68	n/a	RECOG_LURE	1868340	n/a	LTP264	ltpFR	2	3	n/a	DAM	436	5	n/a	n/a	n/a	n/a	n/a	n/a
3737.462	n/a	RECOG_RESP	1868731	n/a	LTP264	ltpFR	2	3	n/a	DAM	436	n/a	n/a	n/a	n/a	n/a	n/a	n/a
3738.2	n/a	RECOG_CONF	1869100	n/a	LTP264	ltpFR	2	3	n/a	DAM	436	5	n/a	n/a	n/a	n/a	n/a	n/a
3739.924	n/a	RECOG_TARGET	1869962	n/a	LTP264	ltpFR	2	3	0	CUFF	423	5	1	n/a	n/a	n/a	n/a	n/a
3740.534	n/a	RECOG_RESP	1870267	n/a	LTP264	ltpFR	2	3	0	CUFF	423	n/a	1	n/a	n/a	n/a	n/a	n/a
3741.314	n/a	RECOG_CONF	1870657	n/a	LTP264	ltpFR	2	3	0	CUFF	423	5	1	n/a	n/a	n/a	n/a	n/a
3743.07	n/a	RECOG_TARGET	1871535	n/a	LTP264	ltpFR	2	3	0	ACROBAT	4	5	1	n/a	n/a	n/a	n/a	n/a
3743.718	n/a	RECOG_RESP	1871859	n/a	LTP264	ltpFR	2	3	0	ACROBAT	4	n/a	1	n/a	n/a	n/a	n/a	n/a
3744.428	n/a	RECOG_CONF	1872214	n/a	LTP264	ltpFR	2	3	0	ACROBAT	4	5	1	n/a	n/a	n/a	n/a	n/a
3746.112	n/a	RECOG_TARGET	1873056	n/a	LTP264	ltpFR	2	3	0	WAITRESS	1581	5	1	n/a	n/a	n/a	n/a	n/a
3746.772	n/a	RECOG_RESP	1873386	n/a	LTP264	ltpFR	2	3	0	WAITRESS	1581	n/a	1	n/a	n/a	n/a	n/a	n/a
3747.58	n/a	RECOG_CONF	1873790	n/a	LTP264	ltpFR	2	3	0	WAITRESS	1581	5	1	n/a	n/a	n/a	n/a	n/a
3749.176	n/a	RECOG_LURE	1874588	n/a	LTP264	ltpFR	2	3	n/a	BASKET	95	3	n/a	n/a	n/a	n/a	n/a	n/a
3750.02	n/a	RECOG_RESP	1875010	n/a	LTP264	ltpFR	2	3	n/a	BASKET	95	n/a	n/a	n/a	n/a	n/a	n/a	n/a
3750.752	n/a	RECOG_CONF	1875376	n/a	LTP264	ltpFR	2	3	n/a	BASKET	95	3	n/a	n/a	n/a	n/a	n/a	n/a
3752.356	n/a	RECOG_LURE	1876178	n/a	LTP264	ltpFR	2	3	n/a	FROG	608	5	n/a	n/a	n/a	n/a	n/a	n/a
3753.516	n/a	RECOG_RESP	1876758	n/a	LTP264	ltpFR	2	3	n/a	FROG	608	n/a	n/a	n/a	n/a	n/a	n/a	n/a
3754.254	n/a	RECOG_CONF	1877127	n/a	LTP264	ltpFR	2	3	n/a	FROG	608	5	n/a	n/a	n/a	n/a	n/a	n/a
3755.92	n/a	RECOG_TARGET	1877960	n/a	LTP264	ltpFR	2	3	0	JOINT	758	5	1	n/a	n/a	n/a	n/a	n/a
3756.844	n/a	RECOG_RESP	1878422	n/a	LTP264	ltpFR	2	3	0	JOINT	758	n/a	1	n/a	n/a	n/a	n/a	n/a
3757.766	n/a	RECOG_CONF	1878883	n/a	LTP264	ltpFR	2	3	0	JOINT	758	5	1	n/a	n/a	n/a	n/a	n/a
3759.448	n/a	RECOG_TARGET	1879724	n/a	LTP264	ltpFR	2	3	1	TOOTHPASTE	1483	5	0	n/a	n/a	n/a	n/a	n/a
3760.202	n/a	RECOG_RESP	1880101	n/a	LTP264	ltpFR	2	3	1	TOOTHPASTE	1483	n/a	0	n/a	n/a	n/a	n/a	n/a
3760.97	n/a	RECOG_CONF	1880485	n/a	LTP264	ltpFR	2	3	1	TOOTHPASTE	1483	5	0	n/a	n/a	n/a	n/a	n/a
3762.726	n/a	RECOG_TARGET	1881363	n/a	LTP264	ltpFR	2	3	-1	BEEF	113	5	-1	n/a	n/a	n/a	n/a	n/a
3763.524	n/a	RECOG_RESP	1881762	n/a	LTP264	ltpFR	2	3	-1	BEEF	113	n/a	-1	n/a	n/a	n/a	n/a	n/a
3764.342	n/a	RECOG_CONF	1882171	n/a	LTP264	ltpFR	2	3	-1	BEEF	113	5	-1	n/a	n/a	n/a	n/a	n/a
3766.042	n/a	RECOG_TARGET	1883021	n/a	LTP264	ltpFR	2	3	0	LOUNGE	845	5	1	n/a	n/a	n/a	n/a	n/a
3766.688	n/a	RECOG_RESP	1883344	n/a	LTP264	ltpFR	2	3	0	LOUNGE	845	n/a	1	n/a	n/a	n/a	n/a	n/a
3767.496	n/a	RECOG_CONF	1883748	n/a	LTP264	ltpFR	2	3	0	LOUNGE	845	5	1	n/a	n/a	n/a	n/a	n/a
3769.202	n/a	RECOG_TARGET	1884601	n/a	LTP264	ltpFR	2	3	-1	JEWEL	757	5	-1	n/a	n/a	n/a	n/a	n/a
3769.82	n/a	RECOG_RESP	1884910	n/a	LTP264	ltpFR	2	3	-1	JEWEL	757	n/a	-1	n/a	n/a	n/a	n/a	n/a
3770.608	n/a	RECOG_CONF	1885304	n/a	LTP264	ltpFR	2	3	-1	JEWEL	757	5	-1	n/a	n/a	n/a	n/a	n/a
3772.364	n/a	RECOG_TARGET	1886182	n/a	LTP264	ltpFR	2	3	1	GLACIER	638	5	1	n/a	n/a	n/a	n/a	n/a
3772.994	n/a	RECOG_RESP	1886497	n/a	LTP264	ltpFR	2	3	1	GLACIER	638	n/a	1	n/a	n/a	n/a	n/a	n/a
3773.812	n/a	RECOG_CONF	1886906	n/a	LTP264	ltpFR	2	3	1	GLACIER	638	5	1	n/a	n/a	n/a	n/a	n/a
3775.426	n/a	RECOG_TARGET	1887713	n/a	LTP264	ltpFR	2	3	1	COOKBOOK	373	5	1	n/a	n/a	n/a	n/a	n/a
3776.086	n/a	RECOG_RESP	1888043	n/a	LTP264	ltpFR	2	3	1	COOKBOOK	373	n/a	1	n/a	n/a	n/a	n/a	n/a
3776.844	n/a	RECOG_CONF	1888422	n/a	LTP264	ltpFR	2	3	1	COOKBOOK	373	5	1	n/a	n/a	n/a	n/a	n/a
3778.506	n/a	RECOG_LURE	1889253	n/a	LTP264	ltpFR	2	3	n/a	SLIME	1327	3	n/a	n/a	n/a	n/a	n/a	n/a
3779.628	n/a	RECOG_RESP	1889814	n/a	LTP264	ltpFR	2	3	n/a	SLIME	1327	n/a	n/a	n/a	n/a	n/a	n/a	n/a
