onset	duration	trial_type	sample	stim_file	subject	experiment	session	trial	task	item_name	item_num	recog_resp	recog_conf	resp	color_r	color_g	color_b	case	font
382.66	n/a	SESS_START	191330	n/a	LTP132	ltpFR	0	n/a	n/a	n/a	n/a	0	3	n/a	n/a	n/a	n/a	n/a	n/a
496.26	n/a	WORD	248130	wordpools/wasnorm_wordpool.txt	LTP132	ltpFR	0	1	-1	SKULL	1320	1	n/a	-1	1.0	1.0	1	upper	Verdana.ttf
500.122	n/a	WORD	250061	wordpools/wasnorm_wordpool.txt	LTP132	ltpFR	0	1	-1	BEARD	107	n/a	n/a	-1	1.0	1.0	1	upper	Verdana.ttf
504.192	n/a	WORD	252096	wordpools/wasnorm_wordpool.txt	LTP132	ltpFR	0	1	-1	SMOG	1330	n/a	n/a	-1	1.0	1.0	1	upper	Verdana.ttf
508.088	n/a	WORD	254044	wordpools/wasnorm_wordpool.txt	LTP132	ltpFR	0	1	-1	NOTE	958	n/a	n/a	-1	1.0	1.0	1	upper	Verdana.ttf
511.95	n/a	WORD	255975	wordpools/wasnorm_wordpool.txt	LTP132	ltpFR	0	1	-1	FREEZER	604	n/a	n/a	-1	1.0	1.0	1	upper	Verdana.ttf
515.804	n/a	WORD	257902	wordpools/wasnorm_wordpool.txt	LTP132	ltpFR	0	1	-1	LASH	802	n/a	n/a	-1	1.0	1.0	1	upper	Verdana.ttf
519.9	n/a	WORD	259950	wordpools/wasnorm_wordpool.txt	LTP132	ltpFR	0	1	-1	PIE	1062	n/a	n/a	-1	1.0	1.0	1	upper	Verdana.ttf
523.77	n/a	WORD	261885	wordpools/wasnorm_wordpool.txt	LTP132	ltpFR	0	1	-1	DRIVEWAY	500	n/a	n/a	-1	1.0	1.0	1	upper	Verdana.ttf
527.69	n/a	WORD	263845	wordpools/wasnorm_wordpool.txt	LTP132	ltpFR	0	1	-1	STICKER	1382	n/a	n/a	-1	1.0	1.0	1	upper	Verdana.ttf
531.684	n/a	WORD	265842	wordpools/wasnorm_wordpool.txt	LTP132	ltpFR	0	1	-1	WEED	1599	n/a	n/a	-1	1.0	1.0	1	upper	Verdana.ttf
535.572	n/a	WORD	267786	wordpools/wasnorm_wordpool.txt	LTP132	ltpFR	0	1	-1	ROOMMATE	1207	n/a	n/a	-1	1.0	1.0	1	upper	Verdana.ttf
539.66	n/a	WORD	269830	wordpools/wasnorm_wordpool.txt	LTP132	ltpFR	0	1	-1	GUEST	669	n/a	n/a	-1	1.0	1.0	1	upper	Verdana.ttf
543.68	n/a	WORD	271840	wordpools/wasnorm_wordpool.txt	LTP132	ltpFR	0	1	-1	COOKIE	374	n/a	n/a	-1	1.0	1.0	1	upper	Verdana.ttf
547.75	n/a	WORD	273875	wordpools/wasnorm_wordpool.txt	LTP132	ltpFR	0	1	-1	GARAGE	621	n/a	n/a	-1	1.0	1.0	1	upper	Verdana.ttf
551.796	n/a	WORD	275898	wordpools/wasnorm_wordpool.txt	LTP132	ltpFR	0	1	-1	BIOLOGIST	128	n/a	n/a	-1	1.0	1.0	1	upper	Verdana.ttf
555.858	n/a	WORD	277929	wordpools/wasnorm_wordpool.txt	LTP132	ltpFR	0	1	-1	MOLECULE	905	n/a	n/a	-1	1.0	1.0	1	upper	Verdana.ttf
561.618	n/a	REC_START	280809	n/a	LTP132	ltpFR	0	1	n/a	n/a	n/a	n/a	n/a	n/a	n/a	n/a	n/a	n/a	n/a
562.67	n/a	REC_WORD	281335	wordpools/wasnorm_wordpool.txt	LTP132	ltpFR	0	1	-1	BIOLOGIST	128	n/a	n/a	-1	n/a	n/a	n/a	n/a	n/a
563.764	n/a	REC_WORD	281882	wordpools/wasnorm_wordpool.txt	LTP132	ltpFR	0	1	-1	MOLECULE	905	n/a	n/a	-1	n/a	n/a	n/a	n/a	n/a
565.026	n/a	REC_WORD	282513	wordpools/wasnorm_wordpool.txt	LTP132	ltpFR	0	1	-1	GUEST	669	n/a	n/a	-1	n/a	n/a	n/a	n/a	n/a
566.118	n/a	REC_WORD	283059	wordpools/wasnorm_wordpool.txt	LTP132	ltpFR	0	1	-1	ROOMMATE	1207	n/a	n/a	-1	n/a	n/a	n/a	n/a	n/a
567.416	n/a	REC_WORD	283708	wordpools/wasnorm_wordpool.txt	LTP132	ltpFR	0	1	-1	BEARD	107	n/a	n/a	-1	n/a	n/a	n/a	n/a	n/a
568.448	n/a	REC_WORD	284224	wordpools/wasnorm_wordpool.txt	LTP132	ltpFR	0	1	-1	SKULL	1320	n/a	n/a	-1	n/a	n/a	n/a	n/a	n/a
570.898	n/a	REC_WORD	285449	wordpools/wasnorm_wordpool.txt	LTP132	ltpFR	0	1	-1	NOTE	958	n/a	n/a	-1	n/a	n/a	n/a	n/a	n/a
576.22	n/a	REC_WORD	288110	wordpools/wasnorm_wordpool.txt	LTP132	ltpFR	0	1	-1	LASH	802	n/a	n/a	-1	n/a	n/a	n/a	n/a	n/a
577.438	n/a	REC_WORD	288719	wordpools/wasnorm_wordpool.txt	LTP132	ltpFR	0	1	-1	WEED	1599	n/a	n/a	-1	n/a	n/a	n/a	n/a	n/a
626.08	n/a	REC_WORD	313040	wordpools/wasnorm_wordpool.txt	LTP132	ltpFR	0	1	-1	ROOMMATE	1207	n/a	n/a	-1	n/a	n/a	n/a	n/a	n/a
626.816	n/a	REC_WORD	313408	wordpools/wasnorm_wordpool.txt	LTP132	ltpFR	0	1	-1	GUEST	669	n/a	n/a	-1	n/a	n/a	n/a	n/a	n/a
627.302	n/a	REC_WORD	313651	wordpools/wasnorm_wordpool.txt	LTP132	ltpFR	0	1	-1	DRIVEWAY	500	n/a	n/a	-1	n/a	n/a	n/a	n/a	n/a
666.264	n/a	WORD	333132	wordpools/wasnorm_wordpool.txt	LTP132	ltpFR	0	2	-1	TONGUE	1479	n/a	n/a	-1	1.0	1.0	1	upper	Verdana.ttf
670.268	n/a	WORD	335134	wordpools/wasnorm_wordpool.txt	LTP132	ltpFR	0	2	-1	SHOWER	1296	n/a	n/a	-1	1.0	1.0	1	upper	Verdana.ttf
674.472	n/a	WORD	337236	wordpools/wasnorm_wordpool.txt	LTP132	ltpFR	0	2	-1	BERRY	122	n/a	n/a	-1	1.0	1.0	1	upper	Verdana.ttf
678.458	n/a	WORD	339229	wordpools/wasnorm_wordpool.txt	LTP132	ltpFR	0	2	-1	JOKER	759	n/a	n/a	-1	1.0	1.0	1	upper	Verdana.ttf
682.446	n/a	WORD	341223	wordpools/wasnorm_wordpool.txt	LTP132	ltpFR	0	2	-1	COOKBOOK	373	n/a	n/a	-1	1.0	1.0	1	upper	Verdana.ttf
686.4	n/a	WORD	343200	wordpools/wasnorm_wordpool.txt	LTP132	ltpFR	0	2	-1	HUT	729	n/a	n/a	-1	1.0	1.0	1	upper	Verdana.ttf
690.286	n/a	WORD	345143	wordpools/wasnorm_wordpool.txt	LTP132	ltpFR	0	2	-1	TRIBE	1505	n/a	n/a	-1	1.0	1.0	1	upper	Verdana.ttf
694.208	n/a	WORD	347104	wordpools/wasnorm_wordpool.txt	LTP132	ltpFR	0	2	-1	VACUUM	1543	n/a	n/a	-1	1.0	1.0	1	upper	Verdana.ttf
698.186	n/a	WORD	349093	wordpools/wasnorm_wordpool.txt	LTP132	ltpFR	0	2	-1	WOLF	1619	n/a	n/a	-1	1.0	1.0	1	upper	Verdana.ttf
702.066	n/a	WORD	351033	wordpools/wasnorm_wordpool.txt	LTP132	ltpFR	0	2	-1	TUBA	1515	n/a	n/a	-1	1.0	1.0	1	upper	Verdana.ttf
706.044	n/a	WORD	353022	wordpools/wasnorm_wordpool.txt	LTP132	ltpFR	0	2	-1	SWING	1421	n/a	n/a	-1	1.0	1.0	1	upper	Verdana.ttf
710.238	n/a	WORD	355119	wordpools/wasnorm_wordpool.txt	LTP132	ltpFR	0	2	-1	PLANT	1083	n/a	n/a	-1	1.0	1.0	1	upper	Verdana.ttf
714.442	n/a	WORD	357221	wordpools/wasnorm_wordpool.txt	LTP132	ltpFR	0	2	-1	PAIL	1002	n/a	n/a	-1	1.0	1.0	1	upper	Verdana.ttf
718.422	n/a	WORD	359211	wordpools/wasnorm_wordpool.txt	LTP132	ltpFR	0	2	-1	SUBMARINE	1398	n/a	n/a	-1	1.0	1.0	1	upper	Verdana.ttf
722.526	n/a	WORD	361263	wordpools/wasnorm_wordpool.txt	LTP132	ltpFR	0	2	-1	STRAWBERRY	1391	n/a	n/a	-1	1.0	1.0	1	upper	Verdana.ttf
726.628	n/a	WORD	363314	wordpools/wasnorm_wordpool.txt	LTP132	ltpFR	0	2	-1	SAW	1239	n/a	n/a	-1	1.0	1.0	1	upper	Verdana.ttf
732.49	n/a	REC_START	366245	n/a	LTP132	ltpFR	0	2	n/a	n/a	n/a	n/a	n/a	n/a	n/a	n/a	n/a	n/a	n/a
733.406	n/a	REC_WORD	366703	wordpools/wasnorm_wordpool.txt	LTP132	ltpFR	0	2	-1	SAW	1239	n/a	n/a	-1	n/a	n/a	n/a	n/a	n/a
734.48	n/a	REC_WORD	367240	wordpools/wasnorm_wordpool.txt	LTP132	ltpFR	0	2	-1	STRAWBERRY	1391	n/a	n/a	-1	n/a	n/a	n/a	n/a	n/a
735.732	n/a	REC_WORD	367866	wordpools/wasnorm_wordpool.txt	LTP132	ltpFR	0	2	-1	TUBA	1515	n/a	n/a	-1	n/a	n/a	n/a	n/a	n/a
736.974	n/a	REC_WORD	368487	wordpools/wasnorm_wordpool.txt	LTP132	ltpFR	0	2	-1	BERRY	122	n/a	n/a	-1	n/a	n/a	n/a	n/a	n/a
738.05	n/a	REC_WORD	369025	wordpools/wasnorm_wordpool.txt	LTP132	ltpFR	0	2	-1	SUBMARINE	1398	n/a	n/a	-1	n/a	n/a	n/a	n/a	n/a
743.424	n/a	REC_WORD	371712	wordpools/wasnorm_wordpool.txt	LTP132	ltpFR	0	2	-1	TONGUE	1479	n/a	n/a	-1	n/a	n/a	n/a	n/a	n/a
759.168	n/a	REC_WORD	379584	wordpools/wasnorm_wordpool.txt	LTP132	ltpFR	0	2	-1	PAIL	1002	n/a	n/a	-1	n/a	n/a	n/a	n/a	n/a
815.478	n/a	WORD	407739	wordpools/wasnorm_wordpool.txt	LTP132	ltpFR	0	3	-1	KLEENEX	782	n/a	n/a	-1	1.0	1.0	1	upper	Verdana.ttf
819.53	n/a	WORD	409765	wordpools/wasnorm_wordpool.txt	LTP132	ltpFR	0	3	-1	NOTEBOOK	959	n/a	n/a	-1	1.0	1.0	1	upper	Verdana.ttf
823.584	n/a	WORD	411792	wordpools/wasnorm_wordpool.txt	LTP132	ltpFR	0	3	-1	DRIVER	499	n/a	n/a	-1	1.0	1.0	1	upper	Verdana.ttf
827.454	n/a	WORD	413727	wordpools/wasnorm_wordpool.txt	LTP132	ltpFR	0	3	-1	BATH	98	n/a	n/a	-1	1.0	1.0	1	upper	Verdana.ttf
831.316	n/a	WORD	415658	wordpools/wasnorm_wordpool.txt	LTP132	ltpFR	0	3	-1	FIREPLACE	570	n/a	n/a	-1	1.0	1.0	1	upper	Verdana.ttf
835.296	n/a	WORD	417648	wordpools/wasnorm_wordpool.txt	LTP132	ltpFR	0	3	-1	TACK	1428	n/a	n/a	-1	1.0	1.0	1	upper	Verdana.ttf
839.168	n/a	WORD	419584	wordpools/wasnorm_wordpool.txt	LTP132	ltpFR	0	3	-1	WRENCH	1625	n/a	n/a	-1	1.0	1.0	1	upper	Verdana.ttf
843.27	n/a	WORD	421635	wordpools/wasnorm_wordpool.txt	LTP132	ltpFR	0	3	-1	RULER	1216	n/a	n/a	-1	1.0	1.0	1	upper	Verdana.ttf
847.192	n/a	WORD	423596	wordpools/wasnorm_wordpool.txt	LTP132	ltpFR	0	3	-1	PATH	1023	n/a	n/a	-1	1.0	1.0	1	upper	Verdana.ttf
851.402	n/a	WORD	425701	wordpools/wasnorm_wordpool.txt	LTP132	ltpFR	0	3	-1	MONEY	908	n/a	n/a	-1	1.0	1.0	1	upper	Verdana.ttf
855.506	n/a	WORD	427753	wordpools/wasnorm_wordpool.txt	LTP132	ltpFR	0	3	-1	LINEN	825	n/a	n/a	-1	1.0	1.0	1	upper	Verdana.ttf
859.626	n/a	WORD	429813	wordpools/wasnorm_wordpool.txt	LTP132	ltpFR	0	3	-1	VAN	1548	n/a	n/a	-1	1.0	1.0	1	upper	Verdana.ttf
863.488	n/a	WORD	431744	wordpools/wasnorm_wordpool.txt	LTP132	ltpFR	0	3	-1	PIGEON	1065	n/a	n/a	-1	1.0	1.0	1	upper	Verdana.ttf
867.308	n/a	WORD	433654	wordpools/wasnorm_wordpool.txt	LTP132	ltpFR	0	3	-1	DRILL	497	n/a	n/a	-1	1.0	1.0	1	upper	Verdana.ttf
871.27	n/a	WORD	435635	wordpools/wasnorm_wordpool.txt	LTP132	ltpFR	0	3	-1	OBOE	969	n/a	n/a	-1	1.0	1.0	1	upper	Verdana.ttf
875.368	n/a	WORD	437684	wordpools/wasnorm_wordpool.txt	LTP132	ltpFR	0	3	-1	BAND	78	n/a	n/a	-1	1.0	1.0	1	upper	Verdana.ttf
881.212	n/a	REC_START	440606	n/a	LTP132	ltpFR	0	3	n/a	n/a	n/a	n/a	n/a	n/a	n/a	n/a	n/a	n/a	n/a
882.238	n/a	REC_WORD	441119	wordpools/wasnorm_wordpool.txt	LTP132	ltpFR	0	3	-1	KLEENEX	782	n/a	n/a	-1	n/a	n/a	n/a	n/a	n/a
883.332	n/a	REC_WORD	441666	wordpools/wasnorm_wordpool.txt	LTP132	ltpFR	0	3	-1	BAND	78	n/a	n/a	-1	n/a	n/a	n/a	n/a	n/a
884.528	n/a	REC_WORD	442264	wordpools/wasnorm_wordpool.txt	LTP132	ltpFR	0	3	-1	OBOE	969	n/a	n/a	-1	n/a	n/a	n/a	n/a	n/a
885.682	n/a	REC_WORD	442841	wordpools/wasnorm_wordpool.txt	LTP132	ltpFR	0	3	-1	NOTEBOOK	959	n/a	n/a	-1	n/a	n/a	n/a	n/a	n/a
892.182	n/a	REC_WORD	446091	wordpools/wasnorm_wordpool.txt	LTP132	ltpFR	0	3	-1	DRILL	497	n/a	n/a	-1	n/a	n/a	n/a	n/a	n/a
933.452	n/a	REC_WORD	466726	wordpools/wasnorm_wordpool.txt	LTP132	ltpFR	0	3	-1	BATH	98	n/a	n/a	-1	n/a	n/a	n/a	n/a	n/a
939.434	n/a	REC_WORD	469717	wordpools/wasnorm_wordpool.txt	LTP132	ltpFR	0	3	-1	VAN	1548	n/a	n/a	-1	n/a	n/a	n/a	n/a	n/a
948.788	n/a	REC_WORD	474394	wordpools/wasnorm_wordpool.txt	LTP132	ltpFR	0	3	-1	FIREPLACE	570	n/a	n/a	-1	n/a	n/a	n/a	n/a	n/a
962.358	n/a	WORD	481179	wordpools/wasnorm_wordpool.txt	LTP132	ltpFR	0	4	-1	STAPLER	1372	n/a	n/a	-1	1.0	1.0	1	upper	Verdana.ttf
966.42	n/a	WORD	483210	wordpools/wasnorm_wordpool.txt	LTP132	ltpFR	0	4	-1	JOURNAL	760	n/a	n/a	-1	1.0	1.0	1	upper	Verdana.ttf
970.624	n/a	WORD	485312	wordpools/wasnorm_wordpool.txt	LTP132	ltpFR	0	4	-1	VISITOR	1573	n/a	n/a	-1	1.0	1.0	1	upper	Verdana.ttf
974.478	n/a	WORD	487239	wordpools/wasnorm_wordpool.txt	LTP132	ltpFR	0	4	-1	SLACKS	1323	n/a	n/a	-1	1.0	1.0	1	upper	Verdana.ttf
978.348	n/a	WORD	489174	wordpools/wasnorm_wordpool.txt	LTP132	ltpFR	0	4	-1	CAFE	216	n/a	n/a	-1	1.0	1.0	1	upper	Verdana.ttf
982.386	n/a	WORD	491193	wordpools/wasnorm_wordpool.txt	LTP132	ltpFR	0	4	-1	GRILL	661	n/a	n/a	-1	1.0	1.0	1	upper	Verdana.ttf
986.422	n/a	WORD	493211	wordpools/wasnorm_wordpool.txt	LTP132	ltpFR	0	4	-1	CUSTARD	429	n/a	n/a	-1	1.0	1.0	1	upper	Verdana.ttf
990.384	n/a	WORD	495192	wordpools/wasnorm_wordpool.txt	LTP132	ltpFR	0	4	-1	JELLO	754	n/a	n/a	-1	1.0	1.0	1	upper	Verdana.ttf
994.556	n/a	WORD	497278	wordpools/wasnorm_wordpool.txt	LTP132	ltpFR	0	4	-1	SKIRT	1319	n/a	n/a	-1	1.0	1.0	1	upper	Verdana.ttf
998.418	n/a	WORD	499209	wordpools/wasnorm_wordpool.txt	LTP132	ltpFR	0	4	-1	COOLER	375	n/a	n/a	-1	1.0	1.0	1	upper	Verdana.ttf
1002.254	n/a	WORD	501127	wordpools/wasnorm_wordpool.txt	LTP132	ltpFR	0	4	-1	HEATER	698	n/a	n/a	-1	1.0	1.0	1	upper	Verdana.ttf
1006.374	n/a	WORD	503187	wordpools/wasnorm_wordpool.txt	LTP132	ltpFR	0	4	-1	VICTIM	1562	n/a	n/a	-1	1.0	1.0	1	upper	Verdana.ttf
1010.37	n/a	WORD	505185	wordpools/wasnorm_wordpool.txt	LTP132	ltpFR	0	4	-1	STRANGER	1389	n/a	n/a	-1	1.0	1.0	1	upper	Verdana.ttf
1014.208	n/a	WORD	507104	wordpools/wasnorm_wordpool.txt	LTP132	ltpFR	0	4	-1	SIGN	1305	n/a	n/a	-1	1.0	1.0	1	upper	Verdana.ttf
1018.104	n/a	WORD	509052	wordpools/wasnorm_wordpool.txt	LTP132	ltpFR	0	4	-1	COUCH	386	n/a	n/a	-1	1.0	1.0	1	upper	Verdana.ttf
1021.95	n/a	WORD	510975	wordpools/wasnorm_wordpool.txt	LTP132	ltpFR	0	4	-1	EMERALD	528	n/a	n/a	-1	1.0	1.0	1	upper	Verdana.ttf
1027.91	n/a	REC_START	513955	n/a	LTP132	ltpFR	0	4	n/a	n/a	n/a	n/a	n/a	n/a	n/a	n/a	n/a	n/a	n/a
1029.192	n/a	REC_WORD	514596	wordpools/wasnorm_wordpool.txt	LTP132	ltpFR	0	4	-1	COUCH	386	n/a	n/a	-1	n/a	n/a	n/a	n/a	n/a
1030.144	n/a	REC_WORD	515072	wordpools/wasnorm_wordpool.txt	LTP132	ltpFR	0	4	-1	EMERALD	528	n/a	n/a	-1	n/a	n/a	n/a	n/a	n/a
1031.056	n/a	REC_WORD	515528	wordpools/wasnorm_wordpool.txt	LTP132	ltpFR	0	4	-1	HEATER	698	n/a	n/a	-1	n/a	n/a	n/a	n/a	n/a
1032.23	n/a	REC_WORD	516115	wordpools/wasnorm_wordpool.txt	LTP132	ltpFR	0	4	-1	COOLER	375	n/a	n/a	-1	n/a	n/a	n/a	n/a	n/a
1035.598	n/a	REC_WORD	517799	wordpools/wasnorm_wordpool.txt	LTP132	ltpFR	0	4	-1	SLACKS	1323	n/a	n/a	-1	n/a	n/a	n/a	n/a	n/a
1036.81	n/a	REC_WORD	518405	wordpools/wasnorm_wordpool.txt	LTP132	ltpFR	0	4	-1	SKIRT	1319	n/a	n/a	-1	n/a	n/a	n/a	n/a	n/a
1039.558	n/a	REC_WORD	519779	wordpools/wasnorm_wordpool.txt	LTP132	ltpFR	0	4	-1	STAPLER	1372	n/a	n/a	-1	n/a	n/a	n/a	n/a	n/a
1040.936	n/a	REC_WORD	520468	wordpools/wasnorm_wordpool.txt	LTP132	ltpFR	0	4	-1	JOURNAL	760	n/a	n/a	-1	n/a	n/a	n/a	n/a	n/a
1058.498	n/a	REC_WORD	529249	wordpools/wasnorm_wordpool.txt	LTP132	ltpFR	0	4	-1	VISITOR	1573	n/a	n/a	-1	n/a	n/a	n/a	n/a	n/a
1064.926	n/a	REC_WORD	532463	wordpools/wasnorm_wordpool.txt	LTP132	ltpFR	0	4	-1	GRILL	661	n/a	n/a	-1	n/a	n/a	n/a	n/a	n/a
1361.054	n/a	WORD	680527	wordpools/wasnorm_wordpool.txt	LTP132	ltpFR	0	5	0	PECAN	1036	n/a	n/a	0	0.57763671875	0.412841796875	1	upper	zerothre.ttf
1365.216	n/a	WORD	682608	wordpools/wasnorm_wordpool.txt	LTP132	ltpFR	0	5	0	DRESS	495	n/a	n/a	1	0.57763671875	0.412841796875	1	upper	zerothre.ttf
1369.168	n/a	WORD	684584	wordpools/wasnorm_wordpool.txt	LTP132	ltpFR	0	5	0	ROOSTER	1209	n/a	n/a	0	0.57763671875	0.412841796875	1	upper	zerothre.ttf
1373.18	n/a	WORD	686590	wordpools/wasnorm_wordpool.txt	LTP132	ltpFR	0	5	0	LOUNGE	845	n/a	n/a	1	0.57763671875	0.412841796875	1	upper	zerothre.ttf
1377.068	n/a	WORD	688534	wordpools/wasnorm_wordpool.txt	LTP132	ltpFR	0	5	0	PHOTO	1055	n/a	n/a	0	0.57763671875	0.412841796875	1	upper	zerothre.ttf
1381.104	n/a	WORD	690552	wordpools/wasnorm_wordpool.txt	LTP132	ltpFR	0	5	0	ROD	1203	n/a	n/a	0	0.57763671875	0.412841796875	1	upper	zerothre.ttf
1384.976	n/a	WORD	692488	wordpools/wasnorm_wordpool.txt	LTP132	ltpFR	0	5	0	BARREL	91	n/a	n/a	1	0.57763671875	0.412841796875	1	upper	zerothre.ttf
1389.012	n/a	WORD	694506	wordpools/wasnorm_wordpool.txt	LTP132	ltpFR	0	5	0	VIOLA	1570	n/a	n/a	1	0.57763671875	0.412841796875	1	upper	zerothre.ttf
1393.032	n/a	WORD	696516	wordpools/wasnorm_wordpool.txt	LTP132	ltpFR	0	5	0	TROMBONE	1508	n/a	n/a	1	0.57763671875	0.412841796875	1	upper	zerothre.ttf
1397.036	n/a	WORD	698518	wordpools/wasnorm_wordpool.txt	LTP132	ltpFR	0	5	0	NOVEL	960	n/a	n/a	0	0.57763671875	0.412841796875	1	upper	zerothre.ttf
1400.948	n/a	WORD	700474	wordpools/wasnorm_wordpool.txt	LTP132	ltpFR	0	5	0	CABINET	212	n/a	n/a	1	0.57763671875	0.412841796875	1	upper	zerothre.ttf
1404.852	n/a	WORD	702426	wordpools/wasnorm_wordpool.txt	LTP132	ltpFR	0	5	0	WALNUT	1584	n/a	n/a	0	0.57763671875	0.412841796875	1	upper	zerothre.ttf
1408.68	n/a	WORD	704340	wordpools/wasnorm_wordpool.txt	LTP132	ltpFR	0	5	0	STAFF	1365	n/a	n/a	1	0.57763671875	0.412841796875	1	upper	zerothre.ttf
1412.818	n/a	WORD	706409	wordpools/wasnorm_wordpool.txt	LTP132	ltpFR	0	5	0	PUPIL	1143	n/a	n/a	1	0.57763671875	0.412841796875	1	upper	zerothre.ttf
1416.77	n/a	WORD	708385	wordpools/wasnorm_wordpool.txt	LTP132	ltpFR	0	5	0	IRON	744	n/a	n/a	0	0.57763671875	0.412841796875	1	upper	zerothre.ttf
1420.642	n/a	WORD	710321	wordpools/wasnorm_wordpool.txt	LTP132	ltpFR	0	5	0	TERRITORY	1452	n/a	n/a	1	0.57763671875	0.412841796875	1	upper	zerothre.ttf
1426.468	n/a	REC_START	713234	n/a	LTP132	ltpFR	0	5	n/a	n/a	n/a	n/a	n/a	n/a	n/a	n/a	n/a	n/a	n/a
1427.796	n/a	REC_WORD	713898	wordpools/wasnorm_wordpool.txt	LTP132	ltpFR	0	5	0	TERRITORY	1452	n/a	n/a	1	n/a	n/a	n/a	n/a	n/a
1429.008	n/a	REC_WORD	714504	wordpools/wasnorm_wordpool.txt	LTP132	ltpFR	0	5	0	TROMBONE	1508	n/a	n/a	1	n/a	n/a	n/a	n/a	n/a
1430.564	n/a	REC_WORD	715282	wordpools/wasnorm_wordpool.txt	LTP132	ltpFR	0	5	0	NOVEL	960	n/a	n/a	0	n/a	n/a	n/a	n/a	n/a
1432.534	n/a	REC_WORD	716267	wordpools/wasnorm_wordpool.txt	LTP132	ltpFR	0	5	0	STAFF	1365	n/a	n/a	1	n/a	n/a	n/a	n/a	n/a
1434.022	n/a	REC_WORD	717011	wordpools/wasnorm_wordpool.txt	LTP132	ltpFR	0	5	0	ROD	1203	n/a	n/a	0	n/a	n/a	n/a	n/a	n/a
1437.34	n/a	REC_WORD	718670	wordpools/wasnorm_wordpool.txt	LTP132	ltpFR	0	5	0	VIOLA	1570	n/a	n/a	1	n/a	n/a	n/a	n/a	n/a
1447.15	n/a	REC_WORD	723575	wordpools/wasnorm_wordpool.txt	LTP132	ltpFR	0	5	n/a	PELICAN	1039	n/a	n/a	n/a	n/a	n/a	n/a	n/a	n/a
1456.522	n/a	REC_WORD	728261	wordpools/wasnorm_wordpool.txt	LTP132	ltpFR	0	5	0	CABINET	212	n/a	n/a	1	n/a	n/a	n/a	n/a	n/a
1460.87	n/a	REC_WORD	730435	wordpools/wasnorm_wordpool.txt	LTP132	ltpFR	0	5	0	PHOTO	1055	n/a	n/a	0	n/a	n/a	n/a	n/a	n/a
1488.034	n/a	REC_WORD	744017	wordpools/wasnorm_wordpool.txt	LTP132	ltpFR	0	5	0	ROOSTER	1209	n/a	n/a	0	n/a	n/a	n/a	n/a	n/a
1509.764	n/a	WORD	754882	wordpools/wasnorm_wordpool.txt	LTP132	ltpFR	0	6	0	COUGAR	387	n/a	n/a	1	0.57763671875	0.412841796875	1	upper	zerothre.ttf
1513.61	n/a	WORD	756805	wordpools/wasnorm_wordpool.txt	LTP132	ltpFR	0	6	0	BAKER	71	n/a	n/a	1	0.57763671875	0.412841796875	1	upper	zerothre.ttf
1517.482	n/a	WORD	758741	wordpools/wasnorm_wordpool.txt	LTP132	ltpFR	0	6	0	CHIMNEY	301	n/a	n/a	1	0.57763671875	0.412841796875	1	upper	zerothre.ttf
1521.294	n/a	WORD	760647	wordpools/wasnorm_wordpool.txt	LTP132	ltpFR	0	6	0	REFEREE	1178	n/a	n/a	1	0.57763671875	0.412841796875	1	upper	zerothre.ttf
1525.364	n/a	WORD	762682	wordpools/wasnorm_wordpool.txt	LTP132	ltpFR	0	6	0	PRISONER	1128	n/a	n/a	1	0.57763671875	0.412841796875	1	upper	zerothre.ttf
1529.4	n/a	WORD	764700	wordpools/wasnorm_wordpool.txt	LTP132	ltpFR	0	6	0	CONVICT	371	n/a	n/a	1	0.57763671875	0.412841796875	1	upper	zerothre.ttf
1533.304	n/a	WORD	766652	wordpools/wasnorm_wordpool.txt	LTP132	ltpFR	0	6	0	ORCHID	982	n/a	n/a	0	0.57763671875	0.412841796875	1	upper	zerothre.ttf
1537.292	n/a	WORD	768646	wordpools/wasnorm_wordpool.txt	LTP132	ltpFR	0	6	0	MARINE	869	n/a	n/a	1	0.57763671875	0.412841796875	1	upper	zerothre.ttf
1541.27	n/a	WORD	770635	wordpools/wasnorm_wordpool.txt	LTP132	ltpFR	0	6	0	DOCK	477	n/a	n/a	1	0.57763671875	0.412841796875	1	upper	zerothre.ttf
1545.416	n/a	WORD	772708	wordpools/wasnorm_wordpool.txt	LTP132	ltpFR	0	6	0	OVEN	991	n/a	n/a	1	0.57763671875	0.412841796875	1	upper	zerothre.ttf
1549.32	n/a	WORD	774660	wordpools/wasnorm_wordpool.txt	LTP132	ltpFR	0	6	0	CHEESE	289	n/a	n/a	0	0.57763671875	0.412841796875	1	upper	zerothre.ttf
1553.298	n/a	WORD	776649	wordpools/wasnorm_wordpool.txt	LTP132	ltpFR	0	6	0	VIRUS	1572	n/a	n/a	0	0.57763671875	0.412841796875	1	upper	zerothre.ttf
1557.302	n/a	WORD	778651	wordpools/wasnorm_wordpool.txt	LTP132	ltpFR	0	6	0	CHICK	296	n/a	n/a	0	0.57763671875	0.412841796875	1	upper	zerothre.ttf
1561.298	n/a	WORD	780649	wordpools/wasnorm_wordpool.txt	LTP132	ltpFR	0	6	0	NURSERY	964	n/a	n/a	1	0.57763671875	0.412841796875	1	upper	zerothre.ttf
1565.152	n/a	WORD	782576	wordpools/wasnorm_wordpool.txt	LTP132	ltpFR	0	6	0	STEM	1376	n/a	n/a	0	0.57763671875	0.412841796875	1	upper	zerothre.ttf
1569.246	n/a	WORD	784623	wordpools/wasnorm_wordpool.txt	LTP132	ltpFR	0	6	0	CHARCOAL	281	n/a	n/a	0	0.57763671875	0.412841796875	1	upper	zerothre.ttf
1575.158	n/a	REC_START	787579	n/a	LTP132	ltpFR	0	6	n/a	n/a	n/a	n/a	n/a	n/a	n/a	n/a	n/a	n/a	n/a
1576.08	n/a	REC_WORD	788040	wordpools/wasnorm_wordpool.txt	LTP132	ltpFR	0	6	0	CHARCOAL	281	n/a	n/a	0	n/a	n/a	n/a	n/a	n/a
1577.072	n/a	REC_WORD	788536	wordpools/wasnorm_wordpool.txt	LTP132	ltpFR	0	6	0	STEM	1376	n/a	n/a	0	n/a	n/a	n/a	n/a	n/a
1578.38	n/a	REC_WORD	789190	wordpools/wasnorm_wordpool.txt	LTP132	ltpFR	0	6	0	PRISONER	1128	n/a	n/a	1	n/a	n/a	n/a	n/a	n/a
1583.482	n/a	REC_WORD	791741	wordpools/wasnorm_wordpool.txt	LTP132	ltpFR	0	6	0	ORCHID	982	n/a	n/a	0	n/a	n/a	n/a	n/a	n/a
1589.27	n/a	REC_WORD	794635	wordpools/wasnorm_wordpool.txt	LTP132	ltpFR	0	6	0	ORCHID	982	n/a	n/a	0	n/a	n/a	n/a	n/a	n/a
1592.718	n/a	REC_WORD	796359	wordpools/wasnorm_wordpool.txt	LTP132	ltpFR	0	6	0	IRON	744	n/a	n/a	0	n/a	n/a	n/a	n/a	n/a
1608.876	n/a	REC_WORD	804438	wordpools/wasnorm_wordpool.txt	LTP132	ltpFR	0	6	0	COUGAR	387	n/a	n/a	1	n/a	n/a	n/a	n/a	n/a
1619.328	n/a	REC_WORD	809664	wordpools/wasnorm_wordpool.txt	LTP132	ltpFR	0	6	0	TERRITORY	1452	n/a	n/a	1	n/a	n/a	n/a	n/a	n/a
1624.472	n/a	REC_WORD	812236	wordpools/wasnorm_wordpool.txt	LTP132	ltpFR	0	6	0	CHICK	296	n/a	n/a	0	n/a	n/a	n/a	n/a	n/a
1655.688	n/a	WORD	827844	wordpools/wasnorm_wordpool.txt	LTP132	ltpFR	0	7	0	UMPIRE	1535	n/a	n/a	1	0.57763671875	0.412841796875	1	upper	zerothre.ttf
1659.61	n/a	WORD	829805	wordpools/wasnorm_wordpool.txt	LTP132	ltpFR	0	7	0	LASER	801	n/a	n/a	0	0.57763671875	0.412841796875	1	upper	zerothre.ttf
1663.638	n/a	WORD	831819	wordpools/wasnorm_wordpool.txt	LTP132	ltpFR	0	7	0	LOVER	846	n/a	n/a	1	0.57763671875	0.412841796875	1	upper	zerothre.ttf
1667.818	n/a	WORD	833909	wordpools/wasnorm_wordpool.txt	LTP132	ltpFR	0	7	0	PARIS	1014	n/a	n/a	1	0.57763671875	0.412841796875	1	upper	zerothre.ttf
1671.962	n/a	WORD	835981	wordpools/wasnorm_wordpool.txt	LTP132	ltpFR	0	7	0	SOFTBALL	1343	n/a	n/a	0	0.57763671875	0.412841796875	1	upper	zerothre.ttf
1675.934	n/a	WORD	837967	wordpools/wasnorm_wordpool.txt	LTP132	ltpFR	0	7	0	CREEK	404	n/a	n/a	1	0.57763671875	0.412841796875	1	upper	zerothre.ttf
1679.98	n/a	WORD	839990	wordpools/wasnorm_wordpool.txt	LTP132	ltpFR	0	7	0	ARENA	37	n/a	n/a	1	0.57763671875	0.412841796875	1	upper	zerothre.ttf
1683.958	n/a	WORD	841979	wordpools/wasnorm_wordpool.txt	LTP132	ltpFR	0	7	0	CHECKERS	285	n/a	n/a	0	0.57763671875	0.412841796875	1	upper	zerothre.ttf
1688.02	n/a	WORD	844010	wordpools/wasnorm_wordpool.txt	LTP132	ltpFR	0	7	0	KEYBOARD	774	n/a	n/a	0	0.57763671875	0.412841796875	1	upper	zerothre.ttf
1691.99	n/a	WORD	845995	wordpools/wasnorm_wordpool.txt	LTP132	ltpFR	0	7	0	HEN	703	n/a	n/a	1	0.57763671875	0.412841796875	1	upper	zerothre.ttf
1695.87	n/a	WORD	847935	wordpools/wasnorm_wordpool.txt	LTP132	ltpFR	0	7	0	EGG	518	n/a	n/a	1	0.57763671875	0.412841796875	1	upper	zerothre.ttf
1699.924	n/a	WORD	849962	wordpools/wasnorm_wordpool.txt	LTP132	ltpFR	0	7	0	RAILROAD	1162	n/a	n/a	1	0.57763671875	0.412841796875	1	upper	zerothre.ttf
1703.818	n/a	WORD	851909	wordpools/wasnorm_wordpool.txt	LTP132	ltpFR	0	7	0	RADIO	1157	n/a	n/a	0	0.57763671875	0.412841796875	1	upper	zerothre.ttf
1707.78	n/a	WORD	853890	wordpools/wasnorm_wordpool.txt	LTP132	ltpFR	0	7	0	STREET	1393	n/a	n/a	1	0.57763671875	0.412841796875	1	upper	zerothre.ttf
1711.676	n/a	WORD	855838	wordpools/wasnorm_wordpool.txt	LTP132	ltpFR	0	7	0	SIDEWALK	1303	n/a	n/a	1	0.57763671875	0.412841796875	1	upper	zerothre.ttf
1715.754	n/a	WORD	857877	wordpools/wasnorm_wordpool.txt	LTP132	ltpFR	0	7	0	SHRIMP	1297	n/a	n/a	0	0.57763671875	0.412841796875	1	upper	zerothre.ttf
1721.63	n/a	REC_START	860815	n/a	LTP132	ltpFR	0	7	n/a	n/a	n/a	n/a	n/a	n/a	n/a	n/a	n/a	n/a	n/a
1722.374	n/a	REC_WORD	861187	wordpools/wasnorm_wordpool.txt	LTP132	ltpFR	0	7	0	SHRIMP	1297	n/a	n/a	0	n/a	n/a	n/a	n/a	n/a
1723.372	n/a	REC_WORD	861686	wordpools/wasnorm_wordpool.txt	LTP132	ltpFR	0	7	0	HEN	703	n/a	n/a	1	n/a	n/a	n/a	n/a	n/a
1724.418	n/a	REC_WORD	862209	wordpools/wasnorm_wordpool.txt	LTP132	ltpFR	0	7	0	EGG	518	n/a	n/a	1	n/a	n/a	n/a	n/a	n/a
1726.194	n/a	REC_WORD	863097	wordpools/wasnorm_wordpool.txt	LTP132	ltpFR	0	7	0	PARIS	1014	n/a	n/a	1	n/a	n/a	n/a	n/a	n/a
1732.5	n/a	REC_WORD	866250	wordpools/wasnorm_wordpool.txt	LTP132	ltpFR	0	7	0	UMPIRE	1535	n/a	n/a	1	n/a	n/a	n/a	n/a	n/a
1733.946	n/a	REC_WORD	866973	wordpools/wasnorm_wordpool.txt	LTP132	ltpFR	0	7	0	ARENA	37	n/a	n/a	1	n/a	n/a	n/a	n/a	n/a
1737.714	n/a	REC_WORD	868857	wordpools/wasnorm_wordpool.txt	LTP132	ltpFR	0	7	0	SIDEWALK	1303	n/a	n/a	1	n/a	n/a	n/a	n/a	n/a
1806.068	n/a	WORD	903034	wordpools/wasnorm_wordpool.txt	LTP132	ltpFR	0	8	0	BROCCOLI	176	n/a	n/a	0	0.57763671875	0.412841796875	1	upper	zerothre.ttf
1809.954	n/a	WORD	904977	wordpools/wasnorm_wordpool.txt	LTP132	ltpFR	0	8	0	WALRUS	1585	n/a	n/a	1	0.57763671875	0.412841796875	1	upper	zerothre.ttf
1813.868	n/a	WORD	906934	wordpools/wasnorm_wordpool.txt	LTP132	ltpFR	0	8	0	MARSH	874	n/a	n/a	0	0.57763671875	0.412841796875	1	upper	zerothre.ttf
1817.812	n/a	WORD	908906	wordpools/wasnorm_wordpool.txt	LTP132	ltpFR	0	8	0	CABBAGE	210	n/a	n/a	0	0.57763671875	0.412841796875	1	upper	zerothre.ttf
1821.648	n/a	WORD	910824	wordpools/wasnorm_wordpool.txt	LTP132	ltpFR	0	8	0	PELT	1040	n/a	n/a	0	0.57763671875	0.412841796875	1	upper	zerothre.ttf
1825.544	n/a	WORD	912772	wordpools/wasnorm_wordpool.txt	LTP132	ltpFR	0	8	0	UNIFORM	1539	n/a	n/a	0	0.57763671875	0.412841796875	1	upper	zerothre.ttf
1829.39	n/a	WORD	914695	wordpools/wasnorm_wordpool.txt	LTP132	ltpFR	0	8	0	SHERIFF	1284	n/a	n/a	1	0.57763671875	0.412841796875	1	upper	zerothre.ttf
1833.412	n/a	WORD	916706	wordpools/wasnorm_wordpool.txt	LTP132	ltpFR	0	8	0	PADDLE	1000	n/a	n/a	1	0.57763671875	0.412841796875	1	upper	zerothre.ttf
1837.456	n/a	WORD	918728	wordpools/wasnorm_wordpool.txt	LTP132	ltpFR	0	8	0	EAR	513	n/a	n/a	0	0.57763671875	0.412841796875	1	upper	zerothre.ttf
1841.502	n/a	WORD	920751	wordpools/wasnorm_wordpool.txt	LTP132	ltpFR	0	8	0	EARRING	514	n/a	n/a	0	0.57763671875	0.412841796875	1	upper	zerothre.ttf
1845.656	n/a	WORD	922828	wordpools/wasnorm_wordpool.txt	LTP132	ltpFR	0	8	0	NAVIGATOR	938	n/a	n/a	1	0.57763671875	0.412841796875	1	upper	zerothre.ttf
1849.7	n/a	WORD	924850	wordpools/wasnorm_wordpool.txt	LTP132	ltpFR	0	8	0	TELEVISION	1447	n/a	n/a	1	0.57763671875	0.412841796875	1	upper	zerothre.ttf
1853.512	n/a	WORD	926756	wordpools/wasnorm_wordpool.txt	LTP132	ltpFR	0	8	0	PERSONNEL	1053	n/a	n/a	1	0.57763671875	0.412841796875	1	upper	zerothre.ttf
1857.524	n/a	WORD	928762	wordpools/wasnorm_wordpool.txt	LTP132	ltpFR	0	8	0	SCHOOL	1248	n/a	n/a	1	0.57763671875	0.412841796875	1	upper	zerothre.ttf
1861.554	n/a	WORD	930777	wordpools/wasnorm_wordpool.txt	LTP132	ltpFR	0	8	0	DEPUTY	450	n/a	n/a	1	0.57763671875	0.412841796875	1	upper	zerothre.ttf
1865.616	n/a	WORD	932808	wordpools/wasnorm_wordpool.txt	LTP132	ltpFR	0	8	0	ERASER	538	n/a	n/a	0	0.57763671875	0.412841796875	1	upper	zerothre.ttf
1871.384	n/a	REC_START	935692	n/a	LTP132	ltpFR	0	8	n/a	n/a	n/a	n/a	n/a	n/a	n/a	n/a	n/a	n/a	n/a
1872.482	n/a	REC_WORD	936241	wordpools/wasnorm_wordpool.txt	LTP132	ltpFR	0	8	0	DEPUTY	450	n/a	n/a	1	n/a	n/a	n/a	n/a	n/a
1873.35	n/a	REC_WORD	936675	wordpools/wasnorm_wordpool.txt	LTP132	ltpFR	0	8	0	SHERIFF	1284	n/a	n/a	1	n/a	n/a	n/a	n/a	n/a
1874.852	n/a	REC_WORD	937426	wordpools/wasnorm_wordpool.txt	LTP132	ltpFR	0	8	0	UNIFORM	1539	n/a	n/a	0	n/a	n/a	n/a	n/a	n/a
1876.388	n/a	REC_WORD	938194	wordpools/wasnorm_wordpool.txt	LTP132	ltpFR	0	8	0	EAR	513	n/a	n/a	0	n/a	n/a	n/a	n/a	n/a
1877.65	n/a	REC_WORD	938825	wordpools/wasnorm_wordpool.txt	LTP132	ltpFR	0	8	0	EARRING	514	n/a	n/a	0	n/a	n/a	n/a	n/a	n/a
1880.478	n/a	REC_WORD	940239	wordpools/wasnorm_wordpool.txt	LTP132	ltpFR	0	8	0	SCHOOL	1248	n/a	n/a	1	n/a	n/a	n/a	n/a	n/a
1888.998	n/a	REC_WORD	944499	wordpools/wasnorm_wordpool.txt	LTP132	ltpFR	0	8	0	ERASER	538	n/a	n/a	0	n/a	n/a	n/a	n/a	n/a
1894.058	n/a	REC_WORD	947029	wordpools/wasnorm_wordpool.txt	LTP132	ltpFR	0	8	0	WALRUS	1585	n/a	n/a	1	n/a	n/a	n/a	n/a	n/a
1906.708	n/a	REC_WORD	953354	wordpools/wasnorm_wordpool.txt	LTP132	ltpFR	0	8	0	PERSONNEL	1053	n/a	n/a	1	n/a	n/a	n/a	n/a	n/a
1935.34	n/a	REC_WORD	967670	wordpools/wasnorm_wordpool.txt	LTP132	ltpFR	0	8	0	KEYBOARD	774	n/a	n/a	0	n/a	n/a	n/a	n/a	n/a
1950.918	n/a	WORD	975459	wordpools/wasnorm_wordpool.txt	LTP132	ltpFR	0	9	1	HAMBURGER	679	n/a	n/a	0	0.422607421875	0.5869140625	0	lower	amplitud.ttf
1955.13	n/a	WORD	977565	wordpools/wasnorm_wordpool.txt	LTP132	ltpFR	0	9	1	ESSAY	540	n/a	n/a	0	0.422607421875	0.5869140625	0	lower	amplitud.ttf
1959.184	n/a	WORD	979592	wordpools/wasnorm_wordpool.txt	LTP132	ltpFR	0	9	1	BUSH	202	n/a	n/a	1	0.422607421875	0.5869140625	0	lower	amplitud.ttf
1963.37	n/a	WORD	981685	wordpools/wasnorm_wordpool.txt	LTP132	ltpFR	0	9	1	PUCK	1138	n/a	n/a	0	0.422607421875	0.5869140625	0	lower	amplitud.ttf
1967.248	n/a	WORD	983624	wordpools/wasnorm_wordpool.txt	LTP132	ltpFR	0	9	1	POT	1114	n/a	n/a	0	0.422607421875	0.5869140625	0	lower	amplitud.ttf
1971.212	n/a	WORD	985606	wordpools/wasnorm_wordpool.txt	LTP132	ltpFR	0	9	1	LEAF	808	n/a	n/a	1	0.422607421875	0.5869140625	0	lower	amplitud.ttf
1975.348	n/a	WORD	987674	wordpools/wasnorm_wordpool.txt	LTP132	ltpFR	0	9	1	VALVE	1546	n/a	n/a	0	0.422607421875	0.5869140625	0	lower	amplitud.ttf
1979.244	n/a	WORD	989622	wordpools/wasnorm_wordpool.txt	LTP132	ltpFR	0	9	1	HAMMOCK	681	n/a	n/a	0	0.422607421875	0.5869140625	0	lower	amplitud.ttf
1983.098	n/a	WORD	991549	wordpools/wasnorm_wordpool.txt	LTP132	ltpFR	0	9	1	TREE	1502	n/a	n/a	1	0.422607421875	0.5869140625	0	lower	amplitud.ttf
1987.136	n/a	WORD	993568	wordpools/wasnorm_wordpool.txt	LTP132	ltpFR	0	9	1	CHAIN	273	n/a	n/a	0	0.422607421875	0.5869140625	0	lower	amplitud.ttf
1991.24	n/a	WORD	995620	wordpools/wasnorm_wordpool.txt	LTP132	ltpFR	0	9	1	ANCHOR	21	n/a	n/a	0	0.422607421875	0.5869140625	0	lower	amplitud.ttf
1995.326	n/a	WORD	997663	wordpools/wasnorm_wordpool.txt	LTP132	ltpFR	0	9	1	CREW	406	n/a	n/a	0	0.422607421875	0.5869140625	0	lower	amplitud.ttf
1999.312	n/a	WORD	999656	wordpools/wasnorm_wordpool.txt	LTP132	ltpFR	0	9	1	SHARK	1275	n/a	n/a	1	0.422607421875	0.5869140625	0	lower	amplitud.ttf
2003.274	n/a	WORD	1001637	wordpools/wasnorm_wordpool.txt	LTP132	ltpFR	0	9	1	JAW	751	n/a	n/a	0	0.422607421875	0.5869140625	0	lower	amplitud.ttf
2007.32	n/a	WORD	1003660	wordpools/wasnorm_wordpool.txt	LTP132	ltpFR	0	9	1	POTTERY	1116	n/a	n/a	0	0.422607421875	0.5869140625	0	lower	amplitud.ttf
2011.466	n/a	WORD	1005733	wordpools/wasnorm_wordpool.txt	LTP132	ltpFR	0	9	1	PASSENGER	1020	n/a	n/a	1	0.422607421875	0.5869140625	0	lower	amplitud.ttf
2017.342	n/a	REC_START	1008671	n/a	LTP132	ltpFR	0	9	n/a	n/a	n/a	n/a	n/a	n/a	n/a	n/a	n/a	n/a	n/a
2018.07	n/a	REC_WORD	1009035	wordpools/wasnorm_wordpool.txt	LTP132	ltpFR	0	9	1	PASSENGER	1020	n/a	n/a	1	n/a	n/a	n/a	n/a	n/a
2019.318	n/a	REC_WORD	1009659	wordpools/wasnorm_wordpool.txt	LTP132	ltpFR	0	9	1	HAMBURGER	679	n/a	n/a	0	n/a	n/a	n/a	n/a	n/a
2020.694	n/a	REC_WORD	1010347	wordpools/wasnorm_wordpool.txt	LTP132	ltpFR	0	9	1	CREW	406	n/a	n/a	0	n/a	n/a	n/a	n/a	n/a
2022.54	n/a	REC_WORD	1011270	wordpools/wasnorm_wordpool.txt	LTP132	ltpFR	0	9	1	POT	1114	n/a	n/a	0	n/a	n/a	n/a	n/a	n/a
2023.792	n/a	REC_WORD	1011896	wordpools/wasnorm_wordpool.txt	LTP132	ltpFR	0	9	1	LEAF	808	n/a	n/a	1	n/a	n/a	n/a	n/a	n/a
2025.774	n/a	REC_WORD	1012887	wordpools/wasnorm_wordpool.txt	LTP132	ltpFR	0	9	1	TREE	1502	n/a	n/a	1	n/a	n/a	n/a	n/a	n/a
2032.542	n/a	REC_WORD	1016271	wordpools/wasnorm_wordpool.txt	LTP132	ltpFR	0	9	1	VALVE	1546	n/a	n/a	0	n/a	n/a	n/a	n/a	n/a
2048.496	n/a	REC_WORD	1024248	wordpools/wasnorm_wordpool.txt	LTP132	ltpFR	0	9	1	HAMMOCK	681	n/a	n/a	0	n/a	n/a	n/a	n/a	n/a
2061.178	n/a	REC_WORD	1030589	wordpools/wasnorm_wordpool.txt	LTP132	ltpFR	0	9	1	SHARK	1275	n/a	n/a	1	n/a	n/a	n/a	n/a	n/a
2067.538	n/a	REC_WORD	1033769	wordpools/wasnorm_wordpool.txt	LTP132	ltpFR	0	9	1	BUSH	202	n/a	n/a	1	n/a	n/a	n/a	n/a	n/a
2097.392	n/a	WORD	1048696	wordpools/wasnorm_wordpool.txt	LTP132	ltpFR	0	10	1	KIDNEY	776	n/a	n/a	0	0.422607421875	0.5869140625	0	lower	amplitud.ttf
2101.57	n/a	WORD	1050785	wordpools/wasnorm_wordpool.txt	LTP132	ltpFR	0	10	1	DUST	508	n/a	n/a	0	0.422607421875	0.5869140625	0	lower	amplitud.ttf
2105.424	n/a	WORD	1052712	wordpools/wasnorm_wordpool.txt	LTP132	ltpFR	0	10	1	BOARD	143	n/a	n/a	0	0.422607421875	0.5869140625	0	lower	amplitud.ttf
2109.594	n/a	WORD	1054797	wordpools/wasnorm_wordpool.txt	LTP132	ltpFR	0	10	1	SALESMAN	1225	n/a	n/a	1	0.422607421875	0.5869140625	0	lower	amplitud.ttf
2113.664	n/a	WORD	1056832	wordpools/wasnorm_wordpool.txt	LTP132	ltpFR	0	10	1	BUYER	208	n/a	n/a	1	0.422607421875	0.5869140625	0	lower	amplitud.ttf
2117.502	n/a	WORD	1058751	wordpools/wasnorm_wordpool.txt	LTP132	ltpFR	0	10	1	BOOTH	151	n/a	n/a	0	0.422607421875	0.5869140625	0	lower	amplitud.ttf
2121.364	n/a	WORD	1060682	wordpools/wasnorm_wordpool.txt	LTP132	ltpFR	0	10	1	SATURN	1236	n/a	n/a	0	0.422607421875	0.5869140625	0	lower	amplitud.ttf
2125.468	n/a	WORD	1062734	wordpools/wasnorm_wordpool.txt	LTP132	ltpFR	0	10	1	CHIME	300	n/a	n/a	0	0.422607421875	0.5869140625	0	lower	amplitud.ttf
2129.522	n/a	WORD	1064761	wordpools/wasnorm_wordpool.txt	LTP132	ltpFR	0	10	1	BUFFALO	186	n/a	n/a	1	0.422607421875	0.5869140625	0	lower	amplitud.ttf
2133.5	n/a	WORD	1066750	wordpools/wasnorm_wordpool.txt	LTP132	ltpFR	0	10	1	ROSE	1212	n/a	n/a	1	0.422607421875	0.5869140625	0	lower	amplitud.ttf
2137.462	n/a	WORD	1068731	wordpools/wasnorm_wordpool.txt	LTP132	ltpFR	0	10	1	TREAT	1501	n/a	n/a	0	0.422607421875	0.5869140625	0	lower	amplitud.ttf
2141.4	n/a	WORD	1070700	wordpools/wasnorm_wordpool.txt	LTP132	ltpFR	0	10	1	ANIMAL	23	n/a	n/a	1	0.422607421875	0.5869140625	0	lower	amplitud.ttf
2145.428	n/a	WORD	1072714	wordpools/wasnorm_wordpool.txt	LTP132	ltpFR	0	10	1	MEAL	882	n/a	n/a	0	0.422607421875	0.5869140625	0	lower	amplitud.ttf
2149.572	n/a	WORD	1074786	wordpools/wasnorm_wordpool.txt	LTP132	ltpFR	0	10	1	UNIVERSE	1540	n/a	n/a	0	0.422607421875	0.5869140625	0	lower	amplitud.ttf
2153.462	n/a	WORD	1076731	wordpools/wasnorm_wordpool.txt	LTP132	ltpFR	0	10	1	RECORD	1176	n/a	n/a	0	0.422607421875	0.5869140625	0	lower	amplitud.ttf
2157.49	n/a	WORD	1078745	wordpools/wasnorm_wordpool.txt	LTP132	ltpFR	0	10	1	PORTRAIT	1111	n/a	n/a	0	0.422607421875	0.5869140625	0	lower	amplitud.ttf
2163.276	n/a	REC_START	1081638	n/a	LTP132	ltpFR	0	10	n/a	n/a	n/a	n/a	n/a	n/a	n/a	n/a	n/a	n/a	n/a
2164.232	n/a	REC_WORD	1082116	wordpools/wasnorm_wordpool.txt	LTP132	ltpFR	0	10	1	RECORD	1176	n/a	n/a	0	n/a	n/a	n/a	n/a	n/a
2165.938	n/a	REC_WORD	1082969	wordpools/wasnorm_wordpool.txt	LTP132	ltpFR	0	10	1	SALESMAN	1225	n/a	n/a	1	n/a	n/a	n/a	n/a	n/a
2168.594	n/a	REC_WORD	1084297	wordpools/wasnorm_wordpool.txt	LTP132	ltpFR	0	10	1	BUYER	208	n/a	n/a	1	n/a	n/a	n/a	n/a	n/a
2171.712	n/a	REC_WORD	1085856	wordpools/wasnorm_wordpool.txt	LTP132	ltpFR	0	10	1	ANIMAL	23	n/a	n/a	1	n/a	n/a	n/a	n/a	n/a
2187.36	n/a	REC_WORD_VV	1093680	wordpools/wasnorm_wordpool.txt	LTP132	ltpFR	0	10	n/a	<>	-1	n/a	n/a	n/a	n/a	n/a	n/a	n/a	n/a
2187.75	n/a	REC_WORD	1093875	wordpools/wasnorm_wordpool.txt	LTP132	ltpFR	0	10	1	PORTRAIT	1111	n/a	n/a	0	n/a	n/a	n/a	n/a	n/a
2204.76	n/a	REC_WORD	1102380	wordpools/wasnorm_wordpool.txt	LTP132	ltpFR	0	10	1	ROSE	1212	n/a	n/a	1	n/a	n/a	n/a	n/a	n/a
2206.348	n/a	REC_WORD	1103174	wordpools/wasnorm_wordpool.txt	LTP132	ltpFR	0	10	1	TREAT	1501	n/a	n/a	0	n/a	n/a	n/a	n/a	n/a
2244.282	n/a	WORD	1122141	wordpools/wasnorm_wordpool.txt	LTP132	ltpFR	0	11	1	GRASSHOPPER	656	n/a	n/a	1	0.422607421875	0.5869140625	0	lower	amplitud.ttf
2248.468	n/a	WORD	1124234	wordpools/wasnorm_wordpool.txt	LTP132	ltpFR	0	11	1	BEE	112	n/a	n/a	1	0.422607421875	0.5869140625	0	lower	amplitud.ttf
2252.638	n/a	WORD	1126319	wordpools/wasnorm_wordpool.txt	LTP132	ltpFR	0	11	1	HORNET	718	n/a	n/a	1	0.422607421875	0.5869140625	0	lower	amplitud.ttf
2256.802	n/a	WORD	1128401	wordpools/wasnorm_wordpool.txt	LTP132	ltpFR	0	11	1	BUILDER	190	n/a	n/a	1	0.422607421875	0.5869140625	0	lower	amplitud.ttf
2260.788	n/a	WORD	1130394	wordpools/wasnorm_wordpool.txt	LTP132	ltpFR	0	11	1	SHELTER	1282	n/a	n/a	0	0.422607421875	0.5869140625	0	lower	amplitud.ttf
2264.85	n/a	WORD	1132425	wordpools/wasnorm_wordpool.txt	LTP132	ltpFR	0	11	1	CANE	231	n/a	n/a	0	0.422607421875	0.5869140625	0	lower	amplitud.ttf
2269.02	n/a	WORD	1134510	wordpools/wasnorm_wordpool.txt	LTP132	ltpFR	0	11	1	MACHINE	852	n/a	n/a	0	0.422607421875	0.5869140625	0	lower	amplitud.ttf
2272.834	n/a	WORD	1136417	wordpools/wasnorm_wordpool.txt	LTP132	ltpFR	0	11	1	APPLICATION	34	n/a	n/a	0	0.422607421875	0.5869140625	0	lower	amplitud.ttf
2276.728	n/a	WORD	1138364	wordpools/wasnorm_wordpool.txt	LTP132	ltpFR	0	11	1	CEREAL	272	n/a	n/a	0	0.422607421875	0.5869140625	0	lower	amplitud.ttf
2280.64	n/a	WORD	1140320	wordpools/wasnorm_wordpool.txt	LTP132	ltpFR	0	11	1	ORANGE	980	n/a	n/a	1	0.422607421875	0.5869140625	0	lower	amplitud.ttf
2284.676	n/a	WORD	1142338	wordpools/wasnorm_wordpool.txt	LTP132	ltpFR	0	11	1	MUMMY	932	n/a	n/a	0	0.422607421875	0.5869140625	0	lower	amplitud.ttf
2288.548	n/a	WORD	1144274	wordpools/wasnorm_wordpool.txt	LTP132	ltpFR	0	11	1	CHEMIST	292	n/a	n/a	0	0.422607421875	0.5869140625	0	lower	amplitud.ttf
2292.668	n/a	WORD	1146334	wordpools/wasnorm_wordpool.txt	LTP132	ltpFR	0	11	1	FRUIT	610	n/a	n/a	1	0.422607421875	0.5869140625	0	lower	amplitud.ttf
2296.788	n/a	WORD	1148394	wordpools/wasnorm_wordpool.txt	LTP132	ltpFR	0	11	1	BRAIN	165	n/a	n/a	1	0.422607421875	0.5869140625	0	lower	amplitud.ttf
2300.85	n/a	WORD	1150425	wordpools/wasnorm_wordpool.txt	LTP132	ltpFR	0	11	1	CELERY	266	n/a	n/a	1	0.422607421875	0.5869140625	0	lower	amplitud.ttf
2304.804	n/a	WORD	1152402	wordpools/wasnorm_wordpool.txt	LTP132	ltpFR	0	11	1	GALLON	618	n/a	n/a	0	0.422607421875	0.5869140625	0	lower	amplitud.ttf
2310.614	n/a	REC_START	1155307	n/a	LTP132	ltpFR	0	11	n/a	n/a	n/a	n/a	n/a	n/a	n/a	n/a	n/a	n/a	n/a
2311.542	n/a	REC_WORD	1155771	wordpools/wasnorm_wordpool.txt	LTP132	ltpFR	0	11	1	CELERY	266	n/a	n/a	1	n/a	n/a	n/a	n/a	n/a
2312.82	n/a	REC_WORD	1156410	wordpools/wasnorm_wordpool.txt	LTP132	ltpFR	0	11	1	GALLON	618	n/a	n/a	0	n/a	n/a	n/a	n/a	n/a
2313.872	n/a	REC_WORD	1156936	wordpools/wasnorm_wordpool.txt	LTP132	ltpFR	0	11	1	CHEMIST	292	n/a	n/a	0	n/a	n/a	n/a	n/a	n/a
2315.338	n/a	REC_WORD	1157669	wordpools/wasnorm_wordpool.txt	LTP132	ltpFR	0	11	1	GRASSHOPPER	656	n/a	n/a	1	n/a	n/a	n/a	n/a	n/a
2317.09	n/a	REC_WORD	1158545	wordpools/wasnorm_wordpool.txt	LTP132	ltpFR	0	11	1	HORNET	718	n/a	n/a	1	n/a	n/a	n/a	n/a	n/a
2318.366	n/a	REC_WORD	1159183	wordpools/wasnorm_wordpool.txt	LTP132	ltpFR	0	11	1	BEE	112	n/a	n/a	1	n/a	n/a	n/a	n/a	n/a
2362.606	n/a	REC_WORD	1181303	wordpools/wasnorm_wordpool.txt	LTP132	ltpFR	0	11	1	SATURN	1236	n/a	n/a	0	n/a	n/a	n/a	n/a	n/a
2365.34	n/a	REC_WORD	1182670	wordpools/wasnorm_wordpool.txt	LTP132	ltpFR	0	11	1	UNIVERSE	1540	n/a	n/a	0	n/a	n/a	n/a	n/a	n/a
2391.764	n/a	WORD	1195882	wordpools/wasnorm_wordpool.txt	LTP132	ltpFR	0	12	1	OUTFIT	988	n/a	n/a	0	0.422607421875	0.5869140625	0	lower	amplitud.ttf
2395.802	n/a	WORD	1197901	wordpools/wasnorm_wordpool.txt	LTP132	ltpFR	0	12	1	CIRCUS	311	n/a	n/a	0	0.422607421875	0.5869140625	0	lower	amplitud.ttf
2399.888	n/a	WORD	1199944	wordpools/wasnorm_wordpool.txt	LTP132	ltpFR	0	12	1	MOTHER	921	n/a	n/a	1	0.422607421875	0.5869140625	0	lower	amplitud.ttf
2403.716	n/a	WORD	1201858	wordpools/wasnorm_wordpool.txt	LTP132	ltpFR	0	12	1	CARRIAGE	248	n/a	n/a	0	0.422607421875	0.5869140625	0	lower	amplitud.ttf
2407.854	n/a	WORD	1203927	wordpools/wasnorm_wordpool.txt	LTP132	ltpFR	0	12	1	JUGGLER	763	n/a	n/a	1	0.422607421875	0.5869140625	0	lower	amplitud.ttf
2411.84	n/a	WORD	1205920	wordpools/wasnorm_wordpool.txt	LTP132	ltpFR	0	12	1	DONKEY	484	n/a	n/a	1	0.422607421875	0.5869140625	0	lower	amplitud.ttf
2415.986	n/a	WORD	1207993	wordpools/wasnorm_wordpool.txt	LTP132	ltpFR	0	12	1	CHIPMUNK	304	n/a	n/a	1	0.422607421875	0.5869140625	0	lower	amplitud.ttf
2420.14	n/a	WORD	1210070	wordpools/wasnorm_wordpool.txt	LTP132	ltpFR	0	12	1	BLUEBERRY	140	n/a	n/a	1	0.422607421875	0.5869140625	0	lower	amplitud.ttf
2424.176	n/a	WORD	1212088	wordpools/wasnorm_wordpool.txt	LTP132	ltpFR	0	12	1	COBBLER	335	n/a	n/a	1	0.422607421875	0.5869140625	0	lower	amplitud.ttf
2427.998	n/a	WORD	1213999	wordpools/wasnorm_wordpool.txt	LTP132	ltpFR	0	12	1	COFFIN	342	n/a	n/a	0	0.422607421875	0.5869140625	0	lower	amplitud.ttf
2431.826	n/a	WORD	1215913	wordpools/wasnorm_wordpool.txt	LTP132	ltpFR	0	12	1	POISON	1096	n/a	n/a	0	0.422607421875	0.5869140625	0	lower	amplitud.ttf
2436.038	n/a	WORD	1218019	wordpools/wasnorm_wordpool.txt	LTP132	ltpFR	0	12	1	OWNER	993	n/a	n/a	1	0.422607421875	0.5869140625	0	lower	amplitud.ttf
2439.866	n/a	WORD	1219933	wordpools/wasnorm_wordpool.txt	LTP132	ltpFR	0	12	1	DANDRUFF	439	n/a	n/a	0	0.422607421875	0.5869140625	0	lower	amplitud.ttf
2443.77	n/a	WORD	1221885	wordpools/wasnorm_wordpool.txt	LTP132	ltpFR	0	12	1	BARTENDER	92	n/a	n/a	1	0.422607421875	0.5869140625	0	lower	amplitud.ttf
2447.698	n/a	WORD	1223849	wordpools/wasnorm_wordpool.txt	LTP132	ltpFR	0	12	1	BARN	89	n/a	n/a	0	0.422607421875	0.5869140625	0	lower	amplitud.ttf
2451.812	n/a	WORD	1225906	wordpools/wasnorm_wordpool.txt	LTP132	ltpFR	0	12	1	PLAID	1080	n/a	n/a	0	0.422607421875	0.5869140625	0	lower	amplitud.ttf
2457.68	n/a	REC_START	1228840	n/a	LTP132	ltpFR	0	12	n/a	n/a	n/a	n/a	n/a	n/a	n/a	n/a	n/a	n/a	n/a
2458.766	n/a	REC_WORD	1229383	wordpools/wasnorm_wordpool.txt	LTP132	ltpFR	0	12	1	BARTENDER	92	n/a	n/a	1	n/a	n/a	n/a	n/a	n/a
2459.944	n/a	REC_WORD	1229972	wordpools/wasnorm_wordpool.txt	LTP132	ltpFR	0	12	1	BARN	89	n/a	n/a	0	n/a	n/a	n/a	n/a	n/a
2461.096	n/a	REC_WORD	1230548	wordpools/wasnorm_wordpool.txt	LTP132	ltpFR	0	12	1	PLAID	1080	n/a	n/a	0	n/a	n/a	n/a	n/a	n/a
2463.68	n/a	REC_WORD	1231840	wordpools/wasnorm_wordpool.txt	LTP132	ltpFR	0	12	1	BLUEBERRY	140	n/a	n/a	1	n/a	n/a	n/a	n/a	n/a
2473.126	n/a	REC_WORD	1236563	wordpools/wasnorm_wordpool.txt	LTP132	ltpFR	0	12	1	DONKEY	484	n/a	n/a	1	n/a	n/a	n/a	n/a	n/a
2478.404	n/a	REC_WORD	1239202	wordpools/wasnorm_wordpool.txt	LTP132	ltpFR	0	12	1	CHIPMUNK	304	n/a	n/a	1	n/a	n/a	n/a	n/a	n/a
2493.784	n/a	REC_WORD	1246892	wordpools/wasnorm_wordpool.txt	LTP132	ltpFR	0	12	1	JUGGLER	763	n/a	n/a	1	n/a	n/a	n/a	n/a	n/a
2496.342	n/a	REC_WORD	1248171	wordpools/wasnorm_wordpool.txt	LTP132	ltpFR	0	12	1	CIRCUS	311	n/a	n/a	0	n/a	n/a	n/a	n/a	n/a
2533.266	n/a	REST_REWET	1266633	n/a	LTP132	ltpFR	0	12	n/a	n/a	n/a	n/a	n/a	n/a	n/a	n/a	n/a	n/a	n/a
2974.778	n/a	WORD	1487389	wordpools/wasnorm_wordpool.txt	LTP132	ltpFR	0	13	1	PROTON	1132	n/a	n/a	0	0.422607421875	0.5869140625	0	lower	amplitud.ttf
2978.616	n/a	WORD	1489308	wordpools/wasnorm_wordpool.txt	LTP132	ltpFR	0	13	1	PUPPY	1144	n/a	n/a	1	0.422607421875	0.5869140625	0	lower	amplitud.ttf
2982.61	n/a	WORD	1491305	wordpools/wasnorm_wordpool.txt	LTP132	ltpFR	0	13	1	WASP	1593	n/a	n/a	1	0.422607421875	0.5869140625	0	lower	amplitud.ttf
2986.456	n/a	WORD	1493228	wordpools/wasnorm_wordpool.txt	LTP132	ltpFR	0	13	0	RECIPE	1175	n/a	n/a	0	0.57763671875	0.412841796875	1	upper	zerothre.ttf
2990.468	n/a	WORD	1495234	wordpools/wasnorm_wordpool.txt	LTP132	ltpFR	0	13	0	ASSOCIATE	49	n/a	n/a	1	0.57763671875	0.412841796875	1	upper	zerothre.ttf
2994.488	n/a	WORD	1497244	wordpools/wasnorm_wordpool.txt	LTP132	ltpFR	0	13	0	AUTHOR	61	n/a	n/a	1	0.57763671875	0.412841796875	1	upper	zerothre.ttf
2998.558	n/a	WORD	1499279	wordpools/wasnorm_wordpool.txt	LTP132	ltpFR	0	13	1	ENCYCLOPEDIA	533	n/a	n/a	0	0.422607421875	0.5869140625	0	lower	amplitud.ttf
3002.72	n/a	WORD	1501360	wordpools/wasnorm_wordpool.txt	LTP132	ltpFR	0	13	1	CATCHER	258	n/a	n/a	1	0.422607421875	0.5869140625	0	lower	amplitud.ttf
3006.642	n/a	WORD	1503321	wordpools/wasnorm_wordpool.txt	LTP132	ltpFR	0	13	1	VOLLEYBALL	1576	n/a	n/a	0	0.422607421875	0.5869140625	0	lower	amplitud.ttf
3010.462	n/a	WORD	1505231	wordpools/wasnorm_wordpool.txt	LTP132	ltpFR	0	13	0	ULCER	1533	n/a	n/a	1	0.57763671875	0.412841796875	1	upper	zerothre.ttf
3014.348	n/a	WORD	1507174	wordpools/wasnorm_wordpool.txt	LTP132	ltpFR	0	13	0	OINTMENT	974	n/a	n/a	0	0.57763671875	0.412841796875	1	upper	zerothre.ttf
3018.178	n/a	WORD	1509089	wordpools/wasnorm_wordpool.txt	LTP132	ltpFR	0	13	0	FOE	587	n/a	n/a	1	0.57763671875	0.412841796875	1	upper	zerothre.ttf
3022.042	n/a	WORD	1511021	wordpools/wasnorm_wordpool.txt	LTP132	ltpFR	0	13	0	DIVER	476	n/a	n/a	1	0.57763671875	0.412841796875	1	upper	zerothre.ttf
3026.012	n/a	WORD	1513006	wordpools/wasnorm_wordpool.txt	LTP132	ltpFR	0	13	0	SCROLL	1257	n/a	n/a	0	0.57763671875	0.412841796875	1	upper	zerothre.ttf
3030.182	n/a	WORD	1515091	wordpools/wasnorm_wordpool.txt	LTP132	ltpFR	0	13	1	DOUGHNUT	490	n/a	n/a	1	0.422607421875	0.5869140625	0	lower	amplitud.ttf
3034.22	n/a	WORD	1517110	wordpools/wasnorm_wordpool.txt	LTP132	ltpFR	0	13	1	OTTER	986	n/a	n/a	1	0.422607421875	0.5869140625	0	lower	amplitud.ttf
3039.964	n/a	REC_START	1519982	n/a	LTP132	ltpFR	0	13	n/a	n/a	n/a	n/a	n/a	n/a	n/a	n/a	n/a	n/a	n/a
3041.23	n/a	REC_WORD	1520615	wordpools/wasnorm_wordpool.txt	LTP132	ltpFR	0	13	1	OTTER	986	n/a	n/a	1	n/a	n/a	n/a	n/a	n/a
3042.274	n/a	REC_WORD	1521137	wordpools/wasnorm_wordpool.txt	LTP132	ltpFR	0	13	1	DOUGHNUT	490	n/a	n/a	1	n/a	n/a	n/a	n/a	n/a
3043.54	n/a	REC_WORD	1521770	wordpools/wasnorm_wordpool.txt	LTP132	ltpFR	0	13	0	AUTHOR	61	n/a	n/a	1	n/a	n/a	n/a	n/a	n/a
3044.922	n/a	REC_WORD	1522461	wordpools/wasnorm_wordpool.txt	LTP132	ltpFR	0	13	1	PUPPY	1144	n/a	n/a	1	n/a	n/a	n/a	n/a	n/a
3050.334	n/a	REC_WORD	1525167	wordpools/wasnorm_wordpool.txt	LTP132	ltpFR	0	13	1	ENCYCLOPEDIA	533	n/a	n/a	0	n/a	n/a	n/a	n/a	n/a
3052.25	n/a	REC_WORD	1526125	wordpools/wasnorm_wordpool.txt	LTP132	ltpFR	0	13	0	SCROLL	1257	n/a	n/a	0	n/a	n/a	n/a	n/a	n/a
3053.886	n/a	REC_WORD	1526943	wordpools/wasnorm_wordpool.txt	LTP132	ltpFR	0	13	0	ASSOCIATE	49	n/a	n/a	1	n/a	n/a	n/a	n/a	n/a
3067.256	n/a	REC_WORD	1533628	wordpools/wasnorm_wordpool.txt	LTP132	ltpFR	0	13	1	PROTON	1132	n/a	n/a	0	n/a	n/a	n/a	n/a	n/a
3070.858	n/a	REC_WORD	1535429	wordpools/wasnorm_wordpool.txt	LTP132	ltpFR	0	13	0	ULCER	1533	n/a	n/a	1	n/a	n/a	n/a	n/a	n/a
3081.418	n/a	REC_WORD	1540709	wordpools/wasnorm_wordpool.txt	LTP132	ltpFR	0	13	0	RECIPE	1175	n/a	n/a	0	n/a	n/a	n/a	n/a	n/a
3086.382	n/a	REC_WORD	1543191	wordpools/wasnorm_wordpool.txt	LTP132	ltpFR	0	13	0	FOE	587	n/a	n/a	1	n/a	n/a	n/a	n/a	n/a
3096.52	n/a	REC_WORD	1548260	wordpools/wasnorm_wordpool.txt	LTP132	ltpFR	0	13	1	DOUGHNUT	490	n/a	n/a	1	n/a	n/a	n/a	n/a	n/a
3121.684	n/a	WORD	1560842	wordpools/wasnorm_wordpool.txt	LTP132	ltpFR	0	14	1	PREDATOR	1120	n/a	n/a	1	0.422607421875	0.5869140625	0	lower	amplitud.ttf
3125.53	n/a	WORD	1562765	wordpools/wasnorm_wordpool.txt	LTP132	ltpFR	0	14	1	LOOP	844	n/a	n/a	0	0.422607421875	0.5869140625	0	lower	amplitud.ttf
3129.468	n/a	WORD	1564734	wordpools/wasnorm_wordpool.txt	LTP132	ltpFR	0	14	1	ARROW	40	n/a	n/a	0	0.422607421875	0.5869140625	0	lower	amplitud.ttf
3133.438	n/a	WORD	1566719	wordpools/wasnorm_wordpool.txt	LTP132	ltpFR	0	14	1	PAINTER	1004	n/a	n/a	1	0.422607421875	0.5869140625	0	lower	amplitud.ttf
3137.392	n/a	WORD	1568696	wordpools/wasnorm_wordpool.txt	LTP132	ltpFR	0	14	0	WATERFALL	1595	n/a	n/a	1	0.57763671875	0.412841796875	1	upper	zerothre.ttf
3141.554	n/a	WORD	1570777	wordpools/wasnorm_wordpool.txt	LTP132	ltpFR	0	14	0	VEST	1559	n/a	n/a	0	0.57763671875	0.412841796875	1	upper	zerothre.ttf
3145.708	n/a	WORD	1572854	wordpools/wasnorm_wordpool.txt	LTP132	ltpFR	0	14	0	RAFT	1159	n/a	n/a	1	0.57763671875	0.412841796875	1	upper	zerothre.ttf
3149.77	n/a	WORD	1574885	wordpools/wasnorm_wordpool.txt	LTP132	ltpFR	0	14	0	REEF	1177	n/a	n/a	1	0.57763671875	0.412841796875	1	upper	zerothre.ttf
3153.748	n/a	WORD	1576874	wordpools/wasnorm_wordpool.txt	LTP132	ltpFR	0	14	1	JUG	762	n/a	n/a	0	0.422607421875	0.5869140625	0	lower	amplitud.ttf
3157.568	n/a	WORD	1578784	wordpools/wasnorm_wordpool.txt	LTP132	ltpFR	0	14	1	ARCHITECT	36	n/a	n/a	1	0.422607421875	0.5869140625	0	lower	amplitud.ttf
3161.746	n/a	WORD	1580873	wordpools/wasnorm_wordpool.txt	LTP132	ltpFR	0	14	1	TICKET	1464	n/a	n/a	0	0.422607421875	0.5869140625	0	lower	amplitud.ttf
3165.642	n/a	WORD	1582821	wordpools/wasnorm_wordpool.txt	LTP132	ltpFR	0	14	1	CUB	419	n/a	n/a	1	0.422607421875	0.5869140625	0	lower	amplitud.ttf
3169.754	n/a	WORD	1584877	wordpools/wasnorm_wordpool.txt	LTP132	ltpFR	0	14	0	GUARD	667	n/a	n/a	1	0.57763671875	0.412841796875	1	upper	zerothre.ttf
3173.8	n/a	WORD	1586900	wordpools/wasnorm_wordpool.txt	LTP132	ltpFR	0	14	0	BUTTON	207	n/a	n/a	0	0.57763671875	0.412841796875	1	upper	zerothre.ttf
3177.93	n/a	WORD	1588965	wordpools/wasnorm_wordpool.txt	LTP132	ltpFR	0	14	0	FIG	563	n/a	n/a	0	0.57763671875	0.412841796875	1	upper	zerothre.ttf
3182.024	n/a	WORD	1591012	wordpools/wasnorm_wordpool.txt	LTP132	ltpFR	0	14	0	MOSS	918	n/a	n/a	1	0.57763671875	0.412841796875	1	upper	zerothre.ttf
3187.926	n/a	REC_START	1593963	n/a	LTP132	ltpFR	0	14	n/a	n/a	n/a	n/a	n/a	n/a	n/a	n/a	n/a	n/a	n/a
3188.85	n/a	REC_WORD	1594425	wordpools/wasnorm_wordpool.txt	LTP132	ltpFR	0	14	0	FIG	563	n/a	n/a	0	n/a	n/a	n/a	n/a	n/a
3189.992	n/a	REC_WORD	1594996	wordpools/wasnorm_wordpool.txt	LTP132	ltpFR	0	14	0	MOSS	918	n/a	n/a	1	n/a	n/a	n/a	n/a	n/a
3191.21	n/a	REC_WORD	1595605	wordpools/wasnorm_wordpool.txt	LTP132	ltpFR	0	14	1	PAINTER	1004	n/a	n/a	1	n/a	n/a	n/a	n/a	n/a
3192.352	n/a	REC_WORD	1596176	wordpools/wasnorm_wordpool.txt	LTP132	ltpFR	0	14	1	ARCHITECT	36	n/a	n/a	1	n/a	n/a	n/a	n/a	n/a
3193.724	n/a	REC_WORD	1596862	wordpools/wasnorm_wordpool.txt	LTP132	ltpFR	0	14	1	CUB	419	n/a	n/a	1	n/a	n/a	n/a	n/a	n/a
3225.506	n/a	REC_WORD	1612753	wordpools/wasnorm_wordpool.txt	LTP132	ltpFR	0	14	0	MOSS	918	n/a	n/a	1	n/a	n/a	n/a	n/a	n/a
3272.804	n/a	WORD	1636402	wordpools/wasnorm_wordpool.txt	LTP132	ltpFR	0	15	0	ORGAN	984	n/a	n/a	1	0.57763671875	0.412841796875	1	upper	zerothre.ttf
3276.834	n/a	WORD	1638417	wordpools/wasnorm_wordpool.txt	LTP132	ltpFR	0	15	0	INFANT	737	n/a	n/a	1	0.57763671875	0.412841796875	1	upper	zerothre.ttf
3280.794	n/a	WORD	1640397	wordpools/wasnorm_wordpool.txt	LTP132	ltpFR	0	15	0	FLANNEL	574	n/a	n/a	0	0.57763671875	0.412841796875	1	upper	zerothre.ttf
3284.764	n/a	WORD	1642382	wordpools/wasnorm_wordpool.txt	LTP132	ltpFR	0	15	0	TORCH	1484	n/a	n/a	1	0.57763671875	0.412841796875	1	upper	zerothre.ttf
3288.794	n/a	WORD	1644397	wordpools/wasnorm_wordpool.txt	LTP132	ltpFR	0	15	1	RACCOON	1153	n/a	n/a	1	0.422607421875	0.5869140625	0	lower	amplitud.ttf
3292.948	n/a	WORD	1646474	wordpools/wasnorm_wordpool.txt	LTP132	ltpFR	0	15	1	GAZELLE	628	n/a	n/a	1	0.422607421875	0.5869140625	0	lower	amplitud.ttf
3297.134	n/a	WORD	1648567	wordpools/wasnorm_wordpool.txt	LTP132	ltpFR	0	15	0	DYNAMITE	511	n/a	n/a	1	0.57763671875	0.412841796875	1	upper	zerothre.ttf
3301.122	n/a	WORD	1650561	wordpools/wasnorm_wordpool.txt	LTP132	ltpFR	0	15	0	SCREEN	1253	n/a	n/a	1	0.57763671875	0.412841796875	1	upper	zerothre.ttf
3304.95	n/a	WORD	1652475	wordpools/wasnorm_wordpool.txt	LTP132	ltpFR	0	15	0	POPCORN	1104	n/a	n/a	0	0.57763671875	0.412841796875	1	upper	zerothre.ttf
3308.862	n/a	WORD	1654431	wordpools/wasnorm_wordpool.txt	LTP132	ltpFR	0	15	0	BASSINET	97	n/a	n/a	1	0.57763671875	0.412841796875	1	upper	zerothre.ttf
3312.79	n/a	WORD	1656395	wordpools/wasnorm_wordpool.txt	LTP132	ltpFR	0	15	1	ELK	526	n/a	n/a	1	0.422607421875	0.5869140625	0	lower	amplitud.ttf
3316.728	n/a	WORD	1658364	wordpools/wasnorm_wordpool.txt	LTP132	ltpFR	0	15	1	SEAL	1262	n/a	n/a	1	0.422607421875	0.5869140625	0	lower	amplitud.ttf
3320.924	n/a	WORD	1660462	wordpools/wasnorm_wordpool.txt	LTP132	ltpFR	0	15	1	HAND	683	n/a	n/a	1	0.422607421875	0.5869140625	0	lower	amplitud.ttf
3325.028	n/a	WORD	1662514	wordpools/wasnorm_wordpool.txt	LTP132	ltpFR	0	15	1	CANVAS	234	n/a	n/a	0	0.422607421875	0.5869140625	0	lower	amplitud.ttf
3328.856	n/a	WORD	1664428	wordpools/wasnorm_wordpool.txt	LTP132	ltpFR	0	15	1	DENIM	446	n/a	n/a	0	0.422607421875	0.5869140625	0	lower	amplitud.ttf
3332.96	n/a	WORD	1666480	wordpools/wasnorm_wordpool.txt	LTP132	ltpFR	0	15	1	PROFESSOR	1131	n/a	n/a	1	0.422607421875	0.5869140625	0	lower	amplitud.ttf
3338.662	n/a	REC_START	1669331	n/a	LTP132	ltpFR	0	15	n/a	n/a	n/a	n/a	n/a	n/a	n/a	n/a	n/a	n/a	n/a
3339.714	n/a	REC_WORD	1669857	wordpools/wasnorm_wordpool.txt	LTP132	ltpFR	0	15	1	DENIM	446	n/a	n/a	0	n/a	n/a	n/a	n/a	n/a
3340.536	n/a	REC_WORD	1670268	wordpools/wasnorm_wordpool.txt	LTP132	ltpFR	0	15	1	PROFESSOR	1131	n/a	n/a	1	n/a	n/a	n/a	n/a	n/a
3341.934	n/a	REC_WORD	1670967	wordpools/wasnorm_wordpool.txt	LTP132	ltpFR	0	15	1	HAND	683	n/a	n/a	1	n/a	n/a	n/a	n/a	n/a
3343.08	n/a	REC_WORD	1671540	wordpools/wasnorm_wordpool.txt	LTP132	ltpFR	0	15	1	RACCOON	1153	n/a	n/a	1	n/a	n/a	n/a	n/a	n/a
3344.488	n/a	REC_WORD	1672244	wordpools/wasnorm_wordpool.txt	LTP132	ltpFR	0	15	1	ELK	526	n/a	n/a	1	n/a	n/a	n/a	n/a	n/a
3345.67	n/a	REC_WORD	1672835	wordpools/wasnorm_wordpool.txt	LTP132	ltpFR	0	15	0	INFANT	737	n/a	n/a	1	n/a	n/a	n/a	n/a	n/a
3346.972	n/a	REC_WORD	1673486	wordpools/wasnorm_wordpool.txt	LTP132	ltpFR	0	15	0	BASSINET	97	n/a	n/a	1	n/a	n/a	n/a	n/a	n/a
3351.058	n/a	REC_WORD	1675529	wordpools/wasnorm_wordpool.txt	LTP132	ltpFR	0	15	0	TORCH	1484	n/a	n/a	1	n/a	n/a	n/a	n/a	n/a
3358.008	n/a	REC_WORD	1679004	wordpools/wasnorm_wordpool.txt	LTP132	ltpFR	0	15	0	POPCORN	1104	n/a	n/a	0	n/a	n/a	n/a	n/a	n/a
3366.004	n/a	REC_WORD	1683002	wordpools/wasnorm_wordpool.txt	LTP132	ltpFR	0	15	1	SEAL	1262	n/a	n/a	1	n/a	n/a	n/a	n/a	n/a
3371.872	n/a	REC_WORD	1685936	wordpools/wasnorm_wordpool.txt	LTP132	ltpFR	0	15	1	PROFESSOR	1131	n/a	n/a	1	n/a	n/a	n/a	n/a	n/a
3420.868	n/a	WORD	1710434	wordpools/wasnorm_wordpool.txt	LTP132	ltpFR	0	16	0	LIVER	833	n/a	n/a	0	0.57763671875	0.412841796875	1	upper	zerothre.ttf
3424.838	n/a	WORD	1712419	wordpools/wasnorm_wordpool.txt	LTP132	ltpFR	0	16	0	PRINCESS	1125	n/a	n/a	1	0.57763671875	0.412841796875	1	upper	zerothre.ttf
3428.676	n/a	WORD	1714338	wordpools/wasnorm_wordpool.txt	LTP132	ltpFR	0	16	0	MONARCH	906	n/a	n/a	1	0.57763671875	0.412841796875	1	upper	zerothre.ttf
3432.654	n/a	WORD	1716327	wordpools/wasnorm_wordpool.txt	LTP132	ltpFR	0	16	0	CAPITAL	238	n/a	n/a	1	0.57763671875	0.412841796875	1	upper	zerothre.ttf
3436.666	n/a	WORD	1718333	wordpools/wasnorm_wordpool.txt	LTP132	ltpFR	0	16	1	PEACH	1031	n/a	n/a	1	0.422607421875	0.5869140625	0	lower	amplitud.ttf
3440.736	n/a	WORD	1720368	wordpools/wasnorm_wordpool.txt	LTP132	ltpFR	0	16	1	PORK	1108	n/a	n/a	0	0.422607421875	0.5869140625	0	lower	amplitud.ttf
3444.64	n/a	WORD	1722320	wordpools/wasnorm_wordpool.txt	LTP132	ltpFR	0	16	0	BLACKBERRY	132	n/a	n/a	3	0.57763671875	0.412841796875	1	upper	zerothre.ttf
3446.638	n/a	KEY_MSG	1723319	n/a	LTP132	ltpFR	0	16	n/a	n/a	n/a	n/a	n/a	n/a	n/a	n/a	n/a	n/a	n/a
3449.194	n/a	WORD	1724597	wordpools/wasnorm_wordpool.txt	LTP132	ltpFR	0	16	0	TIGER	1467	n/a	n/a	1	0.57763671875	0.412841796875	1	upper	zerothre.ttf
3453.354	n/a	WORD	1726677	wordpools/wasnorm_wordpool.txt	LTP132	ltpFR	0	16	1	CLAW	319	n/a	n/a	0	0.422607421875	0.5869140625	0	lower	amplitud.ttf
3457.226	n/a	WORD	1728613	wordpools/wasnorm_wordpool.txt	LTP132	ltpFR	0	16	1	CARD	243	n/a	n/a	0	0.422607421875	0.5869140625	0	lower	amplitud.ttf
3461.146	n/a	WORD	1730573	wordpools/wasnorm_wordpool.txt	LTP132	ltpFR	0	16	1	DOORBELL	487	n/a	n/a	0	0.422607421875	0.5869140625	0	lower	amplitud.ttf
3465.15	n/a	WORD	1732575	wordpools/wasnorm_wordpool.txt	LTP132	ltpFR	0	16	1	VILLAGE	1566	n/a	n/a	0	0.422607421875	0.5869140625	0	lower	amplitud.ttf
3469.362	n/a	WORD	1734681	wordpools/wasnorm_wordpool.txt	LTP132	ltpFR	0	16	1	PRUNE	1134	n/a	n/a	1	0.422607421875	0.5869140625	0	lower	amplitud.ttf
3473.44	n/a	WORD	1736720	wordpools/wasnorm_wordpool.txt	LTP132	ltpFR	0	16	1	TERMINAL	1450	n/a	n/a	0	0.422607421875	0.5869140625	0	lower	amplitud.ttf
3477.262	n/a	WORD	1738631	wordpools/wasnorm_wordpool.txt	LTP132	ltpFR	0	16	0	RABBIT	1152	n/a	n/a	0	0.57763671875	0.412841796875	1	upper	zerothre.ttf
3481.29	n/a	WORD	1740645	wordpools/wasnorm_wordpool.txt	LTP132	ltpFR	0	16	0	BUNNY	198	n/a	n/a	0	0.57763671875	0.412841796875	1	upper	zerothre.ttf
3487.084	n/a	REC_START	1743542	n/a	LTP132	ltpFR	0	16	n/a	n/a	n/a	n/a	n/a	n/a	n/a	n/a	n/a	n/a	n/a
3488.276	n/a	REC_WORD	1744138	wordpools/wasnorm_wordpool.txt	LTP132	ltpFR	0	16	0	RABBIT	1152	n/a	n/a	0	n/a	n/a	n/a	n/a	n/a
3489.368	n/a	REC_WORD	1744684	wordpools/wasnorm_wordpool.txt	LTP132	ltpFR	0	16	0	BUNNY	198	n/a	n/a	0	n/a	n/a	n/a	n/a	n/a
3490.52	n/a	REC_WORD	1745260	wordpools/wasnorm_wordpool.txt	LTP132	ltpFR	0	16	0	BLACKBERRY	132	n/a	n/a	3	n/a	n/a	n/a	n/a	n/a
3503.746	n/a	REC_WORD	1751873	wordpools/wasnorm_wordpool.txt	LTP132	ltpFR	0	16	1	PEACH	1031	n/a	n/a	1	n/a	n/a	n/a	n/a	n/a
3513.578	n/a	REC_WORD	1756789	wordpools/wasnorm_wordpool.txt	LTP132	ltpFR	0	16	0	PRINCESS	1125	n/a	n/a	1	n/a	n/a	n/a	n/a	n/a
3514.796	n/a	REC_WORD	1757398	wordpools/wasnorm_wordpool.txt	LTP132	ltpFR	0	16	0	MONARCH	906	n/a	n/a	1	n/a	n/a	n/a	n/a	n/a
3527.732	n/a	REC_WORD	1763866	wordpools/wasnorm_wordpool.txt	LTP132	ltpFR	0	16	0	TIGER	1467	n/a	n/a	1	n/a	n/a	n/a	n/a	n/a
3537.58	n/a	REC_WORD	1768790	wordpools/wasnorm_wordpool.txt	LTP132	ltpFR	0	16	0	CAPITAL	238	n/a	n/a	1	n/a	n/a	n/a	n/a	n/a
3550.534	n/a	REC_WORD	1775267	wordpools/wasnorm_wordpool.txt	LTP132	ltpFR	0	16	1	PRUNE	1134	n/a	n/a	1	n/a	n/a	n/a	n/a	n/a
3611.798	n/a	REC_START	1805899	n/a	LTP132	ltpFR	0	n/a	n/a	n/a	n/a	n/a	n/a	n/a	n/a	n/a	n/a	n/a	n/a
3613.54	n/a	FFR_REC_WORD	1806770	wordpools/wasnorm_wordpool.txt	LTP132	ltpFR	0	n/a	0	MONARCH	906	n/a	n/a	1	n/a	n/a	n/a	n/a	n/a
3614.582	n/a	FFR_REC_WORD	1807291	wordpools/wasnorm_wordpool.txt	LTP132	ltpFR	0	n/a	0	PRINCESS	1125	n/a	n/a	1	n/a	n/a	n/a	n/a	n/a
3615.744	n/a	FFR_REC_WORD	1807872	wordpools/wasnorm_wordpool.txt	LTP132	ltpFR	0	n/a	0	CAPITAL	238	n/a	n/a	1	n/a	n/a	n/a	n/a	n/a
3616.892	n/a	FFR_REC_WORD	1808446	wordpools/wasnorm_wordpool.txt	LTP132	ltpFR	0	n/a	0	BLACKBERRY	132	n/a	n/a	3	n/a	n/a	n/a	n/a	n/a
3618.108	n/a	FFR_REC_WORD	1809054	wordpools/wasnorm_wordpool.txt	LTP132	ltpFR	0	n/a	1	PEACH	1031	n/a	n/a	1	n/a	n/a	n/a	n/a	n/a
3620.414	n/a	FFR_REC_WORD	1810207	wordpools/wasnorm_wordpool.txt	LTP132	ltpFR	0	n/a	0	TERRITORY	1452	n/a	n/a	1	n/a	n/a	n/a	n/a	n/a
3622.528	n/a	FFR_REC_WORD	1811264	wordpools/wasnorm_wordpool.txt	LTP132	ltpFR	0	n/a	1	PROFESSOR	1131	n/a	n/a	1	n/a	n/a	n/a	n/a	n/a
3623.95	n/a	FFR_REC_WORD	1811975	wordpools/wasnorm_wordpool.txt	LTP132	ltpFR	0	n/a	0	INFANT	737	n/a	n/a	1	n/a	n/a	n/a	n/a	n/a
3625.064	n/a	FFR_REC_WORD	1812532	wordpools/wasnorm_wordpool.txt	LTP132	ltpFR	0	n/a	0	BASSINET	97	n/a	n/a	1	n/a	n/a	n/a	n/a	n/a
3626.366	n/a	FFR_REC_WORD	1813183	wordpools/wasnorm_wordpool.txt	LTP132	ltpFR	0	n/a	0	BUNNY	198	n/a	n/a	0	n/a	n/a	n/a	n/a	n/a
3627.352	n/a	FFR_REC_WORD	1813676	wordpools/wasnorm_wordpool.txt	LTP132	ltpFR	0	n/a	0	RABBIT	1152	n/a	n/a	0	n/a	n/a	n/a	n/a	n/a
3628.576	n/a	FFR_REC_WORD	1814288	wordpools/wasnorm_wordpool.txt	LTP132	ltpFR	0	n/a	0	TIGER	1467	n/a	n/a	1	n/a	n/a	n/a	n/a	n/a
3629.712	n/a	FFR_REC_WORD	1814856	wordpools/wasnorm_wordpool.txt	LTP132	ltpFR	0	n/a	1	PUPPY	1144	n/a	n/a	1	n/a	n/a	n/a	n/a	n/a
3630.884	n/a	FFR_REC_WORD	1815442	wordpools/wasnorm_wordpool.txt	LTP132	ltpFR	0	n/a	1	CUB	419	n/a	n/a	1	n/a	n/a	n/a	n/a	n/a
3631.932	n/a	FFR_REC_WORD	1815966	wordpools/wasnorm_wordpool.txt	LTP132	ltpFR	0	n/a	1	SEAL	1262	n/a	n/a	1	n/a	n/a	n/a	n/a	n/a
3635.594	n/a	FFR_REC_WORD	1817797	wordpools/wasnorm_wordpool.txt	LTP132	ltpFR	0	n/a	-1	TONGUE	1479	n/a	n/a	-1	n/a	n/a	n/a	n/a	n/a
3636.802	n/a	FFR_REC_WORD	1818401	wordpools/wasnorm_wordpool.txt	LTP132	ltpFR	0	n/a	0	EAR	513	n/a	n/a	0	n/a	n/a	n/a	n/a	n/a
3638.064	n/a	FFR_REC_WORD	1819032	wordpools/wasnorm_wordpool.txt	LTP132	ltpFR	0	n/a	0	EARRING	514	n/a	n/a	0	n/a	n/a	n/a	n/a	n/a
3639.426	n/a	FFR_REC_WORD	1819713	wordpools/wasnorm_wordpool.txt	LTP132	ltpFR	0	n/a	0	POPCORN	1104	n/a	n/a	0	n/a	n/a	n/a	n/a	n/a
3642.274	n/a	FFR_REC_WORD	1821137	wordpools/wasnorm_wordpool.txt	LTP132	ltpFR	0	n/a	0	NOVEL	960	n/a	n/a	0	n/a	n/a	n/a	n/a	n/a
3643.542	n/a	FFR_REC_WORD	1821771	wordpools/wasnorm_wordpool.txt	LTP132	ltpFR	0	n/a	0	AUTHOR	61	n/a	n/a	1	n/a	n/a	n/a	n/a	n/a
3645.162	n/a	FFR_REC_WORD	1822581	wordpools/wasnorm_wordpool.txt	LTP132	ltpFR	0	n/a	0	RECIPE	1175	n/a	n/a	0	n/a	n/a	n/a	n/a	n/a
3653.094	n/a	FFR_REC_WORD	1826547	wordpools/wasnorm_wordpool.txt	LTP132	ltpFR	0	n/a	0	TORCH	1484	n/a	n/a	1	n/a	n/a	n/a	n/a	n/a
3666.04	n/a	FFR_REC_WORD	1833020	wordpools/wasnorm_wordpool.txt	LTP132	ltpFR	0	n/a	-1	NOTEBOOK	959	n/a	n/a	-1	n/a	n/a	n/a	n/a	n/a
3667.368	n/a	FFR_REC_WORD	1833684	wordpools/wasnorm_wordpool.txt	LTP132	ltpFR	0	n/a	-1	JOURNAL	760	n/a	n/a	-1	n/a	n/a	n/a	n/a	n/a
3668.546	n/a	FFR_REC_WORD	1834273	wordpools/wasnorm_wordpool.txt	LTP132	ltpFR	0	n/a	0	ERASER	538	n/a	n/a	0	n/a	n/a	n/a	n/a	n/a
3677.09	n/a	FFR_REC_WORD	1838545	wordpools/wasnorm_wordpool.txt	LTP132	ltpFR	0	n/a	-1	COOLER	375	n/a	n/a	-1	n/a	n/a	n/a	n/a	n/a
3678.408	n/a	FFR_REC_WORD	1839204	wordpools/wasnorm_wordpool.txt	LTP132	ltpFR	0	n/a	-1	HEATER	698	n/a	n/a	-1	n/a	n/a	n/a	n/a	n/a
3689.532	n/a	FFR_REC_WORD	1844766	wordpools/wasnorm_wordpool.txt	LTP132	ltpFR	0	n/a	1	CHIPMUNK	304	n/a	n/a	1	n/a	n/a	n/a	n/a	n/a
3695.824	n/a	FFR_REC_WORD	1847912	wordpools/wasnorm_wordpool.txt	LTP132	ltpFR	0	n/a	-1	DRIVEWAY	500	n/a	n/a	-1	n/a	n/a	n/a	n/a	n/a
3697.09	n/a	FFR_REC_WORD	1848545	wordpools/wasnorm_wordpool.txt	LTP132	ltpFR	0	n/a	-1	VAN	1548	n/a	n/a	-1	n/a	n/a	n/a	n/a	n/a
3698.458	n/a	FFR_REC_WORD	1849229	wordpools/wasnorm_wordpool.txt	LTP132	ltpFR	0	n/a	-1	DRIVER	499	n/a	n/a	-1	n/a	n/a	n/a	n/a	n/a
3699.654	n/a	FFR_REC_WORD	1849827	wordpools/wasnorm_wordpool.txt	LTP132	ltpFR	0	n/a	1	PROFESSOR	1131	n/a	n/a	1	n/a	n/a	n/a	n/a	n/a
3703.62	n/a	FFR_REC_WORD	1851810	wordpools/wasnorm_wordpool.txt	LTP132	ltpFR	0	n/a	-1	VISITOR	1573	n/a	n/a	-1	n/a	n/a	n/a	n/a	n/a
3705.91	n/a	FFR_REC_WORD	1852955	wordpools/wasnorm_wordpool.txt	LTP132	ltpFR	0	n/a	-1	ROOMMATE	1207	n/a	n/a	-1	n/a	n/a	n/a	n/a	n/a
3716.864	n/a	FFR_REC_WORD	1858432	wordpools/wasnorm_wordpool.txt	LTP132	ltpFR	0	n/a	1	UNIVERSE	1540	n/a	n/a	0	n/a	n/a	n/a	n/a	n/a
3718.79	n/a	FFR_REC_WORD	1859395	wordpools/wasnorm_wordpool.txt	LTP132	ltpFR	0	n/a	1	ROSE	1212	n/a	n/a	1	n/a	n/a	n/a	n/a	n/a
3721.07	n/a	FFR_REC_WORD	1860535	wordpools/wasnorm_wordpool.txt	LTP132	ltpFR	0	n/a	1	BUSH	202	n/a	n/a	1	n/a	n/a	n/a	n/a	n/a
3722.108	n/a	FFR_REC_WORD	1861054	wordpools/wasnorm_wordpool.txt	LTP132	ltpFR	0	n/a	1	TREE	1502	n/a	n/a	1	n/a	n/a	n/a	n/a	n/a
3723.45	n/a	FFR_REC_WORD	1861725	wordpools/wasnorm_wordpool.txt	LTP132	ltpFR	0	n/a	1	POT	1114	n/a	n/a	0	n/a	n/a	n/a	n/a	n/a
3724.572	n/a	FFR_REC_WORD	1862286	wordpools/wasnorm_wordpool.txt	LTP132	ltpFR	0	n/a	1	LEAF	808	n/a	n/a	1	n/a	n/a	n/a	n/a	n/a
3725.99	n/a	FFR_REC_WORD	1862995	wordpools/wasnorm_wordpool.txt	LTP132	ltpFR	0	n/a	0	STEM	1376	n/a	n/a	0	n/a	n/a	n/a	n/a	n/a
3735.344	n/a	FFR_REC_WORD	1867672	wordpools/wasnorm_wordpool.txt	LTP132	ltpFR	0	n/a	0	ORCHID	982	n/a	n/a	0	n/a	n/a	n/a	n/a	n/a
3748.904	n/a	FFR_REC_WORD	1874452	wordpools/wasnorm_wordpool.txt	LTP132	ltpFR	0	n/a	0	MOSS	918	n/a	n/a	1	n/a	n/a	n/a	n/a	n/a
3757.41	n/a	FFR_REC_WORD	1878705	wordpools/wasnorm_wordpool.txt	LTP132	ltpFR	0	n/a	0	CABINET	212	n/a	n/a	1	n/a	n/a	n/a	n/a	n/a
3765.002	n/a	FFR_REC_WORD	1882501	wordpools/wasnorm_wordpool.txt	LTP132	ltpFR	0	n/a	1	MOTHER	921	n/a	n/a	1	n/a	n/a	n/a	n/a	n/a
3772.974	n/a	FFR_REC_WORD	1886487	wordpools/wasnorm_wordpool.txt	LTP132	ltpFR	0	n/a	0	KEYBOARD	774	n/a	n/a	0	n/a	n/a	n/a	n/a	n/a
3779.13	n/a	FFR_REC_WORD	1889565	wordpools/wasnorm_wordpool.txt	LTP132	ltpFR	0	n/a	1	HORNET	718	n/a	n/a	1	n/a	n/a	n/a	n/a	n/a
3780.472	n/a	FFR_REC_WORD	1890236	wordpools/wasnorm_wordpool.txt	LTP132	ltpFR	0	n/a	1	BEE	112	n/a	n/a	1	n/a	n/a	n/a	n/a	n/a
3800.082	n/a	FFR_REC_WORD	1900041	wordpools/wasnorm_wordpool.txt	LTP132	ltpFR	0	n/a	0	TELEVISION	1447	n/a	n/a	1	n/a	n/a	n/a	n/a	n/a
3817.064	n/a	FFR_REC_WORD	1908532	wordpools/wasnorm_wordpool.txt	LTP132	ltpFR	0	n/a	-1	KLEENEX	782	n/a	n/a	-1	n/a	n/a	n/a	n/a	n/a
3823.494	n/a	FFR_REC_WORD	1911747	wordpools/wasnorm_wordpool.txt	LTP132	ltpFR	0	n/a	0	PHOTO	1055	n/a	n/a	0	n/a	n/a	n/a	n/a	n/a
3824.612	n/a	FFR_REC_WORD	1912306	wordpools/wasnorm_wordpool.txt	LTP132	ltpFR	0	n/a	1	PORTRAIT	1111	n/a	n/a	0	n/a	n/a	n/a	n/a	n/a
3827.404	n/a	FFR_REC_WORD	1913702	wordpools/wasnorm_wordpool.txt	LTP132	ltpFR	0	n/a	1	RECORD	1176	n/a	n/a	0	n/a	n/a	n/a	n/a	n/a
3836.974	n/a	FFR_REC_WORD	1918487	wordpools/wasnorm_wordpool.txt	LTP132	ltpFR	0	n/a	1	ENCYCLOPEDIA	533	n/a	n/a	0	n/a	n/a	n/a	n/a	n/a
3845.754	n/a	FFR_REC_WORD	1922877	wordpools/wasnorm_wordpool.txt	LTP132	ltpFR	0	n/a	0	PARIS	1014	n/a	n/a	1	n/a	n/a	n/a	n/a	n/a
3847.62	n/a	FFR_REC_WORD_VV	1923810	wordpools/wasnorm_wordpool.txt	LTP132	ltpFR	0	n/a	n/a	<>	-1	n/a	n/a	n/a	n/a	n/a	n/a	n/a	n/a
3867.306	n/a	FFR_REC_WORD	1933653	wordpools/wasnorm_wordpool.txt	LTP132	ltpFR	0	n/a	-1	BERRY	122	n/a	n/a	-1	n/a	n/a	n/a	n/a	n/a
3894.434	n/a	FFR_REC_WORD	1947217	wordpools/wasnorm_wordpool.txt	LTP132	ltpFR	0	n/a	0	SOFTBALL	1343	n/a	n/a	0	n/a	n/a	n/a	n/a	n/a
3907.042	n/a	FFR_REC_WORD	1953521	wordpools/wasnorm_wordpool.txt	LTP132	ltpFR	0	n/a	0	UNIFORM	1539	n/a	n/a	0	n/a	n/a	n/a	n/a	n/a
3908.254	n/a	FFR_REC_WORD	1954127	wordpools/wasnorm_wordpool.txt	LTP132	ltpFR	0	n/a	0	SHERIFF	1284	n/a	n/a	1	n/a	n/a	n/a	n/a	n/a
3909.646	n/a	FFR_REC_WORD	1954823	wordpools/wasnorm_wordpool.txt	LTP132	ltpFR	0	n/a	0	DEPUTY	450	n/a	n/a	1	n/a	n/a	n/a	n/a	n/a
3910.972	n/a	FFR_REC_WORD	1955486	wordpools/wasnorm_wordpool.txt	LTP132	ltpFR	0	n/a	0	PRISONER	1128	n/a	n/a	1	n/a	n/a	n/a	n/a	n/a
4105.018	n/a	REC_START	2052509	n/a	LTP132	ltpFR	0	1	n/a	n/a	n/a	n/a	n/a	n/a	n/a	n/a	n/a	n/a	n/a
4105.042	n/a	RECOG_TARGET	2052521	n/a	LTP132	ltpFR	0	1	1	COFFIN	342	0	3	0	n/a	n/a	n/a	n/a	n/a
4107.018	n/a	RECOG_RESP	2053509	n/a	LTP132	ltpFR	0	1	1	COFFIN	342	0	n/a	0	n/a	n/a	n/a	n/a	n/a
4109.104	n/a	RECOG_CONF	2054552	n/a	LTP132	ltpFR	0	1	1	COFFIN	342	n/a	3	0	n/a	n/a	n/a	n/a	n/a
4111.808	n/a	RECOG_TARGET	2055904	n/a	LTP132	ltpFR	0	1	-1	DRIVEWAY	500	1	5	-1	n/a	n/a	n/a	n/a	n/a
4114.886	n/a	RECOG_RESP	2057443	n/a	LTP132	ltpFR	0	1	-1	DRIVEWAY	500	1	n/a	-1	n/a	n/a	n/a	n/a	n/a
4117.256	n/a	RECOG_CONF	2058628	n/a	LTP132	ltpFR	0	1	-1	DRIVEWAY	500	n/a	5	-1	n/a	n/a	n/a	n/a	n/a
4118.984	n/a	RECOG_TARGET	2059492	n/a	LTP132	ltpFR	0	1	-1	RULER	1216	0	3	-1	n/a	n/a	n/a	n/a	n/a
4120.618	n/a	RECOG_RESP	2060309	n/a	LTP132	ltpFR	0	1	-1	RULER	1216	0	n/a	-1	n/a	n/a	n/a	n/a	n/a
4122.912	n/a	RECOG_CONF	2061456	n/a	LTP132	ltpFR	0	1	-1	RULER	1216	n/a	3	-1	n/a	n/a	n/a	n/a	n/a
4124.76	n/a	RECOG_TARGET	2062380	n/a	LTP132	ltpFR	0	1	-1	TACK	1428	0	3	-1	n/a	n/a	n/a	n/a	n/a
4127.144	n/a	RECOG_RESP	2063572	n/a	LTP132	ltpFR	0	1	-1	TACK	1428	0	n/a	-1	n/a	n/a	n/a	n/a	n/a
4129.278	n/a	RECOG_CONF	2064639	n/a	LTP132	ltpFR	0	1	-1	TACK	1428	n/a	3	-1	n/a	n/a	n/a	n/a	n/a
4131.254	n/a	RECOG_TARGET	2065627	n/a	LTP132	ltpFR	0	1	0	ULCER	1533	1	5	1	n/a	n/a	n/a	n/a	n/a
4132.99	n/a	RECOG_RESP	2066495	n/a	LTP132	ltpFR	0	1	0	ULCER	1533	1	n/a	1	n/a	n/a	n/a	n/a	n/a
4134.996	n/a	RECOG_CONF	2067498	n/a	LTP132	ltpFR	0	1	0	ULCER	1533	n/a	5	1	n/a	n/a	n/a	n/a	n/a
4136.712	n/a	RECOG_TARGET	2068356	n/a	LTP132	ltpFR	0	1	0	TORCH	1484	0	5	1	n/a	n/a	n/a	n/a	n/a
4138.262	n/a	RECOG_RESP	2069131	n/a	LTP132	ltpFR	0	1	0	TORCH	1484	0	n/a	1	n/a	n/a	n/a	n/a	n/a
4140.294	n/a	RECOG_CONF	2070147	n/a	LTP132	ltpFR	0	1	0	TORCH	1484	n/a	5	1	n/a	n/a	n/a	n/a	n/a
4143.148	n/a	RECOG_TARGET	2071574	n/a	LTP132	ltpFR	0	1	0	GUARD	667	1	5	1	n/a	n/a	n/a	n/a	n/a
4145.872	n/a	RECOG_RESP	2072936	n/a	LTP132	ltpFR	0	1	0	GUARD	667	1	n/a	1	n/a	n/a	n/a	n/a	n/a
4148.146	n/a	RECOG_CONF	2074073	n/a	LTP132	ltpFR	0	1	0	GUARD	667	n/a	5	1	n/a	n/a	n/a	n/a	n/a
4149.218	n/a	RECOG_TARGET	2074609	n/a	LTP132	ltpFR	0	1	-1	DRILL	497	1	5	-1	n/a	n/a	n/a	n/a	n/a
4151.644	n/a	RECOG_RESP	2075822	n/a	LTP132	ltpFR	0	1	-1	DRILL	497	1	n/a	-1	n/a	n/a	n/a	n/a	n/a
4153.484	n/a	RECOG_CONF	2076742	n/a	LTP132	ltpFR	0	1	-1	DRILL	497	n/a	5	-1	n/a	n/a	n/a	n/a	n/a
4155.318	n/a	RECOG_TARGET	2077659	n/a	LTP132	ltpFR	0	1	-1	STRAWBERRY	1391	1	5	-1	n/a	n/a	n/a	n/a	n/a
4157.386	n/a	RECOG_RESP	2078693	n/a	LTP132	ltpFR	0	1	-1	STRAWBERRY	1391	1	n/a	-1	n/a	n/a	n/a	n/a	n/a
4159.31	n/a	RECOG_CONF	2079655	n/a	LTP132	ltpFR	0	1	-1	STRAWBERRY	1391	n/a	5	-1	n/a	n/a	n/a	n/a	n/a
4161.012	n/a	RECOG_TARGET	2080506	n/a	LTP132	ltpFR	0	1	0	CHECKERS	285	1	5	0	n/a	n/a	n/a	n/a	n/a
4162.978	n/a	RECOG_RESP	2081489	n/a	LTP132	ltpFR	0	1	0	CHECKERS	285	1	n/a	0	n/a	n/a	n/a	n/a	n/a
4164.588	n/a	RECOG_CONF	2082294	n/a	LTP132	ltpFR	0	1	0	CHECKERS	285	n/a	5	0	n/a	n/a	n/a	n/a	n/a
4166.312	n/a	RECOG_TARGET	2083156	n/a	LTP132	ltpFR	0	1	0	CREEK	404	0	2	1	n/a	n/a	n/a	n/a	n/a
4168.032	n/a	RECOG_RESP	2084016	n/a	LTP132	ltpFR	0	1	0	CREEK	404	0	n/a	1	n/a	n/a	n/a	n/a	n/a
4170.116	n/a	RECOG_CONF	2085058	n/a	LTP132	ltpFR	0	1	0	CREEK	404	n/a	2	1	n/a	n/a	n/a	n/a	n/a
4172.098	n/a	RECOG_TARGET	2086049	n/a	LTP132	ltpFR	0	1	0	EAR	513	1	5	0	n/a	n/a	n/a	n/a	n/a
4173.11	n/a	RECOG_RESP	2086555	n/a	LTP132	ltpFR	0	1	0	EAR	513	1	n/a	0	n/a	n/a	n/a	n/a	n/a
4174.936	n/a	RECOG_CONF	2087468	n/a	LTP132	ltpFR	0	1	0	EAR	513	n/a	5	0	n/a	n/a	n/a	n/a	n/a
4176.952	n/a	RECOG_TARGET	2088476	n/a	LTP132	ltpFR	0	1	1	RACCOON	1153	1	4	1	n/a	n/a	n/a	n/a	n/a
4178.292	n/a	RECOG_RESP	2089146	n/a	LTP132	ltpFR	0	1	1	RACCOON	1153	1	n/a	1	n/a	n/a	n/a	n/a	n/a
4180.294	n/a	RECOG_CONF	2090147	n/a	LTP132	ltpFR	0	1	1	RACCOON	1153	n/a	4	1	n/a	n/a	n/a	n/a	n/a
4182.046	n/a	RECOG_LURE	2091023	n/a	LTP132	ltpFR	0	1	n/a	NAIL	936	1	4	n/a	n/a	n/a	n/a	n/a	n/a
4183.506	n/a	RECOG_RESP	2091753	n/a	LTP132	ltpFR	0	1	n/a	NAIL	936	1	n/a	n/a	n/a	n/a	n/a	n/a	n/a
4185.252	n/a	RECOG_CONF	2092626	n/a	LTP132	ltpFR	0	1	n/a	NAIL	936	n/a	4	n/a	n/a	n/a	n/a	n/a	n/a
4187.206	n/a	RECOG_TARGET	2093603	n/a	LTP132	ltpFR	0	1	0	SCREEN	1253	1	5	1	n/a	n/a	n/a	n/a	n/a
4188.514	n/a	RECOG_RESP	2094257	n/a	LTP132	ltpFR	0	1	0	SCREEN	1253	1	n/a	1	n/a	n/a	n/a	n/a	n/a
4190.94	n/a	RECOG_CONF	2095470	n/a	LTP132	ltpFR	0	1	0	SCREEN	1253	n/a	5	1	n/a	n/a	n/a	n/a	n/a
4192.5	n/a	RECOG_TARGET	2096250	n/a	LTP132	ltpFR	0	1	1	CARD	243	1	5	0	n/a	n/a	n/a	n/a	n/a
4194.012	n/a	RECOG_RESP	2097006	n/a	LTP132	ltpFR	0	1	1	CARD	243	1	n/a	0	n/a	n/a	n/a	n/a	n/a
4196.326	n/a	RECOG_CONF	2098163	n/a	LTP132	ltpFR	0	1	1	CARD	243	n/a	5	0	n/a	n/a	n/a	n/a	n/a
4198.102	n/a	RECOG_LURE	2099051	n/a	LTP132	ltpFR	0	1	n/a	FLESH	579	0	4	n/a	n/a	n/a	n/a	n/a	n/a
4199.42	n/a	RECOG_RESP	2099710	n/a	LTP132	ltpFR	0	1	n/a	FLESH	579	0	n/a	n/a	n/a	n/a	n/a	n/a	n/a
4201.336	n/a	RECOG_CONF	2100668	n/a	LTP132	ltpFR	0	1	n/a	FLESH	579	n/a	4	n/a	n/a	n/a	n/a	n/a	n/a
4203.444	n/a	RECOG_TARGET	2101722	n/a	LTP132	ltpFR	0	1	0	OVEN	991	1	5	1	n/a	n/a	n/a	n/a	n/a
4204.498	n/a	RECOG_RESP	2102249	n/a	LTP132	ltpFR	0	1	0	OVEN	991	1	n/a	1	n/a	n/a	n/a	n/a	n/a
4206.114	n/a	RECOG_CONF	2103057	n/a	LTP132	ltpFR	0	1	0	OVEN	991	n/a	5	1	n/a	n/a	n/a	n/a	n/a
4208.182	n/a	RECOG_TARGET	2104091	n/a	LTP132	ltpFR	0	1	1	PUCK	1138	1	5	0	n/a	n/a	n/a	n/a	n/a
4209.152	n/a	RECOG_RESP	2104576	n/a	LTP132	ltpFR	0	1	1	PUCK	1138	1	n/a	0	n/a	n/a	n/a	n/a	n/a
4210.834	n/a	RECOG_CONF	2105417	n/a	LTP132	ltpFR	0	1	1	PUCK	1138	n/a	5	0	n/a	n/a	n/a	n/a	n/a
4212.684	n/a	RECOG_LURE	2106342	n/a	LTP132	ltpFR	0	1	n/a	CURTAIN	427	0	2	n/a	n/a	n/a	n/a	n/a	n/a
4214.086	n/a	RECOG_RESP	2107043	n/a	LTP132	ltpFR	0	1	n/a	CURTAIN	427	0	n/a	n/a	n/a	n/a	n/a	n/a	n/a
4215.902	n/a	RECOG_CONF	2107951	n/a	LTP132	ltpFR	0	1	n/a	CURTAIN	427	n/a	2	n/a	n/a	n/a	n/a	n/a	n/a
4230.112	n/a	REC_START	2115056	n/a	LTP132	ltpFR	0	2	n/a	n/a	n/a	n/a	n/a	n/a	n/a	n/a	n/a	n/a	n/a
4230.142	n/a	RECOG_TARGET	2115071	n/a	LTP132	ltpFR	0	2	-1	WOLF	1619	1	3	-1	n/a	n/a	n/a	n/a	n/a
4231.602	n/a	RECOG_RESP	2115801	n/a	LTP132	ltpFR	0	2	-1	WOLF	1619	1	n/a	-1	n/a	n/a	n/a	n/a	n/a
4233.428	n/a	RECOG_CONF	2116714	n/a	LTP132	ltpFR	0	2	-1	WOLF	1619	n/a	3	-1	n/a	n/a	n/a	n/a	n/a
4235.028	n/a	RECOG_LURE	2117514	n/a	LTP132	ltpFR	0	2	n/a	INSECT	740	0	2	n/a	n/a	n/a	n/a	n/a	n/a
4236.252	n/a	RECOG_RESP	2118126	n/a	LTP132	ltpFR	0	2	n/a	INSECT	740	0	n/a	n/a	n/a	n/a	n/a	n/a	n/a
4237.958	n/a	RECOG_CONF	2118979	n/a	LTP132	ltpFR	0	2	n/a	INSECT	740	n/a	2	n/a	n/a	n/a	n/a	n/a	n/a
4239.864	n/a	RECOG_LURE	2119932	n/a	LTP132	ltpFR	0	2	n/a	COMPANION	357	0	1	n/a	n/a	n/a	n/a	n/a	n/a
4241.476	n/a	RECOG_RESP	2120738	n/a	LTP132	ltpFR	0	2	n/a	COMPANION	357	0	n/a	n/a	n/a	n/a	n/a	n/a	n/a
4243.426	n/a	RECOG_CONF	2121713	n/a	LTP132	ltpFR	0	2	n/a	COMPANION	357	n/a	1	n/a	n/a	n/a	n/a	n/a	n/a
4245.33	n/a	RECOG_TARGET	2122665	n/a	LTP132	ltpFR	0	2	0	ROD	1203	1	5	0	n/a	n/a	n/a	n/a	n/a
4246.544	n/a	RECOG_RESP	2123272	n/a	LTP132	ltpFR	0	2	0	ROD	1203	1	n/a	0	n/a	n/a	n/a	n/a	n/a
4248.404	n/a	RECOG_CONF	2124202	n/a	LTP132	ltpFR	0	2	0	ROD	1203	n/a	5	0	n/a	n/a	n/a	n/a	n/a
4250.284	n/a	RECOG_TARGET	2125142	n/a	LTP132	ltpFR	0	2	1	PASSENGER	1020	1	3	1	n/a	n/a	n/a	n/a	n/a
4252.95	n/a	RECOG_RESP	2126475	n/a	LTP132	ltpFR	0	2	1	PASSENGER	1020	1	n/a	1	n/a	n/a	n/a	n/a	n/a
4254.72	n/a	RECOG_CONF	2127360	n/a	LTP132	ltpFR	0	2	1	PASSENGER	1020	n/a	3	1	n/a	n/a	n/a	n/a	n/a
4256.476	n/a	RECOG_TARGET	2128238	n/a	LTP132	ltpFR	0	2	-1	SIGN	1305	1	3	-1	n/a	n/a	n/a	n/a	n/a
4257.744	n/a	RECOG_RESP	2128872	n/a	LTP132	ltpFR	0	2	-1	SIGN	1305	1	n/a	-1	n/a	n/a	n/a	n/a	n/a
4259.52	n/a	RECOG_CONF	2129760	n/a	LTP132	ltpFR	0	2	-1	SIGN	1305	n/a	3	-1	n/a	n/a	n/a	n/a	n/a
4261.396	n/a	RECOG_TARGET	2130698	n/a	LTP132	ltpFR	0	2	0	NOVEL	960	1	5	0	n/a	n/a	n/a	n/a	n/a
4262.184	n/a	RECOG_RESP	2131092	n/a	LTP132	ltpFR	0	2	0	NOVEL	960	1	n/a	0	n/a	n/a	n/a	n/a	n/a
4263.87	n/a	RECOG_CONF	2131935	n/a	LTP132	ltpFR	0	2	0	NOVEL	960	n/a	5	0	n/a	n/a	n/a	n/a	n/a
4265.616	n/a	RECOG_TARGET	2132808	n/a	LTP132	ltpFR	0	2	1	TREE	1502	1	5	1	n/a	n/a	n/a	n/a	n/a
4266.398	n/a	RECOG_RESP	2133199	n/a	LTP132	ltpFR	0	2	1	TREE	1502	1	n/a	1	n/a	n/a	n/a	n/a	n/a
4268.13	n/a	RECOG_CONF	2134065	n/a	LTP132	ltpFR	0	2	1	TREE	1502	n/a	5	1	n/a	n/a	n/a	n/a	n/a
4269.986	n/a	RECOG_TARGET	2134993	n/a	LTP132	ltpFR	0	2	1	DENIM	446	1	5	0	n/a	n/a	n/a	n/a	n/a
4270.61	n/a	RECOG_RESP	2135305	n/a	LTP132	ltpFR	0	2	1	DENIM	446	1	n/a	0	n/a	n/a	n/a	n/a	n/a
4272.34	n/a	RECOG_CONF	2136170	n/a	LTP132	ltpFR	0	2	1	DENIM	446	n/a	5	0	n/a	n/a	n/a	n/a	n/a
4274.19	n/a	RECOG_TARGET	2137095	n/a	LTP132	ltpFR	0	2	1	CLAW	319	1	5	0	n/a	n/a	n/a	n/a	n/a
4275.03	n/a	RECOG_RESP	2137515	n/a	LTP132	ltpFR	0	2	1	CLAW	319	1	n/a	0	n/a	n/a	n/a	n/a	n/a
4276.71	n/a	RECOG_CONF	2138355	n/a	LTP132	ltpFR	0	2	1	CLAW	319	n/a	5	0	n/a	n/a	n/a	n/a	n/a
4278.526	n/a	RECOG_TARGET	2139263	n/a	LTP132	ltpFR	0	2	0	BROCCOLI	176	1	5	0	n/a	n/a	n/a	n/a	n/a
4279.274	n/a	RECOG_RESP	2139637	n/a	LTP132	ltpFR	0	2	0	BROCCOLI	176	1	n/a	0	n/a	n/a	n/a	n/a	n/a
4281.11	n/a	RECOG_CONF	2140555	n/a	LTP132	ltpFR	0	2	0	BROCCOLI	176	n/a	5	0	n/a	n/a	n/a	n/a	n/a
4282.98	n/a	RECOG_TARGET	2141490	n/a	LTP132	ltpFR	0	2	0	VIOLA	1570	1	5	1	n/a	n/a	n/a	n/a	n/a
4283.764	n/a	RECOG_RESP	2141882	n/a	LTP132	ltpFR	0	2	0	VIOLA	1570	1	n/a	1	n/a	n/a	n/a	n/a	n/a
4285.77	n/a	RECOG_CONF	2142885	n/a	LTP132	ltpFR	0	2	0	VIOLA	1570	n/a	5	1	n/a	n/a	n/a	n/a	n/a
4287.706	n/a	RECOG_LURE	2143853	n/a	LTP132	ltpFR	0	2	n/a	SKELETON	1314	0	3	n/a	n/a	n/a	n/a	n/a	n/a
4288.902	n/a	RECOG_RESP	2144451	n/a	LTP132	ltpFR	0	2	n/a	SKELETON	1314	0	n/a	n/a	n/a	n/a	n/a	n/a	n/a
4290.788	n/a	RECOG_CONF	2145394	n/a	LTP132	ltpFR	0	2	n/a	SKELETON	1314	n/a	3	n/a	n/a	n/a	n/a	n/a	n/a
4292.7	n/a	RECOG_LURE	2146350	n/a	LTP132	ltpFR	0	2	n/a	RESORT	1186	0	2	n/a	n/a	n/a	n/a	n/a	n/a
4293.896	n/a	RECOG_RESP	2146948	n/a	LTP132	ltpFR	0	2	n/a	RESORT	1186	0	n/a	n/a	n/a	n/a	n/a	n/a	n/a
4295.886	n/a	RECOG_CONF	2147943	n/a	LTP132	ltpFR	0	2	n/a	RESORT	1186	n/a	2	n/a	n/a	n/a	n/a	n/a	n/a
4297.636	n/a	RECOG_TARGET	2148818	n/a	LTP132	ltpFR	0	2	-1	GRILL	661	1	5	-1	n/a	n/a	n/a	n/a	n/a
4298.386	n/a	RECOG_RESP	2149193	n/a	LTP132	ltpFR	0	2	-1	GRILL	661	1	n/a	-1	n/a	n/a	n/a	n/a	n/a
4300.276	n/a	RECOG_CONF	2150138	n/a	LTP132	ltpFR	0	2	-1	GRILL	661	n/a	5	-1	n/a	n/a	n/a	n/a	n/a
4302.25	n/a	RECOG_TARGET	2151125	n/a	LTP132	ltpFR	0	2	0	UNIFORM	1539	1	5	0	n/a	n/a	n/a	n/a	n/a
4302.93	n/a	RECOG_RESP	2151465	n/a	LTP132	ltpFR	0	2	0	UNIFORM	1539	1	n/a	0	n/a	n/a	n/a	n/a	n/a
4304.686	n/a	RECOG_CONF	2152343	n/a	LTP132	ltpFR	0	2	0	UNIFORM	1539	n/a	5	0	n/a	n/a	n/a	n/a	n/a
4306.486	n/a	RECOG_TARGET	2153243	n/a	LTP132	ltpFR	0	2	0	BUNNY	198	1	5	0	n/a	n/a	n/a	n/a	n/a
4307.058	n/a	RECOG_RESP	2153529	n/a	LTP132	ltpFR	0	2	0	BUNNY	198	1	n/a	0	n/a	n/a	n/a	n/a	n/a
4308.798	n/a	RECOG_CONF	2154399	n/a	LTP132	ltpFR	0	2	0	BUNNY	198	n/a	5	0	n/a	n/a	n/a	n/a	n/a
4310.482	n/a	RECOG_TARGET	2155241	n/a	LTP132	ltpFR	0	2	0	IRON	744	1	5	0	n/a	n/a	n/a	n/a	n/a
4311.064	n/a	RECOG_RESP	2155532	n/a	LTP132	ltpFR	0	2	0	IRON	744	1	n/a	0	n/a	n/a	n/a	n/a	n/a
4312.81	n/a	RECOG_CONF	2156405	n/a	LTP132	ltpFR	0	2	0	IRON	744	n/a	5	0	n/a	n/a	n/a	n/a	n/a
4314.644	n/a	RECOG_LURE	2157322	n/a	LTP132	ltpFR	0	2	n/a	CASKET	255	1	2	n/a	n/a	n/a	n/a	n/a	n/a
4316.322	n/a	RECOG_RESP	2158161	n/a	LTP132	ltpFR	0	2	n/a	CASKET	255	1	n/a	n/a	n/a	n/a	n/a	n/a	n/a
4318.266	n/a	RECOG_CONF	2159133	n/a	LTP132	ltpFR	0	2	n/a	CASKET	255	n/a	2	n/a	n/a	n/a	n/a	n/a	n/a
4320.046	n/a	RECOG_TARGET	2160023	n/a	LTP132	ltpFR	0	2	0	NURSERY	964	1	5	1	n/a	n/a	n/a	n/a	n/a
4320.682	n/a	RECOG_RESP	2160341	n/a	LTP132	ltpFR	0	2	0	NURSERY	964	1	n/a	1	n/a	n/a	n/a	n/a	n/a
4322.558	n/a	RECOG_CONF	2161279	n/a	LTP132	ltpFR	0	2	0	NURSERY	964	n/a	5	1	n/a	n/a	n/a	n/a	n/a
4330.898	n/a	REC_START	2165449	n/a	LTP132	ltpFR	0	3	n/a	n/a	n/a	n/a	n/a	n/a	n/a	n/a	n/a	n/a	n/a
4330.926	n/a	RECOG_TARGET	2165463	n/a	LTP132	ltpFR	0	3	1	BEE	112	1	5	1	n/a	n/a	n/a	n/a	n/a
4331.63	n/a	RECOG_RESP	2165815	n/a	LTP132	ltpFR	0	3	1	BEE	112	1	n/a	1	n/a	n/a	n/a	n/a	n/a
4333.118	n/a	RECOG_CONF	2166559	n/a	LTP132	ltpFR	0	3	1	BEE	112	n/a	5	1	n/a	n/a	n/a	n/a	n/a
4334.838	n/a	RECOG_LURE	2167419	n/a	LTP132	ltpFR	0	3	n/a	COLLAR	345	0	2	n/a	n/a	n/a	n/a	n/a	n/a
4336.08	n/a	RECOG_RESP	2168040	n/a	LTP132	ltpFR	0	3	n/a	COLLAR	345	0	n/a	n/a	n/a	n/a	n/a	n/a	n/a
4337.548	n/a	RECOG_CONF	2168774	n/a	LTP132	ltpFR	0	3	n/a	COLLAR	345	n/a	2	n/a	n/a	n/a	n/a	n/a	n/a
4339.414	n/a	RECOG_LURE	2169707	n/a	LTP132	ltpFR	0	3	n/a	PICTURE	1061	1	2	n/a	n/a	n/a	n/a	n/a	n/a
4341.234	n/a	RECOG_RESP	2170617	n/a	LTP132	ltpFR	0	3	n/a	PICTURE	1061	1	n/a	n/a	n/a	n/a	n/a	n/a	n/a
4343.014	n/a	RECOG_CONF	2171507	n/a	LTP132	ltpFR	0	3	n/a	PICTURE	1061	n/a	2	n/a	n/a	n/a	n/a	n/a	n/a
4344.85	n/a	RECOG_TARGET	2172425	n/a	LTP132	ltpFR	0	3	-1	PIGEON	1065	1	5	-1	n/a	n/a	n/a	n/a	n/a
4345.584	n/a	RECOG_RESP	2172792	n/a	LTP132	ltpFR	0	3	-1	PIGEON	1065	1	n/a	-1	n/a	n/a	n/a	n/a	n/a
4347.226	n/a	RECOG_CONF	2173613	n/a	LTP132	ltpFR	0	3	-1	PIGEON	1065	n/a	5	-1	n/a	n/a	n/a	n/a	n/a
4349.03	n/a	RECOG_TARGET	2174515	n/a	LTP132	ltpFR	0	3	1	POT	1114	1	5	0	n/a	n/a	n/a	n/a	n/a
4349.7	n/a	RECOG_RESP	2174850	n/a	LTP132	ltpFR	0	3	1	POT	1114	1	n/a	0	n/a	n/a	n/a	n/a	n/a
4351.346	n/a	RECOG_CONF	2175673	n/a	LTP132	ltpFR	0	3	1	POT	1114	n/a	5	0	n/a	n/a	n/a	n/a	n/a
4353.042	n/a	RECOG_TARGET	2176521	n/a	LTP132	ltpFR	0	3	1	CEREAL	272	1	5	0	n/a	n/a	n/a	n/a	n/a
4353.894	n/a	RECOG_RESP	2176947	n/a	LTP132	ltpFR	0	3	1	CEREAL	272	1	n/a	0	n/a	n/a	n/a	n/a	n/a
4355.456	n/a	RECOG_CONF	2177728	n/a	LTP132	ltpFR	0	3	1	CEREAL	272	n/a	5	0	n/a	n/a	n/a	n/a	n/a
4357.178	n/a	RECOG_TARGET	2178589	n/a	LTP132	ltpFR	0	3	0	ROOSTER	1209	1	5	0	n/a	n/a	n/a	n/a	n/a
4357.812	n/a	RECOG_RESP	2178906	n/a	LTP132	ltpFR	0	3	0	ROOSTER	1209	1	n/a	0	n/a	n/a	n/a	n/a	n/a
4359.478	n/a	RECOG_CONF	2179739	n/a	LTP132	ltpFR	0	3	0	ROOSTER	1209	n/a	5	0	n/a	n/a	n/a	n/a	n/a
4361.208	n/a	RECOG_TARGET	2180604	n/a	LTP132	ltpFR	0	3	0	NAVIGATOR	938	1	4	1	n/a	n/a	n/a	n/a	n/a
4362.046	n/a	RECOG_RESP	2181023	n/a	LTP132	ltpFR	0	3	0	NAVIGATOR	938	1	n/a	1	n/a	n/a	n/a	n/a	n/a
4363.838	n/a	RECOG_CONF	2181919	n/a	LTP132	ltpFR	0	3	0	NAVIGATOR	938	n/a	4	1	n/a	n/a	n/a	n/a	n/a
4365.56	n/a	RECOG_TARGET	2182780	n/a	LTP132	ltpFR	0	3	1	PEACH	1031	1	5	1	n/a	n/a	n/a	n/a	n/a
4366.192	n/a	RECOG_RESP	2183096	n/a	LTP132	ltpFR	0	3	1	PEACH	1031	1	n/a	1	n/a	n/a	n/a	n/a	n/a
4367.888	n/a	RECOG_CONF	2183944	n/a	LTP132	ltpFR	0	3	1	PEACH	1031	n/a	5	1	n/a	n/a	n/a	n/a	n/a
4369.612	n/a	RECOG_TARGET	2184806	n/a	LTP132	ltpFR	0	3	0	PADDLE	1000	1	5	1	n/a	n/a	n/a	n/a	n/a
4370.512	n/a	RECOG_RESP	2185256	n/a	LTP132	ltpFR	0	3	0	PADDLE	1000	1	n/a	1	n/a	n/a	n/a	n/a	n/a
4372.158	n/a	RECOG_CONF	2186079	n/a	LTP132	ltpFR	0	3	0	PADDLE	1000	n/a	5	1	n/a	n/a	n/a	n/a	n/a
4373.934	n/a	RECOG_TARGET	2186967	n/a	LTP132	ltpFR	0	3	0	SCHOOL	1248	1	4	1	n/a	n/a	n/a	n/a	n/a
4374.812	n/a	RECOG_RESP	2187406	n/a	LTP132	ltpFR	0	3	0	SCHOOL	1248	1	n/a	1	n/a	n/a	n/a	n/a	n/a
4376.528	n/a	RECOG_CONF	2188264	n/a	LTP132	ltpFR	0	3	0	SCHOOL	1248	n/a	4	1	n/a	n/a	n/a	n/a	n/a
4378.22	n/a	RECOG_TARGET	2189110	n/a	LTP132	ltpFR	0	3	1	HORNET	718	1	5	1	n/a	n/a	n/a	n/a	n/a
4378.854	n/a	RECOG_RESP	2189427	n/a	LTP132	ltpFR	0	3	1	HORNET	718	1	n/a	1	n/a	n/a	n/a	n/a	n/a
4380.51	n/a	RECOG_CONF	2190255	n/a	LTP132	ltpFR	0	3	1	HORNET	718	n/a	5	1	n/a	n/a	n/a	n/a	n/a
4382.2	n/a	RECOG_TARGET	2191100	n/a	LTP132	ltpFR	0	3	1	MACHINE	852	1	5	0	n/a	n/a	n/a	n/a	n/a
4382.83	n/a	RECOG_RESP	2191415	n/a	LTP132	ltpFR	0	3	1	MACHINE	852	1	n/a	0	n/a	n/a	n/a	n/a	n/a
4384.59	n/a	RECOG_CONF	2192295	n/a	LTP132	ltpFR	0	3	1	MACHINE	852	n/a	5	0	n/a	n/a	n/a	n/a	n/a
4386.32	n/a	RECOG_TARGET	2193160	n/a	LTP132	ltpFR	0	3	-1	TUBA	1515	1	5	-1	n/a	n/a	n/a	n/a	n/a
4387.026	n/a	RECOG_RESP	2193513	n/a	LTP132	ltpFR	0	3	-1	TUBA	1515	1	n/a	-1	n/a	n/a	n/a	n/a	n/a
4388.912	n/a	RECOG_CONF	2194456	n/a	LTP132	ltpFR	0	3	-1	TUBA	1515	n/a	5	-1	n/a	n/a	n/a	n/a	n/a
4390.572	n/a	RECOG_TARGET	2195286	n/a	LTP132	ltpFR	0	3	0	ORCHID	982	1	5	0	n/a	n/a	n/a	n/a	n/a
4391.126	n/a	RECOG_RESP	2195563	n/a	LTP132	ltpFR	0	3	0	ORCHID	982	1	n/a	0	n/a	n/a	n/a	n/a	n/a
4392.772	n/a	RECOG_CONF	2196386	n/a	LTP132	ltpFR	0	3	0	ORCHID	982	n/a	5	0	n/a	n/a	n/a	n/a	n/a
4394.394	n/a	RECOG_TARGET	2197197	n/a	LTP132	ltpFR	0	3	1	JUG	762	1	5	0	n/a	n/a	n/a	n/a	n/a
4394.958	n/a	RECOG_RESP	2197479	n/a	LTP132	ltpFR	0	3	1	JUG	762	1	n/a	0	n/a	n/a	n/a	n/a	n/a
4396.634	n/a	RECOG_CONF	2198317	n/a	LTP132	ltpFR	0	3	1	JUG	762	n/a	5	0	n/a	n/a	n/a	n/a	n/a
4398.464	n/a	RECOG_TARGET	2199232	n/a	LTP132	ltpFR	0	3	1	UNIVERSE	1540	1	5	0	n/a	n/a	n/a	n/a	n/a
4398.988	n/a	RECOG_RESP	2199494	n/a	LTP132	ltpFR	0	3	1	UNIVERSE	1540	1	n/a	0	n/a	n/a	n/a	n/a	n/a
4400.714	n/a	RECOG_CONF	2200357	n/a	LTP132	ltpFR	0	3	1	UNIVERSE	1540	n/a	5	0	n/a	n/a	n/a	n/a	n/a
4402.5	n/a	RECOG_TARGET	2201250	n/a	LTP132	ltpFR	0	3	1	JUGGLER	763	1	5	1	n/a	n/a	n/a	n/a	n/a
4403.054	n/a	RECOG_RESP	2201527	n/a	LTP132	ltpFR	0	3	1	JUGGLER	763	1	n/a	1	n/a	n/a	n/a	n/a	n/a
4404.646	n/a	RECOG_CONF	2202323	n/a	LTP132	ltpFR	0	3	1	JUGGLER	763	n/a	5	1	n/a	n/a	n/a	n/a	n/a
4406.38	n/a	RECOG_TARGET	2203190	n/a	LTP132	ltpFR	0	3	1	VILLAGE	1566	1	5	0	n/a	n/a	n/a	n/a	n/a
4407.03	n/a	RECOG_RESP	2203515	n/a	LTP132	ltpFR	0	3	1	VILLAGE	1566	1	n/a	0	n/a	n/a	n/a	n/a	n/a
4408.606	n/a	RECOG_CONF	2204303	n/a	LTP132	ltpFR	0	3	1	VILLAGE	1566	n/a	5	0	n/a	n/a	n/a	n/a	n/a
4410.366	n/a	RECOG_TARGET	2205183	n/a	LTP132	ltpFR	0	3	-1	COUCH	386	0	4	-1	n/a	n/a	n/a	n/a	n/a
4411.674	n/a	RECOG_RESP	2205837	n/a	LTP132	ltpFR	0	3	-1	COUCH	386	0	n/a	-1	n/a	n/a	n/a	n/a	n/a
4413.416	n/a	RECOG_CONF	2206708	n/a	LTP132	ltpFR	0	3	-1	COUCH	386	n/a	4	-1	n/a	n/a	n/a	n/a	n/a
4422.472	n/a	REC_START	2211236	n/a	LTP132	ltpFR	0	4	n/a	n/a	n/a	n/a	n/a	n/a	n/a	n/a	n/a	n/a	n/a
4422.502	n/a	RECOG_TARGET	2211251	n/a	LTP132	ltpFR	0	4	-1	STICKER	1382	0	2	-1	n/a	n/a	n/a	n/a	n/a
4423.77	n/a	RECOG_RESP	2211885	n/a	LTP132	ltpFR	0	4	-1	STICKER	1382	0	n/a	-1	n/a	n/a	n/a	n/a	n/a
4425.47	n/a	RECOG_CONF	2212735	n/a	LTP132	ltpFR	0	4	-1	STICKER	1382	n/a	2	-1	n/a	n/a	n/a	n/a	n/a
4427.256	n/a	RECOG_TARGET	2213628	n/a	LTP132	ltpFR	0	4	1	ENCYCLOPEDIA	533	1	5	0	n/a	n/a	n/a	n/a	n/a
4428.378	n/a	RECOG_RESP	2214189	n/a	LTP132	ltpFR	0	4	1	ENCYCLOPEDIA	533	1	n/a	0	n/a	n/a	n/a	n/a	n/a
4429.93	n/a	RECOG_CONF	2214965	n/a	LTP132	ltpFR	0	4	1	ENCYCLOPEDIA	533	n/a	5	0	n/a	n/a	n/a	n/a	n/a
4431.708	n/a	RECOG_LURE	2215854	n/a	LTP132	ltpFR	0	4	n/a	SPINACH	1352	0	2	n/a	n/a	n/a	n/a	n/a	n/a
4432.818	n/a	RECOG_RESP	2216409	n/a	LTP132	ltpFR	0	4	n/a	SPINACH	1352	0	n/a	n/a	n/a	n/a	n/a	n/a	n/a
4434.68	n/a	RECOG_CONF	2217340	n/a	LTP132	ltpFR	0	4	n/a	SPINACH	1352	n/a	2	n/a	n/a	n/a	n/a	n/a	n/a
4436.478	n/a	RECOG_LURE	2218239	n/a	LTP132	ltpFR	0	4	n/a	CACTUS	215	0	5	n/a	n/a	n/a	n/a	n/a	n/a
4437.494	n/a	RECOG_RESP	2218747	n/a	LTP132	ltpFR	0	4	n/a	CACTUS	215	0	n/a	n/a	n/a	n/a	n/a	n/a	n/a
4439.478	n/a	RECOG_CONF	2219739	n/a	LTP132	ltpFR	0	4	n/a	CACTUS	215	n/a	5	n/a	n/a	n/a	n/a	n/a	n/a
4441.24	n/a	RECOG_LURE	2220620	n/a	LTP132	ltpFR	0	4	n/a	HERD	705	0	4	n/a	n/a	n/a	n/a	n/a	n/a
4442.252	n/a	RECOG_RESP	2221126	n/a	LTP132	ltpFR	0	4	n/a	HERD	705	0	n/a	n/a	n/a	n/a	n/a	n/a	n/a
4443.968	n/a	RECOG_CONF	2221984	n/a	LTP132	ltpFR	0	4	n/a	HERD	705	n/a	4	n/a	n/a	n/a	n/a	n/a	n/a
4445.7	n/a	RECOG_TARGET	2222850	n/a	LTP132	ltpFR	0	4	-1	JOKER	759	1	5	-1	n/a	n/a	n/a	n/a	n/a
4446.718	n/a	RECOG_RESP_VV	2223359	n/a	LTP132	ltpFR	0	4	-1	JOKER	759	0	n/a	-1	n/a	n/a	n/a	n/a	n/a
4447.94	n/a	RECOG_RESP	2223970	n/a	LTP132	ltpFR	0	4	-1	JOKER	759	1	n/a	-1	n/a	n/a	n/a	n/a	n/a
4449.476	n/a	RECOG_CONF	2224738	n/a	LTP132	ltpFR	0	4	-1	JOKER	759	n/a	5	-1	n/a	n/a	n/a	n/a	n/a
4451.278	n/a	RECOG_TARGET	2225639	n/a	LTP132	ltpFR	0	4	0	RAILROAD	1162	1	5	1	n/a	n/a	n/a	n/a	n/a
4452.48	n/a	RECOG_RESP	2226240	n/a	LTP132	ltpFR	0	4	0	RAILROAD	1162	1	n/a	1	n/a	n/a	n/a	n/a	n/a
4454.076	n/a	RECOG_CONF	2227038	n/a	LTP132	ltpFR	0	4	0	RAILROAD	1162	n/a	5	1	n/a	n/a	n/a	n/a	n/a
4455.94	n/a	RECOG_TARGET	2227970	n/a	LTP132	ltpFR	0	4	-1	COOLER	375	1	5	-1	n/a	n/a	n/a	n/a	n/a
4456.744	n/a	RECOG_RESP	2228372	n/a	LTP132	ltpFR	0	4	-1	COOLER	375	1	n/a	-1	n/a	n/a	n/a	n/a	n/a
4458.176	n/a	RECOG_CONF	2229088	n/a	LTP132	ltpFR	0	4	-1	COOLER	375	n/a	5	-1	n/a	n/a	n/a	n/a	n/a
4459.91	n/a	RECOG_TARGET	2229955	n/a	LTP132	ltpFR	0	4	0	CAPITAL	238	1	5	1	n/a	n/a	n/a	n/a	n/a
4460.536	n/a	RECOG_RESP	2230268	n/a	LTP132	ltpFR	0	4	0	CAPITAL	238	1	n/a	1	n/a	n/a	n/a	n/a	n/a
4461.978	n/a	RECOG_CONF	2230989	n/a	LTP132	ltpFR	0	4	0	CAPITAL	238	n/a	5	1	n/a	n/a	n/a	n/a	n/a
4463.746	n/a	RECOG_TARGET	2231873	n/a	LTP132	ltpFR	0	4	1	TERMINAL	1450	1	3	0	n/a	n/a	n/a	n/a	n/a
4465.656	n/a	RECOG_RESP	2232828	n/a	LTP132	ltpFR	0	4	1	TERMINAL	1450	1	n/a	0	n/a	n/a	n/a	n/a	n/a
4467.196	n/a	RECOG_CONF	2233598	n/a	LTP132	ltpFR	0	4	1	TERMINAL	1450	n/a	3	0	n/a	n/a	n/a	n/a	n/a
4469.134	n/a	RECOG_TARGET	2234567	n/a	LTP132	ltpFR	0	4	1	SHELTER	1282	1	3	0	n/a	n/a	n/a	n/a	n/a
4470.124	n/a	RECOG_RESP	2235062	n/a	LTP132	ltpFR	0	4	1	SHELTER	1282	1	n/a	0	n/a	n/a	n/a	n/a	n/a
4471.706	n/a	RECOG_CONF	2235853	n/a	LTP132	ltpFR	0	4	1	SHELTER	1282	n/a	3	0	n/a	n/a	n/a	n/a	n/a
4473.562	n/a	RECOG_LURE	2236781	n/a	LTP132	ltpFR	0	4	n/a	TAVERN	1437	0	2	n/a	n/a	n/a	n/a	n/a	n/a
4474.998	n/a	RECOG_RESP	2237499	n/a	LTP132	ltpFR	0	4	n/a	TAVERN	1437	0	n/a	n/a	n/a	n/a	n/a	n/a	n/a
4477.054	n/a	RECOG_CONF	2238527	n/a	LTP132	ltpFR	0	4	n/a	TAVERN	1437	n/a	2	n/a	n/a	n/a	n/a	n/a	n/a
4478.73	n/a	RECOG_TARGET	2239365	n/a	LTP132	ltpFR	0	4	1	ARROW	40	1	5	0	n/a	n/a	n/a	n/a	n/a
4479.738	n/a	RECOG_RESP	2239869	n/a	LTP132	ltpFR	0	4	1	ARROW	40	1	n/a	0	n/a	n/a	n/a	n/a	n/a
4481.504	n/a	RECOG_CONF	2240752	n/a	LTP132	ltpFR	0	4	1	ARROW	40	n/a	5	0	n/a	n/a	n/a	n/a	n/a
4483.184	n/a	RECOG_TARGET	2241592	n/a	LTP132	ltpFR	0	4	0	DOCK	477	1	2	1	n/a	n/a	n/a	n/a	n/a
4484.592	n/a	RECOG_RESP	2242296	n/a	LTP132	ltpFR	0	4	0	DOCK	477	1	n/a	1	n/a	n/a	n/a	n/a	n/a
4486.264	n/a	RECOG_CONF	2243132	n/a	LTP132	ltpFR	0	4	0	DOCK	477	n/a	2	1	n/a	n/a	n/a	n/a	n/a
4488.104	n/a	RECOG_TARGET	2244052	n/a	LTP132	ltpFR	0	4	1	LOOP	844	0	1	0	n/a	n/a	n/a	n/a	n/a
4490.0	n/a	RECOG_RESP	2245000	n/a	LTP132	ltpFR	0	4	1	LOOP	844	0	n/a	0	n/a	n/a	n/a	n/a	n/a
4491.77	n/a	RECOG_CONF	2245885	n/a	LTP132	ltpFR	0	4	1	LOOP	844	n/a	1	0	n/a	n/a	n/a	n/a	n/a
4493.53	n/a	RECOG_TARGET	2246765	n/a	LTP132	ltpFR	0	4	-1	SKULL	1320	1	5	-1	n/a	n/a	n/a	n/a	n/a
4494.46	n/a	RECOG_RESP	2247230	n/a	LTP132	ltpFR	0	4	-1	SKULL	1320	1	n/a	-1	n/a	n/a	n/a	n/a	n/a
4496.26	n/a	RECOG_CONF	2248130	n/a	LTP132	ltpFR	0	4	-1	SKULL	1320	n/a	5	-1	n/a	n/a	n/a	n/a	n/a
4497.834	n/a	RECOG_TARGET	2248917	n/a	LTP132	ltpFR	0	4	-1	STRANGER	1389	1	5	-1	n/a	n/a	n/a	n/a	n/a
4498.79	n/a	RECOG_RESP	2249395	n/a	LTP132	ltpFR	0	4	-1	STRANGER	1389	1	n/a	-1	n/a	n/a	n/a	n/a	n/a
4500.352	n/a	RECOG_CONF	2250176	n/a	LTP132	ltpFR	0	4	-1	STRANGER	1389	n/a	5	-1	n/a	n/a	n/a	n/a	n/a
4502.228	n/a	RECOG_TARGET	2251114	n/a	LTP132	ltpFR	0	4	0	RADIO	1157	1	5	0	n/a	n/a	n/a	n/a	n/a
4503.11	n/a	RECOG_RESP	2251555	n/a	LTP132	ltpFR	0	4	0	RADIO	1157	1	n/a	0	n/a	n/a	n/a	n/a	n/a
4504.682	n/a	RECOG_CONF	2252341	n/a	LTP132	ltpFR	0	4	0	RADIO	1157	n/a	5	0	n/a	n/a	n/a	n/a	n/a
4506.406	n/a	RECOG_TARGET	2253203	n/a	LTP132	ltpFR	0	4	0	WALNUT	1584	1	5	0	n/a	n/a	n/a	n/a	n/a
4506.952	n/a	RECOG_RESP	2253476	n/a	LTP132	ltpFR	0	4	0	WALNUT	1584	1	n/a	0	n/a	n/a	n/a	n/a	n/a
4508.542	n/a	RECOG_CONF	2254271	n/a	LTP132	ltpFR	0	4	0	WALNUT	1584	n/a	5	0	n/a	n/a	n/a	n/a	n/a
4510.212	n/a	RECOG_TARGET	2255106	n/a	LTP132	ltpFR	0	4	-1	LASH	802	1	5	-1	n/a	n/a	n/a	n/a	n/a
4510.898	n/a	RECOG_RESP	2255449	n/a	LTP132	ltpFR	0	4	-1	LASH	802	1	n/a	-1	n/a	n/a	n/a	n/a	n/a
4512.494	n/a	RECOG_CONF	2256247	n/a	LTP132	ltpFR	0	4	-1	LASH	802	n/a	5	-1	n/a	n/a	n/a	n/a	n/a
4539.792	n/a	REC_START	2269896	n/a	LTP132	ltpFR	0	5	n/a	n/a	n/a	n/a	n/a	n/a	n/a	n/a	n/a	n/a	n/a
4539.818	n/a	RECOG_TARGET	2269909	n/a	LTP132	ltpFR	0	5	-1	GARAGE	621	1	5	-1	n/a	n/a	n/a	n/a	n/a
4540.65	n/a	RECOG_RESP	2270325	n/a	LTP132	ltpFR	0	5	-1	GARAGE	621	1	n/a	-1	n/a	n/a	n/a	n/a	n/a
4542.14	n/a	RECOG_CONF	2271070	n/a	LTP132	ltpFR	0	5	-1	GARAGE	621	n/a	5	-1	n/a	n/a	n/a	n/a	n/a
4543.906	n/a	RECOG_TARGET	2271953	n/a	LTP132	ltpFR	0	5	1	BOARD	143	1	5	0	n/a	n/a	n/a	n/a	n/a
4544.48	n/a	RECOG_RESP	2272240	n/a	LTP132	ltpFR	0	5	1	BOARD	143	1	n/a	0	n/a	n/a	n/a	n/a	n/a
4545.904	n/a	RECOG_CONF	2272952	n/a	LTP132	ltpFR	0	5	1	BOARD	143	n/a	5	0	n/a	n/a	n/a	n/a	n/a
4547.734	n/a	RECOG_TARGET	2273867	n/a	LTP132	ltpFR	0	5	1	COBBLER	335	1	5	1	n/a	n/a	n/a	n/a	n/a
4548.302	n/a	RECOG_RESP	2274151	n/a	LTP132	ltpFR	0	5	1	COBBLER	335	1	n/a	1	n/a	n/a	n/a	n/a	n/a
4549.754	n/a	RECOG_CONF	2274877	n/a	LTP132	ltpFR	0	5	1	COBBLER	335	n/a	5	1	n/a	n/a	n/a	n/a	n/a
4551.572	n/a	RECOG_TARGET	2275786	n/a	LTP132	ltpFR	0	5	0	INFANT	737	1	5	1	n/a	n/a	n/a	n/a	n/a
4552.04	n/a	RECOG_RESP	2276020	n/a	LTP132	ltpFR	0	5	0	INFANT	737	1	n/a	1	n/a	n/a	n/a	n/a	n/a
4553.556	n/a	RECOG_CONF	2276778	n/a	LTP132	ltpFR	0	5	0	INFANT	737	n/a	5	1	n/a	n/a	n/a	n/a	n/a
4555.326	n/a	RECOG_TARGET	2277663	n/a	LTP132	ltpFR	0	5	1	MOTHER	921	1	5	1	n/a	n/a	n/a	n/a	n/a
4555.95	n/a	RECOG_RESP	2277975	n/a	LTP132	ltpFR	0	5	1	MOTHER	921	1	n/a	1	n/a	n/a	n/a	n/a	n/a
4557.438	n/a	RECOG_CONF	2278719	n/a	LTP132	ltpFR	0	5	1	MOTHER	921	n/a	5	1	n/a	n/a	n/a	n/a	n/a
4559.164	n/a	RECOG_LURE	2279582	n/a	LTP132	ltpFR	0	5	n/a	HIP	710	0	4	n/a	n/a	n/a	n/a	n/a	n/a
4560.316	n/a	RECOG_RESP	2280158	n/a	LTP132	ltpFR	0	5	n/a	HIP	710	0	n/a	n/a	n/a	n/a	n/a	n/a	n/a
4561.798	n/a	RECOG_CONF	2280899	n/a	LTP132	ltpFR	0	5	n/a	HIP	710	n/a	4	n/a	n/a	n/a	n/a	n/a	n/a
4563.5	n/a	RECOG_LURE	2281750	n/a	LTP132	ltpFR	0	5	n/a	TUB	1514	1	5	n/a	n/a	n/a	n/a	n/a	n/a
4564.92	n/a	RECOG_RESP	2282460	n/a	LTP132	ltpFR	0	5	n/a	TUB	1514	1	n/a	n/a	n/a	n/a	n/a	n/a	n/a
4566.416	n/a	RECOG_CONF	2283208	n/a	LTP132	ltpFR	0	5	n/a	TUB	1514	n/a	5	n/a	n/a	n/a	n/a	n/a	n/a
4568.038	n/a	RECOG_TARGET	2284019	n/a	LTP132	ltpFR	0	5	1	HAMMOCK	681	1	5	0	n/a	n/a	n/a	n/a	n/a
4568.722	n/a	RECOG_RESP	2284361	n/a	LTP132	ltpFR	0	5	1	HAMMOCK	681	1	n/a	0	n/a	n/a	n/a	n/a	n/a
4570.308	n/a	RECOG_CONF	2285154	n/a	LTP132	ltpFR	0	5	1	HAMMOCK	681	n/a	5	0	n/a	n/a	n/a	n/a	n/a
4572.09	n/a	RECOG_TARGET	2286045	n/a	LTP132	ltpFR	0	5	0	LOUNGE	845	1	5	1	n/a	n/a	n/a	n/a	n/a
4572.812	n/a	RECOG_RESP	2286406	n/a	LTP132	ltpFR	0	5	0	LOUNGE	845	1	n/a	1	n/a	n/a	n/a	n/a	n/a
4574.398	n/a	RECOG_CONF	2287199	n/a	LTP132	ltpFR	0	5	0	LOUNGE	845	n/a	5	1	n/a	n/a	n/a	n/a	n/a
4576.186	n/a	RECOG_TARGET	2288093	n/a	LTP132	ltpFR	0	5	-1	BATH	98	1	5	-1	n/a	n/a	n/a	n/a	n/a
4576.698	n/a	RECOG_RESP	2288349	n/a	LTP132	ltpFR	0	5	-1	BATH	98	1	n/a	-1	n/a	n/a	n/a	n/a	n/a
4578.35	n/a	RECOG_CONF	2289175	n/a	LTP132	ltpFR	0	5	-1	BATH	98	n/a	5	-1	n/a	n/a	n/a	n/a	n/a
4580.09	n/a	RECOG_TARGET	2290045	n/a	LTP132	ltpFR	0	5	1	TICKET	1464	1	2	0	n/a	n/a	n/a	n/a	n/a
4581.428	n/a	RECOG_RESP	2290714	n/a	LTP132	ltpFR	0	5	1	TICKET	1464	1	n/a	0	n/a	n/a	n/a	n/a	n/a
4582.96	n/a	RECOG_CONF	2291480	n/a	LTP132	ltpFR	0	5	1	TICKET	1464	n/a	2	0	n/a	n/a	n/a	n/a	n/a
4584.824	n/a	RECOG_TARGET	2292412	n/a	LTP132	ltpFR	0	5	-1	VISITOR	1573	1	5	-1	n/a	n/a	n/a	n/a	n/a
4585.478	n/a	RECOG_RESP	2292739	n/a	LTP132	ltpFR	0	5	-1	VISITOR	1573	1	n/a	-1	n/a	n/a	n/a	n/a	n/a
4586.86	n/a	RECOG_CONF	2293430	n/a	LTP132	ltpFR	0	5	-1	VISITOR	1573	n/a	5	-1	n/a	n/a	n/a	n/a	n/a
4588.678	n/a	RECOG_TARGET	2294339	n/a	LTP132	ltpFR	0	5	-1	HUT	729	1	2	-1	n/a	n/a	n/a	n/a	n/a
4589.894	n/a	RECOG_RESP	2294947	n/a	LTP132	ltpFR	0	5	-1	HUT	729	1	n/a	-1	n/a	n/a	n/a	n/a	n/a
4591.42	n/a	RECOG_CONF	2295710	n/a	LTP132	ltpFR	0	5	-1	HUT	729	n/a	2	-1	n/a	n/a	n/a	n/a	n/a
4593.092	n/a	RECOG_LURE	2296546	n/a	LTP132	ltpFR	0	5	n/a	ZUCCHINI	1638	0	3	n/a	n/a	n/a	n/a	n/a	n/a
4594.314	n/a	RECOG_RESP	2297157	n/a	LTP132	ltpFR	0	5	n/a	ZUCCHINI	1638	0	n/a	n/a	n/a	n/a	n/a	n/a	n/a
4596.0	n/a	RECOG_CONF	2298000	n/a	LTP132	ltpFR	0	5	n/a	ZUCCHINI	1638	n/a	3	n/a	n/a	n/a	n/a	n/a	n/a
4597.736	n/a	RECOG_TARGET	2298868	n/a	LTP132	ltpFR	0	5	0	MOSS	918	1	5	1	n/a	n/a	n/a	n/a	n/a
4598.428	n/a	RECOG_RESP	2299214	n/a	LTP132	ltpFR	0	5	0	MOSS	918	1	n/a	1	n/a	n/a	n/a	n/a	n/a
4599.96	n/a	RECOG_CONF	2299980	n/a	LTP132	ltpFR	0	5	0	MOSS	918	n/a	5	1	n/a	n/a	n/a	n/a	n/a
4601.772	n/a	RECOG_TARGET	2300886	n/a	LTP132	ltpFR	0	5	0	ERASER	538	1	5	0	n/a	n/a	n/a	n/a	n/a
4602.36	n/a	RECOG_RESP	2301180	n/a	LTP132	ltpFR	0	5	0	ERASER	538	1	n/a	0	n/a	n/a	n/a	n/a	n/a
4604.032	n/a	RECOG_CONF	2302016	n/a	LTP132	ltpFR	0	5	0	ERASER	538	n/a	5	0	n/a	n/a	n/a	n/a	n/a
4605.742	n/a	RECOG_LURE	2302871	n/a	LTP132	ltpFR	0	5	n/a	COLONEL	348	0	2	n/a	n/a	n/a	n/a	n/a	n/a
4607.408	n/a	RECOG_RESP	2303704	n/a	LTP132	ltpFR	0	5	n/a	COLONEL	348	0	n/a	n/a	n/a	n/a	n/a	n/a	n/a
4609.02	n/a	RECOG_CONF	2304510	n/a	LTP132	ltpFR	0	5	n/a	COLONEL	348	n/a	2	n/a	n/a	n/a	n/a	n/a	n/a
4610.83	n/a	RECOG_LURE	2305415	n/a	LTP132	ltpFR	0	5	n/a	DESK	452	0	2	n/a	n/a	n/a	n/a	n/a	n/a
4612.228	n/a	RECOG_RESP	2306114	n/a	LTP132	ltpFR	0	5	n/a	DESK	452	0	n/a	n/a	n/a	n/a	n/a	n/a	n/a
4613.79	n/a	RECOG_CONF	2306895	n/a	LTP132	ltpFR	0	5	n/a	DESK	452	n/a	2	n/a	n/a	n/a	n/a	n/a	n/a
4615.472	n/a	RECOG_TARGET	2307736	n/a	LTP132	ltpFR	0	5	1	CHIME	300	1	4	0	n/a	n/a	n/a	n/a	n/a
4616.942	n/a	RECOG_RESP	2308471	n/a	LTP132	ltpFR	0	5	1	CHIME	300	1	n/a	0	n/a	n/a	n/a	n/a	n/a
4618.358	n/a	RECOG_CONF	2309179	n/a	LTP132	ltpFR	0	5	1	CHIME	300	n/a	4	0	n/a	n/a	n/a	n/a	n/a
4620.094	n/a	RECOG_TARGET	2310047	n/a	LTP132	ltpFR	0	5	-1	WEED	1599	0	2	-1	n/a	n/a	n/a	n/a	n/a
4621.602	n/a	RECOG_RESP	2310801	n/a	LTP132	ltpFR	0	5	-1	WEED	1599	0	n/a	-1	n/a	n/a	n/a	n/a	n/a
4623.576	n/a	RECOG_CONF	2311788	n/a	LTP132	ltpFR	0	5	-1	WEED	1599	n/a	2	-1	n/a	n/a	n/a	n/a	n/a
4629.542	n/a	REC_START	2314771	n/a	LTP132	ltpFR	0	6	n/a	n/a	n/a	n/a	n/a	n/a	n/a	n/a	n/a	n/a	n/a
4629.574	n/a	RECOG_TARGET	2314787	n/a	LTP132	ltpFR	0	6	1	BUYER	208	1	5	1	n/a	n/a	n/a	n/a	n/a
4630.476	n/a	RECOG_RESP	2315238	n/a	LTP132	ltpFR	0	6	1	BUYER	208	1	n/a	1	n/a	n/a	n/a	n/a	n/a
4632.01	n/a	RECOG_CONF	2316005	n/a	LTP132	ltpFR	0	6	1	BUYER	208	n/a	5	1	n/a	n/a	n/a	n/a	n/a
4633.686	n/a	RECOG_LURE	2316843	n/a	LTP132	ltpFR	0	6	n/a	QUILL	1150	0	5	n/a	n/a	n/a	n/a	n/a	n/a
4634.63	n/a	RECOG_RESP	2317315	n/a	LTP132	ltpFR	0	6	n/a	QUILL	1150	0	n/a	n/a	n/a	n/a	n/a	n/a	n/a
4636.072	n/a	RECOG_CONF	2318036	n/a	LTP132	ltpFR	0	6	n/a	QUILL	1150	n/a	5	n/a	n/a	n/a	n/a	n/a	n/a
4637.874	n/a	RECOG_LURE	2318937	n/a	LTP132	ltpFR	0	6	n/a	TWEEZERS	1526	0	5	n/a	n/a	n/a	n/a	n/a	n/a
4638.822	n/a	RECOG_RESP	2319411	n/a	LTP132	ltpFR	0	6	n/a	TWEEZERS	1526	0	n/a	n/a	n/a	n/a	n/a	n/a	n/a
4640.214	n/a	RECOG_CONF	2320107	n/a	LTP132	ltpFR	0	6	n/a	TWEEZERS	1526	n/a	5	n/a	n/a	n/a	n/a	n/a	n/a
4641.886	n/a	RECOG_TARGET	2320943	n/a	LTP132	ltpFR	0	6	-1	TONGUE	1479	1	5	-1	n/a	n/a	n/a	n/a	n/a
4642.722	n/a	RECOG_RESP	2321361	n/a	LTP132	ltpFR	0	6	-1	TONGUE	1479	1	n/a	-1	n/a	n/a	n/a	n/a	n/a
4644.792	n/a	RECOG_CONF	2322396	n/a	LTP132	ltpFR	0	6	-1	TONGUE	1479	n/a	5	-1	n/a	n/a	n/a	n/a	n/a
4646.222	n/a	RECOG_TARGET	2323111	n/a	LTP132	ltpFR	0	6	0	FLANNEL	574	1	5	0	n/a	n/a	n/a	n/a	n/a
4647.062	n/a	RECOG_RESP	2323531	n/a	LTP132	ltpFR	0	6	0	FLANNEL	574	1	n/a	0	n/a	n/a	n/a	n/a	n/a
4648.514	n/a	RECOG_CONF	2324257	n/a	LTP132	ltpFR	0	6	0	FLANNEL	574	n/a	5	0	n/a	n/a	n/a	n/a	n/a
4650.276	n/a	RECOG_LURE	2325138	n/a	LTP132	ltpFR	0	6	n/a	BANDIT	81	0	2	n/a	n/a	n/a	n/a	n/a	n/a
4651.552	n/a	RECOG_RESP	2325776	n/a	LTP132	ltpFR	0	6	n/a	BANDIT	81	0	n/a	n/a	n/a	n/a	n/a	n/a	n/a
4653.154	n/a	RECOG_CONF	2326577	n/a	LTP132	ltpFR	0	6	n/a	BANDIT	81	n/a	2	n/a	n/a	n/a	n/a	n/a	n/a
4654.88	n/a	RECOG_TARGET	2327440	n/a	LTP132	ltpFR	0	6	-1	KLEENEX	782	1	5	-1	n/a	n/a	n/a	n/a	n/a
4655.672	n/a	RECOG_RESP	2327836	n/a	LTP132	ltpFR	0	6	-1	KLEENEX	782	1	n/a	-1	n/a	n/a	n/a	n/a	n/a
4657.114	n/a	RECOG_CONF	2328557	n/a	LTP132	ltpFR	0	6	-1	KLEENEX	782	n/a	5	-1	n/a	n/a	n/a	n/a	n/a
4659.058	n/a	RECOG_TARGET	2329529	n/a	LTP132	ltpFR	0	6	-1	BIOLOGIST	128	1	5	-1	n/a	n/a	n/a	n/a	n/a
4659.728	n/a	RECOG_RESP	2329864	n/a	LTP132	ltpFR	0	6	-1	BIOLOGIST	128	1	n/a	-1	n/a	n/a	n/a	n/a	n/a
4661.236	n/a	RECOG_CONF	2330618	n/a	LTP132	ltpFR	0	6	-1	BIOLOGIST	128	n/a	5	-1	n/a	n/a	n/a	n/a	n/a
4662.97	n/a	RECOG_TARGET	2331485	n/a	LTP132	ltpFR	0	6	1	PRUNE	1134	1	5	1	n/a	n/a	n/a	n/a	n/a
4663.754	n/a	RECOG_RESP	2331877	n/a	LTP132	ltpFR	0	6	1	PRUNE	1134	1	n/a	1	n/a	n/a	n/a	n/a	n/a
4665.266	n/a	RECOG_CONF	2332633	n/a	LTP132	ltpFR	0	6	1	PRUNE	1134	n/a	5	1	n/a	n/a	n/a	n/a	n/a
4667.066	n/a	RECOG_TARGET	2333533	n/a	LTP132	ltpFR	0	6	1	CHIPMUNK	304	1	5	1	n/a	n/a	n/a	n/a	n/a
4667.706	n/a	RECOG_RESP	2333853	n/a	LTP132	ltpFR	0	6	1	CHIPMUNK	304	1	n/a	1	n/a	n/a	n/a	n/a	n/a
4669.208	n/a	RECOG_CONF	2334604	n/a	LTP132	ltpFR	0	6	1	CHIPMUNK	304	n/a	5	1	n/a	n/a	n/a	n/a	n/a
4670.936	n/a	RECOG_TARGET	2335468	n/a	LTP132	ltpFR	0	6	1	CIRCUS	311	1	5	0	n/a	n/a	n/a	n/a	n/a
4671.602	n/a	RECOG_RESP	2335801	n/a	LTP132	ltpFR	0	6	1	CIRCUS	311	1	n/a	0	n/a	n/a	n/a	n/a	n/a
4673.328	n/a	RECOG_CONF	2336664	n/a	LTP132	ltpFR	0	6	1	CIRCUS	311	n/a	5	0	n/a	n/a	n/a	n/a	n/a
4674.98	n/a	RECOG_TARGET	2337490	n/a	LTP132	ltpFR	0	6	0	FOE	587	1	5	1	n/a	n/a	n/a	n/a	n/a
4675.558	n/a	RECOG_RESP	2337779	n/a	LTP132	ltpFR	0	6	0	FOE	587	1	n/a	1	n/a	n/a	n/a	n/a	n/a
4677.04	n/a	RECOG_CONF	2338520	n/a	LTP132	ltpFR	0	6	0	FOE	587	n/a	5	1	n/a	n/a	n/a	n/a	n/a
4678.768	n/a	RECOG_TARGET	2339384	n/a	LTP132	ltpFR	0	6	0	SIDEWALK	1303	1	5	1	n/a	n/a	n/a	n/a	n/a
4679.484	n/a	RECOG_RESP	2339742	n/a	LTP132	ltpFR	0	6	0	SIDEWALK	1303	1	n/a	1	n/a	n/a	n/a	n/a	n/a
4680.92	n/a	RECOG_CONF	2340460	n/a	LTP132	ltpFR	0	6	0	SIDEWALK	1303	n/a	5	1	n/a	n/a	n/a	n/a	n/a
4682.688	n/a	RECOG_TARGET	2341344	n/a	LTP132	ltpFR	0	6	0	CHEESE	289	1	5	0	n/a	n/a	n/a	n/a	n/a
4683.41	n/a	RECOG_RESP	2341705	n/a	LTP132	ltpFR	0	6	0	CHEESE	289	1	n/a	0	n/a	n/a	n/a	n/a	n/a
4684.95	n/a	RECOG_CONF	2342475	n/a	LTP132	ltpFR	0	6	0	CHEESE	289	n/a	5	0	n/a	n/a	n/a	n/a	n/a
4686.55	n/a	RECOG_LURE	2343275	n/a	LTP132	ltpFR	0	6	n/a	RAISIN	1163	0	2	n/a	n/a	n/a	n/a	n/a	n/a
4687.68	n/a	RECOG_RESP	2343840	n/a	LTP132	ltpFR	0	6	n/a	RAISIN	1163	0	n/a	n/a	n/a	n/a	n/a	n/a	n/a
4689.132	n/a	RECOG_CONF	2344566	n/a	LTP132	ltpFR	0	6	n/a	RAISIN	1163	n/a	2	n/a	n/a	n/a	n/a	n/a	n/a
4690.92	n/a	RECOG_TARGET	2345460	n/a	LTP132	ltpFR	0	6	0	POPCORN	1104	1	5	0	n/a	n/a	n/a	n/a	n/a
4691.522	n/a	RECOG_RESP	2345761	n/a	LTP132	ltpFR	0	6	0	POPCORN	1104	1	n/a	0	n/a	n/a	n/a	n/a	n/a
4692.894	n/a	RECOG_CONF	2346447	n/a	LTP132	ltpFR	0	6	0	POPCORN	1104	n/a	5	0	n/a	n/a	n/a	n/a	n/a
4694.774	n/a	RECOG_TARGET	2347387	n/a	LTP132	ltpFR	0	6	1	BLUEBERRY	140	1	5	1	n/a	n/a	n/a	n/a	n/a
4695.262	n/a	RECOG_RESP	2347631	n/a	LTP132	ltpFR	0	6	1	BLUEBERRY	140	1	n/a	1	n/a	n/a	n/a	n/a	n/a
4696.604	n/a	RECOG_CONF	2348302	n/a	LTP132	ltpFR	0	6	1	BLUEBERRY	140	n/a	5	1	n/a	n/a	n/a	n/a	n/a
4698.462	n/a	RECOG_TARGET	2349231	n/a	LTP132	ltpFR	0	6	0	BUTTON	207	1	4	0	n/a	n/a	n/a	n/a	n/a
4699.04	n/a	RECOG_RESP	2349520	n/a	LTP132	ltpFR	0	6	0	BUTTON	207	1	n/a	0	n/a	n/a	n/a	n/a	n/a
4700.506	n/a	RECOG_CONF	2350253	n/a	LTP132	ltpFR	0	6	0	BUTTON	207	n/a	4	0	n/a	n/a	n/a	n/a	n/a
4702.364	n/a	RECOG_TARGET	2351182	n/a	LTP132	ltpFR	0	6	-1	WRENCH	1625	1	4	-1	n/a	n/a	n/a	n/a	n/a
4703.27	n/a	RECOG_RESP	2351635	n/a	LTP132	ltpFR	0	6	-1	WRENCH	1625	1	n/a	-1	n/a	n/a	n/a	n/a	n/a
4704.688	n/a	RECOG_CONF	2352344	n/a	LTP132	ltpFR	0	6	-1	WRENCH	1625	n/a	4	-1	n/a	n/a	n/a	n/a	n/a
4706.302	n/a	RECOG_TARGET	2353151	n/a	LTP132	ltpFR	0	6	0	TERRITORY	1452	1	5	1	n/a	n/a	n/a	n/a	n/a
4706.992	n/a	RECOG_RESP	2353496	n/a	LTP132	ltpFR	0	6	0	TERRITORY	1452	1	n/a	1	n/a	n/a	n/a	n/a	n/a
4708.37	n/a	RECOG_CONF	2354185	n/a	LTP132	ltpFR	0	6	0	TERRITORY	1452	n/a	5	1	n/a	n/a	n/a	n/a	n/a
4713.494	n/a	REC_START	2356747	n/a	LTP132	ltpFR	0	7	n/a	n/a	n/a	n/a	n/a	n/a	n/a	n/a	n/a	n/a	n/a
4713.52	n/a	RECOG_TARGET	2356760	n/a	LTP132	ltpFR	0	7	0	VEST	1559	1	5	0	n/a	n/a	n/a	n/a	n/a
4714.256	n/a	RECOG_RESP	2357128	n/a	LTP132	ltpFR	0	7	0	VEST	1559	1	n/a	0	n/a	n/a	n/a	n/a	n/a
4715.754	n/a	RECOG_CONF	2357877	n/a	LTP132	ltpFR	0	7	0	VEST	1559	n/a	5	0	n/a	n/a	n/a	n/a	n/a
4717.448	n/a	RECOG_TARGET	2358724	n/a	LTP132	ltpFR	0	7	1	CATCHER	258	1	4	1	n/a	n/a	n/a	n/a	n/a
4718.132	n/a	RECOG_RESP	2359066	n/a	LTP132	ltpFR	0	7	1	CATCHER	258	1	n/a	1	n/a	n/a	n/a	n/a	n/a
4719.654	n/a	RECOG_CONF	2359827	n/a	LTP132	ltpFR	0	7	1	CATCHER	258	n/a	4	1	n/a	n/a	n/a	n/a	n/a
4721.294	n/a	RECOG_TARGET	2360647	n/a	LTP132	ltpFR	0	7	1	CHEMIST	292	1	5	0	n/a	n/a	n/a	n/a	n/a
4721.88	n/a	RECOG_RESP	2360940	n/a	LTP132	ltpFR	0	7	1	CHEMIST	292	1	n/a	0	n/a	n/a	n/a	n/a	n/a
4723.294	n/a	RECOG_CONF	2361647	n/a	LTP132	ltpFR	0	7	1	CHEMIST	292	n/a	5	0	n/a	n/a	n/a	n/a	n/a
4725.016	n/a	RECOG_TARGET	2362508	n/a	LTP132	ltpFR	0	7	1	DANDRUFF	439	1	5	0	n/a	n/a	n/a	n/a	n/a
4725.616	n/a	RECOG_RESP	2362808	n/a	LTP132	ltpFR	0	7	1	DANDRUFF	439	1	n/a	0	n/a	n/a	n/a	n/a	n/a
