mstime	trial_type	stim_file	subject	experiment	session	trial	item_name	item_num	list	answer	test_x	test_y	test_z
0	SESS_START	n/a	LTP334	ltpFR2	11	n/a	n/a	n/a	n/a	n/a	0	0	0
12530	START	n/a	LTP334	ltpFR2	11	n/a	n/a	n/a	-1	n/a	n/a	n/a	n/a
12560	PROB	n/a	LTP334	ltpFR2	11	n/a	n/a	n/a	-1	18	8	1	9
15642	PROB	n/a	LTP334	ltpFR2	11	n/a	n/a	n/a	-1	11	5	2	4
17391	PROB	n/a	LTP334	ltpFR2	11	n/a	n/a	n/a	-1	20	2	9	9
18742	PROB	n/a	LTP334	ltpFR2	11	n/a	n/a	n/a	-1	8	3	2	3
20374	PROB	n/a	LTP334	ltpFR2	11	n/a	n/a	n/a	-1	12	3	3	6
22992	STOP	n/a	LTP334	ltpFR2	11	n/a	n/a	n/a	-1	n/a	n/a	n/a	n/a
52309	WORD	wordpools/wasnorm_wordpool_576.txt	LTP334	ltpFR2	11	1	EMPIRE	530	n/a	n/a	0	0	0
54742	WORD	wordpools/wasnorm_wordpool_576.txt	LTP334	ltpFR2	11	1	BEAVER	109	n/a	n/a	0	0	0
57175	WORD	wordpools/wasnorm_wordpool_576.txt	LTP334	ltpFR2	11	1	OX	994	n/a	n/a	0	0	0
59857	WORD	wordpools/wasnorm_wordpool_576.txt	LTP334	ltpFR2	11	1	NOVEL	960	n/a	n/a	0	0	0
62421	WORD	wordpools/wasnorm_wordpool_576.txt	LTP334	ltpFR2	11	1	FEMALE	559	n/a	n/a	0	0	0
64971	WORD	wordpools/wasnorm_wordpool_576.txt	LTP334	ltpFR2	11	1	PLAID	1080	n/a	n/a	0	0	0
67670	WORD	wordpools/wasnorm_wordpool_576.txt	LTP334	ltpFR2	11	1	JEANS	752	n/a	n/a	0	0	0
70169	WORD	wordpools/wasnorm_wordpool_576.txt	LTP334	ltpFR2	11	1	MUSTARD	935	n/a	n/a	0	0	0
72967	WORD	wordpools/wasnorm_wordpool_576.txt	LTP334	ltpFR2	11	1	LUNCH	849	n/a	n/a	0	0	0
75582	WORD	wordpools/wasnorm_wordpool_576.txt	LTP334	ltpFR2	11	1	DIVER	476	n/a	n/a	0	0	0
78381	WORD	wordpools/wasnorm_wordpool_576.txt	LTP334	ltpFR2	11	1	COBRA	336	n/a	n/a	0	0	0
80914	WORD	wordpools/wasnorm_wordpool_576.txt	LTP334	ltpFR2	11	1	GYMNAST	675	n/a	n/a	0	0	0
83713	WORD	wordpools/wasnorm_wordpool_576.txt	LTP334	ltpFR2	11	1	SWIMMER	1420	n/a	n/a	0	0	0
86145	WORD	wordpools/wasnorm_wordpool_576.txt	LTP334	ltpFR2	11	1	DRESSER	496	n/a	n/a	0	0	0
88894	WORD	wordpools/wasnorm_wordpool_576.txt	LTP334	ltpFR2	11	1	WARDROBE	1587	n/a	n/a	0	0	0
91341	WORD	wordpools/wasnorm_wordpool_576.txt	LTP334	ltpFR2	11	1	MATTRESS	879	n/a	n/a	0	0	0
93975	WORD	wordpools/wasnorm_wordpool_576.txt	LTP334	ltpFR2	11	1	BUNNY	198	n/a	n/a	0	0	0
96522	WORD	wordpools/wasnorm_wordpool_576.txt	LTP334	ltpFR2	11	1	CLOTHES	327	n/a	n/a	0	0	0
98972	WORD	wordpools/wasnorm_wordpool_576.txt	LTP334	ltpFR2	11	1	EYELASH	546	n/a	n/a	0	0	0
101704	WORD	wordpools/wasnorm_wordpool_576.txt	LTP334	ltpFR2	11	1	REPORT	1184	n/a	n/a	0	0	0
104352	WORD	wordpools/wasnorm_wordpool_576.txt	LTP334	ltpFR2	11	1	CURTAIN	427	n/a	n/a	0	0	0
107035	WORD	wordpools/wasnorm_wordpool_576.txt	LTP334	ltpFR2	11	1	SANDWICH	1232	n/a	n/a	0	0	0
109550	WORD	wordpools/wasnorm_wordpool_576.txt	LTP334	ltpFR2	11	1	LODGE	839	n/a	n/a	0	0	0
112182	WORD	wordpools/wasnorm_wordpool_576.txt	LTP334	ltpFR2	11	1	AUTHOR	61	n/a	n/a	0	0	0
113799	START	n/a	LTP334	ltpFR2	11	n/a	n/a	n/a	1	n/a	n/a	n/a	n/a
114803	DISTRACTOR	n/a	LTP334	ltpFR2	11	1	n/a	n/a	n/a	n/a	0	0	0
114815	PROB	n/a	LTP334	ltpFR2	11	n/a	n/a	n/a	1	7	3	1	3
116263	PROB	n/a	LTP334	ltpFR2	11	n/a	n/a	n/a	1	19	6	6	7
118697	PROB	n/a	LTP334	ltpFR2	11	n/a	n/a	n/a	1	23	9	5	9
120212	PROB	n/a	LTP334	ltpFR2	11	n/a	n/a	n/a	1	4	2	1	1
121211	PROB	n/a	LTP334	ltpFR2	11	n/a	n/a	n/a	1	8	1	6	1
122377	PROB	n/a	LTP334	ltpFR2	11	n/a	n/a	n/a	1	14	4	9	1
123711	PROB	n/a	LTP334	ltpFR2	11	n/a	n/a	n/a	1	17	6	5	6
125343	PROB	n/a	LTP334	ltpFR2	11	n/a	n/a	n/a	1	17	9	5	3
127242	PROB	n/a	LTP334	ltpFR2	11	n/a	n/a	n/a	1	19	7	9	3
128792	PROB	n/a	LTP334	ltpFR2	11	n/a	n/a	n/a	1	15	1	7	7
130141	PROB	n/a	LTP334	ltpFR2	11	n/a	n/a	n/a	1	12	1	3	8
131623	PROB	n/a	LTP334	ltpFR2	11	n/a	n/a	n/a	1	15	2	6	7
133040	PROB	n/a	LTP334	ltpFR2	11	n/a	n/a	n/a	1	14	5	1	8
134622	PROB	n/a	LTP334	ltpFR2	11	n/a	n/a	n/a	1	19	9	4	6
136306	STOP	n/a	LTP334	ltpFR2	11	n/a	n/a	n/a	1	n/a	n/a	n/a	n/a
139704	REC_START	n/a	LTP334	ltpFR2	11	1	n/a	n/a	n/a	n/a	0	0	0
140300	REC_WORD	wordpools/wasnorm_wordpool_576.txt	LTP334	ltpFR2	11	1	COBRA	336	n/a	n/a	0	0	0
141156	REC_WORD	wordpools/wasnorm_wordpool_576.txt	LTP334	ltpFR2	11	1	BUNNY	198	n/a	n/a	0	0	0
141889	REC_WORD	wordpools/wasnorm_wordpool_576.txt	LTP334	ltpFR2	11	1	BEAVER	109	n/a	n/a	0	0	0
142557	REC_WORD	wordpools/wasnorm_wordpool_576.txt	LTP334	ltpFR2	11	1	EMPIRE	530	n/a	n/a	0	0	0
143271	REC_WORD	wordpools/wasnorm_wordpool_576.txt	LTP334	ltpFR2	11	1	FEMALE	559	n/a	n/a	0	0	0
144178	REC_WORD	wordpools/wasnorm_wordpool_576.txt	LTP334	ltpFR2	11	1	EYELASH	546	n/a	n/a	0	0	0
144870	REC_WORD	wordpools/wasnorm_wordpool_576.txt	LTP334	ltpFR2	11	1	MATTRESS	879	n/a	n/a	0	0	0
145603	REC_WORD	wordpools/wasnorm_wordpool_576.txt	LTP334	ltpFR2	11	1	LODGE	839	n/a	n/a	0	0	0
146364	REC_WORD	wordpools/wasnorm_wordpool_576.txt	LTP334	ltpFR2	11	1	CURTAIN	427	n/a	n/a	0	0	0
147497	REC_WORD	wordpools/wasnorm_wordpool_576.txt	LTP334	ltpFR2	11	1	SWIMMER	1420	n/a	n/a	0	0	0
148348	REC_WORD	wordpools/wasnorm_wordpool_576.txt	LTP334	ltpFR2	11	1	DIVER	476	n/a	n/a	0	0	0
149046	REC_WORD	wordpools/wasnorm_wordpool_576.txt	LTP334	ltpFR2	11	1	GYMNAST	675	n/a	n/a	0	0	0
150047	REC_WORD	wordpools/wasnorm_wordpool_576.txt	LTP334	ltpFR2	11	1	WARDROBE	1587	n/a	n/a	0	0	0
150936	REC_WORD	wordpools/wasnorm_wordpool_576.txt	LTP334	ltpFR2	11	1	CLOTHES	327	n/a	n/a	0	0	0
151746	REC_WORD	wordpools/wasnorm_wordpool_576.txt	LTP334	ltpFR2	11	1	DRESSER	496	n/a	n/a	0	0	0
152907	REC_WORD	wordpools/wasnorm_wordpool_576.txt	LTP334	ltpFR2	11	1	MUSTARD	935	n/a	n/a	0	0	0
153579	REC_WORD	wordpools/wasnorm_wordpool_576.txt	LTP334	ltpFR2	11	1	SANDWICH	1232	n/a	n/a	0	0	0
154758	REC_WORD	wordpools/wasnorm_wordpool_576.txt	LTP334	ltpFR2	11	1	LUNCH	849	n/a	n/a	0	0	0
159454	REC_WORD	wordpools/wasnorm_wordpool_576.txt	LTP334	ltpFR2	11	1	REPORT	1184	n/a	n/a	0	0	0
160202	REC_WORD	wordpools/wasnorm_wordpool_576.txt	LTP334	ltpFR2	11	1	AUTHOR	61	n/a	n/a	0	0	0
230146	DISTRACTOR	n/a	LTP334	ltpFR2	11	2	n/a	n/a	n/a	n/a	0	0	0
230146	START	n/a	LTP334	ltpFR2	11	n/a	n/a	n/a	2	n/a	n/a	n/a	n/a
230163	PROB	n/a	LTP334	ltpFR2	11	n/a	n/a	n/a	2	13	1	7	5
231745	PROB	n/a	LTP334	ltpFR2	11	n/a	n/a	n/a	2	16	9	3	4
233177	PROB	n/a	LTP334	ltpFR2	11	n/a	n/a	n/a	2	3	1	1	1
234493	PROB	n/a	LTP334	ltpFR2	11	n/a	n/a	n/a	2	15	3	3	9
235994	PROB	n/a	LTP334	ltpFR2	11	n/a	n/a	n/a	2	11	2	8	1
237175	PROB	n/a	LTP334	ltpFR2	11	n/a	n/a	n/a	2	18	6	5	7
239324	PROB	n/a	LTP334	ltpFR2	11	n/a	n/a	n/a	2	12	2	3	7
240808	PROB	n/a	LTP334	ltpFR2	11	n/a	n/a	n/a	2	22	9	5	8
243157	PROB	n/a	LTP334	ltpFR2	11	n/a	n/a	n/a	2	6	2	2	2
244157	PROB	n/a	LTP334	ltpFR2	11	n/a	n/a	n/a	2	15	4	3	8
245522	PROB	n/a	LTP334	ltpFR2	11	n/a	n/a	n/a	2	13	2	3	8
246939	PROB	n/a	LTP334	ltpFR2	11	n/a	n/a	n/a	2	6	2	1	3
248554	PROB	n/a	LTP334	ltpFR2	11	n/a	n/a	n/a	2	11	6	1	4
249787	PROB	n/a	LTP334	ltpFR2	11	n/a	n/a	n/a	2	17	7	2	8
251252	PROB	n/a	LTP334	ltpFR2	11	n/a	n/a	n/a	2	12	2	1	9
253286	STOP	n/a	LTP334	ltpFR2	11	n/a	n/a	n/a	2	n/a	n/a	n/a	n/a
255035	WORD	wordpools/wasnorm_wordpool_576.txt	LTP334	ltpFR2	11	2	BEEF	113	n/a	n/a	0	0	0
257667	WORD	wordpools/wasnorm_wordpool_576.txt	LTP334	ltpFR2	11	2	DOLPHIN	483	n/a	n/a	0	0	0
260448	WORD	wordpools/wasnorm_wordpool_576.txt	LTP334	ltpFR2	11	2	SALAD	1224	n/a	n/a	0	0	0
263165	WORD	wordpools/wasnorm_wordpool_576.txt	LTP334	ltpFR2	11	2	HELMET	702	n/a	n/a	0	0	0
265947	WORD	wordpools/wasnorm_wordpool_576.txt	LTP334	ltpFR2	11	2	UNCLE	1536	n/a	n/a	0	0	0
268745	WORD	wordpools/wasnorm_wordpool_576.txt	LTP334	ltpFR2	11	2	BLADE	134	n/a	n/a	0	0	0
271510	WORD	wordpools/wasnorm_wordpool_576.txt	LTP334	ltpFR2	11	2	HATCHET	691	n/a	n/a	0	0	0
274126	WORD	wordpools/wasnorm_wordpool_576.txt	LTP334	ltpFR2	11	2	BEAKER	104	n/a	n/a	0	0	0
276708	WORD	wordpools/wasnorm_wordpool_576.txt	LTP334	ltpFR2	11	2	TEACHER	1440	n/a	n/a	0	0	0
279174	WORD	wordpools/wasnorm_wordpool_576.txt	LTP334	ltpFR2	11	2	RECORD	1176	n/a	n/a	0	0	0
281856	WORD	wordpools/wasnorm_wordpool_576.txt	LTP334	ltpFR2	11	2	SURVEY	1414	n/a	n/a	0	0	0
284621	WORD	wordpools/wasnorm_wordpool_576.txt	LTP334	ltpFR2	11	2	WASHER	1592	n/a	n/a	0	0	0
287336	WORD	wordpools/wasnorm_wordpool_576.txt	LTP334	ltpFR2	11	2	PEDAL	1037	n/a	n/a	0	0	0
289836	WORD	wordpools/wasnorm_wordpool_576.txt	LTP334	ltpFR2	11	2	PICTURE	1061	n/a	n/a	0	0	0
292634	WORD	wordpools/wasnorm_wordpool_576.txt	LTP334	ltpFR2	11	2	PAPER	1011	n/a	n/a	0	0	0
295133	WORD	wordpools/wasnorm_wordpool_576.txt	LTP334	ltpFR2	11	2	SCALPEL	1243	n/a	n/a	0	0	0
297949	WORD	wordpools/wasnorm_wordpool_576.txt	LTP334	ltpFR2	11	2	NURSE	963	n/a	n/a	0	0	0
300430	WORD	wordpools/wasnorm_wordpool_576.txt	LTP334	ltpFR2	11	2	POISON	1096	n/a	n/a	0	0	0
303097	WORD	wordpools/wasnorm_wordpool_576.txt	LTP334	ltpFR2	11	2	GIRL	637	n/a	n/a	0	0	0
305812	WORD	wordpools/wasnorm_wordpool_576.txt	LTP334	ltpFR2	11	2	PARTNER	1017	n/a	n/a	0	0	0
308327	WORD	wordpools/wasnorm_wordpool_576.txt	LTP334	ltpFR2	11	2	SUITCASE	1403	n/a	n/a	0	0	0
310793	WORD	wordpools/wasnorm_wordpool_576.txt	LTP334	ltpFR2	11	2	POSSUM	1112	n/a	n/a	0	0	0
313457	WORD	wordpools/wasnorm_wordpool_576.txt	LTP334	ltpFR2	11	2	CORAL	378	n/a	n/a	0	0	0
316273	WORD	wordpools/wasnorm_wordpool_576.txt	LTP334	ltpFR2	11	2	PILOT	1070	n/a	n/a	0	0	0
317890	START	n/a	LTP334	ltpFR2	11	n/a	n/a	n/a	3	n/a	n/a	n/a	n/a
318770	DISTRACTOR	n/a	LTP334	ltpFR2	11	2	n/a	n/a	n/a	n/a	0	0	0
318773	PROB	n/a	LTP334	ltpFR2	11	n/a	n/a	n/a	3	11	3	7	1
319889	PROB	n/a	LTP334	ltpFR2	11	n/a	n/a	n/a	3	14	7	4	3
321771	PROB	n/a	LTP334	ltpFR2	11	n/a	n/a	n/a	3	13	1	4	8
323303	PROB	n/a	LTP334	ltpFR2	11	n/a	n/a	n/a	3	17	8	5	4
325452	PROB	n/a	LTP334	ltpFR2	11	n/a	n/a	n/a	3	19	9	2	8
327052	PROB	n/a	LTP334	ltpFR2	11	n/a	n/a	n/a	3	13	6	2	5
328551	PROB	n/a	LTP334	ltpFR2	11	n/a	n/a	n/a	3	11	7	3	1
329600	PROB	n/a	LTP334	ltpFR2	11	n/a	n/a	n/a	3	17	4	6	7
331216	PROB	n/a	LTP334	ltpFR2	11	n/a	n/a	n/a	3	18	7	7	4
332966	PROB	n/a	LTP334	ltpFR2	11	n/a	n/a	n/a	3	13	8	3	2
334381	PROB	n/a	LTP334	ltpFR2	11	n/a	n/a	n/a	3	14	7	1	6
335882	PROB	n/a	LTP334	ltpFR2	11	n/a	n/a	n/a	3	24	7	8	9
337814	PROB	n/a	LTP334	ltpFR2	11	n/a	n/a	n/a	3	11	2	2	7
339114	PROB	n/a	LTP334	ltpFR2	11	n/a	n/a	n/a	3	15	1	5	9
340401	STOP	n/a	LTP334	ltpFR2	11	n/a	n/a	n/a	3	n/a	n/a	n/a	n/a
343644	REC_START	n/a	LTP334	ltpFR2	11	2	n/a	n/a	n/a	n/a	0	0	0
344938	REC_WORD	wordpools/wasnorm_wordpool_576.txt	LTP334	ltpFR2	11	2	BEEF	113	n/a	n/a	0	0	0
345568	REC_WORD	wordpools/wasnorm_wordpool_576.txt	LTP334	ltpFR2	11	2	SALAD	1224	n/a	n/a	0	0	0
347113	REC_WORD	wordpools/wasnorm_wordpool_576.txt	LTP334	ltpFR2	11	2	DOLPHIN	483	n/a	n/a	0	0	0
347953	REC_WORD	wordpools/wasnorm_wordpool_576.txt	LTP334	ltpFR2	11	2	BLADE	134	n/a	n/a	0	0	0
348448	REC_WORD	wordpools/wasnorm_wordpool_576.txt	LTP334	ltpFR2	11	2	HATCHET	691	n/a	n/a	0	0	0
349148	REC_WORD	wordpools/wasnorm_wordpool_576.txt	LTP334	ltpFR2	11	2	SCALPEL	1243	n/a	n/a	0	0	0
350236	REC_WORD	wordpools/wasnorm_wordpool_576.txt	LTP334	ltpFR2	11	2	BEAKER	104	n/a	n/a	0	0	0
351375	REC_WORD	wordpools/wasnorm_wordpool_576.txt	LTP334	ltpFR2	11	2	POISON	1096	n/a	n/a	0	0	0
352272	REC_WORD	wordpools/wasnorm_wordpool_576.txt	LTP334	ltpFR2	11	2	TEACHER	1440	n/a	n/a	0	0	0
353039	REC_WORD	wordpools/wasnorm_wordpool_576.txt	LTP334	ltpFR2	11	2	NURSE	963	n/a	n/a	0	0	0
354778	REC_WORD	wordpools/wasnorm_wordpool_576.txt	LTP334	ltpFR2	11	2	PILOT	1070	n/a	n/a	0	0	0
360450	REC_WORD	wordpools/wasnorm_wordpool_576.txt	LTP334	ltpFR2	11	2	RECORD	1176	n/a	n/a	0	0	0
361107	REC_WORD	wordpools/wasnorm_wordpool_576.txt	LTP334	ltpFR2	11	2	SURVEY	1414	n/a	n/a	0	0	0
362818	REC_WORD	wordpools/wasnorm_wordpool_576.txt	LTP334	ltpFR2	11	2	WASHER	1592	n/a	n/a	0	0	0
383430	REC_WORD	wordpools/wasnorm_wordpool_576.txt	LTP334	ltpFR2	11	2	SUITCASE	1403	n/a	n/a	0	0	0
384364	REC_WORD	wordpools/wasnorm_wordpool_576.txt	LTP334	ltpFR2	11	2	CORAL	378	n/a	n/a	0	0	0
385450	REC_WORD	wordpools/wasnorm_wordpool_576.txt	LTP334	ltpFR2	11	2	GIRL	637	n/a	n/a	0	0	0
386030	REC_WORD	wordpools/wasnorm_wordpool_576.txt	LTP334	ltpFR2	11	2	PARTNER	1017	n/a	n/a	0	0	0
393001	REC_WORD	wordpools/wasnorm_wordpool_576.txt	LTP334	ltpFR2	11	2	BLADE	134	n/a	n/a	0	0	0
393284	REC_WORD	wordpools/wasnorm_wordpool_576.txt	LTP334	ltpFR2	11	2	HATCHET	691	n/a	n/a	0	0	0
393699	REC_WORD	wordpools/wasnorm_wordpool_576.txt	LTP334	ltpFR2	11	2	SCALPEL	1243	n/a	n/a	0	0	0
404399	REC_WORD	wordpools/wasnorm_wordpool_576.txt	LTP334	ltpFR2	11	2	POSSUM	1112	n/a	n/a	0	0	0
434104	WORD	wordpools/wasnorm_wordpool_576.txt	LTP334	ltpFR2	11	3	DAISY	435	n/a	n/a	0	0	0
436753	WORD	wordpools/wasnorm_wordpool_576.txt	LTP334	ltpFR2	11	3	LIVER	833	n/a	n/a	0	0	0
439584	WORD	wordpools/wasnorm_wordpool_576.txt	LTP334	ltpFR2	11	3	SLIME	1327	n/a	n/a	0	0	0
442249	WORD	wordpools/wasnorm_wordpool_576.txt	LTP334	ltpFR2	11	3	CONCERT	360	n/a	n/a	0	0	0
444899	WORD	wordpools/wasnorm_wordpool_576.txt	LTP334	ltpFR2	11	3	SERVER	1272	n/a	n/a	0	0	0
447613	WORD	wordpools/wasnorm_wordpool_576.txt	LTP334	ltpFR2	11	3	BOARD	143	n/a	n/a	0	0	0
450196	WORD	wordpools/wasnorm_wordpool_576.txt	LTP334	ltpFR2	11	3	ROOSTER	1209	n/a	n/a	0	0	0
452745	WORD	wordpools/wasnorm_wordpool_576.txt	LTP334	ltpFR2	11	3	GIFT	635	n/a	n/a	0	0	0
455161	WORD	wordpools/wasnorm_wordpool_576.txt	LTP334	ltpFR2	11	3	CARRIAGE	248	n/a	n/a	0	0	0
457693	WORD	wordpools/wasnorm_wordpool_576.txt	LTP334	ltpFR2	11	3	BUGGY	188	n/a	n/a	0	0	0
460508	WORD	wordpools/wasnorm_wordpool_576.txt	LTP334	ltpFR2	11	3	NOTEBOOK	959	n/a	n/a	0	0	0
463107	WORD	wordpools/wasnorm_wordpool_576.txt	LTP334	ltpFR2	11	3	PARENT	1013	n/a	n/a	0	0	0
465923	WORD	wordpools/wasnorm_wordpool_576.txt	LTP334	ltpFR2	11	3	CHILD	299	n/a	n/a	0	0	0
468354	WORD	wordpools/wasnorm_wordpool_576.txt	LTP334	ltpFR2	11	3	PEBBLE	1035	n/a	n/a	0	0	0
470887	WORD	wordpools/wasnorm_wordpool_576.txt	LTP334	ltpFR2	11	3	COMPASS	358	n/a	n/a	0	0	0
473418	WORD	wordpools/wasnorm_wordpool_576.txt	LTP334	ltpFR2	11	3	SPACE	1345	n/a	n/a	0	0	0
476152	WORD	wordpools/wasnorm_wordpool_576.txt	LTP334	ltpFR2	11	3	CREVICE	405	n/a	n/a	0	0	0
478667	WORD	wordpools/wasnorm_wordpool_576.txt	LTP334	ltpFR2	11	3	PACKAGE	997	n/a	n/a	0	0	0
481348	WORD	wordpools/wasnorm_wordpool_576.txt	LTP334	ltpFR2	11	3	BODY	145	n/a	n/a	0	0	0
484015	WORD	wordpools/wasnorm_wordpool_576.txt	LTP334	ltpFR2	11	3	POSTAGE	1113	n/a	n/a	0	0	0
486713	WORD	wordpools/wasnorm_wordpool_576.txt	LTP334	ltpFR2	11	3	NAPKIN	937	n/a	n/a	0	0	0
489494	WORD	wordpools/wasnorm_wordpool_576.txt	LTP334	ltpFR2	11	3	TART	1436	n/a	n/a	0	0	0
492161	WORD	wordpools/wasnorm_wordpool_576.txt	LTP334	ltpFR2	11	3	AWARD	63	n/a	n/a	0	0	0
494710	WORD	wordpools/wasnorm_wordpool_576.txt	LTP334	ltpFR2	11	3	BULLET	194	n/a	n/a	0	0	0
496325	START	n/a	LTP334	ltpFR2	11	n/a	n/a	n/a	4	n/a	n/a	n/a	n/a
497230	DISTRACTOR	n/a	LTP334	ltpFR2	11	3	n/a	n/a	n/a	n/a	0	0	0
497241	PROB	n/a	LTP334	ltpFR2	11	n/a	n/a	n/a	4	23	9	6	8
499240	PROB	n/a	LTP334	ltpFR2	11	n/a	n/a	n/a	4	19	3	7	9
500523	PROB	n/a	LTP334	ltpFR2	11	n/a	n/a	n/a	4	16	7	4	5
501940	PROB	n/a	LTP334	ltpFR2	11	n/a	n/a	n/a	4	22	8	6	7
504188	PROB	n/a	LTP334	ltpFR2	11	n/a	n/a	n/a	4	7	3	3	1
505537	PROB	n/a	LTP334	ltpFR2	11	n/a	n/a	n/a	4	16	5	8	3
507320	PROB	n/a	LTP334	ltpFR2	11	n/a	n/a	n/a	4	14	5	4	5
509352	PROB	n/a	LTP334	ltpFR2	11	n/a	n/a	n/a	4	11	3	5	3
510819	PROB	n/a	LTP334	ltpFR2	11	n/a	n/a	n/a	4	13	1	6	6
513400	PROB	n/a	LTP334	ltpFR2	11	n/a	n/a	n/a	4	17	8	7	2
515167	PROB	n/a	LTP334	ltpFR2	11	n/a	n/a	n/a	4	16	5	6	5
516549	PROB	n/a	LTP334	ltpFR2	11	n/a	n/a	n/a	4	16	4	4	8
517949	PROB	n/a	LTP334	ltpFR2	11	n/a	n/a	n/a	4	17	1	8	8
519358	STOP	n/a	LTP334	ltpFR2	11	n/a	n/a	n/a	4	n/a	n/a	n/a	n/a
522180	REC_START	n/a	LTP334	ltpFR2	11	3	n/a	n/a	n/a	n/a	0	0	0
523988	REC_WORD	wordpools/wasnorm_wordpool_576.txt	LTP334	ltpFR2	11	3	SLIME	1327	n/a	n/a	0	0	0
524990	REC_WORD	wordpools/wasnorm_wordpool_576.txt	LTP334	ltpFR2	11	3	LIVER	833	n/a	n/a	0	0	0
528362	REC_WORD	wordpools/wasnorm_wordpool_576.txt	LTP334	ltpFR2	11	3	CARRIAGE	248	n/a	n/a	0	0	0
529136	REC_WORD	wordpools/wasnorm_wordpool_576.txt	LTP334	ltpFR2	11	3	BUGGY	188	n/a	n/a	0	0	0
529707	REC_WORD	wordpools/wasnorm_wordpool_576.txt	LTP334	ltpFR2	11	3	NOTEBOOK	959	n/a	n/a	0	0	0
532077	REC_WORD	wordpools/wasnorm_wordpool_576.txt	LTP334	ltpFR2	11	3	GIFT	635	n/a	n/a	0	0	0
532735	REC_WORD	wordpools/wasnorm_wordpool_576.txt	LTP334	ltpFR2	11	3	PACKAGE	997	n/a	n/a	0	0	0
533621	REC_WORD	wordpools/wasnorm_wordpool_576.txt	LTP334	ltpFR2	11	3	POSTAGE	1113	n/a	n/a	0	0	0
536443	REC_WORD	wordpools/wasnorm_wordpool_576.txt	LTP334	ltpFR2	11	3	BOX	159	n/a	n/a	0	0	0
612639	WORD	wordpools/wasnorm_wordpool_576.txt	LTP334	ltpFR2	11	4	SERVANT	1271	n/a	n/a	0	0	0
615072	WORD	wordpools/wasnorm_wordpool_576.txt	LTP334	ltpFR2	11	4	COWBOY	395	n/a	n/a	0	0	0
617854	WORD	wordpools/wasnorm_wordpool_576.txt	LTP334	ltpFR2	11	4	ATLAS	53	n/a	n/a	0	0	0
620535	WORD	wordpools/wasnorm_wordpool_576.txt	LTP334	ltpFR2	11	4	GROUND	666	n/a	n/a	0	0	0
623334	WORD	wordpools/wasnorm_wordpool_576.txt	LTP334	ltpFR2	11	4	SCULPTURE	1258	n/a	n/a	0	0	0
626067	WORD	wordpools/wasnorm_wordpool_576.txt	LTP334	ltpFR2	11	4	HORNET	718	n/a	n/a	0	0	0
628648	WORD	wordpools/wasnorm_wordpool_576.txt	LTP334	ltpFR2	11	4	HONEY	713	n/a	n/a	0	0	0
631165	WORD	wordpools/wasnorm_wordpool_576.txt	LTP334	ltpFR2	11	4	PIZZA	1079	n/a	n/a	0	0	0
633697	WORD	wordpools/wasnorm_wordpool_576.txt	LTP334	ltpFR2	11	4	GREASE	660	n/a	n/a	0	0	0
636311	WORD	wordpools/wasnorm_wordpool_576.txt	LTP334	ltpFR2	11	4	ULCER	1533	n/a	n/a	0	0	0
638944	WORD	wordpools/wasnorm_wordpool_576.txt	LTP334	ltpFR2	11	4	KNAPSACK	783	n/a	n/a	0	0	0
641409	WORD	wordpools/wasnorm_wordpool_576.txt	LTP334	ltpFR2	11	4	CRITIC	410	n/a	n/a	0	0	0
644109	WORD	wordpools/wasnorm_wordpool_576.txt	LTP334	ltpFR2	11	4	SLOPE	1328	n/a	n/a	0	0	0
646640	WORD	wordpools/wasnorm_wordpool_576.txt	LTP334	ltpFR2	11	4	SUMMIT	1405	n/a	n/a	0	0	0
649239	WORD	wordpools/wasnorm_wordpool_576.txt	LTP334	ltpFR2	11	4	FLAG	573	n/a	n/a	0	0	0
651822	WORD	wordpools/wasnorm_wordpool_576.txt	LTP334	ltpFR2	11	4	KEEPER	769	n/a	n/a	0	0	0
654503	WORD	wordpools/wasnorm_wordpool_576.txt	LTP334	ltpFR2	11	4	LIPSTICK	829	n/a	n/a	0	0	0
657319	WORD	wordpools/wasnorm_wordpool_576.txt	LTP334	ltpFR2	11	4	BANQUET	86	n/a	n/a	0	0	0
660002	WORD	wordpools/wasnorm_wordpool_576.txt	LTP334	ltpFR2	11	4	STOMACH	1384	n/a	n/a	0	0	0
662817	WORD	wordpools/wasnorm_wordpool_576.txt	LTP334	ltpFR2	11	4	HEADBAND	696	n/a	n/a	0	0	0
665315	WORD	wordpools/wasnorm_wordpool_576.txt	LTP334	ltpFR2	11	4	TROMBONE	1508	n/a	n/a	0	0	0
668115	WORD	wordpools/wasnorm_wordpool_576.txt	LTP334	ltpFR2	11	4	PEPPER	1047	n/a	n/a	0	0	0
670763	WORD	wordpools/wasnorm_wordpool_576.txt	LTP334	ltpFR2	11	4	BELLY	119	n/a	n/a	0	0	0
673578	WORD	wordpools/wasnorm_wordpool_576.txt	LTP334	ltpFR2	11	4	SKETCH	1315	n/a	n/a	0	0	0
675194	START	n/a	LTP334	ltpFR2	11	n/a	n/a	n/a	5	n/a	n/a	n/a	n/a
676112	DISTRACTOR	n/a	LTP334	ltpFR2	11	4	n/a	n/a	n/a	n/a	0	0	0
676128	PROB	n/a	LTP334	ltpFR2	11	n/a	n/a	n/a	5	9	4	2	3
678127	PROB	n/a	LTP334	ltpFR2	11	n/a	n/a	n/a	5	12	3	1	8
679693	PROB	n/a	LTP334	ltpFR2	11	n/a	n/a	n/a	5	17	9	7	1
681675	PROB	n/a	LTP334	ltpFR2	11	n/a	n/a	n/a	5	117	6	3	8
683523	PROB	n/a	LTP334	ltpFR2	11	n/a	n/a	n/a	5	19	7	4	8
685074	PROB	n/a	LTP334	ltpFR2	11	n/a	n/a	n/a	5	13	6	1	6
686372	PROB	n/a	LTP334	ltpFR2	11	n/a	n/a	n/a	5	18	5	9	4
688488	PROB	n/a	LTP334	ltpFR2	11	n/a	n/a	n/a	5	19	9	1	9
690121	PROB	n/a	LTP334	ltpFR2	11	n/a	n/a	n/a	5	22	9	9	4
691804	PROB	n/a	LTP334	ltpFR2	11	n/a	n/a	n/a	5	12	1	5	6
693402	PROB	n/a	LTP334	ltpFR2	11	n/a	n/a	n/a	5	17	5	8	4
695451	PROB	n/a	LTP334	ltpFR2	11	n/a	n/a	n/a	5	15	1	6	8
697434	PROB	n/a	LTP334	ltpFR2	11	n/a	n/a	n/a	5	27	9	9	9
698885	STOP	n/a	LTP334	ltpFR2	11	n/a	n/a	n/a	5	n/a	n/a	n/a	n/a
701100	REC_START	n/a	LTP334	ltpFR2	11	4	n/a	n/a	n/a	n/a	0	0	0
702027	REC_WORD	wordpools/wasnorm_wordpool_576.txt	LTP334	ltpFR2	11	4	HORNET	718	n/a	n/a	0	0	0
702598	REC_WORD	wordpools/wasnorm_wordpool_576.txt	LTP334	ltpFR2	11	4	HONEY	713	n/a	n/a	0	0	0
703357	REC_WORD	wordpools/wasnorm_wordpool_576.txt	LTP334	ltpFR2	11	4	PIZZA	1079	n/a	n/a	0	0	0
704115	REC_WORD	wordpools/wasnorm_wordpool_576.txt	LTP334	ltpFR2	11	4	GREASE	660	n/a	n/a	0	0	0
704678	REC_WORD	wordpools/wasnorm_wordpool_576.txt	LTP334	ltpFR2	11	4	SALT	1229	n/a	n/a	0	0	0
705392	REC_WORD	wordpools/wasnorm_wordpool_576.txt	LTP334	ltpFR2	11	4	BANQUET	86	n/a	n/a	0	0	0
706768	REC_WORD	wordpools/wasnorm_wordpool_576.txt	LTP334	ltpFR2	11	4	BELLY	119	n/a	n/a	0	0	0
707191	REC_WORD	wordpools/wasnorm_wordpool_576.txt	LTP334	ltpFR2	11	4	STOMACH	1384	n/a	n/a	0	0	0
708135	REC_WORD	wordpools/wasnorm_wordpool_576.txt	LTP334	ltpFR2	11	4	ULCER	1533	n/a	n/a	0	0	0
708914	REC_WORD	wordpools/wasnorm_wordpool_576.txt	LTP334	ltpFR2	11	4	KEEPER	769	n/a	n/a	0	0	0
710990	REC_WORD	wordpools/wasnorm_wordpool_576.txt	LTP334	ltpFR2	11	4	COWBOY	395	n/a	n/a	0	0	0
711632	REC_WORD	wordpools/wasnorm_wordpool_576.txt	LTP334	ltpFR2	11	4	HEADBAND	696	n/a	n/a	0	0	0
713160	REC_WORD	wordpools/wasnorm_wordpool_576.txt	LTP334	ltpFR2	11	4	SERVANT	1271	n/a	n/a	0	0	0
713956	REC_WORD	wordpools/wasnorm_wordpool_576.txt	LTP334	ltpFR2	11	4	GROUND	666	n/a	n/a	0	0	0
714637	REC_WORD	wordpools/wasnorm_wordpool_576.txt	LTP334	ltpFR2	11	4	ATLAS	53	n/a	n/a	0	0	0
715382	REC_WORD	wordpools/wasnorm_wordpool_576.txt	LTP334	ltpFR2	11	4	LIPSTICK	829	n/a	n/a	0	0	0
718348	REC_WORD	wordpools/wasnorm_wordpool_576.txt	LTP334	ltpFR2	11	4	CRITIC	410	n/a	n/a	0	0	0
719012	REC_WORD	wordpools/wasnorm_wordpool_576.txt	LTP334	ltpFR2	11	4	SLOPE	1328	n/a	n/a	0	0	0
719587	REC_WORD	wordpools/wasnorm_wordpool_576.txt	LTP334	ltpFR2	11	4	SUMMIT	1405	n/a	n/a	0	0	0
720165	REC_WORD	wordpools/wasnorm_wordpool_576.txt	LTP334	ltpFR2	11	4	FLAG	573	n/a	n/a	0	0	0
791541	DISTRACTOR	n/a	LTP334	ltpFR2	11	5	n/a	n/a	n/a	n/a	0	0	0
791541	START	n/a	LTP334	ltpFR2	11	n/a	n/a	n/a	6	n/a	n/a	n/a	n/a
791558	PROB	n/a	LTP334	ltpFR2	11	n/a	n/a	n/a	6	13	1	2	9
792975	PROB	n/a	LTP334	ltpFR2	11	n/a	n/a	n/a	6	19	3	8	8
794590	PROB	n/a	LTP334	ltpFR2	11	n/a	n/a	n/a	6	10	1	4	5
795973	PROB	n/a	LTP334	ltpFR2	11	n/a	n/a	n/a	6	11	2	7	2
797255	PROB	n/a	LTP334	ltpFR2	11	n/a	n/a	n/a	6	10	1	4	5
798438	PROB	n/a	LTP334	ltpFR2	11	n/a	n/a	n/a	6	12	8	1	3
799972	PROB	n/a	LTP334	ltpFR2	11	n/a	n/a	n/a	6	16	7	2	7
801420	PROB	n/a	LTP334	ltpFR2	11	n/a	n/a	n/a	6	19	5	8	6
803703	PROB	n/a	LTP334	ltpFR2	11	n/a	n/a	n/a	6	11	4	2	5
805451	PROB	n/a	LTP334	ltpFR2	11	n/a	n/a	n/a	6	15	6	4	5
806634	PROB	n/a	LTP334	ltpFR2	11	n/a	n/a	n/a	6	16	5	2	7
810566	PROB	n/a	LTP334	ltpFR2	11	n/a	n/a	n/a	6	13	3	5	5
811783	PROB	n/a	LTP334	ltpFR2	11	n/a	n/a	n/a	6	15	5	3	7
813598	PROB	n/a	LTP334	ltpFR2	11	n/a	n/a	n/a	6	18	4	5	9
814953	STOP	n/a	LTP334	ltpFR2	11	n/a	n/a	n/a	6	n/a	n/a	n/a	n/a
816363	WORD	wordpools/wasnorm_wordpool_576.txt	LTP334	ltpFR2	11	5	CAPTIVE	240	n/a	n/a	0	0	0
819179	WORD	wordpools/wasnorm_wordpool_576.txt	LTP334	ltpFR2	11	5	DOUGHNUT	490	n/a	n/a	0	0	0
821762	WORD	wordpools/wasnorm_wordpool_576.txt	LTP334	ltpFR2	11	5	SALT	1229	n/a	n/a	0	0	0
824226	WORD	wordpools/wasnorm_wordpool_576.txt	LTP334	ltpFR2	11	5	LOVER	846	n/a	n/a	0	0	0
826726	WORD	wordpools/wasnorm_wordpool_576.txt	LTP334	ltpFR2	11	5	SPHINX	1349	n/a	n/a	0	0	0
829191	WORD	wordpools/wasnorm_wordpool_576.txt	LTP334	ltpFR2	11	5	COLONEL	348	n/a	n/a	0	0	0
831757	WORD	wordpools/wasnorm_wordpool_576.txt	LTP334	ltpFR2	11	5	LAGOON	795	n/a	n/a	0	0	0
834422	WORD	wordpools/wasnorm_wordpool_576.txt	LTP334	ltpFR2	11	5	PATIENT	1024	n/a	n/a	0	0	0
837220	WORD	wordpools/wasnorm_wordpool_576.txt	LTP334	ltpFR2	11	5	SUSPECT	1415	n/a	n/a	0	0	0
839887	WORD	wordpools/wasnorm_wordpool_576.txt	LTP334	ltpFR2	11	5	MEAT	883	n/a	n/a	0	0	0
842518	WORD	wordpools/wasnorm_wordpool_576.txt	LTP334	ltpFR2	11	5	SUNSET	1408	n/a	n/a	0	0	0
845200	WORD	wordpools/wasnorm_wordpool_576.txt	LTP334	ltpFR2	11	5	THIEF	1456	n/a	n/a	0	0	0
847967	WORD	wordpools/wasnorm_wordpool_576.txt	LTP334	ltpFR2	11	5	LADDER	793	n/a	n/a	0	0	0
850598	WORD	wordpools/wasnorm_wordpool_576.txt	LTP334	ltpFR2	11	5	CEILING	265	n/a	n/a	0	0	0
853031	WORD	wordpools/wasnorm_wordpool_576.txt	LTP334	ltpFR2	11	5	ORANGE	980	n/a	n/a	0	0	0
855545	WORD	wordpools/wasnorm_wordpool_576.txt	LTP334	ltpFR2	11	5	TWEEZERS	1526	n/a	n/a	0	0	0
858244	WORD	wordpools/wasnorm_wordpool_576.txt	LTP334	ltpFR2	11	5	HOSTESS	723	n/a	n/a	0	0	0
860694	WORD	wordpools/wasnorm_wordpool_576.txt	LTP334	ltpFR2	11	5	WAITRESS	1581	n/a	n/a	0	0	0
863492	WORD	wordpools/wasnorm_wordpool_576.txt	LTP334	ltpFR2	11	5	ROBIN	1199	n/a	n/a	0	0	0
866025	WORD	wordpools/wasnorm_wordpool_576.txt	LTP334	ltpFR2	11	5	FIREPLACE	570	n/a	n/a	0	0	0
868490	WORD	wordpools/wasnorm_wordpool_576.txt	LTP334	ltpFR2	11	5	BROOK	177	n/a	n/a	0	0	0
871006	WORD	wordpools/wasnorm_wordpool_576.txt	LTP334	ltpFR2	11	5	MILDEW	893	n/a	n/a	0	0	0
873722	WORD	wordpools/wasnorm_wordpool_576.txt	LTP334	ltpFR2	11	5	PARSLEY	1016	n/a	n/a	0	0	0
876353	WORD	wordpools/wasnorm_wordpool_576.txt	LTP334	ltpFR2	11	5	FRAME	600	n/a	n/a	0	0	0
877970	START	n/a	LTP334	ltpFR2	11	n/a	n/a	n/a	7	n/a	n/a	n/a	n/a
878937	DISTRACTOR	n/a	LTP334	ltpFR2	11	5	n/a	n/a	n/a	n/a	0	0	0
878953	PROB	n/a	LTP334	ltpFR2	11	n/a	n/a	n/a	7	20	9	4	7
881984	PROB	n/a	LTP334	ltpFR2	11	n/a	n/a	n/a	7	12	5	3	4
883734	PROB	n/a	LTP334	ltpFR2	11	n/a	n/a	n/a	7	10	1	4	5
884850	PROB	n/a	LTP334	ltpFR2	11	n/a	n/a	n/a	7	20	6	7	7
886531	PROB	n/a	LTP334	ltpFR2	11	n/a	n/a	n/a	7	18	8	9	1
888148	PROB	n/a	LTP334	ltpFR2	11	n/a	n/a	n/a	7	17	6	7	4
889931	PROB	n/a	LTP334	ltpFR2	11	n/a	n/a	n/a	7	6	3	1	2
891396	PROB	n/a	LTP334	ltpFR2	11	n/a	n/a	n/a	7	14	5	8	1
893163	PROB	n/a	LTP334	ltpFR2	11	n/a	n/a	n/a	7	16	3	3	8
895178	PROB	n/a	LTP334	ltpFR2	11	n/a	n/a	n/a	7	20	4	7	9
897477	PROB	n/a	LTP334	ltpFR2	11	n/a	n/a	n/a	7	20	3	9	8
898827	PROB	n/a	LTP334	ltpFR2	11	n/a	n/a	n/a	7	17	3	7	7
900482	STOP	n/a	LTP334	ltpFR2	11	n/a	n/a	n/a	7	n/a	n/a	n/a	n/a
903875	REC_START	n/a	LTP334	ltpFR2	11	5	n/a	n/a	n/a	n/a	0	0	0
904300	REC_WORD	wordpools/wasnorm_wordpool_576.txt	LTP334	ltpFR2	11	5	FRAME	600	n/a	n/a	0	0	0
906298	REC_WORD	wordpools/wasnorm_wordpool_576.txt	LTP334	ltpFR2	11	5	PARSLEY	1016	n/a	n/a	0	0	0
907944	REC_WORD	wordpools/wasnorm_wordpool_576.txt	LTP334	ltpFR2	11	5	CAPTIVE	240	n/a	n/a	0	0	0
908754	REC_WORD	wordpools/wasnorm_wordpool_576.txt	LTP334	ltpFR2	11	5	SUSPECT	1415	n/a	n/a	0	0	0
909828	REC_WORD	wordpools/wasnorm_wordpool_576.txt	LTP334	ltpFR2	11	5	COLONEL	348	n/a	n/a	0	0	0
910452	REC_WORD	wordpools/wasnorm_wordpool_576.txt	LTP334	ltpFR2	11	5	THIEF	1456	n/a	n/a	0	0	0
912296	REC_WORD	wordpools/wasnorm_wordpool_576.txt	LTP334	ltpFR2	11	5	LOVER	846	n/a	n/a	0	0	0
913076	REC_WORD	wordpools/wasnorm_wordpool_576.txt	LTP334	ltpFR2	11	5	SUNSET	1408	n/a	n/a	0	0	0
915020	REC_WORD	wordpools/wasnorm_wordpool_576.txt	LTP334	ltpFR2	11	5	SALT	1229	n/a	n/a	0	0	0
915961	REC_WORD	wordpools/wasnorm_wordpool_576.txt	LTP334	ltpFR2	11	5	DOUGHNUT	490	n/a	n/a	0	0	0
925898	REC_WORD	wordpools/wasnorm_wordpool_576.txt	LTP334	ltpFR2	11	5	HOSTESS	723	n/a	n/a	0	0	0
926656	REC_WORD	wordpools/wasnorm_wordpool_576.txt	LTP334	ltpFR2	11	5	WAITRESS	1581	n/a	n/a	0	0	0
927611	REC_WORD	wordpools/wasnorm_wordpool_576.txt	LTP334	ltpFR2	11	5	LADDER	793	n/a	n/a	0	0	0
928152	REC_WORD	wordpools/wasnorm_wordpool_576.txt	LTP334	ltpFR2	11	5	CEILING	265	n/a	n/a	0	0	0
929179	REC_WORD	wordpools/wasnorm_wordpool_576.txt	LTP334	ltpFR2	11	5	ORANGE	980	n/a	n/a	0	0	0
930287	REC_WORD	wordpools/wasnorm_wordpool_576.txt	LTP334	ltpFR2	11	5	FIREPLACE	570	n/a	n/a	0	0	0
931453	REC_WORD	wordpools/wasnorm_wordpool_576.txt	LTP334	ltpFR2	11	5	BROOK	177	n/a	n/a	0	0	0
932446	REC_WORD	wordpools/wasnorm_wordpool_576.txt	LTP334	ltpFR2	11	5	TWEEZERS	1526	n/a	n/a	0	0	0
994316	DISTRACTOR	n/a	LTP334	ltpFR2	11	6	n/a	n/a	n/a	n/a	0	0	0
994316	START	n/a	LTP334	ltpFR2	11	n/a	n/a	n/a	8	n/a	n/a	n/a	n/a
994333	PROB	n/a	LTP334	ltpFR2	11	n/a	n/a	n/a	8	15	2	9	4
995783	PROB	n/a	LTP334	ltpFR2	11	n/a	n/a	n/a	8	21	9	8	4
997732	PROB	n/a	LTP334	ltpFR2	11	n/a	n/a	n/a	8	19	9	1	9
999530	PROB	n/a	LTP334	ltpFR2	11	n/a	n/a	n/a	8	8	5	2	1
1000847	PROB	n/a	LTP334	ltpFR2	11	n/a	n/a	n/a	8	22	7	8	7
1002697	PROB	n/a	LTP334	ltpFR2	11	n/a	n/a	n/a	8	13	4	6	3
1004478	PROB	n/a	LTP334	ltpFR2	11	n/a	n/a	n/a	8	18	7	3	8
1005795	PROB	n/a	LTP334	ltpFR2	11	n/a	n/a	n/a	8	24	9	9	6
1009343	PROB	n/a	LTP334	ltpFR2	11	n/a	n/a	n/a	8	17	7	2	8
1011308	PROB	n/a	LTP334	ltpFR2	11	n/a	n/a	n/a	8	17	7	5	5
1012591	PROB	n/a	LTP334	ltpFR2	11	n/a	n/a	n/a	8	19	9	7	3
1014042	PROB	n/a	LTP334	ltpFR2	11	n/a	n/a	n/a	8	15	1	8	6
1015506	PROB	n/a	LTP334	ltpFR2	11	n/a	n/a	n/a	8	22	9	5	8
1017182	STOP	n/a	LTP334	ltpFR2	11	n/a	n/a	n/a	8	n/a	n/a	n/a	n/a
1019205	WORD	wordpools/wasnorm_wordpool_576.txt	LTP334	ltpFR2	11	6	BANKER	84	n/a	n/a	0	0	0
1021988	WORD	wordpools/wasnorm_wordpool_576.txt	LTP334	ltpFR2	11	6	TOMBSTONE	1478	n/a	n/a	0	0	0
1024770	WORD	wordpools/wasnorm_wordpool_576.txt	LTP334	ltpFR2	11	6	PEACH	1031	n/a	n/a	0	0	0
1027434	WORD	wordpools/wasnorm_wordpool_576.txt	LTP334	ltpFR2	11	6	POPCORN	1104	n/a	n/a	0	0	0
1030151	WORD	wordpools/wasnorm_wordpool_576.txt	LTP334	ltpFR2	11	6	COMET	353	n/a	n/a	0	0	0
1032899	WORD	wordpools/wasnorm_wordpool_576.txt	LTP334	ltpFR2	11	6	FRUIT	610	n/a	n/a	0	0	0
1035682	WORD	wordpools/wasnorm_wordpool_576.txt	LTP334	ltpFR2	11	6	INMATE	738	n/a	n/a	0	0	0
1038496	WORD	wordpools/wasnorm_wordpool_576.txt	LTP334	ltpFR2	11	6	DRAGON	492	n/a	n/a	0	0	0
1040979	WORD	wordpools/wasnorm_wordpool_576.txt	LTP334	ltpFR2	11	6	KIDNEY	776	n/a	n/a	0	0	0
1043510	WORD	wordpools/wasnorm_wordpool_576.txt	LTP334	ltpFR2	11	6	DONOR	485	n/a	n/a	0	0	0
1046326	WORD	wordpools/wasnorm_wordpool_576.txt	LTP334	ltpFR2	11	6	MARSH	874	n/a	n/a	0	0	0
1049142	WORD	wordpools/wasnorm_wordpool_576.txt	LTP334	ltpFR2	11	6	CHEMIST	292	n/a	n/a	0	0	0
1051674	WORD	wordpools/wasnorm_wordpool_576.txt	LTP334	ltpFR2	11	6	WASP	1593	n/a	n/a	0	0	0
1054140	WORD	wordpools/wasnorm_wordpool_576.txt	LTP334	ltpFR2	11	6	SAUSAGE	1238	n/a	n/a	0	0	0
1056605	WORD	wordpools/wasnorm_wordpool_576.txt	LTP334	ltpFR2	11	6	PLUTO	1092	n/a	n/a	0	0	0
1059370	WORD	wordpools/wasnorm_wordpool_576.txt	LTP334	ltpFR2	11	6	SNAKE	1333	n/a	n/a	0	0	0
1062053	WORD	wordpools/wasnorm_wordpool_576.txt	LTP334	ltpFR2	11	6	GARLIC	624	n/a	n/a	0	0	0
1064868	WORD	wordpools/wasnorm_wordpool_576.txt	LTP334	ltpFR2	11	6	BASEMENT	94	n/a	n/a	0	0	0
1067416	WORD	wordpools/wasnorm_wordpool_576.txt	LTP334	ltpFR2	11	6	CHIPMUNK	304	n/a	n/a	0	0	0
1069999	WORD	wordpools/wasnorm_wordpool_576.txt	LTP334	ltpFR2	11	6	BEAST	108	n/a	n/a	0	0	0
1072765	WORD	wordpools/wasnorm_wordpool_576.txt	LTP334	ltpFR2	11	6	COD	340	n/a	n/a	0	0	0
1075446	WORD	wordpools/wasnorm_wordpool_576.txt	LTP334	ltpFR2	11	6	RADISH	1158	n/a	n/a	0	0	0
1077896	WORD	wordpools/wasnorm_wordpool_576.txt	LTP334	ltpFR2	11	6	FRAGRANCE	599	n/a	n/a	0	0	0
1080560	WORD	wordpools/wasnorm_wordpool_576.txt	LTP334	ltpFR2	11	6	BLACKBOARD	133	n/a	n/a	0	0	0
1082176	START	n/a	LTP334	ltpFR2	11	n/a	n/a	n/a	9	n/a	n/a	n/a	n/a
1082997	DISTRACTOR	n/a	LTP334	ltpFR2	11	6	n/a	n/a	n/a	n/a	0	0	0
1083010	PROB	n/a	LTP334	ltpFR2	11	n/a	n/a	n/a	9	10	7	2	1
1084160	PROB	n/a	LTP334	ltpFR2	11	n/a	n/a	n/a	9	23	9	8	6
1088323	PROB	n/a	LTP334	ltpFR2	11	n/a	n/a	n/a	9	14	6	7	1
1089790	PROB	n/a	LTP334	ltpFR2	11	n/a	n/a	n/a	9	15	7	1	7
1091256	PROB	n/a	LTP334	ltpFR2	11	n/a	n/a	n/a	9	25	8	9	7
1095337	PROB	n/a	LTP334	ltpFR2	11	n/a	n/a	n/a	9	12	4	4	4
1096737	PROB	n/a	LTP334	ltpFR2	11	n/a	n/a	n/a	9	12	4	4	4
1097636	PROB	n/a	LTP334	ltpFR2	11	n/a	n/a	n/a	9	6	1	4	1
1099003	PROB	n/a	LTP334	ltpFR2	11	n/a	n/a	n/a	9	8	4	3	1
1100418	PROB	n/a	LTP334	ltpFR2	11	n/a	n/a	n/a	9	16	7	1	8
1101768	PROB	n/a	LTP334	ltpFR2	11	n/a	n/a	n/a	9	11	5	4	2
1103350	PROB	n/a	LTP334	ltpFR2	11	n/a	n/a	n/a	9	7	3	3	1
1104786	STOP	n/a	LTP334	ltpFR2	11	n/a	n/a	n/a	9	n/a	n/a	n/a	n/a
1108000	REC_START	n/a	LTP334	ltpFR2	11	6	n/a	n/a	n/a	n/a	0	0	0
1108628	REC_WORD	wordpools/wasnorm_wordpool_576.txt	LTP334	ltpFR2	11	6	COD	340	n/a	n/a	0	0	0
1109289	REC_WORD	wordpools/wasnorm_wordpool_576.txt	LTP334	ltpFR2	11	6	RADISH	1158	n/a	n/a	0	0	0
1111518	REC_WORD	wordpools/wasnorm_wordpool_576.txt	LTP334	ltpFR2	11	6	BEAST	108	n/a	n/a	0	0	0
1112202	REC_WORD	wordpools/wasnorm_wordpool_576.txt	LTP334	ltpFR2	11	6	CHIPMUNK	304	n/a	n/a	0	0	0
1113371	REC_WORD	wordpools/wasnorm_wordpool_576.txt	LTP334	ltpFR2	11	6	BANK	83	n/a	n/a	0	0	0
1114108	REC_WORD	wordpools/wasnorm_wordpool_576.txt	LTP334	ltpFR2	11	6	TOMBSTONE	1478	n/a	n/a	0	0	0
1115085	REC_WORD	wordpools/wasnorm_wordpool_576.txt	LTP334	ltpFR2	11	6	PEACH	1031	n/a	n/a	0	0	0
1115822	REC_WORD	wordpools/wasnorm_wordpool_576.txt	LTP334	ltpFR2	11	6	POPCORN	1104	n/a	n/a	0	0	0
1116628	REC_WORD	wordpools/wasnorm_wordpool_576.txt	LTP334	ltpFR2	11	6	FRUIT	610	n/a	n/a	0	0	0
1119825	REC_WORD	wordpools/wasnorm_wordpool_576.txt	LTP334	ltpFR2	11	6	WASP	1593	n/a	n/a	0	0	0
1120943	REC_WORD	wordpools/wasnorm_wordpool_576.txt	LTP334	ltpFR2	11	6	KIDNEY	776	n/a	n/a	0	0	0
1121645	REC_WORD	wordpools/wasnorm_wordpool_576.txt	LTP334	ltpFR2	11	6	DONOR	485	n/a	n/a	0	0	0
1125024	REC_WORD	wordpools/wasnorm_wordpool_576.txt	LTP334	ltpFR2	11	6	PLUTO	1092	n/a	n/a	0	0	0
1128163	REC_WORD	wordpools/wasnorm_wordpool_576.txt	LTP334	ltpFR2	11	6	BASEMENT	94	n/a	n/a	0	0	0
1198457	WORD	wordpools/wasnorm_wordpool_576.txt	LTP334	ltpFR2	11	7	BARLEY	88	n/a	n/a	0	0	0
1201007	WORD	wordpools/wasnorm_wordpool_576.txt	LTP334	ltpFR2	11	7	HEART	697	n/a	n/a	0	0	0
1203638	WORD	wordpools/wasnorm_wordpool_576.txt	LTP334	ltpFR2	11	7	LIGHTNING	820	n/a	n/a	0	0	0
1206155	WORD	wordpools/wasnorm_wordpool_576.txt	LTP334	ltpFR2	11	7	RIVER	1194	n/a	n/a	0	0	0
1208652	WORD	wordpools/wasnorm_wordpool_576.txt	LTP334	ltpFR2	11	7	SHRUB	1299	n/a	n/a	0	0	0
1211102	WORD	wordpools/wasnorm_wordpool_576.txt	LTP334	ltpFR2	11	7	PORTRAIT	1111	n/a	n/a	0	0	0
1213567	WORD	wordpools/wasnorm_wordpool_576.txt	LTP334	ltpFR2	11	7	SWAMP	1416	n/a	n/a	0	0	0
1216133	WORD	wordpools/wasnorm_wordpool_576.txt	LTP334	ltpFR2	11	7	BLUEPRINT	142	n/a	n/a	0	0	0
1218882	WORD	wordpools/wasnorm_wordpool_576.txt	LTP334	ltpFR2	11	7	CABIN	211	n/a	n/a	0	0	0
1221630	WORD	wordpools/wasnorm_wordpool_576.txt	LTP334	ltpFR2	11	7	IGLOO	734	n/a	n/a	0	0	0
1224445	WORD	wordpools/wasnorm_wordpool_576.txt	LTP334	ltpFR2	11	7	COTTAGE	384	n/a	n/a	0	0	0
1227177	WORD	wordpools/wasnorm_wordpool_576.txt	LTP334	ltpFR2	11	7	DRINK	498	n/a	n/a	0	0	0
1229744	WORD	wordpools/wasnorm_wordpool_576.txt	LTP334	ltpFR2	11	7	JOURNAL	760	n/a	n/a	0	0	0
1232575	WORD	wordpools/wasnorm_wordpool_576.txt	LTP334	ltpFR2	11	7	SCRIBBLE	1256	n/a	n/a	0	0	0
1235058	WORD	wordpools/wasnorm_wordpool_576.txt	LTP334	ltpFR2	11	7	SLIDE	1326	n/a	n/a	0	0	0
1237707	WORD	wordpools/wasnorm_wordpool_576.txt	LTP334	ltpFR2	11	7	TRANSPLANT	1496	n/a	n/a	0	0	0
1240371	WORD	wordpools/wasnorm_wordpool_576.txt	LTP334	ltpFR2	11	7	DIME	466	n/a	n/a	0	0	0
1242821	WORD	wordpools/wasnorm_wordpool_576.txt	LTP334	ltpFR2	11	7	POCKET	1093	n/a	n/a	0	0	0
1245252	WORD	wordpools/wasnorm_wordpool_576.txt	LTP334	ltpFR2	11	7	TROUT	1511	n/a	n/a	0	0	0
1247752	WORD	wordpools/wasnorm_wordpool_576.txt	LTP334	ltpFR2	11	7	CRAYON	401	n/a	n/a	0	0	0
1250367	WORD	wordpools/wasnorm_wordpool_576.txt	LTP334	ltpFR2	11	7	OUTLAW	989	n/a	n/a	0	0	0
1252917	WORD	wordpools/wasnorm_wordpool_576.txt	LTP334	ltpFR2	11	7	ROBBER	1197	n/a	n/a	0	0	0
1255732	WORD	wordpools/wasnorm_wordpool_576.txt	LTP334	ltpFR2	11	7	VIKING	1565	n/a	n/a	0	0	0
1258480	WORD	wordpools/wasnorm_wordpool_576.txt	LTP334	ltpFR2	11	7	HOUND	724	n/a	n/a	0	0	0
1260097	START	n/a	LTP334	ltpFR2	11	n/a	n/a	n/a	10	n/a	n/a	n/a	n/a
1260973	DISTRACTOR	n/a	LTP334	ltpFR2	11	7	n/a	n/a	n/a	n/a	0	0	0
1260980	PROB	n/a	LTP334	ltpFR2	11	n/a	n/a	n/a	10	17	7	6	4
1262862	PROB	n/a	LTP334	ltpFR2	11	n/a	n/a	n/a	10	9	2	1	6
1264310	PROB	n/a	LTP334	ltpFR2	11	n/a	n/a	n/a	10	21	3	9	9
1265610	PROB	n/a	LTP334	ltpFR2	11	n/a	n/a	n/a	10	7	1	3	3
1266877	PROB	n/a	LTP334	ltpFR2	11	n/a	n/a	n/a	10	17	7	3	7
1268660	PROB	n/a	LTP334	ltpFR2	11	n/a	n/a	n/a	10	12	5	5	2
1269676	PROB	n/a	LTP334	ltpFR2	11	n/a	n/a	n/a	10	16	2	5	9
1271224	PROB	n/a	LTP334	ltpFR2	11	n/a	n/a	n/a	10	11	6	4	1
1272357	PROB	n/a	LTP334	ltpFR2	11	n/a	n/a	n/a	10	13	3	8	2
1273691	PROB	n/a	LTP334	ltpFR2	11	n/a	n/a	n/a	10	10	2	2	6
1275073	PROB	n/a	LTP334	ltpFR2	11	n/a	n/a	n/a	10	12	9	1	2
1276621	PROB	n/a	LTP334	ltpFR2	11	n/a	n/a	n/a	10	11	2	1	8
1277889	PROB	n/a	LTP334	ltpFR2	11	n/a	n/a	n/a	10	13	2	8	3
1279387	PROB	n/a	LTP334	ltpFR2	11	n/a	n/a	n/a	10	22	7	9	6
1281486	PROB	n/a	LTP334	ltpFR2	11	n/a	n/a	n/a	10	16	3	7	6
1282760	STOP	n/a	LTP334	ltpFR2	11	n/a	n/a	n/a	10	n/a	n/a	n/a	n/a
1285952	REC_START	n/a	LTP334	ltpFR2	11	7	n/a	n/a	n/a	n/a	0	0	0
1286689	REC_WORD	wordpools/wasnorm_wordpool_576.txt	LTP334	ltpFR2	11	7	VIKING	1565	n/a	n/a	0	0	0
1287427	REC_WORD	wordpools/wasnorm_wordpool_576.txt	LTP334	ltpFR2	11	7	HOUND	724	n/a	n/a	0	0	0
1288347	REC_WORD	wordpools/wasnorm_wordpool_576.txt	LTP334	ltpFR2	11	7	ROBBER	1197	n/a	n/a	0	0	0
1294054	REC_WORD	wordpools/wasnorm_wordpool_576.txt	LTP334	ltpFR2	11	7	RIVER	1194	n/a	n/a	0	0	0
1294759	REC_WORD	wordpools/wasnorm_wordpool_576.txt	LTP334	ltpFR2	11	7	TROUT	1511	n/a	n/a	0	0	0
1297282	REC_WORD	wordpools/wasnorm_wordpool_576.txt	LTP334	ltpFR2	11	7	SWAMP	1416	n/a	n/a	0	0	0
1299275	REC_WORD	wordpools/wasnorm_wordpool_576.txt	LTP334	ltpFR2	11	7	BLUEPRINT	142	n/a	n/a	0	0	0
1300085	REC_WORD	wordpools/wasnorm_wordpool_576.txt	LTP334	ltpFR2	11	7	CABIN	211	n/a	n/a	0	0	0
1302288	REC_WORD	wordpools/wasnorm_wordpool_576.txt	LTP334	ltpFR2	11	7	COTTAGE	384	n/a	n/a	0	0	0
1303250	REC_WORD	wordpools/wasnorm_wordpool_576.txt	LTP334	ltpFR2	11	7	IGLOO	734	n/a	n/a	0	0	0
1304408	REC_WORD	wordpools/wasnorm_wordpool_576.txt	LTP334	ltpFR2	11	7	PORTRAIT	1111	n/a	n/a	0	0	0
1306222	REC_WORD	wordpools/wasnorm_wordpool_576.txt	LTP334	ltpFR2	11	7	SCRIBBLE	1256	n/a	n/a	0	0	0
1307140	REC_WORD	wordpools/wasnorm_wordpool_576.txt	LTP334	ltpFR2	11	7	CRAYON	401	n/a	n/a	0	0	0
1307919	REC_WORD	wordpools/wasnorm_wordpool_576.txt	LTP334	ltpFR2	11	7	JOURNAL	760	n/a	n/a	0	0	0
1314401	REC_WORD	wordpools/wasnorm_wordpool_576.txt	LTP334	ltpFR2	11	7	BARLEY	88	n/a	n/a	0	0	0
1315026	REC_WORD	wordpools/wasnorm_wordpool_576.txt	LTP334	ltpFR2	11	7	RIVER	1194	n/a	n/a	0	0	0
1316513	REC_WORD	wordpools/wasnorm_wordpool_576.txt	LTP334	ltpFR2	11	7	HEART	697	n/a	n/a	0	0	0
1317139	REC_WORD	wordpools/wasnorm_wordpool_576.txt	LTP334	ltpFR2	11	7	LIGHTNING	820	n/a	n/a	0	0	0
1317932	REC_WORD	wordpools/wasnorm_wordpool_576.txt	LTP334	ltpFR2	11	7	TRANSPLANT	1496	n/a	n/a	0	0	0
1343287	REC_WORD	wordpools/wasnorm_wordpool_576.txt	LTP334	ltpFR2	11	7	SHRUB	1299	n/a	n/a	0	0	0
1376393	DISTRACTOR	n/a	LTP334	ltpFR2	11	8	n/a	n/a	n/a	n/a	0	0	0
1376393	START	n/a	LTP334	ltpFR2	11	n/a	n/a	n/a	11	n/a	n/a	n/a	n/a
1376410	PROB	n/a	LTP334	ltpFR2	11	n/a	n/a	n/a	11	19	8	4	7
1378242	PROB	n/a	LTP334	ltpFR2	11	n/a	n/a	n/a	11	9	2	1	6
1379542	PROB	n/a	LTP334	ltpFR2	11	n/a	n/a	n/a	11	19	7	5	7
1380959	PROB	n/a	LTP334	ltpFR2	11	n/a	n/a	n/a	11	9	4	1	4
1382108	PROB	n/a	LTP334	ltpFR2	11	n/a	n/a	n/a	11	18	8	7	3
1383440	PROB	n/a	LTP334	ltpFR2	11	n/a	n/a	n/a	11	14	2	4	8
1386355	PROB	n/a	LTP334	ltpFR2	11	n/a	n/a	n/a	11	6	1	3	2
1387621	PROB	n/a	LTP334	ltpFR2	11	n/a	n/a	n/a	11	14	3	2	9
1389320	PROB	n/a	LTP334	ltpFR2	11	n/a	n/a	n/a	11	15	7	6	2
1390721	PROB	n/a	LTP334	ltpFR2	11	n/a	n/a	n/a	11	16	3	4	9
1392219	PROB	n/a	LTP334	ltpFR2	11	n/a	n/a	n/a	11	12	1	4	7
1393552	PROB	n/a	LTP334	ltpFR2	11	n/a	n/a	n/a	11	24	9	8	7
1395169	PROB	n/a	LTP334	ltpFR2	11	n/a	n/a	n/a	11	12	7	1	4
1396334	PROB	n/a	LTP334	ltpFR2	11	n/a	n/a	n/a	11	13	1	8	4
1397550	PROB	n/a	LTP334	ltpFR2	11	n/a	n/a	n/a	11	11	7	2	2
1398801	PROB	n/a	LTP334	ltpFR2	11	n/a	n/a	n/a	11	16	2	6	8
1400282	STOP	n/a	LTP334	ltpFR2	11	n/a	n/a	n/a	11	n/a	n/a	n/a	n/a
1401365	WORD	wordpools/wasnorm_wordpool_576.txt	LTP334	ltpFR2	11	8	ARMY	39	n/a	n/a	0	0	0
1404180	WORD	wordpools/wasnorm_wordpool_576.txt	LTP334	ltpFR2	11	8	GUARD	667	n/a	n/a	0	0	0
1406830	WORD	wordpools/wasnorm_wordpool_576.txt	LTP334	ltpFR2	11	8	LEOPARD	812	n/a	n/a	0	0	0
1409278	WORD	wordpools/wasnorm_wordpool_576.txt	LTP334	ltpFR2	11	8	HIKER	708	n/a	n/a	0	0	0
1411895	WORD	wordpools/wasnorm_wordpool_576.txt	LTP334	ltpFR2	11	8	JUDGE	761	n/a	n/a	0	0	0
1414660	WORD	wordpools/wasnorm_wordpool_576.txt	LTP334	ltpFR2	11	8	PENGUIN	1044	n/a	n/a	0	0	0
1417241	WORD	wordpools/wasnorm_wordpool_576.txt	LTP334	ltpFR2	11	8	COIN	343	n/a	n/a	0	0	0
1420024	WORD	wordpools/wasnorm_wordpool_576.txt	LTP334	ltpFR2	11	8	LEADER	807	n/a	n/a	0	0	0
1422556	WORD	wordpools/wasnorm_wordpool_576.txt	LTP334	ltpFR2	11	8	HORSE	719	n/a	n/a	0	0	0
1425254	WORD	wordpools/wasnorm_wordpool_576.txt	LTP334	ltpFR2	11	8	FOOTBALL	591	n/a	n/a	0	0	0
1427887	WORD	wordpools/wasnorm_wordpool_576.txt	LTP334	ltpFR2	11	8	DANDRUFF	439	n/a	n/a	0	0	0
1430535	WORD	wordpools/wasnorm_wordpool_576.txt	LTP334	ltpFR2	11	8	GHETTO	633	n/a	n/a	0	0	0
1433267	WORD	wordpools/wasnorm_wordpool_576.txt	LTP334	ltpFR2	11	8	PEANUT	1032	n/a	n/a	0	0	0
1435701	WORD	wordpools/wasnorm_wordpool_576.txt	LTP334	ltpFR2	11	8	UMPIRE	1535	n/a	n/a	0	0	0
1438332	WORD	wordpools/wasnorm_wordpool_576.txt	LTP334	ltpFR2	11	8	LADY	794	n/a	n/a	0	0	0
1441065	WORD	wordpools/wasnorm_wordpool_576.txt	LTP334	ltpFR2	11	8	MISTER	901	n/a	n/a	0	0	0
1443596	WORD	wordpools/wasnorm_wordpool_576.txt	LTP334	ltpFR2	11	8	KLEENEX	782	n/a	n/a	0	0	0
1446328	WORD	wordpools/wasnorm_wordpool_576.txt	LTP334	ltpFR2	11	8	REBEL	1172	n/a	n/a	0	0	0
1448995	WORD	wordpools/wasnorm_wordpool_576.txt	LTP334	ltpFR2	11	8	CLIMBER	323	n/a	n/a	0	0	0
1451626	WORD	wordpools/wasnorm_wordpool_576.txt	LTP334	ltpFR2	11	8	GLOVE	642	n/a	n/a	0	0	0
1454076	WORD	wordpools/wasnorm_wordpool_576.txt	LTP334	ltpFR2	11	8	WRIST	1626	n/a	n/a	0	0	0
1456824	WORD	wordpools/wasnorm_wordpool_576.txt	LTP334	ltpFR2	11	8	DRILL	497	n/a	n/a	0	0	0
1459256	WORD	wordpools/wasnorm_wordpool_576.txt	LTP334	ltpFR2	11	8	STAPLE	1371	n/a	n/a	0	0	0
1461839	WORD	wordpools/wasnorm_wordpool_576.txt	LTP334	ltpFR2	11	8	COUSIN	392	n/a	n/a	0	0	0
1463454	START	n/a	LTP334	ltpFR2	11	n/a	n/a	n/a	12	n/a	n/a	n/a	n/a
1464572	DISTRACTOR	n/a	LTP334	ltpFR2	11	8	n/a	n/a	n/a	n/a	0	0	0
1464586	PROB	n/a	LTP334	ltpFR2	11	n/a	n/a	n/a	12	12	6	3	3
1465754	PROB	n/a	LTP334	ltpFR2	11	n/a	n/a	n/a	12	11	1	9	1
1466920	PROB	n/a	LTP334	ltpFR2	11	n/a	n/a	n/a	12	9	1	4	4
1468069	PROB	n/a	LTP334	ltpFR2	11	n/a	n/a	n/a	12	25	9	9	7
1469518	PROB	n/a	LTP334	ltpFR2	11	n/a	n/a	n/a	12	9	1	3	4
1470735	PROB	n/a	LTP334	ltpFR2	11	n/a	n/a	n/a	12	19	8	8	3
1473233	PROB	n/a	LTP334	ltpFR2	11	n/a	n/a	n/a	12	13	2	4	7
1474883	PROB	n/a	LTP334	ltpFR2	11	n/a	n/a	n/a	12	25	8	8	9
1476364	PROB	n/a	LTP334	ltpFR2	11	n/a	n/a	n/a	12	15	5	2	8
1477698	PROB	n/a	LTP334	ltpFR2	11	n/a	n/a	n/a	12	22	8	5	9
1480363	PROB	n/a	LTP334	ltpFR2	11	n/a	n/a	n/a	12	12	9	1	2
1481780	PROB	n/a	LTP334	ltpFR2	11	n/a	n/a	n/a	12	15	2	4	9
1483445	PROB	n/a	LTP334	ltpFR2	11	n/a	n/a	n/a	12	15	7	3	5
1484745	PROB	n/a	LTP334	ltpFR2	11	n/a	n/a	n/a	12	12	4	5	3
1487413	STOP	n/a	LTP334	ltpFR2	11	n/a	n/a	n/a	12	n/a	n/a	n/a	n/a
1489243	REC_START	n/a	LTP334	ltpFR2	11	8	n/a	n/a	n/a	n/a	0	0	0
1491787	REC_WORD	wordpools/wasnorm_wordpool_576.txt	LTP334	ltpFR2	11	8	REBEL	1172	n/a	n/a	0	0	0
1496183	REC_WORD	wordpools/wasnorm_wordpool_576.txt	LTP334	ltpFR2	11	8	ARMY	39	n/a	n/a	0	0	0
1497005	REC_WORD	wordpools/wasnorm_wordpool_576.txt	LTP334	ltpFR2	11	8	GUARD	667	n/a	n/a	0	0	0
1497709	REC_WORD	wordpools/wasnorm_wordpool_576.txt	LTP334	ltpFR2	11	8	LEOPARD	812	n/a	n/a	0	0	0
1498642	REC_WORD	wordpools/wasnorm_wordpool_576.txt	LTP334	ltpFR2	11	8	HORSE	719	n/a	n/a	0	0	0
1499559	REC_WORD	wordpools/wasnorm_wordpool_576.txt	LTP334	ltpFR2	11	8	PENGUIN	1044	n/a	n/a	0	0	0
1501324	REC_WORD	wordpools/wasnorm_wordpool_576.txt	LTP334	ltpFR2	11	8	JUDGE	761	n/a	n/a	0	0	0
1502109	REC_WORD	wordpools/wasnorm_wordpool_576.txt	LTP334	ltpFR2	11	8	HIKER	708	n/a	n/a	0	0	0
1502980	REC_WORD	wordpools/wasnorm_wordpool_576.txt	LTP334	ltpFR2	11	8	CLIMBER	323	n/a	n/a	0	0	0
1505632	REC_WORD	wordpools/wasnorm_wordpool_576.txt	LTP334	ltpFR2	11	8	STAPLE	1371	n/a	n/a	0	0	0
1506627	REC_WORD	wordpools/wasnorm_wordpool_576.txt	LTP334	ltpFR2	11	8	DRILL	497	n/a	n/a	0	0	0
1508529	REC_WORD	wordpools/wasnorm_wordpool_576.txt	LTP334	ltpFR2	11	8	LADY	794	n/a	n/a	0	0	0
1521478	REC_WORD	wordpools/wasnorm_wordpool_576.txt	LTP334	ltpFR2	11	8	COUSIN	392	n/a	n/a	0	0	0
1551955	REC_WORD	wordpools/wasnorm_wordpool_576.txt	LTP334	ltpFR2	11	8	KLEENEX	782	n/a	n/a	0	0	0
1565775	REST_REWET	n/a	LTP334	ltpFR2	11	8	n/a	n/a	n/a	n/a	0	0	0
1609338	WORD	wordpools/wasnorm_wordpool_576.txt	LTP334	ltpFR2	11	9	WIDOW	1608	n/a	n/a	0	0	0
1611904	WORD	wordpools/wasnorm_wordpool_576.txt	LTP334	ltpFR2	11	9	OFFICE	972	n/a	n/a	0	0	0
1614602	WORD	wordpools/wasnorm_wordpool_576.txt	LTP334	ltpFR2	11	9	JELLY	755	n/a	n/a	0	0	0
1617052	WORD	wordpools/wasnorm_wordpool_576.txt	LTP334	ltpFR2	11	9	GUITAR	670	n/a	n/a	0	0	0
1619834	WORD	wordpools/wasnorm_wordpool_576.txt	LTP334	ltpFR2	11	9	WHISTLE	1606	n/a	n/a	0	0	0
1622615	WORD	wordpools/wasnorm_wordpool_576.txt	LTP334	ltpFR2	11	9	VIRUS	1572	n/a	n/a	0	0	0
1625082	WORD	wordpools/wasnorm_wordpool_576.txt	LTP334	ltpFR2	11	9	MOP	916	n/a	n/a	0	0	0
1627747	WORD	wordpools/wasnorm_wordpool_576.txt	LTP334	ltpFR2	11	9	DUSTPAN	509	n/a	n/a	0	0	0
1630195	WORD	wordpools/wasnorm_wordpool_576.txt	LTP334	ltpFR2	11	9	PLAYGROUND	1087	n/a	n/a	0	0	0
1633011	WORD	wordpools/wasnorm_wordpool_576.txt	LTP334	ltpFR2	11	9	SHIRT	1287	n/a	n/a	0	0	0
1635777	WORD	wordpools/wasnorm_wordpool_576.txt	LTP334	ltpFR2	11	9	SPOUSE	1358	n/a	n/a	0	0	0
1638274	WORD	wordpools/wasnorm_wordpool_576.txt	LTP334	ltpFR2	11	9	SHORTCAKE	1292	n/a	n/a	0	0	0
1640991	WORD	wordpools/wasnorm_wordpool_576.txt	LTP334	ltpFR2	11	9	HUMAN	726	n/a	n/a	0	0	0
1643422	WORD	wordpools/wasnorm_wordpool_576.txt	LTP334	ltpFR2	11	9	PIGEON	1065	n/a	n/a	0	0	0
1646221	WORD	wordpools/wasnorm_wordpool_576.txt	LTP334	ltpFR2	11	9	STAKE	1368	n/a	n/a	0	0	0
1649037	WORD	wordpools/wasnorm_wordpool_576.txt	LTP334	ltpFR2	11	9	LUMBER	848	n/a	n/a	0	0	0
1651469	WORD	wordpools/wasnorm_wordpool_576.txt	LTP334	ltpFR2	11	9	CITRUS	313	n/a	n/a	0	0	0
1654168	WORD	wordpools/wasnorm_wordpool_576.txt	LTP334	ltpFR2	11	9	ICING	732	n/a	n/a	0	0	0
1656734	WORD	wordpools/wasnorm_wordpool_576.txt	LTP334	ltpFR2	11	9	MOTOR	922	n/a	n/a	0	0	0
1659315	WORD	wordpools/wasnorm_wordpool_576.txt	LTP334	ltpFR2	11	9	TABLET	1427	n/a	n/a	0	0	0
1662048	WORD	wordpools/wasnorm_wordpool_576.txt	LTP334	ltpFR2	11	9	STOVE	1388	n/a	n/a	0	0	0
1664747	WORD	wordpools/wasnorm_wordpool_576.txt	LTP334	ltpFR2	11	9	HERO	706	n/a	n/a	0	0	0
1667511	WORD	wordpools/wasnorm_wordpool_576.txt	LTP334	ltpFR2	11	9	DENTIST	447	n/a	n/a	0	0	0
1669995	WORD	wordpools/wasnorm_wordpool_576.txt	LTP334	ltpFR2	11	9	TOASTER	1472	n/a	n/a	0	0	0
1671610	START	n/a	LTP334	ltpFR2	11	n/a	n/a	n/a	13	n/a	n/a	n/a	n/a
1672480	DISTRACTOR	n/a	LTP334	ltpFR2	11	9	n/a	n/a	n/a	n/a	0	0	0
1672492	PROB	n/a	LTP334	ltpFR2	11	n/a	n/a	n/a	13	13	3	8	2
1675142	PROB	n/a	LTP334	ltpFR2	11	n/a	n/a	n/a	13	12	5	2	5
1676241	PROB	n/a	LTP334	ltpFR2	11	n/a	n/a	n/a	13	8	2	4	2
1678691	PROB	n/a	LTP334	ltpFR2	11	n/a	n/a	n/a	13	16	3	9	4
1680505	PROB	n/a	LTP334	ltpFR2	11	n/a	n/a	n/a	13	7	1	4	2
1682022	PROB	n/a	LTP334	ltpFR2	11	n/a	n/a	n/a	13	10	1	6	3
1683521	PROB	n/a	LTP334	ltpFR2	11	n/a	n/a	n/a	13	14	4	4	6
1685138	PROB	n/a	LTP334	ltpFR2	11	n/a	n/a	n/a	13	8	3	3	2
1686636	PROB	n/a	LTP334	ltpFR2	11	n/a	n/a	n/a	13	17	4	6	7
1688686	PROB	n/a	LTP334	ltpFR2	11	n/a	n/a	n/a	13	18	8	6	4
1690284	PROB	n/a	LTP334	ltpFR2	11	n/a	n/a	n/a	13	2	9	9	4
1691634	PROB	n/a	LTP334	ltpFR2	11	n/a	n/a	n/a	13	16	9	5	2
1693283	PROB	n/a	LTP334	ltpFR2	11	n/a	n/a	n/a	13	10	1	7	2
1694796	STOP	n/a	LTP334	ltpFR2	11	n/a	n/a	n/a	13	n/a	n/a	n/a	n/a
1697498	REC_START	n/a	LTP334	ltpFR2	11	9	n/a	n/a	n/a	n/a	0	0	0
1698540	REC_WORD	wordpools/wasnorm_wordpool_576.txt	LTP334	ltpFR2	11	9	STOVE	1388	n/a	n/a	0	0	0
1699541	REC_WORD	wordpools/wasnorm_wordpool_576.txt	LTP334	ltpFR2	11	9	TOASTER	1472	n/a	n/a	0	0	0
1701325	REC_WORD	wordpools/wasnorm_wordpool_576.txt	LTP334	ltpFR2	11	9	ICING	732	n/a	n/a	0	0	0
1702616	REC_WORD	wordpools/wasnorm_wordpool_576.txt	LTP334	ltpFR2	11	9	CITRUS	313	n/a	n/a	0	0	0
1703635	REC_WORD	wordpools/wasnorm_wordpool_576.txt	LTP334	ltpFR2	11	9	JELLY	755	n/a	n/a	0	0	0
1704179	REC_WORD	wordpools/wasnorm_wordpool_576.txt	LTP334	ltpFR2	11	9	SHORTCAKE	1292	n/a	n/a	0	0	0
1705498	REC_WORD	wordpools/wasnorm_wordpool_576.txt	LTP334	ltpFR2	11	9	HERO	706	n/a	n/a	0	0	0
1709172	REC_WORD	wordpools/wasnorm_wordpool_576.txt	LTP334	ltpFR2	11	9	MOP	916	n/a	n/a	0	0	0
1710165	REC_WORD	wordpools/wasnorm_wordpool_576.txt	LTP334	ltpFR2	11	9	DUSTPAN	509	n/a	n/a	0	0	0
1711659	REC_WORD	wordpools/wasnorm_wordpool_576.txt	LTP334	ltpFR2	11	9	WIDOW	1608	n/a	n/a	0	0	0
1712412	REC_WORD	wordpools/wasnorm_wordpool_576.txt	LTP334	ltpFR2	11	9	OFFICE	972	n/a	n/a	0	0	0
1713076	REC_WORD	wordpools/wasnorm_wordpool_576.txt	LTP334	ltpFR2	11	9	SPOUSE	1358	n/a	n/a	0	0	0
1713889	REC_WORD	wordpools/wasnorm_wordpool_576.txt	LTP334	ltpFR2	11	9	HUMAN	726	n/a	n/a	0	0	0
1714900	REC_WORD	wordpools/wasnorm_wordpool_576.txt	LTP334	ltpFR2	11	9	PIGEON	1065	n/a	n/a	0	0	0
1715485	REC_WORD	wordpools/wasnorm_wordpool_576.txt	LTP334	ltpFR2	11	9	STAKE	1368	n/a	n/a	0	0	0
1717039	REC_WORD	wordpools/wasnorm_wordpool_576.txt	LTP334	ltpFR2	11	9	PLAYGROUND	1087	n/a	n/a	0	0	0
1717846	REC_WORD	wordpools/wasnorm_wordpool_576.txt	LTP334	ltpFR2	11	9	LUMBER	848	n/a	n/a	0	0	0
1765940	REC_WORD	wordpools/wasnorm_wordpool_576.txt	LTP334	ltpFR2	11	9	TABLET	1427	n/a	n/a	0	0	0
1768694	REC_WORD	wordpools/wasnorm_wordpool_576.txt	LTP334	ltpFR2	11	9	MOTOR	922	n/a	n/a	0	0	0
1787941	WORD	wordpools/wasnorm_wordpool_576.txt	LTP334	ltpFR2	11	10	RECEIPT	1173	n/a	n/a	0	0	0
1790406	WORD	wordpools/wasnorm_wordpool_576.txt	LTP334	ltpFR2	11	10	FRIAR	605	n/a	n/a	0	0	0
1793072	WORD	wordpools/wasnorm_wordpool_576.txt	LTP334	ltpFR2	11	10	GARDEN	623	n/a	n/a	0	0	0
1795771	WORD	wordpools/wasnorm_wordpool_576.txt	LTP334	ltpFR2	11	10	BUTCHER	203	n/a	n/a	0	0	0
1798252	WORD	wordpools/wasnorm_wordpool_576.txt	LTP334	ltpFR2	11	10	FLOWER	584	n/a	n/a	0	0	0
1800719	WORD	wordpools/wasnorm_wordpool_576.txt	LTP334	ltpFR2	11	10	FOREST	593	n/a	n/a	0	0	0
1803151	WORD	wordpools/wasnorm_wordpool_576.txt	LTP334	ltpFR2	11	10	CHAUFFEUR	283	n/a	n/a	0	0	0
1805850	WORD	wordpools/wasnorm_wordpool_576.txt	LTP334	ltpFR2	11	10	DASHBOARD	441	n/a	n/a	0	0	0
1808631	WORD	wordpools/wasnorm_wordpool_576.txt	LTP334	ltpFR2	11	10	GARBAGE	622	n/a	n/a	0	0	0
1811380	WORD	wordpools/wasnorm_wordpool_576.txt	LTP334	ltpFR2	11	10	BOX	159	n/a	n/a	0	0	0
1813996	WORD	wordpools/wasnorm_wordpool_576.txt	LTP334	ltpFR2	11	10	HEDGE	699	n/a	n/a	0	0	0
1816678	WORD	wordpools/wasnorm_wordpool_576.txt	LTP334	ltpFR2	11	10	FLEET	578	n/a	n/a	0	0	0
1819426	WORD	wordpools/wasnorm_wordpool_576.txt	LTP334	ltpFR2	11	10	PLAZA	1088	n/a	n/a	0	0	0
1822009	WORD	wordpools/wasnorm_wordpool_576.txt	LTP334	ltpFR2	11	10	GRILL	661	n/a	n/a	0	0	0
1824540	WORD	wordpools/wasnorm_wordpool_576.txt	LTP334	ltpFR2	11	10	LACE	792	n/a	n/a	0	0	0
1827289	WORD	wordpools/wasnorm_wordpool_576.txt	LTP334	ltpFR2	11	10	SCISSORS	1250	n/a	n/a	0	0	0
1829989	WORD	wordpools/wasnorm_wordpool_576.txt	LTP334	ltpFR2	11	10	CUPBOARD	425	n/a	n/a	0	0	0
1832653	WORD	wordpools/wasnorm_wordpool_576.txt	LTP334	ltpFR2	11	10	CROWN	415	n/a	n/a	0	0	0
1835319	WORD	wordpools/wasnorm_wordpool_576.txt	LTP334	ltpFR2	11	10	SODA	1341	n/a	n/a	0	0	0
1837985	WORD	wordpools/wasnorm_wordpool_576.txt	LTP334	ltpFR2	11	10	BALLOON	75	n/a	n/a	0	0	0
1840600	WORD	wordpools/wasnorm_wordpool_576.txt	LTP334	ltpFR2	11	10	GLASS	639	n/a	n/a	0	0	0
1843282	WORD	wordpools/wasnorm_wordpool_576.txt	LTP334	ltpFR2	11	10	MARKER	870	n/a	n/a	0	0	0
1845732	WORD	wordpools/wasnorm_wordpool_576.txt	LTP334	ltpFR2	11	10	GOBLIN	645	n/a	n/a	0	0	0
1848346	WORD	wordpools/wasnorm_wordpool_576.txt	LTP334	ltpFR2	11	10	LONDON	843	n/a	n/a	0	0	0
1849963	START	n/a	LTP334	ltpFR2	11	n/a	n/a	n/a	14	n/a	n/a	n/a	n/a
1850935	DISTRACTOR	n/a	LTP334	ltpFR2	11	10	n/a	n/a	n/a	n/a	0	0	0
1850946	PROB	n/a	LTP334	ltpFR2	11	n/a	n/a	n/a	14	10	3	1	6
1852228	PROB	n/a	LTP334	ltpFR2	11	n/a	n/a	n/a	14	12	1	2	9
1853560	PROB	n/a	LTP334	ltpFR2	11	n/a	n/a	n/a	14	13	6	3	4
1855094	PROB	n/a	LTP334	ltpFR2	11	n/a	n/a	n/a	14	18	9	2	7
1856609	PROB	n/a	LTP334	ltpFR2	11	n/a	n/a	n/a	14	11	1	3	7
1857760	PROB	n/a	LTP334	ltpFR2	11	n/a	n/a	n/a	14	14	2	6	6
1859059	PROB	n/a	LTP334	ltpFR2	11	n/a	n/a	n/a	14	15	5	6	4
1860507	PROB	n/a	LTP334	ltpFR2	11	n/a	n/a	n/a	14	7	3	3	1
1861691	PROB	n/a	LTP334	ltpFR2	11	n/a	n/a	n/a	14	16	2	7	7
1862940	PROB	n/a	LTP334	ltpFR2	11	n/a	n/a	n/a	14	8	2	5	1
1864622	PROB	n/a	LTP334	ltpFR2	11	n/a	n/a	n/a	14	15	6	1	8
1866022	PROB	n/a	LTP334	ltpFR2	11	n/a	n/a	n/a	14	9	1	1	7
1867188	PROB	n/a	LTP334	ltpFR2	11	n/a	n/a	n/a	14	10	1	4	5
1868454	PROB	n/a	LTP334	ltpFR2	11	n/a	n/a	n/a	14	23	8	6	9
1870203	PROB	n/a	LTP334	ltpFR2	11	n/a	n/a	n/a	14	19	1	9	9
1871552	PROB	n/a	LTP334	ltpFR2	11	n/a	n/a	n/a	14	17	2	6	9
1873682	STOP	n/a	LTP334	ltpFR2	11	n/a	n/a	n/a	14	n/a	n/a	n/a	n/a
1875885	REC_START	n/a	LTP334	ltpFR2	11	10	n/a	n/a	n/a	n/a	0	0	0
1876515	REC_WORD	wordpools/wasnorm_wordpool_576.txt	LTP334	ltpFR2	11	10	LACE	792	n/a	n/a	0	0	0
1877026	REC_WORD	wordpools/wasnorm_wordpool_576.txt	LTP334	ltpFR2	11	10	SCISSORS	1250	n/a	n/a	0	0	0
1879282	REC_WORD	wordpools/wasnorm_wordpool_576.txt	LTP334	ltpFR2	11	10	GOBLIN	645	n/a	n/a	0	0	0
1881274	REC_WORD	wordpools/wasnorm_wordpool_576.txt	LTP334	ltpFR2	11	10	BOX	159	n/a	n/a	0	0	0
1885168	REC_WORD	wordpools/wasnorm_wordpool_576.txt	LTP334	ltpFR2	11	10	FLEET	578	n/a	n/a	0	0	0
1886137	REC_WORD	wordpools/wasnorm_wordpool_576.txt	LTP334	ltpFR2	11	10	PLAZA	1088	n/a	n/a	0	0	0
1886960	REC_WORD	wordpools/wasnorm_wordpool_576.txt	LTP334	ltpFR2	11	10	GRILL	661	n/a	n/a	0	0	0
1894823	REC_WORD	wordpools/wasnorm_wordpool_576.txt	LTP334	ltpFR2	11	10	FLOWER	584	n/a	n/a	0	0	0
1895631	REC_WORD	wordpools/wasnorm_wordpool_576.txt	LTP334	ltpFR2	11	10	FOREST	593	n/a	n/a	0	0	0
1898454	REC_WORD	wordpools/wasnorm_wordpool_576.txt	LTP334	ltpFR2	11	10	GARDEN	623	n/a	n/a	0	0	0
1899015	REC_WORD	wordpools/wasnorm_wordpool_576.txt	LTP334	ltpFR2	11	10	HEDGE	699	n/a	n/a	0	0	0
1900934	REC_WORD	wordpools/wasnorm_wordpool_576.txt	LTP334	ltpFR2	11	10	CHAUFFEUR	283	n/a	n/a	0	0	0
1901783	REC_WORD	wordpools/wasnorm_wordpool_576.txt	LTP334	ltpFR2	11	10	DASHBOARD	441	n/a	n/a	0	0	0
1903244	REC_WORD	wordpools/wasnorm_wordpool_576.txt	LTP334	ltpFR2	11	10	CUPBOARD	425	n/a	n/a	0	0	0
1966309	DISTRACTOR	n/a	LTP334	ltpFR2	11	11	n/a	n/a	n/a	n/a	0	0	0
1966310	START	n/a	LTP334	ltpFR2	11	n/a	n/a	n/a	15	n/a	n/a	n/a	n/a
1966326	PROB	n/a	LTP334	ltpFR2	11	n/a	n/a	n/a	15	20	5	6	9
1968010	PROB	n/a	LTP334	ltpFR2	11	n/a	n/a	n/a	15	23	8	8	7
1971207	PROB	n/a	LTP334	ltpFR2	11	n/a	n/a	n/a	15	13	7	4	2
1973206	PROB	n/a	LTP334	ltpFR2	11	n/a	n/a	n/a	15	18	8	4	6
1976488	PROB	n/a	LTP334	ltpFR2	11	n/a	n/a	n/a	15	11	4	6	1
1977571	PROB	n/a	LTP334	ltpFR2	11	n/a	n/a	n/a	15	13	2	5	6
1978971	PROB	n/a	LTP334	ltpFR2	11	n/a	n/a	n/a	15	16	4	8	4
1980453	PROB	n/a	LTP334	ltpFR2	11	n/a	n/a	n/a	15	16	5	9	2
1982120	PROB	n/a	LTP334	ltpFR2	11	n/a	n/a	n/a	15	16	2	6	8
1983468	PROB	n/a	LTP334	ltpFR2	11	n/a	n/a	n/a	15	7	5	1	1
1984634	PROB	n/a	LTP334	ltpFR2	11	n/a	n/a	n/a	15	8	6	1	1
1985735	PROB	n/a	LTP334	ltpFR2	11	n/a	n/a	n/a	15	21	8	5	8
1987183	PROB	n/a	LTP334	ltpFR2	11	n/a	n/a	n/a	15	20	9	9	2
1988782	STOP	n/a	LTP334	ltpFR2	11	n/a	n/a	n/a	15	n/a	n/a	n/a	n/a
1991315	WORD	wordpools/wasnorm_wordpool_576.txt	LTP334	ltpFR2	11	11	TRUCK	1512	n/a	n/a	0	0	0
1993848	WORD	wordpools/wasnorm_wordpool_576.txt	LTP334	ltpFR2	11	11	VALVE	1546	n/a	n/a	0	0	0
1996396	WORD	wordpools/wasnorm_wordpool_576.txt	LTP334	ltpFR2	11	11	KITCHEN	778	n/a	n/a	0	0	0
1998979	WORD	wordpools/wasnorm_wordpool_576.txt	LTP334	ltpFR2	11	11	ISLAND	745	n/a	n/a	0	0	0
2001544	WORD	wordpools/wasnorm_wordpool_576.txt	LTP334	ltpFR2	11	11	CATTLE	261	n/a	n/a	0	0	0
2004342	WORD	wordpools/wasnorm_wordpool_576.txt	LTP334	ltpFR2	11	11	FLIPPER	580	n/a	n/a	0	0	0
2006775	WORD	wordpools/wasnorm_wordpool_576.txt	LTP334	ltpFR2	11	11	LION	827	n/a	n/a	0	0	0
2009257	WORD	wordpools/wasnorm_wordpool_576.txt	LTP334	ltpFR2	11	11	SHERIFF	1284	n/a	n/a	0	0	0
2011790	WORD	wordpools/wasnorm_wordpool_576.txt	LTP334	ltpFR2	11	11	TURTLE	1522	n/a	n/a	0	0	0
2014538	WORD	wordpools/wasnorm_wordpool_576.txt	LTP334	ltpFR2	11	11	RABBIT	1152	n/a	n/a	0	0	0
2017037	WORD	wordpools/wasnorm_wordpool_576.txt	LTP334	ltpFR2	11	11	MAMMAL	861	n/a	n/a	0	0	0
2019820	WORD	wordpools/wasnorm_wordpool_576.txt	LTP334	ltpFR2	11	11	JELLO	754	n/a	n/a	0	0	0
2022484	WORD	wordpools/wasnorm_wordpool_576.txt	LTP334	ltpFR2	11	11	RACKET	1155	n/a	n/a	0	0	0
2025299	WORD	wordpools/wasnorm_wordpool_576.txt	LTP334	ltpFR2	11	11	PORK	1108	n/a	n/a	0	0	0
2027749	WORD	wordpools/wasnorm_wordpool_576.txt	LTP334	ltpFR2	11	11	ZEBRA	1635	n/a	n/a	0	0	0
2030530	WORD	wordpools/wasnorm_wordpool_576.txt	LTP334	ltpFR2	11	11	TRIBE	1505	n/a	n/a	0	0	0
2033246	WORD	wordpools/wasnorm_wordpool_576.txt	LTP334	ltpFR2	11	11	OINTMENT	974	n/a	n/a	0	0	0
2036029	WORD	wordpools/wasnorm_wordpool_576.txt	LTP334	ltpFR2	11	11	PADDLE	1000	n/a	n/a	0	0	0
2038678	WORD	wordpools/wasnorm_wordpool_576.txt	LTP334	ltpFR2	11	11	STREAM	1392	n/a	n/a	0	0	0
2041425	WORD	wordpools/wasnorm_wordpool_576.txt	LTP334	ltpFR2	11	11	BUBBLE	183	n/a	n/a	0	0	0
2043925	WORD	wordpools/wasnorm_wordpool_576.txt	LTP334	ltpFR2	11	11	JUGGLER	763	n/a	n/a	0	0	0
2046407	WORD	wordpools/wasnorm_wordpool_576.txt	LTP334	ltpFR2	11	11	PUDDLE	1140	n/a	n/a	0	0	0
2049239	WORD	wordpools/wasnorm_wordpool_576.txt	LTP334	ltpFR2	11	11	FLASK	576	n/a	n/a	0	0	0
2051838	WORD	wordpools/wasnorm_wordpool_576.txt	LTP334	ltpFR2	11	11	ROBOT	1200	n/a	n/a	0	0	0
2053454	START	n/a	LTP334	ltpFR2	11	n/a	n/a	n/a	16	n/a	n/a	n/a	n/a
2054340	DISTRACTOR	n/a	LTP334	ltpFR2	11	11	n/a	n/a	n/a	n/a	0	0	0
2054353	PROB	n/a	LTP334	ltpFR2	11	n/a	n/a	n/a	16	17	7	6	4
2056319	PROB	n/a	LTP334	ltpFR2	11	n/a	n/a	n/a	16	18	6	5	7
2057919	PROB	n/a	LTP334	ltpFR2	11	n/a	n/a	n/a	16	11	1	2	8
2059317	PROB	n/a	LTP334	ltpFR2	11	n/a	n/a	n/a	16	12	6	5	1
2060483	PROB	n/a	LTP334	ltpFR2	11	n/a	n/a	n/a	16	12	3	6	3
2063067	PROB	n/a	LTP334	ltpFR2	11	n/a	n/a	n/a	16	21	9	3	9
2065049	PROB	n/a	LTP334	ltpFR2	11	n/a	n/a	n/a	16	15	1	8	6
2067015	PROB	n/a	LTP334	ltpFR2	11	n/a	n/a	n/a	16	22	7	7	8
2068731	PROB	n/a	LTP334	ltpFR2	11	n/a	n/a	n/a	16	11	3	2	6
2071445	PROB	n/a	LTP334	ltpFR2	11	n/a	n/a	n/a	16	13	9	3	1
2073611	PROB	n/a	LTP334	ltpFR2	11	n/a	n/a	n/a	16	9	6	2	1
2075610	PROB	n/a	LTP334	ltpFR2	11	n/a	n/a	n/a	16	14	5	6	3
2077216	STOP	n/a	LTP334	ltpFR2	11	n/a	n/a	n/a	16	n/a	n/a	n/a	n/a
2079242	REC_START	n/a	LTP334	ltpFR2	11	11	n/a	n/a	n/a	n/a	0	0	0
2079526	REC_WORD	wordpools/wasnorm_wordpool_576.txt	LTP334	ltpFR2	11	11	ROBOT	1200	n/a	n/a	0	0	0
2080280	REC_WORD	wordpools/wasnorm_wordpool_576.txt	LTP334	ltpFR2	11	11	OINTMENT	974	n/a	n/a	0	0	0
2080931	REC_WORD	wordpools/wasnorm_wordpool_576.txt	LTP334	ltpFR2	11	11	FLASK	576	n/a	n/a	0	0	0
2081902	REC_WORD	wordpools/wasnorm_wordpool_576.txt	LTP334	ltpFR2	11	11	BUBBLE	183	n/a	n/a	0	0	0
2084086	REC_WORD	wordpools/wasnorm_wordpool_576.txt	LTP334	ltpFR2	11	11	STREAM	1392	n/a	n/a	0	0	0
2085154	REC_WORD	wordpools/wasnorm_wordpool_576.txt	LTP334	ltpFR2	11	11	PADDLE	1000	n/a	n/a	0	0	0
2085912	REC_WORD	wordpools/wasnorm_wordpool_576.txt	LTP334	ltpFR2	11	11	PUDDLE	1140	n/a	n/a	0	0	0
2087959	REC_WORD	wordpools/wasnorm_wordpool_576.txt	LTP334	ltpFR2	11	11	TRUCK	1512	n/a	n/a	0	0	0
2169702	DISTRACTOR	n/a	LTP334	ltpFR2	11	12	n/a	n/a	n/a	n/a	0	0	0
2169702	START	n/a	LTP334	ltpFR2	11	n/a	n/a	n/a	17	n/a	n/a	n/a	n/a
2169718	PROB	n/a	LTP334	ltpFR2	11	n/a	n/a	n/a	17	7	1	1	5
2171151	PROB	n/a	LTP334	ltpFR2	11	n/a	n/a	n/a	17	19	5	6	8
2174548	PROB	n/a	LTP334	ltpFR2	11	n/a	n/a	n/a	17	13	2	7	4
2175949	PROB	n/a	LTP334	ltpFR2	11	n/a	n/a	n/a	17	13	9	3	1
2177431	PROB	n/a	LTP334	ltpFR2	11	n/a	n/a	n/a	17	7	3	3	1
2178698	PROB	n/a	LTP334	ltpFR2	11	n/a	n/a	n/a	17	18	7	8	3
2180529	PROB	n/a	LTP334	ltpFR2	11	n/a	n/a	n/a	17	20	8	6	6
2182312	PROB	n/a	LTP334	ltpFR2	11	n/a	n/a	n/a	17	15	3	6	6
2183611	PROB	n/a	LTP334	ltpFR2	11	n/a	n/a	n/a	17	21	5	8	8
2185111	PROB	n/a	LTP334	ltpFR2	11	n/a	n/a	n/a	17	11	4	3	4
2187094	PROB	n/a	LTP334	ltpFR2	11	n/a	n/a	n/a	17	17	9	7	1
2189192	PROB	n/a	LTP334	ltpFR2	11	n/a	n/a	n/a	17	20	9	3	8
2190625	PROB	n/a	LTP334	ltpFR2	11	n/a	n/a	n/a	17	11	2	2	9
2193702	STOP	n/a	LTP334	ltpFR2	11	n/a	n/a	n/a	17	n/a	n/a	n/a	n/a
2194907	WORD	wordpools/wasnorm_wordpool_576.txt	LTP334	ltpFR2	11	12	PERFUME	1049	n/a	n/a	0	0	0
2197706	WORD	wordpools/wasnorm_wordpool_576.txt	LTP334	ltpFR2	11	12	SUPPER	1411	n/a	n/a	0	0	0
2200470	WORD	wordpools/wasnorm_wordpool_576.txt	LTP334	ltpFR2	11	12	SWORD	1423	n/a	n/a	0	0	0
2203153	WORD	wordpools/wasnorm_wordpool_576.txt	LTP334	ltpFR2	11	12	PLATE	1086	n/a	n/a	0	0	0
2205852	WORD	wordpools/wasnorm_wordpool_576.txt	LTP334	ltpFR2	11	12	INFANT	737	n/a	n/a	0	0	0
2208366	WORD	wordpools/wasnorm_wordpool_576.txt	LTP334	ltpFR2	11	12	LASER	801	n/a	n/a	0	0	0
2210850	WORD	wordpools/wasnorm_wordpool_576.txt	LTP334	ltpFR2	11	12	PISTOL	1075	n/a	n/a	0	0	0
2213647	WORD	wordpools/wasnorm_wordpool_576.txt	LTP334	ltpFR2	11	12	BOYFRIEND	162	n/a	n/a	0	0	0
2216097	WORD	wordpools/wasnorm_wordpool_576.txt	LTP334	ltpFR2	11	12	MACHINE	852	n/a	n/a	0	0	0
2218763	WORD	wordpools/wasnorm_wordpool_576.txt	LTP334	ltpFR2	11	12	ONION	977	n/a	n/a	0	0	0
2221427	WORD	wordpools/wasnorm_wordpool_576.txt	LTP334	ltpFR2	11	12	MARS	873	n/a	n/a	0	0	0
2223894	WORD	wordpools/wasnorm_wordpool_576.txt	LTP334	ltpFR2	11	12	SIDEWALK	1303	n/a	n/a	0	0	0
2226592	WORD	wordpools/wasnorm_wordpool_576.txt	LTP334	ltpFR2	11	12	BISON	131	n/a	n/a	0	0	0
2229075	WORD	wordpools/wasnorm_wordpool_576.txt	LTP334	ltpFR2	11	12	CREATURE	403	n/a	n/a	0	0	0
2231874	WORD	wordpools/wasnorm_wordpool_576.txt	LTP334	ltpFR2	11	12	BRIEFCASE	175	n/a	n/a	0	0	0
2234371	WORD	wordpools/wasnorm_wordpool_576.txt	LTP334	ltpFR2	11	12	NEUTRON	947	n/a	n/a	0	0	0
2237021	WORD	wordpools/wasnorm_wordpool_576.txt	LTP334	ltpFR2	11	12	ASIA	46	n/a	n/a	0	0	0
2239519	WORD	wordpools/wasnorm_wordpool_576.txt	LTP334	ltpFR2	11	12	PISTON	1076	n/a	n/a	0	0	0
2241952	WORD	wordpools/wasnorm_wordpool_576.txt	LTP334	ltpFR2	11	12	CHEST	295	n/a	n/a	0	0	0
2244467	WORD	wordpools/wasnorm_wordpool_576.txt	LTP334	ltpFR2	11	12	RIFLE	1192	n/a	n/a	0	0	0
2247167	WORD	wordpools/wasnorm_wordpool_576.txt	LTP334	ltpFR2	11	12	VAGRANT	1544	n/a	n/a	0	0	0
2249682	WORD	wordpools/wasnorm_wordpool_576.txt	LTP334	ltpFR2	11	12	PLASTER	1085	n/a	n/a	0	0	0
2252330	WORD	wordpools/wasnorm_wordpool_576.txt	LTP334	ltpFR2	11	12	FRANCE	601	n/a	n/a	0	0	0
2254780	WORD	wordpools/wasnorm_wordpool_576.txt	LTP334	ltpFR2	11	12	BLOUSE	139	n/a	n/a	0	0	0
2256395	START	n/a	LTP334	ltpFR2	11	n/a	n/a	n/a	18	n/a	n/a	n/a	n/a
2257301	DISTRACTOR	n/a	LTP334	ltpFR2	11	12	n/a	n/a	n/a	n/a	0	0	0
2257311	PROB	n/a	LTP334	ltpFR2	11	n/a	n/a	n/a	18	8	1	2	5
2258610	PROB	n/a	LTP334	ltpFR2	11	n/a	n/a	n/a	18	19	3	8	8
2260827	PROB	n/a	LTP334	ltpFR2	11	n/a	n/a	n/a	18	10	3	5	2
2262209	PROB	n/a	LTP334	ltpFR2	11	n/a	n/a	n/a	18	23	6	9	8
2264009	PROB	n/a	LTP334	ltpFR2	11	n/a	n/a	n/a	18	3	1	1	1
2264975	PROB	n/a	LTP334	ltpFR2	11	n/a	n/a	n/a	18	12	2	8	2
2266091	PROB	n/a	LTP334	ltpFR2	11	n/a	n/a	n/a	18	17	9	2	6
2268091	PROB	n/a	LTP334	ltpFR2	11	n/a	n/a	n/a	18	19	2	8	9
2269339	PROB	n/a	LTP334	ltpFR2	11	n/a	n/a	n/a	18	10	2	4	4
2271056	PROB	n/a	LTP334	ltpFR2	11	n/a	n/a	n/a	18	16	3	5	8
2272571	PROB	n/a	LTP334	ltpFR2	11	n/a	n/a	n/a	18	9	2	2	5
2273705	PROB	n/a	LTP334	ltpFR2	11	n/a	n/a	n/a	18	15	6	6	3
2274937	PROB	n/a	LTP334	ltpFR2	11	n/a	n/a	n/a	18	16	8	4	4
2276986	PROB	n/a	LTP334	ltpFR2	11	n/a	n/a	n/a	18	5	2	2	1
2278086	PROB	n/a	LTP334	ltpFR2	11	n/a	n/a	n/a	18	5	1	1	3
2279079	STOP	n/a	LTP334	ltpFR2	11	n/a	n/a	n/a	18	n/a	n/a	n/a	n/a
2282234	REC_START	n/a	LTP334	ltpFR2	11	12	n/a	n/a	n/a	n/a	0	0	0
2282983	REC_WORD	wordpools/wasnorm_wordpool_576.txt	LTP334	ltpFR2	11	12	SWORD	1423	n/a	n/a	0	0	0
2283803	REC_WORD	wordpools/wasnorm_wordpool_576.txt	LTP334	ltpFR2	11	12	LASER	801	n/a	n/a	0	0	0
2284767	REC_WORD	wordpools/wasnorm_wordpool_576.txt	LTP334	ltpFR2	11	12	PISTOL	1075	n/a	n/a	0	0	0
2285775	REC_WORD	wordpools/wasnorm_wordpool_576.txt	LTP334	ltpFR2	11	12	RIFLE	1192	n/a	n/a	0	0	0
2286679	REC_WORD	wordpools/wasnorm_wordpool_576.txt	LTP334	ltpFR2	11	12	PISTON	1076	n/a	n/a	0	0	0
2287524	REC_WORD	wordpools/wasnorm_wordpool_576.txt	LTP334	ltpFR2	11	12	CHEST	295	n/a	n/a	0	0	0
2290035	REC_WORD	wordpools/wasnorm_wordpool_576.txt	LTP334	ltpFR2	11	12	VALVE	1546	n/a	n/a	0	0	0
2295011	REC_WORD	wordpools/wasnorm_wordpool_576.txt	LTP334	ltpFR2	11	12	BOYFRIEND	162	n/a	n/a	0	0	0
2295703	REC_WORD	wordpools/wasnorm_wordpool_576.txt	LTP334	ltpFR2	11	12	MACHINE	852	n/a	n/a	0	0	0
2298089	REC_WORD	wordpools/wasnorm_wordpool_576.txt	LTP334	ltpFR2	11	12	MARS	873	n/a	n/a	0	0	0
2300590	REC_WORD	wordpools/wasnorm_wordpool_576.txt	LTP334	ltpFR2	11	12	PERFUME	1049	n/a	n/a	0	0	0
2301383	REC_WORD	wordpools/wasnorm_wordpool_576.txt	LTP334	ltpFR2	11	12	SUPPER	1411	n/a	n/a	0	0	0
2302282	REC_WORD	wordpools/wasnorm_wordpool_576.txt	LTP334	ltpFR2	11	12	ONION	977	n/a	n/a	0	0	0
2302975	REC_WORD	wordpools/wasnorm_wordpool_576.txt	LTP334	ltpFR2	11	12	BISON	131	n/a	n/a	0	0	0
2303582	REC_WORD	wordpools/wasnorm_wordpool_576.txt	LTP334	ltpFR2	11	12	CREATURE	403	n/a	n/a	0	0	0
2304276	REC_WORD	wordpools/wasnorm_wordpool_576.txt	LTP334	ltpFR2	11	12	PLATE	1086	n/a	n/a	0	0	0
2312354	REC_WORD	wordpools/wasnorm_wordpool_576.txt	LTP334	ltpFR2	11	12	ASIA	46	n/a	n/a	0	0	0
2314161	REC_WORD	wordpools/wasnorm_wordpool_576.txt	LTP334	ltpFR2	11	12	FRANCE	601	n/a	n/a	0	0	0
2315301	REC_WORD	wordpools/wasnorm_wordpool_576.txt	LTP334	ltpFR2	11	12	BLOUSE	139	n/a	n/a	0	0	0
2316088	REC_WORD	wordpools/wasnorm_wordpool_576.txt	LTP334	ltpFR2	11	12	PLASTER	1085	n/a	n/a	0	0	0
2319186	REC_WORD	wordpools/wasnorm_wordpool_576.txt	LTP334	ltpFR2	11	12	NEUTRON	947	n/a	n/a	0	0	0
2320399	REC_WORD	wordpools/wasnorm_wordpool_576.txt	LTP334	ltpFR2	11	12	BRIEFCASE	175	n/a	n/a	0	0	0
2326334	REC_WORD	wordpools/wasnorm_wordpool_576.txt	LTP334	ltpFR2	11	12	SIDEWALK	1303	n/a	n/a	0	0	0
2372693	WORD	wordpools/wasnorm_wordpool_576.txt	LTP334	ltpFR2	11	13	YARN	1631	n/a	n/a	0	0	0
2375142	WORD	wordpools/wasnorm_wordpool_576.txt	LTP334	ltpFR2	11	13	MEDAL	885	n/a	n/a	0	0	0
2377791	WORD	wordpools/wasnorm_wordpool_576.txt	LTP334	ltpFR2	11	13	JAPAN	749	n/a	n/a	0	0	0
2380539	WORD	wordpools/wasnorm_wordpool_576.txt	LTP334	ltpFR2	11	13	GALLON	618	n/a	n/a	0	0	0
2383055	WORD	wordpools/wasnorm_wordpool_576.txt	LTP334	ltpFR2	11	13	CRAB	397	n/a	n/a	0	0	0
2385636	WORD	wordpools/wasnorm_wordpool_576.txt	LTP334	ltpFR2	11	13	SPOOL	1356	n/a	n/a	0	0	0
2388452	WORD	wordpools/wasnorm_wordpool_576.txt	LTP334	ltpFR2	11	13	TWISTER	1530	n/a	n/a	0	0	0
2391002	WORD	wordpools/wasnorm_wordpool_576.txt	LTP334	ltpFR2	11	13	BURGLAR	200	n/a	n/a	0	0	0
2393466	WORD	wordpools/wasnorm_wordpool_576.txt	LTP334	ltpFR2	11	13	CUSTARD	429	n/a	n/a	0	0	0
2396265	WORD	wordpools/wasnorm_wordpool_576.txt	LTP334	ltpFR2	11	13	CROSS	413	n/a	n/a	0	0	0
2398881	WORD	wordpools/wasnorm_wordpool_576.txt	LTP334	ltpFR2	11	13	TEMPLE	1448	n/a	n/a	0	0	0
2401529	WORD	wordpools/wasnorm_wordpool_576.txt	LTP334	ltpFR2	11	13	EUROPE	541	n/a	n/a	0	0	0
2404228	WORD	wordpools/wasnorm_wordpool_576.txt	LTP334	ltpFR2	11	13	KETCHUP	771	n/a	n/a	0	0	0
2406811	WORD	wordpools/wasnorm_wordpool_576.txt	LTP334	ltpFR2	11	13	FOREHEAD	592	n/a	n/a	0	0	0
2409509	WORD	wordpools/wasnorm_wordpool_576.txt	LTP334	ltpFR2	11	13	DUST	508	n/a	n/a	0	0	0
2412191	WORD	wordpools/wasnorm_wordpool_576.txt	LTP334	ltpFR2	11	13	PERCH	1048	n/a	n/a	0	0	0
2414891	WORD	wordpools/wasnorm_wordpool_576.txt	LTP334	ltpFR2	11	13	TOURIST	1488	n/a	n/a	0	0	0
2417355	WORD	wordpools/wasnorm_wordpool_576.txt	LTP334	ltpFR2	11	13	BREAST	171	n/a	n/a	0	0	0
2420022	WORD	wordpools/wasnorm_wordpool_576.txt	LTP334	ltpFR2	11	13	SHOVEL	1295	n/a	n/a	0	0	0
2422586	WORD	wordpools/wasnorm_wordpool_576.txt	LTP334	ltpFR2	11	13	FLUTE	585	n/a	n/a	0	0	0
2425086	WORD	wordpools/wasnorm_wordpool_576.txt	LTP334	ltpFR2	11	13	BANJO	82	n/a	n/a	0	0	0
2427852	WORD	wordpools/wasnorm_wordpool_576.txt	LTP334	ltpFR2	11	13	BOUQUET	157	n/a	n/a	0	0	0
2430549	WORD	wordpools/wasnorm_wordpool_576.txt	LTP334	ltpFR2	11	13	SCARF	1246	n/a	n/a	0	0	0
2433315	WORD	wordpools/wasnorm_wordpool_576.txt	LTP334	ltpFR2	11	13	SKIRT	1319	n/a	n/a	0	0	0
2434932	START	n/a	LTP334	ltpFR2	11	n/a	n/a	n/a	19	n/a	n/a	n/a	n/a
2435926	DISTRACTOR	n/a	LTP334	ltpFR2	11	13	n/a	n/a	n/a	n/a	0	0	0
2435931	PROB	n/a	LTP334	ltpFR2	11	n/a	n/a	n/a	19	18	5	9	4
2438179	PROB	n/a	LTP334	ltpFR2	11	n/a	n/a	n/a	19	19	7	8	4
2439663	PROB	n/a	LTP334	ltpFR2	11	n/a	n/a	n/a	19	8	2	5	1
2441129	PROB	n/a	LTP334	ltpFR2	11	n/a	n/a	n/a	19	12	3	1	8
2442461	PROB	n/a	LTP334	ltpFR2	11	n/a	n/a	n/a	19	15	9	1	5
2444326	PROB	n/a	LTP334	ltpFR2	11	n/a	n/a	n/a	19	6	3	1	2
2445777	PROB	n/a	LTP334	ltpFR2	11	n/a	n/a	n/a	19	15	4	8	3
2447642	PROB	n/a	LTP334	ltpFR2	11	n/a	n/a	n/a	19	20	4	9	7
2449958	PROB	n/a	LTP334	ltpFR2	11	n/a	n/a	n/a	19	3	1	1	1
2450924	PROB	n/a	LTP334	ltpFR2	11	n/a	n/a	n/a	19	15	7	2	6
2452389	PROB	n/a	LTP334	ltpFR2	11	n/a	n/a	n/a	19	13	3	4	6
2454040	PROB	n/a	LTP334	ltpFR2	11	n/a	n/a	n/a	19	6	1	2	3
2455555	PROB	n/a	LTP334	ltpFR2	11	n/a	n/a	n/a	19	8	1	1	6
2456888	PROB	n/a	LTP334	ltpFR2	11	n/a	n/a	n/a	19	20	2	9	9
2458109	STOP	n/a	LTP334	ltpFR2	11	n/a	n/a	n/a	19	n/a	n/a	n/a	n/a
2460687	REC_START	n/a	LTP334	ltpFR2	11	13	n/a	n/a	n/a	n/a	0	0	0
2461338	REC_WORD	wordpools/wasnorm_wordpool_576.txt	LTP334	ltpFR2	11	13	PERCH	1048	n/a	n/a	0	0	0
2462076	REC_WORD	wordpools/wasnorm_wordpool_576.txt	LTP334	ltpFR2	11	13	DUST	508	n/a	n/a	0	0	0
2462729	REC_WORD	wordpools/wasnorm_wordpool_576.txt	LTP334	ltpFR2	11	13	FOREHEAD	592	n/a	n/a	0	0	0
2466587	REC_WORD	wordpools/wasnorm_wordpool_576.txt	LTP334	ltpFR2	11	13	JAPAN	749	n/a	n/a	0	0	0
2468688	REC_WORD	wordpools/wasnorm_wordpool_576.txt	LTP334	ltpFR2	11	13	TOURIST	1488	n/a	n/a	0	0	0
2469586	REC_WORD	wordpools/wasnorm_wordpool_576.txt	LTP334	ltpFR2	11	13	EUROPE	541	n/a	n/a	0	0	0
2474805	REC_WORD	wordpools/wasnorm_wordpool_576.txt	LTP334	ltpFR2	11	13	FLUTE	585	n/a	n/a	0	0	0
2475818	REC_WORD	wordpools/wasnorm_wordpool_576.txt	LTP334	ltpFR2	11	13	BANJO	82	n/a	n/a	0	0	0
2551129	DISTRACTOR	n/a	LTP334	ltpFR2	11	14	n/a	n/a	n/a	n/a	0	0	0
2551129	START	n/a	LTP334	ltpFR2	11	n/a	n/a	n/a	20	n/a	n/a	n/a	n/a
2551146	PROB	n/a	LTP334	ltpFR2	11	n/a	n/a	n/a	20	12	9	2	1
2552427	PROB	n/a	LTP334	ltpFR2	11	n/a	n/a	n/a	20	20	7	6	7
2553978	PROB	n/a	LTP334	ltpFR2	11	n/a	n/a	n/a	20	24	8	8	8
2557010	PROB	n/a	LTP334	ltpFR2	11	n/a	n/a	n/a	20	20	7	4	9
2558408	PROB	n/a	LTP334	ltpFR2	11	n/a	n/a	n/a	20	20	7	6	7
2560357	PROB	n/a	LTP334	ltpFR2	11	n/a	n/a	n/a	20	19	7	4	8
2563223	PROB	n/a	LTP334	ltpFR2	11	n/a	n/a	n/a	20	19	7	6	6
2564639	PROB	n/a	LTP334	ltpFR2	11	n/a	n/a	n/a	20	19	6	4	9
2565856	PROB	n/a	LTP334	ltpFR2	11	n/a	n/a	n/a	20	14	1	6	7
2567587	PROB	n/a	LTP334	ltpFR2	11	n/a	n/a	n/a	20	13	3	2	8
2568988	PROB	n/a	LTP334	ltpFR2	11	n/a	n/a	n/a	20	18	9	7	2
2570853	PROB	n/a	LTP334	ltpFR2	11	n/a	n/a	n/a	20	18	7	4	7
2572402	PROB	n/a	LTP334	ltpFR2	11	n/a	n/a	n/a	20	15	2	4	9
2573720	STOP	n/a	LTP334	ltpFR2	11	n/a	n/a	n/a	20	n/a	n/a	n/a	n/a
2576084	WORD	wordpools/wasnorm_wordpool_576.txt	LTP334	ltpFR2	11	14	MILK	895	n/a	n/a	0	0	0
2578649	WORD	wordpools/wasnorm_wordpool_576.txt	LTP334	ltpFR2	11	14	SIBLING	1301	n/a	n/a	0	0	0
2581181	WORD	wordpools/wasnorm_wordpool_576.txt	LTP334	ltpFR2	11	14	CRIB	407	n/a	n/a	0	0	0
2583914	WORD	wordpools/wasnorm_wordpool_576.txt	LTP334	ltpFR2	11	14	GRAVE	658	n/a	n/a	0	0	0
2586612	WORD	wordpools/wasnorm_wordpool_576.txt	LTP334	ltpFR2	11	14	BINDER	127	n/a	n/a	0	0	0
2589129	WORD	wordpools/wasnorm_wordpool_576.txt	LTP334	ltpFR2	11	14	MAPLE	866	n/a	n/a	0	0	0
2591911	WORD	wordpools/wasnorm_wordpool_576.txt	LTP334	ltpFR2	11	14	TWIG	1527	n/a	n/a	0	0	0
2594342	WORD	wordpools/wasnorm_wordpool_576.txt	LTP334	ltpFR2	11	14	BARREL	91	n/a	n/a	0	0	0
2596992	WORD	wordpools/wasnorm_wordpool_576.txt	LTP334	ltpFR2	11	14	ZIPPER	1636	n/a	n/a	0	0	0
2599473	WORD	wordpools/wasnorm_wordpool_576.txt	LTP334	ltpFR2	11	14	SHORTS	1293	n/a	n/a	0	0	0
2601973	WORD	wordpools/wasnorm_wordpool_576.txt	LTP334	ltpFR2	11	14	TYPIST	1532	n/a	n/a	0	0	0
2604755	WORD	wordpools/wasnorm_wordpool_576.txt	LTP334	ltpFR2	11	14	SOFTBALL	1343	n/a	n/a	0	0	0
2607436	WORD	wordpools/wasnorm_wordpool_576.txt	LTP334	ltpFR2	11	14	LABEL	790	n/a	n/a	0	0	0
2609919	WORD	wordpools/wasnorm_wordpool_576.txt	LTP334	ltpFR2	11	14	WORKER	1621	n/a	n/a	0	0	0
2612701	WORD	wordpools/wasnorm_wordpool_576.txt	LTP334	ltpFR2	11	14	LIZARD	834	n/a	n/a	0	0	0
2615499	WORD	wordpools/wasnorm_wordpool_576.txt	LTP334	ltpFR2	11	14	MONSTER	912	n/a	n/a	0	0	0
2617932	WORD	wordpools/wasnorm_wordpool_576.txt	LTP334	ltpFR2	11	14	WIFE	1609	n/a	n/a	0	0	0
2620681	WORD	wordpools/wasnorm_wordpool_576.txt	LTP334	ltpFR2	11	14	FREEZER	604	n/a	n/a	0	0	0
2623195	WORD	wordpools/wasnorm_wordpool_576.txt	LTP334	ltpFR2	11	14	PAIL	1002	n/a	n/a	0	0	0
2625729	WORD	wordpools/wasnorm_wordpool_576.txt	LTP334	ltpFR2	11	14	BABY	64	n/a	n/a	0	0	0
2628460	WORD	wordpools/wasnorm_wordpool_576.txt	LTP334	ltpFR2	11	14	CYCLONE	431	n/a	n/a	0	0	0
2631093	WORD	wordpools/wasnorm_wordpool_576.txt	LTP334	ltpFR2	11	14	RUG	1215	n/a	n/a	0	0	0
2633557	WORD	wordpools/wasnorm_wordpool_576.txt	LTP334	ltpFR2	11	14	LILY	821	n/a	n/a	0	0	0
2636290	WORD	wordpools/wasnorm_wordpool_576.txt	LTP334	ltpFR2	11	14	CATCHER	258	n/a	n/a	0	0	0
2637907	START	n/a	LTP334	ltpFR2	11	n/a	n/a	n/a	21	n/a	n/a	n/a	n/a
2638943	DISTRACTOR	n/a	LTP334	ltpFR2	11	14	n/a	n/a	n/a	n/a	0	0	0
2638956	PROB	n/a	LTP334	ltpFR2	11	n/a	n/a	n/a	21	13	3	1	9
2640538	PROB	n/a	LTP334	ltpFR2	11	n/a	n/a	n/a	21	15	6	5	4
2642337	PROB	n/a	LTP334	ltpFR2	11	n/a	n/a	n/a	21	12	5	4	3
2643720	PROB	n/a	LTP334	ltpFR2	11	n/a	n/a	n/a	21	15	4	6	5
2645619	PROB	n/a	LTP334	ltpFR2	11	n/a	n/a	n/a	21	12	1	7	4
2647019	PROB	n/a	LTP334	ltpFR2	11	n/a	n/a	n/a	21	12	6	2	4
2648434	PROB	n/a	LTP334	ltpFR2	11	n/a	n/a	n/a	21	15	7	7	1
2649968	PROB	n/a	LTP334	ltpFR2	11	n/a	n/a	n/a	21	8	2	3	3
2651599	PROB	n/a	LTP334	ltpFR2	11	n/a	n/a	n/a	21	18	6	3	9
2653150	PROB	n/a	LTP334	ltpFR2	11	n/a	n/a	n/a	21	15	5	2	8
2654565	PROB	n/a	LTP334	ltpFR2	11	n/a	n/a	n/a	21	25	8	9	8
2656447	PROB	n/a	LTP334	ltpFR2	11	n/a	n/a	n/a	21	11	6	3	2
2658479	PROB	n/a	LTP334	ltpFR2	11	n/a	n/a	n/a	21	8	1	1	6
2659897	PROB	n/a	LTP334	ltpFR2	11	n/a	n/a	n/a	21	10	5	3	2
2661123	STOP	n/a	LTP334	ltpFR2	11	n/a	n/a	n/a	21	n/a	n/a	n/a	n/a
2663795	REC_START	n/a	LTP334	ltpFR2	11	14	n/a	n/a	n/a	n/a	0	0	0
2665362	REC_WORD	wordpools/wasnorm_wordpool_576.txt	LTP334	ltpFR2	11	14	LABEL	790	n/a	n/a	0	0	0
2666838	REC_WORD	wordpools/wasnorm_wordpool_576.txt	LTP334	ltpFR2	11	14	BABY	64	n/a	n/a	0	0	0
2668569	REC_WORD	wordpools/wasnorm_wordpool_576.txt	LTP334	ltpFR2	11	14	CRIB	407	n/a	n/a	0	0	0
2669432	REC_WORD	wordpools/wasnorm_wordpool_576.txt	LTP334	ltpFR2	11	14	GRAVE	658	n/a	n/a	0	0	0
2670222	REC_WORD	wordpools/wasnorm_wordpool_576.txt	LTP334	ltpFR2	11	14	SOFTBALL	1343	n/a	n/a	0	0	0
2675122	REC_WORD	wordpools/wasnorm_wordpool_576.txt	LTP334	ltpFR2	11	14	MILK	895	n/a	n/a	0	0	0
2675950	REC_WORD	wordpools/wasnorm_wordpool_576.txt	LTP334	ltpFR2	11	14	MAPLE	866	n/a	n/a	0	0	0
2676808	REC_WORD	wordpools/wasnorm_wordpool_576.txt	LTP334	ltpFR2	11	14	TWIG	1527	n/a	n/a	0	0	0
2677656	REC_WORD	wordpools/wasnorm_wordpool_576.txt	LTP334	ltpFR2	11	14	BARREL	91	n/a	n/a	0	0	0
2681951	REC_WORD	wordpools/wasnorm_wordpool_576.txt	LTP334	ltpFR2	11	14	TYPIST	1532	n/a	n/a	0	0	0
2687914	REC_WORD	wordpools/wasnorm_wordpool_576.txt	LTP334	ltpFR2	11	14	ZIPPER	1636	n/a	n/a	0	0	0
2688587	REC_WORD	wordpools/wasnorm_wordpool_576.txt	LTP334	ltpFR2	11	14	SHORTS	1293	n/a	n/a	0	0	0
2689569	REC_WORD	wordpools/wasnorm_wordpool_576.txt	LTP334	ltpFR2	11	14	BINDER	127	n/a	n/a	0	0	0
2754236	DISTRACTOR	n/a	LTP334	ltpFR2	11	15	n/a	n/a	n/a	n/a	0	0	0
2754236	START	n/a	LTP334	ltpFR2	11	n/a	n/a	n/a	22	n/a	n/a	n/a	n/a
2754253	PROB	n/a	LTP334	ltpFR2	11	n/a	n/a	n/a	22	9	4	2	3
2756335	PROB	n/a	LTP334	ltpFR2	11	n/a	n/a	n/a	22	18	4	7	7
2757786	PROB	n/a	LTP334	ltpFR2	11	n/a	n/a	n/a	22	17	9	1	7
2759184	PROB	n/a	LTP334	ltpFR2	11	n/a	n/a	n/a	22	24	9	7	8
2761767	PROB	n/a	LTP334	ltpFR2	11	n/a	n/a	n/a	22	13	4	8	1
2763199	PROB	n/a	LTP334	ltpFR2	11	n/a	n/a	n/a	22	20	6	5	9
2764631	PROB	n/a	LTP334	ltpFR2	11	n/a	n/a	n/a	22	25	8	6	9
2766614	PROB	n/a	LTP334	ltpFR2	11	n/a	n/a	n/a	22	18	8	8	2
2768197	PROB	n/a	LTP334	ltpFR2	11	n/a	n/a	n/a	22	7	2	2	3
2769847	PROB	n/a	LTP334	ltpFR2	11	n/a	n/a	n/a	22	12	8	1	3
2771713	PROB	n/a	LTP334	ltpFR2	11	n/a	n/a	n/a	22	12	4	7	1
2773012	PROB	n/a	LTP334	ltpFR2	11	n/a	n/a	n/a	22	14	4	6	4
2774277	PROB	n/a	LTP334	ltpFR2	11	n/a	n/a	n/a	22	13	5	3	5
2775577	PROB	n/a	LTP334	ltpFR2	11	n/a	n/a	n/a	22	16	6	5	5
2776863	STOP	n/a	LTP334	ltpFR2	11	n/a	n/a	n/a	22	n/a	n/a	n/a	n/a
2779126	WORD	wordpools/wasnorm_wordpool_576.txt	LTP334	ltpFR2	11	15	PASTA	1021	n/a	n/a	0	0	0
2781640	WORD	wordpools/wasnorm_wordpool_576.txt	LTP334	ltpFR2	11	15	ROD	1203	n/a	n/a	0	0	0
2784124	WORD	wordpools/wasnorm_wordpool_576.txt	LTP334	ltpFR2	11	15	ANKLE	24	n/a	n/a	0	0	0
2786571	WORD	wordpools/wasnorm_wordpool_576.txt	LTP334	ltpFR2	11	15	MESSAGE	888	n/a	n/a	0	0	0
2789320	WORD	wordpools/wasnorm_wordpool_576.txt	LTP334	ltpFR2	11	15	CRICKET	408	n/a	n/a	0	0	0
2792103	WORD	wordpools/wasnorm_wordpool_576.txt	LTP334	ltpFR2	11	15	PIMPLE	1071	n/a	n/a	0	0	0
2794919	WORD	wordpools/wasnorm_wordpool_576.txt	LTP334	ltpFR2	11	15	SISTER	1312	n/a	n/a	0	0	0
2797616	WORD	wordpools/wasnorm_wordpool_576.txt	LTP334	ltpFR2	11	15	BROTHER	179	n/a	n/a	0	0	0
2800315	WORD	wordpools/wasnorm_wordpool_576.txt	LTP334	ltpFR2	11	15	CABBAGE	210	n/a	n/a	0	0	0
2802848	WORD	wordpools/wasnorm_wordpool_576.txt	LTP334	ltpFR2	11	15	CANDY	230	n/a	n/a	0	0	0
2805513	WORD	wordpools/wasnorm_wordpool_576.txt	LTP334	ltpFR2	11	15	PASTRY	1022	n/a	n/a	0	0	0
2808096	WORD	wordpools/wasnorm_wordpool_576.txt	LTP334	ltpFR2	11	15	FOOT	590	n/a	n/a	0	0	0
2810778	WORD	wordpools/wasnorm_wordpool_576.txt	LTP334	ltpFR2	11	15	GANGSTER	620	n/a	n/a	0	0	0
2813209	WORD	wordpools/wasnorm_wordpool_576.txt	LTP334	ltpFR2	11	15	COOKBOOK	373	n/a	n/a	0	0	0
2815826	WORD	wordpools/wasnorm_wordpool_576.txt	LTP334	ltpFR2	11	15	CRATER	400	n/a	n/a	0	0	0
2818274	WORD	wordpools/wasnorm_wordpool_576.txt	LTP334	ltpFR2	11	15	SHELTER	1282	n/a	n/a	0	0	0
2821090	WORD	wordpools/wasnorm_wordpool_576.txt	LTP334	ltpFR2	11	15	ATOM	55	n/a	n/a	0	0	0
2823789	WORD	wordpools/wasnorm_wordpool_576.txt	LTP334	ltpFR2	11	15	SEAGULL	1261	n/a	n/a	0	0	0
2826303	WORD	wordpools/wasnorm_wordpool_576.txt	LTP334	ltpFR2	11	15	HUSBAND	728	n/a	n/a	0	0	0
2829120	WORD	wordpools/wasnorm_wordpool_576.txt	LTP334	ltpFR2	11	15	OYSTER	995	n/a	n/a	0	0	0
2831802	WORD	wordpools/wasnorm_wordpool_576.txt	LTP334	ltpFR2	11	15	VENUS	1557	n/a	n/a	0	0	0
2834283	WORD	wordpools/wasnorm_wordpool_576.txt	LTP334	ltpFR2	11	15	NECKLACE	940	n/a	n/a	0	0	0
2837000	WORD	wordpools/wasnorm_wordpool_576.txt	LTP334	ltpFR2	11	15	DRESS	495	n/a	n/a	0	0	0
2839782	WORD	wordpools/wasnorm_wordpool_576.txt	LTP334	ltpFR2	11	15	LAVA	804	n/a	n/a	0	0	0
2841397	START	n/a	LTP334	ltpFR2	11	n/a	n/a	n/a	23	n/a	n/a	n/a	n/a
2842451	DISTRACTOR	n/a	LTP334	ltpFR2	11	15	n/a	n/a	n/a	n/a	0	0	0
2842463	PROB	n/a	LTP334	ltpFR2	11	n/a	n/a	n/a	23	19	3	9	7
2844047	PROB	n/a	LTP334	ltpFR2	11	n/a	n/a	n/a	23	15	6	6	3
2845362	PROB	n/a	LTP334	ltpFR2	11	n/a	n/a	n/a	23	8	1	6	1
2846494	PROB	n/a	LTP334	ltpFR2	11	n/a	n/a	n/a	23	17	4	4	9
2848095	PROB	n/a	LTP334	ltpFR2	11	n/a	n/a	n/a	23	14	2	8	4
2849360	PROB	n/a	LTP334	ltpFR2	11	n/a	n/a	n/a	23	24	6	9	9
2851542	PROB	n/a	LTP334	ltpFR2	11	n/a	n/a	n/a	23	20	8	8	4
2853241	PROB	n/a	LTP334	ltpFR2	11	n/a	n/a	n/a	23	1	6	9	4
2855407	PROB	n/a	LTP334	ltpFR2	11	n/a	n/a	n/a	23	11	3	5	3
2857206	PROB	n/a	LTP334	ltpFR2	11	n/a	n/a	n/a	23	16	2	5	9
2858923	PROB	n/a	LTP334	ltpFR2	11	n/a	n/a	n/a	23	1	4	5	4
2860972	PROB	n/a	LTP334	ltpFR2	11	n/a	n/a	n/a	23	3	7	5	9
2861755	PROB	n/a	LTP334	ltpFR2	11	n/a	n/a	n/a	23	10	3	4	3
2863721	PROB	n/a	LTP334	ltpFR2	11	n/a	n/a	n/a	23	14	2	8	4
2865042	STOP	n/a	LTP334	ltpFR2	11	n/a	n/a	n/a	23	n/a	n/a	n/a	n/a
2867219	REC_START	n/a	LTP334	ltpFR2	11	15	n/a	n/a	n/a	n/a	0	0	0
2867598	REC_WORD	wordpools/wasnorm_wordpool_576.txt	LTP334	ltpFR2	11	15	LAVA	804	n/a	n/a	0	0	0
2868276	REC_WORD	wordpools/wasnorm_wordpool_576.txt	LTP334	ltpFR2	11	15	CRATER	400	n/a	n/a	0	0	0
2869046	REC_WORD	wordpools/wasnorm_wordpool_576.txt	LTP334	ltpFR2	11	15	ATOM	55	n/a	n/a	0	0	0
2869567	REC_WORD	wordpools/wasnorm_wordpool_576.txt	LTP334	ltpFR2	11	15	SHELTER	1282	n/a	n/a	0	0	0
2870355	REC_WORD	wordpools/wasnorm_wordpool_576.txt	LTP334	ltpFR2	11	15	COOKBOOK	373	n/a	n/a	0	0	0
2873563	REC_WORD	wordpools/wasnorm_wordpool_576.txt	LTP334	ltpFR2	11	15	PASTA	1021	n/a	n/a	0	0	0
2874432	REC_WORD	wordpools/wasnorm_wordpool_576.txt	LTP334	ltpFR2	11	15	PASTRY	1022	n/a	n/a	0	0	0
2875480	REC_WORD	wordpools/wasnorm_wordpool_576.txt	LTP334	ltpFR2	11	15	CABBAGE	210	n/a	n/a	0	0	0
2876385	REC_WORD	wordpools/wasnorm_wordpool_576.txt	LTP334	ltpFR2	11	15	CANDY	230	n/a	n/a	0	0	0
2886086	REC_WORD	wordpools/wasnorm_wordpool_576.txt	LTP334	ltpFR2	11	15	BROTHER	179	n/a	n/a	0	0	0
2886524	REC_WORD	wordpools/wasnorm_wordpool_576.txt	LTP334	ltpFR2	11	15	SISTER	1312	n/a	n/a	0	0	0
2887375	REC_WORD	wordpools/wasnorm_wordpool_576.txt	LTP334	ltpFR2	11	15	HUSBAND	728	n/a	n/a	0	0	0
2888938	REC_WORD	wordpools/wasnorm_wordpool_576.txt	LTP334	ltpFR2	11	15	VENUS	1557	n/a	n/a	0	0	0
2889617	REC_WORD	wordpools/wasnorm_wordpool_576.txt	LTP334	ltpFR2	11	15	NECKLACE	940	n/a	n/a	0	0	0
2890392	REC_WORD	wordpools/wasnorm_wordpool_576.txt	LTP334	ltpFR2	11	15	DRESS	495	n/a	n/a	0	0	0
2895699	REC_WORD	wordpools/wasnorm_wordpool_576.txt	LTP334	ltpFR2	11	15	CRICKET	408	n/a	n/a	0	0	0
2896641	REC_WORD	wordpools/wasnorm_wordpool_576.txt	LTP334	ltpFR2	11	15	ANKLE	24	n/a	n/a	0	0	0
2897238	REC_WORD	wordpools/wasnorm_wordpool_576.txt	LTP334	ltpFR2	11	15	ROD	1203	n/a	n/a	0	0	0
2898295	REC_WORD	wordpools/wasnorm_wordpool_576.txt	LTP334	ltpFR2	11	15	FOOT	590	n/a	n/a	0	0	0
2898990	REC_WORD	wordpools/wasnorm_wordpool_576.txt	LTP334	ltpFR2	11	15	GANGSTER	620	n/a	n/a	0	0	0
2901936	REC_WORD	wordpools/wasnorm_wordpool_576.txt	LTP334	ltpFR2	11	15	PIMPLE	1071	n/a	n/a	0	0	0
2957662	WORD	wordpools/wasnorm_wordpool_576.txt	LTP334	ltpFR2	11	16	QUEEN	1149	n/a	n/a	0	0	0
2960376	WORD	wordpools/wasnorm_wordpool_576.txt	LTP334	ltpFR2	11	16	STAMP	1370	n/a	n/a	0	0	0
2962943	WORD	wordpools/wasnorm_wordpool_576.txt	LTP334	ltpFR2	11	16	PUPIL	1143	n/a	n/a	0	0	0
2965758	WORD	wordpools/wasnorm_wordpool_576.txt	LTP334	ltpFR2	11	16	YACHT	1629	n/a	n/a	0	0	0
2968556	WORD	wordpools/wasnorm_wordpool_576.txt	LTP334	ltpFR2	11	16	BUCKET	184	n/a	n/a	0	0	0
2971288	WORD	wordpools/wasnorm_wordpool_576.txt	LTP334	ltpFR2	11	16	ROCKET	1202	n/a	n/a	0	0	0
2973988	WORD	wordpools/wasnorm_wordpool_576.txt	LTP334	ltpFR2	11	16	HAND	683	n/a	n/a	0	0	0
2976419	WORD	wordpools/wasnorm_wordpool_576.txt	LTP334	ltpFR2	11	16	ACTRESS	6	n/a	n/a	0	0	0
2978969	WORD	wordpools/wasnorm_wordpool_576.txt	LTP334	ltpFR2	11	16	ACTOR	5	n/a	n/a	0	0	0
2981718	WORD	wordpools/wasnorm_wordpool_576.txt	LTP334	ltpFR2	11	16	MISSILE	900	n/a	n/a	0	0	0
2984265	WORD	wordpools/wasnorm_wordpool_576.txt	LTP334	ltpFR2	11	16	BRICK	172	n/a	n/a	0	0	0
2986882	WORD	wordpools/wasnorm_wordpool_576.txt	LTP334	ltpFR2	11	16	LOFT	840	n/a	n/a	0	0	0
2989396	WORD	wordpools/wasnorm_wordpool_576.txt	LTP334	ltpFR2	11	16	BRACES	164	n/a	n/a	0	0	0
2991963	WORD	wordpools/wasnorm_wordpool_576.txt	LTP334	ltpFR2	11	16	BLENDER	136	n/a	n/a	0	0	0
2994577	WORD	wordpools/wasnorm_wordpool_576.txt	LTP334	ltpFR2	11	16	HIGHWAY	707	n/a	n/a	0	0	0
2997293	WORD	wordpools/wasnorm_wordpool_576.txt	LTP334	ltpFR2	11	16	GRAVEL	659	n/a	n/a	0	0	0
3000059	WORD	wordpools/wasnorm_wordpool_576.txt	LTP334	ltpFR2	11	16	PRINCE	1124	n/a	n/a	0	0	0
3002574	WORD	wordpools/wasnorm_wordpool_576.txt	LTP334	ltpFR2	11	16	THRONE	1461	n/a	n/a	0	0	0
3005074	WORD	wordpools/wasnorm_wordpool_576.txt	LTP334	ltpFR2	11	16	PECAN	1036	n/a	n/a	0	0	0
3007555	WORD	wordpools/wasnorm_wordpool_576.txt	LTP334	ltpFR2	11	16	OUTDOORS	987	n/a	n/a	0	0	0
3010354	WORD	wordpools/wasnorm_wordpool_576.txt	LTP334	ltpFR2	11	16	MATCH	878	n/a	n/a	0	0	0
3013137	WORD	wordpools/wasnorm_wordpool_576.txt	LTP334	ltpFR2	11	16	PALACE	1006	n/a	n/a	0	0	0
3015919	WORD	wordpools/wasnorm_wordpool_576.txt	LTP334	ltpFR2	11	16	YOLK	1633	n/a	n/a	0	0	0
3018400	WORD	wordpools/wasnorm_wordpool_576.txt	LTP334	ltpFR2	11	16	PRINCESS	1125	n/a	n/a	0	0	0
3020017	START	n/a	LTP334	ltpFR2	11	n/a	n/a	n/a	24	n/a	n/a	n/a	n/a
3021009	DISTRACTOR	n/a	LTP334	ltpFR2	11	16	n/a	n/a	n/a	n/a	0	0	0
3021016	PROB	n/a	LTP334	ltpFR2	11	n/a	n/a	n/a	24	9	6	1	2
3022916	PROB	n/a	LTP334	ltpFR2	11	n/a	n/a	n/a	24	21	9	9	3
3024331	PROB	n/a	LTP334	ltpFR2	11	n/a	n/a	n/a	24	18	6	9	3
3026680	PROB	n/a	LTP334	ltpFR2	11	n/a	n/a	n/a	24	15	3	8	4
3028829	PROB	n/a	LTP334	ltpFR2	11	n/a	n/a	n/a	24	18	7	8	3
3030311	PROB	n/a	LTP334	ltpFR2	11	n/a	n/a	n/a	24	10	1	8	1
3031461	PROB	n/a	LTP334	ltpFR2	11	n/a	n/a	n/a	24	11	3	1	7
3032911	PROB	n/a	LTP334	ltpFR2	11	n/a	n/a	n/a	24	22	7	8	7
3035242	PROB	n/a	LTP334	ltpFR2	11	n/a	n/a	n/a	24	18	7	9	2
3037059	PROB	n/a	LTP334	ltpFR2	11	n/a	n/a	n/a	24	15	3	5	7
3038507	PROB	n/a	LTP334	ltpFR2	11	n/a	n/a	n/a	24	15	5	3	7
3040124	PROB	n/a	LTP334	ltpFR2	11	n/a	n/a	n/a	24	13	4	6	3
3044016	STOP	n/a	LTP334	ltpFR2	11	n/a	n/a	n/a	24	n/a	n/a	n/a	n/a
3045839	REC_START	n/a	LTP334	ltpFR2	11	16	n/a	n/a	n/a	n/a	0	0	0
3046767	REC_WORD	wordpools/wasnorm_wordpool_576.txt	LTP334	ltpFR2	11	16	YOLK	1633	n/a	n/a	0	0	0
3047570	REC_WORD	wordpools/wasnorm_wordpool_576.txt	LTP334	ltpFR2	11	16	PECAN	1036	n/a	n/a	0	0	0
3048420	REC_WORD	wordpools/wasnorm_wordpool_576.txt	LTP334	ltpFR2	11	16	BLENDER	136	n/a	n/a	0	0	0
3051829	REC_WORD	wordpools/wasnorm_wordpool_576.txt	LTP334	ltpFR2	11	16	PRINCE	1124	n/a	n/a	0	0	0
3052541	REC_WORD	wordpools/wasnorm_wordpool_576.txt	LTP334	ltpFR2	11	16	PRINCESS	1125	n/a	n/a	0	0	0
3053371	REC_WORD	wordpools/wasnorm_wordpool_576.txt	LTP334	ltpFR2	11	16	QUEEN	1149	n/a	n/a	0	0	0
3054348	REC_WORD	wordpools/wasnorm_wordpool_576.txt	LTP334	ltpFR2	11	16	THRONE	1461	n/a	n/a	0	0	0
3055080	REC_WORD	wordpools/wasnorm_wordpool_576.txt	LTP334	ltpFR2	11	16	PALACE	1006	n/a	n/a	0	0	0
3055849	REC_WORD	wordpools/wasnorm_wordpool_576.txt	LTP334	ltpFR2	11	16	STAMP	1370	n/a	n/a	0	0	0
3065097	REC_WORD	wordpools/wasnorm_wordpool_576.txt	LTP334	ltpFR2	11	16	HAND	683	n/a	n/a	0	0	0
3072398	REC_WORD	wordpools/wasnorm_wordpool_576.txt	LTP334	ltpFR2	11	16	MISSILE	900	n/a	n/a	0	0	0
3075380	REC_WORD	wordpools/wasnorm_wordpool_576.txt	LTP334	ltpFR2	11	16	BRICK	172	n/a	n/a	0	0	0
3076085	REC_WORD	wordpools/wasnorm_wordpool_576.txt	LTP334	ltpFR2	11	16	LOFT	840	n/a	n/a	0	0	0
3076920	REC_WORD	wordpools/wasnorm_wordpool_576.txt	LTP334	ltpFR2	11	16	BRACES	164	n/a	n/a	0	0	0
3077719	REC_WORD	wordpools/wasnorm_wordpool_576.txt	LTP334	ltpFR2	11	16	ACTOR	5	n/a	n/a	0	0	0
3078405	REC_WORD	wordpools/wasnorm_wordpool_576.txt	LTP334	ltpFR2	11	16	ACTRESS	6	n/a	n/a	0	0	0
3080395	REC_WORD	wordpools/wasnorm_wordpool_576.txt	LTP334	ltpFR2	11	16	ROCKET	1202	n/a	n/a	0	0	0
3095248	REC_WORD	wordpools/wasnorm_wordpool_576.txt	LTP334	ltpFR2	11	16	HIGHWAY	707	n/a	n/a	0	0	0
3095904	REC_WORD	wordpools/wasnorm_wordpool_576.txt	LTP334	ltpFR2	11	16	GRAVEL	659	n/a	n/a	0	0	0
3122386	REST_REWET	n/a	LTP334	ltpFR2	11	16	n/a	n/a	n/a	n/a	0	0	0
3200152	WORD	wordpools/wasnorm_wordpool_576.txt	LTP334	ltpFR2	11	17	BATHTUB	100	n/a	n/a	0	0	0
3202901	WORD	wordpools/wasnorm_wordpool_576.txt	LTP334	ltpFR2	11	17	CLAMP	316	n/a	n/a	0	0	0
3205465	WORD	wordpools/wasnorm_wordpool_576.txt	LTP334	ltpFR2	11	17	CASHIER	254	n/a	n/a	0	0	0
3208231	WORD	wordpools/wasnorm_wordpool_576.txt	LTP334	ltpFR2	11	17	MARKET	871	n/a	n/a	0	0	0
3211030	WORD	wordpools/wasnorm_wordpool_576.txt	LTP334	ltpFR2	11	17	PRIMATE	1123	n/a	n/a	0	0	0
3213796	WORD	wordpools/wasnorm_wordpool_576.txt	LTP334	ltpFR2	11	17	TUTU	1524	n/a	n/a	0	0	0
3216327	WORD	wordpools/wasnorm_wordpool_576.txt	LTP334	ltpFR2	11	17	WAGON	1578	n/a	n/a	0	0	0
3218943	WORD	wordpools/wasnorm_wordpool_576.txt	LTP334	ltpFR2	11	17	SADDLE	1221	n/a	n/a	0	0	0
3221641	WORD	wordpools/wasnorm_wordpool_576.txt	LTP334	ltpFR2	11	17	BUG	187	n/a	n/a	0	0	0
3224257	WORD	wordpools/wasnorm_wordpool_576.txt	LTP334	ltpFR2	11	17	JUNGLE	764	n/a	n/a	0	0	0
3226690	WORD	wordpools/wasnorm_wordpool_576.txt	LTP334	ltpFR2	11	17	PADDING	999	n/a	n/a	0	0	0
3229204	WORD	wordpools/wasnorm_wordpool_576.txt	LTP334	ltpFR2	11	17	GAVEL	627	n/a	n/a	0	0	0
3231688	WORD	wordpools/wasnorm_wordpool_576.txt	LTP334	ltpFR2	11	17	COLLEGE	346	n/a	n/a	0	0	0
3234469	WORD	wordpools/wasnorm_wordpool_576.txt	LTP334	ltpFR2	11	17	WITNESS	1618	n/a	n/a	0	0	0
3237251	WORD	wordpools/wasnorm_wordpool_576.txt	LTP334	ltpFR2	11	17	POWDER	1117	n/a	n/a	0	0	0
3240001	WORD	wordpools/wasnorm_wordpool_576.txt	LTP334	ltpFR2	11	17	PUPPY	1144	n/a	n/a	0	0	0
3242699	WORD	wordpools/wasnorm_wordpool_576.txt	LTP334	ltpFR2	11	17	HAMPER	682	n/a	n/a	0	0	0
3245430	WORD	wordpools/wasnorm_wordpool_576.txt	LTP334	ltpFR2	11	17	PLIERS	1089	n/a	n/a	0	0	0
3248246	WORD	wordpools/wasnorm_wordpool_576.txt	LTP334	ltpFR2	11	17	CARROT	249	n/a	n/a	0	0	0
3250729	WORD	wordpools/wasnorm_wordpool_576.txt	LTP334	ltpFR2	11	17	COUCH	386	n/a	n/a	0	0	0
3253543	WORD	wordpools/wasnorm_wordpool_576.txt	LTP334	ltpFR2	11	17	PREACHER	1119	n/a	n/a	0	0	0
3256359	WORD	wordpools/wasnorm_wordpool_576.txt	LTP334	ltpFR2	11	17	CHAPEL	280	n/a	n/a	0	0	0
3259125	WORD	wordpools/wasnorm_wordpool_576.txt	LTP334	ltpFR2	11	17	MUFFIN	929	n/a	n/a	0	0	0
3261907	WORD	wordpools/wasnorm_wordpool_576.txt	LTP334	ltpFR2	11	17	LUGGAGE	847	n/a	n/a	0	0	0
3263522	START	n/a	LTP334	ltpFR2	11	n/a	n/a	n/a	25	n/a	n/a	n/a	n/a
3264707	DISTRACTOR	n/a	LTP334	ltpFR2	11	17	n/a	n/a	n/a	n/a	0	0	0
3264723	PROB	n/a	LTP334	ltpFR2	11	n/a	n/a	n/a	25	15	2	7	5
3267122	PROB	n/a	LTP334	ltpFR2	11	n/a	n/a	n/a	25	11	8	1	2
3268387	PROB	n/a	LTP334	ltpFR2	11	n/a	n/a	n/a	25	23	7	7	9
3269854	PROB	n/a	LTP334	ltpFR2	11	n/a	n/a	n/a	25	16	2	7	8
3271519	PROB	n/a	LTP334	ltpFR2	11	n/a	n/a	n/a	25	23	9	9	5
3273102	PROB	n/a	LTP334	ltpFR2	11	n/a	n/a	n/a	25	19	8	5	6
3275135	PROB	n/a	LTP334	ltpFR2	11	n/a	n/a	n/a	25	11	2	6	3
3276900	PROB	n/a	LTP334	ltpFR2	11	n/a	n/a	n/a	25	19	6	4	9
3278067	PROB	n/a	LTP334	ltpFR2	11	n/a	n/a	n/a	25	24	9	9	6
3279732	PROB	n/a	LTP334	ltpFR2	11	n/a	n/a	n/a	25	16	3	6	7
3281631	PROB	n/a	LTP334	ltpFR2	11	n/a	n/a	n/a	25	9	5	3	1
3283413	PROB	n/a	LTP334	ltpFR2	11	n/a	n/a	n/a	25	18	6	5	7
3285329	PROB	n/a	LTP334	ltpFR2	11	n/a	n/a	n/a	25	17	9	4	4
3287031	STOP	n/a	LTP334	ltpFR2	11	n/a	n/a	n/a	25	n/a	n/a	n/a	n/a
3289461	REC_START	n/a	LTP334	ltpFR2	11	17	n/a	n/a	n/a	n/a	0	0	0
3289887	REC_WORD	wordpools/wasnorm_wordpool_576.txt	LTP334	ltpFR2	11	17	PRIMATE	1123	n/a	n/a	0	0	0
3290632	REC_WORD	wordpools/wasnorm_wordpool_576.txt	LTP334	ltpFR2	11	17	BATHTUB	100	n/a	n/a	0	0	0
3291511	REC_WORD	wordpools/wasnorm_wordpool_576.txt	LTP334	ltpFR2	11	17	CLAMP	316	n/a	n/a	0	0	0
3292382	REC_WORD	wordpools/wasnorm_wordpool_576.txt	LTP334	ltpFR2	11	17	PLIERS	1089	n/a	n/a	0	0	0
3305009	REC_WORD	wordpools/wasnorm_wordpool_576.txt	LTP334	ltpFR2	11	17	MUFFIN	929	n/a	n/a	0	0	0
3305653	REC_WORD	wordpools/wasnorm_wordpool_576.txt	LTP334	ltpFR2	11	17	CARROT	249	n/a	n/a	0	0	0
3306361	REC_WORD	wordpools/wasnorm_wordpool_576.txt	LTP334	ltpFR2	11	17	COUCH	386	n/a	n/a	0	0	0
3307267	REC_WORD	wordpools/wasnorm_wordpool_576.txt	LTP334	ltpFR2	11	17	PREACHER	1119	n/a	n/a	0	0	0
3308692	REC_WORD	wordpools/wasnorm_wordpool_576.txt	LTP334	ltpFR2	11	17	CHAPEL	280	n/a	n/a	0	0	0
3322740	REC_WORD	wordpools/wasnorm_wordpool_576.txt	LTP334	ltpFR2	11	17	COLLEGE	346	n/a	n/a	0	0	0
3323415	REC_WORD	wordpools/wasnorm_wordpool_576.txt	LTP334	ltpFR2	11	17	WITNESS	1618	n/a	n/a	0	0	0
3351839	REC_WORD	wordpools/wasnorm_wordpool_576.txt	LTP334	ltpFR2	11	17	BUG	187	n/a	n/a	0	0	0
3352429	REC_WORD	wordpools/wasnorm_wordpool_576.txt	LTP334	ltpFR2	11	17	MARKET	871	n/a	n/a	0	0	0
3353076	REC_WORD	wordpools/wasnorm_wordpool_576.txt	LTP334	ltpFR2	11	17	CASHIER	254	n/a	n/a	0	0	0
3353861	REC_WORD	wordpools/wasnorm_wordpool_576.txt	LTP334	ltpFR2	11	17	WAGON	1578	n/a	n/a	0	0	0
3354427	REC_WORD	wordpools/wasnorm_wordpool_576.txt	LTP334	ltpFR2	11	17	PADDING	999	n/a	n/a	0	0	0
3355271	REC_WORD	wordpools/wasnorm_wordpool_576.txt	LTP334	ltpFR2	11	17	JUNGLE	764	n/a	n/a	0	0	0
3360120	REC_WORD	wordpools/wasnorm_wordpool_576.txt	LTP334	ltpFR2	11	17	SADDLE	1221	n/a	n/a	0	0	0
3379904	WORD	wordpools/wasnorm_wordpool_576.txt	LTP334	ltpFR2	11	18	CANAL	226	n/a	n/a	0	0	0
3382402	WORD	wordpools/wasnorm_wordpool_576.txt	LTP334	ltpFR2	11	18	TURKEY	1520	n/a	n/a	0	0	0
3384968	WORD	wordpools/wasnorm_wordpool_576.txt	LTP334	ltpFR2	11	18	MAILBOX	857	n/a	n/a	0	0	0
3387734	WORD	wordpools/wasnorm_wordpool_576.txt	LTP334	ltpFR2	11	18	POLICE	1098	n/a	n/a	0	0	0
3390548	WORD	wordpools/wasnorm_wordpool_576.txt	LTP334	ltpFR2	11	18	AIRPORT	13	n/a	n/a	0	0	0
3393015	WORD	wordpools/wasnorm_wordpool_576.txt	LTP334	ltpFR2	11	18	SEAFOOD	1260	n/a	n/a	0	0	0
3395797	WORD	wordpools/wasnorm_wordpool_576.txt	LTP334	ltpFR2	11	18	HOOK	715	n/a	n/a	0	0	0
3398428	WORD	wordpools/wasnorm_wordpool_576.txt	LTP334	ltpFR2	11	18	WORLD	1622	n/a	n/a	0	0	0
3400978	WORD	wordpools/wasnorm_wordpool_576.txt	LTP334	ltpFR2	11	18	CAFE	216	n/a	n/a	0	0	0
3403475	WORD	wordpools/wasnorm_wordpool_576.txt	LTP334	ltpFR2	11	18	DORM	488	n/a	n/a	0	0	0
3406092	WORD	wordpools/wasnorm_wordpool_576.txt	LTP334	ltpFR2	11	18	EXPERT	543	n/a	n/a	0	0	0
3408724	WORD	wordpools/wasnorm_wordpool_576.txt	LTP334	ltpFR2	11	18	PUDDING	1139	n/a	n/a	0	0	0
3411305	WORD	wordpools/wasnorm_wordpool_576.txt	LTP334	ltpFR2	11	18	HANDBAG	684	n/a	n/a	0	0	0
3413855	WORD	wordpools/wasnorm_wordpool_576.txt	LTP334	ltpFR2	11	18	STONE	1385	n/a	n/a	0	0	0
3416337	WORD	wordpools/wasnorm_wordpool_576.txt	LTP334	ltpFR2	11	18	HOOD	714	n/a	n/a	0	0	0
3419086	WORD	wordpools/wasnorm_wordpool_576.txt	LTP334	ltpFR2	11	18	LAPEL	800	n/a	n/a	0	0	0
3421901	WORD	wordpools/wasnorm_wordpool_576.txt	LTP334	ltpFR2	11	18	CLAM	315	n/a	n/a	0	0	0
3424616	WORD	wordpools/wasnorm_wordpool_576.txt	LTP334	ltpFR2	11	18	STATUE	1374	n/a	n/a	0	0	0
3427082	WORD	wordpools/wasnorm_wordpool_576.txt	LTP334	ltpFR2	11	18	EGYPT	519	n/a	n/a	0	0	0
3429665	WORD	wordpools/wasnorm_wordpool_576.txt	LTP334	ltpFR2	11	18	MARINE	869	n/a	n/a	0	0	0
3432163	WORD	wordpools/wasnorm_wordpool_576.txt	LTP334	ltpFR2	11	18	SUBWAY	1400	n/a	n/a	0	0	0
3434979	WORD	wordpools/wasnorm_wordpool_576.txt	LTP334	ltpFR2	11	18	SNACK	1331	n/a	n/a	0	0	0
3437577	WORD	wordpools/wasnorm_wordpool_576.txt	LTP334	ltpFR2	11	18	SALMON	1227	n/a	n/a	0	0	0
3440043	WORD	wordpools/wasnorm_wordpool_576.txt	LTP334	ltpFR2	11	18	CONTRACT	368	n/a	n/a	0	0	0
3441659	START	n/a	LTP334	ltpFR2	11	n/a	n/a	n/a	26	n/a	n/a	n/a	n/a
3442716	DISTRACTOR	n/a	LTP334	ltpFR2	11	18	n/a	n/a	n/a	n/a	0	0	0
3442725	PROB	n/a	LTP334	ltpFR2	11	n/a	n/a	n/a	26	8	1	3	4
3444257	PROB	n/a	LTP334	ltpFR2	11	n/a	n/a	n/a	26	16	9	2	5
3445674	PROB	n/a	LTP334	ltpFR2	11	n/a	n/a	n/a	26	117	7	8	2
3447556	PROB	n/a	LTP334	ltpFR2	11	n/a	n/a	n/a	26	12	2	2	8
3448923	PROB	n/a	LTP334	ltpFR2	11	n/a	n/a	n/a	26	14	5	8	1
3451437	PROB	n/a	LTP334	ltpFR2	11	n/a	n/a	n/a	26	21	7	9	5
3453286	PROB	n/a	LTP334	ltpFR2	11	n/a	n/a	n/a	26	8	3	1	4
3455103	PROB	n/a	LTP334	ltpFR2	11	n/a	n/a	n/a	26	19	3	9	7
3456736	PROB	n/a	LTP334	ltpFR2	11	n/a	n/a	n/a	26	16	9	1	6
3458367	PROB	n/a	LTP334	ltpFR2	11	n/a	n/a	n/a	26	10	1	1	8
3459417	PROB	n/a	LTP334	ltpFR2	11	n/a	n/a	n/a	26	13	4	1	8
3461266	PROB	n/a	LTP334	ltpFR2	11	n/a	n/a	n/a	26	15	6	5	4
3463365	PROB	n/a	LTP334	ltpFR2	11	n/a	n/a	n/a	26	20	6	7	7
3464773	STOP	n/a	LTP334	ltpFR2	11	n/a	n/a	n/a	26	n/a	n/a	n/a	n/a
3467580	REC_START	n/a	LTP334	ltpFR2	11	18	n/a	n/a	n/a	n/a	0	0	0
3468198	REC_WORD	wordpools/wasnorm_wordpool_576.txt	LTP334	ltpFR2	11	18	LAPEL	800	n/a	n/a	0	0	0
3468901	REC_WORD	wordpools/wasnorm_wordpool_576.txt	LTP334	ltpFR2	11	18	CLAM	315	n/a	n/a	0	0	0
3469493	REC_WORD	wordpools/wasnorm_wordpool_576.txt	LTP334	ltpFR2	11	18	STATUE	1374	n/a	n/a	0	0	0
3475884	REC_WORD	wordpools/wasnorm_wordpool_576.txt	LTP334	ltpFR2	11	18	HOOD	714	n/a	n/a	0	0	0
3476542	REC_WORD	wordpools/wasnorm_wordpool_576.txt	LTP334	ltpFR2	11	18	WORLD	1622	n/a	n/a	0	0	0
3477251	REC_WORD	wordpools/wasnorm_wordpool_576.txt	LTP334	ltpFR2	11	18	HANDBAG	684	n/a	n/a	0	0	0
3484001	REC_WORD	wordpools/wasnorm_wordpool_576.txt	LTP334	ltpFR2	11	18	SNACK	1331	n/a	n/a	0	0	0
3493200	REC_WORD_VV	wordpools/wasnorm_wordpool_576.txt	LTP334	ltpFR2	11	18	<>	-1	n/a	n/a	0	0	0
3508923	REC_WORD	wordpools/wasnorm_wordpool_576.txt	LTP334	ltpFR2	11	18	SUBWAY	1400	n/a	n/a	0	0	0
3509620	REC_WORD	wordpools/wasnorm_wordpool_576.txt	LTP334	ltpFR2	11	18	MARINE	869	n/a	n/a	0	0	0
3510202	REC_WORD	wordpools/wasnorm_wordpool_576.txt	LTP334	ltpFR2	11	18	SALMON	1227	n/a	n/a	0	0	0
3515382	REC_WORD	wordpools/wasnorm_wordpool_576.txt	LTP334	ltpFR2	11	18	PUDDING	1139	n/a	n/a	0	0	0
3558040	WORD	wordpools/wasnorm_wordpool_576.txt	LTP334	ltpFR2	11	19	MUMMY	932	n/a	n/a	0	0	0
3560822	WORD	wordpools/wasnorm_wordpool_576.txt	LTP334	ltpFR2	11	19	DAUGHTER	442	n/a	n/a	0	0	0
3563586	WORD	wordpools/wasnorm_wordpool_576.txt	LTP334	ltpFR2	11	19	WAITER	1580	n/a	n/a	0	0	0
3566202	WORD	wordpools/wasnorm_wordpool_576.txt	LTP334	ltpFR2	11	19	STICKER	1382	n/a	n/a	0	0	0
3568902	WORD	wordpools/wasnorm_wordpool_576.txt	LTP334	ltpFR2	11	19	BRANCH	168	n/a	n/a	0	0	0
3571416	WORD	wordpools/wasnorm_wordpool_576.txt	LTP334	ltpFR2	11	19	TUBA	1515	n/a	n/a	0	0	0
3574016	WORD	wordpools/wasnorm_wordpool_576.txt	LTP334	ltpFR2	11	19	OMELET	976	n/a	n/a	0	0	0
3576765	WORD	wordpools/wasnorm_wordpool_576.txt	LTP334	ltpFR2	11	19	MASK	876	n/a	n/a	0	0	0
3579379	WORD	wordpools/wasnorm_wordpool_576.txt	LTP334	ltpFR2	11	19	FRECKLE	602	n/a	n/a	0	0	0
3582046	WORD	wordpools/wasnorm_wordpool_576.txt	LTP334	ltpFR2	11	19	CELLAR	267	n/a	n/a	0	0	0
3584811	WORD	wordpools/wasnorm_wordpool_576.txt	LTP334	ltpFR2	11	19	FILM	565	n/a	n/a	0	0	0
3587309	WORD	wordpools/wasnorm_wordpool_576.txt	LTP334	ltpFR2	11	19	HARP	689	n/a	n/a	0	0	0
3589792	WORD	wordpools/wasnorm_wordpool_576.txt	LTP334	ltpFR2	11	19	TRACTOR	1493	n/a	n/a	0	0	0
3592423	WORD	wordpools/wasnorm_wordpool_576.txt	LTP334	ltpFR2	11	19	PROTON	1132	n/a	n/a	0	0	0
3594906	WORD	wordpools/wasnorm_wordpool_576.txt	LTP334	ltpFR2	11	19	TURNIP	1521	n/a	n/a	0	0	0
3597454	WORD	wordpools/wasnorm_wordpool_576.txt	LTP334	ltpFR2	11	19	ORCHID	982	n/a	n/a	0	0	0
3599888	WORD	wordpools/wasnorm_wordpool_576.txt	LTP334	ltpFR2	11	19	WOMAN	1620	n/a	n/a	0	0	0
3602485	WORD	wordpools/wasnorm_wordpool_576.txt	LTP334	ltpFR2	11	19	RATTLE	1170	n/a	n/a	0	0	0
3605019	WORD	wordpools/wasnorm_wordpool_576.txt	LTP334	ltpFR2	11	19	FARMER	553	n/a	n/a	0	0	0
3607633	WORD	wordpools/wasnorm_wordpool_576.txt	LTP334	ltpFR2	11	19	PATROL	1027	n/a	n/a	0	0	0
3610332	WORD	wordpools/wasnorm_wordpool_576.txt	LTP334	ltpFR2	11	19	CLOCK	325	n/a	n/a	0	0	0
3612882	WORD	wordpools/wasnorm_wordpool_576.txt	LTP334	ltpFR2	11	19	STUDENT	1395	n/a	n/a	0	0	0
3615579	WORD	wordpools/wasnorm_wordpool_576.txt	LTP334	ltpFR2	11	19	PERMIT	1051	n/a	n/a	0	0	0
3618146	WORD	wordpools/wasnorm_wordpool_576.txt	LTP334	ltpFR2	11	19	STALLION	1369	n/a	n/a	0	0	0
3619762	START	n/a	LTP334	ltpFR2	11	n/a	n/a	n/a	27	n/a	n/a	n/a	n/a
3620912	DISTRACTOR	n/a	LTP334	ltpFR2	11	19	n/a	n/a	n/a	n/a	0	0	0
3620928	PROB	n/a	LTP334	ltpFR2	11	n/a	n/a	n/a	27	22	8	7	7
3623960	PROB	n/a	LTP334	ltpFR2	11	n/a	n/a	n/a	27	11	2	3	6
3626291	PROB	n/a	LTP334	ltpFR2	11	n/a	n/a	n/a	27	23	9	6	8
3627941	PROB	n/a	LTP334	ltpFR2	11	n/a	n/a	n/a	27	7	1	2	4
3629573	PROB	n/a	LTP334	ltpFR2	11	n/a	n/a	n/a	27	27	9	9	9
3630873	PROB	n/a	LTP334	ltpFR2	11	n/a	n/a	n/a	27	20	9	6	5
3632322	PROB	n/a	LTP334	ltpFR2	11	n/a	n/a	n/a	27	13	6	2	5
3633689	PROB	n/a	LTP334	ltpFR2	11	n/a	n/a	n/a	27	16	8	7	1
3635105	PROB	n/a	LTP334	ltpFR2	11	n/a	n/a	n/a	27	18	7	5	6
3637386	PROB	n/a	LTP334	ltpFR2	11	n/a	n/a	n/a	27	17	6	4	7
3638687	PROB	n/a	LTP334	ltpFR2	11	n/a	n/a	n/a	27	8	1	2	5
3639919	PROB	n/a	LTP334	ltpFR2	11	n/a	n/a	n/a	27	11	4	6	1
3641052	PROB	n/a	LTP334	ltpFR2	11	n/a	n/a	n/a	27	13	4	1	8
3642345	STOP	n/a	LTP334	ltpFR2	11	n/a	n/a	n/a	27	n/a	n/a	n/a	n/a
3645516	REC_START	n/a	LTP334	ltpFR2	11	19	n/a	n/a	n/a	n/a	0	0	0
3645845	REC_WORD	wordpools/wasnorm_wordpool_576.txt	LTP334	ltpFR2	11	19	MUMMY	932	n/a	n/a	0	0	0
3646507	REC_WORD	wordpools/wasnorm_wordpool_576.txt	LTP334	ltpFR2	11	19	DAUGHTER	442	n/a	n/a	0	0	0
3647174	REC_WORD	wordpools/wasnorm_wordpool_576.txt	LTP334	ltpFR2	11	19	WOMAN	1620	n/a	n/a	0	0	0
3647817	REC_WORD	wordpools/wasnorm_wordpool_576.txt	LTP334	ltpFR2	11	19	RATTLE	1170	n/a	n/a	0	0	0
3650290	REC_WORD	wordpools/wasnorm_wordpool_576.txt	LTP334	ltpFR2	11	19	WAITRESS	1581	n/a	n/a	0	0	0
3654654	REC_WORD	wordpools/wasnorm_wordpool_576.txt	LTP334	ltpFR2	11	19	HARP	689	n/a	n/a	0	0	0
3657993	REC_WORD	wordpools/wasnorm_wordpool_576.txt	LTP334	ltpFR2	11	19	FARMER	553	n/a	n/a	0	0	0
3667507	REC_WORD	wordpools/wasnorm_wordpool_576.txt	LTP334	ltpFR2	11	19	STUDENT	1395	n/a	n/a	0	0	0
3668336	REC_WORD	wordpools/wasnorm_wordpool_576.txt	LTP334	ltpFR2	11	19	PERMIT	1051	n/a	n/a	0	0	0
3669026	REC_WORD	wordpools/wasnorm_wordpool_576.txt	LTP334	ltpFR2	11	19	PATROL	1027	n/a	n/a	0	0	0
3669778	REC_WORD	wordpools/wasnorm_wordpool_576.txt	LTP334	ltpFR2	11	19	CLOCK	325	n/a	n/a	0	0	0
3687677	REC_WORD	wordpools/wasnorm_wordpool_576.txt	LTP334	ltpFR2	11	19	ATOM	55	n/a	n/a	0	0	0
3719156	REC_WORD	wordpools/wasnorm_wordpool_576.txt	LTP334	ltpFR2	11	19	OMELET	976	n/a	n/a	0	0	0
3735959	DISTRACTOR	n/a	LTP334	ltpFR2	11	20	n/a	n/a	n/a	n/a	0	0	0
3735959	START	n/a	LTP334	ltpFR2	11	n/a	n/a	n/a	28	n/a	n/a	n/a	n/a
3735976	PROB	n/a	LTP334	ltpFR2	11	n/a	n/a	n/a	28	10	1	4	5
