onset	duration	trial_type	sample	stim_file	subject	experiment	session	trial	item_name	item_num	list	answer	test_x	test_y	test_z
271.772	n/a	SESS_START	135886	n/a	LTP133	ltpFR2	21	n/a	n/a	n/a	n/a	n/a	0	0	0
296.976	n/a	START	148488	n/a	LTP133	ltpFR2	21	n/a	n/a	n/a	-1	n/a	n/a	n/a	n/a
297.018	n/a	PROB	148509	n/a	LTP133	ltpFR2	21	n/a	n/a	n/a	-1	17	2	9	6
298.96	n/a	PROB	149480	n/a	LTP133	ltpFR2	21	n/a	n/a	n/a	-1	22	8	8	6
300.18	n/a	PROB	150090	n/a	LTP133	ltpFR2	21	n/a	n/a	n/a	-1	20	9	7	4
301.786	n/a	PROB	150893	n/a	LTP133	ltpFR2	21	n/a	n/a	n/a	-1	9	4	4	1
302.774	n/a	PROB	151387	n/a	LTP133	ltpFR2	21	n/a	n/a	n/a	-1	9	3	3	3
303.676	n/a	PROB	151838	n/a	LTP133	ltpFR2	21	n/a	n/a	n/a	-1	5	1	1	3
304.676	n/a	PROB	152338	n/a	LTP133	ltpFR2	21	n/a	n/a	n/a	-1	14	4	9	1
305.886	n/a	PROB	152943	n/a	LTP133	ltpFR2	21	n/a	n/a	n/a	-1	19	8	8	3
307.09	n/a	PROB	153545	n/a	LTP133	ltpFR2	21	n/a	n/a	n/a	-1	8	5	1	2
308.044	n/a	STOP	154022	n/a	LTP133	ltpFR2	21	n/a	n/a	n/a	-1	n/a	n/a	n/a	n/a
382.846	n/a	DISTRACTOR	191423	n/a	LTP133	ltpFR2	21	1	n/a	n/a	n/a	n/a	0	0	0
382.846	n/a	START	191423	n/a	LTP133	ltpFR2	21	n/a	n/a	n/a	1	n/a	n/a	n/a	n/a
382.896	n/a	PROB	191448	n/a	LTP133	ltpFR2	21	n/a	n/a	n/a	1	13	4	7	2
384.352	n/a	PROB	192176	n/a	LTP133	ltpFR2	21	n/a	n/a	n/a	1	7	3	3	1
385.474	n/a	PROB	192737	n/a	LTP133	ltpFR2	21	n/a	n/a	n/a	1	9	1	3	5
386.578	n/a	PROB	193289	n/a	LTP133	ltpFR2	21	n/a	n/a	n/a	1	5	2	1	2
387.748	n/a	PROB	193874	n/a	LTP133	ltpFR2	21	n/a	n/a	n/a	1	20	3	8	9
389.036	n/a	PROB	194518	n/a	LTP133	ltpFR2	21	n/a	n/a	n/a	1	16	3	6	7
390.588	n/a	PROB	195294	n/a	LTP133	ltpFR2	21	n/a	n/a	n/a	1	7	1	1	5
391.63	n/a	PROB	195815	n/a	LTP133	ltpFR2	21	n/a	n/a	n/a	1	12	1	9	2
392.752	n/a	PROB	196376	n/a	LTP133	ltpFR2	21	n/a	n/a	n/a	1	15	5	8	2
393.972	n/a	PROB	196986	n/a	LTP133	ltpFR2	21	n/a	n/a	n/a	1	13	4	7	2
395.378	n/a	PROB	197689	n/a	LTP133	ltpFR2	21	n/a	n/a	n/a	1	21	9	8	4
396.612	n/a	PROB	198306	n/a	LTP133	ltpFR2	21	n/a	n/a	n/a	1	22	6	9	7
399.092	n/a	PROB	199546	n/a	LTP133	ltpFR2	21	n/a	n/a	n/a	1	17	1	8	8
400.41	n/a	PROB	200205	n/a	LTP133	ltpFR2	21	n/a	n/a	n/a	1	8	2	5	1
401.448	n/a	PROB	200724	n/a	LTP133	ltpFR2	21	n/a	n/a	n/a	1	11	2	1	8
402.634	n/a	PROB	201317	n/a	LTP133	ltpFR2	21	n/a	n/a	n/a	1	2	5	9	9
403.922	n/a	PROB	201961	n/a	LTP133	ltpFR2	21	n/a	n/a	n/a	1	19	8	4	7
405.578	n/a	STOP	202789	n/a	LTP133	ltpFR2	21	n/a	n/a	n/a	1	n/a	n/a	n/a	n/a
407.976	n/a	WORD	203988	wordpools/wasnorm_wordpool_576.txt	LTP133	ltpFR2	21	1	VENUS	1557	n/a	n/a	0	0	0
410.52	n/a	WORD	205260	wordpools/wasnorm_wordpool_576.txt	LTP133	ltpFR2	21	1	ANKLE	24	n/a	n/a	0	0	0
413.162	n/a	WORD	206581	wordpools/wasnorm_wordpool_576.txt	LTP133	ltpFR2	21	1	PILOT	1070	n/a	n/a	0	0	0
415.838	n/a	WORD	207919	wordpools/wasnorm_wordpool_576.txt	LTP133	ltpFR2	21	1	MATTRESS	879	n/a	n/a	0	0	0
418.382	n/a	WORD	209191	wordpools/wasnorm_wordpool_576.txt	LTP133	ltpFR2	21	1	LAVA	804	n/a	n/a	0	0	0
420.908	n/a	WORD	210454	wordpools/wasnorm_wordpool_576.txt	LTP133	ltpFR2	21	1	FOOT	590	n/a	n/a	0	0	0
423.504	n/a	WORD	211752	wordpools/wasnorm_wordpool_576.txt	LTP133	ltpFR2	21	1	ITEM	746	n/a	n/a	0	0	0
426.33	n/a	WORD	213165	wordpools/wasnorm_wordpool_576.txt	LTP133	ltpFR2	21	1	CRATER	400	n/a	n/a	0	0	0
428.772	n/a	WORD	214386	wordpools/wasnorm_wordpool_576.txt	LTP133	ltpFR2	21	1	MOP	916	n/a	n/a	0	0	0
431.212	n/a	WORD	215606	wordpools/wasnorm_wordpool_576.txt	LTP133	ltpFR2	21	1	SCISSORS	1250	n/a	n/a	0	0	0
433.992	n/a	WORD	216996	wordpools/wasnorm_wordpool_576.txt	LTP133	ltpFR2	21	1	SADDLE	1221	n/a	n/a	0	0	0
436.482	n/a	WORD	218241	wordpools/wasnorm_wordpool_576.txt	LTP133	ltpFR2	21	1	THREAD	1460	n/a	n/a	0	0	0
439.128	n/a	WORD	219564	wordpools/wasnorm_wordpool_576.txt	LTP133	ltpFR2	21	1	CRAYON	401	n/a	n/a	0	0	0
441.756	n/a	WORD	220878	wordpools/wasnorm_wordpool_576.txt	LTP133	ltpFR2	21	1	FLESH	579	n/a	n/a	0	0	0
444.316	n/a	WORD	222158	wordpools/wasnorm_wordpool_576.txt	LTP133	ltpFR2	21	1	PIZZA	1079	n/a	n/a	0	0	0
446.924	n/a	WORD	223462	wordpools/wasnorm_wordpool_576.txt	LTP133	ltpFR2	21	1	CONVICT	371	n/a	n/a	0	0	0
449.518	n/a	WORD	224759	wordpools/wasnorm_wordpool_576.txt	LTP133	ltpFR2	21	1	ACTOR	5	n/a	n/a	0	0	0
452.308	n/a	WORD	226154	wordpools/wasnorm_wordpool_576.txt	LTP133	ltpFR2	21	1	ACTRESS	6	n/a	n/a	0	0	0
455.106	n/a	WORD	227553	wordpools/wasnorm_wordpool_576.txt	LTP133	ltpFR2	21	1	DRAGON	492	n/a	n/a	0	0	0
457.716	n/a	WORD	228858	wordpools/wasnorm_wordpool_576.txt	LTP133	ltpFR2	21	1	CHIPMUNK	304	n/a	n/a	0	0	0
460.242	n/a	WORD	230121	wordpools/wasnorm_wordpool_576.txt	LTP133	ltpFR2	21	1	THIEF	1456	n/a	n/a	0	0	0
462.702	n/a	WORD	231351	wordpools/wasnorm_wordpool_576.txt	LTP133	ltpFR2	21	1	HATCHET	691	n/a	n/a	0	0	0
465.28	n/a	WORD	232640	wordpools/wasnorm_wordpool_576.txt	LTP133	ltpFR2	21	1	CARRIAGE	248	n/a	n/a	0	0	0
468.088	n/a	WORD	234044	wordpools/wasnorm_wordpool_576.txt	LTP133	ltpFR2	21	1	TRACTOR	1493	n/a	n/a	0	0	0
469.696	n/a	START	234848	n/a	LTP133	ltpFR2	21	n/a	n/a	n/a	2	n/a	n/a	n/a	n/a
470.752	n/a	DISTRACTOR	235376	n/a	LTP133	ltpFR2	21	1	n/a	n/a	n/a	n/a	0	0	0
470.766	n/a	PROB	235383	n/a	LTP133	ltpFR2	21	n/a	n/a	n/a	2	22	5	8	9
472.602	n/a	PROB	236301	n/a	LTP133	ltpFR2	21	n/a	n/a	n/a	2	12	3	7	2
473.694	n/a	PROB	236847	n/a	LTP133	ltpFR2	21	n/a	n/a	n/a	2	18	5	7	6
475.4	n/a	PROB	237700	n/a	LTP133	ltpFR2	21	n/a	n/a	n/a	2	20	7	9	4
476.718	n/a	PROB	238359	n/a	LTP133	ltpFR2	21	n/a	n/a	n/a	2	17	1	8	8
478.006	n/a	PROB	239003	n/a	LTP133	ltpFR2	21	n/a	n/a	n/a	2	10	3	1	6
479.346	n/a	PROB	239673	n/a	LTP133	ltpFR2	21	n/a	n/a	n/a	2	14	4	7	3
480.734	n/a	PROB	240367	n/a	LTP133	ltpFR2	21	n/a	n/a	n/a	2	13	2	8	3
482.022	n/a	PROB	241011	n/a	LTP133	ltpFR2	21	n/a	n/a	n/a	2	19	8	3	8
483.264	n/a	PROB	241632	n/a	LTP133	ltpFR2	21	n/a	n/a	n/a	2	13	8	2	3
484.498	n/a	PROB	242249	n/a	LTP133	ltpFR2	21	n/a	n/a	n/a	2	12	1	6	5
485.824	n/a	PROB	242912	n/a	LTP133	ltpFR2	21	n/a	n/a	n/a	2	8	1	4	3
486.91	n/a	PROB	243455	n/a	LTP133	ltpFR2	21	n/a	n/a	n/a	2	11	6	1	4
488.144	n/a	PROB	244072	n/a	LTP133	ltpFR2	21	n/a	n/a	n/a	2	12	5	4	3
489.4	n/a	PROB	244700	n/a	LTP133	ltpFR2	21	n/a	n/a	n/a	2	15	9	1	5
490.776	n/a	PROB	245388	n/a	LTP133	ltpFR2	21	n/a	n/a	n/a	2	14	8	3	2
493.038	n/a	STOP	246519	n/a	LTP133	ltpFR2	21	n/a	n/a	n/a	2	n/a	n/a	n/a	n/a
495.606	n/a	REC_START	247803	n/a	LTP133	ltpFR2	21	1	n/a	n/a	n/a	n/a	0	0	0
496.966	n/a	REC_WORD	248483	wordpools/wasnorm_wordpool_576.txt	LTP133	ltpFR2	21	1	HATCHET	691	n/a	n/a	0	0	0
498.13	n/a	REC_WORD	249065	wordpools/wasnorm_wordpool_576.txt	LTP133	ltpFR2	21	1	CARRIAGE	248	n/a	n/a	0	0	0
499.37	n/a	REC_WORD	249685	wordpools/wasnorm_wordpool_576.txt	LTP133	ltpFR2	21	1	TRACTOR	1493	n/a	n/a	0	0	0
500.664	n/a	REC_WORD	250332	wordpools/wasnorm_wordpool_576.txt	LTP133	ltpFR2	21	1	SCISSORS	1250	n/a	n/a	0	0	0
501.832	n/a	REC_WORD	250916	wordpools/wasnorm_wordpool_576.txt	LTP133	ltpFR2	21	1	THREAD	1460	n/a	n/a	0	0	0
503.03	n/a	REC_WORD	251515	wordpools/wasnorm_wordpool_576.txt	LTP133	ltpFR2	21	1	SADDLE	1221	n/a	n/a	0	0	0
504.496	n/a	REC_WORD	252248	wordpools/wasnorm_wordpool_576.txt	LTP133	ltpFR2	21	1	CHIPMUNK	304	n/a	n/a	0	0	0
505.586	n/a	REC_WORD	252793	wordpools/wasnorm_wordpool_576.txt	LTP133	ltpFR2	21	1	THIEF	1456	n/a	n/a	0	0	0
506.866	n/a	REC_WORD	253433	wordpools/wasnorm_wordpool_576.txt	LTP133	ltpFR2	21	1	DRAGON	492	n/a	n/a	0	0	0
508.234	n/a	REC_WORD	254117	wordpools/wasnorm_wordpool_576.txt	LTP133	ltpFR2	21	1	ACTOR	5	n/a	n/a	0	0	0
509.468	n/a	REC_WORD	254734	wordpools/wasnorm_wordpool_576.txt	LTP133	ltpFR2	21	1	ACTRESS	6	n/a	n/a	0	0	0
510.596	n/a	REC_WORD	255298	wordpools/wasnorm_wordpool_576.txt	LTP133	ltpFR2	21	1	CONVICT	371	n/a	n/a	0	0	0
515.482	n/a	REC_WORD	257741	wordpools/wasnorm_wordpool_576.txt	LTP133	ltpFR2	21	1	MATTRESS	879	n/a	n/a	0	0	0
516.584	n/a	REC_WORD	258292	wordpools/wasnorm_wordpool_576.txt	LTP133	ltpFR2	21	1	LAVA	804	n/a	n/a	0	0	0
517.504	n/a	REC_WORD	258752	wordpools/wasnorm_wordpool_576.txt	LTP133	ltpFR2	21	1	FOOT	590	n/a	n/a	0	0	0
519.41	n/a	REC_WORD	259705	wordpools/wasnorm_wordpool_576.txt	LTP133	ltpFR2	21	1	VENUS	1557	n/a	n/a	0	0	0
520.524	n/a	REC_WORD	260262	wordpools/wasnorm_wordpool_576.txt	LTP133	ltpFR2	21	1	ANKLE	24	n/a	n/a	0	0	0
521.606	n/a	REC_WORD	260803	wordpools/wasnorm_wordpool_576.txt	LTP133	ltpFR2	21	1	PILOT	1070	n/a	n/a	0	0	0
569.098	n/a	REC_WORD	284549	wordpools/wasnorm_wordpool_576.txt	LTP133	ltpFR2	21	1	FLESH	579	n/a	n/a	0	0	0
570.082	n/a	REC_WORD	285041	wordpools/wasnorm_wordpool_576.txt	LTP133	ltpFR2	21	1	CRAYON	401	n/a	n/a	0	0	0
586.81	n/a	WORD	293405	wordpools/wasnorm_wordpool_576.txt	LTP133	ltpFR2	21	2	POET	1095	n/a	n/a	0	0	0
589.366	n/a	WORD	294683	wordpools/wasnorm_wordpool_576.txt	LTP133	ltpFR2	21	2	LUNCH	849	n/a	n/a	0	0	0
591.896	n/a	WORD	295948	wordpools/wasnorm_wordpool_576.txt	LTP133	ltpFR2	21	2	SANDWICH	1232	n/a	n/a	0	0	0
594.536	n/a	WORD	297268	wordpools/wasnorm_wordpool_576.txt	LTP133	ltpFR2	21	2	KETCHUP	771	n/a	n/a	0	0	0
597.032	n/a	WORD	298516	wordpools/wasnorm_wordpool_576.txt	LTP133	ltpFR2	21	2	BOX	159	n/a	n/a	0	0	0
599.86	n/a	WORD	299930	wordpools/wasnorm_wordpool_576.txt	LTP133	ltpFR2	21	2	PACKAGE	997	n/a	n/a	0	0	0
602.554	n/a	WORD	301277	wordpools/wasnorm_wordpool_576.txt	LTP133	ltpFR2	21	2	RELISH	1183	n/a	n/a	0	0	0
605.058	n/a	WORD	302529	wordpools/wasnorm_wordpool_576.txt	LTP133	ltpFR2	21	2	LADY	794	n/a	n/a	0	0	0
607.822	n/a	WORD	303911	wordpools/wasnorm_wordpool_576.txt	LTP133	ltpFR2	21	2	PLAZA	1088	n/a	n/a	0	0	0
610.452	n/a	WORD	305226	wordpools/wasnorm_wordpool_576.txt	LTP133	ltpFR2	21	2	MONEY	908	n/a	n/a	0	0	0
613.278	n/a	WORD	306639	wordpools/wasnorm_wordpool_576.txt	LTP133	ltpFR2	21	2	GALLON	618	n/a	n/a	0	0	0
615.938	n/a	WORD	307969	wordpools/wasnorm_wordpool_576.txt	LTP133	ltpFR2	21	2	EUROPE	541	n/a	n/a	0	0	0
618.726	n/a	WORD	309363	wordpools/wasnorm_wordpool_576.txt	LTP133	ltpFR2	21	2	WIFE	1609	n/a	n/a	0	0	0
621.208	n/a	WORD	310604	wordpools/wasnorm_wordpool_576.txt	LTP133	ltpFR2	21	2	HOOK	715	n/a	n/a	0	0	0
623.762	n/a	WORD	311881	wordpools/wasnorm_wordpool_576.txt	LTP133	ltpFR2	21	2	SKETCH	1315	n/a	n/a	0	0	0
626.558	n/a	WORD	313279	wordpools/wasnorm_wordpool_576.txt	LTP133	ltpFR2	21	2	YARN	1631	n/a	n/a	0	0	0
628.988	n/a	WORD	314494	wordpools/wasnorm_wordpool_576.txt	LTP133	ltpFR2	21	2	PLAID	1080	n/a	n/a	0	0	0
631.498	n/a	WORD	315749	wordpools/wasnorm_wordpool_576.txt	LTP133	ltpFR2	21	2	JOURNAL	760	n/a	n/a	0	0	0
634.292	n/a	WORD	317146	wordpools/wasnorm_wordpool_576.txt	LTP133	ltpFR2	21	2	WAITER	1580	n/a	n/a	0	0	0
636.8	n/a	WORD	318400	wordpools/wasnorm_wordpool_576.txt	LTP133	ltpFR2	21	2	JAPAN	749	n/a	n/a	0	0	0
639.394	n/a	WORD	319697	wordpools/wasnorm_wordpool_576.txt	LTP133	ltpFR2	21	2	BRANCH	168	n/a	n/a	0	0	0
641.87	n/a	WORD	320935	wordpools/wasnorm_wordpool_576.txt	LTP133	ltpFR2	21	2	PASSAGE	1019	n/a	n/a	0	0	0
644.664	n/a	WORD	322332	wordpools/wasnorm_wordpool_576.txt	LTP133	ltpFR2	21	2	OMELET	976	n/a	n/a	0	0	0
647.276	n/a	WORD	323638	wordpools/wasnorm_wordpool_576.txt	LTP133	ltpFR2	21	2	GLOBE	641	n/a	n/a	0	0	0
648.894	n/a	START	324447	n/a	LTP133	ltpFR2	21	n/a	n/a	n/a	3	n/a	n/a	n/a	n/a
649.846	n/a	DISTRACTOR	324923	n/a	LTP133	ltpFR2	21	2	n/a	n/a	n/a	n/a	0	0	0
649.862	n/a	PROB	324931	n/a	LTP133	ltpFR2	21	n/a	n/a	n/a	3	14	6	5	3
651.454	n/a	PROB	325727	n/a	LTP133	ltpFR2	21	n/a	n/a	n/a	3	23	8	8	7
654.0	n/a	PROB	327000	n/a	LTP133	ltpFR2	21	n/a	n/a	n/a	3	16	5	6	5
655.088	n/a	PROB	327544	n/a	LTP133	ltpFR2	21	n/a	n/a	n/a	3	14	2	3	9
656.726	n/a	PROB	328363	n/a	LTP133	ltpFR2	21	n/a	n/a	n/a	3	19	7	6	6
658.06	n/a	PROB	329030	n/a	LTP133	ltpFR2	21	n/a	n/a	n/a	3	17	4	8	5
659.338	n/a	PROB	329669	n/a	LTP133	ltpFR2	21	n/a	n/a	n/a	3	9	5	2	2
660.404	n/a	PROB	330202	n/a	LTP133	ltpFR2	21	n/a	n/a	n/a	3	14	4	7	3
661.746	n/a	PROB	330873	n/a	LTP133	ltpFR2	21	n/a	n/a	n/a	3	16	3	8	5
663.034	n/a	PROB	331517	n/a	LTP133	ltpFR2	21	n/a	n/a	n/a	3	8	1	1	6
664.1	n/a	PROB	332050	n/a	LTP133	ltpFR2	21	n/a	n/a	n/a	3	15	4	8	3
665.306	n/a	PROB	332653	n/a	LTP133	ltpFR2	21	n/a	n/a	n/a	3	3	1	1	1
666.532	n/a	PROB	333266	n/a	LTP133	ltpFR2	21	n/a	n/a	n/a	3	21	6	8	7
668.138	n/a	PROB	334069	n/a	LTP133	ltpFR2	21	n/a	n/a	n/a	3	15	1	6	8
669.338	n/a	PROB	334669	n/a	LTP133	ltpFR2	21	n/a	n/a	n/a	3	23	8	7	8
671.178	n/a	PROB	335589	n/a	LTP133	ltpFR2	21	n/a	n/a	n/a	3	13	5	2	6
672.472	n/a	STOP	336236	n/a	LTP133	ltpFR2	21	n/a	n/a	n/a	3	n/a	n/a	n/a	n/a
674.776	n/a	REC_START	337388	n/a	LTP133	ltpFR2	21	2	n/a	n/a	n/a	n/a	0	0	0
677.408	n/a	REC_WORD	338704	wordpools/wasnorm_wordpool_576.txt	LTP133	ltpFR2	21	2	PASSAGE	1019	n/a	n/a	0	0	0
678.456	n/a	REC_WORD	339228	wordpools/wasnorm_wordpool_576.txt	LTP133	ltpFR2	21	2	GLOBE	641	n/a	n/a	0	0	0
679.514	n/a	REC_WORD	339757	wordpools/wasnorm_wordpool_576.txt	LTP133	ltpFR2	21	2	OMELET	976	n/a	n/a	0	0	0
680.694	n/a	REC_WORD	340347	wordpools/wasnorm_wordpool_576.txt	LTP133	ltpFR2	21	2	WAITER	1580	n/a	n/a	0	0	0
681.516	n/a	REC_WORD	340758	wordpools/wasnorm_wordpool_576.txt	LTP133	ltpFR2	21	2	JAPAN	749	n/a	n/a	0	0	0
682.854	n/a	REC_WORD	341427	wordpools/wasnorm_wordpool_576.txt	LTP133	ltpFR2	21	2	BRANCH	168	n/a	n/a	0	0	0
686.714	n/a	REC_WORD	343357	wordpools/wasnorm_wordpool_576.txt	LTP133	ltpFR2	21	2	WIFE	1609	n/a	n/a	0	0	0
687.626	n/a	REC_WORD	343813	wordpools/wasnorm_wordpool_576.txt	LTP133	ltpFR2	21	2	HOOK	715	n/a	n/a	0	0	0
688.718	n/a	REC_WORD	344359	wordpools/wasnorm_wordpool_576.txt	LTP133	ltpFR2	21	2	SKETCH	1315	n/a	n/a	0	0	0
690.352	n/a	REC_WORD	345176	wordpools/wasnorm_wordpool_576.txt	LTP133	ltpFR2	21	2	LADY	794	n/a	n/a	0	0	0
691.274	n/a	REC_WORD	345637	wordpools/wasnorm_wordpool_576.txt	LTP133	ltpFR2	21	2	PLAZA	1088	n/a	n/a	0	0	0
692.496	n/a	REC_WORD	346248	wordpools/wasnorm_wordpool_576.txt	LTP133	ltpFR2	21	2	RELISH	1183	n/a	n/a	0	0	0
693.86	n/a	REC_WORD	346930	wordpools/wasnorm_wordpool_576.txt	LTP133	ltpFR2	21	2	KETCHUP	771	n/a	n/a	0	0	0
694.954	n/a	REC_WORD	347477	wordpools/wasnorm_wordpool_576.txt	LTP133	ltpFR2	21	2	BOX	159	n/a	n/a	0	0	0
696.14	n/a	REC_WORD	348070	wordpools/wasnorm_wordpool_576.txt	LTP133	ltpFR2	21	2	PACKAGE	997	n/a	n/a	0	0	0
697.898	n/a	REC_WORD	348949	wordpools/wasnorm_wordpool_576.txt	LTP133	ltpFR2	21	2	EUROPE	541	n/a	n/a	0	0	0
698.868	n/a	REC_WORD	349434	wordpools/wasnorm_wordpool_576.txt	LTP133	ltpFR2	21	2	MONEY	908	n/a	n/a	0	0	0
700.72	n/a	REC_WORD	350360	wordpools/wasnorm_wordpool_576.txt	LTP133	ltpFR2	21	2	GALLON	618	n/a	n/a	0	0	0
766.448	n/a	WORD	383224	wordpools/wasnorm_wordpool_576.txt	LTP133	ltpFR2	21	3	DINER	467	n/a	n/a	0	0	0
769.056	n/a	WORD	384528	wordpools/wasnorm_wordpool_576.txt	LTP133	ltpFR2	21	3	EMPIRE	530	n/a	n/a	0	0	0
771.612	n/a	WORD	385806	wordpools/wasnorm_wordpool_576.txt	LTP133	ltpFR2	21	3	BURGLAR	200	n/a	n/a	0	0	0
774.12	n/a	WORD	387060	wordpools/wasnorm_wordpool_576.txt	LTP133	ltpFR2	21	3	HANDBAG	684	n/a	n/a	0	0	0
776.714	n/a	WORD	388357	wordpools/wasnorm_wordpool_576.txt	LTP133	ltpFR2	21	3	BUCKET	184	n/a	n/a	0	0	0
779.36	n/a	WORD	389680	wordpools/wasnorm_wordpool_576.txt	LTP133	ltpFR2	21	3	NURSE	963	n/a	n/a	0	0	0
781.972	n/a	WORD	390986	wordpools/wasnorm_wordpool_576.txt	LTP133	ltpFR2	21	3	BELLY	119	n/a	n/a	0	0	0
784.678	n/a	WORD	392339	wordpools/wasnorm_wordpool_576.txt	LTP133	ltpFR2	21	3	BODY	145	n/a	n/a	0	0	0
787.294	n/a	WORD	393647	wordpools/wasnorm_wordpool_576.txt	LTP133	ltpFR2	21	3	COOK	372	n/a	n/a	0	0	0
789.918	n/a	WORD	394959	wordpools/wasnorm_wordpool_576.txt	LTP133	ltpFR2	21	3	CHURCH	307	n/a	n/a	0	0	0
792.608	n/a	WORD	396304	wordpools/wasnorm_wordpool_576.txt	LTP133	ltpFR2	21	3	HORSE	719	n/a	n/a	0	0	0
795.054	n/a	WORD	397527	wordpools/wasnorm_wordpool_576.txt	LTP133	ltpFR2	21	3	LABEL	790	n/a	n/a	0	0	0
797.632	n/a	WORD	398816	wordpools/wasnorm_wordpool_576.txt	LTP133	ltpFR2	21	3	VIKING	1565	n/a	n/a	0	0	0
800.208	n/a	WORD	400104	wordpools/wasnorm_wordpool_576.txt	LTP133	ltpFR2	21	3	HAWK	692	n/a	n/a	0	0	0
802.768	n/a	WORD	401384	wordpools/wasnorm_wordpool_576.txt	LTP133	ltpFR2	21	3	JELLY	755	n/a	n/a	0	0	0
805.33	n/a	WORD	402665	wordpools/wasnorm_wordpool_576.txt	LTP133	ltpFR2	21	3	VALVE	1546	n/a	n/a	0	0	0
808.038	n/a	WORD	404019	wordpools/wasnorm_wordpool_576.txt	LTP133	ltpFR2	21	3	BANQUET	86	n/a	n/a	0	0	0
810.848	n/a	WORD	405424	wordpools/wasnorm_wordpool_576.txt	LTP133	ltpFR2	21	3	PISTOL	1075	n/a	n/a	0	0	0
813.426	n/a	WORD	406713	wordpools/wasnorm_wordpool_576.txt	LTP133	ltpFR2	21	3	RIFLE	1192	n/a	n/a	0	0	0
815.932	n/a	WORD	407966	wordpools/wasnorm_wordpool_576.txt	LTP133	ltpFR2	21	3	MARS	873	n/a	n/a	0	0	0
818.712	n/a	WORD	409356	wordpools/wasnorm_wordpool_576.txt	LTP133	ltpFR2	21	3	FLIPPER	580	n/a	n/a	0	0	0
821.424	n/a	WORD	410712	wordpools/wasnorm_wordpool_576.txt	LTP133	ltpFR2	21	3	OUTLAW	989	n/a	n/a	0	0	0
824.096	n/a	WORD	412048	wordpools/wasnorm_wordpool_576.txt	LTP133	ltpFR2	21	3	CAMEL	223	n/a	n/a	0	0	0
826.776	n/a	WORD	413388	wordpools/wasnorm_wordpool_576.txt	LTP133	ltpFR2	21	3	HUMAN	726	n/a	n/a	0	0	0
828.384	n/a	START	414192	n/a	LTP133	ltpFR2	21	n/a	n/a	n/a	4	n/a	n/a	n/a	n/a
829.526	n/a	DISTRACTOR	414763	n/a	LTP133	ltpFR2	21	3	n/a	n/a	n/a	n/a	0	0	0
829.538	n/a	PROB	414769	n/a	LTP133	ltpFR2	21	n/a	n/a	n/a	4	11	4	6	1
830.87	n/a	PROB	415435	n/a	LTP133	ltpFR2	21	n/a	n/a	n/a	4	9	1	6	2
832.294	n/a	PROB	416147	n/a	LTP133	ltpFR2	21	n/a	n/a	n/a	4	19	3	9	7
833.598	n/a	PROB	416799	n/a	LTP133	ltpFR2	21	n/a	n/a	n/a	4	18	9	7	2
834.988	n/a	PROB	417494	n/a	LTP133	ltpFR2	21	n/a	n/a	n/a	4	10	2	1	7
836.212	n/a	PROB	418106	n/a	LTP133	ltpFR2	21	n/a	n/a	n/a	4	10	2	1	7
837.268	n/a	PROB	418634	n/a	LTP133	ltpFR2	21	n/a	n/a	n/a	4	13	9	2	2
838.6	n/a	PROB	419300	n/a	LTP133	ltpFR2	21	n/a	n/a	n/a	4	18	8	8	2
839.772	n/a	PROB	419886	n/a	LTP133	ltpFR2	21	n/a	n/a	n/a	4	17	7	9	1
841.228	n/a	PROB	420614	n/a	LTP133	ltpFR2	21	n/a	n/a	n/a	4	10	1	3	6
842.484	n/a	PROB	421242	n/a	LTP133	ltpFR2	21	n/a	n/a	n/a	4	15	2	6	7
843.77	n/a	PROB	421885	n/a	LTP133	ltpFR2	21	n/a	n/a	n/a	4	13	6	2	5
845.462	n/a	PROB	422731	n/a	LTP133	ltpFR2	21	n/a	n/a	n/a	4	14	7	1	6
847.05	n/a	PROB	423525	n/a	LTP133	ltpFR2	21	n/a	n/a	n/a	4	20	7	5	8
848.794	n/a	PROB	424397	n/a	LTP133	ltpFR2	21	n/a	n/a	n/a	4	13	3	4	6
850.01	n/a	PROB	425005	n/a	LTP133	ltpFR2	21	n/a	n/a	n/a	4	18	2	9	7
851.258	n/a	STOP	425629	n/a	LTP133	ltpFR2	21	n/a	n/a	n/a	4	n/a	n/a	n/a	n/a
854.33	n/a	REC_START	427165	n/a	LTP133	ltpFR2	21	3	n/a	n/a	n/a	n/a	0	0	0
855.282	n/a	REC_WORD	427641	wordpools/wasnorm_wordpool_576.txt	LTP133	ltpFR2	21	3	OUTLAW	989	n/a	n/a	0	0	0
856.28	n/a	REC_WORD	428140	wordpools/wasnorm_wordpool_576.txt	LTP133	ltpFR2	21	3	CAMEL	223	n/a	n/a	0	0	0
857.296	n/a	REC_WORD	428648	wordpools/wasnorm_wordpool_576.txt	LTP133	ltpFR2	21	3	HUMAN	726	n/a	n/a	0	0	0
858.872	n/a	REC_WORD	429436	wordpools/wasnorm_wordpool_576.txt	LTP133	ltpFR2	21	3	RIFLE	1192	n/a	n/a	0	0	0
859.87	n/a	REC_WORD	429935	wordpools/wasnorm_wordpool_576.txt	LTP133	ltpFR2	21	3	MARS	873	n/a	n/a	0	0	0
860.752	n/a	REC_WORD	430376	wordpools/wasnorm_wordpool_576.txt	LTP133	ltpFR2	21	3	FLIPPER	580	n/a	n/a	0	0	0
862.228	n/a	REC_WORD	431114	wordpools/wasnorm_wordpool_576.txt	LTP133	ltpFR2	21	3	PISTOL	1075	n/a	n/a	0	0	0
863.204	n/a	REC_WORD	431602	wordpools/wasnorm_wordpool_576.txt	LTP133	ltpFR2	21	3	VALVE	1546	n/a	n/a	0	0	0
864.188	n/a	REC_WORD	432094	wordpools/wasnorm_wordpool_576.txt	LTP133	ltpFR2	21	3	BANQUET	86	n/a	n/a	0	0	0
906.42	n/a	REC_WORD	453210	wordpools/wasnorm_wordpool_576.txt	LTP133	ltpFR2	21	3	POET	1095	n/a	n/a	0	0	0
907.254	n/a	REC_WORD	453627	wordpools/wasnorm_wordpool_576.txt	LTP133	ltpFR2	21	3	LUNCH	849	n/a	n/a	0	0	0
908.258	n/a	REC_WORD	454129	wordpools/wasnorm_wordpool_576.txt	LTP133	ltpFR2	21	3	SANDWICH	1232	n/a	n/a	0	0	0
945.428	n/a	DISTRACTOR	472714	n/a	LTP133	ltpFR2	21	4	n/a	n/a	n/a	n/a	0	0	0
945.428	n/a	START	472714	n/a	LTP133	ltpFR2	21	n/a	n/a	n/a	5	n/a	n/a	n/a	n/a
945.482	n/a	PROB	472741	n/a	LTP133	ltpFR2	21	n/a	n/a	n/a	5	18	6	4	8
946.832	n/a	PROB	473416	n/a	LTP133	ltpFR2	21	n/a	n/a	n/a	5	9	5	1	3
947.936	n/a	PROB	473968	n/a	LTP133	ltpFR2	21	n/a	n/a	n/a	5	16	5	7	4
949.174	n/a	PROB	474587	n/a	LTP133	ltpFR2	21	n/a	n/a	n/a	5	22	9	8	5
950.596	n/a	PROB	475298	n/a	LTP133	ltpFR2	21	n/a	n/a	n/a	5	21	7	9	5
952.202	n/a	PROB	476101	n/a	LTP133	ltpFR2	21	n/a	n/a	n/a	5	7	2	1	4
953.378	n/a	PROB	476689	n/a	LTP133	ltpFR2	21	n/a	n/a	n/a	5	7	2	1	4
954.882	n/a	PROB	477441	n/a	LTP133	ltpFR2	21	n/a	n/a	n/a	5	17	3	7	7
956.088	n/a	PROB	478044	n/a	LTP133	ltpFR2	21	n/a	n/a	n/a	5	19	9	5	5
957.356	n/a	PROB	478678	n/a	LTP133	ltpFR2	21	n/a	n/a	n/a	5	13	5	5	3
958.544	n/a	PROB	479272	n/a	LTP133	ltpFR2	21	n/a	n/a	n/a	5	12	4	2	6
959.768	n/a	PROB	479884	n/a	LTP133	ltpFR2	21	n/a	n/a	n/a	5	8	3	2	3
960.968	n/a	PROB	480484	n/a	LTP133	ltpFR2	21	n/a	n/a	n/a	5	16	6	1	9
962.258	n/a	PROB	481129	n/a	LTP133	ltpFR2	21	n/a	n/a	n/a	5	17	7	3	7
963.596	n/a	PROB	481798	n/a	LTP133	ltpFR2	21	n/a	n/a	n/a	5	14	6	1	7
964.95	n/a	PROB	482475	n/a	LTP133	ltpFR2	21	n/a	n/a	n/a	5	20	6	6	8
966.546	n/a	PROB	483273	n/a	LTP133	ltpFR2	21	n/a	n/a	n/a	5	21	9	4	8
967.92	n/a	STOP	483960	n/a	LTP133	ltpFR2	21	n/a	n/a	n/a	5	n/a	n/a	n/a	n/a
970.276	n/a	WORD	485138	wordpools/wasnorm_wordpool_576.txt	LTP133	ltpFR2	21	4	GLOVE	642	n/a	n/a	0	0	0
972.936	n/a	WORD	486468	wordpools/wasnorm_wordpool_576.txt	LTP133	ltpFR2	21	4	CATTLE	261	n/a	n/a	0	0	0
975.724	n/a	WORD	487862	wordpools/wasnorm_wordpool_576.txt	LTP133	ltpFR2	21	4	TAXI	1438	n/a	n/a	0	0	0
978.2	n/a	WORD	489100	wordpools/wasnorm_wordpool_576.txt	LTP133	ltpFR2	21	4	SIBLING	1301	n/a	n/a	0	0	0
980.866	n/a	WORD	490433	wordpools/wasnorm_wordpool_576.txt	LTP133	ltpFR2	21	4	NOMAD	955	n/a	n/a	0	0	0
983.528	n/a	WORD	491764	wordpools/wasnorm_wordpool_576.txt	LTP133	ltpFR2	21	4	BOUQUET	157	n/a	n/a	0	0	0
986.082	n/a	WORD	493041	wordpools/wasnorm_wordpool_576.txt	LTP133	ltpFR2	21	4	SNAIL	1332	n/a	n/a	0	0	0
988.546	n/a	WORD	494273	wordpools/wasnorm_wordpool_576.txt	LTP133	ltpFR2	21	4	HAND	683	n/a	n/a	0	0	0
991.252	n/a	WORD	495626	wordpools/wasnorm_wordpool_576.txt	LTP133	ltpFR2	21	4	WINDOW	1611	n/a	n/a	0	0	0
993.798	n/a	WORD	496899	wordpools/wasnorm_wordpool_576.txt	LTP133	ltpFR2	21	4	BANK	83	n/a	n/a	0	0	0
996.526	n/a	WORD	498263	wordpools/wasnorm_wordpool_576.txt	LTP133	ltpFR2	21	4	PADDLE	1000	n/a	n/a	0	0	0
999.114	n/a	WORD	499557	wordpools/wasnorm_wordpool_576.txt	LTP133	ltpFR2	21	4	BROOK	177	n/a	n/a	0	0	0
1001.546	n/a	WORD	500773	wordpools/wasnorm_wordpool_576.txt	LTP133	ltpFR2	21	4	DAISY	435	n/a	n/a	0	0	0
1003.988	n/a	WORD	501994	wordpools/wasnorm_wordpool_576.txt	LTP133	ltpFR2	21	4	IDOL	733	n/a	n/a	0	0	0
1006.414	n/a	WORD	503207	wordpools/wasnorm_wordpool_576.txt	LTP133	ltpFR2	21	4	LIPSTICK	829	n/a	n/a	0	0	0
1009.036	n/a	WORD	504518	wordpools/wasnorm_wordpool_576.txt	LTP133	ltpFR2	21	4	EYELASH	546	n/a	n/a	0	0	0
1011.53	n/a	WORD	505765	wordpools/wasnorm_wordpool_576.txt	LTP133	ltpFR2	21	4	SODA	1341	n/a	n/a	0	0	0
1014.072	n/a	WORD	507036	wordpools/wasnorm_wordpool_576.txt	LTP133	ltpFR2	21	4	FRIEND	606	n/a	n/a	0	0	0
1016.714	n/a	WORD	508357	wordpools/wasnorm_wordpool_576.txt	LTP133	ltpFR2	21	4	PARTNER	1017	n/a	n/a	0	0	0
1019.464	n/a	WORD	509732	wordpools/wasnorm_wordpool_576.txt	LTP133	ltpFR2	21	4	LETTUCE	814	n/a	n/a	0	0	0
1022.024	n/a	WORD	511012	wordpools/wasnorm_wordpool_576.txt	LTP133	ltpFR2	21	4	MAPLE	866	n/a	n/a	0	0	0
1024.616	n/a	WORD	512308	wordpools/wasnorm_wordpool_576.txt	LTP133	ltpFR2	21	4	CLOUD	328	n/a	n/a	0	0	0
1027.16	n/a	WORD	513580	wordpools/wasnorm_wordpool_576.txt	LTP133	ltpFR2	21	4	TUBA	1515	n/a	n/a	0	0	0
1029.636	n/a	WORD	514818	wordpools/wasnorm_wordpool_576.txt	LTP133	ltpFR2	21	4	SLIME	1327	n/a	n/a	0	0	0
1031.242	n/a	START	515621	n/a	LTP133	ltpFR2	21	n/a	n/a	n/a	6	n/a	n/a	n/a	n/a
1032.282	n/a	DISTRACTOR	516141	n/a	LTP133	ltpFR2	21	4	n/a	n/a	n/a	n/a	0	0	0
1032.296	n/a	PROB	516148	n/a	LTP133	ltpFR2	21	n/a	n/a	n/a	6	24	9	8	7
1034.202	n/a	PROB	517101	n/a	LTP133	ltpFR2	21	n/a	n/a	n/a	6	12	1	3	8
1035.688	n/a	PROB	517844	n/a	LTP133	ltpFR2	21	n/a	n/a	n/a	6	15	4	6	5
1037.014	n/a	PROB	518507	n/a	LTP133	ltpFR2	21	n/a	n/a	n/a	6	12	2	8	2
1038.382	n/a	PROB	519191	n/a	LTP133	ltpFR2	21	n/a	n/a	n/a	6	18	7	6	5
1039.686	n/a	PROB	519843	n/a	LTP133	ltpFR2	21	n/a	n/a	n/a	6	13	8	2	3
1041.226	n/a	PROB	520613	n/a	LTP133	ltpFR2	21	n/a	n/a	n/a	6	12	1	6	5
1042.548	n/a	PROB	521274	n/a	LTP133	ltpFR2	21	n/a	n/a	n/a	6	10	6	2	2
1043.974	n/a	PROB	521987	n/a	LTP133	ltpFR2	21	n/a	n/a	n/a	6	9	4	1	4
1045.28	n/a	PROB	522640	n/a	LTP133	ltpFR2	21	n/a	n/a	n/a	6	12	5	2	5
1046.568	n/a	PROB	523284	n/a	LTP133	ltpFR2	21	n/a	n/a	n/a	6	21	9	7	5
1048.454	n/a	PROB	524227	n/a	LTP133	ltpFR2	21	n/a	n/a	n/a	6	6	4	1	1
1049.874	n/a	PROB	524937	n/a	LTP133	ltpFR2	21	n/a	n/a	n/a	6	6	3	5	8
1051.286	n/a	PROB	525643	n/a	LTP133	ltpFR2	21	n/a	n/a	n/a	6	13	5	3	5
1053.02	n/a	PROB	526510	n/a	LTP133	ltpFR2	21	n/a	n/a	n/a	6	14	2	4	8
1054.3	n/a	STOP	527150	n/a	LTP133	ltpFR2	21	n/a	n/a	n/a	6	n/a	n/a	n/a	n/a
1057.126	n/a	REC_START	528563	n/a	LTP133	ltpFR2	21	4	n/a	n/a	n/a	n/a	0	0	0
1058.606	n/a	REC_WORD	529303	wordpools/wasnorm_wordpool_576.txt	LTP133	ltpFR2	21	4	CLOUD	328	n/a	n/a	0	0	0
1059.494	n/a	REC_WORD	529747	wordpools/wasnorm_wordpool_576.txt	LTP133	ltpFR2	21	4	SLIME	1327	n/a	n/a	0	0	0
1060.766	n/a	REC_WORD	530383	wordpools/wasnorm_wordpool_576.txt	LTP133	ltpFR2	21	4	TUBA	1515	n/a	n/a	0	0	0
1083.476	n/a	REC_WORD	541738	wordpools/wasnorm_wordpool_576.txt	LTP133	ltpFR2	21	4	GLOVE	642	n/a	n/a	0	0	0
1085.79	n/a	REC_WORD	542895	wordpools/wasnorm_wordpool_576.txt	LTP133	ltpFR2	21	4	TAXI	1438	n/a	n/a	0	0	0
1088.1	n/a	REC_WORD	544050	wordpools/wasnorm_wordpool_576.txt	LTP133	ltpFR2	21	4	CATTLE	261	n/a	n/a	0	0	0
1197.142	n/a	DISTRACTOR	598571	n/a	LTP133	ltpFR2	21	5	n/a	n/a	n/a	n/a	0	0	0
1197.142	n/a	START	598571	n/a	LTP133	ltpFR2	21	n/a	n/a	n/a	7	n/a	n/a	n/a	n/a
1197.192	n/a	PROB	598596	n/a	LTP133	ltpFR2	21	n/a	n/a	n/a	7	9	1	7	1
1198.394	n/a	PROB	599197	n/a	LTP133	ltpFR2	21	n/a	n/a	n/a	7	13	1	3	9
1199.536	n/a	PROB	599768	n/a	LTP133	ltpFR2	21	n/a	n/a	n/a	7	7	4	2	1
1200.684	n/a	PROB	600342	n/a	LTP133	ltpFR2	21	n/a	n/a	n/a	7	9	2	5	2
1201.788	n/a	PROB	600894	n/a	LTP133	ltpFR2	21	n/a	n/a	n/a	7	12	1	6	5
1203.246	n/a	PROB	601623	n/a	LTP133	ltpFR2	21	n/a	n/a	n/a	7	17	8	2	7
1204.45	n/a	PROB	602225	n/a	LTP133	ltpFR2	21	n/a	n/a	n/a	7	13	6	3	4
1206.14	n/a	PROB	603070	n/a	LTP133	ltpFR2	21	n/a	n/a	n/a	7	23	8	8	7
1207.478	n/a	PROB	603739	n/a	LTP133	ltpFR2	21	n/a	n/a	n/a	7	13	2	4	7
1208.736	n/a	PROB	604368	n/a	LTP133	ltpFR2	21	n/a	n/a	n/a	7	11	5	3	3
1210.628	n/a	PROB	605314	n/a	LTP133	ltpFR2	21	n/a	n/a	n/a	7	12	3	2	7
1211.878	n/a	PROB	605939	n/a	LTP133	ltpFR2	21	n/a	n/a	n/a	7	14	3	3	8
1213.232	n/a	PROB	606616	n/a	LTP133	ltpFR2	21	n/a	n/a	n/a	7	8	1	4	3
1214.372	n/a	PROB	607186	n/a	LTP133	ltpFR2	21	n/a	n/a	n/a	7	9	4	3	2
1215.876	n/a	PROB	607938	n/a	LTP133	ltpFR2	21	n/a	n/a	n/a	7	18	5	8	5
1217.152	n/a	PROB	608576	n/a	LTP133	ltpFR2	21	n/a	n/a	n/a	7	26	8	9	9
1218.858	n/a	PROB	609429	n/a	LTP133	ltpFR2	21	n/a	n/a	n/a	7	15	5	7	3
1220.326	n/a	STOP	610163	n/a	LTP133	ltpFR2	21	n/a	n/a	n/a	7	n/a	n/a	n/a	n/a
1222.34	n/a	WORD	611170	wordpools/wasnorm_wordpool_576.txt	LTP133	ltpFR2	21	5	PIGEON	1065	n/a	n/a	0	0	0
1225.096	n/a	WORD	612548	wordpools/wasnorm_wordpool_576.txt	LTP133	ltpFR2	21	5	WAITRESS	1581	n/a	n/a	0	0	0
1227.788	n/a	WORD	613894	wordpools/wasnorm_wordpool_576.txt	LTP133	ltpFR2	21	5	AIRPORT	13	n/a	n/a	0	0	0
1230.572	n/a	WORD	615286	wordpools/wasnorm_wordpool_576.txt	LTP133	ltpFR2	21	5	GLASS	639	n/a	n/a	0	0	0
1233.298	n/a	WORD	616649	wordpools/wasnorm_wordpool_576.txt	LTP133	ltpFR2	21	5	LODGE	839	n/a	n/a	0	0	0
1236.008	n/a	WORD	618004	wordpools/wasnorm_wordpool_576.txt	LTP133	ltpFR2	21	5	BUGGY	188	n/a	n/a	0	0	0
1238.502	n/a	WORD	619251	wordpools/wasnorm_wordpool_576.txt	LTP133	ltpFR2	21	5	POSSUM	1112	n/a	n/a	0	0	0
1241.094	n/a	WORD	620547	wordpools/wasnorm_wordpool_576.txt	LTP133	ltpFR2	21	5	POPCORN	1104	n/a	n/a	0	0	0
1243.8	n/a	WORD	621900	wordpools/wasnorm_wordpool_576.txt	LTP133	ltpFR2	21	5	CLAM	315	n/a	n/a	0	0	0
1246.248	n/a	WORD	623124	wordpools/wasnorm_wordpool_576.txt	LTP133	ltpFR2	21	5	SEAFOOD	1260	n/a	n/a	0	0	0
1248.908	n/a	WORD	624454	wordpools/wasnorm_wordpool_576.txt	LTP133	ltpFR2	21	5	PERMIT	1051	n/a	n/a	0	0	0
1251.434	n/a	WORD	625717	wordpools/wasnorm_wordpool_576.txt	LTP133	ltpFR2	21	5	TORTOISE	1486	n/a	n/a	0	0	0
1253.876	n/a	WORD	626938	wordpools/wasnorm_wordpool_576.txt	LTP133	ltpFR2	21	5	SLUG	1329	n/a	n/a	0	0	0
1256.336	n/a	WORD	628168	wordpools/wasnorm_wordpool_576.txt	LTP133	ltpFR2	21	5	PLAYGROUND	1087	n/a	n/a	0	0	0
1258.806	n/a	WORD	629403	wordpools/wasnorm_wordpool_576.txt	LTP133	ltpFR2	21	5	BATHTUB	100	n/a	n/a	0	0	0
1261.434	n/a	WORD	630717	wordpools/wasnorm_wordpool_576.txt	LTP133	ltpFR2	21	5	SWORD	1423	n/a	n/a	0	0	0
1263.898	n/a	WORD	631949	wordpools/wasnorm_wordpool_576.txt	LTP133	ltpFR2	21	5	MASK	876	n/a	n/a	0	0	0
1266.61	n/a	WORD	633305	wordpools/wasnorm_wordpool_576.txt	LTP133	ltpFR2	21	5	HIKER	708	n/a	n/a	0	0	0
1269.196	n/a	WORD	634598	wordpools/wasnorm_wordpool_576.txt	LTP133	ltpFR2	21	5	MILDEW	893	n/a	n/a	0	0	0
1271.996	n/a	WORD	635998	wordpools/wasnorm_wordpool_576.txt	LTP133	ltpFR2	21	5	STATUE	1374	n/a	n/a	0	0	0
1274.622	n/a	WORD	637311	wordpools/wasnorm_wordpool_576.txt	LTP133	ltpFR2	21	5	DRAWING	494	n/a	n/a	0	0	0
1277.132	n/a	WORD	638566	wordpools/wasnorm_wordpool_576.txt	LTP133	ltpFR2	21	5	CURTAIN	427	n/a	n/a	0	0	0
1279.892	n/a	WORD	639946	wordpools/wasnorm_wordpool_576.txt	LTP133	ltpFR2	21	5	MISSILE	900	n/a	n/a	0	0	0
1282.652	n/a	WORD	641326	wordpools/wasnorm_wordpool_576.txt	LTP133	ltpFR2	21	5	FUNGUS	614	n/a	n/a	0	0	0
1284.26	n/a	START	642130	n/a	LTP133	ltpFR2	21	n/a	n/a	n/a	8	n/a	n/a	n/a	n/a
1285.34	n/a	DISTRACTOR	642670	n/a	LTP133	ltpFR2	21	5	n/a	n/a	n/a	n/a	0	0	0
1285.36	n/a	PROB	642680	n/a	LTP133	ltpFR2	21	n/a	n/a	n/a	8	19	6	5	8
1287.484	n/a	PROB	643742	n/a	LTP133	ltpFR2	21	n/a	n/a	n/a	8	18	5	6	7
1289.258	n/a	PROB	644629	n/a	LTP133	ltpFR2	21	n/a	n/a	n/a	8	20	8	8	6
1290.996	n/a	PROB	645498	n/a	LTP133	ltpFR2	21	n/a	n/a	n/a	8	17	8	2	7
1292.504	n/a	PROB	646252	n/a	LTP133	ltpFR2	21	n/a	n/a	n/a	8	22	7	7	8
1294.51	n/a	PROB	647255	n/a	LTP133	ltpFR2	21	n/a	n/a	n/a	8	13	7	5	1
1295.882	n/a	PROB	647941	n/a	LTP133	ltpFR2	21	n/a	n/a	n/a	8	17	8	1	8
1297.158	n/a	PROB	648579	n/a	LTP133	ltpFR2	21	n/a	n/a	n/a	8	17	4	4	9
1298.692	n/a	PROB	649346	n/a	LTP133	ltpFR2	21	n/a	n/a	n/a	8	14	4	1	9
1300.086	n/a	PROB	650043	n/a	LTP133	ltpFR2	21	n/a	n/a	n/a	8	13	6	6	1
1301.308	n/a	PROB	650654	n/a	LTP133	ltpFR2	21	n/a	n/a	n/a	8	17	8	7	2
1302.592	n/a	PROB	651296	n/a	LTP133	ltpFR2	21	n/a	n/a	n/a	8	18	5	7	6
1303.918	n/a	PROB	651959	n/a	LTP133	ltpFR2	21	n/a	n/a	n/a	8	18	4	8	6
1305.52	n/a	PROB	652760	n/a	LTP133	ltpFR2	21	n/a	n/a	n/a	8	18	5	6	7
1307.106	n/a	STOP	653553	n/a	LTP133	ltpFR2	21	n/a	n/a	n/a	8	n/a	n/a	n/a	n/a
1310.188	n/a	REC_START	655094	n/a	LTP133	ltpFR2	21	5	n/a	n/a	n/a	n/a	0	0	0
1311.882	n/a	REC_WORD	655941	wordpools/wasnorm_wordpool_576.txt	LTP133	ltpFR2	21	5	CURTAIN	427	n/a	n/a	0	0	0
1312.872	n/a	REC_WORD	656436	wordpools/wasnorm_wordpool_576.txt	LTP133	ltpFR2	21	5	MISSILE	900	n/a	n/a	0	0	0
1314.802	n/a	REC_WORD	657401	wordpools/wasnorm_wordpool_576.txt	LTP133	ltpFR2	21	5	FUNGUS	614	n/a	n/a	0	0	0
1317.054	n/a	REC_WORD	658527	wordpools/wasnorm_wordpool_576.txt	LTP133	ltpFR2	21	5	DRAWING	494	n/a	n/a	0	0	0
1317.912	n/a	REC_WORD	658956	wordpools/wasnorm_wordpool_576.txt	LTP133	ltpFR2	21	5	STATUE	1374	n/a	n/a	0	0	0
1319.188	n/a	REC_WORD	659594	wordpools/wasnorm_wordpool_576.txt	LTP133	ltpFR2	21	5	MILDEW	893	n/a	n/a	0	0	0
1335.71	n/a	REC_WORD	667855	wordpools/wasnorm_wordpool_576.txt	LTP133	ltpFR2	21	5	MASK	876	n/a	n/a	0	0	0
1336.786	n/a	REC_WORD	668393	wordpools/wasnorm_wordpool_576.txt	LTP133	ltpFR2	21	5	SWORD	1423	n/a	n/a	0	0	0
1338.046	n/a	REC_WORD	669023	wordpools/wasnorm_wordpool_576.txt	LTP133	ltpFR2	21	5	HITCHHIKER	-1	n/a	n/a	0	0	0
1366.568	n/a	REC_WORD	683284	wordpools/wasnorm_wordpool_576.txt	LTP133	ltpFR2	21	5	MISSILE	900	n/a	n/a	0	0	0
1368.196	n/a	REC_WORD	684098	wordpools/wasnorm_wordpool_576.txt	LTP133	ltpFR2	21	5	ROCKET	1202	n/a	n/a	0	0	0
1401.308	n/a	DISTRACTOR	700654	n/a	LTP133	ltpFR2	21	6	n/a	n/a	n/a	n/a	0	0	0
1401.308	n/a	START	700654	n/a	LTP133	ltpFR2	21	n/a	n/a	n/a	9	n/a	n/a	n/a	n/a
1401.358	n/a	PROB	700679	n/a	LTP133	ltpFR2	21	n/a	n/a	n/a	9	10	7	2	1
1403.13	n/a	PROB	701565	n/a	LTP133	ltpFR2	21	n/a	n/a	n/a	9	12	1	2	9
1404.284	n/a	PROB	702142	n/a	LTP133	ltpFR2	21	n/a	n/a	n/a	9	15	7	6	2
1405.486	n/a	PROB	702743	n/a	LTP133	ltpFR2	21	n/a	n/a	n/a	9	23	6	9	8
1407.292	n/a	PROB	703646	n/a	LTP133	ltpFR2	21	n/a	n/a	n/a	9	22	9	9	4
1408.98	n/a	PROB	704490	n/a	LTP133	ltpFR2	21	n/a	n/a	n/a	9	16	4	9	3
1410.622	n/a	PROB	705311	n/a	LTP133	ltpFR2	21	n/a	n/a	n/a	9	12	3	3	6
1411.964	n/a	PROB	705982	n/a	LTP133	ltpFR2	21	n/a	n/a	n/a	9	17	8	8	1
1413.4	n/a	PROB	706700	n/a	LTP133	ltpFR2	21	n/a	n/a	n/a	9	15	2	5	8
1414.652	n/a	PROB	707326	n/a	LTP133	ltpFR2	21	n/a	n/a	n/a	9	19	1	9	9
1415.974	n/a	PROB	707987	n/a	LTP133	ltpFR2	21	n/a	n/a	n/a	9	13	2	9	2
1417.514	n/a	PROB	708757	n/a	LTP133	ltpFR2	21	n/a	n/a	n/a	9	21	8	8	5
1418.868	n/a	PROB	709434	n/a	LTP133	ltpFR2	21	n/a	n/a	n/a	9	14	9	3	2
1420.262	n/a	PROB	710131	n/a	LTP133	ltpFR2	21	n/a	n/a	n/a	9	13	3	7	3
1421.796	n/a	PROB	710898	n/a	LTP133	ltpFR2	21	n/a	n/a	n/a	9	9	4	3	2
1423.052	n/a	PROB	711526	n/a	LTP133	ltpFR2	21	n/a	n/a	n/a	9	12	8	1	3
1424.584	n/a	STOP	712292	n/a	LTP133	ltpFR2	21	n/a	n/a	n/a	9	n/a	n/a	n/a	n/a
1426.486	n/a	WORD	713243	wordpools/wasnorm_wordpool_576.txt	LTP133	ltpFR2	21	6	ROD	1203	n/a	n/a	0	0	0
1429.012	n/a	WORD	714506	wordpools/wasnorm_wordpool_576.txt	LTP133	ltpFR2	21	6	TUNNEL	1519	n/a	n/a	0	0	0
1431.44	n/a	WORD	715720	wordpools/wasnorm_wordpool_576.txt	LTP133	ltpFR2	21	6	CUSTARD	429	n/a	n/a	0	0	0
1434.064	n/a	WORD	717032	wordpools/wasnorm_wordpool_576.txt	LTP133	ltpFR2	21	6	SUPPER	1411	n/a	n/a	0	0	0
1436.508	n/a	WORD	718254	wordpools/wasnorm_wordpool_576.txt	LTP133	ltpFR2	21	6	SCARECROW	1245	n/a	n/a	0	0	0
1439.162	n/a	WORD	719581	wordpools/wasnorm_wordpool_576.txt	LTP133	ltpFR2	21	6	DANDRUFF	439	n/a	n/a	0	0	0
1441.79	n/a	WORD	720895	wordpools/wasnorm_wordpool_576.txt	LTP133	ltpFR2	21	6	JEANS	752	n/a	n/a	0	0	0
1444.338	n/a	WORD	722169	wordpools/wasnorm_wordpool_576.txt	LTP133	ltpFR2	21	6	DOUGHNUT	490	n/a	n/a	0	0	0
1447.064	n/a	WORD	723532	wordpools/wasnorm_wordpool_576.txt	LTP133	ltpFR2	21	6	WITNESS	1618	n/a	n/a	0	0	0
1449.808	n/a	WORD	724904	wordpools/wasnorm_wordpool_576.txt	LTP133	ltpFR2	21	6	CREATURE	403	n/a	n/a	0	0	0
1452.62	n/a	WORD	726310	wordpools/wasnorm_wordpool_576.txt	LTP133	ltpFR2	21	6	SUBWAY	1400	n/a	n/a	0	0	0
1455.208	n/a	WORD	727604	wordpools/wasnorm_wordpool_576.txt	LTP133	ltpFR2	21	6	CRICKET	408	n/a	n/a	0	0	0
1457.822	n/a	WORD	728911	wordpools/wasnorm_wordpool_576.txt	LTP133	ltpFR2	21	6	SPIDER	1351	n/a	n/a	0	0	0
1460.366	n/a	WORD	730183	wordpools/wasnorm_wordpool_576.txt	LTP133	ltpFR2	21	6	GOBLIN	645	n/a	n/a	0	0	0
1463.076	n/a	WORD	731538	wordpools/wasnorm_wordpool_576.txt	LTP133	ltpFR2	21	6	FRUIT	610	n/a	n/a	0	0	0
1465.652	n/a	WORD	732826	wordpools/wasnorm_wordpool_576.txt	LTP133	ltpFR2	21	6	LAKE	796	n/a	n/a	0	0	0
1468.228	n/a	WORD	734114	wordpools/wasnorm_wordpool_576.txt	LTP133	ltpFR2	21	6	LAGOON	795	n/a	n/a	0	0	0
1470.888	n/a	WORD	735444	wordpools/wasnorm_wordpool_576.txt	LTP133	ltpFR2	21	6	SLIDE	1326	n/a	n/a	0	0	0
1473.5	n/a	WORD	736750	wordpools/wasnorm_wordpool_576.txt	LTP133	ltpFR2	21	6	ORANGE	980	n/a	n/a	0	0	0
1475.974	n/a	WORD	737987	wordpools/wasnorm_wordpool_576.txt	LTP133	ltpFR2	21	6	ZIPPER	1636	n/a	n/a	0	0	0
1478.652	n/a	WORD	739326	wordpools/wasnorm_wordpool_576.txt	LTP133	ltpFR2	21	6	STREAM	1392	n/a	n/a	0	0	0
1481.296	n/a	WORD	740648	wordpools/wasnorm_wordpool_576.txt	LTP133	ltpFR2	21	6	PECAN	1036	n/a	n/a	0	0	0
1484.106	n/a	WORD	742053	wordpools/wasnorm_wordpool_576.txt	LTP133	ltpFR2	21	6	VELVET	1555	n/a	n/a	0	0	0
1486.662	n/a	WORD	743331	wordpools/wasnorm_wordpool_576.txt	LTP133	ltpFR2	21	6	AWARD	63	n/a	n/a	0	0	0
1488.274	n/a	START	744137	n/a	LTP133	ltpFR2	21	n/a	n/a	n/a	10	n/a	n/a	n/a	n/a
1489.258	n/a	DISTRACTOR	744629	n/a	LTP133	ltpFR2	21	6	n/a	n/a	n/a	n/a	0	0	0
1489.276	n/a	PROB	744638	n/a	LTP133	ltpFR2	21	n/a	n/a	n/a	10	16	8	6	2
1491.364	n/a	PROB	745682	n/a	LTP133	ltpFR2	21	n/a	n/a	n/a	10	11	5	1	5
1492.734	n/a	PROB	746367	n/a	LTP133	ltpFR2	21	n/a	n/a	n/a	10	21	5	8	8
1495.01	n/a	PROB	747505	n/a	LTP133	ltpFR2	21	n/a	n/a	n/a	10	21	5	8	8
1496.316	n/a	PROB	748158	n/a	LTP133	ltpFR2	21	n/a	n/a	n/a	10	12	4	5	3
1497.504	n/a	PROB	748752	n/a	LTP133	ltpFR2	21	n/a	n/a	n/a	10	13	3	9	1
1498.846	n/a	PROB	749423	n/a	LTP133	ltpFR2	21	n/a	n/a	n/a	10	16	4	8	4
1500.364	n/a	PROB	750182	n/a	LTP133	ltpFR2	21	n/a	n/a	n/a	10	16	8	5	3
1501.568	n/a	PROB	750784	n/a	LTP133	ltpFR2	21	n/a	n/a	n/a	10	21	4	8	9
1502.726	n/a	PROB	751363	n/a	LTP133	ltpFR2	21	n/a	n/a	n/a	10	11	1	6	4
1504.012	n/a	PROB	752006	n/a	LTP133	ltpFR2	21	n/a	n/a	n/a	10	13	7	5	1
1505.15	n/a	PROB	752575	n/a	LTP133	ltpFR2	21	n/a	n/a	n/a	10	22	9	4	9
1507.056	n/a	PROB	753528	n/a	LTP133	ltpFR2	21	n/a	n/a	n/a	10	15	6	3	6
1508.248	n/a	PROB	754124	n/a	LTP133	ltpFR2	21	n/a	n/a	n/a	10	16	8	4	4
1509.666	n/a	PROB	754833	n/a	LTP133	ltpFR2	21	n/a	n/a	n/a	10	16	7	1	8
1510.812	n/a	STOP	755406	n/a	LTP133	ltpFR2	21	n/a	n/a	n/a	10	n/a	n/a	n/a	n/a
1514.222	n/a	REC_START	757111	n/a	LTP133	ltpFR2	21	6	n/a	n/a	n/a	n/a	0	0	0
1664.228	n/a	WORD	832114	wordpools/wasnorm_wordpool_576.txt	LTP133	ltpFR2	21	7	ZEBRA	1635	n/a	n/a	0	0	0
1666.754	n/a	WORD	833377	wordpools/wasnorm_wordpool_576.txt	LTP133	ltpFR2	21	7	DIME	466	n/a	n/a	0	0	0
1669.264	n/a	WORD	834632	wordpools/wasnorm_wordpool_576.txt	LTP133	ltpFR2	21	7	RECEIPT	1173	n/a	n/a	0	0	0
1671.786	n/a	WORD	835893	wordpools/wasnorm_wordpool_576.txt	LTP133	ltpFR2	21	7	HEADBAND	696	n/a	n/a	0	0	0
1674.43	n/a	WORD	837215	wordpools/wasnorm_wordpool_576.txt	LTP133	ltpFR2	21	7	GUARD	667	n/a	n/a	0	0	0
1677.144	n/a	WORD	838572	wordpools/wasnorm_wordpool_576.txt	LTP133	ltpFR2	21	7	BUBBLE	183	n/a	n/a	0	0	0
1679.87	n/a	WORD	839935	wordpools/wasnorm_wordpool_576.txt	LTP133	ltpFR2	21	7	ORCHID	982	n/a	n/a	0	0	0
1682.332	n/a	WORD	841166	wordpools/wasnorm_wordpool_576.txt	LTP133	ltpFR2	21	7	SPOUSE	1358	n/a	n/a	0	0	0
1685.056	n/a	WORD	842528	wordpools/wasnorm_wordpool_576.txt	LTP133	ltpFR2	21	7	LEOPARD	812	n/a	n/a	0	0	0
1687.666	n/a	WORD	843833	wordpools/wasnorm_wordpool_576.txt	LTP133	ltpFR2	21	7	EXPERT	543	n/a	n/a	0	0	0
1690.328	n/a	WORD	845164	wordpools/wasnorm_wordpool_576.txt	LTP133	ltpFR2	21	7	COURSE	390	n/a	n/a	0	0	0
1692.988	n/a	WORD	846494	wordpools/wasnorm_wordpool_576.txt	LTP133	ltpFR2	21	7	GREASE	660	n/a	n/a	0	0	0
1695.566	n/a	WORD	847783	wordpools/wasnorm_wordpool_576.txt	LTP133	ltpFR2	21	7	WASHER	1592	n/a	n/a	0	0	0
1698.254	n/a	WORD	849127	wordpools/wasnorm_wordpool_576.txt	LTP133	ltpFR2	21	7	STALLION	1369	n/a	n/a	0	0	0
1700.746	n/a	WORD	850373	wordpools/wasnorm_wordpool_576.txt	LTP133	ltpFR2	21	7	LAPEL	800	n/a	n/a	0	0	0
1703.306	n/a	WORD	851653	wordpools/wasnorm_wordpool_576.txt	LTP133	ltpFR2	21	7	VAGRANT	1544	n/a	n/a	0	0	0
1705.736	n/a	WORD	852868	wordpools/wasnorm_wordpool_576.txt	LTP133	ltpFR2	21	7	JURY	766	n/a	n/a	0	0	0
1708.342	n/a	WORD	854171	wordpools/wasnorm_wordpool_576.txt	LTP133	ltpFR2	21	7	CROWN	415	n/a	n/a	0	0	0
1710.936	n/a	WORD	855468	wordpools/wasnorm_wordpool_576.txt	LTP133	ltpFR2	21	7	PRINCESS	1125	n/a	n/a	0	0	0
1713.446	n/a	WORD	856723	wordpools/wasnorm_wordpool_576.txt	LTP133	ltpFR2	21	7	CITRUS	313	n/a	n/a	0	0	0
1715.926	n/a	WORD	857963	wordpools/wasnorm_wordpool_576.txt	LTP133	ltpFR2	21	7	RADISH	1158	n/a	n/a	0	0	0
1718.72	n/a	WORD	859360	wordpools/wasnorm_wordpool_576.txt	LTP133	ltpFR2	21	7	TWISTER	1530	n/a	n/a	0	0	0
1721.514	n/a	WORD	860757	wordpools/wasnorm_wordpool_576.txt	LTP133	ltpFR2	21	7	SHELF	1280	n/a	n/a	0	0	0
1724.04	n/a	WORD	862020	wordpools/wasnorm_wordpool_576.txt	LTP133	ltpFR2	21	7	CHEST	295	n/a	n/a	0	0	0
1725.646	n/a	START	862823	n/a	LTP133	ltpFR2	21	n/a	n/a	n/a	11	n/a	n/a	n/a	n/a
1726.658	n/a	DISTRACTOR	863329	n/a	LTP133	ltpFR2	21	7	n/a	n/a	n/a	n/a	0	0	0
1726.666	n/a	PROB	863333	n/a	LTP133	ltpFR2	21	n/a	n/a	n/a	11	21	8	6	7
1728.972	n/a	PROB	864486	n/a	LTP133	ltpFR2	21	n/a	n/a	n/a	11	16	5	8	3
1730.544	n/a	PROB	865272	n/a	LTP133	ltpFR2	21	n/a	n/a	n/a	11	11	7	1	3
1732.05	n/a	PROB	866025	n/a	LTP133	ltpFR2	21	n/a	n/a	n/a	11	13	3	5	5
1733.806	n/a	PROB	866903	n/a	LTP133	ltpFR2	21	n/a	n/a	n/a	11	6	3	2	1
1735.028	n/a	PROB	867514	n/a	LTP133	ltpFR2	21	n/a	n/a	n/a	11	19	5	8	6
1736.518	n/a	PROB	868259	n/a	LTP133	ltpFR2	21	n/a	n/a	n/a	11	24	8	9	7
1738.06	n/a	PROB	869030	n/a	LTP133	ltpFR2	21	n/a	n/a	n/a	11	9	6	1	2
1739.194	n/a	PROB	869597	n/a	LTP133	ltpFR2	21	n/a	n/a	n/a	11	18	5	9	4
1740.482	n/a	PROB	870241	n/a	LTP133	ltpFR2	21	n/a	n/a	n/a	11	8	4	2	2
1741.954	n/a	PROB	870977	n/a	LTP133	ltpFR2	21	n/a	n/a	n/a	11	25	9	8	8
1743.494	n/a	PROB	871747	n/a	LTP133	ltpFR2	21	n/a	n/a	n/a	11	10	4	2	4
1744.798	n/a	PROB	872399	n/a	LTP133	ltpFR2	21	n/a	n/a	n/a	11	19	9	6	4
1746.276	n/a	PROB	873138	n/a	LTP133	ltpFR2	21	n/a	n/a	n/a	11	6	1	1	4
1747.376	n/a	PROB	873688	n/a	LTP133	ltpFR2	21	n/a	n/a	n/a	11	23	8	7	8
1748.914	n/a	STOP	874457	n/a	LTP133	ltpFR2	21	n/a	n/a	n/a	11	n/a	n/a	n/a	n/a
1751.492	n/a	REC_START	875746	n/a	LTP133	ltpFR2	21	7	n/a	n/a	n/a	n/a	0	0	0
1753.308	n/a	REC_WORD	876654	wordpools/wasnorm_wordpool_576.txt	LTP133	ltpFR2	21	7	CHEST	295	n/a	n/a	0	0	0
1760.242	n/a	REC_WORD	880121	wordpools/wasnorm_wordpool_576.txt	LTP133	ltpFR2	21	7	COURSE	390	n/a	n/a	0	0	0
1761.572	n/a	REC_WORD	880786	wordpools/wasnorm_wordpool_576.txt	LTP133	ltpFR2	21	7	EXPERT	543	n/a	n/a	0	0	0
1762.72	n/a	REC_WORD	881360	wordpools/wasnorm_wordpool_576.txt	LTP133	ltpFR2	21	7	GREASE	660	n/a	n/a	0	0	0
1771.214	n/a	REC_WORD	885607	wordpools/wasnorm_wordpool_576.txt	LTP133	ltpFR2	21	7	SPOUSE	1358	n/a	n/a	0	0	0
1772.69	n/a	REC_WORD	886345	wordpools/wasnorm_wordpool_576.txt	LTP133	ltpFR2	21	7	LEOPARD	812	n/a	n/a	0	0	0
1773.65	n/a	REC_WORD	886825	wordpools/wasnorm_wordpool_576.txt	LTP133	ltpFR2	21	7	ORCHID	982	n/a	n/a	0	0	0
1785.412	n/a	REC_WORD	892706	wordpools/wasnorm_wordpool_576.txt	LTP133	ltpFR2	21	7	PRINCESS	1125	n/a	n/a	0	0	0
1786.858	n/a	REC_WORD	893429	wordpools/wasnorm_wordpool_576.txt	LTP133	ltpFR2	21	7	RADISH	1158	n/a	n/a	0	0	0
1787.534	n/a	REC_WORD	893767	wordpools/wasnorm_wordpool_576.txt	LTP133	ltpFR2	21	7	CITRUS	313	n/a	n/a	0	0	0
1905.884	n/a	DISTRACTOR	952942	n/a	LTP133	ltpFR2	21	8	n/a	n/a	n/a	n/a	0	0	0
1905.884	n/a	START	952942	n/a	LTP133	ltpFR2	21	n/a	n/a	n/a	12	n/a	n/a	n/a	n/a
1905.934	n/a	PROB	952967	n/a	LTP133	ltpFR2	21	n/a	n/a	n/a	12	17	7	1	9
1908.324	n/a	PROB	954162	n/a	LTP133	ltpFR2	21	n/a	n/a	n/a	12	10	3	3	4
1909.6	n/a	PROB	954800	n/a	LTP133	ltpFR2	21	n/a	n/a	n/a	12	4	2	1	1
1910.766	n/a	PROB	955383	n/a	LTP133	ltpFR2	21	n/a	n/a	n/a	12	12	8	2	2
1911.99	n/a	PROB	955995	n/a	LTP133	ltpFR2	21	n/a	n/a	n/a	12	18	6	4	8
1913.28	n/a	PROB	956640	n/a	LTP133	ltpFR2	21	n/a	n/a	n/a	12	12	6	3	3
1914.548	n/a	PROB	957274	n/a	LTP133	ltpFR2	21	n/a	n/a	n/a	12	16	5	9	2
1916.36	n/a	PROB	958180	n/a	LTP133	ltpFR2	21	n/a	n/a	n/a	12	22	8	9	5
1917.876	n/a	PROB	958938	n/a	LTP133	ltpFR2	21	n/a	n/a	n/a	12	10	1	2	7
1919.416	n/a	PROB	959708	n/a	LTP133	ltpFR2	21	n/a	n/a	n/a	12	10	2	6	2
1921.976	n/a	PROB	960988	n/a	LTP133	ltpFR2	21	n/a	n/a	n/a	12	16	6	2	8
1923.416	n/a	PROB	961708	n/a	LTP133	ltpFR2	21	n/a	n/a	n/a	12	14	5	4	5
1924.752	n/a	PROB	962376	n/a	LTP133	ltpFR2	21	n/a	n/a	n/a	12	10	1	2	7
1926.108	n/a	PROB	963054	n/a	LTP133	ltpFR2	21	n/a	n/a	n/a	12	5	1	1	3
1927.228	n/a	PROB	963614	n/a	LTP133	ltpFR2	21	n/a	n/a	n/a	12	15	1	7	7
1928.762	n/a	STOP	964381	n/a	LTP133	ltpFR2	21	n/a	n/a	n/a	12	n/a	n/a	n/a	n/a
1930.796	n/a	WORD	965398	wordpools/wasnorm_wordpool_576.txt	LTP133	ltpFR2	21	8	ARMY	39	n/a	n/a	0	0	0
1933.224	n/a	WORD	966612	wordpools/wasnorm_wordpool_576.txt	LTP133	ltpFR2	21	8	BARLEY	88	n/a	n/a	0	0	0
1935.812	n/a	WORD	967906	wordpools/wasnorm_wordpool_576.txt	LTP133	ltpFR2	21	8	CAFE	216	n/a	n/a	0	0	0
1938.606	n/a	WORD	969303	wordpools/wasnorm_wordpool_576.txt	LTP133	ltpFR2	21	8	QUAIL	1147	n/a	n/a	0	0	0
1941.338	n/a	WORD	970669	wordpools/wasnorm_wordpool_576.txt	LTP133	ltpFR2	21	8	TOURIST	1488	n/a	n/a	0	0	0
1943.896	n/a	WORD	971948	wordpools/wasnorm_wordpool_576.txt	LTP133	ltpFR2	21	8	CIGAR	308	n/a	n/a	0	0	0
1946.324	n/a	WORD	973162	wordpools/wasnorm_wordpool_576.txt	LTP133	ltpFR2	21	8	VIRUS	1572	n/a	n/a	0	0	0
1948.798	n/a	WORD	974399	wordpools/wasnorm_wordpool_576.txt	LTP133	ltpFR2	21	8	RABBIT	1152	n/a	n/a	0	0	0
1951.226	n/a	WORD	975613	wordpools/wasnorm_wordpool_576.txt	LTP133	ltpFR2	21	8	TOMBSTONE	1478	n/a	n/a	0	0	0
1953.948	n/a	WORD	976974	wordpools/wasnorm_wordpool_576.txt	LTP133	ltpFR2	21	8	POISON	1096	n/a	n/a	0	0	0
1956.674	n/a	WORD	978337	wordpools/wasnorm_wordpool_576.txt	LTP133	ltpFR2	21	8	HOSTESS	723	n/a	n/a	0	0	0
1959.39	n/a	WORD	979695	wordpools/wasnorm_wordpool_576.txt	LTP133	ltpFR2	21	8	VALLEY	1545	n/a	n/a	0	0	0
1962.016	n/a	WORD	981008	wordpools/wasnorm_wordpool_576.txt	LTP133	ltpFR2	21	8	OYSTER	995	n/a	n/a	0	0	0
1964.544	n/a	WORD	982272	wordpools/wasnorm_wordpool_576.txt	LTP133	ltpFR2	21	8	SCALLOP	1242	n/a	n/a	0	0	0
1967.236	n/a	WORD	983618	wordpools/wasnorm_wordpool_576.txt	LTP133	ltpFR2	21	8	RUST	1219	n/a	n/a	0	0	0
1970.048	n/a	WORD	985024	wordpools/wasnorm_wordpool_576.txt	LTP133	ltpFR2	21	8	WIDOW	1608	n/a	n/a	0	0	0
1972.858	n/a	WORD	986429	wordpools/wasnorm_wordpool_576.txt	LTP133	ltpFR2	21	8	FARMER	553	n/a	n/a	0	0	0
1975.28	n/a	WORD	987640	wordpools/wasnorm_wordpool_576.txt	LTP133	ltpFR2	21	8	YACHT	1629	n/a	n/a	0	0	0
1977.86	n/a	WORD	988930	wordpools/wasnorm_wordpool_576.txt	LTP133	ltpFR2	21	8	DAUGHTER	442	n/a	n/a	0	0	0
1980.554	n/a	WORD	990277	wordpools/wasnorm_wordpool_576.txt	LTP133	ltpFR2	21	8	CANYON	235	n/a	n/a	0	0	0
1983.31	n/a	WORD	991655	wordpools/wasnorm_wordpool_576.txt	LTP133	ltpFR2	21	8	HOOD	714	n/a	n/a	0	0	0
1986.036	n/a	WORD	993018	wordpools/wasnorm_wordpool_576.txt	LTP133	ltpFR2	21	8	PARENT	1013	n/a	n/a	0	0	0
1988.648	n/a	WORD	994324	wordpools/wasnorm_wordpool_576.txt	LTP133	ltpFR2	21	8	CORAL	378	n/a	n/a	0	0	0
1991.476	n/a	WORD	995738	wordpools/wasnorm_wordpool_576.txt	LTP133	ltpFR2	21	8	GRAVE	658	n/a	n/a	0	0	0
1993.086	n/a	START	996543	n/a	LTP133	ltpFR2	21	n/a	n/a	n/a	13	n/a	n/a	n/a	n/a
1993.958	n/a	DISTRACTOR	996979	n/a	LTP133	ltpFR2	21	8	n/a	n/a	n/a	n/a	0	0	0
1993.972	n/a	PROB	996986	n/a	LTP133	ltpFR2	21	n/a	n/a	n/a	13	25	8	8	9
1995.642	n/a	PROB	997821	n/a	LTP133	ltpFR2	21	n/a	n/a	n/a	13	13	3	5	5
1996.844	n/a	PROB	998422	n/a	LTP133	ltpFR2	21	n/a	n/a	n/a	13	15	4	2	9
1998.016	n/a	PROB	999008	n/a	LTP133	ltpFR2	21	n/a	n/a	n/a	13	8	3	5	3
1999.224	n/a	PROB	999612	n/a	LTP133	ltpFR2	21	n/a	n/a	n/a	13	17	5	6	6
2000.844	n/a	PROB	1000422	n/a	LTP133	ltpFR2	21	n/a	n/a	n/a	13	12	9	1	2
2002.002	n/a	PROB	1001001	n/a	LTP133	ltpFR2	21	n/a	n/a	n/a	13	5	2	1	2
2003.236	n/a	PROB	1001618	n/a	LTP133	ltpFR2	21	n/a	n/a	n/a	13	13	7	2	4
2005.008	n/a	PROB	1002504	n/a	LTP133	ltpFR2	21	n/a	n/a	n/a	13	21	3	9	9
2006.654	n/a	PROB	1003327	n/a	LTP133	ltpFR2	21	n/a	n/a	n/a	13	14	7	5	2
2007.954	n/a	PROB	1003977	n/a	LTP133	ltpFR2	21	n/a	n/a	n/a	13	10	4	5	1
2009.562	n/a	PROB	1004781	n/a	LTP133	ltpFR2	21	n/a	n/a	n/a	13	15	9	3	3
2011.636	n/a	PROB	1005818	n/a	LTP133	ltpFR2	21	n/a	n/a	n/a	13	14	8	1	5
2013.414	n/a	PROB	1006707	n/a	LTP133	ltpFR2	21	n/a	n/a	n/a	13	15	9	4	2
2014.796	n/a	PROB	1007398	n/a	LTP133	ltpFR2	21	n/a	n/a	n/a	13	16	6	5	5
2016.032	n/a	STOP	1008016	n/a	LTP133	ltpFR2	21	n/a	n/a	n/a	13	n/a	n/a	n/a	n/a
2018.934	n/a	REC_START	1009467	n/a	LTP133	ltpFR2	21	8	n/a	n/a	n/a	n/a	0	0	0
2020.376	n/a	REC_WORD	1010188	wordpools/wasnorm_wordpool_576.txt	LTP133	ltpFR2	21	8	PARENT	1013	n/a	n/a	0	0	0
2021.542	n/a	REC_WORD	1010771	wordpools/wasnorm_wordpool_576.txt	LTP133	ltpFR2	21	8	CORAL	378	n/a	n/a	0	0	0
2022.834	n/a	REC_WORD	1011417	wordpools/wasnorm_wordpool_576.txt	LTP133	ltpFR2	21	8	GRAVE	658	n/a	n/a	0	0	0
2024.078	n/a	REC_WORD	1012039	wordpools/wasnorm_wordpool_576.txt	LTP133	ltpFR2	21	8	DAUGHTER	442	n/a	n/a	0	0	0
2024.972	n/a	REC_WORD	1012486	wordpools/wasnorm_wordpool_576.txt	LTP133	ltpFR2	21	8	SCALLOP	1242	n/a	n/a	0	0	0
2026.504	n/a	REC_WORD	1013252	wordpools/wasnorm_wordpool_576.txt	LTP133	ltpFR2	21	8	HOOD	714	n/a	n/a	0	0	0
2027.61	n/a	REC_WORD	1013805	wordpools/wasnorm_wordpool_576.txt	LTP133	ltpFR2	21	8	TOMBSTONE	1478	n/a	n/a	0	0	0
2028.968	n/a	REC_WORD	1014484	wordpools/wasnorm_wordpool_576.txt	LTP133	ltpFR2	21	8	RABBIT	1152	n/a	n/a	0	0	0
2030.226	n/a	REC_WORD	1015113	wordpools/wasnorm_wordpool_576.txt	LTP133	ltpFR2	21	8	VIRUS	1572	n/a	n/a	0	0	0
2031.732	n/a	REC_WORD	1015866	wordpools/wasnorm_wordpool_576.txt	LTP133	ltpFR2	21	8	POISON	1096	n/a	n/a	0	0	0
2032.826	n/a	REC_WORD	1016413	wordpools/wasnorm_wordpool_576.txt	LTP133	ltpFR2	21	8	HOSTESS	723	n/a	n/a	0	0	0
2043.898	n/a	REC_WORD	1021949	wordpools/wasnorm_wordpool_576.txt	LTP133	ltpFR2	21	8	WINDOW	1611	n/a	n/a	0	0	0
2047.004	n/a	REC_WORD	1023502	wordpools/wasnorm_wordpool_576.txt	LTP133	ltpFR2	21	8	CANYON	235	n/a	n/a	0	0	0
2095.776	n/a	REST_REWET	1047888	n/a	LTP133	ltpFR2	21	8	n/a	n/a	n/a	n/a	0	0	0
2457.544	n/a	WORD	1228772	wordpools/wasnorm_wordpool_576.txt	LTP133	ltpFR2	21	9	SUNRISE	1407	n/a	n/a	0	0	0
2460.154	n/a	WORD	1230077	wordpools/wasnorm_wordpool_576.txt	LTP133	ltpFR2	21	9	CEILING	265	n/a	n/a	0	0	0
2462.948	n/a	WORD	1231474	wordpools/wasnorm_wordpool_576.txt	LTP133	ltpFR2	21	9	GROUND	666	n/a	n/a	0	0	0
2465.374	n/a	WORD	1232687	wordpools/wasnorm_wordpool_576.txt	LTP133	ltpFR2	21	9	STAPLE	1371	n/a	n/a	0	0	0
2468.196	n/a	WORD	1234098	wordpools/wasnorm_wordpool_576.txt	LTP133	ltpFR2	21	9	COCKTAIL	338	n/a	n/a	0	0	0
2471.012	n/a	WORD	1235506	wordpools/wasnorm_wordpool_576.txt	LTP133	ltpFR2	21	9	FOREST	593	n/a	n/a	0	0	0
2473.556	n/a	WORD	1236778	wordpools/wasnorm_wordpool_576.txt	LTP133	ltpFR2	21	9	TURTLE	1522	n/a	n/a	0	0	0
2476.148	n/a	WORD	1238074	wordpools/wasnorm_wordpool_576.txt	LTP133	ltpFR2	21	9	APPLE	33	n/a	n/a	0	0	0
2478.908	n/a	WORD	1239454	wordpools/wasnorm_wordpool_576.txt	LTP133	ltpFR2	21	9	NOTEBOOK	959	n/a	n/a	0	0	0
2481.336	n/a	WORD	1240668	wordpools/wasnorm_wordpool_576.txt	LTP133	ltpFR2	21	9	APRON	35	n/a	n/a	0	0	0
2483.96	n/a	WORD	1241980	wordpools/wasnorm_wordpool_576.txt	LTP133	ltpFR2	21	9	BUREAU	199	n/a	n/a	0	0	0
2486.606	n/a	WORD	1243303	wordpools/wasnorm_wordpool_576.txt	LTP133	ltpFR2	21	9	PIGMENT	1066	n/a	n/a	0	0	0
2489.046	n/a	WORD	1244523	wordpools/wasnorm_wordpool_576.txt	LTP133	ltpFR2	21	9	CAPTIVE	240	n/a	n/a	0	0	0
2491.742	n/a	WORD	1245871	wordpools/wasnorm_wordpool_576.txt	LTP133	ltpFR2	21	9	JUGGLER	763	n/a	n/a	0	0	0
2494.3	n/a	WORD	1247150	wordpools/wasnorm_wordpool_576.txt	LTP133	ltpFR2	21	9	FLASK	576	n/a	n/a	0	0	0
2496.894	n/a	WORD	1248447	wordpools/wasnorm_wordpool_576.txt	LTP133	ltpFR2	21	9	PEBBLE	1035	n/a	n/a	0	0	0
2499.668	n/a	WORD	1249834	wordpools/wasnorm_wordpool_576.txt	LTP133	ltpFR2	21	9	STONE	1385	n/a	n/a	0	0	0
2502.482	n/a	WORD	1251241	wordpools/wasnorm_wordpool_576.txt	LTP133	ltpFR2	21	9	PICNIC	1060	n/a	n/a	0	0	0
2505.092	n/a	WORD	1252546	wordpools/wasnorm_wordpool_576.txt	LTP133	ltpFR2	21	9	MILK	895	n/a	n/a	0	0	0
2507.748	n/a	WORD	1253874	wordpools/wasnorm_wordpool_576.txt	LTP133	ltpFR2	21	9	FRAME	600	n/a	n/a	0	0	0
2510.274	n/a	WORD	1255137	wordpools/wasnorm_wordpool_576.txt	LTP133	ltpFR2	21	9	KNAPSACK	783	n/a	n/a	0	0	0
2512.956	n/a	WORD	1256478	wordpools/wasnorm_wordpool_576.txt	LTP133	ltpFR2	21	9	GIRL	637	n/a	n/a	0	0	0
2515.562	n/a	WORD	1257781	wordpools/wasnorm_wordpool_576.txt	LTP133	ltpFR2	21	9	SUNSET	1408	n/a	n/a	0	0	0
2518.254	n/a	WORD	1259127	wordpools/wasnorm_wordpool_576.txt	LTP133	ltpFR2	21	9	DONKEY	484	n/a	n/a	0	0	0
2519.866	n/a	START	1259933	n/a	LTP133	ltpFR2	21	n/a	n/a	n/a	14	n/a	n/a	n/a	n/a
2520.868	n/a	DISTRACTOR	1260434	n/a	LTP133	ltpFR2	21	9	n/a	n/a	n/a	n/a	0	0	0
2520.886	n/a	PROB	1260443	n/a	LTP133	ltpFR2	21	n/a	n/a	n/a	14	9	1	7	1
2522.622	n/a	PROB	1261311	n/a	LTP133	ltpFR2	21	n/a	n/a	n/a	14	10	6	3	1
2524.668	n/a	PROB	1262334	n/a	LTP133	ltpFR2	21	n/a	n/a	n/a	14	23	9	6	8
2526.658	n/a	PROB	1263329	n/a	LTP133	ltpFR2	21	n/a	n/a	n/a	14	7	1	2	4
2527.908	n/a	PROB	1263954	n/a	LTP133	ltpFR2	21	n/a	n/a	n/a	14	23	9	7	7
2529.314	n/a	PROB	1264657	n/a	LTP133	ltpFR2	21	n/a	n/a	n/a	14	22	9	5	8
2530.82	n/a	PROB	1265410	n/a	LTP133	ltpFR2	21	n/a	n/a	n/a	14	13	1	5	7
2532.224	n/a	PROB	1266112	n/a	LTP133	ltpFR2	21	n/a	n/a	n/a	14	15	2	5	8
2533.48	n/a	PROB	1266740	n/a	LTP133	ltpFR2	21	n/a	n/a	n/a	14	22	5	9	8
2535.12	n/a	PROB	1267560	n/a	LTP133	ltpFR2	21	n/a	n/a	n/a	14	13	8	2	3
2536.392	n/a	PROB	1268196	n/a	LTP133	ltpFR2	21	n/a	n/a	n/a	14	23	8	9	6
2538.482	n/a	PROB	1269241	n/a	LTP133	ltpFR2	21	n/a	n/a	n/a	14	12	4	7	1
2539.886	n/a	PROB	1269943	n/a	LTP133	ltpFR2	21	n/a	n/a	n/a	14	19	7	9	3
2541.432	n/a	PROB	1270716	n/a	LTP133	ltpFR2	21	n/a	n/a	n/a	14	15	1	8	6
2542.9	n/a	STOP	1271450	n/a	LTP133	ltpFR2	21	n/a	n/a	n/a	14	n/a	n/a	n/a	n/a
2545.794	n/a	REC_START	1272897	n/a	LTP133	ltpFR2	21	9	n/a	n/a	n/a	n/a	0	0	0
2547.498	n/a	REC_WORD	1273749	wordpools/wasnorm_wordpool_576.txt	LTP133	ltpFR2	21	9	DONKEY	484	n/a	n/a	0	0	0
2548.602	n/a	REC_WORD	1274301	wordpools/wasnorm_wordpool_576.txt	LTP133	ltpFR2	21	9	SUNSET	1408	n/a	n/a	0	0	0
2550.24	n/a	REC_WORD	1275120	wordpools/wasnorm_wordpool_576.txt	LTP133	ltpFR2	21	9	GIRL	637	n/a	n/a	0	0	0
2551.612	n/a	REC_WORD	1275806	wordpools/wasnorm_wordpool_576.txt	LTP133	ltpFR2	21	9	MILK	895	n/a	n/a	0	0	0
2552.702	n/a	REC_WORD	1276351	wordpools/wasnorm_wordpool_576.txt	LTP133	ltpFR2	21	9	FRAME	600	n/a	n/a	0	0	0
2556.176	n/a	REC_WORD	1278088	wordpools/wasnorm_wordpool_576.txt	LTP133	ltpFR2	21	9	KNAPSACK	783	n/a	n/a	0	0	0
2559.508	n/a	REC_WORD	1279754	wordpools/wasnorm_wordpool_576.txt	LTP133	ltpFR2	21	9	COCKTAIL	338	n/a	n/a	0	0	0
2560.36	n/a	REC_WORD	1280180	wordpools/wasnorm_wordpool_576.txt	LTP133	ltpFR2	21	9	STAPLE	1371	n/a	n/a	0	0	0
2561.51	n/a	REC_WORD	1280755	wordpools/wasnorm_wordpool_576.txt	LTP133	ltpFR2	21	9	FOREST	593	n/a	n/a	0	0	0
2562.912	n/a	REC_WORD	1281456	wordpools/wasnorm_wordpool_576.txt	LTP133	ltpFR2	21	9	FLASK	576	n/a	n/a	0	0	0
2563.926	n/a	REC_WORD	1281963	wordpools/wasnorm_wordpool_576.txt	LTP133	ltpFR2	21	9	JUGGLER	763	n/a	n/a	0	0	0
2565.058	n/a	REC_WORD	1282529	wordpools/wasnorm_wordpool_576.txt	LTP133	ltpFR2	21	9	CAPTIVE	240	n/a	n/a	0	0	0
2569.516	n/a	REC_WORD	1284758	wordpools/wasnorm_wordpool_576.txt	LTP133	ltpFR2	21	9	NOTEBOOK	959	n/a	n/a	0	0	0
2571.496	n/a	REC_WORD	1285748	wordpools/wasnorm_wordpool_576.txt	LTP133	ltpFR2	21	9	TURTLE	1522	n/a	n/a	0	0	0
2574.852	n/a	REC_WORD	1287426	wordpools/wasnorm_wordpool_576.txt	LTP133	ltpFR2	21	9	APRON	35	n/a	n/a	0	0	0
2575.82	n/a	REC_WORD	1287910	wordpools/wasnorm_wordpool_576.txt	LTP133	ltpFR2	21	9	PIGMENT	1066	n/a	n/a	0	0	0
2577.056	n/a	REC_WORD	1288528	wordpools/wasnorm_wordpool_576.txt	LTP133	ltpFR2	21	9	BUREAU	199	n/a	n/a	0	0	0
2598.146	n/a	REC_WORD	1299073	wordpools/wasnorm_wordpool_576.txt	LTP133	ltpFR2	21	9	SUNRISE	1407	n/a	n/a	0	0	0
2599.336	n/a	REC_WORD	1299668	wordpools/wasnorm_wordpool_576.txt	LTP133	ltpFR2	21	9	CEILING	265	n/a	n/a	0	0	0
2600.406	n/a	REC_WORD	1300203	wordpools/wasnorm_wordpool_576.txt	LTP133	ltpFR2	21	9	GROUND	666	n/a	n/a	0	0	0
2614.33	n/a	REC_WORD	1307165	wordpools/wasnorm_wordpool_576.txt	LTP133	ltpFR2	21	9	PEBBLE	1035	n/a	n/a	0	0	0
2614.99	n/a	REC_WORD	1307495	wordpools/wasnorm_wordpool_576.txt	LTP133	ltpFR2	21	9	STONE	1385	n/a	n/a	0	0	0
2615.932	n/a	REC_WORD	1307966	wordpools/wasnorm_wordpool_576.txt	LTP133	ltpFR2	21	9	PICNIC	1060	n/a	n/a	0	0	0
2636.896	n/a	WORD	1318448	wordpools/wasnorm_wordpool_576.txt	LTP133	ltpFR2	21	10	WOMAN	1620	n/a	n/a	0	0	0
2639.636	n/a	WORD	1319818	wordpools/wasnorm_wordpool_576.txt	LTP133	ltpFR2	21	10	MAMMAL	861	n/a	n/a	0	0	0
2642.132	n/a	WORD	1321066	wordpools/wasnorm_wordpool_576.txt	LTP133	ltpFR2	21	10	SHERIFF	1284	n/a	n/a	0	0	0
2644.76	n/a	WORD	1322380	wordpools/wasnorm_wordpool_576.txt	LTP133	ltpFR2	21	10	NIGHTGOWN	953	n/a	n/a	0	0	0
2647.318	n/a	WORD	1323659	wordpools/wasnorm_wordpool_576.txt	LTP133	ltpFR2	21	10	STUDENT	1395	n/a	n/a	0	0	0
2649.762	n/a	WORD	1324881	wordpools/wasnorm_wordpool_576.txt	LTP133	ltpFR2	21	10	SPOOL	1356	n/a	n/a	0	0	0
2652.518	n/a	WORD	1326259	wordpools/wasnorm_wordpool_576.txt	LTP133	ltpFR2	21	10	BROTHER	179	n/a	n/a	0	0	0
2655.094	n/a	WORD	1327547	wordpools/wasnorm_wordpool_576.txt	LTP133	ltpFR2	21	10	SHARK	1275	n/a	n/a	0	0	0
2657.592	n/a	WORD	1328796	wordpools/wasnorm_wordpool_576.txt	LTP133	ltpFR2	21	10	FILM	565	n/a	n/a	0	0	0
2660.134	n/a	WORD	1330067	wordpools/wasnorm_wordpool_576.txt	LTP133	ltpFR2	21	10	PUDDING	1139	n/a	n/a	0	0	0
2662.662	n/a	WORD	1331331	wordpools/wasnorm_wordpool_576.txt	LTP133	ltpFR2	21	10	JELLO	754	n/a	n/a	0	0	0
2665.17	n/a	WORD	1332585	wordpools/wasnorm_wordpool_576.txt	LTP133	ltpFR2	21	10	SLOPE	1328	n/a	n/a	0	0	0
2667.73	n/a	WORD	1333865	wordpools/wasnorm_wordpool_576.txt	LTP133	ltpFR2	21	10	PASTA	1021	n/a	n/a	0	0	0
2670.306	n/a	WORD	1335153	wordpools/wasnorm_wordpool_576.txt	LTP133	ltpFR2	21	10	TEACHER	1440	n/a	n/a	0	0	0
2672.816	n/a	WORD	1336408	wordpools/wasnorm_wordpool_576.txt	LTP133	ltpFR2	21	10	COCOON	339	n/a	n/a	0	0	0
2675.456	n/a	WORD	1337728	wordpools/wasnorm_wordpool_576.txt	LTP133	ltpFR2	21	10	COUCH	386	n/a	n/a	0	0	0
2678.17	n/a	WORD	1339085	wordpools/wasnorm_wordpool_576.txt	LTP133	ltpFR2	21	10	PADDING	999	n/a	n/a	0	0	0
2680.746	n/a	WORD	1340373	wordpools/wasnorm_wordpool_576.txt	LTP133	ltpFR2	21	10	BUNNY	198	n/a	n/a	0	0	0
2683.408	n/a	WORD	1341704	wordpools/wasnorm_wordpool_576.txt	LTP133	ltpFR2	21	10	YOLK	1633	n/a	n/a	0	0	0
2686.184	n/a	WORD	1343092	wordpools/wasnorm_wordpool_576.txt	LTP133	ltpFR2	21	10	RACKET	1155	n/a	n/a	0	0	0
2688.71	n/a	WORD	1344355	wordpools/wasnorm_wordpool_576.txt	LTP133	ltpFR2	21	10	BALLOON	75	n/a	n/a	0	0	0
2691.506	n/a	WORD	1345753	wordpools/wasnorm_wordpool_576.txt	LTP133	ltpFR2	21	10	MARKET	871	n/a	n/a	0	0	0
2694.03	n/a	WORD	1347015	wordpools/wasnorm_wordpool_576.txt	LTP133	ltpFR2	21	10	PARSLEY	1016	n/a	n/a	0	0	0
2696.826	n/a	WORD	1348413	wordpools/wasnorm_wordpool_576.txt	LTP133	ltpFR2	21	10	QUEEN	1149	n/a	n/a	0	0	0
2698.432	n/a	START	1349216	n/a	LTP133	ltpFR2	21	n/a	n/a	n/a	15	n/a	n/a	n/a	n/a
2699.566	n/a	DISTRACTOR	1349783	n/a	LTP133	ltpFR2	21	10	n/a	n/a	n/a	n/a	0	0	0
2699.582	n/a	PROB	1349791	n/a	LTP133	ltpFR2	21	n/a	n/a	n/a	15	9	5	3	1
2700.97	n/a	PROB	1350485	n/a	LTP133	ltpFR2	21	n/a	n/a	n/a	15	24	6	9	9
2702.51	n/a	PROB	1351255	n/a	LTP133	ltpFR2	21	n/a	n/a	n/a	15	12	1	7	4
2703.852	n/a	PROB	1351926	n/a	LTP133	ltpFR2	21	n/a	n/a	n/a	15	14	1	5	8
2705.388	n/a	PROB	1352694	n/a	LTP133	ltpFR2	21	n/a	n/a	n/a	15	15	9	2	4
2706.608	n/a	PROB	1353304	n/a	LTP133	ltpFR2	21	n/a	n/a	n/a	15	15	4	7	4
2707.862	n/a	PROB	1353931	n/a	LTP133	ltpFR2	21	n/a	n/a	n/a	15	14	9	1	4
2709.502	n/a	PROB	1354751	n/a	LTP133	ltpFR2	21	n/a	n/a	n/a	15	14	5	8	1
2711.074	n/a	PROB	1355537	n/a	LTP133	ltpFR2	21	n/a	n/a	n/a	15	14	5	4	5
2712.67	n/a	PROB	1356335	n/a	LTP133	ltpFR2	21	n/a	n/a	n/a	15	11	8	1	2
2714.17	n/a	PROB	1357085	n/a	LTP133	ltpFR2	21	n/a	n/a	n/a	15	6	3	2	1
2715.48	n/a	PROB	1357740	n/a	LTP133	ltpFR2	21	n/a	n/a	n/a	15	17	6	6	5
2717.468	n/a	PROB	1358734	n/a	LTP133	ltpFR2	21	n/a	n/a	n/a	15	11	4	6	1
2718.904	n/a	PROB	1359452	n/a	LTP133	ltpFR2	21	n/a	n/a	n/a	15	10	3	4	3
2720.344	n/a	PROB	1360172	n/a	LTP133	ltpFR2	21	n/a	n/a	n/a	15	20	9	4	7
2721.75	n/a	STOP	1360875	n/a	LTP133	ltpFR2	21	n/a	n/a	n/a	15	n/a	n/a	n/a	n/a
2724.378	n/a	REC_START	1362189	n/a	LTP133	ltpFR2	21	10	n/a	n/a	n/a	n/a	0	0	0
2725.736	n/a	REC_WORD	1362868	wordpools/wasnorm_wordpool_576.txt	LTP133	ltpFR2	21	10	MARKET	871	n/a	n/a	0	0	0
2726.608	n/a	REC_WORD	1363304	wordpools/wasnorm_wordpool_576.txt	LTP133	ltpFR2	21	10	PARSLEY	1016	n/a	n/a	0	0	0
2727.64	n/a	REC_WORD	1363820	wordpools/wasnorm_wordpool_576.txt	LTP133	ltpFR2	21	10	QUEEN	1149	n/a	n/a	0	0	0
2728.864	n/a	REC_WORD	1364432	wordpools/wasnorm_wordpool_576.txt	LTP133	ltpFR2	21	10	RACKET	1155	n/a	n/a	0	0	0
2730.076	n/a	REC_WORD	1365038	wordpools/wasnorm_wordpool_576.txt	LTP133	ltpFR2	21	10	BALLOON	75	n/a	n/a	0	0	0
2731.078	n/a	REC_WORD	1365539	wordpools/wasnorm_wordpool_576.txt	LTP133	ltpFR2	21	10	YOLK	1633	n/a	n/a	0	0	0
2742.586	n/a	REC_WORD	1371293	wordpools/wasnorm_wordpool_576.txt	LTP133	ltpFR2	21	10	WOMAN	1620	n/a	n/a	0	0	0
2743.564	n/a	REC_WORD	1371782	wordpools/wasnorm_wordpool_576.txt	LTP133	ltpFR2	21	10	MAMMAL	861	n/a	n/a	0	0	0
2762.798	n/a	REC_WORD	1381399	wordpools/wasnorm_wordpool_576.txt	LTP133	ltpFR2	21	10	PASTA	1021	n/a	n/a	0	0	0
2763.902	n/a	REC_WORD	1381951	wordpools/wasnorm_wordpool_576.txt	LTP133	ltpFR2	21	10	TEACHER	1440	n/a	n/a	0	0	0
2765.346	n/a	REC_WORD	1382673	wordpools/wasnorm_wordpool_576.txt	LTP133	ltpFR2	21	10	COCOON	339	n/a	n/a	0	0	0
2880.778	n/a	DISTRACTOR	1440389	n/a	LTP133	ltpFR2	21	11	n/a	n/a	n/a	n/a	0	0	0
2880.778	n/a	START	1440389	n/a	LTP133	ltpFR2	21	n/a	n/a	n/a	16	n/a	n/a	n/a	n/a
2880.828	n/a	PROB	1440414	n/a	LTP133	ltpFR2	21	n/a	n/a	n/a	16	16	5	3	8
2882.162	n/a	PROB	1441081	n/a	LTP133	ltpFR2	21	n/a	n/a	n/a	16	18	9	1	8
2883.356	n/a	PROB	1441678	n/a	LTP133	ltpFR2	21	n/a	n/a	n/a	16	24	9	9	6
2884.924	n/a	PROB	1442462	n/a	LTP133	ltpFR2	21	n/a	n/a	n/a	16	16	9	5	2
2887.148	n/a	PROB	1443574	n/a	LTP133	ltpFR2	21	n/a	n/a	n/a	16	14	4	1	9
2888.542	n/a	PROB	1444271	n/a	LTP133	ltpFR2	21	n/a	n/a	n/a	16	7	1	1	5
2889.658	n/a	PROB	1444829	n/a	LTP133	ltpFR2	21	n/a	n/a	n/a	16	10	7	2	1
2891.1	n/a	PROB	1445550	n/a	LTP133	ltpFR2	21	n/a	n/a	n/a	16	16	8	4	4
2893.158	n/a	PROB	1446579	n/a	LTP133	ltpFR2	21	n/a	n/a	n/a	16	5	1	2	2
2894.308	n/a	PROB	1447154	n/a	LTP133	ltpFR2	21	n/a	n/a	n/a	16	22	6	9	7
2896.818	n/a	PROB	1448409	n/a	LTP133	ltpFR2	21	n/a	n/a	n/a	16	13	4	1	8
2898.256	n/a	PROB	1449128	n/a	LTP133	ltpFR2	21	n/a	n/a	n/a	16	7	5	1	1
2899.7	n/a	PROB	1449850	n/a	LTP133	ltpFR2	21	n/a	n/a	n/a	16	11	2	8	1
2901.122	n/a	PROB	1450561	n/a	LTP133	ltpFR2	21	n/a	n/a	n/a	16	5	2	1	2
2902.608	n/a	PROB	1451304	n/a	LTP133	ltpFR2	21	n/a	n/a	n/a	16	19	8	4	7
2904.736	n/a	STOP	1452368	n/a	LTP133	ltpFR2	21	n/a	n/a	n/a	16	n/a	n/a	n/a	n/a
2905.658	n/a	WORD	1452829	wordpools/wasnorm_wordpool_576.txt	LTP133	ltpFR2	21	11	MARKER	870	n/a	n/a	0	0	0
2908.216	n/a	WORD	1454108	wordpools/wasnorm_wordpool_576.txt	LTP133	ltpFR2	21	11	FRAGRANCE	599	n/a	n/a	0	0	0
2910.938	n/a	WORD	1455469	wordpools/wasnorm_wordpool_576.txt	LTP133	ltpFR2	21	11	COTTAGE	384	n/a	n/a	0	0	0
2913.65	n/a	WORD	1456825	wordpools/wasnorm_wordpool_576.txt	LTP133	ltpFR2	21	11	BLUEPRINT	142	n/a	n/a	0	0	0
2916.18	n/a	WORD	1458090	wordpools/wasnorm_wordpool_576.txt	LTP133	ltpFR2	21	11	TURKEY	1520	n/a	n/a	0	0	0
2918.756	n/a	WORD	1459378	wordpools/wasnorm_wordpool_576.txt	LTP133	ltpFR2	21	11	SIDEWALK	1303	n/a	n/a	0	0	0
2921.418	n/a	WORD	1460709	wordpools/wasnorm_wordpool_576.txt	LTP133	ltpFR2	21	11	HIGHWAY	707	n/a	n/a	0	0	0
2923.876	n/a	WORD	1461938	wordpools/wasnorm_wordpool_576.txt	LTP133	ltpFR2	21	11	PAPER	1011	n/a	n/a	0	0	0
2926.382	n/a	WORD	1463191	wordpools/wasnorm_wordpool_576.txt	LTP133	ltpFR2	21	11	AUTHOR	61	n/a	n/a	0	0	0
2928.992	n/a	WORD	1464496	wordpools/wasnorm_wordpool_576.txt	LTP133	ltpFR2	21	11	GARDEN	623	n/a	n/a	0	0	0
2931.606	n/a	WORD	1465803	wordpools/wasnorm_wordpool_576.txt	LTP133	ltpFR2	21	11	SWITCH	1422	n/a	n/a	0	0	0
2934.182	n/a	WORD	1467091	wordpools/wasnorm_wordpool_576.txt	LTP133	ltpFR2	21	11	TRANSPLANT	1496	n/a	n/a	0	0	0
2936.724	n/a	WORD	1468362	wordpools/wasnorm_wordpool_576.txt	LTP133	ltpFR2	21	11	DOLPHIN	483	n/a	n/a	0	0	0
2939.538	n/a	WORD	1469769	wordpools/wasnorm_wordpool_576.txt	LTP133	ltpFR2	21	11	BIKE	125	n/a	n/a	0	0	0
2942.296	n/a	WORD	1471148	wordpools/wasnorm_wordpool_576.txt	LTP133	ltpFR2	21	11	JUDGE	761	n/a	n/a	0	0	0
2944.734	n/a	WORD	1472367	wordpools/wasnorm_wordpool_576.txt	LTP133	ltpFR2	21	11	LILY	821	n/a	n/a	0	0	0
2947.35	n/a	WORD	1473675	wordpools/wasnorm_wordpool_576.txt	LTP133	ltpFR2	21	11	FLEET	578	n/a	n/a	0	0	0
2950.06	n/a	WORD	1475030	wordpools/wasnorm_wordpool_576.txt	LTP133	ltpFR2	21	11	COLLEGE	346	n/a	n/a	0	0	0
2952.666	n/a	WORD	1476333	wordpools/wasnorm_wordpool_576.txt	LTP133	ltpFR2	21	11	GUITAR	670	n/a	n/a	0	0	0
2955.212	n/a	WORD	1477606	wordpools/wasnorm_wordpool_576.txt	LTP133	ltpFR2	21	11	ROBOT	1200	n/a	n/a	0	0	0
2957.822	n/a	WORD	1478911	wordpools/wasnorm_wordpool_576.txt	LTP133	ltpFR2	21	11	STAR	1373	n/a	n/a	0	0	0
2960.484	n/a	WORD	1480242	wordpools/wasnorm_wordpool_576.txt	LTP133	ltpFR2	21	11	BANJO	82	n/a	n/a	0	0	0
2963.294	n/a	WORD	1481647	wordpools/wasnorm_wordpool_576.txt	LTP133	ltpFR2	21	11	OUTDOORS	987	n/a	n/a	0	0	0
2965.954	n/a	WORD	1482977	wordpools/wasnorm_wordpool_576.txt	LTP133	ltpFR2	21	11	MEAT	883	n/a	n/a	0	0	0
2967.562	n/a	START	1483781	n/a	LTP133	ltpFR2	21	n/a	n/a	n/a	17	n/a	n/a	n/a	n/a
2968.452	n/a	DISTRACTOR	1484226	n/a	LTP133	ltpFR2	21	11	n/a	n/a	n/a	n/a	0	0	0
2968.464	n/a	PROB	1484232	n/a	LTP133	ltpFR2	21	n/a	n/a	n/a	17	18	4	7	7
2970.672	n/a	PROB	1485336	n/a	LTP133	ltpFR2	21	n/a	n/a	n/a	17	18	8	5	5
2972.038	n/a	PROB	1486019	n/a	LTP133	ltpFR2	21	n/a	n/a	n/a	17	9	1	2	6
2973.11	n/a	PROB	1486555	n/a	LTP133	ltpFR2	21	n/a	n/a	n/a	17	16	8	6	2
2974.416	n/a	PROB	1487208	n/a	LTP133	ltpFR2	21	n/a	n/a	n/a	17	20	6	7	7
2976.022	n/a	PROB	1488011	n/a	LTP133	ltpFR2	21	n/a	n/a	n/a	17	17	7	1	9
2977.744	n/a	PROB	1488872	n/a	LTP133	ltpFR2	21	n/a	n/a	n/a	17	24	8	8	8
2979.066	n/a	PROB	1489533	n/a	LTP133	ltpFR2	21	n/a	n/a	n/a	17	8	4	1	3
2980.304	n/a	PROB	1490152	n/a	LTP133	ltpFR2	21	n/a	n/a	n/a	17	10	4	5	1
2981.66	n/a	PROB	1490830	n/a	LTP133	ltpFR2	21	n/a	n/a	n/a	17	15	3	7	5
2982.848	n/a	PROB	1491424	n/a	LTP133	ltpFR2	21	n/a	n/a	n/a	17	7	5	1	1
2984.704	n/a	PROB	1492352	n/a	LTP133	ltpFR2	21	n/a	n/a	n/a	17	7	1	1	5
2985.658	n/a	PROB	1492829	n/a	LTP133	ltpFR2	21	n/a	n/a	n/a	17	16	2	9	5
2987.146	n/a	PROB	1493573	n/a	LTP133	ltpFR2	21	n/a	n/a	n/a	17	5	2	2	1
2988.0	n/a	PROB	1494000	n/a	LTP133	ltpFR2	21	n/a	n/a	n/a	17	16	3	6	7
2989.204	n/a	PROB	1494602	n/a	LTP133	ltpFR2	21	n/a	n/a	n/a	17	12	6	3	3
2990.636	n/a	STOP	1495318	n/a	LTP133	ltpFR2	21	n/a	n/a	n/a	17	n/a	n/a	n/a	n/a
2993.476	n/a	REC_START	1496738	n/a	LTP133	ltpFR2	21	11	n/a	n/a	n/a	n/a	0	0	0
2995.292	n/a	REC_WORD	1497646	wordpools/wasnorm_wordpool_576.txt	LTP133	ltpFR2	21	11	BANJO	82	n/a	n/a	0	0	0
2996.398	n/a	REC_WORD	1498199	wordpools/wasnorm_wordpool_576.txt	LTP133	ltpFR2	21	11	OUTDOORS	987	n/a	n/a	0	0	0
3008.336	n/a	REC_WORD	1504168	wordpools/wasnorm_wordpool_576.txt	LTP133	ltpFR2	21	11	ROBOT	1200	n/a	n/a	0	0	0
3009.718	n/a	REC_WORD	1504859	wordpools/wasnorm_wordpool_576.txt	LTP133	ltpFR2	21	11	GUITAR	670	n/a	n/a	0	0	0
3015.258	n/a	REC_WORD	1507629	wordpools/wasnorm_wordpool_576.txt	LTP133	ltpFR2	21	11	GAME	-1	n/a	n/a	0	0	0
3019.748	n/a	REC_WORD	1509874	wordpools/wasnorm_wordpool_576.txt	LTP133	ltpFR2	21	11	FLEET	578	n/a	n/a	0	0	0
3020.828	n/a	REC_WORD	1510414	wordpools/wasnorm_wordpool_576.txt	LTP133	ltpFR2	21	11	LILY	821	n/a	n/a	0	0	0
3022.024	n/a	REC_WORD	1511012	wordpools/wasnorm_wordpool_576.txt	LTP133	ltpFR2	21	11	COLLEGE	346	n/a	n/a	0	0	0
3023.776	n/a	REC_WORD	1511888	wordpools/wasnorm_wordpool_576.txt	LTP133	ltpFR2	21	11	DOLPHIN	483	n/a	n/a	0	0	0
3024.592	n/a	REC_WORD	1512296	wordpools/wasnorm_wordpool_576.txt	LTP133	ltpFR2	21	11	JUDGE	761	n/a	n/a	0	0	0
3025.694	n/a	REC_WORD	1512847	wordpools/wasnorm_wordpool_576.txt	LTP133	ltpFR2	21	11	BIKE	125	n/a	n/a	0	0	0
3028.588	n/a	REC_WORD	1514294	wordpools/wasnorm_wordpool_576.txt	LTP133	ltpFR2	21	11	COTTAGE	384	n/a	n/a	0	0	0
3029.442	n/a	REC_WORD	1514721	wordpools/wasnorm_wordpool_576.txt	LTP133	ltpFR2	21	11	FRAGRANCE	599	n/a	n/a	0	0	0
3030.938	n/a	REC_WORD	1515469	wordpools/wasnorm_wordpool_576.txt	LTP133	ltpFR2	21	11	MARKER	870	n/a	n/a	0	0	0
3034.088	n/a	REC_WORD	1517044	wordpools/wasnorm_wordpool_576.txt	LTP133	ltpFR2	21	11	BLUEPRINT	142	n/a	n/a	0	0	0
3034.888	n/a	REC_WORD	1517444	wordpools/wasnorm_wordpool_576.txt	LTP133	ltpFR2	21	11	TURKEY	1520	n/a	n/a	0	0	0
3035.746	n/a	REC_WORD	1517873	wordpools/wasnorm_wordpool_576.txt	LTP133	ltpFR2	21	11	SIDEWALK	1303	n/a	n/a	0	0	0
3037.44	n/a	REC_WORD	1518720	wordpools/wasnorm_wordpool_576.txt	LTP133	ltpFR2	21	11	PAPER	1011	n/a	n/a	0	0	0
3038.37	n/a	REC_WORD	1519185	wordpools/wasnorm_wordpool_576.txt	LTP133	ltpFR2	21	11	HIGHWAY	707	n/a	n/a	0	0	0
3039.562	n/a	REC_WORD	1519781	wordpools/wasnorm_wordpool_576.txt	LTP133	ltpFR2	21	11	AUTHOR	61	n/a	n/a	0	0	0
3047.866	n/a	REC_WORD	1523933	wordpools/wasnorm_wordpool_576.txt	LTP133	ltpFR2	21	11	MEAT	883	n/a	n/a	0	0	0
3053.13	n/a	REC_WORD	1526565	wordpools/wasnorm_wordpool_576.txt	LTP133	ltpFR2	21	11	GARDEN	623	n/a	n/a	0	0	0
3054.012	n/a	REC_WORD	1527006	wordpools/wasnorm_wordpool_576.txt	LTP133	ltpFR2	21	11	SWITCH	1422	n/a	n/a	0	0	0
3055.556	n/a	REC_WORD	1527778	wordpools/wasnorm_wordpool_576.txt	LTP133	ltpFR2	21	11	TRANSPLANT	1496	n/a	n/a	0	0	0
3084.524	n/a	DISTRACTOR	1542262	n/a	LTP133	ltpFR2	21	12	n/a	n/a	n/a	n/a	0	0	0
3084.524	n/a	START	1542262	n/a	LTP133	ltpFR2	21	n/a	n/a	n/a	18	n/a	n/a	n/a	n/a
3084.574	n/a	PROB	1542287	n/a	LTP133	ltpFR2	21	n/a	n/a	n/a	18	16	9	1	6
3085.84	n/a	PROB	1542920	n/a	LTP133	ltpFR2	21	n/a	n/a	n/a	18	9	1	2	6
3087.166	n/a	PROB	1543583	n/a	LTP133	ltpFR2	21	n/a	n/a	n/a	18	24	8	9	7
3088.658	n/a	PROB	1544329	n/a	LTP133	ltpFR2	21	n/a	n/a	n/a	18	21	7	6	8
3090.14	n/a	PROB	1545070	n/a	LTP133	ltpFR2	21	n/a	n/a	n/a	18	16	6	8	2
3091.546	n/a	PROB	1545773	n/a	LTP133	ltpFR2	21	n/a	n/a	n/a	18	13	3	5	5
3093.202	n/a	PROB	1546601	n/a	LTP133	ltpFR2	21	n/a	n/a	n/a	18	11	3	3	5
3094.53	n/a	PROB	1547265	n/a	LTP133	ltpFR2	21	n/a	n/a	n/a	18	17	4	9	4
3096.382	n/a	PROB	1548191	n/a	LTP133	ltpFR2	21	n/a	n/a	n/a	18	8	1	6	1
3097.608	n/a	PROB	1548804	n/a	LTP133	ltpFR2	21	n/a	n/a	n/a	18	11	5	3	3
3098.924	n/a	PROB	1549462	n/a	LTP133	ltpFR2	21	n/a	n/a	n/a	18	14	1	4	9
3100.602	n/a	PROB	1550301	n/a	LTP133	ltpFR2	21	n/a	n/a	n/a	18	18	9	8	1
3102.052	n/a	PROB	1551026	n/a	LTP133	ltpFR2	21	n/a	n/a	n/a	18	13	5	6	2
3103.442	n/a	PROB	1551721	n/a	LTP133	ltpFR2	21	n/a	n/a	n/a	18	21	8	7	6
3104.812	n/a	PROB	1552406	n/a	LTP133	ltpFR2	21	n/a	n/a	n/a	18	11	4	2	5
3106.272	n/a	PROB	1553136	n/a	LTP133	ltpFR2	21	n/a	n/a	n/a	18	20	6	9	5
3107.946	n/a	STOP	1553973	n/a	LTP133	ltpFR2	21	n/a	n/a	n/a	18	n/a	n/a	n/a	n/a
3109.486	n/a	WORD	1554743	wordpools/wasnorm_wordpool_576.txt	LTP133	ltpFR2	21	12	SWAMP	1416	n/a	n/a	0	0	0
3112.23	n/a	WORD	1556115	wordpools/wasnorm_wordpool_576.txt	LTP133	ltpFR2	21	12	WHISTLE	1606	n/a	n/a	0	0	0
3114.94	n/a	WORD	1557470	wordpools/wasnorm_wordpool_576.txt	LTP133	ltpFR2	21	12	HELMET	702	n/a	n/a	0	0	0
3117.762	n/a	WORD	1558881	wordpools/wasnorm_wordpool_576.txt	LTP133	ltpFR2	21	12	MARSH	874	n/a	n/a	0	0	0
3120.206	n/a	WORD	1560103	wordpools/wasnorm_wordpool_576.txt	LTP133	ltpFR2	21	12	MONSTER	912	n/a	n/a	0	0	0
3122.936	n/a	WORD	1561468	wordpools/wasnorm_wordpool_576.txt	LTP133	ltpFR2	21	12	SERVANT	1271	n/a	n/a	0	0	0
3125.632	n/a	WORD	1562816	wordpools/wasnorm_wordpool_576.txt	LTP133	ltpFR2	21	12	TROUT	1511	n/a	n/a	0	0	0
3128.152	n/a	WORD	1564076	wordpools/wasnorm_wordpool_576.txt	LTP133	ltpFR2	21	12	MATCH	878	n/a	n/a	0	0	0
3130.58	n/a	WORD	1565290	wordpools/wasnorm_wordpool_576.txt	LTP133	ltpFR2	21	12	LAMP	798	n/a	n/a	0	0	0
3133.142	n/a	WORD	1566571	wordpools/wasnorm_wordpool_576.txt	LTP133	ltpFR2	21	12	STOVE	1388	n/a	n/a	0	0	0
3135.736	n/a	WORD	1567868	wordpools/wasnorm_wordpool_576.txt	LTP133	ltpFR2	21	12	GAVEL	627	n/a	n/a	0	0	0
3138.56	n/a	WORD	1569280	wordpools/wasnorm_wordpool_576.txt	LTP133	ltpFR2	21	12	HEART	697	n/a	n/a	0	0	0
3141.206	n/a	WORD	1570603	wordpools/wasnorm_wordpool_576.txt	LTP133	ltpFR2	21	12	VICTIM	1562	n/a	n/a	0	0	0
3143.968	n/a	WORD	1571984	wordpools/wasnorm_wordpool_576.txt	LTP133	ltpFR2	21	12	CRAB	397	n/a	n/a	0	0	0
3146.406	n/a	WORD	1573203	wordpools/wasnorm_wordpool_576.txt	LTP133	ltpFR2	21	12	FLOWER	584	n/a	n/a	0	0	0
3149.154	n/a	WORD	1574577	wordpools/wasnorm_wordpool_576.txt	LTP133	ltpFR2	21	12	TURNIP	1521	n/a	n/a	0	0	0
3151.848	n/a	WORD	1575924	wordpools/wasnorm_wordpool_576.txt	LTP133	ltpFR2	21	12	RIVER	1194	n/a	n/a	0	0	0
3154.324	n/a	WORD	1577162	wordpools/wasnorm_wordpool_576.txt	LTP133	ltpFR2	21	12	MUSTARD	935	n/a	n/a	0	0	0
3156.766	n/a	WORD	1578383	wordpools/wasnorm_wordpool_576.txt	LTP133	ltpFR2	21	12	WORKER	1621	n/a	n/a	0	0	0
3159.36	n/a	WORD	1579680	wordpools/wasnorm_wordpool_576.txt	LTP133	ltpFR2	21	12	HARP	689	n/a	n/a	0	0	0
3162.018	n/a	WORD	1581009	wordpools/wasnorm_wordpool_576.txt	LTP133	ltpFR2	21	12	PLATE	1086	n/a	n/a	0	0	0
3164.598	n/a	WORD	1582299	wordpools/wasnorm_wordpool_576.txt	LTP133	ltpFR2	21	12	COOKBOOK	373	n/a	n/a	0	0	0
3167.168	n/a	WORD	1583584	wordpools/wasnorm_wordpool_576.txt	LTP133	ltpFR2	21	12	BEAST	108	n/a	n/a	0	0	0
3169.6	n/a	WORD	1584800	wordpools/wasnorm_wordpool_576.txt	LTP133	ltpFR2	21	12	PIMPLE	1071	n/a	n/a	0	0	0
3171.218	n/a	START	1585609	n/a	LTP133	ltpFR2	21	n/a	n/a	n/a	19	n/a	n/a	n/a	n/a
3172.136	n/a	DISTRACTOR	1586068	n/a	LTP133	ltpFR2	21	12	n/a	n/a	n/a	n/a	0	0	0
3172.154	n/a	PROB	1586077	n/a	LTP133	ltpFR2	21	n/a	n/a	n/a	19	18	7	3	8
3173.894	n/a	PROB	1586947	n/a	LTP133	ltpFR2	21	n/a	n/a	n/a	19	16	6	3	7
3175.332	n/a	PROB	1587666	n/a	LTP133	ltpFR2	21	n/a	n/a	n/a	19	13	5	7	1
3176.504	n/a	PROB	1588252	n/a	LTP133	ltpFR2	21	n/a	n/a	n/a	19	21	5	8	8
3178.126	n/a	PROB	1589063	n/a	LTP133	ltpFR2	21	n/a	n/a	n/a	19	21	9	8	4
3180.104	n/a	PROB	1590052	n/a	LTP133	ltpFR2	21	n/a	n/a	n/a	19	16	8	6	2
3181.44	n/a	PROB	1590720	n/a	LTP133	ltpFR2	21	n/a	n/a	n/a	19	13	3	5	5
3183.432	n/a	PROB	1591716	n/a	LTP133	ltpFR2	21	n/a	n/a	n/a	19	16	4	4	8
3185.104	n/a	PROB	1592552	n/a	LTP133	ltpFR2	21	n/a	n/a	n/a	19	11	1	8	2
3186.96	n/a	PROB	1593480	n/a	LTP133	ltpFR2	21	n/a	n/a	n/a	19	11	1	6	4
3188.584	n/a	PROB	1594292	n/a	LTP133	ltpFR2	21	n/a	n/a	n/a	19	18	3	6	9
3190.546	n/a	PROB	1595273	n/a	LTP133	ltpFR2	21	n/a	n/a	n/a	19	17	5	4	8
3191.93	n/a	PROB	1595965	n/a	LTP133	ltpFR2	21	n/a	n/a	n/a	19	13	2	9	2
3193.636	n/a	PROB	1596818	n/a	LTP133	ltpFR2	21	n/a	n/a	n/a	19	13	5	5	3
3195.07	n/a	STOP	1597535	n/a	LTP133	ltpFR2	21	n/a	n/a	n/a	19	n/a	n/a	n/a	n/a
3197.07	n/a	REC_START	1598535	n/a	LTP133	ltpFR2	21	12	n/a	n/a	n/a	n/a	0	0	0
3198.712	n/a	REC_WORD	1599356	wordpools/wasnorm_wordpool_576.txt	LTP133	ltpFR2	21	12	BEAST	108	n/a	n/a	0	0	0
3199.674	n/a	REC_WORD	1599837	wordpools/wasnorm_wordpool_576.txt	LTP133	ltpFR2	21	12	COOKBOOK	373	n/a	n/a	0	0	0
3200.868	n/a	REC_WORD	1600434	wordpools/wasnorm_wordpool_576.txt	LTP133	ltpFR2	21	12	PIMPLE	1071	n/a	n/a	0	0	0
3202.328	n/a	REC_WORD	1601164	wordpools/wasnorm_wordpool_576.txt	LTP133	ltpFR2	21	12	MONSTER	912	n/a	n/a	0	0	0
3203.62	n/a	REC_WORD	1601810	wordpools/wasnorm_wordpool_576.txt	LTP133	ltpFR2	21	12	MARSH	874	n/a	n/a	0	0	0
3205.904	n/a	REC_WORD	1602952	wordpools/wasnorm_wordpool_576.txt	LTP133	ltpFR2	21	12	SERVANT	1271	n/a	n/a	0	0	0
3207.622	n/a	REC_WORD	1603811	wordpools/wasnorm_wordpool_576.txt	LTP133	ltpFR2	21	12	VICTIM	1562	n/a	n/a	0	0	0
3208.782	n/a	REC_WORD	1604391	wordpools/wasnorm_wordpool_576.txt	LTP133	ltpFR2	21	12	CRAB	397	n/a	n/a	0	0	0
3209.812	n/a	REC_WORD	1604906	wordpools/wasnorm_wordpool_576.txt	LTP133	ltpFR2	21	12	FLOWER	584	n/a	n/a	0	0	0
3211.262	n/a	REC_WORD	1605631	wordpools/wasnorm_wordpool_576.txt	LTP133	ltpFR2	21	12	HEART	697	n/a	n/a	0	0	0
3212.428	n/a	REC_WORD	1606214	wordpools/wasnorm_wordpool_576.txt	LTP133	ltpFR2	21	12	GAVEL	627	n/a	n/a	0	0	0
3213.442	n/a	REC_WORD	1606721	wordpools/wasnorm_wordpool_576.txt	LTP133	ltpFR2	21	12	STOVE	1388	n/a	n/a	0	0	0
3215.924	n/a	REC_WORD	1607962	wordpools/wasnorm_wordpool_576.txt	LTP133	ltpFR2	21	12	MATCH	878	n/a	n/a	0	0	0
3217.544	n/a	REC_WORD	1608772	wordpools/wasnorm_wordpool_576.txt	LTP133	ltpFR2	21	12	LAMP	798	n/a	n/a	0	0	0
3221.084	n/a	REC_WORD	1610542	wordpools/wasnorm_wordpool_576.txt	LTP133	ltpFR2	21	12	HARP	689	n/a	n/a	0	0	0
3222.252	n/a	REC_WORD	1611126	wordpools/wasnorm_wordpool_576.txt	LTP133	ltpFR2	21	12	WORKER	1621	n/a	n/a	0	0	0
3223.804	n/a	REC_WORD	1611902	wordpools/wasnorm_wordpool_576.txt	LTP133	ltpFR2	21	12	RIVER	1194	n/a	n/a	0	0	0
3225.008	n/a	REC_WORD	1612504	wordpools/wasnorm_wordpool_576.txt	LTP133	ltpFR2	21	12	TURNIP	1521	n/a	n/a	0	0	0
3228.3	n/a	REC_WORD	1614150	wordpools/wasnorm_wordpool_576.txt	LTP133	ltpFR2	21	12	MUSTARD	935	n/a	n/a	0	0	0
3230.99	n/a	REC_WORD	1615495	wordpools/wasnorm_wordpool_576.txt	LTP133	ltpFR2	21	12	TROUT	1511	n/a	n/a	0	0	0
3244.922	n/a	REC_WORD	1622461	wordpools/wasnorm_wordpool_576.txt	LTP133	ltpFR2	21	12	WHISTLE	1606	n/a	n/a	0	0	0
3245.84	n/a	REC_WORD	1622920	wordpools/wasnorm_wordpool_576.txt	LTP133	ltpFR2	21	12	HELMET	702	n/a	n/a	0	0	0
3246.88	n/a	REC_WORD	1623440	wordpools/wasnorm_wordpool_576.txt	LTP133	ltpFR2	21	12	SWAMP	1416	n/a	n/a	0	0	0
3288.152	n/a	DISTRACTOR	1644076	n/a	LTP133	ltpFR2	21	13	n/a	n/a	n/a	n/a	0	0	0
3288.152	n/a	START	1644076	n/a	LTP133	ltpFR2	21	n/a	n/a	n/a	20	n/a	n/a	n/a	n/a
3288.202	n/a	PROB	1644101	n/a	LTP133	ltpFR2	21	n/a	n/a	n/a	20	21	6	6	9
3289.704	n/a	PROB	1644852	n/a	LTP133	ltpFR2	21	n/a	n/a	n/a	20	10	1	5	4
3290.912	n/a	PROB	1645456	n/a	LTP133	ltpFR2	21	n/a	n/a	n/a	20	13	6	5	2
3292.262	n/a	PROB	1646131	n/a	LTP133	ltpFR2	21	n/a	n/a	n/a	20	16	5	8	3
3293.52	n/a	PROB	1646760	n/a	LTP133	ltpFR2	21	n/a	n/a	n/a	20	16	9	5	2
3295.04	n/a	PROB	1647520	n/a	LTP133	ltpFR2	21	n/a	n/a	n/a	20	12	8	1	3
3296.262	n/a	PROB	1648131	n/a	LTP133	ltpFR2	21	n/a	n/a	n/a	20	16	4	4	8
3297.418	n/a	PROB	1648709	n/a	LTP133	ltpFR2	21	n/a	n/a	n/a	20	14	4	6	4
3298.822	n/a	PROB	1649411	n/a	LTP133	ltpFR2	21	n/a	n/a	n/a	20	7	5	1	1
3299.96	n/a	PROB	1649980	n/a	LTP133	ltpFR2	21	n/a	n/a	n/a	20	16	2	7	7
3301.314	n/a	PROB	1650657	n/a	LTP133	ltpFR2	21	n/a	n/a	n/a	20	6	2	3	1
3302.536	n/a	PROB	1651268	n/a	LTP133	ltpFR2	21	n/a	n/a	n/a	20	23	8	6	9
3303.962	n/a	PROB	1651981	n/a	LTP133	ltpFR2	21	n/a	n/a	n/a	20	17	7	3	7
3305.2	n/a	PROB	1652600	n/a	LTP133	ltpFR2	21	n/a	n/a	n/a	20	17	7	5	5
3306.652	n/a	PROB	1653326	n/a	LTP133	ltpFR2	21	n/a	n/a	n/a	20	113	4	1	8
3308.174	n/a	PROB	1654087	n/a	LTP133	ltpFR2	21	n/a	n/a	n/a	20	22	8	8	6
3309.796	n/a	PROB	1654898	n/a	LTP133	ltpFR2	21	n/a	n/a	n/a	20	12	4	2	6
3311.148	n/a	STOP	1655574	n/a	LTP133	ltpFR2	21	n/a	n/a	n/a	20	n/a	n/a	n/a	n/a
3313.098	n/a	WORD	1656549	wordpools/wasnorm_wordpool_576.txt	LTP133	ltpFR2	21	13	SUITCASE	1403	n/a	n/a	0	0	0
3315.724	n/a	WORD	1657862	wordpools/wasnorm_wordpool_576.txt	LTP133	ltpFR2	21	13	MISTER	901	n/a	n/a	0	0	0
3318.3	n/a	WORD	1659150	wordpools/wasnorm_wordpool_576.txt	LTP133	ltpFR2	21	13	UMPIRE	1535	n/a	n/a	0	0	0
3320.76	n/a	WORD	1660380	wordpools/wasnorm_wordpool_576.txt	LTP133	ltpFR2	21	13	LUGGAGE	847	n/a	n/a	0	0	0
3323.186	n/a	WORD	1661593	wordpools/wasnorm_wordpool_576.txt	LTP133	ltpFR2	21	13	WORLD	1622	n/a	n/a	0	0	0
3325.924	n/a	WORD	1662962	wordpools/wasnorm_wordpool_576.txt	LTP133	ltpFR2	21	13	EAGLE	512	n/a	n/a	0	0	0
3328.39	n/a	WORD	1664195	wordpools/wasnorm_wordpool_576.txt	LTP133	ltpFR2	21	13	WHISKERS	1605	n/a	n/a	0	0	0
3331.044	n/a	WORD	1665522	wordpools/wasnorm_wordpool_576.txt	LTP133	ltpFR2	21	13	GARLIC	624	n/a	n/a	0	0	0
3333.626	n/a	WORD	1666813	wordpools/wasnorm_wordpool_576.txt	LTP133	ltpFR2	21	13	OFFICE	972	n/a	n/a	0	0	0
3336.286	n/a	WORD	1668143	wordpools/wasnorm_wordpool_576.txt	LTP133	ltpFR2	21	13	PLASTER	1085	n/a	n/a	0	0	0
3339.096	n/a	WORD	1669548	wordpools/wasnorm_wordpool_576.txt	LTP133	ltpFR2	21	13	TRENCH	1503	n/a	n/a	0	0	0
3341.59	n/a	WORD	1670795	wordpools/wasnorm_wordpool_576.txt	LTP133	ltpFR2	21	13	PATROL	1027	n/a	n/a	0	0	0
3344.032	n/a	WORD	1672016	wordpools/wasnorm_wordpool_576.txt	LTP133	ltpFR2	21	13	MUFFIN	929	n/a	n/a	0	0	0
3346.808	n/a	WORD	1673404	wordpools/wasnorm_wordpool_576.txt	LTP133	ltpFR2	21	13	KIDNEY	776	n/a	n/a	0	0	0
3349.232	n/a	WORD	1674616	wordpools/wasnorm_wordpool_576.txt	LTP133	ltpFR2	21	13	KNIFE	785	n/a	n/a	0	0	0
3351.828	n/a	WORD	1675914	wordpools/wasnorm_wordpool_576.txt	LTP133	ltpFR2	21	13	FOREHEAD	592	n/a	n/a	0	0	0
3354.272	n/a	WORD	1677136	wordpools/wasnorm_wordpool_576.txt	LTP133	ltpFR2	21	13	TOASTER	1472	n/a	n/a	0	0	0
3357.094	n/a	WORD	1678547	wordpools/wasnorm_wordpool_576.txt	LTP133	ltpFR2	21	13	KITCHEN	778	n/a	n/a	0	0	0
3359.692	n/a	WORD	1679846	wordpools/wasnorm_wordpool_576.txt	LTP133	ltpFR2	21	13	FLAG	573	n/a	n/a	0	0	0
3362.15	n/a	WORD	1681075	wordpools/wasnorm_wordpool_576.txt	LTP133	ltpFR2	21	13	AGENT	10	n/a	n/a	0	0	0
3364.74	n/a	WORD	1682370	wordpools/wasnorm_wordpool_576.txt	LTP133	ltpFR2	21	13	SALMON	1227	n/a	n/a	0	0	0
3367.372	n/a	WORD	1683686	wordpools/wasnorm_wordpool_576.txt	LTP133	ltpFR2	21	13	SUSPECT	1415	n/a	n/a	0	0	0
3370.116	n/a	WORD	1685058	wordpools/wasnorm_wordpool_576.txt	LTP133	ltpFR2	21	13	INMATE	738	n/a	n/a	0	0	0
3372.926	n/a	WORD	1686463	wordpools/wasnorm_wordpool_576.txt	LTP133	ltpFR2	21	13	BABY	64	n/a	n/a	0	0	0
3374.534	n/a	START	1687267	n/a	LTP133	ltpFR2	21	n/a	n/a	n/a	21	n/a	n/a	n/a	n/a
3375.476	n/a	DISTRACTOR	1687738	n/a	LTP133	ltpFR2	21	13	n/a	n/a	n/a	n/a	0	0	0
3375.486	n/a	PROB	1687743	n/a	LTP133	ltpFR2	21	n/a	n/a	n/a	21	19	6	6	7
3377.02	n/a	PROB	1688510	n/a	LTP133	ltpFR2	21	n/a	n/a	n/a	21	13	5	3	5
3378.342	n/a	PROB	1689171	n/a	LTP133	ltpFR2	21	n/a	n/a	n/a	21	16	6	6	4
3379.902	n/a	PROB	1689951	n/a	LTP133	ltpFR2	21	n/a	n/a	n/a	21	16	1	6	9
3381.27	n/a	PROB	1690635	n/a	LTP133	ltpFR2	21	n/a	n/a	n/a	21	14	9	2	3
3382.942	n/a	PROB	1691471	n/a	LTP133	ltpFR2	21	n/a	n/a	n/a	21	21	6	7	8
3384.348	n/a	PROB	1692174	n/a	LTP133	ltpFR2	21	n/a	n/a	n/a	21	24	7	8	9
3385.87	n/a	PROB	1692935	n/a	LTP133	ltpFR2	21	n/a	n/a	n/a	21	17	6	2	9
3387.778	n/a	PROB	1693889	n/a	LTP133	ltpFR2	21	n/a	n/a	n/a	21	9	5	2	2
3389.218	n/a	PROB	1694609	n/a	LTP133	ltpFR2	21	n/a	n/a	n/a	21	13	1	6	6
3390.64	n/a	PROB	1695320	n/a	LTP133	ltpFR2	21	n/a	n/a	n/a	21	7	3	2	2
3391.798	n/a	PROB	1695899	n/a	LTP133	ltpFR2	21	n/a	n/a	n/a	21	20	9	4	7
3393.418	n/a	PROB	1696709	n/a	LTP133	ltpFR2	21	n/a	n/a	n/a	21	11	1	1	9
3394.576	n/a	PROB	1697288	n/a	LTP133	ltpFR2	21	n/a	n/a	n/a	21	17	9	1	7
3396.026	n/a	PROB	1698013	n/a	LTP133	ltpFR2	21	n/a	n/a	n/a	21	17	8	7	2
3397.218	n/a	STOP	1698609	n/a	LTP133	ltpFR2	21	n/a	n/a	n/a	21	n/a	n/a	n/a	n/a
3400.366	n/a	REC_START	1700183	n/a	LTP133	ltpFR2	21	13	n/a	n/a	n/a	n/a	0	0	0
3401.468	n/a	REC_WORD	1700734	wordpools/wasnorm_wordpool_576.txt	LTP133	ltpFR2	21	13	FLAG	573	n/a	n/a	0	0	0
3403.432	n/a	REC_WORD	1701716	wordpools/wasnorm_wordpool_576.txt	LTP133	ltpFR2	21	13	INMATE	738	n/a	n/a	0	0	0
3404.77	n/a	REC_WORD	1702385	wordpools/wasnorm_wordpool_576.txt	LTP133	ltpFR2	21	13	BABY	64	n/a	n/a	0	0	0
3417.108	n/a	REC_WORD	1708554	wordpools/wasnorm_wordpool_576.txt	LTP133	ltpFR2	21	13	MISTER	901	n/a	n/a	0	0	0
3418.406	n/a	REC_WORD	1709203	wordpools/wasnorm_wordpool_576.txt	LTP133	ltpFR2	21	13	UMPIRE	1535	n/a	n/a	0	0	0
3421.426	n/a	REC_WORD	1710713	wordpools/wasnorm_wordpool_576.txt	LTP133	ltpFR2	21	13	SUITCASE	1403	n/a	n/a	0	0	0
3422.956	n/a	REC_WORD	1711478	wordpools/wasnorm_wordpool_576.txt	LTP133	ltpFR2	21	13	LUGGAGE	847	n/a	n/a	0	0	0
3424.1	n/a	REC_WORD	1712050	wordpools/wasnorm_wordpool_576.txt	LTP133	ltpFR2	21	13	WORLD	1622	n/a	n/a	0	0	0
3425.416	n/a	REC_WORD	1712708	wordpools/wasnorm_wordpool_576.txt	LTP133	ltpFR2	21	13	EAGLE	512	n/a	n/a	0	0	0
3427.258	n/a	REC_WORD	1713629	wordpools/wasnorm_wordpool_576.txt	LTP133	ltpFR2	21	13	OFFICE	972	n/a	n/a	0	0	0
3428.454	n/a	REC_WORD	1714227	wordpools/wasnorm_wordpool_576.txt	LTP133	ltpFR2	21	13	GARLIC	624	n/a	n/a	0	0	0
3429.776	n/a	REC_WORD	1714888	wordpools/wasnorm_wordpool_576.txt	LTP133	ltpFR2	21	13	WHISKERS	1605	n/a	n/a	0	0	0
3589.202	n/a	WORD	1794601	wordpools/wasnorm_wordpool_576.txt	LTP133	ltpFR2	21	14	FINGER	567	n/a	n/a	0	0	0
3591.914	n/a	WORD	1795957	wordpools/wasnorm_wordpool_576.txt	LTP133	ltpFR2	21	14	STAMP	1370	n/a	n/a	0	0	0
3594.536	n/a	WORD	1797268	wordpools/wasnorm_wordpool_576.txt	LTP133	ltpFR2	21	14	MUMMY	932	n/a	n/a	0	0	0
3597.032	n/a	WORD	1798516	wordpools/wasnorm_wordpool_576.txt	LTP133	ltpFR2	21	14	FRANCE	601	n/a	n/a	0	0	0
3599.81	n/a	WORD	1799905	wordpools/wasnorm_wordpool_576.txt	LTP133	ltpFR2	21	14	HEDGE	699	n/a	n/a	0	0	0
3602.538	n/a	WORD	1801269	wordpools/wasnorm_wordpool_576.txt	LTP133	ltpFR2	21	14	SILK	1307	n/a	n/a	0	0	0
3605.162	n/a	WORD	1802581	wordpools/wasnorm_wordpool_576.txt	LTP133	ltpFR2	21	14	BRANDY	169	n/a	n/a	0	0	0
3607.652	n/a	WORD	1803826	wordpools/wasnorm_wordpool_576.txt	LTP133	ltpFR2	21	14	DRINK	498	n/a	n/a	0	0	0
3610.418	n/a	WORD	1805209	wordpools/wasnorm_wordpool_576.txt	LTP133	ltpFR2	21	14	PICTURE	1061	n/a	n/a	0	0	0
3613.11	n/a	WORD	1806555	wordpools/wasnorm_wordpool_576.txt	LTP133	ltpFR2	21	14	DRESS	495	n/a	n/a	0	0	0
3615.722	n/a	WORD	1807861	wordpools/wasnorm_wordpool_576.txt	LTP133	ltpFR2	21	14	GANGSTER	620	n/a	n/a	0	0	0
3618.382	n/a	WORD	1809191	wordpools/wasnorm_wordpool_576.txt	LTP133	ltpFR2	21	14	CLOCK	325	n/a	n/a	0	0	0
3621.192	n/a	WORD	1810596	wordpools/wasnorm_wordpool_576.txt	LTP133	ltpFR2	21	14	CARROT	249	n/a	n/a	0	0	0
3623.952	n/a	WORD	1811976	wordpools/wasnorm_wordpool_576.txt	LTP133	ltpFR2	21	14	SALAD	1224	n/a	n/a	0	0	0
3626.478	n/a	WORD	1813239	wordpools/wasnorm_wordpool_576.txt	LTP133	ltpFR2	21	14	LASER	801	n/a	n/a	0	0	0
3629.072	n/a	WORD	1814536	wordpools/wasnorm_wordpool_576.txt	LTP133	ltpFR2	21	14	SWIMMER	1420	n/a	n/a	0	0	0
3631.85	n/a	WORD	1815925	wordpools/wasnorm_wordpool_576.txt	LTP133	ltpFR2	21	14	FIREMAN	569	n/a	n/a	0	0	0
3634.66	n/a	WORD	1817330	wordpools/wasnorm_wordpool_576.txt	LTP133	ltpFR2	21	14	GYMNAST	675	n/a	n/a	0	0	0
3637.152	n/a	WORD	1818576	wordpools/wasnorm_wordpool_576.txt	LTP133	ltpFR2	21	14	CRIB	407	n/a	n/a	0	0	0
3639.762	n/a	WORD	1819881	wordpools/wasnorm_wordpool_576.txt	LTP133	ltpFR2	21	14	LONDON	843	n/a	n/a	0	0	0
3642.238	n/a	WORD	1821119	wordpools/wasnorm_wordpool_576.txt	LTP133	ltpFR2	21	14	GIFT	635	n/a	n/a	0	0	0
3644.882	n/a	WORD	1822441	wordpools/wasnorm_wordpool_576.txt	LTP133	ltpFR2	21	14	BULLET	194	n/a	n/a	0	0	0
3647.358	n/a	WORD	1823679	wordpools/wasnorm_wordpool_576.txt	LTP133	ltpFR2	21	14	BRAKE	166	n/a	n/a	0	0	0
3650.002	n/a	WORD	1825001	wordpools/wasnorm_wordpool_576.txt	LTP133	ltpFR2	21	14	CUPBOARD	425	n/a	n/a	0	0	0
3651.61	n/a	START	1825805	n/a	LTP133	ltpFR2	21	n/a	n/a	n/a	22	n/a	n/a	n/a	n/a
3652.71	n/a	DISTRACTOR	1826355	n/a	LTP133	ltpFR2	21	14	n/a	n/a	n/a	n/a	0	0	0
3652.726	n/a	PROB	1826363	n/a	LTP133	ltpFR2	21	n/a	n/a	n/a	22	20	8	3	9
3655.908	n/a	PROB	1827954	n/a	LTP133	ltpFR2	21	n/a	n/a	n/a	22	15	4	4	7
3658.016	n/a	PROB	1829008	n/a	LTP133	ltpFR2	21	n/a	n/a	n/a	22	18	5	4	9
3659.454	n/a	PROB	1829727	n/a	LTP133	ltpFR2	21	n/a	n/a	n/a	22	27	9	9	9
3660.788	n/a	PROB	1830394	n/a	LTP133	ltpFR2	21	n/a	n/a	n/a	22	21	9	5	7
3662.042	n/a	PROB	1831021	n/a	LTP133	ltpFR2	21	n/a	n/a	n/a	22	10	3	6	1
3663.55	n/a	PROB	1831775	n/a	LTP133	ltpFR2	21	n/a	n/a	n/a	22	16	4	5	7
3665.058	n/a	PROB	1832529	n/a	LTP133	ltpFR2	21	n/a	n/a	n/a	22	8	1	6	1
3666.33	n/a	PROB	1833165	n/a	LTP133	ltpFR2	21	n/a	n/a	n/a	22	14	3	5	6
3668.066	n/a	PROB	1834033	n/a	LTP133	ltpFR2	21	n/a	n/a	n/a	22	11	2	5	4
3669.574	n/a	PROB	1834787	n/a	LTP133	ltpFR2	21	n/a	n/a	n/a	22	21	7	8	6
3671.714	n/a	PROB	1835857	n/a	LTP133	ltpFR2	21	n/a	n/a	n/a	22	13	4	2	7
3673.04	n/a	PROB	1836520	n/a	LTP133	ltpFR2	21	n/a	n/a	n/a	22	16	7	7	2
3674.65	n/a	STOP	1837325	n/a	LTP133	ltpFR2	21	n/a	n/a	n/a	22	n/a	n/a	n/a	n/a
3677.404	n/a	REC_START	1838702	n/a	LTP133	ltpFR2	21	14	n/a	n/a	n/a	n/a	0	0	0
3679.288	n/a	REC_WORD	1839644	wordpools/wasnorm_wordpool_576.txt	LTP133	ltpFR2	21	14	GYMNAST	675	n/a	n/a	0	0	0
3680.312	n/a	REC_WORD	1840156	wordpools/wasnorm_wordpool_576.txt	LTP133	ltpFR2	21	14	CRIB	407	n/a	n/a	0	0	0
3681.402	n/a	REC_WORD	1840701	wordpools/wasnorm_wordpool_576.txt	LTP133	ltpFR2	21	14	LONDON	843	n/a	n/a	0	0	0
3682.672	n/a	REC_WORD	1841336	wordpools/wasnorm_wordpool_576.txt	LTP133	ltpFR2	21	14	BULLET	194	n/a	n/a	0	0	0
3683.638	n/a	REC_WORD	1841819	wordpools/wasnorm_wordpool_576.txt	LTP133	ltpFR2	21	14	GIFT	635	n/a	n/a	0	0	0
3684.584	n/a	REC_WORD	1842292	wordpools/wasnorm_wordpool_576.txt	LTP133	ltpFR2	21	14	BRAKE	166	n/a	n/a	0	0	0
3695.024	n/a	REC_WORD	1847512	wordpools/wasnorm_wordpool_576.txt	LTP133	ltpFR2	21	14	FINGER	567	n/a	n/a	0	0	0
3696.108	n/a	REC_WORD	1848054	wordpools/wasnorm_wordpool_576.txt	LTP133	ltpFR2	21	14	STAMP	1370	n/a	n/a	0	0	0
3701.846	n/a	REC_WORD	1850923	wordpools/wasnorm_wordpool_576.txt	LTP133	ltpFR2	21	14	FRANCE	601	n/a	n/a	0	0	0
3703.04	n/a	REC_WORD	1851520	wordpools/wasnorm_wordpool_576.txt	LTP133	ltpFR2	21	14	HEDGE	699	n/a	n/a	0	0	0
3704.494	n/a	REC_WORD	1852247	wordpools/wasnorm_wordpool_576.txt	LTP133	ltpFR2	21	14	BRANDY	169	n/a	n/a	0	0	0
3705.626	n/a	REC_WORD	1852813	wordpools/wasnorm_wordpool_576.txt	LTP133	ltpFR2	21	14	DRINK	498	n/a	n/a	0	0	0
3707.288	n/a	REC_WORD	1853644	wordpools/wasnorm_wordpool_576.txt	LTP133	ltpFR2	21	14	GANGSTER	620	n/a	n/a	0	0	0
3708.888	n/a	REC_WORD	1854444	wordpools/wasnorm_wordpool_576.txt	LTP133	ltpFR2	21	14	CLOCK	325	n/a	n/a	0	0	0
3714.454	n/a	REC_WORD	1857227	wordpools/wasnorm_wordpool_576.txt	LTP133	ltpFR2	21	14	DRESS	495	n/a	n/a	0	0	0
3721.468	n/a	REC_WORD	1860734	wordpools/wasnorm_wordpool_576.txt	LTP133	ltpFR2	21	14	PICTURE	1061	n/a	n/a	0	0	0
3732.784	n/a	REC_WORD	1866392	wordpools/wasnorm_wordpool_576.txt	LTP133	ltpFR2	21	14	LASER	801	n/a	n/a	0	0	0
3733.734	n/a	REC_WORD	1866867	wordpools/wasnorm_wordpool_576.txt	LTP133	ltpFR2	21	14	SWIMMER	1420	n/a	n/a	0	0	0
3866.274	n/a	WORD	1933137	wordpools/wasnorm_wordpool_576.txt	LTP133	ltpFR2	21	15	COUNTRY	388	n/a	n/a	0	0	0
3869.004	n/a	WORD	1934502	wordpools/wasnorm_wordpool_576.txt	LTP133	ltpFR2	21	15	PALACE	1006	n/a	n/a	0	0	0
3871.718	n/a	WORD	1935859	wordpools/wasnorm_wordpool_576.txt	LTP133	ltpFR2	21	15	CASHIER	254	n/a	n/a	0	0	0
3874.36	n/a	WORD	1937180	wordpools/wasnorm_wordpool_576.txt	LTP133	ltpFR2	21	15	PERFUME	1049	n/a	n/a	0	0	0
3877.17	n/a	WORD	1938585	wordpools/wasnorm_wordpool_576.txt	LTP133	ltpFR2	21	15	PASTRY	1022	n/a	n/a	0	0	0
3879.942	n/a	WORD	1939971	wordpools/wasnorm_wordpool_576.txt	LTP133	ltpFR2	21	15	TABLET	1427	n/a	n/a	0	0	0
3882.738	n/a	WORD	1941369	wordpools/wasnorm_wordpool_576.txt	LTP133	ltpFR2	21	15	PANTHER	1009	n/a	n/a	0	0	0
3885.468	n/a	WORD	1942734	wordpools/wasnorm_wordpool_576.txt	LTP133	ltpFR2	21	15	SEAL	1262	n/a	n/a	0	0	0
3887.99	n/a	WORD	1943995	wordpools/wasnorm_wordpool_576.txt	LTP133	ltpFR2	21	15	TREAT	1501	n/a	n/a	0	0	0
3890.788	n/a	WORD	1945394	wordpools/wasnorm_wordpool_576.txt	LTP133	ltpFR2	21	15	BUG	187	n/a	n/a	0	0	0
3893.5	n/a	WORD	1946750	wordpools/wasnorm_wordpool_576.txt	LTP133	ltpFR2	21	15	PEACH	1031	n/a	n/a	0	0	0
3896.238	n/a	WORD	1948119	wordpools/wasnorm_wordpool_576.txt	LTP133	ltpFR2	21	15	SHORTCAKE	1292	n/a	n/a	0	0	0
3898.886	n/a	WORD	1949443	wordpools/wasnorm_wordpool_576.txt	LTP133	ltpFR2	21	15	HONEY	713	n/a	n/a	0	0	0
3901.53	n/a	WORD	1950765	wordpools/wasnorm_wordpool_576.txt	LTP133	ltpFR2	21	15	FIDDLE	561	n/a	n/a	0	0	0
3904.172	n/a	WORD	1952086	wordpools/wasnorm_wordpool_576.txt	LTP133	ltpFR2	21	15	SCULPTURE	1258	n/a	n/a	0	0	0
3906.7	n/a	WORD	1953350	wordpools/wasnorm_wordpool_576.txt	LTP133	ltpFR2	21	15	RUG	1215	n/a	n/a	0	0	0
3909.428	n/a	WORD	1954714	wordpools/wasnorm_wordpool_576.txt	LTP133	ltpFR2	21	15	CHAUFFEUR	283	n/a	n/a	0	0	0
3911.886	n/a	WORD	1955943	wordpools/wasnorm_wordpool_576.txt	LTP133	ltpFR2	21	15	ASIA	46	n/a	n/a	0	0	0
3914.362	n/a	WORD	1957181	wordpools/wasnorm_wordpool_576.txt	LTP133	ltpFR2	21	15	CREVICE	405	n/a	n/a	0	0	0
3917.052	n/a	WORD	1958526	wordpools/wasnorm_wordpool_576.txt	LTP133	ltpFR2	21	15	NECKLACE	940	n/a	n/a	0	0	0
3919.866	n/a	WORD	1959933	wordpools/wasnorm_wordpool_576.txt	LTP133	ltpFR2	21	15	TILE	1468	n/a	n/a	0	0	0
3922.308	n/a	WORD	1961154	wordpools/wasnorm_wordpool_576.txt	LTP133	ltpFR2	21	15	ONION	977	n/a	n/a	0	0	0
3924.752	n/a	WORD	1962376	wordpools/wasnorm_wordpool_576.txt	LTP133	ltpFR2	21	15	ICEBERG	731	n/a	n/a	0	0	0
3927.358	n/a	WORD	1963679	wordpools/wasnorm_wordpool_576.txt	LTP133	ltpFR2	21	15	KLEENEX	782	n/a	n/a	0	0	0
3928.968	n/a	START	1964484	n/a	LTP133	ltpFR2	21	n/a	n/a	n/a	23	n/a	n/a	n/a	n/a
3930.07	n/a	DISTRACTOR	1965035	n/a	LTP133	ltpFR2	21	15	n/a	n/a	n/a	n/a	0	0	0
3930.084	n/a	PROB	1965042	n/a	LTP133	ltpFR2	21	n/a	n/a	n/a	23	15	2	7	6
3931.508	n/a	PROB	1965754	n/a	LTP133	ltpFR2	21	n/a	n/a	n/a	23	14	7	6	1
3933.402	n/a	PROB	1966701	n/a	LTP133	ltpFR2	21	n/a	n/a	n/a	23	8	6	1	1
3934.768	n/a	PROB	1967384	n/a	LTP133	ltpFR2	21	n/a	n/a	n/a	23	7	2	3	2
3936.04	n/a	PROB	1968020	n/a	LTP133	ltpFR2	21	n/a	n/a	n/a	23	11	4	3	3
3937.414	n/a	PROB	1968707	n/a	LTP133	ltpFR2	21	n/a	n/a	n/a	23	11	5	3	3
3939.22	n/a	PROB	1969610	n/a	LTP133	ltpFR2	21	n/a	n/a	n/a	23	10	3	4	3
3940.996	n/a	PROB	1970498	n/a	LTP133	ltpFR2	21	n/a	n/a	n/a	23	15	6	7	2
3942.454	n/a	PROB	1971227	n/a	LTP133	ltpFR2	21	n/a	n/a	n/a	23	7	1	5	1
3943.708	n/a	PROB	1971854	n/a	LTP133	ltpFR2	21	n/a	n/a	n/a	23	16	4	6	6
3945.064	n/a	PROB	1972532	n/a	LTP133	ltpFR2	21	n/a	n/a	n/a	23	13	1	7	5
3946.532	n/a	PROB	1973266	n/a	LTP133	ltpFR2	21	n/a	n/a	n/a	23	13	2	2	9
3948.054	n/a	PROB	1974027	n/a	LTP133	ltpFR2	21	n/a	n/a	n/a	23	19	1	9	9
3949.414	n/a	PROB	1974707	n/a	LTP133	ltpFR2	21	n/a	n/a	n/a	23	8	3	4	1
3950.698	n/a	PROB	1975349	n/a	LTP133	ltpFR2	21	n/a	n/a	n/a	23	7	3	3	1
3951.872	n/a	STOP	1975936	n/a	LTP133	ltpFR2	21	n/a	n/a	n/a	23	n/a	n/a	n/a	n/a
3954.934	n/a	REC_START	1977467	n/a	LTP133	ltpFR2	21	15	n/a	n/a	n/a	n/a	0	0	0
3957.662	n/a	REC_WORD	1978831	wordpools/wasnorm_wordpool_576.txt	LTP133	ltpFR2	21	15	KLEENEX	782	n/a	n/a	0	0	0
3958.648	n/a	REC_WORD	1979324	wordpools/wasnorm_wordpool_576.txt	LTP133	ltpFR2	21	15	ICEBERG	731	n/a	n/a	0	0	0
3959.696	n/a	REC_WORD	1979848	wordpools/wasnorm_wordpool_576.txt	LTP133	ltpFR2	21	15	ONION	977	n/a	n/a	0	0	0
3962.918	n/a	REC_WORD	1981459	wordpools/wasnorm_wordpool_576.txt	LTP133	ltpFR2	21	15	PANTHER	1009	n/a	n/a	0	0	0
3963.66	n/a	REC_WORD	1981830	wordpools/wasnorm_wordpool_576.txt	LTP133	ltpFR2	21	15	SEAL	1262	n/a	n/a	0	0	0
3964.624	n/a	REC_WORD	1982312	wordpools/wasnorm_wordpool_576.txt	LTP133	ltpFR2	21	15	TREAT	1501	n/a	n/a	0	0	0
3966.334	n/a	REC_WORD	1983167	wordpools/wasnorm_wordpool_576.txt	LTP133	ltpFR2	21	15	FIDDLE	561	n/a	n/a	0	0	0
3967.092	n/a	REC_WORD	1983546	wordpools/wasnorm_wordpool_576.txt	LTP133	ltpFR2	21	15	SCULPTURE	1258	n/a	n/a	0	0	0
3969.444	n/a	REC_WORD	1984722	wordpools/wasnorm_wordpool_576.txt	LTP133	ltpFR2	21	15	BUG	187	n/a	n/a	0	0	0
3970.356	n/a	REC_WORD	1985178	wordpools/wasnorm_wordpool_576.txt	LTP133	ltpFR2	21	15	HONEY	713	n/a	n/a	0	0	0
3971.67	n/a	REC_WORD	1985835	wordpools/wasnorm_wordpool_576.txt	LTP133	ltpFR2	21	15	PEACH	1031	n/a	n/a	0	0	0
3972.654	n/a	REC_WORD	1986327	wordpools/wasnorm_wordpool_576.txt	LTP133	ltpFR2	21	15	SHORTCAKE	1292	n/a	n/a	0	0	0
3984.918	n/a	REC_WORD	1992459	wordpools/wasnorm_wordpool_576.txt	LTP133	ltpFR2	21	15	PALACE	1006	n/a	n/a	0	0	0
3986.04	n/a	REC_WORD	1993020	wordpools/wasnorm_wordpool_576.txt	LTP133	ltpFR2	21	15	COUNTRY	388	n/a	n/a	0	0	0
3987.424	n/a	REC_WORD	1993712	wordpools/wasnorm_wordpool_576.txt	LTP133	ltpFR2	21	15	CASHIER	254	n/a	n/a	0	0	0
4138.9	n/a	WORD	2069450	wordpools/wasnorm_wordpool_576.txt	LTP133	ltpFR2	21	16	CHAMPAGNE	278	n/a	n/a	0	0	0
4141.346	n/a	WORD	2070673	wordpools/wasnorm_wordpool_576.txt	LTP133	ltpFR2	21	16	GRILL	661	n/a	n/a	0	0	0
4143.94	n/a	WORD	2071970	wordpools/wasnorm_wordpool_576.txt	LTP133	ltpFR2	21	16	WRENCH	1625	n/a	n/a	0	0	0
4146.65	n/a	WORD	2073325	wordpools/wasnorm_wordpool_576.txt	LTP133	ltpFR2	21	16	HORNET	718	n/a	n/a	0	0	0
4149.092	n/a	WORD	2074546	wordpools/wasnorm_wordpool_576.txt	LTP133	ltpFR2	21	16	ANTLER	29	n/a	n/a	0	0	0
4151.654	n/a	WORD	2075827	wordpools/wasnorm_wordpool_576.txt	LTP133	ltpFR2	21	16	GAZELLE	628	n/a	n/a	0	0	0
4154.262	n/a	WORD	2077131	wordpools/wasnorm_wordpool_576.txt	LTP133	ltpFR2	21	16	CASKET	255	n/a	n/a	0	0	0
4156.868	n/a	WORD	2078434	wordpools/wasnorm_wordpool_576.txt	LTP133	ltpFR2	21	16	CRUTCH	417	n/a	n/a	0	0	0
4159.684	n/a	WORD	2079842	wordpools/wasnorm_wordpool_576.txt	LTP133	ltpFR2	21	16	ELBOW	520	n/a	n/a	0	0	0
4162.176	n/a	WORD	2081088	wordpools/wasnorm_wordpool_576.txt	LTP133	ltpFR2	21	16	ATLAS	53	n/a	n/a	0	0	0
4164.886	n/a	WORD	2082443	wordpools/wasnorm_wordpool_576.txt	LTP133	ltpFR2	21	16	POCKET	1093	n/a	n/a	0	0	0
4167.346	n/a	WORD	2083673	wordpools/wasnorm_wordpool_576.txt	LTP133	ltpFR2	21	16	PRIMATE	1123	n/a	n/a	0	0	0
4169.884	n/a	WORD	2084942	wordpools/wasnorm_wordpool_576.txt	LTP133	ltpFR2	21	16	GRAPE	654	n/a	n/a	0	0	0
4172.314	n/a	WORD	2086157	wordpools/wasnorm_wordpool_576.txt	LTP133	ltpFR2	21	16	THRONE	1461	n/a	n/a	0	0	0
4175.042	n/a	WORD	2087521	wordpools/wasnorm_wordpool_576.txt	LTP133	ltpFR2	21	16	LUMBER	848	n/a	n/a	0	0	0
4177.748	n/a	WORD	2088874	wordpools/wasnorm_wordpool_576.txt	LTP133	ltpFR2	21	16	HERO	706	n/a	n/a	0	0	0
4180.278	n/a	WORD	2090139	wordpools/wasnorm_wordpool_576.txt	LTP133	ltpFR2	21	16	LEG	809	n/a	n/a	0	0	0
4183.106	n/a	WORD	2091553	wordpools/wasnorm_wordpool_576.txt	LTP133	ltpFR2	21	16	BISON	131	n/a	n/a	0	0	0
4185.762	n/a	WORD	2092881	wordpools/wasnorm_wordpool_576.txt	LTP133	ltpFR2	21	16	PREACHER	1119	n/a	n/a	0	0	0
4188.462	n/a	WORD	2094231	wordpools/wasnorm_wordpool_576.txt	LTP133	ltpFR2	21	16	REBEL	1172	n/a	n/a	0	0	0
4191.104	n/a	WORD	2095552	wordpools/wasnorm_wordpool_576.txt	LTP133	ltpFR2	21	16	SNAKE	1333	n/a	n/a	0	0	0
4193.53	n/a	WORD	2096765	wordpools/wasnorm_wordpool_576.txt	LTP133	ltpFR2	21	16	PLIERS	1089	n/a	n/a	0	0	0
4196.268	n/a	WORD	2098134	wordpools/wasnorm_wordpool_576.txt	LTP133	ltpFR2	21	16	CABIN	211	n/a	n/a	0	0	0
4198.732	n/a	WORD	2099366	wordpools/wasnorm_wordpool_576.txt	LTP133	ltpFR2	21	16	CLIMBER	323	n/a	n/a	0	0	0
4200.35	n/a	START	2100175	n/a	LTP133	ltpFR2	21	n/a	n/a	n/a	24	n/a	n/a	n/a	n/a
4201.234	n/a	DISTRACTOR	2100617	n/a	LTP133	ltpFR2	21	16	n/a	n/a	n/a	n/a	0	0	0
4201.242	n/a	PROB	2100621	n/a	LTP133	ltpFR2	21	n/a	n/a	n/a	24	14	9	4	1
4203.496	n/a	PROB	2101748	n/a	LTP133	ltpFR2	21	n/a	n/a	n/a	24	13	4	3	6
4204.918	n/a	PROB	2102459	n/a	LTP133	ltpFR2	21	n/a	n/a	n/a	24	19	2	9	8
4206.576	n/a	PROB	2103288	n/a	LTP133	ltpFR2	21	n/a	n/a	n/a	24	15	5	2	8
4208.068	n/a	PROB	2104034	n/a	LTP133	ltpFR2	21	n/a	n/a	n/a	24	14	7	2	5
4209.554	n/a	PROB	2104777	n/a	LTP133	ltpFR2	21	n/a	n/a	n/a	24	16	5	6	5
4210.758	n/a	PROB	2105379	n/a	LTP133	ltpFR2	21	n/a	n/a	n/a	24	14	2	8	4
4212.012	n/a	PROB	2106006	n/a	LTP133	ltpFR2	21	n/a	n/a	n/a	24	12	4	6	2
4213.67	n/a	PROB	2106835	n/a	LTP133	ltpFR2	21	n/a	n/a	n/a	24	20	7	9	4
4215.844	n/a	PROB	2107922	n/a	LTP133	ltpFR2	21	n/a	n/a	n/a	24	15	2	7	6
4216.93	n/a	PROB	2108465	n/a	LTP133	ltpFR2	21	n/a	n/a	n/a	24	16	8	7	1
4218.202	n/a	PROB	2109101	n/a	LTP133	ltpFR2	21	n/a	n/a	n/a	24	12	3	3	6
4219.492	n/a	PROB	2109746	n/a	LTP133	ltpFR2	21	n/a	n/a	n/a	24	8	3	3	2
4220.828	n/a	PROB	2110414	n/a	LTP133	ltpFR2	21	n/a	n/a	n/a	24	15	3	8	4
4222.05	n/a	PROB	2111025	n/a	LTP133	ltpFR2	21	n/a	n/a	n/a	24	20	4	8	8
4223.406	n/a	STOP	2111703	n/a	LTP133	ltpFR2	21	n/a	n/a	n/a	24	n/a	n/a	n/a	n/a
4226.206	n/a	REC_START	2113103	n/a	LTP133	ltpFR2	21	16	n/a	n/a	n/a	n/a	0	0	0
4228.342	n/a	REC_WORD	2114171	wordpools/wasnorm_wordpool_576.txt	LTP133	ltpFR2	21	16	CLIMBER	323	n/a	n/a	0	0	0
4229.136	n/a	REC_WORD	2114568	wordpools/wasnorm_wordpool_576.txt	LTP133	ltpFR2	21	16	CABIN	211	n/a	n/a	0	0	0
4230.494	n/a	REC_WORD	2115247	wordpools/wasnorm_wordpool_576.txt	LTP133	ltpFR2	21	16	PLIERS	1089	n/a	n/a	0	0	0
4234.068	n/a	REC_WORD	2117034	wordpools/wasnorm_wordpool_576.txt	LTP133	ltpFR2	21	16	WRENCH	1625	n/a	n/a	0	0	0
4235.08	n/a	REC_WORD	2117540	wordpools/wasnorm_wordpool_576.txt	LTP133	ltpFR2	21	16	GRILL	661	n/a	n/a	0	0	0
4242.074	n/a	REC_WORD	2121037	wordpools/wasnorm_wordpool_576.txt	LTP133	ltpFR2	21	16	CHAMPAGNE	278	n/a	n/a	0	0	0
4252.088	n/a	REC_WORD	2126044	wordpools/wasnorm_wordpool_576.txt	LTP133	ltpFR2	21	16	SNAKE	1333	n/a	n/a	0	0	0
4262.632	n/a	REC_WORD	2131316	wordpools/wasnorm_wordpool_576.txt	LTP133	ltpFR2	21	16	THRONE	1461	n/a	n/a	0	0	0
4263.9	n/a	REC_WORD	2131950	wordpools/wasnorm_wordpool_576.txt	LTP133	ltpFR2	21	16	LUMBER	848	n/a	n/a	0	0	0
4265.398	n/a	REC_WORD	2132699	wordpools/wasnorm_wordpool_576.txt	LTP133	ltpFR2	21	16	HERO	706	n/a	n/a	0	0	0
4302.998	n/a	REST_REWET	2151499	n/a	LTP133	ltpFR2	21	16	n/a	n/a	n/a	n/a	0	0	0
4707.008	n/a	WORD	2353504	wordpools/wasnorm_wordpool_576.txt	LTP133	ltpFR2	21	17	LACE	792	n/a	n/a	0	0	0
4709.486	n/a	WORD	2354743	wordpools/wasnorm_wordpool_576.txt	LTP133	ltpFR2	21	17	SKIRT	1319	n/a	n/a	0	0	0
4712.296	n/a	WORD	2356148	wordpools/wasnorm_wordpool_576.txt	LTP133	ltpFR2	21	17	PEANUT	1032	n/a	n/a	0	0	0
4714.868	n/a	WORD	2357434	wordpools/wasnorm_wordpool_576.txt	LTP133	ltpFR2	21	17	CATCHER	258	n/a	n/a	0	0	0
4717.666	n/a	WORD	2358833	wordpools/wasnorm_wordpool_576.txt	LTP133	ltpFR2	21	17	DUST	508	n/a	n/a	0	0	0
4720.46	n/a	WORD	2360230	wordpools/wasnorm_wordpool_576.txt	LTP133	ltpFR2	21	17	BOYFRIEND	162	n/a	n/a	0	0	0
4723.032	n/a	WORD	2361516	wordpools/wasnorm_wordpool_576.txt	LTP133	ltpFR2	21	17	CLAMP	316	n/a	n/a	0	0	0
4725.792	n/a	WORD	2362896	wordpools/wasnorm_wordpool_576.txt	LTP133	ltpFR2	21	17	ROCKET	1202	n/a	n/a	0	0	0
4728.424	n/a	WORD	2364212	wordpools/wasnorm_wordpool_576.txt	LTP133	ltpFR2	21	17	SPACE	1345	n/a	n/a	0	0	0
4731.1	n/a	WORD	2365550	wordpools/wasnorm_wordpool_576.txt	LTP133	ltpFR2	21	17	TABLE	1426	n/a	n/a	0	0	0
4733.862	n/a	WORD	2366931	wordpools/wasnorm_wordpool_576.txt	LTP133	ltpFR2	21	17	DRESSER	496	n/a	n/a	0	0	0
4736.384	n/a	WORD	2368192	wordpools/wasnorm_wordpool_576.txt	LTP133	ltpFR2	21	17	SERVER	1272	n/a	n/a	0	0	0
4738.896	n/a	WORD	2369448	wordpools/wasnorm_wordpool_576.txt	LTP133	ltpFR2	21	17	DUSTPAN	509	n/a	n/a	0	0	0
4741.39	n/a	WORD	2370695	wordpools/wasnorm_wordpool_576.txt	LTP133	ltpFR2	21	17	SOFTBALL	1343	n/a	n/a	0	0	0
4743.878	n/a	WORD	2371939	wordpools/wasnorm_wordpool_576.txt	LTP133	ltpFR2	21	17	XEROX	1628	n/a	n/a	0	0	0
