mstime	trial_type	stim_file	subject	experiment	session	trial	item_name	item_num	list	answer	test_x	test_y	test_z
0	SESS_START	n/a	LTP304	ltpFR2	12	n/a	n/a	n/a	n/a	n/a	0	0	0
9110	START	n/a	LTP304	ltpFR2	12	n/a	n/a	n/a	-1	n/a	n/a	n/a	n/a
9124	PROB	n/a	LTP304	ltpFR2	12	n/a	n/a	n/a	-1	14	2	8	4
11142	PROB	n/a	LTP304	ltpFR2	12	n/a	n/a	n/a	-1	14	6	4	4
12460	PROB	n/a	LTP304	ltpFR2	12	n/a	n/a	n/a	-1	10	1	4	5
13928	PROB	n/a	LTP304	ltpFR2	12	n/a	n/a	n/a	-1	16	3	8	5
16213	PROB	n/a	LTP304	ltpFR2	12	n/a	n/a	n/a	-1	18	5	5	8
17431	PROB	n/a	LTP304	ltpFR2	12	n/a	n/a	n/a	-1	21	9	4	8
21110	STOP	n/a	LTP304	ltpFR2	12	n/a	n/a	n/a	-1	n/a	n/a	n/a	n/a
42982	DISTRACTOR	n/a	LTP304	ltpFR2	12	1	n/a	n/a	n/a	n/a	0	0	0
42983	START	n/a	LTP304	ltpFR2	12	n/a	n/a	n/a	1	n/a	n/a	n/a	n/a
42996	PROB	n/a	LTP304	ltpFR2	12	n/a	n/a	n/a	1	16	2	7	7
44670	PROB	n/a	LTP304	ltpFR2	12	n/a	n/a	n/a	1	15	2	5	8
46320	PROB	n/a	LTP304	ltpFR2	12	n/a	n/a	n/a	1	18	9	6	3
47872	PROB	n/a	LTP304	ltpFR2	12	n/a	n/a	n/a	1	11	4	2	5
49440	PROB	n/a	LTP304	ltpFR2	12	n/a	n/a	n/a	1	13	3	8	2
51391	PROB	n/a	LTP304	ltpFR2	12	n/a	n/a	n/a	1	6	3	2	1
52694	PROB	n/a	LTP304	ltpFR2	12	n/a	n/a	n/a	1	8	1	5	2
54095	PROB	n/a	LTP304	ltpFR2	12	n/a	n/a	n/a	1	22	6	7	9
55847	PROB	n/a	LTP304	ltpFR2	12	n/a	n/a	n/a	1	15	5	2	8
57325	PROB	n/a	LTP304	ltpFR2	12	n/a	n/a	n/a	1	9	5	1	3
58699	PROB	n/a	LTP304	ltpFR2	12	n/a	n/a	n/a	1	20	4	7	9
60546	PROB	n/a	LTP304	ltpFR2	12	n/a	n/a	n/a	1	9	6	1	2
63349	PROB	n/a	LTP304	ltpFR2	12	n/a	n/a	n/a	1	14	7	7	2
64586	PROB	n/a	LTP304	ltpFR2	12	n/a	n/a	n/a	1	9	6	1	2
66193	STOP	n/a	LTP304	ltpFR2	12	n/a	n/a	n/a	1	n/a	n/a	n/a	n/a
67803	WORD	wordpools/wasnorm_wordpool_576.txt	LTP304	ltpFR2	12	1	PEANUT	1032	n/a	n/a	0	0	0
70489	WORD	wordpools/wasnorm_wordpool_576.txt	LTP304	ltpFR2	12	1	BROOK	177	n/a	n/a	0	0	0
73307	WORD	wordpools/wasnorm_wordpool_576.txt	LTP304	ltpFR2	12	1	MARKET	871	n/a	n/a	0	0	0
75843	WORD	wordpools/wasnorm_wordpool_576.txt	LTP304	ltpFR2	12	1	DOUGHNUT	490	n/a	n/a	0	0	0
78512	WORD	wordpools/wasnorm_wordpool_576.txt	LTP304	ltpFR2	12	1	LEG	809	n/a	n/a	0	0	0
80950	WORD	wordpools/wasnorm_wordpool_576.txt	LTP304	ltpFR2	12	1	MARSH	874	n/a	n/a	0	0	0
83734	WORD	wordpools/wasnorm_wordpool_576.txt	LTP304	ltpFR2	12	1	LAVA	804	n/a	n/a	0	0	0
86553	WORD	wordpools/wasnorm_wordpool_576.txt	LTP304	ltpFR2	12	1	ATOM	55	n/a	n/a	0	0	0
88988	WORD	wordpools/wasnorm_wordpool_576.txt	LTP304	ltpFR2	12	1	GUARD	667	n/a	n/a	0	0	0
91790	WORD	wordpools/wasnorm_wordpool_576.txt	LTP304	ltpFR2	12	1	ANKLE	24	n/a	n/a	0	0	0
94510	WORD	wordpools/wasnorm_wordpool_576.txt	LTP304	ltpFR2	12	1	SCARECROW	1245	n/a	n/a	0	0	0
97161	WORD	wordpools/wasnorm_wordpool_576.txt	LTP304	ltpFR2	12	1	MUFFIN	929	n/a	n/a	0	0	0
99631	WORD	wordpools/wasnorm_wordpool_576.txt	LTP304	ltpFR2	12	1	GYMNAST	675	n/a	n/a	0	0	0
102215	WORD	wordpools/wasnorm_wordpool_576.txt	LTP304	ltpFR2	12	1	CANAL	226	n/a	n/a	0	0	0
104786	WORD	wordpools/wasnorm_wordpool_576.txt	LTP304	ltpFR2	12	1	YACHT	1629	n/a	n/a	0	0	0
107604	WORD	wordpools/wasnorm_wordpool_576.txt	LTP304	ltpFR2	12	1	GLASS	639	n/a	n/a	0	0	0
110389	WORD	wordpools/wasnorm_wordpool_576.txt	LTP304	ltpFR2	12	1	CURTAIN	427	n/a	n/a	0	0	0
113074	WORD	wordpools/wasnorm_wordpool_576.txt	LTP304	ltpFR2	12	1	STONE	1385	n/a	n/a	0	0	0
115645	WORD	wordpools/wasnorm_wordpool_576.txt	LTP304	ltpFR2	12	1	PEBBLE	1035	n/a	n/a	0	0	0
118096	WORD	wordpools/wasnorm_wordpool_576.txt	LTP304	ltpFR2	12	1	RIFLE	1192	n/a	n/a	0	0	0
120748	WORD	wordpools/wasnorm_wordpool_576.txt	LTP304	ltpFR2	12	1	LADY	794	n/a	n/a	0	0	0
123233	WORD	wordpools/wasnorm_wordpool_576.txt	LTP304	ltpFR2	12	1	FLASK	576	n/a	n/a	0	0	0
126052	WORD	wordpools/wasnorm_wordpool_576.txt	LTP304	ltpFR2	12	1	LETTUCE	814	n/a	n/a	0	0	0
128839	WORD	wordpools/wasnorm_wordpool_576.txt	LTP304	ltpFR2	12	1	COLONEL	348	n/a	n/a	0	0	0
130456	START	n/a	LTP304	ltpFR2	12	n/a	n/a	n/a	2	n/a	n/a	n/a	n/a
131369	DISTRACTOR	n/a	LTP304	ltpFR2	12	1	n/a	n/a	n/a	n/a	0	0	0
131375	PROB	n/a	LTP304	ltpFR2	12	n/a	n/a	n/a	2	12	5	1	6
133240	PROB	n/a	LTP304	ltpFR2	12	n/a	n/a	n/a	2	21	9	7	5
135358	PROB	n/a	LTP304	ltpFR2	12	n/a	n/a	n/a	2	12	7	1	4
136694	PROB	n/a	LTP304	ltpFR2	12	n/a	n/a	n/a	2	25	9	8	8
138912	PROB	n/a	LTP304	ltpFR2	12	n/a	n/a	n/a	2	13	4	7	2
140680	PROB	n/a	LTP304	ltpFR2	12	n/a	n/a	n/a	2	13	8	1	4
142082	PROB	n/a	LTP304	ltpFR2	12	n/a	n/a	n/a	2	15	1	6	8
143483	PROB	n/a	LTP304	ltpFR2	12	n/a	n/a	n/a	2	10	2	6	2
144969	PROB	n/a	LTP304	ltpFR2	12	n/a	n/a	n/a	2	14	3	9	2
146534	PROB	n/a	LTP304	ltpFR2	12	n/a	n/a	n/a	2	20	4	7	9
148620	PROB	n/a	LTP304	ltpFR2	12	n/a	n/a	n/a	2	19	5	7	7
150203	PROB	n/a	LTP304	ltpFR2	12	n/a	n/a	n/a	2	13	5	6	1
151890	PROB	n/a	LTP304	ltpFR2	12	n/a	n/a	n/a	2	18	4	5	9
153950	STOP	n/a	LTP304	ltpFR2	12	n/a	n/a	n/a	2	n/a	n/a	n/a	n/a
156292	REC_START	n/a	LTP304	ltpFR2	12	1	n/a	n/a	n/a	n/a	0	0	0
156881	REC_WORD	wordpools/wasnorm_wordpool_576.txt	LTP304	ltpFR2	12	1	PEANUT	1032	n/a	n/a	0	0	0
157679	REC_WORD	wordpools/wasnorm_wordpool_576.txt	LTP304	ltpFR2	12	1	STREAM	1392	n/a	n/a	0	0	0
159063	REC_WORD	wordpools/wasnorm_wordpool_576.txt	LTP304	ltpFR2	12	1	MARKET	871	n/a	n/a	0	0	0
160100	REC_WORD	wordpools/wasnorm_wordpool_576.txt	LTP304	ltpFR2	12	1	DOUGHNUT	490	n/a	n/a	0	0	0
161159	REC_WORD	wordpools/wasnorm_wordpool_576.txt	LTP304	ltpFR2	12	1	MARKET	871	n/a	n/a	0	0	0
161968	REC_WORD	wordpools/wasnorm_wordpool_576.txt	LTP304	ltpFR2	12	1	LETTUCE	814	n/a	n/a	0	0	0
163669	REC_WORD	wordpools/wasnorm_wordpool_576.txt	LTP304	ltpFR2	12	1	MARSH	874	n/a	n/a	0	0	0
164524	REC_WORD	wordpools/wasnorm_wordpool_576.txt	LTP304	ltpFR2	12	1	LEG	809	n/a	n/a	0	0	0
165533	REC_WORD	wordpools/wasnorm_wordpool_576.txt	LTP304	ltpFR2	12	1	ANKLE	24	n/a	n/a	0	0	0
166275	REC_WORD	wordpools/wasnorm_wordpool_576.txt	LTP304	ltpFR2	12	1	GUARD	667	n/a	n/a	0	0	0
168098	REC_WORD	wordpools/wasnorm_wordpool_576.txt	LTP304	ltpFR2	12	1	ATOM	55	n/a	n/a	0	0	0
168827	REC_WORD	wordpools/wasnorm_wordpool_576.txt	LTP304	ltpFR2	12	1	LAVA	804	n/a	n/a	0	0	0
171970	REC_WORD	wordpools/wasnorm_wordpool_576.txt	LTP304	ltpFR2	12	1	GYMNAST	675	n/a	n/a	0	0	0
173480	REC_WORD	wordpools/wasnorm_wordpool_576.txt	LTP304	ltpFR2	12	1	YACHT	1629	n/a	n/a	0	0	0
174201	REC_WORD	wordpools/wasnorm_wordpool_576.txt	LTP304	ltpFR2	12	1	CURTAIN	427	n/a	n/a	0	0	0
175284	REC_WORD	wordpools/wasnorm_wordpool_576.txt	LTP304	ltpFR2	12	1	GLASS	639	n/a	n/a	0	0	0
176913	REC_WORD	wordpools/wasnorm_wordpool_576.txt	LTP304	ltpFR2	12	1	ROCK	1201	n/a	n/a	0	0	0
177464	REC_WORD	wordpools/wasnorm_wordpool_576.txt	LTP304	ltpFR2	12	1	PEBBLE	1035	n/a	n/a	0	0	0
177922	REC_WORD	wordpools/wasnorm_wordpool_576.txt	LTP304	ltpFR2	12	1	RIFLE	1192	n/a	n/a	0	0	0
178329	REC_WORD	wordpools/wasnorm_wordpool_576.txt	LTP304	ltpFR2	12	1	FLASK	576	n/a	n/a	0	0	0
179162	REC_WORD	wordpools/wasnorm_wordpool_576.txt	LTP304	ltpFR2	12	1	LADY	794	n/a	n/a	0	0	0
195429	REC_WORD	wordpools/wasnorm_wordpool_576.txt	LTP304	ltpFR2	12	1	CANAL	226	n/a	n/a	0	0	0
197707	REC_WORD	wordpools/wasnorm_wordpool_576.txt	LTP304	ltpFR2	12	1	MARSH	874	n/a	n/a	0	0	0
246732	WORD	wordpools/wasnorm_wordpool_576.txt	LTP304	ltpFR2	12	2	FINGER	567	n/a	n/a	0	0	0
249250	WORD	wordpools/wasnorm_wordpool_576.txt	LTP304	ltpFR2	12	2	ELBOW	520	n/a	n/a	0	0	0
251930	WORD	wordpools/wasnorm_wordpool_576.txt	LTP304	ltpFR2	12	2	MASK	876	n/a	n/a	0	0	0
254623	WORD	wordpools/wasnorm_wordpool_576.txt	LTP304	ltpFR2	12	2	PERMIT	1051	n/a	n/a	0	0	0
257158	WORD	wordpools/wasnorm_wordpool_576.txt	LTP304	ltpFR2	12	2	PLAZA	1088	n/a	n/a	0	0	0
259620	WORD	wordpools/wasnorm_wordpool_576.txt	LTP304	ltpFR2	12	2	TART	1436	n/a	n/a	0	0	0
262128	WORD	wordpools/wasnorm_wordpool_576.txt	LTP304	ltpFR2	12	2	ARMY	39	n/a	n/a	0	0	0
264675	WORD	wordpools/wasnorm_wordpool_576.txt	LTP304	ltpFR2	12	2	EYELASH	546	n/a	n/a	0	0	0
267393	WORD	wordpools/wasnorm_wordpool_576.txt	LTP304	ltpFR2	12	2	BEAST	108	n/a	n/a	0	0	0
269913	WORD	wordpools/wasnorm_wordpool_576.txt	LTP304	ltpFR2	12	2	STATUE	1374	n/a	n/a	0	0	0
272599	WORD	wordpools/wasnorm_wordpool_576.txt	LTP304	ltpFR2	12	2	JUGGLER	763	n/a	n/a	0	0	0
275183	WORD	wordpools/wasnorm_wordpool_576.txt	LTP304	ltpFR2	12	2	CASKET	255	n/a	n/a	0	0	0
277853	WORD	wordpools/wasnorm_wordpool_576.txt	LTP304	ltpFR2	12	2	TRACTOR	1493	n/a	n/a	0	0	0
280276	WORD	wordpools/wasnorm_wordpool_576.txt	LTP304	ltpFR2	12	2	VENUS	1557	n/a	n/a	0	0	0
282708	WORD	wordpools/wasnorm_wordpool_576.txt	LTP304	ltpFR2	12	2	TOMBSTONE	1478	n/a	n/a	0	0	0
285493	WORD	wordpools/wasnorm_wordpool_576.txt	LTP304	ltpFR2	12	2	SPACE	1345	n/a	n/a	0	0	0
288211	WORD	wordpools/wasnorm_wordpool_576.txt	LTP304	ltpFR2	12	2	TUBA	1515	n/a	n/a	0	0	0
290714	WORD	wordpools/wasnorm_wordpool_576.txt	LTP304	ltpFR2	12	2	TWEEZERS	1526	n/a	n/a	0	0	0
293236	WORD	wordpools/wasnorm_wordpool_576.txt	LTP304	ltpFR2	12	2	STAR	1373	n/a	n/a	0	0	0
295735	WORD	wordpools/wasnorm_wordpool_576.txt	LTP304	ltpFR2	12	2	RECORD	1176	n/a	n/a	0	0	0
298403	WORD	wordpools/wasnorm_wordpool_576.txt	LTP304	ltpFR2	12	2	PORTRAIT	1111	n/a	n/a	0	0	0
301055	WORD	wordpools/wasnorm_wordpool_576.txt	LTP304	ltpFR2	12	2	ASIA	46	n/a	n/a	0	0	0
303695	WORD	wordpools/wasnorm_wordpool_576.txt	LTP304	ltpFR2	12	2	POISON	1096	n/a	n/a	0	0	0
306331	WORD	wordpools/wasnorm_wordpool_576.txt	LTP304	ltpFR2	12	2	SNAKE	1333	n/a	n/a	0	0	0
307947	START	n/a	LTP304	ltpFR2	12	n/a	n/a	n/a	3	n/a	n/a	n/a	n/a
308891	DISTRACTOR	n/a	LTP304	ltpFR2	12	2	n/a	n/a	n/a	n/a	0	0	0
308897	PROB	n/a	LTP304	ltpFR2	12	n/a	n/a	n/a	3	14	8	1	5
311066	PROB	n/a	LTP304	ltpFR2	12	n/a	n/a	n/a	3	14	9	4	1
313469	PROB	n/a	LTP304	ltpFR2	12	n/a	n/a	n/a	3	8	3	1	4
314734	PROB	n/a	LTP304	ltpFR2	12	n/a	n/a	n/a	3	22	8	9	4
317086	PROB	n/a	LTP304	ltpFR2	12	n/a	n/a	n/a	3	8	6	1	1
318186	PROB	n/a	LTP304	ltpFR2	12	n/a	n/a	n/a	3	14	3	2	9
319788	PROB	n/a	LTP304	ltpFR2	12	n/a	n/a	n/a	3	12	2	1	9
322407	PROB	n/a	LTP304	ltpFR2	12	n/a	n/a	n/a	3	6	2	1	3
323979	PROB	n/a	LTP304	ltpFR2	12	n/a	n/a	n/a	3	18	4	7	7
325510	PROB	n/a	LTP304	ltpFR2	12	n/a	n/a	n/a	3	23	7	8	8
328378	PROB	n/a	LTP304	ltpFR2	12	n/a	n/a	n/a	3	19	4	8	7
331933	STOP	n/a	LTP304	ltpFR2	12	n/a	n/a	n/a	3	n/a	n/a	n/a	n/a
333921	REC_START	n/a	LTP304	ltpFR2	12	2	n/a	n/a	n/a	n/a	0	0	0
335775	REC_WORD	wordpools/wasnorm_wordpool_576.txt	LTP304	ltpFR2	12	2	FINGER	567	n/a	n/a	0	0	0
336961	REC_WORD	wordpools/wasnorm_wordpool_576.txt	LTP304	ltpFR2	12	2	ELBOW	520	n/a	n/a	0	0	0
337742	REC_WORD	wordpools/wasnorm_wordpool_576.txt	LTP304	ltpFR2	12	2	MASK	876	n/a	n/a	0	0	0
338621	REC_WORD	wordpools/wasnorm_wordpool_576.txt	LTP304	ltpFR2	12	2	PERMIT	1051	n/a	n/a	0	0	0
339555	REC_WORD	wordpools/wasnorm_wordpool_576.txt	LTP304	ltpFR2	12	2	PLAZA	1088	n/a	n/a	0	0	0
340379	REC_WORD	wordpools/wasnorm_wordpool_576.txt	LTP304	ltpFR2	12	2	ASIA	46	n/a	n/a	0	0	0
341692	REC_WORD	wordpools/wasnorm_wordpool_576.txt	LTP304	ltpFR2	12	2	ARMY	39	n/a	n/a	0	0	0
344730	REC_WORD	wordpools/wasnorm_wordpool_576.txt	LTP304	ltpFR2	12	2	TART	1436	n/a	n/a	0	0	0
346990	REC_WORD	wordpools/wasnorm_wordpool_576.txt	LTP304	ltpFR2	12	2	JUGGLER	763	n/a	n/a	0	0	0
347822	REC_WORD	wordpools/wasnorm_wordpool_576.txt	LTP304	ltpFR2	12	2	STATUE	1374	n/a	n/a	0	0	0
348756	REC_WORD	wordpools/wasnorm_wordpool_576.txt	LTP304	ltpFR2	12	2	CASKET	255	n/a	n/a	0	0	0
349616	REC_WORD	wordpools/wasnorm_wordpool_576.txt	LTP304	ltpFR2	12	2	TOMBSTONE	1478	n/a	n/a	0	0	0
350409	REC_WORD	wordpools/wasnorm_wordpool_576.txt	LTP304	ltpFR2	12	2	TRACTOR	1493	n/a	n/a	0	0	0
355314	REC_WORD	wordpools/wasnorm_wordpool_576.txt	LTP304	ltpFR2	12	2	TWEEZERS	1526	n/a	n/a	0	0	0
356055	REC_WORD	wordpools/wasnorm_wordpool_576.txt	LTP304	ltpFR2	12	2	RECORD	1176	n/a	n/a	0	0	0
356728	REC_WORD	wordpools/wasnorm_wordpool_576.txt	LTP304	ltpFR2	12	2	TUBA	1515	n/a	n/a	0	0	0
367192	REC_WORD	wordpools/wasnorm_wordpool_576.txt	LTP304	ltpFR2	12	2	VENUS	1557	n/a	n/a	0	0	0
371051	REC_WORD	wordpools/wasnorm_wordpool_576.txt	LTP304	ltpFR2	12	2	STAR	1373	n/a	n/a	0	0	0
372460	REC_WORD	wordpools/wasnorm_wordpool_576.txt	LTP304	ltpFR2	12	2	POISON	1096	n/a	n/a	0	0	0
372965	REC_WORD	wordpools/wasnorm_wordpool_576.txt	LTP304	ltpFR2	12	2	SNAKE	1333	n/a	n/a	0	0	0
375160	REC_WORD	wordpools/wasnorm_wordpool_576.txt	LTP304	ltpFR2	12	2	SPACE	1345	n/a	n/a	0	0	0
383173	REC_WORD	wordpools/wasnorm_wordpool_576.txt	LTP304	ltpFR2	12	2	EYELASH	546	n/a	n/a	0	0	0
390823	REC_WORD	wordpools/wasnorm_wordpool_576.txt	LTP304	ltpFR2	12	2	BEAST	108	n/a	n/a	0	0	0
424358	DISTRACTOR	n/a	LTP304	ltpFR2	12	3	n/a	n/a	n/a	n/a	0	0	0
424359	START	n/a	LTP304	ltpFR2	12	n/a	n/a	n/a	4	n/a	n/a	n/a	n/a
424375	PROB	n/a	LTP304	ltpFR2	12	n/a	n/a	n/a	4	18	3	6	9
425943	PROB	n/a	LTP304	ltpFR2	12	n/a	n/a	n/a	4	16	2	8	6
427227	PROB	n/a	LTP304	ltpFR2	12	n/a	n/a	n/a	4	22	4	9	8
429645	PROB	n/a	LTP304	ltpFR2	12	n/a	n/a	n/a	4	12	4	5	3
431329	PROB	n/a	LTP304	ltpFR2	12	n/a	n/a	n/a	4	17	7	5	5
432681	PROB	n/a	LTP304	ltpFR2	12	n/a	n/a	n/a	4	18	5	4	9
434465	PROB	n/a	LTP304	ltpFR2	12	n/a	n/a	n/a	4	22	7	7	8
437518	PROB	n/a	LTP304	ltpFR2	12	n/a	n/a	n/a	4	14	5	5	4
438688	PROB	n/a	LTP304	ltpFR2	12	n/a	n/a	n/a	4	18	8	3	7
439922	PROB	n/a	LTP304	ltpFR2	12	n/a	n/a	n/a	4	22	6	7	9
441857	PROB	n/a	LTP304	ltpFR2	12	n/a	n/a	n/a	4	19	8	7	4
444040	PROB	n/a	LTP304	ltpFR2	12	n/a	n/a	n/a	4	17	3	9	5
445825	PROB	n/a	LTP304	ltpFR2	12	n/a	n/a	n/a	4	15	6	4	5
446881	STOP	n/a	LTP304	ltpFR2	12	n/a	n/a	n/a	4	n/a	n/a	n/a	n/a
449218	WORD	wordpools/wasnorm_wordpool_576.txt	LTP304	ltpFR2	12	3	BRANCH	168	n/a	n/a	0	0	0
451721	WORD	wordpools/wasnorm_wordpool_576.txt	LTP304	ltpFR2	12	3	BISON	131	n/a	n/a	0	0	0
454165	WORD	wordpools/wasnorm_wordpool_576.txt	LTP304	ltpFR2	12	3	RAFT	1159	n/a	n/a	0	0	0
456702	WORD	wordpools/wasnorm_wordpool_576.txt	LTP304	ltpFR2	12	3	HEART	697	n/a	n/a	0	0	0
459294	WORD	wordpools/wasnorm_wordpool_576.txt	LTP304	ltpFR2	12	3	WINDOW	1611	n/a	n/a	0	0	0
461729	WORD	wordpools/wasnorm_wordpool_576.txt	LTP304	ltpFR2	12	3	BEAKER	104	n/a	n/a	0	0	0
464424	WORD	wordpools/wasnorm_wordpool_576.txt	LTP304	ltpFR2	12	3	NEUTRON	947	n/a	n/a	0	0	0
466976	WORD	wordpools/wasnorm_wordpool_576.txt	LTP304	ltpFR2	12	3	TURNIP	1521	n/a	n/a	0	0	0
469596	WORD	wordpools/wasnorm_wordpool_576.txt	LTP304	ltpFR2	12	3	SHERIFF	1284	n/a	n/a	0	0	0
472079	WORD	wordpools/wasnorm_wordpool_576.txt	LTP304	ltpFR2	12	3	MOTEL	919	n/a	n/a	0	0	0
474741	WORD	wordpools/wasnorm_wordpool_576.txt	LTP304	ltpFR2	12	3	BINDER	127	n/a	n/a	0	0	0
477284	WORD	wordpools/wasnorm_wordpool_576.txt	LTP304	ltpFR2	12	3	AIRPLANE	12	n/a	n/a	0	0	0
479795	WORD	wordpools/wasnorm_wordpool_576.txt	LTP304	ltpFR2	12	3	PIMPLE	1071	n/a	n/a	0	0	0
482564	WORD	wordpools/wasnorm_wordpool_576.txt	LTP304	ltpFR2	12	3	CITRUS	313	n/a	n/a	0	0	0
485332	WORD	wordpools/wasnorm_wordpool_576.txt	LTP304	ltpFR2	12	3	FOREHEAD	592	n/a	n/a	0	0	0
488068	WORD	wordpools/wasnorm_wordpool_576.txt	LTP304	ltpFR2	12	3	FRECKLE	602	n/a	n/a	0	0	0
490579	WORD	wordpools/wasnorm_wordpool_576.txt	LTP304	ltpFR2	12	3	TABLET	1427	n/a	n/a	0	0	0
493080	WORD	wordpools/wasnorm_wordpool_576.txt	LTP304	ltpFR2	12	3	KIDNEY	776	n/a	n/a	0	0	0
495860	WORD	wordpools/wasnorm_wordpool_576.txt	LTP304	ltpFR2	12	3	SPARROW	1347	n/a	n/a	0	0	0
498651	WORD	wordpools/wasnorm_wordpool_576.txt	LTP304	ltpFR2	12	3	LODGE	839	n/a	n/a	0	0	0
501430	WORD	wordpools/wasnorm_wordpool_576.txt	LTP304	ltpFR2	12	3	CANDY	230	n/a	n/a	0	0	0
503923	WORD	wordpools/wasnorm_wordpool_576.txt	LTP304	ltpFR2	12	3	MEAT	883	n/a	n/a	0	0	0
506351	WORD	wordpools/wasnorm_wordpool_576.txt	LTP304	ltpFR2	12	3	LIVER	833	n/a	n/a	0	0	0
508771	WORD	wordpools/wasnorm_wordpool_576.txt	LTP304	ltpFR2	12	3	FLIPPER	580	n/a	n/a	0	0	0
510379	START	n/a	LTP304	ltpFR2	12	n/a	n/a	n/a	5	n/a	n/a	n/a	n/a
511344	DISTRACTOR	n/a	LTP304	ltpFR2	12	3	n/a	n/a	n/a	n/a	0	0	0
511355	PROB	n/a	LTP304	ltpFR2	12	n/a	n/a	n/a	5	18	9	5	4
512862	PROB	n/a	LTP304	ltpFR2	12	n/a	n/a	n/a	5	19	8	7	4
515348	PROB	n/a	LTP304	ltpFR2	12	n/a	n/a	n/a	5	17	5	7	5
516734	PROB	n/a	LTP304	ltpFR2	12	n/a	n/a	n/a	5	15	2	7	6
519450	PROB	n/a	LTP304	ltpFR2	12	n/a	n/a	n/a	5	16	7	1	8
520902	PROB	n/a	LTP304	ltpFR2	12	n/a	n/a	n/a	5	16	6	5	5
522386	PROB	n/a	LTP304	ltpFR2	12	n/a	n/a	n/a	5	12	4	2	6
523838	PROB	n/a	LTP304	ltpFR2	12	n/a	n/a	n/a	5	18	1	9	8
525055	PROB	n/a	LTP304	ltpFR2	12	n/a	n/a	n/a	5	18	7	7	4
526490	PROB	n/a	LTP304	ltpFR2	12	n/a	n/a	n/a	5	14	6	5	3
528240	PROB	n/a	LTP304	ltpFR2	12	n/a	n/a	n/a	5	18	8	7	3
529510	PROB	n/a	LTP304	ltpFR2	12	n/a	n/a	n/a	5	16	9	4	3
531927	PROB	n/a	LTP304	ltpFR2	12	n/a	n/a	n/a	5	17	9	7	1
533741	STOP	n/a	LTP304	ltpFR2	12	n/a	n/a	n/a	5	n/a	n/a	n/a	n/a
536265	REC_START	n/a	LTP304	ltpFR2	12	3	n/a	n/a	n/a	n/a	0	0	0
537119	REC_WORD	wordpools/wasnorm_wordpool_576.txt	LTP304	ltpFR2	12	3	BISON	131	n/a	n/a	0	0	0
538838	REC_WORD	wordpools/wasnorm_wordpool_576.txt	LTP304	ltpFR2	12	3	BRANCH	168	n/a	n/a	0	0	0
539910	REC_WORD	wordpools/wasnorm_wordpool_576.txt	LTP304	ltpFR2	12	3	RAFT	1159	n/a	n/a	0	0	0
541960	REC_WORD	wordpools/wasnorm_wordpool_576.txt	LTP304	ltpFR2	12	3	WINDOW	1611	n/a	n/a	0	0	0
543590	REC_WORD	wordpools/wasnorm_wordpool_576.txt	LTP304	ltpFR2	12	3	MOTEL	919	n/a	n/a	0	0	0
546018	REC_WORD	wordpools/wasnorm_wordpool_576.txt	LTP304	ltpFR2	12	3	BEAKER	104	n/a	n/a	0	0	0
546593	REC_WORD	wordpools/wasnorm_wordpool_576.txt	LTP304	ltpFR2	12	3	NEUTRON	947	n/a	n/a	0	0	0
548054	REC_WORD	wordpools/wasnorm_wordpool_576.txt	LTP304	ltpFR2	12	3	TURNIP	1521	n/a	n/a	0	0	0
549886	REC_WORD	wordpools/wasnorm_wordpool_576.txt	LTP304	ltpFR2	12	3	CITRUS	313	n/a	n/a	0	0	0
551156	REC_WORD	wordpools/wasnorm_wordpool_576.txt	LTP304	ltpFR2	12	3	SHERIFF	1284	n/a	n/a	0	0	0
552181	REC_WORD	wordpools/wasnorm_wordpool_576.txt	LTP304	ltpFR2	12	3	BINDER	127	n/a	n/a	0	0	0
553280	REC_WORD	wordpools/wasnorm_wordpool_576.txt	LTP304	ltpFR2	12	3	TABLET	1427	n/a	n/a	0	0	0
555343	REC_WORD	wordpools/wasnorm_wordpool_576.txt	LTP304	ltpFR2	12	3	FOREHEAD	592	n/a	n/a	0	0	0
556041	REC_WORD	wordpools/wasnorm_wordpool_576.txt	LTP304	ltpFR2	12	3	PIMPLE	1071	n/a	n/a	0	0	0
556535	REC_WORD	wordpools/wasnorm_wordpool_576.txt	LTP304	ltpFR2	12	3	FRECKLE	602	n/a	n/a	0	0	0
559169	REC_WORD	wordpools/wasnorm_wordpool_576.txt	LTP304	ltpFR2	12	3	MEAT	883	n/a	n/a	0	0	0
560448	REC_WORD	wordpools/wasnorm_wordpool_576.txt	LTP304	ltpFR2	12	3	HEART	697	n/a	n/a	0	0	0
561174	REC_WORD	wordpools/wasnorm_wordpool_576.txt	LTP304	ltpFR2	12	3	LIVER	833	n/a	n/a	0	0	0
561810	REC_WORD	wordpools/wasnorm_wordpool_576.txt	LTP304	ltpFR2	12	3	KIDNEY	776	n/a	n/a	0	0	0
563522	REC_WORD	wordpools/wasnorm_wordpool_576.txt	LTP304	ltpFR2	12	3	CANDY	230	n/a	n/a	0	0	0
565704	REC_WORD	wordpools/wasnorm_wordpool_576.txt	LTP304	ltpFR2	12	3	SPARROW	1347	n/a	n/a	0	0	0
626722	DISTRACTOR	n/a	LTP304	ltpFR2	12	4	n/a	n/a	n/a	n/a	0	0	0
626722	START	n/a	LTP304	ltpFR2	12	n/a	n/a	n/a	6	n/a	n/a	n/a	n/a
626737	PROB	n/a	LTP304	ltpFR2	12	n/a	n/a	n/a	6	13	1	7	5
629490	PROB	n/a	LTP304	ltpFR2	12	n/a	n/a	n/a	6	19	3	8	8
631139	PROB	n/a	LTP304	ltpFR2	12	n/a	n/a	n/a	6	11	2	5	4
632908	PROB	n/a	LTP304	ltpFR2	12	n/a	n/a	n/a	6	11	1	2	8
634743	PROB	n/a	LTP304	ltpFR2	12	n/a	n/a	n/a	6	10	8	1	1
635978	PROB	n/a	LTP304	ltpFR2	12	n/a	n/a	n/a	6	21	6	9	6
638111	PROB	n/a	LTP304	ltpFR2	12	n/a	n/a	n/a	6	8	5	1	2
639531	PROB	n/a	LTP304	ltpFR2	12	n/a	n/a	n/a	6	18	3	8	7
641416	PROB	n/a	LTP304	ltpFR2	12	n/a	n/a	n/a	6	13	4	7	2
643466	PROB	n/a	LTP304	ltpFR2	12	n/a	n/a	n/a	6	21	6	9	6
645718	PROB	n/a	LTP304	ltpFR2	12	n/a	n/a	n/a	6	15	3	8	4
648203	PROB	n/a	LTP304	ltpFR2	12	n/a	n/a	n/a	6	9	1	6	2
649530	STOP	n/a	LTP304	ltpFR2	12	n/a	n/a	n/a	6	n/a	n/a	n/a	n/a
651658	WORD	wordpools/wasnorm_wordpool_576.txt	LTP304	ltpFR2	12	4	WARDROBE	1587	n/a	n/a	0	0	0
654364	WORD	wordpools/wasnorm_wordpool_576.txt	LTP304	ltpFR2	12	4	BUG	187	n/a	n/a	0	0	0
657011	WORD	wordpools/wasnorm_wordpool_576.txt	LTP304	ltpFR2	12	4	BLACKBOARD	133	n/a	n/a	0	0	0
659753	WORD	wordpools/wasnorm_wordpool_576.txt	LTP304	ltpFR2	12	4	POPCORN	1104	n/a	n/a	0	0	0
662416	WORD	wordpools/wasnorm_wordpool_576.txt	LTP304	ltpFR2	12	4	SHELTER	1282	n/a	n/a	0	0	0
665135	WORD	wordpools/wasnorm_wordpool_576.txt	LTP304	ltpFR2	12	4	DORM	488	n/a	n/a	0	0	0
667770	WORD	wordpools/wasnorm_wordpool_576.txt	LTP304	ltpFR2	12	4	BRACES	164	n/a	n/a	0	0	0
670422	WORD	wordpools/wasnorm_wordpool_576.txt	LTP304	ltpFR2	12	4	RIVER	1194	n/a	n/a	0	0	0
673124	WORD	wordpools/wasnorm_wordpool_576.txt	LTP304	ltpFR2	12	4	LEOPARD	812	n/a	n/a	0	0	0
675611	WORD	wordpools/wasnorm_wordpool_576.txt	LTP304	ltpFR2	12	4	COCOON	339	n/a	n/a	0	0	0
678278	WORD	wordpools/wasnorm_wordpool_576.txt	LTP304	ltpFR2	12	4	INMATE	738	n/a	n/a	0	0	0
680982	WORD	wordpools/wasnorm_wordpool_576.txt	LTP304	ltpFR2	12	4	DRAWING	494	n/a	n/a	0	0	0
683439	WORD	wordpools/wasnorm_wordpool_576.txt	LTP304	ltpFR2	12	4	LEADER	807	n/a	n/a	0	0	0
685908	WORD	wordpools/wasnorm_wordpool_576.txt	LTP304	ltpFR2	12	4	GARBAGE	622	n/a	n/a	0	0	0
688419	WORD	wordpools/wasnorm_wordpool_576.txt	LTP304	ltpFR2	12	4	TRUCK	1512	n/a	n/a	0	0	0
691106	WORD	wordpools/wasnorm_wordpool_576.txt	LTP304	ltpFR2	12	4	PERFUME	1049	n/a	n/a	0	0	0
693675	WORD	wordpools/wasnorm_wordpool_576.txt	LTP304	ltpFR2	12	4	SHARK	1275	n/a	n/a	0	0	0
696243	WORD	wordpools/wasnorm_wordpool_576.txt	LTP304	ltpFR2	12	4	SALMON	1227	n/a	n/a	0	0	0
698745	WORD	wordpools/wasnorm_wordpool_576.txt	LTP304	ltpFR2	12	4	POCKET	1093	n/a	n/a	0	0	0
701270	WORD	wordpools/wasnorm_wordpool_576.txt	LTP304	ltpFR2	12	4	OX	994	n/a	n/a	0	0	0
703790	WORD	wordpools/wasnorm_wordpool_576.txt	LTP304	ltpFR2	12	4	BRICK	172	n/a	n/a	0	0	0
706602	WORD	wordpools/wasnorm_wordpool_576.txt	LTP304	ltpFR2	12	4	TYPIST	1532	n/a	n/a	0	0	0
709311	WORD	wordpools/wasnorm_wordpool_576.txt	LTP304	ltpFR2	12	4	CLAM	315	n/a	n/a	0	0	0
711890	WORD	wordpools/wasnorm_wordpool_576.txt	LTP304	ltpFR2	12	4	FRAGRANCE	599	n/a	n/a	0	0	0
713500	START	n/a	LTP304	ltpFR2	12	n/a	n/a	n/a	7	n/a	n/a	n/a	n/a
714501	DISTRACTOR	n/a	LTP304	ltpFR2	12	4	n/a	n/a	n/a	n/a	0	0	0
714509	PROB	n/a	LTP304	ltpFR2	12	n/a	n/a	n/a	7	15	9	4	2
716391	PROB	n/a	LTP304	ltpFR2	12	n/a	n/a	n/a	7	9	4	1	4
717795	PROB	n/a	LTP304	ltpFR2	12	n/a	n/a	n/a	7	15	3	7	5
719210	PROB	n/a	LTP304	ltpFR2	12	n/a	n/a	n/a	7	18	4	6	8
720444	PROB	n/a	LTP304	ltpFR2	12	n/a	n/a	n/a	7	12	3	1	8
722430	PROB	n/a	LTP304	ltpFR2	12	n/a	n/a	n/a	7	13	7	3	3
723681	PROB	n/a	LTP304	ltpFR2	12	n/a	n/a	n/a	7	19	6	7	6
725333	PROB	n/a	LTP304	ltpFR2	12	n/a	n/a	n/a	7	22	9	9	4
726800	PROB	n/a	LTP304	ltpFR2	12	n/a	n/a	n/a	7	21	7	5	9
728870	PROB	n/a	LTP304	ltpFR2	12	n/a	n/a	n/a	7	20	8	4	8
730805	PROB	n/a	LTP304	ltpFR2	12	n/a	n/a	n/a	7	15	2	6	7
734324	PROB	n/a	LTP304	ltpFR2	12	n/a	n/a	n/a	7	7	1	1	5
735358	PROB	n/a	LTP304	ltpFR2	12	n/a	n/a	n/a	7	7	2	1	4
737028	STOP	n/a	LTP304	ltpFR2	12	n/a	n/a	n/a	7	n/a	n/a	n/a	n/a
739293	REC_START	n/a	LTP304	ltpFR2	12	4	n/a	n/a	n/a	n/a	0	0	0
742246	REC_WORD	wordpools/wasnorm_wordpool_576.txt	LTP304	ltpFR2	12	4	FRAGRANCE	599	n/a	n/a	0	0	0
743452	REC_WORD	wordpools/wasnorm_wordpool_576.txt	LTP304	ltpFR2	12	4	LEOPARD	812	n/a	n/a	0	0	0
744040	REC_WORD	wordpools/wasnorm_wordpool_576.txt	LTP304	ltpFR2	12	4	COCOON	339	n/a	n/a	0	0	0
744994	REC_WORD	wordpools/wasnorm_wordpool_576.txt	LTP304	ltpFR2	12	4	INMATE	738	n/a	n/a	0	0	0
745865	REC_WORD	wordpools/wasnorm_wordpool_576.txt	LTP304	ltpFR2	12	4	LEADER	807	n/a	n/a	0	0	0
746425	REC_WORD	wordpools/wasnorm_wordpool_576.txt	LTP304	ltpFR2	12	4	DRAWING	494	n/a	n/a	0	0	0
747028	REC_WORD	wordpools/wasnorm_wordpool_576.txt	LTP304	ltpFR2	12	4	GARBAGE	622	n/a	n/a	0	0	0
749734	REC_WORD	wordpools/wasnorm_wordpool_576.txt	LTP304	ltpFR2	12	4	TRUCK	1512	n/a	n/a	0	0	0
751268	REC_WORD	wordpools/wasnorm_wordpool_576.txt	LTP304	ltpFR2	12	4	SALMON	1227	n/a	n/a	0	0	0
752016	REC_WORD	wordpools/wasnorm_wordpool_576.txt	LTP304	ltpFR2	12	4	SHARK	1275	n/a	n/a	0	0	0
753004	REC_WORD	wordpools/wasnorm_wordpool_576.txt	LTP304	ltpFR2	12	4	POCKET	1093	n/a	n/a	0	0	0
753514	REC_WORD	wordpools/wasnorm_wordpool_576.txt	LTP304	ltpFR2	12	4	OX	994	n/a	n/a	0	0	0
755395	REC_WORD	wordpools/wasnorm_wordpool_576.txt	LTP304	ltpFR2	12	4	DORM	488	n/a	n/a	0	0	0
755857	REC_WORD	wordpools/wasnorm_wordpool_576.txt	LTP304	ltpFR2	12	4	WARDROBE	1587	n/a	n/a	0	0	0
756686	REC_WORD	wordpools/wasnorm_wordpool_576.txt	LTP304	ltpFR2	12	4	BUG	187	n/a	n/a	0	0	0
757169	REC_WORD	wordpools/wasnorm_wordpool_576.txt	LTP304	ltpFR2	12	4	POPCORN	1104	n/a	n/a	0	0	0
758159	REC_WORD	wordpools/wasnorm_wordpool_576.txt	LTP304	ltpFR2	12	4	BLACKBOARD	133	n/a	n/a	0	0	0
759455	REC_WORD	wordpools/wasnorm_wordpool_576.txt	LTP304	ltpFR2	12	4	SHELTER	1282	n/a	n/a	0	0	0
762104	REC_WORD	wordpools/wasnorm_wordpool_576.txt	LTP304	ltpFR2	12	4	BRACES	164	n/a	n/a	0	0	0
770786	REC_WORD	wordpools/wasnorm_wordpool_576.txt	LTP304	ltpFR2	12	4	TYPIST	1532	n/a	n/a	0	0	0
774042	REC_WORD	wordpools/wasnorm_wordpool_576.txt	LTP304	ltpFR2	12	4	CLAM	315	n/a	n/a	0	0	0
801627	REC_WORD_VV	wordpools/wasnorm_wordpool_576.txt	LTP304	ltpFR2	12	4	<>	-1	n/a	n/a	0	0	0
802319	REC_WORD	wordpools/wasnorm_wordpool_576.txt	LTP304	ltpFR2	12	4	BROOK	177	n/a	n/a	0	0	0
802830	REC_WORD	wordpools/wasnorm_wordpool_576.txt	LTP304	ltpFR2	12	4	STREAM	1392	n/a	n/a	0	0	0
803696	REC_WORD	wordpools/wasnorm_wordpool_576.txt	LTP304	ltpFR2	12	4	RIVER	1194	n/a	n/a	0	0	0
804604	REC_WORD_VV	wordpools/wasnorm_wordpool_576.txt	LTP304	ltpFR2	12	4	<>	-1	n/a	n/a	0	0	0
829751	DISTRACTOR	n/a	LTP304	ltpFR2	12	5	n/a	n/a	n/a	n/a	0	0	0
829751	START	n/a	LTP304	ltpFR2	12	n/a	n/a	n/a	8	n/a	n/a	n/a	n/a
829767	PROB	n/a	LTP304	ltpFR2	12	n/a	n/a	n/a	8	16	1	8	7
832151	PROB	n/a	LTP304	ltpFR2	12	n/a	n/a	n/a	8	13	4	3	6
834137	PROB	n/a	LTP304	ltpFR2	12	n/a	n/a	n/a	8	8	2	1	5
835505	PROB	n/a	LTP304	ltpFR2	12	n/a	n/a	n/a	8	13	3	6	4
836823	PROB	n/a	LTP304	ltpFR2	12	n/a	n/a	n/a	8	13	5	6	2
840174	PROB	n/a	LTP304	ltpFR2	12	n/a	n/a	n/a	8	22	8	9	5
842694	PROB	n/a	LTP304	ltpFR2	12	n/a	n/a	n/a	8	22	8	7	7
845746	PROB	n/a	LTP304	ltpFR2	12	n/a	n/a	n/a	8	12	6	1	5
847997	PROB	n/a	LTP304	ltpFR2	12	n/a	n/a	n/a	8	13	4	6	3
849198	PROB	n/a	LTP304	ltpFR2	12	n/a	n/a	n/a	8	22	7	6	9
851417	PROB	n/a	LTP304	ltpFR2	12	n/a	n/a	n/a	8	15	7	6	2
853129	STOP	n/a	LTP304	ltpFR2	12	n/a	n/a	n/a	8	n/a	n/a	n/a	n/a
854687	WORD	wordpools/wasnorm_wordpool_576.txt	LTP304	ltpFR2	12	5	EXPERT	543	n/a	n/a	0	0	0
857372	WORD	wordpools/wasnorm_wordpool_576.txt	LTP304	ltpFR2	12	5	SHORTCAKE	1292	n/a	n/a	0	0	0
859842	WORD	wordpools/wasnorm_wordpool_576.txt	LTP304	ltpFR2	12	5	MARKER	870	n/a	n/a	0	0	0
862461	WORD	wordpools/wasnorm_wordpool_576.txt	LTP304	ltpFR2	12	5	THIEF	1456	n/a	n/a	0	0	0
864946	WORD	wordpools/wasnorm_wordpool_576.txt	LTP304	ltpFR2	12	5	GRAVE	658	n/a	n/a	0	0	0
867715	WORD	wordpools/wasnorm_wordpool_576.txt	LTP304	ltpFR2	12	5	LIPSTICK	829	n/a	n/a	0	0	0
870149	WORD	wordpools/wasnorm_wordpool_576.txt	LTP304	ltpFR2	12	5	ROBBER	1197	n/a	n/a	0	0	0
872802	WORD	wordpools/wasnorm_wordpool_576.txt	LTP304	ltpFR2	12	5	SCOTCH	1251	n/a	n/a	0	0	0
875286	WORD	wordpools/wasnorm_wordpool_576.txt	LTP304	ltpFR2	12	5	CHAMPAGNE	278	n/a	n/a	0	0	0
878022	WORD	wordpools/wasnorm_wordpool_576.txt	LTP304	ltpFR2	12	5	BANJO	82	n/a	n/a	0	0	0
880441	WORD	wordpools/wasnorm_wordpool_576.txt	LTP304	ltpFR2	12	5	CONCERT	360	n/a	n/a	0	0	0
883013	WORD	wordpools/wasnorm_wordpool_576.txt	LTP304	ltpFR2	12	5	BIKE	125	n/a	n/a	0	0	0
885480	WORD	wordpools/wasnorm_wordpool_576.txt	LTP304	ltpFR2	12	5	TROMBONE	1508	n/a	n/a	0	0	0
888281	WORD	wordpools/wasnorm_wordpool_576.txt	LTP304	ltpFR2	12	5	BASEMENT	94	n/a	n/a	0	0	0
890734	WORD	wordpools/wasnorm_wordpool_576.txt	LTP304	ltpFR2	12	5	DANCER	437	n/a	n/a	0	0	0
893451	WORD	wordpools/wasnorm_wordpool_576.txt	LTP304	ltpFR2	12	5	GAZELLE	628	n/a	n/a	0	0	0
896070	WORD	wordpools/wasnorm_wordpool_576.txt	LTP304	ltpFR2	12	5	JEANS	752	n/a	n/a	0	0	0
898828	WORD	wordpools/wasnorm_wordpool_576.txt	LTP304	ltpFR2	12	5	SHORTS	1293	n/a	n/a	0	0	0
901559	WORD	wordpools/wasnorm_wordpool_576.txt	LTP304	ltpFR2	12	5	GIRL	637	n/a	n/a	0	0	0
904126	WORD	wordpools/wasnorm_wordpool_576.txt	LTP304	ltpFR2	12	5	HIGHWAY	707	n/a	n/a	0	0	0
906768	WORD	wordpools/wasnorm_wordpool_576.txt	LTP304	ltpFR2	12	5	SIDEWALK	1303	n/a	n/a	0	0	0
909253	WORD	wordpools/wasnorm_wordpool_576.txt	LTP304	ltpFR2	12	5	CHIPMUNK	304	n/a	n/a	0	0	0
912033	WORD	wordpools/wasnorm_wordpool_576.txt	LTP304	ltpFR2	12	5	COTTAGE	384	n/a	n/a	0	0	0
914736	WORD	wordpools/wasnorm_wordpool_576.txt	LTP304	ltpFR2	12	5	CELLAR	267	n/a	n/a	0	0	0
916342	START	n/a	LTP304	ltpFR2	12	n/a	n/a	n/a	9	n/a	n/a	n/a	n/a
917182	DISTRACTOR	n/a	LTP304	ltpFR2	12	5	n/a	n/a	n/a	n/a	0	0	0
917187	PROB	n/a	LTP304	ltpFR2	12	n/a	n/a	n/a	9	17	1	8	8
919288	PROB	n/a	LTP304	ltpFR2	12	n/a	n/a	n/a	9	19	7	9	3
921072	PROB	n/a	LTP304	ltpFR2	12	n/a	n/a	n/a	9	15	3	9	3
923041	PROB	n/a	LTP304	ltpFR2	12	n/a	n/a	n/a	9	24	6	9	9
924960	PROB	n/a	LTP304	ltpFR2	12	n/a	n/a	n/a	9	16	8	2	6
926694	PROB	n/a	LTP304	ltpFR2	12	n/a	n/a	n/a	9	17	1	8	8
928311	PROB	n/a	LTP304	ltpFR2	12	n/a	n/a	n/a	9	12	2	8	2
929515	PROB	n/a	LTP304	ltpFR2	12	n/a	n/a	n/a	9	21	6	6	9
931081	PROB	n/a	LTP304	ltpFR2	12	n/a	n/a	n/a	9	18	1	9	8
932214	PROB	n/a	LTP304	ltpFR2	12	n/a	n/a	n/a	9	13	9	2	2
934050	PROB	n/a	LTP304	ltpFR2	12	n/a	n/a	n/a	9	23	7	8	8
936119	PROB	n/a	LTP304	ltpFR2	12	n/a	n/a	n/a	9	17	3	9	5
940342	STOP	n/a	LTP304	ltpFR2	12	n/a	n/a	n/a	9	n/a	n/a	n/a	n/a
942175	REC_START	n/a	LTP304	ltpFR2	12	5	n/a	n/a	n/a	n/a	0	0	0
945905	REC_WORD	wordpools/wasnorm_wordpool_576.txt	LTP304	ltpFR2	12	5	CELLAR	267	n/a	n/a	0	0	0
946594	REC_WORD	wordpools/wasnorm_wordpool_576.txt	LTP304	ltpFR2	12	5	BASEMENT	94	n/a	n/a	0	0	0
947277	REC_WORD	wordpools/wasnorm_wordpool_576.txt	LTP304	ltpFR2	12	5	HIGHWAY	707	n/a	n/a	0	0	0
948069	REC_WORD	wordpools/wasnorm_wordpool_576.txt	LTP304	ltpFR2	12	5	SIDEWALK	1303	n/a	n/a	0	0	0
949288	REC_WORD	wordpools/wasnorm_wordpool_576.txt	LTP304	ltpFR2	12	5	DANCER	437	n/a	n/a	0	0	0
949888	REC_WORD	wordpools/wasnorm_wordpool_576.txt	LTP304	ltpFR2	12	5	GIRL	637	n/a	n/a	0	0	0
950383	REC_WORD	wordpools/wasnorm_wordpool_576.txt	LTP304	ltpFR2	12	5	GAZELLE	628	n/a	n/a	0	0	0
956915	REC_WORD	wordpools/wasnorm_wordpool_576.txt	LTP304	ltpFR2	12	5	SHORTCAKE	1292	n/a	n/a	0	0	0
957697	REC_WORD	wordpools/wasnorm_wordpool_576.txt	LTP304	ltpFR2	12	5	EXPERT	543	n/a	n/a	0	0	0
959805	REC_WORD	wordpools/wasnorm_wordpool_576.txt	LTP304	ltpFR2	12	5	LIPSTICK	829	n/a	n/a	0	0	0
960517	REC_WORD	wordpools/wasnorm_wordpool_576.txt	LTP304	ltpFR2	12	5	MARKER	870	n/a	n/a	0	0	0
961470	REC_WORD	wordpools/wasnorm_wordpool_576.txt	LTP304	ltpFR2	12	5	THIEF	1456	n/a	n/a	0	0	0
962981	REC_WORD	wordpools/wasnorm_wordpool_576.txt	LTP304	ltpFR2	12	5	ROBBER	1197	n/a	n/a	0	0	0
964014	REC_WORD	wordpools/wasnorm_wordpool_576.txt	LTP304	ltpFR2	12	5	BIKE	125	n/a	n/a	0	0	0
964797	REC_WORD	wordpools/wasnorm_wordpool_576.txt	LTP304	ltpFR2	12	5	GRAVE	658	n/a	n/a	0	0	0
967512	REC_WORD	wordpools/wasnorm_wordpool_576.txt	LTP304	ltpFR2	12	5	TUBA	1515	n/a	n/a	0	0	0
969608	REC_WORD	wordpools/wasnorm_wordpool_576.txt	LTP304	ltpFR2	12	5	BANJO	82	n/a	n/a	0	0	0
972092	REC_WORD	wordpools/wasnorm_wordpool_576.txt	LTP304	ltpFR2	12	5	TROMBONE	1508	n/a	n/a	0	0	0
974556	REC_WORD	wordpools/wasnorm_wordpool_576.txt	LTP304	ltpFR2	12	5	CONCERT	360	n/a	n/a	0	0	0
975323	REC_WORD	wordpools/wasnorm_wordpool_576.txt	LTP304	ltpFR2	12	5	GRAVE	658	n/a	n/a	0	0	0
980862	REC_WORD	wordpools/wasnorm_wordpool_576.txt	LTP304	ltpFR2	12	5	CHIPMUNK	304	n/a	n/a	0	0	0
1002696	REC_WORD	wordpools/wasnorm_wordpool_576.txt	LTP304	ltpFR2	12	5	CHAMPAGNE	278	n/a	n/a	0	0	0
1003351	REC_WORD_VV	wordpools/wasnorm_wordpool_576.txt	LTP304	ltpFR2	12	5	<>	-1	n/a	n/a	0	0	0
1006581	REC_WORD_VV	wordpools/wasnorm_wordpool_576.txt	LTP304	ltpFR2	12	5	<>	-1	n/a	n/a	0	0	0
1032614	DISTRACTOR	n/a	LTP304	ltpFR2	12	6	n/a	n/a	n/a	n/a	0	0	0
1032614	START	n/a	LTP304	ltpFR2	12	n/a	n/a	n/a	10	n/a	n/a	n/a	n/a
1032631	PROB	n/a	LTP304	ltpFR2	12	n/a	n/a	n/a	10	16	6	8	2
1034130	PROB	n/a	LTP304	ltpFR2	12	n/a	n/a	n/a	10	15	1	9	5
1035262	PROB	n/a	LTP304	ltpFR2	12	n/a	n/a	n/a	10	20	4	7	9
1037415	PROB	n/a	LTP304	ltpFR2	12	n/a	n/a	n/a	10	16	8	4	4
1039048	PROB	n/a	LTP304	ltpFR2	12	n/a	n/a	n/a	10	13	4	3	6
1040850	PROB	n/a	LTP304	ltpFR2	12	n/a	n/a	n/a	10	15	5	3	7
1042067	PROB	n/a	LTP304	ltpFR2	12	n/a	n/a	n/a	10	22	7	6	9
1043985	PROB	n/a	LTP304	ltpFR2	12	n/a	n/a	n/a	10	16	3	6	7
1045436	PROB	n/a	LTP304	ltpFR2	12	n/a	n/a	n/a	10	23	9	6	8
1048510	PROB	n/a	LTP304	ltpFR2	12	n/a	n/a	n/a	10	20	6	5	9
1051961	PROB	n/a	LTP304	ltpFR2	12	n/a	n/a	n/a	10	11	4	3	4
1054797	PROB	n/a	LTP304	ltpFR2	12	n/a	n/a	n/a	10	17	8	2	7
1056041	STOP	n/a	LTP304	ltpFR2	12	n/a	n/a	n/a	10	n/a	n/a	n/a	n/a
1057516	WORD	wordpools/wasnorm_wordpool_576.txt	LTP304	ltpFR2	12	6	SUITCASE	1403	n/a	n/a	0	0	0
1060134	WORD	wordpools/wasnorm_wordpool_576.txt	LTP304	ltpFR2	12	6	BREAST	171	n/a	n/a	0	0	0
1062603	WORD	wordpools/wasnorm_wordpool_576.txt	LTP304	ltpFR2	12	6	TUTU	1524	n/a	n/a	0	0	0
1065155	WORD	wordpools/wasnorm_wordpool_576.txt	LTP304	ltpFR2	12	6	PALACE	1006	n/a	n/a	0	0	0
1067775	WORD	wordpools/wasnorm_wordpool_576.txt	LTP304	ltpFR2	12	6	PROTON	1132	n/a	n/a	0	0	0
1070243	WORD	wordpools/wasnorm_wordpool_576.txt	LTP304	ltpFR2	12	6	FEMALE	559	n/a	n/a	0	0	0
1072929	WORD	wordpools/wasnorm_wordpool_576.txt	LTP304	ltpFR2	12	6	CIGAR	308	n/a	n/a	0	0	0
1075749	WORD	wordpools/wasnorm_wordpool_576.txt	LTP304	ltpFR2	12	6	EMPIRE	530	n/a	n/a	0	0	0
1078567	WORD	wordpools/wasnorm_wordpool_576.txt	LTP304	ltpFR2	12	6	SLIME	1327	n/a	n/a	0	0	0
1081069	WORD	wordpools/wasnorm_wordpool_576.txt	LTP304	ltpFR2	12	6	SALAD	1224	n/a	n/a	0	0	0
1083821	WORD	wordpools/wasnorm_wordpool_576.txt	LTP304	ltpFR2	12	6	CRATER	400	n/a	n/a	0	0	0
1086373	WORD	wordpools/wasnorm_wordpool_576.txt	LTP304	ltpFR2	12	6	BUNNY	198	n/a	n/a	0	0	0
1089024	WORD	wordpools/wasnorm_wordpool_576.txt	LTP304	ltpFR2	12	6	CARROT	249	n/a	n/a	0	0	0
1091729	WORD	wordpools/wasnorm_wordpool_576.txt	LTP304	ltpFR2	12	6	FRIAR	605	n/a	n/a	0	0	0
1094547	WORD	wordpools/wasnorm_wordpool_576.txt	LTP304	ltpFR2	12	6	PASSAGE	1019	n/a	n/a	0	0	0
1097116	WORD	wordpools/wasnorm_wordpool_576.txt	LTP304	ltpFR2	12	6	RAZOR	1171	n/a	n/a	0	0	0
1099718	WORD	wordpools/wasnorm_wordpool_576.txt	LTP304	ltpFR2	12	6	DOLPHIN	483	n/a	n/a	0	0	0
1102336	WORD	wordpools/wasnorm_wordpool_576.txt	LTP304	ltpFR2	12	6	COUNTRY	388	n/a	n/a	0	0	0
1105104	WORD	wordpools/wasnorm_wordpool_576.txt	LTP304	ltpFR2	12	6	REPORT	1184	n/a	n/a	0	0	0
1107741	WORD	wordpools/wasnorm_wordpool_576.txt	LTP304	ltpFR2	12	6	PLUTO	1092	n/a	n/a	0	0	0
1110325	WORD	wordpools/wasnorm_wordpool_576.txt	LTP304	ltpFR2	12	6	TRENCH	1503	n/a	n/a	0	0	0
1112845	WORD	wordpools/wasnorm_wordpool_576.txt	LTP304	ltpFR2	12	6	LUGGAGE	847	n/a	n/a	0	0	0
1115517	WORD	wordpools/wasnorm_wordpool_576.txt	LTP304	ltpFR2	12	6	STUDENT	1395	n/a	n/a	0	0	0
1118265	WORD	wordpools/wasnorm_wordpool_576.txt	LTP304	ltpFR2	12	6	NOTEBOOK	959	n/a	n/a	0	0	0
1119872	START	n/a	LTP304	ltpFR2	12	n/a	n/a	n/a	11	n/a	n/a	n/a	n/a
1121030	DISTRACTOR	n/a	LTP304	ltpFR2	12	6	n/a	n/a	n/a	n/a	0	0	0
1121037	PROB	n/a	LTP304	ltpFR2	12	n/a	n/a	n/a	11	7	3	2	2
1122802	PROB	n/a	LTP304	ltpFR2	12	n/a	n/a	n/a	11	20	8	9	2
1125304	PROB	n/a	LTP304	ltpFR2	12	n/a	n/a	n/a	11	22	9	4	9
1128105	PROB	n/a	LTP304	ltpFR2	12	n/a	n/a	n/a	11	19	7	3	9
1129356	PROB	n/a	LTP304	ltpFR2	12	n/a	n/a	n/a	11	22	7	6	9
1132442	PROB	n/a	LTP304	ltpFR2	12	n/a	n/a	n/a	11	17	3	6	8
1134444	PROB	n/a	LTP304	ltpFR2	12	n/a	n/a	n/a	11	19	9	2	8
1137347	PROB	n/a	LTP304	ltpFR2	12	n/a	n/a	n/a	11	18	9	3	6
1138748	PROB	n/a	LTP304	ltpFR2	12	n/a	n/a	n/a	11	21	9	9	9
1140131	PROB	n/a	LTP304	ltpFR2	12	n/a	n/a	n/a	11	6	2	2	2
1142428	STOP	n/a	LTP304	ltpFR2	12	n/a	n/a	n/a	11	n/a	n/a	n/a	n/a
1145720	REC_START	n/a	LTP304	ltpFR2	12	6	n/a	n/a	n/a	n/a	0	0	0
1148309	REC_WORD	wordpools/wasnorm_wordpool_576.txt	LTP304	ltpFR2	12	6	BRIEFCASE	175	n/a	n/a	0	0	0
1149039	REC_WORD	wordpools/wasnorm_wordpool_576.txt	LTP304	ltpFR2	12	6	LUGGAGE	847	n/a	n/a	0	0	0
1149653	REC_WORD	wordpools/wasnorm_wordpool_576.txt	LTP304	ltpFR2	12	6	SUITCASE	1403	n/a	n/a	0	0	0
1150861	REC_WORD	wordpools/wasnorm_wordpool_576.txt	LTP304	ltpFR2	12	6	TUTU	1524	n/a	n/a	0	0	0
1151432	REC_WORD	wordpools/wasnorm_wordpool_576.txt	LTP304	ltpFR2	12	6	BREAST	171	n/a	n/a	0	0	0
1153221	REC_WORD	wordpools/wasnorm_wordpool_576.txt	LTP304	ltpFR2	12	6	PROTON	1132	n/a	n/a	0	0	0
1155011	REC_WORD	wordpools/wasnorm_wordpool_576.txt	LTP304	ltpFR2	12	6	EMPIRE	530	n/a	n/a	0	0	0
1156241	REC_WORD	wordpools/wasnorm_wordpool_576.txt	LTP304	ltpFR2	12	6	PALACE	1006	n/a	n/a	0	0	0
1164866	REC_WORD	wordpools/wasnorm_wordpool_576.txt	LTP304	ltpFR2	12	6	SLIME	1327	n/a	n/a	0	0	0
1166844	REC_WORD	wordpools/wasnorm_wordpool_576.txt	LTP304	ltpFR2	12	6	SALAD	1224	n/a	n/a	0	0	0
1168341	REC_WORD	wordpools/wasnorm_wordpool_576.txt	LTP304	ltpFR2	12	6	BUNNY	198	n/a	n/a	0	0	0
1168760	REC_WORD	wordpools/wasnorm_wordpool_576.txt	LTP304	ltpFR2	12	6	CARROT	249	n/a	n/a	0	0	0
1170276	REC_WORD	wordpools/wasnorm_wordpool_576.txt	LTP304	ltpFR2	12	6	FRIAR	605	n/a	n/a	0	0	0
1170965	REC_WORD	wordpools/wasnorm_wordpool_576.txt	LTP304	ltpFR2	12	6	PASSAGE	1019	n/a	n/a	0	0	0
1179627	REC_WORD	wordpools/wasnorm_wordpool_576.txt	LTP304	ltpFR2	12	6	REPORT	1184	n/a	n/a	0	0	0
1180193	REC_WORD	wordpools/wasnorm_wordpool_576.txt	LTP304	ltpFR2	12	6	STUDENT	1395	n/a	n/a	0	0	0
1181001	REC_WORD	wordpools/wasnorm_wordpool_576.txt	LTP304	ltpFR2	12	6	NOTEBOOK	959	n/a	n/a	0	0	0
1190791	REC_WORD	wordpools/wasnorm_wordpool_576.txt	LTP304	ltpFR2	12	6	PLUTO	1092	n/a	n/a	0	0	0
1202606	REC_WORD	wordpools/wasnorm_wordpool_576.txt	LTP304	ltpFR2	12	6	GIRL	637	n/a	n/a	0	0	0
1210110	REC_WORD_VV	wordpools/wasnorm_wordpool_576.txt	LTP304	ltpFR2	12	6	<>	-1	n/a	n/a	0	0	0
1210430	REC_WORD	wordpools/wasnorm_wordpool_576.txt	LTP304	ltpFR2	12	6	DOLPHIN	483	n/a	n/a	0	0	0
1210924	REC_WORD	wordpools/wasnorm_wordpool_576.txt	LTP304	ltpFR2	12	6	RAZOR	1171	n/a	n/a	0	0	0
1213965	REC_WORD	wordpools/wasnorm_wordpool_576.txt	LTP304	ltpFR2	12	6	COUNTRY	388	n/a	n/a	0	0	0
1236143	DISTRACTOR	n/a	LTP304	ltpFR2	12	7	n/a	n/a	n/a	n/a	0	0	0
1236143	START	n/a	LTP304	ltpFR2	12	n/a	n/a	n/a	12	n/a	n/a	n/a	n/a
1236159	PROB	n/a	LTP304	ltpFR2	12	n/a	n/a	n/a	12	14	2	6	6
1237494	PROB	n/a	LTP304	ltpFR2	12	n/a	n/a	n/a	12	11	3	5	3
1239278	PROB	n/a	LTP304	ltpFR2	12	n/a	n/a	n/a	12	13	6	5	4
1240996	PROB	n/a	LTP304	ltpFR2	12	n/a	n/a	n/a	12	11	2	5	4
1243717	PROB	n/a	LTP304	ltpFR2	12	n/a	n/a	n/a	12	25	9	9	7
1247051	PROB	n/a	LTP304	ltpFR2	12	n/a	n/a	n/a	12	14	9	2	3
1248803	PROB	n/a	LTP304	ltpFR2	12	n/a	n/a	n/a	12	13	5	6	2
1250538	PROB	n/a	LTP304	ltpFR2	12	n/a	n/a	n/a	12	15	2	5	8
1252072	PROB	n/a	LTP304	ltpFR2	12	n/a	n/a	n/a	12	9	1	4	4
1253557	PROB	n/a	LTP304	ltpFR2	12	n/a	n/a	n/a	12	16	4	3	9
1255375	PROB	n/a	LTP304	ltpFR2	12	n/a	n/a	n/a	12	15	2	4	9
1257093	PROB	n/a	LTP304	ltpFR2	12	n/a	n/a	n/a	12	12	3	6	3
1259906	STOP	n/a	LTP304	ltpFR2	12	n/a	n/a	n/a	12	n/a	n/a	n/a	n/a
1261214	WORD	wordpools/wasnorm_wordpool_576.txt	LTP304	ltpFR2	12	7	COD	340	n/a	n/a	0	0	0
1263896	WORD	wordpools/wasnorm_wordpool_576.txt	LTP304	ltpFR2	12	7	SCALLOP	1242	n/a	n/a	0	0	0
1266585	WORD	wordpools/wasnorm_wordpool_576.txt	LTP304	ltpFR2	12	7	PACKAGE	997	n/a	n/a	0	0	0
1269049	WORD	wordpools/wasnorm_wordpool_576.txt	LTP304	ltpFR2	12	7	GHETTO	633	n/a	n/a	0	0	0
1271553	WORD	wordpools/wasnorm_wordpool_576.txt	LTP304	ltpFR2	12	7	MEDAL	885	n/a	n/a	0	0	0
1274120	WORD	wordpools/wasnorm_wordpool_576.txt	LTP304	ltpFR2	12	7	GANGSTER	620	n/a	n/a	0	0	0
1276693	WORD	wordpools/wasnorm_wordpool_576.txt	LTP304	ltpFR2	12	7	GRIZZLY	662	n/a	n/a	0	0	0
1279191	WORD	wordpools/wasnorm_wordpool_576.txt	LTP304	ltpFR2	12	7	WOMAN	1620	n/a	n/a	0	0	0
1281945	WORD	wordpools/wasnorm_wordpool_576.txt	LTP304	ltpFR2	12	7	WIDOW	1608	n/a	n/a	0	0	0
1284432	WORD	wordpools/wasnorm_wordpool_576.txt	LTP304	ltpFR2	12	7	JUDGE	761	n/a	n/a	0	0	0
1286950	WORD	wordpools/wasnorm_wordpool_576.txt	LTP304	ltpFR2	12	7	FLAG	573	n/a	n/a	0	0	0
1289602	WORD	wordpools/wasnorm_wordpool_576.txt	LTP304	ltpFR2	12	7	PECAN	1036	n/a	n/a	0	0	0
1292436	WORD	wordpools/wasnorm_wordpool_576.txt	LTP304	ltpFR2	12	7	DONOR	485	n/a	n/a	0	0	0
1295105	WORD	wordpools/wasnorm_wordpool_576.txt	LTP304	ltpFR2	12	7	REBEL	1172	n/a	n/a	0	0	0
1297909	WORD	wordpools/wasnorm_wordpool_576.txt	LTP304	ltpFR2	12	7	SAUSAGE	1238	n/a	n/a	0	0	0
1300410	WORD	wordpools/wasnorm_wordpool_576.txt	LTP304	ltpFR2	12	7	SALT	1229	n/a	n/a	0	0	0
1302980	WORD	wordpools/wasnorm_wordpool_576.txt	LTP304	ltpFR2	12	7	FLESH	579	n/a	n/a	0	0	0
1305715	WORD	wordpools/wasnorm_wordpool_576.txt	LTP304	ltpFR2	12	7	PERCH	1048	n/a	n/a	0	0	0
1308467	WORD	wordpools/wasnorm_wordpool_576.txt	LTP304	ltpFR2	12	7	HAWK	692	n/a	n/a	0	0	0
1311286	WORD	wordpools/wasnorm_wordpool_576.txt	LTP304	ltpFR2	12	7	HOUND	724	n/a	n/a	0	0	0
1314089	WORD	wordpools/wasnorm_wordpool_576.txt	LTP304	ltpFR2	12	7	SURVEY	1414	n/a	n/a	0	0	0
1316709	WORD	wordpools/wasnorm_wordpool_576.txt	LTP304	ltpFR2	12	7	IGLOO	734	n/a	n/a	0	0	0
1319326	WORD	wordpools/wasnorm_wordpool_576.txt	LTP304	ltpFR2	12	7	CAPTIVE	240	n/a	n/a	0	0	0
1321979	WORD	wordpools/wasnorm_wordpool_576.txt	LTP304	ltpFR2	12	7	AWARD	63	n/a	n/a	0	0	0
1323598	START	n/a	LTP304	ltpFR2	12	n/a	n/a	n/a	13	n/a	n/a	n/a	n/a
1324453	DISTRACTOR	n/a	LTP304	ltpFR2	12	7	n/a	n/a	n/a	n/a	0	0	0
1324464	PROB	n/a	LTP304	ltpFR2	12	n/a	n/a	n/a	13	11	4	6	1
1326081	PROB	n/a	LTP304	ltpFR2	12	n/a	n/a	n/a	13	9	6	2	1
1327517	PROB	n/a	LTP304	ltpFR2	12	n/a	n/a	n/a	13	17	4	5	8
1330067	PROB	n/a	LTP304	ltpFR2	12	n/a	n/a	n/a	13	12	1	8	3
1331704	PROB	n/a	LTP304	ltpFR2	12	n/a	n/a	n/a	13	11	5	5	1
1332703	PROB	n/a	LTP304	ltpFR2	12	n/a	n/a	n/a	13	20	7	8	5
1334657	PROB	n/a	LTP304	ltpFR2	12	n/a	n/a	n/a	13	6	2	3	2
1336173	PROB	n/a	LTP304	ltpFR2	12	n/a	n/a	n/a	13	22	9	3	9
1339257	PROB	n/a	LTP304	ltpFR2	12	n/a	n/a	n/a	13	10	2	1	7
1340926	PROB	n/a	LTP304	ltpFR2	12	n/a	n/a	n/a	13	14	6	1	7
1342930	PROB	n/a	LTP304	ltpFR2	12	n/a	n/a	n/a	13	22	4	9	9
1345681	PROB	n/a	LTP304	ltpFR2	12	n/a	n/a	n/a	13	13	7	4	2
1347324	STOP	n/a	LTP304	ltpFR2	12	n/a	n/a	n/a	13	n/a	n/a	n/a	n/a
1349550	REC_START	n/a	LTP304	ltpFR2	12	7	n/a	n/a	n/a	n/a	0	0	0
1351869	REC_WORD	wordpools/wasnorm_wordpool_576.txt	LTP304	ltpFR2	12	7	IGLOO	734	n/a	n/a	0	0	0
1352321	REC_WORD	wordpools/wasnorm_wordpool_576.txt	LTP304	ltpFR2	12	7	CAPTIVE	240	n/a	n/a	0	0	0
1354795	REC_WORD	wordpools/wasnorm_wordpool_576.txt	LTP304	ltpFR2	12	7	SCALLOP	1242	n/a	n/a	0	0	0
1355503	REC_WORD	wordpools/wasnorm_wordpool_576.txt	LTP304	ltpFR2	12	7	COD	340	n/a	n/a	0	0	0
1356003	REC_WORD	wordpools/wasnorm_wordpool_576.txt	LTP304	ltpFR2	12	7	PACKAGE	997	n/a	n/a	0	0	0
1356731	REC_WORD	wordpools/wasnorm_wordpool_576.txt	LTP304	ltpFR2	12	7	GHETTO	633	n/a	n/a	0	0	0
1357672	REC_WORD	wordpools/wasnorm_wordpool_576.txt	LTP304	ltpFR2	12	7	GANGSTER	620	n/a	n/a	0	0	0
1358602	REC_WORD	wordpools/wasnorm_wordpool_576.txt	LTP304	ltpFR2	12	7	AWARD	63	n/a	n/a	0	0	0
1359257	REC_WORD	wordpools/wasnorm_wordpool_576.txt	LTP304	ltpFR2	12	7	MEDAL	885	n/a	n/a	0	0	0
1362879	REC_WORD	wordpools/wasnorm_wordpool_576.txt	LTP304	ltpFR2	12	7	WOMAN	1620	n/a	n/a	0	0	0
1365760	REC_WORD	wordpools/wasnorm_wordpool_576.txt	LTP304	ltpFR2	12	7	GRIZZLY	662	n/a	n/a	0	0	0
1368213	REC_WORD	wordpools/wasnorm_wordpool_576.txt	LTP304	ltpFR2	12	7	JUDGE	761	n/a	n/a	0	0	0
1368936	REC_WORD	wordpools/wasnorm_wordpool_576.txt	LTP304	ltpFR2	12	7	FLAG	573	n/a	n/a	0	0	0
1371437	REC_WORD	wordpools/wasnorm_wordpool_576.txt	LTP304	ltpFR2	12	7	HAWK	692	n/a	n/a	0	0	0
1375861	REC_WORD	wordpools/wasnorm_wordpool_576.txt	LTP304	ltpFR2	12	7	PERCH	1048	n/a	n/a	0	0	0
1378002	REC_WORD	wordpools/wasnorm_wordpool_576.txt	LTP304	ltpFR2	12	7	PECAN	1036	n/a	n/a	0	0	0
1391235	REC_WORD	wordpools/wasnorm_wordpool_576.txt	LTP304	ltpFR2	12	7	SALT	1229	n/a	n/a	0	0	0
1392383	REC_WORD	wordpools/wasnorm_wordpool_576.txt	LTP304	ltpFR2	12	7	SAUSAGE	1238	n/a	n/a	0	0	0
1397657	REC_WORD_VV	wordpools/wasnorm_wordpool_576.txt	LTP304	ltpFR2	12	7	<>	-1	n/a	n/a	0	0	0
1402870	REC_WORD	wordpools/wasnorm_wordpool_576.txt	LTP304	ltpFR2	12	7	HOUND	724	n/a	n/a	0	0	0
1408276	REC_WORD	wordpools/wasnorm_wordpool_576.txt	LTP304	ltpFR2	12	7	SURVEY	1414	n/a	n/a	0	0	0
1439988	WORD	wordpools/wasnorm_wordpool_576.txt	LTP304	ltpFR2	12	8	POSSUM	1112	n/a	n/a	0	0	0
1442727	WORD	wordpools/wasnorm_wordpool_576.txt	LTP304	ltpFR2	12	8	SLUG	1329	n/a	n/a	0	0	0
1445286	WORD	wordpools/wasnorm_wordpool_576.txt	LTP304	ltpFR2	12	8	SISTER	1312	n/a	n/a	0	0	0
1448047	WORD	wordpools/wasnorm_wordpool_576.txt	LTP304	ltpFR2	12	8	SCARF	1246	n/a	n/a	0	0	0
1450749	WORD	wordpools/wasnorm_wordpool_576.txt	LTP304	ltpFR2	12	8	ICEBERG	731	n/a	n/a	0	0	0
1453377	WORD	wordpools/wasnorm_wordpool_576.txt	LTP304	ltpFR2	12	8	GLOVE	642	n/a	n/a	0	0	0
1455896	WORD	wordpools/wasnorm_wordpool_576.txt	LTP304	ltpFR2	12	8	BADGE	68	n/a	n/a	0	0	0
1458589	WORD	wordpools/wasnorm_wordpool_576.txt	LTP304	ltpFR2	12	8	CREVICE	405	n/a	n/a	0	0	0
1461206	WORD	wordpools/wasnorm_wordpool_576.txt	LTP304	ltpFR2	12	8	ACTRESS	6	n/a	n/a	0	0	0
1463819	WORD	wordpools/wasnorm_wordpool_576.txt	LTP304	ltpFR2	12	8	GREASE	660	n/a	n/a	0	0	0
1466579	WORD	wordpools/wasnorm_wordpool_576.txt	LTP304	ltpFR2	12	8	IDOL	733	n/a	n/a	0	0	0
1469140	WORD	wordpools/wasnorm_wordpool_576.txt	LTP304	ltpFR2	12	8	PIANO	1057	n/a	n/a	0	0	0
1471894	WORD	wordpools/wasnorm_wordpool_576.txt	LTP304	ltpFR2	12	8	FLUTE	585	n/a	n/a	0	0	0
1474434	WORD	wordpools/wasnorm_wordpool_576.txt	LTP304	ltpFR2	12	8	HERO	706	n/a	n/a	0	0	0
1477013	WORD	wordpools/wasnorm_wordpool_576.txt	LTP304	ltpFR2	12	8	STICKER	1382	n/a	n/a	0	0	0
1479700	WORD	wordpools/wasnorm_wordpool_576.txt	LTP304	ltpFR2	12	8	SEAFOOD	1260	n/a	n/a	0	0	0
1482509	WORD	wordpools/wasnorm_wordpool_576.txt	LTP304	ltpFR2	12	8	BLOCKADE	137	n/a	n/a	0	0	0
1485309	WORD	wordpools/wasnorm_wordpool_576.txt	LTP304	ltpFR2	12	8	COMET	353	n/a	n/a	0	0	0
1487880	WORD	wordpools/wasnorm_wordpool_576.txt	LTP304	ltpFR2	12	8	BEEF	113	n/a	n/a	0	0	0
1490593	WORD	wordpools/wasnorm_wordpool_576.txt	LTP304	ltpFR2	12	8	SWAMP	1416	n/a	n/a	0	0	0
1493111	WORD	wordpools/wasnorm_wordpool_576.txt	LTP304	ltpFR2	12	8	HAND	683	n/a	n/a	0	0	0
1495864	WORD	wordpools/wasnorm_wordpool_576.txt	LTP304	ltpFR2	12	8	PANTHER	1009	n/a	n/a	0	0	0
1498567	WORD	wordpools/wasnorm_wordpool_576.txt	LTP304	ltpFR2	12	8	BOX	159	n/a	n/a	0	0	0
1501368	WORD	wordpools/wasnorm_wordpool_576.txt	LTP304	ltpFR2	12	8	TILE	1468	n/a	n/a	0	0	0
1502976	START	n/a	LTP304	ltpFR2	12	n/a	n/a	n/a	14	n/a	n/a	n/a	n/a
1503805	DISTRACTOR	n/a	LTP304	ltpFR2	12	8	n/a	n/a	n/a	n/a	0	0	0
1503821	PROB	n/a	LTP304	ltpFR2	12	n/a	n/a	n/a	14	13	3	9	1
1505522	PROB	n/a	LTP304	ltpFR2	12	n/a	n/a	n/a	14	14	2	6	6
1506877	PROB	n/a	LTP304	ltpFR2	12	n/a	n/a	n/a	14	12	5	2	5
1509141	PROB	n/a	LTP304	ltpFR2	12	n/a	n/a	n/a	14	15	4	7	4
1510976	PROB	n/a	LTP304	ltpFR2	12	n/a	n/a	n/a	14	7	2	3	2
1513060	PROB	n/a	LTP304	ltpFR2	12	n/a	n/a	n/a	14	16	1	9	6
1514178	PROB	n/a	LTP304	ltpFR2	12	n/a	n/a	n/a	14	18	6	6	6
1516381	PROB	n/a	LTP304	ltpFR2	12	n/a	n/a	n/a	14	13	3	7	3
1517749	PROB	n/a	LTP304	ltpFR2	12	n/a	n/a	n/a	14	12	6	3	3
1519367	PROB	n/a	LTP304	ltpFR2	12	n/a	n/a	n/a	14	10	1	1	8
1520685	PROB	n/a	LTP304	ltpFR2	12	n/a	n/a	n/a	14	9	3	2	4
1522356	PROB	n/a	LTP304	ltpFR2	12	n/a	n/a	n/a	14	14	2	8	4
1523621	PROB	n/a	LTP304	ltpFR2	12	n/a	n/a	n/a	14	8	3	1	4
1526976	STOP	n/a	LTP304	ltpFR2	12	n/a	n/a	n/a	14	n/a	n/a	n/a	n/a
1528728	REC_START	n/a	LTP304	ltpFR2	12	8	n/a	n/a	n/a	n/a	0	0	0
1529416	REC_WORD	wordpools/wasnorm_wordpool_576.txt	LTP304	ltpFR2	12	8	POSSUM	1112	n/a	n/a	0	0	0
1529951	REC_WORD	wordpools/wasnorm_wordpool_576.txt	LTP304	ltpFR2	12	8	SLUG	1329	n/a	n/a	0	0	0
1531477	REC_WORD	wordpools/wasnorm_wordpool_576.txt	LTP304	ltpFR2	12	8	SISTER	1312	n/a	n/a	0	0	0
1533787	REC_WORD	wordpools/wasnorm_wordpool_576.txt	LTP304	ltpFR2	12	8	HERO	706	n/a	n/a	0	0	0
1536791	REC_WORD	wordpools/wasnorm_wordpool_576.txt	LTP304	ltpFR2	12	8	ACTRESS	6	n/a	n/a	0	0	0
1537524	REC_WORD	wordpools/wasnorm_wordpool_576.txt	LTP304	ltpFR2	12	8	IDOL	733	n/a	n/a	0	0	0
1538185	REC_WORD	wordpools/wasnorm_wordpool_576.txt	LTP304	ltpFR2	12	8	GREASE	660	n/a	n/a	0	0	0
1540048	REC_WORD	wordpools/wasnorm_wordpool_576.txt	LTP304	ltpFR2	12	8	CREVICE	405	n/a	n/a	0	0	0
1542325	REC_WORD	wordpools/wasnorm_wordpool_576.txt	LTP304	ltpFR2	12	8	PANTHER	1009	n/a	n/a	0	0	0
1542871	REC_WORD	wordpools/wasnorm_wordpool_576.txt	LTP304	ltpFR2	12	8	HAND	683	n/a	n/a	0	0	0
1543979	REC_WORD	wordpools/wasnorm_wordpool_576.txt	LTP304	ltpFR2	12	8	COMET	353	n/a	n/a	0	0	0
1544804	REC_WORD	wordpools/wasnorm_wordpool_576.txt	LTP304	ltpFR2	12	8	BLOCKADE	137	n/a	n/a	0	0	0
1552795	REC_WORD	wordpools/wasnorm_wordpool_576.txt	LTP304	ltpFR2	12	8	SEAFOOD	1260	n/a	n/a	0	0	0
1556296	REC_WORD	wordpools/wasnorm_wordpool_576.txt	LTP304	ltpFR2	12	8	HERO	706	n/a	n/a	0	0	0
1560451	REC_WORD	wordpools/wasnorm_wordpool_576.txt	LTP304	ltpFR2	12	8	SCARF	1246	n/a	n/a	0	0	0
1561843	REC_WORD	wordpools/wasnorm_wordpool_576.txt	LTP304	ltpFR2	12	8	GLOVE	642	n/a	n/a	0	0	0
1564104	REC_WORD	wordpools/wasnorm_wordpool_576.txt	LTP304	ltpFR2	12	8	ICEBERG	731	n/a	n/a	0	0	0
1571977	REC_WORD	wordpools/wasnorm_wordpool_576.txt	LTP304	ltpFR2	12	8	BLOCKADE	137	n/a	n/a	0	0	0
1579385	REC_WORD	wordpools/wasnorm_wordpool_576.txt	LTP304	ltpFR2	12	8	STICKER	1382	n/a	n/a	0	0	0
1605272	REST_REWET	n/a	LTP304	ltpFR2	12	8	n/a	n/a	n/a	n/a	0	0	0
2167174	DISTRACTOR	n/a	LTP304	ltpFR2	12	9	n/a	n/a	n/a	n/a	0	0	0
2167174	START	n/a	LTP304	ltpFR2	12	n/a	n/a	n/a	15	n/a	n/a	n/a	n/a
2167189	PROB	n/a	LTP304	ltpFR2	12	n/a	n/a	n/a	15	17	9	3	5
2168990	PROB	n/a	LTP304	ltpFR2	12	n/a	n/a	n/a	15	12	7	3	2
2170474	PROB	n/a	LTP304	ltpFR2	12	n/a	n/a	n/a	15	16	2	6	8
2171928	PROB	n/a	LTP304	ltpFR2	12	n/a	n/a	n/a	15	14	6	5	3
2173612	PROB	n/a	LTP304	ltpFR2	12	n/a	n/a	n/a	15	10	3	1	6
2175112	PROB	n/a	LTP304	ltpFR2	12	n/a	n/a	n/a	15	14	7	1	6
2177932	PROB	n/a	LTP304	ltpFR2	12	n/a	n/a	n/a	15	10	1	5	4
2179735	PROB	n/a	LTP304	ltpFR2	12	n/a	n/a	n/a	15	16	7	1	8
2181351	PROB	n/a	LTP304	ltpFR2	12	n/a	n/a	n/a	15	18	7	4	7
2183269	PROB	n/a	LTP304	ltpFR2	12	n/a	n/a	n/a	15	17	6	6	3
2185286	PROB	n/a	LTP304	ltpFR2	12	n/a	n/a	n/a	15	21	9	9	3
2187071	PROB	n/a	LTP304	ltpFR2	12	n/a	n/a	n/a	15	10	2	2	6
2188824	PROB	n/a	LTP304	ltpFR2	12	n/a	n/a	n/a	15	5	2	2	1
2190222	STOP	n/a	LTP304	ltpFR2	12	n/a	n/a	n/a	15	n/a	n/a	n/a	n/a
2192337	WORD	wordpools/wasnorm_wordpool_576.txt	LTP304	ltpFR2	12	9	SUBWAY	1400	n/a	n/a	0	0	0
2194974	WORD	wordpools/wasnorm_wordpool_576.txt	LTP304	ltpFR2	12	9	VALVE	1546	n/a	n/a	0	0	0
2197626	WORD	wordpools/wasnorm_wordpool_576.txt	LTP304	ltpFR2	12	9	ISLAND	745	n/a	n/a	0	0	0
2200061	WORD	wordpools/wasnorm_wordpool_576.txt	LTP304	ltpFR2	12	9	SKETCH	1315	n/a	n/a	0	0	0
2202764	WORD	wordpools/wasnorm_wordpool_576.txt	LTP304	ltpFR2	12	9	QUAIL	1147	n/a	n/a	0	0	0
2205232	WORD	wordpools/wasnorm_wordpool_576.txt	LTP304	ltpFR2	12	9	TWISTER	1530	n/a	n/a	0	0	0
2207886	WORD	wordpools/wasnorm_wordpool_576.txt	LTP304	ltpFR2	12	9	VELVET	1555	n/a	n/a	0	0	0
2210488	WORD	wordpools/wasnorm_wordpool_576.txt	LTP304	ltpFR2	12	9	SEAGULL	1261	n/a	n/a	0	0	0
2213122	WORD	wordpools/wasnorm_wordpool_576.txt	LTP304	ltpFR2	12	9	TREAT	1501	n/a	n/a	0	0	0
2215580	WORD	wordpools/wasnorm_wordpool_576.txt	LTP304	ltpFR2	12	9	BURGLAR	200	n/a	n/a	0	0	0
2218393	WORD	wordpools/wasnorm_wordpool_576.txt	LTP304	ltpFR2	12	9	THRONE	1461	n/a	n/a	0	0	0
2221179	WORD	wordpools/wasnorm_wordpool_576.txt	LTP304	ltpFR2	12	9	PRINCESS	1125	n/a	n/a	0	0	0
2223782	WORD	wordpools/wasnorm_wordpool_576.txt	LTP304	ltpFR2	12	9	RADISH	1158	n/a	n/a	0	0	0
2226417	WORD	wordpools/wasnorm_wordpool_576.txt	LTP304	ltpFR2	12	9	CABBAGE	210	n/a	n/a	0	0	0
2229169	WORD	wordpools/wasnorm_wordpool_576.txt	LTP304	ltpFR2	12	9	COUSIN	392	n/a	n/a	0	0	0
2231606	WORD	wordpools/wasnorm_wordpool_576.txt	LTP304	ltpFR2	12	9	BLENDER	136	n/a	n/a	0	0	0
2234194	WORD	wordpools/wasnorm_wordpool_576.txt	LTP304	ltpFR2	12	9	BANK	83	n/a	n/a	0	0	0
2236930	WORD	wordpools/wasnorm_wordpool_576.txt	LTP304	ltpFR2	12	9	LAMP	798	n/a	n/a	0	0	0
2239600	WORD	wordpools/wasnorm_wordpool_576.txt	LTP304	ltpFR2	12	9	PIGMENT	1066	n/a	n/a	0	0	0
2242381	WORD	wordpools/wasnorm_wordpool_576.txt	LTP304	ltpFR2	12	9	SNACK	1331	n/a	n/a	0	0	0
2245167	WORD	wordpools/wasnorm_wordpool_576.txt	LTP304	ltpFR2	12	9	SCRIBBLE	1256	n/a	n/a	0	0	0
2247703	WORD	wordpools/wasnorm_wordpool_576.txt	LTP304	ltpFR2	12	9	CYCLONE	431	n/a	n/a	0	0	0
2250489	WORD	wordpools/wasnorm_wordpool_576.txt	LTP304	ltpFR2	12	9	BLUEPRINT	142	n/a	n/a	0	0	0
2252990	WORD	wordpools/wasnorm_wordpool_576.txt	LTP304	ltpFR2	12	9	MAILMAN	858	n/a	n/a	0	0	0
2254596	START	n/a	LTP304	ltpFR2	12	n/a	n/a	n/a	16	n/a	n/a	n/a	n/a
2255586	DISTRACTOR	n/a	LTP304	ltpFR2	12	9	n/a	n/a	n/a	n/a	0	0	0
2255594	PROB	n/a	LTP304	ltpFR2	12	n/a	n/a	n/a	16	11	3	1	7
2257527	PROB	n/a	LTP304	ltpFR2	12	n/a	n/a	n/a	16	7	1	5	1
2258696	PROB	n/a	LTP304	ltpFR2	12	n/a	n/a	n/a	16	7	2	3	2
2260999	PROB	n/a	LTP304	ltpFR2	12	n/a	n/a	n/a	16	25	8	8	9
2264166	PROB	n/a	LTP304	ltpFR2	12	n/a	n/a	n/a	16	11	8	2	1
2265853	PROB	n/a	LTP304	ltpFR2	12	n/a	n/a	n/a	16	9	4	2	3
2268488	PROB	n/a	LTP304	ltpFR2	12	n/a	n/a	n/a	16	23	9	6	8
2270757	PROB	n/a	LTP304	ltpFR2	12	n/a	n/a	n/a	16	14	9	4	1
2273292	PROB	n/a	LTP304	ltpFR2	12	n/a	n/a	n/a	16	19	8	2	9
2274544	PROB	n/a	LTP304	ltpFR2	12	n/a	n/a	n/a	16	24	8	7	9
2277090	STOP	n/a	LTP304	ltpFR2	12	n/a	n/a	n/a	16	n/a	n/a	n/a	n/a
2280365	REC_START	n/a	LTP304	ltpFR2	12	9	n/a	n/a	n/a	n/a	0	0	0
2283309	REC_WORD	wordpools/wasnorm_wordpool_576.txt	LTP304	ltpFR2	12	9	SKETCH	1315	n/a	n/a	0	0	0
2284015	REC_WORD	wordpools/wasnorm_wordpool_576.txt	LTP304	ltpFR2	12	9	ISLAND	745	n/a	n/a	0	0	0
2284422	REC_WORD	wordpools/wasnorm_wordpool_576.txt	LTP304	ltpFR2	12	9	SUBWAY	1400	n/a	n/a	0	0	0
2285025	REC_WORD	wordpools/wasnorm_wordpool_576.txt	LTP304	ltpFR2	12	9	VALVE	1546	n/a	n/a	0	0	0
2286608	REC_WORD	wordpools/wasnorm_wordpool_576.txt	LTP304	ltpFR2	12	9	QUAIL	1147	n/a	n/a	0	0	0
2290711	REC_WORD	wordpools/wasnorm_wordpool_576.txt	LTP304	ltpFR2	12	9	MAILMAN	858	n/a	n/a	0	0	0
2292998	REC_WORD	wordpools/wasnorm_wordpool_576.txt	LTP304	ltpFR2	12	9	ROBBER	1197	n/a	n/a	0	0	0
2293550	REC_WORD	wordpools/wasnorm_wordpool_576.txt	LTP304	ltpFR2	12	9	PRINCESS	1125	n/a	n/a	0	0	0
2294142	REC_WORD	wordpools/wasnorm_wordpool_576.txt	LTP304	ltpFR2	12	9	THRONE	1461	n/a	n/a	0	0	0
2294732	REC_WORD	wordpools/wasnorm_wordpool_576.txt	LTP304	ltpFR2	12	9	RADISH	1158	n/a	n/a	0	0	0
2295204	REC_WORD	wordpools/wasnorm_wordpool_576.txt	LTP304	ltpFR2	12	9	CABBAGE	210	n/a	n/a	0	0	0
2370803	WORD	wordpools/wasnorm_wordpool_576.txt	LTP304	ltpFR2	12	10	RELISH	1183	n/a	n/a	0	0	0
2373405	WORD	wordpools/wasnorm_wordpool_576.txt	LTP304	ltpFR2	12	10	XEROX	1628	n/a	n/a	0	0	0
2375990	WORD	wordpools/wasnorm_wordpool_576.txt	LTP304	ltpFR2	12	10	NAPKIN	937	n/a	n/a	0	0	0
2378476	WORD	wordpools/wasnorm_wordpool_576.txt	LTP304	ltpFR2	12	10	GARDEN	623	n/a	n/a	0	0	0
2380936	WORD	wordpools/wasnorm_wordpool_576.txt	LTP304	ltpFR2	12	10	PEDAL	1037	n/a	n/a	0	0	0
2383721	WORD	wordpools/wasnorm_wordpool_576.txt	LTP304	ltpFR2	12	10	SWITCH	1422	n/a	n/a	0	0	0
2386440	WORD	wordpools/wasnorm_wordpool_576.txt	LTP304	ltpFR2	12	10	MARROW	872	n/a	n/a	0	0	0
2389052	WORD	wordpools/wasnorm_wordpool_576.txt	LTP304	ltpFR2	12	10	CRIB	407	n/a	n/a	0	0	0
2391521	WORD	wordpools/wasnorm_wordpool_576.txt	LTP304	ltpFR2	12	10	CLIMBER	323	n/a	n/a	0	0	0
2393956	WORD	wordpools/wasnorm_wordpool_576.txt	LTP304	ltpFR2	12	10	COIN	343	n/a	n/a	0	0	0
2396750	WORD	wordpools/wasnorm_wordpool_576.txt	LTP304	ltpFR2	12	10	INFANT	737	n/a	n/a	0	0	0
2399260	WORD	wordpools/wasnorm_wordpool_576.txt	LTP304	ltpFR2	12	10	SUNRISE	1407	n/a	n/a	0	0	0
2401763	WORD	wordpools/wasnorm_wordpool_576.txt	LTP304	ltpFR2	12	10	MUSTARD	935	n/a	n/a	0	0	0
2404280	WORD	wordpools/wasnorm_wordpool_576.txt	LTP304	ltpFR2	12	10	POSTAGE	1113	n/a	n/a	0	0	0
2407000	WORD	wordpools/wasnorm_wordpool_576.txt	LTP304	ltpFR2	12	10	CRAB	397	n/a	n/a	0	0	0
2409677	WORD	wordpools/wasnorm_wordpool_576.txt	LTP304	ltpFR2	12	10	TROUT	1511	n/a	n/a	0	0	0
2412103	WORD	wordpools/wasnorm_wordpool_576.txt	LTP304	ltpFR2	12	10	WHISKERS	1605	n/a	n/a	0	0	0
2414699	WORD	wordpools/wasnorm_wordpool_576.txt	LTP304	ltpFR2	12	10	CABIN	211	n/a	n/a	0	0	0
2417308	WORD	wordpools/wasnorm_wordpool_576.txt	LTP304	ltpFR2	12	10	STOVE	1388	n/a	n/a	0	0	0
2419820	WORD	wordpools/wasnorm_wordpool_576.txt	LTP304	ltpFR2	12	10	KITCHEN	778	n/a	n/a	0	0	0
2422288	WORD	wordpools/wasnorm_wordpool_576.txt	LTP304	ltpFR2	12	10	BACKBONE	66	n/a	n/a	0	0	0
2424848	WORD	wordpools/wasnorm_wordpool_576.txt	LTP304	ltpFR2	12	10	OUTDOORS	987	n/a	n/a	0	0	0
2427533	WORD	wordpools/wasnorm_wordpool_576.txt	LTP304	ltpFR2	12	10	BUREAU	199	n/a	n/a	0	0	0
2430251	WORD	wordpools/wasnorm_wordpool_576.txt	LTP304	ltpFR2	12	10	PATROL	1027	n/a	n/a	0	0	0
2431864	START	n/a	LTP304	ltpFR2	12	n/a	n/a	n/a	17	n/a	n/a	n/a	n/a
2432894	DISTRACTOR	n/a	LTP304	ltpFR2	12	10	n/a	n/a	n/a	n/a	0	0	0
2432904	PROB	n/a	LTP304	ltpFR2	12	n/a	n/a	n/a	17	5	1	2	2
2434121	PROB	n/a	LTP304	ltpFR2	12	n/a	n/a	n/a	17	16	1	8	7
2436006	PROB	n/a	LTP304	ltpFR2	12	n/a	n/a	n/a	17	18	5	4	9
2437759	PROB	n/a	LTP304	ltpFR2	12	n/a	n/a	n/a	17	16	2	9	5
2439826	PROB	n/a	LTP304	ltpFR2	12	n/a	n/a	n/a	17	13	3	1	9
2441794	PROB	n/a	LTP304	ltpFR2	12	n/a	n/a	n/a	17	17	4	6	7
2443127	PROB	n/a	LTP304	ltpFR2	12	n/a	n/a	n/a	17	22	7	9	4
2445864	PROB	n/a	LTP304	ltpFR2	12	n/a	n/a	n/a	17	13	5	7	1
2447782	PROB	n/a	LTP304	ltpFR2	12	n/a	n/a	n/a	17	12	2	5	5
2448983	PROB	n/a	LTP304	ltpFR2	12	n/a	n/a	n/a	17	8	4	2	2
2451334	PROB	n/a	LTP304	ltpFR2	12	n/a	n/a	n/a	17	15	5	5	5
2452502	PROB	n/a	LTP304	ltpFR2	12	n/a	n/a	n/a	17	13	9	3	1
2455864	STOP	n/a	LTP304	ltpFR2	12	n/a	n/a	n/a	17	n/a	n/a	n/a	n/a
2457725	REC_START	n/a	LTP304	ltpFR2	12	10	n/a	n/a	n/a	n/a	0	0	0
2459051	REC_WORD	wordpools/wasnorm_wordpool_576.txt	LTP304	ltpFR2	12	10	RELISH	1183	n/a	n/a	0	0	0
2459726	REC_WORD	wordpools/wasnorm_wordpool_576.txt	LTP304	ltpFR2	12	10	XEROX	1628	n/a	n/a	0	0	0
2460580	REC_WORD	wordpools/wasnorm_wordpool_576.txt	LTP304	ltpFR2	12	10	NAPKIN	937	n/a	n/a	0	0	0
2461337	REC_WORD	wordpools/wasnorm_wordpool_576.txt	LTP304	ltpFR2	12	10	GARDEN	623	n/a	n/a	0	0	0
2461761	REC_WORD	wordpools/wasnorm_wordpool_576.txt	LTP304	ltpFR2	12	10	MUSTARD	935	n/a	n/a	0	0	0
2463549	REC_WORD	wordpools/wasnorm_wordpool_576.txt	LTP304	ltpFR2	12	10	PEDAL	1037	n/a	n/a	0	0	0
2463984	REC_WORD	wordpools/wasnorm_wordpool_576.txt	LTP304	ltpFR2	12	10	SWITCH	1422	n/a	n/a	0	0	0
2471563	REC_WORD	wordpools/wasnorm_wordpool_576.txt	LTP304	ltpFR2	12	10	STAMP	1370	n/a	n/a	0	0	0
2473652	REC_WORD_VV	wordpools/wasnorm_wordpool_576.txt	LTP304	ltpFR2	12	10	<>	-1	n/a	n/a	0	0	0
2473807	REC_WORD	wordpools/wasnorm_wordpool_576.txt	LTP304	ltpFR2	12	10	POSTAGE	1113	n/a	n/a	0	0	0
2493950	REC_WORD	wordpools/wasnorm_wordpool_576.txt	LTP304	ltpFR2	12	10	CRAB	397	n/a	n/a	0	0	0
2494490	REC_WORD	wordpools/wasnorm_wordpool_576.txt	LTP304	ltpFR2	12	10	WHISKERS	1605	n/a	n/a	0	0	0
2505641	REC_WORD	wordpools/wasnorm_wordpool_576.txt	LTP304	ltpFR2	12	10	TROUT	1511	n/a	n/a	0	0	0
2525568	REC_WORD	wordpools/wasnorm_wordpool_576.txt	LTP304	ltpFR2	12	10	COIN	343	n/a	n/a	0	0	0
2526112	REC_WORD	wordpools/wasnorm_wordpool_576.txt	LTP304	ltpFR2	12	10	CLIMBER	323	n/a	n/a	0	0	0
2526653	REC_WORD	wordpools/wasnorm_wordpool_576.txt	LTP304	ltpFR2	12	10	CRIB	407	n/a	n/a	0	0	0
2527940	REC_WORD	wordpools/wasnorm_wordpool_576.txt	LTP304	ltpFR2	12	10	SUNRISE	1407	n/a	n/a	0	0	0
2528703	REC_WORD	wordpools/wasnorm_wordpool_576.txt	LTP304	ltpFR2	12	10	INFANT	737	n/a	n/a	0	0	0
2531555	REC_WORD	wordpools/wasnorm_wordpool_576.txt	LTP304	ltpFR2	12	10	CAB	209	n/a	n/a	0	0	0
2531891	REC_WORD	wordpools/wasnorm_wordpool_576.txt	LTP304	ltpFR2	12	10	COTTAGE	384	n/a	n/a	0	0	0
2548180	DISTRACTOR	n/a	LTP304	ltpFR2	12	11	n/a	n/a	n/a	n/a	0	0	0
2548180	START	n/a	LTP304	ltpFR2	12	n/a	n/a	n/a	18	n/a	n/a	n/a	n/a
2548195	PROB	n/a	LTP304	ltpFR2	12	n/a	n/a	n/a	18	14	5	5	4
2549564	PROB	n/a	LTP304	ltpFR2	12	n/a	n/a	n/a	18	13	9	1	3
2551097	PROB	n/a	LTP304	ltpFR2	12	n/a	n/a	n/a	18	16	5	5	6
2552499	PROB	n/a	LTP304	ltpFR2	12	n/a	n/a	n/a	18	18	6	5	7
2555434	PROB	n/a	LTP304	ltpFR2	12	n/a	n/a	n/a	18	19	6	5	8
2558302	PROB	n/a	LTP304	ltpFR2	12	n/a	n/a	n/a	18	16	8	4	4
2559872	PROB	n/a	LTP304	ltpFR2	12	n/a	n/a	n/a	18	11	8	1	2
2561607	PROB	n/a	LTP304	ltpFR2	12	n/a	n/a	n/a	18	14	7	2	5
2563390	PROB	n/a	LTP304	ltpFR2	12	n/a	n/a	n/a	18	15	7	5	3
2564776	PROB	n/a	LTP304	ltpFR2	12	n/a	n/a	n/a	18	16	6	8	2
2567360	PROB	n/a	LTP304	ltpFR2	12	n/a	n/a	n/a	18	10	1	8	1
2568497	PROB	n/a	LTP304	ltpFR2	12	n/a	n/a	n/a	18	22	8	6	8
2570647	STOP	n/a	LTP304	ltpFR2	12	n/a	n/a	n/a	18	n/a	n/a	n/a	n/a
2573383	WORD	wordpools/wasnorm_wordpool_576.txt	LTP304	ltpFR2	12	11	COOK	372	n/a	n/a	0	0	0
2575923	WORD	wordpools/wasnorm_wordpool_576.txt	LTP304	ltpFR2	12	11	NOVEL	960	n/a	n/a	0	0	0
2578721	WORD	wordpools/wasnorm_wordpool_576.txt	LTP304	ltpFR2	12	11	LONDON	843	n/a	n/a	0	0	0
2581338	WORD	wordpools/wasnorm_wordpool_576.txt	LTP304	ltpFR2	12	11	SMOG	1330	n/a	n/a	0	0	0
2583842	WORD	wordpools/wasnorm_wordpool_576.txt	LTP304	ltpFR2	12	11	BLADE	134	n/a	n/a	0	0	0
2586277	WORD	wordpools/wasnorm_wordpool_576.txt	LTP304	ltpFR2	12	11	BUTCHER	203	n/a	n/a	0	0	0
2588796	WORD	wordpools/wasnorm_wordpool_576.txt	LTP304	ltpFR2	12	11	WITNESS	1618	n/a	n/a	0	0	0
2591419	WORD	wordpools/wasnorm_wordpool_576.txt	LTP304	ltpFR2	12	11	COMPASS	358	n/a	n/a	0	0	0
2594170	WORD	wordpools/wasnorm_wordpool_576.txt	LTP304	ltpFR2	12	11	BELLY	119	n/a	n/a	0	0	0
2596602	WORD	wordpools/wasnorm_wordpool_576.txt	LTP304	ltpFR2	12	11	ORANGE	980	n/a	n/a	0	0	0
2599253	WORD	wordpools/wasnorm_wordpool_576.txt	LTP304	ltpFR2	12	11	WORLD	1622	n/a	n/a	0	0	0
2601779	WORD	wordpools/wasnorm_wordpool_576.txt	LTP304	ltpFR2	12	11	GLOBE	641	n/a	n/a	0	0	0
2604342	WORD	wordpools/wasnorm_wordpool_576.txt	LTP304	ltpFR2	12	11	MACHINE	852	n/a	n/a	0	0	0
2607133	WORD	wordpools/wasnorm_wordpool_576.txt	LTP304	ltpFR2	12	11	FLEET	578	n/a	n/a	0	0	0
2609813	WORD	wordpools/wasnorm_wordpool_576.txt	LTP304	ltpFR2	12	11	EAGLE	512	n/a	n/a	0	0	0
2612622	WORD	wordpools/wasnorm_wordpool_576.txt	LTP304	ltpFR2	12	11	BALLOON	75	n/a	n/a	0	0	0
2615233	WORD	wordpools/wasnorm_wordpool_576.txt	LTP304	ltpFR2	12	11	AUTHOR	61	n/a	n/a	0	0	0
2617669	WORD	wordpools/wasnorm_wordpool_576.txt	LTP304	ltpFR2	12	11	EUROPE	541	n/a	n/a	0	0	0
2620470	WORD	wordpools/wasnorm_wordpool_576.txt	LTP304	ltpFR2	12	11	TEACHER	1440	n/a	n/a	0	0	0
2623156	WORD	wordpools/wasnorm_wordpool_576.txt	LTP304	ltpFR2	12	11	SHOVEL	1295	n/a	n/a	0	0	0
2625849	WORD	wordpools/wasnorm_wordpool_576.txt	LTP304	ltpFR2	12	11	FILM	565	n/a	n/a	0	0	0
2628377	WORD	wordpools/wasnorm_wordpool_576.txt	LTP304	ltpFR2	12	11	SKILLET	1317	n/a	n/a	0	0	0
2631113	WORD	wordpools/wasnorm_wordpool_576.txt	LTP304	ltpFR2	12	11	HANDBAG	684	n/a	n/a	0	0	0
2633649	WORD	wordpools/wasnorm_wordpool_576.txt	LTP304	ltpFR2	12	11	JOURNAL	760	n/a	n/a	0	0	0
2635257	START	n/a	LTP304	ltpFR2	12	n/a	n/a	n/a	19	n/a	n/a	n/a	n/a
2636422	DISTRACTOR	n/a	LTP304	ltpFR2	12	11	n/a	n/a	n/a	n/a	0	0	0
2636433	PROB	n/a	LTP304	ltpFR2	12	n/a	n/a	n/a	19	12	6	1	5
2638268	PROB	n/a	LTP304	ltpFR2	12	n/a	n/a	n/a	19	13	3	1	9
2640169	PROB	n/a	LTP304	ltpFR2	12	n/a	n/a	n/a	19	12	1	3	8
2641505	PROB	n/a	LTP304	ltpFR2	12	n/a	n/a	n/a	19	20	8	9	3
2646241	PROB	n/a	LTP304	ltpFR2	12	n/a	n/a	n/a	19	12	5	7	1
2647943	PROB	n/a	LTP304	ltpFR2	12	n/a	n/a	n/a	19	17	4	5	8
2650093	PROB	n/a	LTP304	ltpFR2	12	n/a	n/a	n/a	19	20	7	4	9
2652205	PROB	n/a	LTP304	ltpFR2	12	n/a	n/a	n/a	19	9	2	3	4
2654030	PROB	n/a	LTP304	ltpFR2	12	n/a	n/a	n/a	19	20	3	8	9
2656801	PROB	n/a	LTP304	ltpFR2	12	n/a	n/a	n/a	19	17	3	6	8
2658985	STOP	n/a	LTP304	ltpFR2	12	n/a	n/a	n/a	19	n/a	n/a	n/a	n/a
2661154	REC_START	n/a	LTP304	ltpFR2	12	11	n/a	n/a	n/a	n/a	0	0	0
2662407	REC_WORD	wordpools/wasnorm_wordpool_576.txt	LTP304	ltpFR2	12	11	COOK	372	n/a	n/a	0	0	0
2663727	REC_WORD	wordpools/wasnorm_wordpool_576.txt	LTP304	ltpFR2	12	11	LONDON	843	n/a	n/a	0	0	0
2667046	REC_WORD	wordpools/wasnorm_wordpool_576.txt	LTP304	ltpFR2	12	11	EUROPE	541	n/a	n/a	0	0	0
2668344	REC_WORD	wordpools/wasnorm_wordpool_576.txt	LTP304	ltpFR2	12	11	WORLD	1622	n/a	n/a	0	0	0
2669349	REC_WORD	wordpools/wasnorm_wordpool_576.txt	LTP304	ltpFR2	12	11	GLOBE	641	n/a	n/a	0	0	0
2671462	REC_WORD	wordpools/wasnorm_wordpool_576.txt	LTP304	ltpFR2	12	11	REPORT	1184	n/a	n/a	0	0	0
2673965	REC_WORD	wordpools/wasnorm_wordpool_576.txt	LTP304	ltpFR2	12	11	BELLY	119	n/a	n/a	0	0	0
2674781	REC_WORD	wordpools/wasnorm_wordpool_576.txt	LTP304	ltpFR2	12	11	ORANGE	980	n/a	n/a	0	0	0
2675396	REC_WORD	wordpools/wasnorm_wordpool_576.txt	LTP304	ltpFR2	12	11	COMPASS	358	n/a	n/a	0	0	0
2676014	REC_WORD	wordpools/wasnorm_wordpool_576.txt	LTP304	ltpFR2	12	11	WITNESS	1618	n/a	n/a	0	0	0
2678434	REC_WORD	wordpools/wasnorm_wordpool_576.txt	LTP304	ltpFR2	12	11	BLADE	134	n/a	n/a	0	0	0
2686866	REC_WORD	wordpools/wasnorm_wordpool_576.txt	LTP304	ltpFR2	12	11	EAGLE	512	n/a	n/a	0	0	0
2687381	REC_WORD	wordpools/wasnorm_wordpool_576.txt	LTP304	ltpFR2	12	11	BALLOON	75	n/a	n/a	0	0	0
2704854	REC_WORD	wordpools/wasnorm_wordpool_576.txt	LTP304	ltpFR2	12	11	SKILLET	1317	n/a	n/a	0	0	0
2705748	REC_WORD	wordpools/wasnorm_wordpool_576.txt	LTP304	ltpFR2	12	11	HANDBAG	684	n/a	n/a	0	0	0
2711515	REC_WORD	wordpools/wasnorm_wordpool_576.txt	LTP304	ltpFR2	12	11	COOKBOOK	373	n/a	n/a	0	0	0
2715429	REC_WORD	wordpools/wasnorm_wordpool_576.txt	LTP304	ltpFR2	12	11	FLEET	578	n/a	n/a	0	0	0
2723074	REC_WORD	wordpools/wasnorm_wordpool_576.txt	LTP304	ltpFR2	12	11	SMOG	1330	n/a	n/a	0	0	0
2727534	REC_WORD	wordpools/wasnorm_wordpool_576.txt	LTP304	ltpFR2	12	11	KNIFE	785	n/a	n/a	0	0	0
2751610	DISTRACTOR	n/a	LTP304	ltpFR2	12	12	n/a	n/a	n/a	n/a	0	0	0
2751610	START	n/a	LTP304	ltpFR2	12	n/a	n/a	n/a	20	n/a	n/a	n/a	n/a
2751627	PROB	n/a	LTP304	ltpFR2	12	n/a	n/a	n/a	20	21	6	8	7
2754461	PROB	n/a	LTP304	ltpFR2	12	n/a	n/a	n/a	20	20	8	7	5
2757112	PROB	n/a	LTP304	ltpFR2	12	n/a	n/a	n/a	20	12	5	4	3
2759281	PROB	n/a	LTP304	ltpFR2	12	n/a	n/a	n/a	20	23	8	8	7
2761800	PROB	n/a	LTP304	ltpFR2	12	n/a	n/a	n/a	20	24	9	9	6
2763969	PROB	n/a	LTP304	ltpFR2	12	n/a	n/a	n/a	20	20	7	4	9
2766170	PROB	n/a	LTP304	ltpFR2	12	n/a	n/a	n/a	20	20	4	9	7
2769105	PROB	n/a	LTP304	ltpFR2	12	n/a	n/a	n/a	20	15	1	9	5
2770256	PROB	n/a	LTP304	ltpFR2	12	n/a	n/a	n/a	20	17	7	8	2
2771457	PROB	n/a	LTP304	ltpFR2	12	n/a	n/a	n/a	20	10	3	3	4
2775610	STOP	n/a	LTP304	ltpFR2	12	n/a	n/a	n/a	20	n/a	n/a	n/a	n/a
2776563	WORD	wordpools/wasnorm_wordpool_576.txt	LTP304	ltpFR2	12	12	FOOTBALL	591	n/a	n/a	0	0	0
2778998	WORD	wordpools/wasnorm_wordpool_576.txt	LTP304	ltpFR2	12	12	UMPIRE	1535	n/a	n/a	0	0	0
2781718	WORD	wordpools/wasnorm_wordpool_576.txt	LTP304	ltpFR2	12	12	MUMMY	932	n/a	n/a	0	0	0
2784319	WORD	wordpools/wasnorm_wordpool_576.txt	LTP304	ltpFR2	12	12	ITEM	746	n/a	n/a	0	0	0
2787105	WORD	wordpools/wasnorm_wordpool_576.txt	LTP304	ltpFR2	12	12	DRILL	497	n/a	n/a	0	0	0
2789573	WORD	wordpools/wasnorm_wordpool_576.txt	LTP304	ltpFR2	12	12	TEMPLE	1448	n/a	n/a	0	0	0
2792209	WORD	wordpools/wasnorm_wordpool_576.txt	LTP304	ltpFR2	12	12	STAKE	1368	n/a	n/a	0	0	0
2794778	WORD	wordpools/wasnorm_wordpool_576.txt	LTP304	ltpFR2	12	12	DRIVER	499	n/a	n/a	0	0	0
2797396	WORD	wordpools/wasnorm_wordpool_576.txt	LTP304	ltpFR2	12	12	CANYON	235	n/a	n/a	0	0	0
2800131	WORD	wordpools/wasnorm_wordpool_576.txt	LTP304	ltpFR2	12	12	FUNGUS	614	n/a	n/a	0	0	0
2802818	WORD	wordpools/wasnorm_wordpool_576.txt	LTP304	ltpFR2	12	12	CONTRACT	368	n/a	n/a	0	0	0
2805322	WORD	wordpools/wasnorm_wordpool_576.txt	LTP304	ltpFR2	12	12	SOFTBALL	1343	n/a	n/a	0	0	0
2807773	WORD	wordpools/wasnorm_wordpool_576.txt	LTP304	ltpFR2	12	12	CATCHER	258	n/a	n/a	0	0	0
2810307	WORD	wordpools/wasnorm_wordpool_576.txt	LTP304	ltpFR2	12	12	DASHBOARD	441	n/a	n/a	0	0	0
2812980	WORD	wordpools/wasnorm_wordpool_576.txt	LTP304	ltpFR2	12	12	FOOT	590	n/a	n/a	0	0	0
2815598	WORD	wordpools/wasnorm_wordpool_576.txt	LTP304	ltpFR2	12	12	CONVICT	371	n/a	n/a	0	0	0
2818333	WORD	wordpools/wasnorm_wordpool_576.txt	LTP304	ltpFR2	12	12	COCKTAIL	338	n/a	n/a	0	0	0
2820866	WORD	wordpools/wasnorm_wordpool_576.txt	LTP304	ltpFR2	12	12	ATLAS	53	n/a	n/a	0	0	0
2823668	WORD	wordpools/wasnorm_wordpool_576.txt	LTP304	ltpFR2	12	12	PICNIC	1060	n/a	n/a	0	0	0
2826307	WORD	wordpools/wasnorm_wordpool_576.txt	LTP304	ltpFR2	12	12	BRAKE	166	n/a	n/a	0	0	0
2828739	WORD	wordpools/wasnorm_wordpool_576.txt	LTP304	ltpFR2	12	12	BOARD	143	n/a	n/a	0	0	0
2831189	WORD	wordpools/wasnorm_wordpool_576.txt	LTP304	ltpFR2	12	12	RUST	1219	n/a	n/a	0	0	0
2833826	WORD	wordpools/wasnorm_wordpool_576.txt	LTP304	ltpFR2	12	12	CRITIC	410	n/a	n/a	0	0	0
2836348	WORD	wordpools/wasnorm_wordpool_576.txt	LTP304	ltpFR2	12	12	ANTLER	29	n/a	n/a	0	0	0
2837963	START	n/a	LTP304	ltpFR2	12	n/a	n/a	n/a	21	n/a	n/a	n/a	n/a
2839041	DISTRACTOR	n/a	LTP304	ltpFR2	12	12	n/a	n/a	n/a	n/a	0	0	0
2839046	PROB	n/a	LTP304	ltpFR2	12	n/a	n/a	n/a	21	15	6	7	2
2842131	PROB	n/a	LTP304	ltpFR2	12	n/a	n/a	n/a	21	14	1	5	8
2843749	PROB	n/a	LTP304	ltpFR2	12	n/a	n/a	n/a	21	18	9	5	6
2846167	PROB	n/a	LTP304	ltpFR2	12	n/a	n/a	n/a	21	14	5	2	7
2848185	PROB	n/a	LTP304	ltpFR2	12	n/a	n/a	n/a	21	19	6	5	8
2850304	PROB	n/a	LTP304	ltpFR2	12	n/a	n/a	n/a	21	19	1	9	9
2851873	PROB	n/a	LTP304	ltpFR2	12	n/a	n/a	n/a	21	11	5	3	3
2853691	PROB	n/a	LTP304	ltpFR2	12	n/a	n/a	n/a	21	12	3	3	6
2855777	PROB	n/a	LTP304	ltpFR2	12	n/a	n/a	n/a	21	16	8	5	3
2857459	PROB	n/a	LTP304	ltpFR2	12	n/a	n/a	n/a	21	13	2	2	9
2859427	PROB	n/a	LTP304	ltpFR2	12	n/a	n/a	n/a	21	18	3	8	7
2860914	STOP	n/a	LTP304	ltpFR2	12	n/a	n/a	n/a	21	n/a	n/a	n/a	n/a
2863883	REC_START	n/a	LTP304	ltpFR2	12	12	n/a	n/a	n/a	n/a	0	0	0
2867356	REC_WORD	wordpools/wasnorm_wordpool_576.txt	LTP304	ltpFR2	12	12	FOOTBALL	591	n/a	n/a	0	0	0
2868243	REC_WORD	wordpools/wasnorm_wordpool_576.txt	LTP304	ltpFR2	12	12	UMPIRE	1535	n/a	n/a	0	0	0
2869567	REC_WORD	wordpools/wasnorm_wordpool_576.txt	LTP304	ltpFR2	12	12	MUMMY	932	n/a	n/a	0	0	0
2874182	REC_WORD	wordpools/wasnorm_wordpool_576.txt	LTP304	ltpFR2	12	12	FOOT	590	n/a	n/a	0	0	0
2875087	REC_WORD	wordpools/wasnorm_wordpool_576.txt	LTP304	ltpFR2	12	12	BRAKE	166	n/a	n/a	0	0	0
2876826	REC_WORD	wordpools/wasnorm_wordpool_576.txt	LTP304	ltpFR2	12	12	RUST	1219	n/a	n/a	0	0	0
2877686	REC_WORD	wordpools/wasnorm_wordpool_576.txt	LTP304	ltpFR2	12	12	DASHBOARD	441	n/a	n/a	0	0	0
2878848	REC_WORD	wordpools/wasnorm_wordpool_576.txt	LTP304	ltpFR2	12	12	BOARD	143	n/a	n/a	0	0	0
2881204	REC_WORD	wordpools/wasnorm_wordpool_576.txt	LTP304	ltpFR2	12	12	DRIVER	499	n/a	n/a	0	0	0
2883414	REC_WORD	wordpools/wasnorm_wordpool_576.txt	LTP304	ltpFR2	12	12	CANYON	235	n/a	n/a	0	0	0
2883892	REC_WORD	wordpools/wasnorm_wordpool_576.txt	LTP304	ltpFR2	12	12	FUNGUS	614	n/a	n/a	0	0	0
2884243	REC_WORD	wordpools/wasnorm_wordpool_576.txt	LTP304	ltpFR2	12	12	CONTRACT	368	n/a	n/a	0	0	0
2887371	REC_WORD	wordpools/wasnorm_wordpool_576.txt	LTP304	ltpFR2	12	12	MUMMY	932	n/a	n/a	0	0	0
2887891	REC_WORD	wordpools/wasnorm_wordpool_576.txt	LTP304	ltpFR2	12	12	DRILL	497	n/a	n/a	0	0	0
2889020	REC_WORD	wordpools/wasnorm_wordpool_576.txt	LTP304	ltpFR2	12	12	STAKE	1368	n/a	n/a	0	0	0
2892330	REC_WORD	wordpools/wasnorm_wordpool_576.txt	LTP304	ltpFR2	12	12	CONVICT	371	n/a	n/a	0	0	0
2895330	REC_WORD	wordpools/wasnorm_wordpool_576.txt	LTP304	ltpFR2	12	12	COCKTAIL	338	n/a	n/a	0	0	0
2901076	REC_WORD	wordpools/wasnorm_wordpool_576.txt	LTP304	ltpFR2	12	12	SOFTBALL	1343	n/a	n/a	0	0	0
2901898	REC_WORD	wordpools/wasnorm_wordpool_576.txt	LTP304	ltpFR2	12	12	CATCHER	258	n/a	n/a	0	0	0
2905594	REC_WORD	wordpools/wasnorm_wordpool_576.txt	LTP304	ltpFR2	12	12	TEACHER	1440	n/a	n/a	0	0	0
2917133	REC_WORD	wordpools/wasnorm_wordpool_576.txt	LTP304	ltpFR2	12	12	ATLAS	53	n/a	n/a	0	0	0
2954302	DISTRACTOR	n/a	LTP304	ltpFR2	12	13	n/a	n/a	n/a	n/a	0	0	0
2954302	START	n/a	LTP304	ltpFR2	12	n/a	n/a	n/a	22	n/a	n/a	n/a	n/a
2954317	PROB	n/a	LTP304	ltpFR2	12	n/a	n/a	n/a	22	17	8	2	7
2956541	PROB	n/a	LTP304	ltpFR2	12	n/a	n/a	n/a	22	18	7	3	8
2957637	PROB	n/a	LTP304	ltpFR2	12	n/a	n/a	n/a	22	16	1	6	9
2959391	PROB	n/a	LTP304	ltpFR2	12	n/a	n/a	n/a	22	9	1	4	4
2960590	PROB	n/a	LTP304	ltpFR2	12	n/a	n/a	n/a	22	19	5	8	6
2964030	PROB	n/a	LTP304	ltpFR2	12	n/a	n/a	n/a	22	7	1	2	4
2966345	PROB	n/a	LTP304	ltpFR2	12	n/a	n/a	n/a	22	21	7	9	5
2968180	PROB	n/a	LTP304	ltpFR2	12	n/a	n/a	n/a	22	21	8	5	8
2970899	PROB	n/a	LTP304	ltpFR2	12	n/a	n/a	n/a	22	18	6	6	6
2973069	PROB	n/a	LTP304	ltpFR2	12	n/a	n/a	n/a	22	15	1	8	6
2974519	PROB	n/a	LTP304	ltpFR2	12	n/a	n/a	n/a	22	11	5	5	1
2975603	PROB	n/a	LTP304	ltpFR2	12	n/a	n/a	n/a	22	11	1	3	7
2976704	PROB	n/a	LTP304	ltpFR2	12	n/a	n/a	n/a	22	19	6	4	9
2977903	STOP	n/a	LTP304	ltpFR2	12	n/a	n/a	n/a	22	n/a	n/a	n/a	n/a
2979207	WORD	wordpools/wasnorm_wordpool_576.txt	LTP304	ltpFR2	12	13	TRANSPLANT	1496	n/a	n/a	0	0	0
2981777	WORD	wordpools/wasnorm_wordpool_576.txt	LTP304	ltpFR2	12	13	OZONE	996	n/a	n/a	0	0	0
2984563	WORD	wordpools/wasnorm_wordpool_576.txt	LTP304	ltpFR2	12	13	KEEPER	769	n/a	n/a	0	0	0
2987230	WORD	wordpools/wasnorm_wordpool_576.txt	LTP304	ltpFR2	12	13	FRUIT	610	n/a	n/a	0	0	0
2990033	WORD	wordpools/wasnorm_wordpool_576.txt	LTP304	ltpFR2	12	13	PEACH	1031	n/a	n/a	0	0	0
2992603	WORD	wordpools/wasnorm_wordpool_576.txt	LTP304	ltpFR2	12	13	MATTRESS	879	n/a	n/a	0	0	0
2995288	WORD	wordpools/wasnorm_wordpool_576.txt	LTP304	ltpFR2	12	13	LOVER	846	n/a	n/a	0	0	0
2997841	WORD	wordpools/wasnorm_wordpool_576.txt	LTP304	ltpFR2	12	13	ROOSTER	1209	n/a	n/a	0	0	0
3000543	WORD	wordpools/wasnorm_wordpool_576.txt	LTP304	ltpFR2	12	13	GUITAR	670	n/a	n/a	0	0	0
3003178	WORD	wordpools/wasnorm_wordpool_576.txt	LTP304	ltpFR2	12	13	FOX	598	n/a	n/a	0	0	0
3005931	WORD	wordpools/wasnorm_wordpool_576.txt	LTP304	ltpFR2	12	13	APRON	35	n/a	n/a	0	0	0
3008733	WORD	wordpools/wasnorm_wordpool_576.txt	LTP304	ltpFR2	12	13	PILOT	1070	n/a	n/a	0	0	0
3011401	WORD	wordpools/wasnorm_wordpool_576.txt	LTP304	ltpFR2	12	13	SANDWICH	1232	n/a	n/a	0	0	0
3014136	WORD	wordpools/wasnorm_wordpool_576.txt	LTP304	ltpFR2	12	13	WRENCH	1625	n/a	n/a	0	0	0
3016723	WORD	wordpools/wasnorm_wordpool_576.txt	LTP304	ltpFR2	12	13	BODY	145	n/a	n/a	0	0	0
3019374	WORD	wordpools/wasnorm_wordpool_576.txt	LTP304	ltpFR2	12	13	STOMACH	1384	n/a	n/a	0	0	0
3021943	WORD	wordpools/wasnorm_wordpool_576.txt	LTP304	ltpFR2	12	13	GAVEL	627	n/a	n/a	0	0	0
3024563	WORD	wordpools/wasnorm_wordpool_576.txt	LTP304	ltpFR2	12	13	DUSTPAN	509	n/a	n/a	0	0	0
3027331	WORD	wordpools/wasnorm_wordpool_576.txt	LTP304	ltpFR2	12	13	PLIERS	1089	n/a	n/a	0	0	0
3030132	WORD	wordpools/wasnorm_wordpool_576.txt	LTP304	ltpFR2	12	13	YOLK	1633	n/a	n/a	0	0	0
3032602	WORD	wordpools/wasnorm_wordpool_576.txt	LTP304	ltpFR2	12	13	TUNNEL	1519	n/a	n/a	0	0	0
3035120	WORD	wordpools/wasnorm_wordpool_576.txt	LTP304	ltpFR2	12	13	SPONGE	1355	n/a	n/a	0	0	0
3037623	WORD	wordpools/wasnorm_wordpool_576.txt	LTP304	ltpFR2	12	13	HELMET	702	n/a	n/a	0	0	0
3040309	WORD	wordpools/wasnorm_wordpool_576.txt	LTP304	ltpFR2	12	13	JURY	766	n/a	n/a	0	0	0
3041928	START	n/a	LTP304	ltpFR2	12	n/a	n/a	n/a	23	n/a	n/a	n/a	n/a
3042912	DISTRACTOR	n/a	LTP304	ltpFR2	12	13	n/a	n/a	n/a	n/a	0	0	0
3042928	PROB	n/a	LTP304	ltpFR2	12	n/a	n/a	n/a	23	6	4	1	1
3044260	PROB	n/a	LTP304	ltpFR2	12	n/a	n/a	n/a	23	14	6	6	2
3045679	PROB	n/a	LTP304	ltpFR2	12	n/a	n/a	n/a	23	17	3	6	8
3047765	PROB	n/a	LTP304	ltpFR2	12	n/a	n/a	n/a	23	6	1	4	1
3049781	PROB	n/a	LTP304	ltpFR2	12	n/a	n/a	n/a	23	11	5	5	1
3050800	PROB	n/a	LTP304	ltpFR2	12	n/a	n/a	n/a	23	18	8	2	8
3052132	PROB	n/a	LTP304	ltpFR2	12	n/a	n/a	n/a	23	10	1	4	5
3053686	PROB	n/a	LTP304	ltpFR2	12	n/a	n/a	n/a	23	12	1	4	7
3055536	PROB	n/a	LTP304	ltpFR2	12	n/a	n/a	n/a	23	8	1	5	2
3057070	PROB	n/a	LTP304	ltpFR2	12	n/a	n/a	n/a	23	12	3	7	2
3058187	PROB	n/a	LTP304	ltpFR2	12	n/a	n/a	n/a	23	9	6	2	3
3059989	PROB	n/a	LTP304	ltpFR2	12	n/a	n/a	n/a	23	7	5	1	1
3061124	PROB	n/a	LTP304	ltpFR2	12	n/a	n/a	n/a	23	15	3	3	9
3065928	STOP	n/a	LTP304	ltpFR2	12	n/a	n/a	n/a	23	n/a	n/a	n/a	n/a
3067730	REC_START	n/a	LTP304	ltpFR2	12	13	n/a	n/a	n/a	n/a	0	0	0
3069305	REC_WORD_VV	wordpools/wasnorm_wordpool_576.txt	LTP304	ltpFR2	12	13	<>	-1	n/a	n/a	0	0	0
3076423	REC_WORD_VV	wordpools/wasnorm_wordpool_576.txt	LTP304	ltpFR2	12	13	<>	-1	n/a	n/a	0	0	0
3077183	REC_WORD	wordpools/wasnorm_wordpool_576.txt	LTP304	ltpFR2	12	13	OZONE	996	n/a	n/a	0	0	0
3077851	REC_WORD	wordpools/wasnorm_wordpool_576.txt	LTP304	ltpFR2	12	13	KEEPER	769	n/a	n/a	0	0	0
3078460	REC_WORD	wordpools/wasnorm_wordpool_576.txt	LTP304	ltpFR2	12	13	TRANSPLANT	1496	n/a	n/a	0	0	0
3079567	REC_WORD	wordpools/wasnorm_wordpool_576.txt	LTP304	ltpFR2	12	13	FRUIT	610	n/a	n/a	0	0	0
3080210	REC_WORD	wordpools/wasnorm_wordpool_576.txt	LTP304	ltpFR2	12	13	PEACH	1031	n/a	n/a	0	0	0
3080749	REC_WORD	wordpools/wasnorm_wordpool_576.txt	LTP304	ltpFR2	12	13	MATTRESS	879	n/a	n/a	0	0	0
3081465	REC_WORD	wordpools/wasnorm_wordpool_576.txt	LTP304	ltpFR2	12	13	LOVER	846	n/a	n/a	0	0	0
3082478	REC_WORD	wordpools/wasnorm_wordpool_576.txt	LTP304	ltpFR2	12	13	ROOSTER	1209	n/a	n/a	0	0	0
3083059	REC_WORD	wordpools/wasnorm_wordpool_576.txt	LTP304	ltpFR2	12	13	FOX	598	n/a	n/a	0	0	0
3084106	REC_WORD	wordpools/wasnorm_wordpool_576.txt	LTP304	ltpFR2	12	13	PILOT	1070	n/a	n/a	0	0	0
3087835	REC_WORD	wordpools/wasnorm_wordpool_576.txt	LTP304	ltpFR2	12	13	WRENCH	1625	n/a	n/a	0	0	0
3088520	REC_WORD	wordpools/wasnorm_wordpool_576.txt	LTP304	ltpFR2	12	13	BODY	145	n/a	n/a	0	0	0
3094698	REC_WORD	wordpools/wasnorm_wordpool_576.txt	LTP304	ltpFR2	12	13	KEEPER	769	n/a	n/a	0	0	0
3098953	REC_WORD	wordpools/wasnorm_wordpool_576.txt	LTP304	ltpFR2	12	13	PICNIC	1060	n/a	n/a	0	0	0
3109960	REC_WORD	wordpools/wasnorm_wordpool_576.txt	LTP304	ltpFR2	12	13	APRON	35	n/a	n/a	0	0	0
3114580	REC_WORD	wordpools/wasnorm_wordpool_576.txt	LTP304	ltpFR2	12	13	GAVEL	627	n/a	n/a	0	0	0
3158168	WORD	wordpools/wasnorm_wordpool_576.txt	LTP304	ltpFR2	12	14	DRUG	501	n/a	n/a	0	0	0
3160616	WORD	wordpools/wasnorm_wordpool_576.txt	LTP304	ltpFR2	12	14	OFFICE	972	n/a	n/a	0	0	0
3163383	WORD	wordpools/wasnorm_wordpool_576.txt	LTP304	ltpFR2	12	14	WORKER	1621	n/a	n/a	0	0	0
3166153	WORD	wordpools/wasnorm_wordpool_576.txt	LTP304	ltpFR2	12	14	HORNET	718	n/a	n/a	0	0	0
3168956	WORD	wordpools/wasnorm_wordpool_576.txt	LTP304	ltpFR2	12	14	CRAYON	401	n/a	n/a	0	0	0
3171726	WORD	wordpools/wasnorm_wordpool_576.txt	LTP304	ltpFR2	12	14	SPOON	1357	n/a	n/a	0	0	0
3174360	WORD	wordpools/wasnorm_wordpool_576.txt	LTP304	ltpFR2	12	14	GRAVEL	659	n/a	n/a	0	0	0
3176963	WORD	wordpools/wasnorm_wordpool_576.txt	LTP304	ltpFR2	12	14	WASP	1593	n/a	n/a	0	0	0
3179649	WORD	wordpools/wasnorm_wordpool_576.txt	LTP304	ltpFR2	12	14	AGENT	10	n/a	n/a	0	0	0
3182121	WORD	wordpools/wasnorm_wordpool_576.txt	LTP304	ltpFR2	12	14	PISTOL	1075	n/a	n/a	0	0	0
3184719	WORD	wordpools/wasnorm_wordpool_576.txt	LTP304	ltpFR2	12	14	BULLET	194	n/a	n/a	0	0	0
3187425	WORD	wordpools/wasnorm_wordpool_576.txt	LTP304	ltpFR2	12	14	MAPLE	866	n/a	n/a	0	0	0
3190111	WORD	wordpools/wasnorm_wordpool_576.txt	LTP304	ltpFR2	12	14	HONEY	713	n/a	n/a	0	0	0
3192660	WORD	wordpools/wasnorm_wordpool_576.txt	LTP304	ltpFR2	12	14	STREAM	1392	n/a	n/a	0	0	0
3195262	WORD	wordpools/wasnorm_wordpool_576.txt	LTP304	ltpFR2	12	14	RACKET	1155	n/a	n/a	0	0	0
3197715	WORD	wordpools/wasnorm_wordpool_576.txt	LTP304	ltpFR2	12	14	LUNCH	849	n/a	n/a	0	0	0
3200349	WORD	wordpools/wasnorm_wordpool_576.txt	LTP304	ltpFR2	12	14	GALLON	618	n/a	n/a	0	0	0
3202920	WORD	wordpools/wasnorm_wordpool_576.txt	LTP304	ltpFR2	12	14	OINTMENT	974	n/a	n/a	0	0	0
3205671	WORD	wordpools/wasnorm_wordpool_576.txt	LTP304	ltpFR2	12	14	COUCH	386	n/a	n/a	0	0	0
3208357	WORD	wordpools/wasnorm_wordpool_576.txt	LTP304	ltpFR2	12	14	JELLO	754	n/a	n/a	0	0	0
3210792	WORD	wordpools/wasnorm_wordpool_576.txt	LTP304	ltpFR2	12	14	CUSTARD	429	n/a	n/a	0	0	0
3213461	WORD	wordpools/wasnorm_wordpool_576.txt	LTP304	ltpFR2	12	14	PASTRY	1022	n/a	n/a	0	0	0
3216246	WORD	wordpools/wasnorm_wordpool_576.txt	LTP304	ltpFR2	12	14	TABLE	1426	n/a	n/a	0	0	0
3218967	WORD	wordpools/wasnorm_wordpool_576.txt	LTP304	ltpFR2	12	14	GRILL	661	n/a	n/a	0	0	0
3220586	START	n/a	LTP304	ltpFR2	12	n/a	n/a	n/a	24	n/a	n/a	n/a	n/a
3221746	DISTRACTOR	n/a	LTP304	ltpFR2	12	14	n/a	n/a	n/a	n/a	0	0	0
3221752	PROB	n/a	LTP304	ltpFR2	12	n/a	n/a	n/a	24	22	3	9	9
3223603	PROB	n/a	LTP304	ltpFR2	12	n/a	n/a	n/a	24	11	1	3	7
3224890	PROB	n/a	LTP304	ltpFR2	12	n/a	n/a	n/a	24	17	3	5	9
3227341	PROB	n/a	LTP304	ltpFR2	12	n/a	n/a	n/a	24	22	9	6	7
3230008	PROB	n/a	LTP304	ltpFR2	12	n/a	n/a	n/a	24	21	5	7	9
3233562	PROB	n/a	LTP304	ltpFR2	12	n/a	n/a	n/a	24	15	9	5	1
3235580	PROB	n/a	LTP304	ltpFR2	12	n/a	n/a	n/a	24	17	3	8	6
3238616	PROB	n/a	LTP304	ltpFR2	12	n/a	n/a	n/a	24	16	7	7	2
3241434	PROB	n/a	LTP304	ltpFR2	12	n/a	n/a	n/a	24	12	3	1	8
3243962	STOP	n/a	LTP304	ltpFR2	12	n/a	n/a	n/a	24	n/a	n/a	n/a	n/a
3246524	REC_START	n/a	LTP304	ltpFR2	12	14	n/a	n/a	n/a	n/a	0	0	0
3248947	REC_WORD	wordpools/wasnorm_wordpool_576.txt	LTP304	ltpFR2	12	14	DRUG	501	n/a	n/a	0	0	0
3249489	REC_WORD	wordpools/wasnorm_wordpool_576.txt	LTP304	ltpFR2	12	14	OFFICE	972	n/a	n/a	0	0	0
3249958	REC_WORD	wordpools/wasnorm_wordpool_576.txt	LTP304	ltpFR2	12	14	WORKER	1621	n/a	n/a	0	0	0
3252599	REC_WORD	wordpools/wasnorm_wordpool_576.txt	LTP304	ltpFR2	12	14	CRAYON	401	n/a	n/a	0	0	0
3253753	REC_WORD	wordpools/wasnorm_wordpool_576.txt	LTP304	ltpFR2	12	14	GRAVEL	659	n/a	n/a	0	0	0
3255740	REC_WORD	wordpools/wasnorm_wordpool_576.txt	LTP304	ltpFR2	12	14	SPOON	1357	n/a	n/a	0	0	0
3257472	REC_WORD	wordpools/wasnorm_wordpool_576.txt	LTP304	ltpFR2	12	14	HORNET	718	n/a	n/a	0	0	0
3258979	REC_WORD	wordpools/wasnorm_wordpool_576.txt	LTP304	ltpFR2	12	14	WASP	1593	n/a	n/a	0	0	0
3259590	REC_WORD	wordpools/wasnorm_wordpool_576.txt	LTP304	ltpFR2	12	14	HONEY	713	n/a	n/a	0	0	0
3261775	REC_WORD	wordpools/wasnorm_wordpool_576.txt	LTP304	ltpFR2	12	14	MAPLE	866	n/a	n/a	0	0	0
3264512	REC_WORD	wordpools/wasnorm_wordpool_576.txt	LTP304	ltpFR2	12	14	AGENT	10	n/a	n/a	0	0	0
3265252	REC_WORD	wordpools/wasnorm_wordpool_576.txt	LTP304	ltpFR2	12	14	PISTOL	1075	n/a	n/a	0	0	0
3268992	REC_WORD	wordpools/wasnorm_wordpool_576.txt	LTP304	ltpFR2	12	14	BULLET	194	n/a	n/a	0	0	0
3272609	REC_WORD	wordpools/wasnorm_wordpool_576.txt	LTP304	ltpFR2	12	14	GALLON	618	n/a	n/a	0	0	0
3273131	REC_WORD	wordpools/wasnorm_wordpool_576.txt	LTP304	ltpFR2	12	14	OINTMENT	974	n/a	n/a	0	0	0
3274841	REC_WORD	wordpools/wasnorm_wordpool_576.txt	LTP304	ltpFR2	12	14	LUNCH	849	n/a	n/a	0	0	0
3277461	REC_WORD	wordpools/wasnorm_wordpool_576.txt	LTP304	ltpFR2	12	14	CREEK	404	n/a	n/a	0	0	0
3278060	REC_WORD_VV	wordpools/wasnorm_wordpool_576.txt	LTP304	ltpFR2	12	14	<>	-1	n/a	n/a	0	0	0
3278908	REC_WORD	wordpools/wasnorm_wordpool_576.txt	LTP304	ltpFR2	12	14	STREAM	1392	n/a	n/a	0	0	0
3281211	REC_WORD	wordpools/wasnorm_wordpool_576.txt	LTP304	ltpFR2	12	14	RACKET	1155	n/a	n/a	0	0	0
3293079	REC_WORD	wordpools/wasnorm_wordpool_576.txt	LTP304	ltpFR2	12	14	COUCH	386	n/a	n/a	0	0	0
3314324	REC_WORD	wordpools/wasnorm_wordpool_576.txt	LTP304	ltpFR2	12	14	DRAWER	493	n/a	n/a	0	0	0
3336962	WORD	wordpools/wasnorm_wordpool_576.txt	LTP304	ltpFR2	12	15	MONEY	908	n/a	n/a	0	0	0
3339589	WORD	wordpools/wasnorm_wordpool_576.txt	LTP304	ltpFR2	12	15	CATTLE	261	n/a	n/a	0	0	0
3342183	WORD	wordpools/wasnorm_wordpool_576.txt	LTP304	ltpFR2	12	15	SPOUSE	1358	n/a	n/a	0	0	0
3344753	WORD	wordpools/wasnorm_wordpool_576.txt	LTP304	ltpFR2	12	15	POWDER	1117	n/a	n/a	0	0	0
3347228	WORD	wordpools/wasnorm_wordpool_576.txt	LTP304	ltpFR2	12	15	PLAID	1080	n/a	n/a	0	0	0
3349974	WORD	wordpools/wasnorm_wordpool_576.txt	LTP304	ltpFR2	12	15	CLOTHES	327	n/a	n/a	0	0	0
3352700	WORD	wordpools/wasnorm_wordpool_576.txt	LTP304	ltpFR2	12	15	TOASTER	1472	n/a	n/a	0	0	0
3355160	WORD	wordpools/wasnorm_wordpool_576.txt	LTP304	ltpFR2	12	15	KNIFE	785	n/a	n/a	0	0	0
3357805	WORD	wordpools/wasnorm_wordpool_576.txt	LTP304	ltpFR2	12	15	HATCHET	691	n/a	n/a	0	0	0
3360489	WORD	wordpools/wasnorm_wordpool_576.txt	LTP304	ltpFR2	12	15	SPOOL	1356	n/a	n/a	0	0	0
3363199	WORD	wordpools/wasnorm_wordpool_576.txt	LTP304	ltpFR2	12	15	SKIRT	1319	n/a	n/a	0	0	0
3365895	WORD	wordpools/wasnorm_wordpool_576.txt	LTP304	ltpFR2	12	15	OYSTER	995	n/a	n/a	0	0	0
3368371	WORD	wordpools/wasnorm_wordpool_576.txt	LTP304	ltpFR2	12	15	CUPBOARD	425	n/a	n/a	0	0	0
3371090	WORD	wordpools/wasnorm_wordpool_576.txt	LTP304	ltpFR2	12	15	NIGHTGOWN	953	n/a	n/a	0	0	0
3373709	WORD	wordpools/wasnorm_wordpool_576.txt	LTP304	ltpFR2	12	15	WASHER	1592	n/a	n/a	0	0	0
3376160	WORD	wordpools/wasnorm_wordpool_576.txt	LTP304	ltpFR2	12	15	SCALPEL	1243	n/a	n/a	0	0	0
3378647	WORD	wordpools/wasnorm_wordpool_576.txt	LTP304	ltpFR2	12	15	LADDER	793	n/a	n/a	0	0	0
3381207	WORD	wordpools/wasnorm_wordpool_576.txt	LTP304	ltpFR2	12	15	ROBOT	1200	n/a	n/a	0	0	0
3383800	WORD	wordpools/wasnorm_wordpool_576.txt	LTP304	ltpFR2	12	15	PAIL	1002	n/a	n/a	0	0	0
3386334	WORD	wordpools/wasnorm_wordpool_576.txt	LTP304	ltpFR2	12	15	WRIST	1626	n/a	n/a	0	0	0
3388831	WORD	wordpools/wasnorm_wordpool_576.txt	LTP304	ltpFR2	12	15	SHOULDER	1294	n/a	n/a	0	0	0
3391617	WORD	wordpools/wasnorm_wordpool_576.txt	LTP304	ltpFR2	12	15	PLATE	1086	n/a	n/a	0	0	0
3394375	WORD	wordpools/wasnorm_wordpool_576.txt	LTP304	ltpFR2	12	15	PAPER	1011	n/a	n/a	0	0	0
3396954	WORD	wordpools/wasnorm_wordpool_576.txt	LTP304	ltpFR2	12	15	PARROT	1015	n/a	n/a	0	0	0
3398564	START	n/a	LTP304	ltpFR2	12	n/a	n/a	n/a	25	n/a	n/a	n/a	n/a
3399481	DISTRACTOR	n/a	LTP304	ltpFR2	12	15	n/a	n/a	n/a	n/a	0	0	0
3399490	PROB	n/a	LTP304	ltpFR2	12	n/a	n/a	n/a	25	24	9	7	8
3403064	PROB	n/a	LTP304	ltpFR2	12	n/a	n/a	n/a	25	12	2	9	1
3404382	PROB	n/a	LTP304	ltpFR2	12	n/a	n/a	n/a	25	24	5	9	9
3406835	PROB	n/a	LTP304	ltpFR2	12	n/a	n/a	n/a	25	27	9	9	9
3410153	PROB	n/a	LTP304	ltpFR2	12	n/a	n/a	n/a	25	13	3	9	1
3411571	PROB	n/a	LTP304	ltpFR2	12	n/a	n/a	n/a	25	15	2	6	7
3413490	PROB	n/a	LTP304	ltpFR2	12	n/a	n/a	n/a	25	22	4	9	9
3415274	PROB	n/a	LTP304	ltpFR2	12	n/a	n/a	n/a	25	13	2	6	5
3417243	PROB	n/a	LTP304	ltpFR2	12	n/a	n/a	n/a	25	21	7	9	5
3420513	PROB	n/a	LTP304	ltpFR2	12	n/a	n/a	n/a	25	15	5	5	5
3421569	STOP	n/a	LTP304	ltpFR2	12	n/a	n/a	n/a	25	n/a	n/a	n/a	n/a
3424450	REC_START	n/a	LTP304	ltpFR2	12	15	n/a	n/a	n/a	n/a	0	0	0
3426196	REC_WORD	wordpools/wasnorm_wordpool_576.txt	LTP304	ltpFR2	12	15	TOASTER	1472	n/a	n/a	0	0	0
3426792	REC_WORD	wordpools/wasnorm_wordpool_576.txt	LTP304	ltpFR2	12	15	SPOOL	1356	n/a	n/a	0	0	0
3427720	REC_WORD	wordpools/wasnorm_wordpool_576.txt	LTP304	ltpFR2	12	15	HATCHET	691	n/a	n/a	0	0	0
3428457	REC_WORD	wordpools/wasnorm_wordpool_576.txt	LTP304	ltpFR2	12	15	KNIFE	785	n/a	n/a	0	0	0
3429275	REC_WORD	wordpools/wasnorm_wordpool_576.txt	LTP304	ltpFR2	12	15	PAPER	1011	n/a	n/a	0	0	0
3429777	REC_WORD	wordpools/wasnorm_wordpool_576.txt	LTP304	ltpFR2	12	15	PLATE	1086	n/a	n/a	0	0	0
3430440	REC_WORD	wordpools/wasnorm_wordpool_576.txt	LTP304	ltpFR2	12	15	PARROT	1015	n/a	n/a	0	0	0
3435481	REC_WORD	wordpools/wasnorm_wordpool_576.txt	LTP304	ltpFR2	12	15	MONEY	908	n/a	n/a	0	0	0
3437046	REC_WORD	wordpools/wasnorm_wordpool_576.txt	LTP304	ltpFR2	12	15	CATTLE	261	n/a	n/a	0	0	0
3437832	REC_WORD	wordpools/wasnorm_wordpool_576.txt	LTP304	ltpFR2	12	15	SPOUSE	1358	n/a	n/a	0	0	0
3438911	REC_WORD	wordpools/wasnorm_wordpool_576.txt	LTP304	ltpFR2	12	15	POWDER	1117	n/a	n/a	0	0	0
3441453	REC_WORD	wordpools/wasnorm_wordpool_576.txt	LTP304	ltpFR2	12	15	SHIRT	1287	n/a	n/a	0	0	0
3442720	REC_WORD	wordpools/wasnorm_wordpool_576.txt	LTP304	ltpFR2	12	15	PLAID	1080	n/a	n/a	0	0	0
3463232	REC_WORD	wordpools/wasnorm_wordpool_576.txt	LTP304	ltpFR2	12	15	OYSTER	995	n/a	n/a	0	0	0
3465104	REC_WORD	wordpools/wasnorm_wordpool_576.txt	LTP304	ltpFR2	12	15	CUPBOARD	425	n/a	n/a	0	0	0
3514922	WORD	wordpools/wasnorm_wordpool_576.txt	LTP304	ltpFR2	12	16	SCULPTURE	1258	n/a	n/a	0	0	0
3517708	WORD	wordpools/wasnorm_wordpool_576.txt	LTP304	ltpFR2	12	16	SPHINX	1349	n/a	n/a	0	0	0
3520362	WORD	wordpools/wasnorm_wordpool_576.txt	LTP304	ltpFR2	12	16	VALLEY	1545	n/a	n/a	0	0	0
3523029	WORD	wordpools/wasnorm_wordpool_576.txt	LTP304	ltpFR2	12	16	SUMMIT	1405	n/a	n/a	0	0	0
3525781	WORD	wordpools/wasnorm_wordpool_576.txt	LTP304	ltpFR2	12	16	MAMMAL	861	n/a	n/a	0	0	0
3528266	WORD	wordpools/wasnorm_wordpool_576.txt	LTP304	ltpFR2	12	16	SADDLE	1221	n/a	n/a	0	0	0
3531052	WORD	wordpools/wasnorm_wordpool_576.txt	LTP304	ltpFR2	12	16	BLOUSE	139	n/a	n/a	0	0	0
3533855	WORD	wordpools/wasnorm_wordpool_576.txt	LTP304	ltpFR2	12	16	PORK	1108	n/a	n/a	0	0	0
3536660	WORD	wordpools/wasnorm_wordpool_576.txt	LTP304	ltpFR2	12	16	APPLE	33	n/a	n/a	0	0	0
3539441	WORD	wordpools/wasnorm_wordpool_576.txt	LTP304	ltpFR2	12	16	SIBLING	1301	n/a	n/a	0	0	0
3542098	WORD	wordpools/wasnorm_wordpool_576.txt	LTP304	ltpFR2	12	16	LASER	801	n/a	n/a	0	0	0
3544613	WORD	wordpools/wasnorm_wordpool_576.txt	LTP304	ltpFR2	12	16	FLASHLIGHT	575	n/a	n/a	0	0	0
3547402	WORD	wordpools/wasnorm_wordpool_576.txt	LTP304	ltpFR2	12	16	WAGON	1578	n/a	n/a	0	0	0
3550138	WORD	wordpools/wasnorm_wordpool_576.txt	LTP304	ltpFR2	12	16	MOTOR	922	n/a	n/a	0	0	0
3552803	WORD	wordpools/wasnorm_wordpool_576.txt	LTP304	ltpFR2	12	16	CLAMP	316	n/a	n/a	0	0	0
3555544	WORD	wordpools/wasnorm_wordpool_576.txt	LTP304	ltpFR2	12	16	LIZARD	834	n/a	n/a	0	0	0
3558140	WORD	wordpools/wasnorm_wordpool_576.txt	LTP304	ltpFR2	12	16	CHAUFFEUR	283	n/a	n/a	0	0	0
3560897	WORD	wordpools/wasnorm_wordpool_576.txt	LTP304	ltpFR2	12	16	PASTA	1021	n/a	n/a	0	0	0
3563450	WORD	wordpools/wasnorm_wordpool_576.txt	LTP304	ltpFR2	12	16	DRINK	498	n/a	n/a	0	0	0
3565880	WORD	wordpools/wasnorm_wordpool_576.txt	LTP304	ltpFR2	12	16	HAMPER	682	n/a	n/a	0	0	0
3568638	WORD	wordpools/wasnorm_wordpool_576.txt	LTP304	ltpFR2	12	16	BROTHER	179	n/a	n/a	0	0	0
3571233	WORD	wordpools/wasnorm_wordpool_576.txt	LTP304	ltpFR2	12	16	PENGUIN	1044	n/a	n/a	0	0	0
3573876	WORD	wordpools/wasnorm_wordpool_576.txt	LTP304	ltpFR2	12	16	COSTUME	383	n/a	n/a	0	0	0
3576471	WORD	wordpools/wasnorm_wordpool_576.txt	LTP304	ltpFR2	12	16	PARTNER	1017	n/a	n/a	0	0	0
3578080	START	n/a	LTP304	ltpFR2	12	n/a	n/a	n/a	26	n/a	n/a	n/a	n/a
3579255	DISTRACTOR	n/a	LTP304	ltpFR2	12	16	n/a	n/a	n/a	n/a	0	0	0
3579263	PROB	n/a	LTP304	ltpFR2	12	n/a	n/a	n/a	26	6	2	3	1
3582108	PROB	n/a	LTP304	ltpFR2	12	n/a	n/a	n/a	26	24	9	6	9
3584259	PROB	n/a	LTP304	ltpFR2	12	n/a	n/a	n/a	26	12	1	8	3
3586512	PROB	n/a	LTP304	ltpFR2	12	n/a	n/a	n/a	26	12	5	2	5
3587964	PROB	n/a	LTP304	ltpFR2	12	n/a	n/a	n/a	26	15	9	2	4
3589699	PROB	n/a	LTP304	ltpFR2	12	n/a	n/a	n/a	26	9	2	1	6
3591935	PROB	n/a	LTP304	ltpFR2	12	n/a	n/a	n/a	26	14	6	2	6
3593768	PROB	n/a	LTP304	ltpFR2	12	n/a	n/a	n/a	26	5	3	1	1
3595285	PROB	n/a	LTP304	ltpFR2	12	n/a	n/a	n/a	26	18	2	9	7
3597203	PROB	n/a	LTP304	ltpFR2	12	n/a	n/a	n/a	26	11	4	6	1
3598540	PROB	n/a	LTP304	ltpFR2	12	n/a	n/a	n/a	26	14	7	4	3
3602080	STOP	n/a	LTP304	ltpFR2	12	n/a	n/a	n/a	26	n/a	n/a	n/a	n/a
3603960	REC_START	n/a	LTP304	ltpFR2	12	16	n/a	n/a	n/a	n/a	0	0	0
3622659	REC_WORD	wordpools/wasnorm_wordpool_576.txt	LTP304	ltpFR2	12	16	SCULPTURE	1258	n/a	n/a	0	0	0
3623372	REC_WORD	wordpools/wasnorm_wordpool_576.txt	LTP304	ltpFR2	12	16	SPHINX	1349	n/a	n/a	0	0	0
3624298	REC_WORD	wordpools/wasnorm_wordpool_576.txt	LTP304	ltpFR2	12	16	SUMMIT	1405	n/a	n/a	0	0	0
3626537	REC_WORD	wordpools/wasnorm_wordpool_576.txt	LTP304	ltpFR2	12	16	MAMMAL	861	n/a	n/a	0	0	0
3628853	REC_WORD	wordpools/wasnorm_wordpool_576.txt	LTP304	ltpFR2	12	16	SADDLE	1221	n/a	n/a	0	0	0
3634559	REC_WORD	wordpools/wasnorm_wordpool_576.txt	LTP304	ltpFR2	12	16	BLOUSE	139	n/a	n/a	0	0	0
3635474	REC_WORD	wordpools/wasnorm_wordpool_576.txt	LTP304	ltpFR2	12	16	SIBLING	1301	n/a	n/a	0	0	0
3640555	REC_WORD	wordpools/wasnorm_wordpool_576.txt	LTP304	ltpFR2	12	16	PORK	1108	n/a	n/a	0	0	0
3641001	REC_WORD	wordpools/wasnorm_wordpool_576.txt	LTP304	ltpFR2	12	16	SANDWICH	1232	n/a	n/a	0	0	0
3642874	REC_WORD_VV	wordpools/wasnorm_wordpool_576.txt	LTP304	ltpFR2	12	16	<>	-1	n/a	n/a	0	0	0
3643534	REC_WORD	wordpools/wasnorm_wordpool_576.txt	LTP304	ltpFR2	12	16	PORK	1108	n/a	n/a	0	0	0
3643967	REC_WORD	wordpools/wasnorm_wordpool_576.txt	LTP304	ltpFR2	12	16	APPLE	33	n/a	n/a	0	0	0
3671665	REC_WORD	wordpools/wasnorm_wordpool_576.txt	LTP304	ltpFR2	12	16	WAGON	1578	n/a	n/a	0	0	0
3673432	REC_WORD	wordpools/wasnorm_wordpool_576.txt	LTP304	ltpFR2	12	16	MOTOR	922	n/a	n/a	0	0	0
3680502	REST_REWET	n/a	LTP304	ltpFR2	12	16	n/a	n/a	n/a	n/a	0	0	0
3975843	DISTRACTOR	n/a	LTP304	ltpFR2	12	17	n/a	n/a	n/a	n/a	0	0	0
3975843	START	n/a	LTP304	ltpFR2	12	n/a	n/a	n/a	27	n/a	n/a	n/a	n/a
3975858	PROB	n/a	LTP304	ltpFR2	12	n/a	n/a	n/a	27	14	7	3	4
3977509	PROB	n/a	LTP304	ltpFR2	12	n/a	n/a	n/a	27	15	4	5	6
3979728	PROB	n/a	LTP304	ltpFR2	12	n/a	n/a	n/a	27	13	1	4	8
3982145	PROB	n/a	LTP304	ltpFR2	12	n/a	n/a	n/a	27	16	8	5	3
3983581	PROB	n/a	LTP304	ltpFR2	12	n/a	n/a	n/a	27	18	3	7	8
3984998	PROB	n/a	LTP304	ltpFR2	12	n/a	n/a	n/a	27	16	3	9	4
3987533	PROB	n/a	LTP304	ltpFR2	12	n/a	n/a	n/a	27	17	3	6	8
3989553	PROB	n/a	LTP304	ltpFR2	12	n/a	n/a	n/a	27	13	9	3	1
3991303	PROB	n/a	LTP304	ltpFR2	12	n/a	n/a	n/a	27	8	1	1	6
3992453	PROB	n/a	LTP304	ltpFR2	12	n/a	n/a	n/a	27	25	8	8	9
3994123	PROB	n/a	LTP304	ltpFR2	12	n/a	n/a	n/a	27	10	1	4	5
3995306	PROB	n/a	LTP304	ltpFR2	12	n/a	n/a	n/a	27	20	5	8	7
3997358	PROB	n/a	LTP304	ltpFR2	12	n/a	n/a	n/a	27	14	1	9	4
3998463	STOP	n/a	LTP304	ltpFR2	12	n/a	n/a	n/a	27	n/a	n/a	n/a	n/a
4000947	WORD	wordpools/wasnorm_wordpool_576.txt	LTP304	ltpFR2	12	17	FRAME	600	n/a	n/a	0	0	0
4003614	WORD	wordpools/wasnorm_wordpool_576.txt	LTP304	ltpFR2	12	17	PICTURE	1061	n/a	n/a	0	0	0
4006349	WORD	wordpools/wasnorm_wordpool_576.txt	LTP304	ltpFR2	12	17	FIDDLE	561	n/a	n/a	0	0	0
4008936	WORD	wordpools/wasnorm_wordpool_576.txt	LTP304	ltpFR2	12	17	HOOK	715	n/a	n/a	0	0	0
4011737	WORD	wordpools/wasnorm_wordpool_576.txt	LTP304	ltpFR2	12	17	MARINE	869	n/a	n/a	0	0	0
4014523	WORD	wordpools/wasnorm_wordpool_576.txt	LTP304	ltpFR2	12	17	DENIM	446	n/a	n/a	0	0	0
4017058	WORD	wordpools/wasnorm_wordpool_576.txt	LTP304	ltpFR2	12	17	OUTFIT	988	n/a	n/a	0	0	0
4019527	WORD	wordpools/wasnorm_wordpool_576.txt	LTP304	ltpFR2	12	17	TURKEY	1520	n/a	n/a	0	0	0
4022095	WORD	wordpools/wasnorm_wordpool_576.txt	LTP304	ltpFR2	12	17	BATHTUB	100	n/a	n/a	0	0	0
4024602	WORD	wordpools/wasnorm_wordpool_576.txt	LTP304	ltpFR2	12	17	CASHEW	253	n/a	n/a	0	0	0
4027032	WORD	wordpools/wasnorm_wordpool_576.txt	LTP304	ltpFR2	12	17	ROBIN	1199	n/a	n/a	0	0	0
4029752	WORD	wordpools/wasnorm_wordpool_576.txt	LTP304	ltpFR2	12	17	PUPPY	1144	n/a	n/a	0	0	0
4032287	WORD	wordpools/wasnorm_wordpool_576.txt	LTP304	ltpFR2	12	17	BRIEFCASE	175	n/a	n/a	0	0	0
4035005	WORD	wordpools/wasnorm_wordpool_576.txt	LTP304	ltpFR2	12	17	ZIPPER	1636	n/a	n/a	0	0	0
4037759	WORD	wordpools/wasnorm_wordpool_576.txt	LTP304	ltpFR2	12	17	RUG	1215	n/a	n/a	0	0	0
4040343	WORD	wordpools/wasnorm_wordpool_576.txt	LTP304	ltpFR2	12	17	GROUND	666	n/a	n/a	0	0	0
4042947	WORD	wordpools/wasnorm_wordpool_576.txt	LTP304	ltpFR2	12	17	CROSS	413	n/a	n/a	0	0	0
4045381	WORD	wordpools/wasnorm_wordpool_576.txt	LTP304	ltpFR2	12	17	JAPAN	749	n/a	n/a	0	0	0
4048065	WORD	wordpools/wasnorm_wordpool_576.txt	LTP304	ltpFR2	12	17	CORAL	378	n/a	n/a	0	0	0
4050669	WORD	wordpools/wasnorm_wordpool_576.txt	LTP304	ltpFR2	12	17	LIGHTNING	820	n/a	n/a	0	0	0
4053160	WORD	wordpools/wasnorm_wordpool_576.txt	LTP304	ltpFR2	12	17	PIGEON	1065	n/a	n/a	0	0	0
4055624	WORD	wordpools/wasnorm_wordpool_576.txt	LTP304	ltpFR2	12	17	PUDDLE	1140	n/a	n/a	0	0	0
4058375	WORD	wordpools/wasnorm_wordpool_576.txt	LTP304	ltpFR2	12	17	VAGRANT	1544	n/a	n/a	0	0	0
4060801	WORD	wordpools/wasnorm_wordpool_576.txt	LTP304	ltpFR2	12	17	AIRPORT	13	n/a	n/a	0	0	0
4062411	START	n/a	LTP304	ltpFR2	12	n/a	n/a	n/a	28	n/a	n/a	n/a	n/a
4063322	DISTRACTOR	n/a	LTP304	ltpFR2	12	17	n/a	n/a	n/a	n/a	0	0	0
4063329	PROB	n/a	LTP304	ltpFR2	12	n/a	n/a	n/a	28	7	3	2	2
4065982	PROB	n/a	LTP304	ltpFR2	12	n/a	n/a	n/a	28	19	6	7	6
4068215	PROB	n/a	LTP304	ltpFR2	12	n/a	n/a	n/a	28	7	2	1	4
4070132	PROB	n/a	LTP304	ltpFR2	12	n/a	n/a	n/a	28	15	4	7	4
4072019	PROB	n/a	LTP304	ltpFR2	12	n/a	n/a	n/a	28	10	4	1	5
4073253	PROB	n/a	LTP304	ltpFR2	12	n/a	n/a	n/a	28	15	2	6	7
4075320	PROB	n/a	LTP304	ltpFR2	12	n/a	n/a	n/a	28	11	4	1	6
4076890	PROB	n/a	LTP304	ltpFR2	12	n/a	n/a	n/a	28	7	1	1	5
4077991	PROB	n/a	LTP304	ltpFR2	12	n/a	n/a	n/a	28	12	3	8	1
4080057	PROB	n/a	LTP304	ltpFR2	12	n/a	n/a	n/a	28	17	8	6	3
4081876	PROB	n/a	LTP304	ltpFR2	12	n/a	n/a	n/a	28	9	2	4	3
4086410	STOP	n/a	LTP304	ltpFR2	12	n/a	n/a	n/a	28	n/a	n/a	n/a	n/a
4088315	REC_START	n/a	LTP304	ltpFR2	12	17	n/a	n/a	n/a	n/a	0	0	0
4089934	REC_WORD	wordpools/wasnorm_wordpool_576.txt	LTP304	ltpFR2	12	17	FRAME	600	n/a	n/a	0	0	0
4090559	REC_WORD	wordpools/wasnorm_wordpool_576.txt	LTP304	ltpFR2	12	17	PICTURE	1061	n/a	n/a	0	0	0
4093185	REC_WORD	wordpools/wasnorm_wordpool_576.txt	LTP304	ltpFR2	12	17	MARINE	869	n/a	n/a	0	0	0
4094602	REC_WORD	wordpools/wasnorm_wordpool_576.txt	LTP304	ltpFR2	12	17	DENIM	446	n/a	n/a	0	0	0
4095049	REC_WORD	wordpools/wasnorm_wordpool_576.txt	LTP304	ltpFR2	12	17	OUTFIT	988	n/a	n/a	0	0	0
4095692	REC_WORD	wordpools/wasnorm_wordpool_576.txt	LTP304	ltpFR2	12	17	BATHTUB	100	n/a	n/a	0	0	0
4096284	REC_WORD	wordpools/wasnorm_wordpool_576.txt	LTP304	ltpFR2	12	17	TURKEY	1520	n/a	n/a	0	0	0
4098206	REC_WORD	wordpools/wasnorm_wordpool_576.txt	LTP304	ltpFR2	12	17	PECAN	1036	n/a	n/a	0	0	0
4100632	REC_WORD_VV	wordpools/wasnorm_wordpool_576.txt	LTP304	ltpFR2	12	17	<>	-1	n/a	n/a	0	0	0
4100811	REC_WORD	wordpools/wasnorm_wordpool_576.txt	LTP304	ltpFR2	12	17	FIDDLE	561	n/a	n/a	0	0	0
4104277	REC_WORD	wordpools/wasnorm_wordpool_576.txt	LTP304	ltpFR2	12	17	AIRPORT	13	n/a	n/a	0	0	0
4178755	DISTRACTOR	n/a	LTP304	ltpFR2	12	18	n/a	n/a	n/a	n/a	0	0	0
4178755	START	n/a	LTP304	ltpFR2	12	n/a	n/a	n/a	29	n/a	n/a	n/a	n/a
4178772	PROB	n/a	LTP304	ltpFR2	12	n/a	n/a	n/a	29	19	7	8	4
4181688	PROB	n/a	LTP304	ltpFR2	12	n/a	n/a	n/a	29	17	7	9	1
4183089	PROB	n/a	LTP304	ltpFR2	12	n/a	n/a	n/a	29	15	3	9	3
4184776	PROB	n/a	LTP304	ltpFR2	12	n/a	n/a	n/a	29	20	5	8	7
4186779	PROB	n/a	LTP304	ltpFR2	12	n/a	n/a	n/a	29	15	7	4	4
4188426	PROB	n/a	LTP304	ltpFR2	12	n/a	n/a	n/a	29	17	6	3	7
4189911	PROB	n/a	LTP304	ltpFR2	12	n/a	n/a	n/a	29	16	2	9	5
4192832	PROB	n/a	LTP304	ltpFR2	12	n/a	n/a	n/a	29	20	9	6	5
4195283	PROB	n/a	LTP304	ltpFR2	12	n/a	n/a	n/a	29	11	5	4	2
4197235	PROB	n/a	LTP304	ltpFR2	12	n/a	n/a	n/a	29	17	5	8	3
4199103	PROB	n/a	LTP304	ltpFR2	12	n/a	n/a	n/a	29	18	7	3	8
4202755	STOP	n/a	LTP304	ltpFR2	12	n/a	n/a	n/a	29	n/a	n/a	n/a	n/a
4203792	WORD	wordpools/wasnorm_wordpool_576.txt	LTP304	ltpFR2	12	18	COWBOY	395	n/a	n/a	0	0	0
4206460	WORD	wordpools/wasnorm_wordpool_576.txt	LTP304	ltpFR2	12	18	ACTOR	5	n/a	n/a	0	0	0
4209044	WORD	wordpools/wasnorm_wordpool_576.txt	LTP304	ltpFR2	12	18	YARN	1631	n/a	n/a	0	0	0
4211548	WORD	wordpools/wasnorm_wordpool_576.txt	LTP304	ltpFR2	12	18	STALLION	1369	n/a	n/a	0	0	0
4214049	WORD	wordpools/wasnorm_wordpool_576.txt	LTP304	ltpFR2	12	18	EGYPT	519	n/a	n/a	0	0	0
4216869	WORD	wordpools/wasnorm_wordpool_576.txt	LTP304	ltpFR2	12	18	CROWN	415	n/a	n/a	0	0	0
4219437	WORD	wordpools/wasnorm_wordpool_576.txt	LTP304	ltpFR2	12	18	SNAIL	1332	n/a	n/a	0	0	0
4222089	WORD	wordpools/wasnorm_wordpool_576.txt	LTP304	ltpFR2	12	18	CAMEL	223	n/a	n/a	0	0	0
4224809	WORD	wordpools/wasnorm_wordpool_576.txt	LTP304	ltpFR2	12	18	HUMAN	726	n/a	n/a	0	0	0
4227460	WORD	wordpools/wasnorm_wordpool_576.txt	LTP304	ltpFR2	12	18	KETCHUP	771	n/a	n/a	0	0	0
4230145	WORD	wordpools/wasnorm_wordpool_576.txt	LTP304	ltpFR2	12	18	MILDEW	893	n/a	n/a	0	0	0
4232631	WORD	wordpools/wasnorm_wordpool_576.txt	LTP304	ltpFR2	12	18	PARSLEY	1016	n/a	n/a	0	0	0
4235399	WORD	wordpools/wasnorm_wordpool_576.txt	LTP304	ltpFR2	12	18	COFFEE	341	n/a	n/a	0	0	0
4237920	WORD	wordpools/wasnorm_wordpool_576.txt	LTP304	ltpFR2	12	18	SODA	1341	n/a	n/a	0	0	0
4240672	WORD	wordpools/wasnorm_wordpool_576.txt	LTP304	ltpFR2	12	18	VIRUS	1572	n/a	n/a	0	0	0
4243106	WORD	wordpools/wasnorm_wordpool_576.txt	LTP304	ltpFR2	12	18	POLICE	1098	n/a	n/a	0	0	0
4245559	WORD	wordpools/wasnorm_wordpool_576.txt	LTP304	ltpFR2	12	18	DIVER	476	n/a	n/a	0	0	0
4248361	WORD	wordpools/wasnorm_wordpool_576.txt	LTP304	ltpFR2	12	18	BUCKET	184	n/a	n/a	0	0	0
4250813	WORD	wordpools/wasnorm_wordpool_576.txt	LTP304	ltpFR2	12	18	COUNTY	389	n/a	n/a	0	0	0
4253381	WORD	wordpools/wasnorm_wordpool_576.txt	LTP304	ltpFR2	12	18	LOFT	840	n/a	n/a	0	0	0
4256133	WORD	wordpools/wasnorm_wordpool_576.txt	LTP304	ltpFR2	12	18	TORTOISE	1486	n/a	n/a	0	0	0
4258786	WORD	wordpools/wasnorm_wordpool_576.txt	LTP304	ltpFR2	12	18	QUEEN	1149	n/a	n/a	0	0	0
4261438	WORD	wordpools/wasnorm_wordpool_576.txt	LTP304	ltpFR2	12	18	SUNSET	1408	n/a	n/a	0	0	0
4263989	WORD	wordpools/wasnorm_wordpool_576.txt	LTP304	ltpFR2	12	18	NURSE	963	n/a	n/a	0	0	0
4265596	START	n/a	LTP304	ltpFR2	12	n/a	n/a	n/a	30	n/a	n/a	n/a	n/a
4266592	DISTRACTOR	n/a	LTP304	ltpFR2	12	18	n/a	n/a	n/a	n/a	0	0	0
4266597	PROB	n/a	LTP304	ltpFR2	12	n/a	n/a	n/a	30	14	3	7	4
4268175	PROB	n/a	LTP304	ltpFR2	12	n/a	n/a	n/a	30	23	6	8	9
4270679	PROB	n/a	LTP304	ltpFR2	12	n/a	n/a	n/a	30	21	6	7	8
4273798	PROB	n/a	LTP304	ltpFR2	12	n/a	n/a	n/a	30	7	2	3	2
4276867	PROB	n/a	LTP304	ltpFR2	12	n/a	n/a	n/a	30	17	7	6	4
4278218	PROB	n/a	LTP304	ltpFR2	12	n/a	n/a	n/a	30	9	1	2	6
4279868	PROB	n/a	LTP304	ltpFR2	12	n/a	n/a	n/a	30	19	7	4	8
4282003	PROB	n/a	LTP304	ltpFR2	12	n/a	n/a	n/a	30	12	5	1	6
4283305	PROB	n/a	LTP304	ltpFR2	12	n/a	n/a	n/a	30	4	1	2	1
4284338	PROB	n/a	LTP304	ltpFR2	12	n/a	n/a	n/a	30	8	1	2	5
4285792	PROB	n/a	LTP304	ltpFR2	12	n/a	n/a	n/a	30	18	5	9	4
4287725	PROB	n/a	LTP304	ltpFR2	12	n/a	n/a	n/a	30	15	5	9	1
4288899	STOP	n/a	LTP304	ltpFR2	12	n/a	n/a	n/a	30	n/a	n/a	n/a	n/a
4291361	REC_START	n/a	LTP304	ltpFR2	12	18	n/a	n/a	n/a	n/a	0	0	0
4293612	REC_WORD	wordpools/wasnorm_wordpool_576.txt	LTP304	ltpFR2	12	18	QUEEN	1149	n/a	n/a	0	0	0
4295188	REC_WORD	wordpools/wasnorm_wordpool_576.txt	LTP304	ltpFR2	12	18	TORTOISE	1486	n/a	n/a	0	0	0
4295755	REC_WORD	wordpools/wasnorm_wordpool_576.txt	LTP304	ltpFR2	12	18	LOFT	840	n/a	n/a	0	0	0
