mstime	trial_type	stim_file	subject	experiment	session	trial	task	item_name	item_num	recog_resp	recog_conf	resp	color_r	color_g	color_b	case	font
0	SESS_START	n/a	LTP189	ltpFR	3	n/a	n/a	n/a	n/a	1	3	n/a	n/a	n/a	n/a	n/a	n/a
61429	WORD	wordpools/wasnorm_wordpool_less_exclusions.txt	LTP189	ltpFR	3	1	1	LAUNDRY	803	1	5	0	0.422607421875	0.5869140625	0	upper	amplitud.ttf
65594	WORD	wordpools/wasnorm_wordpool_less_exclusions.txt	LTP189	ltpFR	3	1	1	PRINTER	1126	1	n/a	0	0.422607421875	0.5869140625	0	upper	amplitud.ttf
69777	WORD	wordpools/wasnorm_wordpool_less_exclusions.txt	LTP189	ltpFR	3	1	1	WASHER	1592	n/a	n/a	0	0.422607421875	0.5869140625	0	upper	amplitud.ttf
73662	WORD	wordpools/wasnorm_wordpool_less_exclusions.txt	LTP189	ltpFR	3	1	0	RAG	1160	n/a	n/a	0	0.57763671875	0.412841796875	1	lower	zerothre.ttf
77807	WORD	wordpools/wasnorm_wordpool_less_exclusions.txt	LTP189	ltpFR	3	1	0	CATCHER	258	n/a	n/a	0	0.57763671875	0.412841796875	1	lower	zerothre.ttf
81644	WORD	wordpools/wasnorm_wordpool_less_exclusions.txt	LTP189	ltpFR	3	1	0	ATHLETE	52	n/a	n/a	1	0.57763671875	0.412841796875	1	lower	zerothre.ttf
85703	WORD	wordpools/wasnorm_wordpool_less_exclusions.txt	LTP189	ltpFR	3	1	0	SIGN	1305	n/a	n/a	0	0.57763671875	0.412841796875	1	lower	zerothre.ttf
89735	WORD	wordpools/wasnorm_wordpool_less_exclusions.txt	LTP189	ltpFR	3	1	1	BUSH	202	n/a	n/a	0	0.422607421875	0.5869140625	0	upper	amplitud.ttf
93767	WORD	wordpools/wasnorm_wordpool_less_exclusions.txt	LTP189	ltpFR	3	1	1	GLASS	639	n/a	n/a	0	0.422607421875	0.5869140625	0	upper	amplitud.ttf
97683	WORD	wordpools/wasnorm_wordpool_less_exclusions.txt	LTP189	ltpFR	3	1	1	CHIMPANZEE	302	n/a	n/a	1	0.422607421875	0.5869140625	0	upper	amplitud.ttf
101831	WORD	wordpools/wasnorm_wordpool_less_exclusions.txt	LTP189	ltpFR	3	1	1	HORSE	719	n/a	n/a	1	0.422607421875	0.5869140625	0	upper	amplitud.ttf
105712	WORD	wordpools/wasnorm_wordpool_less_exclusions.txt	LTP189	ltpFR	3	1	1	PLANT	1083	n/a	n/a	0	0.422607421875	0.5869140625	0	upper	amplitud.ttf
109911	WORD	wordpools/wasnorm_wordpool_less_exclusions.txt	LTP189	ltpFR	3	1	0	COFFEE	341	n/a	n/a	0	0.57763671875	0.412841796875	1	lower	zerothre.ttf
114077	WORD	wordpools/wasnorm_wordpool_less_exclusions.txt	LTP189	ltpFR	3	1	0	STALLION	1369	n/a	n/a	1	0.57763671875	0.412841796875	1	lower	zerothre.ttf
118126	WORD	wordpools/wasnorm_wordpool_less_exclusions.txt	LTP189	ltpFR	3	1	0	PRUNE	1134	n/a	n/a	0	0.57763671875	0.412841796875	1	lower	zerothre.ttf
122039	WORD	wordpools/wasnorm_wordpool_less_exclusions.txt	LTP189	ltpFR	3	1	0	BERRY	122	n/a	n/a	0	0.57763671875	0.412841796875	1	lower	zerothre.ttf
127930	REC_START	n/a	LTP189	ltpFR	3	1	n/a	n/a	n/a	n/a	n/a	n/a	n/a	n/a	n/a	n/a	n/a
129501	REC_WORD	wordpools/wasnorm_wordpool_less_exclusions.txt	LTP189	ltpFR	3	1	1	PRINTER	1126	n/a	n/a	0	n/a	n/a	n/a	n/a	n/a
130384	REC_WORD	wordpools/wasnorm_wordpool_less_exclusions.txt	LTP189	ltpFR	3	1	1	LAUNDRY	803	n/a	n/a	0	n/a	n/a	n/a	n/a	n/a
133592	REC_WORD	wordpools/wasnorm_wordpool_less_exclusions.txt	LTP189	ltpFR	3	1	1	WASHER	1592	n/a	n/a	0	n/a	n/a	n/a	n/a	n/a
135158	REC_WORD	wordpools/wasnorm_wordpool_less_exclusions.txt	LTP189	ltpFR	3	1	0	ATHLETE	52	n/a	n/a	1	n/a	n/a	n/a	n/a	n/a
136206	REC_WORD	wordpools/wasnorm_wordpool_less_exclusions.txt	LTP189	ltpFR	3	1	0	CATCHER	258	n/a	n/a	0	n/a	n/a	n/a	n/a	n/a
137333	REC_WORD	wordpools/wasnorm_wordpool_less_exclusions.txt	LTP189	ltpFR	3	1	0	STALLION	1369	n/a	n/a	1	n/a	n/a	n/a	n/a	n/a
138521	REC_WORD	wordpools/wasnorm_wordpool_less_exclusions.txt	LTP189	ltpFR	3	1	1	CHIMPANZEE	302	n/a	n/a	1	n/a	n/a	n/a	n/a	n/a
139828	REC_WORD	wordpools/wasnorm_wordpool_less_exclusions.txt	LTP189	ltpFR	3	1	1	HORSE	719	n/a	n/a	1	n/a	n/a	n/a	n/a	n/a
140910	REC_WORD	wordpools/wasnorm_wordpool_less_exclusions.txt	LTP189	ltpFR	3	1	1	BUSH	202	n/a	n/a	0	n/a	n/a	n/a	n/a	n/a
142412	REC_WORD	wordpools/wasnorm_wordpool_less_exclusions.txt	LTP189	ltpFR	3	1	1	GLASS	639	n/a	n/a	0	n/a	n/a	n/a	n/a	n/a
144397	REC_WORD	wordpools/wasnorm_wordpool_less_exclusions.txt	LTP189	ltpFR	3	1	0	PRUNE	1134	n/a	n/a	0	n/a	n/a	n/a	n/a	n/a
220645	WORD	wordpools/wasnorm_wordpool_less_exclusions.txt	LTP189	ltpFR	3	2	0	APPENDAGE	32	n/a	n/a	0	0.57763671875	0.412841796875	1	lower	zerothre.ttf
224530	WORD	wordpools/wasnorm_wordpool_less_exclusions.txt	LTP189	ltpFR	3	2	0	CHALK	276	n/a	n/a	0	0.57763671875	0.412841796875	1	lower	zerothre.ttf
228592	WORD	wordpools/wasnorm_wordpool_less_exclusions.txt	LTP189	ltpFR	3	2	1	SEED	1266	n/a	n/a	1	0.422607421875	0.5869140625	0	upper	amplitud.ttf
232557	WORD	wordpools/wasnorm_wordpool_less_exclusions.txt	LTP189	ltpFR	3	2	1	HAM	678	n/a	n/a	1	0.422607421875	0.5869140625	0	upper	amplitud.ttf
236407	WORD	wordpools/wasnorm_wordpool_less_exclusions.txt	LTP189	ltpFR	3	2	1	SIDING	1304	n/a	n/a	0	0.422607421875	0.5869140625	0	upper	amplitud.ttf
240487	WORD	wordpools/wasnorm_wordpool_less_exclusions.txt	LTP189	ltpFR	3	2	1	SHINGLE	1285	n/a	n/a	0	0.422607421875	0.5869140625	0	upper	amplitud.ttf
244703	WORD	wordpools/wasnorm_wordpool_less_exclusions.txt	LTP189	ltpFR	3	2	1	PITCHFORK	1078	n/a	n/a	0	0.422607421875	0.5869140625	0	upper	amplitud.ttf
248701	WORD	wordpools/wasnorm_wordpool_less_exclusions.txt	LTP189	ltpFR	3	2	1	FLIPPER	580	n/a	n/a	0	0.422607421875	0.5869140625	0	upper	amplitud.ttf
252616	WORD	wordpools/wasnorm_wordpool_less_exclusions.txt	LTP189	ltpFR	3	2	0	PORCUPINE	1107	n/a	n/a	0	0.57763671875	0.412841796875	1	lower	zerothre.ttf
256564	WORD	wordpools/wasnorm_wordpool_less_exclusions.txt	LTP189	ltpFR	3	2	0	BABY	64	n/a	n/a	0	0.57763671875	0.412841796875	1	lower	zerothre.ttf
260680	WORD	wordpools/wasnorm_wordpool_less_exclusions.txt	LTP189	ltpFR	3	2	0	RULER	1216	n/a	n/a	0	0.57763671875	0.412841796875	1	lower	zerothre.ttf
264762	WORD	wordpools/wasnorm_wordpool_less_exclusions.txt	LTP189	ltpFR	3	2	1	BUYER	208	n/a	n/a	0	0.422607421875	0.5869140625	0	upper	amplitud.ttf
268810	WORD	wordpools/wasnorm_wordpool_less_exclusions.txt	LTP189	ltpFR	3	2	1	CUSTOMER	430	n/a	n/a	1	0.422607421875	0.5869140625	0	upper	amplitud.ttf
272742	WORD	wordpools/wasnorm_wordpool_less_exclusions.txt	LTP189	ltpFR	3	2	0	LEADER	807	n/a	n/a	0	0.57763671875	0.412841796875	1	lower	zerothre.ttf
276859	WORD	wordpools/wasnorm_wordpool_less_exclusions.txt	LTP189	ltpFR	3	2	0	PORK	1108	n/a	n/a	0	0.57763671875	0.412841796875	1	lower	zerothre.ttf
280889	WORD	wordpools/wasnorm_wordpool_less_exclusions.txt	LTP189	ltpFR	3	2	0	GUARDIAN	668	n/a	n/a	1	0.57763671875	0.412841796875	1	lower	zerothre.ttf
286695	REC_START	n/a	LTP189	ltpFR	3	2	n/a	n/a	n/a	n/a	n/a	n/a	n/a	n/a	n/a	n/a	n/a
287478	REC_WORD	wordpools/wasnorm_wordpool_less_exclusions.txt	LTP189	ltpFR	3	2	0	GUARDIAN	668	n/a	n/a	1	n/a	n/a	n/a	n/a	n/a
288276	REC_WORD	wordpools/wasnorm_wordpool_less_exclusions.txt	LTP189	ltpFR	3	2	1	CUSTOMER	430	n/a	n/a	1	n/a	n/a	n/a	n/a	n/a
289473	REC_WORD	wordpools/wasnorm_wordpool_less_exclusions.txt	LTP189	ltpFR	3	2	1	BUYER	208	n/a	n/a	0	n/a	n/a	n/a	n/a	n/a
290252	REC_WORD	wordpools/wasnorm_wordpool_less_exclusions.txt	LTP189	ltpFR	3	2	1	FLIPPER	580	n/a	n/a	0	n/a	n/a	n/a	n/a	n/a
291110	REC_WORD	wordpools/wasnorm_wordpool_less_exclusions.txt	LTP189	ltpFR	3	2	0	PORCUPINE	1107	n/a	n/a	0	n/a	n/a	n/a	n/a	n/a
292222	REC_WORD	wordpools/wasnorm_wordpool_less_exclusions.txt	LTP189	ltpFR	3	2	0	BABY	64	n/a	n/a	0	n/a	n/a	n/a	n/a	n/a
292866	REC_WORD	wordpools/wasnorm_wordpool_less_exclusions.txt	LTP189	ltpFR	3	2	1	SHINGLE	1285	n/a	n/a	0	n/a	n/a	n/a	n/a	n/a
294228	REC_WORD	wordpools/wasnorm_wordpool_less_exclusions.txt	LTP189	ltpFR	3	2	1	SIDING	1304	n/a	n/a	0	n/a	n/a	n/a	n/a	n/a
295380	REC_WORD	wordpools/wasnorm_wordpool_less_exclusions.txt	LTP189	ltpFR	3	2	0	CHALK	276	n/a	n/a	0	n/a	n/a	n/a	n/a	n/a
296118	REC_WORD	wordpools/wasnorm_wordpool_less_exclusions.txt	LTP189	ltpFR	3	2	1	SEED	1266	n/a	n/a	1	n/a	n/a	n/a	n/a	n/a
297061	REC_WORD	wordpools/wasnorm_wordpool_less_exclusions.txt	LTP189	ltpFR	3	2	1	HAM	678	n/a	n/a	1	n/a	n/a	n/a	n/a	n/a
374525	WORD	wordpools/wasnorm_wordpool_less_exclusions.txt	LTP189	ltpFR	3	3	1	SPAGHETTI	1346	n/a	n/a	0	0.422607421875	0.5869140625	0	upper	amplitud.ttf
378457	WORD	wordpools/wasnorm_wordpool_less_exclusions.txt	LTP189	ltpFR	3	3	1	WICK	1607	n/a	n/a	0	0.422607421875	0.5869140625	0	upper	amplitud.ttf
382522	WORD	wordpools/wasnorm_wordpool_less_exclusions.txt	LTP189	ltpFR	3	3	1	PERCH	1048	n/a	n/a	0	0.422607421875	0.5869140625	0	upper	amplitud.ttf
386476	WORD	wordpools/wasnorm_wordpool_less_exclusions.txt	LTP189	ltpFR	3	3	1	SHARK	1275	n/a	n/a	1	0.422607421875	0.5869140625	0	upper	amplitud.ttf
390368	WORD	wordpools/wasnorm_wordpool_less_exclusions.txt	LTP189	ltpFR	3	3	1	TRASH	1497	n/a	n/a	0	0.422607421875	0.5869140625	0	upper	amplitud.ttf
394367	WORD	wordpools/wasnorm_wordpool_less_exclusions.txt	LTP189	ltpFR	3	3	1	COLUMN	350	n/a	n/a	0	0.422607421875	0.5869140625	0	upper	amplitud.ttf
398198	WORD	wordpools/wasnorm_wordpool_less_exclusions.txt	LTP189	ltpFR	3	3	0	QUEEN	1149	n/a	n/a	1	0.57763671875	0.412841796875	1	lower	zerothre.ttf
402129	WORD	wordpools/wasnorm_wordpool_less_exclusions.txt	LTP189	ltpFR	3	3	0	DICTATOR	462	n/a	n/a	1	0.57763671875	0.412841796875	1	lower	zerothre.ttf
406178	WORD	wordpools/wasnorm_wordpool_less_exclusions.txt	LTP189	ltpFR	3	3	0	LONDON	843	n/a	n/a	0	0.57763671875	0.412841796875	1	lower	zerothre.ttf
410277	WORD	wordpools/wasnorm_wordpool_less_exclusions.txt	LTP189	ltpFR	3	3	0	BOOK	149	n/a	n/a	0	0.57763671875	0.412841796875	1	lower	zerothre.ttf
414193	WORD	wordpools/wasnorm_wordpool_less_exclusions.txt	LTP189	ltpFR	3	3	1	OREGANO	983	n/a	n/a	0	0.422607421875	0.5869140625	0	upper	amplitud.ttf
418089	WORD	wordpools/wasnorm_wordpool_less_exclusions.txt	LTP189	ltpFR	3	3	1	PLASTER	1085	n/a	n/a	0	0.422607421875	0.5869140625	0	upper	amplitud.ttf
422155	WORD	wordpools/wasnorm_wordpool_less_exclusions.txt	LTP189	ltpFR	3	3	0	WITNESS	1618	n/a	n/a	1	0.57763671875	0.412841796875	1	lower	zerothre.ttf
426054	WORD	wordpools/wasnorm_wordpool_less_exclusions.txt	LTP189	ltpFR	3	3	0	ATTORNEY	58	n/a	n/a	1	0.57763671875	0.412841796875	1	lower	zerothre.ttf
430101	WORD	wordpools/wasnorm_wordpool_less_exclusions.txt	LTP189	ltpFR	3	3	0	KLEENEX	782	n/a	n/a	0	0.57763671875	0.412841796875	1	lower	zerothre.ttf
433951	WORD	wordpools/wasnorm_wordpool_less_exclusions.txt	LTP189	ltpFR	3	3	0	FLASHLIGHT	575	n/a	n/a	0	0.57763671875	0.412841796875	1	lower	zerothre.ttf
439722	REC_START	n/a	LTP189	ltpFR	3	3	n/a	n/a	n/a	n/a	n/a	n/a	n/a	n/a	n/a	n/a	n/a
440280	REC_WORD	wordpools/wasnorm_wordpool_less_exclusions.txt	LTP189	ltpFR	3	3	0	FLASHLIGHT	575	n/a	n/a	0	n/a	n/a	n/a	n/a	n/a
441293	REC_WORD	wordpools/wasnorm_wordpool_less_exclusions.txt	LTP189	ltpFR	3	3	0	KLEENEX	782	n/a	n/a	0	n/a	n/a	n/a	n/a	n/a
442301	REC_WORD	wordpools/wasnorm_wordpool_less_exclusions.txt	LTP189	ltpFR	3	3	0	WITNESS	1618	n/a	n/a	1	n/a	n/a	n/a	n/a	n/a
443129	REC_WORD	wordpools/wasnorm_wordpool_less_exclusions.txt	LTP189	ltpFR	3	3	0	ATTORNEY	58	n/a	n/a	1	n/a	n/a	n/a	n/a	n/a
444167	REC_WORD	wordpools/wasnorm_wordpool_less_exclusions.txt	LTP189	ltpFR	3	3	0	LONDON	843	n/a	n/a	0	n/a	n/a	n/a	n/a	n/a
445244	REC_WORD	wordpools/wasnorm_wordpool_less_exclusions.txt	LTP189	ltpFR	3	3	0	DICTATOR	462	n/a	n/a	1	n/a	n/a	n/a	n/a	n/a
446272	REC_WORD	wordpools/wasnorm_wordpool_less_exclusions.txt	LTP189	ltpFR	3	3	0	QUEEN	1149	n/a	n/a	1	n/a	n/a	n/a	n/a	n/a
449724	REC_WORD	wordpools/wasnorm_wordpool_less_exclusions.txt	LTP189	ltpFR	3	3	1	OREGANO	983	n/a	n/a	0	n/a	n/a	n/a	n/a	n/a
529108	WORD	wordpools/wasnorm_wordpool_less_exclusions.txt	LTP189	ltpFR	3	4	1	DESIGNER	451	n/a	n/a	1	0.422607421875	0.5869140625	0	upper	amplitud.ttf
533140	WORD	wordpools/wasnorm_wordpool_less_exclusions.txt	LTP189	ltpFR	3	4	1	FOREHEAD	592	n/a	n/a	1	0.422607421875	0.5869140625	0	upper	amplitud.ttf
537222	WORD	wordpools/wasnorm_wordpool_less_exclusions.txt	LTP189	ltpFR	3	4	1	CUE	422	n/a	n/a	0	0.422607421875	0.5869140625	0	upper	amplitud.ttf
541287	WORD	wordpools/wasnorm_wordpool_less_exclusions.txt	LTP189	ltpFR	3	4	1	MAILBOX	857	n/a	n/a	0	0.422607421875	0.5869140625	0	upper	amplitud.ttf
545310	WORD	wordpools/wasnorm_wordpool_less_exclusions.txt	LTP189	ltpFR	3	4	1	PAPER	1011	n/a	n/a	0	0.422607421875	0.5869140625	0	upper	amplitud.ttf
549434	WORD	wordpools/wasnorm_wordpool_less_exclusions.txt	LTP189	ltpFR	3	4	1	MAGAZINE	853	n/a	n/a	0	0.422607421875	0.5869140625	0	upper	amplitud.ttf
553299	WORD	wordpools/wasnorm_wordpool_less_exclusions.txt	LTP189	ltpFR	3	4	1	ELM	527	n/a	n/a	1	0.422607421875	0.5869140625	0	upper	amplitud.ttf
557498	WORD	wordpools/wasnorm_wordpool_less_exclusions.txt	LTP189	ltpFR	3	4	1	FOREST	593	n/a	n/a	1	0.422607421875	0.5869140625	0	upper	amplitud.ttf
561446	WORD	wordpools/wasnorm_wordpool_less_exclusions.txt	LTP189	ltpFR	3	4	1	LACE	792	n/a	n/a	0	0.422607421875	0.5869140625	0	upper	amplitud.ttf
565595	WORD	wordpools/wasnorm_wordpool_less_exclusions.txt	LTP189	ltpFR	3	4	1	SCARF	1246	n/a	n/a	0	0.422607421875	0.5869140625	0	upper	amplitud.ttf
569644	WORD	wordpools/wasnorm_wordpool_less_exclusions.txt	LTP189	ltpFR	3	4	1	MAN	862	n/a	n/a	1	0.422607421875	0.5869140625	0	upper	amplitud.ttf
573726	WORD	wordpools/wasnorm_wordpool_less_exclusions.txt	LTP189	ltpFR	3	4	1	TURTLE	1522	n/a	n/a	1	0.422607421875	0.5869140625	0	upper	amplitud.ttf
577808	WORD	wordpools/wasnorm_wordpool_less_exclusions.txt	LTP189	ltpFR	3	4	1	RACKET	1155	n/a	n/a	0	0.422607421875	0.5869140625	0	upper	amplitud.ttf
581656	WORD	wordpools/wasnorm_wordpool_less_exclusions.txt	LTP189	ltpFR	3	4	1	WARDROBE	1587	n/a	n/a	0	0.422607421875	0.5869140625	0	upper	amplitud.ttf
585805	WORD	wordpools/wasnorm_wordpool_less_exclusions.txt	LTP189	ltpFR	3	4	1	FRAGRANCE	599	n/a	n/a	0	0.422607421875	0.5869140625	0	upper	amplitud.ttf
589636	WORD	wordpools/wasnorm_wordpool_less_exclusions.txt	LTP189	ltpFR	3	4	1	INVENTOR	743	n/a	n/a	0	0.422607421875	0.5869140625	0	upper	amplitud.ttf
595526	REC_START	n/a	LTP189	ltpFR	3	4	n/a	n/a	n/a	n/a	n/a	n/a	n/a	n/a	n/a	n/a	n/a
596269	REC_WORD	wordpools/wasnorm_wordpool_less_exclusions.txt	LTP189	ltpFR	3	4	1	INVENTOR	743	n/a	n/a	0	n/a	n/a	n/a	n/a	n/a
597242	REC_WORD	wordpools/wasnorm_wordpool_less_exclusions.txt	LTP189	ltpFR	3	4	1	WARDROBE	1587	n/a	n/a	0	n/a	n/a	n/a	n/a	n/a
597985	REC_WORD	wordpools/wasnorm_wordpool_less_exclusions.txt	LTP189	ltpFR	3	4	1	FRAGRANCE	599	n/a	n/a	0	n/a	n/a	n/a	n/a	n/a
598948	REC_WORD	wordpools/wasnorm_wordpool_less_exclusions.txt	LTP189	ltpFR	3	4	1	TURTLE	1522	n/a	n/a	1	n/a	n/a	n/a	n/a	n/a
599821	REC_WORD	wordpools/wasnorm_wordpool_less_exclusions.txt	LTP189	ltpFR	3	4	1	RACKET	1155	n/a	n/a	0	n/a	n/a	n/a	n/a	n/a
600644	REC_WORD	wordpools/wasnorm_wordpool_less_exclusions.txt	LTP189	ltpFR	3	4	1	MAN	862	n/a	n/a	1	n/a	n/a	n/a	n/a	n/a
601348	REC_WORD	wordpools/wasnorm_wordpool_less_exclusions.txt	LTP189	ltpFR	3	4	1	DESIGNER	451	n/a	n/a	1	n/a	n/a	n/a	n/a	n/a
602235	REC_WORD	wordpools/wasnorm_wordpool_less_exclusions.txt	LTP189	ltpFR	3	4	1	FOREHEAD	592	n/a	n/a	1	n/a	n/a	n/a	n/a	n/a
603323	REC_WORD	wordpools/wasnorm_wordpool_less_exclusions.txt	LTP189	ltpFR	3	4	1	CUE	422	n/a	n/a	0	n/a	n/a	n/a	n/a	n/a
604361	REC_WORD	wordpools/wasnorm_wordpool_less_exclusions.txt	LTP189	ltpFR	3	4	1	PAPER	1011	n/a	n/a	0	n/a	n/a	n/a	n/a	n/a
605219	REC_WORD	wordpools/wasnorm_wordpool_less_exclusions.txt	LTP189	ltpFR	3	4	1	MAGAZINE	853	n/a	n/a	0	n/a	n/a	n/a	n/a	n/a
606261	REC_WORD	wordpools/wasnorm_wordpool_less_exclusions.txt	LTP189	ltpFR	3	4	1	MAILBOX	857	n/a	n/a	0	n/a	n/a	n/a	n/a	n/a
607274	REC_WORD	wordpools/wasnorm_wordpool_less_exclusions.txt	LTP189	ltpFR	3	4	1	ELM	527	n/a	n/a	1	n/a	n/a	n/a	n/a	n/a
608027	REC_WORD	wordpools/wasnorm_wordpool_less_exclusions.txt	LTP189	ltpFR	3	4	1	FOREST	593	n/a	n/a	1	n/a	n/a	n/a	n/a	n/a
687122	WORD	wordpools/wasnorm_wordpool_less_exclusions.txt	LTP189	ltpFR	3	5	0	TANK	1432	n/a	n/a	0	0.57763671875	0.412841796875	1	lower	zerothre.ttf
691000	WORD	wordpools/wasnorm_wordpool_less_exclusions.txt	LTP189	ltpFR	3	5	0	GEM	629	n/a	n/a	0	0.57763671875	0.412841796875	1	lower	zerothre.ttf
695187	WORD	wordpools/wasnorm_wordpool_less_exclusions.txt	LTP189	ltpFR	3	5	0	SUBURB	1399	n/a	n/a	1	0.57763671875	0.412841796875	1	lower	zerothre.ttf
699366	WORD	wordpools/wasnorm_wordpool_less_exclusions.txt	LTP189	ltpFR	3	5	0	SLACKS	1323	n/a	n/a	0	0.57763671875	0.412841796875	1	lower	zerothre.ttf
703515	WORD	wordpools/wasnorm_wordpool_less_exclusions.txt	LTP189	ltpFR	3	5	0	SQUID	1361	n/a	n/a	0	0.57763671875	0.412841796875	1	lower	zerothre.ttf
707631	WORD	wordpools/wasnorm_wordpool_less_exclusions.txt	LTP189	ltpFR	3	5	0	BACKBONE	66	n/a	n/a	0	0.57763671875	0.412841796875	1	lower	zerothre.ttf
711780	WORD	wordpools/wasnorm_wordpool_less_exclusions.txt	LTP189	ltpFR	3	5	0	VICTOR	1563	n/a	n/a	1	0.57763671875	0.412841796875	1	lower	zerothre.ttf
715696	WORD	wordpools/wasnorm_wordpool_less_exclusions.txt	LTP189	ltpFR	3	5	0	POTATO	1115	n/a	n/a	0	0.57763671875	0.412841796875	1	lower	zerothre.ttf
719659	WORD	wordpools/wasnorm_wordpool_less_exclusions.txt	LTP189	ltpFR	3	5	0	GRILL	661	n/a	n/a	0	0.57763671875	0.412841796875	1	lower	zerothre.ttf
723595	WORD	wordpools/wasnorm_wordpool_less_exclusions.txt	LTP189	ltpFR	3	5	0	PAIL	1002	n/a	n/a	0	0.57763671875	0.412841796875	1	lower	zerothre.ttf
727455	WORD	wordpools/wasnorm_wordpool_less_exclusions.txt	LTP189	ltpFR	3	5	0	CREEK	404	n/a	n/a	1	0.57763671875	0.412841796875	1	lower	zerothre.ttf
731353	WORD	wordpools/wasnorm_wordpool_less_exclusions.txt	LTP189	ltpFR	3	5	0	SWEATER	1419	n/a	n/a	0	0.57763671875	0.412841796875	1	lower	zerothre.ttf
735218	WORD	wordpools/wasnorm_wordpool_less_exclusions.txt	LTP189	ltpFR	3	5	0	CLOCK	325	n/a	n/a	0	0.57763671875	0.412841796875	1	lower	zerothre.ttf
739201	WORD	wordpools/wasnorm_wordpool_less_exclusions.txt	LTP189	ltpFR	3	5	0	CALENDAR	221	n/a	n/a	0	0.57763671875	0.412841796875	1	lower	zerothre.ttf
743047	WORD	wordpools/wasnorm_wordpool_less_exclusions.txt	LTP189	ltpFR	3	5	0	CAPITAL	238	n/a	n/a	0	0.57763671875	0.412841796875	1	lower	zerothre.ttf
746917	WORD	wordpools/wasnorm_wordpool_less_exclusions.txt	LTP189	ltpFR	3	5	0	AUTHOR	61	n/a	n/a	1	0.57763671875	0.412841796875	1	lower	zerothre.ttf
752752	REC_START	n/a	LTP189	ltpFR	3	5	n/a	n/a	n/a	n/a	n/a	n/a	n/a	n/a	n/a	n/a	n/a
753750	REC_WORD	wordpools/wasnorm_wordpool_less_exclusions.txt	LTP189	ltpFR	3	5	0	AUTHOR	61	n/a	n/a	1	n/a	n/a	n/a	n/a	n/a
754493	REC_WORD	wordpools/wasnorm_wordpool_less_exclusions.txt	LTP189	ltpFR	3	5	0	CAPITAL	238	n/a	n/a	0	n/a	n/a	n/a	n/a	n/a
755206	REC_WORD	wordpools/wasnorm_wordpool_less_exclusions.txt	LTP189	ltpFR	3	5	0	SUBURB	1399	n/a	n/a	1	n/a	n/a	n/a	n/a	n/a
756758	REC_WORD	wordpools/wasnorm_wordpool_less_exclusions.txt	LTP189	ltpFR	3	5	0	GEM	629	n/a	n/a	0	n/a	n/a	n/a	n/a	n/a
757845	REC_WORD	wordpools/wasnorm_wordpool_less_exclusions.txt	LTP189	ltpFR	3	5	0	TANK	1432	n/a	n/a	0	n/a	n/a	n/a	n/a	n/a
760040	REC_WORD	wordpools/wasnorm_wordpool_less_exclusions.txt	LTP189	ltpFR	3	5	0	VICTOR	1563	n/a	n/a	1	n/a	n/a	n/a	n/a	n/a
761517	REC_WORD	wordpools/wasnorm_wordpool_less_exclusions.txt	LTP189	ltpFR	3	5	0	BACKBONE	66	n/a	n/a	0	n/a	n/a	n/a	n/a	n/a
762859	REC_WORD	wordpools/wasnorm_wordpool_less_exclusions.txt	LTP189	ltpFR	3	5	0	SQUID	1361	n/a	n/a	0	n/a	n/a	n/a	n/a	n/a
766555	REC_WORD	wordpools/wasnorm_wordpool_less_exclusions.txt	LTP189	ltpFR	3	5	0	CREEK	404	n/a	n/a	1	n/a	n/a	n/a	n/a	n/a
831865	WORD	wordpools/wasnorm_wordpool_less_exclusions.txt	LTP189	ltpFR	3	6	0	SKIN	1318	n/a	n/a	0	0.57763671875	0.412841796875	1	lower	zerothre.ttf
835713	WORD	wordpools/wasnorm_wordpool_less_exclusions.txt	LTP189	ltpFR	3	6	0	MACARONI	851	n/a	n/a	0	0.57763671875	0.412841796875	1	lower	zerothre.ttf
839728	WORD	wordpools/wasnorm_wordpool_less_exclusions.txt	LTP189	ltpFR	3	6	0	BROCCOLI	176	n/a	n/a	0	0.57763671875	0.412841796875	1	lower	zerothre.ttf
843894	WORD	wordpools/wasnorm_wordpool_less_exclusions.txt	LTP189	ltpFR	3	6	0	MOAT	903	n/a	n/a	0	0.57763671875	0.412841796875	1	lower	zerothre.ttf
847975	WORD	wordpools/wasnorm_wordpool_less_exclusions.txt	LTP189	ltpFR	3	6	0	WATER	1594	n/a	n/a	0	0.57763671875	0.412841796875	1	lower	zerothre.ttf
852148	WORD	wordpools/wasnorm_wordpool_less_exclusions.txt	LTP189	ltpFR	3	6	0	MAILMAN	858	n/a	n/a	1	0.57763671875	0.412841796875	1	lower	zerothre.ttf
856127	WORD	wordpools/wasnorm_wordpool_less_exclusions.txt	LTP189	ltpFR	3	6	0	ROAD	1196	n/a	n/a	0	0.57763671875	0.412841796875	1	lower	zerothre.ttf
860004	WORD	wordpools/wasnorm_wordpool_less_exclusions.txt	LTP189	ltpFR	3	6	0	ACORN	3	n/a	n/a	0	0.57763671875	0.412841796875	1	lower	zerothre.ttf
864208	WORD	wordpools/wasnorm_wordpool_less_exclusions.txt	LTP189	ltpFR	3	6	0	PISTON	1076	n/a	n/a	0	0.57763671875	0.412841796875	1	lower	zerothre.ttf
868104	WORD	wordpools/wasnorm_wordpool_less_exclusions.txt	LTP189	ltpFR	3	6	0	RACK	1154	n/a	n/a	0	0.57763671875	0.412841796875	1	lower	zerothre.ttf
872207	WORD	wordpools/wasnorm_wordpool_less_exclusions.txt	LTP189	ltpFR	3	6	0	VELVET	1555	n/a	n/a	0	0.57763671875	0.412841796875	1	lower	zerothre.ttf
876082	WORD	wordpools/wasnorm_wordpool_less_exclusions.txt	LTP189	ltpFR	3	6	0	CORAL	378	n/a	n/a	0	0.57763671875	0.412841796875	1	lower	zerothre.ttf
880181	WORD	wordpools/wasnorm_wordpool_less_exclusions.txt	LTP189	ltpFR	3	6	0	GRAVEL	659	n/a	n/a	1	0.57763671875	0.412841796875	1	lower	zerothre.ttf
884011	WORD	wordpools/wasnorm_wordpool_less_exclusions.txt	LTP189	ltpFR	3	6	0	LIMB	822	n/a	n/a	1	0.57763671875	0.412841796875	1	lower	zerothre.ttf
888045	WORD	wordpools/wasnorm_wordpool_less_exclusions.txt	LTP189	ltpFR	3	6	0	SOCK	1339	n/a	n/a	0	0.57763671875	0.412841796875	1	lower	zerothre.ttf
892210	WORD	wordpools/wasnorm_wordpool_less_exclusions.txt	LTP189	ltpFR	3	6	0	TAXI	1438	n/a	n/a	1	0.57763671875	0.412841796875	1	lower	zerothre.ttf
898031	REC_START	n/a	LTP189	ltpFR	3	6	n/a	n/a	n/a	n/a	n/a	n/a	n/a	n/a	n/a	n/a	n/a
898744	REC_WORD	wordpools/wasnorm_wordpool_less_exclusions.txt	LTP189	ltpFR	3	6	0	TAXI	1438	n/a	n/a	1	n/a	n/a	n/a	n/a	n/a
899477	REC_WORD	wordpools/wasnorm_wordpool_less_exclusions.txt	LTP189	ltpFR	3	6	0	SOCK	1339	n/a	n/a	0	n/a	n/a	n/a	n/a	n/a
900326	REC_WORD	wordpools/wasnorm_wordpool_less_exclusions.txt	LTP189	ltpFR	3	6	0	ROAD	1196	n/a	n/a	0	n/a	n/a	n/a	n/a	n/a
901079	REC_WORD	wordpools/wasnorm_wordpool_less_exclusions.txt	LTP189	ltpFR	3	6	0	MOAT	903	n/a	n/a	0	n/a	n/a	n/a	n/a	n/a
901822	REC_WORD	wordpools/wasnorm_wordpool_less_exclusions.txt	LTP189	ltpFR	3	6	0	WATER	1594	n/a	n/a	0	n/a	n/a	n/a	n/a	n/a
902850	REC_WORD	wordpools/wasnorm_wordpool_less_exclusions.txt	LTP189	ltpFR	3	6	0	SKIN	1318	n/a	n/a	0	n/a	n/a	n/a	n/a	n/a
906601	REC_WORD	wordpools/wasnorm_wordpool_less_exclusions.txt	LTP189	ltpFR	3	6	0	MAILMAN	858	n/a	n/a	1	n/a	n/a	n/a	n/a	n/a
995683	WORD	wordpools/wasnorm_wordpool_less_exclusions.txt	LTP189	ltpFR	3	7	-1	FLANNEL	574	n/a	n/a	-1	1.0	1.0	1	upper	Verdana.ttf
999782	WORD	wordpools/wasnorm_wordpool_less_exclusions.txt	LTP189	ltpFR	3	7	-1	MANAGER	863	n/a	n/a	-1	1.0	1.0	1	upper	Verdana.ttf
1003815	WORD	wordpools/wasnorm_wordpool_less_exclusions.txt	LTP189	ltpFR	3	7	-1	SUPERVISOR	1410	n/a	n/a	-1	1.0	1.0	1	upper	Verdana.ttf
1007961	WORD	wordpools/wasnorm_wordpool_less_exclusions.txt	LTP189	ltpFR	3	7	-1	GRADUATE	653	n/a	n/a	-1	1.0	1.0	1	upper	Verdana.ttf
1011993	WORD	wordpools/wasnorm_wordpool_less_exclusions.txt	LTP189	ltpFR	3	7	-1	SAUCER	1237	n/a	n/a	-1	1.0	1.0	1	upper	Verdana.ttf
1016160	WORD	wordpools/wasnorm_wordpool_less_exclusions.txt	LTP189	ltpFR	3	7	-1	ROBE	1198	n/a	n/a	-1	1.0	1.0	1	upper	Verdana.ttf
1020092	WORD	wordpools/wasnorm_wordpool_less_exclusions.txt	LTP189	ltpFR	3	7	-1	HUMAN	726	n/a	n/a	-1	1.0	1.0	1	upper	Verdana.ttf
1024173	WORD	wordpools/wasnorm_wordpool_less_exclusions.txt	LTP189	ltpFR	3	7	-1	CARPENTER	246	n/a	n/a	-1	1.0	1.0	1	upper	Verdana.ttf
1028373	WORD	wordpools/wasnorm_wordpool_less_exclusions.txt	LTP189	ltpFR	3	7	-1	SUBMARINE	1398	n/a	n/a	-1	1.0	1.0	1	upper	Verdana.ttf
1032354	WORD	wordpools/wasnorm_wordpool_less_exclusions.txt	LTP189	ltpFR	3	7	-1	NAVIGATOR	938	n/a	n/a	-1	1.0	1.0	1	upper	Verdana.ttf
1036553	WORD	wordpools/wasnorm_wordpool_less_exclusions.txt	LTP189	ltpFR	3	7	-1	PLAYGROUND	1087	n/a	n/a	-1	1.0	1.0	1	upper	Verdana.ttf
1040770	WORD	wordpools/wasnorm_wordpool_less_exclusions.txt	LTP189	ltpFR	3	7	-1	SOFA	1342	n/a	n/a	-1	1.0	1.0	1	upper	Verdana.ttf
1044835	WORD	wordpools/wasnorm_wordpool_less_exclusions.txt	LTP189	ltpFR	3	7	-1	SANDPAPER	1231	n/a	n/a	-1	1.0	1.0	1	upper	Verdana.ttf
1048966	WORD	wordpools/wasnorm_wordpool_less_exclusions.txt	LTP189	ltpFR	3	7	-1	BUGGY	188	n/a	n/a	-1	1.0	1.0	1	upper	Verdana.ttf
1052882	WORD	wordpools/wasnorm_wordpool_less_exclusions.txt	LTP189	ltpFR	3	7	-1	CART	250	n/a	n/a	-1	1.0	1.0	1	upper	Verdana.ttf
1057098	WORD	wordpools/wasnorm_wordpool_less_exclusions.txt	LTP189	ltpFR	3	7	-1	DESK	452	n/a	n/a	-1	1.0	1.0	1	upper	Verdana.ttf
1063088	REC_START	n/a	LTP189	ltpFR	3	7	n/a	n/a	n/a	n/a	n/a	n/a	n/a	n/a	n/a	n/a	n/a
1064220	REC_WORD	wordpools/wasnorm_wordpool_less_exclusions.txt	LTP189	ltpFR	3	7	-1	DESK	452	n/a	n/a	-1	n/a	n/a	n/a	n/a	n/a
1065886	REC_WORD	wordpools/wasnorm_wordpool_less_exclusions.txt	LTP189	ltpFR	3	7	-1	CARPENTER	246	n/a	n/a	-1	n/a	n/a	n/a	n/a	n/a
1067079	REC_WORD	wordpools/wasnorm_wordpool_less_exclusions.txt	LTP189	ltpFR	3	7	-1	SOFA	1342	n/a	n/a	-1	n/a	n/a	n/a	n/a	n/a
1068860	REC_WORD	wordpools/wasnorm_wordpool_less_exclusions.txt	LTP189	ltpFR	3	7	-1	PLAYGROUND	1087	n/a	n/a	-1	n/a	n/a	n/a	n/a	n/a
1070241	REC_WORD	wordpools/wasnorm_wordpool_less_exclusions.txt	LTP189	ltpFR	3	7	-1	SUBMARINE	1398	n/a	n/a	-1	n/a	n/a	n/a	n/a	n/a
1071963	REC_WORD	wordpools/wasnorm_wordpool_less_exclusions.txt	LTP189	ltpFR	3	7	-1	GRADUATE	653	n/a	n/a	-1	n/a	n/a	n/a	n/a	n/a
1073300	REC_WORD	wordpools/wasnorm_wordpool_less_exclusions.txt	LTP189	ltpFR	3	7	-1	ROBE	1198	n/a	n/a	-1	n/a	n/a	n/a	n/a	n/a
1074612	REC_WORD	wordpools/wasnorm_wordpool_less_exclusions.txt	LTP189	ltpFR	3	7	-1	SUPERVISOR	1410	n/a	n/a	-1	n/a	n/a	n/a	n/a	n/a
1076198	REC_WORD	wordpools/wasnorm_wordpool_less_exclusions.txt	LTP189	ltpFR	3	7	-1	MANAGER	863	n/a	n/a	-1	n/a	n/a	n/a	n/a	n/a
1077510	REC_WORD	wordpools/wasnorm_wordpool_less_exclusions.txt	LTP189	ltpFR	3	7	-1	SAUCER	1237	n/a	n/a	-1	n/a	n/a	n/a	n/a	n/a
1147725	WORD	wordpools/wasnorm_wordpool_less_exclusions.txt	LTP189	ltpFR	3	8	1	FAUCET	555	n/a	n/a	0	0.422607421875	0.5869140625	0	upper	amplitud.ttf
1151922	WORD	wordpools/wasnorm_wordpool_less_exclusions.txt	LTP189	ltpFR	3	8	1	PUDDLE	1140	n/a	n/a	0	0.422607421875	0.5869140625	0	upper	amplitud.ttf
1155969	WORD	wordpools/wasnorm_wordpool_less_exclusions.txt	LTP189	ltpFR	3	8	1	LADDER	793	n/a	n/a	0	0.422607421875	0.5869140625	0	upper	amplitud.ttf
1159885	WORD	wordpools/wasnorm_wordpool_less_exclusions.txt	LTP189	ltpFR	3	8	1	EXPERT	543	n/a	n/a	1	0.422607421875	0.5869140625	0	upper	amplitud.ttf
1163750	WORD	wordpools/wasnorm_wordpool_less_exclusions.txt	LTP189	ltpFR	3	8	1	FIELD	562	n/a	n/a	0	0.422607421875	0.5869140625	0	upper	amplitud.ttf
1167949	WORD	wordpools/wasnorm_wordpool_less_exclusions.txt	LTP189	ltpFR	3	8	1	BOULEVARD	156	n/a	n/a	0	0.422607421875	0.5869140625	0	upper	amplitud.ttf
1171946	WORD	wordpools/wasnorm_wordpool_less_exclusions.txt	LTP189	ltpFR	3	8	1	ANT	25	n/a	n/a	1	0.422607421875	0.5869140625	0	upper	amplitud.ttf
1175912	WORD	wordpools/wasnorm_wordpool_less_exclusions.txt	LTP189	ltpFR	3	8	1	GRASSHOPPER	656	n/a	n/a	1	0.422607421875	0.5869140625	0	upper	amplitud.ttf
1180095	WORD	wordpools/wasnorm_wordpool_less_exclusions.txt	LTP189	ltpFR	3	8	1	HAMBURGER	679	n/a	n/a	0	0.422607421875	0.5869140625	0	upper	amplitud.ttf
1184008	WORD	wordpools/wasnorm_wordpool_less_exclusions.txt	LTP189	ltpFR	3	8	1	COB	334	n/a	n/a	0	0.422607421875	0.5869140625	0	upper	amplitud.ttf
1187992	WORD	wordpools/wasnorm_wordpool_less_exclusions.txt	LTP189	ltpFR	3	8	1	CAMEL	223	n/a	n/a	1	0.422607421875	0.5869140625	0	upper	amplitud.ttf
1192113	WORD	wordpools/wasnorm_wordpool_less_exclusions.txt	LTP189	ltpFR	3	8	1	SWIMMER	1420	n/a	n/a	0	0.422607421875	0.5869140625	0	upper	amplitud.ttf
1196205	WORD	wordpools/wasnorm_wordpool_less_exclusions.txt	LTP189	ltpFR	3	8	1	COW	393	n/a	n/a	1	0.422607421875	0.5869140625	0	upper	amplitud.ttf
1200153	WORD	wordpools/wasnorm_wordpool_less_exclusions.txt	LTP189	ltpFR	3	8	1	TAR	1435	n/a	n/a	0	0.422607421875	0.5869140625	0	upper	amplitud.ttf
1204235	WORD	wordpools/wasnorm_wordpool_less_exclusions.txt	LTP189	ltpFR	3	8	1	NEPHEW	942	n/a	n/a	1	0.422607421875	0.5869140625	0	upper	amplitud.ttf
1208418	WORD	wordpools/wasnorm_wordpool_less_exclusions.txt	LTP189	ltpFR	3	8	1	SIRLOIN	1311	n/a	n/a	0	0.422607421875	0.5869140625	0	upper	amplitud.ttf
1214190	REC_START	n/a	LTP189	ltpFR	3	8	n/a	n/a	n/a	n/a	n/a	n/a	n/a	n/a	n/a	n/a	n/a
1215612	REC_WORD	wordpools/wasnorm_wordpool_less_exclusions.txt	LTP189	ltpFR	3	8	1	SIRLOIN	1311	n/a	n/a	0	n/a	n/a	n/a	n/a	n/a
1216898	REC_WORD	wordpools/wasnorm_wordpool_less_exclusions.txt	LTP189	ltpFR	3	8	1	EXPERT	543	n/a	n/a	1	n/a	n/a	n/a	n/a	n/a
1217871	REC_WORD	wordpools/wasnorm_wordpool_less_exclusions.txt	LTP189	ltpFR	3	8	1	FIELD	562	n/a	n/a	0	n/a	n/a	n/a	n/a	n/a
1219208	REC_WORD	wordpools/wasnorm_wordpool_less_exclusions.txt	LTP189	ltpFR	3	8	1	BOULEVARD	156	n/a	n/a	0	n/a	n/a	n/a	n/a	n/a
1220954	REC_WORD	wordpools/wasnorm_wordpool_less_exclusions.txt	LTP189	ltpFR	3	8	1	LADDER	793	n/a	n/a	0	n/a	n/a	n/a	n/a	n/a
1222107	REC_WORD	wordpools/wasnorm_wordpool_less_exclusions.txt	LTP189	ltpFR	3	8	1	ANT	25	n/a	n/a	1	n/a	n/a	n/a	n/a	n/a
1222940	REC_WORD	wordpools/wasnorm_wordpool_less_exclusions.txt	LTP189	ltpFR	3	8	1	GRASSHOPPER	656	n/a	n/a	1	n/a	n/a	n/a	n/a	n/a
1223963	REC_WORD	wordpools/wasnorm_wordpool_less_exclusions.txt	LTP189	ltpFR	3	8	1	HAMBURGER	679	n/a	n/a	0	n/a	n/a	n/a	n/a	n/a
1225230	REC_WORD	wordpools/wasnorm_wordpool_less_exclusions.txt	LTP189	ltpFR	3	8	1	FAUCET	555	n/a	n/a	0	n/a	n/a	n/a	n/a	n/a
1226342	REC_WORD	wordpools/wasnorm_wordpool_less_exclusions.txt	LTP189	ltpFR	3	8	1	PUDDLE	1140	n/a	n/a	0	n/a	n/a	n/a	n/a	n/a
1318369	WORD	wordpools/wasnorm_wordpool_less_exclusions.txt	LTP189	ltpFR	3	9	1	SNAKE	1333	n/a	n/a	1	0.422607421875	0.5869140625	0	upper	amplitud.ttf
1322397	WORD	wordpools/wasnorm_wordpool_less_exclusions.txt	LTP189	ltpFR	3	9	1	EMERALD	528	n/a	n/a	0	0.422607421875	0.5869140625	0	upper	amplitud.ttf
1326229	WORD	wordpools/wasnorm_wordpool_less_exclusions.txt	LTP189	ltpFR	3	9	1	POLE	1097	n/a	n/a	0	0.422607421875	0.5869140625	0	upper	amplitud.ttf
1330344	WORD	wordpools/wasnorm_wordpool_less_exclusions.txt	LTP189	ltpFR	3	9	1	SKIRT	1319	n/a	n/a	0	0.422607421875	0.5869140625	0	upper	amplitud.ttf
1334359	WORD	wordpools/wasnorm_wordpool_less_exclusions.txt	LTP189	ltpFR	3	9	1	OX	994	n/a	n/a	1	0.422607421875	0.5869140625	0	upper	amplitud.ttf
1338558	WORD	wordpools/wasnorm_wordpool_less_exclusions.txt	LTP189	ltpFR	3	9	1	FORT	595	n/a	n/a	0	0.422607421875	0.5869140625	0	upper	amplitud.ttf
1342741	WORD	wordpools/wasnorm_wordpool_less_exclusions.txt	LTP189	ltpFR	3	9	1	SALAD	1224	n/a	n/a	0	0.422607421875	0.5869140625	0	upper	amplitud.ttf
1346826	WORD	wordpools/wasnorm_wordpool_less_exclusions.txt	LTP189	ltpFR	3	9	1	MEAL	882	n/a	n/a	0	0.422607421875	0.5869140625	0	upper	amplitud.ttf
1350871	WORD	wordpools/wasnorm_wordpool_less_exclusions.txt	LTP189	ltpFR	3	9	1	DRAGON	492	n/a	n/a	1	0.422607421875	0.5869140625	0	upper	amplitud.ttf
1354702	WORD	wordpools/wasnorm_wordpool_less_exclusions.txt	LTP189	ltpFR	3	9	1	HOOP	716	n/a	n/a	0	0.422607421875	0.5869140625	0	upper	amplitud.ttf
1358687	WORD	wordpools/wasnorm_wordpool_less_exclusions.txt	LTP189	ltpFR	3	9	1	BARN	89	n/a	n/a	0	0.422607421875	0.5869140625	0	upper	amplitud.ttf
1362549	WORD	wordpools/wasnorm_wordpool_less_exclusions.txt	LTP189	ltpFR	3	9	1	FOLLOWER	589	n/a	n/a	0	0.422607421875	0.5869140625	0	upper	amplitud.ttf
1366430	WORD	wordpools/wasnorm_wordpool_less_exclusions.txt	LTP189	ltpFR	3	9	1	CHIEF	298	n/a	n/a	0	0.422607421875	0.5869140625	0	upper	amplitud.ttf
1370546	WORD	wordpools/wasnorm_wordpool_less_exclusions.txt	LTP189	ltpFR	3	9	1	TRUCK	1512	n/a	n/a	0	0.422607421875	0.5869140625	0	upper	amplitud.ttf
1374427	WORD	wordpools/wasnorm_wordpool_less_exclusions.txt	LTP189	ltpFR	3	9	1	RADIATOR	1156	n/a	n/a	0	0.422607421875	0.5869140625	0	upper	amplitud.ttf
1378430	WORD	wordpools/wasnorm_wordpool_less_exclusions.txt	LTP189	ltpFR	3	9	1	HARE	688	n/a	n/a	1	0.422607421875	0.5869140625	0	upper	amplitud.ttf
1384398	REC_START	n/a	LTP189	ltpFR	3	9	n/a	n/a	n/a	n/a	n/a	n/a	n/a	n/a	n/a	n/a	n/a
1385660	REC_WORD	wordpools/wasnorm_wordpool_less_exclusions.txt	LTP189	ltpFR	3	9	1	HARE	688	n/a	n/a	1	n/a	n/a	n/a	n/a	n/a
1386493	REC_WORD	wordpools/wasnorm_wordpool_less_exclusions.txt	LTP189	ltpFR	3	9	1	CHIEF	298	n/a	n/a	0	n/a	n/a	n/a	n/a	n/a
1387326	REC_WORD	wordpools/wasnorm_wordpool_less_exclusions.txt	LTP189	ltpFR	3	9	1	FOLLOWER	589	n/a	n/a	0	n/a	n/a	n/a	n/a	n/a
1388349	REC_WORD	wordpools/wasnorm_wordpool_less_exclusions.txt	LTP189	ltpFR	3	9	1	OX	994	n/a	n/a	1	n/a	n/a	n/a	n/a	n/a
1389272	REC_WORD	wordpools/wasnorm_wordpool_less_exclusions.txt	LTP189	ltpFR	3	9	1	BARN	89	n/a	n/a	0	n/a	n/a	n/a	n/a	n/a
1390559	REC_WORD	wordpools/wasnorm_wordpool_less_exclusions.txt	LTP189	ltpFR	3	9	1	SALAD	1224	n/a	n/a	0	n/a	n/a	n/a	n/a	n/a
1391562	REC_WORD	wordpools/wasnorm_wordpool_less_exclusions.txt	LTP189	ltpFR	3	9	1	DRAGON	492	n/a	n/a	1	n/a	n/a	n/a	n/a	n/a
1392365	REC_WORD	wordpools/wasnorm_wordpool_less_exclusions.txt	LTP189	ltpFR	3	9	1	FORT	595	n/a	n/a	0	n/a	n/a	n/a	n/a	n/a
1393193	REC_WORD	wordpools/wasnorm_wordpool_less_exclusions.txt	LTP189	ltpFR	3	9	1	SNAKE	1333	n/a	n/a	1	n/a	n/a	n/a	n/a	n/a
1394141	REC_WORD	wordpools/wasnorm_wordpool_less_exclusions.txt	LTP189	ltpFR	3	9	1	SKIRT	1319	n/a	n/a	0	n/a	n/a	n/a	n/a	n/a
1395243	REC_WORD	wordpools/wasnorm_wordpool_less_exclusions.txt	LTP189	ltpFR	3	9	1	POLE	1097	n/a	n/a	0	n/a	n/a	n/a	n/a	n/a
1396151	REC_WORD	wordpools/wasnorm_wordpool_less_exclusions.txt	LTP189	ltpFR	3	9	1	EMERALD	528	n/a	n/a	0	n/a	n/a	n/a	n/a	n/a
1468180	WORD	wordpools/wasnorm_wordpool_less_exclusions.txt	LTP189	ltpFR	3	10	0	CRATER	400	n/a	n/a	1	0.57763671875	0.412841796875	1	lower	zerothre.ttf
1472312	WORD	wordpools/wasnorm_wordpool_less_exclusions.txt	LTP189	ltpFR	3	10	0	FLASK	576	n/a	n/a	0	0.57763671875	0.412841796875	1	lower	zerothre.ttf
1476344	WORD	wordpools/wasnorm_wordpool_less_exclusions.txt	LTP189	ltpFR	3	10	0	BANANA	77	n/a	n/a	0	0.57763671875	0.412841796875	1	lower	zerothre.ttf
1480259	WORD	wordpools/wasnorm_wordpool_less_exclusions.txt	LTP189	ltpFR	3	10	1	SPATULA	1348	n/a	n/a	0	0.422607421875	0.5869140625	0	upper	amplitud.ttf
1484394	WORD	wordpools/wasnorm_wordpool_less_exclusions.txt	LTP189	ltpFR	3	10	1	LUNCH	849	n/a	n/a	0	0.422607421875	0.5869140625	0	upper	amplitud.ttf
1488540	WORD	wordpools/wasnorm_wordpool_less_exclusions.txt	LTP189	ltpFR	3	10	1	ANTEATER	26	n/a	n/a	1	0.422607421875	0.5869140625	0	upper	amplitud.ttf
1492723	WORD	wordpools/wasnorm_wordpool_less_exclusions.txt	LTP189	ltpFR	3	10	1	PARSLEY	1016	n/a	n/a	1	0.422607421875	0.5869140625	0	upper	amplitud.ttf
1496570	WORD	wordpools/wasnorm_wordpool_less_exclusions.txt	LTP189	ltpFR	3	10	0	SPINACH	1352	n/a	n/a	0	0.57763671875	0.412841796875	1	lower	zerothre.ttf
1500736	WORD	wordpools/wasnorm_wordpool_less_exclusions.txt	LTP189	ltpFR	3	10	0	KIWI	781	n/a	n/a	0	0.57763671875	0.412841796875	1	lower	zerothre.ttf
1504569	WORD	wordpools/wasnorm_wordpool_less_exclusions.txt	LTP189	ltpFR	3	10	0	CONTRACTOR	369	n/a	n/a	1	0.57763671875	0.412841796875	1	lower	zerothre.ttf
1508532	WORD	wordpools/wasnorm_wordpool_less_exclusions.txt	LTP189	ltpFR	3	10	1	CHARCOAL	281	n/a	n/a	0	0.422607421875	0.5869140625	0	upper	amplitud.ttf
1512363	WORD	wordpools/wasnorm_wordpool_less_exclusions.txt	LTP189	ltpFR	3	10	1	RAM	1165	n/a	n/a	0	0.422607421875	0.5869140625	0	upper	amplitud.ttf
1516463	WORD	wordpools/wasnorm_wordpool_less_exclusions.txt	LTP189	ltpFR	3	10	1	SHEEP	1278	n/a	n/a	1	0.422607421875	0.5869140625	0	upper	amplitud.ttf
1520360	WORD	wordpools/wasnorm_wordpool_less_exclusions.txt	LTP189	ltpFR	3	10	1	COCKTAIL	338	n/a	n/a	0	0.422607421875	0.5869140625	0	upper	amplitud.ttf
1524375	WORD	wordpools/wasnorm_wordpool_less_exclusions.txt	LTP189	ltpFR	3	10	0	HERD	705	n/a	n/a	0	0.57763671875	0.412841796875	1	lower	zerothre.ttf
1528441	WORD	wordpools/wasnorm_wordpool_less_exclusions.txt	LTP189	ltpFR	3	10	0	BANK	83	n/a	n/a	1	0.57763671875	0.412841796875	1	lower	zerothre.ttf
1534498	REC_START	n/a	LTP189	ltpFR	3	10	n/a	n/a	n/a	n/a	n/a	n/a	n/a	n/a	n/a	n/a	n/a
1535640	REC_WORD	wordpools/wasnorm_wordpool_less_exclusions.txt	LTP189	ltpFR	3	10	0	BANK	83	n/a	n/a	1	n/a	n/a	n/a	n/a	n/a
1536239	REC_WORD	wordpools/wasnorm_wordpool_less_exclusions.txt	LTP189	ltpFR	3	10	0	HERD	705	n/a	n/a	0	n/a	n/a	n/a	n/a	n/a
1536937	REC_WORD	wordpools/wasnorm_wordpool_less_exclusions.txt	LTP189	ltpFR	3	10	1	SHEEP	1278	n/a	n/a	1	n/a	n/a	n/a	n/a	n/a
1537596	REC_WORD	wordpools/wasnorm_wordpool_less_exclusions.txt	LTP189	ltpFR	3	10	1	SPATULA	1348	n/a	n/a	0	n/a	n/a	n/a	n/a	n/a
1538334	REC_WORD	wordpools/wasnorm_wordpool_less_exclusions.txt	LTP189	ltpFR	3	10	0	FLASK	576	n/a	n/a	0	n/a	n/a	n/a	n/a	n/a
1539142	REC_WORD	wordpools/wasnorm_wordpool_less_exclusions.txt	LTP189	ltpFR	3	10	0	CRATER	400	n/a	n/a	1	n/a	n/a	n/a	n/a	n/a
1539741	REC_WORD	wordpools/wasnorm_wordpool_less_exclusions.txt	LTP189	ltpFR	3	10	0	BANANA	77	n/a	n/a	0	n/a	n/a	n/a	n/a	n/a
1545967	REC_WORD	wordpools/wasnorm_wordpool_less_exclusions.txt	LTP189	ltpFR	3	10	1	ANTEATER	26	n/a	n/a	1	n/a	n/a	n/a	n/a	n/a
1547982	REC_WORD	wordpools/wasnorm_wordpool_less_exclusions.txt	LTP189	ltpFR	3	10	1	LUNCH	849	n/a	n/a	0	n/a	n/a	n/a	n/a	n/a
1661392	WORD	wordpools/wasnorm_wordpool_less_exclusions.txt	LTP189	ltpFR	3	11	1	BIKE	125	n/a	n/a	0	0.422607421875	0.5869140625	0	upper	amplitud.ttf
1665424	WORD	wordpools/wasnorm_wordpool_less_exclusions.txt	LTP189	ltpFR	3	11	1	ICEBERG	731	n/a	n/a	0	0.422607421875	0.5869140625	0	upper	amplitud.ttf
1669372	WORD	wordpools/wasnorm_wordpool_less_exclusions.txt	LTP189	ltpFR	3	11	1	BARRACUDA	90	n/a	n/a	0	0.422607421875	0.5869140625	0	upper	amplitud.ttf
1673557	WORD	wordpools/wasnorm_wordpool_less_exclusions.txt	LTP189	ltpFR	3	11	1	COD	340	n/a	n/a	1	0.422607421875	0.5869140625	0	upper	amplitud.ttf
1677452	WORD	wordpools/wasnorm_wordpool_less_exclusions.txt	LTP189	ltpFR	3	11	0	BULLY	196	n/a	n/a	1	0.57763671875	0.412841796875	1	lower	zerothre.ttf
1681334	WORD	wordpools/wasnorm_wordpool_less_exclusions.txt	LTP189	ltpFR	3	11	0	GANG	619	n/a	n/a	1	0.57763671875	0.412841796875	1	lower	zerothre.ttf
1685301	WORD	wordpools/wasnorm_wordpool_less_exclusions.txt	LTP189	ltpFR	3	11	1	CIGAR	308	n/a	n/a	0	0.422607421875	0.5869140625	0	upper	amplitud.ttf
1689330	WORD	wordpools/wasnorm_wordpool_less_exclusions.txt	LTP189	ltpFR	3	11	1	SCREWDRIVER	1255	n/a	n/a	0	0.422607421875	0.5869140625	0	upper	amplitud.ttf
1693345	WORD	wordpools/wasnorm_wordpool_less_exclusions.txt	LTP189	ltpFR	3	11	0	DRILL	497	n/a	n/a	1	0.57763671875	0.412841796875	1	lower	zerothre.ttf
1697377	WORD	wordpools/wasnorm_wordpool_less_exclusions.txt	LTP189	ltpFR	3	11	0	SIREN	1310	n/a	n/a	0	0.57763671875	0.412841796875	1	lower	zerothre.ttf
1701232	WORD	wordpools/wasnorm_wordpool_less_exclusions.txt	LTP189	ltpFR	3	11	0	ARCHITECT	36	n/a	n/a	1	0.57763671875	0.412841796875	1	lower	zerothre.ttf
1705090	WORD	wordpools/wasnorm_wordpool_less_exclusions.txt	LTP189	ltpFR	3	11	0	WAGON	1578	n/a	n/a	1	0.57763671875	0.412841796875	1	lower	zerothre.ttf
1709239	WORD	wordpools/wasnorm_wordpool_less_exclusions.txt	LTP189	ltpFR	3	11	0	HEATER	698	n/a	n/a	0	0.57763671875	0.412841796875	1	lower	zerothre.ttf
1713137	WORD	wordpools/wasnorm_wordpool_less_exclusions.txt	LTP189	ltpFR	3	11	0	GLACIER	638	n/a	n/a	0	0.57763671875	0.412841796875	1	lower	zerothre.ttf
1717105	WORD	wordpools/wasnorm_wordpool_less_exclusions.txt	LTP189	ltpFR	3	11	1	CHAIN	273	n/a	n/a	0	0.422607421875	0.5869140625	0	upper	amplitud.ttf
1721184	WORD	wordpools/wasnorm_wordpool_less_exclusions.txt	LTP189	ltpFR	3	11	1	STOVE	1388	n/a	n/a	0	0.422607421875	0.5869140625	0	upper	amplitud.ttf
1726989	REC_START	n/a	LTP189	ltpFR	3	11	n/a	n/a	n/a	n/a	n/a	n/a	n/a	n/a	n/a	n/a	n/a
1727837	REC_WORD	wordpools/wasnorm_wordpool_less_exclusions.txt	LTP189	ltpFR	3	11	1	STOVE	1388	n/a	n/a	0	n/a	n/a	n/a	n/a	n/a
1728964	REC_WORD	wordpools/wasnorm_wordpool_less_exclusions.txt	LTP189	ltpFR	3	11	0	GLACIER	638	n/a	n/a	0	n/a	n/a	n/a	n/a	n/a
1729787	REC_WORD	wordpools/wasnorm_wordpool_less_exclusions.txt	LTP189	ltpFR	3	11	1	ICEBERG	731	n/a	n/a	0	n/a	n/a	n/a	n/a	n/a
1730381	REC_WORD	wordpools/wasnorm_wordpool_less_exclusions.txt	LTP189	ltpFR	3	11	1	CIGAR	308	n/a	n/a	0	n/a	n/a	n/a	n/a	n/a
1731533	REC_WORD	wordpools/wasnorm_wordpool_less_exclusions.txt	LTP189	ltpFR	3	11	0	BULLY	196	n/a	n/a	1	n/a	n/a	n/a	n/a	n/a
1733379	REC_WORD	wordpools/wasnorm_wordpool_less_exclusions.txt	LTP189	ltpFR	3	11	0	GANG	619	n/a	n/a	1	n/a	n/a	n/a	n/a	n/a
1738697	REC_WORD	wordpools/wasnorm_wordpool_less_exclusions.txt	LTP189	ltpFR	3	11	1	BARRACUDA	90	n/a	n/a	0	n/a	n/a	n/a	n/a	n/a
1741261	REC_WORD	wordpools/wasnorm_wordpool_less_exclusions.txt	LTP189	ltpFR	3	11	1	COD	340	n/a	n/a	1	n/a	n/a	n/a	n/a	n/a
1743766	REC_WORD	wordpools/wasnorm_wordpool_less_exclusions.txt	LTP189	ltpFR	3	11	0	DRILL	497	n/a	n/a	1	n/a	n/a	n/a	n/a	n/a
1821679	WORD	wordpools/wasnorm_wordpool_less_exclusions.txt	LTP189	ltpFR	3	12	-1	HAMPER	682	n/a	n/a	-1	1.0	1.0	1	upper	Verdana.ttf
1825644	WORD	wordpools/wasnorm_wordpool_less_exclusions.txt	LTP189	ltpFR	3	12	-1	LAPEL	800	n/a	n/a	-1	1.0	1.0	1	upper	Verdana.ttf
1829542	WORD	wordpools/wasnorm_wordpool_less_exclusions.txt	LTP189	ltpFR	3	12	-1	VOLCANO	1575	n/a	n/a	-1	1.0	1.0	1	upper	Verdana.ttf
1833390	WORD	wordpools/wasnorm_wordpool_less_exclusions.txt	LTP189	ltpFR	3	12	-1	SWATTER	1418	n/a	n/a	-1	1.0	1.0	1	upper	Verdana.ttf
1837376	WORD	wordpools/wasnorm_wordpool_less_exclusions.txt	LTP189	ltpFR	3	12	-1	COAT	333	n/a	n/a	-1	1.0	1.0	1	upper	Verdana.ttf
1841438	WORD	wordpools/wasnorm_wordpool_less_exclusions.txt	LTP189	ltpFR	3	12	-1	WARRIOR	1589	n/a	n/a	-1	1.0	1.0	1	upper	Verdana.ttf
1845441	WORD	wordpools/wasnorm_wordpool_less_exclusions.txt	LTP189	ltpFR	3	12	-1	BOXER	160	n/a	n/a	-1	1.0	1.0	1	upper	Verdana.ttf
1849651	WORD	wordpools/wasnorm_wordpool_less_exclusions.txt	LTP189	ltpFR	3	12	-1	HEEL	700	n/a	n/a	-1	1.0	1.0	1	upper	Verdana.ttf
1853549	WORD	wordpools/wasnorm_wordpool_less_exclusions.txt	LTP189	ltpFR	3	12	-1	TOE	1473	n/a	n/a	-1	1.0	1.0	1	upper	Verdana.ttf
1857497	WORD	wordpools/wasnorm_wordpool_less_exclusions.txt	LTP189	ltpFR	3	12	-1	CHAIRPERSON	275	n/a	n/a	-1	1.0	1.0	1	upper	Verdana.ttf
1861630	WORD	wordpools/wasnorm_wordpool_less_exclusions.txt	LTP189	ltpFR	3	12	-1	STAPLE	1371	n/a	n/a	-1	1.0	1.0	1	upper	Verdana.ttf
1865544	WORD	wordpools/wasnorm_wordpool_less_exclusions.txt	LTP189	ltpFR	3	12	-1	DRIVER	499	n/a	n/a	-1	1.0	1.0	1	upper	Verdana.ttf
1869712	WORD	wordpools/wasnorm_wordpool_less_exclusions.txt	LTP189	ltpFR	3	12	-1	OAR	966	n/a	n/a	-1	1.0	1.0	1	upper	Verdana.ttf
1873826	WORD	wordpools/wasnorm_wordpool_less_exclusions.txt	LTP189	ltpFR	3	12	-1	COMMITTEE	355	n/a	n/a	-1	1.0	1.0	1	upper	Verdana.ttf
1877874	WORD	wordpools/wasnorm_wordpool_less_exclusions.txt	LTP189	ltpFR	3	12	-1	CAB	209	n/a	n/a	-1	1.0	1.0	1	upper	Verdana.ttf
1881939	WORD	wordpools/wasnorm_wordpool_less_exclusions.txt	LTP189	ltpFR	3	12	-1	CARTON	251	n/a	n/a	-1	1.0	1.0	1	upper	Verdana.ttf
1887930	REC_START	n/a	LTP189	ltpFR	3	12	n/a	n/a	n/a	n/a	n/a	n/a	n/a	n/a	n/a	n/a	n/a
1888853	REC_WORD	wordpools/wasnorm_wordpool_less_exclusions.txt	LTP189	ltpFR	3	12	-1	CARTON	251	n/a	n/a	-1	n/a	n/a	n/a	n/a	n/a
1889915	REC_WORD	wordpools/wasnorm_wordpool_less_exclusions.txt	LTP189	ltpFR	3	12	-1	DRIVER	499	n/a	n/a	-1	n/a	n/a	n/a	n/a	n/a
1890983	REC_WORD	wordpools/wasnorm_wordpool_less_exclusions.txt	LTP189	ltpFR	3	12	-1	OAR	966	n/a	n/a	-1	n/a	n/a	n/a	n/a	n/a
1891751	REC_WORD	wordpools/wasnorm_wordpool_less_exclusions.txt	LTP189	ltpFR	3	12	0	TAXI	1438	n/a	n/a	1	n/a	n/a	n/a	n/a	n/a
1892619	REC_WORD	wordpools/wasnorm_wordpool_less_exclusions.txt	LTP189	ltpFR	3	12	-1	CHAIRPERSON	275	n/a	n/a	-1	n/a	n/a	n/a	n/a	n/a
1893577	REC_WORD	wordpools/wasnorm_wordpool_less_exclusions.txt	LTP189	ltpFR	3	12	-1	COMMITTEE	355	n/a	n/a	-1	n/a	n/a	n/a	n/a	n/a
1894505	REC_WORD	wordpools/wasnorm_wordpool_less_exclusions.txt	LTP189	ltpFR	3	12	-1	VOLCANO	1575	n/a	n/a	-1	n/a	n/a	n/a	n/a	n/a
1895602	REC_WORD	wordpools/wasnorm_wordpool_less_exclusions.txt	LTP189	ltpFR	3	12	-1	LAPEL	800	n/a	n/a	-1	n/a	n/a	n/a	n/a	n/a
1896685	REC_WORD	wordpools/wasnorm_wordpool_less_exclusions.txt	LTP189	ltpFR	3	12	-1	COAT	333	n/a	n/a	-1	n/a	n/a	n/a	n/a	n/a
1899613	REC_WORD	wordpools/wasnorm_wordpool_less_exclusions.txt	LTP189	ltpFR	3	12	-1	WARRIOR	1589	n/a	n/a	-1	n/a	n/a	n/a	n/a	n/a
1902681	REC_WORD	wordpools/wasnorm_wordpool_less_exclusions.txt	LTP189	ltpFR	3	12	-1	TOE	1473	n/a	n/a	-1	n/a	n/a	n/a	n/a	n/a
1904318	REC_WORD	wordpools/wasnorm_wordpool_less_exclusions.txt	LTP189	ltpFR	3	12	-1	HEEL	700	n/a	n/a	-1	n/a	n/a	n/a	n/a	n/a
1906238	REC_WORD	wordpools/wasnorm_wordpool_less_exclusions.txt	LTP189	ltpFR	3	12	-1	BOXER	160	n/a	n/a	-1	n/a	n/a	n/a	n/a	n/a
1909456	REC_WORD	wordpools/wasnorm_wordpool_less_exclusions.txt	LTP189	ltpFR	3	12	n/a	BOXING	-1	n/a	n/a	n/a	n/a	n/a	n/a	n/a	n/a
1963549	REST_REWET	n/a	LTP189	ltpFR	3	12	n/a	n/a	n/a	n/a	n/a	n/a	n/a	n/a	n/a	n/a	n/a
2260266	WORD	wordpools/wasnorm_wordpool_less_exclusions.txt	LTP189	ltpFR	3	13	-1	SCENERY	1247	n/a	n/a	-1	1.0	1.0	1	upper	Verdana.ttf
2264369	WORD	wordpools/wasnorm_wordpool_less_exclusions.txt	LTP189	ltpFR	3	13	-1	KETTLE	772	n/a	n/a	-1	1.0	1.0	1	upper	Verdana.ttf
2268215	WORD	wordpools/wasnorm_wordpool_less_exclusions.txt	LTP189	ltpFR	3	13	-1	RATTLE	1170	n/a	n/a	-1	1.0	1.0	1	upper	Verdana.ttf
2272311	WORD	wordpools/wasnorm_wordpool_less_exclusions.txt	LTP189	ltpFR	3	13	-1	CROCODILE	411	n/a	n/a	-1	1.0	1.0	1	upper	Verdana.ttf
2276159	WORD	wordpools/wasnorm_wordpool_less_exclusions.txt	LTP189	ltpFR	3	13	-1	JACKET	747	n/a	n/a	-1	1.0	1.0	1	upper	Verdana.ttf
2280309	WORD	wordpools/wasnorm_wordpool_less_exclusions.txt	LTP189	ltpFR	3	13	-1	FIST	572	n/a	n/a	-1	1.0	1.0	1	upper	Verdana.ttf
2284189	WORD	wordpools/wasnorm_wordpool_less_exclusions.txt	LTP189	ltpFR	3	13	-1	BIBLE	124	n/a	n/a	-1	1.0	1.0	1	upper	Verdana.ttf
2288154	WORD	wordpools/wasnorm_wordpool_less_exclusions.txt	LTP189	ltpFR	3	13	-1	CHAPEL	280	n/a	n/a	-1	1.0	1.0	1	upper	Verdana.ttf
2292001	WORD	wordpools/wasnorm_wordpool_less_exclusions.txt	LTP189	ltpFR	3	13	-1	RING	1193	n/a	n/a	-1	1.0	1.0	1	upper	Verdana.ttf
2295849	WORD	wordpools/wasnorm_wordpool_less_exclusions.txt	LTP189	ltpFR	3	13	-1	PELICAN	1039	n/a	n/a	-1	1.0	1.0	1	upper	Verdana.ttf
2299898	WORD	wordpools/wasnorm_wordpool_less_exclusions.txt	LTP189	ltpFR	3	13	-1	CARDINAL	244	n/a	n/a	-1	1.0	1.0	1	upper	Verdana.ttf
2303880	WORD	wordpools/wasnorm_wordpool_less_exclusions.txt	LTP189	ltpFR	3	13	-1	OCTOPUS	971	n/a	n/a	-1	1.0	1.0	1	upper	Verdana.ttf
2307961	WORD	wordpools/wasnorm_wordpool_less_exclusions.txt	LTP189	ltpFR	3	13	-1	OTTER	986	n/a	n/a	-1	1.0	1.0	1	upper	Verdana.ttf
2312178	WORD	wordpools/wasnorm_wordpool_less_exclusions.txt	LTP189	ltpFR	3	13	-1	BOUILLON	154	n/a	n/a	-1	1.0	1.0	1	upper	Verdana.ttf
2316126	WORD	wordpools/wasnorm_wordpool_less_exclusions.txt	LTP189	ltpFR	3	13	-1	MINK	897	n/a	n/a	-1	1.0	1.0	1	upper	Verdana.ttf
2320077	WORD	wordpools/wasnorm_wordpool_less_exclusions.txt	LTP189	ltpFR	3	13	-1	BOUQUET	157	n/a	n/a	-1	1.0	1.0	1	upper	Verdana.ttf
2326029	REC_START	n/a	LTP189	ltpFR	3	13	n/a	n/a	n/a	n/a	n/a	n/a	n/a	n/a	n/a	n/a	n/a
2326917	REC_WORD	wordpools/wasnorm_wordpool_less_exclusions.txt	LTP189	ltpFR	3	13	-1	MINK	897	n/a	n/a	-1	n/a	n/a	n/a	n/a	n/a
2327615	REC_WORD	wordpools/wasnorm_wordpool_less_exclusions.txt	LTP189	ltpFR	3	13	-1	BOUQUET	157	n/a	n/a	-1	n/a	n/a	n/a	n/a	n/a
2328743	REC_WORD	wordpools/wasnorm_wordpool_less_exclusions.txt	LTP189	ltpFR	3	13	-1	BOUILLON	154	n/a	n/a	-1	n/a	n/a	n/a	n/a	n/a
2330463	REC_WORD	wordpools/wasnorm_wordpool_less_exclusions.txt	LTP189	ltpFR	3	13	-1	OTTER	986	n/a	n/a	-1	n/a	n/a	n/a	n/a	n/a
2331506	REC_WORD	wordpools/wasnorm_wordpool_less_exclusions.txt	LTP189	ltpFR	3	13	-1	CARDINAL	244	n/a	n/a	-1	n/a	n/a	n/a	n/a	n/a
2336241	REC_WORD	wordpools/wasnorm_wordpool_less_exclusions.txt	LTP189	ltpFR	3	13	n/a	ALLIGATOR	16	n/a	n/a	n/a	n/a	n/a	n/a	n/a	n/a
2336989	REC_WORD	wordpools/wasnorm_wordpool_less_exclusions.txt	LTP189	ltpFR	3	13	-1	JACKET	747	n/a	n/a	-1	n/a	n/a	n/a	n/a	n/a
2337587	REC_WORD	wordpools/wasnorm_wordpool_less_exclusions.txt	LTP189	ltpFR	3	13	-1	FIST	572	n/a	n/a	-1	n/a	n/a	n/a	n/a	n/a
2340266	REC_WORD	wordpools/wasnorm_wordpool_less_exclusions.txt	LTP189	ltpFR	3	13	-1	BIBLE	124	n/a	n/a	-1	n/a	n/a	n/a	n/a	n/a
2342666	REC_WORD	wordpools/wasnorm_wordpool_less_exclusions.txt	LTP189	ltpFR	3	13	-1	RING	1193	n/a	n/a	-1	n/a	n/a	n/a	n/a	n/a
2343454	REC_WORD	wordpools/wasnorm_wordpool_less_exclusions.txt	LTP189	ltpFR	3	13	-1	PELICAN	1039	n/a	n/a	-1	n/a	n/a	n/a	n/a	n/a
2345579	REC_WORD	wordpools/wasnorm_wordpool_less_exclusions.txt	LTP189	ltpFR	3	13	-1	CHAPEL	280	n/a	n/a	-1	n/a	n/a	n/a	n/a	n/a
2348642	REC_WORD	wordpools/wasnorm_wordpool_less_exclusions.txt	LTP189	ltpFR	3	13	-1	KETTLE	772	n/a	n/a	-1	n/a	n/a	n/a	n/a	n/a
2409478	WORD	wordpools/wasnorm_wordpool_less_exclusions.txt	LTP189	ltpFR	3	14	0	AGENT	10	n/a	n/a	1	0.57763671875	0.412841796875	1	lower	zerothre.ttf
2413694	WORD	wordpools/wasnorm_wordpool_less_exclusions.txt	LTP189	ltpFR	3	14	0	SICKLE	1302	n/a	n/a	0	0.57763671875	0.412841796875	1	lower	zerothre.ttf
2417675	WORD	wordpools/wasnorm_wordpool_less_exclusions.txt	LTP189	ltpFR	3	14	0	SUBWAY	1400	n/a	n/a	0	0.57763671875	0.412841796875	1	lower	zerothre.ttf
2421863	WORD	wordpools/wasnorm_wordpool_less_exclusions.txt	LTP189	ltpFR	3	14	0	GRIZZLY	662	n/a	n/a	0	0.57763671875	0.412841796875	1	lower	zerothre.ttf
2425791	WORD	wordpools/wasnorm_wordpool_less_exclusions.txt	LTP189	ltpFR	3	14	1	SCALPEL	1243	n/a	n/a	0	0.422607421875	0.5869140625	0	upper	amplitud.ttf
2429771	WORD	wordpools/wasnorm_wordpool_less_exclusions.txt	LTP189	ltpFR	3	14	1	MULE	931	n/a	n/a	1	0.422607421875	0.5869140625	0	upper	amplitud.ttf
2433752	WORD	wordpools/wasnorm_wordpool_less_exclusions.txt	LTP189	ltpFR	3	14	0	CARRIAGE	248	n/a	n/a	0	0.57763671875	0.412841796875	1	lower	zerothre.ttf
2437734	WORD	wordpools/wasnorm_wordpool_less_exclusions.txt	LTP189	ltpFR	3	14	0	GAZELLE	628	n/a	n/a	0	0.57763671875	0.412841796875	1	lower	zerothre.ttf
2441716	WORD	wordpools/wasnorm_wordpool_less_exclusions.txt	LTP189	ltpFR	3	14	0	STUMP	1396	n/a	n/a	0	0.57763671875	0.412841796875	1	lower	zerothre.ttf
2445580	WORD	wordpools/wasnorm_wordpool_less_exclusions.txt	LTP189	ltpFR	3	14	0	REFRIGERATOR	1179	n/a	n/a	1	0.57763671875	0.412841796875	1	lower	zerothre.ttf
2449713	WORD	wordpools/wasnorm_wordpool_less_exclusions.txt	LTP189	ltpFR	3	14	1	RECIPE	1175	n/a	n/a	0	0.422607421875	0.5869140625	0	upper	amplitud.ttf
2453644	WORD	wordpools/wasnorm_wordpool_less_exclusions.txt	LTP189	ltpFR	3	14	1	BROOK	177	n/a	n/a	1	0.422607421875	0.5869140625	0	upper	amplitud.ttf
2457843	WORD	wordpools/wasnorm_wordpool_less_exclusions.txt	LTP189	ltpFR	3	14	1	RACCOON	1153	n/a	n/a	1	0.422607421875	0.5869140625	0	upper	amplitud.ttf
2461842	WORD	wordpools/wasnorm_wordpool_less_exclusions.txt	LTP189	ltpFR	3	14	1	BRANCH	168	n/a	n/a	0	0.422607421875	0.5869140625	0	upper	amplitud.ttf
2465874	WORD	wordpools/wasnorm_wordpool_less_exclusions.txt	LTP189	ltpFR	3	14	1	SHELL	1281	n/a	n/a	0	0.422607421875	0.5869140625	0	upper	amplitud.ttf
2469905	WORD	wordpools/wasnorm_wordpool_less_exclusions.txt	LTP189	ltpFR	3	14	1	SEAGULL	1261	n/a	n/a	1	0.422607421875	0.5869140625	0	upper	amplitud.ttf
2475611	REC_START	n/a	LTP189	ltpFR	3	14	n/a	n/a	n/a	n/a	n/a	n/a	n/a	n/a	n/a	n/a	n/a
2476798	REC_WORD	wordpools/wasnorm_wordpool_less_exclusions.txt	LTP189	ltpFR	3	14	1	SEAGULL	1261	n/a	n/a	1	n/a	n/a	n/a	n/a	n/a
2477626	REC_WORD	wordpools/wasnorm_wordpool_less_exclusions.txt	LTP189	ltpFR	3	14	1	BRANCH	168	n/a	n/a	0	n/a	n/a	n/a	n/a	n/a
2478365	REC_WORD	wordpools/wasnorm_wordpool_less_exclusions.txt	LTP189	ltpFR	3	14	1	BROOK	177	n/a	n/a	1	n/a	n/a	n/a	n/a	n/a
2486566	REC_WORD	wordpools/wasnorm_wordpool_less_exclusions.txt	LTP189	ltpFR	3	14	0	AGENT	10	n/a	n/a	1	n/a	n/a	n/a	n/a	n/a
2487344	REC_WORD	wordpools/wasnorm_wordpool_less_exclusions.txt	LTP189	ltpFR	3	14	0	REFRIGERATOR	1179	n/a	n/a	1	n/a	n/a	n/a	n/a	n/a
2489100	REC_WORD	wordpools/wasnorm_wordpool_less_exclusions.txt	LTP189	ltpFR	3	14	1	RECIPE	1175	n/a	n/a	0	n/a	n/a	n/a	n/a	n/a
2559280	WORD	wordpools/wasnorm_wordpool_less_exclusions.txt	LTP189	ltpFR	3	15	-1	MUFFIN	929	n/a	n/a	-1	1.0	1.0	1	upper	Verdana.ttf
2563359	WORD	wordpools/wasnorm_wordpool_less_exclusions.txt	LTP189	ltpFR	3	15	-1	RASPBERRY	1168	n/a	n/a	-1	1.0	1.0	1	upper	Verdana.ttf
2567205	WORD	wordpools/wasnorm_wordpool_less_exclusions.txt	LTP189	ltpFR	3	15	-1	FAIRY	549	n/a	n/a	-1	1.0	1.0	1	upper	Verdana.ttf
2571341	WORD	wordpools/wasnorm_wordpool_less_exclusions.txt	LTP189	ltpFR	3	15	-1	DUCK	504	n/a	n/a	-1	1.0	1.0	1	upper	Verdana.ttf
2575303	WORD	wordpools/wasnorm_wordpool_less_exclusions.txt	LTP189	ltpFR	3	15	-1	MONKEY	911	n/a	n/a	-1	1.0	1.0	1	upper	Verdana.ttf
2579273	WORD	wordpools/wasnorm_wordpool_less_exclusions.txt	LTP189	ltpFR	3	15	-1	PRIMATE	1123	n/a	n/a	-1	1.0	1.0	1	upper	Verdana.ttf
2583351	WORD	wordpools/wasnorm_wordpool_less_exclusions.txt	LTP189	ltpFR	3	15	-1	GATE	625	n/a	n/a	-1	1.0	1.0	1	upper	Verdana.ttf
2587465	WORD	wordpools/wasnorm_wordpool_less_exclusions.txt	LTP189	ltpFR	3	15	-1	CHECKERS	285	n/a	n/a	-1	1.0	1.0	1	upper	Verdana.ttf
2591363	WORD	wordpools/wasnorm_wordpool_less_exclusions.txt	LTP189	ltpFR	3	15	-1	ROCK	1201	n/a	n/a	-1	1.0	1.0	1	upper	Verdana.ttf
2595295	WORD	wordpools/wasnorm_wordpool_less_exclusions.txt	LTP189	ltpFR	3	15	-1	PADDLE	1000	n/a	n/a	-1	1.0	1.0	1	upper	Verdana.ttf
2599142	WORD	wordpools/wasnorm_wordpool_less_exclusions.txt	LTP189	ltpFR	3	15	-1	BEAST	108	n/a	n/a	-1	1.0	1.0	1	upper	Verdana.ttf
2603177	WORD	wordpools/wasnorm_wordpool_less_exclusions.txt	LTP189	ltpFR	3	15	-1	ANTELOPE	27	n/a	n/a	-1	1.0	1.0	1	upper	Verdana.ttf
2607290	WORD	wordpools/wasnorm_wordpool_less_exclusions.txt	LTP189	ltpFR	3	15	-1	FLY	586	n/a	n/a	-1	1.0	1.0	1	upper	Verdana.ttf
2611455	WORD	wordpools/wasnorm_wordpool_less_exclusions.txt	LTP189	ltpFR	3	15	-1	GIFT	635	n/a	n/a	-1	1.0	1.0	1	upper	Verdana.ttf
2615571	WORD	wordpools/wasnorm_wordpool_less_exclusions.txt	LTP189	ltpFR	3	15	-1	DOOR	486	n/a	n/a	-1	1.0	1.0	1	upper	Verdana.ttf
2619569	WORD	wordpools/wasnorm_wordpool_less_exclusions.txt	LTP189	ltpFR	3	15	-1	YACHT	1629	n/a	n/a	-1	1.0	1.0	1	upper	Verdana.ttf
2625459	REC_START	n/a	LTP189	ltpFR	3	15	n/a	n/a	n/a	n/a	n/a	n/a	n/a	n/a	n/a	n/a	n/a
2626207	REC_WORD	wordpools/wasnorm_wordpool_less_exclusions.txt	LTP189	ltpFR	3	15	-1	DOOR	486	n/a	n/a	-1	n/a	n/a	n/a	n/a	n/a
2627005	REC_WORD	wordpools/wasnorm_wordpool_less_exclusions.txt	LTP189	ltpFR	3	15	-1	GIFT	635	n/a	n/a	-1	n/a	n/a	n/a	n/a	n/a
2627754	REC_WORD	wordpools/wasnorm_wordpool_less_exclusions.txt	LTP189	ltpFR	3	15	-1	YACHT	1629	n/a	n/a	-1	n/a	n/a	n/a	n/a	n/a
2628512	REC_WORD	wordpools/wasnorm_wordpool_less_exclusions.txt	LTP189	ltpFR	3	15	-1	MUFFIN	929	n/a	n/a	-1	n/a	n/a	n/a	n/a	n/a
2629295	REC_WORD	wordpools/wasnorm_wordpool_less_exclusions.txt	LTP189	ltpFR	3	15	-1	RASPBERRY	1168	n/a	n/a	-1	n/a	n/a	n/a	n/a	n/a
2630028	REC_WORD	wordpools/wasnorm_wordpool_less_exclusions.txt	LTP189	ltpFR	3	15	-1	FAIRY	549	n/a	n/a	-1	n/a	n/a	n/a	n/a	n/a
2631001	REC_WORD	wordpools/wasnorm_wordpool_less_exclusions.txt	LTP189	ltpFR	3	15	-1	PRIMATE	1123	n/a	n/a	-1	n/a	n/a	n/a	n/a	n/a
2631839	REC_WORD	wordpools/wasnorm_wordpool_less_exclusions.txt	LTP189	ltpFR	3	15	1	CHIMPANZEE	302	n/a	n/a	1	n/a	n/a	n/a	n/a	n/a
2633106	REC_WORD	wordpools/wasnorm_wordpool_less_exclusions.txt	LTP189	ltpFR	3	15	-1	BEAST	108	n/a	n/a	-1	n/a	n/a	n/a	n/a	n/a
2633825	REC_WORD	wordpools/wasnorm_wordpool_less_exclusions.txt	LTP189	ltpFR	3	15	-1	ANTELOPE	27	n/a	n/a	-1	n/a	n/a	n/a	n/a	n/a
2634543	REC_WORD	wordpools/wasnorm_wordpool_less_exclusions.txt	LTP189	ltpFR	3	15	-1	FLY	586	n/a	n/a	-1	n/a	n/a	n/a	n/a	n/a
2636992	REC_WORD	wordpools/wasnorm_wordpool_less_exclusions.txt	LTP189	ltpFR	3	15	-1	GATE	625	n/a	n/a	-1	n/a	n/a	n/a	n/a	n/a
2638015	REC_WORD	wordpools/wasnorm_wordpool_less_exclusions.txt	LTP189	ltpFR	3	15	-1	CHECKERS	285	n/a	n/a	-1	n/a	n/a	n/a	n/a	n/a
2638903	REC_WORD	wordpools/wasnorm_wordpool_less_exclusions.txt	LTP189	ltpFR	3	15	-1	ROCK	1201	n/a	n/a	-1	n/a	n/a	n/a	n/a	n/a
2662944	REC_WORD	wordpools/wasnorm_wordpool_less_exclusions.txt	LTP189	ltpFR	3	15	-1	PADDLE	1000	n/a	n/a	-1	n/a	n/a	n/a	n/a	n/a
2724115	WORD	wordpools/wasnorm_wordpool_less_exclusions.txt	LTP189	ltpFR	3	16	0	SAUSAGE	1238	n/a	n/a	0	0.57763671875	0.412841796875	1	lower	zerothre.ttf
2728027	WORD	wordpools/wasnorm_wordpool_less_exclusions.txt	LTP189	ltpFR	3	16	0	CONVENT	370	n/a	n/a	0	0.57763671875	0.412841796875	1	lower	zerothre.ttf
2731942	WORD	wordpools/wasnorm_wordpool_less_exclusions.txt	LTP189	ltpFR	3	16	0	CONE	363	n/a	n/a	0	0.57763671875	0.412841796875	1	lower	zerothre.ttf
2735774	WORD	wordpools/wasnorm_wordpool_less_exclusions.txt	LTP189	ltpFR	3	16	0	BANDANNA	80	n/a	n/a	0	0.57763671875	0.412841796875	1	lower	zerothre.ttf
2739622	WORD	wordpools/wasnorm_wordpool_less_exclusions.txt	LTP189	ltpFR	3	16	0	CHAIR	274	n/a	n/a	0	0.57763671875	0.412841796875	1	lower	zerothre.ttf
2743804	WORD	wordpools/wasnorm_wordpool_less_exclusions.txt	LTP189	ltpFR	3	16	0	PADDING	999	n/a	n/a	0	0.57763671875	0.412841796875	1	lower	zerothre.ttf
2747886	WORD	wordpools/wasnorm_wordpool_less_exclusions.txt	LTP189	ltpFR	3	16	0	CROSS	413	n/a	n/a	1	0.57763671875	0.412841796875	1	lower	zerothre.ttf
2751717	WORD	wordpools/wasnorm_wordpool_less_exclusions.txt	LTP189	ltpFR	3	16	0	BUGLE	189	n/a	n/a	0	0.57763671875	0.412841796875	1	lower	zerothre.ttf
2755885	WORD	wordpools/wasnorm_wordpool_less_exclusions.txt	LTP189	ltpFR	3	16	0	BELL	118	n/a	n/a	0	0.57763671875	0.412841796875	1	lower	zerothre.ttf
2760066	WORD	wordpools/wasnorm_wordpool_less_exclusions.txt	LTP189	ltpFR	3	16	0	CHIME	300	n/a	n/a	0	0.57763671875	0.412841796875	1	lower	zerothre.ttf
2764016	WORD	wordpools/wasnorm_wordpool_less_exclusions.txt	LTP189	ltpFR	3	16	0	CHEF	290	n/a	n/a	1	0.57763671875	0.412841796875	1	lower	zerothre.ttf
2767912	WORD	wordpools/wasnorm_wordpool_less_exclusions.txt	LTP189	ltpFR	3	16	0	COUCH	386	n/a	n/a	0	0.57763671875	0.412841796875	1	lower	zerothre.ttf
2771827	WORD	wordpools/wasnorm_wordpool_less_exclusions.txt	LTP189	ltpFR	3	16	0	TABLET	1427	n/a	n/a	0	0.57763671875	0.412841796875	1	lower	zerothre.ttf
2775744	WORD	wordpools/wasnorm_wordpool_less_exclusions.txt	LTP189	ltpFR	3	16	0	SPIT	1354	n/a	n/a	0	0.57763671875	0.412841796875	1	lower	zerothre.ttf
2779589	WORD	wordpools/wasnorm_wordpool_less_exclusions.txt	LTP189	ltpFR	3	16	0	LUNG	850	n/a	n/a	0	0.57763671875	0.412841796875	1	lower	zerothre.ttf
2783504	WORD	wordpools/wasnorm_wordpool_less_exclusions.txt	LTP189	ltpFR	3	16	0	BENCH	121	n/a	n/a	1	0.57763671875	0.412841796875	1	lower	zerothre.ttf
2789143	REC_START	n/a	LTP189	ltpFR	3	16	n/a	n/a	n/a	n/a	n/a	n/a	n/a	n/a	n/a	n/a	n/a
2790580	REC_WORD	wordpools/wasnorm_wordpool_less_exclusions.txt	LTP189	ltpFR	3	16	0	BENCH	121	n/a	n/a	1	n/a	n/a	n/a	n/a	n/a
2791363	REC_WORD	wordpools/wasnorm_wordpool_less_exclusions.txt	LTP189	ltpFR	3	16	0	BUGLE	189	n/a	n/a	0	n/a	n/a	n/a	n/a	n/a
2792126	REC_WORD	wordpools/wasnorm_wordpool_less_exclusions.txt	LTP189	ltpFR	3	16	0	PADDING	999	n/a	n/a	0	n/a	n/a	n/a	n/a	n/a
2792969	REC_WORD	wordpools/wasnorm_wordpool_less_exclusions.txt	LTP189	ltpFR	3	16	0	CONVENT	370	n/a	n/a	0	n/a	n/a	n/a	n/a	n/a
2794580	REC_WORD	wordpools/wasnorm_wordpool_less_exclusions.txt	LTP189	ltpFR	3	16	0	CROSS	413	n/a	n/a	1	n/a	n/a	n/a	n/a	n/a
2799145	REC_WORD	wordpools/wasnorm_wordpool_less_exclusions.txt	LTP189	ltpFR	3	16	0	CHAIR	274	n/a	n/a	0	n/a	n/a	n/a	n/a	n/a
2888651	REC_START	n/a	LTP189	ltpFR	3	1	n/a	n/a	n/a	n/a	n/a	n/a	n/a	n/a	n/a	n/a	n/a
2888700	RECOG_TARGET	n/a	LTP189	ltpFR	3	1	0	WAGON	1578	0	3	1	n/a	n/a	n/a	n/a	n/a
2890435	RECOG_RESP	n/a	LTP189	ltpFR	3	1	0	WAGON	1578	0	n/a	1	n/a	n/a	n/a	n/a	n/a
2892038	RECOG_CONF	n/a	LTP189	ltpFR	3	1	0	WAGON	1578	n/a	3	1	n/a	n/a	n/a	n/a	n/a
2893942	RECOG_TARGET	n/a	LTP189	ltpFR	3	1	-1	BOUILLON	154	1	4	-1	n/a	n/a	n/a	n/a	n/a
2894957	RECOG_RESP	n/a	LTP189	ltpFR	3	1	-1	BOUILLON	154	1	n/a	-1	n/a	n/a	n/a	n/a	n/a
2896140	RECOG_CONF	n/a	LTP189	ltpFR	3	1	-1	BOUILLON	154	n/a	4	-1	n/a	n/a	n/a	n/a	n/a
2898186	RECOG_TARGET	n/a	LTP189	ltpFR	3	1	0	RULER	1216	1	2	0	n/a	n/a	n/a	n/a	n/a
2900218	RECOG_RESP	n/a	LTP189	ltpFR	3	1	0	RULER	1216	1	n/a	0	n/a	n/a	n/a	n/a	n/a
2901545	RECOG_CONF	n/a	LTP189	ltpFR	3	1	0	RULER	1216	n/a	2	0	n/a	n/a	n/a	n/a	n/a
2903406	RECOG_TARGET	n/a	LTP189	ltpFR	3	1	-1	CAB	209	0	3	-1	n/a	n/a	n/a	n/a	n/a
2904641	RECOG_RESP	n/a	LTP189	ltpFR	3	1	-1	CAB	209	0	n/a	-1	n/a	n/a	n/a	n/a	n/a
2905937	RECOG_CONF	n/a	LTP189	ltpFR	3	1	-1	CAB	209	n/a	3	-1	n/a	n/a	n/a	n/a	n/a
2907827	RECOG_LURE	n/a	LTP189	ltpFR	3	1	n/a	PIGMENT	1066	0	2	n/a	n/a	n/a	n/a	n/a	n/a
2908898	RECOG_RESP	n/a	LTP189	ltpFR	3	1	n/a	PIGMENT	1066	0	n/a	n/a	n/a	n/a	n/a	n/a	n/a
2910617	RECOG_CONF	n/a	LTP189	ltpFR	3	1	n/a	PIGMENT	1066	n/a	2	n/a	n/a	n/a	n/a	n/a	n/a
2912440	RECOG_TARGET	n/a	LTP189	ltpFR	3	1	1	GRASSHOPPER	656	1	4	1	n/a	n/a	n/a	n/a	n/a
2913363	RECOG_RESP	n/a	LTP189	ltpFR	3	1	1	GRASSHOPPER	656	1	n/a	1	n/a	n/a	n/a	n/a	n/a
2914522	RECOG_CONF	n/a	LTP189	ltpFR	3	1	1	GRASSHOPPER	656	n/a	4	1	n/a	n/a	n/a	n/a	n/a
2916741	RECOG_TARGET	n/a	LTP189	ltpFR	3	1	-1	HAMPER	682	1	5	-1	n/a	n/a	n/a	n/a	n/a
2918351	RECOG_RESP	n/a	LTP189	ltpFR	3	1	-1	HAMPER	682	1	n/a	-1	n/a	n/a	n/a	n/a	n/a
2919564	RECOG_CONF	n/a	LTP189	ltpFR	3	1	-1	HAMPER	682	n/a	5	-1	n/a	n/a	n/a	n/a	n/a
2921624	RECOG_TARGET	n/a	LTP189	ltpFR	3	1	1	OX	994	1	4	1	n/a	n/a	n/a	n/a	n/a
2922477	RECOG_RESP	n/a	LTP189	ltpFR	3	1	1	OX	994	1	n/a	1	n/a	n/a	n/a	n/a	n/a
2923602	RECOG_CONF	n/a	LTP189	ltpFR	3	1	1	OX	994	n/a	4	1	n/a	n/a	n/a	n/a	n/a
2925539	RECOG_LURE	n/a	LTP189	ltpFR	3	1	n/a	PAINTING	1005	0	3	n/a	n/a	n/a	n/a	n/a	n/a
2927567	RECOG_RESP	n/a	LTP189	ltpFR	3	1	n/a	PAINTING	1005	0	n/a	n/a	n/a	n/a	n/a	n/a	n/a
2928984	RECOG_CONF	n/a	LTP189	ltpFR	3	1	n/a	PAINTING	1005	n/a	3	n/a	n/a	n/a	n/a	n/a	n/a
2930893	RECOG_TARGET	n/a	LTP189	ltpFR	3	1	1	SHELL	1281	1	3	0	n/a	n/a	n/a	n/a	n/a
2931769	RECOG_RESP	n/a	LTP189	ltpFR	3	1	1	SHELL	1281	1	n/a	0	n/a	n/a	n/a	n/a	n/a
2933261	RECOG_CONF	n/a	LTP189	ltpFR	3	1	1	SHELL	1281	n/a	3	0	n/a	n/a	n/a	n/a	n/a
2935125	RECOG_TARGET	n/a	LTP189	ltpFR	3	1	0	CROSS	413	1	4	1	n/a	n/a	n/a	n/a	n/a
2936137	RECOG_RESP	n/a	LTP189	ltpFR	3	1	0	CROSS	413	1	n/a	1	n/a	n/a	n/a	n/a	n/a
2937780	RECOG_CONF	n/a	LTP189	ltpFR	3	1	0	CROSS	413	n/a	4	1	n/a	n/a	n/a	n/a	n/a
2939993	RECOG_TARGET	n/a	LTP189	ltpFR	3	1	1	POLE	1097	1	4	0	n/a	n/a	n/a	n/a	n/a
2941200	RECOG_RESP	n/a	LTP189	ltpFR	3	1	1	POLE	1097	1	n/a	0	n/a	n/a	n/a	n/a	n/a
2942493	RECOG_CONF	n/a	LTP189	ltpFR	3	1	1	POLE	1097	n/a	4	0	n/a	n/a	n/a	n/a	n/a
2944594	RECOG_TARGET	n/a	LTP189	ltpFR	3	1	1	SEAGULL	1261	1	4	1	n/a	n/a	n/a	n/a	n/a
2945387	RECOG_RESP	n/a	LTP189	ltpFR	3	1	1	SEAGULL	1261	1	n/a	1	n/a	n/a	n/a	n/a	n/a
2946536	RECOG_CONF	n/a	LTP189	ltpFR	3	1	1	SEAGULL	1261	n/a	4	1	n/a	n/a	n/a	n/a	n/a
2948727	RECOG_TARGET	n/a	LTP189	ltpFR	3	1	1	SHEEP	1278	1	5	1	n/a	n/a	n/a	n/a	n/a
2949941	RECOG_RESP	n/a	LTP189	ltpFR	3	1	1	SHEEP	1278	1	n/a	1	n/a	n/a	n/a	n/a	n/a
2951023	RECOG_CONF	n/a	LTP189	ltpFR	3	1	1	SHEEP	1278	n/a	5	1	n/a	n/a	n/a	n/a	n/a
2953093	RECOG_LURE	n/a	LTP189	ltpFR	3	1	n/a	SERVANT	1271	0	4	n/a	n/a	n/a	n/a	n/a	n/a
2954053	RECOG_RESP	n/a	LTP189	ltpFR	3	1	n/a	SERVANT	1271	0	n/a	n/a	n/a	n/a	n/a	n/a	n/a
2955130	RECOG_CONF	n/a	LTP189	ltpFR	3	1	n/a	SERVANT	1271	n/a	4	n/a	n/a	n/a	n/a	n/a	n/a
2957376	RECOG_TARGET	n/a	LTP189	ltpFR	3	1	-1	BEAST	108	1	4	-1	n/a	n/a	n/a	n/a	n/a
2958256	RECOG_RESP	n/a	LTP189	ltpFR	3	1	-1	BEAST	108	1	n/a	-1	n/a	n/a	n/a	n/a	n/a
2959632	RECOG_CONF	n/a	LTP189	ltpFR	3	1	-1	BEAST	108	n/a	4	-1	n/a	n/a	n/a	n/a	n/a
2961792	RECOG_TARGET	n/a	LTP189	ltpFR	3	1	0	LIMB	822	1	5	1	n/a	n/a	n/a	n/a	n/a
2962797	RECOG_RESP	n/a	LTP189	ltpFR	3	1	0	LIMB	822	1	n/a	1	n/a	n/a	n/a	n/a	n/a
2963945	RECOG_CONF	n/a	LTP189	ltpFR	3	1	0	LIMB	822	n/a	5	1	n/a	n/a	n/a	n/a	n/a
2965974	RECOG_TARGET	n/a	LTP189	ltpFR	3	1	-1	CHAIRPERSON	275	1	5	-1	n/a	n/a	n/a	n/a	n/a
2966849	RECOG_RESP	n/a	LTP189	ltpFR	3	1	-1	CHAIRPERSON	275	1	n/a	-1	n/a	n/a	n/a	n/a	n/a
2968019	RECOG_CONF	n/a	LTP189	ltpFR	3	1	-1	CHAIRPERSON	275	n/a	5	-1	n/a	n/a	n/a	n/a	n/a
2970241	RECOG_TARGET	n/a	LTP189	ltpFR	3	1	0	PISTON	1076	1	5	0	n/a	n/a	n/a	n/a	n/a
2971048	RECOG_RESP	n/a	LTP189	ltpFR	3	1	0	PISTON	1076	1	n/a	0	n/a	n/a	n/a	n/a	n/a
2972148	RECOG_CONF	n/a	LTP189	ltpFR	3	1	0	PISTON	1076	n/a	5	0	n/a	n/a	n/a	n/a	n/a
2974189	RECOG_TARGET	n/a	LTP189	ltpFR	3	1	1	SCARF	1246	1	4	0	n/a	n/a	n/a	n/a	n/a
2975048	RECOG_RESP	n/a	LTP189	ltpFR	3	1	1	SCARF	1246	1	n/a	0	n/a	n/a	n/a	n/a	n/a
2976054	RECOG_CONF	n/a	LTP189	ltpFR	3	1	1	SCARF	1246	n/a	4	0	n/a	n/a	n/a	n/a	n/a
2983247	REC_START	n/a	LTP189	ltpFR	3	2	n/a	n/a	n/a	n/a	n/a	n/a	n/a	n/a	n/a	n/a	n/a
2983290	RECOG_TARGET	n/a	LTP189	ltpFR	3	2	0	SIGN	1305	0	2	0	n/a	n/a	n/a	n/a	n/a
2984277	RECOG_RESP	n/a	LTP189	ltpFR	3	2	0	SIGN	1305	0	n/a	0	n/a	n/a	n/a	n/a	n/a
2985928	RECOG_CONF	n/a	LTP189	ltpFR	3	2	0	SIGN	1305	n/a	2	0	n/a	n/a	n/a	n/a	n/a
2987957	RECOG_TARGET	n/a	LTP189	ltpFR	3	2	1	FIELD	562	1	4	0	n/a	n/a	n/a	n/a	n/a
2988834	RECOG_RESP	n/a	LTP189	ltpFR	3	2	1	FIELD	562	1	n/a	0	n/a	n/a	n/a	n/a	n/a
2990034	RECOG_CONF	n/a	LTP189	ltpFR	3	2	1	FIELD	562	n/a	4	0	n/a	n/a	n/a	n/a	n/a
2992007	RECOG_TARGET	n/a	LTP189	ltpFR	3	2	0	BELL	118	1	5	0	n/a	n/a	n/a	n/a	n/a
2992872	RECOG_RESP	n/a	LTP189	ltpFR	3	2	0	BELL	118	1	n/a	0	n/a	n/a	n/a	n/a	n/a
2993875	RECOG_CONF	n/a	LTP189	ltpFR	3	2	0	BELL	118	n/a	5	0	n/a	n/a	n/a	n/a	n/a
2996021	RECOG_TARGET	n/a	LTP189	ltpFR	3	2	1	SHARK	1275	1	5	1	n/a	n/a	n/a	n/a	n/a
2996677	RECOG_RESP	n/a	LTP189	ltpFR	3	2	1	SHARK	1275	1	n/a	1	n/a	n/a	n/a	n/a	n/a
2997789	RECOG_CONF	n/a	LTP189	ltpFR	3	2	1	SHARK	1275	n/a	5	1	n/a	n/a	n/a	n/a	n/a
2999836	RECOG_TARGET	n/a	LTP189	ltpFR	3	2	-1	ANTELOPE	27	1	5	-1	n/a	n/a	n/a	n/a	n/a
3000633	RECOG_RESP	n/a	LTP189	ltpFR	3	2	-1	ANTELOPE	27	1	n/a	-1	n/a	n/a	n/a	n/a	n/a
3001711	RECOG_CONF	n/a	LTP189	ltpFR	3	2	-1	ANTELOPE	27	n/a	5	-1	n/a	n/a	n/a	n/a	n/a
3003734	RECOG_TARGET	n/a	LTP189	ltpFR	3	2	-1	PADDLE	1000	1	5	-1	n/a	n/a	n/a	n/a	n/a
3004502	RECOG_RESP	n/a	LTP189	ltpFR	3	2	-1	PADDLE	1000	1	n/a	-1	n/a	n/a	n/a	n/a	n/a
3005671	RECOG_CONF	n/a	LTP189	ltpFR	3	2	-1	PADDLE	1000	n/a	5	-1	n/a	n/a	n/a	n/a	n/a
3007582	RECOG_TARGET	n/a	LTP189	ltpFR	3	2	1	TRASH	1497	1	3	0	n/a	n/a	n/a	n/a	n/a
3008426	RECOG_RESP	n/a	LTP189	ltpFR	3	2	1	TRASH	1497	1	n/a	0	n/a	n/a	n/a	n/a	n/a
3009589	RECOG_CONF	n/a	LTP189	ltpFR	3	2	1	TRASH	1497	n/a	3	0	n/a	n/a	n/a	n/a	n/a
3011379	RECOG_TARGET	n/a	LTP189	ltpFR	3	2	0	GANG	619	1	4	1	n/a	n/a	n/a	n/a	n/a
3012072	RECOG_RESP	n/a	LTP189	ltpFR	3	2	0	GANG	619	1	n/a	1	n/a	n/a	n/a	n/a	n/a
3013059	RECOG_CONF	n/a	LTP189	ltpFR	3	2	0	GANG	619	n/a	4	1	n/a	n/a	n/a	n/a	n/a
3015294	RECOG_LURE	n/a	LTP189	ltpFR	3	2	n/a	POSTAGE	1113	0	4	n/a	n/a	n/a	n/a	n/a	n/a
3016096	RECOG_RESP	n/a	LTP189	ltpFR	3	2	n/a	POSTAGE	1113	0	n/a	n/a	n/a	n/a	n/a	n/a	n/a
3017050	RECOG_CONF	n/a	LTP189	ltpFR	3	2	n/a	POSTAGE	1113	n/a	4	n/a	n/a	n/a	n/a	n/a	n/a
3019109	RECOG_LURE	n/a	LTP189	ltpFR	3	2	n/a	HERO	706	0	4	n/a	n/a	n/a	n/a	n/a	n/a
3019936	RECOG_RESP	n/a	LTP189	ltpFR	3	2	n/a	HERO	706	0	n/a	n/a	n/a	n/a	n/a	n/a	n/a
3021222	RECOG_CONF	n/a	LTP189	ltpFR	3	2	n/a	HERO	706	n/a	4	n/a	n/a	n/a	n/a	n/a	n/a
3023146	RECOG_TARGET	n/a	LTP189	ltpFR	3	2	1	LUNCH	849	1	4	0	n/a	n/a	n/a	n/a	n/a
3023995	RECOG_RESP	n/a	LTP189	ltpFR	3	2	1	LUNCH	849	1	n/a	0	n/a	n/a	n/a	n/a	n/a
3025103	RECOG_CONF	n/a	LTP189	ltpFR	3	2	1	LUNCH	849	n/a	4	0	n/a	n/a	n/a	n/a	n/a
3027108	RECOG_TARGET	n/a	LTP189	ltpFR	3	2	1	PERCH	1048	1	4	0	n/a	n/a	n/a	n/a	n/a
3027905	RECOG_RESP	n/a	LTP189	ltpFR	3	2	1	PERCH	1048	1	n/a	0	n/a	n/a	n/a	n/a	n/a
3029078	RECOG_CONF	n/a	LTP189	ltpFR	3	2	1	PERCH	1048	n/a	4	0	n/a	n/a	n/a	n/a	n/a
3030936	RECOG_TARGET	n/a	LTP189	ltpFR	3	2	1	DESIGNER	451	1	5	1	n/a	n/a	n/a	n/a	n/a
3031927	RECOG_RESP	n/a	LTP189	ltpFR	3	2	1	DESIGNER	451	1	n/a	1	n/a	n/a	n/a	n/a	n/a
3033053	RECOG_CONF	n/a	LTP189	ltpFR	3	2	1	DESIGNER	451	n/a	5	1	n/a	n/a	n/a	n/a	n/a
3035085	RECOG_TARGET	n/a	LTP189	ltpFR	3	2	-1	CHECKERS	285	1	5	-1	n/a	n/a	n/a	n/a	n/a
3035862	RECOG_RESP	n/a	LTP189	ltpFR	3	2	-1	CHECKERS	285	1	n/a	-1	n/a	n/a	n/a	n/a	n/a
3036982	RECOG_CONF	n/a	LTP189	ltpFR	3	2	-1	CHECKERS	285	n/a	5	-1	n/a	n/a	n/a	n/a	n/a
3039100	RECOG_TARGET	n/a	LTP189	ltpFR	3	2	0	CRATER	400	1	4	1	n/a	n/a	n/a	n/a	n/a
3040040	RECOG_RESP	n/a	LTP189	ltpFR	3	2	0	CRATER	400	1	n/a	1	n/a	n/a	n/a	n/a	n/a
3041230	RECOG_CONF	n/a	LTP189	ltpFR	3	2	0	CRATER	400	n/a	4	1	n/a	n/a	n/a	n/a	n/a
3043222	RECOG_TARGET	n/a	LTP189	ltpFR	3	2	0	SAUSAGE	1238	1	5	0	n/a	n/a	n/a	n/a	n/a
3044158	RECOG_RESP	n/a	LTP189	ltpFR	3	2	0	SAUSAGE	1238	1	n/a	0	n/a	n/a	n/a	n/a	n/a
3045291	RECOG_CONF	n/a	LTP189	ltpFR	3	2	0	SAUSAGE	1238	n/a	5	0	n/a	n/a	n/a	n/a	n/a
3047117	RECOG_TARGET	n/a	LTP189	ltpFR	3	2	0	GAZELLE	628	1	5	0	n/a	n/a	n/a	n/a	n/a
3047860	RECOG_RESP	n/a	LTP189	ltpFR	3	2	0	GAZELLE	628	1	n/a	0	n/a	n/a	n/a	n/a	n/a
3049220	RECOG_CONF	n/a	LTP189	ltpFR	3	2	0	GAZELLE	628	n/a	5	0	n/a	n/a	n/a	n/a	n/a
3051213	RECOG_TARGET	n/a	LTP189	ltpFR	3	2	1	PRINTER	1126	1	4	0	n/a	n/a	n/a	n/a	n/a
3052047	RECOG_RESP	n/a	LTP189	ltpFR	3	2	1	PRINTER	1126	1	n/a	0	n/a	n/a	n/a	n/a	n/a
3053228	RECOG_CONF	n/a	LTP189	ltpFR	3	2	1	PRINTER	1126	n/a	4	0	n/a	n/a	n/a	n/a	n/a
3055178	RECOG_TARGET	n/a	LTP189	ltpFR	3	2	1	MEAL	882	0	3	0	n/a	n/a	n/a	n/a	n/a
3056006	RECOG_RESP	n/a	LTP189	ltpFR	3	2	1	MEAL	882	0	n/a	0	n/a	n/a	n/a	n/a	n/a
3057167	RECOG_CONF	n/a	LTP189	ltpFR	3	2	1	MEAL	882	n/a	3	0	n/a	n/a	n/a	n/a	n/a
3059076	RECOG_LURE	n/a	LTP189	ltpFR	3	2	n/a	SHOWER	1296	0	2	n/a	n/a	n/a	n/a	n/a	n/a
3060400	RECOG_RESP	n/a	LTP189	ltpFR	3	2	n/a	SHOWER	1296	0	n/a	n/a	n/a	n/a	n/a	n/a	n/a
3061931	RECOG_CONF	n/a	LTP189	ltpFR	3	2	n/a	SHOWER	1296	n/a	2	n/a	n/a	n/a	n/a	n/a	n/a
3079479	REC_START	n/a	LTP189	ltpFR	3	3	n/a	n/a	n/a	n/a	n/a	n/a	n/a	n/a	n/a	n/a	n/a
3079520	RECOG_TARGET	n/a	LTP189	ltpFR	3	3	0	MOAT	903	1	5	0	n/a	n/a	n/a	n/a	n/a
3080379	RECOG_RESP	n/a	LTP189	ltpFR	3	3	0	MOAT	903	1	n/a	0	n/a	n/a	n/a	n/a	n/a
3081499	RECOG_CONF	n/a	LTP189	ltpFR	3	3	0	MOAT	903	n/a	5	0	n/a	n/a	n/a	n/a	n/a
3083233	RECOG_LURE	n/a	LTP189	ltpFR	3	3	n/a	LIST	830	0	2	n/a	n/a	n/a	n/a	n/a	n/a
3084244	RECOG_RESP	n/a	LTP189	ltpFR	3	3	n/a	LIST	830	0	n/a	n/a	n/a	n/a	n/a	n/a	n/a
3085319	RECOG_CONF	n/a	LTP189	ltpFR	3	3	n/a	LIST	830	n/a	2	n/a	n/a	n/a	n/a	n/a	n/a
3087098	RECOG_TARGET	n/a	LTP189	ltpFR	3	3	-1	SUPERVISOR	1410	1	4	-1	n/a	n/a	n/a	n/a	n/a
3088016	RECOG_RESP	n/a	LTP189	ltpFR	3	3	-1	SUPERVISOR	1410	1	n/a	-1	n/a	n/a	n/a	n/a	n/a
3088936	RECOG_CONF	n/a	LTP189	ltpFR	3	3	-1	SUPERVISOR	1410	n/a	4	-1	n/a	n/a	n/a	n/a	n/a
3090962	RECOG_TARGET	n/a	LTP189	ltpFR	3	3	1	ANTEATER	26	1	3	1	n/a	n/a	n/a	n/a	n/a
3092059	RECOG_RESP	n/a	LTP189	ltpFR	3	3	1	ANTEATER	26	1	n/a	1	n/a	n/a	n/a	n/a	n/a
3093245	RECOG_CONF	n/a	LTP189	ltpFR	3	3	1	ANTEATER	26	n/a	3	1	n/a	n/a	n/a	n/a	n/a
3094993	RECOG_LURE	n/a	LTP189	ltpFR	3	3	n/a	DAISY	435	0	5	n/a	n/a	n/a	n/a	n/a	n/a
3095906	RECOG_RESP	n/a	LTP189	ltpFR	3	3	n/a	DAISY	435	0	n/a	n/a	n/a	n/a	n/a	n/a	n/a
3096937	RECOG_CONF	n/a	LTP189	ltpFR	3	3	n/a	DAISY	435	n/a	5	n/a	n/a	n/a	n/a	n/a	n/a
3098759	RECOG_TARGET	n/a	LTP189	ltpFR	3	3	0	CAPITAL	238	1	5	0	n/a	n/a	n/a	n/a	n/a
3099536	RECOG_RESP	n/a	LTP189	ltpFR	3	3	0	CAPITAL	238	1	n/a	0	n/a	n/a	n/a	n/a	n/a
3100439	RECOG_CONF	n/a	LTP189	ltpFR	3	3	0	CAPITAL	238	n/a	5	0	n/a	n/a	n/a	n/a	n/a
3102509	RECOG_TARGET	n/a	LTP189	ltpFR	3	3	-1	COAT	333	0	1	-1	n/a	n/a	n/a	n/a	n/a
3103867	RECOG_RESP	n/a	LTP189	ltpFR	3	3	-1	COAT	333	0	n/a	-1	n/a	n/a	n/a	n/a	n/a
3105885	RECOG_CONF	n/a	LTP189	ltpFR	3	3	-1	COAT	333	n/a	1	-1	n/a	n/a	n/a	n/a	n/a
3107594	RECOG_TARGET	n/a	LTP189	ltpFR	3	3	-1	ROBE	1198	1	5	-1	n/a	n/a	n/a	n/a	n/a
3108662	RECOG_RESP	n/a	LTP189	ltpFR	3	3	-1	ROBE	1198	1	n/a	-1	n/a	n/a	n/a	n/a	n/a
3109595	RECOG_CONF	n/a	LTP189	ltpFR	3	3	-1	ROBE	1198	n/a	5	-1	n/a	n/a	n/a	n/a	n/a
3111590	RECOG_TARGET	n/a	LTP189	ltpFR	3	3	-1	RING	1193	1	4	-1	n/a	n/a	n/a	n/a	n/a
3112375	RECOG_RESP	n/a	LTP189	ltpFR	3	3	-1	RING	1193	1	n/a	-1	n/a	n/a	n/a	n/a	n/a
3113407	RECOG_CONF	n/a	LTP189	ltpFR	3	3	-1	RING	1193	n/a	4	-1	n/a	n/a	n/a	n/a	n/a
3115438	RECOG_TARGET	n/a	LTP189	ltpFR	3	3	1	PARSLEY	1016	1	4	1	n/a	n/a	n/a	n/a	n/a
3116425	RECOG_RESP	n/a	LTP189	ltpFR	3	3	1	PARSLEY	1016	1	n/a	1	n/a	n/a	n/a	n/a	n/a
3117537	RECOG_CONF	n/a	LTP189	ltpFR	3	3	1	PARSLEY	1016	n/a	4	1	n/a	n/a	n/a	n/a	n/a
3119202	RECOG_TARGET	n/a	LTP189	ltpFR	3	3	0	TAXI	1438	1	3	1	n/a	n/a	n/a	n/a	n/a
3121033	RECOG_RESP	n/a	LTP189	ltpFR	3	3	0	TAXI	1438	1	n/a	1	n/a	n/a	n/a	n/a	n/a
3122695	RECOG_CONF	n/a	LTP189	ltpFR	3	3	0	TAXI	1438	n/a	3	1	n/a	n/a	n/a	n/a	n/a
3124590	RECOG_LURE	n/a	LTP189	ltpFR	3	3	n/a	ROOF	1205	1	2	n/a	n/a	n/a	n/a	n/a	n/a
3125681	RECOG_RESP	n/a	LTP189	ltpFR	3	3	n/a	ROOF	1205	1	n/a	n/a	n/a	n/a	n/a	n/a	n/a
3127147	RECOG_CONF	n/a	LTP189	ltpFR	3	3	n/a	ROOF	1205	n/a	2	n/a	n/a	n/a	n/a	n/a	n/a
3128872	RECOG_TARGET	n/a	LTP189	ltpFR	3	3	0	WATER	1594	0	4	0	n/a	n/a	n/a	n/a	n/a
3130794	RECOG_RESP	n/a	LTP189	ltpFR	3	3	0	WATER	1594	0	n/a	0	n/a	n/a	n/a	n/a	n/a
3132449	RECOG_CONF	n/a	LTP189	ltpFR	3	3	0	WATER	1594	n/a	4	0	n/a	n/a	n/a	n/a	n/a
3134410	RECOG_LURE	n/a	LTP189	ltpFR	3	3	n/a	YOUTH	1634	0	5	n/a	n/a	n/a	n/a	n/a	n/a
3135749	RECOG_RESP	n/a	LTP189	ltpFR	3	3	n/a	YOUTH	1634	0	n/a	n/a	n/a	n/a	n/a	n/a	n/a
3137391	RECOG_CONF	n/a	LTP189	ltpFR	3	3	n/a	YOUTH	1634	n/a	5	n/a	n/a	n/a	n/a	n/a	n/a
3139278	RECOG_LURE	n/a	LTP189	ltpFR	3	3	n/a	BOAT	144	0	3	n/a	n/a	n/a	n/a	n/a	n/a
3140324	RECOG_RESP	n/a	LTP189	ltpFR	3	3	n/a	BOAT	144	0	n/a	n/a	n/a	n/a	n/a	n/a	n/a
3141701	RECOG_CONF	n/a	LTP189	ltpFR	3	3	n/a	BOAT	144	n/a	3	n/a	n/a	n/a	n/a	n/a	n/a
3143611	RECOG_TARGET	n/a	LTP189	ltpFR	3	3	-1	DRIVER	499	0	2	-1	n/a	n/a	n/a	n/a	n/a
3144752	RECOG_RESP	n/a	LTP189	ltpFR	3	3	-1	DRIVER	499	0	n/a	-1	n/a	n/a	n/a	n/a	n/a
3146136	RECOG_CONF	n/a	LTP189	ltpFR	3	3	-1	DRIVER	499	n/a	2	-1	n/a	n/a	n/a	n/a	n/a
3148112	RECOG_LURE	n/a	LTP189	ltpFR	3	3	n/a	CAR	241	1	3	n/a	n/a	n/a	n/a	n/a	n/a
3149448	RECOG_RESP	n/a	LTP189	ltpFR	3	3	n/a	CAR	241	1	n/a	n/a	n/a	n/a	n/a	n/a	n/a
3150906	RECOG_CONF	n/a	LTP189	ltpFR	3	3	n/a	CAR	241	n/a	3	n/a	n/a	n/a	n/a	n/a	n/a
3152896	RECOG_TARGET	n/a	LTP189	ltpFR	3	3	0	BABY	64	1	4	0	n/a	n/a	n/a	n/a	n/a
3154284	RECOG_RESP	n/a	LTP189	ltpFR	3	3	0	BABY	64	1	n/a	0	n/a	n/a	n/a	n/a	n/a
3155273	RECOG_CONF	n/a	LTP189	ltpFR	3	3	0	BABY	64	n/a	4	0	n/a	n/a	n/a	n/a	n/a
3157262	RECOG_TARGET	n/a	LTP189	ltpFR	3	3	0	HEATER	698	0	2	0	n/a	n/a	n/a	n/a	n/a
3158867	RECOG_RESP	n/a	LTP189	ltpFR	3	3	0	HEATER	698	0	n/a	0	n/a	n/a	n/a	n/a	n/a
3160227	RECOG_CONF	n/a	LTP189	ltpFR	3	3	0	HEATER	698	n/a	2	0	n/a	n/a	n/a	n/a	n/a
3162013	RECOG_TARGET	n/a	LTP189	ltpFR	3	3	1	BARRACUDA	90	1	5	0	n/a	n/a	n/a	n/a	n/a
3163623	RECOG_RESP	n/a	LTP189	ltpFR	3	3	1	BARRACUDA	90	1	n/a	0	n/a	n/a	n/a	n/a	n/a
3165179	RECOG_CONF	n/a	LTP189	ltpFR	3	3	1	BARRACUDA	90	n/a	5	0	n/a	n/a	n/a	n/a	n/a
3175469	REC_START	n/a	LTP189	ltpFR	3	4	n/a	n/a	n/a	n/a	n/a	n/a	n/a	n/a	n/a	n/a	n/a
3175520	RECOG_TARGET	n/a	LTP189	ltpFR	3	4	-1	PLAYGROUND	1087	1	4	-1	n/a	n/a	n/a	n/a	n/a
3176502	RECOG_RESP	n/a	LTP189	ltpFR	3	4	-1	PLAYGROUND	1087	1	n/a	-1	n/a	n/a	n/a	n/a	n/a
3177794	RECOG_CONF	n/a	LTP189	ltpFR	3	4	-1	PLAYGROUND	1087	n/a	4	-1	n/a	n/a	n/a	n/a	n/a
3179848	RECOG_TARGET	n/a	LTP189	ltpFR	3	4	1	RACCOON	1153	1	4	1	n/a	n/a	n/a	n/a	n/a
3180622	RECOG_RESP	n/a	LTP189	ltpFR	3	4	1	RACCOON	1153	1	n/a	1	n/a	n/a	n/a	n/a	n/a
3181799	RECOG_CONF	n/a	LTP189	ltpFR	3	4	1	RACCOON	1153	n/a	4	1	n/a	n/a	n/a	n/a	n/a
3183746	RECOG_TARGET	n/a	LTP189	ltpFR	3	4	0	CHALK	276	1	5	0	n/a	n/a	n/a	n/a	n/a
3184595	RECOG_RESP	n/a	LTP189	ltpFR	3	4	0	CHALK	276	1	n/a	0	n/a	n/a	n/a	n/a	n/a
3185635	RECOG_CONF	n/a	LTP189	ltpFR	3	4	0	CHALK	276	n/a	5	0	n/a	n/a	n/a	n/a	n/a
3187697	RECOG_TARGET	n/a	LTP189	ltpFR	3	4	1	OREGANO	983	1	5	0	n/a	n/a	n/a	n/a	n/a
3188384	RECOG_RESP	n/a	LTP189	ltpFR	3	4	1	OREGANO	983	1	n/a	0	n/a	n/a	n/a	n/a	n/a
3189392	RECOG_CONF	n/a	LTP189	ltpFR	3	4	1	OREGANO	983	n/a	5	0	n/a	n/a	n/a	n/a	n/a
3191324	RECOG_LURE	n/a	LTP189	ltpFR	3	4	n/a	COYOTE	396	1	4	n/a	n/a	n/a	n/a	n/a	n/a
3191993	RECOG_RESP	n/a	LTP189	ltpFR	3	4	n/a	COYOTE	396	1	n/a	n/a	n/a	n/a	n/a	n/a	n/a
3193154	RECOG_CONF	n/a	LTP189	ltpFR	3	4	n/a	COYOTE	396	n/a	4	n/a	n/a	n/a	n/a	n/a	n/a
3194953	RECOG_TARGET	n/a	LTP189	ltpFR	3	4	0	PADDING	999	1	3	0	n/a	n/a	n/a	n/a	n/a
3197230	RECOG_RESP	n/a	LTP189	ltpFR	3	4	0	PADDING	999	1	n/a	0	n/a	n/a	n/a	n/a	n/a
3198232	RECOG_CONF	n/a	LTP189	ltpFR	3	4	0	PADDING	999	n/a	3	0	n/a	n/a	n/a	n/a	n/a
3200040	RECOG_TARGET	n/a	LTP189	ltpFR	3	4	0	LONDON	843	1	4	0	n/a	n/a	n/a	n/a	n/a
3201036	RECOG_RESP	n/a	LTP189	ltpFR	3	4	0	LONDON	843	1	n/a	0	n/a	n/a	n/a	n/a	n/a
3202003	RECOG_CONF	n/a	LTP189	ltpFR	3	4	0	LONDON	843	n/a	4	0	n/a	n/a	n/a	n/a	n/a
3203888	RECOG_TARGET	n/a	LTP189	ltpFR	3	4	1	PUDDLE	1140	1	4	0	n/a	n/a	n/a	n/a	n/a
3205208	RECOG_RESP	n/a	LTP189	ltpFR	3	4	1	PUDDLE	1140	1	n/a	0	n/a	n/a	n/a	n/a	n/a
3206121	RECOG_CONF	n/a	LTP189	ltpFR	3	4	1	PUDDLE	1140	n/a	4	0	n/a	n/a	n/a	n/a	n/a
3208156	RECOG_TARGET	n/a	LTP189	ltpFR	3	4	-1	SANDPAPER	1231	1	3	-1	n/a	n/a	n/a	n/a	n/a
3209127	RECOG_RESP	n/a	LTP189	ltpFR	3	4	-1	SANDPAPER	1231	1	n/a	-1	n/a	n/a	n/a	n/a	n/a
3210106	RECOG_CONF	n/a	LTP189	ltpFR	3	4	-1	SANDPAPER	1231	n/a	3	-1	n/a	n/a	n/a	n/a	n/a
3211902	RECOG_TARGET	n/a	LTP189	ltpFR	3	4	0	CONE	363	1	2	0	n/a	n/a	n/a	n/a	n/a
3212557	RECOG_RESP	n/a	LTP189	ltpFR	3	4	0	CONE	363	1	n/a	0	n/a	n/a	n/a	n/a	n/a
3213560	RECOG_CONF	n/a	LTP189	ltpFR	3	4	0	CONE	363	n/a	2	0	n/a	n/a	n/a	n/a	n/a
3215398	RECOG_LURE	n/a	LTP189	ltpFR	3	4	n/a	LASH	802	1	1	n/a	n/a	n/a	n/a	n/a	n/a
3216786	RECOG_RESP	n/a	LTP189	ltpFR	3	4	n/a	LASH	802	1	n/a	n/a	n/a	n/a	n/a	n/a	n/a
3218410	RECOG_CONF	n/a	LTP189	ltpFR	3	4	n/a	LASH	802	n/a	1	n/a	n/a	n/a	n/a	n/a	n/a
3220484	RECOG_TARGET	n/a	LTP189	ltpFR	3	4	0	FLASHLIGHT	575	1	3	0	n/a	n/a	n/a	n/a	n/a
3221757	RECOG_RESP	n/a	LTP189	ltpFR	3	4	0	FLASHLIGHT	575	1	n/a	0	n/a	n/a	n/a	n/a	n/a
3222871	RECOG_CONF	n/a	LTP189	ltpFR	3	4	0	FLASHLIGHT	575	n/a	3	0	n/a	n/a	n/a	n/a	n/a
3224750	RECOG_LURE	n/a	LTP189	ltpFR	3	4	n/a	STRAWBERRY	1391	1	4	n/a	n/a	n/a	n/a	n/a	n/a
3225612	RECOG_RESP	n/a	LTP189	ltpFR	3	4	n/a	STRAWBERRY	1391	1	n/a	n/a	n/a	n/a	n/a	n/a	n/a
3227127	RECOG_CONF	n/a	LTP189	ltpFR	3	4	n/a	STRAWBERRY	1391	n/a	4	n/a	n/a	n/a	n/a	n/a	n/a
3228965	RECOG_TARGET	n/a	LTP189	ltpFR	3	4	0	SPIT	1354	0	1	0	n/a	n/a	n/a	n/a	n/a
3230332	RECOG_RESP	n/a	LTP189	ltpFR	3	4	0	SPIT	1354	0	n/a	0	n/a	n/a	n/a	n/a	n/a
3232773	RECOG_CONF	n/a	LTP189	ltpFR	3	4	0	SPIT	1354	n/a	1	0	n/a	n/a	n/a	n/a	n/a
3234674	RECOG_TARGET	n/a	LTP189	ltpFR	3	4	0	BUGLE	189	1	3	0	n/a	n/a	n/a	n/a	n/a
3235715	RECOG_RESP_VV	n/a	LTP189	ltpFR	3	4	0	BUGLE	189	0	n/a	0	n/a	n/a	n/a	n/a	n/a
3237579	RECOG_RESP	n/a	LTP189	ltpFR	3	4	0	BUGLE	189	1	n/a	0	n/a	n/a	n/a	n/a	n/a
3239402	RECOG_CONF	n/a	LTP189	ltpFR	3	4	0	BUGLE	189	n/a	3	0	n/a	n/a	n/a	n/a	n/a
3241212	RECOG_TARGET	n/a	LTP189	ltpFR	3	4	0	AGENT	10	1	2	1	n/a	n/a	n/a	n/a	n/a
3245941	RECOG_RESP	n/a	LTP189	ltpFR	3	4	0	AGENT	10	1	n/a	1	n/a	n/a	n/a	n/a	n/a
3247308	RECOG_CONF	n/a	LTP189	ltpFR	3	4	0	AGENT	10	n/a	2	1	n/a	n/a	n/a	n/a	n/a
3249381	RECOG_TARGET	n/a	LTP189	ltpFR	3	4	0	DRILL	497	1	4	1	n/a	n/a	n/a	n/a	n/a
3250124	RECOG_RESP	n/a	LTP189	ltpFR	3	4	0	DRILL	497	1	n/a	1	n/a	n/a	n/a	n/a	n/a
3251245	RECOG_CONF	n/a	LTP189	ltpFR	3	4	0	DRILL	497	n/a	4	1	n/a	n/a	n/a	n/a	n/a
3253308	RECOG_TARGET	n/a	LTP189	ltpFR	3	4	-1	CARPENTER	246	1	5	-1	n/a	n/a	n/a	n/a	n/a
3254316	RECOG_RESP	n/a	LTP189	ltpFR	3	4	-1	CARPENTER	246	1	n/a	-1	n/a	n/a	n/a	n/a	n/a
3255518	RECOG_CONF	n/a	LTP189	ltpFR	3	4	-1	CARPENTER	246	n/a	5	-1	n/a	n/a	n/a	n/a	n/a
3257480	RECOG_LURE	n/a	LTP189	ltpFR	3	4	n/a	TROUSERS	1510	0	3	n/a	n/a	n/a	n/a	n/a	n/a
3258540	RECOG_RESP	n/a	LTP189	ltpFR	3	4	n/a	TROUSERS	1510	0	n/a	n/a	n/a	n/a	n/a	n/a	n/a
3259821	RECOG_CONF	n/a	LTP189	ltpFR	3	4	n/a	TROUSERS	1510	n/a	3	n/a	n/a	n/a	n/a	n/a	n/a
3261558	RECOG_TARGET	n/a	LTP189	ltpFR	3	4	-1	DOOR	486	1	4	-1	n/a	n/a	n/a	n/a	n/a
3262857	RECOG_RESP	n/a	LTP189	ltpFR	3	4	-1	DOOR	486	1	n/a	-1	n/a	n/a	n/a	n/a	n/a
3264172	RECOG_CONF	n/a	LTP189	ltpFR	3	4	-1	DOOR	486	n/a	4	-1	n/a	n/a	n/a	n/a	n/a
3276775	REC_START	n/a	LTP189	ltpFR	3	5	n/a	n/a	n/a	n/a	n/a	n/a	n/a	n/a	n/a	n/a	n/a
3276815	RECOG_TARGET	n/a	LTP189	ltpFR	3	5	1	PAPER	1011	0	3	0	n/a	n/a	n/a	n/a	n/a
3278824	RECOG_RESP	n/a	LTP189	ltpFR	3	5	1	PAPER	1011	0	n/a	0	n/a	n/a	n/a	n/a	n/a
3280752	RECOG_CONF	n/a	LTP189	ltpFR	3	5	1	PAPER	1011	n/a	3	0	n/a	n/a	n/a	n/a	n/a
3282919	RECOG_TARGET	n/a	LTP189	ltpFR	3	5	1	FOLLOWER	589	1	4	0	n/a	n/a	n/a	n/a	n/a
3283729	RECOG_RESP	n/a	LTP189	ltpFR	3	5	1	FOLLOWER	589	1	n/a	0	n/a	n/a	n/a	n/a	n/a
3284991	RECOG_CONF	n/a	LTP189	ltpFR	3	5	1	FOLLOWER	589	n/a	4	0	n/a	n/a	n/a	n/a	n/a
3286967	RECOG_TARGET	n/a	LTP189	ltpFR	3	5	-1	VOLCANO	1575	1	4	-1	n/a	n/a	n/a	n/a	n/a
3287701	RECOG_RESP	n/a	LTP189	ltpFR	3	5	-1	VOLCANO	1575	1	n/a	-1	n/a	n/a	n/a	n/a	n/a
3288872	RECOG_CONF	n/a	LTP189	ltpFR	3	5	-1	VOLCANO	1575	n/a	4	-1	n/a	n/a	n/a	n/a	n/a
3290699	RECOG_TARGET	n/a	LTP189	ltpFR	3	5	1	CHIEF	298	1	5	0	n/a	n/a	n/a	n/a	n/a
3291441	RECOG_RESP	n/a	LTP189	ltpFR	3	5	1	CHIEF	298	1	n/a	0	n/a	n/a	n/a	n/a	n/a
3292384	RECOG_CONF	n/a	LTP189	ltpFR	3	5	1	CHIEF	298	n/a	5	0	n/a	n/a	n/a	n/a	n/a
3294396	RECOG_TARGET	n/a	LTP189	ltpFR	3	5	1	SNAKE	1333	1	5	1	n/a	n/a	n/a	n/a	n/a
3295088	RECOG_RESP	n/a	LTP189	ltpFR	3	5	1	SNAKE	1333	1	n/a	1	n/a	n/a	n/a	n/a	n/a
3296072	RECOG_CONF	n/a	LTP189	ltpFR	3	5	1	SNAKE	1333	n/a	5	1	n/a	n/a	n/a	n/a	n/a
3297926	RECOG_TARGET	n/a	LTP189	ltpFR	3	5	1	GLASS	639	1	5	0	n/a	n/a	n/a	n/a	n/a
3298753	RECOG_RESP	n/a	LTP189	ltpFR	3	5	1	GLASS	639	1	n/a	0	n/a	n/a	n/a	n/a	n/a
3299615	RECOG_CONF	n/a	LTP189	ltpFR	3	5	1	GLASS	639	n/a	5	0	n/a	n/a	n/a	n/a	n/a
3301506	RECOG_TARGET	n/a	LTP189	ltpFR	3	5	0	FLASK	576	1	5	0	n/a	n/a	n/a	n/a	n/a
3302490	RECOG_RESP	n/a	LTP189	ltpFR	3	5	0	FLASK	576	1	n/a	0	n/a	n/a	n/a	n/a	n/a
3303310	RECOG_CONF	n/a	LTP189	ltpFR	3	5	0	FLASK	576	n/a	5	0	n/a	n/a	n/a	n/a	n/a
3305572	RECOG_TARGET	n/a	LTP189	ltpFR	3	5	0	GRAVEL	659	1	5	1	n/a	n/a	n/a	n/a	n/a
3306430	RECOG_RESP	n/a	LTP189	ltpFR	3	5	0	GRAVEL	659	1	n/a	1	n/a	n/a	n/a	n/a	n/a
3307507	RECOG_CONF	n/a	LTP189	ltpFR	3	5	0	GRAVEL	659	n/a	5	1	n/a	n/a	n/a	n/a	n/a
3309459	RECOG_LURE	n/a	LTP189	ltpFR	3	5	n/a	BIOLOGIST	128	0	5	n/a	n/a	n/a	n/a	n/a	n/a
3310424	RECOG_RESP	n/a	LTP189	ltpFR	3	5	n/a	BIOLOGIST	128	0	n/a	n/a	n/a	n/a	n/a	n/a	n/a
3311311	RECOG_CONF	n/a	LTP189	ltpFR	3	5	n/a	BIOLOGIST	128	n/a	5	n/a	n/a	n/a	n/a	n/a	n/a
3313200	RECOG_LURE	n/a	LTP189	ltpFR	3	5	n/a	CLAY	320	0	5	n/a	n/a	n/a	n/a	n/a	n/a
3314060	RECOG_RESP	n/a	LTP189	ltpFR	3	5	n/a	CLAY	320	0	n/a	n/a	n/a	n/a	n/a	n/a	n/a
3315029	RECOG_CONF	n/a	LTP189	ltpFR	3	5	n/a	CLAY	320	n/a	5	n/a	n/a	n/a	n/a	n/a	n/a
3317115	RECOG_TARGET	n/a	LTP189	ltpFR	3	5	0	GRIZZLY	662	1	5	0	n/a	n/a	n/a	n/a	n/a
3317939	RECOG_RESP	n/a	LTP189	ltpFR	3	5	0	GRIZZLY	662	1	n/a	0	n/a	n/a	n/a	n/a	n/a
3318836	RECOG_CONF	n/a	LTP189	ltpFR	3	5	0	GRIZZLY	662	n/a	5	0	n/a	n/a	n/a	n/a	n/a
3320962	RECOG_TARGET	n/a	LTP189	ltpFR	3	5	1	LAUNDRY	803	1	4	0	n/a	n/a	n/a	n/a	n/a
3322362	RECOG_RESP	n/a	LTP189	ltpFR	3	5	1	LAUNDRY	803	1	n/a	0	n/a	n/a	n/a	n/a	n/a
3323464	RECOG_CONF	n/a	LTP189	ltpFR	3	5	1	LAUNDRY	803	n/a	4	0	n/a	n/a	n/a	n/a	n/a
3325246	RECOG_TARGET	n/a	LTP189	ltpFR	3	5	1	SPATULA	1348	1	4	0	n/a	n/a	n/a	n/a	n/a
3326410	RECOG_RESP	n/a	LTP189	ltpFR	3	5	1	SPATULA	1348	1	n/a	0	n/a	n/a	n/a	n/a	n/a
3327509	RECOG_CONF	n/a	LTP189	ltpFR	3	5	1	SPATULA	1348	n/a	4	0	n/a	n/a	n/a	n/a	n/a
3329395	RECOG_TARGET	n/a	LTP189	ltpFR	3	5	-1	NAVIGATOR	938	1	5	-1	n/a	n/a	n/a	n/a	n/a
3330242	RECOG_RESP	n/a	LTP189	ltpFR	3	5	-1	NAVIGATOR	938	1	n/a	-1	n/a	n/a	n/a	n/a	n/a
3331176	RECOG_CONF	n/a	LTP189	ltpFR	3	5	-1	NAVIGATOR	938	n/a	5	-1	n/a	n/a	n/a	n/a	n/a
3333226	RECOG_TARGET	n/a	LTP189	ltpFR	3	5	-1	FLY	586	1	5	-1	n/a	n/a	n/a	n/a	n/a
3333975	RECOG_RESP	n/a	LTP189	ltpFR	3	5	-1	FLY	586	1	n/a	-1	n/a	n/a	n/a	n/a	n/a
3335007	RECOG_CONF	n/a	LTP189	ltpFR	3	5	-1	FLY	586	n/a	5	-1	n/a	n/a	n/a	n/a	n/a
3336926	RECOG_TARGET	n/a	LTP189	ltpFR	3	5	-1	MANAGER	863	1	5	-1	n/a	n/a	n/a	n/a	n/a
3337596	RECOG_RESP	n/a	LTP189	ltpFR	3	5	-1	MANAGER	863	1	n/a	-1	n/a	n/a	n/a	n/a	n/a
3338579	RECOG_CONF	n/a	LTP189	ltpFR	3	5	-1	MANAGER	863	n/a	5	-1	n/a	n/a	n/a	n/a	n/a
3340704	RECOG_TARGET	n/a	LTP189	ltpFR	3	5	-1	DUCK	504	1	3	-1	n/a	n/a	n/a	n/a	n/a
3343731	RECOG_RESP	n/a	LTP189	ltpFR	3	5	-1	DUCK	504	1	n/a	-1	n/a	n/a	n/a	n/a	n/a
3344885	RECOG_CONF	n/a	LTP189	ltpFR	3	5	-1	DUCK	504	n/a	3	-1	n/a	n/a	n/a	n/a	n/a
3346827	RECOG_TARGET	n/a	LTP189	ltpFR	3	5	0	QUEEN	1149	1	4	1	n/a	n/a	n/a	n/a	n/a
3348299	RECOG_RESP	n/a	LTP189	ltpFR	3	5	0	QUEEN	1149	1	n/a	1	n/a	n/a	n/a	n/a	n/a
3349267	RECOG_CONF	n/a	LTP189	ltpFR	3	5	0	QUEEN	1149	n/a	4	1	n/a	n/a	n/a	n/a	n/a
3351193	RECOG_TARGET	n/a	LTP189	ltpFR	3	5	-1	DESK	452	0	2	-1	n/a	n/a	n/a	n/a	n/a
3352197	RECOG_RESP	n/a	LTP189	ltpFR	3	5	-1	DESK	452	0	n/a	-1	n/a	n/a	n/a	n/a	n/a
3353299	RECOG_CONF	n/a	LTP189	ltpFR	3	5	-1	DESK	452	n/a	2	-1	n/a	n/a	n/a	n/a	n/a
3355079	RECOG_TARGET	n/a	LTP189	ltpFR	3	5	0	SPINACH	1352	0	4	0	n/a	n/a	n/a	n/a	n/a
3355967	RECOG_RESP	n/a	LTP189	ltpFR	3	5	0	SPINACH	1352	0	n/a	0	n/a	n/a	n/a	n/a	n/a
3356847	RECOG_CONF	n/a	LTP189	ltpFR	3	5	0	SPINACH	1352	n/a	4	0	n/a	n/a	n/a	n/a	n/a
3366479	REC_START	n/a	LTP189	ltpFR	3	6	n/a	n/a	n/a	n/a	n/a	n/a	n/a	n/a	n/a	n/a	n/a
3366518	RECOG_TARGET	n/a	LTP189	ltpFR	3	6	0	TANK	1432	1	5	0	n/a	n/a	n/a	n/a	n/a
3367289	RECOG_RESP_VV	n/a	LTP189	ltpFR	3	6	0	TANK	1432	0	n/a	0	n/a	n/a	n/a	n/a	n/a
3368220	RECOG_RESP	n/a	LTP189	ltpFR	3	6	0	TANK	1432	1	n/a	0	n/a	n/a	n/a	n/a	n/a
3369547	RECOG_CONF	n/a	LTP189	ltpFR	3	6	0	TANK	1432	n/a	5	0	n/a	n/a	n/a	n/a	n/a
3371353	RECOG_TARGET	n/a	LTP189	ltpFR	3	6	0	STALLION	1369	1	5	1	n/a	n/a	n/a	n/a	n/a
3372155	RECOG_RESP	n/a	LTP189	ltpFR	3	6	0	STALLION	1369	1	n/a	1	n/a	n/a	n/a	n/a	n/a
3373412	RECOG_CONF	n/a	LTP189	ltpFR	3	6	0	STALLION	1369	n/a	5	1	n/a	n/a	n/a	n/a	n/a
3375438	RECOG_LURE	n/a	LTP189	ltpFR	3	6	n/a	CREW	406	0	2	n/a	n/a	n/a	n/a	n/a	n/a
3378508	RECOG_RESP	n/a	LTP189	ltpFR	3	6	n/a	CREW	406	0	n/a	n/a	n/a	n/a	n/a	n/a	n/a
3379804	RECOG_CONF	n/a	LTP189	ltpFR	3	6	n/a	CREW	406	n/a	2	n/a	n/a	n/a	n/a	n/a	n/a
3381680	RECOG_TARGET	n/a	LTP189	ltpFR	3	6	0	CHIME	300	1	3	0	n/a	n/a	n/a	n/a	n/a
3383653	RECOG_RESP	n/a	LTP189	ltpFR	3	6	0	CHIME	300	1	n/a	0	n/a	n/a	n/a	n/a	n/a
3384983	RECOG_CONF	n/a	LTP189	ltpFR	3	6	0	CHIME	300	n/a	3	0	n/a	n/a	n/a	n/a	n/a
3386865	RECOG_TARGET	n/a	LTP189	ltpFR	3	6	0	SUBURB	1399	1	4	1	n/a	n/a	n/a	n/a	n/a
3387592	RECOG_RESP	n/a	LTP189	ltpFR	3	6	0	SUBURB	1399	1	n/a	1	n/a	n/a	n/a	n/a	n/a
3388671	RECOG_CONF	n/a	LTP189	ltpFR	3	6	0	SUBURB	1399	n/a	4	1	n/a	n/a	n/a	n/a	n/a
3390458	RECOG_TARGET	n/a	LTP189	ltpFR	3	6	0	COUCH	386	1	4	0	n/a	n/a	n/a	n/a	n/a
3392459	RECOG_RESP	n/a	LTP189	ltpFR	3	6	0	COUCH	386	1	n/a	0	n/a	n/a	n/a	n/a	n/a
3393653	RECOG_CONF	n/a	LTP189	ltpFR	3	6	0	COUCH	386	n/a	4	0	n/a	n/a	n/a	n/a	n/a
3395630	RECOG_TARGET	n/a	LTP189	ltpFR	3	6	1	WASHER	1592	1	4	0	n/a	n/a	n/a	n/a	n/a
3396561	RECOG_RESP	n/a	LTP189	ltpFR	3	6	1	WASHER	1592	1	n/a	0	n/a	n/a	n/a	n/a	n/a
3397593	RECOG_CONF	n/a	LTP189	ltpFR	3	6	1	WASHER	1592	n/a	4	0	n/a	n/a	n/a	n/a	n/a
3399676	RECOG_TARGET	n/a	LTP189	ltpFR	3	6	1	WARDROBE	1587	1	4	0	n/a	n/a	n/a	n/a	n/a
3400425	RECOG_RESP	n/a	LTP189	ltpFR	3	6	1	WARDROBE	1587	1	n/a	0	n/a	n/a	n/a	n/a	n/a
3401505	RECOG_CONF	n/a	LTP189	ltpFR	3	6	1	WARDROBE	1587	n/a	4	0	n/a	n/a	n/a	n/a	n/a
3403440	RECOG_TARGET	n/a	LTP189	ltpFR	3	6	0	SLACKS	1323	1	5	0	n/a	n/a	n/a	n/a	n/a
3404353	RECOG_RESP	n/a	LTP189	ltpFR	3	6	0	SLACKS	1323	1	n/a	0	n/a	n/a	n/a	n/a	n/a
3405335	RECOG_CONF	n/a	LTP189	ltpFR	3	6	0	SLACKS	1323	n/a	5	0	n/a	n/a	n/a	n/a	n/a
3407204	RECOG_LURE	n/a	LTP189	ltpFR	3	6	n/a	COMPANION	357	1	5	n/a	n/a	n/a	n/a	n/a	n/a
3407887	RECOG_RESP	n/a	LTP189	ltpFR	3	6	n/a	COMPANION	357	1	n/a	n/a	n/a	n/a	n/a	n/a	n/a
3409137	RECOG_CONF	n/a	LTP189	ltpFR	3	6	n/a	COMPANION	357	n/a	5	n/a	n/a	n/a	n/a	n/a	n/a
3411053	RECOG_TARGET	n/a	LTP189	ltpFR	3	6	1	LADDER	793	1	4	0	n/a	n/a	n/a	n/a	n/a
3413001	RECOG_RESP	n/a	LTP189	ltpFR	3	6	1	LADDER	793	1	n/a	0	n/a	n/a	n/a	n/a	n/a
3414023	RECOG_CONF	n/a	LTP189	ltpFR	3	6	1	LADDER	793	n/a	4	0	n/a	n/a	n/a	n/a	n/a
3416138	RECOG_TARGET	n/a	LTP189	ltpFR	3	6	0	ACORN	3	0	4	0	n/a	n/a	n/a	n/a	n/a
3417341	RECOG_RESP	n/a	LTP189	ltpFR	3	6	0	ACORN	3	0	n/a	0	n/a	n/a	n/a	n/a	n/a
3418312	RECOG_CONF	n/a	LTP189	ltpFR	3	6	0	ACORN	3	n/a	4	0	n/a	n/a	n/a	n/a	n/a
3420337	RECOG_LURE	n/a	LTP189	ltpFR	3	6	n/a	ARTIST	43	0	4	n/a	n/a	n/a	n/a	n/a	n/a
3422866	RECOG_RESP	n/a	LTP189	ltpFR	3	6	n/a	ARTIST	43	0	n/a	n/a	n/a	n/a	n/a	n/a	n/a
3423843	RECOG_CONF	n/a	LTP189	ltpFR	3	6	n/a	ARTIST	43	n/a	4	n/a	n/a	n/a	n/a	n/a	n/a
3425927	RECOG_TARGET	n/a	LTP189	ltpFR	3	6	0	BULLY	196	1	4	1	n/a	n/a	n/a	n/a	n/a
3426843	RECOG_RESP	n/a	LTP189	ltpFR	3	6	0	BULLY	196	1	n/a	1	n/a	n/a	n/a	n/a	n/a
3427779	RECOG_CONF	n/a	LTP189	ltpFR	3	6	0	BULLY	196	n/a	4	1	n/a	n/a	n/a	n/a	n/a
3429739	RECOG_TARGET	n/a	LTP189	ltpFR	3	6	0	PORK	1108	1	3	0	n/a	n/a	n/a	n/a	n/a
3430591	RECOG_RESP	n/a	LTP189	ltpFR	3	6	0	PORK	1108	1	n/a	0	n/a	n/a	n/a	n/a	n/a
3431777	RECOG_CONF	n/a	LTP189	ltpFR	3	6	0	PORK	1108	n/a	3	0	n/a	n/a	n/a	n/a	n/a
3433537	RECOG_TARGET	n/a	LTP189	ltpFR	3	6	0	SWEATER	1419	1	5	0	n/a	n/a	n/a	n/a	n/a
3434892	RECOG_RESP	n/a	LTP189	ltpFR	3	6	0	SWEATER	1419	1	n/a	0	n/a	n/a	n/a	n/a	n/a
3435715	RECOG_CONF	n/a	LTP189	ltpFR	3	6	0	SWEATER	1419	n/a	5	0	n/a	n/a	n/a	n/a	n/a
3437921	RECOG_TARGET	n/a	LTP189	ltpFR	3	6	1	BRANCH	168	1	4	0	n/a	n/a	n/a	n/a	n/a
3439059	RECOG_RESP	n/a	LTP189	ltpFR	3	6	1	BRANCH	168	1	n/a	0	n/a	n/a	n/a	n/a	n/a
3440156	RECOG_CONF	n/a	LTP189	ltpFR	3	6	1	BRANCH	168	n/a	4	0	n/a	n/a	n/a	n/a	n/a
3442001	RECOG_TARGET	n/a	LTP189	ltpFR	3	6	0	SOCK	1339	1	2	0	n/a	n/a	n/a	n/a	n/a
3443165	RECOG_RESP	n/a	LTP189	ltpFR	3	6	0	SOCK	1339	1	n/a	0	n/a	n/a	n/a	n/a	n/a
3444477	RECOG_CONF	n/a	LTP189	ltpFR	3	6	0	SOCK	1339	n/a	2	0	n/a	n/a	n/a	n/a	n/a
3446385	RECOG_TARGET	n/a	LTP189	ltpFR	3	6	1	CHAIN	273	0	3	0	n/a	n/a	n/a	n/a	n/a
3447644	RECOG_RESP	n/a	LTP189	ltpFR	3	6	1	CHAIN	273	0	n/a	0	n/a	n/a	n/a	n/a	n/a
3448707	RECOG_CONF	n/a	LTP189	ltpFR	3	6	1	CHAIN	273	n/a	3	0	n/a	n/a	n/a	n/a	n/a
3450505	RECOG_TARGET	n/a	LTP189	ltpFR	3	6	1	BIKE	125	0	2	0	n/a	n/a	n/a	n/a	n/a
3452431	RECOG_RESP	n/a	LTP189	ltpFR	3	6	1	BIKE	125	0	n/a	0	n/a	n/a	n/a	n/a	n/a
3453904	RECOG_CONF	n/a	LTP189	ltpFR	3	6	1	BIKE	125	n/a	2	0	n/a	n/a	n/a	n/a	n/a
3481192	REC_START	n/a	LTP189	ltpFR	3	7	n/a	n/a	n/a	n/a	n/a	n/a	n/a	n/a	n/a	n/a	n/a
3481235	RECOG_TARGET	n/a	LTP189	ltpFR	3	7	0	MAILMAN	858	1	4	1	n/a	n/a	n/a	n/a	n/a
3483387	RECOG_RESP	n/a	LTP189	ltpFR	3	7	0	MAILMAN	858	1	n/a	1	n/a	n/a	n/a	n/a	n/a
3484537	RECOG_CONF	n/a	LTP189	ltpFR	3	7	0	MAILMAN	858	n/a	4	1	n/a	n/a	n/a	n/a	n/a
3486503	RECOG_TARGET	n/a	LTP189	ltpFR	3	7	1	COLUMN	350	1	4	0	n/a	n/a	n/a	n/a	n/a
3487353	RECOG_RESP	n/a	LTP189	ltpFR	3	7	1	COLUMN	350	1	n/a	0	n/a	n/a	n/a	n/a	n/a
3488720	RECOG_CONF	n/a	LTP189	ltpFR	3	7	1	COLUMN	350	n/a	4	0	n/a	n/a	n/a	n/a	n/a
3490502	RECOG_TARGET	n/a	LTP189	ltpFR	3	7	1	BARN	89	1	3	0	n/a	n/a	n/a	n/a	n/a
3491249	RECOG_RESP	n/a	LTP189	ltpFR	3	7	1	BARN	89	1	n/a	0	n/a	n/a	n/a	n/a	n/a
3492471	RECOG_CONF	n/a	LTP189	ltpFR	3	7	1	BARN	89	n/a	3	0	n/a	n/a	n/a	n/a	n/a
3494299	RECOG_TARGET	n/a	LTP189	ltpFR	3	7	1	SIRLOIN	1311	0	1	0	n/a	n/a	n/a	n/a	n/a
3496439	RECOG_RESP	n/a	LTP189	ltpFR	3	7	1	SIRLOIN	1311	0	n/a	0	n/a	n/a	n/a	n/a	n/a
3498128	RECOG_CONF	n/a	LTP189	ltpFR	3	7	1	SIRLOIN	1311	n/a	1	0	n/a	n/a	n/a	n/a	n/a
3499953	RECOG_LURE	n/a	LTP189	ltpFR	3	7	n/a	DAUGHTER	442	0	5	n/a	n/a	n/a	n/a	n/a	n/a
3501637	RECOG_RESP	n/a	LTP189	ltpFR	3	7	n/a	DAUGHTER	442	0	n/a	n/a	n/a	n/a	n/a	n/a	n/a
3502872	RECOG_CONF	n/a	LTP189	ltpFR	3	7	n/a	DAUGHTER	442	n/a	5	n/a	n/a	n/a	n/a	n/a	n/a
3504790	RECOG_TARGET	n/a	LTP189	ltpFR	3	7	0	BACKBONE	66	1	5	0	n/a	n/a	n/a	n/a	n/a
3505751	RECOG_RESP	n/a	LTP189	ltpFR	3	7	0	BACKBONE	66	1	n/a	0	n/a	n/a	n/a	n/a	n/a
3506961	RECOG_CONF	n/a	LTP189	ltpFR	3	7	0	BACKBONE	66	n/a	5	0	n/a	n/a	n/a	n/a	n/a
3508987	RECOG_TARGET	n/a	LTP189	ltpFR	3	7	0	ATHLETE	52	1	5	1	n/a	n/a	n/a	n/a	n/a
3509761	RECOG_RESP	n/a	LTP189	ltpFR	3	7	0	ATHLETE	52	1	n/a	1	n/a	n/a	n/a	n/a	n/a
3511062	RECOG_CONF	n/a	LTP189	ltpFR	3	7	0	ATHLETE	52	n/a	5	1	n/a	n/a	n/a	n/a	n/a
3512922	RECOG_LURE	n/a	LTP189	ltpFR	3	7	n/a	COIN	343	0	3	n/a	n/a	n/a	n/a	n/a	n/a
3515706	RECOG_RESP_VV	n/a	LTP189	ltpFR	3	7	n/a	COIN	343	1	n/a	n/a	n/a	n/a	n/a	n/a	n/a
3516323	RECOG_RESP	n/a	LTP189	ltpFR	3	7	n/a	COIN	343	0	n/a	n/a	n/a	n/a	n/a	n/a	n/a
3518722	RECOG_CONF	n/a	LTP189	ltpFR	3	7	n/a	COIN	343	n/a	3	n/a	n/a	n/a	n/a	n/a	n/a
3520532	RECOG_TARGET	n/a	LTP189	ltpFR	3	7	-1	OAR	966	1	5	-1	n/a	n/a	n/a	n/a	n/a
3521496	RECOG_RESP	n/a	LTP189	ltpFR	3	7	-1	OAR	966	1	n/a	-1	n/a	n/a	n/a	n/a	n/a
3522626	RECOG_CONF	n/a	LTP189	ltpFR	3	7	-1	OAR	966	n/a	5	-1	n/a	n/a	n/a	n/a	n/a
3524597	RECOG_TARGET	n/a	LTP189	ltpFR	3	7	1	TURTLE	1522	1	4	1	n/a	n/a	n/a	n/a	n/a
3525787	RECOG_RESP	n/a	LTP189	ltpFR	3	7	1	TURTLE	1522	1	n/a	1	n/a	n/a	n/a	n/a	n/a
3526692	RECOG_CONF	n/a	LTP189	ltpFR	3	7	1	TURTLE	1522	n/a	4	1	n/a	n/a	n/a	n/a	n/a
3528779	RECOG_TARGET	n/a	LTP189	ltpFR	3	7	1	BOULEVARD	156	1	5	0	n/a	n/a	n/a	n/a	n/a
3529823	RECOG_RESP	n/a	LTP189	ltpFR	3	7	1	BOULEVARD	156	1	n/a	0	n/a	n/a	n/a	n/a	n/a
3530802	RECOG_CONF	n/a	LTP189	ltpFR	3	7	1	BOULEVARD	156	n/a	5	0	n/a	n/a	n/a	n/a	n/a
3532781	RECOG_LURE	n/a	LTP189	ltpFR	3	7	n/a	LOCK	838	0	4	n/a	n/a	n/a	n/a	n/a	n/a
3534199	RECOG_RESP	n/a	LTP189	ltpFR	3	7	n/a	LOCK	838	0	n/a	n/a	n/a	n/a	n/a	n/a	n/a
3535663	RECOG_CONF	n/a	LTP189	ltpFR	3	7	n/a	LOCK	838	n/a	4	n/a	n/a	n/a	n/a	n/a	n/a
3537529	RECOG_TARGET	n/a	LTP189	ltpFR	3	7	1	SEED	1266	1	4	1	n/a	n/a	n/a	n/a	n/a
3538907	RECOG_RESP	n/a	LTP189	ltpFR	3	7	1	SEED	1266	1	n/a	1	n/a	n/a	n/a	n/a	n/a
3539762	RECOG_CONF	n/a	LTP189	ltpFR	3	7	1	SEED	1266	n/a	4	1	n/a	n/a	n/a	n/a	n/a
3541662	RECOG_TARGET	n/a	LTP189	ltpFR	3	7	-1	BOUQUET	157	1	5	-1	n/a	n/a	n/a	n/a	n/a
3543282	RECOG_RESP	n/a	LTP189	ltpFR	3	7	-1	BOUQUET	157	1	n/a	-1	n/a	n/a	n/a	n/a	n/a
3544110	RECOG_CONF	n/a	LTP189	ltpFR	3	7	-1	BOUQUET	157	n/a	5	-1	n/a	n/a	n/a	n/a	n/a
3546178	RECOG_TARGET	n/a	LTP189	ltpFR	3	7	1	HOOP	716	1	3	0	n/a	n/a	n/a	n/a	n/a
3551624	RECOG_RESP	n/a	LTP189	ltpFR	3	7	1	HOOP	716	1	n/a	0	n/a	n/a	n/a	n/a	n/a
3552744	RECOG_CONF	n/a	LTP189	ltpFR	3	7	1	HOOP	716	n/a	3	0	n/a	n/a	n/a	n/a	n/a
3554777	RECOG_LURE	n/a	LTP189	ltpFR	3	7	n/a	BATHROOM	99	0	4	n/a	n/a	n/a	n/a	n/a	n/a
3557404	RECOG_RESP	n/a	LTP189	ltpFR	3	7	n/a	BATHROOM	99	0	n/a	n/a	n/a	n/a	n/a	n/a	n/a
3558865	RECOG_CONF	n/a	LTP189	ltpFR	3	7	n/a	BATHROOM	99	n/a	4	n/a	n/a	n/a	n/a	n/a	n/a
3560432	RECOG_TARGET	n/a	LTP189	ltpFR	3	7	-1	CART	250	1	4	-1	n/a	n/a	n/a	n/a	n/a
3562258	RECOG_RESP	n/a	LTP189	ltpFR	3	7	-1	CART	250	1	n/a	-1	n/a	n/a	n/a	n/a	n/a
3563169	RECOG_CONF	n/a	LTP189	ltpFR	3	7	-1	CART	250	n/a	4	-1	n/a	n/a	n/a	n/a	n/a
3564998	RECOG_TARGET	n/a	LTP189	ltpFR	3	7	1	HORSE	719	1	4	1	n/a	n/a	n/a	n/a	n/a
3565772	RECOG_RESP	n/a	LTP189	ltpFR	3	7	1	HORSE	719	1	n/a	1	n/a	n/a	n/a	n/a	n/a
3566812	RECOG_CONF	n/a	LTP189	ltpFR	3	7	1	HORSE	719	n/a	4	1	n/a	n/a	n/a	n/a	n/a
3568864	RECOG_TARGET	n/a	LTP189	ltpFR	3	7	1	SIDING	1304	1	5	0	n/a	n/a	n/a	n/a	n/a
3569879	RECOG_RESP	n/a	LTP189	ltpFR	3	7	1	SIDING	1304	1	n/a	0	n/a	n/a	n/a	n/a	n/a
3570799	RECOG_CONF	n/a	LTP189	ltpFR	3	7	1	SIDING	1304	n/a	5	0	n/a	n/a	n/a	n/a	n/a
3572795	RECOG_TARGET	n/a	LTP189	ltpFR	3	7	0	SICKLE	1302	1	5	0	n/a	n/a	n/a	n/a	n/a
3573646	RECOG_RESP	n/a	LTP189	ltpFR	3	7	0	SICKLE	1302	1	n/a	0	n/a	n/a	n/a	n/a	n/a
3574490	RECOG_CONF	n/a	LTP189	ltpFR	3	7	0	SICKLE	1302	n/a	5	0	n/a	n/a	n/a	n/a	n/a
3583117	REC_START	n/a	LTP189	ltpFR	3	8	n/a	n/a	n/a	n/a	n/a	n/a	n/a	n/a	n/a	n/a	n/a
3583168	RECOG_TARGET	n/a	LTP189	ltpFR	3	8	0	CHEF	290	0	3	1	n/a	n/a	n/a	n/a	n/a
3584297	RECOG_RESP	n/a	LTP189	ltpFR	3	8	0	CHEF	290	0	n/a	1	n/a	n/a	n/a	n/a	n/a
3585478	RECOG_CONF	n/a	LTP189	ltpFR	3	8	0	CHEF	290	n/a	3	1	n/a	n/a	n/a	n/a	n/a
3587300	RECOG_LURE	n/a	LTP189	ltpFR	3	8	n/a	MEDAL	885	0	3	n/a	n/a	n/a	n/a	n/a	n/a
3589371	RECOG_RESP	n/a	LTP189	ltpFR	3	8	n/a	MEDAL	885	0	n/a	n/a	n/a	n/a	n/a	n/a	n/a
3590523	RECOG_CONF	n/a	LTP189	ltpFR	3	8	n/a	MEDAL	885	n/a	3	n/a	n/a	n/a	n/a	n/a	n/a
3592202	RECOG_TARGET	n/a	LTP189	ltpFR	3	8	1	PITCHFORK	1078	1	4	0	n/a	n/a	n/a	n/a	n/a
3593013	RECOG_RESP	n/a	LTP189	ltpFR	3	8	1	PITCHFORK	1078	1	n/a	0	n/a	n/a	n/a	n/a	n/a
3593963	RECOG_CONF	n/a	LTP189	ltpFR	3	8	1	PITCHFORK	1078	n/a	4	0	n/a	n/a	n/a	n/a	n/a
3595799	RECOG_LURE	n/a	LTP189	ltpFR	3	8	n/a	FROG	608	0	4	n/a	n/a	n/a	n/a	n/a	n/a
3596824	RECOG_RESP	n/a	LTP189	ltpFR	3	8	n/a	FROG	608	0	n/a	n/a	n/a	n/a	n/a	n/a	n/a
3597856	RECOG_CONF	n/a	LTP189	ltpFR	3	8	n/a	FROG	608	n/a	4	n/a	n/a	n/a	n/a	n/a	n/a
3599613	RECOG_TARGET	n/a	LTP189	ltpFR	3	8	1	ELM	527	1	5	1	n/a	n/a	n/a	n/a	n/a
3600407	RECOG_RESP	n/a	LTP189	ltpFR	3	8	1	ELM	527	1	n/a	1	n/a	n/a	n/a	n/a	n/a
3601468	RECOG_CONF	n/a	LTP189	ltpFR	3	8	1	ELM	527	n/a	5	1	n/a	n/a	n/a	n/a	n/a
3603296	RECOG_TARGET	n/a	LTP189	ltpFR	3	8	0	APPENDAGE	32	1	5	0	n/a	n/a	n/a	n/a	n/a
3604143	RECOG_RESP	n/a	LTP189	ltpFR	3	8	0	APPENDAGE	32	1	n/a	0	n/a	n/a	n/a	n/a	n/a
3605075	RECOG_CONF	n/a	LTP189	ltpFR	3	8	0	APPENDAGE	32	n/a	5	0	n/a	n/a	n/a	n/a	n/a
3607208	RECOG_TARGET	n/a	LTP189	ltpFR	3	8	0	PORCUPINE	1107	1	5	0	n/a	n/a	n/a	n/a	n/a
3608149	RECOG_RESP	n/a	LTP189	ltpFR	3	8	0	PORCUPINE	1107	1	n/a	0	n/a	n/a	n/a	n/a	n/a
3609107	RECOG_CONF	n/a	LTP189	ltpFR	3	8	0	PORCUPINE	1107	n/a	5	0	n/a	n/a	n/a	n/a	n/a
3611095	RECOG_LURE	n/a	LTP189	ltpFR	3	8	n/a	WHIP	1604	1	3	n/a	n/a	n/a	n/a	n/a	n/a
3614435	RECOG_RESP	n/a	LTP189	ltpFR	3	8	n/a	WHIP	1604	1	n/a	n/a	n/a	n/a	n/a	n/a	n/a
3615568	RECOG_CONF	n/a	LTP189	ltpFR	3	8	n/a	WHIP	1604	n/a	3	n/a	n/a	n/a	n/a	n/a	n/a
3617447	RECOG_TARGET	n/a	LTP189	ltpFR	3	8	-1	BIBLE	124	1	5	-1	n/a	n/a	n/a	n/a	n/a
3618431	RECOG_RESP	n/a	LTP189	ltpFR	3	8	-1	BIBLE	124	1	n/a	-1	n/a	n/a	n/a	n/a	n/a
3619419	RECOG_CONF	n/a	LTP189	ltpFR	3	8	-1	BIBLE	124	n/a	5	-1	n/a	n/a	n/a	n/a	n/a
3621495	RECOG_TARGET	n/a	LTP189	ltpFR	3	8	0	BANDANNA	80	1	5	0	n/a	n/a	n/a	n/a	n/a
3622303	RECOG_RESP	n/a	LTP189	ltpFR	3	8	0	BANDANNA	80	1	n/a	0	n/a	n/a	n/a	n/a	n/a
3623269	RECOG_CONF	n/a	LTP189	ltpFR	3	8	0	BANDANNA	80	n/a	5	0	n/a	n/a	n/a	n/a	n/a
3625328	RECOG_TARGET	n/a	LTP189	ltpFR	3	8	0	CONTRACTOR	369	0	4	1	n/a	n/a	n/a	n/a	n/a
3627109	RECOG_RESP	n/a	LTP189	ltpFR	3	8	0	CONTRACTOR	369	0	n/a	1	n/a	n/a	n/a	n/a	n/a
3628101	RECOG_CONF	n/a	LTP189	ltpFR	3	8	0	CONTRACTOR	369	n/a	4	1	n/a	n/a	n/a	n/a	n/a
3630128	RECOG_LURE	n/a	LTP189	ltpFR	3	8	n/a	GUARD	667	1	2	n/a	n/a	n/a	n/a	n/a	n/a
3632779	RECOG_RESP	n/a	LTP189	ltpFR	3	8	n/a	GUARD	667	1	n/a	n/a	n/a	n/a	n/a	n/a	n/a
3634098	RECOG_CONF	n/a	LTP189	ltpFR	3	8	n/a	GUARD	667	n/a	2	n/a	n/a	n/a	n/a	n/a	n/a
3636016	RECOG_TARGET	n/a	LTP189	ltpFR	3	8	0	CHAIR	274	1	3	0	n/a	n/a	n/a	n/a	n/a
3637063	RECOG_RESP	n/a	LTP189	ltpFR	3	8	0	CHAIR	274	1	n/a	0	n/a	n/a	n/a	n/a	n/a
3638177	RECOG_CONF	n/a	LTP189	ltpFR	3	8	0	CHAIR	274	n/a	3	0	n/a	n/a	n/a	n/a	n/a
3639997	RECOG_LURE	n/a	LTP189	ltpFR	3	8	n/a	WALRUS	1585	0	5	n/a	n/a	n/a	n/a	n/a	n/a
3641014	RECOG_RESP	n/a	LTP189	ltpFR	3	8	n/a	WALRUS	1585	0	n/a	n/a	n/a	n/a	n/a	n/a	n/a
3642066	RECOG_CONF	n/a	LTP189	ltpFR	3	8	n/a	WALRUS	1585	n/a	5	n/a	n/a	n/a	n/a	n/a	n/a
3644214	RECOG_TARGET	n/a	LTP189	ltpFR	3	8	0	CALENDAR	221	1	3	0	n/a	n/a	n/a	n/a	n/a
3645612	RECOG_RESP	n/a	LTP189	ltpFR	3	8	0	CALENDAR	221	1	n/a	0	n/a	n/a	n/a	n/a	n/a
3646910	RECOG_CONF	n/a	LTP189	ltpFR	3	8	0	CALENDAR	221	n/a	3	0	n/a	n/a	n/a	n/a	n/a
3648933	RECOG_TARGET	n/a	LTP189	ltpFR	3	8	0	CARRIAGE	248	1	4	0	n/a	n/a	n/a	n/a	n/a
3649689	RECOG_RESP	n/a	LTP189	ltpFR	3	8	0	CARRIAGE	248	1	n/a	0	n/a	n/a	n/a	n/a	n/a
3650688	RECOG_CONF	n/a	LTP189	ltpFR	3	8	0	CARRIAGE	248	n/a	4	0	n/a	n/a	n/a	n/a	n/a
3652780	RECOG_LURE	n/a	LTP189	ltpFR	3	8	n/a	MOB	904	0	3	n/a	n/a	n/a	n/a	n/a	n/a
3654262	RECOG_RESP	n/a	LTP189	ltpFR	3	8	n/a	MOB	904	0	n/a	n/a	n/a	n/a	n/a	n/a	n/a
3656012	RECOG_CONF	n/a	LTP189	ltpFR	3	8	n/a	MOB	904	n/a	3	n/a	n/a	n/a	n/a	n/a	n/a
3657982	RECOG_TARGET	n/a	LTP189	ltpFR	3	8	1	SALAD	1224	1	2	0	n/a	n/a	n/a	n/a	n/a
3658992	RECOG_RESP	n/a	LTP189	ltpFR	3	8	1	SALAD	1224	1	n/a	0	n/a	n/a	n/a	n/a	n/a
3660601	RECOG_CONF	n/a	LTP189	ltpFR	3	8	1	SALAD	1224	n/a	2	0	n/a	n/a	n/a	n/a	n/a
3662483	RECOG_LURE	n/a	LTP189	ltpFR	3	8	n/a	PRINCE	1124	0	4	n/a	n/a	n/a	n/a	n/a	n/a
3663636	RECOG_RESP_VV	n/a	LTP189	ltpFR	3	8	n/a	PRINCE	1124	1	n/a	n/a	n/a	n/a	n/a	n/a	n/a
3665267	RECOG_RESP	n/a	LTP189	ltpFR	3	8	n/a	PRINCE	1124	0	n/a	n/a	n/a	n/a	n/a	n/a	n/a
3666628	RECOG_CONF	n/a	LTP189	ltpFR	3	8	n/a	PRINCE	1124	n/a	4	n/a	n/a	n/a	n/a	n/a	n/a
3668690	RECOG_TARGET	n/a	LTP189	ltpFR	3	8	1	HARE	688	0	3	1	n/a	n/a	n/a	n/a	n/a
3672229	RECOG_RESP	n/a	LTP189	ltpFR	3	8	1	HARE	688	0	n/a	1	n/a	n/a	n/a	n/a	n/a
3673263	RECOG_CONF	n/a	LTP189	ltpFR	3	8	1	HARE	688	n/a	3	1	n/a	n/a	n/a	n/a	n/a
3683275	REC_START	n/a	LTP189	ltpFR	3	9	n/a	n/a	n/a	n/a	n/a	n/a	n/a	n/a	n/a	n/a	n/a
3683328	RECOG_LURE	n/a	LTP189	ltpFR	3	9	n/a	EMPLOYEE	531	1	3	n/a	n/a	n/a	n/a	n/a	n/a
3684659	RECOG_RESP	n/a	LTP189	ltpFR	3	9	n/a	EMPLOYEE	531	1	n/a	n/a	n/a	n/a	n/a	n/a	n/a
3685732	RECOG_CONF	n/a	LTP189	ltpFR	3	9	n/a	EMPLOYEE	531	n/a	3	n/a	n/a	n/a	n/a	n/a	n/a
