mstime	trial_type	stim_file	subject	experiment	session	trial	task	item_name	item_num	recog_conf	resp	color_b	color_g	color_r	case	font
0	SESS_START	n/a	LTP091	ltpFR	1	n/a	n/a	n/a	n/a	4	n/a	n/a	n/a	n/a	n/a	n/a
83214	WORD	wordpools/wasnorm_wordpool.txt	LTP091	ltpFR	1	1	1	DESIGNER	451	n/a	1	1	0.412841796875	0.57763671875	upper	../fonts/amplitud.ttf
87226	WORD	wordpools/wasnorm_wordpool.txt	LTP091	ltpFR	1	1	1	RUBY	1214	n/a	0	1	0.412841796875	0.57763671875	upper	../fonts/amplitud.ttf
91380	WORD	wordpools/wasnorm_wordpool.txt	LTP091	ltpFR	1	1	0	WINE	1613	n/a	0	0	0.5869140625	0.422607421875	lower	../fonts/zerothre.ttf
95367	WORD	wordpools/wasnorm_wordpool.txt	LTP091	ltpFR	1	1	0	KNUCKLE	789	n/a	0	0	0.5869140625	0.422607421875	lower	../fonts/zerothre.ttf
99245	WORD	wordpools/wasnorm_wordpool.txt	LTP091	ltpFR	1	1	0	CHEESE	289	n/a	0	0	0.5869140625	0.422607421875	lower	../fonts/zerothre.ttf
103166	WORD	wordpools/wasnorm_wordpool.txt	LTP091	ltpFR	1	1	0	CHEDDAR	286	n/a	0	0	0.5869140625	0.422607421875	lower	../fonts/zerothre.ttf
107353	WORD	wordpools/wasnorm_wordpool.txt	LTP091	ltpFR	1	1	0	RAG	1160	n/a	0	0	0.5869140625	0.422607421875	lower	../fonts/zerothre.ttf
111257	WORD	wordpools/wasnorm_wordpool.txt	LTP091	ltpFR	1	1	0	DRESSER	496	n/a	1	0	0.5869140625	0.422607421875	lower	../fonts/zerothre.ttf
115435	WORD	wordpools/wasnorm_wordpool.txt	LTP091	ltpFR	1	1	1	BULLY	196	n/a	1	1	0.412841796875	0.57763671875	upper	../fonts/amplitud.ttf
119497	WORD	wordpools/wasnorm_wordpool.txt	LTP091	ltpFR	1	1	1	GIRL	637	n/a	1	1	0.412841796875	0.57763671875	upper	../fonts/amplitud.ttf
123627	WORD	wordpools/wasnorm_wordpool.txt	LTP091	ltpFR	1	1	0	JUG	762	n/a	0	0	0.5869140625	0.422607421875	lower	../fonts/zerothre.ttf
127613	WORD	wordpools/wasnorm_wordpool.txt	LTP091	ltpFR	1	1	0	FOOT	590	n/a	0	0	0.5869140625	0.422607421875	lower	../fonts/zerothre.ttf
131759	WORD	wordpools/wasnorm_wordpool.txt	LTP091	ltpFR	1	1	1	FRAME	600	n/a	0	1	0.412841796875	0.57763671875	upper	../fonts/amplitud.ttf
135688	WORD	wordpools/wasnorm_wordpool.txt	LTP091	ltpFR	1	1	1	BLENDER	136	n/a	0	1	0.412841796875	0.57763671875	upper	../fonts/amplitud.ttf
139891	WORD	wordpools/wasnorm_wordpool.txt	LTP091	ltpFR	1	1	1	SUBWAY	1400	n/a	0	1	0.412841796875	0.57763671875	upper	../fonts/amplitud.ttf
143895	WORD	wordpools/wasnorm_wordpool.txt	LTP091	ltpFR	1	1	1	ENGINEER	536	n/a	1	1	0.412841796875	0.57763671875	upper	../fonts/amplitud.ttf
149614	REC_START	n/a	LTP091	ltpFR	1	1	n/a	n/a	n/a	n/a	n/a	n/a	n/a	n/a	n/a	n/a
152038	REC_WORD	wordpools/wasnorm_wordpool.txt	LTP091	ltpFR	1	1	0	CHEDDAR	286	n/a	0	n/a	n/a	n/a	n/a	n/a
153640	REC_WORD	wordpools/wasnorm_wordpool.txt	LTP091	ltpFR	1	1	0	CHEESE	289	n/a	0	n/a	n/a	n/a	n/a	n/a
155301	REC_WORD	wordpools/wasnorm_wordpool.txt	LTP091	ltpFR	1	1	1	SUBWAY	1400	n/a	0	n/a	n/a	n/a	n/a	n/a
157077	REC_WORD	wordpools/wasnorm_wordpool.txt	LTP091	ltpFR	1	1	1	ENGINEER	536	n/a	1	n/a	n/a	n/a	n/a	n/a
158718	REC_WORD	wordpools/wasnorm_wordpool.txt	LTP091	ltpFR	1	1	0	WINE	1613	n/a	0	n/a	n/a	n/a	n/a	n/a
160314	REC_WORD	wordpools/wasnorm_wordpool.txt	LTP091	ltpFR	1	1	0	KNUCKLE	789	n/a	0	n/a	n/a	n/a	n/a	n/a
163657	REC_WORD	wordpools/wasnorm_wordpool.txt	LTP091	ltpFR	1	1	0	JUG	762	n/a	0	n/a	n/a	n/a	n/a	n/a
165148	REC_WORD	wordpools/wasnorm_wordpool.txt	LTP091	ltpFR	1	1	1	RUBY	1214	n/a	0	n/a	n/a	n/a	n/a	n/a
235337	WORD	wordpools/wasnorm_wordpool.txt	LTP091	ltpFR	1	2	0	GIRAFFE	636	n/a	1	0	0.5869140625	0.422607421875	lower	../fonts/zerothre.ttf
239508	WORD	wordpools/wasnorm_wordpool.txt	LTP091	ltpFR	1	2	0	FISH	571	n/a	0	0	0.5869140625	0.422607421875	lower	../fonts/zerothre.ttf
243662	WORD	wordpools/wasnorm_wordpool.txt	LTP091	ltpFR	1	2	1	CHAIN	273	n/a	0	1	0.412841796875	0.57763671875	upper	../fonts/amplitud.ttf
247515	WORD	wordpools/wasnorm_wordpool.txt	LTP091	ltpFR	1	2	1	STAPLER	1372	n/a	0	1	0.412841796875	0.57763671875	upper	../fonts/amplitud.ttf
251628	WORD	wordpools/wasnorm_wordpool.txt	LTP091	ltpFR	1	2	0	PRUNE	1134	n/a	0	0	0.5869140625	0.422607421875	lower	../fonts/zerothre.ttf
255648	WORD	wordpools/wasnorm_wordpool.txt	LTP091	ltpFR	1	2	0	COBBLER	335	n/a	0	0	0.5869140625	0.422607421875	lower	../fonts/zerothre.ttf
259852	WORD	wordpools/wasnorm_wordpool.txt	LTP091	ltpFR	1	2	0	FUR	615	n/a	0	0	0.5869140625	0.422607421875	lower	../fonts/zerothre.ttf
263988	WORD	wordpools/wasnorm_wordpool.txt	LTP091	ltpFR	1	2	0	FOLLOWER	589	n/a	0	0	0.5869140625	0.422607421875	lower	../fonts/zerothre.ttf
267926	WORD	wordpools/wasnorm_wordpool.txt	LTP091	ltpFR	1	2	0	DONKEY	484	n/a	0	0	0.5869140625	0.422607421875	lower	../fonts/zerothre.ttf
272029	WORD	wordpools/wasnorm_wordpool.txt	LTP091	ltpFR	1	2	0	SLIDE	1326	n/a	0	0	0.5869140625	0.422607421875	lower	../fonts/zerothre.ttf
276008	WORD	wordpools/wasnorm_wordpool.txt	LTP091	ltpFR	1	2	1	ATTORNEY	58	n/a	1	1	0.412841796875	0.57763671875	upper	../fonts/amplitud.ttf
280045	WORD	wordpools/wasnorm_wordpool.txt	LTP091	ltpFR	1	2	1	COD	340	n/a	1	1	0.412841796875	0.57763671875	upper	../fonts/amplitud.ttf
284082	WORD	wordpools/wasnorm_wordpool.txt	LTP091	ltpFR	1	2	1	GOOSE	649	n/a	1	1	0.412841796875	0.57763671875	upper	../fonts/amplitud.ttf
288276	WORD	wordpools/wasnorm_wordpool.txt	LTP091	ltpFR	1	2	1	POND	1101	n/a	0	1	0.412841796875	0.57763671875	upper	../fonts/amplitud.ttf
292388	WORD	wordpools/wasnorm_wordpool.txt	LTP091	ltpFR	1	2	1	ROOM	1206	n/a	0	1	0.412841796875	0.57763671875	upper	../fonts/amplitud.ttf
296383	WORD	wordpools/wasnorm_wordpool.txt	LTP091	ltpFR	1	2	1	RULER	1216	n/a	0	1	0.412841796875	0.57763671875	upper	../fonts/amplitud.ttf
301920	REC_START	n/a	LTP091	ltpFR	1	2	n/a	n/a	n/a	n/a	n/a	n/a	n/a	n/a	n/a	n/a
303142	REC_WORD	wordpools/wasnorm_wordpool.txt	LTP091	ltpFR	1	2	1	RULER	1216	n/a	0	n/a	n/a	n/a	n/a	n/a
305507	REC_WORD	wordpools/wasnorm_wordpool.txt	LTP091	ltpFR	1	2	0	GIRAFFE	636	n/a	1	n/a	n/a	n/a	n/a	n/a
307218	REC_WORD	wordpools/wasnorm_wordpool.txt	LTP091	ltpFR	1	2	0	DONKEY	484	n/a	0	n/a	n/a	n/a	n/a	n/a
308819	REC_WORD	wordpools/wasnorm_wordpool.txt	LTP091	ltpFR	1	2	0	FISH	571	n/a	0	n/a	n/a	n/a	n/a	n/a
310605	REC_WORD	wordpools/wasnorm_wordpool.txt	LTP091	ltpFR	1	2	1	POND	1101	n/a	0	n/a	n/a	n/a	n/a	n/a
337983	REC_WORD	wordpools/wasnorm_wordpool.txt	LTP091	ltpFR	1	2	0	COBBLER	335	n/a	0	n/a	n/a	n/a	n/a	n/a
339744	REC_WORD	wordpools/wasnorm_wordpool.txt	LTP091	ltpFR	1	2	0	FUR	615	n/a	0	n/a	n/a	n/a	n/a	n/a
382684	WORD	wordpools/wasnorm_wordpool.txt	LTP091	ltpFR	1	3	0	VESSEL	1558	n/a	1	0	0.5869140625	0.422607421875	lower	../fonts/zerothre.ttf
386804	WORD	wordpools/wasnorm_wordpool.txt	LTP091	ltpFR	1	3	0	SAILOR	1223	n/a	0	0	0.5869140625	0.422607421875	lower	../fonts/zerothre.ttf
390974	WORD	wordpools/wasnorm_wordpool.txt	LTP091	ltpFR	1	3	0	SALMON	1227	n/a	0	0	0.5869140625	0.422607421875	lower	../fonts/zerothre.ttf
395120	WORD	wordpools/wasnorm_wordpool.txt	LTP091	ltpFR	1	3	0	STAR	1373	n/a	1	0	0.5869140625	0.422607421875	lower	../fonts/zerothre.ttf
399015	WORD	wordpools/wasnorm_wordpool.txt	LTP091	ltpFR	1	3	0	FILM	565	n/a	1	0	0.5869140625	0.422607421875	lower	../fonts/zerothre.ttf
403184	WORD	wordpools/wasnorm_wordpool.txt	LTP091	ltpFR	1	3	1	FAMILY	550	n/a	1	1	0.412841796875	0.57763671875	upper	../fonts/amplitud.ttf
407304	WORD	wordpools/wasnorm_wordpool.txt	LTP091	ltpFR	1	3	1	WORM	1623	n/a	1	1	0.412841796875	0.57763671875	upper	../fonts/amplitud.ttf
411283	WORD	wordpools/wasnorm_wordpool.txt	LTP091	ltpFR	1	3	1	MEAL	882	n/a	0	1	0.412841796875	0.57763671875	upper	../fonts/amplitud.ttf
415163	WORD	wordpools/wasnorm_wordpool.txt	LTP091	ltpFR	1	3	1	WOLF	1619	n/a	1	1	0.412841796875	0.57763671875	upper	../fonts/amplitud.ttf
419199	WORD	wordpools/wasnorm_wordpool.txt	LTP091	ltpFR	1	3	1	HERD	705	n/a	0	1	0.412841796875	0.57763671875	upper	../fonts/amplitud.ttf
423079	WORD	wordpools/wasnorm_wordpool.txt	LTP091	ltpFR	1	3	1	STEAM	1375	n/a	0	1	0.412841796875	0.57763671875	upper	../fonts/amplitud.ttf
427008	WORD	wordpools/wasnorm_wordpool.txt	LTP091	ltpFR	1	3	0	MALL	860	n/a	1	0	0.5869140625	0.422607421875	lower	../fonts/zerothre.ttf
430920	WORD	wordpools/wasnorm_wordpool.txt	LTP091	ltpFR	1	3	0	OINTMENT	974	n/a	1	0	0.5869140625	0.422607421875	lower	../fonts/zerothre.ttf
435048	WORD	wordpools/wasnorm_wordpool.txt	LTP091	ltpFR	1	3	0	BANDAGE	79	n/a	0	0	0.5869140625	0.422607421875	lower	../fonts/zerothre.ttf
438927	WORD	wordpools/wasnorm_wordpool.txt	LTP091	ltpFR	1	3	1	CHICKEN	297	n/a	1	1	0.412841796875	0.57763671875	upper	../fonts/amplitud.ttf
442922	WORD	wordpools/wasnorm_wordpool.txt	LTP091	ltpFR	1	3	1	DEPARTMENT	449	n/a	0	1	0.412841796875	0.57763671875	upper	../fonts/amplitud.ttf
448725	REC_START	n/a	LTP091	ltpFR	1	3	n/a	n/a	n/a	n/a	n/a	n/a	n/a	n/a	n/a	n/a
449688	REC_WORD	wordpools/wasnorm_wordpool.txt	LTP091	ltpFR	1	3	1	DEPARTMENT	449	n/a	0	n/a	n/a	n/a	n/a	n/a
451374	REC_WORD	wordpools/wasnorm_wordpool.txt	LTP091	ltpFR	1	3	1	CHICKEN	297	n/a	1	n/a	n/a	n/a	n/a	n/a
453060	REC_WORD	wordpools/wasnorm_wordpool.txt	LTP091	ltpFR	1	3	1	WOLF	1619	n/a	1	n/a	n/a	n/a	n/a	n/a
454656	REC_WORD	wordpools/wasnorm_wordpool.txt	LTP091	ltpFR	1	3	1	HERD	705	n/a	0	n/a	n/a	n/a	n/a	n/a
456487	REC_WORD	wordpools/wasnorm_wordpool.txt	LTP091	ltpFR	1	3	0	MALL	860	n/a	1	n/a	n/a	n/a	n/a	n/a
482074	REC_WORD	wordpools/wasnorm_wordpool.txt	LTP091	ltpFR	1	3	1	COD	340	n/a	1	n/a	n/a	n/a	n/a	n/a
527715	WORD	wordpools/wasnorm_wordpool.txt	LTP091	ltpFR	1	4	0	BIOLOGIST	128	n/a	0	0	0.5869140625	0.422607421875	lower	../fonts/zerothre.ttf
531653	WORD	wordpools/wasnorm_wordpool.txt	LTP091	ltpFR	1	4	0	FUNGUS	614	n/a	0	0	0.5869140625	0.422607421875	lower	../fonts/zerothre.ttf
535706	WORD	wordpools/wasnorm_wordpool.txt	LTP091	ltpFR	1	4	0	GRAPE	654	n/a	0	0	0.5869140625	0.422607421875	lower	../fonts/zerothre.ttf
539851	WORD	wordpools/wasnorm_wordpool.txt	LTP091	ltpFR	1	4	0	TOOTHPASTE	1483	n/a	0	0	0.5869140625	0.422607421875	lower	../fonts/zerothre.ttf
543689	WORD	wordpools/wasnorm_wordpool.txt	LTP091	ltpFR	1	4	0	TOOTHBRUSH	1482	n/a	0	0	0.5869140625	0.422607421875	lower	../fonts/zerothre.ttf
547508	WORD	wordpools/wasnorm_wordpool.txt	LTP091	ltpFR	1	4	0	DEER	444	n/a	0	0	0.5869140625	0.422607421875	lower	../fonts/zerothre.ttf
551354	WORD	wordpools/wasnorm_wordpool.txt	LTP091	ltpFR	1	4	0	SOLDIER	1344	n/a	0	0	0.5869140625	0.422607421875	lower	../fonts/zerothre.ttf
555332	WORD	wordpools/wasnorm_wordpool.txt	LTP091	ltpFR	1	4	0	LIMB	822	n/a	0	0	0.5869140625	0.422607421875	lower	../fonts/zerothre.ttf
559295	WORD	wordpools/wasnorm_wordpool.txt	LTP091	ltpFR	1	4	0	SHELL	1281	n/a	0	0	0.5869140625	0.422607421875	lower	../fonts/zerothre.ttf
563423	WORD	wordpools/wasnorm_wordpool.txt	LTP091	ltpFR	1	4	0	SEASHORE	1263	n/a	1	0	0.5869140625	0.422607421875	lower	../fonts/zerothre.ttf
567493	WORD	wordpools/wasnorm_wordpool.txt	LTP091	ltpFR	1	4	0	LIME	823	n/a	0	0	0.5869140625	0.422607421875	lower	../fonts/zerothre.ttf
571639	WORD	wordpools/wasnorm_wordpool.txt	LTP091	ltpFR	1	4	0	STABLE	1363	n/a	1	0	0.5869140625	0.422607421875	lower	../fonts/zerothre.ttf
575685	WORD	wordpools/wasnorm_wordpool.txt	LTP091	ltpFR	1	4	0	APPENDAGE	32	n/a	0	0	0.5869140625	0.422607421875	lower	../fonts/zerothre.ttf
579538	WORD	wordpools/wasnorm_wordpool.txt	LTP091	ltpFR	1	4	0	BOTTLE	153	n/a	0	0	0.5869140625	0.422607421875	lower	../fonts/zerothre.ttf
583425	WORD	wordpools/wasnorm_wordpool.txt	LTP091	ltpFR	1	4	0	BLUEBERRY	140	n/a	0	0	0.5869140625	0.422607421875	lower	../fonts/zerothre.ttf
587478	WORD	wordpools/wasnorm_wordpool.txt	LTP091	ltpFR	1	4	0	CLOSET	326	n/a	0	0	0.5869140625	0.422607421875	lower	../fonts/zerothre.ttf
593356	REC_START	n/a	LTP091	ltpFR	1	4	n/a	n/a	n/a	n/a	n/a	n/a	n/a	n/a	n/a	n/a
595941	REC_WORD	wordpools/wasnorm_wordpool.txt	LTP091	ltpFR	1	4	0	CLOSET	326	n/a	0	n/a	n/a	n/a	n/a	n/a
597666	REC_WORD	wordpools/wasnorm_wordpool.txt	LTP091	ltpFR	1	4	0	SOLDIER	1344	n/a	0	n/a	n/a	n/a	n/a	n/a
603707	REC_WORD	wordpools/wasnorm_wordpool.txt	LTP091	ltpFR	1	4	0	SEASHORE	1263	n/a	1	n/a	n/a	n/a	n/a	n/a
605264	REC_WORD_VV	wordpools/wasnorm_wordpool.txt	LTP091	ltpFR	1	4	n/a	<>	-1	n/a	n/a	n/a	n/a	n/a	n/a	n/a
606052	REC_WORD	wordpools/wasnorm_wordpool.txt	LTP091	ltpFR	1	4	0	SHELL	1281	n/a	0	n/a	n/a	n/a	n/a	n/a
607798	REC_WORD	wordpools/wasnorm_wordpool.txt	LTP091	ltpFR	1	4	0	TOOTHPASTE	1483	n/a	0	n/a	n/a	n/a	n/a	n/a
609793	REC_WORD	wordpools/wasnorm_wordpool.txt	LTP091	ltpFR	1	4	0	TOOTHBRUSH	1482	n/a	0	n/a	n/a	n/a	n/a	n/a
629683	REC_WORD	wordpools/wasnorm_wordpool.txt	LTP091	ltpFR	1	4	0	BIOLOGIST	128	n/a	0	n/a	n/a	n/a	n/a	n/a
631065	REC_WORD	wordpools/wasnorm_wordpool.txt	LTP091	ltpFR	1	4	0	FUNGUS	614	n/a	0	n/a	n/a	n/a	n/a	n/a
672722	WORD	wordpools/wasnorm_wordpool.txt	LTP091	ltpFR	1	5	1	VALLEY	1545	n/a	0	1	0.412841796875	0.57763671875	upper	../fonts/amplitud.ttf
676817	WORD	wordpools/wasnorm_wordpool.txt	LTP091	ltpFR	1	5	1	FURNITURE	616	n/a	0	1	0.412841796875	0.57763671875	upper	../fonts/amplitud.ttf
680663	WORD	wordpools/wasnorm_wordpool.txt	LTP091	ltpFR	1	5	1	PADDING	999	n/a	0	1	0.412841796875	0.57763671875	upper	../fonts/amplitud.ttf
684625	WORD	wordpools/wasnorm_wordpool.txt	LTP091	ltpFR	1	5	1	BROOK	177	n/a	0	1	0.412841796875	0.57763671875	upper	../fonts/amplitud.ttf
688494	WORD	wordpools/wasnorm_wordpool.txt	LTP091	ltpFR	1	5	1	RIVER	1194	n/a	0	1	0.412841796875	0.57763671875	upper	../fonts/amplitud.ttf
692307	WORD	wordpools/wasnorm_wordpool.txt	LTP091	ltpFR	1	5	1	BUGGY	188	n/a	0	1	0.412841796875	0.57763671875	upper	../fonts/amplitud.ttf
696120	WORD	wordpools/wasnorm_wordpool.txt	LTP091	ltpFR	1	5	1	DRAWER	493	n/a	0	1	0.412841796875	0.57763671875	upper	../fonts/amplitud.ttf
700140	WORD	wordpools/wasnorm_wordpool.txt	LTP091	ltpFR	1	5	1	CLIMBER	323	n/a	1	1	0.412841796875	0.57763671875	upper	../fonts/amplitud.ttf
703986	WORD	wordpools/wasnorm_wordpool.txt	LTP091	ltpFR	1	5	1	BASSINET	97	n/a	0	1	0.412841796875	0.57763671875	upper	../fonts/amplitud.ttf
708064	WORD	wordpools/wasnorm_wordpool.txt	LTP091	ltpFR	1	5	1	TOE	1473	n/a	1	1	0.412841796875	0.57763671875	upper	../fonts/amplitud.ttf
711993	WORD	wordpools/wasnorm_wordpool.txt	LTP091	ltpFR	1	5	1	CABINET	212	n/a	0	1	0.412841796875	0.57763671875	upper	../fonts/amplitud.ttf
716122	WORD	wordpools/wasnorm_wordpool.txt	LTP091	ltpFR	1	5	1	HOSTAGE	722	n/a	0	1	0.412841796875	0.57763671875	upper	../fonts/amplitud.ttf
720059	WORD	wordpools/wasnorm_wordpool.txt	LTP091	ltpFR	1	5	1	BOYFRIEND	162	n/a	1	1	0.412841796875	0.57763671875	upper	../fonts/amplitud.ttf
723946	WORD	wordpools/wasnorm_wordpool.txt	LTP091	ltpFR	1	5	1	DORM	488	n/a	0	1	0.412841796875	0.57763671875	upper	../fonts/amplitud.ttf
727841	WORD	wordpools/wasnorm_wordpool.txt	LTP091	ltpFR	1	5	1	DIPLOMA	470	n/a	0	1	0.412841796875	0.57763671875	upper	../fonts/amplitud.ttf
731679	WORD	wordpools/wasnorm_wordpool.txt	LTP091	ltpFR	1	5	1	ADULT	8	n/a	1	1	0.412841796875	0.57763671875	upper	../fonts/amplitud.ttf
737580	REC_START	n/a	LTP091	ltpFR	1	5	n/a	n/a	n/a	n/a	n/a	n/a	n/a	n/a	n/a	n/a
739117	REC_WORD	wordpools/wasnorm_wordpool.txt	LTP091	ltpFR	1	5	1	DORM	488	n/a	0	n/a	n/a	n/a	n/a	n/a
740230	REC_WORD	wordpools/wasnorm_wordpool.txt	LTP091	ltpFR	1	5	1	BOYFRIEND	162	n/a	1	n/a	n/a	n/a	n/a	n/a
742129	REC_WORD	wordpools/wasnorm_wordpool.txt	LTP091	ltpFR	1	5	1	ADULT	8	n/a	1	n/a	n/a	n/a	n/a	n/a
758896	REC_WORD	wordpools/wasnorm_wordpool.txt	LTP091	ltpFR	1	5	1	VALLEY	1545	n/a	0	n/a	n/a	n/a	n/a	n/a
765072	REC_WORD_VV	wordpools/wasnorm_wordpool.txt	LTP091	ltpFR	1	5	n/a	<>	-1	n/a	n/a	n/a	n/a	n/a	n/a	n/a
767821	REC_WORD	wordpools/wasnorm_wordpool.txt	LTP091	ltpFR	1	5	1	BROOK	177	n/a	0	n/a	n/a	n/a	n/a	n/a
769492	REC_WORD	wordpools/wasnorm_wordpool.txt	LTP091	ltpFR	1	5	n/a	STREAM	1392	n/a	n/a	n/a	n/a	n/a	n/a	n/a
772640	REC_WORD	wordpools/wasnorm_wordpool.txt	LTP091	ltpFR	1	5	1	RIVER	1194	n/a	0	n/a	n/a	n/a	n/a	n/a
802253	REC_WORD	wordpools/wasnorm_wordpool.txt	LTP091	ltpFR	1	5	1	FURNITURE	616	n/a	0	n/a	n/a	n/a	n/a	n/a
803236	REC_WORD	wordpools/wasnorm_wordpool.txt	LTP091	ltpFR	1	5	1	PADDING	999	n/a	0	n/a	n/a	n/a	n/a	n/a
816229	WORD	wordpools/wasnorm_wordpool.txt	LTP091	ltpFR	1	6	-1	HAWK	692	n/a	-1	1	1.0	1.0	upper	../fonts/Verdana.ttf
820408	WORD	wordpools/wasnorm_wordpool.txt	LTP091	ltpFR	1	6	-1	CANARY	227	n/a	-1	1	1.0	1.0	upper	../fonts/Verdana.ttf
824287	WORD	wordpools/wasnorm_wordpool.txt	LTP091	ltpFR	1	6	-1	ANTEATER	26	n/a	-1	1	1.0	1.0	upper	../fonts/Verdana.ttf
828390	WORD	wordpools/wasnorm_wordpool.txt	LTP091	ltpFR	1	6	-1	BOWL	158	n/a	-1	1	1.0	1.0	upper	../fonts/Verdana.ttf
832352	WORD	wordpools/wasnorm_wordpool.txt	LTP091	ltpFR	1	6	-1	CUSTOMER	430	n/a	-1	1	1.0	1.0	upper	../fonts/Verdana.ttf
836531	WORD	wordpools/wasnorm_wordpool.txt	LTP091	ltpFR	1	6	-1	HOE	711	n/a	-1	1	1.0	1.0	upper	../fonts/Verdana.ttf
840644	WORD	wordpools/wasnorm_wordpool.txt	LTP091	ltpFR	1	6	-1	OATS	968	n/a	-1	1	1.0	1.0	upper	../fonts/Verdana.ttf
844831	WORD	wordpools/wasnorm_wordpool.txt	LTP091	ltpFR	1	6	-1	KITTEN	780	n/a	-1	1	1.0	1.0	upper	../fonts/Verdana.ttf
848718	WORD	wordpools/wasnorm_wordpool.txt	LTP091	ltpFR	1	6	-1	BULLET	194	n/a	-1	1	1.0	1.0	upper	../fonts/Verdana.ttf
852921	WORD	wordpools/wasnorm_wordpool.txt	LTP091	ltpFR	1	6	-1	MOB	904	n/a	-1	1	1.0	1.0	upper	../fonts/Verdana.ttf
856817	WORD	wordpools/wasnorm_wordpool.txt	LTP091	ltpFR	1	6	-1	CART	250	n/a	-1	1	1.0	1.0	upper	../fonts/Verdana.ttf
860662	WORD	wordpools/wasnorm_wordpool.txt	LTP091	ltpFR	1	6	-1	STALLION	1369	n/a	-1	1	1.0	1.0	upper	../fonts/Verdana.ttf
864641	WORD	wordpools/wasnorm_wordpool.txt	LTP091	ltpFR	1	6	-1	JOINT	758	n/a	-1	1	1.0	1.0	upper	../fonts/Verdana.ttf
868527	WORD	wordpools/wasnorm_wordpool.txt	LTP091	ltpFR	1	6	-1	MOOSE	915	n/a	-1	1	1.0	1.0	upper	../fonts/Verdana.ttf
872373	WORD	wordpools/wasnorm_wordpool.txt	LTP091	ltpFR	1	6	-1	COMMANDER	354	n/a	-1	1	1.0	1.0	upper	../fonts/Verdana.ttf
876360	WORD	wordpools/wasnorm_wordpool.txt	LTP091	ltpFR	1	6	-1	ELBOW	520	n/a	-1	1	1.0	1.0	upper	../fonts/Verdana.ttf
882311	REC_START	n/a	LTP091	ltpFR	1	6	n/a	n/a	n/a	n/a	n/a	n/a	n/a	n/a	n/a	n/a
885039	REC_WORD	wordpools/wasnorm_wordpool.txt	LTP091	ltpFR	1	6	-1	ELBOW	520	n/a	-1	n/a	n/a	n/a	n/a	n/a
887474	REC_WORD	wordpools/wasnorm_wordpool.txt	LTP091	ltpFR	1	6	-1	MOB	904	n/a	-1	n/a	n/a	n/a	n/a	n/a
888856	REC_WORD	wordpools/wasnorm_wordpool.txt	LTP091	ltpFR	1	6	-1	BULLET	194	n/a	-1	n/a	n/a	n/a	n/a	n/a
890243	REC_WORD	wordpools/wasnorm_wordpool.txt	LTP091	ltpFR	1	6	-1	HOE	711	n/a	-1	n/a	n/a	n/a	n/a	n/a
891714	REC_WORD	wordpools/wasnorm_wordpool.txt	LTP091	ltpFR	1	6	-1	KITTEN	780	n/a	-1	n/a	n/a	n/a	n/a	n/a
896304	REC_WORD	wordpools/wasnorm_wordpool.txt	LTP091	ltpFR	1	6	-1	HAWK	692	n/a	-1	n/a	n/a	n/a	n/a	n/a
900884	REC_WORD	wordpools/wasnorm_wordpool.txt	LTP091	ltpFR	1	6	-1	CANARY	227	n/a	-1	n/a	n/a	n/a	n/a	n/a
905214	REC_WORD	wordpools/wasnorm_wordpool.txt	LTP091	ltpFR	1	6	-1	COMMANDER	354	n/a	-1	n/a	n/a	n/a	n/a	n/a
961378	WORD	wordpools/wasnorm_wordpool.txt	LTP091	ltpFR	1	7	0	HOOD	714	n/a	0	0	0.5869140625	0.422607421875	lower	../fonts/zerothre.ttf
965340	WORD	wordpools/wasnorm_wordpool.txt	LTP091	ltpFR	1	7	0	FREEWAY	603	n/a	1	0	0.5869140625	0.422607421875	lower	../fonts/zerothre.ttf
969402	WORD	wordpools/wasnorm_wordpool.txt	LTP091	ltpFR	1	7	0	DISC	473	n/a	0	0	0.5869140625	0.422607421875	lower	../fonts/zerothre.ttf
973522	WORD	wordpools/wasnorm_wordpool.txt	LTP091	ltpFR	1	7	0	JACKET	747	n/a	0	0	0.5869140625	0.422607421875	lower	../fonts/zerothre.ttf
977500	WORD	wordpools/wasnorm_wordpool.txt	LTP091	ltpFR	1	7	0	SKUNK	1321	n/a	0	0	0.5869140625	0.422607421875	lower	../fonts/zerothre.ttf
981379	WORD	wordpools/wasnorm_wordpool.txt	LTP091	ltpFR	1	7	0	PAINTER	1004	n/a	0	0	0.5869140625	0.422607421875	lower	../fonts/zerothre.ttf
985574	WORD	wordpools/wasnorm_wordpool.txt	LTP091	ltpFR	1	7	0	DRAWING	494	n/a	0	0	0.5869140625	0.422607421875	lower	../fonts/zerothre.ttf
989545	WORD	wordpools/wasnorm_wordpool.txt	LTP091	ltpFR	1	7	0	MARINE	869	n/a	0	0	0.5869140625	0.422607421875	lower	../fonts/zerothre.ttf
993666	WORD	wordpools/wasnorm_wordpool.txt	LTP091	ltpFR	1	7	0	SHIP	1286	n/a	1	0	0.5869140625	0.422607421875	lower	../fonts/zerothre.ttf
997678	WORD	wordpools/wasnorm_wordpool.txt	LTP091	ltpFR	1	7	0	BUTTERFLY	206	n/a	0	0	0.5869140625	0.422607421875	lower	../fonts/zerothre.ttf
1001748	WORD	wordpools/wasnorm_wordpool.txt	LTP091	ltpFR	1	7	0	PIGEON	1065	n/a	0	0	0.5869140625	0.422607421875	lower	../fonts/zerothre.ttf
1005610	WORD	wordpools/wasnorm_wordpool.txt	LTP091	ltpFR	1	7	0	VOLCANO	1575	n/a	1	0	0.5869140625	0.422607421875	lower	../fonts/zerothre.ttf
1009606	WORD	wordpools/wasnorm_wordpool.txt	LTP091	ltpFR	1	7	0	TOENAIL	1474	n/a	0	0	0.5869140625	0.422607421875	lower	../fonts/zerothre.ttf
1013793	WORD	wordpools/wasnorm_wordpool.txt	LTP091	ltpFR	1	7	0	CENT	270	n/a	0	0	0.5869140625	0.422607421875	lower	../fonts/zerothre.ttf
1017938	WORD	wordpools/wasnorm_wordpool.txt	LTP091	ltpFR	1	7	0	BOUQUET	157	n/a	0	0	0.5869140625	0.422607421875	lower	../fonts/zerothre.ttf
1022000	WORD	wordpools/wasnorm_wordpool.txt	LTP091	ltpFR	1	7	0	LIMOUSINE	824	n/a	1	0	0.5869140625	0.422607421875	lower	../fonts/zerothre.ttf
1027985	REC_START	n/a	LTP091	ltpFR	1	7	n/a	n/a	n/a	n/a	n/a	n/a	n/a	n/a	n/a	n/a
1028948	REC_WORD	wordpools/wasnorm_wordpool.txt	LTP091	ltpFR	1	7	0	MARINE	869	n/a	0	n/a	n/a	n/a	n/a	n/a
1030525	REC_WORD	wordpools/wasnorm_wordpool.txt	LTP091	ltpFR	1	7	0	LIMOUSINE	824	n/a	1	n/a	n/a	n/a	n/a	n/a
1046473	REC_WORD	wordpools/wasnorm_wordpool.txt	LTP091	ltpFR	1	7	n/a	FINGERNAIL	568	n/a	n/a	n/a	n/a	n/a	n/a	n/a
1116856	WORD	wordpools/wasnorm_wordpool.txt	LTP091	ltpFR	1	8	0	BRACES	164	n/a	0	0	0.5869140625	0.422607421875	lower	../fonts/zerothre.ttf
1120993	WORD	wordpools/wasnorm_wordpool.txt	LTP091	ltpFR	1	8	0	TUBE	1516	n/a	0	0	0.5869140625	0.422607421875	lower	../fonts/zerothre.ttf
1124839	WORD	wordpools/wasnorm_wordpool.txt	LTP091	ltpFR	1	8	1	PROFESSOR	1131	n/a	1	1	0.412841796875	0.57763671875	upper	../fonts/amplitud.ttf
1128876	WORD	wordpools/wasnorm_wordpool.txt	LTP091	ltpFR	1	8	1	TERMINAL	1450	n/a	1	1	0.412841796875	0.57763671875	upper	../fonts/amplitud.ttf
1132704	WORD	wordpools/wasnorm_wordpool.txt	LTP091	ltpFR	1	8	0	JET	756	n/a	1	0	0.5869140625	0.422607421875	lower	../fonts/zerothre.ttf
1136683	WORD	wordpools/wasnorm_wordpool.txt	LTP091	ltpFR	1	8	0	BACON	67	n/a	0	0	0.5869140625	0.422607421875	lower	../fonts/zerothre.ttf
1140828	WORD	wordpools/wasnorm_wordpool.txt	LTP091	ltpFR	1	8	0	SPATULA	1348	n/a	0	0	0.5869140625	0.422607421875	lower	../fonts/zerothre.ttf
1144740	WORD	wordpools/wasnorm_wordpool.txt	LTP091	ltpFR	1	8	1	ROOST	1208	n/a	1	1	0.412841796875	0.57763671875	upper	../fonts/amplitud.ttf
1148669	WORD	wordpools/wasnorm_wordpool.txt	LTP091	ltpFR	1	8	1	SOFA	1342	n/a	0	1	0.412841796875	0.57763671875	upper	../fonts/amplitud.ttf
1152731	WORD	wordpools/wasnorm_wordpool.txt	LTP091	ltpFR	1	8	1	DRYER	503	n/a	0	1	0.412841796875	0.57763671875	upper	../fonts/amplitud.ttf
1156852	WORD	wordpools/wasnorm_wordpool.txt	LTP091	ltpFR	1	8	1	SHOULDER	1294	n/a	1	1	0.412841796875	0.57763671875	upper	../fonts/amplitud.ttf
1160930	WORD	wordpools/wasnorm_wordpool.txt	LTP091	ltpFR	1	8	1	MAID	856	n/a	1	1	0.412841796875	0.57763671875	upper	../fonts/amplitud.ttf
1164934	WORD	wordpools/wasnorm_wordpool.txt	LTP091	ltpFR	1	8	1	ANIMAL	23	n/a	1	1	0.412841796875	0.57763671875	upper	../fonts/amplitud.ttf
1168921	WORD	wordpools/wasnorm_wordpool.txt	LTP091	ltpFR	1	8	0	CUSHION	428	n/a	0	0	0.5869140625	0.422607421875	lower	../fonts/zerothre.ttf
1172875	WORD	wordpools/wasnorm_wordpool.txt	LTP091	ltpFR	1	8	0	PENGUIN	1044	n/a	0	0	0.5869140625	0.422607421875	lower	../fonts/zerothre.ttf
1176820	WORD	wordpools/wasnorm_wordpool.txt	LTP091	ltpFR	1	8	0	ZEBRA	1635	n/a	0	0	0.5869140625	0.422607421875	lower	../fonts/zerothre.ttf
1182672	REC_START	n/a	LTP091	ltpFR	1	8	n/a	n/a	n/a	n/a	n/a	n/a	n/a	n/a	n/a	n/a
1182677	REC_WORD	wordpools/wasnorm_wordpool.txt	LTP091	ltpFR	1	8	n/a	[???]	-1	n/a	n/a	n/a	n/a	n/a	n/a	n/a
1184104	REC_WORD	wordpools/wasnorm_wordpool.txt	LTP091	ltpFR	1	8	1	ANIMAL	23	n/a	1	n/a	n/a	n/a	n/a	n/a
1184902	REC_WORD	wordpools/wasnorm_wordpool.txt	LTP091	ltpFR	1	8	0	ZEBRA	1635	n/a	0	n/a	n/a	n/a	n/a	n/a
1186299	REC_WORD	wordpools/wasnorm_wordpool.txt	LTP091	ltpFR	1	8	1	TERMINAL	1450	n/a	1	n/a	n/a	n/a	n/a	n/a
1187546	REC_WORD	wordpools/wasnorm_wordpool.txt	LTP091	ltpFR	1	8	0	JET	756	n/a	1	n/a	n/a	n/a	n/a	n/a
1189312	REC_WORD	wordpools/wasnorm_wordpool.txt	LTP091	ltpFR	1	8	1	PROFESSOR	1131	n/a	1	n/a	n/a	n/a	n/a	n/a
1191103	REC_WORD	wordpools/wasnorm_wordpool.txt	LTP091	ltpFR	1	8	0	BRACES	164	n/a	0	n/a	n/a	n/a	n/a	n/a
1194470	REC_WORD	wordpools/wasnorm_wordpool.txt	LTP091	ltpFR	1	8	0	TUBE	1516	n/a	0	n/a	n/a	n/a	n/a	n/a
1264226	WORD	wordpools/wasnorm_wordpool.txt	LTP091	ltpFR	1	9	-1	DOLL	481	n/a	-1	1	1.0	1.0	upper	../fonts/Verdana.ttf
1268204	WORD	wordpools/wasnorm_wordpool.txt	LTP091	ltpFR	1	9	-1	BIRD	129	n/a	-1	1	1.0	1.0	upper	../fonts/Verdana.ttf
1272101	WORD	wordpools/wasnorm_wordpool.txt	LTP091	ltpFR	1	9	-1	SPARROW	1347	n/a	-1	1	1.0	1.0	upper	../fonts/Verdana.ttf
1276055	WORD	wordpools/wasnorm_wordpool.txt	LTP091	ltpFR	1	9	-1	CREVICE	405	n/a	-1	1	1.0	1.0	upper	../fonts/Verdana.ttf
1280207	WORD	wordpools/wasnorm_wordpool.txt	LTP091	ltpFR	1	9	-1	BIBLE	124	n/a	-1	1	1.0	1.0	upper	../fonts/Verdana.ttf
1284062	WORD	wordpools/wasnorm_wordpool.txt	LTP091	ltpFR	1	9	-1	WRITER	1627	n/a	-1	1	1.0	1.0	upper	../fonts/Verdana.ttf
1287908	WORD	wordpools/wasnorm_wordpool.txt	LTP091	ltpFR	1	9	-1	JEANS	752	n/a	-1	1	1.0	1.0	upper	../fonts/Verdana.ttf
1291911	WORD	wordpools/wasnorm_wordpool.txt	LTP091	ltpFR	1	9	-1	CHARCOAL	281	n/a	-1	1	1.0	1.0	upper	../fonts/Verdana.ttf
1296065	WORD	wordpools/wasnorm_wordpool.txt	LTP091	ltpFR	1	9	-1	SPACE	1345	n/a	-1	1	1.0	1.0	upper	../fonts/Verdana.ttf
1300127	WORD	wordpools/wasnorm_wordpool.txt	LTP091	ltpFR	1	9	-1	SIRLOIN	1311	n/a	-1	1	1.0	1.0	upper	../fonts/Verdana.ttf
1304014	WORD	wordpools/wasnorm_wordpool.txt	LTP091	ltpFR	1	9	-1	COURSE	390	n/a	-1	1	1.0	1.0	upper	../fonts/Verdana.ttf
1308216	WORD	wordpools/wasnorm_wordpool.txt	LTP091	ltpFR	1	9	-1	CIGARETTE	309	n/a	-1	1	1.0	1.0	upper	../fonts/Verdana.ttf
1312154	WORD	wordpools/wasnorm_wordpool.txt	LTP091	ltpFR	1	9	-1	GRILL	661	n/a	-1	1	1.0	1.0	upper	../fonts/Verdana.ttf
1316240	WORD	wordpools/wasnorm_wordpool.txt	LTP091	ltpFR	1	9	-1	POTATO	1115	n/a	-1	1	1.0	1.0	upper	../fonts/Verdana.ttf
1320261	WORD	wordpools/wasnorm_wordpool.txt	LTP091	ltpFR	1	9	-1	EYELASH	546	n/a	-1	1	1.0	1.0	upper	../fonts/Verdana.ttf
1324281	WORD	wordpools/wasnorm_wordpool.txt	LTP091	ltpFR	1	9	-1	NOSE	957	n/a	-1	1	1.0	1.0	upper	../fonts/Verdana.ttf
1330143	REC_START	n/a	LTP091	ltpFR	1	9	n/a	n/a	n/a	n/a	n/a	n/a	n/a	n/a	n/a	n/a
1331270	REC_WORD	wordpools/wasnorm_wordpool.txt	LTP091	ltpFR	1	9	-1	NOSE	957	n/a	-1	n/a	n/a	n/a	n/a	n/a
1332712	REC_WORD	wordpools/wasnorm_wordpool.txt	LTP091	ltpFR	1	9	-1	EYELASH	546	n/a	-1	n/a	n/a	n/a	n/a	n/a
1334298	REC_WORD	wordpools/wasnorm_wordpool.txt	LTP091	ltpFR	1	9	-1	JEANS	752	n/a	-1	n/a	n/a	n/a	n/a	n/a
1335466	REC_WORD	wordpools/wasnorm_wordpool.txt	LTP091	ltpFR	1	9	-1	CHARCOAL	281	n/a	-1	n/a	n/a	n/a	n/a	n/a
1336957	REC_WORD	wordpools/wasnorm_wordpool.txt	LTP091	ltpFR	1	9	-1	POTATO	1115	n/a	-1	n/a	n/a	n/a	n/a	n/a
1339671	REC_WORD	wordpools/wasnorm_wordpool.txt	LTP091	ltpFR	1	9	-1	GRILL	661	n/a	-1	n/a	n/a	n/a	n/a	n/a
1412262	WORD	wordpools/wasnorm_wordpool.txt	LTP091	ltpFR	1	10	0	OVAL	990	n/a	0	0	0.5869140625	0.422607421875	lower	../fonts/zerothre.ttf
1416117	WORD	wordpools/wasnorm_wordpool.txt	LTP091	ltpFR	1	10	0	CUBE	420	n/a	0	0	0.5869140625	0.422607421875	lower	../fonts/zerothre.ttf
1420037	WORD	wordpools/wasnorm_wordpool.txt	LTP091	ltpFR	1	10	0	GAZELLE	628	n/a	0	0	0.5869140625	0.422607421875	lower	../fonts/zerothre.ttf
1424116	WORD	wordpools/wasnorm_wordpool.txt	LTP091	ltpFR	1	10	0	TEACHER	1440	n/a	0	0	0.5869140625	0.422607421875	lower	../fonts/zerothre.ttf
1428086	WORD	wordpools/wasnorm_wordpool.txt	LTP091	ltpFR	1	10	0	BEER	114	n/a	0	0	0.5869140625	0.422607421875	lower	../fonts/zerothre.ttf
1432289	WORD	wordpools/wasnorm_wordpool.txt	LTP091	ltpFR	1	10	0	SCOTCH	1251	n/a	0	0	0.5869140625	0.422607421875	lower	../fonts/zerothre.ttf
1436226	WORD	wordpools/wasnorm_wordpool.txt	LTP091	ltpFR	1	10	0	PIT	1077	n/a	0	0	0.5869140625	0.422607421875	lower	../fonts/zerothre.ttf
1440313	WORD	wordpools/wasnorm_wordpool.txt	LTP091	ltpFR	1	10	0	ORANGE	980	n/a	0	0	0.5869140625	0.422607421875	lower	../fonts/zerothre.ttf
1444242	WORD	wordpools/wasnorm_wordpool.txt	LTP091	ltpFR	1	10	0	GROCERIES	663	n/a	0	0	0.5869140625	0.422607421875	lower	../fonts/zerothre.ttf
1448105	WORD	wordpools/wasnorm_wordpool.txt	LTP091	ltpFR	1	10	0	BUGLE	189	n/a	1	0	0.5869140625	0.422607421875	lower	../fonts/zerothre.ttf
1452174	WORD	wordpools/wasnorm_wordpool.txt	LTP091	ltpFR	1	10	0	NOTEBOOK	959	n/a	0	0	0.5869140625	0.422607421875	lower	../fonts/zerothre.ttf
1456054	WORD	wordpools/wasnorm_wordpool.txt	LTP091	ltpFR	1	10	0	SUPERVISOR	1410	n/a	1	0	0.5869140625	0.422607421875	lower	../fonts/zerothre.ttf
1459933	WORD	wordpools/wasnorm_wordpool.txt	LTP091	ltpFR	1	10	0	MANSION	864	n/a	1	0	0.5869140625	0.422607421875	lower	../fonts/zerothre.ttf
1463936	WORD	wordpools/wasnorm_wordpool.txt	LTP091	ltpFR	1	10	0	LUNCH	849	n/a	0	0	0.5869140625	0.422607421875	lower	../fonts/zerothre.ttf
1467857	WORD	wordpools/wasnorm_wordpool.txt	LTP091	ltpFR	1	10	0	TEA	1439	n/a	0	0	0.5869140625	0.422607421875	lower	../fonts/zerothre.ttf
1471802	WORD	wordpools/wasnorm_wordpool.txt	LTP091	ltpFR	1	10	0	BEAVER	109	n/a	0	0	0.5869140625	0.422607421875	lower	../fonts/zerothre.ttf
1477663	REC_START	n/a	LTP091	ltpFR	1	10	n/a	n/a	n/a	n/a	n/a	n/a	n/a	n/a	n/a	n/a
1478945	REC_WORD	wordpools/wasnorm_wordpool.txt	LTP091	ltpFR	1	10	0	BEAVER	109	n/a	0	n/a	n/a	n/a	n/a	n/a
1484368	REC_WORD	wordpools/wasnorm_wordpool.txt	LTP091	ltpFR	1	10	0	BEER	114	n/a	0	n/a	n/a	n/a	n/a	n/a
1497104	REC_WORD	wordpools/wasnorm_wordpool.txt	LTP091	ltpFR	1	10	0	ORANGE	980	n/a	0	n/a	n/a	n/a	n/a	n/a
1526163	REC_WORD	wordpools/wasnorm_wordpool.txt	LTP091	ltpFR	1	10	0	SUPERVISOR	1410	n/a	1	n/a	n/a	n/a	n/a	n/a
1556604	WORD	wordpools/wasnorm_wordpool.txt	LTP091	ltpFR	1	11	1	CARNIVAL	245	n/a	0	1	0.412841796875	0.57763671875	upper	../fonts/amplitud.ttf
1560782	WORD	wordpools/wasnorm_wordpool.txt	LTP091	ltpFR	1	11	1	BLUEJAY	141	n/a	1	1	0.412841796875	0.57763671875	upper	../fonts/amplitud.ttf
1564944	WORD	wordpools/wasnorm_wordpool.txt	LTP091	ltpFR	1	11	1	PARROT	1015	n/a	1	1	0.412841796875	0.57763671875	upper	../fonts/amplitud.ttf
1569081	WORD	wordpools/wasnorm_wordpool.txt	LTP091	ltpFR	1	11	1	VASE	1549	n/a	0	1	0.412841796875	0.57763671875	upper	../fonts/amplitud.ttf
1573209	WORD	wordpools/wasnorm_wordpool.txt	LTP091	ltpFR	1	11	1	NEEDLE	941	n/a	0	1	0.412841796875	0.57763671875	upper	../fonts/amplitud.ttf
1577295	WORD	wordpools/wasnorm_wordpool.txt	LTP091	ltpFR	1	11	1	COOKIE	374	n/a	0	1	0.412841796875	0.57763671875	upper	../fonts/amplitud.ttf
1581208	WORD	wordpools/wasnorm_wordpool.txt	LTP091	ltpFR	1	11	1	COLESLAW	344	n/a	0	1	0.412841796875	0.57763671875	upper	../fonts/amplitud.ttf
1585170	WORD	wordpools/wasnorm_wordpool.txt	LTP091	ltpFR	1	11	1	VIOLIN	1571	n/a	0	1	0.412841796875	0.57763671875	upper	../fonts/amplitud.ttf
1589215	WORD	wordpools/wasnorm_wordpool.txt	LTP091	ltpFR	1	11	1	TRICYCLE	1506	n/a	0	1	0.412841796875	0.57763671875	upper	../fonts/amplitud.ttf
1593385	WORD	wordpools/wasnorm_wordpool.txt	LTP091	ltpFR	1	11	1	WHEEL	1603	n/a	0	1	0.412841796875	0.57763671875	upper	../fonts/amplitud.ttf
1597214	WORD	wordpools/wasnorm_wordpool.txt	LTP091	ltpFR	1	11	1	BEAST	108	n/a	1	1	0.412841796875	0.57763671875	upper	../fonts/amplitud.ttf
1601184	WORD	wordpools/wasnorm_wordpool.txt	LTP091	ltpFR	1	11	1	MONSTER	912	n/a	0	1	0.412841796875	0.57763671875	upper	../fonts/amplitud.ttf
1605164	WORD	wordpools/wasnorm_wordpool.txt	LTP091	ltpFR	1	11	1	GUARDIAN	668	n/a	1	1	0.412841796875	0.57763671875	upper	../fonts/amplitud.ttf
1609325	WORD	wordpools/wasnorm_wordpool.txt	LTP091	ltpFR	1	11	1	MAMMAL	861	n/a	0	1	0.412841796875	0.57763671875	upper	../fonts/amplitud.ttf
1613428	WORD	wordpools/wasnorm_wordpool.txt	LTP091	ltpFR	1	11	1	HAYSTACK	694	n/a	0	1	0.412841796875	0.57763671875	upper	../fonts/amplitud.ttf
1617382	WORD	wordpools/wasnorm_wordpool.txt	LTP091	ltpFR	1	11	1	TOY	1492	n/a	0	1	0.412841796875	0.57763671875	upper	../fonts/amplitud.ttf
1623119	REC_START	n/a	LTP091	ltpFR	1	11	n/a	n/a	n/a	n/a	n/a	n/a	n/a	n/a	n/a	n/a
1624935	REC_WORD	wordpools/wasnorm_wordpool.txt	LTP091	ltpFR	1	11	1	TOY	1492	n/a	0	n/a	n/a	n/a	n/a	n/a
1634618	REC_WORD	wordpools/wasnorm_wordpool.txt	LTP091	ltpFR	1	11	1	VIOLIN	1571	n/a	0	n/a	n/a	n/a	n/a	n/a
1639646	REC_WORD	wordpools/wasnorm_wordpool.txt	LTP091	ltpFR	1	11	1	BLUEJAY	141	n/a	1	n/a	n/a	n/a	n/a	n/a
1696622	REC_WORD	wordpools/wasnorm_wordpool.txt	LTP091	ltpFR	1	11	0	PIT	1077	n/a	0	n/a	n/a	n/a	n/a	n/a
1700911	WORD	wordpools/wasnorm_wordpool.txt	LTP091	ltpFR	1	12	1	VAN	1548	n/a	0	1	0.412841796875	0.57763671875	upper	../fonts/amplitud.ttf
1704957	WORD	wordpools/wasnorm_wordpool.txt	LTP091	ltpFR	1	12	1	DAGGER	434	n/a	0	1	0.412841796875	0.57763671875	upper	../fonts/amplitud.ttf
1708835	WORD	wordpools/wasnorm_wordpool.txt	LTP091	ltpFR	1	12	1	KNIFE	785	n/a	0	1	0.412841796875	0.57763671875	upper	../fonts/amplitud.ttf
1712697	WORD	wordpools/wasnorm_wordpool.txt	LTP091	ltpFR	1	12	1	AUNT	60	n/a	1	1	0.412841796875	0.57763671875	upper	../fonts/amplitud.ttf
1716776	WORD	wordpools/wasnorm_wordpool.txt	LTP091	ltpFR	1	12	1	NEPHEW	942	n/a	1	1	0.412841796875	0.57763671875	upper	../fonts/amplitud.ttf
1720938	WORD	wordpools/wasnorm_wordpool.txt	LTP091	ltpFR	1	12	1	PECAN	1036	n/a	0	1	0.412841796875	0.57763671875	upper	../fonts/amplitud.ttf
1724833	WORD	wordpools/wasnorm_wordpool.txt	LTP091	ltpFR	1	12	1	SERVER	1272	n/a	1	1	0.412841796875	0.57763671875	upper	../fonts/amplitud.ttf
1728654	WORD	wordpools/wasnorm_wordpool.txt	LTP091	ltpFR	1	12	1	FRUIT	610	n/a	1	1	0.412841796875	0.57763671875	upper	../fonts/amplitud.ttf
1732674	WORD	wordpools/wasnorm_wordpool.txt	LTP091	ltpFR	1	12	1	CANNON	232	n/a	0	1	0.412841796875	0.57763671875	upper	../fonts/amplitud.ttf
1736653	WORD	wordpools/wasnorm_wordpool.txt	LTP091	ltpFR	1	12	1	BASKET	95	n/a	0	1	0.412841796875	0.57763671875	upper	../fonts/amplitud.ttf
1740598	WORD	wordpools/wasnorm_wordpool.txt	LTP091	ltpFR	1	12	1	APPLE	33	n/a	1	1	0.412841796875	0.57763671875	upper	../fonts/amplitud.ttf
1744702	WORD	wordpools/wasnorm_wordpool.txt	LTP091	ltpFR	1	12	1	RELATIVE	1182	n/a	1	1	0.412841796875	0.57763671875	upper	../fonts/amplitud.ttf
1748697	WORD	wordpools/wasnorm_wordpool.txt	LTP091	ltpFR	1	12	1	LIVER	833	n/a	1	1	0.412841796875	0.57763671875	upper	../fonts/amplitud.ttf
1752701	WORD	wordpools/wasnorm_wordpool.txt	LTP091	ltpFR	1	12	1	VALVE	1546	n/a	0	1	0.412841796875	0.57763671875	upper	../fonts/amplitud.ttf
1756838	WORD	wordpools/wasnorm_wordpool.txt	LTP091	ltpFR	1	12	1	PIE	1062	n/a	0	1	0.412841796875	0.57763671875	upper	../fonts/amplitud.ttf
1760883	WORD	wordpools/wasnorm_wordpool.txt	LTP091	ltpFR	1	12	1	WAIST	1579	n/a	0	1	0.412841796875	0.57763671875	upper	../fonts/amplitud.ttf
1766610	REC_START	n/a	LTP091	ltpFR	1	12	n/a	n/a	n/a	n/a	n/a	n/a	n/a	n/a	n/a	n/a
1767243	REC_WORD	wordpools/wasnorm_wordpool.txt	LTP091	ltpFR	1	12	1	WAIST	1579	n/a	0	n/a	n/a	n/a	n/a	n/a
1768835	REC_WORD	wordpools/wasnorm_wordpool.txt	LTP091	ltpFR	1	12	1	APPLE	33	n/a	1	n/a	n/a	n/a	n/a	n/a
1770431	REC_WORD	wordpools/wasnorm_wordpool.txt	LTP091	ltpFR	1	12	1	FRUIT	610	n/a	1	n/a	n/a	n/a	n/a	n/a
1771868	REC_WORD	wordpools/wasnorm_wordpool.txt	LTP091	ltpFR	1	12	1	PIE	1062	n/a	0	n/a	n/a	n/a	n/a	n/a
1773150	REC_WORD	wordpools/wasnorm_wordpool.txt	LTP091	ltpFR	1	12	1	BASKET	95	n/a	0	n/a	n/a	n/a	n/a	n/a
1774627	REC_WORD	wordpools/wasnorm_wordpool.txt	LTP091	ltpFR	1	12	1	RELATIVE	1182	n/a	1	n/a	n/a	n/a	n/a	n/a
1775934	REC_WORD	wordpools/wasnorm_wordpool.txt	LTP091	ltpFR	1	12	1	AUNT	60	n/a	1	n/a	n/a	n/a	n/a	n/a
1777385	REC_WORD	wordpools/wasnorm_wordpool.txt	LTP091	ltpFR	1	12	1	NEPHEW	942	n/a	1	n/a	n/a	n/a	n/a	n/a
1779007	REC_WORD	wordpools/wasnorm_wordpool.txt	LTP091	ltpFR	1	12	1	DAGGER	434	n/a	0	n/a	n/a	n/a	n/a	n/a
1780733	REC_WORD	wordpools/wasnorm_wordpool.txt	LTP091	ltpFR	1	12	1	CANNON	232	n/a	0	n/a	n/a	n/a	n/a	n/a
1793100	REC_WORD	wordpools/wasnorm_wordpool.txt	LTP091	ltpFR	1	12	1	VAN	1548	n/a	0	n/a	n/a	n/a	n/a	n/a
1814077	REC_WORD	wordpools/wasnorm_wordpool.txt	LTP091	ltpFR	1	12	1	KNIFE	785	n/a	0	n/a	n/a	n/a	n/a	n/a
1816367	REC_WORD	wordpools/wasnorm_wordpool.txt	LTP091	ltpFR	1	12	1	WAIST	1579	n/a	0	n/a	n/a	n/a	n/a	n/a
1842179	REST_REWET	n/a	LTP091	ltpFR	1	12	n/a	n/a	n/a	n/a	n/a	n/a	n/a	n/a	n/a	n/a
2177332	WORD	wordpools/wasnorm_wordpool.txt	LTP091	ltpFR	1	13	1	BARLEY	88	n/a	1	1	0.412841796875	0.57763671875	upper	../fonts/amplitud.ttf
2181410	WORD	wordpools/wasnorm_wordpool.txt	LTP091	ltpFR	1	13	1	ACTRESS	6	n/a	1	1	0.412841796875	0.57763671875	upper	../fonts/amplitud.ttf
2185572	WORD	wordpools/wasnorm_wordpool.txt	LTP091	ltpFR	1	13	1	NEST	945	n/a	0	1	0.412841796875	0.57763671875	upper	../fonts/amplitud.ttf
2189534	WORD	wordpools/wasnorm_wordpool.txt	LTP091	ltpFR	1	13	0	TERMITE	1451	n/a	1	0	0.5869140625	0.422607421875	lower	../fonts/zerothre.ttf
2193730	WORD	wordpools/wasnorm_wordpool.txt	LTP091	ltpFR	1	13	0	PUB	1135	n/a	1	0	0.5869140625	0.422607421875	lower	../fonts/zerothre.ttf
2197692	WORD	wordpools/wasnorm_wordpool.txt	LTP091	ltpFR	1	13	0	GULL	671	n/a	1	0	0.5869140625	0.422607421875	lower	../fonts/zerothre.ttf
2201520	WORD	wordpools/wasnorm_wordpool.txt	LTP091	ltpFR	1	13	0	MOVIE	927	n/a	1	0	0.5869140625	0.422607421875	lower	../fonts/zerothre.ttf
2205725	WORD	wordpools/wasnorm_wordpool.txt	LTP091	ltpFR	1	13	1	SINK	1309	n/a	0	1	0.412841796875	0.57763671875	upper	../fonts/amplitud.ttf
2209870	WORD	wordpools/wasnorm_wordpool.txt	LTP091	ltpFR	1	13	1	OTTER	986	n/a	1	1	0.412841796875	0.57763671875	upper	../fonts/amplitud.ttf
2213940	WORD	wordpools/wasnorm_wordpool.txt	LTP091	ltpFR	1	13	1	TROMBONE	1508	n/a	0	1	0.412841796875	0.57763671875	upper	../fonts/amplitud.ttf
2217827	WORD	wordpools/wasnorm_wordpool.txt	LTP091	ltpFR	1	13	1	PIANO	1057	n/a	0	1	0.412841796875	0.57763671875	upper	../fonts/amplitud.ttf
2221831	WORD	wordpools/wasnorm_wordpool.txt	LTP091	ltpFR	1	13	1	COURT	391	n/a	0	1	0.412841796875	0.57763671875	upper	../fonts/amplitud.ttf
2225693	WORD	wordpools/wasnorm_wordpool.txt	LTP091	ltpFR	1	13	0	CLOTHES	327	n/a	0	0	0.5869140625	0.422607421875	lower	../fonts/zerothre.ttf
2229830	WORD	wordpools/wasnorm_wordpool.txt	LTP091	ltpFR	1	13	0	CAPTIVE	240	n/a	0	0	0.5869140625	0.422607421875	lower	../fonts/zerothre.ttf
2233801	WORD	wordpools/wasnorm_wordpool.txt	LTP091	ltpFR	1	13	0	CHAMBER	277	n/a	0	0	0.5869140625	0.422607421875	lower	../fonts/zerothre.ttf
2237887	WORD	wordpools/wasnorm_wordpool.txt	LTP091	ltpFR	1	13	0	VIKING	1565	n/a	1	0	0.5869140625	0.422607421875	lower	../fonts/zerothre.ttf
2243814	REC_START	n/a	LTP091	ltpFR	1	13	n/a	n/a	n/a	n/a	n/a	n/a	n/a	n/a	n/a	n/a
2246176	REC_WORD	wordpools/wasnorm_wordpool.txt	LTP091	ltpFR	1	13	0	VIKING	1565	n/a	1	n/a	n/a	n/a	n/a	n/a
2249344	REC_WORD	wordpools/wasnorm_wordpool.txt	LTP091	ltpFR	1	13	0	CHAMBER	277	n/a	0	n/a	n/a	n/a	n/a	n/a
2251741	REC_WORD	wordpools/wasnorm_wordpool.txt	LTP091	ltpFR	1	13	n/a	SEAGULL	1261	n/a	n/a	n/a	n/a	n/a	n/a	n/a
2255163	REC_WORD	wordpools/wasnorm_wordpool.txt	LTP091	ltpFR	1	13	1	PIANO	1057	n/a	0	n/a	n/a	n/a	n/a	n/a
2262027	REC_WORD	wordpools/wasnorm_wordpool.txt	LTP091	ltpFR	1	13	1	TROMBONE	1508	n/a	0	n/a	n/a	n/a	n/a	n/a
2271740	REC_WORD	wordpools/wasnorm_wordpool.txt	LTP091	ltpFR	1	13	0	TERMITE	1451	n/a	1	n/a	n/a	n/a	n/a	n/a
2281698	REC_WORD	wordpools/wasnorm_wordpool.txt	LTP091	ltpFR	1	13	1	BARLEY	88	n/a	1	n/a	n/a	n/a	n/a	n/a
2283658	REC_WORD	wordpools/wasnorm_wordpool.txt	LTP091	ltpFR	1	13	1	NEST	945	n/a	0	n/a	n/a	n/a	n/a	n/a
2346219	WORD	wordpools/wasnorm_wordpool.txt	LTP091	ltpFR	1	14	-1	MICROSCOPE	891	n/a	-1	1	1.0	1.0	upper	../fonts/Verdana.ttf
2350065	WORD	wordpools/wasnorm_wordpool.txt	LTP091	ltpFR	1	14	-1	SEAFOOD	1260	n/a	-1	1	1.0	1.0	upper	../fonts/Verdana.ttf
2354161	WORD	wordpools/wasnorm_wordpool.txt	LTP091	ltpFR	1	14	-1	CAFETERIA	217	n/a	-1	1	1.0	1.0	upper	../fonts/Verdana.ttf
2358048	WORD	wordpools/wasnorm_wordpool.txt	LTP091	ltpFR	1	14	-1	SHOVEL	1295	n/a	-1	1	1.0	1.0	upper	../fonts/Verdana.ttf
2362093	WORD	wordpools/wasnorm_wordpool.txt	LTP091	ltpFR	1	14	-1	DIRECTOR	471	n/a	-1	1	1.0	1.0	upper	../fonts/Verdana.ttf
2366196	WORD	wordpools/wasnorm_wordpool.txt	LTP091	ltpFR	1	14	-1	CRITIC	410	n/a	-1	1	1.0	1.0	upper	../fonts/Verdana.ttf
2370017	WORD	wordpools/wasnorm_wordpool.txt	LTP091	ltpFR	1	14	-1	SAUCER	1237	n/a	-1	1	1.0	1.0	upper	../fonts/Verdana.ttf
2374154	WORD	wordpools/wasnorm_wordpool.txt	LTP091	ltpFR	1	14	-1	CELLO	268	n/a	-1	1	1.0	1.0	upper	../fonts/Verdana.ttf
2378357	WORD	wordpools/wasnorm_wordpool.txt	LTP091	ltpFR	1	14	-1	SWAMP	1416	n/a	-1	1	1.0	1.0	upper	../fonts/Verdana.ttf
2382335	WORD	wordpools/wasnorm_wordpool.txt	LTP091	ltpFR	1	14	-1	QUARTER	1148	n/a	-1	1	1.0	1.0	upper	../fonts/Verdana.ttf
2386264	WORD	wordpools/wasnorm_wordpool.txt	LTP091	ltpFR	1	14	-1	BUG	187	n/a	-1	1	1.0	1.0	upper	../fonts/Verdana.ttf
2390201	WORD	wordpools/wasnorm_wordpool.txt	LTP091	ltpFR	1	14	-1	MOON	914	n/a	-1	1	1.0	1.0	upper	../fonts/Verdana.ttf
2394064	WORD	wordpools/wasnorm_wordpool.txt	LTP091	ltpFR	1	14	-1	DOLLAR	482	n/a	-1	1	1.0	1.0	upper	../fonts/Verdana.ttf
2398060	WORD	wordpools/wasnorm_wordpool.txt	LTP091	ltpFR	1	14	-1	KNEE	784	n/a	-1	1	1.0	1.0	upper	../fonts/Verdana.ttf
2402221	WORD	wordpools/wasnorm_wordpool.txt	LTP091	ltpFR	1	14	-1	NAVIGATOR	938	n/a	-1	1	1.0	1.0	upper	../fonts/Verdana.ttf
2406258	WORD	wordpools/wasnorm_wordpool.txt	LTP091	ltpFR	1	14	-1	AIRPLANE	12	n/a	-1	1	1.0	1.0	upper	../fonts/Verdana.ttf
2411919	REC_START	n/a	LTP091	ltpFR	1	14	n/a	n/a	n/a	n/a	n/a	n/a	n/a	n/a	n/a	n/a
2412682	REC_WORD	wordpools/wasnorm_wordpool.txt	LTP091	ltpFR	1	14	-1	AIRPLANE	12	n/a	-1	n/a	n/a	n/a	n/a	n/a
2414069	REC_WORD	wordpools/wasnorm_wordpool.txt	LTP091	ltpFR	1	14	-1	NAVIGATOR	938	n/a	-1	n/a	n/a	n/a	n/a	n/a
2416269	REC_WORD	wordpools/wasnorm_wordpool.txt	LTP091	ltpFR	1	14	-1	SWAMP	1416	n/a	-1	n/a	n/a	n/a	n/a	n/a
2417431	REC_WORD	wordpools/wasnorm_wordpool.txt	LTP091	ltpFR	1	14	-1	CAFETERIA	217	n/a	-1	n/a	n/a	n/a	n/a	n/a
2419297	REC_WORD	wordpools/wasnorm_wordpool.txt	LTP091	ltpFR	1	14	-1	QUARTER	1148	n/a	-1	n/a	n/a	n/a	n/a	n/a
2420649	REC_WORD	wordpools/wasnorm_wordpool.txt	LTP091	ltpFR	1	14	-1	SAUCER	1237	n/a	-1	n/a	n/a	n/a	n/a	n/a
2425588	REC_WORD	wordpools/wasnorm_wordpool.txt	LTP091	ltpFR	1	14	-1	BUG	187	n/a	-1	n/a	n/a	n/a	n/a	n/a
2443417	REC_WORD	wordpools/wasnorm_wordpool.txt	LTP091	ltpFR	1	14	-1	MICROSCOPE	891	n/a	-1	n/a	n/a	n/a	n/a	n/a
2444914	REC_WORD	wordpools/wasnorm_wordpool.txt	LTP091	ltpFR	1	14	0	FILM	565	n/a	1	n/a	n/a	n/a	n/a	n/a
2448551	REC_WORD	wordpools/wasnorm_wordpool.txt	LTP091	ltpFR	1	14	-1	CELLO	268	n/a	-1	n/a	n/a	n/a	n/a	n/a
2450865	REC_WORD	wordpools/wasnorm_wordpool.txt	LTP091	ltpFR	1	14	-1	CRITIC	410	n/a	-1	n/a	n/a	n/a	n/a	n/a
2454158	REC_WORD	wordpools/wasnorm_wordpool.txt	LTP091	ltpFR	1	14	-1	DIRECTOR	471	n/a	-1	n/a	n/a	n/a	n/a	n/a
2490860	WORD	wordpools/wasnorm_wordpool.txt	LTP091	ltpFR	1	15	-1	BUTTON	207	n/a	-1	1	1.0	1.0	upper	../fonts/Verdana.ttf
2495022	WORD	wordpools/wasnorm_wordpool.txt	LTP091	ltpFR	1	15	-1	SLACKS	1323	n/a	-1	1	1.0	1.0	upper	../fonts/Verdana.ttf
2499200	WORD	wordpools/wasnorm_wordpool.txt	LTP091	ltpFR	1	15	-1	PANTS	1010	n/a	-1	1	1.0	1.0	upper	../fonts/Verdana.ttf
2503004	WORD	wordpools/wasnorm_wordpool.txt	LTP091	ltpFR	1	15	-1	DRIVER	499	n/a	-1	1	1.0	1.0	upper	../fonts/Verdana.ttf
2506942	WORD	wordpools/wasnorm_wordpool.txt	LTP091	ltpFR	1	15	-1	RUST	1219	n/a	-1	1	1.0	1.0	upper	../fonts/Verdana.ttf
2510770	WORD	wordpools/wasnorm_wordpool.txt	LTP091	ltpFR	1	15	-1	PORPOISE	1109	n/a	-1	1	1.0	1.0	upper	../fonts/Verdana.ttf
2514691	WORD	wordpools/wasnorm_wordpool.txt	LTP091	ltpFR	1	15	-1	FRAGRANCE	599	n/a	-1	1	1.0	1.0	upper	../fonts/Verdana.ttf
2518711	WORD	wordpools/wasnorm_wordpool.txt	LTP091	ltpFR	1	15	-1	CLOVE	329	n/a	-1	1	1.0	1.0	upper	../fonts/Verdana.ttf
2522607	WORD	wordpools/wasnorm_wordpool.txt	LTP091	ltpFR	1	15	-1	THICKET	1455	n/a	-1	1	1.0	1.0	upper	../fonts/Verdana.ttf
2526635	WORD	wordpools/wasnorm_wordpool.txt	LTP091	ltpFR	1	15	-1	TOASTER	1472	n/a	-1	1	1.0	1.0	upper	../fonts/Verdana.ttf
2530505	WORD	wordpools/wasnorm_wordpool.txt	LTP091	ltpFR	1	15	-1	WITNESS	1618	n/a	-1	1	1.0	1.0	upper	../fonts/Verdana.ttf
2534583	WORD	wordpools/wasnorm_wordpool.txt	LTP091	ltpFR	1	15	-1	EDITORIAL	517	n/a	-1	1	1.0	1.0	upper	../fonts/Verdana.ttf
2538496	WORD	wordpools/wasnorm_wordpool.txt	LTP091	ltpFR	1	15	-1	WEED	1599	n/a	-1	1	1.0	1.0	upper	../fonts/Verdana.ttf
2542416	WORD	wordpools/wasnorm_wordpool.txt	LTP091	ltpFR	1	15	-1	CORAL	378	n/a	-1	1	1.0	1.0	upper	../fonts/Verdana.ttf
2546253	WORD	wordpools/wasnorm_wordpool.txt	LTP091	ltpFR	1	15	-1	DENIM	446	n/a	-1	1	1.0	1.0	upper	../fonts/Verdana.ttf
2550158	WORD	wordpools/wasnorm_wordpool.txt	LTP091	ltpFR	1	15	-1	BREAD	170	n/a	-1	1	1.0	1.0	upper	../fonts/Verdana.ttf
2555961	REC_START	n/a	LTP091	ltpFR	1	15	n/a	n/a	n/a	n/a	n/a	n/a	n/a	n/a	n/a	n/a
2557432	REC_WORD	wordpools/wasnorm_wordpool.txt	LTP091	ltpFR	1	15	-1	BREAD	170	n/a	-1	n/a	n/a	n/a	n/a	n/a
2558859	REC_WORD	wordpools/wasnorm_wordpool.txt	LTP091	ltpFR	1	15	-1	PORPOISE	1109	n/a	-1	n/a	n/a	n/a	n/a	n/a
2560759	REC_WORD	wordpools/wasnorm_wordpool.txt	LTP091	ltpFR	1	15	-1	THICKET	1455	n/a	-1	n/a	n/a	n/a	n/a	n/a
2561767	REC_WORD	wordpools/wasnorm_wordpool.txt	LTP091	ltpFR	1	15	-1	THICKET	1455	n/a	-1	n/a	n/a	n/a	n/a	n/a
2563414	REC_WORD	wordpools/wasnorm_wordpool.txt	LTP091	ltpFR	1	15	-1	WEED	1599	n/a	-1	n/a	n/a	n/a	n/a	n/a
2566602	REC_WORD	wordpools/wasnorm_wordpool.txt	LTP091	ltpFR	1	15	-1	SLACKS	1323	n/a	-1	n/a	n/a	n/a	n/a	n/a
2567769	REC_WORD	wordpools/wasnorm_wordpool.txt	LTP091	ltpFR	1	15	-1	BUTTON	207	n/a	-1	n/a	n/a	n/a	n/a	n/a
2568547	REC_WORD	wordpools/wasnorm_wordpool.txt	LTP091	ltpFR	1	15	-1	PANTS	1010	n/a	-1	n/a	n/a	n/a	n/a	n/a
2570373	REC_WORD	wordpools/wasnorm_wordpool.txt	LTP091	ltpFR	1	15	-1	DRIVER	499	n/a	-1	n/a	n/a	n/a	n/a	n/a
2572238	REC_WORD	wordpools/wasnorm_wordpool.txt	LTP091	ltpFR	1	15	-1	FRAGRANCE	599	n/a	-1	n/a	n/a	n/a	n/a	n/a
2635391	WORD	wordpools/wasnorm_wordpool.txt	LTP091	ltpFR	1	16	1	LOAF	835	n/a	0	1	0.412841796875	0.57763671875	upper	../fonts/amplitud.ttf
2639578	WORD	wordpools/wasnorm_wordpool.txt	LTP091	ltpFR	1	16	1	TAXI	1438	n/a	0	1	0.412841796875	0.57763671875	upper	../fonts/amplitud.ttf
2643724	WORD	wordpools/wasnorm_wordpool.txt	LTP091	ltpFR	1	16	0	RADIATOR	1156	n/a	0	0	0.5869140625	0.422607421875	lower	../fonts/zerothre.ttf
2647845	WORD	wordpools/wasnorm_wordpool.txt	LTP091	ltpFR	1	16	0	CAFE	216	n/a	1	0	0.5869140625	0.422607421875	lower	../fonts/zerothre.ttf
2651956	WORD	wordpools/wasnorm_wordpool.txt	LTP091	ltpFR	1	16	0	KITE	779	n/a	0	0	0.5869140625	0.422607421875	lower	../fonts/zerothre.ttf
2655852	WORD	wordpools/wasnorm_wordpool.txt	LTP091	ltpFR	1	16	1	VET	1560	n/a	1	1	0.412841796875	0.57763671875	upper	../fonts/amplitud.ttf
2659906	WORD	wordpools/wasnorm_wordpool.txt	LTP091	ltpFR	1	16	1	TICKET	1464	n/a	0	1	0.412841796875	0.57763671875	upper	../fonts/amplitud.ttf
2663968	WORD	wordpools/wasnorm_wordpool.txt	LTP091	ltpFR	1	16	0	STEWARDESS	1381	n/a	0	0	0.5869140625	0.422607421875	lower	../fonts/zerothre.ttf
2668146	WORD	wordpools/wasnorm_wordpool.txt	LTP091	ltpFR	1	16	0	OREGANO	983	n/a	0	0	0.5869140625	0.422607421875	lower	../fonts/zerothre.ttf
2672174	WORD	wordpools/wasnorm_wordpool.txt	LTP091	ltpFR	1	16	0	PILOT	1070	n/a	1	0	0.5869140625	0.422607421875	lower	../fonts/zerothre.ttf
2676236	WORD	wordpools/wasnorm_wordpool.txt	LTP091	ltpFR	1	16	0	BEAR	106	n/a	1	0	0.5869140625	0.422607421875	lower	../fonts/zerothre.ttf
2680132	WORD	wordpools/wasnorm_wordpool.txt	LTP091	ltpFR	1	16	0	DOCTOR	478	n/a	1	0	0.5869140625	0.422607421875	lower	../fonts/zerothre.ttf
2684201	WORD	wordpools/wasnorm_wordpool.txt	LTP091	ltpFR	1	16	1	BRUISE	180	n/a	0	1	0.412841796875	0.57763671875	upper	../fonts/amplitud.ttf
2688363	WORD	wordpools/wasnorm_wordpool.txt	LTP091	ltpFR	1	16	1	ASPIRIN	47	n/a	0	1	0.412841796875	0.57763671875	upper	../fonts/amplitud.ttf
2692175	WORD	wordpools/wasnorm_wordpool.txt	LTP091	ltpFR	1	16	1	INCENSE	735	n/a	0	1	0.412841796875	0.57763671875	upper	../fonts/amplitud.ttf
2696005	WORD	wordpools/wasnorm_wordpool.txt	LTP091	ltpFR	1	16	1	GARLIC	624	n/a	0	1	0.412841796875	0.57763671875	upper	../fonts/amplitud.ttf
2701924	REC_START	n/a	LTP091	ltpFR	1	16	n/a	n/a	n/a	n/a	n/a	n/a	n/a	n/a	n/a	n/a
2702507	REC_WORD	wordpools/wasnorm_wordpool.txt	LTP091	ltpFR	1	16	1	GARLIC	624	n/a	0	n/a	n/a	n/a	n/a	n/a
2704343	REC_WORD	wordpools/wasnorm_wordpool.txt	LTP091	ltpFR	1	16	0	PILOT	1070	n/a	1	n/a	n/a	n/a	n/a	n/a
2705860	REC_WORD	wordpools/wasnorm_wordpool.txt	LTP091	ltpFR	1	16	0	STEWARDESS	1381	n/a	0	n/a	n/a	n/a	n/a	n/a
2752070	REC_WORD	wordpools/wasnorm_wordpool.txt	LTP091	ltpFR	1	16	1	VET	1560	n/a	1	n/a	n/a	n/a	n/a	n/a
2756345	REC_WORD	wordpools/wasnorm_wordpool.txt	LTP091	ltpFR	1	16	0	DOCTOR	478	n/a	1	n/a	n/a	n/a	n/a	n/a
2816791	REC_START	n/a	LTP091	ltpFR	1	1	n/a	n/a	n/a	n/a	n/a	n/a	n/a	n/a	n/a	n/a
2816815	RECOG_LURE	n/a	LTP091	ltpFR	1	1	n/a	MOTH	920	3	n/a	n/a	n/a	n/a	n/a	n/a
2819669	RECOG_RESP	n/a	LTP091	ltpFR	1	1	n/a	MOTH	920	n/a	n/a	n/a	n/a	n/a	n/a	n/a
2823700	RECOG_CONF	n/a	LTP091	ltpFR	1	1	n/a	MOTH	920	3	n/a	n/a	n/a	n/a	n/a	n/a
2825471	RECOG_TARGET	n/a	LTP091	ltpFR	1	1	0	FUNGUS	614	4	0	n/a	n/a	n/a	n/a	n/a
2827013	RECOG_RESP	n/a	LTP091	ltpFR	1	1	0	FUNGUS	614	n/a	0	n/a	n/a	n/a	n/a	n/a
2829170	RECOG_CONF	n/a	LTP091	ltpFR	1	1	0	FUNGUS	614	4	0	n/a	n/a	n/a	n/a	n/a
2830849	RECOG_TARGET	n/a	LTP091	ltpFR	1	1	1	PADDING	999	5	0	n/a	n/a	n/a	n/a	n/a
2831951	RECOG_RESP	n/a	LTP091	ltpFR	1	1	1	PADDING	999	n/a	0	n/a	n/a	n/a	n/a	n/a
2833897	RECOG_CONF	n/a	LTP091	ltpFR	1	1	1	PADDING	999	5	0	n/a	n/a	n/a	n/a	n/a
2835626	RECOG_TARGET	n/a	LTP091	ltpFR	1	1	-1	CORAL	378	5	-1	n/a	n/a	n/a	n/a	n/a
2836760	RECOG_RESP	n/a	LTP091	ltpFR	1	1	-1	CORAL	378	n/a	-1	n/a	n/a	n/a	n/a	n/a
2838457	RECOG_CONF	n/a	LTP091	ltpFR	1	1	-1	CORAL	378	5	-1	n/a	n/a	n/a	n/a	n/a
2840295	RECOG_LURE	n/a	LTP091	ltpFR	1	1	n/a	TAG	1429	3	n/a	n/a	n/a	n/a	n/a	n/a
2841564	RECOG_RESP	n/a	LTP091	ltpFR	1	1	n/a	TAG	1429	n/a	n/a	n/a	n/a	n/a	n/a	n/a
2843186	RECOG_CONF	n/a	LTP091	ltpFR	1	1	n/a	TAG	1429	3	n/a	n/a	n/a	n/a	n/a	n/a
2844590	RECOG_LURE	n/a	LTP091	ltpFR	1	1	n/a	PAWN	1030	3	n/a	n/a	n/a	n/a	n/a	n/a
2845441	RECOG_RESP	n/a	LTP091	ltpFR	1	1	n/a	PAWN	1030	n/a	n/a	n/a	n/a	n/a	n/a	n/a
2847067	RECOG_CONF	n/a	LTP091	ltpFR	1	1	n/a	PAWN	1030	3	n/a	n/a	n/a	n/a	n/a	n/a
2848560	RECOG_TARGET	n/a	LTP091	ltpFR	1	1	-1	THICKET	1455	4	-1	n/a	n/a	n/a	n/a	n/a
2849666	RECOG_RESP	n/a	LTP091	ltpFR	1	1	-1	THICKET	1455	n/a	-1	n/a	n/a	n/a	n/a	n/a
2850809	RECOG_CONF	n/a	LTP091	ltpFR	1	1	-1	THICKET	1455	4	-1	n/a	n/a	n/a	n/a	n/a
2852740	RECOG_TARGET	n/a	LTP091	ltpFR	1	1	1	PIANO	1057	4	0	n/a	n/a	n/a	n/a	n/a
2853447	RECOG_RESP	n/a	LTP091	ltpFR	1	1	1	PIANO	1057	n/a	0	n/a	n/a	n/a	n/a	n/a
2854839	RECOG_CONF	n/a	LTP091	ltpFR	1	1	1	PIANO	1057	4	0	n/a	n/a	n/a	n/a	n/a
2856451	RECOG_TARGET	n/a	LTP091	ltpFR	1	1	0	BEAR	106	5	1	n/a	n/a	n/a	n/a	n/a
2857114	RECOG_RESP	n/a	LTP091	ltpFR	1	1	0	BEAR	106	n/a	1	n/a	n/a	n/a	n/a	n/a
2858441	RECOG_CONF	n/a	LTP091	ltpFR	1	1	0	BEAR	106	5	1	n/a	n/a	n/a	n/a	n/a
2860140	RECOG_TARGET	n/a	LTP091	ltpFR	1	1	0	TOOTHBRUSH	1482	5	0	n/a	n/a	n/a	n/a	n/a
2861025	RECOG_RESP	n/a	LTP091	ltpFR	1	1	0	TOOTHBRUSH	1482	n/a	0	n/a	n/a	n/a	n/a	n/a
2862183	RECOG_CONF	n/a	LTP091	ltpFR	1	1	0	TOOTHBRUSH	1482	5	0	n/a	n/a	n/a	n/a	n/a
2863835	RECOG_TARGET	n/a	LTP091	ltpFR	1	1	0	PENGUIN	1044	2	0	n/a	n/a	n/a	n/a	n/a
2864891	RECOG_RESP	n/a	LTP091	ltpFR	1	1	0	PENGUIN	1044	n/a	0	n/a	n/a	n/a	n/a	n/a
2865864	RECOG_CONF	n/a	LTP091	ltpFR	1	1	0	PENGUIN	1044	2	0	n/a	n/a	n/a	n/a	n/a
2867430	RECOG_TARGET	n/a	LTP091	ltpFR	1	1	0	SKUNK	1321	5	0	n/a	n/a	n/a	n/a	n/a
2868508	RECOG_RESP	n/a	LTP091	ltpFR	1	1	0	SKUNK	1321	n/a	0	n/a	n/a	n/a	n/a	n/a
2869656	RECOG_CONF	n/a	LTP091	ltpFR	1	1	0	SKUNK	1321	5	0	n/a	n/a	n/a	n/a	n/a
2871751	RECOG_TARGET	n/a	LTP091	ltpFR	1	1	0	DEER	444	2	0	n/a	n/a	n/a	n/a	n/a
2872554	RECOG_RESP	n/a	LTP091	ltpFR	1	1	0	DEER	444	n/a	0	n/a	n/a	n/a	n/a	n/a
2873926	RECOG_CONF	n/a	LTP091	ltpFR	1	1	0	DEER	444	2	0	n/a	n/a	n/a	n/a	n/a
2875429	RECOG_TARGET	n/a	LTP091	ltpFR	1	1	1	GUARDIAN	668	5	1	n/a	n/a	n/a	n/a	n/a
2876216	RECOG_RESP	n/a	LTP091	ltpFR	1	1	1	GUARDIAN	668	n/a	1	n/a	n/a	n/a	n/a	n/a
2877508	RECOG_CONF	n/a	LTP091	ltpFR	1	1	1	GUARDIAN	668	5	1	n/a	n/a	n/a	n/a	n/a
2880050	RECOG_TARGET	n/a	LTP091	ltpFR	1	1	0	RAG	1160	4	0	n/a	n/a	n/a	n/a	n/a
2880880	RECOG_RESP	n/a	LTP091	ltpFR	1	1	0	RAG	1160	n/a	0	n/a	n/a	n/a	n/a	n/a
2881828	RECOG_CONF	n/a	LTP091	ltpFR	1	1	0	RAG	1160	4	0	n/a	n/a	n/a	n/a	n/a
2883287	RECOG_TARGET	n/a	LTP091	ltpFR	1	1	1	CHICKEN	297	5	1	n/a	n/a	n/a	n/a	n/a
2883973	RECOG_RESP	n/a	LTP091	ltpFR	1	1	1	CHICKEN	297	n/a	1	n/a	n/a	n/a	n/a	n/a
2885230	RECOG_CONF	n/a	LTP091	ltpFR	1	1	1	CHICKEN	297	5	1	n/a	n/a	n/a	n/a	n/a
2887490	RECOG_TARGET	n/a	LTP091	ltpFR	1	1	0	ORANGE	980	5	0	n/a	n/a	n/a	n/a	n/a
2888543	RECOG_RESP	n/a	LTP091	ltpFR	1	1	0	ORANGE	980	n/a	0	n/a	n/a	n/a	n/a	n/a
2889950	RECOG_CONF	n/a	LTP091	ltpFR	1	1	0	ORANGE	980	5	0	n/a	n/a	n/a	n/a	n/a
2891236	RECOG_TARGET	n/a	LTP091	ltpFR	1	1	1	LOAF	835	3	0	n/a	n/a	n/a	n/a	n/a
2893237	RECOG_RESP	n/a	LTP091	ltpFR	1	1	1	LOAF	835	n/a	0	n/a	n/a	n/a	n/a	n/a
2894469	RECOG_CONF	n/a	LTP091	ltpFR	1	1	1	LOAF	835	3	0	n/a	n/a	n/a	n/a	n/a
2896156	RECOG_TARGET	n/a	LTP091	ltpFR	1	1	0	LIME	823	1	0	n/a	n/a	n/a	n/a	n/a
2899218	RECOG_RESP	n/a	LTP091	ltpFR	1	1	0	LIME	823	n/a	0	n/a	n/a	n/a	n/a	n/a
2900605	RECOG_CONF	n/a	LTP091	ltpFR	1	1	0	LIME	823	1	0	n/a	n/a	n/a	n/a	n/a
2902141	RECOG_TARGET	n/a	LTP091	ltpFR	1	1	1	STAPLER	1372	2	0	n/a	n/a	n/a	n/a	n/a
2903199	RECOG_RESP	n/a	LTP091	ltpFR	1	1	1	STAPLER	1372	n/a	0	n/a	n/a	n/a	n/a	n/a
2904417	RECOG_CONF	n/a	LTP091	ltpFR	1	1	1	STAPLER	1372	2	0	n/a	n/a	n/a	n/a	n/a
2909376	REC_START	n/a	LTP091	ltpFR	1	2	n/a	n/a	n/a	n/a	n/a	n/a	n/a	n/a	n/a	n/a
2909398	RECOG_LURE	n/a	LTP091	ltpFR	1	2	n/a	WAX	1597	2	n/a	n/a	n/a	n/a	n/a	n/a
2910418	RECOG_RESP	n/a	LTP091	ltpFR	1	2	n/a	WAX	1597	n/a	n/a	n/a	n/a	n/a	n/a	n/a
2911626	RECOG_CONF	n/a	LTP091	ltpFR	1	2	n/a	WAX	1597	2	n/a	n/a	n/a	n/a	n/a	n/a
2913161	RECOG_TARGET	n/a	LTP091	ltpFR	1	2	0	CLOSET	326	2	0	n/a	n/a	n/a	n/a	n/a
2914195	RECOG_RESP	n/a	LTP091	ltpFR	1	2	0	CLOSET	326	n/a	0	n/a	n/a	n/a	n/a	n/a
2915237	RECOG_CONF	n/a	LTP091	ltpFR	1	2	0	CLOSET	326	2	0	n/a	n/a	n/a	n/a	n/a
2916807	RECOG_TARGET	n/a	LTP091	ltpFR	1	2	0	OREGANO	983	4	0	n/a	n/a	n/a	n/a	n/a
2917712	RECOG_RESP	n/a	LTP091	ltpFR	1	2	0	OREGANO	983	n/a	0	n/a	n/a	n/a	n/a	n/a
2918809	RECOG_CONF	n/a	LTP091	ltpFR	1	2	0	OREGANO	983	4	0	n/a	n/a	n/a	n/a	n/a
2920194	RECOG_TARGET	n/a	LTP091	ltpFR	1	2	1	OTTER	986	4	1	n/a	n/a	n/a	n/a	n/a
2920915	RECOG_RESP	n/a	LTP091	ltpFR	1	2	1	OTTER	986	n/a	1	n/a	n/a	n/a	n/a	n/a
2921962	RECOG_CONF	n/a	LTP091	ltpFR	1	2	1	OTTER	986	4	1	n/a	n/a	n/a	n/a	n/a
2923465	RECOG_TARGET	n/a	LTP091	ltpFR	1	2	-1	MICROSCOPE	891	5	-1	n/a	n/a	n/a	n/a	n/a
2924217	RECOG_RESP	n/a	LTP091	ltpFR	1	2	-1	MICROSCOPE	891	n/a	-1	n/a	n/a	n/a	n/a	n/a
2925155	RECOG_CONF	n/a	LTP091	ltpFR	1	2	-1	MICROSCOPE	891	5	-1	n/a	n/a	n/a	n/a	n/a
2926578	RECOG_TARGET	n/a	LTP091	ltpFR	1	2	1	DIPLOMA	470	5	0	n/a	n/a	n/a	n/a	n/a
2929156	RECOG_RESP	n/a	LTP091	ltpFR	1	2	1	DIPLOMA	470	n/a	0	n/a	n/a	n/a	n/a	n/a
2930752	RECOG_CONF	n/a	LTP091	ltpFR	1	2	1	DIPLOMA	470	5	0	n/a	n/a	n/a	n/a	n/a
2932546	RECOG_TARGET	n/a	LTP091	ltpFR	1	2	1	BRUISE	180	5	0	n/a	n/a	n/a	n/a	n/a
2933261	RECOG_RESP	n/a	LTP091	ltpFR	1	2	1	BRUISE	180	n/a	0	n/a	n/a	n/a	n/a	n/a
2934554	RECOG_CONF	n/a	LTP091	ltpFR	1	2	1	BRUISE	180	5	0	n/a	n/a	n/a	n/a	n/a
2936051	RECOG_TARGET	n/a	LTP091	ltpFR	1	2	0	RADIATOR	1156	5	0	n/a	n/a	n/a	n/a	n/a
2936838	RECOG_RESP	n/a	LTP091	ltpFR	1	2	0	RADIATOR	1156	n/a	0	n/a	n/a	n/a	n/a	n/a
2938275	RECOG_CONF	n/a	LTP091	ltpFR	1	2	0	RADIATOR	1156	5	0	n/a	n/a	n/a	n/a	n/a
2939805	RECOG_TARGET	n/a	LTP091	ltpFR	1	2	-1	EDITORIAL	517	4	-1	n/a	n/a	n/a	n/a	n/a
2940590	RECOG_RESP	n/a	LTP091	ltpFR	1	2	-1	EDITORIAL	517	n/a	-1	n/a	n/a	n/a	n/a	n/a
2941558	RECOG_CONF	n/a	LTP091	ltpFR	1	2	-1	EDITORIAL	517	4	-1	n/a	n/a	n/a	n/a	n/a
2943085	RECOG_TARGET	n/a	LTP091	ltpFR	1	2	1	AUNT	60	5	1	n/a	n/a	n/a	n/a	n/a
2943852	RECOG_RESP	n/a	LTP091	ltpFR	1	2	1	AUNT	60	n/a	1	n/a	n/a	n/a	n/a	n/a
2945020	RECOG_CONF	n/a	LTP091	ltpFR	1	2	1	AUNT	60	5	1	n/a	n/a	n/a	n/a	n/a
2946413	RECOG_TARGET	n/a	LTP091	ltpFR	1	2	-1	JOINT	758	3	-1	n/a	n/a	n/a	n/a	n/a
2947305	RECOG_RESP	n/a	LTP091	ltpFR	1	2	-1	JOINT	758	n/a	-1	n/a	n/a	n/a	n/a	n/a
2948472	RECOG_CONF	n/a	LTP091	ltpFR	1	2	-1	JOINT	758	3	-1	n/a	n/a	n/a	n/a	n/a
2949952	RECOG_TARGET	n/a	LTP091	ltpFR	1	2	1	DEPARTMENT	449	3	0	n/a	n/a	n/a	n/a	n/a
2950926	RECOG_RESP	n/a	LTP091	ltpFR	1	2	1	DEPARTMENT	449	n/a	0	n/a	n/a	n/a	n/a	n/a
2952124	RECOG_CONF	n/a	LTP091	ltpFR	1	2	1	DEPARTMENT	449	3	0	n/a	n/a	n/a	n/a	n/a
2953464	RECOG_TARGET	n/a	LTP091	ltpFR	1	2	0	PUB	1135	4	1	n/a	n/a	n/a	n/a	n/a
2954249	RECOG_RESP	n/a	LTP091	ltpFR	1	2	0	PUB	1135	n/a	1	n/a	n/a	n/a	n/a	n/a
2955576	RECOG_CONF	n/a	LTP091	ltpFR	1	2	0	PUB	1135	4	1	n/a	n/a	n/a	n/a	n/a
2957152	RECOG_TARGET	n/a	LTP091	ltpFR	1	2	1	GOOSE	649	4	1	n/a	n/a	n/a	n/a	n/a
2957856	RECOG_RESP_VV	n/a	LTP091	ltpFR	1	2	1	GOOSE	649	n/a	1	n/a	n/a	n/a	n/a	n/a
2958729	RECOG_RESP	n/a	LTP091	ltpFR	1	2	1	GOOSE	649	n/a	1	n/a	n/a	n/a	n/a	n/a
2960026	RECOG_CONF	n/a	LTP091	ltpFR	1	2	1	GOOSE	649	4	1	n/a	n/a	n/a	n/a	n/a
2961672	RECOG_TARGET	n/a	LTP091	ltpFR	1	2	0	KITE	779	5	0	n/a	n/a	n/a	n/a	n/a
2962919	RECOG_RESP	n/a	LTP091	ltpFR	1	2	0	KITE	779	n/a	0	n/a	n/a	n/a	n/a	n/a
2964156	RECOG_CONF	n/a	LTP091	ltpFR	1	2	0	KITE	779	5	0	n/a	n/a	n/a	n/a	n/a
2965709	RECOG_TARGET	n/a	LTP091	ltpFR	1	2	-1	SLACKS	1323	5	-1	n/a	n/a	n/a	n/a	n/a
2966501	RECOG_RESP	n/a	LTP091	ltpFR	1	2	-1	SLACKS	1323	n/a	-1	n/a	n/a	n/a	n/a	n/a
2967618	RECOG_CONF	n/a	LTP091	ltpFR	1	2	-1	SLACKS	1323	5	-1	n/a	n/a	n/a	n/a	n/a
2969254	RECOG_LURE	n/a	LTP091	ltpFR	1	2	n/a	FLANNEL	574	3	n/a	n/a	n/a	n/a	n/a	n/a
2971300	RECOG_RESP	n/a	LTP091	ltpFR	1	2	n/a	FLANNEL	574	n/a	n/a	n/a	n/a	n/a	n/a	n/a
2972537	RECOG_CONF	n/a	LTP091	ltpFR	1	2	n/a	FLANNEL	574	3	n/a	n/a	n/a	n/a	n/a	n/a
2973949	RECOG_TARGET	n/a	LTP091	ltpFR	1	2	-1	SAUCER	1237	5	-1	n/a	n/a	n/a	n/a	n/a
2974972	RECOG_RESP	n/a	LTP091	ltpFR	1	2	-1	SAUCER	1237	n/a	-1	n/a	n/a	n/a	n/a	n/a
2976418	RECOG_CONF	n/a	LTP091	ltpFR	1	2	-1	SAUCER	1237	5	-1	n/a	n/a	n/a	n/a	n/a
2978019	RECOG_TARGET	n/a	LTP091	ltpFR	1	2	0	CHAMBER	277	5	0	n/a	n/a	n/a	n/a	n/a
2979836	RECOG_RESP	n/a	LTP091	ltpFR	1	2	0	CHAMBER	277	n/a	0	n/a	n/a	n/a	n/a	n/a
2980938	RECOG_CONF	n/a	LTP091	ltpFR	1	2	0	CHAMBER	277	5	0	n/a	n/a	n/a	n/a	n/a
2982597	RECOG_TARGET	n/a	LTP091	ltpFR	1	2	1	TROMBONE	1508	5	0	n/a	n/a	n/a	n/a	n/a
2983363	RECOG_RESP	n/a	LTP091	ltpFR	1	2	1	TROMBONE	1508	n/a	0	n/a	n/a	n/a	n/a	n/a
2984700	RECOG_CONF	n/a	LTP091	ltpFR	1	2	1	TROMBONE	1508	5	0	n/a	n/a	n/a	n/a	n/a
2988229	REC_START	n/a	LTP091	ltpFR	1	3	n/a	n/a	n/a	n/a	n/a	n/a	n/a	n/a	n/a	n/a
2988256	RECOG_LURE	n/a	LTP091	ltpFR	1	3	n/a	MASCARA	875	4	n/a	n/a	n/a	n/a	n/a	n/a
2989251	RECOG_RESP	n/a	LTP091	ltpFR	1	3	n/a	MASCARA	875	n/a	n/a	n/a	n/a	n/a	n/a	n/a
2990239	RECOG_CONF	n/a	LTP091	ltpFR	1	3	n/a	MASCARA	875	4	n/a	n/a	n/a	n/a	n/a	n/a
2991561	RECOG_TARGET	n/a	LTP091	ltpFR	1	3	-1	HOE	711	4	-1	n/a	n/a	n/a	n/a	n/a
2992584	RECOG_RESP	n/a	LTP091	ltpFR	1	3	-1	HOE	711	n/a	-1	n/a	n/a	n/a	n/a	n/a
2993562	RECOG_CONF	n/a	LTP091	ltpFR	1	3	-1	HOE	711	4	-1	n/a	n/a	n/a	n/a	n/a
2994925	RECOG_TARGET	n/a	LTP091	ltpFR	1	3	0	CUSHION	428	3	0	n/a	n/a	n/a	n/a	n/a
2995777	RECOG_RESP	n/a	LTP091	ltpFR	1	3	0	CUSHION	428	n/a	0	n/a	n/a	n/a	n/a	n/a
2996764	RECOG_CONF	n/a	LTP091	ltpFR	1	3	0	CUSHION	428	3	0	n/a	n/a	n/a	n/a	n/a
2998038	RECOG_LURE	n/a	LTP091	ltpFR	1	3	n/a	CANDIDATE	228	2	n/a	n/a	n/a	n/a	n/a	n/a
2999039	RECOG_RESP	n/a	LTP091	ltpFR	1	3	n/a	CANDIDATE	228	n/a	n/a	n/a	n/a	n/a	n/a	n/a
3000127	RECOG_CONF	n/a	LTP091	ltpFR	1	3	n/a	CANDIDATE	228	2	n/a	n/a	n/a	n/a	n/a	n/a
3001566	RECOG_TARGET	n/a	LTP091	ltpFR	1	3	-1	GRILL	661	5	-1	n/a	n/a	n/a	n/a	n/a
3002402	RECOG_RESP	n/a	LTP091	ltpFR	1	3	-1	GRILL	661	n/a	-1	n/a	n/a	n/a	n/a	n/a
3003449	RECOG_CONF	n/a	LTP091	ltpFR	1	3	-1	GRILL	661	5	-1	n/a	n/a	n/a	n/a	n/a
3004955	RECOG_LURE	n/a	LTP091	ltpFR	1	3	n/a	TREASURE	1500	2	n/a	n/a	n/a	n/a	n/a	n/a
3005919	RECOG_RESP	n/a	LTP091	ltpFR	1	3	n/a	TREASURE	1500	n/a	n/a	n/a	n/a	n/a	n/a	n/a
3006832	RECOG_CONF	n/a	LTP091	ltpFR	1	3	n/a	TREASURE	1500	2	n/a	n/a	n/a	n/a	n/a	n/a
3008283	RECOG_LURE	n/a	LTP091	ltpFR	1	3	n/a	CHAMPAGNE	278	2	n/a	n/a	n/a	n/a	n/a	n/a
3009356	RECOG_RESP	n/a	LTP091	ltpFR	1	3	n/a	CHAMPAGNE	278	n/a	n/a	n/a	n/a	n/a	n/a	n/a
3010324	RECOG_CONF	n/a	LTP091	ltpFR	1	3	n/a	CHAMPAGNE	278	2	n/a	n/a	n/a	n/a	n/a	n/a
3011830	RECOG_LURE	n/a	LTP091	ltpFR	1	3	n/a	CRUMB	416	1	n/a	n/a	n/a	n/a	n/a	n/a
3013197	RECOG_RESP	n/a	LTP091	ltpFR	1	3	n/a	CRUMB	416	n/a	n/a	n/a	n/a	n/a	n/a	n/a
3014644	RECOG_CONF	n/a	LTP091	ltpFR	1	3	n/a	CRUMB	416	1	n/a	n/a	n/a	n/a	n/a	n/a
3016125	RECOG_TARGET	n/a	LTP091	ltpFR	1	3	1	ATTORNEY	58	2	1	n/a	n/a	n/a	n/a	n/a
3017128	RECOG_RESP	n/a	LTP091	ltpFR	1	3	1	ATTORNEY	58	n/a	1	n/a	n/a	n/a	n/a	n/a
3018176	RECOG_CONF	n/a	LTP091	ltpFR	1	3	1	ATTORNEY	58	2	1	n/a	n/a	n/a	n/a	n/a
3019587	RECOG_TARGET	n/a	LTP091	ltpFR	1	3	0	BIOLOGIST	128	4	0	n/a	n/a	n/a	n/a	n/a
3020550	RECOG_RESP	n/a	LTP091	ltpFR	1	3	0	BIOLOGIST	128	n/a	0	n/a	n/a	n/a	n/a	n/a
3021568	RECOG_CONF	n/a	LTP091	ltpFR	1	3	0	BIOLOGIST	128	4	0	n/a	n/a	n/a	n/a	n/a
3023150	RECOG_LURE	n/a	LTP091	ltpFR	1	3	n/a	POT	1114	2	n/a	n/a	n/a	n/a	n/a	n/a
3024681	RECOG_RESP	n/a	LTP091	ltpFR	1	3	n/a	POT	1114	n/a	n/a	n/a	n/a	n/a	n/a	n/a
3025818	RECOG_CONF	n/a	LTP091	ltpFR	1	3	n/a	POT	1114	2	n/a	n/a	n/a	n/a	n/a	n/a
3027311	RECOG_LURE	n/a	LTP091	ltpFR	1	3	n/a	SHIRT	1287	2	n/a	n/a	n/a	n/a	n/a	n/a
3028143	RECOG_RESP	n/a	LTP091	ltpFR	1	3	n/a	SHIRT	1287	n/a	n/a	n/a	n/a	n/a	n/a	n/a
3029161	RECOG_CONF	n/a	LTP091	ltpFR	1	3	n/a	SHIRT	1287	2	n/a	n/a	n/a	n/a	n/a	n/a
3030516	RECOG_TARGET	n/a	LTP091	ltpFR	1	3	0	HOOD	714	3	0	n/a	n/a	n/a	n/a	n/a
3031735	RECOG_RESP	n/a	LTP091	ltpFR	1	3	0	HOOD	714	n/a	0	n/a	n/a	n/a	n/a	n/a
3033112	RECOG_CONF	n/a	LTP091	ltpFR	1	3	0	HOOD	714	3	0	n/a	n/a	n/a	n/a	n/a
3034654	RECOG_TARGET	n/a	LTP091	ltpFR	1	3	0	OVAL	990	5	0	n/a	n/a	n/a	n/a	n/a
3035387	RECOG_RESP	n/a	LTP091	ltpFR	1	3	0	OVAL	990	n/a	0	n/a	n/a	n/a	n/a	n/a
3036624	RECOG_CONF	n/a	LTP091	ltpFR	1	3	0	OVAL	990	5	0	n/a	n/a	n/a	n/a	n/a
3038307	RECOG_TARGET	n/a	LTP091	ltpFR	1	3	1	NEPHEW	942	5	1	n/a	n/a	n/a	n/a	n/a
3038978	RECOG_RESP	n/a	LTP091	ltpFR	1	3	1	NEPHEW	942	n/a	1	n/a	n/a	n/a	n/a	n/a
3040026	RECOG_CONF	n/a	LTP091	ltpFR	1	3	1	NEPHEW	942	5	1	n/a	n/a	n/a	n/a	n/a
3041445	RECOG_TARGET	n/a	LTP091	ltpFR	1	3	0	SOLDIER	1344	4	0	n/a	n/a	n/a	n/a	n/a
3042111	RECOG_RESP	n/a	LTP091	ltpFR	1	3	0	SOLDIER	1344	n/a	0	n/a	n/a	n/a	n/a	n/a
3042999	RECOG_CONF	n/a	LTP091	ltpFR	1	3	0	SOLDIER	1344	4	0	n/a	n/a	n/a	n/a	n/a
3044524	RECOG_TARGET	n/a	LTP091	ltpFR	1	3	0	BUTTERFLY	206	2	0	n/a	n/a	n/a	n/a	n/a
3045424	RECOG_RESP	n/a	LTP091	ltpFR	1	3	0	BUTTERFLY	206	n/a	0	n/a	n/a	n/a	n/a	n/a
3046212	RECOG_CONF	n/a	LTP091	ltpFR	1	3	0	BUTTERFLY	206	2	0	n/a	n/a	n/a	n/a	n/a
3047571	RECOG_LURE	n/a	LTP091	ltpFR	1	3	n/a	SHARK	1275	2	n/a	n/a	n/a	n/a	n/a	n/a
3048317	RECOG_RESP	n/a	LTP091	ltpFR	1	3	n/a	SHARK	1275	n/a	n/a	n/a	n/a	n/a	n/a	n/a
3049235	RECOG_CONF	n/a	LTP091	ltpFR	1	3	n/a	SHARK	1275	2	n/a	n/a	n/a	n/a	n/a	n/a
3050743	RECOG_TARGET	n/a	LTP091	ltpFR	1	3	1	ANIMAL	23	5	1	n/a	n/a	n/a	n/a	n/a
3051410	RECOG_RESP	n/a	LTP091	ltpFR	1	3	1	ANIMAL	23	n/a	1	n/a	n/a	n/a	n/a	n/a
3052278	RECOG_CONF	n/a	LTP091	ltpFR	1	3	1	ANIMAL	23	5	1	n/a	n/a	n/a	n/a	n/a
3053547	RECOG_LURE	n/a	LTP091	ltpFR	1	3	n/a	JUNGLE	764	2	n/a	n/a	n/a	n/a	n/a	n/a
3055112	RECOG_RESP	n/a	LTP091	ltpFR	1	3	n/a	JUNGLE	764	n/a	n/a	n/a	n/a	n/a	n/a	n/a
3055880	RECOG_CONF	n/a	LTP091	ltpFR	1	3	n/a	JUNGLE	764	2	n/a	n/a	n/a	n/a	n/a	n/a
3058859	REC_START	n/a	LTP091	ltpFR	1	4	n/a	n/a	n/a	n/a	n/a	n/a	n/a	n/a	n/a	n/a
3058884	RECOG_TARGET	n/a	LTP091	ltpFR	1	4	-1	DRIVER	499	5	-1	n/a	n/a	n/a	n/a	n/a
3059592	RECOG_RESP	n/a	LTP091	ltpFR	1	4	-1	DRIVER	499	n/a	-1	n/a	n/a	n/a	n/a	n/a
3060460	RECOG_CONF	n/a	LTP091	ltpFR	1	4	-1	DRIVER	499	5	-1	n/a	n/a	n/a	n/a	n/a
3061822	RECOG_TARGET	n/a	LTP091	ltpFR	1	4	1	GARLIC	624	4	0	n/a	n/a	n/a	n/a	n/a
3062451	RECOG_RESP	n/a	LTP091	ltpFR	1	4	1	GARLIC	624	n/a	0	n/a	n/a	n/a	n/a	n/a
3063214	RECOG_CONF	n/a	LTP091	ltpFR	1	4	1	GARLIC	624	4	0	n/a	n/a	n/a	n/a	n/a
3064576	RECOG_TARGET	n/a	LTP091	ltpFR	1	4	1	APPLE	33	5	1	n/a	n/a	n/a	n/a	n/a
3065579	RECOG_RESP	n/a	LTP091	ltpFR	1	4	1	APPLE	33	n/a	1	n/a	n/a	n/a	n/a	n/a
3066606	RECOG_CONF	n/a	LTP091	ltpFR	1	4	1	APPLE	33	5	1	n/a	n/a	n/a	n/a	n/a
3067740	RECOG_LURE	n/a	LTP091	ltpFR	1	4	n/a	BLUEPRINT	142	2	n/a	n/a	n/a	n/a	n/a	n/a
3070323	RECOG_RESP	n/a	LTP091	ltpFR	1	4	n/a	BLUEPRINT	142	n/a	n/a	n/a	n/a	n/a	n/a	n/a
3071335	RECOG_CONF	n/a	LTP091	ltpFR	1	4	n/a	BLUEPRINT	142	2	n/a	n/a	n/a	n/a	n/a	n/a
3072784	RECOG_TARGET	n/a	LTP091	ltpFR	1	4	1	WAIST	1579	5	0	n/a	n/a	n/a	n/a	n/a
3073486	RECOG_RESP	n/a	LTP091	ltpFR	1	4	1	WAIST	1579	n/a	0	n/a	n/a	n/a	n/a	n/a
3074389	RECOG_CONF	n/a	LTP091	ltpFR	1	4	1	WAIST	1579	5	0	n/a	n/a	n/a	n/a	n/a
3075814	RECOG_TARGET	n/a	LTP091	ltpFR	1	4	1	SOFA	1342	3	0	n/a	n/a	n/a	n/a	n/a
3076643	RECOG_RESP	n/a	LTP091	ltpFR	1	4	1	SOFA	1342	n/a	0	n/a	n/a	n/a	n/a	n/a
3077581	RECOG_CONF	n/a	LTP091	ltpFR	1	4	1	SOFA	1342	3	0	n/a	n/a	n/a	n/a	n/a
3078960	RECOG_TARGET	n/a	LTP091	ltpFR	1	4	0	CUBE	420	5	0	n/a	n/a	n/a	n/a	n/a
3079741	RECOG_RESP	n/a	LTP091	ltpFR	1	4	0	CUBE	420	n/a	0	n/a	n/a	n/a	n/a	n/a
3080654	RECOG_CONF	n/a	LTP091	ltpFR	1	4	0	CUBE	420	5	0	n/a	n/a	n/a	n/a	n/a
3083147	RECOG_TARGET	n/a	LTP091	ltpFR	1	4	0	MOVIE	927	3	1	n/a	n/a	n/a	n/a	n/a
3083877	RECOG_RESP	n/a	LTP091	ltpFR	1	4	0	MOVIE	927	n/a	1	n/a	n/a	n/a	n/a	n/a
3085134	RECOG_CONF	n/a	LTP091	ltpFR	1	4	0	MOVIE	927	3	1	n/a	n/a	n/a	n/a	n/a
3086602	RECOG_TARGET	n/a	LTP091	ltpFR	1	4	1	DRAWER	493	4	0	n/a	n/a	n/a	n/a	n/a
3087379	RECOG_RESP	n/a	LTP091	ltpFR	1	4	1	DRAWER	493	n/a	0	n/a	n/a	n/a	n/a	n/a
3088506	RECOG_CONF	n/a	LTP091	ltpFR	1	4	1	DRAWER	493	4	0	n/a	n/a	n/a	n/a	n/a
3090064	RECOG_TARGET	n/a	LTP091	ltpFR	1	4	1	COURT	391	2	0	n/a	n/a	n/a	n/a	n/a
3090841	RECOG_RESP	n/a	LTP091	ltpFR	1	4	1	COURT	391	n/a	0	n/a	n/a	n/a	n/a	n/a
3091764	RECOG_CONF	n/a	LTP091	ltpFR	1	4	1	COURT	391	2	0	n/a	n/a	n/a	n/a	n/a
3093152	RECOG_LURE	n/a	LTP091	ltpFR	1	4	n/a	NOOSE	956	3	n/a	n/a	n/a	n/a	n/a	n/a
3094493	RECOG_RESP	n/a	LTP091	ltpFR	1	4	n/a	NOOSE	956	n/a	n/a	n/a	n/a	n/a	n/a	n/a
3095411	RECOG_CONF	n/a	LTP091	ltpFR	1	4	n/a	NOOSE	956	3	n/a	n/a	n/a	n/a	n/a	n/a
3096740	RECOG_TARGET	n/a	LTP091	ltpFR	1	4	0	GRAPE	654	2	0	n/a	n/a	n/a	n/a	n/a
3097606	RECOG_RESP	n/a	LTP091	ltpFR	1	4	0	GRAPE	654	n/a	0	n/a	n/a	n/a	n/a	n/a
3098544	RECOG_CONF	n/a	LTP091	ltpFR	1	4	0	GRAPE	654	2	0	n/a	n/a	n/a	n/a	n/a
3099886	RECOG_LURE	n/a	LTP091	ltpFR	1	4	n/a	COUCH	386	3	n/a	n/a	n/a	n/a	n/a	n/a
3100539	RECOG_RESP	n/a	LTP091	ltpFR	1	4	n/a	COUCH	386	n/a	n/a	n/a	n/a	n/a	n/a	n/a
3102116	RECOG_CONF	n/a	LTP091	ltpFR	1	4	n/a	COUCH	386	3	n/a	n/a	n/a	n/a	n/a	n/a
3103640	RECOG_LURE	n/a	LTP091	ltpFR	1	4	n/a	WINDSHIELD	1612	3	n/a	n/a	n/a	n/a	n/a	n/a
3104490	RECOG_RESP	n/a	LTP091	ltpFR	1	4	n/a	WINDSHIELD	1612	n/a	n/a	n/a	n/a	n/a	n/a	n/a
3105398	RECOG_CONF	n/a	LTP091	ltpFR	1	4	n/a	WINDSHIELD	1612	3	n/a	n/a	n/a	n/a	n/a	n/a
3106712	RECOG_TARGET	n/a	LTP091	ltpFR	1	4	1	VET	1560	5	1	n/a	n/a	n/a	n/a	n/a
3107453	RECOG_RESP	n/a	LTP091	ltpFR	1	4	1	VET	1560	n/a	1	n/a	n/a	n/a	n/a	n/a
3108551	RECOG_CONF	n/a	LTP091	ltpFR	1	4	1	VET	1560	5	1	n/a	n/a	n/a	n/a	n/a
3110091	RECOG_TARGET	n/a	LTP091	ltpFR	1	4	1	TERMINAL	1450	5	1	n/a	n/a	n/a	n/a	n/a
3110726	RECOG_RESP	n/a	LTP091	ltpFR	1	4	1	TERMINAL	1450	n/a	1	n/a	n/a	n/a	n/a	n/a
3111833	RECOG_CONF	n/a	LTP091	ltpFR	1	4	1	TERMINAL	1450	5	1	n/a	n/a	n/a	n/a	n/a
3113336	RECOG_TARGET	n/a	LTP091	ltpFR	1	4	0	DONKEY	484	2	0	n/a	n/a	n/a	n/a	n/a
3114238	RECOG_RESP	n/a	LTP091	ltpFR	1	4	0	DONKEY	484	n/a	0	n/a	n/a	n/a	n/a	n/a
3116074	RECOG_CONF	n/a	LTP091	ltpFR	1	4	0	DONKEY	484	2	0	n/a	n/a	n/a	n/a	n/a
3118098	RECOG_LURE	n/a	LTP091	ltpFR	1	4	n/a	PENCIL	1042	3	n/a	n/a	n/a	n/a	n/a	n/a
3119237	RECOG_RESP	n/a	LTP091	ltpFR	1	4	n/a	PENCIL	1042	n/a	n/a	n/a	n/a	n/a	n/a	n/a
3120224	RECOG_CONF	n/a	LTP091	ltpFR	1	4	n/a	PENCIL	1042	3	n/a	n/a	n/a	n/a	n/a	n/a
3121611	RECOG_LURE	n/a	LTP091	ltpFR	1	4	n/a	GALAXY	617	3	n/a	n/a	n/a	n/a	n/a	n/a
3124056	RECOG_RESP	n/a	LTP091	ltpFR	1	4	n/a	GALAXY	617	n/a	n/a	n/a	n/a	n/a	n/a	n/a
3125163	RECOG_CONF	n/a	LTP091	ltpFR	1	4	n/a	GALAXY	617	3	n/a	n/a	n/a	n/a	n/a	n/a
3126597	RECOG_TARGET	n/a	LTP091	ltpFR	1	4	0	SLIDE	1326	5	0	n/a	n/a	n/a	n/a	n/a
3127438	RECOG_RESP	n/a	LTP091	ltpFR	1	4	0	SLIDE	1326	n/a	0	n/a	n/a	n/a	n/a	n/a
3128795	RECOG_CONF	n/a	LTP091	ltpFR	1	4	0	SLIDE	1326	5	0	n/a	n/a	n/a	n/a	n/a
3132844	REC_START	n/a	LTP091	ltpFR	1	5	n/a	n/a	n/a	n/a	n/a	n/a	n/a	n/a	n/a	n/a
3132873	RECOG_TARGET	n/a	LTP091	ltpFR	1	5	0	TEA	1439	3	0	n/a	n/a	n/a	n/a	n/a
3133871	RECOG_RESP	n/a	LTP091	ltpFR	1	5	0	TEA	1439	n/a	0	n/a	n/a	n/a	n/a	n/a
3134904	RECOG_CONF	n/a	LTP091	ltpFR	1	5	0	TEA	1439	3	0	n/a	n/a	n/a	n/a	n/a
3136210	RECOG_TARGET	n/a	LTP091	ltpFR	1	5	0	CHEESE	289	3	0	n/a	n/a	n/a	n/a	n/a
3136949	RECOG_RESP	n/a	LTP091	ltpFR	1	5	0	CHEESE	289	n/a	0	n/a	n/a	n/a	n/a	n/a
3137788	RECOG_CONF	n/a	LTP091	ltpFR	1	5	0	CHEESE	289	3	0	n/a	n/a	n/a	n/a	n/a
3139132	RECOG_LURE	n/a	LTP091	ltpFR	1	5	n/a	MOTEL	919	3	n/a	n/a	n/a	n/a	n/a	n/a
3139843	RECOG_RESP	n/a	LTP091	ltpFR	1	5	n/a	MOTEL	919	n/a	n/a	n/a	n/a	n/a	n/a	n/a
3140751	RECOG_CONF	n/a	LTP091	ltpFR	1	5	n/a	MOTEL	919	3	n/a	n/a	n/a	n/a	n/a	n/a
3142070	RECOG_LURE	n/a	LTP091	ltpFR	1	5	n/a	LODGE	839	3	n/a	n/a	n/a	n/a	n/a	n/a
3142916	RECOG_RESP	n/a	LTP091	ltpFR	1	5	n/a	LODGE	839	n/a	n/a	n/a	n/a	n/a	n/a	n/a
3143993	RECOG_CONF	n/a	LTP091	ltpFR	1	5	n/a	LODGE	839	3	n/a	n/a	n/a	n/a	n/a	n/a
3145316	RECOG_LURE	n/a	LTP091	ltpFR	1	5	n/a	DIARY	460	3	n/a	n/a	n/a	n/a	n/a	n/a
3146129	RECOG_RESP	n/a	LTP091	ltpFR	1	5	n/a	DIARY	460	n/a	n/a	n/a	n/a	n/a	n/a	n/a
3147116	RECOG_CONF	n/a	LTP091	ltpFR	1	5	n/a	DIARY	460	3	n/a	n/a	n/a	n/a	n/a	n/a
3148587	RECOG_TARGET	n/a	LTP091	ltpFR	1	5	-1	PORPOISE	1109	5	-1	n/a	n/a	n/a	n/a	n/a
3149321	RECOG_RESP	n/a	LTP091	ltpFR	1	5	-1	PORPOISE	1109	n/a	-1	n/a	n/a	n/a	n/a	n/a
3150559	RECOG_CONF	n/a	LTP091	ltpFR	1	5	-1	PORPOISE	1109	5	-1	n/a	n/a	n/a	n/a	n/a
3152100	RECOG_LURE	n/a	LTP091	ltpFR	1	5	n/a	SAW	1239	2	n/a	n/a	n/a	n/a	n/a	n/a
3152863	RECOG_RESP	n/a	LTP091	ltpFR	1	5	n/a	SAW	1239	n/a	n/a	n/a	n/a	n/a	n/a	n/a
3153941	RECOG_CONF	n/a	LTP091	ltpFR	1	5	n/a	SAW	1239	2	n/a	n/a	n/a	n/a	n/a	n/a
3155362	RECOG_TARGET	n/a	LTP091	ltpFR	1	5	-1	DENIM	446	3	-1	n/a	n/a	n/a	n/a	n/a
3157253	RECOG_RESP	n/a	LTP091	ltpFR	1	5	-1	DENIM	446	n/a	-1	n/a	n/a	n/a	n/a	n/a
3158161	RECOG_CONF	n/a	LTP091	ltpFR	1	5	-1	DENIM	446	3	-1	n/a	n/a	n/a	n/a	n/a
3159474	RECOG_TARGET	n/a	LTP091	ltpFR	1	5	1	CLIMBER	323	4	1	n/a	n/a	n/a	n/a	n/a
3160506	RECOG_RESP	n/a	LTP091	ltpFR	1	5	1	CLIMBER	323	n/a	1	n/a	n/a	n/a	n/a	n/a
3161304	RECOG_CONF	n/a	LTP091	ltpFR	1	5	1	CLIMBER	323	4	1	n/a	n/a	n/a	n/a	n/a
3162713	RECOG_TARGET	n/a	LTP091	ltpFR	1	5	-1	AIRPLANE	12	5	-1	n/a	n/a	n/a	n/a	n/a
3163519	RECOG_RESP	n/a	LTP091	ltpFR	1	5	-1	AIRPLANE	12	n/a	-1	n/a	n/a	n/a	n/a	n/a
3164317	RECOG_CONF	n/a	LTP091	ltpFR	1	5	-1	AIRPLANE	12	5	-1	n/a	n/a	n/a	n/a	n/a
3165834	RECOG_TARGET	n/a	LTP091	ltpFR	1	5	-1	KITTEN	780	4	-1	n/a	n/a	n/a	n/a	n/a
3166552	RECOG_RESP	n/a	LTP091	ltpFR	1	5	-1	KITTEN	780	n/a	-1	n/a	n/a	n/a	n/a	n/a
3167380	RECOG_CONF	n/a	LTP091	ltpFR	1	5	-1	KITTEN	780	4	-1	n/a	n/a	n/a	n/a	n/a
3168823	RECOG_TARGET	n/a	LTP091	ltpFR	1	5	0	BEER	114	5	0	n/a	n/a	n/a	n/a	n/a
3169505	RECOG_RESP	n/a	LTP091	ltpFR	1	5	0	BEER	114	n/a	0	n/a	n/a	n/a	n/a	n/a
3170354	RECOG_CONF	n/a	LTP091	ltpFR	1	5	0	BEER	114	5	0	n/a	n/a	n/a	n/a	n/a
3171769	RECOG_LURE	n/a	LTP091	ltpFR	1	5	n/a	VISITOR	1573	3	n/a	n/a	n/a	n/a	n/a	n/a
3173481	RECOG_RESP	n/a	LTP091	ltpFR	1	5	n/a	VISITOR	1573	n/a	n/a	n/a	n/a	n/a	n/a	n/a
3174235	RECOG_CONF	n/a	LTP091	ltpFR	1	5	n/a	VISITOR	1573	3	n/a	n/a	n/a	n/a	n/a	n/a
3175606	RECOG_TARGET	n/a	LTP091	ltpFR	1	5	1	INCENSE	735	3	0	n/a	n/a	n/a	n/a	n/a
3176549	RECOG_RESP	n/a	LTP091	ltpFR	1	5	1	INCENSE	735	n/a	0	n/a	n/a	n/a	n/a	n/a
3177298	RECOG_CONF	n/a	LTP091	ltpFR	1	5	1	INCENSE	735	3	0	n/a	n/a	n/a	n/a	n/a
3178686	RECOG_TARGET	n/a	LTP091	ltpFR	1	5	-1	QUARTER	1148	5	-1	n/a	n/a	n/a	n/a	n/a
3179702	RECOG_RESP	n/a	LTP091	ltpFR	1	5	-1	QUARTER	1148	n/a	-1	n/a	n/a	n/a	n/a	n/a
3180610	RECOG_CONF	n/a	LTP091	ltpFR	1	5	-1	QUARTER	1148	5	-1	n/a	n/a	n/a	n/a	n/a
3182306	RECOG_TARGET	n/a	LTP091	ltpFR	1	5	-1	CRITIC	410	5	-1	n/a	n/a	n/a	n/a	n/a
3183105	RECOG_RESP	n/a	LTP091	ltpFR	1	5	-1	CRITIC	410	n/a	-1	n/a	n/a	n/a	n/a	n/a
3184023	RECOG_CONF	n/a	LTP091	ltpFR	1	5	-1	CRITIC	410	5	-1	n/a	n/a	n/a	n/a	n/a
3185502	RECOG_TARGET	n/a	LTP091	ltpFR	1	5	0	NOTEBOOK	959	1	0	n/a	n/a	n/a	n/a	n/a
3186357	RECOG_RESP	n/a	LTP091	ltpFR	1	5	0	NOTEBOOK	959	n/a	0	n/a	n/a	n/a	n/a	n/a
3187724	RECOG_CONF	n/a	LTP091	ltpFR	1	5	0	NOTEBOOK	959	1	0	n/a	n/a	n/a	n/a	n/a
3189157	RECOG_TARGET	n/a	LTP091	ltpFR	1	5	0	CLOTHES	327	5	0	n/a	n/a	n/a	n/a	n/a
3190927	RECOG_RESP	n/a	LTP091	ltpFR	1	5	0	CLOTHES	327	n/a	0	n/a	n/a	n/a	n/a	n/a
3192004	RECOG_CONF	n/a	LTP091	ltpFR	1	5	0	CLOTHES	327	5	0	n/a	n/a	n/a	n/a	n/a
3193611	RECOG_LURE	n/a	LTP091	ltpFR	1	5	n/a	BOSS	152	1	n/a	n/a	n/a	n/a	n/a	n/a
3194394	RECOG_RESP	n/a	LTP091	ltpFR	1	5	n/a	BOSS	152	n/a	n/a	n/a	n/a	n/a	n/a	n/a
3195536	RECOG_CONF	n/a	LTP091	ltpFR	1	5	n/a	BOSS	152	1	n/a	n/a	n/a	n/a	n/a	n/a
3196915	RECOG_LURE	n/a	LTP091	ltpFR	1	5	n/a	DRAGON	492	2	n/a	n/a	n/a	n/a	n/a	n/a
3198100	RECOG_RESP	n/a	LTP091	ltpFR	1	5	n/a	DRAGON	492	n/a	n/a	n/a	n/a	n/a	n/a	n/a
3199088	RECOG_CONF	n/a	LTP091	ltpFR	1	5	n/a	DRAGON	492	2	n/a	n/a	n/a	n/a	n/a	n/a
3207522	REC_START	n/a	LTP091	ltpFR	1	6	n/a	n/a	n/a	n/a	n/a	n/a	n/a	n/a	n/a	n/a
3207552	RECOG_TARGET	n/a	LTP091	ltpFR	1	6	0	STAR	1373	3	1	n/a	n/a	n/a	n/a	n/a
3208275	RECOG_RESP	n/a	LTP091	ltpFR	1	6	0	STAR	1373	n/a	1	n/a	n/a	n/a	n/a	n/a
3209093	RECOG_CONF	n/a	LTP091	ltpFR	1	6	0	STAR	1373	3	1	n/a	n/a	n/a	n/a	n/a
3210415	RECOG_TARGET	n/a	LTP091	ltpFR	1	6	0	TUBE	1516	5	0	n/a	n/a	n/a	n/a	n/a
3211109	RECOG_RESP	n/a	LTP091	ltpFR	1	6	0	TUBE	1516	n/a	0	n/a	n/a	n/a	n/a	n/a
3211957	RECOG_CONF	n/a	LTP091	ltpFR	1	6	0	TUBE	1516	5	0	n/a	n/a	n/a	n/a	n/a
3213195	RECOG_TARGET	n/a	LTP091	ltpFR	1	6	-1	WITNESS	1618	3	-1	n/a	n/a	n/a	n/a	n/a
3214062	RECOG_RESP	n/a	LTP091	ltpFR	1	6	-1	WITNESS	1618	n/a	-1	n/a	n/a	n/a	n/a	n/a
3214810	RECOG_CONF	n/a	LTP091	ltpFR	1	6	-1	WITNESS	1618	3	-1	n/a	n/a	n/a	n/a	n/a
3216084	RECOG_TARGET	n/a	LTP091	ltpFR	1	6	0	BUGLE	189	5	1	n/a	n/a	n/a	n/a	n/a
3217065	RECOG_RESP	n/a	LTP091	ltpFR	1	6	0	BUGLE	189	n/a	1	n/a	n/a	n/a	n/a	n/a
3217873	RECOG_CONF	n/a	LTP091	ltpFR	1	6	0	BUGLE	189	5	1	n/a	n/a	n/a	n/a	n/a
3219197	RECOG_TARGET	n/a	LTP091	ltpFR	1	6	-1	BULLET	194	5	-1	n/a	n/a	n/a	n/a	n/a
3219849	RECOG_RESP	n/a	LTP091	ltpFR	1	6	-1	BULLET	194	n/a	-1	n/a	n/a	n/a	n/a	n/a
3220447	RECOG_CONF	n/a	LTP091	ltpFR	1	6	-1	BULLET	194	5	-1	n/a	n/a	n/a	n/a	n/a
3222086	RECOG_TARGET	n/a	LTP091	ltpFR	1	6	-1	ELBOW	520	3	-1	n/a	n/a	n/a	n/a	n/a
3223151	RECOG_RESP	n/a	LTP091	ltpFR	1	6	-1	ELBOW	520	n/a	-1	n/a	n/a	n/a	n/a	n/a
3224059	RECOG_CONF	n/a	LTP091	ltpFR	1	6	-1	ELBOW	520	3	-1	n/a	n/a	n/a	n/a	n/a
3225398	RECOG_LURE	n/a	LTP091	ltpFR	1	6	n/a	BERRY	122	3	n/a	n/a	n/a	n/a	n/a	n/a
3226234	RECOG_RESP	n/a	LTP091	ltpFR	1	6	n/a	BERRY	122	n/a	n/a	n/a	n/a	n/a	n/a	n/a
3227112	RECOG_CONF	n/a	LTP091	ltpFR	1	6	n/a	BERRY	122	3	n/a	n/a	n/a	n/a	n/a	n/a
3228361	RECOG_TARGET	n/a	LTP091	ltpFR	1	6	1	COLESLAW	344	4	0	n/a	n/a	n/a	n/a	n/a
3229262	RECOG_RESP	n/a	LTP091	ltpFR	1	6	1	COLESLAW	344	n/a	0	n/a	n/a	n/a	n/a	n/a
3230165	RECOG_CONF	n/a	LTP091	ltpFR	1	6	1	COLESLAW	344	4	0	n/a	n/a	n/a	n/a	n/a
3231507	RECOG_TARGET	n/a	LTP091	ltpFR	1	6	1	HERD	705	2	0	n/a	n/a	n/a	n/a	n/a
3232550	RECOG_RESP	n/a	LTP091	ltpFR	1	6	1	HERD	705	n/a	0	n/a	n/a	n/a	n/a	n/a
3233667	RECOG_CONF	n/a	LTP091	ltpFR	1	6	1	HERD	705	2	0	n/a	n/a	n/a	n/a	n/a
3234888	RECOG_TARGET	n/a	LTP091	ltpFR	1	6	-1	SHOVEL	1295	3	-1	n/a	n/a	n/a	n/a	n/a
3235698	RECOG_RESP	n/a	LTP091	ltpFR	1	6	-1	SHOVEL	1295	n/a	-1	n/a	n/a	n/a	n/a	n/a
3236511	RECOG_CONF	n/a	LTP091	ltpFR	1	6	-1	SHOVEL	1295	3	-1	n/a	n/a	n/a	n/a	n/a
3237959	RECOG_LURE	n/a	LTP091	ltpFR	1	6	n/a	BLANKET	135	2	n/a	n/a	n/a	n/a	n/a	n/a
3239115	RECOG_RESP	n/a	LTP091	ltpFR	1	6	n/a	BLANKET	135	n/a	n/a	n/a	n/a	n/a	n/a	n/a
3239953	RECOG_CONF	n/a	LTP091	ltpFR	1	6	n/a	BLANKET	135	2	n/a	n/a	n/a	n/a	n/a	n/a
3241646	RECOG_TARGET	n/a	LTP091	ltpFR	1	6	0	WINE	1613	5	0	n/a	n/a	n/a	n/a	n/a
3242582	RECOG_RESP	n/a	LTP091	ltpFR	1	6	0	WINE	1613	n/a	0	n/a	n/a	n/a	n/a	n/a
3244124	RECOG_CONF	n/a	LTP091	ltpFR	1	6	0	WINE	1613	5	0	n/a	n/a	n/a	n/a	n/a
3245634	RECOG_TARGET	n/a	LTP091	ltpFR	1	6	0	GROCERIES	663	5	0	n/a	n/a	n/a	n/a	n/a
3246753	RECOG_RESP	n/a	LTP091	ltpFR	1	6	0	GROCERIES	663	n/a	0	n/a	n/a	n/a	n/a	n/a
3247765	RECOG_CONF	n/a	LTP091	ltpFR	1	6	0	GROCERIES	663	5	0	n/a	n/a	n/a	n/a	n/a
3249212	RECOG_TARGET	n/a	LTP091	ltpFR	1	6	1	RUBY	1214	3	0	n/a	n/a	n/a	n/a	n/a
3249920	RECOG_RESP	n/a	LTP091	ltpFR	1	6	1	RUBY	1214	n/a	0	n/a	n/a	n/a	n/a	n/a
3251018	RECOG_CONF	n/a	LTP091	ltpFR	1	6	1	RUBY	1214	3	0	n/a	n/a	n/a	n/a	n/a
3252366	RECOG_TARGET	n/a	LTP091	ltpFR	1	6	1	MAID	856	2	1	n/a	n/a	n/a	n/a	n/a
3253283	RECOG_RESP	n/a	LTP091	ltpFR	1	6	1	MAID	856	n/a	1	n/a	n/a	n/a	n/a	n/a
3254291	RECOG_CONF	n/a	LTP091	ltpFR	1	6	1	MAID	856	2	1	n/a	n/a	n/a	n/a	n/a
3255697	RECOG_TARGET	n/a	LTP091	ltpFR	1	6	1	FAMILY	550	5	1	n/a	n/a	n/a	n/a	n/a
3256366	RECOG_RESP	n/a	LTP091	ltpFR	1	6	1	FAMILY	550	n/a	1	n/a	n/a	n/a	n/a	n/a
3257194	RECOG_CONF	n/a	LTP091	ltpFR	1	6	1	FAMILY	550	5	1	n/a	n/a	n/a	n/a	n/a
3258668	RECOG_TARGET	n/a	LTP091	ltpFR	1	6	0	GULL	671	2	1	n/a	n/a	n/a	n/a	n/a
3259429	RECOG_RESP	n/a	LTP091	ltpFR	1	6	0	GULL	671	n/a	1	n/a	n/a	n/a	n/a	n/a
3260626	RECOG_CONF	n/a	LTP091	ltpFR	1	6	0	GULL	671	2	1	n/a	n/a	n/a	n/a	n/a
3261948	RECOG_TARGET	n/a	LTP091	ltpFR	1	6	0	SAILOR	1223	3	0	n/a	n/a	n/a	n/a	n/a
3262592	RECOG_RESP	n/a	LTP091	ltpFR	1	6	0	SAILOR	1223	n/a	0	n/a	n/a	n/a	n/a	n/a
3263629	RECOG_CONF	n/a	LTP091	ltpFR	1	6	0	SAILOR	1223	3	0	n/a	n/a	n/a	n/a	n/a
3264969	RECOG_TARGET	n/a	LTP091	ltpFR	1	6	1	ENGINEER	536	4	1	n/a	n/a	n/a	n/a	n/a
3266433	RECOG_RESP	n/a	LTP091	ltpFR	1	6	1	ENGINEER	536	n/a	1	n/a	n/a	n/a	n/a	n/a
3267271	RECOG_CONF	n/a	LTP091	ltpFR	1	6	1	ENGINEER	536	4	1	n/a	n/a	n/a	n/a	n/a
3268640	RECOG_LURE	n/a	LTP091	ltpFR	1	6	n/a	INTESTINE	742	4	n/a	n/a	n/a	n/a	n/a	n/a
3269606	RECOG_RESP	n/a	LTP091	ltpFR	1	6	n/a	INTESTINE	742	n/a	n/a	n/a	n/a	n/a	n/a	n/a
3270364	RECOG_CONF	n/a	LTP091	ltpFR	1	6	n/a	INTESTINE	742	4	n/a	n/a	n/a	n/a	n/a	n/a
3274059	REC_START	n/a	LTP091	ltpFR	1	7	n/a	n/a	n/a	n/a	n/a	n/a	n/a	n/a	n/a	n/a
3274084	RECOG_LURE	n/a	LTP091	ltpFR	1	7	n/a	POLE	1097	2	n/a	n/a	n/a	n/a	n/a	n/a
3275002	RECOG_RESP	n/a	LTP091	ltpFR	1	7	n/a	POLE	1097	n/a	n/a	n/a	n/a	n/a	n/a	n/a
3276199	RECOG_CONF	n/a	LTP091	ltpFR	1	7	n/a	POLE	1097	2	n/a	n/a	n/a	n/a	n/a	n/a
3277671	RECOG_TARGET	n/a	LTP091	ltpFR	1	7	0	JET	756	5	1	n/a	n/a	n/a	n/a	n/a
3278204	RECOG_RESP	n/a	LTP091	ltpFR	1	7	0	JET	756	n/a	1	n/a	n/a	n/a	n/a	n/a
3279292	RECOG_CONF	n/a	LTP091	ltpFR	1	7	0	JET	756	5	1	n/a	n/a	n/a	n/a	n/a
3280809	RECOG_TARGET	n/a	LTP091	ltpFR	1	7	1	COD	340	4	1	n/a	n/a	n/a	n/a	n/a
3281547	RECOG_RESP	n/a	LTP091	ltpFR	1	7	1	COD	340	n/a	1	n/a	n/a	n/a	n/a	n/a
3282335	RECOG_CONF	n/a	LTP091	ltpFR	1	7	1	COD	340	4	1	n/a	n/a	n/a	n/a	n/a
3283731	RECOG_TARGET	n/a	LTP091	ltpFR	1	7	0	FILM	565	4	1	n/a	n/a	n/a	n/a	n/a
3284370	RECOG_RESP	n/a	LTP091	ltpFR	1	7	0	FILM	565	n/a	1	n/a	n/a	n/a	n/a	n/a
3285208	RECOG_CONF	n/a	LTP091	ltpFR	1	7	0	FILM	565	4	1	n/a	n/a	n/a	n/a	n/a
3286543	RECOG_LURE	n/a	LTP091	ltpFR	1	7	n/a	COYOTE	396	4	n/a	n/a	n/a	n/a	n/a	n/a
3287393	RECOG_RESP	n/a	LTP091	ltpFR	1	7	n/a	COYOTE	396	n/a	n/a	n/a	n/a	n/a	n/a	n/a
3288162	RECOG_CONF	n/a	LTP091	ltpFR	1	7	n/a	COYOTE	396	4	n/a	n/a	n/a	n/a	n/a	n/a
3289532	RECOG_TARGET	n/a	LTP091	ltpFR	1	7	-1	SEAFOOD	1260	2	-1	n/a	n/a	n/a	n/a	n/a
3291454	RECOG_RESP	n/a	LTP091	ltpFR	1	7	-1	SEAFOOD	1260	n/a	-1	n/a	n/a	n/a	n/a	n/a
3292213	RECOG_CONF	n/a	LTP091	ltpFR	1	7	-1	SEAFOOD	1260	2	-1	n/a	n/a	n/a	n/a	n/a
3293603	RECOG_TARGET	n/a	LTP091	ltpFR	1	7	-1	WRITER	1627	3	-1	n/a	n/a	n/a	n/a	n/a
3294567	RECOG_RESP	n/a	LTP091	ltpFR	1	7	-1	WRITER	1627	n/a	-1	n/a	n/a	n/a	n/a	n/a
3295844	RECOG_CONF	n/a	LTP091	ltpFR	1	7	-1	WRITER	1627	3	-1	n/a	n/a	n/a	n/a	n/a
3297314	RECOG_TARGET	n/a	LTP091	ltpFR	1	7	0	PIT	1077	5	0	n/a	n/a	n/a	n/a	n/a
3299690	RECOG_CONF	n/a	LTP091	ltpFR	1	7	0	PIT	1077	5	0	n/a	n/a	n/a	n/a	n/a
3301086	RECOG_LURE	n/a	LTP091	ltpFR	1	7	n/a	COSTUME	383	2	n/a	n/a	n/a	n/a	n/a	n/a
3303347	RECOG_RESP	n/a	LTP091	ltpFR	1	7	n/a	COSTUME	383	n/a	n/a	n/a	n/a	n/a	n/a	n/a
3309773	RECOG_CONF	n/a	LTP091	ltpFR	1	7	n/a	COSTUME	383	2	n/a	n/a	n/a	n/a	n/a	n/a
3311531	RECOG_TARGET	n/a	LTP091	ltpFR	1	7	-1	DOLLAR	482	2	-1	n/a	n/a	n/a	n/a	n/a
3312247	RECOG_RESP	n/a	LTP091	ltpFR	1	7	-1	DOLLAR	482	n/a	-1	n/a	n/a	n/a	n/a	n/a
3313714	RECOG_CONF	n/a	LTP091	ltpFR	1	7	-1	DOLLAR	482	2	-1	n/a	n/a	n/a	n/a	n/a
3315218	RECOG_LURE	n/a	LTP091	ltpFR	1	7	n/a	FLEA	577	3	n/a	n/a	n/a	n/a	n/a	n/a
3316018	RECOG_RESP	n/a	LTP091	ltpFR	1	7	n/a	FLEA	577	n/a	n/a	n/a	n/a	n/a	n/a	n/a
3317266	RECOG_CONF	n/a	LTP091	ltpFR	1	7	n/a	FLEA	577	3	n/a	n/a	n/a	n/a	n/a	n/a
3318306	RECOG_TARGET	n/a	LTP091	ltpFR	1	7	0	SEASHORE	1263	2	1	n/a	n/a	n/a	n/a	n/a
3319466	RECOG_RESP	n/a	LTP091	ltpFR	1	7	0	SEASHORE	1263	n/a	1	n/a	n/a	n/a	n/a	n/a
3320929	RECOG_CONF	n/a	LTP091	ltpFR	1	7	0	SEASHORE	1263	2	1	n/a	n/a	n/a	n/a	n/a
3322468	RECOG_TARGET	n/a	LTP091	ltpFR	1	7	0	ZEBRA	1635	4	0	n/a	n/a	n/a	n/a	n/a
3322933	RECOG_RESP	n/a	LTP091	ltpFR	1	7	0	ZEBRA	1635	n/a	0	n/a	n/a	n/a	n/a	n/a
3324449	RECOG_CONF	n/a	LTP091	ltpFR	1	7	0	ZEBRA	1635	4	0	n/a	n/a	n/a	n/a	n/a
3325990	RECOG_TARGET	n/a	LTP091	ltpFR	1	7	1	WORM	1623	3	1	n/a	n/a	n/a	n/a	n/a
3328360	RECOG_RESP	n/a	LTP091	ltpFR	1	7	1	WORM	1623	n/a	1	n/a	n/a	n/a	n/a	n/a
3329977	RECOG_CONF	n/a	LTP091	ltpFR	1	7	1	WORM	1623	3	1	n/a	n/a	n/a	n/a	n/a
3331126	RECOG_TARGET	n/a	LTP091	ltpFR	1	7	0	BOTTLE	153	3	0	n/a	n/a	n/a	n/a	n/a
3332486	RECOG_RESP	n/a	LTP091	ltpFR	1	7	0	BOTTLE	153	n/a	0	n/a	n/a	n/a	n/a	n/a
3336952	RECOG_CONF	n/a	LTP091	ltpFR	1	7	0	BOTTLE	153	3	0	n/a	n/a	n/a	n/a	n/a
3339075	RECOG_TARGET	n/a	LTP091	ltpFR	1	7	0	FISH	571	2	0	n/a	n/a	n/a	n/a	n/a
3339799	RECOG_RESP	n/a	LTP091	ltpFR	1	7	0	FISH	571	n/a	0	n/a	n/a	n/a	n/a	n/a
3341081	RECOG_CONF	n/a	LTP091	ltpFR	1	7	0	FISH	571	2	0	n/a	n/a	n/a	n/a	n/a
3342754	RECOG_LURE	n/a	LTP091	ltpFR	1	7	n/a	PLIERS	1089	3	n/a	n/a	n/a	n/a	n/a	n/a
3343616	RECOG_RESP	n/a	LTP091	ltpFR	1	7	n/a	PLIERS	1089	n/a	n/a	n/a	n/a	n/a	n/a	n/a
3344594	RECOG_CONF	n/a	LTP091	ltpFR	1	7	n/a	PLIERS	1089	3	n/a	n/a	n/a	n/a	n/a	n/a
3345917	RECOG_TARGET	n/a	LTP091	ltpFR	1	7	1	COOKIE	374	3	0	n/a	n/a	n/a	n/a	n/a
3346594	RECOG_RESP	n/a	LTP091	ltpFR	1	7	1	COOKIE	374	n/a	0	n/a	n/a	n/a	n/a	n/a
3347736	RECOG_CONF	n/a	LTP091	ltpFR	1	7	1	COOKIE	374	3	0	n/a	n/a	n/a	n/a	n/a
3349147	RECOG_LURE	n/a	LTP091	ltpFR	1	7	n/a	CHECK	284	2	n/a	n/a	n/a	n/a	n/a	n/a
3349842	RECOG_RESP	n/a	LTP091	ltpFR	1	7	n/a	CHECK	284	n/a	n/a	n/a	n/a	n/a	n/a	n/a
3350879	RECOG_CONF	n/a	LTP091	ltpFR	1	7	n/a	CHECK	284	2	n/a	n/a	n/a	n/a	n/a	n/a
3352135	RECOG_TARGET	n/a	LTP091	ltpFR	1	7	0	PAINTER	1004	3	0	n/a	n/a	n/a	n/a	n/a
3353214	RECOG_RESP	n/a	LTP091	ltpFR	1	7	0	PAINTER	1004	n/a	0	n/a	n/a	n/a	n/a	n/a
3354311	RECOG_CONF	n/a	LTP091	ltpFR	1	7	0	PAINTER	1004	3	0	n/a	n/a	n/a	n/a	n/a
3360369	REC_START	n/a	LTP091	ltpFR	1	8	n/a	n/a	n/a	n/a	n/a	n/a	n/a	n/a	n/a	n/a
3360399	RECOG_LURE	n/a	LTP091	ltpFR	1	8	n/a	SHEET	1279	2	n/a	n/a	n/a	n/a	n/a	n/a
3361052	RECOG_RESP	n/a	LTP091	ltpFR	1	8	n/a	SHEET	1279	n/a	n/a	n/a	n/a	n/a	n/a	n/a
3362429	RECOG_CONF	n/a	LTP091	ltpFR	1	8	n/a	SHEET	1279	2	n/a	n/a	n/a	n/a	n/a	n/a
3363830	RECOG_TARGET	n/a	LTP091	ltpFR	1	8	0	BLUEBERRY	140	2	0	n/a	n/a	n/a	n/a	n/a
3364479	RECOG_RESP	n/a	LTP091	ltpFR	1	8	0	BLUEBERRY	140	n/a	0	n/a	n/a	n/a	n/a	n/a
3365422	RECOG_CONF	n/a	LTP091	ltpFR	1	8	0	BLUEBERRY	140	2	0	n/a	n/a	n/a	n/a	n/a
3366751	RECOG_TARGET	n/a	LTP091	ltpFR	1	8	-1	POTATO	1115	5	-1	n/a	n/a	n/a	n/a	n/a
3367368	RECOG_RESP	n/a	LTP091	ltpFR	1	8	-1	POTATO	1115	n/a	-1	n/a	n/a	n/a	n/a	n/a
3368196	RECOG_CONF	n/a	LTP091	ltpFR	1	8	-1	POTATO	1115	5	-1	n/a	n/a	n/a	n/a	n/a
3369681	RECOG_TARGET	n/a	LTP091	ltpFR	1	8	0	LIMB	822	5	0	n/a	n/a	n/a	n/a	n/a
3370301	RECOG_RESP	n/a	LTP091	ltpFR	1	8	0	LIMB	822	n/a	0	n/a	n/a	n/a	n/a	n/a
3371219	RECOG_CONF	n/a	LTP091	ltpFR	1	8	0	LIMB	822	5	0	n/a	n/a	n/a	n/a	n/a
3372728	RECOG_LURE	n/a	LTP091	ltpFR	1	8	n/a	SCREEN	1253	3	n/a	n/a	n/a	n/a	n/a	n/a
3373339	RECOG_RESP	n/a	LTP091	ltpFR	1	8	n/a	SCREEN	1253	n/a	n/a	n/a	n/a	n/a	n/a	n/a
3374332	RECOG_CONF	n/a	LTP091	ltpFR	1	8	n/a	SCREEN	1253	3	n/a	n/a	n/a	n/a	n/a	n/a
3375641	RECOG_TARGET	n/a	LTP091	ltpFR	1	8	0	CAFE	216	5	1	n/a	n/a	n/a	n/a	n/a
3376248	RECOG_RESP	n/a	LTP091	ltpFR	1	8	0	CAFE	216	n/a	1	n/a	n/a	n/a	n/a	n/a
3376966	RECOG_CONF	n/a	LTP091	ltpFR	1	8	0	CAFE	216	5	1	n/a	n/a	n/a	n/a	n/a
3378395	RECOG_LURE	n/a	LTP091	ltpFR	1	8	n/a	PILLOW	1069	4	n/a	n/a	n/a	n/a	n/a	n/a
3379341	RECOG_RESP	n/a	LTP091	ltpFR	1	8	n/a	PILLOW	1069	n/a	n/a	n/a	n/a	n/a	n/a	n/a
3380119	RECOG_CONF	n/a	LTP091	ltpFR	1	8	n/a	PILLOW	1069	4	n/a	n/a	n/a	n/a	n/a	n/a
3381466	RECOG_TARGET	n/a	LTP091	ltpFR	1	8	1	POND	1101	5	0	n/a	n/a	n/a	n/a	n/a
3384559	RECOG_RESP	n/a	LTP091	ltpFR	1	8	1	POND	1101	n/a	0	n/a	n/a	n/a	n/a	n/a
3385437	RECOG_CONF	n/a	LTP091	ltpFR	1	8	1	POND	1101	5	0	n/a	n/a	n/a	n/a	n/a
3386944	RECOG_TARGET	n/a	LTP091	ltpFR	1	8	1	SHOULDER	1294	4	1	n/a	n/a	n/a	n/a	n/a
3387592	RECOG_RESP	n/a	LTP091	ltpFR	1	8	1	SHOULDER	1294	n/a	1	n/a	n/a	n/a	n/a	n/a
3388370	RECOG_CONF	n/a	LTP091	ltpFR	1	8	1	SHOULDER	1294	4	1	n/a	n/a	n/a	n/a	n/a
3389816	RECOG_LURE	n/a	LTP091	ltpFR	1	8	n/a	FENCE	560	3	n/a	n/a	n/a	n/a	n/a	n/a
3390565	RECOG_RESP	n/a	LTP091	ltpFR	1	8	n/a	FENCE	560	n/a	n/a	n/a	n/a	n/a	n/a	n/a
3391323	RECOG_CONF	n/a	LTP091	ltpFR	1	8	n/a	FENCE	560	3	n/a	n/a	n/a	n/a	n/a	n/a
3392578	RECOG_LURE	n/a	LTP091	ltpFR	1	8	n/a	CARPET	247	2	n/a	n/a	n/a	n/a	n/a	n/a
3393508	RECOG_RESP	n/a	LTP091	ltpFR	1	8	n/a	CARPET	247	n/a	n/a	n/a	n/a	n/a	n/a	n/a
3394267	RECOG_CONF	n/a	LTP091	ltpFR	1	8	n/a	CARPET	247	2	n/a	n/a	n/a	n/a	n/a	n/a
3395626	RECOG_TARGET	n/a	LTP091	ltpFR	1	8	1	ACTRESS	6	3	1	n/a	n/a	n/a	n/a	n/a
3396681	RECOG_RESP	n/a	LTP091	ltpFR	1	8	1	ACTRESS	6	n/a	1	n/a	n/a	n/a	n/a	n/a
3397390	RECOG_CONF	n/a	LTP091	ltpFR	1	8	1	ACTRESS	6	3	1	n/a	n/a	n/a	n/a	n/a
3398731	RECOG_TARGET	n/a	LTP091	ltpFR	1	8	-1	EYELASH	546	4	-1	n/a	n/a	n/a	n/a	n/a
3399759	RECOG_RESP	n/a	LTP091	ltpFR	1	8	-1	EYELASH	546	n/a	-1	n/a	n/a	n/a	n/a	n/a
3401251	RECOG_CONF	n/a	LTP091	ltpFR	1	8	-1	EYELASH	546	4	-1	n/a	n/a	n/a	n/a	n/a
3402784	RECOG_TARGET	n/a	LTP091	ltpFR	1	8	1	TRICYCLE	1506	3	0	n/a	n/a	n/a	n/a	n/a
3403675	RECOG_RESP	n/a	LTP091	ltpFR	1	8	1	TRICYCLE	1506	n/a	0	n/a	n/a	n/a	n/a	n/a
3404773	RECOG_CONF	n/a	LTP091	ltpFR	1	8	1	TRICYCLE	1506	3	0	n/a	n/a	n/a	n/a	n/a
3406155	RECOG_TARGET	n/a	LTP091	ltpFR	1	8	1	CHAIN	273	4	0	n/a	n/a	n/a	n/a	n/a
3406998	RECOG_RESP	n/a	LTP091	ltpFR	1	8	1	CHAIN	273	n/a	0	n/a	n/a	n/a	n/a	n/a
3407976	RECOG_CONF	n/a	LTP091	ltpFR	1	8	1	CHAIN	273	4	0	n/a	n/a	n/a	n/a	n/a
3409467	RECOG_TARGET	n/a	LTP091	ltpFR	1	8	-1	BUTTON	207	5	-1	n/a	n/a	n/a	n/a	n/a
3410211	RECOG_RESP	n/a	LTP091	ltpFR	1	8	-1	BUTTON	207	n/a	-1	n/a	n/a	n/a	n/a	n/a
3410989	RECOG_CONF	n/a	LTP091	ltpFR	1	8	-1	BUTTON	207	5	-1	n/a	n/a	n/a	n/a	n/a
3412389	RECOG_TARGET	n/a	LTP091	ltpFR	1	8	0	GAZELLE	628	5	0	n/a	n/a	n/a	n/a	n/a
3413438	RECOG_RESP	n/a	LTP091	ltpFR	1	8	0	GAZELLE	628	n/a	0	n/a	n/a	n/a	n/a	n/a
3414122	RECOG_CONF	n/a	LTP091	ltpFR	1	8	0	GAZELLE	628	5	0	n/a	n/a	n/a	n/a	n/a
3415577	RECOG_TARGET	n/a	LTP091	ltpFR	1	8	0	APPENDAGE	32	2	0	n/a	n/a	n/a	n/a	n/a
3416726	RECOG_RESP	n/a	LTP091	ltpFR	1	8	0	APPENDAGE	32	n/a	0	n/a	n/a	n/a	n/a	n/a
3417733	RECOG_CONF	n/a	LTP091	ltpFR	1	8	0	APPENDAGE	32	2	0	n/a	n/a	n/a	n/a	n/a
3419173	RECOG_TARGET	n/a	LTP091	ltpFR	1	8	-1	FRAGRANCE	599	5	-1	n/a	n/a	n/a	n/a	n/a
3419908	RECOG_RESP	n/a	LTP091	ltpFR	1	8	-1	FRAGRANCE	599	n/a	-1	n/a	n/a	n/a	n/a	n/a
3420896	RECOG_CONF	n/a	LTP091	ltpFR	1	8	-1	FRAGRANCE	599	5	-1	n/a	n/a	n/a	n/a	n/a
3422236	RECOG_LURE	n/a	LTP091	ltpFR	1	8	n/a	BOOT	150	2	n/a	n/a	n/a	n/a	n/a	n/a
3423411	RECOG_RESP	n/a	LTP091	ltpFR	1	8	n/a	BOOT	150	n/a	n/a	n/a	n/a	n/a	n/a	n/a
3424468	RECOG_CONF	n/a	LTP091	ltpFR	1	8	n/a	BOOT	150	2	n/a	n/a	n/a	n/a	n/a	n/a
3451294	REC_START	n/a	LTP091	ltpFR	1	9	n/a	n/a	n/a	n/a	n/a	n/a	n/a	n/a	n/a	n/a
3451327	RECOG_LURE	n/a	LTP091	ltpFR	1	9	n/a	COMMUNITY	356	2	n/a	n/a	n/a	n/a	n/a	n/a
3452267	RECOG_RESP	n/a	LTP091	ltpFR	1	9	n/a	COMMUNITY	356	n/a	n/a	n/a	n/a	n/a	n/a	n/a
3453224	RECOG_CONF	n/a	LTP091	ltpFR	1	9	n/a	COMMUNITY	356	2	n/a	n/a	n/a	n/a	n/a	n/a
3454581	RECOG_TARGET	n/a	LTP091	ltpFR	1	9	1	BEAST	108	2	1	n/a	n/a	n/a	n/a	n/a
3455809	RECOG_RESP	n/a	LTP091	ltpFR	1	9	1	BEAST	108	n/a	1	n/a	n/a	n/a	n/a	n/a
3456846	RECOG_CONF	n/a	LTP091	ltpFR	1	9	1	BEAST	108	2	1	n/a	n/a	n/a	n/a	n/a
3458377	RECOG_TARGET	n/a	LTP091	ltpFR	1	9	1	DORM	488	5	0	n/a	n/a	n/a	n/a	n/a
3460119	RECOG_RESP	n/a	LTP091	ltpFR	1	9	1	DORM	488	n/a	0	n/a	n/a	n/a	n/a	n/a
3460997	RECOG_CONF	n/a	LTP091	ltpFR	1	9	1	DORM	488	5	0	n/a	n/a	n/a	n/a	n/a
3462481	RECOG_TARGET	n/a	LTP091	ltpFR	1	9	0	PRUNE	1134	4	0	n/a	n/a	n/a	n/a	n/a
3463711	RECOG_RESP	n/a	LTP091	ltpFR	1	9	0	PRUNE	1134	n/a	0	n/a	n/a	n/a	n/a	n/a
3464469	RECOG_CONF	n/a	LTP091	ltpFR	1	9	0	PRUNE	1134	4	0	n/a	n/a	n/a	n/a	n/a
3465928	RECOG_LURE	n/a	LTP091	ltpFR	1	9	n/a	CALF	222	2	n/a	n/a	n/a	n/a	n/a	n/a
3466754	RECOG_RESP	n/a	LTP091	ltpFR	1	9	n/a	CALF	222	n/a	n/a	n/a	n/a	n/a	n/a	n/a
3467622	RECOG_CONF	n/a	LTP091	ltpFR	1	9	n/a	CALF	222	2	n/a	n/a	n/a	n/a	n/a	n/a
3469032	RECOG_LURE	n/a	LTP091	ltpFR	1	9	n/a	VOLUNTEER	1577	3	n/a	n/a	n/a	n/a	n/a	n/a
3469797	RECOG_RESP	n/a	LTP091	ltpFR	1	9	n/a	VOLUNTEER	1577	n/a	n/a	n/a	n/a	n/a	n/a	n/a
3470387	RECOG_CONF	n/a	LTP091	ltpFR	1	9	n/a	VOLUNTEER	1577	3	n/a	n/a	n/a	n/a	n/a	n/a
3472269	RECOG_LURE	n/a	LTP091	ltpFR	1	9	n/a	TELEPHONE	1445	2	n/a	n/a	n/a	n/a	n/a	n/a
3472950	RECOG_RESP	n/a	LTP091	ltpFR	1	9	n/a	TELEPHONE	1445	n/a	n/a	n/a	n/a	n/a	n/a	n/a
3473788	RECOG_CONF	n/a	LTP091	ltpFR	1	9	n/a	TELEPHONE	1445	2	n/a	n/a	n/a	n/a	n/a	n/a
3475159	RECOG_LURE	n/a	LTP091	ltpFR	1	9	n/a	COLLEGE	346	3	n/a	n/a	n/a	n/a	n/a	n/a
3476023	RECOG_RESP	n/a	LTP091	ltpFR	1	9	n/a	COLLEGE	346	n/a	n/a	n/a	n/a	n/a	n/a	n/a
3476841	RECOG_CONF	n/a	LTP091	ltpFR	1	9	n/a	COLLEGE	346	3	n/a	n/a	n/a	n/a	n/a	n/a
3478122	RECOG_TARGET	n/a	LTP091	ltpFR	1	9	0	FUR	615	5	0	n/a	n/a	n/a	n/a	n/a
3478986	RECOG_RESP	n/a	LTP091	ltpFR	1	9	0	FUR	615	n/a	0	n/a	n/a	n/a	n/a	n/a
3479784	RECOG_CONF	n/a	LTP091	ltpFR	1	9	0	FUR	615	5	0	n/a	n/a	n/a	n/a	n/a
3481217	RECOG_TARGET	n/a	LTP091	ltpFR	1	9	0	JUG	762	5	0	n/a	n/a	n/a	n/a	n/a
3482947	RECOG_RESP	n/a	LTP091	ltpFR	1	9	0	JUG	762	n/a	0	n/a	n/a	n/a	n/a	n/a
3483745	RECOG_CONF	n/a	LTP091	ltpFR	1	9	0	JUG	762	5	0	n/a	n/a	n/a	n/a	n/a
3485204	RECOG_LURE	n/a	LTP091	ltpFR	1	9	n/a	WAITER	1580	5	n/a	n/a	n/a	n/a	n/a	n/a
3485780	RECOG_RESP	n/a	LTP091	ltpFR	1	9	n/a	WAITER	1580	n/a	n/a	n/a	n/a	n/a	n/a	n/a
3486469	RECOG_CONF	n/a	LTP091	ltpFR	1	9	n/a	WAITER	1580	5	n/a	n/a	n/a	n/a	n/a	n/a
3488069	RECOG_LURE	n/a	LTP091	ltpFR	1	9	n/a	DOLPHIN	483	1	n/a	n/a	n/a	n/a	n/a	n/a
3489003	RECOG_RESP	n/a	LTP091	ltpFR	1	9	n/a	DOLPHIN	483	n/a	n/a	n/a	n/a	n/a	n/a	n/a
3490390	RECOG_CONF	n/a	LTP091	ltpFR	1	9	n/a	DOLPHIN	483	1	n/a	n/a	n/a	n/a	n/a	n/a
3491823	RECOG_TARGET	n/a	LTP091	ltpFR	1	9	1	CABINET	212	1	0	n/a	n/a	n/a	n/a	n/a
3492959	RECOG_RESP	n/a	LTP091	ltpFR	1	9	1	CABINET	212	n/a	0	n/a	n/a	n/a	n/a	n/a
3494052	RECOG_CONF	n/a	LTP091	ltpFR	1	9	1	CABINET	212	1	0	n/a	n/a	n/a	n/a	n/a
3495451	RECOG_TARGET	n/a	LTP091	ltpFR	1	9	0	FREEWAY	603	4	1	n/a	n/a	n/a	n/a	n/a
3496257	RECOG_RESP	n/a	LTP091	ltpFR	1	9	0	FREEWAY	603	n/a	1	n/a	n/a	n/a	n/a	n/a
3497125	RECOG_CONF	n/a	LTP091	ltpFR	1	9	0	FREEWAY	603	4	1	n/a	n/a	n/a	n/a	n/a
3498514	RECOG_LURE	n/a	LTP091	ltpFR	1	9	n/a	LOBBY	836	4	n/a	n/a	n/a	n/a	n/a	n/a
3499185	RECOG_RESP	n/a	LTP091	ltpFR	1	9	n/a	LOBBY	836	n/a	n/a	n/a	n/a	n/a	n/a	n/a
3500527	RECOG_CONF	n/a	LTP091	ltpFR	1	9	n/a	LOBBY	836	4	n/a	n/a	n/a	n/a	n/a	n/a
3501669	RECOG_LURE	n/a	LTP091	ltpFR	1	9	n/a	TWIG	1527	3	n/a	n/a	n/a	n/a	n/a	n/a
3502921	RECOG_RESP	n/a	LTP091	ltpFR	1	9	n/a	TWIG	1527	n/a	n/a	n/a	n/a	n/a	n/a	n/a
3504019	RECOG_CONF	n/a	LTP091	ltpFR	1	9	n/a	TWIG	1527	3	n/a	n/a	n/a	n/a	n/a	n/a
3505464	RECOG_TARGET	n/a	LTP091	ltpFR	1	9	0	DRESSER	496	5	1	n/a	n/a	n/a	n/a	n/a
3506478	RECOG_RESP	n/a	LTP091	ltpFR	1	9	0	DRESSER	496	n/a	1	n/a	n/a	n/a	n/a	n/a
3507561	RECOG_CONF	n/a	LTP091	ltpFR	1	9	0	DRESSER	496	5	1	n/a	n/a	n/a	n/a	n/a
3509218	RECOG_TARGET	n/a	LTP091	ltpFR	1	9	-1	ANTEATER	26	2	-1	n/a	n/a	n/a	n/a	n/a
3510195	RECOG_RESP	n/a	LTP091	ltpFR	1	9	-1	ANTEATER	26	n/a	-1	n/a	n/a	n/a	n/a	n/a
3511662	RECOG_CONF	n/a	LTP091	ltpFR	1	9	-1	ANTEATER	26	2	-1	n/a	n/a	n/a	n/a	n/a
3513031	RECOG_TARGET	n/a	LTP091	ltpFR	1	9	1	RIVER	1194	3	0	n/a	n/a	n/a	n/a	n/a
3514106	RECOG_RESP	n/a	LTP091	ltpFR	1	9	1	RIVER	1194	n/a	0	n/a	n/a	n/a	n/a	n/a
3516301	RECOG_CONF	n/a	LTP091	ltpFR	1	9	1	RIVER	1194	3	0	n/a	n/a	n/a	n/a	n/a
3517693	RECOG_TARGET	n/a	LTP091	ltpFR	1	9	0	VESSEL	1558	4	1	n/a	n/a	n/a	n/a	n/a
3518556	RECOG_RESP	n/a	LTP091	ltpFR	1	9	0	VESSEL	1558	n/a	1	n/a	n/a	n/a	n/a	n/a
3519703	RECOG_CONF	n/a	LTP091	ltpFR	1	9	0	VESSEL	1558	4	1	n/a	n/a	n/a	n/a	n/a
3526992	REC_START	n/a	LTP091	ltpFR	1	10	n/a	n/a	n/a	n/a	n/a	n/a	n/a	n/a	n/a	n/a
3527023	RECOG_TARGET	n/a	LTP091	ltpFR	1	10	-1	SWAMP	1416	5	-1	n/a	n/a	n/a	n/a	n/a
3527865	RECOG_RESP	n/a	LTP091	ltpFR	1	10	-1	SWAMP	1416	n/a	-1	n/a	n/a	n/a	n/a	n/a
3529022	RECOG_CONF	n/a	LTP091	ltpFR	1	10	-1	SWAMP	1416	5	-1	n/a	n/a	n/a	n/a	n/a
3530593	RECOG_LURE	n/a	LTP091	ltpFR	1	10	n/a	GYMNAST	675	2	n/a	n/a	n/a	n/a	n/a	n/a
3531776	RECOG_RESP	n/a	LTP091	ltpFR	1	10	n/a	GYMNAST	675	n/a	n/a	n/a	n/a	n/a	n/a	n/a
3532973	RECOG_CONF	n/a	LTP091	ltpFR	1	10	n/a	GYMNAST	675	2	n/a	n/a	n/a	n/a	n/a	n/a
3534197	RECOG_TARGET	n/a	LTP091	ltpFR	1	10	0	CAPTIVE	240	5	0	n/a	n/a	n/a	n/a	n/a
3534819	RECOG_RESP	n/a	LTP091	ltpFR	1	10	0	CAPTIVE	240	n/a	0	n/a	n/a	n/a	n/a	n/a
3535887	RECOG_CONF	n/a	LTP091	ltpFR	1	10	0	CAPTIVE	240	5	0	n/a	n/a	n/a	n/a	n/a
3537269	RECOG_LURE	n/a	LTP091	ltpFR	1	10	n/a	PUDDING	1139	5	n/a	n/a	n/a	n/a	n/a	n/a
3537922	RECOG_RESP	n/a	LTP091	ltpFR	1	10	n/a	PUDDING	1139	n/a	n/a	n/a	n/a	n/a	n/a	n/a
3540935	RECOG_CONF	n/a	LTP091	ltpFR	1	10	n/a	PUDDING	1139	5	n/a	n/a	n/a	n/a	n/a	n/a
3542413	RECOG_TARGET	n/a	LTP091	ltpFR	1	10	0	MALL	860	4	1	n/a	n/a	n/a	n/a	n/a
3543569	RECOG_RESP	n/a	LTP091	ltpFR	1	10	0	MALL	860	n/a	1	n/a	n/a	n/a	n/a	n/a
3544537	RECOG_CONF	n/a	LTP091	ltpFR	1	10	0	MALL	860	4	1	n/a	n/a	n/a	n/a	n/a
3545993	RECOG_TARGET	n/a	LTP091	ltpFR	1	10	1	PROFESSOR	1131	5	1	n/a	n/a	n/a	n/a	n/a
3546612	RECOG_RESP	n/a	LTP091	ltpFR	1	10	1	PROFESSOR	1131	n/a	1	n/a	n/a	n/a	n/a	n/a
3547510	RECOG_CONF	n/a	LTP091	ltpFR	1	10	1	PROFESSOR	1131	5	1	n/a	n/a	n/a	n/a	n/a
3548715	RECOG_TARGET	n/a	LTP091	ltpFR	1	10	1	LIVER	833	5	1	n/a	n/a	n/a	n/a	n/a
3549341	RECOG_RESP	n/a	LTP091	ltpFR	1	10	1	LIVER	833	n/a	1	n/a	n/a	n/a	n/a	n/a
3550254	RECOG_CONF	n/a	LTP091	ltpFR	1	10	1	LIVER	833	5	1	n/a	n/a	n/a	n/a	n/a
3551770	RECOG_TARGET	n/a	LTP091	ltpFR	1	10	1	DAGGER	434	5	0	n/a	n/a	n/a	n/a	n/a
3552379	RECOG_RESP	n/a	LTP091	ltpFR	1	10	1	DAGGER	434	n/a	0	n/a	n/a	n/a	n/a	n/a
3553337	RECOG_CONF	n/a	LTP091	ltpFR	1	10	1	DAGGER	434	5	0	n/a	n/a	n/a	n/a	n/a
3554841	RECOG_TARGET	n/a	LTP091	ltpFR	1	10	1	ADULT	8	5	1	n/a	n/a	n/a	n/a	n/a
3555492	RECOG_RESP	n/a	LTP091	ltpFR	1	10	1	ADULT	8	n/a	1	n/a	n/a	n/a	n/a	n/a
3556510	RECOG_CONF	n/a	LTP091	ltpFR	1	10	1	ADULT	8	5	1	n/a	n/a	n/a	n/a	n/a
3558244	RECOG_TARGET	n/a	LTP091	ltpFR	1	10	1	PARROT	1015	4	1	n/a	n/a	n/a	n/a	n/a
3559044	RECOG_RESP	n/a	LTP091	ltpFR	1	10	1	PARROT	1015	n/a	1	n/a	n/a	n/a	n/a	n/a
3559982	RECOG_CONF	n/a	LTP091	ltpFR	1	10	1	PARROT	1015	4	1	n/a	n/a	n/a	n/a	n/a
3561416	RECOG_TARGET	n/a	LTP091	ltpFR	1	10	0	CENT	270	4	0	n/a	n/a	n/a	n/a	n/a
3562192	RECOG_RESP	n/a	LTP091	ltpFR	1	10	0	CENT	270	n/a	0	n/a	n/a	n/a	n/a	n/a
3563145	RECOG_CONF	n/a	LTP091	ltpFR	1	10	0	CENT	270	4	0	n/a	n/a	n/a	n/a	n/a
3564562	RECOG_TARGET	n/a	LTP091	ltpFR	1	10	-1	JEANS	752	4	-1	n/a	n/a	n/a	n/a	n/a
3565210	RECOG_RESP	n/a	LTP091	ltpFR	1	10	-1	JEANS	752	n/a	-1	n/a	n/a	n/a	n/a	n/a
3566138	RECOG_CONF	n/a	LTP091	ltpFR	1	10	-1	JEANS	752	4	-1	n/a	n/a	n/a	n/a	n/a
3567542	RECOG_TARGET	n/a	LTP091	ltpFR	1	10	-1	BIBLE	124	5	-1	n/a	n/a	n/a	n/a	n/a
3568637	RECOG_RESP	n/a	LTP091	ltpFR	1	10	-1	BIBLE	124	n/a	-1	n/a	n/a	n/a	n/a	n/a
3569480	RECOG_CONF	n/a	LTP091	ltpFR	1	10	-1	BIBLE	124	5	-1	n/a	n/a	n/a	n/a	n/a
3570989	RECOG_TARGET	n/a	LTP091	ltpFR	1	10	0	BEAVER	109	5	0	n/a	n/a	n/a	n/a	n/a
3571610	RECOG_RESP	n/a	LTP091	ltpFR	1	10	0	BEAVER	109	n/a	0	n/a	n/a	n/a	n/a	n/a
3572593	RECOG_CONF	n/a	LTP091	ltpFR	1	10	0	BEAVER	109	5	0	n/a	n/a	n/a	n/a	n/a
3574217	RECOG_TARGET	n/a	LTP091	ltpFR	1	10	1	ASPIRIN	47	5	0	n/a	n/a	n/a	n/a	n/a
3575028	RECOG_RESP	n/a	LTP091	ltpFR	1	10	1	ASPIRIN	47	n/a	0	n/a	n/a	n/a	n/a	n/a
3575786	RECOG_CONF	n/a	LTP091	ltpFR	1	10	1	ASPIRIN	47	5	0	n/a	n/a	n/a	n/a	n/a
3577272	RECOG_TARGET	n/a	LTP091	ltpFR	1	10	0	DISC	473	4	0	n/a	n/a	n/a	n/a	n/a
3578510	RECOG_RESP	n/a	LTP091	ltpFR	1	10	0	DISC	473	n/a	0	n/a	n/a	n/a	n/a	n/a
3579238	RECOG_CONF	n/a	LTP091	ltpFR	1	10	0	DISC	473	4	0	n/a	n/a	n/a	n/a	n/a
3580728	RECOG_TARGET	n/a	LTP091	ltpFR	1	10	1	BARLEY	88	4	1	n/a	n/a	n/a	n/a	n/a
3581383	RECOG_RESP	n/a	LTP091	ltpFR	1	10	1	BARLEY	88	n/a	1	n/a	n/a	n/a	n/a	n/a
3582191	RECOG_CONF	n/a	LTP091	ltpFR	1	10	1	BARLEY	88	4	1	n/a	n/a	n/a	n/a	n/a
3583624	RECOG_TARGET	n/a	LTP091	ltpFR	1	10	-1	CANARY	227	5	-1	n/a	n/a	n/a	n/a	n/a
3584466	RECOG_RESP	n/a	LTP091	ltpFR	1	10	-1	CANARY	227	n/a	-1	n/a	n/a	n/a	n/a	n/a
3585254	RECOG_CONF	n/a	LTP091	ltpFR	1	10	-1	CANARY	227	5	-1	n/a	n/a	n/a	n/a	n/a
3586746	RECOG_TARGET	n/a	LTP091	ltpFR	1	10	0	JACKET	747	4	0	n/a	n/a	n/a	n/a	n/a
3587300	RECOG_RESP	n/a	LTP091	ltpFR	1	10	0	JACKET	747	n/a	0	n/a	n/a	n/a	n/a	n/a
3588058	RECOG_CONF	n/a	LTP091	ltpFR	1	10	0	JACKET	747	4	0	n/a	n/a	n/a	n/a	n/a
3589525	RECOG_TARGET	n/a	LTP091	ltpFR	1	10	1	CANNON	232	4	0	n/a	n/a	n/a	n/a	n/a
3590103	RECOG_RESP	n/a	LTP091	ltpFR	1	10	1	CANNON	232	n/a	0	n/a	n/a	n/a	n/a	n/a
3591261	RECOG_CONF	n/a	LTP091	ltpFR	1	10	1	CANNON	232	4	0	n/a	n/a	n/a	n/a	n/a
3597982	REC_START	n/a	LTP091	ltpFR	1	11	n/a	n/a	n/a	n/a	n/a	n/a	n/a	n/a	n/a	n/a
3598008	RECOG_TARGET	n/a	LTP091	ltpFR	1	11	-1	HAWK	692	4	-1	n/a	n/a	n/a	n/a	n/a
3598695	RECOG_RESP	n/a	LTP091	ltpFR	1	11	-1	HAWK	692	n/a	-1	n/a	n/a	n/a	n/a	n/a
3599493	RECOG_CONF	n/a	LTP091	ltpFR	1	11	-1	HAWK	692	4	-1	n/a	n/a	n/a	n/a	n/a
3600879	RECOG_TARGET	n/a	LTP091	ltpFR	1	11	0	CHEDDAR	286	5	0	n/a	n/a	n/a	n/a	n/a
3601698	RECOG_RESP	n/a	LTP091	ltpFR	1	11	0	CHEDDAR	286	n/a	0	n/a	n/a	n/a	n/a	n/a
3602367	RECOG_CONF	n/a	LTP091	ltpFR	1	11	0	CHEDDAR	286	5	0	n/a	n/a	n/a	n/a	n/a
3603984	RECOG_LURE	n/a	LTP091	ltpFR	1	11	n/a	CAPTAIN	239	4	n/a	n/a	n/a	n/a	n/a	n/a
3607166	RECOG_RESP	n/a	LTP091	ltpFR	1	11	n/a	CAPTAIN	239	n/a	n/a	n/a	n/a	n/a	n/a	n/a
3608100	RECOG_CONF	n/a	LTP091	ltpFR	1	11	n/a	CAPTAIN	239	4	n/a	n/a	n/a	n/a	n/a	n/a
3609686	RECOG_LURE	n/a	LTP091	ltpFR	1	11	n/a	PUPIL	1143	4	n/a	n/a	n/a	n/a	n/a	n/a
3611112	RECOG_RESP	n/a	LTP091	ltpFR	1	11	n/a	PUPIL	1143	n/a	n/a	n/a	n/a	n/a	n/a	n/a
3611945	RECOG_CONF	n/a	LTP091	ltpFR	1	11	n/a	PUPIL	1143	4	n/a	n/a	n/a	n/a	n/a	n/a
3613422	RECOG_TARGET	n/a	LTP091	ltpFR	1	11	1	TAXI	1438	4	0	n/a	n/a	n/a	n/a	n/a
3614140	RECOG_RESP	n/a	LTP091	ltpFR	1	11	1	TAXI	1438	n/a	0	n/a	n/a	n/a	n/a	n/a
3614928	RECOG_CONF	n/a	LTP091	ltpFR	1	11	1	TAXI	1438	4	0	n/a	n/a	n/a	n/a	n/a
3616418	RECOG_TARGET	n/a	LTP091	ltpFR	1	11	-1	KNEE	784	2	-1	n/a	n/a	n/a	n/a	n/a
3617133	RECOG_RESP	n/a	LTP091	ltpFR	1	11	-1	KNEE	784	n/a	-1	n/a	n/a	n/a	n/a	n/a
3618051	RECOG_CONF	n/a	LTP091	ltpFR	1	11	-1	KNEE	784	2	-1	n/a	n/a	n/a	n/a	n/a
3619365	RECOG_TARGET	n/a	LTP091	ltpFR	1	11	-1	COURSE	390	3	-1	n/a	n/a	n/a	n/a	n/a
3620945	RECOG_RESP	n/a	LTP091	ltpFR	1	11	-1	COURSE	390	n/a	-1	n/a	n/a	n/a	n/a	n/a
3621673	RECOG_CONF	n/a	LTP091	ltpFR	1	11	-1	COURSE	390	3	-1	n/a	n/a	n/a	n/a	n/a
3623202	RECOG_TARGET	n/a	LTP091	ltpFR	1	11	1	BLUEJAY	141	2	1	n/a	n/a	n/a	n/a	n/a
3623968	RECOG_RESP	n/a	LTP091	ltpFR	1	11	1	BLUEJAY	141	n/a	1	n/a	n/a	n/a	n/a	n/a
3624886	RECOG_CONF	n/a	LTP091	ltpFR	1	11	1	BLUEJAY	141	2	1	n/a	n/a	n/a	n/a	n/a
3626324	RECOG_LURE	n/a	LTP091	ltpFR	1	11	n/a	UMBRELLA	1534	2	n/a	n/a	n/a	n/a	n/a	n/a
3629445	RECOG_RESP	n/a	LTP091	ltpFR	1	11	n/a	UMBRELLA	1534	n/a	n/a	n/a	n/a	n/a	n/a	n/a
3630463	RECOG_CONF	n/a	LTP091	ltpFR	1	11	n/a	UMBRELLA	1534	2	n/a	n/a	n/a	n/a	n/a	n/a
3632001	RECOG_TARGET	n/a	LTP091	ltpFR	1	11	0	VIKING	1565	5	1	n/a	n/a	n/a	n/a	n/a
3635072	RECOG_RESP	n/a	LTP091	ltpFR	1	11	0	VIKING	1565	n/a	1	n/a	n/a	n/a	n/a	n/a
3636413	RECOG_CONF	n/a	LTP091	ltpFR	1	11	0	VIKING	1565	5	1	n/a	n/a	n/a	n/a	n/a
3638401	RECOG_TARGET	n/a	LTP091	ltpFR	1	11	1	VALVE	1546	1	0	n/a	n/a	n/a	n/a	n/a
3639288	RECOG_RESP	n/a	LTP091	ltpFR	1	11	1	VALVE	1546	n/a	0	n/a	n/a	n/a	n/a	n/a
3640530	RECOG_CONF	n/a	LTP091	ltpFR	1	11	1	VALVE	1546	1	0	n/a	n/a	n/a	n/a	n/a
