onset	duration	trial_type	sample	stim_file	subject	experiment	session	trial	task	item_name	item_num	recog_conf	resp	color_b	color_g	color_r	case	font
691.734	n/a	SESS_START	345867	n/a	LTP243	ltpFR	6	n/a	n/a	n/a	n/a	n/a	n/a	n/a	n/a	n/a	n/a	n/a
736.956	n/a	WORD	368478	wordpools/wasnorm_wordpool_less_exclusions.txt	LTP243	ltpFR	6	1	0	GRAVEL	659	n/a	1	1	0.412841796875	0.57763671875	upper	../fonts/zerothre.ttf
740.85	n/a	WORD	370425	wordpools/wasnorm_wordpool_less_exclusions.txt	LTP243	ltpFR	6	1	0	PRINCESS	1125	n/a	1	1	0.412841796875	0.57763671875	upper	../fonts/zerothre.ttf
744.836	n/a	WORD	372418	wordpools/wasnorm_wordpool_less_exclusions.txt	LTP243	ltpFR	6	1	0	PERISCOPE	1050	n/a	1	1	0.412841796875	0.57763671875	upper	../fonts/zerothre.ttf
748.834	n/a	WORD	374417	wordpools/wasnorm_wordpool_less_exclusions.txt	LTP243	ltpFR	6	1	1	TAIL	1430	n/a	0	0	0.5869140625	0.422607421875	lower	../fonts/amplitud.ttf
752.996	n/a	WORD	376498	wordpools/wasnorm_wordpool_less_exclusions.txt	LTP243	ltpFR	6	1	1	COLLAR	345	n/a	0	0	0.5869140625	0.422607421875	lower	../fonts/amplitud.ttf
757.016	n/a	WORD	378508	wordpools/wasnorm_wordpool_less_exclusions.txt	LTP243	ltpFR	6	1	1	QUARTER	1148	n/a	0	0	0.5869140625	0.422607421875	lower	../fonts/amplitud.ttf
761.044	n/a	WORD	380522	wordpools/wasnorm_wordpool_less_exclusions.txt	LTP243	ltpFR	6	1	1	ANTEATER	26	n/a	1	0	0.5869140625	0.422607421875	lower	../fonts/amplitud.ttf
765.246	n/a	WORD	382623	wordpools/wasnorm_wordpool_less_exclusions.txt	LTP243	ltpFR	6	1	1	CREAM	402	n/a	0	0	0.5869140625	0.422607421875	lower	../fonts/amplitud.ttf
769.112	n/a	WORD	384556	wordpools/wasnorm_wordpool_less_exclusions.txt	LTP243	ltpFR	6	1	0	WALLET	1583	n/a	0	1	0.412841796875	0.57763671875	upper	../fonts/zerothre.ttf
772.994	n/a	WORD	386497	wordpools/wasnorm_wordpool_less_exclusions.txt	LTP243	ltpFR	6	1	0	PASSAGE	1019	n/a	1	1	0.412841796875	0.57763671875	upper	../fonts/zerothre.ttf
776.938	n/a	WORD	388469	wordpools/wasnorm_wordpool_less_exclusions.txt	LTP243	ltpFR	6	1	0	GUARDIAN	668	n/a	1	1	0.412841796875	0.57763671875	upper	../fonts/zerothre.ttf
781.074	n/a	WORD	390537	wordpools/wasnorm_wordpool_less_exclusions.txt	LTP243	ltpFR	6	1	0	SPONGE	1355	n/a	0	1	0.412841796875	0.57763671875	upper	../fonts/zerothre.ttf
785.27	n/a	WORD	392635	wordpools/wasnorm_wordpool_less_exclusions.txt	LTP243	ltpFR	6	1	0	CAMEL	223	n/a	1	1	0.412841796875	0.57763671875	upper	../fonts/zerothre.ttf
789.406	n/a	WORD	394703	wordpools/wasnorm_wordpool_less_exclusions.txt	LTP243	ltpFR	6	1	1	GIRAFFE	636	n/a	1	0	0.5869140625	0.422607421875	lower	../fonts/amplitud.ttf
793.404	n/a	WORD	396702	wordpools/wasnorm_wordpool_less_exclusions.txt	LTP243	ltpFR	6	1	1	FRUIT	610	n/a	1	0	0.5869140625	0.422607421875	lower	../fonts/amplitud.ttf
797.536	n/a	WORD	398768	wordpools/wasnorm_wordpool_less_exclusions.txt	LTP243	ltpFR	6	1	1	RASPBERRY	1168	n/a	1	0	0.5869140625	0.422607421875	lower	../fonts/amplitud.ttf
803.36	n/a	REC_START	401680	n/a	LTP243	ltpFR	6	1	n/a	n/a	n/a	n/a	n/a	n/a	n/a	n/a	n/a	n/a
804.118	n/a	REC_WORD	402059	wordpools/wasnorm_wordpool_less_exclusions.txt	LTP243	ltpFR	6	1	1	FRUIT	610	n/a	1	n/a	n/a	n/a	n/a	n/a
804.96	n/a	REC_WORD	402480	wordpools/wasnorm_wordpool_less_exclusions.txt	LTP243	ltpFR	6	1	1	RASPBERRY	1168	n/a	1	n/a	n/a	n/a	n/a	n/a
805.874	n/a	REC_WORD	402937	wordpools/wasnorm_wordpool_less_exclusions.txt	LTP243	ltpFR	6	1	0	SPONGE	1355	n/a	0	n/a	n/a	n/a	n/a	n/a
807.396	n/a	REC_WORD	403698	wordpools/wasnorm_wordpool_less_exclusions.txt	LTP243	ltpFR	6	1	1	GIRAFFE	636	n/a	1	n/a	n/a	n/a	n/a	n/a
808.298	n/a	REC_WORD	404149	wordpools/wasnorm_wordpool_less_exclusions.txt	LTP243	ltpFR	6	1	0	CAMEL	223	n/a	1	n/a	n/a	n/a	n/a	n/a
809.496	n/a	REC_WORD	404748	wordpools/wasnorm_wordpool_less_exclusions.txt	LTP243	ltpFR	6	1	0	GUARDIAN	668	n/a	1	n/a	n/a	n/a	n/a	n/a
810.678	n/a	REC_WORD	405339	wordpools/wasnorm_wordpool_less_exclusions.txt	LTP243	ltpFR	6	1	1	ANTEATER	26	n/a	1	n/a	n/a	n/a	n/a	n/a
816.27	n/a	REC_WORD	408135	wordpools/wasnorm_wordpool_less_exclusions.txt	LTP243	ltpFR	6	1	1	COLLAR	345	n/a	0	n/a	n/a	n/a	n/a	n/a
817.562	n/a	REC_WORD	408781	wordpools/wasnorm_wordpool_less_exclusions.txt	LTP243	ltpFR	6	1	1	TAIL	1430	n/a	0	n/a	n/a	n/a	n/a	n/a
818.6	n/a	REC_WORD	409300	wordpools/wasnorm_wordpool_less_exclusions.txt	LTP243	ltpFR	6	1	1	QUARTER	1148	n/a	0	n/a	n/a	n/a	n/a	n/a
819.832	n/a	REC_WORD	409916	wordpools/wasnorm_wordpool_less_exclusions.txt	LTP243	ltpFR	6	1	0	WALLET	1583	n/a	0	n/a	n/a	n/a	n/a	n/a
824.202	n/a	REC_WORD	412101	wordpools/wasnorm_wordpool_less_exclusions.txt	LTP243	ltpFR	6	1	0	PRINCESS	1125	n/a	1	n/a	n/a	n/a	n/a	n/a
826.174	n/a	REC_WORD	413087	wordpools/wasnorm_wordpool_less_exclusions.txt	LTP243	ltpFR	6	1	0	GRAVEL	659	n/a	1	n/a	n/a	n/a	n/a	n/a
828.582	n/a	REC_WORD	414291	wordpools/wasnorm_wordpool_less_exclusions.txt	LTP243	ltpFR	6	1	0	PERISCOPE	1050	n/a	1	n/a	n/a	n/a	n/a	n/a
856.53	n/a	REC_WORD	428265	wordpools/wasnorm_wordpool_less_exclusions.txt	LTP243	ltpFR	6	1	1	FRUIT	610	n/a	1	n/a	n/a	n/a	n/a	n/a
857.772	n/a	REC_WORD	428886	wordpools/wasnorm_wordpool_less_exclusions.txt	LTP243	ltpFR	6	1	1	RASPBERRY	1168	n/a	1	n/a	n/a	n/a	n/a	n/a
882.746	n/a	WORD	441373	wordpools/wasnorm_wordpool_less_exclusions.txt	LTP243	ltpFR	6	2	1	NICOTINE	951	n/a	0	0	0.5869140625	0.422607421875	lower	../fonts/amplitud.ttf
886.61	n/a	WORD	443305	wordpools/wasnorm_wordpool_less_exclusions.txt	LTP243	ltpFR	6	2	1	STABLE	1363	n/a	0	0	0.5869140625	0.422607421875	lower	../fonts/amplitud.ttf
890.474	n/a	WORD	445237	wordpools/wasnorm_wordpool_less_exclusions.txt	LTP243	ltpFR	6	2	1	WATER	1594	n/a	1	0	0.5869140625	0.422607421875	lower	../fonts/amplitud.ttf
894.54	n/a	WORD	447270	wordpools/wasnorm_wordpool_less_exclusions.txt	LTP243	ltpFR	6	2	1	PAIL	1002	n/a	0	0	0.5869140625	0.422607421875	lower	../fonts/amplitud.ttf
898.738	n/a	WORD	449369	wordpools/wasnorm_wordpool_less_exclusions.txt	LTP243	ltpFR	6	2	0	CABIN	211	n/a	1	1	0.412841796875	0.57763671875	upper	../fonts/zerothre.ttf
902.69	n/a	WORD	451345	wordpools/wasnorm_wordpool_less_exclusions.txt	LTP243	ltpFR	6	2	0	GRASSHOPPER	656	n/a	0	1	0.412841796875	0.57763671875	upper	../fonts/zerothre.ttf
906.906	n/a	WORD	453453	wordpools/wasnorm_wordpool_less_exclusions.txt	LTP243	ltpFR	6	2	0	LEOPARD	812	n/a	1	1	0.412841796875	0.57763671875	upper	../fonts/zerothre.ttf
910.736	n/a	WORD	455368	wordpools/wasnorm_wordpool_less_exclusions.txt	LTP243	ltpFR	6	2	1	RACCOON	1153	n/a	1	0	0.5869140625	0.422607421875	lower	../fonts/amplitud.ttf
914.78	n/a	WORD	457390	wordpools/wasnorm_wordpool_less_exclusions.txt	LTP243	ltpFR	6	2	1	VILLAGE	1566	n/a	0	0	0.5869140625	0.422607421875	lower	../fonts/amplitud.ttf
918.714	n/a	WORD	459357	wordpools/wasnorm_wordpool_less_exclusions.txt	LTP243	ltpFR	6	2	1	CONTRACTOR	369	n/a	1	0	0.5869140625	0.422607421875	lower	../fonts/amplitud.ttf
922.8	n/a	WORD	461400	wordpools/wasnorm_wordpool_less_exclusions.txt	LTP243	ltpFR	6	2	1	RIVER	1194	n/a	1	0	0.5869140625	0.422607421875	lower	../fonts/amplitud.ttf
926.63	n/a	WORD	463315	wordpools/wasnorm_wordpool_less_exclusions.txt	LTP243	ltpFR	6	2	0	LUMBER	848	n/a	1	1	0.412841796875	0.57763671875	upper	../fonts/zerothre.ttf
930.56	n/a	WORD	465280	wordpools/wasnorm_wordpool_less_exclusions.txt	LTP243	ltpFR	6	2	0	CACTUS	215	n/a	1	1	0.412841796875	0.57763671875	upper	../fonts/zerothre.ttf
934.556	n/a	WORD	467278	wordpools/wasnorm_wordpool_less_exclusions.txt	LTP243	ltpFR	6	2	0	BRACELET	163	n/a	0	1	0.412841796875	0.57763671875	upper	../fonts/zerothre.ttf
938.622	n/a	WORD	469311	wordpools/wasnorm_wordpool_less_exclusions.txt	LTP243	ltpFR	6	2	0	TERMITE	1451	n/a	0	1	0.412841796875	0.57763671875	upper	../fonts/zerothre.ttf
942.808	n/a	WORD	471404	wordpools/wasnorm_wordpool_less_exclusions.txt	LTP243	ltpFR	6	2	0	LOFT	840	n/a	1	1	0.412841796875	0.57763671875	upper	../fonts/zerothre.ttf
948.664	n/a	REC_START	474332	n/a	LTP243	ltpFR	6	2	n/a	n/a	n/a	n/a	n/a	n/a	n/a	n/a	n/a	n/a
949.552	n/a	REC_WORD	474776	wordpools/wasnorm_wordpool_less_exclusions.txt	LTP243	ltpFR	6	2	0	LOFT	840	n/a	1	n/a	n/a	n/a	n/a	n/a
950.854	n/a	REC_WORD	475427	wordpools/wasnorm_wordpool_less_exclusions.txt	LTP243	ltpFR	6	2	0	BRACELET	163	n/a	0	n/a	n/a	n/a	n/a	n/a
952.256	n/a	REC_WORD	476128	wordpools/wasnorm_wordpool_less_exclusions.txt	LTP243	ltpFR	6	2	1	RIVER	1194	n/a	1	n/a	n/a	n/a	n/a	n/a
953.194	n/a	REC_WORD	476597	wordpools/wasnorm_wordpool_less_exclusions.txt	LTP243	ltpFR	6	2	0	CACTUS	215	n/a	1	n/a	n/a	n/a	n/a	n/a
957.8	n/a	REC_WORD	478900	wordpools/wasnorm_wordpool_less_exclusions.txt	LTP243	ltpFR	6	2	0	TERMITE	1451	n/a	0	n/a	n/a	n/a	n/a	n/a
961.108	n/a	REC_WORD	480554	wordpools/wasnorm_wordpool_less_exclusions.txt	LTP243	ltpFR	6	2	0	LEOPARD	812	n/a	1	n/a	n/a	n/a	n/a	n/a
961.89	n/a	REC_WORD	480945	wordpools/wasnorm_wordpool_less_exclusions.txt	LTP243	ltpFR	6	2	0	GRASSHOPPER	656	n/a	0	n/a	n/a	n/a	n/a	n/a
964.106	n/a	REC_WORD	482053	wordpools/wasnorm_wordpool_less_exclusions.txt	LTP243	ltpFR	6	2	1	NICOTINE	951	n/a	0	n/a	n/a	n/a	n/a	n/a
965.31	n/a	REC_WORD	482655	wordpools/wasnorm_wordpool_less_exclusions.txt	LTP243	ltpFR	6	2	1	STABLE	1363	n/a	0	n/a	n/a	n/a	n/a	n/a
967.292	n/a	REC_WORD	483646	wordpools/wasnorm_wordpool_less_exclusions.txt	LTP243	ltpFR	6	2	0	CABIN	211	n/a	1	n/a	n/a	n/a	n/a	n/a
968.32	n/a	REC_WORD	484160	wordpools/wasnorm_wordpool_less_exclusions.txt	LTP243	ltpFR	6	2	0	LOFT	840	n/a	1	n/a	n/a	n/a	n/a	n/a
975.56	n/a	REC_WORD	487780	wordpools/wasnorm_wordpool_less_exclusions.txt	LTP243	ltpFR	6	2	1	CONTRACTOR	369	n/a	1	n/a	n/a	n/a	n/a	n/a
977.17	n/a	REC_WORD	488585	wordpools/wasnorm_wordpool_less_exclusions.txt	LTP243	ltpFR	6	2	1	VILLAGE	1566	n/a	0	n/a	n/a	n/a	n/a	n/a
982.958	n/a	REC_WORD	491479	wordpools/wasnorm_wordpool_less_exclusions.txt	LTP243	ltpFR	6	2	1	WATER	1594	n/a	1	n/a	n/a	n/a	n/a	n/a
995.67	n/a	REC_WORD	497835	wordpools/wasnorm_wordpool_less_exclusions.txt	LTP243	ltpFR	6	2	1	PAIL	1002	n/a	0	n/a	n/a	n/a	n/a	n/a
1031.598	n/a	WORD	515799	wordpools/wasnorm_wordpool_less_exclusions.txt	LTP243	ltpFR	6	3	1	BAND	78	n/a	0	0	0.5869140625	0.422607421875	lower	../fonts/amplitud.ttf
1035.798	n/a	WORD	517899	wordpools/wasnorm_wordpool_less_exclusions.txt	LTP243	ltpFR	6	3	1	FLUTE	585	n/a	0	0	0.5869140625	0.422607421875	lower	../fonts/amplitud.ttf
1039.896	n/a	WORD	519948	wordpools/wasnorm_wordpool_less_exclusions.txt	LTP243	ltpFR	6	3	0	GARLIC	624	n/a	0	1	0.412841796875	0.57763671875	upper	../fonts/zerothre.ttf
1043.878	n/a	WORD	521939	wordpools/wasnorm_wordpool_less_exclusions.txt	LTP243	ltpFR	6	3	0	CANYON	235	n/a	1	1	0.412841796875	0.57763671875	upper	../fonts/zerothre.ttf
1047.742	n/a	WORD	523871	wordpools/wasnorm_wordpool_less_exclusions.txt	LTP243	ltpFR	6	3	1	JAW	751	n/a	0	0	0.5869140625	0.422607421875	lower	../fonts/amplitud.ttf
1051.826	n/a	WORD	525913	wordpools/wasnorm_wordpool_less_exclusions.txt	LTP243	ltpFR	6	3	1	BELT	120	n/a	0	0	0.5869140625	0.422607421875	lower	../fonts/amplitud.ttf
1055.908	n/a	WORD	527954	wordpools/wasnorm_wordpool_less_exclusions.txt	LTP243	ltpFR	6	3	1	ASSOCIATE	49	n/a	1	0	0.5869140625	0.422607421875	lower	../fonts/amplitud.ttf
1059.756	n/a	WORD	529878	wordpools/wasnorm_wordpool_less_exclusions.txt	LTP243	ltpFR	6	3	1	DUCK	504	n/a	1	0	0.5869140625	0.422607421875	lower	../fonts/amplitud.ttf
1063.888	n/a	WORD	531944	wordpools/wasnorm_wordpool_less_exclusions.txt	LTP243	ltpFR	6	3	0	OTTER	986	n/a	1	1	0.412841796875	0.57763671875	upper	../fonts/zerothre.ttf
1068.036	n/a	WORD	534018	wordpools/wasnorm_wordpool_less_exclusions.txt	LTP243	ltpFR	6	3	0	GOWN	652	n/a	0	1	0.412841796875	0.57763671875	upper	../fonts/zerothre.ttf
1071.87	n/a	WORD	535935	wordpools/wasnorm_wordpool_less_exclusions.txt	LTP243	ltpFR	6	3	0	FLANNEL	574	n/a	0	1	0.412841796875	0.57763671875	upper	../fonts/zerothre.ttf
1075.968	n/a	WORD	537984	wordpools/wasnorm_wordpool_less_exclusions.txt	LTP243	ltpFR	6	3	0	FINGERNAIL	568	n/a	0	1	0.412841796875	0.57763671875	upper	../fonts/zerothre.ttf
1079.85	n/a	WORD	539925	wordpools/wasnorm_wordpool_less_exclusions.txt	LTP243	ltpFR	6	3	0	BROOK	177	n/a	1	1	0.412841796875	0.57763671875	upper	../fonts/zerothre.ttf
1083.864	n/a	WORD	541932	wordpools/wasnorm_wordpool_less_exclusions.txt	LTP243	ltpFR	6	3	0	PIE	1062	n/a	1	1	0.412841796875	0.57763671875	upper	../fonts/zerothre.ttf
1087.894	n/a	WORD	543947	wordpools/wasnorm_wordpool_less_exclusions.txt	LTP243	ltpFR	6	3	1	MOUTH	926	n/a	0	0	0.5869140625	0.422607421875	lower	../fonts/amplitud.ttf
1092.026	n/a	WORD	546013	wordpools/wasnorm_wordpool_less_exclusions.txt	LTP243	ltpFR	6	3	1	ISLAND	745	n/a	0	0	0.5869140625	0.422607421875	lower	../fonts/amplitud.ttf
1097.616	n/a	REC_START	548808	n/a	LTP243	ltpFR	6	3	n/a	n/a	n/a	n/a	n/a	n/a	n/a	n/a	n/a	n/a
1098.58	n/a	REC_WORD	549290	wordpools/wasnorm_wordpool_less_exclusions.txt	LTP243	ltpFR	6	3	1	ISLAND	745	n/a	0	n/a	n/a	n/a	n/a	n/a
1099.606	n/a	REC_WORD	549803	wordpools/wasnorm_wordpool_less_exclusions.txt	LTP243	ltpFR	6	3	1	MOUTH	926	n/a	0	n/a	n/a	n/a	n/a	n/a
1101.214	n/a	REC_WORD	550607	wordpools/wasnorm_wordpool_less_exclusions.txt	LTP243	ltpFR	6	3	0	GOWN	652	n/a	0	n/a	n/a	n/a	n/a	n/a
1102.326	n/a	REC_WORD	551163	wordpools/wasnorm_wordpool_less_exclusions.txt	LTP243	ltpFR	6	3	0	FLANNEL	574	n/a	0	n/a	n/a	n/a	n/a	n/a
1107.864	n/a	REC_WORD	553932	wordpools/wasnorm_wordpool_less_exclusions.txt	LTP243	ltpFR	6	3	0	BROOK	177	n/a	1	n/a	n/a	n/a	n/a	n/a
1112.24	n/a	REC_WORD	556120	wordpools/wasnorm_wordpool_less_exclusions.txt	LTP243	ltpFR	6	3	1	JAW	751	n/a	0	n/a	n/a	n/a	n/a	n/a
1114.0	n/a	REC_WORD	557000	wordpools/wasnorm_wordpool_less_exclusions.txt	LTP243	ltpFR	6	3	1	MOUTH	926	n/a	0	n/a	n/a	n/a	n/a	n/a
1119.372	n/a	REC_WORD	559686	wordpools/wasnorm_wordpool_less_exclusions.txt	LTP243	ltpFR	6	3	1	BELT	120	n/a	0	n/a	n/a	n/a	n/a	n/a
1120.466	n/a	REC_WORD	560233	wordpools/wasnorm_wordpool_less_exclusions.txt	LTP243	ltpFR	6	3	0	CANYON	235	n/a	1	n/a	n/a	n/a	n/a	n/a
1121.996	n/a	REC_WORD	560998	wordpools/wasnorm_wordpool_less_exclusions.txt	LTP243	ltpFR	6	3	0	PIE	1062	n/a	1	n/a	n/a	n/a	n/a	n/a
1128.648	n/a	REC_WORD	564324	wordpools/wasnorm_wordpool_less_exclusions.txt	LTP243	ltpFR	6	3	0	OTTER	986	n/a	1	n/a	n/a	n/a	n/a	n/a
1130.3	n/a	REC_WORD	565150	wordpools/wasnorm_wordpool_less_exclusions.txt	LTP243	ltpFR	6	3	1	DUCK	504	n/a	1	n/a	n/a	n/a	n/a	n/a
1134.6	n/a	REC_WORD	567300	wordpools/wasnorm_wordpool_less_exclusions.txt	LTP243	ltpFR	6	3	1	ASSOCIATE	49	n/a	1	n/a	n/a	n/a	n/a	n/a
1136.724	n/a	REC_WORD	568362	wordpools/wasnorm_wordpool_less_exclusions.txt	LTP243	ltpFR	6	3	1	BAND	78	n/a	0	n/a	n/a	n/a	n/a	n/a
1137.806	n/a	REC_WORD	568903	wordpools/wasnorm_wordpool_less_exclusions.txt	LTP243	ltpFR	6	3	1	FLUTE	585	n/a	0	n/a	n/a	n/a	n/a	n/a
1145.33	n/a	REC_WORD	572665	wordpools/wasnorm_wordpool_less_exclusions.txt	LTP243	ltpFR	6	3	0	GARLIC	624	n/a	0	n/a	n/a	n/a	n/a	n/a
1176.4	n/a	WORD	588200	wordpools/wasnorm_wordpool_less_exclusions.txt	LTP243	ltpFR	6	4	-1	COUNTY	389	n/a	-1	1	1.0	1.0	upper	../fonts/Verdana.ttf
1180.582	n/a	WORD	590291	wordpools/wasnorm_wordpool_less_exclusions.txt	LTP243	ltpFR	6	4	-1	SPINE	1353	n/a	-1	1	1.0	1.0	upper	../fonts/Verdana.ttf
1184.532	n/a	WORD	592266	wordpools/wasnorm_wordpool_less_exclusions.txt	LTP243	ltpFR	6	4	-1	KNAPSACK	783	n/a	-1	1	1.0	1.0	upper	../fonts/Verdana.ttf
1188.43	n/a	WORD	594215	wordpools/wasnorm_wordpool_less_exclusions.txt	LTP243	ltpFR	6	4	-1	GROCERIES	663	n/a	-1	1	1.0	1.0	upper	../fonts/Verdana.ttf
1192.428	n/a	WORD	596214	wordpools/wasnorm_wordpool_less_exclusions.txt	LTP243	ltpFR	6	4	-1	DUNGEON	507	n/a	-1	1	1.0	1.0	upper	../fonts/Verdana.ttf
1196.644	n/a	WORD	598322	wordpools/wasnorm_wordpool_less_exclusions.txt	LTP243	ltpFR	6	4	-1	TRACTOR	1493	n/a	-1	1	1.0	1.0	upper	../fonts/Verdana.ttf
1200.476	n/a	WORD	600238	wordpools/wasnorm_wordpool_less_exclusions.txt	LTP243	ltpFR	6	4	-1	SCOTCH	1251	n/a	-1	1	1.0	1.0	upper	../fonts/Verdana.ttf
1204.576	n/a	WORD	602288	wordpools/wasnorm_wordpool_less_exclusions.txt	LTP243	ltpFR	6	4	-1	ARTERY	41	n/a	-1	1	1.0	1.0	upper	../fonts/Verdana.ttf
1208.704	n/a	WORD	604352	wordpools/wasnorm_wordpool_less_exclusions.txt	LTP243	ltpFR	6	4	-1	FURNITURE	616	n/a	-1	1	1.0	1.0	upper	../fonts/Verdana.ttf
1212.736	n/a	WORD	606368	wordpools/wasnorm_wordpool_less_exclusions.txt	LTP243	ltpFR	6	4	-1	FUGITIVE	612	n/a	-1	1	1.0	1.0	upper	../fonts/Verdana.ttf
1216.872	n/a	WORD	608436	wordpools/wasnorm_wordpool_less_exclusions.txt	LTP243	ltpFR	6	4	-1	ASIA	46	n/a	-1	1	1.0	1.0	upper	../fonts/Verdana.ttf
1220.972	n/a	WORD	610486	wordpools/wasnorm_wordpool_less_exclusions.txt	LTP243	ltpFR	6	4	-1	FLESH	579	n/a	-1	1	1.0	1.0	upper	../fonts/Verdana.ttf
1225.184	n/a	WORD	612592	wordpools/wasnorm_wordpool_less_exclusions.txt	LTP243	ltpFR	6	4	-1	GALAXY	617	n/a	-1	1	1.0	1.0	upper	../fonts/Verdana.ttf
1229.086	n/a	WORD	614543	wordpools/wasnorm_wordpool_less_exclusions.txt	LTP243	ltpFR	6	4	-1	SUN	1406	n/a	-1	1	1.0	1.0	upper	../fonts/Verdana.ttf
1232.968	n/a	WORD	616484	wordpools/wasnorm_wordpool_less_exclusions.txt	LTP243	ltpFR	6	4	-1	CELLO	268	n/a	-1	1	1.0	1.0	upper	../fonts/Verdana.ttf
1237.066	n/a	WORD	618533	wordpools/wasnorm_wordpool_less_exclusions.txt	LTP243	ltpFR	6	4	-1	VIOLA	1570	n/a	-1	1	1.0	1.0	upper	../fonts/Verdana.ttf
1242.94	n/a	REC_START	621470	n/a	LTP243	ltpFR	6	4	n/a	n/a	n/a	n/a	n/a	n/a	n/a	n/a	n/a	n/a
1243.754	n/a	REC_WORD	621877	wordpools/wasnorm_wordpool_less_exclusions.txt	LTP243	ltpFR	6	4	-1	CELLO	268	n/a	-1	n/a	n/a	n/a	n/a	n/a
1244.472	n/a	REC_WORD	622236	wordpools/wasnorm_wordpool_less_exclusions.txt	LTP243	ltpFR	6	4	-1	VIOLA	1570	n/a	-1	n/a	n/a	n/a	n/a	n/a
1245.554	n/a	REC_WORD	622777	wordpools/wasnorm_wordpool_less_exclusions.txt	LTP243	ltpFR	6	4	-1	GALAXY	617	n/a	-1	n/a	n/a	n/a	n/a	n/a
1246.392	n/a	REC_WORD	623196	wordpools/wasnorm_wordpool_less_exclusions.txt	LTP243	ltpFR	6	4	-1	SUN	1406	n/a	-1	n/a	n/a	n/a	n/a	n/a
1247.5	n/a	REC_WORD	623750	wordpools/wasnorm_wordpool_less_exclusions.txt	LTP243	ltpFR	6	4	-1	ASIA	46	n/a	-1	n/a	n/a	n/a	n/a	n/a
1249.476	n/a	REC_WORD	624738	wordpools/wasnorm_wordpool_less_exclusions.txt	LTP243	ltpFR	6	4	-1	DUNGEON	507	n/a	-1	n/a	n/a	n/a	n/a	n/a
1250.562	n/a	REC_WORD	625281	wordpools/wasnorm_wordpool_less_exclusions.txt	LTP243	ltpFR	6	4	-1	FUGITIVE	612	n/a	-1	n/a	n/a	n/a	n/a	n/a
1251.85	n/a	REC_WORD	625925	wordpools/wasnorm_wordpool_less_exclusions.txt	LTP243	ltpFR	6	4	-1	TRACTOR	1493	n/a	-1	n/a	n/a	n/a	n/a	n/a
1255.87	n/a	REC_WORD	627935	wordpools/wasnorm_wordpool_less_exclusions.txt	LTP243	ltpFR	6	4	-1	FURNITURE	616	n/a	-1	n/a	n/a	n/a	n/a	n/a
1258.93	n/a	REC_WORD	629465	wordpools/wasnorm_wordpool_less_exclusions.txt	LTP243	ltpFR	6	4	-1	KNAPSACK	783	n/a	-1	n/a	n/a	n/a	n/a	n/a
1259.968	n/a	REC_WORD	629984	wordpools/wasnorm_wordpool_less_exclusions.txt	LTP243	ltpFR	6	4	-1	GROCERIES	663	n/a	-1	n/a	n/a	n/a	n/a	n/a
1261.444	n/a	REC_WORD	630722	wordpools/wasnorm_wordpool_less_exclusions.txt	LTP243	ltpFR	6	4	-1	SPINE	1353	n/a	-1	n/a	n/a	n/a	n/a	n/a
1262.832	n/a	REC_WORD	631416	wordpools/wasnorm_wordpool_less_exclusions.txt	LTP243	ltpFR	6	4	-1	COUNTY	389	n/a	-1	n/a	n/a	n/a	n/a	n/a
1273.616	n/a	REC_WORD	636808	wordpools/wasnorm_wordpool_less_exclusions.txt	LTP243	ltpFR	6	4	-1	CELLO	268	n/a	-1	n/a	n/a	n/a	n/a	n/a
1274.734	n/a	REC_WORD	637367	wordpools/wasnorm_wordpool_less_exclusions.txt	LTP243	ltpFR	6	4	-1	VIOLA	1570	n/a	-1	n/a	n/a	n/a	n/a	n/a
1285.056	n/a	REC_WORD	642528	wordpools/wasnorm_wordpool_less_exclusions.txt	LTP243	ltpFR	6	4	-1	SCOTCH	1251	n/a	-1	n/a	n/a	n/a	n/a	n/a
1312.536	n/a	REC_WORD	656268	wordpools/wasnorm_wordpool_less_exclusions.txt	LTP243	ltpFR	6	4	-1	ARTERY	41	n/a	-1	n/a	n/a	n/a	n/a	n/a
1324.752	n/a	WORD	662376	wordpools/wasnorm_wordpool_less_exclusions.txt	LTP243	ltpFR	6	5	1	CHICKEN	297	n/a	1	0	0.5869140625	0.422607421875	lower	../fonts/amplitud.ttf
1328.8	n/a	WORD	664400	wordpools/wasnorm_wordpool_less_exclusions.txt	LTP243	ltpFR	6	5	1	TICKET	1464	n/a	0	0	0.5869140625	0.422607421875	lower	../fonts/amplitud.ttf
1332.766	n/a	WORD	666383	wordpools/wasnorm_wordpool_less_exclusions.txt	LTP243	ltpFR	6	5	1	POCKET	1093	n/a	0	0	0.5869140625	0.422607421875	lower	../fonts/amplitud.ttf
1336.862	n/a	WORD	668431	wordpools/wasnorm_wordpool_less_exclusions.txt	LTP243	ltpFR	6	5	1	ANTELOPE	27	n/a	1	0	0.5869140625	0.422607421875	lower	../fonts/amplitud.ttf
1340.976	n/a	WORD	670488	wordpools/wasnorm_wordpool_less_exclusions.txt	LTP243	ltpFR	6	5	1	DEER	444	n/a	1	0	0.5869140625	0.422607421875	lower	../fonts/amplitud.ttf
1345.046	n/a	WORD	672523	wordpools/wasnorm_wordpool_less_exclusions.txt	LTP243	ltpFR	6	5	1	HANDBAG	684	n/a	0	0	0.5869140625	0.422607421875	lower	../fonts/amplitud.ttf
1348.99	n/a	WORD	674495	wordpools/wasnorm_wordpool_less_exclusions.txt	LTP243	ltpFR	6	5	1	ROOSTER	1209	n/a	1	0	0.5869140625	0.422607421875	lower	../fonts/amplitud.ttf
1352.892	n/a	WORD	676446	wordpools/wasnorm_wordpool_less_exclusions.txt	LTP243	ltpFR	6	5	1	IRON	744	n/a	0	0	0.5869140625	0.422607421875	lower	../fonts/amplitud.ttf
1357.092	n/a	WORD	678546	wordpools/wasnorm_wordpool_less_exclusions.txt	LTP243	ltpFR	6	5	1	TOOL	1480	n/a	0	0	0.5869140625	0.422607421875	lower	../fonts/amplitud.ttf
1361.308	n/a	WORD	680654	wordpools/wasnorm_wordpool_less_exclusions.txt	LTP243	ltpFR	6	5	1	BANJO	82	n/a	0	0	0.5869140625	0.422607421875	lower	../fonts/amplitud.ttf
1365.234	n/a	WORD	682617	wordpools/wasnorm_wordpool_less_exclusions.txt	LTP243	ltpFR	6	5	1	KEYBOARD	774	n/a	0	0	0.5869140625	0.422607421875	lower	../fonts/amplitud.ttf
1369.354	n/a	WORD	684677	wordpools/wasnorm_wordpool_less_exclusions.txt	LTP243	ltpFR	6	5	1	HINGE	709	n/a	0	0	0.5869140625	0.422607421875	lower	../fonts/amplitud.ttf
1373.386	n/a	WORD	686693	wordpools/wasnorm_wordpool_less_exclusions.txt	LTP243	ltpFR	6	5	1	PLANT	1083	n/a	1	0	0.5869140625	0.422607421875	lower	../fonts/amplitud.ttf
1377.218	n/a	WORD	688609	wordpools/wasnorm_wordpool_less_exclusions.txt	LTP243	ltpFR	6	5	1	CHIPMUNK	304	n/a	1	0	0.5869140625	0.422607421875	lower	../fonts/amplitud.ttf
1381.25	n/a	WORD	690625	wordpools/wasnorm_wordpool_less_exclusions.txt	LTP243	ltpFR	6	5	1	CHAIRPERSON	275	n/a	1	0	0.5869140625	0.422607421875	lower	../fonts/amplitud.ttf
1385.432	n/a	WORD	692716	wordpools/wasnorm_wordpool_less_exclusions.txt	LTP243	ltpFR	6	5	1	LIMOUSINE	824	n/a	0	0	0.5869140625	0.422607421875	lower	../fonts/amplitud.ttf
1391.424	n/a	REC_START	695712	n/a	LTP243	ltpFR	6	5	n/a	n/a	n/a	n/a	n/a	n/a	n/a	n/a	n/a	n/a
1392.156	n/a	REC_WORD	696078	wordpools/wasnorm_wordpool_less_exclusions.txt	LTP243	ltpFR	6	5	1	LIMOUSINE	824	n/a	0	n/a	n/a	n/a	n/a	n/a
1393.254	n/a	REC_WORD	696627	wordpools/wasnorm_wordpool_less_exclusions.txt	LTP243	ltpFR	6	5	1	CHAIRPERSON	275	n/a	1	n/a	n/a	n/a	n/a	n/a
1397.51	n/a	REC_WORD	698755	wordpools/wasnorm_wordpool_less_exclusions.txt	LTP243	ltpFR	6	5	1	TICKET	1464	n/a	0	n/a	n/a	n/a	n/a	n/a
1398.308	n/a	REC_WORD	699154	wordpools/wasnorm_wordpool_less_exclusions.txt	LTP243	ltpFR	6	5	1	POCKET	1093	n/a	0	n/a	n/a	n/a	n/a	n/a
1399.456	n/a	REC_WORD	699728	wordpools/wasnorm_wordpool_less_exclusions.txt	LTP243	ltpFR	6	5	1	CHICKEN	297	n/a	1	n/a	n/a	n/a	n/a	n/a
1400.502	n/a	REC_WORD	700251	wordpools/wasnorm_wordpool_less_exclusions.txt	LTP243	ltpFR	6	5	1	ROOSTER	1209	n/a	1	n/a	n/a	n/a	n/a	n/a
1402.768	n/a	REC_WORD	701384	wordpools/wasnorm_wordpool_less_exclusions.txt	LTP243	ltpFR	6	5	1	ANTELOPE	27	n/a	1	n/a	n/a	n/a	n/a	n/a
1404.104	n/a	REC_WORD	702052	wordpools/wasnorm_wordpool_less_exclusions.txt	LTP243	ltpFR	6	5	1	DEER	444	n/a	1	n/a	n/a	n/a	n/a	n/a
1406.28	n/a	REC_WORD	703140	wordpools/wasnorm_wordpool_less_exclusions.txt	LTP243	ltpFR	6	5	1	HANDBAG	684	n/a	0	n/a	n/a	n/a	n/a	n/a
1407.716	n/a	REC_WORD	703858	wordpools/wasnorm_wordpool_less_exclusions.txt	LTP243	ltpFR	6	5	1	KEYBOARD	774	n/a	0	n/a	n/a	n/a	n/a	n/a
1409.048	n/a	REC_WORD	704524	wordpools/wasnorm_wordpool_less_exclusions.txt	LTP243	ltpFR	6	5	1	TOOL	1480	n/a	0	n/a	n/a	n/a	n/a	n/a
1418.094	n/a	REC_WORD	709047	wordpools/wasnorm_wordpool_less_exclusions.txt	LTP243	ltpFR	6	5	1	BANJO	82	n/a	0	n/a	n/a	n/a	n/a	n/a
1470.09	n/a	WORD	735045	wordpools/wasnorm_wordpool_less_exclusions.txt	LTP243	ltpFR	6	6	-1	PLAYGROUND	1087	n/a	-1	1	1.0	1.0	upper	../fonts/Verdana.ttf
1474.14	n/a	WORD	737070	wordpools/wasnorm_wordpool_less_exclusions.txt	LTP243	ltpFR	6	6	-1	MEADOW	881	n/a	-1	1	1.0	1.0	upper	../fonts/Verdana.ttf
1478.104	n/a	WORD	739052	wordpools/wasnorm_wordpool_less_exclusions.txt	LTP243	ltpFR	6	6	-1	VOLLEYBALL	1576	n/a	-1	1	1.0	1.0	upper	../fonts/Verdana.ttf
1482.252	n/a	WORD	741126	wordpools/wasnorm_wordpool_less_exclusions.txt	LTP243	ltpFR	6	6	-1	JUPITER	765	n/a	-1	1	1.0	1.0	upper	../fonts/Verdana.ttf
1486.234	n/a	WORD	743117	wordpools/wasnorm_wordpool_less_exclusions.txt	LTP243	ltpFR	6	6	-1	FRAGRANCE	599	n/a	-1	1	1.0	1.0	upper	../fonts/Verdana.ttf
1490.384	n/a	WORD	745192	wordpools/wasnorm_wordpool_less_exclusions.txt	LTP243	ltpFR	6	6	-1	BIOLOGIST	128	n/a	-1	1	1.0	1.0	upper	../fonts/Verdana.ttf
1494.416	n/a	WORD	747208	wordpools/wasnorm_wordpool_less_exclusions.txt	LTP243	ltpFR	6	6	-1	STREET	1393	n/a	-1	1	1.0	1.0	upper	../fonts/Verdana.ttf
1498.348	n/a	WORD	749174	wordpools/wasnorm_wordpool_less_exclusions.txt	LTP243	ltpFR	6	6	-1	ROOT	1210	n/a	-1	1	1.0	1.0	upper	../fonts/Verdana.ttf
1502.462	n/a	WORD	751231	wordpools/wasnorm_wordpool_less_exclusions.txt	LTP243	ltpFR	6	6	-1	HEDGE	699	n/a	-1	1	1.0	1.0	upper	../fonts/Verdana.ttf
1506.528	n/a	WORD	753264	wordpools/wasnorm_wordpool_less_exclusions.txt	LTP243	ltpFR	6	6	-1	MACHINE	852	n/a	-1	1	1.0	1.0	upper	../fonts/Verdana.ttf
1510.558	n/a	WORD	755279	wordpools/wasnorm_wordpool_less_exclusions.txt	LTP243	ltpFR	6	6	-1	ARMY	39	n/a	-1	1	1.0	1.0	upper	../fonts/Verdana.ttf
1514.676	n/a	WORD	757338	wordpools/wasnorm_wordpool_less_exclusions.txt	LTP243	ltpFR	6	6	-1	MOUNTAIN	924	n/a	-1	1	1.0	1.0	upper	../fonts/Verdana.ttf
1518.792	n/a	WORD	759396	wordpools/wasnorm_wordpool_less_exclusions.txt	LTP243	ltpFR	6	6	-1	ANT	25	n/a	-1	1	1.0	1.0	upper	../fonts/Verdana.ttf
1522.704	n/a	WORD	761352	wordpools/wasnorm_wordpool_less_exclusions.txt	LTP243	ltpFR	6	6	-1	STADIUM	1364	n/a	-1	1	1.0	1.0	upper	../fonts/Verdana.ttf
1526.602	n/a	WORD	763301	wordpools/wasnorm_wordpool_less_exclusions.txt	LTP243	ltpFR	6	6	-1	OFFICE	972	n/a	-1	1	1.0	1.0	upper	../fonts/Verdana.ttf
1530.79	n/a	WORD	765395	wordpools/wasnorm_wordpool_less_exclusions.txt	LTP243	ltpFR	6	6	-1	SKUNK	1321	n/a	-1	1	1.0	1.0	upper	../fonts/Verdana.ttf
1536.628	n/a	REC_START	768314	n/a	LTP243	ltpFR	6	6	n/a	n/a	n/a	n/a	n/a	n/a	n/a	n/a	n/a	n/a
1537.296	n/a	REC_WORD	768648	wordpools/wasnorm_wordpool_less_exclusions.txt	LTP243	ltpFR	6	6	-1	ANT	25	n/a	-1	n/a	n/a	n/a	n/a	n/a
1537.984	n/a	REC_WORD	768992	wordpools/wasnorm_wordpool_less_exclusions.txt	LTP243	ltpFR	6	6	-1	STADIUM	1364	n/a	-1	n/a	n/a	n/a	n/a	n/a
1539.002	n/a	REC_WORD	769501	wordpools/wasnorm_wordpool_less_exclusions.txt	LTP243	ltpFR	6	6	-1	OFFICE	972	n/a	-1	n/a	n/a	n/a	n/a	n/a
1539.82	n/a	REC_WORD	769910	wordpools/wasnorm_wordpool_less_exclusions.txt	LTP243	ltpFR	6	6	-1	SKUNK	1321	n/a	-1	n/a	n/a	n/a	n/a	n/a
1542.054	n/a	REC_WORD	771027	wordpools/wasnorm_wordpool_less_exclusions.txt	LTP243	ltpFR	6	6	-1	MEADOW	881	n/a	-1	n/a	n/a	n/a	n/a	n/a
1543.192	n/a	REC_WORD	771596	wordpools/wasnorm_wordpool_less_exclusions.txt	LTP243	ltpFR	6	6	-1	PLAYGROUND	1087	n/a	-1	n/a	n/a	n/a	n/a	n/a
1544.42	n/a	REC_WORD	772210	wordpools/wasnorm_wordpool_less_exclusions.txt	LTP243	ltpFR	6	6	-1	VOLLEYBALL	1576	n/a	-1	n/a	n/a	n/a	n/a	n/a
1545.782	n/a	REC_WORD	772891	wordpools/wasnorm_wordpool_less_exclusions.txt	LTP243	ltpFR	6	6	-1	JUPITER	765	n/a	-1	n/a	n/a	n/a	n/a	n/a
1547.832	n/a	REC_WORD	773916	wordpools/wasnorm_wordpool_less_exclusions.txt	LTP243	ltpFR	6	6	-1	BIOLOGIST	128	n/a	-1	n/a	n/a	n/a	n/a	n/a
1552.034	n/a	REC_WORD	776017	wordpools/wasnorm_wordpool_less_exclusions.txt	LTP243	ltpFR	6	6	-1	STREET	1393	n/a	-1	n/a	n/a	n/a	n/a	n/a
1553.316	n/a	REC_WORD	776658	wordpools/wasnorm_wordpool_less_exclusions.txt	LTP243	ltpFR	6	6	n/a	HOOD	714	n/a	n/a	n/a	n/a	n/a	n/a	n/a
1555.066	n/a	REC_WORD	777533	wordpools/wasnorm_wordpool_less_exclusions.txt	LTP243	ltpFR	6	6	-1	HEDGE	699	n/a	-1	n/a	n/a	n/a	n/a	n/a
1557.576	n/a	REC_WORD	778788	wordpools/wasnorm_wordpool_less_exclusions.txt	LTP243	ltpFR	6	6	-1	ROOT	1210	n/a	-1	n/a	n/a	n/a	n/a	n/a
1562.076	n/a	REC_WORD	781038	wordpools/wasnorm_wordpool_less_exclusions.txt	LTP243	ltpFR	6	6	-1	FRAGRANCE	599	n/a	-1	n/a	n/a	n/a	n/a	n/a
1567.794	n/a	REC_WORD	783897	wordpools/wasnorm_wordpool_less_exclusions.txt	LTP243	ltpFR	6	6	-1	MACHINE	852	n/a	-1	n/a	n/a	n/a	n/a	n/a
1568.796	n/a	REC_WORD	784398	wordpools/wasnorm_wordpool_less_exclusions.txt	LTP243	ltpFR	6	6	-1	MOUNTAIN	924	n/a	-1	n/a	n/a	n/a	n/a	n/a
1580.11	n/a	REC_WORD	790055	wordpools/wasnorm_wordpool_less_exclusions.txt	LTP243	ltpFR	6	6	-1	ARMY	39	n/a	-1	n/a	n/a	n/a	n/a	n/a
1615.93	n/a	WORD	807965	wordpools/wasnorm_wordpool_less_exclusions.txt	LTP243	ltpFR	6	7	0	SCREEN	1253	n/a	1	1	0.412841796875	0.57763671875	upper	../fonts/zerothre.ttf
1619.78	n/a	WORD	809890	wordpools/wasnorm_wordpool_less_exclusions.txt	LTP243	ltpFR	6	7	0	DIRECTOR	471	n/a	1	1	0.412841796875	0.57763671875	upper	../fonts/zerothre.ttf
1623.794	n/a	WORD	811897	wordpools/wasnorm_wordpool_less_exclusions.txt	LTP243	ltpFR	6	7	0	MAILBOX	857	n/a	1	1	0.412841796875	0.57763671875	upper	../fonts/zerothre.ttf
1627.806	n/a	WORD	813903	wordpools/wasnorm_wordpool_less_exclusions.txt	LTP243	ltpFR	6	7	1	LIVER	833	n/a	1	0	0.5869140625	0.422607421875	lower	../fonts/amplitud.ttf
1631.742	n/a	WORD	815871	wordpools/wasnorm_wordpool_less_exclusions.txt	LTP243	ltpFR	6	7	1	ESSAY	540	n/a	0	0	0.5869140625	0.422607421875	lower	../fonts/amplitud.ttf
1635.638	n/a	WORD	817819	wordpools/wasnorm_wordpool_less_exclusions.txt	LTP243	ltpFR	6	7	1	SHEPHERD	1283	n/a	1	0	0.5869140625	0.422607421875	lower	../fonts/amplitud.ttf
1639.802	n/a	WORD	819901	wordpools/wasnorm_wordpool_less_exclusions.txt	LTP243	ltpFR	6	7	1	VET	1560	n/a	1	0	0.5869140625	0.422607421875	lower	../fonts/amplitud.ttf
1643.702	n/a	WORD	821851	wordpools/wasnorm_wordpool_less_exclusions.txt	LTP243	ltpFR	6	7	1	CAGE	218	n/a	0	0	0.5869140625	0.422607421875	lower	../fonts/amplitud.ttf
1647.836	n/a	WORD	823918	wordpools/wasnorm_wordpool_less_exclusions.txt	LTP243	ltpFR	6	7	1	CONDUCTOR	362	n/a	1	0	0.5869140625	0.422607421875	lower	../fonts/amplitud.ttf
1651.684	n/a	WORD	825842	wordpools/wasnorm_wordpool_less_exclusions.txt	LTP243	ltpFR	6	7	0	SIRLOIN	1311	n/a	0	1	0.412841796875	0.57763671875	upper	../fonts/zerothre.ttf
1655.632	n/a	WORD	827816	wordpools/wasnorm_wordpool_less_exclusions.txt	LTP243	ltpFR	6	7	0	VITAMIN	1574	n/a	0	1	0.412841796875	0.57763671875	upper	../fonts/zerothre.ttf
1659.648	n/a	WORD	829824	wordpools/wasnorm_wordpool_less_exclusions.txt	LTP243	ltpFR	6	7	0	STAPLE	1371	n/a	0	1	0.412841796875	0.57763671875	upper	../fonts/zerothre.ttf
1663.78	n/a	WORD	831890	wordpools/wasnorm_wordpool_less_exclusions.txt	LTP243	ltpFR	6	7	1	DIRT	472	n/a	1	0	0.5869140625	0.422607421875	lower	../fonts/amplitud.ttf
1667.69	n/a	WORD	833845	wordpools/wasnorm_wordpool_less_exclusions.txt	LTP243	ltpFR	6	7	1	TOWN	1491	n/a	0	0	0.5869140625	0.422607421875	lower	../fonts/amplitud.ttf
1671.626	n/a	WORD	835813	wordpools/wasnorm_wordpool_less_exclusions.txt	LTP243	ltpFR	6	7	0	EWE	542	n/a	1	1	0.412841796875	0.57763671875	upper	../fonts/zerothre.ttf
1675.574	n/a	WORD	837787	wordpools/wasnorm_wordpool_less_exclusions.txt	LTP243	ltpFR	6	7	0	DUSTPAN	509	n/a	0	1	0.412841796875	0.57763671875	upper	../fonts/zerothre.ttf
1681.214	n/a	REC_START	840607	n/a	LTP243	ltpFR	6	7	n/a	n/a	n/a	n/a	n/a	n/a	n/a	n/a	n/a	n/a
1681.972	n/a	REC_WORD	840986	wordpools/wasnorm_wordpool_less_exclusions.txt	LTP243	ltpFR	6	7	0	EWE	542	n/a	1	n/a	n/a	n/a	n/a	n/a
1684.716	n/a	REC_WORD	842358	wordpools/wasnorm_wordpool_less_exclusions.txt	LTP243	ltpFR	6	7	0	DUSTPAN	509	n/a	0	n/a	n/a	n/a	n/a	n/a
1686.058	n/a	REC_WORD	843029	wordpools/wasnorm_wordpool_less_exclusions.txt	LTP243	ltpFR	6	7	1	DIRT	472	n/a	1	n/a	n/a	n/a	n/a	n/a
1686.796	n/a	REC_WORD	843398	wordpools/wasnorm_wordpool_less_exclusions.txt	LTP243	ltpFR	6	7	1	CONDUCTOR	362	n/a	1	n/a	n/a	n/a	n/a	n/a
1688.238	n/a	REC_WORD	844119	wordpools/wasnorm_wordpool_less_exclusions.txt	LTP243	ltpFR	6	7	1	TOWN	1491	n/a	0	n/a	n/a	n/a	n/a	n/a
1695.036	n/a	REC_WORD	847518	wordpools/wasnorm_wordpool_less_exclusions.txt	LTP243	ltpFR	6	7	0	SCREEN	1253	n/a	1	n/a	n/a	n/a	n/a	n/a
1695.91	n/a	REC_WORD	847955	wordpools/wasnorm_wordpool_less_exclusions.txt	LTP243	ltpFR	6	7	0	DIRECTOR	471	n/a	1	n/a	n/a	n/a	n/a	n/a
1696.788	n/a	REC_WORD	848394	wordpools/wasnorm_wordpool_less_exclusions.txt	LTP243	ltpFR	6	7	1	LIVER	833	n/a	1	n/a	n/a	n/a	n/a	n/a
1697.582	n/a	REC_WORD	848791	wordpools/wasnorm_wordpool_less_exclusions.txt	LTP243	ltpFR	6	7	0	VITAMIN	1574	n/a	0	n/a	n/a	n/a	n/a	n/a
1711.546	n/a	REC_WORD	855773	wordpools/wasnorm_wordpool_less_exclusions.txt	LTP243	ltpFR	6	7	0	SIRLOIN	1311	n/a	0	n/a	n/a	n/a	n/a	n/a
1721.808	n/a	REC_WORD	860904	wordpools/wasnorm_wordpool_less_exclusions.txt	LTP243	ltpFR	6	7	0	MAILBOX	857	n/a	1	n/a	n/a	n/a	n/a	n/a
1723.558	n/a	REC_WORD	861779	wordpools/wasnorm_wordpool_less_exclusions.txt	LTP243	ltpFR	6	7	1	VET	1560	n/a	1	n/a	n/a	n/a	n/a	n/a
1725.3	n/a	REC_WORD	862650	wordpools/wasnorm_wordpool_less_exclusions.txt	LTP243	ltpFR	6	7	1	CAGE	218	n/a	0	n/a	n/a	n/a	n/a	n/a
1761.536	n/a	WORD	880768	wordpools/wasnorm_wordpool_less_exclusions.txt	LTP243	ltpFR	6	8	0	SURF	1412	n/a	1	1	0.412841796875	0.57763671875	upper	../fonts/zerothre.ttf
1765.552	n/a	WORD	882776	wordpools/wasnorm_wordpool_less_exclusions.txt	LTP243	ltpFR	6	8	0	STUDENT	1395	n/a	1	1	0.412841796875	0.57763671875	upper	../fonts/zerothre.ttf
1769.718	n/a	WORD	884859	wordpools/wasnorm_wordpool_less_exclusions.txt	LTP243	ltpFR	6	8	0	DIPLOMA	470	n/a	1	1	0.412841796875	0.57763671875	upper	../fonts/zerothre.ttf
1773.748	n/a	WORD	886874	wordpools/wasnorm_wordpool_less_exclusions.txt	LTP243	ltpFR	6	8	0	TECHNICIAN	1443	n/a	1	1	0.412841796875	0.57763671875	upper	../fonts/zerothre.ttf
1777.862	n/a	WORD	888931	wordpools/wasnorm_wordpool_less_exclusions.txt	LTP243	ltpFR	6	8	0	MUFFIN	929	n/a	0	1	0.412841796875	0.57763671875	upper	../fonts/zerothre.ttf
1782.032	n/a	WORD	891016	wordpools/wasnorm_wordpool_less_exclusions.txt	LTP243	ltpFR	6	8	0	RODENT	1204	n/a	0	1	0.412841796875	0.57763671875	upper	../fonts/zerothre.ttf
1785.91	n/a	WORD	892955	wordpools/wasnorm_wordpool_less_exclusions.txt	LTP243	ltpFR	6	8	1	OPERATOR	979	n/a	1	0	0.5869140625	0.422607421875	lower	../fonts/amplitud.ttf
1789.908	n/a	WORD	894954	wordpools/wasnorm_wordpool_less_exclusions.txt	LTP243	ltpFR	6	8	1	RAG	1160	n/a	0	0	0.5869140625	0.422607421875	lower	../fonts/amplitud.ttf
1794.028	n/a	WORD	897014	wordpools/wasnorm_wordpool_less_exclusions.txt	LTP243	ltpFR	6	8	1	FLAG	573	n/a	0	0	0.5869140625	0.422607421875	lower	../fonts/amplitud.ttf
1798.11	n/a	WORD	899055	wordpools/wasnorm_wordpool_less_exclusions.txt	LTP243	ltpFR	6	8	1	BANNER	85	n/a	0	0	0.5869140625	0.422607421875	lower	../fonts/amplitud.ttf
1802.126	n/a	WORD	901063	wordpools/wasnorm_wordpool_less_exclusions.txt	LTP243	ltpFR	6	8	0	ROBE	1198	n/a	1	1	0.412841796875	0.57763671875	upper	../fonts/zerothre.ttf
1805.956	n/a	WORD	902978	wordpools/wasnorm_wordpool_less_exclusions.txt	LTP243	ltpFR	6	8	0	RULER	1216	n/a	0	1	0.412841796875	0.57763671875	upper	../fonts/zerothre.ttf
1809.99	n/a	WORD	904995	wordpools/wasnorm_wordpool_less_exclusions.txt	LTP243	ltpFR	6	8	1	QUEEN	1149	n/a	1	0	0.5869140625	0.422607421875	lower	../fonts/amplitud.ttf
1813.838	n/a	WORD	906919	wordpools/wasnorm_wordpool_less_exclusions.txt	LTP243	ltpFR	6	8	1	UNIFORM	1539	n/a	0	0	0.5869140625	0.422607421875	lower	../fonts/amplitud.ttf
1818.05	n/a	WORD	909025	wordpools/wasnorm_wordpool_less_exclusions.txt	LTP243	ltpFR	6	8	1	CAR	241	n/a	0	0	0.5869140625	0.422607421875	lower	../fonts/amplitud.ttf
1821.998	n/a	WORD	910999	wordpools/wasnorm_wordpool_less_exclusions.txt	LTP243	ltpFR	6	8	1	BUTTER	205	n/a	1	0	0.5869140625	0.422607421875	lower	../fonts/amplitud.ttf
1827.72	n/a	REC_START	913860	n/a	LTP243	ltpFR	6	8	n/a	n/a	n/a	n/a	n/a	n/a	n/a	n/a	n/a	n/a
1828.544	n/a	REC_WORD	914272	wordpools/wasnorm_wordpool_less_exclusions.txt	LTP243	ltpFR	6	8	1	BUTTER	205	n/a	1	n/a	n/a	n/a	n/a	n/a
1829.482	n/a	REC_WORD	914741	wordpools/wasnorm_wordpool_less_exclusions.txt	LTP243	ltpFR	6	8	1	CAR	241	n/a	0	n/a	n/a	n/a	n/a	n/a
1830.524	n/a	REC_WORD	915262	wordpools/wasnorm_wordpool_less_exclusions.txt	LTP243	ltpFR	6	8	0	STUDENT	1395	n/a	1	n/a	n/a	n/a	n/a	n/a
1831.642	n/a	REC_WORD	915821	wordpools/wasnorm_wordpool_less_exclusions.txt	LTP243	ltpFR	6	8	0	SURF	1412	n/a	1	n/a	n/a	n/a	n/a	n/a
1832.684	n/a	REC_WORD	916342	wordpools/wasnorm_wordpool_less_exclusions.txt	LTP243	ltpFR	6	8	0	DIPLOMA	470	n/a	1	n/a	n/a	n/a	n/a	n/a
1834.7	n/a	REC_WORD	917350	wordpools/wasnorm_wordpool_less_exclusions.txt	LTP243	ltpFR	6	8	0	TECHNICIAN	1443	n/a	1	n/a	n/a	n/a	n/a	n/a
1836.786	n/a	REC_WORD	918393	wordpools/wasnorm_wordpool_less_exclusions.txt	LTP243	ltpFR	6	8	0	MUFFIN	929	n/a	0	n/a	n/a	n/a	n/a	n/a
1838.422	n/a	REC_WORD	919211	wordpools/wasnorm_wordpool_less_exclusions.txt	LTP243	ltpFR	6	8	0	RODENT	1204	n/a	0	n/a	n/a	n/a	n/a	n/a
1841.64	n/a	REC_WORD	920820	wordpools/wasnorm_wordpool_less_exclusions.txt	LTP243	ltpFR	6	8	1	OPERATOR	979	n/a	1	n/a	n/a	n/a	n/a	n/a
1845.412	n/a	REC_WORD	922706	wordpools/wasnorm_wordpool_less_exclusions.txt	LTP243	ltpFR	6	8	1	RAG	1160	n/a	0	n/a	n/a	n/a	n/a	n/a
1847.376	n/a	REC_WORD	923688	wordpools/wasnorm_wordpool_less_exclusions.txt	LTP243	ltpFR	6	8	1	QUEEN	1149	n/a	1	n/a	n/a	n/a	n/a	n/a
1850.116	n/a	REC_WORD	925058	wordpools/wasnorm_wordpool_less_exclusions.txt	LTP243	ltpFR	6	8	0	RULER	1216	n/a	0	n/a	n/a	n/a	n/a	n/a
1852.924	n/a	REC_WORD	926462	wordpools/wasnorm_wordpool_less_exclusions.txt	LTP243	ltpFR	6	8	1	UNIFORM	1539	n/a	0	n/a	n/a	n/a	n/a	n/a
1865.552	n/a	REC_WORD	932776	wordpools/wasnorm_wordpool_less_exclusions.txt	LTP243	ltpFR	6	8	0	ROBE	1198	n/a	1	n/a	n/a	n/a	n/a	n/a
1877.34	n/a	REC_WORD	938670	wordpools/wasnorm_wordpool_less_exclusions.txt	LTP243	ltpFR	6	8	1	FLAG	573	n/a	0	n/a	n/a	n/a	n/a	n/a
1881.58	n/a	REC_WORD	940790	wordpools/wasnorm_wordpool_less_exclusions.txt	LTP243	ltpFR	6	8	1	BANNER	85	n/a	0	n/a	n/a	n/a	n/a	n/a
1909.602	n/a	WORD	954801	wordpools/wasnorm_wordpool_less_exclusions.txt	LTP243	ltpFR	6	9	-1	SCREWDRIVER	1255	n/a	-1	1	1.0	1.0	upper	../fonts/Verdana.ttf
1913.534	n/a	WORD	956767	wordpools/wasnorm_wordpool_less_exclusions.txt	LTP243	ltpFR	6	9	-1	SINK	1309	n/a	-1	1	1.0	1.0	upper	../fonts/Verdana.ttf
1917.578	n/a	WORD	958789	wordpools/wasnorm_wordpool_less_exclusions.txt	LTP243	ltpFR	6	9	-1	BROCCOLI	176	n/a	-1	1	1.0	1.0	upper	../fonts/Verdana.ttf
1921.678	n/a	WORD	960839	wordpools/wasnorm_wordpool_less_exclusions.txt	LTP243	ltpFR	6	9	-1	CAPTAIN	239	n/a	-1	1	1.0	1.0	upper	../fonts/Verdana.ttf
1925.63	n/a	WORD	962815	wordpools/wasnorm_wordpool_less_exclusions.txt	LTP243	ltpFR	6	9	-1	BARTENDER	92	n/a	-1	1	1.0	1.0	upper	../fonts/Verdana.ttf
1929.646	n/a	WORD	964823	wordpools/wasnorm_wordpool_less_exclusions.txt	LTP243	ltpFR	6	9	-1	VISITOR	1573	n/a	-1	1	1.0	1.0	upper	../fonts/Verdana.ttf
1933.66	n/a	WORD	966830	wordpools/wasnorm_wordpool_less_exclusions.txt	LTP243	ltpFR	6	9	-1	PEOPLE	1046	n/a	-1	1	1.0	1.0	upper	../fonts/Verdana.ttf
1937.71	n/a	WORD	968855	wordpools/wasnorm_wordpool_less_exclusions.txt	LTP243	ltpFR	6	9	-1	KIWI	781	n/a	-1	1	1.0	1.0	upper	../fonts/Verdana.ttf
1941.638	n/a	WORD	970819	wordpools/wasnorm_wordpool_less_exclusions.txt	LTP243	ltpFR	6	9	-1	LOBSTER	837	n/a	-1	1	1.0	1.0	upper	../fonts/Verdana.ttf
1945.792	n/a	WORD	972896	wordpools/wasnorm_wordpool_less_exclusions.txt	LTP243	ltpFR	6	9	-1	BARRACUDA	90	n/a	-1	1	1.0	1.0	upper	../fonts/Verdana.ttf
1949.806	n/a	WORD	974903	wordpools/wasnorm_wordpool_less_exclusions.txt	LTP243	ltpFR	6	9	-1	ICE	730	n/a	-1	1	1.0	1.0	upper	../fonts/Verdana.ttf
1953.636	n/a	WORD	976818	wordpools/wasnorm_wordpool_less_exclusions.txt	LTP243	ltpFR	6	9	-1	PROFESSIONAL	1130	n/a	-1	1	1.0	1.0	upper	../fonts/Verdana.ttf
1957.668	n/a	WORD	978834	wordpools/wasnorm_wordpool_less_exclusions.txt	LTP243	ltpFR	6	9	-1	SCARF	1246	n/a	-1	1	1.0	1.0	upper	../fonts/Verdana.ttf
1961.752	n/a	WORD	980876	wordpools/wasnorm_wordpool_less_exclusions.txt	LTP243	ltpFR	6	9	-1	TIE	1466	n/a	-1	1	1.0	1.0	upper	../fonts/Verdana.ttf
1965.936	n/a	WORD	982968	wordpools/wasnorm_wordpool_less_exclusions.txt	LTP243	ltpFR	6	9	-1	BATHTUB	100	n/a	-1	1	1.0	1.0	upper	../fonts/Verdana.ttf
1970.068	n/a	WORD	985034	wordpools/wasnorm_wordpool_less_exclusions.txt	LTP243	ltpFR	6	9	-1	JUDGE	761	n/a	-1	1	1.0	1.0	upper	../fonts/Verdana.ttf
1975.974	n/a	REC_START	987987	n/a	LTP243	ltpFR	6	9	n/a	n/a	n/a	n/a	n/a	n/a	n/a	n/a	n/a	n/a
1977.12	n/a	REC_WORD	988560	wordpools/wasnorm_wordpool_less_exclusions.txt	LTP243	ltpFR	6	9	-1	SCARF	1246	n/a	-1	n/a	n/a	n/a	n/a	n/a
1978.168	n/a	REC_WORD	989084	wordpools/wasnorm_wordpool_less_exclusions.txt	LTP243	ltpFR	6	9	-1	TIE	1466	n/a	-1	n/a	n/a	n/a	n/a	n/a
1979.466	n/a	REC_WORD	989733	wordpools/wasnorm_wordpool_less_exclusions.txt	LTP243	ltpFR	6	9	-1	BATHTUB	100	n/a	-1	n/a	n/a	n/a	n/a	n/a
1984.27	n/a	REC_WORD	992135	wordpools/wasnorm_wordpool_less_exclusions.txt	LTP243	ltpFR	6	9	-1	JUDGE	761	n/a	-1	n/a	n/a	n/a	n/a	n/a
1988.132	n/a	REC_WORD	994066	wordpools/wasnorm_wordpool_less_exclusions.txt	LTP243	ltpFR	6	9	-1	SCREWDRIVER	1255	n/a	-1	n/a	n/a	n/a	n/a	n/a
1989.308	n/a	REC_WORD	994654	wordpools/wasnorm_wordpool_less_exclusions.txt	LTP243	ltpFR	6	9	-1	SINK	1309	n/a	-1	n/a	n/a	n/a	n/a	n/a
1990.442	n/a	REC_WORD	995221	wordpools/wasnorm_wordpool_less_exclusions.txt	LTP243	ltpFR	6	9	-1	BROCCOLI	176	n/a	-1	n/a	n/a	n/a	n/a	n/a
1999.086	n/a	REC_WORD	999543	wordpools/wasnorm_wordpool_less_exclusions.txt	LTP243	ltpFR	6	9	-1	VISITOR	1573	n/a	-1	n/a	n/a	n/a	n/a	n/a
2000.58	n/a	REC_WORD	1000290	wordpools/wasnorm_wordpool_less_exclusions.txt	LTP243	ltpFR	6	9	-1	PEOPLE	1046	n/a	-1	n/a	n/a	n/a	n/a	n/a
2015.212	n/a	REC_WORD	1007606	wordpools/wasnorm_wordpool_less_exclusions.txt	LTP243	ltpFR	6	9	-1	KIWI	781	n/a	-1	n/a	n/a	n/a	n/a	n/a
2016.728	n/a	REC_WORD	1008364	wordpools/wasnorm_wordpool_less_exclusions.txt	LTP243	ltpFR	6	9	-1	LOBSTER	837	n/a	-1	n/a	n/a	n/a	n/a	n/a
2017.776	n/a	REC_WORD	1008888	wordpools/wasnorm_wordpool_less_exclusions.txt	LTP243	ltpFR	6	9	-1	BARRACUDA	90	n/a	-1	n/a	n/a	n/a	n/a	n/a
2019.372	n/a	REC_WORD	1009686	wordpools/wasnorm_wordpool_less_exclusions.txt	LTP243	ltpFR	6	9	-1	ICE	730	n/a	-1	n/a	n/a	n/a	n/a	n/a
2023.672	n/a	REC_WORD	1011836	wordpools/wasnorm_wordpool_less_exclusions.txt	LTP243	ltpFR	6	9	-1	PROFESSIONAL	1130	n/a	-1	n/a	n/a	n/a	n/a	n/a
2055.122	n/a	WORD	1027561	wordpools/wasnorm_wordpool_less_exclusions.txt	LTP243	ltpFR	6	10	0	SPRINKLE	1359	n/a	0	1	0.412841796875	0.57763671875	upper	../fonts/zerothre.ttf
2059.158	n/a	WORD	1029579	wordpools/wasnorm_wordpool_less_exclusions.txt	LTP243	ltpFR	6	10	0	BIBLE	124	n/a	0	1	0.412841796875	0.57763671875	upper	../fonts/zerothre.ttf
2063.19	n/a	WORD	1031595	wordpools/wasnorm_wordpool_less_exclusions.txt	LTP243	ltpFR	6	10	0	SUPERMARKET	1409	n/a	1	1	0.412841796875	0.57763671875	upper	../fonts/zerothre.ttf
2067.318	n/a	WORD	1033659	wordpools/wasnorm_wordpool_less_exclusions.txt	LTP243	ltpFR	6	10	0	MEAL	882	n/a	1	1	0.412841796875	0.57763671875	upper	../fonts/zerothre.ttf
2071.42	n/a	WORD	1035710	wordpools/wasnorm_wordpool_less_exclusions.txt	LTP243	ltpFR	6	10	0	BLACKBOARD	133	n/a	1	1	0.412841796875	0.57763671875	upper	../fonts/zerothre.ttf
2075.518	n/a	WORD	1037759	wordpools/wasnorm_wordpool_less_exclusions.txt	LTP243	ltpFR	6	10	0	LUNCH	849	n/a	1	1	0.412841796875	0.57763671875	upper	../fonts/zerothre.ttf
2079.72	n/a	WORD	1039860	wordpools/wasnorm_wordpool_less_exclusions.txt	LTP243	ltpFR	6	10	0	REFRIGERATOR	1179	n/a	1	1	0.412841796875	0.57763671875	upper	../fonts/zerothre.ttf
2083.836	n/a	WORD	1041918	wordpools/wasnorm_wordpool_less_exclusions.txt	LTP243	ltpFR	6	10	0	PITCHFORK	1078	n/a	1	1	0.412841796875	0.57763671875	upper	../fonts/zerothre.ttf
2088.034	n/a	WORD	1044017	wordpools/wasnorm_wordpool_less_exclusions.txt	LTP243	ltpFR	6	10	0	COACH	331	n/a	1	1	0.412841796875	0.57763671875	upper	../fonts/zerothre.ttf
2091.966	n/a	WORD	1045983	wordpools/wasnorm_wordpool_less_exclusions.txt	LTP243	ltpFR	6	10	0	SKATE	1313	n/a	1	1	0.412841796875	0.57763671875	upper	../fonts/zerothre.ttf
2096.116	n/a	WORD	1048058	wordpools/wasnorm_wordpool_less_exclusions.txt	LTP243	ltpFR	6	10	0	WAVE	1596	n/a	1	1	0.412841796875	0.57763671875	upper	../fonts/zerothre.ttf
2100.332	n/a	WORD	1050166	wordpools/wasnorm_wordpool_less_exclusions.txt	LTP243	ltpFR	6	10	0	JACKET	747	n/a	1	1	0.412841796875	0.57763671875	upper	../fonts/zerothre.ttf
2104.262	n/a	WORD	1052131	wordpools/wasnorm_wordpool_less_exclusions.txt	LTP243	ltpFR	6	10	0	PELT	1040	n/a	0	1	0.412841796875	0.57763671875	upper	../fonts/zerothre.ttf
2108.394	n/a	WORD	1054197	wordpools/wasnorm_wordpool_less_exclusions.txt	LTP243	ltpFR	6	10	0	SEAL	1262	n/a	0	1	0.412841796875	0.57763671875	upper	../fonts/zerothre.ttf
2112.376	n/a	WORD	1056188	wordpools/wasnorm_wordpool_less_exclusions.txt	LTP243	ltpFR	6	10	0	GAZELLE	628	n/a	1	1	0.412841796875	0.57763671875	upper	../fonts/zerothre.ttf
2116.476	n/a	WORD	1058238	wordpools/wasnorm_wordpool_less_exclusions.txt	LTP243	ltpFR	6	10	0	SHIRT	1287	n/a	0	1	0.412841796875	0.57763671875	upper	../fonts/zerothre.ttf
2122.55	n/a	REC_START	1061275	n/a	LTP243	ltpFR	6	10	n/a	n/a	n/a	n/a	n/a	n/a	n/a	n/a	n/a	n/a
2123.118	n/a	REC_WORD	1061559	wordpools/wasnorm_wordpool_less_exclusions.txt	LTP243	ltpFR	6	10	0	SHIRT	1287	n/a	0	n/a	n/a	n/a	n/a	n/a
2123.898	n/a	REC_WORD	1061949	wordpools/wasnorm_wordpool_less_exclusions.txt	LTP243	ltpFR	6	10	0	GAZELLE	628	n/a	1	n/a	n/a	n/a	n/a	n/a
2124.79	n/a	REC_WORD	1062395	wordpools/wasnorm_wordpool_less_exclusions.txt	LTP243	ltpFR	6	10	0	SEAL	1262	n/a	0	n/a	n/a	n/a	n/a	n/a
2132.234	n/a	REC_WORD	1066117	wordpools/wasnorm_wordpool_less_exclusions.txt	LTP243	ltpFR	6	10	0	SPRINKLE	1359	n/a	0	n/a	n/a	n/a	n/a	n/a
2133.446	n/a	REC_WORD	1066723	wordpools/wasnorm_wordpool_less_exclusions.txt	LTP243	ltpFR	6	10	0	BIBLE	124	n/a	0	n/a	n/a	n/a	n/a	n/a
2134.25	n/a	REC_WORD	1067125	wordpools/wasnorm_wordpool_less_exclusions.txt	LTP243	ltpFR	6	10	0	SUPERMARKET	1409	n/a	1	n/a	n/a	n/a	n/a	n/a
2135.662	n/a	REC_WORD	1067831	wordpools/wasnorm_wordpool_less_exclusions.txt	LTP243	ltpFR	6	10	0	BLACKBOARD	133	n/a	1	n/a	n/a	n/a	n/a	n/a
2136.918	n/a	REC_WORD	1068459	wordpools/wasnorm_wordpool_less_exclusions.txt	LTP243	ltpFR	6	10	0	MEAL	882	n/a	1	n/a	n/a	n/a	n/a	n/a
2138.116	n/a	REC_WORD	1069058	wordpools/wasnorm_wordpool_less_exclusions.txt	LTP243	ltpFR	6	10	0	LUNCH	849	n/a	1	n/a	n/a	n/a	n/a	n/a
2161.244	n/a	REC_WORD	1080622	wordpools/wasnorm_wordpool_less_exclusions.txt	LTP243	ltpFR	6	10	0	SHIRT	1287	n/a	0	n/a	n/a	n/a	n/a	n/a
2162.326	n/a	REC_WORD	1081163	wordpools/wasnorm_wordpool_less_exclusions.txt	LTP243	ltpFR	6	10	0	JACKET	747	n/a	1	n/a	n/a	n/a	n/a	n/a
2203.538	n/a	WORD	1101769	wordpools/wasnorm_wordpool_less_exclusions.txt	LTP243	ltpFR	6	11	1	COCKTAIL	338	n/a	0	0	0.5869140625	0.422607421875	lower	../fonts/amplitud.ttf
2207.72	n/a	WORD	1103860	wordpools/wasnorm_wordpool_less_exclusions.txt	LTP243	ltpFR	6	11	1	TIMBER	1469	n/a	0	0	0.5869140625	0.422607421875	lower	../fonts/amplitud.ttf
2211.774	n/a	WORD	1105887	wordpools/wasnorm_wordpool_less_exclusions.txt	LTP243	ltpFR	6	11	1	BUSH	202	n/a	1	0	0.5869140625	0.422607421875	lower	../fonts/amplitud.ttf
2215.672	n/a	WORD	1107836	wordpools/wasnorm_wordpool_less_exclusions.txt	LTP243	ltpFR	6	11	1	DONKEY	484	n/a	1	0	0.5869140625	0.422607421875	lower	../fonts/amplitud.ttf
2219.834	n/a	WORD	1109917	wordpools/wasnorm_wordpool_less_exclusions.txt	LTP243	ltpFR	6	11	1	DAD	433	n/a	1	0	0.5869140625	0.422607421875	lower	../fonts/amplitud.ttf
2223.82	n/a	WORD	1111910	wordpools/wasnorm_wordpool_less_exclusions.txt	LTP243	ltpFR	6	11	1	BARN	89	n/a	0	0	0.5869140625	0.422607421875	lower	../fonts/amplitud.ttf
2228.004	n/a	WORD	1114002	wordpools/wasnorm_wordpool_less_exclusions.txt	LTP243	ltpFR	6	11	1	BRANDY	169	n/a	0	0	0.5869140625	0.422607421875	lower	../fonts/amplitud.ttf
2231.852	n/a	WORD	1115926	wordpools/wasnorm_wordpool_less_exclusions.txt	LTP243	ltpFR	6	11	1	BLOCKADE	137	n/a	0	0	0.5869140625	0.422607421875	lower	../fonts/amplitud.ttf
2236.014	n/a	WORD	1118007	wordpools/wasnorm_wordpool_less_exclusions.txt	LTP243	ltpFR	6	11	1	CARPET	247	n/a	0	0	0.5869140625	0.422607421875	lower	../fonts/amplitud.ttf
2240.15	n/a	WORD	1120075	wordpools/wasnorm_wordpool_less_exclusions.txt	LTP243	ltpFR	6	11	1	CARRIAGE	248	n/a	0	0	0.5869140625	0.422607421875	lower	../fonts/amplitud.ttf
2244.044	n/a	WORD	1122022	wordpools/wasnorm_wordpool_less_exclusions.txt	LTP243	ltpFR	6	11	1	BISON	131	n/a	1	0	0.5869140625	0.422607421875	lower	../fonts/amplitud.ttf
2247.946	n/a	WORD	1123973	wordpools/wasnorm_wordpool_less_exclusions.txt	LTP243	ltpFR	6	11	1	BEAVER	109	n/a	1	0	0.5869140625	0.422607421875	lower	../fonts/amplitud.ttf
2252.096	n/a	WORD	1126048	wordpools/wasnorm_wordpool_less_exclusions.txt	LTP243	ltpFR	6	11	1	COMMUNITY	356	n/a	0	0	0.5869140625	0.422607421875	lower	../fonts/amplitud.ttf
2256.224	n/a	WORD	1128112	wordpools/wasnorm_wordpool_less_exclusions.txt	LTP243	ltpFR	6	11	1	HEN	703	n/a	1	0	0.5869140625	0.422607421875	lower	../fonts/amplitud.ttf
2260.376	n/a	WORD	1130188	wordpools/wasnorm_wordpool_less_exclusions.txt	LTP243	ltpFR	6	11	1	ANIMAL	23	n/a	1	0	0.5869140625	0.422607421875	lower	../fonts/amplitud.ttf
2264.374	n/a	WORD	1132187	wordpools/wasnorm_wordpool_less_exclusions.txt	LTP243	ltpFR	6	11	1	SKYSCRAPER	1322	n/a	0	0	0.5869140625	0.422607421875	lower	../fonts/amplitud.ttf
2270.332	n/a	REC_START	1135166	n/a	LTP243	ltpFR	6	11	n/a	n/a	n/a	n/a	n/a	n/a	n/a	n/a	n/a	n/a
2270.65	n/a	REC_WORD	1135325	wordpools/wasnorm_wordpool_less_exclusions.txt	LTP243	ltpFR	6	11	1	SKYSCRAPER	1322	n/a	0	n/a	n/a	n/a	n/a	n/a
2271.65	n/a	REC_WORD_VV	1135825	wordpools/wasnorm_wordpool_less_exclusions.txt	LTP243	ltpFR	6	11	n/a	<>	-1	n/a	n/a	n/a	n/a	n/a	n/a	n/a
2271.968	n/a	REC_WORD	1135984	wordpools/wasnorm_wordpool_less_exclusions.txt	LTP243	ltpFR	6	11	1	BISON	131	n/a	1	n/a	n/a	n/a	n/a	n/a
2273.284	n/a	REC_WORD	1136642	wordpools/wasnorm_wordpool_less_exclusions.txt	LTP243	ltpFR	6	11	1	BEAVER	109	n/a	1	n/a	n/a	n/a	n/a	n/a
2275.09	n/a	REC_WORD	1137545	wordpools/wasnorm_wordpool_less_exclusions.txt	LTP243	ltpFR	6	11	1	ANIMAL	23	n/a	1	n/a	n/a	n/a	n/a	n/a
2285.608	n/a	REC_WORD	1142804	wordpools/wasnorm_wordpool_less_exclusions.txt	LTP243	ltpFR	6	11	1	BUSH	202	n/a	1	n/a	n/a	n/a	n/a	n/a
2286.576	n/a	REC_WORD	1143288	wordpools/wasnorm_wordpool_less_exclusions.txt	LTP243	ltpFR	6	11	1	TIMBER	1469	n/a	0	n/a	n/a	n/a	n/a	n/a
2287.838	n/a	REC_WORD	1143919	wordpools/wasnorm_wordpool_less_exclusions.txt	LTP243	ltpFR	6	11	1	COCKTAIL	338	n/a	0	n/a	n/a	n/a	n/a	n/a
2289.13	n/a	REC_WORD	1144565	wordpools/wasnorm_wordpool_less_exclusions.txt	LTP243	ltpFR	6	11	1	BRANDY	169	n/a	0	n/a	n/a	n/a	n/a	n/a
2333.68	n/a	REC_WORD	1166840	wordpools/wasnorm_wordpool_less_exclusions.txt	LTP243	ltpFR	6	11	1	DAD	433	n/a	1	n/a	n/a	n/a	n/a	n/a
2334.494	n/a	REC_WORD	1167247	wordpools/wasnorm_wordpool_less_exclusions.txt	LTP243	ltpFR	6	11	1	BARN	89	n/a	0	n/a	n/a	n/a	n/a	n/a
2350.436	n/a	WORD	1175218	wordpools/wasnorm_wordpool_less_exclusions.txt	LTP243	ltpFR	6	12	1	BULB	192	n/a	0	0	0.5869140625	0.422607421875	lower	../fonts/amplitud.ttf
2354.402	n/a	WORD	1177201	wordpools/wasnorm_wordpool_less_exclusions.txt	LTP243	ltpFR	6	12	1	SCENERY	1247	n/a	0	0	0.5869140625	0.422607421875	lower	../fonts/amplitud.ttf
2358.384	n/a	WORD	1179192	wordpools/wasnorm_wordpool_less_exclusions.txt	LTP243	ltpFR	6	12	1	MAYONNAISE	880	n/a	0	0	0.5869140625	0.422607421875	lower	../fonts/amplitud.ttf
2362.378	n/a	WORD	1181189	wordpools/wasnorm_wordpool_less_exclusions.txt	LTP243	ltpFR	6	12	0	FRIES	607	n/a	2	1	0.412841796875	0.57763671875	upper	../fonts/zerothre.ttf
2363.922	n/a	KEY_MSG	1181961	n/a	LTP243	ltpFR	6	12	n/a	n/a	n/a	n/a	n/a	n/a	n/a	n/a	n/a	n/a
2366.33	n/a	WORD	1183165	wordpools/wasnorm_wordpool_less_exclusions.txt	LTP243	ltpFR	6	12	0	MUSHROOM	934	n/a	0	1	0.412841796875	0.57763671875	upper	../fonts/zerothre.ttf
2370.246	n/a	WORD	1185123	wordpools/wasnorm_wordpool_less_exclusions.txt	LTP243	ltpFR	6	12	0	PUBLISHER	1137	n/a	1	1	0.412841796875	0.57763671875	upper	../fonts/zerothre.ttf
2374.428	n/a	WORD	1187214	wordpools/wasnorm_wordpool_less_exclusions.txt	LTP243	ltpFR	6	12	0	FLASHLIGHT	575	n/a	0	1	0.412841796875	0.57763671875	upper	../fonts/zerothre.ttf
2378.49	n/a	WORD	1189245	wordpools/wasnorm_wordpool_less_exclusions.txt	LTP243	ltpFR	6	12	1	ELECTRICIAN	521	n/a	1	0	0.5869140625	0.422607421875	lower	../fonts/amplitud.ttf
2382.706	n/a	WORD	1191353	wordpools/wasnorm_wordpool_less_exclusions.txt	LTP243	ltpFR	6	12	1	KIDNEY	776	n/a	1	0	0.5869140625	0.422607421875	lower	../fonts/amplitud.ttf
2386.874	n/a	WORD	1193437	wordpools/wasnorm_wordpool_less_exclusions.txt	LTP243	ltpFR	6	12	1	MONUMENT	913	n/a	0	0	0.5869140625	0.422607421875	lower	../fonts/amplitud.ttf
2391.06	n/a	WORD	1195530	wordpools/wasnorm_wordpool_less_exclusions.txt	LTP243	ltpFR	6	12	1	FIN	566	n/a	0	0	0.5869140625	0.422607421875	lower	../fonts/amplitud.ttf
2395.058	n/a	WORD	1197529	wordpools/wasnorm_wordpool_less_exclusions.txt	LTP243	ltpFR	6	12	1	PIKE	1067	n/a	0	0	0.5869140625	0.422607421875	lower	../fonts/amplitud.ttf
2398.902	n/a	WORD	1199451	wordpools/wasnorm_wordpool_less_exclusions.txt	LTP243	ltpFR	6	12	0	DAUGHTER	442	n/a	1	1	0.412841796875	0.57763671875	upper	../fonts/zerothre.ttf
2402.872	n/a	WORD	1201436	wordpools/wasnorm_wordpool_less_exclusions.txt	LTP243	ltpFR	6	12	0	ELEPHANT	523	n/a	1	1	0.412841796875	0.57763671875	upper	../fonts/zerothre.ttf
2406.766	n/a	WORD	1203383	wordpools/wasnorm_wordpool_less_exclusions.txt	LTP243	ltpFR	6	12	0	PORK	1108	n/a	0	1	0.412841796875	0.57763671875	upper	../fonts/zerothre.ttf
2410.634	n/a	WORD	1205317	wordpools/wasnorm_wordpool_less_exclusions.txt	LTP243	ltpFR	6	12	0	SOCKET	1340	n/a	0	1	0.412841796875	0.57763671875	upper	../fonts/zerothre.ttf
2416.69	n/a	REC_START	1208345	n/a	LTP243	ltpFR	6	12	n/a	n/a	n/a	n/a	n/a	n/a	n/a	n/a	n/a	n/a
2417.198	n/a	REC_WORD	1208599	wordpools/wasnorm_wordpool_less_exclusions.txt	LTP243	ltpFR	6	12	0	SOCKET	1340	n/a	0	n/a	n/a	n/a	n/a	n/a
2418.336	n/a	REC_WORD	1209168	wordpools/wasnorm_wordpool_less_exclusions.txt	LTP243	ltpFR	6	12	0	PORK	1108	n/a	0	n/a	n/a	n/a	n/a	n/a
2419.18	n/a	REC_WORD	1209590	wordpools/wasnorm_wordpool_less_exclusions.txt	LTP243	ltpFR	6	12	0	ELEPHANT	523	n/a	1	n/a	n/a	n/a	n/a	n/a
2421.504	n/a	REC_WORD	1210752	wordpools/wasnorm_wordpool_less_exclusions.txt	LTP243	ltpFR	6	12	0	FRIES	607	n/a	2	n/a	n/a	n/a	n/a	n/a
2423.364	n/a	REC_WORD	1211682	wordpools/wasnorm_wordpool_less_exclusions.txt	LTP243	ltpFR	6	12	0	MUSHROOM	934	n/a	0	n/a	n/a	n/a	n/a	n/a
2425.086	n/a	REC_WORD	1212543	wordpools/wasnorm_wordpool_less_exclusions.txt	LTP243	ltpFR	6	12	1	MAYONNAISE	880	n/a	0	n/a	n/a	n/a	n/a	n/a
2434.894	n/a	REC_WORD	1217447	wordpools/wasnorm_wordpool_less_exclusions.txt	LTP243	ltpFR	6	12	0	DAUGHTER	442	n/a	1	n/a	n/a	n/a	n/a	n/a
2437.844	n/a	REC_WORD	1218922	wordpools/wasnorm_wordpool_less_exclusions.txt	LTP243	ltpFR	6	12	1	ELECTRICIAN	521	n/a	1	n/a	n/a	n/a	n/a	n/a
2444.532	n/a	REC_WORD	1222266	wordpools/wasnorm_wordpool_less_exclusions.txt	LTP243	ltpFR	6	12	1	BULB	192	n/a	0	n/a	n/a	n/a	n/a	n/a
2453.432	n/a	REC_WORD	1226716	wordpools/wasnorm_wordpool_less_exclusions.txt	LTP243	ltpFR	6	12	1	FIN	566	n/a	0	n/a	n/a	n/a	n/a	n/a
2455.998	n/a	REC_WORD	1227999	wordpools/wasnorm_wordpool_less_exclusions.txt	LTP243	ltpFR	6	12	1	KIDNEY	776	n/a	1	n/a	n/a	n/a	n/a	n/a
2458.886	n/a	REC_WORD	1229443	wordpools/wasnorm_wordpool_less_exclusions.txt	LTP243	ltpFR	6	12	1	PIKE	1067	n/a	0	n/a	n/a	n/a	n/a	n/a
2492.362	n/a	REST_REWET	1246181	n/a	LTP243	ltpFR	6	12	n/a	n/a	n/a	n/a	n/a	n/a	n/a	n/a	n/a	n/a
3038.582	n/a	WORD	1519291	wordpools/wasnorm_wordpool_less_exclusions.txt	LTP243	ltpFR	6	13	1	STORE	1387	n/a	0	0	0.5869140625	0.422607421875	lower	../fonts/amplitud.ttf
3042.664	n/a	WORD	1521332	wordpools/wasnorm_wordpool_less_exclusions.txt	LTP243	ltpFR	6	13	1	BANQUET	86	n/a	0	0	0.5869140625	0.422607421875	lower	../fonts/amplitud.ttf
3046.866	n/a	WORD	1523433	wordpools/wasnorm_wordpool_less_exclusions.txt	LTP243	ltpFR	6	13	1	TRENCH	1503	n/a	0	0	0.5869140625	0.422607421875	lower	../fonts/amplitud.ttf
3050.998	n/a	WORD	1525499	wordpools/wasnorm_wordpool_less_exclusions.txt	LTP243	ltpFR	6	13	1	DIGGER	464	n/a	1	0	0.5869140625	0.422607421875	lower	../fonts/amplitud.ttf
3054.88	n/a	WORD	1527440	wordpools/wasnorm_wordpool_less_exclusions.txt	LTP243	ltpFR	6	13	1	MEDAL	885	n/a	0	0	0.5869140625	0.422607421875	lower	../fonts/amplitud.ttf
3058.794	n/a	WORD	1529397	wordpools/wasnorm_wordpool_less_exclusions.txt	LTP243	ltpFR	6	13	1	NECKLACE	940	n/a	0	0	0.5869140625	0.422607421875	lower	../fonts/amplitud.ttf
3062.872	n/a	WORD	1531436	wordpools/wasnorm_wordpool_less_exclusions.txt	LTP243	ltpFR	6	13	1	SCAPEGOAT	1244	n/a	1	0	0.5869140625	0.422607421875	lower	../fonts/amplitud.ttf
3067.04	n/a	WORD	1533520	wordpools/wasnorm_wordpool_less_exclusions.txt	LTP243	ltpFR	6	13	1	WAITER	1580	n/a	1	0	0.5869140625	0.422607421875	lower	../fonts/amplitud.ttf
3070.924	n/a	WORD	1535462	wordpools/wasnorm_wordpool_less_exclusions.txt	LTP243	ltpFR	6	13	1	TAR	1435	n/a	0	0	0.5869140625	0.422607421875	lower	../fonts/amplitud.ttf
3074.872	n/a	WORD	1537436	wordpools/wasnorm_wordpool_less_exclusions.txt	LTP243	ltpFR	6	13	1	DRIVER	499	n/a	1	0	0.5869140625	0.422607421875	lower	../fonts/amplitud.ttf
3079.068	n/a	WORD	1539534	wordpools/wasnorm_wordpool_less_exclusions.txt	LTP243	ltpFR	6	13	1	ACTOR	5	n/a	1	0	0.5869140625	0.422607421875	lower	../fonts/amplitud.ttf
3082.92	n/a	WORD	1541460	wordpools/wasnorm_wordpool_less_exclusions.txt	LTP243	ltpFR	6	13	1	CIRCUS	311	n/a	0	0	0.5869140625	0.422607421875	lower	../fonts/amplitud.ttf
3086.914	n/a	WORD	1543457	wordpools/wasnorm_wordpool_less_exclusions.txt	LTP243	ltpFR	6	13	1	COSTUME	383	n/a	0	0	0.5869140625	0.422607421875	lower	../fonts/amplitud.ttf
3090.918	n/a	WORD	1545459	wordpools/wasnorm_wordpool_less_exclusions.txt	LTP243	ltpFR	6	13	1	DASHBOARD	441	n/a	0	0	0.5869140625	0.422607421875	lower	../fonts/amplitud.ttf
3094.878	n/a	WORD	1547439	wordpools/wasnorm_wordpool_less_exclusions.txt	LTP243	ltpFR	6	13	1	BRICK	172	n/a	0	0	0.5869140625	0.422607421875	lower	../fonts/amplitud.ttf
3099.064	n/a	WORD	1549532	wordpools/wasnorm_wordpool_less_exclusions.txt	LTP243	ltpFR	6	13	1	CUPBOARD	425	n/a	0	0	0.5869140625	0.422607421875	lower	../fonts/amplitud.ttf
3104.956	n/a	REC_START	1552478	n/a	LTP243	ltpFR	6	13	n/a	n/a	n/a	n/a	n/a	n/a	n/a	n/a	n/a	n/a
3105.748	n/a	REC_WORD	1552874	wordpools/wasnorm_wordpool_less_exclusions.txt	LTP243	ltpFR	6	13	1	CUPBOARD	425	n/a	0	n/a	n/a	n/a	n/a	n/a
3106.682	n/a	REC_WORD	1553341	wordpools/wasnorm_wordpool_less_exclusions.txt	LTP243	ltpFR	6	13	1	DASHBOARD	441	n/a	0	n/a	n/a	n/a	n/a	n/a
3107.724	n/a	REC_WORD	1553862	wordpools/wasnorm_wordpool_less_exclusions.txt	LTP243	ltpFR	6	13	1	TRENCH	1503	n/a	0	n/a	n/a	n/a	n/a	n/a
3108.392	n/a	REC_WORD	1554196	wordpools/wasnorm_wordpool_less_exclusions.txt	LTP243	ltpFR	6	13	1	SCAPEGOAT	1244	n/a	1	n/a	n/a	n/a	n/a	n/a
3109.38	n/a	REC_WORD	1554690	wordpools/wasnorm_wordpool_less_exclusions.txt	LTP243	ltpFR	6	13	1	DIGGER	464	n/a	1	n/a	n/a	n/a	n/a	n/a
3110.698	n/a	REC_WORD	1555349	wordpools/wasnorm_wordpool_less_exclusions.txt	LTP243	ltpFR	6	13	1	ACTOR	5	n/a	1	n/a	n/a	n/a	n/a	n/a
3112.838	n/a	REC_WORD	1556419	wordpools/wasnorm_wordpool_less_exclusions.txt	LTP243	ltpFR	6	13	1	DRIVER	499	n/a	1	n/a	n/a	n/a	n/a	n/a
3114.638	n/a	REC_WORD	1557319	wordpools/wasnorm_wordpool_less_exclusions.txt	LTP243	ltpFR	6	13	1	BANQUET	86	n/a	0	n/a	n/a	n/a	n/a	n/a
3115.646	n/a	REC_WORD	1557823	wordpools/wasnorm_wordpool_less_exclusions.txt	LTP243	ltpFR	6	13	1	STORE	1387	n/a	0	n/a	n/a	n/a	n/a	n/a
3117.058	n/a	REC_WORD	1558529	wordpools/wasnorm_wordpool_less_exclusions.txt	LTP243	ltpFR	6	13	1	NECKLACE	940	n/a	0	n/a	n/a	n/a	n/a	n/a
3118.374	n/a	REC_WORD	1559187	wordpools/wasnorm_wordpool_less_exclusions.txt	LTP243	ltpFR	6	13	1	WAITER	1580	n/a	1	n/a	n/a	n/a	n/a	n/a
3123.738	n/a	REC_WORD	1561869	wordpools/wasnorm_wordpool_less_exclusions.txt	LTP243	ltpFR	6	13	1	MEDAL	885	n/a	0	n/a	n/a	n/a	n/a	n/a
3183.236	n/a	WORD	1591618	wordpools/wasnorm_wordpool_less_exclusions.txt	LTP243	ltpFR	6	14	-1	MOAT	903	n/a	-1	1	1.0	1.0	upper	../fonts/Verdana.ttf
3187.114	n/a	WORD	1593557	wordpools/wasnorm_wordpool_less_exclusions.txt	LTP243	ltpFR	6	14	-1	PUDDLE	1140	n/a	-1	1	1.0	1.0	upper	../fonts/Verdana.ttf
3190.966	n/a	WORD	1595483	wordpools/wasnorm_wordpool_less_exclusions.txt	LTP243	ltpFR	6	14	-1	SILK	1307	n/a	-1	1	1.0	1.0	upper	../fonts/Verdana.ttf
3194.814	n/a	WORD	1597407	wordpools/wasnorm_wordpool_less_exclusions.txt	LTP243	ltpFR	6	14	-1	BOXER	160	n/a	-1	1	1.0	1.0	upper	../fonts/Verdana.ttf
3198.93	n/a	WORD	1599465	wordpools/wasnorm_wordpool_less_exclusions.txt	LTP243	ltpFR	6	14	-1	CHECK	284	n/a	-1	1	1.0	1.0	upper	../fonts/Verdana.ttf
3202.896	n/a	WORD	1601448	wordpools/wasnorm_wordpool_less_exclusions.txt	LTP243	ltpFR	6	14	-1	PLUM	1090	n/a	-1	1	1.0	1.0	upper	../fonts/Verdana.ttf
3207.06	n/a	WORD	1603530	wordpools/wasnorm_wordpool_less_exclusions.txt	LTP243	ltpFR	6	14	-1	BANANA	77	n/a	-1	1	1.0	1.0	upper	../fonts/Verdana.ttf
3211.172	n/a	WORD	1605586	wordpools/wasnorm_wordpool_less_exclusions.txt	LTP243	ltpFR	6	14	-1	BALL	73	n/a	-1	1	1.0	1.0	upper	../fonts/Verdana.ttf
3215.058	n/a	WORD	1607529	wordpools/wasnorm_wordpool_less_exclusions.txt	LTP243	ltpFR	6	14	-1	DEPUTY	450	n/a	-1	1	1.0	1.0	upper	../fonts/Verdana.ttf
3218.924	n/a	WORD	1609462	wordpools/wasnorm_wordpool_less_exclusions.txt	LTP243	ltpFR	6	14	-1	POLICE	1098	n/a	-1	1	1.0	1.0	upper	../fonts/Verdana.ttf
3222.766	n/a	WORD	1611383	wordpools/wasnorm_wordpool_less_exclusions.txt	LTP243	ltpFR	6	14	-1	TELEPHONE	1445	n/a	-1	1	1.0	1.0	upper	../fonts/Verdana.ttf
3226.752	n/a	WORD	1613376	wordpools/wasnorm_wordpool_less_exclusions.txt	LTP243	ltpFR	6	14	-1	PIT	1077	n/a	-1	1	1.0	1.0	upper	../fonts/Verdana.ttf
3230.684	n/a	WORD	1615342	wordpools/wasnorm_wordpool_less_exclusions.txt	LTP243	ltpFR	6	14	-1	MOSS	918	n/a	-1	1	1.0	1.0	upper	../fonts/Verdana.ttf
3234.682	n/a	WORD	1617341	wordpools/wasnorm_wordpool_less_exclusions.txt	LTP243	ltpFR	6	14	-1	WIRE	1616	n/a	-1	1	1.0	1.0	upper	../fonts/Verdana.ttf
3238.648	n/a	WORD	1619324	wordpools/wasnorm_wordpool_less_exclusions.txt	LTP243	ltpFR	6	14	-1	LAWN	805	n/a	-1	1	1.0	1.0	upper	../fonts/Verdana.ttf
3242.512	n/a	WORD	1621256	wordpools/wasnorm_wordpool_less_exclusions.txt	LTP243	ltpFR	6	14	-1	FENCE	560	n/a	-1	1	1.0	1.0	upper	../fonts/Verdana.ttf
3248.152	n/a	REC_START	1624076	n/a	LTP243	ltpFR	6	14	n/a	n/a	n/a	n/a	n/a	n/a	n/a	n/a	n/a	n/a
3248.77	n/a	REC_WORD	1624385	wordpools/wasnorm_wordpool_less_exclusions.txt	LTP243	ltpFR	6	14	-1	MOAT	903	n/a	-1	n/a	n/a	n/a	n/a	n/a
3249.612	n/a	REC_WORD	1624806	wordpools/wasnorm_wordpool_less_exclusions.txt	LTP243	ltpFR	6	14	-1	PUDDLE	1140	n/a	-1	n/a	n/a	n/a	n/a	n/a
3251.734	n/a	REC_WORD	1625867	wordpools/wasnorm_wordpool_less_exclusions.txt	LTP243	ltpFR	6	14	-1	SILK	1307	n/a	-1	n/a	n/a	n/a	n/a	n/a
3252.666	n/a	REC_WORD	1626333	wordpools/wasnorm_wordpool_less_exclusions.txt	LTP243	ltpFR	6	14	-1	BOXER	160	n/a	-1	n/a	n/a	n/a	n/a	n/a
3254.002	n/a	REC_WORD	1627001	wordpools/wasnorm_wordpool_less_exclusions.txt	LTP243	ltpFR	6	14	-1	PLUM	1090	n/a	-1	n/a	n/a	n/a	n/a	n/a
3254.832	n/a	REC_WORD	1627416	wordpools/wasnorm_wordpool_less_exclusions.txt	LTP243	ltpFR	6	14	-1	BANANA	77	n/a	-1	n/a	n/a	n/a	n/a	n/a
3259.896	n/a	REC_WORD	1629948	wordpools/wasnorm_wordpool_less_exclusions.txt	LTP243	ltpFR	6	14	-1	DEPUTY	450	n/a	-1	n/a	n/a	n/a	n/a	n/a
3261.232	n/a	REC_WORD	1630616	wordpools/wasnorm_wordpool_less_exclusions.txt	LTP243	ltpFR	6	14	-1	POLICE	1098	n/a	-1	n/a	n/a	n/a	n/a	n/a
3263.562	n/a	REC_WORD	1631781	wordpools/wasnorm_wordpool_less_exclusions.txt	LTP243	ltpFR	6	14	-1	TELEPHONE	1445	n/a	-1	n/a	n/a	n/a	n/a	n/a
3264.94	n/a	REC_WORD	1632470	wordpools/wasnorm_wordpool_less_exclusions.txt	LTP243	ltpFR	6	14	-1	WIRE	1616	n/a	-1	n/a	n/a	n/a	n/a	n/a
3268.626	n/a	REC_WORD	1634313	wordpools/wasnorm_wordpool_less_exclusions.txt	LTP243	ltpFR	6	14	-1	PIT	1077	n/a	-1	n/a	n/a	n/a	n/a	n/a
3271.056	n/a	REC_WORD	1635528	wordpools/wasnorm_wordpool_less_exclusions.txt	LTP243	ltpFR	6	14	-1	MOSS	918	n/a	-1	n/a	n/a	n/a	n/a	n/a
3272.95	n/a	REC_WORD	1636475	wordpools/wasnorm_wordpool_less_exclusions.txt	LTP243	ltpFR	6	14	-1	FENCE	560	n/a	-1	n/a	n/a	n/a	n/a	n/a
3281.638	n/a	REC_WORD	1640819	wordpools/wasnorm_wordpool_less_exclusions.txt	LTP243	ltpFR	6	14	-1	LAWN	805	n/a	-1	n/a	n/a	n/a	n/a	n/a
3289.57	n/a	REC_WORD	1644785	wordpools/wasnorm_wordpool_less_exclusions.txt	LTP243	ltpFR	6	14	-1	BOXER	160	n/a	-1	n/a	n/a	n/a	n/a	n/a
3327.47	n/a	WORD	1663735	wordpools/wasnorm_wordpool_less_exclusions.txt	LTP243	ltpFR	6	15	0	CUSTARD	429	n/a	0	1	0.412841796875	0.57763671875	upper	../fonts/zerothre.ttf
3331.536	n/a	WORD	1665768	wordpools/wasnorm_wordpool_less_exclusions.txt	LTP243	ltpFR	6	15	0	WINDSHIELD	1612	n/a	1	1	0.412841796875	0.57763671875	upper	../fonts/zerothre.ttf
3335.468	n/a	WORD	1667734	wordpools/wasnorm_wordpool_less_exclusions.txt	LTP243	ltpFR	6	15	0	TAXI	1438	n/a	1	1	0.412841796875	0.57763671875	upper	../fonts/zerothre.ttf
3339.55	n/a	WORD	1669775	wordpools/wasnorm_wordpool_less_exclusions.txt	LTP243	ltpFR	6	15	0	BACON	67	n/a	0	1	0.412841796875	0.57763671875	upper	../fonts/zerothre.ttf
3343.698	n/a	WORD	1671849	wordpools/wasnorm_wordpool_less_exclusions.txt	LTP243	ltpFR	6	15	0	PORCH	1106	n/a	1	1	0.412841796875	0.57763671875	upper	../fonts/zerothre.ttf
3347.592	n/a	WORD	1673796	wordpools/wasnorm_wordpool_less_exclusions.txt	LTP243	ltpFR	6	15	0	WARRIOR	1589	n/a	1	1	0.412841796875	0.57763671875	upper	../fonts/zerothre.ttf
3351.528	n/a	WORD	1675764	wordpools/wasnorm_wordpool_less_exclusions.txt	LTP243	ltpFR	6	15	0	BEARD	107	n/a	0	1	0.412841796875	0.57763671875	upper	../fonts/zerothre.ttf
3355.64	n/a	WORD	1677820	wordpools/wasnorm_wordpool_less_exclusions.txt	LTP243	ltpFR	6	15	0	SKILLET	1317	n/a	1	1	0.412841796875	0.57763671875	upper	../fonts/zerothre.ttf
3359.862	n/a	WORD	1679931	wordpools/wasnorm_wordpool_less_exclusions.txt	LTP243	ltpFR	6	15	0	COOK	372	n/a	1	1	0.412841796875	0.57763671875	upper	../fonts/zerothre.ttf
3363.96	n/a	WORD	1681980	wordpools/wasnorm_wordpool_less_exclusions.txt	LTP243	ltpFR	6	15	0	CARD	243	n/a	0	1	0.412841796875	0.57763671875	upper	../fonts/zerothre.ttf
3368.088	n/a	WORD	1684044	wordpools/wasnorm_wordpool_less_exclusions.txt	LTP243	ltpFR	6	15	0	BEET	115	n/a	0	1	0.412841796875	0.57763671875	upper	../fonts/zerothre.ttf
3371.958	n/a	WORD	1685979	wordpools/wasnorm_wordpool_less_exclusions.txt	LTP243	ltpFR	6	15	0	REINDEER	1181	n/a	1	1	0.412841796875	0.57763671875	upper	../fonts/zerothre.ttf
3375.99	n/a	WORD	1687995	wordpools/wasnorm_wordpool_less_exclusions.txt	LTP243	ltpFR	6	15	0	DART	440	n/a	0	1	0.412841796875	0.57763671875	upper	../fonts/zerothre.ttf
3380.136	n/a	WORD	1690068	wordpools/wasnorm_wordpool_less_exclusions.txt	LTP243	ltpFR	6	15	0	HAM	678	n/a	0	1	0.412841796875	0.57763671875	upper	../fonts/zerothre.ttf
3384.288	n/a	WORD	1692144	wordpools/wasnorm_wordpool_less_exclusions.txt	LTP243	ltpFR	6	15	0	SKIN	1318	n/a	0	1	0.412841796875	0.57763671875	upper	../fonts/zerothre.ttf
3388.336	n/a	WORD	1694168	wordpools/wasnorm_wordpool_less_exclusions.txt	LTP243	ltpFR	6	15	0	VEAL	1551	n/a	0	1	0.412841796875	0.57763671875	upper	../fonts/zerothre.ttf
3394.278	n/a	REC_START	1697139	n/a	LTP243	ltpFR	6	15	n/a	n/a	n/a	n/a	n/a	n/a	n/a	n/a	n/a	n/a
3394.636	n/a	REC_WORD	1697318	wordpools/wasnorm_wordpool_less_exclusions.txt	LTP243	ltpFR	6	15	0	SKIN	1318	n/a	0	n/a	n/a	n/a	n/a	n/a
3395.72	n/a	REC_WORD	1697860	wordpools/wasnorm_wordpool_less_exclusions.txt	LTP243	ltpFR	6	15	0	VEAL	1551	n/a	0	n/a	n/a	n/a	n/a	n/a
3398.452	n/a	REC_WORD	1699226	wordpools/wasnorm_wordpool_less_exclusions.txt	LTP243	ltpFR	6	15	0	CUSTARD	429	n/a	0	n/a	n/a	n/a	n/a	n/a
3399.35	n/a	REC_WORD	1699675	wordpools/wasnorm_wordpool_less_exclusions.txt	LTP243	ltpFR	6	15	0	PORCH	1106	n/a	1	n/a	n/a	n/a	n/a	n/a
3400.404	n/a	REC_WORD	1700202	wordpools/wasnorm_wordpool_less_exclusions.txt	LTP243	ltpFR	6	15	0	BACON	67	n/a	0	n/a	n/a	n/a	n/a	n/a
3425.822	n/a	REC_WORD	1712911	wordpools/wasnorm_wordpool_less_exclusions.txt	LTP243	ltpFR	6	15	0	WINDSHIELD	1612	n/a	1	n/a	n/a	n/a	n/a	n/a
3426.876	n/a	REC_WORD	1713438	wordpools/wasnorm_wordpool_less_exclusions.txt	LTP243	ltpFR	6	15	0	TAXI	1438	n/a	1	n/a	n/a	n/a	n/a	n/a
3435.42	n/a	REC_WORD	1717710	wordpools/wasnorm_wordpool_less_exclusions.txt	LTP243	ltpFR	6	15	0	CUSTARD	429	n/a	0	n/a	n/a	n/a	n/a	n/a
3443.716	n/a	REC_WORD	1721858	wordpools/wasnorm_wordpool_less_exclusions.txt	LTP243	ltpFR	6	15	0	VEAL	1551	n/a	0	n/a	n/a	n/a	n/a	n/a
3446.94	n/a	REC_WORD	1723470	wordpools/wasnorm_wordpool_less_exclusions.txt	LTP243	ltpFR	6	15	0	SKIN	1318	n/a	0	n/a	n/a	n/a	n/a	n/a
3472.876	n/a	WORD	1736438	wordpools/wasnorm_wordpool_less_exclusions.txt	LTP243	ltpFR	6	16	0	TANGERINE	1431	n/a	0	1	0.412841796875	0.57763671875	upper	../fonts/zerothre.ttf
3476.888	n/a	WORD	1738444	wordpools/wasnorm_wordpool_less_exclusions.txt	LTP243	ltpFR	6	16	0	BRAKE	166	n/a	0	1	0.412841796875	0.57763671875	upper	../fonts/zerothre.ttf
3480.722	n/a	WORD	1740361	wordpools/wasnorm_wordpool_less_exclusions.txt	LTP243	ltpFR	6	16	0	DILL	465	n/a	0	1	0.412841796875	0.57763671875	upper	../fonts/zerothre.ttf
3484.754	n/a	WORD	1742377	wordpools/wasnorm_wordpool_less_exclusions.txt	LTP243	ltpFR	6	16	0	LANDSCAPE	799	n/a	1	1	0.412841796875	0.57763671875	upper	../fonts/zerothre.ttf
3488.82	n/a	WORD	1744410	wordpools/wasnorm_wordpool_less_exclusions.txt	LTP243	ltpFR	6	16	0	FINGER	567	n/a	0	1	0.412841796875	0.57763671875	upper	../fonts/zerothre.ttf
3492.982	n/a	WORD	1746491	wordpools/wasnorm_wordpool_less_exclusions.txt	LTP243	ltpFR	6	16	0	HAWK	692	n/a	1	1	0.412841796875	0.57763671875	upper	../fonts/zerothre.ttf
3496.918	n/a	WORD	1748459	wordpools/wasnorm_wordpool_less_exclusions.txt	LTP243	ltpFR	6	16	0	TOWEL	1489	n/a	0	1	0.412841796875	0.57763671875	upper	../fonts/zerothre.ttf
3500.866	n/a	WORD	1750433	wordpools/wasnorm_wordpool_less_exclusions.txt	LTP243	ltpFR	6	16	0	DUST	508	n/a	0	1	0.412841796875	0.57763671875	upper	../fonts/zerothre.ttf
3504.714	n/a	WORD	1752357	wordpools/wasnorm_wordpool_less_exclusions.txt	LTP243	ltpFR	6	16	0	CAFE	216	n/a	0	1	0.412841796875	0.57763671875	upper	../fonts/zerothre.ttf
3508.796	n/a	WORD	1754398	wordpools/wasnorm_wordpool_less_exclusions.txt	LTP243	ltpFR	6	16	0	TRUCK	1512	n/a	1	1	0.412841796875	0.57763671875	upper	../fonts/zerothre.ttf
3512.644	n/a	WORD	1756322	wordpools/wasnorm_wordpool_less_exclusions.txt	LTP243	ltpFR	6	16	0	LEVER	815	n/a	0	1	0.412841796875	0.57763671875	upper	../fonts/zerothre.ttf
3516.794	n/a	WORD	1758397	wordpools/wasnorm_wordpool_less_exclusions.txt	LTP243	ltpFR	6	16	0	JUNGLE	764	n/a	1	1	0.412841796875	0.57763671875	upper	../fonts/zerothre.ttf
3520.81	n/a	WORD	1760405	wordpools/wasnorm_wordpool_less_exclusions.txt	LTP243	ltpFR	6	16	0	PRIMATE	1123	n/a	1	1	0.412841796875	0.57763671875	upper	../fonts/zerothre.ttf
3524.724	n/a	WORD	1762362	wordpools/wasnorm_wordpool_less_exclusions.txt	LTP243	ltpFR	6	16	0	BRAN	167	n/a	0	1	0.412841796875	0.57763671875	upper	../fonts/zerothre.ttf
3528.858	n/a	WORD	1764429	wordpools/wasnorm_wordpool_less_exclusions.txt	LTP243	ltpFR	6	16	0	DANDRUFF	439	n/a	0	1	0.412841796875	0.57763671875	upper	../fonts/zerothre.ttf
3532.968	n/a	WORD	1766484	wordpools/wasnorm_wordpool_less_exclusions.txt	LTP243	ltpFR	6	16	0	FEATHER	557	n/a	0	1	0.412841796875	0.57763671875	upper	../fonts/zerothre.ttf
3538.812	n/a	REC_START	1769406	n/a	LTP243	ltpFR	6	16	n/a	n/a	n/a	n/a	n/a	n/a	n/a	n/a	n/a	n/a
3539.296	n/a	REC_WORD	1769648	wordpools/wasnorm_wordpool_less_exclusions.txt	LTP243	ltpFR	6	16	0	FEATHER	557	n/a	0	n/a	n/a	n/a	n/a	n/a
3540.13	n/a	REC_WORD	1770065	wordpools/wasnorm_wordpool_less_exclusions.txt	LTP243	ltpFR	6	16	0	BRAN	167	n/a	0	n/a	n/a	n/a	n/a	n/a
3540.958	n/a	REC_WORD	1770479	wordpools/wasnorm_wordpool_less_exclusions.txt	LTP243	ltpFR	6	16	0	DANDRUFF	439	n/a	0	n/a	n/a	n/a	n/a	n/a
3541.812	n/a	REC_WORD	1770906	wordpools/wasnorm_wordpool_less_exclusions.txt	LTP243	ltpFR	6	16	0	FINGER	567	n/a	0	n/a	n/a	n/a	n/a	n/a
3549.35	n/a	REC_WORD	1774675	wordpools/wasnorm_wordpool_less_exclusions.txt	LTP243	ltpFR	6	16	0	TANGERINE	1431	n/a	0	n/a	n/a	n/a	n/a	n/a
3550.258	n/a	REC_WORD	1775129	wordpools/wasnorm_wordpool_less_exclusions.txt	LTP243	ltpFR	6	16	0	TOWEL	1489	n/a	0	n/a	n/a	n/a	n/a	n/a
3551.818	n/a	REC_WORD	1775909	wordpools/wasnorm_wordpool_less_exclusions.txt	LTP243	ltpFR	6	16	0	DILL	465	n/a	0	n/a	n/a	n/a	n/a	n/a
3589.516	n/a	REC_WORD	1794758	wordpools/wasnorm_wordpool_less_exclusions.txt	LTP243	ltpFR	6	16	0	LANDSCAPE	799	n/a	1	n/a	n/a	n/a	n/a	n/a
3591.006	n/a	REC_WORD	1795503	wordpools/wasnorm_wordpool_less_exclusions.txt	LTP243	ltpFR	6	16	0	HAWK	692	n/a	1	n/a	n/a	n/a	n/a	n/a
3592.03	n/a	REC_WORD	1796015	wordpools/wasnorm_wordpool_less_exclusions.txt	LTP243	ltpFR	6	16	0	JUNGLE	764	n/a	1	n/a	n/a	n/a	n/a	n/a
3593.048	n/a	REC_WORD	1796524	wordpools/wasnorm_wordpool_less_exclusions.txt	LTP243	ltpFR	6	16	0	TRUCK	1512	n/a	1	n/a	n/a	n/a	n/a	n/a
3603.15	n/a	REC_WORD	1801575	wordpools/wasnorm_wordpool_less_exclusions.txt	LTP243	ltpFR	6	16	0	BRAN	167	n/a	0	n/a	n/a	n/a	n/a	n/a
3706.198	n/a	REC_START	1853099	n/a	LTP243	ltpFR	6	n/a	n/a	n/a	n/a	n/a	n/a	n/a	n/a	n/a	n/a	n/a
3707.32	n/a	FFR_REC_WORD	1853660	wordpools/wasnorm_wordpool_less_exclusions.txt	LTP243	ltpFR	6	n/a	0	JUNGLE	764	n/a	1	n/a	n/a	n/a	n/a	n/a
3708.238	n/a	FFR_REC_WORD	1854119	wordpools/wasnorm_wordpool_less_exclusions.txt	LTP243	ltpFR	6	n/a	0	BRAN	167	n/a	0	n/a	n/a	n/a	n/a	n/a
3708.918	n/a	FFR_REC_WORD	1854459	wordpools/wasnorm_wordpool_less_exclusions.txt	LTP243	ltpFR	6	n/a	0	DANDRUFF	439	n/a	0	n/a	n/a	n/a	n/a	n/a
3709.71	n/a	FFR_REC_WORD	1854855	wordpools/wasnorm_wordpool_less_exclusions.txt	LTP243	ltpFR	6	n/a	1	NICOTINE	951	n/a	0	n/a	n/a	n/a	n/a	n/a
3713.336	n/a	FFR_REC_WORD	1856668	wordpools/wasnorm_wordpool_less_exclusions.txt	LTP243	ltpFR	6	n/a	0	FINGER	567	n/a	0	n/a	n/a	n/a	n/a	n/a
3714.126	n/a	FFR_REC_WORD	1857063	wordpools/wasnorm_wordpool_less_exclusions.txt	LTP243	ltpFR	6	n/a	1	JAW	751	n/a	0	n/a	n/a	n/a	n/a	n/a
3714.704	n/a	FFR_REC_WORD	1857352	wordpools/wasnorm_wordpool_less_exclusions.txt	LTP243	ltpFR	6	n/a	1	MOUTH	926	n/a	0	n/a	n/a	n/a	n/a	n/a
3715.348	n/a	FFR_REC_WORD	1857674	wordpools/wasnorm_wordpool_less_exclusions.txt	LTP243	ltpFR	6	n/a	0	CANYON	235	n/a	1	n/a	n/a	n/a	n/a	n/a
3717.788	n/a	FFR_REC_WORD	1858894	wordpools/wasnorm_wordpool_less_exclusions.txt	LTP243	ltpFR	6	n/a	0	DAUGHTER	442	n/a	1	n/a	n/a	n/a	n/a	n/a
3718.856	n/a	FFR_REC_WORD	1859428	wordpools/wasnorm_wordpool_less_exclusions.txt	LTP243	ltpFR	6	n/a	-1	POLICE	1098	n/a	-1	n/a	n/a	n/a	n/a	n/a
3719.504	n/a	FFR_REC_WORD	1859752	wordpools/wasnorm_wordpool_less_exclusions.txt	LTP243	ltpFR	6	n/a	-1	DEPUTY	450	n/a	-1	n/a	n/a	n/a	n/a	n/a
3720.318	n/a	FFR_REC_WORD	1860159	wordpools/wasnorm_wordpool_less_exclusions.txt	LTP243	ltpFR	6	n/a	1	BAND	78	n/a	0	n/a	n/a	n/a	n/a	n/a
3721.938	n/a	FFR_REC_WORD	1860969	wordpools/wasnorm_wordpool_less_exclusions.txt	LTP243	ltpFR	6	n/a	1	FLUTE	585	n/a	0	n/a	n/a	n/a	n/a	n/a
3722.936	n/a	FFR_REC_WORD	1861468	wordpools/wasnorm_wordpool_less_exclusions.txt	LTP243	ltpFR	6	n/a	-1	CELLO	268	n/a	-1	n/a	n/a	n/a	n/a	n/a
3723.81	n/a	FFR_REC_WORD	1861905	wordpools/wasnorm_wordpool_less_exclusions.txt	LTP243	ltpFR	6	n/a	-1	VIOLA	1570	n/a	-1	n/a	n/a	n/a	n/a	n/a
3726.094	n/a	FFR_REC_WORD	1863047	wordpools/wasnorm_wordpool_less_exclusions.txt	LTP243	ltpFR	6	n/a	1	BEAVER	109	n/a	1	n/a	n/a	n/a	n/a	n/a
3726.988	n/a	FFR_REC_WORD	1863494	wordpools/wasnorm_wordpool_less_exclusions.txt	LTP243	ltpFR	6	n/a	1	BISON	131	n/a	1	n/a	n/a	n/a	n/a	n/a
3727.92	n/a	FFR_REC_WORD	1863960	wordpools/wasnorm_wordpool_less_exclusions.txt	LTP243	ltpFR	6	n/a	1	ANTEATER	26	n/a	1	n/a	n/a	n/a	n/a	n/a
3732.6	n/a	FFR_REC_WORD	1866300	wordpools/wasnorm_wordpool_less_exclusions.txt	LTP243	ltpFR	6	n/a	0	GRASSHOPPER	656	n/a	0	n/a	n/a	n/a	n/a	n/a
3734.88	n/a	FFR_REC_WORD	1867440	wordpools/wasnorm_wordpool_less_exclusions.txt	LTP243	ltpFR	6	n/a	0	CABIN	211	n/a	1	n/a	n/a	n/a	n/a	n/a
3737.18	n/a	FFR_REC_WORD	1868590	wordpools/wasnorm_wordpool_less_exclusions.txt	LTP243	ltpFR	6	n/a	1	WATER	1594	n/a	1	n/a	n/a	n/a	n/a	n/a
3738.014	n/a	FFR_REC_WORD	1869007	wordpools/wasnorm_wordpool_less_exclusions.txt	LTP243	ltpFR	6	n/a	1	PAIL	1002	n/a	0	n/a	n/a	n/a	n/a	n/a
3740.532	n/a	FFR_REC_WORD	1870266	wordpools/wasnorm_wordpool_less_exclusions.txt	LTP243	ltpFR	6	n/a	n/a	CONCRETE	361	n/a	n/a	n/a	n/a	n/a	n/a	n/a
3741.376	n/a	FFR_REC_WORD	1870688	wordpools/wasnorm_wordpool_less_exclusions.txt	LTP243	ltpFR	6	n/a	1	TAIL	1430	n/a	0	n/a	n/a	n/a	n/a	n/a
3742.618	n/a	FFR_REC_WORD	1871309	wordpools/wasnorm_wordpool_less_exclusions.txt	LTP243	ltpFR	6	n/a	1	COLLAR	345	n/a	0	n/a	n/a	n/a	n/a	n/a
3745.62	n/a	FFR_REC_WORD	1872810	wordpools/wasnorm_wordpool_less_exclusions.txt	LTP243	ltpFR	6	n/a	0	PRINCESS	1125	n/a	1	n/a	n/a	n/a	n/a	n/a
3747.108	n/a	FFR_REC_WORD	1873554	wordpools/wasnorm_wordpool_less_exclusions.txt	LTP243	ltpFR	6	n/a	0	DAUGHTER	442	n/a	1	n/a	n/a	n/a	n/a	n/a
3748.694	n/a	FFR_REC_WORD	1874347	wordpools/wasnorm_wordpool_less_exclusions.txt	LTP243	ltpFR	6	n/a	1	CONDUCTOR	362	n/a	1	n/a	n/a	n/a	n/a	n/a
3750.116	n/a	FFR_REC_WORD	1875058	wordpools/wasnorm_wordpool_less_exclusions.txt	LTP243	ltpFR	6	n/a	-1	CAPTAIN	239	n/a	-1	n/a	n/a	n/a	n/a	n/a
3751.254	n/a	FFR_REC_WORD	1875627	wordpools/wasnorm_wordpool_less_exclusions.txt	LTP243	ltpFR	6	n/a	-1	PROFESSIONAL	1130	n/a	-1	n/a	n/a	n/a	n/a	n/a
3752.492	n/a	FFR_REC_WORD	1876246	wordpools/wasnorm_wordpool_less_exclusions.txt	LTP243	ltpFR	6	n/a	-1	TIE	1466	n/a	-1	n/a	n/a	n/a	n/a	n/a
3753.458	n/a	FFR_REC_WORD	1876729	wordpools/wasnorm_wordpool_less_exclusions.txt	LTP243	ltpFR	6	n/a	-1	SCARF	1246	n/a	-1	n/a	n/a	n/a	n/a	n/a
3754.62	n/a	FFR_REC_WORD	1877310	wordpools/wasnorm_wordpool_less_exclusions.txt	LTP243	ltpFR	6	n/a	-1	SCREWDRIVER	1255	n/a	-1	n/a	n/a	n/a	n/a	n/a
3755.808	n/a	FFR_REC_WORD	1877904	wordpools/wasnorm_wordpool_less_exclusions.txt	LTP243	ltpFR	6	n/a	-1	SINK	1309	n/a	-1	n/a	n/a	n/a	n/a	n/a
3759.076	n/a	FFR_REC_WORD	1879538	wordpools/wasnorm_wordpool_less_exclusions.txt	LTP243	ltpFR	6	n/a	-1	VISITOR	1573	n/a	-1	n/a	n/a	n/a	n/a	n/a
3760.064	n/a	FFR_REC_WORD	1880032	wordpools/wasnorm_wordpool_less_exclusions.txt	LTP243	ltpFR	6	n/a	-1	PEOPLE	1046	n/a	-1	n/a	n/a	n/a	n/a	n/a
3760.886	n/a	FFR_REC_WORD	1880443	wordpools/wasnorm_wordpool_less_exclusions.txt	LTP243	ltpFR	6	n/a	0	MEAL	882	n/a	1	n/a	n/a	n/a	n/a	n/a
3761.69	n/a	FFR_REC_WORD	1880845	wordpools/wasnorm_wordpool_less_exclusions.txt	LTP243	ltpFR	6	n/a	0	VEAL	1551	n/a	0	n/a	n/a	n/a	n/a	n/a
3763.77	n/a	FFR_REC_WORD	1881885	wordpools/wasnorm_wordpool_less_exclusions.txt	LTP243	ltpFR	6	n/a	0	TANGERINE	1431	n/a	0	n/a	n/a	n/a	n/a	n/a
3764.668	n/a	FFR_REC_WORD	1882334	wordpools/wasnorm_wordpool_less_exclusions.txt	LTP243	ltpFR	6	n/a	0	TOWEL	1489	n/a	0	n/a	n/a	n/a	n/a	n/a
3765.696	n/a	FFR_REC_WORD	1882848	wordpools/wasnorm_wordpool_less_exclusions.txt	LTP243	ltpFR	6	n/a	0	DILL	465	n/a	0	n/a	n/a	n/a	n/a	n/a
3768.89	n/a	FFR_REC_WORD	1884445	wordpools/wasnorm_wordpool_less_exclusions.txt	LTP243	ltpFR	6	n/a	0	LUNCH	849	n/a	1	n/a	n/a	n/a	n/a	n/a
3773.414	n/a	FFR_REC_WORD	1886707	wordpools/wasnorm_wordpool_less_exclusions.txt	LTP243	ltpFR	6	n/a	0	BROOK	177	n/a	1	n/a	n/a	n/a	n/a	n/a
3776.632	n/a	FFR_REC_WORD	1888316	wordpools/wasnorm_wordpool_less_exclusions.txt	LTP243	ltpFR	6	n/a	-1	SUN	1406	n/a	-1	n/a	n/a	n/a	n/a	n/a
3782.23	n/a	FFR_REC_WORD	1891115	wordpools/wasnorm_wordpool_less_exclusions.txt	LTP243	ltpFR	6	n/a	1	ESSAY	540	n/a	0	n/a	n/a	n/a	n/a	n/a
3782.872	n/a	FFR_REC_WORD	1891436	wordpools/wasnorm_wordpool_less_exclusions.txt	LTP243	ltpFR	6	n/a	0	BEARD	107	n/a	0	n/a	n/a	n/a	n/a	n/a
3787.926	n/a	FFR_REC_WORD	1893963	wordpools/wasnorm_wordpool_less_exclusions.txt	LTP243	ltpFR	6	n/a	0	GARLIC	624	n/a	0	n/a	n/a	n/a	n/a	n/a
3791.49	n/a	FFR_REC_WORD	1895745	wordpools/wasnorm_wordpool_less_exclusions.txt	LTP243	ltpFR	6	n/a	0	CUSTARD	429	n/a	0	n/a	n/a	n/a	n/a	n/a
3792.826	n/a	FFR_REC_WORD	1896413	wordpools/wasnorm_wordpool_less_exclusions.txt	LTP243	ltpFR	6	n/a	n/a	CAB	209	n/a	n/a	n/a	n/a	n/a	n/a	n/a
3794.258	n/a	FFR_REC_WORD	1897129	wordpools/wasnorm_wordpool_less_exclusions.txt	LTP243	ltpFR	6	n/a	0	WINDSHIELD	1612	n/a	1	n/a	n/a	n/a	n/a	n/a
3796.188	n/a	FFR_REC_WORD	1898094	wordpools/wasnorm_wordpool_less_exclusions.txt	LTP243	ltpFR	6	n/a	0	LANDSCAPE	799	n/a	1	n/a	n/a	n/a	n/a	n/a
3797.102	n/a	FFR_REC_WORD	1898551	wordpools/wasnorm_wordpool_less_exclusions.txt	LTP243	ltpFR	6	n/a	1	DAD	433	n/a	1	n/a	n/a	n/a	n/a	n/a
3798.06	n/a	FFR_REC_WORD	1899030	wordpools/wasnorm_wordpool_less_exclusions.txt	LTP243	ltpFR	6	n/a	1	BRANDY	169	n/a	0	n/a	n/a	n/a	n/a	n/a
3798.998	n/a	FFR_REC_WORD	1899499	wordpools/wasnorm_wordpool_less_exclusions.txt	LTP243	ltpFR	6	n/a	1	BARN	89	n/a	0	n/a	n/a	n/a	n/a	n/a
3799.83	n/a	FFR_REC_WORD	1899915	wordpools/wasnorm_wordpool_less_exclusions.txt	LTP243	ltpFR	6	n/a	-1	SCOTCH	1251	n/a	-1	n/a	n/a	n/a	n/a	n/a
3800.938	n/a	FFR_REC_WORD	1900469	wordpools/wasnorm_wordpool_less_exclusions.txt	LTP243	ltpFR	6	n/a	1	COCKTAIL	338	n/a	0	n/a	n/a	n/a	n/a	n/a
3802.086	n/a	FFR_REC_WORD	1901043	wordpools/wasnorm_wordpool_less_exclusions.txt	LTP243	ltpFR	6	n/a	0	JUNGLE	764	n/a	1	n/a	n/a	n/a	n/a	n/a
3803.018	n/a	FFR_REC_WORD	1901509	wordpools/wasnorm_wordpool_less_exclusions.txt	LTP243	ltpFR	6	n/a	-1	TRACTOR	1493	n/a	-1	n/a	n/a	n/a	n/a	n/a
3804.08	n/a	FFR_REC_WORD	1902040	wordpools/wasnorm_wordpool_less_exclusions.txt	LTP243	ltpFR	6	n/a	-1	DUNGEON	507	n/a	-1	n/a	n/a	n/a	n/a	n/a
3806.894	n/a	FFR_REC_WORD	1903447	wordpools/wasnorm_wordpool_less_exclusions.txt	LTP243	ltpFR	6	n/a	-1	SPINE	1353	n/a	-1	n/a	n/a	n/a	n/a	n/a
3807.938	n/a	FFR_REC_WORD	1903969	wordpools/wasnorm_wordpool_less_exclusions.txt	LTP243	ltpFR	6	n/a	-1	COUNTY	389	n/a	-1	n/a	n/a	n/a	n/a	n/a
3808.98	n/a	FFR_REC_WORD	1904490	wordpools/wasnorm_wordpool_less_exclusions.txt	LTP243	ltpFR	6	n/a	-1	KNAPSACK	783	n/a	-1	n/a	n/a	n/a	n/a	n/a
3809.958	n/a	FFR_REC_WORD	1904979	wordpools/wasnorm_wordpool_less_exclusions.txt	LTP243	ltpFR	6	n/a	1	HANDBAG	684	n/a	0	n/a	n/a	n/a	n/a	n/a
3811.884	n/a	FFR_REC_WORD	1905942	wordpools/wasnorm_wordpool_less_exclusions.txt	LTP243	ltpFR	6	n/a	-1	BOXER	160	n/a	-1	n/a	n/a	n/a	n/a	n/a
3812.568	n/a	FFR_REC_WORD	1906284	wordpools/wasnorm_wordpool_less_exclusions.txt	LTP243	ltpFR	6	n/a	-1	SILK	1307	n/a	-1	n/a	n/a	n/a	n/a	n/a
3813.29	n/a	FFR_REC_WORD	1906645	wordpools/wasnorm_wordpool_less_exclusions.txt	LTP243	ltpFR	6	n/a	-1	MOAT	903	n/a	-1	n/a	n/a	n/a	n/a	n/a
3814.498	n/a	FFR_REC_WORD	1907249	wordpools/wasnorm_wordpool_less_exclusions.txt	LTP243	ltpFR	6	n/a	-1	PUDDLE	1140	n/a	-1	n/a	n/a	n/a	n/a	n/a
3816.758	n/a	FFR_REC_WORD	1908379	wordpools/wasnorm_wordpool_less_exclusions.txt	LTP243	ltpFR	6	n/a	-1	BANANA	77	n/a	-1	n/a	n/a	n/a	n/a	n/a
3818.124	n/a	FFR_REC_WORD	1909062	wordpools/wasnorm_wordpool_less_exclusions.txt	LTP243	ltpFR	6	n/a	-1	PLUM	1090	n/a	-1	n/a	n/a	n/a	n/a	n/a
3825.694	n/a	FFR_REC_WORD	1912847	wordpools/wasnorm_wordpool_less_exclusions.txt	LTP243	ltpFR	6	n/a	-1	FENCE	560	n/a	-1	n/a	n/a	n/a	n/a	n/a
3826.436	n/a	FFR_REC_WORD	1913218	wordpools/wasnorm_wordpool_less_exclusions.txt	LTP243	ltpFR	6	n/a	-1	LAWN	805	n/a	-1	n/a	n/a	n/a	n/a	n/a
3828.222	n/a	FFR_REC_WORD	1914111	wordpools/wasnorm_wordpool_less_exclusions.txt	LTP243	ltpFR	6	n/a	-1	MOUNTAIN	924	n/a	-1	n/a	n/a	n/a	n/a	n/a
3829.964	n/a	FFR_REC_WORD	1914982	wordpools/wasnorm_wordpool_less_exclusions.txt	LTP243	ltpFR	6	n/a	0	CANYON	235	n/a	1	n/a	n/a	n/a	n/a	n/a
3832.324	n/a	FFR_REC_WORD	1916162	wordpools/wasnorm_wordpool_less_exclusions.txt	LTP243	ltpFR	6	n/a	-1	MOSS	918	n/a	-1	n/a	n/a	n/a	n/a	n/a
3835.138	n/a	FFR_REC_WORD	1917569	wordpools/wasnorm_wordpool_less_exclusions.txt	LTP243	ltpFR	6	n/a	-1	PIT	1077	n/a	-1	n/a	n/a	n/a	n/a	n/a
3840.62	n/a	FFR_REC_WORD	1920310	wordpools/wasnorm_wordpool_less_exclusions.txt	LTP243	ltpFR	6	n/a	-1	TELEPHONE	1445	n/a	-1	n/a	n/a	n/a	n/a	n/a
3841.468	n/a	FFR_REC_WORD	1920734	wordpools/wasnorm_wordpool_less_exclusions.txt	LTP243	ltpFR	6	n/a	-1	WIRE	1616	n/a	-1	n/a	n/a	n/a	n/a	n/a
3844.312	n/a	FFR_REC_WORD	1922156	wordpools/wasnorm_wordpool_less_exclusions.txt	LTP243	ltpFR	6	n/a	-1	FURNITURE	616	n/a	-1	n/a	n/a	n/a	n/a	n/a
3849.934	n/a	FFR_REC_WORD	1924967	wordpools/wasnorm_wordpool_less_exclusions.txt	LTP243	ltpFR	6	n/a	1	CAR	241	n/a	0	n/a	n/a	n/a	n/a	n/a
3851.416	n/a	FFR_REC_WORD	1925708	wordpools/wasnorm_wordpool_less_exclusions.txt	LTP243	ltpFR	6	n/a	0	TRUCK	1512	n/a	1	n/a	n/a	n/a	n/a	n/a
3861.906	n/a	FFR_REC_WORD	1930953	wordpools/wasnorm_wordpool_less_exclusions.txt	LTP243	ltpFR	6	n/a	1	STABLE	1363	n/a	0	n/a	n/a	n/a	n/a	n/a
3864.332	n/a	FFR_REC_WORD	1932166	wordpools/wasnorm_wordpool_less_exclusions.txt	LTP243	ltpFR	6	n/a	0	LEOPARD	812	n/a	1	n/a	n/a	n/a	n/a	n/a
3872.774	n/a	FFR_REC_WORD	1936387	wordpools/wasnorm_wordpool_less_exclusions.txt	LTP243	ltpFR	6	n/a	0	HAWK	692	n/a	1	n/a	n/a	n/a	n/a	n/a
3876.046	n/a	FFR_REC_WORD	1938023	wordpools/wasnorm_wordpool_less_exclusions.txt	LTP243	ltpFR	6	n/a	0	ELEPHANT	523	n/a	1	n/a	n/a	n/a	n/a	n/a
3881.194	n/a	FFR_REC_WORD	1940597	wordpools/wasnorm_wordpool_less_exclusions.txt	LTP243	ltpFR	6	n/a	0	MAILBOX	857	n/a	1	n/a	n/a	n/a	n/a	n/a
3897.368	n/a	FFR_REC_WORD	1948684	wordpools/wasnorm_wordpool_less_exclusions.txt	LTP243	ltpFR	6	n/a	1	RAG	1160	n/a	0	n/a	n/a	n/a	n/a	n/a
3908.146	n/a	FFR_REC_WORD	1954073	wordpools/wasnorm_wordpool_less_exclusions.txt	LTP243	ltpFR	6	n/a	1	TOWN	1491	n/a	0	n/a	n/a	n/a	n/a	n/a
3908.844	n/a	FFR_REC_WORD	1954422	wordpools/wasnorm_wordpool_less_exclusions.txt	LTP243	ltpFR	6	n/a	1	VILLAGE	1566	n/a	0	n/a	n/a	n/a	n/a	n/a
3917.036	n/a	FFR_REC_WORD	1958518	wordpools/wasnorm_wordpool_less_exclusions.txt	LTP243	ltpFR	6	n/a	1	ASSOCIATE	49	n/a	1	n/a	n/a	n/a	n/a	n/a
3918.646	n/a	FFR_REC_WORD	1959323	wordpools/wasnorm_wordpool_less_exclusions.txt	LTP243	ltpFR	6	n/a	1	DUCK	504	n/a	1	n/a	n/a	n/a	n/a	n/a
3919.79	n/a	FFR_REC_WORD	1959895	wordpools/wasnorm_wordpool_less_exclusions.txt	LTP243	ltpFR	6	n/a	0	OTTER	986	n/a	1	n/a	n/a	n/a	n/a	n/a
3926.74	n/a	FFR_REC_WORD	1963370	wordpools/wasnorm_wordpool_less_exclusions.txt	LTP243	ltpFR	6	n/a	1	NECKLACE	940	n/a	0	n/a	n/a	n/a	n/a	n/a
3929.886	n/a	FFR_REC_WORD	1964943	wordpools/wasnorm_wordpool_less_exclusions.txt	LTP243	ltpFR	6	n/a	1	MEDAL	885	n/a	0	n/a	n/a	n/a	n/a	n/a
3936.338	n/a	FFR_REC_WORD	1968169	wordpools/wasnorm_wordpool_less_exclusions.txt	LTP243	ltpFR	6	n/a	1	CONTRACTOR	369	n/a	1	n/a	n/a	n/a	n/a	n/a
3939.58	n/a	FFR_REC_WORD	1969790	wordpools/wasnorm_wordpool_less_exclusions.txt	LTP243	ltpFR	6	n/a	0	RULER	1216	n/a	0	n/a	n/a	n/a	n/a	n/a
3947.208	n/a	FFR_REC_WORD	1973604	wordpools/wasnorm_wordpool_less_exclusions.txt	LTP243	ltpFR	6	n/a	-1	ARTERY	41	n/a	-1	n/a	n/a	n/a	n/a	n/a
3948.456	n/a	FFR_REC_WORD	1974228	wordpools/wasnorm_wordpool_less_exclusions.txt	LTP243	ltpFR	6	n/a	1	KIDNEY	776	n/a	1	n/a	n/a	n/a	n/a	n/a
3949.478	n/a	FFR_REC_WORD	1974739	wordpools/wasnorm_wordpool_less_exclusions.txt	LTP243	ltpFR	6	n/a	1	LIVER	833	n/a	1	n/a	n/a	n/a	n/a	n/a
3951.01	n/a	FFR_REC_WORD	1975505	wordpools/wasnorm_wordpool_less_exclusions.txt	LTP243	ltpFR	6	n/a	0	VITAMIN	1574	n/a	0	n/a	n/a	n/a	n/a	n/a
3954.252	n/a	FFR_REC_WORD	1977126	wordpools/wasnorm_wordpool_less_exclusions.txt	LTP243	ltpFR	6	n/a	1	FIN	566	n/a	0	n/a	n/a	n/a	n/a	n/a
3955.086	n/a	FFR_REC_WORD	1977543	wordpools/wasnorm_wordpool_less_exclusions.txt	LTP243	ltpFR	6	n/a	0	SKIN	1318	n/a	0	n/a	n/a	n/a	n/a	n/a
3957.416	n/a	FFR_REC_WORD	1978708	wordpools/wasnorm_wordpool_less_exclusions.txt	LTP243	ltpFR	6	n/a	-1	BARRACUDA	90	n/a	-1	n/a	n/a	n/a	n/a	n/a
3958.214	n/a	FFR_REC_WORD	1979107	wordpools/wasnorm_wordpool_less_exclusions.txt	LTP243	ltpFR	6	n/a	-1	ICE	730	n/a	-1	n/a	n/a	n/a	n/a	n/a
3958.678	n/a	FFR_REC_WORD	1979339	wordpools/wasnorm_wordpool_less_exclusions.txt	LTP243	ltpFR	6	n/a	-1	LOBSTER	837	n/a	-1	n/a	n/a	n/a	n/a	n/a
3959.886	n/a	FFR_REC_WORD	1979943	wordpools/wasnorm_wordpool_less_exclusions.txt	LTP243	ltpFR	6	n/a	n/a	LIME	823	n/a	n/a	n/a	n/a	n/a	n/a	n/a
3981.264	n/a	FFR_REC_WORD	1990632	wordpools/wasnorm_wordpool_less_exclusions.txt	LTP243	ltpFR	6	n/a	1	CHAIRPERSON	275	n/a	1	n/a	n/a	n/a	n/a	n/a
3984.206	n/a	FFR_REC_WORD	1992103	wordpools/wasnorm_wordpool_less_exclusions.txt	LTP243	ltpFR	6	n/a	n/a	SEAT	1264	n/a	n/a	n/a	n/a	n/a	n/a	n/a
3993.146	n/a	FFR_REC_WORD	1996573	wordpools/wasnorm_wordpool_less_exclusions.txt	LTP243	ltpFR	6	n/a	1	FRUIT	610	n/a	1	n/a	n/a	n/a	n/a	n/a
3999.354	n/a	FFR_REC_WORD	1999677	wordpools/wasnorm_wordpool_less_exclusions.txt	LTP243	ltpFR	6	n/a	1	PLANT	1083	n/a	1	n/a	n/a	n/a	n/a	n/a
4000.042	n/a	FFR_REC_WORD	2000021	wordpools/wasnorm_wordpool_less_exclusions.txt	LTP243	ltpFR	6	n/a	1	ANIMAL	23	n/a	1	n/a	n/a	n/a	n/a	n/a
4028.166	n/a	REC_START	2014083	n/a	LTP243	ltpFR	6	1	n/a	n/a	n/a	n/a	n/a	n/a	n/a	n/a	n/a	n/a
4028.214	n/a	RECOG_TARGET	2014107	n/a	LTP243	ltpFR	6	1	1	STABLE	1363	5	0	n/a	n/a	n/a	n/a	n/a
4032.994	n/a	RECOG_RESP	2016497	n/a	LTP243	ltpFR	6	1	1	STABLE	1363	n/a	0	n/a	n/a	n/a	n/a	n/a
4034.172	n/a	RECOG_CONF	2017086	n/a	LTP243	ltpFR	6	1	1	STABLE	1363	5	0	n/a	n/a	n/a	n/a	n/a
4036.212	n/a	RECOG_TARGET	2018106	n/a	LTP243	ltpFR	6	1	0	SIRLOIN	1311	5	0	n/a	n/a	n/a	n/a	n/a
4037.054	n/a	RECOG_RESP	2018527	n/a	LTP243	ltpFR	6	1	0	SIRLOIN	1311	n/a	0	n/a	n/a	n/a	n/a	n/a
4037.822	n/a	RECOG_CONF	2018911	n/a	LTP243	ltpFR	6	1	0	SIRLOIN	1311	5	0	n/a	n/a	n/a	n/a	n/a
4039.608	n/a	RECOG_TARGET	2019804	n/a	LTP243	ltpFR	6	1	0	BRACELET	163	2	0	n/a	n/a	n/a	n/a	n/a
4041.462	n/a	RECOG_RESP	2020731	n/a	LTP243	ltpFR	6	1	0	BRACELET	163	n/a	0	n/a	n/a	n/a	n/a	n/a
4042.388	n/a	RECOG_CONF	2021194	n/a	LTP243	ltpFR	6	1	0	BRACELET	163	2	0	n/a	n/a	n/a	n/a	n/a
4043.958	n/a	RECOG_TARGET	2021979	n/a	LTP243	ltpFR	6	1	1	ANTELOPE	27	4	1	n/a	n/a	n/a	n/a	n/a
4045.234	n/a	RECOG_RESP	2022617	n/a	LTP243	ltpFR	6	1	1	ANTELOPE	27	n/a	1	n/a	n/a	n/a	n/a	n/a
4046.014	n/a	RECOG_CONF	2023007	n/a	LTP243	ltpFR	6	1	1	ANTELOPE	27	4	1	n/a	n/a	n/a	n/a	n/a
4047.706	n/a	RECOG_TARGET	2023853	n/a	LTP243	ltpFR	6	1	1	COMMUNITY	356	1	0	n/a	n/a	n/a	n/a	n/a
4049.466	n/a	RECOG_RESP	2024733	n/a	LTP243	ltpFR	6	1	1	COMMUNITY	356	n/a	0	n/a	n/a	n/a	n/a	n/a
4050.824	n/a	RECOG_CONF	2025412	n/a	LTP243	ltpFR	6	1	1	COMMUNITY	356	1	0	n/a	n/a	n/a	n/a	n/a
4052.504	n/a	RECOG_TARGET	2026252	n/a	LTP243	ltpFR	6	1	0	GOWN	652	4	0	n/a	n/a	n/a	n/a	n/a
4053.896	n/a	RECOG_RESP	2026948	n/a	LTP243	ltpFR	6	1	0	GOWN	652	n/a	0	n/a	n/a	n/a	n/a	n/a
4054.612	n/a	RECOG_CONF	2027306	n/a	LTP243	ltpFR	6	1	0	GOWN	652	4	0	n/a	n/a	n/a	n/a	n/a
4056.44	n/a	RECOG_TARGET	2028220	n/a	LTP243	ltpFR	6	1	1	VET	1560	5	1	n/a	n/a	n/a	n/a	n/a
4057.558	n/a	RECOG_RESP	2028779	n/a	LTP243	ltpFR	6	1	1	VET	1560	n/a	1	n/a	n/a	n/a	n/a	n/a
4058.226	n/a	RECOG_CONF	2029113	n/a	LTP243	ltpFR	6	1	1	VET	1560	5	1	n/a	n/a	n/a	n/a	n/a
4059.802	n/a	RECOG_TARGET	2029901	n/a	LTP243	ltpFR	6	1	-1	ROOT	1210	5	-1	n/a	n/a	n/a	n/a	n/a
4060.704	n/a	RECOG_RESP	2030352	n/a	LTP243	ltpFR	6	1	-1	ROOT	1210	n/a	-1	n/a	n/a	n/a	n/a	n/a
4061.286	n/a	RECOG_CONF	2030643	n/a	LTP243	ltpFR	6	1	-1	ROOT	1210	5	-1	n/a	n/a	n/a	n/a	n/a
4063.012	n/a	RECOG_TARGET	2031506	n/a	LTP243	ltpFR	6	1	1	BRANDY	169	5	0	n/a	n/a	n/a	n/a	n/a
4063.58	n/a	RECOG_RESP	2031790	n/a	LTP243	ltpFR	6	1	1	BRANDY	169	n/a	0	n/a	n/a	n/a	n/a	n/a
4064.116	n/a	RECOG_CONF	2032058	n/a	LTP243	ltpFR	6	1	1	BRANDY	169	5	0	n/a	n/a	n/a	n/a	n/a
4065.79	n/a	RECOG_TARGET	2032895	n/a	LTP243	ltpFR	6	1	1	STORE	1387	3	0	n/a	n/a	n/a	n/a	n/a
4067.522	n/a	RECOG_RESP	2033761	n/a	LTP243	ltpFR	6	1	1	STORE	1387	n/a	0	n/a	n/a	n/a	n/a	n/a
4068.202	n/a	RECOG_CONF	2034101	n/a	LTP243	ltpFR	6	1	1	STORE	1387	3	0	n/a	n/a	n/a	n/a	n/a
4069.718	n/a	RECOG_TARGET	2034859	n/a	LTP243	ltpFR	6	1	0	BLACKBOARD	133	5	1	n/a	n/a	n/a	n/a	n/a
4070.544	n/a	RECOG_RESP	2035272	n/a	LTP243	ltpFR	6	1	0	BLACKBOARD	133	n/a	1	n/a	n/a	n/a	n/a	n/a
4071.194	n/a	RECOG_CONF	2035597	n/a	LTP243	ltpFR	6	1	0	BLACKBOARD	133	5	1	n/a	n/a	n/a	n/a	n/a
4072.87	n/a	RECOG_TARGET	2036435	n/a	LTP243	ltpFR	6	1	1	BULB	192	5	0	n/a	n/a	n/a	n/a	n/a
4074.038	n/a	RECOG_RESP	2037019	n/a	LTP243	ltpFR	6	1	1	BULB	192	n/a	0	n/a	n/a	n/a	n/a	n/a
4075.45	n/a	RECOG_CONF	2037725	n/a	LTP243	ltpFR	6	1	1	BULB	192	5	0	n/a	n/a	n/a	n/a	n/a
4077.018	n/a	RECOG_TARGET	2038509	n/a	LTP243	ltpFR	6	1	0	VEAL	1551	5	0	n/a	n/a	n/a	n/a	n/a
4077.586	n/a	RECOG_RESP	2038793	n/a	LTP243	ltpFR	6	1	0	VEAL	1551	n/a	0	n/a	n/a	n/a	n/a	n/a
4078.246	n/a	RECOG_CONF	2039123	n/a	LTP243	ltpFR	6	1	0	VEAL	1551	5	0	n/a	n/a	n/a	n/a	n/a
4079.846	n/a	RECOG_TARGET	2039923	n/a	LTP243	ltpFR	6	1	0	SHIRT	1287	4	0	n/a	n/a	n/a	n/a	n/a
4081.006	n/a	RECOG_RESP	2040503	n/a	LTP243	ltpFR	6	1	0	SHIRT	1287	n/a	0	n/a	n/a	n/a	n/a	n/a
4081.552	n/a	RECOG_CONF	2040776	n/a	LTP243	ltpFR	6	1	0	SHIRT	1287	4	0	n/a	n/a	n/a	n/a	n/a
4083.176	n/a	RECOG_TARGET	2041588	n/a	LTP243	ltpFR	6	1	0	SKILLET	1317	4	1	n/a	n/a	n/a	n/a	n/a
4083.892	n/a	RECOG_RESP	2041946	n/a	LTP243	ltpFR	6	1	0	SKILLET	1317	n/a	1	n/a	n/a	n/a	n/a	n/a
4084.626	n/a	RECOG_CONF	2042313	n/a	LTP243	ltpFR	6	1	0	SKILLET	1317	4	1	n/a	n/a	n/a	n/a	n/a
4086.32	n/a	RECOG_TARGET	2043160	n/a	LTP243	ltpFR	6	1	-1	FLESH	579	5	-1	n/a	n/a	n/a	n/a	n/a
4087.018	n/a	RECOG_RESP	2043509	n/a	LTP243	ltpFR	6	1	-1	FLESH	579	n/a	-1	n/a	n/a	n/a	n/a	n/a
4087.554	n/a	RECOG_CONF	2043777	n/a	LTP243	ltpFR	6	1	-1	FLESH	579	5	-1	n/a	n/a	n/a	n/a	n/a
4089.332	n/a	RECOG_TARGET	2044666	n/a	LTP243	ltpFR	6	1	-1	PROFESSIONAL	1130	4	-1	n/a	n/a	n/a	n/a	n/a
4091.326	n/a	RECOG_RESP	2045663	n/a	LTP243	ltpFR	6	1	-1	PROFESSIONAL	1130	n/a	-1	n/a	n/a	n/a	n/a	n/a
4091.98	n/a	RECOG_CONF	2045990	n/a	LTP243	ltpFR	6	1	-1	PROFESSIONAL	1130	4	-1	n/a	n/a	n/a	n/a	n/a
4093.51	n/a	RECOG_TARGET	2046755	n/a	LTP243	ltpFR	6	1	0	BACON	67	5	0	n/a	n/a	n/a	n/a	n/a
4094.138	n/a	RECOG_RESP	2047069	n/a	LTP243	ltpFR	6	1	0	BACON	67	n/a	0	n/a	n/a	n/a	n/a	n/a
4094.782	n/a	RECOG_CONF	2047391	n/a	LTP243	ltpFR	6	1	0	BACON	67	5	0	n/a	n/a	n/a	n/a	n/a
4096.392	n/a	RECOG_LURE	2048196	n/a	LTP243	ltpFR	6	1	n/a	TYPEWRITER	1531	4	n/a	n/a	n/a	n/a	n/a	n/a
4097.468	n/a	RECOG_RESP	2048734	n/a	LTP243	ltpFR	6	1	n/a	TYPEWRITER	1531	n/a	n/a	n/a	n/a	n/a	n/a	n/a
4098.094	n/a	RECOG_CONF	2049047	n/a	LTP243	ltpFR	6	1	n/a	TYPEWRITER	1531	4	n/a	n/a	n/a	n/a	n/a	n/a
4099.72	n/a	RECOG_TARGET	2049860	n/a	LTP243	ltpFR	6	1	-1	VISITOR	1573	4	-1	n/a	n/a	n/a	n/a	n/a
4101.03	n/a	RECOG_RESP	2050515	n/a	LTP243	ltpFR	6	1	-1	VISITOR	1573	n/a	-1	n/a	n/a	n/a	n/a	n/a
4101.748	n/a	RECOG_CONF	2050874	n/a	LTP243	ltpFR	6	1	-1	VISITOR	1573	4	-1	n/a	n/a	n/a	n/a	n/a
4105.16	n/a	REC_START	2052580	n/a	LTP243	ltpFR	6	2	n/a	n/a	n/a	n/a	n/a	n/a	n/a	n/a	n/a	n/a
4105.222	n/a	RECOG_TARGET	2052611	n/a	LTP243	ltpFR	6	2	1	SKYSCRAPER	1322	5	0	n/a	n/a	n/a	n/a	n/a
4106.002	n/a	RECOG_RESP	2053001	n/a	LTP243	ltpFR	6	2	1	SKYSCRAPER	1322	n/a	0	n/a	n/a	n/a	n/a	n/a
4106.582	n/a	RECOG_CONF	2053291	n/a	LTP243	ltpFR	6	2	1	SKYSCRAPER	1322	5	0	n/a	n/a	n/a	n/a	n/a
4108.082	n/a	RECOG_TARGET	2054041	n/a	LTP243	ltpFR	6	2	-1	SINK	1309	5	-1	n/a	n/a	n/a	n/a	n/a
4108.658	n/a	RECOG_RESP	2054329	n/a	LTP243	ltpFR	6	2	-1	SINK	1309	n/a	-1	n/a	n/a	n/a	n/a	n/a
4109.256	n/a	RECOG_CONF	2054628	n/a	LTP243	ltpFR	6	2	-1	SINK	1309	5	-1	n/a	n/a	n/a	n/a	n/a
4110.83	n/a	RECOG_TARGET	2055415	n/a	LTP243	ltpFR	6	2	0	PUBLISHER	1137	3	1	n/a	n/a	n/a	n/a	n/a
4112.096	n/a	RECOG_RESP	2056048	n/a	LTP243	ltpFR	6	2	0	PUBLISHER	1137	n/a	1	n/a	n/a	n/a	n/a	n/a
4112.81	n/a	RECOG_CONF	2056405	n/a	LTP243	ltpFR	6	2	0	PUBLISHER	1137	3	1	n/a	n/a	n/a	n/a	n/a
4114.41	n/a	RECOG_TARGET	2057205	n/a	LTP243	ltpFR	6	2	1	BANQUET	86	5	0	n/a	n/a	n/a	n/a	n/a
4115.52	n/a	RECOG_RESP	2057760	n/a	LTP243	ltpFR	6	2	1	BANQUET	86	n/a	0	n/a	n/a	n/a	n/a	n/a
4116.12	n/a	RECOG_CONF	2058060	n/a	LTP243	ltpFR	6	2	1	BANQUET	86	5	0	n/a	n/a	n/a	n/a	n/a
4117.786	n/a	RECOG_TARGET	2058893	n/a	LTP243	ltpFR	6	2	1	CREAM	402	3	0	n/a	n/a	n/a	n/a	n/a
4119.344	n/a	RECOG_RESP	2059672	n/a	LTP243	ltpFR	6	2	1	CREAM	402	n/a	0	n/a	n/a	n/a	n/a	n/a
4119.91	n/a	RECOG_CONF	2059955	n/a	LTP243	ltpFR	6	2	1	CREAM	402	3	0	n/a	n/a	n/a	n/a	n/a
4121.57	n/a	RECOG_TARGET	2060785	n/a	LTP243	ltpFR	6	2	0	TECHNICIAN	1443	4	1	n/a	n/a	n/a	n/a	n/a
4122.788	n/a	RECOG_RESP	2061394	n/a	LTP243	ltpFR	6	2	0	TECHNICIAN	1443	n/a	1	n/a	n/a	n/a	n/a	n/a
4123.994	n/a	RECOG_CONF	2061997	n/a	LTP243	ltpFR	6	2	0	TECHNICIAN	1443	4	1	n/a	n/a	n/a	n/a	n/a
4125.602	n/a	RECOG_LURE	2062801	n/a	LTP243	ltpFR	6	2	n/a	LOVER	846	4	n/a	n/a	n/a	n/a	n/a	n/a
4126.66	n/a	RECOG_RESP	2063330	n/a	LTP243	ltpFR	6	2	n/a	LOVER	846	n/a	n/a	n/a	n/a	n/a	n/a	n/a
4127.276	n/a	RECOG_CONF	2063638	n/a	LTP243	ltpFR	6	2	n/a	LOVER	846	4	n/a	n/a	n/a	n/a	n/a	n/a
4128.732	n/a	RECOG_TARGET	2064366	n/a	LTP243	ltpFR	6	2	0	PRINCESS	1125	5	1	n/a	n/a	n/a	n/a	n/a
4129.568	n/a	RECOG_RESP	2064784	n/a	LTP243	ltpFR	6	2	0	PRINCESS	1125	n/a	1	n/a	n/a	n/a	n/a	n/a
4130.11	n/a	RECOG_CONF	2065055	n/a	LTP243	ltpFR	6	2	0	PRINCESS	1125	5	1	n/a	n/a	n/a	n/a	n/a
4131.828	n/a	RECOG_TARGET	2065914	n/a	LTP243	ltpFR	6	2	1	RAG	1160	5	0	n/a	n/a	n/a	n/a	n/a
4132.386	n/a	RECOG_RESP	2066193	n/a	LTP243	ltpFR	6	2	1	RAG	1160	n/a	0	n/a	n/a	n/a	n/a	n/a
4132.902	n/a	RECOG_CONF	2066451	n/a	LTP243	ltpFR	6	2	1	RAG	1160	5	0	n/a	n/a	n/a	n/a	n/a
4134.504	n/a	RECOG_TARGET	2067252	n/a	LTP243	ltpFR	6	2	1	TOWN	1491	5	0	n/a	n/a	n/a	n/a	n/a
4135.006	n/a	RECOG_RESP	2067503	n/a	LTP243	ltpFR	6	2	1	TOWN	1491	n/a	0	n/a	n/a	n/a	n/a	n/a
4135.618	n/a	RECOG_CONF	2067809	n/a	LTP243	ltpFR	6	2	1	TOWN	1491	5	0	n/a	n/a	n/a	n/a	n/a
4137.028	n/a	RECOG_TARGET	2068514	n/a	LTP243	ltpFR	6	2	0	LEOPARD	812	5	1	n/a	n/a	n/a	n/a	n/a
4137.562	n/a	RECOG_RESP	2068781	n/a	LTP243	ltpFR	6	2	0	LEOPARD	812	n/a	1	n/a	n/a	n/a	n/a	n/a
4138.132	n/a	RECOG_CONF	2069066	n/a	LTP243	ltpFR	6	2	0	LEOPARD	812	5	1	n/a	n/a	n/a	n/a	n/a
4139.59	n/a	RECOG_LURE	2069795	n/a	LTP243	ltpFR	6	2	n/a	NIGHTGOWN	953	2	n/a	n/a	n/a	n/a	n/a	n/a
4142.346	n/a	RECOG_RESP	2071173	n/a	LTP243	ltpFR	6	2	n/a	NIGHTGOWN	953	n/a	n/a	n/a	n/a	n/a	n/a	n/a
4143.242	n/a	RECOG_CONF	2071621	n/a	LTP243	ltpFR	6	2	n/a	NIGHTGOWN	953	2	n/a	n/a	n/a	n/a	n/a	n/a
4144.776	n/a	RECOG_TARGET	2072388	n/a	LTP243	ltpFR	6	2	0	FLANNEL	574	4	0	n/a	n/a	n/a	n/a	n/a
4146.78	n/a	RECOG_RESP	2073390	n/a	LTP243	ltpFR	6	2	0	FLANNEL	574	n/a	0	n/a	n/a	n/a	n/a	n/a
4147.422	n/a	RECOG_CONF	2073711	n/a	LTP243	ltpFR	6	2	0	FLANNEL	574	4	0	n/a	n/a	n/a	n/a	n/a
4149.04	n/a	RECOG_TARGET	2074520	n/a	LTP243	ltpFR	6	2	1	TIMBER	1469	5	0	n/a	n/a	n/a	n/a	n/a
4149.664	n/a	RECOG_RESP	2074832	n/a	LTP243	ltpFR	6	2	1	TIMBER	1469	n/a	0	n/a	n/a	n/a	n/a	n/a
4150.162	n/a	RECOG_CONF	2075081	n/a	LTP243	ltpFR	6	2	1	TIMBER	1469	5	0	n/a	n/a	n/a	n/a	n/a
4151.804	n/a	RECOG_TARGET	2075902	n/a	LTP243	ltpFR	6	2	1	COSTUME	383	1	0	n/a	n/a	n/a	n/a	n/a
4152.95	n/a	RECOG_RESP	2076475	n/a	LTP243	ltpFR	6	2	1	COSTUME	383	n/a	0	n/a	n/a	n/a	n/a	n/a
4154.326	n/a	RECOG_CONF	2077163	n/a	LTP243	ltpFR	6	2	1	COSTUME	383	1	0	n/a	n/a	n/a	n/a	n/a
4155.782	n/a	RECOG_LURE	2077891	n/a	LTP243	ltpFR	6	2	n/a	ROCKET	1202	2	n/a	n/a	n/a	n/a	n/a	n/a
4157.458	n/a	RECOG_RESP	2078729	n/a	LTP243	ltpFR	6	2	n/a	ROCKET	1202	n/a	n/a	n/a	n/a	n/a	n/a	n/a
4158.168	n/a	RECOG_CONF	2079084	n/a	LTP243	ltpFR	6	2	n/a	ROCKET	1202	2	n/a	n/a	n/a	n/a	n/a	n/a
4159.7	n/a	RECOG_TARGET	2079850	n/a	LTP243	ltpFR	6	2	-1	ANT	25	3	-1	n/a	n/a	n/a	n/a	n/a
4160.822	n/a	RECOG_RESP	2080411	n/a	LTP243	ltpFR	6	2	-1	ANT	25	n/a	-1	n/a	n/a	n/a	n/a	n/a
4161.426	n/a	RECOG_CONF	2080713	n/a	LTP243	ltpFR	6	2	-1	ANT	25	3	-1	n/a	n/a	n/a	n/a	n/a
4162.912	n/a	RECOG_TARGET	2081456	n/a	LTP243	ltpFR	6	2	-1	FURNITURE	616	5	-1	n/a	n/a	n/a	n/a	n/a
4163.452	n/a	RECOG_RESP	2081726	n/a	LTP243	ltpFR	6	2	-1	FURNITURE	616	n/a	-1	n/a	n/a	n/a	n/a	n/a
4164.064	n/a	RECOG_CONF	2082032	n/a	LTP243	ltpFR	6	2	-1	FURNITURE	616	5	-1	n/a	n/a	n/a	n/a	n/a
4165.468	n/a	RECOG_TARGET	2082734	n/a	LTP243	ltpFR	6	2	-1	KNAPSACK	783	5	-1	n/a	n/a	n/a	n/a	n/a
4166.094	n/a	RECOG_RESP	2083047	n/a	LTP243	ltpFR	6	2	-1	KNAPSACK	783	n/a	-1	n/a	n/a	n/a	n/a	n/a
4166.66	n/a	RECOG_CONF	2083330	n/a	LTP243	ltpFR	6	2	-1	KNAPSACK	783	5	-1	n/a	n/a	n/a	n/a	n/a
4168.084	n/a	RECOG_TARGET	2084042	n/a	LTP243	ltpFR	6	2	-1	JUDGE	761	5	-1	n/a	n/a	n/a	n/a	n/a
4168.966	n/a	RECOG_RESP	2084483	n/a	LTP243	ltpFR	6	2	-1	JUDGE	761	n/a	-1	n/a	n/a	n/a	n/a	n/a
4169.552	n/a	RECOG_CONF	2084776	n/a	LTP243	ltpFR	6	2	-1	JUDGE	761	5	-1	n/a	n/a	n/a	n/a	n/a
4172.99	n/a	REC_START	2086495	n/a	LTP243	ltpFR	6	3	n/a	n/a	n/a	n/a	n/a	n/a	n/a	n/a	n/a	n/a
4173.036	n/a	RECOG_TARGET	2086518	n/a	LTP243	ltpFR	6	3	-1	PEOPLE	1046	5	-1	n/a	n/a	n/a	n/a	n/a
4173.936	n/a	RECOG_RESP	2086968	n/a	LTP243	ltpFR	6	3	-1	PEOPLE	1046	n/a	-1	n/a	n/a	n/a	n/a	n/a
4174.646	n/a	RECOG_CONF	2087323	n/a	LTP243	ltpFR	6	3	-1	PEOPLE	1046	5	-1	n/a	n/a	n/a	n/a	n/a
4176.13	n/a	RECOG_TARGET	2088065	n/a	LTP243	ltpFR	6	3	0	STAPLE	1371	5	0	n/a	n/a	n/a	n/a	n/a
