mstime	trial_type	stim_file	subject	experiment	session	trial	task	item_name	item_num	recog_conf	resp	answer	test_x	test_y	test_z	color_b	color_g	color_r	case	font
0	SESS_START	n/a	LTP284	ltpFR	10	n/a	n/a	n/a	n/a	n/a	n/a	n/a	0	0	0	n/a	n/a	n/a	n/a	n/a
54530	START	n/a	LTP284	ltpFR	10	n/a	n/a	n/a	n/a	n/a	n/a	n/a	n/a	n/a	n/a	n/a	n/a	n/a	n/a	n/a
54579	PROB	n/a	LTP284	ltpFR	10	n/a	n/a	n/a	n/a	n/a	n/a	16	2	6	8	n/a	n/a	n/a	n/a	n/a
56938	PROB	n/a	LTP284	ltpFR	10	n/a	n/a	n/a	n/a	n/a	n/a	15	3	4	5	n/a	n/a	n/a	n/a	n/a
58762	PROB	n/a	LTP284	ltpFR	10	n/a	n/a	n/a	n/a	n/a	n/a	13	9	2	2	n/a	n/a	n/a	n/a	n/a
60970	PROB	n/a	LTP284	ltpFR	10	n/a	n/a	n/a	n/a	n/a	n/a	15	9	3	3	n/a	n/a	n/a	n/a	n/a
63042	PROB	n/a	LTP284	ltpFR	10	n/a	n/a	n/a	n/a	n/a	n/a	18	7	6	5	n/a	n/a	n/a	n/a	n/a
66474	PROB	n/a	LTP284	ltpFR	10	n/a	n/a	n/a	n/a	n/a	n/a	12	7	2	3	n/a	n/a	n/a	n/a	n/a
68498	PROB	n/a	LTP284	ltpFR	10	n/a	n/a	n/a	n/a	n/a	n/a	17	5	9	3	n/a	n/a	n/a	n/a	n/a
72044	PROB	n/a	LTP284	ltpFR	10	n/a	n/a	n/a	n/a	n/a	n/a	16	8	1	7	n/a	n/a	n/a	n/a	n/a
73853	STOP	n/a	LTP284	ltpFR	10	n/a	n/a	n/a	n/a	n/a	n/a	n/a	n/a	n/a	n/a	n/a	n/a	n/a	n/a	n/a
115944	WORD	wordpools/wasnorm_wordpool_less_exclusions.txt	LTP284	ltpFR	10	1	1	ROAD	1196	n/a	1	n/a	0	0	0	0	0.5869140625	0.422607421875	lower	../fonts/zerothre.ttf
119909	WORD	wordpools/wasnorm_wordpool_less_exclusions.txt	LTP284	ltpFR	10	1	1	CHEESE	289	n/a	0	n/a	0	0	0	0	0.5869140625	0.422607421875	lower	../fonts/zerothre.ttf
123838	WORD	wordpools/wasnorm_wordpool_less_exclusions.txt	LTP284	ltpFR	10	1	0	NITROGEN	954	n/a	0	n/a	0	0	0	1	0.412841796875	0.57763671875	upper	../fonts/amplitud.ttf
127788	WORD	wordpools/wasnorm_wordpool_less_exclusions.txt	LTP284	ltpFR	10	1	0	SAP	1233	n/a	0	n/a	0	0	0	1	0.412841796875	0.57763671875	upper	../fonts/amplitud.ttf
131921	WORD	wordpools/wasnorm_wordpool_less_exclusions.txt	LTP284	ltpFR	10	1	0	RACCOON	1153	n/a	1	n/a	0	0	0	1	0.412841796875	0.57763671875	upper	../fonts/amplitud.ttf
135836	WORD	wordpools/wasnorm_wordpool_less_exclusions.txt	LTP284	ltpFR	10	1	0	POSSUM	1112	n/a	1	n/a	0	0	0	1	0.412841796875	0.57763671875	upper	../fonts/amplitud.ttf
139665	WORD	wordpools/wasnorm_wordpool_less_exclusions.txt	LTP284	ltpFR	10	1	1	BUFFALO	186	n/a	1	n/a	0	0	0	0	0.5869140625	0.422607421875	lower	../fonts/zerothre.ttf
143598	WORD	wordpools/wasnorm_wordpool_less_exclusions.txt	LTP284	ltpFR	10	1	1	FOX	598	n/a	1	n/a	0	0	0	0	0.5869140625	0.422607421875	lower	../fonts/zerothre.ttf
147595	WORD	wordpools/wasnorm_wordpool_less_exclusions.txt	LTP284	ltpFR	10	1	1	PLUM	1090	n/a	1	n/a	0	0	0	0	0.5869140625	0.422607421875	lower	../fonts/zerothre.ttf
151428	WORD	wordpools/wasnorm_wordpool_less_exclusions.txt	LTP284	ltpFR	10	1	1	DIPLOMA	470	n/a	0	n/a	0	0	0	0	0.5869140625	0.422607421875	lower	../fonts/zerothre.ttf
155459	WORD	wordpools/wasnorm_wordpool_less_exclusions.txt	LTP284	ltpFR	10	1	1	PAD	998	n/a	0	n/a	0	0	0	0	0.5869140625	0.422607421875	lower	../fonts/zerothre.ttf
159323	WORD	wordpools/wasnorm_wordpool_less_exclusions.txt	LTP284	ltpFR	10	1	1	MASK	876	n/a	0	n/a	0	0	0	0	0.5869140625	0.422607421875	lower	../fonts/zerothre.ttf
163271	WORD	wordpools/wasnorm_wordpool_less_exclusions.txt	LTP284	ltpFR	10	1	0	SIDEWALK	1303	n/a	1	n/a	0	0	0	1	0.412841796875	0.57763671875	upper	../fonts/amplitud.ttf
167421	WORD	wordpools/wasnorm_wordpool_less_exclusions.txt	LTP284	ltpFR	10	1	0	ELM	527	n/a	0	n/a	0	0	0	1	0.412841796875	0.57763671875	upper	../fonts/amplitud.ttf
171318	WORD	wordpools/wasnorm_wordpool_less_exclusions.txt	LTP284	ltpFR	10	1	0	PLANT	1083	n/a	1	n/a	0	0	0	1	0.412841796875	0.57763671875	upper	../fonts/amplitud.ttf
175300	WORD	wordpools/wasnorm_wordpool_less_exclusions.txt	LTP284	ltpFR	10	1	0	TAIL	1430	n/a	0	n/a	0	0	0	1	0.412841796875	0.57763671875	upper	../fonts/amplitud.ttf
178312	START	n/a	LTP284	ltpFR	10	n/a	n/a	n/a	n/a	n/a	n/a	n/a	n/a	n/a	n/a	n/a	n/a	n/a	n/a	n/a
179433	PROB	n/a	LTP284	ltpFR	10	n/a	n/a	n/a	n/a	n/a	n/a	15	2	4	9	n/a	n/a	n/a	n/a	n/a
181390	PROB	n/a	LTP284	ltpFR	10	n/a	n/a	n/a	n/a	n/a	n/a	19	8	5	6	n/a	n/a	n/a	n/a	n/a
185501	STOP	n/a	LTP284	ltpFR	10	n/a	n/a	n/a	n/a	n/a	n/a	n/a	n/a	n/a	n/a	n/a	n/a	n/a	n/a	n/a
188216	REC_START	n/a	LTP284	ltpFR	10	1	n/a	n/a	n/a	n/a	n/a	n/a	0	0	0	n/a	n/a	n/a	n/a	n/a
189159	REC_WORD	wordpools/wasnorm_wordpool_less_exclusions.txt	LTP284	ltpFR	10	1	1	DIPLOMA	470	n/a	0	n/a	0	0	0	n/a	n/a	n/a	n/a	n/a
190758	REC_WORD	wordpools/wasnorm_wordpool_less_exclusions.txt	LTP284	ltpFR	10	1	0	ELM	527	n/a	0	n/a	0	0	0	n/a	n/a	n/a	n/a	n/a
192326	REC_WORD	wordpools/wasnorm_wordpool_less_exclusions.txt	LTP284	ltpFR	10	1	1	PAD	998	n/a	0	n/a	0	0	0	n/a	n/a	n/a	n/a	n/a
193703	REC_WORD	wordpools/wasnorm_wordpool_less_exclusions.txt	LTP284	ltpFR	10	1	1	FOX	598	n/a	1	n/a	0	0	0	n/a	n/a	n/a	n/a	n/a
195827	REC_WORD	wordpools/wasnorm_wordpool_less_exclusions.txt	LTP284	ltpFR	10	1	1	BUFFALO	186	n/a	1	n/a	0	0	0	n/a	n/a	n/a	n/a	n/a
204344	REC_WORD	wordpools/wasnorm_wordpool_less_exclusions.txt	LTP284	ltpFR	10	1	0	SIDEWALK	1303	n/a	1	n/a	0	0	0	n/a	n/a	n/a	n/a	n/a
205969	REC_WORD	wordpools/wasnorm_wordpool_less_exclusions.txt	LTP284	ltpFR	10	1	1	ROAD	1196	n/a	1	n/a	0	0	0	n/a	n/a	n/a	n/a	n/a
210289	REC_WORD	wordpools/wasnorm_wordpool_less_exclusions.txt	LTP284	ltpFR	10	1	0	POSSUM	1112	n/a	1	n/a	0	0	0	n/a	n/a	n/a	n/a	n/a
214366	REC_WORD	wordpools/wasnorm_wordpool_less_exclusions.txt	LTP284	ltpFR	10	1	0	RACCOON	1153	n/a	1	n/a	0	0	0	n/a	n/a	n/a	n/a	n/a
218930	REC_WORD	wordpools/wasnorm_wordpool_less_exclusions.txt	LTP284	ltpFR	10	1	1	CHEESE	289	n/a	0	n/a	0	0	0	n/a	n/a	n/a	n/a	n/a
220627	REC_WORD	wordpools/wasnorm_wordpool_less_exclusions.txt	LTP284	ltpFR	10	1	1	PLUM	1090	n/a	1	n/a	0	0	0	n/a	n/a	n/a	n/a	n/a
222052	REC_WORD	wordpools/wasnorm_wordpool_less_exclusions.txt	LTP284	ltpFR	10	1	0	PLANT	1083	n/a	1	n/a	0	0	0	n/a	n/a	n/a	n/a	n/a
275394	START	n/a	LTP284	ltpFR	10	n/a	n/a	n/a	n/a	n/a	n/a	n/a	n/a	n/a	n/a	n/a	n/a	n/a	n/a	n/a
276901	PROB	n/a	LTP284	ltpFR	10	n/a	n/a	n/a	n/a	n/a	n/a	15	7	3	5	n/a	n/a	n/a	n/a	n/a
278507	PROB	n/a	LTP284	ltpFR	10	n/a	n/a	n/a	n/a	n/a	n/a	17	1	9	7	n/a	n/a	n/a	n/a	n/a
280262	PROB	n/a	LTP284	ltpFR	10	n/a	n/a	n/a	n/a	n/a	n/a	14	2	4	8	n/a	n/a	n/a	n/a	n/a
282292	STOP	n/a	LTP284	ltpFR	10	n/a	n/a	n/a	n/a	n/a	n/a	n/a	n/a	n/a	n/a	n/a	n/a	n/a	n/a	n/a
284227	WORD	wordpools/wasnorm_wordpool_less_exclusions.txt	LTP284	ltpFR	10	2	1	NOMAD	955	n/a	1	n/a	0	0	0	0	0.5869140625	0.422607421875	lower	../fonts/zerothre.ttf
287239	START	n/a	LTP284	ltpFR	10	n/a	n/a	n/a	n/a	n/a	n/a	n/a	n/a	n/a	n/a	n/a	n/a	n/a	n/a	n/a
288359	PROB	n/a	LTP284	ltpFR	10	n/a	n/a	n/a	n/a	n/a	n/a	18	9	4	5	n/a	n/a	n/a	n/a	n/a
292040	PROB	n/a	LTP284	ltpFR	10	n/a	n/a	n/a	n/a	n/a	n/a	13	2	3	8	n/a	n/a	n/a	n/a	n/a
293717	STOP	n/a	LTP284	ltpFR	10	n/a	n/a	n/a	n/a	n/a	n/a	n/a	n/a	n/a	n/a	n/a	n/a	n/a	n/a	n/a
296256	WORD	wordpools/wasnorm_wordpool_less_exclusions.txt	LTP284	ltpFR	10	2	1	SCALLOP	1242	n/a	2	n/a	0	0	0	0	0.5869140625	0.422607421875	lower	../fonts/zerothre.ttf
297478	KEY_MSG	n/a	LTP284	ltpFR	10	2	n/a	n/a	n/a	n/a	n/a	n/a	0	0	0	n/a	n/a	n/a	n/a	n/a
299268	START	n/a	LTP284	ltpFR	10	n/a	n/a	n/a	n/a	n/a	n/a	n/a	n/a	n/a	n/a	n/a	n/a	n/a	n/a	n/a
300202	PROB	n/a	LTP284	ltpFR	10	n/a	n/a	n/a	n/a	n/a	n/a	10	1	2	7	n/a	n/a	n/a	n/a	n/a
303282	PROB	n/a	LTP284	ltpFR	10	n/a	n/a	n/a	n/a	n/a	n/a	17	5	7	5	n/a	n/a	n/a	n/a	n/a
306084	STOP	n/a	LTP284	ltpFR	10	n/a	n/a	n/a	n/a	n/a	n/a	n/a	n/a	n/a	n/a	n/a	n/a	n/a	n/a	n/a
308115	WORD	wordpools/wasnorm_wordpool_less_exclusions.txt	LTP284	ltpFR	10	2	1	MISSILE	900	n/a	0	n/a	0	0	0	0	0.5869140625	0.422607421875	lower	../fonts/zerothre.ttf
311129	START	n/a	LTP284	ltpFR	10	n/a	n/a	n/a	n/a	n/a	n/a	n/a	n/a	n/a	n/a	n/a	n/a	n/a	n/a	n/a
312266	PROB	n/a	LTP284	ltpFR	10	n/a	n/a	n/a	n/a	n/a	n/a	20	6	7	7	n/a	n/a	n/a	n/a	n/a
314576	PROB	n/a	LTP284	ltpFR	10	n/a	n/a	n/a	n/a	n/a	n/a	14	4	1	9	n/a	n/a	n/a	n/a	n/a
316851	PROB	n/a	LTP284	ltpFR	10	n/a	n/a	n/a	n/a	n/a	n/a	14	4	5	5	n/a	n/a	n/a	n/a	n/a
318461	STOP	n/a	LTP284	ltpFR	10	n/a	n/a	n/a	n/a	n/a	n/a	n/a	n/a	n/a	n/a	n/a	n/a	n/a	n/a	n/a
320129	WORD	wordpools/wasnorm_wordpool_less_exclusions.txt	LTP284	ltpFR	10	2	1	PLASTER	1085	n/a	0	n/a	0	0	0	0	0.5869140625	0.422607421875	lower	../fonts/zerothre.ttf
323141	START	n/a	LTP284	ltpFR	10	n/a	n/a	n/a	n/a	n/a	n/a	n/a	n/a	n/a	n/a	n/a	n/a	n/a	n/a	n/a
324077	PROB	n/a	LTP284	ltpFR	10	n/a	n/a	n/a	n/a	n/a	n/a	16	2	8	6	n/a	n/a	n/a	n/a	n/a
326183	PROB	n/a	LTP284	ltpFR	10	n/a	n/a	n/a	n/a	n/a	n/a	13	3	9	1	n/a	n/a	n/a	n/a	n/a
327960	PROB	n/a	LTP284	ltpFR	10	n/a	n/a	n/a	n/a	n/a	n/a	8	1	4	3	n/a	n/a	n/a	n/a	n/a
330741	STOP	n/a	LTP284	ltpFR	10	n/a	n/a	n/a	n/a	n/a	n/a	n/a	n/a	n/a	n/a	n/a	n/a	n/a	n/a	n/a
332039	WORD	wordpools/wasnorm_wordpool_less_exclusions.txt	LTP284	ltpFR	10	2	1	LONDON	843	n/a	0	n/a	0	0	0	0	0.5869140625	0.422607421875	lower	../fonts/zerothre.ttf
335053	START	n/a	LTP284	ltpFR	10	n/a	n/a	n/a	n/a	n/a	n/a	n/a	n/a	n/a	n/a	n/a	n/a	n/a	n/a	n/a
335856	PROB	n/a	LTP284	ltpFR	10	n/a	n/a	n/a	n/a	n/a	n/a	25	9	8	8	n/a	n/a	n/a	n/a	n/a
339251	PROB	n/a	LTP284	ltpFR	10	n/a	n/a	n/a	n/a	n/a	n/a	14	8	2	4	n/a	n/a	n/a	n/a	n/a
343052	STOP	n/a	LTP284	ltpFR	10	n/a	n/a	n/a	n/a	n/a	n/a	n/a	n/a	n/a	n/a	n/a	n/a	n/a	n/a	n/a
344186	WORD	wordpools/wasnorm_wordpool_less_exclusions.txt	LTP284	ltpFR	10	2	1	CHIMNEY	301	n/a	0	n/a	0	0	0	0	0.5869140625	0.422607421875	lower	../fonts/zerothre.ttf
347199	START	n/a	LTP284	ltpFR	10	n/a	n/a	n/a	n/a	n/a	n/a	n/a	n/a	n/a	n/a	n/a	n/a	n/a	n/a	n/a
348218	PROB	n/a	LTP284	ltpFR	10	n/a	n/a	n/a	n/a	n/a	n/a	21	4	8	9	n/a	n/a	n/a	n/a	n/a
350545	PROB	n/a	LTP284	ltpFR	10	n/a	n/a	n/a	n/a	n/a	n/a	14	6	5	3	n/a	n/a	n/a	n/a	n/a
352417	PROB	n/a	LTP284	ltpFR	10	n/a	n/a	n/a	n/a	n/a	n/a	12	3	6	3	n/a	n/a	n/a	n/a	n/a
354244	STOP	n/a	LTP284	ltpFR	10	n/a	n/a	n/a	n/a	n/a	n/a	n/a	n/a	n/a	n/a	n/a	n/a	n/a	n/a	n/a
356401	WORD	wordpools/wasnorm_wordpool_less_exclusions.txt	LTP284	ltpFR	10	2	1	PELICAN	1039	n/a	1	n/a	0	0	0	0	0.5869140625	0.422607421875	lower	../fonts/zerothre.ttf
359412	START	n/a	LTP284	ltpFR	10	n/a	n/a	n/a	n/a	n/a	n/a	n/a	n/a	n/a	n/a	n/a	n/a	n/a	n/a	n/a
360449	PROB	n/a	LTP284	ltpFR	10	n/a	n/a	n/a	n/a	n/a	n/a	24	8	6	8	n/a	n/a	n/a	n/a	n/a
363678	PROB	n/a	LTP284	ltpFR	10	n/a	n/a	n/a	n/a	n/a	n/a	17	8	8	1	n/a	n/a	n/a	n/a	n/a
366268	STOP	n/a	LTP284	ltpFR	10	n/a	n/a	n/a	n/a	n/a	n/a	n/a	n/a	n/a	n/a	n/a	n/a	n/a	n/a	n/a
368462	WORD	wordpools/wasnorm_wordpool_less_exclusions.txt	LTP284	ltpFR	10	2	1	BOUQUET	157	n/a	0	n/a	0	0	0	0	0.5869140625	0.422607421875	lower	../fonts/zerothre.ttf
371474	START	n/a	LTP284	ltpFR	10	n/a	n/a	n/a	n/a	n/a	n/a	n/a	n/a	n/a	n/a	n/a	n/a	n/a	n/a	n/a
372645	PROB	n/a	LTP284	ltpFR	10	n/a	n/a	n/a	n/a	n/a	n/a	19	4	9	6	n/a	n/a	n/a	n/a	n/a
374569	PROB	n/a	LTP284	ltpFR	10	n/a	n/a	n/a	n/a	n/a	n/a	21	9	6	6	n/a	n/a	n/a	n/a	n/a
376557	PROB	n/a	LTP284	ltpFR	10	n/a	n/a	n/a	n/a	n/a	n/a	13	2	7	4	n/a	n/a	n/a	n/a	n/a
378757	STOP	n/a	LTP284	ltpFR	10	n/a	n/a	n/a	n/a	n/a	n/a	n/a	n/a	n/a	n/a	n/a	n/a	n/a	n/a	n/a
380525	WORD	wordpools/wasnorm_wordpool_less_exclusions.txt	LTP284	ltpFR	10	2	1	BRICK	172	n/a	0	n/a	0	0	0	0	0.5869140625	0.422607421875	lower	../fonts/zerothre.ttf
383536	START	n/a	LTP284	ltpFR	10	n/a	n/a	n/a	n/a	n/a	n/a	n/a	n/a	n/a	n/a	n/a	n/a	n/a	n/a	n/a
384673	PROB	n/a	LTP284	ltpFR	10	n/a	n/a	n/a	n/a	n/a	n/a	13	7	5	1	n/a	n/a	n/a	n/a	n/a
387482	PROB	n/a	LTP284	ltpFR	10	n/a	n/a	n/a	n/a	n/a	n/a	12	7	4	1	n/a	n/a	n/a	n/a	n/a
389523	PROB	n/a	LTP284	ltpFR	10	n/a	n/a	n/a	n/a	n/a	n/a	10	6	3	1	n/a	n/a	n/a	n/a	n/a
391084	STOP	n/a	LTP284	ltpFR	10	n/a	n/a	n/a	n/a	n/a	n/a	n/a	n/a	n/a	n/a	n/a	n/a	n/a	n/a	n/a
392553	WORD	wordpools/wasnorm_wordpool_less_exclusions.txt	LTP284	ltpFR	10	2	1	CANVAS	234	n/a	0	n/a	0	0	0	0	0.5869140625	0.422607421875	lower	../fonts/zerothre.ttf
395565	START	n/a	LTP284	ltpFR	10	n/a	n/a	n/a	n/a	n/a	n/a	n/a	n/a	n/a	n/a	n/a	n/a	n/a	n/a	n/a
396652	PROB	n/a	LTP284	ltpFR	10	n/a	n/a	n/a	n/a	n/a	n/a	20	6	5	9	n/a	n/a	n/a	n/a	n/a
399864	PROB	n/a	LTP284	ltpFR	10	n/a	n/a	n/a	n/a	n/a	n/a	11	3	7	1	n/a	n/a	n/a	n/a	n/a
403564	STOP	n/a	LTP284	ltpFR	10	n/a	n/a	n/a	n/a	n/a	n/a	n/a	n/a	n/a	n/a	n/a	n/a	n/a	n/a	n/a
404632	WORD	wordpools/wasnorm_wordpool_less_exclusions.txt	LTP284	ltpFR	10	2	1	BOXER	160	n/a	0	n/a	0	0	0	0	0.5869140625	0.422607421875	lower	../fonts/zerothre.ttf
407644	START	n/a	LTP284	ltpFR	10	n/a	n/a	n/a	n/a	n/a	n/a	n/a	n/a	n/a	n/a	n/a	n/a	n/a	n/a	n/a
408746	PROB	n/a	LTP284	ltpFR	10	n/a	n/a	n/a	n/a	n/a	n/a	12	3	1	8	n/a	n/a	n/a	n/a	n/a
410554	PROB	n/a	LTP284	ltpFR	10	n/a	n/a	n/a	n/a	n/a	n/a	1	1	4	8	n/a	n/a	n/a	n/a	n/a
412577	PROB	n/a	LTP284	ltpFR	10	n/a	n/a	n/a	n/a	n/a	n/a	18	9	8	1	n/a	n/a	n/a	n/a	n/a
415212	STOP	n/a	LTP284	ltpFR	10	n/a	n/a	n/a	n/a	n/a	n/a	n/a	n/a	n/a	n/a	n/a	n/a	n/a	n/a	n/a
416644	WORD	wordpools/wasnorm_wordpool_less_exclusions.txt	LTP284	ltpFR	10	2	1	MAN	862	n/a	1	n/a	0	0	0	0	0.5869140625	0.422607421875	lower	../fonts/zerothre.ttf
419656	START	n/a	LTP284	ltpFR	10	n/a	n/a	n/a	n/a	n/a	n/a	n/a	n/a	n/a	n/a	n/a	n/a	n/a	n/a	n/a
420810	PROB	n/a	LTP284	ltpFR	10	n/a	n/a	n/a	n/a	n/a	n/a	16	3	9	4	n/a	n/a	n/a	n/a	n/a
422884	PROB	n/a	LTP284	ltpFR	10	n/a	n/a	n/a	n/a	n/a	n/a	12	1	7	4	n/a	n/a	n/a	n/a	n/a
424622	PROB	n/a	LTP284	ltpFR	10	n/a	n/a	n/a	n/a	n/a	n/a	11	3	1	7	n/a	n/a	n/a	n/a	n/a
427656	STOP	n/a	LTP284	ltpFR	10	n/a	n/a	n/a	n/a	n/a	n/a	n/a	n/a	n/a	n/a	n/a	n/a	n/a	n/a	n/a
428639	WORD	wordpools/wasnorm_wordpool_less_exclusions.txt	LTP284	ltpFR	10	2	1	OYSTER	995	n/a	1	n/a	0	0	0	0	0.5869140625	0.422607421875	lower	../fonts/zerothre.ttf
431651	START	n/a	LTP284	ltpFR	10	n/a	n/a	n/a	n/a	n/a	n/a	n/a	n/a	n/a	n/a	n/a	n/a	n/a	n/a	n/a
432604	PROB	n/a	LTP284	ltpFR	10	n/a	n/a	n/a	n/a	n/a	n/a	17	2	9	6	n/a	n/a	n/a	n/a	n/a
435127	PROB	n/a	LTP284	ltpFR	10	n/a	n/a	n/a	n/a	n/a	n/a	14	5	5	4	n/a	n/a	n/a	n/a	n/a
436870	PROB	n/a	LTP284	ltpFR	10	n/a	n/a	n/a	n/a	n/a	n/a	13	9	3	1	n/a	n/a	n/a	n/a	n/a
438372	STOP	n/a	LTP284	ltpFR	10	n/a	n/a	n/a	n/a	n/a	n/a	n/a	n/a	n/a	n/a	n/a	n/a	n/a	n/a	n/a
440785	WORD	wordpools/wasnorm_wordpool_less_exclusions.txt	LTP284	ltpFR	10	2	1	JEWEL	757	n/a	0	n/a	0	0	0	0	0.5869140625	0.422607421875	lower	../fonts/zerothre.ttf
443797	START	n/a	LTP284	ltpFR	10	n/a	n/a	n/a	n/a	n/a	n/a	n/a	n/a	n/a	n/a	n/a	n/a	n/a	n/a	n/a
444884	PROB	n/a	LTP284	ltpFR	10	n/a	n/a	n/a	n/a	n/a	n/a	21	5	9	7	n/a	n/a	n/a	n/a	n/a
447809	PROB	n/a	LTP284	ltpFR	10	n/a	n/a	n/a	n/a	n/a	n/a	20	6	5	9	n/a	n/a	n/a	n/a	n/a
451796	STOP	n/a	LTP284	ltpFR	10	n/a	n/a	n/a	n/a	n/a	n/a	n/a	n/a	n/a	n/a	n/a	n/a	n/a	n/a	n/a
452696	WORD	wordpools/wasnorm_wordpool_less_exclusions.txt	LTP284	ltpFR	10	2	1	REFRIGERATOR	1179	n/a	0	n/a	0	0	0	0	0.5869140625	0.422607421875	lower	../fonts/zerothre.ttf
455708	START	n/a	LTP284	ltpFR	10	n/a	n/a	n/a	n/a	n/a	n/a	n/a	n/a	n/a	n/a	n/a	n/a	n/a	n/a	n/a
456712	PROB	n/a	LTP284	ltpFR	10	n/a	n/a	n/a	n/a	n/a	n/a	9	3	1	5	n/a	n/a	n/a	n/a	n/a
458300	PROB	n/a	LTP284	ltpFR	10	n/a	n/a	n/a	n/a	n/a	n/a	13	8	1	4	n/a	n/a	n/a	n/a	n/a
461161	PROB	n/a	LTP284	ltpFR	10	n/a	n/a	n/a	n/a	n/a	n/a	12	6	3	3	n/a	n/a	n/a	n/a	n/a
462685	STOP	n/a	LTP284	ltpFR	10	n/a	n/a	n/a	n/a	n/a	n/a	n/a	n/a	n/a	n/a	n/a	n/a	n/a	n/a	n/a
464606	WORD	wordpools/wasnorm_wordpool_less_exclusions.txt	LTP284	ltpFR	10	2	1	FEAST	556	n/a	0	n/a	0	0	0	0	0.5869140625	0.422607421875	lower	../fonts/zerothre.ttf
467620	START	n/a	LTP284	ltpFR	10	n/a	n/a	n/a	n/a	n/a	n/a	n/a	n/a	n/a	n/a	n/a	n/a	n/a	n/a	n/a
468688	PROB	n/a	LTP284	ltpFR	10	n/a	n/a	n/a	n/a	n/a	n/a	13	4	1	8	n/a	n/a	n/a	n/a	n/a
470664	PROB	n/a	LTP284	ltpFR	10	n/a	n/a	n/a	n/a	n/a	n/a	24	7	8	9	n/a	n/a	n/a	n/a	n/a
472939	PROB	n/a	LTP284	ltpFR	10	n/a	n/a	n/a	n/a	n/a	n/a	6	3	3	1	n/a	n/a	n/a	n/a	n/a
474348	STOP	n/a	LTP284	ltpFR	10	n/a	n/a	n/a	n/a	n/a	n/a	n/a	n/a	n/a	n/a	n/a	n/a	n/a	n/a	n/a
477389	REC_START	n/a	LTP284	ltpFR	10	2	n/a	n/a	n/a	n/a	n/a	n/a	0	0	0	n/a	n/a	n/a	n/a	n/a
478815	REC_WORD	wordpools/wasnorm_wordpool_less_exclusions.txt	LTP284	ltpFR	10	2	1	FEAST	556	n/a	0	n/a	0	0	0	n/a	n/a	n/a	n/a	n/a
480615	REC_WORD	wordpools/wasnorm_wordpool_less_exclusions.txt	LTP284	ltpFR	10	2	1	PELICAN	1039	n/a	1	n/a	0	0	0	n/a	n/a	n/a	n/a	n/a
483771	REC_WORD	wordpools/wasnorm_wordpool_less_exclusions.txt	LTP284	ltpFR	10	2	1	DIPLOMA	470	n/a	0	n/a	0	0	0	n/a	n/a	n/a	n/a	n/a
485724	REC_WORD	wordpools/wasnorm_wordpool_less_exclusions.txt	LTP284	ltpFR	10	2	1	BRICK	172	n/a	0	n/a	0	0	0	n/a	n/a	n/a	n/a	n/a
491815	REC_WORD	wordpools/wasnorm_wordpool_less_exclusions.txt	LTP284	ltpFR	10	2	1	REFRIGERATOR	1179	n/a	0	n/a	0	0	0	n/a	n/a	n/a	n/a	n/a
505129	REC_WORD	wordpools/wasnorm_wordpool_less_exclusions.txt	LTP284	ltpFR	10	2	1	OYSTER	995	n/a	1	n/a	0	0	0	n/a	n/a	n/a	n/a	n/a
583104	START	n/a	LTP284	ltpFR	10	n/a	n/a	n/a	n/a	n/a	n/a	n/a	n/a	n/a	n/a	n/a	n/a	n/a	n/a	n/a
584610	PROB	n/a	LTP284	ltpFR	10	n/a	n/a	n/a	n/a	n/a	n/a	14	8	5	1	n/a	n/a	n/a	n/a	n/a
586568	PROB	n/a	LTP284	ltpFR	10	n/a	n/a	n/a	n/a	n/a	n/a	18	6	5	7	n/a	n/a	n/a	n/a	n/a
588726	PROB	n/a	LTP284	ltpFR	10	n/a	n/a	n/a	n/a	n/a	n/a	16	7	8	1	n/a	n/a	n/a	n/a	n/a
590329	PROB	n/a	LTP284	ltpFR	10	n/a	n/a	n/a	n/a	n/a	n/a	12	6	4	2	n/a	n/a	n/a	n/a	n/a
591754	PROB	n/a	LTP284	ltpFR	10	n/a	n/a	n/a	n/a	n/a	n/a	13	5	4	4	n/a	n/a	n/a	n/a	n/a
594246	PROB	n/a	LTP284	ltpFR	10	n/a	n/a	n/a	n/a	n/a	n/a	12	3	3	7	n/a	n/a	n/a	n/a	n/a
599104	STOP	n/a	LTP284	ltpFR	10	n/a	n/a	n/a	n/a	n/a	n/a	n/a	n/a	n/a	n/a	n/a	n/a	n/a	n/a	n/a
600252	WORD	wordpools/wasnorm_wordpool_less_exclusions.txt	LTP284	ltpFR	10	3	1	TICKET	1464	n/a	0	n/a	0	0	0	0	0.5869140625	0.422607421875	lower	../fonts/zerothre.ttf
603264	START	n/a	LTP284	ltpFR	10	n/a	n/a	n/a	n/a	n/a	n/a	n/a	n/a	n/a	n/a	n/a	n/a	n/a	n/a	n/a
604133	PROB	n/a	LTP284	ltpFR	10	n/a	n/a	n/a	n/a	n/a	n/a	17	7	2	8	n/a	n/a	n/a	n/a	n/a
606961	PROB	n/a	LTP284	ltpFR	10	n/a	n/a	n/a	n/a	n/a	n/a	8	4	1	3	n/a	n/a	n/a	n/a	n/a
608835	PROB	n/a	LTP284	ltpFR	10	n/a	n/a	n/a	n/a	n/a	n/a	14	2	9	3	n/a	n/a	n/a	n/a	n/a
610907	PROB	n/a	LTP284	ltpFR	10	n/a	n/a	n/a	n/a	n/a	n/a	17	9	1	7	n/a	n/a	n/a	n/a	n/a
612616	PROB	n/a	LTP284	ltpFR	10	n/a	n/a	n/a	n/a	n/a	n/a	20	7	4	9	n/a	n/a	n/a	n/a	n/a
615592	PROB	n/a	LTP284	ltpFR	10	n/a	n/a	n/a	n/a	n/a	n/a	10	2	1	7	n/a	n/a	n/a	n/a	n/a
617941	STOP	n/a	LTP284	ltpFR	10	n/a	n/a	n/a	n/a	n/a	n/a	n/a	n/a	n/a	n/a	n/a	n/a	n/a	n/a	n/a
620093	WORD	wordpools/wasnorm_wordpool_less_exclusions.txt	LTP284	ltpFR	10	3	1	TRUCK	1512	n/a	0	n/a	0	0	0	0	0.5869140625	0.422607421875	lower	../fonts/zerothre.ttf
623122	START	n/a	LTP284	ltpFR	10	n/a	n/a	n/a	n/a	n/a	n/a	n/a	n/a	n/a	n/a	n/a	n/a	n/a	n/a	n/a
624242	PROB	n/a	LTP284	ltpFR	10	n/a	n/a	n/a	n/a	n/a	n/a	12	4	4	4	n/a	n/a	n/a	n/a	n/a
625782	PROB	n/a	LTP284	ltpFR	10	n/a	n/a	n/a	n/a	n/a	n/a	10	5	2	3	n/a	n/a	n/a	n/a	n/a
628574	PROB	n/a	LTP284	ltpFR	10	n/a	n/a	n/a	n/a	n/a	n/a	7	3	2	2	n/a	n/a	n/a	n/a	n/a
630833	PROB	n/a	LTP284	ltpFR	10	n/a	n/a	n/a	n/a	n/a	n/a	11	4	1	6	n/a	n/a	n/a	n/a	n/a
632809	PROB	n/a	LTP284	ltpFR	10	n/a	n/a	n/a	n/a	n/a	n/a	17	8	1	8	n/a	n/a	n/a	n/a	n/a
635015	PROB	n/a	LTP284	ltpFR	10	n/a	n/a	n/a	n/a	n/a	n/a	11	4	2	5	n/a	n/a	n/a	n/a	n/a
636521	PROB	n/a	LTP284	ltpFR	10	n/a	n/a	n/a	n/a	n/a	n/a	11	6	4	1	n/a	n/a	n/a	n/a	n/a
637589	STOP	n/a	LTP284	ltpFR	10	n/a	n/a	n/a	n/a	n/a	n/a	n/a	n/a	n/a	n/a	n/a	n/a	n/a	n/a	n/a
640019	WORD	wordpools/wasnorm_wordpool_less_exclusions.txt	LTP284	ltpFR	10	3	1	LIMB	822	n/a	0	n/a	0	0	0	0	0.5869140625	0.422607421875	lower	../fonts/zerothre.ttf
643031	START	n/a	LTP284	ltpFR	10	n/a	n/a	n/a	n/a	n/a	n/a	n/a	n/a	n/a	n/a	n/a	n/a	n/a	n/a	n/a
643917	PROB	n/a	LTP284	ltpFR	10	n/a	n/a	n/a	n/a	n/a	n/a	17	1	8	8	n/a	n/a	n/a	n/a	n/a
645939	PROB	n/a	LTP284	ltpFR	10	n/a	n/a	n/a	n/a	n/a	n/a	10	5	2	3	n/a	n/a	n/a	n/a	n/a
648032	PROB	n/a	LTP284	ltpFR	10	n/a	n/a	n/a	n/a	n/a	n/a	17	6	2	9	n/a	n/a	n/a	n/a	n/a
649739	PROB	n/a	LTP284	ltpFR	10	n/a	n/a	n/a	n/a	n/a	n/a	16	3	6	7	n/a	n/a	n/a	n/a	n/a
652447	PROB	n/a	LTP284	ltpFR	10	n/a	n/a	n/a	n/a	n/a	n/a	18	5	8	5	n/a	n/a	n/a	n/a	n/a
654136	PROB	n/a	LTP284	ltpFR	10	n/a	n/a	n/a	n/a	n/a	n/a	23	4	9	9	n/a	n/a	n/a	n/a	n/a
659031	STOP	n/a	LTP284	ltpFR	10	n/a	n/a	n/a	n/a	n/a	n/a	n/a	n/a	n/a	n/a	n/a	n/a	n/a	n/a	n/a
660094	WORD	wordpools/wasnorm_wordpool_less_exclusions.txt	LTP284	ltpFR	10	3	1	PREACHER	1119	n/a	1	n/a	0	0	0	0	0.5869140625	0.422607421875	lower	../fonts/zerothre.ttf
663106	START	n/a	LTP284	ltpFR	10	n/a	n/a	n/a	n/a	n/a	n/a	n/a	n/a	n/a	n/a	n/a	n/a	n/a	n/a	n/a
664193	PROB	n/a	LTP284	ltpFR	10	n/a	n/a	n/a	n/a	n/a	n/a	15	6	3	3	n/a	n/a	n/a	n/a	n/a
665948	PROB	n/a	LTP284	ltpFR	10	n/a	n/a	n/a	n/a	n/a	n/a	18	9	8	1	n/a	n/a	n/a	n/a	n/a
669781	PROB	n/a	LTP284	ltpFR	10	n/a	n/a	n/a	n/a	n/a	n/a	9	5	2	2	n/a	n/a	n/a	n/a	n/a
672740	PROB	n/a	LTP284	ltpFR	10	n/a	n/a	n/a	n/a	n/a	n/a	9	3	5	1	n/a	n/a	n/a	n/a	n/a
674798	PROB	n/a	LTP284	ltpFR	10	n/a	n/a	n/a	n/a	n/a	n/a	13	4	3	6	n/a	n/a	n/a	n/a	n/a
679100	STOP	n/a	LTP284	ltpFR	10	n/a	n/a	n/a	n/a	n/a	n/a	n/a	n/a	n/a	n/a	n/a	n/a	n/a	n/a	n/a
680067	WORD	wordpools/wasnorm_wordpool_less_exclusions.txt	LTP284	ltpFR	10	3	1	ORANGE	980	n/a	1	n/a	0	0	0	0	0.5869140625	0.422607421875	lower	../fonts/zerothre.ttf
683081	START	n/a	LTP284	ltpFR	10	n/a	n/a	n/a	n/a	n/a	n/a	n/a	n/a	n/a	n/a	n/a	n/a	n/a	n/a	n/a
683968	PROB	n/a	LTP284	ltpFR	10	n/a	n/a	n/a	n/a	n/a	n/a	13	3	5	5	n/a	n/a	n/a	n/a	n/a
685708	PROB	n/a	LTP284	ltpFR	10	n/a	n/a	n/a	n/a	n/a	n/a	25	9	9	7	n/a	n/a	n/a	n/a	n/a
688348	PROB	n/a	LTP284	ltpFR	10	n/a	n/a	n/a	n/a	n/a	n/a	7	2	2	3	n/a	n/a	n/a	n/a	n/a
690909	PROB	n/a	LTP284	ltpFR	10	n/a	n/a	n/a	n/a	n/a	n/a	16	3	9	4	n/a	n/a	n/a	n/a	n/a
692818	PROB	n/a	LTP284	ltpFR	10	n/a	n/a	n/a	n/a	n/a	n/a	20	8	8	4	n/a	n/a	n/a	n/a	n/a
695090	PROB	n/a	LTP284	ltpFR	10	n/a	n/a	n/a	n/a	n/a	n/a	13	3	9	1	n/a	n/a	n/a	n/a	n/a
698789	STOP	n/a	LTP284	ltpFR	10	n/a	n/a	n/a	n/a	n/a	n/a	n/a	n/a	n/a	n/a	n/a	n/a	n/a	n/a	n/a
700228	WORD	wordpools/wasnorm_wordpool_less_exclusions.txt	LTP284	ltpFR	10	3	0	BUGGY	188	n/a	1	n/a	0	0	0	1	0.412841796875	0.57763671875	upper	../fonts/amplitud.ttf
703240	START	n/a	LTP284	ltpFR	10	n/a	n/a	n/a	n/a	n/a	n/a	n/a	n/a	n/a	n/a	n/a	n/a	n/a	n/a	n/a
704445	PROB	n/a	LTP284	ltpFR	10	n/a	n/a	n/a	n/a	n/a	n/a	6	1	2	3	n/a	n/a	n/a	n/a	n/a
706333	PROB	n/a	LTP284	ltpFR	10	n/a	n/a	n/a	n/a	n/a	n/a	18	7	9	2	n/a	n/a	n/a	n/a	n/a
708527	PROB	n/a	LTP284	ltpFR	10	n/a	n/a	n/a	n/a	n/a	n/a	10	6	1	3	n/a	n/a	n/a	n/a	n/a
710884	PROB	n/a	LTP284	ltpFR	10	n/a	n/a	n/a	n/a	n/a	n/a	15	6	2	7	n/a	n/a	n/a	n/a	n/a
713309	PROB	n/a	LTP284	ltpFR	10	n/a	n/a	n/a	n/a	n/a	n/a	17	5	9	3	n/a	n/a	n/a	n/a	n/a
715702	PROB	n/a	LTP284	ltpFR	10	n/a	n/a	n/a	n/a	n/a	n/a	16	7	3	6	n/a	n/a	n/a	n/a	n/a
717157	PROB	n/a	LTP284	ltpFR	10	n/a	n/a	n/a	n/a	n/a	n/a	8	1	1	6	n/a	n/a	n/a	n/a	n/a
718461	STOP	n/a	LTP284	ltpFR	10	n/a	n/a	n/a	n/a	n/a	n/a	n/a	n/a	n/a	n/a	n/a	n/a	n/a	n/a	n/a
720354	WORD	wordpools/wasnorm_wordpool_less_exclusions.txt	LTP284	ltpFR	10	3	0	BUS	201	n/a	1	n/a	0	0	0	1	0.412841796875	0.57763671875	upper	../fonts/amplitud.ttf
723366	START	n/a	LTP284	ltpFR	10	n/a	n/a	n/a	n/a	n/a	n/a	n/a	n/a	n/a	n/a	n/a	n/a	n/a	n/a	n/a
724202	PROB	n/a	LTP284	ltpFR	10	n/a	n/a	n/a	n/a	n/a	n/a	18	7	4	8	n/a	n/a	n/a	n/a	n/a
726811	PROB	n/a	LTP284	ltpFR	10	n/a	n/a	n/a	n/a	n/a	n/a	14	2	3	9	n/a	n/a	n/a	n/a	n/a
729054	PROB	n/a	LTP284	ltpFR	10	n/a	n/a	n/a	n/a	n/a	n/a	19	7	7	5	n/a	n/a	n/a	n/a	n/a
731897	PROB	n/a	LTP284	ltpFR	10	n/a	n/a	n/a	n/a	n/a	n/a	8	2	5	1	n/a	n/a	n/a	n/a	n/a
734022	PROB	n/a	LTP284	ltpFR	10	n/a	n/a	n/a	n/a	n/a	n/a	24	9	6	7	n/a	n/a	n/a	n/a	n/a
739365	STOP	n/a	LTP284	ltpFR	10	n/a	n/a	n/a	n/a	n/a	n/a	n/a	n/a	n/a	n/a	n/a	n/a	n/a	n/a	n/a
740244	WORD	wordpools/wasnorm_wordpool_less_exclusions.txt	LTP284	ltpFR	10	3	1	BILL	126	n/a	0	n/a	0	0	0	0	0.5869140625	0.422607421875	lower	../fonts/zerothre.ttf
743258	START	n/a	LTP284	ltpFR	10	n/a	n/a	n/a	n/a	n/a	n/a	n/a	n/a	n/a	n/a	n/a	n/a	n/a	n/a	n/a
744463	PROB	n/a	LTP284	ltpFR	10	n/a	n/a	n/a	n/a	n/a	n/a	16	7	1	8	n/a	n/a	n/a	n/a	n/a
746183	PROB	n/a	LTP284	ltpFR	10	n/a	n/a	n/a	n/a	n/a	n/a	8	4	1	3	n/a	n/a	n/a	n/a	n/a
748042	PROB	n/a	LTP284	ltpFR	10	n/a	n/a	n/a	n/a	n/a	n/a	12	1	3	8	n/a	n/a	n/a	n/a	n/a
752074	PROB	n/a	LTP284	ltpFR	10	n/a	n/a	n/a	n/a	n/a	n/a	6	3	1	2	n/a	n/a	n/a	n/a	n/a
754718	PROB	n/a	LTP284	ltpFR	10	n/a	n/a	n/a	n/a	n/a	n/a	11	6	2	3	n/a	n/a	n/a	n/a	n/a
756776	PROB	n/a	LTP284	ltpFR	10	n/a	n/a	n/a	n/a	n/a	n/a	13	1	6	6	n/a	n/a	n/a	n/a	n/a
758685	STOP	n/a	LTP284	ltpFR	10	n/a	n/a	n/a	n/a	n/a	n/a	n/a	n/a	n/a	n/a	n/a	n/a	n/a	n/a	n/a
760440	WORD	wordpools/wasnorm_wordpool_less_exclusions.txt	LTP284	ltpFR	10	3	1	JELLO	754	n/a	0	n/a	0	0	0	0	0.5869140625	0.422607421875	lower	../fonts/zerothre.ttf
763452	START	n/a	LTP284	ltpFR	10	n/a	n/a	n/a	n/a	n/a	n/a	n/a	n/a	n/a	n/a	n/a	n/a	n/a	n/a	n/a
764656	PROB	n/a	LTP284	ltpFR	10	n/a	n/a	n/a	n/a	n/a	n/a	19	9	5	5	n/a	n/a	n/a	n/a	n/a
766142	PROB	n/a	LTP284	ltpFR	10	n/a	n/a	n/a	n/a	n/a	n/a	15	4	7	4	n/a	n/a	n/a	n/a	n/a
767782	PROB	n/a	LTP284	ltpFR	10	n/a	n/a	n/a	n/a	n/a	n/a	6	2	1	3	n/a	n/a	n/a	n/a	n/a
769725	PROB	n/a	LTP284	ltpFR	10	n/a	n/a	n/a	n/a	n/a	n/a	24	8	8	6	n/a	n/a	n/a	n/a	n/a
771916	PROB	n/a	LTP284	ltpFR	10	n/a	n/a	n/a	n/a	n/a	n/a	13	9	3	1	n/a	n/a	n/a	n/a	n/a
775413	PROB	n/a	LTP284	ltpFR	10	n/a	n/a	n/a	n/a	n/a	n/a	6	1	3	2	n/a	n/a	n/a	n/a	n/a
777861	STOP	n/a	LTP284	ltpFR	10	n/a	n/a	n/a	n/a	n/a	n/a	n/a	n/a	n/a	n/a	n/a	n/a	n/a	n/a	n/a
780566	WORD	wordpools/wasnorm_wordpool_less_exclusions.txt	LTP284	ltpFR	10	3	1	CHAPEL	280	n/a	0	n/a	0	0	0	0	0.5869140625	0.422607421875	lower	../fonts/zerothre.ttf
783578	START	n/a	LTP284	ltpFR	10	n/a	n/a	n/a	n/a	n/a	n/a	n/a	n/a	n/a	n/a	n/a	n/a	n/a	n/a	n/a
784547	PROB	n/a	LTP284	ltpFR	10	n/a	n/a	n/a	n/a	n/a	n/a	10	6	2	2	n/a	n/a	n/a	n/a	n/a
786488	PROB	n/a	LTP284	ltpFR	10	n/a	n/a	n/a	n/a	n/a	n/a	17	1	9	7	n/a	n/a	n/a	n/a	n/a
788394	PROB	n/a	LTP284	ltpFR	10	n/a	n/a	n/a	n/a	n/a	n/a	11	7	2	2	n/a	n/a	n/a	n/a	n/a
791522	PROB	n/a	LTP284	ltpFR	10	n/a	n/a	n/a	n/a	n/a	n/a	18	3	9	6	n/a	n/a	n/a	n/a	n/a
793631	PROB	n/a	LTP284	ltpFR	10	n/a	n/a	n/a	n/a	n/a	n/a	7	5	1	1	n/a	n/a	n/a	n/a	n/a
795251	PROB	n/a	LTP284	ltpFR	10	n/a	n/a	n/a	n/a	n/a	n/a	18	2	8	8	n/a	n/a	n/a	n/a	n/a
797328	PROB	n/a	LTP284	ltpFR	10	n/a	n/a	n/a	n/a	n/a	n/a	9	2	2	5	n/a	n/a	n/a	n/a	n/a
799148	STOP	n/a	LTP284	ltpFR	10	n/a	n/a	n/a	n/a	n/a	n/a	n/a	n/a	n/a	n/a	n/a	n/a	n/a	n/a	n/a
800491	WORD	wordpools/wasnorm_wordpool_less_exclusions.txt	LTP284	ltpFR	10	3	0	ELECTRICIAN	521	n/a	1	n/a	0	0	0	1	0.412841796875	0.57763671875	upper	../fonts/amplitud.ttf
803503	START	n/a	LTP284	ltpFR	10	n/a	n/a	n/a	n/a	n/a	n/a	n/a	n/a	n/a	n/a	n/a	n/a	n/a	n/a	n/a
804388	PROB	n/a	LTP284	ltpFR	10	n/a	n/a	n/a	n/a	n/a	n/a	15	9	4	2	n/a	n/a	n/a	n/a	n/a
806243	PROB	n/a	LTP284	ltpFR	10	n/a	n/a	n/a	n/a	n/a	n/a	9	1	5	3	n/a	n/a	n/a	n/a	n/a
808183	PROB	n/a	LTP284	ltpFR	10	n/a	n/a	n/a	n/a	n/a	n/a	16	8	1	7	n/a	n/a	n/a	n/a	n/a
809976	PROB	n/a	LTP284	ltpFR	10	n/a	n/a	n/a	n/a	n/a	n/a	15	5	1	9	n/a	n/a	n/a	n/a	n/a
811867	PROB	n/a	LTP284	ltpFR	10	n/a	n/a	n/a	n/a	n/a	n/a	22	6	9	7	n/a	n/a	n/a	n/a	n/a
815279	PROB	n/a	LTP284	ltpFR	10	n/a	n/a	n/a	n/a	n/a	n/a	16	1	9	6	n/a	n/a	n/a	n/a	n/a
819503	STOP	n/a	LTP284	ltpFR	10	n/a	n/a	n/a	n/a	n/a	n/a	n/a	n/a	n/a	n/a	n/a	n/a	n/a	n/a	n/a
820698	WORD	wordpools/wasnorm_wordpool_less_exclusions.txt	LTP284	ltpFR	10	3	0	BROOK	177	n/a	1	n/a	0	0	0	1	0.412841796875	0.57763671875	upper	../fonts/amplitud.ttf
823712	START	n/a	LTP284	ltpFR	10	n/a	n/a	n/a	n/a	n/a	n/a	n/a	n/a	n/a	n/a	n/a	n/a	n/a	n/a	n/a
824916	PROB	n/a	LTP284	ltpFR	10	n/a	n/a	n/a	n/a	n/a	n/a	22	4	9	9	n/a	n/a	n/a	n/a	n/a
828159	PROB	n/a	LTP284	ltpFR	10	n/a	n/a	n/a	n/a	n/a	n/a	17	7	4	6	n/a	n/a	n/a	n/a	n/a
831103	PROB	n/a	LTP284	ltpFR	10	n/a	n/a	n/a	n/a	n/a	n/a	19	9	5	5	n/a	n/a	n/a	n/a	n/a
832545	PROB	n/a	LTP284	ltpFR	10	n/a	n/a	n/a	n/a	n/a	n/a	18	3	6	9	n/a	n/a	n/a	n/a	n/a
834686	PROB	n/a	LTP284	ltpFR	10	n/a	n/a	n/a	n/a	n/a	n/a	25	9	9	7	n/a	n/a	n/a	n/a	n/a
839711	STOP	n/a	LTP284	ltpFR	10	n/a	n/a	n/a	n/a	n/a	n/a	n/a	n/a	n/a	n/a	n/a	n/a	n/a	n/a	n/a
840709	WORD	wordpools/wasnorm_wordpool_less_exclusions.txt	LTP284	ltpFR	10	3	0	SUBMARINE	1398	n/a	1	n/a	0	0	0	1	0.412841796875	0.57763671875	upper	../fonts/amplitud.ttf
843721	START	n/a	LTP284	ltpFR	10	n/a	n/a	n/a	n/a	n/a	n/a	n/a	n/a	n/a	n/a	n/a	n/a	n/a	n/a	n/a
844724	PROB	n/a	LTP284	ltpFR	10	n/a	n/a	n/a	n/a	n/a	n/a	18	9	8	1	n/a	n/a	n/a	n/a	n/a
846798	PROB	n/a	LTP284	ltpFR	10	n/a	n/a	n/a	n/a	n/a	n/a	22	9	7	6	n/a	n/a	n/a	n/a	n/a
850311	PROB	n/a	LTP284	ltpFR	10	n/a	n/a	n/a	n/a	n/a	n/a	13	6	3	4	n/a	n/a	n/a	n/a	n/a
852350	PROB	n/a	LTP284	ltpFR	10	n/a	n/a	n/a	n/a	n/a	n/a	21	8	5	8	n/a	n/a	n/a	n/a	n/a
854544	PROB	n/a	LTP284	ltpFR	10	n/a	n/a	n/a	n/a	n/a	n/a	19	9	9	1	n/a	n/a	n/a	n/a	n/a
856502	PROB	n/a	LTP284	ltpFR	10	n/a	n/a	n/a	n/a	n/a	n/a	9	4	1	4	n/a	n/a	n/a	n/a	n/a
858332	STOP	n/a	LTP284	ltpFR	10	n/a	n/a	n/a	n/a	n/a	n/a	n/a	n/a	n/a	n/a	n/a	n/a	n/a	n/a	n/a
860617	WORD	wordpools/wasnorm_wordpool_less_exclusions.txt	LTP284	ltpFR	10	3	0	ROOT	1210	n/a	0	n/a	0	0	0	1	0.412841796875	0.57763671875	upper	../fonts/amplitud.ttf
863629	START	n/a	LTP284	ltpFR	10	n/a	n/a	n/a	n/a	n/a	n/a	n/a	n/a	n/a	n/a	n/a	n/a	n/a	n/a	n/a
864747	PROB	n/a	LTP284	ltpFR	10	n/a	n/a	n/a	n/a	n/a	n/a	15	1	8	6	n/a	n/a	n/a	n/a	n/a
866571	PROB	n/a	LTP284	ltpFR	10	n/a	n/a	n/a	n/a	n/a	n/a	6	1	2	3	n/a	n/a	n/a	n/a	n/a
869450	PROB	n/a	LTP284	ltpFR	10	n/a	n/a	n/a	n/a	n/a	n/a	16	5	2	9	n/a	n/a	n/a	n/a	n/a
872358	PROB	n/a	LTP284	ltpFR	10	n/a	n/a	n/a	n/a	n/a	n/a	17	6	6	5	n/a	n/a	n/a	n/a	n/a
878461	STOP	n/a	LTP284	ltpFR	10	n/a	n/a	n/a	n/a	n/a	n/a	n/a	n/a	n/a	n/a	n/a	n/a	n/a	n/a	n/a
880760	WORD	wordpools/wasnorm_wordpool_less_exclusions.txt	LTP284	ltpFR	10	3	0	PERSON	1052	n/a	1	n/a	0	0	0	1	0.412841796875	0.57763671875	upper	../fonts/amplitud.ttf
883772	START	n/a	LTP284	ltpFR	10	n/a	n/a	n/a	n/a	n/a	n/a	n/a	n/a	n/a	n/a	n/a	n/a	n/a	n/a	n/a
884909	PROB	n/a	LTP284	ltpFR	10	n/a	n/a	n/a	n/a	n/a	n/a	19	3	9	7	n/a	n/a	n/a	n/a	n/a
889105	PROB	n/a	LTP284	ltpFR	10	n/a	n/a	n/a	n/a	n/a	n/a	15	1	5	9	n/a	n/a	n/a	n/a	n/a
890530	PROB	n/a	LTP284	ltpFR	10	n/a	n/a	n/a	n/a	n/a	n/a	18	7	4	7	n/a	n/a	n/a	n/a	n/a
892655	PROB	n/a	LTP284	ltpFR	10	n/a	n/a	n/a	n/a	n/a	n/a	15	1	5	9	n/a	n/a	n/a	n/a	n/a
894209	PROB	n/a	LTP284	ltpFR	10	n/a	n/a	n/a	n/a	n/a	n/a	16	9	2	5	n/a	n/a	n/a	n/a	n/a
896636	PROB	n/a	LTP284	ltpFR	10	n/a	n/a	n/a	n/a	n/a	n/a	18	7	8	3	n/a	n/a	n/a	n/a	n/a
898725	STOP	n/a	LTP284	ltpFR	10	n/a	n/a	n/a	n/a	n/a	n/a	n/a	n/a	n/a	n/a	n/a	n/a	n/a	n/a	n/a
900752	WORD	wordpools/wasnorm_wordpool_less_exclusions.txt	LTP284	ltpFR	10	3	0	SQUID	1361	n/a	1	n/a	0	0	0	1	0.412841796875	0.57763671875	upper	../fonts/amplitud.ttf
903764	START	n/a	LTP284	ltpFR	10	n/a	n/a	n/a	n/a	n/a	n/a	n/a	n/a	n/a	n/a	n/a	n/a	n/a	n/a	n/a
904882	PROB	n/a	LTP284	ltpFR	10	n/a	n/a	n/a	n/a	n/a	n/a	16	7	8	1	n/a	n/a	n/a	n/a	n/a
906387	PROB	n/a	LTP284	ltpFR	10	n/a	n/a	n/a	n/a	n/a	n/a	14	2	5	7	n/a	n/a	n/a	n/a	n/a
908445	PROB	n/a	LTP284	ltpFR	10	n/a	n/a	n/a	n/a	n/a	n/a	20	4	9	7	n/a	n/a	n/a	n/a	n/a
910838	PROB	n/a	LTP284	ltpFR	10	n/a	n/a	n/a	n/a	n/a	n/a	17	7	2	8	n/a	n/a	n/a	n/a	n/a
913397	PROB	n/a	LTP284	ltpFR	10	n/a	n/a	n/a	n/a	n/a	n/a	15	3	2	8	n/a	n/a	n/a	n/a	n/a
916224	PROB	n/a	LTP284	ltpFR	10	n/a	n/a	n/a	n/a	n/a	n/a	12	1	8	3	n/a	n/a	n/a	n/a	n/a
918388	STOP	n/a	LTP284	ltpFR	10	n/a	n/a	n/a	n/a	n/a	n/a	n/a	n/a	n/a	n/a	n/a	n/a	n/a	n/a	n/a
921681	REC_START	n/a	LTP284	ltpFR	10	3	n/a	n/a	n/a	n/a	n/a	n/a	0	0	0	n/a	n/a	n/a	n/a	n/a
922956	REC_WORD	wordpools/wasnorm_wordpool_less_exclusions.txt	LTP284	ltpFR	10	3	0	PERSON	1052	n/a	1	n/a	0	0	0	n/a	n/a	n/a	n/a	n/a
924853	REC_WORD	wordpools/wasnorm_wordpool_less_exclusions.txt	LTP284	ltpFR	10	3	0	SUBMARINE	1398	n/a	1	n/a	0	0	0	n/a	n/a	n/a	n/a	n/a
926543	REC_WORD	wordpools/wasnorm_wordpool_less_exclusions.txt	LTP284	ltpFR	10	3	0	BUGGY	188	n/a	1	n/a	0	0	0	n/a	n/a	n/a	n/a	n/a
933363	REC_WORD	wordpools/wasnorm_wordpool_less_exclusions.txt	LTP284	ltpFR	10	3	0	ROOT	1210	n/a	0	n/a	0	0	0	n/a	n/a	n/a	n/a	n/a
934586	REC_WORD	wordpools/wasnorm_wordpool_less_exclusions.txt	LTP284	ltpFR	10	3	0	SQUID	1361	n/a	1	n/a	0	0	0	n/a	n/a	n/a	n/a	n/a
939513	REC_WORD	wordpools/wasnorm_wordpool_less_exclusions.txt	LTP284	ltpFR	10	3	1	PREACHER	1119	n/a	1	n/a	0	0	0	n/a	n/a	n/a	n/a	n/a
946195	REC_WORD	wordpools/wasnorm_wordpool_less_exclusions.txt	LTP284	ltpFR	10	3	1	ORANGE	980	n/a	1	n/a	0	0	0	n/a	n/a	n/a	n/a	n/a
1031176	WORD	wordpools/wasnorm_wordpool_less_exclusions.txt	LTP284	ltpFR	10	4	0	TOOL	1480	n/a	0	n/a	0	0	0	1	0.412841796875	0.57763671875	upper	../fonts/amplitud.ttf
1035174	WORD	wordpools/wasnorm_wordpool_less_exclusions.txt	LTP284	ltpFR	10	4	0	WASHER	1592	n/a	0	n/a	0	0	0	1	0.412841796875	0.57763671875	upper	../fonts/amplitud.ttf
1039023	WORD	wordpools/wasnorm_wordpool_less_exclusions.txt	LTP284	ltpFR	10	4	0	FIELD	562	n/a	1	n/a	0	0	0	1	0.412841796875	0.57763671875	upper	../fonts/amplitud.ttf
1043204	WORD	wordpools/wasnorm_wordpool_less_exclusions.txt	LTP284	ltpFR	10	4	0	BAIT	70	n/a	0	n/a	0	0	0	1	0.412841796875	0.57763671875	upper	../fonts/amplitud.ttf
1047303	WORD	wordpools/wasnorm_wordpool_less_exclusions.txt	LTP284	ltpFR	10	4	0	MACHINE	852	n/a	1	n/a	0	0	0	1	0.412841796875	0.57763671875	upper	../fonts/amplitud.ttf
1051302	WORD	wordpools/wasnorm_wordpool_less_exclusions.txt	LTP284	ltpFR	10	4	0	CRAYON	401	n/a	0	n/a	0	0	0	1	0.412841796875	0.57763671875	upper	../fonts/amplitud.ttf
1055367	WORD	wordpools/wasnorm_wordpool_less_exclusions.txt	LTP284	ltpFR	10	4	0	MOON	914	n/a	1	n/a	0	0	0	1	0.412841796875	0.57763671875	upper	../fonts/amplitud.ttf
1059248	WORD	wordpools/wasnorm_wordpool_less_exclusions.txt	LTP284	ltpFR	10	4	0	CARPENTER	246	n/a	1	n/a	0	0	0	1	0.412841796875	0.57763671875	upper	../fonts/amplitud.ttf
1063380	WORD	wordpools/wasnorm_wordpool_less_exclusions.txt	LTP284	ltpFR	10	4	0	PORCH	1106	n/a	1	n/a	0	0	0	1	0.412841796875	0.57763671875	upper	../fonts/amplitud.ttf
1067497	WORD	wordpools/wasnorm_wordpool_less_exclusions.txt	LTP284	ltpFR	10	4	0	FLOWER	584	n/a	0	n/a	0	0	0	1	0.412841796875	0.57763671875	upper	../fonts/amplitud.ttf
1071610	WORD	wordpools/wasnorm_wordpool_less_exclusions.txt	LTP284	ltpFR	10	4	0	ORCHID	982	n/a	0	n/a	0	0	0	1	0.412841796875	0.57763671875	upper	../fonts/amplitud.ttf
1075828	WORD	wordpools/wasnorm_wordpool_less_exclusions.txt	LTP284	ltpFR	10	4	0	FOOTBALL	591	n/a	0	n/a	0	0	0	1	0.412841796875	0.57763671875	upper	../fonts/amplitud.ttf
1079777	WORD	wordpools/wasnorm_wordpool_less_exclusions.txt	LTP284	ltpFR	10	4	0	KITCHEN	778	n/a	1	n/a	0	0	0	1	0.412841796875	0.57763671875	upper	../fonts/amplitud.ttf
1083792	WORD	wordpools/wasnorm_wordpool_less_exclusions.txt	LTP284	ltpFR	10	4	0	PLATE	1086	n/a	1	n/a	0	0	0	1	0.412841796875	0.57763671875	upper	../fonts/amplitud.ttf
1087623	WORD	wordpools/wasnorm_wordpool_less_exclusions.txt	LTP284	ltpFR	10	4	0	CLOTHES	327	n/a	0	n/a	0	0	0	1	0.412841796875	0.57763671875	upper	../fonts/amplitud.ttf
1091822	WORD	wordpools/wasnorm_wordpool_less_exclusions.txt	LTP284	ltpFR	10	4	0	INVENTOR	743	n/a	1	n/a	0	0	0	1	0.412841796875	0.57763671875	upper	../fonts/amplitud.ttf
1094834	START	n/a	LTP284	ltpFR	10	n/a	n/a	n/a	n/a	n/a	n/a	n/a	n/a	n/a	n/a	n/a	n/a	n/a	n/a	n/a
1095919	PROB	n/a	LTP284	ltpFR	10	n/a	n/a	n/a	n/a	n/a	n/a	18	6	6	6	n/a	n/a	n/a	n/a	n/a
1097711	PROB	n/a	LTP284	ltpFR	10	n/a	n/a	n/a	n/a	n/a	n/a	11	4	5	2	n/a	n/a	n/a	n/a	n/a
1100152	PROB	n/a	LTP284	ltpFR	10	n/a	n/a	n/a	n/a	n/a	n/a	13	2	9	2	n/a	n/a	n/a	n/a	n/a
1102188	STOP	n/a	LTP284	ltpFR	10	n/a	n/a	n/a	n/a	n/a	n/a	n/a	n/a	n/a	n/a	n/a	n/a	n/a	n/a	n/a
1104772	REC_START	n/a	LTP284	ltpFR	10	4	n/a	n/a	n/a	n/a	n/a	n/a	0	0	0	n/a	n/a	n/a	n/a	n/a
1107916	REC_WORD	wordpools/wasnorm_wordpool_less_exclusions.txt	LTP284	ltpFR	10	4	0	TOOL	1480	n/a	0	n/a	0	0	0	n/a	n/a	n/a	n/a	n/a
1110135	REC_WORD	wordpools/wasnorm_wordpool_less_exclusions.txt	LTP284	ltpFR	10	4	0	MACHINE	852	n/a	1	n/a	0	0	0	n/a	n/a	n/a	n/a	n/a
1111955	REC_WORD	wordpools/wasnorm_wordpool_less_exclusions.txt	LTP284	ltpFR	10	4	0	WASHER	1592	n/a	0	n/a	0	0	0	n/a	n/a	n/a	n/a	n/a
1113713	REC_WORD	wordpools/wasnorm_wordpool_less_exclusions.txt	LTP284	ltpFR	10	4	0	FIELD	562	n/a	1	n/a	0	0	0	n/a	n/a	n/a	n/a	n/a
1115946	REC_WORD	wordpools/wasnorm_wordpool_less_exclusions.txt	LTP284	ltpFR	10	4	0	BAIT	70	n/a	0	n/a	0	0	0	n/a	n/a	n/a	n/a	n/a
1117549	REC_WORD	wordpools/wasnorm_wordpool_less_exclusions.txt	LTP284	ltpFR	10	4	0	CRAYON	401	n/a	0	n/a	0	0	0	n/a	n/a	n/a	n/a	n/a
1119192	REC_WORD	wordpools/wasnorm_wordpool_less_exclusions.txt	LTP284	ltpFR	10	4	0	MOON	914	n/a	1	n/a	0	0	0	n/a	n/a	n/a	n/a	n/a
1120909	REC_WORD	wordpools/wasnorm_wordpool_less_exclusions.txt	LTP284	ltpFR	10	4	0	CARPENTER	246	n/a	1	n/a	0	0	0	n/a	n/a	n/a	n/a	n/a
1123351	REC_WORD	wordpools/wasnorm_wordpool_less_exclusions.txt	LTP284	ltpFR	10	4	0	FOOTBALL	591	n/a	0	n/a	0	0	0	n/a	n/a	n/a	n/a	n/a
1124912	REC_WORD	wordpools/wasnorm_wordpool_less_exclusions.txt	LTP284	ltpFR	10	4	0	FLOWER	584	n/a	0	n/a	0	0	0	n/a	n/a	n/a	n/a	n/a
1126738	REC_WORD	wordpools/wasnorm_wordpool_less_exclusions.txt	LTP284	ltpFR	10	4	0	ORCHID	982	n/a	0	n/a	0	0	0	n/a	n/a	n/a	n/a	n/a
1127752	REC_WORD_VV	wordpools/wasnorm_wordpool_less_exclusions.txt	LTP284	ltpFR	10	4	n/a	<>	-1	n/a	n/a	n/a	0	0	0	n/a	n/a	n/a	n/a	n/a
1128913	REC_WORD	wordpools/wasnorm_wordpool_less_exclusions.txt	LTP284	ltpFR	10	4	0	KITCHEN	778	n/a	1	n/a	0	0	0	n/a	n/a	n/a	n/a	n/a
1131054	REC_WORD	wordpools/wasnorm_wordpool_less_exclusions.txt	LTP284	ltpFR	10	4	0	INVENTOR	743	n/a	1	n/a	0	0	0	n/a	n/a	n/a	n/a	n/a
1188001	WORD	wordpools/wasnorm_wordpool_less_exclusions.txt	LTP284	ltpFR	10	5	1	FELLOW	558	n/a	1	n/a	0	0	0	0	0.5869140625	0.422607421875	lower	../fonts/zerothre.ttf
1192216	WORD	wordpools/wasnorm_wordpool_less_exclusions.txt	LTP284	ltpFR	10	5	1	ATTIRE	57	n/a	0	n/a	0	0	0	0	0.5869140625	0.422607421875	lower	../fonts/zerothre.ttf
1196281	WORD	wordpools/wasnorm_wordpool_less_exclusions.txt	LTP284	ltpFR	10	5	1	CROW	414	n/a	0	n/a	0	0	0	0	0.5869140625	0.422607421875	lower	../fonts/zerothre.ttf
1200196	WORD	wordpools/wasnorm_wordpool_less_exclusions.txt	LTP284	ltpFR	10	5	1	SEAGULL	1261	n/a	1	n/a	0	0	0	0	0.5869140625	0.422607421875	lower	../fonts/zerothre.ttf
1204345	WORD	wordpools/wasnorm_wordpool_less_exclusions.txt	LTP284	ltpFR	10	5	1	HERO	706	n/a	1	n/a	0	0	0	0	0.5869140625	0.422607421875	lower	../fonts/zerothre.ttf
1208377	WORD	wordpools/wasnorm_wordpool_less_exclusions.txt	LTP284	ltpFR	10	5	1	MONARCH	906	n/a	1	n/a	0	0	0	0	0.5869140625	0.422607421875	lower	../fonts/zerothre.ttf
1212392	WORD	wordpools/wasnorm_wordpool_less_exclusions.txt	LTP284	ltpFR	10	5	1	CUFF	423	n/a	1	n/a	0	0	0	0	0.5869140625	0.422607421875	lower	../fonts/zerothre.ttf
1216523	WORD	wordpools/wasnorm_wordpool_less_exclusions.txt	LTP284	ltpFR	10	5	1	NIGHTGOWN	953	n/a	0	n/a	0	0	0	0	0.5869140625	0.422607421875	lower	../fonts/zerothre.ttf
1220708	WORD	wordpools/wasnorm_wordpool_less_exclusions.txt	LTP284	ltpFR	10	5	1	VAN	1548	n/a	0	n/a	0	0	0	0	0.5869140625	0.422607421875	lower	../fonts/zerothre.ttf
1224907	WORD	wordpools/wasnorm_wordpool_less_exclusions.txt	LTP284	ltpFR	10	5	1	RUBY	1214	n/a	0	n/a	0	0	0	0	0.5869140625	0.422607421875	lower	../fonts/zerothre.ttf
1229055	WORD	wordpools/wasnorm_wordpool_less_exclusions.txt	LTP284	ltpFR	10	5	1	CHERRY	293	n/a	1	n/a	0	0	0	0	0.5869140625	0.422607421875	lower	../fonts/zerothre.ttf
1232987	WORD	wordpools/wasnorm_wordpool_less_exclusions.txt	LTP284	ltpFR	10	5	1	GREASE	660	n/a	0	n/a	0	0	0	0	0.5869140625	0.422607421875	lower	../fonts/zerothre.ttf
1236852	WORD	wordpools/wasnorm_wordpool_less_exclusions.txt	LTP284	ltpFR	10	5	1	BONE	148	n/a	0	n/a	0	0	0	0	0.5869140625	0.422607421875	lower	../fonts/zerothre.ttf
1240800	WORD	wordpools/wasnorm_wordpool_less_exclusions.txt	LTP284	ltpFR	10	5	1	BACKBONE	66	n/a	0	n/a	0	0	0	0	0.5869140625	0.422607421875	lower	../fonts/zerothre.ttf
1244947	WORD	wordpools/wasnorm_wordpool_less_exclusions.txt	LTP284	ltpFR	10	5	1	SAPPHIRE	1234	n/a	0	n/a	0	0	0	0	0.5869140625	0.422607421875	lower	../fonts/zerothre.ttf
1249147	WORD	wordpools/wasnorm_wordpool_less_exclusions.txt	LTP284	ltpFR	10	5	1	COMMANDER	354	n/a	1	n/a	0	0	0	0	0.5869140625	0.422607421875	lower	../fonts/zerothre.ttf
1252159	START	n/a	LTP284	ltpFR	10	n/a	n/a	n/a	n/a	n/a	n/a	n/a	n/a	n/a	n/a	n/a	n/a	n/a	n/a	n/a
1253363	PROB	n/a	LTP284	ltpFR	10	n/a	n/a	n/a	n/a	n/a	n/a	14	1	8	5	n/a	n/a	n/a	n/a	n/a
1256794	PROB	n/a	LTP284	ltpFR	10	n/a	n/a	n/a	n/a	n/a	n/a	17	7	2	8	n/a	n/a	n/a	n/a	n/a
1258751	PROB	n/a	LTP284	ltpFR	10	n/a	n/a	n/a	n/a	n/a	n/a	18	5	4	9	n/a	n/a	n/a	n/a	n/a
1260239	PROB	n/a	LTP284	ltpFR	10	n/a	n/a	n/a	n/a	n/a	n/a	10	2	2	6	n/a	n/a	n/a	n/a	n/a
1268159	STOP	n/a	LTP284	ltpFR	10	n/a	n/a	n/a	n/a	n/a	n/a	n/a	n/a	n/a	n/a	n/a	n/a	n/a	n/a	n/a
1269944	REC_START	n/a	LTP284	ltpFR	10	5	n/a	n/a	n/a	n/a	n/a	n/a	0	0	0	n/a	n/a	n/a	n/a	n/a
1272372	REC_WORD	wordpools/wasnorm_wordpool_less_exclusions.txt	LTP284	ltpFR	10	5	1	RUBY	1214	n/a	0	n/a	0	0	0	n/a	n/a	n/a	n/a	n/a
1273883	REC_WORD	wordpools/wasnorm_wordpool_less_exclusions.txt	LTP284	ltpFR	10	5	1	SAPPHIRE	1234	n/a	0	n/a	0	0	0	n/a	n/a	n/a	n/a	n/a
1275913	REC_WORD	wordpools/wasnorm_wordpool_less_exclusions.txt	LTP284	ltpFR	10	5	1	NIGHTGOWN	953	n/a	0	n/a	0	0	0	n/a	n/a	n/a	n/a	n/a
1278004	REC_WORD	wordpools/wasnorm_wordpool_less_exclusions.txt	LTP284	ltpFR	10	5	1	GREASE	660	n/a	0	n/a	0	0	0	n/a	n/a	n/a	n/a	n/a
1279651	REC_WORD	wordpools/wasnorm_wordpool_less_exclusions.txt	LTP284	ltpFR	10	5	1	CHERRY	293	n/a	1	n/a	0	0	0	n/a	n/a	n/a	n/a	n/a
1282117	REC_WORD_VV	wordpools/wasnorm_wordpool_less_exclusions.txt	LTP284	ltpFR	10	5	n/a	<>	-1	n/a	n/a	n/a	0	0	0	n/a	n/a	n/a	n/a	n/a
1287040	REC_WORD	wordpools/wasnorm_wordpool_less_exclusions.txt	LTP284	ltpFR	10	5	n/a	MASCULINE	-1	n/a	n/a	n/a	0	0	0	n/a	n/a	n/a	n/a	n/a
1288957	REC_WORD	wordpools/wasnorm_wordpool_less_exclusions.txt	LTP284	ltpFR	10	5	1	CUFF	423	n/a	1	n/a	0	0	0	n/a	n/a	n/a	n/a	n/a
1290843	REC_WORD	wordpools/wasnorm_wordpool_less_exclusions.txt	LTP284	ltpFR	10	5	1	MONARCH	906	n/a	1	n/a	0	0	0	n/a	n/a	n/a	n/a	n/a
1369552	WORD	wordpools/wasnorm_wordpool_less_exclusions.txt	LTP284	ltpFR	10	6	0	BRIDGE	174	n/a	1	n/a	0	0	0	1	0.412841796875	0.57763671875	upper	../fonts/amplitud.ttf
1373667	WORD	wordpools/wasnorm_wordpool_less_exclusions.txt	LTP284	ltpFR	10	6	0	DUNGEON	507	n/a	1	n/a	0	0	0	1	0.412841796875	0.57763671875	upper	../fonts/amplitud.ttf
1377716	WORD	wordpools/wasnorm_wordpool_less_exclusions.txt	LTP284	ltpFR	10	6	0	LAWN	805	n/a	1	n/a	0	0	0	1	0.412841796875	0.57763671875	upper	../fonts/amplitud.ttf
1381681	WORD	wordpools/wasnorm_wordpool_less_exclusions.txt	LTP284	ltpFR	10	6	0	CUSHION	428	n/a	0	n/a	0	0	0	1	0.412841796875	0.57763671875	upper	../fonts/amplitud.ttf
1385880	WORD	wordpools/wasnorm_wordpool_less_exclusions.txt	LTP284	ltpFR	10	6	0	MARROW	872	n/a	0	n/a	0	0	0	1	0.412841796875	0.57763671875	upper	../fonts/amplitud.ttf
1390095	WORD	wordpools/wasnorm_wordpool_less_exclusions.txt	LTP284	ltpFR	10	6	0	BARK	87	n/a	0	n/a	0	0	0	1	0.412841796875	0.57763671875	upper	../fonts/amplitud.ttf
1394060	WORD	wordpools/wasnorm_wordpool_less_exclusions.txt	LTP284	ltpFR	10	6	0	ANIMAL	23	n/a	1	n/a	0	0	0	1	0.412841796875	0.57763671875	upper	../fonts/amplitud.ttf
1397942	WORD	wordpools/wasnorm_wordpool_less_exclusions.txt	LTP284	ltpFR	10	6	0	GRASS	655	n/a	0	n/a	0	0	0	1	0.412841796875	0.57763671875	upper	../fonts/amplitud.ttf
1402157	WORD	wordpools/wasnorm_wordpool_less_exclusions.txt	LTP284	ltpFR	10	6	0	BACK	65	n/a	0	n/a	0	0	0	1	0.412841796875	0.57763671875	upper	../fonts/amplitud.ttf
1406156	WORD	wordpools/wasnorm_wordpool_less_exclusions.txt	LTP284	ltpFR	10	6	0	DICTATOR	462	n/a	1	n/a	0	0	0	1	0.412841796875	0.57763671875	upper	../fonts/amplitud.ttf
1410254	WORD	wordpools/wasnorm_wordpool_less_exclusions.txt	LTP284	ltpFR	10	6	0	LITERATURE	831	n/a	1	n/a	0	0	0	1	0.412841796875	0.57763671875	upper	../fonts/amplitud.ttf
1414387	WORD	wordpools/wasnorm_wordpool_less_exclusions.txt	LTP284	ltpFR	10	6	0	BINDER	127	n/a	1	n/a	0	0	0	1	0.412841796875	0.57763671875	upper	../fonts/amplitud.ttf
1418587	WORD	wordpools/wasnorm_wordpool_less_exclusions.txt	LTP284	ltpFR	10	6	0	BLUEBERRY	140	n/a	0	n/a	0	0	0	1	0.412841796875	0.57763671875	upper	../fonts/amplitud.ttf
1422468	WORD	wordpools/wasnorm_wordpool_less_exclusions.txt	LTP284	ltpFR	10	6	0	CRUMB	416	n/a	0	n/a	0	0	0	1	0.412841796875	0.57763671875	upper	../fonts/amplitud.ttf
1426315	WORD	wordpools/wasnorm_wordpool_less_exclusions.txt	LTP284	ltpFR	10	6	0	CAPTAIN	239	n/a	0	n/a	0	0	0	1	0.412841796875	0.57763671875	upper	../fonts/amplitud.ttf
1430280	WORD	wordpools/wasnorm_wordpool_less_exclusions.txt	LTP284	ltpFR	10	6	0	IDOL	733	n/a	1	n/a	0	0	0	1	0.412841796875	0.57763671875	upper	../fonts/amplitud.ttf
1436254	REC_START	n/a	LTP284	ltpFR	10	6	n/a	n/a	n/a	n/a	n/a	n/a	0	0	0	n/a	n/a	n/a	n/a	n/a
1438284	REC_WORD	wordpools/wasnorm_wordpool_less_exclusions.txt	LTP284	ltpFR	10	6	0	IDOL	733	n/a	1	n/a	0	0	0	n/a	n/a	n/a	n/a	n/a
1439653	REC_WORD	wordpools/wasnorm_wordpool_less_exclusions.txt	LTP284	ltpFR	10	6	0	CAPTAIN	239	n/a	0	n/a	0	0	0	n/a	n/a	n/a	n/a	n/a
1441960	REC_WORD_VV	wordpools/wasnorm_wordpool_less_exclusions.txt	LTP284	ltpFR	10	6	n/a	<>	-1	n/a	n/a	n/a	0	0	0	n/a	n/a	n/a	n/a	n/a
1442960	REC_WORD_VV	wordpools/wasnorm_wordpool_less_exclusions.txt	LTP284	ltpFR	10	6	n/a	<>	-1	n/a	n/a	n/a	0	0	0	n/a	n/a	n/a	n/a	n/a
1457652	REC_WORD_VV	wordpools/wasnorm_wordpool_less_exclusions.txt	LTP284	ltpFR	10	6	n/a	<>	-1	n/a	n/a	n/a	0	0	0	n/a	n/a	n/a	n/a	n/a
1511905	REST_REWET	n/a	LTP284	ltpFR	10	6	n/a	n/a	n/a	n/a	n/a	n/a	0	0	0	n/a	n/a	n/a	n/a	n/a
1934917	START	n/a	LTP284	ltpFR	10	n/a	n/a	n/a	n/a	n/a	n/a	n/a	n/a	n/a	n/a	n/a	n/a	n/a	n/a	n/a
1936422	PROB	n/a	LTP284	ltpFR	10	n/a	n/a	n/a	n/a	n/a	n/a	21	7	7	7	n/a	n/a	n/a	n/a	n/a
1938261	PROB	n/a	LTP284	ltpFR	10	n/a	n/a	n/a	n/a	n/a	n/a	18	8	5	5	n/a	n/a	n/a	n/a	n/a
1939835	PROB	n/a	LTP284	ltpFR	10	n/a	n/a	n/a	n/a	n/a	n/a	22	9	5	8	n/a	n/a	n/a	n/a	n/a
1942653	STOP	n/a	LTP284	ltpFR	10	n/a	n/a	n/a	n/a	n/a	n/a	n/a	n/a	n/a	n/a	n/a	n/a	n/a	n/a	n/a
1943766	WORD	wordpools/wasnorm_wordpool_less_exclusions.txt	LTP284	ltpFR	10	7	1	JAW	751	n/a	0	n/a	0	0	0	0	0.5869140625	0.422607421875	lower	../fonts/zerothre.ttf
1946778	START	n/a	LTP284	ltpFR	10	n/a	n/a	n/a	n/a	n/a	n/a	n/a	n/a	n/a	n/a	n/a	n/a	n/a	n/a	n/a
1947681	PROB	n/a	LTP284	ltpFR	10	n/a	n/a	n/a	n/a	n/a	n/a	16	8	2	6	n/a	n/a	n/a	n/a	n/a
1949002	PROB	n/a	LTP284	ltpFR	10	n/a	n/a	n/a	n/a	n/a	n/a	10	1	8	1	n/a	n/a	n/a	n/a	n/a
1954778	STOP	n/a	LTP284	ltpFR	10	n/a	n/a	n/a	n/a	n/a	n/a	n/a	n/a	n/a	n/a	n/a	n/a	n/a	n/a	n/a
1955962	WORD	wordpools/wasnorm_wordpool_less_exclusions.txt	LTP284	ltpFR	10	7	1	KEYBOARD	774	n/a	0	n/a	0	0	0	0	0.5869140625	0.422607421875	lower	../fonts/zerothre.ttf
1958974	START	n/a	LTP284	ltpFR	10	n/a	n/a	n/a	n/a	n/a	n/a	n/a	n/a	n/a	n/a	n/a	n/a	n/a	n/a	n/a
1959843	PROB	n/a	LTP284	ltpFR	10	n/a	n/a	n/a	n/a	n/a	n/a	16	5	9	2	n/a	n/a	n/a	n/a	n/a
1962132	PROB	n/a	LTP284	ltpFR	10	n/a	n/a	n/a	n/a	n/a	n/a	21	8	5	8	n/a	n/a	n/a	n/a	n/a
1964092	PROB	n/a	LTP284	ltpFR	10	n/a	n/a	n/a	n/a	n/a	n/a	16	9	3	4	n/a	n/a	n/a	n/a	n/a
1965941	STOP	n/a	LTP284	ltpFR	10	n/a	n/a	n/a	n/a	n/a	n/a	n/a	n/a	n/a	n/a	n/a	n/a	n/a	n/a	n/a
1968140	WORD	wordpools/wasnorm_wordpool_less_exclusions.txt	LTP284	ltpFR	10	7	1	DRIVER	499	n/a	1	n/a	0	0	0	0	0.5869140625	0.422607421875	lower	../fonts/zerothre.ttf
1971152	START	n/a	LTP284	ltpFR	10	n/a	n/a	n/a	n/a	n/a	n/a	n/a	n/a	n/a	n/a	n/a	n/a	n/a	n/a	n/a
1972055	PROB	n/a	LTP284	ltpFR	10	n/a	n/a	n/a	n/a	n/a	n/a	13	6	5	2	n/a	n/a	n/a	n/a	n/a
1974263	PROB	n/a	LTP284	ltpFR	10	n/a	n/a	n/a	n/a	n/a	n/a	5	3	1	1	n/a	n/a	n/a	n/a	n/a
1976286	PROB	n/a	LTP284	ltpFR	10	n/a	n/a	n/a	n/a	n/a	n/a	25	9	7	9	n/a	n/a	n/a	n/a	n/a
1979036	STOP	n/a	LTP284	ltpFR	10	n/a	n/a	n/a	n/a	n/a	n/a	n/a	n/a	n/a	n/a	n/a	n/a	n/a	n/a	n/a
1980303	WORD	wordpools/wasnorm_wordpool_less_exclusions.txt	LTP284	ltpFR	10	7	1	DUCK	504	n/a	1	n/a	0	0	0	0	0.5869140625	0.422607421875	lower	../fonts/zerothre.ttf
1983315	START	n/a	LTP284	ltpFR	10	n/a	n/a	n/a	n/a	n/a	n/a	n/a	n/a	n/a	n/a	n/a	n/a	n/a	n/a	n/a
1984318	PROB	n/a	LTP284	ltpFR	10	n/a	n/a	n/a	n/a	n/a	n/a	15	6	2	7	n/a	n/a	n/a	n/a	n/a
1985973	PROB	n/a	LTP284	ltpFR	10	n/a	n/a	n/a	n/a	n/a	n/a	17	6	9	2	n/a	n/a	n/a	n/a	n/a
1988903	PROB	n/a	LTP284	ltpFR	10	n/a	n/a	n/a	n/a	n/a	n/a	14	4	5	5	n/a	n/a	n/a	n/a	n/a
1990356	STOP	n/a	LTP284	ltpFR	10	n/a	n/a	n/a	n/a	n/a	n/a	n/a	n/a	n/a	n/a	n/a	n/a	n/a	n/a	n/a
1992298	WORD	wordpools/wasnorm_wordpool_less_exclusions.txt	LTP284	ltpFR	10	7	1	FLIPPER	580	n/a	0	n/a	0	0	0	0	0.5869140625	0.422607421875	lower	../fonts/zerothre.ttf
1995310	START	n/a	LTP284	ltpFR	10	n/a	n/a	n/a	n/a	n/a	n/a	n/a	n/a	n/a	n/a	n/a	n/a	n/a	n/a	n/a
1996313	PROB	n/a	LTP284	ltpFR	10	n/a	n/a	n/a	n/a	n/a	n/a	12	4	4	4	n/a	n/a	n/a	n/a	n/a
1997885	PROB	n/a	LTP284	ltpFR	10	n/a	n/a	n/a	n/a	n/a	n/a	15	7	2	6	n/a	n/a	n/a	n/a	n/a
2000360	PROB	n/a	LTP284	ltpFR	10	n/a	n/a	n/a	n/a	n/a	n/a	6	3	1	2	n/a	n/a	n/a	n/a	n/a
2002445	STOP	n/a	LTP284	ltpFR	10	n/a	n/a	n/a	n/a	n/a	n/a	n/a	n/a	n/a	n/a	n/a	n/a	n/a	n/a	n/a
2004343	WORD	wordpools/wasnorm_wordpool_less_exclusions.txt	LTP284	ltpFR	10	7	1	NET	946	n/a	0	n/a	0	0	0	0	0.5869140625	0.422607421875	lower	../fonts/zerothre.ttf
2007355	START	n/a	LTP284	ltpFR	10	n/a	n/a	n/a	n/a	n/a	n/a	n/a	n/a	n/a	n/a	n/a	n/a	n/a	n/a	n/a
2008325	PROB	n/a	LTP284	ltpFR	10	n/a	n/a	n/a	n/a	n/a	n/a	10	4	3	3	n/a	n/a	n/a	n/a	n/a
2010316	PROB	n/a	LTP284	ltpFR	10	n/a	n/a	n/a	n/a	n/a	n/a	10	1	6	3	n/a	n/a	n/a	n/a	n/a
2011971	PROB	n/a	LTP284	ltpFR	10	n/a	n/a	n/a	n/a	n/a	n/a	13	6	6	1	n/a	n/a	n/a	n/a	n/a
2013696	PROB	n/a	LTP284	ltpFR	10	n/a	n/a	n/a	n/a	n/a	n/a	18	2	7	9	n/a	n/a	n/a	n/a	n/a
2015022	STOP	n/a	LTP284	ltpFR	10	n/a	n/a	n/a	n/a	n/a	n/a	n/a	n/a	n/a	n/a	n/a	n/a	n/a	n/a	n/a
2016372	WORD	wordpools/wasnorm_wordpool_less_exclusions.txt	LTP284	ltpFR	10	7	1	GOOSE	649	n/a	1	n/a	0	0	0	0	0.5869140625	0.422607421875	lower	../fonts/zerothre.ttf
2019384	START	n/a	LTP284	ltpFR	10	n/a	n/a	n/a	n/a	n/a	n/a	n/a	n/a	n/a	n/a	n/a	n/a	n/a	n/a	n/a
2020304	PROB	n/a	LTP284	ltpFR	10	n/a	n/a	n/a	n/a	n/a	n/a	20	8	7	5	n/a	n/a	n/a	n/a	n/a
2022026	PROB	n/a	LTP284	ltpFR	10	n/a	n/a	n/a	n/a	n/a	n/a	14	7	6	1	n/a	n/a	n/a	n/a	n/a
2024369	PROB	n/a	LTP284	ltpFR	10	n/a	n/a	n/a	n/a	n/a	n/a	20	9	6	5	n/a	n/a	n/a	n/a	n/a
2026236	STOP	n/a	LTP284	ltpFR	10	n/a	n/a	n/a	n/a	n/a	n/a	n/a	n/a	n/a	n/a	n/a	n/a	n/a	n/a	n/a
2028317	WORD	wordpools/wasnorm_wordpool_less_exclusions.txt	LTP284	ltpFR	10	7	1	SHRINE	1298	n/a	0	n/a	0	0	0	0	0.5869140625	0.422607421875	lower	../fonts/zerothre.ttf
2031329	START	n/a	LTP284	ltpFR	10	n/a	n/a	n/a	n/a	n/a	n/a	n/a	n/a	n/a	n/a	n/a	n/a	n/a	n/a	n/a
2032450	PROB	n/a	LTP284	ltpFR	10	n/a	n/a	n/a	n/a	n/a	n/a	6	1	4	1	n/a	n/a	n/a	n/a	n/a
2034491	PROB	n/a	LTP284	ltpFR	10	n/a	n/a	n/a	n/a	n/a	n/a	15	6	3	6	n/a	n/a	n/a	n/a	n/a
2036566	PROB	n/a	LTP284	ltpFR	10	n/a	n/a	n/a	n/a	n/a	n/a	18	2	7	9	n/a	n/a	n/a	n/a	n/a
2039148	STOP	n/a	LTP284	ltpFR	10	n/a	n/a	n/a	n/a	n/a	n/a	n/a	n/a	n/a	n/a	n/a	n/a	n/a	n/a	n/a
2040379	WORD	wordpools/wasnorm_wordpool_less_exclusions.txt	LTP284	ltpFR	10	7	1	LIPSTICK	829	n/a	0	n/a	0	0	0	0	0.5869140625	0.422607421875	lower	../fonts/zerothre.ttf
2043391	START	n/a	LTP284	ltpFR	10	n/a	n/a	n/a	n/a	n/a	n/a	n/a	n/a	n/a	n/a	n/a	n/a	n/a	n/a	n/a
2044210	PROB	n/a	LTP284	ltpFR	10	n/a	n/a	n/a	n/a	n/a	n/a	16	3	7	6	n/a	n/a	n/a	n/a	n/a
2045600	PROB	n/a	LTP284	ltpFR	10	n/a	n/a	n/a	n/a	n/a	n/a	16	6	6	4	n/a	n/a	n/a	n/a	n/a
2051372	STOP	n/a	LTP284	ltpFR	10	n/a	n/a	n/a	n/a	n/a	n/a	n/a	n/a	n/a	n/a	n/a	n/a	n/a	n/a	n/a
2052409	WORD	wordpools/wasnorm_wordpool_less_exclusions.txt	LTP284	ltpFR	10	7	1	CANARY	227	n/a	0	n/a	0	0	0	0	0.5869140625	0.422607421875	lower	../fonts/zerothre.ttf
2055421	START	n/a	LTP284	ltpFR	10	n/a	n/a	n/a	n/a	n/a	n/a	n/a	n/a	n/a	n/a	n/a	n/a	n/a	n/a	n/a
2056558	PROB	n/a	LTP284	ltpFR	10	n/a	n/a	n/a	n/a	n/a	n/a	7	4	2	1	n/a	n/a	n/a	n/a	n/a
2058094	PROB	n/a	LTP284	ltpFR	10	n/a	n/a	n/a	n/a	n/a	n/a	11	6	2	3	n/a	n/a	n/a	n/a	n/a
2060286	PROB	n/a	LTP284	ltpFR	10	n/a	n/a	n/a	n/a	n/a	n/a	10	2	4	4	n/a	n/a	n/a	n/a	n/a
2061990	STOP	n/a	LTP284	ltpFR	10	n/a	n/a	n/a	n/a	n/a	n/a	n/a	n/a	n/a	n/a	n/a	n/a	n/a	n/a	n/a
2064438	WORD	wordpools/wasnorm_wordpool_less_exclusions.txt	LTP284	ltpFR	10	7	1	WINGS	1614	n/a	0	n/a	0	0	0	0	0.5869140625	0.422607421875	lower	../fonts/zerothre.ttf
2067449	START	n/a	LTP284	ltpFR	10	n/a	n/a	n/a	n/a	n/a	n/a	n/a	n/a	n/a	n/a	n/a	n/a	n/a	n/a	n/a
2068536	PROB	n/a	LTP284	ltpFR	10	n/a	n/a	n/a	n/a	n/a	n/a	17	9	1	7	n/a	n/a	n/a	n/a	n/a
2070225	PROB	n/a	LTP284	ltpFR	10	n/a	n/a	n/a	n/a	n/a	n/a	22	5	8	9	n/a	n/a	n/a	n/a	n/a
2073536	PROB	n/a	LTP284	ltpFR	10	n/a	n/a	n/a	n/a	n/a	n/a	6	1	2	3	n/a	n/a	n/a	n/a	n/a
2074749	STOP	n/a	LTP284	ltpFR	10	n/a	n/a	n/a	n/a	n/a	n/a	n/a	n/a	n/a	n/a	n/a	n/a	n/a	n/a	n/a
2076398	WORD	wordpools/wasnorm_wordpool_less_exclusions.txt	LTP284	ltpFR	10	7	1	CLARINET	317	n/a	0	n/a	0	0	0	0	0.5869140625	0.422607421875	lower	../fonts/zerothre.ttf
2079411	START	n/a	LTP284	ltpFR	10	n/a	n/a	n/a	n/a	n/a	n/a	n/a	n/a	n/a	n/a	n/a	n/a	n/a	n/a	n/a
2080481	PROB	n/a	LTP284	ltpFR	10	n/a	n/a	n/a	n/a	n/a	n/a	14	2	6	6	n/a	n/a	n/a	n/a	n/a
2082051	PROB	n/a	LTP284	ltpFR	10	n/a	n/a	n/a	n/a	n/a	n/a	14	1	9	4	n/a	n/a	n/a	n/a	n/a
2083474	PROB	n/a	LTP284	ltpFR	10	n/a	n/a	n/a	n/a	n/a	n/a	11	4	4	3	n/a	n/a	n/a	n/a	n/a
2086846	STOP	n/a	LTP284	ltpFR	10	n/a	n/a	n/a	n/a	n/a	n/a	n/a	n/a	n/a	n/a	n/a	n/a	n/a	n/a	n/a
2088243	WORD	wordpools/wasnorm_wordpool_less_exclusions.txt	LTP284	ltpFR	10	7	1	FUR	615	n/a	0	n/a	0	0	0	0	0.5869140625	0.422607421875	lower	../fonts/zerothre.ttf
2091255	START	n/a	LTP284	ltpFR	10	n/a	n/a	n/a	n/a	n/a	n/a	n/a	n/a	n/a	n/a	n/a	n/a	n/a	n/a	n/a
2092141	PROB	n/a	LTP284	ltpFR	10	n/a	n/a	n/a	n/a	n/a	n/a	19	8	6	5	n/a	n/a	n/a	n/a	n/a
2095353	PROB	n/a	LTP284	ltpFR	10	n/a	n/a	n/a	n/a	n/a	n/a	17	3	6	8	n/a	n/a	n/a	n/a	n/a
2098037	STOP	n/a	LTP284	ltpFR	10	n/a	n/a	n/a	n/a	n/a	n/a	n/a	n/a	n/a	n/a	n/a	n/a	n/a	n/a	n/a
2100423	WORD	wordpools/wasnorm_wordpool_less_exclusions.txt	LTP284	ltpFR	10	7	1	DIGGER	464	n/a	1	n/a	0	0	0	0	0.5869140625	0.422607421875	lower	../fonts/zerothre.ttf
2103435	START	n/a	LTP284	ltpFR	10	n/a	n/a	n/a	n/a	n/a	n/a	n/a	n/a	n/a	n/a	n/a	n/a	n/a	n/a	n/a
2104539	PROB	n/a	LTP284	ltpFR	10	n/a	n/a	n/a	n/a	n/a	n/a	20	7	9	4	n/a	n/a	n/a	n/a	n/a
2107095	PROB	n/a	LTP284	ltpFR	10	n/a	n/a	n/a	n/a	n/a	n/a	13	3	1	9	n/a	n/a	n/a	n/a	n/a
2108704	PROB	n/a	LTP284	ltpFR	10	n/a	n/a	n/a	n/a	n/a	n/a	18	2	9	7	n/a	n/a	n/a	n/a	n/a
2110677	STOP	n/a	LTP284	ltpFR	10	n/a	n/a	n/a	n/a	n/a	n/a	n/a	n/a	n/a	n/a	n/a	n/a	n/a	n/a	n/a
2112433	WORD	wordpools/wasnorm_wordpool_less_exclusions.txt	LTP284	ltpFR	10	7	1	SLOPE	1328	n/a	0	n/a	0	0	0	0	0.5869140625	0.422607421875	lower	../fonts/zerothre.ttf
2115447	START	n/a	LTP284	ltpFR	10	n/a	n/a	n/a	n/a	n/a	n/a	n/a	n/a	n/a	n/a	n/a	n/a	n/a	n/a	n/a
2116551	PROB	n/a	LTP284	ltpFR	10	n/a	n/a	n/a	n/a	n/a	n/a	10	1	8	1	n/a	n/a	n/a	n/a	n/a
2119093	PROB	n/a	LTP284	ltpFR	10	n/a	n/a	n/a	n/a	n/a	n/a	8	6	1	1	n/a	n/a	n/a	n/a	n/a
2120884	PROB	n/a	LTP284	ltpFR	10	n/a	n/a	n/a	n/a	n/a	n/a	5	3	1	1	n/a	n/a	n/a	n/a	n/a
2122670	STOP	n/a	LTP284	ltpFR	10	n/a	n/a	n/a	n/a	n/a	n/a	n/a	n/a	n/a	n/a	n/a	n/a	n/a	n/a	n/a
2124447	WORD	wordpools/wasnorm_wordpool_less_exclusions.txt	LTP284	ltpFR	10	7	1	LIGHTNING	820	n/a	0	n/a	0	0	0	0	0.5869140625	0.422607421875	lower	../fonts/zerothre.ttf
2127459	START	n/a	LTP284	ltpFR	10	n/a	n/a	n/a	n/a	n/a	n/a	n/a	n/a	n/a	n/a	n/a	n/a	n/a	n/a	n/a
2128663	PROB	n/a	LTP284	ltpFR	10	n/a	n/a	n/a	n/a	n/a	n/a	18	3	6	9	n/a	n/a	n/a	n/a	n/a
2130702	PROB	n/a	LTP284	ltpFR	10	n/a	n/a	n/a	n/a	n/a	n/a	10	2	7	1	n/a	n/a	n/a	n/a	n/a
2133246	PROB	n/a	LTP284	ltpFR	10	n/a	n/a	n/a	n/a	n/a	n/a	14	5	7	4	n/a	n/a	n/a	n/a	n/a
2135236	STOP	n/a	LTP284	ltpFR	10	n/a	n/a	n/a	n/a	n/a	n/a	n/a	n/a	n/a	n/a	n/a	n/a	n/a	n/a	n/a
2137346	REC_START	n/a	LTP284	ltpFR	10	7	n/a	n/a	n/a	n/a	n/a	n/a	0	0	0	n/a	n/a	n/a	n/a	n/a
2139506	REC_WORD	wordpools/wasnorm_wordpool_less_exclusions.txt	LTP284	ltpFR	10	7	1	DIGGER	464	n/a	1	n/a	0	0	0	n/a	n/a	n/a	n/a	n/a
2157081	REC_WORD_VV	wordpools/wasnorm_wordpool_less_exclusions.txt	LTP284	ltpFR	10	7	n/a	<>	-1	n/a	n/a	n/a	0	0	0	n/a	n/a	n/a	n/a	n/a
2165229	REC_WORD	wordpools/wasnorm_wordpool_less_exclusions.txt	LTP284	ltpFR	10	7	1	BONE	148	n/a	0	n/a	0	0	0	n/a	n/a	n/a	n/a	n/a
2166609	REC_WORD	wordpools/wasnorm_wordpool_less_exclusions.txt	LTP284	ltpFR	10	7	1	JAW	751	n/a	0	n/a	0	0	0	n/a	n/a	n/a	n/a	n/a
2218333	WORD	wordpools/wasnorm_wordpool_less_exclusions.txt	LTP284	ltpFR	10	8	0	LOG	841	n/a	1	n/a	0	0	0	1	0.412841796875	0.57763671875	upper	../fonts/amplitud.ttf
2222281	WORD	wordpools/wasnorm_wordpool_less_exclusions.txt	LTP284	ltpFR	10	8	0	LEAF	808	n/a	0	n/a	0	0	0	1	0.412841796875	0.57763671875	upper	../fonts/amplitud.ttf
2226213	WORD	wordpools/wasnorm_wordpool_less_exclusions.txt	LTP284	ltpFR	10	8	0	CARAVAN	242	n/a	1	n/a	0	0	0	1	0.412841796875	0.57763671875	upper	../fonts/amplitud.ttf
2230328	WORD	wordpools/wasnorm_wordpool_less_exclusions.txt	LTP284	ltpFR	10	8	0	WEB	1598	n/a	0	n/a	0	0	0	1	0.412841796875	0.57763671875	upper	../fonts/amplitud.ttf
2234327	WORD	wordpools/wasnorm_wordpool_less_exclusions.txt	LTP284	ltpFR	10	8	0	COMMITTEE	355	n/a	1	n/a	0	0	0	1	0.412841796875	0.57763671875	upper	../fonts/amplitud.ttf
2238175	WORD	wordpools/wasnorm_wordpool_less_exclusions.txt	LTP284	ltpFR	10	8	0	TERMITE	1451	n/a	0	n/a	0	0	0	1	0.412841796875	0.57763671875	upper	../fonts/amplitud.ttf
2242140	WORD	wordpools/wasnorm_wordpool_less_exclusions.txt	LTP284	ltpFR	10	8	0	SOFA	1342	n/a	1	n/a	0	0	0	1	0.412841796875	0.57763671875	upper	../fonts/amplitud.ttf
2245988	WORD	wordpools/wasnorm_wordpool_less_exclusions.txt	LTP284	ltpFR	10	8	0	UNDERWEAR	1537	n/a	0	n/a	0	0	0	1	0.412841796875	0.57763671875	upper	../fonts/amplitud.ttf
2249937	WORD	wordpools/wasnorm_wordpool_less_exclusions.txt	LTP284	ltpFR	10	8	0	GANG	619	n/a	1	n/a	0	0	0	1	0.412841796875	0.57763671875	upper	../fonts/amplitud.ttf
2254032	WORD	wordpools/wasnorm_wordpool_less_exclusions.txt	LTP284	ltpFR	10	8	0	TWINE	1529	n/a	0	n/a	0	0	0	1	0.412841796875	0.57763671875	upper	../fonts/amplitud.ttf
2258064	WORD	wordpools/wasnorm_wordpool_less_exclusions.txt	LTP284	ltpFR	10	8	0	LUMBER	848	n/a	1	n/a	0	0	0	1	0.412841796875	0.57763671875	upper	../fonts/amplitud.ttf
2262215	WORD	wordpools/wasnorm_wordpool_less_exclusions.txt	LTP284	ltpFR	10	8	0	BRAKE	166	n/a	0	n/a	0	0	0	1	0.412841796875	0.57763671875	upper	../fonts/amplitud.ttf
2266415	WORD	wordpools/wasnorm_wordpool_less_exclusions.txt	LTP284	ltpFR	10	8	0	PILLOW	1069	n/a	1	n/a	0	0	0	1	0.412841796875	0.57763671875	upper	../fonts/amplitud.ttf
2270244	WORD	wordpools/wasnorm_wordpool_less_exclusions.txt	LTP284	ltpFR	10	8	0	MATTRESS	879	n/a	1	n/a	0	0	0	1	0.412841796875	0.57763671875	upper	../fonts/amplitud.ttf
2274277	WORD	wordpools/wasnorm_wordpool_less_exclusions.txt	LTP284	ltpFR	10	8	0	COBBLER	335	n/a	0	n/a	0	0	0	1	0.412841796875	0.57763671875	upper	../fonts/amplitud.ttf
2278444	WORD	wordpools/wasnorm_wordpool_less_exclusions.txt	LTP284	ltpFR	10	8	0	STRAWBERRY	1391	n/a	0	n/a	0	0	0	1	0.412841796875	0.57763671875	upper	../fonts/amplitud.ttf
2284266	REC_START	n/a	LTP284	ltpFR	10	8	n/a	n/a	n/a	n/a	n/a	n/a	0	0	0	n/a	n/a	n/a	n/a	n/a
2285682	REC_WORD	wordpools/wasnorm_wordpool_less_exclusions.txt	LTP284	ltpFR	10	8	0	LOG	841	n/a	1	n/a	0	0	0	n/a	n/a	n/a	n/a	n/a
2286993	REC_WORD	wordpools/wasnorm_wordpool_less_exclusions.txt	LTP284	ltpFR	10	8	0	LEAF	808	n/a	0	n/a	0	0	0	n/a	n/a	n/a	n/a	n/a
2288365	REC_WORD	wordpools/wasnorm_wordpool_less_exclusions.txt	LTP284	ltpFR	10	8	0	CARAVAN	242	n/a	1	n/a	0	0	0	n/a	n/a	n/a	n/a	n/a
2289790	REC_WORD	wordpools/wasnorm_wordpool_less_exclusions.txt	LTP284	ltpFR	10	8	0	WEB	1598	n/a	0	n/a	0	0	0	n/a	n/a	n/a	n/a	n/a
2291676	REC_WORD	wordpools/wasnorm_wordpool_less_exclusions.txt	LTP284	ltpFR	10	8	0	COMMITTEE	355	n/a	1	n/a	0	0	0	n/a	n/a	n/a	n/a	n/a
2293910	REC_WORD	wordpools/wasnorm_wordpool_less_exclusions.txt	LTP284	ltpFR	10	8	0	LUMBER	848	n/a	1	n/a	0	0	0	n/a	n/a	n/a	n/a	n/a
2295455	REC_WORD	wordpools/wasnorm_wordpool_less_exclusions.txt	LTP284	ltpFR	10	8	0	TWINE	1529	n/a	0	n/a	0	0	0	n/a	n/a	n/a	n/a	n/a
2297090	REC_WORD	wordpools/wasnorm_wordpool_less_exclusions.txt	LTP284	ltpFR	10	8	0	GANG	619	n/a	1	n/a	0	0	0	n/a	n/a	n/a	n/a	n/a
2301337	REC_WORD	wordpools/wasnorm_wordpool_less_exclusions.txt	LTP284	ltpFR	10	8	0	PILLOW	1069	n/a	1	n/a	0	0	0	n/a	n/a	n/a	n/a	n/a
2302725	REC_WORD	wordpools/wasnorm_wordpool_less_exclusions.txt	LTP284	ltpFR	10	8	0	MATTRESS	879	n/a	1	n/a	0	0	0	n/a	n/a	n/a	n/a	n/a
2307944	REC_WORD	wordpools/wasnorm_wordpool_less_exclusions.txt	LTP284	ltpFR	10	8	0	STRAWBERRY	1391	n/a	0	n/a	0	0	0	n/a	n/a	n/a	n/a	n/a
2311676	REC_WORD	wordpools/wasnorm_wordpool_less_exclusions.txt	LTP284	ltpFR	10	8	0	COBBLER	335	n/a	0	n/a	0	0	0	n/a	n/a	n/a	n/a	n/a
2386635	WORD	wordpools/wasnorm_wordpool_less_exclusions.txt	LTP284	ltpFR	10	9	1	WRITER	1627	n/a	1	n/a	0	0	0	0	0.5869140625	0.422607421875	lower	../fonts/zerothre.ttf
2390650	WORD	wordpools/wasnorm_wordpool_less_exclusions.txt	LTP284	ltpFR	10	9	1	FIREPLACE	570	n/a	0	n/a	0	0	0	0	0.5869140625	0.422607421875	lower	../fonts/zerothre.ttf
2394498	WORD	wordpools/wasnorm_wordpool_less_exclusions.txt	LTP284	ltpFR	10	9	1	WEED	1599	n/a	0	n/a	0	0	0	0	0.5869140625	0.422607421875	lower	../fonts/zerothre.ttf
2398597	WORD	wordpools/wasnorm_wordpool_less_exclusions.txt	LTP284	ltpFR	10	9	0	SALOON	1228	n/a	1	n/a	0	0	0	1	0.412841796875	0.57763671875	upper	../fonts/amplitud.ttf
2402813	WORD	wordpools/wasnorm_wordpool_less_exclusions.txt	LTP284	ltpFR	10	9	0	HEART	697	n/a	0	n/a	0	0	0	1	0.412841796875	0.57763671875	upper	../fonts/amplitud.ttf
2406828	WORD	wordpools/wasnorm_wordpool_less_exclusions.txt	LTP284	ltpFR	10	9	1	DRAGON	492	n/a	1	n/a	0	0	0	0	0.5869140625	0.422607421875	lower	../fonts/zerothre.ttf
2410843	WORD	wordpools/wasnorm_wordpool_less_exclusions.txt	LTP284	ltpFR	10	9	1	CIRCUS	311	n/a	0	n/a	0	0	0	0	0.5869140625	0.422607421875	lower	../fonts/zerothre.ttf
2414858	WORD	wordpools/wasnorm_wordpool_less_exclusions.txt	LTP284	ltpFR	10	9	1	PAWN	1030	n/a	1	n/a	0	0	0	0	0.5869140625	0.422607421875	lower	../fonts/zerothre.ttf
2418790	WORD	wordpools/wasnorm_wordpool_less_exclusions.txt	LTP284	ltpFR	10	9	0	PENNY	1045	n/a	0	n/a	0	0	0	1	0.412841796875	0.57763671875	upper	../fonts/amplitud.ttf
2422771	WORD	wordpools/wasnorm_wordpool_less_exclusions.txt	LTP284	ltpFR	10	9	0	DOLPHIN	483	n/a	1	n/a	0	0	0	1	0.412841796875	0.57763671875	upper	../fonts/amplitud.ttf
2426619	WORD	wordpools/wasnorm_wordpool_less_exclusions.txt	LTP284	ltpFR	10	9	0	PORPOISE	1109	n/a	1	n/a	0	0	0	1	0.412841796875	0.57763671875	upper	../fonts/amplitud.ttf
2430582	WORD	wordpools/wasnorm_wordpool_less_exclusions.txt	LTP284	ltpFR	10	9	0	POET	1095	n/a	1	n/a	0	0	0	1	0.412841796875	0.57763671875	upper	../fonts/amplitud.ttf
2434583	WORD	wordpools/wasnorm_wordpool_less_exclusions.txt	LTP284	ltpFR	10	9	0	CEREAL	272	n/a	0	n/a	0	0	0	1	0.412841796875	0.57763671875	upper	../fonts/amplitud.ttf
2438746	WORD	wordpools/wasnorm_wordpool_less_exclusions.txt	LTP284	ltpFR	10	9	0	GOAT	644	n/a	1	n/a	0	0	0	1	0.412841796875	0.57763671875	upper	../fonts/amplitud.ttf
2442763	WORD	wordpools/wasnorm_wordpool_less_exclusions.txt	LTP284	ltpFR	10	9	1	STEM	1376	n/a	0	n/a	0	0	0	0	0.5869140625	0.422607421875	lower	../fonts/zerothre.ttf
2446946	WORD	wordpools/wasnorm_wordpool_less_exclusions.txt	LTP284	ltpFR	10	9	1	NEWSPAPER	948	n/a	0	n/a	0	0	0	0	0.5869140625	0.422607421875	lower	../fonts/zerothre.ttf
2449958	START	n/a	LTP284	ltpFR	10	n/a	n/a	n/a	n/a	n/a	n/a	n/a	n/a	n/a	n/a	n/a	n/a	n/a	n/a	n/a
2450825	PROB	n/a	LTP284	ltpFR	10	n/a	n/a	n/a	n/a	n/a	n/a	11	5	4	2	n/a	n/a	n/a	n/a	n/a
2453152	PROB	n/a	LTP284	ltpFR	10	n/a	n/a	n/a	n/a	n/a	n/a	15	7	5	3	n/a	n/a	n/a	n/a	n/a
2454541	PROB	n/a	LTP284	ltpFR	10	n/a	n/a	n/a	n/a	n/a	n/a	14	8	2	4	n/a	n/a	n/a	n/a	n/a
2457958	STOP	n/a	LTP284	ltpFR	10	n/a	n/a	n/a	n/a	n/a	n/a	n/a	n/a	n/a	n/a	n/a	n/a	n/a	n/a	n/a
2459828	REC_START	n/a	LTP284	ltpFR	10	9	n/a	n/a	n/a	n/a	n/a	n/a	0	0	0	n/a	n/a	n/a	n/a	n/a
2462857	REC_WORD	wordpools/wasnorm_wordpool_less_exclusions.txt	LTP284	ltpFR	10	9	1	WRITER	1627	n/a	1	n/a	0	0	0	n/a	n/a	n/a	n/a	n/a
2464683	REC_WORD	wordpools/wasnorm_wordpool_less_exclusions.txt	LTP284	ltpFR	10	9	1	FIREPLACE	570	n/a	0	n/a	0	0	0	n/a	n/a	n/a	n/a	n/a
2466799	REC_WORD	wordpools/wasnorm_wordpool_less_exclusions.txt	LTP284	ltpFR	10	9	0	SALOON	1228	n/a	1	n/a	0	0	0	n/a	n/a	n/a	n/a	n/a
2469666	REC_WORD	wordpools/wasnorm_wordpool_less_exclusions.txt	LTP284	ltpFR	10	9	1	DRAGON	492	n/a	1	n/a	0	0	0	n/a	n/a	n/a	n/a	n/a
2471348	REC_WORD	wordpools/wasnorm_wordpool_less_exclusions.txt	LTP284	ltpFR	10	9	0	HEART	697	n/a	0	n/a	0	0	0	n/a	n/a	n/a	n/a	n/a
2474945	REC_WORD	wordpools/wasnorm_wordpool_less_exclusions.txt	LTP284	ltpFR	10	9	1	PAWN	1030	n/a	1	n/a	0	0	0	n/a	n/a	n/a	n/a	n/a
2476533	REC_WORD	wordpools/wasnorm_wordpool_less_exclusions.txt	LTP284	ltpFR	10	9	0	PENNY	1045	n/a	0	n/a	0	0	0	n/a	n/a	n/a	n/a	n/a
2479668	REC_WORD	wordpools/wasnorm_wordpool_less_exclusions.txt	LTP284	ltpFR	10	9	0	DOLPHIN	483	n/a	1	n/a	0	0	0	n/a	n/a	n/a	n/a	n/a
2481421	REC_WORD	wordpools/wasnorm_wordpool_less_exclusions.txt	LTP284	ltpFR	10	9	0	PORPOISE	1109	n/a	1	n/a	0	0	0	n/a	n/a	n/a	n/a	n/a
2548126	WORD	wordpools/wasnorm_wordpool_less_exclusions.txt	LTP284	ltpFR	10	10	0	CUP	424	n/a	0	n/a	0	0	0	1	0.412841796875	0.57763671875	upper	../fonts/amplitud.ttf
2552141	WORD	wordpools/wasnorm_wordpool_less_exclusions.txt	LTP284	ltpFR	10	10	0	STRANGER	1389	n/a	1	n/a	0	0	0	1	0.412841796875	0.57763671875	upper	../fonts/amplitud.ttf
2556088	WORD	wordpools/wasnorm_wordpool_less_exclusions.txt	LTP284	ltpFR	10	10	0	GRADUATE	653	n/a	1	n/a	0	0	0	1	0.412841796875	0.57763671875	upper	../fonts/amplitud.ttf
2559989	WORD	wordpools/wasnorm_wordpool_less_exclusions.txt	LTP284	ltpFR	10	10	0	BEAN	105	n/a	0	n/a	0	0	0	1	0.412841796875	0.57763671875	upper	../fonts/amplitud.ttf
2564036	WORD	wordpools/wasnorm_wordpool_less_exclusions.txt	LTP284	ltpFR	10	10	1	BULB	192	n/a	0	n/a	0	0	0	0	0.5869140625	0.422607421875	lower	../fonts/zerothre.ttf
2567868	WORD	wordpools/wasnorm_wordpool_less_exclusions.txt	LTP284	ltpFR	10	10	1	TEACHER	1440	n/a	1	n/a	0	0	0	0	0.5869140625	0.422607421875	lower	../fonts/zerothre.ttf
2571733	WORD	wordpools/wasnorm_wordpool_less_exclusions.txt	LTP284	ltpFR	10	10	0	LINEN	825	n/a	0	n/a	0	0	0	1	0.412841796875	0.57763671875	upper	../fonts/amplitud.ttf
2575731	WORD	wordpools/wasnorm_wordpool_less_exclusions.txt	LTP284	ltpFR	10	10	0	SERPENT	1270	n/a	0	n/a	0	0	0	1	0.412841796875	0.57763671875	upper	../fonts/amplitud.ttf
2579863	WORD	wordpools/wasnorm_wordpool_less_exclusions.txt	LTP284	ltpFR	10	10	0	LOBSTER	837	n/a	0	n/a	0	0	0	1	0.412841796875	0.57763671875	upper	../fonts/amplitud.ttf
2583828	WORD	wordpools/wasnorm_wordpool_less_exclusions.txt	LTP284	ltpFR	10	10	0	ROUGE	1213	n/a	0	n/a	0	0	0	1	0.412841796875	0.57763671875	upper	../fonts/amplitud.ttf
2588027	WORD	wordpools/wasnorm_wordpool_less_exclusions.txt	LTP284	ltpFR	10	10	1	HORNET	718	n/a	1	n/a	0	0	0	0	0.5869140625	0.422607421875	lower	../fonts/zerothre.ttf
2591976	WORD	wordpools/wasnorm_wordpool_less_exclusions.txt	LTP284	ltpFR	10	10	1	HONEY	713	n/a	0	n/a	0	0	0	0	0.5869140625	0.422607421875	lower	../fonts/zerothre.ttf
2595824	WORD	wordpools/wasnorm_wordpool_less_exclusions.txt	LTP284	ltpFR	10	10	1	SUPERMARKET	1409	n/a	0	n/a	0	0	0	0	0.5869140625	0.422607421875	lower	../fonts/zerothre.ttf
2599956	WORD	wordpools/wasnorm_wordpool_less_exclusions.txt	LTP284	ltpFR	10	10	1	PRESIDENT	1121	n/a	0	n/a	0	0	0	0	0.5869140625	0.422607421875	lower	../fonts/zerothre.ttf
2603919	WORD	wordpools/wasnorm_wordpool_less_exclusions.txt	LTP284	ltpFR	10	10	1	FOLLOWER	589	n/a	1	n/a	0	0	0	0	0.5869140625	0.422607421875	lower	../fonts/zerothre.ttf
2607835	WORD	wordpools/wasnorm_wordpool_less_exclusions.txt	LTP284	ltpFR	10	10	1	STEW	1380	n/a	0	n/a	0	0	0	0	0.5869140625	0.422607421875	lower	../fonts/zerothre.ttf
2610847	START	n/a	LTP284	ltpFR	10	n/a	n/a	n/a	n/a	n/a	n/a	n/a	n/a	n/a	n/a	n/a	n/a	n/a	n/a	n/a
2611834	PROB	n/a	LTP284	ltpFR	10	n/a	n/a	n/a	n/a	n/a	n/a	14	6	3	5	n/a	n/a	n/a	n/a	n/a
2613925	PROB	n/a	LTP284	ltpFR	10	n/a	n/a	n/a	n/a	n/a	n/a	21	6	9	6	n/a	n/a	n/a	n/a	n/a
2618894	PROB	n/a	LTP284	ltpFR	10	n/a	n/a	n/a	n/a	n/a	n/a	6	1	3	2	n/a	n/a	n/a	n/a	n/a
2621034	PROB	n/a	LTP284	ltpFR	10	n/a	n/a	n/a	n/a	n/a	n/a	10	1	3	6	n/a	n/a	n/a	n/a	n/a
2626847	STOP	n/a	LTP284	ltpFR	10	n/a	n/a	n/a	n/a	n/a	n/a	n/a	n/a	n/a	n/a	n/a	n/a	n/a	n/a	n/a
2628615	REC_START	n/a	LTP284	ltpFR	10	10	n/a	n/a	n/a	n/a	n/a	n/a	0	0	0	n/a	n/a	n/a	n/a	n/a
2638228	REC_WORD	wordpools/wasnorm_wordpool_less_exclusions.txt	LTP284	ltpFR	10	10	1	PRESIDENT	1121	n/a	0	n/a	0	0	0	n/a	n/a	n/a	n/a	n/a
2639975	REC_WORD	wordpools/wasnorm_wordpool_less_exclusions.txt	LTP284	ltpFR	10	10	1	SUPERMARKET	1409	n/a	0	n/a	0	0	0	n/a	n/a	n/a	n/a	n/a
2641998	REC_WORD	wordpools/wasnorm_wordpool_less_exclusions.txt	LTP284	ltpFR	10	10	0	STRANGER	1389	n/a	1	n/a	0	0	0	n/a	n/a	n/a	n/a	n/a
2643993	REC_WORD	wordpools/wasnorm_wordpool_less_exclusions.txt	LTP284	ltpFR	10	10	0	CUP	424	n/a	0	n/a	0	0	0	n/a	n/a	n/a	n/a	n/a
2645937	REC_WORD	wordpools/wasnorm_wordpool_less_exclusions.txt	LTP284	ltpFR	10	10	1	BULB	192	n/a	0	n/a	0	0	0	n/a	n/a	n/a	n/a	n/a
2656620	REC_WORD	wordpools/wasnorm_wordpool_less_exclusions.txt	LTP284	ltpFR	10	10	n/a	LIGHTBULB	-1	n/a	n/a	n/a	0	0	0	n/a	n/a	n/a	n/a	n/a
2658753	REC_WORD	wordpools/wasnorm_wordpool_less_exclusions.txt	LTP284	ltpFR	10	10	1	TEACHER	1440	n/a	1	n/a	0	0	0	n/a	n/a	n/a	n/a	n/a
2660396	REC_WORD	wordpools/wasnorm_wordpool_less_exclusions.txt	LTP284	ltpFR	10	10	1	FOLLOWER	589	n/a	1	n/a	0	0	0	n/a	n/a	n/a	n/a	n/a
2664667	REC_WORD	wordpools/wasnorm_wordpool_less_exclusions.txt	LTP284	ltpFR	10	10	0	LINEN	825	n/a	0	n/a	0	0	0	n/a	n/a	n/a	n/a	n/a
2666408	REC_WORD	wordpools/wasnorm_wordpool_less_exclusions.txt	LTP284	ltpFR	10	10	0	LOBSTER	837	n/a	0	n/a	0	0	0	n/a	n/a	n/a	n/a	n/a
2731837	START	n/a	LTP284	ltpFR	10	n/a	n/a	n/a	n/a	n/a	n/a	n/a	n/a	n/a	n/a	n/a	n/a	n/a	n/a	n/a
2733356	PROB	n/a	LTP284	ltpFR	10	n/a	n/a	n/a	n/a	n/a	n/a	15	8	5	2	n/a	n/a	n/a	n/a	n/a
2734814	PROB	n/a	LTP284	ltpFR	10	n/a	n/a	n/a	n/a	n/a	n/a	18	7	5	6	n/a	n/a	n/a	n/a	n/a
2737070	PROB	n/a	LTP284	ltpFR	10	n/a	n/a	n/a	n/a	n/a	n/a	15	7	5	3	n/a	n/a	n/a	n/a	n/a
2738509	STOP	n/a	LTP284	ltpFR	10	n/a	n/a	n/a	n/a	n/a	n/a	n/a	n/a	n/a	n/a	n/a	n/a	n/a	n/a	n/a
2740787	WORD	wordpools/wasnorm_wordpool_less_exclusions.txt	LTP284	ltpFR	10	11	0	CHAMPAGNE	278	n/a	0	n/a	0	0	0	1	0.412841796875	0.57763671875	upper	../fonts/amplitud.ttf
2743799	START	n/a	LTP284	ltpFR	10	n/a	n/a	n/a	n/a	n/a	n/a	n/a	n/a	n/a	n/a	n/a	n/a	n/a	n/a	n/a
2744885	PROB	n/a	LTP284	ltpFR	10	n/a	n/a	n/a	n/a	n/a	n/a	14	1	4	9	n/a	n/a	n/a	n/a	n/a
2746458	PROB	n/a	LTP284	ltpFR	10	n/a	n/a	n/a	n/a	n/a	n/a	11	3	1	7	n/a	n/a	n/a	n/a	n/a
2748480	PROB	n/a	LTP284	ltpFR	10	n/a	n/a	n/a	n/a	n/a	n/a	15	8	2	5	n/a	n/a	n/a	n/a	n/a
2749637	PROB	n/a	LTP284	ltpFR	10	n/a	n/a	n/a	n/a	n/a	n/a	15	6	6	3	n/a	n/a	n/a	n/a	n/a
2751236	STOP	n/a	LTP284	ltpFR	10	n/a	n/a	n/a	n/a	n/a	n/a	n/a	n/a	n/a	n/a	n/a	n/a	n/a	n/a	n/a
2752865	WORD	wordpools/wasnorm_wordpool_less_exclusions.txt	LTP284	ltpFR	10	11	0	CORK	380	n/a	0	n/a	0	0	0	1	0.412841796875	0.57763671875	upper	../fonts/amplitud.ttf
2755877	START	n/a	LTP284	ltpFR	10	n/a	n/a	n/a	n/a	n/a	n/a	n/a	n/a	n/a	n/a	n/a	n/a	n/a	n/a	n/a
2756914	PROB	n/a	LTP284	ltpFR	10	n/a	n/a	n/a	n/a	n/a	n/a	18	5	5	8	n/a	n/a	n/a	n/a	n/a
2758468	PROB	n/a	LTP284	ltpFR	10	n/a	n/a	n/a	n/a	n/a	n/a	10	1	2	7	n/a	n/a	n/a	n/a	n/a
2759940	PROB	n/a	LTP284	ltpFR	10	n/a	n/a	n/a	n/a	n/a	n/a	10	1	2	7	n/a	n/a	n/a	n/a	n/a
2761732	PROB	n/a	LTP284	ltpFR	10	n/a	n/a	n/a	n/a	n/a	n/a	18	4	7	7	n/a	n/a	n/a	n/a	n/a
2763733	STOP	n/a	LTP284	ltpFR	10	n/a	n/a	n/a	n/a	n/a	n/a	n/a	n/a	n/a	n/a	n/a	n/a	n/a	n/a	n/a
2764992	WORD	wordpools/wasnorm_wordpool_less_exclusions.txt	LTP284	ltpFR	10	11	0	CABIN	211	n/a	1	n/a	0	0	0	1	0.412841796875	0.57763671875	upper	../fonts/amplitud.ttf
2768006	START	n/a	LTP284	ltpFR	10	n/a	n/a	n/a	n/a	n/a	n/a	n/a	n/a	n/a	n/a	n/a	n/a	n/a	n/a	n/a
2768976	PROB	n/a	LTP284	ltpFR	10	n/a	n/a	n/a	n/a	n/a	n/a	15	4	7	4	n/a	n/a	n/a	n/a	n/a
2770515	PROB	n/a	LTP284	ltpFR	10	n/a	n/a	n/a	n/a	n/a	n/a	14	4	5	5	n/a	n/a	n/a	n/a	n/a
2771985	PROB	n/a	LTP284	ltpFR	10	n/a	n/a	n/a	n/a	n/a	n/a	15	3	7	5	n/a	n/a	n/a	n/a	n/a
2773275	PROB	n/a	LTP284	ltpFR	10	n/a	n/a	n/a	n/a	n/a	n/a	12	3	6	3	n/a	n/a	n/a	n/a	n/a
2775558	STOP	n/a	LTP284	ltpFR	10	n/a	n/a	n/a	n/a	n/a	n/a	n/a	n/a	n/a	n/a	n/a	n/a	n/a	n/a	n/a
2776856	WORD	wordpools/wasnorm_wordpool_less_exclusions.txt	LTP284	ltpFR	10	11	1	PATRIOT	1026	n/a	1	n/a	0	0	0	0	0.5869140625	0.422607421875	lower	../fonts/zerothre.ttf
2779868	START	n/a	LTP284	ltpFR	10	n/a	n/a	n/a	n/a	n/a	n/a	n/a	n/a	n/a	n/a	n/a	n/a	n/a	n/a	n/a
2780819	PROB	n/a	LTP284	ltpFR	10	n/a	n/a	n/a	n/a	n/a	n/a	9	3	1	5	n/a	n/a	n/a	n/a	n/a
2782929	PROB	n/a	LTP284	ltpFR	10	n/a	n/a	n/a	n/a	n/a	n/a	23	6	8	9	n/a	n/a	n/a	n/a	n/a
2786372	STOP	n/a	LTP284	ltpFR	10	n/a	n/a	n/a	n/a	n/a	n/a	n/a	n/a	n/a	n/a	n/a	n/a	n/a	n/a	n/a
2788951	WORD	wordpools/wasnorm_wordpool_less_exclusions.txt	LTP284	ltpFR	10	11	1	CHECK	284	n/a	0	n/a	0	0	0	0	0.5869140625	0.422607421875	lower	../fonts/zerothre.ttf
2791963	START	n/a	LTP284	ltpFR	10	n/a	n/a	n/a	n/a	n/a	n/a	n/a	n/a	n/a	n/a	n/a	n/a	n/a	n/a	n/a
2792816	PROB	n/a	LTP284	ltpFR	10	n/a	n/a	n/a	n/a	n/a	n/a	19	6	7	6	n/a	n/a	n/a	n/a	n/a
2796026	PROB	n/a	LTP284	ltpFR	10	n/a	n/a	n/a	n/a	n/a	n/a	18	3	7	8	n/a	n/a	n/a	n/a	n/a
2797933	PROB	n/a	LTP284	ltpFR	10	n/a	n/a	n/a	n/a	n/a	n/a	15	3	8	4	n/a	n/a	n/a	n/a	n/a
2799749	STOP	n/a	LTP284	ltpFR	10	n/a	n/a	n/a	n/a	n/a	n/a	n/a	n/a	n/a	n/a	n/a	n/a	n/a	n/a	n/a
2800930	WORD	wordpools/wasnorm_wordpool_less_exclusions.txt	LTP284	ltpFR	10	11	1	PHILOSOPHER	1054	n/a	1	n/a	0	0	0	0	0.5869140625	0.422607421875	lower	../fonts/zerothre.ttf
2803942	START	n/a	LTP284	ltpFR	10	n/a	n/a	n/a	n/a	n/a	n/a	n/a	n/a	n/a	n/a	n/a	n/a	n/a	n/a	n/a
2805078	PROB	n/a	LTP284	ltpFR	10	n/a	n/a	n/a	n/a	n/a	n/a	18	6	6	6	n/a	n/a	n/a	n/a	n/a
2806432	PROB	n/a	LTP284	ltpFR	10	n/a	n/a	n/a	n/a	n/a	n/a	10	3	5	2	n/a	n/a	n/a	n/a	n/a
2808542	PROB	n/a	LTP284	ltpFR	10	n/a	n/a	n/a	n/a	n/a	n/a	8	2	5	1	n/a	n/a	n/a	n/a	n/a
2810750	STOP	n/a	LTP284	ltpFR	10	n/a	n/a	n/a	n/a	n/a	n/a	n/a	n/a	n/a	n/a	n/a	n/a	n/a	n/a	n/a
2812858	WORD	wordpools/wasnorm_wordpool_less_exclusions.txt	LTP284	ltpFR	10	11	1	COLONEL	348	n/a	1	n/a	0	0	0	0	0.5869140625	0.422607421875	lower	../fonts/zerothre.ttf
2815870	START	n/a	LTP284	ltpFR	10	n/a	n/a	n/a	n/a	n/a	n/a	n/a	n/a	n/a	n/a	n/a	n/a	n/a	n/a	n/a
2816857	PROB	n/a	LTP284	ltpFR	10	n/a	n/a	n/a	n/a	n/a	n/a	12	3	2	7	n/a	n/a	n/a	n/a	n/a
2818695	PROB	n/a	LTP284	ltpFR	10	n/a	n/a	n/a	n/a	n/a	n/a	15	8	4	3	n/a	n/a	n/a	n/a	n/a
2821322	PROB	n/a	LTP284	ltpFR	10	n/a	n/a	n/a	n/a	n/a	n/a	14	3	9	2	n/a	n/a	n/a	n/a	n/a
2823308	STOP	n/a	LTP284	ltpFR	10	n/a	n/a	n/a	n/a	n/a	n/a	n/a	n/a	n/a	n/a	n/a	n/a	n/a	n/a	n/a
2824837	WORD	wordpools/wasnorm_wordpool_less_exclusions.txt	LTP284	ltpFR	10	11	0	CART	250	n/a	1	n/a	0	0	0	1	0.412841796875	0.57763671875	upper	../fonts/amplitud.ttf
2827849	START	n/a	LTP284	ltpFR	10	n/a	n/a	n/a	n/a	n/a	n/a	n/a	n/a	n/a	n/a	n/a	n/a	n/a	n/a	n/a
2828835	PROB	n/a	LTP284	ltpFR	10	n/a	n/a	n/a	n/a	n/a	n/a	17	9	7	1	n/a	n/a	n/a	n/a	n/a
2831679	PROB	n/a	LTP284	ltpFR	10	n/a	n/a	n/a	n/a	n/a	n/a	15	7	7	1	n/a	n/a	n/a	n/a	n/a
2833150	PROB	n/a	LTP284	ltpFR	10	n/a	n/a	n/a	n/a	n/a	n/a	14	1	7	6	n/a	n/a	n/a	n/a	n/a
2835140	STOP	n/a	LTP284	ltpFR	10	n/a	n/a	n/a	n/a	n/a	n/a	n/a	n/a	n/a	n/a	n/a	n/a	n/a	n/a	n/a
2836949	WORD	wordpools/wasnorm_wordpool_less_exclusions.txt	LTP284	ltpFR	10	11	0	TACK	1428	n/a	0	n/a	0	0	0	1	0.412841796875	0.57763671875	upper	../fonts/amplitud.ttf
2839961	START	n/a	LTP284	ltpFR	10	n/a	n/a	n/a	n/a	n/a	n/a	n/a	n/a	n/a	n/a	n/a	n/a	n/a	n/a	n/a
2840780	PROB	n/a	LTP284	ltpFR	10	n/a	n/a	n/a	n/a	n/a	n/a	24	9	7	8	n/a	n/a	n/a	n/a	n/a
2843138	PROB	n/a	LTP284	ltpFR	10	n/a	n/a	n/a	n/a	n/a	n/a	15	2	4	9	n/a	n/a	n/a	n/a	n/a
2844896	PROB	n/a	LTP284	ltpFR	10	n/a	n/a	n/a	n/a	n/a	n/a	13	7	2	4	n/a	n/a	n/a	n/a	n/a
2846861	STOP	n/a	LTP284	ltpFR	10	n/a	n/a	n/a	n/a	n/a	n/a	n/a	n/a	n/a	n/a	n/a	n/a	n/a	n/a	n/a
2848861	WORD	wordpools/wasnorm_wordpool_less_exclusions.txt	LTP284	ltpFR	10	11	1	SPINACH	1352	n/a	3	n/a	0	0	0	0	0.5869140625	0.422607421875	lower	../fonts/zerothre.ttf
2850483	KEY_MSG	n/a	LTP284	ltpFR	10	11	n/a	n/a	n/a	n/a	n/a	n/a	0	0	0	n/a	n/a	n/a	n/a	n/a
2852006	START	n/a	LTP284	ltpFR	10	n/a	n/a	n/a	n/a	n/a	n/a	n/a	n/a	n/a	n/a	n/a	n/a	n/a	n/a	n/a
2853092	PROB	n/a	LTP284	ltpFR	10	n/a	n/a	n/a	n/a	n/a	n/a	7	4	2	1	n/a	n/a	n/a	n/a	n/a
2854563	PROB	n/a	LTP284	ltpFR	10	n/a	n/a	n/a	n/a	n/a	n/a	20	9	2	9	n/a	n/a	n/a	n/a	n/a
2860006	STOP	n/a	LTP284	ltpFR	10	n/a	n/a	n/a	n/a	n/a	n/a	n/a	n/a	n/a	n/a	n/a	n/a	n/a	n/a	n/a
2861223	WORD	wordpools/wasnorm_wordpool_less_exclusions.txt	LTP284	ltpFR	10	11	1	FORT	595	n/a	0	n/a	0	0	0	0	0.5869140625	0.422607421875	lower	../fonts/zerothre.ttf
2864235	START	n/a	LTP284	ltpFR	10	n/a	n/a	n/a	n/a	n/a	n/a	n/a	n/a	n/a	n/a	n/a	n/a	n/a	n/a	n/a
2865372	PROB	n/a	LTP284	ltpFR	10	n/a	n/a	n/a	n/a	n/a	n/a	18	5	6	7	n/a	n/a	n/a	n/a	n/a
2867815	PROB	n/a	LTP284	ltpFR	10	n/a	n/a	n/a	n/a	n/a	n/a	19	8	8	3	n/a	n/a	n/a	n/a	n/a
2870877	STOP	n/a	LTP284	ltpFR	10	n/a	n/a	n/a	n/a	n/a	n/a	n/a	n/a	n/a	n/a	n/a	n/a	n/a	n/a	n/a
2873420	WORD	wordpools/wasnorm_wordpool_less_exclusions.txt	LTP284	ltpFR	10	11	1	PIRATE	1074	n/a	1	n/a	0	0	0	0	0.5869140625	0.422607421875	lower	../fonts/zerothre.ttf
2876432	START	n/a	LTP284	ltpFR	10	n/a	n/a	n/a	n/a	n/a	n/a	n/a	n/a	n/a	n/a	n/a	n/a	n/a	n/a	n/a
2877400	PROB	n/a	LTP284	ltpFR	10	n/a	n/a	n/a	n/a	n/a	n/a	18	8	4	6	n/a	n/a	n/a	n/a	n/a
2879191	PROB	n/a	LTP284	ltpFR	10	n/a	n/a	n/a	n/a	n/a	n/a	6	1	4	1	n/a	n/a	n/a	n/a	n/a
2880480	PROB	n/a	LTP284	ltpFR	10	n/a	n/a	n/a	n/a	n/a	n/a	15	1	9	5	n/a	n/a	n/a	n/a	n/a
2882269	PROB	n/a	LTP284	ltpFR	10	n/a	n/a	n/a	n/a	n/a	n/a	13	7	5	1	n/a	n/a	n/a	n/a	n/a
2883973	STOP	n/a	LTP284	ltpFR	10	n/a	n/a	n/a	n/a	n/a	n/a	n/a	n/a	n/a	n/a	n/a	n/a	n/a	n/a	n/a
2885449	WORD	wordpools/wasnorm_wordpool_less_exclusions.txt	LTP284	ltpFR	10	11	1	SCOUT	1252	n/a	1	n/a	0	0	0	0	0.5869140625	0.422607421875	lower	../fonts/zerothre.ttf
2888461	START	n/a	LTP284	ltpFR	10	n/a	n/a	n/a	n/a	n/a	n/a	n/a	n/a	n/a	n/a	n/a	n/a	n/a	n/a	n/a
2889648	PROB	n/a	LTP284	ltpFR	10	n/a	n/a	n/a	n/a	n/a	n/a	24	9	9	6	n/a	n/a	n/a	n/a	n/a
2892206	PROB	n/a	LTP284	ltpFR	10	n/a	n/a	n/a	n/a	n/a	n/a	14	5	4	5	n/a	n/a	n/a	n/a	n/a
2894031	PROB	n/a	LTP284	ltpFR	10	n/a	n/a	n/a	n/a	n/a	n/a	7	1	2	4	n/a	n/a	n/a	n/a	n/a
2895725	STOP	n/a	LTP284	ltpFR	10	n/a	n/a	n/a	n/a	n/a	n/a	n/a	n/a	n/a	n/a	n/a	n/a	n/a	n/a	n/a
2897644	WORD	wordpools/wasnorm_wordpool_less_exclusions.txt	LTP284	ltpFR	10	11	0	JUGGLER	763	n/a	1	n/a	0	0	0	1	0.412841796875	0.57763671875	upper	../fonts/amplitud.ttf
2900657	START	n/a	LTP284	ltpFR	10	n/a	n/a	n/a	n/a	n/a	n/a	n/a	n/a	n/a	n/a	n/a	n/a	n/a	n/a	n/a
2901557	PROB	n/a	LTP284	ltpFR	10	n/a	n/a	n/a	n/a	n/a	n/a	15	3	8	4	n/a	n/a	n/a	n/a	n/a
2903296	PROB	n/a	LTP284	ltpFR	10	n/a	n/a	n/a	n/a	n/a	n/a	19	8	9	2	n/a	n/a	n/a	n/a	n/a
2908657	STOP	n/a	LTP284	ltpFR	10	n/a	n/a	n/a	n/a	n/a	n/a	n/a	n/a	n/a	n/a	n/a	n/a	n/a	n/a	n/a
2909690	WORD	wordpools/wasnorm_wordpool_less_exclusions.txt	LTP284	ltpFR	10	11	0	CLOWN	330	n/a	1	n/a	0	0	0	1	0.412841796875	0.57763671875	upper	../fonts/amplitud.ttf
2912702	START	n/a	LTP284	ltpFR	10	n/a	n/a	n/a	n/a	n/a	n/a	n/a	n/a	n/a	n/a	n/a	n/a	n/a	n/a	n/a
2913789	PROB	n/a	LTP284	ltpFR	10	n/a	n/a	n/a	n/a	n/a	n/a	17	8	4	5	n/a	n/a	n/a	n/a	n/a
2916547	PROB	n/a	LTP284	ltpFR	10	n/a	n/a	n/a	n/a	n/a	n/a	16	9	8	5	n/a	n/a	n/a	n/a	n/a
2920021	STOP	n/a	LTP284	ltpFR	10	n/a	n/a	n/a	n/a	n/a	n/a	n/a	n/a	n/a	n/a	n/a	n/a	n/a	n/a	n/a
2921886	WORD	wordpools/wasnorm_wordpool_less_exclusions.txt	LTP284	ltpFR	10	11	0	SALAD	1224	n/a	0	n/a	0	0	0	1	0.412841796875	0.57763671875	upper	../fonts/amplitud.ttf
2924897	START	n/a	LTP284	ltpFR	10	n/a	n/a	n/a	n/a	n/a	n/a	n/a	n/a	n/a	n/a	n/a	n/a	n/a	n/a	n/a
2926001	PROB	n/a	LTP284	ltpFR	10	n/a	n/a	n/a	n/a	n/a	n/a	16	5	6	5	n/a	n/a	n/a	n/a	n/a
2927758	PROB	n/a	LTP284	ltpFR	10	n/a	n/a	n/a	n/a	n/a	n/a	15	6	8	1	n/a	n/a	n/a	n/a	n/a
2929632	PROB	n/a	LTP284	ltpFR	10	n/a	n/a	n/a	n/a	n/a	n/a	11	2	4	5	n/a	n/a	n/a	n/a	n/a
2931184	PROB	n/a	LTP284	ltpFR	10	n/a	n/a	n/a	n/a	n/a	n/a	16	9	5	2	n/a	n/a	n/a	n/a	n/a
2932861	STOP	n/a	LTP284	ltpFR	10	n/a	n/a	n/a	n/a	n/a	n/a	n/a	n/a	n/a	n/a	n/a	n/a	n/a	n/a	n/a
2934718	REC_START	n/a	LTP284	ltpFR	10	11	n/a	n/a	n/a	n/a	n/a	n/a	0	0	0	n/a	n/a	n/a	n/a	n/a
2937561	REC_WORD	wordpools/wasnorm_wordpool_less_exclusions.txt	LTP284	ltpFR	10	11	0	JUGGLER	763	n/a	1	n/a	0	0	0	n/a	n/a	n/a	n/a	n/a
2942824	REC_WORD	wordpools/wasnorm_wordpool_less_exclusions.txt	LTP284	ltpFR	10	11	1	SCOUT	1252	n/a	1	n/a	0	0	0	n/a	n/a	n/a	n/a	n/a
3044465	START	n/a	LTP284	ltpFR	10	n/a	n/a	n/a	n/a	n/a	n/a	n/a	n/a	n/a	n/a	n/a	n/a	n/a	n/a	n/a
3045970	PROB	n/a	LTP284	ltpFR	10	n/a	n/a	n/a	n/a	n/a	n/a	27	8	8	9	n/a	n/a	n/a	n/a	n/a
3049684	PROB	n/a	LTP284	ltpFR	10	n/a	n/a	n/a	n/a	n/a	n/a	23	9	6	8	n/a	n/a	n/a	n/a	n/a
3053111	PROB	n/a	LTP284	ltpFR	10	n/a	n/a	n/a	n/a	n/a	n/a	10	2	7	1	n/a	n/a	n/a	n/a	n/a
3055623	PROB	n/a	LTP284	ltpFR	10	n/a	n/a	n/a	n/a	n/a	n/a	19	5	6	8	n/a	n/a	n/a	n/a	n/a
3060465	STOP	n/a	LTP284	ltpFR	10	n/a	n/a	n/a	n/a	n/a	n/a	n/a	n/a	n/a	n/a	n/a	n/a	n/a	n/a	n/a
3061662	WORD	wordpools/wasnorm_wordpool_less_exclusions.txt	LTP284	ltpFR	10	12	0	PUDDLE	1140	n/a	0	n/a	0	0	0	1	0.412841796875	0.57763671875	upper	../fonts/amplitud.ttf
3064675	START	n/a	LTP284	ltpFR	10	n/a	n/a	n/a	n/a	n/a	n/a	n/a	n/a	n/a	n/a	n/a	n/a	n/a	n/a	n/a
3065510	PROB	n/a	LTP284	ltpFR	10	n/a	n/a	n/a	n/a	n/a	n/a	10	1	8	1	n/a	n/a	n/a	n/a	n/a
3067585	PROB	n/a	LTP284	ltpFR	10	n/a	n/a	n/a	n/a	n/a	n/a	15	3	6	6	n/a	n/a	n/a	n/a	n/a
3069526	PROB	n/a	LTP284	ltpFR	10	n/a	n/a	n/a	n/a	n/a	n/a	26	9	9	8	n/a	n/a	n/a	n/a	n/a
3071933	PROB	n/a	LTP284	ltpFR	10	n/a	n/a	n/a	n/a	n/a	n/a	9	2	4	3	n/a	n/a	n/a	n/a	n/a
3073808	PROB	n/a	LTP284	ltpFR	10	n/a	n/a	n/a	n/a	n/a	n/a	12	3	4	4	n/a	n/a	n/a	n/a	n/a
3075632	PROB	n/a	LTP284	ltpFR	10	n/a	n/a	n/a	n/a	n/a	n/a	17	3	7	7	n/a	n/a	n/a	n/a	n/a
3078675	PROB	n/a	LTP284	ltpFR	10	n/a	n/a	n/a	n/a	n/a	n/a	15	3	8	4	n/a	n/a	n/a	n/a	n/a
3080413	STOP	n/a	LTP284	ltpFR	10	n/a	n/a	n/a	n/a	n/a	n/a	n/a	n/a	n/a	n/a	n/a	n/a	n/a	n/a	n/a
3081571	WORD	wordpools/wasnorm_wordpool_less_exclusions.txt	LTP284	ltpFR	10	12	0	PEN	1041	n/a	0	n/a	0	0	0	1	0.412841796875	0.57763671875	upper	../fonts/amplitud.ttf
3084583	START	n/a	LTP284	ltpFR	10	n/a	n/a	n/a	n/a	n/a	n/a	n/a	n/a	n/a	n/a	n/a	n/a	n/a	n/a	n/a
3085686	PROB	n/a	LTP284	ltpFR	10	n/a	n/a	n/a	n/a	n/a	n/a	18	5	5	8	n/a	n/a	n/a	n/a	n/a
3087191	PROB	n/a	LTP284	ltpFR	10	n/a	n/a	n/a	n/a	n/a	n/a	21	6	8	7	n/a	n/a	n/a	n/a	n/a
3090586	PROB	n/a	LTP284	ltpFR	10	n/a	n/a	n/a	n/a	n/a	n/a	14	1	6	7	n/a	n/a	n/a	n/a	n/a
3092008	PROB	n/a	LTP284	ltpFR	10	n/a	n/a	n/a	n/a	n/a	n/a	21	4	8	9	n/a	n/a	n/a	n/a	n/a
3094182	PROB	n/a	LTP284	ltpFR	10	n/a	n/a	n/a	n/a	n/a	n/a	9	6	1	2	n/a	n/a	n/a	n/a	n/a
3096257	PROB	n/a	LTP284	ltpFR	10	n/a	n/a	n/a	n/a	n/a	n/a	24	9	6	7	n/a	n/a	n/a	n/a	n/a
3099797	STOP	n/a	LTP284	ltpFR	10	n/a	n/a	n/a	n/a	n/a	n/a	n/a	n/a	n/a	n/a	n/a	n/a	n/a	n/a	n/a
3101630	WORD	wordpools/wasnorm_wordpool_less_exclusions.txt	LTP284	ltpFR	10	12	0	VET	1560	n/a	1	n/a	0	0	0	1	0.412841796875	0.57763671875	upper	../fonts/amplitud.ttf
3104642	START	n/a	LTP284	ltpFR	10	n/a	n/a	n/a	n/a	n/a	n/a	n/a	n/a	n/a	n/a	n/a	n/a	n/a	n/a	n/a
3105545	PROB	n/a	LTP284	ltpFR	10	n/a	n/a	n/a	n/a	n/a	n/a	17	6	6	5	n/a	n/a	n/a	n/a	n/a
3108941	PROB	n/a	LTP284	ltpFR	10	n/a	n/a	n/a	n/a	n/a	n/a	11	2	4	5	n/a	n/a	n/a	n/a	n/a
3111299	PROB	n/a	LTP284	ltpFR	10	n/a	n/a	n/a	n/a	n/a	n/a	9	2	5	2	n/a	n/a	n/a	n/a	n/a
3113340	PROB	n/a	LTP284	ltpFR	10	n/a	n/a	n/a	n/a	n/a	n/a	21	8	8	5	n/a	n/a	n/a	n/a	n/a
3115144	PROB	n/a	LTP284	ltpFR	10	n/a	n/a	n/a	n/a	n/a	n/a	12	3	3	6	n/a	n/a	n/a	n/a	n/a
3116586	PROB	n/a	LTP284	ltpFR	10	n/a	n/a	n/a	n/a	n/a	n/a	10	1	2	7	n/a	n/a	n/a	n/a	n/a
3118256	PROB	n/a	LTP284	ltpFR	10	n/a	n/a	n/a	n/a	n/a	n/a	14	4	6	4	n/a	n/a	n/a	n/a	n/a
3119638	STOP	n/a	LTP284	ltpFR	10	n/a	n/a	n/a	n/a	n/a	n/a	n/a	n/a	n/a	n/a	n/a	n/a	n/a	n/a	n/a
3121705	WORD	wordpools/wasnorm_wordpool_less_exclusions.txt	LTP284	ltpFR	10	12	0	ZOO	1637	n/a	0	n/a	0	0	0	1	0.412841796875	0.57763671875	upper	../fonts/amplitud.ttf
3124717	START	n/a	LTP284	ltpFR	10	n/a	n/a	n/a	n/a	n/a	n/a	n/a	n/a	n/a	n/a	n/a	n/a	n/a	n/a	n/a
3125568	PROB	n/a	LTP284	ltpFR	10	n/a	n/a	n/a	n/a	n/a	n/a	23	9	9	5	n/a	n/a	n/a	n/a	n/a
3129250	PROB	n/a	LTP284	ltpFR	10	n/a	n/a	n/a	n/a	n/a	n/a	11	1	7	3	n/a	n/a	n/a	n/a	n/a
3131155	PROB	n/a	LTP284	ltpFR	10	n/a	n/a	n/a	n/a	n/a	n/a	27	9	9	9	n/a	n/a	n/a	n/a	n/a
3135857	PROB	n/a	LTP284	ltpFR	10	n/a	n/a	n/a	n/a	n/a	n/a	13	1	9	3	n/a	n/a	n/a	n/a	n/a
3140716	STOP	n/a	LTP284	ltpFR	10	n/a	n/a	n/a	n/a	n/a	n/a	n/a	n/a	n/a	n/a	n/a	n/a	n/a	n/a	n/a
3141796	WORD	wordpools/wasnorm_wordpool_less_exclusions.txt	LTP284	ltpFR	10	12	1	ANTLER	29	n/a	0	n/a	0	0	0	0	0.5869140625	0.422607421875	lower	../fonts/zerothre.ttf
3144810	START	n/a	LTP284	ltpFR	10	n/a	n/a	n/a	n/a	n/a	n/a	n/a	n/a	n/a	n/a	n/a	n/a	n/a	n/a	n/a
3145796	PROB	n/a	LTP284	ltpFR	10	n/a	n/a	n/a	n/a	n/a	n/a	11	3	2	6	n/a	n/a	n/a	n/a	n/a
3148689	PROB	n/a	LTP284	ltpFR	10	n/a	n/a	n/a	n/a	n/a	n/a	13	4	5	4	n/a	n/a	n/a	n/a	n/a
3151180	PROB	n/a	LTP284	ltpFR	10	n/a	n/a	n/a	n/a	n/a	n/a	14	5	6	3	n/a	n/a	n/a	n/a	n/a
3153609	PROB	n/a	LTP284	ltpFR	10	n/a	n/a	n/a	n/a	n/a	n/a	11	5	3	3	n/a	n/a	n/a	n/a	n/a
3155414	PROB	n/a	LTP284	ltpFR	10	n/a	n/a	n/a	n/a	n/a	n/a	9	1	3	5	n/a	n/a	n/a	n/a	n/a
3158024	PROB	n/a	LTP284	ltpFR	10	n/a	n/a	n/a	n/a	n/a	n/a	12	9	1	2	n/a	n/a	n/a	n/a	n/a
3159661	STOP	n/a	LTP284	ltpFR	10	n/a	n/a	n/a	n/a	n/a	n/a	n/a	n/a	n/a	n/a	n/a	n/a	n/a	n/a	n/a
3161957	WORD	wordpools/wasnorm_wordpool_less_exclusions.txt	LTP284	ltpFR	10	12	1	GRAVEL	659	n/a	0	n/a	0	0	0	0	0.5869140625	0.422607421875	lower	../fonts/zerothre.ttf
3164969	START	n/a	LTP284	ltpFR	10	n/a	n/a	n/a	n/a	n/a	n/a	n/a	n/a	n/a	n/a	n/a	n/a	n/a	n/a	n/a
3166055	PROB	n/a	LTP284	ltpFR	10	n/a	n/a	n/a	n/a	n/a	n/a	9	2	6	1	n/a	n/a	n/a	n/a	n/a
3168850	PROB	n/a	LTP284	ltpFR	10	n/a	n/a	n/a	n/a	n/a	n/a	19	7	3	9	n/a	n/a	n/a	n/a	n/a
3170824	PROB	n/a	LTP284	ltpFR	10	n/a	n/a	n/a	n/a	n/a	n/a	11	1	1	9	n/a	n/a	n/a	n/a	n/a
3172276	PROB	n/a	LTP284	ltpFR	10	n/a	n/a	n/a	n/a	n/a	n/a	23	7	7	9	n/a	n/a	n/a	n/a	n/a
3174452	PROB	n/a	LTP284	ltpFR	10	n/a	n/a	n/a	n/a	n/a	n/a	10	1	4	5	n/a	n/a	n/a	n/a	n/a
3176074	PROB	n/a	LTP284	ltpFR	10	n/a	n/a	n/a	n/a	n/a	n/a	21	4	9	8	n/a	n/a	n/a	n/a	n/a
3179582	STOP	n/a	LTP284	ltpFR	10	n/a	n/a	n/a	n/a	n/a	n/a	n/a	n/a	n/a	n/a	n/a	n/a	n/a	n/a	n/a
3181849	WORD	wordpools/wasnorm_wordpool_less_exclusions.txt	LTP284	ltpFR	10	12	1	WARRIOR	1589	n/a	1	n/a	0	0	0	0	0.5869140625	0.422607421875	lower	../fonts/zerothre.ttf
3184861	START	n/a	LTP284	ltpFR	10	n/a	n/a	n/a	n/a	n/a	n/a	n/a	n/a	n/a	n/a	n/a	n/a	n/a	n/a	n/a
3185912	PROB	n/a	LTP284	ltpFR	10	n/a	n/a	n/a	n/a	n/a	n/a	16	5	4	7	n/a	n/a	n/a	n/a	n/a
3187771	PROB	n/a	LTP284	ltpFR	10	n/a	n/a	n/a	n/a	n/a	n/a	13	2	3	8	n/a	n/a	n/a	n/a	n/a
3192673	PROB	n/a	LTP284	ltpFR	10	n/a	n/a	n/a	n/a	n/a	n/a	14	5	4	5	n/a	n/a	n/a	n/a	n/a
3194360	PROB	n/a	LTP284	ltpFR	10	n/a	n/a	n/a	n/a	n/a	n/a	9	4	3	2	n/a	n/a	n/a	n/a	n/a
3196655	PROB	n/a	LTP284	ltpFR	10	n/a	n/a	n/a	n/a	n/a	n/a	14	5	4	5	n/a	n/a	n/a	n/a	n/a
3200860	STOP	n/a	LTP284	ltpFR	10	n/a	n/a	n/a	n/a	n/a	n/a	n/a	n/a	n/a	n/a	n/a	n/a	n/a	n/a	n/a
3201824	WORD	wordpools/wasnorm_wordpool_less_exclusions.txt	LTP284	ltpFR	10	12	1	DIAPER	459	n/a	0	n/a	0	0	0	0	0.5869140625	0.422607421875	lower	../fonts/zerothre.ttf
3204836	START	n/a	LTP284	ltpFR	10	n/a	n/a	n/a	n/a	n/a	n/a	n/a	n/a	n/a	n/a	n/a	n/a	n/a	n/a	n/a
3205705	PROB	n/a	LTP284	ltpFR	10	n/a	n/a	n/a	n/a	n/a	n/a	10	2	7	1	n/a	n/a	n/a	n/a	n/a
3207613	PROB	n/a	LTP284	ltpFR	10	n/a	n/a	n/a	n/a	n/a	n/a	12	6	2	4	n/a	n/a	n/a	n/a	n/a
3209769	PROB	n/a	LTP284	ltpFR	10	n/a	n/a	n/a	n/a	n/a	n/a	16	5	3	8	n/a	n/a	n/a	n/a	n/a
3211475	PROB	n/a	LTP284	ltpFR	10	n/a	n/a	n/a	n/a	n/a	n/a	16	5	9	2	n/a	n/a	n/a	n/a	n/a
3214806	PROB	n/a	LTP284	ltpFR	10	n/a	n/a	n/a	n/a	n/a	n/a	19	2	9	8	n/a	n/a	n/a	n/a	n/a
3217315	PROB	n/a	LTP284	ltpFR	10	n/a	n/a	n/a	n/a	n/a	n/a	10	3	3	4	n/a	n/a	n/a	n/a	n/a
3219862	STOP	n/a	LTP284	ltpFR	10	n/a	n/a	n/a	n/a	n/a	n/a	n/a	n/a	n/a	n/a	n/a	n/a	n/a	n/a	n/a
3221967	WORD	wordpools/wasnorm_wordpool_less_exclusions.txt	LTP284	ltpFR	10	12	0	BASSINET	97	n/a	1	n/a	0	0	0	1	0.412841796875	0.57763671875	upper	../fonts/amplitud.ttf
3224979	START	n/a	LTP284	ltpFR	10	n/a	n/a	n/a	n/a	n/a	n/a	n/a	n/a	n/a	n/a	n/a	n/a	n/a	n/a	n/a
3226015	PROB	n/a	LTP284	ltpFR	10	n/a	n/a	n/a	n/a	n/a	n/a	13	6	6	1	n/a	n/a	n/a	n/a	n/a
3227619	PROB	n/a	LTP284	ltpFR	10	n/a	n/a	n/a	n/a	n/a	n/a	9	5	1	3	n/a	n/a	n/a	n/a	n/a
3230297	PROB	n/a	LTP284	ltpFR	10	n/a	n/a	n/a	n/a	n/a	n/a	15	4	5	6	n/a	n/a	n/a	n/a	n/a
3232353	PROB	n/a	LTP284	ltpFR	10	n/a	n/a	n/a	n/a	n/a	n/a	24	9	7	8	n/a	n/a	n/a	n/a	n/a
3235163	PROB	n/a	LTP284	ltpFR	10	n/a	n/a	n/a	n/a	n/a	n/a	16	8	2	6	n/a	n/a	n/a	n/a	n/a
3236605	PROB	n/a	LTP284	ltpFR	10	n/a	n/a	n/a	n/a	n/a	n/a	15	8	5	2	n/a	n/a	n/a	n/a	n/a
3237977	PROB	n/a	LTP284	ltpFR	10	n/a	n/a	n/a	n/a	n/a	n/a	11	7	3	1	n/a	n/a	n/a	n/a	n/a
3240979	STOP	n/a	LTP284	ltpFR	10	n/a	n/a	n/a	n/a	n/a	n/a	n/a	n/a	n/a	n/a	n/a	n/a	n/a	n/a	n/a
3242041	WORD	wordpools/wasnorm_wordpool_less_exclusions.txt	LTP284	ltpFR	10	12	0	WOLF	1619	n/a	1	n/a	0	0	0	1	0.412841796875	0.57763671875	upper	../fonts/amplitud.ttf
3245053	START	n/a	LTP284	ltpFR	10	n/a	n/a	n/a	n/a	n/a	n/a	n/a	n/a	n/a	n/a	n/a	n/a	n/a	n/a	n/a
3246257	PROB	n/a	LTP284	ltpFR	10	n/a	n/a	n/a	n/a	n/a	n/a	15	7	5	3	n/a	n/a	n/a	n/a	n/a
3247714	PROB	n/a	LTP284	ltpFR	10	n/a	n/a	n/a	n/a	n/a	n/a	23	9	6	8	n/a	n/a	n/a	n/a	n/a
3251526	PROB	n/a	LTP284	ltpFR	10	n/a	n/a	n/a	n/a	n/a	n/a	16	6	5	5	n/a	n/a	n/a	n/a	n/a
3252967	PROB	n/a	LTP284	ltpFR	10	n/a	n/a	n/a	n/a	n/a	n/a	10	2	2	6	n/a	n/a	n/a	n/a	n/a
3258404	PROB	n/a	LTP284	ltpFR	10	n/a	n/a	n/a	n/a	n/a	n/a	14	8	4	2	n/a	n/a	n/a	n/a	n/a
3260092	STOP	n/a	LTP284	ltpFR	10	n/a	n/a	n/a	n/a	n/a	n/a	n/a	n/a	n/a	n/a	n/a	n/a	n/a	n/a	n/a
3262117	WORD	wordpools/wasnorm_wordpool_less_exclusions.txt	LTP284	ltpFR	10	12	0	KIDNEY	776	n/a	0	n/a	0	0	0	1	0.412841796875	0.57763671875	upper	../fonts/amplitud.ttf
3265129	START	n/a	LTP284	ltpFR	10	n/a	n/a	n/a	n/a	n/a	n/a	n/a	n/a	n/a	n/a	n/a	n/a	n/a	n/a	n/a
3266316	PROB	n/a	LTP284	ltpFR	10	n/a	n/a	n/a	n/a	n/a	n/a	15	7	4	4	n/a	n/a	n/a	n/a	n/a
3269412	PROB	n/a	LTP284	ltpFR	10	n/a	n/a	n/a	n/a	n/a	n/a	13	3	3	7	n/a	n/a	n/a	n/a	n/a
3271637	PROB	n/a	LTP284	ltpFR	10	n/a	n/a	n/a	n/a	n/a	n/a	22	5	9	8	n/a	n/a	n/a	n/a	n/a
3275367	PROB	n/a	LTP284	ltpFR	10	n/a	n/a	n/a	n/a	n/a	n/a	11	1	8	2	n/a	n/a	n/a	n/a	n/a
3277157	PROB	n/a	LTP284	ltpFR	10	n/a	n/a	n/a	n/a	n/a	n/a	18	9	3	6	n/a	n/a	n/a	n/a	n/a
3278980	PROB	n/a	LTP284	ltpFR	10	n/a	n/a	n/a	n/a	n/a	n/a	14	1	9	4	n/a	n/a	n/a	n/a	n/a
3280349	STOP	n/a	LTP284	ltpFR	10	n/a	n/a	n/a	n/a	n/a	n/a	n/a	n/a	n/a	n/a	n/a	n/a	n/a	n/a	n/a
3282010	WORD	wordpools/wasnorm_wordpool_less_exclusions.txt	LTP284	ltpFR	10	12	0	BOULDER	155	n/a	0	n/a	0	0	0	1	0.412841796875	0.57763671875	upper	../fonts/amplitud.ttf
3285022	START	n/a	LTP284	ltpFR	10	n/a	n/a	n/a	n/a	n/a	n/a	n/a	n/a	n/a	n/a	n/a	n/a	n/a	n/a	n/a
3286225	PROB	n/a	LTP284	ltpFR	10	n/a	n/a	n/a	n/a	n/a	n/a	12	3	1	8	n/a	n/a	n/a	n/a	n/a
3287932	PROB	n/a	LTP284	ltpFR	10	n/a	n/a	n/a	n/a	n/a	n/a	21	6	6	9	n/a	n/a	n/a	n/a	n/a
3290307	PROB	n/a	LTP284	ltpFR	10	n/a	n/a	n/a	n/a	n/a	n/a	12	5	6	1	n/a	n/a	n/a	n/a	n/a
3292214	PROB	n/a	LTP284	ltpFR	10	n/a	n/a	n/a	n/a	n/a	n/a	18	8	6	4	n/a	n/a	n/a	n/a	n/a
3294873	PROB	n/a	LTP284	ltpFR	10	n/a	n/a	n/a	n/a	n/a	n/a	8	1	5	2	n/a	n/a	n/a	n/a	n/a
3301022	STOP	n/a	LTP284	ltpFR	10	n/a	n/a	n/a	n/a	n/a	n/a	n/a	n/a	n/a	n/a	n/a	n/a	n/a	n/a	n/a
3302201	WORD	wordpools/wasnorm_wordpool_less_exclusions.txt	LTP284	ltpFR	10	12	1	STAIRS	1367	n/a	0	n/a	0	0	0	0	0.5869140625	0.422607421875	lower	../fonts/zerothre.ttf
3305213	START	n/a	LTP284	ltpFR	10	n/a	n/a	n/a	n/a	n/a	n/a	n/a	n/a	n/a	n/a	n/a	n/a	n/a	n/a	n/a
3306083	PROB	n/a	LTP284	ltpFR	10	n/a	n/a	n/a	n/a	n/a	n/a	13	8	1	4	n/a	n/a	n/a	n/a	n/a
3308325	PROB	n/a	LTP284	ltpFR	10	n/a	n/a	n/a	n/a	n/a	n/a	14	2	7	5	n/a	n/a	n/a	n/a	n/a
3311720	PROB	n/a	LTP284	ltpFR	10	n/a	n/a	n/a	n/a	n/a	n/a	15	7	1	7	n/a	n/a	n/a	n/a	n/a
3313646	PROB	n/a	LTP284	ltpFR	10	n/a	n/a	n/a	n/a	n/a	n/a	9	2	3	4	n/a	n/a	n/a	n/a	n/a
3317610	PROB	n/a	LTP284	ltpFR	10	n/a	n/a	n/a	n/a	n/a	n/a	12	1	7	4	n/a	n/a	n/a	n/a	n/a
3321213	STOP	n/a	LTP284	ltpFR	10	n/a	n/a	n/a	n/a	n/a	n/a	n/a	n/a	n/a	n/a	n/a	n/a	n/a	n/a	n/a
3322294	WORD	wordpools/wasnorm_wordpool_less_exclusions.txt	LTP284	ltpFR	10	12	1	SAUSAGE	1238	n/a	n/a	n/a	0	0	0	0	0.5869140625	0.422607421875	lower	../fonts/zerothre.ttf
3325339	SLOW_MSG	n/a	LTP284	ltpFR	10	12	n/a	n/a	n/a	n/a	n/a	n/a	0	0	0	n/a	n/a	n/a	n/a	n/a
3326863	START	n/a	LTP284	ltpFR	10	n/a	n/a	n/a	n/a	n/a	n/a	n/a	n/a	n/a	n/a	n/a	n/a	n/a	n/a	n/a
3328049	PROB	n/a	LTP284	ltpFR	10	n/a	n/a	n/a	n/a	n/a	n/a	19	8	2	9	n/a	n/a	n/a	n/a	n/a
3329520	PROB	n/a	LTP284	ltpFR	10	n/a	n/a	n/a	n/a	n/a	n/a	15	7	5	3	n/a	n/a	n/a	n/a	n/a
3331544	PROB	n/a	LTP284	ltpFR	10	n/a	n/a	n/a	n/a	n/a	n/a	21	9	9	3	n/a	n/a	n/a	n/a	n/a
3333521	PROB	n/a	LTP284	ltpFR	10	n/a	n/a	n/a	n/a	n/a	n/a	20	9	5	6	n/a	n/a	n/a	n/a	n/a
3336077	PROB	n/a	LTP284	ltpFR	10	n/a	n/a	n/a	n/a	n/a	n/a	16	4	6	6	n/a	n/a	n/a	n/a	n/a
3337603	PROB	n/a	LTP284	ltpFR	10	n/a	n/a	n/a	n/a	n/a	n/a	6	1	3	2	n/a	n/a	n/a	n/a	n/a
3339474	PROB	n/a	LTP284	ltpFR	10	n/a	n/a	n/a	n/a	n/a	n/a	15	8	3	4	n/a	n/a	n/a	n/a	n/a
3341446	STOP	n/a	LTP284	ltpFR	10	n/a	n/a	n/a	n/a	n/a	n/a	n/a	n/a	n/a	n/a	n/a	n/a	n/a	n/a	n/a
3344010	WORD	wordpools/wasnorm_wordpool_less_exclusions.txt	LTP284	ltpFR	10	12	1	FIST	572	n/a	1	n/a	0	0	0	0	0.5869140625	0.422607421875	lower	../fonts/zerothre.ttf
3347022	START	n/a	LTP284	ltpFR	10	n/a	n/a	n/a	n/a	n/a	n/a	n/a	n/a	n/a	n/a	n/a	n/a	n/a	n/a	n/a
3348074	PROB	n/a	LTP284	ltpFR	10	n/a	n/a	n/a	n/a	n/a	n/a	15	2	6	7	n/a	n/a	n/a	n/a	n/a
3349982	PROB	n/a	LTP284	ltpFR	10	n/a	n/a	n/a	n/a	n/a	n/a	20	2	9	9	n/a	n/a	n/a	n/a	n/a
3352288	PROB	n/a	LTP284	ltpFR	10	n/a	n/a	n/a	n/a	n/a	n/a	20	7	5	8	n/a	n/a	n/a	n/a	n/a
3354181	PROB	n/a	LTP284	ltpFR	10	n/a	n/a	n/a	n/a	n/a	n/a	18	4	5	9	n/a	n/a	n/a	n/a	n/a
3356136	PROB	n/a	LTP284	ltpFR	10	n/a	n/a	n/a	n/a	n/a	n/a	15	7	6	2	n/a	n/a	n/a	n/a	n/a
3359367	PROB	n/a	LTP284	ltpFR	10	n/a	n/a	n/a	n/a	n/a	n/a	19	5	5	9	n/a	n/a	n/a	n/a	n/a
3361289	PROB	n/a	LTP284	ltpFR	10	n/a	n/a	n/a	n/a	n/a	n/a	10	3	1	6	n/a	n/a	n/a	n/a	n/a
3362933	STOP	n/a	LTP284	ltpFR	10	n/a	n/a	n/a	n/a	n/a	n/a	n/a	n/a	n/a	n/a	n/a	n/a	n/a	n/a	n/a
3363868	WORD	wordpools/wasnorm_wordpool_less_exclusions.txt	LTP284	ltpFR	10	12	1	PRODUCER	1129	n/a	1	n/a	0	0	0	0	0.5869140625	0.422607421875	lower	../fonts/zerothre.ttf
3366880	START	n/a	LTP284	ltpFR	10	n/a	n/a	n/a	n/a	n/a	n/a	n/a	n/a	n/a	n/a	n/a	n/a	n/a	n/a	n/a
3367833	PROB	n/a	LTP284	ltpFR	10	n/a	n/a	n/a	n/a	n/a	n/a	17	5	6	6	n/a	n/a	n/a	n/a	n/a
3370778	PROB	n/a	LTP284	ltpFR	10	n/a	n/a	n/a	n/a	n/a	n/a	19	7	5	7	n/a	n/a	n/a	n/a	n/a
3373152	PROB	n/a	LTP284	ltpFR	10	n/a	n/a	n/a	n/a	n/a	n/a	11	3	1	7	n/a	n/a	n/a	n/a	n/a
3375008	PROB	n/a	LTP284	ltpFR	10	n/a	n/a	n/a	n/a	n/a	n/a	23	5	9	9	n/a	n/a	n/a	n/a	n/a
3378221	PROB	n/a	LTP284	ltpFR	10	n/a	n/a	n/a	n/a	n/a	n/a	16	2	7	7	n/a	n/a	n/a	n/a	n/a
3380344	PROB	n/a	LTP284	ltpFR	10	n/a	n/a	n/a	n/a	n/a	n/a	12	5	3	4	n/a	n/a	n/a	n/a	n/a
3382284	STOP	n/a	LTP284	ltpFR	10	n/a	n/a	n/a	n/a	n/a	n/a	n/a	n/a	n/a	n/a	n/a	n/a	n/a	n/a	n/a
3384714	REC_START	n/a	LTP284	ltpFR	10	12	n/a	n/a	n/a	n/a	n/a	n/a	0	0	0	n/a	n/a	n/a	n/a	n/a
3456911	REC_WORD_VV	wordpools/wasnorm_wordpool_less_exclusions.txt	LTP284	ltpFR	10	12	n/a	<>	-1	n/a	n/a	n/a	0	0	0	n/a	n/a	n/a	n/a	n/a
3493591	REC_START	n/a	LTP284	ltpFR	10	n/a	n/a	n/a	n/a	n/a	n/a	n/a	0	0	0	n/a	n/a	n/a	n/a	n/a
3494793	FFR_REC_WORD	wordpools/wasnorm_wordpool_less_exclusions.txt	LTP284	ltpFR	10	n/a	0	LOG	841	n/a	1	n/a	0	0	0	n/a	n/a	n/a	n/a	n/a
3496275	FFR_REC_WORD	wordpools/wasnorm_wordpool_less_exclusions.txt	LTP284	ltpFR	10	n/a	0	LEAF	808	n/a	0	n/a	0	0	0	n/a	n/a	n/a	n/a	n/a
3497622	FFR_REC_WORD	wordpools/wasnorm_wordpool_less_exclusions.txt	LTP284	ltpFR	10	n/a	0	WEB	1598	n/a	0	n/a	0	0	0	n/a	n/a	n/a	n/a	n/a
3499103	FFR_REC_WORD	wordpools/wasnorm_wordpool_less_exclusions.txt	LTP284	ltpFR	10	n/a	0	CARAVAN	242	n/a	1	n/a	0	0	0	n/a	n/a	n/a	n/a	n/a
3502086	FFR_REC_WORD	wordpools/wasnorm_wordpool_less_exclusions.txt	LTP284	ltpFR	10	n/a	0	LUMBER	848	n/a	1	n/a	0	0	0	n/a	n/a	n/a	n/a	n/a
3505339	FFR_REC_WORD	wordpools/wasnorm_wordpool_less_exclusions.txt	LTP284	ltpFR	10	n/a	0	GANG	619	n/a	1	n/a	0	0	0	n/a	n/a	n/a	n/a	n/a
3506462	FFR_REC_WORD	wordpools/wasnorm_wordpool_less_exclusions.txt	LTP284	ltpFR	10	n/a	0	COMMITTEE	355	n/a	1	n/a	0	0	0	n/a	n/a	n/a	n/a	n/a
3509854	FFR_REC_WORD	wordpools/wasnorm_wordpool_less_exclusions.txt	LTP284	ltpFR	10	n/a	0	COBBLER	335	n/a	0	n/a	0	0	0	n/a	n/a	n/a	n/a	n/a
3510951	FFR_REC_WORD	wordpools/wasnorm_wordpool_less_exclusions.txt	LTP284	ltpFR	10	n/a	0	STRAWBERRY	1391	n/a	0	n/a	0	0	0	n/a	n/a	n/a	n/a	n/a
3512443	FFR_REC_WORD	wordpools/wasnorm_wordpool_less_exclusions.txt	LTP284	ltpFR	10	n/a	0	PILLOW	1069	n/a	1	n/a	0	0	0	n/a	n/a	n/a	n/a	n/a
3513830	FFR_REC_WORD	wordpools/wasnorm_wordpool_less_exclusions.txt	LTP284	ltpFR	10	n/a	0	MATTRESS	879	n/a	1	n/a	0	0	0	n/a	n/a	n/a	n/a	n/a
3515775	FFR_REC_WORD	wordpools/wasnorm_wordpool_less_exclusions.txt	LTP284	ltpFR	10	n/a	0	GRADUATE	653	n/a	1	n/a	0	0	0	n/a	n/a	n/a	n/a	n/a
3517137	FFR_REC_WORD	wordpools/wasnorm_wordpool_less_exclusions.txt	LTP284	ltpFR	10	n/a	1	TEACHER	1440	n/a	1	n/a	0	0	0	n/a	n/a	n/a	n/a	n/a
3530567	FFR_REC_WORD	wordpools/wasnorm_wordpool_less_exclusions.txt	LTP284	ltpFR	10	n/a	0	MOON	914	n/a	1	n/a	0	0	0	n/a	n/a	n/a	n/a	n/a
3532592	FFR_REC_WORD	wordpools/wasnorm_wordpool_less_exclusions.txt	LTP284	ltpFR	10	n/a	1	ROAD	1196	n/a	1	n/a	0	0	0	n/a	n/a	n/a	n/a	n/a
3715656	FFR_REC_WORD	wordpools/wasnorm_wordpool_less_exclusions.txt	LTP284	ltpFR	10	n/a	n/a	DOG	480	n/a	n/a	n/a	0	0	0	n/a	n/a	n/a	n/a	n/a
3720804	FFR_REC_WORD	wordpools/wasnorm_wordpool_less_exclusions.txt	LTP284	ltpFR	10	n/a	0	ROOT	1210	n/a	0	n/a	0	0	0	n/a	n/a	n/a	n/a	n/a
3722276	FFR_REC_WORD	wordpools/wasnorm_wordpool_less_exclusions.txt	LTP284	ltpFR	10	n/a	0	BRIDGE	174	n/a	1	n/a	0	0	0	n/a	n/a	n/a	n/a	n/a
4155301	REC_START	n/a	LTP284	ltpFR	10	1	n/a	n/a	n/a	n/a	n/a	n/a	0	0	0	n/a	n/a	n/a	n/a	n/a
4155350	RECOG_LURE	n/a	LTP284	ltpFR	10	1	n/a	DETERGENT	455	4	n/a	n/a	0	0	0	n/a	n/a	n/a	n/a	n/a
4156856	RECOG_RESP	n/a	LTP284	ltpFR	10	1	n/a	DETERGENT	455	n/a	n/a	n/a	0	0	0	n/a	n/a	n/a	n/a	n/a
4157551	RECOG_CONF	n/a	LTP284	ltpFR	10	1	n/a	DETERGENT	455	4	n/a	n/a	0	0	0	n/a	n/a	n/a	n/a	n/a
4159450	RECOG_LURE	n/a	LTP284	ltpFR	10	1	n/a	TAPE	1433	2	n/a	n/a	0	0	0	n/a	n/a	n/a	n/a	n/a
4160311	RECOG_RESP	n/a	LTP284	ltpFR	10	1	n/a	TAPE	1433	n/a	n/a	n/a	0	0	0	n/a	n/a	n/a	n/a	n/a
4160861	RECOG_CONF	n/a	LTP284	ltpFR	10	1	n/a	TAPE	1433	2	n/a	n/a	0	0	0	n/a	n/a	n/a	n/a	n/a
4162612	RECOG_LURE	n/a	LTP284	ltpFR	10	1	n/a	KIWI	781	5	n/a	n/a	0	0	0	n/a	n/a	n/a	n/a	n/a
4163331	RECOG_RESP	n/a	LTP284	ltpFR	10	1	n/a	KIWI	781	n/a	n/a	n/a	0	0	0	n/a	n/a	n/a	n/a	n/a
4163765	RECOG_CONF	n/a	LTP284	ltpFR	10	1	n/a	KIWI	781	5	n/a	n/a	0	0	0	n/a	n/a	n/a	n/a	n/a
4165456	RECOG_LURE	n/a	LTP284	ltpFR	10	1	n/a	TABLET	1427	2	n/a	n/a	0	0	0	n/a	n/a	n/a	n/a	n/a
4166012	RECOG_RESP	n/a	LTP284	ltpFR	10	1	n/a	TABLET	1427	n/a	n/a	n/a	0	0	0	n/a	n/a	n/a	n/a	n/a
4166571	RECOG_CONF	n/a	LTP284	ltpFR	10	1	n/a	TABLET	1427	2	n/a	n/a	0	0	0	n/a	n/a	n/a	n/a	n/a
4168399	RECOG_LURE	n/a	LTP284	ltpFR	10	1	n/a	VACUUM	1543	3	n/a	n/a	0	0	0	n/a	n/a	n/a	n/a	n/a
4169031	RECOG_RESP	n/a	LTP284	ltpFR	10	1	n/a	VACUUM	1543	n/a	n/a	n/a	0	0	0	n/a	n/a	n/a	n/a	n/a
4169541	RECOG_CONF	n/a	LTP284	ltpFR	10	1	n/a	VACUUM	1543	3	n/a	n/a	0	0	0	n/a	n/a	n/a	n/a	n/a
4171174	RECOG_TARGET	n/a	LTP284	ltpFR	10	1	1	NEWSPAPER	948	1	0	n/a	0	0	0	n/a	n/a	n/a	n/a	n/a
4171831	RECOG_RESP	n/a	LTP284	ltpFR	10	1	1	NEWSPAPER	948	n/a	0	n/a	0	0	0	n/a	n/a	n/a	n/a	n/a
4172531	RECOG_CONF	n/a	LTP284	ltpFR	10	1	1	NEWSPAPER	948	1	0	n/a	0	0	0	n/a	n/a	n/a	n/a	n/a
4174238	RECOG_LURE	n/a	LTP284	ltpFR	10	1	n/a	BOAT	144	1	n/a	n/a	0	0	0	n/a	n/a	n/a	n/a	n/a
4174866	RECOG_RESP	n/a	LTP284	ltpFR	10	1	n/a	BOAT	144	n/a	n/a	n/a	0	0	0	n/a	n/a	n/a	n/a	n/a
4175511	RECOG_CONF	n/a	LTP284	ltpFR	10	1	n/a	BOAT	144	1	n/a	n/a	0	0	0	n/a	n/a	n/a	n/a	n/a
4177149	RECOG_TARGET	n/a	LTP284	ltpFR	10	1	0	DOLPHIN	483	5	1	n/a	0	0	0	n/a	n/a	n/a	n/a	n/a
4177801	RECOG_RESP	n/a	LTP284	ltpFR	10	1	0	DOLPHIN	483	n/a	1	n/a	0	0	0	n/a	n/a	n/a	n/a	n/a
4178193	RECOG_CONF	n/a	LTP284	ltpFR	10	1	0	DOLPHIN	483	5	1	n/a	0	0	0	n/a	n/a	n/a	n/a	n/a
4179994	RECOG_LURE	n/a	LTP284	ltpFR	10	1	n/a	OINTMENT	974	3	n/a	n/a	0	0	0	n/a	n/a	n/a	n/a	n/a
4180792	RECOG_RESP	n/a	LTP284	ltpFR	10	1	n/a	OINTMENT	974	n/a	n/a	n/a	0	0	0	n/a	n/a	n/a	n/a	n/a
4181511	RECOG_CONF	n/a	LTP284	ltpFR	10	1	n/a	OINTMENT	974	3	n/a	n/a	0	0	0	n/a	n/a	n/a	n/a	n/a
4183440	RECOG_TARGET	n/a	LTP284	ltpFR	10	1	0	BRAKE	166	5	0	n/a	0	0	0	n/a	n/a	n/a	n/a	n/a
4184206	RECOG_RESP	n/a	LTP284	ltpFR	10	1	0	BRAKE	166	n/a	0	n/a	0	0	0	n/a	n/a	n/a	n/a	n/a
4184661	RECOG_CONF	n/a	LTP284	ltpFR	10	1	0	BRAKE	166	5	0	n/a	0	0	0	n/a	n/a	n/a	n/a	n/a
4186435	RECOG_LURE	n/a	LTP284	ltpFR	10	1	n/a	AUNT	60	1	n/a	n/a	0	0	0	n/a	n/a	n/a	n/a	n/a
4187211	RECOG_RESP	n/a	LTP284	ltpFR	10	1	n/a	AUNT	60	n/a	n/a	n/a	0	0	0	n/a	n/a	n/a	n/a	n/a
4187891	RECOG_CONF	n/a	LTP284	ltpFR	10	1	n/a	AUNT	60	1	n/a	n/a	0	0	0	n/a	n/a	n/a	n/a	n/a
4189798	RECOG_LURE	n/a	LTP284	ltpFR	10	1	n/a	DRAWER	493	3	n/a	n/a	0	0	0	n/a	n/a	n/a	n/a	n/a
4190826	RECOG_RESP	n/a	LTP284	ltpFR	10	1	n/a	DRAWER	493	n/a	n/a	n/a	0	0	0	n/a	n/a	n/a	n/a	n/a
4191831	RECOG_CONF	n/a	LTP284	ltpFR	10	1	n/a	DRAWER	493	3	n/a	n/a	0	0	0	n/a	n/a	n/a	n/a	n/a
4193528	RECOG_LURE	n/a	LTP284	ltpFR	10	1	n/a	WORKER	1621	2	n/a	n/a	0	0	0	n/a	n/a	n/a	n/a	n/a
