onset	duration	trial_type	sample	stim_file	subject	experiment	session	trial	task	item_name	item_num	recog_conf	resp	answer	test_x	test_y	test_z	color_b	color_g	color_r	case	font
258.296	n/a	SESS_START	129148	n/a	LTP120	ltpFR	11	n/a	n/a	n/a	n/a	5	n/a	n/a	0	0	0	n/a	n/a	n/a	n/a	n/a
316.402	n/a	START	158201	n/a	LTP120	ltpFR	11	n/a	n/a	n/a	n/a	n/a	n/a	n/a	n/a	n/a	n/a	n/a	n/a	n/a	n/a	n/a
316.426	n/a	PROB	158213	n/a	LTP120	ltpFR	11	n/a	n/a	n/a	n/a	n/a	n/a	12	2	4	6	n/a	n/a	n/a	n/a	n/a
317.692	n/a	PROB	158846	n/a	LTP120	ltpFR	11	n/a	n/a	n/a	n/a	n/a	n/a	21	9	9	3	n/a	n/a	n/a	n/a	n/a
319.59	n/a	PROB	159795	n/a	LTP120	ltpFR	11	n/a	n/a	n/a	n/a	n/a	n/a	19	7	9	7	n/a	n/a	n/a	n/a	n/a
322.344	n/a	PROB	161172	n/a	LTP120	ltpFR	11	n/a	n/a	n/a	n/a	n/a	n/a	17	6	2	9	n/a	n/a	n/a	n/a	n/a
324.8	n/a	PROB	162400	n/a	LTP120	ltpFR	11	n/a	n/a	n/a	n/a	n/a	n/a	18	3	6	9	n/a	n/a	n/a	n/a	n/a
326.14	n/a	PROB	163070	n/a	LTP120	ltpFR	11	n/a	n/a	n/a	n/a	n/a	n/a	17	3	8	6	n/a	n/a	n/a	n/a	n/a
328.704	n/a	PROB	164352	n/a	LTP120	ltpFR	11	n/a	n/a	n/a	n/a	n/a	n/a	22	7	7	8	n/a	n/a	n/a	n/a	n/a
331.008	n/a	PROB	165504	n/a	LTP120	ltpFR	11	n/a	n/a	n/a	n/a	n/a	n/a	7	4	1	2	n/a	n/a	n/a	n/a	n/a
332.442	n/a	PROB	166221	n/a	LTP120	ltpFR	11	n/a	n/a	n/a	n/a	n/a	n/a	11	1	4	6	n/a	n/a	n/a	n/a	n/a
333.632	n/a	PROB	166816	n/a	LTP120	ltpFR	11	n/a	n/a	n/a	n/a	n/a	n/a	19	9	2	8	n/a	n/a	n/a	n/a	n/a
335.346	n/a	STOP	167673	n/a	LTP120	ltpFR	11	n/a	n/a	n/a	n/a	n/a	n/a	n/a	n/a	n/a	n/a	n/a	n/a	n/a	n/a	n/a
380.512	n/a	WORD	190256	wordpools/wasnorm_wordpool.txt	LTP120	ltpFR	11	1	0	LEAF	808	n/a	0	n/a	0	0	0	1	0.412841796875	0.57763671875	upper	../fonts/amplitud.ttf
384.69	n/a	WORD	192345	wordpools/wasnorm_wordpool.txt	LTP120	ltpFR	11	1	0	ASIA	46	n/a	1	n/a	0	0	0	1	0.412841796875	0.57763671875	upper	../fonts/amplitud.ttf
388.776	n/a	WORD	194388	wordpools/wasnorm_wordpool.txt	LTP120	ltpFR	11	1	0	CARDINAL	244	n/a	0	n/a	0	0	0	1	0.412841796875	0.57763671875	upper	../fonts/amplitud.ttf
392.962	n/a	WORD	196481	wordpools/wasnorm_wordpool.txt	LTP120	ltpFR	11	1	0	MONASTERY	907	n/a	1	n/a	0	0	0	1	0.412841796875	0.57763671875	upper	../fonts/amplitud.ttf
397.034	n/a	WORD	198517	wordpools/wasnorm_wordpool.txt	LTP120	ltpFR	11	1	0	MONUMENT	913	n/a	1	n/a	0	0	0	1	0.412841796875	0.57763671875	upper	../fonts/amplitud.ttf
401.196	n/a	WORD	200598	wordpools/wasnorm_wordpool.txt	LTP120	ltpFR	11	1	0	BLUEPRINT	142	n/a	0	n/a	0	0	0	1	0.412841796875	0.57763671875	upper	../fonts/amplitud.ttf
405.05	n/a	WORD	202525	wordpools/wasnorm_wordpool.txt	LTP120	ltpFR	11	1	0	CONSOLE	364	n/a	0	n/a	0	0	0	1	0.412841796875	0.57763671875	upper	../fonts/amplitud.ttf
408.894	n/a	WORD	204447	wordpools/wasnorm_wordpool.txt	LTP120	ltpFR	11	1	0	JAPAN	749	n/a	1	n/a	0	0	0	1	0.412841796875	0.57763671875	upper	../fonts/amplitud.ttf
413.022	n/a	WORD	206511	wordpools/wasnorm_wordpool.txt	LTP120	ltpFR	11	1	0	SPONGE	1355	n/a	0	n/a	0	0	0	1	0.412841796875	0.57763671875	upper	../fonts/amplitud.ttf
416.876	n/a	WORD	208438	wordpools/wasnorm_wordpool.txt	LTP120	ltpFR	11	1	0	OCEAN	970	n/a	1	n/a	0	0	0	1	0.412841796875	0.57763671875	upper	../fonts/amplitud.ttf
420.722	n/a	WORD	210361	wordpools/wasnorm_wordpool.txt	LTP120	ltpFR	11	1	0	DESK	452	n/a	1	n/a	0	0	0	1	0.412841796875	0.57763671875	upper	../fonts/amplitud.ttf
424.892	n/a	WORD	212446	wordpools/wasnorm_wordpool.txt	LTP120	ltpFR	11	1	0	POND	1101	n/a	0	n/a	0	0	0	1	0.412841796875	0.57763671875	upper	../fonts/amplitud.ttf
428.88	n/a	WORD	214440	wordpools/wasnorm_wordpool.txt	LTP120	ltpFR	11	1	0	SILVERWARE	1308	n/a	0	n/a	0	0	0	1	0.412841796875	0.57763671875	upper	../fonts/amplitud.ttf
433.094	n/a	WORD	216547	wordpools/wasnorm_wordpool.txt	LTP120	ltpFR	11	1	0	SPOON	1357	n/a	0	n/a	0	0	0	1	0.412841796875	0.57763671875	upper	../fonts/amplitud.ttf
436.962	n/a	WORD	218481	wordpools/wasnorm_wordpool.txt	LTP120	ltpFR	11	1	0	MECHANIC	884	n/a	1	n/a	0	0	0	1	0.412841796875	0.57763671875	upper	../fonts/amplitud.ttf
441.084	n/a	WORD	220542	wordpools/wasnorm_wordpool.txt	LTP120	ltpFR	11	1	0	BELL	118	n/a	0	n/a	0	0	0	1	0.412841796875	0.57763671875	upper	../fonts/amplitud.ttf
444.088	n/a	START	222044	n/a	LTP120	ltpFR	11	n/a	n/a	n/a	n/a	n/a	n/a	n/a	n/a	n/a	n/a	n/a	n/a	n/a	n/a	n/a
445.038	n/a	PROB	222519	n/a	LTP120	ltpFR	11	n/a	n/a	n/a	n/a	n/a	n/a	19	7	7	5	n/a	n/a	n/a	n/a	n/a
446.91	n/a	PROB	223455	n/a	LTP120	ltpFR	11	n/a	n/a	n/a	n/a	n/a	n/a	18	5	9	8	n/a	n/a	n/a	n/a	n/a
452.088	n/a	STOP	226044	n/a	LTP120	ltpFR	11	n/a	n/a	n/a	n/a	n/a	n/a	n/a	n/a	n/a	n/a	n/a	n/a	n/a	n/a	n/a
453.902	n/a	REC_START	226951	n/a	LTP120	ltpFR	11	1	n/a	n/a	n/a	n/a	n/a	n/a	0	0	0	n/a	n/a	n/a	n/a	n/a
455.244	n/a	REC_WORD	227622	wordpools/wasnorm_wordpool.txt	LTP120	ltpFR	11	1	0	MONUMENT	913	n/a	1	n/a	0	0	0	n/a	n/a	n/a	n/a	n/a
456.734	n/a	REC_WORD	228367	wordpools/wasnorm_wordpool.txt	LTP120	ltpFR	11	1	0	OCEAN	970	n/a	1	n/a	0	0	0	n/a	n/a	n/a	n/a	n/a
458.242	n/a	REC_WORD	229121	wordpools/wasnorm_wordpool.txt	LTP120	ltpFR	11	1	0	POND	1101	n/a	0	n/a	0	0	0	n/a	n/a	n/a	n/a	n/a
460.052	n/a	REC_WORD	230026	wordpools/wasnorm_wordpool.txt	LTP120	ltpFR	11	1	0	BELL	118	n/a	0	n/a	0	0	0	n/a	n/a	n/a	n/a	n/a
462.188	n/a	REC_WORD	231094	wordpools/wasnorm_wordpool.txt	LTP120	ltpFR	11	1	0	LEAF	808	n/a	0	n/a	0	0	0	n/a	n/a	n/a	n/a	n/a
465.24	n/a	REC_WORD	232620	wordpools/wasnorm_wordpool.txt	LTP120	ltpFR	11	1	0	ASIA	46	n/a	1	n/a	0	0	0	n/a	n/a	n/a	n/a	n/a
466.608	n/a	REC_WORD	233304	wordpools/wasnorm_wordpool.txt	LTP120	ltpFR	11	1	0	JAPAN	749	n/a	1	n/a	0	0	0	n/a	n/a	n/a	n/a	n/a
471.192	n/a	REC_WORD	235596	wordpools/wasnorm_wordpool.txt	LTP120	ltpFR	11	1	0	DESK	452	n/a	1	n/a	0	0	0	n/a	n/a	n/a	n/a	n/a
473.72	n/a	REC_WORD	236860	wordpools/wasnorm_wordpool.txt	LTP120	ltpFR	11	1	0	MECHANIC	884	n/a	1	n/a	0	0	0	n/a	n/a	n/a	n/a	n/a
475.388	n/a	REC_WORD	237694	wordpools/wasnorm_wordpool.txt	LTP120	ltpFR	11	1	0	SPOON	1357	n/a	0	n/a	0	0	0	n/a	n/a	n/a	n/a	n/a
476.446	n/a	REC_WORD	238223	wordpools/wasnorm_wordpool.txt	LTP120	ltpFR	11	1	0	SILVERWARE	1308	n/a	0	n/a	0	0	0	n/a	n/a	n/a	n/a	n/a
498.88	n/a	REC_WORD	249440	wordpools/wasnorm_wordpool.txt	LTP120	ltpFR	11	1	0	CONSOLE	364	n/a	0	n/a	0	0	0	n/a	n/a	n/a	n/a	n/a
539.28	n/a	START	269640	n/a	LTP120	ltpFR	11	n/a	n/a	n/a	n/a	n/a	n/a	n/a	n/a	n/a	n/a	n/a	n/a	n/a	n/a	n/a
540.784	n/a	PROB	270392	n/a	LTP120	ltpFR	11	n/a	n/a	n/a	n/a	n/a	n/a	22	6	8	8	n/a	n/a	n/a	n/a	n/a
543.658	n/a	PROB	271829	n/a	LTP120	ltpFR	11	n/a	n/a	n/a	n/a	n/a	n/a	18	7	5	6	n/a	n/a	n/a	n/a	n/a
545.538	n/a	PROB	272769	n/a	LTP120	ltpFR	11	n/a	n/a	n/a	n/a	n/a	n/a	18	5	8	5	n/a	n/a	n/a	n/a	n/a
546.662	n/a	STOP	273331	n/a	LTP120	ltpFR	11	n/a	n/a	n/a	n/a	n/a	n/a	n/a	n/a	n/a	n/a	n/a	n/a	n/a	n/a	n/a
548.244	n/a	WORD	274122	wordpools/wasnorm_wordpool.txt	LTP120	ltpFR	11	2	1	ARROW	40	n/a	0	n/a	0	0	0	0	0.5869140625	0.422607421875	lower	../fonts/zerothre.ttf
551.25	n/a	START	275625	n/a	LTP120	ltpFR	11	n/a	n/a	n/a	n/a	n/a	n/a	n/a	n/a	n/a	n/a	n/a	n/a	n/a	n/a	n/a
552.164	n/a	PROB	276082	n/a	LTP120	ltpFR	11	n/a	n/a	n/a	n/a	n/a	n/a	12	1	5	6	n/a	n/a	n/a	n/a	n/a
553.58	n/a	PROB	276790	n/a	LTP120	ltpFR	11	n/a	n/a	n/a	n/a	n/a	n/a	18	8	7	3	n/a	n/a	n/a	n/a	n/a
555.644	n/a	PROB	277822	n/a	LTP120	ltpFR	11	n/a	n/a	n/a	n/a	n/a	n/a	13	4	7	2	n/a	n/a	n/a	n/a	n/a
558.254	n/a	STOP	279127	n/a	LTP120	ltpFR	11	n/a	n/a	n/a	n/a	n/a	n/a	n/a	n/a	n/a	n/a	n/a	n/a	n/a	n/a	n/a
560.388	n/a	WORD	280194	wordpools/wasnorm_wordpool.txt	LTP120	ltpFR	11	2	1	FAN	551	n/a	0	n/a	0	0	0	0	0.5869140625	0.422607421875	lower	../fonts/zerothre.ttf
563.394	n/a	START	281697	n/a	LTP120	ltpFR	11	n/a	n/a	n/a	n/a	n/a	n/a	n/a	n/a	n/a	n/a	n/a	n/a	n/a	n/a	n/a
564.242	n/a	PROB	282121	n/a	LTP120	ltpFR	11	n/a	n/a	n/a	n/a	n/a	n/a	21	5	7	9	n/a	n/a	n/a	n/a	n/a
566.846	n/a	PROB	283423	n/a	LTP120	ltpFR	11	n/a	n/a	n/a	n/a	n/a	n/a	9	2	3	4	n/a	n/a	n/a	n/a	n/a
569.01	n/a	PROB	284505	n/a	LTP120	ltpFR	11	n/a	n/a	n/a	n/a	n/a	n/a	12	5	3	4	n/a	n/a	n/a	n/a	n/a
571.182	n/a	STOP	285591	n/a	LTP120	ltpFR	11	n/a	n/a	n/a	n/a	n/a	n/a	n/a	n/a	n/a	n/a	n/a	n/a	n/a	n/a	n/a
572.482	n/a	WORD	286241	wordpools/wasnorm_wordpool.txt	LTP120	ltpFR	11	2	1	PEDESTRIAN	1038	n/a	1	n/a	0	0	0	0	0.5869140625	0.422607421875	lower	../fonts/zerothre.ttf
575.488	n/a	START	287744	n/a	LTP120	ltpFR	11	n/a	n/a	n/a	n/a	n/a	n/a	n/a	n/a	n/a	n/a	n/a	n/a	n/a	n/a	n/a
576.328	n/a	PROB	288164	n/a	LTP120	ltpFR	11	n/a	n/a	n/a	n/a	n/a	n/a	18	6	5	7	n/a	n/a	n/a	n/a	n/a
577.61	n/a	PROB	288805	n/a	LTP120	ltpFR	11	n/a	n/a	n/a	n/a	n/a	n/a	22	7	7	8	n/a	n/a	n/a	n/a	n/a
579.7	n/a	PROB	289850	n/a	LTP120	ltpFR	11	n/a	n/a	n/a	n/a	n/a	n/a	14	2	9	3	n/a	n/a	n/a	n/a	n/a
581.08	n/a	PROB	290540	n/a	LTP120	ltpFR	11	n/a	n/a	n/a	n/a	n/a	n/a	15	4	8	3	n/a	n/a	n/a	n/a	n/a
582.622	n/a	STOP	291311	n/a	LTP120	ltpFR	11	n/a	n/a	n/a	n/a	n/a	n/a	n/a	n/a	n/a	n/a	n/a	n/a	n/a	n/a	n/a
584.452	n/a	WORD	292226	wordpools/wasnorm_wordpool.txt	LTP120	ltpFR	11	2	1	STRAWBERRY	1391	n/a	0	n/a	0	0	0	0	0.5869140625	0.422607421875	lower	../fonts/zerothre.ttf
587.458	n/a	START	293729	n/a	LTP120	ltpFR	11	n/a	n/a	n/a	n/a	n/a	n/a	n/a	n/a	n/a	n/a	n/a	n/a	n/a	n/a	n/a
588.414	n/a	PROB	294207	n/a	LTP120	ltpFR	11	n/a	n/a	n/a	n/a	n/a	n/a	13	2	9	1	n/a	n/a	n/a	n/a	n/a
590.886	n/a	PROB	295443	n/a	LTP120	ltpFR	11	n/a	n/a	n/a	n/a	n/a	n/a	18	6	7	5	n/a	n/a	n/a	n/a	n/a
592.684	n/a	PROB	296342	n/a	LTP120	ltpFR	11	n/a	n/a	n/a	n/a	n/a	n/a	18	2	8	8	n/a	n/a	n/a	n/a	n/a
595.458	n/a	STOP	297729	n/a	LTP120	ltpFR	11	n/a	n/a	n/a	n/a	n/a	n/a	n/a	n/a	n/a	n/a	n/a	n/a	n/a	n/a	n/a
596.438	n/a	WORD	298219	wordpools/wasnorm_wordpool.txt	LTP120	ltpFR	11	2	1	PUMP	1141	n/a	0	n/a	0	0	0	0	0.5869140625	0.422607421875	lower	../fonts/zerothre.ttf
599.444	n/a	START	299722	n/a	LTP120	ltpFR	11	n/a	n/a	n/a	n/a	n/a	n/a	n/a	n/a	n/a	n/a	n/a	n/a	n/a	n/a	n/a
600.352	n/a	PROB	300176	n/a	LTP120	ltpFR	11	n/a	n/a	n/a	n/a	n/a	n/a	22	8	7	7	n/a	n/a	n/a	n/a	n/a
602.416	n/a	PROB	301208	n/a	LTP120	ltpFR	11	n/a	n/a	n/a	n/a	n/a	n/a	12	3	3	6	n/a	n/a	n/a	n/a	n/a
603.688	n/a	PROB	301844	n/a	LTP120	ltpFR	11	n/a	n/a	n/a	n/a	n/a	n/a	14	4	1	9	n/a	n/a	n/a	n/a	n/a
606.886	n/a	STOP	303443	n/a	LTP120	ltpFR	11	n/a	n/a	n/a	n/a	n/a	n/a	n/a	n/a	n/a	n/a	n/a	n/a	n/a	n/a	n/a
608.534	n/a	WORD	304267	wordpools/wasnorm_wordpool.txt	LTP120	ltpFR	11	2	0	RAISIN	1163	n/a	0	n/a	0	0	0	1	0.412841796875	0.57763671875	upper	../fonts/amplitud.ttf
611.538	n/a	START	305769	n/a	LTP120	ltpFR	11	n/a	n/a	n/a	n/a	n/a	n/a	n/a	n/a	n/a	n/a	n/a	n/a	n/a	n/a	n/a
612.346	n/a	PROB	306173	n/a	LTP120	ltpFR	11	n/a	n/a	n/a	n/a	n/a	n/a	11	1	1	9	n/a	n/a	n/a	n/a	n/a
613.46	n/a	PROB	306730	n/a	LTP120	ltpFR	11	n/a	n/a	n/a	n/a	n/a	n/a	22	6	7	9	n/a	n/a	n/a	n/a	n/a
616.016	n/a	PROB	308008	n/a	LTP120	ltpFR	11	n/a	n/a	n/a	n/a	n/a	n/a	17	8	8	1	n/a	n/a	n/a	n/a	n/a
617.214	n/a	PROB	308607	n/a	LTP120	ltpFR	11	n/a	n/a	n/a	n/a	n/a	n/a	22	5	6	8	n/a	n/a	n/a	n/a	n/a
618.782	n/a	STOP	309391	n/a	LTP120	ltpFR	11	n/a	n/a	n/a	n/a	n/a	n/a	n/a	n/a	n/a	n/a	n/a	n/a	n/a	n/a	n/a
620.51	n/a	WORD	310255	wordpools/wasnorm_wordpool.txt	LTP120	ltpFR	11	2	0	PARROT	1015	n/a	0	n/a	0	0	0	1	0.412841796875	0.57763671875	upper	../fonts/amplitud.ttf
623.516	n/a	START	311758	n/a	LTP120	ltpFR	11	n/a	n/a	n/a	n/a	n/a	n/a	n/a	n/a	n/a	n/a	n/a	n/a	n/a	n/a	n/a
624.382	n/a	PROB	312191	n/a	LTP120	ltpFR	11	n/a	n/a	n/a	n/a	n/a	n/a	18	8	8	2	n/a	n/a	n/a	n/a	n/a
626.062	n/a	PROB	313031	n/a	LTP120	ltpFR	11	n/a	n/a	n/a	n/a	n/a	n/a	21	8	8	5	n/a	n/a	n/a	n/a	n/a
629.068	n/a	PROB	314534	n/a	LTP120	ltpFR	11	n/a	n/a	n/a	n/a	n/a	n/a	17	8	2	7	n/a	n/a	n/a	n/a	n/a
631.038	n/a	STOP	315519	n/a	LTP120	ltpFR	11	n/a	n/a	n/a	n/a	n/a	n/a	n/a	n/a	n/a	n/a	n/a	n/a	n/a	n/a	n/a
632.514	n/a	WORD	316257	wordpools/wasnorm_wordpool.txt	LTP120	ltpFR	11	2	0	ROBIN	1199	n/a	0	n/a	0	0	0	1	0.412841796875	0.57763671875	upper	../fonts/amplitud.ttf
635.518	n/a	START	317759	n/a	LTP120	ltpFR	11	n/a	n/a	n/a	n/a	n/a	n/a	n/a	n/a	n/a	n/a	n/a	n/a	n/a	n/a	n/a
636.418	n/a	PROB	318209	n/a	LTP120	ltpFR	11	n/a	n/a	n/a	n/a	n/a	n/a	17	5	3	9	n/a	n/a	n/a	n/a	n/a
638.148	n/a	PROB	319074	n/a	LTP120	ltpFR	11	n/a	n/a	n/a	n/a	n/a	n/a	14	8	4	2	n/a	n/a	n/a	n/a	n/a
639.372	n/a	PROB	319686	n/a	LTP120	ltpFR	11	n/a	n/a	n/a	n/a	n/a	n/a	11	1	4	6	n/a	n/a	n/a	n/a	n/a
642.262	n/a	STOP	321131	n/a	LTP120	ltpFR	11	n/a	n/a	n/a	n/a	n/a	n/a	n/a	n/a	n/a	n/a	n/a	n/a	n/a	n/a	n/a
644.366	n/a	WORD	322183	wordpools/wasnorm_wordpool.txt	LTP120	ltpFR	11	2	0	STADIUM	1364	n/a	1	n/a	0	0	0	1	0.412841796875	0.57763671875	upper	../fonts/amplitud.ttf
647.372	n/a	START	323686	n/a	LTP120	ltpFR	11	n/a	n/a	n/a	n/a	n/a	n/a	n/a	n/a	n/a	n/a	n/a	n/a	n/a	n/a	n/a
648.254	n/a	PROB	324127	n/a	LTP120	ltpFR	11	n/a	n/a	n/a	n/a	n/a	n/a	16	6	9	1	n/a	n/a	n/a	n/a	n/a
649.586	n/a	PROB	324793	n/a	LTP120	ltpFR	11	n/a	n/a	n/a	n/a	n/a	n/a	11	3	4	4	n/a	n/a	n/a	n/a	n/a
651.126	n/a	PROB	325563	n/a	LTP120	ltpFR	11	n/a	n/a	n/a	n/a	n/a	n/a	11	3	3	5	n/a	n/a	n/a	n/a	n/a
652.616	n/a	PROB	326308	n/a	LTP120	ltpFR	11	n/a	n/a	n/a	n/a	n/a	n/a	18	4	8	6	n/a	n/a	n/a	n/a	n/a
653.854	n/a	STOP	326927	n/a	LTP120	ltpFR	11	n/a	n/a	n/a	n/a	n/a	n/a	n/a	n/a	n/a	n/a	n/a	n/a	n/a	n/a	n/a
656.336	n/a	WORD	328168	wordpools/wasnorm_wordpool.txt	LTP120	ltpFR	11	2	1	PRINTER	1126	n/a	0	n/a	0	0	0	0	0.5869140625	0.422607421875	lower	../fonts/zerothre.ttf
659.342	n/a	START	329671	n/a	LTP120	ltpFR	11	n/a	n/a	n/a	n/a	n/a	n/a	n/a	n/a	n/a	n/a	n/a	n/a	n/a	n/a	n/a
660.39	n/a	PROB	330195	n/a	LTP120	ltpFR	11	n/a	n/a	n/a	n/a	n/a	n/a	20	8	5	7	n/a	n/a	n/a	n/a	n/a
662.32	n/a	PROB	331160	n/a	LTP120	ltpFR	11	n/a	n/a	n/a	n/a	n/a	n/a	21	5	9	7	n/a	n/a	n/a	n/a	n/a
665.292	n/a	PROB	332646	n/a	LTP120	ltpFR	11	n/a	n/a	n/a	n/a	n/a	n/a	13	8	4	1	n/a	n/a	n/a	n/a	n/a
667.318	n/a	STOP	333659	n/a	LTP120	ltpFR	11	n/a	n/a	n/a	n/a	n/a	n/a	n/a	n/a	n/a	n/a	n/a	n/a	n/a	n/a	n/a
668.23	n/a	WORD	334115	wordpools/wasnorm_wordpool.txt	LTP120	ltpFR	11	2	1	WHEAT	1602	n/a	0	n/a	0	0	0	0	0.5869140625	0.422607421875	lower	../fonts/zerothre.ttf
671.236	n/a	START	335618	n/a	LTP120	ltpFR	11	n/a	n/a	n/a	n/a	n/a	n/a	n/a	n/a	n/a	n/a	n/a	n/a	n/a	n/a	n/a
672.26	n/a	PROB	336130	n/a	LTP120	ltpFR	11	n/a	n/a	n/a	n/a	n/a	n/a	11	4	5	2	n/a	n/a	n/a	n/a	n/a
673.558	n/a	PROB	336779	n/a	LTP120	ltpFR	11	n/a	n/a	n/a	n/a	n/a	n/a	17	2	8	7	n/a	n/a	n/a	n/a	n/a
674.74	n/a	PROB	337370	n/a	LTP120	ltpFR	11	n/a	n/a	n/a	n/a	n/a	n/a	12	4	1	7	n/a	n/a	n/a	n/a	n/a
676.664	n/a	PROB	338332	n/a	LTP120	ltpFR	11	n/a	n/a	n/a	n/a	n/a	n/a	12	2	2	8	n/a	n/a	n/a	n/a	n/a
677.846	n/a	STOP	338923	n/a	LTP120	ltpFR	11	n/a	n/a	n/a	n/a	n/a	n/a	n/a	n/a	n/a	n/a	n/a	n/a	n/a	n/a	n/a
680.3	n/a	WORD	340150	wordpools/wasnorm_wordpool.txt	LTP120	ltpFR	11	2	1	CRUMB	416	n/a	0	n/a	0	0	0	0	0.5869140625	0.422607421875	lower	../fonts/zerothre.ttf
683.306	n/a	START	341653	n/a	LTP120	ltpFR	11	n/a	n/a	n/a	n/a	n/a	n/a	n/a	n/a	n/a	n/a	n/a	n/a	n/a	n/a	n/a
684.13	n/a	PROB	342065	n/a	LTP120	ltpFR	11	n/a	n/a	n/a	n/a	n/a	n/a	17	7	2	8	n/a	n/a	n/a	n/a	n/a
687.99	n/a	PROB	343995	n/a	LTP120	ltpFR	11	n/a	n/a	n/a	n/a	n/a	n/a	13	8	4	1	n/a	n/a	n/a	n/a	n/a
689.274	n/a	PROB	344637	n/a	LTP120	ltpFR	11	n/a	n/a	n/a	n/a	n/a	n/a	7	3	2	3	n/a	n/a	n/a	n/a	n/a
690.488	n/a	STOP	345244	n/a	LTP120	ltpFR	11	n/a	n/a	n/a	n/a	n/a	n/a	n/a	n/a	n/a	n/a	n/a	n/a	n/a	n/a	n/a
692.404	n/a	WORD	346202	wordpools/wasnorm_wordpool.txt	LTP120	ltpFR	11	2	0	CONTRACTOR	369	n/a	0	n/a	0	0	0	1	0.412841796875	0.57763671875	upper	../fonts/amplitud.ttf
695.408	n/a	START	347704	n/a	LTP120	ltpFR	11	n/a	n/a	n/a	n/a	n/a	n/a	n/a	n/a	n/a	n/a	n/a	n/a	n/a	n/a	n/a
696.25	n/a	PROB	348125	n/a	LTP120	ltpFR	11	n/a	n/a	n/a	n/a	n/a	n/a	14	7	6	1	n/a	n/a	n/a	n/a	n/a
697.846	n/a	PROB	348923	n/a	LTP120	ltpFR	11	n/a	n/a	n/a	n/a	n/a	n/a	12	3	5	4	n/a	n/a	n/a	n/a	n/a
700.102	n/a	PROB	350051	n/a	LTP120	ltpFR	11	n/a	n/a	n/a	n/a	n/a	n/a	17	7	1	9	n/a	n/a	n/a	n/a	n/a
702.056	n/a	STOP	351028	n/a	LTP120	ltpFR	11	n/a	n/a	n/a	n/a	n/a	n/a	n/a	n/a	n/a	n/a	n/a	n/a	n/a	n/a	n/a
704.264	n/a	WORD	352132	wordpools/wasnorm_wordpool.txt	LTP120	ltpFR	11	2	0	SHELTER	1282	n/a	1	n/a	0	0	0	1	0.412841796875	0.57763671875	upper	../fonts/amplitud.ttf
707.27	n/a	START	353635	n/a	LTP120	ltpFR	11	n/a	n/a	n/a	n/a	n/a	n/a	n/a	n/a	n/a	n/a	n/a	n/a	n/a	n/a	n/a
708.352	n/a	PROB	354176	n/a	LTP120	ltpFR	11	n/a	n/a	n/a	n/a	n/a	n/a	10	2	5	3	n/a	n/a	n/a	n/a	n/a
710.366	n/a	PROB	355183	n/a	LTP120	ltpFR	11	n/a	n/a	n/a	n/a	n/a	n/a	12	9	1	2	n/a	n/a	n/a	n/a	n/a
711.672	n/a	PROB	355836	n/a	LTP120	ltpFR	11	n/a	n/a	n/a	n/a	n/a	n/a	15	9	2	4	n/a	n/a	n/a	n/a	n/a
713.072	n/a	PROB	356536	n/a	LTP120	ltpFR	11	n/a	n/a	n/a	n/a	n/a	n/a	21	9	3	9	n/a	n/a	n/a	n/a	n/a
714.798	n/a	STOP	357399	n/a	LTP120	ltpFR	11	n/a	n/a	n/a	n/a	n/a	n/a	n/a	n/a	n/a	n/a	n/a	n/a	n/a	n/a	n/a
716.26	n/a	WORD	358130	wordpools/wasnorm_wordpool.txt	LTP120	ltpFR	11	2	0	CHIEF	298	n/a	1	n/a	0	0	0	1	0.412841796875	0.57763671875	upper	../fonts/amplitud.ttf
719.264	n/a	START	359632	n/a	LTP120	ltpFR	11	n/a	n/a	n/a	n/a	n/a	n/a	n/a	n/a	n/a	n/a	n/a	n/a	n/a	n/a	n/a
720.08	n/a	PROB	360040	n/a	LTP120	ltpFR	11	n/a	n/a	n/a	n/a	n/a	n/a	13	6	2	5	n/a	n/a	n/a	n/a	n/a
722.002	n/a	PROB	361001	n/a	LTP120	ltpFR	11	n/a	n/a	n/a	n/a	n/a	n/a	14	8	3	3	n/a	n/a	n/a	n/a	n/a
723.4	n/a	PROB	361700	n/a	LTP120	ltpFR	11	n/a	n/a	n/a	n/a	n/a	n/a	15	4	3	8	n/a	n/a	n/a	n/a	n/a
724.798	n/a	PROB	362399	n/a	LTP120	ltpFR	11	n/a	n/a	n/a	n/a	n/a	n/a	17	8	6	3	n/a	n/a	n/a	n/a	n/a
726.288	n/a	STOP	363144	n/a	LTP120	ltpFR	11	n/a	n/a	n/a	n/a	n/a	n/a	n/a	n/a	n/a	n/a	n/a	n/a	n/a	n/a	n/a
728.312	n/a	WORD	364156	wordpools/wasnorm_wordpool.txt	LTP120	ltpFR	11	2	0	ORANGE	980	n/a	0	n/a	0	0	0	1	0.412841796875	0.57763671875	upper	../fonts/amplitud.ttf
731.316	n/a	START	365658	n/a	LTP120	ltpFR	11	n/a	n/a	n/a	n/a	n/a	n/a	n/a	n/a	n/a	n/a	n/a	n/a	n/a	n/a	n/a
732.308	n/a	PROB	366154	n/a	LTP120	ltpFR	11	n/a	n/a	n/a	n/a	n/a	n/a	25	9	7	9	n/a	n/a	n/a	n/a	n/a
735.976	n/a	PROB	367988	n/a	LTP120	ltpFR	11	n/a	n/a	n/a	n/a	n/a	n/a	6	1	3	2	n/a	n/a	n/a	n/a	n/a
737.16	n/a	PROB	368580	n/a	LTP120	ltpFR	11	n/a	n/a	n/a	n/a	n/a	n/a	13	5	6	2	n/a	n/a	n/a	n/a	n/a
738.472	n/a	STOP	369236	n/a	LTP120	ltpFR	11	n/a	n/a	n/a	n/a	n/a	n/a	n/a	n/a	n/a	n/a	n/a	n/a	n/a	n/a	n/a
741.106	n/a	REC_START	370553	n/a	LTP120	ltpFR	11	2	n/a	n/a	n/a	n/a	n/a	n/a	0	0	0	n/a	n/a	n/a	n/a	n/a
742.616	n/a	REC_WORD	371308	wordpools/wasnorm_wordpool.txt	LTP120	ltpFR	11	2	0	SHELTER	1282	n/a	1	n/a	0	0	0	n/a	n/a	n/a	n/a	n/a
744.098	n/a	REC_WORD	372049	wordpools/wasnorm_wordpool.txt	LTP120	ltpFR	11	2	0	CONTRACTOR	369	n/a	0	n/a	0	0	0	n/a	n/a	n/a	n/a	n/a
745.94	n/a	REC_WORD	372970	wordpools/wasnorm_wordpool.txt	LTP120	ltpFR	11	2	0	CHIEF	298	n/a	1	n/a	0	0	0	n/a	n/a	n/a	n/a	n/a
748.19	n/a	REC_WORD	374095	wordpools/wasnorm_wordpool.txt	LTP120	ltpFR	11	2	1	ARROW	40	n/a	0	n/a	0	0	0	n/a	n/a	n/a	n/a	n/a
752.724	n/a	REC_WORD	376362	wordpools/wasnorm_wordpool.txt	LTP120	ltpFR	11	2	0	ORANGE	980	n/a	0	n/a	0	0	0	n/a	n/a	n/a	n/a	n/a
776.96	n/a	REC_WORD	388480	wordpools/wasnorm_wordpool.txt	LTP120	ltpFR	11	2	0	ROBIN	1199	n/a	0	n/a	0	0	0	n/a	n/a	n/a	n/a	n/a
825.052	n/a	START	412526	n/a	LTP120	ltpFR	11	n/a	n/a	n/a	n/a	n/a	n/a	n/a	n/a	n/a	n/a	n/a	n/a	n/a	n/a	n/a
826.558	n/a	PROB	413279	n/a	LTP120	ltpFR	11	n/a	n/a	n/a	n/a	n/a	n/a	20	9	7	4	n/a	n/a	n/a	n/a	n/a
828.614	n/a	PROB	414307	n/a	LTP120	ltpFR	11	n/a	n/a	n/a	n/a	n/a	n/a	9	4	1	4	n/a	n/a	n/a	n/a	n/a
830.18	n/a	PROB	415090	n/a	LTP120	ltpFR	11	n/a	n/a	n/a	n/a	n/a	n/a	15	9	4	2	n/a	n/a	n/a	n/a	n/a
832.578	n/a	STOP	416289	n/a	LTP120	ltpFR	11	n/a	n/a	n/a	n/a	n/a	n/a	n/a	n/a	n/a	n/a	n/a	n/a	n/a	n/a	n/a
833.99	n/a	WORD	416995	wordpools/wasnorm_wordpool.txt	LTP120	ltpFR	11	3	0	OTTER	986	n/a	1	n/a	0	0	0	1	0.412841796875	0.57763671875	upper	../fonts/amplitud.ttf
836.996	n/a	START	418498	n/a	LTP120	ltpFR	11	n/a	n/a	n/a	n/a	n/a	n/a	n/a	n/a	n/a	n/a	n/a	n/a	n/a	n/a	n/a
837.878	n/a	PROB	418939	n/a	LTP120	ltpFR	11	n/a	n/a	n/a	n/a	n/a	n/a	23	8	8	7	n/a	n/a	n/a	n/a	n/a
840.168	n/a	PROB	420084	n/a	LTP120	ltpFR	11	n/a	n/a	n/a	n/a	n/a	n/a	19	4	8	7	n/a	n/a	n/a	n/a	n/a
844.994	n/a	STOP	422497	n/a	LTP120	ltpFR	11	n/a	n/a	n/a	n/a	n/a	n/a	n/a	n/a	n/a	n/a	n/a	n/a	n/a	n/a	n/a
846.078	n/a	WORD	423039	wordpools/wasnorm_wordpool.txt	LTP120	ltpFR	11	3	0	PIER	1063	n/a	1	n/a	0	0	0	1	0.412841796875	0.57763671875	upper	../fonts/amplitud.ttf
849.082	n/a	START	424541	n/a	LTP120	ltpFR	11	n/a	n/a	n/a	n/a	n/a	n/a	n/a	n/a	n/a	n/a	n/a	n/a	n/a	n/a	n/a
849.964	n/a	PROB	424982	n/a	LTP120	ltpFR	11	n/a	n/a	n/a	n/a	n/a	n/a	9	3	4	2	n/a	n/a	n/a	n/a	n/a
852.344	n/a	PROB	426172	n/a	LTP120	ltpFR	11	n/a	n/a	n/a	n/a	n/a	n/a	8	4	2	2	n/a	n/a	n/a	n/a	n/a
853.784	n/a	PROB	426892	n/a	LTP120	ltpFR	11	n/a	n/a	n/a	n/a	n/a	n/a	12	8	2	2	n/a	n/a	n/a	n/a	n/a
855.008	n/a	PROB	427504	n/a	LTP120	ltpFR	11	n/a	n/a	n/a	n/a	n/a	n/a	8	6	1	1	n/a	n/a	n/a	n/a	n/a
855.936	n/a	STOP	427968	n/a	LTP120	ltpFR	11	n/a	n/a	n/a	n/a	n/a	n/a	n/a	n/a	n/a	n/a	n/a	n/a	n/a	n/a	n/a
858.254	n/a	WORD	429127	wordpools/wasnorm_wordpool.txt	LTP120	ltpFR	11	3	1	SCAPEGOAT	1244	n/a	1	n/a	0	0	0	0	0.5869140625	0.422607421875	lower	../fonts/zerothre.ttf
861.26	n/a	START	430630	n/a	LTP120	ltpFR	11	n/a	n/a	n/a	n/a	n/a	n/a	n/a	n/a	n/a	n/a	n/a	n/a	n/a	n/a	n/a
862.342	n/a	PROB	431171	n/a	LTP120	ltpFR	11	n/a	n/a	n/a	n/a	n/a	n/a	15	3	8	4	n/a	n/a	n/a	n/a	n/a
863.724	n/a	PROB	431862	n/a	LTP120	ltpFR	11	n/a	n/a	n/a	n/a	n/a	n/a	18	6	8	5	n/a	n/a	n/a	n/a	n/a
869.26	n/a	STOP	434630	n/a	LTP120	ltpFR	11	n/a	n/a	n/a	n/a	n/a	n/a	n/a	n/a	n/a	n/a	n/a	n/a	n/a	n/a	n/a
870.466	n/a	WORD	435233	wordpools/wasnorm_wordpool.txt	LTP120	ltpFR	11	3	1	PILOT	1070	n/a	1	n/a	0	0	0	0	0.5869140625	0.422607421875	lower	../fonts/zerothre.ttf
873.47	n/a	START	436735	n/a	LTP120	ltpFR	11	n/a	n/a	n/a	n/a	n/a	n/a	n/a	n/a	n/a	n/a	n/a	n/a	n/a	n/a	n/a
874.67	n/a	PROB	437335	n/a	LTP120	ltpFR	11	n/a	n/a	n/a	n/a	n/a	n/a	14	3	6	5	n/a	n/a	n/a	n/a	n/a
876.65	n/a	PROB	438325	n/a	LTP120	ltpFR	11	n/a	n/a	n/a	n/a	n/a	n/a	12	6	1	5	n/a	n/a	n/a	n/a	n/a
881.47	n/a	STOP	440735	n/a	LTP120	ltpFR	11	n/a	n/a	n/a	n/a	n/a	n/a	n/a	n/a	n/a	n/a	n/a	n/a	n/a	n/a	n/a
882.368	n/a	WORD	441184	wordpools/wasnorm_wordpool.txt	LTP120	ltpFR	11	3	1	CHAUFFEUR	283	n/a	1	n/a	0	0	0	0	0.5869140625	0.422607421875	lower	../fonts/zerothre.ttf
885.382	n/a	START	442691	n/a	LTP120	ltpFR	11	n/a	n/a	n/a	n/a	n/a	n/a	n/a	n/a	n/a	n/a	n/a	n/a	n/a	n/a	n/a
886.206	n/a	PROB	443103	n/a	LTP120	ltpFR	11	n/a	n/a	n/a	n/a	n/a	n/a	23	9	5	9	n/a	n/a	n/a	n/a	n/a
888.278	n/a	PROB	444139	n/a	LTP120	ltpFR	11	n/a	n/a	n/a	n/a	n/a	n/a	10	3	5	2	n/a	n/a	n/a	n/a	n/a
890.384	n/a	PROB	445192	n/a	LTP120	ltpFR	11	n/a	n/a	n/a	n/a	n/a	n/a	12	9	2	1	n/a	n/a	n/a	n/a	n/a
891.616	n/a	PROB	445808	n/a	LTP120	ltpFR	11	n/a	n/a	n/a	n/a	n/a	n/a	15	3	6	6	n/a	n/a	n/a	n/a	n/a
893.042	n/a	STOP	446521	n/a	LTP120	ltpFR	11	n/a	n/a	n/a	n/a	n/a	n/a	n/a	n/a	n/a	n/a	n/a	n/a	n/a	n/a	n/a
894.422	n/a	WORD	447211	wordpools/wasnorm_wordpool.txt	LTP120	ltpFR	11	3	1	DRIVER	499	n/a	1	n/a	0	0	0	0	0.5869140625	0.422607421875	lower	../fonts/zerothre.ttf
897.426	n/a	START	448713	n/a	LTP120	ltpFR	11	n/a	n/a	n/a	n/a	n/a	n/a	n/a	n/a	n/a	n/a	n/a	n/a	n/a	n/a	n/a
898.25	n/a	PROB	449125	n/a	LTP120	ltpFR	11	n/a	n/a	n/a	n/a	n/a	n/a	18	7	6	5	n/a	n/a	n/a	n/a	n/a
901.038	n/a	PROB	450519	n/a	LTP120	ltpFR	11	n/a	n/a	n/a	n/a	n/a	n/a	14	2	6	6	n/a	n/a	n/a	n/a	n/a
905.426	n/a	STOP	452713	n/a	LTP120	ltpFR	11	n/a	n/a	n/a	n/a	n/a	n/a	n/a	n/a	n/a	n/a	n/a	n/a	n/a	n/a	n/a
906.342	n/a	WORD	453171	wordpools/wasnorm_wordpool.txt	LTP120	ltpFR	11	3	1	SPRINKLE	1359	n/a	0	n/a	0	0	0	0	0.5869140625	0.422607421875	lower	../fonts/zerothre.ttf
909.346	n/a	START	454673	n/a	LTP120	ltpFR	11	n/a	n/a	n/a	n/a	n/a	n/a	n/a	n/a	n/a	n/a	n/a	n/a	n/a	n/a	n/a
910.404	n/a	PROB	455202	n/a	LTP120	ltpFR	11	n/a	n/a	n/a	n/a	n/a	n/a	14	5	7	2	n/a	n/a	n/a	n/a	n/a
912.476	n/a	PROB	456238	n/a	LTP120	ltpFR	11	n/a	n/a	n/a	n/a	n/a	n/a	20	6	7	7	n/a	n/a	n/a	n/a	n/a
914.822	n/a	PROB	457411	n/a	LTP120	ltpFR	11	n/a	n/a	n/a	n/a	n/a	n/a	16	8	6	2	n/a	n/a	n/a	n/a	n/a
916.626	n/a	STOP	458313	n/a	LTP120	ltpFR	11	n/a	n/a	n/a	n/a	n/a	n/a	n/a	n/a	n/a	n/a	n/a	n/a	n/a	n/a	n/a
918.352	n/a	WORD	459176	wordpools/wasnorm_wordpool.txt	LTP120	ltpFR	11	3	1	LEMON	810	n/a	0	n/a	0	0	0	0	0.5869140625	0.422607421875	lower	../fonts/zerothre.ttf
921.358	n/a	START	460679	n/a	LTP120	ltpFR	11	n/a	n/a	n/a	n/a	n/a	n/a	n/a	n/a	n/a	n/a	n/a	n/a	n/a	n/a	n/a
922.164	n/a	PROB	461082	n/a	LTP120	ltpFR	11	n/a	n/a	n/a	n/a	n/a	n/a	12	5	3	4	n/a	n/a	n/a	n/a	n/a
924.538	n/a	PROB	462269	n/a	LTP120	ltpFR	11	n/a	n/a	n/a	n/a	n/a	n/a	17	8	4	5	n/a	n/a	n/a	n/a	n/a
926.884	n/a	PROB	463442	n/a	LTP120	ltpFR	11	n/a	n/a	n/a	n/a	n/a	n/a	17	8	6	3	n/a	n/a	n/a	n/a	n/a
928.202	n/a	STOP	464101	n/a	LTP120	ltpFR	11	n/a	n/a	n/a	n/a	n/a	n/a	n/a	n/a	n/a	n/a	n/a	n/a	n/a	n/a	n/a
930.206	n/a	WORD	465103	wordpools/wasnorm_wordpool.txt	LTP120	ltpFR	11	3	0	TART	1436	n/a	0	n/a	0	0	0	1	0.412841796875	0.57763671875	upper	../fonts/amplitud.ttf
933.21	n/a	START	466605	n/a	LTP120	ltpFR	11	n/a	n/a	n/a	n/a	n/a	n/a	n/a	n/a	n/a	n/a	n/a	n/a	n/a	n/a	n/a
934.042	n/a	PROB	467021	n/a	LTP120	ltpFR	11	n/a	n/a	n/a	n/a	n/a	n/a	15	6	1	7	n/a	n/a	n/a	n/a	n/a
935.764	n/a	PROB	467882	n/a	LTP120	ltpFR	11	n/a	n/a	n/a	n/a	n/a	n/a	10	3	2	5	n/a	n/a	n/a	n/a	n/a
938.172	n/a	PROB	469086	n/a	LTP120	ltpFR	11	n/a	n/a	n/a	n/a	n/a	n/a	13	1	6	6	n/a	n/a	n/a	n/a	n/a
939.37	n/a	PROB	469685	n/a	LTP120	ltpFR	11	n/a	n/a	n/a	n/a	n/a	n/a	7	5	1	1	n/a	n/a	n/a	n/a	n/a
940.442	n/a	STOP	470221	n/a	LTP120	ltpFR	11	n/a	n/a	n/a	n/a	n/a	n/a	n/a	n/a	n/a	n/a	n/a	n/a	n/a	n/a	n/a
942.366	n/a	WORD	471183	wordpools/wasnorm_wordpool.txt	LTP120	ltpFR	11	3	0	SCROLL	1257	n/a	0	n/a	0	0	0	1	0.412841796875	0.57763671875	upper	../fonts/amplitud.ttf
945.372	n/a	START	472686	n/a	LTP120	ltpFR	11	n/a	n/a	n/a	n/a	n/a	n/a	n/a	n/a	n/a	n/a	n/a	n/a	n/a	n/a	n/a
946.286	n/a	PROB	473143	n/a	LTP120	ltpFR	11	n/a	n/a	n/a	n/a	n/a	n/a	11	1	3	7	n/a	n/a	n/a	n/a	n/a
947.61	n/a	PROB	473805	n/a	LTP120	ltpFR	11	n/a	n/a	n/a	n/a	n/a	n/a	19	7	3	9	n/a	n/a	n/a	n/a	n/a
948.842	n/a	PROB	474421	n/a	LTP120	ltpFR	11	n/a	n/a	n/a	n/a	n/a	n/a	14	5	4	5	n/a	n/a	n/a	n/a	n/a
950.698	n/a	PROB	475349	n/a	LTP120	ltpFR	11	n/a	n/a	n/a	n/a	n/a	n/a	14	3	9	2	n/a	n/a	n/a	n/a	n/a
952.562	n/a	STOP	476281	n/a	LTP120	ltpFR	11	n/a	n/a	n/a	n/a	n/a	n/a	n/a	n/a	n/a	n/a	n/a	n/a	n/a	n/a	n/a
954.202	n/a	WORD	477101	wordpools/wasnorm_wordpool.txt	LTP120	ltpFR	11	3	0	WAITRESS	1581	n/a	1	n/a	0	0	0	1	0.412841796875	0.57763671875	upper	../fonts/amplitud.ttf
957.208	n/a	START	478604	n/a	LTP120	ltpFR	11	n/a	n/a	n/a	n/a	n/a	n/a	n/a	n/a	n/a	n/a	n/a	n/a	n/a	n/a	n/a
958.382	n/a	PROB	479191	n/a	LTP120	ltpFR	11	n/a	n/a	n/a	n/a	n/a	n/a	18	6	8	4	n/a	n/a	n/a	n/a	n/a
960.346	n/a	PROB	480173	n/a	LTP120	ltpFR	11	n/a	n/a	n/a	n/a	n/a	n/a	10	4	1	5	n/a	n/a	n/a	n/a	n/a
961.818	n/a	PROB	480909	n/a	LTP120	ltpFR	11	n/a	n/a	n/a	n/a	n/a	n/a	20	4	8	8	n/a	n/a	n/a	n/a	n/a
963.93	n/a	STOP	481965	n/a	LTP120	ltpFR	11	n/a	n/a	n/a	n/a	n/a	n/a	n/a	n/a	n/a	n/a	n/a	n/a	n/a	n/a	n/a
966.18	n/a	WORD	483090	wordpools/wasnorm_wordpool.txt	LTP120	ltpFR	11	3	0	FOUNTAIN	597	n/a	1	n/a	0	0	0	1	0.412841796875	0.57763671875	upper	../fonts/amplitud.ttf
969.186	n/a	START	484593	n/a	LTP120	ltpFR	11	n/a	n/a	n/a	n/a	n/a	n/a	n/a	n/a	n/a	n/a	n/a	n/a	n/a	n/a	n/a
970.06	n/a	PROB	485030	n/a	LTP120	ltpFR	11	n/a	n/a	n/a	n/a	n/a	n/a	15	5	4	6	n/a	n/a	n/a	n/a	n/a
971.772	n/a	PROB	485886	n/a	LTP120	ltpFR	11	n/a	n/a	n/a	n/a	n/a	n/a	16	6	3	7	n/a	n/a	n/a	n/a	n/a
973.264	n/a	PROB	486632	n/a	LTP120	ltpFR	11	n/a	n/a	n/a	n/a	n/a	n/a	14	8	2	4	n/a	n/a	n/a	n/a	n/a
974.57	n/a	PROB	487285	n/a	LTP120	ltpFR	11	n/a	n/a	n/a	n/a	n/a	n/a	14	7	5	2	n/a	n/a	n/a	n/a	n/a
976.194	n/a	STOP	488097	n/a	LTP120	ltpFR	11	n/a	n/a	n/a	n/a	n/a	n/a	n/a	n/a	n/a	n/a	n/a	n/a	n/a	n/a	n/a
978.142	n/a	WORD	489071	wordpools/wasnorm_wordpool.txt	LTP120	ltpFR	11	3	1	SPHINX	1349	n/a	0	n/a	0	0	0	0	0.5869140625	0.422607421875	lower	../fonts/zerothre.ttf
981.146	n/a	START	490573	n/a	LTP120	ltpFR	11	n/a	n/a	n/a	n/a	n/a	n/a	n/a	n/a	n/a	n/a	n/a	n/a	n/a	n/a	n/a
982.038	n/a	PROB	491019	n/a	LTP120	ltpFR	11	n/a	n/a	n/a	n/a	n/a	n/a	11	3	2	6	n/a	n/a	n/a	n/a	n/a
983.842	n/a	PROB	491921	n/a	LTP120	ltpFR	11	n/a	n/a	n/a	n/a	n/a	n/a	20	2	9	9	n/a	n/a	n/a	n/a	n/a
986.69	n/a	PROB	493345	n/a	LTP120	ltpFR	11	n/a	n/a	n/a	n/a	n/a	n/a	16	8	7	1	n/a	n/a	n/a	n/a	n/a
988.308	n/a	STOP	494154	n/a	LTP120	ltpFR	11	n/a	n/a	n/a	n/a	n/a	n/a	n/a	n/a	n/a	n/a	n/a	n/a	n/a	n/a	n/a
989.978	n/a	WORD	494989	wordpools/wasnorm_wordpool.txt	LTP120	ltpFR	11	3	1	FIGHTER	564	n/a	1	n/a	0	0	0	0	0.5869140625	0.422607421875	lower	../fonts/zerothre.ttf
992.984	n/a	START	496492	n/a	LTP120	ltpFR	11	n/a	n/a	n/a	n/a	n/a	n/a	n/a	n/a	n/a	n/a	n/a	n/a	n/a	n/a	n/a
994.082	n/a	PROB	497041	n/a	LTP120	ltpFR	11	n/a	n/a	n/a	n/a	n/a	n/a	10	3	2	4	n/a	n/a	n/a	n/a	n/a
995.714	n/a	PROB	497857	n/a	LTP120	ltpFR	11	n/a	n/a	n/a	n/a	n/a	n/a	19	5	5	7	n/a	n/a	n/a	n/a	n/a
998.178	n/a	PROB	499089	n/a	LTP120	ltpFR	11	n/a	n/a	n/a	n/a	n/a	n/a	10	5	4	1	n/a	n/a	n/a	n/a	n/a
1000.914	n/a	STOP	500457	n/a	LTP120	ltpFR	11	n/a	n/a	n/a	n/a	n/a	n/a	n/a	n/a	n/a	n/a	n/a	n/a	n/a	n/a	n/a
1002.006	n/a	WORD	501003	wordpools/wasnorm_wordpool.txt	LTP120	ltpFR	11	3	0	BEAN	105	n/a	0	n/a	0	0	0	1	0.412841796875	0.57763671875	upper	../fonts/amplitud.ttf
1005.01	n/a	START	502505	n/a	LTP120	ltpFR	11	n/a	n/a	n/a	n/a	n/a	n/a	n/a	n/a	n/a	n/a	n/a	n/a	n/a	n/a	n/a
1006.136	n/a	PROB	503068	n/a	LTP120	ltpFR	11	n/a	n/a	n/a	n/a	n/a	n/a	15	6	8	1	n/a	n/a	n/a	n/a	n/a
1007.368	n/a	PROB	503684	n/a	LTP120	ltpFR	11	n/a	n/a	n/a	n/a	n/a	n/a	14	7	5	2	n/a	n/a	n/a	n/a	n/a
1009.738	n/a	PROB	504869	n/a	LTP120	ltpFR	11	n/a	n/a	n/a	n/a	n/a	n/a	19	7	4	8	n/a	n/a	n/a	n/a	n/a
1013.01	n/a	STOP	506505	n/a	LTP120	ltpFR	11	n/a	n/a	n/a	n/a	n/a	n/a	n/a	n/a	n/a	n/a	n/a	n/a	n/a	n/a	n/a
1014.168	n/a	WORD	507084	wordpools/wasnorm_wordpool.txt	LTP120	ltpFR	11	3	0	TRAY	1498	n/a	0	n/a	0	0	0	1	0.412841796875	0.57763671875	upper	../fonts/amplitud.ttf
1017.172	n/a	START	508586	n/a	LTP120	ltpFR	11	n/a	n/a	n/a	n/a	n/a	n/a	n/a	n/a	n/a	n/a	n/a	n/a	n/a	n/a	n/a
1018.054	n/a	PROB	509027	n/a	LTP120	ltpFR	11	n/a	n/a	n/a	n/a	n/a	n/a	17	5	7	5	n/a	n/a	n/a	n/a	n/a
1019.328	n/a	PROB	509664	n/a	LTP120	ltpFR	11	n/a	n/a	n/a	n/a	n/a	n/a	16	7	8	1	n/a	n/a	n/a	n/a	n/a
1020.976	n/a	PROB	510488	n/a	LTP120	ltpFR	11	n/a	n/a	n/a	n/a	n/a	n/a	9	4	1	4	n/a	n/a	n/a	n/a	n/a
1022.308	n/a	PROB	511154	n/a	LTP120	ltpFR	11	n/a	n/a	n/a	n/a	n/a	n/a	14	3	2	9	n/a	n/a	n/a	n/a	n/a
1023.954	n/a	STOP	511977	n/a	LTP120	ltpFR	11	n/a	n/a	n/a	n/a	n/a	n/a	n/a	n/a	n/a	n/a	n/a	n/a	n/a	n/a	n/a
1027.104	n/a	REC_START	513552	n/a	LTP120	ltpFR	11	3	n/a	n/a	n/a	n/a	n/a	n/a	0	0	0	n/a	n/a	n/a	n/a	n/a
1029.354	n/a	REC_WORD	514677	wordpools/wasnorm_wordpool.txt	LTP120	ltpFR	11	3	1	FIGHTER	564	n/a	1	n/a	0	0	0	n/a	n/a	n/a	n/a	n/a
1030.78	n/a	REC_WORD	515390	wordpools/wasnorm_wordpool.txt	LTP120	ltpFR	11	3	0	TRAY	1498	n/a	0	n/a	0	0	0	n/a	n/a	n/a	n/a	n/a
1032.068	n/a	REC_WORD	516034	wordpools/wasnorm_wordpool.txt	LTP120	ltpFR	11	3	1	SPHINX	1349	n/a	0	n/a	0	0	0	n/a	n/a	n/a	n/a	n/a
1033.892	n/a	REC_WORD	516946	wordpools/wasnorm_wordpool.txt	LTP120	ltpFR	11	3	1	CHAUFFEUR	283	n/a	1	n/a	0	0	0	n/a	n/a	n/a	n/a	n/a
1036.028	n/a	REC_WORD	518014	wordpools/wasnorm_wordpool.txt	LTP120	ltpFR	11	3	1	DRIVER	499	n/a	1	n/a	0	0	0	n/a	n/a	n/a	n/a	n/a
1061.21	n/a	REC_WORD	530605	wordpools/wasnorm_wordpool.txt	LTP120	ltpFR	11	3	0	SCROLL	1257	n/a	0	n/a	0	0	0	n/a	n/a	n/a	n/a	n/a
1065.452	n/a	REC_WORD	532726	wordpools/wasnorm_wordpool.txt	LTP120	ltpFR	11	3	0	TART	1436	n/a	0	n/a	0	0	0	n/a	n/a	n/a	n/a	n/a
1112.68	n/a	WORD	556340	wordpools/wasnorm_wordpool.txt	LTP120	ltpFR	11	4	0	POPCORN	1104	n/a	0	n/a	0	0	0	1	0.412841796875	0.57763671875	upper	../fonts/amplitud.ttf
1116.7	n/a	WORD	558350	wordpools/wasnorm_wordpool.txt	LTP120	ltpFR	11	4	0	SERVER	1272	n/a	1	n/a	0	0	0	1	0.412841796875	0.57763671875	upper	../fonts/amplitud.ttf
1120.876	n/a	WORD	560438	wordpools/wasnorm_wordpool.txt	LTP120	ltpFR	11	4	0	VOLCANO	1575	n/a	1	n/a	0	0	0	1	0.412841796875	0.57763671875	upper	../fonts/amplitud.ttf
1124.864	n/a	WORD	562432	wordpools/wasnorm_wordpool.txt	LTP120	ltpFR	11	4	0	LIBRARY	816	n/a	1	n/a	0	0	0	1	0.412841796875	0.57763671875	upper	../fonts/amplitud.ttf
1128.95	n/a	WORD	564475	wordpools/wasnorm_wordpool.txt	LTP120	ltpFR	11	4	0	WARDROBE	1587	n/a	1	n/a	0	0	0	1	0.412841796875	0.57763671875	upper	../fonts/amplitud.ttf
1132.864	n/a	WORD	566432	wordpools/wasnorm_wordpool.txt	LTP120	ltpFR	11	4	0	UNDERWEAR	1537	n/a	0	n/a	0	0	0	1	0.412841796875	0.57763671875	upper	../fonts/amplitud.ttf
1136.866	n/a	WORD	568433	wordpools/wasnorm_wordpool.txt	LTP120	ltpFR	11	4	0	PUCK	1138	n/a	0	n/a	0	0	0	1	0.412841796875	0.57763671875	upper	../fonts/amplitud.ttf
1140.828	n/a	WORD	570414	wordpools/wasnorm_wordpool.txt	LTP120	ltpFR	11	4	0	CRUTCH	417	n/a	1	n/a	0	0	0	1	0.412841796875	0.57763671875	upper	../fonts/amplitud.ttf
1144.8	n/a	WORD	572400	wordpools/wasnorm_wordpool.txt	LTP120	ltpFR	11	4	0	ALLIGATOR	16	n/a	1	n/a	0	0	0	1	0.412841796875	0.57763671875	upper	../fonts/amplitud.ttf
1148.646	n/a	WORD	574323	wordpools/wasnorm_wordpool.txt	LTP120	ltpFR	11	4	0	COLUMN	350	n/a	1	n/a	0	0	0	1	0.412841796875	0.57763671875	upper	../fonts/amplitud.ttf
1152.626	n/a	WORD	576313	wordpools/wasnorm_wordpool.txt	LTP120	ltpFR	11	4	0	PUBLISHER	1137	n/a	1	n/a	0	0	0	1	0.412841796875	0.57763671875	upper	../fonts/amplitud.ttf
1156.72	n/a	WORD	578360	wordpools/wasnorm_wordpool.txt	LTP120	ltpFR	11	4	0	THIGH	1457	n/a	0	n/a	0	0	0	1	0.412841796875	0.57763671875	upper	../fonts/amplitud.ttf
1160.824	n/a	WORD	580412	wordpools/wasnorm_wordpool.txt	LTP120	ltpFR	11	4	0	SNACK	1331	n/a	0	n/a	0	0	0	1	0.412841796875	0.57763671875	upper	../fonts/amplitud.ttf
1164.704	n/a	WORD	582352	wordpools/wasnorm_wordpool.txt	LTP120	ltpFR	11	4	0	BILL	126	n/a	0	n/a	0	0	0	1	0.412841796875	0.57763671875	upper	../fonts/amplitud.ttf
1168.556	n/a	WORD	584278	wordpools/wasnorm_wordpool.txt	LTP120	ltpFR	11	4	0	WALLET	1583	n/a	0	n/a	0	0	0	1	0.412841796875	0.57763671875	upper	../fonts/amplitud.ttf
1172.668	n/a	WORD	586334	wordpools/wasnorm_wordpool.txt	LTP120	ltpFR	11	4	0	LEOPARD	812	n/a	1	n/a	0	0	0	1	0.412841796875	0.57763671875	upper	../fonts/amplitud.ttf
1175.674	n/a	START	587837	n/a	LTP120	ltpFR	11	n/a	n/a	n/a	n/a	n/a	n/a	n/a	n/a	n/a	n/a	n/a	n/a	n/a	n/a	n/a
1176.862	n/a	PROB	588431	n/a	LTP120	ltpFR	11	n/a	n/a	n/a	n/a	n/a	n/a	14	5	1	8	n/a	n/a	n/a	n/a	n/a
1179.52	n/a	PROB	589760	n/a	LTP120	ltpFR	11	n/a	n/a	n/a	n/a	n/a	n/a	15	2	7	6	n/a	n/a	n/a	n/a	n/a
1182.574	n/a	PROB	591287	n/a	LTP120	ltpFR	11	n/a	n/a	n/a	n/a	n/a	n/a	11	9	1	1	n/a	n/a	n/a	n/a	n/a
1183.464	n/a	PROB	591732	n/a	LTP120	ltpFR	11	n/a	n/a	n/a	n/a	n/a	n/a	19	6	5	7	n/a	n/a	n/a	n/a	n/a
1184.836	n/a	PROB	592418	n/a	LTP120	ltpFR	11	n/a	n/a	n/a	n/a	n/a	n/a	19	9	6	4	n/a	n/a	n/a	n/a	n/a
1186.254	n/a	PROB	593127	n/a	LTP120	ltpFR	11	n/a	n/a	n/a	n/a	n/a	n/a	27	9	8	9	n/a	n/a	n/a	n/a	n/a
1188.126	n/a	PROB	594063	n/a	LTP120	ltpFR	11	n/a	n/a	n/a	n/a	n/a	n/a	6	3	2	1	n/a	n/a	n/a	n/a	n/a
1191.674	n/a	STOP	595837	n/a	LTP120	ltpFR	11	n/a	n/a	n/a	n/a	n/a	n/a	n/a	n/a	n/a	n/a	n/a	n/a	n/a	n/a	n/a
1193.454	n/a	REC_START	596727	n/a	LTP120	ltpFR	11	4	n/a	n/a	n/a	n/a	n/a	n/a	0	0	0	n/a	n/a	n/a	n/a	n/a
1196.142	n/a	REC_WORD	598071	wordpools/wasnorm_wordpool.txt	LTP120	ltpFR	11	4	0	BILL	126	n/a	0	n/a	0	0	0	n/a	n/a	n/a	n/a	n/a
1197.45	n/a	REC_WORD	598725	wordpools/wasnorm_wordpool.txt	LTP120	ltpFR	11	4	0	WALLET	1583	n/a	0	n/a	0	0	0	n/a	n/a	n/a	n/a	n/a
1199.146	n/a	REC_WORD	599573	wordpools/wasnorm_wordpool.txt	LTP120	ltpFR	11	4	0	LIBRARY	816	n/a	1	n/a	0	0	0	n/a	n/a	n/a	n/a	n/a
1201.69	n/a	REC_WORD	600845	wordpools/wasnorm_wordpool.txt	LTP120	ltpFR	11	4	0	THIGH	1457	n/a	0	n/a	0	0	0	n/a	n/a	n/a	n/a	n/a
1218.64	n/a	REC_WORD	609320	wordpools/wasnorm_wordpool.txt	LTP120	ltpFR	11	4	0	WARDROBE	1587	n/a	1	n/a	0	0	0	n/a	n/a	n/a	n/a	n/a
1233.264	n/a	REC_WORD	616632	wordpools/wasnorm_wordpool.txt	LTP120	ltpFR	11	4	0	SERVER	1272	n/a	1	n/a	0	0	0	n/a	n/a	n/a	n/a	n/a
1249.042	n/a	REC_WORD	624521	wordpools/wasnorm_wordpool.txt	LTP120	ltpFR	11	4	0	PUCK	1138	n/a	0	n/a	0	0	0	n/a	n/a	n/a	n/a	n/a
1282.31	n/a	WORD	641155	wordpools/wasnorm_wordpool.txt	LTP120	ltpFR	11	5	0	OVEN	991	n/a	1	n/a	0	0	0	1	0.412841796875	0.57763671875	upper	../fonts/amplitud.ttf
1286.23	n/a	WORD	643115	wordpools/wasnorm_wordpool.txt	LTP120	ltpFR	11	5	0	SUPERMARKET	1409	n/a	1	n/a	0	0	0	1	0.412841796875	0.57763671875	upper	../fonts/amplitud.ttf
1290.392	n/a	WORD	645196	wordpools/wasnorm_wordpool.txt	LTP120	ltpFR	11	5	1	CAVITY	264	n/a	0	n/a	0	0	0	0	0.5869140625	0.422607421875	lower	../fonts/zerothre.ttf
1294.562	n/a	WORD	647281	wordpools/wasnorm_wordpool.txt	LTP120	ltpFR	11	5	1	PICKLE	1059	n/a	0	n/a	0	0	0	0	0.5869140625	0.422607421875	lower	../fonts/zerothre.ttf
1298.698	n/a	WORD	649349	wordpools/wasnorm_wordpool.txt	LTP120	ltpFR	11	5	1	ACID	2	n/a	0	n/a	0	0	0	0	0.5869140625	0.422607421875	lower	../fonts/zerothre.ttf
1302.562	n/a	WORD	651281	wordpools/wasnorm_wordpool.txt	LTP120	ltpFR	11	5	1	METEOR	889	n/a	0	n/a	0	0	0	0	0.5869140625	0.422607421875	lower	../fonts/zerothre.ttf
1306.374	n/a	WORD	653187	wordpools/wasnorm_wordpool.txt	LTP120	ltpFR	11	5	0	CUPBOARD	425	n/a	0	n/a	0	0	0	1	0.412841796875	0.57763671875	upper	../fonts/amplitud.ttf
1310.352	n/a	WORD	655176	wordpools/wasnorm_wordpool.txt	LTP120	ltpFR	11	5	0	CASHIER	254	n/a	1	n/a	0	0	0	1	0.412841796875	0.57763671875	upper	../fonts/amplitud.ttf
1314.356	n/a	WORD	657178	wordpools/wasnorm_wordpool.txt	LTP120	ltpFR	11	5	0	RECEIPT	1173	n/a	0	n/a	0	0	0	1	0.412841796875	0.57763671875	upper	../fonts/amplitud.ttf
1318.544	n/a	WORD	659272	wordpools/wasnorm_wordpool.txt	LTP120	ltpFR	11	5	0	KIDNEY	776	n/a	0	n/a	0	0	0	1	0.412841796875	0.57763671875	upper	../fonts/amplitud.ttf
1322.556	n/a	WORD	661278	wordpools/wasnorm_wordpool.txt	LTP120	ltpFR	11	5	0	MEAT	883	n/a	0	n/a	0	0	0	1	0.412841796875	0.57763671875	upper	../fonts/amplitud.ttf
1326.46	n/a	WORD	663230	wordpools/wasnorm_wordpool.txt	LTP120	ltpFR	11	5	0	DAUGHTER	442	n/a	1	n/a	0	0	0	1	0.412841796875	0.57763671875	upper	../fonts/amplitud.ttf
1330.454	n/a	WORD	665227	wordpools/wasnorm_wordpool.txt	LTP120	ltpFR	11	5	1	REFEREE	1178	n/a	1	n/a	0	0	0	0	0.5869140625	0.422607421875	lower	../fonts/zerothre.ttf
1334.474	n/a	WORD	667237	wordpools/wasnorm_wordpool.txt	LTP120	ltpFR	11	5	1	ATHLETE	52	n/a	1	n/a	0	0	0	0	0.5869140625	0.422607421875	lower	../fonts/zerothre.ttf
1338.42	n/a	WORD	669210	wordpools/wasnorm_wordpool.txt	LTP120	ltpFR	11	5	1	TOASTER	1472	n/a	0	n/a	0	0	0	0	0.5869140625	0.422607421875	lower	../fonts/zerothre.ttf
1342.532	n/a	WORD	671266	wordpools/wasnorm_wordpool.txt	LTP120	ltpFR	11	5	1	THICKET	1455	n/a	0	n/a	0	0	0	0	0.5869140625	0.422607421875	lower	../fonts/zerothre.ttf
1348.318	n/a	REC_START	674159	n/a	LTP120	ltpFR	11	5	n/a	n/a	n/a	n/a	n/a	n/a	0	0	0	n/a	n/a	n/a	n/a	n/a
1350.598	n/a	REC_WORD	675299	wordpools/wasnorm_wordpool.txt	LTP120	ltpFR	11	5	1	ATHLETE	52	n/a	1	n/a	0	0	0	n/a	n/a	n/a	n/a	n/a
1351.924	n/a	REC_WORD	675962	wordpools/wasnorm_wordpool.txt	LTP120	ltpFR	11	5	1	REFEREE	1178	n/a	1	n/a	0	0	0	n/a	n/a	n/a	n/a	n/a
1353.84	n/a	REC_WORD	676920	wordpools/wasnorm_wordpool.txt	LTP120	ltpFR	11	5	0	CASHIER	254	n/a	1	n/a	0	0	0	n/a	n/a	n/a	n/a	n/a
1355.346	n/a	REC_WORD	677673	wordpools/wasnorm_wordpool.txt	LTP120	ltpFR	11	5	n/a	TICKET	1464	n/a	n/a	n/a	0	0	0	n/a	n/a	n/a	n/a	n/a
1357.95	n/a	REC_WORD	678975	wordpools/wasnorm_wordpool.txt	LTP120	ltpFR	11	5	1	THICKET	1455	n/a	0	n/a	0	0	0	n/a	n/a	n/a	n/a	n/a
1359.088	n/a	REC_WORD	679544	wordpools/wasnorm_wordpool.txt	LTP120	ltpFR	11	5	0	RECEIPT	1173	n/a	0	n/a	0	0	0	n/a	n/a	n/a	n/a	n/a
1369.116	n/a	REC_WORD	684558	wordpools/wasnorm_wordpool.txt	LTP120	ltpFR	11	5	1	ACID	2	n/a	0	n/a	0	0	0	n/a	n/a	n/a	n/a	n/a
1374.442	n/a	REC_WORD	687221	wordpools/wasnorm_wordpool.txt	LTP120	ltpFR	11	5	1	METEOR	889	n/a	0	n/a	0	0	0	n/a	n/a	n/a	n/a	n/a
1377.726	n/a	REC_WORD	688863	wordpools/wasnorm_wordpool.txt	LTP120	ltpFR	11	5	1	CAVITY	264	n/a	0	n/a	0	0	0	n/a	n/a	n/a	n/a	n/a
1380.48	n/a	REC_WORD	690240	wordpools/wasnorm_wordpool.txt	LTP120	ltpFR	11	5	0	MEAT	883	n/a	0	n/a	0	0	0	n/a	n/a	n/a	n/a	n/a
1382.8	n/a	REC_WORD	691400	wordpools/wasnorm_wordpool.txt	LTP120	ltpFR	11	5	0	DAUGHTER	442	n/a	1	n/a	0	0	0	n/a	n/a	n/a	n/a	n/a
1384.66	n/a	REC_WORD	692330	wordpools/wasnorm_wordpool.txt	LTP120	ltpFR	11	5	0	KIDNEY	776	n/a	0	n/a	0	0	0	n/a	n/a	n/a	n/a	n/a
1399.448	n/a	REC_WORD	699724	wordpools/wasnorm_wordpool.txt	LTP120	ltpFR	11	5	0	CUPBOARD	425	n/a	0	n/a	0	0	0	n/a	n/a	n/a	n/a	n/a
1433.67	n/a	START	716835	n/a	LTP120	ltpFR	11	n/a	n/a	n/a	n/a	n/a	n/a	n/a	n/a	n/a	n/a	n/a	n/a	n/a	n/a	n/a
1435.176	n/a	PROB	717588	n/a	LTP120	ltpFR	11	n/a	n/a	n/a	n/a	n/a	n/a	1	9	7	5	n/a	n/a	n/a	n/a	n/a
1437.49	n/a	PROB	718745	n/a	LTP120	ltpFR	11	n/a	n/a	n/a	n/a	n/a	n/a	17	2	7	8	n/a	n/a	n/a	n/a	n/a
1439.736	n/a	PROB	719868	n/a	LTP120	ltpFR	11	n/a	n/a	n/a	n/a	n/a	n/a	15	5	5	5	n/a	n/a	n/a	n/a	n/a
1440.768	n/a	PROB	720384	n/a	LTP120	ltpFR	11	n/a	n/a	n/a	n/a	n/a	n/a	21	9	5	7	n/a	n/a	n/a	n/a	n/a
1444.09	n/a	PROB	722045	n/a	LTP120	ltpFR	11	n/a	n/a	n/a	n/a	n/a	n/a	17	7	8	2	n/a	n/a	n/a	n/a	n/a
1445.778	n/a	PROB	722889	n/a	LTP120	ltpFR	11	n/a	n/a	n/a	n/a	n/a	n/a	27	9	9	9	n/a	n/a	n/a	n/a	n/a
1449.67	n/a	STOP	724835	n/a	LTP120	ltpFR	11	n/a	n/a	n/a	n/a	n/a	n/a	n/a	n/a	n/a	n/a	n/a	n/a	n/a	n/a	n/a
1450.682	n/a	WORD	725341	wordpools/wasnorm_wordpool.txt	LTP120	ltpFR	11	6	1	PRINCESS	1125	n/a	1	n/a	0	0	0	0	0.5869140625	0.422607421875	lower	../fonts/zerothre.ttf
1453.688	n/a	START	726844	n/a	LTP120	ltpFR	11	n/a	n/a	n/a	n/a	n/a	n/a	n/a	n/a	n/a	n/a	n/a	n/a	n/a	n/a	n/a
1454.694	n/a	PROB	727347	n/a	LTP120	ltpFR	11	n/a	n/a	n/a	n/a	n/a	n/a	17	8	2	7	n/a	n/a	n/a	n/a	n/a
1455.858	n/a	PROB	727929	n/a	LTP120	ltpFR	11	n/a	n/a	n/a	n/a	n/a	n/a	11	6	4	1	n/a	n/a	n/a	n/a	n/a
1456.932	n/a	PROB	728466	n/a	LTP120	ltpFR	11	n/a	n/a	n/a	n/a	n/a	n/a	8	1	4	3	n/a	n/a	n/a	n/a	n/a
1458.508	n/a	PROB	729254	n/a	LTP120	ltpFR	11	n/a	n/a	n/a	n/a	n/a	n/a	14	6	7	1	n/a	n/a	n/a	n/a	n/a
1459.864	n/a	PROB	729932	n/a	LTP120	ltpFR	11	n/a	n/a	n/a	n/a	n/a	n/a	16	9	4	3	n/a	n/a	n/a	n/a	n/a
1461.802	n/a	PROB	730901	n/a	LTP120	ltpFR	11	n/a	n/a	n/a	n/a	n/a	n/a	22	8	9	5	n/a	n/a	n/a	n/a	n/a
1464.034	n/a	PROB	732017	n/a	LTP120	ltpFR	11	n/a	n/a	n/a	n/a	n/a	n/a	8	4	2	2	n/a	n/a	n/a	n/a	n/a
1465.242	n/a	PROB	732621	n/a	LTP120	ltpFR	11	n/a	n/a	n/a	n/a	n/a	n/a	11	5	2	4	n/a	n/a	n/a	n/a	n/a
1468.53	n/a	STOP	734265	n/a	LTP120	ltpFR	11	n/a	n/a	n/a	n/a	n/a	n/a	n/a	n/a	n/a	n/a	n/a	n/a	n/a	n/a	n/a
1470.61	n/a	WORD	735305	wordpools/wasnorm_wordpool.txt	LTP120	ltpFR	11	6	1	FOX	598	n/a	1	n/a	0	0	0	0	0.5869140625	0.422607421875	lower	../fonts/zerothre.ttf
1473.616	n/a	START	736808	n/a	LTP120	ltpFR	11	n/a	n/a	n/a	n/a	n/a	n/a	n/a	n/a	n/a	n/a	n/a	n/a	n/a	n/a	n/a
1474.796	n/a	PROB	737398	n/a	LTP120	ltpFR	11	n/a	n/a	n/a	n/a	n/a	n/a	8	2	1	5	n/a	n/a	n/a	n/a	n/a
1476.288	n/a	PROB	738144	n/a	LTP120	ltpFR	11	n/a	n/a	n/a	n/a	n/a	n/a	14	4	5	5	n/a	n/a	n/a	n/a	n/a
1477.586	n/a	PROB	738793	n/a	LTP120	ltpFR	11	n/a	n/a	n/a	n/a	n/a	n/a	16	5	9	2	n/a	n/a	n/a	n/a	n/a
1480.682	n/a	PROB	740341	n/a	LTP120	ltpFR	11	n/a	n/a	n/a	n/a	n/a	n/a	14	5	2	7	n/a	n/a	n/a	n/a	n/a
1482.514	n/a	PROB	741257	n/a	LTP120	ltpFR	11	n/a	n/a	n/a	n/a	n/a	n/a	27	9	9	9	n/a	n/a	n/a	n/a	n/a
1483.91	n/a	PROB	741955	n/a	LTP120	ltpFR	11	n/a	n/a	n/a	n/a	n/a	n/a	14	2	3	9	n/a	n/a	n/a	n/a	n/a
1485.808	n/a	PROB	742904	n/a	LTP120	ltpFR	11	n/a	n/a	n/a	n/a	n/a	n/a	15	6	1	8	n/a	n/a	n/a	n/a	n/a
1487.532	n/a	PROB	743766	n/a	LTP120	ltpFR	11	n/a	n/a	n/a	n/a	n/a	n/a	14	1	4	9	n/a	n/a	n/a	n/a	n/a
1489.098	n/a	STOP	744549	n/a	LTP120	ltpFR	11	n/a	n/a	n/a	n/a	n/a	n/a	n/a	n/a	n/a	n/a	n/a	n/a	n/a	n/a	n/a
1490.446	n/a	WORD	745223	wordpools/wasnorm_wordpool.txt	LTP120	ltpFR	11	6	1	DRINK	498	n/a	0	n/a	0	0	0	0	0.5869140625	0.422607421875	lower	../fonts/zerothre.ttf
1493.45	n/a	START	746725	n/a	LTP120	ltpFR	11	n/a	n/a	n/a	n/a	n/a	n/a	n/a	n/a	n/a	n/a	n/a	n/a	n/a	n/a	n/a
1494.54	n/a	PROB	747270	n/a	LTP120	ltpFR	11	n/a	n/a	n/a	n/a	n/a	n/a	26	9	9	8	n/a	n/a	n/a	n/a	n/a
1500.584	n/a	PROB	750292	n/a	LTP120	ltpFR	11	n/a	n/a	n/a	n/a	n/a	n/a	11	5	2	4	n/a	n/a	n/a	n/a	n/a
1502.074	n/a	PROB	751037	n/a	LTP120	ltpFR	11	n/a	n/a	n/a	n/a	n/a	n/a	14	4	9	1	n/a	n/a	n/a	n/a	n/a
1503.39	n/a	PROB	751695	n/a	LTP120	ltpFR	11	n/a	n/a	n/a	n/a	n/a	n/a	14	4	6	4	n/a	n/a	n/a	n/a	n/a
1504.604	n/a	PROB	752302	n/a	LTP120	ltpFR	11	n/a	n/a	n/a	n/a	n/a	n/a	21	4	8	9	n/a	n/a	n/a	n/a	n/a
1507.928	n/a	STOP	753964	n/a	LTP120	ltpFR	11	n/a	n/a	n/a	n/a	n/a	n/a	n/a	n/a	n/a	n/a	n/a	n/a	n/a	n/a	n/a
1510.598	n/a	WORD	755299	wordpools/wasnorm_wordpool.txt	LTP120	ltpFR	11	6	0	BARTENDER	92	n/a	1	n/a	0	0	0	1	0.412841796875	0.57763671875	upper	../fonts/amplitud.ttf
1513.602	n/a	START	756801	n/a	LTP120	ltpFR	11	n/a	n/a	n/a	n/a	n/a	n/a	n/a	n/a	n/a	n/a	n/a	n/a	n/a	n/a	n/a
1514.726	n/a	PROB	757363	n/a	LTP120	ltpFR	11	n/a	n/a	n/a	n/a	n/a	n/a	15	9	5	1	n/a	n/a	n/a	n/a	n/a
1515.924	n/a	PROB	757962	n/a	LTP120	ltpFR	11	n/a	n/a	n/a	n/a	n/a	n/a	18	7	3	8	n/a	n/a	n/a	n/a	n/a
1517.298	n/a	PROB	758649	n/a	LTP120	ltpFR	11	n/a	n/a	n/a	n/a	n/a	n/a	23	7	8	8	n/a	n/a	n/a	n/a	n/a
1520.062	n/a	PROB	760031	n/a	LTP120	ltpFR	11	n/a	n/a	n/a	n/a	n/a	n/a	7	3	1	3	n/a	n/a	n/a	n/a	n/a
1521.426	n/a	PROB	760713	n/a	LTP120	ltpFR	11	n/a	n/a	n/a	n/a	n/a	n/a	12	3	5	4	n/a	n/a	n/a	n/a	n/a
1524.606	n/a	PROB	762303	n/a	LTP120	ltpFR	11	n/a	n/a	n/a	n/a	n/a	n/a	15	5	8	2	n/a	n/a	n/a	n/a	n/a
1526.188	n/a	PROB	763094	n/a	LTP120	ltpFR	11	n/a	n/a	n/a	n/a	n/a	n/a	20	6	8	6	n/a	n/a	n/a	n/a	n/a
1528.888	n/a	STOP	764444	n/a	LTP120	ltpFR	11	n/a	n/a	n/a	n/a	n/a	n/a	n/a	n/a	n/a	n/a	n/a	n/a	n/a	n/a	n/a
1530.59	n/a	WORD	765295	wordpools/wasnorm_wordpool.txt	LTP120	ltpFR	11	6	0	MEDAL	885	n/a	0	n/a	0	0	0	1	0.412841796875	0.57763671875	upper	../fonts/amplitud.ttf
1533.596	n/a	START	766798	n/a	LTP120	ltpFR	11	n/a	n/a	n/a	n/a	n/a	n/a	n/a	n/a	n/a	n/a	n/a	n/a	n/a	n/a	n/a
1534.52	n/a	PROB	767260	n/a	LTP120	ltpFR	11	n/a	n/a	n/a	n/a	n/a	n/a	17	9	4	4	n/a	n/a	n/a	n/a	n/a
1540.306	n/a	PROB	770153	n/a	LTP120	ltpFR	11	n/a	n/a	n/a	n/a	n/a	n/a	10	2	2	6	n/a	n/a	n/a	n/a	n/a
1541.42	n/a	PROB	770710	n/a	LTP120	ltpFR	11	n/a	n/a	n/a	n/a	n/a	n/a	15	5	5	5	n/a	n/a	n/a	n/a	n/a
1542.386	n/a	PROB	771193	n/a	LTP120	ltpFR	11	n/a	n/a	n/a	n/a	n/a	n/a	2	5	8	7	n/a	n/a	n/a	n/a	n/a
1545.358	n/a	PROB	772679	n/a	LTP120	ltpFR	11	n/a	n/a	n/a	n/a	n/a	n/a	23	6	9	8	n/a	n/a	n/a	n/a	n/a
1548.954	n/a	STOP	774477	n/a	LTP120	ltpFR	11	n/a	n/a	n/a	n/a	n/a	n/a	n/a	n/a	n/a	n/a	n/a	n/a	n/a	n/a	n/a
1550.428	n/a	WORD	775214	wordpools/wasnorm_wordpool.txt	LTP120	ltpFR	11	6	0	PEARL	1034	n/a	0	n/a	0	0	0	1	0.412841796875	0.57763671875	upper	../fonts/amplitud.ttf
1553.432	n/a	START	776716	n/a	LTP120	ltpFR	11	n/a	n/a	n/a	n/a	n/a	n/a	n/a	n/a	n/a	n/a	n/a	n/a	n/a	n/a	n/a
1554.614	n/a	PROB	777307	n/a	LTP120	ltpFR	11	n/a	n/a	n/a	n/a	n/a	n/a	18	6	4	8	n/a	n/a	n/a	n/a	n/a
1557.16	n/a	PROB	778580	n/a	LTP120	ltpFR	11	n/a	n/a	n/a	n/a	n/a	n/a	12	3	6	3	n/a	n/a	n/a	n/a	n/a
1559.118	n/a	PROB	779559	n/a	LTP120	ltpFR	11	n/a	n/a	n/a	n/a	n/a	n/a	18	4	5	9	n/a	n/a	n/a	n/a	n/a
1560.948	n/a	PROB	780474	n/a	LTP120	ltpFR	11	n/a	n/a	n/a	n/a	n/a	n/a	11	2	1	8	n/a	n/a	n/a	n/a	n/a
1562.488	n/a	PROB	781244	n/a	LTP120	ltpFR	11	n/a	n/a	n/a	n/a	n/a	n/a	14	6	2	6	n/a	n/a	n/a	n/a	n/a
1565.758	n/a	PROB	782879	n/a	LTP120	ltpFR	11	n/a	n/a	n/a	n/a	n/a	n/a	12	1	6	5	n/a	n/a	n/a	n/a	n/a
1568.578	n/a	STOP	784289	n/a	LTP120	ltpFR	11	n/a	n/a	n/a	n/a	n/a	n/a	n/a	n/a	n/a	n/a	n/a	n/a	n/a	n/a	n/a
1570.57	n/a	WORD	785285	wordpools/wasnorm_wordpool.txt	LTP120	ltpFR	11	6	0	CHIME	300	n/a	0	n/a	0	0	0	1	0.412841796875	0.57763671875	upper	../fonts/amplitud.ttf
1573.576	n/a	START	786788	n/a	LTP120	ltpFR	11	n/a	n/a	n/a	n/a	n/a	n/a	n/a	n/a	n/a	n/a	n/a	n/a	n/a	n/a	n/a
1574.44	n/a	PROB	787220	n/a	LTP120	ltpFR	11	n/a	n/a	n/a	n/a	n/a	n/a	18	5	5	8	n/a	n/a	n/a	n/a	n/a
1575.732	n/a	PROB	787866	n/a	LTP120	ltpFR	11	n/a	n/a	n/a	n/a	n/a	n/a	17	5	4	8	n/a	n/a	n/a	n/a	n/a
1578.002	n/a	PROB	789001	n/a	LTP120	ltpFR	11	n/a	n/a	n/a	n/a	n/a	n/a	14	3	8	3	n/a	n/a	n/a	n/a	n/a
1579.742	n/a	PROB	789871	n/a	LTP120	ltpFR	11	n/a	n/a	n/a	n/a	n/a	n/a	17	7	8	2	n/a	n/a	n/a	n/a	n/a
1581.532	n/a	PROB	790766	n/a	LTP120	ltpFR	11	n/a	n/a	n/a	n/a	n/a	n/a	13	5	5	3	n/a	n/a	n/a	n/a	n/a
1582.814	n/a	PROB	791407	n/a	LTP120	ltpFR	11	n/a	n/a	n/a	n/a	n/a	n/a	21	9	5	7	n/a	n/a	n/a	n/a	n/a
1585.096	n/a	PROB	792548	n/a	LTP120	ltpFR	11	n/a	n/a	n/a	n/a	n/a	n/a	10	1	6	3	n/a	n/a	n/a	n/a	n/a
1586.686	n/a	PROB	793343	n/a	LTP120	ltpFR	11	n/a	n/a	n/a	n/a	n/a	n/a	19	8	5	6	n/a	n/a	n/a	n/a	n/a
1588.834	n/a	STOP	794417	n/a	LTP120	ltpFR	11	n/a	n/a	n/a	n/a	n/a	n/a	n/a	n/a	n/a	n/a	n/a	n/a	n/a	n/a	n/a
1590.514	n/a	WORD	795257	wordpools/wasnorm_wordpool.txt	LTP120	ltpFR	11	6	0	AUTOMOBILE	62	n/a	1	n/a	0	0	0	1	0.412841796875	0.57763671875	upper	../fonts/amplitud.ttf
1593.52	n/a	START	796760	n/a	LTP120	ltpFR	11	n/a	n/a	n/a	n/a	n/a	n/a	n/a	n/a	n/a	n/a	n/a	n/a	n/a	n/a	n/a
1594.55	n/a	PROB	797275	n/a	LTP120	ltpFR	11	n/a	n/a	n/a	n/a	n/a	n/a	20	8	8	4	n/a	n/a	n/a	n/a	n/a
1596.732	n/a	PROB	798366	n/a	LTP120	ltpFR	11	n/a	n/a	n/a	n/a	n/a	n/a	21	7	6	8	n/a	n/a	n/a	n/a	n/a
1600.194	n/a	PROB	800097	n/a	LTP120	ltpFR	11	n/a	n/a	n/a	n/a	n/a	n/a	10	4	5	1	n/a	n/a	n/a	n/a	n/a
1601.268	n/a	PROB	800634	n/a	LTP120	ltpFR	11	n/a	n/a	n/a	n/a	n/a	n/a	13	4	1	8	n/a	n/a	n/a	n/a	n/a
1602.982	n/a	PROB	801491	n/a	LTP120	ltpFR	11	n/a	n/a	n/a	n/a	n/a	n/a	15	5	3	7	n/a	n/a	n/a	n/a	n/a
1604.382	n/a	PROB	802191	n/a	LTP120	ltpFR	11	n/a	n/a	n/a	n/a	n/a	n/a	9	1	2	6	n/a	n/a	n/a	n/a	n/a
1605.944	n/a	PROB	802972	n/a	LTP120	ltpFR	11	n/a	n/a	n/a	n/a	n/a	n/a	12	5	1	6	n/a	n/a	n/a	n/a	n/a
1607.52	n/a	PROB	803760	n/a	LTP120	ltpFR	11	n/a	n/a	n/a	n/a	n/a	n/a	14	3	4	7	n/a	n/a	n/a	n/a	n/a
1608.938	n/a	STOP	804469	n/a	LTP120	ltpFR	11	n/a	n/a	n/a	n/a	n/a	n/a	n/a	n/a	n/a	n/a	n/a	n/a	n/a	n/a	n/a
1610.598	n/a	WORD	805299	wordpools/wasnorm_wordpool.txt	LTP120	ltpFR	11	6	0	CURTAIN	427	n/a	1	n/a	0	0	0	1	0.412841796875	0.57763671875	upper	../fonts/amplitud.ttf
1613.604	n/a	START	806802	n/a	LTP120	ltpFR	11	n/a	n/a	n/a	n/a	n/a	n/a	n/a	n/a	n/a	n/a	n/a	n/a	n/a	n/a	n/a
1614.412	n/a	PROB	807206	n/a	LTP120	ltpFR	11	n/a	n/a	n/a	n/a	n/a	n/a	20	6	7	7	n/a	n/a	n/a	n/a	n/a
1616.668	n/a	PROB	808334	n/a	LTP120	ltpFR	11	n/a	n/a	n/a	n/a	n/a	n/a	14	3	5	6	n/a	n/a	n/a	n/a	n/a
1618.258	n/a	PROB	809129	n/a	LTP120	ltpFR	11	n/a	n/a	n/a	n/a	n/a	n/a	13	3	3	7	n/a	n/a	n/a	n/a	n/a
1619.54	n/a	PROB	809770	n/a	LTP120	ltpFR	11	n/a	n/a	n/a	n/a	n/a	n/a	12	1	3	8	n/a	n/a	n/a	n/a	n/a
1624.024	n/a	PROB	812012	n/a	LTP120	ltpFR	11	n/a	n/a	n/a	n/a	n/a	n/a	13	1	5	7	n/a	n/a	n/a	n/a	n/a
1625.89	n/a	PROB	812945	n/a	LTP120	ltpFR	11	n/a	n/a	n/a	n/a	n/a	n/a	15	9	5	1	n/a	n/a	n/a	n/a	n/a
1627.08	n/a	PROB	813540	n/a	LTP120	ltpFR	11	n/a	n/a	n/a	n/a	n/a	n/a	22	6	8	9	n/a	n/a	n/a	n/a	n/a
1628.85	n/a	STOP	814425	n/a	LTP120	ltpFR	11	n/a	n/a	n/a	n/a	n/a	n/a	n/a	n/a	n/a	n/a	n/a	n/a	n/a	n/a	n/a
1630.426	n/a	WORD	815213	wordpools/wasnorm_wordpool.txt	LTP120	ltpFR	11	6	1	PREDATOR	1120	n/a	1	n/a	0	0	0	0	0.5869140625	0.422607421875	lower	../fonts/zerothre.ttf
1633.432	n/a	START	816716	n/a	LTP120	ltpFR	11	n/a	n/a	n/a	n/a	n/a	n/a	n/a	n/a	n/a	n/a	n/a	n/a	n/a	n/a	n/a
1634.514	n/a	PROB	817257	n/a	LTP120	ltpFR	11	n/a	n/a	n/a	n/a	n/a	n/a	10	1	8	1	n/a	n/a	n/a	n/a	n/a
1636.254	n/a	PROB	818127	n/a	LTP120	ltpFR	11	n/a	n/a	n/a	n/a	n/a	n/a	19	8	5	6	n/a	n/a	n/a	n/a	n/a
1637.776	n/a	PROB	818888	n/a	LTP120	ltpFR	11	n/a	n/a	n/a	n/a	n/a	n/a	13	7	1	5	n/a	n/a	n/a	n/a	n/a
1640.324	n/a	PROB	820162	n/a	LTP120	ltpFR	11	n/a	n/a	n/a	n/a	n/a	n/a	21	9	9	3	n/a	n/a	n/a	n/a	n/a
1641.722	n/a	PROB	820861	n/a	LTP120	ltpFR	11	n/a	n/a	n/a	n/a	n/a	n/a	13	2	3	8	n/a	n/a	n/a	n/a	n/a
1643.57	n/a	PROB	821785	n/a	LTP120	ltpFR	11	n/a	n/a	n/a	n/a	n/a	n/a	19	5	9	5	n/a	n/a	n/a	n/a	n/a
1646.484	n/a	PROB	823242	n/a	LTP120	ltpFR	11	n/a	n/a	n/a	n/a	n/a	n/a	18	5	4	9	n/a	n/a	n/a	n/a	n/a
1649.432	n/a	STOP	824716	n/a	LTP120	ltpFR	11	n/a	n/a	n/a	n/a	n/a	n/a	n/a	n/a	n/a	n/a	n/a	n/a	n/a	n/a	n/a
1650.596	n/a	WORD	825298	wordpools/wasnorm_wordpool.txt	LTP120	ltpFR	11	6	1	COBBLER	335	n/a	0	n/a	0	0	0	0	0.5869140625	0.422607421875	lower	../fonts/zerothre.ttf
1653.6	n/a	START	826800	n/a	LTP120	ltpFR	11	n/a	n/a	n/a	n/a	n/a	n/a	n/a	n/a	n/a	n/a	n/a	n/a	n/a	n/a	n/a
1654.44	n/a	PROB	827220	n/a	LTP120	ltpFR	11	n/a	n/a	n/a	n/a	n/a	n/a	24	8	7	9	n/a	n/a	n/a	n/a	n/a
1658.602	n/a	PROB	829301	n/a	LTP120	ltpFR	11	n/a	n/a	n/a	n/a	n/a	n/a	16	6	8	2	n/a	n/a	n/a	n/a	n/a
1659.95	n/a	PROB	829975	n/a	LTP120	ltpFR	11	n/a	n/a	n/a	n/a	n/a	n/a	14	5	4	5	n/a	n/a	n/a	n/a	n/a
1661.124	n/a	PROB	830562	n/a	LTP120	ltpFR	11	n/a	n/a	n/a	n/a	n/a	n/a	23	8	8	7	n/a	n/a	n/a	n/a	n/a
1663.472	n/a	PROB	831736	n/a	LTP120	ltpFR	11	n/a	n/a	n/a	n/a	n/a	n/a	17	8	1	8	n/a	n/a	n/a	n/a	n/a
1664.936	n/a	PROB	832468	n/a	LTP120	ltpFR	11	n/a	n/a	n/a	n/a	n/a	n/a	14	1	5	8	n/a	n/a	n/a	n/a	n/a
1667.15	n/a	PROB	833575	n/a	LTP120	ltpFR	11	n/a	n/a	n/a	n/a	n/a	n/a	16	7	3	6	n/a	n/a	n/a	n/a	n/a
1668.324	n/a	STOP	834162	n/a	LTP120	ltpFR	11	n/a	n/a	n/a	n/a	n/a	n/a	n/a	n/a	n/a	n/a	n/a	n/a	n/a	n/a	n/a
1670.78	n/a	WORD	835390	wordpools/wasnorm_wordpool.txt	LTP120	ltpFR	11	6	0	HEEL	700	n/a	0	n/a	0	0	0	1	0.412841796875	0.57763671875	upper	../fonts/amplitud.ttf
1673.784	n/a	START	836892	n/a	LTP120	ltpFR	11	n/a	n/a	n/a	n/a	n/a	n/a	n/a	n/a	n/a	n/a	n/a	n/a	n/a	n/a	n/a
1674.85	n/a	PROB	837425	n/a	LTP120	ltpFR	11	n/a	n/a	n/a	n/a	n/a	n/a	16	8	1	7	n/a	n/a	n/a	n/a	n/a
1676.606	n/a	PROB	838303	n/a	LTP120	ltpFR	11	n/a	n/a	n/a	n/a	n/a	n/a	18	4	9	5	n/a	n/a	n/a	n/a	n/a
1678.67	n/a	PROB	839335	n/a	LTP120	ltpFR	11	n/a	n/a	n/a	n/a	n/a	n/a	7	1	4	2	n/a	n/a	n/a	n/a	n/a
1680.002	n/a	PROB	840001	n/a	LTP120	ltpFR	11	n/a	n/a	n/a	n/a	n/a	n/a	12	3	4	5	n/a	n/a	n/a	n/a	n/a
1682.266	n/a	PROB	841133	n/a	LTP120	ltpFR	11	n/a	n/a	n/a	n/a	n/a	n/a	21	8	7	6	n/a	n/a	n/a	n/a	n/a
1685.722	n/a	PROB	842861	n/a	LTP120	ltpFR	11	n/a	n/a	n/a	n/a	n/a	n/a	17	6	8	3	n/a	n/a	n/a	n/a	n/a
1687.428	n/a	PROB	843714	n/a	LTP120	ltpFR	11	n/a	n/a	n/a	n/a	n/a	n/a	18	2	7	9	n/a	n/a	n/a	n/a	n/a
1688.738	n/a	STOP	844369	n/a	LTP120	ltpFR	11	n/a	n/a	n/a	n/a	n/a	n/a	n/a	n/a	n/a	n/a	n/a	n/a	n/a	n/a	n/a
1690.93	n/a	WORD	845465	wordpools/wasnorm_wordpool.txt	LTP120	ltpFR	11	6	0	SCOTCH	1251	n/a	0	n/a	0	0	0	1	0.412841796875	0.57763671875	upper	../fonts/amplitud.ttf
1693.936	n/a	START	846968	n/a	LTP120	ltpFR	11	n/a	n/a	n/a	n/a	n/a	n/a	n/a	n/a	n/a	n/a	n/a	n/a	n/a	n/a	n/a
1695.112	n/a	PROB	847556	n/a	LTP120	ltpFR	11	n/a	n/a	n/a	n/a	n/a	n/a	16	4	8	4	n/a	n/a	n/a	n/a	n/a
1696.75	n/a	PROB	848375	n/a	LTP120	ltpFR	11	n/a	n/a	n/a	n/a	n/a	n/a	7	1	1	5	n/a	n/a	n/a	n/a	n/a
1697.808	n/a	PROB	848904	n/a	LTP120	ltpFR	11	n/a	n/a	n/a	n/a	n/a	n/a	12	1	4	7	n/a	n/a	n/a	n/a	n/a
1699.714	n/a	PROB	849857	n/a	LTP120	ltpFR	11	n/a	n/a	n/a	n/a	n/a	n/a	15	9	3	3	n/a	n/a	n/a	n/a	n/a
1703.502	n/a	PROB	851751	n/a	LTP120	ltpFR	11	n/a	n/a	n/a	n/a	n/a	n/a	19	7	8	4	n/a	n/a	n/a	n/a	n/a
1705.008	n/a	PROB	852504	n/a	LTP120	ltpFR	11	n/a	n/a	n/a	n/a	n/a	n/a	10	2	2	6	n/a	n/a	n/a	n/a	n/a
1709.938	n/a	STOP	854969	n/a	LTP120	ltpFR	11	n/a	n/a	n/a	n/a	n/a	n/a	n/a	n/a	n/a	n/a	n/a	n/a	n/a	n/a	n/a
1711.0	n/a	WORD	855500	wordpools/wasnorm_wordpool.txt	LTP120	ltpFR	11	6	1	ZOO	1637	n/a	0	n/a	0	0	0	0	0.5869140625	0.422607421875	lower	../fonts/zerothre.ttf
1714.006	n/a	START	857003	n/a	LTP120	ltpFR	11	n/a	n/a	n/a	n/a	n/a	n/a	n/a	n/a	n/a	n/a	n/a	n/a	n/a	n/a	n/a
1715.162	n/a	PROB	857581	n/a	LTP120	ltpFR	11	n/a	n/a	n/a	n/a	n/a	n/a	18	7	4	7	n/a	n/a	n/a	n/a	n/a
1718.642	n/a	PROB	859321	n/a	LTP120	ltpFR	11	n/a	n/a	n/a	n/a	n/a	n/a	16	8	2	6	n/a	n/a	n/a	n/a	n/a
1719.948	n/a	PROB	859974	n/a	LTP120	ltpFR	11	n/a	n/a	n/a	n/a	n/a	n/a	5	2	2	1	n/a	n/a	n/a	n/a	n/a
1720.906	n/a	PROB	860453	n/a	LTP120	ltpFR	11	n/a	n/a	n/a	n/a	n/a	n/a	10	1	6	3	n/a	n/a	n/a	n/a	n/a
1725.966	n/a	PROB	862983	n/a	LTP120	ltpFR	11	n/a	n/a	n/a	n/a	n/a	n/a	26	9	8	9	n/a	n/a	n/a	n/a	n/a
1730.006	n/a	STOP	865003	n/a	LTP120	ltpFR	11	n/a	n/a	n/a	n/a	n/a	n/a	n/a	n/a	n/a	n/a	n/a	n/a	n/a	n/a	n/a
1731.078	n/a	WORD	865539	wordpools/wasnorm_wordpool.txt	LTP120	ltpFR	11	6	1	TUBE	1516	n/a	0	n/a	0	0	0	0	0.5869140625	0.422607421875	lower	../fonts/zerothre.ttf
1734.084	n/a	START	867042	n/a	LTP120	ltpFR	11	n/a	n/a	n/a	n/a	n/a	n/a	n/a	n/a	n/a	n/a	n/a	n/a	n/a	n/a	n/a
1735.148	n/a	PROB	867574	n/a	LTP120	ltpFR	11	n/a	n/a	n/a	n/a	n/a	n/a	13	4	2	7	n/a	n/a	n/a	n/a	n/a
1737.554	n/a	PROB	868777	n/a	LTP120	ltpFR	11	n/a	n/a	n/a	n/a	n/a	n/a	19	8	6	5	n/a	n/a	n/a	n/a	n/a
1739.284	n/a	PROB	869642	n/a	LTP120	ltpFR	11	n/a	n/a	n/a	n/a	n/a	n/a	16	1	7	8	n/a	n/a	n/a	n/a	n/a
1740.924	n/a	PROB	870462	n/a	LTP120	ltpFR	11	n/a	n/a	n/a	n/a	n/a	n/a	21	6	8	7	n/a	n/a	n/a	n/a	n/a
1743.288	n/a	PROB	871644	n/a	LTP120	ltpFR	11	n/a	n/a	n/a	n/a	n/a	n/a	17	5	8	4	n/a	n/a	n/a	n/a	n/a
1745.952	n/a	PROB	872976	n/a	LTP120	ltpFR	11	n/a	n/a	n/a	n/a	n/a	n/a	9	5	3	1	n/a	n/a	n/a	n/a	n/a
1747.342	n/a	PROB	873671	n/a	LTP120	ltpFR	11	n/a	n/a	n/a	n/a	n/a	n/a	22	6	6	8	n/a	n/a	n/a	n/a	n/a
1748.724	n/a	STOP	874362	n/a	LTP120	ltpFR	11	n/a	n/a	n/a	n/a	n/a	n/a	n/a	n/a	n/a	n/a	n/a	n/a	n/a	n/a	n/a
1751.02	n/a	WORD	875510	wordpools/wasnorm_wordpool.txt	LTP120	ltpFR	11	6	1	RUBY	1214	n/a	0	n/a	0	0	0	0	0.5869140625	0.422607421875	lower	../fonts/zerothre.ttf
1754.026	n/a	START	877013	n/a	LTP120	ltpFR	11	n/a	n/a	n/a	n/a	n/a	n/a	n/a	n/a	n/a	n/a	n/a	n/a	n/a	n/a	n/a
1755.166	n/a	PROB	877583	n/a	LTP120	ltpFR	11	n/a	n/a	n/a	n/a	n/a	n/a	23	9	6	8	n/a	n/a	n/a	n/a	n/a
1760.102	n/a	PROB	880051	n/a	LTP120	ltpFR	11	n/a	n/a	n/a	n/a	n/a	n/a	12	8	3	1	n/a	n/a	n/a	n/a	n/a
1761.642	n/a	PROB	880821	n/a	LTP120	ltpFR	11	n/a	n/a	n/a	n/a	n/a	n/a	22	8	6	8	n/a	n/a	n/a	n/a	n/a
1763.888	n/a	PROB	881944	n/a	LTP120	ltpFR	11	n/a	n/a	n/a	n/a	n/a	n/a	12	5	6	1	n/a	n/a	n/a	n/a	n/a
1765.43	n/a	PROB	882715	n/a	LTP120	ltpFR	11	n/a	n/a	n/a	n/a	n/a	n/a	15	7	1	7	n/a	n/a	n/a	n/a	n/a
1766.654	n/a	PROB	883327	n/a	LTP120	ltpFR	11	n/a	n/a	n/a	n/a	n/a	n/a	21	3	9	9	n/a	n/a	n/a	n/a	n/a
1769.316	n/a	STOP	884658	n/a	LTP120	ltpFR	11	n/a	n/a	n/a	n/a	n/a	n/a	n/a	n/a	n/a	n/a	n/a	n/a	n/a	n/a	n/a
1771.788	n/a	REC_START	885894	n/a	LTP120	ltpFR	11	6	n/a	n/a	n/a	n/a	n/a	n/a	0	0	0	n/a	n/a	n/a	n/a	n/a
1773.9	n/a	REC_WORD	886950	wordpools/wasnorm_wordpool.txt	LTP120	ltpFR	11	6	1	TUBE	1516	n/a	0	n/a	0	0	0	n/a	n/a	n/a	n/a	n/a
1775.176	n/a	REC_WORD	887588	wordpools/wasnorm_wordpool.txt	LTP120	ltpFR	11	6	0	HEEL	700	n/a	0	n/a	0	0	0	n/a	n/a	n/a	n/a	n/a
1777.422	n/a	REC_WORD	888711	wordpools/wasnorm_wordpool.txt	LTP120	ltpFR	11	6	0	BARTENDER	92	n/a	1	n/a	0	0	0	n/a	n/a	n/a	n/a	n/a
1798.094	n/a	REC_WORD	899047	wordpools/wasnorm_wordpool.txt	LTP120	ltpFR	11	6	1	PREDATOR	1120	n/a	1	n/a	0	0	0	n/a	n/a	n/a	n/a	n/a
1857.832	n/a	WORD	928916	wordpools/wasnorm_wordpool.txt	LTP120	ltpFR	11	7	0	SKULL	1320	n/a	0	n/a	0	0	0	1	0.412841796875	0.57763671875	upper	../fonts/amplitud.ttf
1861.654	n/a	WORD	930827	wordpools/wasnorm_wordpool.txt	LTP120	ltpFR	11	7	0	FORK	594	n/a	0	n/a	0	0	0	1	0.412841796875	0.57763671875	upper	../fonts/amplitud.ttf
1865.748	n/a	WORD	932874	wordpools/wasnorm_wordpool.txt	LTP120	ltpFR	11	7	0	BEDROOM	111	n/a	1	n/a	0	0	0	1	0.412841796875	0.57763671875	upper	../fonts/amplitud.ttf
1869.784	n/a	WORD	934892	wordpools/wasnorm_wordpool.txt	LTP120	ltpFR	11	7	0	DETECTIVE	454	n/a	1	n/a	0	0	0	1	0.412841796875	0.57763671875	upper	../fonts/amplitud.ttf
1873.672	n/a	WORD	936836	wordpools/wasnorm_wordpool.txt	LTP120	ltpFR	11	7	0	DENTIST	447	n/a	1	n/a	0	0	0	1	0.412841796875	0.57763671875	upper	../fonts/amplitud.ttf
1877.618	n/a	WORD	938809	wordpools/wasnorm_wordpool.txt	LTP120	ltpFR	11	7	0	WRITER	1627	n/a	1	n/a	0	0	0	1	0.412841796875	0.57763671875	upper	../fonts/amplitud.ttf
1881.538	n/a	WORD	940769	wordpools/wasnorm_wordpool.txt	LTP120	ltpFR	11	7	0	AUTHOR	61	n/a	1	n/a	0	0	0	1	0.412841796875	0.57763671875	upper	../fonts/amplitud.ttf
1885.476	n/a	WORD	942738	wordpools/wasnorm_wordpool.txt	LTP120	ltpFR	11	7	0	PADDING	999	n/a	0	n/a	0	0	0	1	0.412841796875	0.57763671875	upper	../fonts/amplitud.ttf
1889.612	n/a	WORD	944806	wordpools/wasnorm_wordpool.txt	LTP120	ltpFR	11	7	0	BRUNETTE	181	n/a	1	n/a	0	0	0	1	0.412841796875	0.57763671875	upper	../fonts/amplitud.ttf
1893.79	n/a	WORD	946895	wordpools/wasnorm_wordpool.txt	LTP120	ltpFR	11	7	0	TWEEZERS	1526	n/a	0	n/a	0	0	0	1	0.412841796875	0.57763671875	upper	../fonts/amplitud.ttf
1897.712	n/a	WORD	948856	wordpools/wasnorm_wordpool.txt	LTP120	ltpFR	11	7	0	LINT	826	n/a	0	n/a	0	0	0	1	0.412841796875	0.57763671875	upper	../fonts/amplitud.ttf
1901.69	n/a	WORD	950845	wordpools/wasnorm_wordpool.txt	LTP120	ltpFR	11	7	0	SAND	1230	n/a	0	n/a	0	0	0	1	0.412841796875	0.57763671875	upper	../fonts/amplitud.ttf
1905.652	n/a	WORD	952826	wordpools/wasnorm_wordpool.txt	LTP120	ltpFR	11	7	0	COMB	351	n/a	0	n/a	0	0	0	1	0.412841796875	0.57763671875	upper	../fonts/amplitud.ttf
1909.598	n/a	WORD	954799	wordpools/wasnorm_wordpool.txt	LTP120	ltpFR	11	7	0	WASHER	1592	n/a	1	n/a	0	0	0	1	0.412841796875	0.57763671875	upper	../fonts/amplitud.ttf
1913.602	n/a	WORD	956801	wordpools/wasnorm_wordpool.txt	LTP120	ltpFR	11	7	0	FLY	586	n/a	0	n/a	0	0	0	1	0.412841796875	0.57763671875	upper	../fonts/amplitud.ttf
1917.572	n/a	WORD	958786	wordpools/wasnorm_wordpool.txt	LTP120	ltpFR	11	7	0	TICKET	1464	n/a	0	n/a	0	0	0	1	0.412841796875	0.57763671875	upper	../fonts/amplitud.ttf
1920.576	n/a	START	960288	n/a	LTP120	ltpFR	11	n/a	n/a	n/a	n/a	n/a	n/a	n/a	n/a	n/a	n/a	n/a	n/a	n/a	n/a	n/a
1921.626	n/a	PROB	960813	n/a	LTP120	ltpFR	11	n/a	n/a	n/a	n/a	n/a	n/a	18	4	9	5	n/a	n/a	n/a	n/a	n/a
1924.388	n/a	PROB	962194	n/a	LTP120	ltpFR	11	n/a	n/a	n/a	n/a	n/a	n/a	21	4	9	8	n/a	n/a	n/a	n/a	n/a
1926.278	n/a	PROB	963139	n/a	LTP120	ltpFR	11	n/a	n/a	n/a	n/a	n/a	n/a	16	7	4	5	n/a	n/a	n/a	n/a	n/a
1928.03	n/a	STOP	964015	n/a	LTP120	ltpFR	11	n/a	n/a	n/a	n/a	n/a	n/a	n/a	n/a	n/a	n/a	n/a	n/a	n/a	n/a	n/a
1930.474	n/a	REC_START	965237	n/a	LTP120	ltpFR	11	7	n/a	n/a	n/a	n/a	n/a	n/a	0	0	0	n/a	n/a	n/a	n/a	n/a
1931.806	n/a	REC_WORD	965903	wordpools/wasnorm_wordpool.txt	LTP120	ltpFR	11	7	0	FLY	586	n/a	0	n/a	0	0	0	n/a	n/a	n/a	n/a	n/a
1933.438	n/a	REC_WORD	966719	wordpools/wasnorm_wordpool.txt	LTP120	ltpFR	11	7	0	TICKET	1464	n/a	0	n/a	0	0	0	n/a	n/a	n/a	n/a	n/a
1935.498	n/a	REC_WORD	967749	wordpools/wasnorm_wordpool.txt	LTP120	ltpFR	11	7	0	WASHER	1592	n/a	1	n/a	0	0	0	n/a	n/a	n/a	n/a	n/a
1955.184	n/a	REC_WORD	977592	wordpools/wasnorm_wordpool.txt	LTP120	ltpFR	11	7	0	WRITER	1627	n/a	1	n/a	0	0	0	n/a	n/a	n/a	n/a	n/a
1956.96	n/a	REC_WORD	978480	wordpools/wasnorm_wordpool.txt	LTP120	ltpFR	11	7	0	AUTHOR	61	n/a	1	n/a	0	0	0	n/a	n/a	n/a	n/a	n/a
1959.214	n/a	REC_WORD	979607	wordpools/wasnorm_wordpool.txt	LTP120	ltpFR	11	7	0	BRUNETTE	181	n/a	1	n/a	0	0	0	n/a	n/a	n/a	n/a	n/a
1966.678	n/a	REC_WORD	983339	wordpools/wasnorm_wordpool.txt	LTP120	ltpFR	11	7	0	LINT	826	n/a	0	n/a	0	0	0	n/a	n/a	n/a	n/a	n/a
1969.002	n/a	REC_WORD	984501	wordpools/wasnorm_wordpool.txt	LTP120	ltpFR	11	7	0	COMB	351	n/a	0	n/a	0	0	0	n/a	n/a	n/a	n/a	n/a
2017.824	n/a	WORD	1008912	wordpools/wasnorm_wordpool.txt	LTP120	ltpFR	11	8	1	GARDEN	623	n/a	1	n/a	0	0	0	0	0.5869140625	0.422607421875	lower	../fonts/zerothre.ttf
2021.76	n/a	WORD	1010880	wordpools/wasnorm_wordpool.txt	LTP120	ltpFR	11	8	1	SHOVEL	1295	n/a	0	n/a	0	0	0	0	0.5869140625	0.422607421875	lower	../fonts/zerothre.ttf
2025.674	n/a	WORD	1012837	wordpools/wasnorm_wordpool.txt	LTP120	ltpFR	11	8	1	UNCLE	1536	n/a	1	n/a	0	0	0	0	0.5869140625	0.422607421875	lower	../fonts/zerothre.ttf
2029.726	n/a	WORD	1014863	wordpools/wasnorm_wordpool.txt	LTP120	ltpFR	11	8	1	SUBWAY	1400	n/a	1	n/a	0	0	0	0	0.5869140625	0.422607421875	lower	../fonts/zerothre.ttf
2033.762	n/a	WORD	1016881	wordpools/wasnorm_wordpool.txt	LTP120	ltpFR	11	8	1	MAID	856	n/a	1	n/a	0	0	0	0	0.5869140625	0.422607421875	lower	../fonts/zerothre.ttf
2037.924	n/a	WORD	1018962	wordpools/wasnorm_wordpool.txt	LTP120	ltpFR	11	8	1	INMATE	738	n/a	1	n/a	0	0	0	0	0.5869140625	0.422607421875	lower	../fonts/zerothre.ttf
2042.028	n/a	WORD	1021014	wordpools/wasnorm_wordpool.txt	LTP120	ltpFR	11	8	1	OUTLAW	989	n/a	1	n/a	0	0	0	0	0.5869140625	0.422607421875	lower	../fonts/zerothre.ttf
2046.158	n/a	WORD	1023079	wordpools/wasnorm_wordpool.txt	LTP120	ltpFR	11	8	1	SHELF	1280	n/a	0	n/a	0	0	0	0	0.5869140625	0.422607421875	lower	../fonts/zerothre.ttf
2050.362	n/a	WORD	1025181	wordpools/wasnorm_wordpool.txt	LTP120	ltpFR	11	8	1	VALVE	1546	n/a	0	n/a	0	0	0	0	0.5869140625	0.422607421875	lower	../fonts/zerothre.ttf
2054.548	n/a	WORD	1027274	wordpools/wasnorm_wordpool.txt	LTP120	ltpFR	11	8	1	LIMOUSINE	824	n/a	0	n/a	0	0	0	0	0.5869140625	0.422607421875	lower	../fonts/zerothre.ttf
2058.376	n/a	WORD	1029188	wordpools/wasnorm_wordpool.txt	LTP120	ltpFR	11	8	1	ANCESTOR	20	n/a	0	n/a	0	0	0	0	0.5869140625	0.422607421875	lower	../fonts/zerothre.ttf
2062.248	n/a	WORD	1031124	wordpools/wasnorm_wordpool.txt	LTP120	ltpFR	11	8	1	BOOK	149	n/a	0	n/a	0	0	0	0	0.5869140625	0.422607421875	lower	../fonts/zerothre.ttf
2066.268	n/a	WORD	1033134	wordpools/wasnorm_wordpool.txt	LTP120	ltpFR	11	8	1	APRON	35	n/a	0	n/a	0	0	0	0	0.5869140625	0.422607421875	lower	../fonts/zerothre.ttf
2070.188	n/a	WORD	1035094	wordpools/wasnorm_wordpool.txt	LTP120	ltpFR	11	8	1	RING	1193	n/a	0	n/a	0	0	0	0	0.5869140625	0.422607421875	lower	../fonts/zerothre.ttf
2074.342	n/a	WORD	1037171	wordpools/wasnorm_wordpool.txt	LTP120	ltpFR	11	8	1	MIRROR	899	n/a	0	n/a	0	0	0	0	0.5869140625	0.422607421875	lower	../fonts/zerothre.ttf
2078.278	n/a	WORD	1039139	wordpools/wasnorm_wordpool.txt	LTP120	ltpFR	11	8	1	SHOP	1290	n/a	0	n/a	0	0	0	0	0.5869140625	0.422607421875	lower	../fonts/zerothre.ttf
2084.198	n/a	REC_START	1042099	n/a	LTP120	ltpFR	11	8	n/a	n/a	n/a	n/a	n/a	n/a	0	0	0	n/a	n/a	n/a	n/a	n/a
2085.898	n/a	REC_WORD	1042949	wordpools/wasnorm_wordpool.txt	LTP120	ltpFR	11	8	1	SHOP	1290	n/a	0	n/a	0	0	0	n/a	n/a	n/a	n/a	n/a
2087.176	n/a	REC_WORD	1043588	wordpools/wasnorm_wordpool.txt	LTP120	ltpFR	11	8	1	RING	1193	n/a	0	n/a	0	0	0	n/a	n/a	n/a	n/a	n/a
2088.552	n/a	REC_WORD	1044276	wordpools/wasnorm_wordpool.txt	LTP120	ltpFR	11	8	1	MIRROR	899	n/a	0	n/a	0	0	0	n/a	n/a	n/a	n/a	n/a
2089.86	n/a	REC_WORD	1044930	wordpools/wasnorm_wordpool.txt	LTP120	ltpFR	11	8	1	SHELF	1280	n/a	0	n/a	0	0	0	n/a	n/a	n/a	n/a	n/a
2091.576	n/a	REC_WORD	1045788	wordpools/wasnorm_wordpool.txt	LTP120	ltpFR	11	8	1	BOOK	149	n/a	0	n/a	0	0	0	n/a	n/a	n/a	n/a	n/a
2093.134	n/a	REC_WORD	1046567	wordpools/wasnorm_wordpool.txt	LTP120	ltpFR	11	8	1	APRON	35	n/a	0	n/a	0	0	0	n/a	n/a	n/a	n/a	n/a
2094.908	n/a	REC_WORD	1047454	wordpools/wasnorm_wordpool.txt	LTP120	ltpFR	11	8	1	INMATE	738	n/a	1	n/a	0	0	0	n/a	n/a	n/a	n/a	n/a
2096.476	n/a	REC_WORD	1048238	wordpools/wasnorm_wordpool.txt	LTP120	ltpFR	11	8	1	OUTLAW	989	n/a	1	n/a	0	0	0	n/a	n/a	n/a	n/a	n/a
2098.202	n/a	REC_WORD	1049101	wordpools/wasnorm_wordpool.txt	LTP120	ltpFR	11	8	1	SUBWAY	1400	n/a	1	n/a	0	0	0	n/a	n/a	n/a	n/a	n/a
2101.834	n/a	REC_WORD	1050917	wordpools/wasnorm_wordpool.txt	LTP120	ltpFR	11	8	1	GARDEN	623	n/a	1	n/a	0	0	0	n/a	n/a	n/a	n/a	n/a
2103.17	n/a	REC_WORD	1051585	wordpools/wasnorm_wordpool.txt	LTP120	ltpFR	11	8	1	SHOVEL	1295	n/a	0	n/a	0	0	0	n/a	n/a	n/a	n/a	n/a
2175.984	n/a	START	1087992	n/a	LTP120	ltpFR	11	n/a	n/a	n/a	n/a	n/a	n/a	n/a	n/a	n/a	n/a	n/a	n/a	n/a	n/a	n/a
2177.49	n/a	PROB	1088745	n/a	LTP120	ltpFR	11	n/a	n/a	n/a	n/a	n/a	n/a	21	5	8	8	n/a	n/a	n/a	n/a	n/a
2179.97	n/a	PROB	1089985	n/a	LTP120	ltpFR	11	n/a	n/a	n/a	n/a	n/a	n/a	12	5	6	1	n/a	n/a	n/a	n/a	n/a
2181.66	n/a	PROB	1090830	n/a	LTP120	ltpFR	11	n/a	n/a	n/a	n/a	n/a	n/a	16	6	2	8	n/a	n/a	n/a	n/a	n/a
2183.322	n/a	STOP	1091661	n/a	LTP120	ltpFR	11	n/a	n/a	n/a	n/a	n/a	n/a	n/a	n/a	n/a	n/a	n/a	n/a	n/a	n/a	n/a
2185.148	n/a	WORD	1092574	wordpools/wasnorm_wordpool.txt	LTP120	ltpFR	11	9	0	KNUCKLE	789	n/a	0	n/a	0	0	0	1	0.412841796875	0.57763671875	upper	../fonts/amplitud.ttf
2188.154	n/a	START	1094077	n/a	LTP120	ltpFR	11	n/a	n/a	n/a	n/a	n/a	n/a	n/a	n/a	n/a	n/a	n/a	n/a	n/a	n/a	n/a
2189.002	n/a	PROB	1094501	n/a	LTP120	ltpFR	11	n/a	n/a	n/a	n/a	n/a	n/a	14	5	4	5	n/a	n/a	n/a	n/a	n/a
2190.226	n/a	PROB	1095113	n/a	LTP120	ltpFR	11	n/a	n/a	n/a	n/a	n/a	n/a	18	3	6	9	n/a	n/a	n/a	n/a	n/a
2191.69	n/a	PROB	1095845	n/a	LTP120	ltpFR	11	n/a	n/a	n/a	n/a	n/a	n/a	1	1	2	9	n/a	n/a	n/a	n/a	n/a
2193.09	n/a	PROB	1096545	n/a	LTP120	ltpFR	11	n/a	n/a	n/a	n/a	n/a	n/a	14	1	9	4	n/a	n/a	n/a	n/a	n/a
2194.446	n/a	PROB	1097223	n/a	LTP120	ltpFR	11	n/a	n/a	n/a	n/a	n/a	n/a	15	5	2	8	n/a	n/a	n/a	n/a	n/a
2195.506	n/a	STOP	1097753	n/a	LTP120	ltpFR	11	n/a	n/a	n/a	n/a	n/a	n/a	n/a	n/a	n/a	n/a	n/a	n/a	n/a	n/a	n/a
2197.226	n/a	WORD	1098613	wordpools/wasnorm_wordpool.txt	LTP120	ltpFR	11	9	0	WORLD	1622	n/a	1	n/a	0	0	0	1	0.412841796875	0.57763671875	upper	../fonts/amplitud.ttf
2200.232	n/a	START	1100116	n/a	LTP120	ltpFR	11	n/a	n/a	n/a	n/a	n/a	n/a	n/a	n/a	n/a	n/a	n/a	n/a	n/a	n/a	n/a
2201.346	n/a	PROB	1100673	n/a	LTP120	ltpFR	11	n/a	n/a	n/a	n/a	n/a	n/a	16	7	6	3	n/a	n/a	n/a	n/a	n/a
2202.852	n/a	PROB	1101426	n/a	LTP120	ltpFR	11	n/a	n/a	n/a	n/a	n/a	n/a	16	5	2	9	n/a	n/a	n/a	n/a	n/a
2205.266	n/a	PROB	1102633	n/a	LTP120	ltpFR	11	n/a	n/a	n/a	n/a	n/a	n/a	16	2	8	6	n/a	n/a	n/a	n/a	n/a
2206.34	n/a	PROB	1103170	n/a	LTP120	ltpFR	11	n/a	n/a	n/a	n/a	n/a	n/a	12	9	1	2	n/a	n/a	n/a	n/a	n/a
2207.394	n/a	STOP	1103697	n/a	LTP120	ltpFR	11	n/a	n/a	n/a	n/a	n/a	n/a	n/a	n/a	n/a	n/a	n/a	n/a	n/a	n/a	n/a
2209.404	n/a	WORD	1104702	wordpools/wasnorm_wordpool.txt	LTP120	ltpFR	11	9	0	NEWSSTAND	949	n/a	0	n/a	0	0	0	1	0.412841796875	0.57763671875	upper	../fonts/amplitud.ttf
2212.408	n/a	START	1106204	n/a	LTP120	ltpFR	11	n/a	n/a	n/a	n/a	n/a	n/a	n/a	n/a	n/a	n/a	n/a	n/a	n/a	n/a	n/a
2213.416	n/a	PROB	1106708	n/a	LTP120	ltpFR	11	n/a	n/a	n/a	n/a	n/a	n/a	23	9	5	9	n/a	n/a	n/a	n/a	n/a
2215.214	n/a	PROB	1107607	n/a	LTP120	ltpFR	11	n/a	n/a	n/a	n/a	n/a	n/a	11	6	4	1	n/a	n/a	n/a	n/a	n/a
2216.37	n/a	PROB	1108185	n/a	LTP120	ltpFR	11	n/a	n/a	n/a	n/a	n/a	n/a	10	3	3	4	n/a	n/a	n/a	n/a	n/a
2217.984	n/a	PROB	1108992	n/a	LTP120	ltpFR	11	n/a	n/a	n/a	n/a	n/a	n/a	12	8	3	1	n/a	n/a	n/a	n/a	n/a
2220.082	n/a	STOP	1110041	n/a	LTP120	ltpFR	11	n/a	n/a	n/a	n/a	n/a	n/a	n/a	n/a	n/a	n/a	n/a	n/a	n/a	n/a	n/a
2221.256	n/a	WORD	1110628	wordpools/wasnorm_wordpool.txt	LTP120	ltpFR	11	9	0	STAPLE	1371	n/a	0	n/a	0	0	0	1	0.412841796875	0.57763671875	upper	../fonts/amplitud.ttf
2224.262	n/a	START	1112131	n/a	LTP120	ltpFR	11	n/a	n/a	n/a	n/a	n/a	n/a	n/a	n/a	n/a	n/a	n/a	n/a	n/a	n/a	n/a
2225.386	n/a	PROB	1112693	n/a	LTP120	ltpFR	11	n/a	n/a	n/a	n/a	n/a	n/a	16	1	6	9	n/a	n/a	n/a	n/a	n/a
2227.558	n/a	PROB	1113779	n/a	LTP120	ltpFR	11	n/a	n/a	n/a	n/a	n/a	n/a	16	4	5	7	n/a	n/a	n/a	n/a	n/a
2229.164	n/a	PROB	1114582	n/a	LTP120	ltpFR	11	n/a	n/a	n/a	n/a	n/a	n/a	14	7	2	5	n/a	n/a	n/a	n/a	n/a
2231.53	n/a	STOP	1115765	n/a	LTP120	ltpFR	11	n/a	n/a	n/a	n/a	n/a	n/a	n/a	n/a	n/a	n/a	n/a	n/a	n/a	n/a	n/a
2233.384	n/a	WORD	1116692	wordpools/wasnorm_wordpool.txt	LTP120	ltpFR	11	9	0	LUNCH	849	n/a	0	n/a	0	0	0	1	0.412841796875	0.57763671875	upper	../fonts/amplitud.ttf
2236.39	n/a	START	1118195	n/a	LTP120	ltpFR	11	n/a	n/a	n/a	n/a	n/a	n/a	n/a	n/a	n/a	n/a	n/a	n/a	n/a	n/a	n/a
2237.372	n/a	PROB	1118686	n/a	LTP120	ltpFR	11	n/a	n/a	n/a	n/a	n/a	n/a	11	2	6	3	n/a	n/a	n/a	n/a	n/a
2238.936	n/a	PROB	1119468	n/a	LTP120	ltpFR	11	n/a	n/a	n/a	n/a	n/a	n/a	21	4	9	8	n/a	n/a	n/a	n/a	n/a
2241.392	n/a	PROB	1120696	n/a	LTP120	ltpFR	11	n/a	n/a	n/a	n/a	n/a	n/a	12	4	1	7	n/a	n/a	n/a	n/a	n/a
2242.872	n/a	PROB	1121436	n/a	LTP120	ltpFR	11	n/a	n/a	n/a	n/a	n/a	n/a	9	1	3	5	n/a	n/a	n/a	n/a	n/a
2244.034	n/a	STOP	1122017	n/a	LTP120	ltpFR	11	n/a	n/a	n/a	n/a	n/a	n/a	n/a	n/a	n/a	n/a	n/a	n/a	n/a	n/a	n/a
2245.412	n/a	WORD	1122706	wordpools/wasnorm_wordpool.txt	LTP120	ltpFR	11	9	0	SPACE	1345	n/a	1	n/a	0	0	0	1	0.412841796875	0.57763671875	upper	../fonts/amplitud.ttf
2248.418	n/a	START	1124209	n/a	LTP120	ltpFR	11	n/a	n/a	n/a	n/a	n/a	n/a	n/a	n/a	n/a	n/a	n/a	n/a	n/a	n/a	n/a
2249.25	n/a	PROB	1124625	n/a	LTP120	ltpFR	11	n/a	n/a	n/a	n/a	n/a	n/a	18	2	7	9	n/a	n/a	n/a	n/a	n/a
2251.056	n/a	PROB	1125528	n/a	LTP120	ltpFR	11	n/a	n/a	n/a	n/a	n/a	n/a	12	6	4	2	n/a	n/a	n/a	n/a	n/a
2252.794	n/a	PROB	1126397	n/a	LTP120	ltpFR	11	n/a	n/a	n/a	n/a	n/a	n/a	16	4	6	6	n/a	n/a	n/a	n/a	n/a
2255.292	n/a	STOP	1127646	n/a	LTP120	ltpFR	11	n/a	n/a	n/a	n/a	n/a	n/a	n/a	n/a	n/a	n/a	n/a	n/a	n/a	n/a	n/a
2257.374	n/a	WORD	1128687	wordpools/wasnorm_wordpool.txt	LTP120	ltpFR	11	9	1	FINGER	567	n/a	0	n/a	0	0	0	0	0.5869140625	0.422607421875	lower	../fonts/zerothre.ttf
2260.38	n/a	START	1130190	n/a	LTP120	ltpFR	11	n/a	n/a	n/a	n/a	n/a	n/a	n/a	n/a	n/a	n/a	n/a	n/a	n/a	n/a	n/a
2261.544	n/a	PROB	1130772	n/a	LTP120	ltpFR	11	n/a	n/a	n/a	n/a	n/a	n/a	17	3	9	5	n/a	n/a	n/a	n/a	n/a
2263.4	n/a	PROB	1131700	n/a	LTP120	ltpFR	11	n/a	n/a	n/a	n/a	n/a	n/a	14	9	4	1	n/a	n/a	n/a	n/a	n/a
2264.524	n/a	PROB	1132262	n/a	LTP120	ltpFR	11	n/a	n/a	n/a	n/a	n/a	n/a	14	6	5	4	n/a	n/a	n/a	n/a	n/a
2265.788	n/a	PROB	1132894	n/a	LTP120	ltpFR	11	n/a	n/a	n/a	n/a	n/a	n/a	15	5	6	4	n/a	n/a	n/a	n/a	n/a
2267.404	n/a	STOP	1133702	n/a	LTP120	ltpFR	11	n/a	n/a	n/a	n/a	n/a	n/a	n/a	n/a	n/a	n/a	n/a	n/a	n/a	n/a	n/a
2269.502	n/a	WORD	1134751	wordpools/wasnorm_wordpool.txt	LTP120	ltpFR	11	9	1	GALAXY	617	n/a	0	n/a	0	0	0	0	0.5869140625	0.422607421875	lower	../fonts/zerothre.ttf
2272.506	n/a	START	1136253	n/a	LTP120	ltpFR	11	n/a	n/a	n/a	n/a	n/a	n/a	n/a	n/a	n/a	n/a	n/a	n/a	n/a	n/a	n/a
2273.506	n/a	PROB	1136753	n/a	LTP120	ltpFR	11	n/a	n/a	n/a	n/a	n/a	n/a	14	3	3	8	n/a	n/a	n/a	n/a	n/a
2274.96	n/a	PROB	1137480	n/a	LTP120	ltpFR	11	n/a	n/a	n/a	n/a	n/a	n/a	1	3	4	5	n/a	n/a	n/a	n/a	n/a
2276.61	n/a	PROB	1138305	n/a	LTP120	ltpFR	11	n/a	n/a	n/a	n/a	n/a	n/a	15	2	4	9	n/a	n/a	n/a	n/a	n/a
2279.732	n/a	STOP	1139866	n/a	LTP120	ltpFR	11	n/a	n/a	n/a	n/a	n/a	n/a	n/a	n/a	n/a	n/a	n/a	n/a	n/a	n/a	n/a
2281.638	n/a	WORD	1140819	wordpools/wasnorm_wordpool.txt	LTP120	ltpFR	11	9	1	PENGUIN	1044	n/a	0	n/a	0	0	0	0	0.5869140625	0.422607421875	lower	../fonts/zerothre.ttf
2284.642	n/a	START	1142321	n/a	LTP120	ltpFR	11	n/a	n/a	n/a	n/a	n/a	n/a	n/a	n/a	n/a	n/a	n/a	n/a	n/a	n/a	n/a
2285.642	n/a	PROB	1142821	n/a	LTP120	ltpFR	11	n/a	n/a	n/a	n/a	n/a	n/a	21	9	3	9	n/a	n/a	n/a	n/a	n/a
2287.198	n/a	PROB	1143599	n/a	LTP120	ltpFR	11	n/a	n/a	n/a	n/a	n/a	n/a	21	4	8	9	n/a	n/a	n/a	n/a	n/a
2292.642	n/a	STOP	1146321	n/a	LTP120	ltpFR	11	n/a	n/a	n/a	n/a	n/a	n/a	n/a	n/a	n/a	n/a	n/a	n/a	n/a	n/a	n/a
2293.83	n/a	WORD	1146915	wordpools/wasnorm_wordpool.txt	LTP120	ltpFR	11	9	1	BIRD	129	n/a	1	n/a	0	0	0	0	0.5869140625	0.422607421875	lower	../fonts/zerothre.ttf
2296.836	n/a	START	1148418	n/a	LTP120	ltpFR	11	n/a	n/a	n/a	n/a	n/a	n/a	n/a	n/a	n/a	n/a	n/a	n/a	n/a	n/a	n/a
2297.826	n/a	PROB	1148913	n/a	LTP120	ltpFR	11	n/a	n/a	n/a	n/a	n/a	n/a	23	6	8	9	n/a	n/a	n/a	n/a	n/a
2301.322	n/a	PROB	1150661	n/a	LTP120	ltpFR	11	n/a	n/a	n/a	n/a	n/a	n/a	22	8	8	6	n/a	n/a	n/a	n/a	n/a
2304.836	n/a	STOP	1152418	n/a	LTP120	ltpFR	11	n/a	n/a	n/a	n/a	n/a	n/a	n/a	n/a	n/a	n/a	n/a	n/a	n/a	n/a	n/a
2305.718	n/a	WORD	1152859	wordpools/wasnorm_wordpool.txt	LTP120	ltpFR	11	9	1	HOOP	716	n/a	0	n/a	0	0	0	0	0.5869140625	0.422607421875	lower	../fonts/zerothre.ttf
2308.724	n/a	START	1154362	n/a	LTP120	ltpFR	11	n/a	n/a	n/a	n/a	n/a	n/a	n/a	n/a	n/a	n/a	n/a	n/a	n/a	n/a	n/a
2309.704	n/a	PROB	1154852	n/a	LTP120	ltpFR	11	n/a	n/a	n/a	n/a	n/a	n/a	20	5	7	8	n/a	n/a	n/a	n/a	n/a
2311.428	n/a	PROB	1155714	n/a	LTP120	ltpFR	11	n/a	n/a	n/a	n/a	n/a	n/a	13	7	3	3	n/a	n/a	n/a	n/a	n/a
2315.22	n/a	STOP	1157610	n/a	LTP120	ltpFR	11	n/a	n/a	n/a	n/a	n/a	n/a	n/a	n/a	n/a	n/a	n/a	n/a	n/a	n/a	n/a
2317.562	n/a	WORD	1158781	wordpools/wasnorm_wordpool.txt	LTP120	ltpFR	11	9	0	PLATE	1086	n/a	0	n/a	0	0	0	1	0.412841796875	0.57763671875	upper	../fonts/amplitud.ttf
2320.568	n/a	START	1160284	n/a	LTP120	ltpFR	11	n/a	n/a	n/a	n/a	n/a	n/a	n/a	n/a	n/a	n/a	n/a	n/a	n/a	n/a	n/a
2321.732	n/a	PROB	1160866	n/a	LTP120	ltpFR	11	n/a	n/a	n/a	n/a	n/a	n/a	11	6	1	4	n/a	n/a	n/a	n/a	n/a
2323.082	n/a	PROB	1161541	n/a	LTP120	ltpFR	11	n/a	n/a	n/a	n/a	n/a	n/a	16	5	2	9	n/a	n/a	n/a	n/a	n/a
2325.578	n/a	PROB	1162789	n/a	LTP120	ltpFR	11	n/a	n/a	n/a	n/a	n/a	n/a	16	7	3	6	n/a	n/a	n/a	n/a	n/a
2327.06	n/a	STOP	1163530	n/a	LTP120	ltpFR	11	n/a	n/a	n/a	n/a	n/a	n/a	n/a	n/a	n/a	n/a	n/a	n/a	n/a	n/a	n/a
2329.732	n/a	WORD	1164866	wordpools/wasnorm_wordpool.txt	LTP120	ltpFR	11	9	0	GREASE	660	n/a	0	n/a	0	0	0	1	0.412841796875	0.57763671875	upper	../fonts/amplitud.ttf
2332.738	n/a	START	1166369	n/a	LTP120	ltpFR	11	n/a	n/a	n/a	n/a	n/a	n/a	n/a	n/a	n/a	n/a	n/a	n/a	n/a	n/a	n/a
2333.744	n/a	PROB	1166872	n/a	LTP120	ltpFR	11	n/a	n/a	n/a	n/a	n/a	n/a	10	3	1	6	n/a	n/a	n/a	n/a	n/a
2335.5	n/a	PROB	1167750	n/a	LTP120	ltpFR	11	n/a	n/a	n/a	n/a	n/a	n/a	15	9	1	5	n/a	n/a	n/a	n/a	n/a
2336.716	n/a	PROB	1168358	n/a	LTP120	ltpFR	11	n/a	n/a	n/a	n/a	n/a	n/a	12	4	4	4	n/a	n/a	n/a	n/a	n/a
2337.838	n/a	PROB	1168919	n/a	LTP120	ltpFR	11	n/a	n/a	n/a	n/a	n/a	n/a	12	2	3	7	n/a	n/a	n/a	n/a	n/a
2339.196	n/a	PROB	1169598	n/a	LTP120	ltpFR	11	n/a	n/a	n/a	n/a	n/a	n/a	12	4	6	2	n/a	n/a	n/a	n/a	n/a
2340.364	n/a	STOP	1170182	n/a	LTP120	ltpFR	11	n/a	n/a	n/a	n/a	n/a	n/a	n/a	n/a	n/a	n/a	n/a	n/a	n/a	n/a	n/a
2341.81	n/a	WORD	1170905	wordpools/wasnorm_wordpool.txt	LTP120	ltpFR	11	9	1	MILDEW	893	n/a	0	n/a	0	0	0	0	0.5869140625	0.422607421875	lower	../fonts/zerothre.ttf
2344.814	n/a	START	1172407	n/a	LTP120	ltpFR	11	n/a	n/a	n/a	n/a	n/a	n/a	n/a	n/a	n/a	n/a	n/a	n/a	n/a	n/a	n/a
2345.988	n/a	PROB	1172994	n/a	LTP120	ltpFR	11	n/a	n/a	n/a	n/a	n/a	n/a	13	7	5	1	n/a	n/a	n/a	n/a	n/a
2347.868	n/a	PROB	1173934	n/a	LTP120	ltpFR	11	n/a	n/a	n/a	n/a	n/a	n/a	15	5	3	7	n/a	n/a	n/a	n/a	n/a
2351.82	n/a	STOP	1175910	n/a	LTP120	ltpFR	11	n/a	n/a	n/a	n/a	n/a	n/a	n/a	n/a	n/a	n/a	n/a	n/a	n/a	n/a	n/a
2353.896	n/a	WORD	1176948	wordpools/wasnorm_wordpool.txt	LTP120	ltpFR	11	9	1	MOSQUITO	917	n/a	0	n/a	0	0	0	0	0.5869140625	0.422607421875	lower	../fonts/zerothre.ttf
2356.9	n/a	START	1178450	n/a	LTP120	ltpFR	11	n/a	n/a	n/a	n/a	n/a	n/a	n/a	n/a	n/a	n/a	n/a	n/a	n/a	n/a	n/a
2358.058	n/a	PROB	1179029	n/a	LTP120	ltpFR	11	n/a	n/a	n/a	n/a	n/a	n/a	11	3	1	7	n/a	n/a	n/a	n/a	n/a
2359.398	n/a	PROB	1179699	n/a	LTP120	ltpFR	11	n/a	n/a	n/a	n/a	n/a	n/a	10	6	1	3	n/a	n/a	n/a	n/a	n/a
2361.778	n/a	PROB	1180889	n/a	LTP120	ltpFR	11	n/a	n/a	n/a	n/a	n/a	n/a	16	5	9	2	n/a	n/a	n/a	n/a	n/a
2364.9	n/a	STOP	1182450	n/a	LTP120	ltpFR	11	n/a	n/a	n/a	n/a	n/a	n/a	n/a	n/a	n/a	n/a	n/a	n/a	n/a	n/a	n/a
2366.058	n/a	WORD	1183029	wordpools/wasnorm_wordpool.txt	LTP120	ltpFR	11	9	1	LIMB	822	n/a	0	n/a	0	0	0	0	0.5869140625	0.422607421875	lower	../fonts/zerothre.ttf
2369.062	n/a	START	1184531	n/a	LTP120	ltpFR	11	n/a	n/a	n/a	n/a	n/a	n/a	n/a	n/a	n/a	n/a	n/a	n/a	n/a	n/a	n/a
2370.236	n/a	PROB	1185118	n/a	LTP120	ltpFR	11	n/a	n/a	n/a	n/a	n/a	n/a	4	2	1	1	n/a	n/a	n/a	n/a	n/a
2371.376	n/a	PROB	1185688	n/a	LTP120	ltpFR	11	n/a	n/a	n/a	n/a	n/a	n/a	21	9	9	3	n/a	n/a	n/a	n/a	n/a
2373.348	n/a	PROB	1186674	n/a	LTP120	ltpFR	11	n/a	n/a	n/a	n/a	n/a	n/a	13	1	5	7	n/a	n/a	n/a	n/a	n/a
2375.03	n/a	PROB	1187515	n/a	LTP120	ltpFR	11	n/a	n/a	n/a	n/a	n/a	n/a	11	9	1	1	n/a	n/a	n/a	n/a	n/a
2375.956	n/a	STOP	1187978	n/a	LTP120	ltpFR	11	n/a	n/a	n/a	n/a	n/a	n/a	n/a	n/a	n/a	n/a	n/a	n/a	n/a	n/a	n/a
2378.834	n/a	REC_START	1189417	n/a	LTP120	ltpFR	11	9	n/a	n/a	n/a	n/a	n/a	n/a	0	0	0	n/a	n/a	n/a	n/a	n/a
2380.026	n/a	REC_WORD	1190013	wordpools/wasnorm_wordpool.txt	LTP120	ltpFR	11	9	1	LIMB	822	n/a	0	n/a	0	0	0	n/a	n/a	n/a	n/a	n/a
2381.492	n/a	REC_WORD	1190746	wordpools/wasnorm_wordpool.txt	LTP120	ltpFR	11	9	0	WORLD	1622	n/a	1	n/a	0	0	0	n/a	n/a	n/a	n/a	n/a
2382.88	n/a	REC_WORD	1191440	wordpools/wasnorm_wordpool.txt	LTP120	ltpFR	11	9	0	SPACE	1345	n/a	1	n/a	0	0	0	n/a	n/a	n/a	n/a	n/a
2384.616	n/a	REC_WORD	1192308	wordpools/wasnorm_wordpool.txt	LTP120	ltpFR	11	9	1	GALAXY	617	n/a	0	n/a	0	0	0	n/a	n/a	n/a	n/a	n/a
2389.086	n/a	REC_WORD	1194543	wordpools/wasnorm_wordpool.txt	LTP120	ltpFR	11	9	0	GREASE	660	n/a	0	n/a	0	0	0	n/a	n/a	n/a	n/a	n/a
2394.602	n/a	REC_WORD	1197301	wordpools/wasnorm_wordpool.txt	LTP120	ltpFR	11	9	1	FINGER	567	n/a	0	n/a	0	0	0	n/a	n/a	n/a	n/a	n/a
2396.668	n/a	REC_WORD	1198334	wordpools/wasnorm_wordpool.txt	LTP120	ltpFR	11	9	0	KNUCKLE	789	n/a	0	n/a	0	0	0	n/a	n/a	n/a	n/a	n/a
2398.912	n/a	REC_WORD	1199456	wordpools/wasnorm_wordpool.txt	LTP120	ltpFR	11	9	1	BIRD	129	n/a	1	n/a	0	0	0	n/a	n/a	n/a	n/a	n/a
2463.246	n/a	START	1231623	n/a	LTP120	ltpFR	11	n/a	n/a	n/a	n/a	n/a	n/a	n/a	n/a	n/a	n/a	n/a	n/a	n/a	n/a	n/a
2464.75	n/a	PROB	1232375	n/a	LTP120	ltpFR	11	n/a	n/a	n/a	n/a	n/a	n/a	9	5	3	1	n/a	n/a	n/a	n/a	n/a
2467.656	n/a	PROB	1233828	n/a	LTP120	ltpFR	11	n/a	n/a	n/a	n/a	n/a	n/a	22	8	8	5	n/a	n/a	n/a	n/a	n/a
2469.146	n/a	PROB	1234573	n/a	LTP120	ltpFR	11	n/a	n/a	n/a	n/a	n/a	n/a	15	4	7	4	n/a	n/a	n/a	n/a	n/a
2470.868	n/a	PROB	1235434	n/a	LTP120	ltpFR	11	n/a	n/a	n/a	n/a	n/a	n/a	17	3	8	6	n/a	n/a	n/a	n/a	n/a
2472.294	n/a	PROB	1236147	n/a	LTP120	ltpFR	11	n/a	n/a	n/a	n/a	n/a	n/a	13	7	5	1	n/a	n/a	n/a	n/a	n/a
2474.166	n/a	PROB	1237083	n/a	LTP120	ltpFR	11	n/a	n/a	n/a	n/a	n/a	n/a	13	5	5	3	n/a	n/a	n/a	n/a	n/a
2475.456	n/a	PROB	1237728	n/a	LTP120	ltpFR	11	n/a	n/a	n/a	n/a	n/a	n/a	14	1	8	5	n/a	n/a	n/a	n/a	n/a
2479.246	n/a	STOP	1239623	n/a	LTP120	ltpFR	11	n/a	n/a	n/a	n/a	n/a	n/a	n/a	n/a	n/a	n/a	n/a	n/a	n/a	n/a	n/a
2480.2	n/a	WORD	1240100	wordpools/wasnorm_wordpool.txt	LTP120	ltpFR	11	10	1	GLASSES	640	n/a	0	n/a	0	0	0	0	0.5869140625	0.422607421875	lower	../fonts/zerothre.ttf
2483.206	n/a	START	1241603	n/a	LTP120	ltpFR	11	n/a	n/a	n/a	n/a	n/a	n/a	n/a	n/a	n/a	n/a	n/a	n/a	n/a	n/a	n/a
2484.214	n/a	PROB	1242107	n/a	LTP120	ltpFR	11	n/a	n/a	n/a	n/a	n/a	n/a	11	9	1	1	n/a	n/a	n/a	n/a	n/a
2485.238	n/a	PROB	1242619	n/a	LTP120	ltpFR	11	n/a	n/a	n/a	n/a	n/a	n/a	21	7	5	9	n/a	n/a	n/a	n/a	n/a
2486.868	n/a	PROB	1243434	n/a	LTP120	ltpFR	11	n/a	n/a	n/a	n/a	n/a	n/a	21	7	5	9	n/a	n/a	n/a	n/a	n/a
2487.784	n/a	PROB	1243892	n/a	LTP120	ltpFR	11	n/a	n/a	n/a	n/a	n/a	n/a	9	6	1	2	n/a	n/a	n/a	n/a	n/a
2488.982	n/a	PROB	1244491	n/a	LTP120	ltpFR	11	n/a	n/a	n/a	n/a	n/a	n/a	12	2	1	9	n/a	n/a	n/a	n/a	n/a
2492.138	n/a	PROB	1246069	n/a	LTP120	ltpFR	11	n/a	n/a	n/a	n/a	n/a	n/a	11	1	8	2	n/a	n/a	n/a	n/a	n/a
2493.512	n/a	PROB	1246756	n/a	LTP120	ltpFR	11	n/a	n/a	n/a	n/a	n/a	n/a	7	2	1	4	n/a	n/a	n/a	n/a	n/a
2494.792	n/a	PROB	1247396	n/a	LTP120	ltpFR	11	n/a	n/a	n/a	n/a	n/a	n/a	8	1	6	1	n/a	n/a	n/a	n/a	n/a
2495.99	n/a	PROB	1247995	n/a	LTP120	ltpFR	11	n/a	n/a	n/a	n/a	n/a	n/a	18	8	5	5	n/a	n/a	n/a	n/a	n/a
2499.206	n/a	STOP	1249603	n/a	LTP120	ltpFR	11	n/a	n/a	n/a	n/a	n/a	n/a	n/a	n/a	n/a	n/a	n/a	n/a	n/a	n/a	n/a
2500.104	n/a	WORD	1250052	wordpools/wasnorm_wordpool.txt	LTP120	ltpFR	11	10	1	LENS	811	n/a	0	n/a	0	0	0	0	0.5869140625	0.422607421875	lower	../fonts/zerothre.ttf
2503.108	n/a	START	1251554	n/a	LTP120	ltpFR	11	n/a	n/a	n/a	n/a	n/a	n/a	n/a	n/a	n/a	n/a	n/a	n/a	n/a	n/a	n/a
2504.014	n/a	PROB	1252007	n/a	LTP120	ltpFR	11	n/a	n/a	n/a	n/a	n/a	n/a	18	6	6	6	n/a	n/a	n/a	n/a	n/a
2505.114	n/a	PROB	1252557	n/a	LTP120	ltpFR	11	n/a	n/a	n/a	n/a	n/a	n/a	15	2	6	7	n/a	n/a	n/a	n/a	n/a
2507.196	n/a	PROB	1253598	n/a	LTP120	ltpFR	11	n/a	n/a	n/a	n/a	n/a	n/a	7	3	3	1	n/a	n/a	n/a	n/a	n/a
2508.344	n/a	PROB	1254172	n/a	LTP120	ltpFR	11	n/a	n/a	n/a	n/a	n/a	n/a	13	7	2	4	n/a	n/a	n/a	n/a	n/a
2510.874	n/a	PROB	1255437	n/a	LTP120	ltpFR	11	n/a	n/a	n/a	n/a	n/a	n/a	7	1	2	4	n/a	n/a	n/a	n/a	n/a
2512.132	n/a	PROB	1256066	n/a	LTP120	ltpFR	11	n/a	n/a	n/a	n/a	n/a	n/a	16	8	2	6	n/a	n/a	n/a	n/a	n/a
2514.17	n/a	PROB	1257085	n/a	LTP120	ltpFR	11	n/a	n/a	n/a	n/a	n/a	n/a	15	5	6	4	n/a	n/a	n/a	n/a	n/a
2516.152	n/a	PROB	1258076	n/a	LTP120	ltpFR	11	n/a	n/a	n/a	n/a	n/a	n/a	26	8	9	9	n/a	n/a	n/a	n/a	n/a
2518.598	n/a	STOP	1259299	n/a	LTP120	ltpFR	11	n/a	n/a	n/a	n/a	n/a	n/a	n/a	n/a	n/a	n/a	n/a	n/a	n/a	n/a	n/a
2520.138	n/a	WORD	1260069	wordpools/wasnorm_wordpool.txt	LTP120	ltpFR	11	10	1	WINGS	1614	n/a	0	n/a	0	0	0	0	0.5869140625	0.422607421875	lower	../fonts/zerothre.ttf
2523.144	n/a	START	1261572	n/a	LTP120	ltpFR	11	n/a	n/a	n/a	n/a	n/a	n/a	n/a	n/a	n/a	n/a	n/a	n/a	n/a	n/a	n/a
2524.008	n/a	PROB	1262004	n/a	LTP120	ltpFR	11	n/a	n/a	n/a	n/a	n/a	n/a	14	1	9	4	n/a	n/a	n/a	n/a	n/a
2525.716	n/a	PROB	1262858	n/a	LTP120	ltpFR	11	n/a	n/a	n/a	n/a	n/a	n/a	17	4	4	9	n/a	n/a	n/a	n/a	n/a
2530.168	n/a	PROB	1265084	n/a	LTP120	ltpFR	11	n/a	n/a	n/a	n/a	n/a	n/a	12	3	7	2	n/a	n/a	n/a	n/a	n/a
2532.64	n/a	PROB	1266320	n/a	LTP120	ltpFR	11	n/a	n/a	n/a	n/a	n/a	n/a	13	2	3	8	n/a	n/a	n/a	n/a	n/a
2534.098	n/a	PROB	1267049	n/a	LTP120	ltpFR	11	n/a	n/a	n/a	n/a	n/a	n/a	21	3	9	9	n/a	n/a	n/a	n/a	n/a
2535.446	n/a	PROB	1267723	n/a	LTP120	ltpFR	11	n/a	n/a	n/a	n/a	n/a	n/a	16	1	6	9	n/a	n/a	n/a	n/a	n/a
2538.014	n/a	STOP	1269007	n/a	LTP120	ltpFR	11	n/a	n/a	n/a	n/a	n/a	n/a	n/a	n/a	n/a	n/a	n/a	n/a	n/a	n/a	n/a
2540.074	n/a	WORD	1270037	wordpools/wasnorm_wordpool.txt	LTP120	ltpFR	11	10	1	BALLERINA	74	n/a	1	n/a	0	0	0	0	0.5869140625	0.422607421875	lower	../fonts/zerothre.ttf
2543.08	n/a	START	1271540	n/a	LTP120	ltpFR	11	n/a	n/a	n/a	n/a	n/a	n/a	n/a	n/a	n/a	n/a	n/a	n/a	n/a	n/a	n/a
2544.136	n/a	PROB	1272068	n/a	LTP120	ltpFR	11	n/a	n/a	n/a	n/a	n/a	n/a	14	9	1	4	n/a	n/a	n/a	n/a	n/a
2545.782	n/a	PROB	1272891	n/a	LTP120	ltpFR	11	n/a	n/a	n/a	n/a	n/a	n/a	18	7	7	4	n/a	n/a	n/a	n/a	n/a
2547.582	n/a	PROB	1273791	n/a	LTP120	ltpFR	11	n/a	n/a	n/a	n/a	n/a	n/a	16	5	9	2	n/a	n/a	n/a	n/a	n/a
2549.462	n/a	PROB	1274731	n/a	LTP120	ltpFR	11	n/a	n/a	n/a	n/a	n/a	n/a	13	2	8	3	n/a	n/a	n/a	n/a	n/a
2550.57	n/a	PROB	1275285	n/a	LTP120	ltpFR	11	n/a	n/a	n/a	n/a	n/a	n/a	2	8	7	5	n/a	n/a	n/a	n/a	n/a
2554.2	n/a	PROB	1277100	n/a	LTP120	ltpFR	11	n/a	n/a	n/a	n/a	n/a	n/a	12	1	5	6	n/a	n/a	n/a	n/a	n/a
2559.08	n/a	STOP	1279540	n/a	LTP120	ltpFR	11	n/a	n/a	n/a	n/a	n/a	n/a	n/a	n/a	n/a	n/a	n/a	n/a	n/a	n/a	n/a
2560.1	n/a	WORD	1280050	wordpools/wasnorm_wordpool.txt	LTP120	ltpFR	11	10	1	COOKBOOK	373	n/a	0	n/a	0	0	0	0	0.5869140625	0.422607421875	lower	../fonts/zerothre.ttf
2563.106	n/a	START	1281553	n/a	LTP120	ltpFR	11	n/a	n/a	n/a	n/a	n/a	n/a	n/a	n/a	n/a	n/a	n/a	n/a	n/a	n/a	n/a
2564.096	n/a	PROB	1282048	n/a	LTP120	ltpFR	11	n/a	n/a	n/a	n/a	n/a	n/a	16	1	9	6	n/a	n/a	n/a	n/a	n/a
2565.104	n/a	PROB	1282552	n/a	LTP120	ltpFR	11	n/a	n/a	n/a	n/a	n/a	n/a	21	8	7	6	n/a	n/a	n/a	n/a	n/a
2567.692	n/a	PROB	1283846	n/a	LTP120	ltpFR	11	n/a	n/a	n/a	n/a	n/a	n/a	13	4	3	6	n/a	n/a	n/a	n/a	n/a
2569.724	n/a	PROB	1284862	n/a	LTP120	ltpFR	11	n/a	n/a	n/a	n/a	n/a	n/a	13	5	7	1	n/a	n/a	n/a	n/a	n/a
2571.962	n/a	PROB	1285981	n/a	LTP120	ltpFR	11	n/a	n/a	n/a	n/a	n/a	n/a	18	5	4	9	n/a	n/a	n/a	n/a	n/a
2573.362	n/a	PROB	1286681	n/a	LTP120	ltpFR	11	n/a	n/a	n/a	n/a	n/a	n/a	14	3	9	2	n/a	n/a	n/a	n/a	n/a
2575.084	n/a	PROB	1287542	n/a	LTP120	ltpFR	11	n/a	n/a	n/a	n/a	n/a	n/a	114	5	8	1	n/a	n/a	n/a	n/a	n/a
2579.106	n/a	STOP	1289553	n/a	LTP120	ltpFR	11	n/a	n/a	n/a	n/a	n/a	n/a	n/a	n/a	n/a	n/a	n/a	n/a	n/a	n/a	n/a
2580.244	n/a	WORD	1290122	wordpools/wasnorm_wordpool.txt	LTP120	ltpFR	11	10	1	RANCH	1166	n/a	0	n/a	0	0	0	0	0.5869140625	0.422607421875	lower	../fonts/zerothre.ttf
2583.25	n/a	START	1291625	n/a	LTP120	ltpFR	11	n/a	n/a	n/a	n/a	n/a	n/a	n/a	n/a	n/a	n/a	n/a	n/a	n/a	n/a	n/a
2584.108	n/a	PROB	1292054	n/a	LTP120	ltpFR	11	n/a	n/a	n/a	n/a	n/a	n/a	13	5	1	7	n/a	n/a	n/a	n/a	n/a
2586.072	n/a	PROB	1293036	n/a	LTP120	ltpFR	11	n/a	n/a	n/a	n/a	n/a	n/a	21	7	6	8	n/a	n/a	n/a	n/a	n/a
2587.852	n/a	PROB	1293926	n/a	LTP120	ltpFR	11	n/a	n/a	n/a	n/a	n/a	n/a	14	3	2	9	n/a	n/a	n/a	n/a	n/a
2589.576	n/a	PROB	1294788	n/a	LTP120	ltpFR	11	n/a	n/a	n/a	n/a	n/a	n/a	20	9	9	2	n/a	n/a	n/a	n/a	n/a
2591.208	n/a	PROB	1295604	n/a	LTP120	ltpFR	11	n/a	n/a	n/a	n/a	n/a	n/a	14	6	5	3	n/a	n/a	n/a	n/a	n/a
2592.49	n/a	PROB	1296245	n/a	LTP120	ltpFR	11	n/a	n/a	n/a	n/a	n/a	n/a	13	8	2	3	n/a	n/a	n/a	n/a	n/a
2593.67	n/a	PROB	1296835	n/a	LTP120	ltpFR	11	n/a	n/a	n/a	n/a	n/a	n/a	10	4	4	2	n/a	n/a	n/a	n/a	n/a
2595.75	n/a	PROB	1297875	n/a	LTP120	ltpFR	11	n/a	n/a	n/a	n/a	n/a	n/a	16	1	8	7	n/a	n/a	n/a	n/a	n/a
2598.376	n/a	STOP	1299188	n/a	LTP120	ltpFR	11	n/a	n/a	n/a	n/a	n/a	n/a	n/a	n/a	n/a	n/a	n/a	n/a	n/a	n/a	n/a
2600.114	n/a	WORD	1300057	wordpools/wasnorm_wordpool.txt	LTP120	ltpFR	11	10	1	CRAB	397	n/a	1	n/a	0	0	0	0	0.5869140625	0.422607421875	lower	../fonts/zerothre.ttf
2603.118	n/a	START	1301559	n/a	LTP120	ltpFR	11	n/a	n/a	n/a	n/a	n/a	n/a	n/a	n/a	n/a	n/a	n/a	n/a	n/a	n/a	n/a
2604.176	n/a	PROB	1302088	n/a	LTP120	ltpFR	11	n/a	n/a	n/a	n/a	n/a	n/a	22	7	6	9	n/a	n/a	n/a	n/a	n/a
2607.614	n/a	PROB	1303807	n/a	LTP120	ltpFR	11	n/a	n/a	n/a	n/a	n/a	n/a	22	9	9	4	n/a	n/a	n/a	n/a	n/a
2608.986	n/a	PROB	1304493	n/a	LTP120	ltpFR	11	n/a	n/a	n/a	n/a	n/a	n/a	15	3	8	4	n/a	n/a	n/a	n/a	n/a
2610.468	n/a	PROB	1305234	n/a	LTP120	ltpFR	11	n/a	n/a	n/a	n/a	n/a	n/a	18	7	9	2	n/a	n/a	n/a	n/a	n/a
2612.772	n/a	PROB	1306386	n/a	LTP120	ltpFR	11	n/a	n/a	n/a	n/a	n/a	n/a	17	6	3	8	n/a	n/a	n/a	n/a	n/a
2614.87	n/a	PROB	1307435	n/a	LTP120	ltpFR	11	n/a	n/a	n/a	n/a	n/a	n/a	14	2	4	5	n/a	n/a	n/a	n/a	n/a
2616.636	n/a	PROB	1308318	n/a	LTP120	ltpFR	11	n/a	n/a	n/a	n/a	n/a	n/a	10	1	2	7	n/a	n/a	n/a	n/a	n/a
2619.096	n/a	STOP	1309548	n/a	LTP120	ltpFR	11	n/a	n/a	n/a	n/a	n/a	n/a	n/a	n/a	n/a	n/a	n/a	n/a	n/a	n/a	n/a
2619.964	n/a	WORD	1309982	wordpools/wasnorm_wordpool.txt	LTP120	ltpFR	11	10	1	SEA	1259	n/a	0	n/a	0	0	0	0	0.5869140625	0.422607421875	lower	../fonts/zerothre.ttf
2622.97	n/a	START	1311485	n/a	LTP120	ltpFR	11	n/a	n/a	n/a	n/a	n/a	n/a	n/a	n/a	n/a	n/a	n/a	n/a	n/a	n/a	n/a
2624.152	n/a	PROB	1312076	n/a	LTP120	ltpFR	11	n/a	n/a	n/a	n/a	n/a	n/a	17	9	7	1	n/a	n/a	n/a	n/a	n/a
2625.55	n/a	PROB	1312775	n/a	LTP120	ltpFR	11	n/a	n/a	n/a	n/a	n/a	n/a	16	7	8	1	n/a	n/a	n/a	n/a	n/a
2627.048	n/a	PROB	1313524	n/a	LTP120	ltpFR	11	n/a	n/a	n/a	n/a	n/a	n/a	12	5	3	4	n/a	n/a	n/a	n/a	n/a
2630.952	n/a	PROB	1315476	n/a	LTP120	ltpFR	11	n/a	n/a	n/a	n/a	n/a	n/a	5	1	2	2	n/a	n/a	n/a	n/a	n/a
2631.958	n/a	PROB	1315979	n/a	LTP120	ltpFR	11	n/a	n/a	n/a	n/a	n/a	n/a	21	6	9	6	n/a	n/a	n/a	n/a	n/a
2634.474	n/a	PROB	1317237	n/a	LTP120	ltpFR	11	n/a	n/a	n/a	n/a	n/a	n/a	6	1	4	1	n/a	n/a	n/a	n/a	n/a
2635.564	n/a	PROB	1317782	n/a	LTP120	ltpFR	11	n/a	n/a	n/a	n/a	n/a	n/a	16	9	3	4	n/a	n/a	n/a	n/a	n/a
2638.968	n/a	STOP	1319484	n/a	LTP120	ltpFR	11	n/a	n/a	n/a	n/a	n/a	n/a	n/a	n/a	n/a	n/a	n/a	n/a	n/a	n/a	n/a
2639.874	n/a	WORD	1319937	wordpools/wasnorm_wordpool.txt	LTP120	ltpFR	11	10	1	PIT	1077	n/a	0	n/a	0	0	0	0	0.5869140625	0.422607421875	lower	../fonts/zerothre.ttf
2642.88	n/a	START	1321440	n/a	LTP120	ltpFR	11	n/a	n/a	n/a	n/a	n/a	n/a	n/a	n/a	n/a	n/a	n/a	n/a	n/a	n/a	n/a
2643.688	n/a	PROB	1321844	n/a	LTP120	ltpFR	11	n/a	n/a	n/a	n/a	n/a	n/a	13	6	1	6	n/a	n/a	n/a	n/a	n/a
2644.978	n/a	PROB	1322489	n/a	LTP120	ltpFR	11	n/a	n/a	n/a	n/a	n/a	n/a	10	3	5	2	n/a	n/a	n/a	n/a	n/a
2647.318	n/a	PROB	1323659	n/a	LTP120	ltpFR	11	n/a	n/a	n/a	n/a	n/a	n/a	14	7	2	5	n/a	n/a	n/a	n/a	n/a
2649.582	n/a	PROB	1324791	n/a	LTP120	ltpFR	11	n/a	n/a	n/a	n/a	n/a	n/a	11	4	9	1	n/a	n/a	n/a	n/a	n/a
2652.42	n/a	PROB	1326210	n/a	LTP120	ltpFR	11	n/a	n/a	n/a	n/a	n/a	n/a	8	2	3	3	n/a	n/a	n/a	n/a	n/a
2654.118	n/a	PROB	1327059	n/a	LTP120	ltpFR	11	n/a	n/a	n/a	n/a	n/a	n/a	17	2	6	9	n/a	n/a	n/a	n/a	n/a
2656.89	n/a	PROB	1328445	n/a	LTP120	ltpFR	11	n/a	n/a	n/a	n/a	n/a	n/a	10	5	4	1	n/a	n/a	n/a	n/a	n/a
2658.488	n/a	STOP	1329244	n/a	LTP120	ltpFR	11	n/a	n/a	n/a	n/a	n/a	n/a	n/a	n/a	n/a	n/a	n/a	n/a	n/a	n/a	n/a
2659.986	n/a	WORD	1329993	wordpools/wasnorm_wordpool.txt	LTP120	ltpFR	11	10	1	GROUND	666	n/a	0	n/a	0	0	0	0	0.5869140625	0.422607421875	lower	../fonts/zerothre.ttf
2662.992	n/a	START	1331496	n/a	LTP120	ltpFR	11	n/a	n/a	n/a	n/a	n/a	n/a	n/a	n/a	n/a	n/a	n/a	n/a	n/a	n/a	n/a
2664.116	n/a	PROB	1332058	n/a	LTP120	ltpFR	11	n/a	n/a	n/a	n/a	n/a	n/a	17	4	5	8	n/a	n/a	n/a	n/a	n/a
2666.054	n/a	PROB	1333027	n/a	LTP120	ltpFR	11	n/a	n/a	n/a	n/a	n/a	n/a	14	4	9	1	n/a	n/a	n/a	n/a	n/a
2667.312	n/a	PROB	1333656	n/a	LTP120	ltpFR	11	n/a	n/a	n/a	n/a	n/a	n/a	30	5	9	6	n/a	n/a	n/a	n/a	n/a
2671.624	n/a	PROB	1335812	n/a	LTP120	ltpFR	11	n/a	n/a	n/a	n/a	n/a	n/a	65	9	6	9	n/a	n/a	n/a	n/a	n/a
2673.828	n/a	PROB	1336914	n/a	LTP120	ltpFR	11	n/a	n/a	n/a	n/a	n/a	n/a	18	8	4	6	n/a	n/a	n/a	n/a	n/a
2676.076	n/a	PROB	1338038	n/a	LTP120	ltpFR	11	n/a	n/a	n/a	n/a	n/a	n/a	22	5	8	9	n/a	n/a	n/a	n/a	n/a
2678.0	n/a	STOP	1339000	n/a	LTP120	ltpFR	11	n/a	n/a	n/a	n/a	n/a	n/a	n/a	n/a	n/a	n/a	n/a	n/a	n/a	n/a	n/a
2679.946	n/a	WORD	1339973	wordpools/wasnorm_wordpool.txt	LTP120	ltpFR	11	10	1	HAND	683	n/a	0	n/a	0	0	0	0	0.5869140625	0.422607421875	lower	../fonts/zerothre.ttf
2682.952	n/a	START	1341476	n/a	LTP120	ltpFR	11	n/a	n/a	n/a	n/a	n/a	n/a	n/a	n/a	n/a	n/a	n/a	n/a	n/a	n/a	n/a
2684.15	n/a	PROB	1342075	n/a	LTP120	ltpFR	11	n/a	n/a	n/a	n/a	n/a	n/a	17	7	8	2	n/a	n/a	n/a	n/a	n/a
2686.14	n/a	PROB	1343070	n/a	LTP120	ltpFR	11	n/a	n/a	n/a	n/a	n/a	n/a	9	1	5	3	n/a	n/a	n/a	n/a	n/a
2688.138	n/a	PROB	1344069	n/a	LTP120	ltpFR	11	n/a	n/a	n/a	n/a	n/a	n/a	19	3	6	8	n/a	n/a	n/a	n/a	n/a
2690.152	n/a	PROB	1345076	n/a	LTP120	ltpFR	11	n/a	n/a	n/a	n/a	n/a	n/a	15	9	5	1	n/a	n/a	n/a	n/a	n/a
2694.514	n/a	PROB	1347257	n/a	LTP120	ltpFR	11	n/a	n/a	n/a	n/a	n/a	n/a	8	3	1	4	n/a	n/a	n/a	n/a	n/a
2697.286	n/a	PROB	1348643	n/a	LTP120	ltpFR	11	n/a	n/a	n/a	n/a	n/a	n/a	14	3	5	6	n/a	n/a	n/a	n/a	n/a
2698.736	n/a	STOP	1349368	n/a	LTP120	ltpFR	11	n/a	n/a	n/a	n/a	n/a	n/a	n/a	n/a	n/a	n/a	n/a	n/a	n/a	n/a	n/a
2700.156	n/a	WORD	1350078	wordpools/wasnorm_wordpool.txt	LTP120	ltpFR	11	10	1	GUARDIAN	668	n/a	1	n/a	0	0	0	0	0.5869140625	0.422607421875	lower	../fonts/zerothre.ttf
2703.162	n/a	START	1351581	n/a	LTP120	ltpFR	11	n/a	n/a	n/a	n/a	n/a	n/a	n/a	n/a	n/a	n/a	n/a	n/a	n/a	n/a	n/a
2704.026	n/a	PROB	1352013	n/a	LTP120	ltpFR	11	n/a	n/a	n/a	n/a	n/a	n/a	15	8	4	3	n/a	n/a	n/a	n/a	n/a
2706.274	n/a	PROB	1353137	n/a	LTP120	ltpFR	11	n/a	n/a	n/a	n/a	n/a	n/a	16	4	9	3	n/a	n/a	n/a	n/a	n/a
2708.672	n/a	PROB	1354336	n/a	LTP120	ltpFR	11	n/a	n/a	n/a	n/a	n/a	n/a	9	2	3	3	n/a	n/a	n/a	n/a	n/a
2710.436	n/a	PROB	1355218	n/a	LTP120	ltpFR	11	n/a	n/a	n/a	n/a	n/a	n/a	95	5	8	9	n/a	n/a	n/a	n/a	n/a
2714.074	n/a	PROB	1357037	n/a	LTP120	ltpFR	11	n/a	n/a	n/a	n/a	n/a	n/a	14	2	7	5	n/a	n/a	n/a	n/a	n/a
2716.738	n/a	PROB	1358369	n/a	LTP120	ltpFR	11	n/a	n/a	n/a	n/a	n/a	n/a	17	8	1	8	n/a	n/a	n/a	n/a	n/a
2718.296	n/a	STOP	1359148	n/a	LTP120	ltpFR	11	n/a	n/a	n/a	n/a	n/a	n/a	n/a	n/a	n/a	n/a	n/a	n/a	n/a	n/a	n/a
2720.166	n/a	WORD	1360083	wordpools/wasnorm_wordpool.txt	LTP120	ltpFR	11	10	1	PAINTER	1004	n/a	1	n/a	0	0	0	0	0.5869140625	0.422607421875	lower	../fonts/zerothre.ttf
2723.174	n/a	START	1361587	n/a	LTP120	ltpFR	11	n/a	n/a	n/a	n/a	n/a	n/a	n/a	n/a	n/a	n/a	n/a	n/a	n/a	n/a	n/a
2724.004	n/a	PROB	1362002	n/a	LTP120	ltpFR	11	n/a	n/a	n/a	n/a	n/a	n/a	16	4	7	5	n/a	n/a	n/a	n/a	n/a
2726.718	n/a	PROB	1363359	n/a	LTP120	ltpFR	11	n/a	n/a	n/a	n/a	n/a	n/a	12	3	3	6	n/a	n/a	n/a	n/a	n/a
2730.862	n/a	PROB	1365431	n/a	LTP120	ltpFR	11	n/a	n/a	n/a	n/a	n/a	n/a	8	2	5	1	n/a	n/a	n/a	n/a	n/a
2732.512	n/a	PROB	1366256	n/a	LTP120	ltpFR	11	n/a	n/a	n/a	n/a	n/a	n/a	17	8	7	2	n/a	n/a	n/a	n/a	n/a
2734.034	n/a	PROB	1367017	n/a	LTP120	ltpFR	11	n/a	n/a	n/a	n/a	n/a	n/a	17	1	9	7	n/a	n/a	n/a	n/a	n/a
2739.174	n/a	STOP	1369587	n/a	LTP120	ltpFR	11	n/a	n/a	n/a	n/a	n/a	n/a	n/a	n/a	n/a	n/a	n/a	n/a	n/a	n/a	n/a
2740.236	n/a	WORD	1370118	wordpools/wasnorm_wordpool.txt	LTP120	ltpFR	11	10	1	GLOVE	642	n/a	0	n/a	0	0	0	0	0.5869140625	0.422607421875	lower	../fonts/zerothre.ttf
2743.242	n/a	START	1371621	n/a	LTP120	ltpFR	11	n/a	n/a	n/a	n/a	n/a	n/a	n/a	n/a	n/a	n/a	n/a	n/a	n/a	n/a	n/a
2744.19	n/a	PROB	1372095	n/a	LTP120	ltpFR	11	n/a	n/a	n/a	n/a	n/a	n/a	18	5	4	9	n/a	n/a	n/a	n/a	n/a
2747.22	n/a	PROB	1373610	n/a	LTP120	ltpFR	11	n/a	n/a	n/a	n/a	n/a	n/a	22	9	4	9	n/a	n/a	n/a	n/a	n/a
2749.042	n/a	PROB	1374521	n/a	LTP120	ltpFR	11	n/a	n/a	n/a	n/a	n/a	n/a	12	2	6	4	n/a	n/a	n/a	n/a	n/a
2752.148	n/a	PROB	1376074	n/a	LTP120	ltpFR	11	n/a	n/a	n/a	n/a	n/a	n/a	13	1	9	3	n/a	n/a	n/a	n/a	n/a
2754.044	n/a	PROB	1377022	n/a	LTP120	ltpFR	11	n/a	n/a	n/a	n/a	n/a	n/a	13	3	7	3	n/a	n/a	n/a	n/a	n/a
2755.636	n/a	PROB	1377818	n/a	LTP120	ltpFR	11	n/a	n/a	n/a	n/a	n/a	n/a	14	1	8	5	n/a	n/a	n/a	n/a	n/a
2757.608	n/a	PROB	1378804	n/a	LTP120	ltpFR	11	n/a	n/a	n/a	n/a	n/a	n/a	15	6	2	7	n/a	n/a	n/a	n/a	n/a
2758.952	n/a	STOP	1379476	n/a	LTP120	ltpFR	11	n/a	n/a	n/a	n/a	n/a	n/a	n/a	n/a	n/a	n/a	n/a	n/a	n/a	n/a	n/a
2760.08	n/a	WORD	1380040	wordpools/wasnorm_wordpool.txt	LTP120	ltpFR	11	10	1	DAD	433	n/a	1	n/a	0	0	0	0	0.5869140625	0.422607421875	lower	../fonts/zerothre.ttf
2763.086	n/a	START	1381543	n/a	LTP120	ltpFR	11	n/a	n/a	n/a	n/a	n/a	n/a	n/a	n/a	n/a	n/a	n/a	n/a	n/a	n/a	n/a
2764.126	n/a	PROB	1382063	n/a	LTP120	ltpFR	11	n/a	n/a	n/a	n/a	n/a	n/a	16	5	4	7	n/a	n/a	n/a	n/a	n/a
2765.848	n/a	PROB	1382924	n/a	LTP120	ltpFR	11	n/a	n/a	n/a	n/a	n/a	n/a	20	9	3	8	n/a	n/a	n/a	n/a	n/a
2768.012	n/a	PROB	1384006	n/a	LTP120	ltpFR	11	n/a	n/a	n/a	n/a	n/a	n/a	11	2	6	3	n/a	n/a	n/a	n/a	n/a
2769.394	n/a	PROB	1384697	n/a	LTP120	ltpFR	11	n/a	n/a	n/a	n/a	n/a	n/a	14	4	1	9	n/a	n/a	n/a	n/a	n/a
2770.866	n/a	PROB	1385433	n/a	LTP120	ltpFR	11	n/a	n/a	n/a	n/a	n/a	n/a	16	5	6	5	n/a	n/a	n/a	n/a	n/a
2772.04	n/a	PROB	1386020	n/a	LTP120	ltpFR	11	n/a	n/a	n/a	n/a	n/a	n/a	19	7	6	6	n/a	n/a	n/a	n/a	n/a
2773.564	n/a	PROB	1386782	n/a	LTP120	ltpFR	11	n/a	n/a	n/a	n/a	n/a	n/a	21	6	9	6	n/a	n/a	n/a	n/a	n/a
2775.354	n/a	PROB	1387677	n/a	LTP120	ltpFR	11	n/a	n/a	n/a	n/a	n/a	n/a	21	8	9	4	n/a	n/a	n/a	n/a	n/a
2778.266	n/a	STOP	1389133	n/a	LTP120	ltpFR	11	n/a	n/a	n/a	n/a	n/a	n/a	n/a	n/a	n/a	n/a	n/a	n/a	n/a	n/a	n/a
2779.964	n/a	WORD	1389982	wordpools/wasnorm_wordpool.txt	LTP120	ltpFR	11	10	1	PARSLEY	1016	n/a	0	n/a	0	0	0	0	0.5869140625	0.422607421875	lower	../fonts/zerothre.ttf
2782.97	n/a	START	1391485	n/a	LTP120	ltpFR	11	n/a	n/a	n/a	n/a	n/a	n/a	n/a	n/a	n/a	n/a	n/a	n/a	n/a	n/a	n/a
2784.126	n/a	PROB	1392063	n/a	LTP120	ltpFR	11	n/a	n/a	n/a	n/a	n/a	n/a	13	5	2	6	n/a	n/a	n/a	n/a	n/a
2786.308	n/a	PROB	1393154	n/a	LTP120	ltpFR	11	n/a	n/a	n/a	n/a	n/a	n/a	22	6	9	7	n/a	n/a	n/a	n/a	n/a
2789.738	n/a	PROB	1394869	n/a	LTP120	ltpFR	11	n/a	n/a	n/a	n/a	n/a	n/a	15	5	8	2	n/a	n/a	n/a	n/a	n/a
2791.086	n/a	PROB	1395543	n/a	LTP120	ltpFR	11	n/a	n/a	n/a	n/a	n/a	n/a	14	3	7	4	n/a	n/a	n/a	n/a	n/a
2792.2	n/a	PROB	1396100	n/a	LTP120	ltpFR	11	n/a	n/a	n/a	n/a	n/a	n/a	14	4	1	9	n/a	n/a	n/a	n/a	n/a
2793.64	n/a	PROB	1396820	n/a	LTP120	ltpFR	11	n/a	n/a	n/a	n/a	n/a	n/a	24	9	6	9	n/a	n/a	n/a	n/a	n/a
2798.968	n/a	STOP	1399484	n/a	LTP120	ltpFR	11	n/a	n/a	n/a	n/a	n/a	n/a	n/a	n/a	n/a	n/a	n/a	n/a	n/a	n/a	n/a
2800.824	n/a	REC_START	1400412	n/a	LTP120	ltpFR	11	10	n/a	n/a	n/a	n/a	n/a	n/a	0	0	0	n/a	n/a	n/a	n/a	n/a
2802.834	n/a	REC_WORD	1401417	wordpools/wasnorm_wordpool.txt	LTP120	ltpFR	11	10	1	PARSLEY	1016	n/a	0	n/a	0	0	0	n/a	n/a	n/a	n/a	n/a
2804.746	n/a	REC_WORD	1402373	wordpools/wasnorm_wordpool.txt	LTP120	ltpFR	11	10	1	DAD	433	n/a	1	n/a	0	0	0	n/a	n/a	n/a	n/a	n/a
2806.622	n/a	REC_WORD	1403311	wordpools/wasnorm_wordpool.txt	LTP120	ltpFR	11	10	1	GUARDIAN	668	n/a	1	n/a	0	0	0	n/a	n/a	n/a	n/a	n/a
2809.788	n/a	REC_WORD	1404894	wordpools/wasnorm_wordpool.txt	LTP120	ltpFR	11	10	0	PLATE	1086	n/a	0	n/a	0	0	0	n/a	n/a	n/a	n/a	n/a
2817.032	n/a	REC_WORD	1408516	wordpools/wasnorm_wordpool.txt	LTP120	ltpFR	11	10	1	RANCH	1166	n/a	0	n/a	0	0	0	n/a	n/a	n/a	n/a	n/a
2819.97	n/a	REC_WORD_VV	1409985	wordpools/wasnorm_wordpool.txt	LTP120	ltpFR	11	10	n/a	<>	-1	n/a	n/a	n/a	0	0	0	n/a	n/a	n/a	n/a	n/a
2833.13	n/a	REC_WORD_VV	1416565	wordpools/wasnorm_wordpool.txt	LTP120	ltpFR	11	10	n/a	<>	-1	n/a	n/a	n/a	0	0	0	n/a	n/a	n/a	n/a	n/a
2876.43	n/a	REST_REWET	1438215	n/a	LTP120	ltpFR	11	10	n/a	n/a	n/a	n/a	n/a	n/a	0	0	0	n/a	n/a	n/a	n/a	n/a
3134.218	n/a	WORD	1567109	wordpools/wasnorm_wordpool.txt	LTP120	ltpFR	11	11	1	DOCK	477	n/a	0	n/a	0	0	0	0	0.5869140625	0.422607421875	lower	../fonts/zerothre.ttf
3138.188	n/a	WORD	1569094	wordpools/wasnorm_wordpool.txt	LTP120	ltpFR	11	11	1	ROAD	1196	n/a	0	n/a	0	0	0	0	0.5869140625	0.422607421875	lower	../fonts/zerothre.ttf
3142.232	n/a	WORD	1571116	wordpools/wasnorm_wordpool.txt	LTP120	ltpFR	11	11	1	MARKER	870	n/a	0	n/a	0	0	0	0	0.5869140625	0.422607421875	lower	../fonts/zerothre.ttf
3146.428	n/a	WORD	1573214	wordpools/wasnorm_wordpool.txt	LTP120	ltpFR	11	11	1	FOLLOWER	589	n/a	1	n/a	0	0	0	0	0.5869140625	0.422607421875	lower	../fonts/zerothre.ttf
3150.456	n/a	WORD	1575228	wordpools/wasnorm_wordpool.txt	LTP120	ltpFR	11	11	0	INTESTINE	742	n/a	1	n/a	0	0	0	1	0.412841796875	0.57763671875	upper	../fonts/amplitud.ttf
3154.368	n/a	WORD	1577184	wordpools/wasnorm_wordpool.txt	LTP120	ltpFR	11	11	0	PADDLE	1000	n/a	1	n/a	0	0	0	1	0.412841796875	0.57763671875	upper	../fonts/amplitud.ttf
3158.34	n/a	WORD	1579170	wordpools/wasnorm_wordpool.txt	LTP120	ltpFR	11	11	0	CART	250	n/a	0	n/a	0	0	0	1	0.412841796875	0.57763671875	upper	../fonts/amplitud.ttf
3162.234	n/a	WORD	1581117	wordpools/wasnorm_wordpool.txt	LTP120	ltpFR	11	11	0	RULER	1216	n/a	0	n/a	0	0	0	1	0.412841796875	0.57763671875	upper	../fonts/amplitud.ttf
3166.23	n/a	WORD	1583115	wordpools/wasnorm_wordpool.txt	LTP120	ltpFR	11	11	1	HAIL	676	n/a	0	n/a	0	0	0	0	0.5869140625	0.422607421875	lower	../fonts/zerothre.ttf
3170.176	n/a	WORD	1585088	wordpools/wasnorm_wordpool.txt	LTP120	ltpFR	11	11	1	MARSH	874	n/a	0	n/a	0	0	0	0	0.5869140625	0.422607421875	lower	../fonts/zerothre.ttf
3174.088	n/a	WORD	1587044	wordpools/wasnorm_wordpool.txt	LTP120	ltpFR	11	11	1	COOK	372	n/a	0	n/a	0	0	0	0	0.5869140625	0.422607421875	lower	../fonts/zerothre.ttf
3178.182	n/a	WORD	1589091	wordpools/wasnorm_wordpool.txt	LTP120	ltpFR	11	11	1	BOOTH	151	n/a	0	n/a	0	0	0	0	0.5869140625	0.422607421875	lower	../fonts/zerothre.ttf
3182.204	n/a	WORD	1591102	wordpools/wasnorm_wordpool.txt	LTP120	ltpFR	11	11	0	GRIZZLY	662	n/a	1	n/a	0	0	0	1	0.412841796875	0.57763671875	upper	../fonts/amplitud.ttf
3186.048	n/a	WORD	1593024	wordpools/wasnorm_wordpool.txt	LTP120	ltpFR	11	11	0	CUB	419	n/a	0	n/a	0	0	0	1	0.412841796875	0.57763671875	upper	../fonts/amplitud.ttf
3190.044	n/a	WORD	1595022	wordpools/wasnorm_wordpool.txt	LTP120	ltpFR	11	11	0	HARP	689	n/a	1	n/a	0	0	0	1	0.412841796875	0.57763671875	upper	../fonts/amplitud.ttf
3194.206	n/a	WORD	1597103	wordpools/wasnorm_wordpool.txt	LTP120	ltpFR	11	11	0	ORGAN	984	n/a	0	n/a	0	0	0	1	0.412841796875	0.57763671875	upper	../fonts/amplitud.ttf
