mstime	trial_type	stim_file	subject	experiment	session	trial	item_name	item_num	list	answer	test_x	test_y	test_z
0	SESS_START	n/a	LTP123	ltpFR2	21	n/a	n/a	n/a	n/a	n/a	0	0	0
14008	START	n/a	LTP123	ltpFR2	21	n/a	n/a	n/a	-1	n/a	n/a	n/a	n/a
14043	PROB	n/a	LTP123	ltpFR2	21	n/a	n/a	n/a	-1	16	3	6	7
15962	PROB	n/a	LTP123	ltpFR2	21	n/a	n/a	n/a	-1	10	3	3	4
17380	PROB	n/a	LTP123	ltpFR2	21	n/a	n/a	n/a	-1	9	1	1	7
18581	PROB	n/a	LTP123	ltpFR2	21	n/a	n/a	n/a	-1	16	5	2	9
20066	PROB	n/a	LTP123	ltpFR2	21	n/a	n/a	n/a	-1	10	3	2	5
21433	PROB	n/a	LTP123	ltpFR2	21	n/a	n/a	n/a	-1	8	5	1	2
22967	PROB	n/a	LTP123	ltpFR2	21	n/a	n/a	n/a	-1	11	6	2	3
24670	STOP	n/a	LTP123	ltpFR2	21	n/a	n/a	n/a	-1	n/a	n/a	n/a	n/a
57913	DISTRACTOR	n/a	LTP123	ltpFR2	21	1	n/a	n/a	n/a	n/a	0	0	0
57914	START	n/a	LTP123	ltpFR2	21	n/a	n/a	n/a	1	n/a	n/a	n/a	n/a
57963	PROB	n/a	LTP123	ltpFR2	21	n/a	n/a	n/a	1	24	8	9	7
60697	PROB	n/a	LTP123	ltpFR2	21	n/a	n/a	n/a	1	14	6	7	1
62449	PROB	n/a	LTP123	ltpFR2	21	n/a	n/a	n/a	1	15	7	5	3
64001	PROB	n/a	LTP123	ltpFR2	21	n/a	n/a	n/a	1	17	7	2	8
66220	PROB	n/a	LTP123	ltpFR2	21	n/a	n/a	n/a	1	21	9	5	7
70173	PROB	n/a	LTP123	ltpFR2	21	n/a	n/a	n/a	1	11	1	2	8
71457	PROB	n/a	LTP123	ltpFR2	21	n/a	n/a	n/a	1	14	9	1	4
72824	PROB	n/a	LTP123	ltpFR2	21	n/a	n/a	n/a	1	12	7	4	1
74558	PROB	n/a	LTP123	ltpFR2	21	n/a	n/a	n/a	1	16	8	7	1
75993	PROB	n/a	LTP123	ltpFR2	21	n/a	n/a	n/a	1	17	4	8	5
77678	PROB	n/a	LTP123	ltpFR2	21	n/a	n/a	n/a	1	23	9	9	5
79247	PROB	n/a	LTP123	ltpFR2	21	n/a	n/a	n/a	1	13	2	5	6
80712	STOP	n/a	LTP123	ltpFR2	21	n/a	n/a	n/a	1	n/a	n/a	n/a	n/a
82838	WORD	wordpools/wasnorm_wordpool_576.txt	LTP123	ltpFR2	21	1	ACTOR	5	n/a	n/a	0	0	0
85518	WORD	wordpools/wasnorm_wordpool_576.txt	LTP123	ltpFR2	21	1	BADGE	68	n/a	n/a	0	0	0
88288	WORD	wordpools/wasnorm_wordpool_576.txt	LTP123	ltpFR2	21	1	SPIDER	1351	n/a	n/a	0	0	0
90989	WORD	wordpools/wasnorm_wordpool_576.txt	LTP123	ltpFR2	21	1	COCOON	339	n/a	n/a	0	0	0
93691	WORD	wordpools/wasnorm_wordpool_576.txt	LTP123	ltpFR2	21	1	SPARROW	1347	n/a	n/a	0	0	0
96394	WORD	wordpools/wasnorm_wordpool_576.txt	LTP123	ltpFR2	21	1	STATUE	1374	n/a	n/a	0	0	0
99129	WORD	wordpools/wasnorm_wordpool_576.txt	LTP123	ltpFR2	21	1	MUMMY	932	n/a	n/a	0	0	0
101898	WORD	wordpools/wasnorm_wordpool_576.txt	LTP123	ltpFR2	21	1	PREACHER	1119	n/a	n/a	0	0	0
104450	WORD	wordpools/wasnorm_wordpool_576.txt	LTP123	ltpFR2	21	1	BREAST	171	n/a	n/a	0	0	0
107203	WORD	wordpools/wasnorm_wordpool_576.txt	LTP123	ltpFR2	21	1	PENGUIN	1044	n/a	n/a	0	0	0
109854	WORD	wordpools/wasnorm_wordpool_576.txt	LTP123	ltpFR2	21	1	SWIMMER	1420	n/a	n/a	0	0	0
112407	WORD	wordpools/wasnorm_wordpool_576.txt	LTP123	ltpFR2	21	1	HAWK	692	n/a	n/a	0	0	0
115176	WORD	wordpools/wasnorm_wordpool_576.txt	LTP123	ltpFR2	21	1	CITRUS	313	n/a	n/a	0	0	0
117778	WORD	wordpools/wasnorm_wordpool_576.txt	LTP123	ltpFR2	21	1	COFFEE	341	n/a	n/a	0	0	0
120530	WORD	wordpools/wasnorm_wordpool_576.txt	LTP123	ltpFR2	21	1	LAPEL	800	n/a	n/a	0	0	0
123332	WORD	wordpools/wasnorm_wordpool_576.txt	LTP123	ltpFR2	21	1	LUGGAGE	847	n/a	n/a	0	0	0
126017	WORD	wordpools/wasnorm_wordpool_576.txt	LTP123	ltpFR2	21	1	BLUEPRINT	142	n/a	n/a	0	0	0
128703	WORD	wordpools/wasnorm_wordpool_576.txt	LTP123	ltpFR2	21	1	CARROT	249	n/a	n/a	0	0	0
131306	WORD	wordpools/wasnorm_wordpool_576.txt	LTP123	ltpFR2	21	1	WITNESS	1618	n/a	n/a	0	0	0
134091	WORD	wordpools/wasnorm_wordpool_576.txt	LTP123	ltpFR2	21	1	JUDGE	761	n/a	n/a	0	0	0
136775	WORD	wordpools/wasnorm_wordpool_576.txt	LTP123	ltpFR2	21	1	BARREL	91	n/a	n/a	0	0	0
139378	WORD	wordpools/wasnorm_wordpool_576.txt	LTP123	ltpFR2	21	1	LODGE	839	n/a	n/a	0	0	0
142030	WORD	wordpools/wasnorm_wordpool_576.txt	LTP123	ltpFR2	21	1	PLAYGROUND	1087	n/a	n/a	0	0	0
144532	WORD	wordpools/wasnorm_wordpool_576.txt	LTP123	ltpFR2	21	1	TRACTOR	1493	n/a	n/a	0	0	0
146151	START	n/a	LTP123	ltpFR2	21	n/a	n/a	n/a	2	n/a	n/a	n/a	n/a
147208	DISTRACTOR	n/a	LTP123	ltpFR2	21	1	n/a	n/a	n/a	n/a	0	0	0
147235	PROB	n/a	LTP123	ltpFR2	21	n/a	n/a	n/a	2	24	8	8	8
148902	PROB	n/a	LTP123	ltpFR2	21	n/a	n/a	n/a	2	18	9	7	2
151338	PROB	n/a	LTP123	ltpFR2	21	n/a	n/a	n/a	2	8	1	3	4
153289	PROB	n/a	LTP123	ltpFR2	21	n/a	n/a	n/a	2	24	9	9	6
154907	PROB	n/a	LTP123	ltpFR2	21	n/a	n/a	n/a	2	18	5	6	7
156526	PROB	n/a	LTP123	ltpFR2	21	n/a	n/a	n/a	2	10	2	5	3
158244	PROB	n/a	LTP123	ltpFR2	21	n/a	n/a	n/a	2	18	5	6	7
159777	PROB	n/a	LTP123	ltpFR2	21	n/a	n/a	n/a	2	23	7	9	7
161662	PROB	n/a	LTP123	ltpFR2	21	n/a	n/a	n/a	2	16	9	4	3
164831	PROB	n/a	LTP123	ltpFR2	21	n/a	n/a	n/a	2	15	7	1	7
166334	PROB	n/a	LTP123	ltpFR2	21	n/a	n/a	n/a	2	8	2	3	3
168540	STOP	n/a	LTP123	ltpFR2	21	n/a	n/a	n/a	2	n/a	n/a	n/a	n/a
172072	REC_START	n/a	LTP123	ltpFR2	21	1	n/a	n/a	n/a	n/a	0	0	0
172463	REC_WORD	wordpools/wasnorm_wordpool_576.txt	LTP123	ltpFR2	21	1	TRACTOR	1493	n/a	n/a	0	0	0
173216	REC_WORD	wordpools/wasnorm_wordpool_576.txt	LTP123	ltpFR2	21	1	BARREL	91	n/a	n/a	0	0	0
173847	REC_WORD	wordpools/wasnorm_wordpool_576.txt	LTP123	ltpFR2	21	1	BADGE	68	n/a	n/a	0	0	0
175835	REC_WORD	wordpools/wasnorm_wordpool_576.txt	LTP123	ltpFR2	21	1	BREAST	171	n/a	n/a	0	0	0
178092	REC_WORD	wordpools/wasnorm_wordpool_576.txt	LTP123	ltpFR2	21	1	WITNESS	1618	n/a	n/a	0	0	0
178647	REC_WORD	wordpools/wasnorm_wordpool_576.txt	LTP123	ltpFR2	21	1	JUDGE	761	n/a	n/a	0	0	0
179189	REC_WORD	wordpools/wasnorm_wordpool_576.txt	LTP123	ltpFR2	21	1	PREACHER	1119	n/a	n/a	0	0	0
179994	REC_WORD	wordpools/wasnorm_wordpool_576.txt	LTP123	ltpFR2	21	1	LODGE	839	n/a	n/a	0	0	0
181279	REC_WORD	wordpools/wasnorm_wordpool_576.txt	LTP123	ltpFR2	21	1	SPARROW	1347	n/a	n/a	0	0	0
182244	REC_WORD	wordpools/wasnorm_wordpool_576.txt	LTP123	ltpFR2	21	1	HAWK	692	n/a	n/a	0	0	0
183140	REC_WORD	wordpools/wasnorm_wordpool_576.txt	LTP123	ltpFR2	21	1	PENGUIN	1044	n/a	n/a	0	0	0
184906	REC_WORD	wordpools/wasnorm_wordpool_576.txt	LTP123	ltpFR2	21	1	SWIMMER	1420	n/a	n/a	0	0	0
186265	REC_WORD	wordpools/wasnorm_wordpool_576.txt	LTP123	ltpFR2	21	1	ACTOR	5	n/a	n/a	0	0	0
190467	REC_WORD	wordpools/wasnorm_wordpool_576.txt	LTP123	ltpFR2	21	1	CARROT	249	n/a	n/a	0	0	0
194220	REC_WORD	wordpools/wasnorm_wordpool_576.txt	LTP123	ltpFR2	21	1	SPIDER	1351	n/a	n/a	0	0	0
195781	REC_WORD	wordpools/wasnorm_wordpool_576.txt	LTP123	ltpFR2	21	1	COCOON	339	n/a	n/a	0	0	0
217342	REC_WORD	wordpools/wasnorm_wordpool_576.txt	LTP123	ltpFR2	21	1	LAPEL	800	n/a	n/a	0	0	0
225817	REC_WORD	wordpools/wasnorm_wordpool_576.txt	LTP123	ltpFR2	21	1	BLUEPRINT	142	n/a	n/a	0	0	0
227694	REC_WORD	wordpools/wasnorm_wordpool_576.txt	LTP123	ltpFR2	21	1	SUITCASE	1403	n/a	n/a	0	0	0
229396	REC_WORD	wordpools/wasnorm_wordpool_576.txt	LTP123	ltpFR2	21	1	LUGGAGE	847	n/a	n/a	0	0	0
262760	DISTRACTOR	n/a	LTP123	ltpFR2	21	2	n/a	n/a	n/a	n/a	0	0	0
262761	START	n/a	LTP123	ltpFR2	21	n/a	n/a	n/a	3	n/a	n/a	n/a	n/a
262810	PROB	n/a	LTP123	ltpFR2	21	n/a	n/a	n/a	3	14	9	3	2
264895	PROB	n/a	LTP123	ltpFR2	21	n/a	n/a	n/a	3	17	7	2	8
266713	PROB	n/a	LTP123	ltpFR2	21	n/a	n/a	n/a	3	17	6	5	6
268649	PROB	n/a	LTP123	ltpFR2	21	n/a	n/a	n/a	3	22	8	9	5
271583	PROB	n/a	LTP123	ltpFR2	21	n/a	n/a	n/a	3	14	4	1	9
273269	PROB	n/a	LTP123	ltpFR2	21	n/a	n/a	n/a	3	12	2	1	9
274687	PROB	n/a	LTP123	ltpFR2	21	n/a	n/a	n/a	3	16	3	5	8
276138	PROB	n/a	LTP123	ltpFR2	21	n/a	n/a	n/a	3	15	3	5	7
277739	PROB	n/a	LTP123	ltpFR2	21	n/a	n/a	n/a	3	16	9	4	3
279823	PROB	n/a	LTP123	ltpFR2	21	n/a	n/a	n/a	3	13	2	9	2
281508	PROB	n/a	LTP123	ltpFR2	21	n/a	n/a	n/a	3	14	3	4	7
283426	PROB	n/a	LTP123	ltpFR2	21	n/a	n/a	n/a	3	6	1	4	1
286760	STOP	n/a	LTP123	ltpFR2	21	n/a	n/a	n/a	3	n/a	n/a	n/a	n/a
287663	WORD	wordpools/wasnorm_wordpool_576.txt	LTP123	ltpFR2	21	2	HOSTESS	723	n/a	n/a	0	0	0
290150	WORD	wordpools/wasnorm_wordpool_576.txt	LTP123	ltpFR2	21	2	WAITER	1580	n/a	n/a	0	0	0
292901	WORD	wordpools/wasnorm_wordpool_576.txt	LTP123	ltpFR2	21	2	PIMPLE	1071	n/a	n/a	0	0	0
295420	WORD	wordpools/wasnorm_wordpool_576.txt	LTP123	ltpFR2	21	2	FRECKLE	602	n/a	n/a	0	0	0
298123	WORD	wordpools/wasnorm_wordpool_576.txt	LTP123	ltpFR2	21	2	GUARD	667	n/a	n/a	0	0	0
300607	WORD	wordpools/wasnorm_wordpool_576.txt	LTP123	ltpFR2	21	2	AGENT	10	n/a	n/a	0	0	0
303110	WORD	wordpools/wasnorm_wordpool_576.txt	LTP123	ltpFR2	21	2	ZIPPER	1636	n/a	n/a	0	0	0
305761	WORD	wordpools/wasnorm_wordpool_576.txt	LTP123	ltpFR2	21	2	APRON	35	n/a	n/a	0	0	0
308331	WORD	wordpools/wasnorm_wordpool_576.txt	LTP123	ltpFR2	21	2	TRIBE	1505	n/a	n/a	0	0	0
310898	WORD	wordpools/wasnorm_wordpool_576.txt	LTP123	ltpFR2	21	2	SCULPTURE	1258	n/a	n/a	0	0	0
313484	WORD	wordpools/wasnorm_wordpool_576.txt	LTP123	ltpFR2	21	2	CELLAR	267	n/a	n/a	0	0	0
316104	WORD	wordpools/wasnorm_wordpool_576.txt	LTP123	ltpFR2	21	2	TOASTER	1472	n/a	n/a	0	0	0
318655	WORD	wordpools/wasnorm_wordpool_576.txt	LTP123	ltpFR2	21	2	MAILBOX	857	n/a	n/a	0	0	0
321302	WORD	wordpools/wasnorm_wordpool_576.txt	LTP123	ltpFR2	21	2	FIDDLE	561	n/a	n/a	0	0	0
323936	WORD	wordpools/wasnorm_wordpool_576.txt	LTP123	ltpFR2	21	2	WHISTLE	1606	n/a	n/a	0	0	0
326495	WORD	wordpools/wasnorm_wordpool_576.txt	LTP123	ltpFR2	21	2	EMPIRE	530	n/a	n/a	0	0	0
328963	WORD	wordpools/wasnorm_wordpool_576.txt	LTP123	ltpFR2	21	2	APPLE	33	n/a	n/a	0	0	0
331683	WORD	wordpools/wasnorm_wordpool_576.txt	LTP123	ltpFR2	21	2	HAMPER	682	n/a	n/a	0	0	0
334501	WORD	wordpools/wasnorm_wordpool_576.txt	LTP123	ltpFR2	21	2	BUBBLE	183	n/a	n/a	0	0	0
337337	WORD	wordpools/wasnorm_wordpool_576.txt	LTP123	ltpFR2	21	2	PASSAGE	1019	n/a	n/a	0	0	0
339838	WORD	wordpools/wasnorm_wordpool_576.txt	LTP123	ltpFR2	21	2	DRESS	495	n/a	n/a	0	0	0
342675	WORD	wordpools/wasnorm_wordpool_576.txt	LTP123	ltpFR2	21	2	PARENT	1013	n/a	n/a	0	0	0
345493	WORD	wordpools/wasnorm_wordpool_576.txt	LTP123	ltpFR2	21	2	FRUIT	610	n/a	n/a	0	0	0
348113	WORD	wordpools/wasnorm_wordpool_576.txt	LTP123	ltpFR2	21	2	COLLEGE	346	n/a	n/a	0	0	0
349748	START	n/a	LTP123	ltpFR2	21	n/a	n/a	n/a	4	n/a	n/a	n/a	n/a
350768	DISTRACTOR	n/a	LTP123	ltpFR2	21	2	n/a	n/a	n/a	n/a	0	0	0
350798	PROB	n/a	LTP123	ltpFR2	21	n/a	n/a	n/a	4	17	8	3	6
353016	PROB	n/a	LTP123	ltpFR2	21	n/a	n/a	n/a	4	20	9	7	4
354784	PROB	n/a	LTP123	ltpFR2	21	n/a	n/a	n/a	4	14	3	3	8
356835	PROB	n/a	LTP123	ltpFR2	21	n/a	n/a	n/a	4	19	7	5	7
358786	PROB	n/a	LTP123	ltpFR2	21	n/a	n/a	n/a	4	15	5	9	1
360132	PROB	n/a	LTP123	ltpFR2	21	n/a	n/a	n/a	4	18	5	5	8
361489	PROB	n/a	LTP123	ltpFR2	21	n/a	n/a	n/a	4	23	7	7	9
363742	PROB	n/a	LTP123	ltpFR2	21	n/a	n/a	n/a	4	12	5	4	3
365675	PROB	n/a	LTP123	ltpFR2	21	n/a	n/a	n/a	4	14	7	4	3
368028	PROB	n/a	LTP123	ltpFR2	21	n/a	n/a	n/a	4	19	5	6	8
370247	PROB	n/a	LTP123	ltpFR2	21	n/a	n/a	n/a	4	16	6	9	1
371685	PROB	n/a	LTP123	ltpFR2	21	n/a	n/a	n/a	4	19	8	2	9
372844	STOP	n/a	LTP123	ltpFR2	21	n/a	n/a	n/a	4	n/a	n/a	n/a	n/a
375668	REC_START	n/a	LTP123	ltpFR2	21	2	n/a	n/a	n/a	n/a	0	0	0
375943	REC_WORD	wordpools/wasnorm_wordpool_576.txt	LTP123	ltpFR2	21	2	PARENT	1013	n/a	n/a	0	0	0
376503	REC_WORD	wordpools/wasnorm_wordpool_576.txt	LTP123	ltpFR2	21	2	COLLEGE	346	n/a	n/a	0	0	0
377115	REC_WORD	wordpools/wasnorm_wordpool_576.txt	LTP123	ltpFR2	21	2	HAMPER	682	n/a	n/a	0	0	0
379494	REC_WORD	wordpools/wasnorm_wordpool_576.txt	LTP123	ltpFR2	21	2	ZIPPER	1636	n/a	n/a	0	0	0
380118	REC_WORD	wordpools/wasnorm_wordpool_576.txt	LTP123	ltpFR2	21	2	DRESS	495	n/a	n/a	0	0	0
382168	REC_WORD	wordpools/wasnorm_wordpool_576.txt	LTP123	ltpFR2	21	2	FRUIT	610	n/a	n/a	0	0	0
382849	REC_WORD	wordpools/wasnorm_wordpool_576.txt	LTP123	ltpFR2	21	2	APPLE	33	n/a	n/a	0	0	0
385540	REC_WORD	wordpools/wasnorm_wordpool_576.txt	LTP123	ltpFR2	21	2	SCULPTURE	1258	n/a	n/a	0	0	0
390462	REC_WORD	wordpools/wasnorm_wordpool_576.txt	LTP123	ltpFR2	21	2	HOSTESS	723	n/a	n/a	0	0	0
391668	REC_WORD	wordpools/wasnorm_wordpool_576.txt	LTP123	ltpFR2	21	2	WAITER	1580	n/a	n/a	0	0	0
395449	REC_WORD	wordpools/wasnorm_wordpool_576.txt	LTP123	ltpFR2	21	2	COFFEE	341	n/a	n/a	0	0	0
413853	REC_WORD	wordpools/wasnorm_wordpool_576.txt	LTP123	ltpFR2	21	2	EMPIRE	530	n/a	n/a	0	0	0
466375	WORD	wordpools/wasnorm_wordpool_576.txt	LTP123	ltpFR2	21	3	STAPLE	1371	n/a	n/a	0	0	0
468926	WORD	wordpools/wasnorm_wordpool_576.txt	LTP123	ltpFR2	21	3	ITEM	746	n/a	n/a	0	0	0
471411	WORD	wordpools/wasnorm_wordpool_576.txt	LTP123	ltpFR2	21	3	BOARD	143	n/a	n/a	0	0	0
473913	WORD	wordpools/wasnorm_wordpool_576.txt	LTP123	ltpFR2	21	3	ICEBERG	731	n/a	n/a	0	0	0
476565	WORD	wordpools/wasnorm_wordpool_576.txt	LTP123	ltpFR2	21	3	BULLET	194	n/a	n/a	0	0	0
479135	WORD	wordpools/wasnorm_wordpool_576.txt	LTP123	ltpFR2	21	3	BLACKBOARD	133	n/a	n/a	0	0	0
481669	WORD	wordpools/wasnorm_wordpool_576.txt	LTP123	ltpFR2	21	3	RIFLE	1192	n/a	n/a	0	0	0
484222	WORD	wordpools/wasnorm_wordpool_576.txt	LTP123	ltpFR2	21	3	LASER	801	n/a	n/a	0	0	0
486723	WORD	wordpools/wasnorm_wordpool_576.txt	LTP123	ltpFR2	21	3	SALT	1229	n/a	n/a	0	0	0
489309	WORD	wordpools/wasnorm_wordpool_576.txt	LTP123	ltpFR2	21	3	SISTER	1312	n/a	n/a	0	0	0
491960	WORD	wordpools/wasnorm_wordpool_576.txt	LTP123	ltpFR2	21	3	BRICK	172	n/a	n/a	0	0	0
494779	WORD	wordpools/wasnorm_wordpool_576.txt	LTP123	ltpFR2	21	3	PLASTER	1085	n/a	n/a	0	0	0
497232	WORD	wordpools/wasnorm_wordpool_576.txt	LTP123	ltpFR2	21	3	TURNIP	1521	n/a	n/a	0	0	0
499801	WORD	wordpools/wasnorm_wordpool_576.txt	LTP123	ltpFR2	21	3	PIGMENT	1066	n/a	n/a	0	0	0
502447	WORD	wordpools/wasnorm_wordpool_576.txt	LTP123	ltpFR2	21	3	PISTOL	1075	n/a	n/a	0	0	0
505239	WORD	wordpools/wasnorm_wordpool_576.txt	LTP123	ltpFR2	21	3	COCKTAIL	338	n/a	n/a	0	0	0
507740	WORD	wordpools/wasnorm_wordpool_576.txt	LTP123	ltpFR2	21	3	PILOT	1070	n/a	n/a	0	0	0
510459	WORD	wordpools/wasnorm_wordpool_576.txt	LTP123	ltpFR2	21	3	LEADER	807	n/a	n/a	0	0	0
513212	WORD	wordpools/wasnorm_wordpool_576.txt	LTP123	ltpFR2	21	3	GIFT	635	n/a	n/a	0	0	0
515946	WORD	wordpools/wasnorm_wordpool_576.txt	LTP123	ltpFR2	21	3	SERVANT	1271	n/a	n/a	0	0	0
518531	WORD	wordpools/wasnorm_wordpool_576.txt	LTP123	ltpFR2	21	3	COUSIN	392	n/a	n/a	0	0	0
521335	WORD	wordpools/wasnorm_wordpool_576.txt	LTP123	ltpFR2	21	3	FRAGRANCE	599	n/a	n/a	0	0	0
523952	WORD	wordpools/wasnorm_wordpool_576.txt	LTP123	ltpFR2	21	3	PERFUME	1049	n/a	n/a	0	0	0
526672	WORD	wordpools/wasnorm_wordpool_576.txt	LTP123	ltpFR2	21	3	CHILD	299	n/a	n/a	0	0	0
528291	START	n/a	LTP123	ltpFR2	21	n/a	n/a	n/a	5	n/a	n/a	n/a	n/a
529319	DISTRACTOR	n/a	LTP123	ltpFR2	21	3	n/a	n/a	n/a	n/a	0	0	0
529342	PROB	n/a	LTP123	ltpFR2	21	n/a	n/a	n/a	5	13	5	1	7
531752	PROB	n/a	LTP123	ltpFR2	21	n/a	n/a	n/a	5	19	4	7	8
533360	PROB	n/a	LTP123	ltpFR2	21	n/a	n/a	n/a	5	20	7	6	7
535196	PROB	n/a	LTP123	ltpFR2	21	n/a	n/a	n/a	5	12	7	4	1
536613	PROB	n/a	LTP123	ltpFR2	21	n/a	n/a	n/a	5	13	1	9	3
537813	PROB	n/a	LTP123	ltpFR2	21	n/a	n/a	n/a	5	11	1	4	6
539048	PROB	n/a	LTP123	ltpFR2	21	n/a	n/a	n/a	5	15	6	5	4
540789	PROB	n/a	LTP123	ltpFR2	21	n/a	n/a	n/a	5	17	6	7	4
542235	PROB	n/a	LTP123	ltpFR2	21	n/a	n/a	n/a	5	10	6	3	1
543785	PROB	n/a	LTP123	ltpFR2	21	n/a	n/a	n/a	5	20	3	9	8
545786	PROB	n/a	LTP123	ltpFR2	21	n/a	n/a	n/a	5	10	2	6	2
547239	PROB	n/a	LTP123	ltpFR2	21	n/a	n/a	n/a	5	14	9	3	2
549379	PROB	n/a	LTP123	ltpFR2	21	n/a	n/a	n/a	5	14	2	3	9
550971	STOP	n/a	LTP123	ltpFR2	21	n/a	n/a	n/a	5	n/a	n/a	n/a	n/a
554262	REC_START	n/a	LTP123	ltpFR2	21	3	n/a	n/a	n/a	n/a	0	0	0
554688	REC_WORD	wordpools/wasnorm_wordpool_576.txt	LTP123	ltpFR2	21	3	SISTER	1312	n/a	n/a	0	0	0
555222	REC_WORD	wordpools/wasnorm_wordpool_576.txt	LTP123	ltpFR2	21	3	COUSIN	392	n/a	n/a	0	0	0
555741	REC_WORD	wordpools/wasnorm_wordpool_576.txt	LTP123	ltpFR2	21	3	CHILD	299	n/a	n/a	0	0	0
556326	REC_WORD	wordpools/wasnorm_wordpool_576.txt	LTP123	ltpFR2	21	3	PERFUME	1049	n/a	n/a	0	0	0
557071	REC_WORD	wordpools/wasnorm_wordpool_576.txt	LTP123	ltpFR2	21	3	FRAGRANCE	599	n/a	n/a	0	0	0
558022	REC_WORD	wordpools/wasnorm_wordpool_576.txt	LTP123	ltpFR2	21	3	PILOT	1070	n/a	n/a	0	0	0
558906	REC_WORD	wordpools/wasnorm_wordpool_576.txt	LTP123	ltpFR2	21	3	SERVANT	1271	n/a	n/a	0	0	0
563108	REC_WORD	wordpools/wasnorm_wordpool_576.txt	LTP123	ltpFR2	21	3	PISTOL	1075	n/a	n/a	0	0	0
563789	REC_WORD	wordpools/wasnorm_wordpool_576.txt	LTP123	ltpFR2	21	3	RIFLE	1192	n/a	n/a	0	0	0
564393	REC_WORD	wordpools/wasnorm_wordpool_576.txt	LTP123	ltpFR2	21	3	LASER	801	n/a	n/a	0	0	0
565062	REC_WORD	wordpools/wasnorm_wordpool_576.txt	LTP123	ltpFR2	21	3	BULLET	194	n/a	n/a	0	0	0
583803	REC_WORD	wordpools/wasnorm_wordpool_576.txt	LTP123	ltpFR2	21	3	SALT	1229	n/a	n/a	0	0	0
588187	REC_WORD	wordpools/wasnorm_wordpool_576.txt	LTP123	ltpFR2	21	3	BOARD	143	n/a	n/a	0	0	0
588842	REC_WORD	wordpools/wasnorm_wordpool_576.txt	LTP123	ltpFR2	21	3	BLACKBOARD	133	n/a	n/a	0	0	0
589608	REC_WORD	wordpools/wasnorm_wordpool_576.txt	LTP123	ltpFR2	21	3	STAPLE	1371	n/a	n/a	0	0	0
590530	REC_WORD	wordpools/wasnorm_wordpool_576.txt	LTP123	ltpFR2	21	3	ITEM	746	n/a	n/a	0	0	0
593778	REC_WORD	wordpools/wasnorm_wordpool_576.txt	LTP123	ltpFR2	21	3	PLASTER	1085	n/a	n/a	0	0	0
596404	REC_WORD	wordpools/wasnorm_wordpool_576.txt	LTP123	ltpFR2	21	3	BRICK	172	n/a	n/a	0	0	0
644984	WORD	wordpools/wasnorm_wordpool_576.txt	LTP123	ltpFR2	21	4	FRIEND	606	n/a	n/a	0	0	0
647786	WORD	wordpools/wasnorm_wordpool_576.txt	LTP123	ltpFR2	21	4	CABBAGE	210	n/a	n/a	0	0	0
650321	WORD	wordpools/wasnorm_wordpool_576.txt	LTP123	ltpFR2	21	4	CONTRACT	368	n/a	n/a	0	0	0
652989	WORD	wordpools/wasnorm_wordpool_576.txt	LTP123	ltpFR2	21	4	NECKLACE	940	n/a	n/a	0	0	0
655825	WORD	wordpools/wasnorm_wordpool_576.txt	LTP123	ltpFR2	21	4	MARINE	869	n/a	n/a	0	0	0
658472	WORD	wordpools/wasnorm_wordpool_576.txt	LTP123	ltpFR2	21	4	PACKAGE	997	n/a	n/a	0	0	0
660946	WORD	wordpools/wasnorm_wordpool_576.txt	LTP123	ltpFR2	21	4	STAMP	1370	n/a	n/a	0	0	0
663565	WORD	wordpools/wasnorm_wordpool_576.txt	LTP123	ltpFR2	21	4	PIANO	1057	n/a	n/a	0	0	0
666034	WORD	wordpools/wasnorm_wordpool_576.txt	LTP123	ltpFR2	21	4	FLUTE	585	n/a	n/a	0	0	0
668619	WORD	wordpools/wasnorm_wordpool_576.txt	LTP123	ltpFR2	21	4	WAGON	1578	n/a	n/a	0	0	0
671273	WORD	wordpools/wasnorm_wordpool_576.txt	LTP123	ltpFR2	21	4	JELLY	755	n/a	n/a	0	0	0
673917	WORD	wordpools/wasnorm_wordpool_576.txt	LTP123	ltpFR2	21	4	STAKE	1368	n/a	n/a	0	0	0
676525	WORD	wordpools/wasnorm_wordpool_576.txt	LTP123	ltpFR2	21	4	QUEEN	1149	n/a	n/a	0	0	0
679061	WORD	wordpools/wasnorm_wordpool_576.txt	LTP123	ltpFR2	21	4	DIME	466	n/a	n/a	0	0	0
681880	WORD	wordpools/wasnorm_wordpool_576.txt	LTP123	ltpFR2	21	4	PEBBLE	1035	n/a	n/a	0	0	0
684366	WORD	wordpools/wasnorm_wordpool_576.txt	LTP123	ltpFR2	21	4	PEDAL	1037	n/a	n/a	0	0	0
687168	WORD	wordpools/wasnorm_wordpool_576.txt	LTP123	ltpFR2	21	4	TURKEY	1520	n/a	n/a	0	0	0
689752	WORD	wordpools/wasnorm_wordpool_576.txt	LTP123	ltpFR2	21	4	LACE	792	n/a	n/a	0	0	0
692322	WORD	wordpools/wasnorm_wordpool_576.txt	LTP123	ltpFR2	21	4	LOVER	846	n/a	n/a	0	0	0
695157	WORD	wordpools/wasnorm_wordpool_576.txt	LTP123	ltpFR2	21	4	WORKER	1621	n/a	n/a	0	0	0
697742	WORD	wordpools/wasnorm_wordpool_576.txt	LTP123	ltpFR2	21	4	INFANT	737	n/a	n/a	0	0	0
700212	WORD	wordpools/wasnorm_wordpool_576.txt	LTP123	ltpFR2	21	4	BUGGY	188	n/a	n/a	0	0	0
702680	WORD	wordpools/wasnorm_wordpool_576.txt	LTP123	ltpFR2	21	4	EXPERT	543	n/a	n/a	0	0	0
705167	WORD	wordpools/wasnorm_wordpool_576.txt	LTP123	ltpFR2	21	4	SKIRT	1319	n/a	n/a	0	0	0
706801	START	n/a	LTP123	ltpFR2	21	n/a	n/a	n/a	6	n/a	n/a	n/a	n/a
707818	DISTRACTOR	n/a	LTP123	ltpFR2	21	4	n/a	n/a	n/a	n/a	0	0	0
707850	PROB	n/a	LTP123	ltpFR2	21	n/a	n/a	n/a	6	15	1	8	6
709869	PROB	n/a	LTP123	ltpFR2	21	n/a	n/a	n/a	6	18	4	8	6
711569	PROB	n/a	LTP123	ltpFR2	21	n/a	n/a	n/a	6	9	1	7	1
713138	PROB	n/a	LTP123	ltpFR2	21	n/a	n/a	n/a	6	9	3	5	1
714499	PROB	n/a	LTP123	ltpFR2	21	n/a	n/a	n/a	6	24	7	9	8
717841	PROB	n/a	LTP123	ltpFR2	21	n/a	n/a	n/a	6	16	5	4	7
719676	PROB	n/a	LTP123	ltpFR2	21	n/a	n/a	n/a	6	20	2	9	9
721488	PROB	n/a	LTP123	ltpFR2	21	n/a	n/a	n/a	6	22	8	9	5
723840	PROB	n/a	LTP123	ltpFR2	21	n/a	n/a	n/a	6	18	6	8	4
725198	PROB	n/a	LTP123	ltpFR2	21	n/a	n/a	n/a	6	8	2	2	4
726798	PROB	n/a	LTP123	ltpFR2	21	n/a	n/a	n/a	6	18	4	7	9
729690	STOP	n/a	LTP123	ltpFR2	21	n/a	n/a	n/a	6	n/a	n/a	n/a	n/a
732767	REC_START	n/a	LTP123	ltpFR2	21	4	n/a	n/a	n/a	n/a	0	0	0
734178	REC_WORD	wordpools/wasnorm_wordpool_576.txt	LTP123	ltpFR2	21	4	EXPERT	543	n/a	n/a	0	0	0
734832	REC_WORD	wordpools/wasnorm_wordpool_576.txt	LTP123	ltpFR2	21	4	WORKER	1621	n/a	n/a	0	0	0
735475	REC_WORD	wordpools/wasnorm_wordpool_576.txt	LTP123	ltpFR2	21	4	QUEEN	1149	n/a	n/a	0	0	0
737119	REC_WORD	wordpools/wasnorm_wordpool_576.txt	LTP123	ltpFR2	21	4	FRIEND	606	n/a	n/a	0	0	0
737922	REC_WORD	wordpools/wasnorm_wordpool_576.txt	LTP123	ltpFR2	21	4	INFANT	737	n/a	n/a	0	0	0
738788	REC_WORD	wordpools/wasnorm_wordpool_576.txt	LTP123	ltpFR2	21	4	BUGGY	188	n/a	n/a	0	0	0
739222	REC_WORD	wordpools/wasnorm_wordpool_576.txt	LTP123	ltpFR2	21	4	CARRIAGE	248	n/a	n/a	0	0	0
745414	REC_WORD	wordpools/wasnorm_wordpool_576.txt	LTP123	ltpFR2	21	4	NECKLACE	940	n/a	n/a	0	0	0
747624	REC_WORD	wordpools/wasnorm_wordpool_576.txt	LTP123	ltpFR2	21	4	MARINE	869	n/a	n/a	0	0	0
748312	REC_WORD	wordpools/wasnorm_wordpool_576.txt	LTP123	ltpFR2	21	4	PEBBLE	1035	n/a	n/a	0	0	0
756288	REC_WORD	wordpools/wasnorm_wordpool_576.txt	LTP123	ltpFR2	21	4	LACE	792	n/a	n/a	0	0	0
757638	REC_WORD	wordpools/wasnorm_wordpool_576.txt	LTP123	ltpFR2	21	4	SKIRT	1319	n/a	n/a	0	0	0
759190	REC_WORD	wordpools/wasnorm_wordpool_576.txt	LTP123	ltpFR2	21	4	LOVER	846	n/a	n/a	0	0	0
774658	REC_WORD	wordpools/wasnorm_wordpool_576.txt	LTP123	ltpFR2	21	4	MARINE	869	n/a	n/a	0	0	0
785950	REC_WORD	wordpools/wasnorm_wordpool_576.txt	LTP123	ltpFR2	21	4	CABBAGE	210	n/a	n/a	0	0	0
798709	REC_WORD	wordpools/wasnorm_wordpool_576.txt	LTP123	ltpFR2	21	4	CONTRACT	368	n/a	n/a	0	0	0
807159	REC_WORD	wordpools/wasnorm_wordpool_576.txt	LTP123	ltpFR2	21	4	JELLY	755	n/a	n/a	0	0	0
823461	DISTRACTOR	n/a	LTP123	ltpFR2	21	5	n/a	n/a	n/a	n/a	0	0	0
823461	START	n/a	LTP123	ltpFR2	21	n/a	n/a	n/a	7	n/a	n/a	n/a	n/a
823509	PROB	n/a	LTP123	ltpFR2	21	n/a	n/a	n/a	7	19	2	9	8
825444	PROB	n/a	LTP123	ltpFR2	21	n/a	n/a	n/a	7	11	3	3	5
827296	PROB	n/a	LTP123	ltpFR2	21	n/a	n/a	n/a	7	12	1	4	7
828780	PROB	n/a	LTP123	ltpFR2	21	n/a	n/a	n/a	7	13	7	2	4
831882	PROB	n/a	LTP123	ltpFR2	21	n/a	n/a	n/a	7	17	5	7	5
833236	PROB	n/a	LTP123	ltpFR2	21	n/a	n/a	n/a	7	11	3	2	6
835569	PROB	n/a	LTP123	ltpFR2	21	n/a	n/a	n/a	7	14	2	4	8
837588	PROB	n/a	LTP123	ltpFR2	21	n/a	n/a	n/a	7	22	6	8	8
839373	PROB	n/a	LTP123	ltpFR2	21	n/a	n/a	n/a	7	6	1	3	2
840889	PROB	n/a	LTP123	ltpFR2	21	n/a	n/a	n/a	7	25	8	8	9
843536	PROB	n/a	LTP123	ltpFR2	21	n/a	n/a	n/a	7	9	2	1	6
845244	PROB	n/a	LTP123	ltpFR2	21	n/a	n/a	n/a	7	10	5	3	2
846574	STOP	n/a	LTP123	ltpFR2	21	n/a	n/a	n/a	7	n/a	n/a	n/a	n/a
848330	WORD	wordpools/wasnorm_wordpool_576.txt	LTP123	ltpFR2	21	5	LADDER	793	n/a	n/a	0	0	0
850976	WORD	wordpools/wasnorm_wordpool_576.txt	LTP123	ltpFR2	21	5	STREAM	1392	n/a	n/a	0	0	0
853501	WORD	wordpools/wasnorm_wordpool_576.txt	LTP123	ltpFR2	21	5	SIDEWALK	1303	n/a	n/a	0	0	0
856187	WORD	wordpools/wasnorm_wordpool_576.txt	LTP123	ltpFR2	21	5	BANK	83	n/a	n/a	0	0	0
858955	WORD	wordpools/wasnorm_wordpool_576.txt	LTP123	ltpFR2	21	5	BURGLAR	200	n/a	n/a	0	0	0
861657	WORD	wordpools/wasnorm_wordpool_576.txt	LTP123	ltpFR2	21	5	JELLO	754	n/a	n/a	0	0	0
864392	WORD	wordpools/wasnorm_wordpool_576.txt	LTP123	ltpFR2	21	5	TEACHER	1440	n/a	n/a	0	0	0
867095	WORD	wordpools/wasnorm_wordpool_576.txt	LTP123	ltpFR2	21	5	PRINCE	1124	n/a	n/a	0	0	0
869880	WORD	wordpools/wasnorm_wordpool_576.txt	LTP123	ltpFR2	21	5	COOK	372	n/a	n/a	0	0	0
872716	WORD	wordpools/wasnorm_wordpool_576.txt	LTP123	ltpFR2	21	5	THIEF	1456	n/a	n/a	0	0	0
875370	WORD	wordpools/wasnorm_wordpool_576.txt	LTP123	ltpFR2	21	5	NEUTRON	947	n/a	n/a	0	0	0
878155	WORD	wordpools/wasnorm_wordpool_576.txt	LTP123	ltpFR2	21	5	BATHTUB	100	n/a	n/a	0	0	0
880939	WORD	wordpools/wasnorm_wordpool_576.txt	LTP123	ltpFR2	21	5	RIVER	1194	n/a	n/a	0	0	0
883508	WORD	wordpools/wasnorm_wordpool_576.txt	LTP123	ltpFR2	21	5	ROBBER	1197	n/a	n/a	0	0	0
886079	WORD	wordpools/wasnorm_wordpool_576.txt	LTP123	ltpFR2	21	5	STICKER	1382	n/a	n/a	0	0	0
888662	WORD	wordpools/wasnorm_wordpool_576.txt	LTP123	ltpFR2	21	5	VAGRANT	1544	n/a	n/a	0	0	0
891348	WORD	wordpools/wasnorm_wordpool_576.txt	LTP123	ltpFR2	21	5	RUG	1215	n/a	n/a	0	0	0
893850	WORD	wordpools/wasnorm_wordpool_576.txt	LTP123	ltpFR2	21	5	TILE	1468	n/a	n/a	0	0	0
896496	WORD	wordpools/wasnorm_wordpool_576.txt	LTP123	ltpFR2	21	5	ICING	732	n/a	n/a	0	0	0
899255	WORD	wordpools/wasnorm_wordpool_576.txt	LTP123	ltpFR2	21	5	VALLEY	1545	n/a	n/a	0	0	0
901806	WORD	wordpools/wasnorm_wordpool_576.txt	LTP123	ltpFR2	21	5	COIN	343	n/a	n/a	0	0	0
904624	WORD	wordpools/wasnorm_wordpool_576.txt	LTP123	ltpFR2	21	5	SUPPER	1411	n/a	n/a	0	0	0
907161	WORD	wordpools/wasnorm_wordpool_576.txt	LTP123	ltpFR2	21	5	SHOVEL	1295	n/a	n/a	0	0	0
909762	WORD	wordpools/wasnorm_wordpool_576.txt	LTP123	ltpFR2	21	5	GHETTO	633	n/a	n/a	0	0	0
911383	START	n/a	LTP123	ltpFR2	21	n/a	n/a	n/a	8	n/a	n/a	n/a	n/a
912583	DISTRACTOR	n/a	LTP123	ltpFR2	21	5	n/a	n/a	n/a	n/a	0	0	0
912615	PROB	n/a	LTP123	ltpFR2	21	n/a	n/a	n/a	8	10	5	1	4
914882	PROB	n/a	LTP123	ltpFR2	21	n/a	n/a	n/a	8	15	5	7	3
916801	PROB	n/a	LTP123	ltpFR2	21	n/a	n/a	n/a	8	23	6	9	8
919354	PROB	n/a	LTP123	ltpFR2	21	n/a	n/a	n/a	8	8	2	1	5
921222	PROB	n/a	LTP123	ltpFR2	21	n/a	n/a	n/a	8	6	2	3	1
922522	PROB	n/a	LTP123	ltpFR2	21	n/a	n/a	n/a	8	20	9	7	4
924574	PROB	n/a	LTP123	ltpFR2	21	n/a	n/a	n/a	8	13	1	5	7
926465	PROB	n/a	LTP123	ltpFR2	21	n/a	n/a	n/a	8	17	2	8	7
927843	PROB	n/a	LTP123	ltpFR2	21	n/a	n/a	n/a	8	14	3	9	2
929644	PROB	n/a	LTP123	ltpFR2	21	n/a	n/a	n/a	8	13	6	6	1
931146	PROB	n/a	LTP123	ltpFR2	21	n/a	n/a	n/a	8	16	4	9	3
932964	PROB	n/a	LTP123	ltpFR2	21	n/a	n/a	n/a	8	13	5	5	3
934171	STOP	n/a	LTP123	ltpFR2	21	n/a	n/a	n/a	8	n/a	n/a	n/a	n/a
937236	REC_START	n/a	LTP123	ltpFR2	21	5	n/a	n/a	n/a	n/a	0	0	0
938229	REC_WORD	wordpools/wasnorm_wordpool_576.txt	LTP123	ltpFR2	21	5	VALLEY	1545	n/a	n/a	0	0	0
938879	REC_WORD	wordpools/wasnorm_wordpool_576.txt	LTP123	ltpFR2	21	5	SUPPER	1411	n/a	n/a	0	0	0
939891	REC_WORD	wordpools/wasnorm_wordpool_576.txt	LTP123	ltpFR2	21	5	STREAM	1392	n/a	n/a	0	0	0
940836	REC_WORD	wordpools/wasnorm_wordpool_576.txt	LTP123	ltpFR2	21	5	RIVER	1194	n/a	n/a	0	0	0
942078	REC_WORD	wordpools/wasnorm_wordpool_576.txt	LTP123	ltpFR2	21	5	LADDER	793	n/a	n/a	0	0	0
943200	REC_WORD	wordpools/wasnorm_wordpool_576.txt	LTP123	ltpFR2	21	5	BANKER	84	n/a	n/a	0	0	0
943724	REC_WORD	wordpools/wasnorm_wordpool_576.txt	LTP123	ltpFR2	21	5	COIN	343	n/a	n/a	0	0	0
945278	REC_WORD	wordpools/wasnorm_wordpool_576.txt	LTP123	ltpFR2	21	5	VAGRANT	1544	n/a	n/a	0	0	0
945817	REC_WORD	wordpools/wasnorm_wordpool_576.txt	LTP123	ltpFR2	21	5	ROBBER	1197	n/a	n/a	0	0	0
947628	REC_WORD	wordpools/wasnorm_wordpool_576.txt	LTP123	ltpFR2	21	5	THIEF	1456	n/a	n/a	0	0	0
948626	REC_WORD	wordpools/wasnorm_wordpool_576.txt	LTP123	ltpFR2	21	5	BURGLAR	200	n/a	n/a	0	0	0
949827	REC_WORD	wordpools/wasnorm_wordpool_576.txt	LTP123	ltpFR2	21	5	PRINCE	1124	n/a	n/a	0	0	0
962692	REC_WORD	wordpools/wasnorm_wordpool_576.txt	LTP123	ltpFR2	21	5	SIDEWALK	1303	n/a	n/a	0	0	0
1010468	REC_WORD	wordpools/wasnorm_wordpool_576.txt	LTP123	ltpFR2	21	5	RUG	1215	n/a	n/a	0	0	0
1011865	REC_WORD	wordpools/wasnorm_wordpool_576.txt	LTP123	ltpFR2	21	5	TILE	1468	n/a	n/a	0	0	0
1027925	DISTRACTOR	n/a	LTP123	ltpFR2	21	6	n/a	n/a	n/a	n/a	0	0	0
1027925	START	n/a	LTP123	ltpFR2	21	n/a	n/a	n/a	9	n/a	n/a	n/a	n/a
1027973	PROB	n/a	LTP123	ltpFR2	21	n/a	n/a	n/a	9	13	5	2	6
1029708	PROB	n/a	LTP123	ltpFR2	21	n/a	n/a	n/a	9	6	1	1	4
1030959	PROB	n/a	LTP123	ltpFR2	21	n/a	n/a	n/a	9	10	1	2	7
1032311	PROB	n/a	LTP123	ltpFR2	21	n/a	n/a	n/a	9	22	6	7	9
1034812	PROB	n/a	LTP123	ltpFR2	21	n/a	n/a	n/a	9	14	1	7	6
1037299	PROB	n/a	LTP123	ltpFR2	21	n/a	n/a	n/a	9	17	6	5	6
1039284	PROB	n/a	LTP123	ltpFR2	21	n/a	n/a	n/a	9	19	9	6	4
1040650	PROB	n/a	LTP123	ltpFR2	21	n/a	n/a	n/a	9	13	3	2	8
1042219	PROB	n/a	LTP123	ltpFR2	21	n/a	n/a	n/a	9	7	5	1	1
1043519	PROB	n/a	LTP123	ltpFR2	21	n/a	n/a	n/a	9	20	8	4	8
1046604	PROB	n/a	LTP123	ltpFR2	21	n/a	n/a	n/a	9	18	4	7	7
1048724	PROB	n/a	LTP123	ltpFR2	21	n/a	n/a	n/a	9	11	1	4	6
1050059	PROB	n/a	LTP123	ltpFR2	21	n/a	n/a	n/a	9	19	4	8	7
1051742	STOP	n/a	LTP123	ltpFR2	21	n/a	n/a	n/a	9	n/a	n/a	n/a	n/a
1052977	WORD	wordpools/wasnorm_wordpool_576.txt	LTP123	ltpFR2	21	6	LAGOON	795	n/a	n/a	0	0	0
1055513	WORD	wordpools/wasnorm_wordpool_576.txt	LTP123	ltpFR2	21	6	MEAT	883	n/a	n/a	0	0	0
1057998	WORD	wordpools/wasnorm_wordpool_576.txt	LTP123	ltpFR2	21	6	SCALLOP	1242	n/a	n/a	0	0	0
1060533	WORD	wordpools/wasnorm_wordpool_576.txt	LTP123	ltpFR2	21	6	STONE	1385	n/a	n/a	0	0	0
1063287	WORD	wordpools/wasnorm_wordpool_576.txt	LTP123	ltpFR2	21	6	PASTA	1021	n/a	n/a	0	0	0
1066139	WORD	wordpools/wasnorm_wordpool_576.txt	LTP123	ltpFR2	21	6	POISON	1096	n/a	n/a	0	0	0
1068783	WORD	wordpools/wasnorm_wordpool_576.txt	LTP123	ltpFR2	21	6	MARSH	874	n/a	n/a	0	0	0
1071326	WORD	wordpools/wasnorm_wordpool_576.txt	LTP123	ltpFR2	21	6	COMPASS	358	n/a	n/a	0	0	0
1074179	WORD	wordpools/wasnorm_wordpool_576.txt	LTP123	ltpFR2	21	6	THRONE	1461	n/a	n/a	0	0	0
1076847	WORD	wordpools/wasnorm_wordpool_576.txt	LTP123	ltpFR2	21	6	PRINCESS	1125	n/a	n/a	0	0	0
1079466	WORD	wordpools/wasnorm_wordpool_576.txt	LTP123	ltpFR2	21	6	SIBLING	1301	n/a	n/a	0	0	0
1082052	WORD	wordpools/wasnorm_wordpool_576.txt	LTP123	ltpFR2	21	6	CABIN	211	n/a	n/a	0	0	0
1084653	WORD	wordpools/wasnorm_wordpool_576.txt	LTP123	ltpFR2	21	6	ZEBRA	1635	n/a	n/a	0	0	0
1087389	WORD	wordpools/wasnorm_wordpool_576.txt	LTP123	ltpFR2	21	6	ANKLE	24	n/a	n/a	0	0	0
1089907	WORD	wordpools/wasnorm_wordpool_576.txt	LTP123	ltpFR2	21	6	BANKER	84	n/a	n/a	0	0	0
1092642	WORD	wordpools/wasnorm_wordpool_576.txt	LTP123	ltpFR2	21	6	ROBOT	1200	n/a	n/a	0	0	0
1095212	WORD	wordpools/wasnorm_wordpool_576.txt	LTP123	ltpFR2	21	6	HONEY	713	n/a	n/a	0	0	0
1097930	WORD	wordpools/wasnorm_wordpool_576.txt	LTP123	ltpFR2	21	6	FOOT	590	n/a	n/a	0	0	0
1100548	WORD	wordpools/wasnorm_wordpool_576.txt	LTP123	ltpFR2	21	6	GREASE	660	n/a	n/a	0	0	0
1103286	WORD	wordpools/wasnorm_wordpool_576.txt	LTP123	ltpFR2	21	6	BRANDY	169	n/a	n/a	0	0	0
1106020	WORD	wordpools/wasnorm_wordpool_576.txt	LTP123	ltpFR2	21	6	FARMER	553	n/a	n/a	0	0	0
1108689	WORD	wordpools/wasnorm_wordpool_576.txt	LTP123	ltpFR2	21	6	CHEMIST	292	n/a	n/a	0	0	0
1111541	WORD	wordpools/wasnorm_wordpool_576.txt	LTP123	ltpFR2	21	6	BEAKER	104	n/a	n/a	0	0	0
1114378	WORD	wordpools/wasnorm_wordpool_576.txt	LTP123	ltpFR2	21	6	WASHER	1592	n/a	n/a	0	0	0
1116012	START	n/a	LTP123	ltpFR2	21	n/a	n/a	n/a	10	n/a	n/a	n/a	n/a
1117124	DISTRACTOR	n/a	LTP123	ltpFR2	21	6	n/a	n/a	n/a	n/a	0	0	0
1117146	PROB	n/a	LTP123	ltpFR2	21	n/a	n/a	n/a	10	13	8	1	4
1119580	PROB	n/a	LTP123	ltpFR2	21	n/a	n/a	n/a	10	13	7	4	2
1121150	PROB	n/a	LTP123	ltpFR2	21	n/a	n/a	n/a	10	16	6	2	8
1122666	PROB	n/a	LTP123	ltpFR2	21	n/a	n/a	n/a	10	18	1	8	9
1124103	PROB	n/a	LTP123	ltpFR2	21	n/a	n/a	n/a	10	14	3	9	2
1126236	PROB	n/a	LTP123	ltpFR2	21	n/a	n/a	n/a	10	16	4	4	8
1127770	PROB	n/a	LTP123	ltpFR2	21	n/a	n/a	n/a	10	8	5	2	1
1129139	PROB	n/a	LTP123	ltpFR2	21	n/a	n/a	n/a	10	18	5	7	6
1132658	PROB	n/a	LTP123	ltpFR2	21	n/a	n/a	n/a	10	3	1	1	1
1133674	PROB	n/a	LTP123	ltpFR2	21	n/a	n/a	n/a	10	21	7	8	6
1136094	PROB	n/a	LTP123	ltpFR2	21	n/a	n/a	n/a	10	10	3	5	2
1140012	STOP	n/a	LTP123	ltpFR2	21	n/a	n/a	n/a	10	n/a	n/a	n/a	n/a
1141978	REC_START	n/a	LTP123	ltpFR2	21	6	n/a	n/a	n/a	n/a	0	0	0
1142113	REC_WORD	wordpools/wasnorm_wordpool_576.txt	LTP123	ltpFR2	21	6	BEAKER	104	n/a	n/a	0	0	0
1142577	REC_WORD	wordpools/wasnorm_wordpool_576.txt	LTP123	ltpFR2	21	6	CHEMIST	292	n/a	n/a	0	0	0
1143211	REC_WORD	wordpools/wasnorm_wordpool_576.txt	LTP123	ltpFR2	21	6	FARMER	553	n/a	n/a	0	0	0
1143760	REC_WORD	wordpools/wasnorm_wordpool_576.txt	LTP123	ltpFR2	21	6	HONEY	713	n/a	n/a	0	0	0
1145937	REC_WORD	wordpools/wasnorm_wordpool_576.txt	LTP123	ltpFR2	21	6	THRONE	1461	n/a	n/a	0	0	0
1148029	REC_WORD	wordpools/wasnorm_wordpool_576.txt	LTP123	ltpFR2	21	6	SIBLING	1301	n/a	n/a	0	0	0
1148964	REC_WORD	wordpools/wasnorm_wordpool_576.txt	LTP123	ltpFR2	21	6	PRINCESS	1125	n/a	n/a	0	0	0
1151621	REC_WORD	wordpools/wasnorm_wordpool_576.txt	LTP123	ltpFR2	21	6	COMPASS	358	n/a	n/a	0	0	0
1161310	REC_WORD	wordpools/wasnorm_wordpool_576.txt	LTP123	ltpFR2	21	6	ANKLE	24	n/a	n/a	0	0	0
1161689	REC_WORD	wordpools/wasnorm_wordpool_576.txt	LTP123	ltpFR2	21	6	FOOT	590	n/a	n/a	0	0	0
1163582	REC_WORD	wordpools/wasnorm_wordpool_576.txt	LTP123	ltpFR2	21	6	ZEBRA	1635	n/a	n/a	0	0	0
1184730	REC_WORD	wordpools/wasnorm_wordpool_576.txt	LTP123	ltpFR2	21	6	MARSH	874	n/a	n/a	0	0	0
1187403	REC_WORD	wordpools/wasnorm_wordpool_576.txt	LTP123	ltpFR2	21	6	LAGOON	795	n/a	n/a	0	0	0
1188822	REC_WORD	wordpools/wasnorm_wordpool_576.txt	LTP123	ltpFR2	21	6	MEAT	883	n/a	n/a	0	0	0
1192235	REC_WORD	wordpools/wasnorm_wordpool_576.txt	LTP123	ltpFR2	21	6	SCALLOP	1242	n/a	n/a	0	0	0
1201902	REC_WORD	wordpools/wasnorm_wordpool_576.txt	LTP123	ltpFR2	21	6	BRANDY	169	n/a	n/a	0	0	0
1215547	REC_WORD	wordpools/wasnorm_wordpool_576.txt	LTP123	ltpFR2	21	6	PASTA	1021	n/a	n/a	0	0	0
1232706	WORD	wordpools/wasnorm_wordpool_576.txt	LTP123	ltpFR2	21	7	JURY	766	n/a	n/a	0	0	0
1235225	WORD	wordpools/wasnorm_wordpool_576.txt	LTP123	ltpFR2	21	7	CAMEL	223	n/a	n/a	0	0	0
1237758	WORD	wordpools/wasnorm_wordpool_576.txt	LTP123	ltpFR2	21	7	UMPIRE	1535	n/a	n/a	0	0	0
1240295	WORD	wordpools/wasnorm_wordpool_576.txt	LTP123	ltpFR2	21	7	CATCHER	258	n/a	n/a	0	0	0
1243114	WORD	wordpools/wasnorm_wordpool_576.txt	LTP123	ltpFR2	21	7	SERVER	1272	n/a	n/a	0	0	0
1245882	WORD	wordpools/wasnorm_wordpool_576.txt	LTP123	ltpFR2	21	7	SUSPECT	1415	n/a	n/a	0	0	0
1248718	WORD	wordpools/wasnorm_wordpool_576.txt	LTP123	ltpFR2	21	7	DAUGHTER	442	n/a	n/a	0	0	0
1251204	WORD	wordpools/wasnorm_wordpool_576.txt	LTP123	ltpFR2	21	7	RECEIPT	1173	n/a	n/a	0	0	0
1253939	WORD	wordpools/wasnorm_wordpool_576.txt	LTP123	ltpFR2	21	7	SLUG	1329	n/a	n/a	0	0	0
1256457	WORD	wordpools/wasnorm_wordpool_576.txt	LTP123	ltpFR2	21	7	FIREPLACE	570	n/a	n/a	0	0	0
1258959	WORD	wordpools/wasnorm_wordpool_576.txt	LTP123	ltpFR2	21	7	PLAID	1080	n/a	n/a	0	0	0
1261411	WORD	wordpools/wasnorm_wordpool_576.txt	LTP123	ltpFR2	21	7	CHURCH	307	n/a	n/a	0	0	0
1263996	WORD	wordpools/wasnorm_wordpool_576.txt	LTP123	ltpFR2	21	7	IDOL	733	n/a	n/a	0	0	0
1266642	WORD	wordpools/wasnorm_wordpool_576.txt	LTP123	ltpFR2	21	7	SLIME	1327	n/a	n/a	0	0	0
1269301	WORD	wordpools/wasnorm_wordpool_576.txt	LTP123	ltpFR2	21	7	CLOUD	328	n/a	n/a	0	0	0
1271919	WORD	wordpools/wasnorm_wordpool_576.txt	LTP123	ltpFR2	21	7	ANTLER	29	n/a	n/a	0	0	0
1274372	WORD	wordpools/wasnorm_wordpool_576.txt	LTP123	ltpFR2	21	7	NOMAD	955	n/a	n/a	0	0	0
1277040	WORD	wordpools/wasnorm_wordpool_576.txt	LTP123	ltpFR2	21	7	SHORTS	1293	n/a	n/a	0	0	0
1279643	WORD	wordpools/wasnorm_wordpool_576.txt	LTP123	ltpFR2	21	7	MATTRESS	879	n/a	n/a	0	0	0
1282445	WORD	wordpools/wasnorm_wordpool_576.txt	LTP123	ltpFR2	21	7	DRUG	501	n/a	n/a	0	0	0
1285298	WORD	wordpools/wasnorm_wordpool_576.txt	LTP123	ltpFR2	21	7	CREVICE	405	n/a	n/a	0	0	0
1287916	WORD	wordpools/wasnorm_wordpool_576.txt	LTP123	ltpFR2	21	7	DINER	467	n/a	n/a	0	0	0
1290734	WORD	wordpools/wasnorm_wordpool_576.txt	LTP123	ltpFR2	21	7	JOURNAL	760	n/a	n/a	0	0	0
1293437	WORD	wordpools/wasnorm_wordpool_576.txt	LTP123	ltpFR2	21	7	SMOG	1330	n/a	n/a	0	0	0
1295058	START	n/a	LTP123	ltpFR2	21	n/a	n/a	n/a	11	n/a	n/a	n/a	n/a
1295879	DISTRACTOR	n/a	LTP123	ltpFR2	21	7	n/a	n/a	n/a	n/a	0	0	0
1295905	PROB	n/a	LTP123	ltpFR2	21	n/a	n/a	n/a	11	9	2	2	5
1299023	PROB	n/a	LTP123	ltpFR2	21	n/a	n/a	n/a	11	14	1	4	9
1301127	PROB	n/a	LTP123	ltpFR2	21	n/a	n/a	n/a	11	15	7	7	1
1302827	PROB	n/a	LTP123	ltpFR2	21	n/a	n/a	n/a	11	8	1	5	2
1304495	PROB	n/a	LTP123	ltpFR2	21	n/a	n/a	n/a	11	11	3	6	2
1306730	PROB	n/a	LTP123	ltpFR2	21	n/a	n/a	n/a	11	12	4	2	6
1308465	PROB	n/a	LTP123	ltpFR2	21	n/a	n/a	n/a	11	17	7	9	1
1309799	PROB	n/a	LTP123	ltpFR2	21	n/a	n/a	n/a	11	18	8	5	5
1311051	PROB	n/a	LTP123	ltpFR2	21	n/a	n/a	n/a	11	19	8	5	6
1312769	PROB	n/a	LTP123	ltpFR2	21	n/a	n/a	n/a	11	9	4	1	4
1314736	PROB	n/a	LTP123	ltpFR2	21	n/a	n/a	n/a	11	16	7	3	6
1315870	PROB	n/a	LTP123	ltpFR2	21	n/a	n/a	n/a	11	7	2	1	4
1317569	STOP	n/a	LTP123	ltpFR2	21	n/a	n/a	n/a	11	n/a	n/a	n/a	n/a
1320942	REC_START	n/a	LTP123	ltpFR2	21	7	n/a	n/a	n/a	n/a	0	0	0
1321577	REC_WORD	wordpools/wasnorm_wordpool_576.txt	LTP123	ltpFR2	21	7	CREVICE	405	n/a	n/a	0	0	0
1322709	REC_WORD	wordpools/wasnorm_wordpool_576.txt	LTP123	ltpFR2	21	7	FIREPLACE	570	n/a	n/a	0	0	0
1323553	REC_WORD	wordpools/wasnorm_wordpool_576.txt	LTP123	ltpFR2	21	7	PLAID	1080	n/a	n/a	0	0	0
1323986	REC_WORD	wordpools/wasnorm_wordpool_576.txt	LTP123	ltpFR2	21	7	SHORTS	1293	n/a	n/a	0	0	0
1325808	REC_WORD	wordpools/wasnorm_wordpool_576.txt	LTP123	ltpFR2	21	7	WITNESS	1618	n/a	n/a	0	0	0
1326620	REC_WORD	wordpools/wasnorm_wordpool_576.txt	LTP123	ltpFR2	21	7	IDOL	733	n/a	n/a	0	0	0
1327097	REC_WORD	wordpools/wasnorm_wordpool_576.txt	LTP123	ltpFR2	21	7	CHURCH	307	n/a	n/a	0	0	0
1328279	REC_WORD	wordpools/wasnorm_wordpool_576.txt	LTP123	ltpFR2	21	7	JURY	766	n/a	n/a	0	0	0
1330724	REC_WORD	wordpools/wasnorm_wordpool_576.txt	LTP123	ltpFR2	21	7	CLOUD	328	n/a	n/a	0	0	0
1331472	REC_WORD	wordpools/wasnorm_wordpool_576.txt	LTP123	ltpFR2	21	7	NOMAD	955	n/a	n/a	0	0	0
1347786	REC_WORD	wordpools/wasnorm_wordpool_576.txt	LTP123	ltpFR2	21	7	DAUGHTER	442	n/a	n/a	0	0	0
1366777	REC_WORD	wordpools/wasnorm_wordpool_576.txt	LTP123	ltpFR2	21	7	SLIME	1327	n/a	n/a	0	0	0
1368041	REC_WORD	wordpools/wasnorm_wordpool_576.txt	LTP123	ltpFR2	21	7	SLUG	1329	n/a	n/a	0	0	0
1374096	REC_WORD	wordpools/wasnorm_wordpool_576.txt	LTP123	ltpFR2	21	7	SUSPECT	1415	n/a	n/a	0	0	0
1379292	REC_WORD	wordpools/wasnorm_wordpool_576.txt	LTP123	ltpFR2	21	7	SERVER	1272	n/a	n/a	0	0	0
1411665	WORD	wordpools/wasnorm_wordpool_576.txt	LTP123	ltpFR2	21	8	DANDRUFF	439	n/a	n/a	0	0	0
1414351	WORD	wordpools/wasnorm_wordpool_576.txt	LTP123	ltpFR2	21	8	EYELASH	546	n/a	n/a	0	0	0
1417154	WORD	wordpools/wasnorm_wordpool_576.txt	LTP123	ltpFR2	21	8	HEART	697	n/a	n/a	0	0	0
1419655	WORD	wordpools/wasnorm_wordpool_576.txt	LTP123	ltpFR2	21	8	CRUTCH	417	n/a	n/a	0	0	0
1422407	WORD	wordpools/wasnorm_wordpool_576.txt	LTP123	ltpFR2	21	8	OUTLAW	989	n/a	n/a	0	0	0
1425109	WORD	wordpools/wasnorm_wordpool_576.txt	LTP123	ltpFR2	21	8	TOMBSTONE	1478	n/a	n/a	0	0	0
1427861	WORD	wordpools/wasnorm_wordpool_576.txt	LTP123	ltpFR2	21	8	SKILLET	1317	n/a	n/a	0	0	0
1430596	WORD	wordpools/wasnorm_wordpool_576.txt	LTP123	ltpFR2	21	8	CROSS	413	n/a	n/a	0	0	0
1433066	WORD	wordpools/wasnorm_wordpool_576.txt	LTP123	ltpFR2	21	8	CHAPEL	280	n/a	n/a	0	0	0
1435650	WORD	wordpools/wasnorm_wordpool_576.txt	LTP123	ltpFR2	21	8	CAPTIVE	240	n/a	n/a	0	0	0
1438187	WORD	wordpools/wasnorm_wordpool_576.txt	LTP123	ltpFR2	21	8	GYMNAST	675	n/a	n/a	0	0	0
1440722	WORD	wordpools/wasnorm_wordpool_576.txt	LTP123	ltpFR2	21	8	CANDY	230	n/a	n/a	0	0	0
1443241	WORD	wordpools/wasnorm_wordpool_576.txt	LTP123	ltpFR2	21	8	SKETCH	1315	n/a	n/a	0	0	0
1445886	WORD	wordpools/wasnorm_wordpool_576.txt	LTP123	ltpFR2	21	8	TRUCK	1512	n/a	n/a	0	0	0
1448427	WORD	wordpools/wasnorm_wordpool_576.txt	LTP123	ltpFR2	21	8	DENTIST	447	n/a	n/a	0	0	0
1451247	WORD	wordpools/wasnorm_wordpool_576.txt	LTP123	ltpFR2	21	8	NURSE	963	n/a	n/a	0	0	0
1453948	WORD	wordpools/wasnorm_wordpool_576.txt	LTP123	ltpFR2	21	8	NIGHTGOWN	953	n/a	n/a	0	0	0
1456567	WORD	wordpools/wasnorm_wordpool_576.txt	LTP123	ltpFR2	21	8	KNAPSACK	783	n/a	n/a	0	0	0
1459337	WORD	wordpools/wasnorm_wordpool_576.txt	LTP123	ltpFR2	21	8	SUITCASE	1403	n/a	n/a	0	0	0
1461871	WORD	wordpools/wasnorm_wordpool_576.txt	LTP123	ltpFR2	21	8	LILY	821	n/a	n/a	0	0	0
1464406	WORD	wordpools/wasnorm_wordpool_576.txt	LTP123	ltpFR2	21	8	MEDAL	885	n/a	n/a	0	0	0
1467160	WORD	wordpools/wasnorm_wordpool_576.txt	LTP123	ltpFR2	21	8	MATCH	878	n/a	n/a	0	0	0
1469845	WORD	wordpools/wasnorm_wordpool_576.txt	LTP123	ltpFR2	21	8	SCALPEL	1243	n/a	n/a	0	0	0
1472413	WORD	wordpools/wasnorm_wordpool_576.txt	LTP123	ltpFR2	21	8	STAR	1373	n/a	n/a	0	0	0
1474034	START	n/a	LTP123	ltpFR2	21	n/a	n/a	n/a	12	n/a	n/a	n/a	n/a
1475047	DISTRACTOR	n/a	LTP123	ltpFR2	21	8	n/a	n/a	n/a	n/a	0	0	0
1475067	PROB	n/a	LTP123	ltpFR2	21	n/a	n/a	n/a	12	16	7	2	7
1477584	PROB	n/a	LTP123	ltpFR2	21	n/a	n/a	n/a	12	17	5	4	8
1479204	PROB	n/a	LTP123	ltpFR2	21	n/a	n/a	n/a	12	21	5	7	9
1482372	PROB	n/a	LTP123	ltpFR2	21	n/a	n/a	n/a	12	19	7	8	4
1484106	PROB	n/a	LTP123	ltpFR2	21	n/a	n/a	n/a	12	13	9	2	2
1485958	PROB	n/a	LTP123	ltpFR2	21	n/a	n/a	n/a	12	13	5	4	4
1488055	PROB	n/a	LTP123	ltpFR2	21	n/a	n/a	n/a	12	16	9	2	5
1489927	PROB	n/a	LTP123	ltpFR2	21	n/a	n/a	n/a	12	15	1	9	5
1491329	PROB	n/a	LTP123	ltpFR2	21	n/a	n/a	n/a	12	17	1	9	7
1492662	PROB	n/a	LTP123	ltpFR2	21	n/a	n/a	n/a	12	14	3	3	8
1494548	PROB	n/a	LTP123	ltpFR2	21	n/a	n/a	n/a	12	14	4	2	8
1495998	PROB	n/a	LTP123	ltpFR2	21	n/a	n/a	n/a	12	16	6	3	7
1497816	STOP	n/a	LTP123	ltpFR2	21	n/a	n/a	n/a	12	n/a	n/a	n/a	n/a
1500054	REC_START	n/a	LTP123	ltpFR2	21	8	n/a	n/a	n/a	n/a	0	0	0
1500058	REC_WORD	wordpools/wasnorm_wordpool_576.txt	LTP123	ltpFR2	21	8	SCALPEL	1243	n/a	n/a	0	0	0
1500771	REC_WORD	wordpools/wasnorm_wordpool_576.txt	LTP123	ltpFR2	21	8	STAR	1373	n/a	n/a	0	0	0
1502597	REC_WORD	wordpools/wasnorm_wordpool_576.txt	LTP123	ltpFR2	21	8	TRUCK	1512	n/a	n/a	0	0	0
1503478	REC_WORD	wordpools/wasnorm_wordpool_576.txt	LTP123	ltpFR2	21	8	OUTLAW	989	n/a	n/a	0	0	0
1505891	REC_WORD	wordpools/wasnorm_wordpool_576.txt	LTP123	ltpFR2	21	8	NURSE	963	n/a	n/a	0	0	0
1506747	REC_WORD	wordpools/wasnorm_wordpool_576.txt	LTP123	ltpFR2	21	8	DENTIST	447	n/a	n/a	0	0	0
1512558	REC_WORD	wordpools/wasnorm_wordpool_576.txt	LTP123	ltpFR2	21	8	HEART	697	n/a	n/a	0	0	0
1513191	REC_WORD	wordpools/wasnorm_wordpool_576.txt	LTP123	ltpFR2	21	8	DANDRUFF	439	n/a	n/a	0	0	0
1514360	REC_WORD	wordpools/wasnorm_wordpool_576.txt	LTP123	ltpFR2	21	8	EYELASH	546	n/a	n/a	0	0	0
1514405	REC_WORD	wordpools/wasnorm_wordpool_576.txt	LTP123	ltpFR2	21	8	EYELASH	546	n/a	n/a	0	0	0
1515255	REC_WORD	wordpools/wasnorm_wordpool_576.txt	LTP123	ltpFR2	21	8	TOMBSTONE	1478	n/a	n/a	0	0	0
1516499	REC_WORD	wordpools/wasnorm_wordpool_576.txt	LTP123	ltpFR2	21	8	CRUTCH	417	n/a	n/a	0	0	0
1536126	REC_WORD	wordpools/wasnorm_wordpool_576.txt	LTP123	ltpFR2	21	8	NEUTRON	947	n/a	n/a	0	0	0
1557068	REC_WORD	wordpools/wasnorm_wordpool_576.txt	LTP123	ltpFR2	21	8	CHAPEL	280	n/a	n/a	0	0	0
1557685	REC_WORD	wordpools/wasnorm_wordpool_576.txt	LTP123	ltpFR2	21	8	CROSS	413	n/a	n/a	0	0	0
1576630	REST_REWET	n/a	LTP123	ltpFR2	21	8	n/a	n/a	n/a	n/a	0	0	0
1877756	WORD	wordpools/wasnorm_wordpool_576.txt	LTP123	ltpFR2	21	9	DRIVER	499	n/a	n/a	0	0	0
1880507	WORD	wordpools/wasnorm_wordpool_576.txt	LTP123	ltpFR2	21	9	VENUS	1557	n/a	n/a	0	0	0
1883294	WORD	wordpools/wasnorm_wordpool_576.txt	LTP123	ltpFR2	21	9	SANDWICH	1232	n/a	n/a	0	0	0
1885911	WORD	wordpools/wasnorm_wordpool_576.txt	LTP123	ltpFR2	21	9	BUREAU	199	n/a	n/a	0	0	0
1888564	WORD	wordpools/wasnorm_wordpool_576.txt	LTP123	ltpFR2	21	9	PADDING	999	n/a	n/a	0	0	0
1891211	WORD	wordpools/wasnorm_wordpool_576.txt	LTP123	ltpFR2	21	9	SPOUSE	1358	n/a	n/a	0	0	0
1894053	WORD	wordpools/wasnorm_wordpool_576.txt	LTP123	ltpFR2	21	9	POPCORN	1104	n/a	n/a	0	0	0
1896854	WORD	wordpools/wasnorm_wordpool_576.txt	LTP123	ltpFR2	21	9	BROTHER	179	n/a	n/a	0	0	0
1899324	WORD	wordpools/wasnorm_wordpool_576.txt	LTP123	ltpFR2	21	9	COUNTY	389	n/a	n/a	0	0	0
1901859	WORD	wordpools/wasnorm_wordpool_576.txt	LTP123	ltpFR2	21	9	GRAVEL	659	n/a	n/a	0	0	0
1904460	WORD	wordpools/wasnorm_wordpool_576.txt	LTP123	ltpFR2	21	9	SADDLE	1221	n/a	n/a	0	0	0
1907062	WORD	wordpools/wasnorm_wordpool_576.txt	LTP123	ltpFR2	21	9	BABY	64	n/a	n/a	0	0	0
1909731	WORD	wordpools/wasnorm_wordpool_576.txt	LTP123	ltpFR2	21	9	BANJO	82	n/a	n/a	0	0	0
1912184	WORD	wordpools/wasnorm_wordpool_576.txt	LTP123	ltpFR2	21	9	LOFT	840	n/a	n/a	0	0	0
1914801	WORD	wordpools/wasnorm_wordpool_576.txt	LTP123	ltpFR2	21	9	HORSE	719	n/a	n/a	0	0	0
1917620	WORD	wordpools/wasnorm_wordpool_576.txt	LTP123	ltpFR2	21	9	CASHEW	253	n/a	n/a	0	0	0
1920456	WORD	wordpools/wasnorm_wordpool_576.txt	LTP123	ltpFR2	21	9	AUTHOR	61	n/a	n/a	0	0	0
1923076	WORD	wordpools/wasnorm_wordpool_576.txt	LTP123	ltpFR2	21	9	POET	1095	n/a	n/a	0	0	0
1925560	WORD	wordpools/wasnorm_wordpool_576.txt	LTP123	ltpFR2	21	9	TREAT	1501	n/a	n/a	0	0	0
1928380	WORD	wordpools/wasnorm_wordpool_576.txt	LTP123	ltpFR2	21	9	FEMALE	559	n/a	n/a	0	0	0
1931031	WORD	wordpools/wasnorm_wordpool_576.txt	LTP123	ltpFR2	21	9	BOYFRIEND	162	n/a	n/a	0	0	0
1933517	WORD	wordpools/wasnorm_wordpool_576.txt	LTP123	ltpFR2	21	9	NOTEBOOK	959	n/a	n/a	0	0	0
1936236	WORD	wordpools/wasnorm_wordpool_576.txt	LTP123	ltpFR2	21	9	BIKE	125	n/a	n/a	0	0	0
1939088	WORD	wordpools/wasnorm_wordpool_576.txt	LTP123	ltpFR2	21	9	HELMET	702	n/a	n/a	0	0	0
1940724	START	n/a	LTP123	ltpFR2	21	n/a	n/a	n/a	13	n/a	n/a	n/a	n/a
1941529	DISTRACTOR	n/a	LTP123	ltpFR2	21	9	n/a	n/a	n/a	n/a	0	0	0
1941556	PROB	n/a	LTP123	ltpFR2	21	n/a	n/a	n/a	13	21	7	5	9
1946143	PROB	n/a	LTP123	ltpFR2	21	n/a	n/a	n/a	13	14	9	1	4
1947745	PROB	n/a	LTP123	ltpFR2	21	n/a	n/a	n/a	13	14	9	4	1
1949179	PROB	n/a	LTP123	ltpFR2	21	n/a	n/a	n/a	13	25	9	8	8
1951414	PROB	n/a	LTP123	ltpFR2	21	n/a	n/a	n/a	13	11	4	6	1
1952998	PROB	n/a	LTP123	ltpFR2	21	n/a	n/a	n/a	13	14	2	5	7
1954649	PROB	n/a	LTP123	ltpFR2	21	n/a	n/a	n/a	13	21	9	6	6
1956735	PROB	n/a	LTP123	ltpFR2	21	n/a	n/a	n/a	13	7	5	1	1
1958204	PROB	n/a	LTP123	ltpFR2	21	n/a	n/a	n/a	13	10	2	5	3
1960082	PROB	n/a	LTP123	ltpFR2	21	n/a	n/a	n/a	13	11	8	2	1
1961399	PROB	n/a	LTP123	ltpFR2	21	n/a	n/a	n/a	13	11	2	8	1
1962589	PROB	n/a	LTP123	ltpFR2	21	n/a	n/a	n/a	13	17	6	6	5
1964115	STOP	n/a	LTP123	ltpFR2	21	n/a	n/a	n/a	13	n/a	n/a	n/a	n/a
1966609	REC_START	n/a	LTP123	ltpFR2	21	9	n/a	n/a	n/a	n/a	0	0	0
1966874	REC_WORD	wordpools/wasnorm_wordpool_576.txt	LTP123	ltpFR2	21	9	BIKE	125	n/a	n/a	0	0	0
1967299	REC_WORD	wordpools/wasnorm_wordpool_576.txt	LTP123	ltpFR2	21	9	HELMET	702	n/a	n/a	0	0	0
1968102	REC_WORD	wordpools/wasnorm_wordpool_576.txt	LTP123	ltpFR2	21	9	HORSE	719	n/a	n/a	0	0	0
1968596	REC_WORD	wordpools/wasnorm_wordpool_576.txt	LTP123	ltpFR2	21	9	SADDLE	1221	n/a	n/a	0	0	0
1969964	REC_WORD	wordpools/wasnorm_wordpool_576.txt	LTP123	ltpFR2	21	9	SPOUSE	1358	n/a	n/a	0	0	0
1970869	REC_WORD	wordpools/wasnorm_wordpool_576.txt	LTP123	ltpFR2	21	9	BOYFRIEND	162	n/a	n/a	0	0	0
1971468	REC_WORD	wordpools/wasnorm_wordpool_576.txt	LTP123	ltpFR2	21	9	FEMALE	559	n/a	n/a	0	0	0
1972328	REC_WORD	wordpools/wasnorm_wordpool_576.txt	LTP123	ltpFR2	21	9	BROTHER	179	n/a	n/a	0	0	0
1972983	REC_WORD_VV	wordpools/wasnorm_wordpool_576.txt	LTP123	ltpFR2	21	9	<>	-1	n/a	n/a	0	0	0
1974003	REC_WORD	wordpools/wasnorm_wordpool_576.txt	LTP123	ltpFR2	21	9	BABY	64	n/a	n/a	0	0	0
1985319	REC_WORD	wordpools/wasnorm_wordpool_576.txt	LTP123	ltpFR2	21	9	BUREAU	199	n/a	n/a	0	0	0
1986911	REC_WORD	wordpools/wasnorm_wordpool_576.txt	LTP123	ltpFR2	21	9	COUNTY	389	n/a	n/a	0	0	0
1996420	REC_WORD	wordpools/wasnorm_wordpool_576.txt	LTP123	ltpFR2	21	9	NOTEBOOK	959	n/a	n/a	0	0	0
1996959	REC_WORD	wordpools/wasnorm_wordpool_576.txt	LTP123	ltpFR2	21	9	AUTHOR	61	n/a	n/a	0	0	0
1997411	REC_WORD	wordpools/wasnorm_wordpool_576.txt	LTP123	ltpFR2	21	9	POET	1095	n/a	n/a	0	0	0
2016999	REC_WORD	wordpools/wasnorm_wordpool_576.txt	LTP123	ltpFR2	21	9	TREAT	1501	n/a	n/a	0	0	0
2023091	REC_WORD	wordpools/wasnorm_wordpool_576.txt	LTP123	ltpFR2	21	9	DRIVER	499	n/a	n/a	0	0	0
2035053	REC_WORD	wordpools/wasnorm_wordpool_576.txt	LTP123	ltpFR2	21	9	VENUS	1557	n/a	n/a	0	0	0
2057317	WORD	wordpools/wasnorm_wordpool_576.txt	LTP123	ltpFR2	21	10	POSTAGE	1113	n/a	n/a	0	0	0
2060001	WORD	wordpools/wasnorm_wordpool_576.txt	LTP123	ltpFR2	21	10	TUBA	1515	n/a	n/a	0	0	0
2062789	WORD	wordpools/wasnorm_wordpool_576.txt	LTP123	ltpFR2	21	10	THREAD	1460	n/a	n/a	0	0	0
2065433	WORD	wordpools/wasnorm_wordpool_576.txt	LTP123	ltpFR2	21	10	MACHINE	852	n/a	n/a	0	0	0
2067940	WORD	wordpools/wasnorm_wordpool_576.txt	LTP123	ltpFR2	21	10	WRENCH	1625	n/a	n/a	0	0	0
2070527	WORD	wordpools/wasnorm_wordpool_576.txt	LTP123	ltpFR2	21	10	WORLD	1622	n/a	n/a	0	0	0
2072978	WORD	wordpools/wasnorm_wordpool_576.txt	LTP123	ltpFR2	21	10	GUITAR	670	n/a	n/a	0	0	0
2075530	WORD	wordpools/wasnorm_wordpool_576.txt	LTP123	ltpFR2	21	10	KNIFE	785	n/a	n/a	0	0	0
2078116	WORD	wordpools/wasnorm_wordpool_576.txt	LTP123	ltpFR2	21	10	BEEF	113	n/a	n/a	0	0	0
2080567	WORD	wordpools/wasnorm_wordpool_576.txt	LTP123	ltpFR2	21	10	MESSAGE	888	n/a	n/a	0	0	0
2083321	WORD	wordpools/wasnorm_wordpool_576.txt	LTP123	ltpFR2	21	10	PROTON	1132	n/a	n/a	0	0	0
2086089	WORD	wordpools/wasnorm_wordpool_576.txt	LTP123	ltpFR2	21	10	LIVER	833	n/a	n/a	0	0	0
2088574	WORD	wordpools/wasnorm_wordpool_576.txt	LTP123	ltpFR2	21	10	KIDNEY	776	n/a	n/a	0	0	0
2091060	WORD	wordpools/wasnorm_wordpool_576.txt	LTP123	ltpFR2	21	10	PLIERS	1089	n/a	n/a	0	0	0
2093778	WORD	wordpools/wasnorm_wordpool_576.txt	LTP123	ltpFR2	21	10	MASK	876	n/a	n/a	0	0	0
2096332	WORD	wordpools/wasnorm_wordpool_576.txt	LTP123	ltpFR2	21	10	ATLAS	53	n/a	n/a	0	0	0
2099000	WORD	wordpools/wasnorm_wordpool_576.txt	LTP123	ltpFR2	21	10	MUFFIN	929	n/a	n/a	0	0	0
2101735	WORD	wordpools/wasnorm_wordpool_576.txt	LTP123	ltpFR2	21	10	PANTHER	1009	n/a	n/a	0	0	0
2104237	WORD	wordpools/wasnorm_wordpool_576.txt	LTP123	ltpFR2	21	10	CUSTARD	429	n/a	n/a	0	0	0
2107005	WORD	wordpools/wasnorm_wordpool_576.txt	LTP123	ltpFR2	21	10	TROMBONE	1508	n/a	n/a	0	0	0
2109624	WORD	wordpools/wasnorm_wordpool_576.txt	LTP123	ltpFR2	21	10	FLIPPER	580	n/a	n/a	0	0	0
2112311	WORD	wordpools/wasnorm_wordpool_576.txt	LTP123	ltpFR2	21	10	SEAL	1262	n/a	n/a	0	0	0
2114912	WORD	wordpools/wasnorm_wordpool_576.txt	LTP123	ltpFR2	21	10	SCISSORS	1250	n/a	n/a	0	0	0
2117647	WORD	wordpools/wasnorm_wordpool_576.txt	LTP123	ltpFR2	21	10	EGYPT	519	n/a	n/a	0	0	0
2119267	START	n/a	LTP123	ltpFR2	21	n/a	n/a	n/a	14	n/a	n/a	n/a	n/a
2120396	DISTRACTOR	n/a	LTP123	ltpFR2	21	10	n/a	n/a	n/a	n/a	0	0	0
2120416	PROB	n/a	LTP123	ltpFR2	21	n/a	n/a	n/a	14	22	9	7	6
2125887	PROB	n/a	LTP123	ltpFR2	21	n/a	n/a	n/a	14	14	7	4	3
2127372	PROB	n/a	LTP123	ltpFR2	21	n/a	n/a	n/a	14	13	2	8	3
2128605	PROB	n/a	LTP123	ltpFR2	21	n/a	n/a	n/a	14	17	7	4	6
2130258	PROB	n/a	LTP123	ltpFR2	21	n/a	n/a	n/a	14	16	8	4	4
2132309	PROB	n/a	LTP123	ltpFR2	21	n/a	n/a	n/a	14	13	6	5	2
2134144	PROB	n/a	LTP123	ltpFR2	21	n/a	n/a	n/a	14	21	5	8	8
2136079	PROB	n/a	LTP123	ltpFR2	21	n/a	n/a	n/a	14	15	1	7	7
2137513	PROB	n/a	LTP123	ltpFR2	21	n/a	n/a	n/a	14	10	5	1	4
2139002	PROB	n/a	LTP123	ltpFR2	21	n/a	n/a	n/a	14	16	4	6	6
2140465	PROB	n/a	LTP123	ltpFR2	21	n/a	n/a	n/a	14	18	8	1	9
2143266	STOP	n/a	LTP123	ltpFR2	21	n/a	n/a	n/a	14	n/a	n/a	n/a	n/a
2145137	REC_START	n/a	LTP123	ltpFR2	21	10	n/a	n/a	n/a	n/a	0	0	0
2145837	REC_WORD	wordpools/wasnorm_wordpool_576.txt	LTP123	ltpFR2	21	10	WORLD	1622	n/a	n/a	0	0	0
2146305	REC_WORD	wordpools/wasnorm_wordpool_576.txt	LTP123	ltpFR2	21	10	ATLAS	53	n/a	n/a	0	0	0
2146980	REC_WORD	wordpools/wasnorm_wordpool_576.txt	LTP123	ltpFR2	21	10	EGYPT	519	n/a	n/a	0	0	0
2149223	REC_WORD	wordpools/wasnorm_wordpool_576.txt	LTP123	ltpFR2	21	10	TROMBONE	1508	n/a	n/a	0	0	0
2149904	REC_WORD	wordpools/wasnorm_wordpool_576.txt	LTP123	ltpFR2	21	10	GUITAR	670	n/a	n/a	0	0	0
2150598	REC_WORD	wordpools/wasnorm_wordpool_576.txt	LTP123	ltpFR2	21	10	TUBA	1515	n/a	n/a	0	0	0
2155107	REC_WORD	wordpools/wasnorm_wordpool_576.txt	LTP123	ltpFR2	21	10	THREAD	1460	n/a	n/a	0	0	0
2155831	REC_WORD	wordpools/wasnorm_wordpool_576.txt	LTP123	ltpFR2	21	10	MACHINE	852	n/a	n/a	0	0	0
2157140	REC_WORD	wordpools/wasnorm_wordpool_576.txt	LTP123	ltpFR2	21	10	WRENCH	1625	n/a	n/a	0	0	0
2157858	REC_WORD	wordpools/wasnorm_wordpool_576.txt	LTP123	ltpFR2	21	10	PLIERS	1089	n/a	n/a	0	0	0
2158856	REC_WORD	wordpools/wasnorm_wordpool_576.txt	LTP123	ltpFR2	21	10	SCISSORS	1250	n/a	n/a	0	0	0
2162040	REC_WORD	wordpools/wasnorm_wordpool_576.txt	LTP123	ltpFR2	21	10	FLIPPER	580	n/a	n/a	0	0	0
2162653	REC_WORD	wordpools/wasnorm_wordpool_576.txt	LTP123	ltpFR2	21	10	SEAL	1262	n/a	n/a	0	0	0
2166668	REC_WORD	wordpools/wasnorm_wordpool_576.txt	LTP123	ltpFR2	21	10	BEEF	113	n/a	n/a	0	0	0
2169965	REC_WORD	wordpools/wasnorm_wordpool_576.txt	LTP123	ltpFR2	21	10	KIDNEY	776	n/a	n/a	0	0	0
2170460	REC_WORD	wordpools/wasnorm_wordpool_576.txt	LTP123	ltpFR2	21	10	LIVER	833	n/a	n/a	0	0	0
2178314	REC_WORD	wordpools/wasnorm_wordpool_576.txt	LTP123	ltpFR2	21	10	PROTON	1132	n/a	n/a	0	0	0
2193852	REC_WORD	wordpools/wasnorm_wordpool_576.txt	LTP123	ltpFR2	21	10	POSTAGE	1113	n/a	n/a	0	0	0
2194622	REC_WORD	wordpools/wasnorm_wordpool_576.txt	LTP123	ltpFR2	21	10	MESSAGE	888	n/a	n/a	0	0	0
2235875	WORD	wordpools/wasnorm_wordpool_576.txt	LTP123	ltpFR2	21	11	PIZZA	1079	n/a	n/a	0	0	0
2238644	WORD	wordpools/wasnorm_wordpool_576.txt	LTP123	ltpFR2	21	11	SNACK	1331	n/a	n/a	0	0	0
2241213	WORD	wordpools/wasnorm_wordpool_576.txt	LTP123	ltpFR2	21	11	CONCERT	360	n/a	n/a	0	0	0
2243998	WORD	wordpools/wasnorm_wordpool_576.txt	LTP123	ltpFR2	21	11	VICTIM	1562	n/a	n/a	0	0	0
2246717	WORD	wordpools/wasnorm_wordpool_576.txt	LTP123	ltpFR2	21	11	PAIL	1002	n/a	n/a	0	0	0
2249436	WORD	wordpools/wasnorm_wordpool_576.txt	LTP123	ltpFR2	21	11	COUCH	386	n/a	n/a	0	0	0
2252123	WORD	wordpools/wasnorm_wordpool_576.txt	LTP123	ltpFR2	21	11	DANCER	437	n/a	n/a	0	0	0
2254790	WORD	wordpools/wasnorm_wordpool_576.txt	LTP123	ltpFR2	21	11	TUTU	1524	n/a	n/a	0	0	0
2257476	WORD	wordpools/wasnorm_wordpool_576.txt	LTP123	ltpFR2	21	11	DRINK	498	n/a	n/a	0	0	0
2260046	WORD	wordpools/wasnorm_wordpool_576.txt	LTP123	ltpFR2	21	11	FOX	598	n/a	n/a	0	0	0
2262764	WORD	wordpools/wasnorm_wordpool_576.txt	LTP123	ltpFR2	21	11	POCKET	1093	n/a	n/a	0	0	0
2265368	WORD	wordpools/wasnorm_wordpool_576.txt	LTP123	ltpFR2	21	11	SNAKE	1333	n/a	n/a	0	0	0
2268052	WORD	wordpools/wasnorm_wordpool_576.txt	LTP123	ltpFR2	21	11	DRAGON	492	n/a	n/a	0	0	0
2270653	WORD	wordpools/wasnorm_wordpool_576.txt	LTP123	ltpFR2	21	11	FRANCE	601	n/a	n/a	0	0	0
2273373	WORD	wordpools/wasnorm_wordpool_576.txt	LTP123	ltpFR2	21	11	UNCLE	1536	n/a	n/a	0	0	0
2275992	WORD	wordpools/wasnorm_wordpool_576.txt	LTP123	ltpFR2	21	11	FIREMAN	569	n/a	n/a	0	0	0
2278743	WORD	wordpools/wasnorm_wordpool_576.txt	LTP123	ltpFR2	21	11	LONDON	843	n/a	n/a	0	0	0
2281245	WORD	wordpools/wasnorm_wordpool_576.txt	LTP123	ltpFR2	21	11	COUNTRY	388	n/a	n/a	0	0	0
2283946	WORD	wordpools/wasnorm_wordpool_576.txt	LTP123	ltpFR2	21	11	SHORTCAKE	1292	n/a	n/a	0	0	0
2286633	WORD	wordpools/wasnorm_wordpool_576.txt	LTP123	ltpFR2	21	11	OMELET	976	n/a	n/a	0	0	0
2289085	WORD	wordpools/wasnorm_wordpool_576.txt	LTP123	ltpFR2	21	11	CREATURE	403	n/a	n/a	0	0	0
2291637	WORD	wordpools/wasnorm_wordpool_576.txt	LTP123	ltpFR2	21	11	VIRUS	1572	n/a	n/a	0	0	0
2294373	WORD	wordpools/wasnorm_wordpool_576.txt	LTP123	ltpFR2	21	11	CONVICT	371	n/a	n/a	0	0	0
2296958	WORD	wordpools/wasnorm_wordpool_576.txt	LTP123	ltpFR2	21	11	INMATE	738	n/a	n/a	0	0	0
2298577	START	n/a	LTP123	ltpFR2	21	n/a	n/a	n/a	15	n/a	n/a	n/a	n/a
2299597	DISTRACTOR	n/a	LTP123	ltpFR2	21	11	n/a	n/a	n/a	n/a	0	0	0
2299626	PROB	n/a	LTP123	ltpFR2	21	n/a	n/a	n/a	15	12	3	8	1
2302279	PROB	n/a	LTP123	ltpFR2	21	n/a	n/a	n/a	15	13	6	4	3
2303545	PROB	n/a	LTP123	ltpFR2	21	n/a	n/a	n/a	15	17	7	9	1
2304913	PROB	n/a	LTP123	ltpFR2	21	n/a	n/a	n/a	15	14	4	2	8
2306365	PROB	n/a	LTP123	ltpFR2	21	n/a	n/a	n/a	15	20	6	6	8
2307849	PROB	n/a	LTP123	ltpFR2	21	n/a	n/a	n/a	15	20	7	7	6
2309785	PROB	n/a	LTP123	ltpFR2	21	n/a	n/a	n/a	15	15	6	2	7
2311402	PROB	n/a	LTP123	ltpFR2	21	n/a	n/a	n/a	15	16	3	8	5
2313738	PROB	n/a	LTP123	ltpFR2	21	n/a	n/a	n/a	15	15	1	8	6
2315456	PROB	n/a	LTP123	ltpFR2	21	n/a	n/a	n/a	15	21	8	6	7
2317791	PROB	n/a	LTP123	ltpFR2	21	n/a	n/a	n/a	15	11	1	3	7
2319111	PROB	n/a	LTP123	ltpFR2	21	n/a	n/a	n/a	15	13	8	1	4
2320509	PROB	n/a	LTP123	ltpFR2	21	n/a	n/a	n/a	15	14	4	3	7
2322392	STOP	n/a	LTP123	ltpFR2	21	n/a	n/a	n/a	15	n/a	n/a	n/a	n/a
2324546	REC_START	n/a	LTP123	ltpFR2	21	11	n/a	n/a	n/a	n/a	0	0	0
2324622	REC_WORD	wordpools/wasnorm_wordpool_576.txt	LTP123	ltpFR2	21	11	CONVICT	371	n/a	n/a	0	0	0
2325298	REC_WORD	wordpools/wasnorm_wordpool_576.txt	LTP123	ltpFR2	21	11	INMATE	738	n/a	n/a	0	0	0
2328165	REC_WORD	wordpools/wasnorm_wordpool_576.txt	LTP123	ltpFR2	21	11	FRANCE	601	n/a	n/a	0	0	0
2330511	REC_WORD	wordpools/wasnorm_wordpool_576.txt	LTP123	ltpFR2	21	11	LONDON	843	n/a	n/a	0	0	0
2331101	REC_WORD	wordpools/wasnorm_wordpool_576.txt	LTP123	ltpFR2	21	11	COUNTRY	388	n/a	n/a	0	0	0
2332324	REC_WORD	wordpools/wasnorm_wordpool_576.txt	LTP123	ltpFR2	21	11	VIRUS	1572	n/a	n/a	0	0	0
2333011	REC_WORD	wordpools/wasnorm_wordpool_576.txt	LTP123	ltpFR2	21	11	CREATURE	403	n/a	n/a	0	0	0
2333696	REC_WORD	wordpools/wasnorm_wordpool_576.txt	LTP123	ltpFR2	21	11	DRAGON	492	n/a	n/a	0	0	0
2335802	REC_WORD	wordpools/wasnorm_wordpool_576.txt	LTP123	ltpFR2	21	11	SNAKE	1333	n/a	n/a	0	0	0
2337914	REC_WORD	wordpools/wasnorm_wordpool_576.txt	LTP123	ltpFR2	21	11	CONCERT	360	n/a	n/a	0	0	0
2338936	REC_WORD	wordpools/wasnorm_wordpool_576.txt	LTP123	ltpFR2	21	11	TUTU	1524	n/a	n/a	0	0	0
2339755	REC_WORD	wordpools/wasnorm_wordpool_576.txt	LTP123	ltpFR2	21	11	DANCER	437	n/a	n/a	0	0	0
2356685	REC_WORD	wordpools/wasnorm_wordpool_576.txt	LTP123	ltpFR2	21	11	FIREMAN	569	n/a	n/a	0	0	0
2357353	REC_WORD	wordpools/wasnorm_wordpool_576.txt	LTP123	ltpFR2	21	11	UNCLE	1536	n/a	n/a	0	0	0
2371720	REC_WORD	wordpools/wasnorm_wordpool_576.txt	LTP123	ltpFR2	21	11	POCKET	1093	n/a	n/a	0	0	0
2380130	REC_WORD	wordpools/wasnorm_wordpool_576.txt	LTP123	ltpFR2	21	11	FOX	598	n/a	n/a	0	0	0
2384265	REC_WORD	wordpools/wasnorm_wordpool_576.txt	LTP123	ltpFR2	21	11	OMELET	976	n/a	n/a	0	0	0
2396778	REC_WORD	wordpools/wasnorm_wordpool_576.txt	LTP123	ltpFR2	21	11	PIZZA	1079	n/a	n/a	0	0	0
2398050	REC_WORD	wordpools/wasnorm_wordpool_576.txt	LTP123	ltpFR2	21	11	SNACK	1331	n/a	n/a	0	0	0
2399281	REC_WORD_VV	wordpools/wasnorm_wordpool_576.txt	LTP123	ltpFR2	21	11	<>	-1	n/a	n/a	0	0	0
2415221	DISTRACTOR	n/a	LTP123	ltpFR2	21	12	n/a	n/a	n/a	n/a	0	0	0
2415221	START	n/a	LTP123	ltpFR2	21	n/a	n/a	n/a	16	n/a	n/a	n/a	n/a
2415269	PROB	n/a	LTP123	ltpFR2	21	n/a	n/a	n/a	16	12	9	1	2
2417480	PROB	n/a	LTP123	ltpFR2	21	n/a	n/a	n/a	16	15	1	9	5
2418738	PROB	n/a	LTP123	ltpFR2	21	n/a	n/a	n/a	16	15	7	2	6
2420890	PROB	n/a	LTP123	ltpFR2	21	n/a	n/a	n/a	16	18	6	7	5
2423220	PROB	n/a	LTP123	ltpFR2	21	n/a	n/a	n/a	16	19	5	7	7
2425110	PROB	n/a	LTP123	ltpFR2	21	n/a	n/a	n/a	16	16	5	5	6
2426411	PROB	n/a	LTP123	ltpFR2	21	n/a	n/a	n/a	16	18	5	6	7
2428022	PROB	n/a	LTP123	ltpFR2	21	n/a	n/a	n/a	16	23	9	9	5
2429964	PROB	n/a	LTP123	ltpFR2	21	n/a	n/a	n/a	16	21	9	8	4
2431882	PROB	n/a	LTP123	ltpFR2	21	n/a	n/a	n/a	16	19	1	9	9
2433183	PROB	n/a	LTP123	ltpFR2	21	n/a	n/a	n/a	16	19	2	8	9
2434501	PROB	n/a	LTP123	ltpFR2	21	n/a	n/a	n/a	16	14	8	1	5
2436569	PROB	n/a	LTP123	ltpFR2	21	n/a	n/a	n/a	16	11	1	9	1
2438317	STOP	n/a	LTP123	ltpFR2	21	n/a	n/a	n/a	16	n/a	n/a	n/a	n/a
2440422	WORD	wordpools/wasnorm_wordpool_576.txt	LTP123	ltpFR2	21	12	STALLION	1369	n/a	n/a	0	0	0
2443109	WORD	wordpools/wasnorm_wordpool_576.txt	LTP123	ltpFR2	21	12	BLENDER	136	n/a	n/a	0	0	0
2445694	WORD	wordpools/wasnorm_wordpool_576.txt	LTP123	ltpFR2	21	12	ROD	1203	n/a	n/a	0	0	0
2448512	WORD	wordpools/wasnorm_wordpool_576.txt	LTP123	ltpFR2	21	12	CURTAIN	427	n/a	n/a	0	0	0
2451232	WORD	wordpools/wasnorm_wordpool_576.txt	LTP123	ltpFR2	21	12	GLASS	639	n/a	n/a	0	0	0
2453833	WORD	wordpools/wasnorm_wordpool_576.txt	LTP123	ltpFR2	21	12	BUG	187	n/a	n/a	0	0	0
2456479	WORD	wordpools/wasnorm_wordpool_576.txt	LTP123	ltpFR2	21	12	CRICKET	408	n/a	n/a	0	0	0
2459239	WORD	wordpools/wasnorm_wordpool_576.txt	LTP123	ltpFR2	21	12	FRIAR	605	n/a	n/a	0	0	0
2462006	WORD	wordpools/wasnorm_wordpool_576.txt	LTP123	ltpFR2	21	12	MARKET	871	n/a	n/a	0	0	0
2464592	WORD	wordpools/wasnorm_wordpool_576.txt	LTP123	ltpFR2	21	12	CUPBOARD	425	n/a	n/a	0	0	0
2467295	WORD	wordpools/wasnorm_wordpool_576.txt	LTP123	ltpFR2	21	12	PARSLEY	1016	n/a	n/a	0	0	0
2470047	WORD	wordpools/wasnorm_wordpool_576.txt	LTP123	ltpFR2	21	12	BLADE	134	n/a	n/a	0	0	0
2472665	WORD	wordpools/wasnorm_wordpool_576.txt	LTP123	ltpFR2	21	12	JEANS	752	n/a	n/a	0	0	0
2475185	WORD	wordpools/wasnorm_wordpool_576.txt	LTP123	ltpFR2	21	12	BACON	67	n/a	n/a	0	0	0
2477870	WORD	wordpools/wasnorm_wordpool_576.txt	LTP123	ltpFR2	21	12	OUTFIT	988	n/a	n/a	0	0	0
2480722	WORD	wordpools/wasnorm_wordpool_576.txt	LTP123	ltpFR2	21	12	HEDGE	699	n/a	n/a	0	0	0
2483341	WORD	wordpools/wasnorm_wordpool_576.txt	LTP123	ltpFR2	21	12	CARRIAGE	248	n/a	n/a	0	0	0
2485827	WORD	wordpools/wasnorm_wordpool_576.txt	LTP123	ltpFR2	21	12	FLOWER	584	n/a	n/a	0	0	0
2488495	WORD	wordpools/wasnorm_wordpool_576.txt	LTP123	ltpFR2	21	12	STOVE	1388	n/a	n/a	0	0	0
2491163	WORD	wordpools/wasnorm_wordpool_576.txt	LTP123	ltpFR2	21	12	HARP	689	n/a	n/a	0	0	0
2493982	WORD	wordpools/wasnorm_wordpool_576.txt	LTP123	ltpFR2	21	12	SUBWAY	1400	n/a	n/a	0	0	0
2496751	WORD	wordpools/wasnorm_wordpool_576.txt	LTP123	ltpFR2	21	12	COBRA	336	n/a	n/a	0	0	0
2499537	WORD	wordpools/wasnorm_wordpool_576.txt	LTP123	ltpFR2	21	12	CLOCK	325	n/a	n/a	0	0	0
2502055	WORD	wordpools/wasnorm_wordpool_576.txt	LTP123	ltpFR2	21	12	GARLIC	624	n/a	n/a	0	0	0
2503675	START	n/a	LTP123	ltpFR2	21	n/a	n/a	n/a	17	n/a	n/a	n/a	n/a
2504521	DISTRACTOR	n/a	LTP123	ltpFR2	21	12	n/a	n/a	n/a	n/a	0	0	0
2504541	PROB	n/a	LTP123	ltpFR2	21	n/a	n/a	n/a	17	27	9	9	9
2506742	PROB	n/a	LTP123	ltpFR2	21	n/a	n/a	n/a	17	18	9	5	4
2509295	PROB	n/a	LTP123	ltpFR2	21	n/a	n/a	n/a	17	19	6	7	6
2511539	PROB	n/a	LTP123	ltpFR2	21	n/a	n/a	n/a	17	9	2	1	6
2513065	PROB	n/a	LTP123	ltpFR2	21	n/a	n/a	n/a	17	20	8	6	6
2514681	PROB	n/a	LTP123	ltpFR2	21	n/a	n/a	n/a	17	11	2	5	4
2516466	PROB	n/a	LTP123	ltpFR2	21	n/a	n/a	n/a	17	17	7	8	2
2517934	PROB	n/a	LTP123	ltpFR2	21	n/a	n/a	n/a	17	12	6	3	3
2519952	PROB	n/a	LTP123	ltpFR2	21	n/a	n/a	n/a	17	7	2	2	3
2522672	PROB	n/a	LTP123	ltpFR2	21	n/a	n/a	n/a	17	12	1	8	3
2525109	PROB	n/a	LTP123	ltpFR2	21	n/a	n/a	n/a	17	10	1	2	7
2526560	STOP	n/a	LTP123	ltpFR2	21	n/a	n/a	n/a	17	n/a	n/a	n/a	n/a
2529574	REC_START	n/a	LTP123	ltpFR2	21	12	n/a	n/a	n/a	n/a	0	0	0
2530576	REC_WORD	wordpools/wasnorm_wordpool_576.txt	LTP123	ltpFR2	21	12	FRIAR	605	n/a	n/a	0	0	0
2531143	REC_WORD	wordpools/wasnorm_wordpool_576.txt	LTP123	ltpFR2	21	12	MARKET	871	n/a	n/a	0	0	0
2532577	REC_WORD	wordpools/wasnorm_wordpool_576.txt	LTP123	ltpFR2	21	12	CUPBOARD	425	n/a	n/a	0	0	0
2533166	REC_WORD	wordpools/wasnorm_wordpool_576.txt	LTP123	ltpFR2	21	12	STOVE	1388	n/a	n/a	0	0	0
2534505	REC_WORD	wordpools/wasnorm_wordpool_576.txt	LTP123	ltpFR2	21	12	GARLIC	624	n/a	n/a	0	0	0
2535094	REC_WORD	wordpools/wasnorm_wordpool_576.txt	LTP123	ltpFR2	21	12	PARSLEY	1016	n/a	n/a	0	0	0
2536032	REC_WORD	wordpools/wasnorm_wordpool_576.txt	LTP123	ltpFR2	21	12	BACON	67	n/a	n/a	0	0	0
2536888	REC_WORD	wordpools/wasnorm_wordpool_576.txt	LTP123	ltpFR2	21	12	BEEF	113	n/a	n/a	0	0	0
2541034	REC_WORD	wordpools/wasnorm_wordpool_576.txt	LTP123	ltpFR2	21	12	BUG	187	n/a	n/a	0	0	0
2541578	REC_WORD	wordpools/wasnorm_wordpool_576.txt	LTP123	ltpFR2	21	12	CRICKET	408	n/a	n/a	0	0	0
2545754	REC_WORD	wordpools/wasnorm_wordpool_576.txt	LTP123	ltpFR2	21	12	JEANS	752	n/a	n/a	0	0	0
2551083	REC_WORD	wordpools/wasnorm_wordpool_576.txt	LTP123	ltpFR2	21	12	STALLION	1369	n/a	n/a	0	0	0
2555612	REC_WORD	wordpools/wasnorm_wordpool_576.txt	LTP123	ltpFR2	21	12	CARRIAGE	248	n/a	n/a	0	0	0
2556924	REC_WORD	wordpools/wasnorm_wordpool_576.txt	LTP123	ltpFR2	21	12	SADDLE	1221	n/a	n/a	0	0	0
2562179	REC_WORD	wordpools/wasnorm_wordpool_576.txt	LTP123	ltpFR2	21	12	GLASS	639	n/a	n/a	0	0	0
2562745	REC_WORD	wordpools/wasnorm_wordpool_576.txt	LTP123	ltpFR2	21	12	CURTAIN	427	n/a	n/a	0	0	0
2563224	REC_WORD	wordpools/wasnorm_wordpool_576.txt	LTP123	ltpFR2	21	12	ROD	1203	n/a	n/a	0	0	0
2579245	REC_WORD	wordpools/wasnorm_wordpool_576.txt	LTP123	ltpFR2	21	12	FLOWER	584	n/a	n/a	0	0	0
2603336	REC_WORD	wordpools/wasnorm_wordpool_576.txt	LTP123	ltpFR2	21	12	MARKET	871	n/a	n/a	0	0	0
2604274	REC_WORD_VV	wordpools/wasnorm_wordpool_576.txt	LTP123	ltpFR2	21	12	<>	-1	n/a	n/a	0	0	0
2620252	DISTRACTOR	n/a	LTP123	ltpFR2	21	13	n/a	n/a	n/a	n/a	0	0	0
2620253	START	n/a	LTP123	ltpFR2	21	n/a	n/a	n/a	18	n/a	n/a	n/a	n/a
2620301	PROB	n/a	LTP123	ltpFR2	21	n/a	n/a	n/a	18	18	9	8	1
2622018	PROB	n/a	LTP123	ltpFR2	21	n/a	n/a	n/a	18	17	5	6	6
2623952	PROB	n/a	LTP123	ltpFR2	21	n/a	n/a	n/a	18	13	4	1	8
2625687	PROB	n/a	LTP123	ltpFR2	21	n/a	n/a	n/a	18	22	7	6	9
2627906	PROB	n/a	LTP123	ltpFR2	21	n/a	n/a	n/a	18	18	3	8	7
2629541	PROB	n/a	LTP123	ltpFR2	21	n/a	n/a	n/a	18	20	4	8	8
2631508	PROB	n/a	LTP123	ltpFR2	21	n/a	n/a	n/a	18	12	3	4	5
2633345	PROB	n/a	LTP123	ltpFR2	21	n/a	n/a	n/a	18	14	8	1	5
2635279	PROB	n/a	LTP123	ltpFR2	21	n/a	n/a	n/a	18	13	6	2	5
2637342	PROB	n/a	LTP123	ltpFR2	21	n/a	n/a	n/a	18	12	9	1	2
2638731	PROB	n/a	LTP123	ltpFR2	21	n/a	n/a	n/a	18	12	2	6	4
2640066	PROB	n/a	LTP123	ltpFR2	21	n/a	n/a	n/a	18	16	7	6	3
2641367	PROB	n/a	LTP123	ltpFR2	21	n/a	n/a	n/a	18	19	5	7	7
2643109	STOP	n/a	LTP123	ltpFR2	21	n/a	n/a	n/a	18	n/a	n/a	n/a	n/a
2645137	WORD	wordpools/wasnorm_wordpool_576.txt	LTP123	ltpFR2	21	13	PAPER	1011	n/a	n/a	0	0	0
2647857	WORD	wordpools/wasnorm_wordpool_576.txt	LTP123	ltpFR2	21	13	CORAL	378	n/a	n/a	0	0	0
2650558	WORD	wordpools/wasnorm_wordpool_576.txt	LTP123	ltpFR2	21	13	SPACE	1345	n/a	n/a	0	0	0
2653095	WORD	wordpools/wasnorm_wordpool_576.txt	LTP123	ltpFR2	21	13	ROOSTER	1209	n/a	n/a	0	0	0
2655879	WORD	wordpools/wasnorm_wordpool_576.txt	LTP123	ltpFR2	21	13	LEG	809	n/a	n/a	0	0	0
2658697	WORD	wordpools/wasnorm_wordpool_576.txt	LTP123	ltpFR2	21	13	WIDOW	1608	n/a	n/a	0	0	0
2661433	WORD	wordpools/wasnorm_wordpool_576.txt	LTP123	ltpFR2	21	13	CRATER	400	n/a	n/a	0	0	0
2663901	WORD	wordpools/wasnorm_wordpool_576.txt	LTP123	ltpFR2	21	13	ASIA	46	n/a	n/a	0	0	0
2666520	WORD	wordpools/wasnorm_wordpool_576.txt	LTP123	ltpFR2	21	13	ORCHID	982	n/a	n/a	0	0	0
2669106	WORD	wordpools/wasnorm_wordpool_576.txt	LTP123	ltpFR2	21	13	CLIMBER	323	n/a	n/a	0	0	0
2671909	WORD	wordpools/wasnorm_wordpool_576.txt	LTP123	ltpFR2	21	13	SLOPE	1328	n/a	n/a	0	0	0
2674610	WORD	wordpools/wasnorm_wordpool_576.txt	LTP123	ltpFR2	21	13	GRILL	661	n/a	n/a	0	0	0
2677080	WORD	wordpools/wasnorm_wordpool_576.txt	LTP123	ltpFR2	21	13	OYSTER	995	n/a	n/a	0	0	0
2679815	WORD	wordpools/wasnorm_wordpool_576.txt	LTP123	ltpFR2	21	13	ARM	38	n/a	n/a	0	0	0
2682367	WORD	wordpools/wasnorm_wordpool_576.txt	LTP123	ltpFR2	21	13	DRAWING	494	n/a	n/a	0	0	0
2685019	WORD	wordpools/wasnorm_wordpool_576.txt	LTP123	ltpFR2	21	13	FRAME	600	n/a	n/a	0	0	0
2687737	WORD	wordpools/wasnorm_wordpool_576.txt	LTP123	ltpFR2	21	13	DAISY	435	n/a	n/a	0	0	0
2690241	WORD	wordpools/wasnorm_wordpool_576.txt	LTP123	ltpFR2	21	13	LAVA	804	n/a	n/a	0	0	0
2692812	WORD	wordpools/wasnorm_wordpool_576.txt	LTP123	ltpFR2	21	13	SALMON	1227	n/a	n/a	0	0	0
2695610	WORD	wordpools/wasnorm_wordpool_576.txt	LTP123	ltpFR2	21	13	HOUND	724	n/a	n/a	0	0	0
2698364	WORD	wordpools/wasnorm_wordpool_576.txt	LTP123	ltpFR2	21	13	PERCH	1048	n/a	n/a	0	0	0
2700932	WORD	wordpools/wasnorm_wordpool_576.txt	LTP123	ltpFR2	21	13	PARTNER	1017	n/a	n/a	0	0	0
2703717	WORD	wordpools/wasnorm_wordpool_576.txt	LTP123	ltpFR2	21	13	TOURIST	1488	n/a	n/a	0	0	0
2706336	WORD	wordpools/wasnorm_wordpool_576.txt	LTP123	ltpFR2	21	13	QUARTER	1148	n/a	n/a	0	0	0
2707971	START	n/a	LTP123	ltpFR2	21	n/a	n/a	n/a	19	n/a	n/a	n/a	n/a
2708842	DISTRACTOR	n/a	LTP123	ltpFR2	21	13	n/a	n/a	n/a	n/a	0	0	0
2708871	PROB	n/a	LTP123	ltpFR2	21	n/a	n/a	n/a	19	17	7	4	6
2711022	PROB	n/a	LTP123	ltpFR2	21	n/a	n/a	n/a	19	9	1	1	7
2712358	PROB	n/a	LTP123	ltpFR2	21	n/a	n/a	n/a	19	16	8	7	1
2713942	PROB	n/a	LTP123	ltpFR2	21	n/a	n/a	n/a	19	15	4	2	9
2716510	PROB	n/a	LTP123	ltpFR2	21	n/a	n/a	n/a	19	3	1	1	1
2718062	PROB	n/a	LTP123	ltpFR2	21	n/a	n/a	n/a	19	6	4	1	1
2720197	PROB	n/a	LTP123	ltpFR2	21	n/a	n/a	n/a	19	17	5	4	8
2721797	PROB	n/a	LTP123	ltpFR2	21	n/a	n/a	n/a	19	12	5	4	3
2723766	PROB	n/a	LTP123	ltpFR2	21	n/a	n/a	n/a	19	17	2	6	9
2725500	PROB	n/a	LTP123	ltpFR2	21	n/a	n/a	n/a	19	16	8	2	6
2726801	PROB	n/a	LTP123	ltpFR2	21	n/a	n/a	n/a	19	9	2	1	6
2729037	PROB	n/a	LTP123	ltpFR2	21	n/a	n/a	n/a	19	16	9	5	2
2730671	STOP	n/a	LTP123	ltpFR2	21	n/a	n/a	n/a	19	n/a	n/a	n/a	n/a
2733908	REC_START	n/a	LTP123	ltpFR2	21	13	n/a	n/a	n/a	n/a	0	0	0
2734319	REC_WORD	wordpools/wasnorm_wordpool_576.txt	LTP123	ltpFR2	21	13	TOURIST	1488	n/a	n/a	0	0	0
2735008	REC_WORD	wordpools/wasnorm_wordpool_576.txt	LTP123	ltpFR2	21	13	PARTNER	1017	n/a	n/a	0	0	0
2736056	REC_WORD	wordpools/wasnorm_wordpool_576.txt	LTP123	ltpFR2	21	13	CLIMBER	323	n/a	n/a	0	0	0
2737214	REC_WORD	wordpools/wasnorm_wordpool_576.txt	LTP123	ltpFR2	21	13	SLOPE	1328	n/a	n/a	0	0	0
2738741	REC_WORD	wordpools/wasnorm_wordpool_576.txt	LTP123	ltpFR2	21	13	SALMON	1227	n/a	n/a	0	0	0
2739433	REC_WORD	wordpools/wasnorm_wordpool_576.txt	LTP123	ltpFR2	21	13	GRILL	661	n/a	n/a	0	0	0
2739957	REC_WORD	wordpools/wasnorm_wordpool_576.txt	LTP123	ltpFR2	21	13	PERCH	1048	n/a	n/a	0	0	0
2744454	REC_WORD	wordpools/wasnorm_wordpool_576.txt	LTP123	ltpFR2	21	13	LEG	809	n/a	n/a	0	0	0
2745136	REC_WORD	wordpools/wasnorm_wordpool_576.txt	LTP123	ltpFR2	21	13	ARM	38	n/a	n/a	0	0	0
2749913	REC_WORD	wordpools/wasnorm_wordpool_576.txt	LTP123	ltpFR2	21	13	SPACE	1345	n/a	n/a	0	0	0
2751220	REC_WORD	wordpools/wasnorm_wordpool_576.txt	LTP123	ltpFR2	21	13	CRATER	400	n/a	n/a	0	0	0
2751876	REC_WORD	wordpools/wasnorm_wordpool_576.txt	LTP123	ltpFR2	21	13	LAVA	804	n/a	n/a	0	0	0
2753131	REC_WORD	wordpools/wasnorm_wordpool_576.txt	LTP123	ltpFR2	21	13	DAISY	435	n/a	n/a	0	0	0
2754393	REC_WORD	wordpools/wasnorm_wordpool_576.txt	LTP123	ltpFR2	21	13	ORCHID	982	n/a	n/a	0	0	0
2755341	REC_WORD	wordpools/wasnorm_wordpool_576.txt	LTP123	ltpFR2	21	13	ASIA	46	n/a	n/a	0	0	0
2759980	REC_WORD	wordpools/wasnorm_wordpool_576.txt	LTP123	ltpFR2	21	13	FLOWER	584	n/a	n/a	0	0	0
2770017	REC_WORD	wordpools/wasnorm_wordpool_576.txt	LTP123	ltpFR2	21	13	ROOSTER	1209	n/a	n/a	0	0	0
2770570	REC_WORD	wordpools/wasnorm_wordpool_576.txt	LTP123	ltpFR2	21	13	CORAL	378	n/a	n/a	0	0	0
2774545	REC_WORD	wordpools/wasnorm_wordpool_576.txt	LTP123	ltpFR2	21	13	HOUND	724	n/a	n/a	0	0	0
2785683	REC_WORD	wordpools/wasnorm_wordpool_576.txt	LTP123	ltpFR2	21	13	OYSTER	995	n/a	n/a	0	0	0
2824615	DISTRACTOR	n/a	LTP123	ltpFR2	21	14	n/a	n/a	n/a	n/a	0	0	0
2824615	START	n/a	LTP123	ltpFR2	21	n/a	n/a	n/a	20	n/a	n/a	n/a	n/a
2824663	PROB	n/a	LTP123	ltpFR2	21	n/a	n/a	n/a	20	12	1	4	7
2826549	PROB	n/a	LTP123	ltpFR2	21	n/a	n/a	n/a	20	17	7	9	1
2827900	PROB	n/a	LTP123	ltpFR2	21	n/a	n/a	n/a	20	19	9	4	6
2829251	PROB	n/a	LTP123	ltpFR2	21	n/a	n/a	n/a	20	23	6	9	8
2831935	PROB	n/a	LTP123	ltpFR2	21	n/a	n/a	n/a	20	17	2	6	9
2833798	PROB	n/a	LTP123	ltpFR2	21	n/a	n/a	n/a	20	19	2	9	8
2836524	PROB	n/a	LTP123	ltpFR2	21	n/a	n/a	n/a	20	21	7	5	9
2841227	PROB	n/a	LTP123	ltpFR2	21	n/a	n/a	n/a	20	14	2	7	5
2843829	PROB	n/a	LTP123	ltpFR2	21	n/a	n/a	n/a	20	16	2	8	6
2845315	PROB	n/a	LTP123	ltpFR2	21	n/a	n/a	n/a	20	16	5	7	4
2847044	STOP	n/a	LTP123	ltpFR2	21	n/a	n/a	n/a	20	n/a	n/a	n/a	n/a
2849633	WORD	wordpools/wasnorm_wordpool_576.txt	LTP123	ltpFR2	21	14	FLASK	576	n/a	n/a	0	0	0
2852280	WORD	wordpools/wasnorm_wordpool_576.txt	LTP123	ltpFR2	21	14	QUAIL	1147	n/a	n/a	0	0	0
2854755	WORD	wordpools/wasnorm_wordpool_576.txt	LTP123	ltpFR2	21	14	CASKET	255	n/a	n/a	0	0	0
2857291	WORD	wordpools/wasnorm_wordpool_576.txt	LTP123	ltpFR2	21	14	LAMP	798	n/a	n/a	0	0	0
2860042	WORD	wordpools/wasnorm_wordpool_576.txt	LTP123	ltpFR2	21	14	BANQUET	86	n/a	n/a	0	0	0
2862510	WORD	wordpools/wasnorm_wordpool_576.txt	LTP123	ltpFR2	21	14	COOKBOOK	373	n/a	n/a	0	0	0
2865064	WORD	wordpools/wasnorm_wordpool_576.txt	LTP123	ltpFR2	21	14	SODA	1341	n/a	n/a	0	0	0
2867682	WORD	wordpools/wasnorm_wordpool_576.txt	LTP123	ltpFR2	21	14	PORTRAIT	1111	n/a	n/a	0	0	0
2870500	WORD	wordpools/wasnorm_wordpool_576.txt	LTP123	ltpFR2	21	14	RECORD	1176	n/a	n/a	0	0	0
2873020	WORD	wordpools/wasnorm_wordpool_576.txt	LTP123	ltpFR2	21	14	MARKER	870	n/a	n/a	0	0	0
2875666	WORD	wordpools/wasnorm_wordpool_576.txt	LTP123	ltpFR2	21	14	ARMY	39	n/a	n/a	0	0	0
2878490	WORD	wordpools/wasnorm_wordpool_576.txt	LTP123	ltpFR2	21	14	LIGHTNING	820	n/a	n/a	0	0	0
2881194	WORD	wordpools/wasnorm_wordpool_576.txt	LTP123	ltpFR2	21	14	ATOM	55	n/a	n/a	0	0	0
2883661	WORD	wordpools/wasnorm_wordpool_576.txt	LTP123	ltpFR2	21	14	PLATE	1086	n/a	n/a	0	0	0
2886308	WORD	wordpools/wasnorm_wordpool_576.txt	LTP123	ltpFR2	21	14	POLICE	1098	n/a	n/a	0	0	0
2888765	WORD	wordpools/wasnorm_wordpool_576.txt	LTP123	ltpFR2	21	14	YOLK	1633	n/a	n/a	0	0	0
2891434	WORD	wordpools/wasnorm_wordpool_576.txt	LTP123	ltpFR2	21	14	PORK	1108	n/a	n/a	0	0	0
2894237	WORD	wordpools/wasnorm_wordpool_576.txt	LTP123	ltpFR2	21	14	HERO	706	n/a	n/a	0	0	0
2896855	WORD	wordpools/wasnorm_wordpool_576.txt	LTP123	ltpFR2	21	14	AWARD	63	n/a	n/a	0	0	0
2899358	WORD	wordpools/wasnorm_wordpool_576.txt	LTP123	ltpFR2	21	14	SWITCH	1422	n/a	n/a	0	0	0
2902026	WORD	wordpools/wasnorm_wordpool_576.txt	LTP123	ltpFR2	21	14	DOUGHNUT	490	n/a	n/a	0	0	0
2904712	WORD	wordpools/wasnorm_wordpool_576.txt	LTP123	ltpFR2	21	14	BRAKE	166	n/a	n/a	0	0	0
2907447	WORD	wordpools/wasnorm_wordpool_576.txt	LTP123	ltpFR2	21	14	IGLOO	734	n/a	n/a	0	0	0
2909933	WORD	wordpools/wasnorm_wordpool_576.txt	LTP123	ltpFR2	21	14	SHERIFF	1284	n/a	n/a	0	0	0
2911568	START	n/a	LTP123	ltpFR2	21	n/a	n/a	n/a	21	n/a	n/a	n/a	n/a
2912382	DISTRACTOR	n/a	LTP123	ltpFR2	21	14	n/a	n/a	n/a	n/a	0	0	0
2912401	PROB	n/a	LTP123	ltpFR2	21	n/a	n/a	n/a	21	8	2	4	2
2914535	PROB	n/a	LTP123	ltpFR2	21	n/a	n/a	n/a	21	17	5	4	8
2916470	PROB	n/a	LTP123	ltpFR2	21	n/a	n/a	n/a	21	12	8	2	2
2917804	PROB	n/a	LTP123	ltpFR2	21	n/a	n/a	n/a	21	15	6	8	1
2919716	PROB	n/a	LTP123	ltpFR2	21	n/a	n/a	n/a	21	15	6	1	8
2921691	PROB	n/a	LTP123	ltpFR2	21	n/a	n/a	n/a	21	13	3	2	8
2923559	PROB	n/a	LTP123	ltpFR2	21	n/a	n/a	n/a	21	13	4	2	7
2925362	PROB	n/a	LTP123	ltpFR2	21	n/a	n/a	n/a	21	21	4	9	8
2927863	PROB	n/a	LTP123	ltpFR2	21	n/a	n/a	n/a	21	17	6	3	8
2930893	PROB	n/a	LTP123	ltpFR2	21	n/a	n/a	n/a	21	14	3	9	2
2935567	STOP	n/a	LTP123	ltpFR2	21	n/a	n/a	n/a	21	n/a	n/a	n/a	n/a
2937571	REC_START	n/a	LTP123	ltpFR2	21	14	n/a	n/a	n/a	n/a	0	0	0
2937822	REC_WORD	wordpools/wasnorm_wordpool_576.txt	LTP123	ltpFR2	21	14	FLASK	576	n/a	n/a	0	0	0
2938459	REC_WORD	wordpools/wasnorm_wordpool_576.txt	LTP123	ltpFR2	21	14	SODA	1341	n/a	n/a	0	0	0
2939950	REC_WORD	wordpools/wasnorm_wordpool_576.txt	LTP123	ltpFR2	21	14	QUAIL	1147	n/a	n/a	0	0	0
2940635	REC_WORD	wordpools/wasnorm_wordpool_576.txt	LTP123	ltpFR2	21	14	PORK	1108	n/a	n/a	0	0	0
2942003	REC_WORD	wordpools/wasnorm_wordpool_576.txt	LTP123	ltpFR2	21	14	BANQUET	86	n/a	n/a	0	0	0
2945627	REC_WORD	wordpools/wasnorm_wordpool_576.txt	LTP123	ltpFR2	21	14	SHERIFF	1284	n/a	n/a	0	0	0
2947464	REC_WORD	wordpools/wasnorm_wordpool_576.txt	LTP123	ltpFR2	21	14	POLICE	1098	n/a	n/a	0	0	0
2948275	REC_WORD	wordpools/wasnorm_wordpool_576.txt	LTP123	ltpFR2	21	14	ARMY	39	n/a	n/a	0	0	0
2948806	REC_WORD	wordpools/wasnorm_wordpool_576.txt	LTP123	ltpFR2	21	14	ARMY	39	n/a	n/a	0	0	0
2949992	REC_WORD	wordpools/wasnorm_wordpool_576.txt	LTP123	ltpFR2	21	14	HERO	706	n/a	n/a	0	0	0
2953125	REC_WORD	wordpools/wasnorm_wordpool_576.txt	LTP123	ltpFR2	21	14	LIGHTNING	820	n/a	n/a	0	0	0
2953651	REC_WORD	wordpools/wasnorm_wordpool_576.txt	LTP123	ltpFR2	21	14	SWITCH	1422	n/a	n/a	0	0	0
2956014	REC_WORD	wordpools/wasnorm_wordpool_576.txt	LTP123	ltpFR2	21	14	LAMP	798	n/a	n/a	0	0	0
2977463	REC_WORD	wordpools/wasnorm_wordpool_576.txt	LTP123	ltpFR2	21	14	ATOM	55	n/a	n/a	0	0	0
3028295	WORD	wordpools/wasnorm_wordpool_576.txt	LTP123	ltpFR2	21	15	RADISH	1158	n/a	n/a	0	0	0
3030962	WORD	wordpools/wasnorm_wordpool_576.txt	LTP123	ltpFR2	21	15	FUNGUS	614	n/a	n/a	0	0	0
3033547	WORD	wordpools/wasnorm_wordpool_576.txt	LTP123	ltpFR2	21	15	SCRIBBLE	1256	n/a	n/a	0	0	0
3036033	WORD	wordpools/wasnorm_wordpool_576.txt	LTP123	ltpFR2	21	15	SCARECROW	1245	n/a	n/a	0	0	0
3038785	WORD	wordpools/wasnorm_wordpool_576.txt	LTP123	ltpFR2	21	15	BALLOON	75	n/a	n/a	0	0	0
3041588	WORD	wordpools/wasnorm_wordpool_576.txt	LTP123	ltpFR2	21	15	WAITRESS	1581	n/a	n/a	0	0	0
3044090	WORD	wordpools/wasnorm_wordpool_576.txt	LTP123	ltpFR2	21	15	SCOTCH	1251	n/a	n/a	0	0	0
3046591	WORD	wordpools/wasnorm_wordpool_576.txt	LTP123	ltpFR2	21	15	STUDENT	1395	n/a	n/a	0	0	0
3049311	WORD	wordpools/wasnorm_wordpool_576.txt	LTP123	ltpFR2	21	15	EUROPE	541	n/a	n/a	0	0	0
3052029	WORD	wordpools/wasnorm_wordpool_576.txt	LTP123	ltpFR2	21	15	GIRL	637	n/a	n/a	0	0	0
3054831	WORD	wordpools/wasnorm_wordpool_576.txt	LTP123	ltpFR2	21	15	LION	827	n/a	n/a	0	0	0
3057551	WORD	wordpools/wasnorm_wordpool_576.txt	LTP123	ltpFR2	21	15	BARLEY	88	n/a	n/a	0	0	0
3060053	WORD	wordpools/wasnorm_wordpool_576.txt	LTP123	ltpFR2	21	15	SALAD	1224	n/a	n/a	0	0	0
3062755	WORD	wordpools/wasnorm_wordpool_576.txt	LTP123	ltpFR2	21	15	MISSILE	900	n/a	n/a	0	0	0
3065407	WORD	wordpools/wasnorm_wordpool_576.txt	LTP123	ltpFR2	21	15	GROUND	666	n/a	n/a	0	0	0
3068126	WORD	wordpools/wasnorm_wordpool_576.txt	LTP123	ltpFR2	21	15	OZONE	996	n/a	n/a	0	0	0
3070944	WORD	wordpools/wasnorm_wordpool_576.txt	LTP123	ltpFR2	21	15	SUNSET	1408	n/a	n/a	0	0	0
3073713	WORD	wordpools/wasnorm_wordpool_576.txt	LTP123	ltpFR2	21	15	COMET	353	n/a	n/a	0	0	0
3076498	WORD	wordpools/wasnorm_wordpool_576.txt	LTP123	ltpFR2	21	15	OFFICE	972	n/a	n/a	0	0	0
3079302	WORD	wordpools/wasnorm_wordpool_576.txt	LTP123	ltpFR2	21	15	TYPIST	1532	n/a	n/a	0	0	0
3082020	WORD	wordpools/wasnorm_wordpool_576.txt	LTP123	ltpFR2	21	15	BRACES	164	n/a	n/a	0	0	0
3084722	WORD	wordpools/wasnorm_wordpool_576.txt	LTP123	ltpFR2	21	15	LIPSTICK	829	n/a	n/a	0	0	0
3087557	WORD	wordpools/wasnorm_wordpool_576.txt	LTP123	ltpFR2	21	15	LEOPARD	812	n/a	n/a	0	0	0
3090128	WORD	wordpools/wasnorm_wordpool_576.txt	LTP123	ltpFR2	21	15	BLOUSE	139	n/a	n/a	0	0	0
3091763	START	n/a	LTP123	ltpFR2	21	n/a	n/a	n/a	22	n/a	n/a	n/a	n/a
3092759	DISTRACTOR	n/a	LTP123	ltpFR2	21	15	n/a	n/a	n/a	n/a	0	0	0
3092779	PROB	n/a	LTP123	ltpFR2	21	n/a	n/a	n/a	22	11	1	6	4
3095747	PROB	n/a	LTP123	ltpFR2	21	n/a	n/a	n/a	22	17	8	8	1
3097565	PROB	n/a	LTP123	ltpFR2	21	n/a	n/a	n/a	22	9	2	6	1
3100601	PROB	n/a	LTP123	ltpFR2	21	n/a	n/a	n/a	22	16	6	8	2
3102099	PROB	n/a	LTP123	ltpFR2	21	n/a	n/a	n/a	22	15	9	5	1
3103504	PROB	n/a	LTP123	ltpFR2	21	n/a	n/a	n/a	22	10	4	3	3
3105106	PROB	n/a	LTP123	ltpFR2	21	n/a	n/a	n/a	22	22	8	9	5
3108275	PROB	n/a	LTP123	ltpFR2	21	n/a	n/a	n/a	22	8	5	1	2
3110476	PROB	n/a	LTP123	ltpFR2	21	n/a	n/a	n/a	22	14	3	6	5
3111994	PROB	n/a	LTP123	ltpFR2	21	n/a	n/a	n/a	22	17	2	6	9
3113862	PROB	n/a	LTP123	ltpFR2	21	n/a	n/a	n/a	22	14	1	9	4
3115055	STOP	n/a	LTP123	ltpFR2	21	n/a	n/a	n/a	22	n/a	n/a	n/a	n/a
3117682	REC_START	n/a	LTP123	ltpFR2	21	15	n/a	n/a	n/a	n/a	0	0	0
3118038	REC_WORD	wordpools/wasnorm_wordpool_576.txt	LTP123	ltpFR2	21	15	BLOUSE	139	n/a	n/a	0	0	0
3118592	REC_WORD	wordpools/wasnorm_wordpool_576.txt	LTP123	ltpFR2	21	15	LIPSTICK	829	n/a	n/a	0	0	0
3119469	REC_WORD	wordpools/wasnorm_wordpool_576.txt	LTP123	ltpFR2	21	15	TYPIST	1532	n/a	n/a	0	0	0
3120262	REC_WORD	wordpools/wasnorm_wordpool_576.txt	LTP123	ltpFR2	21	15	OFFICE	972	n/a	n/a	0	0	0
3121687	REC_WORD	wordpools/wasnorm_wordpool_576.txt	LTP123	ltpFR2	21	15	LEOPARD	812	n/a	n/a	0	0	0
3122293	REC_WORD	wordpools/wasnorm_wordpool_576.txt	LTP123	ltpFR2	21	15	LION	827	n/a	n/a	0	0	0
3122969	REC_WORD	wordpools/wasnorm_wordpool_576.txt	LTP123	ltpFR2	21	15	SCARECROW	1245	n/a	n/a	0	0	0
3124142	REC_WORD	wordpools/wasnorm_wordpool_576.txt	LTP123	ltpFR2	21	15	BALLOON	75	n/a	n/a	0	0	0
3125908	REC_WORD	wordpools/wasnorm_wordpool_576.txt	LTP123	ltpFR2	21	15	OZONE	996	n/a	n/a	0	0	0
3127795	REC_WORD	wordpools/wasnorm_wordpool_576.txt	LTP123	ltpFR2	21	15	SUNSET	1408	n/a	n/a	0	0	0
3128961	REC_WORD	wordpools/wasnorm_wordpool_576.txt	LTP123	ltpFR2	21	15	COMET	353	n/a	n/a	0	0	0
3131621	REC_WORD	wordpools/wasnorm_wordpool_576.txt	LTP123	ltpFR2	21	15	EUROPE	541	n/a	n/a	0	0	0
3142535	REC_WORD	wordpools/wasnorm_wordpool_576.txt	LTP123	ltpFR2	21	15	FUNGUS	614	n/a	n/a	0	0	0
3144309	REC_WORD	wordpools/wasnorm_wordpool_576.txt	LTP123	ltpFR2	21	15	GROUND	666	n/a	n/a	0	0	0
3146787	REC_WORD_VV	wordpools/wasnorm_wordpool_576.txt	LTP123	ltpFR2	21	15	<>	-1	n/a	n/a	0	0	0
3147339	REC_WORD_VV	wordpools/wasnorm_wordpool_576.txt	LTP123	ltpFR2	21	15	<>	-1	n/a	n/a	0	0	0
3147884	REC_WORD	wordpools/wasnorm_wordpool_576.txt	LTP123	ltpFR2	21	15	SCOTCH	1251	n/a	n/a	0	0	0
3149011	REC_WORD	wordpools/wasnorm_wordpool_576.txt	LTP123	ltpFR2	21	15	WAITRESS	1581	n/a	n/a	0	0	0
3156383	REC_WORD	wordpools/wasnorm_wordpool_576.txt	LTP123	ltpFR2	21	15	STUDENT	1395	n/a	n/a	0	0	0
3161129	REC_WORD	wordpools/wasnorm_wordpool_576.txt	LTP123	ltpFR2	21	15	GIRL	637	n/a	n/a	0	0	0
3208422	WORD	wordpools/wasnorm_wordpool_576.txt	LTP123	ltpFR2	21	16	RUST	1219	n/a	n/a	0	0	0
3211091	WORD	wordpools/wasnorm_wordpool_576.txt	LTP123	ltpFR2	21	16	CHAUFFEUR	283	n/a	n/a	0	0	0
3213943	WORD	wordpools/wasnorm_wordpool_576.txt	LTP123	ltpFR2	21	16	CEILING	265	n/a	n/a	0	0	0
3216545	WORD	wordpools/wasnorm_wordpool_576.txt	LTP123	ltpFR2	21	16	CAFE	216	n/a	n/a	0	0	0
3219114	WORD	wordpools/wasnorm_wordpool_576.txt	LTP123	ltpFR2	21	16	GLOBE	641	n/a	n/a	0	0	0
3221816	WORD	wordpools/wasnorm_wordpool_576.txt	LTP123	ltpFR2	21	16	NOVEL	960	n/a	n/a	0	0	0
3224618	WORD	wordpools/wasnorm_wordpool_576.txt	LTP123	ltpFR2	21	16	SOFTBALL	1343	n/a	n/a	0	0	0
3227237	WORD	wordpools/wasnorm_wordpool_576.txt	LTP123	ltpFR2	21	16	GARDEN	623	n/a	n/a	0	0	0
3229988	WORD	wordpools/wasnorm_wordpool_576.txt	LTP123	ltpFR2	21	16	OUTDOORS	987	n/a	n/a	0	0	0
3232790	WORD	wordpools/wasnorm_wordpool_576.txt	LTP123	ltpFR2	21	16	SHELF	1280	n/a	n/a	0	0	0
3235438	WORD	wordpools/wasnorm_wordpool_576.txt	LTP123	ltpFR2	21	16	WASP	1593	n/a	n/a	0	0	0
3238011	WORD	wordpools/wasnorm_wordpool_576.txt	LTP123	ltpFR2	21	16	PISTON	1076	n/a	n/a	0	0	0
3240580	WORD	wordpools/wasnorm_wordpool_576.txt	LTP123	ltpFR2	21	16	MISTER	901	n/a	n/a	0	0	0
3243100	WORD	wordpools/wasnorm_wordpool_576.txt	LTP123	ltpFR2	21	16	SPHINX	1349	n/a	n/a	0	0	0
3245635	WORD	wordpools/wasnorm_wordpool_576.txt	LTP123	ltpFR2	21	16	JUNGLE	764	n/a	n/a	0	0	0
3248171	WORD	wordpools/wasnorm_wordpool_576.txt	LTP123	ltpFR2	21	16	PRIMATE	1123	n/a	n/a	0	0	0
3250905	WORD	wordpools/wasnorm_wordpool_576.txt	LTP123	ltpFR2	21	16	MAILMAN	858	n/a	n/a	0	0	0
3253507	WORD	wordpools/wasnorm_wordpool_576.txt	LTP123	ltpFR2	21	16	MARS	873	n/a	n/a	0	0	0
3256127	WORD	wordpools/wasnorm_wordpool_576.txt	LTP123	ltpFR2	21	16	WINDOW	1611	n/a	n/a	0	0	0
3258912	WORD	wordpools/wasnorm_wordpool_576.txt	LTP123	ltpFR2	21	16	PEPPER	1047	n/a	n/a	0	0	0
3261397	WORD	wordpools/wasnorm_wordpool_576.txt	LTP123	ltpFR2	21	16	TART	1436	n/a	n/a	0	0	0
3264100	WORD	wordpools/wasnorm_wordpool_576.txt	LTP123	ltpFR2	21	16	TABLE	1426	n/a	n/a	0	0	0
3266602	WORD	wordpools/wasnorm_wordpool_576.txt	LTP123	ltpFR2	21	16	WARDROBE	1587	n/a	n/a	0	0	0
3269155	WORD	wordpools/wasnorm_wordpool_576.txt	LTP123	ltpFR2	21	16	MOP	916	n/a	n/a	0	0	0
3270789	START	n/a	LTP123	ltpFR2	21	n/a	n/a	n/a	23	n/a	n/a	n/a	n/a
3271684	DISTRACTOR	n/a	LTP123	ltpFR2	21	16	n/a	n/a	n/a	n/a	0	0	0
3271706	PROB	n/a	LTP123	ltpFR2	21	n/a	n/a	n/a	23	17	1	9	7
3273790	PROB	n/a	LTP123	ltpFR2	21	n/a	n/a	n/a	23	14	2	9	3
3275702	PROB	n/a	LTP123	ltpFR2	21	n/a	n/a	n/a	23	5	1	4	1
3277003	PROB	n/a	LTP123	ltpFR2	21	n/a	n/a	n/a	23	15	9	2	4
3280263	PROB	n/a	LTP123	ltpFR2	21	n/a	n/a	n/a	23	10	3	3	4
3281649	PROB	n/a	LTP123	ltpFR2	21	n/a	n/a	n/a	23	14	1	9	4
3282982	PROB	n/a	LTP123	ltpFR2	21	n/a	n/a	n/a	23	20	6	8	6
3284615	PROB	n/a	LTP123	ltpFR2	21	n/a	n/a	n/a	23	16	2	9	5
3286267	PROB	n/a	LTP123	ltpFR2	21	n/a	n/a	n/a	23	8	3	2	3
3287934	PROB	n/a	LTP123	ltpFR2	21	n/a	n/a	n/a	23	10	6	1	3
3289603	PROB	n/a	LTP123	ltpFR2	21	n/a	n/a	n/a	23	13	2	5	6
3291371	PROB	n/a	LTP123	ltpFR2	21	n/a	n/a	n/a	23	19	8	2	9
3292622	PROB	n/a	LTP123	ltpFR2	21	n/a	n/a	n/a	23	19	3	7	9
3293733	STOP	n/a	LTP123	ltpFR2	21	n/a	n/a	n/a	23	n/a	n/a	n/a	n/a
3296809	REC_START	n/a	LTP123	ltpFR2	21	16	n/a	n/a	n/a	n/a	0	0	0
3296869	REC_WORD	wordpools/wasnorm_wordpool_576.txt	LTP123	ltpFR2	21	16	PISTON	1076	n/a	n/a	0	0	0
3298585	REC_WORD	wordpools/wasnorm_wordpool_576.txt	LTP123	ltpFR2	21	16	TABLE	1426	n/a	n/a	0	0	0
3299140	REC_WORD	wordpools/wasnorm_wordpool_576.txt	LTP123	ltpFR2	21	16	WINDOW	1611	n/a	n/a	0	0	0
3300923	REC_WORD	wordpools/wasnorm_wordpool_576.txt	LTP123	ltpFR2	21	16	WASP	1593	n/a	n/a	0	0	0
3301821	REC_WORD	wordpools/wasnorm_wordpool_576.txt	LTP123	ltpFR2	21	16	PRIMATE	1123	n/a	n/a	0	0	0
3302689	REC_WORD	wordpools/wasnorm_wordpool_576.txt	LTP123	ltpFR2	21	16	JUDGE	761	n/a	n/a	0	0	0
3305518	REC_WORD	wordpools/wasnorm_wordpool_576.txt	LTP123	ltpFR2	21	16	MISTER	901	n/a	n/a	0	0	0
3307080	REC_WORD	wordpools/wasnorm_wordpool_576.txt	LTP123	ltpFR2	21	16	TART	1436	n/a	n/a	0	0	0
3307758	REC_WORD	wordpools/wasnorm_wordpool_576.txt	LTP123	ltpFR2	21	16	PEPPER	1047	n/a	n/a	0	0	0
3316193	REC_WORD	wordpools/wasnorm_wordpool_576.txt	LTP123	ltpFR2	21	16	RUST	1219	n/a	n/a	0	0	0
3318432	REC_WORD	wordpools/wasnorm_wordpool_576.txt	LTP123	ltpFR2	21	16	MOP	916	n/a	n/a	0	0	0
3338159	REC_WORD	wordpools/wasnorm_wordpool_576.txt	LTP123	ltpFR2	21	16	CAFE	216	n/a	n/a	0	0	0
3344184	REC_WORD	wordpools/wasnorm_wordpool_576.txt	LTP123	ltpFR2	21	16	CHAUFFEUR	283	n/a	n/a	0	0	0
3350273	REC_WORD	wordpools/wasnorm_wordpool_576.txt	LTP123	ltpFR2	21	16	GARDEN	623	n/a	n/a	0	0	0
3352564	REC_WORD	wordpools/wasnorm_wordpool_576.txt	LTP123	ltpFR2	21	16	OUTDOORS	987	n/a	n/a	0	0	0
3373388	REST_REWET	n/a	LTP123	ltpFR2	21	16	n/a	n/a	n/a	n/a	0	0	0
3752875	DISTRACTOR	n/a	LTP123	ltpFR2	21	17	n/a	n/a	n/a	n/a	0	0	0
3752875	START	n/a	LTP123	ltpFR2	21	n/a	n/a	n/a	24	n/a	n/a	n/a	n/a
3752924	PROB	n/a	LTP123	ltpFR2	21	n/a	n/a	n/a	24	9	1	5	3
3754696	PROB	n/a	LTP123	ltpFR2	21	n/a	n/a	n/a	24	5	1	4	1
3756026	PROB	n/a	LTP123	ltpFR2	21	n/a	n/a	n/a	24	11	8	2	1
3758512	PROB	n/a	LTP123	ltpFR2	21	n/a	n/a	n/a	24	14	5	1	8
3761332	PROB	n/a	LTP123	ltpFR2	21	n/a	n/a	n/a	24	6	1	1	4
3762782	PROB	n/a	LTP123	ltpFR2	21	n/a	n/a	n/a	24	17	7	3	7
3764300	PROB	n/a	LTP123	ltpFR2	21	n/a	n/a	n/a	24	21	9	6	6
3766685	PROB	n/a	LTP123	ltpFR2	21	n/a	n/a	n/a	24	12	5	1	6
3768537	PROB	n/a	LTP123	ltpFR2	21	n/a	n/a	n/a	24	11	6	1	4
3769838	PROB	n/a	LTP123	ltpFR2	21	n/a	n/a	n/a	24	21	7	9	5
3772022	PROB	n/a	LTP123	ltpFR2	21	n/a	n/a	n/a	24	23	8	9	6
3774674	PROB	n/a	LTP123	ltpFR2	21	n/a	n/a	n/a	24	15	1	6	8
3776145	STOP	n/a	LTP123	ltpFR2	21	n/a	n/a	n/a	24	n/a	n/a	n/a	n/a
3778062	WORD	wordpools/wasnorm_wordpool_576.txt	LTP123	ltpFR2	21	17	LAKE	796	n/a	n/a	0	0	0
3780848	WORD	wordpools/wasnorm_wordpool_576.txt	LTP123	ltpFR2	21	17	SEAFOOD	1260	n/a	n/a	0	0	0
3783493	WORD	wordpools/wasnorm_wordpool_576.txt	LTP123	ltpFR2	21	17	REPORT	1184	n/a	n/a	0	0	0
3786219	WORD	wordpools/wasnorm_wordpool_576.txt	LTP123	ltpFR2	21	17	HANDBAG	684	n/a	n/a	0	0	0
3788787	WORD	wordpools/wasnorm_wordpool_576.txt	LTP123	ltpFR2	21	17	POSSUM	1112	n/a	n/a	0	0	0
3791322	WORD	wordpools/wasnorm_wordpool_576.txt	LTP123	ltpFR2	21	17	GLOVE	642	n/a	n/a	0	0	0
3793823	WORD	wordpools/wasnorm_wordpool_576.txt	LTP123	ltpFR2	21	17	WRIST	1626	n/a	n/a	0	0	0
3796509	WORD	wordpools/wasnorm_wordpool_576.txt	LTP123	ltpFR2	21	17	PEACH	1031	n/a	n/a	0	0	0
3799196	WORD	wordpools/wasnorm_wordpool_576.txt	LTP123	ltpFR2	21	17	HORNET	718	n/a	n/a	0	0	0
3801914	WORD	wordpools/wasnorm_wordpool_576.txt	LTP123	ltpFR2	21	17	BINDER	127	n/a	n/a	0	0	0
3804733	WORD	wordpools/wasnorm_wordpool_576.txt	LTP123	ltpFR2	21	17	COURSE	390	n/a	n/a	0	0	0
3807319	WORD	wordpools/wasnorm_wordpool_576.txt	LTP123	ltpFR2	21	17	ORANGE	980	n/a	n/a	0	0	0
3809920	WORD	wordpools/wasnorm_wordpool_576.txt	LTP123	ltpFR2	21	17	YACHT	1629	n/a	n/a	0	0	0
3812506	WORD	wordpools/wasnorm_wordpool_576.txt	LTP123	ltpFR2	21	17	BUCKET	184	n/a	n/a	0	0	0
3815009	WORD	wordpools/wasnorm_wordpool_576.txt	LTP123	ltpFR2	21	17	COSTUME	383	n/a	n/a	0	0	0
3817493	WORD	wordpools/wasnorm_wordpool_576.txt	LTP123	ltpFR2	21	17	PEANUT	1032	n/a	n/a	0	0	0
3820296	WORD	wordpools/wasnorm_wordpool_576.txt	LTP123	ltpFR2	21	17	BOX	159	n/a	n/a	0	0	0
3823064	WORD	wordpools/wasnorm_wordpool_576.txt	LTP123	ltpFR2	21	17	PADDLE	1000	n/a	n/a	0	0	0
3825549	WORD	wordpools/wasnorm_wordpool_576.txt	LTP123	ltpFR2	21	17	NAPKIN	937	n/a	n/a	0	0	0
3828180	WORD	wordpools/wasnorm_wordpool_576.txt	LTP123	ltpFR2	21	17	DRILL	497	n/a	n/a	0	0	0
3830738	WORD	wordpools/wasnorm_wordpool_576.txt	LTP123	ltpFR2	21	17	TEMPLE	1448	n/a	n/a	0	0	0
3833357	WORD	wordpools/wasnorm_wordpool_576.txt	LTP123	ltpFR2	21	17	CHEST	295	n/a	n/a	0	0	0
3835907	WORD	wordpools/wasnorm_wordpool_576.txt	LTP123	ltpFR2	21	17	FINGER	567	n/a	n/a	0	0	0
3838743	WORD	wordpools/wasnorm_wordpool_576.txt	LTP123	ltpFR2	21	17	HAND	683	n/a	n/a	0	0	0
3840363	START	n/a	LTP123	ltpFR2	21	n/a	n/a	n/a	25	n/a	n/a	n/a	n/a
3841222	DISTRACTOR	n/a	LTP123	ltpFR2	21	17	n/a	n/a	n/a	n/a	0	0	0
3841246	PROB	n/a	LTP123	ltpFR2	21	n/a	n/a	n/a	25	16	6	4	6
3843347	PROB	n/a	LTP123	ltpFR2	21	n/a	n/a	n/a	25	14	2	7	5
3846766	PROB	n/a	LTP123	ltpFR2	21	n/a	n/a	n/a	25	15	5	2	8
3848351	PROB	n/a	LTP123	ltpFR2	21	n/a	n/a	n/a	25	16	2	7	7
3849918	PROB	n/a	LTP123	ltpFR2	21	n/a	n/a	n/a	25	13	4	7	2
3851553	PROB	n/a	LTP123	ltpFR2	21	n/a	n/a	n/a	25	20	7	4	9
3853222	PROB	n/a	LTP123	ltpFR2	21	n/a	n/a	n/a	25	15	5	6	4
3854733	PROB	n/a	LTP123	ltpFR2	21	n/a	n/a	n/a	25	14	2	8	4
3856124	PROB	n/a	LTP123	ltpFR2	21	n/a	n/a	n/a	25	13	5	1	7
3858025	PROB	n/a	LTP123	ltpFR2	21	n/a	n/a	n/a	25	11	1	8	2
3859459	PROB	n/a	LTP123	ltpFR2	21	n/a	n/a	n/a	25	17	2	9	6
3861206	PROB	n/a	LTP123	ltpFR2	21	n/a	n/a	n/a	25	20	6	5	9
3862748	STOP	n/a	LTP123	ltpFR2	21	n/a	n/a	n/a	25	n/a	n/a	n/a	n/a
3866233	REC_START	n/a	LTP123	ltpFR2	21	17	n/a	n/a	n/a	n/a	0	0	0
3866603	REC_WORD	wordpools/wasnorm_wordpool_576.txt	LTP123	ltpFR2	21	17	PEACH	1031	n/a	n/a	0	0	0
3867159	REC_WORD	wordpools/wasnorm_wordpool_576.txt	LTP123	ltpFR2	21	17	ORANGE	980	n/a	n/a	0	0	0
3867636	REC_WORD	wordpools/wasnorm_wordpool_576.txt	LTP123	ltpFR2	21	17	YACHT	1629	n/a	n/a	0	0	0
3868185	REC_WORD	wordpools/wasnorm_wordpool_576.txt	LTP123	ltpFR2	21	17	PADDLE	1000	n/a	n/a	0	0	0
3869740	REC_WORD	wordpools/wasnorm_wordpool_576.txt	LTP123	ltpFR2	21	17	LAKE	796	n/a	n/a	0	0	0
3872713	REC_WORD	wordpools/wasnorm_wordpool_576.txt	LTP123	ltpFR2	21	17	WRIST	1626	n/a	n/a	0	0	0
3873399	REC_WORD	wordpools/wasnorm_wordpool_576.txt	LTP123	ltpFR2	21	17	FINGER	567	n/a	n/a	0	0	0
3873949	REC_WORD	wordpools/wasnorm_wordpool_576.txt	LTP123	ltpFR2	21	17	HAND	683	n/a	n/a	0	0	0
3874935	REC_WORD	wordpools/wasnorm_wordpool_576.txt	LTP123	ltpFR2	21	17	GLOVE	642	n/a	n/a	0	0	0
3875701	REC_WORD	wordpools/wasnorm_wordpool_576.txt	LTP123	ltpFR2	21	17	CHEST	295	n/a	n/a	0	0	0
3876616	REC_WORD	wordpools/wasnorm_wordpool_576.txt	LTP123	ltpFR2	21	17	TEMPLE	1448	n/a	n/a	0	0	0
3880441	REC_WORD	wordpools/wasnorm_wordpool_576.txt	LTP123	ltpFR2	21	17	BOX	159	n/a	n/a	0	0	0
3886261	REC_WORD	wordpools/wasnorm_wordpool_576.txt	LTP123	ltpFR2	21	17	REPORT	1184	n/a	n/a	0	0	0
3886931	REC_WORD	wordpools/wasnorm_wordpool_576.txt	LTP123	ltpFR2	21	17	BINDER	127	n/a	n/a	0	0	0
3889517	REC_WORD	wordpools/wasnorm_wordpool_576.txt	LTP123	ltpFR2	21	17	COURSE	390	n/a	n/a	0	0	0
3894070	REC_WORD	wordpools/wasnorm_wordpool_576.txt	LTP123	ltpFR2	21	17	COSTUME	383	n/a	n/a	0	0	0
3911804	REC_WORD	wordpools/wasnorm_wordpool_576.txt	LTP123	ltpFR2	21	17	POSSUM	1112	n/a	n/a	0	0	0
3917384	REC_WORD	wordpools/wasnorm_wordpool_576.txt	LTP123	ltpFR2	21	17	CABIN	211	n/a	n/a	0	0	0
3956923	DISTRACTOR	n/a	LTP123	ltpFR2	21	18	n/a	n/a	n/a	n/a	0	0	0
3956923	START	n/a	LTP123	ltpFR2	21	n/a	n/a	n/a	26	n/a	n/a	n/a	n/a
3956972	PROB	n/a	LTP123	ltpFR2	21	n/a	n/a	n/a	26	18	5	6	7
3958906	PROB	n/a	LTP123	ltpFR2	21	n/a	n/a	n/a	26	18	9	8	1
3960258	PROB	n/a	LTP123	ltpFR2	21	n/a	n/a	n/a	26	21	9	4	8
3962476	PROB	n/a	LTP123	ltpFR2	21	n/a	n/a	n/a	26	12	8	3	1
3964328	PROB	n/a	LTP123	ltpFR2	21	n/a	n/a	n/a	26	17	7	9	1
3965680	PROB	n/a	LTP123	ltpFR2	21	n/a	n/a	n/a	26	16	6	4	6
3966913	PROB	n/a	LTP123	ltpFR2	21	n/a	n/a	n/a	26	18	9	5	4
3968480	PROB	n/a	LTP123	ltpFR2	21	n/a	n/a	n/a	26	15	5	9	1
3969748	PROB	n/a	LTP123	ltpFR2	21	n/a	n/a	n/a	26	12	3	6	3
3972950	PROB	n/a	LTP123	ltpFR2	21	n/a	n/a	n/a	26	9	1	7	1
3974169	PROB	n/a	LTP123	ltpFR2	21	n/a	n/a	n/a	26	19	9	9	1
3975419	PROB	n/a	LTP123	ltpFR2	21	n/a	n/a	n/a	26	22	8	7	7
3977255	PROB	n/a	LTP123	ltpFR2	21	n/a	n/a	n/a	26	15	7	5	3
3979089	PROB	n/a	LTP123	ltpFR2	21	n/a	n/a	n/a	26	21	9	3	9
3980664	STOP	n/a	LTP123	ltpFR2	21	n/a	n/a	n/a	26	n/a	n/a	n/a	n/a
3982059	WORD	wordpools/wasnorm_wordpool_576.txt	LTP123	ltpFR2	21	18	ROCKET	1202	n/a	n/a	0	0	0
3984543	WORD	wordpools/wasnorm_wordpool_576.txt	LTP123	ltpFR2	21	18	BRIEFCASE	175	n/a	n/a	0	0	0
3987247	WORD	wordpools/wasnorm_wordpool_576.txt	LTP123	ltpFR2	21	18	COWBOY	395	n/a	n/a	0	0	0
3989998	WORD	wordpools/wasnorm_wordpool_576.txt	LTP123	ltpFR2	21	18	FOOTBALL	591	n/a	n/a	0	0	0
3992601	WORD	wordpools/wasnorm_wordpool_576.txt	LTP123	ltpFR2	21	18	SWAMP	1416	n/a	n/a	0	0	0
3995437	WORD	wordpools/wasnorm_wordpool_576.txt	LTP123	ltpFR2	21	18	RAFT	1159	n/a	n/a	0	0	0
3998238	WORD	wordpools/wasnorm_wordpool_576.txt	LTP123	ltpFR2	21	18	PATROL	1027	n/a	n/a	0	0	0
4000857	WORD	wordpools/wasnorm_wordpool_576.txt	LTP123	ltpFR2	21	18	BOUQUET	157	n/a	n/a	0	0	0
4003425	WORD	wordpools/wasnorm_wordpool_576.txt	LTP123	ltpFR2	21	18	ACTRESS	6	n/a	n/a	0	0	0
4006279	WORD	wordpools/wasnorm_wordpool_576.txt	LTP123	ltpFR2	21	18	LUMBER	848	n/a	n/a	0	0	0
4008963	WORD	wordpools/wasnorm_wordpool_576.txt	LTP123	ltpFR2	21	18	GALLON	618	n/a	n/a	0	0	0
4011682	WORD	wordpools/wasnorm_wordpool_576.txt	LTP123	ltpFR2	21	18	BEAVER	109	n/a	n/a	0	0	0
4014417	WORD	wordpools/wasnorm_wordpool_576.txt	LTP123	ltpFR2	21	18	CHIPMUNK	304	n/a	n/a	0	0	0
4016936	WORD	wordpools/wasnorm_wordpool_576.txt	LTP123	ltpFR2	21	18	MONEY	908	n/a	n/a	0	0	0
4019638	WORD	wordpools/wasnorm_wordpool_576.txt	LTP123	ltpFR2	21	18	SPOOL	1356	n/a	n/a	0	0	0
4022375	WORD	wordpools/wasnorm_wordpool_576.txt	LTP123	ltpFR2	21	18	PASTRY	1022	n/a	n/a	0	0	0
4025111	WORD	wordpools/wasnorm_wordpool_576.txt	LTP123	ltpFR2	21	18	DUSTPAN	509	n/a	n/a	0	0	0
4027962	WORD	wordpools/wasnorm_wordpool_576.txt	LTP123	ltpFR2	21	18	DUST	508	n/a	n/a	0	0	0
4030496	WORD	wordpools/wasnorm_wordpool_576.txt	LTP123	ltpFR2	21	18	PUDDLE	1140	n/a	n/a	0	0	0
4033201	WORD	wordpools/wasnorm_wordpool_576.txt	LTP123	ltpFR2	21	18	LIZARD	834	n/a	n/a	0	0	0
4036018	WORD	wordpools/wasnorm_wordpool_576.txt	LTP123	ltpFR2	21	18	GRAVE	658	n/a	n/a	0	0	0
4038470	WORD	wordpools/wasnorm_wordpool_576.txt	LTP123	ltpFR2	21	18	GANGSTER	620	n/a	n/a	0	0	0
4041140	WORD	wordpools/wasnorm_wordpool_576.txt	LTP123	ltpFR2	21	18	HUMAN	726	n/a	n/a	0	0	0
4043957	WORD	wordpools/wasnorm_wordpool_576.txt	LTP123	ltpFR2	21	18	YARN	1631	n/a	n/a	0	0	0
4045577	START	n/a	LTP123	ltpFR2	21	n/a	n/a	n/a	27	n/a	n/a	n/a	n/a
4046731	DISTRACTOR	n/a	LTP123	ltpFR2	21	18	n/a	n/a	n/a	n/a	0	0	0
4046760	PROB	n/a	LTP123	ltpFR2	21	n/a	n/a	n/a	27	22	8	9	5
4049145	PROB	n/a	LTP123	ltpFR2	21	n/a	n/a	n/a	27	12	6	1	5
4050663	PROB	n/a	LTP123	ltpFR2	21	n/a	n/a	n/a	27	21	9	8	4
4053108	PROB	n/a	LTP123	ltpFR2	21	n/a	n/a	n/a	27	15	9	5	1
4054449	PROB	n/a	LTP123	ltpFR2	21	n/a	n/a	n/a	27	17	5	9	3
4056352	PROB	n/a	LTP123	ltpFR2	21	n/a	n/a	n/a	27	19	3	7	9
4057669	PROB	n/a	LTP123	ltpFR2	21	n/a	n/a	n/a	27	19	5	9	5
4059087	PROB	n/a	LTP123	ltpFR2	21	n/a	n/a	n/a	27	15	4	4	7
4060671	PROB	n/a	LTP123	ltpFR2	21	n/a	n/a	n/a	27	13	9	1	3
4062018	PROB	n/a	LTP123	ltpFR2	21	n/a	n/a	n/a	27	6	1	4	1
4063824	PROB	n/a	LTP123	ltpFR2	21	n/a	n/a	n/a	27	15	2	7	6
4066109	PROB	n/a	LTP123	ltpFR2	21	n/a	n/a	n/a	27	13	3	1	9
4067343	PROB	n/a	LTP123	ltpFR2	21	n/a	n/a	n/a	27	17	8	6	3
4069036	STOP	n/a	LTP123	ltpFR2	21	n/a	n/a	n/a	27	n/a	n/a	n/a	n/a
4071497	REC_START	n/a	LTP123	ltpFR2	21	18	n/a	n/a	n/a	n/a	0	0	0
4071614	REC_WORD	wordpools/wasnorm_wordpool_576.txt	LTP123	ltpFR2	21	18	SPOOL	1356	n/a	n/a	0	0	0
4072385	REC_WORD	wordpools/wasnorm_wordpool_576.txt	LTP123	ltpFR2	21	18	YARN	1631	n/a	n/a	0	0	0
4073034	REC_WORD	wordpools/wasnorm_wordpool_576.txt	LTP123	ltpFR2	21	18	DUST	508	n/a	n/a	0	0	0
4073593	REC_WORD	wordpools/wasnorm_wordpool_576.txt	LTP123	ltpFR2	21	18	DUSTPAN	509	n/a	n/a	0	0	0
4074232	REC_WORD	wordpools/wasnorm_wordpool_576.txt	LTP123	ltpFR2	21	18	COWBOY	395	n/a	n/a	0	0	0
4076942	REC_WORD	wordpools/wasnorm_wordpool_576.txt	LTP123	ltpFR2	21	18	SWAMP	1416	n/a	n/a	0	0	0
4078299	REC_WORD	wordpools/wasnorm_wordpool_576.txt	LTP123	ltpFR2	21	18	RAFT	1159	n/a	n/a	0	0	0
4079911	REC_WORD	wordpools/wasnorm_wordpool_576.txt	LTP123	ltpFR2	21	18	PUDDLE	1140	n/a	n/a	0	0	0
4082456	REC_WORD	wordpools/wasnorm_wordpool_576.txt	LTP123	ltpFR2	21	18	BEAVER	109	n/a	n/a	0	0	0
4083000	REC_WORD	wordpools/wasnorm_wordpool_576.txt	LTP123	ltpFR2	21	18	CHIPMUNK	304	n/a	n/a	0	0	0
4085516	REC_WORD	wordpools/wasnorm_wordpool_576.txt	LTP123	ltpFR2	21	18	MONEY	908	n/a	n/a	0	0	0
4087932	REC_WORD	wordpools/wasnorm_wordpool_576.txt	LTP123	ltpFR2	21	18	PATROL	1027	n/a	n/a	0	0	0
4105663	REC_WORD	wordpools/wasnorm_wordpool_576.txt	LTP123	ltpFR2	21	18	ROCKET	1202	n/a	n/a	0	0	0
4116515	REC_WORD	wordpools/wasnorm_wordpool_576.txt	LTP123	ltpFR2	21	18	WASP	1593	n/a	n/a	0	0	0
4120746	REC_WORD	wordpools/wasnorm_wordpool_576.txt	LTP123	ltpFR2	21	18	BOUQUET	157	n/a	n/a	0	0	0
4125721	REC_WORD	wordpools/wasnorm_wordpool_576.txt	LTP123	ltpFR2	21	18	ACTRESS	6	n/a	n/a	0	0	0
4162203	WORD	wordpools/wasnorm_wordpool_576.txt	LTP123	ltpFR2	21	19	LUNCH	849	n/a	n/a	0	0	0
4164688	WORD	wordpools/wasnorm_wordpool_576.txt	LTP123	ltpFR2	21	19	SAUSAGE	1238	n/a	n/a	0	0	0
4167359	WORD	wordpools/wasnorm_wordpool_576.txt	LTP123	ltpFR2	21	19	FLASHLIGHT	575	n/a	n/a	0	0	0
4170003	WORD	wordpools/wasnorm_wordpool_576.txt	LTP123	ltpFR2	21	19	VIKING	1565	n/a	n/a	0	0	0
4172544	WORD	wordpools/wasnorm_wordpool_576.txt	LTP123	ltpFR2	21	19	BROOK	177	n/a	n/a	0	0	0
4175063	WORD	wordpools/wasnorm_wordpool_576.txt	LTP123	ltpFR2	21	19	TWEEZERS	1526	n/a	n/a	0	0	0
4177631	WORD	wordpools/wasnorm_wordpool_576.txt	LTP123	ltpFR2	21	19	HIKER	708	n/a	n/a	0	0	0
4180335	WORD	wordpools/wasnorm_wordpool_576.txt	LTP123	ltpFR2	21	19	TROUT	1511	n/a	n/a	0	0	0
4183003	WORD	wordpools/wasnorm_wordpool_576.txt	LTP123	ltpFR2	21	19	BODY	145	n/a	n/a	0	0	0
4185705	WORD	wordpools/wasnorm_wordpool_576.txt	LTP123	ltpFR2	21	19	KITCHEN	778	n/a	n/a	0	0	0
4188174	WORD	wordpools/wasnorm_wordpool_576.txt	LTP123	ltpFR2	21	19	CYCLONE	431	n/a	n/a	0	0	0
4190876	WORD	wordpools/wasnorm_wordpool_576.txt	LTP123	ltpFR2	21	19	PERMIT	1051	n/a	n/a	0	0	0
4193645	WORD	wordpools/wasnorm_wordpool_576.txt	LTP123	ltpFR2	21	19	CLOTHES	327	n/a	n/a	0	0	0
4196463	WORD	wordpools/wasnorm_wordpool_576.txt	LTP123	ltpFR2	21	19	JAPAN	749	n/a	n/a	0	0	0
4199250	WORD	wordpools/wasnorm_wordpool_576.txt	LTP123	ltpFR2	21	19	HEADBAND	696	n/a	n/a	0	0	0
4201717	WORD	wordpools/wasnorm_wordpool_576.txt	LTP123	ltpFR2	21	19	CRITIC	410	n/a	n/a	0	0	0
4204404	WORD	wordpools/wasnorm_wordpool_576.txt	LTP123	ltpFR2	21	19	FILM	565	n/a	n/a	0	0	0
4207021	WORD	wordpools/wasnorm_wordpool_576.txt	LTP123	ltpFR2	21	19	CIGAR	308	n/a	n/a	0	0	0
4209691	WORD	wordpools/wasnorm_wordpool_576.txt	LTP123	ltpFR2	21	19	ONION	977	n/a	n/a	0	0	0
4212426	WORD	wordpools/wasnorm_wordpool_576.txt	LTP123	ltpFR2	21	19	DENIM	446	n/a	n/a	0	0	0
4214978	WORD	wordpools/wasnorm_wordpool_576.txt	LTP123	ltpFR2	21	19	KEEPER	769	n/a	n/a	0	0	0
4217747	WORD	wordpools/wasnorm_wordpool_576.txt	LTP123	ltpFR2	21	19	GARBAGE	622	n/a	n/a	0	0	0
4220416	WORD	wordpools/wasnorm_wordpool_576.txt	LTP123	ltpFR2	21	19	DRESSER	496	n/a	n/a	0	0	0
4222871	WORD	wordpools/wasnorm_wordpool_576.txt	LTP123	ltpFR2	21	19	SHELTER	1282	n/a	n/a	0	0	0
4224504	START	n/a	LTP123	ltpFR2	21	n/a	n/a	n/a	28	n/a	n/a	n/a	n/a
4225548	DISTRACTOR	n/a	LTP123	ltpFR2	21	19	n/a	n/a	n/a	n/a	0	0	0
4225570	PROB	n/a	LTP123	ltpFR2	21	n/a	n/a	n/a	28	15	1	8	6
4227615	PROB	n/a	LTP123	ltpFR2	21	n/a	n/a	n/a	28	19	8	8	3
4229906	PROB	n/a	LTP123	ltpFR2	21	n/a	n/a	n/a	28	20	9	4	7
4233593	PROB	n/a	LTP123	ltpFR2	21	n/a	n/a	n/a	28	18	5	8	5
4235062	PROB	n/a	LTP123	ltpFR2	21	n/a	n/a	n/a	28	19	8	8	3
4236879	PROB	n/a	LTP123	ltpFR2	21	n/a	n/a	n/a	28	18	5	8	5
4238298	PROB	n/a	LTP123	ltpFR2	21	n/a	n/a	n/a	28	14	9	1	4
4239631	PROB	n/a	LTP123	ltpFR2	21	n/a	n/a	n/a	28	21	3	9	9
4241510	PROB	n/a	LTP123	ltpFR2	21	n/a	n/a	n/a	28	24	8	8	8
4242917	PROB	n/a	LTP123	ltpFR2	21	n/a	n/a	n/a	28	13	7	5	1
4245153	PROB	n/a	LTP123	ltpFR2	21	n/a	n/a	n/a	28	14	4	5	5
4248503	STOP	n/a	LTP123	ltpFR2	21	n/a	n/a	n/a	28	n/a	n/a	n/a	n/a
4250392	REC_START	n/a	LTP123	ltpFR2	21	19	n/a	n/a	n/a	n/a	0	0	0
4250492	REC_WORD	wordpools/wasnorm_wordpool_576.txt	LTP123	ltpFR2	21	19	CYCLONE	431	n/a	n/a	0	0	0
4251270	REC_WORD	wordpools/wasnorm_wordpool_576.txt	LTP123	ltpFR2	21	19	JAPAN	749	n/a	n/a	0	0	0
4252049	REC_WORD	wordpools/wasnorm_wordpool_576.txt	LTP123	ltpFR2	21	19	HIKER	708	n/a	n/a	0	0	0
4252747	REC_WORD	wordpools/wasnorm_wordpool_576.txt	LTP123	ltpFR2	21	19	TWEEZERS	1526	n/a	n/a	0	0	0
4253374	REC_WORD	wordpools/wasnorm_wordpool_576.txt	LTP123	ltpFR2	21	19	HEADBAND	696	n/a	n/a	0	0	0
4254220	REC_WORD	wordpools/wasnorm_wordpool_576.txt	LTP123	ltpFR2	21	19	FLASHLIGHT	575	n/a	n/a	0	0	0
4256512	REC_WORD	wordpools/wasnorm_wordpool_576.txt	LTP123	ltpFR2	21	19	TROUT	1511	n/a	n/a	0	0	0
4259764	REC_WORD	wordpools/wasnorm_wordpool_576.txt	LTP123	ltpFR2	21	19	KEEPER	769	n/a	n/a	0	0	0
4262764	REC_WORD	wordpools/wasnorm_wordpool_576.txt	LTP123	ltpFR2	21	19	SAUSAGE	1238	n/a	n/a	0	0	0
4263549	REC_WORD	wordpools/wasnorm_wordpool_576.txt	LTP123	ltpFR2	21	19	LUNCH	849	n/a	n/a	0	0	0
4277816	REC_WORD	wordpools/wasnorm_wordpool_576.txt	LTP123	ltpFR2	21	19	GARBAGE	622	n/a	n/a	0	0	0
4278466	REC_WORD	wordpools/wasnorm_wordpool_576.txt	LTP123	ltpFR2	21	19	ONION	977	n/a	n/a	0	0	0
4280817	REC_WORD	wordpools/wasnorm_wordpool_576.txt	LTP123	ltpFR2	21	19	CLOTHES	327	n/a	n/a	0	0	0
4281487	REC_WORD	wordpools/wasnorm_wordpool_576.txt	LTP123	ltpFR2	21	19	DRESSER	496	n/a	n/a	0	0	0
4283934	REC_WORD	wordpools/wasnorm_wordpool_576.txt	LTP123	ltpFR2	21	19	BODY	145	n/a	n/a	0	0	0
