mstime	trial_type	stim_file	subject	experiment	session	trial	task	item_name	item_num	recog_resp	recog_conf	resp	color_r	color_g	color_b	case	font
0	SESS_START	n/a	LTP209	ltpFR	14	n/a	n/a	n/a	n/a	0	5	n/a	n/a	n/a	n/a	n/a	n/a
118943	WORD	wordpools/wasnorm_wordpool_less_exclusions.txt	LTP209	ltpFR	14	1	0	UMPIRE	1535	0	n/a	1	0.57763671875	0.412841796875	1	lower	zerothre.ttf
122924	WORD	wordpools/wasnorm_wordpool_less_exclusions.txt	LTP209	ltpFR	14	1	0	CANNON	232	n/a	n/a	1	0.57763671875	0.412841796875	1	lower	zerothre.ttf
127007	WORD	wordpools/wasnorm_wordpool_less_exclusions.txt	LTP209	ltpFR	14	1	0	DRAWER	493	n/a	n/a	1	0.57763671875	0.412841796875	1	lower	zerothre.ttf
131106	WORD	wordpools/wasnorm_wordpool_less_exclusions.txt	LTP209	ltpFR	14	1	0	LOUNGE	845	n/a	n/a	1	0.57763671875	0.412841796875	1	lower	zerothre.ttf
135289	WORD	wordpools/wasnorm_wordpool_less_exclusions.txt	LTP209	ltpFR	14	1	0	TABLE	1426	n/a	n/a	1	0.57763671875	0.412841796875	1	lower	zerothre.ttf
139153	WORD	wordpools/wasnorm_wordpool_less_exclusions.txt	LTP209	ltpFR	14	1	0	PARROT	1015	n/a	n/a	1	0.57763671875	0.412841796875	1	lower	zerothre.ttf
143319	WORD	wordpools/wasnorm_wordpool_less_exclusions.txt	LTP209	ltpFR	14	1	1	WARRIOR	1589	n/a	n/a	1	0.422607421875	0.5869140625	0	upper	amplitud.ttf
147384	WORD	wordpools/wasnorm_wordpool_less_exclusions.txt	LTP209	ltpFR	14	1	1	CELERY	266	n/a	n/a	1	0.422607421875	0.5869140625	0	upper	amplitud.ttf
151582	WORD	wordpools/wasnorm_wordpool_less_exclusions.txt	LTP209	ltpFR	14	1	0	BUREAU	199	n/a	n/a	1	0.57763671875	0.412841796875	1	lower	zerothre.ttf
155597	WORD	wordpools/wasnorm_wordpool_less_exclusions.txt	LTP209	ltpFR	14	1	0	WALNUT	1584	n/a	n/a	0	0.57763671875	0.412841796875	1	lower	zerothre.ttf
159813	WORD	wordpools/wasnorm_wordpool_less_exclusions.txt	LTP209	ltpFR	14	1	1	TRIBE	1505	n/a	n/a	1	0.422607421875	0.5869140625	0	upper	amplitud.ttf
163778	WORD	wordpools/wasnorm_wordpool_less_exclusions.txt	LTP209	ltpFR	14	1	1	MOTH	920	n/a	n/a	1	0.422607421875	0.5869140625	0	upper	amplitud.ttf
167824	WORD	wordpools/wasnorm_wordpool_less_exclusions.txt	LTP209	ltpFR	14	1	1	ANTEATER	26	n/a	n/a	1	0.422607421875	0.5869140625	0	upper	amplitud.ttf
171994	WORD	wordpools/wasnorm_wordpool_less_exclusions.txt	LTP209	ltpFR	14	1	1	KITCHEN	778	n/a	n/a	0	0.422607421875	0.5869140625	0	upper	amplitud.ttf
175924	WORD	wordpools/wasnorm_wordpool_less_exclusions.txt	LTP209	ltpFR	14	1	1	EUROPE	541	n/a	n/a	0	0.422607421875	0.5869140625	0	upper	amplitud.ttf
180037	WORD	wordpools/wasnorm_wordpool_less_exclusions.txt	LTP209	ltpFR	14	1	1	TOY	1492	n/a	n/a	0	0.422607421875	0.5869140625	0	upper	amplitud.ttf
186064	REC_START	n/a	LTP209	ltpFR	14	1	n/a	n/a	n/a	n/a	n/a	n/a	n/a	n/a	n/a	n/a	n/a
188079	REC_WORD	wordpools/wasnorm_wordpool_less_exclusions.txt	LTP209	ltpFR	14	1	1	TOY	1492	n/a	n/a	0	n/a	n/a	n/a	n/a	n/a
189112	REC_WORD	wordpools/wasnorm_wordpool_less_exclusions.txt	LTP209	ltpFR	14	1	1	ANTEATER	26	n/a	n/a	1	n/a	n/a	n/a	n/a	n/a
190224	REC_WORD	wordpools/wasnorm_wordpool_less_exclusions.txt	LTP209	ltpFR	14	1	1	KITCHEN	778	n/a	n/a	0	n/a	n/a	n/a	n/a	n/a
191457	REC_WORD	wordpools/wasnorm_wordpool_less_exclusions.txt	LTP209	ltpFR	14	1	1	WARRIOR	1589	n/a	n/a	1	n/a	n/a	n/a	n/a	n/a
197465	REC_WORD	wordpools/wasnorm_wordpool_less_exclusions.txt	LTP209	ltpFR	14	1	1	CELERY	266	n/a	n/a	1	n/a	n/a	n/a	n/a	n/a
204647	REC_WORD	wordpools/wasnorm_wordpool_less_exclusions.txt	LTP209	ltpFR	14	1	0	LOUNGE	845	n/a	n/a	1	n/a	n/a	n/a	n/a	n/a
205779	REC_WORD	wordpools/wasnorm_wordpool_less_exclusions.txt	LTP209	ltpFR	14	1	0	BUREAU	199	n/a	n/a	1	n/a	n/a	n/a	n/a	n/a
206747	REC_WORD	wordpools/wasnorm_wordpool_less_exclusions.txt	LTP209	ltpFR	14	1	0	DRAWER	493	n/a	n/a	1	n/a	n/a	n/a	n/a	n/a
215133	REC_WORD	wordpools/wasnorm_wordpool_less_exclusions.txt	LTP209	ltpFR	14	1	0	WALNUT	1584	n/a	n/a	0	n/a	n/a	n/a	n/a	n/a
266432	WORD	wordpools/wasnorm_wordpool_less_exclusions.txt	LTP209	ltpFR	14	2	1	TONGUE	1479	n/a	n/a	1	0.422607421875	0.5869140625	0	upper	amplitud.ttf
270361	WORD	wordpools/wasnorm_wordpool_less_exclusions.txt	LTP209	ltpFR	14	2	1	PEDESTRIAN	1038	n/a	n/a	1	0.422607421875	0.5869140625	0	upper	amplitud.ttf
274276	WORD	wordpools/wasnorm_wordpool_less_exclusions.txt	LTP209	ltpFR	14	2	1	STABLE	1363	n/a	n/a	0	0.422607421875	0.5869140625	0	upper	amplitud.ttf
278127	WORD	wordpools/wasnorm_wordpool_less_exclusions.txt	LTP209	ltpFR	14	2	1	CLIMBER	323	n/a	n/a	1	0.422607421875	0.5869140625	0	upper	amplitud.ttf
282008	WORD	wordpools/wasnorm_wordpool_less_exclusions.txt	LTP209	ltpFR	14	2	1	SIDING	1304	n/a	n/a	0	0.422607421875	0.5869140625	0	upper	amplitud.ttf
285872	WORD	wordpools/wasnorm_wordpool_less_exclusions.txt	LTP209	ltpFR	14	2	1	TYPIST	1532	n/a	n/a	1	0.422607421875	0.5869140625	0	upper	amplitud.ttf
289803	WORD	wordpools/wasnorm_wordpool_less_exclusions.txt	LTP209	ltpFR	14	2	0	GROCERIES	663	n/a	n/a	1	0.57763671875	0.412841796875	1	lower	zerothre.ttf
293936	WORD	wordpools/wasnorm_wordpool_less_exclusions.txt	LTP209	ltpFR	14	2	0	ANT	25	n/a	n/a	1	0.57763671875	0.412841796875	1	lower	zerothre.ttf
297783	WORD	wordpools/wasnorm_wordpool_less_exclusions.txt	LTP209	ltpFR	14	2	0	PICTURE	1061	n/a	n/a	1	0.57763671875	0.412841796875	1	lower	zerothre.ttf
301798	WORD	wordpools/wasnorm_wordpool_less_exclusions.txt	LTP209	ltpFR	14	2	0	PORTRAIT	1111	n/a	n/a	1	0.57763671875	0.412841796875	1	lower	zerothre.ttf
305847	WORD	wordpools/wasnorm_wordpool_less_exclusions.txt	LTP209	ltpFR	14	2	1	ORNAMENT	985	n/a	n/a	0	0.422607421875	0.5869140625	0	upper	amplitud.ttf
309896	WORD	wordpools/wasnorm_wordpool_less_exclusions.txt	LTP209	ltpFR	14	2	1	ACORN	3	n/a	n/a	1	0.422607421875	0.5869140625	0	upper	amplitud.ttf
313760	WORD	wordpools/wasnorm_wordpool_less_exclusions.txt	LTP209	ltpFR	14	2	0	CONTRACTOR	369	n/a	n/a	1	0.57763671875	0.412841796875	1	lower	zerothre.ttf
317792	WORD	wordpools/wasnorm_wordpool_less_exclusions.txt	LTP209	ltpFR	14	2	0	RAZOR	1171	n/a	n/a	0	0.57763671875	0.412841796875	1	lower	zerothre.ttf
321841	WORD	wordpools/wasnorm_wordpool_less_exclusions.txt	LTP209	ltpFR	14	2	0	CLIFF	322	n/a	n/a	1	0.57763671875	0.412841796875	1	lower	zerothre.ttf
325991	WORD	wordpools/wasnorm_wordpool_less_exclusions.txt	LTP209	ltpFR	14	2	0	CLERK	321	n/a	n/a	1	0.57763671875	0.412841796875	1	lower	zerothre.ttf
331813	REC_START	n/a	LTP209	ltpFR	14	2	n/a	n/a	n/a	n/a	n/a	n/a	n/a	n/a	n/a	n/a	n/a
332691	REC_WORD	wordpools/wasnorm_wordpool_less_exclusions.txt	LTP209	ltpFR	14	2	0	CLERK	321	n/a	n/a	1	n/a	n/a	n/a	n/a	n/a
334557	REC_WORD	wordpools/wasnorm_wordpool_less_exclusions.txt	LTP209	ltpFR	14	2	1	CLIMBER	323	n/a	n/a	1	n/a	n/a	n/a	n/a	n/a
335927	REC_WORD	wordpools/wasnorm_wordpool_less_exclusions.txt	LTP209	ltpFR	14	2	1	PEDESTRIAN	1038	n/a	n/a	1	n/a	n/a	n/a	n/a	n/a
337520	REC_WORD	wordpools/wasnorm_wordpool_less_exclusions.txt	LTP209	ltpFR	14	2	1	TONGUE	1479	n/a	n/a	1	n/a	n/a	n/a	n/a	n/a
340154	REC_WORD	wordpools/wasnorm_wordpool_less_exclusions.txt	LTP209	ltpFR	14	2	0	ANT	25	n/a	n/a	1	n/a	n/a	n/a	n/a	n/a
350214	REC_WORD	wordpools/wasnorm_wordpool_less_exclusions.txt	LTP209	ltpFR	14	2	0	PICTURE	1061	n/a	n/a	1	n/a	n/a	n/a	n/a	n/a
411612	WORD	wordpools/wasnorm_wordpool_less_exclusions.txt	LTP209	ltpFR	14	3	0	FRUIT	610	n/a	n/a	1	0.57763671875	0.412841796875	1	lower	zerothre.ttf
415460	WORD	wordpools/wasnorm_wordpool_less_exclusions.txt	LTP209	ltpFR	14	3	0	ANTELOPE	27	n/a	n/a	1	0.57763671875	0.412841796875	1	lower	zerothre.ttf
419639	WORD	wordpools/wasnorm_wordpool_less_exclusions.txt	LTP209	ltpFR	14	3	0	TRASH	1497	n/a	n/a	1	0.57763671875	0.412841796875	1	lower	zerothre.ttf
423721	WORD	wordpools/wasnorm_wordpool_less_exclusions.txt	LTP209	ltpFR	14	3	0	CORD	379	n/a	n/a	0	0.57763671875	0.412841796875	1	lower	zerothre.ttf
427874	WORD	wordpools/wasnorm_wordpool_less_exclusions.txt	LTP209	ltpFR	14	3	0	PALACE	1006	n/a	n/a	1	0.57763671875	0.412841796875	1	lower	zerothre.ttf
431889	WORD	wordpools/wasnorm_wordpool_less_exclusions.txt	LTP209	ltpFR	14	3	0	MOAT	903	n/a	n/a	1	0.57763671875	0.412841796875	1	lower	zerothre.ttf
436072	WORD	wordpools/wasnorm_wordpool_less_exclusions.txt	LTP209	ltpFR	14	3	0	TUBE	1516	n/a	n/a	0	0.57763671875	0.412841796875	1	lower	zerothre.ttf
440034	WORD	wordpools/wasnorm_wordpool_less_exclusions.txt	LTP209	ltpFR	14	3	0	SKETCH	1315	n/a	n/a	1	0.57763671875	0.412841796875	1	lower	zerothre.ttf
443934	WORD	wordpools/wasnorm_wordpool_less_exclusions.txt	LTP209	ltpFR	14	3	0	MECHANIC	884	n/a	n/a	1	0.57763671875	0.412841796875	1	lower	zerothre.ttf
447946	WORD	wordpools/wasnorm_wordpool_less_exclusions.txt	LTP209	ltpFR	14	3	0	HOUSE	725	n/a	n/a	1	0.57763671875	0.412841796875	1	lower	zerothre.ttf
451996	WORD	wordpools/wasnorm_wordpool_less_exclusions.txt	LTP209	ltpFR	14	3	0	DEER	444	n/a	n/a	1	0.57763671875	0.412841796875	1	lower	zerothre.ttf
456215	WORD	wordpools/wasnorm_wordpool_less_exclusions.txt	LTP209	ltpFR	14	3	0	HOOD	714	n/a	n/a	0	0.57763671875	0.412841796875	1	lower	zerothre.ttf
460180	WORD	wordpools/wasnorm_wordpool_less_exclusions.txt	LTP209	ltpFR	14	3	0	SPATULA	1348	n/a	n/a	0	0.57763671875	0.412841796875	1	lower	zerothre.ttf
464329	WORD	wordpools/wasnorm_wordpool_less_exclusions.txt	LTP209	ltpFR	14	3	0	TRUCK	1512	n/a	n/a	1	0.57763671875	0.412841796875	1	lower	zerothre.ttf
468477	WORD	wordpools/wasnorm_wordpool_less_exclusions.txt	LTP209	ltpFR	14	3	0	VEHICLE	1553	n/a	n/a	1	0.57763671875	0.412841796875	1	lower	zerothre.ttf
472642	WORD	wordpools/wasnorm_wordpool_less_exclusions.txt	LTP209	ltpFR	14	3	0	RADISH	1158	n/a	n/a	0	0.57763671875	0.412841796875	1	lower	zerothre.ttf
478383	REC_START	n/a	LTP209	ltpFR	14	3	n/a	n/a	n/a	n/a	n/a	n/a	n/a	n/a	n/a	n/a	n/a
479261	REC_WORD	wordpools/wasnorm_wordpool_less_exclusions.txt	LTP209	ltpFR	14	3	0	RADISH	1158	n/a	n/a	0	n/a	n/a	n/a	n/a	n/a
480264	REC_WORD	wordpools/wasnorm_wordpool_less_exclusions.txt	LTP209	ltpFR	14	3	0	TRUCK	1512	n/a	n/a	1	n/a	n/a	n/a	n/a	n/a
481172	REC_WORD	wordpools/wasnorm_wordpool_less_exclusions.txt	LTP209	ltpFR	14	3	0	VEHICLE	1553	n/a	n/a	1	n/a	n/a	n/a	n/a	n/a
482029	REC_WORD	wordpools/wasnorm_wordpool_less_exclusions.txt	LTP209	ltpFR	14	3	0	HOUSE	725	n/a	n/a	1	n/a	n/a	n/a	n/a	n/a
483088	REC_WORD	wordpools/wasnorm_wordpool_less_exclusions.txt	LTP209	ltpFR	14	3	0	MOAT	903	n/a	n/a	1	n/a	n/a	n/a	n/a	n/a
490331	REC_WORD	wordpools/wasnorm_wordpool_less_exclusions.txt	LTP209	ltpFR	14	3	0	SPATULA	1348	n/a	n/a	0	n/a	n/a	n/a	n/a	n/a
507834	REC_WORD	wordpools/wasnorm_wordpool_less_exclusions.txt	LTP209	ltpFR	14	3	0	FRUIT	610	n/a	n/a	1	n/a	n/a	n/a	n/a	n/a
510001	REC_WORD	wordpools/wasnorm_wordpool_less_exclusions.txt	LTP209	ltpFR	14	3	0	ANTELOPE	27	n/a	n/a	1	n/a	n/a	n/a	n/a	n/a
511223	REC_WORD	wordpools/wasnorm_wordpool_less_exclusions.txt	LTP209	ltpFR	14	3	0	DEER	444	n/a	n/a	1	n/a	n/a	n/a	n/a	n/a
531492	REC_WORD	wordpools/wasnorm_wordpool_less_exclusions.txt	LTP209	ltpFR	14	3	0	TRASH	1497	n/a	n/a	1	n/a	n/a	n/a	n/a	n/a
811436	WORD	wordpools/wasnorm_wordpool_less_exclusions.txt	LTP209	ltpFR	14	4	0	SWAMP	1416	n/a	n/a	1	0.57763671875	0.412841796875	1	lower	zerothre.ttf
815518	WORD	wordpools/wasnorm_wordpool_less_exclusions.txt	LTP209	ltpFR	14	4	0	COOK	372	n/a	n/a	1	0.57763671875	0.412841796875	1	lower	zerothre.ttf
819667	WORD	wordpools/wasnorm_wordpool_less_exclusions.txt	LTP209	ltpFR	14	4	0	TUNA	1518	n/a	n/a	1	0.57763671875	0.412841796875	1	lower	zerothre.ttf
823528	WORD	wordpools/wasnorm_wordpool_less_exclusions.txt	LTP209	ltpFR	14	4	0	BARRACUDA	90	n/a	n/a	1	0.57763671875	0.412841796875	1	lower	zerothre.ttf
827627	WORD	wordpools/wasnorm_wordpool_less_exclusions.txt	LTP209	ltpFR	14	4	1	BUS	201	n/a	n/a	0	0.422607421875	0.5869140625	0	upper	amplitud.ttf
831796	WORD	wordpools/wasnorm_wordpool_less_exclusions.txt	LTP209	ltpFR	14	4	1	POLYESTER	1100	n/a	n/a	0	0.422607421875	0.5869140625	0	upper	amplitud.ttf
835794	WORD	wordpools/wasnorm_wordpool_less_exclusions.txt	LTP209	ltpFR	14	4	0	CAPTAIN	239	n/a	n/a	1	0.57763671875	0.412841796875	1	lower	zerothre.ttf
839743	WORD	wordpools/wasnorm_wordpool_less_exclusions.txt	LTP209	ltpFR	14	4	0	STREAM	1392	n/a	n/a	1	0.57763671875	0.412841796875	1	lower	zerothre.ttf
843771	WORD	wordpools/wasnorm_wordpool_less_exclusions.txt	LTP209	ltpFR	14	4	0	BERRY	122	n/a	n/a	1	0.57763671875	0.412841796875	1	lower	zerothre.ttf
847840	WORD	wordpools/wasnorm_wordpool_less_exclusions.txt	LTP209	ltpFR	14	4	0	PADDLE	1000	n/a	n/a	0	0.57763671875	0.412841796875	1	lower	zerothre.ttf
851990	WORD	wordpools/wasnorm_wordpool_less_exclusions.txt	LTP209	ltpFR	14	4	1	DOUGH	489	n/a	n/a	1	0.422607421875	0.5869140625	0	upper	amplitud.ttf
856035	WORD	wordpools/wasnorm_wordpool_less_exclusions.txt	LTP209	ltpFR	14	4	1	SALESMAN	1225	n/a	n/a	1	0.422607421875	0.5869140625	0	upper	amplitud.ttf
860037	WORD	wordpools/wasnorm_wordpool_less_exclusions.txt	LTP209	ltpFR	14	4	1	VALVE	1546	n/a	n/a	0	0.422607421875	0.5869140625	0	upper	amplitud.ttf
864202	WORD	wordpools/wasnorm_wordpool_less_exclusions.txt	LTP209	ltpFR	14	4	1	LASH	802	n/a	n/a	1	0.422607421875	0.5869140625	0	upper	amplitud.ttf
868151	WORD	wordpools/wasnorm_wordpool_less_exclusions.txt	LTP209	ltpFR	14	4	1	SHED	1277	n/a	n/a	0	0.422607421875	0.5869140625	0	upper	amplitud.ttf
872149	WORD	wordpools/wasnorm_wordpool_less_exclusions.txt	LTP209	ltpFR	14	4	1	FRECKLE	602	n/a	n/a	0	0.422607421875	0.5869140625	0	upper	amplitud.ttf
878156	REC_START	n/a	LTP209	ltpFR	14	4	n/a	n/a	n/a	n/a	n/a	n/a	n/a	n/a	n/a	n/a	n/a
879081	REC_WORD	wordpools/wasnorm_wordpool_less_exclusions.txt	LTP209	ltpFR	14	4	1	FRECKLE	602	n/a	n/a	0	n/a	n/a	n/a	n/a	n/a
880191	REC_WORD	wordpools/wasnorm_wordpool_less_exclusions.txt	LTP209	ltpFR	14	4	1	LASH	802	n/a	n/a	1	n/a	n/a	n/a	n/a	n/a
881229	REC_WORD	wordpools/wasnorm_wordpool_less_exclusions.txt	LTP209	ltpFR	14	4	0	BARRACUDA	90	n/a	n/a	1	n/a	n/a	n/a	n/a	n/a
882516	REC_WORD	wordpools/wasnorm_wordpool_less_exclusions.txt	LTP209	ltpFR	14	4	0	TUNA	1518	n/a	n/a	1	n/a	n/a	n/a	n/a	n/a
883723	REC_WORD	wordpools/wasnorm_wordpool_less_exclusions.txt	LTP209	ltpFR	14	4	0	COOK	372	n/a	n/a	1	n/a	n/a	n/a	n/a	n/a
885265	REC_WORD	wordpools/wasnorm_wordpool_less_exclusions.txt	LTP209	ltpFR	14	4	0	SWAMP	1416	n/a	n/a	1	n/a	n/a	n/a	n/a	n/a
893591	REC_WORD	wordpools/wasnorm_wordpool_less_exclusions.txt	LTP209	ltpFR	14	4	0	PARROT	1015	n/a	n/a	1	n/a	n/a	n/a	n/a	n/a
912991	REC_WORD	wordpools/wasnorm_wordpool_less_exclusions.txt	LTP209	ltpFR	14	4	1	LASH	802	n/a	n/a	1	n/a	n/a	n/a	n/a	n/a
928887	REC_WORD	wordpools/wasnorm_wordpool_less_exclusions.txt	LTP209	ltpFR	14	4	n/a	TOOTH	1481	n/a	n/a	n/a	n/a	n/a	n/a	n/a	n/a
929758	REC_WORD	wordpools/wasnorm_wordpool_less_exclusions.txt	LTP209	ltpFR	14	4	n/a	MOUTH	926	n/a	n/a	n/a	n/a	n/a	n/a	n/a	n/a
949047	REC_WORD	wordpools/wasnorm_wordpool_less_exclusions.txt	LTP209	ltpFR	14	4	1	FRECKLE	602	n/a	n/a	0	n/a	n/a	n/a	n/a	n/a
1033390	WORD	wordpools/wasnorm_wordpool_less_exclusions.txt	LTP209	ltpFR	14	5	1	POT	1114	n/a	n/a	0	0.422607421875	0.5869140625	0	upper	amplitud.ttf
1037521	WORD	wordpools/wasnorm_wordpool_less_exclusions.txt	LTP209	ltpFR	14	5	1	BRAKE	166	n/a	n/a	0	0.422607421875	0.5869140625	0	upper	amplitud.ttf
1041533	WORD	wordpools/wasnorm_wordpool_less_exclusions.txt	LTP209	ltpFR	14	5	1	SCARF	1246	n/a	n/a	0	0.422607421875	0.5869140625	0	upper	amplitud.ttf
1045385	WORD	wordpools/wasnorm_wordpool_less_exclusions.txt	LTP209	ltpFR	14	5	1	DANDRUFF	439	n/a	n/a	1	0.422607421875	0.5869140625	0	upper	amplitud.ttf
1049367	WORD	wordpools/wasnorm_wordpool_less_exclusions.txt	LTP209	ltpFR	14	5	1	WORM	1623	n/a	n/a	1	0.422607421875	0.5869140625	0	upper	amplitud.ttf
1053431	WORD	wordpools/wasnorm_wordpool_less_exclusions.txt	LTP209	ltpFR	14	5	1	REPTILE	1185	n/a	n/a	1	0.422607421875	0.5869140625	0	upper	amplitud.ttf
1057497	WORD	wordpools/wasnorm_wordpool_less_exclusions.txt	LTP209	ltpFR	14	5	1	SAUCER	1237	n/a	n/a	0	0.422607421875	0.5869140625	0	upper	amplitud.ttf
1061609	WORD	wordpools/wasnorm_wordpool_less_exclusions.txt	LTP209	ltpFR	14	5	1	HAWK	692	n/a	n/a	1	0.422607421875	0.5869140625	0	upper	amplitud.ttf
1065544	WORD	wordpools/wasnorm_wordpool_less_exclusions.txt	LTP209	ltpFR	14	5	1	SUNRISE	1407	n/a	n/a	1	0.422607421875	0.5869140625	0	upper	amplitud.ttf
1069659	WORD	wordpools/wasnorm_wordpool_less_exclusions.txt	LTP209	ltpFR	14	5	1	DOVE	491	n/a	n/a	1	0.422607421875	0.5869140625	0	upper	amplitud.ttf
1073607	WORD	wordpools/wasnorm_wordpool_less_exclusions.txt	LTP209	ltpFR	14	5	1	FEATHER	557	n/a	n/a	1	0.422607421875	0.5869140625	0	upper	amplitud.ttf
1077539	WORD	wordpools/wasnorm_wordpool_less_exclusions.txt	LTP209	ltpFR	14	5	1	STEW	1380	n/a	n/a	0	0.422607421875	0.5869140625	0	upper	amplitud.ttf
1081738	WORD	wordpools/wasnorm_wordpool_less_exclusions.txt	LTP209	ltpFR	14	5	1	WARDROBE	1587	n/a	n/a	0	0.422607421875	0.5869140625	0	upper	amplitud.ttf
1085770	WORD	wordpools/wasnorm_wordpool_less_exclusions.txt	LTP209	ltpFR	14	5	1	RADIATOR	1156	n/a	n/a	0	0.422607421875	0.5869140625	0	upper	amplitud.ttf
1089832	WORD	wordpools/wasnorm_wordpool_less_exclusions.txt	LTP209	ltpFR	14	5	1	POLE	1097	n/a	n/a	0	0.422607421875	0.5869140625	0	upper	amplitud.ttf
1093867	WORD	wordpools/wasnorm_wordpool_less_exclusions.txt	LTP209	ltpFR	14	5	1	SEAGULL	1261	n/a	n/a	1	0.422607421875	0.5869140625	0	upper	amplitud.ttf
1099790	REC_START	n/a	LTP209	ltpFR	14	5	n/a	n/a	n/a	n/a	n/a	n/a	n/a	n/a	n/a	n/a	n/a
1100577	REC_WORD	wordpools/wasnorm_wordpool_less_exclusions.txt	LTP209	ltpFR	14	5	1	SEAGULL	1261	n/a	n/a	1	n/a	n/a	n/a	n/a	n/a
1101807	REC_WORD	wordpools/wasnorm_wordpool_less_exclusions.txt	LTP209	ltpFR	14	5	1	HAWK	692	n/a	n/a	1	n/a	n/a	n/a	n/a	n/a
1102857	REC_WORD	wordpools/wasnorm_wordpool_less_exclusions.txt	LTP209	ltpFR	14	5	1	FEATHER	557	n/a	n/a	1	n/a	n/a	n/a	n/a	n/a
1104624	REC_WORD	wordpools/wasnorm_wordpool_less_exclusions.txt	LTP209	ltpFR	14	5	1	POT	1114	n/a	n/a	0	n/a	n/a	n/a	n/a	n/a
1105869	REC_WORD	wordpools/wasnorm_wordpool_less_exclusions.txt	LTP209	ltpFR	14	5	1	SAUCER	1237	n/a	n/a	0	n/a	n/a	n/a	n/a	n/a
1111032	REC_WORD	wordpools/wasnorm_wordpool_less_exclusions.txt	LTP209	ltpFR	14	5	1	SCARF	1246	n/a	n/a	0	n/a	n/a	n/a	n/a	n/a
1112415	REC_WORD	wordpools/wasnorm_wordpool_less_exclusions.txt	LTP209	ltpFR	14	5	1	STEW	1380	n/a	n/a	0	n/a	n/a	n/a	n/a	n/a
1120593	REC_WORD	wordpools/wasnorm_wordpool_less_exclusions.txt	LTP209	ltpFR	14	5	0	PARROT	1015	n/a	n/a	1	n/a	n/a	n/a	n/a	n/a
1133618	REC_WORD	wordpools/wasnorm_wordpool_less_exclusions.txt	LTP209	ltpFR	14	5	1	RADIATOR	1156	n/a	n/a	0	n/a	n/a	n/a	n/a	n/a
1138701	REC_WORD	wordpools/wasnorm_wordpool_less_exclusions.txt	LTP209	ltpFR	14	5	1	POLE	1097	n/a	n/a	0	n/a	n/a	n/a	n/a	n/a
1227237	WORD	wordpools/wasnorm_wordpool_less_exclusions.txt	LTP209	ltpFR	14	6	1	APRON	35	n/a	n/a	0	0.422607421875	0.5869140625	0	upper	amplitud.ttf
1231149	WORD	wordpools/wasnorm_wordpool_less_exclusions.txt	LTP209	ltpFR	14	6	1	CUBE	420	n/a	n/a	0	0.422607421875	0.5869140625	0	upper	amplitud.ttf
1235234	WORD	wordpools/wasnorm_wordpool_less_exclusions.txt	LTP209	ltpFR	14	6	1	IGLOO	734	n/a	n/a	0	0.422607421875	0.5869140625	0	upper	amplitud.ttf
1239079	WORD	wordpools/wasnorm_wordpool_less_exclusions.txt	LTP209	ltpFR	14	6	1	LOAF	835	n/a	n/a	0	0.422607421875	0.5869140625	0	upper	amplitud.ttf
1243161	WORD	wordpools/wasnorm_wordpool_less_exclusions.txt	LTP209	ltpFR	14	6	1	SCOUT	1252	n/a	n/a	1	0.422607421875	0.5869140625	0	upper	amplitud.ttf
1247229	WORD	wordpools/wasnorm_wordpool_less_exclusions.txt	LTP209	ltpFR	14	6	1	FIN	566	n/a	n/a	0	0.422607421875	0.5869140625	0	upper	amplitud.ttf
1251328	WORD	wordpools/wasnorm_wordpool_less_exclusions.txt	LTP209	ltpFR	14	6	1	DUMP	505	n/a	n/a	0	0.422607421875	0.5869140625	0	upper	amplitud.ttf
1255310	WORD	wordpools/wasnorm_wordpool_less_exclusions.txt	LTP209	ltpFR	14	6	1	LITTER	832	n/a	n/a	0	0.422607421875	0.5869140625	0	upper	amplitud.ttf
1259271	WORD	wordpools/wasnorm_wordpool_less_exclusions.txt	LTP209	ltpFR	14	6	1	TANK	1432	n/a	n/a	0	0.422607421875	0.5869140625	0	upper	amplitud.ttf
1263122	WORD	wordpools/wasnorm_wordpool_less_exclusions.txt	LTP209	ltpFR	14	6	1	BOY	161	n/a	n/a	1	0.422607421875	0.5869140625	0	upper	amplitud.ttf
1267020	WORD	wordpools/wasnorm_wordpool_less_exclusions.txt	LTP209	ltpFR	14	6	1	ALLIGATOR	16	n/a	n/a	1	0.422607421875	0.5869140625	0	upper	amplitud.ttf
1271103	WORD	wordpools/wasnorm_wordpool_less_exclusions.txt	LTP209	ltpFR	14	6	1	CAMEL	223	n/a	n/a	1	0.422607421875	0.5869140625	0	upper	amplitud.ttf
1275235	WORD	wordpools/wasnorm_wordpool_less_exclusions.txt	LTP209	ltpFR	14	6	1	LAKE	796	n/a	n/a	1	0.422607421875	0.5869140625	0	upper	amplitud.ttf
1279163	WORD	wordpools/wasnorm_wordpool_less_exclusions.txt	LTP209	ltpFR	14	6	1	STRAWBERRY	1391	n/a	n/a	1	0.422607421875	0.5869140625	0	upper	amplitud.ttf
1283248	WORD	wordpools/wasnorm_wordpool_less_exclusions.txt	LTP209	ltpFR	14	6	1	FILM	565	n/a	n/a	1	0.422607421875	0.5869140625	0	upper	amplitud.ttf
1287096	WORD	wordpools/wasnorm_wordpool_less_exclusions.txt	LTP209	ltpFR	14	6	1	MAMMAL	861	n/a	n/a	1	0.422607421875	0.5869140625	0	upper	amplitud.ttf
1292901	REC_START	n/a	LTP209	ltpFR	14	6	n/a	n/a	n/a	n/a	n/a	n/a	n/a	n/a	n/a	n/a	n/a
1294402	REC_WORD	wordpools/wasnorm_wordpool_less_exclusions.txt	LTP209	ltpFR	14	6	1	MAMMAL	861	n/a	n/a	1	n/a	n/a	n/a	n/a	n/a
1295285	REC_WORD	wordpools/wasnorm_wordpool_less_exclusions.txt	LTP209	ltpFR	14	6	1	FILM	565	n/a	n/a	1	n/a	n/a	n/a	n/a	n/a
1296398	REC_WORD	wordpools/wasnorm_wordpool_less_exclusions.txt	LTP209	ltpFR	14	6	1	BOY	161	n/a	n/a	1	n/a	n/a	n/a	n/a	n/a
1297215	REC_WORD	wordpools/wasnorm_wordpool_less_exclusions.txt	LTP209	ltpFR	14	6	1	SCOUT	1252	n/a	n/a	1	n/a	n/a	n/a	n/a	n/a
1298196	REC_WORD	wordpools/wasnorm_wordpool_less_exclusions.txt	LTP209	ltpFR	14	6	1	FIN	566	n/a	n/a	0	n/a	n/a	n/a	n/a	n/a
1301382	REC_WORD	wordpools/wasnorm_wordpool_less_exclusions.txt	LTP209	ltpFR	14	6	1	LITTER	832	n/a	n/a	0	n/a	n/a	n/a	n/a	n/a
1306230	REC_WORD	wordpools/wasnorm_wordpool_less_exclusions.txt	LTP209	ltpFR	14	6	n/a	GARBAGE	622	n/a	n/a	n/a	n/a	n/a	n/a	n/a	n/a
1310995	REC_WORD	wordpools/wasnorm_wordpool_less_exclusions.txt	LTP209	ltpFR	14	6	1	LAKE	796	n/a	n/a	1	n/a	n/a	n/a	n/a	n/a
1313519	REC_WORD	wordpools/wasnorm_wordpool_less_exclusions.txt	LTP209	ltpFR	14	6	1	ALLIGATOR	16	n/a	n/a	1	n/a	n/a	n/a	n/a	n/a
1314897	REC_WORD	wordpools/wasnorm_wordpool_less_exclusions.txt	LTP209	ltpFR	14	6	0	SWAMP	1416	n/a	n/a	1	n/a	n/a	n/a	n/a	n/a
1338442	REC_WORD	wordpools/wasnorm_wordpool_less_exclusions.txt	LTP209	ltpFR	14	6	n/a	CHEF	290	n/a	n/a	n/a	n/a	n/a	n/a	n/a	n/a
1349522	REC_WORD	wordpools/wasnorm_wordpool_less_exclusions.txt	LTP209	ltpFR	14	6	1	STRAWBERRY	1391	n/a	n/a	1	n/a	n/a	n/a	n/a	n/a
1362762	REC_WORD	wordpools/wasnorm_wordpool_less_exclusions.txt	LTP209	ltpFR	14	6	1	SHED	1277	n/a	n/a	0	n/a	n/a	n/a	n/a	n/a
1403651	WORD	wordpools/wasnorm_wordpool_less_exclusions.txt	LTP209	ltpFR	14	7	-1	VENT	1556	n/a	n/a	-1	1.0	1.0	1	upper	Verdana.ttf
1407680	WORD	wordpools/wasnorm_wordpool_less_exclusions.txt	LTP209	ltpFR	14	7	-1	BILL	126	n/a	n/a	-1	1.0	1.0	1	upper	Verdana.ttf
1411815	WORD	wordpools/wasnorm_wordpool_less_exclusions.txt	LTP209	ltpFR	14	7	-1	GLACIER	638	n/a	n/a	-1	1.0	1.0	1	upper	Verdana.ttf
1415847	WORD	wordpools/wasnorm_wordpool_less_exclusions.txt	LTP209	ltpFR	14	7	-1	CREAM	402	n/a	n/a	-1	1.0	1.0	1	upper	Verdana.ttf
1419997	WORD	wordpools/wasnorm_wordpool_less_exclusions.txt	LTP209	ltpFR	14	7	-1	OFFICE	972	n/a	n/a	-1	1.0	1.0	1	upper	Verdana.ttf
1423844	WORD	wordpools/wasnorm_wordpool_less_exclusions.txt	LTP209	ltpFR	14	7	-1	PIKE	1067	n/a	n/a	-1	1.0	1.0	1	upper	Verdana.ttf
1427943	WORD	wordpools/wasnorm_wordpool_less_exclusions.txt	LTP209	ltpFR	14	7	-1	FAN	551	n/a	n/a	-1	1.0	1.0	1	upper	Verdana.ttf
1431975	WORD	wordpools/wasnorm_wordpool_less_exclusions.txt	LTP209	ltpFR	14	7	-1	VALLEY	1545	n/a	n/a	-1	1.0	1.0	1	upper	Verdana.ttf
1435889	WORD	wordpools/wasnorm_wordpool_less_exclusions.txt	LTP209	ltpFR	14	7	-1	RIB	1188	n/a	n/a	-1	1.0	1.0	1	upper	Verdana.ttf
1439734	WORD	wordpools/wasnorm_wordpool_less_exclusions.txt	LTP209	ltpFR	14	7	-1	MARROW	872	n/a	n/a	-1	1.0	1.0	1	upper	Verdana.ttf
1443736	WORD	wordpools/wasnorm_wordpool_less_exclusions.txt	LTP209	ltpFR	14	7	-1	FLEET	578	n/a	n/a	-1	1.0	1.0	1	upper	Verdana.ttf
1447948	WORD	wordpools/wasnorm_wordpool_less_exclusions.txt	LTP209	ltpFR	14	7	-1	THORN	1459	n/a	n/a	-1	1.0	1.0	1	upper	Verdana.ttf
1452068	WORD	wordpools/wasnorm_wordpool_less_exclusions.txt	LTP209	ltpFR	14	7	-1	PLANET	1082	n/a	n/a	-1	1.0	1.0	1	upper	Verdana.ttf
1455965	WORD	wordpools/wasnorm_wordpool_less_exclusions.txt	LTP209	ltpFR	14	7	-1	COMET	353	n/a	n/a	-1	1.0	1.0	1	upper	Verdana.ttf
1459947	WORD	wordpools/wasnorm_wordpool_less_exclusions.txt	LTP209	ltpFR	14	7	-1	FENCE	560	n/a	n/a	-1	1.0	1.0	1	upper	Verdana.ttf
1463945	WORD	wordpools/wasnorm_wordpool_less_exclusions.txt	LTP209	ltpFR	14	7	-1	SARDINE	1235	n/a	n/a	-1	1.0	1.0	1	upper	Verdana.ttf
1469667	REC_START	n/a	LTP209	ltpFR	14	7	n/a	n/a	n/a	n/a	n/a	n/a	n/a	n/a	n/a	n/a	n/a
1470414	REC_WORD	wordpools/wasnorm_wordpool_less_exclusions.txt	LTP209	ltpFR	14	7	-1	SARDINE	1235	n/a	n/a	-1	n/a	n/a	n/a	n/a	n/a
1471652	REC_WORD	wordpools/wasnorm_wordpool_less_exclusions.txt	LTP209	ltpFR	14	7	-1	PIKE	1067	n/a	n/a	-1	n/a	n/a	n/a	n/a	n/a
1472297	REC_WORD	wordpools/wasnorm_wordpool_less_exclusions.txt	LTP209	ltpFR	14	7	-1	THORN	1459	n/a	n/a	-1	n/a	n/a	n/a	n/a	n/a
1473284	REC_WORD	wordpools/wasnorm_wordpool_less_exclusions.txt	LTP209	ltpFR	14	7	-1	OFFICE	972	n/a	n/a	-1	n/a	n/a	n/a	n/a	n/a
1474571	REC_WORD	wordpools/wasnorm_wordpool_less_exclusions.txt	LTP209	ltpFR	14	7	-1	CREAM	402	n/a	n/a	-1	n/a	n/a	n/a	n/a	n/a
1475566	REC_WORD	wordpools/wasnorm_wordpool_less_exclusions.txt	LTP209	ltpFR	14	7	-1	RIB	1188	n/a	n/a	-1	n/a	n/a	n/a	n/a	n/a
1476451	REC_WORD	wordpools/wasnorm_wordpool_less_exclusions.txt	LTP209	ltpFR	14	7	-1	MARROW	872	n/a	n/a	-1	n/a	n/a	n/a	n/a	n/a
1477735	REC_WORD	wordpools/wasnorm_wordpool_less_exclusions.txt	LTP209	ltpFR	14	7	-1	FLEET	578	n/a	n/a	-1	n/a	n/a	n/a	n/a	n/a
1481570	REC_WORD	wordpools/wasnorm_wordpool_less_exclusions.txt	LTP209	ltpFR	14	7	n/a	HARE	688	n/a	n/a	n/a	n/a	n/a	n/a	n/a	n/a
1487511	REC_WORD	wordpools/wasnorm_wordpool_less_exclusions.txt	LTP209	ltpFR	14	7	-1	OFFICE	972	n/a	n/a	-1	n/a	n/a	n/a	n/a	n/a
1500851	REC_WORD	wordpools/wasnorm_wordpool_less_exclusions.txt	LTP209	ltpFR	14	7	n/a	ANIMAL	23	n/a	n/a	n/a	n/a	n/a	n/a	n/a	n/a
1520920	REC_WORD	wordpools/wasnorm_wordpool_less_exclusions.txt	LTP209	ltpFR	14	7	-1	SARDINE	1235	n/a	n/a	-1	n/a	n/a	n/a	n/a	n/a
1522033	REC_WORD	wordpools/wasnorm_wordpool_less_exclusions.txt	LTP209	ltpFR	14	7	1	LAKE	796	n/a	n/a	1	n/a	n/a	n/a	n/a	n/a
1522990	REC_WORD	wordpools/wasnorm_wordpool_less_exclusions.txt	LTP209	ltpFR	14	7	0	STREAM	1392	n/a	n/a	1	n/a	n/a	n/a	n/a	n/a
1541929	REC_WORD	wordpools/wasnorm_wordpool_less_exclusions.txt	LTP209	ltpFR	14	7	-1	VALLEY	1545	n/a	n/a	-1	n/a	n/a	n/a	n/a	n/a
1543030	REC_WORD	wordpools/wasnorm_wordpool_less_exclusions.txt	LTP209	ltpFR	14	7	-1	GLACIER	638	n/a	n/a	-1	n/a	n/a	n/a	n/a	n/a
1548163	WORD	wordpools/wasnorm_wordpool_less_exclusions.txt	LTP209	ltpFR	14	8	1	SHRIMP	1297	n/a	n/a	1	0.422607421875	0.5869140625	0	upper	amplitud.ttf
1552346	WORD	wordpools/wasnorm_wordpool_less_exclusions.txt	LTP209	ltpFR	14	8	1	SIGNATURE	1306	n/a	n/a	0	0.422607421875	0.5869140625	0	upper	amplitud.ttf
1556541	WORD	wordpools/wasnorm_wordpool_less_exclusions.txt	LTP209	ltpFR	14	8	1	HUMAN	726	n/a	n/a	1	0.422607421875	0.5869140625	0	upper	amplitud.ttf
1560593	WORD	wordpools/wasnorm_wordpool_less_exclusions.txt	LTP209	ltpFR	14	8	1	BENCH	121	n/a	n/a	0	0.422607421875	0.5869140625	0	upper	amplitud.ttf
1564641	WORD	wordpools/wasnorm_wordpool_less_exclusions.txt	LTP209	ltpFR	14	8	1	CHURCH	307	n/a	n/a	1	0.422607421875	0.5869140625	0	upper	amplitud.ttf
1568606	WORD	wordpools/wasnorm_wordpool_less_exclusions.txt	LTP209	ltpFR	14	8	1	CONCRETE	361	n/a	n/a	0	0.422607421875	0.5869140625	0	upper	amplitud.ttf
1572671	WORD	wordpools/wasnorm_wordpool_less_exclusions.txt	LTP209	ltpFR	14	8	1	PLASTER	1085	n/a	n/a	0	0.422607421875	0.5869140625	0	upper	amplitud.ttf
1576650	WORD	wordpools/wasnorm_wordpool_less_exclusions.txt	LTP209	ltpFR	14	8	1	TEACHER	1440	n/a	n/a	1	0.422607421875	0.5869140625	0	upper	amplitud.ttf
1580852	WORD	wordpools/wasnorm_wordpool_less_exclusions.txt	LTP209	ltpFR	14	8	1	PREACHER	1119	n/a	n/a	1	0.422607421875	0.5869140625	0	upper	amplitud.ttf
1585002	WORD	wordpools/wasnorm_wordpool_less_exclusions.txt	LTP209	ltpFR	14	8	1	FLIPPER	580	n/a	n/a	0	0.422607421875	0.5869140625	0	upper	amplitud.ttf
1589048	WORD	wordpools/wasnorm_wordpool_less_exclusions.txt	LTP209	ltpFR	14	8	1	TWINE	1529	n/a	n/a	0	0.422607421875	0.5869140625	0	upper	amplitud.ttf
1592982	WORD	wordpools/wasnorm_wordpool_less_exclusions.txt	LTP209	ltpFR	14	8	1	SWING	1421	n/a	n/a	0	0.422607421875	0.5869140625	0	upper	amplitud.ttf
1596893	WORD	wordpools/wasnorm_wordpool_less_exclusions.txt	LTP209	ltpFR	14	8	1	RELATIVE	1182	n/a	n/a	1	0.422607421875	0.5869140625	0	upper	amplitud.ttf
1600777	WORD	wordpools/wasnorm_wordpool_less_exclusions.txt	LTP209	ltpFR	14	8	1	REFRIGERATOR	1179	n/a	n/a	0	0.422607421875	0.5869140625	0	upper	amplitud.ttf
1604923	WORD	wordpools/wasnorm_wordpool_less_exclusions.txt	LTP209	ltpFR	14	8	1	ARMY	39	n/a	n/a	1	0.422607421875	0.5869140625	0	upper	amplitud.ttf
1608958	WORD	wordpools/wasnorm_wordpool_less_exclusions.txt	LTP209	ltpFR	14	8	1	SERGEANT	1269	n/a	n/a	1	0.422607421875	0.5869140625	0	upper	amplitud.ttf
1614698	REC_START	n/a	LTP209	ltpFR	14	8	n/a	n/a	n/a	n/a	n/a	n/a	n/a	n/a	n/a	n/a	n/a
1615464	REC_WORD	wordpools/wasnorm_wordpool_less_exclusions.txt	LTP209	ltpFR	14	8	1	SERGEANT	1269	n/a	n/a	1	n/a	n/a	n/a	n/a	n/a
1616579	REC_WORD	wordpools/wasnorm_wordpool_less_exclusions.txt	LTP209	ltpFR	14	8	1	ARMY	39	n/a	n/a	1	n/a	n/a	n/a	n/a	n/a
1617161	REC_WORD	wordpools/wasnorm_wordpool_less_exclusions.txt	LTP209	ltpFR	14	8	1	FLIPPER	580	n/a	n/a	0	n/a	n/a	n/a	n/a	n/a
1618888	REC_WORD	wordpools/wasnorm_wordpool_less_exclusions.txt	LTP209	ltpFR	14	8	1	CHURCH	307	n/a	n/a	1	n/a	n/a	n/a	n/a	n/a
1619841	REC_WORD	wordpools/wasnorm_wordpool_less_exclusions.txt	LTP209	ltpFR	14	8	1	PREACHER	1119	n/a	n/a	1	n/a	n/a	n/a	n/a	n/a
1620959	REC_WORD	wordpools/wasnorm_wordpool_less_exclusions.txt	LTP209	ltpFR	14	8	1	TEACHER	1440	n/a	n/a	1	n/a	n/a	n/a	n/a	n/a
1622101	REC_WORD	wordpools/wasnorm_wordpool_less_exclusions.txt	LTP209	ltpFR	14	8	1	SWING	1421	n/a	n/a	0	n/a	n/a	n/a	n/a	n/a
1626251	REC_WORD	wordpools/wasnorm_wordpool_less_exclusions.txt	LTP209	ltpFR	14	8	n/a	HARE	688	n/a	n/a	n/a	n/a	n/a	n/a	n/a	n/a
1629377	REC_WORD	wordpools/wasnorm_wordpool_less_exclusions.txt	LTP209	ltpFR	14	8	1	TWINE	1529	n/a	n/a	0	n/a	n/a	n/a	n/a	n/a
1632108	REC_WORD	wordpools/wasnorm_wordpool_less_exclusions.txt	LTP209	ltpFR	14	8	1	REFRIGERATOR	1179	n/a	n/a	0	n/a	n/a	n/a	n/a	n/a
1639167	REC_WORD	wordpools/wasnorm_wordpool_less_exclusions.txt	LTP209	ltpFR	14	8	1	FLIPPER	580	n/a	n/a	0	n/a	n/a	n/a	n/a	n/a
1659226	REC_WORD	wordpools/wasnorm_wordpool_less_exclusions.txt	LTP209	ltpFR	14	8	n/a	HARE	688	n/a	n/a	n/a	n/a	n/a	n/a	n/a	n/a
1683721	REC_WORD	wordpools/wasnorm_wordpool_less_exclusions.txt	LTP209	ltpFR	14	8	1	WARRIOR	1589	n/a	n/a	1	n/a	n/a	n/a	n/a	n/a
1695017	WORD	wordpools/wasnorm_wordpool_less_exclusions.txt	LTP209	ltpFR	14	9	1	FOLLOWER	589	n/a	n/a	1	0.422607421875	0.5869140625	0	upper	amplitud.ttf
1698914	WORD	wordpools/wasnorm_wordpool_less_exclusions.txt	LTP209	ltpFR	14	9	1	BOSS	152	n/a	n/a	1	0.422607421875	0.5869140625	0	upper	amplitud.ttf
1703064	WORD	wordpools/wasnorm_wordpool_less_exclusions.txt	LTP209	ltpFR	14	9	1	RAISIN	1163	n/a	n/a	0	0.422607421875	0.5869140625	0	upper	amplitud.ttf
1707230	WORD	wordpools/wasnorm_wordpool_less_exclusions.txt	LTP209	ltpFR	14	9	1	CUCUMBER	421	n/a	n/a	1	0.422607421875	0.5869140625	0	upper	amplitud.ttf
1711278	WORD	wordpools/wasnorm_wordpool_less_exclusions.txt	LTP209	ltpFR	14	9	0	CHAUFFEUR	283	n/a	n/a	1	0.57763671875	0.412841796875	1	lower	zerothre.ttf
1715109	WORD	wordpools/wasnorm_wordpool_less_exclusions.txt	LTP209	ltpFR	14	9	0	KIWI	781	n/a	n/a	0	0.57763671875	0.412841796875	1	lower	zerothre.ttf
1719272	WORD	wordpools/wasnorm_wordpool_less_exclusions.txt	LTP209	ltpFR	14	9	1	SYRUP	1425	n/a	n/a	0	0.422607421875	0.5869140625	0	upper	amplitud.ttf
1723374	WORD	wordpools/wasnorm_wordpool_less_exclusions.txt	LTP209	ltpFR	14	9	1	DIRECTOR	471	n/a	n/a	1	0.422607421875	0.5869140625	0	upper	amplitud.ttf
1727235	WORD	wordpools/wasnorm_wordpool_less_exclusions.txt	LTP209	ltpFR	14	9	1	LIMOUSINE	824	n/a	n/a	0	0.422607421875	0.5869140625	0	upper	amplitud.ttf
1731233	WORD	wordpools/wasnorm_wordpool_less_exclusions.txt	LTP209	ltpFR	14	9	1	MOON	914	n/a	n/a	0	0.422607421875	0.5869140625	0	upper	amplitud.ttf
1735319	WORD	wordpools/wasnorm_wordpool_less_exclusions.txt	LTP209	ltpFR	14	9	0	SUN	1406	n/a	n/a	1	0.57763671875	0.412841796875	1	lower	zerothre.ttf
1739530	WORD	wordpools/wasnorm_wordpool_less_exclusions.txt	LTP209	ltpFR	14	9	0	WINDSHIELD	1612	n/a	n/a	0	0.57763671875	0.412841796875	1	lower	zerothre.ttf
1743545	WORD	wordpools/wasnorm_wordpool_less_exclusions.txt	LTP209	ltpFR	14	9	0	POTTERY	1116	n/a	n/a	0	0.57763671875	0.412841796875	1	lower	zerothre.ttf
1747414	WORD	wordpools/wasnorm_wordpool_less_exclusions.txt	LTP209	ltpFR	14	9	0	ARENA	37	n/a	n/a	0	0.57763671875	0.412841796875	1	lower	zerothre.ttf
1751413	WORD	wordpools/wasnorm_wordpool_less_exclusions.txt	LTP209	ltpFR	14	9	0	BASEBALL	93	n/a	n/a	0	0.57763671875	0.412841796875	1	lower	zerothre.ttf
1755594	WORD	wordpools/wasnorm_wordpool_less_exclusions.txt	LTP209	ltpFR	14	9	0	DRAWING	494	n/a	n/a	0	0.57763671875	0.412841796875	1	lower	zerothre.ttf
1761384	REC_START	n/a	LTP209	ltpFR	14	9	n/a	n/a	n/a	n/a	n/a	n/a	n/a	n/a	n/a	n/a	n/a
1762057	REC_WORD	wordpools/wasnorm_wordpool_less_exclusions.txt	LTP209	ltpFR	14	9	0	BASEBALL	93	n/a	n/a	0	n/a	n/a	n/a	n/a	n/a
1762860	REC_WORD	wordpools/wasnorm_wordpool_less_exclusions.txt	LTP209	ltpFR	14	9	0	DRAWING	494	n/a	n/a	0	n/a	n/a	n/a	n/a	n/a
1763579	REC_WORD	wordpools/wasnorm_wordpool_less_exclusions.txt	LTP209	ltpFR	14	9	0	ARENA	37	n/a	n/a	0	n/a	n/a	n/a	n/a	n/a
1770024	REC_WORD	wordpools/wasnorm_wordpool_less_exclusions.txt	LTP209	ltpFR	14	9	n/a	SWIMMING	-1	n/a	n/a	n/a	n/a	n/a	n/a	n/a	n/a
1779777	REC_WORD	wordpools/wasnorm_wordpool_less_exclusions.txt	LTP209	ltpFR	14	9	1	LIMOUSINE	824	n/a	n/a	0	n/a	n/a	n/a	n/a	n/a
1808821	REC_WORD	wordpools/wasnorm_wordpool_less_exclusions.txt	LTP209	ltpFR	14	9	1	TYPIST	1532	n/a	n/a	1	n/a	n/a	n/a	n/a	n/a
1816948	REC_WORD	wordpools/wasnorm_wordpool_less_exclusions.txt	LTP209	ltpFR	14	9	1	BOSS	152	n/a	n/a	1	n/a	n/a	n/a	n/a	n/a
1818763	REC_WORD	wordpools/wasnorm_wordpool_less_exclusions.txt	LTP209	ltpFR	14	9	1	FOLLOWER	589	n/a	n/a	1	n/a	n/a	n/a	n/a	n/a
1824865	REC_WORD	wordpools/wasnorm_wordpool_less_exclusions.txt	LTP209	ltpFR	14	9	1	CUBE	420	n/a	n/a	0	n/a	n/a	n/a	n/a	n/a
1825927	REC_WORD	wordpools/wasnorm_wordpool_less_exclusions.txt	LTP209	ltpFR	14	9	1	APRON	35	n/a	n/a	0	n/a	n/a	n/a	n/a	n/a
1857445	WORD	wordpools/wasnorm_wordpool_less_exclusions.txt	LTP209	ltpFR	14	10	0	ASSOCIATE	49	n/a	n/a	1	0.57763671875	0.412841796875	1	lower	zerothre.ttf
1861344	WORD	wordpools/wasnorm_wordpool_less_exclusions.txt	LTP209	ltpFR	14	10	0	FOREST	593	n/a	n/a	1	0.57763671875	0.412841796875	1	lower	zerothre.ttf
1865475	WORD	wordpools/wasnorm_wordpool_less_exclusions.txt	LTP209	ltpFR	14	10	1	CAN	225	n/a	n/a	0	0.422607421875	0.5869140625	0	upper	amplitud.ttf
1869574	WORD	wordpools/wasnorm_wordpool_less_exclusions.txt	LTP209	ltpFR	14	10	1	PIT	1077	n/a	n/a	0	0.422607421875	0.5869140625	0	upper	amplitud.ttf
1873723	WORD	wordpools/wasnorm_wordpool_less_exclusions.txt	LTP209	ltpFR	14	10	1	CUB	419	n/a	n/a	1	0.422607421875	0.5869140625	0	upper	amplitud.ttf
1877939	WORD	wordpools/wasnorm_wordpool_less_exclusions.txt	LTP209	ltpFR	14	10	1	ZOO	1637	n/a	n/a	1	0.422607421875	0.5869140625	0	upper	amplitud.ttf
1881853	WORD	wordpools/wasnorm_wordpool_less_exclusions.txt	LTP209	ltpFR	14	10	0	GIFT	635	n/a	n/a	0	0.57763671875	0.412841796875	1	lower	zerothre.ttf
1885935	WORD	wordpools/wasnorm_wordpool_less_exclusions.txt	LTP209	ltpFR	14	10	0	BASKET	95	n/a	n/a	1	0.57763671875	0.412841796875	1	lower	zerothre.ttf
1890065	WORD	wordpools/wasnorm_wordpool_less_exclusions.txt	LTP209	ltpFR	14	10	1	RAKE	1164	n/a	n/a	3	0.422607421875	0.5869140625	0	upper	amplitud.ttf
1891741	KEY_MSG	n/a	LTP209	ltpFR	14	10	n/a	n/a	n/a	n/a	n/a	n/a	n/a	n/a	n/a	n/a	n/a
1894147	WORD	wordpools/wasnorm_wordpool_less_exclusions.txt	LTP209	ltpFR	14	10	1	DUST	508	n/a	n/a	0	0.422607421875	0.5869140625	0	upper	amplitud.ttf
1898350	WORD	wordpools/wasnorm_wordpool_less_exclusions.txt	LTP209	ltpFR	14	10	1	BUGLE	189	n/a	n/a	0	0.422607421875	0.5869140625	0	upper	amplitud.ttf
1902214	WORD	wordpools/wasnorm_wordpool_less_exclusions.txt	LTP209	ltpFR	14	10	1	CANDIDATE	228	n/a	n/a	1	0.422607421875	0.5869140625	0	upper	amplitud.ttf
1906230	WORD	wordpools/wasnorm_wordpool_less_exclusions.txt	LTP209	ltpFR	14	10	0	PRESIDENT	1121	n/a	n/a	1	0.57763671875	0.412841796875	1	lower	zerothre.ttf
1910228	WORD	wordpools/wasnorm_wordpool_less_exclusions.txt	LTP209	ltpFR	14	10	0	CUE	422	n/a	n/a	0	0.57763671875	0.412841796875	1	lower	zerothre.ttf
1914176	WORD	wordpools/wasnorm_wordpool_less_exclusions.txt	LTP209	ltpFR	14	10	0	BALL	73	n/a	n/a	0	0.57763671875	0.412841796875	1	lower	zerothre.ttf
1918191	WORD	wordpools/wasnorm_wordpool_less_exclusions.txt	LTP209	ltpFR	14	10	0	STRANGER	1389	n/a	n/a	1	0.57763671875	0.412841796875	1	lower	zerothre.ttf
1923946	REC_START	n/a	LTP209	ltpFR	14	10	n/a	n/a	n/a	n/a	n/a	n/a	n/a	n/a	n/a	n/a	n/a
1925033	REC_WORD	wordpools/wasnorm_wordpool_less_exclusions.txt	LTP209	ltpFR	14	10	0	STRANGER	1389	n/a	n/a	1	n/a	n/a	n/a	n/a	n/a
1926156	REC_WORD	wordpools/wasnorm_wordpool_less_exclusions.txt	LTP209	ltpFR	14	10	0	ASSOCIATE	49	n/a	n/a	1	n/a	n/a	n/a	n/a	n/a
1927647	REC_WORD	wordpools/wasnorm_wordpool_less_exclusions.txt	LTP209	ltpFR	14	10	0	CUE	422	n/a	n/a	0	n/a	n/a	n/a	n/a	n/a
1928743	REC_WORD	wordpools/wasnorm_wordpool_less_exclusions.txt	LTP209	ltpFR	14	10	0	BALL	73	n/a	n/a	0	n/a	n/a	n/a	n/a	n/a
1930431	REC_WORD	wordpools/wasnorm_wordpool_less_exclusions.txt	LTP209	ltpFR	14	10	0	GIFT	635	n/a	n/a	0	n/a	n/a	n/a	n/a	n/a
1931593	REC_WORD	wordpools/wasnorm_wordpool_less_exclusions.txt	LTP209	ltpFR	14	10	0	BASKET	95	n/a	n/a	1	n/a	n/a	n/a	n/a	n/a
1938303	REC_WORD	wordpools/wasnorm_wordpool_less_exclusions.txt	LTP209	ltpFR	14	10	0	BASEBALL	93	n/a	n/a	0	n/a	n/a	n/a	n/a	n/a
1945467	REC_WORD	wordpools/wasnorm_wordpool_less_exclusions.txt	LTP209	ltpFR	14	10	1	ZOO	1637	n/a	n/a	1	n/a	n/a	n/a	n/a	n/a
1949637	REC_WORD	wordpools/wasnorm_wordpool_less_exclusions.txt	LTP209	ltpFR	14	10	1	CUB	419	n/a	n/a	1	n/a	n/a	n/a	n/a	n/a
1950994	REC_WORD	wordpools/wasnorm_wordpool_less_exclusions.txt	LTP209	ltpFR	14	10	0	FOREST	593	n/a	n/a	1	n/a	n/a	n/a	n/a	n/a
1977377	REC_WORD	wordpools/wasnorm_wordpool_less_exclusions.txt	LTP209	ltpFR	14	10	n/a	FINGER	567	n/a	n/a	n/a	n/a	n/a	n/a	n/a	n/a
1985590	REC_WORD	wordpools/wasnorm_wordpool_less_exclusions.txt	LTP209	ltpFR	14	10	n/a	HARE	688	n/a	n/a	n/a	n/a	n/a	n/a	n/a	n/a
1996167	REC_WORD	wordpools/wasnorm_wordpool_less_exclusions.txt	LTP209	ltpFR	14	10	n/a	BEAR	106	n/a	n/a	n/a	n/a	n/a	n/a	n/a	n/a
2014687	WORD	wordpools/wasnorm_wordpool_less_exclusions.txt	LTP209	ltpFR	14	11	-1	DOCUMENT	479	n/a	n/a	-1	1.0	1.0	1	upper	Verdana.ttf
2018569	WORD	wordpools/wasnorm_wordpool_less_exclusions.txt	LTP209	ltpFR	14	11	-1	STREET	1393	n/a	n/a	-1	1.0	1.0	1	upper	Verdana.ttf
2022684	WORD	wordpools/wasnorm_wordpool_less_exclusions.txt	LTP209	ltpFR	14	11	-1	BOULDER	155	n/a	n/a	-1	1.0	1.0	1	upper	Verdana.ttf
2026649	WORD	wordpools/wasnorm_wordpool_less_exclusions.txt	LTP209	ltpFR	14	11	-1	TOWN	1491	n/a	n/a	-1	1.0	1.0	1	upper	Verdana.ttf
2030597	WORD	wordpools/wasnorm_wordpool_less_exclusions.txt	LTP209	ltpFR	14	11	-1	TURNIP	1521	n/a	n/a	-1	1.0	1.0	1	upper	Verdana.ttf
2034612	WORD	wordpools/wasnorm_wordpool_less_exclusions.txt	LTP209	ltpFR	14	11	-1	FARMER	553	n/a	n/a	-1	1.0	1.0	1	upper	Verdana.ttf
2038811	WORD	wordpools/wasnorm_wordpool_less_exclusions.txt	LTP209	ltpFR	14	11	-1	BARN	89	n/a	n/a	-1	1.0	1.0	1	upper	Verdana.ttf
2042793	WORD	wordpools/wasnorm_wordpool_less_exclusions.txt	LTP209	ltpFR	14	11	-1	STALLION	1369	n/a	n/a	-1	1.0	1.0	1	upper	Verdana.ttf
2046859	WORD	wordpools/wasnorm_wordpool_less_exclusions.txt	LTP209	ltpFR	14	11	-1	RUNNER	1218	n/a	n/a	-1	1.0	1.0	1	upper	Verdana.ttf
2051055	WORD	wordpools/wasnorm_wordpool_less_exclusions.txt	LTP209	ltpFR	14	11	-1	COUNTRY	388	n/a	n/a	-1	1.0	1.0	1	upper	Verdana.ttf
2055191	WORD	wordpools/wasnorm_wordpool_less_exclusions.txt	LTP209	ltpFR	14	11	-1	STONE	1385	n/a	n/a	-1	1.0	1.0	1	upper	Verdana.ttf
2059256	WORD	wordpools/wasnorm_wordpool_less_exclusions.txt	LTP209	ltpFR	14	11	-1	PERFUME	1049	n/a	n/a	-1	1.0	1.0	1	upper	Verdana.ttf
2063255	WORD	wordpools/wasnorm_wordpool_less_exclusions.txt	LTP209	ltpFR	14	11	-1	LEMON	810	n/a	n/a	-1	1.0	1.0	1	upper	Verdana.ttf
2067203	WORD	wordpools/wasnorm_wordpool_less_exclusions.txt	LTP209	ltpFR	14	11	-1	OBOE	969	n/a	n/a	-1	1.0	1.0	1	upper	Verdana.ttf
2071268	WORD	wordpools/wasnorm_wordpool_less_exclusions.txt	LTP209	ltpFR	14	11	-1	HERB	704	n/a	n/a	-1	1.0	1.0	1	upper	Verdana.ttf
2075384	WORD	wordpools/wasnorm_wordpool_less_exclusions.txt	LTP209	ltpFR	14	11	-1	OREGANO	983	n/a	n/a	-1	1.0	1.0	1	upper	Verdana.ttf
2081223	REC_START	n/a	LTP209	ltpFR	14	11	n/a	n/a	n/a	n/a	n/a	n/a	n/a	n/a	n/a	n/a	n/a
2082485	REC_WORD	wordpools/wasnorm_wordpool_less_exclusions.txt	LTP209	ltpFR	14	11	-1	OREGANO	983	n/a	n/a	-1	n/a	n/a	n/a	n/a	n/a
2083468	REC_WORD	wordpools/wasnorm_wordpool_less_exclusions.txt	LTP209	ltpFR	14	11	-1	HERB	704	n/a	n/a	-1	n/a	n/a	n/a	n/a	n/a
2084401	REC_WORD	wordpools/wasnorm_wordpool_less_exclusions.txt	LTP209	ltpFR	14	11	-1	OBOE	969	n/a	n/a	-1	n/a	n/a	n/a	n/a	n/a
2085289	REC_WORD	wordpools/wasnorm_wordpool_less_exclusions.txt	LTP209	ltpFR	14	11	-1	TURNIP	1521	n/a	n/a	-1	n/a	n/a	n/a	n/a	n/a
2086231	REC_WORD	wordpools/wasnorm_wordpool_less_exclusions.txt	LTP209	ltpFR	14	11	-1	STREET	1393	n/a	n/a	-1	n/a	n/a	n/a	n/a	n/a
2087224	REC_WORD	wordpools/wasnorm_wordpool_less_exclusions.txt	LTP209	ltpFR	14	11	-1	STONE	1385	n/a	n/a	-1	n/a	n/a	n/a	n/a	n/a
2092756	REC_WORD	wordpools/wasnorm_wordpool_less_exclusions.txt	LTP209	ltpFR	14	11	-1	FARMER	553	n/a	n/a	-1	n/a	n/a	n/a	n/a	n/a
2094787	REC_WORD	wordpools/wasnorm_wordpool_less_exclusions.txt	LTP209	ltpFR	14	11	-1	BARN	89	n/a	n/a	-1	n/a	n/a	n/a	n/a	n/a
2096243	REC_WORD	wordpools/wasnorm_wordpool_less_exclusions.txt	LTP209	ltpFR	14	11	-1	STALLION	1369	n/a	n/a	-1	n/a	n/a	n/a	n/a	n/a
2099406	REC_WORD	wordpools/wasnorm_wordpool_less_exclusions.txt	LTP209	ltpFR	14	11	-1	TOWN	1491	n/a	n/a	-1	n/a	n/a	n/a	n/a	n/a
2101192	REC_WORD	wordpools/wasnorm_wordpool_less_exclusions.txt	LTP209	ltpFR	14	11	-1	STREET	1393	n/a	n/a	-1	n/a	n/a	n/a	n/a	n/a
2106745	REC_WORD	wordpools/wasnorm_wordpool_less_exclusions.txt	LTP209	ltpFR	14	11	-1	DOCUMENT	479	n/a	n/a	-1	n/a	n/a	n/a	n/a	n/a
2116872	REC_WORD	wordpools/wasnorm_wordpool_less_exclusions.txt	LTP209	ltpFR	14	11	-1	RUNNER	1218	n/a	n/a	-1	n/a	n/a	n/a	n/a	n/a
2128530	REC_WORD	wordpools/wasnorm_wordpool_less_exclusions.txt	LTP209	ltpFR	14	11	-1	HERB	704	n/a	n/a	-1	n/a	n/a	n/a	n/a	n/a
2130461	REC_WORD	wordpools/wasnorm_wordpool_less_exclusions.txt	LTP209	ltpFR	14	11	-1	OREGANO	983	n/a	n/a	-1	n/a	n/a	n/a	n/a	n/a
2154377	REC_WORD	wordpools/wasnorm_wordpool_less_exclusions.txt	LTP209	ltpFR	14	11	-1	COUNTRY	388	n/a	n/a	-1	n/a	n/a	n/a	n/a	n/a
2160371	WORD	wordpools/wasnorm_wordpool_less_exclusions.txt	LTP209	ltpFR	14	12	0	TREAD	1499	n/a	n/a	1	0.57763671875	0.412841796875	1	lower	zerothre.ttf
2164319	WORD	wordpools/wasnorm_wordpool_less_exclusions.txt	LTP209	ltpFR	14	12	0	EMPLOYER	532	n/a	n/a	1	0.57763671875	0.412841796875	1	lower	zerothre.ttf
2168450	WORD	wordpools/wasnorm_wordpool_less_exclusions.txt	LTP209	ltpFR	14	12	0	SHINGLE	1285	n/a	n/a	0	0.57763671875	0.412841796875	1	lower	zerothre.ttf
2172346	WORD	wordpools/wasnorm_wordpool_less_exclusions.txt	LTP209	ltpFR	14	12	0	SUGAR	1401	n/a	n/a	0	0.57763671875	0.412841796875	1	lower	zerothre.ttf
2176247	WORD	wordpools/wasnorm_wordpool_less_exclusions.txt	LTP209	ltpFR	14	12	0	MINT	898	n/a	n/a	0	0.57763671875	0.412841796875	1	lower	zerothre.ttf
2180329	WORD	wordpools/wasnorm_wordpool_less_exclusions.txt	LTP209	ltpFR	14	12	0	ROBOT	1200	n/a	n/a	0	0.57763671875	0.412841796875	1	lower	zerothre.ttf
2184477	WORD	wordpools/wasnorm_wordpool_less_exclusions.txt	LTP209	ltpFR	14	12	0	RECEPTIONIST	1174	n/a	n/a	1	0.57763671875	0.412841796875	1	lower	zerothre.ttf
2188626	WORD	wordpools/wasnorm_wordpool_less_exclusions.txt	LTP209	ltpFR	14	12	0	LOOP	844	n/a	n/a	1	0.57763671875	0.412841796875	1	lower	zerothre.ttf
2192571	WORD	wordpools/wasnorm_wordpool_less_exclusions.txt	LTP209	ltpFR	14	12	0	CHERRY	293	n/a	n/a	1	0.57763671875	0.412841796875	1	lower	zerothre.ttf
2196589	WORD	wordpools/wasnorm_wordpool_less_exclusions.txt	LTP209	ltpFR	14	12	0	TEAPOT	1442	n/a	n/a	1	0.57763671875	0.412841796875	1	lower	zerothre.ttf
2200802	WORD	wordpools/wasnorm_wordpool_less_exclusions.txt	LTP209	ltpFR	14	12	0	WELL	1600	n/a	n/a	1	0.57763671875	0.412841796875	1	lower	zerothre.ttf
2204938	WORD	wordpools/wasnorm_wordpool_less_exclusions.txt	LTP209	ltpFR	14	12	0	APPLE	33	n/a	n/a	1	0.57763671875	0.412841796875	1	lower	zerothre.ttf
2208802	WORD	wordpools/wasnorm_wordpool_less_exclusions.txt	LTP209	ltpFR	14	12	0	CEILING	265	n/a	n/a	1	0.57763671875	0.412841796875	1	lower	zerothre.ttf
2212817	WORD	wordpools/wasnorm_wordpool_less_exclusions.txt	LTP209	ltpFR	14	12	0	CARPET	247	n/a	n/a	1	0.57763671875	0.412841796875	1	lower	zerothre.ttf
2216745	WORD	wordpools/wasnorm_wordpool_less_exclusions.txt	LTP209	ltpFR	14	12	0	CHEEK	287	n/a	n/a	0	0.57763671875	0.412841796875	1	lower	zerothre.ttf
2220797	WORD	wordpools/wasnorm_wordpool_less_exclusions.txt	LTP209	ltpFR	14	12	0	DRINK	498	n/a	n/a	0	0.57763671875	0.412841796875	1	lower	zerothre.ttf
2226754	REC_START	n/a	LTP209	ltpFR	14	12	n/a	n/a	n/a	n/a	n/a	n/a	n/a	n/a	n/a	n/a	n/a
2227692	REC_WORD	wordpools/wasnorm_wordpool_less_exclusions.txt	LTP209	ltpFR	14	12	0	DRINK	498	n/a	n/a	0	n/a	n/a	n/a	n/a	n/a
2229004	REC_WORD	wordpools/wasnorm_wordpool_less_exclusions.txt	LTP209	ltpFR	14	12	0	CHEEK	287	n/a	n/a	0	n/a	n/a	n/a	n/a	n/a
2240193	REC_WORD	wordpools/wasnorm_wordpool_less_exclusions.txt	LTP209	ltpFR	14	12	1	CAN	225	n/a	n/a	0	n/a	n/a	n/a	n/a	n/a
2249642	REC_WORD	wordpools/wasnorm_wordpool_less_exclusions.txt	LTP209	ltpFR	14	12	n/a	EAR	513	n/a	n/a	n/a	n/a	n/a	n/a	n/a	n/a
2257821	REC_WORD	wordpools/wasnorm_wordpool_less_exclusions.txt	LTP209	ltpFR	14	12	n/a	SCHOOL	1248	n/a	n/a	n/a	n/a	n/a	n/a	n/a	n/a
2268723	REC_WORD	wordpools/wasnorm_wordpool_less_exclusions.txt	LTP209	ltpFR	14	12	0	SUN	1406	n/a	n/a	1	n/a	n/a	n/a	n/a	n/a
2269796	REC_WORD	wordpools/wasnorm_wordpool_less_exclusions.txt	LTP209	ltpFR	14	12	1	MOON	914	n/a	n/a	0	n/a	n/a	n/a	n/a	n/a
2278107	REC_WORD	wordpools/wasnorm_wordpool_less_exclusions.txt	LTP209	ltpFR	14	12	1	TEACHER	1440	n/a	n/a	1	n/a	n/a	n/a	n/a	n/a
2279399	REC_WORD	wordpools/wasnorm_wordpool_less_exclusions.txt	LTP209	ltpFR	14	12	n/a	CITIZEN	312	n/a	n/a	n/a	n/a	n/a	n/a	n/a	n/a
2300616	REC_WORD	wordpools/wasnorm_wordpool_less_exclusions.txt	LTP209	ltpFR	14	12	0	LOOP	844	n/a	n/a	1	n/a	n/a	n/a	n/a	n/a
2302435	REST_REWET	n/a	LTP209	ltpFR	14	12	n/a	n/a	n/a	n/a	n/a	n/a	n/a	n/a	n/a	n/a	n/a
2588233	WORD	wordpools/wasnorm_wordpool_less_exclusions.txt	LTP209	ltpFR	14	13	1	JUNGLE	764	n/a	n/a	1	0.422607421875	0.5869140625	0	upper	amplitud.ttf
2592395	WORD	wordpools/wasnorm_wordpool_less_exclusions.txt	LTP209	ltpFR	14	13	1	CHIPMUNK	304	n/a	n/a	1	0.422607421875	0.5869140625	0	upper	amplitud.ttf
2596280	WORD	wordpools/wasnorm_wordpool_less_exclusions.txt	LTP209	ltpFR	14	13	0	ARCHITECT	36	n/a	n/a	1	0.57763671875	0.412841796875	1	lower	zerothre.ttf
2600478	WORD	wordpools/wasnorm_wordpool_less_exclusions.txt	LTP209	ltpFR	14	13	0	GUEST	669	n/a	n/a	1	0.57763671875	0.412841796875	1	lower	zerothre.ttf
2604644	WORD	wordpools/wasnorm_wordpool_less_exclusions.txt	LTP209	ltpFR	14	13	0	SUPPER	1411	n/a	n/a	1	0.57763671875	0.412841796875	1	lower	zerothre.ttf
2608676	WORD	wordpools/wasnorm_wordpool_less_exclusions.txt	LTP209	ltpFR	14	13	0	APPLICATION	34	n/a	n/a	1	0.57763671875	0.412841796875	1	lower	zerothre.ttf
2612821	WORD	wordpools/wasnorm_wordpool_less_exclusions.txt	LTP209	ltpFR	14	13	0	WILDERNESS	1610	n/a	n/a	1	0.57763671875	0.412841796875	1	lower	zerothre.ttf
2616739	WORD	wordpools/wasnorm_wordpool_less_exclusions.txt	LTP209	ltpFR	14	13	1	EYE	545	n/a	n/a	1	0.422607421875	0.5869140625	0	upper	amplitud.ttf
2620718	WORD	wordpools/wasnorm_wordpool_less_exclusions.txt	LTP209	ltpFR	14	13	1	SAND	1230	n/a	n/a	0	0.422607421875	0.5869140625	0	upper	amplitud.ttf
2624569	WORD	wordpools/wasnorm_wordpool_less_exclusions.txt	LTP209	ltpFR	14	13	1	PARSLEY	1016	n/a	n/a	1	0.422607421875	0.5869140625	0	upper	amplitud.ttf
2628567	WORD	wordpools/wasnorm_wordpool_less_exclusions.txt	LTP209	ltpFR	14	13	0	NOSE	957	n/a	n/a	0	0.57763671875	0.412841796875	1	lower	zerothre.ttf
2632549	WORD	wordpools/wasnorm_wordpool_less_exclusions.txt	LTP209	ltpFR	14	13	0	MONARCH	906	n/a	n/a	1	0.57763671875	0.412841796875	1	lower	zerothre.ttf
2636598	WORD	wordpools/wasnorm_wordpool_less_exclusions.txt	LTP209	ltpFR	14	13	0	BROCCOLI	176	n/a	n/a	1	0.57763671875	0.412841796875	1	lower	zerothre.ttf
2640629	WORD	wordpools/wasnorm_wordpool_less_exclusions.txt	LTP209	ltpFR	14	13	1	NEST	945	n/a	n/a	1	0.422607421875	0.5869140625	0	upper	amplitud.ttf
2644792	WORD	wordpools/wasnorm_wordpool_less_exclusions.txt	LTP209	ltpFR	14	13	1	SPARROW	1347	n/a	n/a	1	0.422607421875	0.5869140625	0	upper	amplitud.ttf
2648626	WORD	wordpools/wasnorm_wordpool_less_exclusions.txt	LTP209	ltpFR	14	13	1	CROWN	415	n/a	n/a	3	0.422607421875	0.5869140625	0	upper	amplitud.ttf
2650183	KEY_MSG	n/a	LTP209	ltpFR	14	13	n/a	n/a	n/a	n/a	n/a	n/a	n/a	n/a	n/a	n/a	n/a
2654733	REC_START	n/a	LTP209	ltpFR	14	13	n/a	n/a	n/a	n/a	n/a	n/a	n/a	n/a	n/a	n/a	n/a
2655566	REC_WORD	wordpools/wasnorm_wordpool_less_exclusions.txt	LTP209	ltpFR	14	13	1	CROWN	415	n/a	n/a	3	n/a	n/a	n/a	n/a	n/a
2657132	REC_WORD	wordpools/wasnorm_wordpool_less_exclusions.txt	LTP209	ltpFR	14	13	0	MONARCH	906	n/a	n/a	1	n/a	n/a	n/a	n/a	n/a
2658291	REC_WORD	wordpools/wasnorm_wordpool_less_exclusions.txt	LTP209	ltpFR	14	13	1	SPARROW	1347	n/a	n/a	1	n/a	n/a	n/a	n/a	n/a
2659552	REC_WORD	wordpools/wasnorm_wordpool_less_exclusions.txt	LTP209	ltpFR	14	13	1	NEST	945	n/a	n/a	1	n/a	n/a	n/a	n/a	n/a
2660839	REC_WORD	wordpools/wasnorm_wordpool_less_exclusions.txt	LTP209	ltpFR	14	13	1	JUNGLE	764	n/a	n/a	1	n/a	n/a	n/a	n/a	n/a
2662251	REC_WORD	wordpools/wasnorm_wordpool_less_exclusions.txt	LTP209	ltpFR	14	13	1	EYE	545	n/a	n/a	1	n/a	n/a	n/a	n/a	n/a
2663238	REC_WORD	wordpools/wasnorm_wordpool_less_exclusions.txt	LTP209	ltpFR	14	13	0	NOSE	957	n/a	n/a	0	n/a	n/a	n/a	n/a	n/a
2666351	REC_WORD	wordpools/wasnorm_wordpool_less_exclusions.txt	LTP209	ltpFR	14	13	n/a	MOTHER NATURE	-1	n/a	n/a	n/a	n/a	n/a	n/a	n/a	n/a
2667356	REC_WORD_VV	wordpools/wasnorm_wordpool_less_exclusions.txt	LTP209	ltpFR	14	13	n/a	<>	-1	n/a	n/a	n/a	n/a	n/a	n/a	n/a	n/a
2673291	REC_WORD	wordpools/wasnorm_wordpool_less_exclusions.txt	LTP209	ltpFR	14	13	0	WILDERNESS	1610	n/a	n/a	1	n/a	n/a	n/a	n/a	n/a
2678494	REC_WORD	wordpools/wasnorm_wordpool_less_exclusions.txt	LTP209	ltpFR	14	13	1	SAND	1230	n/a	n/a	0	n/a	n/a	n/a	n/a	n/a
2686625	REC_WORD	wordpools/wasnorm_wordpool_less_exclusions.txt	LTP209	ltpFR	14	13	1	CHIPMUNK	304	n/a	n/a	1	n/a	n/a	n/a	n/a	n/a
2698181	REC_WORD	wordpools/wasnorm_wordpool_less_exclusions.txt	LTP209	ltpFR	14	13	0	FRUIT	610	n/a	n/a	1	n/a	n/a	n/a	n/a	n/a
2704041	REC_WORD	wordpools/wasnorm_wordpool_less_exclusions.txt	LTP209	ltpFR	14	13	1	NEST	945	n/a	n/a	1	n/a	n/a	n/a	n/a	n/a
2714896	REC_WORD	wordpools/wasnorm_wordpool_less_exclusions.txt	LTP209	ltpFR	14	13	0	APPLICATION	34	n/a	n/a	1	n/a	n/a	n/a	n/a	n/a
2726525	REC_WORD	wordpools/wasnorm_wordpool_less_exclusions.txt	LTP209	ltpFR	14	13	0	CHERRY	293	n/a	n/a	1	n/a	n/a	n/a	n/a	n/a
2738632	WORD	wordpools/wasnorm_wordpool_less_exclusions.txt	LTP209	ltpFR	14	14	0	SMOG	1330	n/a	n/a	0	0.57763671875	0.412841796875	1	lower	zerothre.ttf
2742697	WORD	wordpools/wasnorm_wordpool_less_exclusions.txt	LTP209	ltpFR	14	14	0	ASH	44	n/a	n/a	0	0.57763671875	0.412841796875	1	lower	zerothre.ttf
2746562	WORD	wordpools/wasnorm_wordpool_less_exclusions.txt	LTP209	ltpFR	14	14	0	VACUUM	1543	n/a	n/a	1	0.57763671875	0.412841796875	1	lower	zerothre.ttf
2750708	WORD	wordpools/wasnorm_wordpool_less_exclusions.txt	LTP209	ltpFR	14	14	0	LAUNDRY	803	n/a	n/a	1	0.57763671875	0.412841796875	1	lower	zerothre.ttf
2754626	WORD	wordpools/wasnorm_wordpool_less_exclusions.txt	LTP209	ltpFR	14	14	0	MOB	904	n/a	n/a	1	0.57763671875	0.412841796875	1	lower	zerothre.ttf
2758604	WORD	wordpools/wasnorm_wordpool_less_exclusions.txt	LTP209	ltpFR	14	14	0	COMMITTEE	355	n/a	n/a	1	0.57763671875	0.412841796875	1	lower	zerothre.ttf
2762756	WORD	wordpools/wasnorm_wordpool_less_exclusions.txt	LTP209	ltpFR	14	14	0	SCROLL	1257	n/a	n/a	0	0.57763671875	0.412841796875	1	lower	zerothre.ttf
2766718	WORD	wordpools/wasnorm_wordpool_less_exclusions.txt	LTP209	ltpFR	14	14	0	EAGLE	512	n/a	n/a	1	0.57763671875	0.412841796875	1	lower	zerothre.ttf
2770650	WORD	wordpools/wasnorm_wordpool_less_exclusions.txt	LTP209	ltpFR	14	14	0	DETERGENT	455	n/a	n/a	1	0.57763671875	0.412841796875	1	lower	zerothre.ttf
2774584	WORD	wordpools/wasnorm_wordpool_less_exclusions.txt	LTP209	ltpFR	14	14	0	CRYSTAL	418	n/a	n/a	0	0.57763671875	0.412841796875	1	lower	zerothre.ttf
2778499	WORD	wordpools/wasnorm_wordpool_less_exclusions.txt	LTP209	ltpFR	14	14	0	HIGHWAY	707	n/a	n/a	1	0.57763671875	0.412841796875	1	lower	zerothre.ttf
2782464	WORD	wordpools/wasnorm_wordpool_less_exclusions.txt	LTP209	ltpFR	14	14	0	ENVELOPE	537	n/a	n/a	0	0.57763671875	0.412841796875	1	lower	zerothre.ttf
2786646	WORD	wordpools/wasnorm_wordpool_less_exclusions.txt	LTP209	ltpFR	14	14	0	SHELF	1280	n/a	n/a	1	0.57763671875	0.412841796875	1	lower	zerothre.ttf
2790695	WORD	wordpools/wasnorm_wordpool_less_exclusions.txt	LTP209	ltpFR	14	14	0	AIRCRAFT	11	n/a	n/a	1	0.57763671875	0.412841796875	1	lower	zerothre.ttf
2794576	WORD	wordpools/wasnorm_wordpool_less_exclusions.txt	LTP209	ltpFR	14	14	0	CARDINAL	244	n/a	n/a	1	0.57763671875	0.412841796875	1	lower	zerothre.ttf
2798458	WORD	wordpools/wasnorm_wordpool_less_exclusions.txt	LTP209	ltpFR	14	14	0	PASSAGE	1019	n/a	n/a	1	0.57763671875	0.412841796875	1	lower	zerothre.ttf
2804431	REC_START	n/a	LTP209	ltpFR	14	14	n/a	n/a	n/a	n/a	n/a	n/a	n/a	n/a	n/a	n/a	n/a
2805209	REC_WORD	wordpools/wasnorm_wordpool_less_exclusions.txt	LTP209	ltpFR	14	14	0	PASSAGE	1019	n/a	n/a	1	n/a	n/a	n/a	n/a	n/a
2806232	REC_WORD	wordpools/wasnorm_wordpool_less_exclusions.txt	LTP209	ltpFR	14	14	0	HIGHWAY	707	n/a	n/a	1	n/a	n/a	n/a	n/a	n/a
2807170	REC_WORD	wordpools/wasnorm_wordpool_less_exclusions.txt	LTP209	ltpFR	14	14	0	CARDINAL	244	n/a	n/a	1	n/a	n/a	n/a	n/a	n/a
2808307	REC_WORD	wordpools/wasnorm_wordpool_less_exclusions.txt	LTP209	ltpFR	14	14	0	ENVELOPE	537	n/a	n/a	0	n/a	n/a	n/a	n/a	n/a
2809237	REC_WORD	wordpools/wasnorm_wordpool_less_exclusions.txt	LTP209	ltpFR	14	14	0	SHELF	1280	n/a	n/a	1	n/a	n/a	n/a	n/a	n/a
2814073	REC_WORD	wordpools/wasnorm_wordpool_less_exclusions.txt	LTP209	ltpFR	14	14	1	SPARROW	1347	n/a	n/a	1	n/a	n/a	n/a	n/a	n/a
2818798	REC_WORD	wordpools/wasnorm_wordpool_less_exclusions.txt	LTP209	ltpFR	14	14	1	TEACHER	1440	n/a	n/a	1	n/a	n/a	n/a	n/a	n/a
2829958	REC_WORD	wordpools/wasnorm_wordpool_less_exclusions.txt	LTP209	ltpFR	14	14	n/a	MUSIC	-1	n/a	n/a	n/a	n/a	n/a	n/a	n/a	n/a
2835947	REC_WORD	wordpools/wasnorm_wordpool_less_exclusions.txt	LTP209	ltpFR	14	14	n/a	HAIR	-1	n/a	n/a	n/a	n/a	n/a	n/a	n/a	n/a
2863846	REC_WORD	wordpools/wasnorm_wordpool_less_exclusions.txt	LTP209	ltpFR	14	14	n/a	SHIRT	1287	n/a	n/a	n/a	n/a	n/a	n/a	n/a	n/a
2877950	REC_WORD	wordpools/wasnorm_wordpool_less_exclusions.txt	LTP209	ltpFR	14	14	n/a	PLUM	1090	n/a	n/a	n/a	n/a	n/a	n/a	n/a	n/a
2894086	WORD	wordpools/wasnorm_wordpool_less_exclusions.txt	LTP209	ltpFR	14	15	-1	DUNGEON	507	n/a	n/a	-1	1.0	1.0	1	upper	Verdana.ttf
2897932	WORD	wordpools/wasnorm_wordpool_less_exclusions.txt	LTP209	ltpFR	14	15	-1	GENTLEMAN	631	n/a	n/a	-1	1.0	1.0	1	upper	Verdana.ttf
2901961	WORD	wordpools/wasnorm_wordpool_less_exclusions.txt	LTP209	ltpFR	14	15	-1	BRACELET	163	n/a	n/a	-1	1.0	1.0	1	upper	Verdana.ttf
2905912	WORD	wordpools/wasnorm_wordpool_less_exclusions.txt	LTP209	ltpFR	14	15	-1	ICING	732	n/a	n/a	-1	1.0	1.0	1	upper	Verdana.ttf
2909791	WORD	wordpools/wasnorm_wordpool_less_exclusions.txt	LTP209	ltpFR	14	15	-1	PISTON	1076	n/a	n/a	-1	1.0	1.0	1	upper	Verdana.ttf
2913842	WORD	wordpools/wasnorm_wordpool_less_exclusions.txt	LTP209	ltpFR	14	15	-1	CART	250	n/a	n/a	-1	1.0	1.0	1	upper	Verdana.ttf
2917824	WORD	wordpools/wasnorm_wordpool_less_exclusions.txt	LTP209	ltpFR	14	15	-1	OUTLAW	989	n/a	n/a	-1	1.0	1.0	1	upper	Verdana.ttf
2921772	WORD	wordpools/wasnorm_wordpool_less_exclusions.txt	LTP209	ltpFR	14	15	-1	SHARK	1275	n/a	n/a	-1	1.0	1.0	1	upper	Verdana.ttf
2925989	WORD	wordpools/wasnorm_wordpool_less_exclusions.txt	LTP209	ltpFR	14	15	-1	WITNESS	1618	n/a	n/a	-1	1.0	1.0	1	upper	Verdana.ttf
2929883	WORD	wordpools/wasnorm_wordpool_less_exclusions.txt	LTP209	ltpFR	14	15	-1	GAVEL	627	n/a	n/a	-1	1.0	1.0	1	upper	Verdana.ttf
2933865	WORD	wordpools/wasnorm_wordpool_less_exclusions.txt	LTP209	ltpFR	14	15	-1	NICKEL	950	n/a	n/a	-1	1.0	1.0	1	upper	Verdana.ttf
2938068	WORD	wordpools/wasnorm_wordpool_less_exclusions.txt	LTP209	ltpFR	14	15	-1	CASH	252	n/a	n/a	-1	1.0	1.0	1	upper	Verdana.ttf
2942083	WORD	wordpools/wasnorm_wordpool_less_exclusions.txt	LTP209	ltpFR	14	15	-1	PAWN	1030	n/a	n/a	-1	1.0	1.0	1	upper	Verdana.ttf
2945963	WORD	wordpools/wasnorm_wordpool_less_exclusions.txt	LTP209	ltpFR	14	15	-1	CAKE	219	n/a	n/a	-1	1.0	1.0	1	upper	Verdana.ttf
2950047	WORD	wordpools/wasnorm_wordpool_less_exclusions.txt	LTP209	ltpFR	14	15	-1	STICKER	1382	n/a	n/a	-1	1.0	1.0	1	upper	Verdana.ttf
2953877	WORD	wordpools/wasnorm_wordpool_less_exclusions.txt	LTP209	ltpFR	14	15	-1	OLIVE	975	n/a	n/a	-1	1.0	1.0	1	upper	Verdana.ttf
2959934	REC_START	n/a	LTP209	ltpFR	14	15	n/a	n/a	n/a	n/a	n/a	n/a	n/a	n/a	n/a	n/a	n/a
2960827	REC_WORD	wordpools/wasnorm_wordpool_less_exclusions.txt	LTP209	ltpFR	14	15	-1	OLIVE	975	n/a	n/a	-1	n/a	n/a	n/a	n/a	n/a
2961978	REC_WORD	wordpools/wasnorm_wordpool_less_exclusions.txt	LTP209	ltpFR	14	15	-1	STICKER	1382	n/a	n/a	-1	n/a	n/a	n/a	n/a	n/a
2962979	REC_WORD_VV	wordpools/wasnorm_wordpool_less_exclusions.txt	LTP209	ltpFR	14	15	n/a	<>	-1	n/a	n/a	n/a	n/a	n/a	n/a	n/a	n/a
2964214	REC_WORD	wordpools/wasnorm_wordpool_less_exclusions.txt	LTP209	ltpFR	14	15	-1	DUNGEON	507	n/a	n/a	-1	n/a	n/a	n/a	n/a	n/a
2965376	REC_WORD	wordpools/wasnorm_wordpool_less_exclusions.txt	LTP209	ltpFR	14	15	-1	GENTLEMAN	631	n/a	n/a	-1	n/a	n/a	n/a	n/a	n/a
2966788	REC_WORD	wordpools/wasnorm_wordpool_less_exclusions.txt	LTP209	ltpFR	14	15	-1	BRACELET	163	n/a	n/a	-1	n/a	n/a	n/a	n/a	n/a
2968150	REC_WORD	wordpools/wasnorm_wordpool_less_exclusions.txt	LTP209	ltpFR	14	15	-1	OUTLAW	989	n/a	n/a	-1	n/a	n/a	n/a	n/a	n/a
2969327	REC_WORD	wordpools/wasnorm_wordpool_less_exclusions.txt	LTP209	ltpFR	14	15	-1	GAVEL	627	n/a	n/a	-1	n/a	n/a	n/a	n/a	n/a
2970295	REC_WORD	wordpools/wasnorm_wordpool_less_exclusions.txt	LTP209	ltpFR	14	15	-1	NICKEL	950	n/a	n/a	-1	n/a	n/a	n/a	n/a	n/a
2971508	REC_WORD	wordpools/wasnorm_wordpool_less_exclusions.txt	LTP209	ltpFR	14	15	-1	CASH	252	n/a	n/a	-1	n/a	n/a	n/a	n/a	n/a
2972864	REC_WORD	wordpools/wasnorm_wordpool_less_exclusions.txt	LTP209	ltpFR	14	15	-1	ICING	732	n/a	n/a	-1	n/a	n/a	n/a	n/a	n/a
2973997	REC_WORD	wordpools/wasnorm_wordpool_less_exclusions.txt	LTP209	ltpFR	14	15	-1	CAKE	219	n/a	n/a	-1	n/a	n/a	n/a	n/a	n/a
2977035	REC_WORD	wordpools/wasnorm_wordpool_less_exclusions.txt	LTP209	ltpFR	14	15	0	BARRACUDA	90	n/a	n/a	1	n/a	n/a	n/a	n/a	n/a
2981894	REC_WORD	wordpools/wasnorm_wordpool_less_exclusions.txt	LTP209	ltpFR	14	15	n/a	TESTIFY	-1	n/a	n/a	n/a	n/a	n/a	n/a	n/a	n/a
2988289	REC_WORD	wordpools/wasnorm_wordpool_less_exclusions.txt	LTP209	ltpFR	14	15	-1	GENTLEMAN	631	n/a	n/a	-1	n/a	n/a	n/a	n/a	n/a
3003016	REC_WORD	wordpools/wasnorm_wordpool_less_exclusions.txt	LTP209	ltpFR	14	15	-1	CART	250	n/a	n/a	-1	n/a	n/a	n/a	n/a	n/a
3023574	REC_WORD	wordpools/wasnorm_wordpool_less_exclusions.txt	LTP209	ltpFR	14	15	-1	OUTLAW	989	n/a	n/a	-1	n/a	n/a	n/a	n/a	n/a
3040567	WORD	wordpools/wasnorm_wordpool_less_exclusions.txt	LTP209	ltpFR	14	16	-1	PARTY	1018	n/a	n/a	-1	1.0	1.0	1	upper	Verdana.ttf
3044665	WORD	wordpools/wasnorm_wordpool_less_exclusions.txt	LTP209	ltpFR	14	16	-1	GOLD	647	n/a	n/a	-1	1.0	1.0	1	upper	Verdana.ttf
3048681	WORD	wordpools/wasnorm_wordpool_less_exclusions.txt	LTP209	ltpFR	14	16	-1	VEST	1559	n/a	n/a	-1	1.0	1.0	1	upper	Verdana.ttf
3052716	WORD	wordpools/wasnorm_wordpool_less_exclusions.txt	LTP209	ltpFR	14	16	-1	SANDWICH	1232	n/a	n/a	-1	1.0	1.0	1	upper	Verdana.ttf
3056744	WORD	wordpools/wasnorm_wordpool_less_exclusions.txt	LTP209	ltpFR	14	16	-1	SHIP	1286	n/a	n/a	-1	1.0	1.0	1	upper	Verdana.ttf
3060746	WORD	wordpools/wasnorm_wordpool_less_exclusions.txt	LTP209	ltpFR	14	16	-1	BOAT	144	n/a	n/a	-1	1.0	1.0	1	upper	Verdana.ttf
3064895	WORD	wordpools/wasnorm_wordpool_less_exclusions.txt	LTP209	ltpFR	14	16	-1	SANDPAPER	1231	n/a	n/a	-1	1.0	1.0	1	upper	Verdana.ttf
3069078	WORD	wordpools/wasnorm_wordpool_less_exclusions.txt	LTP209	ltpFR	14	16	-1	SKIN	1318	n/a	n/a	-1	1.0	1.0	1	upper	Verdana.ttf
3073144	WORD	wordpools/wasnorm_wordpool_less_exclusions.txt	LTP209	ltpFR	14	16	-1	BELT	120	n/a	n/a	-1	1.0	1.0	1	upper	Verdana.ttf
3076992	WORD	wordpools/wasnorm_wordpool_less_exclusions.txt	LTP209	ltpFR	14	16	-1	HEATER	698	n/a	n/a	-1	1.0	1.0	1	upper	Verdana.ttf
3081207	WORD	wordpools/wasnorm_wordpool_less_exclusions.txt	LTP209	ltpFR	14	16	-1	BEAD	103	n/a	n/a	-1	1.0	1.0	1	upper	Verdana.ttf
3085390	WORD	wordpools/wasnorm_wordpool_less_exclusions.txt	LTP209	ltpFR	14	16	-1	LAWN	805	n/a	n/a	-1	1.0	1.0	1	upper	Verdana.ttf
3089388	WORD	wordpools/wasnorm_wordpool_less_exclusions.txt	LTP209	ltpFR	14	16	-1	FIELD	562	n/a	n/a	-1	1.0	1.0	1	upper	Verdana.ttf
3093570	WORD	wordpools/wasnorm_wordpool_less_exclusions.txt	LTP209	ltpFR	14	16	-1	BLUEPRINT	142	n/a	n/a	-1	1.0	1.0	1	upper	Verdana.ttf
3097749	WORD	wordpools/wasnorm_wordpool_less_exclusions.txt	LTP209	ltpFR	14	16	-1	SKATE	1313	n/a	n/a	-1	1.0	1.0	1	upper	Verdana.ttf
3101884	WORD	wordpools/wasnorm_wordpool_less_exclusions.txt	LTP209	ltpFR	14	16	-1	SAUSAGE	1238	n/a	n/a	-1	1.0	1.0	1	upper	Verdana.ttf
3107657	REC_START	n/a	LTP209	ltpFR	14	16	n/a	n/a	n/a	n/a	n/a	n/a	n/a	n/a	n/a	n/a	n/a
3108460	REC_WORD	wordpools/wasnorm_wordpool_less_exclusions.txt	LTP209	ltpFR	14	16	-1	SAUSAGE	1238	n/a	n/a	-1	n/a	n/a	n/a	n/a	n/a
3109474	REC_WORD_VV	wordpools/wasnorm_wordpool_less_exclusions.txt	LTP209	ltpFR	14	16	n/a	<>	-1	n/a	n/a	n/a	n/a	n/a	n/a	n/a	n/a
3111493	REC_WORD	wordpools/wasnorm_wordpool_less_exclusions.txt	LTP209	ltpFR	14	16	-1	SHIP	1286	n/a	n/a	-1	n/a	n/a	n/a	n/a	n/a
3112935	REC_WORD	wordpools/wasnorm_wordpool_less_exclusions.txt	LTP209	ltpFR	14	16	-1	BOAT	144	n/a	n/a	-1	n/a	n/a	n/a	n/a	n/a
3114062	REC_WORD	wordpools/wasnorm_wordpool_less_exclusions.txt	LTP209	ltpFR	14	16	n/a	YARD	1630	n/a	n/a	n/a	n/a	n/a	n/a	n/a	n/a
3115447	REC_WORD	wordpools/wasnorm_wordpool_less_exclusions.txt	LTP209	ltpFR	14	16	-1	FIELD	562	n/a	n/a	-1	n/a	n/a	n/a	n/a	n/a
3117709	REC_WORD	wordpools/wasnorm_wordpool_less_exclusions.txt	LTP209	ltpFR	14	16	-1	GOLD	647	n/a	n/a	-1	n/a	n/a	n/a	n/a	n/a
3119555	REC_WORD	wordpools/wasnorm_wordpool_less_exclusions.txt	LTP209	ltpFR	14	16	-1	PARTY	1018	n/a	n/a	-1	n/a	n/a	n/a	n/a	n/a
3122672	REC_WORD	wordpools/wasnorm_wordpool_less_exclusions.txt	LTP209	ltpFR	14	16	-1	VEST	1559	n/a	n/a	-1	n/a	n/a	n/a	n/a	n/a
3124124	REC_WORD	wordpools/wasnorm_wordpool_less_exclusions.txt	LTP209	ltpFR	14	16	-1	SKIN	1318	n/a	n/a	-1	n/a	n/a	n/a	n/a	n/a
3127147	REC_WORD	wordpools/wasnorm_wordpool_less_exclusions.txt	LTP209	ltpFR	14	16	-1	SKATE	1313	n/a	n/a	-1	n/a	n/a	n/a	n/a	n/a
3129572	REC_WORD	wordpools/wasnorm_wordpool_less_exclusions.txt	LTP209	ltpFR	14	16	-1	SANDWICH	1232	n/a	n/a	-1	n/a	n/a	n/a	n/a	n/a
3130574	REC_WORD_VV	wordpools/wasnorm_wordpool_less_exclusions.txt	LTP209	ltpFR	14	16	n/a	<>	-1	n/a	n/a	n/a	n/a	n/a	n/a	n/a	n/a
3133229	REC_WORD	wordpools/wasnorm_wordpool_less_exclusions.txt	LTP209	ltpFR	14	16	-1	PARTY	1018	n/a	n/a	-1	n/a	n/a	n/a	n/a	n/a
3138806	REC_WORD	wordpools/wasnorm_wordpool_less_exclusions.txt	LTP209	ltpFR	14	16	-1	SANDWICH	1232	n/a	n/a	-1	n/a	n/a	n/a	n/a	n/a
3149047	REC_WORD	wordpools/wasnorm_wordpool_less_exclusions.txt	LTP209	ltpFR	14	16	-1	SANDPAPER	1231	n/a	n/a	-1	n/a	n/a	n/a	n/a	n/a
3150047	REC_WORD_VV	wordpools/wasnorm_wordpool_less_exclusions.txt	LTP209	ltpFR	14	16	n/a	<>	-1	n/a	n/a	n/a	n/a	n/a	n/a	n/a	n/a
3156042	REC_WORD	wordpools/wasnorm_wordpool_less_exclusions.txt	LTP209	ltpFR	14	16	n/a	GUESS	-1	n/a	n/a	n/a	n/a	n/a	n/a	n/a	n/a
3158541	REC_WORD	wordpools/wasnorm_wordpool_less_exclusions.txt	LTP209	ltpFR	14	16	-1	PARTY	1018	n/a	n/a	-1	n/a	n/a	n/a	n/a	n/a
3164458	REC_WORD	wordpools/wasnorm_wordpool_less_exclusions.txt	LTP209	ltpFR	14	16	-1	VEST	1559	n/a	n/a	-1	n/a	n/a	n/a	n/a	n/a
3170429	REC_WORD	wordpools/wasnorm_wordpool_less_exclusions.txt	LTP209	ltpFR	14	16	-1	BEAD	103	n/a	n/a	-1	n/a	n/a	n/a	n/a	n/a
3210396	REC_START	n/a	LTP209	ltpFR	14	1	n/a	n/a	n/a	n/a	n/a	n/a	n/a	n/a	n/a	n/a	n/a
3210444	RECOG_TARGET	n/a	LTP209	ltpFR	14	1	0	SUPPER	1411	1	5	1	n/a	n/a	n/a	n/a	n/a
3211918	RECOG_RESP	n/a	LTP209	ltpFR	14	1	0	SUPPER	1411	1	n/a	1	n/a	n/a	n/a	n/a	n/a
3213115	RECOG_CONF	n/a	LTP209	ltpFR	14	1	0	SUPPER	1411	n/a	5	1	n/a	n/a	n/a	n/a	n/a
3214907	RECOG_TARGET	n/a	LTP209	ltpFR	14	1	1	WARDROBE	1587	1	3	0	n/a	n/a	n/a	n/a	n/a
3216066	RECOG_RESP	n/a	LTP209	ltpFR	14	1	1	WARDROBE	1587	1	n/a	0	n/a	n/a	n/a	n/a	n/a
3217305	RECOG_CONF	n/a	LTP209	ltpFR	14	1	1	WARDROBE	1587	n/a	3	0	n/a	n/a	n/a	n/a	n/a
3219077	RECOG_TARGET	n/a	LTP209	ltpFR	14	1	0	TUBE	1516	1	5	0	n/a	n/a	n/a	n/a	n/a
3219724	RECOG_RESP	n/a	LTP209	ltpFR	14	1	0	TUBE	1516	1	n/a	0	n/a	n/a	n/a	n/a	n/a
3220634	RECOG_CONF	n/a	LTP209	ltpFR	14	1	0	TUBE	1516	n/a	5	0	n/a	n/a	n/a	n/a	n/a
3222306	RECOG_LURE	n/a	LTP209	ltpFR	14	1	n/a	BLENDER	136	0	4	n/a	n/a	n/a	n/a	n/a	n/a
3222988	RECOG_RESP	n/a	LTP209	ltpFR	14	1	n/a	BLENDER	136	0	n/a	n/a	n/a	n/a	n/a	n/a	n/a
3223890	RECOG_CONF	n/a	LTP209	ltpFR	14	1	n/a	BLENDER	136	n/a	4	n/a	n/a	n/a	n/a	n/a	n/a
3225668	RECOG_TARGET	n/a	LTP209	ltpFR	14	1	0	VEHICLE	1553	1	5	1	n/a	n/a	n/a	n/a	n/a
3226447	RECOG_RESP	n/a	LTP209	ltpFR	14	1	0	VEHICLE	1553	1	n/a	1	n/a	n/a	n/a	n/a	n/a
3227358	RECOG_CONF	n/a	LTP209	ltpFR	14	1	0	VEHICLE	1553	n/a	5	1	n/a	n/a	n/a	n/a	n/a
3228994	RECOG_LURE	n/a	LTP209	ltpFR	14	1	n/a	VEGETABLE	1552	0	5	n/a	n/a	n/a	n/a	n/a	n/a
3230833	RECOG_RESP	n/a	LTP209	ltpFR	14	1	n/a	VEGETABLE	1552	0	n/a	n/a	n/a	n/a	n/a	n/a	n/a
3231891	RECOG_CONF	n/a	LTP209	ltpFR	14	1	n/a	VEGETABLE	1552	n/a	5	n/a	n/a	n/a	n/a	n/a	n/a
3233597	RECOG_TARGET	n/a	LTP209	ltpFR	14	1	1	ALLIGATOR	16	1	5	1	n/a	n/a	n/a	n/a	n/a
3234220	RECOG_RESP	n/a	LTP209	ltpFR	14	1	1	ALLIGATOR	16	1	n/a	1	n/a	n/a	n/a	n/a	n/a
3235224	RECOG_CONF	n/a	LTP209	ltpFR	14	1	1	ALLIGATOR	16	n/a	5	1	n/a	n/a	n/a	n/a	n/a
3236759	RECOG_LURE	n/a	LTP209	ltpFR	14	1	n/a	KITTEN	780	0	1	n/a	n/a	n/a	n/a	n/a	n/a
3237796	RECOG_RESP	n/a	LTP209	ltpFR	14	1	n/a	KITTEN	780	0	n/a	n/a	n/a	n/a	n/a	n/a	n/a
3238813	RECOG_CONF	n/a	LTP209	ltpFR	14	1	n/a	KITTEN	780	n/a	1	n/a	n/a	n/a	n/a	n/a	n/a
3240490	RECOG_TARGET	n/a	LTP209	ltpFR	14	1	0	CHERRY	293	1	5	1	n/a	n/a	n/a	n/a	n/a
3241403	RECOG_RESP	n/a	LTP209	ltpFR	14	1	0	CHERRY	293	1	n/a	1	n/a	n/a	n/a	n/a	n/a
3242444	RECOG_CONF	n/a	LTP209	ltpFR	14	1	0	CHERRY	293	n/a	5	1	n/a	n/a	n/a	n/a	n/a
3244105	RECOG_TARGET	n/a	LTP209	ltpFR	14	1	1	STEW	1380	1	5	0	n/a	n/a	n/a	n/a	n/a
3244900	RECOG_RESP	n/a	LTP209	ltpFR	14	1	1	STEW	1380	1	n/a	0	n/a	n/a	n/a	n/a	n/a
3245940	RECOG_CONF	n/a	LTP209	ltpFR	14	1	1	STEW	1380	n/a	5	0	n/a	n/a	n/a	n/a	n/a
3247283	RECOG_LURE	n/a	LTP209	ltpFR	14	1	n/a	TURKEY	1520	0	5	n/a	n/a	n/a	n/a	n/a	n/a
3248048	RECOG_RESP	n/a	LTP209	ltpFR	14	1	n/a	TURKEY	1520	0	n/a	n/a	n/a	n/a	n/a	n/a	n/a
3249001	RECOG_CONF	n/a	LTP209	ltpFR	14	1	n/a	TURKEY	1520	n/a	5	n/a	n/a	n/a	n/a	n/a	n/a
3250412	RECOG_TARGET	n/a	LTP209	ltpFR	14	1	0	PICTURE	1061	1	5	1	n/a	n/a	n/a	n/a	n/a
3251085	RECOG_RESP	n/a	LTP209	ltpFR	14	1	0	PICTURE	1061	1	n/a	1	n/a	n/a	n/a	n/a	n/a
3252076	RECOG_CONF	n/a	LTP209	ltpFR	14	1	0	PICTURE	1061	n/a	5	1	n/a	n/a	n/a	n/a	n/a
3253486	RECOG_TARGET	n/a	LTP209	ltpFR	14	1	-1	FIELD	562	1	5	-1	n/a	n/a	n/a	n/a	n/a
3254330	RECOG_RESP	n/a	LTP209	ltpFR	14	1	-1	FIELD	562	1	n/a	-1	n/a	n/a	n/a	n/a	n/a
3255251	RECOG_CONF	n/a	LTP209	ltpFR	14	1	-1	FIELD	562	n/a	5	-1	n/a	n/a	n/a	n/a	n/a
3256668	RECOG_LURE	n/a	LTP209	ltpFR	14	1	n/a	NAPKIN	937	0	5	n/a	n/a	n/a	n/a	n/a	n/a
3257437	RECOG_RESP	n/a	LTP209	ltpFR	14	1	n/a	NAPKIN	937	0	n/a	n/a	n/a	n/a	n/a	n/a	n/a
3258389	RECOG_CONF	n/a	LTP209	ltpFR	14	1	n/a	NAPKIN	937	n/a	5	n/a	n/a	n/a	n/a	n/a	n/a
3259813	RECOG_LURE	n/a	LTP209	ltpFR	14	1	n/a	TUNNEL	1519	0	2	n/a	n/a	n/a	n/a	n/a	n/a
3260977	RECOG_RESP	n/a	LTP209	ltpFR	14	1	n/a	TUNNEL	1519	0	n/a	n/a	n/a	n/a	n/a	n/a	n/a
3262096	RECOG_CONF	n/a	LTP209	ltpFR	14	1	n/a	TUNNEL	1519	n/a	2	n/a	n/a	n/a	n/a	n/a	n/a
3263694	RECOG_TARGET	n/a	LTP209	ltpFR	14	1	1	PLASTER	1085	1	5	0	n/a	n/a	n/a	n/a	n/a
3264598	RECOG_RESP	n/a	LTP209	ltpFR	14	1	1	PLASTER	1085	1	n/a	0	n/a	n/a	n/a	n/a	n/a
3265554	RECOG_CONF	n/a	LTP209	ltpFR	14	1	1	PLASTER	1085	n/a	5	0	n/a	n/a	n/a	n/a	n/a
3267125	RECOG_LURE	n/a	LTP209	ltpFR	14	1	n/a	GRADUATE	653	0	5	n/a	n/a	n/a	n/a	n/a	n/a
3268663	RECOG_RESP	n/a	LTP209	ltpFR	14	1	n/a	GRADUATE	653	0	n/a	n/a	n/a	n/a	n/a	n/a	n/a
3269668	RECOG_CONF	n/a	LTP209	ltpFR	14	1	n/a	GRADUATE	653	n/a	5	n/a	n/a	n/a	n/a	n/a	n/a
3271240	RECOG_TARGET	n/a	LTP209	ltpFR	14	1	0	GUEST	669	1	5	1	n/a	n/a	n/a	n/a	n/a
3271932	RECOG_RESP	n/a	LTP209	ltpFR	14	1	0	GUEST	669	1	n/a	1	n/a	n/a	n/a	n/a	n/a
3272998	RECOG_CONF	n/a	LTP209	ltpFR	14	1	0	GUEST	669	n/a	5	1	n/a	n/a	n/a	n/a	n/a
3274535	RECOG_TARGET	n/a	LTP209	ltpFR	14	1	0	CHAUFFEUR	283	1	5	1	n/a	n/a	n/a	n/a	n/a
3279050	RECOG_RESP	n/a	LTP209	ltpFR	14	1	0	CHAUFFEUR	283	1	n/a	1	n/a	n/a	n/a	n/a	n/a
3280404	RECOG_CONF	n/a	LTP209	ltpFR	14	1	0	CHAUFFEUR	283	n/a	5	1	n/a	n/a	n/a	n/a	n/a
3282014	RECOG_LURE	n/a	LTP209	ltpFR	14	1	n/a	HANGER	687	0	4	n/a	n/a	n/a	n/a	n/a	n/a
3288299	RECOG_RESP	n/a	LTP209	ltpFR	14	1	n/a	HANGER	687	0	n/a	n/a	n/a	n/a	n/a	n/a	n/a
3291437	RECOG_CONF	n/a	LTP209	ltpFR	14	1	n/a	HANGER	687	n/a	4	n/a	n/a	n/a	n/a	n/a	n/a
3365663	REC_START	n/a	LTP209	ltpFR	14	2	n/a	n/a	n/a	n/a	n/a	n/a	n/a	n/a	n/a	n/a	n/a
3365712	RECOG_TARGET	n/a	LTP209	ltpFR	14	2	0	DRAWING	494	1	5	0	n/a	n/a	n/a	n/a	n/a
3366712	RECOG_RESP	n/a	LTP209	ltpFR	14	2	0	DRAWING	494	1	n/a	0	n/a	n/a	n/a	n/a	n/a
3367704	RECOG_CONF	n/a	LTP209	ltpFR	14	2	0	DRAWING	494	n/a	5	0	n/a	n/a	n/a	n/a	n/a
3369377	RECOG_TARGET	n/a	LTP209	ltpFR	14	2	0	PALACE	1006	1	3	1	n/a	n/a	n/a	n/a	n/a
3369996	RECOG_RESP	n/a	LTP209	ltpFR	14	2	0	PALACE	1006	1	n/a	1	n/a	n/a	n/a	n/a	n/a
3370876	RECOG_CONF	n/a	LTP209	ltpFR	14	2	0	PALACE	1006	n/a	3	1	n/a	n/a	n/a	n/a	n/a
3372421	RECOG_TARGET	n/a	LTP209	ltpFR	14	2	-1	OFFICE	972	1	5	-1	n/a	n/a	n/a	n/a	n/a
3373150	RECOG_RESP	n/a	LTP209	ltpFR	14	2	-1	OFFICE	972	1	n/a	-1	n/a	n/a	n/a	n/a	n/a
3373896	RECOG_CONF	n/a	LTP209	ltpFR	14	2	-1	OFFICE	972	n/a	5	-1	n/a	n/a	n/a	n/a	n/a
3375465	RECOG_TARGET	n/a	LTP209	ltpFR	14	2	0	VACUUM	1543	1	5	1	n/a	n/a	n/a	n/a	n/a
3376093	RECOG_RESP	n/a	LTP209	ltpFR	14	2	0	VACUUM	1543	1	n/a	1	n/a	n/a	n/a	n/a	n/a
3376972	RECOG_CONF	n/a	LTP209	ltpFR	14	2	0	VACUUM	1543	n/a	5	1	n/a	n/a	n/a	n/a	n/a
3378357	RECOG_TARGET	n/a	LTP209	ltpFR	14	2	1	ARMY	39	1	3	1	n/a	n/a	n/a	n/a	n/a
3378983	RECOG_RESP	n/a	LTP209	ltpFR	14	2	1	ARMY	39	1	n/a	1	n/a	n/a	n/a	n/a	n/a
3379765	RECOG_CONF	n/a	LTP209	ltpFR	14	2	1	ARMY	39	n/a	3	1	n/a	n/a	n/a	n/a	n/a
3381338	RECOG_TARGET	n/a	LTP209	ltpFR	14	2	0	LOOP	844	1	5	1	n/a	n/a	n/a	n/a	n/a
3381882	RECOG_RESP	n/a	LTP209	ltpFR	14	2	0	LOOP	844	1	n/a	1	n/a	n/a	n/a	n/a	n/a
3382689	RECOG_CONF	n/a	LTP209	ltpFR	14	2	0	LOOP	844	n/a	5	1	n/a	n/a	n/a	n/a	n/a
3384066	RECOG_TARGET	n/a	LTP209	ltpFR	14	2	1	FRECKLE	602	1	5	0	n/a	n/a	n/a	n/a	n/a
3384622	RECOG_RESP	n/a	LTP209	ltpFR	14	2	1	FRECKLE	602	1	n/a	0	n/a	n/a	n/a	n/a	n/a
3385337	RECOG_CONF	n/a	LTP209	ltpFR	14	2	1	FRECKLE	602	n/a	5	0	n/a	n/a	n/a	n/a	n/a
3386791	RECOG_LURE	n/a	LTP209	ltpFR	14	2	n/a	MARBLE	867	0	1	n/a	n/a	n/a	n/a	n/a	n/a
3387755	RECOG_RESP	n/a	LTP209	ltpFR	14	2	n/a	MARBLE	867	0	n/a	n/a	n/a	n/a	n/a	n/a	n/a
3388703	RECOG_CONF	n/a	LTP209	ltpFR	14	2	n/a	MARBLE	867	n/a	1	n/a	n/a	n/a	n/a	n/a	n/a
3390452	RECOG_TARGET	n/a	LTP209	ltpFR	14	2	-1	SHIP	1286	1	5	-1	n/a	n/a	n/a	n/a	n/a
3391007	RECOG_RESP	n/a	LTP209	ltpFR	14	2	-1	SHIP	1286	1	n/a	-1	n/a	n/a	n/a	n/a	n/a
3391746	RECOG_CONF	n/a	LTP209	ltpFR	14	2	-1	SHIP	1286	n/a	5	-1	n/a	n/a	n/a	n/a	n/a
3393381	RECOG_TARGET	n/a	LTP209	ltpFR	14	2	1	TONGUE	1479	1	3	1	n/a	n/a	n/a	n/a	n/a
3393964	RECOG_RESP	n/a	LTP209	ltpFR	14	2	1	TONGUE	1479	1	n/a	1	n/a	n/a	n/a	n/a	n/a
3395011	RECOG_CONF	n/a	LTP209	ltpFR	14	2	1	TONGUE	1479	n/a	3	1	n/a	n/a	n/a	n/a	n/a
3396998	RECOG_TARGET	n/a	LTP209	ltpFR	14	2	0	SUN	1406	1	5	1	n/a	n/a	n/a	n/a	n/a
3397997	RECOG_RESP	n/a	LTP209	ltpFR	14	2	0	SUN	1406	1	n/a	1	n/a	n/a	n/a	n/a	n/a
3398902	RECOG_CONF	n/a	LTP209	ltpFR	14	2	0	SUN	1406	n/a	5	1	n/a	n/a	n/a	n/a	n/a
3400293	RECOG_TARGET	n/a	LTP209	ltpFR	14	2	1	SEAGULL	1261	1	5	1	n/a	n/a	n/a	n/a	n/a
3400907	RECOG_RESP	n/a	LTP209	ltpFR	14	2	1	SEAGULL	1261	1	n/a	1	n/a	n/a	n/a	n/a	n/a
3401661	RECOG_CONF	n/a	LTP209	ltpFR	14	2	1	SEAGULL	1261	n/a	5	1	n/a	n/a	n/a	n/a	n/a
3403104	RECOG_TARGET	n/a	LTP209	ltpFR	14	2	1	RAKE	1164	1	5	3	n/a	n/a	n/a	n/a	n/a
3403690	RECOG_RESP	n/a	LTP209	ltpFR	14	2	1	RAKE	1164	1	n/a	3	n/a	n/a	n/a	n/a	n/a
3404464	RECOG_CONF	n/a	LTP209	ltpFR	14	2	1	RAKE	1164	n/a	5	3	n/a	n/a	n/a	n/a	n/a
3405964	RECOG_LURE	n/a	LTP209	ltpFR	14	2	n/a	TOE	1473	0	5	n/a	n/a	n/a	n/a	n/a	n/a
3406650	RECOG_RESP	n/a	LTP209	ltpFR	14	2	n/a	TOE	1473	0	n/a	n/a	n/a	n/a	n/a	n/a	n/a
3407443	RECOG_CONF	n/a	LTP209	ltpFR	14	2	n/a	TOE	1473	n/a	5	n/a	n/a	n/a	n/a	n/a	n/a
3408821	RECOG_LURE	n/a	LTP209	ltpFR	14	2	n/a	SLUG	1329	0	2	n/a	n/a	n/a	n/a	n/a	n/a
3409535	RECOG_RESP	n/a	LTP209	ltpFR	14	2	n/a	SLUG	1329	0	n/a	n/a	n/a	n/a	n/a	n/a	n/a
3410369	RECOG_CONF	n/a	LTP209	ltpFR	14	2	n/a	SLUG	1329	n/a	2	n/a	n/a	n/a	n/a	n/a	n/a
3411869	RECOG_TARGET	n/a	LTP209	ltpFR	14	2	-1	GLACIER	638	1	5	-1	n/a	n/a	n/a	n/a	n/a
3412543	RECOG_RESP	n/a	LTP209	ltpFR	14	2	-1	GLACIER	638	1	n/a	-1	n/a	n/a	n/a	n/a	n/a
3413389	RECOG_CONF	n/a	LTP209	ltpFR	14	2	-1	GLACIER	638	n/a	5	-1	n/a	n/a	n/a	n/a	n/a
3414730	RECOG_LURE	n/a	LTP209	ltpFR	14	2	n/a	BOUQUET	157	0	5	n/a	n/a	n/a	n/a	n/a	n/a
3415588	RECOG_RESP	n/a	LTP209	ltpFR	14	2	n/a	BOUQUET	157	0	n/a	n/a	n/a	n/a	n/a	n/a	n/a
3416400	RECOG_CONF	n/a	LTP209	ltpFR	14	2	n/a	BOUQUET	157	n/a	5	n/a	n/a	n/a	n/a	n/a	n/a
3417892	RECOG_LURE	n/a	LTP209	ltpFR	14	2	n/a	SWIMMER	1420	0	3	n/a	n/a	n/a	n/a	n/a	n/a
3418611	RECOG_RESP	n/a	LTP209	ltpFR	14	2	n/a	SWIMMER	1420	0	n/a	n/a	n/a	n/a	n/a	n/a	n/a
3419527	RECOG_CONF	n/a	LTP209	ltpFR	14	2	n/a	SWIMMER	1420	n/a	3	n/a	n/a	n/a	n/a	n/a	n/a
3420988	RECOG_TARGET	n/a	LTP209	ltpFR	14	2	-1	BILL	126	1	5	-1	n/a	n/a	n/a	n/a	n/a
3421652	RECOG_RESP	n/a	LTP209	ltpFR	14	2	-1	BILL	126	1	n/a	-1	n/a	n/a	n/a	n/a	n/a
3422434	RECOG_CONF	n/a	LTP209	ltpFR	14	2	-1	BILL	126	n/a	5	-1	n/a	n/a	n/a	n/a	n/a
3424033	RECOG_LURE	n/a	LTP209	ltpFR	14	2	n/a	ROBBER	1197	0	5	n/a	n/a	n/a	n/a	n/a	n/a
3424723	RECOG_RESP	n/a	LTP209	ltpFR	14	2	n/a	ROBBER	1197	0	n/a	n/a	n/a	n/a	n/a	n/a	n/a
3425616	RECOG_CONF	n/a	LTP209	ltpFR	14	2	n/a	ROBBER	1197	n/a	5	n/a	n/a	n/a	n/a	n/a	n/a
3436622	REC_START	n/a	LTP209	ltpFR	14	3	n/a	n/a	n/a	n/a	n/a	n/a	n/a	n/a	n/a	n/a	n/a
3436676	RECOG_LURE	n/a	LTP209	ltpFR	14	3	n/a	BRUSH	182	0	1	n/a	n/a	n/a	n/a	n/a	n/a
3437605	RECOG_RESP	n/a	LTP209	ltpFR	14	3	n/a	BRUSH	182	0	n/a	n/a	n/a	n/a	n/a	n/a	n/a
3438515	RECOG_CONF	n/a	LTP209	ltpFR	14	3	n/a	BRUSH	182	n/a	1	n/a	n/a	n/a	n/a	n/a	n/a
3440361	RECOG_LURE	n/a	LTP209	ltpFR	14	3	n/a	BEARD	107	0	3	n/a	n/a	n/a	n/a	n/a	n/a
3441011	RECOG_RESP	n/a	LTP209	ltpFR	14	3	n/a	BEARD	107	0	n/a	n/a	n/a	n/a	n/a	n/a	n/a
3441854	RECOG_CONF	n/a	LTP209	ltpFR	14	3	n/a	BEARD	107	n/a	3	n/a	n/a	n/a	n/a	n/a	n/a
3443421	RECOG_LURE	n/a	LTP209	ltpFR	14	3	n/a	MANAGER	863	0	1	n/a	n/a	n/a	n/a	n/a	n/a
3444358	RECOG_RESP	n/a	LTP209	ltpFR	14	3	n/a	MANAGER	863	0	n/a	n/a	n/a	n/a	n/a	n/a	n/a
3445344	RECOG_CONF	n/a	LTP209	ltpFR	14	3	n/a	MANAGER	863	n/a	1	n/a	n/a	n/a	n/a	n/a	n/a
3447187	RECOG_LURE	n/a	LTP209	ltpFR	14	3	n/a	SPOUSE	1358	0	5	n/a	n/a	n/a	n/a	n/a	n/a
3447900	RECOG_RESP_VV	n/a	LTP209	ltpFR	14	3	n/a	SPOUSE	1358	1	n/a	n/a	n/a	n/a	n/a	n/a	n/a
3448390	RECOG_RESP	n/a	LTP209	ltpFR	14	3	n/a	SPOUSE	1358	0	n/a	n/a	n/a	n/a	n/a	n/a	n/a
3449613	RECOG_CONF	n/a	LTP209	ltpFR	14	3	n/a	SPOUSE	1358	n/a	5	n/a	n/a	n/a	n/a	n/a	n/a
3451532	RECOG_TARGET	n/a	LTP209	ltpFR	14	3	-1	PAWN	1030	1	5	-1	n/a	n/a	n/a	n/a	n/a
3452931	RECOG_RESP	n/a	LTP209	ltpFR	14	3	-1	PAWN	1030	1	n/a	-1	n/a	n/a	n/a	n/a	n/a
3453854	RECOG_CONF	n/a	LTP209	ltpFR	14	3	-1	PAWN	1030	n/a	5	-1	n/a	n/a	n/a	n/a	n/a
3455364	RECOG_TARGET	n/a	LTP209	ltpFR	14	3	-1	LAWN	805	1	4	-1	n/a	n/a	n/a	n/a	n/a
3456311	RECOG_RESP	n/a	LTP209	ltpFR	14	3	-1	LAWN	805	1	n/a	-1	n/a	n/a	n/a	n/a	n/a
3457204	RECOG_CONF	n/a	LTP209	ltpFR	14	3	-1	LAWN	805	n/a	4	-1	n/a	n/a	n/a	n/a	n/a
3458910	RECOG_LURE	n/a	LTP209	ltpFR	14	3	n/a	SEED	1266	0	3	n/a	n/a	n/a	n/a	n/a	n/a
3459855	RECOG_RESP	n/a	LTP209	ltpFR	14	3	n/a	SEED	1266	0	n/a	n/a	n/a	n/a	n/a	n/a	n/a
3461445	RECOG_CONF	n/a	LTP209	ltpFR	14	3	n/a	SEED	1266	n/a	3	n/a	n/a	n/a	n/a	n/a	n/a
3463247	RECOG_LURE	n/a	LTP209	ltpFR	14	3	n/a	TART	1436	0	5	n/a	n/a	n/a	n/a	n/a	n/a
3464067	RECOG_RESP	n/a	LTP209	ltpFR	14	3	n/a	TART	1436	0	n/a	n/a	n/a	n/a	n/a	n/a	n/a
3465022	RECOG_CONF	n/a	LTP209	ltpFR	14	3	n/a	TART	1436	n/a	5	n/a	n/a	n/a	n/a	n/a	n/a
3466642	RECOG_LURE	n/a	LTP209	ltpFR	14	3	n/a	DOLL	481	0	5	n/a	n/a	n/a	n/a	n/a	n/a
3467377	RECOG_RESP	n/a	LTP209	ltpFR	14	3	n/a	DOLL	481	0	n/a	n/a	n/a	n/a	n/a	n/a	n/a
3468266	RECOG_CONF	n/a	LTP209	ltpFR	14	3	n/a	DOLL	481	n/a	5	n/a	n/a	n/a	n/a	n/a	n/a
3469818	RECOG_TARGET	n/a	LTP209	ltpFR	14	3	0	LAUNDRY	803	1	5	1	n/a	n/a	n/a	n/a	n/a
3470522	RECOG_RESP	n/a	LTP209	ltpFR	14	3	0	LAUNDRY	803	1	n/a	1	n/a	n/a	n/a	n/a	n/a
3471426	RECOG_CONF	n/a	LTP209	ltpFR	14	3	0	LAUNDRY	803	n/a	5	1	n/a	n/a	n/a	n/a	n/a
3473114	RECOG_TARGET	n/a	LTP209	ltpFR	14	3	1	SAND	1230	1	5	0	n/a	n/a	n/a	n/a	n/a
3473700	RECOG_RESP	n/a	LTP209	ltpFR	14	3	1	SAND	1230	1	n/a	0	n/a	n/a	n/a	n/a	n/a
3474505	RECOG_CONF	n/a	LTP209	ltpFR	14	3	1	SAND	1230	n/a	5	0	n/a	n/a	n/a	n/a	n/a
3476045	RECOG_LURE	n/a	LTP209	ltpFR	14	3	n/a	LODGE	839	0	2	n/a	n/a	n/a	n/a	n/a	n/a
3477140	RECOG_RESP	n/a	LTP209	ltpFR	14	3	n/a	LODGE	839	0	n/a	n/a	n/a	n/a	n/a	n/a	n/a
3478124	RECOG_CONF	n/a	LTP209	ltpFR	14	3	n/a	LODGE	839	n/a	2	n/a	n/a	n/a	n/a	n/a	n/a
3479859	RECOG_LURE	n/a	LTP209	ltpFR	14	3	n/a	MAP	865	0	3	n/a	n/a	n/a	n/a	n/a	n/a
3480912	RECOG_RESP	n/a	LTP209	ltpFR	14	3	n/a	MAP	865	0	n/a	n/a	n/a	n/a	n/a	n/a	n/a
3482560	RECOG_CONF	n/a	LTP209	ltpFR	14	3	n/a	MAP	865	n/a	3	n/a	n/a	n/a	n/a	n/a	n/a
3484343	RECOG_TARGET	n/a	LTP209	ltpFR	14	3	1	CUBE	420	1	5	0	n/a	n/a	n/a	n/a	n/a
3484996	RECOG_RESP	n/a	LTP209	ltpFR	14	3	1	CUBE	420	1	n/a	0	n/a	n/a	n/a	n/a	n/a
3485915	RECOG_CONF	n/a	LTP209	ltpFR	14	3	1	CUBE	420	n/a	5	0	n/a	n/a	n/a	n/a	n/a
3487504	RECOG_TARGET	n/a	LTP209	ltpFR	14	3	-1	SAUSAGE	1238	1	5	-1	n/a	n/a	n/a	n/a	n/a
3488150	RECOG_RESP	n/a	LTP209	ltpFR	14	3	-1	SAUSAGE	1238	1	n/a	-1	n/a	n/a	n/a	n/a	n/a
3489044	RECOG_CONF	n/a	LTP209	ltpFR	14	3	-1	SAUSAGE	1238	n/a	5	-1	n/a	n/a	n/a	n/a	n/a
3490532	RECOG_LURE	n/a	LTP209	ltpFR	14	3	n/a	BANQUET	86	0	1	n/a	n/a	n/a	n/a	n/a	n/a
3492906	RECOG_RESP	n/a	LTP209	ltpFR	14	3	n/a	BANQUET	86	0	n/a	n/a	n/a	n/a	n/a	n/a	n/a
3494097	RECOG_CONF	n/a	LTP209	ltpFR	14	3	n/a	BANQUET	86	n/a	1	n/a	n/a	n/a	n/a	n/a	n/a
3495970	RECOG_TARGET	n/a	LTP209	ltpFR	14	3	0	EAGLE	512	1	5	1	n/a	n/a	n/a	n/a	n/a
3497167	RECOG_RESP	n/a	LTP209	ltpFR	14	3	0	EAGLE	512	1	n/a	1	n/a	n/a	n/a	n/a	n/a
3498282	RECOG_CONF	n/a	LTP209	ltpFR	14	3	0	EAGLE	512	n/a	5	1	n/a	n/a	n/a	n/a	n/a
3499914	RECOG_TARGET	n/a	LTP209	ltpFR	14	3	0	CEILING	265	0	4	1	n/a	n/a	n/a	n/a	n/a
3500964	RECOG_RESP	n/a	LTP209	ltpFR	14	3	0	CEILING	265	0	n/a	1	n/a	n/a	n/a	n/a	n/a
3502047	RECOG_CONF	n/a	LTP209	ltpFR	14	3	0	CEILING	265	n/a	4	1	n/a	n/a	n/a	n/a	n/a
3503682	RECOG_TARGET	n/a	LTP209	ltpFR	14	3	1	FIN	566	1	5	0	n/a	n/a	n/a	n/a	n/a
3505392	RECOG_RESP	n/a	LTP209	ltpFR	14	3	1	FIN	566	1	n/a	0	n/a	n/a	n/a	n/a	n/a
3506400	RECOG_CONF	n/a	LTP209	ltpFR	14	3	1	FIN	566	n/a	5	0	n/a	n/a	n/a	n/a	n/a
3508133	RECOG_TARGET	n/a	LTP209	ltpFR	14	3	0	HOUSE	725	1	5	1	n/a	n/a	n/a	n/a	n/a
3508845	RECOG_RESP	n/a	LTP209	ltpFR	14	3	0	HOUSE	725	1	n/a	1	n/a	n/a	n/a	n/a	n/a
3509707	RECOG_CONF	n/a	LTP209	ltpFR	14	3	0	HOUSE	725	n/a	5	1	n/a	n/a	n/a	n/a	n/a
3513743	REC_START	n/a	LTP209	ltpFR	14	4	n/a	n/a	n/a	n/a	n/a	n/a	n/a	n/a	n/a	n/a	n/a
3513787	RECOG_TARGET	n/a	LTP209	ltpFR	14	4	1	ACORN	3	1	5	1	n/a	n/a	n/a	n/a	n/a
3514413	RECOG_RESP	n/a	LTP209	ltpFR	14	4	1	ACORN	3	1	n/a	1	n/a	n/a	n/a	n/a	n/a
3515410	RECOG_CONF	n/a	LTP209	ltpFR	14	4	1	ACORN	3	n/a	5	1	n/a	n/a	n/a	n/a	n/a
3516815	RECOG_TARGET	n/a	LTP209	ltpFR	14	4	0	CUE	422	1	5	0	n/a	n/a	n/a	n/a	n/a
3517510	RECOG_RESP	n/a	LTP209	ltpFR	14	4	0	CUE	422	1	n/a	0	n/a	n/a	n/a	n/a	n/a
3518404	RECOG_CONF	n/a	LTP209	ltpFR	14	4	0	CUE	422	n/a	5	0	n/a	n/a	n/a	n/a	n/a
3519793	RECOG_LURE	n/a	LTP209	ltpFR	14	4	n/a	MONSTER	912	0	2	n/a	n/a	n/a	n/a	n/a	n/a
3520770	RECOG_RESP	n/a	LTP209	ltpFR	14	4	n/a	MONSTER	912	0	n/a	n/a	n/a	n/a	n/a	n/a	n/a
3521676	RECOG_CONF	n/a	LTP209	ltpFR	14	4	n/a	MONSTER	912	n/a	2	n/a	n/a	n/a	n/a	n/a	n/a
3523324	RECOG_LURE	n/a	LTP209	ltpFR	14	4	n/a	VET	1560	0	5	n/a	n/a	n/a	n/a	n/a	n/a
3523947	RECOG_RESP	n/a	LTP209	ltpFR	14	4	n/a	VET	1560	0	n/a	n/a	n/a	n/a	n/a	n/a	n/a
3524792	RECOG_CONF	n/a	LTP209	ltpFR	14	4	n/a	VET	1560	n/a	5	n/a	n/a	n/a	n/a	n/a	n/a
3526265	RECOG_TARGET	n/a	LTP209	ltpFR	14	4	1	CONCRETE	361	1	5	0	n/a	n/a	n/a	n/a	n/a
3526982	RECOG_RESP	n/a	LTP209	ltpFR	14	4	1	CONCRETE	361	1	n/a	0	n/a	n/a	n/a	n/a	n/a
3527916	RECOG_CONF	n/a	LTP209	ltpFR	14	4	1	CONCRETE	361	n/a	5	0	n/a	n/a	n/a	n/a	n/a
3529296	RECOG_TARGET	n/a	LTP209	ltpFR	14	4	0	PRESIDENT	1121	0	5	1	n/a	n/a	n/a	n/a	n/a
3530089	RECOG_RESP	n/a	LTP209	ltpFR	14	4	0	PRESIDENT	1121	0	n/a	1	n/a	n/a	n/a	n/a	n/a
3530989	RECOG_CONF	n/a	LTP209	ltpFR	14	4	0	PRESIDENT	1121	n/a	5	1	n/a	n/a	n/a	n/a	n/a
3532608	RECOG_TARGET	n/a	LTP209	ltpFR	14	4	0	STREAM	1392	1	5	1	n/a	n/a	n/a	n/a	n/a
3534139	RECOG_RESP	n/a	LTP209	ltpFR	14	4	0	STREAM	1392	1	n/a	1	n/a	n/a	n/a	n/a	n/a
3535189	RECOG_CONF	n/a	LTP209	ltpFR	14	4	0	STREAM	1392	n/a	5	1	n/a	n/a	n/a	n/a	n/a
3536823	RECOG_TARGET	n/a	LTP209	ltpFR	14	4	-1	OUTLAW	989	1	5	-1	n/a	n/a	n/a	n/a	n/a
3537443	RECOG_RESP	n/a	LTP209	ltpFR	14	4	-1	OUTLAW	989	1	n/a	-1	n/a	n/a	n/a	n/a	n/a
3538362	RECOG_CONF	n/a	LTP209	ltpFR	14	4	-1	OUTLAW	989	n/a	5	-1	n/a	n/a	n/a	n/a	n/a
3539718	RECOG_LURE	n/a	LTP209	ltpFR	14	4	n/a	SKUNK	1321	0	5	n/a	n/a	n/a	n/a	n/a	n/a
3540437	RECOG_RESP	n/a	LTP209	ltpFR	14	4	n/a	SKUNK	1321	0	n/a	n/a	n/a	n/a	n/a	n/a	n/a
3541359	RECOG_CONF	n/a	LTP209	ltpFR	14	4	n/a	SKUNK	1321	n/a	5	n/a	n/a	n/a	n/a	n/a	n/a
3542981	RECOG_TARGET	n/a	LTP209	ltpFR	14	4	0	TABLE	1426	1	5	1	n/a	n/a	n/a	n/a	n/a
3543779	RECOG_RESP	n/a	LTP209	ltpFR	14	4	0	TABLE	1426	1	n/a	1	n/a	n/a	n/a	n/a	n/a
3544603	RECOG_CONF	n/a	LTP209	ltpFR	14	4	0	TABLE	1426	n/a	5	1	n/a	n/a	n/a	n/a	n/a
3546160	RECOG_TARGET	n/a	LTP209	ltpFR	14	4	1	SYRUP	1425	1	5	0	n/a	n/a	n/a	n/a	n/a
3547013	RECOG_RESP	n/a	LTP209	ltpFR	14	4	1	SYRUP	1425	1	n/a	0	n/a	n/a	n/a	n/a	n/a
3547890	RECOG_CONF	n/a	LTP209	ltpFR	14	4	1	SYRUP	1425	n/a	5	0	n/a	n/a	n/a	n/a	n/a
3549355	RECOG_TARGET	n/a	LTP209	ltpFR	14	4	0	MECHANIC	884	1	3	1	n/a	n/a	n/a	n/a	n/a
3550074	RECOG_RESP	n/a	LTP209	ltpFR	14	4	0	MECHANIC	884	1	n/a	1	n/a	n/a	n/a	n/a	n/a
3551321	RECOG_CONF	n/a	LTP209	ltpFR	14	4	0	MECHANIC	884	n/a	3	1	n/a	n/a	n/a	n/a	n/a
3552968	RECOG_TARGET	n/a	LTP209	ltpFR	14	4	1	BENCH	121	1	5	0	n/a	n/a	n/a	n/a	n/a
3553708	RECOG_RESP	n/a	LTP209	ltpFR	14	4	1	BENCH	121	1	n/a	0	n/a	n/a	n/a	n/a	n/a
3554635	RECOG_CONF	n/a	LTP209	ltpFR	14	4	1	BENCH	121	n/a	5	0	n/a	n/a	n/a	n/a	n/a
3556197	RECOG_LURE	n/a	LTP209	ltpFR	14	4	n/a	GOVERNOR	651	1	1	n/a	n/a	n/a	n/a	n/a	n/a
3557387	RECOG_RESP	n/a	LTP209	ltpFR	14	4	n/a	GOVERNOR	651	1	n/a	n/a	n/a	n/a	n/a	n/a	n/a
3558473	RECOG_CONF	n/a	LTP209	ltpFR	14	4	n/a	GOVERNOR	651	n/a	1	n/a	n/a	n/a	n/a	n/a	n/a
3560280	RECOG_TARGET	n/a	LTP209	ltpFR	14	4	1	TEACHER	1440	1	5	1	n/a	n/a	n/a	n/a	n/a
3560972	RECOG_RESP	n/a	LTP209	ltpFR	14	4	1	TEACHER	1440	1	n/a	1	n/a	n/a	n/a	n/a	n/a
3561928	RECOG_CONF	n/a	LTP209	ltpFR	14	4	1	TEACHER	1440	n/a	5	1	n/a	n/a	n/a	n/a	n/a
3563440	RECOG_LURE	n/a	LTP209	ltpFR	14	4	n/a	VICTIM	1562	0	2	n/a	n/a	n/a	n/a	n/a	n/a
3565007	RECOG_RESP	n/a	LTP209	ltpFR	14	4	n/a	VICTIM	1562	0	n/a	n/a	n/a	n/a	n/a	n/a	n/a
3566122	RECOG_CONF	n/a	LTP209	ltpFR	14	4	n/a	VICTIM	1562	n/a	2	n/a	n/a	n/a	n/a	n/a	n/a
3567857	RECOG_TARGET	n/a	LTP209	ltpFR	14	4	-1	RUNNER	1218	1	5	-1	n/a	n/a	n/a	n/a	n/a
3568559	RECOG_RESP	n/a	LTP209	ltpFR	14	4	-1	RUNNER	1218	1	n/a	-1	n/a	n/a	n/a	n/a	n/a
3569461	RECOG_CONF	n/a	LTP209	ltpFR	14	4	-1	RUNNER	1218	n/a	5	-1	n/a	n/a	n/a	n/a	n/a
3571167	RECOG_TARGET	n/a	LTP209	ltpFR	14	4	0	CRYSTAL	418	1	5	0	n/a	n/a	n/a	n/a	n/a
3572654	RECOG_RESP	n/a	LTP209	ltpFR	14	4	0	CRYSTAL	418	1	n/a	0	n/a	n/a	n/a	n/a	n/a
3573540	RECOG_CONF	n/a	LTP209	ltpFR	14	4	0	CRYSTAL	418	n/a	5	0	n/a	n/a	n/a	n/a	n/a
3575152	RECOG_LURE	n/a	LTP209	ltpFR	14	4	n/a	HANDKERCHIEF	686	0	5	n/a	n/a	n/a	n/a	n/a	n/a
3575973	RECOG_RESP	n/a	LTP209	ltpFR	14	4	n/a	HANDKERCHIEF	686	0	n/a	n/a	n/a	n/a	n/a	n/a	n/a
3576904	RECOG_CONF	n/a	LTP209	ltpFR	14	4	n/a	HANDKERCHIEF	686	n/a	5	n/a	n/a	n/a	n/a	n/a	n/a
3578430	RECOG_LURE	n/a	LTP209	ltpFR	14	4	n/a	EMPLOYEE	531	1	1	n/a	n/a	n/a	n/a	n/a	n/a
3579050	RECOG_RESP	n/a	LTP209	ltpFR	14	4	n/a	EMPLOYEE	531	1	n/a	n/a	n/a	n/a	n/a	n/a	n/a
3579927	RECOG_CONF	n/a	LTP209	ltpFR	14	4	n/a	EMPLOYEE	531	n/a	1	n/a	n/a	n/a	n/a	n/a	n/a
3593187	REC_START	n/a	LTP209	ltpFR	14	5	n/a	n/a	n/a	n/a	n/a	n/a	n/a	n/a	n/a	n/a	n/a
3593237	RECOG_TARGET	n/a	LTP209	ltpFR	14	5	0	KIWI	781	1	5	0	n/a	n/a	n/a	n/a	n/a
3593851	RECOG_RESP	n/a	LTP209	ltpFR	14	5	0	KIWI	781	1	n/a	0	n/a	n/a	n/a	n/a	n/a
3594699	RECOG_CONF	n/a	LTP209	ltpFR	14	5	0	KIWI	781	n/a	5	0	n/a	n/a	n/a	n/a	n/a
3596248	RECOG_TARGET	n/a	LTP209	ltpFR	14	5	1	TRIBE	1505	0	1	1	n/a	n/a	n/a	n/a	n/a
3597156	RECOG_RESP	n/a	LTP209	ltpFR	14	5	1	TRIBE	1505	0	n/a	1	n/a	n/a	n/a	n/a	n/a
3598411	RECOG_CONF	n/a	LTP209	ltpFR	14	5	1	TRIBE	1505	n/a	1	1	n/a	n/a	n/a	n/a	n/a
3600096	RECOG_TARGET	n/a	LTP209	ltpFR	14	5	1	APRON	35	1	5	0	n/a	n/a	n/a	n/a	n/a
3600749	RECOG_RESP	n/a	LTP209	ltpFR	14	5	1	APRON	35	1	n/a	0	n/a	n/a	n/a	n/a	n/a
3601499	RECOG_CONF	n/a	LTP209	ltpFR	14	5	1	APRON	35	n/a	5	0	n/a	n/a	n/a	n/a	n/a
3603074	RECOG_TARGET	n/a	LTP209	ltpFR	14	5	0	LOUNGE	845	1	5	1	n/a	n/a	n/a	n/a	n/a
3603700	RECOG_RESP	n/a	LTP209	ltpFR	14	5	0	LOUNGE	845	1	n/a	1	n/a	n/a	n/a	n/a	n/a
3604466	RECOG_CONF	n/a	LTP209	ltpFR	14	5	0	LOUNGE	845	n/a	5	1	n/a	n/a	n/a	n/a	n/a
3605951	RECOG_LURE	n/a	LTP209	ltpFR	14	5	n/a	SUBURB	1399	0	5	n/a	n/a	n/a	n/a	n/a	n/a
3606634	RECOG_RESP	n/a	LTP209	ltpFR	14	5	n/a	SUBURB	1399	0	n/a	n/a	n/a	n/a	n/a	n/a	n/a
3607358	RECOG_CONF	n/a	LTP209	ltpFR	14	5	n/a	SUBURB	1399	n/a	5	n/a	n/a	n/a	n/a	n/a	n/a
3608828	RECOG_LURE	n/a	LTP209	ltpFR	14	5	n/a	ENGINEER	536	0	3	n/a	n/a	n/a	n/a	n/a	n/a
3609868	RECOG_RESP	n/a	LTP209	ltpFR	14	5	n/a	ENGINEER	536	0	n/a	n/a	n/a	n/a	n/a	n/a	n/a
3610739	RECOG_CONF	n/a	LTP209	ltpFR	14	5	n/a	ENGINEER	536	n/a	3	n/a	n/a	n/a	n/a	n/a	n/a
3612409	RECOG_TARGET	n/a	LTP209	ltpFR	14	5	-1	FARMER	553	1	5	-1	n/a	n/a	n/a	n/a	n/a
3613015	RECOG_RESP	n/a	LTP209	ltpFR	14	5	-1	FARMER	553	1	n/a	-1	n/a	n/a	n/a	n/a	n/a
3613758	RECOG_CONF	n/a	LTP209	ltpFR	14	5	-1	FARMER	553	n/a	5	-1	n/a	n/a	n/a	n/a	n/a
3615220	RECOG_TARGET	n/a	LTP209	ltpFR	14	5	1	BRAKE	166	1	5	0	n/a	n/a	n/a	n/a	n/a
3615797	RECOG_RESP	n/a	LTP209	ltpFR	14	5	1	BRAKE	166	1	n/a	0	n/a	n/a	n/a	n/a	n/a
3616469	RECOG_CONF	n/a	LTP209	ltpFR	14	5	1	BRAKE	166	n/a	5	0	n/a	n/a	n/a	n/a	n/a
3617829	RECOG_TARGET	n/a	LTP209	ltpFR	14	5	0	PORTRAIT	1111	0	4	1	n/a	n/a	n/a	n/a	n/a
3618711	RECOG_RESP	n/a	LTP209	ltpFR	14	5	0	PORTRAIT	1111	0	n/a	1	n/a	n/a	n/a	n/a	n/a
3619502	RECOG_CONF	n/a	LTP209	ltpFR	14	5	0	PORTRAIT	1111	n/a	4	1	n/a	n/a	n/a	n/a	n/a
3621092	RECOG_LURE	n/a	LTP209	ltpFR	14	5	n/a	CHEMICAL	291	0	5	n/a	n/a	n/a	n/a	n/a	n/a
3621802	RECOG_RESP	n/a	LTP209	ltpFR	14	5	n/a	CHEMICAL	291	0	n/a	n/a	n/a	n/a	n/a	n/a	n/a
3622625	RECOG_CONF	n/a	LTP209	ltpFR	14	5	n/a	CHEMICAL	291	n/a	5	n/a	n/a	n/a	n/a	n/a	n/a
3624221	RECOG_LURE	n/a	LTP209	ltpFR	14	5	n/a	POET	1095	0	5	n/a	n/a	n/a	n/a	n/a	n/a
3624923	RECOG_RESP	n/a	LTP209	ltpFR	14	5	n/a	POET	1095	0	n/a	n/a	n/a	n/a	n/a	n/a	n/a
3625788	RECOG_CONF	n/a	LTP209	ltpFR	14	5	n/a	POET	1095	n/a	5	n/a	n/a	n/a	n/a	n/a	n/a
3627198	RECOG_LURE	n/a	LTP209	ltpFR	14	5	n/a	PARCEL	1012	0	5	n/a	n/a	n/a	n/a	n/a	n/a
3627852	RECOG_RESP	n/a	LTP209	ltpFR	14	5	n/a	PARCEL	1012	0	n/a	n/a	n/a	n/a	n/a	n/a	n/a
3628711	RECOG_CONF	n/a	LTP209	ltpFR	14	5	n/a	PARCEL	1012	n/a	5	n/a	n/a	n/a	n/a	n/a	n/a
3630143	RECOG_LURE	n/a	LTP209	ltpFR	14	5	n/a	AIRPLANE	12	1	1	n/a	n/a	n/a	n/a	n/a	n/a
3631175	RECOG_RESP	n/a	LTP209	ltpFR	14	5	n/a	AIRPLANE	12	1	n/a	n/a	n/a	n/a	n/a	n/a	n/a
3632125	RECOG_CONF	n/a	LTP209	ltpFR	14	5	n/a	AIRPLANE	12	n/a	1	n/a	n/a	n/a	n/a	n/a	n/a
3633806	RECOG_TARGET	n/a	LTP209	ltpFR	14	5	0	BERRY	122	0	1	1	n/a	n/a	n/a	n/a	n/a
3635260	RECOG_RESP	n/a	LTP209	ltpFR	14	5	0	BERRY	122	0	n/a	1	n/a	n/a	n/a	n/a	n/a
3636597	RECOG_CONF	n/a	LTP209	ltpFR	14	5	0	BERRY	122	n/a	1	1	n/a	n/a	n/a	n/a	n/a
3638374	RECOG_TARGET	n/a	LTP209	ltpFR	14	5	0	ASSOCIATE	49	1	5	1	n/a	n/a	n/a	n/a	n/a
3639110	RECOG_RESP	n/a	LTP209	ltpFR	14	5	0	ASSOCIATE	49	1	n/a	1	n/a	n/a	n/a	n/a	n/a
3639946	RECOG_CONF	n/a	LTP209	ltpFR	14	5	0	ASSOCIATE	49	n/a	5	1	n/a	n/a	n/a	n/a	n/a
3641382	RECOG_TARGET	n/a	LTP209	ltpFR	14	5	0	ASH	44	1	5	0	n/a	n/a	n/a	n/a	n/a
3641986	RECOG_RESP	n/a	LTP209	ltpFR	14	5	0	ASH	44	1	n/a	0	n/a	n/a	n/a	n/a	n/a
3642653	RECOG_CONF	n/a	LTP209	ltpFR	14	5	0	ASH	44	n/a	5	0	n/a	n/a	n/a	n/a	n/a
3644079	RECOG_LURE	n/a	LTP209	ltpFR	14	5	n/a	BLANKET	135	0	3	n/a	n/a	n/a	n/a	n/a	n/a
3644897	RECOG_RESP	n/a	LTP209	ltpFR	14	5	n/a	BLANKET	135	0	n/a	n/a	n/a	n/a	n/a	n/a	n/a
3645884	RECOG_CONF	n/a	LTP209	ltpFR	14	5	n/a	BLANKET	135	n/a	3	n/a	n/a	n/a	n/a	n/a	n/a
3647440	RECOG_TARGET	n/a	LTP209	ltpFR	14	5	-1	VENT	1556	1	5	-1	n/a	n/a	n/a	n/a	n/a
3648090	RECOG_RESP	n/a	LTP209	ltpFR	14	5	-1	VENT	1556	1	n/a	-1	n/a	n/a	n/a	n/a	n/a
3648955	RECOG_CONF	n/a	LTP209	ltpFR	14	5	-1	VENT	1556	n/a	5	-1	n/a	n/a	n/a	n/a	n/a
3650403	RECOG_LURE	n/a	LTP209	ltpFR	14	5	n/a	DIPLOMA	470	0	4	n/a	n/a	n/a	n/a	n/a	n/a
3651132	RECOG_RESP	n/a	LTP209	ltpFR	14	5	n/a	DIPLOMA	470	0	n/a	n/a	n/a	n/a	n/a	n/a	n/a
3652687	RECOG_CONF	n/a	LTP209	ltpFR	14	5	n/a	DIPLOMA	470	n/a	4	n/a	n/a	n/a	n/a	n/a	n/a
3654280	RECOG_TARGET	n/a	LTP209	ltpFR	14	5	-1	DOCUMENT	479	1	5	-1	n/a	n/a	n/a	n/a	n/a
3655145	RECOG_RESP	n/a	LTP209	ltpFR	14	5	-1	DOCUMENT	479	1	n/a	-1	n/a	n/a	n/a	n/a	n/a
3656072	RECOG_CONF	n/a	LTP209	ltpFR	14	5	-1	DOCUMENT	479	n/a	5	-1	n/a	n/a	n/a	n/a	n/a
3667012	REC_START	n/a	LTP209	ltpFR	14	6	n/a	n/a	n/a	n/a	n/a	n/a	n/a	n/a	n/a	n/a	n/a
3667065	RECOG_TARGET	n/a	LTP209	ltpFR	14	6	0	EMPLOYER	532	0	1	1	n/a	n/a	n/a	n/a	n/a
3668119	RECOG_RESP	n/a	LTP209	ltpFR	14	6	0	EMPLOYER	532	0	n/a	1	n/a	n/a	n/a	n/a	n/a
3669032	RECOG_CONF	n/a	LTP209	ltpFR	14	6	0	EMPLOYER	532	n/a	1	1	n/a	n/a	n/a	n/a	n/a
3670879	RECOG_LURE	n/a	LTP209	ltpFR	14	6	n/a	NEPTUNE	943	0	5	n/a	n/a	n/a	n/a	n/a	n/a
3671625	RECOG_RESP	n/a	LTP209	ltpFR	14	6	n/a	NEPTUNE	943	0	n/a	n/a	n/a	n/a	n/a	n/a	n/a
3672430	RECOG_CONF	n/a	LTP209	ltpFR	14	6	n/a	NEPTUNE	943	n/a	5	n/a	n/a	n/a	n/a	n/a	n/a
3674155	RECOG_TARGET	n/a	LTP209	ltpFR	14	6	0	CONTRACTOR	369	1	3	1	n/a	n/a	n/a	n/a	n/a
3675315	RECOG_RESP	n/a	LTP209	ltpFR	14	6	0	CONTRACTOR	369	1	n/a	1	n/a	n/a	n/a	n/a	n/a
3676190	RECOG_CONF	n/a	LTP209	ltpFR	14	6	0	CONTRACTOR	369	n/a	3	1	n/a	n/a	n/a	n/a	n/a
3677872	RECOG_TARGET	n/a	LTP209	ltpFR	14	6	1	STRAWBERRY	1391	1	5	1	n/a	n/a	n/a	n/a	n/a
3678495	RECOG_RESP	n/a	LTP209	ltpFR	14	6	1	STRAWBERRY	1391	1	n/a	1	n/a	n/a	n/a	n/a	n/a
3679229	RECOG_CONF	n/a	LTP209	ltpFR	14	6	1	STRAWBERRY	1391	n/a	5	1	n/a	n/a	n/a	n/a	n/a
3680666	RECOG_TARGET	n/a	LTP209	ltpFR	14	6	-1	PARTY	1018	1	5	-1	n/a	n/a	n/a	n/a	n/a
3681304	RECOG_RESP	n/a	LTP209	ltpFR	14	6	-1	PARTY	1018	1	n/a	-1	n/a	n/a	n/a	n/a	n/a
3681975	RECOG_CONF	n/a	LTP209	ltpFR	14	6	-1	PARTY	1018	n/a	5	-1	n/a	n/a	n/a	n/a	n/a
3683310	RECOG_TARGET	n/a	LTP209	ltpFR	14	6	0	ARENA	37	1	5	0	n/a	n/a	n/a	n/a	n/a
3683906	RECOG_RESP	n/a	LTP209	ltpFR	14	6	0	ARENA	37	1	n/a	0	n/a	n/a	n/a	n/a	n/a
3684613	RECOG_CONF	n/a	LTP209	ltpFR	14	6	0	ARENA	37	n/a	5	0	n/a	n/a	n/a	n/a	n/a
3686104	RECOG_TARGET	n/a	LTP209	ltpFR	14	6	1	PIT	1077	1	1	0	n/a	n/a	n/a	n/a	n/a
3687010	RECOG_RESP	n/a	LTP209	ltpFR	14	6	1	PIT	1077	1	n/a	0	n/a	n/a	n/a	n/a	n/a
3687850	RECOG_CONF	n/a	LTP209	ltpFR	14	6	1	PIT	1077	n/a	1	0	n/a	n/a	n/a	n/a	n/a
3689532	RECOG_TARGET	n/a	LTP209	ltpFR	14	6	1	SWING	1421	1	5	0	n/a	n/a	n/a	n/a	n/a
3690132	RECOG_RESP	n/a	LTP209	ltpFR	14	6	1	SWING	1421	1	n/a	0	n/a	n/a	n/a	n/a	n/a
3690967	RECOG_CONF	n/a	LTP209	ltpFR	14	6	1	SWING	1421	n/a	5	0	n/a	n/a	n/a	n/a	n/a
3692524	RECOG_LURE	n/a	LTP209	ltpFR	14	6	n/a	PARIS	1014	0	5	n/a	n/a	n/a	n/a	n/a	n/a
3693273	RECOG_RESP	n/a	LTP209	ltpFR	14	6	n/a	PARIS	1014	0	n/a	n/a	n/a	n/a	n/a	n/a	n/a
3694038	RECOG_CONF	n/a	LTP209	ltpFR	14	6	n/a	PARIS	1014	n/a	5	n/a	n/a	n/a	n/a	n/a	n/a
3695505	RECOG_LURE	n/a	LTP209	ltpFR	14	6	n/a	RAFT	1159	0	3	n/a	n/a	n/a	n/a	n/a	n/a
3696336	RECOG_RESP	n/a	LTP209	ltpFR	14	6	n/a	RAFT	1159	0	n/a	n/a	n/a	n/a	n/a	n/a	n/a
3697074	RECOG_CONF	n/a	LTP209	ltpFR	14	6	n/a	RAFT	1159	n/a	3	n/a	n/a	n/a	n/a	n/a	n/a
3698697	RECOG_TARGET	n/a	LTP209	ltpFR	14	6	0	ROBOT	1200	1	5	0	n/a	n/a	n/a	n/a	n/a
3699403	RECOG_RESP	n/a	LTP209	ltpFR	14	6	0	ROBOT	1200	1	n/a	0	n/a	n/a	n/a	n/a	n/a
3700201	RECOG_CONF	n/a	LTP209	ltpFR	14	6	0	ROBOT	1200	n/a	5	0	n/a	n/a	n/a	n/a	n/a
3701762	RECOG_TARGET	n/a	LTP209	ltpFR	14	6	1	SCARF	1246	1	5	0	n/a	n/a	n/a	n/a	n/a
3702347	RECOG_RESP	n/a	LTP209	ltpFR	14	6	1	SCARF	1246	1	n/a	0	n/a	n/a	n/a	n/a	n/a
3702985	RECOG_CONF	n/a	LTP209	ltpFR	14	6	1	SCARF	1246	n/a	5	0	n/a	n/a	n/a	n/a	n/a
3704373	RECOG_TARGET	n/a	LTP209	ltpFR	14	6	0	CARPET	247	1	5	1	n/a	n/a	n/a	n/a	n/a
3705046	RECOG_RESP	n/a	LTP209	ltpFR	14	6	0	CARPET	247	1	n/a	1	n/a	n/a	n/a	n/a	n/a
3705839	RECOG_CONF	n/a	LTP209	ltpFR	14	6	0	CARPET	247	n/a	5	1	n/a	n/a	n/a	n/a	n/a
3707267	RECOG_LURE	n/a	LTP209	ltpFR	14	6	n/a	BANDIT	81	1	2	n/a	n/a	n/a	n/a	n/a	n/a
3708554	RECOG_RESP	n/a	LTP209	ltpFR	14	6	n/a	BANDIT	81	1	n/a	n/a	n/a	n/a	n/a	n/a	n/a
3709448	RECOG_CONF	n/a	LTP209	ltpFR	14	6	n/a	BANDIT	81	n/a	2	n/a	n/a	n/a	n/a	n/a	n/a
3711064	RECOG_TARGET	n/a	LTP209	ltpFR	14	6	0	AIRCRAFT	11	1	3	1	n/a	n/a	n/a	n/a	n/a
3711934	RECOG_RESP	n/a	LTP209	ltpFR	14	6	0	AIRCRAFT	11	1	n/a	1	n/a	n/a	n/a	n/a	n/a
3712992	RECOG_CONF	n/a	LTP209	ltpFR	14	6	0	AIRCRAFT	11	n/a	3	1	n/a	n/a	n/a	n/a	n/a
3714490	RECOG_TARGET	n/a	LTP209	ltpFR	14	6	1	TOY	1492	1	5	0	n/a	n/a	n/a	n/a	n/a
3715134	RECOG_RESP	n/a	LTP209	ltpFR	14	6	1	TOY	1492	1	n/a	0	n/a	n/a	n/a	n/a	n/a
3715857	RECOG_CONF	n/a	LTP209	ltpFR	14	6	1	TOY	1492	n/a	5	0	n/a	n/a	n/a	n/a	n/a
3717288	RECOG_TARGET	n/a	LTP209	ltpFR	14	6	0	SKETCH	1315	1	4	1	n/a	n/a	n/a	n/a	n/a
3717860	RECOG_RESP	n/a	LTP209	ltpFR	14	6	0	SKETCH	1315	1	n/a	1	n/a	n/a	n/a	n/a	n/a
3718652	RECOG_CONF	n/a	LTP209	ltpFR	14	6	0	SKETCH	1315	n/a	4	1	n/a	n/a	n/a	n/a	n/a
3720249	RECOG_TARGET	n/a	LTP209	ltpFR	14	6	1	DIRECTOR	471	1	3	1	n/a	n/a	n/a	n/a	n/a
3721071	RECOG_RESP	n/a	LTP209	ltpFR	14	6	1	DIRECTOR	471	1	n/a	1	n/a	n/a	n/a	n/a	n/a
3722046	RECOG_CONF	n/a	LTP209	ltpFR	14	6	1	DIRECTOR	471	n/a	3	1	n/a	n/a	n/a	n/a	n/a
3723527	RECOG_LURE	n/a	LTP209	ltpFR	14	6	n/a	DISC	473	0	4	n/a	n/a	n/a	n/a	n/a	n/a
3724228	RECOG_RESP	n/a	LTP209	ltpFR	14	6	n/a	DISC	473	0	n/a	n/a	n/a	n/a	n/a	n/a	n/a
3725097	RECOG_CONF	n/a	LTP209	ltpFR	14	6	n/a	DISC	473	n/a	4	n/a	n/a	n/a	n/a	n/a	n/a
3726555	RECOG_LURE	n/a	LTP209	ltpFR	14	6	n/a	STAPLE	1371	0	5	n/a	n/a	n/a	n/a	n/a	n/a
3727316	RECOG_RESP	n/a	LTP209	ltpFR	14	6	n/a	STAPLE	1371	0	n/a	n/a	n/a	n/a	n/a	n/a	n/a
3728269	RECOG_CONF	n/a	LTP209	ltpFR	14	6	n/a	STAPLE	1371	n/a	5	n/a	n/a	n/a	n/a	n/a	n/a
3734715	REC_START	n/a	LTP209	ltpFR	14	7	n/a	n/a	n/a	n/a	n/a	n/a	n/a	n/a	n/a	n/a	n/a
3734769	RECOG_TARGET	n/a	LTP209	ltpFR	14	7	1	STABLE	1363	1	3	0	n/a	n/a	n/a	n/a	n/a
3735870	RECOG_RESP	n/a	LTP209	ltpFR	14	7	1	STABLE	1363	1	n/a	0	n/a	n/a	n/a	n/a	n/a
3736771	RECOG_CONF	n/a	LTP209	ltpFR	14	7	1	STABLE	1363	n/a	3	0	n/a	n/a	n/a	n/a	n/a
3738297	RECOG_TARGET	n/a	LTP209	ltpFR	14	7	0	BALL	73	1	5	0	n/a	n/a	n/a	n/a	n/a
3738882	RECOG_RESP	n/a	LTP209	ltpFR	14	7	0	BALL	73	1	n/a	0	n/a	n/a	n/a	n/a	n/a
3739580	RECOG_CONF	n/a	LTP209	ltpFR	14	7	0	BALL	73	n/a	5	0	n/a	n/a	n/a	n/a	n/a
3741195	RECOG_TARGET	n/a	LTP209	ltpFR	14	7	1	KITCHEN	778	1	5	0	n/a	n/a	n/a	n/a	n/a
3741836	RECOG_RESP	n/a	LTP209	ltpFR	14	7	1	KITCHEN	778	1	n/a	0	n/a	n/a	n/a	n/a	n/a
3742512	RECOG_CONF	n/a	LTP209	ltpFR	14	7	1	KITCHEN	778	n/a	5	0	n/a	n/a	n/a	n/a	n/a
3743951	RECOG_TARGET	n/a	LTP209	ltpFR	14	7	-1	PLANET	1082	1	5	-1	n/a	n/a	n/a	n/a	n/a
3744817	RECOG_RESP	n/a	LTP209	ltpFR	14	7	-1	PLANET	1082	1	n/a	-1	n/a	n/a	n/a	n/a	n/a
3745443	RECOG_CONF	n/a	LTP209	ltpFR	14	7	-1	PLANET	1082	n/a	5	-1	n/a	n/a	n/a	n/a	n/a
3746983	RECOG_LURE	n/a	LTP209	ltpFR	14	7	n/a	ENGINE	535	0	3	n/a	n/a	n/a	n/a	n/a	n/a
3747821	RECOG_RESP	n/a	LTP209	ltpFR	14	7	n/a	ENGINE	535	0	n/a	n/a	n/a	n/a	n/a	n/a	n/a
3748566	RECOG_CONF	n/a	LTP209	ltpFR	14	7	n/a	ENGINE	535	n/a	3	n/a	n/a	n/a	n/a	n/a	n/a
3750145	RECOG_LURE	n/a	LTP209	ltpFR	14	7	n/a	EXPLOSION	544	0	5	n/a	n/a	n/a	n/a	n/a	n/a
3750792	RECOG_RESP	n/a	LTP209	ltpFR	14	7	n/a	EXPLOSION	544	0	n/a	n/a	n/a	n/a	n/a	n/a	n/a
3751493	RECOG_CONF	n/a	LTP209	ltpFR	14	7	n/a	EXPLOSION	544	n/a	5	n/a	n/a	n/a	n/a	n/a	n/a
3753056	RECOG_TARGET	n/a	LTP209	ltpFR	14	7	1	CUCUMBER	421	1	5	1	n/a	n/a	n/a	n/a	n/a
3753850	RECOG_RESP	n/a	LTP209	ltpFR	14	7	1	CUCUMBER	421	1	n/a	1	n/a	n/a	n/a	n/a	n/a
3754507	RECOG_CONF	n/a	LTP209	ltpFR	14	7	1	CUCUMBER	421	n/a	5	1	n/a	n/a	n/a	n/a	n/a
3756031	RECOG_TARGET	n/a	LTP209	ltpFR	14	7	0	APPLE	33	1	4	1	n/a	n/a	n/a	n/a	n/a
3756792	RECOG_RESP	n/a	LTP209	ltpFR	14	7	0	APPLE	33	1	n/a	1	n/a	n/a	n/a	n/a	n/a
3757484	RECOG_CONF	n/a	LTP209	ltpFR	14	7	0	APPLE	33	n/a	4	1	n/a	n/a	n/a	n/a	n/a
3759129	RECOG_TARGET	n/a	LTP209	ltpFR	14	7	0	COMMITTEE	355	1	5	1	n/a	n/a	n/a	n/a	n/a
3759758	RECOG_RESP	n/a	LTP209	ltpFR	14	7	0	COMMITTEE	355	1	n/a	1	n/a	n/a	n/a	n/a	n/a
3760443	RECOG_CONF	n/a	LTP209	ltpFR	14	7	0	COMMITTEE	355	n/a	5	1	n/a	n/a	n/a	n/a	n/a
3761872	RECOG_LURE	n/a	LTP209	ltpFR	14	7	n/a	GAZELLE	628	0	5	n/a	n/a	n/a	n/a	n/a	n/a
3762700	RECOG_RESP	n/a	LTP209	ltpFR	14	7	n/a	GAZELLE	628	0	n/a	n/a	n/a	n/a	n/a	n/a	n/a
3763408	RECOG_CONF	n/a	LTP209	ltpFR	14	7	n/a	GAZELLE	628	n/a	5	n/a	n/a	n/a	n/a	n/a	n/a
3764833	RECOG_LURE	n/a	LTP209	ltpFR	14	7	n/a	AWARD	63	1	1	n/a	n/a	n/a	n/a	n/a	n/a
3765637	RECOG_RESP	n/a	LTP209	ltpFR	14	7	n/a	AWARD	63	1	n/a	n/a	n/a	n/a	n/a	n/a	n/a
3766459	RECOG_CONF	n/a	LTP209	ltpFR	14	7	n/a	AWARD	63	n/a	1	n/a	n/a	n/a	n/a	n/a	n/a
3768294	RECOG_LURE	n/a	LTP209	ltpFR	14	7	n/a	BANNER	85	0	1	n/a	n/a	n/a	n/a	n/a	n/a
3769077	RECOG_RESP_VV	n/a	LTP209	ltpFR	14	7	n/a	BANNER	85	1	n/a	n/a	n/a	n/a	n/a	n/a	n/a
3770949	RECOG_RESP	n/a	LTP209	ltpFR	14	7	n/a	BANNER	85	0	n/a	n/a	n/a	n/a	n/a	n/a	n/a
3771995	RECOG_CONF	n/a	LTP209	ltpFR	14	7	n/a	BANNER	85	n/a	1	n/a	n/a	n/a	n/a	n/a	n/a
3773880	RECOG_LURE	n/a	LTP209	ltpFR	14	7	n/a	LOCK	838	0	3	n/a	n/a	n/a	n/a	n/a	n/a
3774686	RECOG_RESP	n/a	LTP209	ltpFR	14	7	n/a	LOCK	838	0	n/a	n/a	n/a	n/a	n/a	n/a	n/a
3775486	RECOG_CONF	n/a	LTP209	ltpFR	14	7	n/a	LOCK	838	n/a	3	n/a	n/a	n/a	n/a	n/a	n/a
3777113	RECOG_LURE	n/a	LTP209	ltpFR	14	7	n/a	TUBA	1515	0	5	n/a	n/a	n/a	n/a	n/a	n/a
3777872	RECOG_RESP	n/a	LTP209	ltpFR	14	7	n/a	TUBA	1515	0	n/a	n/a	n/a	n/a	n/a	n/a	n/a
3778600	RECOG_CONF	n/a	LTP209	ltpFR	14	7	n/a	TUBA	1515	n/a	5	n/a	n/a	n/a	n/a	n/a	n/a
3780038	RECOG_TARGET	n/a	LTP209	ltpFR	14	7	-1	STONE	1385	1	5	-1	n/a	n/a	n/a	n/a	n/a
3780745	RECOG_RESP	n/a	LTP209	ltpFR	14	7	-1	STONE	1385	1	n/a	-1	n/a	n/a	n/a	n/a	n/a
3781385	RECOG_CONF	n/a	LTP209	ltpFR	14	7	-1	STONE	1385	n/a	5	-1	n/a	n/a	n/a	n/a	n/a
3783019	RECOG_LURE	n/a	LTP209	ltpFR	14	7	n/a	RANCH	1166	0	5	n/a	n/a	n/a	n/a	n/a	n/a
3784231	RECOG_RESP	n/a	LTP209	ltpFR	14	7	n/a	RANCH	1166	0	n/a	n/a	n/a	n/a	n/a	n/a	n/a
3784948	RECOG_CONF	n/a	LTP209	ltpFR	14	7	n/a	RANCH	1166	n/a	5	n/a	n/a	n/a	n/a	n/a	n/a
3786531	RECOG_TARGET	n/a	LTP209	ltpFR	14	7	1	CAMEL	223	1	5	1	n/a	n/a	n/a	n/a	n/a
3787147	RECOG_RESP	n/a	LTP209	ltpFR	14	7	1	CAMEL	223	1	n/a	1	n/a	n/a	n/a	n/a	n/a
3787834	RECOG_CONF	n/a	LTP209	ltpFR	14	7	1	CAMEL	223	n/a	5	1	n/a	n/a	n/a	n/a	n/a
