mstime	trial_type	stim_file	subject	experiment	session	trial	task	item_name	item_num	recog_resp	recog_conf	resp	answer	test_x	test_y	test_z	color_r	color_g	color_b	case	font
0	SESS_START	n/a	LTP268	ltpFR	13	n/a	n/a	n/a	n/a	1	4	n/a	n/a	0	0	0	n/a	n/a	n/a	n/a	n/a
40802	START	n/a	LTP268	ltpFR	13	n/a	n/a	n/a	n/a	n/a	n/a	n/a	n/a	n/a	n/a	n/a	n/a	n/a	n/a	n/a	n/a
40852	PROB	n/a	LTP268	ltpFR	13	n/a	n/a	n/a	n/a	n/a	n/a	n/a	18	7	3	8	n/a	n/a	n/a	n/a	n/a
42994	PROB	n/a	LTP268	ltpFR	13	n/a	n/a	n/a	n/a	n/a	n/a	n/a	20	6	7	7	n/a	n/a	n/a	n/a	n/a
46273	PROB	n/a	LTP268	ltpFR	13	n/a	n/a	n/a	n/a	n/a	n/a	n/a	13	4	4	5	n/a	n/a	n/a	n/a	n/a
48047	PROB	n/a	LTP268	ltpFR	13	n/a	n/a	n/a	n/a	n/a	n/a	n/a	19	6	4	9	n/a	n/a	n/a	n/a	n/a
49635	PROB	n/a	LTP268	ltpFR	13	n/a	n/a	n/a	n/a	n/a	n/a	n/a	15	9	4	2	n/a	n/a	n/a	n/a	n/a
54906	PROB	n/a	LTP268	ltpFR	13	n/a	n/a	n/a	n/a	n/a	n/a	n/a	10	1	8	1	n/a	n/a	n/a	n/a	n/a
56595	PROB	n/a	LTP268	ltpFR	13	n/a	n/a	n/a	n/a	n/a	n/a	n/a	19	8	6	5	n/a	n/a	n/a	n/a	n/a
58533	PROB	n/a	LTP268	ltpFR	13	n/a	n/a	n/a	n/a	n/a	n/a	n/a	8	1	3	4	n/a	n/a	n/a	n/a	n/a
60609	STOP	n/a	LTP268	ltpFR	13	n/a	n/a	n/a	n/a	n/a	n/a	n/a	n/a	n/a	n/a	n/a	n/a	n/a	n/a	n/a	n/a
106852	START	n/a	LTP268	ltpFR	13	n/a	n/a	n/a	n/a	n/a	n/a	n/a	n/a	n/a	n/a	n/a	n/a	n/a	n/a	n/a	n/a
108357	PROB	n/a	LTP268	ltpFR	13	n/a	n/a	n/a	n/a	n/a	n/a	n/a	8	2	5	1	n/a	n/a	n/a	n/a	n/a
111051	PROB	n/a	LTP268	ltpFR	13	n/a	n/a	n/a	n/a	n/a	n/a	n/a	8	4	2	2	n/a	n/a	n/a	n/a	n/a
114852	STOP	n/a	LTP268	ltpFR	13	n/a	n/a	n/a	n/a	n/a	n/a	n/a	n/a	n/a	n/a	n/a	n/a	n/a	n/a	n/a	n/a
115701	WORD	wordpools/wasnorm_wordpool_less_exclusions.txt	LTP268	ltpFR	13	1	1	BRIEFCASE	175	1	n/a	0	n/a	0	0	0	0.57763671875	0.412841796875	1	lower	amplitud.ttf
118713	START	n/a	LTP268	ltpFR	13	n/a	n/a	n/a	n/a	n/a	n/a	n/a	n/a	n/a	n/a	n/a	n/a	n/a	n/a	n/a	n/a
119916	PROB	n/a	LTP268	ltpFR	13	n/a	n/a	n/a	n/a	n/a	n/a	n/a	13	5	3	5	n/a	n/a	n/a	n/a	n/a
121840	PROB	n/a	LTP268	ltpFR	13	n/a	n/a	n/a	n/a	n/a	n/a	n/a	14	2	5	7	n/a	n/a	n/a	n/a	n/a
124050	PROB	n/a	LTP268	ltpFR	13	n/a	n/a	n/a	n/a	n/a	n/a	n/a	11	2	7	2	n/a	n/a	n/a	n/a	n/a
126027	STOP	n/a	LTP268	ltpFR	13	n/a	n/a	n/a	n/a	n/a	n/a	n/a	n/a	n/a	n/a	n/a	n/a	n/a	n/a	n/a	n/a
127629	WORD	wordpools/wasnorm_wordpool_less_exclusions.txt	LTP268	ltpFR	13	1	1	VILLAGE	1566	n/a	n/a	0	n/a	0	0	0	0.57763671875	0.412841796875	1	lower	amplitud.ttf
130641	START	n/a	LTP268	ltpFR	13	n/a	n/a	n/a	n/a	n/a	n/a	n/a	n/a	n/a	n/a	n/a	n/a	n/a	n/a	n/a	n/a
131761	PROB	n/a	LTP268	ltpFR	13	n/a	n/a	n/a	n/a	n/a	n/a	n/a	19	8	3	8	n/a	n/a	n/a	n/a	n/a
133434	PROB	n/a	LTP268	ltpFR	13	n/a	n/a	n/a	n/a	n/a	n/a	n/a	15	6	7	2	n/a	n/a	n/a	n/a	n/a
136145	PROB	n/a	LTP268	ltpFR	13	n/a	n/a	n/a	n/a	n/a	n/a	n/a	16	1	6	9	n/a	n/a	n/a	n/a	n/a
138378	STOP	n/a	LTP268	ltpFR	13	n/a	n/a	n/a	n/a	n/a	n/a	n/a	n/a	n/a	n/a	n/a	n/a	n/a	n/a	n/a	n/a
139607	WORD	wordpools/wasnorm_wordpool_less_exclusions.txt	LTP268	ltpFR	13	1	1	DWARF	510	n/a	n/a	1	n/a	0	0	0	0.57763671875	0.412841796875	1	lower	amplitud.ttf
142620	START	n/a	LTP268	ltpFR	13	n/a	n/a	n/a	n/a	n/a	n/a	n/a	n/a	n/a	n/a	n/a	n/a	n/a	n/a	n/a	n/a
143539	PROB	n/a	LTP268	ltpFR	13	n/a	n/a	n/a	n/a	n/a	n/a	n/a	26	8	8	9	n/a	n/a	n/a	n/a	n/a
146433	PROB	n/a	LTP268	ltpFR	13	n/a	n/a	n/a	n/a	n/a	n/a	n/a	19	9	1	9	n/a	n/a	n/a	n/a	n/a
147805	PROB	n/a	LTP268	ltpFR	13	n/a	n/a	n/a	n/a	n/a	n/a	n/a	18	9	8	1	n/a	n/a	n/a	n/a	n/a
150522	STOP	n/a	LTP268	ltpFR	13	n/a	n/a	n/a	n/a	n/a	n/a	n/a	n/a	n/a	n/a	n/a	n/a	n/a	n/a	n/a	n/a
151586	WORD	wordpools/wasnorm_wordpool_less_exclusions.txt	LTP268	ltpFR	13	1	1	PRAIRIE	1118	n/a	n/a	1	n/a	0	0	0	0.57763671875	0.412841796875	1	lower	amplitud.ttf
154598	START	n/a	LTP268	ltpFR	13	n/a	n/a	n/a	n/a	n/a	n/a	n/a	n/a	n/a	n/a	n/a	n/a	n/a	n/a	n/a	n/a
155735	PROB	n/a	LTP268	ltpFR	13	n/a	n/a	n/a	n/a	n/a	n/a	n/a	18	3	6	9	n/a	n/a	n/a	n/a	n/a
157508	PROB	n/a	LTP268	ltpFR	13	n/a	n/a	n/a	n/a	n/a	n/a	n/a	20	5	8	7	n/a	n/a	n/a	n/a	n/a
159566	PROB	n/a	LTP268	ltpFR	13	n/a	n/a	n/a	n/a	n/a	n/a	n/a	13	3	3	7	n/a	n/a	n/a	n/a	n/a
161147	STOP	n/a	LTP268	ltpFR	13	n/a	n/a	n/a	n/a	n/a	n/a	n/a	n/a	n/a	n/a	n/a	n/a	n/a	n/a	n/a	n/a
163799	WORD	wordpools/wasnorm_wordpool_less_exclusions.txt	LTP268	ltpFR	13	1	1	LAWYER	806	n/a	n/a	1	n/a	0	0	0	0.57763671875	0.412841796875	1	lower	amplitud.ttf
166811	START	n/a	LTP268	ltpFR	13	n/a	n/a	n/a	n/a	n/a	n/a	n/a	n/a	n/a	n/a	n/a	n/a	n/a	n/a	n/a	n/a
167949	PROB	n/a	LTP268	ltpFR	13	n/a	n/a	n/a	n/a	n/a	n/a	n/a	19	8	9	2	n/a	n/a	n/a	n/a	n/a
170140	PROB	n/a	LTP268	ltpFR	13	n/a	n/a	n/a	n/a	n/a	n/a	n/a	8	6	1	1	n/a	n/a	n/a	n/a	n/a
171459	PROB	n/a	LTP268	ltpFR	13	n/a	n/a	n/a	n/a	n/a	n/a	n/a	19	6	7	6	n/a	n/a	n/a	n/a	n/a
173786	STOP	n/a	LTP268	ltpFR	13	n/a	n/a	n/a	n/a	n/a	n/a	n/a	n/a	n/a	n/a	n/a	n/a	n/a	n/a	n/a	n/a
175643	WORD	wordpools/wasnorm_wordpool_less_exclusions.txt	LTP268	ltpFR	13	1	1	PAINTING	1005	n/a	n/a	0	n/a	0	0	0	0.57763671875	0.412841796875	1	lower	amplitud.ttf
178655	START	n/a	LTP268	ltpFR	13	n/a	n/a	n/a	n/a	n/a	n/a	n/a	n/a	n/a	n/a	n/a	n/a	n/a	n/a	n/a	n/a
179675	PROB	n/a	LTP268	ltpFR	13	n/a	n/a	n/a	n/a	n/a	n/a	n/a	7	1	1	5	n/a	n/a	n/a	n/a	n/a
181063	PROB	n/a	LTP268	ltpFR	13	n/a	n/a	n/a	n/a	n/a	n/a	n/a	18	8	4	6	n/a	n/a	n/a	n/a	n/a
182686	PROB	n/a	LTP268	ltpFR	13	n/a	n/a	n/a	n/a	n/a	n/a	n/a	13	7	5	1	n/a	n/a	n/a	n/a	n/a
186655	STOP	n/a	LTP268	ltpFR	13	n/a	n/a	n/a	n/a	n/a	n/a	n/a	n/a	n/a	n/a	n/a	n/a	n/a	n/a	n/a	n/a
187505	WORD	wordpools/wasnorm_wordpool_less_exclusions.txt	LTP268	ltpFR	13	1	1	BADGE	68	n/a	n/a	0	n/a	0	0	0	0.57763671875	0.412841796875	1	lower	amplitud.ttf
190517	START	n/a	LTP268	ltpFR	13	n/a	n/a	n/a	n/a	n/a	n/a	n/a	n/a	n/a	n/a	n/a	n/a	n/a	n/a	n/a	n/a
191704	PROB	n/a	LTP268	ltpFR	13	n/a	n/a	n/a	n/a	n/a	n/a	n/a	11	2	1	8	n/a	n/a	n/a	n/a	n/a
193261	PROB	n/a	LTP268	ltpFR	13	n/a	n/a	n/a	n/a	n/a	n/a	n/a	13	3	7	3	n/a	n/a	n/a	n/a	n/a
194613	PROB	n/a	LTP268	ltpFR	13	n/a	n/a	n/a	n/a	n/a	n/a	n/a	15	5	1	9	n/a	n/a	n/a	n/a	n/a
198516	STOP	n/a	LTP268	ltpFR	13	n/a	n/a	n/a	n/a	n/a	n/a	n/a	n/a	n/a	n/a	n/a	n/a	n/a	n/a	n/a	n/a
199667	WORD	wordpools/wasnorm_wordpool_less_exclusions.txt	LTP268	ltpFR	13	1	1	FLIPPER	580	n/a	n/a	0	n/a	0	0	0	0.57763671875	0.412841796875	1	lower	amplitud.ttf
202679	START	n/a	LTP268	ltpFR	13	n/a	n/a	n/a	n/a	n/a	n/a	n/a	n/a	n/a	n/a	n/a	n/a	n/a	n/a	n/a	n/a
203665	PROB	n/a	LTP268	ltpFR	13	n/a	n/a	n/a	n/a	n/a	n/a	n/a	15	9	4	2	n/a	n/a	n/a	n/a	n/a
205892	PROB	n/a	LTP268	ltpFR	13	n/a	n/a	n/a	n/a	n/a	n/a	n/a	12	2	3	7	n/a	n/a	n/a	n/a	n/a
207866	PROB	n/a	LTP268	ltpFR	13	n/a	n/a	n/a	n/a	n/a	n/a	n/a	10	2	7	1	n/a	n/a	n/a	n/a	n/a
209194	STOP	n/a	LTP268	ltpFR	13	n/a	n/a	n/a	n/a	n/a	n/a	n/a	n/a	n/a	n/a	n/a	n/a	n/a	n/a	n/a	n/a
211813	WORD	wordpools/wasnorm_wordpool_less_exclusions.txt	LTP268	ltpFR	13	1	1	DANCER	437	n/a	n/a	1	n/a	0	0	0	0.57763671875	0.412841796875	1	lower	amplitud.ttf
214825	START	n/a	LTP268	ltpFR	13	n/a	n/a	n/a	n/a	n/a	n/a	n/a	n/a	n/a	n/a	n/a	n/a	n/a	n/a	n/a	n/a
216013	PROB	n/a	LTP268	ltpFR	13	n/a	n/a	n/a	n/a	n/a	n/a	n/a	12	5	4	3	n/a	n/a	n/a	n/a	n/a
217750	PROB	n/a	LTP268	ltpFR	13	n/a	n/a	n/a	n/a	n/a	n/a	n/a	16	5	5	6	n/a	n/a	n/a	n/a	n/a
219058	PROB	n/a	LTP268	ltpFR	13	n/a	n/a	n/a	n/a	n/a	n/a	n/a	21	7	7	7	n/a	n/a	n/a	n/a	n/a
220429	PROB	n/a	LTP268	ltpFR	13	n/a	n/a	n/a	n/a	n/a	n/a	n/a	10	3	2	5	n/a	n/a	n/a	n/a	n/a
222602	STOP	n/a	LTP268	ltpFR	13	n/a	n/a	n/a	n/a	n/a	n/a	n/a	n/a	n/a	n/a	n/a	n/a	n/a	n/a	n/a	n/a
223825	WORD	wordpools/wasnorm_wordpool_less_exclusions.txt	LTP268	ltpFR	13	1	1	HOOP	716	n/a	n/a	0	n/a	0	0	0	0.57763671875	0.412841796875	1	lower	amplitud.ttf
226837	START	n/a	LTP268	ltpFR	13	n/a	n/a	n/a	n/a	n/a	n/a	n/a	n/a	n/a	n/a	n/a	n/a	n/a	n/a	n/a	n/a
227874	PROB	n/a	LTP268	ltpFR	13	n/a	n/a	n/a	n/a	n/a	n/a	n/a	18	8	4	6	n/a	n/a	n/a	n/a	n/a
230116	PROB	n/a	LTP268	ltpFR	13	n/a	n/a	n/a	n/a	n/a	n/a	n/a	17	5	9	3	n/a	n/a	n/a	n/a	n/a
232289	PROB	n/a	LTP268	ltpFR	13	n/a	n/a	n/a	n/a	n/a	n/a	n/a	15	4	3	8	n/a	n/a	n/a	n/a	n/a
233698	STOP	n/a	LTP268	ltpFR	13	n/a	n/a	n/a	n/a	n/a	n/a	n/a	n/a	n/a	n/a	n/a	n/a	n/a	n/a	n/a	n/a
235720	WORD	wordpools/wasnorm_wordpool_less_exclusions.txt	LTP268	ltpFR	13	1	1	DOLPHIN	483	n/a	n/a	1	n/a	0	0	0	0.57763671875	0.412841796875	1	lower	amplitud.ttf
238732	START	n/a	LTP268	ltpFR	13	n/a	n/a	n/a	n/a	n/a	n/a	n/a	n/a	n/a	n/a	n/a	n/a	n/a	n/a	n/a	n/a
239701	PROB	n/a	LTP268	ltpFR	13	n/a	n/a	n/a	n/a	n/a	n/a	n/a	15	1	9	5	n/a	n/a	n/a	n/a	n/a
241041	PROB	n/a	LTP268	ltpFR	13	n/a	n/a	n/a	n/a	n/a	n/a	n/a	15	3	9	3	n/a	n/a	n/a	n/a	n/a
242696	PROB	n/a	LTP268	ltpFR	13	n/a	n/a	n/a	n/a	n/a	n/a	n/a	17	6	3	8	n/a	n/a	n/a	n/a	n/a
245610	STOP	n/a	LTP268	ltpFR	13	n/a	n/a	n/a	n/a	n/a	n/a	n/a	n/a	n/a	n/a	n/a	n/a	n/a	n/a	n/a	n/a
247849	WORD	wordpools/wasnorm_wordpool_less_exclusions.txt	LTP268	ltpFR	13	1	1	CLASS	318	n/a	n/a	0	n/a	0	0	0	0.57763671875	0.412841796875	1	lower	amplitud.ttf
250861	START	n/a	LTP268	ltpFR	13	n/a	n/a	n/a	n/a	n/a	n/a	n/a	n/a	n/a	n/a	n/a	n/a	n/a	n/a	n/a	n/a
251763	PROB	n/a	LTP268	ltpFR	13	n/a	n/a	n/a	n/a	n/a	n/a	n/a	20	9	8	3	n/a	n/a	n/a	n/a	n/a
253453	PROB	n/a	LTP268	ltpFR	13	n/a	n/a	n/a	n/a	n/a	n/a	n/a	12	6	3	3	n/a	n/a	n/a	n/a	n/a
254977	PROB	n/a	LTP268	ltpFR	13	n/a	n/a	n/a	n/a	n/a	n/a	n/a	8	1	5	2	n/a	n/a	n/a	n/a	n/a
258861	STOP	n/a	LTP268	ltpFR	13	n/a	n/a	n/a	n/a	n/a	n/a	n/a	n/a	n/a	n/a	n/a	n/a	n/a	n/a	n/a	n/a
259945	WORD	wordpools/wasnorm_wordpool_less_exclusions.txt	LTP268	ltpFR	13	1	1	TILE	1468	n/a	n/a	0	n/a	0	0	0	0.57763671875	0.412841796875	1	lower	amplitud.ttf
262957	START	n/a	LTP268	ltpFR	13	n/a	n/a	n/a	n/a	n/a	n/a	n/a	n/a	n/a	n/a	n/a	n/a	n/a	n/a	n/a	n/a
264027	PROB	n/a	LTP268	ltpFR	13	n/a	n/a	n/a	n/a	n/a	n/a	n/a	25	9	8	8	n/a	n/a	n/a	n/a	n/a
266820	PROB	n/a	LTP268	ltpFR	13	n/a	n/a	n/a	n/a	n/a	n/a	n/a	14	4	6	4	n/a	n/a	n/a	n/a	n/a
268360	PROB	n/a	LTP268	ltpFR	13	n/a	n/a	n/a	n/a	n/a	n/a	n/a	13	1	7	5	n/a	n/a	n/a	n/a	n/a
270474	STOP	n/a	LTP268	ltpFR	13	n/a	n/a	n/a	n/a	n/a	n/a	n/a	n/a	n/a	n/a	n/a	n/a	n/a	n/a	n/a	n/a
271924	WORD	wordpools/wasnorm_wordpool_less_exclusions.txt	LTP268	ltpFR	13	1	1	FRAME	600	n/a	n/a	0	n/a	0	0	0	0.57763671875	0.412841796875	1	lower	amplitud.ttf
274936	START	n/a	LTP268	ltpFR	13	n/a	n/a	n/a	n/a	n/a	n/a	n/a	n/a	n/a	n/a	n/a	n/a	n/a	n/a	n/a	n/a
276090	PROB	n/a	LTP268	ltpFR	13	n/a	n/a	n/a	n/a	n/a	n/a	n/a	12	5	1	6	n/a	n/a	n/a	n/a	n/a
277644	PROB	n/a	LTP268	ltpFR	13	n/a	n/a	n/a	n/a	n/a	n/a	n/a	23	9	7	7	n/a	n/a	n/a	n/a	n/a
281175	PROB	n/a	LTP268	ltpFR	13	n/a	n/a	n/a	n/a	n/a	n/a	n/a	14	6	2	6	n/a	n/a	n/a	n/a	n/a
282850	STOP	n/a	LTP268	ltpFR	13	n/a	n/a	n/a	n/a	n/a	n/a	n/a	n/a	n/a	n/a	n/a	n/a	n/a	n/a	n/a	n/a
284070	WORD	wordpools/wasnorm_wordpool_less_exclusions.txt	LTP268	ltpFR	13	1	1	DANDELION	438	n/a	n/a	1	n/a	0	0	0	0.57763671875	0.412841796875	1	lower	amplitud.ttf
287082	START	n/a	LTP268	ltpFR	13	n/a	n/a	n/a	n/a	n/a	n/a	n/a	n/a	n/a	n/a	n/a	n/a	n/a	n/a	n/a	n/a
288051	PROB	n/a	LTP268	ltpFR	13	n/a	n/a	n/a	n/a	n/a	n/a	n/a	21	8	5	7	n/a	n/a	n/a	n/a	n/a
290193	PROB	n/a	LTP268	ltpFR	13	n/a	n/a	n/a	n/a	n/a	n/a	n/a	16	6	3	7	n/a	n/a	n/a	n/a	n/a
295082	STOP	n/a	LTP268	ltpFR	13	n/a	n/a	n/a	n/a	n/a	n/a	n/a	n/a	n/a	n/a	n/a	n/a	n/a	n/a	n/a	n/a
296115	WORD	wordpools/wasnorm_wordpool_less_exclusions.txt	LTP268	ltpFR	13	1	1	TURNIP	1521	n/a	n/a	1	n/a	0	0	0	0.57763671875	0.412841796875	1	lower	amplitud.ttf
299127	START	n/a	LTP268	ltpFR	13	n/a	n/a	n/a	n/a	n/a	n/a	n/a	n/a	n/a	n/a	n/a	n/a	n/a	n/a	n/a	n/a
300314	PROB	n/a	LTP268	ltpFR	13	n/a	n/a	n/a	n/a	n/a	n/a	n/a	14	2	4	8	n/a	n/a	n/a	n/a	n/a
302154	PROB	n/a	LTP268	ltpFR	13	n/a	n/a	n/a	n/a	n/a	n/a	n/a	14	4	1	9	n/a	n/a	n/a	n/a	n/a
303490	PROB	n/a	LTP268	ltpFR	13	n/a	n/a	n/a	n/a	n/a	n/a	n/a	17	8	7	2	n/a	n/a	n/a	n/a	n/a
305979	STOP	n/a	LTP268	ltpFR	13	n/a	n/a	n/a	n/a	n/a	n/a	n/a	n/a	n/a	n/a	n/a	n/a	n/a	n/a	n/a	n/a
308898	REC_START	n/a	LTP268	ltpFR	13	1	n/a	n/a	n/a	n/a	n/a	n/a	n/a	0	0	0	n/a	n/a	n/a	n/a	n/a
310385	REC_WORD	wordpools/wasnorm_wordpool_less_exclusions.txt	LTP268	ltpFR	13	1	1	PRAIRIE	1118	n/a	n/a	1	n/a	0	0	0	n/a	n/a	n/a	n/a	n/a
311136	REC_WORD	wordpools/wasnorm_wordpool_less_exclusions.txt	LTP268	ltpFR	13	1	1	DANDELION	438	n/a	n/a	1	n/a	0	0	0	n/a	n/a	n/a	n/a	n/a
312248	REC_WORD	wordpools/wasnorm_wordpool_less_exclusions.txt	LTP268	ltpFR	13	1	1	TURNIP	1521	n/a	n/a	1	n/a	0	0	0	n/a	n/a	n/a	n/a	n/a
314593	REC_WORD	wordpools/wasnorm_wordpool_less_exclusions.txt	LTP268	ltpFR	13	1	1	BRIEFCASE	175	n/a	n/a	0	n/a	0	0	0	n/a	n/a	n/a	n/a	n/a
315765	REC_WORD	wordpools/wasnorm_wordpool_less_exclusions.txt	LTP268	ltpFR	13	1	1	PAINTING	1005	n/a	n/a	0	n/a	0	0	0	n/a	n/a	n/a	n/a	n/a
316625	REC_WORD	wordpools/wasnorm_wordpool_less_exclusions.txt	LTP268	ltpFR	13	1	1	FRAME	600	n/a	n/a	0	n/a	0	0	0	n/a	n/a	n/a	n/a	n/a
318978	REC_WORD	wordpools/wasnorm_wordpool_less_exclusions.txt	LTP268	ltpFR	13	1	1	DANCER	437	n/a	n/a	1	n/a	0	0	0	n/a	n/a	n/a	n/a	n/a
322290	REC_WORD	wordpools/wasnorm_wordpool_less_exclusions.txt	LTP268	ltpFR	13	1	1	HOOP	716	n/a	n/a	0	n/a	0	0	0	n/a	n/a	n/a	n/a	n/a
322622	REC_WORD	wordpools/wasnorm_wordpool_less_exclusions.txt	LTP268	ltpFR	13	1	1	FLIPPER	580	n/a	n/a	0	n/a	0	0	0	n/a	n/a	n/a	n/a	n/a
323601	REC_WORD	wordpools/wasnorm_wordpool_less_exclusions.txt	LTP268	ltpFR	13	1	1	DOLPHIN	483	n/a	n/a	1	n/a	0	0	0	n/a	n/a	n/a	n/a	n/a
330713	REC_WORD	wordpools/wasnorm_wordpool_less_exclusions.txt	LTP268	ltpFR	13	1	1	DWARF	510	n/a	n/a	1	n/a	0	0	0	n/a	n/a	n/a	n/a	n/a
331682	REC_WORD	wordpools/wasnorm_wordpool_less_exclusions.txt	LTP268	ltpFR	13	1	1	VILLAGE	1566	n/a	n/a	0	n/a	0	0	0	n/a	n/a	n/a	n/a	n/a
333393	REC_WORD	wordpools/wasnorm_wordpool_less_exclusions.txt	LTP268	ltpFR	13	1	1	LAWYER	806	n/a	n/a	1	n/a	0	0	0	n/a	n/a	n/a	n/a	n/a
336889	REC_WORD	wordpools/wasnorm_wordpool_less_exclusions.txt	LTP268	ltpFR	13	1	1	CLASS	318	n/a	n/a	0	n/a	0	0	0	n/a	n/a	n/a	n/a	n/a
369678	REC_WORD	wordpools/wasnorm_wordpool_less_exclusions.txt	LTP268	ltpFR	13	1	1	TILE	1468	n/a	n/a	0	n/a	0	0	0	n/a	n/a	n/a	n/a	n/a
390337	WORD	wordpools/wasnorm_wordpool_less_exclusions.txt	LTP268	ltpFR	13	2	1	FLESH	579	n/a	n/a	0	n/a	0	0	0	0.57763671875	0.412841796875	1	lower	amplitud.ttf
394201	WORD	wordpools/wasnorm_wordpool_less_exclusions.txt	LTP268	ltpFR	13	2	1	ARENA	37	n/a	n/a	0	n/a	0	0	0	0.57763671875	0.412841796875	1	lower	amplitud.ttf
398131	WORD	wordpools/wasnorm_wordpool_less_exclusions.txt	LTP268	ltpFR	13	2	1	SPARROW	1347	n/a	n/a	1	n/a	0	0	0	0.57763671875	0.412841796875	1	lower	amplitud.ttf
401964	WORD	wordpools/wasnorm_wordpool_less_exclusions.txt	LTP268	ltpFR	13	2	0	NEST	945	n/a	n/a	0	n/a	0	0	0	0.422607421875	0.5869140625	0	upper	zerothre.ttf
406146	WORD	wordpools/wasnorm_wordpool_less_exclusions.txt	LTP268	ltpFR	13	2	0	CALENDAR	221	n/a	n/a	0	n/a	0	0	0	0.422607421875	0.5869140625	0	upper	zerothre.ttf
410279	WORD	wordpools/wasnorm_wordpool_less_exclusions.txt	LTP268	ltpFR	13	2	0	CLOCK	325	n/a	n/a	0	n/a	0	0	0	0.422607421875	0.5869140625	0	upper	zerothre.ttf
414193	WORD	wordpools/wasnorm_wordpool_less_exclusions.txt	LTP268	ltpFR	13	2	0	SCAPEGOAT	1244	n/a	n/a	1	n/a	0	0	0	0.422607421875	0.5869140625	0	upper	zerothre.ttf
418326	WORD	wordpools/wasnorm_wordpool_less_exclusions.txt	LTP268	ltpFR	13	2	0	LEAF	808	n/a	n/a	0	n/a	0	0	0	0.422607421875	0.5869140625	0	upper	zerothre.ttf
422274	WORD	wordpools/wasnorm_wordpool_less_exclusions.txt	LTP268	ltpFR	13	2	1	ARTERY	41	n/a	n/a	0	n/a	0	0	0	0.57763671875	0.412841796875	1	lower	amplitud.ttf
426189	WORD	wordpools/wasnorm_wordpool_less_exclusions.txt	LTP268	ltpFR	13	2	1	ROOSTER	1209	n/a	n/a	1	n/a	0	0	0	0.57763671875	0.412841796875	1	lower	amplitud.ttf
430020	WORD	wordpools/wasnorm_wordpool_less_exclusions.txt	LTP268	ltpFR	13	2	1	METEOR	889	n/a	n/a	2	n/a	0	0	0	0.57763671875	0.412841796875	1	lower	amplitud.ttf
432981	KEY_MSG	n/a	LTP268	ltpFR	13	2	n/a	n/a	n/a	n/a	n/a	n/a	n/a	0	0	0	n/a	n/a	n/a	n/a	n/a
435372	WORD	wordpools/wasnorm_wordpool_less_exclusions.txt	LTP268	ltpFR	13	2	0	ASTRONAUT	51	n/a	n/a	1	n/a	0	0	0	0.422607421875	0.5869140625	0	upper	zerothre.ttf
439221	WORD	wordpools/wasnorm_wordpool_less_exclusions.txt	LTP268	ltpFR	13	2	0	WINGS	1614	n/a	n/a	0	n/a	0	0	0	0.422607421875	0.5869140625	0	upper	zerothre.ttf
443169	WORD	wordpools/wasnorm_wordpool_less_exclusions.txt	LTP268	ltpFR	13	2	0	CAR	241	n/a	n/a	1	n/a	0	0	0	0.422607421875	0.5869140625	0	upper	zerothre.ttf
447352	WORD	wordpools/wasnorm_wordpool_less_exclusions.txt	LTP268	ltpFR	13	2	1	UNCLE	1536	n/a	n/a	1	n/a	0	0	0	0.57763671875	0.412841796875	1	lower	amplitud.ttf
451416	WORD	wordpools/wasnorm_wordpool_less_exclusions.txt	LTP268	ltpFR	13	2	1	NEPHEW	942	n/a	n/a	1	n/a	0	0	0	0.57763671875	0.412841796875	1	lower	amplitud.ttf
454428	START	n/a	LTP268	ltpFR	13	n/a	n/a	n/a	n/a	n/a	n/a	n/a	n/a	n/a	n/a	n/a	n/a	n/a	n/a	n/a	n/a
455548	PROB	n/a	LTP268	ltpFR	13	n/a	n/a	n/a	n/a	n/a	n/a	n/a	15	7	1	7	n/a	n/a	n/a	n/a	n/a
457439	PROB	n/a	LTP268	ltpFR	13	n/a	n/a	n/a	n/a	n/a	n/a	n/a	14	2	3	9	n/a	n/a	n/a	n/a	n/a
459096	PROB	n/a	LTP268	ltpFR	13	n/a	n/a	n/a	n/a	n/a	n/a	n/a	16	5	6	5	n/a	n/a	n/a	n/a	n/a
460601	PROB	n/a	LTP268	ltpFR	13	n/a	n/a	n/a	n/a	n/a	n/a	n/a	19	9	6	4	n/a	n/a	n/a	n/a	n/a
461987	STOP	n/a	LTP268	ltpFR	13	n/a	n/a	n/a	n/a	n/a	n/a	n/a	n/a	n/a	n/a	n/a	n/a	n/a	n/a	n/a	n/a
464183	REC_START	n/a	LTP268	ltpFR	13	2	n/a	n/a	n/a	n/a	n/a	n/a	n/a	0	0	0	n/a	n/a	n/a	n/a	n/a
465483	REC_WORD	wordpools/wasnorm_wordpool_less_exclusions.txt	LTP268	ltpFR	13	2	1	UNCLE	1536	n/a	n/a	1	n/a	0	0	0	n/a	n/a	n/a	n/a	n/a
466247	REC_WORD	wordpools/wasnorm_wordpool_less_exclusions.txt	LTP268	ltpFR	13	2	1	NEPHEW	942	n/a	n/a	1	n/a	0	0	0	n/a	n/a	n/a	n/a	n/a
468733	REC_WORD	wordpools/wasnorm_wordpool_less_exclusions.txt	LTP268	ltpFR	13	2	1	FLESH	579	n/a	n/a	0	n/a	0	0	0	n/a	n/a	n/a	n/a	n/a
469517	REC_WORD	wordpools/wasnorm_wordpool_less_exclusions.txt	LTP268	ltpFR	13	2	1	SPARROW	1347	n/a	n/a	1	n/a	0	0	0	n/a	n/a	n/a	n/a	n/a
471922	REC_WORD	wordpools/wasnorm_wordpool_less_exclusions.txt	LTP268	ltpFR	13	2	1	ARENA	37	n/a	n/a	0	n/a	0	0	0	n/a	n/a	n/a	n/a	n/a
472836	REC_WORD	wordpools/wasnorm_wordpool_less_exclusions.txt	LTP268	ltpFR	13	2	0	NEST	945	n/a	n/a	0	n/a	0	0	0	n/a	n/a	n/a	n/a	n/a
473890	REC_WORD	wordpools/wasnorm_wordpool_less_exclusions.txt	LTP268	ltpFR	13	2	0	LEAF	808	n/a	n/a	0	n/a	0	0	0	n/a	n/a	n/a	n/a	n/a
475422	REC_WORD	wordpools/wasnorm_wordpool_less_exclusions.txt	LTP268	ltpFR	13	2	0	WINGS	1614	n/a	n/a	0	n/a	0	0	0	n/a	n/a	n/a	n/a	n/a
477048	REC_WORD	wordpools/wasnorm_wordpool_less_exclusions.txt	LTP268	ltpFR	13	2	1	ARTERY	41	n/a	n/a	0	n/a	0	0	0	n/a	n/a	n/a	n/a	n/a
481026	REC_WORD	wordpools/wasnorm_wordpool_less_exclusions.txt	LTP268	ltpFR	13	2	1	ROOSTER	1209	n/a	n/a	1	n/a	0	0	0	n/a	n/a	n/a	n/a	n/a
484314	REC_WORD	wordpools/wasnorm_wordpool_less_exclusions.txt	LTP268	ltpFR	13	2	0	CAR	241	n/a	n/a	1	n/a	0	0	0	n/a	n/a	n/a	n/a	n/a
485787	REC_WORD	wordpools/wasnorm_wordpool_less_exclusions.txt	LTP268	ltpFR	13	2	1	METEOR	889	n/a	n/a	2	n/a	0	0	0	n/a	n/a	n/a	n/a	n/a
486668	REC_WORD	wordpools/wasnorm_wordpool_less_exclusions.txt	LTP268	ltpFR	13	2	0	ASTRONAUT	51	n/a	n/a	1	n/a	0	0	0	n/a	n/a	n/a	n/a	n/a
526760	REC_WORD	wordpools/wasnorm_wordpool_less_exclusions.txt	LTP268	ltpFR	13	2	0	SCAPEGOAT	1244	n/a	n/a	1	n/a	0	0	0	n/a	n/a	n/a	n/a	n/a
545003	START	n/a	LTP268	ltpFR	13	n/a	n/a	n/a	n/a	n/a	n/a	n/a	n/a	n/a	n/a	n/a	n/a	n/a	n/a	n/a	n/a
546508	PROB	n/a	LTP268	ltpFR	13	n/a	n/a	n/a	n/a	n/a	n/a	n/a	13	5	5	3	n/a	n/a	n/a	n/a	n/a
548113	PROB	n/a	LTP268	ltpFR	13	n/a	n/a	n/a	n/a	n/a	n/a	n/a	15	9	5	1	n/a	n/a	n/a	n/a	n/a
549452	PROB	n/a	LTP268	ltpFR	13	n/a	n/a	n/a	n/a	n/a	n/a	n/a	18	7	7	4	n/a	n/a	n/a	n/a	n/a
552545	STOP	n/a	LTP268	ltpFR	13	n/a	n/a	n/a	n/a	n/a	n/a	n/a	n/a	n/a	n/a	n/a	n/a	n/a	n/a	n/a	n/a
553887	WORD	wordpools/wasnorm_wordpool_less_exclusions.txt	LTP268	ltpFR	13	3	0	FREEZER	604	n/a	n/a	0	n/a	0	0	0	0.422607421875	0.5869140625	0	upper	zerothre.ttf
556899	START	n/a	LTP268	ltpFR	13	n/a	n/a	n/a	n/a	n/a	n/a	n/a	n/a	n/a	n/a	n/a	n/a	n/a	n/a	n/a	n/a
558069	PROB	n/a	LTP268	ltpFR	13	n/a	n/a	n/a	n/a	n/a	n/a	n/a	24	8	9	7	n/a	n/a	n/a	n/a	n/a
560678	PROB	n/a	LTP268	ltpFR	13	n/a	n/a	n/a	n/a	n/a	n/a	n/a	21	6	9	6	n/a	n/a	n/a	n/a	n/a
563450	STOP	n/a	LTP268	ltpFR	13	n/a	n/a	n/a	n/a	n/a	n/a	n/a	n/a	n/a	n/a	n/a	n/a	n/a	n/a	n/a	n/a
565780	WORD	wordpools/wasnorm_wordpool_less_exclusions.txt	LTP268	ltpFR	13	3	0	IGLOO	734	n/a	n/a	1	n/a	0	0	0	0.422607421875	0.5869140625	0	upper	zerothre.ttf
568792	START	n/a	LTP268	ltpFR	13	n/a	n/a	n/a	n/a	n/a	n/a	n/a	n/a	n/a	n/a	n/a	n/a	n/a	n/a	n/a	n/a
569695	PROB	n/a	LTP268	ltpFR	13	n/a	n/a	n/a	n/a	n/a	n/a	n/a	12	4	6	2	n/a	n/a	n/a	n/a	n/a
571351	PROB	n/a	LTP268	ltpFR	13	n/a	n/a	n/a	n/a	n/a	n/a	n/a	7	3	1	3	n/a	n/a	n/a	n/a	n/a
572822	PROB	n/a	LTP268	ltpFR	13	n/a	n/a	n/a	n/a	n/a	n/a	n/a	22	8	8	6	n/a	n/a	n/a	n/a	n/a
576792	STOP	n/a	LTP268	ltpFR	13	n/a	n/a	n/a	n/a	n/a	n/a	n/a	n/a	n/a	n/a	n/a	n/a	n/a	n/a	n/a	n/a
577658	WORD	wordpools/wasnorm_wordpool_less_exclusions.txt	LTP268	ltpFR	13	3	0	WHEAT	1602	n/a	n/a	0	n/a	0	0	0	0.422607421875	0.5869140625	0	upper	zerothre.ttf
580670	START	n/a	LTP268	ltpFR	13	n/a	n/a	n/a	n/a	n/a	n/a	n/a	n/a	n/a	n/a	n/a	n/a	n/a	n/a	n/a	n/a
581757	PROB	n/a	LTP268	ltpFR	13	n/a	n/a	n/a	n/a	n/a	n/a	n/a	13	1	5	7	n/a	n/a	n/a	n/a	n/a
583564	PROB	n/a	LTP268	ltpFR	13	n/a	n/a	n/a	n/a	n/a	n/a	n/a	18	8	3	7	n/a	n/a	n/a	n/a	n/a
585271	PROB	n/a	LTP268	ltpFR	13	n/a	n/a	n/a	n/a	n/a	n/a	n/a	16	1	8	7	n/a	n/a	n/a	n/a	n/a
588670	STOP	n/a	LTP268	ltpFR	13	n/a	n/a	n/a	n/a	n/a	n/a	n/a	n/a	n/a	n/a	n/a	n/a	n/a	n/a	n/a	n/a
589520	WORD	wordpools/wasnorm_wordpool_less_exclusions.txt	LTP268	ltpFR	13	3	0	SAXOPHONE	1240	n/a	n/a	1	n/a	0	0	0	0.422607421875	0.5869140625	0	upper	zerothre.ttf
592532	START	n/a	LTP268	ltpFR	13	n/a	n/a	n/a	n/a	n/a	n/a	n/a	n/a	n/a	n/a	n/a	n/a	n/a	n/a	n/a	n/a
593569	PROB	n/a	LTP268	ltpFR	13	n/a	n/a	n/a	n/a	n/a	n/a	n/a	23	9	7	7	n/a	n/a	n/a	n/a	n/a
595626	PROB	n/a	LTP268	ltpFR	13	n/a	n/a	n/a	n/a	n/a	n/a	n/a	14	3	6	5	n/a	n/a	n/a	n/a	n/a
597766	PROB	n/a	LTP268	ltpFR	13	n/a	n/a	n/a	n/a	n/a	n/a	n/a	16	2	7	7	n/a	n/a	n/a	n/a	n/a
599578	STOP	n/a	LTP268	ltpFR	13	n/a	n/a	n/a	n/a	n/a	n/a	n/a	n/a	n/a	n/a	n/a	n/a	n/a	n/a	n/a	n/a
601365	WORD	wordpools/wasnorm_wordpool_less_exclusions.txt	LTP268	ltpFR	13	3	0	NICOTINE	951	n/a	n/a	0	n/a	0	0	0	0.422607421875	0.5869140625	0	upper	zerothre.ttf
604376	START	n/a	LTP268	ltpFR	13	n/a	n/a	n/a	n/a	n/a	n/a	n/a	n/a	n/a	n/a	n/a	n/a	n/a	n/a	n/a	n/a
605264	PROB	n/a	LTP268	ltpFR	13	n/a	n/a	n/a	n/a	n/a	n/a	n/a	16	2	7	7	n/a	n/a	n/a	n/a	n/a
607020	PROB	n/a	LTP268	ltpFR	13	n/a	n/a	n/a	n/a	n/a	n/a	n/a	10	2	5	3	n/a	n/a	n/a	n/a	n/a
609043	PROB	n/a	LTP268	ltpFR	13	n/a	n/a	n/a	n/a	n/a	n/a	n/a	19	9	7	3	n/a	n/a	n/a	n/a	n/a
610681	PROB	n/a	LTP268	ltpFR	13	n/a	n/a	n/a	n/a	n/a	n/a	n/a	10	2	2	6	n/a	n/a	n/a	n/a	n/a
612235	STOP	n/a	LTP268	ltpFR	13	n/a	n/a	n/a	n/a	n/a	n/a	n/a	n/a	n/a	n/a	n/a	n/a	n/a	n/a	n/a	n/a
613427	WORD	wordpools/wasnorm_wordpool_less_exclusions.txt	LTP268	ltpFR	13	3	0	CHIMNEY	301	n/a	n/a	1	n/a	0	0	0	0.422607421875	0.5869140625	0	upper	zerothre.ttf
616438	START	n/a	LTP268	ltpFR	13	n/a	n/a	n/a	n/a	n/a	n/a	n/a	n/a	n/a	n/a	n/a	n/a	n/a	n/a	n/a	n/a
617626	PROB	n/a	LTP268	ltpFR	13	n/a	n/a	n/a	n/a	n/a	n/a	n/a	15	1	6	8	n/a	n/a	n/a	n/a	n/a
620235	PROB	n/a	LTP268	ltpFR	13	n/a	n/a	n/a	n/a	n/a	n/a	n/a	19	8	9	2	n/a	n/a	n/a	n/a	n/a
622377	PROB	n/a	LTP268	ltpFR	13	n/a	n/a	n/a	n/a	n/a	n/a	n/a	17	8	1	8	n/a	n/a	n/a	n/a	n/a
624099	STOP	n/a	LTP268	ltpFR	13	n/a	n/a	n/a	n/a	n/a	n/a	n/a	n/a	n/a	n/a	n/a	n/a	n/a	n/a	n/a	n/a
625455	WORD	wordpools/wasnorm_wordpool_less_exclusions.txt	LTP268	ltpFR	13	3	0	NOSE	957	n/a	n/a	0	n/a	0	0	0	0.422607421875	0.5869140625	0	upper	zerothre.ttf
628467	START	n/a	LTP268	ltpFR	13	n/a	n/a	n/a	n/a	n/a	n/a	n/a	n/a	n/a	n/a	n/a	n/a	n/a	n/a	n/a	n/a
629403	PROB	n/a	LTP268	ltpFR	13	n/a	n/a	n/a	n/a	n/a	n/a	n/a	10	2	5	3	n/a	n/a	n/a	n/a	n/a
631426	PROB	n/a	LTP268	ltpFR	13	n/a	n/a	n/a	n/a	n/a	n/a	n/a	14	7	1	6	n/a	n/a	n/a	n/a	n/a
633219	PROB	n/a	LTP268	ltpFR	13	n/a	n/a	n/a	n/a	n/a	n/a	n/a	10	3	4	3	n/a	n/a	n/a	n/a	n/a
635442	STOP	n/a	LTP268	ltpFR	13	n/a	n/a	n/a	n/a	n/a	n/a	n/a	n/a	n/a	n/a	n/a	n/a	n/a	n/a	n/a	n/a
637484	WORD	wordpools/wasnorm_wordpool_less_exclusions.txt	LTP268	ltpFR	13	3	0	VAN	1548	n/a	n/a	1	n/a	0	0	0	0.422607421875	0.5869140625	0	upper	zerothre.ttf
640496	START	n/a	LTP268	ltpFR	13	n/a	n/a	n/a	n/a	n/a	n/a	n/a	n/a	n/a	n/a	n/a	n/a	n/a	n/a	n/a	n/a
641399	PROB	n/a	LTP268	ltpFR	13	n/a	n/a	n/a	n/a	n/a	n/a	n/a	10	5	1	4	n/a	n/a	n/a	n/a	n/a
643089	PROB	n/a	LTP268	ltpFR	13	n/a	n/a	n/a	n/a	n/a	n/a	n/a	19	9	5	5	n/a	n/a	n/a	n/a	n/a
644561	PROB	n/a	LTP268	ltpFR	13	n/a	n/a	n/a	n/a	n/a	n/a	n/a	18	6	5	7	n/a	n/a	n/a	n/a	n/a
647778	STOP	n/a	LTP268	ltpFR	13	n/a	n/a	n/a	n/a	n/a	n/a	n/a	n/a	n/a	n/a	n/a	n/a	n/a	n/a	n/a	n/a
649412	WORD	wordpools/wasnorm_wordpool_less_exclusions.txt	LTP268	ltpFR	13	3	0	TUBA	1515	n/a	n/a	1	n/a	0	0	0	0.422607421875	0.5869140625	0	upper	zerothre.ttf
652424	START	n/a	LTP268	ltpFR	13	n/a	n/a	n/a	n/a	n/a	n/a	n/a	n/a	n/a	n/a	n/a	n/a	n/a	n/a	n/a	n/a
653528	PROB	n/a	LTP268	ltpFR	13	n/a	n/a	n/a	n/a	n/a	n/a	n/a	12	6	3	3	n/a	n/a	n/a	n/a	n/a
655871	PROB	n/a	LTP268	ltpFR	13	n/a	n/a	n/a	n/a	n/a	n/a	n/a	11	3	2	6	n/a	n/a	n/a	n/a	n/a
657610	PROB	n/a	LTP268	ltpFR	13	n/a	n/a	n/a	n/a	n/a	n/a	n/a	15	8	5	2	n/a	n/a	n/a	n/a	n/a
659259	STOP	n/a	LTP268	ltpFR	13	n/a	n/a	n/a	n/a	n/a	n/a	n/a	n/a	n/a	n/a	n/a	n/a	n/a	n/a	n/a	n/a
661358	WORD	wordpools/wasnorm_wordpool_less_exclusions.txt	LTP268	ltpFR	13	3	0	UNICORN	1538	n/a	n/a	1	n/a	0	0	0	0.422607421875	0.5869140625	0	upper	zerothre.ttf
664369	START	n/a	LTP268	ltpFR	13	n/a	n/a	n/a	n/a	n/a	n/a	n/a	n/a	n/a	n/a	n/a	n/a	n/a	n/a	n/a	n/a
665240	PROB	n/a	LTP268	ltpFR	13	n/a	n/a	n/a	n/a	n/a	n/a	n/a	20	7	4	9	n/a	n/a	n/a	n/a	n/a
668065	PROB	n/a	LTP268	ltpFR	13	n/a	n/a	n/a	n/a	n/a	n/a	n/a	23	8	8	7	n/a	n/a	n/a	n/a	n/a
669924	PROB	n/a	LTP268	ltpFR	13	n/a	n/a	n/a	n/a	n/a	n/a	n/a	18	7	8	3	n/a	n/a	n/a	n/a	n/a
671754	STOP	n/a	LTP268	ltpFR	13	n/a	n/a	n/a	n/a	n/a	n/a	n/a	n/a	n/a	n/a	n/a	n/a	n/a	n/a	n/a	n/a
673203	WORD	wordpools/wasnorm_wordpool_less_exclusions.txt	LTP268	ltpFR	13	3	0	WRIST	1626	n/a	n/a	0	n/a	0	0	0	0.422607421875	0.5869140625	0	upper	zerothre.ttf
676215	START	n/a	LTP268	ltpFR	13	n/a	n/a	n/a	n/a	n/a	n/a	n/a	n/a	n/a	n/a	n/a	n/a	n/a	n/a	n/a	n/a
677401	PROB	n/a	LTP268	ltpFR	13	n/a	n/a	n/a	n/a	n/a	n/a	n/a	10	1	5	4	n/a	n/a	n/a	n/a	n/a
678773	PROB	n/a	LTP268	ltpFR	13	n/a	n/a	n/a	n/a	n/a	n/a	n/a	16	5	7	4	n/a	n/a	n/a	n/a	n/a
681233	PROB	n/a	LTP268	ltpFR	13	n/a	n/a	n/a	n/a	n/a	n/a	n/a	15	3	3	9	n/a	n/a	n/a	n/a	n/a
682669	PROB	n/a	LTP268	ltpFR	13	n/a	n/a	n/a	n/a	n/a	n/a	n/a	15	2	5	8	n/a	n/a	n/a	n/a	n/a
684131	STOP	n/a	LTP268	ltpFR	13	n/a	n/a	n/a	n/a	n/a	n/a	n/a	n/a	n/a	n/a	n/a	n/a	n/a	n/a	n/a	n/a
685165	WORD	wordpools/wasnorm_wordpool_less_exclusions.txt	LTP268	ltpFR	13	3	0	PLATE	1086	n/a	n/a	0	n/a	0	0	0	0.422607421875	0.5869140625	0	upper	zerothre.ttf
688177	START	n/a	LTP268	ltpFR	13	n/a	n/a	n/a	n/a	n/a	n/a	n/a	n/a	n/a	n/a	n/a	n/a	n/a	n/a	n/a	n/a
689314	PROB	n/a	LTP268	ltpFR	13	n/a	n/a	n/a	n/a	n/a	n/a	n/a	20	8	7	5	n/a	n/a	n/a	n/a	n/a
691402	PROB	n/a	LTP268	ltpFR	13	n/a	n/a	n/a	n/a	n/a	n/a	n/a	7	3	3	1	n/a	n/a	n/a	n/a	n/a
692841	PROB	n/a	LTP268	ltpFR	13	n/a	n/a	n/a	n/a	n/a	n/a	n/a	9	1	5	3	n/a	n/a	n/a	n/a	n/a
694674	STOP	n/a	LTP268	ltpFR	13	n/a	n/a	n/a	n/a	n/a	n/a	n/a	n/a	n/a	n/a	n/a	n/a	n/a	n/a	n/a	n/a
697076	WORD	wordpools/wasnorm_wordpool_less_exclusions.txt	LTP268	ltpFR	13	3	0	KLEENEX	782	n/a	n/a	0	n/a	0	0	0	0.422607421875	0.5869140625	0	upper	zerothre.ttf
700105	START	n/a	LTP268	ltpFR	13	n/a	n/a	n/a	n/a	n/a	n/a	n/a	n/a	n/a	n/a	n/a	n/a	n/a	n/a	n/a	n/a
701208	PROB	n/a	LTP268	ltpFR	13	n/a	n/a	n/a	n/a	n/a	n/a	n/a	9	6	2	1	n/a	n/a	n/a	n/a	n/a
702932	PROB	n/a	LTP268	ltpFR	13	n/a	n/a	n/a	n/a	n/a	n/a	n/a	12	8	3	1	n/a	n/a	n/a	n/a	n/a
704786	PROB	n/a	LTP268	ltpFR	13	n/a	n/a	n/a	n/a	n/a	n/a	n/a	15	5	6	4	n/a	n/a	n/a	n/a	n/a
708104	STOP	n/a	LTP268	ltpFR	13	n/a	n/a	n/a	n/a	n/a	n/a	n/a	n/a	n/a	n/a	n/a	n/a	n/a	n/a	n/a	n/a
709155	WORD	wordpools/wasnorm_wordpool_less_exclusions.txt	LTP268	ltpFR	13	3	0	GLACIER	638	n/a	n/a	1	n/a	0	0	0	0.422607421875	0.5869140625	0	upper	zerothre.ttf
712167	START	n/a	LTP268	ltpFR	13	n/a	n/a	n/a	n/a	n/a	n/a	n/a	n/a	n/a	n/a	n/a	n/a	n/a	n/a	n/a	n/a
713187	PROB	n/a	LTP268	ltpFR	13	n/a	n/a	n/a	n/a	n/a	n/a	n/a	13	1	8	4	n/a	n/a	n/a	n/a	n/a
714977	PROB	n/a	LTP268	ltpFR	13	n/a	n/a	n/a	n/a	n/a	n/a	n/a	14	2	5	7	n/a	n/a	n/a	n/a	n/a
716800	PROB	n/a	LTP268	ltpFR	13	n/a	n/a	n/a	n/a	n/a	n/a	n/a	18	5	6	7	n/a	n/a	n/a	n/a	n/a
718834	STOP	n/a	LTP268	ltpFR	13	n/a	n/a	n/a	n/a	n/a	n/a	n/a	n/a	n/a	n/a	n/a	n/a	n/a	n/a	n/a	n/a
721016	WORD	wordpools/wasnorm_wordpool_less_exclusions.txt	LTP268	ltpFR	13	3	0	SLEIGH	1325	n/a	n/a	1	n/a	0	0	0	0.422607421875	0.5869140625	0	upper	zerothre.ttf
724028	START	n/a	LTP268	ltpFR	13	n/a	n/a	n/a	n/a	n/a	n/a	n/a	n/a	n/a	n/a	n/a	n/a	n/a	n/a	n/a	n/a
725065	PROB	n/a	LTP268	ltpFR	13	n/a	n/a	n/a	n/a	n/a	n/a	n/a	14	1	9	4	n/a	n/a	n/a	n/a	n/a
726702	PROB	n/a	LTP268	ltpFR	13	n/a	n/a	n/a	n/a	n/a	n/a	n/a	14	8	3	3	n/a	n/a	n/a	n/a	n/a
729832	PROB	n/a	LTP268	ltpFR	13	n/a	n/a	n/a	n/a	n/a	n/a	n/a	13	3	5	5	n/a	n/a	n/a	n/a	n/a
731347	STOP	n/a	LTP268	ltpFR	13	n/a	n/a	n/a	n/a	n/a	n/a	n/a	n/a	n/a	n/a	n/a	n/a	n/a	n/a	n/a	n/a
733028	WORD	wordpools/wasnorm_wordpool_less_exclusions.txt	LTP268	ltpFR	13	3	0	CORPORATION	382	n/a	n/a	1	n/a	0	0	0	0.422607421875	0.5869140625	0	upper	zerothre.ttf
736040	START	n/a	LTP268	ltpFR	13	n/a	n/a	n/a	n/a	n/a	n/a	n/a	n/a	n/a	n/a	n/a	n/a	n/a	n/a	n/a	n/a
737008	PROB	n/a	LTP268	ltpFR	13	n/a	n/a	n/a	n/a	n/a	n/a	n/a	19	9	7	3	n/a	n/a	n/a	n/a	n/a
738598	PROB	n/a	LTP268	ltpFR	13	n/a	n/a	n/a	n/a	n/a	n/a	n/a	16	5	7	4	n/a	n/a	n/a	n/a	n/a
741360	PROB	n/a	LTP268	ltpFR	13	n/a	n/a	n/a	n/a	n/a	n/a	n/a	16	5	6	5	n/a	n/a	n/a	n/a	n/a
742794	STOP	n/a	LTP268	ltpFR	13	n/a	n/a	n/a	n/a	n/a	n/a	n/a	n/a	n/a	n/a	n/a	n/a	n/a	n/a	n/a	n/a
745961	REC_START	n/a	LTP268	ltpFR	13	3	n/a	n/a	n/a	n/a	n/a	n/a	n/a	0	0	0	n/a	n/a	n/a	n/a	n/a
747551	REC_WORD	wordpools/wasnorm_wordpool_less_exclusions.txt	LTP268	ltpFR	13	3	0	GLACIER	638	n/a	n/a	1	n/a	0	0	0	n/a	n/a	n/a	n/a	n/a
748310	REC_WORD	wordpools/wasnorm_wordpool_less_exclusions.txt	LTP268	ltpFR	13	3	0	SLEIGH	1325	n/a	n/a	1	n/a	0	0	0	n/a	n/a	n/a	n/a	n/a
749300	REC_WORD	wordpools/wasnorm_wordpool_less_exclusions.txt	LTP268	ltpFR	13	3	0	CORPORATION	382	n/a	n/a	1	n/a	0	0	0	n/a	n/a	n/a	n/a	n/a
751208	REC_WORD	wordpools/wasnorm_wordpool_less_exclusions.txt	LTP268	ltpFR	13	3	0	IGLOO	734	n/a	n/a	1	n/a	0	0	0	n/a	n/a	n/a	n/a	n/a
751765	REC_WORD	wordpools/wasnorm_wordpool_less_exclusions.txt	LTP268	ltpFR	13	3	0	FREEZER	604	n/a	n/a	0	n/a	0	0	0	n/a	n/a	n/a	n/a	n/a
752869	REC_WORD	wordpools/wasnorm_wordpool_less_exclusions.txt	LTP268	ltpFR	13	3	0	WHEAT	1602	n/a	n/a	0	n/a	0	0	0	n/a	n/a	n/a	n/a	n/a
753879	REC_WORD	wordpools/wasnorm_wordpool_less_exclusions.txt	LTP268	ltpFR	13	3	0	PLATE	1086	n/a	n/a	0	n/a	0	0	0	n/a	n/a	n/a	n/a	n/a
756325	REC_WORD	wordpools/wasnorm_wordpool_less_exclusions.txt	LTP268	ltpFR	13	3	0	TUBA	1515	n/a	n/a	1	n/a	0	0	0	n/a	n/a	n/a	n/a	n/a
757134	REC_WORD	wordpools/wasnorm_wordpool_less_exclusions.txt	LTP268	ltpFR	13	3	0	SAXOPHONE	1240	n/a	n/a	1	n/a	0	0	0	n/a	n/a	n/a	n/a	n/a
760726	REC_WORD	wordpools/wasnorm_wordpool_less_exclusions.txt	LTP268	ltpFR	13	3	0	VAN	1548	n/a	n/a	1	n/a	0	0	0	n/a	n/a	n/a	n/a	n/a
761771	REC_WORD	wordpools/wasnorm_wordpool_less_exclusions.txt	LTP268	ltpFR	13	3	0	UNICORN	1538	n/a	n/a	1	n/a	0	0	0	n/a	n/a	n/a	n/a	n/a
763082	REC_WORD	wordpools/wasnorm_wordpool_less_exclusions.txt	LTP268	ltpFR	13	3	0	WRIST	1626	n/a	n/a	0	n/a	0	0	0	n/a	n/a	n/a	n/a	n/a
764431	REC_WORD	wordpools/wasnorm_wordpool_less_exclusions.txt	LTP268	ltpFR	13	3	0	CHIMNEY	301	n/a	n/a	1	n/a	0	0	0	n/a	n/a	n/a	n/a	n/a
766622	REC_WORD	wordpools/wasnorm_wordpool_less_exclusions.txt	LTP268	ltpFR	13	3	0	NICOTINE	951	n/a	n/a	0	n/a	0	0	0	n/a	n/a	n/a	n/a	n/a
768612	REC_WORD	wordpools/wasnorm_wordpool_less_exclusions.txt	LTP268	ltpFR	13	3	0	KLEENEX	782	n/a	n/a	0	n/a	0	0	0	n/a	n/a	n/a	n/a	n/a
770491	REC_WORD	wordpools/wasnorm_wordpool_less_exclusions.txt	LTP268	ltpFR	13	3	0	KLEENEX	782	n/a	n/a	0	n/a	0	0	0	n/a	n/a	n/a	n/a	n/a
827317	START	n/a	LTP268	ltpFR	13	n/a	n/a	n/a	n/a	n/a	n/a	n/a	n/a	n/a	n/a	n/a	n/a	n/a	n/a	n/a	n/a
828822	PROB	n/a	LTP268	ltpFR	13	n/a	n/a	n/a	n/a	n/a	n/a	n/a	17	9	1	7	n/a	n/a	n/a	n/a	n/a
830445	PROB	n/a	LTP268	ltpFR	13	n/a	n/a	n/a	n/a	n/a	n/a	n/a	16	8	6	2	n/a	n/a	n/a	n/a	n/a
832318	PROB	n/a	LTP268	ltpFR	13	n/a	n/a	n/a	n/a	n/a	n/a	n/a	10	7	1	2	n/a	n/a	n/a	n/a	n/a
833873	PROB	n/a	LTP268	ltpFR	13	n/a	n/a	n/a	n/a	n/a	n/a	n/a	11	5	3	3	n/a	n/a	n/a	n/a	n/a
835428	PROB	n/a	LTP268	ltpFR	13	n/a	n/a	n/a	n/a	n/a	n/a	n/a	20	3	9	8	n/a	n/a	n/a	n/a	n/a
837991	PROB	n/a	LTP268	ltpFR	13	n/a	n/a	n/a	n/a	n/a	n/a	n/a	20	7	5	8	n/a	n/a	n/a	n/a	n/a
843317	STOP	n/a	LTP268	ltpFR	13	n/a	n/a	n/a	n/a	n/a	n/a	n/a	n/a	n/a	n/a	n/a	n/a	n/a	n/a	n/a	n/a
844231	WORD	wordpools/wasnorm_wordpool_less_exclusions.txt	LTP268	ltpFR	13	4	1	DESIGNER	451	n/a	n/a	1	n/a	0	0	0	0.57763671875	0.412841796875	1	lower	amplitud.ttf
847243	START	n/a	LTP268	ltpFR	13	n/a	n/a	n/a	n/a	n/a	n/a	n/a	n/a	n/a	n/a	n/a	n/a	n/a	n/a	n/a	n/a
848429	PROB	n/a	LTP268	ltpFR	13	n/a	n/a	n/a	n/a	n/a	n/a	n/a	22	7	9	6	n/a	n/a	n/a	n/a	n/a
850437	PROB	n/a	LTP268	ltpFR	13	n/a	n/a	n/a	n/a	n/a	n/a	n/a	17	5	6	6	n/a	n/a	n/a	n/a	n/a
853630	PROB	n/a	LTP268	ltpFR	13	n/a	n/a	n/a	n/a	n/a	n/a	n/a	14	2	4	8	n/a	n/a	n/a	n/a	n/a
856176	PROB	n/a	LTP268	ltpFR	13	n/a	n/a	n/a	n/a	n/a	n/a	n/a	16	5	3	8	n/a	n/a	n/a	n/a	n/a
858031	PROB	n/a	LTP268	ltpFR	13	n/a	n/a	n/a	n/a	n/a	n/a	n/a	13	1	7	4	n/a	n/a	n/a	n/a	n/a
863243	STOP	n/a	LTP268	ltpFR	13	n/a	n/a	n/a	n/a	n/a	n/a	n/a	n/a	n/a	n/a	n/a	n/a	n/a	n/a	n/a	n/a
864206	WORD	wordpools/wasnorm_wordpool_less_exclusions.txt	LTP268	ltpFR	13	4	1	WAGON	1578	n/a	n/a	0	n/a	0	0	0	0.57763671875	0.412841796875	1	lower	amplitud.ttf
867218	START	n/a	LTP268	ltpFR	13	n/a	n/a	n/a	n/a	n/a	n/a	n/a	n/a	n/a	n/a	n/a	n/a	n/a	n/a	n/a	n/a
868322	PROB	n/a	LTP268	ltpFR	13	n/a	n/a	n/a	n/a	n/a	n/a	n/a	11	3	7	1	n/a	n/a	n/a	n/a	n/a
869825	PROB	n/a	LTP268	ltpFR	13	n/a	n/a	n/a	n/a	n/a	n/a	n/a	16	6	3	7	n/a	n/a	n/a	n/a	n/a
871266	PROB	n/a	LTP268	ltpFR	13	n/a	n/a	n/a	n/a	n/a	n/a	n/a	19	9	5	5	n/a	n/a	n/a	n/a	n/a
875129	PROB	n/a	LTP268	ltpFR	13	n/a	n/a	n/a	n/a	n/a	n/a	n/a	19	6	9	4	n/a	n/a	n/a	n/a	n/a
877004	PROB	n/a	LTP268	ltpFR	13	n/a	n/a	n/a	n/a	n/a	n/a	n/a	17	6	6	5	n/a	n/a	n/a	n/a	n/a
879729	PROB	n/a	LTP268	ltpFR	13	n/a	n/a	n/a	n/a	n/a	n/a	n/a	19	9	8	2	n/a	n/a	n/a	n/a	n/a
881153	PROB	n/a	LTP268	ltpFR	13	n/a	n/a	n/a	n/a	n/a	n/a	n/a	12	2	4	6	n/a	n/a	n/a	n/a	n/a
883115	STOP	n/a	LTP268	ltpFR	13	n/a	n/a	n/a	n/a	n/a	n/a	n/a	n/a	n/a	n/a	n/a	n/a	n/a	n/a	n/a	n/a
884232	WORD	wordpools/wasnorm_wordpool_less_exclusions.txt	LTP268	ltpFR	13	4	1	COUGAR	387	n/a	n/a	1	n/a	0	0	0	0.57763671875	0.412841796875	1	lower	amplitud.ttf
887244	START	n/a	LTP268	ltpFR	13	n/a	n/a	n/a	n/a	n/a	n/a	n/a	n/a	n/a	n/a	n/a	n/a	n/a	n/a	n/a	n/a
888263	PROB	n/a	LTP268	ltpFR	13	n/a	n/a	n/a	n/a	n/a	n/a	n/a	12	9	2	1	n/a	n/a	n/a	n/a	n/a
889870	PROB	n/a	LTP268	ltpFR	13	n/a	n/a	n/a	n/a	n/a	n/a	n/a	13	1	6	6	n/a	n/a	n/a	n/a	n/a
891491	PROB	n/a	LTP268	ltpFR	13	n/a	n/a	n/a	n/a	n/a	n/a	n/a	9	4	3	2	n/a	n/a	n/a	n/a	n/a
894236	PROB	n/a	LTP268	ltpFR	13	n/a	n/a	n/a	n/a	n/a	n/a	n/a	14	7	1	6	n/a	n/a	n/a	n/a	n/a
896477	PROB	n/a	LTP268	ltpFR	13	n/a	n/a	n/a	n/a	n/a	n/a	n/a	11	7	1	3	n/a	n/a	n/a	n/a	n/a
897933	PROB	n/a	LTP268	ltpFR	13	n/a	n/a	n/a	n/a	n/a	n/a	n/a	18	7	6	5	n/a	n/a	n/a	n/a	n/a
900423	PROB	n/a	LTP268	ltpFR	13	n/a	n/a	n/a	n/a	n/a	n/a	n/a	14	8	5	1	n/a	n/a	n/a	n/a	n/a
902562	STOP	n/a	LTP268	ltpFR	13	n/a	n/a	n/a	n/a	n/a	n/a	n/a	n/a	n/a	n/a	n/a	n/a	n/a	n/a	n/a	n/a
904090	WORD	wordpools/wasnorm_wordpool_less_exclusions.txt	LTP268	ltpFR	13	4	1	JAR	750	n/a	n/a	0	n/a	0	0	0	0.57763671875	0.412841796875	1	lower	amplitud.ttf
907102	START	n/a	LTP268	ltpFR	13	n/a	n/a	n/a	n/a	n/a	n/a	n/a	n/a	n/a	n/a	n/a	n/a	n/a	n/a	n/a	n/a
908036	PROB	n/a	LTP268	ltpFR	13	n/a	n/a	n/a	n/a	n/a	n/a	n/a	7	1	4	2	n/a	n/a	n/a	n/a	n/a
910061	PROB	n/a	LTP268	ltpFR	13	n/a	n/a	n/a	n/a	n/a	n/a	n/a	10	8	1	1	n/a	n/a	n/a	n/a	n/a
911416	PROB	n/a	LTP268	ltpFR	13	n/a	n/a	n/a	n/a	n/a	n/a	n/a	13	4	7	2	n/a	n/a	n/a	n/a	n/a
913389	PROB	n/a	LTP268	ltpFR	13	n/a	n/a	n/a	n/a	n/a	n/a	n/a	13	7	4	2	n/a	n/a	n/a	n/a	n/a
916202	PROB	n/a	LTP268	ltpFR	13	n/a	n/a	n/a	n/a	n/a	n/a	n/a	17	3	7	7	n/a	n/a	n/a	n/a	n/a
918176	PROB	n/a	LTP268	ltpFR	13	n/a	n/a	n/a	n/a	n/a	n/a	n/a	24	7	8	9	n/a	n/a	n/a	n/a	n/a
920318	PROB	n/a	LTP268	ltpFR	13	n/a	n/a	n/a	n/a	n/a	n/a	n/a	18	8	5	5	n/a	n/a	n/a	n/a	n/a
921610	STOP	n/a	LTP268	ltpFR	13	n/a	n/a	n/a	n/a	n/a	n/a	n/a	n/a	n/a	n/a	n/a	n/a	n/a	n/a	n/a	n/a
924165	WORD	wordpools/wasnorm_wordpool_less_exclusions.txt	LTP268	ltpFR	13	4	1	LILY	821	n/a	n/a	0	n/a	0	0	0	0.57763671875	0.412841796875	1	lower	amplitud.ttf
927178	START	n/a	LTP268	ltpFR	13	n/a	n/a	n/a	n/a	n/a	n/a	n/a	n/a	n/a	n/a	n/a	n/a	n/a	n/a	n/a	n/a
928281	PROB	n/a	LTP268	ltpFR	13	n/a	n/a	n/a	n/a	n/a	n/a	n/a	19	9	4	6	n/a	n/a	n/a	n/a	n/a
929987	PROB	n/a	LTP268	ltpFR	13	n/a	n/a	n/a	n/a	n/a	n/a	n/a	24	8	9	7	n/a	n/a	n/a	n/a	n/a
932999	PROB	n/a	LTP268	ltpFR	13	n/a	n/a	n/a	n/a	n/a	n/a	n/a	15	6	1	8	n/a	n/a	n/a	n/a	n/a
934671	PROB	n/a	LTP268	ltpFR	13	n/a	n/a	n/a	n/a	n/a	n/a	n/a	15	6	1	8	n/a	n/a	n/a	n/a	n/a
935741	PROB	n/a	LTP268	ltpFR	13	n/a	n/a	n/a	n/a	n/a	n/a	n/a	24	7	8	9	n/a	n/a	n/a	n/a	n/a
937481	PROB	n/a	LTP268	ltpFR	13	n/a	n/a	n/a	n/a	n/a	n/a	n/a	16	7	8	1	n/a	n/a	n/a	n/a	n/a
939923	PROB	n/a	LTP268	ltpFR	13	n/a	n/a	n/a	n/a	n/a	n/a	n/a	23	8	6	9	n/a	n/a	n/a	n/a	n/a
942091	STOP	n/a	LTP268	ltpFR	13	n/a	n/a	n/a	n/a	n/a	n/a	n/a	n/a	n/a	n/a	n/a	n/a	n/a	n/a	n/a	n/a
944308	WORD	wordpools/wasnorm_wordpool_less_exclusions.txt	LTP268	ltpFR	13	4	1	PALM	1007	n/a	n/a	0	n/a	0	0	0	0.57763671875	0.412841796875	1	lower	amplitud.ttf
947320	START	n/a	LTP268	ltpFR	13	n/a	n/a	n/a	n/a	n/a	n/a	n/a	n/a	n/a	n/a	n/a	n/a	n/a	n/a	n/a	n/a
948506	PROB	n/a	LTP268	ltpFR	13	n/a	n/a	n/a	n/a	n/a	n/a	n/a	14	1	8	5	n/a	n/a	n/a	n/a	n/a
950397	PROB	n/a	LTP268	ltpFR	13	n/a	n/a	n/a	n/a	n/a	n/a	n/a	18	3	8	7	n/a	n/a	n/a	n/a	n/a
952188	PROB	n/a	LTP268	ltpFR	13	n/a	n/a	n/a	n/a	n/a	n/a	n/a	20	8	4	8	n/a	n/a	n/a	n/a	n/a
953943	PROB	n/a	LTP268	ltpFR	13	n/a	n/a	n/a	n/a	n/a	n/a	n/a	21	5	7	9	n/a	n/a	n/a	n/a	n/a
956403	PROB	n/a	LTP268	ltpFR	13	n/a	n/a	n/a	n/a	n/a	n/a	n/a	13	3	5	5	n/a	n/a	n/a	n/a	n/a
963320	STOP	n/a	LTP268	ltpFR	13	n/a	n/a	n/a	n/a	n/a	n/a	n/a	n/a	n/a	n/a	n/a	n/a	n/a	n/a	n/a	n/a
964516	WORD	wordpools/wasnorm_wordpool_less_exclusions.txt	LTP268	ltpFR	13	4	1	SHIP	1286	n/a	n/a	0	n/a	0	0	0	0.57763671875	0.412841796875	1	lower	amplitud.ttf
967529	START	n/a	LTP268	ltpFR	13	n/a	n/a	n/a	n/a	n/a	n/a	n/a	n/a	n/a	n/a	n/a	n/a	n/a	n/a	n/a	n/a
968532	PROB	n/a	LTP268	ltpFR	13	n/a	n/a	n/a	n/a	n/a	n/a	n/a	14	9	1	4	n/a	n/a	n/a	n/a	n/a
969903	PROB	n/a	LTP268	ltpFR	13	n/a	n/a	n/a	n/a	n/a	n/a	n/a	15	5	1	9	n/a	n/a	n/a	n/a	n/a
971525	PROB	n/a	LTP268	ltpFR	13	n/a	n/a	n/a	n/a	n/a	n/a	n/a	16	8	6	2	n/a	n/a	n/a	n/a	n/a
973267	PROB	n/a	LTP268	ltpFR	13	n/a	n/a	n/a	n/a	n/a	n/a	n/a	22	6	8	8	n/a	n/a	n/a	n/a	n/a
975961	PROB	n/a	LTP268	ltpFR	13	n/a	n/a	n/a	n/a	n/a	n/a	n/a	9	3	3	3	n/a	n/a	n/a	n/a	n/a
977182	PROB	n/a	LTP268	ltpFR	13	n/a	n/a	n/a	n/a	n/a	n/a	n/a	16	9	1	6	n/a	n/a	n/a	n/a	n/a
978720	PROB	n/a	LTP268	ltpFR	13	n/a	n/a	n/a	n/a	n/a	n/a	n/a	19	7	5	7	n/a	n/a	n/a	n/a	n/a
980560	PROB	n/a	LTP268	ltpFR	13	n/a	n/a	n/a	n/a	n/a	n/a	n/a	10	2	5	3	n/a	n/a	n/a	n/a	n/a
982019	STOP	n/a	LTP268	ltpFR	13	n/a	n/a	n/a	n/a	n/a	n/a	n/a	n/a	n/a	n/a	n/a	n/a	n/a	n/a	n/a	n/a
984559	WORD	wordpools/wasnorm_wordpool_less_exclusions.txt	LTP268	ltpFR	13	4	1	SUSPECT	1415	n/a	n/a	1	n/a	0	0	0	0.57763671875	0.412841796875	1	lower	amplitud.ttf
987571	START	n/a	LTP268	ltpFR	13	n/a	n/a	n/a	n/a	n/a	n/a	n/a	n/a	n/a	n/a	n/a	n/a	n/a	n/a	n/a	n/a
988639	PROB	n/a	LTP268	ltpFR	13	n/a	n/a	n/a	n/a	n/a	n/a	n/a	17	4	7	6	n/a	n/a	n/a	n/a	n/a
991099	PROB	n/a	LTP268	ltpFR	13	n/a	n/a	n/a	n/a	n/a	n/a	n/a	25	9	8	8	n/a	n/a	n/a	n/a	n/a
992990	PROB	n/a	LTP268	ltpFR	13	n/a	n/a	n/a	n/a	n/a	n/a	n/a	10	2	7	1	n/a	n/a	n/a	n/a	n/a
994394	PROB	n/a	LTP268	ltpFR	13	n/a	n/a	n/a	n/a	n/a	n/a	n/a	18	8	1	9	n/a	n/a	n/a	n/a	n/a
996252	PROB	n/a	LTP268	ltpFR	13	n/a	n/a	n/a	n/a	n/a	n/a	n/a	16	8	4	4	n/a	n/a	n/a	n/a	n/a
998076	PROB	n/a	LTP268	ltpFR	13	n/a	n/a	n/a	n/a	n/a	n/a	n/a	17	6	4	7	n/a	n/a	n/a	n/a	n/a
1000066	PROB	n/a	LTP268	ltpFR	13	n/a	n/a	n/a	n/a	n/a	n/a	n/a	14	2	3	9	n/a	n/a	n/a	n/a	n/a
1001656	PROB	n/a	LTP268	ltpFR	13	n/a	n/a	n/a	n/a	n/a	n/a	n/a	15	5	3	7	n/a	n/a	n/a	n/a	n/a
1003003	STOP	n/a	LTP268	ltpFR	13	n/a	n/a	n/a	n/a	n/a	n/a	n/a	n/a	n/a	n/a	n/a	n/a	n/a	n/a	n/a	n/a
1004668	WORD	wordpools/wasnorm_wordpool_less_exclusions.txt	LTP268	ltpFR	13	4	1	CROOK	412	n/a	n/a	1	n/a	0	0	0	0.57763671875	0.412841796875	1	lower	amplitud.ttf
1007680	START	n/a	LTP268	ltpFR	13	n/a	n/a	n/a	n/a	n/a	n/a	n/a	n/a	n/a	n/a	n/a	n/a	n/a	n/a	n/a	n/a
1008817	PROB	n/a	LTP268	ltpFR	13	n/a	n/a	n/a	n/a	n/a	n/a	n/a	17	7	5	5	n/a	n/a	n/a	n/a	n/a
1010640	PROB	n/a	LTP268	ltpFR	13	n/a	n/a	n/a	n/a	n/a	n/a	n/a	15	8	4	3	n/a	n/a	n/a	n/a	n/a
1012849	PROB	n/a	LTP268	ltpFR	13	n/a	n/a	n/a	n/a	n/a	n/a	n/a	11	2	7	2	n/a	n/a	n/a	n/a	n/a
1014121	PROB	n/a	LTP268	ltpFR	13	n/a	n/a	n/a	n/a	n/a	n/a	n/a	15	5	3	7	n/a	n/a	n/a	n/a	n/a
1015524	PROB	n/a	LTP268	ltpFR	13	n/a	n/a	n/a	n/a	n/a	n/a	n/a	12	3	7	2	n/a	n/a	n/a	n/a	n/a
1017149	PROB	n/a	LTP268	ltpFR	13	n/a	n/a	n/a	n/a	n/a	n/a	n/a	18	3	9	6	n/a	n/a	n/a	n/a	n/a
1019624	PROB	n/a	LTP268	ltpFR	13	n/a	n/a	n/a	n/a	n/a	n/a	n/a	17	8	3	6	n/a	n/a	n/a	n/a	n/a
1022562	STOP	n/a	LTP268	ltpFR	13	n/a	n/a	n/a	n/a	n/a	n/a	n/a	n/a	n/a	n/a	n/a	n/a	n/a	n/a	n/a	n/a
1024526	WORD	wordpools/wasnorm_wordpool_less_exclusions.txt	LTP268	ltpFR	13	4	1	LEG	809	n/a	n/a	1	n/a	0	0	0	0.57763671875	0.412841796875	1	lower	amplitud.ttf
1027538	START	n/a	LTP268	ltpFR	13	n/a	n/a	n/a	n/a	n/a	n/a	n/a	n/a	n/a	n/a	n/a	n/a	n/a	n/a	n/a	n/a
1028608	PROB	n/a	LTP268	ltpFR	13	n/a	n/a	n/a	n/a	n/a	n/a	n/a	15	2	5	8	n/a	n/a	n/a	n/a	n/a
1031720	PROB	n/a	LTP268	ltpFR	13	n/a	n/a	n/a	n/a	n/a	n/a	n/a	9	6	2	1	n/a	n/a	n/a	n/a	n/a
1033277	PROB	n/a	LTP268	ltpFR	13	n/a	n/a	n/a	n/a	n/a	n/a	n/a	17	8	5	4	n/a	n/a	n/a	n/a	n/a
1036503	PROB	n/a	LTP268	ltpFR	13	n/a	n/a	n/a	n/a	n/a	n/a	n/a	8	5	1	2	n/a	n/a	n/a	n/a	n/a
1038128	PROB	n/a	LTP268	ltpFR	13	n/a	n/a	n/a	n/a	n/a	n/a	n/a	13	8	2	3	n/a	n/a	n/a	n/a	n/a
1043538	STOP	n/a	LTP268	ltpFR	13	n/a	n/a	n/a	n/a	n/a	n/a	n/a	n/a	n/a	n/a	n/a	n/a	n/a	n/a	n/a	n/a
1044468	WORD	wordpools/wasnorm_wordpool_less_exclusions.txt	LTP268	ltpFR	13	4	1	DISH	474	n/a	n/a	0	n/a	0	0	0	0.57763671875	0.412841796875	1	lower	amplitud.ttf
1047480	START	n/a	LTP268	ltpFR	13	n/a	n/a	n/a	n/a	n/a	n/a	n/a	n/a	n/a	n/a	n/a	n/a	n/a	n/a	n/a	n/a
1048483	PROB	n/a	LTP268	ltpFR	13	n/a	n/a	n/a	n/a	n/a	n/a	n/a	12	2	3	7	n/a	n/a	n/a	n/a	n/a
1050021	PROB	n/a	LTP268	ltpFR	13	n/a	n/a	n/a	n/a	n/a	n/a	n/a	10	7	1	2	n/a	n/a	n/a	n/a	n/a
1051261	PROB	n/a	LTP268	ltpFR	13	n/a	n/a	n/a	n/a	n/a	n/a	n/a	14	4	5	5	n/a	n/a	n/a	n/a	n/a
1053168	PROB	n/a	LTP268	ltpFR	13	n/a	n/a	n/a	n/a	n/a	n/a	n/a	18	8	3	6	n/a	n/a	n/a	n/a	n/a
1055107	PROB	n/a	LTP268	ltpFR	13	n/a	n/a	n/a	n/a	n/a	n/a	n/a	13	5	3	5	n/a	n/a	n/a	n/a	n/a
1057400	PROB	n/a	LTP268	ltpFR	13	n/a	n/a	n/a	n/a	n/a	n/a	n/a	12	1	9	2	n/a	n/a	n/a	n/a	n/a
1060076	PROB	n/a	LTP268	ltpFR	13	n/a	n/a	n/a	n/a	n/a	n/a	n/a	15	2	9	4	n/a	n/a	n/a	n/a	n/a
1063291	STOP	n/a	LTP268	ltpFR	13	n/a	n/a	n/a	n/a	n/a	n/a	n/a	n/a	n/a	n/a	n/a	n/a	n/a	n/a	n/a	n/a
1064493	WORD	wordpools/wasnorm_wordpool_less_exclusions.txt	LTP268	ltpFR	13	4	1	RECORD	1176	n/a	n/a	0	n/a	0	0	0	0.57763671875	0.412841796875	1	lower	amplitud.ttf
1067505	START	n/a	LTP268	ltpFR	13	n/a	n/a	n/a	n/a	n/a	n/a	n/a	n/a	n/a	n/a	n/a	n/a	n/a	n/a	n/a	n/a
1068592	PROB	n/a	LTP268	ltpFR	13	n/a	n/a	n/a	n/a	n/a	n/a	n/a	9	4	4	1	n/a	n/a	n/a	n/a	n/a
1070483	PROB	n/a	LTP268	ltpFR	13	n/a	n/a	n/a	n/a	n/a	n/a	n/a	9	3	2	4	n/a	n/a	n/a	n/a	n/a
1072641	PROB	n/a	LTP268	ltpFR	13	n/a	n/a	n/a	n/a	n/a	n/a	n/a	22	6	7	9	n/a	n/a	n/a	n/a	n/a
1076438	PROB	n/a	LTP268	ltpFR	13	n/a	n/a	n/a	n/a	n/a	n/a	n/a	14	7	4	3	n/a	n/a	n/a	n/a	n/a
1078461	PROB	n/a	LTP268	ltpFR	13	n/a	n/a	n/a	n/a	n/a	n/a	n/a	21	9	5	7	n/a	n/a	n/a	n/a	n/a
1083505	STOP	n/a	LTP268	ltpFR	13	n/a	n/a	n/a	n/a	n/a	n/a	n/a	n/a	n/a	n/a	n/a	n/a	n/a	n/a	n/a	n/a
1084519	WORD	wordpools/wasnorm_wordpool_less_exclusions.txt	LTP268	ltpFR	13	4	1	OAR	966	n/a	n/a	0	n/a	0	0	0	0.57763671875	0.412841796875	1	lower	amplitud.ttf
1087531	START	n/a	LTP268	ltpFR	13	n/a	n/a	n/a	n/a	n/a	n/a	n/a	n/a	n/a	n/a	n/a	n/a	n/a	n/a	n/a	n/a
1088534	PROB	n/a	LTP268	ltpFR	13	n/a	n/a	n/a	n/a	n/a	n/a	n/a	21	8	6	7	n/a	n/a	n/a	n/a	n/a
1090927	PROB	n/a	LTP268	ltpFR	13	n/a	n/a	n/a	n/a	n/a	n/a	n/a	14	7	5	2	n/a	n/a	n/a	n/a	n/a
1093269	PROB	n/a	LTP268	ltpFR	13	n/a	n/a	n/a	n/a	n/a	n/a	n/a	19	4	8	7	n/a	n/a	n/a	n/a	n/a
1095375	PROB	n/a	LTP268	ltpFR	13	n/a	n/a	n/a	n/a	n/a	n/a	n/a	15	5	1	9	n/a	n/a	n/a	n/a	n/a
1097067	PROB	n/a	LTP268	ltpFR	13	n/a	n/a	n/a	n/a	n/a	n/a	n/a	11	5	4	2	n/a	n/a	n/a	n/a	n/a
1098587	PROB	n/a	LTP268	ltpFR	13	n/a	n/a	n/a	n/a	n/a	n/a	n/a	11	4	6	1	n/a	n/a	n/a	n/a	n/a
1099826	PROB	n/a	LTP268	ltpFR	13	n/a	n/a	n/a	n/a	n/a	n/a	n/a	18	7	9	2	n/a	n/a	n/a	n/a	n/a
1103531	STOP	n/a	LTP268	ltpFR	13	n/a	n/a	n/a	n/a	n/a	n/a	n/a	n/a	n/a	n/a	n/a	n/a	n/a	n/a	n/a	n/a
1104645	WORD	wordpools/wasnorm_wordpool_less_exclusions.txt	LTP268	ltpFR	13	4	1	LID	817	n/a	n/a	0	n/a	0	0	0	0.57763671875	0.412841796875	1	lower	amplitud.ttf
1107656	START	n/a	LTP268	ltpFR	13	n/a	n/a	n/a	n/a	n/a	n/a	n/a	n/a	n/a	n/a	n/a	n/a	n/a	n/a	n/a	n/a
1108660	PROB	n/a	LTP268	ltpFR	13	n/a	n/a	n/a	n/a	n/a	n/a	n/a	22	9	6	7	n/a	n/a	n/a	n/a	n/a
1111653	PROB	n/a	LTP268	ltpFR	13	n/a	n/a	n/a	n/a	n/a	n/a	n/a	11	2	1	8	n/a	n/a	n/a	n/a	n/a
1113211	PROB	n/a	LTP268	ltpFR	13	n/a	n/a	n/a	n/a	n/a	n/a	n/a	20	7	6	7	n/a	n/a	n/a	n/a	n/a
1115353	PROB	n/a	LTP268	ltpFR	13	n/a	n/a	n/a	n/a	n/a	n/a	n/a	18	5	9	4	n/a	n/a	n/a	n/a	n/a
1117441	PROB	n/a	LTP268	ltpFR	13	n/a	n/a	n/a	n/a	n/a	n/a	n/a	15	8	4	3	n/a	n/a	n/a	n/a	n/a
1119316	PROB	n/a	LTP268	ltpFR	13	n/a	n/a	n/a	n/a	n/a	n/a	n/a	14	3	4	7	n/a	n/a	n/a	n/a	n/a
1121141	PROB	n/a	LTP268	ltpFR	13	n/a	n/a	n/a	n/a	n/a	n/a	n/a	19	6	4	9	n/a	n/a	n/a	n/a	n/a
1122867	STOP	n/a	LTP268	ltpFR	13	n/a	n/a	n/a	n/a	n/a	n/a	n/a	n/a	n/a	n/a	n/a	n/a	n/a	n/a	n/a	n/a
1124704	WORD	wordpools/wasnorm_wordpool_less_exclusions.txt	LTP268	ltpFR	13	4	1	DEPARTMENT	449	n/a	n/a	0	n/a	0	0	0	0.57763671875	0.412841796875	1	lower	amplitud.ttf
1127716	START	n/a	LTP268	ltpFR	13	n/a	n/a	n/a	n/a	n/a	n/a	n/a	n/a	n/a	n/a	n/a	n/a	n/a	n/a	n/a	n/a
1128735	PROB	n/a	LTP268	ltpFR	13	n/a	n/a	n/a	n/a	n/a	n/a	n/a	16	4	6	6	n/a	n/a	n/a	n/a	n/a
1130425	PROB	n/a	LTP268	ltpFR	13	n/a	n/a	n/a	n/a	n/a	n/a	n/a	21	8	8	5	n/a	n/a	n/a	n/a	n/a
1132500	PROB	n/a	LTP268	ltpFR	13	n/a	n/a	n/a	n/a	n/a	n/a	n/a	25	9	8	8	n/a	n/a	n/a	n/a	n/a
1134539	PROB	n/a	LTP268	ltpFR	13	n/a	n/a	n/a	n/a	n/a	n/a	n/a	17	2	9	6	n/a	n/a	n/a	n/a	n/a
1138673	PROB	n/a	LTP268	ltpFR	13	n/a	n/a	n/a	n/a	n/a	n/a	n/a	12	3	6	3	n/a	n/a	n/a	n/a	n/a
1140280	PROB	n/a	LTP268	ltpFR	13	n/a	n/a	n/a	n/a	n/a	n/a	n/a	14	2	3	9	n/a	n/a	n/a	n/a	n/a
1143698	STOP	n/a	LTP268	ltpFR	13	n/a	n/a	n/a	n/a	n/a	n/a	n/a	n/a	n/a	n/a	n/a	n/a	n/a	n/a	n/a	n/a
1144879	WORD	wordpools/wasnorm_wordpool_less_exclusions.txt	LTP268	ltpFR	13	4	1	STORE	1387	n/a	n/a	0	n/a	0	0	0	0.57763671875	0.412841796875	1	lower	amplitud.ttf
1147892	START	n/a	LTP268	ltpFR	13	n/a	n/a	n/a	n/a	n/a	n/a	n/a	n/a	n/a	n/a	n/a	n/a	n/a	n/a	n/a	n/a
1149046	PROB	n/a	LTP268	ltpFR	13	n/a	n/a	n/a	n/a	n/a	n/a	n/a	16	4	9	3	n/a	n/a	n/a	n/a	n/a
1150802	PROB	n/a	LTP268	ltpFR	13	n/a	n/a	n/a	n/a	n/a	n/a	n/a	14	1	6	7	n/a	n/a	n/a	n/a	n/a
1152325	PROB	n/a	LTP268	ltpFR	13	n/a	n/a	n/a	n/a	n/a	n/a	n/a	20	7	9	4	n/a	n/a	n/a	n/a	n/a
1154732	PROB	n/a	LTP268	ltpFR	13	n/a	n/a	n/a	n/a	n/a	n/a	n/a	23	6	9	8	n/a	n/a	n/a	n/a	n/a
1158481	PROB	n/a	LTP268	ltpFR	13	n/a	n/a	n/a	n/a	n/a	n/a	n/a	23	7	8	8	n/a	n/a	n/a	n/a	n/a
1160289	PROB	n/a	LTP268	ltpFR	13	n/a	n/a	n/a	n/a	n/a	n/a	n/a	5	1	3	1	n/a	n/a	n/a	n/a	n/a
1161758	PROB	n/a	LTP268	ltpFR	13	n/a	n/a	n/a	n/a	n/a	n/a	n/a	14	3	8	3	n/a	n/a	n/a	n/a	n/a
1163698	STOP	n/a	LTP268	ltpFR	13	n/a	n/a	n/a	n/a	n/a	n/a	n/a	n/a	n/a	n/a	n/a	n/a	n/a	n/a	n/a	n/a
1165726	REC_START	n/a	LTP268	ltpFR	13	4	n/a	n/a	n/a	n/a	n/a	n/a	n/a	0	0	0	n/a	n/a	n/a	n/a	n/a
1167786	REC_WORD	wordpools/wasnorm_wordpool_less_exclusions.txt	LTP268	ltpFR	13	4	1	DEPARTMENT	449	n/a	n/a	0	n/a	0	0	0	n/a	n/a	n/a	n/a	n/a
1168714	REC_WORD	wordpools/wasnorm_wordpool_less_exclusions.txt	LTP268	ltpFR	13	4	1	STORE	1387	n/a	n/a	0	n/a	0	0	0	n/a	n/a	n/a	n/a	n/a
1169906	REC_WORD	wordpools/wasnorm_wordpool_less_exclusions.txt	LTP268	ltpFR	13	4	1	LID	817	n/a	n/a	0	n/a	0	0	0	n/a	n/a	n/a	n/a	n/a
1170873	REC_WORD	wordpools/wasnorm_wordpool_less_exclusions.txt	LTP268	ltpFR	13	4	1	JAR	750	n/a	n/a	0	n/a	0	0	0	n/a	n/a	n/a	n/a	n/a
1171924	REC_WORD	wordpools/wasnorm_wordpool_less_exclusions.txt	LTP268	ltpFR	13	4	1	LILY	821	n/a	n/a	0	n/a	0	0	0	n/a	n/a	n/a	n/a	n/a
1173166	REC_WORD	wordpools/wasnorm_wordpool_less_exclusions.txt	LTP268	ltpFR	13	4	1	DESIGNER	451	n/a	n/a	1	n/a	0	0	0	n/a	n/a	n/a	n/a	n/a
1174233	REC_WORD	wordpools/wasnorm_wordpool_less_exclusions.txt	LTP268	ltpFR	13	4	1	WAGON	1578	n/a	n/a	0	n/a	0	0	0	n/a	n/a	n/a	n/a	n/a
1176726	REC_WORD	wordpools/wasnorm_wordpool_less_exclusions.txt	LTP268	ltpFR	13	4	1	COUGAR	387	n/a	n/a	1	n/a	0	0	0	n/a	n/a	n/a	n/a	n/a
1188409	REC_WORD	wordpools/wasnorm_wordpool_less_exclusions.txt	LTP268	ltpFR	13	4	1	PALM	1007	n/a	n/a	0	n/a	0	0	0	n/a	n/a	n/a	n/a	n/a
1248554	WORD	wordpools/wasnorm_wordpool_less_exclusions.txt	LTP268	ltpFR	13	5	1	CLOVE	329	n/a	n/a	0	n/a	0	0	0	0.57763671875	0.412841796875	1	lower	amplitud.ttf
1252652	WORD	wordpools/wasnorm_wordpool_less_exclusions.txt	LTP268	ltpFR	13	5	1	ASHTRAY	45	n/a	n/a	0	n/a	0	0	0	0.57763671875	0.412841796875	1	lower	amplitud.ttf
1256751	WORD	wordpools/wasnorm_wordpool_less_exclusions.txt	LTP268	ltpFR	13	5	0	VIOLIN	1571	n/a	n/a	0	n/a	0	0	0	0.422607421875	0.5869140625	0	upper	zerothre.ttf
1260951	WORD	wordpools/wasnorm_wordpool_less_exclusions.txt	LTP268	ltpFR	13	5	0	ORCHESTRA	981	n/a	n/a	1	n/a	0	0	0	0.422607421875	0.5869140625	0	upper	zerothre.ttf
1265050	WORD	wordpools/wasnorm_wordpool_less_exclusions.txt	LTP268	ltpFR	13	5	0	ALLIGATOR	16	n/a	n/a	1	n/a	0	0	0	0.422607421875	0.5869140625	0	upper	zerothre.ttf
1269199	WORD	wordpools/wasnorm_wordpool_less_exclusions.txt	LTP268	ltpFR	13	5	0	PASSENGER	1020	n/a	n/a	1	n/a	0	0	0	0.422607421875	0.5869140625	0	upper	zerothre.ttf
1273097	WORD	wordpools/wasnorm_wordpool_less_exclusions.txt	LTP268	ltpFR	13	5	0	FARMER	553	n/a	n/a	n/a	n/a	0	0	0	0.422607421875	0.5869140625	0	upper	zerothre.ttf
1276142	SLOW_MSG	n/a	LTP268	ltpFR	13	5	n/a	n/a	n/a	n/a	n/a	n/a	n/a	0	0	0	n/a	n/a	n/a	n/a	n/a
1278517	WORD	wordpools/wasnorm_wordpool_less_exclusions.txt	LTP268	ltpFR	13	5	0	COYOTE	396	n/a	n/a	1	n/a	0	0	0	0.422607421875	0.5869140625	0	upper	zerothre.ttf
1282482	WORD	wordpools/wasnorm_wordpool_less_exclusions.txt	LTP268	ltpFR	13	5	1	CAPITAL	238	n/a	n/a	0	n/a	0	0	0	0.57763671875	0.412841796875	1	lower	amplitud.ttf
1286480	WORD	wordpools/wasnorm_wordpool_less_exclusions.txt	LTP268	ltpFR	13	5	1	HORIZON	717	n/a	n/a	0	n/a	0	0	0	0.57763671875	0.412841796875	1	lower	amplitud.ttf
1290428	WORD	wordpools/wasnorm_wordpool_less_exclusions.txt	LTP268	ltpFR	13	5	1	FROST	609	n/a	n/a	0	n/a	0	0	0	0.57763671875	0.412841796875	1	lower	amplitud.ttf
1294510	WORD	wordpools/wasnorm_wordpool_less_exclusions.txt	LTP268	ltpFR	13	5	1	SWEATER	1419	n/a	n/a	0	n/a	0	0	0	0.57763671875	0.412841796875	1	lower	amplitud.ttf
1298693	WORD	wordpools/wasnorm_wordpool_less_exclusions.txt	LTP268	ltpFR	13	5	1	SUNRISE	1407	n/a	n/a	0	n/a	0	0	0	0.57763671875	0.412841796875	1	lower	amplitud.ttf
1302791	WORD	wordpools/wasnorm_wordpool_less_exclusions.txt	LTP268	ltpFR	13	5	1	VEAL	1551	n/a	n/a	0	n/a	0	0	0	0.57763671875	0.412841796875	1	lower	amplitud.ttf
1306623	WORD	wordpools/wasnorm_wordpool_less_exclusions.txt	LTP268	ltpFR	13	5	0	BUFFALO	186	n/a	n/a	1	n/a	0	0	0	0.422607421875	0.5869140625	0	upper	zerothre.ttf
1310588	WORD	wordpools/wasnorm_wordpool_less_exclusions.txt	LTP268	ltpFR	13	5	0	FEATHER	557	n/a	n/a	0	n/a	0	0	0	0.422607421875	0.5869140625	0	upper	zerothre.ttf
1313599	START	n/a	LTP268	ltpFR	13	n/a	n/a	n/a	n/a	n/a	n/a	n/a	n/a	n/a	n/a	n/a	n/a	n/a	n/a	n/a	n/a
1314603	PROB	n/a	LTP268	ltpFR	13	n/a	n/a	n/a	n/a	n/a	n/a	n/a	10	4	3	3	n/a	n/a	n/a	n/a	n/a
1316861	PROB	n/a	LTP268	ltpFR	13	n/a	n/a	n/a	n/a	n/a	n/a	n/a	7	3	1	3	n/a	n/a	n/a	n/a	n/a
1318434	PROB	n/a	LTP268	ltpFR	13	n/a	n/a	n/a	n/a	n/a	n/a	n/a	11	8	1	2	n/a	n/a	n/a	n/a	n/a
1319939	PROB	n/a	LTP268	ltpFR	13	n/a	n/a	n/a	n/a	n/a	n/a	n/a	22	4	9	9	n/a	n/a	n/a	n/a	n/a
1321544	PROB	n/a	LTP268	ltpFR	13	n/a	n/a	n/a	n/a	n/a	n/a	n/a	16	5	5	6	n/a	n/a	n/a	n/a	n/a
1322885	PROB	n/a	LTP268	ltpFR	13	n/a	n/a	n/a	n/a	n/a	n/a	n/a	9	4	3	2	n/a	n/a	n/a	n/a	n/a
1324674	PROB	n/a	LTP268	ltpFR	13	n/a	n/a	n/a	n/a	n/a	n/a	n/a	15	5	4	6	n/a	n/a	n/a	n/a	n/a
1326197	PROB	n/a	LTP268	ltpFR	13	n/a	n/a	n/a	n/a	n/a	n/a	n/a	13	6	4	3	n/a	n/a	n/a	n/a	n/a
1327551	PROB	n/a	LTP268	ltpFR	13	n/a	n/a	n/a	n/a	n/a	n/a	n/a	18	4	6	8	n/a	n/a	n/a	n/a	n/a
1328842	STOP	n/a	LTP268	ltpFR	13	n/a	n/a	n/a	n/a	n/a	n/a	n/a	n/a	n/a	n/a	n/a	n/a	n/a	n/a	n/a	n/a
1331450	REC_START	n/a	LTP268	ltpFR	13	5	n/a	n/a	n/a	n/a	n/a	n/a	n/a	0	0	0	n/a	n/a	n/a	n/a	n/a
1333868	REC_WORD	wordpools/wasnorm_wordpool_less_exclusions.txt	LTP268	ltpFR	13	5	0	PASSENGER	1020	n/a	n/a	1	n/a	0	0	0	n/a	n/a	n/a	n/a	n/a
1334720	REC_WORD	wordpools/wasnorm_wordpool_less_exclusions.txt	LTP268	ltpFR	13	5	0	FARMER	553	n/a	n/a	n/a	n/a	0	0	0	n/a	n/a	n/a	n/a	n/a
1336428	REC_WORD	wordpools/wasnorm_wordpool_less_exclusions.txt	LTP268	ltpFR	13	5	0	COYOTE	396	n/a	n/a	1	n/a	0	0	0	n/a	n/a	n/a	n/a	n/a
1337266	REC_WORD	wordpools/wasnorm_wordpool_less_exclusions.txt	LTP268	ltpFR	13	5	0	BUFFALO	186	n/a	n/a	1	n/a	0	0	0	n/a	n/a	n/a	n/a	n/a
1338027	REC_WORD	wordpools/wasnorm_wordpool_less_exclusions.txt	LTP268	ltpFR	13	5	0	FEATHER	557	n/a	n/a	0	n/a	0	0	0	n/a	n/a	n/a	n/a	n/a
1338765	REC_WORD	wordpools/wasnorm_wordpool_less_exclusions.txt	LTP268	ltpFR	13	5	1	VEAL	1551	n/a	n/a	0	n/a	0	0	0	n/a	n/a	n/a	n/a	n/a
1340832	REC_WORD	wordpools/wasnorm_wordpool_less_exclusions.txt	LTP268	ltpFR	13	5	0	VIOLIN	1571	n/a	n/a	0	n/a	0	0	0	n/a	n/a	n/a	n/a	n/a
1341716	REC_WORD	wordpools/wasnorm_wordpool_less_exclusions.txt	LTP268	ltpFR	13	5	0	ORCHESTRA	981	n/a	n/a	1	n/a	0	0	0	n/a	n/a	n/a	n/a	n/a
1342549	REC_WORD	wordpools/wasnorm_wordpool_less_exclusions.txt	LTP268	ltpFR	13	5	1	ASHTRAY	45	n/a	n/a	0	n/a	0	0	0	n/a	n/a	n/a	n/a	n/a
1347122	REC_WORD	wordpools/wasnorm_wordpool_less_exclusions.txt	LTP268	ltpFR	13	5	0	ALLIGATOR	16	n/a	n/a	1	n/a	0	0	0	n/a	n/a	n/a	n/a	n/a
1351547	REC_WORD	wordpools/wasnorm_wordpool_less_exclusions.txt	LTP268	ltpFR	13	5	1	CLOVE	329	n/a	n/a	0	n/a	0	0	0	n/a	n/a	n/a	n/a	n/a
1354831	REC_WORD	wordpools/wasnorm_wordpool_less_exclusions.txt	LTP268	ltpFR	13	5	1	SUNRISE	1407	n/a	n/a	0	n/a	0	0	0	n/a	n/a	n/a	n/a	n/a
1355773	REC_WORD	wordpools/wasnorm_wordpool_less_exclusions.txt	LTP268	ltpFR	13	5	1	HORIZON	717	n/a	n/a	0	n/a	0	0	0	n/a	n/a	n/a	n/a	n/a
1356661	REC_WORD	wordpools/wasnorm_wordpool_less_exclusions.txt	LTP268	ltpFR	13	5	1	CAPITAL	238	n/a	n/a	0	n/a	0	0	0	n/a	n/a	n/a	n/a	n/a
1357278	REC_WORD	wordpools/wasnorm_wordpool_less_exclusions.txt	LTP268	ltpFR	13	5	1	FROST	609	n/a	n/a	0	n/a	0	0	0	n/a	n/a	n/a	n/a	n/a
1358180	REC_WORD	wordpools/wasnorm_wordpool_less_exclusions.txt	LTP268	ltpFR	13	5	1	SWEATER	1419	n/a	n/a	0	n/a	0	0	0	n/a	n/a	n/a	n/a	n/a
1411904	WORD	wordpools/wasnorm_wordpool_less_exclusions.txt	LTP268	ltpFR	13	6	1	PRINCESS	1125	n/a	n/a	1	n/a	0	0	0	0.57763671875	0.412841796875	1	lower	amplitud.ttf
1415869	WORD	wordpools/wasnorm_wordpool_less_exclusions.txt	LTP268	ltpFR	13	6	1	KING	777	n/a	n/a	1	n/a	0	0	0	0.57763671875	0.412841796875	1	lower	amplitud.ttf
1420085	WORD	wordpools/wasnorm_wordpool_less_exclusions.txt	LTP268	ltpFR	13	6	1	FINGERNAIL	568	n/a	n/a	0	n/a	0	0	0	0.57763671875	0.412841796875	1	lower	amplitud.ttf
1424033	WORD	wordpools/wasnorm_wordpool_less_exclusions.txt	LTP268	ltpFR	13	6	0	SPIT	1354	n/a	n/a	0	n/a	0	0	0	0.422607421875	0.5869140625	0	upper	zerothre.ttf
1427964	WORD	wordpools/wasnorm_wordpool_less_exclusions.txt	LTP268	ltpFR	13	6	0	TWINE	1529	n/a	n/a	0	n/a	0	0	0	0.422607421875	0.5869140625	0	upper	zerothre.ttf
1432113	WORD	wordpools/wasnorm_wordpool_less_exclusions.txt	LTP268	ltpFR	13	6	0	DRUM	502	n/a	n/a	0	n/a	0	0	0	0.422607421875	0.5869140625	0	upper	zerothre.ttf
1436045	WORD	wordpools/wasnorm_wordpool_less_exclusions.txt	LTP268	ltpFR	13	6	1	BLOSSOM	138	n/a	n/a	1	n/a	0	0	0	0.57763671875	0.412841796875	1	lower	amplitud.ttf
1440227	WORD	wordpools/wasnorm_wordpool_less_exclusions.txt	LTP268	ltpFR	13	6	1	CABINET	212	n/a	n/a	0	n/a	0	0	0	0.57763671875	0.412841796875	1	lower	amplitud.ttf
1444209	WORD	wordpools/wasnorm_wordpool_less_exclusions.txt	LTP268	ltpFR	13	6	0	BULLETIN	195	n/a	n/a	2	n/a	0	0	0	0.422607421875	0.5869140625	0	upper	zerothre.ttf
1446517	KEY_MSG	n/a	LTP268	ltpFR	13	6	n/a	n/a	n/a	n/a	n/a	n/a	n/a	0	0	0	n/a	n/a	n/a	n/a	n/a
1449194	WORD	wordpools/wasnorm_wordpool_less_exclusions.txt	LTP268	ltpFR	13	6	0	FIREMAN	569	n/a	n/a	1	n/a	0	0	0	0.422607421875	0.5869140625	0	upper	zerothre.ttf
1453059	WORD	wordpools/wasnorm_wordpool_less_exclusions.txt	LTP268	ltpFR	13	6	0	SANDWICH	1232	n/a	n/a	0	n/a	0	0	0	0.422607421875	0.5869140625	0	upper	zerothre.ttf
1456990	WORD	wordpools/wasnorm_wordpool_less_exclusions.txt	LTP268	ltpFR	13	6	0	BATHTUB	100	n/a	n/a	1	n/a	0	0	0	0.422607421875	0.5869140625	0	upper	zerothre.ttf
1460836	WORD	wordpools/wasnorm_wordpool_less_exclusions.txt	LTP268	ltpFR	13	6	0	CUSTOMER	430	n/a	n/a	1	n/a	0	0	0	0.422607421875	0.5869140625	0	upper	zerothre.ttf
1464870	WORD	wordpools/wasnorm_wordpool_less_exclusions.txt	LTP268	ltpFR	13	6	1	OWNER	993	n/a	n/a	1	n/a	0	0	0	0.57763671875	0.412841796875	1	lower	amplitud.ttf
1468784	WORD	wordpools/wasnorm_wordpool_less_exclusions.txt	LTP268	ltpFR	13	6	1	DART	440	n/a	n/a	0	n/a	0	0	0	0.57763671875	0.412841796875	1	lower	amplitud.ttf
1472847	WORD	wordpools/wasnorm_wordpool_less_exclusions.txt	LTP268	ltpFR	13	6	1	BROOK	177	n/a	n/a	0	n/a	0	0	0	0.57763671875	0.412841796875	1	lower	amplitud.ttf
1478605	REC_START	n/a	LTP268	ltpFR	13	6	n/a	n/a	n/a	n/a	n/a	n/a	n/a	0	0	0	n/a	n/a	n/a	n/a	n/a
1480667	REC_WORD	wordpools/wasnorm_wordpool_less_exclusions.txt	LTP268	ltpFR	13	6	1	BROOK	177	n/a	n/a	0	n/a	0	0	0	n/a	n/a	n/a	n/a	n/a
1482864	REC_WORD	wordpools/wasnorm_wordpool_less_exclusions.txt	LTP268	ltpFR	13	6	1	OWNER	993	n/a	n/a	1	n/a	0	0	0	n/a	n/a	n/a	n/a	n/a
1483781	REC_WORD	wordpools/wasnorm_wordpool_less_exclusions.txt	LTP268	ltpFR	13	6	0	CUSTOMER	430	n/a	n/a	1	n/a	0	0	0	n/a	n/a	n/a	n/a	n/a
1485148	REC_WORD	wordpools/wasnorm_wordpool_less_exclusions.txt	LTP268	ltpFR	13	6	0	BATHTUB	100	n/a	n/a	1	n/a	0	0	0	n/a	n/a	n/a	n/a	n/a
1487487	REC_WORD	wordpools/wasnorm_wordpool_less_exclusions.txt	LTP268	ltpFR	13	6	0	SANDWICH	1232	n/a	n/a	0	n/a	0	0	0	n/a	n/a	n/a	n/a	n/a
1492515	REC_WORD	wordpools/wasnorm_wordpool_less_exclusions.txt	LTP268	ltpFR	13	6	0	FIREMAN	569	n/a	n/a	1	n/a	0	0	0	n/a	n/a	n/a	n/a	n/a
1494093	REC_WORD	wordpools/wasnorm_wordpool_less_exclusions.txt	LTP268	ltpFR	13	6	1	KING	777	n/a	n/a	1	n/a	0	0	0	n/a	n/a	n/a	n/a	n/a
1494849	REC_WORD	wordpools/wasnorm_wordpool_less_exclusions.txt	LTP268	ltpFR	13	6	1	PRINCESS	1125	n/a	n/a	1	n/a	0	0	0	n/a	n/a	n/a	n/a	n/a
1496136	REC_WORD	wordpools/wasnorm_wordpool_less_exclusions.txt	LTP268	ltpFR	13	6	1	FINGERNAIL	568	n/a	n/a	0	n/a	0	0	0	n/a	n/a	n/a	n/a	n/a
1497194	REC_WORD	wordpools/wasnorm_wordpool_less_exclusions.txt	LTP268	ltpFR	13	6	0	TWINE	1529	n/a	n/a	0	n/a	0	0	0	n/a	n/a	n/a	n/a	n/a
1501112	REC_WORD	wordpools/wasnorm_wordpool_less_exclusions.txt	LTP268	ltpFR	13	6	0	SPIT	1354	n/a	n/a	0	n/a	0	0	0	n/a	n/a	n/a	n/a	n/a
1504115	REC_WORD	wordpools/wasnorm_wordpool_less_exclusions.txt	LTP268	ltpFR	13	6	0	DRUM	502	n/a	n/a	0	n/a	0	0	0	n/a	n/a	n/a	n/a	n/a
1554257	REST_REWET	n/a	LTP268	ltpFR	13	6	n/a	n/a	n/a	n/a	n/a	n/a	n/a	0	0	0	n/a	n/a	n/a	n/a	n/a
1892464	WORD	wordpools/wasnorm_wordpool_less_exclusions.txt	LTP268	ltpFR	13	7	0	MOWER	928	n/a	n/a	1	n/a	0	0	0	0.422607421875	0.5869140625	0	upper	zerothre.ttf
1896344	WORD	wordpools/wasnorm_wordpool_less_exclusions.txt	LTP268	ltpFR	13	7	0	TRACTOR	1493	n/a	n/a	1	n/a	0	0	0	0.422607421875	0.5869140625	0	upper	zerothre.ttf
1900177	WORD	wordpools/wasnorm_wordpool_less_exclusions.txt	LTP268	ltpFR	13	7	0	ASSISTANT	48	n/a	n/a	1	n/a	0	0	0	0.422607421875	0.5869140625	0	upper	zerothre.ttf
1904209	WORD	wordpools/wasnorm_wordpool_less_exclusions.txt	LTP268	ltpFR	13	7	0	TOY	1492	n/a	n/a	0	n/a	0	0	0	0.422607421875	0.5869140625	0	upper	zerothre.ttf
1908291	WORD	wordpools/wasnorm_wordpool_less_exclusions.txt	LTP268	ltpFR	13	7	0	WINDOW	1611	n/a	n/a	1	n/a	0	0	0	0.422607421875	0.5869140625	0	upper	zerothre.ttf
1912422	WORD	wordpools/wasnorm_wordpool_less_exclusions.txt	LTP268	ltpFR	13	7	0	WHALE	1601	n/a	n/a	1	n/a	0	0	0	0.422607421875	0.5869140625	0	upper	zerothre.ttf
1916588	WORD	wordpools/wasnorm_wordpool_less_exclusions.txt	LTP268	ltpFR	13	7	0	DESSERT	453	n/a	n/a	0	n/a	0	0	0	0.422607421875	0.5869140625	0	upper	zerothre.ttf
1920453	WORD	wordpools/wasnorm_wordpool_less_exclusions.txt	LTP268	ltpFR	13	7	0	BOSS	152	n/a	n/a	1	n/a	0	0	0	0.422607421875	0.5869140625	0	upper	zerothre.ttf
1924535	WORD	wordpools/wasnorm_wordpool_less_exclusions.txt	LTP268	ltpFR	13	7	0	PLIERS	1089	n/a	n/a	0	n/a	0	0	0	0.422607421875	0.5869140625	0	upper	zerothre.ttf
1928399	WORD	wordpools/wasnorm_wordpool_less_exclusions.txt	LTP268	ltpFR	13	7	0	CARPENTER	246	n/a	n/a	1	n/a	0	0	0	0.422607421875	0.5869140625	0	upper	zerothre.ttf
1932248	WORD	wordpools/wasnorm_wordpool_less_exclusions.txt	LTP268	ltpFR	13	7	0	COOKIE	374	n/a	n/a	0	n/a	0	0	0	0.422607421875	0.5869140625	0	upper	zerothre.ttf
1936163	WORD	wordpools/wasnorm_wordpool_less_exclusions.txt	LTP268	ltpFR	13	7	0	MEDAL	885	n/a	n/a	0	n/a	0	0	0	0.422607421875	0.5869140625	0	upper	zerothre.ttf
1940228	WORD	wordpools/wasnorm_wordpool_less_exclusions.txt	LTP268	ltpFR	13	7	0	TEACHER	1440	n/a	n/a	1	n/a	0	0	0	0.422607421875	0.5869140625	0	upper	zerothre.ttf
1944294	WORD	wordpools/wasnorm_wordpool_less_exclusions.txt	LTP268	ltpFR	13	7	0	JOINT	758	n/a	n/a	0	n/a	0	0	0	0.422607421875	0.5869140625	0	upper	zerothre.ttf
1948275	WORD	wordpools/wasnorm_wordpool_less_exclusions.txt	LTP268	ltpFR	13	7	0	BONE	148	n/a	n/a	0	n/a	0	0	0	0.422607421875	0.5869140625	0	upper	zerothre.ttf
1952290	WORD	wordpools/wasnorm_wordpool_less_exclusions.txt	LTP268	ltpFR	13	7	0	CLERK	321	n/a	n/a	1	n/a	0	0	0	0.422607421875	0.5869140625	0	upper	zerothre.ttf
1955302	START	n/a	LTP268	ltpFR	13	n/a	n/a	n/a	n/a	n/a	n/a	n/a	n/a	n/a	n/a	n/a	n/a	n/a	n/a	n/a	n/a
1956455	PROB	n/a	LTP268	ltpFR	13	n/a	n/a	n/a	n/a	n/a	n/a	n/a	13	2	6	5	n/a	n/a	n/a	n/a	n/a
1959583	PROB	n/a	LTP268	ltpFR	13	n/a	n/a	n/a	n/a	n/a	n/a	n/a	14	5	4	5	n/a	n/a	n/a	n/a	n/a
1961574	PROB	n/a	LTP268	ltpFR	13	n/a	n/a	n/a	n/a	n/a	n/a	n/a	12	4	6	2	n/a	n/a	n/a	n/a	n/a
1962891	STOP	n/a	LTP268	ltpFR	13	n/a	n/a	n/a	n/a	n/a	n/a	n/a	n/a	n/a	n/a	n/a	n/a	n/a	n/a	n/a	n/a
1965190	REC_START	n/a	LTP268	ltpFR	13	7	n/a	n/a	n/a	n/a	n/a	n/a	n/a	0	0	0	n/a	n/a	n/a	n/a	n/a
1967118	REC_WORD	wordpools/wasnorm_wordpool_less_exclusions.txt	LTP268	ltpFR	13	7	0	CLERK	321	n/a	n/a	1	n/a	0	0	0	n/a	n/a	n/a	n/a	n/a
1968678	REC_WORD	wordpools/wasnorm_wordpool_less_exclusions.txt	LTP268	ltpFR	13	7	0	PLIERS	1089	n/a	n/a	0	n/a	0	0	0	n/a	n/a	n/a	n/a	n/a
1969266	REC_WORD	wordpools/wasnorm_wordpool_less_exclusions.txt	LTP268	ltpFR	13	7	0	CARPENTER	246	n/a	n/a	1	n/a	0	0	0	n/a	n/a	n/a	n/a	n/a
1970859	REC_WORD	wordpools/wasnorm_wordpool_less_exclusions.txt	LTP268	ltpFR	13	7	0	MOWER	928	n/a	n/a	1	n/a	0	0	0	n/a	n/a	n/a	n/a	n/a
1971405	REC_WORD	wordpools/wasnorm_wordpool_less_exclusions.txt	LTP268	ltpFR	13	7	0	TRACTOR	1493	n/a	n/a	1	n/a	0	0	0	n/a	n/a	n/a	n/a	n/a
1972048	REC_WORD	wordpools/wasnorm_wordpool_less_exclusions.txt	LTP268	ltpFR	13	7	0	BOSS	152	n/a	n/a	1	n/a	0	0	0	n/a	n/a	n/a	n/a	n/a
1972495	REC_WORD	wordpools/wasnorm_wordpool_less_exclusions.txt	LTP268	ltpFR	13	7	0	ASSISTANT	48	n/a	n/a	1	n/a	0	0	0	n/a	n/a	n/a	n/a	n/a
1974374	REC_WORD	wordpools/wasnorm_wordpool_less_exclusions.txt	LTP268	ltpFR	13	7	0	WINDOW	1611	n/a	n/a	1	n/a	0	0	0	n/a	n/a	n/a	n/a	n/a
1974953	REC_WORD	wordpools/wasnorm_wordpool_less_exclusions.txt	LTP268	ltpFR	13	7	0	DESSERT	453	n/a	n/a	0	n/a	0	0	0	n/a	n/a	n/a	n/a	n/a
1978817	REC_WORD	wordpools/wasnorm_wordpool_less_exclusions.txt	LTP268	ltpFR	13	7	0	COOKIE	374	n/a	n/a	0	n/a	0	0	0	n/a	n/a	n/a	n/a	n/a
1982104	REC_WORD	wordpools/wasnorm_wordpool_less_exclusions.txt	LTP268	ltpFR	13	7	0	WHALE	1601	n/a	n/a	1	n/a	0	0	0	n/a	n/a	n/a	n/a	n/a
2006385	REC_WORD	wordpools/wasnorm_wordpool_less_exclusions.txt	LTP268	ltpFR	13	7	0	BONE	148	n/a	n/a	0	n/a	0	0	0	n/a	n/a	n/a	n/a	n/a
2046612	START	n/a	LTP268	ltpFR	13	n/a	n/a	n/a	n/a	n/a	n/a	n/a	n/a	n/a	n/a	n/a	n/a	n/a	n/a	n/a	n/a
2048118	PROB	n/a	LTP268	ltpFR	13	n/a	n/a	n/a	n/a	n/a	n/a	n/a	8	5	2	1	n/a	n/a	n/a	n/a	n/a
2050226	PROB	n/a	LTP268	ltpFR	13	n/a	n/a	n/a	n/a	n/a	n/a	n/a	19	8	6	5	n/a	n/a	n/a	n/a	n/a
2054612	STOP	n/a	LTP268	ltpFR	13	n/a	n/a	n/a	n/a	n/a	n/a	n/a	n/a	n/a	n/a	n/a	n/a	n/a	n/a	n/a	n/a
2055478	WORD	wordpools/wasnorm_wordpool_less_exclusions.txt	LTP268	ltpFR	13	8	0	ROCKET	1202	n/a	n/a	1	n/a	0	0	0	0.422607421875	0.5869140625	0	upper	zerothre.ttf
2058490	START	n/a	LTP268	ltpFR	13	n/a	n/a	n/a	n/a	n/a	n/a	n/a	n/a	n/a	n/a	n/a	n/a	n/a	n/a	n/a	n/a
2059661	PROB	n/a	LTP268	ltpFR	13	n/a	n/a	n/a	n/a	n/a	n/a	n/a	16	8	3	5	n/a	n/a	n/a	n/a	n/a
2061533	PROB	n/a	LTP268	ltpFR	13	n/a	n/a	n/a	n/a	n/a	n/a	n/a	8	4	1	3	n/a	n/a	n/a	n/a	n/a
2063156	PROB	n/a	LTP268	ltpFR	13	n/a	n/a	n/a	n/a	n/a	n/a	n/a	21	6	7	8	n/a	n/a	n/a	n/a	n/a
2065299	STOP	n/a	LTP268	ltpFR	13	n/a	n/a	n/a	n/a	n/a	n/a	n/a	n/a	n/a	n/a	n/a	n/a	n/a	n/a	n/a	n/a
2067422	WORD	wordpools/wasnorm_wordpool_less_exclusions.txt	LTP268	ltpFR	13	8	0	CUSTARD	429	n/a	n/a	0	n/a	0	0	0	0.422607421875	0.5869140625	0	upper	zerothre.ttf
2070435	START	n/a	LTP268	ltpFR	13	n/a	n/a	n/a	n/a	n/a	n/a	n/a	n/a	n/a	n/a	n/a	n/a	n/a	n/a	n/a	n/a
2071289	PROB	n/a	LTP268	ltpFR	13	n/a	n/a	n/a	n/a	n/a	n/a	n/a	20	9	6	5	n/a	n/a	n/a	n/a	n/a
2073982	PROB	n/a	LTP268	ltpFR	13	n/a	n/a	n/a	n/a	n/a	n/a	n/a	19	2	8	9	n/a	n/a	n/a	n/a	n/a
2075719	PROB	n/a	LTP268	ltpFR	13	n/a	n/a	n/a	n/a	n/a	n/a	n/a	17	5	6	6	n/a	n/a	n/a	n/a	n/a
2077506	STOP	n/a	LTP268	ltpFR	13	n/a	n/a	n/a	n/a	n/a	n/a	n/a	n/a	n/a	n/a	n/a	n/a	n/a	n/a	n/a	n/a
2079385	WORD	wordpools/wasnorm_wordpool_less_exclusions.txt	LTP268	ltpFR	13	8	0	POTATO	1115	n/a	n/a	0	n/a	0	0	0	0.422607421875	0.5869140625	0	upper	zerothre.ttf
2082397	START	n/a	LTP268	ltpFR	13	n/a	n/a	n/a	n/a	n/a	n/a	n/a	n/a	n/a	n/a	n/a	n/a	n/a	n/a	n/a	n/a
2083534	PROB	n/a	LTP268	ltpFR	13	n/a	n/a	n/a	n/a	n/a	n/a	n/a	16	7	5	4	n/a	n/a	n/a	n/a	n/a
2086044	PROB	n/a	LTP268	ltpFR	13	n/a	n/a	n/a	n/a	n/a	n/a	n/a	11	6	1	4	n/a	n/a	n/a	n/a	n/a
2087901	PROB	n/a	LTP268	ltpFR	13	n/a	n/a	n/a	n/a	n/a	n/a	n/a	9	4	4	1	n/a	n/a	n/a	n/a	n/a
2089227	STOP	n/a	LTP268	ltpFR	13	n/a	n/a	n/a	n/a	n/a	n/a	n/a	n/a	n/a	n/a	n/a	n/a	n/a	n/a	n/a	n/a
2091247	WORD	wordpools/wasnorm_wordpool_less_exclusions.txt	LTP268	ltpFR	13	8	0	STATUE	1374	n/a	n/a	1	n/a	0	0	0	0.422607421875	0.5869140625	0	upper	zerothre.ttf
2094259	START	n/a	LTP268	ltpFR	13	n/a	n/a	n/a	n/a	n/a	n/a	n/a	n/a	n/a	n/a	n/a	n/a	n/a	n/a	n/a	n/a
2095329	PROB	n/a	LTP268	ltpFR	13	n/a	n/a	n/a	n/a	n/a	n/a	n/a	14	9	2	3	n/a	n/a	n/a	n/a	n/a
2097737	PROB	n/a	LTP268	ltpFR	13	n/a	n/a	n/a	n/a	n/a	n/a	n/a	16	5	8	3	n/a	n/a	n/a	n/a	n/a
2100883	STOP	n/a	LTP268	ltpFR	13	n/a	n/a	n/a	n/a	n/a	n/a	n/a	n/a	n/a	n/a	n/a	n/a	n/a	n/a	n/a	n/a
2103159	WORD	wordpools/wasnorm_wordpool_less_exclusions.txt	LTP268	ltpFR	13	8	1	PELICAN	1039	n/a	n/a	1	n/a	0	0	0	0.57763671875	0.412841796875	1	lower	amplitud.ttf
2106171	START	n/a	LTP268	ltpFR	13	n/a	n/a	n/a	n/a	n/a	n/a	n/a	n/a	n/a	n/a	n/a	n/a	n/a	n/a	n/a	n/a
2107274	PROB	n/a	LTP268	ltpFR	13	n/a	n/a	n/a	n/a	n/a	n/a	n/a	6	3	2	1	n/a	n/a	n/a	n/a	n/a
2109064	PROB	n/a	LTP268	ltpFR	13	n/a	n/a	n/a	n/a	n/a	n/a	n/a	21	3	9	9	n/a	n/a	n/a	n/a	n/a
2110888	PROB	n/a	LTP268	ltpFR	13	n/a	n/a	n/a	n/a	n/a	n/a	n/a	16	4	3	9	n/a	n/a	n/a	n/a	n/a
2112754	STOP	n/a	LTP268	ltpFR	13	n/a	n/a	n/a	n/a	n/a	n/a	n/a	n/a	n/a	n/a	n/a	n/a	n/a	n/a	n/a	n/a
2115204	WORD	wordpools/wasnorm_wordpool_less_exclusions.txt	LTP268	ltpFR	13	8	1	RACCOON	1153	n/a	n/a	1	n/a	0	0	0	0.57763671875	0.412841796875	1	lower	amplitud.ttf
2118216	START	n/a	LTP268	ltpFR	13	n/a	n/a	n/a	n/a	n/a	n/a	n/a	n/a	n/a	n/a	n/a	n/a	n/a	n/a	n/a	n/a
2119168	PROB	n/a	LTP268	ltpFR	13	n/a	n/a	n/a	n/a	n/a	n/a	n/a	18	8	1	9	n/a	n/a	n/a	n/a	n/a
2121661	PROB	n/a	LTP268	ltpFR	13	n/a	n/a	n/a	n/a	n/a	n/a	n/a	14	3	5	6	n/a	n/a	n/a	n/a	n/a
2123802	PROB	n/a	LTP268	ltpFR	13	n/a	n/a	n/a	n/a	n/a	n/a	n/a	16	7	8	1	n/a	n/a	n/a	n/a	n/a
2125339	STOP	n/a	LTP268	ltpFR	13	n/a	n/a	n/a	n/a	n/a	n/a	n/a	n/a	n/a	n/a	n/a	n/a	n/a	n/a	n/a	n/a
2127133	WORD	wordpools/wasnorm_wordpool_less_exclusions.txt	LTP268	ltpFR	13	8	1	MAMMAL	861	n/a	n/a	1	n/a	0	0	0	0.57763671875	0.412841796875	1	lower	amplitud.ttf
2130145	START	n/a	LTP268	ltpFR	13	n/a	n/a	n/a	n/a	n/a	n/a	n/a	n/a	n/a	n/a	n/a	n/a	n/a	n/a	n/a	n/a
2131332	PROB	n/a	LTP268	ltpFR	13	n/a	n/a	n/a	n/a	n/a	n/a	n/a	17	5	9	3	n/a	n/a	n/a	n/a	n/a
2134392	PROB	n/a	LTP268	ltpFR	13	n/a	n/a	n/a	n/a	n/a	n/a	n/a	20	6	7	7	n/a	n/a	n/a	n/a	n/a
2137163	STOP	n/a	LTP268	ltpFR	13	n/a	n/a	n/a	n/a	n/a	n/a	n/a	n/a	n/a	n/a	n/a	n/a	n/a	n/a	n/a	n/a
2139161	WORD	wordpools/wasnorm_wordpool_less_exclusions.txt	LTP268	ltpFR	13	8	1	SHOWER	1296	n/a	n/a	0	n/a	0	0	0	0.57763671875	0.412841796875	1	lower	amplitud.ttf
2142173	START	n/a	LTP268	ltpFR	13	n/a	n/a	n/a	n/a	n/a	n/a	n/a	n/a	n/a	n/a	n/a	n/a	n/a	n/a	n/a	n/a
2143109	PROB	n/a	LTP268	ltpFR	13	n/a	n/a	n/a	n/a	n/a	n/a	n/a	17	4	9	4	n/a	n/a	n/a	n/a	n/a
2144982	PROB	n/a	LTP268	ltpFR	13	n/a	n/a	n/a	n/a	n/a	n/a	n/a	14	5	8	1	n/a	n/a	n/a	n/a	n/a
2147007	PROB	n/a	LTP268	ltpFR	13	n/a	n/a	n/a	n/a	n/a	n/a	n/a	14	6	5	3	n/a	n/a	n/a	n/a	n/a
2149466	STOP	n/a	LTP268	ltpFR	13	n/a	n/a	n/a	n/a	n/a	n/a	n/a	n/a	n/a	n/a	n/a	n/a	n/a	n/a	n/a	n/a
2151274	WORD	wordpools/wasnorm_wordpool_less_exclusions.txt	LTP268	ltpFR	13	8	0	DRAWING	494	n/a	n/a	0	n/a	0	0	0	0.422607421875	0.5869140625	0	upper	zerothre.ttf
2154285	START	n/a	LTP268	ltpFR	13	n/a	n/a	n/a	n/a	n/a	n/a	n/a	n/a	n/a	n/a	n/a	n/a	n/a	n/a	n/a	n/a
2155222	PROB	n/a	LTP268	ltpFR	13	n/a	n/a	n/a	n/a	n/a	n/a	n/a	6	1	4	1	n/a	n/a	n/a	n/a	n/a
2156708	PROB	n/a	LTP268	ltpFR	13	n/a	n/a	n/a	n/a	n/a	n/a	n/a	13	7	3	3	n/a	n/a	n/a	n/a	n/a
2162285	STOP	n/a	LTP268	ltpFR	13	n/a	n/a	n/a	n/a	n/a	n/a	n/a	n/a	n/a	n/a	n/a	n/a	n/a	n/a	n/a	n/a
2163469	WORD	wordpools/wasnorm_wordpool_less_exclusions.txt	LTP268	ltpFR	13	8	0	STAIRS	1367	n/a	n/a	n/a	n/a	0	0	0	0.422607421875	0.5869140625	0	upper	zerothre.ttf
2166513	SLOW_MSG	n/a	LTP268	ltpFR	13	8	n/a	n/a	n/a	n/a	n/a	n/a	n/a	0	0	0	n/a	n/a	n/a	n/a	n/a
2168037	START	n/a	LTP268	ltpFR	13	n/a	n/a	n/a	n/a	n/a	n/a	n/a	n/a	n/a	n/a	n/a	n/a	n/a	n/a	n/a	n/a
2168855	PROB	n/a	LTP268	ltpFR	13	n/a	n/a	n/a	n/a	n/a	n/a	n/a	8	4	3	1	n/a	n/a	n/a	n/a	n/a
2170577	PROB	n/a	LTP268	ltpFR	13	n/a	n/a	n/a	n/a	n/a	n/a	n/a	11	9	1	1	n/a	n/a	n/a	n/a	n/a
2172002	PROB	n/a	LTP268	ltpFR	13	n/a	n/a	n/a	n/a	n/a	n/a	n/a	13	4	1	7	n/a	n/a	n/a	n/a	n/a
2176037	STOP	n/a	LTP268	ltpFR	13	n/a	n/a	n/a	n/a	n/a	n/a	n/a	n/a	n/a	n/a	n/a	n/a	n/a	n/a	n/a	n/a
2177138	WORD	wordpools/wasnorm_wordpool_less_exclusions.txt	LTP268	ltpFR	13	8	1	ESCALATOR	539	n/a	n/a	0	n/a	0	0	0	0.57763671875	0.412841796875	1	lower	amplitud.ttf
2180150	START	n/a	LTP268	ltpFR	13	n/a	n/a	n/a	n/a	n/a	n/a	n/a	n/a	n/a	n/a	n/a	n/a	n/a	n/a	n/a	n/a
2181253	PROB	n/a	LTP268	ltpFR	13	n/a	n/a	n/a	n/a	n/a	n/a	n/a	17	5	8	4	n/a	n/a	n/a	n/a	n/a
2183526	PROB	n/a	LTP268	ltpFR	13	n/a	n/a	n/a	n/a	n/a	n/a	n/a	22	5	9	8	n/a	n/a	n/a	n/a	n/a
2185902	PROB	n/a	LTP268	ltpFR	13	n/a	n/a	n/a	n/a	n/a	n/a	n/a	18	8	5	5	n/a	n/a	n/a	n/a	n/a
2187418	STOP	n/a	LTP268	ltpFR	13	n/a	n/a	n/a	n/a	n/a	n/a	n/a	n/a	n/a	n/a	n/a	n/a	n/a	n/a	n/a	n/a
2189366	WORD	wordpools/wasnorm_wordpool_less_exclusions.txt	LTP268	ltpFR	13	8	1	CROW	414	n/a	n/a	1	n/a	0	0	0	0.57763671875	0.412841796875	1	lower	amplitud.ttf
2192378	START	n/a	LTP268	ltpFR	13	n/a	n/a	n/a	n/a	n/a	n/a	n/a	n/a	n/a	n/a	n/a	n/a	n/a	n/a	n/a	n/a
2193532	PROB	n/a	LTP268	ltpFR	13	n/a	n/a	n/a	n/a	n/a	n/a	n/a	13	4	7	2	n/a	n/a	n/a	n/a	n/a
2196977	PROB	n/a	LTP268	ltpFR	13	n/a	n/a	n/a	n/a	n/a	n/a	n/a	12	2	2	8	n/a	n/a	n/a	n/a	n/a
2198417	PROB	n/a	LTP268	ltpFR	13	n/a	n/a	n/a	n/a	n/a	n/a	n/a	16	4	6	6	n/a	n/a	n/a	n/a	n/a
2199818	STOP	n/a	LTP268	ltpFR	13	n/a	n/a	n/a	n/a	n/a	n/a	n/a	n/a	n/a	n/a	n/a	n/a	n/a	n/a	n/a	n/a
2201428	WORD	wordpools/wasnorm_wordpool_less_exclusions.txt	LTP268	ltpFR	13	8	1	BANDANNA	80	n/a	n/a	0	n/a	0	0	0	0.57763671875	0.412841796875	1	lower	amplitud.ttf
2204440	START	n/a	LTP268	ltpFR	13	n/a	n/a	n/a	n/a	n/a	n/a	n/a	n/a	n/a	n/a	n/a	n/a	n/a	n/a	n/a	n/a
2205311	PROB	n/a	LTP268	ltpFR	13	n/a	n/a	n/a	n/a	n/a	n/a	n/a	21	7	8	6	n/a	n/a	n/a	n/a	n/a
2207904	PROB	n/a	LTP268	ltpFR	13	n/a	n/a	n/a	n/a	n/a	n/a	n/a	13	5	2	6	n/a	n/a	n/a	n/a	n/a
2210010	PROB	n/a	LTP268	ltpFR	13	n/a	n/a	n/a	n/a	n/a	n/a	n/a	15	6	5	4	n/a	n/a	n/a	n/a	n/a
2212323	STOP	n/a	LTP268	ltpFR	13	n/a	n/a	n/a	n/a	n/a	n/a	n/a	n/a	n/a	n/a	n/a	n/a	n/a	n/a	n/a	n/a
2213507	WORD	wordpools/wasnorm_wordpool_less_exclusions.txt	LTP268	ltpFR	13	8	1	FAUCET	555	n/a	n/a	0	n/a	0	0	0	0.57763671875	0.412841796875	1	lower	amplitud.ttf
2216519	START	n/a	LTP268	ltpFR	13	n/a	n/a	n/a	n/a	n/a	n/a	n/a	n/a	n/a	n/a	n/a	n/a	n/a	n/a	n/a	n/a
2217656	PROB	n/a	LTP268	ltpFR	13	n/a	n/a	n/a	n/a	n/a	n/a	n/a	11	2	6	3	n/a	n/a	n/a	n/a	n/a
2220483	PROB	n/a	LTP268	ltpFR	13	n/a	n/a	n/a	n/a	n/a	n/a	n/a	9	7	1	1	n/a	n/a	n/a	n/a	n/a
2221990	PROB	n/a	LTP268	ltpFR	13	n/a	n/a	n/a	n/a	n/a	n/a	n/a	9	1	5	3	n/a	n/a	n/a	n/a	n/a
2223770	STOP	n/a	LTP268	ltpFR	13	n/a	n/a	n/a	n/a	n/a	n/a	n/a	n/a	n/a	n/a	n/a	n/a	n/a	n/a	n/a	n/a
2225603	WORD	wordpools/wasnorm_wordpool_less_exclusions.txt	LTP268	ltpFR	13	8	0	YACHT	1629	n/a	n/a	1	n/a	0	0	0	0.422607421875	0.5869140625	0	upper	zerothre.ttf
2228615	START	n/a	LTP268	ltpFR	13	n/a	n/a	n/a	n/a	n/a	n/a	n/a	n/a	n/a	n/a	n/a	n/a	n/a	n/a	n/a	n/a
2229434	PROB	n/a	LTP268	ltpFR	13	n/a	n/a	n/a	n/a	n/a	n/a	n/a	19	8	9	2	n/a	n/a	n/a	n/a	n/a
2231425	PROB	n/a	LTP268	ltpFR	13	n/a	n/a	n/a	n/a	n/a	n/a	n/a	16	6	4	6	n/a	n/a	n/a	n/a	n/a
2232915	PROB	n/a	LTP268	ltpFR	13	n/a	n/a	n/a	n/a	n/a	n/a	n/a	22	8	7	7	n/a	n/a	n/a	n/a	n/a
2234821	PROB	n/a	LTP268	ltpFR	13	n/a	n/a	n/a	n/a	n/a	n/a	n/a	12	2	1	9	n/a	n/a	n/a	n/a	n/a
2236474	STOP	n/a	LTP268	ltpFR	13	n/a	n/a	n/a	n/a	n/a	n/a	n/a	n/a	n/a	n/a	n/a	n/a	n/a	n/a	n/a	n/a
2237782	WORD	wordpools/wasnorm_wordpool_less_exclusions.txt	LTP268	ltpFR	13	8	0	EWE	542	n/a	n/a	0	n/a	0	0	0	0.422607421875	0.5869140625	0	upper	zerothre.ttf
2240794	START	n/a	LTP268	ltpFR	13	n/a	n/a	n/a	n/a	n/a	n/a	n/a	n/a	n/a	n/a	n/a	n/a	n/a	n/a	n/a	n/a
2241898	PROB	n/a	LTP268	ltpFR	13	n/a	n/a	n/a	n/a	n/a	n/a	n/a	14	7	4	3	n/a	n/a	n/a	n/a	n/a
2244073	PROB	n/a	LTP268	ltpFR	13	n/a	n/a	n/a	n/a	n/a	n/a	n/a	10	1	5	4	n/a	n/a	n/a	n/a	n/a
2248793	STOP	n/a	LTP268	ltpFR	13	n/a	n/a	n/a	n/a	n/a	n/a	n/a	n/a	n/a	n/a	n/a	n/a	n/a	n/a	n/a	n/a
2250681	REC_START	n/a	LTP268	ltpFR	13	8	n/a	n/a	n/a	n/a	n/a	n/a	n/a	0	0	0	n/a	n/a	n/a	n/a	n/a
2252664	REC_WORD	wordpools/wasnorm_wordpool_less_exclusions.txt	LTP268	ltpFR	13	8	1	FAUCET	555	n/a	n/a	0	n/a	0	0	0	n/a	n/a	n/a	n/a	n/a
2253599	REC_WORD	wordpools/wasnorm_wordpool_less_exclusions.txt	LTP268	ltpFR	13	8	0	YACHT	1629	n/a	n/a	1	n/a	0	0	0	n/a	n/a	n/a	n/a	n/a
2256810	REC_WORD	wordpools/wasnorm_wordpool_less_exclusions.txt	LTP268	ltpFR	13	8	1	CROW	414	n/a	n/a	1	n/a	0	0	0	n/a	n/a	n/a	n/a	n/a
2258633	REC_WORD	wordpools/wasnorm_wordpool_less_exclusions.txt	LTP268	ltpFR	13	8	1	PELICAN	1039	n/a	n/a	1	n/a	0	0	0	n/a	n/a	n/a	n/a	n/a
2260913	REC_WORD	wordpools/wasnorm_wordpool_less_exclusions.txt	LTP268	ltpFR	13	8	1	MAMMAL	861	n/a	n/a	1	n/a	0	0	0	n/a	n/a	n/a	n/a	n/a
2262808	REC_WORD	wordpools/wasnorm_wordpool_less_exclusions.txt	LTP268	ltpFR	13	8	1	SHOWER	1296	n/a	n/a	0	n/a	0	0	0	n/a	n/a	n/a	n/a	n/a
2263895	REC_WORD	wordpools/wasnorm_wordpool_less_exclusions.txt	LTP268	ltpFR	13	8	0	DRAWING	494	n/a	n/a	0	n/a	0	0	0	n/a	n/a	n/a	n/a	n/a
2328157	START	n/a	LTP268	ltpFR	13	n/a	n/a	n/a	n/a	n/a	n/a	n/a	n/a	n/a	n/a	n/a	n/a	n/a	n/a	n/a	n/a
2329662	PROB	n/a	LTP268	ltpFR	13	n/a	n/a	n/a	n/a	n/a	n/a	n/a	17	9	1	7	n/a	n/a	n/a	n/a	n/a
2331285	PROB	n/a	LTP268	ltpFR	13	n/a	n/a	n/a	n/a	n/a	n/a	n/a	11	4	6	1	n/a	n/a	n/a	n/a	n/a
2332489	PROB	n/a	LTP268	ltpFR	13	n/a	n/a	n/a	n/a	n/a	n/a	n/a	13	6	4	3	n/a	n/a	n/a	n/a	n/a
2333910	PROB	n/a	LTP268	ltpFR	13	n/a	n/a	n/a	n/a	n/a	n/a	n/a	13	1	4	8	n/a	n/a	n/a	n/a	n/a
2335450	PROB	n/a	LTP268	ltpFR	13	n/a	n/a	n/a	n/a	n/a	n/a	n/a	6	3	2	1	n/a	n/a	n/a	n/a	n/a
2336588	PROB	n/a	LTP268	ltpFR	13	n/a	n/a	n/a	n/a	n/a	n/a	n/a	13	5	7	1	n/a	n/a	n/a	n/a	n/a
2338948	PROB	n/a	LTP268	ltpFR	13	n/a	n/a	n/a	n/a	n/a	n/a	n/a	14	8	4	2	n/a	n/a	n/a	n/a	n/a
2341657	PROB	n/a	LTP268	ltpFR	13	n/a	n/a	n/a	n/a	n/a	n/a	n/a	7	1	5	1	n/a	n/a	n/a	n/a	n/a
2343923	STOP	n/a	LTP268	ltpFR	13	n/a	n/a	n/a	n/a	n/a	n/a	n/a	n/a	n/a	n/a	n/a	n/a	n/a	n/a	n/a	n/a
2345221	WORD	wordpools/wasnorm_wordpool_less_exclusions.txt	LTP268	ltpFR	13	9	0	MONKEY	911	n/a	n/a	1	n/a	0	0	0	0.422607421875	0.5869140625	0	upper	zerothre.ttf
2348233	START	n/a	LTP268	ltpFR	13	n/a	n/a	n/a	n/a	n/a	n/a	n/a	n/a	n/a	n/a	n/a	n/a	n/a	n/a	n/a	n/a
2349436	PROB	n/a	LTP268	ltpFR	13	n/a	n/a	n/a	n/a	n/a	n/a	n/a	18	5	4	9	n/a	n/a	n/a	n/a	n/a
2351492	PROB	n/a	LTP268	ltpFR	13	n/a	n/a	n/a	n/a	n/a	n/a	n/a	12	4	3	5	n/a	n/a	n/a	n/a	n/a
2353568	PROB	n/a	LTP268	ltpFR	13	n/a	n/a	n/a	n/a	n/a	n/a	n/a	13	8	2	3	n/a	n/a	n/a	n/a	n/a
2355693	PROB	n/a	LTP268	ltpFR	13	n/a	n/a	n/a	n/a	n/a	n/a	n/a	24	9	9	6	n/a	n/a	n/a	n/a	n/a
2358368	PROB	n/a	LTP268	ltpFR	13	n/a	n/a	n/a	n/a	n/a	n/a	n/a	12	1	7	4	n/a	n/a	n/a	n/a	n/a
2362738	STOP	n/a	LTP268	ltpFR	13	n/a	n/a	n/a	n/a	n/a	n/a	n/a	n/a	n/a	n/a	n/a	n/a	n/a	n/a	n/a	n/a
2365113	WORD	wordpools/wasnorm_wordpool_less_exclusions.txt	LTP268	ltpFR	13	9	0	NECK	939	n/a	n/a	0	n/a	0	0	0	0.422607421875	0.5869140625	0	upper	zerothre.ttf
2368125	START	n/a	LTP268	ltpFR	13	n/a	n/a	n/a	n/a	n/a	n/a	n/a	n/a	n/a	n/a	n/a	n/a	n/a	n/a	n/a	n/a
2369295	PROB	n/a	LTP268	ltpFR	13	n/a	n/a	n/a	n/a	n/a	n/a	n/a	14	4	1	9	n/a	n/a	n/a	n/a	n/a
2371419	PROB	n/a	LTP268	ltpFR	13	n/a	n/a	n/a	n/a	n/a	n/a	n/a	9	3	3	3	n/a	n/a	n/a	n/a	n/a
2372841	PROB	n/a	LTP268	ltpFR	13	n/a	n/a	n/a	n/a	n/a	n/a	n/a	18	6	9	3	n/a	n/a	n/a	n/a	n/a
2374866	PROB	n/a	LTP268	ltpFR	13	n/a	n/a	n/a	n/a	n/a	n/a	n/a	14	4	2	8	n/a	n/a	n/a	n/a	n/a
2377978	PROB	n/a	LTP268	ltpFR	13	n/a	n/a	n/a	n/a	n/a	n/a	n/a	11	1	2	8	n/a	n/a	n/a	n/a	n/a
2379581	PROB	n/a	LTP268	ltpFR	13	n/a	n/a	n/a	n/a	n/a	n/a	n/a	1	1	3	9	n/a	n/a	n/a	n/a	n/a
2384125	STOP	n/a	LTP268	ltpFR	13	n/a	n/a	n/a	n/a	n/a	n/a	n/a	n/a	n/a	n/a	n/a	n/a	n/a	n/a	n/a	n/a
2385086	WORD	wordpools/wasnorm_wordpool_less_exclusions.txt	LTP268	ltpFR	13	9	0	OVAL	990	n/a	n/a	0	n/a	0	0	0	0.422607421875	0.5869140625	0	upper	zerothre.ttf
2388100	START	n/a	LTP268	ltpFR	13	n/a	n/a	n/a	n/a	n/a	n/a	n/a	n/a	n/a	n/a	n/a	n/a	n/a	n/a	n/a	n/a
2389020	PROB	n/a	LTP268	ltpFR	13	n/a	n/a	n/a	n/a	n/a	n/a	n/a	15	2	7	6	n/a	n/a	n/a	n/a	n/a
2392080	PROB	n/a	LTP268	ltpFR	13	n/a	n/a	n/a	n/a	n/a	n/a	n/a	18	6	8	4	n/a	n/a	n/a	n/a	n/a
2394540	PROB	n/a	LTP268	ltpFR	13	n/a	n/a	n/a	n/a	n/a	n/a	n/a	13	3	8	2	n/a	n/a	n/a	n/a	n/a
2396212	PROB	n/a	LTP268	ltpFR	13	n/a	n/a	n/a	n/a	n/a	n/a	n/a	13	6	3	4	n/a	n/a	n/a	n/a	n/a
2398253	PROB	n/a	LTP268	ltpFR	13	n/a	n/a	n/a	n/a	n/a	n/a	n/a	7	3	1	3	n/a	n/a	n/a	n/a	n/a
2399826	PROB	n/a	LTP268	ltpFR	13	n/a	n/a	n/a	n/a	n/a	n/a	n/a	12	5	6	1	n/a	n/a	n/a	n/a	n/a
2403051	STOP	n/a	LTP268	ltpFR	13	n/a	n/a	n/a	n/a	n/a	n/a	n/a	n/a	n/a	n/a	n/a	n/a	n/a	n/a	n/a	n/a
2405080	WORD	wordpools/wasnorm_wordpool_less_exclusions.txt	LTP268	ltpFR	13	9	0	CARNIVAL	245	n/a	n/a	1	n/a	0	0	0	0.422607421875	0.5869140625	0	upper	zerothre.ttf
2408092	START	n/a	LTP268	ltpFR	13	n/a	n/a	n/a	n/a	n/a	n/a	n/a	n/a	n/a	n/a	n/a	n/a	n/a	n/a	n/a	n/a
2409027	PROB	n/a	LTP268	ltpFR	13	n/a	n/a	n/a	n/a	n/a	n/a	n/a	14	7	1	6	n/a	n/a	n/a	n/a	n/a
2410734	PROB	n/a	LTP268	ltpFR	13	n/a	n/a	n/a	n/a	n/a	n/a	n/a	12	2	1	9	n/a	n/a	n/a	n/a	n/a
2412274	PROB	n/a	LTP268	ltpFR	13	n/a	n/a	n/a	n/a	n/a	n/a	n/a	11	6	3	2	n/a	n/a	n/a	n/a	n/a
2413829	PROB	n/a	LTP268	ltpFR	13	n/a	n/a	n/a	n/a	n/a	n/a	n/a	15	4	6	5	n/a	n/a	n/a	n/a	n/a
2416891	PROB	n/a	LTP268	ltpFR	13	n/a	n/a	n/a	n/a	n/a	n/a	n/a	16	5	8	3	n/a	n/a	n/a	n/a	n/a
2419534	PROB	n/a	LTP268	ltpFR	13	n/a	n/a	n/a	n/a	n/a	n/a	n/a	16	8	5	3	n/a	n/a	n/a	n/a	n/a
2421441	PROB	n/a	LTP268	ltpFR	13	n/a	n/a	n/a	n/a	n/a	n/a	n/a	12	2	6	4	n/a	n/a	n/a	n/a	n/a
2422947	STOP	n/a	LTP268	ltpFR	13	n/a	n/a	n/a	n/a	n/a	n/a	n/a	n/a	n/a	n/a	n/a	n/a	n/a	n/a	n/a	n/a
2425223	WORD	wordpools/wasnorm_wordpool_less_exclusions.txt	LTP268	ltpFR	13	9	0	ICE	730	n/a	n/a	0	n/a	0	0	0	0.422607421875	0.5869140625	0	upper	zerothre.ttf
2428235	START	n/a	LTP268	ltpFR	13	n/a	n/a	n/a	n/a	n/a	n/a	n/a	n/a	n/a	n/a	n/a	n/a	n/a	n/a	n/a	n/a
2429387	PROB	n/a	LTP268	ltpFR	13	n/a	n/a	n/a	n/a	n/a	n/a	n/a	10	2	6	2	n/a	n/a	n/a	n/a	n/a
2431562	PROB	n/a	LTP268	ltpFR	13	n/a	n/a	n/a	n/a	n/a	n/a	n/a	18	3	9	6	n/a	n/a	n/a	n/a	n/a
2436047	PROB	n/a	LTP268	ltpFR	13	n/a	n/a	n/a	n/a	n/a	n/a	n/a	20	5	9	6	n/a	n/a	n/a	n/a	n/a
2440630	PROB	n/a	LTP268	ltpFR	13	n/a	n/a	n/a	n/a	n/a	n/a	n/a	17	6	2	9	n/a	n/a	n/a	n/a	n/a
2443418	STOP	n/a	LTP268	ltpFR	13	n/a	n/a	n/a	n/a	n/a	n/a	n/a	n/a	n/a	n/a	n/a	n/a	n/a	n/a	n/a	n/a
2445396	WORD	wordpools/wasnorm_wordpool_less_exclusions.txt	LTP268	ltpFR	13	9	0	SWAMP	1416	n/a	n/a	1	n/a	0	0	0	0.422607421875	0.5869140625	0	upper	zerothre.ttf
2448410	START	n/a	LTP268	ltpFR	13	n/a	n/a	n/a	n/a	n/a	n/a	n/a	n/a	n/a	n/a	n/a	n/a	n/a	n/a	n/a	n/a
2449446	PROB	n/a	LTP268	ltpFR	13	n/a	n/a	n/a	n/a	n/a	n/a	n/a	20	9	8	3	n/a	n/a	n/a	n/a	n/a
2451336	PROB	n/a	LTP268	ltpFR	13	n/a	n/a	n/a	n/a	n/a	n/a	n/a	13	3	9	1	n/a	n/a	n/a	n/a	n/a
2452909	PROB	n/a	LTP268	ltpFR	13	n/a	n/a	n/a	n/a	n/a	n/a	n/a	23	9	8	6	n/a	n/a	n/a	n/a	n/a
2456305	PROB	n/a	LTP268	ltpFR	13	n/a	n/a	n/a	n/a	n/a	n/a	n/a	19	1	9	9	n/a	n/a	n/a	n/a	n/a
2457728	PROB	n/a	LTP268	ltpFR	13	n/a	n/a	n/a	n/a	n/a	n/a	n/a	13	2	5	6	n/a	n/a	n/a	n/a	n/a
2460271	PROB	n/a	LTP268	ltpFR	13	n/a	n/a	n/a	n/a	n/a	n/a	n/a	18	5	6	7	n/a	n/a	n/a	n/a	n/a
2463586	STOP	n/a	LTP268	ltpFR	13	n/a	n/a	n/a	n/a	n/a	n/a	n/a	n/a	n/a	n/a	n/a	n/a	n/a	n/a	n/a	n/a
2465574	WORD	wordpools/wasnorm_wordpool_less_exclusions.txt	LTP268	ltpFR	13	9	0	CIRCUS	311	n/a	n/a	1	n/a	0	0	0	0.422607421875	0.5869140625	0	upper	zerothre.ttf
2468586	START	n/a	LTP268	ltpFR	13	n/a	n/a	n/a	n/a	n/a	n/a	n/a	n/a	n/a	n/a	n/a	n/a	n/a	n/a	n/a	n/a
2469556	PROB	n/a	LTP268	ltpFR	13	n/a	n/a	n/a	n/a	n/a	n/a	n/a	18	9	1	8	n/a	n/a	n/a	n/a	n/a
2471144	PROB	n/a	LTP268	ltpFR	13	n/a	n/a	n/a	n/a	n/a	n/a	n/a	16	9	1	6	n/a	n/a	n/a	n/a	n/a
2472532	PROB	n/a	LTP268	ltpFR	13	n/a	n/a	n/a	n/a	n/a	n/a	n/a	18	8	7	3	n/a	n/a	n/a	n/a	n/a
2474457	PROB	n/a	LTP268	ltpFR	13	n/a	n/a	n/a	n/a	n/a	n/a	n/a	14	7	1	6	n/a	n/a	n/a	n/a	n/a
2476398	PROB	n/a	LTP268	ltpFR	13	n/a	n/a	n/a	n/a	n/a	n/a	n/a	18	4	6	8	n/a	n/a	n/a	n/a	n/a
2478072	PROB	n/a	LTP268	ltpFR	13	n/a	n/a	n/a	n/a	n/a	n/a	n/a	11	3	3	5	n/a	n/a	n/a	n/a	n/a
2479610	PROB	n/a	LTP268	ltpFR	13	n/a	n/a	n/a	n/a	n/a	n/a	n/a	14	8	4	2	n/a	n/a	n/a	n/a	n/a
2481317	PROB	n/a	LTP268	ltpFR	13	n/a	n/a	n/a	n/a	n/a	n/a	n/a	5	1	2	2	n/a	n/a	n/a	n/a	n/a
2482737	PROB	n/a	LTP268	ltpFR	13	n/a	n/a	n/a	n/a	n/a	n/a	n/a	5	1	1	3	n/a	n/a	n/a	n/a	n/a
2483899	STOP	n/a	LTP268	ltpFR	13	n/a	n/a	n/a	n/a	n/a	n/a	n/a	n/a	n/a	n/a	n/a	n/a	n/a	n/a	n/a	n/a
2485633	WORD	wordpools/wasnorm_wordpool_less_exclusions.txt	LTP268	ltpFR	13	9	0	YOLK	1633	n/a	n/a	0	n/a	0	0	0	0.422607421875	0.5869140625	0	upper	zerothre.ttf
2488645	START	n/a	LTP268	ltpFR	13	n/a	n/a	n/a	n/a	n/a	n/a	n/a	n/a	n/a	n/a	n/a	n/a	n/a	n/a	n/a	n/a
2489598	PROB	n/a	LTP268	ltpFR	13	n/a	n/a	n/a	n/a	n/a	n/a	n/a	21	6	9	6	n/a	n/a	n/a	n/a	n/a
2492058	PROB	n/a	LTP268	ltpFR	13	n/a	n/a	n/a	n/a	n/a	n/a	n/a	9	5	2	2	n/a	n/a	n/a	n/a	n/a
2493630	PROB	n/a	LTP268	ltpFR	13	n/a	n/a	n/a	n/a	n/a	n/a	n/a	11	1	5	5	n/a	n/a	n/a	n/a	n/a
2494885	PROB	n/a	LTP268	ltpFR	13	n/a	n/a	n/a	n/a	n/a	n/a	n/a	17	8	1	8	n/a	n/a	n/a	n/a	n/a
2496607	PROB	n/a	LTP268	ltpFR	13	n/a	n/a	n/a	n/a	n/a	n/a	n/a	20	5	8	7	n/a	n/a	n/a	n/a	n/a
2498580	PROB	n/a	LTP268	ltpFR	13	n/a	n/a	n/a	n/a	n/a	n/a	n/a	12	1	5	6	n/a	n/a	n/a	n/a	n/a
2499971	PROB	n/a	LTP268	ltpFR	13	n/a	n/a	n/a	n/a	n/a	n/a	n/a	14	1	9	4	n/a	n/a	n/a	n/a	n/a
2501360	PROB	n/a	LTP268	ltpFR	13	n/a	n/a	n/a	n/a	n/a	n/a	n/a	17	6	8	3	n/a	n/a	n/a	n/a	n/a
2503714	STOP	n/a	LTP268	ltpFR	13	n/a	n/a	n/a	n/a	n/a	n/a	n/a	n/a	n/a	n/a	n/a	n/a	n/a	n/a	n/a	n/a
2505524	WORD	wordpools/wasnorm_wordpool_less_exclusions.txt	LTP268	ltpFR	13	9	0	ENCYCLOPEDIA	533	n/a	n/a	1	n/a	0	0	0	0.422607421875	0.5869140625	0	upper	zerothre.ttf
2508536	START	n/a	LTP268	ltpFR	13	n/a	n/a	n/a	n/a	n/a	n/a	n/a	n/a	n/a	n/a	n/a	n/a	n/a	n/a	n/a	n/a
2509640	PROB	n/a	LTP268	ltpFR	13	n/a	n/a	n/a	n/a	n/a	n/a	n/a	6	3	2	1	n/a	n/a	n/a	n/a	n/a
2511013	PROB	n/a	LTP268	ltpFR	13	n/a	n/a	n/a	n/a	n/a	n/a	n/a	21	3	9	9	n/a	n/a	n/a	n/a	n/a
2512800	PROB	n/a	LTP268	ltpFR	13	n/a	n/a	n/a	n/a	n/a	n/a	n/a	19	8	2	9	n/a	n/a	n/a	n/a	n/a
2514978	PROB	n/a	LTP268	ltpFR	13	n/a	n/a	n/a	n/a	n/a	n/a	n/a	12	2	5	5	n/a	n/a	n/a	n/a	n/a
2516633	PROB	n/a	LTP268	ltpFR	13	n/a	n/a	n/a	n/a	n/a	n/a	n/a	21	9	3	9	n/a	n/a	n/a	n/a	n/a
2518223	PROB	n/a	LTP268	ltpFR	13	n/a	n/a	n/a	n/a	n/a	n/a	n/a	23	9	9	5	n/a	n/a	n/a	n/a	n/a
2522121	PROB	n/a	LTP268	ltpFR	13	n/a	n/a	n/a	n/a	n/a	n/a	n/a	6	3	2	1	n/a	n/a	n/a	n/a	n/a
2523323	STOP	n/a	LTP268	ltpFR	13	n/a	n/a	n/a	n/a	n/a	n/a	n/a	n/a	n/a	n/a	n/a	n/a	n/a	n/a	n/a	n/a
2525449	WORD	wordpools/wasnorm_wordpool_less_exclusions.txt	LTP268	ltpFR	13	9	0	TOTE	1487	n/a	n/a	0	n/a	0	0	0	0.422607421875	0.5869140625	0	upper	zerothre.ttf
2528461	START	n/a	LTP268	ltpFR	13	n/a	n/a	n/a	n/a	n/a	n/a	n/a	n/a	n/a	n/a	n/a	n/a	n/a	n/a	n/a	n/a
2529349	PROB	n/a	LTP268	ltpFR	13	n/a	n/a	n/a	n/a	n/a	n/a	n/a	14	7	3	4	n/a	n/a	n/a	n/a	n/a
2530971	PROB	n/a	LTP268	ltpFR	13	n/a	n/a	n/a	n/a	n/a	n/a	n/a	22	9	8	5	n/a	n/a	n/a	n/a	n/a
2534150	PROB	n/a	LTP268	ltpFR	13	n/a	n/a	n/a	n/a	n/a	n/a	n/a	17	3	9	5	n/a	n/a	n/a	n/a	n/a
2536156	PROB	n/a	LTP268	ltpFR	13	n/a	n/a	n/a	n/a	n/a	n/a	n/a	16	5	8	3	n/a	n/a	n/a	n/a	n/a
2538314	PROB	n/a	LTP268	ltpFR	13	n/a	n/a	n/a	n/a	n/a	n/a	n/a	22	7	8	7	n/a	n/a	n/a	n/a	n/a
2540173	PROB	n/a	LTP268	ltpFR	13	n/a	n/a	n/a	n/a	n/a	n/a	n/a	6	3	2	1	n/a	n/a	n/a	n/a	n/a
2541344	PROB	n/a	LTP268	ltpFR	13	n/a	n/a	n/a	n/a	n/a	n/a	n/a	10	4	5	1	n/a	n/a	n/a	n/a	n/a
2542883	PROB	n/a	LTP268	ltpFR	13	n/a	n/a	n/a	n/a	n/a	n/a	n/a	6	1	3	2	n/a	n/a	n/a	n/a	n/a
2544107	STOP	n/a	LTP268	ltpFR	13	n/a	n/a	n/a	n/a	n/a	n/a	n/a	n/a	n/a	n/a	n/a	n/a	n/a	n/a	n/a	n/a
2545408	WORD	wordpools/wasnorm_wordpool_less_exclusions.txt	LTP268	ltpFR	13	9	0	BAG	69	n/a	n/a	0	n/a	0	0	0	0.422607421875	0.5869140625	0	upper	zerothre.ttf
2548420	START	n/a	LTP268	ltpFR	13	n/a	n/a	n/a	n/a	n/a	n/a	n/a	n/a	n/a	n/a	n/a	n/a	n/a	n/a	n/a	n/a
2549473	PROB	n/a	LTP268	ltpFR	13	n/a	n/a	n/a	n/a	n/a	n/a	n/a	11	8	2	1	n/a	n/a	n/a	n/a	n/a
2551114	PROB	n/a	LTP268	ltpFR	13	n/a	n/a	n/a	n/a	n/a	n/a	n/a	13	2	2	9	n/a	n/a	n/a	n/a	n/a
2553188	PROB	n/a	LTP268	ltpFR	13	n/a	n/a	n/a	n/a	n/a	n/a	n/a	9	1	2	6	n/a	n/a	n/a	n/a	n/a
2554945	PROB	n/a	LTP268	ltpFR	13	n/a	n/a	n/a	n/a	n/a	n/a	n/a	200	9	9	2	n/a	n/a	n/a	n/a	n/a
2557168	PROB	n/a	LTP268	ltpFR	13	n/a	n/a	n/a	n/a	n/a	n/a	n/a	12	3	2	7	n/a	n/a	n/a	n/a	n/a
2559729	PROB	n/a	LTP268	ltpFR	13	n/a	n/a	n/a	n/a	n/a	n/a	n/a	16	9	6	1	n/a	n/a	n/a	n/a	n/a
2561818	PROB	n/a	LTP268	ltpFR	13	n/a	n/a	n/a	n/a	n/a	n/a	n/a	14	1	7	6	n/a	n/a	n/a	n/a	n/a
2563187	STOP	n/a	LTP268	ltpFR	13	n/a	n/a	n/a	n/a	n/a	n/a	n/a	n/a	n/a	n/a	n/a	n/a	n/a	n/a	n/a	n/a
2565301	WORD	wordpools/wasnorm_wordpool_less_exclusions.txt	LTP268	ltpFR	13	9	0	BEVERAGE	123	n/a	n/a	0	n/a	0	0	0	0.422607421875	0.5869140625	0	upper	zerothre.ttf
2568313	START	n/a	LTP268	ltpFR	13	n/a	n/a	n/a	n/a	n/a	n/a	n/a	n/a	n/a	n/a	n/a	n/a	n/a	n/a	n/a	n/a
2569199	PROB	n/a	LTP268	ltpFR	13	n/a	n/a	n/a	n/a	n/a	n/a	n/a	15	5	6	4	n/a	n/a	n/a	n/a	n/a
2570754	PROB	n/a	LTP268	ltpFR	13	n/a	n/a	n/a	n/a	n/a	n/a	n/a	11	4	6	1	n/a	n/a	n/a	n/a	n/a
2572510	PROB	n/a	LTP268	ltpFR	13	n/a	n/a	n/a	n/a	n/a	n/a	n/a	17	9	7	1	n/a	n/a	n/a	n/a	n/a
2575436	PROB	n/a	LTP268	ltpFR	13	n/a	n/a	n/a	n/a	n/a	n/a	n/a	20	9	4	7	n/a	n/a	n/a	n/a	n/a
2578300	PROB	n/a	LTP268	ltpFR	13	n/a	n/a	n/a	n/a	n/a	n/a	n/a	11	8	2	1	n/a	n/a	n/a	n/a	n/a
2579604	PROB	n/a	LTP268	ltpFR	13	n/a	n/a	n/a	n/a	n/a	n/a	n/a	11	7	1	3	n/a	n/a	n/a	n/a	n/a
2581278	PROB	n/a	LTP268	ltpFR	13	n/a	n/a	n/a	n/a	n/a	n/a	n/a	25	8	9	8	n/a	n/a	n/a	n/a	n/a
2583482	STOP	n/a	LTP268	ltpFR	13	n/a	n/a	n/a	n/a	n/a	n/a	n/a	n/a	n/a	n/a	n/a	n/a	n/a	n/a	n/a	n/a
2585226	WORD	wordpools/wasnorm_wordpool_less_exclusions.txt	LTP268	ltpFR	13	9	0	COFFEE	341	n/a	n/a	0	n/a	0	0	0	0.422607421875	0.5869140625	0	upper	zerothre.ttf
2588238	START	n/a	LTP268	ltpFR	13	n/a	n/a	n/a	n/a	n/a	n/a	n/a	n/a	n/a	n/a	n/a	n/a	n/a	n/a	n/a	n/a
2589341	PROB	n/a	LTP268	ltpFR	13	n/a	n/a	n/a	n/a	n/a	n/a	n/a	21	9	4	8	n/a	n/a	n/a	n/a	n/a
2592452	PROB	n/a	LTP268	ltpFR	13	n/a	n/a	n/a	n/a	n/a	n/a	n/a	17	4	9	4	n/a	n/a	n/a	n/a	n/a
2594493	PROB	n/a	LTP268	ltpFR	13	n/a	n/a	n/a	n/a	n/a	n/a	n/a	15	5	4	6	n/a	n/a	n/a	n/a	n/a
2596050	PROB	n/a	LTP268	ltpFR	13	n/a	n/a	n/a	n/a	n/a	n/a	n/a	15	3	8	4	n/a	n/a	n/a	n/a	n/a
2597822	PROB	n/a	LTP268	ltpFR	13	n/a	n/a	n/a	n/a	n/a	n/a	n/a	16	4	5	7	n/a	n/a	n/a	n/a	n/a
2600449	PROB	n/a	LTP268	ltpFR	13	n/a	n/a	n/a	n/a	n/a	n/a	n/a	16	4	3	9	n/a	n/a	n/a	n/a	n/a
2603939	STOP	n/a	LTP268	ltpFR	13	n/a	n/a	n/a	n/a	n/a	n/a	n/a	n/a	n/a	n/a	n/a	n/a	n/a	n/a	n/a	n/a
2605401	WORD	wordpools/wasnorm_wordpool_less_exclusions.txt	LTP268	ltpFR	13	9	0	WELL	1600	n/a	n/a	0	n/a	0	0	0	0.422607421875	0.5869140625	0	upper	zerothre.ttf
2608413	START	n/a	LTP268	ltpFR	13	n/a	n/a	n/a	n/a	n/a	n/a	n/a	n/a	n/a	n/a	n/a	n/a	n/a	n/a	n/a	n/a
2609233	PROB	n/a	LTP268	ltpFR	13	n/a	n/a	n/a	n/a	n/a	n/a	n/a	20	7	9	4	n/a	n/a	n/a	n/a	n/a
2612964	PROB	n/a	LTP268	ltpFR	13	n/a	n/a	n/a	n/a	n/a	n/a	n/a	22	8	6	8	n/a	n/a	n/a	n/a	n/a
2615623	PROB	n/a	LTP268	ltpFR	13	n/a	n/a	n/a	n/a	n/a	n/a	n/a	13	4	6	3	n/a	n/a	n/a	n/a	n/a
2617413	PROB	n/a	LTP268	ltpFR	13	n/a	n/a	n/a	n/a	n/a	n/a	n/a	14	4	7	3	n/a	n/a	n/a	n/a	n/a
2619204	PROB	n/a	LTP268	ltpFR	13	n/a	n/a	n/a	n/a	n/a	n/a	n/a	11	8	1	2	n/a	n/a	n/a	n/a	n/a
2620692	PROB	n/a	LTP268	ltpFR	13	n/a	n/a	n/a	n/a	n/a	n/a	n/a	22	7	7	8	n/a	n/a	n/a	n/a	n/a
2622995	STOP	n/a	LTP268	ltpFR	13	n/a	n/a	n/a	n/a	n/a	n/a	n/a	n/a	n/a	n/a	n/a	n/a	n/a	n/a	n/a	n/a
2625458	WORD	wordpools/wasnorm_wordpool_less_exclusions.txt	LTP268	ltpFR	13	9	0	INVENTOR	743	n/a	n/a	1	n/a	0	0	0	0.422607421875	0.5869140625	0	upper	zerothre.ttf
2628472	START	n/a	LTP268	ltpFR	13	n/a	n/a	n/a	n/a	n/a	n/a	n/a	n/a	n/a	n/a	n/a	n/a	n/a	n/a	n/a	n/a
2629292	PROB	n/a	LTP268	ltpFR	13	n/a	n/a	n/a	n/a	n/a	n/a	n/a	18	8	7	3	n/a	n/a	n/a	n/a	n/a
2630830	PROB	n/a	LTP268	ltpFR	13	n/a	n/a	n/a	n/a	n/a	n/a	n/a	19	9	7	3	n/a	n/a	n/a	n/a	n/a
2632853	PROB	n/a	LTP268	ltpFR	13	n/a	n/a	n/a	n/a	n/a	n/a	n/a	11	6	3	2	n/a	n/a	n/a	n/a	n/a
2635179	PROB	n/a	LTP268	ltpFR	13	n/a	n/a	n/a	n/a	n/a	n/a	n/a	16	7	7	2	n/a	n/a	n/a	n/a	n/a
2637554	PROB	n/a	LTP268	ltpFR	13	n/a	n/a	n/a	n/a	n/a	n/a	n/a	15	5	3	7	n/a	n/a	n/a	n/a	n/a
2639295	PROB	n/a	LTP268	ltpFR	13	n/a	n/a	n/a	n/a	n/a	n/a	n/a	11	1	4	6	n/a	n/a	n/a	n/a	n/a
2640650	PROB	n/a	LTP268	ltpFR	13	n/a	n/a	n/a	n/a	n/a	n/a	n/a	15	8	5	2	n/a	n/a	n/a	n/a	n/a
2644472	STOP	n/a	LTP268	ltpFR	13	n/a	n/a	n/a	n/a	n/a	n/a	n/a	n/a	n/a	n/a	n/a	n/a	n/a	n/a	n/a	n/a
2645551	WORD	wordpools/wasnorm_wordpool_less_exclusions.txt	LTP268	ltpFR	13	9	0	PHILOSOPHER	1054	n/a	n/a	1	n/a	0	0	0	0.422607421875	0.5869140625	0	upper	zerothre.ttf
2648564	START	n/a	LTP268	ltpFR	13	n/a	n/a	n/a	n/a	n/a	n/a	n/a	n/a	n/a	n/a	n/a	n/a	n/a	n/a	n/a	n/a
2649500	PROB	n/a	LTP268	ltpFR	13	n/a	n/a	n/a	n/a	n/a	n/a	n/a	12	4	4	4	n/a	n/a	n/a	n/a	n/a
2650873	PROB	n/a	LTP268	ltpFR	13	n/a	n/a	n/a	n/a	n/a	n/a	n/a	9	4	2	3	n/a	n/a	n/a	n/a	n/a
2652828	PROB	n/a	LTP268	ltpFR	13	n/a	n/a	n/a	n/a	n/a	n/a	n/a	15	6	5	4	n/a	n/a	n/a	n/a	n/a
2654905	PROB	n/a	LTP268	ltpFR	13	n/a	n/a	n/a	n/a	n/a	n/a	n/a	20	7	5	8	n/a	n/a	n/a	n/a	n/a
2657780	PROB	n/a	LTP268	ltpFR	13	n/a	n/a	n/a	n/a	n/a	n/a	n/a	14	4	5	5	n/a	n/a	n/a	n/a	n/a
2659453	PROB	n/a	LTP268	ltpFR	13	n/a	n/a	n/a	n/a	n/a	n/a	n/a	16	5	2	9	n/a	n/a	n/a	n/a	n/a
2661262	PROB	n/a	LTP268	ltpFR	13	n/a	n/a	n/a	n/a	n/a	n/a	n/a	19	8	6	5	n/a	n/a	n/a	n/a	n/a
2663514	STOP	n/a	LTP268	ltpFR	13	n/a	n/a	n/a	n/a	n/a	n/a	n/a	n/a	n/a	n/a	n/a	n/a	n/a	n/a	n/a	n/a
2666482	REC_START	n/a	LTP268	ltpFR	13	9	n/a	n/a	n/a	n/a	n/a	n/a	n/a	0	0	0	n/a	n/a	n/a	n/a	n/a
2667998	REC_WORD	wordpools/wasnorm_wordpool_less_exclusions.txt	LTP268	ltpFR	13	9	0	PHILOSOPHER	1054	n/a	n/a	1	n/a	0	0	0	n/a	n/a	n/a	n/a	n/a
2668994	REC_WORD	wordpools/wasnorm_wordpool_less_exclusions.txt	LTP268	ltpFR	13	9	0	INVENTOR	743	n/a	n/a	1	n/a	0	0	0	n/a	n/a	n/a	n/a	n/a
2669986	REC_WORD	wordpools/wasnorm_wordpool_less_exclusions.txt	LTP268	ltpFR	13	9	0	WELL	1600	n/a	n/a	0	n/a	0	0	0	n/a	n/a	n/a	n/a	n/a
2676191	REC_WORD	wordpools/wasnorm_wordpool_less_exclusions.txt	LTP268	ltpFR	13	9	0	CARNIVAL	245	n/a	n/a	1	n/a	0	0	0	n/a	n/a	n/a	n/a	n/a
2677010	REC_WORD	wordpools/wasnorm_wordpool_less_exclusions.txt	LTP268	ltpFR	13	9	0	CIRCUS	311	n/a	n/a	1	n/a	0	0	0	n/a	n/a	n/a	n/a	n/a
2677979	REC_WORD	wordpools/wasnorm_wordpool_less_exclusions.txt	LTP268	ltpFR	13	9	0	SWAMP	1416	n/a	n/a	1	n/a	0	0	0	n/a	n/a	n/a	n/a	n/a
2680094	REC_WORD	wordpools/wasnorm_wordpool_less_exclusions.txt	LTP268	ltpFR	13	9	0	MONKEY	911	n/a	n/a	1	n/a	0	0	0	n/a	n/a	n/a	n/a	n/a
2680897	REC_WORD	wordpools/wasnorm_wordpool_less_exclusions.txt	LTP268	ltpFR	13	9	0	NECK	939	n/a	n/a	0	n/a	0	0	0	n/a	n/a	n/a	n/a	n/a
2681860	REC_WORD	wordpools/wasnorm_wordpool_less_exclusions.txt	LTP268	ltpFR	13	9	0	OVAL	990	n/a	n/a	0	n/a	0	0	0	n/a	n/a	n/a	n/a	n/a
2683634	REC_WORD	wordpools/wasnorm_wordpool_less_exclusions.txt	LTP268	ltpFR	13	9	0	DRAWING	494	n/a	n/a	0	n/a	0	0	0	n/a	n/a	n/a	n/a	n/a
2746918	WORD	wordpools/wasnorm_wordpool_less_exclusions.txt	LTP268	ltpFR	13	10	1	BAKER	71	n/a	n/a	1	n/a	0	0	0	0.57763671875	0.412841796875	1	lower	amplitud.ttf
2751034	WORD	wordpools/wasnorm_wordpool_less_exclusions.txt	LTP268	ltpFR	13	10	1	NIGHTGOWN	953	n/a	n/a	0	n/a	0	0	0	0.57763671875	0.412841796875	1	lower	amplitud.ttf
2755133	WORD	wordpools/wasnorm_wordpool_less_exclusions.txt	LTP268	ltpFR	13	10	1	MERMAID	887	n/a	n/a	1	n/a	0	0	0	0.57763671875	0.412841796875	1	lower	amplitud.ttf
2759047	WORD	wordpools/wasnorm_wordpool_less_exclusions.txt	LTP268	ltpFR	13	10	1	FURNITURE	616	n/a	n/a	1	n/a	0	0	0	0.57763671875	0.412841796875	1	lower	amplitud.ttf
2763228	WORD	wordpools/wasnorm_wordpool_less_exclusions.txt	LTP268	ltpFR	13	10	1	SEAT	1264	n/a	n/a	0	n/a	0	0	0	0.57763671875	0.412841796875	1	lower	amplitud.ttf
2767395	WORD	wordpools/wasnorm_wordpool_less_exclusions.txt	LTP268	ltpFR	13	10	1	TECHNICIAN	1443	n/a	n/a	1	n/a	0	0	0	0.57763671875	0.412841796875	1	lower	amplitud.ttf
2771443	WORD	wordpools/wasnorm_wordpool_less_exclusions.txt	LTP268	ltpFR	13	10	1	BASEBALL	93	n/a	n/a	0	n/a	0	0	0	0.57763671875	0.412841796875	1	lower	amplitud.ttf
2775292	WORD	wordpools/wasnorm_wordpool_less_exclusions.txt	LTP268	ltpFR	13	10	1	PORPOISE	1109	n/a	n/a	0	n/a	0	0	0	0.57763671875	0.412841796875	1	lower	amplitud.ttf
2779255	WORD	wordpools/wasnorm_wordpool_less_exclusions.txt	LTP268	ltpFR	13	10	1	THIGH	1457	n/a	n/a	0	n/a	0	0	0	0.57763671875	0.412841796875	1	lower	amplitud.ttf
2783405	WORD	wordpools/wasnorm_wordpool_less_exclusions.txt	LTP268	ltpFR	13	10	1	THICKET	1455	n/a	n/a	1	n/a	0	0	0	0.57763671875	0.412841796875	1	lower	amplitud.ttf
2787521	WORD	wordpools/wasnorm_wordpool_less_exclusions.txt	LTP268	ltpFR	13	10	1	ROOT	1210	n/a	n/a	0	n/a	0	0	0	0.57763671875	0.412841796875	1	lower	amplitud.ttf
2791419	WORD	wordpools/wasnorm_wordpool_less_exclusions.txt	LTP268	ltpFR	13	10	1	APRON	35	n/a	n/a	0	n/a	0	0	0	0.57763671875	0.412841796875	1	lower	amplitud.ttf
2795601	WORD	wordpools/wasnorm_wordpool_less_exclusions.txt	LTP268	ltpFR	13	10	1	HAMMOCK	681	n/a	n/a	0	n/a	0	0	0	0.57763671875	0.412841796875	1	lower	amplitud.ttf
2799432	WORD	wordpools/wasnorm_wordpool_less_exclusions.txt	LTP268	ltpFR	13	10	1	BLACKBERRY	132	n/a	n/a	0	n/a	0	0	0	0.57763671875	0.412841796875	1	lower	amplitud.ttf
2803564	WORD	wordpools/wasnorm_wordpool_less_exclusions.txt	LTP268	ltpFR	13	10	1	BREAD	170	n/a	n/a	1	n/a	0	0	0	0.57763671875	0.412841796875	1	lower	amplitud.ttf
2807513	WORD	wordpools/wasnorm_wordpool_less_exclusions.txt	LTP268	ltpFR	13	10	1	CHEF	290	n/a	n/a	1	n/a	0	0	0	0.57763671875	0.412841796875	1	lower	amplitud.ttf
2810524	START	n/a	LTP268	ltpFR	13	n/a	n/a	n/a	n/a	n/a	n/a	n/a	n/a	n/a	n/a	n/a	n/a	n/a	n/a	n/a	n/a
2811427	PROB	n/a	LTP268	ltpFR	13	n/a	n/a	n/a	n/a	n/a	n/a	n/a	16	8	1	7	n/a	n/a	n/a	n/a	n/a
2813971	PROB	n/a	LTP268	ltpFR	13	n/a	n/a	n/a	n/a	n/a	n/a	n/a	9	7	1	1	n/a	n/a	n/a	n/a	n/a
2815209	PROB	n/a	LTP268	ltpFR	13	n/a	n/a	n/a	n/a	n/a	n/a	n/a	7	2	1	4	n/a	n/a	n/a	n/a	n/a
2816779	PROB	n/a	LTP268	ltpFR	13	n/a	n/a	n/a	n/a	n/a	n/a	n/a	7	3	3	1	n/a	n/a	n/a	n/a	n/a
2818120	PROB	n/a	LTP268	ltpFR	13	n/a	n/a	n/a	n/a	n/a	n/a	n/a	13	6	1	5	n/a	n/a	n/a	n/a	n/a
2820629	PROB	n/a	LTP268	ltpFR	13	n/a	n/a	n/a	n/a	n/a	n/a	n/a	15	3	5	7	n/a	n/a	n/a	n/a	n/a
2824309	PROB	n/a	LTP268	ltpFR	13	n/a	n/a	n/a	n/a	n/a	n/a	n/a	7	2	4	1	n/a	n/a	n/a	n/a	n/a
2825842	STOP	n/a	LTP268	ltpFR	13	n/a	n/a	n/a	n/a	n/a	n/a	n/a	n/a	n/a	n/a	n/a	n/a	n/a	n/a	n/a	n/a
2828409	REC_START	n/a	LTP268	ltpFR	13	10	n/a	n/a	n/a	n/a	n/a	n/a	n/a	0	0	0	n/a	n/a	n/a	n/a	n/a
2830924	REC_WORD	wordpools/wasnorm_wordpool_less_exclusions.txt	LTP268	ltpFR	13	10	1	BAKER	71	n/a	n/a	1	n/a	0	0	0	n/a	n/a	n/a	n/a	n/a
2831782	REC_WORD	wordpools/wasnorm_wordpool_less_exclusions.txt	LTP268	ltpFR	13	10	1	NIGHTGOWN	953	n/a	n/a	0	n/a	0	0	0	n/a	n/a	n/a	n/a	n/a
2833333	REC_WORD	wordpools/wasnorm_wordpool_less_exclusions.txt	LTP268	ltpFR	13	10	1	MERMAID	887	n/a	n/a	1	n/a	0	0	0	n/a	n/a	n/a	n/a	n/a
2836011	REC_WORD	wordpools/wasnorm_wordpool_less_exclusions.txt	LTP268	ltpFR	13	10	1	TECHNICIAN	1443	n/a	n/a	1	n/a	0	0	0	n/a	n/a	n/a	n/a	n/a
2837939	REC_WORD	wordpools/wasnorm_wordpool_less_exclusions.txt	LTP268	ltpFR	13	10	1	FURNITURE	616	n/a	n/a	1	n/a	0	0	0	n/a	n/a	n/a	n/a	n/a
2838878	REC_WORD	wordpools/wasnorm_wordpool_less_exclusions.txt	LTP268	ltpFR	13	10	1	SEAT	1264	n/a	n/a	0	n/a	0	0	0	n/a	n/a	n/a	n/a	n/a
2839989	REC_WORD	wordpools/wasnorm_wordpool_less_exclusions.txt	LTP268	ltpFR	13	10	1	BASEBALL	93	n/a	n/a	0	n/a	0	0	0	n/a	n/a	n/a	n/a	n/a
2840979	REC_WORD	wordpools/wasnorm_wordpool_less_exclusions.txt	LTP268	ltpFR	13	10	1	PORPOISE	1109	n/a	n/a	0	n/a	0	0	0	n/a	n/a	n/a	n/a	n/a
2841954	REC_WORD	wordpools/wasnorm_wordpool_less_exclusions.txt	LTP268	ltpFR	13	10	1	THIGH	1457	n/a	n/a	0	n/a	0	0	0	n/a	n/a	n/a	n/a	n/a
2844907	REC_WORD	wordpools/wasnorm_wordpool_less_exclusions.txt	LTP268	ltpFR	13	10	1	THICKET	1455	n/a	n/a	1	n/a	0	0	0	n/a	n/a	n/a	n/a	n/a
2845979	REC_WORD	wordpools/wasnorm_wordpool_less_exclusions.txt	LTP268	ltpFR	13	10	1	ROOT	1210	n/a	n/a	0	n/a	0	0	0	n/a	n/a	n/a	n/a	n/a
2848226	REC_WORD	wordpools/wasnorm_wordpool_less_exclusions.txt	LTP268	ltpFR	13	10	1	HAMMOCK	681	n/a	n/a	0	n/a	0	0	0	n/a	n/a	n/a	n/a	n/a
2852577	REC_WORD	wordpools/wasnorm_wordpool_less_exclusions.txt	LTP268	ltpFR	13	10	1	BREAD	170	n/a	n/a	1	n/a	0	0	0	n/a	n/a	n/a	n/a	n/a
2909848	WORD	wordpools/wasnorm_wordpool_less_exclusions.txt	LTP268	ltpFR	13	11	0	FISH	571	n/a	n/a	0	n/a	0	0	0	0.422607421875	0.5869140625	0	upper	zerothre.ttf
2914063	WORD	wordpools/wasnorm_wordpool_less_exclusions.txt	LTP268	ltpFR	13	11	0	CRAB	397	n/a	n/a	0	n/a	0	0	0	0.422607421875	0.5869140625	0	upper	zerothre.ttf
2918164	WORD	wordpools/wasnorm_wordpool_less_exclusions.txt	LTP268	ltpFR	13	11	0	HARP	689	n/a	n/a	0	n/a	0	0	0	0.422607421875	0.5869140625	0	upper	zerothre.ttf
2921995	WORD	wordpools/wasnorm_wordpool_less_exclusions.txt	LTP268	ltpFR	13	11	1	FOE	587	n/a	n/a	0	n/a	0	0	0	0.57763671875	0.412841796875	1	lower	amplitud.ttf
2926044	WORD	wordpools/wasnorm_wordpool_less_exclusions.txt	LTP268	ltpFR	13	11	1	STRANGER	1389	n/a	n/a	1	n/a	0	0	0	0.57763671875	0.412841796875	1	lower	amplitud.ttf
2930209	WORD	wordpools/wasnorm_wordpool_less_exclusions.txt	LTP268	ltpFR	13	11	1	SCALLOP	1242	n/a	n/a	0	n/a	0	0	0	0.57763671875	0.412841796875	1	lower	amplitud.ttf
2934089	WORD	wordpools/wasnorm_wordpool_less_exclusions.txt	LTP268	ltpFR	13	11	0	CANDY	230	n/a	n/a	0	n/a	0	0	0	0.422607421875	0.5869140625	0	upper	zerothre.ttf
2938206	WORD	wordpools/wasnorm_wordpool_less_exclusions.txt	LTP268	ltpFR	13	11	0	BROCCOLI	176	n/a	n/a	0	n/a	0	0	0	0.422607421875	0.5869140625	0	upper	zerothre.ttf
2942104	WORD	wordpools/wasnorm_wordpool_less_exclusions.txt	LTP268	ltpFR	13	11	1	VINE	1568	n/a	n/a	0	n/a	0	0	0	0.57763671875	0.412841796875	1	lower	amplitud.ttf
2946103	WORD	wordpools/wasnorm_wordpool_less_exclusions.txt	LTP268	ltpFR	13	11	1	SHORE	1291	n/a	n/a	0	n/a	0	0	0	0.57763671875	0.412841796875	1	lower	amplitud.ttf
2950066	WORD	wordpools/wasnorm_wordpool_less_exclusions.txt	LTP268	ltpFR	13	11	1	SPICE	1350	n/a	n/a	0	n/a	0	0	0	0.57763671875	0.412841796875	1	lower	amplitud.ttf
2953949	WORD	wordpools/wasnorm_wordpool_less_exclusions.txt	LTP268	ltpFR	13	11	1	GARBAGE	622	n/a	n/a	0	n/a	0	0	0	0.57763671875	0.412841796875	1	lower	amplitud.ttf
2957777	WORD	wordpools/wasnorm_wordpool_less_exclusions.txt	LTP268	ltpFR	13	11	1	WINNER	1615	n/a	n/a	1	n/a	0	0	0	0.57763671875	0.412841796875	1	lower	amplitud.ttf
