mstime	trial_type	stim_file	subject	experiment	session	trial	item_name	item_num	list	answer	test_x	test_y	test_z
0	SESS_START	n/a	LTP258	ltpFR2	14	n/a	n/a	n/a	n/a	n/a	0	0	0
14179	START	n/a	LTP258	ltpFR2	14	n/a	n/a	n/a	-1	n/a	n/a	n/a	n/a
14212	PROB	n/a	LTP258	ltpFR2	14	n/a	n/a	n/a	-1	13	1	3	9
15494	PROB	n/a	LTP258	ltpFR2	14	n/a	n/a	n/a	-1	12	4	8	4
16841	PROB	n/a	LTP258	ltpFR2	14	n/a	n/a	n/a	-1	19	8	8	3
18788	PROB	n/a	LTP258	ltpFR2	14	n/a	n/a	n/a	-1	18	7	9	2
20136	PROB	n/a	LTP258	ltpFR2	14	n/a	n/a	n/a	-1	15	2	9	4
21834	PROB	n/a	LTP258	ltpFR2	14	n/a	n/a	n/a	-1	12	3	4	5
22816	PROB	n/a	LTP258	ltpFR2	14	n/a	n/a	n/a	-1	10	2	1	7
24214	PROB	n/a	LTP258	ltpFR2	14	n/a	n/a	n/a	-1	13	2	2	9
25169	STOP	n/a	LTP258	ltpFR2	14	n/a	n/a	n/a	-1	n/a	n/a	n/a	n/a
60594	DISTRACTOR	n/a	LTP258	ltpFR2	14	1	n/a	n/a	n/a	n/a	0	0	0
60594	START	n/a	LTP258	ltpFR2	14	n/a	n/a	n/a	1	n/a	n/a	n/a	n/a
60627	PROB	n/a	LTP258	ltpFR2	14	n/a	n/a	n/a	1	11	4	2	5
62074	PROB	n/a	LTP258	ltpFR2	14	n/a	n/a	n/a	1	17	6	4	7
63322	PROB	n/a	LTP258	ltpFR2	14	n/a	n/a	n/a	1	8	2	3	3
65019	PROB	n/a	LTP258	ltpFR2	14	n/a	n/a	n/a	1	10	3	1	3
66384	PROB	n/a	LTP258	ltpFR2	14	n/a	n/a	n/a	1	23	6	8	9
69396	PROB	n/a	LTP258	ltpFR2	14	n/a	n/a	n/a	1	18	4	9	5
70744	PROB	n/a	LTP258	ltpFR2	14	n/a	n/a	n/a	1	11	1	9	1
71677	PROB	n/a	LTP258	ltpFR2	14	n/a	n/a	n/a	1	7	1	4	2
73141	PROB	n/a	LTP258	ltpFR2	14	n/a	n/a	n/a	1	16	5	4	8
74389	PROB	n/a	LTP258	ltpFR2	14	n/a	n/a	n/a	1	18	8	9	1
75671	PROB	n/a	LTP258	ltpFR2	14	n/a	n/a	n/a	1	18	2	8	8
77384	PROB	n/a	LTP258	ltpFR2	14	n/a	n/a	n/a	1	10	1	5	4
78865	PROB	n/a	LTP258	ltpFR2	14	n/a	n/a	n/a	1	16	8	4	4
80197	PROB	n/a	LTP258	ltpFR2	14	n/a	n/a	n/a	1	13	9	1	3
81129	PROB	n/a	LTP258	ltpFR2	14	n/a	n/a	n/a	1	11	1	3	7
82027	PROB	n/a	LTP258	ltpFR2	14	n/a	n/a	n/a	1	12	4	7	1
83634	STOP	n/a	LTP258	ltpFR2	14	n/a	n/a	n/a	1	n/a	n/a	n/a	n/a
85540	WORD	wordpools/wasnorm_wordpool_576.txt	LTP258	ltpFR2	14	1	SHELTER	1282	n/a	n/a	0	0	0
88185	WORD	wordpools/wasnorm_wordpool_576.txt	LTP258	ltpFR2	14	1	VENUS	1557	n/a	n/a	0	0	0
90731	WORD	wordpools/wasnorm_wordpool_576.txt	LTP258	ltpFR2	14	1	FLUTE	585	n/a	n/a	0	0	0
93277	WORD	wordpools/wasnorm_wordpool_576.txt	LTP258	ltpFR2	14	1	DORM	488	n/a	n/a	0	0	0
95807	WORD	wordpools/wasnorm_wordpool_576.txt	LTP258	ltpFR2	14	1	MARS	873	n/a	n/a	0	0	0
98253	WORD	wordpools/wasnorm_wordpool_576.txt	LTP258	ltpFR2	14	1	PORK	1108	n/a	n/a	0	0	0
100683	WORD	wordpools/wasnorm_wordpool_576.txt	LTP258	ltpFR2	14	1	SAUSAGE	1238	n/a	n/a	0	0	0
103412	WORD	wordpools/wasnorm_wordpool_576.txt	LTP258	ltpFR2	14	1	ZEBRA	1635	n/a	n/a	0	0	0
105975	WORD	wordpools/wasnorm_wordpool_576.txt	LTP258	ltpFR2	14	1	PIANO	1057	n/a	n/a	0	0	0
108787	WORD	wordpools/wasnorm_wordpool_576.txt	LTP258	ltpFR2	14	1	CONCERT	360	n/a	n/a	0	0	0
111334	WORD	wordpools/wasnorm_wordpool_576.txt	LTP258	ltpFR2	14	1	PACKAGE	997	n/a	n/a	0	0	0
113946	WORD	wordpools/wasnorm_wordpool_576.txt	LTP258	ltpFR2	14	1	TWEEZERS	1526	n/a	n/a	0	0	0
116444	WORD	wordpools/wasnorm_wordpool_576.txt	LTP258	ltpFR2	14	1	SPIDER	1351	n/a	n/a	0	0	0
118989	WORD	wordpools/wasnorm_wordpool_576.txt	LTP258	ltpFR2	14	1	MATCH	878	n/a	n/a	0	0	0
121586	WORD	wordpools/wasnorm_wordpool_576.txt	LTP258	ltpFR2	14	1	MAPLE	866	n/a	n/a	0	0	0
124397	WORD	wordpools/wasnorm_wordpool_576.txt	LTP258	ltpFR2	14	1	WOMAN	1620	n/a	n/a	0	0	0
126844	WORD	wordpools/wasnorm_wordpool_576.txt	LTP258	ltpFR2	14	1	JUNGLE	764	n/a	n/a	0	0	0
129390	WORD	wordpools/wasnorm_wordpool_576.txt	LTP258	ltpFR2	14	1	HUMAN	726	n/a	n/a	0	0	0
132136	WORD	wordpools/wasnorm_wordpool_576.txt	LTP258	ltpFR2	14	1	CRIB	407	n/a	n/a	0	0	0
134882	WORD	wordpools/wasnorm_wordpool_576.txt	LTP258	ltpFR2	14	1	DANCER	437	n/a	n/a	0	0	0
137645	WORD	wordpools/wasnorm_wordpool_576.txt	LTP258	ltpFR2	14	1	PILOT	1070	n/a	n/a	0	0	0
140124	WORD	wordpools/wasnorm_wordpool_576.txt	LTP258	ltpFR2	14	1	SCOTCH	1251	n/a	n/a	0	0	0
142770	WORD	wordpools/wasnorm_wordpool_576.txt	LTP258	ltpFR2	14	1	ELBOW	520	n/a	n/a	0	0	0
145450	WORD	wordpools/wasnorm_wordpool_576.txt	LTP258	ltpFR2	14	1	RUST	1219	n/a	n/a	0	0	0
147064	START	n/a	LTP258	ltpFR2	14	n/a	n/a	n/a	2	n/a	n/a	n/a	n/a
148121	DISTRACTOR	n/a	LTP258	ltpFR2	14	1	n/a	n/a	n/a	n/a	0	0	0
148129	PROB	n/a	LTP258	ltpFR2	14	n/a	n/a	n/a	2	21	7	9	5
150460	PROB	n/a	LTP258	ltpFR2	14	n/a	n/a	n/a	2	19	4	7	8
151840	PROB	n/a	LTP258	ltpFR2	14	n/a	n/a	n/a	2	16	1	9	6
153188	PROB	n/a	LTP258	ltpFR2	14	n/a	n/a	n/a	2	15	2	4	9
154236	PROB	n/a	LTP258	ltpFR2	14	n/a	n/a	n/a	2	9	3	2	4
156200	PROB	n/a	LTP258	ltpFR2	14	n/a	n/a	n/a	2	13	5	7	1
158164	PROB	n/a	LTP258	ltpFR2	14	n/a	n/a	n/a	2	23	8	6	9
159379	PROB	n/a	LTP258	ltpFR2	14	n/a	n/a	n/a	2	13	1	9	3
160311	PROB	n/a	LTP258	ltpFR2	14	n/a	n/a	n/a	2	16	3	4	9
161460	PROB	n/a	LTP258	ltpFR2	14	n/a	n/a	n/a	2	23	7	9	7
162957	PROB	n/a	LTP258	ltpFR2	14	n/a	n/a	n/a	2	4	1	2	1
164421	PROB	n/a	LTP258	ltpFR2	14	n/a	n/a	n/a	2	20	6	6	8
166984	PROB	n/a	LTP258	ltpFR2	14	n/a	n/a	n/a	2	154	2	6	6
168415	PROB	n/a	LTP258	ltpFR2	14	n/a	n/a	n/a	2	24	9	8	7
169721	STOP	n/a	LTP258	ltpFR2	14	n/a	n/a	n/a	2	n/a	n/a	n/a	n/a
173009	REC_START	n/a	LTP258	ltpFR2	14	1	n/a	n/a	n/a	n/a	0	0	0
175322	REC_WORD	wordpools/wasnorm_wordpool_576.txt	LTP258	ltpFR2	14	1	CRIB	407	n/a	n/a	0	0	0
176020	REC_WORD	wordpools/wasnorm_wordpool_576.txt	LTP258	ltpFR2	14	1	DANCER	437	n/a	n/a	0	0	0
176715	REC_WORD	wordpools/wasnorm_wordpool_576.txt	LTP258	ltpFR2	14	1	PILOT	1070	n/a	n/a	0	0	0
177296	REC_WORD	wordpools/wasnorm_wordpool_576.txt	LTP258	ltpFR2	14	1	SCOTCH	1251	n/a	n/a	0	0	0
178133	REC_WORD	wordpools/wasnorm_wordpool_576.txt	LTP258	ltpFR2	14	1	ELBOW	520	n/a	n/a	0	0	0
179710	REC_WORD	wordpools/wasnorm_wordpool_576.txt	LTP258	ltpFR2	14	1	JUNGLE	764	n/a	n/a	0	0	0
180446	REC_WORD	wordpools/wasnorm_wordpool_576.txt	LTP258	ltpFR2	14	1	WOMAN	1620	n/a	n/a	0	0	0
181685	REC_WORD	wordpools/wasnorm_wordpool_576.txt	LTP258	ltpFR2	14	1	HUMAN	726	n/a	n/a	0	0	0
187676	REC_WORD	wordpools/wasnorm_wordpool_576.txt	LTP258	ltpFR2	14	1	SHELTER	1282	n/a	n/a	0	0	0
188521	REC_WORD	wordpools/wasnorm_wordpool_576.txt	LTP258	ltpFR2	14	1	VENUS	1557	n/a	n/a	0	0	0
189568	REC_WORD	wordpools/wasnorm_wordpool_576.txt	LTP258	ltpFR2	14	1	MARS	873	n/a	n/a	0	0	0
191538	REC_WORD	wordpools/wasnorm_wordpool_576.txt	LTP258	ltpFR2	14	1	FLUTE	585	n/a	n/a	0	0	0
194002	REC_WORD	wordpools/wasnorm_wordpool_576.txt	LTP258	ltpFR2	14	1	DORM	488	n/a	n/a	0	0	0
200766	REC_WORD	wordpools/wasnorm_wordpool_576.txt	LTP258	ltpFR2	14	1	ZEBRA	1635	n/a	n/a	0	0	0
201599	REC_WORD	wordpools/wasnorm_wordpool_576.txt	LTP258	ltpFR2	14	1	PORK	1108	n/a	n/a	0	0	0
202281	REC_WORD	wordpools/wasnorm_wordpool_576.txt	LTP258	ltpFR2	14	1	SAUSAGE	1238	n/a	n/a	0	0	0
263723	WORD	wordpools/wasnorm_wordpool_576.txt	LTP258	ltpFR2	14	2	TRACTOR	1493	n/a	n/a	0	0	0
266252	WORD	wordpools/wasnorm_wordpool_576.txt	LTP258	ltpFR2	14	2	CHEST	295	n/a	n/a	0	0	0
268682	WORD	wordpools/wasnorm_wordpool_576.txt	LTP258	ltpFR2	14	2	BREAST	171	n/a	n/a	0	0	0
271479	WORD	wordpools/wasnorm_wordpool_576.txt	LTP258	ltpFR2	14	2	TOMBSTONE	1478	n/a	n/a	0	0	0
274041	WORD	wordpools/wasnorm_wordpool_576.txt	LTP258	ltpFR2	14	2	LADY	794	n/a	n/a	0	0	0
276803	WORD	wordpools/wasnorm_wordpool_576.txt	LTP258	ltpFR2	14	2	ACTOR	5	n/a	n/a	0	0	0
279550	WORD	wordpools/wasnorm_wordpool_576.txt	LTP258	ltpFR2	14	2	SCISSORS	1250	n/a	n/a	0	0	0
282095	WORD	wordpools/wasnorm_wordpool_576.txt	LTP258	ltpFR2	14	2	PRINCESS	1125	n/a	n/a	0	0	0
284526	WORD	wordpools/wasnorm_wordpool_576.txt	LTP258	ltpFR2	14	2	QUARTER	1148	n/a	n/a	0	0	0
287338	WORD	wordpools/wasnorm_wordpool_576.txt	LTP258	ltpFR2	14	2	SHORTS	1293	n/a	n/a	0	0	0
289934	WORD	wordpools/wasnorm_wordpool_576.txt	LTP258	ltpFR2	14	2	LAPEL	800	n/a	n/a	0	0	0
292713	WORD	wordpools/wasnorm_wordpool_576.txt	LTP258	ltpFR2	14	2	SLOPE	1328	n/a	n/a	0	0	0
295510	WORD	wordpools/wasnorm_wordpool_576.txt	LTP258	ltpFR2	14	2	OINTMENT	974	n/a	n/a	0	0	0
297972	WORD	wordpools/wasnorm_wordpool_576.txt	LTP258	ltpFR2	14	2	WIDOW	1608	n/a	n/a	0	0	0
300684	WORD	wordpools/wasnorm_wordpool_576.txt	LTP258	ltpFR2	14	2	MUSTARD	935	n/a	n/a	0	0	0
303114	WORD	wordpools/wasnorm_wordpool_576.txt	LTP258	ltpFR2	14	2	MILDEW	893	n/a	n/a	0	0	0
305926	WORD	wordpools/wasnorm_wordpool_576.txt	LTP258	ltpFR2	14	2	ROBOT	1200	n/a	n/a	0	0	0
308507	WORD	wordpools/wasnorm_wordpool_576.txt	LTP258	ltpFR2	14	2	LADDER	793	n/a	n/a	0	0	0
311019	WORD	wordpools/wasnorm_wordpool_576.txt	LTP258	ltpFR2	14	2	SODA	1341	n/a	n/a	0	0	0
313549	WORD	wordpools/wasnorm_wordpool_576.txt	LTP258	ltpFR2	14	2	OUTFIT	988	n/a	n/a	0	0	0
316144	WORD	wordpools/wasnorm_wordpool_576.txt	LTP258	ltpFR2	14	2	PADDLE	1000	n/a	n/a	0	0	0
318608	WORD	wordpools/wasnorm_wordpool_576.txt	LTP258	ltpFR2	14	2	YACHT	1629	n/a	n/a	0	0	0
321370	WORD	wordpools/wasnorm_wordpool_576.txt	LTP258	ltpFR2	14	2	THIEF	1456	n/a	n/a	0	0	0
324049	WORD	wordpools/wasnorm_wordpool_576.txt	LTP258	ltpFR2	14	2	VALLEY	1545	n/a	n/a	0	0	0
325665	START	n/a	LTP258	ltpFR2	14	n/a	n/a	n/a	3	n/a	n/a	n/a	n/a
326614	DISTRACTOR	n/a	LTP258	ltpFR2	14	2	n/a	n/a	n/a	n/a	0	0	0
326630	PROB	n/a	LTP258	ltpFR2	14	n/a	n/a	n/a	3	16	9	6	1
327994	PROB	n/a	LTP258	ltpFR2	14	n/a	n/a	n/a	3	14	4	3	7
328892	PROB	n/a	LTP258	ltpFR2	14	n/a	n/a	n/a	3	16	2	8	6
330107	PROB	n/a	LTP258	ltpFR2	14	n/a	n/a	n/a	3	24	8	7	6
332588	PROB	n/a	LTP258	ltpFR2	14	n/a	n/a	n/a	3	13	4	5	4
333785	PROB	n/a	LTP258	ltpFR2	14	n/a	n/a	n/a	3	24	8	9	7
334767	PROB	n/a	LTP258	ltpFR2	14	n/a	n/a	n/a	3	12	3	7	2
336348	PROB	n/a	LTP258	ltpFR2	14	n/a	n/a	n/a	3	13	3	5	4
337712	PROB	n/a	LTP258	ltpFR2	14	n/a	n/a	n/a	3	22	9	8	5
340175	PROB	n/a	LTP258	ltpFR2	14	n/a	n/a	n/a	3	25	9	8	8
342988	PROB	n/a	LTP258	ltpFR2	14	n/a	n/a	n/a	3	16	9	3	4
344735	PROB	n/a	LTP258	ltpFR2	14	n/a	n/a	n/a	3	13	6	2	5
345917	PROB	n/a	LTP258	ltpFR2	14	n/a	n/a	n/a	3	12	1	2	9
347165	PROB	n/a	LTP258	ltpFR2	14	n/a	n/a	n/a	3	16	6	7	3
348161	STOP	n/a	LTP258	ltpFR2	14	n/a	n/a	n/a	3	n/a	n/a	n/a	n/a
351527	REC_START	n/a	LTP258	ltpFR2	14	2	n/a	n/a	n/a	n/a	0	0	0
357163	REC_WORD	wordpools/wasnorm_wordpool_576.txt	LTP258	ltpFR2	14	2	ACTOR	5	n/a	n/a	0	0	0
358984	REC_WORD	wordpools/wasnorm_wordpool_576.txt	LTP258	ltpFR2	14	2	TOMBSTONE	1478	n/a	n/a	0	0	0
360092	REC_WORD	wordpools/wasnorm_wordpool_576.txt	LTP258	ltpFR2	14	2	WIDOW	1608	n/a	n/a	0	0	0
361870	REC_WORD	wordpools/wasnorm_wordpool_576.txt	LTP258	ltpFR2	14	2	BREAST	171	n/a	n/a	0	0	0
372110	REC_WORD	wordpools/wasnorm_wordpool_576.txt	LTP258	ltpFR2	14	2	LAPEL	800	n/a	n/a	0	0	0
372993	REC_WORD	wordpools/wasnorm_wordpool_576.txt	LTP258	ltpFR2	14	2	SLOPE	1328	n/a	n/a	0	0	0
374083	REC_WORD	wordpools/wasnorm_wordpool_576.txt	LTP258	ltpFR2	14	2	OINTMENT	974	n/a	n/a	0	0	0
442223	DISTRACTOR	n/a	LTP258	ltpFR2	14	3	n/a	n/a	n/a	n/a	0	0	0
442223	START	n/a	LTP258	ltpFR2	14	n/a	n/a	n/a	4	n/a	n/a	n/a	n/a
442256	PROB	n/a	LTP258	ltpFR2	14	n/a	n/a	n/a	4	10	3	5	2
444220	PROB	n/a	LTP258	ltpFR2	14	n/a	n/a	n/a	4	24	8	7	9
446200	PROB	n/a	LTP258	ltpFR2	14	n/a	n/a	n/a	4	18	3	8	7
447781	PROB	n/a	LTP258	ltpFR2	14	n/a	n/a	n/a	4	13	7	5	1
450462	PROB	n/a	LTP258	ltpFR2	14	n/a	n/a	n/a	4	16	4	3	9
451627	PROB	n/a	LTP258	ltpFR2	14	n/a	n/a	n/a	4	15	3	9	3
452890	PROB	n/a	LTP258	ltpFR2	14	n/a	n/a	n/a	4	24	6	9	9
454738	PROB	n/a	LTP258	ltpFR2	14	n/a	n/a	n/a	4	18	6	5	7
456036	PROB	n/a	LTP258	ltpFR2	14	n/a	n/a	n/a	4	13	1	4	8
457101	PROB	n/a	LTP258	ltpFR2	14	n/a	n/a	n/a	4	13	1	3	9
458782	PROB	n/a	LTP258	ltpFR2	14	n/a	n/a	n/a	4	21	9	3	9
460229	PROB	n/a	LTP258	ltpFR2	14	n/a	n/a	n/a	4	18	9	2	8
461195	PROB	n/a	LTP258	ltpFR2	14	n/a	n/a	n/a	4	16	9	5	1
462560	PROB	n/a	LTP258	ltpFR2	14	n/a	n/a	n/a	4	18	8	5	5
463891	PROB	n/a	LTP258	ltpFR2	14	n/a	n/a	n/a	4	10	1	3	6
465530	STOP	n/a	LTP258	ltpFR2	14	n/a	n/a	n/a	4	n/a	n/a	n/a	n/a
467069	WORD	wordpools/wasnorm_wordpool_576.txt	LTP258	ltpFR2	14	3	HONEY	713	n/a	n/a	0	0	0
469715	WORD	wordpools/wasnorm_wordpool_576.txt	LTP258	ltpFR2	14	3	CARRIAGE	248	n/a	n/a	0	0	0
472162	WORD	wordpools/wasnorm_wordpool_576.txt	LTP258	ltpFR2	14	3	GRAVEL	659	n/a	n/a	0	0	0
474791	WORD	wordpools/wasnorm_wordpool_576.txt	LTP258	ltpFR2	14	3	HOOD	714	n/a	n/a	0	0	0
477420	WORD	wordpools/wasnorm_wordpool_576.txt	LTP258	ltpFR2	14	3	COCOON	339	n/a	n/a	0	0	0
479900	WORD	wordpools/wasnorm_wordpool_576.txt	LTP258	ltpFR2	14	3	DONKEY	484	n/a	n/a	0	0	0
482447	WORD	wordpools/wasnorm_wordpool_576.txt	LTP258	ltpFR2	14	3	FIREMAN	569	n/a	n/a	0	0	0
485126	WORD	wordpools/wasnorm_wordpool_576.txt	LTP258	ltpFR2	14	3	RIFLE	1192	n/a	n/a	0	0	0
487639	WORD	wordpools/wasnorm_wordpool_576.txt	LTP258	ltpFR2	14	3	BULLET	194	n/a	n/a	0	0	0
490118	WORD	wordpools/wasnorm_wordpool_576.txt	LTP258	ltpFR2	14	3	SHOULDER	1294	n/a	n/a	0	0	0
492582	WORD	wordpools/wasnorm_wordpool_576.txt	LTP258	ltpFR2	14	3	HEADBAND	696	n/a	n/a	0	0	0
495260	WORD	wordpools/wasnorm_wordpool_576.txt	LTP258	ltpFR2	14	3	OUTLAW	989	n/a	n/a	0	0	0
497873	WORD	wordpools/wasnorm_wordpool_576.txt	LTP258	ltpFR2	14	3	SKILLET	1317	n/a	n/a	0	0	0
500403	WORD	wordpools/wasnorm_wordpool_576.txt	LTP258	ltpFR2	14	3	APRON	35	n/a	n/a	0	0	0
503099	WORD	wordpools/wasnorm_wordpool_576.txt	LTP258	ltpFR2	14	3	HORNET	718	n/a	n/a	0	0	0
505663	WORD	wordpools/wasnorm_wordpool_576.txt	LTP258	ltpFR2	14	3	CASHEW	253	n/a	n/a	0	0	0
508175	WORD	wordpools/wasnorm_wordpool_576.txt	LTP258	ltpFR2	14	3	QUEEN	1149	n/a	n/a	0	0	0
510754	WORD	wordpools/wasnorm_wordpool_576.txt	LTP258	ltpFR2	14	3	CAPTIVE	240	n/a	n/a	0	0	0
513200	WORD	wordpools/wasnorm_wordpool_576.txt	LTP258	ltpFR2	14	3	POLICE	1098	n/a	n/a	0	0	0
515631	WORD	wordpools/wasnorm_wordpool_576.txt	LTP258	ltpFR2	14	3	SCARF	1246	n/a	n/a	0	0	0
518259	WORD	wordpools/wasnorm_wordpool_576.txt	LTP258	ltpFR2	14	3	ORANGE	980	n/a	n/a	0	0	0
521022	WORD	wordpools/wasnorm_wordpool_576.txt	LTP258	ltpFR2	14	3	BLACKBOARD	133	n/a	n/a	0	0	0
523751	WORD	wordpools/wasnorm_wordpool_576.txt	LTP258	ltpFR2	14	3	BRICK	172	n/a	n/a	0	0	0
526231	WORD	wordpools/wasnorm_wordpool_576.txt	LTP258	ltpFR2	14	3	SIDEWALK	1303	n/a	n/a	0	0	0
527845	START	n/a	LTP258	ltpFR2	14	n/a	n/a	n/a	5	n/a	n/a	n/a	n/a
529013	DISTRACTOR	n/a	LTP258	ltpFR2	14	3	n/a	n/a	n/a	n/a	0	0	0
529027	PROB	n/a	LTP258	ltpFR2	14	n/a	n/a	n/a	5	15	6	4	5
530525	PROB	n/a	LTP258	ltpFR2	14	n/a	n/a	n/a	5	15	8	7	6
532372	PROB	n/a	LTP258	ltpFR2	14	n/a	n/a	n/a	5	16	5	2	9
533471	PROB	n/a	LTP258	ltpFR2	14	n/a	n/a	n/a	5	6	1	4	1
534536	PROB	n/a	LTP258	ltpFR2	14	n/a	n/a	n/a	5	5	2	1	2
535733	PROB	n/a	LTP258	ltpFR2	14	n/a	n/a	n/a	5	17	7	1	9
537248	PROB	n/a	LTP258	ltpFR2	14	n/a	n/a	n/a	5	18	7	4	7
539028	PROB	n/a	LTP258	ltpFR2	14	n/a	n/a	n/a	5	12	9	1	2
539927	PROB	n/a	LTP258	ltpFR2	14	n/a	n/a	n/a	5	6	1	2	3
540842	PROB	n/a	LTP258	ltpFR2	14	n/a	n/a	n/a	5	13	6	3	4
542307	PROB	n/a	LTP258	ltpFR2	14	n/a	n/a	n/a	5	18	1	8	9
543705	PROB	n/a	LTP258	ltpFR2	14	n/a	n/a	n/a	5	20	8	5	7
546452	PROB	n/a	LTP258	ltpFR2	14	n/a	n/a	n/a	5	10	2	7	1
547682	PROB	n/a	LTP258	ltpFR2	14	n/a	n/a	n/a	5	13	3	4	4
549030	PROB	n/a	LTP258	ltpFR2	14	n/a	n/a	n/a	5	17	6	3	8
550578	STOP	n/a	LTP258	ltpFR2	14	n/a	n/a	n/a	5	n/a	n/a	n/a	n/a
553641	REC_START	n/a	LTP258	ltpFR2	14	3	n/a	n/a	n/a	n/a	0	0	0
555980	REC_WORD	wordpools/wasnorm_wordpool_576.txt	LTP258	ltpFR2	14	3	BRICK	172	n/a	n/a	0	0	0
556615	REC_WORD	wordpools/wasnorm_wordpool_576.txt	LTP258	ltpFR2	14	3	SIDEWALK	1303	n/a	n/a	0	0	0
558172	REC_WORD	wordpools/wasnorm_wordpool_576.txt	LTP258	ltpFR2	14	3	SCARF	1246	n/a	n/a	0	0	0
559121	REC_WORD	wordpools/wasnorm_wordpool_576.txt	LTP258	ltpFR2	14	3	ORANGE	980	n/a	n/a	0	0	0
560394	REC_WORD	wordpools/wasnorm_wordpool_576.txt	LTP258	ltpFR2	14	3	POLICE	1098	n/a	n/a	0	0	0
566819	REC_WORD	wordpools/wasnorm_wordpool_576.txt	LTP258	ltpFR2	14	3	QUEEN	1149	n/a	n/a	0	0	0
567523	REC_WORD	wordpools/wasnorm_wordpool_576.txt	LTP258	ltpFR2	14	3	CASHEW	253	n/a	n/a	0	0	0
568870	REC_WORD	wordpools/wasnorm_wordpool_576.txt	LTP258	ltpFR2	14	3	OUTLAW	989	n/a	n/a	0	0	0
571032	REC_WORD	wordpools/wasnorm_wordpool_576.txt	LTP258	ltpFR2	14	3	APRON	35	n/a	n/a	0	0	0
572143	REC_WORD	wordpools/wasnorm_wordpool_576.txt	LTP258	ltpFR2	14	3	SKILLET	1317	n/a	n/a	0	0	0
579278	REC_WORD	wordpools/wasnorm_wordpool_576.txt	LTP258	ltpFR2	14	3	SHOULDER	1294	n/a	n/a	0	0	0
580156	REC_WORD	wordpools/wasnorm_wordpool_576.txt	LTP258	ltpFR2	14	3	DONKEY	484	n/a	n/a	0	0	0
581124	REC_WORD	wordpools/wasnorm_wordpool_576.txt	LTP258	ltpFR2	14	3	BULLET	194	n/a	n/a	0	0	0
581699	REC_WORD	wordpools/wasnorm_wordpool_576.txt	LTP258	ltpFR2	14	3	RIFLE	1192	n/a	n/a	0	0	0
582954	REC_WORD	wordpools/wasnorm_wordpool_576.txt	LTP258	ltpFR2	14	3	FIREMAN	569	n/a	n/a	0	0	0
584096	REC_WORD	wordpools/wasnorm_wordpool_576.txt	LTP258	ltpFR2	14	3	HOOD	714	n/a	n/a	0	0	0
596131	REC_WORD	wordpools/wasnorm_wordpool_576.txt	LTP258	ltpFR2	14	3	GRAVEL	659	n/a	n/a	0	0	0
597410	REC_WORD	wordpools/wasnorm_wordpool_576.txt	LTP258	ltpFR2	14	3	HONEY	713	n/a	n/a	0	0	0
598187	REC_WORD	wordpools/wasnorm_wordpool_576.txt	LTP258	ltpFR2	14	3	CARRIAGE	248	n/a	n/a	0	0	0
644321	WORD	wordpools/wasnorm_wordpool_576.txt	LTP258	ltpFR2	14	4	SPARROW	1347	n/a	n/a	0	0	0
646967	WORD	wordpools/wasnorm_wordpool_576.txt	LTP258	ltpFR2	14	4	SILK	1307	n/a	n/a	0	0	0
649431	WORD	wordpools/wasnorm_wordpool_576.txt	LTP258	ltpFR2	14	4	FLIPPER	580	n/a	n/a	0	0	0
652010	WORD	wordpools/wasnorm_wordpool_576.txt	LTP258	ltpFR2	14	4	BEAKER	104	n/a	n/a	0	0	0
654722	WORD	wordpools/wasnorm_wordpool_576.txt	LTP258	ltpFR2	14	4	ATLAS	53	n/a	n/a	0	0	0
657352	WORD	wordpools/wasnorm_wordpool_576.txt	LTP258	ltpFR2	14	4	ROBIN	1199	n/a	n/a	0	0	0
659831	WORD	wordpools/wasnorm_wordpool_576.txt	LTP258	ltpFR2	14	4	SCARECROW	1245	n/a	n/a	0	0	0
662278	WORD	wordpools/wasnorm_wordpool_576.txt	LTP258	ltpFR2	14	4	PLAYGROUND	1087	n/a	n/a	0	0	0
664940	WORD	wordpools/wasnorm_wordpool_576.txt	LTP258	ltpFR2	14	4	WRENCH	1625	n/a	n/a	0	0	0
667403	WORD	wordpools/wasnorm_wordpool_576.txt	LTP258	ltpFR2	14	4	ATOM	55	n/a	n/a	0	0	0
669900	WORD	wordpools/wasnorm_wordpool_576.txt	LTP258	ltpFR2	14	4	YARN	1631	n/a	n/a	0	0	0
672530	WORD	wordpools/wasnorm_wordpool_576.txt	LTP258	ltpFR2	14	4	SEAGULL	1261	n/a	n/a	0	0	0
675308	WORD	wordpools/wasnorm_wordpool_576.txt	LTP258	ltpFR2	14	4	WITNESS	1618	n/a	n/a	0	0	0
677871	WORD	wordpools/wasnorm_wordpool_576.txt	LTP258	ltpFR2	14	4	GLOBE	641	n/a	n/a	0	0	0
680401	WORD	wordpools/wasnorm_wordpool_576.txt	LTP258	ltpFR2	14	4	LABEL	790	n/a	n/a	0	0	0
682997	WORD	wordpools/wasnorm_wordpool_576.txt	LTP258	ltpFR2	14	4	CURTAIN	427	n/a	n/a	0	0	0
685776	WORD	wordpools/wasnorm_wordpool_576.txt	LTP258	ltpFR2	14	4	WINDOW	1611	n/a	n/a	0	0	0
688523	WORD	wordpools/wasnorm_wordpool_576.txt	LTP258	ltpFR2	14	4	HOOK	715	n/a	n/a	0	0	0
691168	WORD	wordpools/wasnorm_wordpool_576.txt	LTP258	ltpFR2	14	4	SALMON	1227	n/a	n/a	0	0	0
693831	WORD	wordpools/wasnorm_wordpool_576.txt	LTP258	ltpFR2	14	4	RAZOR	1171	n/a	n/a	0	0	0
696277	WORD	wordpools/wasnorm_wordpool_576.txt	LTP258	ltpFR2	14	4	BUTCHER	203	n/a	n/a	0	0	0
698923	WORD	wordpools/wasnorm_wordpool_576.txt	LTP258	ltpFR2	14	4	MEDAL	885	n/a	n/a	0	0	0
701470	WORD	wordpools/wasnorm_wordpool_576.txt	LTP258	ltpFR2	14	4	LEADER	807	n/a	n/a	0	0	0
704282	WORD	wordpools/wasnorm_wordpool_576.txt	LTP258	ltpFR2	14	4	SPOUSE	1358	n/a	n/a	0	0	0
705896	START	n/a	LTP258	ltpFR2	14	n/a	n/a	n/a	6	n/a	n/a	n/a	n/a
706710	DISTRACTOR	n/a	LTP258	ltpFR2	14	4	n/a	n/a	n/a	n/a	0	0	0
706711	PROB	n/a	LTP258	ltpFR2	14	n/a	n/a	n/a	6	16	2	9	5
708143	PROB	n/a	LTP258	ltpFR2	14	n/a	n/a	n/a	6	15	3	5	7
709075	PROB	n/a	LTP258	ltpFR2	14	n/a	n/a	n/a	6	16	7	3	5
711820	PROB	n/a	LTP258	ltpFR2	14	n/a	n/a	n/a	6	17	4	7	6
713784	PROB	n/a	LTP258	ltpFR2	14	n/a	n/a	n/a	6	1	5	1	5
714716	PROB	n/a	LTP258	ltpFR2	14	n/a	n/a	n/a	6	8	5	2	1
716397	PROB	n/a	LTP258	ltpFR2	14	n/a	n/a	n/a	6	22	9	6	7
718843	PROB	n/a	LTP258	ltpFR2	14	n/a	n/a	n/a	6	12	2	1	9
719875	PROB	n/a	LTP258	ltpFR2	14	n/a	n/a	n/a	6	18	6	4	8
720807	PROB	n/a	LTP258	ltpFR2	14	n/a	n/a	n/a	6	12	7	1	4
722238	PROB	n/a	LTP258	ltpFR2	14	n/a	n/a	n/a	6	11	7	2	2
723853	PROB	n/a	LTP258	ltpFR2	14	n/a	n/a	n/a	6	10	6	1	3
725250	PROB	n/a	LTP258	ltpFR2	14	n/a	n/a	n/a	6	10	5	4	1
726166	PROB	n/a	LTP258	ltpFR2	14	n/a	n/a	n/a	6	9	1	3	5
727281	PROB	n/a	LTP258	ltpFR2	14	n/a	n/a	n/a	6	12	4	4	4
728379	PROB	n/a	LTP258	ltpFR2	14	n/a	n/a	n/a	6	16	2	6	8
729602	STOP	n/a	LTP258	ltpFR2	14	n/a	n/a	n/a	6	n/a	n/a	n/a	n/a
731774	REC_START	n/a	LTP258	ltpFR2	14	4	n/a	n/a	n/a	n/a	0	0	0
734447	REC_WORD	wordpools/wasnorm_wordpool_576.txt	LTP258	ltpFR2	14	4	BUTCHER	203	n/a	n/a	0	0	0
735078	REC_WORD	wordpools/wasnorm_wordpool_576.txt	LTP258	ltpFR2	14	4	RAZOR	1171	n/a	n/a	0	0	0
736950	REC_WORD	wordpools/wasnorm_wordpool_576.txt	LTP258	ltpFR2	14	4	LABEL	790	n/a	n/a	0	0	0
737762	REC_WORD	wordpools/wasnorm_wordpool_576.txt	LTP258	ltpFR2	14	4	GLOBE	641	n/a	n/a	0	0	0
738514	REC_WORD	wordpools/wasnorm_wordpool_576.txt	LTP258	ltpFR2	14	4	WINDOW	1611	n/a	n/a	0	0	0
739210	REC_WORD	wordpools/wasnorm_wordpool_576.txt	LTP258	ltpFR2	14	4	SEAGULL	1261	n/a	n/a	0	0	0
742942	REC_WORD	wordpools/wasnorm_wordpool_576.txt	LTP258	ltpFR2	14	4	WITNESS	1618	n/a	n/a	0	0	0
748553	REC_WORD	wordpools/wasnorm_wordpool_576.txt	LTP258	ltpFR2	14	4	SCARECROW	1245	n/a	n/a	0	0	0
749504	REC_WORD	wordpools/wasnorm_wordpool_576.txt	LTP258	ltpFR2	14	4	PLAYGROUND	1087	n/a	n/a	0	0	0
750458	REC_WORD	wordpools/wasnorm_wordpool_576.txt	LTP258	ltpFR2	14	4	ROBIN	1199	n/a	n/a	0	0	0
754516	REC_WORD	wordpools/wasnorm_wordpool_576.txt	LTP258	ltpFR2	14	4	ATLAS	53	n/a	n/a	0	0	0
755410	REC_WORD	wordpools/wasnorm_wordpool_576.txt	LTP258	ltpFR2	14	4	SILK	1307	n/a	n/a	0	0	0
756281	REC_WORD	wordpools/wasnorm_wordpool_576.txt	LTP258	ltpFR2	14	4	FLIPPER	580	n/a	n/a	0	0	0
758459	REC_WORD	wordpools/wasnorm_wordpool_576.txt	LTP258	ltpFR2	14	4	SPARROW	1347	n/a	n/a	0	0	0
773087	REC_WORD	wordpools/wasnorm_wordpool_576.txt	LTP258	ltpFR2	14	4	ATOM	55	n/a	n/a	0	0	0
822456	DISTRACTOR	n/a	LTP258	ltpFR2	14	5	n/a	n/a	n/a	n/a	0	0	0
822457	START	n/a	LTP258	ltpFR2	14	n/a	n/a	n/a	7	n/a	n/a	n/a	n/a
822490	PROB	n/a	LTP258	ltpFR2	14	n/a	n/a	n/a	7	10	3	1	6
823986	PROB	n/a	LTP258	ltpFR2	14	n/a	n/a	n/a	7	8	6	1	1
824885	PROB	n/a	LTP258	ltpFR2	14	n/a	n/a	n/a	7	18	9	3	6
826200	PROB	n/a	LTP258	ltpFR2	14	n/a	n/a	n/a	7	12	5	1	6
827315	PROB	n/a	LTP258	ltpFR2	14	n/a	n/a	n/a	7	10	4	1	5
828413	PROB	n/a	LTP258	ltpFR2	14	n/a	n/a	n/a	7	11	4	6	1
829446	PROB	n/a	LTP258	ltpFR2	14	n/a	n/a	n/a	7	12	5	3	4
830528	PROB	n/a	LTP258	ltpFR2	14	n/a	n/a	n/a	7	15	9	5	1
831593	PROB	n/a	LTP258	ltpFR2	14	n/a	n/a	n/a	7	11	3	3	5
834021	PROB	n/a	LTP258	ltpFR2	14	n/a	n/a	n/a	7	15	4	4	7
835869	PROB	n/a	LTP258	ltpFR2	14	n/a	n/a	n/a	7	12	2	4	6
836850	PROB	n/a	LTP258	ltpFR2	14	n/a	n/a	n/a	7	16	7	8	1
838516	PROB	n/a	LTP258	ltpFR2	14	n/a	n/a	n/a	7	11	1	5	5
839363	PROB	n/a	LTP258	ltpFR2	14	n/a	n/a	n/a	7	15	5	8	2
840662	PROB	n/a	LTP258	ltpFR2	14	n/a	n/a	n/a	7	20	9	5	6
842093	PROB	n/a	LTP258	ltpFR2	14	n/a	n/a	n/a	7	12	2	1	9
843041	PROB	n/a	LTP258	ltpFR2	14	n/a	n/a	n/a	7	10	3	6	1
844490	PROB	n/a	LTP258	ltpFR2	14	n/a	n/a	n/a	7	10	6	2	1
845297	STOP	n/a	LTP258	ltpFR2	14	n/a	n/a	n/a	7	n/a	n/a	n/a	n/a
847669	WORD	wordpools/wasnorm_wordpool_576.txt	LTP258	ltpFR2	14	5	PLUTO	1092	n/a	n/a	0	0	0
850330	WORD	wordpools/wasnorm_wordpool_576.txt	LTP258	ltpFR2	14	5	BACON	67	n/a	n/a	0	0	0
852793	WORD	wordpools/wasnorm_wordpool_576.txt	LTP258	ltpFR2	14	5	PREACHER	1119	n/a	n/a	0	0	0
855574	WORD	wordpools/wasnorm_wordpool_576.txt	LTP258	ltpFR2	14	5	JAPAN	749	n/a	n/a	0	0	0
858335	WORD	wordpools/wasnorm_wordpool_576.txt	LTP258	ltpFR2	14	5	OYSTER	995	n/a	n/a	0	0	0
860981	WORD	wordpools/wasnorm_wordpool_576.txt	LTP258	ltpFR2	14	5	CORAL	378	n/a	n/a	0	0	0
863528	WORD	wordpools/wasnorm_wordpool_576.txt	LTP258	ltpFR2	14	5	BEEF	113	n/a	n/a	0	0	0
866073	WORD	wordpools/wasnorm_wordpool_576.txt	LTP258	ltpFR2	14	5	CLOUD	328	n/a	n/a	0	0	0
868621	WORD	wordpools/wasnorm_wordpool_576.txt	LTP258	ltpFR2	14	5	CANAL	226	n/a	n/a	0	0	0
871399	WORD	wordpools/wasnorm_wordpool_576.txt	LTP258	ltpFR2	14	5	MARSH	874	n/a	n/a	0	0	0
873995	WORD	wordpools/wasnorm_wordpool_576.txt	LTP258	ltpFR2	14	5	GLOVE	642	n/a	n/a	0	0	0
876509	WORD	wordpools/wasnorm_wordpool_576.txt	LTP258	ltpFR2	14	5	EUROPE	541	n/a	n/a	0	0	0
879204	WORD	wordpools/wasnorm_wordpool_576.txt	LTP258	ltpFR2	14	5	SCRIBBLE	1256	n/a	n/a	0	0	0
881668	WORD	wordpools/wasnorm_wordpool_576.txt	LTP258	ltpFR2	14	5	STREAM	1392	n/a	n/a	0	0	0
884097	WORD	wordpools/wasnorm_wordpool_576.txt	LTP258	ltpFR2	14	5	SOFTBALL	1343	n/a	n/a	0	0	0
886859	WORD	wordpools/wasnorm_wordpool_576.txt	LTP258	ltpFR2	14	5	SALAD	1224	n/a	n/a	0	0	0
889322	WORD	wordpools/wasnorm_wordpool_576.txt	LTP258	ltpFR2	14	5	CABBAGE	210	n/a	n/a	0	0	0
891802	WORD	wordpools/wasnorm_wordpool_576.txt	LTP258	ltpFR2	14	5	HIKER	708	n/a	n/a	0	0	0
894398	WORD	wordpools/wasnorm_wordpool_576.txt	LTP258	ltpFR2	14	5	SPOOL	1356	n/a	n/a	0	0	0
897210	WORD	wordpools/wasnorm_wordpool_576.txt	LTP258	ltpFR2	14	5	MASK	876	n/a	n/a	0	0	0
899757	WORD	wordpools/wasnorm_wordpool_576.txt	LTP258	ltpFR2	14	5	VIRUS	1572	n/a	n/a	0	0	0
902403	WORD	wordpools/wasnorm_wordpool_576.txt	LTP258	ltpFR2	14	5	FRUIT	610	n/a	n/a	0	0	0
905065	WORD	wordpools/wasnorm_wordpool_576.txt	LTP258	ltpFR2	14	5	SHERIFF	1284	n/a	n/a	0	0	0
907845	WORD	wordpools/wasnorm_wordpool_576.txt	LTP258	ltpFR2	14	5	CLIMBER	323	n/a	n/a	0	0	0
909460	START	n/a	LTP258	ltpFR2	14	n/a	n/a	n/a	8	n/a	n/a	n/a	n/a
910416	DISTRACTOR	n/a	LTP258	ltpFR2	14	5	n/a	n/a	n/a	n/a	0	0	0
910424	PROB	n/a	LTP258	ltpFR2	14	n/a	n/a	n/a	8	13	3	2	8
911772	PROB	n/a	LTP258	ltpFR2	14	n/a	n/a	n/a	8	12	5	4	3
913303	PROB	n/a	LTP258	ltpFR2	14	n/a	n/a	n/a	8	10	3	2	5
914552	PROB	n/a	LTP258	ltpFR2	14	n/a	n/a	n/a	8	18	6	6	6
915999	PROB	n/a	LTP258	ltpFR2	14	n/a	n/a	n/a	8	19	7	4	8
917598	PROB	n/a	LTP258	ltpFR2	14	n/a	n/a	n/a	8	25	9	9	7
919628	PROB	n/a	LTP258	ltpFR2	14	n/a	n/a	n/a	8	14	7	1	9
920942	PROB	n/a	LTP258	ltpFR2	14	n/a	n/a	n/a	8	11	4	1	6
922256	PROB	n/a	LTP258	ltpFR2	14	n/a	n/a	n/a	8	23	7	7	9
924187	PROB	n/a	LTP258	ltpFR2	14	n/a	n/a	n/a	8	22	6	6	9
925519	PROB	n/a	LTP258	ltpFR2	14	n/a	n/a	n/a	8	15	4	4	7
927433	PROB	n/a	LTP258	ltpFR2	14	n/a	n/a	n/a	8	1	4	2	8
930061	PROB	n/a	LTP258	ltpFR2	14	n/a	n/a	n/a	8	20	8	9	3
932969	STOP	n/a	LTP258	ltpFR2	14	n/a	n/a	n/a	8	n/a	n/a	n/a	n/a
935237	REC_START	n/a	LTP258	ltpFR2	14	5	n/a	n/a	n/a	n/a	0	0	0
946739	REC_WORD	wordpools/wasnorm_wordpool_576.txt	LTP258	ltpFR2	14	5	CANAL	226	n/a	n/a	0	0	0
947412	REC_WORD	wordpools/wasnorm_wordpool_576.txt	LTP258	ltpFR2	14	5	MARSH	874	n/a	n/a	0	0	0
948171	REC_WORD	wordpools/wasnorm_wordpool_576.txt	LTP258	ltpFR2	14	5	GLOVE	642	n/a	n/a	0	0	0
948950	REC_WORD	wordpools/wasnorm_wordpool_576.txt	LTP258	ltpFR2	14	5	EUROPE	541	n/a	n/a	0	0	0
954721	REC_WORD	wordpools/wasnorm_wordpool_576.txt	LTP258	ltpFR2	14	5	HIKER	708	n/a	n/a	0	0	0
955605	REC_WORD	wordpools/wasnorm_wordpool_576.txt	LTP258	ltpFR2	14	5	CLIMBER	323	n/a	n/a	0	0	0
956367	REC_WORD	wordpools/wasnorm_wordpool_576.txt	LTP258	ltpFR2	14	5	MASK	876	n/a	n/a	0	0	0
957152	REC_WORD	wordpools/wasnorm_wordpool_576.txt	LTP258	ltpFR2	14	5	VIRUS	1572	n/a	n/a	0	0	0
960809	REC_WORD	wordpools/wasnorm_wordpool_576.txt	LTP258	ltpFR2	14	5	FRUIT	610	n/a	n/a	0	0	0
969694	REC_WORD	wordpools/wasnorm_wordpool_576.txt	LTP258	ltpFR2	14	5	PLUTO	1092	n/a	n/a	0	0	0
970947	REC_WORD	wordpools/wasnorm_wordpool_576.txt	LTP258	ltpFR2	14	5	PREACHER	1119	n/a	n/a	0	0	0
971729	REC_WORD	wordpools/wasnorm_wordpool_576.txt	LTP258	ltpFR2	14	5	BACON	67	n/a	n/a	0	0	0
974053	REC_WORD	wordpools/wasnorm_wordpool_576.txt	LTP258	ltpFR2	14	5	OYSTER	995	n/a	n/a	0	0	0
975382	REC_WORD	wordpools/wasnorm_wordpool_576.txt	LTP258	ltpFR2	14	5	BEEF	113	n/a	n/a	0	0	0
977443	REC_WORD	wordpools/wasnorm_wordpool_576.txt	LTP258	ltpFR2	14	5	JAPAN	749	n/a	n/a	0	0	0
1025885	DISTRACTOR	n/a	LTP258	ltpFR2	14	6	n/a	n/a	n/a	n/a	0	0	0
1025885	START	n/a	LTP258	ltpFR2	14	n/a	n/a	n/a	9	n/a	n/a	n/a	n/a
1025918	PROB	n/a	LTP258	ltpFR2	14	n/a	n/a	n/a	9	8	1	4	3
1027067	PROB	n/a	LTP258	ltpFR2	14	n/a	n/a	n/a	9	23	9	6	8
1028398	PROB	n/a	LTP258	ltpFR2	14	n/a	n/a	n/a	9	20	9	7	4
1030129	PROB	n/a	LTP258	ltpFR2	14	n/a	n/a	n/a	9	11	4	1	6
1031011	PROB	n/a	LTP258	ltpFR2	14	n/a	n/a	n/a	9	9	4	1	4
1032209	PROB	n/a	LTP258	ltpFR2	14	n/a	n/a	n/a	9	6	4	1	1
1033224	PROB	n/a	LTP258	ltpFR2	14	n/a	n/a	n/a	9	18	9	2	7
1034339	PROB	n/a	LTP258	ltpFR2	14	n/a	n/a	n/a	9	20	9	5	6
1035438	PROB	n/a	LTP258	ltpFR2	14	n/a	n/a	n/a	9	8	2	3	3
1036453	PROB	n/a	LTP258	ltpFR2	14	n/a	n/a	n/a	9	12	3	6	3
1038183	PROB	n/a	LTP258	ltpFR2	14	n/a	n/a	n/a	9	10	1	1	8
1039315	PROB	n/a	LTP258	ltpFR2	14	n/a	n/a	n/a	9	14	3	4	7
1040614	PROB	n/a	LTP258	ltpFR2	14	n/a	n/a	n/a	9	24	9	8	7
1041778	PROB	n/a	LTP258	ltpFR2	14	n/a	n/a	n/a	9	20	9	7	4
1043259	PROB	n/a	LTP258	ltpFR2	14	n/a	n/a	n/a	9	18	9	1	8
1044191	PROB	n/a	LTP258	ltpFR2	14	n/a	n/a	n/a	9	24	8	7	9
1045590	PROB	n/a	LTP258	ltpFR2	14	n/a	n/a	n/a	9	18	4	4	9
1047170	PROB	n/a	LTP258	ltpFR2	14	n/a	n/a	n/a	9	11	6	2	3
1048825	STOP	n/a	LTP258	ltpFR2	14	n/a	n/a	n/a	9	n/a	n/a	n/a	n/a
1050715	WORD	wordpools/wasnorm_wordpool_576.txt	LTP258	ltpFR2	14	6	TRIBE	1505	n/a	n/a	0	0	0
1053495	WORD	wordpools/wasnorm_wordpool_576.txt	LTP258	ltpFR2	14	6	OMELET	976	n/a	n/a	0	0	0
1056023	WORD	wordpools/wasnorm_wordpool_576.txt	LTP258	ltpFR2	14	6	WORLD	1622	n/a	n/a	0	0	0
1058719	WORD	wordpools/wasnorm_wordpool_576.txt	LTP258	ltpFR2	14	6	CEILING	265	n/a	n/a	0	0	0
1061483	WORD	wordpools/wasnorm_wordpool_576.txt	LTP258	ltpFR2	14	6	SLUG	1329	n/a	n/a	0	0	0
1063995	WORD	wordpools/wasnorm_wordpool_576.txt	LTP258	ltpFR2	14	6	BRACES	164	n/a	n/a	0	0	0
1066575	WORD	wordpools/wasnorm_wordpool_576.txt	LTP258	ltpFR2	14	6	TILE	1468	n/a	n/a	0	0	0
1069254	WORD	wordpools/wasnorm_wordpool_576.txt	LTP258	ltpFR2	14	6	CHAUFFEUR	283	n/a	n/a	0	0	0
1071816	WORD	wordpools/wasnorm_wordpool_576.txt	LTP258	ltpFR2	14	6	ACTRESS	6	n/a	n/a	0	0	0
1074363	WORD	wordpools/wasnorm_wordpool_576.txt	LTP258	ltpFR2	14	6	WAITER	1580	n/a	n/a	0	0	0
1077092	WORD	wordpools/wasnorm_wordpool_576.txt	LTP258	ltpFR2	14	6	CRAB	397	n/a	n/a	0	0	0
1079672	WORD	wordpools/wasnorm_wordpool_576.txt	LTP258	ltpFR2	14	6	STICKER	1382	n/a	n/a	0	0	0
1082184	WORD	wordpools/wasnorm_wordpool_576.txt	LTP258	ltpFR2	14	6	POISON	1096	n/a	n/a	0	0	0
1084814	WORD	wordpools/wasnorm_wordpool_576.txt	LTP258	ltpFR2	14	6	FRIAR	605	n/a	n/a	0	0	0
1087243	WORD	wordpools/wasnorm_wordpool_576.txt	LTP258	ltpFR2	14	6	CROSS	413	n/a	n/a	0	0	0
1089906	WORD	wordpools/wasnorm_wordpool_576.txt	LTP258	ltpFR2	14	6	BLENDER	136	n/a	n/a	0	0	0
1092419	WORD	wordpools/wasnorm_wordpool_576.txt	LTP258	ltpFR2	14	6	DOUGHNUT	490	n/a	n/a	0	0	0
1095115	WORD	wordpools/wasnorm_wordpool_576.txt	LTP258	ltpFR2	14	6	CELLAR	267	n/a	n/a	0	0	0
1097596	WORD	wordpools/wasnorm_wordpool_576.txt	LTP258	ltpFR2	14	6	SUPPER	1411	n/a	n/a	0	0	0
1100124	WORD	wordpools/wasnorm_wordpool_576.txt	LTP258	ltpFR2	14	6	BELLY	119	n/a	n/a	0	0	0
1102803	WORD	wordpools/wasnorm_wordpool_576.txt	LTP258	ltpFR2	14	6	STOMACH	1384	n/a	n/a	0	0	0
1105266	WORD	wordpools/wasnorm_wordpool_576.txt	LTP258	ltpFR2	14	6	DASHBOARD	441	n/a	n/a	0	0	0
1107846	WORD	wordpools/wasnorm_wordpool_576.txt	LTP258	ltpFR2	14	6	CASKET	255	n/a	n/a	0	0	0
1110576	WORD	wordpools/wasnorm_wordpool_576.txt	LTP258	ltpFR2	14	6	ARMY	39	n/a	n/a	0	0	0
1112190	START	n/a	LTP258	ltpFR2	14	n/a	n/a	n/a	10	n/a	n/a	n/a	n/a
1113290	DISTRACTOR	n/a	LTP258	ltpFR2	14	6	n/a	n/a	n/a	n/a	0	0	0
1113304	PROB	n/a	LTP258	ltpFR2	14	n/a	n/a	n/a	10	24	9	9	9
1114670	PROB	n/a	LTP258	ltpFR2	14	n/a	n/a	n/a	10	17	7	8	2
1116233	PROB	n/a	LTP258	ltpFR2	14	n/a	n/a	n/a	10	5	2	1	2
1117065	PROB	n/a	LTP258	ltpFR2	14	n/a	n/a	n/a	10	17	1	9	7
1118347	PROB	n/a	LTP258	ltpFR2	14	n/a	n/a	n/a	10	17	4	9	4
1119712	PROB	n/a	LTP258	ltpFR2	14	n/a	n/a	n/a	10	14	4	4	6
1120611	PROB	n/a	LTP258	ltpFR2	14	n/a	n/a	n/a	10	13	1	4	8
1121958	PROB	n/a	LTP258	ltpFR2	14	n/a	n/a	n/a	10	12	9	1	3
1122957	PROB	n/a	LTP258	ltpFR2	14	n/a	n/a	n/a	10	18	6	7	5
1125153	PROB	n/a	LTP258	ltpFR2	14	n/a	n/a	n/a	10	15	1	5	8
1126452	PROB	n/a	LTP258	ltpFR2	14	n/a	n/a	n/a	10	16	5	8	3
1128931	PROB	n/a	LTP258	ltpFR2	14	n/a	n/a	n/a	10	15	5	5	5
1129913	PROB	n/a	LTP258	ltpFR2	14	n/a	n/a	n/a	10	7	5	1	1
1130828	PROB	n/a	LTP258	ltpFR2	14	n/a	n/a	n/a	10	15	3	7	5
1131927	PROB	n/a	LTP258	ltpFR2	14	n/a	n/a	n/a	10	20	7	5	8
1133325	PROB	n/a	LTP258	ltpFR2	14	n/a	n/a	n/a	10	11	4	2	5
1135745	STOP	n/a	LTP258	ltpFR2	14	n/a	n/a	n/a	10	n/a	n/a	n/a	n/a
1138068	REC_START	n/a	LTP258	ltpFR2	14	6	n/a	n/a	n/a	n/a	0	0	0
1141674	REC_WORD	wordpools/wasnorm_wordpool_576.txt	LTP258	ltpFR2	14	6	BLENDER	136	n/a	n/a	0	0	0
1142328	REC_WORD	wordpools/wasnorm_wordpool_576.txt	LTP258	ltpFR2	14	6	DOUGHNUT	490	n/a	n/a	0	0	0
1142914	REC_WORD	wordpools/wasnorm_wordpool_576.txt	LTP258	ltpFR2	14	6	CELLAR	267	n/a	n/a	0	0	0
1146293	REC_WORD	wordpools/wasnorm_wordpool_576.txt	LTP258	ltpFR2	14	6	STOMACH	1384	n/a	n/a	0	0	0
1147073	REC_WORD	wordpools/wasnorm_wordpool_576.txt	LTP258	ltpFR2	14	6	BELLY	119	n/a	n/a	0	0	0
1149035	REC_WORD	wordpools/wasnorm_wordpool_576.txt	LTP258	ltpFR2	14	6	ARMY	39	n/a	n/a	0	0	0
1150618	REC_WORD	wordpools/wasnorm_wordpool_576.txt	LTP258	ltpFR2	14	6	CASKET	255	n/a	n/a	0	0	0
1161191	REC_WORD	wordpools/wasnorm_wordpool_576.txt	LTP258	ltpFR2	14	6	SUPPER	1411	n/a	n/a	0	0	0
1164918	REC_WORD	wordpools/wasnorm_wordpool_576.txt	LTP258	ltpFR2	14	6	ACTRESS	6	n/a	n/a	0	0	0
1165771	REC_WORD	wordpools/wasnorm_wordpool_576.txt	LTP258	ltpFR2	14	6	CHAUFFEUR	283	n/a	n/a	0	0	0
1168525	REC_WORD	wordpools/wasnorm_wordpool_576.txt	LTP258	ltpFR2	14	6	SERVER	1272	n/a	n/a	0	0	0
1170076	REC_WORD	wordpools/wasnorm_wordpool_576.txt	LTP258	ltpFR2	14	6	WAITER	1580	n/a	n/a	0	0	0
1176605	REC_WORD	wordpools/wasnorm_wordpool_576.txt	LTP258	ltpFR2	14	6	CRAB	397	n/a	n/a	0	0	0
1228699	DISTRACTOR	n/a	LTP258	ltpFR2	14	7	n/a	n/a	n/a	n/a	0	0	0
1228699	START	n/a	LTP258	ltpFR2	14	n/a	n/a	n/a	11	n/a	n/a	n/a	n/a
1228732	PROB	n/a	LTP258	ltpFR2	14	n/a	n/a	n/a	11	10	2	6	2
1229980	PROB	n/a	LTP258	ltpFR2	14	n/a	n/a	n/a	11	19	4	6	9
1231362	PROB	n/a	LTP258	ltpFR2	14	n/a	n/a	n/a	11	18	4	6	8
1232194	PROB	n/a	LTP258	ltpFR2	14	n/a	n/a	n/a	11	15	4	3	8
1234041	PROB	n/a	LTP258	ltpFR2	14	n/a	n/a	n/a	11	13	2	4	7
1236021	PROB	n/a	LTP258	ltpFR2	14	n/a	n/a	n/a	11	8	6	1	1
1236887	PROB	n/a	LTP258	ltpFR2	14	n/a	n/a	n/a	11	1	3	7	3
1237785	PROB	n/a	LTP258	ltpFR2	14	n/a	n/a	n/a	11	12	4	5	3
1240599	PROB	n/a	LTP258	ltpFR2	14	n/a	n/a	n/a	11	20	7	7	6
1242429	PROB	n/a	LTP258	ltpFR2	14	n/a	n/a	n/a	11	13	2	5	6
1244309	PROB	n/a	LTP258	ltpFR2	14	n/a	n/a	n/a	11	17	1	8	8
1246006	PROB	n/a	LTP258	ltpFR2	14	n/a	n/a	n/a	11	15	6	3	6
1247787	PROB	n/a	LTP258	ltpFR2	14	n/a	n/a	n/a	11	15	4	2	9
1249019	PROB	n/a	LTP258	ltpFR2	14	n/a	n/a	n/a	11	11	1	6	4
1250517	PROB	n/a	LTP258	ltpFR2	14	n/a	n/a	n/a	11	9	7	9	3
1251546	STOP	n/a	LTP258	ltpFR2	14	n/a	n/a	n/a	11	n/a	n/a	n/a	n/a
1253629	WORD	wordpools/wasnorm_wordpool_576.txt	LTP258	ltpFR2	14	7	WAGON	1578	n/a	n/a	0	0	0
1256191	WORD	wordpools/wasnorm_wordpool_576.txt	LTP258	ltpFR2	14	7	BROTHER	179	n/a	n/a	0	0	0
1258970	WORD	wordpools/wasnorm_wordpool_576.txt	LTP258	ltpFR2	14	7	LIZARD	834	n/a	n/a	0	0	0
1261484	WORD	wordpools/wasnorm_wordpool_576.txt	LTP258	ltpFR2	14	7	RATTLE	1170	n/a	n/a	0	0	0
1264063	WORD	wordpools/wasnorm_wordpool_576.txt	LTP258	ltpFR2	14	7	DRESS	495	n/a	n/a	0	0	0
1266676	WORD	wordpools/wasnorm_wordpool_576.txt	LTP258	ltpFR2	14	7	GARLIC	624	n/a	n/a	0	0	0
1269489	WORD	wordpools/wasnorm_wordpool_576.txt	LTP258	ltpFR2	14	7	PUDDING	1139	n/a	n/a	0	0	0
1272151	WORD	wordpools/wasnorm_wordpool_576.txt	LTP258	ltpFR2	14	7	VIKING	1565	n/a	n/a	0	0	0
1274713	WORD	wordpools/wasnorm_wordpool_576.txt	LTP258	ltpFR2	14	7	MILK	895	n/a	n/a	0	0	0
1277276	WORD	wordpools/wasnorm_wordpool_576.txt	LTP258	ltpFR2	14	7	LION	827	n/a	n/a	0	0	0
1279956	WORD	wordpools/wasnorm_wordpool_576.txt	LTP258	ltpFR2	14	7	BIKE	125	n/a	n/a	0	0	0
1282486	WORD	wordpools/wasnorm_wordpool_576.txt	LTP258	ltpFR2	14	7	BUGGY	188	n/a	n/a	0	0	0
1285131	WORD	wordpools/wasnorm_wordpool_576.txt	LTP258	ltpFR2	14	7	IGLOO	734	n/a	n/a	0	0	0
1287944	WORD	wordpools/wasnorm_wordpool_576.txt	LTP258	ltpFR2	14	7	KLEENEX	782	n/a	n/a	0	0	0
1290641	WORD	wordpools/wasnorm_wordpool_576.txt	LTP258	ltpFR2	14	7	CARROT	249	n/a	n/a	0	0	0
1293136	WORD	wordpools/wasnorm_wordpool_576.txt	LTP258	ltpFR2	14	7	OUTDOORS	987	n/a	n/a	0	0	0
1295882	WORD	wordpools/wasnorm_wordpool_576.txt	LTP258	ltpFR2	14	7	NOMAD	955	n/a	n/a	0	0	0
1298411	WORD	wordpools/wasnorm_wordpool_576.txt	LTP258	ltpFR2	14	7	RAFT	1159	n/a	n/a	0	0	0
1300991	WORD	wordpools/wasnorm_wordpool_576.txt	LTP258	ltpFR2	14	7	COLONEL	348	n/a	n/a	0	0	0
1303605	WORD	wordpools/wasnorm_wordpool_576.txt	LTP258	ltpFR2	14	7	MAMMAL	861	n/a	n/a	0	0	0
1306383	WORD	wordpools/wasnorm_wordpool_576.txt	LTP258	ltpFR2	14	7	GHETTO	633	n/a	n/a	0	0	0
1308929	WORD	wordpools/wasnorm_wordpool_576.txt	LTP258	ltpFR2	14	7	SUMMIT	1405	n/a	n/a	0	0	0
1311676	WORD	wordpools/wasnorm_wordpool_576.txt	LTP258	ltpFR2	14	7	HELMET	702	n/a	n/a	0	0	0
1314205	WORD	wordpools/wasnorm_wordpool_576.txt	LTP258	ltpFR2	14	7	SKIRT	1319	n/a	n/a	0	0	0
1315819	START	n/a	LTP258	ltpFR2	14	n/a	n/a	n/a	12	n/a	n/a	n/a	n/a
1316971	DISTRACTOR	n/a	LTP258	ltpFR2	14	7	n/a	n/a	n/a	n/a	0	0	0
1316984	PROB	n/a	LTP258	ltpFR2	14	n/a	n/a	n/a	12	19	7	5	7
1319130	PROB	n/a	LTP258	ltpFR2	14	n/a	n/a	n/a	12	17	5	9	3
1320329	PROB	n/a	LTP258	ltpFR2	14	n/a	n/a	n/a	12	15	5	7	3
1321511	PROB	n/a	LTP258	ltpFR2	14	n/a	n/a	n/a	12	19	4	9	6
1322409	PROB	n/a	LTP258	ltpFR2	14	n/a	n/a	n/a	12	14	7	6	1
1324306	PROB	n/a	LTP258	ltpFR2	14	n/a	n/a	n/a	12	23	7	7	8
1326203	PROB	n/a	LTP258	ltpFR2	14	n/a	n/a	n/a	12	10	2	8	2
1327335	PROB	n/a	LTP258	ltpFR2	14	n/a	n/a	n/a	12	6	2	3	1
1328434	PROB	n/a	LTP258	ltpFR2	14	n/a	n/a	n/a	12	18	6	8	4
1329499	PROB	n/a	LTP258	ltpFR2	14	n/a	n/a	n/a	12	12	5	1	6
1330763	PROB	n/a	LTP258	ltpFR2	14	n/a	n/a	n/a	12	15	6	7	2
1332744	PROB	n/a	LTP258	ltpFR2	14	n/a	n/a	n/a	12	17	8	7	2
1334291	PROB	n/a	LTP258	ltpFR2	14	n/a	n/a	n/a	12	13	2	4	7
1336138	PROB	n/a	LTP258	ltpFR2	14	n/a	n/a	n/a	12	9	6	1	2
1338265	STOP	n/a	LTP258	ltpFR2	14	n/a	n/a	n/a	12	n/a	n/a	n/a	n/a
1341565	REC_START	n/a	LTP258	ltpFR2	14	7	n/a	n/a	n/a	n/a	0	0	0
1344974	REC_WORD	wordpools/wasnorm_wordpool_576.txt	LTP258	ltpFR2	14	7	RAFT	1159	n/a	n/a	0	0	0
1346453	REC_WORD	wordpools/wasnorm_wordpool_576.txt	LTP258	ltpFR2	14	7	HELMET	702	n/a	n/a	0	0	0
1347030	REC_WORD	wordpools/wasnorm_wordpool_576.txt	LTP258	ltpFR2	14	7	SUMMIT	1405	n/a	n/a	0	0	0
1361083	REC_WORD	wordpools/wasnorm_wordpool_576.txt	LTP258	ltpFR2	14	7	GARLIC	624	n/a	n/a	0	0	0
1361753	REC_WORD	wordpools/wasnorm_wordpool_576.txt	LTP258	ltpFR2	14	7	MILK	895	n/a	n/a	0	0	0
1362435	REC_WORD	wordpools/wasnorm_wordpool_576.txt	LTP258	ltpFR2	14	7	VIKING	1565	n/a	n/a	0	0	0
1363159	REC_WORD	wordpools/wasnorm_wordpool_576.txt	LTP258	ltpFR2	14	7	NOMAD	955	n/a	n/a	0	0	0
1363940	REC_WORD	wordpools/wasnorm_wordpool_576.txt	LTP258	ltpFR2	14	7	CARROT	249	n/a	n/a	0	0	0
1367881	REC_WORD	wordpools/wasnorm_wordpool_576.txt	LTP258	ltpFR2	14	7	LION	827	n/a	n/a	0	0	0
1368835	REC_WORD	wordpools/wasnorm_wordpool_576.txt	LTP258	ltpFR2	14	7	BIKE	125	n/a	n/a	0	0	0
1370632	REC_WORD	wordpools/wasnorm_wordpool_576.txt	LTP258	ltpFR2	14	7	IGLOO	734	n/a	n/a	0	0	0
1375859	REC_WORD	wordpools/wasnorm_wordpool_576.txt	LTP258	ltpFR2	14	7	MAMMAL	861	n/a	n/a	0	0	0
1381604	REC_WORD	wordpools/wasnorm_wordpool_576.txt	LTP258	ltpFR2	14	7	DRESS	495	n/a	n/a	0	0	0
1382310	REC_WORD	wordpools/wasnorm_wordpool_576.txt	LTP258	ltpFR2	14	7	SKIRT	1319	n/a	n/a	0	0	0
1432245	DISTRACTOR	n/a	LTP258	ltpFR2	14	8	n/a	n/a	n/a	n/a	0	0	0
1432245	START	n/a	LTP258	ltpFR2	14	n/a	n/a	n/a	13	n/a	n/a	n/a	n/a
1432278	PROB	n/a	LTP258	ltpFR2	14	n/a	n/a	n/a	13	7	2	2	3
1434741	PROB	n/a	LTP258	ltpFR2	14	n/a	n/a	n/a	13	14	9	4	1
1435840	PROB	n/a	LTP258	ltpFR2	14	n/a	n/a	n/a	13	13	3	4	6
1436988	PROB	n/a	LTP258	ltpFR2	14	n/a	n/a	n/a	13	14	1	4	9
1438003	PROB	n/a	LTP258	ltpFR2	14	n/a	n/a	n/a	13	10	2	7	2
1439418	PROB	n/a	LTP258	ltpFR2	14	n/a	n/a	n/a	13	15	3	5	7
1440600	PROB	n/a	LTP258	ltpFR2	14	n/a	n/a	n/a	13	12	5	1	6
1441599	PROB	n/a	LTP258	ltpFR2	14	n/a	n/a	n/a	13	21	9	8	3
1442862	PROB	n/a	LTP258	ltpFR2	14	n/a	n/a	n/a	13	11	8	1	2
1445443	PROB	n/a	LTP258	ltpFR2	14	n/a	n/a	n/a	13	12	2	8	2
1446674	PROB	n/a	LTP258	ltpFR2	14	n/a	n/a	n/a	13	14	8	3	3
1447855	PROB	n/a	LTP258	ltpFR2	14	n/a	n/a	n/a	13	17	5	3	9
1448953	PROB	n/a	LTP258	ltpFR2	14	n/a	n/a	n/a	13	12	9	2	1
1449919	PROB	n/a	LTP258	ltpFR2	14	n/a	n/a	n/a	13	5	1	1	3
1450734	PROB	n/a	LTP258	ltpFR2	14	n/a	n/a	n/a	13	7	4	2	1
1452165	PROB	n/a	LTP258	ltpFR2	14	n/a	n/a	n/a	13	12	5	4	3
1453397	PROB	n/a	LTP258	ltpFR2	14	n/a	n/a	n/a	13	16	1	8	7
1454897	STOP	n/a	LTP258	ltpFR2	14	n/a	n/a	n/a	13	n/a	n/a	n/a	n/a
1457308	WORD	wordpools/wasnorm_wordpool_576.txt	LTP258	ltpFR2	14	8	LAMP	798	n/a	n/a	0	0	0
1460004	WORD	wordpools/wasnorm_wordpool_576.txt	LTP258	ltpFR2	14	8	THREAD	1460	n/a	n/a	0	0	0
1462484	WORD	wordpools/wasnorm_wordpool_576.txt	LTP258	ltpFR2	14	8	PASSAGE	1019	n/a	n/a	0	0	0
1465279	WORD	wordpools/wasnorm_wordpool_576.txt	LTP258	ltpFR2	14	8	NOVEL	960	n/a	n/a	0	0	0
1467725	WORD	wordpools/wasnorm_wordpool_576.txt	LTP258	ltpFR2	14	8	TURTLE	1522	n/a	n/a	0	0	0
1470539	WORD	wordpools/wasnorm_wordpool_576.txt	LTP258	ltpFR2	14	8	RELISH	1183	n/a	n/a	0	0	0
1473017	WORD	wordpools/wasnorm_wordpool_576.txt	LTP258	ltpFR2	14	8	MOTEL	919	n/a	n/a	0	0	0
1475631	WORD	wordpools/wasnorm_wordpool_576.txt	LTP258	ltpFR2	14	8	BODY	145	n/a	n/a	0	0	0
1478060	WORD	wordpools/wasnorm_wordpool_576.txt	LTP258	ltpFR2	14	8	CAFE	216	n/a	n/a	0	0	0
1480640	WORD	wordpools/wasnorm_wordpool_576.txt	LTP258	ltpFR2	14	8	QUAIL	1147	n/a	n/a	0	0	0
1483202	WORD	wordpools/wasnorm_wordpool_576.txt	LTP258	ltpFR2	14	8	CYCLONE	431	n/a	n/a	0	0	0
1485682	WORD	wordpools/wasnorm_wordpool_576.txt	LTP258	ltpFR2	14	8	TWISTER	1530	n/a	n/a	0	0	0
1488178	WORD	wordpools/wasnorm_wordpool_576.txt	LTP258	ltpFR2	14	8	STALLION	1369	n/a	n/a	0	0	0
1490841	WORD	wordpools/wasnorm_wordpool_576.txt	LTP258	ltpFR2	14	8	FLEET	578	n/a	n/a	0	0	0
1493538	WORD	wordpools/wasnorm_wordpool_576.txt	LTP258	ltpFR2	14	8	HEDGE	699	n/a	n/a	0	0	0
1496116	WORD	wordpools/wasnorm_wordpool_576.txt	LTP258	ltpFR2	14	8	SUSPECT	1415	n/a	n/a	0	0	0
1498729	WORD	wordpools/wasnorm_wordpool_576.txt	LTP258	ltpFR2	14	8	MOTOR	922	n/a	n/a	0	0	0
1501392	WORD	wordpools/wasnorm_wordpool_576.txt	LTP258	ltpFR2	14	8	COCKTAIL	338	n/a	n/a	0	0	0
1504221	WORD	wordpools/wasnorm_wordpool_576.txt	LTP258	ltpFR2	14	8	JEANS	752	n/a	n/a	0	0	0
1507000	WORD	wordpools/wasnorm_wordpool_576.txt	LTP258	ltpFR2	14	8	PISTON	1076	n/a	n/a	0	0	0
1509481	WORD	wordpools/wasnorm_wordpool_576.txt	LTP258	ltpFR2	14	8	POWDER	1117	n/a	n/a	0	0	0
1512026	WORD	wordpools/wasnorm_wordpool_576.txt	LTP258	ltpFR2	14	8	SNAIL	1332	n/a	n/a	0	0	0
1514788	WORD	wordpools/wasnorm_wordpool_576.txt	LTP258	ltpFR2	14	8	BALLOON	75	n/a	n/a	0	0	0
1517585	WORD	wordpools/wasnorm_wordpool_576.txt	LTP258	ltpFR2	14	8	POCKET	1093	n/a	n/a	0	0	0
1519199	START	n/a	LTP258	ltpFR2	14	n/a	n/a	n/a	14	n/a	n/a	n/a	n/a
1520094	DISTRACTOR	n/a	LTP258	ltpFR2	14	8	n/a	n/a	n/a	n/a	0	0	0
1520097	PROB	n/a	LTP258	ltpFR2	14	n/a	n/a	n/a	14	15	7	7	1
1521878	PROB	n/a	LTP258	ltpFR2	14	n/a	n/a	n/a	14	98	4	1	4
1523309	PROB	n/a	LTP258	ltpFR2	14	n/a	n/a	n/a	14	16	2	9	5
1524873	PROB	n/a	LTP258	ltpFR2	14	n/a	n/a	n/a	14	15	8	1	6
1526837	PROB	n/a	LTP258	ltpFR2	14	n/a	n/a	n/a	14	20	9	2	9
1528102	PROB	n/a	LTP258	ltpFR2	14	n/a	n/a	n/a	14	14	3	4	7
1529167	PROB	n/a	LTP258	ltpFR2	14	n/a	n/a	n/a	14	12	1	5	6
1530398	PROB	n/a	LTP258	ltpFR2	14	n/a	n/a	n/a	14	16	2	9	5
1531681	PROB	n/a	LTP258	ltpFR2	14	n/a	n/a	n/a	14	10	8	1	1
1532695	PROB	n/a	LTP258	ltpFR2	14	n/a	n/a	n/a	14	16	5	8	3
1533877	PROB	n/a	LTP258	ltpFR2	14	n/a	n/a	n/a	14	19	7	5	7
1535308	PROB	n/a	LTP258	ltpFR2	14	n/a	n/a	n/a	14	13	6	1	6
1536390	PROB	n/a	LTP258	ltpFR2	14	n/a	n/a	n/a	14	12	7	2	3
1537605	PROB	n/a	LTP258	ltpFR2	14	n/a	n/a	n/a	14	17	2	7	6
1539252	PROB	n/a	LTP258	ltpFR2	14	n/a	n/a	n/a	14	14	3	8	3
1541082	PROB	n/a	LTP258	ltpFR2	14	n/a	n/a	n/a	14	21	7	5	9
1542801	STOP	n/a	LTP258	ltpFR2	14	n/a	n/a	n/a	14	n/a	n/a	n/a	n/a
1545011	REC_START	n/a	LTP258	ltpFR2	14	8	n/a	n/a	n/a	n/a	0	0	0
1548014	REC_WORD	wordpools/wasnorm_wordpool_576.txt	LTP258	ltpFR2	14	8	PISTON	1076	n/a	n/a	0	0	0
1548680	REC_WORD	wordpools/wasnorm_wordpool_576.txt	LTP258	ltpFR2	14	8	POWDER	1117	n/a	n/a	0	0	0
1551968	REC_WORD	wordpools/wasnorm_wordpool_576.txt	LTP258	ltpFR2	14	8	SUSPECT	1415	n/a	n/a	0	0	0
1553389	REC_WORD	wordpools/wasnorm_wordpool_576.txt	LTP258	ltpFR2	14	8	COCKTAIL	338	n/a	n/a	0	0	0
1554454	REC_WORD	wordpools/wasnorm_wordpool_576.txt	LTP258	ltpFR2	14	8	JEANS	752	n/a	n/a	0	0	0
1561898	REC_WORD	wordpools/wasnorm_wordpool_576.txt	LTP258	ltpFR2	14	8	PASSAGE	1019	n/a	n/a	0	0	0
1562568	REC_WORD	wordpools/wasnorm_wordpool_576.txt	LTP258	ltpFR2	14	8	NOVEL	960	n/a	n/a	0	0	0
1563873	REC_WORD	wordpools/wasnorm_wordpool_576.txt	LTP258	ltpFR2	14	8	FLEET	578	n/a	n/a	0	0	0
1564795	REC_WORD	wordpools/wasnorm_wordpool_576.txt	LTP258	ltpFR2	14	8	STALLION	1369	n/a	n/a	0	0	0
1565883	REC_WORD	wordpools/wasnorm_wordpool_576.txt	LTP258	ltpFR2	14	8	QUAIL	1147	n/a	n/a	0	0	0
1577904	REC_WORD	wordpools/wasnorm_wordpool_576.txt	LTP258	ltpFR2	14	8	THREAD	1460	n/a	n/a	0	0	0
1578704	REC_WORD	wordpools/wasnorm_wordpool_576.txt	LTP258	ltpFR2	14	8	LAMP	798	n/a	n/a	0	0	0
1610959	REC_WORD	wordpools/wasnorm_wordpool_576.txt	LTP258	ltpFR2	14	8	RELISH	1183	n/a	n/a	0	0	0
1621630	REST_REWET	n/a	LTP258	ltpFR2	14	8	n/a	n/a	n/a	n/a	0	0	0
1974086	WORD	wordpools/wasnorm_wordpool_576.txt	LTP258	ltpFR2	14	9	TORTOISE	1486	n/a	n/a	0	0	0
1976617	WORD	wordpools/wasnorm_wordpool_576.txt	LTP258	ltpFR2	14	9	TOURIST	1488	n/a	n/a	0	0	0
1979129	WORD	wordpools/wasnorm_wordpool_576.txt	LTP258	ltpFR2	14	9	LUGGAGE	847	n/a	n/a	0	0	0
1981824	WORD	wordpools/wasnorm_wordpool_576.txt	LTP258	ltpFR2	14	9	TUNNEL	1519	n/a	n/a	0	0	0
1984271	WORD	wordpools/wasnorm_wordpool_576.txt	LTP258	ltpFR2	14	9	DENIM	446	n/a	n/a	0	0	0
1986917	WORD	wordpools/wasnorm_wordpool_576.txt	LTP258	ltpFR2	14	9	ASIA	46	n/a	n/a	0	0	0
1989647	WORD	wordpools/wasnorm_wordpool_576.txt	LTP258	ltpFR2	14	9	TUBA	1515	n/a	n/a	0	0	0
1992460	WORD	wordpools/wasnorm_wordpool_576.txt	LTP258	ltpFR2	14	9	HARP	689	n/a	n/a	0	0	0
1995038	WORD	wordpools/wasnorm_wordpool_576.txt	LTP258	ltpFR2	14	9	FOOT	590	n/a	n/a	0	0	0
1997519	WORD	wordpools/wasnorm_wordpool_576.txt	LTP258	ltpFR2	14	9	DANDRUFF	439	n/a	n/a	0	0	0
2000230	WORD	wordpools/wasnorm_wordpool_576.txt	LTP258	ltpFR2	14	9	CRUTCH	417	n/a	n/a	0	0	0
2002860	WORD	wordpools/wasnorm_wordpool_576.txt	LTP258	ltpFR2	14	9	HAND	683	n/a	n/a	0	0	0
2005440	WORD	wordpools/wasnorm_wordpool_576.txt	LTP258	ltpFR2	14	9	POSTAGE	1113	n/a	n/a	0	0	0
2008069	WORD	wordpools/wasnorm_wordpool_576.txt	LTP258	ltpFR2	14	9	DONOR	485	n/a	n/a	0	0	0
2010666	WORD	wordpools/wasnorm_wordpool_576.txt	LTP258	ltpFR2	14	9	COUNTRY	388	n/a	n/a	0	0	0
2013311	WORD	wordpools/wasnorm_wordpool_576.txt	LTP258	ltpFR2	14	9	PUPIL	1143	n/a	n/a	0	0	0
2015824	WORD	wordpools/wasnorm_wordpool_576.txt	LTP258	ltpFR2	14	9	HATCHET	691	n/a	n/a	0	0	0
2018437	WORD	wordpools/wasnorm_wordpool_576.txt	LTP258	ltpFR2	14	9	VAGRANT	1544	n/a	n/a	0	0	0
2021232	WORD	wordpools/wasnorm_wordpool_576.txt	LTP258	ltpFR2	14	9	LIVER	833	n/a	n/a	0	0	0
2023828	WORD	wordpools/wasnorm_wordpool_576.txt	LTP258	ltpFR2	14	9	LASER	801	n/a	n/a	0	0	0
2026592	WORD	wordpools/wasnorm_wordpool_576.txt	LTP258	ltpFR2	14	9	AIRPORT	13	n/a	n/a	0	0	0
2029037	WORD	wordpools/wasnorm_wordpool_576.txt	LTP258	ltpFR2	14	9	RADISH	1158	n/a	n/a	0	0	0
2031668	WORD	wordpools/wasnorm_wordpool_576.txt	LTP258	ltpFR2	14	9	LOFT	840	n/a	n/a	0	0	0
2034413	WORD	wordpools/wasnorm_wordpool_576.txt	LTP258	ltpFR2	14	9	FOOTBALL	591	n/a	n/a	0	0	0
2036027	START	n/a	LTP258	ltpFR2	14	n/a	n/a	n/a	15	n/a	n/a	n/a	n/a
2037204	DISTRACTOR	n/a	LTP258	ltpFR2	14	9	n/a	n/a	n/a	n/a	0	0	0
2037208	PROB	n/a	LTP258	ltpFR2	14	n/a	n/a	n/a	15	17	7	4	6
2038323	PROB	n/a	LTP258	ltpFR2	14	n/a	n/a	n/a	15	13	8	2	3
2039639	PROB	n/a	LTP258	ltpFR2	14	n/a	n/a	n/a	15	19	6	5	8
2040970	PROB	n/a	LTP258	ltpFR2	14	n/a	n/a	n/a	15	15	7	3	5
2041885	PROB	n/a	LTP258	ltpFR2	14	n/a	n/a	n/a	15	17	4	7	6
2042833	PROB	n/a	LTP258	ltpFR2	14	n/a	n/a	n/a	15	12	2	4	6
2043682	PROB	n/a	LTP258	ltpFR2	14	n/a	n/a	n/a	15	12	7	2	3
2044797	PROB	n/a	LTP258	ltpFR2	14	n/a	n/a	n/a	15	21	9	7	4
2046496	PROB	n/a	LTP258	ltpFR2	14	n/a	n/a	n/a	15	12	1	3	8
2048808	PROB	n/a	LTP258	ltpFR2	14	n/a	n/a	n/a	15	15	7	7	1
2051138	PROB	n/a	LTP258	ltpFR2	14	n/a	n/a	n/a	15	14	5	2	7
2052236	PROB	n/a	LTP258	ltpFR2	14	n/a	n/a	n/a	15	12	3	1	8
2054233	PROB	n/a	LTP258	ltpFR2	14	n/a	n/a	n/a	15	18	6	7	5
2055781	PROB	n/a	LTP258	ltpFR2	14	n/a	n/a	n/a	15	12	7	2	3
2056812	PROB	n/a	LTP258	ltpFR2	14	n/a	n/a	n/a	15	16	8	1	7
2058562	STOP	n/a	LTP258	ltpFR2	14	n/a	n/a	n/a	15	n/a	n/a	n/a	n/a
2061972	REC_START	n/a	LTP258	ltpFR2	14	9	n/a	n/a	n/a	n/a	0	0	0
2065571	REC_WORD	wordpools/wasnorm_wordpool_576.txt	LTP258	ltpFR2	14	9	HAND	683	n/a	n/a	0	0	0
2066154	REC_WORD	wordpools/wasnorm_wordpool_576.txt	LTP258	ltpFR2	14	9	FOOT	590	n/a	n/a	0	0	0
2066924	REC_WORD	wordpools/wasnorm_wordpool_576.txt	LTP258	ltpFR2	14	9	LIVER	833	n/a	n/a	0	0	0
2067600	REC_WORD	wordpools/wasnorm_wordpool_576.txt	LTP258	ltpFR2	14	9	HATCHET	691	n/a	n/a	0	0	0
2068450	REC_WORD	wordpools/wasnorm_wordpool_576.txt	LTP258	ltpFR2	14	9	AIRPORT	13	n/a	n/a	0	0	0
2077074	REC_WORD	wordpools/wasnorm_wordpool_576.txt	LTP258	ltpFR2	14	9	TORTOISE	1486	n/a	n/a	0	0	0
2078160	REC_WORD	wordpools/wasnorm_wordpool_576.txt	LTP258	ltpFR2	14	9	TOURIST	1488	n/a	n/a	0	0	0
2079521	REC_WORD	wordpools/wasnorm_wordpool_576.txt	LTP258	ltpFR2	14	9	LUGGAGE	847	n/a	n/a	0	0	0
2083288	REC_WORD	wordpools/wasnorm_wordpool_576.txt	LTP258	ltpFR2	14	9	TUNNEL	1519	n/a	n/a	0	0	0
2084080	REC_WORD	wordpools/wasnorm_wordpool_576.txt	LTP258	ltpFR2	14	9	DENIM	446	n/a	n/a	0	0	0
2084912	REC_WORD	wordpools/wasnorm_wordpool_576.txt	LTP258	ltpFR2	14	9	ASIA	46	n/a	n/a	0	0	0
2086424	REC_WORD	wordpools/wasnorm_wordpool_576.txt	LTP258	ltpFR2	14	9	TUBA	1515	n/a	n/a	0	0	0
2087122	REC_WORD	wordpools/wasnorm_wordpool_576.txt	LTP258	ltpFR2	14	9	HARP	689	n/a	n/a	0	0	0
2121849	REC_WORD	wordpools/wasnorm_wordpool_576.txt	LTP258	ltpFR2	14	9	POSTAGE	1113	n/a	n/a	0	0	0
2152654	WORD	wordpools/wasnorm_wordpool_576.txt	LTP258	ltpFR2	14	10	CONVICT	371	n/a	n/a	0	0	0
2155466	WORD	wordpools/wasnorm_wordpool_576.txt	LTP258	ltpFR2	14	10	VICTIM	1562	n/a	n/a	0	0	0
2158211	WORD	wordpools/wasnorm_wordpool_576.txt	LTP258	ltpFR2	14	10	CAMEL	223	n/a	n/a	0	0	0
2160691	WORD	wordpools/wasnorm_wordpool_576.txt	LTP258	ltpFR2	14	10	BOUQUET	157	n/a	n/a	0	0	0
2163454	WORD	wordpools/wasnorm_wordpool_576.txt	LTP258	ltpFR2	14	10	BADGE	68	n/a	n/a	0	0	0
2165983	WORD	wordpools/wasnorm_wordpool_576.txt	LTP258	ltpFR2	14	10	CANYON	235	n/a	n/a	0	0	0
2168580	WORD	wordpools/wasnorm_wordpool_576.txt	LTP258	ltpFR2	14	10	PATIENT	1024	n/a	n/a	0	0	0
2171225	WORD	wordpools/wasnorm_wordpool_576.txt	LTP258	ltpFR2	14	10	NURSE	963	n/a	n/a	0	0	0
2173688	WORD	wordpools/wasnorm_wordpool_576.txt	LTP258	ltpFR2	14	10	SHOVEL	1295	n/a	n/a	0	0	0
2176134	WORD	wordpools/wasnorm_wordpool_576.txt	LTP258	ltpFR2	14	10	ICING	732	n/a	n/a	0	0	0
2178648	WORD	wordpools/wasnorm_wordpool_576.txt	LTP258	ltpFR2	14	10	PASTA	1021	n/a	n/a	0	0	0
2181461	WORD	wordpools/wasnorm_wordpool_576.txt	LTP258	ltpFR2	14	10	GRILL	661	n/a	n/a	0	0	0
2183973	WORD	wordpools/wasnorm_wordpool_576.txt	LTP258	ltpFR2	14	10	PERFUME	1049	n/a	n/a	0	0	0
2186752	WORD	wordpools/wasnorm_wordpool_576.txt	LTP258	ltpFR2	14	10	SISTER	1312	n/a	n/a	0	0	0
2189565	WORD	wordpools/wasnorm_wordpool_576.txt	LTP258	ltpFR2	14	10	BRANDY	169	n/a	n/a	0	0	0
2192144	WORD	wordpools/wasnorm_wordpool_576.txt	LTP258	ltpFR2	14	10	SWAMP	1416	n/a	n/a	0	0	0
2194940	WORD	wordpools/wasnorm_wordpool_576.txt	LTP258	ltpFR2	14	10	PEACH	1031	n/a	n/a	0	0	0
2197637	WORD	wordpools/wasnorm_wordpool_576.txt	LTP258	ltpFR2	14	10	PASTRY	1022	n/a	n/a	0	0	0
2200365	WORD	wordpools/wasnorm_wordpool_576.txt	LTP258	ltpFR2	14	10	PIGEON	1065	n/a	n/a	0	0	0
2203028	WORD	wordpools/wasnorm_wordpool_576.txt	LTP258	ltpFR2	14	10	TURKEY	1520	n/a	n/a	0	0	0
2205591	WORD	wordpools/wasnorm_wordpool_576.txt	LTP258	ltpFR2	14	10	DRILL	497	n/a	n/a	0	0	0
2208236	WORD	wordpools/wasnorm_wordpool_576.txt	LTP258	ltpFR2	14	10	BANQUET	86	n/a	n/a	0	0	0
2211032	WORD	wordpools/wasnorm_wordpool_576.txt	LTP258	ltpFR2	14	10	BEAVER	109	n/a	n/a	0	0	0
2213828	WORD	wordpools/wasnorm_wordpool_576.txt	LTP258	ltpFR2	14	10	FLOWER	584	n/a	n/a	0	0	0
2215444	START	n/a	LTP258	ltpFR2	14	n/a	n/a	n/a	16	n/a	n/a	n/a	n/a
2216336	DISTRACTOR	n/a	LTP258	ltpFR2	14	10	n/a	n/a	n/a	n/a	0	0	0
2216341	PROB	n/a	LTP258	ltpFR2	14	n/a	n/a	n/a	16	13	6	6	1
2217922	PROB	n/a	LTP258	ltpFR2	14	n/a	n/a	n/a	16	10	2	7	1
2219037	PROB	n/a	LTP258	ltpFR2	14	n/a	n/a	n/a	16	18	3	7	8
2220036	PROB	n/a	LTP258	ltpFR2	14	n/a	n/a	n/a	16	16	7	2	7
2223264	PROB	n/a	LTP258	ltpFR2	14	n/a	n/a	n/a	16	7	3	1	3
2224646	PROB	n/a	LTP258	ltpFR2	14	n/a	n/a	n/a	16	13	2	7	4
2226176	PROB	n/a	LTP258	ltpFR2	14	n/a	n/a	n/a	16	15	9	4	2
2227741	PROB	n/a	LTP258	ltpFR2	14	n/a	n/a	n/a	16	12	4	3	5
2229771	PROB	n/a	LTP258	ltpFR2	14	n/a	n/a	n/a	16	7	4	1	2
2231785	PROB	n/a	LTP258	ltpFR2	14	n/a	n/a	n/a	16	12	1	9	2
2232816	PROB	n/a	LTP258	ltpFR2	14	n/a	n/a	n/a	16	22	8	7	7
2235329	PROB	n/a	LTP258	ltpFR2	14	n/a	n/a	n/a	16	13	8	3	2
2236545	PROB	n/a	LTP258	ltpFR2	14	n/a	n/a	n/a	16	26	8	8	9
2239017	STOP	n/a	LTP258	ltpFR2	14	n/a	n/a	n/a	16	n/a	n/a	n/a	n/a
2241238	REC_START	n/a	LTP258	ltpFR2	14	10	n/a	n/a	n/a	n/a	0	0	0
2246039	REC_WORD	wordpools/wasnorm_wordpool_576.txt	LTP258	ltpFR2	14	10	PIGEON	1065	n/a	n/a	0	0	0
2246765	REC_WORD	wordpools/wasnorm_wordpool_576.txt	LTP258	ltpFR2	14	10	TURKEY	1520	n/a	n/a	0	0	0
2248452	REC_WORD	wordpools/wasnorm_wordpool_576.txt	LTP258	ltpFR2	14	10	BANQUET	86	n/a	n/a	0	0	0
2254677	REC_WORD	wordpools/wasnorm_wordpool_576.txt	LTP258	ltpFR2	14	10	CONVICT	371	n/a	n/a	0	0	0
2255412	REC_WORD	wordpools/wasnorm_wordpool_576.txt	LTP258	ltpFR2	14	10	VICTIM	1562	n/a	n/a	0	0	0
2256301	REC_WORD	wordpools/wasnorm_wordpool_576.txt	LTP258	ltpFR2	14	10	SISTER	1312	n/a	n/a	0	0	0
2260020	REC_WORD	wordpools/wasnorm_wordpool_576.txt	LTP258	ltpFR2	14	10	PATIENT	1024	n/a	n/a	0	0	0
2260791	REC_WORD	wordpools/wasnorm_wordpool_576.txt	LTP258	ltpFR2	14	10	NURSE	963	n/a	n/a	0	0	0
2263925	REC_WORD	wordpools/wasnorm_wordpool_576.txt	LTP258	ltpFR2	14	10	CAMEL	223	n/a	n/a	0	0	0
2264649	REC_WORD	wordpools/wasnorm_wordpool_576.txt	LTP258	ltpFR2	14	10	CANYON	235	n/a	n/a	0	0	0
2265393	REC_WORD	wordpools/wasnorm_wordpool_576.txt	LTP258	ltpFR2	14	10	BOUQUET	157	n/a	n/a	0	0	0
2277157	REC_WORD	wordpools/wasnorm_wordpool_576.txt	LTP258	ltpFR2	14	10	PEACH	1031	n/a	n/a	0	0	0
2279401	REC_WORD	wordpools/wasnorm_wordpool_576.txt	LTP258	ltpFR2	14	10	PASTRY	1022	n/a	n/a	0	0	0
2280771	REC_WORD	wordpools/wasnorm_wordpool_576.txt	LTP258	ltpFR2	14	10	BRANDY	169	n/a	n/a	0	0	0
2288321	REC_WORD	wordpools/wasnorm_wordpool_576.txt	LTP258	ltpFR2	14	10	PASTA	1021	n/a	n/a	0	0	0
2289234	REC_WORD	wordpools/wasnorm_wordpool_576.txt	LTP258	ltpFR2	14	10	GRILL	661	n/a	n/a	0	0	0
2331869	DISTRACTOR	n/a	LTP258	ltpFR2	14	11	n/a	n/a	n/a	n/a	0	0	0
2331869	START	n/a	LTP258	ltpFR2	14	n/a	n/a	n/a	17	n/a	n/a	n/a	n/a
2331902	PROB	n/a	LTP258	ltpFR2	14	n/a	n/a	n/a	17	13	5	5	3
2332967	PROB	n/a	LTP258	ltpFR2	14	n/a	n/a	n/a	17	21	9	8	4
2335014	PROB	n/a	LTP258	ltpFR2	14	n/a	n/a	n/a	17	18	6	9	3
2336179	PROB	n/a	LTP258	ltpFR2	14	n/a	n/a	n/a	17	17	8	3	6
2337776	PROB	n/a	LTP258	ltpFR2	14	n/a	n/a	n/a	17	26	9	8	9
2339558	PROB	n/a	LTP258	ltpFR2	14	n/a	n/a	n/a	17	23	9	8	6
2341489	PROB	n/a	LTP258	ltpFR2	14	n/a	n/a	n/a	17	18	7	6	5
2343235	PROB	n/a	LTP258	ltpFR2	14	n/a	n/a	n/a	17	18	9	5	4
2344250	PROB	n/a	LTP258	ltpFR2	14	n/a	n/a	n/a	17	23	8	6	8
2346364	PROB	n/a	LTP258	ltpFR2	14	n/a	n/a	n/a	17	20	9	6	5
2347745	PROB	n/a	LTP258	ltpFR2	14	n/a	n/a	n/a	17	27	9	9	9
2348860	PROB	n/a	LTP258	ltpFR2	14	n/a	n/a	n/a	17	22	5	9	8
2351356	PROB	n/a	LTP258	ltpFR2	14	n/a	n/a	n/a	17	15	3	4	8
2352489	PROB	n/a	LTP258	ltpFR2	14	n/a	n/a	n/a	17	10	1	2	8
2355869	STOP	n/a	LTP258	ltpFR2	14	n/a	n/a	n/a	17	n/a	n/a	n/a	n/a
2356931	WORD	wordpools/wasnorm_wordpool_576.txt	LTP258	ltpFR2	14	11	TROUT	1511	n/a	n/a	0	0	0
2359377	WORD	wordpools/wasnorm_wordpool_576.txt	LTP258	ltpFR2	14	11	SIBLING	1301	n/a	n/a	0	0	0
2362140	WORD	wordpools/wasnorm_wordpool_576.txt	LTP258	ltpFR2	14	11	FLASHLIGHT	575	n/a	n/a	0	0	0
2364819	WORD	wordpools/wasnorm_wordpool_576.txt	LTP258	ltpFR2	14	11	STAPLE	1371	n/a	n/a	0	0	0
2367249	WORD	wordpools/wasnorm_wordpool_576.txt	LTP258	ltpFR2	14	11	TURNIP	1521	n/a	n/a	0	0	0
2369745	WORD	wordpools/wasnorm_wordpool_576.txt	LTP258	ltpFR2	14	11	DAISY	435	n/a	n/a	0	0	0
2372425	WORD	wordpools/wasnorm_wordpool_576.txt	LTP258	ltpFR2	14	11	DUST	508	n/a	n/a	0	0	0
2375237	WORD	wordpools/wasnorm_wordpool_576.txt	LTP258	ltpFR2	14	11	REPORT	1184	n/a	n/a	0	0	0
2377933	WORD	wordpools/wasnorm_wordpool_576.txt	LTP258	ltpFR2	14	11	HAWK	692	n/a	n/a	0	0	0
2380380	WORD	wordpools/wasnorm_wordpool_576.txt	LTP258	ltpFR2	14	11	ROOSTER	1209	n/a	n/a	0	0	0
2382843	WORD	wordpools/wasnorm_wordpool_576.txt	LTP258	ltpFR2	14	11	WRIST	1626	n/a	n/a	0	0	0
2385372	WORD	wordpools/wasnorm_wordpool_576.txt	LTP258	ltpFR2	14	11	LEG	809	n/a	n/a	0	0	0
2388101	WORD	wordpools/wasnorm_wordpool_576.txt	LTP258	ltpFR2	14	11	FLESH	579	n/a	n/a	0	0	0
2390549	WORD	wordpools/wasnorm_wordpool_576.txt	LTP258	ltpFR2	14	11	LUNCH	849	n/a	n/a	0	0	0
2393027	WORD	wordpools/wasnorm_wordpool_576.txt	LTP258	ltpFR2	14	11	COUSIN	392	n/a	n/a	0	0	0
2395624	WORD	wordpools/wasnorm_wordpool_576.txt	LTP258	ltpFR2	14	11	SERVER	1272	n/a	n/a	0	0	0
2398253	WORD	wordpools/wasnorm_wordpool_576.txt	LTP258	ltpFR2	14	11	BOARD	143	n/a	n/a	0	0	0
2400999	WORD	wordpools/wasnorm_wordpool_576.txt	LTP258	ltpFR2	14	11	WARDROBE	1587	n/a	n/a	0	0	0
2403496	WORD	wordpools/wasnorm_wordpool_576.txt	LTP258	ltpFR2	14	11	FINGER	567	n/a	n/a	0	0	0
2406025	WORD	wordpools/wasnorm_wordpool_576.txt	LTP258	ltpFR2	14	11	ANKLE	24	n/a	n/a	0	0	0
2408455	WORD	wordpools/wasnorm_wordpool_576.txt	LTP258	ltpFR2	14	11	UNCLE	1536	n/a	n/a	0	0	0
2411100	WORD	wordpools/wasnorm_wordpool_576.txt	LTP258	ltpFR2	14	11	BLOCKADE	137	n/a	n/a	0	0	0
2413730	WORD	wordpools/wasnorm_wordpool_576.txt	LTP258	ltpFR2	14	11	PISTOL	1075	n/a	n/a	0	0	0
2416193	WORD	wordpools/wasnorm_wordpool_576.txt	LTP258	ltpFR2	14	11	MAILBOX	857	n/a	n/a	0	0	0
2417807	START	n/a	LTP258	ltpFR2	14	n/a	n/a	n/a	18	n/a	n/a	n/a	n/a
2418879	DISTRACTOR	n/a	LTP258	ltpFR2	14	11	n/a	n/a	n/a	n/a	0	0	0
2418889	PROB	n/a	LTP258	ltpFR2	14	n/a	n/a	n/a	18	156	7	5	4
2421268	PROB	n/a	LTP258	ltpFR2	14	n/a	n/a	n/a	18	14	6	2	6
2423216	PROB	n/a	LTP258	ltpFR2	14	n/a	n/a	n/a	18	16	2	8	6
2424581	PROB	n/a	LTP258	ltpFR2	14	n/a	n/a	n/a	18	13	2	2	9
2425613	PROB	n/a	LTP258	ltpFR2	14	n/a	n/a	n/a	18	20	8	3	9
2427842	PROB	n/a	LTP258	ltpFR2	14	n/a	n/a	n/a	18	15	8	2	5
2429090	PROB	n/a	LTP258	ltpFR2	14	n/a	n/a	n/a	18	18	6	6	6
2430305	PROB	n/a	LTP258	ltpFR2	14	n/a	n/a	n/a	18	24	8	7	9
2431720	PROB	n/a	LTP258	ltpFR2	14	n/a	n/a	n/a	18	12	1	7	4
2434149	PROB	n/a	LTP258	ltpFR2	14	n/a	n/a	n/a	18	12	4	4	4
2435264	PROB	n/a	LTP258	ltpFR2	14	n/a	n/a	n/a	18	15	6	1	8
2441807	STOP	n/a	LTP258	ltpFR2	14	n/a	n/a	n/a	18	n/a	n/a	n/a	n/a
2443686	REC_START	n/a	LTP258	ltpFR2	14	11	n/a	n/a	n/a	n/a	0	0	0
2446556	REC_WORD	wordpools/wasnorm_wordpool_576.txt	LTP258	ltpFR2	14	11	BOARD	143	n/a	n/a	0	0	0
2447366	REC_WORD	wordpools/wasnorm_wordpool_576.txt	LTP258	ltpFR2	14	11	WARDROBE	1587	n/a	n/a	0	0	0
2448986	REC_WORD	wordpools/wasnorm_wordpool_576.txt	LTP258	ltpFR2	14	11	FINGER	567	n/a	n/a	0	0	0
2449837	REC_WORD	wordpools/wasnorm_wordpool_576.txt	LTP258	ltpFR2	14	11	ANKLE	24	n/a	n/a	0	0	0
2450578	REC_WORD	wordpools/wasnorm_wordpool_576.txt	LTP258	ltpFR2	14	11	LEG	809	n/a	n/a	0	0	0
2451230	REC_WORD	wordpools/wasnorm_wordpool_576.txt	LTP258	ltpFR2	14	11	FLESH	579	n/a	n/a	0	0	0
2452429	REC_WORD	wordpools/wasnorm_wordpool_576.txt	LTP258	ltpFR2	14	11	UNCLE	1536	n/a	n/a	0	0	0
2455264	REC_WORD	wordpools/wasnorm_wordpool_576.txt	LTP258	ltpFR2	14	11	BLOCKADE	137	n/a	n/a	0	0	0
2463413	REC_WORD	wordpools/wasnorm_wordpool_576.txt	LTP258	ltpFR2	14	11	DAISY	435	n/a	n/a	0	0	0
2464041	REC_WORD	wordpools/wasnorm_wordpool_576.txt	LTP258	ltpFR2	14	11	REPORT	1184	n/a	n/a	0	0	0
2465202	REC_WORD	wordpools/wasnorm_wordpool_576.txt	LTP258	ltpFR2	14	11	DUST	508	n/a	n/a	0	0	0
2472585	REC_WORD	wordpools/wasnorm_wordpool_576.txt	LTP258	ltpFR2	14	11	TURNIP	1521	n/a	n/a	0	0	0
2473328	REC_WORD	wordpools/wasnorm_wordpool_576.txt	LTP258	ltpFR2	14	11	STAPLE	1371	n/a	n/a	0	0	0
2476560	REC_WORD	wordpools/wasnorm_wordpool_576.txt	LTP258	ltpFR2	14	11	SIBLING	1301	n/a	n/a	0	0	0
2477387	REC_WORD	wordpools/wasnorm_wordpool_576.txt	LTP258	ltpFR2	14	11	FLASHLIGHT	575	n/a	n/a	0	0	0
2489600	REC_WORD	wordpools/wasnorm_wordpool_576.txt	LTP258	ltpFR2	14	11	COUSIN	392	n/a	n/a	0	0	0
2490332	REC_WORD	wordpools/wasnorm_wordpool_576.txt	LTP258	ltpFR2	14	11	LUNCH	849	n/a	n/a	0	0	0
2498931	REC_WORD	wordpools/wasnorm_wordpool_576.txt	LTP258	ltpFR2	14	11	SERVER	1272	n/a	n/a	0	0	0
2534450	DISTRACTOR	n/a	LTP258	ltpFR2	14	12	n/a	n/a	n/a	n/a	0	0	0
2534451	START	n/a	LTP258	ltpFR2	14	n/a	n/a	n/a	19	n/a	n/a	n/a	n/a
2534484	PROB	n/a	LTP258	ltpFR2	14	n/a	n/a	n/a	19	9	1	7	1
2535566	PROB	n/a	LTP258	ltpFR2	14	n/a	n/a	n/a	19	111	2	2	7
2536713	PROB	n/a	LTP258	ltpFR2	14	n/a	n/a	n/a	19	17	9	5	3
2538993	PROB	n/a	LTP258	ltpFR2	14	n/a	n/a	n/a	19	19	9	6	3
2541106	PROB	n/a	LTP258	ltpFR2	14	n/a	n/a	n/a	19	17	3	5	9
2543719	PROB	n/a	LTP258	ltpFR2	14	n/a	n/a	n/a	19	20	8	9	3
2545117	PROB	n/a	LTP258	ltpFR2	14	n/a	n/a	n/a	19	9	1	7	1
2545966	PROB	n/a	LTP258	ltpFR2	14	n/a	n/a	n/a	19	19	8	9	2
2546898	PROB	n/a	LTP258	ltpFR2	14	n/a	n/a	n/a	19	20	9	4	7
2548480	PROB	n/a	LTP258	ltpFR2	14	n/a	n/a	n/a	19	16	7	1	8
2549595	PROB	n/a	LTP258	ltpFR2	14	n/a	n/a	n/a	19	22	6	7	9
2551108	PROB	n/a	LTP258	ltpFR2	14	n/a	n/a	n/a	19	17	4	9	4
2552406	PROB	n/a	LTP258	ltpFR2	14	n/a	n/a	n/a	19	24	6	9	9
2554070	PROB	n/a	LTP258	ltpFR2	14	n/a	n/a	n/a	19	13	4	6	3
2555519	PROB	n/a	LTP258	ltpFR2	14	n/a	n/a	n/a	19	22	5	8	9
2556766	PROB	n/a	LTP258	ltpFR2	14	n/a	n/a	n/a	19	10	1	2	7
2557658	STOP	n/a	LTP258	ltpFR2	14	n/a	n/a	n/a	19	n/a	n/a	n/a	n/a
2559296	WORD	wordpools/wasnorm_wordpool_576.txt	LTP258	ltpFR2	14	12	PEPPER	1047	n/a	n/a	0	0	0
2561892	WORD	wordpools/wasnorm_wordpool_576.txt	LTP258	ltpFR2	14	12	JUGGLER	763	n/a	n/a	0	0	0
2564605	WORD	wordpools/wasnorm_wordpool_576.txt	LTP258	ltpFR2	14	12	ROD	1203	n/a	n/a	0	0	0
2567217	WORD	wordpools/wasnorm_wordpool_576.txt	LTP258	ltpFR2	14	12	LIGHTNING	820	n/a	n/a	0	0	0
2569780	WORD	wordpools/wasnorm_wordpool_576.txt	LTP258	ltpFR2	14	12	DOLPHIN	483	n/a	n/a	0	0	0
2572243	WORD	wordpools/wasnorm_wordpool_576.txt	LTP258	ltpFR2	14	12	PARROT	1015	n/a	n/a	0	0	0
2574889	WORD	wordpools/wasnorm_wordpool_576.txt	LTP258	ltpFR2	14	12	PADDING	999	n/a	n/a	0	0	0
2577636	WORD	wordpools/wasnorm_wordpool_576.txt	LTP258	ltpFR2	14	12	TERMITE	1451	n/a	n/a	0	0	0
2580131	WORD	wordpools/wasnorm_wordpool_576.txt	LTP258	ltpFR2	14	12	SKETCH	1315	n/a	n/a	0	0	0
2582678	WORD	wordpools/wasnorm_wordpool_576.txt	LTP258	ltpFR2	14	12	AWARD	63	n/a	n/a	0	0	0
2585157	WORD	wordpools/wasnorm_wordpool_576.txt	LTP258	ltpFR2	14	12	MARKET	871	n/a	n/a	0	0	0
2587605	WORD	wordpools/wasnorm_wordpool_576.txt	LTP258	ltpFR2	14	12	DRUG	501	n/a	n/a	0	0	0
2590316	WORD	wordpools/wasnorm_wordpool_576.txt	LTP258	ltpFR2	14	12	BANJO	82	n/a	n/a	0	0	0
2592746	WORD	wordpools/wasnorm_wordpool_576.txt	LTP258	ltpFR2	14	12	PLATE	1086	n/a	n/a	0	0	0
2595192	WORD	wordpools/wasnorm_wordpool_576.txt	LTP258	ltpFR2	14	12	SNACK	1331	n/a	n/a	0	0	0
2597921	WORD	wordpools/wasnorm_wordpool_576.txt	LTP258	ltpFR2	14	12	VELVET	1555	n/a	n/a	0	0	0
2600635	WORD	wordpools/wasnorm_wordpool_576.txt	LTP258	ltpFR2	14	12	GIRL	637	n/a	n/a	0	0	0
2603363	WORD	wordpools/wasnorm_wordpool_576.txt	LTP258	ltpFR2	14	12	MARKER	870	n/a	n/a	0	0	0
2605860	WORD	wordpools/wasnorm_wordpool_576.txt	LTP258	ltpFR2	14	12	TEMPLE	1448	n/a	n/a	0	0	0
2608490	WORD	wordpools/wasnorm_wordpool_576.txt	LTP258	ltpFR2	14	12	CHAPEL	280	n/a	n/a	0	0	0
2611302	WORD	wordpools/wasnorm_wordpool_576.txt	LTP258	ltpFR2	14	12	BARLEY	88	n/a	n/a	0	0	0
2613781	WORD	wordpools/wasnorm_wordpool_576.txt	LTP258	ltpFR2	14	12	SHORTCAKE	1292	n/a	n/a	0	0	0
2616327	WORD	wordpools/wasnorm_wordpool_576.txt	LTP258	ltpFR2	14	12	CRAYON	401	n/a	n/a	0	0	0
2618840	WORD	wordpools/wasnorm_wordpool_576.txt	LTP258	ltpFR2	14	12	TROMBONE	1508	n/a	n/a	0	0	0
2620456	START	n/a	LTP258	ltpFR2	14	n/a	n/a	n/a	20	n/a	n/a	n/a	n/a
2621598	DISTRACTOR	n/a	LTP258	ltpFR2	14	12	n/a	n/a	n/a	n/a	0	0	0
2621604	PROB	n/a	LTP258	ltpFR2	14	n/a	n/a	n/a	20	16	2	7	7
2623317	PROB	n/a	LTP258	ltpFR2	14	n/a	n/a	n/a	20	18	6	4	8
2624282	PROB	n/a	LTP258	ltpFR2	14	n/a	n/a	n/a	20	16	1	9	6
2625197	PROB	n/a	LTP258	ltpFR2	14	n/a	n/a	n/a	20	9	2	2	5
2626362	PROB	n/a	LTP258	ltpFR2	14	n/a	n/a	n/a	20	21	8	5	8
2627744	PROB	n/a	LTP258	ltpFR2	14	n/a	n/a	n/a	20	16	8	3	5
2629108	PROB	n/a	LTP258	ltpFR2	14	n/a	n/a	n/a	20	15	4	6	5
2630024	PROB	n/a	LTP258	ltpFR2	14	n/a	n/a	n/a	20	13	6	1	6
2631688	PROB	n/a	LTP258	ltpFR2	14	n/a	n/a	n/a	20	17	7	4	6
2632571	PROB	n/a	LTP258	ltpFR2	14	n/a	n/a	n/a	20	9	7	1	1
2633486	PROB	n/a	LTP258	ltpFR2	14	n/a	n/a	n/a	20	12	6	3	3
2634601	PROB	n/a	LTP258	ltpFR2	14	n/a	n/a	n/a	20	11	7	3	1
2635666	PROB	n/a	LTP258	ltpFR2	14	n/a	n/a	n/a	20	10	4	3	3
2637013	PROB	n/a	LTP258	ltpFR2	14	n/a	n/a	n/a	20	14	5	3	6
2638479	PROB	n/a	LTP258	ltpFR2	14	n/a	n/a	n/a	20	9	3	3	3
2639925	PROB	n/a	LTP258	ltpFR2	14	n/a	n/a	n/a	20	16	3	6	7
2641357	PROB	n/a	LTP258	ltpFR2	14	n/a	n/a	n/a	20	9	3	5	1
2642506	PROB	n/a	LTP258	ltpFR2	14	n/a	n/a	n/a	20	12	6	2	3
2644265	STOP	n/a	LTP258	ltpFR2	14	n/a	n/a	n/a	20	n/a	n/a	n/a	n/a
2646366	REC_START	n/a	LTP258	ltpFR2	14	12	n/a	n/a	n/a	n/a	0	0	0
2648680	REC_WORD	wordpools/wasnorm_wordpool_576.txt	LTP258	ltpFR2	14	12	TEMPLE	1448	n/a	n/a	0	0	0
2649347	REC_WORD	wordpools/wasnorm_wordpool_576.txt	LTP258	ltpFR2	14	12	CHAPEL	280	n/a	n/a	0	0	0
2652322	REC_WORD	wordpools/wasnorm_wordpool_576.txt	LTP258	ltpFR2	14	12	GIRL	637	n/a	n/a	0	0	0
2653403	REC_WORD	wordpools/wasnorm_wordpool_576.txt	LTP258	ltpFR2	14	12	SHORTCAKE	1292	n/a	n/a	0	0	0
2654236	REC_WORD	wordpools/wasnorm_wordpool_576.txt	LTP258	ltpFR2	14	12	TROMBONE	1508	n/a	n/a	0	0	0
2656608	REC_WORD	wordpools/wasnorm_wordpool_576.txt	LTP258	ltpFR2	14	12	MARKET	871	n/a	n/a	0	0	0
2657294	REC_WORD	wordpools/wasnorm_wordpool_576.txt	LTP258	ltpFR2	14	12	AWARD	63	n/a	n/a	0	0	0
2658339	REC_WORD	wordpools/wasnorm_wordpool_576.txt	LTP258	ltpFR2	14	12	PEPPER	1047	n/a	n/a	0	0	0
2658993	REC_WORD	wordpools/wasnorm_wordpool_576.txt	LTP258	ltpFR2	14	12	JUGGLER	763	n/a	n/a	0	0	0
2659784	REC_WORD	wordpools/wasnorm_wordpool_576.txt	LTP258	ltpFR2	14	12	LIGHTNING	820	n/a	n/a	0	0	0
2660675	REC_WORD	wordpools/wasnorm_wordpool_576.txt	LTP258	ltpFR2	14	12	ROD	1203	n/a	n/a	0	0	0
2661512	REC_WORD	wordpools/wasnorm_wordpool_576.txt	LTP258	ltpFR2	14	12	DOLPHIN	483	n/a	n/a	0	0	0
2737097	WORD	wordpools/wasnorm_wordpool_576.txt	LTP258	ltpFR2	14	13	PLIERS	1089	n/a	n/a	0	0	0
2739860	WORD	wordpools/wasnorm_wordpool_576.txt	LTP258	ltpFR2	14	13	ROCKET	1202	n/a	n/a	0	0	0
2742306	WORD	wordpools/wasnorm_wordpool_576.txt	LTP258	ltpFR2	14	13	BEAST	108	n/a	n/a	0	0	0
2745135	WORD	wordpools/wasnorm_wordpool_576.txt	LTP258	ltpFR2	14	13	DRESSER	496	n/a	n/a	0	0	0
2747898	WORD	wordpools/wasnorm_wordpool_576.txt	LTP258	ltpFR2	14	13	TART	1436	n/a	n/a	0	0	0
2750578	WORD	wordpools/wasnorm_wordpool_576.txt	LTP258	ltpFR2	14	13	BUBBLE	183	n/a	n/a	0	0	0
2753240	WORD	wordpools/wasnorm_wordpool_576.txt	LTP258	ltpFR2	14	13	SHELF	1280	n/a	n/a	0	0	0
2755736	WORD	wordpools/wasnorm_wordpool_576.txt	LTP258	ltpFR2	14	13	DUSTPAN	509	n/a	n/a	0	0	0
2758166	WORD	wordpools/wasnorm_wordpool_576.txt	LTP258	ltpFR2	14	13	CLAM	315	n/a	n/a	0	0	0
2760646	WORD	wordpools/wasnorm_wordpool_576.txt	LTP258	ltpFR2	14	13	GAVEL	627	n/a	n/a	0	0	0
2763291	WORD	wordpools/wasnorm_wordpool_576.txt	LTP258	ltpFR2	14	13	JURY	766	n/a	n/a	0	0	0
2765738	WORD	wordpools/wasnorm_wordpool_576.txt	LTP258	ltpFR2	14	13	COUCH	386	n/a	n/a	0	0	0
2768435	WORD	wordpools/wasnorm_wordpool_576.txt	LTP258	ltpFR2	14	13	DINER	467	n/a	n/a	0	0	0
2771096	WORD	wordpools/wasnorm_wordpool_576.txt	LTP258	ltpFR2	14	13	ITEM	746	n/a	n/a	0	0	0
2773925	WORD	wordpools/wasnorm_wordpool_576.txt	LTP258	ltpFR2	14	13	COLLEGE	346	n/a	n/a	0	0	0
2776688	WORD	wordpools/wasnorm_wordpool_576.txt	LTP258	ltpFR2	14	13	PLASTER	1085	n/a	n/a	0	0	0
2779267	WORD	wordpools/wasnorm_wordpool_576.txt	LTP258	ltpFR2	14	13	TYPIST	1532	n/a	n/a	0	0	0
2781730	WORD	wordpools/wasnorm_wordpool_576.txt	LTP258	ltpFR2	14	13	WORKER	1621	n/a	n/a	0	0	0
2784260	WORD	wordpools/wasnorm_wordpool_576.txt	LTP258	ltpFR2	14	13	LACE	792	n/a	n/a	0	0	0
2786789	WORD	wordpools/wasnorm_wordpool_576.txt	LTP258	ltpFR2	14	13	SEAL	1262	n/a	n/a	0	0	0
2789536	WORD	wordpools/wasnorm_wordpool_576.txt	LTP258	ltpFR2	14	13	CLOCK	325	n/a	n/a	0	0	0
2792132	WORD	wordpools/wasnorm_wordpool_576.txt	LTP258	ltpFR2	14	13	EXPERT	543	n/a	n/a	0	0	0
2794629	WORD	wordpools/wasnorm_wordpool_576.txt	LTP258	ltpFR2	14	13	AUTHOR	61	n/a	n/a	0	0	0
2797157	WORD	wordpools/wasnorm_wordpool_576.txt	LTP258	ltpFR2	14	13	CUPBOARD	425	n/a	n/a	0	0	0
2798772	START	n/a	LTP258	ltpFR2	14	n/a	n/a	n/a	21	n/a	n/a	n/a	n/a
2799921	DISTRACTOR	n/a	LTP258	ltpFR2	14	13	n/a	n/a	n/a	n/a	0	0	0
2799936	PROB	n/a	LTP258	ltpFR2	14	n/a	n/a	n/a	21	7	1	1	5
2801185	PROB	n/a	LTP258	ltpFR2	14	n/a	n/a	n/a	21	15	6	1	8
2802450	PROB	n/a	LTP258	ltpFR2	14	n/a	n/a	n/a	21	26	8	9	9
2803797	PROB	n/a	LTP258	ltpFR2	14	n/a	n/a	n/a	21	12	2	6	4
2804912	PROB	n/a	LTP258	ltpFR2	14	n/a	n/a	n/a	21	23	8	7	7
2806377	PROB	n/a	LTP258	ltpFR2	14	n/a	n/a	n/a	21	12	6	7	2
2808008	PROB	n/a	LTP258	ltpFR2	14	n/a	n/a	n/a	21	13	2	8	3
2809323	PROB	n/a	LTP258	ltpFR2	14	n/a	n/a	n/a	21	18	6	9	3
2810854	PROB	n/a	LTP258	ltpFR2	14	n/a	n/a	n/a	21	13	5	7	1
2812268	PROB	n/a	LTP258	ltpFR2	14	n/a	n/a	n/a	21	17	2	7	8
2813416	PROB	n/a	LTP258	ltpFR2	14	n/a	n/a	n/a	21	17	9	7	1
2814483	PROB	n/a	LTP258	ltpFR2	14	n/a	n/a	n/a	21	15	4	6	5
2815481	PROB	n/a	LTP258	ltpFR2	14	n/a	n/a	n/a	21	10	1	2	6
2816596	PROB	n/a	LTP258	ltpFR2	14	n/a	n/a	n/a	21	19	6	4	9
2817793	PROB	n/a	LTP258	ltpFR2	14	n/a	n/a	n/a	21	25	8	8	9
2819542	PROB	n/a	LTP258	ltpFR2	14	n/a	n/a	n/a	21	18	5	4	9
2820607	PROB	n/a	LTP258	ltpFR2	14	n/a	n/a	n/a	21	22	9	8	3
2822129	STOP	n/a	LTP258	ltpFR2	14	n/a	n/a	n/a	21	n/a	n/a	n/a	n/a
2824535	REC_START	n/a	LTP258	ltpFR2	14	13	n/a	n/a	n/a	n/a	0	0	0
2829296	REC_WORD	wordpools/wasnorm_wordpool_576.txt	LTP258	ltpFR2	14	13	SEAL	1262	n/a	n/a	0	0	0
2830210	REC_WORD	wordpools/wasnorm_wordpool_576.txt	LTP258	ltpFR2	14	13	CLOCK	325	n/a	n/a	0	0	0
2834989	REC_WORD	wordpools/wasnorm_wordpool_576.txt	LTP258	ltpFR2	14	13	CLAM	315	n/a	n/a	0	0	0
2836663	REC_WORD	wordpools/wasnorm_wordpool_576.txt	LTP258	ltpFR2	14	13	GAVEL	627	n/a	n/a	0	0	0
2837994	REC_WORD	wordpools/wasnorm_wordpool_576.txt	LTP258	ltpFR2	14	13	COLLEGE	346	n/a	n/a	0	0	0
2915198	WORD	wordpools/wasnorm_wordpool_576.txt	LTP258	ltpFR2	14	14	CHILD	299	n/a	n/a	0	0	0
2917645	WORD	wordpools/wasnorm_wordpool_576.txt	LTP258	ltpFR2	14	14	JELLO	754	n/a	n/a	0	0	0
2920074	WORD	wordpools/wasnorm_wordpool_576.txt	LTP258	ltpFR2	14	14	LETTUCE	814	n/a	n/a	0	0	0
2922836	WORD	wordpools/wasnorm_wordpool_576.txt	LTP258	ltpFR2	14	14	PERCH	1048	n/a	n/a	0	0	0
2925517	WORD	wordpools/wasnorm_wordpool_576.txt	LTP258	ltpFR2	14	14	FOX	598	n/a	n/a	0	0	0
2928045	WORD	wordpools/wasnorm_wordpool_576.txt	LTP258	ltpFR2	14	14	POPCORN	1104	n/a	n/a	0	0	0
2930526	WORD	wordpools/wasnorm_wordpool_576.txt	LTP258	ltpFR2	14	14	BLOUSE	139	n/a	n/a	0	0	0
2933337	WORD	wordpools/wasnorm_wordpool_576.txt	LTP258	ltpFR2	14	14	PRIMATE	1123	n/a	n/a	0	0	0
2935834	WORD	wordpools/wasnorm_wordpool_576.txt	LTP258	ltpFR2	14	14	JELLY	755	n/a	n/a	0	0	0
2938263	WORD	wordpools/wasnorm_wordpool_576.txt	LTP258	ltpFR2	14	14	PLAID	1080	n/a	n/a	0	0	0
2940776	WORD	wordpools/wasnorm_wordpool_576.txt	LTP258	ltpFR2	14	14	FILM	565	n/a	n/a	0	0	0
2943339	WORD	wordpools/wasnorm_wordpool_576.txt	LTP258	ltpFR2	14	14	PATROL	1027	n/a	n/a	0	0	0
2946068	WORD	wordpools/wasnorm_wordpool_576.txt	LTP258	ltpFR2	14	14	FOREST	593	n/a	n/a	0	0	0
2948499	WORD	wordpools/wasnorm_wordpool_576.txt	LTP258	ltpFR2	14	14	LUMBER	848	n/a	n/a	0	0	0
2951311	WORD	wordpools/wasnorm_wordpool_576.txt	LTP258	ltpFR2	14	14	PEBBLE	1035	n/a	n/a	0	0	0
2954056	WORD	wordpools/wasnorm_wordpool_576.txt	LTP258	ltpFR2	14	14	STONE	1385	n/a	n/a	0	0	0
2956819	WORD	wordpools/wasnorm_wordpool_576.txt	LTP258	ltpFR2	14	14	CRICKET	408	n/a	n/a	0	0	0
2959382	WORD	wordpools/wasnorm_wordpool_576.txt	LTP258	ltpFR2	14	14	ZIPPER	1636	n/a	n/a	0	0	0
2961878	WORD	wordpools/wasnorm_wordpool_576.txt	LTP258	ltpFR2	14	14	TOASTER	1472	n/a	n/a	0	0	0
2964341	WORD	wordpools/wasnorm_wordpool_576.txt	LTP258	ltpFR2	14	14	RABBIT	1152	n/a	n/a	0	0	0
2966987	WORD	wordpools/wasnorm_wordpool_576.txt	LTP258	ltpFR2	14	14	CROWN	415	n/a	n/a	0	0	0
2969651	WORD	wordpools/wasnorm_wordpool_576.txt	LTP258	ltpFR2	14	14	PRINCE	1124	n/a	n/a	0	0	0
2972447	WORD	wordpools/wasnorm_wordpool_576.txt	LTP258	ltpFR2	14	14	TRENCH	1503	n/a	n/a	0	0	0
2975175	WORD	wordpools/wasnorm_wordpool_576.txt	LTP258	ltpFR2	14	14	FEMALE	559	n/a	n/a	0	0	0
2976789	START	n/a	LTP258	ltpFR2	14	n/a	n/a	n/a	22	n/a	n/a	n/a	n/a
2977971	DISTRACTOR	n/a	LTP258	ltpFR2	14	14	n/a	n/a	n/a	n/a	0	0	0
2977987	PROB	n/a	LTP258	ltpFR2	14	n/a	n/a	n/a	22	11	1	4	6
2979069	PROB	n/a	LTP258	ltpFR2	14	n/a	n/a	n/a	22	15	6	6	3
2980850	PROB	n/a	LTP258	ltpFR2	14	n/a	n/a	n/a	22	19	5	9	5
2981832	PROB	n/a	LTP258	ltpFR2	14	n/a	n/a	n/a	22	10	7	1	2
2984078	PROB	n/a	LTP258	ltpFR2	14	n/a	n/a	n/a	22	17	9	2	6
2985444	PROB	n/a	LTP258	ltpFR2	14	n/a	n/a	n/a	22	15	4	2	9
2987057	PROB	n/a	LTP258	ltpFR2	14	n/a	n/a	n/a	22	15	8	6	1
2988506	PROB	n/a	LTP258	ltpFR2	14	n/a	n/a	n/a	22	24	7	8	9
2989786	PROB	n/a	LTP258	ltpFR2	14	n/a	n/a	n/a	22	13	7	2	4
2991750	PROB	n/a	LTP258	ltpFR2	14	n/a	n/a	n/a	22	17	6	6	5
2993181	PROB	n/a	LTP258	ltpFR2	14	n/a	n/a	n/a	22	21	6	7	8
2996594	PROB	n/a	LTP258	ltpFR2	14	n/a	n/a	n/a	22	14	5	3	6
3000789	STOP	n/a	LTP258	ltpFR2	14	n/a	n/a	n/a	22	n/a	n/a	n/a	n/a
3002586	REC_START	n/a	LTP258	ltpFR2	14	14	n/a	n/a	n/a	n/a	0	0	0
3002586	REC_WORD_VV	wordpools/wasnorm_wordpool_576.txt	LTP258	ltpFR2	14	14	<>	-1	n/a	n/a	0	0	0
3011129	REC_WORD	wordpools/wasnorm_wordpool_576.txt	LTP258	ltpFR2	14	14	CROWN	415	n/a	n/a	0	0	0
3012143	REC_WORD	wordpools/wasnorm_wordpool_576.txt	LTP258	ltpFR2	14	14	PRINCE	1124	n/a	n/a	0	0	0
3013058	REC_WORD	wordpools/wasnorm_wordpool_576.txt	LTP258	ltpFR2	14	14	CHILD	299	n/a	n/a	0	0	0
3014173	REC_WORD	wordpools/wasnorm_wordpool_576.txt	LTP258	ltpFR2	14	14	PLAID	1080	n/a	n/a	0	0	0
3018097	REC_WORD	wordpools/wasnorm_wordpool_576.txt	LTP258	ltpFR2	14	14	JELLO	754	n/a	n/a	0	0	0
3018929	REC_WORD	wordpools/wasnorm_wordpool_576.txt	LTP258	ltpFR2	14	14	POPCORN	1104	n/a	n/a	0	0	0
3021065	REC_WORD_VV	wordpools/wasnorm_wordpool_576.txt	LTP258	ltpFR2	14	14	<>	-1	n/a	n/a	0	0	0
3024521	REC_WORD	wordpools/wasnorm_wordpool_576.txt	LTP258	ltpFR2	14	14	JELLY	755	n/a	n/a	0	0	0
3026688	REC_WORD	wordpools/wasnorm_wordpool_576.txt	LTP258	ltpFR2	14	14	LETTUCE	814	n/a	n/a	0	0	0
3037008	REC_WORD	wordpools/wasnorm_wordpool_576.txt	LTP258	ltpFR2	14	14	RABBIT	1152	n/a	n/a	0	0	0
3037669	REC_WORD	wordpools/wasnorm_wordpool_576.txt	LTP258	ltpFR2	14	14	FOX	598	n/a	n/a	0	0	0
3038468	REC_WORD	wordpools/wasnorm_wordpool_576.txt	LTP258	ltpFR2	14	14	PERCH	1048	n/a	n/a	0	0	0
3039239	REC_WORD	wordpools/wasnorm_wordpool_576.txt	LTP258	ltpFR2	14	14	FOREST	593	n/a	n/a	0	0	0
3040063	REC_WORD	wordpools/wasnorm_wordpool_576.txt	LTP258	ltpFR2	14	14	LUMBER	848	n/a	n/a	0	0	0
3041464	REC_WORD	wordpools/wasnorm_wordpool_576.txt	LTP258	ltpFR2	14	14	PEBBLE	1035	n/a	n/a	0	0	0
3042233	REC_WORD	wordpools/wasnorm_wordpool_576.txt	LTP258	ltpFR2	14	14	STONE	1385	n/a	n/a	0	0	0
3054362	REC_WORD	wordpools/wasnorm_wordpool_576.txt	LTP258	ltpFR2	14	14	FEMALE	559	n/a	n/a	0	0	0
3093249	WORD	wordpools/wasnorm_wordpool_576.txt	LTP258	ltpFR2	14	15	ROBBER	1197	n/a	n/a	0	0	0
3095828	WORD	wordpools/wasnorm_wordpool_576.txt	LTP258	ltpFR2	14	15	FOREHEAD	592	n/a	n/a	0	0	0
3098542	WORD	wordpools/wasnorm_wordpool_576.txt	LTP258	ltpFR2	14	15	CLOTHES	327	n/a	n/a	0	0	0
3100970	WORD	wordpools/wasnorm_wordpool_576.txt	LTP258	ltpFR2	14	15	BUREAU	199	n/a	n/a	0	0	0
3103651	WORD	wordpools/wasnorm_wordpool_576.txt	LTP258	ltpFR2	14	15	ORCHID	982	n/a	n/a	0	0	0
3106129	WORD	wordpools/wasnorm_wordpool_576.txt	LTP258	ltpFR2	14	15	THRONE	1461	n/a	n/a	0	0	0
3108660	WORD	wordpools/wasnorm_wordpool_576.txt	LTP258	ltpFR2	14	15	CLAMP	316	n/a	n/a	0	0	0
3111205	WORD	wordpools/wasnorm_wordpool_576.txt	LTP258	ltpFR2	14	15	COD	340	n/a	n/a	0	0	0
3113918	WORD	wordpools/wasnorm_wordpool_576.txt	LTP258	ltpFR2	14	15	LODGE	839	n/a	n/a	0	0	0
3116648	WORD	wordpools/wasnorm_wordpool_576.txt	LTP258	ltpFR2	14	15	GRAVE	658	n/a	n/a	0	0	0
3119093	WORD	wordpools/wasnorm_wordpool_576.txt	LTP258	ltpFR2	14	15	HEART	697	n/a	n/a	0	0	0
3121607	WORD	wordpools/wasnorm_wordpool_576.txt	LTP258	ltpFR2	14	15	BASEMENT	94	n/a	n/a	0	0	0
3124286	WORD	wordpools/wasnorm_wordpool_576.txt	LTP258	ltpFR2	14	15	FIDDLE	561	n/a	n/a	0	0	0
3127065	WORD	wordpools/wasnorm_wordpool_576.txt	LTP258	ltpFR2	14	15	BROOK	177	n/a	n/a	0	0	0
3129595	WORD	wordpools/wasnorm_wordpool_576.txt	LTP258	ltpFR2	14	15	XEROX	1628	n/a	n/a	0	0	0
3132107	WORD	wordpools/wasnorm_wordpool_576.txt	LTP258	ltpFR2	14	15	COIN	343	n/a	n/a	0	0	0
3134555	WORD	wordpools/wasnorm_wordpool_576.txt	LTP258	ltpFR2	14	15	STAKE	1368	n/a	n/a	0	0	0
3137116	WORD	wordpools/wasnorm_wordpool_576.txt	LTP258	ltpFR2	14	15	RECORD	1176	n/a	n/a	0	0	0
3139581	WORD	wordpools/wasnorm_wordpool_576.txt	LTP258	ltpFR2	14	15	SWIMMER	1420	n/a	n/a	0	0	0
3142192	WORD	wordpools/wasnorm_wordpool_576.txt	LTP258	ltpFR2	14	15	MEAT	883	n/a	n/a	0	0	0
3144838	WORD	wordpools/wasnorm_wordpool_576.txt	LTP258	ltpFR2	14	15	LONDON	843	n/a	n/a	0	0	0
3147552	WORD	wordpools/wasnorm_wordpool_576.txt	LTP258	ltpFR2	14	15	FRANCE	601	n/a	n/a	0	0	0
3150230	WORD	wordpools/wasnorm_wordpool_576.txt	LTP258	ltpFR2	14	15	SLIDE	1326	n/a	n/a	0	0	0
3152993	WORD	wordpools/wasnorm_wordpool_576.txt	LTP258	ltpFR2	14	15	ISLAND	745	n/a	n/a	0	0	0
3154608	START	n/a	LTP258	ltpFR2	14	n/a	n/a	n/a	23	n/a	n/a	n/a	n/a
3155466	DISTRACTOR	n/a	LTP258	ltpFR2	14	15	n/a	n/a	n/a	n/a	0	0	0
3155473	PROB	n/a	LTP258	ltpFR2	14	n/a	n/a	n/a	23	15	7	1	7
3156854	PROB	n/a	LTP258	ltpFR2	14	n/a	n/a	n/a	23	12	7	4	1
3159849	PROB	n/a	LTP258	ltpFR2	14	n/a	n/a	n/a	23	23	8	7	7
3162312	PROB	n/a	LTP258	ltpFR2	14	n/a	n/a	n/a	23	16	5	2	9
3164992	PROB	n/a	LTP258	ltpFR2	14	n/a	n/a	n/a	23	5	1	2	2
3165824	PROB	n/a	LTP258	ltpFR2	14	n/a	n/a	n/a	23	15	3	6	6
3167238	PROB	n/a	LTP258	ltpFR2	14	n/a	n/a	n/a	23	18	7	2	9
3168370	PROB	n/a	LTP258	ltpFR2	14	n/a	n/a	n/a	23	17	6	6	5
3169884	PROB	n/a	LTP258	ltpFR2	14	n/a	n/a	n/a	23	10	1	6	3
3171132	PROB	n/a	LTP258	ltpFR2	14	n/a	n/a	n/a	23	12	7	3	2
3172364	PROB	n/a	LTP258	ltpFR2	14	n/a	n/a	n/a	23	16	7	7	5
3173812	PROB	n/a	LTP258	ltpFR2	14	n/a	n/a	n/a	23	18	7	8	3
3175460	PROB	n/a	LTP258	ltpFR2	14	n/a	n/a	n/a	23	14	3	7	4
3176509	PROB	n/a	LTP258	ltpFR2	14	n/a	n/a	n/a	23	17	1	9	7
3177329	STOP	n/a	LTP258	ltpFR2	14	n/a	n/a	n/a	23	n/a	n/a	n/a	n/a
3180453	REC_START	n/a	LTP258	ltpFR2	14	15	n/a	n/a	n/a	n/a	0	0	0
3185776	REC_WORD	wordpools/wasnorm_wordpool_576.txt	LTP258	ltpFR2	14	15	COIN	343	n/a	n/a	0	0	0
3186471	REC_WORD	wordpools/wasnorm_wordpool_576.txt	LTP258	ltpFR2	14	15	ISLAND	745	n/a	n/a	0	0	0
3187012	REC_WORD	wordpools/wasnorm_wordpool_576.txt	LTP258	ltpFR2	14	15	SLIDE	1326	n/a	n/a	0	0	0
3187821	REC_WORD	wordpools/wasnorm_wordpool_576.txt	LTP258	ltpFR2	14	15	RECORD	1176	n/a	n/a	0	0	0
3188403	REC_WORD	wordpools/wasnorm_wordpool_576.txt	LTP258	ltpFR2	14	15	SWIMMER	1420	n/a	n/a	0	0	0
3189246	REC_WORD	wordpools/wasnorm_wordpool_576.txt	LTP258	ltpFR2	14	15	LONDON	843	n/a	n/a	0	0	0
3191113	REC_WORD	wordpools/wasnorm_wordpool_576.txt	LTP258	ltpFR2	14	15	FRANCE	601	n/a	n/a	0	0	0
3198722	REC_WORD	wordpools/wasnorm_wordpool_576.txt	LTP258	ltpFR2	14	15	ROBBER	1197	n/a	n/a	0	0	0
3200634	REC_WORD	wordpools/wasnorm_wordpool_576.txt	LTP258	ltpFR2	14	15	CLOTHES	327	n/a	n/a	0	0	0
3201492	REC_WORD	wordpools/wasnorm_wordpool_576.txt	LTP258	ltpFR2	14	15	BUREAU	199	n/a	n/a	0	0	0
3214901	REC_WORD	wordpools/wasnorm_wordpool_576.txt	LTP258	ltpFR2	14	15	HEART	697	n/a	n/a	0	0	0
3215788	REC_WORD	wordpools/wasnorm_wordpool_576.txt	LTP258	ltpFR2	14	15	BASEMENT	94	n/a	n/a	0	0	0
3216489	REC_WORD	wordpools/wasnorm_wordpool_576.txt	LTP258	ltpFR2	14	15	FIDDLE	561	n/a	n/a	0	0	0
3218281	REC_WORD	wordpools/wasnorm_wordpool_576.txt	LTP258	ltpFR2	14	15	STAKE	1368	n/a	n/a	0	0	0
3234753	REC_WORD	wordpools/wasnorm_wordpool_576.txt	LTP258	ltpFR2	14	15	LODGE	839	n/a	n/a	0	0	0
3248323	REC_WORD	wordpools/wasnorm_wordpool_576.txt	LTP258	ltpFR2	14	15	THRONE	1461	n/a	n/a	0	0	0
3271150	WORD	wordpools/wasnorm_wordpool_576.txt	LTP258	ltpFR2	14	16	DIVER	476	n/a	n/a	0	0	0
3273812	WORD	wordpools/wasnorm_wordpool_576.txt	LTP258	ltpFR2	14	16	PICNIC	1060	n/a	n/a	0	0	0
3276460	WORD	wordpools/wasnorm_wordpool_576.txt	LTP258	ltpFR2	14	16	WAITRESS	1581	n/a	n/a	0	0	0
3279088	WORD	wordpools/wasnorm_wordpool_576.txt	LTP258	ltpFR2	14	16	PALACE	1006	n/a	n/a	0	0	0
3281569	WORD	wordpools/wasnorm_wordpool_576.txt	LTP258	ltpFR2	14	16	SPONGE	1355	n/a	n/a	0	0	0
3284330	WORD	wordpools/wasnorm_wordpool_576.txt	LTP258	ltpFR2	14	16	HORSE	719	n/a	n/a	0	0	0
3286810	WORD	wordpools/wasnorm_wordpool_576.txt	LTP258	ltpFR2	14	16	BOX	159	n/a	n/a	0	0	0
3289473	WORD	wordpools/wasnorm_wordpool_576.txt	LTP258	ltpFR2	14	16	GIFT	635	n/a	n/a	0	0	0
3292152	WORD	wordpools/wasnorm_wordpool_576.txt	LTP258	ltpFR2	14	16	COOKBOOK	373	n/a	n/a	0	0	0
3294848	WORD	wordpools/wasnorm_wordpool_576.txt	LTP258	ltpFR2	14	16	SUNRISE	1407	n/a	n/a	0	0	0
3297661	WORD	wordpools/wasnorm_wordpool_576.txt	LTP258	ltpFR2	14	16	SUNSET	1408	n/a	n/a	0	0	0
3300107	WORD	wordpools/wasnorm_wordpool_576.txt	LTP258	ltpFR2	14	16	BANKER	84	n/a	n/a	0	0	0
3302537	WORD	wordpools/wasnorm_wordpool_576.txt	LTP258	ltpFR2	14	16	DRINK	498	n/a	n/a	0	0	0
3305032	WORD	wordpools/wasnorm_wordpool_576.txt	LTP258	ltpFR2	14	16	LEOPARD	812	n/a	n/a	0	0	0
3307630	WORD	wordpools/wasnorm_wordpool_576.txt	LTP258	ltpFR2	14	16	PIMPLE	1071	n/a	n/a	0	0	0
3310092	WORD	wordpools/wasnorm_wordpool_576.txt	LTP258	ltpFR2	14	16	KNAPSACK	783	n/a	n/a	0	0	0
3312522	WORD	wordpools/wasnorm_wordpool_576.txt	LTP258	ltpFR2	14	16	LIPSTICK	829	n/a	n/a	0	0	0
3315034	WORD	wordpools/wasnorm_wordpool_576.txt	LTP258	ltpFR2	14	16	COUNTY	389	n/a	n/a	0	0	0
3317598	WORD	wordpools/wasnorm_wordpool_576.txt	LTP258	ltpFR2	14	16	PUDDLE	1140	n/a	n/a	0	0	0
3320310	WORD	wordpools/wasnorm_wordpool_576.txt	LTP258	ltpFR2	14	16	SERVANT	1271	n/a	n/a	0	0	0
3323039	WORD	wordpools/wasnorm_wordpool_576.txt	LTP258	ltpFR2	14	16	BATHTUB	100	n/a	n/a	0	0	0
3325718	WORD	wordpools/wasnorm_wordpool_576.txt	LTP258	ltpFR2	14	16	MARINE	869	n/a	n/a	0	0	0
3328215	WORD	wordpools/wasnorm_wordpool_576.txt	LTP258	ltpFR2	14	16	SCALLOP	1242	n/a	n/a	0	0	0
3330944	WORD	wordpools/wasnorm_wordpool_576.txt	LTP258	ltpFR2	14	16	LILY	821	n/a	n/a	0	0	0
3332559	START	n/a	LTP258	ltpFR2	14	n/a	n/a	n/a	24	n/a	n/a	n/a	n/a
3333754	DISTRACTOR	n/a	LTP258	ltpFR2	14	16	n/a	n/a	n/a	n/a	0	0	0
3333756	PROB	n/a	LTP258	ltpFR2	14	n/a	n/a	n/a	24	13	3	2	9
3335071	PROB	n/a	LTP258	ltpFR2	14	n/a	n/a	n/a	24	19	6	4	9
3336269	PROB	n/a	LTP258	ltpFR2	14	n/a	n/a	n/a	24	14	2	3	9
3337800	PROB	n/a	LTP258	ltpFR2	14	n/a	n/a	n/a	24	8	4	2	2
3338915	PROB	n/a	LTP258	ltpFR2	14	n/a	n/a	n/a	24	16	9	4	3
3340230	PROB	n/a	LTP258	ltpFR2	14	n/a	n/a	n/a	24	13	6	3	4
3341811	PROB	n/a	LTP258	ltpFR2	14	n/a	n/a	n/a	24	11	5	1	5
3342743	PROB	n/a	LTP258	ltpFR2	14	n/a	n/a	n/a	24	8	3	4	1
3344257	PROB	n/a	LTP258	ltpFR2	14	n/a	n/a	n/a	24	14	3	8	3
3345422	PROB	n/a	LTP258	ltpFR2	14	n/a	n/a	n/a	24	13	3	3	7
3346588	PROB	n/a	LTP258	ltpFR2	14	n/a	n/a	n/a	24	8	2	4	2
3347702	PROB	n/a	LTP258	ltpFR2	14	n/a	n/a	n/a	24	14	1	6	7
3349383	PROB	n/a	LTP258	ltpFR2	14	n/a	n/a	n/a	24	18	9	1	8
3350282	PROB	n/a	LTP258	ltpFR2	14	n/a	n/a	n/a	24	18	9	4	5
3351879	PROB	n/a	LTP258	ltpFR2	14	n/a	n/a	n/a	24	15	2	6	7
3353628	PROB	n/a	LTP258	ltpFR2	14	n/a	n/a	n/a	24	14	6	3	5
3355009	STOP	n/a	LTP258	ltpFR2	14	n/a	n/a	n/a	24	n/a	n/a	n/a	n/a
3358403	REC_START	n/a	LTP258	ltpFR2	14	16	n/a	n/a	n/a	n/a	0	0	0
3362487	REC_WORD	wordpools/wasnorm_wordpool_576.txt	LTP258	ltpFR2	14	16	PALACE	1006	n/a	n/a	0	0	0
3363224	REC_WORD	wordpools/wasnorm_wordpool_576.txt	LTP258	ltpFR2	14	16	LILY	821	n/a	n/a	0	0	0
3363931	REC_WORD	wordpools/wasnorm_wordpool_576.txt	LTP258	ltpFR2	14	16	BATHTUB	100	n/a	n/a	0	0	0
3365504	REC_WORD	wordpools/wasnorm_wordpool_576.txt	LTP258	ltpFR2	14	16	SCALLOP	1242	n/a	n/a	0	0	0
3367599	REC_WORD	wordpools/wasnorm_wordpool_576.txt	LTP258	ltpFR2	14	16	LEOPARD	812	n/a	n/a	0	0	0
3368257	REC_WORD	wordpools/wasnorm_wordpool_576.txt	LTP258	ltpFR2	14	16	SUNRISE	1407	n/a	n/a	0	0	0
3369262	REC_WORD	wordpools/wasnorm_wordpool_576.txt	LTP258	ltpFR2	14	16	SUNSET	1408	n/a	n/a	0	0	0
3370177	REC_WORD	wordpools/wasnorm_wordpool_576.txt	LTP258	ltpFR2	14	16	HORSE	719	n/a	n/a	0	0	0
3375358	REC_WORD	wordpools/wasnorm_wordpool_576.txt	LTP258	ltpFR2	14	16	COUNTY	389	n/a	n/a	0	0	0
3376173	REC_WORD	wordpools/wasnorm_wordpool_576.txt	LTP258	ltpFR2	14	16	PUDDLE	1140	n/a	n/a	0	0	0
3379077	REC_WORD	wordpools/wasnorm_wordpool_576.txt	LTP258	ltpFR2	14	16	LIPSTICK	829	n/a	n/a	0	0	0
3389559	REC_WORD	wordpools/wasnorm_wordpool_576.txt	LTP258	ltpFR2	14	16	PICNIC	1060	n/a	n/a	0	0	0
3394498	REC_WORD	wordpools/wasnorm_wordpool_576.txt	LTP258	ltpFR2	14	16	SERVANT	1271	n/a	n/a	0	0	0
3435005	REST_REWET	n/a	LTP258	ltpFR2	14	16	n/a	n/a	n/a	n/a	0	0	0
3883503	WORD	wordpools/wasnorm_wordpool_576.txt	LTP258	ltpFR2	14	17	CATTLE	261	n/a	n/a	0	0	0
3886315	WORD	wordpools/wasnorm_wordpool_576.txt	LTP258	ltpFR2	14	17	MUMMY	932	n/a	n/a	0	0	0
3888794	WORD	wordpools/wasnorm_wordpool_576.txt	LTP258	ltpFR2	14	17	FRIEND	606	n/a	n/a	0	0	0
3891558	WORD	wordpools/wasnorm_wordpool_576.txt	LTP258	ltpFR2	14	17	OX	994	n/a	n/a	0	0	0
3894120	WORD	wordpools/wasnorm_wordpool_576.txt	LTP258	ltpFR2	14	17	WHISTLE	1606	n/a	n/a	0	0	0
3896899	WORD	wordpools/wasnorm_wordpool_576.txt	LTP258	ltpFR2	14	17	GARBAGE	622	n/a	n/a	0	0	0
3899563	WORD	wordpools/wasnorm_wordpool_576.txt	LTP258	ltpFR2	14	17	MISSILE	900	n/a	n/a	0	0	0
3902357	WORD	wordpools/wasnorm_wordpool_576.txt	LTP258	ltpFR2	14	17	SUITCASE	1403	n/a	n/a	0	0	0
3905037	WORD	wordpools/wasnorm_wordpool_576.txt	LTP258	ltpFR2	14	17	JUDGE	761	n/a	n/a	0	0	0
3907716	WORD	wordpools/wasnorm_wordpool_576.txt	LTP258	ltpFR2	14	17	BRIEFCASE	175	n/a	n/a	0	0	0
3910246	WORD	wordpools/wasnorm_wordpool_576.txt	LTP258	ltpFR2	14	17	BOYFRIEND	162	n/a	n/a	0	0	0
3912775	WORD	wordpools/wasnorm_wordpool_576.txt	LTP258	ltpFR2	14	17	FRAGRANCE	599	n/a	n/a	0	0	0
3915506	WORD	wordpools/wasnorm_wordpool_576.txt	LTP258	ltpFR2	14	17	ONION	977	n/a	n/a	0	0	0
3918067	WORD	wordpools/wasnorm_wordpool_576.txt	LTP258	ltpFR2	14	17	TWIG	1527	n/a	n/a	0	0	0
3920797	WORD	wordpools/wasnorm_wordpool_576.txt	LTP258	ltpFR2	14	17	LAGOON	795	n/a	n/a	0	0	0
3923494	WORD	wordpools/wasnorm_wordpool_576.txt	LTP258	ltpFR2	14	17	KIDNEY	776	n/a	n/a	0	0	0
3926255	WORD	wordpools/wasnorm_wordpool_576.txt	LTP258	ltpFR2	14	17	TRANSPLANT	1496	n/a	n/a	0	0	0
3928851	WORD	wordpools/wasnorm_wordpool_576.txt	LTP258	ltpFR2	14	17	FLAG	573	n/a	n/a	0	0	0
3931598	WORD	wordpools/wasnorm_wordpool_576.txt	LTP258	ltpFR2	14	17	COWBOY	395	n/a	n/a	0	0	0
3934327	WORD	wordpools/wasnorm_wordpool_576.txt	LTP258	ltpFR2	14	17	SUBWAY	1400	n/a	n/a	0	0	0
3936923	WORD	wordpools/wasnorm_wordpool_576.txt	LTP258	ltpFR2	14	17	HIGHWAY	707	n/a	n/a	0	0	0
3939453	WORD	wordpools/wasnorm_wordpool_576.txt	LTP258	ltpFR2	14	17	CHURCH	307	n/a	n/a	0	0	0
3941898	WORD	wordpools/wasnorm_wordpool_576.txt	LTP258	ltpFR2	14	17	APPLE	33	n/a	n/a	0	0	0
3944361	WORD	wordpools/wasnorm_wordpool_576.txt	LTP258	ltpFR2	14	17	AGENT	10	n/a	n/a	0	0	0
3945976	START	n/a	LTP258	ltpFR2	14	n/a	n/a	n/a	25	n/a	n/a	n/a	n/a
3947047	DISTRACTOR	n/a	LTP258	ltpFR2	14	17	n/a	n/a	n/a	n/a	0	0	0
3947057	PROB	n/a	LTP258	ltpFR2	14	n/a	n/a	n/a	25	9	2	6	1
3948971	PROB	n/a	LTP258	ltpFR2	14	n/a	n/a	n/a	25	20	8	6	8
3950702	PROB	n/a	LTP258	ltpFR2	14	n/a	n/a	n/a	25	5	1	1	3
3951535	PROB	n/a	LTP258	ltpFR2	14	n/a	n/a	n/a	25	16	9	1	6
3952500	PROB	n/a	LTP258	ltpFR2	14	n/a	n/a	n/a	25	7	3	3	1
3953599	PROB	n/a	LTP258	ltpFR2	14	n/a	n/a	n/a	25	20	7	7	6
3956027	PROB	n/a	LTP258	ltpFR2	14	n/a	n/a	n/a	25	26	9	8	9
3957543	PROB	n/a	LTP258	ltpFR2	14	n/a	n/a	n/a	25	19	7	6	6
3960138	PROB	n/a	LTP258	ltpFR2	14	n/a	n/a	n/a	25	23	7	7	8
3962052	PROB	n/a	LTP258	ltpFR2	14	n/a	n/a	n/a	25	20	7	4	9
3966446	PROB	n/a	LTP258	ltpFR2	14	n/a	n/a	n/a	25	12	4	6	2
3967327	PROB	n/a	LTP258	ltpFR2	14	n/a	n/a	n/a	25	12	2	2	8
3968985	STOP	n/a	LTP258	ltpFR2	14	n/a	n/a	n/a	25	n/a	n/a	n/a	n/a
3971871	REC_START	n/a	LTP258	ltpFR2	14	17	n/a	n/a	n/a	n/a	0	0	0
3973864	REC_WORD	wordpools/wasnorm_wordpool_576.txt	LTP258	ltpFR2	14	17	CHURCH	307	n/a	n/a	0	0	0
3974622	REC_WORD	wordpools/wasnorm_wordpool_576.txt	LTP258	ltpFR2	14	17	APPLE	33	n/a	n/a	0	0	0
3982940	REC_WORD	wordpools/wasnorm_wordpool_576.txt	LTP258	ltpFR2	14	17	JUDGE	761	n/a	n/a	0	0	0
3987985	REC_WORD	wordpools/wasnorm_wordpool_576.txt	LTP258	ltpFR2	14	17	SUITCASE	1403	n/a	n/a	0	0	0
3993513	REC_WORD	wordpools/wasnorm_wordpool_576.txt	LTP258	ltpFR2	14	17	BRIEFCASE	175	n/a	n/a	0	0	0
3998390	REC_WORD	wordpools/wasnorm_wordpool_576.txt	LTP258	ltpFR2	14	17	MISSILE	900	n/a	n/a	0	0	0
4001353	REC_WORD	wordpools/wasnorm_wordpool_576.txt	LTP258	ltpFR2	14	17	CATTLE	261	n/a	n/a	0	0	0
4002068	REC_WORD	wordpools/wasnorm_wordpool_576.txt	LTP258	ltpFR2	14	17	OX	994	n/a	n/a	0	0	0
4002713	REC_WORD	wordpools/wasnorm_wordpool_576.txt	LTP258	ltpFR2	14	17	MUMMY	932	n/a	n/a	0	0	0
4003373	REC_WORD	wordpools/wasnorm_wordpool_576.txt	LTP258	ltpFR2	14	17	FRIEND	606	n/a	n/a	0	0	0
4006372	REC_WORD	wordpools/wasnorm_wordpool_576.txt	LTP258	ltpFR2	14	17	WHISTLE	1606	n/a	n/a	0	0	0
4062503	DISTRACTOR	n/a	LTP258	ltpFR2	14	18	n/a	n/a	n/a	n/a	0	0	0
4062503	START	n/a	LTP258	ltpFR2	14	n/a	n/a	n/a	26	n/a	n/a	n/a	n/a
4062536	PROB	n/a	LTP258	ltpFR2	14	n/a	n/a	n/a	26	19	5	8	6
4063966	PROB	n/a	LTP258	ltpFR2	14	n/a	n/a	n/a	26	22	4	9	7
4065814	PROB	n/a	LTP258	ltpFR2	14	n/a	n/a	n/a	26	13	1	5	7
4067429	PROB	n/a	LTP258	ltpFR2	14	n/a	n/a	n/a	26	11	6	2	3
4069342	PROB	n/a	LTP258	ltpFR2	14	n/a	n/a	n/a	26	17	6	6	5
4071122	PROB	n/a	LTP258	ltpFR2	14	n/a	n/a	n/a	26	17	3	9	5
4072320	PROB	n/a	LTP258	ltpFR2	14	n/a	n/a	n/a	26	20	4	9	8
4073685	PROB	n/a	LTP258	ltpFR2	14	n/a	n/a	n/a	26	11	1	5	5
4074750	PROB	n/a	LTP258	ltpFR2	14	n/a	n/a	n/a	26	15	4	3	8
4076930	PROB	n/a	LTP258	ltpFR2	14	n/a	n/a	n/a	26	19	7	9	3
4077879	PROB	n/a	LTP258	ltpFR2	14	n/a	n/a	n/a	26	10	2	2	6
4079277	PROB	n/a	LTP258	ltpFR2	14	n/a	n/a	n/a	26	11	3	6	2
4080408	PROB	n/a	LTP258	ltpFR2	14	n/a	n/a	n/a	26	19	7	8	4
4081740	PROB	n/a	LTP258	ltpFR2	14	n/a	n/a	n/a	26	19	9	6	4
4082623	PROB	n/a	LTP258	ltpFR2	14	n/a	n/a	n/a	26	11	4	3	4
4084253	PROB	n/a	LTP258	ltpFR2	14	n/a	n/a	n/a	26	18	9	1	8
4085065	STOP	n/a	LTP258	ltpFR2	14	n/a	n/a	n/a	26	n/a	n/a	n/a	n/a
4087582	WORD	wordpools/wasnorm_wordpool_576.txt	LTP258	ltpFR2	14	18	AIRPLANE	12	n/a	n/a	0	0	0
4090027	WORD	wordpools/wasnorm_wordpool_576.txt	LTP258	ltpFR2	14	18	PIGMENT	1066	n/a	n/a	0	0	0
4092840	WORD	wordpools/wasnorm_wordpool_576.txt	LTP258	ltpFR2	14	18	PARENT	1013	n/a	n/a	0	0	0
4095637	WORD	wordpools/wasnorm_wordpool_576.txt	LTP258	ltpFR2	14	18	CREVICE	405	n/a	n/a	0	0	0
4098433	WORD	wordpools/wasnorm_wordpool_576.txt	LTP258	ltpFR2	14	18	SEAFOOD	1260	n/a	n/a	0	0	0
4101028	WORD	wordpools/wasnorm_wordpool_576.txt	LTP258	ltpFR2	14	18	LAKE	796	n/a	n/a	0	0	0
4103542	WORD	wordpools/wasnorm_wordpool_576.txt	LTP258	ltpFR2	14	18	BANK	83	n/a	n/a	0	0	0
4106236	WORD	wordpools/wasnorm_wordpool_576.txt	LTP258	ltpFR2	14	18	CASHIER	254	n/a	n/a	0	0	0
4109049	WORD	wordpools/wasnorm_wordpool_576.txt	LTP258	ltpFR2	14	18	COBRA	336	n/a	n/a	0	0	0
4111496	WORD	wordpools/wasnorm_wordpool_576.txt	LTP258	ltpFR2	14	18	PENGUIN	1044	n/a	n/a	0	0	0
4113992	WORD	wordpools/wasnorm_wordpool_576.txt	LTP258	ltpFR2	14	18	NEUTRON	947	n/a	n/a	0	0	0
4116821	WORD	wordpools/wasnorm_wordpool_576.txt	LTP258	ltpFR2	14	18	COTTAGE	384	n/a	n/a	0	0	0
4119618	WORD	wordpools/wasnorm_wordpool_576.txt	LTP258	ltpFR2	14	18	PIZZA	1079	n/a	n/a	0	0	0
4122229	WORD	wordpools/wasnorm_wordpool_576.txt	LTP258	ltpFR2	14	18	VALVE	1546	n/a	n/a	0	0	0
4124859	WORD	wordpools/wasnorm_wordpool_576.txt	LTP258	ltpFR2	14	18	LOVER	846	n/a	n/a	0	0	0
4127522	WORD	wordpools/wasnorm_wordpool_576.txt	LTP258	ltpFR2	14	18	PROTON	1132	n/a	n/a	0	0	0
4130151	WORD	wordpools/wasnorm_wordpool_576.txt	LTP258	ltpFR2	14	18	MAILMAN	858	n/a	n/a	0	0	0
4132747	WORD	wordpools/wasnorm_wordpool_576.txt	LTP258	ltpFR2	14	18	BACKBONE	66	n/a	n/a	0	0	0
4135210	WORD	wordpools/wasnorm_wordpool_576.txt	LTP258	ltpFR2	14	18	SHARK	1275	n/a	n/a	0	0	0
4137889	WORD	wordpools/wasnorm_wordpool_576.txt	LTP258	ltpFR2	14	18	RECEIPT	1173	n/a	n/a	0	0	0
4140369	WORD	wordpools/wasnorm_wordpool_576.txt	LTP258	ltpFR2	14	18	RIVER	1194	n/a	n/a	0	0	0
4142865	WORD	wordpools/wasnorm_wordpool_576.txt	LTP258	ltpFR2	14	18	SALT	1229	n/a	n/a	0	0	0
4145446	WORD	wordpools/wasnorm_wordpool_576.txt	LTP258	ltpFR2	14	18	PARSLEY	1016	n/a	n/a	0	0	0
4148057	WORD	wordpools/wasnorm_wordpool_576.txt	LTP258	ltpFR2	14	18	CIGAR	308	n/a	n/a	0	0	0
4149673	START	n/a	LTP258	ltpFR2	14	n/a	n/a	n/a	27	n/a	n/a	n/a	n/a
4150702	DISTRACTOR	n/a	LTP258	ltpFR2	14	18	n/a	n/a	n/a	n/a	0	0	0
4150703	PROB	n/a	LTP258	ltpFR2	14	n/a	n/a	n/a	27	10	2	5	3
4153550	PROB	n/a	LTP258	ltpFR2	14	n/a	n/a	n/a	27	16	7	2	6
4155114	PROB	n/a	LTP258	ltpFR2	14	n/a	n/a	n/a	27	9	2	6	1
4156596	PROB	n/a	LTP258	ltpFR2	14	n/a	n/a	n/a	27	1	8	2	9
4157826	PROB	n/a	LTP258	ltpFR2	14	n/a	n/a	n/a	27	12	4	2	6
4160289	PROB	n/a	LTP258	ltpFR2	14	n/a	n/a	n/a	27	13	6	4	3
4161621	PROB	n/a	LTP258	ltpFR2	14	n/a	n/a	n/a	27	21	9	9	3
4163118	PROB	n/a	LTP258	ltpFR2	14	n/a	n/a	n/a	27	7	2	1	4
4164300	PROB	n/a	LTP258	ltpFR2	14	n/a	n/a	n/a	27	13	7	3	3
4165199	PROB	n/a	LTP258	ltpFR2	14	n/a	n/a	n/a	27	15	5	7	3
4166297	PROB	n/a	LTP258	ltpFR2	14	n/a	n/a	n/a	27	24	9	6	9
4167878	PROB	n/a	LTP258	ltpFR2	14	n/a	n/a	n/a	27	22	8	9	5
4169758	PROB	n/a	LTP258	ltpFR2	14	n/a	n/a	n/a	27	18	1	8	9
4170840	PROB	n/a	LTP258	ltpFR2	14	n/a	n/a	n/a	27	11	5	1	5
4171789	PROB	n/a	LTP258	ltpFR2	14	n/a	n/a	n/a	27	12	5	4	3
4173177	STOP	n/a	LTP258	ltpFR2	14	n/a	n/a	n/a	27	n/a	n/a	n/a	n/a
4175601	REC_START	n/a	LTP258	ltpFR2	14	18	n/a	n/a	n/a	n/a	0	0	0
4178979	REC_WORD	wordpools/wasnorm_wordpool_576.txt	LTP258	ltpFR2	14	18	SHARK	1275	n/a	n/a	0	0	0
4179848	REC_WORD	wordpools/wasnorm_wordpool_576.txt	LTP258	ltpFR2	14	18	SALT	1229	n/a	n/a	0	0	0
4182193	REC_WORD	wordpools/wasnorm_wordpool_576.txt	LTP258	ltpFR2	14	18	RIVER	1194	n/a	n/a	0	0	0
4182873	REC_WORD	wordpools/wasnorm_wordpool_576.txt	LTP258	ltpFR2	14	18	LAKE	796	n/a	n/a	0	0	0
4183516	REC_WORD	wordpools/wasnorm_wordpool_576.txt	LTP258	ltpFR2	14	18	SEAFOOD	1260	n/a	n/a	0	0	0
4184355	REC_WORD	wordpools/wasnorm_wordpool_576.txt	LTP258	ltpFR2	14	18	CREVICE	405	n/a	n/a	0	0	0
4187029	REC_WORD	wordpools/wasnorm_wordpool_576.txt	LTP258	ltpFR2	14	18	MAILMAN	858	n/a	n/a	0	0	0
4192902	REC_WORD	wordpools/wasnorm_wordpool_576.txt	LTP258	ltpFR2	14	18	AIRPLANE	12	n/a	n/a	0	0	0
4193616	REC_WORD	wordpools/wasnorm_wordpool_576.txt	LTP258	ltpFR2	14	18	PIGMENT	1066	n/a	n/a	0	0	0
4194346	REC_WORD	wordpools/wasnorm_wordpool_576.txt	LTP258	ltpFR2	14	18	PARENT	1013	n/a	n/a	0	0	0
4218491	REC_WORD	wordpools/wasnorm_wordpool_576.txt	LTP258	ltpFR2	14	18	COTTAGE	384	n/a	n/a	0	0	0
4219916	REC_WORD	wordpools/wasnorm_wordpool_576.txt	LTP258	ltpFR2	14	18	PIZZA	1079	n/a	n/a	0	0	0
4266264	DISTRACTOR	n/a	LTP258	ltpFR2	14	19	n/a	n/a	n/a	n/a	0	0	0
4266265	START	n/a	LTP258	ltpFR2	14	n/a	n/a	n/a	28	n/a	n/a	n/a	n/a
4266298	PROB	n/a	LTP258	ltpFR2	14	n/a	n/a	n/a	28	14	1	6	7
4268429	PROB	n/a	LTP258	ltpFR2	14	n/a	n/a	n/a	28	21	4	8	9
4269644	PROB	n/a	LTP258	ltpFR2	14	n/a	n/a	n/a	28	20	9	7	4
4271224	PROB	n/a	LTP258	ltpFR2	14	n/a	n/a	n/a	28	8	3	2	3
4272705	PROB	n/a	LTP258	ltpFR2	14	n/a	n/a	n/a	28	16	5	4	7
4274768	PROB	n/a	LTP258	ltpFR2	14	n/a	n/a	n/a	28	17	6	9	2
4275900	PROB	n/a	LTP258	ltpFR2	14	n/a	n/a	n/a	28	16	8	7	1
4277964	PROB	n/a	LTP258	ltpFR2	14	n/a	n/a	n/a	28	15	5	1	9
4279228	PROB	n/a	LTP258	ltpFR2	14	n/a	n/a	n/a	28	1	7	3	3
4280461	PROB	n/a	LTP258	ltpFR2	14	n/a	n/a	n/a	28	17	9	3	5
4283256	PROB	n/a	LTP258	ltpFR2	14	n/a	n/a	n/a	28	19	6	4	9
4284138	PROB	n/a	LTP258	ltpFR2	14	n/a	n/a	n/a	28	22	9	7	6
4285852	PROB	n/a	LTP258	ltpFR2	14	n/a	n/a	n/a	28	1233	5	1	7
4290264	STOP	n/a	LTP258	ltpFR2	14	n/a	n/a	n/a	28	n/a	n/a	n/a	n/a
4291111	WORD	wordpools/wasnorm_wordpool_576.txt	LTP258	ltpFR2	14	19	PAPER	1011	n/a	n/a	0	0	0
4293790	WORD	wordpools/wasnorm_wordpool_576.txt	LTP258	ltpFR2	14	19	SADDLE	1221	n/a	n/a	0	0	0
4296587	WORD	wordpools/wasnorm_wordpool_576.txt	LTP258	ltpFR2	14	19	BABY	64	n/a	n/a	0	0	0
4299115	WORD	wordpools/wasnorm_wordpool_576.txt	LTP258	ltpFR2	14	19	FREEZER	604	n/a	n/a	0	0	0
4301629	WORD	wordpools/wasnorm_wordpool_576.txt	LTP258	ltpFR2	14	19	ICEBERG	731	n/a	n/a	0	0	0
4304374	WORD	wordpools/wasnorm_wordpool_576.txt	LTP258	ltpFR2	14	19	HOUND	724	n/a	n/a	0	0	0
4307137	WORD	wordpools/wasnorm_wordpool_576.txt	LTP258	ltpFR2	14	19	SHIRT	1287	n/a	n/a	0	0	0
4309766	WORD	wordpools/wasnorm_wordpool_576.txt	LTP258	ltpFR2	14	19	CUSTARD	429	n/a	n/a	0	0	0
4312395	WORD	wordpools/wasnorm_wordpool_576.txt	LTP258	ltpFR2	14	19	REBEL	1172	n/a	n/a	0	0	0
4315042	WORD	wordpools/wasnorm_wordpool_576.txt	LTP258	ltpFR2	14	19	COMPASS	358	n/a	n/a	0	0	0
4317589	WORD	wordpools/wasnorm_wordpool_576.txt	LTP258	ltpFR2	14	19	BUCKET	184	n/a	n/a	0	0	0
4320101	WORD	wordpools/wasnorm_wordpool_576.txt	LTP258	ltpFR2	14	19	NAPKIN	937	n/a	n/a	0	0	0
4322581	WORD	wordpools/wasnorm_wordpool_576.txt	LTP258	ltpFR2	14	19	CHEMIST	292	n/a	n/a	0	0	0
4325310	WORD	wordpools/wasnorm_wordpool_576.txt	LTP258	ltpFR2	14	19	MARROW	872	n/a	n/a	0	0	0
4327989	WORD	wordpools/wasnorm_wordpool_576.txt	LTP258	ltpFR2	14	19	CITRUS	313	n/a	n/a	0	0	0
4330569	WORD	wordpools/wasnorm_wordpool_576.txt	LTP258	ltpFR2	14	19	INFANT	737	n/a	n/a	0	0	0
4333098	WORD	wordpools/wasnorm_wordpool_576.txt	LTP258	ltpFR2	14	19	SCULPTURE	1258	n/a	n/a	0	0	0
4335645	WORD	wordpools/wasnorm_wordpool_576.txt	LTP258	ltpFR2	14	19	STATUE	1374	n/a	n/a	0	0	0
4338240	WORD	wordpools/wasnorm_wordpool_576.txt	LTP258	ltpFR2	14	19	ARM	38	n/a	n/a	0	0	0
4341019	WORD	wordpools/wasnorm_wordpool_576.txt	LTP258	ltpFR2	14	19	BUNNY	198	n/a	n/a	0	0	0
4343699	WORD	wordpools/wasnorm_wordpool_576.txt	LTP258	ltpFR2	14	19	POET	1095	n/a	n/a	0	0	0
4346512	WORD	wordpools/wasnorm_wordpool_576.txt	LTP258	ltpFR2	14	19	COURSE	390	n/a	n/a	0	0	0
4349124	WORD	wordpools/wasnorm_wordpool_576.txt	LTP258	ltpFR2	14	19	POSSUM	1112	n/a	n/a	0	0	0
4351571	WORD	wordpools/wasnorm_wordpool_576.txt	LTP258	ltpFR2	14	19	JOURNAL	760	n/a	n/a	0	0	0
4353185	START	n/a	LTP258	ltpFR2	14	n/a	n/a	n/a	29	n/a	n/a	n/a	n/a
4354166	DISTRACTOR	n/a	LTP258	ltpFR2	14	19	n/a	n/a	n/a	n/a	0	0	0
4354183	PROB	n/a	LTP258	ltpFR2	14	n/a	n/a	n/a	29	12	8	1	3
4355881	PROB	n/a	LTP258	ltpFR2	14	n/a	n/a	n/a	29	12	4	5	3
4357529	PROB	n/a	LTP258	ltpFR2	14	n/a	n/a	n/a	29	18	7	7	4
4358976	PROB	n/a	LTP258	ltpFR2	14	n/a	n/a	n/a	29	13	5	3	5
4359891	PROB	n/a	LTP258	ltpFR2	14	n/a	n/a	n/a	29	18	7	7	4
4361473	PROB	n/a	LTP258	ltpFR2	14	n/a	n/a	n/a	29	15	7	1	7
4362737	PROB	n/a	LTP258	ltpFR2	14	n/a	n/a	n/a	29	25	9	7	9
4364751	PROB	n/a	LTP258	ltpFR2	14	n/a	n/a	n/a	29	4	1	2	1
4365749	PROB	n/a	LTP258	ltpFR2	14	n/a	n/a	n/a	29	7	1	1	5
4366781	PROB	n/a	LTP258	ltpFR2	14	n/a	n/a	n/a	29	17	4	8	5
4367963	PROB	n/a	LTP258	ltpFR2	14	n/a	n/a	n/a	29	13	6	2	5
4369993	PROB	n/a	LTP258	ltpFR2	14	n/a	n/a	n/a	29	15	7	3	5
4371025	PROB	n/a	LTP258	ltpFR2	14	n/a	n/a	n/a	29	136	1	7	8
4373305	PROB	n/a	LTP258	ltpFR2	14	n/a	n/a	n/a	29	22	9	4	9
4374836	PROB	n/a	LTP258	ltpFR2	14	n/a	n/a	n/a	29	13	2	5	6
4376273	STOP	n/a	LTP258	ltpFR2	14	n/a	n/a	n/a	29	n/a	n/a	n/a	n/a
4378947	REC_START	n/a	LTP258	ltpFR2	14	19	n/a	n/a	n/a	n/a	0	0	0
4381384	REC_WORD	wordpools/wasnorm_wordpool_576.txt	LTP258	ltpFR2	14	19	POSSUM	1112	n/a	n/a	0	0	0
4382155	REC_WORD	wordpools/wasnorm_wordpool_576.txt	LTP258	ltpFR2	14	19	BUNNY	198	n/a	n/a	0	0	0
4382901	REC_WORD	wordpools/wasnorm_wordpool_576.txt	LTP258	ltpFR2	14	19	ARM	38	n/a	n/a	0	0	0
4384183	REC_WORD	wordpools/wasnorm_wordpool_576.txt	LTP258	ltpFR2	14	19	SCULPTURE	1258	n/a	n/a	0	0	0
4386478	REC_WORD	wordpools/wasnorm_wordpool_576.txt	LTP258	ltpFR2	14	19	STATUE	1374	n/a	n/a	0	0	0
4391549	REC_WORD	wordpools/wasnorm_wordpool_576.txt	LTP258	ltpFR2	14	19	ICEBERG	731	n/a	n/a	0	0	0
4392819	REC_WORD	wordpools/wasnorm_wordpool_576.txt	LTP258	ltpFR2	14	19	INFANT	737	n/a	n/a	0	0	0
4396171	REC_WORD	wordpools/wasnorm_wordpool_576.txt	LTP258	ltpFR2	14	19	BABY	64	n/a	n/a	0	0	0
4397020	REC_WORD	wordpools/wasnorm_wordpool_576.txt	LTP258	ltpFR2	14	19	FREEZER	604	n/a	n/a	0	0	0
4406488	REC_WORD	wordpools/wasnorm_wordpool_576.txt	LTP258	ltpFR2	14	19	REBEL	1172	n/a	n/a	0	0	0
4410319	REC_WORD	wordpools/wasnorm_wordpool_576.txt	LTP258	ltpFR2	14	19	COMPASS	358	n/a	n/a	0	0	0
4469595	WORD	wordpools/wasnorm_wordpool_576.txt	LTP258	ltpFR2	14	20	WIFE	1609	n/a	n/a	0	0	0
4472140	WORD	wordpools/wasnorm_wordpool_576.txt	LTP258	ltpFR2	14	20	YOLK	1633	n/a	n/a	0	0	0
4474786	WORD	wordpools/wasnorm_wordpool_576.txt	LTP258	ltpFR2	14	20	RUG	1215	n/a	n/a	0	0	0
4477467	WORD	wordpools/wasnorm_wordpool_576.txt	LTP258	ltpFR2	14	20	PUPPY	1144	n/a	n/a	0	0	0
