mstime	trial_type	stim_file	subject	experiment	session	trial	task	item_name	item_num	recog_conf	resp	answer	test_x	test_y	test_z	color_b	color_g	color_r	case	font
0	SESS_START	n/a	LTP244	ltpFR	9	n/a	n/a	n/a	n/a	5	n/a	n/a	0	0	0	n/a	n/a	n/a	n/a	n/a
78099	START	n/a	LTP244	ltpFR	9	n/a	n/a	n/a	n/a	n/a	n/a	n/a	n/a	n/a	n/a	n/a	n/a	n/a	n/a	n/a
78132	PROB	n/a	LTP244	ltpFR	9	n/a	n/a	n/a	n/a	n/a	n/a	21	7	6	8	n/a	n/a	n/a	n/a	n/a
81194	PROB	n/a	LTP244	ltpFR	9	n/a	n/a	n/a	n/a	n/a	n/a	22	9	7	6	n/a	n/a	n/a	n/a	n/a
83341	PROB	n/a	LTP244	ltpFR	9	n/a	n/a	n/a	n/a	n/a	n/a	26	8	9	9	n/a	n/a	n/a	n/a	n/a
85171	PROB	n/a	LTP244	ltpFR	9	n/a	n/a	n/a	n/a	n/a	n/a	16	7	5	4	n/a	n/a	n/a	n/a	n/a
86885	PROB	n/a	LTP244	ltpFR	9	n/a	n/a	n/a	n/a	n/a	n/a	17	9	2	6	n/a	n/a	n/a	n/a	n/a
88733	PROB	n/a	LTP244	ltpFR	9	n/a	n/a	n/a	n/a	n/a	n/a	13	1	5	7	n/a	n/a	n/a	n/a	n/a
90663	PROB	n/a	LTP244	ltpFR	9	n/a	n/a	n/a	n/a	n/a	n/a	16	3	9	4	n/a	n/a	n/a	n/a	n/a
92178	PROB	n/a	LTP244	ltpFR	9	n/a	n/a	n/a	n/a	n/a	n/a	20	7	6	7	n/a	n/a	n/a	n/a	n/a
93908	PROB	n/a	LTP244	ltpFR	9	n/a	n/a	n/a	n/a	n/a	n/a	8	2	5	1	n/a	n/a	n/a	n/a	n/a
95506	PROB	n/a	LTP244	ltpFR	9	n/a	n/a	n/a	n/a	n/a	n/a	16	9	5	2	n/a	n/a	n/a	n/a	n/a
96989	STOP	n/a	LTP244	ltpFR	9	n/a	n/a	n/a	n/a	n/a	n/a	n/a	n/a	n/a	n/a	n/a	n/a	n/a	n/a	n/a
143201	WORD	wordpools/wasnorm_wordpool_less_exclusions.txt	LTP244	ltpFR	9	1	1	GORILLA	650	n/a	0	n/a	0	0	0	1	0.412841796875	0.57763671875	lower	../fonts/amplitud.ttf
147029	WORD	wordpools/wasnorm_wordpool_less_exclusions.txt	LTP244	ltpFR	9	1	1	CHIMPANZEE	302	n/a	1	n/a	0	0	0	1	0.412841796875	0.57763671875	lower	../fonts/amplitud.ttf
150940	WORD	wordpools/wasnorm_wordpool_less_exclusions.txt	LTP244	ltpFR	9	1	1	PIZZA	1079	n/a	0	n/a	0	0	0	1	0.412841796875	0.57763671875	lower	../fonts/amplitud.ttf
154817	WORD	wordpools/wasnorm_wordpool_less_exclusions.txt	LTP244	ltpFR	9	1	0	HOOK	715	n/a	1	n/a	0	0	0	0	0.5869140625	0.422607421875	upper	../fonts/zerothre.ttf
158728	WORD	wordpools/wasnorm_wordpool_less_exclusions.txt	LTP244	ltpFR	9	1	0	DIAPER	459	n/a	0	n/a	0	0	0	0	0.5869140625	0.422607421875	upper	../fonts/zerothre.ttf
162855	WORD	wordpools/wasnorm_wordpool_less_exclusions.txt	LTP244	ltpFR	9	1	0	CREW	406	n/a	1	n/a	0	0	0	0	0.5869140625	0.422607421875	upper	../fonts/zerothre.ttf
166783	WORD	wordpools/wasnorm_wordpool_less_exclusions.txt	LTP244	ltpFR	9	1	0	TUTU	1524	n/a	0	n/a	0	0	0	0	0.5869140625	0.422607421875	upper	../fonts/zerothre.ttf
170877	WORD	wordpools/wasnorm_wordpool_less_exclusions.txt	LTP244	ltpFR	9	1	0	MAID	856	n/a	1	n/a	0	0	0	0	0.5869140625	0.422607421875	upper	../fonts/zerothre.ttf
174954	WORD	wordpools/wasnorm_wordpool_less_exclusions.txt	LTP244	ltpFR	9	1	0	ASSISTANT	48	n/a	1	n/a	0	0	0	0	0.5869140625	0.422607421875	upper	../fonts/zerothre.ttf
178881	WORD	wordpools/wasnorm_wordpool_less_exclusions.txt	LTP244	ltpFR	9	1	1	JUG	762	n/a	0	n/a	0	0	0	1	0.412841796875	0.57763671875	lower	../fonts/amplitud.ttf
182942	WORD	wordpools/wasnorm_wordpool_less_exclusions.txt	LTP244	ltpFR	9	1	1	TREAD	1499	n/a	0	n/a	0	0	0	1	0.412841796875	0.57763671875	lower	../fonts/amplitud.ttf
186886	WORD	wordpools/wasnorm_wordpool_less_exclusions.txt	LTP244	ltpFR	9	1	1	SURF	1412	n/a	0	n/a	0	0	0	1	0.412841796875	0.57763671875	lower	../fonts/amplitud.ttf
190997	WORD	wordpools/wasnorm_wordpool_less_exclusions.txt	LTP244	ltpFR	9	1	0	BAIT	70	n/a	0	n/a	0	0	0	0	0.5869140625	0.422607421875	upper	../fonts/zerothre.ttf
195157	WORD	wordpools/wasnorm_wordpool_less_exclusions.txt	LTP244	ltpFR	9	1	0	TROUT	1511	n/a	0	n/a	0	0	0	0	0.5869140625	0.422607421875	upper	../fonts/zerothre.ttf
199201	WORD	wordpools/wasnorm_wordpool_less_exclusions.txt	LTP244	ltpFR	9	1	1	FEAST	556	n/a	0	n/a	0	0	0	1	0.412841796875	0.57763671875	lower	../fonts/amplitud.ttf
203079	WORD	wordpools/wasnorm_wordpool_less_exclusions.txt	LTP244	ltpFR	9	1	1	TUB	1514	n/a	0	n/a	0	0	0	1	0.412841796875	0.57763671875	lower	../fonts/amplitud.ttf
206091	START	n/a	LTP244	ltpFR	9	n/a	n/a	n/a	n/a	n/a	n/a	n/a	n/a	n/a	n/a	n/a	n/a	n/a	n/a	n/a
207272	PROB	n/a	LTP244	ltpFR	9	n/a	n/a	n/a	n/a	n/a	n/a	143	5	3	4	n/a	n/a	n/a	n/a	n/a
209685	PROB	n/a	LTP244	ltpFR	9	n/a	n/a	n/a	n/a	n/a	n/a	16	7	1	8	n/a	n/a	n/a	n/a	n/a
211333	PROB	n/a	LTP244	ltpFR	9	n/a	n/a	n/a	n/a	n/a	n/a	11	6	1	4	n/a	n/a	n/a	n/a	n/a
213101	STOP	n/a	LTP244	ltpFR	9	n/a	n/a	n/a	n/a	n/a	n/a	n/a	n/a	n/a	n/a	n/a	n/a	n/a	n/a	n/a
215860	REC_START	n/a	LTP244	ltpFR	9	1	n/a	n/a	n/a	n/a	n/a	n/a	0	0	0	n/a	n/a	n/a	n/a	n/a
216863	REC_WORD	wordpools/wasnorm_wordpool_less_exclusions.txt	LTP244	ltpFR	9	1	1	GORILLA	650	n/a	0	n/a	0	0	0	n/a	n/a	n/a	n/a	n/a
217671	REC_WORD	wordpools/wasnorm_wordpool_less_exclusions.txt	LTP244	ltpFR	9	1	1	CHIMPANZEE	302	n/a	1	n/a	0	0	0	n/a	n/a	n/a	n/a	n/a
220898	REC_WORD	wordpools/wasnorm_wordpool_less_exclusions.txt	LTP244	ltpFR	9	1	1	PIZZA	1079	n/a	0	n/a	0	0	0	n/a	n/a	n/a	n/a	n/a
221836	REC_WORD	wordpools/wasnorm_wordpool_less_exclusions.txt	LTP244	ltpFR	9	1	1	SURF	1412	n/a	0	n/a	0	0	0	n/a	n/a	n/a	n/a	n/a
222884	REC_WORD	wordpools/wasnorm_wordpool_less_exclusions.txt	LTP244	ltpFR	9	1	1	FEAST	556	n/a	0	n/a	0	0	0	n/a	n/a	n/a	n/a	n/a
224036	REC_WORD	wordpools/wasnorm_wordpool_less_exclusions.txt	LTP244	ltpFR	9	1	0	DIAPER	459	n/a	0	n/a	0	0	0	n/a	n/a	n/a	n/a	n/a
225009	REC_WORD	wordpools/wasnorm_wordpool_less_exclusions.txt	LTP244	ltpFR	9	1	0	CREW	406	n/a	1	n/a	0	0	0	n/a	n/a	n/a	n/a	n/a
226007	REC_WORD	wordpools/wasnorm_wordpool_less_exclusions.txt	LTP244	ltpFR	9	1	0	MAID	856	n/a	1	n/a	0	0	0	n/a	n/a	n/a	n/a	n/a
226835	REC_WORD	wordpools/wasnorm_wordpool_less_exclusions.txt	LTP244	ltpFR	9	1	0	ASSISTANT	48	n/a	1	n/a	0	0	0	n/a	n/a	n/a	n/a	n/a
228077	REC_WORD	wordpools/wasnorm_wordpool_less_exclusions.txt	LTP244	ltpFR	9	1	0	BAIT	70	n/a	0	n/a	0	0	0	n/a	n/a	n/a	n/a	n/a
228965	REC_WORD	wordpools/wasnorm_wordpool_less_exclusions.txt	LTP244	ltpFR	9	1	0	TROUT	1511	n/a	0	n/a	0	0	0	n/a	n/a	n/a	n/a	n/a
234822	REC_WORD	wordpools/wasnorm_wordpool_less_exclusions.txt	LTP244	ltpFR	9	1	1	TREAD	1499	n/a	0	n/a	0	0	0	n/a	n/a	n/a	n/a	n/a
239032	REC_WORD	wordpools/wasnorm_wordpool_less_exclusions.txt	LTP244	ltpFR	9	1	0	TUTU	1524	n/a	0	n/a	0	0	0	n/a	n/a	n/a	n/a	n/a
293943	START	n/a	LTP244	ltpFR	9	n/a	n/a	n/a	n/a	n/a	n/a	n/a	n/a	n/a	n/a	n/a	n/a	n/a	n/a	n/a
295458	PROB	n/a	LTP244	ltpFR	9	n/a	n/a	n/a	n/a	n/a	n/a	11	4	2	3	n/a	n/a	n/a	n/a	n/a
298054	PROB	n/a	LTP244	ltpFR	9	n/a	n/a	n/a	n/a	n/a	n/a	24	7	8	9	n/a	n/a	n/a	n/a	n/a
301943	STOP	n/a	LTP244	ltpFR	9	n/a	n/a	n/a	n/a	n/a	n/a	n/a	n/a	n/a	n/a	n/a	n/a	n/a	n/a	n/a
302796	WORD	wordpools/wasnorm_wordpool_less_exclusions.txt	LTP244	ltpFR	9	2	1	FUGITIVE	612	n/a	1	n/a	0	0	0	1	0.412841796875	0.57763671875	lower	../fonts/amplitud.ttf
305809	START	n/a	LTP244	ltpFR	9	n/a	n/a	n/a	n/a	n/a	n/a	n/a	n/a	n/a	n/a	n/a	n/a	n/a	n/a	n/a
306824	PROB	n/a	LTP244	ltpFR	9	n/a	n/a	n/a	n/a	n/a	n/a	17	9	3	5	n/a	n/a	n/a	n/a	n/a
308621	PROB	n/a	LTP244	ltpFR	9	n/a	n/a	n/a	n/a	n/a	n/a	8	1	4	3	n/a	n/a	n/a	n/a	n/a
310751	PROB	n/a	LTP244	ltpFR	9	n/a	n/a	n/a	n/a	n/a	n/a	16	8	7	1	n/a	n/a	n/a	n/a	n/a
313808	STOP	n/a	LTP244	ltpFR	9	n/a	n/a	n/a	n/a	n/a	n/a	n/a	n/a	n/a	n/a	n/a	n/a	n/a	n/a	n/a
314679	WORD	wordpools/wasnorm_wordpool_less_exclusions.txt	LTP244	ltpFR	9	2	1	WATERFALL	1595	n/a	0	n/a	0	0	0	1	0.412841796875	0.57763671875	lower	../fonts/amplitud.ttf
317691	START	n/a	LTP244	ltpFR	9	n/a	n/a	n/a	n/a	n/a	n/a	n/a	n/a	n/a	n/a	n/a	n/a	n/a	n/a	n/a
318639	PROB	n/a	LTP244	ltpFR	9	n/a	n/a	n/a	n/a	n/a	n/a	12	4	3	5	n/a	n/a	n/a	n/a	n/a
320104	PROB	n/a	LTP244	ltpFR	9	n/a	n/a	n/a	n/a	n/a	n/a	17	8	5	4	n/a	n/a	n/a	n/a	n/a
321702	PROB	n/a	LTP244	ltpFR	9	n/a	n/a	n/a	n/a	n/a	n/a	18	8	6	4	n/a	n/a	n/a	n/a	n/a
323282	PROB	n/a	LTP244	ltpFR	9	n/a	n/a	n/a	n/a	n/a	n/a	5	2	1	2	n/a	n/a	n/a	n/a	n/a
324493	STOP	n/a	LTP244	ltpFR	9	n/a	n/a	n/a	n/a	n/a	n/a	n/a	n/a	n/a	n/a	n/a	n/a	n/a	n/a	n/a
326644	WORD	wordpools/wasnorm_wordpool_less_exclusions.txt	LTP244	ltpFR	9	2	1	SPONGE	1355	n/a	0	n/a	0	0	0	1	0.412841796875	0.57763671875	lower	../fonts/amplitud.ttf
329657	START	n/a	LTP244	ltpFR	9	n/a	n/a	n/a	n/a	n/a	n/a	n/a	n/a	n/a	n/a	n/a	n/a	n/a	n/a	n/a
330538	PROB	n/a	LTP244	ltpFR	9	n/a	n/a	n/a	n/a	n/a	n/a	10	1	6	3	n/a	n/a	n/a	n/a	n/a
332036	PROB	n/a	LTP244	ltpFR	9	n/a	n/a	n/a	n/a	n/a	n/a	15	5	4	6	n/a	n/a	n/a	n/a	n/a
333634	PROB	n/a	LTP244	ltpFR	9	n/a	n/a	n/a	n/a	n/a	n/a	9	1	1	7	n/a	n/a	n/a	n/a	n/a
335148	PROB	n/a	LTP244	ltpFR	9	n/a	n/a	n/a	n/a	n/a	n/a	14	1	9	4	n/a	n/a	n/a	n/a	n/a
336589	STOP	n/a	LTP244	ltpFR	9	n/a	n/a	n/a	n/a	n/a	n/a	n/a	n/a	n/a	n/a	n/a	n/a	n/a	n/a	n/a
338543	WORD	wordpools/wasnorm_wordpool_less_exclusions.txt	LTP244	ltpFR	9	2	1	MINER	896	n/a	1	n/a	0	0	0	1	0.412841796875	0.57763671875	lower	../fonts/amplitud.ttf
341556	START	n/a	LTP244	ltpFR	9	n/a	n/a	n/a	n/a	n/a	n/a	n/a	n/a	n/a	n/a	n/a	n/a	n/a	n/a	n/a
342570	PROB	n/a	LTP244	ltpFR	9	n/a	n/a	n/a	n/a	n/a	n/a	19	9	3	7	n/a	n/a	n/a	n/a	n/a
344368	PROB	n/a	LTP244	ltpFR	9	n/a	n/a	n/a	n/a	n/a	n/a	12	3	1	8	n/a	n/a	n/a	n/a	n/a
345749	PROB	n/a	LTP244	ltpFR	9	n/a	n/a	n/a	n/a	n/a	n/a	20	5	9	6	n/a	n/a	n/a	n/a	n/a
347746	PROB	n/a	LTP244	ltpFR	9	n/a	n/a	n/a	n/a	n/a	n/a	7	2	1	4	n/a	n/a	n/a	n/a	n/a
349117	STOP	n/a	LTP244	ltpFR	9	n/a	n/a	n/a	n/a	n/a	n/a	n/a	n/a	n/a	n/a	n/a	n/a	n/a	n/a	n/a
350558	WORD	wordpools/wasnorm_wordpool_less_exclusions.txt	LTP244	ltpFR	9	2	1	BRACELET	163	n/a	0	n/a	0	0	0	1	0.412841796875	0.57763671875	lower	../fonts/amplitud.ttf
353571	START	n/a	LTP244	ltpFR	9	n/a	n/a	n/a	n/a	n/a	n/a	n/a	n/a	n/a	n/a	n/a	n/a	n/a	n/a	n/a
354437	PROB	n/a	LTP244	ltpFR	9	n/a	n/a	n/a	n/a	n/a	n/a	12	2	5	5	n/a	n/a	n/a	n/a	n/a
355867	PROB	n/a	LTP244	ltpFR	9	n/a	n/a	n/a	n/a	n/a	n/a	16	2	8	6	n/a	n/a	n/a	n/a	n/a
357466	PROB	n/a	LTP244	ltpFR	9	n/a	n/a	n/a	n/a	n/a	n/a	8	1	4	3	n/a	n/a	n/a	n/a	n/a
358979	PROB	n/a	LTP244	ltpFR	9	n/a	n/a	n/a	n/a	n/a	n/a	14	7	5	2	n/a	n/a	n/a	n/a	n/a
360261	STOP	n/a	LTP244	ltpFR	9	n/a	n/a	n/a	n/a	n/a	n/a	n/a	n/a	n/a	n/a	n/a	n/a	n/a	n/a	n/a
362757	WORD	wordpools/wasnorm_wordpool_less_exclusions.txt	LTP244	ltpFR	9	2	0	CHEF	290	n/a	0	n/a	0	0	0	0	0.5869140625	0.422607421875	upper	../fonts/zerothre.ttf
365770	START	n/a	LTP244	ltpFR	9	n/a	n/a	n/a	n/a	n/a	n/a	n/a	n/a	n/a	n/a	n/a	n/a	n/a	n/a	n/a
366818	PROB	n/a	LTP244	ltpFR	9	n/a	n/a	n/a	n/a	n/a	n/a	220	9	6	5	n/a	n/a	n/a	n/a	n/a
368948	PROB	n/a	LTP244	ltpFR	9	n/a	n/a	n/a	n/a	n/a	n/a	22	8	9	5	n/a	n/a	n/a	n/a	n/a
371311	PROB	n/a	LTP244	ltpFR	9	n/a	n/a	n/a	n/a	n/a	n/a	6	2	1	3	n/a	n/a	n/a	n/a	n/a
373173	STOP	n/a	LTP244	ltpFR	9	n/a	n/a	n/a	n/a	n/a	n/a	n/a	n/a	n/a	n/a	n/a	n/a	n/a	n/a	n/a
374922	WORD	wordpools/wasnorm_wordpool_less_exclusions.txt	LTP244	ltpFR	9	2	0	DOLPHIN	483	n/a	1	n/a	0	0	0	0	0.5869140625	0.422607421875	upper	../fonts/zerothre.ttf
377935	START	n/a	LTP244	ltpFR	9	n/a	n/a	n/a	n/a	n/a	n/a	n/a	n/a	n/a	n/a	n/a	n/a	n/a	n/a	n/a
379066	PROB	n/a	LTP244	ltpFR	9	n/a	n/a	n/a	n/a	n/a	n/a	13	6	1	6	n/a	n/a	n/a	n/a	n/a
380996	PROB	n/a	LTP244	ltpFR	9	n/a	n/a	n/a	n/a	n/a	n/a	14	6	2	6	n/a	n/a	n/a	n/a	n/a
382644	PROB	n/a	LTP244	ltpFR	9	n/a	n/a	n/a	n/a	n/a	n/a	20	8	8	4	n/a	n/a	n/a	n/a	n/a
384042	PROB	n/a	LTP244	ltpFR	9	n/a	n/a	n/a	n/a	n/a	n/a	22	8	5	8	n/a	n/a	n/a	n/a	n/a
385462	STOP	n/a	LTP244	ltpFR	9	n/a	n/a	n/a	n/a	n/a	n/a	n/a	n/a	n/a	n/a	n/a	n/a	n/a	n/a	n/a
387104	WORD	wordpools/wasnorm_wordpool_less_exclusions.txt	LTP244	ltpFR	9	2	0	CHAMBER	277	n/a	1	n/a	0	0	0	0	0.5869140625	0.422607421875	upper	../fonts/zerothre.ttf
390116	START	n/a	LTP244	ltpFR	9	n/a	n/a	n/a	n/a	n/a	n/a	n/a	n/a	n/a	n/a	n/a	n/a	n/a	n/a	n/a
391031	PROB	n/a	LTP244	ltpFR	9	n/a	n/a	n/a	n/a	n/a	n/a	17	1	8	8	n/a	n/a	n/a	n/a	n/a
392579	PROB	n/a	LTP244	ltpFR	9	n/a	n/a	n/a	n/a	n/a	n/a	7	1	1	5	n/a	n/a	n/a	n/a	n/a
393794	PROB	n/a	LTP244	ltpFR	9	n/a	n/a	n/a	n/a	n/a	n/a	16	9	5	2	n/a	n/a	n/a	n/a	n/a
396024	PROB	n/a	LTP244	ltpFR	9	n/a	n/a	n/a	n/a	n/a	n/a	11	3	3	5	n/a	n/a	n/a	n/a	n/a
398069	STOP	n/a	LTP244	ltpFR	9	n/a	n/a	n/a	n/a	n/a	n/a	n/a	n/a	n/a	n/a	n/a	n/a	n/a	n/a	n/a
399119	WORD	wordpools/wasnorm_wordpool_less_exclusions.txt	LTP244	ltpFR	9	2	0	CAPE	237	n/a	0	n/a	0	0	0	0	0.5869140625	0.422607421875	upper	../fonts/zerothre.ttf
402132	START	n/a	LTP244	ltpFR	9	n/a	n/a	n/a	n/a	n/a	n/a	n/a	n/a	n/a	n/a	n/a	n/a	n/a	n/a	n/a
403330	PROB	n/a	LTP244	ltpFR	9	n/a	n/a	n/a	n/a	n/a	n/a	12	2	6	4	n/a	n/a	n/a	n/a	n/a
404994	PROB	n/a	LTP244	ltpFR	9	n/a	n/a	n/a	n/a	n/a	n/a	10	1	3	6	n/a	n/a	n/a	n/a	n/a
406608	PROB	n/a	LTP244	ltpFR	9	n/a	n/a	n/a	n/a	n/a	n/a	9	2	6	1	n/a	n/a	n/a	n/a	n/a
408039	PROB	n/a	LTP244	ltpFR	9	n/a	n/a	n/a	n/a	n/a	n/a	15	1	6	8	n/a	n/a	n/a	n/a	n/a
409613	STOP	n/a	LTP244	ltpFR	9	n/a	n/a	n/a	n/a	n/a	n/a	n/a	n/a	n/a	n/a	n/a	n/a	n/a	n/a	n/a
411068	WORD	wordpools/wasnorm_wordpool_less_exclusions.txt	LTP244	ltpFR	9	2	0	BALLOON	75	n/a	0	n/a	0	0	0	0	0.5869140625	0.422607421875	upper	../fonts/zerothre.ttf
414081	START	n/a	LTP244	ltpFR	9	n/a	n/a	n/a	n/a	n/a	n/a	n/a	n/a	n/a	n/a	n/a	n/a	n/a	n/a	n/a
414912	PROB	n/a	LTP244	ltpFR	9	n/a	n/a	n/a	n/a	n/a	n/a	12	5	3	4	n/a	n/a	n/a	n/a	n/a
416177	PROB	n/a	LTP244	ltpFR	9	n/a	n/a	n/a	n/a	n/a	n/a	19	2	9	8	n/a	n/a	n/a	n/a	n/a
417908	PROB	n/a	LTP244	ltpFR	9	n/a	n/a	n/a	n/a	n/a	n/a	19	8	5	3	n/a	n/a	n/a	n/a	n/a
419672	PROB	n/a	LTP244	ltpFR	9	n/a	n/a	n/a	n/a	n/a	n/a	20	8	4	9	n/a	n/a	n/a	n/a	n/a
421357	STOP	n/a	LTP244	ltpFR	9	n/a	n/a	n/a	n/a	n/a	n/a	n/a	n/a	n/a	n/a	n/a	n/a	n/a	n/a	n/a
423000	WORD	wordpools/wasnorm_wordpool_less_exclusions.txt	LTP244	ltpFR	9	2	0	FREEWAY	603	n/a	1	n/a	0	0	0	0	0.5869140625	0.422607421875	upper	../fonts/zerothre.ttf
426013	START	n/a	LTP244	ltpFR	9	n/a	n/a	n/a	n/a	n/a	n/a	n/a	n/a	n/a	n/a	n/a	n/a	n/a	n/a	n/a
427094	PROB	n/a	LTP244	ltpFR	9	n/a	n/a	n/a	n/a	n/a	n/a	9	4	4	1	n/a	n/a	n/a	n/a	n/a
428342	PROB	n/a	LTP244	ltpFR	9	n/a	n/a	n/a	n/a	n/a	n/a	13	1	8	4	n/a	n/a	n/a	n/a	n/a
430106	PROB	n/a	LTP244	ltpFR	9	n/a	n/a	n/a	n/a	n/a	n/a	21	9	6	6	n/a	n/a	n/a	n/a	n/a
431854	PROB	n/a	LTP244	ltpFR	9	n/a	n/a	n/a	n/a	n/a	n/a	20	3	9	8	n/a	n/a	n/a	n/a	n/a
433477	STOP	n/a	LTP244	ltpFR	9	n/a	n/a	n/a	n/a	n/a	n/a	n/a	n/a	n/a	n/a	n/a	n/a	n/a	n/a	n/a
435232	WORD	wordpools/wasnorm_wordpool_less_exclusions.txt	LTP244	ltpFR	9	2	1	STRAWBERRY	1391	n/a	0	n/a	0	0	0	1	0.412841796875	0.57763671875	lower	../fonts/amplitud.ttf
438245	START	n/a	LTP244	ltpFR	9	n/a	n/a	n/a	n/a	n/a	n/a	n/a	n/a	n/a	n/a	n/a	n/a	n/a	n/a	n/a
439426	PROB	n/a	LTP244	ltpFR	9	n/a	n/a	n/a	n/a	n/a	n/a	14	7	6	1	n/a	n/a	n/a	n/a	n/a
441007	PROB	n/a	LTP244	ltpFR	9	n/a	n/a	n/a	n/a	n/a	n/a	10	5	3	2	n/a	n/a	n/a	n/a	n/a
442321	PROB	n/a	LTP244	ltpFR	9	n/a	n/a	n/a	n/a	n/a	n/a	17	9	2	6	n/a	n/a	n/a	n/a	n/a
443853	PROB	n/a	LTP244	ltpFR	9	n/a	n/a	n/a	n/a	n/a	n/a	18	3	9	6	n/a	n/a	n/a	n/a	n/a
445341	STOP	n/a	LTP244	ltpFR	9	n/a	n/a	n/a	n/a	n/a	n/a	n/a	n/a	n/a	n/a	n/a	n/a	n/a	n/a	n/a
447430	WORD	wordpools/wasnorm_wordpool_less_exclusions.txt	LTP244	ltpFR	9	2	1	CAULIFLOWER	262	n/a	1	n/a	0	0	0	1	0.412841796875	0.57763671875	lower	../fonts/amplitud.ttf
450444	START	n/a	LTP244	ltpFR	9	n/a	n/a	n/a	n/a	n/a	n/a	n/a	n/a	n/a	n/a	n/a	n/a	n/a	n/a	n/a
451375	PROB	n/a	LTP244	ltpFR	9	n/a	n/a	n/a	n/a	n/a	n/a	12	5	2	2	n/a	n/a	n/a	n/a	n/a
452956	PROB	n/a	LTP244	ltpFR	9	n/a	n/a	n/a	n/a	n/a	n/a	23	6	8	9	n/a	n/a	n/a	n/a	n/a
455319	PROB	n/a	LTP244	ltpFR	9	n/a	n/a	n/a	n/a	n/a	n/a	15	3	3	9	n/a	n/a	n/a	n/a	n/a
457125	STOP	n/a	LTP244	ltpFR	9	n/a	n/a	n/a	n/a	n/a	n/a	n/a	n/a	n/a	n/a	n/a	n/a	n/a	n/a	n/a
459447	WORD	wordpools/wasnorm_wordpool_less_exclusions.txt	LTP244	ltpFR	9	2	1	MEAL	882	n/a	0	n/a	0	0	0	1	0.412841796875	0.57763671875	lower	../fonts/amplitud.ttf
462459	START	n/a	LTP244	ltpFR	9	n/a	n/a	n/a	n/a	n/a	n/a	n/a	n/a	n/a	n/a	n/a	n/a	n/a	n/a	n/a
463556	PROB	n/a	LTP244	ltpFR	9	n/a	n/a	n/a	n/a	n/a	n/a	17	9	3	5	n/a	n/a	n/a	n/a	n/a
465171	PROB	n/a	LTP244	ltpFR	9	n/a	n/a	n/a	n/a	n/a	n/a	22	7	8	7	n/a	n/a	n/a	n/a	n/a
466851	PROB	n/a	LTP244	ltpFR	9	n/a	n/a	n/a	n/a	n/a	n/a	14	4	4	7	n/a	n/a	n/a	n/a	n/a
468848	PROB	n/a	LTP244	ltpFR	9	n/a	n/a	n/a	n/a	n/a	n/a	11	6	2	3	n/a	n/a	n/a	n/a	n/a
470053	STOP	n/a	LTP244	ltpFR	9	n/a	n/a	n/a	n/a	n/a	n/a	n/a	n/a	n/a	n/a	n/a	n/a	n/a	n/a	n/a
471628	WORD	wordpools/wasnorm_wordpool_less_exclusions.txt	LTP244	ltpFR	9	2	0	SEA	1259	n/a	0	n/a	0	0	0	0	0.5869140625	0.422607421875	upper	../fonts/zerothre.ttf
474640	START	n/a	LTP244	ltpFR	9	n/a	n/a	n/a	n/a	n/a	n/a	n/a	n/a	n/a	n/a	n/a	n/a	n/a	n/a	n/a
475505	PROB	n/a	LTP244	ltpFR	9	n/a	n/a	n/a	n/a	n/a	n/a	11	2	2	7	n/a	n/a	n/a	n/a	n/a
477153	PROB	n/a	LTP244	ltpFR	9	n/a	n/a	n/a	n/a	n/a	n/a	16	1	7	9	n/a	n/a	n/a	n/a	n/a
478750	PROB	n/a	LTP244	ltpFR	9	n/a	n/a	n/a	n/a	n/a	n/a	12	3	1	8	n/a	n/a	n/a	n/a	n/a
480548	PROB	n/a	LTP244	ltpFR	9	n/a	n/a	n/a	n/a	n/a	n/a	17	7	9	1	n/a	n/a	n/a	n/a	n/a
482413	STOP	n/a	LTP244	ltpFR	9	n/a	n/a	n/a	n/a	n/a	n/a	n/a	n/a	n/a	n/a	n/a	n/a	n/a	n/a	n/a
483527	WORD	wordpools/wasnorm_wordpool_less_exclusions.txt	LTP244	ltpFR	9	2	0	PUMPKIN	1142	n/a	1	n/a	0	0	0	0	0.5869140625	0.422607421875	upper	../fonts/zerothre.ttf
486539	START	n/a	LTP244	ltpFR	9	n/a	n/a	n/a	n/a	n/a	n/a	n/a	n/a	n/a	n/a	n/a	n/a	n/a	n/a	n/a
487587	PROB	n/a	LTP244	ltpFR	9	n/a	n/a	n/a	n/a	n/a	n/a	15	9	3	3	n/a	n/a	n/a	n/a	n/a
489035	PROB	n/a	LTP244	ltpFR	9	n/a	n/a	n/a	n/a	n/a	n/a	13	6	6	7	n/a	n/a	n/a	n/a	n/a
490782	PROB	n/a	LTP244	ltpFR	9	n/a	n/a	n/a	n/a	n/a	n/a	12	2	7	3	n/a	n/a	n/a	n/a	n/a
492613	PROB	n/a	LTP244	ltpFR	9	n/a	n/a	n/a	n/a	n/a	n/a	17	8	7	4	n/a	n/a	n/a	n/a	n/a
494053	STOP	n/a	LTP244	ltpFR	9	n/a	n/a	n/a	n/a	n/a	n/a	n/a	n/a	n/a	n/a	n/a	n/a	n/a	n/a	n/a
496424	REC_START	n/a	LTP244	ltpFR	9	2	n/a	n/a	n/a	n/a	n/a	n/a	0	0	0	n/a	n/a	n/a	n/a	n/a
497636	REC_WORD	wordpools/wasnorm_wordpool_less_exclusions.txt	LTP244	ltpFR	9	2	0	CHAMBER	277	n/a	1	n/a	0	0	0	n/a	n/a	n/a	n/a	n/a
498307	REC_WORD	wordpools/wasnorm_wordpool_less_exclusions.txt	LTP244	ltpFR	9	2	0	CHEF	290	n/a	0	n/a	0	0	0	n/a	n/a	n/a	n/a	n/a
498908	REC_WORD	wordpools/wasnorm_wordpool_less_exclusions.txt	LTP244	ltpFR	9	2	1	CAULIFLOWER	262	n/a	1	n/a	0	0	0	n/a	n/a	n/a	n/a	n/a
499870	REC_WORD	wordpools/wasnorm_wordpool_less_exclusions.txt	LTP244	ltpFR	9	2	1	STRAWBERRY	1391	n/a	0	n/a	0	0	0	n/a	n/a	n/a	n/a	n/a
510163	REC_WORD	wordpools/wasnorm_wordpool_less_exclusions.txt	LTP244	ltpFR	9	2	0	SEA	1259	n/a	0	n/a	0	0	0	n/a	n/a	n/a	n/a	n/a
517202	REC_WORD	wordpools/wasnorm_wordpool_less_exclusions.txt	LTP244	ltpFR	9	2	1	MINER	896	n/a	1	n/a	0	0	0	n/a	n/a	n/a	n/a	n/a
519351	REC_WORD	wordpools/wasnorm_wordpool_less_exclusions.txt	LTP244	ltpFR	9	2	1	FEAST	556	n/a	0	n/a	0	0	0	n/a	n/a	n/a	n/a	n/a
520384	REC_WORD	wordpools/wasnorm_wordpool_less_exclusions.txt	LTP244	ltpFR	9	2	1	MEAL	882	n/a	0	n/a	0	0	0	n/a	n/a	n/a	n/a	n/a
526441	REC_WORD	wordpools/wasnorm_wordpool_less_exclusions.txt	LTP244	ltpFR	9	2	1	SPONGE	1355	n/a	0	n/a	0	0	0	n/a	n/a	n/a	n/a	n/a
543133	REC_WORD	wordpools/wasnorm_wordpool_less_exclusions.txt	LTP244	ltpFR	9	2	0	FREEWAY	603	n/a	1	n/a	0	0	0	n/a	n/a	n/a	n/a	n/a
567991	REC_WORD	wordpools/wasnorm_wordpool_less_exclusions.txt	LTP244	ltpFR	9	2	0	PUMPKIN	1142	n/a	1	n/a	0	0	0	n/a	n/a	n/a	n/a	n/a
573609	START	n/a	LTP244	ltpFR	9	n/a	n/a	n/a	n/a	n/a	n/a	n/a	n/a	n/a	n/a	n/a	n/a	n/a	n/a	n/a
575123	PROB	n/a	LTP244	ltpFR	9	n/a	n/a	n/a	n/a	n/a	n/a	6	2	3	1	n/a	n/a	n/a	n/a	n/a
576987	PROB	n/a	LTP244	ltpFR	9	n/a	n/a	n/a	n/a	n/a	n/a	20	6	8	6	n/a	n/a	n/a	n/a	n/a
578518	PROB	n/a	LTP244	ltpFR	9	n/a	n/a	n/a	n/a	n/a	n/a	12	5	2	5	n/a	n/a	n/a	n/a	n/a
580215	PROB	n/a	LTP244	ltpFR	9	n/a	n/a	n/a	n/a	n/a	n/a	12	5	5	2	n/a	n/a	n/a	n/a	n/a
581330	PROB	n/a	LTP244	ltpFR	9	n/a	n/a	n/a	n/a	n/a	n/a	11	7	2	1	n/a	n/a	n/a	n/a	n/a
582495	PROB	n/a	LTP244	ltpFR	9	n/a	n/a	n/a	n/a	n/a	n/a	17	4	6	7	n/a	n/a	n/a	n/a	n/a
584093	PROB	n/a	LTP244	ltpFR	9	n/a	n/a	n/a	n/a	n/a	n/a	13	2	9	2	n/a	n/a	n/a	n/a	n/a
585524	PROB	n/a	LTP244	ltpFR	9	n/a	n/a	n/a	n/a	n/a	n/a	21	7	7	7	n/a	n/a	n/a	n/a	n/a
586806	PROB	n/a	LTP244	ltpFR	9	n/a	n/a	n/a	n/a	n/a	n/a	15	6	6	9	n/a	n/a	n/a	n/a	n/a
588141	STOP	n/a	LTP244	ltpFR	9	n/a	n/a	n/a	n/a	n/a	n/a	n/a	n/a	n/a	n/a	n/a	n/a	n/a	n/a	n/a
590500	WORD	wordpools/wasnorm_wordpool_less_exclusions.txt	LTP244	ltpFR	9	3	0	TOTE	1487	n/a	0	n/a	0	0	0	0	0.5869140625	0.422607421875	upper	../fonts/zerothre.ttf
593513	START	n/a	LTP244	ltpFR	9	n/a	n/a	n/a	n/a	n/a	n/a	n/a	n/a	n/a	n/a	n/a	n/a	n/a	n/a	n/a
594411	PROB	n/a	LTP244	ltpFR	9	n/a	n/a	n/a	n/a	n/a	n/a	11	3	7	1	n/a	n/a	n/a	n/a	n/a
595759	PROB	n/a	LTP244	ltpFR	9	n/a	n/a	n/a	n/a	n/a	n/a	18	3	7	8	n/a	n/a	n/a	n/a	n/a
597390	PROB	n/a	LTP244	ltpFR	9	n/a	n/a	n/a	n/a	n/a	n/a	15	8	5	2	n/a	n/a	n/a	n/a	n/a
599121	PROB	n/a	LTP244	ltpFR	9	n/a	n/a	n/a	n/a	n/a	n/a	19	7	3	9	n/a	n/a	n/a	n/a	n/a
600885	PROB	n/a	LTP244	ltpFR	9	n/a	n/a	n/a	n/a	n/a	n/a	16	4	9	3	n/a	n/a	n/a	n/a	n/a
602283	PROB	n/a	LTP244	ltpFR	9	n/a	n/a	n/a	n/a	n/a	n/a	14	6	7	1	n/a	n/a	n/a	n/a	n/a
604047	PROB	n/a	LTP244	ltpFR	9	n/a	n/a	n/a	n/a	n/a	n/a	5	3	1	1	n/a	n/a	n/a	n/a	n/a
605245	PROB	n/a	LTP244	ltpFR	9	n/a	n/a	n/a	n/a	n/a	n/a	9	2	6	1	n/a	n/a	n/a	n/a	n/a
606576	PROB	n/a	LTP244	ltpFR	9	n/a	n/a	n/a	n/a	n/a	n/a	18	8	1	9	n/a	n/a	n/a	n/a	n/a
607989	STOP	n/a	LTP244	ltpFR	9	n/a	n/a	n/a	n/a	n/a	n/a	n/a	n/a	n/a	n/a	n/a	n/a	n/a	n/a	n/a
610471	WORD	wordpools/wasnorm_wordpool_less_exclusions.txt	LTP244	ltpFR	9	3	0	ICE	730	n/a	0	n/a	0	0	0	0	0.5869140625	0.422607421875	upper	../fonts/zerothre.ttf
613483	START	n/a	LTP244	ltpFR	9	n/a	n/a	n/a	n/a	n/a	n/a	n/a	n/a	n/a	n/a	n/a	n/a	n/a	n/a	n/a
614315	PROB	n/a	LTP244	ltpFR	9	n/a	n/a	n/a	n/a	n/a	n/a	15	7	5	3	n/a	n/a	n/a	n/a	n/a
616145	PROB	n/a	LTP244	ltpFR	9	n/a	n/a	n/a	n/a	n/a	n/a	12	5	4	3	n/a	n/a	n/a	n/a	n/a
617593	PROB	n/a	LTP244	ltpFR	9	n/a	n/a	n/a	n/a	n/a	n/a	4	1	2	1	n/a	n/a	n/a	n/a	n/a
618825	PROB	n/a	LTP244	ltpFR	9	n/a	n/a	n/a	n/a	n/a	n/a	16	4	4	8	n/a	n/a	n/a	n/a	n/a
620705	PROB	n/a	LTP244	ltpFR	9	n/a	n/a	n/a	n/a	n/a	n/a	20	6	8	6	n/a	n/a	n/a	n/a	n/a
622536	PROB	n/a	LTP244	ltpFR	9	n/a	n/a	n/a	n/a	n/a	n/a	10	3	4	3	n/a	n/a	n/a	n/a	n/a
623950	PROB	n/a	LTP244	ltpFR	9	n/a	n/a	n/a	n/a	n/a	n/a	15	7	1	7	n/a	n/a	n/a	n/a	n/a
625481	PROB	n/a	LTP244	ltpFR	9	n/a	n/a	n/a	n/a	n/a	n/a	17	5	4	8	n/a	n/a	n/a	n/a	n/a
627595	PROB	n/a	LTP244	ltpFR	9	n/a	n/a	n/a	n/a	n/a	n/a	17	7	4	6	n/a	n/a	n/a	n/a	n/a
629181	STOP	n/a	LTP244	ltpFR	9	n/a	n/a	n/a	n/a	n/a	n/a	n/a	n/a	n/a	n/a	n/a	n/a	n/a	n/a	n/a
630574	WORD	wordpools/wasnorm_wordpool_less_exclusions.txt	LTP244	ltpFR	9	3	0	CHEST	295	n/a	1	n/a	0	0	0	0	0.5869140625	0.422607421875	upper	../fonts/zerothre.ttf
633586	START	n/a	LTP244	ltpFR	9	n/a	n/a	n/a	n/a	n/a	n/a	n/a	n/a	n/a	n/a	n/a	n/a	n/a	n/a	n/a
634734	PROB	n/a	LTP244	ltpFR	9	n/a	n/a	n/a	n/a	n/a	n/a	15	8	3	4	n/a	n/a	n/a	n/a	n/a
637613	PROB	n/a	LTP244	ltpFR	9	n/a	n/a	n/a	n/a	n/a	n/a	2	7	1	8	n/a	n/a	n/a	n/a	n/a
640076	PROB	n/a	LTP244	ltpFR	9	n/a	n/a	n/a	n/a	n/a	n/a	12	3	3	6	n/a	n/a	n/a	n/a	n/a
642855	PROB	n/a	LTP244	ltpFR	9	n/a	n/a	n/a	n/a	n/a	n/a	23	9	9	5	n/a	n/a	n/a	n/a	n/a
644486	PROB	n/a	LTP244	ltpFR	9	n/a	n/a	n/a	n/a	n/a	n/a	12	7	6	8	n/a	n/a	n/a	n/a	n/a
646533	PROB	n/a	LTP244	ltpFR	9	n/a	n/a	n/a	n/a	n/a	n/a	15	3	9	3	n/a	n/a	n/a	n/a	n/a
648069	STOP	n/a	LTP244	ltpFR	9	n/a	n/a	n/a	n/a	n/a	n/a	n/a	n/a	n/a	n/a	n/a	n/a	n/a	n/a	n/a
650727	WORD	wordpools/wasnorm_wordpool_less_exclusions.txt	LTP244	ltpFR	9	3	0	BEARD	107	n/a	0	n/a	0	0	0	0	0.5869140625	0.422607421875	upper	../fonts/zerothre.ttf
653740	START	n/a	LTP244	ltpFR	9	n/a	n/a	n/a	n/a	n/a	n/a	n/a	n/a	n/a	n/a	n/a	n/a	n/a	n/a	n/a
654937	PROB	n/a	LTP244	ltpFR	9	n/a	n/a	n/a	n/a	n/a	n/a	26	4	7	7	n/a	n/a	n/a	n/a	n/a
656718	PROB	n/a	LTP244	ltpFR	9	n/a	n/a	n/a	n/a	n/a	n/a	24	7	7	9	n/a	n/a	n/a	n/a	n/a
659031	PROB	n/a	LTP244	ltpFR	9	n/a	n/a	n/a	n/a	n/a	n/a	14	9	5	1	n/a	n/a	n/a	n/a	n/a
660912	PROB	n/a	LTP244	ltpFR	9	n/a	n/a	n/a	n/a	n/a	n/a	17	9	1	7	n/a	n/a	n/a	n/a	n/a
662759	PROB	n/a	LTP244	ltpFR	9	n/a	n/a	n/a	n/a	n/a	n/a	12	4	5	3	n/a	n/a	n/a	n/a	n/a
664223	PROB	n/a	LTP244	ltpFR	9	n/a	n/a	n/a	n/a	n/a	n/a	96	4	1	4	n/a	n/a	n/a	n/a	n/a
665904	PROB	n/a	LTP244	ltpFR	9	n/a	n/a	n/a	n/a	n/a	n/a	14	7	1	6	n/a	n/a	n/a	n/a	n/a
669739	STOP	n/a	LTP244	ltpFR	9	n/a	n/a	n/a	n/a	n/a	n/a	n/a	n/a	n/a	n/a	n/a	n/a	n/a	n/a	n/a
670830	WORD	wordpools/wasnorm_wordpool_less_exclusions.txt	LTP244	ltpFR	9	3	0	DILL	465	n/a	0	n/a	0	0	0	0	0.5869140625	0.422607421875	upper	../fonts/zerothre.ttf
673843	START	n/a	LTP244	ltpFR	9	n/a	n/a	n/a	n/a	n/a	n/a	n/a	n/a	n/a	n/a	n/a	n/a	n/a	n/a	n/a
674991	PROB	n/a	LTP244	ltpFR	9	n/a	n/a	n/a	n/a	n/a	n/a	16	2	6	8	n/a	n/a	n/a	n/a	n/a
676522	PROB	n/a	LTP244	ltpFR	9	n/a	n/a	n/a	n/a	n/a	n/a	11	3	5	3	n/a	n/a	n/a	n/a	n/a
678286	PROB	n/a	LTP244	ltpFR	9	n/a	n/a	n/a	n/a	n/a	n/a	16	1	6	9	n/a	n/a	n/a	n/a	n/a
680183	PROB	n/a	LTP244	ltpFR	9	n/a	n/a	n/a	n/a	n/a	n/a	12	2	8	2	n/a	n/a	n/a	n/a	n/a
681647	PROB	n/a	LTP244	ltpFR	9	n/a	n/a	n/a	n/a	n/a	n/a	7	1	3	3	n/a	n/a	n/a	n/a	n/a
683162	PROB	n/a	LTP244	ltpFR	9	n/a	n/a	n/a	n/a	n/a	n/a	16	7	8	1	n/a	n/a	n/a	n/a	n/a
684743	PROB	n/a	LTP244	ltpFR	9	n/a	n/a	n/a	n/a	n/a	n/a	12	6	5	1	n/a	n/a	n/a	n/a	n/a
686290	PROB	n/a	LTP244	ltpFR	9	n/a	n/a	n/a	n/a	n/a	n/a	15	8	2	5	n/a	n/a	n/a	n/a	n/a
687539	PROB	n/a	LTP244	ltpFR	9	n/a	n/a	n/a	n/a	n/a	n/a	8	2	4	2	n/a	n/a	n/a	n/a	n/a
689005	STOP	n/a	LTP244	ltpFR	9	n/a	n/a	n/a	n/a	n/a	n/a	n/a	n/a	n/a	n/a	n/a	n/a	n/a	n/a	n/a
690850	WORD	wordpools/wasnorm_wordpool_less_exclusions.txt	LTP244	ltpFR	9	3	0	KLEENEX	782	n/a	0	n/a	0	0	0	0	0.5869140625	0.422607421875	upper	../fonts/zerothre.ttf
693863	START	n/a	LTP244	ltpFR	9	n/a	n/a	n/a	n/a	n/a	n/a	n/a	n/a	n/a	n/a	n/a	n/a	n/a	n/a	n/a
694911	PROB	n/a	LTP244	ltpFR	9	n/a	n/a	n/a	n/a	n/a	n/a	11	4	6	1	n/a	n/a	n/a	n/a	n/a
696126	PROB	n/a	LTP244	ltpFR	9	n/a	n/a	n/a	n/a	n/a	n/a	17	4	5	8	n/a	n/a	n/a	n/a	n/a
697940	PROB	n/a	LTP244	ltpFR	9	n/a	n/a	n/a	n/a	n/a	n/a	21	6	9	6	n/a	n/a	n/a	n/a	n/a
700120	PROB	n/a	LTP244	ltpFR	9	n/a	n/a	n/a	n/a	n/a	n/a	22	5	8	9	n/a	n/a	n/a	n/a	n/a
702233	PROB	n/a	LTP244	ltpFR	9	n/a	n/a	n/a	n/a	n/a	n/a	24	8	9	7	n/a	n/a	n/a	n/a	n/a
704829	PROB	n/a	LTP244	ltpFR	9	n/a	n/a	n/a	n/a	n/a	n/a	16	6	5	5	n/a	n/a	n/a	n/a	n/a
706427	PROB	n/a	LTP244	ltpFR	9	n/a	n/a	n/a	n/a	n/a	n/a	13	3	2	8	n/a	n/a	n/a	n/a	n/a
709863	STOP	n/a	LTP244	ltpFR	9	n/a	n/a	n/a	n/a	n/a	n/a	n/a	n/a	n/a	n/a	n/a	n/a	n/a	n/a	n/a
710937	WORD	wordpools/wasnorm_wordpool_less_exclusions.txt	LTP244	ltpFR	9	3	0	STAPLER	1372	n/a	0	n/a	0	0	0	0	0.5869140625	0.422607421875	upper	../fonts/zerothre.ttf
713950	START	n/a	LTP244	ltpFR	9	n/a	n/a	n/a	n/a	n/a	n/a	n/a	n/a	n/a	n/a	n/a	n/a	n/a	n/a	n/a
714914	PROB	n/a	LTP244	ltpFR	9	n/a	n/a	n/a	n/a	n/a	n/a	13	2	4	7	n/a	n/a	n/a	n/a	n/a
717028	PROB	n/a	LTP244	ltpFR	9	n/a	n/a	n/a	n/a	n/a	n/a	223	5	9	9	n/a	n/a	n/a	n/a	n/a
719391	PROB	n/a	LTP244	ltpFR	9	n/a	n/a	n/a	n/a	n/a	n/a	19	1	9	9	n/a	n/a	n/a	n/a	n/a
721105	PROB	n/a	LTP244	ltpFR	9	n/a	n/a	n/a	n/a	n/a	n/a	15	7	4	4	n/a	n/a	n/a	n/a	n/a
722969	PROB	n/a	LTP244	ltpFR	9	n/a	n/a	n/a	n/a	n/a	n/a	17	7	1	9	n/a	n/a	n/a	n/a	n/a
725515	PROB	n/a	LTP244	ltpFR	9	n/a	n/a	n/a	n/a	n/a	n/a	8	2	2	4	n/a	n/a	n/a	n/a	n/a
726980	PROB	n/a	LTP244	ltpFR	9	n/a	n/a	n/a	n/a	n/a	n/a	10	5	1	4	n/a	n/a	n/a	n/a	n/a
729933	STOP	n/a	LTP244	ltpFR	9	n/a	n/a	n/a	n/a	n/a	n/a	n/a	n/a	n/a	n/a	n/a	n/a	n/a	n/a	n/a
730974	WORD	wordpools/wasnorm_wordpool_less_exclusions.txt	LTP244	ltpFR	9	3	0	FELLOW	558	n/a	1	n/a	0	0	0	0	0.5869140625	0.422607421875	upper	../fonts/zerothre.ttf
733986	START	n/a	LTP244	ltpFR	9	n/a	n/a	n/a	n/a	n/a	n/a	n/a	n/a	n/a	n/a	n/a	n/a	n/a	n/a	n/a
735001	PROB	n/a	LTP244	ltpFR	9	n/a	n/a	n/a	n/a	n/a	n/a	13	1	3	9	n/a	n/a	n/a	n/a	n/a
737081	PROB	n/a	LTP244	ltpFR	9	n/a	n/a	n/a	n/a	n/a	n/a	14	8	4	2	n/a	n/a	n/a	n/a	n/a
738696	PROB	n/a	LTP244	ltpFR	9	n/a	n/a	n/a	n/a	n/a	n/a	22	7	9	6	n/a	n/a	n/a	n/a	n/a
740726	PROB	n/a	LTP244	ltpFR	9	n/a	n/a	n/a	n/a	n/a	n/a	16	7	1	8	n/a	n/a	n/a	n/a	n/a
742190	PROB	n/a	LTP244	ltpFR	9	n/a	n/a	n/a	n/a	n/a	n/a	20	4	9	7	n/a	n/a	n/a	n/a	n/a
743721	PROB	n/a	LTP244	ltpFR	9	n/a	n/a	n/a	n/a	n/a	n/a	6	4	1	1	n/a	n/a	n/a	n/a	n/a
744820	PROB	n/a	LTP244	ltpFR	9	n/a	n/a	n/a	n/a	n/a	n/a	17	5	5	7	n/a	n/a	n/a	n/a	n/a
746634	PROB	n/a	LTP244	ltpFR	9	n/a	n/a	n/a	n/a	n/a	n/a	14	9	3	1	n/a	n/a	n/a	n/a	n/a
749986	STOP	n/a	LTP244	ltpFR	9	n/a	n/a	n/a	n/a	n/a	n/a	n/a	n/a	n/a	n/a	n/a	n/a	n/a	n/a	n/a
751144	WORD	wordpools/wasnorm_wordpool_less_exclusions.txt	LTP244	ltpFR	9	3	0	BRICK	172	n/a	0	n/a	0	0	0	0	0.5869140625	0.422607421875	upper	../fonts/zerothre.ttf
754156	START	n/a	LTP244	ltpFR	9	n/a	n/a	n/a	n/a	n/a	n/a	n/a	n/a	n/a	n/a	n/a	n/a	n/a	n/a	n/a
755104	PROB	n/a	LTP244	ltpFR	9	n/a	n/a	n/a	n/a	n/a	n/a	12	9	3	1	n/a	n/a	n/a	n/a	n/a
756502	PROB	n/a	LTP244	ltpFR	9	n/a	n/a	n/a	n/a	n/a	n/a	13	3	9	1	n/a	n/a	n/a	n/a	n/a
758200	PROB	n/a	LTP244	ltpFR	9	n/a	n/a	n/a	n/a	n/a	n/a	24	9	6	9	n/a	n/a	n/a	n/a	n/a
760729	PROB	n/a	LTP244	ltpFR	9	n/a	n/a	n/a	n/a	n/a	n/a	10	5	3	2	n/a	n/a	n/a	n/a	n/a
762127	PROB	n/a	LTP244	ltpFR	9	n/a	n/a	n/a	n/a	n/a	n/a	15	6	3	6	n/a	n/a	n/a	n/a	n/a
763741	PROB	n/a	LTP244	ltpFR	9	n/a	n/a	n/a	n/a	n/a	n/a	10	1	6	3	n/a	n/a	n/a	n/a	n/a
765156	PROB	n/a	LTP244	ltpFR	9	n/a	n/a	n/a	n/a	n/a	n/a	12	2	5	5	n/a	n/a	n/a	n/a	n/a
766354	PROB	n/a	LTP244	ltpFR	9	n/a	n/a	n/a	n/a	n/a	n/a	13	5	3	5	n/a	n/a	n/a	n/a	n/a
768637	STOP	n/a	LTP244	ltpFR	9	n/a	n/a	n/a	n/a	n/a	n/a	n/a	n/a	n/a	n/a	n/a	n/a	n/a	n/a	n/a
771097	WORD	wordpools/wasnorm_wordpool_less_exclusions.txt	LTP244	ltpFR	9	3	0	ROOT	1210	n/a	0	n/a	0	0	0	0	0.5869140625	0.422607421875	upper	../fonts/zerothre.ttf
774110	START	n/a	LTP244	ltpFR	9	n/a	n/a	n/a	n/a	n/a	n/a	n/a	n/a	n/a	n/a	n/a	n/a	n/a	n/a	n/a
775025	PROB	n/a	LTP244	ltpFR	9	n/a	n/a	n/a	n/a	n/a	n/a	17	3	6	8	n/a	n/a	n/a	n/a	n/a
776855	PROB	n/a	LTP244	ltpFR	9	n/a	n/a	n/a	n/a	n/a	n/a	11	3	4	4	n/a	n/a	n/a	n/a	n/a
778503	PROB	n/a	LTP244	ltpFR	9	n/a	n/a	n/a	n/a	n/a	n/a	18	9	5	5	n/a	n/a	n/a	n/a	n/a
780816	PROB	n/a	LTP244	ltpFR	9	n/a	n/a	n/a	n/a	n/a	n/a	19	6	5	8	n/a	n/a	n/a	n/a	n/a
782547	PROB	n/a	LTP244	ltpFR	9	n/a	n/a	n/a	n/a	n/a	n/a	16	4	6	6	n/a	n/a	n/a	n/a	n/a
784228	PROB	n/a	LTP244	ltpFR	9	n/a	n/a	n/a	n/a	n/a	n/a	2	9	9	6	n/a	n/a	n/a	n/a	n/a
786108	PROB	n/a	LTP244	ltpFR	9	n/a	n/a	n/a	n/a	n/a	n/a	4	1	8	5	n/a	n/a	n/a	n/a	n/a
787406	PROB	n/a	LTP244	ltpFR	9	n/a	n/a	n/a	n/a	n/a	n/a	19	7	7	5	n/a	n/a	n/a	n/a	n/a
789173	STOP	n/a	LTP244	ltpFR	9	n/a	n/a	n/a	n/a	n/a	n/a	n/a	n/a	n/a	n/a	n/a	n/a	n/a	n/a	n/a
791051	WORD	wordpools/wasnorm_wordpool_less_exclusions.txt	LTP244	ltpFR	9	3	0	SPINACH	1352	n/a	0	n/a	0	0	0	0	0.5869140625	0.422607421875	upper	../fonts/zerothre.ttf
794063	START	n/a	LTP244	ltpFR	9	n/a	n/a	n/a	n/a	n/a	n/a	n/a	n/a	n/a	n/a	n/a	n/a	n/a	n/a	n/a
795261	PROB	n/a	LTP244	ltpFR	9	n/a	n/a	n/a	n/a	n/a	n/a	19	9	8	2	n/a	n/a	n/a	n/a	n/a
796975	PROB	n/a	LTP244	ltpFR	9	n/a	n/a	n/a	n/a	n/a	n/a	16	4	9	3	n/a	n/a	n/a	n/a	n/a
798606	PROB	n/a	LTP244	ltpFR	9	n/a	n/a	n/a	n/a	n/a	n/a	16	6	7	3	n/a	n/a	n/a	n/a	n/a
800653	PROB	n/a	LTP244	ltpFR	9	n/a	n/a	n/a	n/a	n/a	n/a	12	7	1	4	n/a	n/a	n/a	n/a	n/a
802550	PROB	n/a	LTP244	ltpFR	9	n/a	n/a	n/a	n/a	n/a	n/a	18	3	9	6	n/a	n/a	n/a	n/a	n/a
804248	PROB	n/a	LTP244	ltpFR	9	n/a	n/a	n/a	n/a	n/a	n/a	18	5	8	5	n/a	n/a	n/a	n/a	n/a
806344	PROB	n/a	LTP244	ltpFR	9	n/a	n/a	n/a	n/a	n/a	n/a	20	8	3	9	n/a	n/a	n/a	n/a	n/a
810062	STOP	n/a	LTP244	ltpFR	9	n/a	n/a	n/a	n/a	n/a	n/a	n/a	n/a	n/a	n/a	n/a	n/a	n/a	n/a	n/a
811054	WORD	wordpools/wasnorm_wordpool_less_exclusions.txt	LTP244	ltpFR	9	3	0	ROOMMATE	1207	n/a	1	n/a	0	0	0	0	0.5869140625	0.422607421875	upper	../fonts/zerothre.ttf
814067	START	n/a	LTP244	ltpFR	9	n/a	n/a	n/a	n/a	n/a	n/a	n/a	n/a	n/a	n/a	n/a	n/a	n/a	n/a	n/a
815015	PROB	n/a	LTP244	ltpFR	9	n/a	n/a	n/a	n/a	n/a	n/a	11	2	8	1	n/a	n/a	n/a	n/a	n/a
816929	PROB	n/a	LTP244	ltpFR	9	n/a	n/a	n/a	n/a	n/a	n/a	9	2	5	2	n/a	n/a	n/a	n/a	n/a
818277	PROB	n/a	LTP244	ltpFR	9	n/a	n/a	n/a	n/a	n/a	n/a	13	6	2	7	n/a	n/a	n/a	n/a	n/a
819924	PROB	n/a	LTP244	ltpFR	9	n/a	n/a	n/a	n/a	n/a	n/a	21	7	9	5	n/a	n/a	n/a	n/a	n/a
822387	PROB	n/a	LTP244	ltpFR	9	n/a	n/a	n/a	n/a	n/a	n/a	16	2	6	8	n/a	n/a	n/a	n/a	n/a
824218	PROB	n/a	LTP244	ltpFR	9	n/a	n/a	n/a	n/a	n/a	n/a	15	3	4	9	n/a	n/a	n/a	n/a	n/a
826132	PROB	n/a	LTP244	ltpFR	9	n/a	n/a	n/a	n/a	n/a	n/a	21	5	8	8	n/a	n/a	n/a	n/a	n/a
827979	PROB	n/a	LTP244	ltpFR	9	n/a	n/a	n/a	n/a	n/a	n/a	16	5	7	4	n/a	n/a	n/a	n/a	n/a
829653	STOP	n/a	LTP244	ltpFR	9	n/a	n/a	n/a	n/a	n/a	n/a	n/a	n/a	n/a	n/a	n/a	n/a	n/a	n/a	n/a
831141	WORD	wordpools/wasnorm_wordpool_less_exclusions.txt	LTP244	ltpFR	9	3	0	VIOLA	1570	n/a	1	n/a	0	0	0	0	0.5869140625	0.422607421875	upper	../fonts/zerothre.ttf
834153	START	n/a	LTP244	ltpFR	9	n/a	n/a	n/a	n/a	n/a	n/a	n/a	n/a	n/a	n/a	n/a	n/a	n/a	n/a	n/a
835335	PROB	n/a	LTP244	ltpFR	9	n/a	n/a	n/a	n/a	n/a	n/a	7	3	2	2	n/a	n/a	n/a	n/a	n/a
836849	PROB	n/a	LTP244	ltpFR	9	n/a	n/a	n/a	n/a	n/a	n/a	8	2	5	1	n/a	n/a	n/a	n/a	n/a
838280	PROB	n/a	LTP244	ltpFR	9	n/a	n/a	n/a	n/a	n/a	n/a	10	3	6	1	n/a	n/a	n/a	n/a	n/a
839645	PROB	n/a	LTP244	ltpFR	9	n/a	n/a	n/a	n/a	n/a	n/a	15	5	9	1	n/a	n/a	n/a	n/a	n/a
841875	PROB	n/a	LTP244	ltpFR	9	n/a	n/a	n/a	n/a	n/a	n/a	2	5	8	5	n/a	n/a	n/a	n/a	n/a
843855	PROB	n/a	LTP244	ltpFR	9	n/a	n/a	n/a	n/a	n/a	n/a	15	3	8	4	n/a	n/a	n/a	n/a	n/a
845536	PROB	n/a	LTP244	ltpFR	9	n/a	n/a	n/a	n/a	n/a	n/a	19	7	9	3	n/a	n/a	n/a	n/a	n/a
847982	PROB	n/a	LTP244	ltpFR	9	n/a	n/a	n/a	n/a	n/a	n/a	11	9	1	1	n/a	n/a	n/a	n/a	n/a
849101	STOP	n/a	LTP244	ltpFR	9	n/a	n/a	n/a	n/a	n/a	n/a	n/a	n/a	n/a	n/a	n/a	n/a	n/a	n/a	n/a
851244	WORD	wordpools/wasnorm_wordpool_less_exclusions.txt	LTP244	ltpFR	9	3	0	BAND	78	n/a	0	n/a	0	0	0	0	0.5869140625	0.422607421875	upper	../fonts/zerothre.ttf
854257	START	n/a	LTP244	ltpFR	9	n/a	n/a	n/a	n/a	n/a	n/a	n/a	n/a	n/a	n/a	n/a	n/a	n/a	n/a	n/a
855088	PROB	n/a	LTP244	ltpFR	9	n/a	n/a	n/a	n/a	n/a	n/a	16	8	2	6	n/a	n/a	n/a	n/a	n/a
856403	PROB	n/a	LTP244	ltpFR	9	n/a	n/a	n/a	n/a	n/a	n/a	22	9	4	9	n/a	n/a	n/a	n/a	n/a
858433	PROB	n/a	LTP244	ltpFR	9	n/a	n/a	n/a	n/a	n/a	n/a	19	9	9	1	n/a	n/a	n/a	n/a	n/a
860147	PROB	n/a	LTP244	ltpFR	9	n/a	n/a	n/a	n/a	n/a	n/a	16	7	7	2	n/a	n/a	n/a	n/a	n/a
861463	PROB	n/a	LTP244	ltpFR	9	n/a	n/a	n/a	n/a	n/a	n/a	10	2	3	5	n/a	n/a	n/a	n/a	n/a
862927	PROB	n/a	LTP244	ltpFR	9	n/a	n/a	n/a	n/a	n/a	n/a	8	5	1	2	n/a	n/a	n/a	n/a	n/a
864459	PROB	n/a	LTP244	ltpFR	9	n/a	n/a	n/a	n/a	n/a	n/a	19	7	3	9	n/a	n/a	n/a	n/a	n/a
865872	PROB	n/a	LTP244	ltpFR	9	n/a	n/a	n/a	n/a	n/a	n/a	17	3	9	5	n/a	n/a	n/a	n/a	n/a
867570	PROB	n/a	LTP244	ltpFR	9	n/a	n/a	n/a	n/a	n/a	n/a	16	9	3	4	n/a	n/a	n/a	n/a	n/a
869101	STOP	n/a	LTP244	ltpFR	9	n/a	n/a	n/a	n/a	n/a	n/a	n/a	n/a	n/a	n/a	n/a	n/a	n/a	n/a	n/a
871247	WORD	wordpools/wasnorm_wordpool_less_exclusions.txt	LTP244	ltpFR	9	3	0	POSSUM	1112	n/a	0	n/a	0	0	0	0	0.5869140625	0.422607421875	upper	../fonts/zerothre.ttf
874260	START	n/a	LTP244	ltpFR	9	n/a	n/a	n/a	n/a	n/a	n/a	n/a	n/a	n/a	n/a	n/a	n/a	n/a	n/a	n/a
875242	PROB	n/a	LTP244	ltpFR	9	n/a	n/a	n/a	n/a	n/a	n/a	19	7	5	7	n/a	n/a	n/a	n/a	n/a
876739	PROB	n/a	LTP244	ltpFR	9	n/a	n/a	n/a	n/a	n/a	n/a	10	3	6	1	n/a	n/a	n/a	n/a	n/a
878337	PROB	n/a	LTP244	ltpFR	9	n/a	n/a	n/a	n/a	n/a	n/a	16	8	9	1	n/a	n/a	n/a	n/a	n/a
880168	PROB	n/a	LTP244	ltpFR	9	n/a	n/a	n/a	n/a	n/a	n/a	6	1	4	1	n/a	n/a	n/a	n/a	n/a
881482	PROB	n/a	LTP244	ltpFR	9	n/a	n/a	n/a	n/a	n/a	n/a	9	5	2	2	n/a	n/a	n/a	n/a	n/a
883163	PROB	n/a	LTP244	ltpFR	9	n/a	n/a	n/a	n/a	n/a	n/a	11	4	4	3	n/a	n/a	n/a	n/a	n/a
884694	PROB	n/a	LTP244	ltpFR	9	n/a	n/a	n/a	n/a	n/a	n/a	13	6	5	2	n/a	n/a	n/a	n/a	n/a
886075	PROB	n/a	LTP244	ltpFR	9	n/a	n/a	n/a	n/a	n/a	n/a	20	9	8	3	n/a	n/a	n/a	n/a	n/a
888305	PROB	n/a	LTP244	ltpFR	9	n/a	n/a	n/a	n/a	n/a	n/a	18	8	6	4	n/a	n/a	n/a	n/a	n/a
889901	STOP	n/a	LTP244	ltpFR	9	n/a	n/a	n/a	n/a	n/a	n/a	n/a	n/a	n/a	n/a	n/a	n/a	n/a	n/a	n/a
891118	WORD	wordpools/wasnorm_wordpool_less_exclusions.txt	LTP244	ltpFR	9	3	0	TRIGGER	1507	n/a	0	n/a	0	0	0	0	0.5869140625	0.422607421875	upper	../fonts/zerothre.ttf
894130	START	n/a	LTP244	ltpFR	9	n/a	n/a	n/a	n/a	n/a	n/a	n/a	n/a	n/a	n/a	n/a	n/a	n/a	n/a	n/a
895062	PROB	n/a	LTP244	ltpFR	9	n/a	n/a	n/a	n/a	n/a	n/a	17	7	3	7	n/a	n/a	n/a	n/a	n/a
896526	PROB	n/a	LTP244	ltpFR	9	n/a	n/a	n/a	n/a	n/a	n/a	17	1	7	9	n/a	n/a	n/a	n/a	n/a
898507	PROB	n/a	LTP244	ltpFR	9	n/a	n/a	n/a	n/a	n/a	n/a	18	3	8	7	n/a	n/a	n/a	n/a	n/a
900404	PROB	n/a	LTP244	ltpFR	9	n/a	n/a	n/a	n/a	n/a	n/a	21	5	8	8	n/a	n/a	n/a	n/a	n/a
901968	PROB	n/a	LTP244	ltpFR	9	n/a	n/a	n/a	n/a	n/a	n/a	21	6	7	8	n/a	n/a	n/a	n/a	n/a
904215	PROB	n/a	LTP244	ltpFR	9	n/a	n/a	n/a	n/a	n/a	n/a	17	1	7	9	n/a	n/a	n/a	n/a	n/a
906112	PROB	n/a	LTP244	ltpFR	9	n/a	n/a	n/a	n/a	n/a	n/a	14	5	7	2	n/a	n/a	n/a	n/a	n/a
908525	PROB	n/a	LTP244	ltpFR	9	n/a	n/a	n/a	n/a	n/a	n/a	16	3	4	9	n/a	n/a	n/a	n/a	n/a
910045	STOP	n/a	LTP244	ltpFR	9	n/a	n/a	n/a	n/a	n/a	n/a	n/a	n/a	n/a	n/a	n/a	n/a	n/a	n/a	n/a
911937	REC_START	n/a	LTP244	ltpFR	9	3	n/a	n/a	n/a	n/a	n/a	n/a	0	0	0	n/a	n/a	n/a	n/a	n/a
916157	REC_WORD	wordpools/wasnorm_wordpool_less_exclusions.txt	LTP244	ltpFR	9	3	0	TRIGGER	1507	n/a	0	n/a	0	0	0	n/a	n/a	n/a	n/a	n/a
917105	REC_WORD	wordpools/wasnorm_wordpool_less_exclusions.txt	LTP244	ltpFR	9	3	0	ROOMMATE	1207	n/a	1	n/a	0	0	0	n/a	n/a	n/a	n/a	n/a
930569	REC_WORD	wordpools/wasnorm_wordpool_less_exclusions.txt	LTP244	ltpFR	9	3	0	POSSUM	1112	n/a	0	n/a	0	0	0	n/a	n/a	n/a	n/a	n/a
938202	REC_WORD	wordpools/wasnorm_wordpool_less_exclusions.txt	LTP244	ltpFR	9	3	0	VIOLA	1570	n/a	1	n/a	0	0	0	n/a	n/a	n/a	n/a	n/a
939205	REC_WORD	wordpools/wasnorm_wordpool_less_exclusions.txt	LTP244	ltpFR	9	3	0	BAND	78	n/a	0	n/a	0	0	0	n/a	n/a	n/a	n/a	n/a
989837	WORD	wordpools/wasnorm_wordpool_less_exclusions.txt	LTP244	ltpFR	9	4	0	PAIL	1002	n/a	0	n/a	0	0	0	0	0.5869140625	0.422607421875	upper	../fonts/zerothre.ttf
993765	WORD	wordpools/wasnorm_wordpool_less_exclusions.txt	LTP244	ltpFR	9	4	0	PERCH	1048	n/a	0	n/a	0	0	0	0	0.5869140625	0.422607421875	upper	../fonts/zerothre.ttf
997692	WORD	wordpools/wasnorm_wordpool_less_exclusions.txt	LTP244	ltpFR	9	4	0	CONCRETE	361	n/a	1	n/a	0	0	0	0	0.5869140625	0.422607421875	upper	../fonts/zerothre.ttf
1001869	WORD	wordpools/wasnorm_wordpool_less_exclusions.txt	LTP244	ltpFR	9	4	0	SHRIMP	1297	n/a	0	n/a	0	0	0	0	0.5869140625	0.422607421875	upper	../fonts/zerothre.ttf
1006063	WORD	wordpools/wasnorm_wordpool_less_exclusions.txt	LTP244	ltpFR	9	4	0	DINER	467	n/a	0	n/a	0	0	0	0	0.5869140625	0.422607421875	upper	../fonts/zerothre.ttf
1010157	WORD	wordpools/wasnorm_wordpool_less_exclusions.txt	LTP244	ltpFR	9	4	0	PLAZA	1088	n/a	1	n/a	0	0	0	0	0.5869140625	0.422607421875	upper	../fonts/zerothre.ttf
1014317	WORD	wordpools/wasnorm_wordpool_less_exclusions.txt	LTP244	ltpFR	9	4	0	STORE	1387	n/a	1	n/a	0	0	0	0	0.5869140625	0.422607421875	upper	../fonts/zerothre.ttf
1018261	WORD	wordpools/wasnorm_wordpool_less_exclusions.txt	LTP244	ltpFR	9	4	0	APPENDAGE	32	n/a	1	n/a	0	0	0	0	0.5869140625	0.422607421875	upper	../fonts/zerothre.ttf
1022439	WORD	wordpools/wasnorm_wordpool_less_exclusions.txt	LTP244	ltpFR	9	4	0	ELM	527	n/a	1	n/a	0	0	0	0	0.5869140625	0.422607421875	upper	../fonts/zerothre.ttf
1026532	WORD	wordpools/wasnorm_wordpool_less_exclusions.txt	LTP244	ltpFR	9	4	0	MAPLE	866	n/a	1	n/a	0	0	0	0	0.5869140625	0.422607421875	upper	../fonts/zerothre.ttf
1030543	WORD	wordpools/wasnorm_wordpool_less_exclusions.txt	LTP244	ltpFR	9	4	0	CORAL	378	n/a	1	n/a	0	0	0	0	0.5869140625	0.422607421875	upper	../fonts/zerothre.ttf
1034554	WORD	wordpools/wasnorm_wordpool_less_exclusions.txt	LTP244	ltpFR	9	4	0	STEAM	1375	n/a	1	n/a	0	0	0	0	0.5869140625	0.422607421875	upper	../fonts/zerothre.ttf
1038465	WORD	wordpools/wasnorm_wordpool_less_exclusions.txt	LTP244	ltpFR	9	4	0	OLIVE	975	n/a	0	n/a	0	0	0	0	0.5869140625	0.422607421875	upper	../fonts/zerothre.ttf
1042425	WORD	wordpools/wasnorm_wordpool_less_exclusions.txt	LTP244	ltpFR	9	4	0	THIGH	1457	n/a	1	n/a	0	0	0	0	0.5869140625	0.422607421875	upper	../fonts/zerothre.ttf
1046586	WORD	wordpools/wasnorm_wordpool_less_exclusions.txt	LTP244	ltpFR	9	4	0	AIRPLANE	12	n/a	1	n/a	0	0	0	0	0.5869140625	0.422607421875	upper	../fonts/zerothre.ttf
1050448	WORD	wordpools/wasnorm_wordpool_less_exclusions.txt	LTP244	ltpFR	9	4	0	MARINE	869	n/a	1	n/a	0	0	0	0	0.5869140625	0.422607421875	upper	../fonts/zerothre.ttf
1053460	START	n/a	LTP244	ltpFR	9	n/a	n/a	n/a	n/a	n/a	n/a	n/a	n/a	n/a	n/a	n/a	n/a	n/a	n/a	n/a
1054424	PROB	n/a	LTP244	ltpFR	9	n/a	n/a	n/a	n/a	n/a	n/a	5	1	2	2	n/a	n/a	n/a	n/a	n/a
1056022	PROB	n/a	LTP244	ltpFR	9	n/a	n/a	n/a	n/a	n/a	n/a	10	1	4	5	n/a	n/a	n/a	n/a	n/a
1057802	PROB	n/a	LTP244	ltpFR	9	n/a	n/a	n/a	n/a	n/a	n/a	1	1	2	6	n/a	n/a	n/a	n/a	n/a
1059300	PROB	n/a	LTP244	ltpFR	9	n/a	n/a	n/a	n/a	n/a	n/a	6	2	2	2	n/a	n/a	n/a	n/a	n/a
1060498	PROB	n/a	LTP244	ltpFR	9	n/a	n/a	n/a	n/a	n/a	n/a	12	3	2	7	n/a	n/a	n/a	n/a	n/a
1062345	PROB	n/a	LTP244	ltpFR	9	n/a	n/a	n/a	n/a	n/a	n/a	23	9	5	9	n/a	n/a	n/a	n/a	n/a
1064209	PROB	n/a	LTP244	ltpFR	9	n/a	n/a	n/a	n/a	n/a	n/a	16	6	2	8	n/a	n/a	n/a	n/a	n/a
1065907	PROB	n/a	LTP244	ltpFR	9	n/a	n/a	n/a	n/a	n/a	n/a	14	6	3	5	n/a	n/a	n/a	n/a	n/a
1067388	PROB	n/a	LTP244	ltpFR	9	n/a	n/a	n/a	n/a	n/a	n/a	6	2	2	2	n/a	n/a	n/a	n/a	n/a
1068293	STOP	n/a	LTP244	ltpFR	9	n/a	n/a	n/a	n/a	n/a	n/a	n/a	n/a	n/a	n/a	n/a	n/a	n/a	n/a	n/a
1071299	REC_START	n/a	LTP244	ltpFR	9	4	n/a	n/a	n/a	n/a	n/a	n/a	0	0	0	n/a	n/a	n/a	n/a	n/a
1072366	REC_WORD	wordpools/wasnorm_wordpool_less_exclusions.txt	LTP244	ltpFR	9	4	0	APPENDAGE	32	n/a	1	n/a	0	0	0	n/a	n/a	n/a	n/a	n/a
1073309	REC_WORD	wordpools/wasnorm_wordpool_less_exclusions.txt	LTP244	ltpFR	9	4	0	ELM	527	n/a	1	n/a	0	0	0	n/a	n/a	n/a	n/a	n/a
1075993	REC_WORD	wordpools/wasnorm_wordpool_less_exclusions.txt	LTP244	ltpFR	9	4	0	MAPLE	866	n/a	1	n/a	0	0	0	n/a	n/a	n/a	n/a	n/a
1076776	REC_WORD	wordpools/wasnorm_wordpool_less_exclusions.txt	LTP244	ltpFR	9	4	0	OLIVE	975	n/a	0	n/a	0	0	0	n/a	n/a	n/a	n/a	n/a
1078936	REC_WORD	wordpools/wasnorm_wordpool_less_exclusions.txt	LTP244	ltpFR	9	4	0	MARINE	869	n/a	1	n/a	0	0	0	n/a	n/a	n/a	n/a	n/a
1081955	REC_WORD	wordpools/wasnorm_wordpool_less_exclusions.txt	LTP244	ltpFR	9	4	0	PERCH	1048	n/a	0	n/a	0	0	0	n/a	n/a	n/a	n/a	n/a
1092680	REC_WORD	wordpools/wasnorm_wordpool_less_exclusions.txt	LTP244	ltpFR	9	4	0	AIRPLANE	12	n/a	1	n/a	0	0	0	n/a	n/a	n/a	n/a	n/a
1095653	REC_WORD	wordpools/wasnorm_wordpool_less_exclusions.txt	LTP244	ltpFR	9	4	0	DINER	467	n/a	0	n/a	0	0	0	n/a	n/a	n/a	n/a	n/a
1096721	REC_WORD	wordpools/wasnorm_wordpool_less_exclusions.txt	LTP244	ltpFR	9	4	0	PLAZA	1088	n/a	1	n/a	0	0	0	n/a	n/a	n/a	n/a	n/a
1097809	REC_WORD	wordpools/wasnorm_wordpool_less_exclusions.txt	LTP244	ltpFR	9	4	0	STORE	1387	n/a	1	n/a	0	0	0	n/a	n/a	n/a	n/a	n/a
1107102	REC_WORD	wordpools/wasnorm_wordpool_less_exclusions.txt	LTP244	ltpFR	9	4	0	THIGH	1457	n/a	1	n/a	0	0	0	n/a	n/a	n/a	n/a	n/a
1184097	WORD	wordpools/wasnorm_wordpool_less_exclusions.txt	LTP244	ltpFR	9	5	0	BROOK	177	n/a	1	n/a	0	0	0	0	0.5869140625	0.422607421875	upper	../fonts/zerothre.ttf
1188041	WORD	wordpools/wasnorm_wordpool_less_exclusions.txt	LTP244	ltpFR	9	5	0	GREASE	660	n/a	0	n/a	0	0	0	0	0.5869140625	0.422607421875	upper	../fonts/zerothre.ttf
1192068	WORD	wordpools/wasnorm_wordpool_less_exclusions.txt	LTP244	ltpFR	9	5	0	JAM	748	n/a	0	n/a	0	0	0	0	0.5869140625	0.422607421875	upper	../fonts/zerothre.ttf
1196262	WORD	wordpools/wasnorm_wordpool_less_exclusions.txt	LTP244	ltpFR	9	5	0	CUB	419	n/a	1	n/a	0	0	0	0	0.5869140625	0.422607421875	upper	../fonts/zerothre.ttf
1200406	WORD	wordpools/wasnorm_wordpool_less_exclusions.txt	LTP244	ltpFR	9	5	1	STRAW	1390	n/a	0	n/a	0	0	0	1	0.412841796875	0.57763671875	lower	../fonts/amplitud.ttf
1204333	WORD	wordpools/wasnorm_wordpool_less_exclusions.txt	LTP244	ltpFR	9	5	1	SWIMMER	1420	n/a	1	n/a	0	0	0	1	0.412841796875	0.57763671875	lower	../fonts/amplitud.ttf
1208194	WORD	wordpools/wasnorm_wordpool_less_exclusions.txt	LTP244	ltpFR	9	5	1	FOUNTAIN	597	n/a	0	n/a	0	0	0	1	0.412841796875	0.57763671875	lower	../fonts/amplitud.ttf
1212039	WORD	wordpools/wasnorm_wordpool_less_exclusions.txt	LTP244	ltpFR	9	5	1	LOCK	838	n/a	0	n/a	0	0	0	1	0.412841796875	0.57763671875	lower	../fonts/amplitud.ttf
1216049	WORD	wordpools/wasnorm_wordpool_less_exclusions.txt	LTP244	ltpFR	9	5	0	TOOTHBRUSH	1482	n/a	0	n/a	0	0	0	0	0.5869140625	0.422607421875	upper	../fonts/zerothre.ttf
1220093	WORD	wordpools/wasnorm_wordpool_less_exclusions.txt	LTP244	ltpFR	9	5	0	DIAMOND	458	n/a	0	n/a	0	0	0	0	0.5869140625	0.422607421875	upper	../fonts/zerothre.ttf
1224220	WORD	wordpools/wasnorm_wordpool_less_exclusions.txt	LTP244	ltpFR	9	5	0	BEAD	103	n/a	0	n/a	0	0	0	0	0.5869140625	0.422607421875	upper	../fonts/zerothre.ttf
1228214	WORD	wordpools/wasnorm_wordpool_less_exclusions.txt	LTP244	ltpFR	9	5	0	VESSEL	1558	n/a	1	n/a	0	0	0	0	0.5869140625	0.422607421875	upper	../fonts/zerothre.ttf
1232292	WORD	wordpools/wasnorm_wordpool_less_exclusions.txt	LTP244	ltpFR	9	5	1	MAGICIAN	854	n/a	1	n/a	0	0	0	1	0.412841796875	0.57763671875	lower	../fonts/amplitud.ttf
1236319	WORD	wordpools/wasnorm_wordpool_less_exclusions.txt	LTP244	ltpFR	9	5	1	BARRACUDA	90	n/a	1	n/a	0	0	0	1	0.412841796875	0.57763671875	lower	../fonts/amplitud.ttf
1240280	WORD	wordpools/wasnorm_wordpool_less_exclusions.txt	LTP244	ltpFR	9	5	1	REEF	1177	n/a	1	n/a	0	0	0	1	0.412841796875	0.57763671875	lower	../fonts/amplitud.ttf
1244490	WORD	wordpools/wasnorm_wordpool_less_exclusions.txt	LTP244	ltpFR	9	5	1	DOCK	477	n/a	0	n/a	0	0	0	1	0.412841796875	0.57763671875	lower	../fonts/amplitud.ttf
1250249	REC_START	n/a	LTP244	ltpFR	9	5	n/a	n/a	n/a	n/a	n/a	n/a	0	0	0	n/a	n/a	n/a	n/a	n/a
1251536	REC_WORD	wordpools/wasnorm_wordpool_less_exclusions.txt	LTP244	ltpFR	9	5	n/a	DUCK	504	n/a	n/a	n/a	0	0	0	n/a	n/a	n/a	n/a	n/a
1252169	REC_WORD	wordpools/wasnorm_wordpool_less_exclusions.txt	LTP244	ltpFR	9	5	0	VESSEL	1558	n/a	1	n/a	0	0	0	n/a	n/a	n/a	n/a	n/a
1252878	REC_WORD	wordpools/wasnorm_wordpool_less_exclusions.txt	LTP244	ltpFR	9	5	1	BARRACUDA	90	n/a	1	n/a	0	0	0	n/a	n/a	n/a	n/a	n/a
1253736	REC_WORD	wordpools/wasnorm_wordpool_less_exclusions.txt	LTP244	ltpFR	9	5	1	MAGICIAN	854	n/a	1	n/a	0	0	0	n/a	n/a	n/a	n/a	n/a
1254563	REC_WORD	wordpools/wasnorm_wordpool_less_exclusions.txt	LTP244	ltpFR	9	5	1	SWIMMER	1420	n/a	1	n/a	0	0	0	n/a	n/a	n/a	n/a	n/a
1255261	REC_WORD	wordpools/wasnorm_wordpool_less_exclusions.txt	LTP244	ltpFR	9	5	1	FOUNTAIN	597	n/a	0	n/a	0	0	0	n/a	n/a	n/a	n/a	n/a
1258540	REC_WORD	wordpools/wasnorm_wordpool_less_exclusions.txt	LTP244	ltpFR	9	5	1	STRAW	1390	n/a	0	n/a	0	0	0	n/a	n/a	n/a	n/a	n/a
1260640	REC_WORD	wordpools/wasnorm_wordpool_less_exclusions.txt	LTP244	ltpFR	9	5	0	GREASE	660	n/a	0	n/a	0	0	0	n/a	n/a	n/a	n/a	n/a
1261523	REC_WORD	wordpools/wasnorm_wordpool_less_exclusions.txt	LTP244	ltpFR	9	5	0	CUB	419	n/a	1	n/a	0	0	0	n/a	n/a	n/a	n/a	n/a
1289480	REC_WORD	wordpools/wasnorm_wordpool_less_exclusions.txt	LTP244	ltpFR	9	5	0	TOOTHBRUSH	1482	n/a	0	n/a	0	0	0	n/a	n/a	n/a	n/a	n/a
1346654	WORD	wordpools/wasnorm_wordpool_less_exclusions.txt	LTP244	ltpFR	9	6	1	CRITIC	410	n/a	1	n/a	0	0	0	1	0.412841796875	0.57763671875	lower	../fonts/amplitud.ttf
1350765	WORD	wordpools/wasnorm_wordpool_less_exclusions.txt	LTP244	ltpFR	9	6	1	CUP	424	n/a	0	n/a	0	0	0	1	0.412841796875	0.57763671875	lower	../fonts/amplitud.ttf
1354809	WORD	wordpools/wasnorm_wordpool_less_exclusions.txt	LTP244	ltpFR	9	6	1	BROCCOLI	176	n/a	1	n/a	0	0	0	1	0.412841796875	0.57763671875	lower	../fonts/amplitud.ttf
1358769	WORD	wordpools/wasnorm_wordpool_less_exclusions.txt	LTP244	ltpFR	9	6	1	SAUSAGE	1238	n/a	0	n/a	0	0	0	1	0.412841796875	0.57763671875	lower	../fonts/amplitud.ttf
1362863	WORD	wordpools/wasnorm_wordpool_less_exclusions.txt	LTP244	ltpFR	9	6	1	CROW	414	n/a	1	n/a	0	0	0	1	0.412841796875	0.57763671875	lower	../fonts/amplitud.ttf
1366891	WORD	wordpools/wasnorm_wordpool_less_exclusions.txt	LTP244	ltpFR	9	6	1	BISON	131	n/a	1	n/a	0	0	0	1	0.412841796875	0.57763671875	lower	../fonts/amplitud.ttf
1370835	WORD	wordpools/wasnorm_wordpool_less_exclusions.txt	LTP244	ltpFR	9	6	1	TANGERINE	1431	n/a	1	n/a	0	0	0	1	0.412841796875	0.57763671875	lower	../fonts/amplitud.ttf
1374995	WORD	wordpools/wasnorm_wordpool_less_exclusions.txt	LTP244	ltpFR	9	6	1	PEAR	1033	n/a	1	n/a	0	0	0	1	0.412841796875	0.57763671875	lower	../fonts/amplitud.ttf
1379139	WORD	wordpools/wasnorm_wordpool_less_exclusions.txt	LTP244	ltpFR	9	6	1	CAPTAIN	239	n/a	1	n/a	0	0	0	1	0.412841796875	0.57763671875	lower	../fonts/amplitud.ttf
1383183	WORD	wordpools/wasnorm_wordpool_less_exclusions.txt	LTP244	ltpFR	9	6	1	CONDUCTOR	362	n/a	1	n/a	0	0	0	1	0.412841796875	0.57763671875	lower	../fonts/amplitud.ttf
1387027	WORD	wordpools/wasnorm_wordpool_less_exclusions.txt	LTP244	ltpFR	9	6	1	RADIO	1157	n/a	0	n/a	0	0	0	1	0.412841796875	0.57763671875	lower	../fonts/amplitud.ttf
1391138	WORD	wordpools/wasnorm_wordpool_less_exclusions.txt	LTP244	ltpFR	9	6	1	GAVEL	627	n/a	0	n/a	0	0	0	1	0.412841796875	0.57763671875	lower	../fonts/amplitud.ttf
1395065	WORD	wordpools/wasnorm_wordpool_less_exclusions.txt	LTP244	ltpFR	9	6	1	OWL	992	n/a	1	n/a	0	0	0	1	0.412841796875	0.57763671875	lower	../fonts/amplitud.ttf
1399192	WORD	wordpools/wasnorm_wordpool_less_exclusions.txt	LTP244	ltpFR	9	6	1	INCENSE	735	n/a	0	n/a	0	0	0	1	0.412841796875	0.57763671875	lower	../fonts/amplitud.ttf
1403286	WORD	wordpools/wasnorm_wordpool_less_exclusions.txt	LTP244	ltpFR	9	6	1	WITNESS	1618	n/a	1	n/a	0	0	0	1	0.412841796875	0.57763671875	lower	../fonts/amplitud.ttf
1407497	WORD	wordpools/wasnorm_wordpool_less_exclusions.txt	LTP244	ltpFR	9	6	1	HERD	705	n/a	0	n/a	0	0	0	1	0.412841796875	0.57763671875	lower	../fonts/amplitud.ttf
1410509	START	n/a	LTP244	ltpFR	9	n/a	n/a	n/a	n/a	n/a	n/a	n/a	n/a	n/a	n/a	n/a	n/a	n/a	n/a	n/a
1411474	PROB	n/a	LTP244	ltpFR	9	n/a	n/a	n/a	n/a	n/a	n/a	123	4	9	3	n/a	n/a	n/a	n/a	n/a
1414353	PROB	n/a	LTP244	ltpFR	9	n/a	n/a	n/a	n/a	n/a	n/a	13	3	7	3	n/a	n/a	n/a	n/a	n/a
1415917	PROB	n/a	LTP244	ltpFR	9	n/a	n/a	n/a	n/a	n/a	n/a	24	9	7	8	n/a	n/a	n/a	n/a	n/a
1417853	STOP	n/a	LTP244	ltpFR	9	n/a	n/a	n/a	n/a	n/a	n/a	n/a	n/a	n/a	n/a	n/a	n/a	n/a	n/a	n/a
1420311	REC_START	n/a	LTP244	ltpFR	9	6	n/a	n/a	n/a	n/a	n/a	n/a	0	0	0	n/a	n/a	n/a	n/a	n/a
1423274	REC_WORD	wordpools/wasnorm_wordpool_less_exclusions.txt	LTP244	ltpFR	9	6	1	HERD	705	n/a	0	n/a	0	0	0	n/a	n/a	n/a	n/a	n/a
1424486	REC_WORD	wordpools/wasnorm_wordpool_less_exclusions.txt	LTP244	ltpFR	9	6	1	BISON	131	n/a	1	n/a	0	0	0	n/a	n/a	n/a	n/a	n/a
1427285	REC_WORD	wordpools/wasnorm_wordpool_less_exclusions.txt	LTP244	ltpFR	9	6	1	WITNESS	1618	n/a	1	n/a	0	0	0	n/a	n/a	n/a	n/a	n/a
1434798	REC_WORD	wordpools/wasnorm_wordpool_less_exclusions.txt	LTP244	ltpFR	9	6	1	CAPTAIN	239	n/a	1	n/a	0	0	0	n/a	n/a	n/a	n/a	n/a
1437287	REC_WORD	wordpools/wasnorm_wordpool_less_exclusions.txt	LTP244	ltpFR	9	6	1	BROCCOLI	176	n/a	1	n/a	0	0	0	n/a	n/a	n/a	n/a	n/a
1438450	REC_WORD	wordpools/wasnorm_wordpool_less_exclusions.txt	LTP244	ltpFR	9	6	1	SAUSAGE	1238	n/a	0	n/a	0	0	0	n/a	n/a	n/a	n/a	n/a
1439450	REC_WORD_VV	wordpools/wasnorm_wordpool_less_exclusions.txt	LTP244	ltpFR	9	6	n/a	<>	-1	n/a	n/a	n/a	0	0	0	n/a	n/a	n/a	n/a	n/a
1447120	REC_WORD	wordpools/wasnorm_wordpool_less_exclusions.txt	LTP244	ltpFR	9	6	0	CORAL	378	n/a	1	n/a	0	0	0	n/a	n/a	n/a	n/a	n/a
1455401	REC_WORD	wordpools/wasnorm_wordpool_less_exclusions.txt	LTP244	ltpFR	9	6	1	REEF	1177	n/a	1	n/a	0	0	0	n/a	n/a	n/a	n/a	n/a
1456259	REC_WORD	wordpools/wasnorm_wordpool_less_exclusions.txt	LTP244	ltpFR	9	6	1	BARRACUDA	90	n/a	1	n/a	0	0	0	n/a	n/a	n/a	n/a	n/a
1459781	REC_WORD	wordpools/wasnorm_wordpool_less_exclusions.txt	LTP244	ltpFR	9	6	1	CROW	414	n/a	1	n/a	0	0	0	n/a	n/a	n/a	n/a	n/a
1517400	START	n/a	LTP244	ltpFR	9	n/a	n/a	n/a	n/a	n/a	n/a	n/a	n/a	n/a	n/a	n/a	n/a	n/a	n/a	n/a
1518914	PROB	n/a	LTP244	ltpFR	9	n/a	n/a	n/a	n/a	n/a	n/a	12	3	3	6	n/a	n/a	n/a	n/a	n/a
1520794	PROB	n/a	LTP244	ltpFR	9	n/a	n/a	n/a	n/a	n/a	n/a	22	8	4	8	n/a	n/a	n/a	n/a	n/a
1522375	PROB	n/a	LTP244	ltpFR	9	n/a	n/a	n/a	n/a	n/a	n/a	15	5	7	3	n/a	n/a	n/a	n/a	n/a
1525400	STOP	n/a	LTP244	ltpFR	9	n/a	n/a	n/a	n/a	n/a	n/a	n/a	n/a	n/a	n/a	n/a	n/a	n/a	n/a	n/a
1526437	WORD	wordpools/wasnorm_wordpool_less_exclusions.txt	LTP244	ltpFR	9	7	0	SHRUB	1299	n/a	0	n/a	0	0	0	0	0.5869140625	0.422607421875	upper	../fonts/zerothre.ttf
1529449	START	n/a	LTP244	ltpFR	9	n/a	n/a	n/a	n/a	n/a	n/a	n/a	n/a	n/a	n/a	n/a	n/a	n/a	n/a	n/a
1530546	PROB	n/a	LTP244	ltpFR	9	n/a	n/a	n/a	n/a	n/a	n/a	13	9	3	1	n/a	n/a	n/a	n/a	n/a
1531994	PROB	n/a	LTP244	ltpFR	9	n/a	n/a	n/a	n/a	n/a	n/a	15	4	4	7	n/a	n/a	n/a	n/a	n/a
1534191	PROB	n/a	LTP244	ltpFR	9	n/a	n/a	n/a	n/a	n/a	n/a	19	9	2	8	n/a	n/a	n/a	n/a	n/a
1537448	STOP	n/a	LTP244	ltpFR	9	n/a	n/a	n/a	n/a	n/a	n/a	n/a	n/a	n/a	n/a	n/a	n/a	n/a	n/a	n/a
1538501	WORD	wordpools/wasnorm_wordpool_less_exclusions.txt	LTP244	ltpFR	9	7	0	FRECKLE	602	n/a	0	n/a	0	0	0	0	0.5869140625	0.422607421875	upper	../fonts/zerothre.ttf
1541514	START	n/a	LTP244	ltpFR	9	n/a	n/a	n/a	n/a	n/a	n/a	n/a	n/a	n/a	n/a	n/a	n/a	n/a	n/a	n/a
1542362	PROB	n/a	LTP244	ltpFR	9	n/a	n/a	n/a	n/a	n/a	n/a	15	3	5	7	n/a	n/a	n/a	n/a	n/a
1543793	PROB	n/a	LTP244	ltpFR	9	n/a	n/a	n/a	n/a	n/a	n/a	15	5	6	4	n/a	n/a	n/a	n/a	n/a
1545274	PROB	n/a	LTP244	ltpFR	9	n/a	n/a	n/a	n/a	n/a	n/a	156	2	9	4	n/a	n/a	n/a	n/a	n/a
1547171	PROB	n/a	LTP244	ltpFR	9	n/a	n/a	n/a	n/a	n/a	n/a	15	3	8	4	n/a	n/a	n/a	n/a	n/a
1549269	STOP	n/a	LTP244	ltpFR	9	n/a	n/a	n/a	n/a	n/a	n/a	n/a	n/a	n/a	n/a	n/a	n/a	n/a	n/a	n/a
1550468	WORD	wordpools/wasnorm_wordpool_less_exclusions.txt	LTP244	ltpFR	9	7	0	GRAVEL	659	n/a	0	n/a	0	0	0	0	0.5869140625	0.422607421875	upper	../fonts/zerothre.ttf
1553479	START	n/a	LTP244	ltpFR	9	n/a	n/a	n/a	n/a	n/a	n/a	n/a	n/a	n/a	n/a	n/a	n/a	n/a	n/a	n/a
1554544	PROB	n/a	LTP244	ltpFR	9	n/a	n/a	n/a	n/a	n/a	n/a	13	8	1	4	n/a	n/a	n/a	n/a	n/a
1556092	PROB	n/a	LTP244	ltpFR	9	n/a	n/a	n/a	n/a	n/a	n/a	20	6	5	9	n/a	n/a	n/a	n/a	n/a
1557806	PROB	n/a	LTP244	ltpFR	9	n/a	n/a	n/a	n/a	n/a	n/a	20	5	7	8	n/a	n/a	n/a	n/a	n/a
1559653	PROB	n/a	LTP244	ltpFR	9	n/a	n/a	n/a	n/a	n/a	n/a	20	9	1	8	n/a	n/a	n/a	n/a	n/a
1560845	STOP	n/a	LTP244	ltpFR	9	n/a	n/a	n/a	n/a	n/a	n/a	n/a	n/a	n/a	n/a	n/a	n/a	n/a	n/a	n/a
1562548	WORD	wordpools/wasnorm_wordpool_less_exclusions.txt	LTP244	ltpFR	9	7	0	PERISCOPE	1050	n/a	0	n/a	0	0	0	0	0.5869140625	0.422607421875	upper	../fonts/zerothre.ttf
1565561	START	n/a	LTP244	ltpFR	9	n/a	n/a	n/a	n/a	n/a	n/a	n/a	n/a	n/a	n/a	n/a	n/a	n/a	n/a	n/a
1566626	PROB	n/a	LTP244	ltpFR	9	n/a	n/a	n/a	n/a	n/a	n/a	21	5	8	8	n/a	n/a	n/a	n/a	n/a
1568906	PROB	n/a	LTP244	ltpFR	9	n/a	n/a	n/a	n/a	n/a	n/a	18	9	8	1	n/a	n/a	n/a	n/a	n/a
1570736	PROB	n/a	LTP244	ltpFR	9	n/a	n/a	n/a	n/a	n/a	n/a	10	7	1	2	n/a	n/a	n/a	n/a	n/a
1573029	STOP	n/a	LTP244	ltpFR	9	n/a	n/a	n/a	n/a	n/a	n/a	n/a	n/a	n/a	n/a	n/a	n/a	n/a	n/a	n/a
1574747	WORD	wordpools/wasnorm_wordpool_less_exclusions.txt	LTP244	ltpFR	9	7	0	PEDAL	1037	n/a	0	n/a	0	0	0	0	0.5869140625	0.422607421875	upper	../fonts/zerothre.ttf
1577759	START	n/a	LTP244	ltpFR	9	n/a	n/a	n/a	n/a	n/a	n/a	n/a	n/a	n/a	n/a	n/a	n/a	n/a	n/a	n/a
1578924	PROB	n/a	LTP244	ltpFR	9	n/a	n/a	n/a	n/a	n/a	n/a	13	2	7	4	n/a	n/a	n/a	n/a	n/a
1580305	PROB	n/a	LTP244	ltpFR	9	n/a	n/a	n/a	n/a	n/a	n/a	12	4	3	5	n/a	n/a	n/a	n/a	n/a
1581969	PROB	n/a	LTP244	ltpFR	9	n/a	n/a	n/a	n/a	n/a	n/a	8	5	1	2	n/a	n/a	n/a	n/a	n/a
1585759	STOP	n/a	LTP244	ltpFR	9	n/a	n/a	n/a	n/a	n/a	n/a	n/a	n/a	n/a	n/a	n/a	n/a	n/a	n/a	n/a
1586929	WORD	wordpools/wasnorm_wordpool_less_exclusions.txt	LTP244	ltpFR	9	7	0	STICKER	1382	n/a	0	n/a	0	0	0	0	0.5869140625	0.422607421875	upper	../fonts/zerothre.ttf
1589941	START	n/a	LTP244	ltpFR	9	n/a	n/a	n/a	n/a	n/a	n/a	n/a	n/a	n/a	n/a	n/a	n/a	n/a	n/a	n/a
1591072	PROB	n/a	LTP244	ltpFR	9	n/a	n/a	n/a	n/a	n/a	n/a	20	5	7	8	n/a	n/a	n/a	n/a	n/a
1592770	PROB	n/a	LTP244	ltpFR	9	n/a	n/a	n/a	n/a	n/a	n/a	24	8	7	9	n/a	n/a	n/a	n/a	n/a
1594817	PROB	n/a	LTP244	ltpFR	9	n/a	n/a	n/a	n/a	n/a	n/a	10	6	1	3	n/a	n/a	n/a	n/a	n/a
1596549	STOP	n/a	LTP244	ltpFR	9	n/a	n/a	n/a	n/a	n/a	n/a	n/a	n/a	n/a	n/a	n/a	n/a	n/a	n/a	n/a
1598961	WORD	wordpools/wasnorm_wordpool_less_exclusions.txt	LTP244	ltpFR	9	7	0	PARCEL	1012	n/a	0	n/a	0	0	0	0	0.5869140625	0.422607421875	upper	../fonts/zerothre.ttf
1601973	START	n/a	LTP244	ltpFR	9	n/a	n/a	n/a	n/a	n/a	n/a	n/a	n/a	n/a	n/a	n/a	n/a	n/a	n/a	n/a
1602921	PROB	n/a	LTP244	ltpFR	9	n/a	n/a	n/a	n/a	n/a	n/a	26	5	3	8	n/a	n/a	n/a	n/a	n/a
1605035	PROB	n/a	LTP244	ltpFR	9	n/a	n/a	n/a	n/a	n/a	n/a	15	6	1	8	n/a	n/a	n/a	n/a	n/a
1607381	PROB	n/a	LTP244	ltpFR	9	n/a	n/a	n/a	n/a	n/a	n/a	11	1	6	4	n/a	n/a	n/a	n/a	n/a
1609005	STOP	n/a	LTP244	ltpFR	9	n/a	n/a	n/a	n/a	n/a	n/a	n/a	n/a	n/a	n/a	n/a	n/a	n/a	n/a	n/a
1610810	WORD	wordpools/wasnorm_wordpool_less_exclusions.txt	LTP244	ltpFR	9	7	0	SHORTS	1293	n/a	0	n/a	0	0	0	0	0.5869140625	0.422607421875	upper	../fonts/zerothre.ttf
1613822	START	n/a	LTP244	ltpFR	9	n/a	n/a	n/a	n/a	n/a	n/a	n/a	n/a	n/a	n/a	n/a	n/a	n/a	n/a	n/a
1614737	PROB	n/a	LTP244	ltpFR	9	n/a	n/a	n/a	n/a	n/a	n/a	16	6	8	2	n/a	n/a	n/a	n/a	n/a
1616368	PROB	n/a	LTP244	ltpFR	9	n/a	n/a	n/a	n/a	n/a	n/a	15	4	5	6	n/a	n/a	n/a	n/a	n/a
1617816	PROB	n/a	LTP244	ltpFR	9	n/a	n/a	n/a	n/a	n/a	n/a	19	5	7	7	n/a	n/a	n/a	n/a	n/a
1619547	PROB	n/a	LTP244	ltpFR	9	n/a	n/a	n/a	n/a	n/a	n/a	23	8	6	9	n/a	n/a	n/a	n/a	n/a
1621205	STOP	n/a	LTP244	ltpFR	9	n/a	n/a	n/a	n/a	n/a	n/a	n/a	n/a	n/a	n/a	n/a	n/a	n/a	n/a	n/a
1622758	WORD	wordpools/wasnorm_wordpool_less_exclusions.txt	LTP244	ltpFR	9	7	0	COURSE	390	n/a	1	n/a	0	0	0	0	0.5869140625	0.422607421875	upper	../fonts/zerothre.ttf
1625771	START	n/a	LTP244	ltpFR	9	n/a	n/a	n/a	n/a	n/a	n/a	n/a	n/a	n/a	n/a	n/a	n/a	n/a	n/a	n/a
1626786	PROB	n/a	LTP244	ltpFR	9	n/a	n/a	n/a	n/a	n/a	n/a	10	5	1	4	n/a	n/a	n/a	n/a	n/a
1628234	PROB	n/a	LTP244	ltpFR	9	n/a	n/a	n/a	n/a	n/a	n/a	17	9	3	7	n/a	n/a	n/a	n/a	n/a
1630048	PROB	n/a	LTP244	ltpFR	9	n/a	n/a	n/a	n/a	n/a	n/a	9	3	1	2	n/a	n/a	n/a	n/a	n/a
1633771	STOP	n/a	LTP244	ltpFR	9	n/a	n/a	n/a	n/a	n/a	n/a	n/a	n/a	n/a	n/a	n/a	n/a	n/a	n/a	n/a
1634657	WORD	wordpools/wasnorm_wordpool_less_exclusions.txt	LTP244	ltpFR	9	7	0	BOLT	146	n/a	0	n/a	0	0	0	0	0.5869140625	0.422607421875	upper	../fonts/zerothre.ttf
1637670	START	n/a	LTP244	ltpFR	9	n/a	n/a	n/a	n/a	n/a	n/a	n/a	n/a	n/a	n/a	n/a	n/a	n/a	n/a	n/a
1638685	PROB	n/a	LTP244	ltpFR	9	n/a	n/a	n/a	n/a	n/a	n/a	14	3	9	2	n/a	n/a	n/a	n/a	n/a
1640865	PROB	n/a	LTP244	ltpFR	9	n/a	n/a	n/a	n/a	n/a	n/a	16	7	5	4	n/a	n/a	n/a	n/a	n/a
1642329	PROB	n/a	LTP244	ltpFR	9	n/a	n/a	n/a	n/a	n/a	n/a	14	2	5	7	n/a	n/a	n/a	n/a	n/a
1643827	PROB	n/a	LTP244	ltpFR	9	n/a	n/a	n/a	n/a	n/a	n/a	12	4	5	3	n/a	n/a	n/a	n/a	n/a
1645101	STOP	n/a	LTP244	ltpFR	9	n/a	n/a	n/a	n/a	n/a	n/a	n/a	n/a	n/a	n/a	n/a	n/a	n/a	n/a	n/a
1646789	WORD	wordpools/wasnorm_wordpool_less_exclusions.txt	LTP244	ltpFR	9	7	0	OFFICE	972	n/a	1	n/a	0	0	0	0	0.5869140625	0.422607421875	upper	../fonts/zerothre.ttf
1649802	START	n/a	LTP244	ltpFR	9	n/a	n/a	n/a	n/a	n/a	n/a	n/a	n/a	n/a	n/a	n/a	n/a	n/a	n/a	n/a
1650750	PROB	n/a	LTP244	ltpFR	9	n/a	n/a	n/a	n/a	n/a	n/a	12	6	5	1	n/a	n/a	n/a	n/a	n/a
1652081	PROB	n/a	LTP244	ltpFR	9	n/a	n/a	n/a	n/a	n/a	n/a	14	2	9	3	n/a	n/a	n/a	n/a	n/a
1654411	PROB	n/a	LTP244	ltpFR	9	n/a	n/a	n/a	n/a	n/a	n/a	15	5	7	3	n/a	n/a	n/a	n/a	n/a
1655793	PROB	n/a	LTP244	ltpFR	9	n/a	n/a	n/a	n/a	n/a	n/a	133	2	9	1	n/a	n/a	n/a	n/a	n/a
1657470	STOP	n/a	LTP244	ltpFR	9	n/a	n/a	n/a	n/a	n/a	n/a	n/a	n/a	n/a	n/a	n/a	n/a	n/a	n/a	n/a
1659004	WORD	wordpools/wasnorm_wordpool_less_exclusions.txt	LTP244	ltpFR	9	7	0	FACTORY	548	n/a	1	n/a	0	0	0	0	0.5869140625	0.422607421875	upper	../fonts/zerothre.ttf
1662017	START	n/a	LTP244	ltpFR	9	n/a	n/a	n/a	n/a	n/a	n/a	n/a	n/a	n/a	n/a	n/a	n/a	n/a	n/a	n/a
1663082	PROB	n/a	LTP244	ltpFR	9	n/a	n/a	n/a	n/a	n/a	n/a	8	1	5	2	n/a	n/a	n/a	n/a	n/a
1664663	PROB	n/a	LTP244	ltpFR	9	n/a	n/a	n/a	n/a	n/a	n/a	21	6	6	9	n/a	n/a	n/a	n/a	n/a
1666743	PROB	n/a	LTP244	ltpFR	9	n/a	n/a	n/a	n/a	n/a	n/a	12	4	3	5	n/a	n/a	n/a	n/a	n/a
1668374	PROB	n/a	LTP244	ltpFR	9	n/a	n/a	n/a	n/a	n/a	n/a	15	1	5	9	n/a	n/a	n/a	n/a	n/a
1669853	STOP	n/a	LTP244	ltpFR	9	n/a	n/a	n/a	n/a	n/a	n/a	n/a	n/a	n/a	n/a	n/a	n/a	n/a	n/a	n/a
1671070	WORD	wordpools/wasnorm_wordpool_less_exclusions.txt	LTP244	ltpFR	9	7	0	HELMET	702	n/a	1	n/a	0	0	0	0	0.5869140625	0.422607421875	upper	../fonts/zerothre.ttf
1674082	START	n/a	LTP244	ltpFR	9	n/a	n/a	n/a	n/a	n/a	n/a	n/a	n/a	n/a	n/a	n/a	n/a	n/a	n/a	n/a
1675263	PROB	n/a	LTP244	ltpFR	9	n/a	n/a	n/a	n/a	n/a	n/a	14	4	1	9	n/a	n/a	n/a	n/a	n/a
1677077	PROB	n/a	LTP244	ltpFR	9	n/a	n/a	n/a	n/a	n/a	n/a	16	2	9	5	n/a	n/a	n/a	n/a	n/a
1678409	PROB	n/a	LTP244	ltpFR	9	n/a	n/a	n/a	n/a	n/a	n/a	16	5	3	8	n/a	n/a	n/a	n/a	n/a
1679873	PROB	n/a	LTP244	ltpFR	9	n/a	n/a	n/a	n/a	n/a	n/a	19	4	8	7	n/a	n/a	n/a	n/a	n/a
1681470	STOP	n/a	LTP244	ltpFR	9	n/a	n/a	n/a	n/a	n/a	n/a	n/a	n/a	n/a	n/a	n/a	n/a	n/a	n/a	n/a
1683035	WORD	wordpools/wasnorm_wordpool_less_exclusions.txt	LTP244	ltpFR	9	7	0	SUIT	1402	n/a	0	n/a	0	0	0	0	0.5869140625	0.422607421875	upper	../fonts/zerothre.ttf
1686048	START	n/a	LTP244	ltpFR	9	n/a	n/a	n/a	n/a	n/a	n/a	n/a	n/a	n/a	n/a	n/a	n/a	n/a	n/a	n/a
1687212	PROB	n/a	LTP244	ltpFR	9	n/a	n/a	n/a	n/a	n/a	n/a	14	4	1	9	n/a	n/a	n/a	n/a	n/a
1688760	PROB	n/a	LTP244	ltpFR	9	n/a	n/a	n/a	n/a	n/a	n/a	10	3	5	2	n/a	n/a	n/a	n/a	n/a
1690075	PROB	n/a	LTP244	ltpFR	9	n/a	n/a	n/a	n/a	n/a	n/a	16	8	6	2	n/a	n/a	n/a	n/a	n/a
1691406	PROB	n/a	LTP244	ltpFR	9	n/a	n/a	n/a	n/a	n/a	n/a	21	8	9	6	n/a	n/a	n/a	n/a	n/a
1693109	STOP	n/a	LTP244	ltpFR	9	n/a	n/a	n/a	n/a	n/a	n/a	n/a	n/a	n/a	n/a	n/a	n/a	n/a	n/a	n/a
1695051	WORD	wordpools/wasnorm_wordpool_less_exclusions.txt	LTP244	ltpFR	9	7	0	DINNER	468	n/a	0	n/a	0	0	0	0	0.5869140625	0.422607421875	upper	../fonts/zerothre.ttf
1698063	START	n/a	LTP244	ltpFR	9	n/a	n/a	n/a	n/a	n/a	n/a	n/a	n/a	n/a	n/a	n/a	n/a	n/a	n/a	n/a
1698895	PROB	n/a	LTP244	ltpFR	9	n/a	n/a	n/a	n/a	n/a	n/a	18	9	6	3	n/a	n/a	n/a	n/a	n/a
1700460	PROB	n/a	LTP244	ltpFR	9	n/a	n/a	n/a	n/a	n/a	n/a	16	3	8	5	n/a	n/a	n/a	n/a	n/a
1702023	PROB	n/a	LTP244	ltpFR	9	n/a	n/a	n/a	n/a	n/a	n/a	15	3	7	5	n/a	n/a	n/a	n/a	n/a
1703338	PROB	n/a	LTP244	ltpFR	9	n/a	n/a	n/a	n/a	n/a	n/a	24	7	9	8	n/a	n/a	n/a	n/a	n/a
1705341	STOP	n/a	LTP244	ltpFR	9	n/a	n/a	n/a	n/a	n/a	n/a	n/a	n/a	n/a	n/a	n/a	n/a	n/a	n/a	n/a
1707033	WORD	wordpools/wasnorm_wordpool_less_exclusions.txt	LTP244	ltpFR	9	7	0	GROCERIES	663	n/a	1	n/a	0	0	0	0	0.5869140625	0.422607421875	upper	../fonts/zerothre.ttf
1710045	START	n/a	LTP244	ltpFR	9	n/a	n/a	n/a	n/a	n/a	n/a	n/a	n/a	n/a	n/a	n/a	n/a	n/a	n/a	n/a
1710877	PROB	n/a	LTP244	ltpFR	9	n/a	n/a	n/a	n/a	n/a	n/a	17	7	3	7	n/a	n/a	n/a	n/a	n/a
1712242	PROB	n/a	LTP244	ltpFR	9	n/a	n/a	n/a	n/a	n/a	n/a	10	2	3	5	n/a	n/a	n/a	n/a	n/a
1713723	PROB	n/a	LTP244	ltpFR	9	n/a	n/a	n/a	n/a	n/a	n/a	10	4	2	3	n/a	n/a	n/a	n/a	n/a
1718044	STOP	n/a	LTP244	ltpFR	9	n/a	n/a	n/a	n/a	n/a	n/a	n/a	n/a	n/a	n/a	n/a	n/a	n/a	n/a	n/a
1719847	REC_START	n/a	LTP244	ltpFR	9	7	n/a	n/a	n/a	n/a	n/a	n/a	0	0	0	n/a	n/a	n/a	n/a	n/a
1722501	REC_WORD	wordpools/wasnorm_wordpool_less_exclusions.txt	LTP244	ltpFR	9	7	0	DINNER	468	n/a	0	n/a	0	0	0	n/a	n/a	n/a	n/a	n/a
1722940	REC_WORD	wordpools/wasnorm_wordpool_less_exclusions.txt	LTP244	ltpFR	9	7	0	GROCERIES	663	n/a	1	n/a	0	0	0	n/a	n/a	n/a	n/a	n/a
1723583	REC_WORD	wordpools/wasnorm_wordpool_less_exclusions.txt	LTP244	ltpFR	9	7	0	PARCEL	1012	n/a	0	n/a	0	0	0	n/a	n/a	n/a	n/a	n/a
1724141	REC_WORD	wordpools/wasnorm_wordpool_less_exclusions.txt	LTP244	ltpFR	9	7	0	HELMET	702	n/a	1	n/a	0	0	0	n/a	n/a	n/a	n/a	n/a
1724731	REC_WORD	wordpools/wasnorm_wordpool_less_exclusions.txt	LTP244	ltpFR	9	7	0	SUIT	1402	n/a	0	n/a	0	0	0	n/a	n/a	n/a	n/a	n/a
1725249	REC_WORD	wordpools/wasnorm_wordpool_less_exclusions.txt	LTP244	ltpFR	9	7	0	SHORTS	1293	n/a	0	n/a	0	0	0	n/a	n/a	n/a	n/a	n/a
1731500	REC_WORD	wordpools/wasnorm_wordpool_less_exclusions.txt	LTP244	ltpFR	9	7	0	PERISCOPE	1050	n/a	0	n/a	0	0	0	n/a	n/a	n/a	n/a	n/a
1739682	REC_WORD	wordpools/wasnorm_wordpool_less_exclusions.txt	LTP244	ltpFR	9	7	0	CHEST	295	n/a	1	n/a	0	0	0	n/a	n/a	n/a	n/a	n/a
1745423	REC_WORD	wordpools/wasnorm_wordpool_less_exclusions.txt	LTP244	ltpFR	9	7	0	FRECKLE	602	n/a	0	n/a	0	0	0	n/a	n/a	n/a	n/a	n/a
1746262	REC_WORD	wordpools/wasnorm_wordpool_less_exclusions.txt	LTP244	ltpFR	9	7	0	BOLT	146	n/a	0	n/a	0	0	0	n/a	n/a	n/a	n/a	n/a
1797714	WORD	wordpools/wasnorm_wordpool_less_exclusions.txt	LTP244	ltpFR	9	8	0	SOCKET	1340	n/a	0	n/a	0	0	0	0	0.5869140625	0.422607421875	upper	../fonts/zerothre.ttf
1801808	WORD	wordpools/wasnorm_wordpool_less_exclusions.txt	LTP244	ltpFR	9	8	0	RICE	1190	n/a	0	n/a	0	0	0	0	0.5869140625	0.422607421875	upper	../fonts/zerothre.ttf
1805935	WORD	wordpools/wasnorm_wordpool_less_exclusions.txt	LTP244	ltpFR	9	8	0	STOMACH	1384	n/a	1	n/a	0	0	0	0	0.5869140625	0.422607421875	upper	../fonts/zerothre.ttf
1810012	WORD	wordpools/wasnorm_wordpool_less_exclusions.txt	LTP244	ltpFR	9	8	1	CROCODILE	411	n/a	1	n/a	0	0	0	1	0.412841796875	0.57763671875	lower	../fonts/amplitud.ttf
1814056	WORD	wordpools/wasnorm_wordpool_less_exclusions.txt	LTP244	ltpFR	9	8	1	ALLIGATOR	16	n/a	1	n/a	0	0	0	1	0.412841796875	0.57763671875	lower	../fonts/amplitud.ttf
1817934	WORD	wordpools/wasnorm_wordpool_less_exclusions.txt	LTP244	ltpFR	9	8	1	FLASK	576	n/a	0	n/a	0	0	0	1	0.412841796875	0.57763671875	lower	../fonts/amplitud.ttf
1822111	WORD	wordpools/wasnorm_wordpool_less_exclusions.txt	LTP244	ltpFR	9	8	1	SLACKS	1323	n/a	0	n/a	0	0	0	1	0.412841796875	0.57763671875	lower	../fonts/amplitud.ttf
1826221	WORD	wordpools/wasnorm_wordpool_less_exclusions.txt	LTP244	ltpFR	9	8	0	EWE	542	n/a	0	n/a	0	0	0	0	0.5869140625	0.422607421875	upper	../fonts/zerothre.ttf
1830265	WORD	wordpools/wasnorm_wordpool_less_exclusions.txt	LTP244	ltpFR	9	8	0	BUCKLE	185	n/a	0	n/a	0	0	0	0	0.5869140625	0.422607421875	upper	../fonts/zerothre.ttf
1834460	WORD	wordpools/wasnorm_wordpool_less_exclusions.txt	LTP244	ltpFR	9	8	1	KNOT	788	n/a	2	n/a	0	0	0	1	0.412841796875	0.57763671875	lower	../fonts/amplitud.ttf
1835374	KEY_MSG	n/a	LTP244	ltpFR	9	8	n/a	n/a	n/a	n/a	n/a	n/a	0	0	0	n/a	n/a	n/a	n/a	n/a
1838636	WORD	wordpools/wasnorm_wordpool_less_exclusions.txt	LTP244	ltpFR	9	8	1	SATURN	1236	n/a	3	n/a	0	0	0	1	0.412841796875	0.57763671875	lower	../fonts/amplitud.ttf
1839469	KEY_MSG	n/a	LTP244	ltpFR	9	8	n/a	n/a	n/a	n/a	n/a	n/a	0	0	0	n/a	n/a	n/a	n/a	n/a
1842830	WORD	wordpools/wasnorm_wordpool_less_exclusions.txt	LTP244	ltpFR	9	8	1	DIVER	476	n/a	1	n/a	0	0	0	1	0.412841796875	0.57763671875	lower	../fonts/amplitud.ttf
1846874	WORD	wordpools/wasnorm_wordpool_less_exclusions.txt	LTP244	ltpFR	9	8	1	JACKET	747	n/a	0	n/a	0	0	0	1	0.412841796875	0.57763671875	lower	../fonts/amplitud.ttf
1850701	WORD	wordpools/wasnorm_wordpool_less_exclusions.txt	LTP244	ltpFR	9	8	0	ORCHID	982	n/a	1	n/a	0	0	0	0	0.5869140625	0.422607421875	upper	../fonts/zerothre.ttf
1854845	WORD	wordpools/wasnorm_wordpool_less_exclusions.txt	LTP244	ltpFR	9	8	0	ELECTRICIAN	521	n/a	1	n/a	0	0	0	0	0.5869140625	0.422607421875	upper	../fonts/zerothre.ttf
1858723	WORD	wordpools/wasnorm_wordpool_less_exclusions.txt	LTP244	ltpFR	9	8	0	RAM	1165	n/a	1	n/a	0	0	0	0	0.5869140625	0.422607421875	upper	../fonts/zerothre.ttf
1861735	START	n/a	LTP244	ltpFR	9	n/a	n/a	n/a	n/a	n/a	n/a	n/a	n/a	n/a	n/a	n/a	n/a	n/a	n/a	n/a
1862767	PROB	n/a	LTP244	ltpFR	9	n/a	n/a	n/a	n/a	n/a	n/a	3	1	1	1	n/a	n/a	n/a	n/a	n/a
1864331	PROB	n/a	LTP244	ltpFR	9	n/a	n/a	n/a	n/a	n/a	n/a	17	4	5	8	n/a	n/a	n/a	n/a	n/a
1865979	PROB	n/a	LTP244	ltpFR	9	n/a	n/a	n/a	n/a	n/a	n/a	11	2	1	8	n/a	n/a	n/a	n/a	n/a
1867393	PROB	n/a	LTP244	ltpFR	9	n/a	n/a	n/a	n/a	n/a	n/a	22	8	5	9	n/a	n/a	n/a	n/a	n/a
1869190	PROB	n/a	LTP244	ltpFR	9	n/a	n/a	n/a	n/a	n/a	n/a	18	9	7	2	n/a	n/a	n/a	n/a	n/a
1870905	PROB	n/a	LTP244	ltpFR	9	n/a	n/a	n/a	n/a	n/a	n/a	16	4	7	5	n/a	n/a	n/a	n/a	n/a
1872203	PROB	n/a	LTP244	ltpFR	9	n/a	n/a	n/a	n/a	n/a	n/a	17	9	7	1	n/a	n/a	n/a	n/a	n/a
1873850	PROB	n/a	LTP244	ltpFR	9	n/a	n/a	n/a	n/a	n/a	n/a	12	6	1	5	n/a	n/a	n/a	n/a	n/a
1875281	PROB	n/a	LTP244	ltpFR	9	n/a	n/a	n/a	n/a	n/a	n/a	23	6	8	9	n/a	n/a	n/a	n/a	n/a
1876893	STOP	n/a	LTP244	ltpFR	9	n/a	n/a	n/a	n/a	n/a	n/a	n/a	n/a	n/a	n/a	n/a	n/a	n/a	n/a	n/a
1879559	REC_START	n/a	LTP244	ltpFR	9	8	n/a	n/a	n/a	n/a	n/a	n/a	0	0	0	n/a	n/a	n/a	n/a	n/a
1881599	REC_WORD	wordpools/wasnorm_wordpool_less_exclusions.txt	LTP244	ltpFR	9	8	0	EWE	542	n/a	0	n/a	0	0	0	n/a	n/a	n/a	n/a	n/a
1886718	REC_WORD	wordpools/wasnorm_wordpool_less_exclusions.txt	LTP244	ltpFR	9	8	0	ELECTRICIAN	521	n/a	1	n/a	0	0	0	n/a	n/a	n/a	n/a	n/a
1887587	REC_WORD	wordpools/wasnorm_wordpool_less_exclusions.txt	LTP244	ltpFR	9	8	0	SOCKET	1340	n/a	0	n/a	0	0	0	n/a	n/a	n/a	n/a	n/a
1888314	REC_WORD	wordpools/wasnorm_wordpool_less_exclusions.txt	LTP244	ltpFR	9	8	0	STOMACH	1384	n/a	1	n/a	0	0	0	n/a	n/a	n/a	n/a	n/a
1889287	REC_WORD	wordpools/wasnorm_wordpool_less_exclusions.txt	LTP244	ltpFR	9	8	0	RICE	1190	n/a	0	n/a	0	0	0	n/a	n/a	n/a	n/a	n/a
1899035	REC_WORD	wordpools/wasnorm_wordpool_less_exclusions.txt	LTP244	ltpFR	9	8	1	CROCODILE	411	n/a	1	n/a	0	0	0	n/a	n/a	n/a	n/a	n/a
1899844	REC_WORD	wordpools/wasnorm_wordpool_less_exclusions.txt	LTP244	ltpFR	9	8	1	ALLIGATOR	16	n/a	1	n/a	0	0	0	n/a	n/a	n/a	n/a	n/a
1900626	REC_WORD	wordpools/wasnorm_wordpool_less_exclusions.txt	LTP244	ltpFR	9	8	0	ORCHID	982	n/a	1	n/a	0	0	0	n/a	n/a	n/a	n/a	n/a
1921738	REC_WORD	wordpools/wasnorm_wordpool_less_exclusions.txt	LTP244	ltpFR	9	8	1	DIVER	476	n/a	1	n/a	0	0	0	n/a	n/a	n/a	n/a	n/a
1983536	WORD	wordpools/wasnorm_wordpool_less_exclusions.txt	LTP244	ltpFR	9	9	1	GRATE	657	n/a	0	n/a	0	0	0	1	0.412841796875	0.57763671875	lower	../fonts/amplitud.ttf
1987697	WORD	wordpools/wasnorm_wordpool_less_exclusions.txt	LTP244	ltpFR	9	9	1	ANGEL	22	n/a	1	n/a	0	0	0	1	0.412841796875	0.57763671875	lower	../fonts/amplitud.ttf
1991841	WORD	wordpools/wasnorm_wordpool_less_exclusions.txt	LTP244	ltpFR	9	9	1	PITCHFORK	1078	n/a	0	n/a	0	0	0	1	0.412841796875	0.57763671875	lower	../fonts/amplitud.ttf
1996051	WORD	wordpools/wasnorm_wordpool_less_exclusions.txt	LTP244	ltpFR	9	9	0	DOVE	491	n/a	0	n/a	0	0	0	0	0.5869140625	0.422607421875	upper	../fonts/zerothre.ttf
2000245	WORD	wordpools/wasnorm_wordpool_less_exclusions.txt	LTP244	ltpFR	9	9	0	CAKE	219	n/a	0	n/a	0	0	0	0	0.5869140625	0.422607421875	upper	../fonts/zerothre.ttf
2004255	WORD	wordpools/wasnorm_wordpool_less_exclusions.txt	LTP244	ltpFR	9	9	0	FORK	594	n/a	0	n/a	0	0	0	0	0.5869140625	0.422607421875	upper	../fonts/zerothre.ttf
2008416	WORD	wordpools/wasnorm_wordpool_less_exclusions.txt	LTP244	ltpFR	9	9	0	CHAIRPERSON	275	n/a	1	n/a	0	0	0	0	0.5869140625	0.422607421875	upper	../fonts/zerothre.ttf
2012510	WORD	wordpools/wasnorm_wordpool_less_exclusions.txt	LTP244	ltpFR	9	9	1	GOVERNOR	651	n/a	1	n/a	0	0	0	1	0.412841796875	0.57763671875	lower	../fonts/amplitud.ttf
2016570	WORD	wordpools/wasnorm_wordpool_less_exclusions.txt	LTP244	ltpFR	9	9	1	OZONE	996	n/a	0	n/a	0	0	0	1	0.412841796875	0.57763671875	lower	../fonts/amplitud.ttf
2020398	WORD	wordpools/wasnorm_wordpool_less_exclusions.txt	LTP244	ltpFR	9	9	0	WAGON	1578	n/a	0	n/a	0	0	0	0	0.5869140625	0.422607421875	upper	../fonts/zerothre.ttf
2024276	WORD	wordpools/wasnorm_wordpool_less_exclusions.txt	LTP244	ltpFR	9	9	0	EAGLE	512	n/a	1	n/a	0	0	0	0	0.5869140625	0.422607421875	upper	../fonts/zerothre.ttf
2028386	WORD	wordpools/wasnorm_wordpool_less_exclusions.txt	LTP244	ltpFR	9	9	0	KEEPER	769	n/a	1	n/a	0	0	0	0	0.5869140625	0.422607421875	upper	../fonts/zerothre.ttf
2032546	WORD	wordpools/wasnorm_wordpool_less_exclusions.txt	LTP244	ltpFR	9	9	0	JOKER	759	n/a	1	n/a	0	0	0	0	0.5869140625	0.422607421875	upper	../fonts/zerothre.ttf
2036507	WORD	wordpools/wasnorm_wordpool_less_exclusions.txt	LTP244	ltpFR	9	9	1	BOUQUET	157	n/a	0	n/a	0	0	0	1	0.412841796875	0.57763671875	lower	../fonts/amplitud.ttf
2040668	WORD	wordpools/wasnorm_wordpool_less_exclusions.txt	LTP244	ltpFR	9	9	1	DANDELION	438	n/a	1	n/a	0	0	0	1	0.412841796875	0.57763671875	lower	../fonts/amplitud.ttf
2044878	WORD	wordpools/wasnorm_wordpool_less_exclusions.txt	LTP244	ltpFR	9	9	1	COTTAGE	384	n/a	1	n/a	0	0	0	1	0.412841796875	0.57763671875	lower	../fonts/amplitud.ttf
2050653	REC_START	n/a	LTP244	ltpFR	9	9	n/a	n/a	n/a	n/a	n/a	n/a	0	0	0	n/a	n/a	n/a	n/a	n/a
2051416	REC_WORD	wordpools/wasnorm_wordpool_less_exclusions.txt	LTP244	ltpFR	9	9	1	BOUQUET	157	n/a	0	n/a	0	0	0	n/a	n/a	n/a	n/a	n/a
2052050	REC_WORD	wordpools/wasnorm_wordpool_less_exclusions.txt	LTP244	ltpFR	9	9	1	DANDELION	438	n/a	1	n/a	0	0	0	n/a	n/a	n/a	n/a	n/a
2052868	REC_WORD	wordpools/wasnorm_wordpool_less_exclusions.txt	LTP244	ltpFR	9	9	1	COTTAGE	384	n/a	1	n/a	0	0	0	n/a	n/a	n/a	n/a	n/a
2053621	REC_WORD	wordpools/wasnorm_wordpool_less_exclusions.txt	LTP244	ltpFR	9	9	0	CAKE	219	n/a	0	n/a	0	0	0	n/a	n/a	n/a	n/a	n/a
2054114	REC_WORD	wordpools/wasnorm_wordpool_less_exclusions.txt	LTP244	ltpFR	9	9	0	FORK	594	n/a	0	n/a	0	0	0	n/a	n/a	n/a	n/a	n/a
2055836	REC_WORD	wordpools/wasnorm_wordpool_less_exclusions.txt	LTP244	ltpFR	9	9	0	DOVE	491	n/a	0	n/a	0	0	0	n/a	n/a	n/a	n/a	n/a
2098958	REC_WORD	wordpools/wasnorm_wordpool_less_exclusions.txt	LTP244	ltpFR	9	9	1	PITCHFORK	1078	n/a	0	n/a	0	0	0	n/a	n/a	n/a	n/a	n/a
2106137	REC_WORD	wordpools/wasnorm_wordpool_less_exclusions.txt	LTP244	ltpFR	9	9	0	CHAIRPERSON	275	n/a	1	n/a	0	0	0	n/a	n/a	n/a	n/a	n/a
2107137	REC_WORD_VV	wordpools/wasnorm_wordpool_less_exclusions.txt	LTP244	ltpFR	9	9	n/a	<>	-1	n/a	n/a	n/a	0	0	0	n/a	n/a	n/a	n/a	n/a
2129552	START	n/a	LTP244	ltpFR	9	n/a	n/a	n/a	n/a	n/a	n/a	n/a	n/a	n/a	n/a	n/a	n/a	n/a	n/a	n/a
2131066	PROB	n/a	LTP244	ltpFR	9	n/a	n/a	n/a	n/a	n/a	n/a	9	2	2	5	n/a	n/a	n/a	n/a	n/a
2132947	PROB	n/a	LTP244	ltpFR	9	n/a	n/a	n/a	n/a	n/a	n/a	19	5	7	7	n/a	n/a	n/a	n/a	n/a
2134910	PROB	n/a	LTP244	ltpFR	9	n/a	n/a	n/a	n/a	n/a	n/a	10	3	3	4	n/a	n/a	n/a	n/a	n/a
2137094	STOP	n/a	LTP244	ltpFR	9	n/a	n/a	n/a	n/a	n/a	n/a	n/a	n/a	n/a	n/a	n/a	n/a	n/a	n/a	n/a
2138638	WORD	wordpools/wasnorm_wordpool_less_exclusions.txt	LTP244	ltpFR	9	10	1	OX	994	n/a	1	n/a	0	0	0	1	0.412841796875	0.57763671875	lower	../fonts/amplitud.ttf
2141651	START	n/a	LTP244	ltpFR	9	n/a	n/a	n/a	n/a	n/a	n/a	n/a	n/a	n/a	n/a	n/a	n/a	n/a	n/a	n/a
2142799	PROB	n/a	LTP244	ltpFR	9	n/a	n/a	n/a	n/a	n/a	n/a	155	7	4	7	n/a	n/a	n/a	n/a	n/a
2144596	PROB	n/a	LTP244	ltpFR	9	n/a	n/a	n/a	n/a	n/a	n/a	18	5	6	7	n/a	n/a	n/a	n/a	n/a
2146892	PROB	n/a	LTP244	ltpFR	9	n/a	n/a	n/a	n/a	n/a	n/a	18	6	9	3	n/a	n/a	n/a	n/a	n/a
2149134	STOP	n/a	LTP244	ltpFR	9	n/a	n/a	n/a	n/a	n/a	n/a	n/a	n/a	n/a	n/a	n/a	n/a	n/a	n/a	n/a
2150853	WORD	wordpools/wasnorm_wordpool_less_exclusions.txt	LTP244	ltpFR	9	10	1	WALRUS	1585	n/a	1	n/a	0	0	0	1	0.412841796875	0.57763671875	lower	../fonts/amplitud.ttf
2153866	START	n/a	LTP244	ltpFR	9	n/a	n/a	n/a	n/a	n/a	n/a	n/a	n/a	n/a	n/a	n/a	n/a	n/a	n/a	n/a
2155014	PROB	n/a	LTP244	ltpFR	9	n/a	n/a	n/a	n/a	n/a	n/a	14	7	4	3	n/a	n/a	n/a	n/a	n/a
2156678	PROB	n/a	LTP244	ltpFR	9	n/a	n/a	n/a	n/a	n/a	n/a	12	3	6	3	n/a	n/a	n/a	n/a	n/a
2158092	PROB	n/a	LTP244	ltpFR	9	n/a	n/a	n/a	n/a	n/a	n/a	133	7	1	5	n/a	n/a	n/a	n/a	n/a
2161866	STOP	n/a	LTP244	ltpFR	9	n/a	n/a	n/a	n/a	n/a	n/a	n/a	n/a	n/a	n/a	n/a	n/a	n/a	n/a	n/a
2162686	WORD	wordpools/wasnorm_wordpool_less_exclusions.txt	LTP244	ltpFR	9	10	1	CREEK	404	n/a	2	n/a	0	0	0	1	0.412841796875	0.57763671875	lower	../fonts/amplitud.ttf
2163701	KEY_MSG	n/a	LTP244	ltpFR	9	10	n/a	n/a	n/a	n/a	n/a	n/a	0	0	0	n/a	n/a	n/a	n/a	n/a
2165698	START	n/a	LTP244	ltpFR	9	n/a	n/a	n/a	n/a	n/a	n/a	n/a	n/a	n/a	n/a	n/a	n/a	n/a	n/a	n/a
2166763	PROB	n/a	LTP244	ltpFR	9	n/a	n/a	n/a	n/a	n/a	n/a	12	6	5	1	n/a	n/a	n/a	n/a	n/a
2168344	PROB	n/a	LTP244	ltpFR	9	n/a	n/a	n/a	n/a	n/a	n/a	17	3	7	7	n/a	n/a	n/a	n/a	n/a
2170707	PROB	n/a	LTP244	ltpFR	9	n/a	n/a	n/a	n/a	n/a	n/a	17	7	3	7	n/a	n/a	n/a	n/a	n/a
2173698	STOP	n/a	LTP244	ltpFR	9	n/a	n/a	n/a	n/a	n/a	n/a	n/a	n/a	n/a	n/a	n/a	n/a	n/a	n/a	n/a
2174684	WORD	wordpools/wasnorm_wordpool_less_exclusions.txt	LTP244	ltpFR	9	10	1	PADDLE	1000	n/a	0	n/a	0	0	0	1	0.412841796875	0.57763671875	lower	../fonts/amplitud.ttf
2177697	START	n/a	LTP244	ltpFR	9	n/a	n/a	n/a	n/a	n/a	n/a	n/a	n/a	n/a	n/a	n/a	n/a	n/a	n/a	n/a
2178845	PROB	n/a	LTP244	ltpFR	9	n/a	n/a	n/a	n/a	n/a	n/a	10	5	2	3	n/a	n/a	n/a	n/a	n/a
2180509	PROB	n/a	LTP244	ltpFR	9	n/a	n/a	n/a	n/a	n/a	n/a	14	4	5	5	n/a	n/a	n/a	n/a	n/a
2181923	PROB	n/a	LTP244	ltpFR	9	n/a	n/a	n/a	n/a	n/a	n/a	20	2	9	9	n/a	n/a	n/a	n/a	n/a
2183504	PROB	n/a	LTP244	ltpFR	9	n/a	n/a	n/a	n/a	n/a	n/a	8	2	4	2	n/a	n/a	n/a	n/a	n/a
2184942	STOP	n/a	LTP244	ltpFR	9	n/a	n/a	n/a	n/a	n/a	n/a	n/a	n/a	n/a	n/a	n/a	n/a	n/a	n/a	n/a
2186700	WORD	wordpools/wasnorm_wordpool_less_exclusions.txt	LTP244	ltpFR	9	10	1	ESSAY	540	n/a	0	n/a	0	0	0	1	0.412841796875	0.57763671875	lower	../fonts/amplitud.ttf
2189712	START	n/a	LTP244	ltpFR	9	n/a	n/a	n/a	n/a	n/a	n/a	n/a	n/a	n/a	n/a	n/a	n/a	n/a	n/a	n/a
2190660	PROB	n/a	LTP244	ltpFR	9	n/a	n/a	n/a	n/a	n/a	n/a	12	3	1	8	n/a	n/a	n/a	n/a	n/a
2192391	PROB	n/a	LTP244	ltpFR	9	n/a	n/a	n/a	n/a	n/a	n/a	13	5	4	1	n/a	n/a	n/a	n/a	n/a
2194439	PROB	n/a	LTP244	ltpFR	9	n/a	n/a	n/a	n/a	n/a	n/a	13	3	8	2	n/a	n/a	n/a	n/a	n/a
2196566	STOP	n/a	LTP244	ltpFR	9	n/a	n/a	n/a	n/a	n/a	n/a	n/a	n/a	n/a	n/a	n/a	n/a	n/a	n/a	n/a
2198632	WORD	wordpools/wasnorm_wordpool_less_exclusions.txt	LTP244	ltpFR	9	10	1	MOUTH	926	n/a	0	n/a	0	0	0	1	0.412841796875	0.57763671875	lower	../fonts/amplitud.ttf
2201644	START	n/a	LTP244	ltpFR	9	n/a	n/a	n/a	n/a	n/a	n/a	n/a	n/a	n/a	n/a	n/a	n/a	n/a	n/a	n/a
2202476	PROB	n/a	LTP244	ltpFR	9	n/a	n/a	n/a	n/a	n/a	n/a	12	4	2	6	n/a	n/a	n/a	n/a	n/a
2204024	PROB	n/a	LTP244	ltpFR	9	n/a	n/a	n/a	n/a	n/a	n/a	12	2	6	4	n/a	n/a	n/a	n/a	n/a
2205721	PROB	n/a	LTP244	ltpFR	9	n/a	n/a	n/a	n/a	n/a	n/a	21	7	4	7	n/a	n/a	n/a	n/a	n/a
2209644	STOP	n/a	LTP244	ltpFR	9	n/a	n/a	n/a	n/a	n/a	n/a	n/a	n/a	n/a	n/a	n/a	n/a	n/a	n/a	n/a
2210847	WORD	wordpools/wasnorm_wordpool_less_exclusions.txt	LTP244	ltpFR	9	10	1	MUFFIN	929	n/a	0	n/a	0	0	0	1	0.412841796875	0.57763671875	lower	../fonts/amplitud.ttf
2213859	START	n/a	LTP244	ltpFR	9	n/a	n/a	n/a	n/a	n/a	n/a	n/a	n/a	n/a	n/a	n/a	n/a	n/a	n/a	n/a
2214708	PROB	n/a	LTP244	ltpFR	9	n/a	n/a	n/a	n/a	n/a	n/a	20	2	9	9	n/a	n/a	n/a	n/a	n/a
2216172	PROB	n/a	LTP244	ltpFR	9	n/a	n/a	n/a	n/a	n/a	n/a	13	8	2	3	n/a	n/a	n/a	n/a	n/a
2217570	PROB	n/a	LTP244	ltpFR	9	n/a	n/a	n/a	n/a	n/a	n/a	5	1	1	7	n/a	n/a	n/a	n/a	n/a
2219368	PROB	n/a	LTP244	ltpFR	9	n/a	n/a	n/a	n/a	n/a	n/a	7	1	1	5	n/a	n/a	n/a	n/a	n/a
2221310	STOP	n/a	LTP244	ltpFR	9	n/a	n/a	n/a	n/a	n/a	n/a	n/a	n/a	n/a	n/a	n/a	n/a	n/a	n/a	n/a
2222896	WORD	wordpools/wasnorm_wordpool_less_exclusions.txt	LTP244	ltpFR	9	10	1	PAPER	1011	n/a	0	n/a	0	0	0	1	0.412841796875	0.57763671875	lower	../fonts/amplitud.ttf
2225908	START	n/a	LTP244	ltpFR	9	n/a	n/a	n/a	n/a	n/a	n/a	n/a	n/a	n/a	n/a	n/a	n/a	n/a	n/a	n/a
2227056	PROB	n/a	LTP244	ltpFR	9	n/a	n/a	n/a	n/a	n/a	n/a	14	2	6	6	n/a	n/a	n/a	n/a	n/a
2228554	PROB	n/a	LTP244	ltpFR	9	n/a	n/a	n/a	n/a	n/a	n/a	24	9	7	8	n/a	n/a	n/a	n/a	n/a
2230867	PROB	n/a	LTP244	ltpFR	9	n/a	n/a	n/a	n/a	n/a	n/a	13	5	2	6	n/a	n/a	n/a	n/a	n/a
2232438	STOP	n/a	LTP244	ltpFR	9	n/a	n/a	n/a	n/a	n/a	n/a	n/a	n/a	n/a	n/a	n/a	n/a	n/a	n/a	n/a
2234928	WORD	wordpools/wasnorm_wordpool_less_exclusions.txt	LTP244	ltpFR	9	10	1	CAN	225	n/a	0	n/a	0	0	0	1	0.412841796875	0.57763671875	lower	../fonts/amplitud.ttf
2237940	START	n/a	LTP244	ltpFR	9	n/a	n/a	n/a	n/a	n/a	n/a	n/a	n/a	n/a	n/a	n/a	n/a	n/a	n/a	n/a
2238755	PROB	n/a	LTP244	ltpFR	9	n/a	n/a	n/a	n/a	n/a	n/a	11	5	1	5	n/a	n/a	n/a	n/a	n/a
2240353	PROB	n/a	LTP244	ltpFR	9	n/a	n/a	n/a	n/a	n/a	n/a	12	4	7	1	n/a	n/a	n/a	n/a	n/a
2242017	PROB	n/a	LTP244	ltpFR	9	n/a	n/a	n/a	n/a	n/a	n/a	15	8	4	3	n/a	n/a	n/a	n/a	n/a
2245940	STOP	n/a	LTP244	ltpFR	9	n/a	n/a	n/a	n/a	n/a	n/a	n/a	n/a	n/a	n/a	n/a	n/a	n/a	n/a	n/a
2247010	WORD	wordpools/wasnorm_wordpool_less_exclusions.txt	LTP244	ltpFR	9	10	1	SPIT	1354	n/a	0	n/a	0	0	0	1	0.412841796875	0.57763671875	lower	../fonts/amplitud.ttf
2250022	START	n/a	LTP244	ltpFR	9	n/a	n/a	n/a	n/a	n/a	n/a	n/a	n/a	n/a	n/a	n/a	n/a	n/a	n/a	n/a
2250937	PROB	n/a	LTP244	ltpFR	9	n/a	n/a	n/a	n/a	n/a	n/a	15	4	9	2	n/a	n/a	n/a	n/a	n/a
2252801	PROB	n/a	LTP244	ltpFR	9	n/a	n/a	n/a	n/a	n/a	n/a	20	3	9	8	n/a	n/a	n/a	n/a	n/a
2254398	PROB	n/a	LTP244	ltpFR	9	n/a	n/a	n/a	n/a	n/a	n/a	21	9	4	8	n/a	n/a	n/a	n/a	n/a
2258022	STOP	n/a	LTP244	ltpFR	9	n/a	n/a	n/a	n/a	n/a	n/a	n/a	n/a	n/a	n/a	n/a	n/a	n/a	n/a	n/a
2258892	WORD	wordpools/wasnorm_wordpool_less_exclusions.txt	LTP244	ltpFR	9	10	1	MECHANIC	884	n/a	1	n/a	0	0	0	1	0.412841796875	0.57763671875	lower	../fonts/amplitud.ttf
2261904	START	n/a	LTP244	ltpFR	9	n/a	n/a	n/a	n/a	n/a	n/a	n/a	n/a	n/a	n/a	n/a	n/a	n/a	n/a	n/a
2262769	PROB	n/a	LTP244	ltpFR	9	n/a	n/a	n/a	n/a	n/a	n/a	12	4	3	5	n/a	n/a	n/a	n/a	n/a
2264234	PROB	n/a	LTP244	ltpFR	9	n/a	n/a	n/a	n/a	n/a	n/a	16	3	9	7	n/a	n/a	n/a	n/a	n/a
2266098	PROB	n/a	LTP244	ltpFR	9	n/a	n/a	n/a	n/a	n/a	n/a	18	7	9	2	n/a	n/a	n/a	n/a	n/a
2268463	STOP	n/a	LTP244	ltpFR	9	n/a	n/a	n/a	n/a	n/a	n/a	n/a	n/a	n/a	n/a	n/a	n/a	n/a	n/a	n/a
2271107	WORD	wordpools/wasnorm_wordpool_less_exclusions.txt	LTP244	ltpFR	9	10	1	RANCH	1166	n/a	0	n/a	0	0	0	1	0.412841796875	0.57763671875	lower	../fonts/amplitud.ttf
2274120	START	n/a	LTP244	ltpFR	9	n/a	n/a	n/a	n/a	n/a	n/a	n/a	n/a	n/a	n/a	n/a	n/a	n/a	n/a	n/a
2275317	PROB	n/a	LTP244	ltpFR	9	n/a	n/a	n/a	n/a	n/a	n/a	17	6	4	7	n/a	n/a	n/a	n/a	n/a
2276998	PROB	n/a	LTP244	ltpFR	9	n/a	n/a	n/a	n/a	n/a	n/a	16	1	9	6	n/a	n/a	n/a	n/a	n/a
2279028	PROB	n/a	LTP244	ltpFR	9	n/a	n/a	n/a	n/a	n/a	n/a	13	2	9	2	n/a	n/a	n/a	n/a	n/a
2280327	PROB	n/a	LTP244	ltpFR	9	n/a	n/a	n/a	n/a	n/a	n/a	21	9	4	8	n/a	n/a	n/a	n/a	n/a
2281926	STOP	n/a	LTP244	ltpFR	9	n/a	n/a	n/a	n/a	n/a	n/a	n/a	n/a	n/a	n/a	n/a	n/a	n/a	n/a	n/a
2283089	WORD	wordpools/wasnorm_wordpool_less_exclusions.txt	LTP244	ltpFR	9	10	1	APRON	35	n/a	0	n/a	0	0	0	1	0.412841796875	0.57763671875	lower	../fonts/amplitud.ttf
2286102	START	n/a	LTP244	ltpFR	9	n/a	n/a	n/a	n/a	n/a	n/a	n/a	n/a	n/a	n/a	n/a	n/a	n/a	n/a	n/a
2287033	PROB	n/a	LTP244	ltpFR	9	n/a	n/a	n/a	n/a	n/a	n/a	9	5	3	1	n/a	n/a	n/a	n/a	n/a
2288714	PROB	n/a	LTP244	ltpFR	9	n/a	n/a	n/a	n/a	n/a	n/a	17	4	6	7	n/a	n/a	n/a	n/a	n/a
2290378	PROB	n/a	LTP244	ltpFR	9	n/a	n/a	n/a	n/a	n/a	n/a	7	4	1	2	n/a	n/a	n/a	n/a	n/a
2292566	STOP	n/a	LTP244	ltpFR	9	n/a	n/a	n/a	n/a	n/a	n/a	n/a	n/a	n/a	n/a	n/a	n/a	n/a	n/a	n/a
2295121	WORD	wordpools/wasnorm_wordpool_less_exclusions.txt	LTP244	ltpFR	9	10	1	VAN	1548	n/a	0	n/a	0	0	0	1	0.412841796875	0.57763671875	lower	../fonts/amplitud.ttf
2298134	START	n/a	LTP244	ltpFR	9	n/a	n/a	n/a	n/a	n/a	n/a	n/a	n/a	n/a	n/a	n/a	n/a	n/a	n/a	n/a
2299282	PROB	n/a	LTP244	ltpFR	9	n/a	n/a	n/a	n/a	n/a	n/a	14	7	3	4	n/a	n/a	n/a	n/a	n/a
2300646	PROB	n/a	LTP244	ltpFR	9	n/a	n/a	n/a	n/a	n/a	n/a	15	7	3	5	n/a	n/a	n/a	n/a	n/a
2301961	PROB	n/a	LTP244	ltpFR	9	n/a	n/a	n/a	n/a	n/a	n/a	12	3	3	7	n/a	n/a	n/a	n/a	n/a
2303359	PROB	n/a	LTP244	ltpFR	9	n/a	n/a	n/a	n/a	n/a	n/a	12	7	4	9	n/a	n/a	n/a	n/a	n/a
2305447	STOP	n/a	LTP244	ltpFR	9	n/a	n/a	n/a	n/a	n/a	n/a	n/a	n/a	n/a	n/a	n/a	n/a	n/a	n/a	n/a
2307220	WORD	wordpools/wasnorm_wordpool_less_exclusions.txt	LTP244	ltpFR	9	10	1	AUTOMOBILE	62	n/a	0	n/a	0	0	0	1	0.412841796875	0.57763671875	lower	../fonts/amplitud.ttf
2310232	START	n/a	LTP244	ltpFR	9	n/a	n/a	n/a	n/a	n/a	n/a	n/a	n/a	n/a	n/a	n/a	n/a	n/a	n/a	n/a
2311164	PROB	n/a	LTP244	ltpFR	9	n/a	n/a	n/a	n/a	n/a	n/a	15	8	8	2	n/a	n/a	n/a	n/a	n/a
2312778	PROB	n/a	LTP244	ltpFR	9	n/a	n/a	n/a	n/a	n/a	n/a	11	6	4	1	n/a	n/a	n/a	n/a	n/a
2314026	PROB	n/a	LTP244	ltpFR	9	n/a	n/a	n/a	n/a	n/a	n/a	21	9	4	7	n/a	n/a	n/a	n/a	n/a
2315973	PROB	n/a	LTP244	ltpFR	9	n/a	n/a	n/a	n/a	n/a	n/a	15	6	4	9	n/a	n/a	n/a	n/a	n/a
2317622	STOP	n/a	LTP244	ltpFR	9	n/a	n/a	n/a	n/a	n/a	n/a	n/a	n/a	n/a	n/a	n/a	n/a	n/a	n/a	n/a
2319218	WORD	wordpools/wasnorm_wordpool_less_exclusions.txt	LTP244	ltpFR	9	10	1	COW	393	n/a	1	n/a	0	0	0	1	0.412841796875	0.57763671875	lower	../fonts/amplitud.ttf
2322231	START	n/a	LTP244	ltpFR	9	n/a	n/a	n/a	n/a	n/a	n/a	n/a	n/a	n/a	n/a	n/a	n/a	n/a	n/a	n/a
2323046	PROB	n/a	LTP244	ltpFR	9	n/a	n/a	n/a	n/a	n/a	n/a	9	1	3	5	n/a	n/a	n/a	n/a	n/a
2324927	PROB	n/a	LTP244	ltpFR	9	n/a	n/a	n/a	n/a	n/a	n/a	12	3	8	1	n/a	n/a	n/a	n/a	n/a
2326607	PROB	n/a	LTP244	ltpFR	9	n/a	n/a	n/a	n/a	n/a	n/a	12	6	5	1	n/a	n/a	n/a	n/a	n/a
2327955	PROB	n/a	LTP244	ltpFR	9	n/a	n/a	n/a	n/a	n/a	n/a	20	4	7	9	n/a	n/a	n/a	n/a	n/a
2329526	STOP	n/a	LTP244	ltpFR	9	n/a	n/a	n/a	n/a	n/a	n/a	n/a	n/a	n/a	n/a	n/a	n/a	n/a	n/a	n/a
2331983	REC_START	n/a	LTP244	ltpFR	9	10	n/a	n/a	n/a	n/a	n/a	n/a	0	0	0	n/a	n/a	n/a	n/a	n/a
2337001	REC_WORD	wordpools/wasnorm_wordpool_less_exclusions.txt	LTP244	ltpFR	9	10	1	MECHANIC	884	n/a	1	n/a	0	0	0	n/a	n/a	n/a	n/a	n/a
2337974	REC_WORD	wordpools/wasnorm_wordpool_less_exclusions.txt	LTP244	ltpFR	9	10	1	PAPER	1011	n/a	0	n/a	0	0	0	n/a	n/a	n/a	n/a	n/a
2338732	REC_WORD	wordpools/wasnorm_wordpool_less_exclusions.txt	LTP244	ltpFR	9	10	1	ESSAY	540	n/a	0	n/a	0	0	0	n/a	n/a	n/a	n/a	n/a
2342040	REC_WORD	wordpools/wasnorm_wordpool_less_exclusions.txt	LTP244	ltpFR	9	10	1	PADDLE	1000	n/a	0	n/a	0	0	0	n/a	n/a	n/a	n/a	n/a
2342738	REC_WORD	wordpools/wasnorm_wordpool_less_exclusions.txt	LTP244	ltpFR	9	10	1	MOUTH	926	n/a	0	n/a	0	0	0	n/a	n/a	n/a	n/a	n/a
2343532	REC_WORD	wordpools/wasnorm_wordpool_less_exclusions.txt	LTP244	ltpFR	9	10	n/a	SALIVA	1226	n/a	n/a	n/a	0	0	0	n/a	n/a	n/a	n/a	n/a
2353414	REC_WORD	wordpools/wasnorm_wordpool_less_exclusions.txt	LTP244	ltpFR	9	10	1	WALRUS	1585	n/a	1	n/a	0	0	0	n/a	n/a	n/a	n/a	n/a
2354414	REC_WORD_VV	wordpools/wasnorm_wordpool_less_exclusions.txt	LTP244	ltpFR	9	10	n/a	<>	-1	n/a	n/a	n/a	0	0	0	n/a	n/a	n/a	n/a	n/a
2354606	REC_WORD	wordpools/wasnorm_wordpool_less_exclusions.txt	LTP244	ltpFR	9	10	1	OX	994	n/a	1	n/a	0	0	0	n/a	n/a	n/a	n/a	n/a
2407603	REST_REWET	n/a	LTP244	ltpFR	9	10	n/a	n/a	n/a	n/a	n/a	n/a	0	0	0	n/a	n/a	n/a	n/a	n/a
2690048	START	n/a	LTP244	ltpFR	9	n/a	n/a	n/a	n/a	n/a	n/a	n/a	n/a	n/a	n/a	n/a	n/a	n/a	n/a	n/a
2691562	PROB	n/a	LTP244	ltpFR	9	n/a	n/a	n/a	n/a	n/a	n/a	17	3	5	9	n/a	n/a	n/a	n/a	n/a
2693742	PROB	n/a	LTP244	ltpFR	9	n/a	n/a	n/a	n/a	n/a	n/a	11	1	3	7	n/a	n/a	n/a	n/a	n/a
2695423	PROB	n/a	LTP244	ltpFR	9	n/a	n/a	n/a	n/a	n/a	n/a	17	7	4	6	n/a	n/a	n/a	n/a	n/a
2697271	PROB	n/a	LTP244	ltpFR	9	n/a	n/a	n/a	n/a	n/a	n/a	22	5	8	8	n/a	n/a	n/a	n/a	n/a
2698901	PROB	n/a	LTP244	ltpFR	9	n/a	n/a	n/a	n/a	n/a	n/a	16	6	7	3	n/a	n/a	n/a	n/a	n/a
2700432	PROB	n/a	LTP244	ltpFR	9	n/a	n/a	n/a	n/a	n/a	n/a	9	5	3	1	n/a	n/a	n/a	n/a	n/a
2701880	PROB	n/a	LTP244	ltpFR	9	n/a	n/a	n/a	n/a	n/a	n/a	24	7	9	8	n/a	n/a	n/a	n/a	n/a
2703511	PROB	n/a	LTP244	ltpFR	9	n/a	n/a	n/a	n/a	n/a	n/a	17	3	9	5	n/a	n/a	n/a	n/a	n/a
2705030	STOP	n/a	LTP244	ltpFR	9	n/a	n/a	n/a	n/a	n/a	n/a	n/a	n/a	n/a	n/a	n/a	n/a	n/a	n/a	n/a
2706973	WORD	wordpools/wasnorm_wordpool_less_exclusions.txt	LTP244	ltpFR	9	11	1	REPORT	1184	n/a	0	n/a	0	0	0	1	0.412841796875	0.57763671875	lower	../fonts/amplitud.ttf
2709985	START	n/a	LTP244	ltpFR	9	n/a	n/a	n/a	n/a	n/a	n/a	n/a	n/a	n/a	n/a	n/a	n/a	n/a	n/a	n/a
2711067	PROB	n/a	LTP244	ltpFR	9	n/a	n/a	n/a	n/a	n/a	n/a	11	5	5	1	n/a	n/a	n/a	n/a	n/a
2712265	PROB	n/a	LTP244	ltpFR	9	n/a	n/a	n/a	n/a	n/a	n/a	18	8	9	1	n/a	n/a	n/a	n/a	n/a
2713812	PROB	n/a	LTP244	ltpFR	9	n/a	n/a	n/a	n/a	n/a	n/a	21	9	5	8	n/a	n/a	n/a	n/a	n/a
2715393	PROB	n/a	LTP244	ltpFR	9	n/a	n/a	n/a	n/a	n/a	n/a	16	5	9	2	n/a	n/a	n/a	n/a	n/a
2717091	PROB	n/a	LTP244	ltpFR	9	n/a	n/a	n/a	n/a	n/a	n/a	22	6	9	7	n/a	n/a	n/a	n/a	n/a
2719105	PROB	n/a	LTP244	ltpFR	9	n/a	n/a	n/a	n/a	n/a	n/a	21	8	7	6	n/a	n/a	n/a	n/a	n/a
2720802	PROB	n/a	LTP244	ltpFR	9	n/a	n/a	n/a	n/a	n/a	n/a	16	9	7	3	n/a	n/a	n/a	n/a	n/a
2723731	PROB	n/a	LTP244	ltpFR	9	n/a	n/a	n/a	n/a	n/a	n/a	11	7	1	3	n/a	n/a	n/a	n/a	n/a
2725150	STOP	n/a	LTP244	ltpFR	9	n/a	n/a	n/a	n/a	n/a	n/a	n/a	n/a	n/a	n/a	n/a	n/a	n/a	n/a	n/a
2726959	WORD	wordpools/wasnorm_wordpool_less_exclusions.txt	LTP244	ltpFR	9	11	1	PUDDLE	1140	n/a	0	n/a	0	0	0	1	0.412841796875	0.57763671875	lower	../fonts/amplitud.ttf
2729972	START	n/a	LTP244	ltpFR	9	n/a	n/a	n/a	n/a	n/a	n/a	n/a	n/a	n/a	n/a	n/a	n/a	n/a	n/a	n/a
2731120	PROB	n/a	LTP244	ltpFR	9	n/a	n/a	n/a	n/a	n/a	n/a	14	4	2	8	n/a	n/a	n/a	n/a	n/a
2733184	PROB	n/a	LTP244	ltpFR	9	n/a	n/a	n/a	n/a	n/a	n/a	19	9	2	8	n/a	n/a	n/a	n/a	n/a
2735064	PROB	n/a	LTP244	ltpFR	9	n/a	n/a	n/a	n/a	n/a	n/a	23	7	8	8	n/a	n/a	n/a	n/a	n/a
2737277	PROB	n/a	LTP244	ltpFR	9	n/a	n/a	n/a	n/a	n/a	n/a	15	8	3	4	n/a	n/a	n/a	n/a	n/a
2738875	PROB	n/a	LTP244	ltpFR	9	n/a	n/a	n/a	n/a	n/a	n/a	9	5	2	2	n/a	n/a	n/a	n/a	n/a
2740273	PROB	n/a	LTP244	ltpFR	9	n/a	n/a	n/a	n/a	n/a	n/a	14	4	9	1	n/a	n/a	n/a	n/a	n/a
2741754	PROB	n/a	LTP244	ltpFR	9	n/a	n/a	n/a	n/a	n/a	n/a	13	9	3	1	n/a	n/a	n/a	n/a	n/a
2743002	PROB	n/a	LTP244	ltpFR	9	n/a	n/a	n/a	n/a	n/a	n/a	21	8	5	8	n/a	n/a	n/a	n/a	n/a
2744654	STOP	n/a	LTP244	ltpFR	9	n/a	n/a	n/a	n/a	n/a	n/a	n/a	n/a	n/a	n/a	n/a	n/a	n/a	n/a	n/a
2747129	WORD	wordpools/wasnorm_wordpool_less_exclusions.txt	LTP244	ltpFR	9	11	1	WAVE	1596	n/a	0	n/a	0	0	0	1	0.412841796875	0.57763671875	lower	../fonts/amplitud.ttf
2750142	START	n/a	LTP244	ltpFR	9	n/a	n/a	n/a	n/a	n/a	n/a	n/a	n/a	n/a	n/a	n/a	n/a	n/a	n/a	n/a
2751290	PROB	n/a	LTP244	ltpFR	9	n/a	n/a	n/a	n/a	n/a	n/a	13	2	6	5	n/a	n/a	n/a	n/a	n/a
2753087	PROB	n/a	LTP244	ltpFR	9	n/a	n/a	n/a	n/a	n/a	n/a	14	2	4	8	n/a	n/a	n/a	n/a	n/a
2755001	PROB	n/a	LTP244	ltpFR	9	n/a	n/a	n/a	n/a	n/a	n/a	11	1	9	1	n/a	n/a	n/a	n/a	n/a
2756499	PROB	n/a	LTP244	ltpFR	9	n/a	n/a	n/a	n/a	n/a	n/a	13	5	3	4	n/a	n/a	n/a	n/a	n/a
2757996	PROB	n/a	LTP244	ltpFR	9	n/a	n/a	n/a	n/a	n/a	n/a	10	3	4	3	n/a	n/a	n/a	n/a	n/a
2759561	PROB	n/a	LTP244	ltpFR	9	n/a	n/a	n/a	n/a	n/a	n/a	13	3	7	3	n/a	n/a	n/a	n/a	n/a
2761042	PROB	n/a	LTP244	ltpFR	9	n/a	n/a	n/a	n/a	n/a	n/a	141	7	8	2	n/a	n/a	n/a	n/a	n/a
2763322	PROB	n/a	LTP244	ltpFR	9	n/a	n/a	n/a	n/a	n/a	n/a	17	6	7	4	n/a	n/a	n/a	n/a	n/a
2765550	STOP	n/a	LTP244	ltpFR	9	n/a	n/a	n/a	n/a	n/a	n/a	n/a	n/a	n/a	n/a	n/a	n/a	n/a	n/a	n/a
2767349	WORD	wordpools/wasnorm_wordpool_less_exclusions.txt	LTP244	ltpFR	9	11	1	SUPERVISOR	1410	n/a	1	n/a	0	0	0	1	0.412841796875	0.57763671875	lower	../fonts/amplitud.ttf
2770362	START	n/a	LTP244	ltpFR	9	n/a	n/a	n/a	n/a	n/a	n/a	n/a	n/a	n/a	n/a	n/a	n/a	n/a	n/a	n/a
2771193	PROB	n/a	LTP244	ltpFR	9	n/a	n/a	n/a	n/a	n/a	n/a	14	8	3	3	n/a	n/a	n/a	n/a	n/a
2772907	PROB	n/a	LTP244	ltpFR	9	n/a	n/a	n/a	n/a	n/a	n/a	13	1	7	4	n/a	n/a	n/a	n/a	n/a
2775554	PROB	n/a	LTP244	ltpFR	9	n/a	n/a	n/a	n/a	n/a	n/a	19	7	3	9	n/a	n/a	n/a	n/a	n/a
2777334	PROB	n/a	LTP244	ltpFR	9	n/a	n/a	n/a	n/a	n/a	n/a	136	1	7	8	n/a	n/a	n/a	n/a	n/a
2779148	PROB	n/a	LTP244	ltpFR	9	n/a	n/a	n/a	n/a	n/a	n/a	11	7	2	3	n/a	n/a	n/a	n/a	n/a
2780480	PROB	n/a	LTP244	ltpFR	9	n/a	n/a	n/a	n/a	n/a	n/a	20	8	8	4	n/a	n/a	n/a	n/a	n/a
2782110	PROB	n/a	LTP244	ltpFR	9	n/a	n/a	n/a	n/a	n/a	n/a	9	4	2	3	n/a	n/a	n/a	n/a	n/a
2786361	STOP	n/a	LTP244	ltpFR	9	n/a	n/a	n/a	n/a	n/a	n/a	n/a	n/a	n/a	n/a	n/a	n/a	n/a	n/a	n/a
2787536	WORD	wordpools/wasnorm_wordpool_less_exclusions.txt	LTP244	ltpFR	9	11	1	DESK	452	n/a	0	n/a	0	0	0	1	0.412841796875	0.57763671875	lower	../fonts/amplitud.ttf
2790548	START	n/a	LTP244	ltpFR	9	n/a	n/a	n/a	n/a	n/a	n/a	n/a	n/a	n/a	n/a	n/a	n/a	n/a	n/a	n/a
2791713	PROB	n/a	LTP244	ltpFR	9	n/a	n/a	n/a	n/a	n/a	n/a	17	8	5	4	n/a	n/a	n/a	n/a	n/a
2793445	PROB	n/a	LTP244	ltpFR	9	n/a	n/a	n/a	n/a	n/a	n/a	21	4	9	9	n/a	n/a	n/a	n/a	n/a
2796722	PROB	n/a	LTP244	ltpFR	9	n/a	n/a	n/a	n/a	n/a	n/a	18	3	6	9	n/a	n/a	n/a	n/a	n/a
2798386	PROB	n/a	LTP244	ltpFR	9	n/a	n/a	n/a	n/a	n/a	n/a	13	4	3	6	n/a	n/a	n/a	n/a	n/a
2799751	PROB	n/a	LTP244	ltpFR	9	n/a	n/a	n/a	n/a	n/a	n/a	16	5	9	2	n/a	n/a	n/a	n/a	n/a
2801398	PROB	n/a	LTP244	ltpFR	9	n/a	n/a	n/a	n/a	n/a	n/a	13	5	7	1	n/a	n/a	n/a	n/a	n/a
2802813	PROB	n/a	LTP244	ltpFR	9	n/a	n/a	n/a	n/a	n/a	n/a	14	7	1	6	n/a	n/a	n/a	n/a	n/a
2804161	PROB	n/a	LTP244	ltpFR	9	n/a	n/a	n/a	n/a	n/a	n/a	12	6	4	2	n/a	n/a	n/a	n/a	n/a
2805502	STOP	n/a	LTP244	ltpFR	9	n/a	n/a	n/a	n/a	n/a	n/a	n/a	n/a	n/a	n/a	n/a	n/a	n/a	n/a	n/a
2807656	WORD	wordpools/wasnorm_wordpool_less_exclusions.txt	LTP244	ltpFR	9	11	1	NICOTINE	951	n/a	0	n/a	0	0	0	1	0.412841796875	0.57763671875	lower	../fonts/amplitud.ttf
2810668	START	n/a	LTP244	ltpFR	9	n/a	n/a	n/a	n/a	n/a	n/a	n/a	n/a	n/a	n/a	n/a	n/a	n/a	n/a	n/a
2811483	PROB	n/a	LTP244	ltpFR	9	n/a	n/a	n/a	n/a	n/a	n/a	6	3	2	1	n/a	n/a	n/a	n/a	n/a
2813014	PROB	n/a	LTP244	ltpFR	9	n/a	n/a	n/a	n/a	n/a	n/a	13	2	3	7	n/a	n/a	n/a	n/a	n/a
2814845	PROB	n/a	LTP244	ltpFR	9	n/a	n/a	n/a	n/a	n/a	n/a	16	9	2	5	n/a	n/a	n/a	n/a	n/a
2816775	PROB	n/a	LTP244	ltpFR	9	n/a	n/a	n/a	n/a	n/a	n/a	6	2	3	1	n/a	n/a	n/a	n/a	n/a
2818256	PROB	n/a	LTP244	ltpFR	9	n/a	n/a	n/a	n/a	n/a	n/a	17	7	3	7	n/a	n/a	n/a	n/a	n/a
2821418	PROB	n/a	LTP244	ltpFR	9	n/a	n/a	n/a	n/a	n/a	n/a	15	3	4	8	n/a	n/a	n/a	n/a	n/a
2823865	PROB	n/a	LTP244	ltpFR	9	n/a	n/a	n/a	n/a	n/a	n/a	10	6	1	4	n/a	n/a	n/a	n/a	n/a
2825174	STOP	n/a	LTP244	ltpFR	9	n/a	n/a	n/a	n/a	n/a	n/a	n/a	n/a	n/a	n/a	n/a	n/a	n/a	n/a	n/a
2827659	WORD	wordpools/wasnorm_wordpool_less_exclusions.txt	LTP244	ltpFR	9	11	1	COUSIN	392	n/a	3	n/a	0	0	0	1	0.412841796875	0.57763671875	lower	../fonts/amplitud.ttf
2828541	KEY_MSG	n/a	LTP244	ltpFR	9	11	n/a	n/a	n/a	n/a	n/a	n/a	0	0	0	n/a	n/a	n/a	n/a	n/a
2830672	START	n/a	LTP244	ltpFR	9	n/a	n/a	n/a	n/a	n/a	n/a	n/a	n/a	n/a	n/a	n/a	n/a	n/a	n/a	n/a
2831553	PROB	n/a	LTP244	ltpFR	9	n/a	n/a	n/a	n/a	n/a	n/a	10	4	2	4	n/a	n/a	n/a	n/a	n/a
2834149	PROB	n/a	LTP244	ltpFR	9	n/a	n/a	n/a	n/a	n/a	n/a	18	9	4	5	n/a	n/a	n/a	n/a	n/a
2836662	PROB	n/a	LTP244	ltpFR	9	n/a	n/a	n/a	n/a	n/a	n/a	11	2	7	2	n/a	n/a	n/a	n/a	n/a
2837894	PROB	n/a	LTP244	ltpFR	9	n/a	n/a	n/a	n/a	n/a	n/a	21	8	9	4	n/a	n/a	n/a	n/a	n/a
2840174	PROB	n/a	LTP244	ltpFR	9	n/a	n/a	n/a	n/a	n/a	n/a	15	5	6	4	n/a	n/a	n/a	n/a	n/a
2841988	PROB	n/a	LTP244	ltpFR	9	n/a	n/a	n/a	n/a	n/a	n/a	15	7	6	2	n/a	n/a	n/a	n/a	n/a
2844101	PROB	n/a	LTP244	ltpFR	9	n/a	n/a	n/a	n/a	n/a	n/a	11	4	4	3	n/a	n/a	n/a	n/a	n/a
2845606	STOP	n/a	LTP244	ltpFR	9	n/a	n/a	n/a	n/a	n/a	n/a	n/a	n/a	n/a	n/a	n/a	n/a	n/a	n/a	n/a
2847746	WORD	wordpools/wasnorm_wordpool_less_exclusions.txt	LTP244	ltpFR	9	11	1	SUPPER	1411	n/a	0	n/a	0	0	0	1	0.412841796875	0.57763671875	lower	../fonts/amplitud.ttf
2850758	START	n/a	LTP244	ltpFR	9	n/a	n/a	n/a	n/a	n/a	n/a	n/a	n/a	n/a	n/a	n/a	n/a	n/a	n/a	n/a
2851790	PROB	n/a	LTP244	ltpFR	9	n/a	n/a	n/a	n/a	n/a	n/a	7	4	1	2	n/a	n/a	n/a	n/a	n/a
2854437	PROB	n/a	LTP244	ltpFR	9	n/a	n/a	n/a	n/a	n/a	n/a	14	3	4	7	n/a	n/a	n/a	n/a	n/a
2856383	PROB	n/a	LTP244	ltpFR	9	n/a	n/a	n/a	n/a	n/a	n/a	22	9	4	9	n/a	n/a	n/a	n/a	n/a
2858813	PROB	n/a	LTP244	ltpFR	9	n/a	n/a	n/a	n/a	n/a	n/a	12	2	7	3	n/a	n/a	n/a	n/a	n/a
2861542	PROB	n/a	LTP244	ltpFR	9	n/a	n/a	n/a	n/a	n/a	n/a	20	8	9	3	n/a	n/a	n/a	n/a	n/a
2866750	STOP	n/a	LTP244	ltpFR	9	n/a	n/a	n/a	n/a	n/a	n/a	n/a	n/a	n/a	n/a	n/a	n/a	n/a	n/a	n/a
2867916	WORD	wordpools/wasnorm_wordpool_less_exclusions.txt	LTP244	ltpFR	9	11	1	KIWI	781	n/a	0	n/a	0	0	0	1	0.412841796875	0.57763671875	lower	../fonts/amplitud.ttf
2870928	START	n/a	LTP244	ltpFR	9	n/a	n/a	n/a	n/a	n/a	n/a	n/a	n/a	n/a	n/a	n/a	n/a	n/a	n/a	n/a
2871910	PROB	n/a	LTP244	ltpFR	9	n/a	n/a	n/a	n/a	n/a	n/a	16	2	5	9	n/a	n/a	n/a	n/a	n/a
2873857	PROB	n/a	LTP244	ltpFR	9	n/a	n/a	n/a	n/a	n/a	n/a	19	8	9	2	n/a	n/a	n/a	n/a	n/a
2876303	PROB	n/a	LTP244	ltpFR	9	n/a	n/a	n/a	n/a	n/a	n/a	10	4	4	2	n/a	n/a	n/a	n/a	n/a
2877784	PROB	n/a	LTP244	ltpFR	9	n/a	n/a	n/a	n/a	n/a	n/a	13	1	3	9	n/a	n/a	n/a	n/a	n/a
2879132	PROB	n/a	LTP244	ltpFR	9	n/a	n/a	n/a	n/a	n/a	n/a	18	8	2	8	n/a	n/a	n/a	n/a	n/a
2880514	PROB	n/a	LTP244	ltpFR	9	n/a	n/a	n/a	n/a	n/a	n/a	12	2	7	3	n/a	n/a	n/a	n/a	n/a
2882011	PROB	n/a	LTP244	ltpFR	9	n/a	n/a	n/a	n/a	n/a	n/a	21	5	7	9	n/a	n/a	n/a	n/a	n/a
2883809	PROB	n/a	LTP244	ltpFR	9	n/a	n/a	n/a	n/a	n/a	n/a	9	5	3	1	n/a	n/a	n/a	n/a	n/a
2885590	STOP	n/a	LTP244	ltpFR	9	n/a	n/a	n/a	n/a	n/a	n/a	n/a	n/a	n/a	n/a	n/a	n/a	n/a	n/a	n/a
2887803	WORD	wordpools/wasnorm_wordpool_less_exclusions.txt	LTP244	ltpFR	9	11	1	ORANGE	980	n/a	1	n/a	0	0	0	1	0.412841796875	0.57763671875	lower	../fonts/amplitud.ttf
2890815	START	n/a	LTP244	ltpFR	9	n/a	n/a	n/a	n/a	n/a	n/a	n/a	n/a	n/a	n/a	n/a	n/a	n/a	n/a	n/a
2891630	PROB	n/a	LTP244	ltpFR	9	n/a	n/a	n/a	n/a	n/a	n/a	13	4	2	7	n/a	n/a	n/a	n/a	n/a
2893445	PROB	n/a	LTP244	ltpFR	9	n/a	n/a	n/a	n/a	n/a	n/a	11	9	1	1	n/a	n/a	n/a	n/a	n/a
2894609	PROB	n/a	LTP244	ltpFR	9	n/a	n/a	n/a	n/a	n/a	n/a	13	3	1	9	n/a	n/a	n/a	n/a	n/a
2896240	PROB	n/a	LTP244	ltpFR	9	n/a	n/a	n/a	n/a	n/a	n/a	18	8	1	9	n/a	n/a	n/a	n/a	n/a
2897854	PROB	n/a	LTP244	ltpFR	9	n/a	n/a	n/a	n/a	n/a	n/a	17	7	2	8	n/a	n/a	n/a	n/a	n/a
2899951	PROB	n/a	LTP244	ltpFR	9	n/a	n/a	n/a	n/a	n/a	n/a	17	6	4	7	n/a	n/a	n/a	n/a	n/a
2901482	PROB	n/a	LTP244	ltpFR	9	n/a	n/a	n/a	n/a	n/a	n/a	18	2	7	9	n/a	n/a	n/a	n/a	n/a
2903047	PROB	n/a	LTP244	ltpFR	9	n/a	n/a	n/a	n/a	n/a	n/a	14	7	3	4	n/a	n/a	n/a	n/a	n/a
2904394	PROB	n/a	LTP244	ltpFR	9	n/a	n/a	n/a	n/a	n/a	n/a	11	3	5	3	n/a	n/a	n/a	n/a	n/a
2906006	STOP	n/a	LTP244	ltpFR	9	n/a	n/a	n/a	n/a	n/a	n/a	n/a	n/a	n/a	n/a	n/a	n/a	n/a	n/a	n/a
2907690	WORD	wordpools/wasnorm_wordpool_less_exclusions.txt	LTP244	ltpFR	9	11	1	RELATIVE	1182	n/a	1	n/a	0	0	0	1	0.412841796875	0.57763671875	lower	../fonts/amplitud.ttf
2910702	START	n/a	LTP244	ltpFR	9	n/a	n/a	n/a	n/a	n/a	n/a	n/a	n/a	n/a	n/a	n/a	n/a	n/a	n/a	n/a
2911767	PROB	n/a	LTP244	ltpFR	9	n/a	n/a	n/a	n/a	n/a	n/a	23	9	5	9	n/a	n/a	n/a	n/a	n/a
2914197	PROB	n/a	LTP244	ltpFR	9	n/a	n/a	n/a	n/a	n/a	n/a	10	5	2	3	n/a	n/a	n/a	n/a	n/a
2915678	PROB	n/a	LTP244	ltpFR	9	n/a	n/a	n/a	n/a	n/a	n/a	11	3	6	2	n/a	n/a	n/a	n/a	n/a
2917042	PROB	n/a	LTP244	ltpFR	9	n/a	n/a	n/a	n/a	n/a	n/a	15	6	2	9	n/a	n/a	n/a	n/a	n/a
2918458	PROB	n/a	LTP244	ltpFR	9	n/a	n/a	n/a	n/a	n/a	n/a	22	7	9	6	n/a	n/a	n/a	n/a	n/a
2920438	PROB	n/a	LTP244	ltpFR	9	n/a	n/a	n/a	n/a	n/a	n/a	16	6	4	6	n/a	n/a	n/a	n/a	n/a
2921735	PROB	n/a	LTP244	ltpFR	9	n/a	n/a	n/a	n/a	n/a	n/a	18	7	5	6	n/a	n/a	n/a	n/a	n/a
2923266	PROB	n/a	LTP244	ltpFR	9	n/a	n/a	n/a	n/a	n/a	n/a	13	8	4	1	n/a	n/a	n/a	n/a	n/a
2924598	PROB	n/a	LTP244	ltpFR	9	n/a	n/a	n/a	n/a	n/a	n/a	196	6	8	5	n/a	n/a	n/a	n/a	n/a
2926230	STOP	n/a	LTP244	ltpFR	9	n/a	n/a	n/a	n/a	n/a	n/a	n/a	n/a	n/a	n/a	n/a	n/a	n/a	n/a	n/a
2927859	WORD	wordpools/wasnorm_wordpool_less_exclusions.txt	LTP244	ltpFR	9	11	1	BRIEFCASE	175	n/a	0	n/a	0	0	0	1	0.412841796875	0.57763671875	lower	../fonts/amplitud.ttf
2930872	START	n/a	LTP244	ltpFR	9	n/a	n/a	n/a	n/a	n/a	n/a	n/a	n/a	n/a	n/a	n/a	n/a	n/a	n/a	n/a
2931953	PROB	n/a	LTP244	ltpFR	9	n/a	n/a	n/a	n/a	n/a	n/a	17	6	8	3	n/a	n/a	n/a	n/a	n/a
2933784	PROB	n/a	LTP244	ltpFR	9	n/a	n/a	n/a	n/a	n/a	n/a	9	4	4	1	n/a	n/a	n/a	n/a	n/a
2934965	PROB	n/a	LTP244	ltpFR	9	n/a	n/a	n/a	n/a	n/a	n/a	7	2	3	2	n/a	n/a	n/a	n/a	n/a
2936613	PROB	n/a	LTP244	ltpFR	9	n/a	n/a	n/a	n/a	n/a	n/a	10	3	4	3	n/a	n/a	n/a	n/a	n/a
2938627	PROB	n/a	LTP244	ltpFR	9	n/a	n/a	n/a	n/a	n/a	n/a	15	7	1	7	n/a	n/a	n/a	n/a	n/a
2940091	PROB	n/a	LTP244	ltpFR	9	n/a	n/a	n/a	n/a	n/a	n/a	12	7	1	4	n/a	n/a	n/a	n/a	n/a
2942038	PROB	n/a	LTP244	ltpFR	9	n/a	n/a	n/a	n/a	n/a	n/a	14	5	1	4	n/a	n/a	n/a	n/a	n/a
2943736	PROB	n/a	LTP244	ltpFR	9	n/a	n/a	n/a	n/a	n/a	n/a	16	2	8	7	n/a	n/a	n/a	n/a	n/a
2945910	STOP	n/a	LTP244	ltpFR	9	n/a	n/a	n/a	n/a	n/a	n/a	n/a	n/a	n/a	n/a	n/a	n/a	n/a	n/a	n/a
2947696	WORD	wordpools/wasnorm_wordpool_less_exclusions.txt	LTP244	ltpFR	9	11	1	CONTAINER	366	n/a	0	n/a	0	0	0	1	0.412841796875	0.57763671875	lower	../fonts/amplitud.ttf
2950709	START	n/a	LTP244	ltpFR	9	n/a	n/a	n/a	n/a	n/a	n/a	n/a	n/a	n/a	n/a	n/a	n/a	n/a	n/a	n/a
2951641	PROB	n/a	LTP244	ltpFR	9	n/a	n/a	n/a	n/a	n/a	n/a	1	5	9	2	n/a	n/a	n/a	n/a	n/a
2953970	PROB	n/a	LTP244	ltpFR	9	n/a	n/a	n/a	n/a	n/a	n/a	16	6	3	7	n/a	n/a	n/a	n/a	n/a
2956151	PROB	n/a	LTP244	ltpFR	9	n/a	n/a	n/a	n/a	n/a	n/a	20	9	5	6	n/a	n/a	n/a	n/a	n/a
2957848	PROB	n/a	LTP244	ltpFR	9	n/a	n/a	n/a	n/a	n/a	n/a	23	7	8	8	n/a	n/a	n/a	n/a	n/a
2959778	PROB	n/a	LTP244	ltpFR	9	n/a	n/a	n/a	n/a	n/a	n/a	17	7	2	8	n/a	n/a	n/a	n/a	n/a
2961359	PROB	n/a	LTP244	ltpFR	9	n/a	n/a	n/a	n/a	n/a	n/a	12	9	1	2	n/a	n/a	n/a	n/a	n/a
2962774	PROB	n/a	LTP244	ltpFR	9	n/a	n/a	n/a	n/a	n/a	n/a	21	9	7	5	n/a	n/a	n/a	n/a	n/a
2966709	STOP	n/a	LTP244	ltpFR	9	n/a	n/a	n/a	n/a	n/a	n/a	n/a	n/a	n/a	n/a	n/a	n/a	n/a	n/a	n/a
2967717	WORD	wordpools/wasnorm_wordpool_less_exclusions.txt	LTP244	ltpFR	9	11	1	OPERA	978	n/a	0	n/a	0	0	0	1	0.412841796875	0.57763671875	lower	../fonts/amplitud.ttf
2970729	START	n/a	LTP244	ltpFR	9	n/a	n/a	n/a	n/a	n/a	n/a	n/a	n/a	n/a	n/a	n/a	n/a	n/a	n/a	n/a
2971727	PROB	n/a	LTP244	ltpFR	9	n/a	n/a	n/a	n/a	n/a	n/a	12	1	9	2	n/a	n/a	n/a	n/a	n/a
2973009	PROB	n/a	LTP244	ltpFR	9	n/a	n/a	n/a	n/a	n/a	n/a	3	8	7	7	n/a	n/a	n/a	n/a	n/a
2974856	PROB	n/a	LTP244	ltpFR	9	n/a	n/a	n/a	n/a	n/a	n/a	13	3	8	2	n/a	n/a	n/a	n/a	n/a
2976687	PROB	n/a	LTP244	ltpFR	9	n/a	n/a	n/a	n/a	n/a	n/a	15	1	6	8	n/a	n/a	n/a	n/a	n/a
2978267	PROB	n/a	LTP244	ltpFR	9	n/a	n/a	n/a	n/a	n/a	n/a	2	4	9	6	n/a	n/a	n/a	n/a	n/a
2980697	PROB	n/a	LTP244	ltpFR	9	n/a	n/a	n/a	n/a	n/a	n/a	19	2	8	9	n/a	n/a	n/a	n/a	n/a
2983543	PROB	n/a	LTP244	ltpFR	9	n/a	n/a	n/a	n/a	n/a	n/a	14	7	3	4	n/a	n/a	n/a	n/a	n/a
2985318	STOP	n/a	LTP244	ltpFR	9	n/a	n/a	n/a	n/a	n/a	n/a	n/a	n/a	n/a	n/a	n/a	n/a	n/a	n/a	n/a
2987770	WORD	wordpools/wasnorm_wordpool_less_exclusions.txt	LTP244	ltpFR	9	11	1	FAMILY	550	n/a	1	n/a	0	0	0	1	0.412841796875	0.57763671875	lower	../fonts/amplitud.ttf
2990783	START	n/a	LTP244	ltpFR	9	n/a	n/a	n/a	n/a	n/a	n/a	n/a	n/a	n/a	n/a	n/a	n/a	n/a	n/a	n/a
2991697	PROB	n/a	LTP244	ltpFR	9	n/a	n/a	n/a	n/a	n/a	n/a	12	8	1	3	n/a	n/a	n/a	n/a	n/a
2993262	PROB	n/a	LTP244	ltpFR	9	n/a	n/a	n/a	n/a	n/a	n/a	14	3	6	5	n/a	n/a	n/a	n/a	n/a
2995226	PROB	n/a	LTP244	ltpFR	9	n/a	n/a	n/a	n/a	n/a	n/a	16	7	6	3	n/a	n/a	n/a	n/a	n/a
2997473	PROB	n/a	LTP244	ltpFR	9	n/a	n/a	n/a	n/a	n/a	n/a	24	9	7	8	n/a	n/a	n/a	n/a	n/a
2999519	PROB	n/a	LTP244	ltpFR	9	n/a	n/a	n/a	n/a	n/a	n/a	10	3	6	1	n/a	n/a	n/a	n/a	n/a
3000984	PROB	n/a	LTP244	ltpFR	9	n/a	n/a	n/a	n/a	n/a	n/a	14	4	7	3	n/a	n/a	n/a	n/a	n/a
3002515	PROB	n/a	LTP244	ltpFR	9	n/a	n/a	n/a	n/a	n/a	n/a	7	1	5	1	n/a	n/a	n/a	n/a	n/a
3004478	PROB	n/a	LTP244	ltpFR	9	n/a	n/a	n/a	n/a	n/a	n/a	15	4	5	6	n/a	n/a	n/a	n/a	n/a
3006262	STOP	n/a	LTP244	ltpFR	9	n/a	n/a	n/a	n/a	n/a	n/a	n/a	n/a	n/a	n/a	n/a	n/a	n/a	n/a	n/a
3007990	WORD	wordpools/wasnorm_wordpool_less_exclusions.txt	LTP244	ltpFR	9	11	1	CANARY	227	n/a	1	n/a	0	0	0	1	0.412841796875	0.57763671875	lower	../fonts/amplitud.ttf
3011002	START	n/a	LTP244	ltpFR	9	n/a	n/a	n/a	n/a	n/a	n/a	n/a	n/a	n/a	n/a	n/a	n/a	n/a	n/a	n/a
3011884	PROB	n/a	LTP244	ltpFR	9	n/a	n/a	n/a	n/a	n/a	n/a	16	6	8	2	n/a	n/a	n/a	n/a	n/a
3013615	PROB	n/a	LTP244	ltpFR	9	n/a	n/a	n/a	n/a	n/a	n/a	18	1	9	8	n/a	n/a	n/a	n/a	n/a
3014963	PROB	n/a	LTP244	ltpFR	9	n/a	n/a	n/a	n/a	n/a	n/a	19	7	5	7	n/a	n/a	n/a	n/a	n/a
3016544	PROB	n/a	LTP244	ltpFR	9	n/a	n/a	n/a	n/a	n/a	n/a	17	7	8	2	n/a	n/a	n/a	n/a	n/a
