mstime	trial_type	stim_file	subject	experiment	session	trial	task	item_name	item_num	recog_conf	resp	color_b	color_g	color_r	case	font
0	SESS_START	n/a	LTP129	ltpFR	1	n/a	n/a	n/a	n/a	5	n/a	n/a	n/a	n/a	n/a	n/a
120213	WORD	wordpools/wasnorm_wordpool.txt	LTP129	ltpFR	1	1	0	CAPITAL	238	n/a	1	0	0.5869140625	0.422607421875	upper	../fonts/zerothre.ttf
124092	WORD	wordpools/wasnorm_wordpool.txt	LTP129	ltpFR	1	1	0	GENERAL	630	n/a	1	0	0.5869140625	0.422607421875	upper	../fonts/zerothre.ttf
128029	WORD	wordpools/wasnorm_wordpool.txt	LTP129	ltpFR	1	1	1	SHEEP	1278	n/a	1	1	0.412841796875	0.57763671875	lower	../fonts/amplitud.ttf
131900	WORD	wordpools/wasnorm_wordpool.txt	LTP129	ltpFR	1	1	1	MAMMAL	861	n/a	1	1	0.412841796875	0.57763671875	lower	../fonts/amplitud.ttf
135895	WORD	wordpools/wasnorm_wordpool.txt	LTP129	ltpFR	1	1	0	CAGE	218	n/a	0	0	0.5869140625	0.422607421875	upper	../fonts/zerothre.ttf
139708	WORD	wordpools/wasnorm_wordpool.txt	LTP129	ltpFR	1	1	0	EWE	542	n/a	0	0	0.5869140625	0.422607421875	upper	../fonts/zerothre.ttf
143878	WORD	wordpools/wasnorm_wordpool.txt	LTP129	ltpFR	1	1	0	MONSTER	912	n/a	1	0	0.5869140625	0.422607421875	upper	../fonts/zerothre.ttf
148006	WORD	wordpools/wasnorm_wordpool.txt	LTP129	ltpFR	1	1	0	AWARD	63	n/a	0	0	0.5869140625	0.422607421875	upper	../fonts/zerothre.ttf
152077	WORD	wordpools/wasnorm_wordpool.txt	LTP129	ltpFR	1	1	1	BANJO	82	n/a	0	1	0.412841796875	0.57763671875	lower	../fonts/amplitud.ttf
156189	WORD	wordpools/wasnorm_wordpool.txt	LTP129	ltpFR	1	1	1	TRUMPET	1513	n/a	0	1	0.412841796875	0.57763671875	lower	../fonts/amplitud.ttf
160059	WORD	wordpools/wasnorm_wordpool.txt	LTP129	ltpFR	1	1	1	SKIRT	1319	n/a	0	1	0.412841796875	0.57763671875	lower	../fonts/amplitud.ttf
163971	WORD	wordpools/wasnorm_wordpool.txt	LTP129	ltpFR	1	1	1	CROW	414	n/a	1	1	0.412841796875	0.57763671875	lower	../fonts/amplitud.ttf
167992	WORD	wordpools/wasnorm_wordpool.txt	LTP129	ltpFR	1	1	1	CHAMPAGNE	278	n/a	0	1	0.412841796875	0.57763671875	lower	../fonts/amplitud.ttf
172028	WORD	wordpools/wasnorm_wordpool.txt	LTP129	ltpFR	1	1	1	SOCKET	1340	n/a	0	1	0.412841796875	0.57763671875	lower	../fonts/amplitud.ttf
175941	WORD	wordpools/wasnorm_wordpool.txt	LTP129	ltpFR	1	1	0	CASH	252	n/a	0	0	0.5869140625	0.422607421875	upper	../fonts/zerothre.ttf
180086	WORD	wordpools/wasnorm_wordpool.txt	LTP129	ltpFR	1	1	0	POLYESTER	1100	n/a	0	0	0.5869140625	0.422607421875	upper	../fonts/zerothre.ttf
186071	REC_START	n/a	LTP129	ltpFR	1	1	n/a	n/a	n/a	n/a	n/a	n/a	n/a	n/a	n/a	n/a
187597	REC_WORD	wordpools/wasnorm_wordpool.txt	LTP129	ltpFR	1	1	0	POLYESTER	1100	n/a	0	n/a	n/a	n/a	n/a	n/a
189029	REC_WORD	wordpools/wasnorm_wordpool.txt	LTP129	ltpFR	1	1	1	SOCKET	1340	n/a	0	n/a	n/a	n/a	n/a	n/a
191035	REC_WORD	wordpools/wasnorm_wordpool.txt	LTP129	ltpFR	1	1	0	CAGE	218	n/a	0	n/a	n/a	n/a	n/a	n/a
205122	REC_WORD	wordpools/wasnorm_wordpool.txt	LTP129	ltpFR	1	1	1	MAMMAL	861	n/a	1	n/a	n/a	n/a	n/a	n/a
215140	REC_WORD	wordpools/wasnorm_wordpool.txt	LTP129	ltpFR	1	1	1	SKIRT	1319	n/a	0	n/a	n/a	n/a	n/a	n/a
230999	REC_WORD	wordpools/wasnorm_wordpool.txt	LTP129	ltpFR	1	1	0	AWARD	63	n/a	0	n/a	n/a	n/a	n/a	n/a
234536	REC_WORD	wordpools/wasnorm_wordpool.txt	LTP129	ltpFR	1	1	0	EWE	542	n/a	0	n/a	n/a	n/a	n/a	n/a
288377	WORD	wordpools/wasnorm_wordpool.txt	LTP129	ltpFR	1	2	1	OATMEAL	967	n/a	0	1	0.412841796875	0.57763671875	lower	../fonts/amplitud.ttf
292239	WORD	wordpools/wasnorm_wordpool.txt	LTP129	ltpFR	1	2	1	SIDING	1304	n/a	0	1	0.412841796875	0.57763671875	lower	../fonts/amplitud.ttf
296433	WORD	wordpools/wasnorm_wordpool.txt	LTP129	ltpFR	1	2	1	FURNITURE	616	n/a	0	1	0.412841796875	0.57763671875	lower	../fonts/amplitud.ttf
300313	WORD	wordpools/wasnorm_wordpool.txt	LTP129	ltpFR	1	2	1	FAMILY	550	n/a	1	1	0.412841796875	0.57763671875	lower	../fonts/amplitud.ttf
304317	WORD	wordpools/wasnorm_wordpool.txt	LTP129	ltpFR	1	2	0	CARDINAL	244	n/a	1	0	0.5869140625	0.422607421875	upper	../fonts/zerothre.ttf
308296	WORD	wordpools/wasnorm_wordpool.txt	LTP129	ltpFR	1	2	0	APRON	35	n/a	0	0	0.5869140625	0.422607421875	upper	../fonts/zerothre.ttf
312349	WORD	wordpools/wasnorm_wordpool.txt	LTP129	ltpFR	1	2	0	SILK	1307	n/a	0	0	0.5869140625	0.422607421875	upper	../fonts/zerothre.ttf
316395	WORD	wordpools/wasnorm_wordpool.txt	LTP129	ltpFR	1	2	0	TROUT	1511	n/a	1	0	0.5869140625	0.422607421875	upper	../fonts/zerothre.ttf
320265	WORD	wordpools/wasnorm_wordpool.txt	LTP129	ltpFR	1	2	0	DAISY	435	n/a	0	0	0.5869140625	0.422607421875	upper	../fonts/zerothre.ttf
324119	WORD	wordpools/wasnorm_wordpool.txt	LTP129	ltpFR	1	2	0	LACE	792	n/a	0	0	0.5869140625	0.422607421875	upper	../fonts/zerothre.ttf
328181	WORD	wordpools/wasnorm_wordpool.txt	LTP129	ltpFR	1	2	1	STY	1397	n/a	1	1	0.412841796875	0.57763671875	lower	../fonts/amplitud.ttf
332235	WORD	wordpools/wasnorm_wordpool.txt	LTP129	ltpFR	1	2	1	PORK	1108	n/a	0	1	0.412841796875	0.57763671875	lower	../fonts/amplitud.ttf
336097	WORD	wordpools/wasnorm_wordpool.txt	LTP129	ltpFR	1	2	1	ROSE	1212	n/a	0	1	0.412841796875	0.57763671875	lower	../fonts/amplitud.ttf
340175	WORD	wordpools/wasnorm_wordpool.txt	LTP129	ltpFR	1	2	1	BEAVER	109	n/a	1	1	0.412841796875	0.57763671875	lower	../fonts/amplitud.ttf
344204	WORD	wordpools/wasnorm_wordpool.txt	LTP129	ltpFR	1	2	0	CHIPMUNK	304	n/a	0	0	0.5869140625	0.422607421875	upper	../fonts/zerothre.ttf
348383	WORD	wordpools/wasnorm_wordpool.txt	LTP129	ltpFR	1	2	0	POLITICIAN	1099	n/a	1	0	0.5869140625	0.422607421875	upper	../fonts/zerothre.ttf
354118	REC_START	n/a	LTP129	ltpFR	1	2	n/a	n/a	n/a	n/a	n/a	n/a	n/a	n/a	n/a	n/a
355445	REC_WORD	wordpools/wasnorm_wordpool.txt	LTP129	ltpFR	1	2	0	POLITICIAN	1099	n/a	1	n/a	n/a	n/a	n/a	n/a
359655	REC_WORD	wordpools/wasnorm_wordpool.txt	LTP129	ltpFR	1	2	1	FURNITURE	616	n/a	0	n/a	n/a	n/a	n/a	n/a
361217	REC_WORD	wordpools/wasnorm_wordpool.txt	LTP129	ltpFR	1	2	1	SIDING	1304	n/a	0	n/a	n/a	n/a	n/a	n/a
375250	REC_WORD	wordpools/wasnorm_wordpool.txt	LTP129	ltpFR	1	2	0	CARDINAL	244	n/a	1	n/a	n/a	n/a	n/a	n/a
392321	REC_WORD	wordpools/wasnorm_wordpool.txt	LTP129	ltpFR	1	2	0	LACE	792	n/a	0	n/a	n/a	n/a	n/a	n/a
394087	REC_WORD	wordpools/wasnorm_wordpool.txt	LTP129	ltpFR	1	2	0	SILK	1307	n/a	0	n/a	n/a	n/a	n/a	n/a
412505	REC_WORD	wordpools/wasnorm_wordpool.txt	LTP129	ltpFR	1	2	1	PORK	1108	n/a	0	n/a	n/a	n/a	n/a	n/a
413583	REC_WORD	wordpools/wasnorm_wordpool.txt	LTP129	ltpFR	1	2	1	STY	1397	n/a	1	n/a	n/a	n/a	n/a	n/a
425710	REC_WORD	wordpools/wasnorm_wordpool.txt	LTP129	ltpFR	1	2	1	ROSE	1212	n/a	0	n/a	n/a	n/a	n/a	n/a
470266	WORD	wordpools/wasnorm_wordpool.txt	LTP129	ltpFR	1	3	0	BAY	102	n/a	1	0	0.5869140625	0.422607421875	upper	../fonts/zerothre.ttf
474452	WORD	wordpools/wasnorm_wordpool.txt	LTP129	ltpFR	1	3	0	WHISTLE	1606	n/a	0	0	0.5869140625	0.422607421875	upper	../fonts/zerothre.ttf
478456	WORD	wordpools/wasnorm_wordpool.txt	LTP129	ltpFR	1	3	0	CELERY	266	n/a	0	0	0.5869140625	0.422607421875	upper	../fonts/zerothre.ttf
482493	WORD	wordpools/wasnorm_wordpool.txt	LTP129	ltpFR	1	3	0	GHETTO	633	n/a	1	0	0.5869140625	0.422607421875	upper	../fonts/zerothre.ttf
486530	WORD	wordpools/wasnorm_wordpool.txt	LTP129	ltpFR	1	3	0	BIRD	129	n/a	0	0	0.5869140625	0.422607421875	upper	../fonts/zerothre.ttf
490684	WORD	wordpools/wasnorm_wordpool.txt	LTP129	ltpFR	1	3	0	ORANGE	980	n/a	0	0	0.5869140625	0.422607421875	upper	../fonts/zerothre.ttf
494680	WORD	wordpools/wasnorm_wordpool.txt	LTP129	ltpFR	1	3	0	MONGOOSE	909	n/a	1	0	0.5869140625	0.422607421875	upper	../fonts/zerothre.ttf
498566	WORD	wordpools/wasnorm_wordpool.txt	LTP129	ltpFR	1	3	0	LIZARD	834	n/a	1	0	0.5869140625	0.422607421875	upper	../fonts/zerothre.ttf
502687	WORD	wordpools/wasnorm_wordpool.txt	LTP129	ltpFR	1	3	0	STEREO	1378	n/a	0	0	0.5869140625	0.422607421875	upper	../fonts/zerothre.ttf
506633	WORD	wordpools/wasnorm_wordpool.txt	LTP129	ltpFR	1	3	0	SERVANT	1271	n/a	1	0	0.5869140625	0.422607421875	upper	../fonts/zerothre.ttf
510711	WORD	wordpools/wasnorm_wordpool.txt	LTP129	ltpFR	1	3	0	LETTUCE	814	n/a	0	0	0.5869140625	0.422607421875	upper	../fonts/zerothre.ttf
514740	WORD	wordpools/wasnorm_wordpool.txt	LTP129	ltpFR	1	3	0	PUPIL	1143	n/a	1	0	0.5869140625	0.422607421875	upper	../fonts/zerothre.ttf
518927	WORD	wordpools/wasnorm_wordpool.txt	LTP129	ltpFR	1	3	0	MINER	896	n/a	1	0	0.5869140625	0.422607421875	upper	../fonts/zerothre.ttf
522964	WORD	wordpools/wasnorm_wordpool.txt	LTP129	ltpFR	1	3	0	LOG	841	n/a	1	0	0.5869140625	0.422607421875	upper	../fonts/zerothre.ttf
526818	WORD	wordpools/wasnorm_wordpool.txt	LTP129	ltpFR	1	3	0	SEED	1266	n/a	0	0	0.5869140625	0.422607421875	upper	../fonts/zerothre.ttf
530671	WORD	wordpools/wasnorm_wordpool.txt	LTP129	ltpFR	1	3	0	ROOT	1210	n/a	1	0	0.5869140625	0.422607421875	upper	../fonts/zerothre.ttf
536539	REC_START	n/a	LTP129	ltpFR	1	3	n/a	n/a	n/a	n/a	n/a	n/a	n/a	n/a	n/a	n/a
537985	REC_WORD	wordpools/wasnorm_wordpool.txt	LTP129	ltpFR	1	3	0	LOG	841	n/a	1	n/a	n/a	n/a	n/a	n/a
538863	REC_WORD	wordpools/wasnorm_wordpool.txt	LTP129	ltpFR	1	3	0	SEED	1266	n/a	0	n/a	n/a	n/a	n/a	n/a
540150	REC_WORD	wordpools/wasnorm_wordpool.txt	LTP129	ltpFR	1	3	0	ROOT	1210	n/a	1	n/a	n/a	n/a	n/a	n/a
541378	REC_WORD	wordpools/wasnorm_wordpool.txt	LTP129	ltpFR	1	3	0	MINER	896	n/a	1	n/a	n/a	n/a	n/a	n/a
563064	REC_WORD	wordpools/wasnorm_wordpool.txt	LTP129	ltpFR	1	3	0	PUPIL	1143	n/a	1	n/a	n/a	n/a	n/a	n/a
578903	REC_WORD	wordpools/wasnorm_wordpool.txt	LTP129	ltpFR	1	3	0	ORANGE	980	n/a	0	n/a	n/a	n/a	n/a	n/a
596163	REC_WORD	wordpools/wasnorm_wordpool.txt	LTP129	ltpFR	1	3	0	WHISTLE	1606	n/a	0	n/a	n/a	n/a	n/a	n/a
602434	REC_WORD	wordpools/wasnorm_wordpool.txt	LTP129	ltpFR	1	3	0	BAY	102	n/a	1	n/a	n/a	n/a	n/a	n/a
627359	WORD	wordpools/wasnorm_wordpool.txt	LTP129	ltpFR	1	4	0	ACID	2	n/a	0	0	0.5869140625	0.422607421875	upper	../fonts/zerothre.ttf
631529	WORD	wordpools/wasnorm_wordpool.txt	LTP129	ltpFR	1	4	0	CHEMIST	292	n/a	1	0	0.5869140625	0.422607421875	upper	../fonts/zerothre.ttf
635417	WORD	wordpools/wasnorm_wordpool.txt	LTP129	ltpFR	1	4	0	WINDSHIELD	1612	n/a	1	0	0.5869140625	0.422607421875	upper	../fonts/zerothre.ttf
639544	WORD	wordpools/wasnorm_wordpool.txt	LTP129	ltpFR	1	4	0	VAN	1548	n/a	1	0	0.5869140625	0.422607421875	upper	../fonts/zerothre.ttf
643531	WORD	wordpools/wasnorm_wordpool.txt	LTP129	ltpFR	1	4	1	STUDENT	1395	n/a	1	1	0.412841796875	0.57763671875	lower	../fonts/amplitud.ttf
647593	WORD	wordpools/wasnorm_wordpool.txt	LTP129	ltpFR	1	4	1	TURKEY	1520	n/a	1	1	0.412841796875	0.57763671875	lower	../fonts/amplitud.ttf
651472	WORD	wordpools/wasnorm_wordpool.txt	LTP129	ltpFR	1	4	1	SUBWAY	1400	n/a	0	1	0.412841796875	0.57763671875	lower	../fonts/amplitud.ttf
655476	WORD	wordpools/wasnorm_wordpool.txt	LTP129	ltpFR	1	4	1	ARTERY	41	n/a	1	1	0.412841796875	0.57763671875	lower	../fonts/amplitud.ttf
659538	WORD	wordpools/wasnorm_wordpool.txt	LTP129	ltpFR	1	4	0	SAUSAGE	1238	n/a	1	0	0.5869140625	0.422607421875	upper	../fonts/zerothre.ttf
663475	WORD	wordpools/wasnorm_wordpool.txt	LTP129	ltpFR	1	4	0	HOOP	716	n/a	0	0	0.5869140625	0.422607421875	upper	../fonts/zerothre.ttf
667322	WORD	wordpools/wasnorm_wordpool.txt	LTP129	ltpFR	1	4	0	DIAMOND	458	n/a	0	0	0.5869140625	0.422607421875	upper	../fonts/zerothre.ttf
671325	WORD	wordpools/wasnorm_wordpool.txt	LTP129	ltpFR	1	4	0	VALVE	1546	n/a	0	0	0.5869140625	0.422607421875	upper	../fonts/zerothre.ttf
675204	WORD	wordpools/wasnorm_wordpool.txt	LTP129	ltpFR	1	4	1	GRADUATE	653	n/a	1	1	0.412841796875	0.57763671875	lower	../fonts/amplitud.ttf
679191	WORD	wordpools/wasnorm_wordpool.txt	LTP129	ltpFR	1	4	1	KANGAROO	768	n/a	1	1	0.412841796875	0.57763671875	lower	../fonts/amplitud.ttf
683003	WORD	wordpools/wasnorm_wordpool.txt	LTP129	ltpFR	1	4	1	PURSE	1145	n/a	0	1	0.412841796875	0.57763671875	lower	../fonts/amplitud.ttf
686816	WORD	wordpools/wasnorm_wordpool.txt	LTP129	ltpFR	1	4	1	WALNUT	1584	n/a	0	1	0.412841796875	0.57763671875	lower	../fonts/amplitud.ttf
692592	REC_START	n/a	LTP129	ltpFR	1	4	n/a	n/a	n/a	n/a	n/a	n/a	n/a	n/a	n/a	n/a
694283	REC_WORD	wordpools/wasnorm_wordpool.txt	LTP129	ltpFR	1	4	1	WALNUT	1584	n/a	0	n/a	n/a	n/a	n/a	n/a
696977	REC_WORD	wordpools/wasnorm_wordpool.txt	LTP129	ltpFR	1	4	1	PURSE	1145	n/a	0	n/a	n/a	n/a	n/a	n/a
697994	REC_WORD	wordpools/wasnorm_wordpool.txt	LTP129	ltpFR	1	4	1	GRADUATE	653	n/a	1	n/a	n/a	n/a	n/a	n/a
736637	REC_WORD	wordpools/wasnorm_wordpool.txt	LTP129	ltpFR	1	4	0	GHETTO	633	n/a	1	n/a	n/a	n/a	n/a	n/a
790561	WORD	wordpools/wasnorm_wordpool.txt	LTP129	ltpFR	1	5	0	YOLK	1633	n/a	0	0	0.5869140625	0.422607421875	upper	../fonts/zerothre.ttf
794532	WORD	wordpools/wasnorm_wordpool.txt	LTP129	ltpFR	1	5	0	PRINTER	1126	n/a	1	0	0.5869140625	0.422607421875	upper	../fonts/zerothre.ttf
798611	WORD	wordpools/wasnorm_wordpool.txt	LTP129	ltpFR	1	5	1	KLEENEX	782	n/a	0	1	0.412841796875	0.57763671875	lower	../fonts/amplitud.ttf
802539	WORD	wordpools/wasnorm_wordpool.txt	LTP129	ltpFR	1	5	1	SURGEON	1413	n/a	1	1	0.412841796875	0.57763671875	lower	../fonts/amplitud.ttf
806727	WORD	wordpools/wasnorm_wordpool.txt	LTP129	ltpFR	1	5	1	UNIFORM	1539	n/a	0	1	0.412841796875	0.57763671875	lower	../fonts/amplitud.ttf
810655	WORD	wordpools/wasnorm_wordpool.txt	LTP129	ltpFR	1	5	1	SKILLET	1317	n/a	0	1	0.412841796875	0.57763671875	lower	../fonts/amplitud.ttf
814659	WORD	wordpools/wasnorm_wordpool.txt	LTP129	ltpFR	1	5	1	FOLDER	588	n/a	0	1	0.412841796875	0.57763671875	lower	../fonts/amplitud.ttf
818512	WORD	wordpools/wasnorm_wordpool.txt	LTP129	ltpFR	1	5	1	WRITER	1627	n/a	1	1	0.412841796875	0.57763671875	lower	../fonts/amplitud.ttf
822658	WORD	wordpools/wasnorm_wordpool.txt	LTP129	ltpFR	1	5	0	SAP	1233	n/a	0	0	0.5869140625	0.422607421875	upper	../fonts/zerothre.ttf
826545	WORD	wordpools/wasnorm_wordpool.txt	LTP129	ltpFR	1	5	0	GARDEN	623	n/a	1	0	0.5869140625	0.422607421875	upper	../fonts/zerothre.ttf
830741	WORD	wordpools/wasnorm_wordpool.txt	LTP129	ltpFR	1	5	0	TURNIP	1521	n/a	0	0	0.5869140625	0.422607421875	upper	../fonts/zerothre.ttf
834636	WORD	wordpools/wasnorm_wordpool.txt	LTP129	ltpFR	1	5	0	HATCHET	691	n/a	n/a	0	0.5869140625	0.422607421875	upper	../fonts/zerothre.ttf
837658	SLOW_MSG	n/a	LTP129	ltpFR	1	5	n/a	n/a	n/a	n/a	n/a	n/a	n/a	n/a	n/a	n/a
840263	WORD	wordpools/wasnorm_wordpool.txt	LTP129	ltpFR	1	5	1	COACH	331	n/a	1	1	0.412841796875	0.57763671875	lower	../fonts/amplitud.ttf
844408	WORD	wordpools/wasnorm_wordpool.txt	LTP129	ltpFR	1	5	1	BLENDER	136	n/a	0	1	0.412841796875	0.57763671875	lower	../fonts/amplitud.ttf
848287	WORD	wordpools/wasnorm_wordpool.txt	LTP129	ltpFR	1	5	0	DRAWER	493	n/a	0	0	0.5869140625	0.422607421875	upper	../fonts/zerothre.ttf
852157	WORD	wordpools/wasnorm_wordpool.txt	LTP129	ltpFR	1	5	0	CREATURE	403	n/a	1	0	0.5869140625	0.422607421875	upper	../fonts/zerothre.ttf
858026	REC_START	n/a	LTP129	ltpFR	1	5	n/a	n/a	n/a	n/a	n/a	n/a	n/a	n/a	n/a	n/a
859258	REC_WORD	wordpools/wasnorm_wordpool.txt	LTP129	ltpFR	1	5	0	CREATURE	403	n/a	1	n/a	n/a	n/a	n/a	n/a
860286	REC_WORD	wordpools/wasnorm_wordpool.txt	LTP129	ltpFR	1	5	0	DRAWER	493	n/a	0	n/a	n/a	n/a	n/a	n/a
861567	REC_WORD	wordpools/wasnorm_wordpool.txt	LTP129	ltpFR	1	5	1	SKILLET	1317	n/a	0	n/a	n/a	n/a	n/a	n/a
886216	REC_WORD	wordpools/wasnorm_wordpool.txt	LTP129	ltpFR	1	5	0	SAP	1233	n/a	0	n/a	n/a	n/a	n/a	n/a
916732	REC_WORD	wordpools/wasnorm_wordpool.txt	LTP129	ltpFR	1	5	1	WRITER	1627	n/a	1	n/a	n/a	n/a	n/a	n/a
974865	WORD	wordpools/wasnorm_wordpool.txt	LTP129	ltpFR	1	6	1	SNACK	1331	n/a	0	1	0.412841796875	0.57763671875	lower	../fonts/amplitud.ttf
978752	WORD	wordpools/wasnorm_wordpool.txt	LTP129	ltpFR	1	6	1	MERMAID	887	n/a	1	1	0.412841796875	0.57763671875	lower	../fonts/amplitud.ttf
982873	WORD	wordpools/wasnorm_wordpool.txt	LTP129	ltpFR	1	6	0	TUNA	1518	n/a	0	0	0.5869140625	0.422607421875	upper	../fonts/zerothre.ttf
986951	WORD	wordpools/wasnorm_wordpool.txt	LTP129	ltpFR	1	6	0	ORGAN	984	n/a	1	0	0.5869140625	0.422607421875	upper	../fonts/zerothre.ttf
991055	WORD	wordpools/wasnorm_wordpool.txt	LTP129	ltpFR	1	6	0	SHAMPOO	1274	n/a	0	0	0.5869140625	0.422607421875	upper	../fonts/zerothre.ttf
995050	WORD	wordpools/wasnorm_wordpool.txt	LTP129	ltpFR	1	6	0	SKULL	1320	n/a	0	0	0.5869140625	0.422607421875	upper	../fonts/zerothre.ttf
998937	WORD	wordpools/wasnorm_wordpool.txt	LTP129	ltpFR	1	6	0	WHISKERS	1605	n/a	0	0	0.5869140625	0.422607421875	upper	../fonts/zerothre.ttf
1002991	WORD	wordpools/wasnorm_wordpool.txt	LTP129	ltpFR	1	6	0	BRIEFCASE	175	n/a	0	0	0.5869140625	0.422607421875	upper	../fonts/zerothre.ttf
1006953	WORD	wordpools/wasnorm_wordpool.txt	LTP129	ltpFR	1	6	1	SUPERMARKET	1409	n/a	0	1	0.412841796875	0.57763671875	lower	../fonts/amplitud.ttf
1011040	WORD	wordpools/wasnorm_wordpool.txt	LTP129	ltpFR	1	6	1	BOAT	144	n/a	0	1	0.412841796875	0.57763671875	lower	../fonts/amplitud.ttf
1015060	WORD	wordpools/wasnorm_wordpool.txt	LTP129	ltpFR	1	6	1	DONOR	485	n/a	0	1	0.412841796875	0.57763671875	lower	../fonts/amplitud.ttf
1018981	WORD	wordpools/wasnorm_wordpool.txt	LTP129	ltpFR	1	6	1	JUPITER	765	n/a	0	1	0.412841796875	0.57763671875	lower	../fonts/amplitud.ttf
1023051	WORD	wordpools/wasnorm_wordpool.txt	LTP129	ltpFR	1	6	1	FLANNEL	574	n/a	0	1	0.412841796875	0.57763671875	lower	../fonts/amplitud.ttf
1026980	WORD	wordpools/wasnorm_wordpool.txt	LTP129	ltpFR	1	6	1	TROUSERS	1510	n/a	0	1	0.412841796875	0.57763671875	lower	../fonts/amplitud.ttf
1030909	WORD	wordpools/wasnorm_wordpool.txt	LTP129	ltpFR	1	6	0	KITTEN	780	n/a	1	0	0.5869140625	0.422607421875	upper	../fonts/zerothre.ttf
1034796	WORD	wordpools/wasnorm_wordpool.txt	LTP129	ltpFR	1	6	0	TYPIST	1532	n/a	1	0	0.5869140625	0.422607421875	upper	../fonts/zerothre.ttf
1040497	REC_START	n/a	LTP129	ltpFR	1	6	n/a	n/a	n/a	n/a	n/a	n/a	n/a	n/a	n/a	n/a
1041450	REC_WORD	wordpools/wasnorm_wordpool.txt	LTP129	ltpFR	1	6	1	SNACK	1331	n/a	0	n/a	n/a	n/a	n/a	n/a
1042512	REC_WORD	wordpools/wasnorm_wordpool.txt	LTP129	ltpFR	1	6	1	MERMAID	887	n/a	1	n/a	n/a	n/a	n/a	n/a
1043829	REC_WORD	wordpools/wasnorm_wordpool.txt	LTP129	ltpFR	1	6	0	TUNA	1518	n/a	0	n/a	n/a	n/a	n/a	n/a
1044807	REC_WORD	wordpools/wasnorm_wordpool.txt	LTP129	ltpFR	1	6	0	ORGAN	984	n/a	1	n/a	n/a	n/a	n/a	n/a
1046847	REC_WORD	wordpools/wasnorm_wordpool.txt	LTP129	ltpFR	1	6	0	BRIEFCASE	175	n/a	0	n/a	n/a	n/a	n/a	n/a
1048414	REC_WORD	wordpools/wasnorm_wordpool.txt	LTP129	ltpFR	1	6	0	TYPIST	1532	n/a	1	n/a	n/a	n/a	n/a	n/a
1105773	REC_WORD	wordpools/wasnorm_wordpool.txt	LTP129	ltpFR	1	6	1	JUPITER	765	n/a	0	n/a	n/a	n/a	n/a	n/a
1150071	WORD	wordpools/wasnorm_wordpool.txt	LTP129	ltpFR	1	7	-1	BRACELET	163	n/a	-1	1	1.0	1.0	upper	../fonts/Verdana.ttf
1153950	WORD	wordpools/wasnorm_wordpool.txt	LTP129	ltpFR	1	7	-1	PEARL	1034	n/a	-1	1	1.0	1.0	upper	../fonts/Verdana.ttf
1158053	WORD	wordpools/wasnorm_wordpool.txt	LTP129	ltpFR	1	7	-1	VETERAN	1561	n/a	-1	1	1.0	1.0	upper	../fonts/Verdana.ttf
1162032	WORD	wordpools/wasnorm_wordpool.txt	LTP129	ltpFR	1	7	-1	COUSIN	392	n/a	-1	1	1.0	1.0	upper	../fonts/Verdana.ttf
1165986	WORD	wordpools/wasnorm_wordpool.txt	LTP129	ltpFR	1	7	-1	CIRCUS	311	n/a	-1	1	1.0	1.0	upper	../fonts/Verdana.ttf
1170039	WORD	wordpools/wasnorm_wordpool.txt	LTP129	ltpFR	1	7	-1	MOLECULE	905	n/a	-1	1	1.0	1.0	upper	../fonts/Verdana.ttf
1174093	WORD	wordpools/wasnorm_wordpool.txt	LTP129	ltpFR	1	7	-1	ADULT	8	n/a	-1	1	1.0	1.0	upper	../fonts/Verdana.ttf
1178188	WORD	wordpools/wasnorm_wordpool.txt	LTP129	ltpFR	1	7	-1	MOTHER	921	n/a	-1	1	1.0	1.0	upper	../fonts/Verdana.ttf
1182034	WORD	wordpools/wasnorm_wordpool.txt	LTP129	ltpFR	1	7	-1	UNCLE	1536	n/a	-1	1	1.0	1.0	upper	../fonts/Verdana.ttf
1186154	WORD	wordpools/wasnorm_wordpool.txt	LTP129	ltpFR	1	7	-1	WAREHOUSE	1588	n/a	-1	1	1.0	1.0	upper	../fonts/Verdana.ttf
1189991	WORD	wordpools/wasnorm_wordpool.txt	LTP129	ltpFR	1	7	-1	DWARF	510	n/a	-1	1	1.0	1.0	upper	../fonts/Verdana.ttf
1193903	WORD	wordpools/wasnorm_wordpool.txt	LTP129	ltpFR	1	7	-1	COLONEL	348	n/a	-1	1	1.0	1.0	upper	../fonts/Verdana.ttf
1197749	WORD	wordpools/wasnorm_wordpool.txt	LTP129	ltpFR	1	7	-1	RIVER	1194	n/a	-1	1	1.0	1.0	upper	../fonts/Verdana.ttf
1201703	WORD	wordpools/wasnorm_wordpool.txt	LTP129	ltpFR	1	7	-1	SPONGE	1355	n/a	-1	1	1.0	1.0	upper	../fonts/Verdana.ttf
1205856	WORD	wordpools/wasnorm_wordpool.txt	LTP129	ltpFR	1	7	-1	EUROPE	541	n/a	-1	1	1.0	1.0	upper	../fonts/Verdana.ttf
1209968	WORD	wordpools/wasnorm_wordpool.txt	LTP129	ltpFR	1	7	-1	SKELETON	1314	n/a	-1	1	1.0	1.0	upper	../fonts/Verdana.ttf
1215820	REC_START	n/a	LTP129	ltpFR	1	7	n/a	n/a	n/a	n/a	n/a	n/a	n/a	n/a	n/a	n/a
1216578	REC_WORD	wordpools/wasnorm_wordpool.txt	LTP129	ltpFR	1	7	-1	EUROPE	541	n/a	-1	n/a	n/a	n/a	n/a	n/a
1217415	REC_WORD	wordpools/wasnorm_wordpool.txt	LTP129	ltpFR	1	7	-1	SKELETON	1314	n/a	-1	n/a	n/a	n/a	n/a	n/a
1219791	REC_WORD	wordpools/wasnorm_wordpool.txt	LTP129	ltpFR	1	7	-1	BRACELET	163	n/a	-1	n/a	n/a	n/a	n/a	n/a
1220968	REC_WORD	wordpools/wasnorm_wordpool.txt	LTP129	ltpFR	1	7	-1	PEARL	1034	n/a	-1	n/a	n/a	n/a	n/a	n/a
1224355	REC_WORD	wordpools/wasnorm_wordpool.txt	LTP129	ltpFR	1	7	-1	VETERAN	1561	n/a	-1	n/a	n/a	n/a	n/a	n/a
1225697	REC_WORD	wordpools/wasnorm_wordpool.txt	LTP129	ltpFR	1	7	-1	CIRCUS	311	n/a	-1	n/a	n/a	n/a	n/a	n/a
1226889	REC_WORD	wordpools/wasnorm_wordpool.txt	LTP129	ltpFR	1	7	-1	MOLECULE	905	n/a	-1	n/a	n/a	n/a	n/a	n/a
1245632	REC_WORD	wordpools/wasnorm_wordpool.txt	LTP129	ltpFR	1	7	-1	COLONEL	348	n/a	-1	n/a	n/a	n/a	n/a	n/a
1327923	WORD	wordpools/wasnorm_wordpool.txt	LTP129	ltpFR	1	8	0	WHALE	1601	n/a	1	0	0.5869140625	0.422607421875	upper	../fonts/zerothre.ttf
1332118	WORD	wordpools/wasnorm_wordpool.txt	LTP129	ltpFR	1	8	0	RASH	1167	n/a	0	0	0.5869140625	0.422607421875	upper	../fonts/zerothre.ttf
1336155	WORD	wordpools/wasnorm_wordpool.txt	LTP129	ltpFR	1	8	0	STEW	1380	n/a	0	0	0.5869140625	0.422607421875	upper	../fonts/zerothre.ttf
1340101	WORD	wordpools/wasnorm_wordpool.txt	LTP129	ltpFR	1	8	0	GROUND	666	n/a	0	0	0.5869140625	0.422607421875	upper	../fonts/zerothre.ttf
1344163	WORD	wordpools/wasnorm_wordpool.txt	LTP129	ltpFR	1	8	0	CARPET	247	n/a	0	0	0.5869140625	0.422607421875	upper	../fonts/zerothre.ttf
1348308	WORD	wordpools/wasnorm_wordpool.txt	LTP129	ltpFR	1	8	0	BRICK	172	n/a	0	0	0.5869140625	0.422607421875	upper	../fonts/zerothre.ttf
1352427	WORD	wordpools/wasnorm_wordpool.txt	LTP129	ltpFR	1	8	0	TAR	1435	n/a	0	0	0.5869140625	0.422607421875	upper	../fonts/zerothre.ttf
1356572	WORD	wordpools/wasnorm_wordpool.txt	LTP129	ltpFR	1	8	0	SAILOR	1223	n/a	0	0	0.5869140625	0.422607421875	upper	../fonts/zerothre.ttf
1360451	WORD	wordpools/wasnorm_wordpool.txt	LTP129	ltpFR	1	8	0	EMPLOYEE	531	n/a	1	0	0.5869140625	0.422607421875	upper	../fonts/zerothre.ttf
1364264	WORD	wordpools/wasnorm_wordpool.txt	LTP129	ltpFR	1	8	0	RULER	1216	n/a	0	0	0.5869140625	0.422607421875	upper	../fonts/zerothre.ttf
1368135	WORD	wordpools/wasnorm_wordpool.txt	LTP129	ltpFR	1	8	0	FISH	571	n/a	0	0	0.5869140625	0.422607421875	upper	../fonts/zerothre.ttf
1372022	WORD	wordpools/wasnorm_wordpool.txt	LTP129	ltpFR	1	8	0	YARD	1630	n/a	1	0	0.5869140625	0.422607421875	upper	../fonts/zerothre.ttf
1376159	WORD	wordpools/wasnorm_wordpool.txt	LTP129	ltpFR	1	8	0	MOWER	928	n/a	1	0	0.5869140625	0.422607421875	upper	../fonts/zerothre.ttf
1380287	WORD	wordpools/wasnorm_wordpool.txt	LTP129	ltpFR	1	8	0	MEAL	882	n/a	0	0	0.5869140625	0.422607421875	upper	../fonts/zerothre.ttf
1384116	WORD	wordpools/wasnorm_wordpool.txt	LTP129	ltpFR	1	8	0	PORT	1110	n/a	0	0	0.5869140625	0.422607421875	upper	../fonts/zerothre.ttf
1388053	WORD	wordpools/wasnorm_wordpool.txt	LTP129	ltpFR	1	8	0	TANK	1432	n/a	0	0	0.5869140625	0.422607421875	upper	../fonts/zerothre.ttf
1393672	REC_START	n/a	LTP129	ltpFR	1	8	n/a	n/a	n/a	n/a	n/a	n/a	n/a	n/a	n/a	n/a
1395662	REC_WORD	wordpools/wasnorm_wordpool.txt	LTP129	ltpFR	1	8	0	MOWER	928	n/a	1	n/a	n/a	n/a	n/a	n/a
1396690	REC_WORD	wordpools/wasnorm_wordpool.txt	LTP129	ltpFR	1	8	0	YARD	1630	n/a	1	n/a	n/a	n/a	n/a	n/a
1397917	REC_WORD	wordpools/wasnorm_wordpool.txt	LTP129	ltpFR	1	8	0	TANK	1432	n/a	0	n/a	n/a	n/a	n/a	n/a
1442221	REC_WORD	wordpools/wasnorm_wordpool.txt	LTP129	ltpFR	1	8	0	WHALE	1601	n/a	1	n/a	n/a	n/a	n/a	n/a
1505483	WORD	wordpools/wasnorm_wordpool.txt	LTP129	ltpFR	1	9	-1	BOOK	149	n/a	-1	1	1.0	1.0	upper	../fonts/Verdana.ttf
1509679	WORD	wordpools/wasnorm_wordpool.txt	LTP129	ltpFR	1	9	-1	ALMANAC	17	n/a	-1	1	1.0	1.0	upper	../fonts/Verdana.ttf
1513758	WORD	wordpools/wasnorm_wordpool.txt	LTP129	ltpFR	1	9	-1	NOTEBOOK	959	n/a	-1	1	1.0	1.0	upper	../fonts/Verdana.ttf
1517786	WORD	wordpools/wasnorm_wordpool.txt	LTP129	ltpFR	1	9	-1	BEVERAGE	123	n/a	-1	1	1.0	1.0	upper	../fonts/Verdana.ttf
1521807	WORD	wordpools/wasnorm_wordpool.txt	LTP129	ltpFR	1	9	-1	BOTTLE	153	n/a	-1	1	1.0	1.0	upper	../fonts/Verdana.ttf
1525636	WORD	wordpools/wasnorm_wordpool.txt	LTP129	ltpFR	1	9	-1	LAWN	805	n/a	-1	1	1.0	1.0	upper	../fonts/Verdana.ttf
1529563	WORD	wordpools/wasnorm_wordpool.txt	LTP129	ltpFR	1	9	-1	COWARD	394	n/a	-1	1	1.0	1.0	upper	../fonts/Verdana.ttf
1533501	WORD	wordpools/wasnorm_wordpool.txt	LTP129	ltpFR	1	9	-1	FLASHLIGHT	575	n/a	-1	1	1.0	1.0	upper	../fonts/Verdana.ttf
1537421	WORD	wordpools/wasnorm_wordpool.txt	LTP129	ltpFR	1	9	-1	ANTLER	29	n/a	-1	1	1.0	1.0	upper	../fonts/Verdana.ttf
1541483	WORD	wordpools/wasnorm_wordpool.txt	LTP129	ltpFR	1	9	-1	ACROBAT	4	n/a	-1	1	1.0	1.0	upper	../fonts/Verdana.ttf
1545562	WORD	wordpools/wasnorm_wordpool.txt	LTP129	ltpFR	1	9	-1	VESSEL	1558	n/a	-1	1	1.0	1.0	upper	../fonts/Verdana.ttf
1549641	WORD	wordpools/wasnorm_wordpool.txt	LTP129	ltpFR	1	9	-1	LAPEL	800	n/a	-1	1	1.0	1.0	upper	../fonts/Verdana.ttf
1553678	WORD	wordpools/wasnorm_wordpool.txt	LTP129	ltpFR	1	9	-1	COLLAR	345	n/a	-1	1	1.0	1.0	upper	../fonts/Verdana.ttf
1557523	WORD	wordpools/wasnorm_wordpool.txt	LTP129	ltpFR	1	9	-1	ARENA	37	n/a	-1	1	1.0	1.0	upper	../fonts/Verdana.ttf
1561403	WORD	wordpools/wasnorm_wordpool.txt	LTP129	ltpFR	1	9	-1	VIKING	1565	n/a	-1	1	1.0	1.0	upper	../fonts/Verdana.ttf
1565514	WORD	wordpools/wasnorm_wordpool.txt	LTP129	ltpFR	1	9	-1	DIARY	460	n/a	-1	1	1.0	1.0	upper	../fonts/Verdana.ttf
1571100	REC_START	n/a	LTP129	ltpFR	1	9	n/a	n/a	n/a	n/a	n/a	n/a	n/a	n/a	n/a	n/a
1572073	REC_WORD	wordpools/wasnorm_wordpool.txt	LTP129	ltpFR	1	9	-1	BOOK	149	n/a	-1	n/a	n/a	n/a	n/a	n/a
1572931	REC_WORD	wordpools/wasnorm_wordpool.txt	LTP129	ltpFR	1	9	-1	ALMANAC	17	n/a	-1	n/a	n/a	n/a	n/a	n/a
1574098	REC_WORD	wordpools/wasnorm_wordpool.txt	LTP129	ltpFR	1	9	-1	NOTEBOOK	959	n/a	-1	n/a	n/a	n/a	n/a	n/a
1577969	REC_WORD	wordpools/wasnorm_wordpool.txt	LTP129	ltpFR	1	9	n/a	COWBOY	395	n/a	n/a	n/a	n/a	n/a	n/a	n/a
1581152	REC_WORD	wordpools/wasnorm_wordpool.txt	LTP129	ltpFR	1	9	-1	DIARY	460	n/a	-1	n/a	n/a	n/a	n/a	n/a
1612201	REC_WORD	wordpools/wasnorm_wordpool.txt	LTP129	ltpFR	1	9	-1	COLLAR	345	n/a	-1	n/a	n/a	n/a	n/a	n/a
1667595	WORD	wordpools/wasnorm_wordpool.txt	LTP129	ltpFR	1	10	1	COAT	333	n/a	0	1	0.412841796875	0.57763671875	lower	../fonts/amplitud.ttf
1671491	WORD	wordpools/wasnorm_wordpool.txt	LTP129	ltpFR	1	10	1	KETCHUP	771	n/a	0	1	0.412841796875	0.57763671875	lower	../fonts/amplitud.ttf
1675461	WORD	wordpools/wasnorm_wordpool.txt	LTP129	ltpFR	1	10	1	TWIG	1527	n/a	0	1	0.412841796875	0.57763671875	lower	../fonts/amplitud.ttf
1679616	WORD	wordpools/wasnorm_wordpool.txt	LTP129	ltpFR	1	10	1	TELESCOPE	1446	n/a	0	1	0.412841796875	0.57763671875	lower	../fonts/amplitud.ttf
1683761	WORD	wordpools/wasnorm_wordpool.txt	LTP129	ltpFR	1	10	1	PREACHER	1119	n/a	1	1	0.412841796875	0.57763671875	lower	../fonts/amplitud.ttf
1687631	WORD	wordpools/wasnorm_wordpool.txt	LTP129	ltpFR	1	10	1	BRANCH	168	n/a	0	1	0.412841796875	0.57763671875	lower	../fonts/amplitud.ttf
1691526	WORD	wordpools/wasnorm_wordpool.txt	LTP129	ltpFR	1	10	1	MAILMAN	858	n/a	1	1	0.412841796875	0.57763671875	lower	../fonts/amplitud.ttf
1695622	WORD	wordpools/wasnorm_wordpool.txt	LTP129	ltpFR	1	10	1	ROBIN	1199	n/a	1	1	0.412841796875	0.57763671875	lower	../fonts/amplitud.ttf
1699601	WORD	wordpools/wasnorm_wordpool.txt	LTP129	ltpFR	1	10	1	EAGLE	512	n/a	1	1	0.412841796875	0.57763671875	lower	../fonts/amplitud.ttf
1703655	WORD	wordpools/wasnorm_wordpool.txt	LTP129	ltpFR	1	10	1	PRINCESS	1125	n/a	1	1	0.412841796875	0.57763671875	lower	../fonts/amplitud.ttf
1707557	WORD	wordpools/wasnorm_wordpool.txt	LTP129	ltpFR	1	10	1	KING	777	n/a	1	1	0.412841796875	0.57763671875	lower	../fonts/amplitud.ttf
1711503	WORD	wordpools/wasnorm_wordpool.txt	LTP129	ltpFR	1	10	1	WINDOW	1611	n/a	0	1	0.412841796875	0.57763671875	lower	../fonts/amplitud.ttf
1715624	WORD	wordpools/wasnorm_wordpool.txt	LTP129	ltpFR	1	10	1	HEAD	695	n/a	1	1	0.412841796875	0.57763671875	lower	../fonts/amplitud.ttf
1719653	WORD	wordpools/wasnorm_wordpool.txt	LTP129	ltpFR	1	10	1	BODY	145	n/a	1	1	0.412841796875	0.57763671875	lower	../fonts/amplitud.ttf
1723656	WORD	wordpools/wasnorm_wordpool.txt	LTP129	ltpFR	1	10	1	CAP	236	n/a	0	1	0.412841796875	0.57763671875	lower	../fonts/amplitud.ttf
1727860	WORD	wordpools/wasnorm_wordpool.txt	LTP129	ltpFR	1	10	1	TAIL	1430	n/a	1	1	0.412841796875	0.57763671875	lower	../fonts/amplitud.ttf
1733820	REC_START	n/a	LTP129	ltpFR	1	10	n/a	n/a	n/a	n/a	n/a	n/a	n/a	n/a	n/a	n/a
1735027	REC_WORD	wordpools/wasnorm_wordpool.txt	LTP129	ltpFR	1	10	1	PRINCESS	1125	n/a	1	n/a	n/a	n/a	n/a	n/a
1736125	REC_WORD	wordpools/wasnorm_wordpool.txt	LTP129	ltpFR	1	10	1	TELESCOPE	1446	n/a	0	n/a	n/a	n/a	n/a	n/a
1737032	REC_WORD	wordpools/wasnorm_wordpool.txt	LTP129	ltpFR	1	10	1	PREACHER	1119	n/a	1	n/a	n/a	n/a	n/a	n/a
1737945	REC_WORD	wordpools/wasnorm_wordpool.txt	LTP129	ltpFR	1	10	1	BRANCH	168	n/a	0	n/a	n/a	n/a	n/a	n/a
1739237	REC_WORD	wordpools/wasnorm_wordpool.txt	LTP129	ltpFR	1	10	1	KING	777	n/a	1	n/a	n/a	n/a	n/a	n/a
1741263	REC_WORD	wordpools/wasnorm_wordpool.txt	LTP129	ltpFR	1	10	1	HEAD	695	n/a	1	n/a	n/a	n/a	n/a	n/a
1742525	REC_WORD	wordpools/wasnorm_wordpool.txt	LTP129	ltpFR	1	10	1	BODY	145	n/a	1	n/a	n/a	n/a	n/a	n/a
1745264	REC_WORD	wordpools/wasnorm_wordpool.txt	LTP129	ltpFR	1	10	1	CAP	236	n/a	0	n/a	n/a	n/a	n/a	n/a
1746651	REC_WORD	wordpools/wasnorm_wordpool.txt	LTP129	ltpFR	1	10	1	TAIL	1430	n/a	1	n/a	n/a	n/a	n/a	n/a
1749639	REC_WORD	wordpools/wasnorm_wordpool.txt	LTP129	ltpFR	1	10	1	WINDOW	1611	n/a	0	n/a	n/a	n/a	n/a	n/a
1769454	REC_WORD	wordpools/wasnorm_wordpool.txt	LTP129	ltpFR	1	10	1	ROBIN	1199	n/a	1	n/a	n/a	n/a	n/a	n/a
1770965	REC_WORD	wordpools/wasnorm_wordpool.txt	LTP129	ltpFR	1	10	1	EAGLE	512	n/a	1	n/a	n/a	n/a	n/a	n/a
1796387	REC_WORD	wordpools/wasnorm_wordpool.txt	LTP129	ltpFR	1	10	1	TWIG	1527	n/a	0	n/a	n/a	n/a	n/a	n/a
1822658	WORD	wordpools/wasnorm_wordpool.txt	LTP129	ltpFR	1	11	0	BLOSSOM	138	n/a	0	0	0.5869140625	0.422607421875	upper	../fonts/zerothre.ttf
1826837	WORD	wordpools/wasnorm_wordpool.txt	LTP129	ltpFR	1	11	0	ICE	730	n/a	0	0	0.5869140625	0.422607421875	upper	../fonts/zerothre.ttf
1831024	WORD	wordpools/wasnorm_wordpool.txt	LTP129	ltpFR	1	11	0	CUBE	420	n/a	0	0	0.5869140625	0.422607421875	upper	../fonts/zerothre.ttf
1834886	WORD	wordpools/wasnorm_wordpool.txt	LTP129	ltpFR	1	11	0	KITCHEN	778	n/a	1	0	0.5869140625	0.422607421875	upper	../fonts/zerothre.ttf
1838748	WORD	wordpools/wasnorm_wordpool.txt	LTP129	ltpFR	1	11	0	EDITORIAL	517	n/a	1	0	0.5869140625	0.422607421875	upper	../fonts/zerothre.ttf
1842685	WORD	wordpools/wasnorm_wordpool.txt	LTP129	ltpFR	1	11	0	ARTICLE	42	n/a	1	0	0.5869140625	0.422607421875	upper	../fonts/zerothre.ttf
1846588	WORD	wordpools/wasnorm_wordpool.txt	LTP129	ltpFR	1	11	0	COIN	343	n/a	0	0	0.5869140625	0.422607421875	upper	../fonts/zerothre.ttf
1850434	WORD	wordpools/wasnorm_wordpool.txt	LTP129	ltpFR	1	11	0	MINT	898	n/a	1	0	0.5869140625	0.422607421875	upper	../fonts/zerothre.ttf
1854280	WORD	wordpools/wasnorm_wordpool.txt	LTP129	ltpFR	1	11	0	BANQUET	86	n/a	1	0	0.5869140625	0.422607421875	upper	../fonts/zerothre.ttf
1858192	WORD	wordpools/wasnorm_wordpool.txt	LTP129	ltpFR	1	11	0	CHIP	303	n/a	0	0	0.5869140625	0.422607421875	upper	../fonts/zerothre.ttf
1862179	WORD	wordpools/wasnorm_wordpool.txt	LTP129	ltpFR	1	11	0	OWNER	993	n/a	1	0	0.5869140625	0.422607421875	upper	../fonts/zerothre.ttf
1866191	WORD	wordpools/wasnorm_wordpool.txt	LTP129	ltpFR	1	11	0	VASE	1549	n/a	0	0	0.5869140625	0.422607421875	upper	../fonts/zerothre.ttf
1870053	WORD	wordpools/wasnorm_wordpool.txt	LTP129	ltpFR	1	11	0	GROCERIES	663	n/a	1	0	0.5869140625	0.422607421875	upper	../fonts/zerothre.ttf
1873882	WORD	wordpools/wasnorm_wordpool.txt	LTP129	ltpFR	1	11	0	LOVER	846	n/a	1	0	0.5869140625	0.422607421875	upper	../fonts/zerothre.ttf
1877736	WORD	wordpools/wasnorm_wordpool.txt	LTP129	ltpFR	1	11	0	VILLAGE	1566	n/a	0	0	0.5869140625	0.422607421875	upper	../fonts/zerothre.ttf
1881682	WORD	wordpools/wasnorm_wordpool.txt	LTP129	ltpFR	1	11	0	LIGHTNING	820	n/a	1	0	0.5869140625	0.422607421875	upper	../fonts/zerothre.ttf
1887667	REC_START	n/a	LTP129	ltpFR	1	11	n/a	n/a	n/a	n/a	n/a	n/a	n/a	n/a	n/a	n/a
1893488	REC_WORD	wordpools/wasnorm_wordpool.txt	LTP129	ltpFR	1	11	0	LIGHTNING	820	n/a	1	n/a	n/a	n/a	n/a	n/a
1908454	REC_WORD	wordpools/wasnorm_wordpool.txt	LTP129	ltpFR	1	11	0	COIN	343	n/a	0	n/a	n/a	n/a	n/a	n/a
1909352	REC_WORD	wordpools/wasnorm_wordpool.txt	LTP129	ltpFR	1	11	0	MINT	898	n/a	1	n/a	n/a	n/a	n/a	n/a
1910704	REC_WORD	wordpools/wasnorm_wordpool.txt	LTP129	ltpFR	1	11	0	CHIP	303	n/a	0	n/a	n/a	n/a	n/a	n/a
1912036	REC_WORD	wordpools/wasnorm_wordpool.txt	LTP129	ltpFR	1	11	0	BANQUET	86	n/a	1	n/a	n/a	n/a	n/a	n/a
1916541	REC_WORD	wordpools/wasnorm_wordpool.txt	LTP129	ltpFR	1	11	0	BLOSSOM	138	n/a	0	n/a	n/a	n/a	n/a	n/a
1918701	REC_WORD	wordpools/wasnorm_wordpool.txt	LTP129	ltpFR	1	11	0	KITCHEN	778	n/a	1	n/a	n/a	n/a	n/a	n/a
1919963	REC_WORD	wordpools/wasnorm_wordpool.txt	LTP129	ltpFR	1	11	0	ICE	730	n/a	0	n/a	n/a	n/a	n/a	n/a
1920896	REC_WORD	wordpools/wasnorm_wordpool.txt	LTP129	ltpFR	1	11	0	CUBE	420	n/a	0	n/a	n/a	n/a	n/a	n/a
1924238	REC_WORD	wordpools/wasnorm_wordpool.txt	LTP129	ltpFR	1	11	0	EDITORIAL	517	n/a	1	n/a	n/a	n/a	n/a	n/a
1925506	REC_WORD	wordpools/wasnorm_wordpool.txt	LTP129	ltpFR	1	11	0	ARTICLE	42	n/a	1	n/a	n/a	n/a	n/a	n/a
1935129	REC_WORD	wordpools/wasnorm_wordpool.txt	LTP129	ltpFR	1	11	0	VASE	1549	n/a	0	n/a	n/a	n/a	n/a	n/a
1938282	REC_WORD	wordpools/wasnorm_wordpool.txt	LTP129	ltpFR	1	11	0	OWNER	993	n/a	1	n/a	n/a	n/a	n/a	n/a
1983064	WORD	wordpools/wasnorm_wordpool.txt	LTP129	ltpFR	1	12	1	ANIMAL	23	n/a	1	1	0.412841796875	0.57763671875	lower	../fonts/amplitud.ttf
1987134	WORD	wordpools/wasnorm_wordpool.txt	LTP129	ltpFR	1	12	1	PLUM	1090	n/a	1	1	0.412841796875	0.57763671875	lower	../fonts/amplitud.ttf
1991022	WORD	wordpools/wasnorm_wordpool.txt	LTP129	ltpFR	1	12	1	FLASK	576	n/a	0	1	0.412841796875	0.57763671875	lower	../fonts/amplitud.ttf
1994942	WORD	wordpools/wasnorm_wordpool.txt	LTP129	ltpFR	1	12	1	TOURIST	1488	n/a	1	1	0.412841796875	0.57763671875	lower	../fonts/amplitud.ttf
1999046	WORD	wordpools/wasnorm_wordpool.txt	LTP129	ltpFR	1	12	1	KNOB	787	n/a	0	1	0.412841796875	0.57763671875	lower	../fonts/amplitud.ttf
2002908	WORD	wordpools/wasnorm_wordpool.txt	LTP129	ltpFR	1	12	1	DEPUTY	450	n/a	1	1	0.412841796875	0.57763671875	lower	../fonts/amplitud.ttf
2006920	WORD	wordpools/wasnorm_wordpool.txt	LTP129	ltpFR	1	12	1	COCKTAIL	338	n/a	1	1	0.412841796875	0.57763671875	lower	../fonts/amplitud.ttf
2010840	WORD	wordpools/wasnorm_wordpool.txt	LTP129	ltpFR	1	12	1	CUB	419	n/a	1	1	0.412841796875	0.57763671875	lower	../fonts/amplitud.ttf
2014786	WORD	wordpools/wasnorm_wordpool.txt	LTP129	ltpFR	1	12	1	ELF	525	n/a	1	1	0.412841796875	0.57763671875	lower	../fonts/amplitud.ttf
2018956	WORD	wordpools/wasnorm_wordpool.txt	LTP129	ltpFR	1	12	1	AIRCRAFT	11	n/a	0	1	0.412841796875	0.57763671875	lower	../fonts/amplitud.ttf
2023026	WORD	wordpools/wasnorm_wordpool.txt	LTP129	ltpFR	1	12	1	PILOT	1070	n/a	1	1	0.412841796875	0.57763671875	lower	../fonts/amplitud.ttf
2027088	WORD	wordpools/wasnorm_wordpool.txt	LTP129	ltpFR	1	12	1	LEMON	810	n/a	0	1	0.412841796875	0.57763671875	lower	../fonts/amplitud.ttf
2030909	WORD	wordpools/wasnorm_wordpool.txt	LTP129	ltpFR	1	12	1	TART	1436	n/a	0	1	0.412841796875	0.57763671875	lower	../fonts/amplitud.ttf
2034721	WORD	wordpools/wasnorm_wordpool.txt	LTP129	ltpFR	1	12	1	STAKE	1368	n/a	0	1	0.412841796875	0.57763671875	lower	../fonts/amplitud.ttf
2038716	WORD	wordpools/wasnorm_wordpool.txt	LTP129	ltpFR	1	12	1	CAFE	216	n/a	0	1	0.412841796875	0.57763671875	lower	../fonts/amplitud.ttf
2042853	WORD	wordpools/wasnorm_wordpool.txt	LTP129	ltpFR	1	12	1	SLEIGH	1325	n/a	0	1	0.412841796875	0.57763671875	lower	../fonts/amplitud.ttf
2048513	REC_START	n/a	LTP129	ltpFR	1	12	n/a	n/a	n/a	n/a	n/a	n/a	n/a	n/a	n/a	n/a
2051775	REC_WORD	wordpools/wasnorm_wordpool.txt	LTP129	ltpFR	1	12	1	ANIMAL	23	n/a	1	n/a	n/a	n/a	n/a	n/a
2053077	REC_WORD	wordpools/wasnorm_wordpool.txt	LTP129	ltpFR	1	12	1	PLUM	1090	n/a	1	n/a	n/a	n/a	n/a	n/a
2054250	REC_WORD	wordpools/wasnorm_wordpool.txt	LTP129	ltpFR	1	12	1	TART	1436	n/a	0	n/a	n/a	n/a	n/a	n/a
2056091	REC_WORD	wordpools/wasnorm_wordpool.txt	LTP129	ltpFR	1	12	1	LEMON	810	n/a	0	n/a	n/a	n/a	n/a	n/a
2057876	REC_WORD	wordpools/wasnorm_wordpool.txt	LTP129	ltpFR	1	12	1	CAFE	216	n/a	0	n/a	n/a	n/a	n/a	n/a
2117212	REC_WORD	wordpools/wasnorm_wordpool.txt	LTP129	ltpFR	1	12	1	DEPUTY	450	n/a	1	n/a	n/a	n/a	n/a	n/a
2124101	REST_REWET	n/a	LTP129	ltpFR	1	12	n/a	n/a	n/a	n/a	n/a	n/a	n/a	n/a	n/a	n/a
2421190	WORD	wordpools/wasnorm_wordpool.txt	LTP129	ltpFR	1	13	-1	SWITCH	1422	n/a	-1	1	1.0	1.0	upper	../fonts/Verdana.ttf
2425393	WORD	wordpools/wasnorm_wordpool.txt	LTP129	ltpFR	1	13	-1	ISLAND	745	n/a	-1	1	1.0	1.0	upper	../fonts/Verdana.ttf
2429397	WORD	wordpools/wasnorm_wordpool.txt	LTP129	ltpFR	1	13	-1	CONTAINER	366	n/a	-1	1	1.0	1.0	upper	../fonts/Verdana.ttf
2433268	WORD	wordpools/wasnorm_wordpool.txt	LTP129	ltpFR	1	13	-1	COFFEE	341	n/a	-1	1	1.0	1.0	upper	../fonts/Verdana.ttf
2437213	WORD	wordpools/wasnorm_wordpool.txt	LTP129	ltpFR	1	13	-1	SPINACH	1352	n/a	-1	1	1.0	1.0	upper	../fonts/Verdana.ttf
2441200	WORD	wordpools/wasnorm_wordpool.txt	LTP129	ltpFR	1	13	-1	BROOM	178	n/a	-1	1	1.0	1.0	upper	../fonts/Verdana.ttf
2445071	WORD	wordpools/wasnorm_wordpool.txt	LTP129	ltpFR	1	13	-1	SEASHORE	1263	n/a	-1	1	1.0	1.0	upper	../fonts/Verdana.ttf
2449091	WORD	wordpools/wasnorm_wordpool.txt	LTP129	ltpFR	1	13	-1	TOOTH	1481	n/a	-1	1	1.0	1.0	upper	../fonts/Verdana.ttf
2453003	WORD	wordpools/wasnorm_wordpool.txt	LTP129	ltpFR	1	13	-1	MARBLE	867	n/a	-1	1	1.0	1.0	upper	../fonts/Verdana.ttf
2456949	WORD	wordpools/wasnorm_wordpool.txt	LTP129	ltpFR	1	13	-1	DESK	452	n/a	-1	1	1.0	1.0	upper	../fonts/Verdana.ttf
2461102	WORD	wordpools/wasnorm_wordpool.txt	LTP129	ltpFR	1	13	-1	DEPARTMENT	449	n/a	-1	1	1.0	1.0	upper	../fonts/Verdana.ttf
2465289	WORD	wordpools/wasnorm_wordpool.txt	LTP129	ltpFR	1	13	-1	DRESS	495	n/a	-1	1	1.0	1.0	upper	../fonts/Verdana.ttf
2469243	WORD	wordpools/wasnorm_wordpool.txt	LTP129	ltpFR	1	13	-1	GOWN	652	n/a	-1	1	1.0	1.0	upper	../fonts/Verdana.ttf
2473122	WORD	wordpools/wasnorm_wordpool.txt	LTP129	ltpFR	1	13	-1	VEGETABLE	1552	n/a	-1	1	1.0	1.0	upper	../fonts/Verdana.ttf
2476984	WORD	wordpools/wasnorm_wordpool.txt	LTP129	ltpFR	1	13	-1	BROTHER	179	n/a	-1	1	1.0	1.0	upper	../fonts/Verdana.ttf
2480913	WORD	wordpools/wasnorm_wordpool.txt	LTP129	ltpFR	1	13	-1	LIST	830	n/a	-1	1	1.0	1.0	upper	../fonts/Verdana.ttf
2486898	REC_START	n/a	LTP129	ltpFR	1	13	n/a	n/a	n/a	n/a	n/a	n/a	n/a	n/a	n/a	n/a
2487801	REC_WORD	wordpools/wasnorm_wordpool.txt	LTP129	ltpFR	1	13	-1	LIST	830	n/a	-1	n/a	n/a	n/a	n/a	n/a
2488623	REC_WORD	wordpools/wasnorm_wordpool.txt	LTP129	ltpFR	1	13	-1	DEPARTMENT	449	n/a	-1	n/a	n/a	n/a	n/a	n/a
2491772	REC_WORD	wordpools/wasnorm_wordpool.txt	LTP129	ltpFR	1	13	-1	SWITCH	1422	n/a	-1	n/a	n/a	n/a	n/a	n/a
2492854	REC_WORD	wordpools/wasnorm_wordpool.txt	LTP129	ltpFR	1	13	-1	ISLAND	745	n/a	-1	n/a	n/a	n/a	n/a	n/a
2494046	REC_WORD	wordpools/wasnorm_wordpool.txt	LTP129	ltpFR	1	13	-1	CONTAINER	366	n/a	-1	n/a	n/a	n/a	n/a	n/a
2495403	REC_WORD	wordpools/wasnorm_wordpool.txt	LTP129	ltpFR	1	13	-1	COFFEE	341	n/a	-1	n/a	n/a	n/a	n/a	n/a
2497344	REC_WORD	wordpools/wasnorm_wordpool.txt	LTP129	ltpFR	1	13	-1	SPINACH	1352	n/a	-1	n/a	n/a	n/a	n/a	n/a
2498741	REC_WORD	wordpools/wasnorm_wordpool.txt	LTP129	ltpFR	1	13	-1	SEASHORE	1263	n/a	-1	n/a	n/a	n/a	n/a	n/a
2506638	REC_WORD	wordpools/wasnorm_wordpool.txt	LTP129	ltpFR	1	13	-1	TOOTH	1481	n/a	-1	n/a	n/a	n/a	n/a	n/a
2532404	REC_WORD	wordpools/wasnorm_wordpool.txt	LTP129	ltpFR	1	13	-1	DRESS	495	n/a	-1	n/a	n/a	n/a	n/a	n/a
2557133	REC_WORD	wordpools/wasnorm_wordpool.txt	LTP129	ltpFR	1	13	-1	MARBLE	867	n/a	-1	n/a	n/a	n/a	n/a	n/a
2583476	WORD	wordpools/wasnorm_wordpool.txt	LTP129	ltpFR	1	14	1	EMPIRE	530	n/a	1	1	0.412841796875	0.57763671875	lower	../fonts/amplitud.ttf
2587306	WORD	wordpools/wasnorm_wordpool.txt	LTP129	ltpFR	1	14	1	PARCEL	1012	n/a	0	1	0.412841796875	0.57763671875	lower	../fonts/amplitud.ttf
2591160	WORD	wordpools/wasnorm_wordpool.txt	LTP129	ltpFR	1	14	1	POSTAGE	1113	n/a	0	1	0.412841796875	0.57763671875	lower	../fonts/amplitud.ttf
2595263	WORD	wordpools/wasnorm_wordpool.txt	LTP129	ltpFR	1	14	1	DISH	474	n/a	0	1	0.412841796875	0.57763671875	lower	../fonts/amplitud.ttf
2599142	WORD	wordpools/wasnorm_wordpool.txt	LTP129	ltpFR	1	14	1	EMERALD	528	n/a	0	1	0.412841796875	0.57763671875	lower	../fonts/amplitud.ttf
2603054	WORD	wordpools/wasnorm_wordpool.txt	LTP129	ltpFR	1	14	1	PROFESSOR	1131	n/a	1	1	0.412841796875	0.57763671875	lower	../fonts/amplitud.ttf
2607175	WORD	wordpools/wasnorm_wordpool.txt	LTP129	ltpFR	1	14	1	DOVE	491	n/a	1	1	0.412841796875	0.57763671875	lower	../fonts/amplitud.ttf
2611162	WORD	wordpools/wasnorm_wordpool.txt	LTP129	ltpFR	1	14	1	WAVE	1596	n/a	0	1	0.412841796875	0.57763671875	lower	../fonts/amplitud.ttf
2615074	WORD	wordpools/wasnorm_wordpool.txt	LTP129	ltpFR	1	14	1	GULL	671	n/a	1	1	0.412841796875	0.57763671875	lower	../fonts/amplitud.ttf
2618961	WORD	wordpools/wasnorm_wordpool.txt	LTP129	ltpFR	1	14	1	MILK	895	n/a	0	1	0.412841796875	0.57763671875	lower	../fonts/amplitud.ttf
2622915	WORD	wordpools/wasnorm_wordpool.txt	LTP129	ltpFR	1	14	1	CEREAL	272	n/a	0	1	0.412841796875	0.57763671875	lower	../fonts/amplitud.ttf
2626985	WORD	wordpools/wasnorm_wordpool.txt	LTP129	ltpFR	1	14	1	SHRUB	1299	n/a	1	1	0.412841796875	0.57763671875	lower	../fonts/amplitud.ttf
2630980	WORD	wordpools/wasnorm_wordpool.txt	LTP129	ltpFR	1	14	1	SNAIL	1332	n/a	1	1	0.412841796875	0.57763671875	lower	../fonts/amplitud.ttf
2634992	WORD	wordpools/wasnorm_wordpool.txt	LTP129	ltpFR	1	14	1	QUAIL	1147	n/a	1	1	0.412841796875	0.57763671875	lower	../fonts/amplitud.ttf
2638971	WORD	wordpools/wasnorm_wordpool.txt	LTP129	ltpFR	1	14	1	DILL	465	n/a	0	1	0.412841796875	0.57763671875	lower	../fonts/amplitud.ttf
2642941	WORD	wordpools/wasnorm_wordpool.txt	LTP129	ltpFR	1	14	1	TEA	1439	n/a	0	1	0.412841796875	0.57763671875	lower	../fonts/amplitud.ttf
2649010	REC_START	n/a	LTP129	ltpFR	1	14	n/a	n/a	n/a	n/a	n/a	n/a	n/a	n/a	n/a	n/a
2649743	REC_WORD	wordpools/wasnorm_wordpool.txt	LTP129	ltpFR	1	14	1	DILL	465	n/a	0	n/a	n/a	n/a	n/a	n/a
2650806	REC_WORD	wordpools/wasnorm_wordpool.txt	LTP129	ltpFR	1	14	1	TEA	1439	n/a	0	n/a	n/a	n/a	n/a	n/a
2651928	REC_WORD	wordpools/wasnorm_wordpool.txt	LTP129	ltpFR	1	14	1	SHRUB	1299	n/a	1	n/a	n/a	n/a	n/a	n/a
2657525	REC_WORD	wordpools/wasnorm_wordpool.txt	LTP129	ltpFR	1	14	1	POSTAGE	1113	n/a	0	n/a	n/a	n/a	n/a	n/a
2659186	REC_WORD	wordpools/wasnorm_wordpool.txt	LTP129	ltpFR	1	14	1	PARCEL	1012	n/a	0	n/a	n/a	n/a	n/a	n/a
2661296	REC_WORD	wordpools/wasnorm_wordpool.txt	LTP129	ltpFR	1	14	1	PROFESSOR	1131	n/a	1	n/a	n/a	n/a	n/a	n/a
2675609	REC_WORD	wordpools/wasnorm_wordpool.txt	LTP129	ltpFR	1	14	1	MILK	895	n/a	0	n/a	n/a	n/a	n/a	n/a
2676298	REC_WORD	wordpools/wasnorm_wordpool.txt	LTP129	ltpFR	1	14	1	CEREAL	272	n/a	0	n/a	n/a	n/a	n/a	n/a
2718317	REC_WORD	wordpools/wasnorm_wordpool.txt	LTP129	ltpFR	1	14	1	EMPIRE	530	n/a	1	n/a	n/a	n/a	n/a	n/a
2739854	WORD	wordpools/wasnorm_wordpool.txt	LTP129	ltpFR	1	15	1	CHEERLEADER	288	n/a	1	1	0.412841796875	0.57763671875	lower	../fonts/amplitud.ttf
2743800	WORD	wordpools/wasnorm_wordpool.txt	LTP129	ltpFR	1	15	1	MUSTARD	935	n/a	0	1	0.412841796875	0.57763671875	lower	../fonts/amplitud.ttf
2748003	WORD	wordpools/wasnorm_wordpool.txt	LTP129	ltpFR	1	15	1	CAFETERIA	217	n/a	0	1	0.412841796875	0.57763671875	lower	../fonts/amplitud.ttf
2751840	WORD	wordpools/wasnorm_wordpool.txt	LTP129	ltpFR	1	15	0	AIRPORT	13	n/a	1	0	0.5869140625	0.422607421875	upper	../fonts/zerothre.ttf
2755769	WORD	wordpools/wasnorm_wordpool.txt	LTP129	ltpFR	1	15	0	VEAL	1551	n/a	0	0	0.5869140625	0.422607421875	upper	../fonts/zerothre.ttf
2759723	WORD	wordpools/wasnorm_wordpool.txt	LTP129	ltpFR	1	15	1	CRAB	397	n/a	0	1	0.412841796875	0.57763671875	lower	../fonts/amplitud.ttf
2763785	WORD	wordpools/wasnorm_wordpool.txt	LTP129	ltpFR	1	15	1	ROACH	1195	n/a	1	1	0.412841796875	0.57763671875	lower	../fonts/amplitud.ttf
2767755	WORD	wordpools/wasnorm_wordpool.txt	LTP129	ltpFR	1	15	1	SPIDER	1351	n/a	0	1	0.412841796875	0.57763671875	lower	../fonts/amplitud.ttf
2771817	WORD	wordpools/wasnorm_wordpool.txt	LTP129	ltpFR	1	15	0	TERMINAL	1450	n/a	1	0	0.5869140625	0.422607421875	upper	../fonts/zerothre.ttf
2775671	WORD	wordpools/wasnorm_wordpool.txt	LTP129	ltpFR	1	15	0	OUTFIT	988	n/a	0	0	0.5869140625	0.422607421875	upper	../fonts/zerothre.ttf
2779625	WORD	wordpools/wasnorm_wordpool.txt	LTP129	ltpFR	1	15	0	SPOUSE	1358	n/a	1	0	0.5869140625	0.422607421875	upper	../fonts/zerothre.ttf
2783586	WORD	wordpools/wasnorm_wordpool.txt	LTP129	ltpFR	1	15	0	SURF	1412	n/a	1	0	0.5869140625	0.422607421875	upper	../fonts/zerothre.ttf
2787782	WORD	wordpools/wasnorm_wordpool.txt	LTP129	ltpFR	1	15	0	CREEK	404	n/a	1	0	0.5869140625	0.422607421875	upper	../fonts/zerothre.ttf
2791902	WORD	wordpools/wasnorm_wordpool.txt	LTP129	ltpFR	1	15	0	POTATO	1115	n/a	0	0	0.5869140625	0.422607421875	upper	../fonts/zerothre.ttf
2795989	WORD	wordpools/wasnorm_wordpool.txt	LTP129	ltpFR	1	15	1	NOMAD	955	n/a	1	1	0.412841796875	0.57763671875	lower	../fonts/amplitud.ttf
2799835	WORD	wordpools/wasnorm_wordpool.txt	LTP129	ltpFR	1	15	1	LABEL	790	n/a	0	1	0.412841796875	0.57763671875	lower	../fonts/amplitud.ttf
2805820	REC_START	n/a	LTP129	ltpFR	1	15	n/a	n/a	n/a	n/a	n/a	n/a	n/a	n/a	n/a	n/a
2806813	REC_WORD	wordpools/wasnorm_wordpool.txt	LTP129	ltpFR	1	15	1	NOMAD	955	n/a	1	n/a	n/a	n/a	n/a	n/a
2807930	REC_WORD	wordpools/wasnorm_wordpool.txt	LTP129	ltpFR	1	15	1	LABEL	790	n/a	0	n/a	n/a	n/a	n/a	n/a
2821654	REC_WORD	wordpools/wasnorm_wordpool.txt	LTP129	ltpFR	1	15	1	CRAB	397	n/a	0	n/a	n/a	n/a	n/a	n/a
2918922	WORD	wordpools/wasnorm_wordpool.txt	LTP129	ltpFR	1	16	-1	CORPORATION	382	n/a	-1	1	1.0	1.0	upper	../fonts/Verdana.ttf
2923067	WORD	wordpools/wasnorm_wordpool.txt	LTP129	ltpFR	1	16	-1	NECKLACE	940	n/a	-1	1	1.0	1.0	upper	../fonts/Verdana.ttf
2927096	WORD	wordpools/wasnorm_wordpool.txt	LTP129	ltpFR	1	16	-1	GEM	629	n/a	-1	1	1.0	1.0	upper	../fonts/Verdana.ttf
2931149	WORD	wordpools/wasnorm_wordpool.txt	LTP129	ltpFR	1	16	-1	DRIVEWAY	500	n/a	-1	1	1.0	1.0	upper	../fonts/Verdana.ttf
2935145	WORD	wordpools/wasnorm_wordpool.txt	LTP129	ltpFR	1	16	-1	WHEEL	1603	n/a	-1	1	1.0	1.0	upper	../fonts/Verdana.ttf
2939356	WORD	wordpools/wasnorm_wordpool.txt	LTP129	ltpFR	1	16	-1	CARAVAN	242	n/a	-1	1	1.0	1.0	upper	../fonts/Verdana.ttf
2943484	WORD	wordpools/wasnorm_wordpool.txt	LTP129	ltpFR	1	16	-1	SCISSORS	1250	n/a	-1	1	1.0	1.0	upper	../fonts/Verdana.ttf
2947647	WORD	wordpools/wasnorm_wordpool.txt	LTP129	ltpFR	1	16	-1	CHECK	284	n/a	-1	1	1.0	1.0	upper	../fonts/Verdana.ttf
2951850	WORD	wordpools/wasnorm_wordpool.txt	LTP129	ltpFR	1	16	-1	GIFT	635	n/a	-1	1	1.0	1.0	upper	../fonts/Verdana.ttf
2955746	WORD	wordpools/wasnorm_wordpool.txt	LTP129	ltpFR	1	16	-1	ROOSTER	1209	n/a	-1	1	1.0	1.0	upper	../fonts/Verdana.ttf
2959574	WORD	wordpools/wasnorm_wordpool.txt	LTP129	ltpFR	1	16	-1	WINGS	1614	n/a	-1	1	1.0	1.0	upper	../fonts/Verdana.ttf
2963637	WORD	wordpools/wasnorm_wordpool.txt	LTP129	ltpFR	1	16	-1	CHAUFFEUR	283	n/a	-1	1	1.0	1.0	upper	../fonts/Verdana.ttf
2967531	WORD	wordpools/wasnorm_wordpool.txt	LTP129	ltpFR	1	16	-1	SALAD	1224	n/a	-1	1	1.0	1.0	upper	../fonts/Verdana.ttf
2971535	WORD	wordpools/wasnorm_wordpool.txt	LTP129	ltpFR	1	16	-1	HEDGE	699	n/a	-1	1	1.0	1.0	upper	../fonts/Verdana.ttf
2975373	WORD	wordpools/wasnorm_wordpool.txt	LTP129	ltpFR	1	16	-1	MEDICINE	886	n/a	-1	1	1.0	1.0	upper	../fonts/Verdana.ttf
2979327	WORD	wordpools/wasnorm_wordpool.txt	LTP129	ltpFR	1	16	-1	ATMOSPHERE	54	n/a	-1	1	1.0	1.0	upper	../fonts/Verdana.ttf
2985287	REC_START	n/a	LTP129	ltpFR	1	16	n/a	n/a	n/a	n/a	n/a	n/a	n/a	n/a	n/a	n/a
2986409	REC_WORD	wordpools/wasnorm_wordpool.txt	LTP129	ltpFR	1	16	-1	HEDGE	699	n/a	-1	n/a	n/a	n/a	n/a	n/a
2987247	REC_WORD	wordpools/wasnorm_wordpool.txt	LTP129	ltpFR	1	16	-1	MEDICINE	886	n/a	-1	n/a	n/a	n/a	n/a	n/a
2988315	REC_WORD	wordpools/wasnorm_wordpool.txt	LTP129	ltpFR	1	16	-1	ATMOSPHERE	54	n/a	-1	n/a	n/a	n/a	n/a	n/a
2991537	REC_WORD	wordpools/wasnorm_wordpool.txt	LTP129	ltpFR	1	16	-1	CORPORATION	382	n/a	-1	n/a	n/a	n/a	n/a	n/a
2993029	REC_WORD	wordpools/wasnorm_wordpool.txt	LTP129	ltpFR	1	16	-1	NECKLACE	940	n/a	-1	n/a	n/a	n/a	n/a	n/a
2994456	REC_WORD	wordpools/wasnorm_wordpool.txt	LTP129	ltpFR	1	16	-1	GEM	629	n/a	-1	n/a	n/a	n/a	n/a	n/a
3001944	REC_WORD	wordpools/wasnorm_wordpool.txt	LTP129	ltpFR	1	16	-1	DRIVEWAY	500	n/a	-1	n/a	n/a	n/a	n/a	n/a
3003241	REC_WORD	wordpools/wasnorm_wordpool.txt	LTP129	ltpFR	1	16	-1	WHEEL	1603	n/a	-1	n/a	n/a	n/a	n/a	n/a
3007292	REC_WORD	wordpools/wasnorm_wordpool.txt	LTP129	ltpFR	1	16	-1	CARAVAN	242	n/a	-1	n/a	n/a	n/a	n/a	n/a
3009806	REC_WORD	wordpools/wasnorm_wordpool.txt	LTP129	ltpFR	1	16	-1	SCISSORS	1250	n/a	-1	n/a	n/a	n/a	n/a	n/a
3017334	REC_WORD	wordpools/wasnorm_wordpool.txt	LTP129	ltpFR	1	16	-1	CHECK	284	n/a	-1	n/a	n/a	n/a	n/a	n/a
3029321	REC_WORD	wordpools/wasnorm_wordpool.txt	LTP129	ltpFR	1	16	-1	ROOSTER	1209	n/a	-1	n/a	n/a	n/a	n/a	n/a
3031916	REC_WORD	wordpools/wasnorm_wordpool.txt	LTP129	ltpFR	1	16	-1	WINGS	1614	n/a	-1	n/a	n/a	n/a	n/a	n/a
3033767	REC_WORD	wordpools/wasnorm_wordpool.txt	LTP129	ltpFR	1	16	-1	CHAUFFEUR	283	n/a	-1	n/a	n/a	n/a	n/a	n/a
3036376	REC_WORD	wordpools/wasnorm_wordpool.txt	LTP129	ltpFR	1	16	-1	SALAD	1224	n/a	-1	n/a	n/a	n/a	n/a	n/a
3095385	REC_START	n/a	LTP129	ltpFR	1	n/a	n/a	n/a	n/a	n/a	n/a	n/a	n/a	n/a	n/a	n/a
3097210	FFR_REC_WORD	wordpools/wasnorm_wordpool.txt	LTP129	ltpFR	1	n/a	-1	CORPORATION	382	n/a	-1	n/a	n/a	n/a	n/a	n/a
3099765	FFR_REC_WORD	wordpools/wasnorm_wordpool.txt	LTP129	ltpFR	1	n/a	-1	NECKLACE	940	n/a	-1	n/a	n/a	n/a	n/a	n/a
3102239	FFR_REC_WORD	wordpools/wasnorm_wordpool.txt	LTP129	ltpFR	1	n/a	-1	GEM	629	n/a	-1	n/a	n/a	n/a	n/a	n/a
3105093	FFR_REC_WORD	wordpools/wasnorm_wordpool.txt	LTP129	ltpFR	1	n/a	-1	DRIVEWAY	500	n/a	-1	n/a	n/a	n/a	n/a	n/a
3106225	FFR_REC_WORD	wordpools/wasnorm_wordpool.txt	LTP129	ltpFR	1	n/a	-1	WHEEL	1603	n/a	-1	n/a	n/a	n/a	n/a	n/a
3108205	FFR_REC_WORD	wordpools/wasnorm_wordpool.txt	LTP129	ltpFR	1	n/a	-1	CARAVAN	242	n/a	-1	n/a	n/a	n/a	n/a	n/a
3109542	FFR_REC_WORD	wordpools/wasnorm_wordpool.txt	LTP129	ltpFR	1	n/a	-1	SCISSORS	1250	n/a	-1	n/a	n/a	n/a	n/a	n/a
3116786	FFR_REC_WORD	wordpools/wasnorm_wordpool.txt	LTP129	ltpFR	1	n/a	-1	ROOSTER	1209	n/a	-1	n/a	n/a	n/a	n/a	n/a
3118631	FFR_REC_WORD	wordpools/wasnorm_wordpool.txt	LTP129	ltpFR	1	n/a	-1	WINGS	1614	n/a	-1	n/a	n/a	n/a	n/a	n/a
3123092	FFR_REC_WORD	wordpools/wasnorm_wordpool.txt	LTP129	ltpFR	1	n/a	-1	CHECK	284	n/a	-1	n/a	n/a	n/a	n/a	n/a
3130685	FFR_REC_WORD	wordpools/wasnorm_wordpool.txt	LTP129	ltpFR	1	n/a	-1	CHAUFFEUR	283	n/a	-1	n/a	n/a	n/a	n/a	n/a
3134276	FFR_REC_WORD	wordpools/wasnorm_wordpool.txt	LTP129	ltpFR	1	n/a	-1	SALAD	1224	n/a	-1	n/a	n/a	n/a	n/a	n/a
3140243	FFR_REC_WORD	wordpools/wasnorm_wordpool.txt	LTP129	ltpFR	1	n/a	-1	HEDGE	699	n/a	-1	n/a	n/a	n/a	n/a	n/a
3142791	FFR_REC_WORD	wordpools/wasnorm_wordpool.txt	LTP129	ltpFR	1	n/a	-1	MEDICINE	886	n/a	-1	n/a	n/a	n/a	n/a	n/a
3151258	FFR_REC_WORD	wordpools/wasnorm_wordpool.txt	LTP129	ltpFR	1	n/a	0	GHETTO	633	n/a	1	n/a	n/a	n/a	n/a	n/a
3155363	FFR_REC_WORD	wordpools/wasnorm_wordpool.txt	LTP129	ltpFR	1	n/a	0	CREEK	404	n/a	1	n/a	n/a	n/a	n/a	n/a
3159409	FFR_REC_WORD	wordpools/wasnorm_wordpool.txt	LTP129	ltpFR	1	n/a	0	BAY	102	n/a	1	n/a	n/a	n/a	n/a	n/a
3161569	FFR_REC_WORD	wordpools/wasnorm_wordpool.txt	LTP129	ltpFR	1	n/a	0	WHALE	1601	n/a	1	n/a	n/a	n/a	n/a	n/a
3163629	FFR_REC_WORD	wordpools/wasnorm_wordpool.txt	LTP129	ltpFR	1	n/a	0	FISH	571	n/a	0	n/a	n/a	n/a	n/a	n/a
3169930	FFR_REC_WORD	wordpools/wasnorm_wordpool.txt	LTP129	ltpFR	1	n/a	0	TUNA	1518	n/a	0	n/a	n/a	n/a	n/a	n/a
3194769	FFR_REC_WORD	wordpools/wasnorm_wordpool.txt	LTP129	ltpFR	1	n/a	0	GARDEN	623	n/a	1	n/a	n/a	n/a	n/a	n/a
3198321	FFR_REC_WORD	wordpools/wasnorm_wordpool.txt	LTP129	ltpFR	1	n/a	0	TURNIP	1521	n/a	0	n/a	n/a	n/a	n/a	n/a
3199992	FFR_REC_WORD	wordpools/wasnorm_wordpool.txt	LTP129	ltpFR	1	n/a	0	ORANGE	980	n/a	0	n/a	n/a	n/a	n/a	n/a
3202641	FFR_REC_WORD	wordpools/wasnorm_wordpool.txt	LTP129	ltpFR	1	n/a	1	PLUM	1090	n/a	1	n/a	n/a	n/a	n/a	n/a
3223314	FFR_REC_WORD	wordpools/wasnorm_wordpool.txt	LTP129	ltpFR	1	n/a	1	DEPUTY	450	n/a	1	n/a	n/a	n/a	n/a	n/a
3226921	FFR_REC_WORD	wordpools/wasnorm_wordpool.txt	LTP129	ltpFR	1	n/a	n/a	SHERIFF	1284	n/a	n/a	n/a	n/a	n/a	n/a	n/a
3233650	FFR_REC_WORD	wordpools/wasnorm_wordpool.txt	LTP129	ltpFR	1	n/a	1	PREACHER	1119	n/a	1	n/a	n/a	n/a	n/a	n/a
3236928	FFR_REC_WORD	wordpools/wasnorm_wordpool.txt	LTP129	ltpFR	1	n/a	1	MILK	895	n/a	0	n/a	n/a	n/a	n/a	n/a
3237666	FFR_REC_WORD	wordpools/wasnorm_wordpool.txt	LTP129	ltpFR	1	n/a	1	CEREAL	272	n/a	0	n/a	n/a	n/a	n/a	n/a
3239742	FFR_REC_WORD	wordpools/wasnorm_wordpool.txt	LTP129	ltpFR	1	n/a	-1	ISLAND	745	n/a	-1	n/a	n/a	n/a	n/a	n/a
3240479	FFR_REC_WORD	wordpools/wasnorm_wordpool.txt	LTP129	ltpFR	1	n/a	-1	SWITCH	1422	n/a	-1	n/a	n/a	n/a	n/a	n/a
3241767	FFR_REC_WORD	wordpools/wasnorm_wordpool.txt	LTP129	ltpFR	1	n/a	-1	BROOM	178	n/a	-1	n/a	n/a	n/a	n/a	n/a
3247249	FFR_REC_WORD	wordpools/wasnorm_wordpool.txt	LTP129	ltpFR	1	n/a	-1	SPINACH	1352	n/a	-1	n/a	n/a	n/a	n/a	n/a
3249065	FFR_REC_WORD	wordpools/wasnorm_wordpool.txt	LTP129	ltpFR	1	n/a	-1	CONTAINER	366	n/a	-1	n/a	n/a	n/a	n/a	n/a
3263278	FFR_REC_WORD	wordpools/wasnorm_wordpool.txt	LTP129	ltpFR	1	n/a	n/a	OATS	968	n/a	n/a	n/a	n/a	n/a	n/a	n/a
3267913	FFR_REC_WORD	wordpools/wasnorm_wordpool.txt	LTP129	ltpFR	1	n/a	-1	SEASHORE	1263	n/a	-1	n/a	n/a	n/a	n/a	n/a
3278404	FFR_REC_WORD	wordpools/wasnorm_wordpool.txt	LTP129	ltpFR	1	n/a	0	CAGE	218	n/a	0	n/a	n/a	n/a	n/a	n/a
3281372	FFR_REC_WORD	wordpools/wasnorm_wordpool.txt	LTP129	ltpFR	1	n/a	1	EAGLE	512	n/a	1	n/a	n/a	n/a	n/a	n/a
3292327	FFR_REC_WORD	wordpools/wasnorm_wordpool.txt	LTP129	ltpFR	1	n/a	1	CRAB	397	n/a	0	n/a	n/a	n/a	n/a	n/a
3307462	FFR_REC_WORD	wordpools/wasnorm_wordpool.txt	LTP129	ltpFR	1	n/a	1	PROFESSOR	1131	n/a	1	n/a	n/a	n/a	n/a	n/a
3312446	FFR_REC_WORD	wordpools/wasnorm_wordpool.txt	LTP129	ltpFR	1	n/a	1	EMPIRE	530	n/a	1	n/a	n/a	n/a	n/a	n/a
3321271	FFR_REC_WORD	wordpools/wasnorm_wordpool.txt	LTP129	ltpFR	1	n/a	0	ICE	730	n/a	0	n/a	n/a	n/a	n/a	n/a
3322344	FFR_REC_WORD	wordpools/wasnorm_wordpool.txt	LTP129	ltpFR	1	n/a	0	CUBE	420	n/a	0	n/a	n/a	n/a	n/a	n/a
3323835	FFR_REC_WORD	wordpools/wasnorm_wordpool.txt	LTP129	ltpFR	1	n/a	0	KITCHEN	778	n/a	1	n/a	n/a	n/a	n/a	n/a
3326998	FFR_REC_WORD	wordpools/wasnorm_wordpool.txt	LTP129	ltpFR	1	n/a	0	BLOSSOM	138	n/a	0	n/a	n/a	n/a	n/a	n/a
3331857	FFR_REC_WORD	wordpools/wasnorm_wordpool.txt	LTP129	ltpFR	1	n/a	0	EDITORIAL	517	n/a	1	n/a	n/a	n/a	n/a	n/a
3333214	FFR_REC_WORD	wordpools/wasnorm_wordpool.txt	LTP129	ltpFR	1	n/a	0	ARTICLE	42	n/a	1	n/a	n/a	n/a	n/a	n/a
3337813	FFR_REC_WORD	wordpools/wasnorm_wordpool.txt	LTP129	ltpFR	1	n/a	0	AWARD	63	n/a	0	n/a	n/a	n/a	n/a	n/a
3364214	FFR_REC_WORD	wordpools/wasnorm_wordpool.txt	LTP129	ltpFR	1	n/a	1	PORK	1108	n/a	0	n/a	n/a	n/a	n/a	n/a
3369481	FFR_REC_WORD	wordpools/wasnorm_wordpool.txt	LTP129	ltpFR	1	n/a	1	POSTAGE	1113	n/a	0	n/a	n/a	n/a	n/a	n/a
3370834	FFR_REC_WORD	wordpools/wasnorm_wordpool.txt	LTP129	ltpFR	1	n/a	1	PARCEL	1012	n/a	0	n/a	n/a	n/a	n/a	n/a
3470466	REC_START	n/a	LTP129	ltpFR	1	1	n/a	n/a	n/a	n/a	n/a	n/a	n/a	n/a	n/a	n/a
3470490	RECOG_TARGET	n/a	LTP129	ltpFR	1	1	0	SURF	1412	5	1	n/a	n/a	n/a	n/a	n/a
3473599	RECOG_RESP	n/a	LTP129	ltpFR	1	1	0	SURF	1412	n/a	1	n/a	n/a	n/a	n/a	n/a
3475978	RECOG_CONF	n/a	LTP129	ltpFR	1	1	0	SURF	1412	5	1	n/a	n/a	n/a	n/a	n/a
3477507	RECOG_TARGET	n/a	LTP129	ltpFR	1	1	1	UNIFORM	1539	5	0	n/a	n/a	n/a	n/a	n/a
3479241	RECOG_RESP	n/a	LTP129	ltpFR	1	1	1	UNIFORM	1539	n/a	0	n/a	n/a	n/a	n/a	n/a
3480468	RECOG_CONF	n/a	LTP129	ltpFR	1	1	1	UNIFORM	1539	5	0	n/a	n/a	n/a	n/a	n/a
3481978	RECOG_LURE	n/a	LTP129	ltpFR	1	1	n/a	JAPAN	749	5	n/a	n/a	n/a	n/a	n/a	n/a
3483042	RECOG_RESP	n/a	LTP129	ltpFR	1	1	n/a	JAPAN	749	n/a	n/a	n/a	n/a	n/a	n/a	n/a
3484279	RECOG_CONF	n/a	LTP129	ltpFR	1	1	n/a	JAPAN	749	5	n/a	n/a	n/a	n/a	n/a	n/a
3485882	RECOG_TARGET	n/a	LTP129	ltpFR	1	1	0	EDITORIAL	517	5	1	n/a	n/a	n/a	n/a	n/a
3486744	RECOG_RESP	n/a	LTP129	ltpFR	1	1	0	EDITORIAL	517	n/a	1	n/a	n/a	n/a	n/a	n/a
3487891	RECOG_CONF	n/a	LTP129	ltpFR	1	1	0	EDITORIAL	517	5	1	n/a	n/a	n/a	n/a	n/a
3489344	RECOG_TARGET	n/a	LTP129	ltpFR	1	1	-1	WINGS	1614	5	-1	n/a	n/a	n/a	n/a	n/a
3490061	RECOG_RESP	n/a	LTP129	ltpFR	1	1	-1	WINGS	1614	n/a	-1	n/a	n/a	n/a	n/a	n/a
3491284	RECOG_CONF	n/a	LTP129	ltpFR	1	1	-1	WINGS	1614	5	-1	n/a	n/a	n/a	n/a	n/a
3492715	RECOG_LURE	n/a	LTP129	ltpFR	1	1	n/a	CROCODILE	411	5	n/a	n/a	n/a	n/a	n/a	n/a
3494366	RECOG_RESP	n/a	LTP129	ltpFR	1	1	n/a	CROCODILE	411	n/a	n/a	n/a	n/a	n/a	n/a	n/a
3495594	RECOG_CONF	n/a	LTP129	ltpFR	1	1	n/a	CROCODILE	411	5	n/a	n/a	n/a	n/a	n/a	n/a
3497094	RECOG_TARGET	n/a	LTP129	ltpFR	1	1	1	PRINCESS	1125	5	1	n/a	n/a	n/a	n/a	n/a
3498409	RECOG_RESP	n/a	LTP129	ltpFR	1	1	1	PRINCESS	1125	n/a	1	n/a	n/a	n/a	n/a	n/a
3499654	RECOG_CONF	n/a	LTP129	ltpFR	1	1	1	PRINCESS	1125	5	1	n/a	n/a	n/a	n/a	n/a
3501081	RECOG_LURE	n/a	LTP129	ltpFR	1	1	n/a	HEN	703	5	n/a	n/a	n/a	n/a	n/a	n/a
3502129	RECOG_RESP	n/a	LTP129	ltpFR	1	1	n/a	HEN	703	n/a	n/a	n/a	n/a	n/a	n/a	n/a
3503286	RECOG_CONF	n/a	LTP129	ltpFR	1	1	n/a	HEN	703	5	n/a	n/a	n/a	n/a	n/a	n/a
3504693	RECOG_LURE	n/a	LTP129	ltpFR	1	1	n/a	REGISTER	1180	3	n/a	n/a	n/a	n/a	n/a	n/a
3505945	RECOG_RESP	n/a	LTP129	ltpFR	1	1	n/a	REGISTER	1180	n/a	n/a	n/a	n/a	n/a	n/a	n/a
3507157	RECOG_CONF	n/a	LTP129	ltpFR	1	1	n/a	REGISTER	1180	3	n/a	n/a	n/a	n/a	n/a	n/a
3508471	RECOG_LURE	n/a	LTP129	ltpFR	1	1	n/a	GRASS	655	4	n/a	n/a	n/a	n/a	n/a	n/a
3509736	RECOG_RESP	n/a	LTP129	ltpFR	1	1	n/a	GRASS	655	n/a	n/a	n/a	n/a	n/a	n/a	n/a
3511268	RECOG_CONF	n/a	LTP129	ltpFR	1	1	n/a	GRASS	655	4	n/a	n/a	n/a	n/a	n/a	n/a
3512742	RECOG_TARGET	n/a	LTP129	ltpFR	1	1	-1	SALAD	1224	5	-1	n/a	n/a	n/a	n/a	n/a
3513488	RECOG_RESP	n/a	LTP129	ltpFR	1	1	-1	SALAD	1224	n/a	-1	n/a	n/a	n/a	n/a	n/a
3514830	RECOG_CONF	n/a	LTP129	ltpFR	1	1	-1	SALAD	1224	5	-1	n/a	n/a	n/a	n/a	n/a
3516330	RECOG_LURE	n/a	LTP129	ltpFR	1	1	n/a	SOAP	1337	4	n/a	n/a	n/a	n/a	n/a	n/a
3517843	RECOG_RESP	n/a	LTP129	ltpFR	1	1	n/a	SOAP	1337	n/a	n/a	n/a	n/a	n/a	n/a	n/a
3519160	RECOG_CONF	n/a	LTP129	ltpFR	1	1	n/a	SOAP	1337	4	n/a	n/a	n/a	n/a	n/a	n/a
3520549	RECOG_LURE	n/a	LTP129	ltpFR	1	1	n/a	BEAN	105	4	n/a	n/a	n/a	n/a	n/a	n/a
3521689	RECOG_RESP	n/a	LTP129	ltpFR	1	1	n/a	BEAN	105	n/a	n/a	n/a	n/a	n/a	n/a	n/a
3522922	RECOG_CONF	n/a	LTP129	ltpFR	1	1	n/a	BEAN	105	4	n/a	n/a	n/a	n/a	n/a	n/a
3524329	RECOG_TARGET	n/a	LTP129	ltpFR	1	1	1	EMPIRE	530	5	1	n/a	n/a	n/a	n/a	n/a
3525002	RECOG_RESP	n/a	LTP129	ltpFR	1	1	1	EMPIRE	530	n/a	1	n/a	n/a	n/a	n/a	n/a
3526424	RECOG_CONF	n/a	LTP129	ltpFR	1	1	1	EMPIRE	530	5	1	n/a	n/a	n/a	n/a	n/a
3527991	RECOG_LURE	n/a	LTP129	ltpFR	1	1	n/a	RAT	1169	3	n/a	n/a	n/a	n/a	n/a	n/a
3529716	RECOG_RESP	n/a	LTP129	ltpFR	1	1	n/a	RAT	1169	n/a	n/a	n/a	n/a	n/a	n/a	n/a
3531183	RECOG_CONF	n/a	LTP129	ltpFR	1	1	n/a	RAT	1169	3	n/a	n/a	n/a	n/a	n/a	n/a
3532585	RECOG_TARGET	n/a	LTP129	ltpFR	1	1	0	CREATURE	403	5	1	n/a	n/a	n/a	n/a	n/a
3533403	RECOG_RESP	n/a	LTP129	ltpFR	1	1	0	CREATURE	403	n/a	1	n/a	n/a	n/a	n/a	n/a
3534745	RECOG_CONF	n/a	LTP129	ltpFR	1	1	0	CREATURE	403	5	1	n/a	n/a	n/a	n/a	n/a
3536198	RECOG_LURE	n/a	LTP129	ltpFR	1	1	n/a	CRAYON	401	5	n/a	n/a	n/a	n/a	n/a	n/a
3537194	RECOG_RESP	n/a	LTP129	ltpFR	1	1	n/a	CRAYON	401	n/a	n/a	n/a	n/a	n/a	n/a	n/a
3538396	RECOG_CONF	n/a	LTP129	ltpFR	1	1	n/a	CRAYON	401	5	n/a	n/a	n/a	n/a	n/a	n/a
3539844	RECOG_TARGET	n/a	LTP129	ltpFR	1	1	0	CHIP	303	5	0	n/a	n/a	n/a	n/a	n/a
3540731	RECOG_RESP	n/a	LTP129	ltpFR	1	1	0	CHIP	303	n/a	0	n/a	n/a	n/a	n/a	n/a
3542058	RECOG_CONF	n/a	LTP129	ltpFR	1	1	0	CHIP	303	5	0	n/a	n/a	n/a	n/a	n/a
3543481	RECOG_LURE	n/a	LTP129	ltpFR	1	1	n/a	BUYER	208	3	n/a	n/a	n/a	n/a	n/a	n/a
3544502	RECOG_RESP	n/a	LTP129	ltpFR	1	1	n/a	BUYER	208	n/a	n/a	n/a	n/a	n/a	n/a	n/a
3545929	RECOG_CONF	n/a	LTP129	ltpFR	1	1	n/a	BUYER	208	3	n/a	n/a	n/a	n/a	n/a	n/a
3547335	RECOG_LURE	n/a	LTP129	ltpFR	1	1	n/a	CHILD	299	3	n/a	n/a	n/a	n/a	n/a	n/a
3548344	RECOG_RESP	n/a	LTP129	ltpFR	1	1	n/a	CHILD	299	n/a	n/a	n/a	n/a	n/a	n/a	n/a
3549561	RECOG_CONF	n/a	LTP129	ltpFR	1	1	n/a	CHILD	299	3	n/a	n/a	n/a	n/a	n/a	n/a
3561464	REC_START	n/a	LTP129	ltpFR	1	2	n/a	n/a	n/a	n/a	n/a	n/a	n/a	n/a	n/a	n/a
3561493	RECOG_TARGET	n/a	LTP129	ltpFR	1	2	-1	CIRCUS	311	5	-1	n/a	n/a	n/a	n/a	n/a
3562357	RECOG_RESP	n/a	LTP129	ltpFR	1	2	-1	CIRCUS	311	n/a	-1	n/a	n/a	n/a	n/a	n/a
3563624	RECOG_CONF	n/a	LTP129	ltpFR	1	2	-1	CIRCUS	311	5	-1	n/a	n/a	n/a	n/a	n/a
3565040	RECOG_LURE	n/a	LTP129	ltpFR	1	2	n/a	ENEMY	534	5	n/a	n/a	n/a	n/a	n/a	n/a
3565993	RECOG_RESP	n/a	LTP129	ltpFR	1	2	n/a	ENEMY	534	n/a	n/a	n/a	n/a	n/a	n/a	n/a
3567415	RECOG_CONF	n/a	LTP129	ltpFR	1	2	n/a	ENEMY	534	5	n/a	n/a	n/a	n/a	n/a	n/a
3568802	RECOG_TARGET	n/a	LTP129	ltpFR	1	2	1	WINDOW	1611	5	0	n/a	n/a	n/a	n/a	n/a
3569446	RECOG_RESP	n/a	LTP129	ltpFR	1	2	1	WINDOW	1611	n/a	0	n/a	n/a	n/a	n/a	n/a
3570658	RECOG_CONF	n/a	LTP129	ltpFR	1	2	1	WINDOW	1611	5	0	n/a	n/a	n/a	n/a	n/a
3572090	RECOG_TARGET	n/a	LTP129	ltpFR	1	2	1	WRITER	1627	5	1	n/a	n/a	n/a	n/a	n/a
3573312	RECOG_RESP	n/a	LTP129	ltpFR	1	2	1	WRITER	1627	n/a	1	n/a	n/a	n/a	n/a	n/a
3574549	RECOG_CONF	n/a	LTP129	ltpFR	1	2	1	WRITER	1627	5	1	n/a	n/a	n/a	n/a	n/a
3575944	RECOG_TARGET	n/a	LTP129	ltpFR	1	2	-1	DRIVEWAY	500	5	-1	n/a	n/a	n/a	n/a	n/a
3576659	RECOG_RESP	n/a	LTP129	ltpFR	1	2	-1	DRIVEWAY	500	n/a	-1	n/a	n/a	n/a	n/a	n/a
3577822	RECOG_CONF	n/a	LTP129	ltpFR	1	2	-1	DRIVEWAY	500	5	-1	n/a	n/a	n/a	n/a	n/a
3579149	RECOG_TARGET	n/a	LTP129	ltpFR	1	2	-1	UNCLE	1536	5	-1	n/a	n/a	n/a	n/a	n/a
3580406	RECOG_RESP	n/a	LTP129	ltpFR	1	2	-1	UNCLE	1536	n/a	-1	n/a	n/a	n/a	n/a	n/a
3581723	RECOG_CONF	n/a	LTP129	ltpFR	1	2	-1	UNCLE	1536	5	-1	n/a	n/a	n/a	n/a	n/a
3583019	RECOG_LURE	n/a	LTP129	ltpFR	1	2	n/a	OREGANO	983	3	n/a	n/a	n/a	n/a	n/a	n/a
3583948	RECOG_RESP	n/a	LTP129	ltpFR	1	2	n/a	OREGANO	983	n/a	n/a	n/a	n/a	n/a	n/a	n/a
3585195	RECOG_CONF	n/a	LTP129	ltpFR	1	2	n/a	OREGANO	983	3	n/a	n/a	n/a	n/a	n/a	n/a
3586572	RECOG_LURE	n/a	LTP129	ltpFR	1	2	n/a	PLANT	1083	4	n/a	n/a	n/a	n/a	n/a	n/a
3587539	RECOG_RESP	n/a	LTP129	ltpFR	1	2	n/a	PLANT	1083	n/a	n/a	n/a	n/a	n/a	n/a	n/a
3588817	RECOG_CONF	n/a	LTP129	ltpFR	1	2	n/a	PLANT	1083	4	n/a	n/a	n/a	n/a	n/a	n/a
3590169	RECOG_TARGET	n/a	LTP129	ltpFR	1	2	-1	COLONEL	348	5	-1	n/a	n/a	n/a	n/a	n/a
3591341	RECOG_RESP	n/a	LTP129	ltpFR	1	2	-1	COLONEL	348	n/a	-1	n/a	n/a	n/a	n/a	n/a
3592568	RECOG_CONF	n/a	LTP129	ltpFR	1	2	-1	COLONEL	348	5	-1	n/a	n/a	n/a	n/a	n/a
3593915	RECOG_TARGET	n/a	LTP129	ltpFR	1	2	1	CHEERLEADER	288	5	1	n/a	n/a	n/a	n/a	n/a
3595177	RECOG_RESP	n/a	LTP129	ltpFR	1	2	1	CHEERLEADER	288	n/a	1	n/a	n/a	n/a	n/a	n/a
3596459	RECOG_CONF	n/a	LTP129	ltpFR	1	2	1	CHEERLEADER	288	5	1	n/a	n/a	n/a	n/a	n/a
3597943	RECOG_TARGET	n/a	LTP129	ltpFR	1	2	1	BEAVER	109	3	1	n/a	n/a	n/a	n/a	n/a
3599547	RECOG_RESP	n/a	LTP129	ltpFR	1	2	1	BEAVER	109	n/a	1	n/a	n/a	n/a	n/a	n/a
3600839	RECOG_CONF	n/a	LTP129	ltpFR	1	2	1	BEAVER	109	3	1	n/a	n/a	n/a	n/a	n/a
3602180	RECOG_LURE	n/a	LTP129	ltpFR	1	2	n/a	TAPIOCA	1434	5	n/a	n/a	n/a	n/a	n/a	n/a
3603154	RECOG_RESP	n/a	LTP129	ltpFR	1	2	n/a	TAPIOCA	1434	n/a	n/a	n/a	n/a	n/a	n/a	n/a
3604651	RECOG_CONF	n/a	LTP129	ltpFR	1	2	n/a	TAPIOCA	1434	5	n/a	n/a	n/a	n/a	n/a	n/a
3606084	RECOG_TARGET	n/a	LTP129	ltpFR	1	2	-1	SWITCH	1422	5	-1	n/a	n/a	n/a	n/a	n/a
3606945	RECOG_RESP	n/a	LTP129	ltpFR	1	2	-1	SWITCH	1422	n/a	-1	n/a	n/a	n/a	n/a	n/a
3608213	RECOG_CONF	n/a	LTP129	ltpFR	1	2	-1	SWITCH	1422	5	-1	n/a	n/a	n/a	n/a	n/a
3609647	RECOG_LURE	n/a	LTP129	ltpFR	1	2	n/a	SWAMP	1416	3	n/a	n/a	n/a	n/a	n/a	n/a
3611387	RECOG_RESP	n/a	LTP129	ltpFR	1	2	n/a	SWAMP	1416	n/a	n/a	n/a	n/a	n/a	n/a	n/a
3612742	RECOG_CONF	n/a	LTP129	ltpFR	1	2	n/a	SWAMP	1416	3	n/a	n/a	n/a	n/a	n/a	n/a
3614133	RECOG_LURE	n/a	LTP129	ltpFR	1	2	n/a	EAR	513	5	n/a	n/a	n/a	n/a	n/a	n/a
3615351	RECOG_RESP	n/a	LTP129	ltpFR	1	2	n/a	EAR	513	n/a	n/a	n/a	n/a	n/a	n/a	n/a
3616613	RECOG_CONF	n/a	LTP129	ltpFR	1	2	n/a	EAR	513	5	n/a	n/a	n/a	n/a	n/a	n/a
3617987	RECOG_TARGET	n/a	LTP129	ltpFR	1	2	1	STUDENT	1395	3	1	n/a	n/a	n/a	n/a	n/a
3619247	RECOG_RESP	n/a	LTP129	ltpFR	1	2	1	STUDENT	1395	n/a	1	n/a	n/a	n/a	n/a	n/a
3620824	RECOG_CONF	n/a	LTP129	ltpFR	1	2	1	STUDENT	1395	3	1	n/a	n/a	n/a	n/a	n/a
3622140	RECOG_TARGET	n/a	LTP129	ltpFR	1	2	1	BLENDER	136	3	0	n/a	n/a	n/a	n/a	n/a
3623583	RECOG_RESP	n/a	LTP129	ltpFR	1	2	1	BLENDER	136	n/a	0	n/a	n/a	n/a	n/a	n/a
3625174	RECOG_CONF	n/a	LTP129	ltpFR	1	2	1	BLENDER	136	3	0	n/a	n/a	n/a	n/a	n/a
3626518	RECOG_TARGET	n/a	LTP129	ltpFR	1	2	0	PUPIL	1143	5	1	n/a	n/a	n/a	n/a	n/a
3627519	RECOG_RESP	n/a	LTP129	ltpFR	1	2	0	PUPIL	1143	n/a	1	n/a	n/a	n/a	n/a	n/a
3628846	RECOG_CONF	n/a	LTP129	ltpFR	1	2	0	PUPIL	1143	5	1	n/a	n/a	n/a	n/a	n/a
3630264	RECOG_LURE	n/a	LTP129	ltpFR	1	2	n/a	CAT	257	5	n/a	n/a	n/a	n/a	n/a	n/a
3632826	RECOG_RESP	n/a	LTP129	ltpFR	1	2	n/a	CAT	257	n/a	n/a	n/a	n/a	n/a	n/a	n/a
3634323	RECOG_CONF	n/a	LTP129	ltpFR	1	2	n/a	CAT	257	5	n/a	n/a	n/a	n/a	n/a	n/a
3635666	RECOG_LURE	n/a	LTP129	ltpFR	1	2	n/a	KEEPER	769	3	n/a	n/a	n/a	n/a	n/a	n/a
3636618	RECOG_RESP	n/a	LTP129	ltpFR	1	2	n/a	KEEPER	769	n/a	n/a	n/a	n/a	n/a	n/a	n/a
3637825	RECOG_CONF	n/a	LTP129	ltpFR	1	2	n/a	KEEPER	769	3	n/a	n/a	n/a	n/a	n/a	n/a
3649049	REC_START	n/a	LTP129	ltpFR	1	3	n/a	n/a	n/a	n/a	n/a	n/a	n/a	n/a	n/a	n/a
3649076	RECOG_TARGET	n/a	LTP129	ltpFR	1	3	1	SKIRT	1319	5	0	n/a	n/a	n/a	n/a	n/a
3649992	RECOG_RESP	n/a	LTP129	ltpFR	1	3	1	SKIRT	1319	n/a	0	n/a	n/a	n/a	n/a	n/a
3651179	RECOG_CONF	n/a	LTP129	ltpFR	1	3	1	SKIRT	1319	5	0	n/a	n/a	n/a	n/a	n/a
3652588	RECOG_LURE	n/a	LTP129	ltpFR	1	3	n/a	CATCHER	258	3	n/a	n/a	n/a	n/a	n/a	n/a
3653633	RECOG_RESP	n/a	LTP129	ltpFR	1	3	n/a	CATCHER	258	n/a	n/a	n/a	n/a	n/a	n/a	n/a
3654711	RECOG_CONF	n/a	LTP129	ltpFR	1	3	n/a	CATCHER	258	3	n/a	n/a	n/a	n/a	n/a	n/a
3656076	RECOG_TARGET	n/a	LTP129	ltpFR	1	3	-1	CARAVAN	242	5	-1	n/a	n/a	n/a	n/a	n/a
3657505	RECOG_RESP	n/a	LTP129	ltpFR	1	3	-1	CARAVAN	242	n/a	-1	n/a	n/a	n/a	n/a	n/a
3658881	RECOG_CONF	n/a	LTP129	ltpFR	1	3	-1	CARAVAN	242	5	-1	n/a	n/a	n/a	n/a	n/a
3660338	RECOG_LURE	n/a	LTP129	ltpFR	1	3	n/a	SHOELACE	1289	5	n/a	n/a	n/a	n/a	n/a	n/a
3661495	RECOG_RESP	n/a	LTP129	ltpFR	1	3	n/a	SHOELACE	1289	n/a	n/a	n/a	n/a	n/a	n/a	n/a
3662533	RECOG_CONF	n/a	LTP129	ltpFR	1	3	n/a	SHOELACE	1289	5	n/a	n/a	n/a	n/a	n/a	n/a
3663992	RECOG_TARGET	n/a	LTP129	ltpFR	1	3	1	MILK	895	5	0	n/a	n/a	n/a	n/a	n/a
3664723	RECOG_RESP	n/a	LTP129	ltpFR	1	3	1	MILK	895	n/a	0	n/a	n/a	n/a	n/a	n/a
3665736	RECOG_CONF	n/a	LTP129	ltpFR	1	3	1	MILK	895	5	0	n/a	n/a	n/a	n/a	n/a
3667038	RECOG_LURE	n/a	LTP129	ltpFR	1	3	n/a	ROUGE	1213	5	n/a	n/a	n/a	n/a	n/a	n/a
3667776	RECOG_RESP	n/a	LTP129	ltpFR	1	3	n/a	ROUGE	1213	n/a	n/a	n/a	n/a	n/a	n/a	n/a
3669158	RECOG_CONF	n/a	LTP129	ltpFR	1	3	n/a	ROUGE	1213	5	n/a	n/a	n/a	n/a	n/a	n/a
3670508	RECOG_LURE	n/a	LTP129	ltpFR	1	3	n/a	SEA	1259	3	n/a	n/a	n/a	n/a	n/a	n/a
3671533	RECOG_RESP	n/a	LTP129	ltpFR	1	3	n/a	SEA	1259	n/a	n/a	n/a	n/a	n/a	n/a	n/a
3672720	RECOG_CONF	n/a	LTP129	ltpFR	1	3	n/a	SEA	1259	3	n/a	n/a	n/a	n/a	n/a	n/a
3674030	RECOG_LURE	n/a	LTP129	ltpFR	1	3	n/a	COSTUME	383	3	n/a	n/a	n/a	n/a	n/a	n/a
3674870	RECOG_RESP	n/a	LTP129	ltpFR	1	3	n/a	COSTUME	383	n/a	n/a	n/a	n/a	n/a	n/a	n/a
3675963	RECOG_CONF	n/a	LTP129	ltpFR	1	3	n/a	COSTUME	383	3	n/a	n/a	n/a	n/a	n/a	n/a
3677285	RECOG_LURE	n/a	LTP129	ltpFR	1	3	n/a	BAIT	70	4	n/a	n/a	n/a	n/a	n/a	n/a
3678063	RECOG_RESP	n/a	LTP129	ltpFR	1	3	n/a	BAIT	70	n/a	n/a	n/a	n/a	n/a	n/a	n/a
3679195	RECOG_CONF	n/a	LTP129	ltpFR	1	3	n/a	BAIT	70	4	n/a	n/a	n/a	n/a	n/a	n/a
3680598	RECOG_TARGET	n/a	LTP129	ltpFR	1	3	-1	PEARL	1034	3	-1	n/a	n/a	n/a	n/a	n/a
3682079	RECOG_RESP	n/a	LTP129	ltpFR	1	3	-1	PEARL	1034	n/a	-1	n/a	n/a	n/a	n/a	n/a
3683665	RECOG_CONF	n/a	LTP129	ltpFR	1	3	-1	PEARL	1034	3	-1	n/a	n/a	n/a	n/a	n/a
3685018	RECOG_LURE	n/a	LTP129	ltpFR	1	3	n/a	ESSAY	540	5	n/a	n/a	n/a	n/a	n/a	n/a
3685870	RECOG_RESP	n/a	LTP129	ltpFR	1	3	n/a	ESSAY	540	n/a	n/a	n/a	n/a	n/a	n/a	n/a
3687047	RECOG_CONF	n/a	LTP129	ltpFR	1	3	n/a	ESSAY	540	5	n/a	n/a	n/a	n/a	n/a	n/a
3688438	RECOG_LURE	n/a	LTP129	ltpFR	1	3	n/a	PECAN	1036	5	n/a	n/a	n/a	n/a	n/a	n/a
3689452	RECOG_RESP	n/a	LTP129	ltpFR	1	3	n/a	PECAN	1036	n/a	n/a	n/a	n/a	n/a	n/a	n/a
3690430	RECOG_CONF	n/a	LTP129	ltpFR	1	3	n/a	PECAN	1036	5	n/a	n/a	n/a	n/a	n/a	n/a
3691843	RECOG_TARGET	n/a	LTP129	ltpFR	1	3	0	POLYESTER	1100	4	0	n/a	n/a	n/a	n/a	n/a
3692759	RECOG_RESP	n/a	LTP129	ltpFR	1	3	0	POLYESTER	1100	n/a	0	n/a	n/a	n/a	n/a	n/a
3694481	RECOG_CONF	n/a	LTP129	ltpFR	1	3	0	POLYESTER	1100	4	0	n/a	n/a	n/a	n/a	n/a
3695797	RECOG_TARGET	n/a	LTP129	ltpFR	1	3	1	MAMMAL	861	5	1	n/a	n/a	n/a	n/a	n/a
3696770	RECOG_RESP	n/a	LTP129	ltpFR	1	3	1	MAMMAL	861	n/a	1	n/a	n/a	n/a	n/a	n/a
3697953	RECOG_CONF	n/a	LTP129	ltpFR	1	3	1	MAMMAL	861	5	1	n/a	n/a	n/a	n/a	n/a
3699418	RECOG_LURE	n/a	LTP129	ltpFR	1	3	n/a	CONSOLE	364	5	n/a	n/a	n/a	n/a	n/a	n/a
3700357	RECOG_RESP	n/a	LTP129	ltpFR	1	3	n/a	CONSOLE	364	n/a	n/a	n/a	n/a	n/a	n/a	n/a
3701654	RECOG_CONF	n/a	LTP129	ltpFR	1	3	n/a	CONSOLE	364	5	n/a	n/a	n/a	n/a	n/a	n/a
3703155	RECOG_TARGET	n/a	LTP129	ltpFR	1	3	-1	BROTHER	179	5	-1	n/a	n/a	n/a	n/a	n/a
3704019	RECOG_RESP	n/a	LTP129	ltpFR	1	3	-1	BROTHER	179	n/a	-1	n/a	n/a	n/a	n/a	n/a
3705256	RECOG_CONF	n/a	LTP129	ltpFR	1	3	-1	BROTHER	179	5	-1	n/a	n/a	n/a	n/a	n/a
3706734	RECOG_LURE	n/a	LTP129	ltpFR	1	3	n/a	SEAT	1264	3	n/a	n/a	n/a	n/a	n/a	n/a
3707625	RECOG_RESP	n/a	LTP129	ltpFR	1	3	n/a	SEAT	1264	n/a	n/a	n/a	n/a	n/a	n/a	n/a
3708818	RECOG_CONF	n/a	LTP129	ltpFR	1	3	n/a	SEAT	1264	3	n/a	n/a	n/a	n/a	n/a	n/a
3710172	RECOG_LURE	n/a	LTP129	ltpFR	1	3	n/a	RAIL	1161	3	n/a	n/a	n/a	n/a	n/a	n/a
3711024	RECOG_RESP	n/a	LTP129	ltpFR	1	3	n/a	RAIL	1161	n/a	n/a	n/a	n/a	n/a	n/a	n/a
3712140	RECOG_CONF	n/a	LTP129	ltpFR	1	3	n/a	RAIL	1161	3	n/a	n/a	n/a	n/a	n/a	n/a
3713668	RECOG_LURE	n/a	LTP129	ltpFR	1	3	n/a	MINK	897	5	n/a	n/a	n/a	n/a	n/a	n/a
3714634	RECOG_RESP	n/a	LTP129	ltpFR	1	3	n/a	MINK	897	n/a	n/a	n/a	n/a	n/a	n/a	n/a
3715792	RECOG_CONF	n/a	LTP129	ltpFR	1	3	n/a	MINK	897	5	n/a	n/a	n/a	n/a	n/a	n/a
3717147	RECOG_TARGET	n/a	LTP129	ltpFR	1	3	0	MEAL	882	3	0	n/a	n/a	n/a	n/a	n/a
3718092	RECOG_RESP	n/a	LTP129	ltpFR	1	3	0	MEAL	882	n/a	0	n/a	n/a	n/a	n/a	n/a
3719444	RECOG_CONF	n/a	LTP129	ltpFR	1	3	0	MEAL	882	3	0	n/a	n/a	n/a	n/a	n/a
3733809	REC_START	n/a	LTP129	ltpFR	1	4	n/a	n/a	n/a	n/a	n/a	n/a	n/a	n/a	n/a	n/a
3733836	RECOG_LURE	n/a	LTP129	ltpFR	1	4	n/a	MEADOW	881	3	n/a	n/a	n/a	n/a	n/a	n/a
3734861	RECOG_RESP	n/a	LTP129	ltpFR	1	4	n/a	MEADOW	881	n/a	n/a	n/a	n/a	n/a	n/a	n/a
3735869	RECOG_CONF	n/a	LTP129	ltpFR	1	4	n/a	MEADOW	881	3	n/a	n/a	n/a	n/a	n/a	n/a
3737382	RECOG_LURE	n/a	LTP129	ltpFR	1	4	n/a	PARENT	1013	3	n/a	n/a	n/a	n/a	n/a	n/a
3738209	RECOG_RESP	n/a	LTP129	ltpFR	1	4	n/a	PARENT	1013	n/a	n/a	n/a	n/a	n/a	n/a	n/a
3739102	RECOG_CONF	n/a	LTP129	ltpFR	1	4	n/a	PARENT	1013	3	n/a	n/a	n/a	n/a	n/a	n/a
3740728	RECOG_TARGET	n/a	LTP129	ltpFR	1	4	-1	DEPARTMENT	449	5	-1	n/a	n/a	n/a	n/a	n/a
3741696	RECOG_RESP	n/a	LTP129	ltpFR	1	4	-1	DEPARTMENT	449	n/a	-1	n/a	n/a	n/a	n/a	n/a
3743173	RECOG_CONF	n/a	LTP129	ltpFR	1	4	-1	DEPARTMENT	449	5	-1	n/a	n/a	n/a	n/a	n/a
3744690	RECOG_LURE	n/a	LTP129	ltpFR	1	4	n/a	MARKET	871	3	n/a	n/a	n/a	n/a	n/a	n/a
3746255	RECOG_RESP	n/a	LTP129	ltpFR	1	4	n/a	MARKET	871	n/a	n/a	n/a	n/a	n/a	n/a	n/a
3747323	RECOG_CONF	n/a	LTP129	ltpFR	1	4	n/a	MARKET	871	3	n/a	n/a	n/a	n/a	n/a	n/a
3748694	RECOG_TARGET	n/a	LTP129	ltpFR	1	4	0	COIN	343	5	0	n/a	n/a	n/a	n/a	n/a
3749393	RECOG_RESP	n/a	LTP129	ltpFR	1	4	0	COIN	343	n/a	0	n/a	n/a	n/a	n/a	n/a
3750596	RECOG_CONF	n/a	LTP129	ltpFR	1	4	0	COIN	343	5	0	n/a	n/a	n/a	n/a	n/a
3752140	RECOG_LURE	n/a	LTP129	ltpFR	1	4	n/a	DANDRUFF	439	5	n/a	n/a	n/a	n/a	n/a	n/a
3752935	RECOG_RESP	n/a	LTP129	ltpFR	1	4	n/a	DANDRUFF	439	n/a	n/a	n/a	n/a	n/a	n/a	n/a
3753998	RECOG_CONF	n/a	LTP129	ltpFR	1	4	n/a	DANDRUFF	439	5	n/a	n/a	n/a	n/a	n/a	n/a
3755585	RECOG_LURE	n/a	LTP129	ltpFR	1	4	n/a	ASH	44	5	n/a	n/a	n/a	n/a	n/a	n/a
3756263	RECOG_RESP	n/a	LTP129	ltpFR	1	4	n/a	ASH	44	n/a	n/a	n/a	n/a	n/a	n/a	n/a
3757410	RECOG_CONF	n/a	LTP129	ltpFR	1	4	n/a	ASH	44	5	n/a	n/a	n/a	n/a	n/a	n/a
3758865	RECOG_TARGET	n/a	LTP129	ltpFR	1	4	-1	LAPEL	800	3	-1	n/a	n/a	n/a	n/a	n/a
3759655	RECOG_RESP	n/a	LTP129	ltpFR	1	4	-1	LAPEL	800	n/a	-1	n/a	n/a	n/a	n/a	n/a
3760812	RECOG_CONF	n/a	LTP129	ltpFR	1	4	-1	LAPEL	800	3	-1	n/a	n/a	n/a	n/a	n/a
3762162	RECOG_TARGET	n/a	LTP129	ltpFR	1	4	0	HOOP	716	5	0	n/a	n/a	n/a	n/a	n/a
3763047	RECOG_RESP	n/a	LTP129	ltpFR	1	4	0	HOOP	716	n/a	0	n/a	n/a	n/a	n/a	n/a
3764175	RECOG_CONF	n/a	LTP129	ltpFR	1	4	0	HOOP	716	5	0	n/a	n/a	n/a	n/a	n/a
3765691	RECOG_LURE	n/a	LTP129	ltpFR	1	4	n/a	RADIATOR	1156	3	n/a	n/a	n/a	n/a	n/a	n/a
3766564	RECOG_RESP	n/a	LTP129	ltpFR	1	4	n/a	RADIATOR	1156	n/a	n/a	n/a	n/a	n/a	n/a	n/a
3767677	RECOG_CONF	n/a	LTP129	ltpFR	1	4	n/a	RADIATOR	1156	3	n/a	n/a	n/a	n/a	n/a	n/a
3769170	RECOG_LURE	n/a	LTP129	ltpFR	1	4	n/a	PATIENT	1024	2	n/a	n/a	n/a	n/a	n/a	n/a
3770311	RECOG_RESP	n/a	LTP129	ltpFR	1	4	n/a	PATIENT	1024	n/a	n/a	n/a	n/a	n/a	n/a	n/a
3772466	RECOG_CONF	n/a	LTP129	ltpFR	1	4	n/a	PATIENT	1024	2	n/a	n/a	n/a	n/a	n/a	n/a
3774298	RECOG_LURE	n/a	LTP129	ltpFR	1	4	n/a	STADIUM	1364	3	n/a	n/a	n/a	n/a	n/a	n/a
3775708	RECOG_RESP	n/a	LTP129	ltpFR	1	4	n/a	STADIUM	1364	n/a	n/a	n/a	n/a	n/a	n/a	n/a
3777814	RECOG_CONF	n/a	LTP129	ltpFR	1	4	n/a	STADIUM	1364	3	n/a	n/a	n/a	n/a	n/a	n/a
3779283	RECOG_LURE	n/a	LTP129	ltpFR	1	4	n/a	FIGHTER	564	3	n/a	n/a	n/a	n/a	n/a	n/a
3780248	RECOG_RESP	n/a	LTP129	ltpFR	1	4	n/a	FIGHTER	564	n/a	n/a	n/a	n/a	n/a	n/a	n/a
3781655	RECOG_CONF	n/a	LTP129	ltpFR	1	4	n/a	FIGHTER	564	3	n/a	n/a	n/a	n/a	n/a	n/a
3783079	RECOG_TARGET	n/a	LTP129	ltpFR	1	4	0	WINDSHIELD	1612	5	1	n/a	n/a	n/a	n/a	n/a
3784000	RECOG_RESP	n/a	LTP129	ltpFR	1	4	0	WINDSHIELD	1612	n/a	1	n/a	n/a	n/a	n/a	n/a
3785227	RECOG_CONF	n/a	LTP129	ltpFR	1	4	0	WINDSHIELD	1612	5	1	n/a	n/a	n/a	n/a	n/a
3786582	RECOG_LURE	n/a	LTP129	ltpFR	1	4	n/a	JACKET	747	5	n/a	n/a	n/a	n/a	n/a	n/a
3787442	RECOG_RESP	n/a	LTP129	ltpFR	1	4	n/a	JACKET	747	n/a	n/a	n/a	n/a	n/a	n/a	n/a
3788679	RECOG_CONF	n/a	LTP129	ltpFR	1	4	n/a	JACKET	747	5	n/a	n/a	n/a	n/a	n/a	n/a
3790038	RECOG_TARGET	n/a	LTP129	ltpFR	1	4	-1	DESK	452	5	-1	n/a	n/a	n/a	n/a	n/a
3790894	RECOG_RESP	n/a	LTP129	ltpFR	1	4	-1	DESK	452	n/a	-1	n/a	n/a	n/a	n/a	n/a
3792451	RECOG_CONF	n/a	LTP129	ltpFR	1	4	-1	DESK	452	5	-1	n/a	n/a	n/a	n/a	n/a
3793892	RECOG_TARGET	n/a	LTP129	ltpFR	1	4	1	SKILLET	1317	5	0	n/a	n/a	n/a	n/a	n/a
3794660	RECOG_RESP	n/a	LTP129	ltpFR	1	4	1	SKILLET	1317	n/a	0	n/a	n/a	n/a	n/a	n/a
3795923	RECOG_CONF	n/a	LTP129	ltpFR	1	4	1	SKILLET	1317	5	0	n/a	n/a	n/a	n/a	n/a
3797445	RECOG_LURE	n/a	LTP129	ltpFR	1	4	n/a	RECEPTIONIST	1174	3	n/a	n/a	n/a	n/a	n/a	n/a
3798417	RECOG_RESP	n/a	LTP129	ltpFR	1	4	n/a	RECEPTIONIST	1174	n/a	n/a	n/a	n/a	n/a	n/a	n/a
3799584	RECOG_CONF	n/a	LTP129	ltpFR	1	4	n/a	RECEPTIONIST	1174	3	n/a	n/a	n/a	n/a	n/a	n/a
3801033	RECOG_TARGET	n/a	LTP129	ltpFR	1	4	1	TEA	1439	5	0	n/a	n/a	n/a	n/a	n/a
3801714	RECOG_RESP	n/a	LTP129	ltpFR	1	4	1	TEA	1439	n/a	0	n/a	n/a	n/a	n/a	n/a
3802877	RECOG_CONF	n/a	LTP129	ltpFR	1	4	1	TEA	1439	5	0	n/a	n/a	n/a	n/a	n/a
3804453	RECOG_TARGET	n/a	LTP129	ltpFR	1	4	0	ARTICLE	42	5	1	n/a	n/a	n/a	n/a	n/a
3805536	RECOG_RESP	n/a	LTP129	ltpFR	1	4	0	ARTICLE	42	n/a	1	n/a	n/a	n/a	n/a	n/a
3806958	RECOG_CONF	n/a	LTP129	ltpFR	1	4	0	ARTICLE	42	5	1	n/a	n/a	n/a	n/a	n/a
3825824	REC_START	n/a	LTP129	ltpFR	1	5	n/a	n/a	n/a	n/a	n/a	n/a	n/a	n/a	n/a	n/a
3825846	RECOG_TARGET	n/a	LTP129	ltpFR	1	5	0	FISH	571	5	0	n/a	n/a	n/a	n/a	n/a
3826532	RECOG_RESP	n/a	LTP129	ltpFR	1	5	0	FISH	571	n/a	0	n/a	n/a	n/a	n/a	n/a
3827744	RECOG_CONF	n/a	LTP129	ltpFR	1	5	0	FISH	571	5	0	n/a	n/a	n/a	n/a	n/a
3829417	RECOG_TARGET	n/a	LTP129	ltpFR	1	5	1	ROACH	1195	5	1	n/a	n/a	n/a	n/a	n/a
3830144	RECOG_RESP	n/a	LTP129	ltpFR	1	5	1	ROACH	1195	n/a	1	n/a	n/a	n/a	n/a	n/a
3831466	RECOG_CONF	n/a	LTP129	ltpFR	1	5	1	ROACH	1195	5	1	n/a	n/a	n/a	n/a	n/a
3833104	RECOG_TARGET	n/a	LTP129	ltpFR	1	5	-1	DRESS	495	5	-1	n/a	n/a	n/a	n/a	n/a
3833651	RECOG_RESP	n/a	LTP129	ltpFR	1	5	-1	DRESS	495	n/a	-1	n/a	n/a	n/a	n/a	n/a
3834908	RECOG_CONF	n/a	LTP129	ltpFR	1	5	-1	DRESS	495	5	-1	n/a	n/a	n/a	n/a	n/a
3836524	RECOG_TARGET	n/a	LTP129	ltpFR	1	5	0	ACID	2	5	0	n/a	n/a	n/a	n/a	n/a
3837158	RECOG_RESP	n/a	LTP129	ltpFR	1	5	0	ACID	2	n/a	0	n/a	n/a	n/a	n/a	n/a
3838450	RECOG_CONF	n/a	LTP129	ltpFR	1	5	0	ACID	2	5	0	n/a	n/a	n/a	n/a	n/a
3840005	RECOG_TARGET	n/a	LTP129	ltpFR	1	5	1	COAT	333	5	0	n/a	n/a	n/a	n/a	n/a
3841179	RECOG_RESP	n/a	LTP129	ltpFR	1	5	1	COAT	333	n/a	0	n/a	n/a	n/a	n/a	n/a
3842261	RECOG_CONF	n/a	LTP129	ltpFR	1	5	1	COAT	333	5	0	n/a	n/a	n/a	n/a	n/a
3843817	RECOG_LURE	n/a	LTP129	ltpFR	1	5	n/a	EYELASH	546	3	n/a	n/a	n/a	n/a	n/a	n/a
3844616	RECOG_RESP	n/a	LTP129	ltpFR	1	5	n/a	EYELASH	546	n/a	n/a	n/a	n/a	n/a	n/a	n/a
3845734	RECOG_CONF	n/a	LTP129	ltpFR	1	5	n/a	EYELASH	546	3	n/a	n/a	n/a	n/a	n/a	n/a
3847313	RECOG_LURE	n/a	LTP129	ltpFR	1	5	n/a	CONSUMER	365	3	n/a	n/a	n/a	n/a	n/a	n/a
3848577	RECOG_RESP	n/a	LTP129	ltpFR	1	5	n/a	CONSUMER	365	n/a	n/a	n/a	n/a	n/a	n/a	n/a
3849665	RECOG_CONF	n/a	LTP129	ltpFR	1	5	n/a	CONSUMER	365	3	n/a	n/a	n/a	n/a	n/a	n/a
3851092	RECOG_TARGET	n/a	LTP129	ltpFR	1	5	0	CHEMIST	292	5	1	n/a	n/a	n/a	n/a	n/a
3851800	RECOG_RESP	n/a	LTP129	ltpFR	1	5	0	CHEMIST	292	n/a	1	n/a	n/a	n/a	n/a	n/a
3852937	RECOG_CONF	n/a	LTP129	ltpFR	1	5	0	CHEMIST	292	5	1	n/a	n/a	n/a	n/a	n/a
3854605	RECOG_TARGET	n/a	LTP129	ltpFR	1	5	1	CROW	414	3	1	n/a	n/a	n/a	n/a	n/a
3856240	RECOG_RESP	n/a	LTP129	ltpFR	1	5	1	CROW	414	n/a	1	n/a	n/a	n/a	n/a	n/a
3857676	RECOG_CONF	n/a	LTP129	ltpFR	1	5	1	CROW	414	3	1	n/a	n/a	n/a	n/a	n/a
3859357	RECOG_TARGET	n/a	LTP129	ltpFR	1	5	1	ANIMAL	23	5	1	n/a	n/a	n/a	n/a	n/a
3860340	RECOG_RESP	n/a	LTP129	ltpFR	1	5	1	ANIMAL	23	n/a	1	n/a	n/a	n/a	n/a	n/a
3861588	RECOG_CONF	n/a	LTP129	ltpFR	1	5	1	ANIMAL	23	5	1	n/a	n/a	n/a	n/a	n/a
3863111	RECOG_LURE	n/a	LTP129	ltpFR	1	5	n/a	SAUCER	1237	3	n/a	n/a	n/a	n/a	n/a	n/a
3865424	RECOG_RESP	n/a	LTP129	ltpFR	1	5	n/a	SAUCER	1237	n/a	n/a	n/a	n/a	n/a	n/a	n/a
3866646	RECOG_CONF	n/a	LTP129	ltpFR	1	5	n/a	SAUCER	1237	3	n/a	n/a	n/a	n/a	n/a	n/a
3868214	RECOG_LURE	n/a	LTP129	ltpFR	1	5	n/a	PICNIC	1060	3	n/a	n/a	n/a	n/a	n/a	n/a
3868946	RECOG_RESP	n/a	LTP129	ltpFR	1	5	n/a	PICNIC	1060	n/a	n/a	n/a	n/a	n/a	n/a	n/a
3870018	RECOG_CONF	n/a	LTP129	ltpFR	1	5	n/a	PICNIC	1060	3	n/a	n/a	n/a	n/a	n/a	n/a
3871584	RECOG_TARGET	n/a	LTP129	ltpFR	1	5	0	OWNER	993	5	1	n/a	n/a	n/a	n/a	n/a
3872498	RECOG_RESP	n/a	LTP129	ltpFR	1	5	0	OWNER	993	n/a	1	n/a	n/a	n/a	n/a	n/a
3873660	RECOG_CONF	n/a	LTP129	ltpFR	1	5	0	OWNER	993	5	1	n/a	n/a	n/a	n/a	n/a
3875256	RECOG_LURE	n/a	LTP129	ltpFR	1	5	n/a	PHILOSOPHER	1054	5	n/a	n/a	n/a	n/a	n/a	n/a
3876174	RECOG_RESP	n/a	LTP129	ltpFR	1	5	n/a	PHILOSOPHER	1054	n/a	n/a	n/a	n/a	n/a	n/a	n/a
3877262	RECOG_CONF	n/a	LTP129	ltpFR	1	5	n/a	PHILOSOPHER	1054	5	n/a	n/a	n/a	n/a	n/a	n/a
3878752	RECOG_TARGET	n/a	LTP129	ltpFR	1	5	0	CAPITAL	238	3	1	n/a	n/a	n/a	n/a	n/a
3879966	RECOG_RESP	n/a	LTP129	ltpFR	1	5	0	CAPITAL	238	n/a	1	n/a	n/a	n/a	n/a	n/a
3881240	RECOG_CONF	n/a	LTP129	ltpFR	1	5	0	CAPITAL	238	3	1	n/a	n/a	n/a	n/a	n/a
3882689	RECOG_TARGET	n/a	LTP129	ltpFR	1	5	-1	GIFT	635	5	-1	n/a	n/a	n/a	n/a	n/a
3883473	RECOG_RESP	n/a	LTP129	ltpFR	1	5	-1	GIFT	635	n/a	-1	n/a	n/a	n/a	n/a	n/a
3884715	RECOG_CONF	n/a	LTP129	ltpFR	1	5	-1	GIFT	635	5	-1	n/a	n/a	n/a	n/a	n/a
3886226	RECOG_TARGET	n/a	LTP129	ltpFR	1	5	1	BOAT	144	3	0	n/a	n/a	n/a	n/a	n/a
3888232	RECOG_RESP	n/a	LTP129	ltpFR	1	5	1	BOAT	144	n/a	0	n/a	n/a	n/a	n/a	n/a
3889484	RECOG_CONF	n/a	LTP129	ltpFR	1	5	1	BOAT	144	3	0	n/a	n/a	n/a	n/a	n/a
3891444	RECOG_TARGET	n/a	LTP129	ltpFR	1	5	1	FLANNEL	574	3	0	n/a	n/a	n/a	n/a	n/a
3892757	RECOG_RESP	n/a	LTP129	ltpFR	1	5	1	FLANNEL	574	n/a	0	n/a	n/a	n/a	n/a	n/a
3894197	RECOG_CONF	n/a	LTP129	ltpFR	1	5	1	FLANNEL	574	3	0	n/a	n/a	n/a	n/a	n/a
3895573	RECOG_TARGET	n/a	LTP129	ltpFR	1	5	1	SNACK	1331	5	0	n/a	n/a	n/a	n/a	n/a
3896304	RECOG_RESP	n/a	LTP129	ltpFR	1	5	1	SNACK	1331	n/a	0	n/a	n/a	n/a	n/a	n/a
3897546	RECOG_CONF	n/a	LTP129	ltpFR	1	5	1	SNACK	1331	5	0	n/a	n/a	n/a	n/a	n/a
3899186	RECOG_LURE	n/a	LTP129	ltpFR	1	5	n/a	COMMANDER	354	3	n/a	n/a	n/a	n/a	n/a	n/a
3900668	RECOG_RESP	n/a	LTP129	ltpFR	1	5	n/a	COMMANDER	354	n/a	n/a	n/a	n/a	n/a	n/a	n/a
3901776	RECOG_CONF	n/a	LTP129	ltpFR	1	5	n/a	COMMANDER	354	3	n/a	n/a	n/a	n/a	n/a	n/a
3918037	REC_START	n/a	LTP129	ltpFR	1	6	n/a	n/a	n/a	n/a	n/a	n/a	n/a	n/a	n/a	n/a
3918064	RECOG_LURE	n/a	LTP129	ltpFR	1	6	n/a	CREW	406	3	n/a	n/a	n/a	n/a	n/a	n/a
3919174	RECOG_RESP	n/a	LTP129	ltpFR	1	6	n/a	CREW	406	n/a	n/a	n/a	n/a	n/a	n/a	n/a
3920307	RECOG_CONF	n/a	LTP129	ltpFR	1	6	n/a	CREW	406	3	n/a	n/a	n/a	n/a	n/a	n/a
3921868	RECOG_LURE	n/a	LTP129	ltpFR	1	6	n/a	COURSE	390	3	n/a	n/a	n/a	n/a	n/a	n/a
3922676	RECOG_RESP	n/a	LTP129	ltpFR	1	6	n/a	COURSE	390	n/a	n/a	n/a	n/a	n/a	n/a	n/a
3923859	RECOG_CONF	n/a	LTP129	ltpFR	1	6	n/a	COURSE	390	3	n/a	n/a	n/a	n/a	n/a	n/a
3925389	RECOG_LURE	n/a	LTP129	ltpFR	1	6	n/a	LABYRINTH	791	5	n/a	n/a	n/a	n/a	n/a	n/a
3926383	RECOG_RESP	n/a	LTP129	ltpFR	1	6	n/a	LABYRINTH	791	n/a	n/a	n/a	n/a	n/a	n/a	n/a
3927500	RECOG_CONF	n/a	LTP129	ltpFR	1	6	n/a	LABYRINTH	791	5	n/a	n/a	n/a	n/a	n/a	n/a
3928943	RECOG_TARGET	n/a	LTP129	ltpFR	1	6	0	SILK	1307	5	0	n/a	n/a	n/a	n/a	n/a
3930119	RECOG_RESP	n/a	LTP129	ltpFR	1	6	0	SILK	1307	n/a	0	n/a	n/a	n/a	n/a	n/a
3931362	RECOG_CONF	n/a	LTP129	ltpFR	1	6	0	SILK	1307	5	0	n/a	n/a	n/a	n/a	n/a
3932905	RECOG_TARGET	n/a	LTP129	ltpFR	1	6	-1	CORPORATION	382	5	-1	n/a	n/a	n/a	n/a	n/a
3933636	RECOG_RESP	n/a	LTP129	ltpFR	1	6	-1	CORPORATION	382	n/a	-1	n/a	n/a	n/a	n/a	n/a
3934993	RECOG_CONF	n/a	LTP129	ltpFR	1	6	-1	CORPORATION	382	5	-1	n/a	n/a	n/a	n/a	n/a
3936575	RECOG_LURE	n/a	LTP129	ltpFR	1	6	n/a	FENCE	560	3	n/a	n/a	n/a	n/a	n/a	n/a
3937717	RECOG_RESP	n/a	LTP129	ltpFR	1	6	n/a	FENCE	560	n/a	n/a	n/a	n/a	n/a	n/a	n/a
3939114	RECOG_CONF	n/a	LTP129	ltpFR	1	6	n/a	FENCE	560	3	n/a	n/a	n/a	n/a	n/a	n/a
3940713	RECOG_LURE	n/a	LTP129	ltpFR	1	6	n/a	MUFFIN	929	3	n/a	n/a	n/a	n/a	n/a	n/a
3941858	RECOG_RESP	n/a	LTP129	ltpFR	1	6	n/a	MUFFIN	929	n/a	n/a	n/a	n/a	n/a	n/a	n/a
3943384	RECOG_CONF	n/a	LTP129	ltpFR	1	6	n/a	MUFFIN	929	3	n/a	n/a	n/a	n/a	n/a	n/a
3944733	RECOG_TARGET	n/a	LTP129	ltpFR	1	6	1	EMERALD	528	5	0	n/a	n/a	n/a	n/a	n/a
3945439	RECOG_RESP	n/a	LTP129	ltpFR	1	6	1	EMERALD	528	n/a	0	n/a	n/a	n/a	n/a	n/a
3946687	RECOG_CONF	n/a	LTP129	ltpFR	1	6	1	EMERALD	528	5	0	n/a	n/a	n/a	n/a	n/a
3948171	RECOG_TARGET	n/a	LTP129	ltpFR	1	6	1	COCKTAIL	338	5	1	n/a	n/a	n/a	n/a	n/a
3948842	RECOG_RESP	n/a	LTP129	ltpFR	1	6	1	COCKTAIL	338	n/a	1	n/a	n/a	n/a	n/a	n/a
3950219	RECOG_CONF	n/a	LTP129	ltpFR	1	6	1	COCKTAIL	338	5	1	n/a	n/a	n/a	n/a	n/a
3951834	RECOG_TARGET	n/a	LTP129	ltpFR	1	6	1	FAMILY	550	3	1	n/a	n/a	n/a	n/a	n/a
3953361	RECOG_RESP	n/a	LTP129	ltpFR	1	6	1	FAMILY	550	n/a	1	n/a	n/a	n/a	n/a	n/a
3954848	RECOG_CONF	n/a	LTP129	ltpFR	1	6	1	FAMILY	550	3	1	n/a	n/a	n/a	n/a	n/a
3956362	RECOG_TARGET	n/a	LTP129	ltpFR	1	6	1	DILL	465	5	0	n/a	n/a	n/a	n/a	n/a
3957243	RECOG_RESP	n/a	LTP129	ltpFR	1	6	1	DILL	465	n/a	0	n/a	n/a	n/a	n/a	n/a
3958580	RECOG_CONF	n/a	LTP129	ltpFR	1	6	1	DILL	465	5	0	n/a	n/a	n/a	n/a	n/a
3960166	RECOG_LURE	n/a	LTP129	ltpFR	1	6	n/a	PRISON	1127	3	n/a	n/a	n/a	n/a	n/a	n/a
3961682	RECOG_RESP	n/a	LTP129	ltpFR	1	6	n/a	PRISON	1127	n/a	n/a	n/a	n/a	n/a	n/a	n/a
3963429	RECOG_CONF	n/a	LTP129	ltpFR	1	6	n/a	PRISON	1127	3	n/a	n/a	n/a	n/a	n/a	n/a
3964893	RECOG_TARGET	n/a	LTP129	ltpFR	1	6	1	FURNITURE	616	5	0	n/a	n/a	n/a	n/a	n/a
3965629	RECOG_RESP	n/a	LTP129	ltpFR	1	6	1	FURNITURE	616	n/a	0	n/a	n/a	n/a	n/a	n/a
3966971	RECOG_CONF	n/a	LTP129	ltpFR	1	6	1	FURNITURE	616	5	0	n/a	n/a	n/a	n/a	n/a
3968530	RECOG_TARGET	n/a	LTP129	ltpFR	1	6	0	CAGE	218	5	0	n/a	n/a	n/a	n/a	n/a
3969325	RECOG_RESP	n/a	LTP129	ltpFR	1	6	0	CAGE	218	n/a	0	n/a	n/a	n/a	n/a	n/a
3970934	RECOG_CONF	n/a	LTP129	ltpFR	1	6	0	CAGE	218	5	0	n/a	n/a	n/a	n/a	n/a
3972425	RECOG_LURE	n/a	LTP129	ltpFR	1	6	n/a	BELT	120	3	n/a	n/a	n/a	n/a	n/a	n/a
3973169	RECOG_RESP	n/a	LTP129	ltpFR	1	6	n/a	BELT	120	n/a	n/a	n/a	n/a	n/a	n/a	n/a
3974434	RECOG_CONF	n/a	LTP129	ltpFR	1	6	n/a	BELT	120	3	n/a	n/a	n/a	n/a	n/a	n/a
3975889	RECOG_TARGET	n/a	LTP129	ltpFR	1	6	0	VALVE	1546	5	0	n/a	n/a	n/a	n/a	n/a
3976683	RECOG_RESP	n/a	LTP129	ltpFR	1	6	0	VALVE	1546	n/a	0	n/a	n/a	n/a	n/a	n/a
3977956	RECOG_CONF	n/a	LTP129	ltpFR	1	6	0	VALVE	1546	5	0	n/a	n/a	n/a	n/a	n/a
3979467	RECOG_LURE	n/a	LTP129	ltpFR	1	6	n/a	INCENSE	735	3	n/a	n/a	n/a	n/a	n/a	n/a
3980430	RECOG_RESP	n/a	LTP129	ltpFR	1	6	n/a	INCENSE	735	n/a	n/a	n/a	n/a	n/a	n/a	n/a
3982156	RECOG_CONF	n/a	LTP129	ltpFR	1	6	n/a	INCENSE	735	3	n/a	n/a	n/a	n/a	n/a	n/a
3983688	RECOG_TARGET	n/a	LTP129	ltpFR	1	6	-1	COLLAR	345	5	-1	n/a	n/a	n/a	n/a	n/a
3984640	RECOG_RESP	n/a	LTP129	ltpFR	1	6	-1	COLLAR	345	n/a	-1	n/a	n/a	n/a	n/a	n/a
3986147	RECOG_CONF	n/a	LTP129	ltpFR	1	6	-1	COLLAR	345	5	-1	n/a	n/a	n/a	n/a	n/a
3987574	RECOG_LURE	n/a	LTP129	ltpFR	1	6	n/a	SOFTBALL	1343	5	n/a	n/a	n/a	n/a	n/a	n/a
3988940	RECOG_RESP	n/a	LTP129	ltpFR	1	6	n/a	SOFTBALL	1343	n/a	n/a	n/a	n/a	n/a	n/a	n/a
3990387	RECOG_CONF	n/a	LTP129	ltpFR	1	6	n/a	SOFTBALL	1343	5	n/a	n/a	n/a	n/a	n/a	n/a
3991846	RECOG_LURE	n/a	LTP129	ltpFR	1	6	n/a	MONEY	908	3	n/a	n/a	n/a	n/a	n/a	n/a
3992827	RECOG_RESP	n/a	LTP129	ltpFR	1	6	n/a	MONEY	908	n/a	n/a	n/a	n/a	n/a	n/a	n/a
3994416	RECOG_CONF	n/a	LTP129	ltpFR	1	6	n/a	MONEY	908	3	n/a	n/a	n/a	n/a	n/a	n/a
4004928	REC_START	n/a	LTP129	ltpFR	1	7	n/a	n/a	n/a	n/a	n/a	n/a	n/a	n/a	n/a	n/a
4004955	RECOG_LURE	n/a	LTP129	ltpFR	1	7	n/a	CABIN	211	5	n/a	n/a	n/a	n/a	n/a	n/a
4006155	RECOG_RESP	n/a	LTP129	ltpFR	1	7	n/a	CABIN	211	n/a	n/a	n/a	n/a	n/a	n/a	n/a
4007377	RECOG_CONF	n/a	LTP129	ltpFR	1	7	n/a	CABIN	211	5	n/a	n/a	n/a	n/a	n/a	n/a
4008892	RECOG_LURE	n/a	LTP129	ltpFR	1	7	n/a	MASK	876	5	n/a	n/a	n/a	n/a	n/a	n/a
4009812	RECOG_RESP_VV	n/a	LTP129	ltpFR	1	7	n/a	MASK	876	n/a	n/a	n/a	n/a	n/a	n/a	n/a
4011029	RECOG_RESP	n/a	LTP129	ltpFR	1	7	n/a	MASK	876	n/a	n/a	n/a	n/a	n/a	n/a	n/a
4012625	RECOG_CONF	n/a	LTP129	ltpFR	1	7	n/a	MASK	876	5	n/a	n/a	n/a	n/a	n/a	n/a
4014411	RECOG_TARGET	n/a	LTP129	ltpFR	1	7	0	SHAMPOO	1274	5	0	n/a	n/a	n/a	n/a	n/a
4015733	RECOG_RESP	n/a	LTP129	ltpFR	1	7	0	SHAMPOO	1274	n/a	0	n/a	n/a	n/a	n/a	n/a
4017155	RECOG_CONF	n/a	LTP129	ltpFR	1	7	0	SHAMPOO	1274	5	0	n/a	n/a	n/a	n/a	n/a
4018789	RECOG_LURE	n/a	LTP129	ltpFR	1	7	n/a	CAMEL	223	5	n/a	n/a	n/a	n/a	n/a	n/a
4020168	RECOG_RESP	n/a	LTP129	ltpFR	1	7	n/a	CAMEL	223	n/a	n/a	n/a	n/a	n/a	n/a	n/a
4021196	RECOG_CONF	n/a	LTP129	ltpFR	1	7	n/a	CAMEL	223	5	n/a	n/a	n/a	n/a	n/a	n/a
4022643	RECOG_TARGET	n/a	LTP129	ltpFR	1	7	0	BRICK	172	5	0	n/a	n/a	n/a	n/a	n/a
4023331	RECOG_RESP	n/a	LTP129	ltpFR	1	7	0	BRICK	172	n/a	0	n/a	n/a	n/a	n/a	n/a
4024528	RECOG_CONF	n/a	LTP129	ltpFR	1	7	0	BRICK	172	5	0	n/a	n/a	n/a	n/a	n/a
4025889	RECOG_LURE	n/a	LTP129	ltpFR	1	7	n/a	CROWN	415	5	n/a	n/a	n/a	n/a	n/a	n/a
4026963	RECOG_RESP	n/a	LTP129	ltpFR	1	7	n/a	CROWN	415	n/a	n/a	n/a	n/a	n/a	n/a	n/a
4027931	RECOG_CONF	n/a	LTP129	ltpFR	1	7	n/a	CROWN	415	5	n/a	n/a	n/a	n/a	n/a	n/a
4029434	RECOG_TARGET	n/a	LTP129	ltpFR	1	7	-1	ACROBAT	4	5	-1	n/a	n/a	n/a	n/a	n/a
4030230	RECOG_RESP	n/a	LTP129	ltpFR	1	7	-1	ACROBAT	4	n/a	-1	n/a	n/a	n/a	n/a	n/a
4031303	RECOG_CONF	n/a	LTP129	ltpFR	1	7	-1	ACROBAT	4	5	-1	n/a	n/a	n/a	n/a	n/a
4032798	RECOG_TARGET	n/a	LTP129	ltpFR	1	7	0	VEAL	1551	5	0	n/a	n/a	n/a	n/a	n/a
4033677	RECOG_RESP	n/a	LTP129	ltpFR	1	7	0	VEAL	1551	n/a	0	n/a	n/a	n/a	n/a	n/a
4034815	RECOG_CONF	n/a	LTP129	ltpFR	1	7	0	VEAL	1551	5	0	n/a	n/a	n/a	n/a	n/a
4036518	RECOG_LURE	n/a	LTP129	ltpFR	1	7	n/a	WARDROBE	1587	3	n/a	n/a	n/a	n/a	n/a	n/a
4037693	RECOG_RESP	n/a	LTP129	ltpFR	1	7	n/a	WARDROBE	1587	n/a	n/a	n/a	n/a	n/a	n/a	n/a
4038796	RECOG_CONF	n/a	LTP129	ltpFR	1	7	n/a	WARDROBE	1587	3	n/a	n/a	n/a	n/a	n/a	n/a
4040231	RECOG_TARGET	n/a	LTP129	ltpFR	1	7	0	SAP	1233	5	0	n/a	n/a	n/a	n/a	n/a
4041066	RECOG_RESP	n/a	LTP129	ltpFR	1	7	0	SAP	1233	n/a	0	n/a	n/a	n/a	n/a	n/a
4042328	RECOG_CONF	n/a	LTP129	ltpFR	1	7	0	SAP	1233	5	0	n/a	n/a	n/a	n/a	n/a
4043885	RECOG_LURE	n/a	LTP129	ltpFR	1	7	n/a	SWAN	1417	3	n/a	n/a	n/a	n/a	n/a	n/a
4045451	RECOG_RESP	n/a	LTP129	ltpFR	1	7	n/a	SWAN	1417	n/a	n/a	n/a	n/a	n/a	n/a	n/a
4046648	RECOG_CONF	n/a	LTP129	ltpFR	1	7	n/a	SWAN	1417	3	n/a	n/a	n/a	n/a	n/a	n/a
4048214	RECOG_LURE	n/a	LTP129	ltpFR	1	7	n/a	BEE	112	3	n/a	n/a	n/a	n/a	n/a	n/a
4049147	RECOG_RESP	n/a	LTP129	ltpFR	1	7	n/a	BEE	112	n/a	n/a	n/a	n/a	n/a	n/a	n/a
4050389	RECOG_CONF	n/a	LTP129	ltpFR	1	7	n/a	BEE	112	3	n/a	n/a	n/a	n/a	n/a	n/a
4051843	RECOG_TARGET	n/a	LTP129	ltpFR	1	7	1	TART	1436	5	0	n/a	n/a	n/a	n/a	n/a
4052540	RECOG_RESP	n/a	LTP129	ltpFR	1	7	1	TART	1436	n/a	0	n/a	n/a	n/a	n/a	n/a
4053782	RECOG_CONF	n/a	LTP129	ltpFR	1	7	1	TART	1436	5	0	n/a	n/a	n/a	n/a	n/a
4055239	RECOG_LURE	n/a	LTP129	ltpFR	1	7	n/a	UNDERWEAR	1537	5	n/a	n/a	n/a	n/a	n/a	n/a
4056436	RECOG_RESP	n/a	LTP129	ltpFR	1	7	n/a	UNDERWEAR	1537	n/a	n/a	n/a	n/a	n/a	n/a	n/a
4057683	RECOG_CONF	n/a	LTP129	ltpFR	1	7	n/a	UNDERWEAR	1537	5	n/a	n/a	n/a	n/a	n/a	n/a
4059101	RECOG_TARGET	n/a	LTP129	ltpFR	1	7	-1	CHAUFFEUR	283	5	-1	n/a	n/a	n/a	n/a	n/a
4059873	RECOG_RESP	n/a	LTP129	ltpFR	1	7	-1	CHAUFFEUR	283	n/a	-1	n/a	n/a	n/a	n/a	n/a
4061205	RECOG_CONF	n/a	LTP129	ltpFR	1	7	-1	CHAUFFEUR	283	5	-1	n/a	n/a	n/a	n/a	n/a
4062680	RECOG_TARGET	n/a	LTP129	ltpFR	1	7	-1	VESSEL	1558	3	-1	n/a	n/a	n/a	n/a	n/a
4064687	RECOG_RESP	n/a	LTP129	ltpFR	1	7	-1	VESSEL	1558	n/a	-1	n/a	n/a	n/a	n/a	n/a
4065824	RECOG_CONF	n/a	LTP129	ltpFR	1	7	-1	VESSEL	1558	3	-1	n/a	n/a	n/a	n/a	n/a
4067142	RECOG_LURE	n/a	LTP129	ltpFR	1	7	n/a	SERPENT	1270	5	n/a	n/a	n/a	n/a	n/a	n/a
4068009	RECOG_RESP	n/a	LTP129	ltpFR	1	7	n/a	SERPENT	1270	n/a	n/a	n/a	n/a	n/a	n/a	n/a
4069047	RECOG_CONF	n/a	LTP129	ltpFR	1	7	n/a	SERPENT	1270	5	n/a	n/a	n/a	n/a	n/a	n/a
4070520	RECOG_TARGET	n/a	LTP129	ltpFR	1	7	-1	WAREHOUSE	1588	5	-1	n/a	n/a	n/a	n/a	n/a
4071556	RECOG_RESP	n/a	LTP129	ltpFR	1	7	-1	WAREHOUSE	1588	n/a	-1	n/a	n/a	n/a	n/a	n/a
4072828	RECOG_CONF	n/a	LTP129	ltpFR	1	7	-1	WAREHOUSE	1588	5	-1	n/a	n/a	n/a	n/a	n/a
4074333	RECOG_TARGET	n/a	LTP129	ltpFR	1	7	1	CAFE	216	5	0	n/a	n/a	n/a	n/a	n/a
4075033	RECOG_RESP	n/a	LTP129	ltpFR	1	7	1	CAFE	216	n/a	0	n/a	n/a	n/a	n/a	n/a
4076297	RECOG_CONF	n/a	LTP129	ltpFR	1	7	1	CAFE	216	5	0	n/a	n/a	n/a	n/a	n/a
4077829	RECOG_TARGET	n/a	LTP129	ltpFR	1	7	0	DIAMOND	458	5	0	n/a	n/a	n/a	n/a	n/a
4078426	RECOG_RESP	n/a	LTP129	ltpFR	1	7	0	DIAMOND	458	n/a	0	n/a	n/a	n/a	n/a	n/a
4079623	RECOG_CONF	n/a	LTP129	ltpFR	1	7	0	DIAMOND	458	5	0	n/a	n/a	n/a	n/a	n/a
4094708	REC_START	n/a	LTP129	ltpFR	1	8	n/a	n/a	n/a	n/a	n/a	n/a	n/a	n/a	n/a	n/a
4094735	RECOG_TARGET	n/a	LTP129	ltpFR	1	8	1	PREACHER	1119	5	1	n/a	n/a	n/a	n/a	n/a
4095506	RECOG_RESP	n/a	LTP129	ltpFR	1	8	1	PREACHER	1119	n/a	1	n/a	n/a	n/a	n/a	n/a
4096589	RECOG_CONF	n/a	LTP129	ltpFR	1	8	1	PREACHER	1119	5	1	n/a	n/a	n/a	n/a	n/a
4098006	RECOG_LURE	n/a	LTP129	ltpFR	1	8	n/a	WASP	1593	3	n/a	n/a	n/a	n/a	n/a	n/a
4098868	RECOG_RESP	n/a	LTP129	ltpFR	1	8	n/a	WASP	1593	n/a	n/a	n/a	n/a	n/a	n/a	n/a
4100071	RECOG_CONF	n/a	LTP129	ltpFR	1	8	n/a	WASP	1593	3	n/a	n/a	n/a	n/a	n/a	n/a
4101592	RECOG_LURE	n/a	LTP129	ltpFR	1	8	n/a	ELECTRICIAN	521	5	n/a	n/a	n/a	n/a	n/a	n/a
4102725	RECOG_RESP	n/a	LTP129	ltpFR	1	8	n/a	ELECTRICIAN	521	n/a	n/a	n/a	n/a	n/a	n/a	n/a
4103991	RECOG_CONF	n/a	LTP129	ltpFR	1	8	n/a	ELECTRICIAN	521	5	n/a	n/a	n/a	n/a	n/a	n/a
4105430	RECOG_LURE	n/a	LTP129	ltpFR	1	8	n/a	TILE	1468	3	n/a	n/a	n/a	n/a	n/a	n/a
4106361	RECOG_RESP	n/a	LTP129	ltpFR	1	8	n/a	TILE	1468	n/a	n/a	n/a	n/a	n/a	n/a	n/a
4107594	RECOG_CONF	n/a	LTP129	ltpFR	1	8	n/a	TILE	1468	3	n/a	n/a	n/a	n/a	n/a	n/a
4109026	RECOG_TARGET	n/a	LTP129	ltpFR	1	8	0	ROOT	1210	5	1	n/a	n/a	n/a	n/a	n/a
4109928	RECOG_RESP	n/a	LTP129	ltpFR	1	8	0	ROOT	1210	n/a	1	n/a	n/a	n/a	n/a	n/a
4111305	RECOG_CONF	n/a	LTP129	ltpFR	1	8	0	ROOT	1210	5	1	n/a	n/a	n/a	n/a	n/a
4113055	RECOG_TARGET	n/a	LTP129	ltpFR	1	8	-1	ATMOSPHERE	54	3	-1	n/a	n/a	n/a	n/a	n/a
4114957	RECOG_RESP	n/a	LTP129	ltpFR	1	8	-1	ATMOSPHERE	54	n/a	-1	n/a	n/a	n/a	n/a	n/a
4116114	RECOG_CONF	n/a	LTP129	ltpFR	1	8	-1	ATMOSPHERE	54	3	-1	n/a	n/a	n/a	n/a	n/a
4117524	RECOG_TARGET	n/a	LTP129	ltpFR	1	8	-1	WHEEL	1603	5	-1	n/a	n/a	n/a	n/a	n/a
4118294	RECOG_RESP_VV	n/a	LTP129	ltpFR	1	8	-1	WHEEL	1603	n/a	-1	n/a	n/a	n/a	n/a	n/a
4119342	RECOG_RESP	n/a	LTP129	ltpFR	1	8	-1	WHEEL	1603	n/a	-1	n/a	n/a	n/a	n/a	n/a
4121542	RECOG_CONF	n/a	LTP129	ltpFR	1	8	-1	WHEEL	1603	5	-1	n/a	n/a	n/a	n/a	n/a
4123052	RECOG_LURE	n/a	LTP129	ltpFR	1	8	n/a	LID	817	3	n/a	n/a	n/a	n/a	n/a	n/a
4125428	RECOG_RESP	n/a	LTP129	ltpFR	1	8	n/a	LID	817	n/a	n/a	n/a	n/a	n/a	n/a	n/a
4126916	RECOG_CONF	n/a	LTP129	ltpFR	1	8	n/a	LID	817	3	n/a	n/a	n/a	n/a	n/a	n/a
4128354	RECOG_TARGET	n/a	LTP129	ltpFR	1	8	-1	ISLAND	745	5	-1	n/a	n/a	n/a	n/a	n/a
4129120	RECOG_RESP	n/a	LTP129	ltpFR	1	8	-1	ISLAND	745	n/a	-1	n/a	n/a	n/a	n/a	n/a
4130272	RECOG_CONF	n/a	LTP129	ltpFR	1	8	-1	ISLAND	745	5	-1	n/a	n/a	n/a	n/a	n/a
4131700	RECOG_LURE	n/a	LTP129	ltpFR	1	8	n/a	SAW	1239	5	n/a	n/a	n/a	n/a	n/a	n/a
4132597	RECOG_RESP	n/a	LTP129	ltpFR	1	8	n/a	SAW	1239	n/a	n/a	n/a	n/a	n/a	n/a	n/a
4134103	RECOG_CONF	n/a	LTP129	ltpFR	1	8	n/a	SAW	1239	5	n/a	n/a	n/a	n/a	n/a	n/a
4135388	RECOG_TARGET	n/a	LTP129	ltpFR	1	8	0	HATCHET	691	5	n/a	n/a	n/a	n/a	n/a	n/a
4136253	RECOG_RESP	n/a	LTP129	ltpFR	1	8	0	HATCHET	691	n/a	n/a	n/a	n/a	n/a	n/a	n/a
4137595	RECOG_CONF	n/a	LTP129	ltpFR	1	8	0	HATCHET	691	5	n/a	n/a	n/a	n/a	n/a	n/a
4139050	RECOG_TARGET	n/a	LTP129	ltpFR	1	8	-1	VEGETABLE	1552	5	-1	n/a	n/a	n/a	n/a	n/a
4139950	RECOG_RESP	n/a	LTP129	ltpFR	1	8	-1	VEGETABLE	1552	n/a	-1	n/a	n/a	n/a	n/a	n/a
4141287	RECOG_CONF	n/a	LTP129	ltpFR	1	8	-1	VEGETABLE	1552	5	-1	n/a	n/a	n/a	n/a	n/a
4142696	RECOG_TARGET	n/a	LTP129	ltpFR	1	8	-1	BOTTLE	153	5	-1	n/a	n/a	n/a	n/a	n/a
4143796	RECOG_RESP	n/a	LTP129	ltpFR	1	8	-1	BOTTLE	153	n/a	-1	n/a	n/a	n/a	n/a	n/a
4144929	RECOG_CONF	n/a	LTP129	ltpFR	1	8	-1	BOTTLE	153	5	-1	n/a	n/a	n/a	n/a	n/a
4146366	RECOG_LURE	n/a	LTP129	ltpFR	1	8	n/a	COMPANION	357	5	n/a	n/a	n/a	n/a	n/a	n/a
4148022	RECOG_RESP	n/a	LTP129	ltpFR	1	8	n/a	COMPANION	357	n/a	n/a	n/a	n/a	n/a	n/a	n/a
4149458	RECOG_CONF	n/a	LTP129	ltpFR	1	8	n/a	COMPANION	357	5	n/a	n/a	n/a	n/a	n/a	n/a
4150878	RECOG_LURE	n/a	LTP129	ltpFR	1	8	n/a	CANE	231	5	n/a	n/a	n/a	n/a	n/a	n/a
4151982	RECOG_RESP	n/a	LTP129	ltpFR	1	8	n/a	CANE	231	n/a	n/a	n/a	n/a	n/a	n/a	n/a
4153230	RECOG_CONF	n/a	LTP129	ltpFR	1	8	n/a	CANE	231	5	n/a	n/a	n/a	n/a	n/a	n/a
4154573	RECOG_TARGET	n/a	LTP129	ltpFR	1	8	0	GENERAL	630	5	1	n/a	n/a	n/a	n/a	n/a
4155514	RECOG_RESP	n/a	LTP129	ltpFR	1	8	0	GENERAL	630	n/a	1	n/a	n/a	n/a	n/a	n/a
4157091	RECOG_CONF	n/a	LTP129	ltpFR	1	8	0	GENERAL	630	5	1	n/a	n/a	n/a	n/a	n/a
4158443	RECOG_TARGET	n/a	LTP129	ltpFR	1	8	1	PARCEL	1012	5	0	n/a	n/a	n/a	n/a	n/a
4159131	RECOG_RESP	n/a	LTP129	ltpFR	1	8	1	PARCEL	1012	n/a	0	n/a	n/a	n/a	n/a	n/a
4160374	RECOG_CONF	n/a	LTP129	ltpFR	1	8	1	PARCEL	1012	5	0	n/a	n/a	n/a	n/a	n/a
4161749	RECOG_LURE	n/a	LTP129	ltpFR	1	8	n/a	TABLET	1427	5	n/a	n/a	n/a	n/a	n/a	n/a
4162658	RECOG_RESP	n/a	LTP129	ltpFR	1	8	n/a	TABLET	1427	n/a	n/a	n/a	n/a	n/a	n/a	n/a
4164103	RECOG_CONF	n/a	LTP129	ltpFR	1	8	n/a	TABLET	1427	5	n/a	n/a	n/a	n/a	n/a	n/a
4165403	RECOG_LURE	n/a	LTP129	ltpFR	1	8	n/a	REFEREE	1178	5	n/a	n/a	n/a	n/a	n/a	n/a
4166330	RECOG_RESP	n/a	LTP129	ltpFR	1	8	n/a	REFEREE	1178	n/a	n/a	n/a	n/a	n/a	n/a	n/a
4167438	RECOG_CONF	n/a	LTP129	ltpFR	1	8	n/a	REFEREE	1178	5	n/a	n/a	n/a	n/a	n/a	n/a
4168832	RECOG_LURE	n/a	LTP129	ltpFR	1	8	n/a	SAGE	1222	5	n/a	n/a	n/a	n/a	n/a	n/a
4169757	RECOG_RESP	n/a	LTP129	ltpFR	1	8	n/a	SAGE	1222	n/a	n/a	n/a	n/a	n/a	n/a	n/a
4170780	RECOG_CONF	n/a	LTP129	ltpFR	1	8	n/a	SAGE	1222	5	n/a	n/a	n/a	n/a	n/a	n/a
4216281	REC_START	n/a	LTP129	ltpFR	1	9	n/a	n/a	n/a	n/a	n/a	n/a	n/a	n/a	n/a	n/a
4216310	RECOG_TARGET	n/a	LTP129	ltpFR	1	9	1	MUSTARD	935	3	0	n/a	n/a	n/a	n/a	n/a
4217717	RECOG_RESP	n/a	LTP129	ltpFR	1	9	1	MUSTARD	935	n/a	0	n/a	n/a	n/a	n/a	n/a
4219229	RECOG_CONF	n/a	LTP129	ltpFR	1	9	1	MUSTARD	935	3	0	n/a	n/a	n/a	n/a	n/a
4220672	RECOG_LURE	n/a	LTP129	ltpFR	1	9	n/a	COMPASS	358	5	n/a	n/a	n/a	n/a	n/a	n/a
4221469	RECOG_RESP	n/a	LTP129	ltpFR	1	9	n/a	COMPASS	358	n/a	n/a	n/a	n/a	n/a	n/a	n/a
4222402	RECOG_CONF	n/a	LTP129	ltpFR	1	9	n/a	COMPASS	358	5	n/a	n/a	n/a	n/a	n/a	n/a
4223843	RECOG_LURE	n/a	LTP129	ltpFR	1	9	n/a	SEAL	1262	3	n/a	n/a	n/a	n/a	n/a	n/a
4225240	RECOG_RESP	n/a	LTP129	ltpFR	1	9	n/a	SEAL	1262	n/a	n/a	n/a	n/a	n/a	n/a	n/a
4226542	RECOG_CONF	n/a	LTP129	ltpFR	1	9	n/a	SEAL	1262	3	n/a	n/a	n/a	n/a	n/a	n/a
4227972	RECOG_TARGET	n/a	LTP129	ltpFR	1	9	0	GROUND	666	5	0	n/a	n/a	n/a	n/a	n/a
4228772	RECOG_RESP	n/a	LTP129	ltpFR	1	9	0	GROUND	666	n/a	0	n/a	n/a	n/a	n/a	n/a
4229895	RECOG_CONF	n/a	LTP129	ltpFR	1	9	0	GROUND	666	5	0	n/a	n/a	n/a	n/a	n/a
4231459	RECOG_LURE	n/a	LTP129	ltpFR	1	9	n/a	PUZZLE	1146	5	n/a	n/a	n/a	n/a	n/a	n/a
4232190	RECOG_RESP	n/a	LTP129	ltpFR	1	9	n/a	PUZZLE	1146	n/a	n/a	n/a	n/a	n/a	n/a	n/a
4233210	RECOG_CONF	n/a	LTP129	ltpFR	1	9	n/a	PUZZLE	1146	5	n/a	n/a	n/a	n/a	n/a	n/a
4234714	RECOG_TARGET	n/a	LTP129	ltpFR	1	9	0	CELERY	266	3	0	n/a	n/a	n/a	n/a	n/a
4235732	RECOG_RESP	n/a	LTP129	ltpFR	1	9	0	CELERY	266	n/a	0	n/a	n/a	n/a	n/a	n/a
4236889	RECOG_CONF	n/a	LTP129	ltpFR	1	9	0	CELERY	266	3	0	n/a	n/a	n/a	n/a	n/a
4238335	RECOG_LURE	n/a	LTP129	ltpFR	1	9	n/a	DISC	473	5	n/a	n/a	n/a	n/a	n/a	n/a
4239159	RECOG_RESP	n/a	LTP129	ltpFR	1	9	n/a	DISC	473	n/a	n/a	n/a	n/a	n/a	n/a	n/a
4240321	RECOG_CONF	n/a	LTP129	ltpFR	1	9	n/a	DISC	473	5	n/a	n/a	n/a	n/a	n/a	n/a
4241864	RECOG_TARGET	n/a	LTP129	ltpFR	1	9	1	TELESCOPE	1446	5	0	n/a	n/a	n/a	n/a	n/a
4242766	RECOG_RESP	n/a	LTP129	ltpFR	1	9	1	TELESCOPE	1446	n/a	0	n/a	n/a	n/a	n/a	n/a
4244282	RECOG_CONF	n/a	LTP129	ltpFR	1	9	1	TELESCOPE	1446	5	0	n/a	n/a	n/a	n/a	n/a
4245660	RECOG_TARGET	n/a	LTP129	ltpFR	1	9	1	SOCKET	1340	5	0	n/a	n/a	n/a	n/a	n/a
4246452	RECOG_RESP	n/a	LTP129	ltpFR	1	9	1	SOCKET	1340	n/a	0	n/a	n/a	n/a	n/a	n/a
4247940	RECOG_CONF	n/a	LTP129	ltpFR	1	9	1	SOCKET	1340	5	0	n/a	n/a	n/a	n/a	n/a
4249297	RECOG_TARGET	n/a	LTP129	ltpFR	1	9	1	BRANCH	168	5	0	n/a	n/a	n/a	n/a	n/a
4249959	RECOG_RESP	n/a	LTP129	ltpFR	1	9	1	BRANCH	168	n/a	0	n/a	n/a	n/a	n/a	n/a
4251086	RECOG_CONF	n/a	LTP129	ltpFR	1	9	1	BRANCH	168	5	0	n/a	n/a	n/a	n/a	n/a
4252394	RECOG_LURE	n/a	LTP129	ltpFR	1	9	n/a	WRIST	1626	3	n/a	n/a	n/a	n/a	n/a	n/a
4253192	RECOG_RESP	n/a	LTP129	ltpFR	1	9	n/a	WRIST	1626	n/a	n/a	n/a	n/a	n/a	n/a	n/a
4254190	RECOG_CONF	n/a	LTP129	ltpFR	1	9	n/a	WRIST	1626	3	n/a	n/a	n/a	n/a	n/a	n/a
4255564	RECOG_LURE	n/a	LTP129	ltpFR	1	9	n/a	DONKEY	484	5	n/a	n/a	n/a	n/a	n/a	n/a
4256569	RECOG_RESP	n/a	LTP129	ltpFR	1	9	n/a	DONKEY	484	n/a	n/a	n/a	n/a	n/a	n/a	n/a
4257732	RECOG_CONF	n/a	LTP129	ltpFR	1	9	n/a	DONKEY	484	5	n/a	n/a	n/a	n/a	n/a	n/a
4259186	RECOG_LURE	n/a	LTP129	ltpFR	1	9	n/a	MOTH	920	5	n/a	n/a	n/a	n/a	n/a	n/a
4259847	RECOG_RESP	n/a	LTP129	ltpFR	1	9	n/a	MOTH	920	n/a	n/a	n/a	n/a	n/a	n/a	n/a
4260974	RECOG_CONF	n/a	LTP129	ltpFR	1	9	n/a	MOTH	920	5	n/a	n/a	n/a	n/a	n/a	n/a
4262473	RECOG_LURE	n/a	LTP129	ltpFR	1	9	n/a	TORTOISE	1486	5	n/a	n/a	n/a	n/a	n/a	n/a
4263274	RECOG_RESP	n/a	LTP129	ltpFR	1	9	n/a	TORTOISE	1486	n/a	n/a	n/a	n/a	n/a	n/a	n/a
4264416	RECOG_CONF	n/a	LTP129	ltpFR	1	9	n/a	TORTOISE	1486	5	n/a	n/a	n/a	n/a	n/a	n/a
4265803	RECOG_LURE	n/a	LTP129	ltpFR	1	9	n/a	ATTIRE	57	3	n/a	n/a	n/a	n/a	n/a	n/a
4266931	RECOG_RESP	n/a	LTP129	ltpFR	1	9	n/a	ATTIRE	57	n/a	n/a	n/a	n/a	n/a	n/a	n/a
4268151	RECOG_CONF	n/a	LTP129	ltpFR	1	9	n/a	ATTIRE	57	3	n/a	n/a	n/a	n/a	n/a	n/a
4269548	RECOG_TARGET	n/a	LTP129	ltpFR	1	9	0	AWARD	63	5	0	n/a	n/a	n/a	n/a	n/a
4270318	RECOG_RESP	n/a	LTP129	ltpFR	1	9	0	AWARD	63	n/a	0	n/a	n/a	n/a	n/a	n/a
4271610	RECOG_CONF	n/a	LTP129	ltpFR	1	9	0	AWARD	63	5	0	n/a	n/a	n/a	n/a	n/a
4273028	RECOG_TARGET	n/a	LTP129	ltpFR	1	9	1	WALNUT	1584	3	0	n/a	n/a	n/a	n/a	n/a
4273694	RECOG_RESP	n/a	LTP129	ltpFR	1	9	1	WALNUT	1584	n/a	0	n/a	n/a	n/a	n/a	n/a
4275531	RECOG_CONF	n/a	LTP129	ltpFR	1	9	1	WALNUT	1584	3	0	n/a	n/a	n/a	n/a	n/a
4276907	RECOG_TARGET	n/a	LTP129	ltpFR	1	9	0	TYPIST	1532	3	1	n/a	n/a	n/a	n/a	n/a
4278070	RECOG_RESP	n/a	LTP129	ltpFR	1	9	0	TYPIST	1532	n/a	1	n/a	n/a	n/a	n/a	n/a
4279323	RECOG_CONF	n/a	LTP129	ltpFR	1	9	0	TYPIST	1532	3	1	n/a	n/a	n/a	n/a	n/a
4281019	RECOG_TARGET	n/a	LTP129	ltpFR	1	9	-1	ARENA	37	3	-1	n/a	n/a	n/a	n/a	n/a
4281802	RECOG_RESP	n/a	LTP129	ltpFR	1	9	-1	ARENA	37	n/a	-1	n/a	n/a	n/a	n/a	n/a
4282951	RECOG_CONF	n/a	LTP129	ltpFR	1	9	-1	ARENA	37	3	-1	n/a	n/a	n/a	n/a	n/a
4284407	RECOG_TARGET	n/a	LTP129	ltpFR	1	9	0	ICE	730	5	0	n/a	n/a	n/a	n/a	n/a
4285234	RECOG_RESP	n/a	LTP129	ltpFR	1	9	0	ICE	730	n/a	0	n/a	n/a	n/a	n/a	n/a
4286513	RECOG_CONF	n/a	LTP129	ltpFR	1	9	0	ICE	730	5	0	n/a	n/a	n/a	n/a	n/a
4299597	REC_START	n/a	LTP129	ltpFR	1	10	n/a	n/a	n/a	n/a	n/a	n/a	n/a	n/a	n/a	n/a
4299622	RECOG_LURE	n/a	LTP129	ltpFR	1	10	n/a	SCALPEL	1243	3	n/a	n/a	n/a	n/a	n/a	n/a
4300879	RECOG_RESP	n/a	LTP129	ltpFR	1	10	n/a	SCALPEL	1243	n/a	n/a	n/a	n/a	n/a	n/a	n/a
4302096	RECOG_CONF	n/a	LTP129	ltpFR	1	10	n/a	SCALPEL	1243	3	n/a	n/a	n/a	n/a	n/a	n/a
4303467	RECOG_TARGET	n/a	LTP129	ltpFR	1	10	0	CUBE	420	5	0	n/a	n/a	n/a	n/a	n/a
4304087	RECOG_RESP	n/a	LTP129	ltpFR	1	10	0	CUBE	420	n/a	0	n/a	n/a	n/a	n/a	n/a
