mstime	trial_type	stim_file	subject	experiment	session	trial	item_name	item_num	list	answer	test_x	test_y	test_z
0	SESS_START	n/a	LTP301	ltpFR2	10	n/a	n/a	n/a	n/a	n/a	0	0	0
10626	START	n/a	LTP301	ltpFR2	10	n/a	n/a	n/a	-1	n/a	n/a	n/a	n/a
10640	PROB	n/a	LTP301	ltpFR2	10	n/a	n/a	n/a	-1	18	8	1	9
12825	PROB	n/a	LTP301	ltpFR2	10	n/a	n/a	n/a	-1	8	6	1	1
14128	PROB	n/a	LTP301	ltpFR2	10	n/a	n/a	n/a	-1	17	7	5	3
17248	PROB	n/a	LTP301	ltpFR2	10	n/a	n/a	n/a	-1	12	3	2	7
20266	PROB	n/a	LTP301	ltpFR2	10	n/a	n/a	n/a	-1	18	4	7	7
22039	STOP	n/a	LTP301	ltpFR2	10	n/a	n/a	n/a	-1	n/a	n/a	n/a	n/a
59814	WORD	wordpools/wasnorm_wordpool_576.txt	LTP301	ltpFR2	10	1	PERMIT	1051	n/a	n/a	0	0	0
62367	WORD	wordpools/wasnorm_wordpool_576.txt	LTP301	ltpFR2	10	1	PLATE	1086	n/a	n/a	0	0	0
64902	WORD	wordpools/wasnorm_wordpool_576.txt	LTP301	ltpFR2	10	1	CANAL	226	n/a	n/a	0	0	0
67638	WORD	wordpools/wasnorm_wordpool_576.txt	LTP301	ltpFR2	10	1	RUG	1215	n/a	n/a	0	0	0
70290	WORD	wordpools/wasnorm_wordpool_576.txt	LTP301	ltpFR2	10	1	COLLEGE	346	n/a	n/a	0	0	0
73059	WORD	wordpools/wasnorm_wordpool_576.txt	LTP301	ltpFR2	10	1	BRANCH	168	n/a	n/a	0	0	0
75560	WORD	wordpools/wasnorm_wordpool_576.txt	LTP301	ltpFR2	10	1	OMELET	976	n/a	n/a	0	0	0
77979	WORD	wordpools/wasnorm_wordpool_576.txt	LTP301	ltpFR2	10	1	DAISY	435	n/a	n/a	0	0	0
80565	WORD	wordpools/wasnorm_wordpool_576.txt	LTP301	ltpFR2	10	1	HEDGE	699	n/a	n/a	0	0	0
83216	WORD	wordpools/wasnorm_wordpool_576.txt	LTP301	ltpFR2	10	1	FOREHEAD	592	n/a	n/a	0	0	0
85903	WORD	wordpools/wasnorm_wordpool_576.txt	LTP301	ltpFR2	10	1	FRECKLE	602	n/a	n/a	0	0	0
88538	WORD	wordpools/wasnorm_wordpool_576.txt	LTP301	ltpFR2	10	1	IDOL	733	n/a	n/a	0	0	0
90990	WORD	wordpools/wasnorm_wordpool_576.txt	LTP301	ltpFR2	10	1	DIVER	476	n/a	n/a	0	0	0
93809	WORD	wordpools/wasnorm_wordpool_576.txt	LTP301	ltpFR2	10	1	PLAYGROUND	1087	n/a	n/a	0	0	0
96561	WORD	wordpools/wasnorm_wordpool_576.txt	LTP301	ltpFR2	10	1	SWIMMER	1420	n/a	n/a	0	0	0
99284	WORD	wordpools/wasnorm_wordpool_576.txt	LTP301	ltpFR2	10	1	PARTNER	1017	n/a	n/a	0	0	0
101903	WORD	wordpools/wasnorm_wordpool_576.txt	LTP301	ltpFR2	10	1	BOYFRIEND	162	n/a	n/a	0	0	0
104556	WORD	wordpools/wasnorm_wordpool_576.txt	LTP301	ltpFR2	10	1	TEACHER	1440	n/a	n/a	0	0	0
107102	WORD	wordpools/wasnorm_wordpool_576.txt	LTP301	ltpFR2	10	1	THREAD	1460	n/a	n/a	0	0	0
109610	WORD	wordpools/wasnorm_wordpool_576.txt	LTP301	ltpFR2	10	1	BUNNY	198	n/a	n/a	0	0	0
112291	WORD	wordpools/wasnorm_wordpool_576.txt	LTP301	ltpFR2	10	1	BUCKET	184	n/a	n/a	0	0	0
114959	WORD	wordpools/wasnorm_wordpool_576.txt	LTP301	ltpFR2	10	1	COMPASS	358	n/a	n/a	0	0	0
117534	WORD	wordpools/wasnorm_wordpool_576.txt	LTP301	ltpFR2	10	1	TEMPLE	1448	n/a	n/a	0	0	0
120180	WORD	wordpools/wasnorm_wordpool_576.txt	LTP301	ltpFR2	10	1	SPOOL	1356	n/a	n/a	0	0	0
121788	START	n/a	LTP301	ltpFR2	10	n/a	n/a	n/a	1	n/a	n/a	n/a	n/a
122938	DISTRACTOR	n/a	LTP301	ltpFR2	10	1	n/a	n/a	n/a	n/a	0	0	0
122949	PROB	n/a	LTP301	ltpFR2	10	n/a	n/a	n/a	1	19	5	7	7
125483	PROB	n/a	LTP301	ltpFR2	10	n/a	n/a	n/a	1	6	1	2	3
128452	PROB	n/a	LTP301	ltpFR2	10	n/a	n/a	n/a	1	20	7	8	5
131988	PROB	n/a	LTP301	ltpFR2	10	n/a	n/a	n/a	1	15	8	2	5
133757	PROB	n/a	LTP301	ltpFR2	10	n/a	n/a	n/a	1	12	1	6	5
135542	PROB	n/a	LTP301	ltpFR2	10	n/a	n/a	n/a	1	16	3	8	5
138444	PROB	n/a	LTP301	ltpFR2	10	n/a	n/a	n/a	1	24	9	9	8
140629	PROB	n/a	LTP301	ltpFR2	10	n/a	n/a	n/a	1	13	3	4	6
143148	PROB	n/a	LTP301	ltpFR2	10	n/a	n/a	n/a	1	16	7	7	2
145076	STOP	n/a	LTP301	ltpFR2	10	n/a	n/a	n/a	1	n/a	n/a	n/a	n/a
147686	REC_START	n/a	LTP301	ltpFR2	10	1	n/a	n/a	n/a	n/a	0	0	0
148749	REC_WORD	wordpools/wasnorm_wordpool_576.txt	LTP301	ltpFR2	10	1	PERMIT	1051	n/a	n/a	0	0	0
149860	REC_WORD	wordpools/wasnorm_wordpool_576.txt	LTP301	ltpFR2	10	1	PLATE	1086	n/a	n/a	0	0	0
151652	REC_WORD	wordpools/wasnorm_wordpool_576.txt	LTP301	ltpFR2	10	1	TEMPLE	1448	n/a	n/a	0	0	0
153049	REC_WORD	wordpools/wasnorm_wordpool_576.txt	LTP301	ltpFR2	10	1	COMPASS	358	n/a	n/a	0	0	0
154670	REC_WORD	wordpools/wasnorm_wordpool_576.txt	LTP301	ltpFR2	10	1	PARTNER	1017	n/a	n/a	0	0	0
156385	REC_WORD	wordpools/wasnorm_wordpool_576.txt	LTP301	ltpFR2	10	1	BOYFRIEND	162	n/a	n/a	0	0	0
191512	REC_WORD	wordpools/wasnorm_wordpool_576.txt	LTP301	ltpFR2	10	1	IDOL	733	n/a	n/a	0	0	0
238123	WORD	wordpools/wasnorm_wordpool_576.txt	LTP301	ltpFR2	10	2	HARP	689	n/a	n/a	0	0	0
240842	WORD	wordpools/wasnorm_wordpool_576.txt	LTP301	ltpFR2	10	2	SPONGE	1355	n/a	n/a	0	0	0
243260	WORD	wordpools/wasnorm_wordpool_576.txt	LTP301	ltpFR2	10	2	BACKBONE	66	n/a	n/a	0	0	0
245879	WORD	wordpools/wasnorm_wordpool_576.txt	LTP301	ltpFR2	10	2	CONVICT	371	n/a	n/a	0	0	0
248448	WORD	wordpools/wasnorm_wordpool_576.txt	LTP301	ltpFR2	10	2	GAVEL	627	n/a	n/a	0	0	0
250900	WORD	wordpools/wasnorm_wordpool_576.txt	LTP301	ltpFR2	10	2	MARROW	872	n/a	n/a	0	0	0
253470	WORD	wordpools/wasnorm_wordpool_576.txt	LTP301	ltpFR2	10	2	PIGMENT	1066	n/a	n/a	0	0	0
256054	WORD	wordpools/wasnorm_wordpool_576.txt	LTP301	ltpFR2	10	2	CAMEL	223	n/a	n/a	0	0	0
258607	WORD	wordpools/wasnorm_wordpool_576.txt	LTP301	ltpFR2	10	2	BURGLAR	200	n/a	n/a	0	0	0
261410	WORD	wordpools/wasnorm_wordpool_576.txt	LTP301	ltpFR2	10	2	SHELTER	1282	n/a	n/a	0	0	0
263861	WORD	wordpools/wasnorm_wordpool_576.txt	LTP301	ltpFR2	10	2	DENTIST	447	n/a	n/a	0	0	0
266614	WORD	wordpools/wasnorm_wordpool_576.txt	LTP301	ltpFR2	10	2	RECEIPT	1173	n/a	n/a	0	0	0
269299	WORD	wordpools/wasnorm_wordpool_576.txt	LTP301	ltpFR2	10	2	VIKING	1565	n/a	n/a	0	0	0
271769	WORD	wordpools/wasnorm_wordpool_576.txt	LTP301	ltpFR2	10	2	PALACE	1006	n/a	n/a	0	0	0
274387	WORD	wordpools/wasnorm_wordpool_576.txt	LTP301	ltpFR2	10	2	CLIMBER	323	n/a	n/a	0	0	0
276939	WORD	wordpools/wasnorm_wordpool_576.txt	LTP301	ltpFR2	10	2	COTTAGE	384	n/a	n/a	0	0	0
279675	WORD	wordpools/wasnorm_wordpool_576.txt	LTP301	ltpFR2	10	2	PASTA	1021	n/a	n/a	0	0	0
282477	WORD	wordpools/wasnorm_wordpool_576.txt	LTP301	ltpFR2	10	2	SLOPE	1328	n/a	n/a	0	0	0
284929	WORD	wordpools/wasnorm_wordpool_576.txt	LTP301	ltpFR2	10	2	SUMMIT	1405	n/a	n/a	0	0	0
287515	WORD	wordpools/wasnorm_wordpool_576.txt	LTP301	ltpFR2	10	2	FRAGRANCE	599	n/a	n/a	0	0	0
290134	WORD	wordpools/wasnorm_wordpool_576.txt	LTP301	ltpFR2	10	2	PERFUME	1049	n/a	n/a	0	0	0
292836	WORD	wordpools/wasnorm_wordpool_576.txt	LTP301	ltpFR2	10	2	CELLAR	267	n/a	n/a	0	0	0
295590	WORD	wordpools/wasnorm_wordpool_576.txt	LTP301	ltpFR2	10	2	BULLET	194	n/a	n/a	0	0	0
298356	WORD	wordpools/wasnorm_wordpool_576.txt	LTP301	ltpFR2	10	2	LADDER	793	n/a	n/a	0	0	0
299960	START	n/a	LTP301	ltpFR2	10	n/a	n/a	n/a	2	n/a	n/a	n/a	n/a
301148	DISTRACTOR	n/a	LTP301	ltpFR2	10	2	n/a	n/a	n/a	n/a	0	0	0
301159	PROB	n/a	LTP301	ltpFR2	10	n/a	n/a	n/a	2	17	5	7	5
303092	PROB	n/a	LTP301	ltpFR2	10	n/a	n/a	n/a	2	13	1	6	6
305262	PROB	n/a	LTP301	ltpFR2	10	n/a	n/a	n/a	2	18	4	9	5
310198	PROB	n/a	LTP301	ltpFR2	10	n/a	n/a	n/a	2	14	2	9	3
312801	PROB	n/a	LTP301	ltpFR2	10	n/a	n/a	n/a	2	22	6	7	9
316288	PROB	n/a	LTP301	ltpFR2	10	n/a	n/a	n/a	2	13	8	1	4
318673	PROB	n/a	LTP301	ltpFR2	10	n/a	n/a	n/a	2	13	1	3	9
320689	PROB	n/a	LTP301	ltpFR2	10	n/a	n/a	n/a	2	17	2	8	7
323323	STOP	n/a	LTP301	ltpFR2	10	n/a	n/a	n/a	2	n/a	n/a	n/a	n/a
325727	REC_START	n/a	LTP301	ltpFR2	10	2	n/a	n/a	n/a	n/a	0	0	0
327611	REC_WORD	wordpools/wasnorm_wordpool_576.txt	LTP301	ltpFR2	10	2	CELLAR	267	n/a	n/a	0	0	0
329039	REC_WORD	wordpools/wasnorm_wordpool_576.txt	LTP301	ltpFR2	10	2	SUMMIT	1405	n/a	n/a	0	0	0
330437	REC_WORD	wordpools/wasnorm_wordpool_576.txt	LTP301	ltpFR2	10	2	LADDER	793	n/a	n/a	0	0	0
332738	REC_WORD	wordpools/wasnorm_wordpool_576.txt	LTP301	ltpFR2	10	2	CONVICT	371	n/a	n/a	0	0	0
334760	REC_WORD	wordpools/wasnorm_wordpool_576.txt	LTP301	ltpFR2	10	2	BACKBONE	66	n/a	n/a	0	0	0
358011	REC_WORD	wordpools/wasnorm_wordpool_576.txt	LTP301	ltpFR2	10	2	PLAYGROUND	1087	n/a	n/a	0	0	0
381974	REC_WORD	wordpools/wasnorm_wordpool_576.txt	LTP301	ltpFR2	10	2	FRAGRANCE	599	n/a	n/a	0	0	0
383157	REC_WORD	wordpools/wasnorm_wordpool_576.txt	LTP301	ltpFR2	10	2	PERFUME	1049	n/a	n/a	0	0	0
416166	WORD	wordpools/wasnorm_wordpool_576.txt	LTP301	ltpFR2	10	3	HEART	697	n/a	n/a	0	0	0
418913	WORD	wordpools/wasnorm_wordpool_576.txt	LTP301	ltpFR2	10	3	SILK	1307	n/a	n/a	0	0	0
421382	WORD	wordpools/wasnorm_wordpool_576.txt	LTP301	ltpFR2	10	3	TUTU	1524	n/a	n/a	0	0	0
424067	WORD	wordpools/wasnorm_wordpool_576.txt	LTP301	ltpFR2	10	3	BANQUET	86	n/a	n/a	0	0	0
426741	WORD	wordpools/wasnorm_wordpool_576.txt	LTP301	ltpFR2	10	3	CUSTARD	429	n/a	n/a	0	0	0
429178	WORD	wordpools/wasnorm_wordpool_576.txt	LTP301	ltpFR2	10	3	DANCER	437	n/a	n/a	0	0	0
431981	WORD	wordpools/wasnorm_wordpool_576.txt	LTP301	ltpFR2	10	3	MAILBOX	857	n/a	n/a	0	0	0
434793	WORD	wordpools/wasnorm_wordpool_576.txt	LTP301	ltpFR2	10	3	POSTAGE	1113	n/a	n/a	0	0	0
437218	WORD	wordpools/wasnorm_wordpool_576.txt	LTP301	ltpFR2	10	3	MISTER	901	n/a	n/a	0	0	0
439932	WORD	wordpools/wasnorm_wordpool_576.txt	LTP301	ltpFR2	10	3	FLIPPER	580	n/a	n/a	0	0	0
442468	WORD	wordpools/wasnorm_wordpool_576.txt	LTP301	ltpFR2	10	3	DINER	467	n/a	n/a	0	0	0
445169	WORD	wordpools/wasnorm_wordpool_576.txt	LTP301	ltpFR2	10	3	BOX	159	n/a	n/a	0	0	0
447939	WORD	wordpools/wasnorm_wordpool_576.txt	LTP301	ltpFR2	10	3	GIFT	635	n/a	n/a	0	0	0
450608	WORD	wordpools/wasnorm_wordpool_576.txt	LTP301	ltpFR2	10	3	BEEF	113	n/a	n/a	0	0	0
453310	WORD	wordpools/wasnorm_wordpool_576.txt	LTP301	ltpFR2	10	3	JELLO	754	n/a	n/a	0	0	0
455744	WORD	wordpools/wasnorm_wordpool_576.txt	LTP301	ltpFR2	10	3	TERMITE	1451	n/a	n/a	0	0	0
458518	WORD	wordpools/wasnorm_wordpool_576.txt	LTP301	ltpFR2	10	3	TRACTOR	1493	n/a	n/a	0	0	0
461300	WORD	wordpools/wasnorm_wordpool_576.txt	LTP301	ltpFR2	10	3	ICEBERG	731	n/a	n/a	0	0	0
463939	WORD	wordpools/wasnorm_wordpool_576.txt	LTP301	ltpFR2	10	3	LAVA	804	n/a	n/a	0	0	0
466605	WORD	wordpools/wasnorm_wordpool_576.txt	LTP301	ltpFR2	10	3	NOMAD	955	n/a	n/a	0	0	0
469190	WORD	wordpools/wasnorm_wordpool_576.txt	LTP301	ltpFR2	10	3	HIKER	708	n/a	n/a	0	0	0
471859	WORD	wordpools/wasnorm_wordpool_576.txt	LTP301	ltpFR2	10	3	HAND	683	n/a	n/a	0	0	0
474561	WORD	wordpools/wasnorm_wordpool_576.txt	LTP301	ltpFR2	10	3	STICKER	1382	n/a	n/a	0	0	0
477265	WORD	wordpools/wasnorm_wordpool_576.txt	LTP301	ltpFR2	10	3	FLESH	579	n/a	n/a	0	0	0
478868	START	n/a	LTP301	ltpFR2	10	n/a	n/a	n/a	3	n/a	n/a	n/a	n/a
479861	DISTRACTOR	n/a	LTP301	ltpFR2	10	3	n/a	n/a	n/a	n/a	0	0	0
479867	PROB	n/a	LTP301	ltpFR2	10	n/a	n/a	n/a	3	15	2	7	6
483352	PROB	n/a	LTP301	ltpFR2	10	n/a	n/a	n/a	3	13	5	3	5
484970	PROB	n/a	LTP301	ltpFR2	10	n/a	n/a	n/a	3	17	5	7	5
486705	PROB	n/a	LTP301	ltpFR2	10	n/a	n/a	n/a	3	18	5	7	6
488641	PROB	n/a	LTP301	ltpFR2	10	n/a	n/a	n/a	3	5	3	1	1
491259	PROB	n/a	LTP301	ltpFR2	10	n/a	n/a	n/a	3	7	2	3	2
493564	PROB	n/a	LTP301	ltpFR2	10	n/a	n/a	n/a	3	15	1	9	5
495546	PROB	n/a	LTP301	ltpFR2	10	n/a	n/a	n/a	3	14	3	4	7
497850	PROB	n/a	LTP301	ltpFR2	10	n/a	n/a	n/a	3	9	1	6	2
499583	PROB	n/a	LTP301	ltpFR2	10	n/a	n/a	n/a	3	16	7	7	2
501498	STOP	n/a	LTP301	ltpFR2	10	n/a	n/a	n/a	3	n/a	n/a	n/a	n/a
504674	REC_START	n/a	LTP301	ltpFR2	10	3	n/a	n/a	n/a	n/a	0	0	0
506324	REC_WORD	wordpools/wasnorm_wordpool_576.txt	LTP301	ltpFR2	10	3	HAMBURGER	679	n/a	n/a	0	0	0
507728	REC_WORD	wordpools/wasnorm_wordpool_576.txt	LTP301	ltpFR2	10	3	FLESH	579	n/a	n/a	0	0	0
509104	REC_WORD	wordpools/wasnorm_wordpool_576.txt	LTP301	ltpFR2	10	3	RECEIPT	1173	n/a	n/a	0	0	0
510735	REC_WORD	wordpools/wasnorm_wordpool_576.txt	LTP301	ltpFR2	10	3	TERMITE	1451	n/a	n/a	0	0	0
527876	REC_WORD	wordpools/wasnorm_wordpool_576.txt	LTP301	ltpFR2	10	3	FLIPPER	580	n/a	n/a	0	0	0
531247	REC_WORD	wordpools/wasnorm_wordpool_576.txt	LTP301	ltpFR2	10	3	DANCER	437	n/a	n/a	0	0	0
595094	DISTRACTOR	n/a	LTP301	ltpFR2	10	4	n/a	n/a	n/a	n/a	0	0	0
595095	START	n/a	LTP301	ltpFR2	10	n/a	n/a	n/a	4	n/a	n/a	n/a	n/a
595111	PROB	n/a	LTP301	ltpFR2	10	n/a	n/a	n/a	4	3	1	1	1
596911	PROB	n/a	LTP301	ltpFR2	10	n/a	n/a	n/a	4	18	8	5	5
598597	PROB	n/a	LTP301	ltpFR2	10	n/a	n/a	n/a	4	5	3	1	1
599998	PROB	n/a	LTP301	ltpFR2	10	n/a	n/a	n/a	4	17	9	3	5
603918	PROB	n/a	LTP301	ltpFR2	10	n/a	n/a	n/a	4	18	7	4	7
605585	PROB	n/a	LTP301	ltpFR2	10	n/a	n/a	n/a	4	12	4	6	4
607521	PROB	n/a	LTP301	ltpFR2	10	n/a	n/a	n/a	4	14	4	5	5
609390	PROB	n/a	LTP301	ltpFR2	10	n/a	n/a	n/a	4	20	7	6	7
611323	PROB	n/a	LTP301	ltpFR2	10	n/a	n/a	n/a	4	17	1	8	8
613493	PROB	n/a	LTP301	ltpFR2	10	n/a	n/a	n/a	4	8	2	3	4
615510	PROB	n/a	LTP301	ltpFR2	10	n/a	n/a	n/a	4	15	8	2	5
618047	STOP	n/a	LTP301	ltpFR2	10	n/a	n/a	n/a	4	n/a	n/a	n/a	n/a
619982	WORD	wordpools/wasnorm_wordpool_576.txt	LTP301	ltpFR2	10	4	MESSAGE	888	n/a	n/a	0	0	0
622683	WORD	wordpools/wasnorm_wordpool_576.txt	LTP301	ltpFR2	10	4	PECAN	1036	n/a	n/a	0	0	0
625377	WORD	wordpools/wasnorm_wordpool_576.txt	LTP301	ltpFR2	10	4	BABY	64	n/a	n/a	0	0	0
627978	WORD	wordpools/wasnorm_wordpool_576.txt	LTP301	ltpFR2	10	4	WIDOW	1608	n/a	n/a	0	0	0
630657	WORD	wordpools/wasnorm_wordpool_576.txt	LTP301	ltpFR2	10	4	JUNGLE	764	n/a	n/a	0	0	0
633209	WORD	wordpools/wasnorm_wordpool_576.txt	LTP301	ltpFR2	10	4	LETTUCE	814	n/a	n/a	0	0	0
635837	WORD	wordpools/wasnorm_wordpool_576.txt	LTP301	ltpFR2	10	4	BARREL	91	n/a	n/a	0	0	0
638546	WORD	wordpools/wasnorm_wordpool_576.txt	LTP301	ltpFR2	10	4	CRIB	407	n/a	n/a	0	0	0
641107	WORD	wordpools/wasnorm_wordpool_576.txt	LTP301	ltpFR2	10	4	LION	827	n/a	n/a	0	0	0
643609	WORD	wordpools/wasnorm_wordpool_576.txt	LTP301	ltpFR2	10	4	BEAST	108	n/a	n/a	0	0	0
646029	WORD	wordpools/wasnorm_wordpool_576.txt	LTP301	ltpFR2	10	4	PADDING	999	n/a	n/a	0	0	0
648504	WORD	wordpools/wasnorm_wordpool_576.txt	LTP301	ltpFR2	10	4	LOFT	840	n/a	n/a	0	0	0
650965	WORD	wordpools/wasnorm_wordpool_576.txt	LTP301	ltpFR2	10	4	MAILMAN	858	n/a	n/a	0	0	0
653734	WORD	wordpools/wasnorm_wordpool_576.txt	LTP301	ltpFR2	10	4	PADDLE	1000	n/a	n/a	0	0	0
656444	WORD	wordpools/wasnorm_wordpool_576.txt	LTP301	ltpFR2	10	4	HUSBAND	728	n/a	n/a	0	0	0
659029	WORD	wordpools/wasnorm_wordpool_576.txt	LTP301	ltpFR2	10	4	LOVER	846	n/a	n/a	0	0	0
661614	WORD	wordpools/wasnorm_wordpool_576.txt	LTP301	ltpFR2	10	4	RAFT	1159	n/a	n/a	0	0	0
664377	WORD	wordpools/wasnorm_wordpool_576.txt	LTP301	ltpFR2	10	4	FRIAR	605	n/a	n/a	0	0	0
666803	WORD	wordpools/wasnorm_wordpool_576.txt	LTP301	ltpFR2	10	4	ACTRESS	6	n/a	n/a	0	0	0
669498	WORD	wordpools/wasnorm_wordpool_576.txt	LTP301	ltpFR2	10	4	HORNET	718	n/a	n/a	0	0	0
672017	WORD	wordpools/wasnorm_wordpool_576.txt	LTP301	ltpFR2	10	4	HONEY	713	n/a	n/a	0	0	0
674809	WORD	wordpools/wasnorm_wordpool_576.txt	LTP301	ltpFR2	10	4	EAGLE	512	n/a	n/a	0	0	0
677423	WORD	wordpools/wasnorm_wordpool_576.txt	LTP301	ltpFR2	10	4	FRUIT	610	n/a	n/a	0	0	0
680075	WORD	wordpools/wasnorm_wordpool_576.txt	LTP301	ltpFR2	10	4	TABLE	1426	n/a	n/a	0	0	0
681681	START	n/a	LTP301	ltpFR2	10	n/a	n/a	n/a	5	n/a	n/a	n/a	n/a
682513	DISTRACTOR	n/a	LTP301	ltpFR2	10	4	n/a	n/a	n/a	n/a	0	0	0
682527	PROB	n/a	LTP301	ltpFR2	10	n/a	n/a	n/a	5	12	6	2	4
684348	PROB	n/a	LTP301	ltpFR2	10	n/a	n/a	n/a	5	13	3	5	5
686201	PROB	n/a	LTP301	ltpFR2	10	n/a	n/a	n/a	5	24	9	6	9
688419	PROB	n/a	LTP301	ltpFR2	10	n/a	n/a	n/a	5	20	7	6	7
690304	PROB	n/a	LTP301	ltpFR2	10	n/a	n/a	n/a	5	8	2	2	4
691956	PROB	n/a	LTP301	ltpFR2	10	n/a	n/a	n/a	5	14	6	2	6
693738	PROB	n/a	LTP301	ltpFR2	10	n/a	n/a	n/a	5	16	9	5	2
696426	PROB	n/a	LTP301	ltpFR2	10	n/a	n/a	n/a	5	14	5	3	6
698928	PROB	n/a	LTP301	ltpFR2	10	n/a	n/a	n/a	5	15	7	2	4
705681	STOP	n/a	LTP301	ltpFR2	10	n/a	n/a	n/a	5	n/a	n/a	n/a	n/a
707435	REC_START	n/a	LTP301	ltpFR2	10	4	n/a	n/a	n/a	n/a	0	0	0
715628	REC_WORD	wordpools/wasnorm_wordpool_576.txt	LTP301	ltpFR2	10	4	TRACTOR	1493	n/a	n/a	0	0	0
717179	REC_WORD	wordpools/wasnorm_wordpool_576.txt	LTP301	ltpFR2	10	4	ICEBERG	731	n/a	n/a	0	0	0
739095	REC_WORD	wordpools/wasnorm_wordpool_576.txt	LTP301	ltpFR2	10	4	HUSBAND	728	n/a	n/a	0	0	0
740273	REC_WORD	wordpools/wasnorm_wordpool_576.txt	LTP301	ltpFR2	10	4	LOVER	846	n/a	n/a	0	0	0
797889	WORD	wordpools/wasnorm_wordpool_576.txt	LTP301	ltpFR2	10	5	SUITCASE	1403	n/a	n/a	0	0	0
800296	WORD	wordpools/wasnorm_wordpool_576.txt	LTP301	ltpFR2	10	5	SALMON	1227	n/a	n/a	0	0	0
802911	WORD	wordpools/wasnorm_wordpool_576.txt	LTP301	ltpFR2	10	5	ASIA	46	n/a	n/a	0	0	0
805480	WORD	wordpools/wasnorm_wordpool_576.txt	LTP301	ltpFR2	10	5	SOFTBALL	1343	n/a	n/a	0	0	0
807902	WORD	wordpools/wasnorm_wordpool_576.txt	LTP301	ltpFR2	10	5	HOOD	714	n/a	n/a	0	0	0
810484	WORD	wordpools/wasnorm_wordpool_576.txt	LTP301	ltpFR2	10	5	MOTOR	922	n/a	n/a	0	0	0
812936	WORD	wordpools/wasnorm_wordpool_576.txt	LTP301	ltpFR2	10	5	SEAGULL	1261	n/a	n/a	0	0	0
815539	WORD	wordpools/wasnorm_wordpool_576.txt	LTP301	ltpFR2	10	5	POPCORN	1104	n/a	n/a	0	0	0
818308	WORD	wordpools/wasnorm_wordpool_576.txt	LTP301	ltpFR2	10	5	FILM	565	n/a	n/a	0	0	0
821092	WORD	wordpools/wasnorm_wordpool_576.txt	LTP301	ltpFR2	10	5	AIRPORT	13	n/a	n/a	0	0	0
823678	WORD	wordpools/wasnorm_wordpool_576.txt	LTP301	ltpFR2	10	5	CIGAR	308	n/a	n/a	0	0	0
826268	WORD	wordpools/wasnorm_wordpool_576.txt	LTP301	ltpFR2	10	5	LONDON	843	n/a	n/a	0	0	0
828748	WORD	wordpools/wasnorm_wordpool_576.txt	LTP301	ltpFR2	10	5	RADISH	1158	n/a	n/a	0	0	0
831351	WORD	wordpools/wasnorm_wordpool_576.txt	LTP301	ltpFR2	10	5	HAMPER	682	n/a	n/a	0	0	0
834103	WORD	wordpools/wasnorm_wordpool_576.txt	LTP301	ltpFR2	10	5	STUDENT	1395	n/a	n/a	0	0	0
836710	WORD	wordpools/wasnorm_wordpool_576.txt	LTP301	ltpFR2	10	5	IGLOO	734	n/a	n/a	0	0	0
839397	WORD	wordpools/wasnorm_wordpool_576.txt	LTP301	ltpFR2	10	5	PILOT	1070	n/a	n/a	0	0	0
842176	WORD	wordpools/wasnorm_wordpool_576.txt	LTP301	ltpFR2	10	5	COCOON	339	n/a	n/a	0	0	0
844963	WORD	wordpools/wasnorm_wordpool_576.txt	LTP301	ltpFR2	10	5	QUARTER	1148	n/a	n/a	0	0	0
847714	WORD	wordpools/wasnorm_wordpool_576.txt	LTP301	ltpFR2	10	5	CAPTIVE	240	n/a	n/a	0	0	0
850517	WORD	wordpools/wasnorm_wordpool_576.txt	LTP301	ltpFR2	10	5	COUCH	386	n/a	n/a	0	0	0
852952	WORD	wordpools/wasnorm_wordpool_576.txt	LTP301	ltpFR2	10	5	SHARK	1275	n/a	n/a	0	0	0
855403	WORD	wordpools/wasnorm_wordpool_576.txt	LTP301	ltpFR2	10	5	APRON	35	n/a	n/a	0	0	0
858106	WORD	wordpools/wasnorm_wordpool_576.txt	LTP301	ltpFR2	10	5	MARKET	871	n/a	n/a	0	0	0
859714	START	n/a	LTP301	ltpFR2	10	n/a	n/a	n/a	6	n/a	n/a	n/a	n/a
860715	DISTRACTOR	n/a	LTP301	ltpFR2	10	5	n/a	n/a	n/a	n/a	0	0	0
860724	PROB	n/a	LTP301	ltpFR2	10	n/a	n/a	n/a	6	21	8	6	7
865011	PROB	n/a	LTP301	ltpFR2	10	n/a	n/a	n/a	6	14	3	4	7
867213	PROB	n/a	LTP301	ltpFR2	10	n/a	n/a	n/a	6	7	1	4	2
869065	PROB	n/a	LTP301	ltpFR2	10	n/a	n/a	n/a	6	16	2	8	6
870882	PROB	n/a	LTP301	ltpFR2	10	n/a	n/a	n/a	6	24	9	6	9
873200	PROB	n/a	LTP301	ltpFR2	10	n/a	n/a	n/a	6	14	2	2	8
875052	PROB	n/a	LTP301	ltpFR2	10	n/a	n/a	n/a	6	14	7	5	2
883714	STOP	n/a	LTP301	ltpFR2	10	n/a	n/a	n/a	6	n/a	n/a	n/a	n/a
885578	REC_START	n/a	LTP301	ltpFR2	10	5	n/a	n/a	n/a	n/a	0	0	0
887301	REC_WORD	wordpools/wasnorm_wordpool_576.txt	LTP301	ltpFR2	10	5	CAPTIVE	240	n/a	n/a	0	0	0
889025	REC_WORD	wordpools/wasnorm_wordpool_576.txt	LTP301	ltpFR2	10	5	KITCHEN	778	n/a	n/a	0	0	0
976001	DISTRACTOR	n/a	LTP301	ltpFR2	10	6	n/a	n/a	n/a	n/a	0	0	0
976002	START	n/a	LTP301	ltpFR2	10	n/a	n/a	n/a	7	n/a	n/a	n/a	n/a
976017	PROB	n/a	LTP301	ltpFR2	10	n/a	n/a	n/a	7	12	5	5	2
977803	PROB	n/a	LTP301	ltpFR2	10	n/a	n/a	n/a	7	24	9	8	7
981555	PROB	n/a	LTP301	ltpFR2	10	n/a	n/a	n/a	7	16	5	9	2
983756	PROB	n/a	LTP301	ltpFR2	10	n/a	n/a	n/a	7	5	2	2	1
985126	PROB	n/a	LTP301	ltpFR2	10	n/a	n/a	n/a	7	16	9	2	5
987977	PROB	n/a	LTP301	ltpFR2	10	n/a	n/a	n/a	7	15	1	9	5
990128	PROB	n/a	LTP301	ltpFR2	10	n/a	n/a	n/a	7	9	1	3	5
991913	PROB	n/a	LTP301	ltpFR2	10	n/a	n/a	n/a	7	11	4	1	6
995032	PROB	n/a	LTP301	ltpFR2	10	n/a	n/a	n/a	7	20	8	4	8
1000001	STOP	n/a	LTP301	ltpFR2	10	n/a	n/a	n/a	7	n/a	n/a	n/a	n/a
1001004	WORD	wordpools/wasnorm_wordpool_576.txt	LTP301	ltpFR2	10	6	SKETCH	1315	n/a	n/a	0	0	0
1003506	WORD	wordpools/wasnorm_wordpool_576.txt	LTP301	ltpFR2	10	6	FEMALE	559	n/a	n/a	0	0	0
1006258	WORD	wordpools/wasnorm_wordpool_576.txt	LTP301	ltpFR2	10	6	PUDDLE	1140	n/a	n/a	0	0	0
1008977	WORD	wordpools/wasnorm_wordpool_576.txt	LTP301	ltpFR2	10	6	BINDER	127	n/a	n/a	0	0	0
1011796	WORD	wordpools/wasnorm_wordpool_576.txt	LTP301	ltpFR2	10	6	MILK	895	n/a	n/a	0	0	0
1014582	WORD	wordpools/wasnorm_wordpool_576.txt	LTP301	ltpFR2	10	6	POSSUM	1112	n/a	n/a	0	0	0
1017301	WORD	wordpools/wasnorm_wordpool_576.txt	LTP301	ltpFR2	10	6	BEAKER	104	n/a	n/a	0	0	0
1020053	WORD	wordpools/wasnorm_wordpool_576.txt	LTP301	ltpFR2	10	6	VAGRANT	1544	n/a	n/a	0	0	0
1022672	WORD	wordpools/wasnorm_wordpool_576.txt	LTP301	ltpFR2	10	6	BRIEFCASE	175	n/a	n/a	0	0	0
1025124	WORD	wordpools/wasnorm_wordpool_576.txt	LTP301	ltpFR2	10	6	SNAIL	1332	n/a	n/a	0	0	0
1027842	WORD	wordpools/wasnorm_wordpool_576.txt	LTP301	ltpFR2	10	6	KNIFE	785	n/a	n/a	0	0	0
1030544	WORD	wordpools/wasnorm_wordpool_576.txt	LTP301	ltpFR2	10	6	SWORD	1423	n/a	n/a	0	0	0
1033096	WORD	wordpools/wasnorm_wordpool_576.txt	LTP301	ltpFR2	10	6	CATCHER	258	n/a	n/a	0	0	0
1035516	WORD	wordpools/wasnorm_wordpool_576.txt	LTP301	ltpFR2	10	6	PREACHER	1119	n/a	n/a	0	0	0
1038220	WORD	wordpools/wasnorm_wordpool_576.txt	LTP301	ltpFR2	10	6	WOMAN	1620	n/a	n/a	0	0	0
1040887	WORD	wordpools/wasnorm_wordpool_576.txt	LTP301	ltpFR2	10	6	MAMMAL	861	n/a	n/a	0	0	0
1043525	WORD	wordpools/wasnorm_wordpool_576.txt	LTP301	ltpFR2	10	6	LIZARD	834	n/a	n/a	0	0	0
1045994	WORD	wordpools/wasnorm_wordpool_576.txt	LTP301	ltpFR2	10	6	SHORTCAKE	1292	n/a	n/a	0	0	0
1048728	WORD	wordpools/wasnorm_wordpool_576.txt	LTP301	ltpFR2	10	6	LIVER	833	n/a	n/a	0	0	0
1051295	WORD	wordpools/wasnorm_wordpool_576.txt	LTP301	ltpFR2	10	6	BUREAU	199	n/a	n/a	0	0	0
1053931	WORD	wordpools/wasnorm_wordpool_576.txt	LTP301	ltpFR2	10	6	BLOCKADE	137	n/a	n/a	0	0	0
1056565	WORD	wordpools/wasnorm_wordpool_576.txt	LTP301	ltpFR2	10	6	BANJO	82	n/a	n/a	0	0	0
1058984	WORD	wordpools/wasnorm_wordpool_576.txt	LTP301	ltpFR2	10	6	RECORD	1176	n/a	n/a	0	0	0
1061619	WORD	wordpools/wasnorm_wordpool_576.txt	LTP301	ltpFR2	10	6	JOURNAL	760	n/a	n/a	0	0	0
1063226	START	n/a	LTP301	ltpFR2	10	n/a	n/a	n/a	8	n/a	n/a	n/a	n/a
1064121	DISTRACTOR	n/a	LTP301	ltpFR2	10	6	n/a	n/a	n/a	n/a	0	0	0
1064127	PROB	n/a	LTP301	ltpFR2	10	n/a	n/a	n/a	8	16	6	7	3
1066539	PROB	n/a	LTP301	ltpFR2	10	n/a	n/a	n/a	8	15	4	8	3
1068875	PROB	n/a	LTP301	ltpFR2	10	n/a	n/a	n/a	8	24	8	9	7
1072177	PROB	n/a	LTP301	ltpFR2	10	n/a	n/a	n/a	8	6	1	4	1
1073644	PROB	n/a	LTP301	ltpFR2	10	n/a	n/a	n/a	8	19	6	7	6
1076932	PROB	n/a	LTP301	ltpFR2	10	n/a	n/a	n/a	8	19	6	4	9
1080716	PROB	n/a	LTP301	ltpFR2	10	n/a	n/a	n/a	8	5	1	1	3
1082152	PROB	n/a	LTP301	ltpFR2	10	n/a	n/a	n/a	8	19	6	9	4
1084872	PROB	n/a	LTP301	ltpFR2	10	n/a	n/a	n/a	8	13	2	3	8
1087050	STOP	n/a	LTP301	ltpFR2	10	n/a	n/a	n/a	8	n/a	n/a	n/a	n/a
1089143	REC_START	n/a	LTP301	ltpFR2	10	6	n/a	n/a	n/a	n/a	0	0	0
1090361	REC_WORD	wordpools/wasnorm_wordpool_576.txt	LTP301	ltpFR2	10	6	BANJO	82	n/a	n/a	0	0	0
1092007	REC_WORD	wordpools/wasnorm_wordpool_576.txt	LTP301	ltpFR2	10	6	RECORD	1176	n/a	n/a	0	0	0
1095254	REC_WORD	wordpools/wasnorm_wordpool_576.txt	LTP301	ltpFR2	10	6	MILK	895	n/a	n/a	0	0	0
1107730	REC_WORD	wordpools/wasnorm_wordpool_576.txt	LTP301	ltpFR2	10	6	PUDDLE	1140	n/a	n/a	0	0	0
1123021	REC_WORD	wordpools/wasnorm_wordpool_576.txt	LTP301	ltpFR2	10	6	BEAKER	104	n/a	n/a	0	0	0
1153304	REC_WORD_VV	wordpools/wasnorm_wordpool_576.txt	LTP301	ltpFR2	10	6	<>	-1	n/a	n/a	0	0	0
1154305	REC_WORD	wordpools/wasnorm_wordpool_576.txt	LTP301	ltpFR2	10	6	FEMALE	559	n/a	n/a	0	0	0
1156105	REC_WORD	wordpools/wasnorm_wordpool_576.txt	LTP301	ltpFR2	10	6	MAMMAL	861	n/a	n/a	0	0	0
1158650	REC_WORD	wordpools/wasnorm_wordpool_576.txt	LTP301	ltpFR2	10	6	WOMAN	1620	n/a	n/a	0	0	0
1179560	DISTRACTOR	n/a	LTP301	ltpFR2	10	7	n/a	n/a	n/a	n/a	0	0	0
1179560	START	n/a	LTP301	ltpFR2	10	n/a	n/a	n/a	9	n/a	n/a	n/a	n/a
1179577	PROB	n/a	LTP301	ltpFR2	10	n/a	n/a	n/a	9	7	4	1	2
1182599	PROB	n/a	LTP301	ltpFR2	10	n/a	n/a	n/a	9	15	7	3	3
1184864	PROB	n/a	LTP301	ltpFR2	10	n/a	n/a	n/a	9	15	6	7	2
1188901	PROB	n/a	LTP301	ltpFR2	10	n/a	n/a	n/a	9	9	1	4	4
1190669	PROB	n/a	LTP301	ltpFR2	10	n/a	n/a	n/a	9	14	7	3	4
1193171	PROB	n/a	LTP301	ltpFR2	10	n/a	n/a	n/a	9	15	4	7	2
1196207	PROB	n/a	LTP301	ltpFR2	10	n/a	n/a	n/a	9	13	3	7	3
1199576	PROB	n/a	LTP301	ltpFR2	10	n/a	n/a	n/a	9	19	2	8	9
1202263	STOP	n/a	LTP301	ltpFR2	10	n/a	n/a	n/a	9	n/a	n/a	n/a	n/a
1204733	WORD	wordpools/wasnorm_wordpool_576.txt	LTP301	ltpFR2	10	7	SERVER	1272	n/a	n/a	0	0	0
1207267	WORD	wordpools/wasnorm_wordpool_576.txt	LTP301	ltpFR2	10	7	STREAM	1392	n/a	n/a	0	0	0
1209920	WORD	wordpools/wasnorm_wordpool_576.txt	LTP301	ltpFR2	10	7	MARINE	869	n/a	n/a	0	0	0
1212723	WORD	wordpools/wasnorm_wordpool_576.txt	LTP301	ltpFR2	10	7	TART	1436	n/a	n/a	0	0	0
1215475	WORD	wordpools/wasnorm_wordpool_576.txt	LTP301	ltpFR2	10	7	MARS	873	n/a	n/a	0	0	0
1218044	WORD	wordpools/wasnorm_wordpool_576.txt	LTP301	ltpFR2	10	7	GROUND	666	n/a	n/a	0	0	0
1220563	WORD	wordpools/wasnorm_wordpool_576.txt	LTP301	ltpFR2	10	7	SAUSAGE	1238	n/a	n/a	0	0	0
1223283	WORD	wordpools/wasnorm_wordpool_576.txt	LTP301	ltpFR2	10	7	RACKET	1155	n/a	n/a	0	0	0
1226101	WORD	wordpools/wasnorm_wordpool_576.txt	LTP301	ltpFR2	10	7	SCULPTURE	1258	n/a	n/a	0	0	0
1228654	WORD	wordpools/wasnorm_wordpool_576.txt	LTP301	ltpFR2	10	7	BACON	67	n/a	n/a	0	0	0
1231155	WORD	wordpools/wasnorm_wordpool_576.txt	LTP301	ltpFR2	10	7	KEEPER	769	n/a	n/a	0	0	0
1233908	WORD	wordpools/wasnorm_wordpool_576.txt	LTP301	ltpFR2	10	7	TWIG	1527	n/a	n/a	0	0	0
1236360	WORD	wordpools/wasnorm_wordpool_576.txt	LTP301	ltpFR2	10	7	FLUTE	585	n/a	n/a	0	0	0
1238896	WORD	wordpools/wasnorm_wordpool_576.txt	LTP301	ltpFR2	10	7	JUDGE	761	n/a	n/a	0	0	0
1241581	WORD	wordpools/wasnorm_wordpool_576.txt	LTP301	ltpFR2	10	7	FRAME	600	n/a	n/a	0	0	0
1244316	WORD	wordpools/wasnorm_wordpool_576.txt	LTP301	ltpFR2	10	7	CANDY	230	n/a	n/a	0	0	0
1246852	WORD	wordpools/wasnorm_wordpool_576.txt	LTP301	ltpFR2	10	7	GARDEN	623	n/a	n/a	0	0	0
1249454	WORD	wordpools/wasnorm_wordpool_576.txt	LTP301	ltpFR2	10	7	CLOUD	328	n/a	n/a	0	0	0
1252257	WORD	wordpools/wasnorm_wordpool_576.txt	LTP301	ltpFR2	10	7	DAUGHTER	442	n/a	n/a	0	0	0
1254841	WORD	wordpools/wasnorm_wordpool_576.txt	LTP301	ltpFR2	10	7	SPOUSE	1358	n/a	n/a	0	0	0
1257310	WORD	wordpools/wasnorm_wordpool_576.txt	LTP301	ltpFR2	10	7	AWARD	63	n/a	n/a	0	0	0
1259762	WORD	wordpools/wasnorm_wordpool_576.txt	LTP301	ltpFR2	10	7	ULCER	1533	n/a	n/a	0	0	0
1262465	WORD	wordpools/wasnorm_wordpool_576.txt	LTP301	ltpFR2	10	7	VALVE	1546	n/a	n/a	0	0	0
1265033	WORD	wordpools/wasnorm_wordpool_576.txt	LTP301	ltpFR2	10	7	BRAKE	166	n/a	n/a	0	0	0
1266637	START	n/a	LTP301	ltpFR2	10	n/a	n/a	n/a	10	n/a	n/a	n/a	n/a
1267621	DISTRACTOR	n/a	LTP301	ltpFR2	10	7	n/a	n/a	n/a	n/a	0	0	0
1267635	PROB	n/a	LTP301	ltpFR2	10	n/a	n/a	n/a	10	14	8	4	2
1280794	PROB	n/a	LTP301	ltpFR2	10	n/a	n/a	n/a	10	17	7	5	7
1284330	PROB	n/a	LTP301	ltpFR2	10	n/a	n/a	n/a	10	22	5	8	9
1290637	STOP	n/a	LTP301	ltpFR2	10	n/a	n/a	n/a	10	n/a	n/a	n/a	n/a
1292521	REC_START	n/a	LTP301	ltpFR2	10	7	n/a	n/a	n/a	n/a	0	0	0
1293958	REC_WORD	wordpools/wasnorm_wordpool_576.txt	LTP301	ltpFR2	10	7	DAUGHTER	442	n/a	n/a	0	0	0
1302061	REC_WORD	wordpools/wasnorm_wordpool_576.txt	LTP301	ltpFR2	10	7	HOSTAGE	722	n/a	n/a	0	0	0
1308997	REC_WORD	wordpools/wasnorm_wordpool_576.txt	LTP301	ltpFR2	10	7	CANDY	230	n/a	n/a	0	0	0
1382945	DISTRACTOR	n/a	LTP301	ltpFR2	10	8	n/a	n/a	n/a	n/a	0	0	0
1382945	START	n/a	LTP301	ltpFR2	10	n/a	n/a	n/a	11	n/a	n/a	n/a	n/a
1382960	PROB	n/a	LTP301	ltpFR2	10	n/a	n/a	n/a	11	21	7	7	7
1384596	PROB	n/a	LTP301	ltpFR2	10	n/a	n/a	n/a	11	6	1	1	4
1386330	PROB	n/a	LTP301	ltpFR2	10	n/a	n/a	n/a	11	19	3	7	9
1388713	PROB	n/a	LTP301	ltpFR2	10	n/a	n/a	n/a	11	18	6	6	6
1391851	PROB	n/a	LTP301	ltpFR2	10	n/a	n/a	n/a	11	18	4	8	6
1394736	PROB	n/a	LTP301	ltpFR2	10	n/a	n/a	n/a	11	13	6	1	6
1396388	PROB	n/a	LTP301	ltpFR2	10	n/a	n/a	n/a	11	19	7	3	9
1398539	PROB	n/a	LTP301	ltpFR2	10	n/a	n/a	n/a	11	11	2	1	8
1400574	PROB	n/a	LTP301	ltpFR2	10	n/a	n/a	n/a	11	18	6	3	9
1403460	PROB	n/a	LTP301	ltpFR2	10	n/a	n/a	n/a	11	13	1	9	3
1406945	STOP	n/a	LTP301	ltpFR2	10	n/a	n/a	n/a	11	n/a	n/a	n/a	n/a
1407842	WORD	wordpools/wasnorm_wordpool_576.txt	LTP301	ltpFR2	10	8	PLAZA	1088	n/a	n/a	0	0	0
1410378	WORD	wordpools/wasnorm_wordpool_576.txt	LTP301	ltpFR2	10	8	CONCERT	360	n/a	n/a	0	0	0
1412914	WORD	wordpools/wasnorm_wordpool_576.txt	LTP301	ltpFR2	10	8	CANYON	235	n/a	n/a	0	0	0
1415703	WORD	wordpools/wasnorm_wordpool_576.txt	LTP301	ltpFR2	10	8	NURSE	963	n/a	n/a	0	0	0
1418435	WORD	wordpools/wasnorm_wordpool_576.txt	LTP301	ltpFR2	10	8	JEANS	752	n/a	n/a	0	0	0
1421171	WORD	wordpools/wasnorm_wordpool_576.txt	LTP301	ltpFR2	10	8	NIGHTGOWN	953	n/a	n/a	0	0	0
1423627	WORD	wordpools/wasnorm_wordpool_576.txt	LTP301	ltpFR2	10	8	PROTON	1132	n/a	n/a	0	0	0
1426342	WORD	wordpools/wasnorm_wordpool_576.txt	LTP301	ltpFR2	10	8	FOOTBALL	591	n/a	n/a	0	0	0
1428811	WORD	wordpools/wasnorm_wordpool_576.txt	LTP301	ltpFR2	10	8	NAPKIN	937	n/a	n/a	0	0	0
1431463	WORD	wordpools/wasnorm_wordpool_576.txt	LTP301	ltpFR2	10	8	DRIVER	499	n/a	n/a	0	0	0
1434049	WORD	wordpools/wasnorm_wordpool_576.txt	LTP301	ltpFR2	10	8	DONOR	485	n/a	n/a	0	0	0
1436701	WORD	wordpools/wasnorm_wordpool_576.txt	LTP301	ltpFR2	10	8	CREVICE	405	n/a	n/a	0	0	0
1439187	WORD	wordpools/wasnorm_wordpool_576.txt	LTP301	ltpFR2	10	8	LAKE	796	n/a	n/a	0	0	0
1441721	WORD	wordpools/wasnorm_wordpool_576.txt	LTP301	ltpFR2	10	8	TURNIP	1521	n/a	n/a	0	0	0
1444425	WORD	wordpools/wasnorm_wordpool_576.txt	LTP301	ltpFR2	10	8	WARDROBE	1587	n/a	n/a	0	0	0
1447027	WORD	wordpools/wasnorm_wordpool_576.txt	LTP301	ltpFR2	10	8	COSTUME	383	n/a	n/a	0	0	0
1449596	WORD	wordpools/wasnorm_wordpool_576.txt	LTP301	ltpFR2	10	8	CORAL	378	n/a	n/a	0	0	0
1452181	WORD	wordpools/wasnorm_wordpool_576.txt	LTP301	ltpFR2	10	8	CEILING	265	n/a	n/a	0	0	0
1454616	WORD	wordpools/wasnorm_wordpool_576.txt	LTP301	ltpFR2	10	8	TRANSPLANT	1496	n/a	n/a	0	0	0
1457435	WORD	wordpools/wasnorm_wordpool_576.txt	LTP301	ltpFR2	10	8	DRAWING	494	n/a	n/a	0	0	0
1459872	WORD	wordpools/wasnorm_wordpool_576.txt	LTP301	ltpFR2	10	8	TAXI	1438	n/a	n/a	0	0	0
1462357	WORD	wordpools/wasnorm_wordpool_576.txt	LTP301	ltpFR2	10	8	BELLY	119	n/a	n/a	0	0	0
1465076	WORD	wordpools/wasnorm_wordpool_576.txt	LTP301	ltpFR2	10	8	STOMACH	1384	n/a	n/a	0	0	0
1467512	WORD	wordpools/wasnorm_wordpool_576.txt	LTP301	ltpFR2	10	8	BRACES	164	n/a	n/a	0	0	0
1469130	START	n/a	LTP301	ltpFR2	10	n/a	n/a	n/a	12	n/a	n/a	n/a	n/a
1470142	DISTRACTOR	n/a	LTP301	ltpFR2	10	8	n/a	n/a	n/a	n/a	0	0	0
1470146	PROB	n/a	LTP301	ltpFR2	10	n/a	n/a	n/a	12	19	4	6	9
1472683	PROB	n/a	LTP301	ltpFR2	10	n/a	n/a	n/a	12	15	5	2	8
1474917	PROB	n/a	LTP301	ltpFR2	10	n/a	n/a	n/a	12	14	8	3	3
1479537	PROB	n/a	LTP301	ltpFR2	10	n/a	n/a	n/a	12	8	2	5	1
1482875	PROB	n/a	LTP301	ltpFR2	10	n/a	n/a	n/a	12	9	3	4	2
1485108	PROB	n/a	LTP301	ltpFR2	10	n/a	n/a	n/a	12	15	7	6	2
1489728	PROB	n/a	LTP301	ltpFR2	10	n/a	n/a	n/a	12	14	6	6	2
1491907	STOP	n/a	LTP301	ltpFR2	10	n/a	n/a	n/a	12	n/a	n/a	n/a	n/a
1494952	REC_START	n/a	LTP301	ltpFR2	10	8	n/a	n/a	n/a	n/a	0	0	0
1496831	REC_WORD	wordpools/wasnorm_wordpool_576.txt	LTP301	ltpFR2	10	8	BRAKE	166	n/a	n/a	0	0	0
1498890	REC_WORD	wordpools/wasnorm_wordpool_576.txt	LTP301	ltpFR2	10	8	CUSTARD	429	n/a	n/a	0	0	0
1507041	REC_WORD	wordpools/wasnorm_wordpool_576.txt	LTP301	ltpFR2	10	8	PLAZA	1088	n/a	n/a	0	0	0
1512897	REC_WORD	wordpools/wasnorm_wordpool_576.txt	LTP301	ltpFR2	10	8	FRIAR	605	n/a	n/a	0	0	0
1543009	REC_WORD	wordpools/wasnorm_wordpool_576.txt	LTP301	ltpFR2	10	8	TURNIP	1521	n/a	n/a	0	0	0
1552403	REC_WORD	wordpools/wasnorm_wordpool_576.txt	LTP301	ltpFR2	10	8	DRAWING	494	n/a	n/a	0	0	0
1571479	REST_REWET	n/a	LTP301	ltpFR2	10	8	n/a	n/a	n/a	n/a	0	0	0
1756710	WORD	wordpools/wasnorm_wordpool_576.txt	LTP301	ltpFR2	10	9	SPOON	1357	n/a	n/a	0	0	0
1759197	WORD	wordpools/wasnorm_wordpool_576.txt	LTP301	ltpFR2	10	9	ZIPPER	1636	n/a	n/a	0	0	0
1761899	WORD	wordpools/wasnorm_wordpool_576.txt	LTP301	ltpFR2	10	9	WIFE	1609	n/a	n/a	0	0	0
1764467	WORD	wordpools/wasnorm_wordpool_576.txt	LTP301	ltpFR2	10	9	SUSPECT	1415	n/a	n/a	0	0	0
1767187	WORD	wordpools/wasnorm_wordpool_576.txt	LTP301	ltpFR2	10	9	PRIMATE	1123	n/a	n/a	0	0	0
1769605	WORD	wordpools/wasnorm_wordpool_576.txt	LTP301	ltpFR2	10	9	LAPEL	800	n/a	n/a	0	0	0
1772124	WORD	wordpools/wasnorm_wordpool_576.txt	LTP301	ltpFR2	10	9	SPACE	1345	n/a	n/a	0	0	0
1774658	WORD	wordpools/wasnorm_wordpool_576.txt	LTP301	ltpFR2	10	9	ORCHID	982	n/a	n/a	0	0	0
1777098	WORD	wordpools/wasnorm_wordpool_576.txt	LTP301	ltpFR2	10	9	CHILD	299	n/a	n/a	0	0	0
1779813	WORD	wordpools/wasnorm_wordpool_576.txt	LTP301	ltpFR2	10	9	DRUG	501	n/a	n/a	0	0	0
1782303	WORD	wordpools/wasnorm_wordpool_576.txt	LTP301	ltpFR2	10	9	SIDEWALK	1303	n/a	n/a	0	0	0
1785101	WORD	wordpools/wasnorm_wordpool_576.txt	LTP301	ltpFR2	10	9	DRESS	495	n/a	n/a	0	0	0
1787920	WORD	wordpools/wasnorm_wordpool_576.txt	LTP301	ltpFR2	10	9	SWITCH	1422	n/a	n/a	0	0	0
1790677	WORD	wordpools/wasnorm_wordpool_576.txt	LTP301	ltpFR2	10	9	VELVET	1555	n/a	n/a	0	0	0
1793312	WORD	wordpools/wasnorm_wordpool_576.txt	LTP301	ltpFR2	10	9	WITNESS	1618	n/a	n/a	0	0	0
1795826	WORD	wordpools/wasnorm_wordpool_576.txt	LTP301	ltpFR2	10	9	FLASHLIGHT	575	n/a	n/a	0	0	0
1798316	WORD	wordpools/wasnorm_wordpool_576.txt	LTP301	ltpFR2	10	9	LUNCH	849	n/a	n/a	0	0	0
1800953	WORD	wordpools/wasnorm_wordpool_576.txt	LTP301	ltpFR2	10	9	CUPBOARD	425	n/a	n/a	0	0	0
1803416	WORD	wordpools/wasnorm_wordpool_576.txt	LTP301	ltpFR2	10	9	BODY	145	n/a	n/a	0	0	0
1805990	WORD	wordpools/wasnorm_wordpool_576.txt	LTP301	ltpFR2	10	9	GRILL	661	n/a	n/a	0	0	0
1808525	WORD	wordpools/wasnorm_wordpool_576.txt	LTP301	ltpFR2	10	9	MARKER	870	n/a	n/a	0	0	0
1811128	WORD	wordpools/wasnorm_wordpool_576.txt	LTP301	ltpFR2	10	9	CRAYON	401	n/a	n/a	0	0	0
1813657	WORD	wordpools/wasnorm_wordpool_576.txt	LTP301	ltpFR2	10	9	MACHINE	852	n/a	n/a	0	0	0
1816099	WORD	wordpools/wasnorm_wordpool_576.txt	LTP301	ltpFR2	10	9	FLOWER	584	n/a	n/a	0	0	0
1817710	START	n/a	LTP301	ltpFR2	10	n/a	n/a	n/a	13	n/a	n/a	n/a	n/a
1818749	DISTRACTOR	n/a	LTP301	ltpFR2	10	9	n/a	n/a	n/a	n/a	0	0	0
1818761	PROB	n/a	LTP301	ltpFR2	10	n/a	n/a	n/a	13	12	9	2	1
1821312	PROB	n/a	LTP301	ltpFR2	10	n/a	n/a	n/a	13	17	5	6	6
1823197	PROB	n/a	LTP301	ltpFR2	10	n/a	n/a	n/a	13	11	4	6	1
1825466	PROB	n/a	LTP301	ltpFR2	10	n/a	n/a	n/a	13	15	1	9	5
1827233	PROB	n/a	LTP301	ltpFR2	10	n/a	n/a	n/a	13	20	6	6	8
1829602	PROB	n/a	LTP301	ltpFR2	10	n/a	n/a	n/a	13	24	9	8	9
1833471	PROB	n/a	LTP301	ltpFR2	10	n/a	n/a	n/a	13	12	6	2	4
1835323	PROB	n/a	LTP301	ltpFR2	10	n/a	n/a	n/a	13	5	1	1	3
1837024	PROB	n/a	LTP301	ltpFR2	10	n/a	n/a	n/a	13	24	9	7	8
1840545	STOP	n/a	LTP301	ltpFR2	10	n/a	n/a	n/a	13	n/a	n/a	n/a	n/a
1843530	REC_START	n/a	LTP301	ltpFR2	10	9	n/a	n/a	n/a	n/a	0	0	0
1845723	REC_WORD	wordpools/wasnorm_wordpool_576.txt	LTP301	ltpFR2	10	9	MACHINE	852	n/a	n/a	0	0	0
1846975	REC_WORD	wordpools/wasnorm_wordpool_576.txt	LTP301	ltpFR2	10	9	BODY	145	n/a	n/a	0	0	0
1848361	REC_WORD	wordpools/wasnorm_wordpool_576.txt	LTP301	ltpFR2	10	9	ORCHID	982	n/a	n/a	0	0	0
1849380	REC_WORD	wordpools/wasnorm_wordpool_576.txt	LTP301	ltpFR2	10	9	FLOWER	584	n/a	n/a	0	0	0
1850993	REC_WORD	wordpools/wasnorm_wordpool_576.txt	LTP301	ltpFR2	10	9	MARKER	870	n/a	n/a	0	0	0
1852344	REC_WORD	wordpools/wasnorm_wordpool_576.txt	LTP301	ltpFR2	10	9	CRAYON	401	n/a	n/a	0	0	0
1885897	REC_WORD	wordpools/wasnorm_wordpool_576.txt	LTP301	ltpFR2	10	9	BEEF	113	n/a	n/a	0	0	0
1906791	REC_WORD_VV	wordpools/wasnorm_wordpool_576.txt	LTP301	ltpFR2	10	9	<>	-1	n/a	n/a	0	0	0
1908160	REC_WORD_VV	wordpools/wasnorm_wordpool_576.txt	LTP301	ltpFR2	10	9	<>	-1	n/a	n/a	0	0	0
1933952	DISTRACTOR	n/a	LTP301	ltpFR2	10	10	n/a	n/a	n/a	n/a	0	0	0
1933952	START	n/a	LTP301	ltpFR2	10	n/a	n/a	n/a	14	n/a	n/a	n/a	n/a
1933967	PROB	n/a	LTP301	ltpFR2	10	n/a	n/a	n/a	14	16	4	9	3
1936037	PROB	n/a	LTP301	ltpFR2	10	n/a	n/a	n/a	14	14	2	8	4
1940425	PROB	n/a	LTP301	ltpFR2	10	n/a	n/a	n/a	14	18	5	7	6
1942794	PROB	n/a	LTP301	ltpFR2	10	n/a	n/a	n/a	14	19	5	8	7
1945044	PROB	n/a	LTP301	ltpFR2	10	n/a	n/a	n/a	14	14	5	5	4
1946495	PROB	n/a	LTP301	ltpFR2	10	n/a	n/a	n/a	14	9	1	6	2
1949481	PROB	n/a	LTP301	ltpFR2	10	n/a	n/a	n/a	14	18	4	7	7
1951716	PROB	n/a	LTP301	ltpFR2	10	n/a	n/a	n/a	14	10	3	1	6
1954136	PROB	n/a	LTP301	ltpFR2	10	n/a	n/a	n/a	14	10	5	3	2
1957952	STOP	n/a	LTP301	ltpFR2	10	n/a	n/a	n/a	14	n/a	n/a	n/a	n/a
1958823	WORD	wordpools/wasnorm_wordpool_576.txt	LTP301	ltpFR2	10	10	PUDDING	1139	n/a	n/a	0	0	0
1961609	WORD	wordpools/wasnorm_wordpool_576.txt	LTP301	ltpFR2	10	10	TOASTER	1472	n/a	n/a	0	0	0
1964078	WORD	wordpools/wasnorm_wordpool_576.txt	LTP301	ltpFR2	10	10	BLENDER	136	n/a	n/a	0	0	0
1966846	WORD	wordpools/wasnorm_wordpool_576.txt	LTP301	ltpFR2	10	10	WINDOW	1611	n/a	n/a	0	0	0
1969533	WORD	wordpools/wasnorm_wordpool_576.txt	LTP301	ltpFR2	10	10	FLAG	573	n/a	n/a	0	0	0
1972151	WORD	wordpools/wasnorm_wordpool_576.txt	LTP301	ltpFR2	10	10	YARN	1631	n/a	n/a	0	0	0
1974903	WORD	wordpools/wasnorm_wordpool_576.txt	LTP301	ltpFR2	10	10	TURTLE	1522	n/a	n/a	0	0	0
1977405	WORD	wordpools/wasnorm_wordpool_576.txt	LTP301	ltpFR2	10	10	NOVEL	960	n/a	n/a	0	0	0
1979874	WORD	wordpools/wasnorm_wordpool_576.txt	LTP301	ltpFR2	10	10	RAZOR	1171	n/a	n/a	0	0	0
1982626	WORD	wordpools/wasnorm_wordpool_576.txt	LTP301	ltpFR2	10	10	SKIRT	1319	n/a	n/a	0	0	0
1985312	WORD	wordpools/wasnorm_wordpool_576.txt	LTP301	ltpFR2	10	10	ROOSTER	1209	n/a	n/a	0	0	0
1988031	WORD	wordpools/wasnorm_wordpool_576.txt	LTP301	ltpFR2	10	10	BREAST	171	n/a	n/a	0	0	0
1990599	WORD	wordpools/wasnorm_wordpool_576.txt	LTP301	ltpFR2	10	10	BUBBLE	183	n/a	n/a	0	0	0
1993085	WORD	wordpools/wasnorm_wordpool_576.txt	LTP301	ltpFR2	10	10	GUARD	667	n/a	n/a	0	0	0
1995570	WORD	wordpools/wasnorm_wordpool_576.txt	LTP301	ltpFR2	10	10	TRIBE	1505	n/a	n/a	0	0	0
1998022	WORD	wordpools/wasnorm_wordpool_576.txt	LTP301	ltpFR2	10	10	COWBOY	395	n/a	n/a	0	0	0
2000591	WORD	wordpools/wasnorm_wordpool_576.txt	LTP301	ltpFR2	10	10	MEDAL	885	n/a	n/a	0	0	0
2003175	WORD	wordpools/wasnorm_wordpool_576.txt	LTP301	ltpFR2	10	10	TRENCH	1503	n/a	n/a	0	0	0
2005944	WORD	wordpools/wasnorm_wordpool_576.txt	LTP301	ltpFR2	10	10	LACE	792	n/a	n/a	0	0	0
2008664	WORD	wordpools/wasnorm_wordpool_576.txt	LTP301	ltpFR2	10	10	SLUG	1329	n/a	n/a	0	0	0
2011199	WORD	wordpools/wasnorm_wordpool_576.txt	LTP301	ltpFR2	10	10	PASSAGE	1019	n/a	n/a	0	0	0
2013617	WORD	wordpools/wasnorm_wordpool_576.txt	LTP301	ltpFR2	10	10	BOARD	143	n/a	n/a	0	0	0
2016286	WORD	wordpools/wasnorm_wordpool_576.txt	LTP301	ltpFR2	10	10	CHURCH	307	n/a	n/a	0	0	0
2019055	WORD	wordpools/wasnorm_wordpool_576.txt	LTP301	ltpFR2	10	10	QUEEN	1149	n/a	n/a	0	0	0
2020661	START	n/a	LTP301	ltpFR2	10	n/a	n/a	n/a	15	n/a	n/a	n/a	n/a
2021734	DISTRACTOR	n/a	LTP301	ltpFR2	10	10	n/a	n/a	n/a	n/a	0	0	0
2021740	PROB	n/a	LTP301	ltpFR2	10	n/a	n/a	n/a	15	10	1	3	6
2024126	PROB	n/a	LTP301	ltpFR2	10	n/a	n/a	n/a	15	11	1	2	8
2025843	PROB	n/a	LTP301	ltpFR2	10	n/a	n/a	n/a	15	15	9	5	1
2029430	PROB	n/a	LTP301	ltpFR2	10	n/a	n/a	n/a	15	13	2	8	3
2032164	PROB	n/a	LTP301	ltpFR2	10	n/a	n/a	n/a	15	8	1	1	6
2033499	PROB	n/a	LTP301	ltpFR2	10	n/a	n/a	n/a	15	14	6	7	1
2037454	PROB	n/a	LTP301	ltpFR2	10	n/a	n/a	n/a	15	15	7	4	2
2044425	STOP	n/a	LTP301	ltpFR2	10	n/a	n/a	n/a	15	n/a	n/a	n/a	n/a
2046593	REC_START	n/a	LTP301	ltpFR2	10	10	n/a	n/a	n/a	n/a	0	0	0
2052912	REC_WORD	wordpools/wasnorm_wordpool_576.txt	LTP301	ltpFR2	10	10	CHURCH	307	n/a	n/a	0	0	0
2054602	REC_WORD	wordpools/wasnorm_wordpool_576.txt	LTP301	ltpFR2	10	10	PREACHER	1119	n/a	n/a	0	0	0
2057155	REC_WORD	wordpools/wasnorm_wordpool_576.txt	LTP301	ltpFR2	10	10	COWBOY	395	n/a	n/a	0	0	0
2085336	REC_WORD_VV	wordpools/wasnorm_wordpool_576.txt	LTP301	ltpFR2	10	10	<>	-1	n/a	n/a	0	0	0
2137012	DISTRACTOR	n/a	LTP301	ltpFR2	10	11	n/a	n/a	n/a	n/a	0	0	0
2137013	START	n/a	LTP301	ltpFR2	10	n/a	n/a	n/a	16	n/a	n/a	n/a	n/a
2137030	PROB	n/a	LTP301	ltpFR2	10	n/a	n/a	n/a	16	11	5	4	2
2138917	PROB	n/a	LTP301	ltpFR2	10	n/a	n/a	n/a	16	15	6	4	5
2140754	PROB	n/a	LTP301	ltpFR2	10	n/a	n/a	n/a	16	20	3	9	8
2143257	PROB	n/a	LTP301	ltpFR2	10	n/a	n/a	n/a	16	20	8	8	4
2145073	PROB	n/a	LTP301	ltpFR2	10	n/a	n/a	n/a	16	9	7	1	1
2146508	PROB	n/a	LTP301	ltpFR2	10	n/a	n/a	n/a	16	23	5	9	9
2149692	PROB	n/a	LTP301	ltpFR2	10	n/a	n/a	n/a	16	10	4	3	3
2151991	PROB	n/a	LTP301	ltpFR2	10	n/a	n/a	n/a	16	16	6	8	2
2153960	PROB	n/a	LTP301	ltpFR2	10	n/a	n/a	n/a	16	17	2	6	9
2156581	PROB	n/a	LTP301	ltpFR2	10	n/a	n/a	n/a	16	10	6	2	2
2161013	STOP	n/a	LTP301	ltpFR2	10	n/a	n/a	n/a	16	n/a	n/a	n/a	n/a
2162167	WORD	wordpools/wasnorm_wordpool_576.txt	LTP301	ltpFR2	10	11	HOUND	724	n/a	n/a	0	0	0
2164970	WORD	wordpools/wasnorm_wordpool_576.txt	LTP301	ltpFR2	10	11	UNCLE	1536	n/a	n/a	0	0	0
2167672	WORD	wordpools/wasnorm_wordpool_576.txt	LTP301	ltpFR2	10	11	OUTFIT	988	n/a	n/a	0	0	0
2170492	WORD	wordpools/wasnorm_wordpool_576.txt	LTP301	ltpFR2	10	11	ZEBRA	1635	n/a	n/a	0	0	0
2172912	WORD	wordpools/wasnorm_wordpool_576.txt	LTP301	ltpFR2	10	11	HATCHET	691	n/a	n/a	0	0	0
2175629	WORD	wordpools/wasnorm_wordpool_576.txt	LTP301	ltpFR2	10	11	TREAT	1501	n/a	n/a	0	0	0
2178381	WORD	wordpools/wasnorm_wordpool_576.txt	LTP301	ltpFR2	10	11	LODGE	839	n/a	n/a	0	0	0
2181118	WORD	wordpools/wasnorm_wordpool_576.txt	LTP301	ltpFR2	10	11	BASEMENT	94	n/a	n/a	0	0	0
2183820	WORD	wordpools/wasnorm_wordpool_576.txt	LTP301	ltpFR2	10	11	SMOG	1330	n/a	n/a	0	0	0
2186405	WORD	wordpools/wasnorm_wordpool_576.txt	LTP301	ltpFR2	10	11	POISON	1096	n/a	n/a	0	0	0
2189074	WORD	wordpools/wasnorm_wordpool_576.txt	LTP301	ltpFR2	10	11	MOP	916	n/a	n/a	0	0	0
2191793	WORD	wordpools/wasnorm_wordpool_576.txt	LTP301	ltpFR2	10	11	RIVER	1194	n/a	n/a	0	0	0
2194562	WORD	wordpools/wasnorm_wordpool_576.txt	LTP301	ltpFR2	10	11	LAGOON	795	n/a	n/a	0	0	0
2197082	WORD	wordpools/wasnorm_wordpool_576.txt	LTP301	ltpFR2	10	11	VICTIM	1562	n/a	n/a	0	0	0
2199600	WORD	wordpools/wasnorm_wordpool_576.txt	LTP301	ltpFR2	10	11	FUNGUS	614	n/a	n/a	0	0	0
2202302	WORD	wordpools/wasnorm_wordpool_576.txt	LTP301	ltpFR2	10	11	PARSLEY	1016	n/a	n/a	0	0	0
2205004	WORD	wordpools/wasnorm_wordpool_576.txt	LTP301	ltpFR2	10	11	PEANUT	1032	n/a	n/a	0	0	0
2207657	WORD	wordpools/wasnorm_wordpool_576.txt	LTP301	ltpFR2	10	11	GARLIC	624	n/a	n/a	0	0	0
2210376	WORD	wordpools/wasnorm_wordpool_576.txt	LTP301	ltpFR2	10	11	CASKET	255	n/a	n/a	0	0	0
2213178	WORD	wordpools/wasnorm_wordpool_576.txt	LTP301	ltpFR2	10	11	ITEM	746	n/a	n/a	0	0	0
2215946	WORD	wordpools/wasnorm_wordpool_576.txt	LTP301	ltpFR2	10	11	TWEEZERS	1526	n/a	n/a	0	0	0
2218616	WORD	wordpools/wasnorm_wordpool_576.txt	LTP301	ltpFR2	10	11	DUSTPAN	509	n/a	n/a	0	0	0
2221117	WORD	wordpools/wasnorm_wordpool_576.txt	LTP301	ltpFR2	10	11	PACKAGE	997	n/a	n/a	0	0	0
2223853	WORD	wordpools/wasnorm_wordpool_576.txt	LTP301	ltpFR2	10	11	PENGUIN	1044	n/a	n/a	0	0	0
2225457	START	n/a	LTP301	ltpFR2	10	n/a	n/a	n/a	17	n/a	n/a	n/a	n/a
2226435	DISTRACTOR	n/a	LTP301	ltpFR2	10	11	n/a	n/a	n/a	n/a	0	0	0
2226438	PROB	n/a	LTP301	ltpFR2	10	n/a	n/a	n/a	17	22	9	9	4
2231608	PROB	n/a	LTP301	ltpFR2	10	n/a	n/a	n/a	17	22	8	9	5
2235195	PROB	n/a	LTP301	ltpFR2	10	n/a	n/a	n/a	17	22	3	2	7
2238280	PROB	n/a	LTP301	ltpFR2	10	n/a	n/a	n/a	17	19	2	7	9
2249456	STOP	n/a	LTP301	ltpFR2	10	n/a	n/a	n/a	17	n/a	n/a	n/a	n/a
2251291	REC_START	n/a	LTP301	ltpFR2	10	11	n/a	n/a	n/a	n/a	0	0	0
2253298	REC_WORD	wordpools/wasnorm_wordpool_576.txt	LTP301	ltpFR2	10	11	DUSTPAN	509	n/a	n/a	0	0	0
2264674	REC_WORD	wordpools/wasnorm_wordpool_576.txt	LTP301	ltpFR2	10	11	CRANBERRY	-1	n/a	n/a	0	0	0
2279070	REC_WORD	wordpools/wasnorm_wordpool_576.txt	LTP301	ltpFR2	10	11	SWORD	1423	n/a	n/a	0	0	0
2279422	REC_WORD	wordpools/wasnorm_wordpool_576.txt	LTP301	ltpFR2	10	11	FISH	571	n/a	n/a	0	0	0
2309230	REC_WORD	wordpools/wasnorm_wordpool_576.txt	LTP301	ltpFR2	10	11	PARSLEY	1016	n/a	n/a	0	0	0
2312876	REC_WORD	wordpools/wasnorm_wordpool_576.txt	LTP301	ltpFR2	10	11	GARLIC	624	n/a	n/a	0	0	0
2341714	DISTRACTOR	n/a	LTP301	ltpFR2	10	12	n/a	n/a	n/a	n/a	0	0	0
2341714	START	n/a	LTP301	ltpFR2	10	n/a	n/a	n/a	18	n/a	n/a	n/a	n/a
2341731	PROB	n/a	LTP301	ltpFR2	10	n/a	n/a	n/a	18	17	3	7	7
2343967	PROB	n/a	LTP301	ltpFR2	10	n/a	n/a	n/a	18	16	6	8	2
2345500	PROB	n/a	LTP301	ltpFR2	10	n/a	n/a	n/a	18	22	7	9	6
2349186	PROB	n/a	LTP301	ltpFR2	10	n/a	n/a	n/a	18	9	2	6	1
2350939	PROB	n/a	LTP301	ltpFR2	10	n/a	n/a	n/a	18	14	9	4	1
2352957	PROB	n/a	LTP301	ltpFR2	10	n/a	n/a	n/a	18	19	3	9	7
2355275	PROB	n/a	LTP301	ltpFR2	10	n/a	n/a	n/a	18	16	2	8	6
2357226	PROB	n/a	LTP301	ltpFR2	10	n/a	n/a	n/a	18	15	4	5	6
2358928	PROB	n/a	LTP301	ltpFR2	10	n/a	n/a	n/a	18	19	5	8	6
2361213	PROB	n/a	LTP301	ltpFR2	10	n/a	n/a	n/a	18	14	7	3	4
2365714	STOP	n/a	LTP301	ltpFR2	10	n/a	n/a	n/a	18	n/a	n/a	n/a	n/a
2366596	WORD	wordpools/wasnorm_wordpool_576.txt	LTP301	ltpFR2	10	12	DONKEY	484	n/a	n/a	0	0	0
2369132	WORD	wordpools/wasnorm_wordpool_576.txt	LTP301	ltpFR2	10	12	CURTAIN	427	n/a	n/a	0	0	0
2371567	WORD	wordpools/wasnorm_wordpool_576.txt	LTP301	ltpFR2	10	12	THIEF	1456	n/a	n/a	0	0	0
2374185	WORD	wordpools/wasnorm_wordpool_576.txt	LTP301	ltpFR2	10	12	OUTDOORS	987	n/a	n/a	0	0	0
2376859	WORD	wordpools/wasnorm_wordpool_576.txt	LTP301	ltpFR2	10	12	VALLEY	1545	n/a	n/a	0	0	0
2379374	WORD	wordpools/wasnorm_wordpool_576.txt	LTP301	ltpFR2	10	12	PLASTER	1085	n/a	n/a	0	0	0
2382042	WORD	wordpools/wasnorm_wordpool_576.txt	LTP301	ltpFR2	10	12	CRAB	397	n/a	n/a	0	0	0
2384599	WORD	wordpools/wasnorm_wordpool_576.txt	LTP301	ltpFR2	10	12	PANTHER	1009	n/a	n/a	0	0	0
2387367	WORD	wordpools/wasnorm_wordpool_576.txt	LTP301	ltpFR2	10	12	COD	340	n/a	n/a	0	0	0
2390049	WORD	wordpools/wasnorm_wordpool_576.txt	LTP301	ltpFR2	10	12	PERCH	1048	n/a	n/a	0	0	0
2392802	WORD	wordpools/wasnorm_wordpool_576.txt	LTP301	ltpFR2	10	12	SERVANT	1271	n/a	n/a	0	0	0
2395224	WORD	wordpools/wasnorm_wordpool_576.txt	LTP301	ltpFR2	10	12	MASK	876	n/a	n/a	0	0	0
2397860	WORD	wordpools/wasnorm_wordpool_576.txt	LTP301	ltpFR2	10	12	PISTON	1076	n/a	n/a	0	0	0
2400609	WORD	wordpools/wasnorm_wordpool_576.txt	LTP301	ltpFR2	10	12	ROBIN	1199	n/a	n/a	0	0	0
2403395	WORD	wordpools/wasnorm_wordpool_576.txt	LTP301	ltpFR2	10	12	BLUEPRINT	142	n/a	n/a	0	0	0
2406147	WORD	wordpools/wasnorm_wordpool_576.txt	LTP301	ltpFR2	10	12	BRICK	172	n/a	n/a	0	0	0
2408916	WORD	wordpools/wasnorm_wordpool_576.txt	LTP301	ltpFR2	10	12	LIGHTNING	820	n/a	n/a	0	0	0
2411668	WORD	wordpools/wasnorm_wordpool_576.txt	LTP301	ltpFR2	10	12	POLICE	1098	n/a	n/a	0	0	0
2414472	WORD	wordpools/wasnorm_wordpool_576.txt	LTP301	ltpFR2	10	12	PATROL	1027	n/a	n/a	0	0	0
2417039	WORD	wordpools/wasnorm_wordpool_576.txt	LTP301	ltpFR2	10	12	ROBBER	1197	n/a	n/a	0	0	0
2419642	WORD	wordpools/wasnorm_wordpool_576.txt	LTP301	ltpFR2	10	12	DRESSER	496	n/a	n/a	0	0	0
2422345	WORD	wordpools/wasnorm_wordpool_576.txt	LTP301	ltpFR2	10	12	FRANCE	601	n/a	n/a	0	0	0
2424797	WORD	wordpools/wasnorm_wordpool_576.txt	LTP301	ltpFR2	10	12	OUTLAW	989	n/a	n/a	0	0	0
2427433	WORD	wordpools/wasnorm_wordpool_576.txt	LTP301	ltpFR2	10	12	INMATE	738	n/a	n/a	0	0	0
2429051	START	n/a	LTP301	ltpFR2	10	n/a	n/a	n/a	19	n/a	n/a	n/a	n/a
2430217	DISTRACTOR	n/a	LTP301	ltpFR2	10	12	n/a	n/a	n/a	n/a	0	0	0
2430234	PROB	n/a	LTP301	ltpFR2	10	n/a	n/a	n/a	19	10	1	6	3
2437040	PROB	n/a	LTP301	ltpFR2	10	n/a	n/a	n/a	19	17	2	7	8
2441377	PROB	n/a	LTP301	ltpFR2	10	n/a	n/a	n/a	19	12	1	9	2
2444948	PROB	n/a	LTP301	ltpFR2	10	n/a	n/a	n/a	19	16	6	9	1
2447565	PROB	n/a	LTP301	ltpFR2	10	n/a	n/a	n/a	19	13	1	3	9
2450818	PROB	n/a	LTP301	ltpFR2	10	n/a	n/a	n/a	19	19	5	6	8
2453010	STOP	n/a	LTP301	ltpFR2	10	n/a	n/a	n/a	19	n/a	n/a	n/a	n/a
2455008	REC_START	n/a	LTP301	ltpFR2	10	12	n/a	n/a	n/a	n/a	0	0	0
2457032	REC_WORD	wordpools/wasnorm_wordpool_576.txt	LTP301	ltpFR2	10	12	SERVANT	1271	n/a	n/a	0	0	0
2458569	REC_WORD	wordpools/wasnorm_wordpool_576.txt	LTP301	ltpFR2	10	12	ROBIN	1199	n/a	n/a	0	0	0
2469201	REC_WORD	wordpools/wasnorm_wordpool_576.txt	LTP301	ltpFR2	10	12	SHEPHERD	1283	n/a	n/a	0	0	0
2512680	REC_WORD_VV	wordpools/wasnorm_wordpool_576.txt	LTP301	ltpFR2	10	12	<>	-1	n/a	n/a	0	0	0
2527153	REC_WORD	wordpools/wasnorm_wordpool_576.txt	LTP301	ltpFR2	10	12	CHICKEN	297	n/a	n/a	0	0	0
2545445	WORD	wordpools/wasnorm_wordpool_576.txt	LTP301	ltpFR2	10	13	SHORTS	1293	n/a	n/a	0	0	0
2547997	WORD	wordpools/wasnorm_wordpool_576.txt	LTP301	ltpFR2	10	13	GRIZZLY	662	n/a	n/a	0	0	0
2550582	WORD	wordpools/wasnorm_wordpool_576.txt	LTP301	ltpFR2	10	13	STATUE	1374	n/a	n/a	0	0	0
2553125	WORD	wordpools/wasnorm_wordpool_576.txt	LTP301	ltpFR2	10	13	CHIPMUNK	304	n/a	n/a	0	0	0
2555620	WORD	wordpools/wasnorm_wordpool_576.txt	LTP301	ltpFR2	10	13	CASHIER	254	n/a	n/a	0	0	0
2558062	WORD	wordpools/wasnorm_wordpool_576.txt	LTP301	ltpFR2	10	13	RATTLE	1170	n/a	n/a	0	0	0
2560507	WORD	wordpools/wasnorm_wordpool_576.txt	LTP301	ltpFR2	10	13	CHAMPAGNE	278	n/a	n/a	0	0	0
2563301	WORD	wordpools/wasnorm_wordpool_576.txt	LTP301	ltpFR2	10	13	GRAPE	654	n/a	n/a	0	0	0
2566087	WORD	wordpools/wasnorm_wordpool_576.txt	LTP301	ltpFR2	10	13	CITRUS	313	n/a	n/a	0	0	0
2568539	WORD	wordpools/wasnorm_wordpool_576.txt	LTP301	ltpFR2	10	13	LEG	809	n/a	n/a	0	0	0
2571341	WORD	wordpools/wasnorm_wordpool_576.txt	LTP301	ltpFR2	10	13	APPLE	33	n/a	n/a	0	0	0
2574093	WORD	wordpools/wasnorm_wordpool_576.txt	LTP301	ltpFR2	10	13	PLAID	1080	n/a	n/a	0	0	0
2576520	WORD	wordpools/wasnorm_wordpool_576.txt	LTP301	ltpFR2	10	13	OX	994	n/a	n/a	0	0	0
2578998	WORD	wordpools/wasnorm_wordpool_576.txt	LTP301	ltpFR2	10	13	PICTURE	1061	n/a	n/a	0	0	0
2581666	WORD	wordpools/wasnorm_wordpool_576.txt	LTP301	ltpFR2	10	13	SHIRT	1287	n/a	n/a	0	0	0
2584386	WORD	wordpools/wasnorm_wordpool_576.txt	LTP301	ltpFR2	10	13	CROSS	413	n/a	n/a	0	0	0
2587011	WORD	wordpools/wasnorm_wordpool_576.txt	LTP301	ltpFR2	10	13	CHAPEL	280	n/a	n/a	0	0	0
2589663	WORD	wordpools/wasnorm_wordpool_576.txt	LTP301	ltpFR2	10	13	AGENT	10	n/a	n/a	0	0	0
2592316	WORD	wordpools/wasnorm_wordpool_576.txt	LTP301	ltpFR2	10	13	CONTRACT	368	n/a	n/a	0	0	0
2594996	WORD	wordpools/wasnorm_wordpool_576.txt	LTP301	ltpFR2	10	13	PRINCE	1124	n/a	n/a	0	0	0
2597814	WORD	wordpools/wasnorm_wordpool_576.txt	LTP301	ltpFR2	10	13	THRONE	1461	n/a	n/a	0	0	0
2600423	WORD	wordpools/wasnorm_wordpool_576.txt	LTP301	ltpFR2	10	13	CHEMIST	292	n/a	n/a	0	0	0
2603002	WORD	wordpools/wasnorm_wordpool_576.txt	LTP301	ltpFR2	10	13	BROOK	177	n/a	n/a	0	0	0
2605686	WORD	wordpools/wasnorm_wordpool_576.txt	LTP301	ltpFR2	10	13	PRINCESS	1125	n/a	n/a	0	0	0
2607290	START	n/a	LTP301	ltpFR2	10	n/a	n/a	n/a	20	n/a	n/a	n/a	n/a
2608358	DISTRACTOR	n/a	LTP301	ltpFR2	10	13	n/a	n/a	n/a	n/a	0	0	0
2608362	PROB	n/a	LTP301	ltpFR2	10	n/a	n/a	n/a	20	5	3	1	1
2610263	PROB	n/a	LTP301	ltpFR2	10	n/a	n/a	n/a	20	19	5	4	9
2613116	PROB	n/a	LTP301	ltpFR2	10	n/a	n/a	n/a	20	27	9	9	9
2615301	PROB	n/a	LTP301	ltpFR2	10	n/a	n/a	n/a	20	20	9	4	7
2617987	PROB	n/a	LTP301	ltpFR2	10	n/a	n/a	n/a	20	18	8	7	3
2621523	PROB	n/a	LTP301	ltpFR2	10	n/a	n/a	n/a	20	14	3	9	2
2623908	PROB	n/a	LTP301	ltpFR2	10	n/a	n/a	n/a	20	18	7	6	5
2627908	PROB	n/a	LTP301	ltpFR2	10	n/a	n/a	n/a	20	4	1	2	1
2629785	STOP	n/a	LTP301	ltpFR2	10	n/a	n/a	n/a	20	n/a	n/a	n/a	n/a
2633067	REC_START	n/a	LTP301	ltpFR2	10	13	n/a	n/a	n/a	n/a	0	0	0
2634256	REC_WORD	wordpools/wasnorm_wordpool_576.txt	LTP301	ltpFR2	10	13	PRINCE	1124	n/a	n/a	0	0	0
2635867	REC_WORD	wordpools/wasnorm_wordpool_576.txt	LTP301	ltpFR2	10	13	THRONE	1461	n/a	n/a	0	0	0
2637615	REC_WORD	wordpools/wasnorm_wordpool_576.txt	LTP301	ltpFR2	10	13	CHAMPAGNE	278	n/a	n/a	0	0	0
2644505	REC_WORD	wordpools/wasnorm_wordpool_576.txt	LTP301	ltpFR2	10	13	CHIPMUNK	304	n/a	n/a	0	0	0
2658395	REC_WORD	wordpools/wasnorm_wordpool_576.txt	LTP301	ltpFR2	10	13	CASHIER	254	n/a	n/a	0	0	0
2681337	REC_WORD	wordpools/wasnorm_wordpool_576.txt	LTP301	ltpFR2	10	13	VAGRANT	1544	n/a	n/a	0	0	0
2691406	REC_WORD	wordpools/wasnorm_wordpool_576.txt	LTP301	ltpFR2	10	13	THRONE	1461	n/a	n/a	0	0	0
2723490	DISTRACTOR	n/a	LTP301	ltpFR2	10	14	n/a	n/a	n/a	n/a	0	0	0
2723491	START	n/a	LTP301	ltpFR2	10	n/a	n/a	n/a	21	n/a	n/a	n/a	n/a
2723505	PROB	n/a	LTP301	ltpFR2	10	n/a	n/a	n/a	21	13	7	3	3
2725788	PROB	n/a	LTP301	ltpFR2	10	n/a	n/a	n/a	21	24	8	8	8
2728057	PROB	n/a	LTP301	ltpFR2	10	n/a	n/a	n/a	21	11	5	5	1
2729842	PROB	n/a	LTP301	ltpFR2	10	n/a	n/a	n/a	21	12	6	3	3
2731478	PROB	n/a	LTP301	ltpFR2	10	n/a	n/a	n/a	21	25	9	9	7
2734096	PROB	n/a	LTP301	ltpFR2	10	n/a	n/a	n/a	21	15	9	2	4
2736447	PROB	n/a	LTP301	ltpFR2	10	n/a	n/a	n/a	21	15	1	6	8
2738816	PROB	n/a	LTP301	ltpFR2	10	n/a	n/a	n/a	21	11	3	1	7
2741000	PROB	n/a	LTP301	ltpFR2	10	n/a	n/a	n/a	21	23	9	7	7
2743686	PROB	n/a	LTP301	ltpFR2	10	n/a	n/a	n/a	21	12	2	5	5
2745088	PROB	n/a	LTP301	ltpFR2	10	n/a	n/a	n/a	21	16	8	7	1
2746798	STOP	n/a	LTP301	ltpFR2	10	n/a	n/a	n/a	21	n/a	n/a	n/a	n/a
2748624	WORD	wordpools/wasnorm_wordpool_576.txt	LTP301	ltpFR2	10	14	BATHTUB	100	n/a	n/a	0	0	0
2751348	WORD	wordpools/wasnorm_wordpool_576.txt	LTP301	ltpFR2	10	14	GLOBE	641	n/a	n/a	0	0	0
2754045	WORD	wordpools/wasnorm_wordpool_576.txt	LTP301	ltpFR2	10	14	RABBIT	1152	n/a	n/a	0	0	0
2756631	WORD	wordpools/wasnorm_wordpool_576.txt	LTP301	ltpFR2	10	14	VIRUS	1572	n/a	n/a	0	0	0
2759316	WORD	wordpools/wasnorm_wordpool_576.txt	LTP301	ltpFR2	10	14	RUST	1219	n/a	n/a	0	0	0
2762024	WORD	wordpools/wasnorm_wordpool_576.txt	LTP301	ltpFR2	10	14	SHERIFF	1284	n/a	n/a	0	0	0
2764560	WORD	wordpools/wasnorm_wordpool_576.txt	LTP301	ltpFR2	10	14	PORTRAIT	1111	n/a	n/a	0	0	0
2767307	WORD	wordpools/wasnorm_wordpool_576.txt	LTP301	ltpFR2	10	14	CARRIAGE	248	n/a	n/a	0	0	0
2769814	WORD	wordpools/wasnorm_wordpool_576.txt	LTP301	ltpFR2	10	14	PARENT	1013	n/a	n/a	0	0	0
2772544	WORD	wordpools/wasnorm_wordpool_576.txt	LTP301	ltpFR2	10	14	BANK	83	n/a	n/a	0	0	0
2775296	WORD	wordpools/wasnorm_wordpool_576.txt	LTP301	ltpFR2	10	14	JURY	766	n/a	n/a	0	0	0
2778048	WORD	wordpools/wasnorm_wordpool_576.txt	LTP301	ltpFR2	10	14	TRUCK	1512	n/a	n/a	0	0	0
2780466	WORD	wordpools/wasnorm_wordpool_576.txt	LTP301	ltpFR2	10	14	STALLION	1369	n/a	n/a	0	0	0
2783185	WORD	wordpools/wasnorm_wordpool_576.txt	LTP301	ltpFR2	10	14	STAR	1373	n/a	n/a	0	0	0
2785720	WORD	wordpools/wasnorm_wordpool_576.txt	LTP301	ltpFR2	10	14	FIDDLE	561	n/a	n/a	0	0	0
2788156	WORD	wordpools/wasnorm_wordpool_576.txt	LTP301	ltpFR2	10	14	PEBBLE	1035	n/a	n/a	0	0	0
2790925	WORD	wordpools/wasnorm_wordpool_576.txt	LTP301	ltpFR2	10	14	KIDNEY	776	n/a	n/a	0	0	0
2793686	WORD	wordpools/wasnorm_wordpool_576.txt	LTP301	ltpFR2	10	14	STAKE	1368	n/a	n/a	0	0	0
2796313	WORD	wordpools/wasnorm_wordpool_576.txt	LTP301	ltpFR2	10	14	LASER	801	n/a	n/a	0	0	0
2798756	WORD	wordpools/wasnorm_wordpool_576.txt	LTP301	ltpFR2	10	14	LAMP	798	n/a	n/a	0	0	0
2801275	WORD	wordpools/wasnorm_wordpool_576.txt	LTP301	ltpFR2	10	14	QUAIL	1147	n/a	n/a	0	0	0
2803793	WORD	wordpools/wasnorm_wordpool_576.txt	LTP301	ltpFR2	10	14	PLUTO	1092	n/a	n/a	0	0	0
2806596	WORD	wordpools/wasnorm_wordpool_576.txt	LTP301	ltpFR2	10	14	WORKER	1621	n/a	n/a	0	0	0
2809232	WORD	wordpools/wasnorm_wordpool_576.txt	LTP301	ltpFR2	10	14	LADY	794	n/a	n/a	0	0	0
2810842	START	n/a	LTP301	ltpFR2	10	n/a	n/a	n/a	22	n/a	n/a	n/a	n/a
2811950	DISTRACTOR	n/a	LTP301	ltpFR2	10	14	n/a	n/a	n/a	n/a	0	0	0
2811959	PROB	n/a	LTP301	ltpFR2	10	n/a	n/a	n/a	22	17	4	4	9
2815693	PROB	n/a	LTP301	ltpFR2	10	n/a	n/a	n/a	22	14	3	3	8
2817694	PROB	n/a	LTP301	ltpFR2	10	n/a	n/a	n/a	22	13	6	4	3
2819364	PROB	n/a	LTP301	ltpFR2	10	n/a	n/a	n/a	22	17	8	7	2
2822800	PROB	n/a	LTP301	ltpFR2	10	n/a	n/a	n/a	22	16	3	9	4
2829139	PROB	n/a	LTP301	ltpFR2	10	n/a	n/a	n/a	22	10	3	5	2
2832023	PROB	n/a	LTP301	ltpFR2	10	n/a	n/a	n/a	22	23	5	9	9
2834497	STOP	n/a	LTP301	ltpFR2	10	n/a	n/a	n/a	22	n/a	n/a	n/a	n/a
2836644	REC_START	n/a	LTP301	ltpFR2	10	14	n/a	n/a	n/a	n/a	0	0	0
2837191	REC_WORD	wordpools/wasnorm_wordpool_576.txt	LTP301	ltpFR2	10	14	QUAIL	1147	n/a	n/a	0	0	0
2838731	REC_WORD	wordpools/wasnorm_wordpool_576.txt	LTP301	ltpFR2	10	14	WORKER	1621	n/a	n/a	0	0	0
2839555	REC_WORD	wordpools/wasnorm_wordpool_576.txt	LTP301	ltpFR2	10	14	KIDNEY	776	n/a	n/a	0	0	0
2840645	REC_WORD	wordpools/wasnorm_wordpool_576.txt	LTP301	ltpFR2	10	14	PARENT	1013	n/a	n/a	0	0	0
2864933	REC_WORD	wordpools/wasnorm_wordpool_576.txt	LTP301	ltpFR2	10	14	BANK	83	n/a	n/a	0	0	0
2875575	REC_WORD	wordpools/wasnorm_wordpool_576.txt	LTP301	ltpFR2	10	14	ROBBER	1197	n/a	n/a	0	0	0
2946650	WORD	wordpools/wasnorm_wordpool_576.txt	LTP301	ltpFR2	10	15	SUBWAY	1400	n/a	n/a	0	0	0
2949135	WORD	wordpools/wasnorm_wordpool_576.txt	LTP301	ltpFR2	10	15	WAGON	1578	n/a	n/a	0	0	0
2951554	WORD	wordpools/wasnorm_wordpool_576.txt	LTP301	ltpFR2	10	15	HEADBAND	696	n/a	n/a	0	0	0
2954274	WORD	wordpools/wasnorm_wordpool_576.txt	LTP301	ltpFR2	10	15	SLIDE	1326	n/a	n/a	0	0	0
2957026	WORD	wordpools/wasnorm_wordpool_576.txt	LTP301	ltpFR2	10	15	SADDLE	1221	n/a	n/a	0	0	0
2959813	WORD	wordpools/wasnorm_wordpool_576.txt	LTP301	ltpFR2	10	15	OYSTER	995	n/a	n/a	0	0	0
2962530	WORD	wordpools/wasnorm_wordpool_576.txt	LTP301	ltpFR2	10	15	SCOTCH	1251	n/a	n/a	0	0	0
2965134	WORD	wordpools/wasnorm_wordpool_576.txt	LTP301	ltpFR2	10	15	DRINK	498	n/a	n/a	0	0	0
2967667	WORD	wordpools/wasnorm_wordpool_576.txt	LTP301	ltpFR2	10	15	SIBLING	1301	n/a	n/a	0	0	0
2970169	WORD	wordpools/wasnorm_wordpool_576.txt	LTP301	ltpFR2	10	15	PAIL	1002	n/a	n/a	0	0	0
2972838	WORD	wordpools/wasnorm_wordpool_576.txt	LTP301	ltpFR2	10	15	FOX	598	n/a	n/a	0	0	0
2975477	WORD	wordpools/wasnorm_wordpool_576.txt	LTP301	ltpFR2	10	15	ONION	977	n/a	n/a	0	0	0
2977992	WORD	wordpools/wasnorm_wordpool_576.txt	LTP301	ltpFR2	10	15	MILDEW	893	n/a	n/a	0	0	0
2980511	WORD	wordpools/wasnorm_wordpool_576.txt	LTP301	ltpFR2	10	15	OFFICE	972	n/a	n/a	0	0	0
2983230	WORD	wordpools/wasnorm_wordpool_576.txt	LTP301	ltpFR2	10	15	NEUTRON	947	n/a	n/a	0	0	0
2986020	WORD	wordpools/wasnorm_wordpool_576.txt	LTP301	ltpFR2	10	15	RIFLE	1192	n/a	n/a	0	0	0
2988822	WORD	wordpools/wasnorm_wordpool_576.txt	LTP301	ltpFR2	10	15	RELISH	1183	n/a	n/a	0	0	0
2991503	WORD	wordpools/wasnorm_wordpool_576.txt	LTP301	ltpFR2	10	15	COURSE	390	n/a	n/a	0	0	0
2994289	WORD	wordpools/wasnorm_wordpool_576.txt	LTP301	ltpFR2	10	15	HERO	706	n/a	n/a	0	0	0
2997041	WORD	wordpools/wasnorm_wordpool_576.txt	LTP301	ltpFR2	10	15	TILE	1468	n/a	n/a	0	0	0
2999747	WORD	wordpools/wasnorm_wordpool_576.txt	LTP301	ltpFR2	10	15	BLACKBOARD	133	n/a	n/a	0	0	0
3002378	WORD	wordpools/wasnorm_wordpool_576.txt	LTP301	ltpFR2	10	15	ATOM	55	n/a	n/a	0	0	0
3005031	WORD	wordpools/wasnorm_wordpool_576.txt	LTP301	ltpFR2	10	15	STAMP	1370	n/a	n/a	0	0	0
3007622	WORD	wordpools/wasnorm_wordpool_576.txt	LTP301	ltpFR2	10	15	SEAFOOD	1260	n/a	n/a	0	0	0
3009234	START	n/a	LTP301	ltpFR2	10	n/a	n/a	n/a	23	n/a	n/a	n/a	n/a
3010417	DISTRACTOR	n/a	LTP301	ltpFR2	10	15	n/a	n/a	n/a	n/a	0	0	0
3010424	PROB	n/a	LTP301	ltpFR2	10	n/a	n/a	n/a	23	16	7	2	7
3012286	PROB	n/a	LTP301	ltpFR2	10	n/a	n/a	n/a	23	15	2	8	5
3014655	PROB	n/a	LTP301	ltpFR2	10	n/a	n/a	n/a	23	12	1	4	7
3016389	PROB	n/a	LTP301	ltpFR2	10	n/a	n/a	n/a	23	9	3	3	3
3017890	PROB	n/a	LTP301	ltpFR2	10	n/a	n/a	n/a	23	20	9	4	7
3021243	PROB	n/a	LTP301	ltpFR2	10	n/a	n/a	n/a	23	25	9	9	7
3023445	PROB	n/a	LTP301	ltpFR2	10	n/a	n/a	n/a	23	14	3	9	2
3025415	PROB	n/a	LTP301	ltpFR2	10	n/a	n/a	n/a	23	22	8	9	4
3029048	PROB	n/a	LTP301	ltpFR2	10	n/a	n/a	n/a	23	8	2	2	6
3033234	STOP	n/a	LTP301	ltpFR2	10	n/a	n/a	n/a	23	n/a	n/a	n/a	n/a
3035056	REC_START	n/a	LTP301	ltpFR2	10	15	n/a	n/a	n/a	n/a	0	0	0
3036352	REC_WORD	wordpools/wasnorm_wordpool_576.txt	LTP301	ltpFR2	10	15	CLAM	315	n/a	n/a	0	0	0
3037811	REC_WORD	wordpools/wasnorm_wordpool_576.txt	LTP301	ltpFR2	10	15	OYSTER	995	n/a	n/a	0	0	0
3039280	REC_WORD	wordpools/wasnorm_wordpool_576.txt	LTP301	ltpFR2	10	15	TILE	1468	n/a	n/a	0	0	0
3044900	REC_WORD	wordpools/wasnorm_wordpool_576.txt	LTP301	ltpFR2	10	15	SEAFOOD	1260	n/a	n/a	0	0	0
3051278	REC_WORD	wordpools/wasnorm_wordpool_576.txt	LTP301	ltpFR2	10	15	PAIL	1002	n/a	n/a	0	0	0
3095096	REC_WORD	wordpools/wasnorm_wordpool_576.txt	LTP301	ltpFR2	10	15	LAVA	804	n/a	n/a	0	0	0
3125477	DISTRACTOR	n/a	LTP301	ltpFR2	10	16	n/a	n/a	n/a	n/a	0	0	0
3125477	START	n/a	LTP301	ltpFR2	10	n/a	n/a	n/a	24	n/a	n/a	n/a	n/a
3125493	PROB	n/a	LTP301	ltpFR2	10	n/a	n/a	n/a	24	14	3	7	4
3127708	PROB	n/a	LTP301	ltpFR2	10	n/a	n/a	n/a	24	16	9	1	6
3131381	PROB	n/a	LTP301	ltpFR2	10	n/a	n/a	n/a	24	13	2	4	7
3133866	PROB	n/a	LTP301	ltpFR2	10	n/a	n/a	n/a	24	19	8	6	5
3136285	PROB	n/a	LTP301	ltpFR2	10	n/a	n/a	n/a	24	15	1	9	5
3138001	PROB	n/a	LTP301	ltpFR2	10	n/a	n/a	n/a	24	17	5	7	5
3139903	PROB	n/a	LTP301	ltpFR2	10	n/a	n/a	n/a	24	10	4	5	1
3142173	PROB	n/a	LTP301	ltpFR2	10	n/a	n/a	n/a	24	15	1	5	7
3144525	PROB	n/a	LTP301	ltpFR2	10	n/a	n/a	n/a	24	18	4	7	7
3146707	PROB	n/a	LTP301	ltpFR2	10	n/a	n/a	n/a	24	19	8	8	3
3148526	STOP	n/a	LTP301	ltpFR2	10	n/a	n/a	n/a	24	n/a	n/a	n/a	n/a
3150347	WORD	wordpools/wasnorm_wordpool_576.txt	LTP301	ltpFR2	10	16	COBRA	336	n/a	n/a	0	0	0
3153133	WORD	wordpools/wasnorm_wordpool_576.txt	LTP301	ltpFR2	10	16	SWAMP	1416	n/a	n/a	0	0	0
3155918	WORD	wordpools/wasnorm_wordpool_576.txt	LTP301	ltpFR2	10	16	CATTLE	261	n/a	n/a	0	0	0
3158637	WORD	wordpools/wasnorm_wordpool_576.txt	LTP301	ltpFR2	10	16	AUTHOR	61	n/a	n/a	0	0	0
3161122	WORD	wordpools/wasnorm_wordpool_576.txt	LTP301	ltpFR2	10	16	GLOVE	642	n/a	n/a	0	0	0
3163723	WORD	wordpools/wasnorm_wordpool_576.txt	LTP301	ltpFR2	10	16	PISTOL	1075	n/a	n/a	0	0	0
3166477	WORD	wordpools/wasnorm_wordpool_576.txt	LTP301	ltpFR2	10	16	TOURIST	1488	n/a	n/a	0	0	0
3169063	WORD	wordpools/wasnorm_wordpool_576.txt	LTP301	ltpFR2	10	16	ROBOT	1200	n/a	n/a	0	0	0
3171765	WORD	wordpools/wasnorm_wordpool_576.txt	LTP301	ltpFR2	10	16	FLASK	576	n/a	n/a	0	0	0
3174417	WORD	wordpools/wasnorm_wordpool_576.txt	LTP301	ltpFR2	10	16	WAITRESS	1581	n/a	n/a	0	0	0
3177219	WORD	wordpools/wasnorm_wordpool_576.txt	LTP301	ltpFR2	10	16	SKILLET	1317	n/a	n/a	0	0	0
3179687	WORD	wordpools/wasnorm_wordpool_576.txt	LTP301	ltpFR2	10	16	GALLON	618	n/a	n/a	0	0	0
3182306	WORD	wordpools/wasnorm_wordpool_576.txt	LTP301	ltpFR2	10	16	TUBA	1515	n/a	n/a	0	0	0
3184859	WORD	wordpools/wasnorm_wordpool_576.txt	LTP301	ltpFR2	10	16	STAPLE	1371	n/a	n/a	0	0	0
3187577	WORD	wordpools/wasnorm_wordpool_576.txt	LTP301	ltpFR2	10	16	FINGER	567	n/a	n/a	0	0	0
3190163	WORD	wordpools/wasnorm_wordpool_576.txt	LTP301	ltpFR2	10	16	DOLPHIN	483	n/a	n/a	0	0	0
3192848	WORD	wordpools/wasnorm_wordpool_576.txt	LTP301	ltpFR2	10	16	GAZELLE	628	n/a	n/a	0	0	0
3195416	WORD	wordpools/wasnorm_wordpool_576.txt	LTP301	ltpFR2	10	16	BEAVER	109	n/a	n/a	0	0	0
3198085	WORD	wordpools/wasnorm_wordpool_576.txt	LTP301	ltpFR2	10	16	HORSE	719	n/a	n/a	0	0	0
3200641	WORD	wordpools/wasnorm_wordpool_576.txt	LTP301	ltpFR2	10	16	BOUQUET	157	n/a	n/a	0	0	0
3203089	WORD	wordpools/wasnorm_wordpool_576.txt	LTP301	ltpFR2	10	16	WORLD	1622	n/a	n/a	0	0	0
3205676	WORD	wordpools/wasnorm_wordpool_576.txt	LTP301	ltpFR2	10	16	ATLAS	53	n/a	n/a	0	0	0
3208461	WORD	wordpools/wasnorm_wordpool_576.txt	LTP301	ltpFR2	10	16	WHISTLE	1606	n/a	n/a	0	0	0
3211230	WORD	wordpools/wasnorm_wordpool_576.txt	LTP301	ltpFR2	10	16	PIMPLE	1071	n/a	n/a	0	0	0
3212835	START	n/a	LTP301	ltpFR2	10	n/a	n/a	n/a	25	n/a	n/a	n/a	n/a
3213712	DISTRACTOR	n/a	LTP301	ltpFR2	10	16	n/a	n/a	n/a	n/a	0	0	0
3213717	PROB	n/a	LTP301	ltpFR2	10	n/a	n/a	n/a	25	14	6	1	7
3216082	PROB	n/a	LTP301	ltpFR2	10	n/a	n/a	n/a	25	14	2	6	6
3217850	PROB	n/a	LTP301	ltpFR2	10	n/a	n/a	n/a	25	15	1	7	7
3220469	PROB	n/a	LTP301	ltpFR2	10	n/a	n/a	n/a	25	15	7	1	7
3221887	PROB	n/a	LTP301	ltpFR2	10	n/a	n/a	n/a	25	18	6	9	3
3224456	PROB	n/a	LTP301	ltpFR2	10	n/a	n/a	n/a	25	18	5	6	7
3226624	PROB	n/a	LTP301	ltpFR2	10	n/a	n/a	n/a	25	14	6	5	3
3228593	PROB	n/a	LTP301	ltpFR2	10	n/a	n/a	n/a	25	9	1	2	7
3231929	PROB	n/a	LTP301	ltpFR2	10	n/a	n/a	n/a	25	7	2	2	3
3236835	STOP	n/a	LTP301	ltpFR2	10	n/a	n/a	n/a	25	n/a	n/a	n/a	n/a
3238567	REC_START	n/a	LTP301	ltpFR2	10	16	n/a	n/a	n/a	n/a	0	0	0
3240447	REC_WORD	wordpools/wasnorm_wordpool_576.txt	LTP301	ltpFR2	10	16	WAITRESS	1581	n/a	n/a	0	0	0
3241566	REC_WORD	wordpools/wasnorm_wordpool_576.txt	LTP301	ltpFR2	10	16	PIMPLE	1071	n/a	n/a	0	0	0
3243184	REC_WORD	wordpools/wasnorm_wordpool_576.txt	LTP301	ltpFR2	10	16	PITCHER	-1	n/a	n/a	0	0	0
3264608	REC_WORD	wordpools/wasnorm_wordpool_576.txt	LTP301	ltpFR2	10	16	CATTLE	261	n/a	n/a	0	0	0
3287035	REC_WORD	wordpools/wasnorm_wordpool_576.txt	LTP301	ltpFR2	10	16	ATOM	55	n/a	n/a	0	0	0
3288342	REC_WORD	wordpools/wasnorm_wordpool_576.txt	LTP301	ltpFR2	10	16	NEUTRON	947	n/a	n/a	0	0	0
3300978	REC_WORD	wordpools/wasnorm_wordpool_576.txt	LTP301	ltpFR2	10	16	JURY	766	n/a	n/a	0	0	0
3315096	REST_REWET	n/a	LTP301	ltpFR2	10	16	n/a	n/a	n/a	n/a	0	0	0
3445216	WORD	wordpools/wasnorm_wordpool_576.txt	LTP301	ltpFR2	10	17	VENUS	1557	n/a	n/a	0	0	0
3448004	WORD	wordpools/wasnorm_wordpool_576.txt	LTP301	ltpFR2	10	17	ACTOR	5	n/a	n/a	0	0	0
3450740	WORD	wordpools/wasnorm_wordpool_576.txt	LTP301	ltpFR2	10	17	COUNTRY	388	n/a	n/a	0	0	0
3453157	WORD	wordpools/wasnorm_wordpool_576.txt	LTP301	ltpFR2	10	17	COUNTY	389	n/a	n/a	0	0	0
3455796	WORD	wordpools/wasnorm_wordpool_576.txt	LTP301	ltpFR2	10	17	LEADER	807	n/a	n/a	0	0	0
3458532	WORD	wordpools/wasnorm_wordpool_576.txt	LTP301	ltpFR2	10	17	TABLET	1427	n/a	n/a	0	0	0
3461297	WORD	wordpools/wasnorm_wordpool_576.txt	LTP301	ltpFR2	10	17	OZONE	996	n/a	n/a	0	0	0
3464036	WORD	wordpools/wasnorm_wordpool_576.txt	LTP301	ltpFR2	10	17	ROCKET	1202	n/a	n/a	0	0	0
3466734	WORD	wordpools/wasnorm_wordpool_576.txt	LTP301	ltpFR2	10	17	JUGGLER	763	n/a	n/a	0	0	0
3469270	WORD	wordpools/wasnorm_wordpool_576.txt	LTP301	ltpFR2	10	17	EUROPE	541	n/a	n/a	0	0	0
3471856	WORD	wordpools/wasnorm_wordpool_576.txt	LTP301	ltpFR2	10	17	MUMMY	932	n/a	n/a	0	0	0
3474274	WORD	wordpools/wasnorm_wordpool_576.txt	LTP301	ltpFR2	10	17	PIANO	1057	n/a	n/a	0	0	0
3476725	WORD	wordpools/wasnorm_wordpool_576.txt	LTP301	ltpFR2	10	17	GREASE	660	n/a	n/a	0	0	0
3479162	WORD	wordpools/wasnorm_wordpool_576.txt	LTP301	ltpFR2	10	17	TWISTER	1530	n/a	n/a	0	0	0
3481746	WORD	wordpools/wasnorm_wordpool_576.txt	LTP301	ltpFR2	10	17	CYCLONE	431	n/a	n/a	0	0	0
3484450	WORD	wordpools/wasnorm_wordpool_576.txt	LTP301	ltpFR2	10	17	SALT	1229	n/a	n/a	0	0	0
3487191	WORD	wordpools/wasnorm_wordpool_576.txt	LTP301	ltpFR2	10	17	SCALLOP	1242	n/a	n/a	0	0	0
3489719	WORD	wordpools/wasnorm_wordpool_576.txt	LTP301	ltpFR2	10	17	SCARECROW	1245	n/a	n/a	0	0	0
3492211	WORD	wordpools/wasnorm_wordpool_576.txt	LTP301	ltpFR2	10	17	OINTMENT	974	n/a	n/a	0	0	0
3494896	WORD	wordpools/wasnorm_wordpool_576.txt	LTP301	ltpFR2	10	17	HIGHWAY	707	n/a	n/a	0	0	0
3497432	WORD	wordpools/wasnorm_wordpool_576.txt	LTP301	ltpFR2	10	17	MEAT	883	n/a	n/a	0	0	0
3499902	WORD	wordpools/wasnorm_wordpool_576.txt	LTP301	ltpFR2	10	17	KNAPSACK	783	n/a	n/a	0	0	0
3502664	WORD	wordpools/wasnorm_wordpool_576.txt	LTP301	ltpFR2	10	17	CASHEW	253	n/a	n/a	0	0	0
3505216	WORD	wordpools/wasnorm_wordpool_576.txt	LTP301	ltpFR2	10	17	BUTCHER	203	n/a	n/a	0	0	0
3506824	START	n/a	LTP301	ltpFR2	10	n/a	n/a	n/a	26	n/a	n/a	n/a	n/a
3507982	DISTRACTOR	n/a	LTP301	ltpFR2	10	17	n/a	n/a	n/a	n/a	0	0	0
3507991	PROB	n/a	LTP301	ltpFR2	10	n/a	n/a	n/a	26	18	1	8	9
3509986	PROB	n/a	LTP301	ltpFR2	10	n/a	n/a	n/a	26	16	6	1	9
3513022	PROB	n/a	LTP301	ltpFR2	10	n/a	n/a	n/a	26	20	7	9	4
3516224	PROB	n/a	LTP301	ltpFR2	10	n/a	n/a	n/a	26	12	2	7	3
3518159	PROB	n/a	LTP301	ltpFR2	10	n/a	n/a	n/a	26	13	2	9	2
3520543	PROB	n/a	LTP301	ltpFR2	10	n/a	n/a	n/a	26	11	6	1	4
3522561	PROB	n/a	LTP301	ltpFR2	10	n/a	n/a	n/a	26	18	8	2	8
3525264	PROB	n/a	LTP301	ltpFR2	10	n/a	n/a	n/a	26	14	2	9	3
3527717	PROB	n/a	LTP301	ltpFR2	10	n/a	n/a	n/a	26	14	7	6	1
3529670	STOP	n/a	LTP301	ltpFR2	10	n/a	n/a	n/a	26	n/a	n/a	n/a	n/a
3532604	REC_START	n/a	LTP301	ltpFR2	10	17	n/a	n/a	n/a	n/a	0	0	0
3534677	REC_WORD	wordpools/wasnorm_wordpool_576.txt	LTP301	ltpFR2	10	17	BUTCHER	203	n/a	n/a	0	0	0
3536017	REC_WORD	wordpools/wasnorm_wordpool_576.txt	LTP301	ltpFR2	10	17	MEAT	883	n/a	n/a	0	0	0
3537404	REC_WORD	wordpools/wasnorm_wordpool_576.txt	LTP301	ltpFR2	10	17	VENUS	1557	n/a	n/a	0	0	0
3539138	REC_WORD	wordpools/wasnorm_wordpool_576.txt	LTP301	ltpFR2	10	17	OINTMENT	974	n/a	n/a	0	0	0
3577980	REC_WORD	wordpools/wasnorm_wordpool_576.txt	LTP301	ltpFR2	10	17	TABLET	1427	n/a	n/a	0	0	0
3623044	WORD	wordpools/wasnorm_wordpool_576.txt	LTP301	ltpFR2	10	18	SLIME	1327	n/a	n/a	0	0	0
3625727	WORD	wordpools/wasnorm_wordpool_576.txt	LTP301	ltpFR2	10	18	ANKLE	24	n/a	n/a	0	0	0
3628430	WORD	wordpools/wasnorm_wordpool_576.txt	LTP301	ltpFR2	10	18	CABIN	211	n/a	n/a	0	0	0
3631033	WORD	wordpools/wasnorm_wordpool_576.txt	LTP301	ltpFR2	10	18	HAWK	692	n/a	n/a	0	0	0
3633501	WORD	wordpools/wasnorm_wordpool_576.txt	LTP301	ltpFR2	10	18	PEPPER	1047	n/a	n/a	0	0	0
3636087	WORD	wordpools/wasnorm_wordpool_576.txt	LTP301	ltpFR2	10	18	BARLEY	88	n/a	n/a	0	0	0
3638822	WORD	wordpools/wasnorm_wordpool_576.txt	LTP301	ltpFR2	10	18	GOBLIN	645	n/a	n/a	0	0	0
3641508	WORD	wordpools/wasnorm_wordpool_576.txt	LTP301	ltpFR2	10	18	ANTLER	29	n/a	n/a	0	0	0
3644027	WORD	wordpools/wasnorm_wordpool_576.txt	LTP301	ltpFR2	10	18	HELMET	702	n/a	n/a	0	0	0
3646529	WORD	wordpools/wasnorm_wordpool_576.txt	LTP301	ltpFR2	10	18	CLOTHES	327	n/a	n/a	0	0	0
3649248	WORD	wordpools/wasnorm_wordpool_576.txt	LTP301	ltpFR2	10	18	BADGE	68	n/a	n/a	0	0	0
3651850	WORD	wordpools/wasnorm_wordpool_576.txt	LTP301	ltpFR2	10	18	YOLK	1633	n/a	n/a	0	0	0
3654436	WORD	wordpools/wasnorm_wordpool_576.txt	LTP301	ltpFR2	10	18	PEACH	1031	n/a	n/a	0	0	0
3657071	WORD	wordpools/wasnorm_wordpool_576.txt	LTP301	ltpFR2	10	18	ORANGE	980	n/a	n/a	0	0	0
3659657	WORD	wordpools/wasnorm_wordpool_576.txt	LTP301	ltpFR2	10	18	TUNNEL	1519	n/a	n/a	0	0	0
3662392	WORD	wordpools/wasnorm_wordpool_576.txt	LTP301	ltpFR2	10	18	ELBOW	520	n/a	n/a	0	0	0
3665110	WORD	wordpools/wasnorm_wordpool_576.txt	LTP301	ltpFR2	10	18	SPHINX	1349	n/a	n/a	0	0	0
3667746	WORD	wordpools/wasnorm_wordpool_576.txt	LTP301	ltpFR2	10	18	COIN	343	n/a	n/a	0	0	0
3670265	WORD	wordpools/wasnorm_wordpool_576.txt	LTP301	ltpFR2	10	18	WASP	1593	n/a	n/a	0	0	0
3672884	WORD	wordpools/wasnorm_wordpool_576.txt	LTP301	ltpFR2	10	18	BLADE	134	n/a	n/a	0	0	0
3675686	WORD	wordpools/wasnorm_wordpool_576.txt	LTP301	ltpFR2	10	18	SCISSORS	1250	n/a	n/a	0	0	0
3678154	WORD	wordpools/wasnorm_wordpool_576.txt	LTP301	ltpFR2	10	18	EGYPT	519	n/a	n/a	0	0	0
3680673	WORD	wordpools/wasnorm_wordpool_576.txt	LTP301	ltpFR2	10	18	DRAGON	492	n/a	n/a	0	0	0
3683112	WORD	wordpools/wasnorm_wordpool_576.txt	LTP301	ltpFR2	10	18	MUSTARD	935	n/a	n/a	0	0	0
3684726	START	n/a	LTP301	ltpFR2	10	n/a	n/a	n/a	27	n/a	n/a	n/a	n/a
3685887	DISTRACTOR	n/a	LTP301	ltpFR2	10	18	n/a	n/a	n/a	n/a	0	0	0
3685894	PROB	n/a	LTP301	ltpFR2	10	n/a	n/a	n/a	27	12	3	8	1
3688230	PROB	n/a	LTP301	ltpFR2	10	n/a	n/a	n/a	27	8	4	3	1
3691398	PROB	n/a	LTP301	ltpFR2	10	n/a	n/a	n/a	27	10	1	7	2
3693184	PROB	n/a	LTP301	ltpFR2	10	n/a	n/a	n/a	27	12	2	1	9
3694784	PROB	n/a	LTP301	ltpFR2	10	n/a	n/a	n/a	27	17	6	3	8
3697486	PROB	n/a	LTP301	ltpFR2	10	n/a	n/a	n/a	27	12	1	7	4
3699921	PROB	n/a	LTP301	ltpFR2	10	n/a	n/a	n/a	27	17	1	9	7
3703691	PROB	n/a	LTP301	ltpFR2	10	n/a	n/a	n/a	27	5	1	2	2
3705010	PROB	n/a	LTP301	ltpFR2	10	n/a	n/a	n/a	27	16	3	8	4
3707389	STOP	n/a	LTP301	ltpFR2	10	n/a	n/a	n/a	27	n/a	n/a	n/a	n/a
3710597	REC_START	n/a	LTP301	ltpFR2	10	18	n/a	n/a	n/a	n/a	0	0	0
3711164	REC_WORD	wordpools/wasnorm_wordpool_576.txt	LTP301	ltpFR2	10	18	WASP	1593	n/a	n/a	0	0	0
3712462	REC_WORD	wordpools/wasnorm_wordpool_576.txt	LTP301	ltpFR2	10	18	DRAGON	492	n/a	n/a	0	0	0
3720947	REC_WORD	wordpools/wasnorm_wordpool_576.txt	LTP301	ltpFR2	10	18	LEADER	807	n/a	n/a	0	0	0
3733807	REC_WORD	wordpools/wasnorm_wordpool_576.txt	LTP301	ltpFR2	10	18	PEACH	1031	n/a	n/a	0	0	0
3735175	REC_WORD	wordpools/wasnorm_wordpool_576.txt	LTP301	ltpFR2	10	18	ORANGE	980	n/a	n/a	0	0	0
3782083	REC_WORD	wordpools/wasnorm_wordpool_576.txt	LTP301	ltpFR2	10	18	DOCTOR	478	n/a	n/a	0	0	0
3801014	DISTRACTOR	n/a	LTP301	ltpFR2	10	19	n/a	n/a	n/a	n/a	0	0	0
3801014	START	n/a	LTP301	ltpFR2	10	n/a	n/a	n/a	28	n/a	n/a	n/a	n/a
3801031	PROB	n/a	LTP301	ltpFR2	10	n/a	n/a	n/a	28	16	3	5	8
3803421	PROB	n/a	LTP301	ltpFR2	10	n/a	n/a	n/a	28	17	6	2	9
3805740	PROB	n/a	LTP301	ltpFR2	10	n/a	n/a	n/a	28	22	9	5	8
3810944	PROB	n/a	LTP301	ltpFR2	10	n/a	n/a	n/a	28	11	2	4	5
3817748	PROB	n/a	LTP301	ltpFR2	10	n/a	n/a	n/a	28	13	7	5	1
3820302	PROB	n/a	LTP301	ltpFR2	10	n/a	n/a	n/a	28	12	2	4	6
3825014	STOP	n/a	LTP301	ltpFR2	10	n/a	n/a	n/a	28	n/a	n/a	n/a	n/a
3826036	WORD	wordpools/wasnorm_wordpool_576.txt	LTP301	ltpFR2	10	19	SHELF	1280	n/a	n/a	0	0	0
3828488	WORD	wordpools/wasnorm_wordpool_576.txt	LTP301	ltpFR2	10	19	POWDER	1117	n/a	n/a	0	0	0
3831194	WORD	wordpools/wasnorm_wordpool_576.txt	LTP301	ltpFR2	10	19	YACHT	1629	n/a	n/a	0	0	0
3833959	WORD	wordpools/wasnorm_wordpool_576.txt	LTP301	ltpFR2	10	19	LIPSTICK	829	n/a	n/a	0	0	0
3836479	WORD	wordpools/wasnorm_wordpool_576.txt	LTP301	ltpFR2	10	19	EYELASH	546	n/a	n/a	0	0	0
3838997	WORD	wordpools/wasnorm_wordpool_576.txt	LTP301	ltpFR2	10	19	CROWN	415	n/a	n/a	0	0	0
3841615	WORD	wordpools/wasnorm_wordpool_576.txt	LTP301	ltpFR2	10	19	LUGGAGE	847	n/a	n/a	0	0	0
3844352	WORD	wordpools/wasnorm_wordpool_576.txt	LTP301	ltpFR2	10	19	DIME	466	n/a	n/a	0	0	0
3847104	WORD	wordpools/wasnorm_wordpool_576.txt	LTP301	ltpFR2	10	19	POCKET	1093	n/a	n/a	0	0	0
3849906	WORD	wordpools/wasnorm_wordpool_576.txt	LTP301	ltpFR2	10	19	DASHBOARD	441	n/a	n/a	0	0	0
3852442	WORD	wordpools/wasnorm_wordpool_576.txt	LTP301	ltpFR2	10	19	CHAUFFEUR	283	n/a	n/a	0	0	0
3855028	WORD	wordpools/wasnorm_wordpool_576.txt	LTP301	ltpFR2	10	19	PICNIC	1060	n/a	n/a	0	0	0
3857695	WORD	wordpools/wasnorm_wordpool_576.txt	LTP301	ltpFR2	10	19	BISON	131	n/a	n/a	0	0	0
3860284	WORD	wordpools/wasnorm_wordpool_576.txt	LTP301	ltpFR2	10	19	AIRPLANE	12	n/a	n/a	0	0	0
3862752	WORD	wordpools/wasnorm_wordpool_576.txt	LTP301	ltpFR2	10	19	PUPIL	1143	n/a	n/a	0	0	0
3865203	WORD	wordpools/wasnorm_wordpool_576.txt	LTP301	ltpFR2	10	19	STOVE	1388	n/a	n/a	0	0	0
3867989	WORD	wordpools/wasnorm_wordpool_576.txt	LTP301	ltpFR2	10	19	TURKEY	1520	n/a	n/a	0	0	0
3870575	WORD	wordpools/wasnorm_wordpool_576.txt	LTP301	ltpFR2	10	19	SISTER	1312	n/a	n/a	0	0	0
3873176	WORD	wordpools/wasnorm_wordpool_576.txt	LTP301	ltpFR2	10	19	PATIENT	1024	n/a	n/a	0	0	0
3875896	WORD	wordpools/wasnorm_wordpool_576.txt	LTP301	ltpFR2	10	19	PEDAL	1037	n/a	n/a	0	0	0
3878714	WORD	wordpools/wasnorm_wordpool_576.txt	LTP301	ltpFR2	10	19	LEOPARD	812	n/a	n/a	0	0	0
3881335	WORD	wordpools/wasnorm_wordpool_576.txt	LTP301	ltpFR2	10	19	ISLAND	745	n/a	n/a	0	0	0
3883937	WORD	wordpools/wasnorm_wordpool_576.txt	LTP301	ltpFR2	10	19	SALAD	1224	n/a	n/a	0	0	0
3886472	WORD	wordpools/wasnorm_wordpool_576.txt	LTP301	ltpFR2	10	19	SNACK	1331	n/a	n/a	0	0	0
3888090	START	n/a	LTP301	ltpFR2	10	n/a	n/a	n/a	29	n/a	n/a	n/a	n/a
3889153	DISTRACTOR	n/a	LTP301	ltpFR2	10	19	n/a	n/a	n/a	n/a	0	0	0
3889157	PROB	n/a	LTP301	ltpFR2	10	n/a	n/a	n/a	29	16	6	8	2
3891342	PROB	n/a	LTP301	ltpFR2	10	n/a	n/a	n/a	29	15	7	2	6
3897079	PROB	n/a	LTP301	ltpFR2	10	n/a	n/a	n/a	29	11	4	1	6
3901700	PROB	n/a	LTP301	ltpFR2	10	n/a	n/a	n/a	29	18	8	7	3
3904102	PROB	n/a	LTP301	ltpFR2	10	n/a	n/a	n/a	29	17	8	7	2
3905887	PROB	n/a	LTP301	ltpFR2	10	n/a	n/a	n/a	29	24	6	7	9
3909456	PROB	n/a	LTP301	ltpFR2	10	n/a	n/a	n/a	29	13	5	7	1
3911821	STOP	n/a	LTP301	ltpFR2	10	n/a	n/a	n/a	29	n/a	n/a	n/a	n/a
3913977	REC_START	n/a	LTP301	ltpFR2	10	19	n/a	n/a	n/a	n/a	0	0	0
3916127	REC_WORD	wordpools/wasnorm_wordpool_576.txt	LTP301	ltpFR2	10	19	PATIENT	1024	n/a	n/a	0	0	0
3918207	REC_WORD	wordpools/wasnorm_wordpool_576.txt	LTP301	ltpFR2	10	19	LION	827	n/a	n/a	0	0	0
3922060	REC_WORD	wordpools/wasnorm_wordpool_576.txt	LTP301	ltpFR2	10	19	BLADE	134	n/a	n/a	0	0	0
3923726	REC_WORD	wordpools/wasnorm_wordpool_576.txt	LTP301	ltpFR2	10	19	SCISSORS	1250	n/a	n/a	0	0	0
3951816	REC_WORD	wordpools/wasnorm_wordpool_576.txt	LTP301	ltpFR2	10	19	FIELD	562	n/a	n/a	0	0	0
4004401	DISTRACTOR	n/a	LTP301	ltpFR2	10	20	n/a	n/a	n/a	n/a	0	0	0
4004401	START	n/a	LTP301	ltpFR2	10	n/a	n/a	n/a	30	n/a	n/a	n/a	n/a
4004417	PROB	n/a	LTP301	ltpFR2	10	n/a	n/a	n/a	30	18	7	4	7
4006819	PROB	n/a	LTP301	ltpFR2	10	n/a	n/a	n/a	30	20	6	8	6
4008702	PROB	n/a	LTP301	ltpFR2	10	n/a	n/a	n/a	30	10	5	3	2
4010337	PROB	n/a	LTP301	ltpFR2	10	n/a	n/a	n/a	30	8	3	3	2
4013374	PROB	n/a	LTP301	ltpFR2	10	n/a	n/a	n/a	30	17	4	7	6
4015308	PROB	n/a	LTP301	ltpFR2	10	n/a	n/a	n/a	30	12	4	5	3
4019061	PROB	n/a	LTP301	ltpFR2	10	n/a	n/a	n/a	30	15	2	6	9
4022696	PROB	n/a	LTP301	ltpFR2	10	n/a	n/a	n/a	30	12	4	7	1
4024533	PROB	n/a	LTP301	ltpFR2	10	n/a	n/a	n/a	30	13	3	4	6
4028400	STOP	n/a	LTP301	ltpFR2	10	n/a	n/a	n/a	30	n/a	n/a	n/a	n/a
4029571	WORD	wordpools/wasnorm_wordpool_576.txt	LTP301	ltpFR2	10	20	FRIEND	606	n/a	n/a	0	0	0
4032122	WORD	wordpools/wasnorm_wordpool_576.txt	LTP301	ltpFR2	10	20	SURVEY	1414	n/a	n/a	0	0	0
4034885	WORD	wordpools/wasnorm_wordpool_576.txt	LTP301	ltpFR2	10	20	POET	1095	n/a	n/a	0	0	0
4037353	WORD	wordpools/wasnorm_wordpool_576.txt	LTP301	ltpFR2	10	20	EXPERT	543	n/a	n/a	0	0	0
4040039	WORD	wordpools/wasnorm_wordpool_576.txt	LTP301	ltpFR2	10	20	SUNSET	1408	n/a	n/a	0	0	0
4042831	WORD	wordpools/wasnorm_wordpool_576.txt	LTP301	ltpFR2	10	20	HANDBAG	684	n/a	n/a	0	0	0
4045644	WORD	wordpools/wasnorm_wordpool_576.txt	LTP301	ltpFR2	10	20	CRITIC	410	n/a	n/a	0	0	0
4048135	WORD	wordpools/wasnorm_wordpool_576.txt	LTP301	ltpFR2	10	20	CAFE	216	n/a	n/a	0	0	0
4050766	WORD	wordpools/wasnorm_wordpool_576.txt	LTP301	ltpFR2	10	20	TROUT	1511	n/a	n/a	0	0	0
4053518	WORD	wordpools/wasnorm_wordpool_576.txt	LTP301	ltpFR2	10	20	HOOK	715	n/a	n/a	0	0	0
4056220	WORD	wordpools/wasnorm_wordpool_576.txt	LTP301	ltpFR2	10	20	KITCHEN	778	n/a	n/a	0	0	0
4058960	WORD	wordpools/wasnorm_wordpool_576.txt	LTP301	ltpFR2	10	20	PIZZA	1079	n/a	n/a	0	0	0
4061758	WORD	wordpools/wasnorm_wordpool_576.txt	LTP301	ltpFR2	10	20	WRENCH	1625	n/a	n/a	0	0	0
4064477	WORD	wordpools/wasnorm_wordpool_576.txt	LTP301	ltpFR2	10	20	NECKLACE	940	n/a	n/a	0	0	0
4067246	WORD	wordpools/wasnorm_wordpool_576.txt	LTP301	ltpFR2	10	20	SUPPER	1411	n/a	n/a	0	0	0
4069665	WORD	wordpools/wasnorm_wordpool_576.txt	LTP301	ltpFR2	10	20	TYPIST	1532	n/a	n/a	0	0	0
4072417	WORD	wordpools/wasnorm_wordpool_576.txt	LTP301	ltpFR2	10	20	SCRIBBLE	1256	n/a	n/a	0	0	0
4075174	WORD	wordpools/wasnorm_wordpool_576.txt	LTP301	ltpFR2	10	20	SUNRISE	1407	n/a	n/a	0	0	0
4077605	WORD	wordpools/wasnorm_wordpool_576.txt	LTP301	ltpFR2	10	20	MONSTER	912	n/a	n/a	0	0	0
4080124	WORD	wordpools/wasnorm_wordpool_576.txt	LTP301	ltpFR2	10	20	GARBAGE	622	n/a	n/a	0	0	0
4082913	WORD	wordpools/wasnorm_wordpool_576.txt	LTP301	ltpFR2	10	20	DUST	508	n/a	n/a	0	0	0
4085666	WORD	wordpools/wasnorm_wordpool_576.txt	LTP301	ltpFR2	10	20	MARSH	874	n/a	n/a	0	0	0
4088332	WORD	wordpools/wasnorm_wordpool_576.txt	LTP301	ltpFR2	10	20	CLAM	315	n/a	n/a	0	0	0
4090851	WORD	wordpools/wasnorm_wordpool_576.txt	LTP301	ltpFR2	10	20	GRAVEL	659	n/a	n/a	0	0	0
4092454	START	n/a	LTP301	ltpFR2	10	n/a	n/a	n/a	31	n/a	n/a	n/a	n/a
4093272	DISTRACTOR	n/a	LTP301	ltpFR2	10	20	n/a	n/a	n/a	n/a	0	0	0
4093285	PROB	n/a	LTP301	ltpFR2	10	n/a	n/a	n/a	31	24	8	8	8
4095254	PROB	n/a	LTP301	ltpFR2	10	n/a	n/a	n/a	31	10	3	6	1
4097071	PROB	n/a	LTP301	ltpFR2	10	n/a	n/a	n/a	31	21	8	4	9
4099791	PROB	n/a	LTP301	ltpFR2	10	n/a	n/a	n/a	31	25	8	9	8
4102894	PROB	n/a	LTP301	ltpFR2	10	n/a	n/a	n/a	31	14	3	5	6
4105062	PROB	n/a	LTP301	ltpFR2	10	n/a	n/a	n/a	31	21	6	7	6
4106948	PROB	n/a	LTP301	ltpFR2	10	n/a	n/a	n/a	31	21	6	7	8
4111469	PROB	n/a	LTP301	ltpFR2	10	n/a	n/a	n/a	31	18	5	5	8
4113822	PROB	n/a	LTP301	ltpFR2	10	n/a	n/a	n/a	31	9	6	2	1
4115646	STOP	n/a	LTP301	ltpFR2	10	n/a	n/a	n/a	31	n/a	n/a	n/a	n/a
4118343	REC_START	n/a	LTP301	ltpFR2	10	20	n/a	n/a	n/a	n/a	0	0	0
4119344	REC_WORD	wordpools/wasnorm_wordpool_576.txt	LTP301	ltpFR2	10	20	MARSH	874	n/a	n/a	0	0	0
4120477	REC_WORD	wordpools/wasnorm_wordpool_576.txt	LTP301	ltpFR2	10	20	SWAMP	1416	n/a	n/a	0	0	0
4131369	REC_WORD	wordpools/wasnorm_wordpool_576.txt	LTP301	ltpFR2	10	20	FRIEND	606	n/a	n/a	0	0	0
4134229	REC_WORD	wordpools/wasnorm_wordpool_576.txt	LTP301	ltpFR2	10	20	EXPERT	543	n/a	n/a	0	0	0
4135537	REC_WORD	wordpools/wasnorm_wordpool_576.txt	LTP301	ltpFR2	10	20	POET	1095	n/a	n/a	0	0	0
4145581	REC_WORD	wordpools/wasnorm_wordpool_576.txt	LTP301	ltpFR2	10	20	GRAVEL	659	n/a	n/a	0	0	0
4178763	REC_WORD	wordpools/wasnorm_wordpool_576.txt	LTP301	ltpFR2	10	20	HANDBAG	684	n/a	n/a	0	0	0
4181649	REC_WORD	wordpools/wasnorm_wordpool_576.txt	LTP301	ltpFR2	10	20	SUNSET	1408	n/a	n/a	0	0	0
4182521	REC_WORD	wordpools/wasnorm_wordpool_576.txt	LTP301	ltpFR2	10	20	SUNRISE	1407	n/a	n/a	0	0	0
4208779	WORD	wordpools/wasnorm_wordpool_576.txt	LTP301	ltpFR2	10	21	BANKER	84	n/a	n/a	0	0	0
4211221	WORD	wordpools/wasnorm_wordpool_576.txt	LTP301	ltpFR2	10	21	LABEL	790	n/a	n/a	0	0	0
4214002	WORD	wordpools/wasnorm_wordpool_576.txt	LTP301	ltpFR2	10	21	CLAMP	316	n/a	n/a	0	0	0
4216686	WORD	wordpools/wasnorm_wordpool_576.txt	LTP301	ltpFR2	10	21	REPORT	1184	n/a	n/a	0	0	0
4219362	WORD	wordpools/wasnorm_wordpool_576.txt	LTP301	ltpFR2	10	21	PAPER	1011	n/a	n/a	0	0	0
4221991	WORD	wordpools/wasnorm_wordpool_576.txt	LTP301	ltpFR2	10	21	GYMNAST	675	n/a	n/a	0	0	0
4224417	WORD	wordpools/wasnorm_wordpool_576.txt	LTP301	ltpFR2	10	21	FREEZER	604	n/a	n/a	0	0	0
4227118	WORD	wordpools/wasnorm_wordpool_576.txt	LTP301	ltpFR2	10	21	COOKBOOK	373	n/a	n/a	0	0	0
4229697	WORD	wordpools/wasnorm_wordpool_576.txt	LTP301	ltpFR2	10	21	BUGGY	188	n/a	n/a	0	0	0
4232207	WORD	wordpools/wasnorm_wordpool_576.txt	LTP301	ltpFR2	10	21	CLOCK	325	n/a	n/a	0	0	0
4234776	WORD	wordpools/wasnorm_wordpool_576.txt	LTP301	ltpFR2	10	21	MONEY	908	n/a	n/a	0	0	0
4237554	WORD	wordpools/wasnorm_wordpool_576.txt	LTP301	ltpFR2	10	21	ARMY	39	n/a	n/a	0	0	0
4239996	WORD	wordpools/wasnorm_wordpool_576.txt	LTP301	ltpFR2	10	21	TORTOISE	1486	n/a	n/a	0	0	0
4242474	WORD	wordpools/wasnorm_wordpool_576.txt	LTP301	ltpFR2	10	21	LILY	821	n/a	n/a	0	0	0
4245184	WORD	wordpools/wasnorm_wordpool_576.txt	LTP301	ltpFR2	10	21	COOK	372	n/a	n/a	0	0	0
4247912	WORD	wordpools/wasnorm_wordpool_576.txt	LTP301	ltpFR2	10	21	BIKE	125	n/a	n/a	0	0	0
4250681	WORD	wordpools/wasnorm_wordpool_576.txt	LTP301	ltpFR2	10	21	SANDWICH	1232	n/a	n/a	0	0	0
4253125	WORD	wordpools/wasnorm_wordpool_576.txt	LTP301	ltpFR2	10	21	CARROT	249	n/a	n/a	0	0	0
4255709	WORD	wordpools/wasnorm_wordpool_576.txt	LTP301	ltpFR2	10	21	EMPIRE	530	n/a	n/a	0	0	0
4258237	WORD	wordpools/wasnorm_wordpool_576.txt	LTP301	ltpFR2	10	21	PARROT	1015	n/a	n/a	0	0	0
4260889	WORD	wordpools/wasnorm_wordpool_576.txt	LTP301	ltpFR2	10	21	GLASS	639	n/a	n/a	0	0	0
4263408	WORD	wordpools/wasnorm_wordpool_576.txt	LTP301	ltpFR2	10	21	BUG	187	n/a	n/a	0	0	0
4265852	WORD	wordpools/wasnorm_wordpool_576.txt	LTP301	ltpFR2	10	21	DORM	488	n/a	n/a	0	0	0
4268622	WORD	wordpools/wasnorm_wordpool_576.txt	LTP301	ltpFR2	10	21	MOTEL	919	n/a	n/a	0	0	0
4270231	START	n/a	LTP301	ltpFR2	10	n/a	n/a	n/a	32	n/a	n/a	n/a	n/a
4271135	DISTRACTOR	n/a	LTP301	ltpFR2	10	21	n/a	n/a	n/a	n/a	0	0	0
4271140	PROB	n/a	LTP301	ltpFR2	10	n/a	n/a	n/a	32	11	2	5	4
4273916	PROB	n/a	LTP301	ltpFR2	10	n/a	n/a	n/a	32	16	3	5	8
4277234	PROB	n/a	LTP301	ltpFR2	10	n/a	n/a	n/a	32	8	4	2	2
4279787	PROB	n/a	LTP301	ltpFR2	10	n/a	n/a	n/a	32	5	1	3	1
4281305	PROB	n/a	LTP301	ltpFR2	10	n/a	n/a	n/a	32	24	9	6	7
4284225	PROB	n/a	LTP301	ltpFR2	10	n/a	n/a	n/a	32	10	3	5	2
4286260	PROB	n/a	LTP301	ltpFR2	10	n/a	n/a	n/a	32	8	1	6	1
4287643	PROB	n/a	LTP301	ltpFR2	10	n/a	n/a	n/a	32	14	7	6	1
4290346	PROB	n/a	LTP301	ltpFR2	10	n/a	n/a	n/a	32	9	2	3	4
4294231	STOP	n/a	LTP301	ltpFR2	10	n/a	n/a	n/a	32	n/a	n/a	n/a	n/a
4295985	REC_START	n/a	LTP301	ltpFR2	10	21	n/a	n/a	n/a	n/a	0	0	0
4298596	REC_WORD	wordpools/wasnorm_wordpool_576.txt	LTP301	ltpFR2	10	21	CARROT	249	n/a	n/a	0	0	0
4299926	REC_WORD	wordpools/wasnorm_wordpool_576.txt	LTP301	ltpFR2	10	21	GLASS	639	n/a	n/a	0	0	0
4305209	REC_WORD	wordpools/wasnorm_wordpool_576.txt	LTP301	ltpFR2	10	21	TORTOISE	1486	n/a	n/a	0	0	0
4309500	REC_WORD	wordpools/wasnorm_wordpool_576.txt	LTP301	ltpFR2	10	21	FRAME	600	n/a	n/a	0	0	0
4314894	REC_WORD	wordpools/wasnorm_wordpool_576.txt	LTP301	ltpFR2	10	21	LILY	821	n/a	n/a	0	0	0
4386457	DISTRACTOR	n/a	LTP301	ltpFR2	10	22	n/a	n/a	n/a	n/a	0	0	0
4386457	START	n/a	LTP301	ltpFR2	10	n/a	n/a	n/a	33	n/a	n/a	n/a	n/a
4386474	PROB	n/a	LTP301	ltpFR2	10	n/a	n/a	n/a	33	18	9	2	7
4388860	PROB	n/a	LTP301	ltpFR2	10	n/a	n/a	n/a	33	25	7	9	7
4392645	PROB	n/a	LTP301	ltpFR2	10	n/a	n/a	n/a	33	18	7	4	7
4395147	PROB	n/a	LTP301	ltpFR2	10	n/a	n/a	n/a	33	10	2	1	7
4396848	PROB	n/a	LTP301	ltpFR2	10	n/a	n/a	n/a	33	20	6	8	6
4398800	PROB	n/a	LTP301	ltpFR2	10	n/a	n/a	n/a	33	7	4	1	2
4400767	PROB	n/a	LTP301	ltpFR2	10	n/a	n/a	n/a	33	6	4	1	1
4402002	PROB	n/a	LTP301	ltpFR2	10	n/a	n/a	n/a	33	15	5	1	9
4403570	PROB	n/a	LTP301	ltpFR2	10	n/a	n/a	n/a	33	12	3	3	6
4404937	PROB	n/a	LTP301	ltpFR2	10	n/a	n/a	n/a	33	8	2	4	2
4406388	PROB	n/a	LTP301	ltpFR2	10	n/a	n/a	n/a	33	16	7	2	7
4407840	PROB	n/a	LTP301	ltpFR2	10	n/a	n/a	n/a	33	16	7	1	8
4409914	STOP	n/a	LTP301	ltpFR2	10	n/a	n/a	n/a	33	n/a	n/a	n/a	n/a
4411644	WORD	wordpools/wasnorm_wordpool_576.txt	LTP301	ltpFR2	10	22	GIRL	637	n/a	n/a	0	0	0
4414096	WORD	wordpools/wasnorm_wordpool_576.txt	LTP301	ltpFR2	10	22	DOUGHNUT	490	n/a	n/a	0	0	0
4416882	WORD	wordpools/wasnorm_wordpool_576.txt	LTP301	ltpFR2	10	22	CRUTCH	417	n/a	n/a	0	0	0
4419587	WORD	wordpools/wasnorm_wordpool_576.txt	LTP301	ltpFR2	10	22	ROD	1203	n/a	n/a	0	0	0
4422203	WORD	wordpools/wasnorm_wordpool_576.txt	LTP301	ltpFR2	10	22	DANDRUFF	439	n/a	n/a	0	0	0
4424905	WORD	wordpools/wasnorm_wordpool_576.txt	LTP301	ltpFR2	10	22	SCARF	1246	n/a	n/a	0	0	0
4427440	WORD	wordpools/wasnorm_wordpool_576.txt	LTP301	ltpFR2	10	22	CRICKET	408	n/a	n/a	0	0	0
4430196	WORD	wordpools/wasnorm_wordpool_576.txt	LTP301	ltpFR2	10	22	NOTEBOOK	959	n/a	n/a	0	0	0
4432709	WORD	wordpools/wasnorm_wordpool_576.txt	LTP301	ltpFR2	10	22	PUPPY	1144	n/a	n/a	0	0	0
4435230	WORD	wordpools/wasnorm_wordpool_576.txt	LTP301	ltpFR2	10	22	FOOT	590	n/a	n/a	0	0	0
4438015	WORD	wordpools/wasnorm_wordpool_576.txt	LTP301	ltpFR2	10	22	HUMAN	726	n/a	n/a	0	0	0
4440805	WORD	wordpools/wasnorm_wordpool_576.txt	LTP301	ltpFR2	10	22	FIREPLACE	570	n/a	n/a	0	0	0
4443503	WORD	wordpools/wasnorm_wordpool_576.txt	LTP301	ltpFR2	10	22	LUMBER	848	n/a	n/a	0	0	0
4445971	WORD	wordpools/wasnorm_wordpool_576.txt	LTP301	ltpFR2	10	22	MAPLE	866	n/a	n/a	0	0	0
4448541	WORD	wordpools/wasnorm_wordpool_576.txt	LTP301	ltpFR2	10	22	SPIDER	1351	n/a	n/a	0	0	0
4451226	WORD	wordpools/wasnorm_wordpool_576.txt	LTP301	ltpFR2	10	22	MATCH	878	n/a	n/a	0	0	0
4453816	WORD	wordpools/wasnorm_wordpool_576.txt	LTP301	ltpFR2	10	22	FIREMAN	569	n/a	n/a	0	0	0
4456296	WORD	wordpools/wasnorm_wordpool_576.txt	LTP301	ltpFR2	10	22	JELLY	755	n/a	n/a	0	0	0
4458972	WORD	wordpools/wasnorm_wordpool_576.txt	LTP301	ltpFR2	10	22	CABBAGE	210	n/a	n/a	0	0	0
4461656	WORD	wordpools/wasnorm_wordpool_576.txt	LTP301	ltpFR2	10	22	FLEET	578	n/a	n/a	0	0	0
4464276	WORD	wordpools/wasnorm_wordpool_576.txt	LTP301	ltpFR2	10	22	COLONEL	348	n/a	n/a	0	0	0
4466828	WORD	wordpools/wasnorm_wordpool_576.txt	LTP301	ltpFR2	10	22	UMPIRE	1535	n/a	n/a	0	0	0
4469414	WORD	wordpools/wasnorm_wordpool_576.txt	LTP301	ltpFR2	10	22	SHRUB	1299	n/a	n/a	0	0	0
4472082	WORD	wordpools/wasnorm_wordpool_576.txt	LTP301	ltpFR2	10	22	MUFFIN	929	n/a	n/a	0	0	0
4473694	START	n/a	LTP301	ltpFR2	10	n/a	n/a	n/a	34	n/a	n/a	n/a	n/a
4474847	DISTRACTOR	n/a	LTP301	ltpFR2	10	22	n/a	n/a	n/a	n/a	0	0	0
4474851	PROB	n/a	LTP301	ltpFR2	10	n/a	n/a	n/a	34	14	9	4	1
4476846	PROB	n/a	LTP301	ltpFR2	10	n/a	n/a	n/a	34	17	5	6	6
4479030	PROB	n/a	LTP301	ltpFR2	10	n/a	n/a	n/a	34	16	7	7	2
4480681	PROB	n/a	LTP301	ltpFR2	10	n/a	n/a	n/a	34	18	7	3	8
4483184	PROB	n/a	LTP301	ltpFR2	10	n/a	n/a	n/a	34	16	2	5	9
4485569	PROB	n/a	LTP301	ltpFR2	10	n/a	n/a	n/a	34	14	5	3	6
4487855	PROB	n/a	LTP301	ltpFR2	10	n/a	n/a	n/a	34	16	3	5	8
4490089	PROB	n/a	LTP301	ltpFR2	10	n/a	n/a	n/a	34	13	5	4	9
4494477	PROB	n/a	LTP301	ltpFR2	10	n/a	n/a	n/a	34	16	4	4	8
4496405	STOP	n/a	LTP301	ltpFR2	10	n/a	n/a	n/a	34	n/a	n/a	n/a	n/a
4499447	REC_START	n/a	LTP301	ltpFR2	10	22	n/a	n/a	n/a	n/a	0	0	0
4501071	REC_WORD	wordpools/wasnorm_wordpool_576.txt	LTP301	ltpFR2	10	22	CABBAGE	210	n/a	n/a	0	0	0
4502310	REC_WORD	wordpools/wasnorm_wordpool_576.txt	LTP301	ltpFR2	10	22	UMPIRE	1535	n/a	n/a	0	0	0
4503706	REC_WORD	wordpools/wasnorm_wordpool_576.txt	LTP301	ltpFR2	10	22	COLONEL	348	n/a	n/a	0	0	0
4504474	REC_WORD	wordpools/wasnorm_wordpool_576.txt	LTP301	ltpFR2	10	22	FLEET	578	n/a	n/a	0	0	0
4515741	REC_WORD	wordpools/wasnorm_wordpool_576.txt	LTP301	ltpFR2	10	22	BARLEY	88	n/a	n/a	0	0	0
4531363	REC_WORD	wordpools/wasnorm_wordpool_576.txt	LTP301	ltpFR2	10	22	CRICKET	408	n/a	n/a	0	0	0
4542275	REC_WORD	wordpools/wasnorm_wordpool_576.txt	LTP301	ltpFR2	10	22	GIRL	637	n/a	n/a	0	0	0
4589886	WORD	wordpools/wasnorm_wordpool_576.txt	LTP301	ltpFR2	10	23	KETCHUP	771	n/a	n/a	0	0	0
4592405	WORD	wordpools/wasnorm_wordpool_576.txt	LTP301	ltpFR2	10	23	STONE	1385	n/a	n/a	0	0	0
4595039	WORD	wordpools/wasnorm_wordpool_576.txt	LTP301	ltpFR2	10	23	FOREST	593	n/a	n/a	0	0	0
4597826	WORD	wordpools/wasnorm_wordpool_576.txt	LTP301	ltpFR2	10	23	PIGEON	1065	n/a	n/a	0	0	0
4600429	WORD	wordpools/wasnorm_wordpool_576.txt	LTP301	ltpFR2	10	23	SPARROW	1347	n/a	n/a	0	0	0
4603147	WORD	wordpools/wasnorm_wordpool_576.txt	LTP301	ltpFR2	10	23	FARMER	553	n/a	n/a	0	0	0
4605766	WORD	wordpools/wasnorm_wordpool_576.txt	LTP301	ltpFR2	10	23	COFFEE	341	n/a	n/a	0	0	0
4608568	WORD	wordpools/wasnorm_wordpool_576.txt	LTP301	ltpFR2	10	23	ARM	38	n/a	n/a	0	0	0
4611005	WORD	wordpools/wasnorm_wordpool_576.txt	LTP301	ltpFR2	10	23	PLIERS	1089	n/a	n/a	0	0	0
4613439	WORD	wordpools/wasnorm_wordpool_576.txt	LTP301	ltpFR2	10	23	PASTRY	1022	n/a	n/a	0	0	0
4616159	WORD	wordpools/wasnorm_wordpool_576.txt	LTP301	ltpFR2	10	23	BRANDY	169	n/a	n/a	0	0	0
4618627	WORD	wordpools/wasnorm_wordpool_576.txt	LTP301	ltpFR2	10	23	WHISKERS	1605	n/a	n/a	0	0	0
4621178	WORD	wordpools/wasnorm_wordpool_576.txt	LTP301	ltpFR2	10	23	WASHER	1592	n/a	n/a	0	0	0
4623648	WORD	wordpools/wasnorm_wordpool_576.txt	LTP301	ltpFR2	10	23	BALLOON	75	n/a	n/a	0	0	0
4626349	WORD	wordpools/wasnorm_wordpool_576.txt	LTP301	ltpFR2	10	23	SODA	1341	n/a	n/a	0	0	0
4629118	WORD	wordpools/wasnorm_wordpool_576.txt	LTP301	ltpFR2	10	23	SCALPEL	1243	n/a	n/a	0	0	0
4631654	WORD	wordpools/wasnorm_wordpool_576.txt	LTP301	ltpFR2	10	23	KLEENEX	782	n/a	n/a	0	0	0
4634172	WORD	wordpools/wasnorm_wordpool_576.txt	LTP301	ltpFR2	10	23	SNAKE	1333	n/a	n/a	0	0	0
4636742	WORD	wordpools/wasnorm_wordpool_576.txt	LTP301	ltpFR2	10	23	DRILL	497	n/a	n/a	0	0	0
4639260	WORD	wordpools/wasnorm_wordpool_576.txt	LTP301	ltpFR2	10	23	PORK	1108	n/a	n/a	0	0	0
4641879	WORD	wordpools/wasnorm_wordpool_576.txt	LTP301	ltpFR2	10	23	XEROX	1628	n/a	n/a	0	0	0
4644530	WORD	wordpools/wasnorm_wordpool_576.txt	LTP301	ltpFR2	10	23	HOSTESS	723	n/a	n/a	0	0	0
4646966	WORD	wordpools/wasnorm_wordpool_576.txt	LTP301	ltpFR2	10	23	MISSILE	900	n/a	n/a	0	0	0
4649568	WORD	wordpools/wasnorm_wordpool_576.txt	LTP301	ltpFR2	10	23	ICING	732	n/a	n/a	0	0	0
4651173	START	n/a	LTP301	ltpFR2	10	n/a	n/a	n/a	35	n/a	n/a	n/a	n/a
4652147	DISTRACTOR	n/a	LTP301	ltpFR2	10	23	n/a	n/a	n/a	n/a	0	0	0
4652153	PROB	n/a	LTP301	ltpFR2	10	n/a	n/a	n/a	35	11	2	2	7
4654322	PROB	n/a	LTP301	ltpFR2	10	n/a	n/a	n/a	35	11	3	1	7
4656273	PROB	n/a	LTP301	ltpFR2	10	n/a	n/a	n/a	35	14	4	8	2
4657857	PROB	n/a	LTP301	ltpFR2	10	n/a	n/a	n/a	35	1	4	7	4
4660261	PROB	n/a	LTP301	ltpFR2	10	n/a	n/a	n/a	35	13	9	2	2
4663028	PROB	n/a	LTP301	ltpFR2	10	n/a	n/a	n/a	35	25	9	9	7
4664680	PROB	n/a	LTP301	ltpFR2	10	n/a	n/a	n/a	35	15	5	7	2
4667231	PROB	n/a	LTP301	ltpFR2	10	n/a	n/a	n/a	35	16	7	5	3
4669684	PROB	n/a	LTP301	ltpFR2	10	n/a	n/a	n/a	35	19	9	5	5
4671418	PROB	n/a	LTP301	ltpFR2	10	n/a	n/a	n/a	35	18	7	9	3
4675173	STOP	n/a	LTP301	ltpFR2	10	n/a	n/a	n/a	35	n/a	n/a	n/a	n/a
4676924	REC_START	n/a	LTP301	ltpFR2	10	23	n/a	n/a	n/a	n/a	0	0	0
4679933	REC_WORD	wordpools/wasnorm_wordpool_576.txt	LTP301	ltpFR2	10	23	MISSILE	900	n/a	n/a	0	0	0
4689539	REC_WORD	wordpools/wasnorm_wordpool_576.txt	LTP301	ltpFR2	10	23	PORK	1108	n/a	n/a	0	0	0
4695904	REC_WORD	wordpools/wasnorm_wordpool_576.txt	LTP301	ltpFR2	10	23	HOSTESS	723	n/a	n/a	0	0	0
4704909	REC_WORD	wordpools/wasnorm_wordpool_576.txt	LTP301	ltpFR2	10	23	ICING	732	n/a	n/a	0	0	0
4733204	REC_WORD	wordpools/wasnorm_wordpool_576.txt	LTP301	ltpFR2	10	23	LEG	809	n/a	n/a	0	0	0
4767356	WORD	wordpools/wasnorm_wordpool_576.txt	LTP301	ltpFR2	10	24	GANGSTER	620	n/a	n/a	0	0	0
4769876	WORD	wordpools/wasnorm_wordpool_576.txt	LTP301	ltpFR2	10	24	WAITER	1580	n/a	n/a	0	0	0
4772394	WORD	wordpools/wasnorm_wordpool_576.txt	LTP301	ltpFR2	10	24	COCKTAIL	338	n/a	n/a	0	0	0
4775103	WORD	wordpools/wasnorm_wordpool_576.txt	LTP301	ltpFR2	10	24	INFANT	737	n/a	n/a	0	0	0
4777838	WORD	wordpools/wasnorm_wordpool_576.txt	LTP301	ltpFR2	10	24	SEAL	1262	n/a	n/a	0	0	0
4780518	WORD	wordpools/wasnorm_wordpool_576.txt	LTP301	ltpFR2	10	24	CREATURE	403	n/a	n/a	0	0	0
4783175	WORD	wordpools/wasnorm_wordpool_576.txt	LTP301	ltpFR2	10	24	SHOVEL	1295	n/a	n/a	0	0	0
4785722	WORD	wordpools/wasnorm_wordpool_576.txt	LTP301	ltpFR2	10	24	CHEST	295	n/a	n/a	0	0	0
4788392	WORD	wordpools/wasnorm_wordpool_576.txt	LTP301	ltpFR2	10	24	DENIM	446	n/a	n/a	0	0	0
4791160	WORD	wordpools/wasnorm_wordpool_576.txt	LTP301	ltpFR2	10	24	JAPAN	749	n/a	n/a	0	0	0
4793617	WORD	wordpools/wasnorm_wordpool_576.txt	LTP301	ltpFR2	10	24	TROMBONE	1508	n/a	n/a	0	0	0
4796219	WORD	wordpools/wasnorm_wordpool_576.txt	LTP301	ltpFR2	10	24	COMET	353	n/a	n/a	0	0	0
4798985	WORD	wordpools/wasnorm_wordpool_576.txt	LTP301	ltpFR2	10	24	CRATER	400	n/a	n/a	0	0	0
4801520	WORD	wordpools/wasnorm_wordpool_576.txt	LTP301	ltpFR2	10	24	GHETTO	633	n/a	n/a	0	0	0
4804122	WORD	wordpools/wasnorm_wordpool_576.txt	LTP301	ltpFR2	10	24	BROTHER	179	n/a	n/a	0	0	0
4806541	WORD	wordpools/wasnorm_wordpool_576.txt	LTP301	ltpFR2	10	24	REBEL	1172	n/a	n/a	0	0	0
4809297	WORD	wordpools/wasnorm_wordpool_576.txt	LTP301	ltpFR2	10	24	GRAVE	658	n/a	n/a	0	0	0
4811929	WORD	wordpools/wasnorm_wordpool_576.txt	LTP301	ltpFR2	10	24	GUITAR	670	n/a	n/a	0	0	0
4814733	WORD	wordpools/wasnorm_wordpool_576.txt	LTP301	ltpFR2	10	24	TOMBSTONE	1478	n/a	n/a	0	0	0
4817434	WORD	wordpools/wasnorm_wordpool_576.txt	LTP301	ltpFR2	10	24	COUSIN	392	n/a	n/a	0	0	0
4819869	WORD	wordpools/wasnorm_wordpool_576.txt	LTP301	ltpFR2	10	24	SHOULDER	1294	n/a	n/a	0	0	0
4822524	WORD	wordpools/wasnorm_wordpool_576.txt	LTP301	ltpFR2	10	24	WRIST	1626	n/a	n/a	0	0	0
4825225	WORD	wordpools/wasnorm_wordpool_576.txt	LTP301	ltpFR2	10	24	MATTRESS	879	n/a	n/a	0	0	0
4827810	WORD	wordpools/wasnorm_wordpool_576.txt	LTP301	ltpFR2	10	24	BLOUSE	139	n/a	n/a	0	0	0
4829413	START	n/a	LTP301	ltpFR2	10	n/a	n/a	n/a	36	n/a	n/a	n/a	n/a
4830584	DISTRACTOR	n/a	LTP301	ltpFR2	10	24	n/a	n/a	n/a	n/a	0	0	0
4830596	PROB	n/a	LTP301	ltpFR2	10	n/a	n/a	n/a	36	24	7	9	7
4833883	PROB	n/a	LTP301	ltpFR2	10	n/a	n/a	n/a	36	13	1	2	9
4836035	PROB	n/a	LTP301	ltpFR2	10	n/a	n/a	n/a	36	12	9	1	2
4837768	PROB	n/a	LTP301	ltpFR2	10	n/a	n/a	n/a	36	19	1	8	8
4839620	PROB	n/a	LTP301	ltpFR2	10	n/a	n/a	n/a	36	14	1	6	7
4842823	PROB	n/a	LTP301	ltpFR2	10	n/a	n/a	n/a	36	27	7	7	3
4847042	PROB	n/a	LTP301	ltpFR2	10	n/a	n/a	n/a	36	19	7	4	6
4849794	PROB	n/a	LTP301	ltpFR2	10	n/a	n/a	n/a	36	13	1	4	8
4853412	STOP	n/a	LTP301	ltpFR2	10	n/a	n/a	n/a	36	n/a	n/a	n/a	n/a
4855301	REC_START	n/a	LTP301	ltpFR2	10	24	n/a	n/a	n/a	n/a	0	0	0
4860766	REC_WORD	wordpools/wasnorm_wordpool_576.txt	LTP301	ltpFR2	10	24	WAITER	1580	n/a	n/a	0	0	0
4861980	REC_WORD	wordpools/wasnorm_wordpool_576.txt	LTP301	ltpFR2	10	24	COCKTAIL	338	n/a	n/a	0	0	0
4863214	REC_WORD	wordpools/wasnorm_wordpool_576.txt	LTP301	ltpFR2	10	24	GANGSTER	620	n/a	n/a	0	0	0
4876941	REC_WORD	wordpools/wasnorm_wordpool_576.txt	LTP301	ltpFR2	10	24	BLOUSE	139	n/a	n/a	0	0	0
4880490	REC_WORD	wordpools/wasnorm_wordpool_576.txt	LTP301	ltpFR2	10	24	DENIM	446	n/a	n/a	0	0	0
4881591	REC_WORD	wordpools/wasnorm_wordpool_576.txt	LTP301	ltpFR2	10	24	JAPAN	749	n/a	n/a	0	0	0
4894287	REC_WORD	wordpools/wasnorm_wordpool_576.txt	LTP301	ltpFR2	10	24	SEAL	1262	n/a	n/a	0	0	0
4895442	REC_WORD	wordpools/wasnorm_wordpool_576.txt	LTP301	ltpFR2	10	24	CREATURE	403	n/a	n/a	0	0	0
4910428	REC_WORD	wordpools/wasnorm_wordpool_576.txt	LTP301	ltpFR2	10	24	CRATER	400	n/a	n/a	0	0	0
4911489	REC_WORD	wordpools/wasnorm_wordpool_576.txt	LTP301	ltpFR2	10	24	COMET	353	n/a	n/a	0	0	0
4919890	REC_WORD	wordpools/wasnorm_wordpool_576.txt	LTP301	ltpFR2	10	24	KETCHUP	771	n/a	n/a	0	0	0
4934781	SESS_END	n/a	LTP301	ltpFR2	10	24	n/a	n/a	n/a	n/a	0	0	0
