onset	duration	trial_type	sample	stim_file	subject	experiment	session	trial	item_name	item_num	list	answer	test_x	test_y	test_z
295.936	n/a	SESS_START	147968	n/a	LTP251	ltpFR2	1	n/a	n/a	n/a	n/a	n/a	0	0	0
318.74	n/a	START	159370	n/a	LTP251	ltpFR2	1	n/a	n/a	n/a	-1	n/a	n/a	n/a	n/a
318.786	n/a	PROB	159393	n/a	LTP251	ltpFR2	1	n/a	n/a	n/a	-1	6	2	2	1
321.124	n/a	PROB	160562	n/a	LTP251	ltpFR2	1	n/a	n/a	n/a	-1	4	1	2	1
323.058	n/a	PROB	161529	n/a	LTP251	ltpFR2	1	n/a	n/a	n/a	-1	10	4	3	3
324.76	n/a	PROB	162380	n/a	LTP251	ltpFR2	1	n/a	n/a	n/a	-1	16	7	2	7
326.526	n/a	PROB	163263	n/a	LTP251	ltpFR2	1	n/a	n/a	n/a	-1	16	8	2	6
327.914	n/a	PROB	163957	n/a	LTP251	ltpFR2	1	n/a	n/a	n/a	-1	15	3	6	7
329.794	n/a	STOP	164897	n/a	LTP251	ltpFR2	1	n/a	n/a	n/a	-1	n/a	n/a	n/a	n/a
366.24	n/a	WORD	183120	wordpools/wasnorm_wordpool_576.txt	LTP251	ltpFR2	1	1	BATHTUB	100	n/a	n/a	0	0	0
369.044	n/a	WORD	184522	wordpools/wasnorm_wordpool_576.txt	LTP251	ltpFR2	1	1	TWIG	1527	n/a	n/a	0	0	0
371.534	n/a	WORD	185767	wordpools/wasnorm_wordpool_576.txt	LTP251	ltpFR2	1	1	ROBOT	1200	n/a	n/a	0	0	0
374.298	n/a	WORD	187149	wordpools/wasnorm_wordpool_576.txt	LTP251	ltpFR2	1	1	BLACKBOARD	133	n/a	n/a	0	0	0
376.982	n/a	WORD	188491	wordpools/wasnorm_wordpool_576.txt	LTP251	ltpFR2	1	1	BUGGY	188	n/a	n/a	0	0	0
379.484	n/a	WORD	189742	wordpools/wasnorm_wordpool_576.txt	LTP251	ltpFR2	1	1	SPIDER	1351	n/a	n/a	0	0	0
382.16	n/a	WORD	191080	wordpools/wasnorm_wordpool_576.txt	LTP251	ltpFR2	1	1	SURVEY	1414	n/a	n/a	0	0	0
384.77	n/a	WORD	192385	wordpools/wasnorm_wordpool_576.txt	LTP251	ltpFR2	1	1	FRAGRANCE	599	n/a	n/a	0	0	0
387.28	n/a	WORD	193640	wordpools/wasnorm_wordpool_576.txt	LTP251	ltpFR2	1	1	CITRUS	313	n/a	n/a	0	0	0
389.958	n/a	WORD	194979	wordpools/wasnorm_wordpool_576.txt	LTP251	ltpFR2	1	1	SHORTCAKE	1292	n/a	n/a	0	0	0
392.56	n/a	WORD	196280	wordpools/wasnorm_wordpool_576.txt	LTP251	ltpFR2	1	1	PLAID	1080	n/a	n/a	0	0	0
395.296	n/a	WORD	197648	wordpools/wasnorm_wordpool_576.txt	LTP251	ltpFR2	1	1	WASHER	1592	n/a	n/a	0	0	0
397.856	n/a	WORD	198928	wordpools/wasnorm_wordpool_576.txt	LTP251	ltpFR2	1	1	PECAN	1036	n/a	n/a	0	0	0
400.65	n/a	WORD	200325	wordpools/wasnorm_wordpool_576.txt	LTP251	ltpFR2	1	1	SPONGE	1355	n/a	n/a	0	0	0
403.16	n/a	WORD	201580	wordpools/wasnorm_wordpool_576.txt	LTP251	ltpFR2	1	1	SUITCASE	1403	n/a	n/a	0	0	0
405.672	n/a	WORD	202836	wordpools/wasnorm_wordpool_576.txt	LTP251	ltpFR2	1	1	LUGGAGE	847	n/a	n/a	0	0	0
408.182	n/a	WORD	204091	wordpools/wasnorm_wordpool_576.txt	LTP251	ltpFR2	1	1	MAILMAN	858	n/a	n/a	0	0	0
410.96	n/a	WORD	205480	wordpools/wasnorm_wordpool_576.txt	LTP251	ltpFR2	1	1	OFFICE	972	n/a	n/a	0	0	0
413.494	n/a	WORD	206747	wordpools/wasnorm_wordpool_576.txt	LTP251	ltpFR2	1	1	EMPIRE	530	n/a	n/a	0	0	0
416.056	n/a	WORD	208028	wordpools/wasnorm_wordpool_576.txt	LTP251	ltpFR2	1	1	WASP	1593	n/a	n/a	0	0	0
418.732	n/a	WORD	209366	wordpools/wasnorm_wordpool_576.txt	LTP251	ltpFR2	1	1	FINGER	567	n/a	n/a	0	0	0
421.434	n/a	WORD	210717	wordpools/wasnorm_wordpool_576.txt	LTP251	ltpFR2	1	1	MONEY	908	n/a	n/a	0	0	0
424.1	n/a	WORD	212050	wordpools/wasnorm_wordpool_576.txt	LTP251	ltpFR2	1	1	PIANO	1057	n/a	n/a	0	0	0
426.848	n/a	WORD	213424	wordpools/wasnorm_wordpool_576.txt	LTP251	ltpFR2	1	1	TORTOISE	1486	n/a	n/a	0	0	0
428.482	n/a	START	214241	n/a	LTP251	ltpFR2	1	n/a	n/a	n/a	1	n/a	n/a	n/a	n/a
429.616	n/a	DISTRACTOR	214808	n/a	LTP251	ltpFR2	1	1	n/a	n/a	n/a	n/a	0	0	0
429.65	n/a	PROB	214825	n/a	LTP251	ltpFR2	1	n/a	n/a	n/a	1	11	3	2	6
431.942	n/a	PROB	215971	n/a	LTP251	ltpFR2	1	n/a	n/a	n/a	1	7	1	3	3
434.022	n/a	PROB	217011	n/a	LTP251	ltpFR2	1	n/a	n/a	n/a	1	13	2	8	3
435.376	n/a	PROB	217688	n/a	LTP251	ltpFR2	1	n/a	n/a	n/a	1	19	2	8	9
437.228	n/a	PROB	218614	n/a	LTP251	ltpFR2	1	n/a	n/a	n/a	1	17	8	7	2
439.524	n/a	PROB	219762	n/a	LTP251	ltpFR2	1	n/a	n/a	n/a	1	23	9	5	9
443.534	n/a	PROB	221767	n/a	LTP251	ltpFR2	1	n/a	n/a	n/a	1	16	6	3	7
446.136	n/a	PROB	223068	n/a	LTP251	ltpFR2	1	n/a	n/a	n/a	1	18	9	4	5
448.588	n/a	PROB	224294	n/a	LTP251	ltpFR2	1	n/a	n/a	n/a	1	12	2	8	2
449.918	n/a	PROB	224959	n/a	LTP251	ltpFR2	1	n/a	n/a	n/a	1	14	7	1	6
452.014	n/a	STOP	226007	n/a	LTP251	ltpFR2	1	n/a	n/a	n/a	1	n/a	n/a	n/a	n/a
454.434	n/a	REC_START	227217	n/a	LTP251	ltpFR2	1	1	n/a	n/a	n/a	n/a	0	0	0
456.722	n/a	REC_WORD	228361	wordpools/wasnorm_wordpool_576.txt	LTP251	ltpFR2	1	1	SCHOOL	1248	n/a	n/a	0	0	0
458.72	n/a	REC_WORD	229360	wordpools/wasnorm_wordpool_576.txt	LTP251	ltpFR2	1	1	BATHTUB	100	n/a	n/a	0	0	0
460.782	n/a	REC_WORD	230391	wordpools/wasnorm_wordpool_576.txt	LTP251	ltpFR2	1	1	TWIG	1527	n/a	n/a	0	0	0
462.564	n/a	REC_WORD	231282	wordpools/wasnorm_wordpool_576.txt	LTP251	ltpFR2	1	1	WASHER	1592	n/a	n/a	0	0	0
464.854	n/a	REC_WORD	232427	wordpools/wasnorm_wordpool_576.txt	LTP251	ltpFR2	1	1	FINGER	567	n/a	n/a	0	0	0
467.054	n/a	REC_WORD	233527	wordpools/wasnorm_wordpool_576.txt	LTP251	ltpFR2	1	1	TORTOISE	1486	n/a	n/a	0	0	0
470.452	n/a	REC_WORD	235226	wordpools/wasnorm_wordpool_576.txt	LTP251	ltpFR2	1	1	PECAN	1036	n/a	n/a	0	0	0
472.382	n/a	REC_WORD	236191	wordpools/wasnorm_wordpool_576.txt	LTP251	ltpFR2	1	1	FRAGRANCE	599	n/a	n/a	0	0	0
474.454	n/a	REC_WORD	237227	wordpools/wasnorm_wordpool_576.txt	LTP251	ltpFR2	1	1	CITRUS	313	n/a	n/a	0	0	0
476.658	n/a	REC_WORD	238329	wordpools/wasnorm_wordpool_576.txt	LTP251	ltpFR2	1	1	EMPIRE	530	n/a	n/a	0	0	0
478.754	n/a	REC_WORD	239377	wordpools/wasnorm_wordpool_576.txt	LTP251	ltpFR2	1	1	MONEY	908	n/a	n/a	0	0	0
481.04	n/a	REC_WORD	240520	wordpools/wasnorm_wordpool_576.txt	LTP251	ltpFR2	1	1	PIANO	1057	n/a	n/a	0	0	0
484.416	n/a	REC_WORD	242208	wordpools/wasnorm_wordpool_576.txt	LTP251	ltpFR2	1	1	PLAID	1080	n/a	n/a	0	0	0
486.73	n/a	REC_WORD	243365	wordpools/wasnorm_wordpool_576.txt	LTP251	ltpFR2	1	1	SPONGE	1355	n/a	n/a	0	0	0
545.33	n/a	WORD	272665	wordpools/wasnorm_wordpool_576.txt	LTP251	ltpFR2	1	2	WARDROBE	1587	n/a	n/a	0	0	0
548.034	n/a	WORD	274017	wordpools/wasnorm_wordpool_576.txt	LTP251	ltpFR2	1	2	TYPIST	1532	n/a	n/a	0	0	0
550.536	n/a	WORD	275268	wordpools/wasnorm_wordpool_576.txt	LTP251	ltpFR2	1	2	QUARTER	1148	n/a	n/a	0	0	0
553.204	n/a	WORD	276602	wordpools/wasnorm_wordpool_576.txt	LTP251	ltpFR2	1	2	DRUG	501	n/a	n/a	0	0	0
555.972	n/a	WORD	277986	wordpools/wasnorm_wordpool_576.txt	LTP251	ltpFR2	1	2	BUNNY	198	n/a	n/a	0	0	0
558.542	n/a	WORD	279271	wordpools/wasnorm_wordpool_576.txt	LTP251	ltpFR2	1	2	ULCER	1533	n/a	n/a	0	0	0
561.062	n/a	WORD	280531	wordpools/wasnorm_wordpool_576.txt	LTP251	ltpFR2	1	2	BELLY	119	n/a	n/a	0	0	0
563.828	n/a	WORD	281914	wordpools/wasnorm_wordpool_576.txt	LTP251	ltpFR2	1	2	WAITER	1580	n/a	n/a	0	0	0
566.3	n/a	WORD	283150	wordpools/wasnorm_wordpool_576.txt	LTP251	ltpFR2	1	2	LAPEL	800	n/a	n/a	0	0	0
569.066	n/a	WORD	284533	wordpools/wasnorm_wordpool_576.txt	LTP251	ltpFR2	1	2	AWARD	63	n/a	n/a	0	0	0
571.902	n/a	WORD	285951	wordpools/wasnorm_wordpool_576.txt	LTP251	ltpFR2	1	2	MISSILE	900	n/a	n/a	0	0	0
574.72	n/a	WORD	287360	wordpools/wasnorm_wordpool_576.txt	LTP251	ltpFR2	1	2	SHOULDER	1294	n/a	n/a	0	0	0
577.188	n/a	WORD	288594	wordpools/wasnorm_wordpool_576.txt	LTP251	ltpFR2	1	2	HAWK	692	n/a	n/a	0	0	0
579.74	n/a	WORD	289870	wordpools/wasnorm_wordpool_576.txt	LTP251	ltpFR2	1	2	SEAFOOD	1260	n/a	n/a	0	0	0
582.492	n/a	WORD	291246	wordpools/wasnorm_wordpool_576.txt	LTP251	ltpFR2	1	2	COOKBOOK	373	n/a	n/a	0	0	0
585.112	n/a	WORD	292556	wordpools/wasnorm_wordpool_576.txt	LTP251	ltpFR2	1	2	BLENDER	136	n/a	n/a	0	0	0
587.718	n/a	WORD	293859	wordpools/wasnorm_wordpool_576.txt	LTP251	ltpFR2	1	2	HERO	706	n/a	n/a	0	0	0
590.466	n/a	WORD	295233	wordpools/wasnorm_wordpool_576.txt	LTP251	ltpFR2	1	2	SKIRT	1319	n/a	n/a	0	0	0
592.94	n/a	WORD	296470	wordpools/wasnorm_wordpool_576.txt	LTP251	ltpFR2	1	2	CREATURE	403	n/a	n/a	0	0	0
595.77	n/a	WORD	297885	wordpools/wasnorm_wordpool_576.txt	LTP251	ltpFR2	1	2	PASTRY	1022	n/a	n/a	0	0	0
598.338	n/a	WORD	299169	wordpools/wasnorm_wordpool_576.txt	LTP251	ltpFR2	1	2	WORLD	1622	n/a	n/a	0	0	0
601.14	n/a	WORD	300570	wordpools/wasnorm_wordpool_576.txt	LTP251	ltpFR2	1	2	ATLAS	53	n/a	n/a	0	0	0
603.66	n/a	WORD	301830	wordpools/wasnorm_wordpool_576.txt	LTP251	ltpFR2	1	2	CARROT	249	n/a	n/a	0	0	0
606.228	n/a	WORD	303114	wordpools/wasnorm_wordpool_576.txt	LTP251	ltpFR2	1	2	PACKAGE	997	n/a	n/a	0	0	0
607.864	n/a	START	303932	n/a	LTP251	ltpFR2	1	n/a	n/a	n/a	2	n/a	n/a	n/a	n/a
608.962	n/a	DISTRACTOR	304481	n/a	LTP251	ltpFR2	1	2	n/a	n/a	n/a	n/a	0	0	0
608.998	n/a	PROB	304499	n/a	LTP251	ltpFR2	1	n/a	n/a	n/a	2	16	6	3	7
612.564	n/a	PROB	306282	n/a	LTP251	ltpFR2	1	n/a	n/a	n/a	2	21	6	6	9
615.852	n/a	PROB	307926	n/a	LTP251	ltpFR2	1	n/a	n/a	n/a	2	16	7	7	2
617.236	n/a	PROB	308618	n/a	LTP251	ltpFR2	1	n/a	n/a	n/a	2	13	4	4	5
619.388	n/a	PROB	309694	n/a	LTP251	ltpFR2	1	n/a	n/a	n/a	2	18	8	9	1
621.656	n/a	PROB	310828	n/a	LTP251	ltpFR2	1	n/a	n/a	n/a	2	18	6	5	7
623.308	n/a	PROB	311654	n/a	LTP251	ltpFR2	1	n/a	n/a	n/a	2	14	4	5	5
625.25	n/a	PROB	312625	n/a	LTP251	ltpFR2	1	n/a	n/a	n/a	2	19	7	3	9
626.594	n/a	PROB	313297	n/a	LTP251	ltpFR2	1	n/a	n/a	n/a	2	17	8	7	2
628.636	n/a	PROB	314318	n/a	LTP251	ltpFR2	1	n/a	n/a	n/a	2	10	3	5	2
630.132	n/a	PROB	315066	n/a	LTP251	ltpFR2	1	n/a	n/a	n/a	2	15	7	4	4
631.744	n/a	STOP	315872	n/a	LTP251	ltpFR2	1	n/a	n/a	n/a	2	n/a	n/a	n/a	n/a
633.878	n/a	REC_START	316939	n/a	LTP251	ltpFR2	1	2	n/a	n/a	n/a	n/a	0	0	0
635.408	n/a	REC_WORD	317704	wordpools/wasnorm_wordpool_576.txt	LTP251	ltpFR2	1	2	WARDROBE	1587	n/a	n/a	0	0	0
637.248	n/a	REC_WORD	318624	wordpools/wasnorm_wordpool_576.txt	LTP251	ltpFR2	1	2	TYPIST	1532	n/a	n/a	0	0	0
640.874	n/a	REC_WORD	320437	wordpools/wasnorm_wordpool_576.txt	LTP251	ltpFR2	1	2	PACKAGE	997	n/a	n/a	0	0	0
642.882	n/a	REC_WORD	321441	wordpools/wasnorm_wordpool_576.txt	LTP251	ltpFR2	1	2	MISSILE	900	n/a	n/a	0	0	0
644.832	n/a	REC_WORD	322416	wordpools/wasnorm_wordpool_576.txt	LTP251	ltpFR2	1	2	AWARD	63	n/a	n/a	0	0	0
646.548	n/a	REC_WORD	323274	wordpools/wasnorm_wordpool_576.txt	LTP251	ltpFR2	1	2	HERO	706	n/a	n/a	0	0	0
648.388	n/a	REC_WORD	324194	wordpools/wasnorm_wordpool_576.txt	LTP251	ltpFR2	1	2	LAPEL	800	n/a	n/a	0	0	0
651.368	n/a	REC_WORD	325684	wordpools/wasnorm_wordpool_576.txt	LTP251	ltpFR2	1	2	WORLD	1622	n/a	n/a	0	0	0
653.314	n/a	REC_WORD	326657	wordpools/wasnorm_wordpool_576.txt	LTP251	ltpFR2	1	2	ATLAS	53	n/a	n/a	0	0	0
655.614	n/a	REC_WORD	327807	wordpools/wasnorm_wordpool_576.txt	LTP251	ltpFR2	1	2	SKIRT	1319	n/a	n/a	0	0	0
657.814	n/a	REC_WORD	328907	wordpools/wasnorm_wordpool_576.txt	LTP251	ltpFR2	1	2	CARROT	249	n/a	n/a	0	0	0
659.554	n/a	REC_WORD	329777	wordpools/wasnorm_wordpool_576.txt	LTP251	ltpFR2	1	2	PASTRY	1022	n/a	n/a	0	0	0
661.598	n/a	REC_WORD	330799	wordpools/wasnorm_wordpool_576.txt	LTP251	ltpFR2	1	2	COOKBOOK	373	n/a	n/a	0	0	0
663.5	n/a	REC_WORD	331750	wordpools/wasnorm_wordpool_576.txt	LTP251	ltpFR2	1	2	SHOULDER	1294	n/a	n/a	0	0	0
689.304	n/a	REC_WORD	344652	wordpools/wasnorm_wordpool_576.txt	LTP251	ltpFR2	1	2	DRUG	501	n/a	n/a	0	0	0
692.066	n/a	REC_WORD	346033	wordpools/wasnorm_wordpool_576.txt	LTP251	ltpFR2	1	2	BELLY	119	n/a	n/a	0	0	0
694.43	n/a	REC_WORD	347215	wordpools/wasnorm_wordpool_576.txt	LTP251	ltpFR2	1	2	ULCER	1533	n/a	n/a	0	0	0
724.734	n/a	WORD	362367	wordpools/wasnorm_wordpool_576.txt	LTP251	ltpFR2	1	3	BEAST	108	n/a	n/a	0	0	0
727.436	n/a	WORD	363718	wordpools/wasnorm_wordpool_576.txt	LTP251	ltpFR2	1	3	PRIMATE	1123	n/a	n/a	0	0	0
729.922	n/a	WORD	364961	wordpools/wasnorm_wordpool_576.txt	LTP251	ltpFR2	1	3	SHIRT	1287	n/a	n/a	0	0	0
732.776	n/a	WORD	366388	wordpools/wasnorm_wordpool_576.txt	LTP251	ltpFR2	1	3	TART	1436	n/a	n/a	0	0	0
735.444	n/a	WORD	367722	wordpools/wasnorm_wordpool_576.txt	LTP251	ltpFR2	1	3	SHORTS	1293	n/a	n/a	0	0	0
738.116	n/a	WORD	369058	wordpools/wasnorm_wordpool_576.txt	LTP251	ltpFR2	1	3	TUBA	1515	n/a	n/a	0	0	0
740.916	n/a	WORD	370458	wordpools/wasnorm_wordpool_576.txt	LTP251	ltpFR2	1	3	NOVEL	960	n/a	n/a	0	0	0
743.434	n/a	WORD	371717	wordpools/wasnorm_wordpool_576.txt	LTP251	ltpFR2	1	3	BREAST	171	n/a	n/a	0	0	0
745.954	n/a	WORD	372977	wordpools/wasnorm_wordpool_576.txt	LTP251	ltpFR2	1	3	CRIB	407	n/a	n/a	0	0	0
748.672	n/a	WORD	374336	wordpools/wasnorm_wordpool_576.txt	LTP251	ltpFR2	1	3	FLAG	573	n/a	n/a	0	0	0
751.524	n/a	WORD	375762	wordpools/wasnorm_wordpool_576.txt	LTP251	ltpFR2	1	3	BEAVER	109	n/a	n/a	0	0	0
754.292	n/a	WORD	377146	wordpools/wasnorm_wordpool_576.txt	LTP251	ltpFR2	1	3	RAZOR	1171	n/a	n/a	0	0	0
757.146	n/a	WORD	378573	wordpools/wasnorm_wordpool_576.txt	LTP251	ltpFR2	1	3	HEADBAND	696	n/a	n/a	0	0	0
759.948	n/a	WORD	379974	wordpools/wasnorm_wordpool_576.txt	LTP251	ltpFR2	1	3	PEBBLE	1035	n/a	n/a	0	0	0
762.784	n/a	WORD	381392	wordpools/wasnorm_wordpool_576.txt	LTP251	ltpFR2	1	3	CORAL	378	n/a	n/a	0	0	0
765.336	n/a	WORD	382668	wordpools/wasnorm_wordpool_576.txt	LTP251	ltpFR2	1	3	ROBBER	1197	n/a	n/a	0	0	0
768.056	n/a	WORD	384028	wordpools/wasnorm_wordpool_576.txt	LTP251	ltpFR2	1	3	NAPKIN	937	n/a	n/a	0	0	0
770.79	n/a	WORD	385395	wordpools/wasnorm_wordpool_576.txt	LTP251	ltpFR2	1	3	DENIM	446	n/a	n/a	0	0	0
773.36	n/a	WORD	386680	wordpools/wasnorm_wordpool_576.txt	LTP251	ltpFR2	1	3	SWIMMER	1420	n/a	n/a	0	0	0
776.194	n/a	WORD	388097	wordpools/wasnorm_wordpool_576.txt	LTP251	ltpFR2	1	3	MARINE	869	n/a	n/a	0	0	0
778.764	n/a	WORD	389382	wordpools/wasnorm_wordpool_576.txt	LTP251	ltpFR2	1	3	DRESS	495	n/a	n/a	0	0	0
781.534	n/a	WORD	390767	wordpools/wasnorm_wordpool_576.txt	LTP251	ltpFR2	1	3	SANDWICH	1232	n/a	n/a	0	0	0
784.368	n/a	WORD	392184	wordpools/wasnorm_wordpool_576.txt	LTP251	ltpFR2	1	3	HOSTESS	723	n/a	n/a	0	0	0
786.97	n/a	WORD	393485	wordpools/wasnorm_wordpool_576.txt	LTP251	ltpFR2	1	3	DANCER	437	n/a	n/a	0	0	0
788.604	n/a	START	394302	n/a	LTP251	ltpFR2	1	n/a	n/a	n/a	3	n/a	n/a	n/a	n/a
789.454	n/a	DISTRACTOR	394727	n/a	LTP251	ltpFR2	1	3	n/a	n/a	n/a	n/a	0	0	0
789.488	n/a	PROB	394744	n/a	LTP251	ltpFR2	1	n/a	n/a	n/a	3	17	8	5	4
792.624	n/a	PROB	396312	n/a	LTP251	ltpFR2	1	n/a	n/a	n/a	3	14	1	9	4
793.992	n/a	PROB	396996	n/a	LTP251	ltpFR2	1	n/a	n/a	n/a	3	7	1	3	3
795.726	n/a	PROB	397863	n/a	LTP251	ltpFR2	1	n/a	n/a	n/a	3	13	9	2	2
797.326	n/a	PROB	398663	n/a	LTP251	ltpFR2	1	n/a	n/a	n/a	3	21	5	7	9
799.162	n/a	PROB	399581	n/a	LTP251	ltpFR2	1	n/a	n/a	n/a	3	9	2	1	6
800.598	n/a	PROB	400299	n/a	LTP251	ltpFR2	1	n/a	n/a	n/a	3	11	1	5	5
802.034	n/a	PROB	401017	n/a	LTP251	ltpFR2	1	n/a	n/a	n/a	3	19	7	4	8
803.584	n/a	PROB	401792	n/a	LTP251	ltpFR2	1	n/a	n/a	n/a	3	9	2	3	4
805.52	n/a	PROB	402760	n/a	LTP251	ltpFR2	1	n/a	n/a	n/a	3	12	7	3	2
806.87	n/a	PROB	403435	n/a	LTP251	ltpFR2	1	n/a	n/a	n/a	3	13	4	6	3
808.072	n/a	PROB	404036	n/a	LTP251	ltpFR2	1	n/a	n/a	n/a	3	13	3	7	3
812.604	n/a	STOP	406302	n/a	LTP251	ltpFR2	1	n/a	n/a	n/a	3	n/a	n/a	n/a	n/a
814.502	n/a	REC_START	407251	n/a	LTP251	ltpFR2	1	3	n/a	n/a	n/a	n/a	0	0	0
817.934	n/a	REC_WORD	408967	wordpools/wasnorm_wordpool_576.txt	LTP251	ltpFR2	1	3	BEAST	108	n/a	n/a	0	0	0
819.28	n/a	REC_WORD	409640	wordpools/wasnorm_wordpool_576.txt	LTP251	ltpFR2	1	3	PRIMATE	1123	n/a	n/a	0	0	0
820.64	n/a	REC_WORD	410320	wordpools/wasnorm_wordpool_576.txt	LTP251	ltpFR2	1	3	SHIRT	1287	n/a	n/a	0	0	0
822.134	n/a	REC_WORD	411067	wordpools/wasnorm_wordpool_576.txt	LTP251	ltpFR2	1	3	SHORTS	1293	n/a	n/a	0	0	0
823.766	n/a	REC_WORD	411883	wordpools/wasnorm_wordpool_576.txt	LTP251	ltpFR2	1	3	DENIM	446	n/a	n/a	0	0	0
825.198	n/a	REC_WORD	412599	wordpools/wasnorm_wordpool_576.txt	LTP251	ltpFR2	1	3	SWIMMER	1420	n/a	n/a	0	0	0
827.514	n/a	REC_WORD	413757	wordpools/wasnorm_wordpool_576.txt	LTP251	ltpFR2	1	3	HOSTESS	723	n/a	n/a	0	0	0
829.414	n/a	REC_WORD	414707	wordpools/wasnorm_wordpool_576.txt	LTP251	ltpFR2	1	3	HEADBAND	696	n/a	n/a	0	0	0
834.928	n/a	REC_WORD	417464	wordpools/wasnorm_wordpool_576.txt	LTP251	ltpFR2	1	3	TUBA	1515	n/a	n/a	0	0	0
854.274	n/a	REC_WORD	427137	wordpools/wasnorm_wordpool_576.txt	LTP251	ltpFR2	1	3	CRIB	407	n/a	n/a	0	0	0
855.996	n/a	REC_WORD	427998	wordpools/wasnorm_wordpool_576.txt	LTP251	ltpFR2	1	3	FLAG	573	n/a	n/a	0	0	0
905.306	n/a	DISTRACTOR	452653	n/a	LTP251	ltpFR2	1	4	n/a	n/a	n/a	n/a	0	0	0
905.306	n/a	START	452653	n/a	LTP251	ltpFR2	1	n/a	n/a	n/a	4	n/a	n/a	n/a	n/a
905.36	n/a	PROB	452680	n/a	LTP251	ltpFR2	1	n/a	n/a	n/a	4	14	4	3	5
907.69	n/a	PROB	453845	n/a	LTP251	ltpFR2	1	n/a	n/a	n/a	4	16	5	2	9
909.632	n/a	PROB	454816	n/a	LTP251	ltpFR2	1	n/a	n/a	n/a	4	5	1	3	2
912.132	n/a	PROB	456066	n/a	LTP251	ltpFR2	1	n/a	n/a	n/a	4	12	4	1	7
916.864	n/a	PROB	458432	n/a	LTP251	ltpFR2	1	n/a	n/a	n/a	4	10	1	6	3
918.266	n/a	PROB	459133	n/a	LTP251	ltpFR2	1	n/a	n/a	n/a	4	7	2	3	2
919.768	n/a	PROB	459884	n/a	LTP251	ltpFR2	1	n/a	n/a	n/a	4	10	8	1	1
921.436	n/a	PROB	460718	n/a	LTP251	ltpFR2	1	n/a	n/a	n/a	4	15	8	2	5
922.826	n/a	PROB	461413	n/a	LTP251	ltpFR2	1	n/a	n/a	n/a	4	25	8	9	8
926.528	n/a	PROB	463264	n/a	LTP251	ltpFR2	1	n/a	n/a	n/a	4	19	4	9	6
928.398	n/a	STOP	464199	n/a	LTP251	ltpFR2	1	n/a	n/a	n/a	4	n/a	n/a	n/a	n/a
930.31	n/a	WORD	465155	wordpools/wasnorm_wordpool_576.txt	LTP251	ltpFR2	1	4	NOMAD	955	n/a	n/a	0	0	0
933.13	n/a	WORD	466565	wordpools/wasnorm_wordpool_576.txt	LTP251	ltpFR2	1	4	BANJO	82	n/a	n/a	0	0	0
935.88	n/a	WORD	467940	wordpools/wasnorm_wordpool_576.txt	LTP251	ltpFR2	1	4	RECORD	1176	n/a	n/a	0	0	0
938.348	n/a	WORD	469174	wordpools/wasnorm_wordpool_576.txt	LTP251	ltpFR2	1	4	LETTUCE	814	n/a	n/a	0	0	0
940.838	n/a	WORD	470419	wordpools/wasnorm_wordpool_576.txt	LTP251	ltpFR2	1	4	OX	994	n/a	n/a	0	0	0
943.62	n/a	WORD	471810	wordpools/wasnorm_wordpool_576.txt	LTP251	ltpFR2	1	4	FIREMAN	569	n/a	n/a	0	0	0
946.172	n/a	WORD	473086	wordpools/wasnorm_wordpool_576.txt	LTP251	ltpFR2	1	4	CAFE	216	n/a	n/a	0	0	0
948.962	n/a	WORD	474481	wordpools/wasnorm_wordpool_576.txt	LTP251	ltpFR2	1	4	DINER	467	n/a	n/a	0	0	0
951.544	n/a	WORD	475772	wordpools/wasnorm_wordpool_576.txt	LTP251	ltpFR2	1	4	MILK	895	n/a	n/a	0	0	0
954.216	n/a	WORD	477108	wordpools/wasnorm_wordpool_576.txt	LTP251	ltpFR2	1	4	YARN	1631	n/a	n/a	0	0	0
957.05	n/a	WORD	478525	wordpools/wasnorm_wordpool_576.txt	LTP251	ltpFR2	1	4	ONION	977	n/a	n/a	0	0	0
959.634	n/a	WORD	479817	wordpools/wasnorm_wordpool_576.txt	LTP251	ltpFR2	1	4	INMATE	738	n/a	n/a	0	0	0
962.236	n/a	WORD	481118	wordpools/wasnorm_wordpool_576.txt	LTP251	ltpFR2	1	4	OMELET	976	n/a	n/a	0	0	0
965.056	n/a	WORD	482528	wordpools/wasnorm_wordpool_576.txt	LTP251	ltpFR2	1	4	PADDLE	1000	n/a	n/a	0	0	0
967.674	n/a	WORD	483837	wordpools/wasnorm_wordpool_576.txt	LTP251	ltpFR2	1	4	MARROW	872	n/a	n/a	0	0	0
970.262	n/a	WORD	485131	wordpools/wasnorm_wordpool_576.txt	LTP251	ltpFR2	1	4	SLIDE	1326	n/a	n/a	0	0	0
973.114	n/a	WORD	486557	wordpools/wasnorm_wordpool_576.txt	LTP251	ltpFR2	1	4	HONEY	713	n/a	n/a	0	0	0
975.714	n/a	WORD	487857	wordpools/wasnorm_wordpool_576.txt	LTP251	ltpFR2	1	4	FIREPLACE	570	n/a	n/a	0	0	0
978.318	n/a	WORD	489159	wordpools/wasnorm_wordpool_576.txt	LTP251	ltpFR2	1	4	GUITAR	670	n/a	n/a	0	0	0
981.134	n/a	WORD	490567	wordpools/wasnorm_wordpool_576.txt	LTP251	ltpFR2	1	4	SLIME	1327	n/a	n/a	0	0	0
983.888	n/a	WORD	491944	wordpools/wasnorm_wordpool_576.txt	LTP251	ltpFR2	1	4	FEMALE	559	n/a	n/a	0	0	0
986.706	n/a	WORD	493353	wordpools/wasnorm_wordpool_576.txt	LTP251	ltpFR2	1	4	PICTURE	1061	n/a	n/a	0	0	0
989.444	n/a	WORD	494722	wordpools/wasnorm_wordpool_576.txt	LTP251	ltpFR2	1	4	HEART	697	n/a	n/a	0	0	0
992.03	n/a	WORD	496015	wordpools/wasnorm_wordpool_576.txt	LTP251	ltpFR2	1	4	LOVER	846	n/a	n/a	0	0	0
993.664	n/a	START	496832	n/a	LTP251	ltpFR2	1	n/a	n/a	n/a	5	n/a	n/a	n/a	n/a
994.516	n/a	DISTRACTOR	497258	n/a	LTP251	ltpFR2	1	4	n/a	n/a	n/a	n/a	0	0	0
994.546	n/a	PROB	497273	n/a	LTP251	ltpFR2	1	n/a	n/a	n/a	5	14	3	4	7
997.034	n/a	PROB	498517	n/a	LTP251	ltpFR2	1	n/a	n/a	n/a	5	21	8	6	7
999.2	n/a	PROB	499600	n/a	LTP251	ltpFR2	1	n/a	n/a	n/a	5	8	4	1	3
1000.954	n/a	PROB	500477	n/a	LTP251	ltpFR2	1	n/a	n/a	n/a	5	17	9	8	1
1002.838	n/a	PROB	501419	n/a	LTP251	ltpFR2	1	n/a	n/a	n/a	5	16	6	9	1
1004.64	n/a	PROB	502320	n/a	LTP251	ltpFR2	1	n/a	n/a	n/a	5	12	5	2	5
1006.424	n/a	PROB	503212	n/a	LTP251	ltpFR2	1	n/a	n/a	n/a	5	19	2	8	9
1007.908	n/a	PROB	503954	n/a	LTP251	ltpFR2	1	n/a	n/a	n/a	5	14	6	1	7
1009.66	n/a	PROB	504830	n/a	LTP251	ltpFR2	1	n/a	n/a	n/a	5	9	5	1	3
1011.98	n/a	PROB	505990	n/a	LTP251	ltpFR2	1	n/a	n/a	n/a	5	18	6	6	6
1014.064	n/a	PROB	507032	n/a	LTP251	ltpFR2	1	n/a	n/a	n/a	5	16	8	5	3
1016.174	n/a	STOP	508087	n/a	LTP251	ltpFR2	1	n/a	n/a	n/a	5	n/a	n/a	n/a	n/a
1019.58	n/a	REC_START	509790	n/a	LTP251	ltpFR2	1	4	n/a	n/a	n/a	n/a	0	0	0
1021.336	n/a	REC_WORD	510668	wordpools/wasnorm_wordpool_576.txt	LTP251	ltpFR2	1	4	BANJO	82	n/a	n/a	0	0	0
1022.686	n/a	REC_WORD	511343	wordpools/wasnorm_wordpool_576.txt	LTP251	ltpFR2	1	4	OX	994	n/a	n/a	0	0	0
1026.322	n/a	REC_WORD	513161	wordpools/wasnorm_wordpool_576.txt	LTP251	ltpFR2	1	4	NOMAD	955	n/a	n/a	0	0	0
1029.968	n/a	REC_WORD	514984	wordpools/wasnorm_wordpool_576.txt	LTP251	ltpFR2	1	4	PRISON	1127	n/a	n/a	0	0	0
1031.732	n/a	REC_WORD	515866	wordpools/wasnorm_wordpool_576.txt	LTP251	ltpFR2	1	4	PADDLE	1000	n/a	n/a	0	0	0
1034.1	n/a	REC_WORD	517050	wordpools/wasnorm_wordpool_576.txt	LTP251	ltpFR2	1	4	MARROW	872	n/a	n/a	0	0	0
1038.73	n/a	REC_WORD	519365	wordpools/wasnorm_wordpool_576.txt	LTP251	ltpFR2	1	4	BANJO	82	n/a	n/a	0	0	0
1040.454	n/a	REC_WORD	520227	wordpools/wasnorm_wordpool_576.txt	LTP251	ltpFR2	1	4	SLIDE	1326	n/a	n/a	0	0	0
1042.488	n/a	REC_WORD	521244	wordpools/wasnorm_wordpool_576.txt	LTP251	ltpFR2	1	4	FIREPLACE	570	n/a	n/a	0	0	0
1044.336	n/a	REC_WORD	522168	wordpools/wasnorm_wordpool_576.txt	LTP251	ltpFR2	1	4	SLIME	1327	n/a	n/a	0	0	0
1046.756	n/a	REC_WORD	523378	wordpools/wasnorm_wordpool_576.txt	LTP251	ltpFR2	1	4	OMELET	976	n/a	n/a	0	0	0
1052.848	n/a	REC_WORD	526424	wordpools/wasnorm_wordpool_576.txt	LTP251	ltpFR2	1	4	HONEY	713	n/a	n/a	0	0	0
1057.478	n/a	REC_WORD	528739	wordpools/wasnorm_wordpool_576.txt	LTP251	ltpFR2	1	4	FEMALE	559	n/a	n/a	0	0	0
1059.634	n/a	REC_WORD	529817	wordpools/wasnorm_wordpool_576.txt	LTP251	ltpFR2	1	4	PICTURE	1061	n/a	n/a	0	0	0
1062.354	n/a	REC_WORD	531177	wordpools/wasnorm_wordpool_576.txt	LTP251	ltpFR2	1	4	LOVER	846	n/a	n/a	0	0	0
1110.422	n/a	WORD	555211	wordpools/wasnorm_wordpool_576.txt	LTP251	ltpFR2	1	5	ANKLE	24	n/a	n/a	0	0	0
1112.942	n/a	WORD	556471	wordpools/wasnorm_wordpool_576.txt	LTP251	ltpFR2	1	5	SALAD	1224	n/a	n/a	0	0	0
1115.602	n/a	WORD	557801	wordpools/wasnorm_wordpool_576.txt	LTP251	ltpFR2	1	5	TURTLE	1522	n/a	n/a	0	0	0
1118.312	n/a	WORD	559156	wordpools/wasnorm_wordpool_576.txt	LTP251	ltpFR2	1	5	CLIMBER	323	n/a	n/a	0	0	0
1120.842	n/a	WORD	560421	wordpools/wasnorm_wordpool_576.txt	LTP251	ltpFR2	1	5	SUMMIT	1405	n/a	n/a	0	0	0
1123.64	n/a	WORD	561820	wordpools/wasnorm_wordpool_576.txt	LTP251	ltpFR2	1	5	LONDON	843	n/a	n/a	0	0	0
1126.334	n/a	WORD	563167	wordpools/wasnorm_wordpool_576.txt	LTP251	ltpFR2	1	5	DENTIST	447	n/a	n/a	0	0	0
1129.154	n/a	WORD	564577	wordpools/wasnorm_wordpool_576.txt	LTP251	ltpFR2	1	5	FLESH	579	n/a	n/a	0	0	0
1131.622	n/a	WORD	565811	wordpools/wasnorm_wordpool_576.txt	LTP251	ltpFR2	1	5	CLOUD	328	n/a	n/a	0	0	0
1134.182	n/a	WORD	567091	wordpools/wasnorm_wordpool_576.txt	LTP251	ltpFR2	1	5	MISTER	901	n/a	n/a	0	0	0
1136.708	n/a	WORD	568354	wordpools/wasnorm_wordpool_576.txt	LTP251	ltpFR2	1	5	MAMMAL	861	n/a	n/a	0	0	0
1139.512	n/a	WORD	569756	wordpools/wasnorm_wordpool_576.txt	LTP251	ltpFR2	1	5	SCULPTURE	1258	n/a	n/a	0	0	0
1142.222	n/a	WORD	571111	wordpools/wasnorm_wordpool_576.txt	LTP251	ltpFR2	1	5	BLOCKADE	137	n/a	n/a	0	0	0
1144.926	n/a	WORD	572463	wordpools/wasnorm_wordpool_576.txt	LTP251	ltpFR2	1	5	TWEEZERS	1526	n/a	n/a	0	0	0
1147.684	n/a	WORD	573842	wordpools/wasnorm_wordpool_576.txt	LTP251	ltpFR2	1	5	RABBIT	1152	n/a	n/a	0	0	0
1150.23	n/a	WORD	575115	wordpools/wasnorm_wordpool_576.txt	LTP251	ltpFR2	1	5	ACTOR	5	n/a	n/a	0	0	0
1152.956	n/a	WORD	576478	wordpools/wasnorm_wordpool_576.txt	LTP251	ltpFR2	1	5	HORNET	718	n/a	n/a	0	0	0
1155.64	n/a	WORD	577820	wordpools/wasnorm_wordpool_576.txt	LTP251	ltpFR2	1	5	BOYFRIEND	162	n/a	n/a	0	0	0
1158.192	n/a	WORD	579096	wordpools/wasnorm_wordpool_576.txt	LTP251	ltpFR2	1	5	BRACES	164	n/a	n/a	0	0	0
1160.862	n/a	WORD	580431	wordpools/wasnorm_wordpool_576.txt	LTP251	ltpFR2	1	5	ELBOW	520	n/a	n/a	0	0	0
1163.664	n/a	WORD	581832	wordpools/wasnorm_wordpool_576.txt	LTP251	ltpFR2	1	5	BROOK	177	n/a	n/a	0	0	0
1166.132	n/a	WORD	583066	wordpools/wasnorm_wordpool_576.txt	LTP251	ltpFR2	1	5	LAGOON	795	n/a	n/a	0	0	0
1168.694	n/a	WORD	584347	wordpools/wasnorm_wordpool_576.txt	LTP251	ltpFR2	1	5	SIDEWALK	1303	n/a	n/a	0	0	0
1171.48	n/a	WORD	585740	wordpools/wasnorm_wordpool_576.txt	LTP251	ltpFR2	1	5	UNCLE	1536	n/a	n/a	0	0	0
1173.118	n/a	START	586559	n/a	LTP251	ltpFR2	1	n/a	n/a	n/a	6	n/a	n/a	n/a	n/a
1174.044	n/a	DISTRACTOR	587022	n/a	LTP251	ltpFR2	1	5	n/a	n/a	n/a	n/a	0	0	0
1174.072	n/a	PROB	587036	n/a	LTP251	ltpFR2	1	n/a	n/a	n/a	6	8	1	5	2
1176.424	n/a	PROB	588212	n/a	LTP251	ltpFR2	1	n/a	n/a	n/a	6	11	7	3	1
1178.024	n/a	PROB	589012	n/a	LTP251	ltpFR2	1	n/a	n/a	n/a	6	19	9	5	5
1179.874	n/a	PROB	589937	n/a	LTP251	ltpFR2	1	n/a	n/a	n/a	6	20	7	7	6
1181.956	n/a	PROB	590978	n/a	LTP251	ltpFR2	1	n/a	n/a	n/a	6	13	6	5	2
1183.544	n/a	PROB	591772	n/a	LTP251	ltpFR2	1	n/a	n/a	n/a	6	11	3	5	3
1186.276	n/a	PROB	593138	n/a	LTP251	ltpFR2	1	n/a	n/a	n/a	6	14	9	2	6
1187.914	n/a	PROB	593957	n/a	LTP251	ltpFR2	1	n/a	n/a	n/a	6	11	3	3	5
1190.58	n/a	PROB	595290	n/a	LTP251	ltpFR2	1	n/a	n/a	n/a	6	10	1	2	7
1191.898	n/a	PROB	595949	n/a	LTP251	ltpFR2	1	n/a	n/a	n/a	6	15	3	4	8
1194.85	n/a	PROB	597425	n/a	LTP251	ltpFR2	1	n/a	n/a	n/a	6	1	1	2	8
1196.226	n/a	STOP	598113	n/a	LTP251	ltpFR2	1	n/a	n/a	n/a	6	n/a	n/a	n/a	n/a
1199.034	n/a	REC_START	599517	n/a	LTP251	ltpFR2	1	5	n/a	n/a	n/a	n/a	0	0	0
1201.332	n/a	REC_WORD	600666	wordpools/wasnorm_wordpool_576.txt	LTP251	ltpFR2	1	5	CLIMBER	323	n/a	n/a	0	0	0
1202.502	n/a	REC_WORD	601251	wordpools/wasnorm_wordpool_576.txt	LTP251	ltpFR2	1	5	SUMMIT	1405	n/a	n/a	0	0	0
1204.05	n/a	REC_WORD	602025	wordpools/wasnorm_wordpool_576.txt	LTP251	ltpFR2	1	5	ANKLE	24	n/a	n/a	0	0	0
1205.42	n/a	REC_WORD	602710	wordpools/wasnorm_wordpool_576.txt	LTP251	ltpFR2	1	5	ELBOW	520	n/a	n/a	0	0	0
1206.846	n/a	REC_WORD	603423	wordpools/wasnorm_wordpool_576.txt	LTP251	ltpFR2	1	5	UNCLE	1536	n/a	n/a	0	0	0
1208.344	n/a	REC_WORD	604172	wordpools/wasnorm_wordpool_576.txt	LTP251	ltpFR2	1	5	FLESH	579	n/a	n/a	0	0	0
1211.224	n/a	REC_WORD	605612	wordpools/wasnorm_wordpool_576.txt	LTP251	ltpFR2	1	5	TORTOISE	1486	n/a	n/a	0	0	0
1212.654	n/a	REC_WORD	606327	wordpools/wasnorm_wordpool_576.txt	LTP251	ltpFR2	1	5	RABBIT	1152	n/a	n/a	0	0	0
1215.65	n/a	REC_WORD	607825	wordpools/wasnorm_wordpool_576.txt	LTP251	ltpFR2	1	5	BOYFRIEND	162	n/a	n/a	0	0	0
1218.488	n/a	REC_WORD	609244	wordpools/wasnorm_wordpool_576.txt	LTP251	ltpFR2	1	5	SIDEWALK	1303	n/a	n/a	0	0	0
1222.578	n/a	REC_WORD	611289	wordpools/wasnorm_wordpool_576.txt	LTP251	ltpFR2	1	5	LONDON	843	n/a	n/a	0	0	0
1225.712	n/a	REC_WORD	612856	wordpools/wasnorm_wordpool_576.txt	LTP251	ltpFR2	1	5	MISTER	901	n/a	n/a	0	0	0
1289.894	n/a	WORD	644947	wordpools/wasnorm_wordpool_576.txt	LTP251	ltpFR2	1	6	PUPPY	1144	n/a	n/a	0	0	0
1292.414	n/a	WORD	646207	wordpools/wasnorm_wordpool_576.txt	LTP251	ltpFR2	1	6	GUARD	667	n/a	n/a	0	0	0
1294.916	n/a	WORD	647458	wordpools/wasnorm_wordpool_576.txt	LTP251	ltpFR2	1	6	SNAKE	1333	n/a	n/a	0	0	0
1297.584	n/a	WORD	648792	wordpools/wasnorm_wordpool_576.txt	LTP251	ltpFR2	1	6	COIN	343	n/a	n/a	0	0	0
1300.336	n/a	WORD	650168	wordpools/wasnorm_wordpool_576.txt	LTP251	ltpFR2	1	6	DUSTPAN	509	n/a	n/a	0	0	0
1302.96	n/a	WORD	651480	wordpools/wasnorm_wordpool_576.txt	LTP251	ltpFR2	1	6	SWAMP	1416	n/a	n/a	0	0	0
1305.64	n/a	WORD	652820	wordpools/wasnorm_wordpool_576.txt	LTP251	ltpFR2	1	6	FOX	598	n/a	n/a	0	0	0
1308.226	n/a	WORD	654113	wordpools/wasnorm_wordpool_576.txt	LTP251	ltpFR2	1	6	CHAMPAGNE	278	n/a	n/a	0	0	0
1310.896	n/a	WORD	655448	wordpools/wasnorm_wordpool_576.txt	LTP251	ltpFR2	1	6	TEMPLE	1448	n/a	n/a	0	0	0
1313.546	n/a	WORD	656773	wordpools/wasnorm_wordpool_576.txt	LTP251	ltpFR2	1	6	RECEIPT	1173	n/a	n/a	0	0	0
1316.066	n/a	WORD	658033	wordpools/wasnorm_wordpool_576.txt	LTP251	ltpFR2	1	6	AIRPORT	13	n/a	n/a	0	0	0
1318.884	n/a	WORD	659442	wordpools/wasnorm_wordpool_576.txt	LTP251	ltpFR2	1	6	EYELASH	546	n/a	n/a	0	0	0
1321.636	n/a	WORD	660818	wordpools/wasnorm_wordpool_576.txt	LTP251	ltpFR2	1	6	PIGMENT	1066	n/a	n/a	0	0	0
1324.156	n/a	WORD	662078	wordpools/wasnorm_wordpool_576.txt	LTP251	ltpFR2	1	6	CRAYON	401	n/a	n/a	0	0	0
1326.64	n/a	WORD	663320	wordpools/wasnorm_wordpool_576.txt	LTP251	ltpFR2	1	6	PIMPLE	1071	n/a	n/a	0	0	0
1329.126	n/a	WORD	664563	wordpools/wasnorm_wordpool_576.txt	LTP251	ltpFR2	1	6	POLICE	1098	n/a	n/a	0	0	0
1331.896	n/a	WORD	665948	wordpools/wasnorm_wordpool_576.txt	LTP251	ltpFR2	1	6	UMPIRE	1535	n/a	n/a	0	0	0
1334.698	n/a	WORD	667349	wordpools/wasnorm_wordpool_576.txt	LTP251	ltpFR2	1	6	PARSLEY	1016	n/a	n/a	0	0	0
1337.5	n/a	WORD	668750	wordpools/wasnorm_wordpool_576.txt	LTP251	ltpFR2	1	6	SALT	1229	n/a	n/a	0	0	0
1340.252	n/a	WORD	670126	wordpools/wasnorm_wordpool_576.txt	LTP251	ltpFR2	1	6	MOP	916	n/a	n/a	0	0	0
1342.854	n/a	WORD	671427	wordpools/wasnorm_wordpool_576.txt	LTP251	ltpFR2	1	6	ORCHID	982	n/a	n/a	0	0	0
1345.322	n/a	WORD	672661	wordpools/wasnorm_wordpool_576.txt	LTP251	ltpFR2	1	6	ANTLER	29	n/a	n/a	0	0	0
1347.908	n/a	WORD	673954	wordpools/wasnorm_wordpool_576.txt	LTP251	ltpFR2	1	6	STONE	1385	n/a	n/a	0	0	0
1350.644	n/a	WORD	675322	wordpools/wasnorm_wordpool_576.txt	LTP251	ltpFR2	1	6	MUMMY	932	n/a	n/a	0	0	0
1352.278	n/a	START	676139	n/a	LTP251	ltpFR2	1	n/a	n/a	n/a	7	n/a	n/a	n/a	n/a
1353.462	n/a	DISTRACTOR	676731	n/a	LTP251	ltpFR2	1	6	n/a	n/a	n/a	n/a	0	0	0
1353.494	n/a	PROB	676747	n/a	LTP251	ltpFR2	1	n/a	n/a	n/a	7	15	7	5	3
1355.72	n/a	PROB	677860	n/a	LTP251	ltpFR2	1	n/a	n/a	n/a	7	9	5	1	2
1357.448	n/a	PROB	678724	n/a	LTP251	ltpFR2	1	n/a	n/a	n/a	7	11	2	3	6
1359.332	n/a	PROB	679666	n/a	LTP251	ltpFR2	1	n/a	n/a	n/a	7	17	4	4	9
1361.11	n/a	PROB	680555	n/a	LTP251	ltpFR2	1	n/a	n/a	n/a	7	15	2	5	8
1362.944	n/a	PROB	681472	n/a	LTP251	ltpFR2	1	n/a	n/a	n/a	7	22	7	7	8
1364.678	n/a	PROB	682339	n/a	LTP251	ltpFR2	1	n/a	n/a	n/a	7	24	8	9	7
1367.506	n/a	PROB	683753	n/a	LTP251	ltpFR2	1	n/a	n/a	n/a	7	19	6	9	4
1369.7	n/a	PROB	684850	n/a	LTP251	ltpFR2	1	n/a	n/a	n/a	7	18	5	5	8
1370.986	n/a	PROB	685493	n/a	LTP251	ltpFR2	1	n/a	n/a	n/a	7	22	5	9	6
1373.32	n/a	PROB	686660	n/a	LTP251	ltpFR2	1	n/a	n/a	n/a	7	15	2	3	9
1374.734	n/a	STOP	687367	n/a	LTP251	ltpFR2	1	n/a	n/a	n/a	7	n/a	n/a	n/a	n/a
1378.206	n/a	REC_START	689103	n/a	LTP251	ltpFR2	1	6	n/a	n/a	n/a	n/a	0	0	0
1380.078	n/a	REC_WORD	690039	wordpools/wasnorm_wordpool_576.txt	LTP251	ltpFR2	1	6	PUPPY	1144	n/a	n/a	0	0	0
1381.43	n/a	REC_WORD	690715	wordpools/wasnorm_wordpool_576.txt	LTP251	ltpFR2	1	6	COIN	343	n/a	n/a	0	0	0
1383.026	n/a	REC_WORD	691513	wordpools/wasnorm_wordpool_576.txt	LTP251	ltpFR2	1	6	DUSTPAN	509	n/a	n/a	0	0	0
1384.904	n/a	REC_WORD	692452	wordpools/wasnorm_wordpool_576.txt	LTP251	ltpFR2	1	6	MOP	916	n/a	n/a	0	0	0
1386.496	n/a	REC_WORD	693248	wordpools/wasnorm_wordpool_576.txt	LTP251	ltpFR2	1	6	CHAMPAGNE	278	n/a	n/a	0	0	0
1388.334	n/a	REC_WORD	694167	wordpools/wasnorm_wordpool_576.txt	LTP251	ltpFR2	1	6	PARSLEY	1016	n/a	n/a	0	0	0
1389.888	n/a	REC_WORD	694944	wordpools/wasnorm_wordpool_576.txt	LTP251	ltpFR2	1	6	SALT	1229	n/a	n/a	0	0	0
1391.354	n/a	REC_WORD	695677	wordpools/wasnorm_wordpool_576.txt	LTP251	ltpFR2	1	6	STONE	1385	n/a	n/a	0	0	0
1393.348	n/a	REC_WORD	696674	wordpools/wasnorm_wordpool_576.txt	LTP251	ltpFR2	1	6	AIRPORT	13	n/a	n/a	0	0	0
1395.134	n/a	REC_WORD	697567	wordpools/wasnorm_wordpool_576.txt	LTP251	ltpFR2	1	6	UMPIRE	1535	n/a	n/a	0	0	0
1397.652	n/a	REC_WORD	698826	wordpools/wasnorm_wordpool_576.txt	LTP251	ltpFR2	1	6	POLICE	1098	n/a	n/a	0	0	0
1400.678	n/a	REC_WORD	700339	wordpools/wasnorm_wordpool_576.txt	LTP251	ltpFR2	1	6	SHERIFF	1284	n/a	n/a	0	0	0
1408.214	n/a	REC_WORD	704107	wordpools/wasnorm_wordpool_576.txt	LTP251	ltpFR2	1	6	PIMPLE	1071	n/a	n/a	0	0	0
1469.002	n/a	DISTRACTOR	734501	n/a	LTP251	ltpFR2	1	7	n/a	n/a	n/a	n/a	0	0	0
1469.002	n/a	START	734501	n/a	LTP251	ltpFR2	1	n/a	n/a	n/a	8	n/a	n/a	n/a	n/a
1469.068	n/a	PROB	734534	n/a	LTP251	ltpFR2	1	n/a	n/a	n/a	8	13	1	9	2
1471.82	n/a	PROB	735910	n/a	LTP251	ltpFR2	1	n/a	n/a	n/a	8	16	2	8	6
1474.322	n/a	PROB	737161	n/a	LTP251	ltpFR2	1	n/a	n/a	n/a	8	16	6	9	1
1475.94	n/a	PROB	737970	n/a	LTP251	ltpFR2	1	n/a	n/a	n/a	8	19	4	8	7
1478.292	n/a	PROB	739146	n/a	LTP251	ltpFR2	1	n/a	n/a	n/a	8	131	2	6	5
1480.144	n/a	PROB	740072	n/a	LTP251	ltpFR2	1	n/a	n/a	n/a	8	16	7	4	5
1482.33	n/a	PROB	741165	n/a	LTP251	ltpFR2	1	n/a	n/a	n/a	8	12	3	1	8
1483.83	n/a	PROB	741915	n/a	LTP251	ltpFR2	1	n/a	n/a	n/a	8	13	6	3	4
1488.7	n/a	PROB	744350	n/a	LTP251	ltpFR2	1	n/a	n/a	n/a	8	16	7	5	4
1490.234	n/a	PROB	745117	n/a	LTP251	ltpFR2	1	n/a	n/a	n/a	8	14	6	4	4
1491.462	n/a	STOP	745731	n/a	LTP251	ltpFR2	1	n/a	n/a	n/a	8	n/a	n/a	n/a	n/a
1494.088	n/a	WORD	747044	wordpools/wasnorm_wordpool_576.txt	LTP251	ltpFR2	1	7	CELLAR	267	n/a	n/a	0	0	0
1496.84	n/a	WORD	748420	wordpools/wasnorm_wordpool_576.txt	LTP251	ltpFR2	1	7	BASEMENT	94	n/a	n/a	0	0	0
1499.51	n/a	WORD	749755	wordpools/wasnorm_wordpool_576.txt	LTP251	ltpFR2	1	7	ICEBERG	731	n/a	n/a	0	0	0
1502.278	n/a	WORD	751139	wordpools/wasnorm_wordpool_576.txt	LTP251	ltpFR2	1	7	FRUIT	610	n/a	n/a	0	0	0
1504.748	n/a	WORD	752374	wordpools/wasnorm_wordpool_576.txt	LTP251	ltpFR2	1	7	CAPTIVE	240	n/a	n/a	0	0	0
1507.266	n/a	WORD	753633	wordpools/wasnorm_wordpool_576.txt	LTP251	ltpFR2	1	7	CONVICT	371	n/a	n/a	0	0	0
1510.018	n/a	WORD	755009	wordpools/wasnorm_wordpool_576.txt	LTP251	ltpFR2	1	7	SCARECROW	1245	n/a	n/a	0	0	0
1512.686	n/a	WORD	756343	wordpools/wasnorm_wordpool_576.txt	LTP251	ltpFR2	1	7	PERCH	1048	n/a	n/a	0	0	0
1515.404	n/a	WORD	757702	wordpools/wasnorm_wordpool_576.txt	LTP251	ltpFR2	1	7	VENUS	1557	n/a	n/a	0	0	0
1517.974	n/a	WORD	758987	wordpools/wasnorm_wordpool_576.txt	LTP251	ltpFR2	1	7	FRANCE	601	n/a	n/a	0	0	0
1520.81	n/a	WORD	760405	wordpools/wasnorm_wordpool_576.txt	LTP251	ltpFR2	1	7	COUNTRY	388	n/a	n/a	0	0	0
1523.478	n/a	WORD	761739	wordpools/wasnorm_wordpool_576.txt	LTP251	ltpFR2	1	7	CONCERT	360	n/a	n/a	0	0	0
1526.162	n/a	WORD	763081	wordpools/wasnorm_wordpool_576.txt	LTP251	ltpFR2	1	7	FIDDLE	561	n/a	n/a	0	0	0
1528.752	n/a	WORD	764376	wordpools/wasnorm_wordpool_576.txt	LTP251	ltpFR2	1	7	GRAPE	654	n/a	n/a	0	0	0
1531.234	n/a	WORD	765617	wordpools/wasnorm_wordpool_576.txt	LTP251	ltpFR2	1	7	JAPAN	749	n/a	n/a	0	0	0
1533.884	n/a	WORD	766942	wordpools/wasnorm_wordpool_576.txt	LTP251	ltpFR2	1	7	BUCKET	184	n/a	n/a	0	0	0
1536.404	n/a	WORD	768202	wordpools/wasnorm_wordpool_576.txt	LTP251	ltpFR2	1	7	CROWN	415	n/a	n/a	0	0	0
1538.956	n/a	WORD	769478	wordpools/wasnorm_wordpool_576.txt	LTP251	ltpFR2	1	7	LOFT	840	n/a	n/a	0	0	0
1541.692	n/a	WORD	770846	wordpools/wasnorm_wordpool_576.txt	LTP251	ltpFR2	1	7	SODA	1341	n/a	n/a	0	0	0
1544.276	n/a	WORD	772138	wordpools/wasnorm_wordpool_576.txt	LTP251	ltpFR2	1	7	MARKET	871	n/a	n/a	0	0	0
1546.946	n/a	WORD	773473	wordpools/wasnorm_wordpool_576.txt	LTP251	ltpFR2	1	7	COMPASS	358	n/a	n/a	0	0	0
1549.798	n/a	WORD	774899	wordpools/wasnorm_wordpool_576.txt	LTP251	ltpFR2	1	7	MASK	876	n/a	n/a	0	0	0
1552.656	n/a	WORD	776328	wordpools/wasnorm_wordpool_576.txt	LTP251	ltpFR2	1	7	BUBBLE	183	n/a	n/a	0	0	0
1555.286	n/a	WORD	777643	wordpools/wasnorm_wordpool_576.txt	LTP251	ltpFR2	1	7	PASTA	1021	n/a	n/a	0	0	0
1556.92	n/a	START	778460	n/a	LTP251	ltpFR2	1	n/a	n/a	n/a	9	n/a	n/a	n/a	n/a
1557.998	n/a	DISTRACTOR	778999	n/a	LTP251	ltpFR2	1	7	n/a	n/a	n/a	n/a	0	0	0
1558.028	n/a	PROB	779014	n/a	LTP251	ltpFR2	1	n/a	n/a	n/a	9	23	8	9	6
1562.196	n/a	PROB	781098	n/a	LTP251	ltpFR2	1	n/a	n/a	n/a	9	17	6	5	6
1563.792	n/a	PROB	781896	n/a	LTP251	ltpFR2	1	n/a	n/a	n/a	9	13	6	6	1
1566.95	n/a	PROB	783475	n/a	LTP251	ltpFR2	1	n/a	n/a	n/a	9	20	9	7	4
1568.912	n/a	PROB	784456	n/a	LTP251	ltpFR2	1	n/a	n/a	n/a	9	13	2	3	8
1570.37	n/a	PROB	785185	n/a	LTP251	ltpFR2	1	n/a	n/a	n/a	9	16	2	8	6
1572.884	n/a	PROB	786442	n/a	LTP251	ltpFR2	1	n/a	n/a	n/a	9	8	3	3	2
1575.042	n/a	PROB	787521	n/a	LTP251	ltpFR2	1	n/a	n/a	n/a	9	16	5	5	6
1576.236	n/a	PROB	788118	n/a	LTP251	ltpFR2	1	n/a	n/a	n/a	9	8	3	3	2
1578.144	n/a	PROB	789072	n/a	LTP251	ltpFR2	1	n/a	n/a	n/a	9	9	2	6	1
1579.338	n/a	STOP	789669	n/a	LTP251	ltpFR2	1	n/a	n/a	n/a	9	n/a	n/a	n/a	n/a
1582.786	n/a	REC_START	791393	n/a	LTP251	ltpFR2	1	7	n/a	n/a	n/a	n/a	0	0	0
1584.566	n/a	REC_WORD	792283	wordpools/wasnorm_wordpool_576.txt	LTP251	ltpFR2	1	7	BASEMENT	94	n/a	n/a	0	0	0
1585.88	n/a	REC_WORD	792940	wordpools/wasnorm_wordpool_576.txt	LTP251	ltpFR2	1	7	CELLAR	267	n/a	n/a	0	0	0
1593.766	n/a	REC_WORD	796883	wordpools/wasnorm_wordpool_576.txt	LTP251	ltpFR2	1	7	COURT	391	n/a	n/a	0	0	0
1595.558	n/a	REC_WORD	797779	wordpools/wasnorm_wordpool_576.txt	LTP251	ltpFR2	1	7	VENUS	1557	n/a	n/a	0	0	0
1598.084	n/a	REC_WORD	799042	wordpools/wasnorm_wordpool_576.txt	LTP251	ltpFR2	1	7	FRANCE	601	n/a	n/a	0	0	0
1599.624	n/a	REC_WORD	799812	wordpools/wasnorm_wordpool_576.txt	LTP251	ltpFR2	1	7	COUNTRY	388	n/a	n/a	0	0	0
1601.026	n/a	REC_WORD	800513	wordpools/wasnorm_wordpool_576.txt	LTP251	ltpFR2	1	7	JAPAN	749	n/a	n/a	0	0	0
1602.966	n/a	REC_WORD	801483	wordpools/wasnorm_wordpool_576.txt	LTP251	ltpFR2	1	7	COMPASS	358	n/a	n/a	0	0	0
1604.654	n/a	REC_WORD	802327	wordpools/wasnorm_wordpool_576.txt	LTP251	ltpFR2	1	7	SCARECROW	1245	n/a	n/a	0	0	0
1607.528	n/a	REC_WORD	803764	wordpools/wasnorm_wordpool_576.txt	LTP251	ltpFR2	1	7	BUBBLE	183	n/a	n/a	0	0	0
1609.362	n/a	REC_WORD	804681	wordpools/wasnorm_wordpool_576.txt	LTP251	ltpFR2	1	7	PASTA	1021	n/a	n/a	0	0	0
1611.094	n/a	REC_WORD	805547	wordpools/wasnorm_wordpool_576.txt	LTP251	ltpFR2	1	7	SODA	1341	n/a	n/a	0	0	0
1613.9	n/a	REC_WORD	806950	wordpools/wasnorm_wordpool_576.txt	LTP251	ltpFR2	1	7	MASK	876	n/a	n/a	0	0	0
1616.622	n/a	REC_WORD	808311	wordpools/wasnorm_wordpool_576.txt	LTP251	ltpFR2	1	7	ICEBERG	731	n/a	n/a	0	0	0
1618.492	n/a	REC_WORD	809246	wordpools/wasnorm_wordpool_576.txt	LTP251	ltpFR2	1	7	BUCKET	184	n/a	n/a	0	0	0
1620.314	n/a	REC_WORD	810157	wordpools/wasnorm_wordpool_576.txt	LTP251	ltpFR2	1	7	CAPTIVE	240	n/a	n/a	0	0	0
1673.596	n/a	DISTRACTOR	836798	n/a	LTP251	ltpFR2	1	8	n/a	n/a	n/a	n/a	0	0	0
1673.596	n/a	START	836798	n/a	LTP251	ltpFR2	1	n/a	n/a	n/a	10	n/a	n/a	n/a	n/a
1673.658	n/a	PROB	836829	n/a	LTP251	ltpFR2	1	n/a	n/a	n/a	10	11	1	7	3
1675.58	n/a	PROB	837790	n/a	LTP251	ltpFR2	1	n/a	n/a	n/a	10	15	4	2	9
1677.464	n/a	PROB	838732	n/a	LTP251	ltpFR2	1	n/a	n/a	n/a	10	11	8	1	2
1680.15	n/a	PROB	840075	n/a	LTP251	ltpFR2	1	n/a	n/a	n/a	10	10	2	1	7
1681.566	n/a	PROB	840783	n/a	LTP251	ltpFR2	1	n/a	n/a	n/a	10	19	4	6	9
1684.534	n/a	PROB	842267	n/a	LTP251	ltpFR2	1	n/a	n/a	n/a	10	7	4	1	2
1686.236	n/a	PROB	843118	n/a	LTP251	ltpFR2	1	n/a	n/a	n/a	10	12	2	9	1
1687.822	n/a	PROB	843911	n/a	LTP251	ltpFR2	1	n/a	n/a	n/a	10	18	7	5	6
1689.422	n/a	PROB	844711	n/a	LTP251	ltpFR2	1	n/a	n/a	n/a	10	23	6	9	8
1691.622	n/a	PROB	845811	n/a	LTP251	ltpFR2	1	n/a	n/a	n/a	10	12	4	2	6
1693.092	n/a	PROB	846546	n/a	LTP251	ltpFR2	1	n/a	n/a	n/a	10	20	8	5	7
1694.944	n/a	PROB	847472	n/a	LTP251	ltpFR2	1	n/a	n/a	n/a	10	14	3	6	5
1696.316	n/a	STOP	848158	n/a	LTP251	ltpFR2	1	n/a	n/a	n/a	10	n/a	n/a	n/a	n/a
1698.568	n/a	WORD	849284	wordpools/wasnorm_wordpool_576.txt	LTP251	ltpFR2	1	8	BACKBONE	66	n/a	n/a	0	0	0
1701.048	n/a	WORD	850524	wordpools/wasnorm_wordpool_576.txt	LTP251	ltpFR2	1	8	CUPBOARD	425	n/a	n/a	0	0	0
1703.618	n/a	WORD	851809	wordpools/wasnorm_wordpool_576.txt	LTP251	ltpFR2	1	8	WRENCH	1625	n/a	n/a	0	0	0
1706.186	n/a	WORD	853093	wordpools/wasnorm_wordpool_576.txt	LTP251	ltpFR2	1	8	HATCHET	691	n/a	n/a	0	0	0
1709.006	n/a	WORD	854503	wordpools/wasnorm_wordpool_576.txt	LTP251	ltpFR2	1	8	PREACHER	1119	n/a	n/a	0	0	0
1711.59	n/a	WORD	855795	wordpools/wasnorm_wordpool_576.txt	LTP251	ltpFR2	1	8	PARROT	1015	n/a	n/a	0	0	0
1714.126	n/a	WORD	857063	wordpools/wasnorm_wordpool_576.txt	LTP251	ltpFR2	1	8	BANKER	84	n/a	n/a	0	0	0
1716.844	n/a	WORD	858422	wordpools/wasnorm_wordpool_576.txt	LTP251	ltpFR2	1	8	COFFEE	341	n/a	n/a	0	0	0
1719.714	n/a	WORD	859857	wordpools/wasnorm_wordpool_576.txt	LTP251	ltpFR2	1	8	SWORD	1423	n/a	n/a	0	0	0
1722.482	n/a	WORD	861241	wordpools/wasnorm_wordpool_576.txt	LTP251	ltpFR2	1	8	POCKET	1093	n/a	n/a	0	0	0
1725.134	n/a	WORD	862567	wordpools/wasnorm_wordpool_576.txt	LTP251	ltpFR2	1	8	HOOK	715	n/a	n/a	0	0	0
1727.67	n/a	WORD	863835	wordpools/wasnorm_wordpool_576.txt	LTP251	ltpFR2	1	8	PUDDLE	1140	n/a	n/a	0	0	0
1730.422	n/a	WORD	865211	wordpools/wasnorm_wordpool_576.txt	LTP251	ltpFR2	1	8	RELISH	1183	n/a	n/a	0	0	0
1733.092	n/a	WORD	866546	wordpools/wasnorm_wordpool_576.txt	LTP251	ltpFR2	1	8	TILE	1468	n/a	n/a	0	0	0
1735.826	n/a	WORD	867913	wordpools/wasnorm_wordpool_576.txt	LTP251	ltpFR2	1	8	BARLEY	88	n/a	n/a	0	0	0
1738.364	n/a	WORD	869182	wordpools/wasnorm_wordpool_576.txt	LTP251	ltpFR2	1	8	GLOVE	642	n/a	n/a	0	0	0
1741.098	n/a	WORD	870549	wordpools/wasnorm_wordpool_576.txt	LTP251	ltpFR2	1	8	AUTHOR	61	n/a	n/a	0	0	0
1743.65	n/a	WORD	871825	wordpools/wasnorm_wordpool_576.txt	LTP251	ltpFR2	1	8	MEAT	883	n/a	n/a	0	0	0
1746.32	n/a	WORD	873160	wordpools/wasnorm_wordpool_576.txt	LTP251	ltpFR2	1	8	BUTCHER	203	n/a	n/a	0	0	0
1748.938	n/a	WORD	874469	wordpools/wasnorm_wordpool_576.txt	LTP251	ltpFR2	1	8	SHARK	1275	n/a	n/a	0	0	0
1751.674	n/a	WORD	875837	wordpools/wasnorm_wordpool_576.txt	LTP251	ltpFR2	1	8	SEAGULL	1261	n/a	n/a	0	0	0
1754.46	n/a	WORD	877230	wordpools/wasnorm_wordpool_576.txt	LTP251	ltpFR2	1	8	VIKING	1565	n/a	n/a	0	0	0
1757.328	n/a	WORD	878664	wordpools/wasnorm_wordpool_576.txt	LTP251	ltpFR2	1	8	TRUCK	1512	n/a	n/a	0	0	0
1760.082	n/a	WORD	880041	wordpools/wasnorm_wordpool_576.txt	LTP251	ltpFR2	1	8	CANAL	226	n/a	n/a	0	0	0
1761.716	n/a	START	880858	n/a	LTP251	ltpFR2	1	n/a	n/a	n/a	11	n/a	n/a	n/a	n/a
1762.89	n/a	DISTRACTOR	881445	n/a	LTP251	ltpFR2	1	8	n/a	n/a	n/a	n/a	0	0	0
1762.918	n/a	PROB	881459	n/a	LTP251	ltpFR2	1	n/a	n/a	n/a	11	20	5	6	9
1769.306	n/a	PROB	884653	n/a	LTP251	ltpFR2	1	n/a	n/a	n/a	11	18	7	8	3
1770.954	n/a	PROB	885477	n/a	LTP251	ltpFR2	1	n/a	n/a	n/a	11	13	3	9	1
1772.442	n/a	PROB	886221	n/a	LTP251	ltpFR2	1	n/a	n/a	n/a	11	13	5	2	6
1774.294	n/a	PROB	887147	n/a	LTP251	ltpFR2	1	n/a	n/a	n/a	11	19	7	5	7
1776.51	n/a	PROB	888255	n/a	LTP251	ltpFR2	1	n/a	n/a	n/a	11	19	9	2	8
1778.88	n/a	PROB	889440	n/a	LTP251	ltpFR2	1	n/a	n/a	n/a	11	10	5	4	1
1780.264	n/a	PROB	890132	n/a	LTP251	ltpFR2	1	n/a	n/a	n/a	11	18	5	5	8
1781.478	n/a	PROB	890739	n/a	LTP251	ltpFR2	1	n/a	n/a	n/a	11	12	8	3	1
1783.416	n/a	PROB	891708	n/a	LTP251	ltpFR2	1	n/a	n/a	n/a	11	10	4	2	4
1785.086	n/a	STOP	892543	n/a	LTP251	ltpFR2	1	n/a	n/a	n/a	11	n/a	n/a	n/a	n/a
1787.734	n/a	REC_START	893867	n/a	LTP251	ltpFR2	1	8	n/a	n/a	n/a	n/a	0	0	0
1789.258	n/a	REC_WORD	894629	wordpools/wasnorm_wordpool_576.txt	LTP251	ltpFR2	1	8	PREACHER	1119	n/a	n/a	0	0	0
1790.98	n/a	REC_WORD	895490	wordpools/wasnorm_wordpool_576.txt	LTP251	ltpFR2	1	8	BANKER	84	n/a	n/a	0	0	0
1792.678	n/a	REC_WORD	896339	wordpools/wasnorm_wordpool_576.txt	LTP251	ltpFR2	1	8	HOOK	715	n/a	n/a	0	0	0
1794.218	n/a	REC_WORD	897109	wordpools/wasnorm_wordpool_576.txt	LTP251	ltpFR2	1	8	VIKING	1565	n/a	n/a	0	0	0
1796.204	n/a	REC_WORD	898102	wordpools/wasnorm_wordpool_576.txt	LTP251	ltpFR2	1	8	BACKBONE	66	n/a	n/a	0	0	0
1798.084	n/a	REC_WORD	899042	wordpools/wasnorm_wordpool_576.txt	LTP251	ltpFR2	1	8	HATCHET	691	n/a	n/a	0	0	0
1799.612	n/a	REC_WORD	899806	wordpools/wasnorm_wordpool_576.txt	LTP251	ltpFR2	1	8	WRENCH	1625	n/a	n/a	0	0	0
1801.116	n/a	REC_WORD	900558	wordpools/wasnorm_wordpool_576.txt	LTP251	ltpFR2	1	8	SWORD	1423	n/a	n/a	0	0	0
1803.098	n/a	REC_WORD	901549	wordpools/wasnorm_wordpool_576.txt	LTP251	ltpFR2	1	8	TILE	1468	n/a	n/a	0	0	0
1805.06	n/a	REC_WORD	902530	wordpools/wasnorm_wordpool_576.txt	LTP251	ltpFR2	1	8	SEAGULL	1261	n/a	n/a	0	0	0
1807.09	n/a	REC_WORD	903545	wordpools/wasnorm_wordpool_576.txt	LTP251	ltpFR2	1	8	TRUCK	1512	n/a	n/a	0	0	0
1809.18	n/a	REC_WORD	904590	wordpools/wasnorm_wordpool_576.txt	LTP251	ltpFR2	1	8	RELISH	1183	n/a	n/a	0	0	0
1810.896	n/a	REC_WORD	905448	wordpools/wasnorm_wordpool_576.txt	LTP251	ltpFR2	1	8	MEAT	883	n/a	n/a	0	0	0
1813.134	n/a	REC_WORD	906567	wordpools/wasnorm_wordpool_576.txt	LTP251	ltpFR2	1	8	COFFEE	341	n/a	n/a	0	0	0
1828.996	n/a	REC_WORD	914498	wordpools/wasnorm_wordpool_576.txt	LTP251	ltpFR2	1	8	GLOVE	642	n/a	n/a	0	0	0
1864.32	n/a	REST_REWET	932160	n/a	LTP251	ltpFR2	1	8	n/a	n/a	n/a	n/a	0	0	0
2245.176	n/a	DISTRACTOR	1122588	n/a	LTP251	ltpFR2	1	9	n/a	n/a	n/a	n/a	0	0	0
2245.176	n/a	START	1122588	n/a	LTP251	ltpFR2	1	n/a	n/a	n/a	12	n/a	n/a	n/a	n/a
2245.242	n/a	PROB	1122621	n/a	LTP251	ltpFR2	1	n/a	n/a	n/a	12	11	2	4	5
2246.928	n/a	PROB	1123464	n/a	LTP251	ltpFR2	1	n/a	n/a	n/a	12	10	7	2	1
2248.962	n/a	PROB	1124481	n/a	LTP251	ltpFR2	1	n/a	n/a	n/a	12	24	9	6	9
2252.148	n/a	PROB	1126074	n/a	LTP251	ltpFR2	1	n/a	n/a	n/a	12	11	6	4	1
2253.364	n/a	PROB	1126682	n/a	LTP251	ltpFR2	1	n/a	n/a	n/a	12	15	4	8	3
2255.036	n/a	PROB	1127518	n/a	LTP251	ltpFR2	1	n/a	n/a	n/a	12	21	9	4	9
2257.152	n/a	PROB	1128576	n/a	LTP251	ltpFR2	1	n/a	n/a	n/a	12	18	6	4	8
2258.604	n/a	PROB	1129302	n/a	LTP251	ltpFR2	1	n/a	n/a	n/a	12	3	1	1	1
2259.802	n/a	PROB	1129901	n/a	LTP251	ltpFR2	1	n/a	n/a	n/a	12	15	1	9	5
2261.19	n/a	PROB	1130595	n/a	LTP251	ltpFR2	1	n/a	n/a	n/a	12	12	1	6	5
2269.176	n/a	STOP	1134588	n/a	LTP251	ltpFR2	1	n/a	n/a	n/a	12	n/a	n/a	n/a	n/a
2270.112	n/a	WORD	1135056	wordpools/wasnorm_wordpool_576.txt	LTP251	ltpFR2	1	9	BULLET	194	n/a	n/a	0	0	0
2272.966	n/a	WORD	1136483	wordpools/wasnorm_wordpool_576.txt	LTP251	ltpFR2	1	9	PISTOL	1075	n/a	n/a	0	0	0
2275.55	n/a	WORD	1137775	wordpools/wasnorm_wordpool_576.txt	LTP251	ltpFR2	1	9	FREEZER	604	n/a	n/a	0	0	0
2278.334	n/a	WORD	1139167	wordpools/wasnorm_wordpool_576.txt	LTP251	ltpFR2	1	9	KLEENEX	782	n/a	n/a	0	0	0
2280.886	n/a	WORD	1140443	wordpools/wasnorm_wordpool_576.txt	LTP251	ltpFR2	1	9	EXPERT	543	n/a	n/a	0	0	0
2283.46	n/a	WORD	1141730	wordpools/wasnorm_wordpool_576.txt	LTP251	ltpFR2	1	9	THIEF	1456	n/a	n/a	0	0	0
2286.258	n/a	WORD	1143129	wordpools/wasnorm_wordpool_576.txt	LTP251	ltpFR2	1	9	LILY	821	n/a	n/a	0	0	0
2288.842	n/a	WORD	1144421	wordpools/wasnorm_wordpool_576.txt	LTP251	ltpFR2	1	9	FRAME	600	n/a	n/a	0	0	0
2291.684	n/a	WORD	1145842	wordpools/wasnorm_wordpool_576.txt	LTP251	ltpFR2	1	9	TUTU	1524	n/a	n/a	0	0	0
2294.464	n/a	WORD	1147232	wordpools/wasnorm_wordpool_576.txt	LTP251	ltpFR2	1	9	TAXI	1438	n/a	n/a	0	0	0
2297.138	n/a	WORD	1148569	wordpools/wasnorm_wordpool_576.txt	LTP251	ltpFR2	1	9	THREAD	1460	n/a	n/a	0	0	0
2299.884	n/a	WORD	1149942	wordpools/wasnorm_wordpool_576.txt	LTP251	ltpFR2	1	9	SUSPECT	1415	n/a	n/a	0	0	0
2302.392	n/a	WORD	1151196	wordpools/wasnorm_wordpool_576.txt	LTP251	ltpFR2	1	9	FLOWER	584	n/a	n/a	0	0	0
2304.912	n/a	WORD	1152456	wordpools/wasnorm_wordpool_576.txt	LTP251	ltpFR2	1	9	SUNRISE	1407	n/a	n/a	0	0	0
2307.574	n/a	WORD	1153787	wordpools/wasnorm_wordpool_576.txt	LTP251	ltpFR2	1	9	HOUND	724	n/a	n/a	0	0	0
2310.292	n/a	WORD	1155146	wordpools/wasnorm_wordpool_576.txt	LTP251	ltpFR2	1	9	CLOTHES	327	n/a	n/a	0	0	0
2312.762	n/a	WORD	1156381	wordpools/wasnorm_wordpool_576.txt	LTP251	ltpFR2	1	9	POET	1095	n/a	n/a	0	0	0
2315.37	n/a	WORD	1157685	wordpools/wasnorm_wordpool_576.txt	LTP251	ltpFR2	1	9	MARS	873	n/a	n/a	0	0	0
2317.956	n/a	WORD	1158978	wordpools/wasnorm_wordpool_576.txt	LTP251	ltpFR2	1	9	GROUND	666	n/a	n/a	0	0	0
2320.62	n/a	WORD	1160310	wordpools/wasnorm_wordpool_576.txt	LTP251	ltpFR2	1	9	FLUTE	585	n/a	n/a	0	0	0
2323.296	n/a	WORD	1161648	wordpools/wasnorm_wordpool_576.txt	LTP251	ltpFR2	1	9	APRON	35	n/a	n/a	0	0	0
2325.912	n/a	WORD	1162956	wordpools/wasnorm_wordpool_576.txt	LTP251	ltpFR2	1	9	SPOUSE	1358	n/a	n/a	0	0	0
2328.574	n/a	WORD	1164287	wordpools/wasnorm_wordpool_576.txt	LTP251	ltpFR2	1	9	LIGHTNING	820	n/a	n/a	0	0	0
2331.05	n/a	WORD	1165525	wordpools/wasnorm_wordpool_576.txt	LTP251	ltpFR2	1	9	COMET	353	n/a	n/a	0	0	0
2332.686	n/a	START	1166343	n/a	LTP251	ltpFR2	1	n/a	n/a	n/a	13	n/a	n/a	n/a	n/a
2333.728	n/a	DISTRACTOR	1166864	n/a	LTP251	ltpFR2	1	9	n/a	n/a	n/a	n/a	0	0	0
2333.76	n/a	PROB	1166880	n/a	LTP251	ltpFR2	1	n/a	n/a	n/a	13	11	3	1	7
2337.09	n/a	PROB	1168545	n/a	LTP251	ltpFR2	1	n/a	n/a	n/a	13	18	6	8	4
2338.89	n/a	PROB	1169445	n/a	LTP251	ltpFR2	1	n/a	n/a	n/a	13	17	7	1	9
2340.916	n/a	PROB	1170458	n/a	LTP251	ltpFR2	1	n/a	n/a	n/a	13	17	8	8	1
2342.85	n/a	PROB	1171425	n/a	LTP251	ltpFR2	1	n/a	n/a	n/a	13	19	7	4	8
2346.92	n/a	PROB	1173460	n/a	LTP251	ltpFR2	1	n/a	n/a	n/a	13	15	7	7	1
2348.79	n/a	PROB	1174395	n/a	LTP251	ltpFR2	1	n/a	n/a	n/a	13	11	2	5	4
2350.89	n/a	PROB	1175445	n/a	LTP251	ltpFR2	1	n/a	n/a	n/a	13	12	2	4	6
2353.252	n/a	PROB	1176626	n/a	LTP251	ltpFR2	1	n/a	n/a	n/a	13	15	2	9	4
2356.686	n/a	STOP	1178343	n/a	LTP251	ltpFR2	1	n/a	n/a	n/a	13	n/a	n/a	n/a	n/a
2358.702	n/a	REC_START	1179351	n/a	LTP251	ltpFR2	1	9	n/a	n/a	n/a	n/a	0	0	0
2360.244	n/a	REC_WORD	1180122	wordpools/wasnorm_wordpool_576.txt	LTP251	ltpFR2	1	9	COMET	353	n/a	n/a	0	0	0
2361.686	n/a	REC_WORD	1180843	wordpools/wasnorm_wordpool_576.txt	LTP251	ltpFR2	1	9	LIGHTNING	820	n/a	n/a	0	0	0
2366.682	n/a	REC_WORD	1183341	wordpools/wasnorm_wordpool_576.txt	LTP251	ltpFR2	1	9	GROUND	666	n/a	n/a	0	0	0
2368.296	n/a	REC_WORD	1184148	wordpools/wasnorm_wordpool_576.txt	LTP251	ltpFR2	1	9	THIEF	1456	n/a	n/a	0	0	0
2369.482	n/a	REC_WORD	1184741	wordpools/wasnorm_wordpool_576.txt	LTP251	ltpFR2	1	9	THREAD	1460	n/a	n/a	0	0	0
2370.992	n/a	REC_WORD	1185496	wordpools/wasnorm_wordpool_576.txt	LTP251	ltpFR2	1	9	SUNRISE	1407	n/a	n/a	0	0	0
2372.802	n/a	REC_WORD	1186401	wordpools/wasnorm_wordpool_576.txt	LTP251	ltpFR2	1	9	TAXI	1438	n/a	n/a	0	0	0
2377.042	n/a	REC_WORD	1188521	wordpools/wasnorm_wordpool_576.txt	LTP251	ltpFR2	1	9	LILY	821	n/a	n/a	0	0	0
2378.29	n/a	REC_WORD	1189145	wordpools/wasnorm_wordpool_576.txt	LTP251	ltpFR2	1	9	FLOWER	584	n/a	n/a	0	0	0
2380.9	n/a	REC_WORD	1190450	wordpools/wasnorm_wordpool_576.txt	LTP251	ltpFR2	1	9	BULLET	194	n/a	n/a	0	0	0
2382.11	n/a	REC_WORD	1191055	wordpools/wasnorm_wordpool_576.txt	LTP251	ltpFR2	1	9	PISTOL	1075	n/a	n/a	0	0	0
2383.456	n/a	REC_WORD	1191728	wordpools/wasnorm_wordpool_576.txt	LTP251	ltpFR2	1	9	FREEZER	604	n/a	n/a	0	0	0
2385.16	n/a	REC_WORD	1192580	wordpools/wasnorm_wordpool_576.txt	LTP251	ltpFR2	1	9	THREAD	1460	n/a	n/a	0	0	0
2390.908	n/a	REC_WORD	1195454	wordpools/wasnorm_wordpool_576.txt	LTP251	ltpFR2	1	9	HOUND	724	n/a	n/a	0	0	0
2394.326	n/a	REC_WORD	1197163	wordpools/wasnorm_wordpool_576.txt	LTP251	ltpFR2	1	9	SUSPECT	1415	n/a	n/a	0	0	0
2449.602	n/a	WORD	1224801	wordpools/wasnorm_wordpool_576.txt	LTP251	ltpFR2	1	10	GRAVE	658	n/a	n/a	0	0	0
2452.42	n/a	WORD	1226210	wordpools/wasnorm_wordpool_576.txt	LTP251	ltpFR2	1	10	TRENCH	1503	n/a	n/a	0	0	0
2455.206	n/a	WORD	1227603	wordpools/wasnorm_wordpool_576.txt	LTP251	ltpFR2	1	10	FARMER	553	n/a	n/a	0	0	0
2457.942	n/a	WORD	1228971	wordpools/wasnorm_wordpool_576.txt	LTP251	ltpFR2	1	10	CATCHER	258	n/a	n/a	0	0	0
2460.678	n/a	WORD	1230339	wordpools/wasnorm_wordpool_576.txt	LTP251	ltpFR2	1	10	FOOTBALL	591	n/a	n/a	0	0	0
2463.528	n/a	WORD	1231764	wordpools/wasnorm_wordpool_576.txt	LTP251	ltpFR2	1	10	EAGLE	512	n/a	n/a	0	0	0
2466.382	n/a	WORD	1233191	wordpools/wasnorm_wordpool_576.txt	LTP251	ltpFR2	1	10	DANDRUFF	439	n/a	n/a	0	0	0
2469.184	n/a	WORD	1234592	wordpools/wasnorm_wordpool_576.txt	LTP251	ltpFR2	1	10	LIPSTICK	829	n/a	n/a	0	0	0
2471.936	n/a	WORD	1235968	wordpools/wasnorm_wordpool_576.txt	LTP251	ltpFR2	1	10	WHISTLE	1606	n/a	n/a	0	0	0
2474.754	n/a	WORD	1237377	wordpools/wasnorm_wordpool_576.txt	LTP251	ltpFR2	1	10	JELLO	754	n/a	n/a	0	0	0
2477.324	n/a	WORD	1238662	wordpools/wasnorm_wordpool_576.txt	LTP251	ltpFR2	1	10	PROTON	1132	n/a	n/a	0	0	0
2480.144	n/a	WORD	1240072	wordpools/wasnorm_wordpool_576.txt	LTP251	ltpFR2	1	10	PRINCESS	1125	n/a	n/a	0	0	0
2482.962	n/a	WORD	1241481	wordpools/wasnorm_wordpool_576.txt	LTP251	ltpFR2	1	10	HAND	683	n/a	n/a	0	0	0
2485.714	n/a	WORD	1242857	wordpools/wasnorm_wordpool_576.txt	LTP251	ltpFR2	1	10	SHELTER	1282	n/a	n/a	0	0	0
2488.282	n/a	WORD	1244141	wordpools/wasnorm_wordpool_576.txt	LTP251	ltpFR2	1	10	ATOM	55	n/a	n/a	0	0	0
2491.15	n/a	WORD	1245575	wordpools/wasnorm_wordpool_576.txt	LTP251	ltpFR2	1	10	RACKET	1155	n/a	n/a	0	0	0
2493.752	n/a	WORD	1246876	wordpools/wasnorm_wordpool_576.txt	LTP251	ltpFR2	1	10	SHELF	1280	n/a	n/a	0	0	0
2496.358	n/a	WORD	1248179	wordpools/wasnorm_wordpool_576.txt	LTP251	ltpFR2	1	10	ARM	38	n/a	n/a	0	0	0
2498.874	n/a	WORD	1249437	wordpools/wasnorm_wordpool_576.txt	LTP251	ltpFR2	1	10	LEADER	807	n/a	n/a	0	0	0
2501.726	n/a	WORD	1250863	wordpools/wasnorm_wordpool_576.txt	LTP251	ltpFR2	1	10	TROMBONE	1508	n/a	n/a	0	0	0
2504.228	n/a	WORD	1252114	wordpools/wasnorm_wordpool_576.txt	LTP251	ltpFR2	1	10	CABBAGE	210	n/a	n/a	0	0	0
2506.9	n/a	WORD	1253450	wordpools/wasnorm_wordpool_576.txt	LTP251	ltpFR2	1	10	CHEST	295	n/a	n/a	0	0	0
2509.648	n/a	WORD	1254824	wordpools/wasnorm_wordpool_576.txt	LTP251	ltpFR2	1	10	BRICK	172	n/a	n/a	0	0	0
2512.35	n/a	WORD	1256175	wordpools/wasnorm_wordpool_576.txt	LTP251	ltpFR2	1	10	COTTAGE	384	n/a	n/a	0	0	0
2513.986	n/a	START	1256993	n/a	LTP251	ltpFR2	1	n/a	n/a	n/a	14	n/a	n/a	n/a	n/a
2514.814	n/a	DISTRACTOR	1257407	n/a	LTP251	ltpFR2	1	10	n/a	n/a	n/a	n/a	0	0	0
2514.852	n/a	PROB	1257426	n/a	LTP251	ltpFR2	1	n/a	n/a	n/a	14	5	1	1	3
2517.088	n/a	PROB	1258544	n/a	LTP251	ltpFR2	1	n/a	n/a	n/a	14	22	9	9	4
2519.638	n/a	PROB	1259819	n/a	LTP251	ltpFR2	1	n/a	n/a	n/a	14	15	6	4	5
2524.044	n/a	PROB	1262022	n/a	LTP251	ltpFR2	1	n/a	n/a	n/a	14	16	8	2	6
2525.61	n/a	PROB	1262805	n/a	LTP251	ltpFR2	1	n/a	n/a	n/a	14	12	2	4	6
2527.884	n/a	PROB	1263942	n/a	LTP251	ltpFR2	1	n/a	n/a	n/a	14	17	7	9	1
2529.464	n/a	PROB	1264732	n/a	LTP251	ltpFR2	1	n/a	n/a	n/a	14	19	5	8	6
2531.938	n/a	PROB	1265969	n/a	LTP251	ltpFR2	1	n/a	n/a	n/a	14	12	4	7	1
2533.666	n/a	PROB	1266833	n/a	LTP251	ltpFR2	1	n/a	n/a	n/a	14	9	2	1	6
2535.318	n/a	PROB	1267659	n/a	LTP251	ltpFR2	1	n/a	n/a	n/a	14	12	4	4	4
2537.386	n/a	STOP	1268693	n/a	LTP251	ltpFR2	1	n/a	n/a	n/a	14	n/a	n/a	n/a	n/a
2539.916	n/a	REC_START	1269958	n/a	LTP251	ltpFR2	1	10	n/a	n/a	n/a	n/a	0	0	0
2541.628	n/a	REC_WORD	1270814	wordpools/wasnorm_wordpool_576.txt	LTP251	ltpFR2	1	10	TRENCH	1503	n/a	n/a	0	0	0
2542.874	n/a	REC_WORD	1271437	wordpools/wasnorm_wordpool_576.txt	LTP251	ltpFR2	1	10	GRAVE	658	n/a	n/a	0	0	0
2544.234	n/a	REC_WORD	1272117	wordpools/wasnorm_wordpool_576.txt	LTP251	ltpFR2	1	10	SHELF	1280	n/a	n/a	0	0	0
2545.67	n/a	REC_WORD	1272835	wordpools/wasnorm_wordpool_576.txt	LTP251	ltpFR2	1	10	SHELTER	1282	n/a	n/a	0	0	0
2547.362	n/a	REC_WORD	1273681	wordpools/wasnorm_wordpool_576.txt	LTP251	ltpFR2	1	10	BRICK	172	n/a	n/a	0	0	0
2548.686	n/a	REC_WORD	1274343	wordpools/wasnorm_wordpool_576.txt	LTP251	ltpFR2	1	10	HAND	683	n/a	n/a	0	0	0
2550.144	n/a	REC_WORD	1275072	wordpools/wasnorm_wordpool_576.txt	LTP251	ltpFR2	1	10	ARM	38	n/a	n/a	0	0	0
2551.66	n/a	REC_WORD	1275830	wordpools/wasnorm_wordpool_576.txt	LTP251	ltpFR2	1	10	CHEST	295	n/a	n/a	0	0	0
2553.332	n/a	REC_WORD	1276666	wordpools/wasnorm_wordpool_576.txt	LTP251	ltpFR2	1	10	PROTON	1132	n/a	n/a	0	0	0
2554.94	n/a	REC_WORD	1277470	wordpools/wasnorm_wordpool_576.txt	LTP251	ltpFR2	1	10	ATOM	55	n/a	n/a	0	0	0
2556.454	n/a	REC_WORD	1278227	wordpools/wasnorm_wordpool_576.txt	LTP251	ltpFR2	1	10	FARMER	553	n/a	n/a	0	0	0
2558.024	n/a	REC_WORD	1279012	wordpools/wasnorm_wordpool_576.txt	LTP251	ltpFR2	1	10	CATCHER	258	n/a	n/a	0	0	0
2559.608	n/a	REC_WORD	1279804	wordpools/wasnorm_wordpool_576.txt	LTP251	ltpFR2	1	10	FOOTBALL	591	n/a	n/a	0	0	0
2561.398	n/a	REC_WORD	1280699	wordpools/wasnorm_wordpool_576.txt	LTP251	ltpFR2	1	10	EAGLE	512	n/a	n/a	0	0	0
2563.002	n/a	REC_WORD	1281501	wordpools/wasnorm_wordpool_576.txt	LTP251	ltpFR2	1	10	TROMBONE	1508	n/a	n/a	0	0	0
2565.058	n/a	REC_WORD	1282529	wordpools/wasnorm_wordpool_576.txt	LTP251	ltpFR2	1	10	LIPSTICK	829	n/a	n/a	0	0	0
2566.986	n/a	REC_WORD	1283493	wordpools/wasnorm_wordpool_576.txt	LTP251	ltpFR2	1	10	LEADER	807	n/a	n/a	0	0	0
2568.71	n/a	REC_WORD	1284355	wordpools/wasnorm_wordpool_576.txt	LTP251	ltpFR2	1	10	WHISTLE	1606	n/a	n/a	0	0	0
2573.52	n/a	REC_WORD	1286760	wordpools/wasnorm_wordpool_576.txt	LTP251	ltpFR2	1	10	RACKET	1155	n/a	n/a	0	0	0
2575.478	n/a	REC_WORD	1287739	wordpools/wasnorm_wordpool_576.txt	LTP251	ltpFR2	1	10	PRINCESS	1125	n/a	n/a	0	0	0
2630.722	n/a	DISTRACTOR	1315361	n/a	LTP251	ltpFR2	1	11	n/a	n/a	n/a	n/a	0	0	0
2630.722	n/a	START	1315361	n/a	LTP251	ltpFR2	1	n/a	n/a	n/a	15	n/a	n/a	n/a	n/a
2630.776	n/a	PROB	1315388	n/a	LTP251	ltpFR2	1	n/a	n/a	n/a	15	13	5	4	4
2633.508	n/a	PROB	1316754	n/a	LTP251	ltpFR2	1	n/a	n/a	n/a	15	17	6	3	8
2635.276	n/a	PROB	1317638	n/a	LTP251	ltpFR2	1	n/a	n/a	n/a	15	10	1	1	8
2636.76	n/a	PROB	1318380	n/a	LTP251	ltpFR2	1	n/a	n/a	n/a	15	16	4	8	4
2638.212	n/a	PROB	1319106	n/a	LTP251	ltpFR2	1	n/a	n/a	n/a	15	20	9	2	9
2640.15	n/a	PROB	1320075	n/a	LTP251	ltpFR2	1	n/a	n/a	n/a	15	15	9	3	3
2641.932	n/a	PROB	1320966	n/a	LTP251	ltpFR2	1	n/a	n/a	n/a	15	3	1	1	1
2642.95	n/a	PROB	1321475	n/a	LTP251	ltpFR2	1	n/a	n/a	n/a	15	13	2	6	5
2644.654	n/a	PROB	1322327	n/a	LTP251	ltpFR2	1	n/a	n/a	n/a	15	6	2	3	1
2646.606	n/a	PROB	1323303	n/a	LTP251	ltpFR2	1	n/a	n/a	n/a	15	19	5	8	8
2648.69	n/a	PROB	1324345	n/a	LTP251	ltpFR2	1	n/a	n/a	n/a	15	13	1	9	3
2650.022	n/a	PROB	1325011	n/a	LTP251	ltpFR2	1	n/a	n/a	n/a	15	10	4	1	5
2652.024	n/a	PROB	1326012	n/a	LTP251	ltpFR2	1	n/a	n/a	n/a	15	8	4	3	1
2654.372	n/a	STOP	1327186	n/a	LTP251	ltpFR2	1	n/a	n/a	n/a	15	n/a	n/a	n/a	n/a
2655.674	n/a	WORD	1327837	wordpools/wasnorm_wordpool_576.txt	LTP251	ltpFR2	1	11	GLASS	639	n/a	n/a	0	0	0
2658.178	n/a	WORD	1329089	wordpools/wasnorm_wordpool_576.txt	LTP251	ltpFR2	1	11	ISLAND	745	n/a	n/a	0	0	0
2660.846	n/a	WORD	1330423	wordpools/wasnorm_wordpool_576.txt	LTP251	ltpFR2	1	11	CIGAR	308	n/a	n/a	0	0	0
2663.7	n/a	WORD	1331850	wordpools/wasnorm_wordpool_576.txt	LTP251	ltpFR2	1	11	COD	340	n/a	n/a	0	0	0
2666.27	n/a	WORD	1333135	wordpools/wasnorm_wordpool_576.txt	LTP251	ltpFR2	1	11	SCALLOP	1242	n/a	n/a	0	0	0
2669.038	n/a	WORD	1334519	wordpools/wasnorm_wordpool_576.txt	LTP251	ltpFR2	1	11	TUNNEL	1519	n/a	n/a	0	0	0
2671.706	n/a	WORD	1335853	wordpools/wasnorm_wordpool_576.txt	LTP251	ltpFR2	1	11	BARREL	91	n/a	n/a	0	0	0
2674.526	n/a	WORD	1337263	wordpools/wasnorm_wordpool_576.txt	LTP251	ltpFR2	1	11	SCRIBBLE	1256	n/a	n/a	0	0	0
2677.21	n/a	WORD	1338605	wordpools/wasnorm_wordpool_576.txt	LTP251	ltpFR2	1	11	MILDEW	893	n/a	n/a	0	0	0
2679.796	n/a	WORD	1339898	wordpools/wasnorm_wordpool_576.txt	LTP251	ltpFR2	1	11	LACE	792	n/a	n/a	0	0	0
2682.65	n/a	WORD	1341325	wordpools/wasnorm_wordpool_576.txt	LTP251	ltpFR2	1	11	COLLEGE	346	n/a	n/a	0	0	0
2685.518	n/a	WORD	1342759	wordpools/wasnorm_wordpool_576.txt	LTP251	ltpFR2	1	11	BODY	145	n/a	n/a	0	0	0
2688.188	n/a	WORD	1344094	wordpools/wasnorm_wordpool_576.txt	LTP251	ltpFR2	1	11	CURTAIN	427	n/a	n/a	0	0	0
2691.04	n/a	WORD	1345520	wordpools/wasnorm_wordpool_576.txt	LTP251	ltpFR2	1	11	CAMEL	223	n/a	n/a	0	0	0
2693.792	n/a	WORD	1346896	wordpools/wasnorm_wordpool_576.txt	LTP251	ltpFR2	1	11	BANQUET	86	n/a	n/a	0	0	0
2696.476	n/a	WORD	1348238	wordpools/wasnorm_wordpool_576.txt	LTP251	ltpFR2	1	11	SNACK	1331	n/a	n/a	0	0	0
2699.08	n/a	WORD	1349540	wordpools/wasnorm_wordpool_576.txt	LTP251	ltpFR2	1	11	WITNESS	1618	n/a	n/a	0	0	0
2701.882	n/a	WORD	1350941	wordpools/wasnorm_wordpool_576.txt	LTP251	ltpFR2	1	11	BANK	83	n/a	n/a	0	0	0
2704.616	n/a	WORD	1352308	wordpools/wasnorm_wordpool_576.txt	LTP251	ltpFR2	1	11	CRAB	397	n/a	n/a	0	0	0
2707.152	n/a	WORD	1353576	wordpools/wasnorm_wordpool_576.txt	LTP251	ltpFR2	1	11	RATTLE	1170	n/a	n/a	0	0	0
2709.838	n/a	WORD	1354919	wordpools/wasnorm_wordpool_576.txt	LTP251	ltpFR2	1	11	CHILD	299	n/a	n/a	0	0	0
2712.706	n/a	WORD	1356353	wordpools/wasnorm_wordpool_576.txt	LTP251	ltpFR2	1	11	RUG	1215	n/a	n/a	0	0	0
2715.508	n/a	WORD	1357754	wordpools/wasnorm_wordpool_576.txt	LTP251	ltpFR2	1	11	BOARD	143	n/a	n/a	0	0	0
2717.994	n/a	WORD	1358997	wordpools/wasnorm_wordpool_576.txt	LTP251	ltpFR2	1	11	CRITIC	410	n/a	n/a	0	0	0
2719.63	n/a	START	1359815	n/a	LTP251	ltpFR2	1	n/a	n/a	n/a	16	n/a	n/a	n/a	n/a
2720.694	n/a	DISTRACTOR	1360347	n/a	LTP251	ltpFR2	1	11	n/a	n/a	n/a	n/a	0	0	0
2720.728	n/a	PROB	1360364	n/a	LTP251	ltpFR2	1	n/a	n/a	n/a	16	19	8	2	9
2722.348	n/a	PROB	1361174	n/a	LTP251	ltpFR2	1	n/a	n/a	n/a	16	8	1	2	5
2724.202	n/a	PROB	1362101	n/a	LTP251	ltpFR2	1	n/a	n/a	n/a	16	10	3	6	1
2725.634	n/a	PROB	1362817	n/a	LTP251	ltpFR2	1	n/a	n/a	n/a	16	10	4	3	3
2727.086	n/a	PROB	1363543	n/a	LTP251	ltpFR2	1	n/a	n/a	n/a	16	14	4	3	7
2728.87	n/a	PROB	1364435	n/a	LTP251	ltpFR2	1	n/a	n/a	n/a	16	6	1	3	2
2731.12	n/a	PROB	1365560	n/a	LTP251	ltpFR2	1	n/a	n/a	n/a	16	17	4	2	9
2732.822	n/a	PROB	1366411	n/a	LTP251	ltpFR2	1	n/a	n/a	n/a	16	9	2	1	6
2734.24	n/a	PROB	1367120	n/a	LTP251	ltpFR2	1	n/a	n/a	n/a	16	14	6	6	2
2737.928	n/a	PROB	1368964	n/a	LTP251	ltpFR2	1	n/a	n/a	n/a	16	10	2	7	1
2739.244	n/a	PROB	1369622	n/a	LTP251	ltpFR2	1	n/a	n/a	n/a	16	10	2	1	7
2740.662	n/a	PROB	1370331	n/a	LTP251	ltpFR2	1	n/a	n/a	n/a	16	14	9	1	7
2742.55	n/a	STOP	1371275	n/a	LTP251	ltpFR2	1	n/a	n/a	n/a	16	n/a	n/a	n/a	n/a
2745.66	n/a	REC_START	1372830	n/a	LTP251	ltpFR2	1	11	n/a	n/a	n/a	n/a	0	0	0
2747.278	n/a	REC_WORD	1373639	wordpools/wasnorm_wordpool_576.txt	LTP251	ltpFR2	1	11	CRAB	397	n/a	n/a	0	0	0
2748.696	n/a	REC_WORD	1374348	wordpools/wasnorm_wordpool_576.txt	LTP251	ltpFR2	1	11	SCALLOP	1242	n/a	n/a	0	0	0
2750.402	n/a	REC_WORD	1375201	wordpools/wasnorm_wordpool_576.txt	LTP251	ltpFR2	1	11	COD	340	n/a	n/a	0	0	0
2752.156	n/a	REC_WORD	1376078	wordpools/wasnorm_wordpool_576.txt	LTP251	ltpFR2	1	11	GLASS	639	n/a	n/a	0	0	0
2754.564	n/a	REC_WORD	1377282	wordpools/wasnorm_wordpool_576.txt	LTP251	ltpFR2	1	11	CURTAIN	427	n/a	n/a	0	0	0
2755.854	n/a	REC_WORD	1377927	wordpools/wasnorm_wordpool_576.txt	LTP251	ltpFR2	1	11	RUG	1215	n/a	n/a	0	0	0
2758.272	n/a	REC_WORD	1379136	wordpools/wasnorm_wordpool_576.txt	LTP251	ltpFR2	1	11	COLLEGE	346	n/a	n/a	0	0	0
2761.062	n/a	REC_WORD	1380531	wordpools/wasnorm_wordpool_576.txt	LTP251	ltpFR2	1	11	BOARD	143	n/a	n/a	0	0	0
2765.072	n/a	REC_WORD	1382536	wordpools/wasnorm_wordpool_576.txt	LTP251	ltpFR2	1	11	RATTLE	1170	n/a	n/a	0	0	0
2768.99	n/a	REC_WORD	1384495	wordpools/wasnorm_wordpool_576.txt	LTP251	ltpFR2	1	11	BODY	145	n/a	n/a	0	0	0
2772.516	n/a	REC_WORD	1386258	wordpools/wasnorm_wordpool_576.txt	LTP251	ltpFR2	1	11	SNACK	1331	n/a	n/a	0	0	0
2774.316	n/a	REC_WORD	1387158	wordpools/wasnorm_wordpool_576.txt	LTP251	ltpFR2	1	11	BANQUET	86	n/a	n/a	0	0	0
2776.19	n/a	REC_WORD	1388095	wordpools/wasnorm_wordpool_576.txt	LTP251	ltpFR2	1	11	BANK	83	n/a	n/a	0	0	0
2793.14	n/a	REC_WORD	1396570	wordpools/wasnorm_wordpool_576.txt	LTP251	ltpFR2	1	11	ISLAND	745	n/a	n/a	0	0	0
2793.144	n/a	REC_WORD	1396572	wordpools/wasnorm_wordpool_576.txt	LTP251	ltpFR2	1	11	ISLAND	745	n/a	n/a	0	0	0
2794.666	n/a	REC_WORD	1397333	wordpools/wasnorm_wordpool_576.txt	LTP251	ltpFR2	1	11	CIGAR	308	n/a	n/a	0	0	0
2799.372	n/a	REC_WORD	1399686	wordpools/wasnorm_wordpool_576.txt	LTP251	ltpFR2	1	11	CAMEL	223	n/a	n/a	0	0	0
2836.48	n/a	DISTRACTOR	1418240	n/a	LTP251	ltpFR2	1	12	n/a	n/a	n/a	n/a	0	0	0
2836.48	n/a	START	1418240	n/a	LTP251	ltpFR2	1	n/a	n/a	n/a	17	n/a	n/a	n/a	n/a
2836.536	n/a	PROB	1418268	n/a	LTP251	ltpFR2	1	n/a	n/a	n/a	17	8	1	3	4
2838.548	n/a	PROB	1419274	n/a	LTP251	ltpFR2	1	n/a	n/a	n/a	17	14	4	7	3
2840.79	n/a	PROB	1420395	n/a	LTP251	ltpFR2	1	n/a	n/a	n/a	17	24	9	8	7
2844.358	n/a	PROB	1422179	n/a	LTP251	ltpFR2	1	n/a	n/a	n/a	17	5	1	1	3
2845.636	n/a	PROB	1422818	n/a	LTP251	ltpFR2	1	n/a	n/a	n/a	17	17	9	4	4
2848.54	n/a	PROB	1424270	n/a	LTP251	ltpFR2	1	n/a	n/a	n/a	17	23	8	7	8
2851.948	n/a	PROB	1425974	n/a	LTP251	ltpFR2	1	n/a	n/a	n/a	17	16	9	6	1
2854.98	n/a	PROB	1427490	n/a	LTP251	ltpFR2	1	n/a	n/a	n/a	17	14	4	5	5
2856.618	n/a	PROB	1428309	n/a	LTP251	ltpFR2	1	n/a	n/a	n/a	17	12	6	5	1
2858.332	n/a	PROB	1429166	n/a	LTP251	ltpFR2	1	n/a	n/a	n/a	17	11	4	1	6
2859.56	n/a	STOP	1429780	n/a	LTP251	ltpFR2	1	n/a	n/a	n/a	17	n/a	n/a	n/a	n/a
2861.59	n/a	WORD	1430795	wordpools/wasnorm_wordpool_576.txt	LTP251	ltpFR2	1	12	PORK	1108	n/a	n/a	0	0	0
2864.086	n/a	WORD	1432043	wordpools/wasnorm_wordpool_576.txt	LTP251	ltpFR2	1	12	ORANGE	980	n/a	n/a	0	0	0
2866.588	n/a	WORD	1433294	wordpools/wasnorm_wordpool_576.txt	LTP251	ltpFR2	1	12	MATCH	878	n/a	n/a	0	0	0
2869.408	n/a	WORD	1434704	wordpools/wasnorm_wordpool_576.txt	LTP251	ltpFR2	1	12	LUMBER	848	n/a	n/a	0	0	0
2871.998	n/a	WORD	1435999	wordpools/wasnorm_wordpool_576.txt	LTP251	ltpFR2	1	12	ROD	1203	n/a	n/a	0	0	0
2874.462	n/a	WORD	1437231	wordpools/wasnorm_wordpool_576.txt	LTP251	ltpFR2	1	12	BOX	159	n/a	n/a	0	0	0
2877.136	n/a	WORD	1438568	wordpools/wasnorm_wordpool_576.txt	LTP251	ltpFR2	1	12	BOUQUET	157	n/a	n/a	0	0	0
2879.684	n/a	WORD	1439842	wordpools/wasnorm_wordpool_576.txt	LTP251	ltpFR2	1	12	KETCHUP	771	n/a	n/a	0	0	0
2882.202	n/a	WORD	1441101	wordpools/wasnorm_wordpool_576.txt	LTP251	ltpFR2	1	12	PIGEON	1065	n/a	n/a	0	0	0
2884.904	n/a	WORD	1442452	wordpools/wasnorm_wordpool_576.txt	LTP251	ltpFR2	1	12	AGENT	10	n/a	n/a	0	0	0
2887.372	n/a	WORD	1443686	wordpools/wasnorm_wordpool_576.txt	LTP251	ltpFR2	1	12	BUREAU	199	n/a	n/a	0	0	0
2890.226	n/a	WORD	1445113	wordpools/wasnorm_wordpool_576.txt	LTP251	ltpFR2	1	12	RIVER	1194	n/a	n/a	0	0	0
2892.81	n/a	WORD	1446405	wordpools/wasnorm_wordpool_576.txt	LTP251	ltpFR2	1	12	TABLE	1426	n/a	n/a	0	0	0
2895.496	n/a	WORD	1447748	wordpools/wasnorm_wordpool_576.txt	LTP251	ltpFR2	1	12	COUCH	386	n/a	n/a	0	0	0
2897.982	n/a	WORD	1448991	wordpools/wasnorm_wordpool_576.txt	LTP251	ltpFR2	1	12	TRIBE	1505	n/a	n/a	0	0	0
2900.7	n/a	WORD	1450350	wordpools/wasnorm_wordpool_576.txt	LTP251	ltpFR2	1	12	GIFT	635	n/a	n/a	0	0	0
2903.386	n/a	WORD	1451693	wordpools/wasnorm_wordpool_576.txt	LTP251	ltpFR2	1	12	TEACHER	1440	n/a	n/a	0	0	0
2906.174	n/a	WORD	1453087	wordpools/wasnorm_wordpool_576.txt	LTP251	ltpFR2	1	12	STREAM	1392	n/a	n/a	0	0	0
2908.908	n/a	WORD	1454454	wordpools/wasnorm_wordpool_576.txt	LTP251	ltpFR2	1	12	PLIERS	1089	n/a	n/a	0	0	0
2911.678	n/a	WORD	1455839	wordpools/wasnorm_wordpool_576.txt	LTP251	ltpFR2	1	12	TURKEY	1520	n/a	n/a	0	0	0
2914.296	n/a	WORD	1457148	wordpools/wasnorm_wordpool_576.txt	LTP251	ltpFR2	1	12	SOFTBALL	1343	n/a	n/a	0	0	0
2916.966	n/a	WORD	1458483	wordpools/wasnorm_wordpool_576.txt	LTP251	ltpFR2	1	12	STAPLE	1371	n/a	n/a	0	0	0
2919.65	n/a	WORD	1459825	wordpools/wasnorm_wordpool_576.txt	LTP251	ltpFR2	1	12	KNAPSACK	783	n/a	n/a	0	0	0
2922.17	n/a	WORD	1461085	wordpools/wasnorm_wordpool_576.txt	LTP251	ltpFR2	1	12	JURY	766	n/a	n/a	0	0	0
2923.806	n/a	START	1461903	n/a	LTP251	ltpFR2	1	n/a	n/a	n/a	18	n/a	n/a	n/a	n/a
2924.692	n/a	DISTRACTOR	1462346	n/a	LTP251	ltpFR2	1	12	n/a	n/a	n/a	n/a	0	0	0
2924.722	n/a	PROB	1462361	n/a	LTP251	ltpFR2	1	n/a	n/a	n/a	18	7	1	5	1
2926.54	n/a	PROB	1463270	n/a	LTP251	ltpFR2	1	n/a	n/a	n/a	18	16	5	6	5
2928.456	n/a	PROB	1464228	n/a	LTP251	ltpFR2	1	n/a	n/a	n/a	18	12	5	4	3
2930.808	n/a	PROB	1465404	n/a	LTP251	ltpFR2	1	n/a	n/a	n/a	18	26	9	7	9
2935.698	n/a	PROB	1467849	n/a	LTP251	ltpFR2	1	n/a	n/a	n/a	18	16	3	9	4
2939.35	n/a	PROB	1469675	n/a	LTP251	ltpFR2	1	n/a	n/a	n/a	18	17	5	7	5
2940.9	n/a	PROB	1470450	n/a	LTP251	ltpFR2	1	n/a	n/a	n/a	18	11	9	1	1
2942.102	n/a	PROB	1471051	n/a	LTP251	ltpFR2	1	n/a	n/a	n/a	18	20	9	3	8
2944.754	n/a	PROB	1472377	n/a	LTP251	ltpFR2	1	n/a	n/a	n/a	18	19	8	9	2
2946.242	n/a	STOP	1473121	n/a	LTP251	ltpFR2	1	n/a	n/a	n/a	18	n/a	n/a	n/a	n/a
2949.77	n/a	REC_START	1474885	n/a	LTP251	ltpFR2	1	12	n/a	n/a	n/a	n/a	0	0	0
2951.338	n/a	REC_WORD	1475669	wordpools/wasnorm_wordpool_576.txt	LTP251	ltpFR2	1	12	ORANGE	980	n/a	n/a	0	0	0
2952.866	n/a	REC_WORD	1476433	wordpools/wasnorm_wordpool_576.txt	LTP251	ltpFR2	1	12	PORK	1108	n/a	n/a	0	0	0
2954.364	n/a	REC_WORD	1477182	wordpools/wasnorm_wordpool_576.txt	LTP251	ltpFR2	1	12	BOX	159	n/a	n/a	0	0	0
2955.834	n/a	REC_WORD	1477917	wordpools/wasnorm_wordpool_576.txt	LTP251	ltpFR2	1	12	MATCH	878	n/a	n/a	0	0	0
2958.066	n/a	REC_WORD	1479033	wordpools/wasnorm_wordpool_576.txt	LTP251	ltpFR2	1	12	BOUQUET	157	n/a	n/a	0	0	0
2959.928	n/a	REC_WORD	1479964	wordpools/wasnorm_wordpool_576.txt	LTP251	ltpFR2	1	12	TABLE	1426	n/a	n/a	0	0	0
2961.586	n/a	REC_WORD	1480793	wordpools/wasnorm_wordpool_576.txt	LTP251	ltpFR2	1	12	STREAM	1392	n/a	n/a	0	0	0
2963.412	n/a	REC_WORD	1481706	wordpools/wasnorm_wordpool_576.txt	LTP251	ltpFR2	1	12	RIVER	1194	n/a	n/a	0	0	0
2966.79	n/a	REC_WORD	1483395	wordpools/wasnorm_wordpool_576.txt	LTP251	ltpFR2	1	12	JURY	766	n/a	n/a	0	0	0
2968.386	n/a	REC_WORD	1484193	wordpools/wasnorm_wordpool_576.txt	LTP251	ltpFR2	1	12	AGENT	10	n/a	n/a	0	0	0
2970.32	n/a	REC_WORD	1485160	wordpools/wasnorm_wordpool_576.txt	LTP251	ltpFR2	1	12	BUREAU	199	n/a	n/a	0	0	0
2973.7	n/a	REC_WORD	1486850	wordpools/wasnorm_wordpool_576.txt	LTP251	ltpFR2	1	12	SOFTBALL	1343	n/a	n/a	0	0	0
2975.542	n/a	REC_WORD	1487771	wordpools/wasnorm_wordpool_576.txt	LTP251	ltpFR2	1	12	TEACHER	1440	n/a	n/a	0	0	0
2977.26	n/a	REC_WORD	1488630	wordpools/wasnorm_wordpool_576.txt	LTP251	ltpFR2	1	12	KNAPSACK	783	n/a	n/a	0	0	0
2978.26	n/a	REC_WORD_VV	1489130	wordpools/wasnorm_wordpool_576.txt	LTP251	ltpFR2	1	12	<>	-1	n/a	n/a	0	0	0
2979.44	n/a	REC_WORD	1489720	wordpools/wasnorm_wordpool_576.txt	LTP251	ltpFR2	1	12	COUCH	386	n/a	n/a	0	0	0
2981.376	n/a	REC_WORD	1490688	wordpools/wasnorm_wordpool_576.txt	LTP251	ltpFR2	1	12	GIFT	635	n/a	n/a	0	0	0
2983.88	n/a	REC_WORD	1491940	wordpools/wasnorm_wordpool_576.txt	LTP251	ltpFR2	1	12	PIGEON	1065	n/a	n/a	0	0	0
2987.818	n/a	REC_WORD	1493909	wordpools/wasnorm_wordpool_576.txt	LTP251	ltpFR2	1	12	TURKEY	1520	n/a	n/a	0	0	0
3009.806	n/a	REC_WORD	1504903	wordpools/wasnorm_wordpool_576.txt	LTP251	ltpFR2	1	12	TRIBE	1505	n/a	n/a	0	0	0
3040.596	n/a	DISTRACTOR	1520298	n/a	LTP251	ltpFR2	1	13	n/a	n/a	n/a	n/a	0	0	0
3040.596	n/a	START	1520298	n/a	LTP251	ltpFR2	1	n/a	n/a	n/a	19	n/a	n/a	n/a	n/a
3040.654	n/a	PROB	1520327	n/a	LTP251	ltpFR2	1	n/a	n/a	n/a	19	17	7	7	3
3043.172	n/a	PROB	1521586	n/a	LTP251	ltpFR2	1	n/a	n/a	n/a	19	22	7	9	6
3045.324	n/a	PROB	1522662	n/a	LTP251	ltpFR2	1	n/a	n/a	n/a	19	14	6	4	4
3046.616	n/a	PROB	1523308	n/a	LTP251	ltpFR2	1	n/a	n/a	n/a	19	14	1	9	4
3047.91	n/a	PROB	1523955	n/a	LTP251	ltpFR2	1	n/a	n/a	n/a	19	20	9	8	3
3049.428	n/a	PROB	1524714	n/a	LTP251	ltpFR2	1	n/a	n/a	n/a	19	19	6	8	5
3051.38	n/a	PROB	1525690	n/a	LTP251	ltpFR2	1	n/a	n/a	n/a	19	16	5	2	9
3052.898	n/a	PROB	1526449	n/a	LTP251	ltpFR2	1	n/a	n/a	n/a	19	14	4	5	5
3054.34	n/a	PROB	1527170	n/a	LTP251	ltpFR2	1	n/a	n/a	n/a	19	16	9	4	2
3056.474	n/a	PROB	1528237	n/a	LTP251	ltpFR2	1	n/a	n/a	n/a	19	9	4	1	4
3057.968	n/a	PROB	1528984	n/a	LTP251	ltpFR2	1	n/a	n/a	n/a	19	14	5	4	5
3060.312	n/a	PROB	1530156	n/a	LTP251	ltpFR2	1	n/a	n/a	n/a	19	13	6	1	6
3061.948	n/a	PROB	1530974	n/a	LTP251	ltpFR2	1	n/a	n/a	n/a	19	11	5	4	2
3063.244	n/a	STOP	1531622	n/a	LTP251	ltpFR2	1	n/a	n/a	n/a	19	n/a	n/a	n/a	n/a
3065.6	n/a	WORD	1532800	wordpools/wasnorm_wordpool_576.txt	LTP251	ltpFR2	1	13	STOVE	1388	n/a	n/a	0	0	0
3068.134	n/a	WORD	1534067	wordpools/wasnorm_wordpool_576.txt	LTP251	ltpFR2	1	13	TOASTER	1472	n/a	n/a	0	0	0
3070.996	n/a	WORD	1535498	wordpools/wasnorm_wordpool_576.txt	LTP251	ltpFR2	1	13	AIRPLANE	12	n/a	n/a	0	0	0
3073.538	n/a	WORD	1536769	wordpools/wasnorm_wordpool_576.txt	LTP251	ltpFR2	1	13	BROTHER	179	n/a	n/a	0	0	0
3076.39	n/a	WORD	1538195	wordpools/wasnorm_wordpool_576.txt	LTP251	ltpFR2	1	13	CASKET	255	n/a	n/a	0	0	0
3079.218	n/a	WORD	1539609	wordpools/wasnorm_wordpool_576.txt	LTP251	ltpFR2	1	13	BABY	64	n/a	n/a	0	0	0
3082.04	n/a	WORD	1541020	wordpools/wasnorm_wordpool_576.txt	LTP251	ltpFR2	1	13	POWDER	1117	n/a	n/a	0	0	0
3084.714	n/a	WORD	1542357	wordpools/wasnorm_wordpool_576.txt	LTP251	ltpFR2	1	13	YOLK	1633	n/a	n/a	0	0	0
3087.482	n/a	WORD	1543741	wordpools/wasnorm_wordpool_576.txt	LTP251	ltpFR2	1	13	DUST	508	n/a	n/a	0	0	0
3089.986	n/a	WORD	1544993	wordpools/wasnorm_wordpool_576.txt	LTP251	ltpFR2	1	13	MARSH	874	n/a	n/a	0	0	0
3092.464	n/a	WORD	1546232	wordpools/wasnorm_wordpool_576.txt	LTP251	ltpFR2	1	13	SISTER	1312	n/a	n/a	0	0	0
3095.04	n/a	WORD	1547520	wordpools/wasnorm_wordpool_576.txt	LTP251	ltpFR2	1	13	CARRIAGE	248	n/a	n/a	0	0	0
3097.586	n/a	WORD	1548793	wordpools/wasnorm_wordpool_576.txt	LTP251	ltpFR2	1	13	COUNTY	389	n/a	n/a	0	0	0
3100.094	n/a	WORD	1550047	wordpools/wasnorm_wordpool_576.txt	LTP251	ltpFR2	1	13	EUROPE	541	n/a	n/a	0	0	0
3102.824	n/a	WORD	1551412	wordpools/wasnorm_wordpool_576.txt	LTP251	ltpFR2	1	13	WIDOW	1608	n/a	n/a	0	0	0
3105.48	n/a	WORD	1552740	wordpools/wasnorm_wordpool_576.txt	LTP251	ltpFR2	1	13	CEILING	265	n/a	n/a	0	0	0
3108.012	n/a	WORD	1554006	wordpools/wasnorm_wordpool_576.txt	LTP251	ltpFR2	1	13	PLAZA	1088	n/a	n/a	0	0	0
3110.596	n/a	WORD	1555298	wordpools/wasnorm_wordpool_576.txt	LTP251	ltpFR2	1	13	CROSS	413	n/a	n/a	0	0	0
3113.314	n/a	WORD	1556657	wordpools/wasnorm_wordpool_576.txt	LTP251	ltpFR2	1	13	SLUG	1329	n/a	n/a	0	0	0
3116.018	n/a	WORD	1558009	wordpools/wasnorm_wordpool_576.txt	LTP251	ltpFR2	1	13	MUSTARD	935	n/a	n/a	0	0	0
3118.852	n/a	WORD	1559426	wordpools/wasnorm_wordpool_576.txt	LTP251	ltpFR2	1	13	SUBWAY	1400	n/a	n/a	0	0	0
3121.608	n/a	WORD	1560804	wordpools/wasnorm_wordpool_576.txt	LTP251	ltpFR2	1	13	SPARROW	1347	n/a	n/a	0	0	0
3124.34	n/a	WORD	1562170	wordpools/wasnorm_wordpool_576.txt	LTP251	ltpFR2	1	13	GRAVEL	659	n/a	n/a	0	0	0
3127.178	n/a	WORD	1563589	wordpools/wasnorm_wordpool_576.txt	LTP251	ltpFR2	1	13	PUPIL	1143	n/a	n/a	0	0	0
3128.812	n/a	START	1564406	n/a	LTP251	ltpFR2	1	n/a	n/a	n/a	20	n/a	n/a	n/a	n/a
3129.662	n/a	DISTRACTOR	1564831	n/a	LTP251	ltpFR2	1	13	n/a	n/a	n/a	n/a	0	0	0
3129.696	n/a	PROB	1564848	n/a	LTP251	ltpFR2	1	n/a	n/a	n/a	20	13	1	6	6
3132.1	n/a	PROB	1566050	n/a	LTP251	ltpFR2	1	n/a	n/a	n/a	20	14	2	6	6
3133.884	n/a	PROB	1566942	n/a	LTP251	ltpFR2	1	n/a	n/a	n/a	20	16	4	7	5
3136.734	n/a	PROB	1568367	n/a	LTP251	ltpFR2	1	n/a	n/a	n/a	20	20	8	7	5
3138.754	n/a	PROB	1569377	n/a	LTP251	ltpFR2	1	n/a	n/a	n/a	20	18	4	9	5
3141.424	n/a	PROB	1570712	n/a	LTP251	ltpFR2	1	n/a	n/a	n/a	20	19	9	1	9
3143.042	n/a	PROB	1571521	n/a	LTP251	ltpFR2	1	n/a	n/a	n/a	20	14	2	4	8
3144.928	n/a	PROB	1572464	n/a	LTP251	ltpFR2	1	n/a	n/a	n/a	20	12	2	5	5
3146.244	n/a	PROB	1573122	n/a	LTP251	ltpFR2	1	n/a	n/a	n/a	20	21	5	7	9
3148.496	n/a	PROB	1574248	n/a	LTP251	ltpFR2	1	n/a	n/a	n/a	20	21	9	5	7
3150.43	n/a	PROB	1575215	n/a	LTP251	ltpFR2	1	n/a	n/a	n/a	20	13	3	5	5
3151.646	n/a	STOP	1575823	n/a	LTP251	ltpFR2	1	n/a	n/a	n/a	20	n/a	n/a	n/a	n/a
3154.828	n/a	REC_START	1577414	n/a	LTP251	ltpFR2	1	13	n/a	n/a	n/a	n/a	0	0	0
3158.288	n/a	REC_WORD	1579144	wordpools/wasnorm_wordpool_576.txt	LTP251	ltpFR2	1	13	TOASTER	1472	n/a	n/a	0	0	0
3159.78	n/a	REC_WORD	1579890	wordpools/wasnorm_wordpool_576.txt	LTP251	ltpFR2	1	13	STOVE	1388	n/a	n/a	0	0	0
3161.534	n/a	REC_WORD	1580767	wordpools/wasnorm_wordpool_576.txt	LTP251	ltpFR2	1	13	AIRPLANE	12	n/a	n/a	0	0	0
3164.006	n/a	REC_WORD	1582003	wordpools/wasnorm_wordpool_576.txt	LTP251	ltpFR2	1	13	CASKET	255	n/a	n/a	0	0	0
3165.84	n/a	REC_WORD	1582920	wordpools/wasnorm_wordpool_576.txt	LTP251	ltpFR2	1	13	CARRIAGE	248	n/a	n/a	0	0	0
3167.592	n/a	REC_WORD	1583796	wordpools/wasnorm_wordpool_576.txt	LTP251	ltpFR2	1	13	GRAVEL	659	n/a	n/a	0	0	0
3169.47	n/a	REC_WORD	1584735	wordpools/wasnorm_wordpool_576.txt	LTP251	ltpFR2	1	13	PUPIL	1143	n/a	n/a	0	0	0
3171.092	n/a	REC_WORD	1585546	wordpools/wasnorm_wordpool_576.txt	LTP251	ltpFR2	1	13	SLUG	1329	n/a	n/a	0	0	0
3175.106	n/a	REC_WORD	1587553	wordpools/wasnorm_wordpool_576.txt	LTP251	ltpFR2	1	13	CEILING	265	n/a	n/a	0	0	0
3176.584	n/a	REC_WORD	1588292	wordpools/wasnorm_wordpool_576.txt	LTP251	ltpFR2	1	13	PLAZA	1088	n/a	n/a	0	0	0
3178.536	n/a	REC_WORD	1589268	wordpools/wasnorm_wordpool_576.txt	LTP251	ltpFR2	1	13	BROTHER	179	n/a	n/a	0	0	0
3180.244	n/a	REC_WORD	1590122	wordpools/wasnorm_wordpool_576.txt	LTP251	ltpFR2	1	13	SISTER	1312	n/a	n/a	0	0	0
3182.65	n/a	REC_WORD	1591325	wordpools/wasnorm_wordpool_576.txt	LTP251	ltpFR2	1	13	POWDER	1117	n/a	n/a	0	0	0
3184.862	n/a	REC_WORD	1592431	wordpools/wasnorm_wordpool_576.txt	LTP251	ltpFR2	1	13	EUROPE	541	n/a	n/a	0	0	0
3186.738	n/a	REC_WORD	1593369	wordpools/wasnorm_wordpool_576.txt	LTP251	ltpFR2	1	13	AIRPLANE	12	n/a	n/a	0	0	0
3191.772	n/a	REC_WORD	1595886	wordpools/wasnorm_wordpool_576.txt	LTP251	ltpFR2	1	13	WIDOW	1608	n/a	n/a	0	0	0
3200.14	n/a	REC_WORD	1600070	wordpools/wasnorm_wordpool_576.txt	LTP251	ltpFR2	1	13	YOLK	1633	n/a	n/a	0	0	0
3202.366	n/a	REC_WORD	1601183	wordpools/wasnorm_wordpool_576.txt	LTP251	ltpFR2	1	13	MUSTARD	935	n/a	n/a	0	0	0
3245.612	n/a	DISTRACTOR	1622806	n/a	LTP251	ltpFR2	1	14	n/a	n/a	n/a	n/a	0	0	0
3245.612	n/a	START	1622806	n/a	LTP251	ltpFR2	1	n/a	n/a	n/a	21	n/a	n/a	n/a	n/a
3245.672	n/a	PROB	1622836	n/a	LTP251	ltpFR2	1	n/a	n/a	n/a	21	19	9	7	3
3247.44	n/a	PROB	1623720	n/a	LTP251	ltpFR2	1	n/a	n/a	n/a	21	12	1	5	6
3248.848	n/a	PROB	1624424	n/a	LTP251	ltpFR2	1	n/a	n/a	n/a	21	13	8	3	2
3250.66	n/a	PROB	1625330	n/a	LTP251	ltpFR2	1	n/a	n/a	n/a	21	14	5	5	4
3251.844	n/a	PROB	1625922	n/a	LTP251	ltpFR2	1	n/a	n/a	n/a	21	20	9	3	8
3253.916	n/a	PROB	1626958	n/a	LTP251	ltpFR2	1	n/a	n/a	n/a	21	20	8	7	5
3255.614	n/a	PROB	1627807	n/a	LTP251	ltpFR2	1	n/a	n/a	n/a	21	9	3	1	5
3257.264	n/a	PROB	1628632	n/a	LTP251	ltpFR2	1	n/a	n/a	n/a	21	22	6	8	6
3259.106	n/a	PROB	1629553	n/a	LTP251	ltpFR2	1	n/a	n/a	n/a	21	12	4	7	2
3262.826	n/a	PROB	1631413	n/a	LTP251	ltpFR2	1	n/a	n/a	n/a	21	9	6	2	1
3264.426	n/a	PROB	1632213	n/a	LTP251	ltpFR2	1	n/a	n/a	n/a	21	18	5	5	8
3265.76	n/a	PROB	1632880	n/a	LTP251	ltpFR2	1	n/a	n/a	n/a	21	16	4	5	7
3267.806	n/a	PROB	1633903	n/a	LTP251	ltpFR2	1	n/a	n/a	n/a	21	11	6	3	2
3269.208	n/a	STOP	1634604	n/a	LTP251	ltpFR2	1	n/a	n/a	n/a	21	n/a	n/a	n/a	n/a
3270.866	n/a	WORD	1635433	wordpools/wasnorm_wordpool_576.txt	LTP251	ltpFR2	1	14	SWITCH	1422	n/a	n/a	0	0	0
3273.46	n/a	WORD	1636730	wordpools/wasnorm_wordpool_576.txt	LTP251	ltpFR2	1	14	NIGHTGOWN	953	n/a	n/a	0	0	0
3275.948	n/a	WORD	1637974	wordpools/wasnorm_wordpool_576.txt	LTP251	ltpFR2	1	14	FILM	565	n/a	n/a	0	0	0
3278.456	n/a	WORD	1639228	wordpools/wasnorm_wordpool_576.txt	LTP251	ltpFR2	1	14	LEOPARD	812	n/a	n/a	0	0	0
3280.968	n/a	WORD	1640484	wordpools/wasnorm_wordpool_576.txt	LTP251	ltpFR2	1	14	NURSE	963	n/a	n/a	0	0	0
3283.802	n/a	WORD	1641901	wordpools/wasnorm_wordpool_576.txt	LTP251	ltpFR2	1	14	PATIENT	1024	n/a	n/a	0	0	0
3286.412	n/a	WORD	1643206	wordpools/wasnorm_wordpool_576.txt	LTP251	ltpFR2	1	14	LAMP	798	n/a	n/a	0	0	0
3289.14	n/a	WORD	1644570	wordpools/wasnorm_wordpool_576.txt	LTP251	ltpFR2	1	14	SPOOL	1356	n/a	n/a	0	0	0
3291.842	n/a	WORD	1645921	wordpools/wasnorm_wordpool_576.txt	LTP251	ltpFR2	1	14	BINDER	127	n/a	n/a	0	0	0
3294.536	n/a	WORD	1647268	wordpools/wasnorm_wordpool_576.txt	LTP251	ltpFR2	1	14	JELLY	755	n/a	n/a	0	0	0
3297.262	n/a	WORD	1648631	wordpools/wasnorm_wordpool_576.txt	LTP251	ltpFR2	1	14	LAVA	804	n/a	n/a	0	0	0
3299.948	n/a	WORD	1649974	wordpools/wasnorm_wordpool_576.txt	LTP251	ltpFR2	1	14	BADGE	68	n/a	n/a	0	0	0
3302.732	n/a	WORD	1651366	wordpools/wasnorm_wordpool_576.txt	LTP251	ltpFR2	1	14	WAGON	1578	n/a	n/a	0	0	0
3305.4	n/a	WORD	1652700	wordpools/wasnorm_wordpool_576.txt	LTP251	ltpFR2	1	14	VALVE	1546	n/a	n/a	0	0	0
3308.164	n/a	WORD	1654082	wordpools/wasnorm_wordpool_576.txt	LTP251	ltpFR2	1	14	RADISH	1158	n/a	n/a	0	0	0
3310.906	n/a	WORD	1655453	wordpools/wasnorm_wordpool_576.txt	LTP251	ltpFR2	1	14	DOLPHIN	483	n/a	n/a	0	0	0
3313.408	n/a	WORD	1656704	wordpools/wasnorm_wordpool_576.txt	LTP251	ltpFR2	1	14	SKETCH	1315	n/a	n/a	0	0	0
3316.244	n/a	WORD	1658122	wordpools/wasnorm_wordpool_576.txt	LTP251	ltpFR2	1	14	TOURIST	1488	n/a	n/a	0	0	0
3318.78	n/a	WORD	1659390	wordpools/wasnorm_wordpool_576.txt	LTP251	ltpFR2	1	14	KITCHEN	778	n/a	n/a	0	0	0
3321.514	n/a	WORD	1660757	wordpools/wasnorm_wordpool_576.txt	LTP251	ltpFR2	1	14	REBEL	1172	n/a	n/a	0	0	0
3324.094	n/a	WORD	1662047	wordpools/wasnorm_wordpool_576.txt	LTP251	ltpFR2	1	14	PANTHER	1009	n/a	n/a	0	0	0
3326.612	n/a	WORD	1663306	wordpools/wasnorm_wordpool_576.txt	LTP251	ltpFR2	1	14	PLATE	1086	n/a	n/a	0	0	0
3329.432	n/a	WORD	1664716	wordpools/wasnorm_wordpool_576.txt	LTP251	ltpFR2	1	14	LUNCH	849	n/a	n/a	0	0	0
3332.224	n/a	WORD	1666112	wordpools/wasnorm_wordpool_576.txt	LTP251	ltpFR2	1	14	RIFLE	1192	n/a	n/a	0	0	0
3333.854	n/a	START	1666927	n/a	LTP251	ltpFR2	1	n/a	n/a	n/a	22	n/a	n/a	n/a	n/a
3334.826	n/a	DISTRACTOR	1667413	n/a	LTP251	ltpFR2	1	14	n/a	n/a	n/a	n/a	0	0	0
3334.854	n/a	PROB	1667427	n/a	LTP251	ltpFR2	1	n/a	n/a	n/a	22	15	5	2	8
3336.978	n/a	PROB	1668489	n/a	LTP251	ltpFR2	1	n/a	n/a	n/a	22	12	2	8	2
3338.942	n/a	PROB	1669471	n/a	LTP251	ltpFR2	1	n/a	n/a	n/a	22	16	4	3	9
3341.764	n/a	PROB	1670882	n/a	LTP251	ltpFR2	1	n/a	n/a	n/a	22	16	3	9	4
3343.816	n/a	PROB	1671908	n/a	LTP251	ltpFR2	1	n/a	n/a	n/a	22	11	6	4	1
3345.062	n/a	PROB	1672531	n/a	LTP251	ltpFR2	1	n/a	n/a	n/a	22	7	4	2	1
3346.986	n/a	PROB	1673493	n/a	LTP251	ltpFR2	1	n/a	n/a	n/a	22	13	2	8	3
3348.586	n/a	PROB	1674293	n/a	LTP251	ltpFR2	1	n/a	n/a	n/a	22	21	6	7	8
3350.45	n/a	PROB	1675225	n/a	LTP251	ltpFR2	1	n/a	n/a	n/a	22	16	9	5	2
3352.736	n/a	PROB	1676368	n/a	LTP251	ltpFR2	1	n/a	n/a	n/a	22	18	5	4	9
3354.82	n/a	PROB	1677410	n/a	LTP251	ltpFR2	1	n/a	n/a	n/a	22	17	4	6	7
3356.674	n/a	STOP	1678337	n/a	LTP251	ltpFR2	1	n/a	n/a	n/a	22	n/a	n/a	n/a	n/a
3359.72	n/a	REC_START	1679860	n/a	LTP251	ltpFR2	1	14	n/a	n/a	n/a	n/a	0	0	0
3361.306	n/a	REC_WORD	1680653	wordpools/wasnorm_wordpool_576.txt	LTP251	ltpFR2	1	14	SWITCH	1422	n/a	n/a	0	0	0
3362.578	n/a	REC_WORD	1681289	wordpools/wasnorm_wordpool_576.txt	LTP251	ltpFR2	1	14	NIGHTGOWN	953	n/a	n/a	0	0	0
3364.374	n/a	REC_WORD	1682187	wordpools/wasnorm_wordpool_576.txt	LTP251	ltpFR2	1	14	LEOPARD	812	n/a	n/a	0	0	0
3365.948	n/a	REC_WORD	1682974	wordpools/wasnorm_wordpool_576.txt	LTP251	ltpFR2	1	14	PANTHER	1009	n/a	n/a	0	0	0
3367.56	n/a	REC_WORD	1683780	wordpools/wasnorm_wordpool_576.txt	LTP251	ltpFR2	1	14	RIFLE	1192	n/a	n/a	0	0	0
3369.218	n/a	REC_WORD	1684609	wordpools/wasnorm_wordpool_576.txt	LTP251	ltpFR2	1	14	REBEL	1172	n/a	n/a	0	0	0
3371.108	n/a	REC_WORD	1685554	wordpools/wasnorm_wordpool_576.txt	LTP251	ltpFR2	1	14	BADGE	68	n/a	n/a	0	0	0
3373.158	n/a	REC_WORD	1686579	wordpools/wasnorm_wordpool_576.txt	LTP251	ltpFR2	1	14	PATIENT	1024	n/a	n/a	0	0	0
3374.604	n/a	REC_WORD	1687302	wordpools/wasnorm_wordpool_576.txt	LTP251	ltpFR2	1	14	NURSE	963	n/a	n/a	0	0	0
3376.092	n/a	REC_WORD	1688046	wordpools/wasnorm_wordpool_576.txt	LTP251	ltpFR2	1	14	WAGON	1578	n/a	n/a	0	0	0
3378.058	n/a	REC_WORD	1689029	wordpools/wasnorm_wordpool_576.txt	LTP251	ltpFR2	1	14	RADISH	1158	n/a	n/a	0	0	0
3379.556	n/a	REC_WORD	1689778	wordpools/wasnorm_wordpool_576.txt	LTP251	ltpFR2	1	14	JELLY	755	n/a	n/a	0	0	0
3381.288	n/a	REC_WORD	1690644	wordpools/wasnorm_wordpool_576.txt	LTP251	ltpFR2	1	14	PLATE	1086	n/a	n/a	0	0	0
3383.096	n/a	REC_WORD	1691548	wordpools/wasnorm_wordpool_576.txt	LTP251	ltpFR2	1	14	BADGE	68	n/a	n/a	0	0	0
3399.52	n/a	REC_WORD	1699760	wordpools/wasnorm_wordpool_576.txt	LTP251	ltpFR2	1	14	BINDER	127	n/a	n/a	0	0	0
3405.71	n/a	REC_WORD	1702855	wordpools/wasnorm_wordpool_576.txt	LTP251	ltpFR2	1	14	SPOOL	1356	n/a	n/a	0	0	0
3450.532	n/a	DISTRACTOR	1725266	n/a	LTP251	ltpFR2	1	15	n/a	n/a	n/a	n/a	0	0	0
3450.532	n/a	START	1725266	n/a	LTP251	ltpFR2	1	n/a	n/a	n/a	23	n/a	n/a	n/a	n/a
3450.586	n/a	PROB	1725293	n/a	LTP251	ltpFR2	1	n/a	n/a	n/a	23	16	7	2	7
3452.702	n/a	PROB	1726351	n/a	LTP251	ltpFR2	1	n/a	n/a	n/a	23	12	4	7	1
3454.886	n/a	PROB	1727443	n/a	LTP251	ltpFR2	1	n/a	n/a	n/a	23	18	8	6	4
3458.14	n/a	PROB	1729070	n/a	LTP251	ltpFR2	1	n/a	n/a	n/a	23	7	5	1	1
3459.64	n/a	PROB	1729820	n/a	LTP251	ltpFR2	1	n/a	n/a	n/a	23	22	5	9	9
3462.91	n/a	PROB	1731455	n/a	LTP251	ltpFR2	1	n/a	n/a	n/a	23	16	8	4	4
3465.33	n/a	PROB	1732665	n/a	LTP251	ltpFR2	1	n/a	n/a	n/a	23	9	4	1	4
3467.85	n/a	PROB	1733925	n/a	LTP251	ltpFR2	1	n/a	n/a	n/a	23	16	8	7	1
3474.532	n/a	STOP	1737266	n/a	LTP251	ltpFR2	1	n/a	n/a	n/a	23	n/a	n/a	n/a	n/a
3475.452	n/a	WORD	1737726	wordpools/wasnorm_wordpool_576.txt	LTP251	ltpFR2	1	15	BEAKER	104	n/a	n/a	0	0	0
3478.238	n/a	WORD	1739119	wordpools/wasnorm_wordpool_576.txt	LTP251	ltpFR2	1	15	PATROL	1027	n/a	n/a	0	0	0
3481.074	n/a	WORD	1740537	wordpools/wasnorm_wordpool_576.txt	LTP251	ltpFR2	1	15	SHERIFF	1284	n/a	n/a	0	0	0
3483.892	n/a	WORD	1741946	wordpools/wasnorm_wordpool_576.txt	LTP251	ltpFR2	1	15	IGLOO	734	n/a	n/a	0	0	0
3486.444	n/a	WORD	1743222	wordpools/wasnorm_wordpool_576.txt	LTP251	ltpFR2	1	15	GRIZZLY	662	n/a	n/a	0	0	0
3489.146	n/a	WORD	1744573	wordpools/wasnorm_wordpool_576.txt	LTP251	ltpFR2	1	15	PILOT	1070	n/a	n/a	0	0	0
3491.848	n/a	WORD	1745924	wordpools/wasnorm_wordpool_576.txt	LTP251	ltpFR2	1	15	CASHIER	254	n/a	n/a	0	0	0
3494.366	n/a	WORD	1747183	wordpools/wasnorm_wordpool_576.txt	LTP251	ltpFR2	1	15	WINDOW	1611	n/a	n/a	0	0	0
3497.052	n/a	WORD	1748526	wordpools/wasnorm_wordpool_576.txt	LTP251	ltpFR2	1	15	DASHBOARD	441	n/a	n/a	0	0	0
3499.726	n/a	WORD	1749863	wordpools/wasnorm_wordpool_576.txt	LTP251	ltpFR2	1	15	PAIL	1002	n/a	n/a	0	0	0
3502.206	n/a	WORD	1751103	wordpools/wasnorm_wordpool_576.txt	LTP251	ltpFR2	1	15	LION	827	n/a	n/a	0	0	0
3504.926	n/a	WORD	1752463	wordpools/wasnorm_wordpool_576.txt	LTP251	ltpFR2	1	15	CLAMP	316	n/a	n/a	0	0	0
3507.744	n/a	WORD	1753872	wordpools/wasnorm_wordpool_576.txt	LTP251	ltpFR2	1	15	HUMAN	726	n/a	n/a	0	0	0
3510.262	n/a	WORD	1755131	wordpools/wasnorm_wordpool_576.txt	LTP251	ltpFR2	1	15	BIKE	125	n/a	n/a	0	0	0
3512.764	n/a	WORD	1756382	wordpools/wasnorm_wordpool_576.txt	LTP251	ltpFR2	1	15	WAITRESS	1581	n/a	n/a	0	0	0
3515.584	n/a	WORD	1757792	wordpools/wasnorm_wordpool_576.txt	LTP251	ltpFR2	1	15	NOTEBOOK	959	n/a	n/a	0	0	0
3518.136	n/a	WORD	1759068	wordpools/wasnorm_wordpool_576.txt	LTP251	ltpFR2	1	15	DRINK	498	n/a	n/a	0	0	0
3520.662	n/a	WORD	1760331	wordpools/wasnorm_wordpool_576.txt	LTP251	ltpFR2	1	15	DIVER	476	n/a	n/a	0	0	0
3523.34	n/a	WORD	1761670	wordpools/wasnorm_wordpool_576.txt	LTP251	ltpFR2	1	15	DIME	466	n/a	n/a	0	0	0
3526.076	n/a	WORD	1763038	wordpools/wasnorm_wordpool_576.txt	LTP251	ltpFR2	1	15	CRATER	400	n/a	n/a	0	0	0
3528.902	n/a	WORD	1764451	wordpools/wasnorm_wordpool_576.txt	LTP251	ltpFR2	1	15	CREVICE	405	n/a	n/a	0	0	0
3531.528	n/a	WORD	1765764	wordpools/wasnorm_wordpool_576.txt	LTP251	ltpFR2	1	15	MATTRESS	879	n/a	n/a	0	0	0
3534.264	n/a	WORD	1767132	wordpools/wasnorm_wordpool_576.txt	LTP251	ltpFR2	1	15	PICNIC	1060	n/a	n/a	0	0	0
3537.01	n/a	WORD	1768505	wordpools/wasnorm_wordpool_576.txt	LTP251	ltpFR2	1	15	WORKER	1621	n/a	n/a	0	0	0
3538.644	n/a	START	1769322	n/a	LTP251	ltpFR2	1	n/a	n/a	n/a	24	n/a	n/a	n/a	n/a
3539.734	n/a	DISTRACTOR	1769867	n/a	LTP251	ltpFR2	1	15	n/a	n/a	n/a	n/a	0	0	0
3539.76	n/a	PROB	1769880	n/a	LTP251	ltpFR2	1	n/a	n/a	n/a	24	14	4	2	8
3542.446	n/a	PROB	1771223	n/a	LTP251	ltpFR2	1	n/a	n/a	n/a	24	13	8	4	1
3548.97	n/a	PROB	1774485	n/a	LTP251	ltpFR2	1	n/a	n/a	n/a	24	20	7	5	8
3550.62	n/a	PROB	1775310	n/a	LTP251	ltpFR2	1	n/a	n/a	n/a	24	25	8	9	8
3554.756	n/a	PROB	1777378	n/a	LTP251	ltpFR2	1	n/a	n/a	n/a	24	21	9	5	7
3558.234	n/a	PROB	1779117	n/a	LTP251	ltpFR2	1	n/a	n/a	n/a	24	22	7	7	8
3559.652	n/a	PROB	1779826	n/a	LTP251	ltpFR2	1	n/a	n/a	n/a	24	12	7	3	2
3562.644	n/a	STOP	1781322	n/a	LTP251	ltpFR2	1	n/a	n/a	n/a	24	n/a	n/a	n/a	n/a
3564.66	n/a	REC_START	1782330	n/a	LTP251	ltpFR2	1	15	n/a	n/a	n/a	n/a	0	0	0
3566.302	n/a	REC_WORD	1783151	wordpools/wasnorm_wordpool_576.txt	LTP251	ltpFR2	1	15	BEAKER	104	n/a	n/a	0	0	0
3567.526	n/a	REC_WORD	1783763	wordpools/wasnorm_wordpool_576.txt	LTP251	ltpFR2	1	15	WINDOW	1611	n/a	n/a	0	0	0
3568.738	n/a	REC_WORD	1784369	wordpools/wasnorm_wordpool_576.txt	LTP251	ltpFR2	1	15	MATTRESS	879	n/a	n/a	0	0	0
3570.214	n/a	REC_WORD	1785107	wordpools/wasnorm_wordpool_576.txt	LTP251	ltpFR2	1	15	CREVICE	405	n/a	n/a	0	0	0
3577.052	n/a	REC_WORD	1788526	wordpools/wasnorm_wordpool_576.txt	LTP251	ltpFR2	1	15	WAITRESS	1581	n/a	n/a	0	0	0
3579.872	n/a	REC_WORD	1789936	wordpools/wasnorm_wordpool_576.txt	LTP251	ltpFR2	1	15	PILOT	1070	n/a	n/a	0	0	0
3582.748	n/a	REC_WORD	1791374	wordpools/wasnorm_wordpool_576.txt	LTP251	ltpFR2	1	15	HUMAN	726	n/a	n/a	0	0	0
3586.066	n/a	REC_WORD	1793033	wordpools/wasnorm_wordpool_576.txt	LTP251	ltpFR2	1	15	DIME	466	n/a	n/a	0	0	0
3587.842	n/a	REC_WORD	1793921	wordpools/wasnorm_wordpool_576.txt	LTP251	ltpFR2	1	15	IGLOO	734	n/a	n/a	0	0	0
3590.166	n/a	REC_WORD	1795083	wordpools/wasnorm_wordpool_576.txt	LTP251	ltpFR2	1	15	SHERIFF	1284	n/a	n/a	0	0	0
3592.06	n/a	REC_WORD	1796030	wordpools/wasnorm_wordpool_576.txt	LTP251	ltpFR2	1	15	PATROL	1027	n/a	n/a	0	0	0
3596.396	n/a	REC_WORD	1798198	wordpools/wasnorm_wordpool_576.txt	LTP251	ltpFR2	1	15	BUCKET	184	n/a	n/a	0	0	0
3609.918	n/a	REC_WORD	1804959	wordpools/wasnorm_wordpool_576.txt	LTP251	ltpFR2	1	15	WINDSHIELD	1612	n/a	n/a	0	0	0
3613.45	n/a	REC_WORD	1806725	wordpools/wasnorm_wordpool_576.txt	LTP251	ltpFR2	1	15	WINDOW	1611	n/a	n/a	0	0	0
3655.626	n/a	DISTRACTOR	1827813	n/a	LTP251	ltpFR2	1	16	n/a	n/a	n/a	n/a	0	0	0
3655.628	n/a	START	1827814	n/a	LTP251	ltpFR2	1	n/a	n/a	n/a	25	n/a	n/a	n/a	n/a
3655.692	n/a	PROB	1827846	n/a	LTP251	ltpFR2	1	n/a	n/a	n/a	25	17	9	2	6
3657.946	n/a	PROB	1828973	n/a	LTP251	ltpFR2	1	n/a	n/a	n/a	25	11	6	3	2
3659.796	n/a	PROB	1829898	n/a	LTP251	ltpFR2	1	n/a	n/a	n/a	25	21	8	9	4
3662.682	n/a	PROB	1831341	n/a	LTP251	ltpFR2	1	n/a	n/a	n/a	25	18	1	8	9
3664.482	n/a	PROB	1832241	n/a	LTP251	ltpFR2	1	n/a	n/a	n/a	25	16	7	2	7
3667.936	n/a	PROB	1833968	n/a	LTP251	ltpFR2	1	n/a	n/a	n/a	25	18	9	2	7
3671.156	n/a	PROB	1835578	n/a	LTP251	ltpFR2	1	n/a	n/a	n/a	25	11	4	4	3
3674.124	n/a	PROB	1837062	n/a	LTP251	ltpFR2	1	n/a	n/a	n/a	25	12	8	1	3
3675.808	n/a	PROB	1837904	n/a	LTP251	ltpFR2	1	n/a	n/a	n/a	25	21	8	7	7
3679.088	n/a	STOP	1839544	n/a	LTP251	ltpFR2	1	n/a	n/a	n/a	25	n/a	n/a	n/a	n/a
3680.874	n/a	WORD	1840437	wordpools/wasnorm_wordpool_576.txt	LTP251	ltpFR2	1	16	POPCORN	1104	n/a	n/a	0	0	0
3683.498	n/a	WORD	1841749	wordpools/wasnorm_wordpool_576.txt	LTP251	ltpFR2	1	16	HOOD	714	n/a	n/a	0	0	0
3686.018	n/a	WORD	1843009	wordpools/wasnorm_wordpool_576.txt	LTP251	ltpFR2	1	16	MESSAGE	888	n/a	n/a	0	0	0
3688.586	n/a	WORD	1844293	wordpools/wasnorm_wordpool_576.txt	LTP251	ltpFR2	1	16	STAMP	1370	n/a	n/a	0	0	0
3691.354	n/a	WORD	1845677	wordpools/wasnorm_wordpool_576.txt	LTP251	ltpFR2	1	16	PRINCE	1124	n/a	n/a	0	0	0
3694.106	n/a	WORD	1847053	wordpools/wasnorm_wordpool_576.txt	LTP251	ltpFR2	1	16	ITEM	746	n/a	n/a	0	0	0
3696.808	n/a	WORD	1848404	wordpools/wasnorm_wordpool_576.txt	LTP251	ltpFR2	1	16	PENGUIN	1044	n/a	n/a	0	0	0
3699.46	n/a	WORD	1849730	wordpools/wasnorm_wordpool_576.txt	LTP251	ltpFR2	1	16	GLOBE	641	n/a	n/a	0	0	0
3702.064	n/a	WORD	1851032	wordpools/wasnorm_wordpool_576.txt	LTP251	ltpFR2	1	16	PERFUME	1049	n/a	n/a	0	0	0
3704.648	n/a	WORD	1852324	wordpools/wasnorm_wordpool_576.txt	LTP251	ltpFR2	1	16	SADDLE	1221	n/a	n/a	0	0	0
3707.318	n/a	WORD	1853659	wordpools/wasnorm_wordpool_576.txt	LTP251	ltpFR2	1	16	TRACTOR	1493	n/a	n/a	0	0	0
3710.12	n/a	WORD	1855060	wordpools/wasnorm_wordpool_576.txt	LTP251	ltpFR2	1	16	DRIVER	499	n/a	n/a	0	0	0
3712.67	n/a	WORD	1856335	wordpools/wasnorm_wordpool_576.txt	LTP251	ltpFR2	1	16	COLONEL	348	n/a	n/a	0	0	0
3715.522	n/a	WORD	1857761	wordpools/wasnorm_wordpool_576.txt	LTP251	ltpFR2	1	16	PAPER	1011	n/a	n/a	0	0	0
3718.124	n/a	WORD	1859062	wordpools/wasnorm_wordpool_576.txt	LTP251	ltpFR2	1	16	GOBLIN	645	n/a	n/a	0	0	0
3720.96	n/a	WORD	1860480	wordpools/wasnorm_wordpool_576.txt	LTP251	ltpFR2	1	16	COCOON	339	n/a	n/a	0	0	0
3723.796	n/a	WORD	1861898	wordpools/wasnorm_wordpool_576.txt	LTP251	ltpFR2	1	16	ARMY	39	n/a	n/a	0	0	0
3726.564	n/a	WORD	1863282	wordpools/wasnorm_wordpool_576.txt	LTP251	ltpFR2	1	16	ASIA	46	n/a	n/a	0	0	0
3729.232	n/a	WORD	1864616	wordpools/wasnorm_wordpool_576.txt	LTP251	ltpFR2	1	16	PIZZA	1079	n/a	n/a	0	0	0
3731.986	n/a	WORD	1865993	wordpools/wasnorm_wordpool_576.txt	LTP251	ltpFR2	1	16	POISON	1096	n/a	n/a	0	0	0
3734.788	n/a	WORD	1867394	wordpools/wasnorm_wordpool_576.txt	LTP251	ltpFR2	1	16	PARTNER	1017	n/a	n/a	0	0	0
3737.656	n/a	WORD	1868828	wordpools/wasnorm_wordpool_576.txt	LTP251	ltpFR2	1	16	FRIEND	606	n/a	n/a	0	0	0
3740.358	n/a	WORD	1870179	wordpools/wasnorm_wordpool_576.txt	LTP251	ltpFR2	1	16	KNIFE	785	n/a	n/a	0	0	0
3743.15	n/a	WORD	1871575	wordpools/wasnorm_wordpool_576.txt	LTP251	ltpFR2	1	16	GARDEN	623	n/a	n/a	0	0	0
3744.78	n/a	START	1872390	n/a	LTP251	ltpFR2	1	n/a	n/a	n/a	26	n/a	n/a	n/a	n/a
3745.912	n/a	DISTRACTOR	1872956	n/a	LTP251	ltpFR2	1	16	n/a	n/a	n/a	n/a	0	0	0
3745.948	n/a	PROB	1872974	n/a	LTP251	ltpFR2	1	n/a	n/a	n/a	26	11	4	4	3
3749.248	n/a	PROB	1874624	n/a	LTP251	ltpFR2	1	n/a	n/a	n/a	26	18	1	9	8
3751.034	n/a	PROB	1875517	n/a	LTP251	ltpFR2	1	n/a	n/a	n/a	26	24	9	6	9
3753.87	n/a	PROB	1876935	n/a	LTP251	ltpFR2	1	n/a	n/a	n/a	26	11	5	3	3
3755.52	n/a	PROB	1877760	n/a	LTP251	ltpFR2	1	n/a	n/a	n/a	26	14	8	4	2
3758.524	n/a	PROB	1879262	n/a	LTP251	ltpFR2	1	n/a	n/a	n/a	26	9	1	7	1
3760.78	n/a	PROB	1880390	n/a	LTP251	ltpFR2	1	n/a	n/a	n/a	26	21	4	8	9
3762.75	n/a	PROB	1881375	n/a	LTP251	ltpFR2	1	n/a	n/a	n/a	26	10	3	3	4
3765.344	n/a	PROB	1882672	n/a	LTP251	ltpFR2	1	n/a	n/a	n/a	26	18	3	9	6
3768.778	n/a	STOP	1884389	n/a	LTP251	ltpFR2	1	n/a	n/a	n/a	26	n/a	n/a	n/a	n/a
3770.682	n/a	REC_START	1885341	n/a	LTP251	ltpFR2	1	16	n/a	n/a	n/a	n/a	0	0	0
3772.414	n/a	REC_WORD	1886207	wordpools/wasnorm_wordpool_576.txt	LTP251	ltpFR2	1	16	POPCORN	1104	n/a	n/a	0	0	0
3773.742	n/a	REC_WORD	1886871	wordpools/wasnorm_wordpool_576.txt	LTP251	ltpFR2	1	16	PIZZA	1079	n/a	n/a	0	0	0
3775.04	n/a	REC_WORD	1887520	wordpools/wasnorm_wordpool_576.txt	LTP251	ltpFR2	1	16	POISON	1096	n/a	n/a	0	0	0
3776.43	n/a	REC_WORD	1888215	wordpools/wasnorm_wordpool_576.txt	LTP251	ltpFR2	1	16	KNIFE	785	n/a	n/a	0	0	0
3777.772	n/a	REC_WORD	1888886	wordpools/wasnorm_wordpool_576.txt	LTP251	ltpFR2	1	16	MESSAGE	888	n/a	n/a	0	0	0
3779.436	n/a	REC_WORD	1889718	wordpools/wasnorm_wordpool_576.txt	LTP251	ltpFR2	1	16	WORLD	1622	n/a	n/a	0	0	0
3780.82	n/a	REC_WORD	1890410	wordpools/wasnorm_wordpool_576.txt	LTP251	ltpFR2	1	16	ASIA	46	n/a	n/a	0	0	0
3782.696	n/a	REC_WORD	1891348	wordpools/wasnorm_wordpool_576.txt	LTP251	ltpFR2	1	16	ITEM	746	n/a	n/a	0	0	0
3784.162	n/a	REC_WORD	1892081	wordpools/wasnorm_wordpool_576.txt	LTP251	ltpFR2	1	16	PENGUIN	1044	n/a	n/a	0	0	0
3785.562	n/a	REC_WORD	1892781	wordpools/wasnorm_wordpool_576.txt	LTP251	ltpFR2	1	16	GARDEN	623	n/a	n/a	0	0	0
3786.992	n/a	REC_WORD	1893496	wordpools/wasnorm_wordpool_576.txt	LTP251	ltpFR2	1	16	PRINCE	1124	n/a	n/a	0	0	0
3789.064	n/a	REC_WORD	1894532	wordpools/wasnorm_wordpool_576.txt	LTP251	ltpFR2	1	16	COLONEL	348	n/a	n/a	0	0	0
3797.73	n/a	REC_WORD	1898865	wordpools/wasnorm_wordpool_576.txt	LTP251	ltpFR2	1	16	PARTNER	1017	n/a	n/a	0	0	0
3798.762	n/a	REC_WORD	1899381	wordpools/wasnorm_wordpool_576.txt	LTP251	ltpFR2	1	16	FRIEND	606	n/a	n/a	0	0	0
3818.208	n/a	REC_WORD	1909104	wordpools/wasnorm_wordpool_576.txt	LTP251	ltpFR2	1	16	COCOON	339	n/a	n/a	0	0	0
3847.264	n/a	REST_REWET	1923632	n/a	LTP251	ltpFR2	1	16	n/a	n/a	n/a	n/a	0	0	0
4599.562	n/a	DISTRACTOR	2299781	n/a	LTP251	ltpFR2	1	17	n/a	n/a	n/a	n/a	0	0	0
4599.562	n/a	START	2299781	n/a	LTP251	ltpFR2	1	n/a	n/a	n/a	27	n/a	n/a	n/a	n/a
4599.612	n/a	PROB	2299806	n/a	LTP251	ltpFR2	1	n/a	n/a	n/a	27	16	7	3	6
4601.198	n/a	PROB	2300599	n/a	LTP251	ltpFR2	1	n/a	n/a	n/a	27	20	7	7	6
4602.916	n/a	PROB	2301458	n/a	LTP251	ltpFR2	1	n/a	n/a	n/a	27	19	6	9	4
4604.782	n/a	PROB	2302391	n/a	LTP251	ltpFR2	1	n/a	n/a	n/a	27	15	4	9	2
4608.004	n/a	PROB	2304002	n/a	LTP251	ltpFR2	1	n/a	n/a	n/a	27	15	2	4	9
4609.854	n/a	PROB	2304927	n/a	LTP251	ltpFR2	1	n/a	n/a	n/a	27	16	2	4	9
4612.706	n/a	PROB	2306353	n/a	LTP251	ltpFR2	1	n/a	n/a	n/a	27	12	3	7	2
4614.24	n/a	PROB	2307120	n/a	LTP251	ltpFR2	1	n/a	n/a	n/a	27	16	4	4	8
4616.074	n/a	PROB	2308037	n/a	LTP251	ltpFR2	1	n/a	n/a	n/a	27	16	9	2	5
4617.56	n/a	PROB	2308780	n/a	LTP251	ltpFR2	1	n/a	n/a	n/a	27	10	1	8	1
4618.978	n/a	PROB	2309489	n/a	LTP251	ltpFR2	1	n/a	n/a	n/a	27	13	5	1	7
4621.396	n/a	PROB	2310698	n/a	LTP251	ltpFR2	1	n/a	n/a	n/a	27	17	6	3	8
4622.994	n/a	STOP	2311497	n/a	LTP251	ltpFR2	1	n/a	n/a	n/a	27	n/a	n/a	n/a	n/a
4624.466	n/a	WORD	2312233	wordpools/wasnorm_wordpool_576.txt	LTP251	ltpFR2	1	17	ROCKET	1202	n/a	n/a	0	0	0
4627.052	n/a	WORD	2313526	wordpools/wasnorm_wordpool_576.txt	LTP251	ltpFR2	1	17	FUNGUS	614	n/a	n/a	0	0	0
4629.72	n/a	WORD	2314860	wordpools/wasnorm_wordpool_576.txt	LTP251	ltpFR2	1	17	MACHINE	852	n/a	n/a	0	0	0
4632.306	n/a	WORD	2316153	wordpools/wasnorm_wordpool_576.txt	LTP251	ltpFR2	1	17	HARP	689	n/a	n/a	0	0	0
4634.908	n/a	WORD	2317454	wordpools/wasnorm_wordpool_576.txt	LTP251	ltpFR2	1	17	PALACE	1006	n/a	n/a	0	0	0
4637.594	n/a	WORD	2318797	wordpools/wasnorm_wordpool_576.txt	LTP251	ltpFR2	1	17	SKILLET	1317	n/a	n/a	0	0	0
4640.346	n/a	WORD	2320173	wordpools/wasnorm_wordpool_576.txt	LTP251	ltpFR2	1	17	CONTRACT	368	n/a	n/a	0	0	0
4643.032	n/a	WORD	2321516	wordpools/wasnorm_wordpool_576.txt	LTP251	ltpFR2	1	17	NECKLACE	940	n/a	n/a	0	0	0
4645.516	n/a	WORD	2322758	wordpools/wasnorm_wordpool_576.txt	LTP251	ltpFR2	1	17	PEANUT	1032	n/a	n/a	0	0	0
4648.068	n/a	WORD	2324034	wordpools/wasnorm_wordpool_576.txt	LTP251	ltpFR2	1	17	CABIN	211	n/a	n/a	0	0	0
4650.554	n/a	WORD	2325277	wordpools/wasnorm_wordpool_576.txt	LTP251	ltpFR2	1	17	MOTOR	922	n/a	n/a	0	0	0
4653.224	n/a	WORD	2326612	wordpools/wasnorm_wordpool_576.txt	LTP251	ltpFR2	1	17	HIGHWAY	707	n/a	n/a	0	0	0
4656.04	n/a	WORD	2328020	wordpools/wasnorm_wordpool_576.txt	LTP251	ltpFR2	1	17	COCKTAIL	338	n/a	n/a	0	0	0
4658.776	n/a	WORD	2329388	wordpools/wasnorm_wordpool_576.txt	LTP251	ltpFR2	1	17	SCOTCH	1251	n/a	n/a	0	0	0
4661.33	n/a	WORD	2330665	wordpools/wasnorm_wordpool_576.txt	LTP251	ltpFR2	1	17	ROOSTER	1209	n/a	n/a	0	0	0
4664.146	n/a	WORD	2332073	wordpools/wasnorm_wordpool_576.txt	LTP251	ltpFR2	1	17	GRILL	661	n/a	n/a	0	0	0
4666.652	n/a	WORD	2333326	wordpools/wasnorm_wordpool_576.txt	LTP251	ltpFR2	1	17	JUNGLE	764	n/a	n/a	0	0	0
4669.434	n/a	WORD	2334717	wordpools/wasnorm_wordpool_576.txt	LTP251	ltpFR2	1	17	SPACE	1345	n/a	n/a	0	0	0
4672.004	n/a	WORD	2336002	wordpools/wasnorm_wordpool_576.txt	LTP251	ltpFR2	1	17	BRAKE	166	n/a	n/a	0	0	0
4674.772	n/a	WORD	2337386	wordpools/wasnorm_wordpool_576.txt	LTP251	ltpFR2	1	17	CASHEW	253	n/a	n/a	0	0	0
4677.574	n/a	WORD	2338787	wordpools/wasnorm_wordpool_576.txt	LTP251	ltpFR2	1	17	MUFFIN	929	n/a	n/a	0	0	0
4680.264	n/a	WORD	2340132	wordpools/wasnorm_wordpool_576.txt	LTP251	ltpFR2	1	17	TABLET	1427	n/a	n/a	0	0	0
4682.95	n/a	WORD	2341475	wordpools/wasnorm_wordpool_576.txt	LTP251	ltpFR2	1	17	FOREHEAD	592	n/a	n/a	0	0	0
4685.468	n/a	WORD	2342734	wordpools/wasnorm_wordpool_576.txt	LTP251	ltpFR2	1	17	STAKE	1368	n/a	n/a	0	0	0
4687.1	n/a	START	2343550	n/a	LTP251	ltpFR2	1	n/a	n/a	n/a	28	n/a	n/a	n/a	n/a
4688.288	n/a	DISTRACTOR	2344144	n/a	LTP251	ltpFR2	1	17	n/a	n/a	n/a	n/a	0	0	0
4688.314	n/a	PROB	2344157	n/a	LTP251	ltpFR2	1	n/a	n/a	n/a	28	19	9	5	5
4690.25	n/a	PROB	2345125	n/a	LTP251	ltpFR2	1	n/a	n/a	n/a	28	6	1	1	4
4691.738	n/a	PROB	2345869	n/a	LTP251	ltpFR2	1	n/a	n/a	n/a	28	17	3	9	5
4694.186	n/a	PROB	2347093	n/a	LTP251	ltpFR2	1	n/a	n/a	n/a	28	14	3	2	9
4695.754	n/a	PROB	2347877	n/a	LTP251	ltpFR2	1	n/a	n/a	n/a	28	12	3	8	1
4698.612	n/a	PROB	2349306	n/a	LTP251	ltpFR2	1	n/a	n/a	n/a	28	16	2	6	8
4700.692	n/a	PROB	2350346	n/a	LTP251	ltpFR2	1	n/a	n/a	n/a	28	17	2	9	5
4703.594	n/a	PROB	2351797	n/a	LTP251	ltpFR2	1	n/a	n/a	n/a	28	12	3	7	2
4704.968	n/a	PROB	2352484	n/a	LTP251	ltpFR2	1	n/a	n/a	n/a	28	9	5	3	1
4707.236	n/a	PROB	2353618	n/a	LTP251	ltpFR2	1	n/a	n/a	n/a	28	10	8	3	1
4708.782	n/a	PROB	2354391	n/a	LTP251	ltpFR2	1	n/a	n/a	n/a	28	13	1	7	5
4710.25	n/a	STOP	2355125	n/a	LTP251	ltpFR2	1	n/a	n/a	n/a	28	n/a	n/a	n/a	n/a
4713.13	n/a	REC_START	2356565	n/a	LTP251	ltpFR2	1	17	n/a	n/a	n/a	n/a	0	0	0
4714.78	n/a	REC_WORD	2357390	wordpools/wasnorm_wordpool_576.txt	LTP251	ltpFR2	1	17	CABIN	211	n/a	n/a	0	0	0
4716.118	n/a	REC_WORD	2358059	wordpools/wasnorm_wordpool_576.txt	LTP251	ltpFR2	1	17	MOTOR	922	n/a	n/a	0	0	0
4717.692	n/a	REC_WORD	2358846	wordpools/wasnorm_wordpool_576.txt	LTP251	ltpFR2	1	17	HIGHWAY	707	n/a	n/a	0	0	0
4719.666	n/a	REC_WORD	2359833	wordpools/wasnorm_wordpool_576.txt	LTP251	ltpFR2	1	17	FOREHEAD	592	n/a	n/a	0	0	0
4721.694	n/a	REC_WORD	2360847	wordpools/wasnorm_wordpool_576.txt	LTP251	ltpFR2	1	17	TABLET	1427	n/a	n/a	0	0	0
4722.886	n/a	REC_WORD	2361443	wordpools/wasnorm_wordpool_576.txt	LTP251	ltpFR2	1	17	MUFFIN	929	n/a	n/a	0	0	0
4724.328	n/a	REC_WORD	2362164	wordpools/wasnorm_wordpool_576.txt	LTP251	ltpFR2	1	17	COCKTAIL	338	n/a	n/a	0	0	0
4726.188	n/a	REC_WORD	2363094	wordpools/wasnorm_wordpool_576.txt	LTP251	ltpFR2	1	17	SCOTCH	1251	n/a	n/a	0	0	0
4727.978	n/a	REC_WORD	2363989	wordpools/wasnorm_wordpool_576.txt	LTP251	ltpFR2	1	17	SKILLET	1317	n/a	n/a	0	0	0
4729.856	n/a	REC_WORD	2364928	wordpools/wasnorm_wordpool_576.txt	LTP251	ltpFR2	1	17	STAKE	1368	n/a	n/a	0	0	0
4733.728	n/a	REC_WORD	2366864	wordpools/wasnorm_wordpool_576.txt	LTP251	ltpFR2	1	17	GRILL	661	n/a	n/a	0	0	0
4736.26	n/a	REC_WORD	2368130	wordpools/wasnorm_wordpool_576.txt	LTP251	ltpFR2	1	17	PALACE	1006	n/a	n/a	0	0	0
4737.95	n/a	REC_WORD	2368975	wordpools/wasnorm_wordpool_576.txt	LTP251	ltpFR2	1	17	ROCKET	1202	n/a	n/a	0	0	0
4739.586	n/a	REC_WORD	2369793	wordpools/wasnorm_wordpool_576.txt	LTP251	ltpFR2	1	17	SPACE	1345	n/a	n/a	0	0	0
4741.724	n/a	REC_WORD	2370862	wordpools/wasnorm_wordpool_576.txt	LTP251	ltpFR2	1	17	FUNGUS	614	n/a	n/a	0	0	0
4858.464	n/a	WORD	2429232	wordpools/wasnorm_wordpool_576.txt	LTP251	ltpFR2	1	18	PUDDING	1139	n/a	n/a	0	0	0
4861.3	n/a	WORD	2430650	wordpools/wasnorm_wordpool_576.txt	LTP251	ltpFR2	1	18	CYCLONE	431	n/a	n/a	0	0	0
4863.87	n/a	WORD	2431935	wordpools/wasnorm_wordpool_576.txt	LTP251	ltpFR2	1	18	VELVET	1555	n/a	n/a	0	0	0
4866.472	n/a	WORD	2433236	wordpools/wasnorm_wordpool_576.txt	LTP251	ltpFR2	1	18	TRANSPLANT	1496	n/a	n/a	0	0	0
