onset	duration	trial_type	sample	stim_file	subject	experiment	session	trial	item_name	item_num	list	answer	test_x	test_y	test_z
241.029296875	n/a	SESS_START	493628	n/a	LTP378	ltpFR2	8	n/a	n/a	n/a	n/a	n/a	0	0	0
256.10986328125	n/a	START	524513	n/a	LTP378	ltpFR2	8	n/a	n/a	n/a	-1	n/a	n/a	n/a	n/a
256.1396484375	n/a	PROB	524574	n/a	LTP378	ltpFR2	8	n/a	n/a	n/a	-1	19	9	7	3
259.03662109375	n/a	PROB	530507	n/a	LTP378	ltpFR2	8	n/a	n/a	n/a	-1	9	3	1	5
260.73583984375	n/a	PROB	533987	n/a	LTP378	ltpFR2	8	n/a	n/a	n/a	-1	10	1	1	8
262.41943359375	n/a	PROB	537435	n/a	LTP378	ltpFR2	8	n/a	n/a	n/a	-1	14	5	6	3
264.984375	n/a	PROB	542688	n/a	LTP378	ltpFR2	8	n/a	n/a	n/a	-1	16	1	6	9
267.61865234375	n/a	STOP	548083	n/a	LTP378	ltpFR2	8	n/a	n/a	n/a	-1	n/a	n/a	n/a	n/a
303.931640625	n/a	DISTRACTOR	622452	n/a	LTP378	ltpFR2	8	1	n/a	n/a	n/a	n/a	0	0	0
303.931640625	n/a	START	622452	n/a	LTP378	ltpFR2	8	n/a	n/a	n/a	1	n/a	n/a	n/a	n/a
303.94873046875	n/a	PROB	622487	n/a	LTP378	ltpFR2	8	n/a	n/a	n/a	1	14	3	4	7
306.181640625	n/a	PROB	627060	n/a	LTP378	ltpFR2	8	n/a	n/a	n/a	1	22	8	8	6
311.5625	n/a	PROB	638080	n/a	LTP378	ltpFR2	8	n/a	n/a	n/a	1	15	8	6	1
313.361328125	n/a	PROB	641764	n/a	LTP378	ltpFR2	8	n/a	n/a	n/a	1	14	4	9	1
315.27734375	n/a	PROB	645688	n/a	LTP378	ltpFR2	8	n/a	n/a	n/a	1	14	3	6	6
318.00830078125	n/a	PROB	651281	n/a	LTP378	ltpFR2	8	n/a	n/a	n/a	1	14	6	5	3
320.873046875	n/a	PROB	657148	n/a	LTP378	ltpFR2	8	n/a	n/a	n/a	1	16	2	6	8
323.255859375	n/a	PROB	662028	n/a	LTP378	ltpFR2	8	n/a	n/a	n/a	1	18	7	7	4
327.72216796875	n/a	STOP	671175	n/a	LTP378	ltpFR2	8	n/a	n/a	n/a	1	n/a	n/a	n/a	n/a
328.98583984375	n/a	WORD	673763	wordpools/wasnorm_wordpool_576.txt	LTP378	ltpFR2	8	1	YACHT	1629	n/a	n/a	0	0	0
331.552734375	n/a	WORD	679020	wordpools/wasnorm_wordpool_576.txt	LTP378	ltpFR2	8	1	DONOR	485	n/a	n/a	0	0	0
334.30078125	n/a	WORD	684648	wordpools/wasnorm_wordpool_576.txt	LTP378	ltpFR2	8	1	DONKEY	484	n/a	n/a	0	0	0
336.98291015625	n/a	WORD	690141	wordpools/wasnorm_wordpool_576.txt	LTP378	ltpFR2	8	1	WORKER	1621	n/a	n/a	0	0	0
339.61572265625	n/a	WORD	695533	wordpools/wasnorm_wordpool_576.txt	LTP378	ltpFR2	8	1	TYPIST	1532	n/a	n/a	0	0	0
342.41357421875	n/a	WORD	701263	wordpools/wasnorm_wordpool_576.txt	LTP378	ltpFR2	8	1	BOX	159	n/a	n/a	0	0	0
345.1123046875	n/a	WORD	706790	wordpools/wasnorm_wordpool_576.txt	LTP378	ltpFR2	8	1	SEAL	1262	n/a	n/a	0	0	0
347.76025390625	n/a	WORD	712213	wordpools/wasnorm_wordpool_576.txt	LTP378	ltpFR2	8	1	TABLE	1426	n/a	n/a	0	0	0
350.51025390625	n/a	WORD	717845	wordpools/wasnorm_wordpool_576.txt	LTP378	ltpFR2	8	1	COUCH	386	n/a	n/a	0	0	0
353.25830078125	n/a	WORD	723473	wordpools/wasnorm_wordpool_576.txt	LTP378	ltpFR2	8	1	PASSAGE	1019	n/a	n/a	0	0	0
355.97314453125	n/a	WORD	729033	wordpools/wasnorm_wordpool_576.txt	LTP378	ltpFR2	8	1	ELBOW	520	n/a	n/a	0	0	0
358.67138671875	n/a	WORD	734559	wordpools/wasnorm_wordpool_576.txt	LTP378	ltpFR2	8	1	GUITAR	670	n/a	n/a	0	0	0
361.22119140625	n/a	WORD	739781	wordpools/wasnorm_wordpool_576.txt	LTP378	ltpFR2	8	1	EYELASH	546	n/a	n/a	0	0	0
363.98583984375	n/a	WORD	745443	wordpools/wasnorm_wordpool_576.txt	LTP378	ltpFR2	8	1	TRANSPLANT	1496	n/a	n/a	0	0	0
366.7841796875	n/a	WORD	751174	wordpools/wasnorm_wordpool_576.txt	LTP378	ltpFR2	8	1	VAGRANT	1544	n/a	n/a	0	0	0
369.466796875	n/a	WORD	756668	wordpools/wasnorm_wordpool_576.txt	LTP378	ltpFR2	8	1	CATTLE	261	n/a	n/a	0	0	0
371.98193359375	n/a	WORD	761819	wordpools/wasnorm_wordpool_576.txt	LTP378	ltpFR2	8	1	FRECKLE	602	n/a	n/a	0	0	0
374.763671875	n/a	WORD	767516	wordpools/wasnorm_wordpool_576.txt	LTP378	ltpFR2	8	1	BRANDY	169	n/a	n/a	0	0	0
377.4794921875	n/a	WORD	773078	wordpools/wasnorm_wordpool_576.txt	LTP378	ltpFR2	8	1	CIGAR	308	n/a	n/a	0	0	0
380.11279296875	n/a	WORD	778471	wordpools/wasnorm_wordpool_576.txt	LTP378	ltpFR2	8	1	MILK	895	n/a	n/a	0	0	0
382.8095703125	n/a	WORD	783994	wordpools/wasnorm_wordpool_576.txt	LTP378	ltpFR2	8	1	DORM	488	n/a	n/a	0	0	0
385.4765625	n/a	WORD	789456	wordpools/wasnorm_wordpool_576.txt	LTP378	ltpFR2	8	1	ROD	1203	n/a	n/a	0	0	0
388.158203125	n/a	WORD	794948	wordpools/wasnorm_wordpool_576.txt	LTP378	ltpFR2	8	1	STUDENT	1395	n/a	n/a	0	0	0
390.78955078125	n/a	WORD	800337	wordpools/wasnorm_wordpool_576.txt	LTP378	ltpFR2	8	1	FOREHEAD	592	n/a	n/a	0	0	0
392.40625	n/a	START	803648	n/a	LTP378	ltpFR2	8	n/a	n/a	n/a	2	n/a	n/a	n/a	n/a
393.37548828125	n/a	DISTRACTOR	805633	n/a	LTP378	ltpFR2	8	1	n/a	n/a	n/a	n/a	0	0	0
393.38916015625	n/a	PROB	805661	n/a	LTP378	ltpFR2	8	n/a	n/a	n/a	2	6	1	2	3
396.10400390625	n/a	PROB	811221	n/a	LTP378	ltpFR2	8	n/a	n/a	n/a	2	25	8	9	8
407.0810546875	n/a	PROB	833702	n/a	LTP378	ltpFR2	8	n/a	n/a	n/a	2	11	3	7	1
408.73095703125	n/a	PROB	837081	n/a	LTP378	ltpFR2	8	n/a	n/a	n/a	2	14	1	8	5
413.4287109375	n/a	PROB	846702	n/a	LTP378	ltpFR2	8	n/a	n/a	n/a	2	11	3	7	1
416.3955078125	n/a	STOP	852778	n/a	LTP378	ltpFR2	8	n/a	n/a	n/a	2	n/a	n/a	n/a	n/a
418.36083984375	n/a	REC_START	856803	n/a	LTP378	ltpFR2	8	1	n/a	n/a	n/a	n/a	0	0	0
419.10546875	n/a	REC_WORD	858328	wordpools/wasnorm_wordpool_576.txt	LTP378	ltpFR2	8	1	YACHT	1629	n/a	n/a	0	0	0
419.95556640625	n/a	REC_WORD	860069	wordpools/wasnorm_wordpool_576.txt	LTP378	ltpFR2	8	1	GUITAR	670	n/a	n/a	0	0	0
420.74560546875	n/a	REC_WORD	861687	wordpools/wasnorm_wordpool_576.txt	LTP378	ltpFR2	8	1	EYELASH	546	n/a	n/a	0	0	0
421.4423828125	n/a	REC_WORD	863114	wordpools/wasnorm_wordpool_576.txt	LTP378	ltpFR2	8	1	TRANSPLANT	1496	n/a	n/a	0	0	0
422.59228515625	n/a	REC_WORD	865469	wordpools/wasnorm_wordpool_576.txt	LTP378	ltpFR2	8	1	DONOR	485	n/a	n/a	0	0	0
491.392578125	n/a	REC_WORD	1006372	wordpools/wasnorm_wordpool_576.txt	LTP378	ltpFR2	8	1	ELBOW	520	n/a	n/a	0	0	0
508.79833984375	n/a	DISTRACTOR	1042019	n/a	LTP378	ltpFR2	8	2	n/a	n/a	n/a	n/a	0	0	0
508.79833984375	n/a	START	1042019	n/a	LTP378	ltpFR2	8	n/a	n/a	n/a	3	n/a	n/a	n/a	n/a
508.8154296875	n/a	PROB	1042054	n/a	LTP378	ltpFR2	8	n/a	n/a	n/a	3	19	6	6	7
513.18017578125	n/a	PROB	1050993	n/a	LTP378	ltpFR2	8	n/a	n/a	n/a	3	14	3	4	7
515.14599609375	n/a	PROB	1055019	n/a	LTP378	ltpFR2	8	n/a	n/a	n/a	3	18	8	4	6
517.2451171875	n/a	PROB	1059318	n/a	LTP378	ltpFR2	8	n/a	n/a	n/a	3	18	3	9	6
519.60986328125	n/a	PROB	1064161	n/a	LTP378	ltpFR2	8	n/a	n/a	n/a	3	23	6	9	8
526.44091796875	n/a	PROB	1078151	n/a	LTP378	ltpFR2	8	n/a	n/a	n/a	3	10	4	4	2
531.27685546875	n/a	STOP	1088055	n/a	LTP378	ltpFR2	8	n/a	n/a	n/a	3	n/a	n/a	n/a	n/a
533.6357421875	n/a	WORD	1092886	wordpools/wasnorm_wordpool_576.txt	LTP378	ltpFR2	8	2	TURTLE	1522	n/a	n/a	0	0	0
536.1025390625	n/a	WORD	1097938	wordpools/wasnorm_wordpool_576.txt	LTP378	ltpFR2	8	2	IDOL	733	n/a	n/a	0	0	0
538.91650390625	n/a	WORD	1103701	wordpools/wasnorm_wordpool_576.txt	LTP378	ltpFR2	8	2	CHAPEL	280	n/a	n/a	0	0	0
541.6484375	n/a	WORD	1109296	wordpools/wasnorm_wordpool_576.txt	LTP378	ltpFR2	8	2	FLIPPER	580	n/a	n/a	0	0	0
544.2314453125	n/a	WORD	1114586	wordpools/wasnorm_wordpool_576.txt	LTP378	ltpFR2	8	2	DAISY	435	n/a	n/a	0	0	0
546.87939453125	n/a	WORD	1120009	wordpools/wasnorm_wordpool_576.txt	LTP378	ltpFR2	8	2	LUGGAGE	847	n/a	n/a	0	0	0
549.412109375	n/a	WORD	1125196	wordpools/wasnorm_wordpool_576.txt	LTP378	ltpFR2	8	2	LEADER	807	n/a	n/a	0	0	0
552.0771484375	n/a	WORD	1130654	wordpools/wasnorm_wordpool_576.txt	LTP378	ltpFR2	8	2	BRANCH	168	n/a	n/a	0	0	0
554.5771484375	n/a	WORD	1135774	wordpools/wasnorm_wordpool_576.txt	LTP378	ltpFR2	8	2	CROWN	415	n/a	n/a	0	0	0
557.3251953125	n/a	WORD	1141402	wordpools/wasnorm_wordpool_576.txt	LTP378	ltpFR2	8	2	LIZARD	834	n/a	n/a	0	0	0
559.7900390625	n/a	WORD	1146450	wordpools/wasnorm_wordpool_576.txt	LTP378	ltpFR2	8	2	EXPERT	543	n/a	n/a	0	0	0
562.35595703125	n/a	WORD	1151705	wordpools/wasnorm_wordpool_576.txt	LTP378	ltpFR2	8	2	SUMMIT	1405	n/a	n/a	0	0	0
565.0537109375	n/a	WORD	1157230	wordpools/wasnorm_wordpool_576.txt	LTP378	ltpFR2	8	2	PRIMATE	1123	n/a	n/a	0	0	0
567.86962890625	n/a	WORD	1162997	wordpools/wasnorm_wordpool_576.txt	LTP378	ltpFR2	8	2	RIVER	1194	n/a	n/a	0	0	0
570.5029296875	n/a	WORD	1168390	wordpools/wasnorm_wordpool_576.txt	LTP378	ltpFR2	8	2	DIVER	476	n/a	n/a	0	0	0
572.93359375	n/a	WORD	1173368	wordpools/wasnorm_wordpool_576.txt	LTP378	ltpFR2	8	2	PICTURE	1061	n/a	n/a	0	0	0
575.732421875	n/a	WORD	1179100	wordpools/wasnorm_wordpool_576.txt	LTP378	ltpFR2	8	2	FOOT	590	n/a	n/a	0	0	0
578.29833984375	n/a	WORD	1184355	wordpools/wasnorm_wordpool_576.txt	LTP378	ltpFR2	8	2	VALLEY	1545	n/a	n/a	0	0	0
580.91259765625	n/a	WORD	1189709	wordpools/wasnorm_wordpool_576.txt	LTP378	ltpFR2	8	2	FLOWER	584	n/a	n/a	0	0	0
583.41259765625	n/a	WORD	1194829	wordpools/wasnorm_wordpool_576.txt	LTP378	ltpFR2	8	2	ROOSTER	1209	n/a	n/a	0	0	0
585.9931640625	n/a	WORD	1200114	wordpools/wasnorm_wordpool_576.txt	LTP378	ltpFR2	8	2	CHAUFFEUR	283	n/a	n/a	0	0	0
588.443359375	n/a	WORD	1205132	wordpools/wasnorm_wordpool_576.txt	LTP378	ltpFR2	8	2	RUST	1219	n/a	n/a	0	0	0
591.208984375	n/a	WORD	1210796	wordpools/wasnorm_wordpool_576.txt	LTP378	ltpFR2	8	2	FOOTBALL	591	n/a	n/a	0	0	0
593.990234375	n/a	WORD	1216492	wordpools/wasnorm_wordpool_576.txt	LTP378	ltpFR2	8	2	UNCLE	1536	n/a	n/a	0	0	0
595.60693359375	n/a	START	1219803	n/a	LTP378	ltpFR2	8	n/a	n/a	n/a	4	n/a	n/a	n/a	n/a
596.7080078125	n/a	DISTRACTOR	1222058	n/a	LTP378	ltpFR2	8	2	n/a	n/a	n/a	n/a	0	0	0
596.72216796875	n/a	PROB	1222087	n/a	LTP378	ltpFR2	8	n/a	n/a	n/a	4	19	6	4	9
599.787109375	n/a	PROB	1228364	n/a	LTP378	ltpFR2	8	n/a	n/a	n/a	4	22	8	7	8
610.49951171875	n/a	PROB	1250303	n/a	LTP378	ltpFR2	8	n/a	n/a	n/a	4	20	8	4	8
616.04541015625	n/a	PROB	1261661	n/a	LTP378	ltpFR2	8	n/a	n/a	n/a	4	18	1	9	8
618.88427734375	n/a	STOP	1267475	n/a	LTP378	ltpFR2	8	n/a	n/a	n/a	4	n/a	n/a	n/a	n/a
621.39453125	n/a	REC_START	1272616	n/a	LTP378	ltpFR2	8	2	n/a	n/a	n/a	n/a	0	0	0
625.107421875	n/a	REC_WORD	1280220	wordpools/wasnorm_wordpool_576.txt	LTP378	ltpFR2	8	2	FLIPPER	580	n/a	n/a	0	0	0
626.107421875	n/a	REC_WORD_VV	1282268	wordpools/wasnorm_wordpool_576.txt	LTP378	ltpFR2	8	2	<>	-1	n/a	n/a	0	0	0
626.38134765625	n/a	REC_WORD	1282829	wordpools/wasnorm_wordpool_576.txt	LTP378	ltpFR2	8	2	DAISY	435	n/a	n/a	0	0	0
630.2041015625	n/a	REC_WORD	1290658	wordpools/wasnorm_wordpool_576.txt	LTP378	ltpFR2	8	2	LEADER	807	n/a	n/a	0	0	0
630.89013671875	n/a	REC_WORD	1292063	wordpools/wasnorm_wordpool_576.txt	LTP378	ltpFR2	8	2	LUGGAGE	847	n/a	n/a	0	0	0
640.02783203125	n/a	REC_WORD	1310777	wordpools/wasnorm_wordpool_576.txt	LTP378	ltpFR2	8	2	FOOTBALL	591	n/a	n/a	0	0	0
650.1787109375	n/a	REC_WORD	1331566	wordpools/wasnorm_wordpool_576.txt	LTP378	ltpFR2	8	2	SUMMIT	1405	n/a	n/a	0	0	0
651.0205078125	n/a	REC_WORD	1333290	wordpools/wasnorm_wordpool_576.txt	LTP378	ltpFR2	8	2	PRIMATE	1123	n/a	n/a	0	0	0
663.75048828125	n/a	REC_WORD_VV	1359361	wordpools/wasnorm_wordpool_576.txt	LTP378	ltpFR2	8	2	<>	-1	n/a	n/a	0	0	0
711.83203125	n/a	DISTRACTOR	1457832	n/a	LTP378	ltpFR2	8	3	n/a	n/a	n/a	n/a	0	0	0
711.83203125	n/a	START	1457832	n/a	LTP378	ltpFR2	8	n/a	n/a	n/a	5	n/a	n/a	n/a	n/a
711.84912109375	n/a	PROB	1457867	n/a	LTP378	ltpFR2	8	n/a	n/a	n/a	5	20	6	5	9
715.43115234375	n/a	PROB	1465203	n/a	LTP378	ltpFR2	8	n/a	n/a	n/a	5	13	5	6	2
717.8291015625	n/a	PROB	1470114	n/a	LTP378	ltpFR2	8	n/a	n/a	n/a	5	14	7	2	5
720.1630859375	n/a	PROB	1474894	n/a	LTP378	ltpFR2	8	n/a	n/a	n/a	5	8	1	6	1
722.41162109375	n/a	PROB	1479499	n/a	LTP378	ltpFR2	8	n/a	n/a	n/a	5	12	6	4	2
724.2265625	n/a	PROB	1483216	n/a	LTP378	ltpFR2	8	n/a	n/a	n/a	5	13	1	5	7
727.69091796875	n/a	PROB	1490311	n/a	LTP378	ltpFR2	8	n/a	n/a	n/a	5	11	6	2	3
730.7724609375	n/a	PROB	1496622	n/a	LTP378	ltpFR2	8	n/a	n/a	n/a	5	14	3	3	8
732.888671875	n/a	PROB	1500956	n/a	LTP378	ltpFR2	8	n/a	n/a	n/a	5	12	4	6	2
734.765625	n/a	STOP	1504800	n/a	LTP378	ltpFR2	8	n/a	n/a	n/a	5	n/a	n/a	n/a	n/a
736.6533203125	n/a	WORD	1508666	wordpools/wasnorm_wordpool_576.txt	LTP378	ltpFR2	8	3	JUNGLE	764	n/a	n/a	0	0	0
739.36962890625	n/a	WORD	1514229	wordpools/wasnorm_wordpool_576.txt	LTP378	ltpFR2	8	3	CHIPMUNK	304	n/a	n/a	0	0	0
741.91748046875	n/a	WORD	1519447	wordpools/wasnorm_wordpool_576.txt	LTP378	ltpFR2	8	3	RATTLE	1170	n/a	n/a	0	0	0
744.6494140625	n/a	WORD	1525042	wordpools/wasnorm_wordpool_576.txt	LTP378	ltpFR2	8	3	HELMET	702	n/a	n/a	0	0	0
747.1494140625	n/a	WORD	1530162	wordpools/wasnorm_wordpool_576.txt	LTP378	ltpFR2	8	3	TUBA	1515	n/a	n/a	0	0	0
749.72998046875	n/a	WORD	1535447	wordpools/wasnorm_wordpool_576.txt	LTP378	ltpFR2	8	3	DINER	467	n/a	n/a	0	0	0
752.4130859375	n/a	WORD	1540942	wordpools/wasnorm_wordpool_576.txt	LTP378	ltpFR2	8	3	SHELTER	1282	n/a	n/a	0	0	0
755.12890625	n/a	WORD	1546504	wordpools/wasnorm_wordpool_576.txt	LTP378	ltpFR2	8	3	CONTRACT	368	n/a	n/a	0	0	0
757.91015625	n/a	WORD	1552200	wordpools/wasnorm_wordpool_576.txt	LTP378	ltpFR2	8	3	PERFUME	1049	n/a	n/a	0	0	0
760.6748046875	n/a	WORD	1557862	wordpools/wasnorm_wordpool_576.txt	LTP378	ltpFR2	8	3	MILDEW	893	n/a	n/a	0	0	0
763.40771484375	n/a	WORD	1563459	wordpools/wasnorm_wordpool_576.txt	LTP378	ltpFR2	8	3	SHOVEL	1295	n/a	n/a	0	0	0
766.12353515625	n/a	WORD	1569021	wordpools/wasnorm_wordpool_576.txt	LTP378	ltpFR2	8	3	SAUSAGE	1238	n/a	n/a	0	0	0
768.90478515625	n/a	WORD	1574717	wordpools/wasnorm_wordpool_576.txt	LTP378	ltpFR2	8	3	TOMBSTONE	1478	n/a	n/a	0	0	0
771.7197265625	n/a	WORD	1580482	wordpools/wasnorm_wordpool_576.txt	LTP378	ltpFR2	8	3	PILOT	1070	n/a	n/a	0	0	0
774.15234375	n/a	WORD	1585464	wordpools/wasnorm_wordpool_576.txt	LTP378	ltpFR2	8	3	FLESH	579	n/a	n/a	0	0	0
776.96728515625	n/a	WORD	1591229	wordpools/wasnorm_wordpool_576.txt	LTP378	ltpFR2	8	3	COCKTAIL	338	n/a	n/a	0	0	0
779.533203125	n/a	WORD	1596484	wordpools/wasnorm_wordpool_576.txt	LTP378	ltpFR2	8	3	DRINK	498	n/a	n/a	0	0	0
782.3154296875	n/a	WORD	1602182	wordpools/wasnorm_wordpool_576.txt	LTP378	ltpFR2	8	3	RUG	1215	n/a	n/a	0	0	0
784.7802734375	n/a	WORD	1607230	wordpools/wasnorm_wordpool_576.txt	LTP378	ltpFR2	8	3	OUTLAW	989	n/a	n/a	0	0	0
787.5791015625	n/a	WORD	1612962	wordpools/wasnorm_wordpool_576.txt	LTP378	ltpFR2	8	3	AIRPORT	13	n/a	n/a	0	0	0
790.02734375	n/a	WORD	1617976	wordpools/wasnorm_wordpool_576.txt	LTP378	ltpFR2	8	3	PIGMENT	1066	n/a	n/a	0	0	0
792.5439453125	n/a	WORD	1623130	wordpools/wasnorm_wordpool_576.txt	LTP378	ltpFR2	8	3	REBEL	1172	n/a	n/a	0	0	0
795.05810546875	n/a	WORD	1628279	wordpools/wasnorm_wordpool_576.txt	LTP378	ltpFR2	8	3	WHISTLE	1606	n/a	n/a	0	0	0
797.68994140625	n/a	WORD	1633669	wordpools/wasnorm_wordpool_576.txt	LTP378	ltpFR2	8	3	LOFT	840	n/a	n/a	0	0	0
799.30810546875	n/a	START	1636983	n/a	LTP378	ltpFR2	8	n/a	n/a	n/a	6	n/a	n/a	n/a	n/a
800.337890625	n/a	DISTRACTOR	1639092	n/a	LTP378	ltpFR2	8	3	n/a	n/a	n/a	n/a	0	0	0
800.33984375	n/a	PROB	1639096	n/a	LTP378	ltpFR2	8	n/a	n/a	n/a	6	12	5	1	6
802.837890625	n/a	PROB	1644212	n/a	LTP378	ltpFR2	8	n/a	n/a	n/a	6	13	6	5	2
804.95361328125	n/a	PROB	1648545	n/a	LTP378	ltpFR2	8	n/a	n/a	n/a	6	17	6	9	2
807.15380859375	n/a	PROB	1653051	n/a	LTP378	ltpFR2	8	n/a	n/a	n/a	6	10	1	6	3
809.0673828125	n/a	PROB	1656970	n/a	LTP378	ltpFR2	8	n/a	n/a	n/a	6	13	8	4	1
811.4677734375	n/a	PROB	1661886	n/a	LTP378	ltpFR2	8	n/a	n/a	n/a	6	14	2	7	5
823.30712890625	n/a	STOP	1686133	n/a	LTP378	ltpFR2	8	n/a	n/a	n/a	6	n/a	n/a	n/a	n/a
825.21240234375	n/a	REC_START	1690035	n/a	LTP378	ltpFR2	8	3	n/a	n/a	n/a	n/a	0	0	0
827.88720703125	n/a	REC_WORD	1695513	wordpools/wasnorm_wordpool_576.txt	LTP378	ltpFR2	8	3	RUG	1215	n/a	n/a	0	0	0
834.99609375	n/a	REC_WORD	1710072	wordpools/wasnorm_wordpool_576.txt	LTP378	ltpFR2	8	3	BOOK	149	n/a	n/a	0	0	0
840.74169921875	n/a	REC_WORD	1721839	wordpools/wasnorm_wordpool_576.txt	LTP378	ltpFR2	8	3	JUNGLE	764	n/a	n/a	0	0	0
841.3486328125	n/a	REC_WORD	1723082	wordpools/wasnorm_wordpool_576.txt	LTP378	ltpFR2	8	3	CHIPMUNK	304	n/a	n/a	0	0	0
881.03857421875	n/a	REC_WORD	1804367	wordpools/wasnorm_wordpool_576.txt	LTP378	ltpFR2	8	3	WHISTLE	1606	n/a	n/a	0	0	0
915.666015625	n/a	WORD	1875284	wordpools/wasnorm_wordpool_576.txt	LTP378	ltpFR2	8	4	PADDING	999	n/a	n/a	0	0	0
918.23291015625	n/a	WORD	1880541	wordpools/wasnorm_wordpool_576.txt	LTP378	ltpFR2	8	4	SCALPEL	1243	n/a	n/a	0	0	0
920.9296875	n/a	WORD	1886064	wordpools/wasnorm_wordpool_576.txt	LTP378	ltpFR2	8	4	BLOUSE	139	n/a	n/a	0	0	0
923.44677734375	n/a	WORD	1891219	wordpools/wasnorm_wordpool_576.txt	LTP378	ltpFR2	8	4	DRESS	495	n/a	n/a	0	0	0
926.11181640625	n/a	WORD	1896677	wordpools/wasnorm_wordpool_576.txt	LTP378	ltpFR2	8	4	BISON	131	n/a	n/a	0	0	0
928.79248046875	n/a	WORD	1902167	wordpools/wasnorm_wordpool_576.txt	LTP378	ltpFR2	8	4	OX	994	n/a	n/a	0	0	0
931.45947265625	n/a	WORD	1907629	wordpools/wasnorm_wordpool_576.txt	LTP378	ltpFR2	8	4	MARKER	870	n/a	n/a	0	0	0
933.92333984375	n/a	WORD	1912675	wordpools/wasnorm_wordpool_576.txt	LTP378	ltpFR2	8	4	SKETCH	1315	n/a	n/a	0	0	0
936.7392578125	n/a	WORD	1918442	wordpools/wasnorm_wordpool_576.txt	LTP378	ltpFR2	8	4	SWIMMER	1420	n/a	n/a	0	0	0
939.1884765625	n/a	WORD	1923458	wordpools/wasnorm_wordpool_576.txt	LTP378	ltpFR2	8	4	BUGGY	188	n/a	n/a	0	0	0
941.93603515625	n/a	WORD	1929085	wordpools/wasnorm_wordpool_576.txt	LTP378	ltpFR2	8	4	COBRA	336	n/a	n/a	0	0	0
944.60302734375	n/a	WORD	1934547	wordpools/wasnorm_wordpool_576.txt	LTP378	ltpFR2	8	4	PARSLEY	1016	n/a	n/a	0	0	0
947.2509765625	n/a	WORD	1939970	wordpools/wasnorm_wordpool_576.txt	LTP378	ltpFR2	8	4	DASHBOARD	441	n/a	n/a	0	0	0
949.7490234375	n/a	WORD	1945086	wordpools/wasnorm_wordpool_576.txt	LTP378	ltpFR2	8	4	JUDGE	761	n/a	n/a	0	0	0
952.34912109375	n/a	WORD	1950411	wordpools/wasnorm_wordpool_576.txt	LTP378	ltpFR2	8	4	KIDNEY	776	n/a	n/a	0	0	0
954.830078125	n/a	WORD	1955492	wordpools/wasnorm_wordpool_576.txt	LTP378	ltpFR2	8	4	BANKER	84	n/a	n/a	0	0	0
957.3466796875	n/a	WORD	1960646	wordpools/wasnorm_wordpool_576.txt	LTP378	ltpFR2	8	4	POWDER	1117	n/a	n/a	0	0	0
959.9775390625	n/a	WORD	1966034	wordpools/wasnorm_wordpool_576.txt	LTP378	ltpFR2	8	4	TREAT	1501	n/a	n/a	0	0	0
962.49365234375	n/a	WORD	1971187	wordpools/wasnorm_wordpool_576.txt	LTP378	ltpFR2	8	4	AIRPLANE	12	n/a	n/a	0	0	0
964.94140625	n/a	WORD	1976200	wordpools/wasnorm_wordpool_576.txt	LTP378	ltpFR2	8	4	PARROT	1015	n/a	n/a	0	0	0
967.5244140625	n/a	WORD	1981490	wordpools/wasnorm_wordpool_576.txt	LTP378	ltpFR2	8	4	PERMIT	1051	n/a	n/a	0	0	0
970.0224609375	n/a	WORD	1986606	wordpools/wasnorm_wordpool_576.txt	LTP378	ltpFR2	8	4	SHARK	1275	n/a	n/a	0	0	0
972.4892578125	n/a	WORD	1991658	wordpools/wasnorm_wordpool_576.txt	LTP378	ltpFR2	8	4	JURY	766	n/a	n/a	0	0	0
975.12158203125	n/a	WORD	1997049	wordpools/wasnorm_wordpool_576.txt	LTP378	ltpFR2	8	4	TWEEZERS	1526	n/a	n/a	0	0	0
976.736328125	n/a	START	2000356	n/a	LTP378	ltpFR2	8	n/a	n/a	n/a	7	n/a	n/a	n/a	n/a
977.8955078125	n/a	DISTRACTOR	2002730	n/a	LTP378	ltpFR2	8	4	n/a	n/a	n/a	n/a	0	0	0
977.90234375	n/a	PROB	2002744	n/a	LTP378	ltpFR2	8	n/a	n/a	n/a	7	24	7	9	8
985.5830078125	n/a	PROB	2018474	n/a	LTP378	ltpFR2	8	n/a	n/a	n/a	7	19	5	8	6
994.97705078125	n/a	PROB	2037713	n/a	LTP378	ltpFR2	8	n/a	n/a	n/a	7	18	9	3	6
1000.73486328125	n/a	STOP	2049505	n/a	LTP378	ltpFR2	8	n/a	n/a	n/a	7	n/a	n/a	n/a	n/a
1002.6748046875	n/a	REC_START	2053478	n/a	LTP378	ltpFR2	8	4	n/a	n/a	n/a	n/a	0	0	0
1004.130859375	n/a	REC_WORD	2056460	wordpools/wasnorm_wordpool_576.txt	LTP378	ltpFR2	8	4	BISON	131	n/a	n/a	0	0	0
1005.0263671875	n/a	REC_WORD	2058294	wordpools/wasnorm_wordpool_576.txt	LTP378	ltpFR2	8	4	OX	994	n/a	n/a	0	0	0
1012.681640625	n/a	REC_WORD	2073972	wordpools/wasnorm_wordpool_576.txt	LTP378	ltpFR2	8	4	PADDING	999	n/a	n/a	0	0	0
1020.2421875	n/a	REC_WORD	2089456	wordpools/wasnorm_wordpool_576.txt	LTP378	ltpFR2	8	4	BLOUSE	139	n/a	n/a	0	0	0
1056.18115234375	n/a	REC_WORD	2163059	wordpools/wasnorm_wordpool_576.txt	LTP378	ltpFR2	8	4	SKETCH	1315	n/a	n/a	0	0	0
1057.00634765625	n/a	REC_WORD	2164749	wordpools/wasnorm_wordpool_576.txt	LTP378	ltpFR2	8	4	MARKER	870	n/a	n/a	0	0	0
1060.498046875	n/a	REC_WORD	2171900	wordpools/wasnorm_wordpool_576.txt	LTP378	ltpFR2	8	4	TREAT	1501	n/a	n/a	0	0	0
1077.1669921875	n/a	REC_WORD_VV	2206038	wordpools/wasnorm_wordpool_576.txt	LTP378	ltpFR2	8	4	<>	-1	n/a	n/a	0	0	0
1093.13037109375	n/a	WORD	2238731	wordpools/wasnorm_wordpool_576.txt	LTP378	ltpFR2	8	5	VALVE	1546	n/a	n/a	0	0	0
1095.9443359375	n/a	WORD	2244494	wordpools/wasnorm_wordpool_576.txt	LTP378	ltpFR2	8	5	SPACE	1345	n/a	n/a	0	0	0
1098.6259765625	n/a	WORD	2249986	wordpools/wasnorm_wordpool_576.txt	LTP378	ltpFR2	8	5	RELISH	1183	n/a	n/a	0	0	0
1101.17626953125	n/a	WORD	2255209	wordpools/wasnorm_wordpool_576.txt	LTP378	ltpFR2	8	5	CAMEL	223	n/a	n/a	0	0	0
1103.70703125	n/a	WORD	2260392	wordpools/wasnorm_wordpool_576.txt	LTP378	ltpFR2	8	5	BROOK	177	n/a	n/a	0	0	0
1106.27392578125	n/a	WORD	2265649	wordpools/wasnorm_wordpool_576.txt	LTP378	ltpFR2	8	5	CABIN	211	n/a	n/a	0	0	0
1108.82177734375	n/a	WORD	2270867	wordpools/wasnorm_wordpool_576.txt	LTP378	ltpFR2	8	5	RECORD	1176	n/a	n/a	0	0	0
1111.4208984375	n/a	WORD	2276190	wordpools/wasnorm_wordpool_576.txt	LTP378	ltpFR2	8	5	ARMY	39	n/a	n/a	0	0	0
1114.01904296875	n/a	WORD	2281511	wordpools/wasnorm_wordpool_576.txt	LTP378	ltpFR2	8	5	THRONE	1461	n/a	n/a	0	0	0
1116.5185546875	n/a	WORD	2286630	wordpools/wasnorm_wordpool_576.txt	LTP378	ltpFR2	8	5	FIREPLACE	570	n/a	n/a	0	0	0
1119.08349609375	n/a	WORD	2291883	wordpools/wasnorm_wordpool_576.txt	LTP378	ltpFR2	8	5	HERO	706	n/a	n/a	0	0	0
1121.56640625	n/a	WORD	2296968	wordpools/wasnorm_wordpool_576.txt	LTP378	ltpFR2	8	5	PAPER	1011	n/a	n/a	0	0	0
1124.36474609375	n/a	WORD	2302699	wordpools/wasnorm_wordpool_576.txt	LTP378	ltpFR2	8	5	FLASHLIGHT	575	n/a	n/a	0	0	0
1126.79541015625	n/a	WORD	2307677	wordpools/wasnorm_wordpool_576.txt	LTP378	ltpFR2	8	5	LEOPARD	812	n/a	n/a	0	0	0
1129.4453125	n/a	WORD	2313104	wordpools/wasnorm_wordpool_576.txt	LTP378	ltpFR2	8	5	CREATURE	403	n/a	n/a	0	0	0
1132.17724609375	n/a	WORD	2318699	wordpools/wasnorm_wordpool_576.txt	LTP378	ltpFR2	8	5	PLAID	1080	n/a	n/a	0	0	0
1134.97509765625	n/a	WORD	2324429	wordpools/wasnorm_wordpool_576.txt	LTP378	ltpFR2	8	5	MONSTER	912	n/a	n/a	0	0	0
1137.47509765625	n/a	WORD	2329549	wordpools/wasnorm_wordpool_576.txt	LTP378	ltpFR2	8	5	SCARECROW	1245	n/a	n/a	0	0	0
1140.1572265625	n/a	WORD	2335042	wordpools/wasnorm_wordpool_576.txt	LTP378	ltpFR2	8	5	LAMP	798	n/a	n/a	0	0	0
1142.8212890625	n/a	WORD	2340498	wordpools/wasnorm_wordpool_576.txt	LTP378	ltpFR2	8	5	PIANO	1057	n/a	n/a	0	0	0
1145.52099609375	n/a	WORD	2346027	wordpools/wasnorm_wordpool_576.txt	LTP378	ltpFR2	8	5	TROMBONE	1508	n/a	n/a	0	0	0
1148.27001953125	n/a	WORD	2351657	wordpools/wasnorm_wordpool_576.txt	LTP378	ltpFR2	8	5	BANJO	82	n/a	n/a	0	0	0
1150.95068359375	n/a	WORD	2357147	wordpools/wasnorm_wordpool_576.txt	LTP378	ltpFR2	8	5	HAWK	692	n/a	n/a	0	0	0
1153.6826171875	n/a	WORD	2362742	wordpools/wasnorm_wordpool_576.txt	LTP378	ltpFR2	8	5	SERVANT	1271	n/a	n/a	0	0	0
1155.2998046875	n/a	START	2366054	n/a	LTP378	ltpFR2	8	n/a	n/a	n/a	8	n/a	n/a	n/a	n/a
1156.3076171875	n/a	DISTRACTOR	2368118	n/a	LTP378	ltpFR2	8	5	n/a	n/a	n/a	n/a	0	0	0
1156.31591796875	n/a	PROB	2368135	n/a	LTP378	ltpFR2	8	n/a	n/a	n/a	8	14	7	2	5
1163.5625	n/a	PROB	2382976	n/a	LTP378	ltpFR2	8	n/a	n/a	n/a	8	17	4	8	5
1166.1943359375	n/a	PROB	2388366	n/a	LTP378	ltpFR2	8	n/a	n/a	n/a	8	10	3	4	3
1168.54345703125	n/a	PROB	2393177	n/a	LTP378	ltpFR2	8	n/a	n/a	n/a	8	18	7	5	6
1170.80712890625	n/a	PROB	2397813	n/a	LTP378	ltpFR2	8	n/a	n/a	n/a	8	17	1	9	7
1172.990234375	n/a	PROB	2402284	n/a	LTP378	ltpFR2	8	n/a	n/a	n/a	8	16	5	3	8
1175.25634765625	n/a	PROB	2406925	n/a	LTP378	ltpFR2	8	n/a	n/a	n/a	8	10	2	1	7
1178.25732421875	n/a	STOP	2413071	n/a	LTP378	ltpFR2	8	n/a	n/a	n/a	8	n/a	n/a	n/a	n/a
1181.2041015625	n/a	REC_START	2419106	n/a	LTP378	ltpFR2	8	5	n/a	n/a	n/a	n/a	0	0	0
1181.67822265625	n/a	REC_WORD	2420077	wordpools/wasnorm_wordpool_576.txt	LTP378	ltpFR2	8	5	VALVE	1546	n/a	n/a	0	0	0
1186.44873046875	n/a	REC_WORD	2429847	wordpools/wasnorm_wordpool_576.txt	LTP378	ltpFR2	8	5	PIANO	1057	n/a	n/a	0	0	0
1187.05615234375	n/a	REC_WORD	2431091	wordpools/wasnorm_wordpool_576.txt	LTP378	ltpFR2	8	5	TROMBONE	1508	n/a	n/a	0	0	0
1190.95703125	n/a	REC_WORD	2439080	wordpools/wasnorm_wordpool_576.txt	LTP378	ltpFR2	8	5	RELISH	1183	n/a	n/a	0	0	0
1191.76171875	n/a	REC_WORD	2440728	wordpools/wasnorm_wordpool_576.txt	LTP378	ltpFR2	8	5	BROOK	177	n/a	n/a	0	0	0
1192.33203125	n/a	REC_WORD	2441896	wordpools/wasnorm_wordpool_576.txt	LTP378	ltpFR2	8	5	CABIN	211	n/a	n/a	0	0	0
1234.23388671875	n/a	REC_WORD	2527711	wordpools/wasnorm_wordpool_576.txt	LTP378	ltpFR2	8	5	PILLOW	1069	n/a	n/a	0	0	0
1323.91650390625	n/a	WORD	2711381	wordpools/wasnorm_wordpool_576.txt	LTP378	ltpFR2	8	6	JELLO	754	n/a	n/a	0	0	0
1326.54931640625	n/a	WORD	2716773	wordpools/wasnorm_wordpool_576.txt	LTP378	ltpFR2	8	6	WITNESS	1618	n/a	n/a	0	0	0
1329.04736328125	n/a	WORD	2721889	wordpools/wasnorm_wordpool_576.txt	LTP378	ltpFR2	8	6	UMPIRE	1535	n/a	n/a	0	0	0
1331.74609375	n/a	WORD	2727416	wordpools/wasnorm_wordpool_576.txt	LTP378	ltpFR2	8	6	ATOM	55	n/a	n/a	0	0	0
1334.17919921875	n/a	WORD	2732399	wordpools/wasnorm_wordpool_576.txt	LTP378	ltpFR2	8	6	CURTAIN	427	n/a	n/a	0	0	0
1336.7099609375	n/a	WORD	2737582	wordpools/wasnorm_wordpool_576.txt	LTP378	ltpFR2	8	6	BABY	64	n/a	n/a	0	0	0
1339.34326171875	n/a	WORD	2742975	wordpools/wasnorm_wordpool_576.txt	LTP378	ltpFR2	8	6	BATHTUB	100	n/a	n/a	0	0	0
1341.9912109375	n/a	WORD	2748398	wordpools/wasnorm_wordpool_576.txt	LTP378	ltpFR2	8	6	TABLET	1427	n/a	n/a	0	0	0
1344.64013671875	n/a	WORD	2753823	wordpools/wasnorm_wordpool_576.txt	LTP378	ltpFR2	8	6	CONVICT	371	n/a	n/a	0	0	0
1347.10595703125	n/a	WORD	2758873	wordpools/wasnorm_wordpool_576.txt	LTP378	ltpFR2	8	6	SMOG	1330	n/a	n/a	0	0	0
1349.62060546875	n/a	WORD	2764023	wordpools/wasnorm_wordpool_576.txt	LTP378	ltpFR2	8	6	CRIB	407	n/a	n/a	0	0	0
1352.3037109375	n/a	WORD	2769518	wordpools/wasnorm_wordpool_576.txt	LTP378	ltpFR2	8	6	PAIL	1002	n/a	n/a	0	0	0
1354.884765625	n/a	WORD	2774804	wordpools/wasnorm_wordpool_576.txt	LTP378	ltpFR2	8	6	CAFE	216	n/a	n/a	0	0	0
1357.33447265625	n/a	WORD	2779821	wordpools/wasnorm_wordpool_576.txt	LTP378	ltpFR2	8	6	HONEY	713	n/a	n/a	0	0	0
1359.765625	n/a	WORD	2784800	wordpools/wasnorm_wordpool_576.txt	LTP378	ltpFR2	8	6	COLLEGE	346	n/a	n/a	0	0	0
1362.5986328125	n/a	WORD	2790602	wordpools/wasnorm_wordpool_576.txt	LTP378	ltpFR2	8	6	INFANT	737	n/a	n/a	0	0	0
1365.29736328125	n/a	WORD	2796129	wordpools/wasnorm_wordpool_576.txt	LTP378	ltpFR2	8	6	PLAYGROUND	1087	n/a	n/a	0	0	0
1368.01123046875	n/a	WORD	2801687	wordpools/wasnorm_wordpool_576.txt	LTP378	ltpFR2	8	6	BIKE	125	n/a	n/a	0	0	0
1370.4443359375	n/a	WORD	2806670	wordpools/wasnorm_wordpool_576.txt	LTP378	ltpFR2	8	6	PEDAL	1037	n/a	n/a	0	0	0
1372.97509765625	n/a	WORD	2811853	wordpools/wasnorm_wordpool_576.txt	LTP378	ltpFR2	8	6	SLIME	1327	n/a	n/a	0	0	0
1375.5751953125	n/a	WORD	2817178	wordpools/wasnorm_wordpool_576.txt	LTP378	ltpFR2	8	6	BUREAU	199	n/a	n/a	0	0	0
1378.10693359375	n/a	WORD	2822363	wordpools/wasnorm_wordpool_576.txt	LTP378	ltpFR2	8	6	OUTFIT	988	n/a	n/a	0	0	0
1380.6220703125	n/a	WORD	2827514	wordpools/wasnorm_wordpool_576.txt	LTP378	ltpFR2	8	6	EMPIRE	530	n/a	n/a	0	0	0
1383.171875	n/a	WORD	2832736	wordpools/wasnorm_wordpool_576.txt	LTP378	ltpFR2	8	6	THIEF	1456	n/a	n/a	0	0	0
1384.787109375	n/a	START	2836044	n/a	LTP378	ltpFR2	8	n/a	n/a	n/a	9	n/a	n/a	n/a	n/a
1385.7470703125	n/a	DISTRACTOR	2838010	n/a	LTP378	ltpFR2	8	6	n/a	n/a	n/a	n/a	0	0	0
1385.7529296875	n/a	PROB	2838022	n/a	LTP378	ltpFR2	8	n/a	n/a	n/a	9	10	5	4	1
1390.56787109375	n/a	PROB	2847883	n/a	LTP378	ltpFR2	8	n/a	n/a	n/a	9	18	9	4	5
1393.66552734375	n/a	PROB	2854227	n/a	LTP378	ltpFR2	8	n/a	n/a	n/a	9	13	8	4	1
1396.08154296875	n/a	PROB	2859175	n/a	LTP378	ltpFR2	8	n/a	n/a	n/a	9	15	6	6	3
1398.9462890625	n/a	PROB	2865042	n/a	LTP378	ltpFR2	8	n/a	n/a	n/a	9	20	9	4	7
1401.12939453125	n/a	PROB	2869513	n/a	LTP378	ltpFR2	8	n/a	n/a	n/a	9	16	5	5	6
1403.59521484375	n/a	PROB	2874563	n/a	LTP378	ltpFR2	8	n/a	n/a	n/a	9	13	3	6	4
1407.3232421875	n/a	STOP	2882198	n/a	LTP378	ltpFR2	8	n/a	n/a	n/a	9	n/a	n/a	n/a	n/a
1410.5419921875	n/a	REC_START	2888790	n/a	LTP378	ltpFR2	8	6	n/a	n/a	n/a	n/a	0	0	0
1414.30322265625	n/a	REC_WORD	2896493	wordpools/wasnorm_wordpool_576.txt	LTP378	ltpFR2	8	6	PAIL	1002	n/a	n/a	0	0	0
1414.92333984375	n/a	REC_WORD	2897763	wordpools/wasnorm_wordpool_576.txt	LTP378	ltpFR2	8	6	CRIB	407	n/a	n/a	0	0	0
1416.5458984375	n/a	REC_WORD	2901086	wordpools/wasnorm_wordpool_576.txt	LTP378	ltpFR2	8	6	BUCKET	184	n/a	n/a	0	0	0
1471.2138671875	n/a	REC_WORD_VV	3013046	wordpools/wasnorm_wordpool_576.txt	LTP378	ltpFR2	8	6	<>	-1	n/a	n/a	0	0	0
1501.02978515625	n/a	WORD	3074109	wordpools/wasnorm_wordpool_576.txt	LTP378	ltpFR2	8	7	TORTOISE	1486	n/a	n/a	0	0	0
1503.462890625	n/a	WORD	3079092	wordpools/wasnorm_wordpool_576.txt	LTP378	ltpFR2	8	7	TUNNEL	1519	n/a	n/a	0	0	0
1506.19482421875	n/a	WORD	3084687	wordpools/wasnorm_wordpool_576.txt	LTP378	ltpFR2	8	7	CYCLONE	431	n/a	n/a	0	0	0
1508.67578125	n/a	WORD	3089768	wordpools/wasnorm_wordpool_576.txt	LTP378	ltpFR2	8	7	TWISTER	1530	n/a	n/a	0	0	0
1511.2587890625	n/a	WORD	3095058	wordpools/wasnorm_wordpool_576.txt	LTP378	ltpFR2	8	7	CARRIAGE	248	n/a	n/a	0	0	0
1514.07470703125	n/a	WORD	3100825	wordpools/wasnorm_wordpool_576.txt	LTP378	ltpFR2	8	7	POLICE	1098	n/a	n/a	0	0	0
1516.67236328125	n/a	WORD	3106145	wordpools/wasnorm_wordpool_576.txt	LTP378	ltpFR2	8	7	HATCHET	691	n/a	n/a	0	0	0
1519.48828125	n/a	WORD	3111912	wordpools/wasnorm_wordpool_576.txt	LTP378	ltpFR2	8	7	JUGGLER	763	n/a	n/a	0	0	0
1522.05224609375	n/a	WORD	3117163	wordpools/wasnorm_wordpool_576.txt	LTP378	ltpFR2	8	7	PADDLE	1000	n/a	n/a	0	0	0
1524.80126953125	n/a	WORD	3122793	wordpools/wasnorm_wordpool_576.txt	LTP378	ltpFR2	8	7	FILM	565	n/a	n/a	0	0	0
1527.3681640625	n/a	WORD	3128050	wordpools/wasnorm_wordpool_576.txt	LTP378	ltpFR2	8	7	COCOON	339	n/a	n/a	0	0	0
1529.865234375	n/a	WORD	3133164	wordpools/wasnorm_wordpool_576.txt	LTP378	ltpFR2	8	7	DOUGHNUT	490	n/a	n/a	0	0	0
1532.39794921875	n/a	WORD	3138351	wordpools/wasnorm_wordpool_576.txt	LTP378	ltpFR2	8	7	PARENT	1013	n/a	n/a	0	0	0
1534.962890625	n/a	WORD	3143604	wordpools/wasnorm_wordpool_576.txt	LTP378	ltpFR2	8	7	PEACH	1031	n/a	n/a	0	0	0
1537.5791015625	n/a	WORD	3148962	wordpools/wasnorm_wordpool_576.txt	LTP378	ltpFR2	8	7	SLOPE	1328	n/a	n/a	0	0	0
1540.39501953125	n/a	WORD	3154729	wordpools/wasnorm_wordpool_576.txt	LTP378	ltpFR2	8	7	LADDER	793	n/a	n/a	0	0	0
1543.04296875	n/a	WORD	3160152	wordpools/wasnorm_wordpool_576.txt	LTP378	ltpFR2	8	7	ARM	38	n/a	n/a	0	0	0
1545.74072265625	n/a	WORD	3165677	wordpools/wasnorm_wordpool_576.txt	LTP378	ltpFR2	8	7	LIPSTICK	829	n/a	n/a	0	0	0
1548.44091796875	n/a	WORD	3171207	wordpools/wasnorm_wordpool_576.txt	LTP378	ltpFR2	8	7	VELVET	1555	n/a	n/a	0	0	0
1550.90576171875	n/a	WORD	3176255	wordpools/wasnorm_wordpool_576.txt	LTP378	ltpFR2	8	7	TRACTOR	1493	n/a	n/a	0	0	0
1553.6376953125	n/a	WORD	3181850	wordpools/wasnorm_wordpool_576.txt	LTP378	ltpFR2	8	7	CHILD	299	n/a	n/a	0	0	0
1556.3876953125	n/a	WORD	3187482	wordpools/wasnorm_wordpool_576.txt	LTP378	ltpFR2	8	7	ZEBRA	1635	n/a	n/a	0	0	0
1559.15234375	n/a	WORD	3193144	wordpools/wasnorm_wordpool_576.txt	LTP378	ltpFR2	8	7	HORNET	718	n/a	n/a	0	0	0
1561.71630859375	n/a	WORD	3198395	wordpools/wasnorm_wordpool_576.txt	LTP378	ltpFR2	8	7	KLEENEX	782	n/a	n/a	0	0	0
1563.33349609375	n/a	START	3201707	n/a	LTP378	ltpFR2	8	n/a	n/a	n/a	10	n/a	n/a	n/a	n/a
1564.43408203125	n/a	DISTRACTOR	3203961	n/a	LTP378	ltpFR2	8	7	n/a	n/a	n/a	n/a	0	0	0
1564.44921875	n/a	PROB	3203992	n/a	LTP378	ltpFR2	8	n/a	n/a	n/a	10	14	1	6	7
1566.88134765625	n/a	PROB	3208973	n/a	LTP378	ltpFR2	8	n/a	n/a	n/a	10	16	1	9	6
1569.18017578125	n/a	PROB	3213681	n/a	LTP378	ltpFR2	8	n/a	n/a	n/a	10	24	9	9	6
1571.9951171875	n/a	PROB	3219446	n/a	LTP378	ltpFR2	8	n/a	n/a	n/a	10	14	2	9	3
1575.51123046875	n/a	PROB	3226647	n/a	LTP378	ltpFR2	8	n/a	n/a	n/a	10	21	3	9	9
1580.208984375	n/a	PROB	3236268	n/a	LTP378	ltpFR2	8	n/a	n/a	n/a	10	15	1	5	9
1583.1240234375	n/a	PROB	3242238	n/a	LTP378	ltpFR2	8	n/a	n/a	n/a	10	13	8	1	4
1584.85498046875	n/a	PROB	3245783	n/a	LTP378	ltpFR2	8	n/a	n/a	n/a	10	18	2	8	8
1586.548828125	n/a	STOP	3249252	n/a	LTP378	ltpFR2	8	n/a	n/a	n/a	10	n/a	n/a	n/a	n/a
1589.12158203125	n/a	REC_START	3254521	n/a	LTP378	ltpFR2	8	7	n/a	n/a	n/a	n/a	0	0	0
1625.76953125	n/a	REC_WORD	3329576	wordpools/wasnorm_wordpool_576.txt	LTP378	ltpFR2	8	7	TICKET	1464	n/a	n/a	0	0	0
1628.091796875	n/a	REC_WORD	3334332	wordpools/wasnorm_wordpool_576.txt	LTP378	ltpFR2	8	7	TORTOISE	1486	n/a	n/a	0	0	0
1629.66162109375	n/a	REC_WORD	3337547	wordpools/wasnorm_wordpool_576.txt	LTP378	ltpFR2	8	7	TUNNEL	1519	n/a	n/a	0	0	0
1635.9326171875	n/a	REC_WORD	3350390	wordpools/wasnorm_wordpool_576.txt	LTP378	ltpFR2	8	7	CARRIAGE	248	n/a	n/a	0	0	0
1637.2763671875	n/a	REC_WORD	3353142	wordpools/wasnorm_wordpool_576.txt	LTP378	ltpFR2	8	7	BUGGY	188	n/a	n/a	0	0	0
1679.560546875	n/a	DISTRACTOR	3439740	n/a	LTP378	ltpFR2	8	8	n/a	n/a	n/a	n/a	0	0	0
1679.560546875	n/a	START	3439740	n/a	LTP378	ltpFR2	8	n/a	n/a	n/a	11	n/a	n/a	n/a	n/a
1679.576171875	n/a	PROB	3439772	n/a	LTP378	ltpFR2	8	n/a	n/a	n/a	11	15	1	6	8
1681.82421875	n/a	PROB	3444376	n/a	LTP378	ltpFR2	8	n/a	n/a	n/a	11	18	8	5	5
1685.240234375	n/a	PROB	3451372	n/a	LTP378	ltpFR2	8	n/a	n/a	n/a	11	14	9	4	1
1688.47216796875	n/a	PROB	3457991	n/a	LTP378	ltpFR2	8	n/a	n/a	n/a	11	15	2	4	9
1696.966796875	n/a	PROB	3475388	n/a	LTP378	ltpFR2	8	n/a	n/a	n/a	11	13	1	6	6
1699.69873046875	n/a	PROB	3480983	n/a	LTP378	ltpFR2	8	n/a	n/a	n/a	11	7	1	3	3
1702.36474609375	n/a	STOP	3486443	n/a	LTP378	ltpFR2	8	n/a	n/a	n/a	11	n/a	n/a	n/a	n/a
1704.4306640625	n/a	WORD	3490674	wordpools/wasnorm_wordpool_576.txt	LTP378	ltpFR2	8	8	DRUG	501	n/a	n/a	0	0	0
1707.16259765625	n/a	WORD	3496269	wordpools/wasnorm_wordpool_576.txt	LTP378	ltpFR2	8	8	HEDGE	699	n/a	n/a	0	0	0
1709.7607421875	n/a	WORD	3501590	wordpools/wasnorm_wordpool_576.txt	LTP378	ltpFR2	8	8	BOARD	143	n/a	n/a	0	0	0
1712.560546875	n/a	WORD	3507324	wordpools/wasnorm_wordpool_576.txt	LTP378	ltpFR2	8	8	GREASE	660	n/a	n/a	0	0	0
1715.0244140625	n/a	WORD	3512370	wordpools/wasnorm_wordpool_576.txt	LTP378	ltpFR2	8	8	PEANUT	1032	n/a	n/a	0	0	0
1717.72314453125	n/a	WORD	3517897	wordpools/wasnorm_wordpool_576.txt	LTP378	ltpFR2	8	8	PECAN	1036	n/a	n/a	0	0	0
1720.4404296875	n/a	WORD	3523462	wordpools/wasnorm_wordpool_576.txt	LTP378	ltpFR2	8	8	NEUTRON	947	n/a	n/a	0	0	0
1723.02099609375	n/a	WORD	3528747	wordpools/wasnorm_wordpool_576.txt	LTP378	ltpFR2	8	8	CRAYON	401	n/a	n/a	0	0	0
1725.7529296875	n/a	WORD	3534342	wordpools/wasnorm_wordpool_576.txt	LTP378	ltpFR2	8	8	SCALLOP	1242	n/a	n/a	0	0	0
1728.35302734375	n/a	WORD	3539667	wordpools/wasnorm_wordpool_576.txt	LTP378	ltpFR2	8	8	KNIFE	785	n/a	n/a	0	0	0
1731.1181640625	n/a	WORD	3545330	wordpools/wasnorm_wordpool_576.txt	LTP378	ltpFR2	8	8	CLAMP	316	n/a	n/a	0	0	0
1733.56689453125	n/a	WORD	3550345	wordpools/wasnorm_wordpool_576.txt	LTP378	ltpFR2	8	8	SALMON	1227	n/a	n/a	0	0	0
1736.23193359375	n/a	WORD	3555803	wordpools/wasnorm_wordpool_576.txt	LTP378	ltpFR2	8	8	SUSPECT	1415	n/a	n/a	0	0	0
1738.69677734375	n/a	WORD	3560851	wordpools/wasnorm_wordpool_576.txt	LTP378	ltpFR2	8	8	LASER	801	n/a	n/a	0	0	0
1741.1298828125	n/a	WORD	3565834	wordpools/wasnorm_wordpool_576.txt	LTP378	ltpFR2	8	8	COSTUME	383	n/a	n/a	0	0	0
1743.57861328125	n/a	WORD	3570849	wordpools/wasnorm_wordpool_576.txt	LTP378	ltpFR2	8	8	CLOTHES	327	n/a	n/a	0	0	0
1746.29345703125	n/a	WORD	3576409	wordpools/wasnorm_wordpool_576.txt	LTP378	ltpFR2	8	8	TUTU	1524	n/a	n/a	0	0	0
1748.7744140625	n/a	WORD	3581490	wordpools/wasnorm_wordpool_576.txt	LTP378	ltpFR2	8	8	LILY	821	n/a	n/a	0	0	0
1751.32470703125	n/a	WORD	3586713	wordpools/wasnorm_wordpool_576.txt	LTP378	ltpFR2	8	8	PACKAGE	997	n/a	n/a	0	0	0
1753.9892578125	n/a	WORD	3592170	wordpools/wasnorm_wordpool_576.txt	LTP378	ltpFR2	8	8	FLEET	578	n/a	n/a	0	0	0
1756.80419921875	n/a	WORD	3597935	wordpools/wasnorm_wordpool_576.txt	LTP378	ltpFR2	8	8	GUARD	667	n/a	n/a	0	0	0
1759.2373046875	n/a	WORD	3602918	wordpools/wasnorm_wordpool_576.txt	LTP378	ltpFR2	8	8	GIFT	635	n/a	n/a	0	0	0
1761.88525390625	n/a	WORD	3608341	wordpools/wasnorm_wordpool_576.txt	LTP378	ltpFR2	8	8	HOOK	715	n/a	n/a	0	0	0
1764.51806640625	n/a	WORD	3613733	wordpools/wasnorm_wordpool_576.txt	LTP378	ltpFR2	8	8	PASTA	1021	n/a	n/a	0	0	0
1766.13427734375	n/a	START	3617043	n/a	LTP378	ltpFR2	8	n/a	n/a	n/a	12	n/a	n/a	n/a	n/a
1767.05126953125	n/a	DISTRACTOR	3618921	n/a	LTP378	ltpFR2	8	8	n/a	n/a	n/a	n/a	0	0	0
1767.06689453125	n/a	PROB	3618953	n/a	LTP378	ltpFR2	8	n/a	n/a	n/a	12	14	6	7	1
1771.01416015625	n/a	PROB	3627037	n/a	LTP378	ltpFR2	8	n/a	n/a	n/a	12	6	2	2	2
1773.19677734375	n/a	PROB	3631507	n/a	LTP378	ltpFR2	8	n/a	n/a	n/a	12	15	5	3	7
1790.13330078125	n/a	STOP	3666193	n/a	LTP378	ltpFR2	8	n/a	n/a	n/a	12	n/a	n/a	n/a	n/a
1791.9716796875	n/a	REC_START	3669958	n/a	LTP378	ltpFR2	8	8	n/a	n/a	n/a	n/a	0	0	0
1802.79931640625	n/a	REC_WORD	3692133	wordpools/wasnorm_wordpool_576.txt	LTP378	ltpFR2	8	8	HOOK	715	n/a	n/a	0	0	0
1813.44970703125	n/a	REC_WORD	3713945	wordpools/wasnorm_wordpool_576.txt	LTP378	ltpFR2	8	8	POEM	-1	n/a	n/a	0	0	0
1831.35546875	n/a	REC_WORD	3750616	wordpools/wasnorm_wordpool_576.txt	LTP378	ltpFR2	8	8	LINK	-1	n/a	n/a	0	0	0
1833.62841796875	n/a	REC_WORD	3755271	wordpools/wasnorm_wordpool_576.txt	LTP378	ltpFR2	8	8	COSTUME	383	n/a	n/a	0	0	0
1835.83056640625	n/a	REC_WORD	3759781	wordpools/wasnorm_wordpool_576.txt	LTP378	ltpFR2	8	8	SUSPECT	1415	n/a	n/a	0	0	0
1868.50048828125	n/a	REST_REWET	3826689	n/a	LTP378	ltpFR2	8	8	n/a	n/a	n/a	n/a	0	0	0
1933.95068359375	n/a	WORD	3960731	wordpools/wasnorm_wordpool_576.txt	LTP378	ltpFR2	8	9	SUPPER	1411	n/a	n/a	0	0	0
1936.6826171875	n/a	WORD	3966326	wordpools/wasnorm_wordpool_576.txt	LTP378	ltpFR2	8	9	SNACK	1331	n/a	n/a	0	0	0
1939.33251953125	n/a	WORD	3971753	wordpools/wasnorm_wordpool_576.txt	LTP378	ltpFR2	8	9	JOURNAL	760	n/a	n/a	0	0	0
1942.064453125	n/a	WORD	3977348	wordpools/wasnorm_wordpool_576.txt	LTP378	ltpFR2	8	9	ATLAS	53	n/a	n/a	0	0	0
1944.5966796875	n/a	WORD	3982534	wordpools/wasnorm_wordpool_576.txt	LTP378	ltpFR2	8	9	PRINCESS	1125	n/a	n/a	0	0	0
1947.3623046875	n/a	WORD	3988198	wordpools/wasnorm_wordpool_576.txt	LTP378	ltpFR2	8	9	MAILBOX	857	n/a	n/a	0	0	0
1950.07763671875	n/a	WORD	3993759	wordpools/wasnorm_wordpool_576.txt	LTP378	ltpFR2	8	9	GLOBE	641	n/a	n/a	0	0	0
1952.54248046875	n/a	WORD	3998807	wordpools/wasnorm_wordpool_576.txt	LTP378	ltpFR2	8	9	BURGLAR	200	n/a	n/a	0	0	0
1955.29150390625	n/a	WORD	4004437	wordpools/wasnorm_wordpool_576.txt	LTP378	ltpFR2	8	9	CABBAGE	210	n/a	n/a	0	0	0
1958.107421875	n/a	WORD	4010204	wordpools/wasnorm_wordpool_576.txt	LTP378	ltpFR2	8	9	BUBBLE	183	n/a	n/a	0	0	0
1960.8212890625	n/a	WORD	4015762	wordpools/wasnorm_wordpool_576.txt	LTP378	ltpFR2	8	9	SCISSORS	1250	n/a	n/a	0	0	0
1963.4208984375	n/a	WORD	4021086	wordpools/wasnorm_wordpool_576.txt	LTP378	ltpFR2	8	9	ROBBER	1197	n/a	n/a	0	0	0
1965.9521484375	n/a	WORD	4026270	wordpools/wasnorm_wordpool_576.txt	LTP378	ltpFR2	8	9	DRAWING	494	n/a	n/a	0	0	0
1968.5517578125	n/a	WORD	4031594	wordpools/wasnorm_wordpool_576.txt	LTP378	ltpFR2	8	9	SOFTBALL	1343	n/a	n/a	0	0	0
1971.36669921875	n/a	WORD	4037359	wordpools/wasnorm_wordpool_576.txt	LTP378	ltpFR2	8	9	SISTER	1312	n/a	n/a	0	0	0
1973.94775390625	n/a	WORD	4042645	wordpools/wasnorm_wordpool_576.txt	LTP378	ltpFR2	8	9	AUTHOR	61	n/a	n/a	0	0	0
1976.6298828125	n/a	WORD	4048138	wordpools/wasnorm_wordpool_576.txt	LTP378	ltpFR2	8	9	SCRIBBLE	1256	n/a	n/a	0	0	0
1979.3798828125	n/a	WORD	4053770	wordpools/wasnorm_wordpool_576.txt	LTP378	ltpFR2	8	9	COUNTRY	388	n/a	n/a	0	0	0
1982.16162109375	n/a	WORD	4059467	wordpools/wasnorm_wordpool_576.txt	LTP378	ltpFR2	8	9	GRAVEL	659	n/a	n/a	0	0	0
1984.9423828125	n/a	WORD	4065162	wordpools/wasnorm_wordpool_576.txt	LTP378	ltpFR2	8	9	COURSE	390	n/a	n/a	0	0	0
1987.42529296875	n/a	WORD	4070247	wordpools/wasnorm_wordpool_576.txt	LTP378	ltpFR2	8	9	DIME	466	n/a	n/a	0	0	0
1990.19140625	n/a	WORD	4075912	wordpools/wasnorm_wordpool_576.txt	LTP378	ltpFR2	8	9	PALACE	1006	n/a	n/a	0	0	0
1992.955078125	n/a	WORD	4081572	wordpools/wasnorm_wordpool_576.txt	LTP378	ltpFR2	8	9	LAKE	796	n/a	n/a	0	0	0
1995.4052734375	n/a	WORD	4086590	wordpools/wasnorm_wordpool_576.txt	LTP378	ltpFR2	8	9	MARSH	874	n/a	n/a	0	0	0
1997.02001953125	n/a	START	4089897	n/a	LTP378	ltpFR2	8	n/a	n/a	n/a	13	n/a	n/a	n/a	n/a
1998.13330078125	n/a	DISTRACTOR	4092177	n/a	LTP378	ltpFR2	8	9	n/a	n/a	n/a	n/a	0	0	0
1998.13720703125	n/a	PROB	4092185	n/a	LTP378	ltpFR2	8	n/a	n/a	n/a	13	16	4	8	4
2002.30224609375	n/a	PROB	4100715	n/a	LTP378	ltpFR2	8	n/a	n/a	n/a	13	10	1	5	4
2004.26806640625	n/a	PROB	4104741	n/a	LTP378	ltpFR2	8	n/a	n/a	n/a	13	18	2	8	8
2006.31689453125	n/a	PROB	4108937	n/a	LTP378	ltpFR2	8	n/a	n/a	n/a	13	13	8	7	8
2021.0185546875	n/a	STOP	4139046	n/a	LTP378	ltpFR2	8	n/a	n/a	n/a	13	n/a	n/a	n/a	n/a
2022.82470703125	n/a	REC_START	4142745	n/a	LTP378	ltpFR2	8	9	n/a	n/a	n/a	n/a	0	0	0
2024.8134765625	n/a	REC_WORD_VV	4146818	wordpools/wasnorm_wordpool_576.txt	LTP378	ltpFR2	8	9	<>	-1	n/a	n/a	0	0	0
2027.44921875	n/a	REC_WORD	4152216	wordpools/wasnorm_wordpool_576.txt	LTP378	ltpFR2	8	9	SUPPER	1411	n/a	n/a	0	0	0
2029.08642578125	n/a	REC_WORD	4155569	wordpools/wasnorm_wordpool_576.txt	LTP378	ltpFR2	8	9	SNACK	1331	n/a	n/a	0	0	0
2082.98486328125	n/a	REC_WORD	4265953	wordpools/wasnorm_wordpool_576.txt	LTP378	ltpFR2	8	9	PADDLE	1000	n/a	n/a	0	0	0
2113.29736328125	n/a	DISTRACTOR	4328033	n/a	LTP378	ltpFR2	8	10	n/a	n/a	n/a	n/a	0	0	0
2113.29736328125	n/a	START	4328033	n/a	LTP378	ltpFR2	8	n/a	n/a	n/a	14	n/a	n/a	n/a	n/a
2113.314453125	n/a	PROB	4328068	n/a	LTP378	ltpFR2	8	n/a	n/a	n/a	14	25	7	9	9
2117.37890625	n/a	PROB	4336392	n/a	LTP378	ltpFR2	8	n/a	n/a	n/a	14	15	5	5	5
2118.72705078125	n/a	PROB	4339153	n/a	LTP378	ltpFR2	8	n/a	n/a	n/a	14	8	3	2	3
2122.8251953125	n/a	PROB	4347546	n/a	LTP378	ltpFR2	8	n/a	n/a	n/a	14	18	9	5	4
2124.72412109375	n/a	PROB	4351435	n/a	LTP378	ltpFR2	8	n/a	n/a	n/a	14	9	5	1	3
2126.35791015625	n/a	PROB	4354781	n/a	LTP378	ltpFR2	8	n/a	n/a	n/a	14	12	1	8	3
2129.03857421875	n/a	PROB	4360271	n/a	LTP378	ltpFR2	8	n/a	n/a	n/a	14	13	7	3	3
2131.8037109375	n/a	PROB	4365934	n/a	LTP378	ltpFR2	8	n/a	n/a	n/a	14	13	4	7	2
2137.29638671875	n/a	STOP	4377183	n/a	LTP378	ltpFR2	8	n/a	n/a	n/a	14	n/a	n/a	n/a	n/a
2138.3017578125	n/a	WORD	4379242	wordpools/wasnorm_wordpool_576.txt	LTP378	ltpFR2	8	10	DRESSER	496	n/a	n/a	0	0	0
2141.0673828125	n/a	WORD	4384906	wordpools/wasnorm_wordpool_576.txt	LTP378	ltpFR2	8	10	WASHER	1592	n/a	n/a	0	0	0
2143.6484375	n/a	WORD	4390192	wordpools/wasnorm_wordpool_576.txt	LTP378	ltpFR2	8	10	OFFICE	972	n/a	n/a	0	0	0
2146.09814453125	n/a	WORD	4395209	wordpools/wasnorm_wordpool_576.txt	LTP378	ltpFR2	8	10	ICEBERG	731	n/a	n/a	0	0	0
2148.662109375	n/a	WORD	4400460	wordpools/wasnorm_wordpool_576.txt	LTP378	ltpFR2	8	10	CLIMBER	323	n/a	n/a	0	0	0
2151.37939453125	n/a	WORD	4406025	wordpools/wasnorm_wordpool_576.txt	LTP378	ltpFR2	8	10	SEAGULL	1261	n/a	n/a	0	0	0
2153.89306640625	n/a	WORD	4411173	wordpools/wasnorm_wordpool_576.txt	LTP378	ltpFR2	8	10	STONE	1385	n/a	n/a	0	0	0
2156.576171875	n/a	WORD	4416668	wordpools/wasnorm_wordpool_576.txt	LTP378	ltpFR2	8	10	CRATER	400	n/a	n/a	0	0	0
2159.27490234375	n/a	WORD	4422195	wordpools/wasnorm_wordpool_576.txt	LTP378	ltpFR2	8	10	OUTDOORS	987	n/a	n/a	0	0	0
2161.90576171875	n/a	WORD	4427583	wordpools/wasnorm_wordpool_576.txt	LTP378	ltpFR2	8	10	DAUGHTER	442	n/a	n/a	0	0	0
2164.65478515625	n/a	WORD	4433213	wordpools/wasnorm_wordpool_576.txt	LTP378	ltpFR2	8	10	ROCKET	1202	n/a	n/a	0	0	0
2167.27099609375	n/a	WORD	4438571	wordpools/wasnorm_wordpool_576.txt	LTP378	ltpFR2	8	10	PATROL	1027	n/a	n/a	0	0	0
2169.81884765625	n/a	WORD	4443789	wordpools/wasnorm_wordpool_576.txt	LTP378	ltpFR2	8	10	SCULPTURE	1258	n/a	n/a	0	0	0
2172.3017578125	n/a	WORD	4448874	wordpools/wasnorm_wordpool_576.txt	LTP378	ltpFR2	8	10	JEANS	752	n/a	n/a	0	0	0
2174.86669921875	n/a	WORD	4454127	wordpools/wasnorm_wordpool_576.txt	LTP378	ltpFR2	8	10	TERMITE	1451	n/a	n/a	0	0	0
2177.61474609375	n/a	WORD	4459755	wordpools/wasnorm_wordpool_576.txt	LTP378	ltpFR2	8	10	HOSTESS	723	n/a	n/a	0	0	0
2180.13134765625	n/a	WORD	4464909	wordpools/wasnorm_wordpool_576.txt	LTP378	ltpFR2	8	10	TRIBE	1505	n/a	n/a	0	0	0
2182.87939453125	n/a	WORD	4470537	wordpools/wasnorm_wordpool_576.txt	LTP378	ltpFR2	8	10	STAKE	1368	n/a	n/a	0	0	0
2185.3955078125	n/a	WORD	4475690	wordpools/wasnorm_wordpool_576.txt	LTP378	ltpFR2	8	10	AGENT	10	n/a	n/a	0	0	0
2187.89306640625	n/a	WORD	4480805	wordpools/wasnorm_wordpool_576.txt	LTP378	ltpFR2	8	10	BACON	67	n/a	n/a	0	0	0
2190.5263671875	n/a	WORD	4486198	wordpools/wasnorm_wordpool_576.txt	LTP378	ltpFR2	8	10	PEBBLE	1035	n/a	n/a	0	0	0
2193.2080078125	n/a	WORD	4491690	wordpools/wasnorm_wordpool_576.txt	LTP378	ltpFR2	8	10	FLASK	576	n/a	n/a	0	0	0
2195.90625	n/a	WORD	4497216	wordpools/wasnorm_wordpool_576.txt	LTP378	ltpFR2	8	10	PLIERS	1089	n/a	n/a	0	0	0
2198.35595703125	n/a	WORD	4502233	wordpools/wasnorm_wordpool_576.txt	LTP378	ltpFR2	8	10	WRENCH	1625	n/a	n/a	0	0	0
2199.97119140625	n/a	START	4505541	n/a	LTP378	ltpFR2	8	n/a	n/a	n/a	15	n/a	n/a	n/a	n/a
2201.044921875	n/a	DISTRACTOR	4507740	n/a	LTP378	ltpFR2	8	10	n/a	n/a	n/a	n/a	0	0	0
2201.05419921875	n/a	PROB	4507759	n/a	LTP378	ltpFR2	8	n/a	n/a	n/a	15	21	5	9	8
2208.31787109375	n/a	PROB	4522635	n/a	LTP378	ltpFR2	8	n/a	n/a	n/a	15	14	5	4	5
2210.36669921875	n/a	PROB	4526831	n/a	LTP378	ltpFR2	8	n/a	n/a	n/a	15	17	6	2	9
2212.880859375	n/a	PROB	4531980	n/a	LTP378	ltpFR2	8	n/a	n/a	n/a	15	12	2	7	3
2215.28076171875	n/a	PROB	4536895	n/a	LTP378	ltpFR2	8	n/a	n/a	n/a	15	19	4	9	6
2217.7783203125	n/a	PROB	4542010	n/a	LTP378	ltpFR2	8	n/a	n/a	n/a	15	12	2	6	4
2223.97021484375	n/a	STOP	4554691	n/a	LTP378	ltpFR2	8	n/a	n/a	n/a	15	n/a	n/a	n/a	n/a
2225.79150390625	n/a	REC_START	4558421	n/a	LTP378	ltpFR2	8	10	n/a	n/a	n/a	n/a	0	0	0
2226.89208984375	n/a	REC_WORD	4560675	wordpools/wasnorm_wordpool_576.txt	LTP378	ltpFR2	8	10	DRESSER	496	n/a	n/a	0	0	0
2228.3974609375	n/a	REC_WORD	4563758	wordpools/wasnorm_wordpool_576.txt	LTP378	ltpFR2	8	10	WASHER	1592	n/a	n/a	0	0	0
2229.4541015625	n/a	REC_WORD	4565922	wordpools/wasnorm_wordpool_576.txt	LTP378	ltpFR2	8	10	DISHWASHER	475	n/a	n/a	0	0	0
2234.60009765625	n/a	REC_WORD	4576461	wordpools/wasnorm_wordpool_576.txt	LTP378	ltpFR2	8	10	LABEL	790	n/a	n/a	0	0	0
2245.65283203125	n/a	REC_WORD	4599097	wordpools/wasnorm_wordpool_576.txt	LTP378	ltpFR2	8	10	SCREWDRIVER	1255	n/a	n/a	0	0	0
2247.43994140625	n/a	REC_WORD	4602757	wordpools/wasnorm_wordpool_576.txt	LTP378	ltpFR2	8	10	CORK	380	n/a	n/a	0	0	0
2270.16015625	n/a	REC_WORD	4649288	wordpools/wasnorm_wordpool_576.txt	LTP378	ltpFR2	8	10	TABLE	1426	n/a	n/a	0	0	0
2273.2392578125	n/a	REC_WORD	4655594	wordpools/wasnorm_wordpool_576.txt	LTP378	ltpFR2	8	10	FLASK	576	n/a	n/a	0	0	0
2274.251953125	n/a	REC_WORD	4657668	wordpools/wasnorm_wordpool_576.txt	LTP378	ltpFR2	8	10	SCREWDRIVER	1255	n/a	n/a	0	0	0
2275.5380859375	n/a	REC_WORD	4660302	wordpools/wasnorm_wordpool_576.txt	LTP378	ltpFR2	8	10	WRENCH	1625	n/a	n/a	0	0	0
2277.9990234375	n/a	REC_WORD	4665342	wordpools/wasnorm_wordpool_576.txt	LTP378	ltpFR2	8	10	PLIERS	1089	n/a	n/a	0	0	0
2359.4599609375	n/a	WORD	4832174	wordpools/wasnorm_wordpool_576.txt	LTP378	ltpFR2	8	11	PREACHER	1119	n/a	n/a	0	0	0
2362.15869140625	n/a	WORD	4837701	wordpools/wasnorm_wordpool_576.txt	LTP378	ltpFR2	8	11	FRANCE	601	n/a	n/a	0	0	0
2364.97265625	n/a	WORD	4843464	wordpools/wasnorm_wordpool_576.txt	LTP378	ltpFR2	8	11	SLUG	1329	n/a	n/a	0	0	0
2367.65576171875	n/a	WORD	4848959	wordpools/wasnorm_wordpool_576.txt	LTP378	ltpFR2	8	11	BRACES	164	n/a	n/a	0	0	0
2370.3876953125	n/a	WORD	4854554	wordpools/wasnorm_wordpool_576.txt	LTP378	ltpFR2	8	11	AWARD	63	n/a	n/a	0	0	0
2373.20361328125	n/a	WORD	4860321	wordpools/wasnorm_wordpool_576.txt	LTP378	ltpFR2	8	11	SHOULDER	1294	n/a	n/a	0	0	0
2375.88427734375	n/a	WORD	4865811	wordpools/wasnorm_wordpool_576.txt	LTP378	ltpFR2	8	11	OZONE	996	n/a	n/a	0	0	0
2378.69921875	n/a	WORD	4871576	wordpools/wasnorm_wordpool_576.txt	LTP378	ltpFR2	8	11	BALLOON	75	n/a	n/a	0	0	0
2381.13330078125	n/a	WORD	4876561	wordpools/wasnorm_wordpool_576.txt	LTP378	ltpFR2	8	11	MARS	873	n/a	n/a	0	0	0
2383.814453125	n/a	WORD	4882052	wordpools/wasnorm_wordpool_576.txt	LTP378	ltpFR2	8	11	VENUS	1557	n/a	n/a	0	0	0
2386.580078125	n/a	WORD	4887716	wordpools/wasnorm_wordpool_576.txt	LTP378	ltpFR2	8	11	NOTEBOOK	959	n/a	n/a	0	0	0
2389.3623046875	n/a	WORD	4893414	wordpools/wasnorm_wordpool_576.txt	LTP378	ltpFR2	8	11	QUEEN	1149	n/a	n/a	0	0	0
2392.09423828125	n/a	WORD	4899009	wordpools/wasnorm_wordpool_576.txt	LTP378	ltpFR2	8	11	GOBLIN	645	n/a	n/a	0	0	0
2394.72509765625	n/a	WORD	4904397	wordpools/wasnorm_wordpool_576.txt	LTP378	ltpFR2	8	11	POISON	1096	n/a	n/a	0	0	0
2397.1748046875	n/a	WORD	4909414	wordpools/wasnorm_wordpool_576.txt	LTP378	ltpFR2	8	11	PIGEON	1065	n/a	n/a	0	0	0
2399.6396484375	n/a	WORD	4914462	wordpools/wasnorm_wordpool_576.txt	LTP378	ltpFR2	8	11	MEAT	883	n/a	n/a	0	0	0
2402.27294921875	n/a	WORD	4919855	wordpools/wasnorm_wordpool_576.txt	LTP378	ltpFR2	8	11	EUROPE	541	n/a	n/a	0	0	0
2405.01953125	n/a	WORD	4925480	wordpools/wasnorm_wordpool_576.txt	LTP378	ltpFR2	8	11	MATCH	878	n/a	n/a	0	0	0
2407.71875	n/a	WORD	4931008	wordpools/wasnorm_wordpool_576.txt	LTP378	ltpFR2	8	11	DOLPHIN	483	n/a	n/a	0	0	0
2410.5185546875	n/a	WORD	4936742	wordpools/wasnorm_wordpool_576.txt	LTP378	ltpFR2	8	11	CROSS	413	n/a	n/a	0	0	0
2413.25048828125	n/a	WORD	4942337	wordpools/wasnorm_wordpool_576.txt	LTP378	ltpFR2	8	11	PIZZA	1079	n/a	n/a	0	0	0
2415.91455078125	n/a	WORD	4947793	wordpools/wasnorm_wordpool_576.txt	LTP378	ltpFR2	8	11	GALLON	618	n/a	n/a	0	0	0
2418.646484375	n/a	WORD	4953388	wordpools/wasnorm_wordpool_576.txt	LTP378	ltpFR2	8	11	TEACHER	1440	n/a	n/a	0	0	0
2421.09619140625	n/a	WORD	4958405	wordpools/wasnorm_wordpool_576.txt	LTP378	ltpFR2	8	11	OMELET	976	n/a	n/a	0	0	0
2422.71142578125	n/a	START	4961713	n/a	LTP378	ltpFR2	8	n/a	n/a	n/a	16	n/a	n/a	n/a	n/a
2423.740234375	n/a	DISTRACTOR	4963820	n/a	LTP378	ltpFR2	8	11	n/a	n/a	n/a	n/a	0	0	0
2423.744140625	n/a	PROB	4963828	n/a	LTP378	ltpFR2	8	n/a	n/a	n/a	16	18	8	4	6
2427.67626953125	n/a	PROB	4971881	n/a	LTP378	ltpFR2	8	n/a	n/a	n/a	16	15	6	6	3
2436.1728515625	n/a	PROB	4989282	n/a	LTP378	ltpFR2	8	n/a	n/a	n/a	16	11	7	1	3
2438.337890625	n/a	PROB	4993716	n/a	LTP378	ltpFR2	8	n/a	n/a	n/a	16	12	8	1	3
2442.552734375	n/a	PROB	5002348	n/a	LTP378	ltpFR2	8	n/a	n/a	n/a	16	15	8	6	1
2444.0517578125	n/a	PROB	5005418	n/a	LTP378	ltpFR2	8	n/a	n/a	n/a	16	15	8	6	1
2446.3779296875	n/a	STOP	5010182	n/a	LTP378	ltpFR2	8	n/a	n/a	n/a	16	n/a	n/a	n/a	n/a
2448.61669921875	n/a	REC_START	5014767	n/a	LTP378	ltpFR2	8	11	n/a	n/a	n/a	n/a	0	0	0
2465.84619140625	n/a	REC_WORD	5050053	wordpools/wasnorm_wordpool_576.txt	LTP378	ltpFR2	8	11	CROSS	413	n/a	n/a	0	0	0
2491.3984375	n/a	REC_WORD	5102384	wordpools/wasnorm_wordpool_576.txt	LTP378	ltpFR2	8	11	TRAIL	-1	n/a	n/a	0	0	0
2499.88427734375	n/a	REC_WORD	5119763	wordpools/wasnorm_wordpool_576.txt	LTP378	ltpFR2	8	11	MAROON	-1	n/a	n/a	0	0	0
2501.4541015625	n/a	REC_WORD	5122978	wordpools/wasnorm_wordpool_576.txt	LTP378	ltpFR2	8	11	MURDER	-1	n/a	n/a	0	0	0
2517.22998046875	n/a	REC_WORD	5155287	wordpools/wasnorm_wordpool_576.txt	LTP378	ltpFR2	8	11	VALVE	1546	n/a	n/a	0	0	0
2539.072265625	n/a	WORD	5200020	wordpools/wasnorm_wordpool_576.txt	LTP378	ltpFR2	8	12	ANKLE	24	n/a	n/a	0	0	0
2541.5712890625	n/a	WORD	5205138	wordpools/wasnorm_wordpool_576.txt	LTP378	ltpFR2	8	12	SIBLING	1301	n/a	n/a	0	0	0
2544.236328125	n/a	WORD	5210596	wordpools/wasnorm_wordpool_576.txt	LTP378	ltpFR2	8	12	BROTHER	179	n/a	n/a	0	0	0
2546.71728515625	n/a	WORD	5215677	wordpools/wasnorm_wordpool_576.txt	LTP378	ltpFR2	8	12	RACKET	1155	n/a	n/a	0	0	0
2549.5498046875	n/a	WORD	5221478	wordpools/wasnorm_wordpool_576.txt	LTP378	ltpFR2	8	12	TEMPLE	1448	n/a	n/a	0	0	0
2552.1162109375	n/a	WORD	5226734	wordpools/wasnorm_wordpool_576.txt	LTP378	ltpFR2	8	12	HAMPER	682	n/a	n/a	0	0	0
2554.9296875	n/a	WORD	5232496	wordpools/wasnorm_wordpool_576.txt	LTP378	ltpFR2	8	12	FUNGUS	614	n/a	n/a	0	0	0
2557.3798828125	n/a	WORD	5237514	wordpools/wasnorm_wordpool_576.txt	LTP378	ltpFR2	8	12	TURNIP	1521	n/a	n/a	0	0	0
2560.19482421875	n/a	WORD	5243279	wordpools/wasnorm_wordpool_576.txt	LTP378	ltpFR2	8	12	SIDEWALK	1303	n/a	n/a	0	0	0
2562.6767578125	n/a	WORD	5248362	wordpools/wasnorm_wordpool_576.txt	LTP378	ltpFR2	8	12	HIKER	708	n/a	n/a	0	0	0
2565.49267578125	n/a	WORD	5254129	wordpools/wasnorm_wordpool_576.txt	LTP378	ltpFR2	8	12	PANTHER	1009	n/a	n/a	0	0	0
2568.107421875	n/a	WORD	5259484	wordpools/wasnorm_wordpool_576.txt	LTP378	ltpFR2	8	12	RADISH	1158	n/a	n/a	0	0	0
2570.58935546875	n/a	WORD	5264567	wordpools/wasnorm_wordpool_576.txt	LTP378	ltpFR2	8	12	SKILLET	1317	n/a	n/a	0	0	0
2573.072265625	n/a	WORD	5269652	wordpools/wasnorm_wordpool_576.txt	LTP378	ltpFR2	8	12	FLUTE	585	n/a	n/a	0	0	0
2575.7861328125	n/a	WORD	5275210	wordpools/wasnorm_wordpool_576.txt	LTP378	ltpFR2	8	12	BREAST	171	n/a	n/a	0	0	0
2578.26953125	n/a	WORD	5280296	wordpools/wasnorm_wordpool_576.txt	LTP378	ltpFR2	8	12	PUDDING	1139	n/a	n/a	0	0	0
2581.0341796875	n/a	WORD	5285958	wordpools/wasnorm_wordpool_576.txt	LTP378	ltpFR2	8	12	RECEIPT	1173	n/a	n/a	0	0	0
2583.63330078125	n/a	WORD	5291281	wordpools/wasnorm_wordpool_576.txt	LTP378	ltpFR2	8	12	STOVE	1388	n/a	n/a	0	0	0
2586.29931640625	n/a	WORD	5296741	wordpools/wasnorm_wordpool_576.txt	LTP378	ltpFR2	8	12	WARDROBE	1587	n/a	n/a	0	0	0
2588.830078125	n/a	WORD	5301924	wordpools/wasnorm_wordpool_576.txt	LTP378	ltpFR2	8	12	PIMPLE	1071	n/a	n/a	0	0	0
2591.59619140625	n/a	WORD	5307589	wordpools/wasnorm_wordpool_576.txt	LTP378	ltpFR2	8	12	SPHINX	1349	n/a	n/a	0	0	0
2594.22900390625	n/a	WORD	5312981	wordpools/wasnorm_wordpool_576.txt	LTP378	ltpFR2	8	12	ANTLER	29	n/a	n/a	0	0	0
2596.97607421875	n/a	WORD	5318607	wordpools/wasnorm_wordpool_576.txt	LTP378	ltpFR2	8	12	BEAVER	109	n/a	n/a	0	0	0
2599.6416015625	n/a	WORD	5324066	wordpools/wasnorm_wordpool_576.txt	LTP378	ltpFR2	8	12	BODY	145	n/a	n/a	0	0	0
2601.2587890625	n/a	START	5327378	n/a	LTP378	ltpFR2	8	n/a	n/a	n/a	17	n/a	n/a	n/a	n/a
2602.1796875	n/a	DISTRACTOR	5329264	n/a	LTP378	ltpFR2	8	12	n/a	n/a	n/a	n/a	0	0	0
2602.19189453125	n/a	PROB	5329289	n/a	LTP378	ltpFR2	8	n/a	n/a	n/a	17	17	9	1	7
2606.33935546875	n/a	PROB	5337783	n/a	LTP378	ltpFR2	8	n/a	n/a	n/a	17	12	3	8	1
2609.2216796875	n/a	PROB	5343686	n/a	LTP378	ltpFR2	8	n/a	n/a	n/a	17	24	8	8	7
2612.685546875	n/a	PROB	5350780	n/a	LTP378	ltpFR2	8	n/a	n/a	n/a	17	21	7	9	5
2616.94921875	n/a	PROB	5359512	n/a	LTP378	ltpFR2	8	n/a	n/a	n/a	17	17	3	9	5
2619.84814453125	n/a	PROB	5365449	n/a	LTP378	ltpFR2	8	n/a	n/a	n/a	17	15	7	5	3
2622.54833984375	n/a	PROB	5370979	n/a	LTP378	ltpFR2	8	n/a	n/a	n/a	17	16	8	4	4
2625.02587890625	n/a	STOP	5376053	n/a	LTP378	ltpFR2	8	n/a	n/a	n/a	17	n/a	n/a	n/a	n/a
2627.09619140625	n/a	REC_START	5380293	n/a	LTP378	ltpFR2	8	12	n/a	n/a	n/a	n/a	0	0	0
2679.65966796875	n/a	REC_WORD_VV	5487943	wordpools/wasnorm_wordpool_576.txt	LTP378	ltpFR2	8	12	<>	-1	n/a	n/a	0	0	0
2681.01953125	n/a	REC_WORD	5490728	wordpools/wasnorm_wordpool_576.txt	LTP378	ltpFR2	8	12	FLASK	576	n/a	n/a	0	0	0
2682.37158203125	n/a	REC_WORD_VV	5493497	wordpools/wasnorm_wordpool_576.txt	LTP378	ltpFR2	8	12	<>	-1	n/a	n/a	0	0	0
2744.43798828125	n/a	WORD	5620609	wordpools/wasnorm_wordpool_576.txt	LTP378	ltpFR2	8	13	GRAVE	658	n/a	n/a	0	0	0
2746.88623046875	n/a	WORD	5625623	wordpools/wasnorm_wordpool_576.txt	LTP378	ltpFR2	8	13	STAR	1373	n/a	n/a	0	0	0
2749.46875	n/a	WORD	5630912	wordpools/wasnorm_wordpool_576.txt	LTP378	ltpFR2	8	13	DUSTPAN	509	n/a	n/a	0	0	0
2751.94970703125	n/a	WORD	5635993	wordpools/wasnorm_wordpool_576.txt	LTP378	ltpFR2	8	13	LADY	794	n/a	n/a	0	0	0
2754.61572265625	n/a	WORD	5641453	wordpools/wasnorm_wordpool_576.txt	LTP378	ltpFR2	8	13	SALAD	1224	n/a	n/a	0	0	0
2757.0986328125	n/a	WORD	5646538	wordpools/wasnorm_wordpool_576.txt	LTP378	ltpFR2	8	13	PLASTER	1085	n/a	n/a	0	0	0
2759.5966796875	n/a	WORD	5651654	wordpools/wasnorm_wordpool_576.txt	LTP378	ltpFR2	8	13	TRENCH	1503	n/a	n/a	0	0	0
2762.2626953125	n/a	WORD	5657114	wordpools/wasnorm_wordpool_576.txt	LTP378	ltpFR2	8	13	HOOD	714	n/a	n/a	0	0	0
2764.87744140625	n/a	WORD	5662469	wordpools/wasnorm_wordpool_576.txt	LTP378	ltpFR2	8	13	GYMNAST	675	n/a	n/a	0	0	0
2767.37744140625	n/a	WORD	5667589	wordpools/wasnorm_wordpool_576.txt	LTP378	ltpFR2	8	13	BACKBONE	66	n/a	n/a	0	0	0
2769.908203125	n/a	WORD	5672772	wordpools/wasnorm_wordpool_576.txt	LTP378	ltpFR2	8	13	FIREMAN	569	n/a	n/a	0	0	0
2772.34130859375	n/a	WORD	5677755	wordpools/wasnorm_wordpool_576.txt	LTP378	ltpFR2	8	13	SURVEY	1414	n/a	n/a	0	0	0
2775.0732421875	n/a	WORD	5683350	wordpools/wasnorm_wordpool_576.txt	LTP378	ltpFR2	8	13	ITEM	746	n/a	n/a	0	0	0
2777.55517578125	n/a	WORD	5688433	wordpools/wasnorm_wordpool_576.txt	LTP378	ltpFR2	8	13	SPIDER	1351	n/a	n/a	0	0	0
2780.35400390625	n/a	WORD	5694165	wordpools/wasnorm_wordpool_576.txt	LTP378	ltpFR2	8	13	DANDRUFF	439	n/a	n/a	0	0	0
2782.88525390625	n/a	WORD	5699349	wordpools/wasnorm_wordpool_576.txt	LTP378	ltpFR2	8	13	HARP	689	n/a	n/a	0	0	0
2785.65087890625	n/a	WORD	5705013	wordpools/wasnorm_wordpool_576.txt	LTP378	ltpFR2	8	13	POET	1095	n/a	n/a	0	0	0
2788.19970703125	n/a	WORD	5710233	wordpools/wasnorm_wordpool_576.txt	LTP378	ltpFR2	8	13	SILK	1307	n/a	n/a	0	0	0
2790.94775390625	n/a	WORD	5715861	wordpools/wasnorm_wordpool_576.txt	LTP378	ltpFR2	8	13	WIDOW	1608	n/a	n/a	0	0	0
2793.39794921875	n/a	WORD	5720879	wordpools/wasnorm_wordpool_576.txt	LTP378	ltpFR2	8	13	MOP	916	n/a	n/a	0	0	0
2796.02880859375	n/a	WORD	5726267	wordpools/wasnorm_wordpool_576.txt	LTP378	ltpFR2	8	13	FLAG	573	n/a	n/a	0	0	0
2798.4619140625	n/a	WORD	5731250	wordpools/wasnorm_wordpool_576.txt	LTP378	ltpFR2	8	13	LUNCH	849	n/a	n/a	0	0	0
2801.29345703125	n/a	WORD	5737049	wordpools/wasnorm_wordpool_576.txt	LTP378	ltpFR2	8	13	BANQUET	86	n/a	n/a	0	0	0
2803.724609375	n/a	WORD	5742028	wordpools/wasnorm_wordpool_576.txt	LTP378	ltpFR2	8	13	MISSILE	900	n/a	n/a	0	0	0
2805.34228515625	n/a	START	5745341	n/a	LTP378	ltpFR2	8	n/a	n/a	n/a	18	n/a	n/a	n/a	n/a
2806.17041015625	n/a	DISTRACTOR	5747037	n/a	LTP378	ltpFR2	8	13	n/a	n/a	n/a	n/a	0	0	0
2806.17431640625	n/a	PROB	5747045	n/a	LTP378	ltpFR2	8	n/a	n/a	n/a	18	4	2	1	1
2808.37353515625	n/a	PROB	5751549	n/a	LTP378	ltpFR2	8	n/a	n/a	n/a	18	10	1	3	6
2810.12255859375	n/a	PROB	5755131	n/a	LTP378	ltpFR2	8	n/a	n/a	n/a	18	19	5	5	9
2811.88720703125	n/a	PROB	5758745	n/a	LTP378	ltpFR2	8	n/a	n/a	n/a	18	19	5	8	6
2815.50341796875	n/a	PROB	5766151	n/a	LTP378	ltpFR2	8	n/a	n/a	n/a	18	12	7	2	3
2818.9013671875	n/a	PROB	5773110	n/a	LTP378	ltpFR2	8	n/a	n/a	n/a	18	21	7	8	6
2822.05029296875	n/a	PROB	5779559	n/a	LTP378	ltpFR2	8	n/a	n/a	n/a	18	15	9	3	3
2824.39892578125	n/a	PROB	5784369	n/a	LTP378	ltpFR2	8	n/a	n/a	n/a	18	7	1	1	5
2828.955078125	n/a	STOP	5793700	n/a	LTP378	ltpFR2	8	n/a	n/a	n/a	18	n/a	n/a	n/a	n/a
2831.2138671875	n/a	REC_START	5798326	n/a	LTP378	ltpFR2	8	13	n/a	n/a	n/a	n/a	0	0	0
2837.548828125	n/a	REC_WORD	5811300	wordpools/wasnorm_wordpool_576.txt	LTP378	ltpFR2	8	13	BANQUET	86	n/a	n/a	0	0	0
2842.12646484375	n/a	REC_WORD	5820675	wordpools/wasnorm_wordpool_576.txt	LTP378	ltpFR2	8	13	DISH	474	n/a	n/a	0	0	0
2854.6201171875	n/a	REC_WORD	5846262	wordpools/wasnorm_wordpool_576.txt	LTP378	ltpFR2	8	13	PADDLE	1000	n/a	n/a	0	0	0
2857.4482421875	n/a	REC_WORD	5852054	wordpools/wasnorm_wordpool_576.txt	LTP378	ltpFR2	8	13	DOG	480	n/a	n/a	0	0	0
2890.1474609375	n/a	REC_WORD	5919022	wordpools/wasnorm_wordpool_576.txt	LTP378	ltpFR2	8	13	LIGHT	-1	n/a	n/a	0	0	0
2898.81201171875	n/a	REC_WORD	5936767	wordpools/wasnorm_wordpool_576.txt	LTP378	ltpFR2	8	13	PLAYGROUND	1087	n/a	n/a	0	0	0
2902.18603515625	n/a	REC_WORD	5943677	wordpools/wasnorm_wordpool_576.txt	LTP378	ltpFR2	8	13	BEAVER	109	n/a	n/a	0	0	0
2943.22412109375	n/a	DISTRACTOR	6027723	n/a	LTP378	ltpFR2	8	14	n/a	n/a	n/a	n/a	0	0	0
2943.22412109375	n/a	START	6027723	n/a	LTP378	ltpFR2	8	n/a	n/a	n/a	19	n/a	n/a	n/a	n/a
2943.24072265625	n/a	PROB	6027757	n/a	LTP378	ltpFR2	8	n/a	n/a	n/a	19	13	4	4	5
2947.3720703125	n/a	PROB	6036218	n/a	LTP378	ltpFR2	8	n/a	n/a	n/a	19	22	7	8	7
2963.13134765625	n/a	PROB	6068493	n/a	LTP378	ltpFR2	8	n/a	n/a	n/a	19	10	5	1	4
2964.71240234375	n/a	PROB	6071731	n/a	LTP378	ltpFR2	8	n/a	n/a	n/a	19	10	4	5	1
2966.59619140625	n/a	STOP	6075589	n/a	LTP378	ltpFR2	8	n/a	n/a	n/a	19	n/a	n/a	n/a	n/a
2968.1455078125	n/a	WORD	6078762	wordpools/wasnorm_wordpool_576.txt	LTP378	ltpFR2	8	14	TWIG	1527	n/a	n/a	0	0	0
2970.75927734375	n/a	WORD	6084115	wordpools/wasnorm_wordpool_576.txt	LTP378	ltpFR2	8	14	COOK	372	n/a	n/a	0	0	0
2973.5419921875	n/a	WORD	6089814	wordpools/wasnorm_wordpool_576.txt	LTP378	ltpFR2	8	14	GARLIC	624	n/a	n/a	0	0	0
2976.17529296875	n/a	WORD	6095207	wordpools/wasnorm_wordpool_576.txt	LTP378	ltpFR2	8	14	BLADE	134	n/a	n/a	0	0	0
2978.7890625	n/a	WORD	6100560	wordpools/wasnorm_wordpool_576.txt	LTP378	ltpFR2	8	14	CANAL	226	n/a	n/a	0	0	0
2981.57177734375	n/a	WORD	6106259	wordpools/wasnorm_wordpool_576.txt	LTP378	ltpFR2	8	14	ISLAND	745	n/a	n/a	0	0	0
2984.3037109375	n/a	WORD	6111854	wordpools/wasnorm_wordpool_576.txt	LTP378	ltpFR2	8	14	WRIST	1626	n/a	n/a	0	0	0
2986.90185546875	n/a	WORD	6117175	wordpools/wasnorm_wordpool_576.txt	LTP378	ltpFR2	8	14	NAPKIN	937	n/a	n/a	0	0	0
2989.70068359375	n/a	WORD	6122907	wordpools/wasnorm_wordpool_576.txt	LTP378	ltpFR2	8	14	MOTOR	922	n/a	n/a	0	0	0
2992.3837890625	n/a	WORD	6128402	wordpools/wasnorm_wordpool_576.txt	LTP378	ltpFR2	8	14	NIGHTGOWN	953	n/a	n/a	0	0	0
2995.048828125	n/a	WORD	6133860	wordpools/wasnorm_wordpool_576.txt	LTP378	ltpFR2	8	14	FOREST	593	n/a	n/a	0	0	0
2997.71337890625	n/a	WORD	6139317	wordpools/wasnorm_wordpool_576.txt	LTP378	ltpFR2	8	14	SADDLE	1221	n/a	n/a	0	0	0
3000.3623046875	n/a	WORD	6144742	wordpools/wasnorm_wordpool_576.txt	LTP378	ltpFR2	8	14	WAGON	1578	n/a	n/a	0	0	0
3003.01025390625	n/a	WORD	6150165	wordpools/wasnorm_wordpool_576.txt	LTP378	ltpFR2	8	14	COIN	343	n/a	n/a	0	0	0
3005.4775390625	n/a	WORD	6155218	wordpools/wasnorm_wordpool_576.txt	LTP378	ltpFR2	8	14	MARKET	871	n/a	n/a	0	0	0
3007.92529296875	n/a	WORD	6160231	wordpools/wasnorm_wordpool_576.txt	LTP378	ltpFR2	8	14	GARBAGE	622	n/a	n/a	0	0	0
3010.408203125	n/a	WORD	6165316	wordpools/wasnorm_wordpool_576.txt	LTP378	ltpFR2	8	14	TRUCK	1512	n/a	n/a	0	0	0
3013.123046875	n/a	WORD	6170876	wordpools/wasnorm_wordpool_576.txt	LTP378	ltpFR2	8	14	LEG	809	n/a	n/a	0	0	0
3015.654296875	n/a	WORD	6176060	wordpools/wasnorm_wordpool_576.txt	LTP378	ltpFR2	8	14	DUST	508	n/a	n/a	0	0	0
3018.25390625	n/a	WORD	6181384	wordpools/wasnorm_wordpool_576.txt	LTP378	ltpFR2	8	14	NURSE	963	n/a	n/a	0	0	0
3020.78515625	n/a	WORD	6186568	wordpools/wasnorm_wordpool_576.txt	LTP378	ltpFR2	8	14	MUFFIN	929	n/a	n/a	0	0	0
3023.26806640625	n/a	WORD	6191653	wordpools/wasnorm_wordpool_576.txt	LTP378	ltpFR2	8	14	OINTMENT	974	n/a	n/a	0	0	0
3025.89892578125	n/a	WORD	6197041	wordpools/wasnorm_wordpool_576.txt	LTP378	ltpFR2	8	14	IGLOO	734	n/a	n/a	0	0	0
3028.71484375	n/a	WORD	6202808	wordpools/wasnorm_wordpool_576.txt	LTP378	ltpFR2	8	14	FREEZER	604	n/a	n/a	0	0	0
3030.33154296875	n/a	START	6206119	n/a	LTP378	ltpFR2	8	n/a	n/a	n/a	20	n/a	n/a	n/a	n/a
3031.5048828125	n/a	DISTRACTOR	6208522	n/a	LTP378	ltpFR2	8	14	n/a	n/a	n/a	n/a	0	0	0
3031.5146484375	n/a	PROB	6208542	n/a	LTP378	ltpFR2	8	n/a	n/a	n/a	20	17	8	3	6
3035.82763671875	n/a	PROB	6217375	n/a	LTP378	ltpFR2	8	n/a	n/a	n/a	20	8	3	1	4
3038.32763671875	n/a	PROB	6222495	n/a	LTP378	ltpFR2	8	n/a	n/a	n/a	20	16	2	7	7
3045.00634765625	n/a	PROB	6236173	n/a	LTP378	ltpFR2	8	n/a	n/a	n/a	20	18	8	5	5
3046.88916015625	n/a	PROB	6240029	n/a	LTP378	ltpFR2	8	n/a	n/a	n/a	20	21	8	5	9
3051.6201171875	n/a	PROB	6249718	n/a	LTP378	ltpFR2	8	n/a	n/a	n/a	20	17	1	8	8
3053.72412109375	n/a	STOP	6254027	n/a	LTP378	ltpFR2	8	n/a	n/a	n/a	20	n/a	n/a	n/a	n/a
3056.27099609375	n/a	REC_START	6259243	n/a	LTP378	ltpFR2	8	14	n/a	n/a	n/a	n/a	0	0	0
3070.70849609375	n/a	REC_WORD	6288811	wordpools/wasnorm_wordpool_576.txt	LTP378	ltpFR2	8	14	TURTLE	1522	n/a	n/a	0	0	0
3084.5224609375	n/a	REC_WORD	6317102	wordpools/wasnorm_wordpool_576.txt	LTP378	ltpFR2	8	14	NIGHTGOWN	953	n/a	n/a	0	0	0
3088.59423828125	n/a	REC_WORD	6325441	wordpools/wasnorm_wordpool_576.txt	LTP378	ltpFR2	8	14	WRENCH	1625	n/a	n/a	0	0	0
3118.28466796875	n/a	REC_WORD	6386247	wordpools/wasnorm_wordpool_576.txt	LTP378	ltpFR2	8	14	GRAVITY	-1	n/a	n/a	0	0	0
3119.8525390625	n/a	REC_WORD_VV	6389458	wordpools/wasnorm_wordpool_576.txt	LTP378	ltpFR2	8	14	<>	-1	n/a	n/a	0	0	0
3169.81201171875	n/a	WORD	6491775	wordpools/wasnorm_wordpool_576.txt	LTP378	ltpFR2	8	15	HANDBAG	684	n/a	n/a	0	0	0
3172.626953125	n/a	WORD	6497540	wordpools/wasnorm_wordpool_576.txt	LTP378	ltpFR2	8	15	APRON	35	n/a	n/a	0	0	0
3175.42724609375	n/a	WORD	6503275	wordpools/wasnorm_wordpool_576.txt	LTP378	ltpFR2	8	15	HEADBAND	696	n/a	n/a	0	0	0
3178.10888671875	n/a	WORD	6508767	wordpools/wasnorm_wordpool_576.txt	LTP378	ltpFR2	8	15	CHEST	295	n/a	n/a	0	0	0
3180.7568359375	n/a	WORD	6514190	wordpools/wasnorm_wordpool_576.txt	LTP378	ltpFR2	8	15	GIRL	637	n/a	n/a	0	0	0
3183.45703125	n/a	WORD	6519720	wordpools/wasnorm_wordpool_576.txt	LTP378	ltpFR2	8	15	BUNNY	198	n/a	n/a	0	0	0
3186.18896484375	n/a	WORD	6525315	wordpools/wasnorm_wordpool_576.txt	LTP378	ltpFR2	8	15	RABBIT	1152	n/a	n/a	0	0	0
3188.81982421875	n/a	WORD	6530703	wordpools/wasnorm_wordpool_576.txt	LTP378	ltpFR2	8	15	EGYPT	519	n/a	n/a	0	0	0
3191.435546875	n/a	WORD	6536060	wordpools/wasnorm_wordpool_576.txt	LTP378	ltpFR2	8	15	JELLY	755	n/a	n/a	0	0	0
3193.900390625	n/a	WORD	6541108	wordpools/wasnorm_wordpool_576.txt	LTP378	ltpFR2	8	15	GHETTO	633	n/a	n/a	0	0	0
3196.50048828125	n/a	WORD	6546433	wordpools/wasnorm_wordpool_576.txt	LTP378	ltpFR2	8	15	SNAIL	1332	n/a	n/a	0	0	0
3199.1484375	n/a	WORD	6551856	wordpools/wasnorm_wordpool_576.txt	LTP378	ltpFR2	8	15	GLOVE	642	n/a	n/a	0	0	0
3201.9462890625	n/a	WORD	6557586	wordpools/wasnorm_wordpool_576.txt	LTP378	ltpFR2	8	15	BEAKER	104	n/a	n/a	0	0	0
3204.71142578125	n/a	WORD	6563249	wordpools/wasnorm_wordpool_576.txt	LTP378	ltpFR2	8	15	PEPPER	1047	n/a	n/a	0	0	0
3207.29443359375	n/a	WORD	6568539	wordpools/wasnorm_wordpool_576.txt	LTP378	ltpFR2	8	15	PISTOL	1075	n/a	n/a	0	0	0
3209.7763671875	n/a	WORD	6573622	wordpools/wasnorm_wordpool_576.txt	LTP378	ltpFR2	8	15	SUNSET	1408	n/a	n/a	0	0	0
3212.42529296875	n/a	WORD	6579047	wordpools/wasnorm_wordpool_576.txt	LTP378	ltpFR2	8	15	GLASS	639	n/a	n/a	0	0	0
3214.97314453125	n/a	WORD	6584265	wordpools/wasnorm_wordpool_576.txt	LTP378	ltpFR2	8	15	TILE	1468	n/a	n/a	0	0	0
3217.57177734375	n/a	WORD	6589587	wordpools/wasnorm_wordpool_576.txt	LTP378	ltpFR2	8	15	MOTEL	919	n/a	n/a	0	0	0
3220.18896484375	n/a	WORD	6594947	wordpools/wasnorm_wordpool_576.txt	LTP378	ltpFR2	8	15	PUDDLE	1140	n/a	n/a	0	0	0
3223.0029296875	n/a	WORD	6600710	wordpools/wasnorm_wordpool_576.txt	LTP378	ltpFR2	8	15	MEDAL	885	n/a	n/a	0	0	0
3225.751953125	n/a	WORD	6606340	wordpools/wasnorm_wordpool_576.txt	LTP378	ltpFR2	8	15	SANDWICH	1232	n/a	n/a	0	0	0
3228.31787109375	n/a	WORD	6611595	wordpools/wasnorm_wordpool_576.txt	LTP378	ltpFR2	8	15	CHEMIST	292	n/a	n/a	0	0	0
3231.03271484375	n/a	WORD	6617155	wordpools/wasnorm_wordpool_576.txt	LTP378	ltpFR2	8	15	RAFT	1159	n/a	n/a	0	0	0
3232.6484375	n/a	START	6620464	n/a	LTP378	ltpFR2	8	n/a	n/a	n/a	21	n/a	n/a	n/a	n/a
3233.65771484375	n/a	DISTRACTOR	6622531	n/a	LTP378	ltpFR2	8	15	n/a	n/a	n/a	n/a	0	0	0
3233.66455078125	n/a	PROB	6622545	n/a	LTP378	ltpFR2	8	n/a	n/a	n/a	21	15	9	5	1
3239.24560546875	n/a	PROB	6633975	n/a	LTP378	ltpFR2	8	n/a	n/a	n/a	21	18	8	7	3
3241.17822265625	n/a	PROB	6637933	n/a	LTP378	ltpFR2	8	n/a	n/a	n/a	21	10	1	2	7
3243.67626953125	n/a	PROB	6643049	n/a	LTP378	ltpFR2	8	n/a	n/a	n/a	21	14	8	3	3
3245.458984375	n/a	PROB	6646700	n/a	LTP378	ltpFR2	8	n/a	n/a	n/a	21	15	6	8	1
3246.857421875	n/a	PROB	6649564	n/a	LTP378	ltpFR2	8	n/a	n/a	n/a	21	7	1	3	3
3251.88818359375	n/a	PROB	6659867	n/a	LTP378	ltpFR2	8	n/a	n/a	n/a	21	20	6	9	5
3255.19873046875	n/a	STOP	6666647	n/a	LTP378	ltpFR2	8	n/a	n/a	n/a	21	n/a	n/a	n/a	n/a
3258.419921875	n/a	REC_START	6673244	n/a	LTP378	ltpFR2	8	15	n/a	n/a	n/a	n/a	0	0	0
3261.0966796875	n/a	REC_WORD	6678726	wordpools/wasnorm_wordpool_576.txt	LTP378	ltpFR2	8	15	JAIL	-1	n/a	n/a	0	0	0
3266.140625	n/a	REC_WORD	6689056	wordpools/wasnorm_wordpool_576.txt	LTP378	ltpFR2	8	15	TILE	1468	n/a	n/a	0	0	0
3315.8095703125	n/a	REC_WORD	6790778	wordpools/wasnorm_wordpool_576.txt	LTP378	ltpFR2	8	15	FOREST	593	n/a	n/a	0	0	0
3369.21484375	n/a	DISTRACTOR	6900152	n/a	LTP378	ltpFR2	8	16	n/a	n/a	n/a	n/a	0	0	0
3369.21484375	n/a	START	6900152	n/a	LTP378	ltpFR2	8	n/a	n/a	n/a	22	n/a	n/a	n/a	n/a
3369.23193359375	n/a	PROB	6900187	n/a	LTP378	ltpFR2	8	n/a	n/a	n/a	22	19	8	4	7
3374.72802734375	n/a	PROB	6911443	n/a	LTP378	ltpFR2	8	n/a	n/a	n/a	22	17	7	3	7
3378.2607421875	n/a	PROB	6918678	n/a	LTP378	ltpFR2	8	n/a	n/a	n/a	22	12	5	5	2
3379.958984375	n/a	PROB	6922156	n/a	LTP378	ltpFR2	8	n/a	n/a	n/a	22	17	8	6	3
3382.7578125	n/a	PROB	6927888	n/a	LTP378	ltpFR2	8	n/a	n/a	n/a	22	10	3	6	1
3384.4248046875	n/a	PROB	6931302	n/a	LTP378	ltpFR2	8	n/a	n/a	n/a	22	15	5	9	1
3386.32373046875	n/a	PROB	6935191	n/a	LTP378	ltpFR2	8	n/a	n/a	n/a	22	9	2	6	1
3389.5703125	n/a	PROB	6941840	n/a	LTP378	ltpFR2	8	n/a	n/a	n/a	22	17	7	9	1
3393.21337890625	n/a	STOP	6949301	n/a	LTP378	ltpFR2	8	n/a	n/a	n/a	22	n/a	n/a	n/a	n/a
3394.4033203125	n/a	WORD	6951738	wordpools/wasnorm_wordpool_576.txt	LTP378	ltpFR2	8	16	REPORT	1184	n/a	n/a	0	0	0
3397.16845703125	n/a	WORD	6957401	wordpools/wasnorm_wordpool_576.txt	LTP378	ltpFR2	8	16	BUTCHER	203	n/a	n/a	0	0	0
3399.9990234375	n/a	WORD	6963198	wordpools/wasnorm_wordpool_576.txt	LTP378	ltpFR2	8	16	PASTRY	1022	n/a	n/a	0	0	0
3402.68115234375	n/a	WORD	6968691	wordpools/wasnorm_wordpool_576.txt	LTP378	ltpFR2	8	16	ORCHID	982	n/a	n/a	0	0	0
3405.4140625	n/a	WORD	6974288	wordpools/wasnorm_wordpool_576.txt	LTP378	ltpFR2	8	16	CLOUD	328	n/a	n/a	0	0	0
3407.89501953125	n/a	WORD	6979369	wordpools/wasnorm_wordpool_576.txt	LTP378	ltpFR2	8	16	BADGE	68	n/a	n/a	0	0	0
3410.626953125	n/a	WORD	6984964	wordpools/wasnorm_wordpool_576.txt	LTP378	ltpFR2	8	16	SHERIFF	1284	n/a	n/a	0	0	0
3413.44384765625	n/a	WORD	6990733	wordpools/wasnorm_wordpool_576.txt	LTP378	ltpFR2	8	16	HOUND	724	n/a	n/a	0	0	0
3416.2587890625	n/a	WORD	6996498	wordpools/wasnorm_wordpool_576.txt	LTP378	ltpFR2	8	16	CITRUS	313	n/a	n/a	0	0	0
3418.8740234375	n/a	WORD	7001854	wordpools/wasnorm_wordpool_576.txt	LTP378	ltpFR2	8	16	SWAMP	1416	n/a	n/a	0	0	0
3421.35693359375	n/a	WORD	7006939	wordpools/wasnorm_wordpool_576.txt	LTP378	ltpFR2	8	16	LIGHTNING	820	n/a	n/a	0	0	0
3423.9375	n/a	WORD	7012224	wordpools/wasnorm_wordpool_576.txt	LTP378	ltpFR2	8	16	HUSBAND	728	n/a	n/a	0	0	0
3426.56982421875	n/a	WORD	7017615	wordpools/wasnorm_wordpool_576.txt	LTP378	ltpFR2	8	16	SWORD	1423	n/a	n/a	0	0	0
3429.25244140625	n/a	WORD	7023109	wordpools/wasnorm_wordpool_576.txt	LTP378	ltpFR2	8	16	GROUND	666	n/a	n/a	0	0	0
3431.8505859375	n/a	WORD	7028430	wordpools/wasnorm_wordpool_576.txt	LTP378	ltpFR2	8	16	SPONGE	1355	n/a	n/a	0	0	0
3434.283203125	n/a	WORD	7033412	wordpools/wasnorm_wordpool_576.txt	LTP378	ltpFR2	8	16	GRIZZLY	662	n/a	n/a	0	0	0
3436.9814453125	n/a	WORD	7038938	wordpools/wasnorm_wordpool_576.txt	LTP378	ltpFR2	8	16	WORLD	1622	n/a	n/a	0	0	0
3439.46435546875	n/a	WORD	7044023	wordpools/wasnorm_wordpool_576.txt	LTP378	ltpFR2	8	16	CANYON	235	n/a	n/a	0	0	0
3442.1630859375	n/a	WORD	7049550	wordpools/wasnorm_wordpool_576.txt	LTP378	ltpFR2	8	16	BRIEFCASE	175	n/a	n/a	0	0	0
3444.84423828125	n/a	WORD	7055041	wordpools/wasnorm_wordpool_576.txt	LTP378	ltpFR2	8	16	TART	1436	n/a	n/a	0	0	0
3447.31005859375	n/a	WORD	7060091	wordpools/wasnorm_wordpool_576.txt	LTP378	ltpFR2	8	16	SERVER	1272	n/a	n/a	0	0	0
3449.791015625	n/a	WORD	7065172	wordpools/wasnorm_wordpool_576.txt	LTP378	ltpFR2	8	16	GARDEN	623	n/a	n/a	0	0	0
3452.39111328125	n/a	WORD	7070497	wordpools/wasnorm_wordpool_576.txt	LTP378	ltpFR2	8	16	TURKEY	1520	n/a	n/a	0	0	0
3454.888671875	n/a	WORD	7075612	wordpools/wasnorm_wordpool_576.txt	LTP378	ltpFR2	8	16	PICNIC	1060	n/a	n/a	0	0	0
3456.505859375	n/a	START	7078924	n/a	LTP378	ltpFR2	8	n/a	n/a	n/a	23	n/a	n/a	n/a	n/a
3457.65966796875	n/a	DISTRACTOR	7081287	n/a	LTP378	ltpFR2	8	16	n/a	n/a	n/a	n/a	0	0	0
3457.6708984375	n/a	PROB	7081310	n/a	LTP378	ltpFR2	8	n/a	n/a	n/a	23	18	3	8	7
3462.8515625	n/a	PROB	7091920	n/a	LTP378	ltpFR2	8	n/a	n/a	n/a	23	15	6	8	1
3464.41845703125	n/a	PROB	7095129	n/a	LTP378	ltpFR2	8	n/a	n/a	n/a	23	11	2	1	8
3466.1015625	n/a	PROB	7098576	n/a	LTP378	ltpFR2	8	n/a	n/a	n/a	23	20	8	8	4
3469.7314453125	n/a	PROB	7106010	n/a	LTP378	ltpFR2	8	n/a	n/a	n/a	23	10	3	6	1
3472.2646484375	n/a	PROB	7111198	n/a	LTP378	ltpFR2	8	n/a	n/a	n/a	23	15	1	7	7
3474.84619140625	n/a	PROB	7116485	n/a	LTP378	ltpFR2	8	n/a	n/a	n/a	23	13	6	5	2
3479.064453125	n/a	STOP	7125124	n/a	LTP378	ltpFR2	8	n/a	n/a	n/a	23	n/a	n/a	n/a	n/a
3482.361328125	n/a	REC_START	7131876	n/a	LTP378	ltpFR2	8	16	n/a	n/a	n/a	n/a	0	0	0
3511.13525390625	n/a	REC_WORD_VV	7190805	wordpools/wasnorm_wordpool_576.txt	LTP378	ltpFR2	8	16	<>	-1	n/a	n/a	0	0	0
3511.34765625	n/a	REC_WORD	7191240	wordpools/wasnorm_wordpool_576.txt	LTP378	ltpFR2	8	16	REPORT	1184	n/a	n/a	0	0	0
3529.994140625	n/a	REC_WORD	7229428	wordpools/wasnorm_wordpool_576.txt	LTP378	ltpFR2	8	16	TITLE	-1	n/a	n/a	0	0	0
3538.77880859375	n/a	REC_WORD	7247419	wordpools/wasnorm_wordpool_576.txt	LTP378	ltpFR2	8	16	CITRUS	313	n/a	n/a	0	0	0
3545.6376953125	n/a	REC_WORD	7261466	wordpools/wasnorm_wordpool_576.txt	LTP378	ltpFR2	8	16	JAIL	-1	n/a	n/a	0	0	0
3558.904296875	n/a	REST_REWET	7288636	n/a	LTP378	ltpFR2	8	16	n/a	n/a	n/a	n/a	0	0	0
3595.00341796875	n/a	DISTRACTOR	7362567	n/a	LTP378	ltpFR2	8	17	n/a	n/a	n/a	n/a	0	0	0
3595.00439453125	n/a	START	7362569	n/a	LTP378	ltpFR2	8	n/a	n/a	n/a	24	n/a	n/a	n/a	n/a
3595.021484375	n/a	PROB	7362604	n/a	LTP378	ltpFR2	8	n/a	n/a	n/a	24	19	4	9	6
3600.03515625	n/a	PROB	7372872	n/a	LTP378	ltpFR2	8	n/a	n/a	n/a	24	9	1	6	2
3603.6162109375	n/a	PROB	7380206	n/a	LTP378	ltpFR2	8	n/a	n/a	n/a	24	17	8	1	8
3607.2490234375	n/a	PROB	7387646	n/a	LTP378	ltpFR2	8	n/a	n/a	n/a	24	8	4	3	1
3612.927734375	n/a	PROB	7399276	n/a	LTP378	ltpFR2	8	n/a	n/a	n/a	24	14	6	2	6
3619.00341796875	n/a	STOP	7411719	n/a	LTP378	ltpFR2	8	n/a	n/a	n/a	24	n/a	n/a	n/a	n/a
3620.1923828125	n/a	WORD	7414154	wordpools/wasnorm_wordpool_576.txt	LTP378	ltpFR2	8	17	CANDY	230	n/a	n/a	0	0	0
3622.9736328125	n/a	WORD	7419850	wordpools/wasnorm_wordpool_576.txt	LTP378	ltpFR2	8	17	TOASTER	1472	n/a	n/a	0	0	0
3625.73828125	n/a	WORD	7425512	wordpools/wasnorm_wordpool_576.txt	LTP378	ltpFR2	8	17	SKIRT	1319	n/a	n/a	0	0	0
3628.48828125	n/a	WORD	7431144	wordpools/wasnorm_wordpool_576.txt	LTP378	ltpFR2	8	17	SHIRT	1287	n/a	n/a	0	0	0
3630.9521484375	n/a	WORD	7436190	wordpools/wasnorm_wordpool_576.txt	LTP378	ltpFR2	8	17	LODGE	839	n/a	n/a	0	0	0
3633.71826171875	n/a	WORD	7441855	wordpools/wasnorm_wordpool_576.txt	LTP378	ltpFR2	8	17	HAND	683	n/a	n/a	0	0	0
3636.484375	n/a	WORD	7447520	wordpools/wasnorm_wordpool_576.txt	LTP378	ltpFR2	8	17	DRIVER	499	n/a	n/a	0	0	0
3638.93212890625	n/a	WORD	7452533	wordpools/wasnorm_wordpool_576.txt	LTP378	ltpFR2	8	17	VIRUS	1572	n/a	n/a	0	0	0
3641.48193359375	n/a	WORD	7457755	wordpools/wasnorm_wordpool_576.txt	LTP378	ltpFR2	8	17	PATIENT	1024	n/a	n/a	0	0	0
3644.18115234375	n/a	WORD	7463283	wordpools/wasnorm_wordpool_576.txt	LTP378	ltpFR2	8	17	BARREL	91	n/a	n/a	0	0	0
3646.6279296875	n/a	WORD	7468294	wordpools/wasnorm_wordpool_576.txt	LTP378	ltpFR2	8	17	LION	827	n/a	n/a	0	0	0
3649.2119140625	n/a	WORD	7473586	wordpools/wasnorm_wordpool_576.txt	LTP378	ltpFR2	8	17	BEAST	108	n/a	n/a	0	0	0
3652.02685546875	n/a	WORD	7479351	wordpools/wasnorm_wordpool_576.txt	LTP378	ltpFR2	8	17	OYSTER	995	n/a	n/a	0	0	0
3654.77490234375	n/a	WORD	7484979	wordpools/wasnorm_wordpool_576.txt	LTP378	ltpFR2	8	17	CATCHER	258	n/a	n/a	0	0	0
3657.4736328125	n/a	WORD	7490506	wordpools/wasnorm_wordpool_576.txt	LTP378	ltpFR2	8	17	CRICKET	408	n/a	n/a	0	0	0
3660.12255859375	n/a	WORD	7495931	wordpools/wasnorm_wordpool_576.txt	LTP378	ltpFR2	8	17	CARROT	249	n/a	n/a	0	0	0
3662.58740234375	n/a	WORD	7500979	wordpools/wasnorm_wordpool_576.txt	LTP378	ltpFR2	8	17	PRINCE	1124	n/a	n/a	0	0	0
3665.236328125	n/a	WORD	7506404	wordpools/wasnorm_wordpool_576.txt	LTP378	ltpFR2	8	17	COUNTY	389	n/a	n/a	0	0	0
3667.984375	n/a	WORD	7512032	wordpools/wasnorm_wordpool_576.txt	LTP378	ltpFR2	8	17	FRIAR	605	n/a	n/a	0	0	0
3670.4345703125	n/a	WORD	7517050	wordpools/wasnorm_wordpool_576.txt	LTP378	ltpFR2	8	17	KITCHEN	778	n/a	n/a	0	0	0
3673.2333984375	n/a	WORD	7522782	wordpools/wasnorm_wordpool_576.txt	LTP378	ltpFR2	8	17	CLAM	315	n/a	n/a	0	0	0
3675.78125	n/a	WORD	7528000	wordpools/wasnorm_wordpool_576.txt	LTP378	ltpFR2	8	17	BINDER	127	n/a	n/a	0	0	0
3678.2802734375	n/a	WORD	7533118	wordpools/wasnorm_wordpool_576.txt	LTP378	ltpFR2	8	17	FOX	598	n/a	n/a	0	0	0
3680.912109375	n/a	WORD	7538508	wordpools/wasnorm_wordpool_576.txt	LTP378	ltpFR2	8	17	YARN	1631	n/a	n/a	0	0	0
3682.52880859375	n/a	START	7541819	n/a	LTP378	ltpFR2	8	n/a	n/a	n/a	25	n/a	n/a	n/a	n/a
3683.63623046875	n/a	DISTRACTOR	7544087	n/a	LTP378	ltpFR2	8	17	n/a	n/a	n/a	n/a	0	0	0
3683.64404296875	n/a	PROB	7544103	n/a	LTP378	ltpFR2	8	n/a	n/a	n/a	25	17	6	5	6
3690.224609375	n/a	PROB	7557580	n/a	LTP378	ltpFR2	8	n/a	n/a	n/a	25	15	8	2	5
3692.15673828125	n/a	PROB	7561537	n/a	LTP378	ltpFR2	8	n/a	n/a	n/a	25	9	1	3	5
3694.12255859375	n/a	PROB	7565563	n/a	LTP378	ltpFR2	8	n/a	n/a	n/a	25	18	8	2	8
3697.81982421875	n/a	PROB	7573135	n/a	LTP378	ltpFR2	8	n/a	n/a	n/a	25	17	8	7	2
3701.4853515625	n/a	PROB	7580642	n/a	LTP378	ltpFR2	8	n/a	n/a	n/a	25	12	3	3	6
3706.5283203125	n/a	STOP	7590970	n/a	LTP378	ltpFR2	8	n/a	n/a	n/a	25	n/a	n/a	n/a	n/a
3708.44921875	n/a	REC_START	7594904	n/a	LTP378	ltpFR2	8	17	n/a	n/a	n/a	n/a	0	0	0
3711.7431640625	n/a	REC_WORD	7601650	wordpools/wasnorm_wordpool_576.txt	LTP378	ltpFR2	8	17	PRINCE	1124	n/a	n/a	0	0	0
3712.734375	n/a	REC_WORD	7603680	wordpools/wasnorm_wordpool_576.txt	LTP378	ltpFR2	8	17	COUNTY	389	n/a	n/a	0	0	0
3718.4541015625	n/a	REC_WORD	7615394	wordpools/wasnorm_wordpool_576.txt	LTP378	ltpFR2	8	17	TOASTER	1472	n/a	n/a	0	0	0
3719.5302734375	n/a	REC_WORD	7617598	wordpools/wasnorm_wordpool_576.txt	LTP378	ltpFR2	8	17	CANDY	230	n/a	n/a	0	0	0
3720.23193359375	n/a	REC_WORD	7619035	wordpools/wasnorm_wordpool_576.txt	LTP378	ltpFR2	8	17	SKIRT	1319	n/a	n/a	0	0	0
3720.98388671875	n/a	REC_WORD	7620575	wordpools/wasnorm_wordpool_576.txt	LTP378	ltpFR2	8	17	SHIRT	1287	n/a	n/a	0	0	0
3726.36767578125	n/a	REC_WORD	7631601	wordpools/wasnorm_wordpool_576.txt	LTP378	ltpFR2	8	17	HAND	683	n/a	n/a	0	0	0
3750.359375	n/a	REC_WORD	7680736	wordpools/wasnorm_wordpool_576.txt	LTP378	ltpFR2	8	17	FOX	598	n/a	n/a	0	0	0
3798.919921875	n/a	WORD	7780188	wordpools/wasnorm_wordpool_576.txt	LTP378	ltpFR2	8	18	NOMAD	955	n/a	n/a	0	0	0
3801.73583984375	n/a	WORD	7785955	wordpools/wasnorm_wordpool_576.txt	LTP378	ltpFR2	8	18	WINDOW	1611	n/a	n/a	0	0	0
3804.2861328125	n/a	WORD	7791178	wordpools/wasnorm_wordpool_576.txt	LTP378	ltpFR2	8	18	LAPEL	800	n/a	n/a	0	0	0
3807.03369140625	n/a	WORD	7796805	wordpools/wasnorm_wordpool_576.txt	LTP378	ltpFR2	8	18	SPOOL	1356	n/a	n/a	0	0	0
3809.515625	n/a	WORD	7801888	wordpools/wasnorm_wordpool_576.txt	LTP378	ltpFR2	8	18	THREAD	1460	n/a	n/a	0	0	0
3811.99755859375	n/a	WORD	7806971	wordpools/wasnorm_wordpool_576.txt	LTP378	ltpFR2	8	18	DANCER	437	n/a	n/a	0	0	0
3814.546875	n/a	WORD	7812192	wordpools/wasnorm_wordpool_576.txt	LTP378	ltpFR2	8	18	SEAFOOD	1260	n/a	n/a	0	0	0
3817.04541015625	n/a	WORD	7817309	wordpools/wasnorm_wordpool_576.txt	LTP378	ltpFR2	8	18	MARINE	869	n/a	n/a	0	0	0
3819.57666015625	n/a	WORD	7822493	wordpools/wasnorm_wordpool_576.txt	LTP378	ltpFR2	8	18	CONCERT	360	n/a	n/a	0	0	0
3822.01025390625	n/a	WORD	7827477	wordpools/wasnorm_wordpool_576.txt	LTP378	ltpFR2	8	18	BUG	187	n/a	n/a	0	0	0
3824.4423828125	n/a	WORD	7832458	wordpools/wasnorm_wordpool_576.txt	LTP378	ltpFR2	8	18	WASP	1593	n/a	n/a	0	0	0
3827.107421875	n/a	WORD	7837916	wordpools/wasnorm_wordpool_576.txt	LTP378	ltpFR2	8	18	CASHEW	253	n/a	n/a	0	0	0
3829.80517578125	n/a	WORD	7843441	wordpools/wasnorm_wordpool_576.txt	LTP378	ltpFR2	8	18	TOURIST	1488	n/a	n/a	0	0	0
3832.23828125	n/a	WORD	7848424	wordpools/wasnorm_wordpool_576.txt	LTP378	ltpFR2	8	18	SUITCASE	1403	n/a	n/a	0	0	0
3834.9033203125	n/a	WORD	7853882	wordpools/wasnorm_wordpool_576.txt	LTP378	ltpFR2	8	18	SPOON	1357	n/a	n/a	0	0	0
3837.68505859375	n/a	WORD	7859579	wordpools/wasnorm_wordpool_576.txt	LTP378	ltpFR2	8	18	KETCHUP	771	n/a	n/a	0	0	0
3840.26806640625	n/a	WORD	7864869	wordpools/wasnorm_wordpool_576.txt	LTP378	ltpFR2	8	18	SUNRISE	1407	n/a	n/a	0	0	0
3842.89892578125	n/a	WORD	7870257	wordpools/wasnorm_wordpool_576.txt	LTP378	ltpFR2	8	18	CRUTCH	417	n/a	n/a	0	0	0
3845.64794921875	n/a	WORD	7875887	wordpools/wasnorm_wordpool_576.txt	LTP378	ltpFR2	8	18	PISTON	1076	n/a	n/a	0	0	0
3848.380859375	n/a	WORD	7881484	wordpools/wasnorm_wordpool_576.txt	LTP378	ltpFR2	8	18	GAVEL	627	n/a	n/a	0	0	0
3850.82861328125	n/a	WORD	7886497	wordpools/wasnorm_wordpool_576.txt	LTP378	ltpFR2	8	18	TROUT	1511	n/a	n/a	0	0	0
3853.61083984375	n/a	WORD	7892195	wordpools/wasnorm_wordpool_576.txt	LTP378	ltpFR2	8	18	MUSTARD	935	n/a	n/a	0	0	0
3856.109375	n/a	WORD	7897312	wordpools/wasnorm_wordpool_576.txt	LTP378	ltpFR2	8	18	CEILING	265	n/a	n/a	0	0	0
3858.82470703125	n/a	WORD	7902873	wordpools/wasnorm_wordpool_576.txt	LTP378	ltpFR2	8	18	CRAB	397	n/a	n/a	0	0	0
3860.44140625	n/a	START	7906184	n/a	LTP378	ltpFR2	8	n/a	n/a	n/a	26	n/a	n/a	n/a	n/a
3861.400390625	n/a	DISTRACTOR	7908148	n/a	LTP378	ltpFR2	8	18	n/a	n/a	n/a	n/a	0	0	0
3861.4072265625	n/a	PROB	7908162	n/a	LTP378	ltpFR2	8	n/a	n/a	n/a	26	15	4	3	8
3865.9873046875	n/a	PROB	7917542	n/a	LTP378	ltpFR2	8	n/a	n/a	n/a	26	11	4	2	5
3867.853515625	n/a	PROB	7921364	n/a	LTP378	ltpFR2	8	n/a	n/a	n/a	26	11	2	4	5
3870.0361328125	n/a	PROB	7925834	n/a	LTP378	ltpFR2	8	n/a	n/a	n/a	26	11	1	4	6
3871.568359375	n/a	PROB	7928972	n/a	LTP378	ltpFR2	8	n/a	n/a	n/a	26	15	2	4	9
3875.1171875	n/a	PROB	7936240	n/a	LTP378	ltpFR2	8	n/a	n/a	n/a	26	14	6	6	2
3884.44091796875	n/a	STOP	7955335	n/a	LTP378	ltpFR2	8	n/a	n/a	n/a	26	n/a	n/a	n/a	n/a
3886.22900390625	n/a	REC_START	7958997	n/a	LTP378	ltpFR2	8	18	n/a	n/a	n/a	n/a	0	0	0
3901.404296875	n/a	REC_WORD	7990076	wordpools/wasnorm_wordpool_576.txt	LTP378	ltpFR2	8	18	TILE	1468	n/a	n/a	0	0	0
3903.40625	n/a	REC_WORD_VV	7994176	wordpools/wasnorm_wordpool_576.txt	LTP378	ltpFR2	8	18	<>	-1	n/a	n/a	0	0	0
3906.60107421875	n/a	REC_WORD_VV	8000719	wordpools/wasnorm_wordpool_576.txt	LTP378	ltpFR2	8	18	<>	-1	n/a	n/a	0	0	0
3953.64501953125	n/a	REC_WORD	8097065	wordpools/wasnorm_wordpool_576.txt	LTP378	ltpFR2	8	18	CEILING	265	n/a	n/a	0	0	0
3960.70703125	n/a	REC_WORD	8111528	wordpools/wasnorm_wordpool_576.txt	LTP378	ltpFR2	8	18	LAPEL	800	n/a	n/a	0	0	0
3976.69970703125	n/a	WORD	8144281	wordpools/wasnorm_wordpool_576.txt	LTP378	ltpFR2	8	19	STREAM	1392	n/a	n/a	0	0	0
3979.1494140625	n/a	WORD	8149298	wordpools/wasnorm_wordpool_576.txt	LTP378	ltpFR2	8	19	STATUE	1374	n/a	n/a	0	0	0
3981.96435546875	n/a	WORD	8155063	wordpools/wasnorm_wordpool_576.txt	LTP378	ltpFR2	8	19	RIFLE	1192	n/a	n/a	0	0	0
3984.779296875	n/a	WORD	8160828	wordpools/wasnorm_wordpool_576.txt	LTP378	ltpFR2	8	19	DENIM	446	n/a	n/a	0	0	0
3987.37939453125	n/a	WORD	8166153	wordpools/wasnorm_wordpool_576.txt	LTP378	ltpFR2	8	19	ZIPPER	1636	n/a	n/a	0	0	0
3990.0283203125	n/a	WORD	8171578	wordpools/wasnorm_wordpool_576.txt	LTP378	ltpFR2	8	19	SUBWAY	1400	n/a	n/a	0	0	0
3992.64208984375	n/a	WORD	8176931	wordpools/wasnorm_wordpool_576.txt	LTP378	ltpFR2	8	19	PLAZA	1088	n/a	n/a	0	0	0
3995.125	n/a	WORD	8182016	wordpools/wasnorm_wordpool_576.txt	LTP378	ltpFR2	8	19	BULLET	194	n/a	n/a	0	0	0
3997.873046875	n/a	WORD	8187644	wordpools/wasnorm_wordpool_576.txt	LTP378	ltpFR2	8	19	SODA	1341	n/a	n/a	0	0	0
4000.60498046875	n/a	WORD	8193239	wordpools/wasnorm_wordpool_576.txt	LTP378	ltpFR2	8	19	GRILL	661	n/a	n/a	0	0	0
4003.220703125	n/a	WORD	8198596	wordpools/wasnorm_wordpool_576.txt	LTP378	ltpFR2	8	19	JAPAN	749	n/a	n/a	0	0	0
4005.98583984375	n/a	WORD	8204259	wordpools/wasnorm_wordpool_576.txt	LTP378	ltpFR2	8	19	WAITRESS	1581	n/a	n/a	0	0	0
4008.56787109375	n/a	WORD	8209547	wordpools/wasnorm_wordpool_576.txt	LTP378	ltpFR2	8	19	POPCORN	1104	n/a	n/a	0	0	0
4011.150390625	n/a	WORD	8214836	wordpools/wasnorm_wordpool_576.txt	LTP378	ltpFR2	8	19	RAZOR	1171	n/a	n/a	0	0	0
4013.96435546875	n/a	WORD	8220599	wordpools/wasnorm_wordpool_576.txt	LTP378	ltpFR2	8	19	FINGER	567	n/a	n/a	0	0	0
4016.646484375	n/a	WORD	8226092	wordpools/wasnorm_wordpool_576.txt	LTP378	ltpFR2	8	19	BUCKET	184	n/a	n/a	0	0	0
4019.16357421875	n/a	WORD	8231247	wordpools/wasnorm_wordpool_576.txt	LTP378	ltpFR2	8	19	HEART	697	n/a	n/a	0	0	0
4021.611328125	n/a	WORD	8236260	wordpools/wasnorm_wordpool_576.txt	LTP378	ltpFR2	8	19	WAITER	1580	n/a	n/a	0	0	0
4024.37744140625	n/a	WORD	8241925	wordpools/wasnorm_wordpool_576.txt	LTP378	ltpFR2	8	19	POSTAGE	1113	n/a	n/a	0	0	0
4027.05908203125	n/a	WORD	8247417	wordpools/wasnorm_wordpool_576.txt	LTP378	ltpFR2	8	19	BOYFRIEND	162	n/a	n/a	0	0	0
4029.50830078125	n/a	WORD	8252433	wordpools/wasnorm_wordpool_576.txt	LTP378	ltpFR2	8	19	ULCER	1533	n/a	n/a	0	0	0
4032.27392578125	n/a	WORD	8258097	wordpools/wasnorm_wordpool_576.txt	LTP378	ltpFR2	8	19	STOMACH	1384	n/a	n/a	0	0	0
4034.90478515625	n/a	WORD	8263485	wordpools/wasnorm_wordpool_576.txt	LTP378	ltpFR2	8	19	COOKBOOK	373	n/a	n/a	0	0	0
4037.37109375	n/a	WORD	8268536	wordpools/wasnorm_wordpool_576.txt	LTP378	ltpFR2	8	19	ACTRESS	6	n/a	n/a	0	0	0
4038.98583984375	n/a	START	8271843	n/a	LTP378	ltpFR2	8	n/a	n/a	n/a	27	n/a	n/a	n/a	n/a
4039.94482421875	n/a	DISTRACTOR	8273807	n/a	LTP378	ltpFR2	8	19	n/a	n/a	n/a	n/a	0	0	0
4039.95166015625	n/a	PROB	8273821	n/a	LTP378	ltpFR2	8	n/a	n/a	n/a	27	9	5	2	2
4043.23486328125	n/a	PROB	8280545	n/a	LTP378	ltpFR2	8	n/a	n/a	n/a	27	12	7	4	1
4047.74853515625	n/a	PROB	8289789	n/a	LTP378	ltpFR2	8	n/a	n/a	n/a	27	9	4	4	1
4050.2314453125	n/a	PROB	8294874	n/a	LTP378	ltpFR2	8	n/a	n/a	n/a	27	18	8	3	7
4052.6796875	n/a	PROB	8299888	n/a	LTP378	ltpFR2	8	n/a	n/a	n/a	27	13	3	5	5
4055.29541015625	n/a	PROB	8305245	n/a	LTP378	ltpFR2	8	n/a	n/a	n/a	27	12	8	3	1
4057.7763671875	n/a	PROB	8310326	n/a	LTP378	ltpFR2	8	n/a	n/a	n/a	27	15	1	6	8
4062.978515625	n/a	STOP	8320980	n/a	LTP378	ltpFR2	8	n/a	n/a	n/a	27	n/a	n/a	n/a	n/a
4064.8740234375	n/a	REC_START	8324862	n/a	LTP378	ltpFR2	8	19	n/a	n/a	n/a	n/a	0	0	0
4077.52587890625	n/a	REC_WORD	8350773	wordpools/wasnorm_wordpool_576.txt	LTP378	ltpFR2	8	19	GRILL	661	n/a	n/a	0	0	0
4078.31787109375	n/a	REC_WORD	8352395	wordpools/wasnorm_wordpool_576.txt	LTP378	ltpFR2	8	19	JAPAN	749	n/a	n/a	0	0	0
4080.208984375	n/a	REC_WORD	8356268	wordpools/wasnorm_wordpool_576.txt	LTP378	ltpFR2	8	19	WAITRESS	1581	n/a	n/a	0	0	0
4125.99560546875	n/a	REC_WORD	8450039	wordpools/wasnorm_wordpool_576.txt	LTP378	ltpFR2	8	19	WIDOW	1608	n/a	n/a	0	0	0
4155.2958984375	n/a	DISTRACTOR	8510046	n/a	LTP378	ltpFR2	8	20	n/a	n/a	n/a	n/a	0	0	0
4155.296875	n/a	START	8510048	n/a	LTP378	ltpFR2	8	n/a	n/a	n/a	28	n/a	n/a	n/a	n/a
4155.31298828125	n/a	PROB	8510081	n/a	LTP378	ltpFR2	8	n/a	n/a	n/a	28	13	9	3	1
4160.27685546875	n/a	PROB	8520247	n/a	LTP378	ltpFR2	8	n/a	n/a	n/a	28	12	5	3	4
4162.10986328125	n/a	PROB	8524001	n/a	LTP378	ltpFR2	8	n/a	n/a	n/a	28	9	5	1	3
4164.57373046875	n/a	PROB	8529047	n/a	LTP378	ltpFR2	8	n/a	n/a	n/a	28	17	7	1	9
4166.8896484375	n/a	PROB	8533790	n/a	LTP378	ltpFR2	8	n/a	n/a	n/a	28	11	2	2	7
4169.25634765625	n/a	PROB	8538637	n/a	LTP378	ltpFR2	8	n/a	n/a	n/a	28	10	2	3	5
4171.6376953125	n/a	PROB	8543514	n/a	LTP378	ltpFR2	8	n/a	n/a	n/a	28	18	8	1	9
4173.90234375	n/a	PROB	8548152	n/a	LTP378	ltpFR2	8	n/a	n/a	n/a	28	8	1	2	5
4179.29638671875	n/a	STOP	8559199	n/a	LTP378	ltpFR2	8	n/a	n/a	n/a	28	n/a	n/a	n/a	n/a
4180.234375	n/a	WORD	8561120	wordpools/wasnorm_wordpool_576.txt	LTP378	ltpFR2	8	20	MARROW	872	n/a	n/a	0	0	0
4182.76513671875	n/a	WORD	8566303	wordpools/wasnorm_wordpool_576.txt	LTP378	ltpFR2	8	20	CHAMPAGNE	278	n/a	n/a	0	0	0
4185.3310546875	n/a	WORD	8571558	wordpools/wasnorm_wordpool_576.txt	LTP378	ltpFR2	8	20	CLOCK	325	n/a	n/a	0	0	0
4188.09716796875	n/a	WORD	8577223	wordpools/wasnorm_wordpool_576.txt	LTP378	ltpFR2	8	20	SHRUB	1299	n/a	n/a	0	0	0
4190.67822265625	n/a	WORD	8582509	wordpools/wasnorm_wordpool_576.txt	LTP378	ltpFR2	8	20	BLOCKADE	137	n/a	n/a	0	0	0
4193.31103515625	n/a	WORD	8587901	wordpools/wasnorm_wordpool_576.txt	LTP378	ltpFR2	8	20	BRAKE	166	n/a	n/a	0	0	0
4195.90869140625	n/a	WORD	8593221	wordpools/wasnorm_wordpool_576.txt	LTP378	ltpFR2	8	20	PROTON	1132	n/a	n/a	0	0	0
4198.474609375	n/a	WORD	8598476	wordpools/wasnorm_wordpool_576.txt	LTP378	ltpFR2	8	20	CAPTIVE	240	n/a	n/a	0	0	0
4200.93994140625	n/a	WORD	8603525	wordpools/wasnorm_wordpool_576.txt	LTP378	ltpFR2	8	20	PLUTO	1092	n/a	n/a	0	0	0
4203.505859375	n/a	WORD	8608780	wordpools/wasnorm_wordpool_576.txt	LTP378	ltpFR2	8	20	CASHIER	254	n/a	n/a	0	0	0
4206.2216796875	n/a	WORD	8614342	wordpools/wasnorm_wordpool_576.txt	LTP378	ltpFR2	8	20	LACE	792	n/a	n/a	0	0	0
4208.66943359375	n/a	WORD	8619355	wordpools/wasnorm_wordpool_576.txt	LTP378	ltpFR2	8	20	CHURCH	307	n/a	n/a	0	0	0
4211.16845703125	n/a	WORD	8624473	wordpools/wasnorm_wordpool_576.txt	LTP378	ltpFR2	8	20	LIVER	833	n/a	n/a	0	0	0
4213.849609375	n/a	WORD	8629964	wordpools/wasnorm_wordpool_576.txt	LTP378	ltpFR2	8	20	BEEF	113	n/a	n/a	0	0	0
4216.44921875	n/a	WORD	8635288	wordpools/wasnorm_wordpool_576.txt	LTP378	ltpFR2	8	20	BLACKBOARD	133	n/a	n/a	0	0	0
4218.8974609375	n/a	WORD	8640302	wordpools/wasnorm_wordpool_576.txt	LTP378	ltpFR2	8	20	MAPLE	866	n/a	n/a	0	0	0
4221.4140625	n/a	WORD	8645456	wordpools/wasnorm_wordpool_576.txt	LTP378	ltpFR2	8	20	MATTRESS	879	n/a	n/a	0	0	0
4223.84521484375	n/a	WORD	8650435	wordpools/wasnorm_wordpool_576.txt	LTP378	ltpFR2	8	20	BANK	83	n/a	n/a	0	0	0
4226.42822265625	n/a	WORD	8655725	wordpools/wasnorm_wordpool_576.txt	LTP378	ltpFR2	8	20	ROBIN	1199	n/a	n/a	0	0	0
4229.16015625	n/a	WORD	8661320	wordpools/wasnorm_wordpool_576.txt	LTP378	ltpFR2	8	20	KNAPSACK	783	n/a	n/a	0	0	0
4231.6240234375	n/a	WORD	8666366	wordpools/wasnorm_wordpool_576.txt	LTP378	ltpFR2	8	20	POSSUM	1112	n/a	n/a	0	0	0
4234.27392578125	n/a	WORD	8671793	wordpools/wasnorm_wordpool_576.txt	LTP378	ltpFR2	8	20	NECKLACE	940	n/a	n/a	0	0	0
4236.921875	n/a	WORD	8677216	wordpools/wasnorm_wordpool_576.txt	LTP378	ltpFR2	8	20	SCARF	1246	n/a	n/a	0	0	0
4239.4716796875	n/a	WORD	8682438	wordpools/wasnorm_wordpool_576.txt	LTP378	ltpFR2	8	20	PUPIL	1143	n/a	n/a	0	0	0
4241.087890625	n/a	START	8685748	n/a	LTP378	ltpFR2	8	n/a	n/a	n/a	29	n/a	n/a	n/a	n/a
4241.96875	n/a	DISTRACTOR	8687552	n/a	LTP378	ltpFR2	8	20	n/a	n/a	n/a	n/a	0	0	0
4241.98583984375	n/a	PROB	8687587	n/a	LTP378	ltpFR2	8	n/a	n/a	n/a	29	11	2	3	6
4246.66650390625	n/a	PROB	8697173	n/a	LTP378	ltpFR2	8	n/a	n/a	n/a	29	7	1	2	4
4248.517578125	n/a	PROB	8700964	n/a	LTP378	ltpFR2	8	n/a	n/a	n/a	29	10	2	4	4
4252.33154296875	n/a	PROB	8708775	n/a	LTP378	ltpFR2	8	n/a	n/a	n/a	29	13	4	5	4
4255.13037109375	n/a	PROB	8714507	n/a	LTP378	ltpFR2	8	n/a	n/a	n/a	29	15	6	6	3
4257.89453125	n/a	PROB	8720168	n/a	LTP378	ltpFR2	8	n/a	n/a	n/a	29	13	4	2	7
4260.56005859375	n/a	PROB	8725627	n/a	LTP378	ltpFR2	8	n/a	n/a	n/a	29	12	5	4	3
4263.611328125	n/a	STOP	8731876	n/a	LTP378	ltpFR2	8	n/a	n/a	n/a	29	n/a	n/a	n/a	n/a
4266.923828125	n/a	REC_START	8738660	n/a	LTP378	ltpFR2	8	20	n/a	n/a	n/a	n/a	0	0	0
4268.56005859375	n/a	REC_WORD	8742011	wordpools/wasnorm_wordpool_576.txt	LTP378	ltpFR2	8	20	MARROW	872	n/a	n/a	0	0	0
4269.384765625	n/a	REC_WORD	8743700	wordpools/wasnorm_wordpool_576.txt	LTP378	ltpFR2	8	20	CHAMPAGNE	278	n/a	n/a	0	0	0
4273.546875	n/a	REC_WORD	8752224	wordpools/wasnorm_wordpool_576.txt	LTP378	ltpFR2	8	20	SHRUB	1299	n/a	n/a	0	0	0
4288.9423828125	n/a	REC_WORD_VV	8783754	wordpools/wasnorm_wordpool_576.txt	LTP378	ltpFR2	8	20	<>	-1	n/a	n/a	0	0	0
4375.6201171875	n/a	WORD	8961270	wordpools/wasnorm_wordpool_576.txt	LTP378	ltpFR2	8	21	PORK	1108	n/a	n/a	0	0	0
4378.4033203125	n/a	WORD	8966970	wordpools/wasnorm_wordpool_576.txt	LTP378	ltpFR2	8	21	GRAPE	654	n/a	n/a	0	0	0
4380.9169921875	n/a	WORD	8972118	wordpools/wasnorm_wordpool_576.txt	LTP378	ltpFR2	8	21	SPOUSE	1358	n/a	n/a	0	0	0
4383.5341796875	n/a	WORD	8977478	wordpools/wasnorm_wordpool_576.txt	LTP378	ltpFR2	8	21	WIFE	1609	n/a	n/a	0	0	0
4386.01611328125	n/a	WORD	8982561	wordpools/wasnorm_wordpool_576.txt	LTP378	ltpFR2	8	21	SPARROW	1347	n/a	n/a	0	0	0
4388.796875	n/a	WORD	8988256	wordpools/wasnorm_wordpool_576.txt	LTP378	ltpFR2	8	21	BASEMENT	94	n/a	n/a	0	0	0
4391.61279296875	n/a	WORD	8994023	wordpools/wasnorm_wordpool_576.txt	LTP378	ltpFR2	8	21	CELLAR	267	n/a	n/a	0	0	0
4394.4287109375	n/a	WORD	8999790	wordpools/wasnorm_wordpool_576.txt	LTP378	ltpFR2	8	21	BRICK	172	n/a	n/a	0	0	0
4397.1767578125	n/a	WORD	9005418	wordpools/wasnorm_wordpool_576.txt	LTP378	ltpFR2	8	21	HIGHWAY	707	n/a	n/a	0	0	0
4399.9248046875	n/a	WORD	9011046	wordpools/wasnorm_wordpool_576.txt	LTP378	ltpFR2	8	21	TAXI	1438	n/a	n/a	0	0	0
4402.65673828125	n/a	WORD	9016641	wordpools/wasnorm_wordpool_576.txt	LTP378	ltpFR2	8	21	ICING	732	n/a	n/a	0	0	0
4405.2236328125	n/a	WORD	9021898	wordpools/wasnorm_wordpool_576.txt	LTP378	ltpFR2	8	21	KEEPER	769	n/a	n/a	0	0	0
4407.771484375	n/a	WORD	9027116	wordpools/wasnorm_wordpool_576.txt	LTP378	ltpFR2	8	21	EAGLE	512	n/a	n/a	0	0	0
4410.20458984375	n/a	WORD	9032099	wordpools/wasnorm_wordpool_576.txt	LTP378	ltpFR2	8	21	STAPLE	1371	n/a	n/a	0	0	0
4412.96826171875	n/a	WORD	9037759	wordpools/wasnorm_wordpool_576.txt	LTP378	ltpFR2	8	21	FRAME	600	n/a	n/a	0	0	0
4415.783203125	n/a	WORD	9043524	wordpools/wasnorm_wordpool_576.txt	LTP378	ltpFR2	8	21	ACTOR	5	n/a	n/a	0	0	0
4418.38330078125	n/a	WORD	9048849	wordpools/wasnorm_wordpool_576.txt	LTP378	ltpFR2	8	21	YOLK	1633	n/a	n/a	0	0	0
4421.09912109375	n/a	WORD	9054411	wordpools/wasnorm_wordpool_576.txt	LTP378	ltpFR2	8	21	MAILMAN	858	n/a	n/a	0	0	0
4423.86328125	n/a	WORD	9060072	wordpools/wasnorm_wordpool_576.txt	LTP378	ltpFR2	8	21	ORANGE	980	n/a	n/a	0	0	0
4426.462890625	n/a	WORD	9065396	wordpools/wasnorm_wordpool_576.txt	LTP378	ltpFR2	8	21	SLIDE	1326	n/a	n/a	0	0	0
4429.01171875	n/a	WORD	9070616	wordpools/wasnorm_wordpool_576.txt	LTP378	ltpFR2	8	21	COD	340	n/a	n/a	0	0	0
4431.55908203125	n/a	WORD	9075833	wordpools/wasnorm_wordpool_576.txt	LTP378	ltpFR2	8	21	STAMP	1370	n/a	n/a	0	0	0
4434.15869140625	n/a	WORD	9081157	wordpools/wasnorm_wordpool_576.txt	LTP378	ltpFR2	8	21	STICKER	1382	n/a	n/a	0	0	0
4436.65673828125	n/a	WORD	9086273	wordpools/wasnorm_wordpool_576.txt	LTP378	ltpFR2	8	21	XEROX	1628	n/a	n/a	0	0	0
4438.2734375	n/a	START	9089584	n/a	LTP378	ltpFR2	8	n/a	n/a	n/a	30	n/a	n/a	n/a	n/a
4439.20947265625	n/a	DISTRACTOR	9091501	n/a	LTP378	ltpFR2	8	21	n/a	n/a	n/a	n/a	0	0	0
4439.2236328125	n/a	PROB	9091530	n/a	LTP378	ltpFR2	8	n/a	n/a	n/a	30	13	3	5	5
4442.603515625	n/a	PROB	9098452	n/a	LTP378	ltpFR2	8	n/a	n/a	n/a	30	20	9	3	8
4446.9853515625	n/a	PROB	9107426	n/a	LTP378	ltpFR2	8	n/a	n/a	n/a	30	7	1	2	4
4449.068359375	n/a	PROB	9111692	n/a	LTP378	ltpFR2	8	n/a	n/a	n/a	30	16	4	9	3
4451.982421875	n/a	PROB	9117660	n/a	LTP378	ltpFR2	8	n/a	n/a	n/a	30	14	6	2	6
4454.6484375	n/a	PROB	9123120	n/a	LTP378	ltpFR2	8	n/a	n/a	n/a	30	1	1	6	6
4457.31396484375	n/a	PROB	9128579	n/a	LTP378	ltpFR2	8	n/a	n/a	n/a	30	14	5	5	4
4462.27294921875	n/a	STOP	9138735	n/a	LTP378	ltpFR2	8	n/a	n/a	n/a	30	n/a	n/a	n/a	n/a
4464.1279296875	n/a	REC_START	9142534	n/a	LTP378	ltpFR2	8	21	n/a	n/a	n/a	n/a	0	0	0
4465.966796875	n/a	REC_WORD	9146300	wordpools/wasnorm_wordpool_576.txt	LTP378	ltpFR2	8	21	SLIDE	1326	n/a	n/a	0	0	0
4474.69287109375	n/a	REC_WORD	9164171	wordpools/wasnorm_wordpool_576.txt	LTP378	ltpFR2	8	21	STICKER	1382	n/a	n/a	0	0	0
4476.3876953125	n/a	REC_WORD	9167642	wordpools/wasnorm_wordpool_576.txt	LTP378	ltpFR2	8	21	XEROX	1628	n/a	n/a	0	0	0
4477.71484375	n/a	REC_WORD	9170360	wordpools/wasnorm_wordpool_576.txt	LTP378	ltpFR2	8	21	COD	340	n/a	n/a	0	0	0
4490.25732421875	n/a	REC_WORD	9196047	wordpools/wasnorm_wordpool_576.txt	LTP378	ltpFR2	8	21	PORK	1108	n/a	n/a	0	0	0
4494.68505859375	n/a	REC_WORD	9205115	wordpools/wasnorm_wordpool_576.txt	LTP378	ltpFR2	8	21	GRAPE	654	n/a	n/a	0	0	0
4496.75732421875	n/a	REC_WORD	9209359	wordpools/wasnorm_wordpool_576.txt	LTP378	ltpFR2	8	21	SPOUSE	1358	n/a	n/a	0	0	0
4497.6953125	n/a	REC_WORD	9211280	wordpools/wasnorm_wordpool_576.txt	LTP378	ltpFR2	8	21	WIFE	1609	n/a	n/a	0	0	0
4530.7431640625	n/a	REC_WORD	9278962	wordpools/wasnorm_wordpool_576.txt	LTP378	ltpFR2	8	21	MARMALADE	-1	n/a	n/a	0	0	0
4531.83349609375	n/a	REC_WORD	9281195	wordpools/wasnorm_wordpool_576.txt	LTP378	ltpFR2	8	21	ORANGE	980	n/a	n/a	0	0	0
4538.39794921875	n/a	REC_WORD_VV	9294639	wordpools/wasnorm_wordpool_576.txt	LTP378	ltpFR2	8	21	<>	-1	n/a	n/a	0	0	0
4554.58154296875	n/a	DISTRACTOR	9327783	n/a	LTP378	ltpFR2	8	22	n/a	n/a	n/a	n/a	0	0	0
4554.58251953125	n/a	START	9327785	n/a	LTP378	ltpFR2	8	n/a	n/a	n/a	31	n/a	n/a	n/a	n/a
4554.5986328125	n/a	PROB	9327818	n/a	LTP378	ltpFR2	8	n/a	n/a	n/a	31	15	5	8	2
4557.41455078125	n/a	PROB	9333585	n/a	LTP378	ltpFR2	8	n/a	n/a	n/a	31	20	6	8	6
4560.6953125	n/a	PROB	9340304	n/a	LTP378	ltpFR2	8	n/a	n/a	n/a	31	14	8	1	5
4562.66162109375	n/a	PROB	9344331	n/a	LTP378	ltpFR2	8	n/a	n/a	n/a	31	12	7	3	2
4564.3955078125	n/a	PROB	9347882	n/a	LTP378	ltpFR2	8	n/a	n/a	n/a	31	11	3	6	2
4567.62548828125	n/a	PROB	9354497	n/a	LTP378	ltpFR2	8	n/a	n/a	n/a	31	20	7	5	8
4570.54150390625	n/a	PROB	9360469	n/a	LTP378	ltpFR2	8	n/a	n/a	n/a	31	16	8	5	3
4578.5810546875	n/a	STOP	9376934	n/a	LTP378	ltpFR2	8	n/a	n/a	n/a	31	n/a	n/a	n/a	n/a
4579.5361328125	n/a	WORD	9378890	wordpools/wasnorm_wordpool_576.txt	LTP378	ltpFR2	8	22	QUARTER	1148	n/a	n/a	0	0	0
4582.2529296875	n/a	WORD	9384454	wordpools/wasnorm_wordpool_576.txt	LTP378	ltpFR2	8	22	APPLE	33	n/a	n/a	0	0	0
4585.03466796875	n/a	WORD	9390151	wordpools/wasnorm_wordpool_576.txt	LTP378	ltpFR2	8	22	MUMMY	932	n/a	n/a	0	0	0
4587.666015625	n/a	WORD	9395540	wordpools/wasnorm_wordpool_576.txt	LTP378	ltpFR2	8	22	NOVEL	960	n/a	n/a	0	0	0
4590.44873046875	n/a	WORD	9401239	wordpools/wasnorm_wordpool_576.txt	LTP378	ltpFR2	8	22	SHELF	1280	n/a	n/a	0	0	0
4593.19775390625	n/a	WORD	9406869	wordpools/wasnorm_wordpool_576.txt	LTP378	ltpFR2	8	22	ASIA	46	n/a	n/a	0	0	0
4595.91162109375	n/a	WORD	9412427	wordpools/wasnorm_wordpool_576.txt	LTP378	ltpFR2	8	22	LAGOON	795	n/a	n/a	0	0	0
4598.62744140625	n/a	WORD	9417989	wordpools/wasnorm_wordpool_576.txt	LTP378	ltpFR2	8	22	FRAGRANCE	599	n/a	n/a	0	0	0
4601.42626953125	n/a	WORD	9423721	wordpools/wasnorm_wordpool_576.txt	LTP378	ltpFR2	8	22	SCOTCH	1251	n/a	n/a	0	0	0
4603.87451171875	n/a	WORD	9428735	wordpools/wasnorm_wordpool_576.txt	LTP378	ltpFR2	8	22	COMPASS	358	n/a	n/a	0	0	0
4606.6064453125	n/a	WORD	9434330	wordpools/wasnorm_wordpool_576.txt	LTP378	ltpFR2	8	22	BOUQUET	157	n/a	n/a	0	0	0
4609.0732421875	n/a	WORD	9439382	wordpools/wasnorm_wordpool_576.txt	LTP378	ltpFR2	8	22	POCKET	1093	n/a	n/a	0	0	0
4611.63720703125	n/a	WORD	9444633	wordpools/wasnorm_wordpool_576.txt	LTP378	ltpFR2	8	22	SHORTS	1293	n/a	n/a	0	0	0
4614.35302734375	n/a	WORD	9450195	wordpools/wasnorm_wordpool_576.txt	LTP378	ltpFR2	8	22	BARLEY	88	n/a	n/a	0	0	0
4616.85107421875	n/a	WORD	9455311	wordpools/wasnorm_wordpool_576.txt	LTP378	ltpFR2	8	22	LONDON	843	n/a	n/a	0	0	0
4619.28515625	n/a	WORD	9460296	wordpools/wasnorm_wordpool_576.txt	LTP378	ltpFR2	8	22	MONEY	908	n/a	n/a	0	0	0
4621.94873046875	n/a	WORD	9465751	wordpools/wasnorm_wordpool_576.txt	LTP378	ltpFR2	8	22	FARMER	553	n/a	n/a	0	0	0
4624.748046875	n/a	WORD	9471484	wordpools/wasnorm_wordpool_576.txt	LTP378	ltpFR2	8	22	MAMMAL	861	n/a	n/a	0	0	0
4627.31396484375	n/a	WORD	9476739	wordpools/wasnorm_wordpool_576.txt	LTP378	ltpFR2	8	22	DRILL	497	n/a	n/a	0	0	0
4629.76171875	n/a	WORD	9481752	wordpools/wasnorm_wordpool_576.txt	LTP378	ltpFR2	8	22	SNAKE	1333	n/a	n/a	0	0	0
4632.3115234375	n/a	WORD	9486974	wordpools/wasnorm_wordpool_576.txt	LTP378	ltpFR2	8	22	GANGSTER	620	n/a	n/a	0	0	0
4635.0107421875	n/a	WORD	9492502	wordpools/wasnorm_wordpool_576.txt	LTP378	ltpFR2	8	22	HORSE	719	n/a	n/a	0	0	0
4637.4755859375	n/a	WORD	9497550	wordpools/wasnorm_wordpool_576.txt	LTP378	ltpFR2	8	22	LETTUCE	814	n/a	n/a	0	0	0
4639.95654296875	n/a	WORD	9502631	wordpools/wasnorm_wordpool_576.txt	LTP378	ltpFR2	8	22	SWITCH	1422	n/a	n/a	0	0	0
4641.572265625	n/a	START	9505940	n/a	LTP378	ltpFR2	8	n/a	n/a	n/a	32	n/a	n/a	n/a	n/a
4642.6953125	n/a	DISTRACTOR	9508240	n/a	LTP378	ltpFR2	8	22	n/a	n/a	n/a	n/a	0	0	0
4642.70556640625	n/a	PROB	9508261	n/a	LTP378	ltpFR2	8	n/a	n/a	n/a	32	13	3	9	1
4646.88623046875	n/a	PROB	9516823	n/a	LTP378	ltpFR2	8	n/a	n/a	n/a	32	16	2	5	9
4650.68505859375	n/a	PROB	9524603	n/a	LTP378	ltpFR2	8	n/a	n/a	n/a	32	13	4	7	2
4656.13330078125	n/a	PROB	9535761	n/a	LTP378	ltpFR2	8	n/a	n/a	n/a	32	19	7	9	3
4660.9970703125	n/a	PROB	9545722	n/a	LTP378	ltpFR2	8	n/a	n/a	n/a	32	10	1	5	4
4664.078125	n/a	STOP	9552032	n/a	LTP378	ltpFR2	8	n/a	n/a	n/a	32	n/a	n/a	n/a	n/a
4667.36181640625	n/a	REC_START	9558757	n/a	LTP378	ltpFR2	8	22	n/a	n/a	n/a	n/a	0	0	0
4668.8935546875	n/a	REC_WORD	9561894	wordpools/wasnorm_wordpool_576.txt	LTP378	ltpFR2	8	22	QUARTER	1148	n/a	n/a	0	0	0
4685.0361328125	n/a	REC_WORD	9594954	wordpools/wasnorm_wordpool_576.txt	LTP378	ltpFR2	8	22	NOVEL	960	n/a	n/a	0	0	0
4702.61669921875	n/a	REC_WORD	9630959	wordpools/wasnorm_wordpool_576.txt	LTP378	ltpFR2	8	22	SCOTCH	1251	n/a	n/a	0	0	0
4710.98681640625	n/a	REC_WORD	9648101	wordpools/wasnorm_wordpool_576.txt	LTP378	ltpFR2	8	22	ICING	732	n/a	n/a	0	0	0
4773.541015625	n/a	DISTRACTOR	9776212	n/a	LTP378	ltpFR2	8	23	n/a	n/a	n/a	n/a	0	0	0
4773.541015625	n/a	START	9776212	n/a	LTP378	ltpFR2	8	n/a	n/a	n/a	33	n/a	n/a	n/a	n/a
