mstime	trial_type	stim_file	subject	experiment	session	trial	task	item_name	item_num	recog_resp	recog_conf	resp	color_r	color_g	color_b	case	font
0	SESS_START	n/a	LTP331	ltpFR	4	n/a	n/a	n/a	n/a	0	1	n/a	n/a	n/a	n/a	n/a	n/a
48976	WORD	wordpools/wasnorm_wordpool_less_exclusions.txt	LTP331	ltpFR	4	1	1	UNIFORM	1539	1	n/a	0	0.57763671875	0.412841796875	1	lower	amplitud.ttf
52907	WORD	wordpools/wasnorm_wordpool_less_exclusions.txt	LTP331	ltpFR	4	1	1	CHIME	300	n/a	n/a	0	0.57763671875	0.412841796875	1	lower	amplitud.ttf
56740	WORD	wordpools/wasnorm_wordpool_less_exclusions.txt	LTP331	ltpFR	4	1	1	LOFT	840	n/a	n/a	0	0.57763671875	0.412841796875	1	lower	amplitud.ttf
60637	WORD	wordpools/wasnorm_wordpool_less_exclusions.txt	LTP331	ltpFR	4	1	0	BUILDER	190	n/a	n/a	1	0.422607421875	0.5869140625	0	upper	zerothre.ttf
64852	WORD	wordpools/wasnorm_wordpool_less_exclusions.txt	LTP331	ltpFR	4	1	0	DRAGON	492	n/a	n/a	1	0.422607421875	0.5869140625	0	upper	zerothre.ttf
68933	WORD	wordpools/wasnorm_wordpool_less_exclusions.txt	LTP331	ltpFR	4	1	1	CHEEK	287	n/a	n/a	0	0.57763671875	0.412841796875	1	lower	amplitud.ttf
73164	WORD	wordpools/wasnorm_wordpool_less_exclusions.txt	LTP331	ltpFR	4	1	1	DOORBELL	487	n/a	n/a	0	0.57763671875	0.412841796875	1	lower	amplitud.ttf
77045	WORD	wordpools/wasnorm_wordpool_less_exclusions.txt	LTP331	ltpFR	4	1	0	BUTTERFLY	206	n/a	n/a	0	0.422607421875	0.5869140625	0	upper	zerothre.ttf
81127	WORD	wordpools/wasnorm_wordpool_less_exclusions.txt	LTP331	ltpFR	4	1	0	SAND	1230	n/a	n/a	0	0.422607421875	0.5869140625	0	upper	zerothre.ttf
85324	WORD	wordpools/wasnorm_wordpool_less_exclusions.txt	LTP331	ltpFR	4	1	0	REEF	1177	n/a	n/a	1	0.422607421875	0.5869140625	0	upper	zerothre.ttf
89439	WORD	wordpools/wasnorm_wordpool_less_exclusions.txt	LTP331	ltpFR	4	1	0	NEPTUNE	943	n/a	n/a	1	0.422607421875	0.5869140625	0	upper	zerothre.ttf
93470	WORD	wordpools/wasnorm_wordpool_less_exclusions.txt	LTP331	ltpFR	4	1	0	CORPORATION	382	n/a	n/a	1	0.422607421875	0.5869140625	0	upper	zerothre.ttf
97602	WORD	wordpools/wasnorm_wordpool_less_exclusions.txt	LTP331	ltpFR	4	1	0	MOSS	918	n/a	n/a	0	0.422607421875	0.5869140625	0	upper	zerothre.ttf
101516	WORD	wordpools/wasnorm_wordpool_less_exclusions.txt	LTP331	ltpFR	4	1	1	ELM	527	n/a	n/a	0	0.57763671875	0.412841796875	1	lower	amplitud.ttf
105732	WORD	wordpools/wasnorm_wordpool_less_exclusions.txt	LTP331	ltpFR	4	1	1	BUREAU	199	n/a	n/a	0	0.57763671875	0.412841796875	1	lower	amplitud.ttf
109596	WORD	wordpools/wasnorm_wordpool_less_exclusions.txt	LTP331	ltpFR	4	1	1	SKIN	1318	n/a	n/a	0	0.57763671875	0.412841796875	1	lower	amplitud.ttf
115494	REC_START	n/a	LTP331	ltpFR	4	1	n/a	n/a	n/a	n/a	n/a	n/a	n/a	n/a	n/a	n/a	n/a
115830	REC_WORD	wordpools/wasnorm_wordpool_less_exclusions.txt	LTP331	ltpFR	4	1	1	ELM	527	n/a	n/a	0	n/a	n/a	n/a	n/a	n/a
116770	REC_WORD	wordpools/wasnorm_wordpool_less_exclusions.txt	LTP331	ltpFR	4	1	1	BUREAU	199	n/a	n/a	0	n/a	n/a	n/a	n/a	n/a
118728	REC_WORD	wordpools/wasnorm_wordpool_less_exclusions.txt	LTP331	ltpFR	4	1	1	SKIN	1318	n/a	n/a	0	n/a	n/a	n/a	n/a	n/a
123151	REC_WORD	wordpools/wasnorm_wordpool_less_exclusions.txt	LTP331	ltpFR	4	1	0	CORPORATION	382	n/a	n/a	1	n/a	n/a	n/a	n/a	n/a
125070	REC_WORD	wordpools/wasnorm_wordpool_less_exclusions.txt	LTP331	ltpFR	4	1	1	UNIFORM	1539	n/a	n/a	0	n/a	n/a	n/a	n/a	n/a
125888	REC_WORD	wordpools/wasnorm_wordpool_less_exclusions.txt	LTP331	ltpFR	4	1	1	CHIME	300	n/a	n/a	0	n/a	n/a	n/a	n/a	n/a
127101	REC_WORD	wordpools/wasnorm_wordpool_less_exclusions.txt	LTP331	ltpFR	4	1	1	LOFT	840	n/a	n/a	0	n/a	n/a	n/a	n/a	n/a
128048	REC_WORD	wordpools/wasnorm_wordpool_less_exclusions.txt	LTP331	ltpFR	4	1	0	BUILDER	190	n/a	n/a	1	n/a	n/a	n/a	n/a	n/a
128729	REC_WORD	wordpools/wasnorm_wordpool_less_exclusions.txt	LTP331	ltpFR	4	1	0	DRAGON	492	n/a	n/a	1	n/a	n/a	n/a	n/a	n/a
130735	REC_WORD	wordpools/wasnorm_wordpool_less_exclusions.txt	LTP331	ltpFR	4	1	1	CHEEK	287	n/a	n/a	0	n/a	n/a	n/a	n/a	n/a
132264	REC_WORD	wordpools/wasnorm_wordpool_less_exclusions.txt	LTP331	ltpFR	4	1	1	DOORBELL	487	n/a	n/a	0	n/a	n/a	n/a	n/a	n/a
136481	REC_WORD	wordpools/wasnorm_wordpool_less_exclusions.txt	LTP331	ltpFR	4	1	0	BUTTERFLY	206	n/a	n/a	0	n/a	n/a	n/a	n/a	n/a
137977	REC_WORD	wordpools/wasnorm_wordpool_less_exclusions.txt	LTP331	ltpFR	4	1	0	SAND	1230	n/a	n/a	0	n/a	n/a	n/a	n/a	n/a
143587	REC_WORD	wordpools/wasnorm_wordpool_less_exclusions.txt	LTP331	ltpFR	4	1	0	REEF	1177	n/a	n/a	1	n/a	n/a	n/a	n/a	n/a
148668	REC_WORD	wordpools/wasnorm_wordpool_less_exclusions.txt	LTP331	ltpFR	4	1	0	NEPTUNE	943	n/a	n/a	1	n/a	n/a	n/a	n/a	n/a
151565	REC_WORD	wordpools/wasnorm_wordpool_less_exclusions.txt	LTP331	ltpFR	4	1	0	MOSS	918	n/a	n/a	0	n/a	n/a	n/a	n/a	n/a
154620	REC_WORD	wordpools/wasnorm_wordpool_less_exclusions.txt	LTP331	ltpFR	4	1	0	CORPORATION	382	n/a	n/a	1	n/a	n/a	n/a	n/a	n/a
222956	WORD	wordpools/wasnorm_wordpool_less_exclusions.txt	LTP331	ltpFR	4	2	0	RUNNER	1218	n/a	n/a	1	0.422607421875	0.5869140625	0	upper	zerothre.ttf
226839	WORD	wordpools/wasnorm_wordpool_less_exclusions.txt	LTP331	ltpFR	4	2	0	SLEEVE	1324	n/a	n/a	0	0.422607421875	0.5869140625	0	upper	zerothre.ttf
230853	WORD	wordpools/wasnorm_wordpool_less_exclusions.txt	LTP331	ltpFR	4	2	0	HERO	706	n/a	n/a	0	0.422607421875	0.5869140625	0	upper	zerothre.ttf
234717	WORD	wordpools/wasnorm_wordpool_less_exclusions.txt	LTP331	ltpFR	4	2	0	THESAURUS	1454	n/a	n/a	0	0.422607421875	0.5869140625	0	upper	zerothre.ttf
238783	WORD	wordpools/wasnorm_wordpool_less_exclusions.txt	LTP331	ltpFR	4	2	0	RACCOON	1153	n/a	n/a	1	0.422607421875	0.5869140625	0	upper	zerothre.ttf
242613	WORD	wordpools/wasnorm_wordpool_less_exclusions.txt	LTP331	ltpFR	4	2	0	MOOSE	915	n/a	n/a	1	0.422607421875	0.5869140625	0	upper	zerothre.ttf
246511	WORD	wordpools/wasnorm_wordpool_less_exclusions.txt	LTP331	ltpFR	4	2	1	RIVER	1194	n/a	n/a	0	0.57763671875	0.412841796875	1	lower	amplitud.ttf
250542	WORD	wordpools/wasnorm_wordpool_less_exclusions.txt	LTP331	ltpFR	4	2	1	FOUNTAIN	597	n/a	n/a	0	0.57763671875	0.412841796875	1	lower	amplitud.ttf
254590	WORD	wordpools/wasnorm_wordpool_less_exclusions.txt	LTP331	ltpFR	4	2	1	COLT	349	n/a	n/a	0	0.57763671875	0.412841796875	1	lower	amplitud.ttf
258522	WORD	wordpools/wasnorm_wordpool_less_exclusions.txt	LTP331	ltpFR	4	2	1	HALL	677	n/a	n/a	0	0.57763671875	0.412841796875	1	lower	amplitud.ttf
262421	WORD	wordpools/wasnorm_wordpool_less_exclusions.txt	LTP331	ltpFR	4	2	1	ASH	44	n/a	n/a	0	0.57763671875	0.412841796875	1	lower	amplitud.ttf
266618	WORD	wordpools/wasnorm_wordpool_less_exclusions.txt	LTP331	ltpFR	4	2	1	LOG	841	n/a	n/a	1	0.57763671875	0.412841796875	1	lower	amplitud.ttf
270733	WORD	wordpools/wasnorm_wordpool_less_exclusions.txt	LTP331	ltpFR	4	2	0	EMERALD	528	n/a	n/a	1	0.422607421875	0.5869140625	0	upper	zerothre.ttf
274714	WORD	wordpools/wasnorm_wordpool_less_exclusions.txt	LTP331	ltpFR	4	2	0	PONY	1102	n/a	n/a	1	0.422607421875	0.5869140625	0	upper	zerothre.ttf
278629	WORD	wordpools/wasnorm_wordpool_less_exclusions.txt	LTP331	ltpFR	4	2	1	LACE	792	n/a	n/a	0	0.57763671875	0.412841796875	1	lower	amplitud.ttf
282493	WORD	wordpools/wasnorm_wordpool_less_exclusions.txt	LTP331	ltpFR	4	2	1	MAT	877	n/a	n/a	0	0.57763671875	0.412841796875	1	lower	amplitud.ttf
288241	REC_START	n/a	LTP331	ltpFR	4	2	n/a	n/a	n/a	n/a	n/a	n/a	n/a	n/a	n/a	n/a	n/a
307283	REC_WORD	wordpools/wasnorm_wordpool_less_exclusions.txt	LTP331	ltpFR	4	2	0	RUNNER	1218	n/a	n/a	1	n/a	n/a	n/a	n/a	n/a
307747	REC_WORD	wordpools/wasnorm_wordpool_less_exclusions.txt	LTP331	ltpFR	4	2	0	SLEEVE	1324	n/a	n/a	0	n/a	n/a	n/a	n/a	n/a
311534	REC_WORD	wordpools/wasnorm_wordpool_less_exclusions.txt	LTP331	ltpFR	4	2	0	RACCOON	1153	n/a	n/a	1	n/a	n/a	n/a	n/a	n/a
312177	REC_WORD	wordpools/wasnorm_wordpool_less_exclusions.txt	LTP331	ltpFR	4	2	0	THESAURUS	1454	n/a	n/a	0	n/a	n/a	n/a	n/a	n/a
314543	REC_WORD	wordpools/wasnorm_wordpool_less_exclusions.txt	LTP331	ltpFR	4	2	0	MOOSE	915	n/a	n/a	1	n/a	n/a	n/a	n/a	n/a
318507	REC_WORD	wordpools/wasnorm_wordpool_less_exclusions.txt	LTP331	ltpFR	4	2	n/a	STREAM	1392	n/a	n/a	n/a	n/a	n/a	n/a	n/a	n/a
319490	REC_WORD	wordpools/wasnorm_wordpool_less_exclusions.txt	LTP331	ltpFR	4	2	1	FOUNTAIN	597	n/a	n/a	0	n/a	n/a	n/a	n/a	n/a
323319	REC_WORD	wordpools/wasnorm_wordpool_less_exclusions.txt	LTP331	ltpFR	4	2	1	HALL	677	n/a	n/a	0	n/a	n/a	n/a	n/a	n/a
325904	REC_WORD	wordpools/wasnorm_wordpool_less_exclusions.txt	LTP331	ltpFR	4	2	1	COLT	349	n/a	n/a	0	n/a	n/a	n/a	n/a	n/a
327613	REC_WORD	wordpools/wasnorm_wordpool_less_exclusions.txt	LTP331	ltpFR	4	2	1	LOG	841	n/a	n/a	1	n/a	n/a	n/a	n/a	n/a
329087	REC_WORD	wordpools/wasnorm_wordpool_less_exclusions.txt	LTP331	ltpFR	4	2	1	ASH	44	n/a	n/a	0	n/a	n/a	n/a	n/a	n/a
330616	REC_WORD	wordpools/wasnorm_wordpool_less_exclusions.txt	LTP331	ltpFR	4	2	0	PONY	1102	n/a	n/a	1	n/a	n/a	n/a	n/a	n/a
331659	REC_WORD	wordpools/wasnorm_wordpool_less_exclusions.txt	LTP331	ltpFR	4	2	0	EMERALD	528	n/a	n/a	1	n/a	n/a	n/a	n/a	n/a
333987	REC_WORD	wordpools/wasnorm_wordpool_less_exclusions.txt	LTP331	ltpFR	4	2	n/a	SHOELACE	1289	n/a	n/a	n/a	n/a	n/a	n/a	n/a	n/a
334929	REC_WORD	wordpools/wasnorm_wordpool_less_exclusions.txt	LTP331	ltpFR	4	2	1	MAT	877	n/a	n/a	0	n/a	n/a	n/a	n/a	n/a
358929	REC_WORD	wordpools/wasnorm_wordpool_less_exclusions.txt	LTP331	ltpFR	4	2	0	HERO	706	n/a	n/a	0	n/a	n/a	n/a	n/a	n/a
378162	WORD	wordpools/wasnorm_wordpool_less_exclusions.txt	LTP331	ltpFR	4	3	-1	HOSE	720	n/a	n/a	-1	1.0	1.0	1	upper	Verdana.ttf
382160	WORD	wordpools/wasnorm_wordpool_less_exclusions.txt	LTP331	ltpFR	4	3	-1	PIGEON	1065	n/a	n/a	-1	1.0	1.0	1	upper	Verdana.ttf
386342	WORD	wordpools/wasnorm_wordpool_less_exclusions.txt	LTP331	ltpFR	4	3	-1	SALESMAN	1225	n/a	n/a	-1	1.0	1.0	1	upper	Verdana.ttf
390173	WORD	wordpools/wasnorm_wordpool_less_exclusions.txt	LTP331	ltpFR	4	3	-1	CREW	406	n/a	n/a	-1	1.0	1.0	1	upper	Verdana.ttf
394238	WORD	wordpools/wasnorm_wordpool_less_exclusions.txt	LTP331	ltpFR	4	3	-1	DECK	443	n/a	n/a	-1	1.0	1.0	1	upper	Verdana.ttf
398336	WORD	wordpools/wasnorm_wordpool_less_exclusions.txt	LTP331	ltpFR	4	3	-1	RADIO	1157	n/a	n/a	-1	1.0	1.0	1	upper	Verdana.ttf
402517	WORD	wordpools/wasnorm_wordpool_less_exclusions.txt	LTP331	ltpFR	4	3	-1	CEILING	265	n/a	n/a	-1	1.0	1.0	1	upper	Verdana.ttf
406648	WORD	wordpools/wasnorm_wordpool_less_exclusions.txt	LTP331	ltpFR	4	3	-1	TORNADO	1485	n/a	n/a	-1	1.0	1.0	1	upper	Verdana.ttf
410563	WORD	wordpools/wasnorm_wordpool_less_exclusions.txt	LTP331	ltpFR	4	3	-1	ZOO	1637	n/a	n/a	-1	1.0	1.0	1	upper	Verdana.ttf
414578	WORD	wordpools/wasnorm_wordpool_less_exclusions.txt	LTP331	ltpFR	4	3	-1	STORE	1387	n/a	n/a	-1	1.0	1.0	1	upper	Verdana.ttf
418776	WORD	wordpools/wasnorm_wordpool_less_exclusions.txt	LTP331	ltpFR	4	3	-1	CART	250	n/a	n/a	-1	1.0	1.0	1	upper	Verdana.ttf
422957	WORD	wordpools/wasnorm_wordpool_less_exclusions.txt	LTP331	ltpFR	4	3	-1	TELEVISION	1447	n/a	n/a	-1	1.0	1.0	1	upper	Verdana.ttf
426873	WORD	wordpools/wasnorm_wordpool_less_exclusions.txt	LTP331	ltpFR	4	3	-1	MISSILE	900	n/a	n/a	-1	1.0	1.0	1	upper	Verdana.ttf
430837	WORD	wordpools/wasnorm_wordpool_less_exclusions.txt	LTP331	ltpFR	4	3	-1	CRATER	400	n/a	n/a	-1	1.0	1.0	1	upper	Verdana.ttf
434934	WORD	wordpools/wasnorm_wordpool_less_exclusions.txt	LTP331	ltpFR	4	3	-1	PORCUPINE	1107	n/a	n/a	-1	1.0	1.0	1	upper	Verdana.ttf
439132	WORD	wordpools/wasnorm_wordpool_less_exclusions.txt	LTP331	ltpFR	4	3	-1	POTTERY	1116	n/a	n/a	-1	1.0	1.0	1	upper	Verdana.ttf
444963	REC_START	n/a	LTP331	ltpFR	4	3	n/a	n/a	n/a	n/a	n/a	n/a	n/a	n/a	n/a	n/a	n/a
446117	REC_WORD	wordpools/wasnorm_wordpool_less_exclusions.txt	LTP331	ltpFR	4	3	-1	PORCUPINE	1107	n/a	n/a	-1	n/a	n/a	n/a	n/a	n/a
447175	REC_WORD	wordpools/wasnorm_wordpool_less_exclusions.txt	LTP331	ltpFR	4	3	-1	POTTERY	1116	n/a	n/a	-1	n/a	n/a	n/a	n/a	n/a
449511	REC_WORD	wordpools/wasnorm_wordpool_less_exclusions.txt	LTP331	ltpFR	4	3	-1	CRATER	400	n/a	n/a	-1	n/a	n/a	n/a	n/a	n/a
450305	REC_WORD	wordpools/wasnorm_wordpool_less_exclusions.txt	LTP331	ltpFR	4	3	-1	MISSILE	900	n/a	n/a	-1	n/a	n/a	n/a	n/a	n/a
452308	REC_WORD	wordpools/wasnorm_wordpool_less_exclusions.txt	LTP331	ltpFR	4	3	-1	TELEVISION	1447	n/a	n/a	-1	n/a	n/a	n/a	n/a	n/a
453382	REC_WORD	wordpools/wasnorm_wordpool_less_exclusions.txt	LTP331	ltpFR	4	3	-1	CART	250	n/a	n/a	-1	n/a	n/a	n/a	n/a	n/a
454055	REC_WORD	wordpools/wasnorm_wordpool_less_exclusions.txt	LTP331	ltpFR	4	3	-1	STORE	1387	n/a	n/a	-1	n/a	n/a	n/a	n/a	n/a
454789	REC_WORD	wordpools/wasnorm_wordpool_less_exclusions.txt	LTP331	ltpFR	4	3	-1	ZOO	1637	n/a	n/a	-1	n/a	n/a	n/a	n/a	n/a
455308	REC_WORD	wordpools/wasnorm_wordpool_less_exclusions.txt	LTP331	ltpFR	4	3	-1	CEILING	265	n/a	n/a	-1	n/a	n/a	n/a	n/a	n/a
455973	REC_WORD	wordpools/wasnorm_wordpool_less_exclusions.txt	LTP331	ltpFR	4	3	-1	TORNADO	1485	n/a	n/a	-1	n/a	n/a	n/a	n/a	n/a
458309	REC_WORD	wordpools/wasnorm_wordpool_less_exclusions.txt	LTP331	ltpFR	4	3	-1	RADIO	1157	n/a	n/a	-1	n/a	n/a	n/a	n/a	n/a
460583	REC_WORD	wordpools/wasnorm_wordpool_less_exclusions.txt	LTP331	ltpFR	4	3	-1	DECK	443	n/a	n/a	-1	n/a	n/a	n/a	n/a	n/a
461318	REC_WORD	wordpools/wasnorm_wordpool_less_exclusions.txt	LTP331	ltpFR	4	3	-1	CREW	406	n/a	n/a	-1	n/a	n/a	n/a	n/a	n/a
461892	REC_WORD	wordpools/wasnorm_wordpool_less_exclusions.txt	LTP331	ltpFR	4	3	-1	SALESMAN	1225	n/a	n/a	-1	n/a	n/a	n/a	n/a	n/a
463931	REC_WORD	wordpools/wasnorm_wordpool_less_exclusions.txt	LTP331	ltpFR	4	3	-1	PIGEON	1065	n/a	n/a	-1	n/a	n/a	n/a	n/a	n/a
464384	REC_WORD	wordpools/wasnorm_wordpool_less_exclusions.txt	LTP331	ltpFR	4	3	-1	HOSE	720	n/a	n/a	-1	n/a	n/a	n/a	n/a	n/a
575081	WORD	wordpools/wasnorm_wordpool_less_exclusions.txt	LTP331	ltpFR	4	4	-1	ROAD	1196	n/a	n/a	-1	1.0	1.0	1	upper	Verdana.ttf
579279	WORD	wordpools/wasnorm_wordpool_less_exclusions.txt	LTP331	ltpFR	4	4	-1	FLUTE	585	n/a	n/a	-1	1.0	1.0	1	upper	Verdana.ttf
583111	WORD	wordpools/wasnorm_wordpool_less_exclusions.txt	LTP331	ltpFR	4	4	-1	ENGINEER	536	n/a	n/a	-1	1.0	1.0	1	upper	Verdana.ttf
586975	WORD	wordpools/wasnorm_wordpool_less_exclusions.txt	LTP331	ltpFR	4	4	-1	SWAMP	1416	n/a	n/a	-1	1.0	1.0	1	upper	Verdana.ttf
591157	WORD	wordpools/wasnorm_wordpool_less_exclusions.txt	LTP331	ltpFR	4	4	-1	MINK	897	n/a	n/a	-1	1.0	1.0	1	upper	Verdana.ttf
595371	WORD	wordpools/wasnorm_wordpool_less_exclusions.txt	LTP331	ltpFR	4	4	-1	SPIT	1354	n/a	n/a	-1	1.0	1.0	1	upper	Verdana.ttf
599336	WORD	wordpools/wasnorm_wordpool_less_exclusions.txt	LTP331	ltpFR	4	4	-1	CHICKEN	297	n/a	n/a	-1	1.0	1.0	1	upper	Verdana.ttf
603417	WORD	wordpools/wasnorm_wordpool_less_exclusions.txt	LTP331	ltpFR	4	4	-1	GRILL	661	n/a	n/a	-1	1.0	1.0	1	upper	Verdana.ttf
607265	WORD	wordpools/wasnorm_wordpool_less_exclusions.txt	LTP331	ltpFR	4	4	-1	DOUGHNUT	490	n/a	n/a	-1	1.0	1.0	1	upper	Verdana.ttf
611347	WORD	wordpools/wasnorm_wordpool_less_exclusions.txt	LTP331	ltpFR	4	4	-1	RIB	1188	n/a	n/a	-1	1.0	1.0	1	upper	Verdana.ttf
615295	WORD	wordpools/wasnorm_wordpool_less_exclusions.txt	LTP331	ltpFR	4	4	-1	FATHER	554	n/a	n/a	-1	1.0	1.0	1	upper	Verdana.ttf
619459	WORD	wordpools/wasnorm_wordpool_less_exclusions.txt	LTP331	ltpFR	4	4	-1	SWEATER	1419	n/a	n/a	-1	1.0	1.0	1	upper	Verdana.ttf
623590	WORD	wordpools/wasnorm_wordpool_less_exclusions.txt	LTP331	ltpFR	4	4	-1	CACTUS	215	n/a	n/a	-1	1.0	1.0	1	upper	Verdana.ttf
627455	WORD	wordpools/wasnorm_wordpool_less_exclusions.txt	LTP331	ltpFR	4	4	-1	OFFICER	973	n/a	n/a	-1	1.0	1.0	1	upper	Verdana.ttf
631353	WORD	wordpools/wasnorm_wordpool_less_exclusions.txt	LTP331	ltpFR	4	4	-1	SIREN	1310	n/a	n/a	-1	1.0	1.0	1	upper	Verdana.ttf
635185	WORD	wordpools/wasnorm_wordpool_less_exclusions.txt	LTP331	ltpFR	4	4	-1	TONGUE	1479	n/a	n/a	-1	1.0	1.0	1	upper	Verdana.ttf
640900	REC_START	n/a	LTP331	ltpFR	4	4	n/a	n/a	n/a	n/a	n/a	n/a	n/a	n/a	n/a	n/a	n/a
657110	REC_WORD	wordpools/wasnorm_wordpool_less_exclusions.txt	LTP331	ltpFR	4	4	-1	ROAD	1196	n/a	n/a	-1	n/a	n/a	n/a	n/a	n/a
658332	REC_WORD	wordpools/wasnorm_wordpool_less_exclusions.txt	LTP331	ltpFR	4	4	-1	SWAMP	1416	n/a	n/a	-1	n/a	n/a	n/a	n/a	n/a
660143	REC_WORD	wordpools/wasnorm_wordpool_less_exclusions.txt	LTP331	ltpFR	4	4	-1	ENGINEER	536	n/a	n/a	-1	n/a	n/a	n/a	n/a	n/a
660969	REC_WORD	wordpools/wasnorm_wordpool_less_exclusions.txt	LTP331	ltpFR	4	4	-1	FLUTE	585	n/a	n/a	-1	n/a	n/a	n/a	n/a	n/a
662296	REC_WORD	wordpools/wasnorm_wordpool_less_exclusions.txt	LTP331	ltpFR	4	4	-1	MINK	897	n/a	n/a	-1	n/a	n/a	n/a	n/a	n/a
663723	REC_WORD	wordpools/wasnorm_wordpool_less_exclusions.txt	LTP331	ltpFR	4	4	-1	GRILL	661	n/a	n/a	-1	n/a	n/a	n/a	n/a	n/a
664630	REC_WORD	wordpools/wasnorm_wordpool_less_exclusions.txt	LTP331	ltpFR	4	4	-1	CHICKEN	297	n/a	n/a	-1	n/a	n/a	n/a	n/a	n/a
665777	REC_WORD	wordpools/wasnorm_wordpool_less_exclusions.txt	LTP331	ltpFR	4	4	-1	RIB	1188	n/a	n/a	-1	n/a	n/a	n/a	n/a	n/a
668019	REC_WORD	wordpools/wasnorm_wordpool_less_exclusions.txt	LTP331	ltpFR	4	4	-1	FATHER	554	n/a	n/a	-1	n/a	n/a	n/a	n/a	n/a
668929	REC_WORD	wordpools/wasnorm_wordpool_less_exclusions.txt	LTP331	ltpFR	4	4	-1	SWEATER	1419	n/a	n/a	-1	n/a	n/a	n/a	n/a	n/a
671287	REC_WORD	wordpools/wasnorm_wordpool_less_exclusions.txt	LTP331	ltpFR	4	4	-1	SIREN	1310	n/a	n/a	-1	n/a	n/a	n/a	n/a	n/a
672863	REC_WORD	wordpools/wasnorm_wordpool_less_exclusions.txt	LTP331	ltpFR	4	4	n/a	COP	376	n/a	n/a	n/a	n/a	n/a	n/a	n/a	n/a
674481	REC_WORD	wordpools/wasnorm_wordpool_less_exclusions.txt	LTP331	ltpFR	4	4	-1	DOUGHNUT	490	n/a	n/a	-1	n/a	n/a	n/a	n/a	n/a
675362	REC_WORD	wordpools/wasnorm_wordpool_less_exclusions.txt	LTP331	ltpFR	4	4	-1	TONGUE	1479	n/a	n/a	-1	n/a	n/a	n/a	n/a	n/a
741149	WORD	wordpools/wasnorm_wordpool_less_exclusions.txt	LTP331	ltpFR	4	5	1	JOINT	758	n/a	n/a	0	0.57763671875	0.412841796875	1	lower	amplitud.ttf
745080	WORD	wordpools/wasnorm_wordpool_less_exclusions.txt	LTP331	ltpFR	4	5	1	SOCKET	1340	n/a	n/a	0	0.57763671875	0.412841796875	1	lower	amplitud.ttf
749111	WORD	wordpools/wasnorm_wordpool_less_exclusions.txt	LTP331	ltpFR	4	5	1	WIRE	1616	n/a	n/a	0	0.57763671875	0.412841796875	1	lower	amplitud.ttf
753109	WORD	wordpools/wasnorm_wordpool_less_exclusions.txt	LTP331	ltpFR	4	5	0	BALLERINA	74	n/a	n/a	1	0.422607421875	0.5869140625	0	upper	zerothre.ttf
757124	WORD	wordpools/wasnorm_wordpool_less_exclusions.txt	LTP331	ltpFR	4	5	0	WRIST	1626	n/a	n/a	0	0.422607421875	0.5869140625	0	upper	zerothre.ttf
761005	WORD	wordpools/wasnorm_wordpool_less_exclusions.txt	LTP331	ltpFR	4	5	0	TRAY	1498	n/a	n/a	0	0.422607421875	0.5869140625	0	upper	zerothre.ttf
765120	WORD	wordpools/wasnorm_wordpool_less_exclusions.txt	LTP331	ltpFR	4	5	0	SNORKEL	1336	n/a	n/a	0	0.422607421875	0.5869140625	0	upper	zerothre.ttf
769285	WORD	wordpools/wasnorm_wordpool_less_exclusions.txt	LTP331	ltpFR	4	5	1	FLEA	577	n/a	n/a	0	0.57763671875	0.412841796875	1	lower	amplitud.ttf
773133	WORD	wordpools/wasnorm_wordpool_less_exclusions.txt	LTP331	ltpFR	4	5	1	OVEN	991	n/a	n/a	0	0.57763671875	0.412841796875	1	lower	amplitud.ttf
777297	WORD	wordpools/wasnorm_wordpool_less_exclusions.txt	LTP331	ltpFR	4	5	0	IRON	744	n/a	n/a	1	0.422607421875	0.5869140625	0	upper	zerothre.ttf
781329	WORD	wordpools/wasnorm_wordpool_less_exclusions.txt	LTP331	ltpFR	4	5	0	COLONEL	348	n/a	n/a	1	0.422607421875	0.5869140625	0	upper	zerothre.ttf
785393	WORD	wordpools/wasnorm_wordpool_less_exclusions.txt	LTP331	ltpFR	4	5	0	FEATHER	557	n/a	n/a	0	0.422607421875	0.5869140625	0	upper	zerothre.ttf
789275	WORD	wordpools/wasnorm_wordpool_less_exclusions.txt	LTP331	ltpFR	4	5	0	ACROBAT	4	n/a	n/a	1	0.422607421875	0.5869140625	0	upper	zerothre.ttf
793173	WORD	wordpools/wasnorm_wordpool_less_exclusions.txt	LTP331	ltpFR	4	5	1	GYMNAST	675	n/a	n/a	1	0.57763671875	0.412841796875	1	lower	amplitud.ttf
797154	WORD	wordpools/wasnorm_wordpool_less_exclusions.txt	LTP331	ltpFR	4	5	1	HOUND	724	n/a	n/a	1	0.57763671875	0.412841796875	1	lower	amplitud.ttf
801037	WORD	wordpools/wasnorm_wordpool_less_exclusions.txt	LTP331	ltpFR	4	5	1	MUG	930	n/a	n/a	0	0.57763671875	0.412841796875	1	lower	amplitud.ttf
806869	REC_START	n/a	LTP331	ltpFR	4	5	n/a	n/a	n/a	n/a	n/a	n/a	n/a	n/a	n/a	n/a	n/a
821681	REC_WORD	wordpools/wasnorm_wordpool_less_exclusions.txt	LTP331	ltpFR	4	5	1	JOINT	758	n/a	n/a	0	n/a	n/a	n/a	n/a	n/a
822250	REC_WORD	wordpools/wasnorm_wordpool_less_exclusions.txt	LTP331	ltpFR	4	5	1	WIRE	1616	n/a	n/a	0	n/a	n/a	n/a	n/a	n/a
822689	REC_WORD	wordpools/wasnorm_wordpool_less_exclusions.txt	LTP331	ltpFR	4	5	1	SOCKET	1340	n/a	n/a	0	n/a	n/a	n/a	n/a	n/a
823430	REC_WORD	wordpools/wasnorm_wordpool_less_exclusions.txt	LTP331	ltpFR	4	5	0	BALLERINA	74	n/a	n/a	1	n/a	n/a	n/a	n/a	n/a
824106	REC_WORD	wordpools/wasnorm_wordpool_less_exclusions.txt	LTP331	ltpFR	4	5	0	WRIST	1626	n/a	n/a	0	n/a	n/a	n/a	n/a	n/a
825563	REC_WORD	wordpools/wasnorm_wordpool_less_exclusions.txt	LTP331	ltpFR	4	5	0	TRAY	1498	n/a	n/a	0	n/a	n/a	n/a	n/a	n/a
836157	REC_WORD	wordpools/wasnorm_wordpool_less_exclusions.txt	LTP331	ltpFR	4	5	0	ACROBAT	4	n/a	n/a	1	n/a	n/a	n/a	n/a	n/a
836907	REC_WORD	wordpools/wasnorm_wordpool_less_exclusions.txt	LTP331	ltpFR	4	5	1	GYMNAST	675	n/a	n/a	1	n/a	n/a	n/a	n/a	n/a
837566	REC_WORD	wordpools/wasnorm_wordpool_less_exclusions.txt	LTP331	ltpFR	4	5	1	MUG	930	n/a	n/a	0	n/a	n/a	n/a	n/a	n/a
838528	REC_WORD	wordpools/wasnorm_wordpool_less_exclusions.txt	LTP331	ltpFR	4	5	0	COLONEL	348	n/a	n/a	1	n/a	n/a	n/a	n/a	n/a
839446	REC_WORD	wordpools/wasnorm_wordpool_less_exclusions.txt	LTP331	ltpFR	4	5	0	IRON	744	n/a	n/a	1	n/a	n/a	n/a	n/a	n/a
841032	REC_WORD	wordpools/wasnorm_wordpool_less_exclusions.txt	LTP331	ltpFR	4	5	1	OVEN	991	n/a	n/a	0	n/a	n/a	n/a	n/a	n/a
841863	REC_WORD	wordpools/wasnorm_wordpool_less_exclusions.txt	LTP331	ltpFR	4	5	1	HOUND	724	n/a	n/a	1	n/a	n/a	n/a	n/a	n/a
842671	REC_WORD	wordpools/wasnorm_wordpool_less_exclusions.txt	LTP331	ltpFR	4	5	0	FEATHER	557	n/a	n/a	0	n/a	n/a	n/a	n/a	n/a
905402	WORD	wordpools/wasnorm_wordpool_less_exclusions.txt	LTP331	ltpFR	4	6	0	MOVIE	927	n/a	n/a	1	0.422607421875	0.5869140625	0	upper	zerothre.ttf
909366	WORD	wordpools/wasnorm_wordpool_less_exclusions.txt	LTP331	ltpFR	4	6	0	VIDEO	1564	n/a	n/a	0	0.422607421875	0.5869140625	0	upper	zerothre.ttf
913431	WORD	wordpools/wasnorm_wordpool_less_exclusions.txt	LTP331	ltpFR	4	6	0	TEAM	1441	n/a	n/a	1	0.422607421875	0.5869140625	0	upper	zerothre.ttf
917379	WORD	wordpools/wasnorm_wordpool_less_exclusions.txt	LTP331	ltpFR	4	6	0	MATCH	878	n/a	n/a	1	0.422607421875	0.5869140625	0	upper	zerothre.ttf
921577	WORD	wordpools/wasnorm_wordpool_less_exclusions.txt	LTP331	ltpFR	4	6	0	ISLAND	745	n/a	n/a	1	0.422607421875	0.5869140625	0	upper	zerothre.ttf
925442	WORD	wordpools/wasnorm_wordpool_less_exclusions.txt	LTP331	ltpFR	4	6	0	GENERAL	630	n/a	n/a	1	0.422607421875	0.5869140625	0	upper	zerothre.ttf
929556	WORD	wordpools/wasnorm_wordpool_less_exclusions.txt	LTP331	ltpFR	4	6	0	NAIL	936	n/a	n/a	0	0.422607421875	0.5869140625	0	upper	zerothre.ttf
933504	WORD	wordpools/wasnorm_wordpool_less_exclusions.txt	LTP331	ltpFR	4	6	0	FINGER	567	n/a	n/a	0	0.422607421875	0.5869140625	0	upper	zerothre.ttf
937569	WORD	wordpools/wasnorm_wordpool_less_exclusions.txt	LTP331	ltpFR	4	6	0	SLEIGH	1325	n/a	n/a	1	0.422607421875	0.5869140625	0	upper	zerothre.ttf
941534	WORD	wordpools/wasnorm_wordpool_less_exclusions.txt	LTP331	ltpFR	4	6	0	POPCORN	1104	n/a	n/a	1	0.422607421875	0.5869140625	0	upper	zerothre.ttf
945398	WORD	wordpools/wasnorm_wordpool_less_exclusions.txt	LTP331	ltpFR	4	6	0	DOLL	481	n/a	n/a	0	0.422607421875	0.5869140625	0	upper	zerothre.ttf
949396	WORD	wordpools/wasnorm_wordpool_less_exclusions.txt	LTP331	ltpFR	4	6	0	PEARL	1034	n/a	n/a	1	0.422607421875	0.5869140625	0	upper	zerothre.ttf
953394	WORD	wordpools/wasnorm_wordpool_less_exclusions.txt	LTP331	ltpFR	4	6	0	BACK	65	n/a	n/a	0	0.422607421875	0.5869140625	0	upper	zerothre.ttf
957576	WORD	wordpools/wasnorm_wordpool_less_exclusions.txt	LTP331	ltpFR	4	6	0	ARMY	39	n/a	n/a	1	0.422607421875	0.5869140625	0	upper	zerothre.ttf
961574	WORD	wordpools/wasnorm_wordpool_less_exclusions.txt	LTP331	ltpFR	4	6	0	CAFE	216	n/a	n/a	1	0.422607421875	0.5869140625	0	upper	zerothre.ttf
965638	WORD	wordpools/wasnorm_wordpool_less_exclusions.txt	LTP331	ltpFR	4	6	0	MOAT	903	n/a	n/a	1	0.422607421875	0.5869140625	0	upper	zerothre.ttf
971486	REC_START	n/a	LTP331	ltpFR	4	6	n/a	n/a	n/a	n/a	n/a	n/a	n/a	n/a	n/a	n/a	n/a
971718	REC_WORD	wordpools/wasnorm_wordpool_less_exclusions.txt	LTP331	ltpFR	4	6	0	PEARL	1034	n/a	n/a	1	n/a	n/a	n/a	n/a	n/a
972405	REC_WORD	wordpools/wasnorm_wordpool_less_exclusions.txt	LTP331	ltpFR	4	6	0	CAFE	216	n/a	n/a	1	n/a	n/a	n/a	n/a	n/a
972994	REC_WORD	wordpools/wasnorm_wordpool_less_exclusions.txt	LTP331	ltpFR	4	6	0	MOAT	903	n/a	n/a	1	n/a	n/a	n/a	n/a	n/a
994063	REC_WORD	wordpools/wasnorm_wordpool_less_exclusions.txt	LTP331	ltpFR	4	6	0	MOVIE	927	n/a	n/a	1	n/a	n/a	n/a	n/a	n/a
994801	REC_WORD	wordpools/wasnorm_wordpool_less_exclusions.txt	LTP331	ltpFR	4	6	0	VIDEO	1564	n/a	n/a	0	n/a	n/a	n/a	n/a	n/a
996459	REC_WORD	wordpools/wasnorm_wordpool_less_exclusions.txt	LTP331	ltpFR	4	6	0	TEAM	1441	n/a	n/a	1	n/a	n/a	n/a	n/a	n/a
997140	REC_WORD	wordpools/wasnorm_wordpool_less_exclusions.txt	LTP331	ltpFR	4	6	0	MATCH	878	n/a	n/a	1	n/a	n/a	n/a	n/a	n/a
999985	REC_WORD	wordpools/wasnorm_wordpool_less_exclusions.txt	LTP331	ltpFR	4	6	0	ISLAND	745	n/a	n/a	1	n/a	n/a	n/a	n/a	n/a
1005842	REC_WORD	wordpools/wasnorm_wordpool_less_exclusions.txt	LTP331	ltpFR	4	6	0	POPCORN	1104	n/a	n/a	1	n/a	n/a	n/a	n/a	n/a
1007893	REC_WORD	wordpools/wasnorm_wordpool_less_exclusions.txt	LTP331	ltpFR	4	6	0	DOLL	481	n/a	n/a	0	n/a	n/a	n/a	n/a	n/a
1009276	REC_WORD	wordpools/wasnorm_wordpool_less_exclusions.txt	LTP331	ltpFR	4	6	0	PEARL	1034	n/a	n/a	1	n/a	n/a	n/a	n/a	n/a
1009837	REC_WORD	wordpools/wasnorm_wordpool_less_exclusions.txt	LTP331	ltpFR	4	6	0	CAFE	216	n/a	n/a	1	n/a	n/a	n/a	n/a	n/a
1010734	REC_WORD	wordpools/wasnorm_wordpool_less_exclusions.txt	LTP331	ltpFR	4	6	0	GENERAL	630	n/a	n/a	1	n/a	n/a	n/a	n/a	n/a
1013499	REC_WORD	wordpools/wasnorm_wordpool_less_exclusions.txt	LTP331	ltpFR	4	6	0	NAIL	936	n/a	n/a	0	n/a	n/a	n/a	n/a	n/a
1015646	REC_WORD	wordpools/wasnorm_wordpool_less_exclusions.txt	LTP331	ltpFR	4	6	0	ARMY	39	n/a	n/a	1	n/a	n/a	n/a	n/a	n/a
1058876	WORD	wordpools/wasnorm_wordpool_less_exclusions.txt	LTP331	ltpFR	4	7	1	WICK	1607	n/a	n/a	0	0.57763671875	0.412841796875	1	lower	amplitud.ttf
1063023	WORD	wordpools/wasnorm_wordpool_less_exclusions.txt	LTP331	ltpFR	4	7	1	UNCLE	1536	n/a	n/a	1	0.57763671875	0.412841796875	1	lower	amplitud.ttf
1066955	WORD	wordpools/wasnorm_wordpool_less_exclusions.txt	LTP331	ltpFR	4	7	1	TUNNEL	1519	n/a	n/a	0	0.57763671875	0.412841796875	1	lower	amplitud.ttf
1071003	WORD	wordpools/wasnorm_wordpool_less_exclusions.txt	LTP331	ltpFR	4	7	1	TOWN	1491	n/a	n/a	1	0.57763671875	0.412841796875	1	lower	amplitud.ttf
1074868	WORD	wordpools/wasnorm_wordpool_less_exclusions.txt	LTP331	ltpFR	4	7	1	COUSIN	392	n/a	n/a	1	0.57763671875	0.412841796875	1	lower	amplitud.ttf
1078800	WORD	wordpools/wasnorm_wordpool_less_exclusions.txt	LTP331	ltpFR	4	7	1	FELLOW	558	n/a	n/a	0	0.57763671875	0.412841796875	1	lower	amplitud.ttf
1082748	WORD	wordpools/wasnorm_wordpool_less_exclusions.txt	LTP331	ltpFR	4	7	1	SWITCH	1422	n/a	n/a	1	0.57763671875	0.412841796875	1	lower	amplitud.ttf
1086678	WORD	wordpools/wasnorm_wordpool_less_exclusions.txt	LTP331	ltpFR	4	7	1	TUBE	1516	n/a	n/a	0	0.57763671875	0.412841796875	1	lower	amplitud.ttf
1090643	WORD	wordpools/wasnorm_wordpool_less_exclusions.txt	LTP331	ltpFR	4	7	1	CABLE	213	n/a	n/a	0	0.57763671875	0.412841796875	1	lower	amplitud.ttf
1094674	WORD	wordpools/wasnorm_wordpool_less_exclusions.txt	LTP331	ltpFR	4	7	1	SKIRT	1319	n/a	n/a	1	0.57763671875	0.412841796875	1	lower	amplitud.ttf
1098790	WORD	wordpools/wasnorm_wordpool_less_exclusions.txt	LTP331	ltpFR	4	7	1	TUXEDO	1525	n/a	n/a	0	0.57763671875	0.412841796875	1	lower	amplitud.ttf
1102987	WORD	wordpools/wasnorm_wordpool_less_exclusions.txt	LTP331	ltpFR	4	7	1	FEAST	556	n/a	n/a	0	0.57763671875	0.412841796875	1	lower	amplitud.ttf
1106935	WORD	wordpools/wasnorm_wordpool_less_exclusions.txt	LTP331	ltpFR	4	7	1	SISTER	1312	n/a	n/a	1	0.57763671875	0.412841796875	1	lower	amplitud.ttf
1111016	WORD	wordpools/wasnorm_wordpool_less_exclusions.txt	LTP331	ltpFR	4	7	1	NOTE	958	n/a	n/a	0	0.57763671875	0.412841796875	1	lower	amplitud.ttf
1114947	WORD	wordpools/wasnorm_wordpool_less_exclusions.txt	LTP331	ltpFR	4	7	1	PAPER	1011	n/a	n/a	0	0.57763671875	0.412841796875	1	lower	amplitud.ttf
1119045	WORD	wordpools/wasnorm_wordpool_less_exclusions.txt	LTP331	ltpFR	4	7	1	VET	1560	n/a	n/a	1	0.57763671875	0.412841796875	1	lower	amplitud.ttf
1124894	REC_START	n/a	LTP331	ltpFR	4	7	n/a	n/a	n/a	n/a	n/a	n/a	n/a	n/a	n/a	n/a	n/a
1128305	REC_WORD	wordpools/wasnorm_wordpool_less_exclusions.txt	LTP331	ltpFR	4	7	1	WICK	1607	n/a	n/a	0	n/a	n/a	n/a	n/a	n/a
1131994	REC_WORD	wordpools/wasnorm_wordpool_less_exclusions.txt	LTP331	ltpFR	4	7	1	UNCLE	1536	n/a	n/a	1	n/a	n/a	n/a	n/a	n/a
1132684	REC_WORD	wordpools/wasnorm_wordpool_less_exclusions.txt	LTP331	ltpFR	4	7	1	COUSIN	392	n/a	n/a	1	n/a	n/a	n/a	n/a	n/a
1133364	REC_WORD	wordpools/wasnorm_wordpool_less_exclusions.txt	LTP331	ltpFR	4	7	1	FELLOW	558	n/a	n/a	0	n/a	n/a	n/a	n/a	n/a
1134093	REC_WORD	wordpools/wasnorm_wordpool_less_exclusions.txt	LTP331	ltpFR	4	7	1	TUXEDO	1525	n/a	n/a	0	n/a	n/a	n/a	n/a	n/a
1134714	REC_WORD	wordpools/wasnorm_wordpool_less_exclusions.txt	LTP331	ltpFR	4	7	1	SKIRT	1319	n/a	n/a	1	n/a	n/a	n/a	n/a	n/a
1136305	REC_WORD	wordpools/wasnorm_wordpool_less_exclusions.txt	LTP331	ltpFR	4	7	1	TUBE	1516	n/a	n/a	0	n/a	n/a	n/a	n/a	n/a
1136902	REC_WORD	wordpools/wasnorm_wordpool_less_exclusions.txt	LTP331	ltpFR	4	7	1	SWITCH	1422	n/a	n/a	1	n/a	n/a	n/a	n/a	n/a
1139294	REC_WORD	wordpools/wasnorm_wordpool_less_exclusions.txt	LTP331	ltpFR	4	7	1	SISTER	1312	n/a	n/a	1	n/a	n/a	n/a	n/a	n/a
1139947	REC_WORD	wordpools/wasnorm_wordpool_less_exclusions.txt	LTP331	ltpFR	4	7	1	NOTE	958	n/a	n/a	0	n/a	n/a	n/a	n/a	n/a
1140582	REC_WORD	wordpools/wasnorm_wordpool_less_exclusions.txt	LTP331	ltpFR	4	7	1	PAPER	1011	n/a	n/a	0	n/a	n/a	n/a	n/a	n/a
1141651	REC_WORD	wordpools/wasnorm_wordpool_less_exclusions.txt	LTP331	ltpFR	4	7	1	VET	1560	n/a	n/a	1	n/a	n/a	n/a	n/a	n/a
1144204	REC_WORD	wordpools/wasnorm_wordpool_less_exclusions.txt	LTP331	ltpFR	4	7	1	FEAST	556	n/a	n/a	0	n/a	n/a	n/a	n/a	n/a
1174334	REC_WORD	wordpools/wasnorm_wordpool_less_exclusions.txt	LTP331	ltpFR	4	7	1	TUNNEL	1519	n/a	n/a	0	n/a	n/a	n/a	n/a	n/a
1175545	REC_WORD	wordpools/wasnorm_wordpool_less_exclusions.txt	LTP331	ltpFR	4	7	1	TOWN	1491	n/a	n/a	1	n/a	n/a	n/a	n/a	n/a
1207118	WORD	wordpools/wasnorm_wordpool_less_exclusions.txt	LTP331	ltpFR	4	8	1	BONE	148	n/a	n/a	0	0.57763671875	0.412841796875	1	lower	amplitud.ttf
1210983	WORD	wordpools/wasnorm_wordpool_less_exclusions.txt	LTP331	ltpFR	4	8	1	MARKET	871	n/a	n/a	0	0.57763671875	0.412841796875	1	lower	amplitud.ttf
1215014	WORD	wordpools/wasnorm_wordpool_less_exclusions.txt	LTP331	ltpFR	4	8	1	SPICE	1350	n/a	n/a	0	0.57763671875	0.412841796875	1	lower	amplitud.ttf
1218897	WORD	wordpools/wasnorm_wordpool_less_exclusions.txt	LTP331	ltpFR	4	8	1	BOSS	152	n/a	n/a	1	0.57763671875	0.412841796875	1	lower	amplitud.ttf
1222845	WORD	wordpools/wasnorm_wordpool_less_exclusions.txt	LTP331	ltpFR	4	8	1	BUN	197	n/a	n/a	0	0.57763671875	0.412841796875	1	lower	amplitud.ttf
1226860	WORD	wordpools/wasnorm_wordpool_less_exclusions.txt	LTP331	ltpFR	4	8	1	MAYONNAISE	880	n/a	n/a	0	0.57763671875	0.412841796875	1	lower	amplitud.ttf
1230690	WORD	wordpools/wasnorm_wordpool_less_exclusions.txt	LTP331	ltpFR	4	8	1	CARAVAN	242	n/a	n/a	0	0.57763671875	0.412841796875	1	lower	amplitud.ttf
1234839	WORD	wordpools/wasnorm_wordpool_less_exclusions.txt	LTP331	ltpFR	4	8	1	PERSONNEL	1053	n/a	n/a	1	0.57763671875	0.412841796875	1	lower	amplitud.ttf
1238770	WORD	wordpools/wasnorm_wordpool_less_exclusions.txt	LTP331	ltpFR	4	8	1	CELLO	268	n/a	n/a	0	0.57763671875	0.412841796875	1	lower	amplitud.ttf
1242617	WORD	wordpools/wasnorm_wordpool_less_exclusions.txt	LTP331	ltpFR	4	8	1	FOLLOWER	589	n/a	n/a	0	0.57763671875	0.412841796875	1	lower	amplitud.ttf
1246766	WORD	wordpools/wasnorm_wordpool_less_exclusions.txt	LTP331	ltpFR	4	8	1	BOTTLE	153	n/a	n/a	0	0.57763671875	0.412841796875	1	lower	amplitud.ttf
1250613	WORD	wordpools/wasnorm_wordpool_less_exclusions.txt	LTP331	ltpFR	4	8	1	CHAMPAGNE	278	n/a	n/a	0	0.57763671875	0.412841796875	1	lower	amplitud.ttf
1254645	WORD	wordpools/wasnorm_wordpool_less_exclusions.txt	LTP331	ltpFR	4	8	1	POLITICIAN	1099	n/a	n/a	1	0.57763671875	0.412841796875	1	lower	amplitud.ttf
1258744	WORD	wordpools/wasnorm_wordpool_less_exclusions.txt	LTP331	ltpFR	4	8	1	DANDRUFF	439	n/a	n/a	0	0.57763671875	0.412841796875	1	lower	amplitud.ttf
1262775	WORD	wordpools/wasnorm_wordpool_less_exclusions.txt	LTP331	ltpFR	4	8	1	CONCERT	360	n/a	n/a	0	0.57763671875	0.412841796875	1	lower	amplitud.ttf
1266905	WORD	wordpools/wasnorm_wordpool_less_exclusions.txt	LTP331	ltpFR	4	8	1	LEADER	807	n/a	n/a	0	0.57763671875	0.412841796875	1	lower	amplitud.ttf
1272653	REC_START	n/a	LTP331	ltpFR	4	8	n/a	n/a	n/a	n/a	n/a	n/a	n/a	n/a	n/a	n/a	n/a
1282773	REC_WORD	wordpools/wasnorm_wordpool_less_exclusions.txt	LTP331	ltpFR	4	8	1	BONE	148	n/a	n/a	0	n/a	n/a	n/a	n/a	n/a
1284606	REC_WORD	wordpools/wasnorm_wordpool_less_exclusions.txt	LTP331	ltpFR	4	8	1	MARKET	871	n/a	n/a	0	n/a	n/a	n/a	n/a	n/a
1285912	REC_WORD	wordpools/wasnorm_wordpool_less_exclusions.txt	LTP331	ltpFR	4	8	1	SPICE	1350	n/a	n/a	0	n/a	n/a	n/a	n/a	n/a
1292173	REC_WORD	wordpools/wasnorm_wordpool_less_exclusions.txt	LTP331	ltpFR	4	8	1	BOSS	152	n/a	n/a	1	n/a	n/a	n/a	n/a	n/a
1293801	REC_WORD	wordpools/wasnorm_wordpool_less_exclusions.txt	LTP331	ltpFR	4	8	1	BUN	197	n/a	n/a	0	n/a	n/a	n/a	n/a	n/a
1296418	REC_WORD	wordpools/wasnorm_wordpool_less_exclusions.txt	LTP331	ltpFR	4	8	1	MAYONNAISE	880	n/a	n/a	0	n/a	n/a	n/a	n/a	n/a
1299089	REC_WORD	wordpools/wasnorm_wordpool_less_exclusions.txt	LTP331	ltpFR	4	8	1	CHAMPAGNE	278	n/a	n/a	0	n/a	n/a	n/a	n/a	n/a
1300834	REC_WORD	wordpools/wasnorm_wordpool_less_exclusions.txt	LTP331	ltpFR	4	8	1	BOTTLE	153	n/a	n/a	0	n/a	n/a	n/a	n/a	n/a
1304327	REC_WORD	wordpools/wasnorm_wordpool_less_exclusions.txt	LTP331	ltpFR	4	8	1	FOLLOWER	589	n/a	n/a	0	n/a	n/a	n/a	n/a	n/a
1305274	REC_WORD	wordpools/wasnorm_wordpool_less_exclusions.txt	LTP331	ltpFR	4	8	1	CELLO	268	n/a	n/a	0	n/a	n/a	n/a	n/a	n/a
1306103	REC_WORD	wordpools/wasnorm_wordpool_less_exclusions.txt	LTP331	ltpFR	4	8	1	POLITICIAN	1099	n/a	n/a	1	n/a	n/a	n/a	n/a	n/a
1307671	REC_WORD	wordpools/wasnorm_wordpool_less_exclusions.txt	LTP331	ltpFR	4	8	1	DANDRUFF	439	n/a	n/a	0	n/a	n/a	n/a	n/a	n/a
1308703	REC_WORD	wordpools/wasnorm_wordpool_less_exclusions.txt	LTP331	ltpFR	4	8	1	CONCERT	360	n/a	n/a	0	n/a	n/a	n/a	n/a	n/a
1309347	REC_WORD	wordpools/wasnorm_wordpool_less_exclusions.txt	LTP331	ltpFR	4	8	1	LEADER	807	n/a	n/a	0	n/a	n/a	n/a	n/a	n/a
1322189	REC_WORD	wordpools/wasnorm_wordpool_less_exclusions.txt	LTP331	ltpFR	4	8	1	PERSONNEL	1053	n/a	n/a	1	n/a	n/a	n/a	n/a	n/a
1323708	REC_WORD	wordpools/wasnorm_wordpool_less_exclusions.txt	LTP331	ltpFR	4	8	1	CARAVAN	242	n/a	n/a	0	n/a	n/a	n/a	n/a	n/a
1348248	REST_REWET	n/a	LTP331	ltpFR	4	8	n/a	n/a	n/a	n/a	n/a	n/a	n/a	n/a	n/a	n/a	n/a
1755046	WORD	wordpools/wasnorm_wordpool_less_exclusions.txt	LTP331	ltpFR	4	9	0	TACK	1428	n/a	n/a	0	0.422607421875	0.5869140625	0	upper	zerothre.ttf
1759227	WORD	wordpools/wasnorm_wordpool_less_exclusions.txt	LTP331	ltpFR	4	9	0	PRINCESS	1125	n/a	n/a	1	0.422607421875	0.5869140625	0	upper	zerothre.ttf
1763059	WORD	wordpools/wasnorm_wordpool_less_exclusions.txt	LTP331	ltpFR	4	9	0	KEEPER	769	n/a	n/a	1	0.422607421875	0.5869140625	0	upper	zerothre.ttf
1767140	WORD	wordpools/wasnorm_wordpool_less_exclusions.txt	LTP331	ltpFR	4	9	0	CRAB	397	n/a	n/a	1	0.422607421875	0.5869140625	0	upper	zerothre.ttf
1771221	WORD	wordpools/wasnorm_wordpool_less_exclusions.txt	LTP331	ltpFR	4	9	1	PANTHER	1009	n/a	n/a	1	0.57763671875	0.412841796875	1	lower	amplitud.ttf
1775219	WORD	wordpools/wasnorm_wordpool_less_exclusions.txt	LTP331	ltpFR	4	9	1	ATTIC	56	n/a	n/a	0	0.57763671875	0.412841796875	1	lower	amplitud.ttf
1779101	WORD	wordpools/wasnorm_wordpool_less_exclusions.txt	LTP331	ltpFR	4	9	1	BASEMENT	94	n/a	n/a	0	0.57763671875	0.412841796875	1	lower	amplitud.ttf
1782949	WORD	wordpools/wasnorm_wordpool_less_exclusions.txt	LTP331	ltpFR	4	9	0	CONVENT	370	n/a	n/a	1	0.422607421875	0.5869140625	0	upper	zerothre.ttf
1786947	WORD	wordpools/wasnorm_wordpool_less_exclusions.txt	LTP331	ltpFR	4	9	0	SHRINE	1298	n/a	n/a	1	0.422607421875	0.5869140625	0	upper	zerothre.ttf
1790978	WORD	wordpools/wasnorm_wordpool_less_exclusions.txt	LTP331	ltpFR	4	9	0	MOTHER	921	n/a	n/a	1	0.422607421875	0.5869140625	0	upper	zerothre.ttf
1795143	WORD	wordpools/wasnorm_wordpool_less_exclusions.txt	LTP331	ltpFR	4	9	0	BROOK	177	n/a	n/a	1	0.422607421875	0.5869140625	0	upper	zerothre.ttf
1799124	WORD	wordpools/wasnorm_wordpool_less_exclusions.txt	LTP331	ltpFR	4	9	1	UTENSIL	1542	n/a	n/a	0	0.57763671875	0.412841796875	1	lower	amplitud.ttf
1803272	WORD	wordpools/wasnorm_wordpool_less_exclusions.txt	LTP331	ltpFR	4	9	1	PACKAGE	997	n/a	n/a	0	0.57763671875	0.412841796875	1	lower	amplitud.ttf
1807154	WORD	wordpools/wasnorm_wordpool_less_exclusions.txt	LTP331	ltpFR	4	9	1	CONTRACT	368	n/a	n/a	0	0.57763671875	0.412841796875	1	lower	amplitud.ttf
1811102	WORD	wordpools/wasnorm_wordpool_less_exclusions.txt	LTP331	ltpFR	4	9	1	MITTEN	902	n/a	n/a	0	0.57763671875	0.412841796875	1	lower	amplitud.ttf
1815000	WORD	wordpools/wasnorm_wordpool_less_exclusions.txt	LTP331	ltpFR	4	9	1	SUBMARINE	1398	n/a	n/a	0	0.57763671875	0.412841796875	1	lower	amplitud.ttf
1821015	REC_START	n/a	LTP331	ltpFR	4	9	n/a	n/a	n/a	n/a	n/a	n/a	n/a	n/a	n/a	n/a	n/a
1828356	REC_WORD	wordpools/wasnorm_wordpool_less_exclusions.txt	LTP331	ltpFR	4	9	1	UTENSIL	1542	n/a	n/a	0	n/a	n/a	n/a	n/a	n/a
1830278	REC_WORD	wordpools/wasnorm_wordpool_less_exclusions.txt	LTP331	ltpFR	4	9	1	CONTRACT	368	n/a	n/a	0	n/a	n/a	n/a	n/a	n/a
1831444	REC_WORD	wordpools/wasnorm_wordpool_less_exclusions.txt	LTP331	ltpFR	4	9	1	PACKAGE	997	n/a	n/a	0	n/a	n/a	n/a	n/a	n/a
1838531	REC_WORD	wordpools/wasnorm_wordpool_less_exclusions.txt	LTP331	ltpFR	4	9	0	PRINCESS	1125	n/a	n/a	1	n/a	n/a	n/a	n/a	n/a
1839243	REC_WORD	wordpools/wasnorm_wordpool_less_exclusions.txt	LTP331	ltpFR	4	9	0	TACK	1428	n/a	n/a	0	n/a	n/a	n/a	n/a	n/a
1843606	REC_WORD	wordpools/wasnorm_wordpool_less_exclusions.txt	LTP331	ltpFR	4	9	0	KEEPER	769	n/a	n/a	1	n/a	n/a	n/a	n/a	n/a
1844501	REC_WORD	wordpools/wasnorm_wordpool_less_exclusions.txt	LTP331	ltpFR	4	9	0	CRAB	397	n/a	n/a	1	n/a	n/a	n/a	n/a	n/a
1846475	REC_WORD	wordpools/wasnorm_wordpool_less_exclusions.txt	LTP331	ltpFR	4	9	1	PANTHER	1009	n/a	n/a	1	n/a	n/a	n/a	n/a	n/a
1848129	REC_WORD	wordpools/wasnorm_wordpool_less_exclusions.txt	LTP331	ltpFR	4	9	1	ATTIC	56	n/a	n/a	0	n/a	n/a	n/a	n/a	n/a
1848655	REC_WORD	wordpools/wasnorm_wordpool_less_exclusions.txt	LTP331	ltpFR	4	9	1	BASEMENT	94	n/a	n/a	0	n/a	n/a	n/a	n/a	n/a
1849910	REC_WORD	wordpools/wasnorm_wordpool_less_exclusions.txt	LTP331	ltpFR	4	9	0	CONVENT	370	n/a	n/a	1	n/a	n/a	n/a	n/a	n/a
1850857	REC_WORD	wordpools/wasnorm_wordpool_less_exclusions.txt	LTP331	ltpFR	4	9	0	SHRINE	1298	n/a	n/a	1	n/a	n/a	n/a	n/a	n/a
1852566	REC_WORD	wordpools/wasnorm_wordpool_less_exclusions.txt	LTP331	ltpFR	4	9	0	MOTHER	921	n/a	n/a	1	n/a	n/a	n/a	n/a	n/a
1853373	REC_WORD	wordpools/wasnorm_wordpool_less_exclusions.txt	LTP331	ltpFR	4	9	0	BROOK	177	n/a	n/a	1	n/a	n/a	n/a	n/a	n/a
1860898	REC_WORD	wordpools/wasnorm_wordpool_less_exclusions.txt	LTP331	ltpFR	4	9	1	SUBMARINE	1398	n/a	n/a	0	n/a	n/a	n/a	n/a	n/a
1936774	WORD	wordpools/wasnorm_wordpool_less_exclusions.txt	LTP331	ltpFR	4	10	0	SHOE	1288	n/a	n/a	0	0.422607421875	0.5869140625	0	upper	zerothre.ttf
1940687	WORD	wordpools/wasnorm_wordpool_less_exclusions.txt	LTP331	ltpFR	4	10	0	STEREO	1378	n/a	n/a	0	0.422607421875	0.5869140625	0	upper	zerothre.ttf
1944853	WORD	wordpools/wasnorm_wordpool_less_exclusions.txt	LTP331	ltpFR	4	10	0	SCRIBBLE	1256	n/a	n/a	0	0.422607421875	0.5869140625	0	upper	zerothre.ttf
1948734	WORD	wordpools/wasnorm_wordpool_less_exclusions.txt	LTP331	ltpFR	4	10	0	TAPE	1433	n/a	n/a	0	0.422607421875	0.5869140625	0	upper	zerothre.ttf
1952581	WORD	wordpools/wasnorm_wordpool_less_exclusions.txt	LTP331	ltpFR	4	10	0	ROBIN	1199	n/a	n/a	0	0.422607421875	0.5869140625	0	upper	zerothre.ttf
1956463	WORD	wordpools/wasnorm_wordpool_less_exclusions.txt	LTP331	ltpFR	4	10	0	DOVE	491	n/a	n/a	0	0.422607421875	0.5869140625	0	upper	zerothre.ttf
1960377	WORD	wordpools/wasnorm_wordpool_less_exclusions.txt	LTP331	ltpFR	4	10	0	HARP	689	n/a	n/a	0	0.422607421875	0.5869140625	0	upper	zerothre.ttf
1964609	WORD	wordpools/wasnorm_wordpool_less_exclusions.txt	LTP331	ltpFR	4	10	0	SUPPER	1411	n/a	n/a	0	0.422607421875	0.5869140625	0	upper	zerothre.ttf
1968573	WORD	wordpools/wasnorm_wordpool_less_exclusions.txt	LTP331	ltpFR	4	10	0	KITCHEN	778	n/a	n/a	0	0.422607421875	0.5869140625	0	upper	zerothre.ttf
1972421	WORD	wordpools/wasnorm_wordpool_less_exclusions.txt	LTP331	ltpFR	4	10	0	BRUSH	182	n/a	n/a	0	0.422607421875	0.5869140625	0	upper	zerothre.ttf
1976569	WORD	wordpools/wasnorm_wordpool_less_exclusions.txt	LTP331	ltpFR	4	10	0	RUST	1219	n/a	n/a	0	0.422607421875	0.5869140625	0	upper	zerothre.ttf
1980735	WORD	wordpools/wasnorm_wordpool_less_exclusions.txt	LTP331	ltpFR	4	10	0	HAMBURGER	679	n/a	n/a	0	0.422607421875	0.5869140625	0	upper	zerothre.ttf
1984800	WORD	wordpools/wasnorm_wordpool_less_exclusions.txt	LTP331	ltpFR	4	10	0	TRICYCLE	1506	n/a	n/a	1	0.422607421875	0.5869140625	0	upper	zerothre.ttf
1988647	WORD	wordpools/wasnorm_wordpool_less_exclusions.txt	LTP331	ltpFR	4	10	0	WILDERNESS	1610	n/a	n/a	1	0.422607421875	0.5869140625	0	upper	zerothre.ttf
1992611	WORD	wordpools/wasnorm_wordpool_less_exclusions.txt	LTP331	ltpFR	4	10	0	NEWSSTAND	949	n/a	n/a	1	0.422607421875	0.5869140625	0	upper	zerothre.ttf
1996777	WORD	wordpools/wasnorm_wordpool_less_exclusions.txt	LTP331	ltpFR	4	10	0	WHISTLE	1606	n/a	n/a	0	0.422607421875	0.5869140625	0	upper	zerothre.ttf
2002725	REC_START	n/a	LTP331	ltpFR	4	10	n/a	n/a	n/a	n/a	n/a	n/a	n/a	n/a	n/a	n/a	n/a
2016466	REC_WORD	wordpools/wasnorm_wordpool_less_exclusions.txt	LTP331	ltpFR	4	10	0	SHOE	1288	n/a	n/a	0	n/a	n/a	n/a	n/a	n/a
2017517	REC_WORD	wordpools/wasnorm_wordpool_less_exclusions.txt	LTP331	ltpFR	4	10	0	STEREO	1378	n/a	n/a	0	n/a	n/a	n/a	n/a	n/a
2018517	REC_WORD_VV	wordpools/wasnorm_wordpool_less_exclusions.txt	LTP331	ltpFR	4	10	n/a	<>	-1	n/a	n/a	n/a	n/a	n/a	n/a	n/a	n/a
2018799	REC_WORD	wordpools/wasnorm_wordpool_less_exclusions.txt	LTP331	ltpFR	4	10	0	SCRIBBLE	1256	n/a	n/a	0	n/a	n/a	n/a	n/a	n/a
2020370	REC_WORD	wordpools/wasnorm_wordpool_less_exclusions.txt	LTP331	ltpFR	4	10	0	TAPE	1433	n/a	n/a	0	n/a	n/a	n/a	n/a	n/a
2023394	REC_WORD	wordpools/wasnorm_wordpool_less_exclusions.txt	LTP331	ltpFR	4	10	0	ROBIN	1199	n/a	n/a	0	n/a	n/a	n/a	n/a	n/a
2024098	REC_WORD	wordpools/wasnorm_wordpool_less_exclusions.txt	LTP331	ltpFR	4	10	0	TRICYCLE	1506	n/a	n/a	1	n/a	n/a	n/a	n/a	n/a
2026443	REC_WORD	wordpools/wasnorm_wordpool_less_exclusions.txt	LTP331	ltpFR	4	10	0	DOVE	491	n/a	n/a	0	n/a	n/a	n/a	n/a	n/a
2027838	REC_WORD	wordpools/wasnorm_wordpool_less_exclusions.txt	LTP331	ltpFR	4	10	0	HARP	689	n/a	n/a	0	n/a	n/a	n/a	n/a	n/a
2028505	REC_WORD	wordpools/wasnorm_wordpool_less_exclusions.txt	LTP331	ltpFR	4	10	0	RUST	1219	n/a	n/a	0	n/a	n/a	n/a	n/a	n/a
2030245	REC_WORD	wordpools/wasnorm_wordpool_less_exclusions.txt	LTP331	ltpFR	4	10	0	KITCHEN	778	n/a	n/a	0	n/a	n/a	n/a	n/a	n/a
2030997	REC_WORD	wordpools/wasnorm_wordpool_less_exclusions.txt	LTP331	ltpFR	4	10	n/a	BURGLAR	200	n/a	n/a	n/a	n/a	n/a	n/a	n/a	n/a
2032871	REC_WORD	wordpools/wasnorm_wordpool_less_exclusions.txt	LTP331	ltpFR	4	10	0	WHISTLE	1606	n/a	n/a	0	n/a	n/a	n/a	n/a	n/a
2034148	REC_WORD	wordpools/wasnorm_wordpool_less_exclusions.txt	LTP331	ltpFR	4	10	0	WILDERNESS	1610	n/a	n/a	1	n/a	n/a	n/a	n/a	n/a
2042193	REC_WORD	wordpools/wasnorm_wordpool_less_exclusions.txt	LTP331	ltpFR	4	10	n/a	DINNER	468	n/a	n/a	n/a	n/a	n/a	n/a	n/a	n/a
2051261	REC_WORD	wordpools/wasnorm_wordpool_less_exclusions.txt	LTP331	ltpFR	4	10	0	NEWSSTAND	949	n/a	n/a	1	n/a	n/a	n/a	n/a	n/a
2052261	REC_WORD_VV	wordpools/wasnorm_wordpool_less_exclusions.txt	LTP331	ltpFR	4	10	n/a	<>	-1	n/a	n/a	n/a	n/a	n/a	n/a	n/a	n/a
2082734	WORD	wordpools/wasnorm_wordpool_less_exclusions.txt	LTP331	ltpFR	4	11	1	DEODORANT	448	n/a	n/a	0	0.57763671875	0.412841796875	1	lower	amplitud.ttf
2086766	WORD	wordpools/wasnorm_wordpool_less_exclusions.txt	LTP331	ltpFR	4	11	1	SKUNK	1321	n/a	n/a	0	0.57763671875	0.412841796875	1	lower	amplitud.ttf
2090629	WORD	wordpools/wasnorm_wordpool_less_exclusions.txt	LTP331	ltpFR	4	11	1	FROG	608	n/a	n/a	1	0.57763671875	0.412841796875	1	lower	amplitud.ttf
2094611	WORD	wordpools/wasnorm_wordpool_less_exclusions.txt	LTP331	ltpFR	4	11	1	RAM	1165	n/a	n/a	1	0.57763671875	0.412841796875	1	lower	amplitud.ttf
2098542	WORD	wordpools/wasnorm_wordpool_less_exclusions.txt	LTP331	ltpFR	4	11	1	BELLY	119	n/a	n/a	1	0.57763671875	0.412841796875	1	lower	amplitud.ttf
2102473	WORD	wordpools/wasnorm_wordpool_less_exclusions.txt	LTP331	ltpFR	4	11	1	LIVER	833	n/a	n/a	1	0.57763671875	0.412841796875	1	lower	amplitud.ttf
2106588	WORD	wordpools/wasnorm_wordpool_less_exclusions.txt	LTP331	ltpFR	4	11	1	FOX	598	n/a	n/a	1	0.57763671875	0.412841796875	1	lower	amplitud.ttf
2110570	WORD	wordpools/wasnorm_wordpool_less_exclusions.txt	LTP331	ltpFR	4	11	1	BEAN	105	n/a	n/a	0	0.57763671875	0.412841796875	1	lower	amplitud.ttf
2114634	WORD	wordpools/wasnorm_wordpool_less_exclusions.txt	LTP331	ltpFR	4	11	1	ELEVATOR	524	n/a	n/a	0	0.57763671875	0.412841796875	1	lower	amplitud.ttf
2118682	WORD	wordpools/wasnorm_wordpool_less_exclusions.txt	LTP331	ltpFR	4	11	1	TECHNICIAN	1443	n/a	n/a	1	0.57763671875	0.412841796875	1	lower	amplitud.ttf
2122597	WORD	wordpools/wasnorm_wordpool_less_exclusions.txt	LTP331	ltpFR	4	11	1	CAFETERIA	217	n/a	n/a	0	0.57763671875	0.412841796875	1	lower	amplitud.ttf
2126578	WORD	wordpools/wasnorm_wordpool_less_exclusions.txt	LTP331	ltpFR	4	11	1	BRAN	167	n/a	n/a	1	0.57763671875	0.412841796875	1	lower	amplitud.ttf
2130576	WORD	wordpools/wasnorm_wordpool_less_exclusions.txt	LTP331	ltpFR	4	11	1	GROCERIES	663	n/a	n/a	0	0.57763671875	0.412841796875	1	lower	amplitud.ttf
2134657	WORD	wordpools/wasnorm_wordpool_less_exclusions.txt	LTP331	ltpFR	4	11	1	PUMPKIN	1142	n/a	n/a	0	0.57763671875	0.412841796875	1	lower	amplitud.ttf
2138672	WORD	wordpools/wasnorm_wordpool_less_exclusions.txt	LTP331	ltpFR	4	11	1	CHEDDAR	286	n/a	n/a	0	0.57763671875	0.412841796875	1	lower	amplitud.ttf
2142604	WORD	wordpools/wasnorm_wordpool_less_exclusions.txt	LTP331	ltpFR	4	11	1	LADDER	793	n/a	n/a	0	0.57763671875	0.412841796875	1	lower	amplitud.ttf
2148604	REC_START	n/a	LTP331	ltpFR	4	11	n/a	n/a	n/a	n/a	n/a	n/a	n/a	n/a	n/a	n/a	n/a
2154756	REC_WORD	wordpools/wasnorm_wordpool_less_exclusions.txt	LTP331	ltpFR	4	11	1	SKUNK	1321	n/a	n/a	0	n/a	n/a	n/a	n/a	n/a
2157775	REC_WORD	wordpools/wasnorm_wordpool_less_exclusions.txt	LTP331	ltpFR	4	11	1	DEODORANT	448	n/a	n/a	0	n/a	n/a	n/a	n/a	n/a
2158513	REC_WORD	wordpools/wasnorm_wordpool_less_exclusions.txt	LTP331	ltpFR	4	11	1	FROG	608	n/a	n/a	1	n/a	n/a	n/a	n/a	n/a
2163736	REC_WORD	wordpools/wasnorm_wordpool_less_exclusions.txt	LTP331	ltpFR	4	11	1	RAM	1165	n/a	n/a	1	n/a	n/a	n/a	n/a	n/a
2164350	REC_WORD	wordpools/wasnorm_wordpool_less_exclusions.txt	LTP331	ltpFR	4	11	n/a	STOMACH	1384	n/a	n/a	n/a	n/a	n/a	n/a	n/a	n/a
2165047	REC_WORD	wordpools/wasnorm_wordpool_less_exclusions.txt	LTP331	ltpFR	4	11	1	LIVER	833	n/a	n/a	1	n/a	n/a	n/a	n/a	n/a
2165505	REC_WORD	wordpools/wasnorm_wordpool_less_exclusions.txt	LTP331	ltpFR	4	11	1	FOX	598	n/a	n/a	1	n/a	n/a	n/a	n/a	n/a
2173593	REC_WORD	wordpools/wasnorm_wordpool_less_exclusions.txt	LTP331	ltpFR	4	11	1	BEAN	105	n/a	n/a	0	n/a	n/a	n/a	n/a	n/a
2174309	REC_WORD	wordpools/wasnorm_wordpool_less_exclusions.txt	LTP331	ltpFR	4	11	1	TECHNICIAN	1443	n/a	n/a	1	n/a	n/a	n/a	n/a	n/a
2174978	REC_WORD	wordpools/wasnorm_wordpool_less_exclusions.txt	LTP331	ltpFR	4	11	1	ELEVATOR	524	n/a	n/a	0	n/a	n/a	n/a	n/a	n/a
2175642	REC_WORD	wordpools/wasnorm_wordpool_less_exclusions.txt	LTP331	ltpFR	4	11	1	LADDER	793	n/a	n/a	0	n/a	n/a	n/a	n/a	n/a
2176546	REC_WORD	wordpools/wasnorm_wordpool_less_exclusions.txt	LTP331	ltpFR	4	11	1	GROCERIES	663	n/a	n/a	0	n/a	n/a	n/a	n/a	n/a
2178407	REC_WORD	wordpools/wasnorm_wordpool_less_exclusions.txt	LTP331	ltpFR	4	11	1	BRAN	167	n/a	n/a	1	n/a	n/a	n/a	n/a	n/a
2180419	REC_WORD	wordpools/wasnorm_wordpool_less_exclusions.txt	LTP331	ltpFR	4	11	1	CHEDDAR	286	n/a	n/a	0	n/a	n/a	n/a	n/a	n/a
2182935	REC_WORD	wordpools/wasnorm_wordpool_less_exclusions.txt	LTP331	ltpFR	4	11	1	PUMPKIN	1142	n/a	n/a	0	n/a	n/a	n/a	n/a	n/a
2185087	REC_WORD	wordpools/wasnorm_wordpool_less_exclusions.txt	LTP331	ltpFR	4	11	1	CAFETERIA	217	n/a	n/a	0	n/a	n/a	n/a	n/a	n/a
2274105	WORD	wordpools/wasnorm_wordpool_less_exclusions.txt	LTP331	ltpFR	4	12	0	SENATE	1267	n/a	n/a	1	0.422607421875	0.5869140625	0	upper	zerothre.ttf
2278070	WORD	wordpools/wasnorm_wordpool_less_exclusions.txt	LTP331	ltpFR	4	12	0	SENATOR	1268	n/a	n/a	1	0.422607421875	0.5869140625	0	upper	zerothre.ttf
2282034	WORD	wordpools/wasnorm_wordpool_less_exclusions.txt	LTP331	ltpFR	4	12	0	BARLEY	88	n/a	n/a	0	0.422607421875	0.5869140625	0	upper	zerothre.ttf
2286132	WORD	wordpools/wasnorm_wordpool_less_exclusions.txt	LTP331	ltpFR	4	12	1	CINNAMON	310	n/a	n/a	2	0.57763671875	0.412841796875	1	lower	amplitud.ttf
2288681	KEY_MSG	n/a	LTP331	ltpFR	4	12	n/a	n/a	n/a	n/a	n/a	n/a	n/a	n/a	n/a	n/a	n/a
2291430	WORD	wordpools/wasnorm_wordpool_less_exclusions.txt	LTP331	ltpFR	4	12	1	BUTLER	204	n/a	n/a	1	0.57763671875	0.412841796875	1	lower	amplitud.ttf
2295678	WORD	wordpools/wasnorm_wordpool_less_exclusions.txt	LTP331	ltpFR	4	12	1	COMMUNITY	356	n/a	n/a	0	0.57763671875	0.412841796875	1	lower	amplitud.ttf
2299625	WORD	wordpools/wasnorm_wordpool_less_exclusions.txt	LTP331	ltpFR	4	12	1	BANK	83	n/a	n/a	0	0.57763671875	0.412841796875	1	lower	amplitud.ttf
2303674	WORD	wordpools/wasnorm_wordpool_less_exclusions.txt	LTP331	ltpFR	4	12	0	OWNER	993	n/a	n/a	1	0.422607421875	0.5869140625	0	upper	zerothre.ttf
2307555	WORD	wordpools/wasnorm_wordpool_less_exclusions.txt	LTP331	ltpFR	4	12	0	DUST	508	n/a	n/a	0	0.422607421875	0.5869140625	0	upper	zerothre.ttf
2311771	WORD	wordpools/wasnorm_wordpool_less_exclusions.txt	LTP331	ltpFR	4	12	1	FREEZER	604	n/a	n/a	0	0.57763671875	0.412841796875	1	lower	amplitud.ttf
2315735	WORD	wordpools/wasnorm_wordpool_less_exclusions.txt	LTP331	ltpFR	4	12	1	WAGON	1578	n/a	n/a	0	0.57763671875	0.412841796875	1	lower	amplitud.ttf
2319932	WORD	wordpools/wasnorm_wordpool_less_exclusions.txt	LTP331	ltpFR	4	12	1	HAY	693	n/a	n/a	0	0.57763671875	0.412841796875	1	lower	amplitud.ttf
2324163	WORD	wordpools/wasnorm_wordpool_less_exclusions.txt	LTP331	ltpFR	4	12	1	SANDWICH	1232	n/a	n/a	0	0.57763671875	0.412841796875	1	lower	amplitud.ttf
2328295	WORD	wordpools/wasnorm_wordpool_less_exclusions.txt	LTP331	ltpFR	4	12	0	OREGANO	983	n/a	n/a	0	0.422607421875	0.5869140625	0	upper	zerothre.ttf
2332326	WORD	wordpools/wasnorm_wordpool_less_exclusions.txt	LTP331	ltpFR	4	12	0	SAGE	1222	n/a	n/a	0	0.422607421875	0.5869140625	0	upper	zerothre.ttf
2336457	WORD	wordpools/wasnorm_wordpool_less_exclusions.txt	LTP331	ltpFR	4	12	0	CHEERLEADER	288	n/a	n/a	1	0.422607421875	0.5869140625	0	upper	zerothre.ttf
2342406	REC_START	n/a	LTP331	ltpFR	4	12	n/a	n/a	n/a	n/a	n/a	n/a	n/a	n/a	n/a	n/a	n/a
2344414	REC_WORD	wordpools/wasnorm_wordpool_less_exclusions.txt	LTP331	ltpFR	4	12	1	BANK	83	n/a	n/a	0	n/a	n/a	n/a	n/a	n/a
2344940	REC_WORD	wordpools/wasnorm_wordpool_less_exclusions.txt	LTP331	ltpFR	4	12	0	OWNER	993	n/a	n/a	1	n/a	n/a	n/a	n/a	n/a
2345649	REC_WORD	wordpools/wasnorm_wordpool_less_exclusions.txt	LTP331	ltpFR	4	12	0	DUST	508	n/a	n/a	0	n/a	n/a	n/a	n/a	n/a
2346907	REC_WORD	wordpools/wasnorm_wordpool_less_exclusions.txt	LTP331	ltpFR	4	12	0	SENATE	1267	n/a	n/a	1	n/a	n/a	n/a	n/a	n/a
2347361	REC_WORD	wordpools/wasnorm_wordpool_less_exclusions.txt	LTP331	ltpFR	4	12	0	SENATOR	1268	n/a	n/a	1	n/a	n/a	n/a	n/a	n/a
2348123	REC_WORD	wordpools/wasnorm_wordpool_less_exclusions.txt	LTP331	ltpFR	4	12	0	BARLEY	88	n/a	n/a	0	n/a	n/a	n/a	n/a	n/a
2348977	REC_WORD	wordpools/wasnorm_wordpool_less_exclusions.txt	LTP331	ltpFR	4	12	1	BUTLER	204	n/a	n/a	1	n/a	n/a	n/a	n/a	n/a
2352018	REC_WORD	wordpools/wasnorm_wordpool_less_exclusions.txt	LTP331	ltpFR	4	12	1	COMMUNITY	356	n/a	n/a	0	n/a	n/a	n/a	n/a	n/a
2355119	REC_WORD	wordpools/wasnorm_wordpool_less_exclusions.txt	LTP331	ltpFR	4	12	1	WAGON	1578	n/a	n/a	0	n/a	n/a	n/a	n/a	n/a
2355794	REC_WORD	wordpools/wasnorm_wordpool_less_exclusions.txt	LTP331	ltpFR	4	12	1	HAY	693	n/a	n/a	0	n/a	n/a	n/a	n/a	n/a
2356264	REC_WORD	wordpools/wasnorm_wordpool_less_exclusions.txt	LTP331	ltpFR	4	12	1	FREEZER	604	n/a	n/a	0	n/a	n/a	n/a	n/a	n/a
2357014	REC_WORD	wordpools/wasnorm_wordpool_less_exclusions.txt	LTP331	ltpFR	4	12	1	SANDWICH	1232	n/a	n/a	0	n/a	n/a	n/a	n/a	n/a
2358068	REC_WORD	wordpools/wasnorm_wordpool_less_exclusions.txt	LTP331	ltpFR	4	12	0	OREGANO	983	n/a	n/a	0	n/a	n/a	n/a	n/a	n/a
2358724	REC_WORD	wordpools/wasnorm_wordpool_less_exclusions.txt	LTP331	ltpFR	4	12	0	SAGE	1222	n/a	n/a	0	n/a	n/a	n/a	n/a	n/a
2361006	REC_WORD	wordpools/wasnorm_wordpool_less_exclusions.txt	LTP331	ltpFR	4	12	0	CHEERLEADER	288	n/a	n/a	1	n/a	n/a	n/a	n/a	n/a
2423697	WORD	wordpools/wasnorm_wordpool_less_exclusions.txt	LTP331	ltpFR	4	13	-1	DANDELION	438	n/a	n/a	-1	1.0	1.0	1	upper	Verdana.ttf
2427796	WORD	wordpools/wasnorm_wordpool_less_exclusions.txt	LTP331	ltpFR	4	13	-1	VASE	1549	n/a	n/a	-1	1.0	1.0	1	upper	Verdana.ttf
2432010	WORD	wordpools/wasnorm_wordpool_less_exclusions.txt	LTP331	ltpFR	4	13	-1	TREAT	1501	n/a	n/a	-1	1.0	1.0	1	upper	Verdana.ttf
2435958	WORD	wordpools/wasnorm_wordpool_less_exclusions.txt	LTP331	ltpFR	4	13	-1	TRENCH	1503	n/a	n/a	-1	1.0	1.0	1	upper	Verdana.ttf
2439840	WORD	wordpools/wasnorm_wordpool_less_exclusions.txt	LTP331	ltpFR	4	13	-1	PIT	1077	n/a	n/a	-1	1.0	1.0	1	upper	Verdana.ttf
2443888	WORD	wordpools/wasnorm_wordpool_less_exclusions.txt	LTP331	ltpFR	4	13	-1	TULIP	1517	n/a	n/a	-1	1.0	1.0	1	upper	Verdana.ttf
2447836	WORD	wordpools/wasnorm_wordpool_less_exclusions.txt	LTP331	ltpFR	4	13	-1	THICKET	1455	n/a	n/a	-1	1.0	1.0	1	upper	Verdana.ttf
2452016	WORD	wordpools/wasnorm_wordpool_less_exclusions.txt	LTP331	ltpFR	4	13	-1	DETECTIVE	454	n/a	n/a	-1	1.0	1.0	1	upper	Verdana.ttf
2456031	WORD	wordpools/wasnorm_wordpool_less_exclusions.txt	LTP331	ltpFR	4	13	-1	BUGGY	188	n/a	n/a	-1	1.0	1.0	1	upper	Verdana.ttf
2460129	WORD	wordpools/wasnorm_wordpool_less_exclusions.txt	LTP331	ltpFR	4	13	-1	CHIP	303	n/a	n/a	-1	1.0	1.0	1	upper	Verdana.ttf
2464011	WORD	wordpools/wasnorm_wordpool_less_exclusions.txt	LTP331	ltpFR	4	13	-1	KNEE	784	n/a	n/a	-1	1.0	1.0	1	upper	Verdana.ttf
2467909	WORD	wordpools/wasnorm_wordpool_less_exclusions.txt	LTP331	ltpFR	4	13	-1	PLAYGROUND	1087	n/a	n/a	-1	1.0	1.0	1	upper	Verdana.ttf
2472107	WORD	wordpools/wasnorm_wordpool_less_exclusions.txt	LTP331	ltpFR	4	13	-1	DOCUMENT	479	n/a	n/a	-1	1.0	1.0	1	upper	Verdana.ttf
2476238	WORD	wordpools/wasnorm_wordpool_less_exclusions.txt	LTP331	ltpFR	4	13	-1	PIKE	1067	n/a	n/a	-1	1.0	1.0	1	upper	Verdana.ttf
2480352	WORD	wordpools/wasnorm_wordpool_less_exclusions.txt	LTP331	ltpFR	4	13	-1	JEEP	753	n/a	n/a	-1	1.0	1.0	1	upper	Verdana.ttf
2484234	WORD	wordpools/wasnorm_wordpool_less_exclusions.txt	LTP331	ltpFR	4	13	-1	ELBOW	520	n/a	n/a	-1	1.0	1.0	1	upper	Verdana.ttf
2490166	REC_START	n/a	LTP331	ltpFR	4	13	n/a	n/a	n/a	n/a	n/a	n/a	n/a	n/a	n/a	n/a	n/a
2491144	REC_WORD	wordpools/wasnorm_wordpool_less_exclusions.txt	LTP331	ltpFR	4	13	-1	JEEP	753	n/a	n/a	-1	n/a	n/a	n/a	n/a	n/a
2491539	REC_WORD	wordpools/wasnorm_wordpool_less_exclusions.txt	LTP331	ltpFR	4	13	-1	ELBOW	520	n/a	n/a	-1	n/a	n/a	n/a	n/a	n/a
2492076	REC_WORD	wordpools/wasnorm_wordpool_less_exclusions.txt	LTP331	ltpFR	4	13	-1	DOCUMENT	479	n/a	n/a	-1	n/a	n/a	n/a	n/a	n/a
2492887	REC_WORD	wordpools/wasnorm_wordpool_less_exclusions.txt	LTP331	ltpFR	4	13	-1	PIKE	1067	n/a	n/a	-1	n/a	n/a	n/a	n/a	n/a
2494541	REC_WORD	wordpools/wasnorm_wordpool_less_exclusions.txt	LTP331	ltpFR	4	13	-1	PLAYGROUND	1087	n/a	n/a	-1	n/a	n/a	n/a	n/a	n/a
2496198	REC_WORD	wordpools/wasnorm_wordpool_less_exclusions.txt	LTP331	ltpFR	4	13	-1	KNEE	784	n/a	n/a	-1	n/a	n/a	n/a	n/a	n/a
2497244	REC_WORD	wordpools/wasnorm_wordpool_less_exclusions.txt	LTP331	ltpFR	4	13	-1	CHIP	303	n/a	n/a	-1	n/a	n/a	n/a	n/a	n/a
2499796	REC_WORD	wordpools/wasnorm_wordpool_less_exclusions.txt	LTP331	ltpFR	4	13	-1	BUGGY	188	n/a	n/a	-1	n/a	n/a	n/a	n/a	n/a
2500294	REC_WORD	wordpools/wasnorm_wordpool_less_exclusions.txt	LTP331	ltpFR	4	13	-1	DETECTIVE	454	n/a	n/a	-1	n/a	n/a	n/a	n/a	n/a
2500900	REC_WORD	wordpools/wasnorm_wordpool_less_exclusions.txt	LTP331	ltpFR	4	13	-1	THICKET	1455	n/a	n/a	-1	n/a	n/a	n/a	n/a	n/a
2501670	REC_WORD	wordpools/wasnorm_wordpool_less_exclusions.txt	LTP331	ltpFR	4	13	-1	TULIP	1517	n/a	n/a	-1	n/a	n/a	n/a	n/a	n/a
2502234	REC_WORD	wordpools/wasnorm_wordpool_less_exclusions.txt	LTP331	ltpFR	4	13	-1	TRENCH	1503	n/a	n/a	-1	n/a	n/a	n/a	n/a	n/a
2502921	REC_WORD	wordpools/wasnorm_wordpool_less_exclusions.txt	LTP331	ltpFR	4	13	-1	PIT	1077	n/a	n/a	-1	n/a	n/a	n/a	n/a	n/a
2504261	REC_WORD	wordpools/wasnorm_wordpool_less_exclusions.txt	LTP331	ltpFR	4	13	-1	TREAT	1501	n/a	n/a	-1	n/a	n/a	n/a	n/a	n/a
2507799	REC_WORD	wordpools/wasnorm_wordpool_less_exclusions.txt	LTP331	ltpFR	4	13	-1	VASE	1549	n/a	n/a	-1	n/a	n/a	n/a	n/a	n/a
2508851	REC_WORD	wordpools/wasnorm_wordpool_less_exclusions.txt	LTP331	ltpFR	4	13	-1	DANDELION	438	n/a	n/a	-1	n/a	n/a	n/a	n/a	n/a
2570558	WORD	wordpools/wasnorm_wordpool_less_exclusions.txt	LTP331	ltpFR	4	14	1	TUBA	1515	n/a	n/a	0	0.57763671875	0.412841796875	1	lower	amplitud.ttf
2574740	WORD	wordpools/wasnorm_wordpool_less_exclusions.txt	LTP331	ltpFR	4	14	1	DRUM	502	n/a	n/a	0	0.57763671875	0.412841796875	1	lower	amplitud.ttf
2578755	WORD	wordpools/wasnorm_wordpool_less_exclusions.txt	LTP331	ltpFR	4	14	1	BUILDING	191	n/a	n/a	0	0.57763671875	0.412841796875	1	lower	amplitud.ttf
2582786	WORD	wordpools/wasnorm_wordpool_less_exclusions.txt	LTP331	ltpFR	4	14	1	FLOWER	584	n/a	n/a	1	0.57763671875	0.412841796875	1	lower	amplitud.ttf
2586966	WORD	wordpools/wasnorm_wordpool_less_exclusions.txt	LTP331	ltpFR	4	14	1	DIRECTOR	471	n/a	n/a	1	0.57763671875	0.412841796875	1	lower	amplitud.ttf
2591131	WORD	wordpools/wasnorm_wordpool_less_exclusions.txt	LTP331	ltpFR	4	14	1	RELATIVE	1182	n/a	n/a	1	0.57763671875	0.412841796875	1	lower	amplitud.ttf
2595179	WORD	wordpools/wasnorm_wordpool_less_exclusions.txt	LTP331	ltpFR	4	14	0	NIECE	952	n/a	n/a	1	0.422607421875	0.5869140625	0	upper	zerothre.ttf
2599027	WORD	wordpools/wasnorm_wordpool_less_exclusions.txt	LTP331	ltpFR	4	14	0	GOVERNOR	651	n/a	n/a	1	0.422607421875	0.5869140625	0	upper	zerothre.ttf
2603008	WORD	wordpools/wasnorm_wordpool_less_exclusions.txt	LTP331	ltpFR	4	14	0	VIOLA	1570	n/a	n/a	0	0.422607421875	0.5869140625	0	upper	zerothre.ttf
2606874	WORD	wordpools/wasnorm_wordpool_less_exclusions.txt	LTP331	ltpFR	4	14	0	STEM	1376	n/a	n/a	n/a	0.422607421875	0.5869140625	0	upper	zerothre.ttf
2609955	SLOW_MSG	n/a	LTP331	ltpFR	4	14	n/a	n/a	n/a	n/a	n/a	n/a	n/a	n/a	n/a	n/a	n/a
2612653	WORD	wordpools/wasnorm_wordpool_less_exclusions.txt	LTP331	ltpFR	4	14	0	BRICK	172	n/a	n/a	0	0.422607421875	0.5869140625	0	upper	zerothre.ttf
2616718	WORD	wordpools/wasnorm_wordpool_less_exclusions.txt	LTP331	ltpFR	4	14	0	TORCH	1484	n/a	n/a	0	0.422607421875	0.5869140625	0	upper	zerothre.ttf
2620734	WORD	wordpools/wasnorm_wordpool_less_exclusions.txt	LTP331	ltpFR	4	14	1	BOXER	160	n/a	n/a	1	0.57763671875	0.412841796875	1	lower	amplitud.ttf
2624597	WORD	wordpools/wasnorm_wordpool_less_exclusions.txt	LTP331	ltpFR	4	14	1	VICTOR	1563	n/a	n/a	0	0.57763671875	0.412841796875	1	lower	amplitud.ttf
2628695	WORD	wordpools/wasnorm_wordpool_less_exclusions.txt	LTP331	ltpFR	4	14	0	ROSE	1212	n/a	n/a	0	0.422607421875	0.5869140625	0	upper	zerothre.ttf
2632894	WORD	wordpools/wasnorm_wordpool_less_exclusions.txt	LTP331	ltpFR	4	14	0	VAULT	1550	n/a	n/a	1	0.422607421875	0.5869140625	0	upper	zerothre.ttf
2638975	REC_START	n/a	LTP331	ltpFR	4	14	n/a	n/a	n/a	n/a	n/a	n/a	n/a	n/a	n/a	n/a	n/a
2640047	REC_WORD	wordpools/wasnorm_wordpool_less_exclusions.txt	LTP331	ltpFR	4	14	0	VAULT	1550	n/a	n/a	1	n/a	n/a	n/a	n/a	n/a
2640612	REC_WORD	wordpools/wasnorm_wordpool_less_exclusions.txt	LTP331	ltpFR	4	14	1	VICTOR	1563	n/a	n/a	0	n/a	n/a	n/a	n/a	n/a
2641390	REC_WORD	wordpools/wasnorm_wordpool_less_exclusions.txt	LTP331	ltpFR	4	14	1	BOXER	160	n/a	n/a	1	n/a	n/a	n/a	n/a	n/a
2642076	REC_WORD	wordpools/wasnorm_wordpool_less_exclusions.txt	LTP331	ltpFR	4	14	0	ROSE	1212	n/a	n/a	0	n/a	n/a	n/a	n/a	n/a
2647932	REC_WORD	wordpools/wasnorm_wordpool_less_exclusions.txt	LTP331	ltpFR	4	14	1	DRUM	502	n/a	n/a	0	n/a	n/a	n/a	n/a	n/a
2650227	REC_WORD	wordpools/wasnorm_wordpool_less_exclusions.txt	LTP331	ltpFR	4	14	1	TUBA	1515	n/a	n/a	0	n/a	n/a	n/a	n/a	n/a
2652299	REC_WORD	wordpools/wasnorm_wordpool_less_exclusions.txt	LTP331	ltpFR	4	14	1	FLOWER	584	n/a	n/a	1	n/a	n/a	n/a	n/a	n/a
2653973	REC_WORD	wordpools/wasnorm_wordpool_less_exclusions.txt	LTP331	ltpFR	4	14	0	STEM	1376	n/a	n/a	n/a	n/a	n/a	n/a	n/a	n/a
2655316	REC_WORD	wordpools/wasnorm_wordpool_less_exclusions.txt	LTP331	ltpFR	4	14	1	RELATIVE	1182	n/a	n/a	1	n/a	n/a	n/a	n/a	n/a
2655994	REC_WORD	wordpools/wasnorm_wordpool_less_exclusions.txt	LTP331	ltpFR	4	14	0	NIECE	952	n/a	n/a	1	n/a	n/a	n/a	n/a	n/a
2657359	REC_WORD	wordpools/wasnorm_wordpool_less_exclusions.txt	LTP331	ltpFR	4	14	0	GOVERNOR	651	n/a	n/a	1	n/a	n/a	n/a	n/a	n/a
2657909	REC_WORD	wordpools/wasnorm_wordpool_less_exclusions.txt	LTP331	ltpFR	4	14	0	TORCH	1484	n/a	n/a	0	n/a	n/a	n/a	n/a	n/a
2659856	REC_WORD	wordpools/wasnorm_wordpool_less_exclusions.txt	LTP331	ltpFR	4	14	1	BUILDING	191	n/a	n/a	0	n/a	n/a	n/a	n/a	n/a
2673120	REC_WORD	wordpools/wasnorm_wordpool_less_exclusions.txt	LTP331	ltpFR	4	14	0	BRICK	172	n/a	n/a	0	n/a	n/a	n/a	n/a	n/a
2679388	REC_WORD	wordpools/wasnorm_wordpool_less_exclusions.txt	LTP331	ltpFR	4	14	0	VIOLA	1570	n/a	n/a	0	n/a	n/a	n/a	n/a	n/a
2718168	WORD	wordpools/wasnorm_wordpool_less_exclusions.txt	LTP331	ltpFR	4	15	0	BOULDER	155	n/a	n/a	1	0.422607421875	0.5869140625	0	upper	zerothre.ttf
2722032	WORD	wordpools/wasnorm_wordpool_less_exclusions.txt	LTP331	ltpFR	4	15	0	STONE	1385	n/a	n/a	1	0.422607421875	0.5869140625	0	upper	zerothre.ttf
2726247	WORD	wordpools/wasnorm_wordpool_less_exclusions.txt	LTP331	ltpFR	4	15	0	BLOUSE	139	n/a	n/a	1	0.422607421875	0.5869140625	0	upper	zerothre.ttf
2730262	WORD	wordpools/wasnorm_wordpool_less_exclusions.txt	LTP331	ltpFR	4	15	0	BRANDY	169	n/a	n/a	0	0.422607421875	0.5869140625	0	upper	zerothre.ttf
2734110	WORD	wordpools/wasnorm_wordpool_less_exclusions.txt	LTP331	ltpFR	4	15	0	MILK	895	n/a	n/a	0	0.422607421875	0.5869140625	0	upper	zerothre.ttf
2737991	WORD	wordpools/wasnorm_wordpool_less_exclusions.txt	LTP331	ltpFR	4	15	0	BLUEJAY	141	n/a	n/a	0	0.422607421875	0.5869140625	0	upper	zerothre.ttf
2741874	WORD	wordpools/wasnorm_wordpool_less_exclusions.txt	LTP331	ltpFR	4	15	0	FURNITURE	616	n/a	n/a	1	0.422607421875	0.5869140625	0	upper	zerothre.ttf
2746054	WORD	wordpools/wasnorm_wordpool_less_exclusions.txt	LTP331	ltpFR	4	15	0	BASKET	95	n/a	n/a	1	0.422607421875	0.5869140625	0	upper	zerothre.ttf
2750118	WORD	wordpools/wasnorm_wordpool_less_exclusions.txt	LTP331	ltpFR	4	15	0	CUP	424	n/a	n/a	0	0.422607421875	0.5869140625	0	upper	zerothre.ttf
2754033	WORD	wordpools/wasnorm_wordpool_less_exclusions.txt	LTP331	ltpFR	4	15	0	JURY	766	n/a	n/a	1	0.422607421875	0.5869140625	0	upper	zerothre.ttf
2758098	WORD	wordpools/wasnorm_wordpool_less_exclusions.txt	LTP331	ltpFR	4	15	0	GANG	619	n/a	n/a	1	0.422607421875	0.5869140625	0	upper	zerothre.ttf
2762246	WORD	wordpools/wasnorm_wordpool_less_exclusions.txt	LTP331	ltpFR	4	15	0	TRIGGER	1507	n/a	n/a	1	0.422607421875	0.5869140625	0	upper	zerothre.ttf
2766444	WORD	wordpools/wasnorm_wordpool_less_exclusions.txt	LTP331	ltpFR	4	15	0	JACKET	747	n/a	n/a	1	0.422607421875	0.5869140625	0	upper	zerothre.ttf
2770425	WORD	wordpools/wasnorm_wordpool_less_exclusions.txt	LTP331	ltpFR	4	15	0	ACORN	3	n/a	n/a	0	0.422607421875	0.5869140625	0	upper	zerothre.ttf
2774540	WORD	wordpools/wasnorm_wordpool_less_exclusions.txt	LTP331	ltpFR	4	15	0	WITNESS	1618	n/a	n/a	1	0.422607421875	0.5869140625	0	upper	zerothre.ttf
2778538	WORD	wordpools/wasnorm_wordpool_less_exclusions.txt	LTP331	ltpFR	4	15	0	BEER	114	n/a	n/a	0	0.422607421875	0.5869140625	0	upper	zerothre.ttf
2784519	REC_START	n/a	LTP331	ltpFR	4	15	n/a	n/a	n/a	n/a	n/a	n/a	n/a	n/a	n/a	n/a	n/a
2791942	REC_WORD	wordpools/wasnorm_wordpool_less_exclusions.txt	LTP331	ltpFR	4	15	0	BOULDER	155	n/a	n/a	1	n/a	n/a	n/a	n/a	n/a
2793259	REC_WORD	wordpools/wasnorm_wordpool_less_exclusions.txt	LTP331	ltpFR	4	15	0	STONE	1385	n/a	n/a	1	n/a	n/a	n/a	n/a	n/a
2794910	REC_WORD	wordpools/wasnorm_wordpool_less_exclusions.txt	LTP331	ltpFR	4	15	0	BLOUSE	139	n/a	n/a	1	n/a	n/a	n/a	n/a	n/a
2796246	REC_WORD	wordpools/wasnorm_wordpool_less_exclusions.txt	LTP331	ltpFR	4	15	0	MILK	895	n/a	n/a	0	n/a	n/a	n/a	n/a	n/a
2797414	REC_WORD	wordpools/wasnorm_wordpool_less_exclusions.txt	LTP331	ltpFR	4	15	0	BRANDY	169	n/a	n/a	0	n/a	n/a	n/a	n/a	n/a
2798142	REC_WORD	wordpools/wasnorm_wordpool_less_exclusions.txt	LTP331	ltpFR	4	15	0	FURNITURE	616	n/a	n/a	1	n/a	n/a	n/a	n/a	n/a
2799068	REC_WORD	wordpools/wasnorm_wordpool_less_exclusions.txt	LTP331	ltpFR	4	15	0	BLUEJAY	141	n/a	n/a	0	n/a	n/a	n/a	n/a	n/a
2801249	REC_WORD	wordpools/wasnorm_wordpool_less_exclusions.txt	LTP331	ltpFR	4	15	0	JURY	766	n/a	n/a	1	n/a	n/a	n/a	n/a	n/a
2802406	REC_WORD	wordpools/wasnorm_wordpool_less_exclusions.txt	LTP331	ltpFR	4	15	0	BEER	114	n/a	n/a	0	n/a	n/a	n/a	n/a	n/a
2804786	REC_WORD	wordpools/wasnorm_wordpool_less_exclusions.txt	LTP331	ltpFR	4	15	0	BASKET	95	n/a	n/a	1	n/a	n/a	n/a	n/a	n/a
2805492	REC_WORD	wordpools/wasnorm_wordpool_less_exclusions.txt	LTP331	ltpFR	4	15	0	CUP	424	n/a	n/a	0	n/a	n/a	n/a	n/a	n/a
2807049	REC_WORD	wordpools/wasnorm_wordpool_less_exclusions.txt	LTP331	ltpFR	4	15	0	ACORN	3	n/a	n/a	0	n/a	n/a	n/a	n/a	n/a
2807747	REC_WORD	wordpools/wasnorm_wordpool_less_exclusions.txt	LTP331	ltpFR	4	15	0	WITNESS	1618	n/a	n/a	1	n/a	n/a	n/a	n/a	n/a
2809983	REC_WORD	wordpools/wasnorm_wordpool_less_exclusions.txt	LTP331	ltpFR	4	15	0	GANG	619	n/a	n/a	1	n/a	n/a	n/a	n/a	n/a
2811898	REC_WORD	wordpools/wasnorm_wordpool_less_exclusions.txt	LTP331	ltpFR	4	15	0	JACKET	747	n/a	n/a	1	n/a	n/a	n/a	n/a	n/a
2817144	REC_WORD	wordpools/wasnorm_wordpool_less_exclusions.txt	LTP331	ltpFR	4	15	0	TRIGGER	1507	n/a	n/a	1	n/a	n/a	n/a	n/a	n/a
2878756	WORD	wordpools/wasnorm_wordpool_less_exclusions.txt	LTP331	ltpFR	4	16	-1	COD	340	n/a	n/a	-1	1.0	1.0	1	upper	Verdana.ttf
2882952	WORD	wordpools/wasnorm_wordpool_less_exclusions.txt	LTP331	ltpFR	4	16	-1	BAIT	70	n/a	n/a	-1	1.0	1.0	1	upper	Verdana.ttf
2887050	WORD	wordpools/wasnorm_wordpool_less_exclusions.txt	LTP331	ltpFR	4	16	-1	GROUND	666	n/a	n/a	-1	1.0	1.0	1	upper	Verdana.ttf
2890948	WORD	wordpools/wasnorm_wordpool_less_exclusions.txt	LTP331	ltpFR	4	16	-1	MOTEL	919	n/a	n/a	-1	1.0	1.0	1	upper	Verdana.ttf
2895163	WORD	wordpools/wasnorm_wordpool_less_exclusions.txt	LTP331	ltpFR	4	16	-1	PORCH	1106	n/a	n/a	-1	1.0	1.0	1	upper	Verdana.ttf
2899128	WORD	wordpools/wasnorm_wordpool_less_exclusions.txt	LTP331	ltpFR	4	16	-1	BLENDER	136	n/a	n/a	-1	1.0	1.0	1	upper	Verdana.ttf
2903076	WORD	wordpools/wasnorm_wordpool_less_exclusions.txt	LTP331	ltpFR	4	16	-1	INN	739	n/a	n/a	-1	1.0	1.0	1	upper	Verdana.ttf
2907107	WORD	wordpools/wasnorm_wordpool_less_exclusions.txt	LTP331	ltpFR	4	16	-1	CAVE	263	n/a	n/a	-1	1.0	1.0	1	upper	Verdana.ttf
2911055	WORD	wordpools/wasnorm_wordpool_less_exclusions.txt	LTP331	ltpFR	4	16	-1	LAMB	797	n/a	n/a	-1	1.0	1.0	1	upper	Verdana.ttf
2915037	WORD	wordpools/wasnorm_wordpool_less_exclusions.txt	LTP331	ltpFR	4	16	-1	CARPET	247	n/a	n/a	-1	1.0	1.0	1	upper	Verdana.ttf
2919118	WORD	wordpools/wasnorm_wordpool_less_exclusions.txt	LTP331	ltpFR	4	16	-1	ASSOCIATE	49	n/a	n/a	-1	1.0	1.0	1	upper	Verdana.ttf
2923116	WORD	wordpools/wasnorm_wordpool_less_exclusions.txt	LTP331	ltpFR	4	16	-1	POSSUM	1112	n/a	n/a	-1	1.0	1.0	1	upper	Verdana.ttf
2927364	WORD	wordpools/wasnorm_wordpool_less_exclusions.txt	LTP331	ltpFR	4	16	-1	CANAL	226	n/a	n/a	-1	1.0	1.0	1	upper	Verdana.ttf
2931328	WORD	wordpools/wasnorm_wordpool_less_exclusions.txt	LTP331	ltpFR	4	16	-1	WAVE	1596	n/a	n/a	-1	1.0	1.0	1	upper	Verdana.ttf
2935393	WORD	wordpools/wasnorm_wordpool_less_exclusions.txt	LTP331	ltpFR	4	16	-1	GOWN	652	n/a	n/a	-1	1.0	1.0	1	upper	Verdana.ttf
2939291	WORD	wordpools/wasnorm_wordpool_less_exclusions.txt	LTP331	ltpFR	4	16	-1	VEST	1559	n/a	n/a	-1	1.0	1.0	1	upper	Verdana.ttf
2945139	REC_START	n/a	LTP331	ltpFR	4	16	n/a	n/a	n/a	n/a	n/a	n/a	n/a	n/a	n/a	n/a	n/a
2946786	REC_WORD	wordpools/wasnorm_wordpool_less_exclusions.txt	LTP331	ltpFR	4	16	n/a	GALLON	618	n/a	n/a	n/a	n/a	n/a	n/a	n/a	n/a
2947314	REC_WORD	wordpools/wasnorm_wordpool_less_exclusions.txt	LTP331	ltpFR	4	16	-1	VEST	1559	n/a	n/a	-1	n/a	n/a	n/a	n/a	n/a
2948368	REC_WORD	wordpools/wasnorm_wordpool_less_exclusions.txt	LTP331	ltpFR	4	16	-1	POSSUM	1112	n/a	n/a	-1	n/a	n/a	n/a	n/a	n/a
2949253	REC_WORD	wordpools/wasnorm_wordpool_less_exclusions.txt	LTP331	ltpFR	4	16	-1	CANAL	226	n/a	n/a	-1	n/a	n/a	n/a	n/a	n/a
2949915	REC_WORD	wordpools/wasnorm_wordpool_less_exclusions.txt	LTP331	ltpFR	4	16	-1	WAVE	1596	n/a	n/a	-1	n/a	n/a	n/a	n/a	n/a
2952043	REC_WORD	wordpools/wasnorm_wordpool_less_exclusions.txt	LTP331	ltpFR	4	16	-1	LAMB	797	n/a	n/a	-1	n/a	n/a	n/a	n/a	n/a
2952572	REC_WORD	wordpools/wasnorm_wordpool_less_exclusions.txt	LTP331	ltpFR	4	16	-1	ASSOCIATE	49	n/a	n/a	-1	n/a	n/a	n/a	n/a	n/a
2953524	REC_WORD	wordpools/wasnorm_wordpool_less_exclusions.txt	LTP331	ltpFR	4	16	-1	CARPET	247	n/a	n/a	-1	n/a	n/a	n/a	n/a	n/a
2962129	REC_WORD	wordpools/wasnorm_wordpool_less_exclusions.txt	LTP331	ltpFR	4	16	-1	COD	340	n/a	n/a	-1	n/a	n/a	n/a	n/a	n/a
2962763	REC_WORD	wordpools/wasnorm_wordpool_less_exclusions.txt	LTP331	ltpFR	4	16	-1	BAIT	70	n/a	n/a	-1	n/a	n/a	n/a	n/a	n/a
2963277	REC_WORD	wordpools/wasnorm_wordpool_less_exclusions.txt	LTP331	ltpFR	4	16	n/a	FLOOR	581	n/a	n/a	n/a	n/a	n/a	n/a	n/a	n/a
2964778	REC_WORD	wordpools/wasnorm_wordpool_less_exclusions.txt	LTP331	ltpFR	4	16	-1	MOTEL	919	n/a	n/a	-1	n/a	n/a	n/a	n/a	n/a
2965554	REC_WORD	wordpools/wasnorm_wordpool_less_exclusions.txt	LTP331	ltpFR	4	16	-1	INN	739	n/a	n/a	-1	n/a	n/a	n/a	n/a	n/a
2966488	REC_WORD	wordpools/wasnorm_wordpool_less_exclusions.txt	LTP331	ltpFR	4	16	-1	PORCH	1106	n/a	n/a	-1	n/a	n/a	n/a	n/a	n/a
2967172	REC_WORD	wordpools/wasnorm_wordpool_less_exclusions.txt	LTP331	ltpFR	4	16	-1	BLENDER	136	n/a	n/a	-1	n/a	n/a	n/a	n/a	n/a
2978754	REC_WORD	wordpools/wasnorm_wordpool_less_exclusions.txt	LTP331	ltpFR	4	16	-1	CAVE	263	n/a	n/a	-1	n/a	n/a	n/a	n/a	n/a
3023867	REST_REWET	n/a	LTP331	ltpFR	4	16	n/a	n/a	n/a	n/a	n/a	n/a	n/a	n/a	n/a	n/a	n/a
3313042	REC_START	n/a	LTP331	ltpFR	4	1	n/a	n/a	n/a	n/a	n/a	n/a	n/a	n/a	n/a	n/a	n/a
3313089	RECOG_TARGET	n/a	LTP331	ltpFR	4	1	0	BRICK	172	1	5	0	n/a	n/a	n/a	n/a	n/a
3314741	RECOG_RESP	n/a	LTP331	ltpFR	4	1	0	BRICK	172	1	n/a	0	n/a	n/a	n/a	n/a	n/a
3315999	RECOG_CONF	n/a	LTP331	ltpFR	4	1	0	BRICK	172	n/a	5	0	n/a	n/a	n/a	n/a	n/a
3317587	RECOG_LURE	n/a	LTP331	ltpFR	4	1	n/a	VIKING	1565	0	5	n/a	n/a	n/a	n/a	n/a	n/a
3318375	RECOG_RESP	n/a	LTP331	ltpFR	4	1	n/a	VIKING	1565	0	n/a	n/a	n/a	n/a	n/a	n/a	n/a
3318649	RECOG_CONF	n/a	LTP331	ltpFR	4	1	n/a	VIKING	1565	n/a	5	n/a	n/a	n/a	n/a	n/a	n/a
3320585	RECOG_LURE	n/a	LTP331	ltpFR	4	1	n/a	PERCH	1048	0	3	n/a	n/a	n/a	n/a	n/a	n/a
3321920	RECOG_RESP	n/a	LTP331	ltpFR	4	1	n/a	PERCH	1048	0	n/a	n/a	n/a	n/a	n/a	n/a	n/a
3322807	RECOG_CONF	n/a	LTP331	ltpFR	4	1	n/a	PERCH	1048	n/a	3	n/a	n/a	n/a	n/a	n/a	n/a
3324400	RECOG_LURE	n/a	LTP331	ltpFR	4	1	n/a	ELF	525	0	5	n/a	n/a	n/a	n/a	n/a	n/a
3325175	RECOG_RESP	n/a	LTP331	ltpFR	4	1	n/a	ELF	525	0	n/a	n/a	n/a	n/a	n/a	n/a	n/a
3325899	RECOG_CONF	n/a	LTP331	ltpFR	4	1	n/a	ELF	525	n/a	5	n/a	n/a	n/a	n/a	n/a	n/a
3327432	RECOG_TARGET	n/a	LTP331	ltpFR	4	1	1	CABLE	213	1	3	0	n/a	n/a	n/a	n/a	n/a
3328281	RECOG_RESP	n/a	LTP331	ltpFR	4	1	1	CABLE	213	1	n/a	0	n/a	n/a	n/a	n/a	n/a
3330577	RECOG_CONF	n/a	LTP331	ltpFR	4	1	1	CABLE	213	n/a	3	0	n/a	n/a	n/a	n/a	n/a
3332113	RECOG_TARGET	n/a	LTP331	ltpFR	4	1	0	BEER	114	1	5	0	n/a	n/a	n/a	n/a	n/a
3332811	RECOG_RESP	n/a	LTP331	ltpFR	4	1	0	BEER	114	1	n/a	0	n/a	n/a	n/a	n/a	n/a
3333429	RECOG_CONF	n/a	LTP331	ltpFR	4	1	0	BEER	114	n/a	5	0	n/a	n/a	n/a	n/a	n/a
3334928	RECOG_TARGET	n/a	LTP331	ltpFR	4	1	0	SAGE	1222	0	1	0	n/a	n/a	n/a	n/a	n/a
3335585	RECOG_RESP	n/a	LTP331	ltpFR	4	1	0	SAGE	1222	0	n/a	0	n/a	n/a	n/a	n/a	n/a
3337084	RECOG_CONF	n/a	LTP331	ltpFR	4	1	0	SAGE	1222	n/a	1	0	n/a	n/a	n/a	n/a	n/a
3338860	RECOG_LURE	n/a	LTP331	ltpFR	4	1	n/a	WEB	1598	0	5	n/a	n/a	n/a	n/a	n/a	n/a
3340575	RECOG_RESP	n/a	LTP331	ltpFR	4	1	n/a	WEB	1598	0	n/a	n/a	n/a	n/a	n/a	n/a	n/a
3341179	RECOG_CONF	n/a	LTP331	ltpFR	4	1	n/a	WEB	1598	n/a	5	n/a	n/a	n/a	n/a	n/a	n/a
3342907	RECOG_LURE	n/a	LTP331	ltpFR	4	1	n/a	SCARF	1246	0	5	n/a	n/a	n/a	n/a	n/a	n/a
3343960	RECOG_RESP	n/a	LTP331	ltpFR	4	1	n/a	SCARF	1246	0	n/a	n/a	n/a	n/a	n/a	n/a	n/a
3344629	RECOG_CONF	n/a	LTP331	ltpFR	4	1	n/a	SCARF	1246	n/a	5	n/a	n/a	n/a	n/a	n/a	n/a
3346172	RECOG_LURE	n/a	LTP331	ltpFR	4	1	n/a	HANDBAG	684	0	5	n/a	n/a	n/a	n/a	n/a	n/a
3347115	RECOG_RESP	n/a	LTP331	ltpFR	4	1	n/a	HANDBAG	684	0	n/a	n/a	n/a	n/a	n/a	n/a	n/a
3347739	RECOG_CONF	n/a	LTP331	ltpFR	4	1	n/a	HANDBAG	684	n/a	5	n/a	n/a	n/a	n/a	n/a	n/a
3349387	RECOG_LURE	n/a	LTP331	ltpFR	4	1	n/a	SPRINKLE	1359	0	5	n/a	n/a	n/a	n/a	n/a	n/a
3350125	RECOG_RESP	n/a	LTP331	ltpFR	4	1	n/a	SPRINKLE	1359	0	n/a	n/a	n/a	n/a	n/a	n/a	n/a
3350729	RECOG_CONF	n/a	LTP331	ltpFR	4	1	n/a	SPRINKLE	1359	n/a	5	n/a	n/a	n/a	n/a	n/a	n/a
3352186	RECOG_LURE	n/a	LTP331	ltpFR	4	1	n/a	REINDEER	1181	0	5	n/a	n/a	n/a	n/a	n/a	n/a
3353120	RECOG_RESP	n/a	LTP331	ltpFR	4	1	n/a	REINDEER	1181	0	n/a	n/a	n/a	n/a	n/a	n/a	n/a
3353729	RECOG_CONF	n/a	LTP331	ltpFR	4	1	n/a	REINDEER	1181	n/a	5	n/a	n/a	n/a	n/a	n/a	n/a
3355284	RECOG_TARGET	n/a	LTP331	ltpFR	4	1	-1	BAIT	70	1	5	-1	n/a	n/a	n/a	n/a	n/a
3356001	RECOG_RESP	n/a	LTP331	ltpFR	4	1	-1	BAIT	70	1	n/a	-1	n/a	n/a	n/a	n/a	n/a
3356539	RECOG_CONF	n/a	LTP331	ltpFR	4	1	-1	BAIT	70	n/a	5	-1	n/a	n/a	n/a	n/a	n/a
3358016	RECOG_LURE	n/a	LTP331	ltpFR	4	1	n/a	CERAMICS	271	0	5	n/a	n/a	n/a	n/a	n/a	n/a
3358735	RECOG_RESP	n/a	LTP331	ltpFR	4	1	n/a	CERAMICS	271	0	n/a	n/a	n/a	n/a	n/a	n/a	n/a
3359359	RECOG_CONF	n/a	LTP331	ltpFR	4	1	n/a	CERAMICS	271	n/a	5	n/a	n/a	n/a	n/a	n/a	n/a
3360998	RECOG_TARGET	n/a	LTP331	ltpFR	4	1	1	DOORBELL	487	1	5	0	n/a	n/a	n/a	n/a	n/a
3362516	RECOG_RESP	n/a	LTP331	ltpFR	4	1	1	DOORBELL	487	1	n/a	0	n/a	n/a	n/a	n/a	n/a
3363434	RECOG_CONF	n/a	LTP331	ltpFR	4	1	1	DOORBELL	487	n/a	5	0	n/a	n/a	n/a	n/a	n/a
3365529	RECOG_TARGET	n/a	LTP331	ltpFR	4	1	1	FLEA	577	1	5	0	n/a	n/a	n/a	n/a	n/a
3366751	RECOG_RESP	n/a	LTP331	ltpFR	4	1	1	FLEA	577	1	n/a	0	n/a	n/a	n/a	n/a	n/a
3367429	RECOG_CONF	n/a	LTP331	ltpFR	4	1	1	FLEA	577	n/a	5	0	n/a	n/a	n/a	n/a	n/a
3369061	RECOG_LURE	n/a	LTP331	ltpFR	4	1	n/a	STEP	1377	0	5	n/a	n/a	n/a	n/a	n/a	n/a
3370320	RECOG_RESP	n/a	LTP331	ltpFR	4	1	n/a	STEP	1377	0	n/a	n/a	n/a	n/a	n/a	n/a	n/a
3370849	RECOG_CONF	n/a	LTP331	ltpFR	4	1	n/a	STEP	1377	n/a	5	n/a	n/a	n/a	n/a	n/a	n/a
3372276	RECOG_TARGET	n/a	LTP331	ltpFR	4	1	1	CELLO	268	1	5	0	n/a	n/a	n/a	n/a	n/a
3373091	RECOG_RESP	n/a	LTP331	ltpFR	4	1	1	CELLO	268	1	n/a	0	n/a	n/a	n/a	n/a	n/a
3373686	RECOG_CONF	n/a	LTP331	ltpFR	4	1	1	CELLO	268	n/a	5	0	n/a	n/a	n/a	n/a	n/a
3375075	RECOG_TARGET	n/a	LTP331	ltpFR	4	1	1	UTENSIL	1542	1	5	0	n/a	n/a	n/a	n/a	n/a
3375841	RECOG_RESP	n/a	LTP331	ltpFR	4	1	1	UTENSIL	1542	1	n/a	0	n/a	n/a	n/a	n/a	n/a
3376199	RECOG_CONF	n/a	LTP331	ltpFR	4	1	1	UTENSIL	1542	n/a	5	0	n/a	n/a	n/a	n/a	n/a
3377841	RECOG_TARGET	n/a	LTP331	ltpFR	4	1	-1	CEILING	265	1	5	-1	n/a	n/a	n/a	n/a	n/a
3378721	RECOG_RESP	n/a	LTP331	ltpFR	4	1	-1	CEILING	265	1	n/a	-1	n/a	n/a	n/a	n/a	n/a
3379129	RECOG_CONF	n/a	LTP331	ltpFR	4	1	-1	CEILING	265	n/a	5	-1	n/a	n/a	n/a	n/a	n/a
3382431	REC_START	n/a	LTP331	ltpFR	4	2	n/a	n/a	n/a	n/a	n/a	n/a	n/a	n/a	n/a	n/a	n/a
3382454	RECOG_TARGET	n/a	LTP331	ltpFR	4	2	0	SNORKEL	1336	0	5	0	n/a	n/a	n/a	n/a	n/a
3384454	RECOG_RESP	n/a	LTP331	ltpFR	4	2	0	SNORKEL	1336	0	n/a	0	n/a	n/a	n/a	n/a	n/a
3385288	RECOG_CONF	n/a	LTP331	ltpFR	4	2	0	SNORKEL	1336	n/a	5	0	n/a	n/a	n/a	n/a	n/a
3386770	RECOG_LURE	n/a	LTP331	ltpFR	4	2	n/a	ONION	977	0	4	n/a	n/a	n/a	n/a	n/a	n/a
3389349	RECOG_RESP	n/a	LTP331	ltpFR	4	2	n/a	ONION	977	0	n/a	n/a	n/a	n/a	n/a	n/a	n/a
3397608	RECOG_CONF	n/a	LTP331	ltpFR	4	2	n/a	ONION	977	n/a	4	n/a	n/a	n/a	n/a	n/a	n/a
3399279	RECOG_LURE	n/a	LTP331	ltpFR	4	2	n/a	SNEAKER	1334	0	2	n/a	n/a	n/a	n/a	n/a	n/a
3403644	RECOG_RESP	n/a	LTP331	ltpFR	4	2	n/a	SNEAKER	1334	0	n/a	n/a	n/a	n/a	n/a	n/a	n/a
3404773	RECOG_CONF	n/a	LTP331	ltpFR	4	2	n/a	SNEAKER	1334	n/a	2	n/a	n/a	n/a	n/a	n/a	n/a
3406442	RECOG_LURE	n/a	LTP331	ltpFR	4	2	n/a	WART	1590	0	5	n/a	n/a	n/a	n/a	n/a	n/a
3407834	RECOG_RESP	n/a	LTP331	ltpFR	4	2	n/a	WART	1590	0	n/a	n/a	n/a	n/a	n/a	n/a	n/a
3408428	RECOG_CONF	n/a	LTP331	ltpFR	4	2	n/a	WART	1590	n/a	5	n/a	n/a	n/a	n/a	n/a	n/a
3409907	RECOG_LURE	n/a	LTP331	ltpFR	4	2	n/a	OZONE	996	0	5	n/a	n/a	n/a	n/a	n/a	n/a
3410669	RECOG_RESP	n/a	LTP331	ltpFR	4	2	n/a	OZONE	996	0	n/a	n/a	n/a	n/a	n/a	n/a	n/a
3411568	RECOG_CONF	n/a	LTP331	ltpFR	4	2	n/a	OZONE	996	n/a	5	n/a	n/a	n/a	n/a	n/a	n/a
3413289	RECOG_LURE	n/a	LTP331	ltpFR	4	2	n/a	JAPAN	749	0	5	n/a	n/a	n/a	n/a	n/a	n/a
3414049	RECOG_RESP	n/a	LTP331	ltpFR	4	2	n/a	JAPAN	749	0	n/a	n/a	n/a	n/a	n/a	n/a	n/a
3414628	RECOG_CONF	n/a	LTP331	ltpFR	4	2	n/a	JAPAN	749	n/a	5	n/a	n/a	n/a	n/a	n/a	n/a
3416088	RECOG_TARGET	n/a	LTP331	ltpFR	4	2	0	SHOE	1288	1	5	0	n/a	n/a	n/a	n/a	n/a
3416730	RECOG_RESP	n/a	LTP331	ltpFR	4	2	0	SHOE	1288	1	n/a	0	n/a	n/a	n/a	n/a	n/a
3417278	RECOG_CONF	n/a	LTP331	ltpFR	4	2	0	SHOE	1288	n/a	5	0	n/a	n/a	n/a	n/a	n/a
3418754	RECOG_LURE	n/a	LTP331	ltpFR	4	2	n/a	PASSAGE	1019	0	5	n/a	n/a	n/a	n/a	n/a	n/a
3419564	RECOG_RESP	n/a	LTP331	ltpFR	4	2	n/a	PASSAGE	1019	0	n/a	n/a	n/a	n/a	n/a	n/a	n/a
3420218	RECOG_CONF	n/a	LTP331	ltpFR	4	2	n/a	PASSAGE	1019	n/a	5	n/a	n/a	n/a	n/a	n/a	n/a
3421668	RECOG_LURE	n/a	LTP331	ltpFR	4	2	n/a	FLAG	573	0	5	n/a	n/a	n/a	n/a	n/a	n/a
3423989	RECOG_RESP	n/a	LTP331	ltpFR	4	2	n/a	FLAG	573	0	n/a	n/a	n/a	n/a	n/a	n/a	n/a
3424638	RECOG_CONF	n/a	LTP331	ltpFR	4	2	n/a	FLAG	573	n/a	5	n/a	n/a	n/a	n/a	n/a	n/a
3426116	RECOG_LURE	n/a	LTP331	ltpFR	4	2	n/a	SCREWDRIVER	1255	0	5	n/a	n/a	n/a	n/a	n/a	n/a
3426889	RECOG_RESP	n/a	LTP331	ltpFR	4	2	n/a	SCREWDRIVER	1255	0	n/a	n/a	n/a	n/a	n/a	n/a	n/a
3427448	RECOG_CONF	n/a	LTP331	ltpFR	4	2	n/a	SCREWDRIVER	1255	n/a	5	n/a	n/a	n/a	n/a	n/a	n/a
3428965	RECOG_LURE	n/a	LTP331	ltpFR	4	2	n/a	EYELASH	546	0	5	n/a	n/a	n/a	n/a	n/a	n/a
3430004	RECOG_RESP	n/a	LTP331	ltpFR	4	2	n/a	EYELASH	546	0	n/a	n/a	n/a	n/a	n/a	n/a	n/a
3430968	RECOG_CONF	n/a	LTP331	ltpFR	4	2	n/a	EYELASH	546	n/a	5	n/a	n/a	n/a	n/a	n/a	n/a
3432446	RECOG_LURE	n/a	LTP331	ltpFR	4	2	n/a	NET	946	0	5	n/a	n/a	n/a	n/a	n/a	n/a
3433679	RECOG_RESP	n/a	LTP331	ltpFR	4	2	n/a	NET	946	0	n/a	n/a	n/a	n/a	n/a	n/a	n/a
3434488	RECOG_CONF	n/a	LTP331	ltpFR	4	2	n/a	NET	946	n/a	5	n/a	n/a	n/a	n/a	n/a	n/a
3435911	RECOG_LURE	n/a	LTP331	ltpFR	4	2	n/a	CHILD	299	0	3	n/a	n/a	n/a	n/a	n/a	n/a
3437439	RECOG_RESP	n/a	LTP331	ltpFR	4	2	n/a	CHILD	299	0	n/a	n/a	n/a	n/a	n/a	n/a	n/a
3439066	RECOG_CONF	n/a	LTP331	ltpFR	4	2	n/a	CHILD	299	n/a	3	n/a	n/a	n/a	n/a	n/a	n/a
3440642	RECOG_LURE	n/a	LTP331	ltpFR	4	2	n/a	LITTER	832	0	5	n/a	n/a	n/a	n/a	n/a	n/a
3441479	RECOG_RESP	n/a	LTP331	ltpFR	4	2	n/a	LITTER	832	0	n/a	n/a	n/a	n/a	n/a	n/a	n/a
3441788	RECOG_CONF	n/a	LTP331	ltpFR	4	2	n/a	LITTER	832	n/a	5	n/a	n/a	n/a	n/a	n/a	n/a
3443357	RECOG_TARGET	n/a	LTP331	ltpFR	4	2	0	JACKET	747	1	5	1	n/a	n/a	n/a	n/a	n/a
3444215	RECOG_RESP	n/a	LTP331	ltpFR	4	2	0	JACKET	747	1	n/a	1	n/a	n/a	n/a	n/a	n/a
3444768	RECOG_CONF	n/a	LTP331	ltpFR	4	2	0	JACKET	747	n/a	5	1	n/a	n/a	n/a	n/a	n/a
3446289	RECOG_TARGET	n/a	LTP331	ltpFR	4	2	1	ELM	527	1	5	0	n/a	n/a	n/a	n/a	n/a
3447015	RECOG_RESP	n/a	LTP331	ltpFR	4	2	1	ELM	527	1	n/a	0	n/a	n/a	n/a	n/a	n/a
3447525	RECOG_CONF	n/a	LTP331	ltpFR	4	2	1	ELM	527	n/a	5	0	n/a	n/a	n/a	n/a	n/a
3449038	RECOG_LURE	n/a	LTP331	ltpFR	4	2	n/a	CAB	209	0	5	n/a	n/a	n/a	n/a	n/a	n/a
3449759	RECOG_RESP	n/a	LTP331	ltpFR	4	2	n/a	CAB	209	0	n/a	n/a	n/a	n/a	n/a	n/a	n/a
3450318	RECOG_CONF	n/a	LTP331	ltpFR	4	2	n/a	CAB	209	n/a	5	n/a	n/a	n/a	n/a	n/a	n/a
3451903	RECOG_LURE	n/a	LTP331	ltpFR	4	2	n/a	NUT	965	0	5	n/a	n/a	n/a	n/a	n/a	n/a
3452584	RECOG_RESP	n/a	LTP331	ltpFR	4	2	n/a	NUT	965	0	n/a	n/a	n/a	n/a	n/a	n/a	n/a
3454148	RECOG_CONF	n/a	LTP331	ltpFR	4	2	n/a	NUT	965	n/a	5	n/a	n/a	n/a	n/a	n/a	n/a
3455786	RECOG_LURE	n/a	LTP331	ltpFR	4	2	n/a	WOLF	1619	0	5	n/a	n/a	n/a	n/a	n/a	n/a
3456504	RECOG_RESP	n/a	LTP331	ltpFR	4	2	n/a	WOLF	1619	0	n/a	n/a	n/a	n/a	n/a	n/a	n/a
3457128	RECOG_CONF	n/a	LTP331	ltpFR	4	2	n/a	WOLF	1619	n/a	5	n/a	n/a	n/a	n/a	n/a	n/a
3458683	RECOG_LURE	n/a	LTP331	ltpFR	4	2	n/a	TOAST	1471	0	5	n/a	n/a	n/a	n/a	n/a	n/a
3459434	RECOG_RESP	n/a	LTP331	ltpFR	4	2	n/a	TOAST	1471	0	n/a	n/a	n/a	n/a	n/a	n/a	n/a
3459788	RECOG_CONF	n/a	LTP331	ltpFR	4	2	n/a	TOAST	1471	n/a	5	n/a	n/a	n/a	n/a	n/a	n/a
3463224	REC_START	n/a	LTP331	ltpFR	4	3	n/a	n/a	n/a	n/a	n/a	n/a	n/a	n/a	n/a	n/a	n/a
3463264	RECOG_LURE	n/a	LTP331	ltpFR	4	3	n/a	SPHINX	1349	0	5	n/a	n/a	n/a	n/a	n/a	n/a
3463912	RECOG_RESP	n/a	LTP331	ltpFR	4	3	n/a	SPHINX	1349	0	n/a	n/a	n/a	n/a	n/a	n/a	n/a
3464451	RECOG_CONF	n/a	LTP331	ltpFR	4	3	n/a	SPHINX	1349	n/a	5	n/a	n/a	n/a	n/a	n/a	n/a
3465847	RECOG_TARGET	n/a	LTP331	ltpFR	4	3	0	VAULT	1550	1	5	1	n/a	n/a	n/a	n/a	n/a
3466863	RECOG_RESP	n/a	LTP331	ltpFR	4	3	0	VAULT	1550	1	n/a	1	n/a	n/a	n/a	n/a	n/a
3467501	RECOG_CONF	n/a	LTP331	ltpFR	4	3	0	VAULT	1550	n/a	5	1	n/a	n/a	n/a	n/a	n/a
3468945	RECOG_TARGET	n/a	LTP331	ltpFR	4	3	1	LOFT	840	1	5	0	n/a	n/a	n/a	n/a	n/a
3469548	RECOG_RESP	n/a	LTP331	ltpFR	4	3	1	LOFT	840	1	n/a	0	n/a	n/a	n/a	n/a	n/a
3469971	RECOG_CONF	n/a	LTP331	ltpFR	4	3	1	LOFT	840	n/a	5	0	n/a	n/a	n/a	n/a	n/a
3471560	RECOG_TARGET	n/a	LTP331	ltpFR	4	3	1	UNIFORM	1539	1	5	0	n/a	n/a	n/a	n/a	n/a
3472148	RECOG_RESP	n/a	LTP331	ltpFR	4	3	1	UNIFORM	1539	1	n/a	0	n/a	n/a	n/a	n/a	n/a
3472721	RECOG_CONF	n/a	LTP331	ltpFR	4	3	1	UNIFORM	1539	n/a	5	0	n/a	n/a	n/a	n/a	n/a
3474092	RECOG_LURE	n/a	LTP331	ltpFR	4	3	n/a	LONDON	843	0	5	n/a	n/a	n/a	n/a	n/a	n/a
3474777	RECOG_RESP	n/a	LTP331	ltpFR	4	3	n/a	LONDON	843	0	n/a	n/a	n/a	n/a	n/a	n/a	n/a
3475421	RECOG_CONF	n/a	LTP331	ltpFR	4	3	n/a	LONDON	843	n/a	5	n/a	n/a	n/a	n/a	n/a	n/a
3476858	RECOG_LURE	n/a	LTP331	ltpFR	4	3	n/a	RULER	1216	0	5	n/a	n/a	n/a	n/a	n/a	n/a
3478377	RECOG_RESP	n/a	LTP331	ltpFR	4	3	n/a	RULER	1216	0	n/a	n/a	n/a	n/a	n/a	n/a	n/a
3479161	RECOG_CONF	n/a	LTP331	ltpFR	4	3	n/a	RULER	1216	n/a	5	n/a	n/a	n/a	n/a	n/a	n/a
3480773	RECOG_TARGET	n/a	LTP331	ltpFR	4	3	1	MAYONNAISE	880	1	5	0	n/a	n/a	n/a	n/a	n/a
3481503	RECOG_RESP	n/a	LTP331	ltpFR	4	3	1	MAYONNAISE	880	1	n/a	0	n/a	n/a	n/a	n/a	n/a
3482478	RECOG_CONF	n/a	LTP331	ltpFR	4	3	1	MAYONNAISE	880	n/a	5	0	n/a	n/a	n/a	n/a	n/a
3483521	RECOG_LURE	n/a	LTP331	ltpFR	4	3	n/a	TANK	1432	0	5	n/a	n/a	n/a	n/a	n/a	n/a
3484627	RECOG_RESP	n/a	LTP331	ltpFR	4	3	n/a	TANK	1432	0	n/a	n/a	n/a	n/a	n/a	n/a	n/a
3485441	RECOG_CONF	n/a	LTP331	ltpFR	4	3	n/a	TANK	1432	n/a	5	n/a	n/a	n/a	n/a	n/a	n/a
3487086	RECOG_TARGET	n/a	LTP331	ltpFR	4	3	1	BRAN	167	1	5	1	n/a	n/a	n/a	n/a	n/a
3487778	RECOG_RESP	n/a	LTP331	ltpFR	4	3	1	BRAN	167	1	n/a	1	n/a	n/a	n/a	n/a	n/a
3488391	RECOG_CONF	n/a	LTP331	ltpFR	4	3	1	BRAN	167	n/a	5	1	n/a	n/a	n/a	n/a	n/a
3489885	RECOG_TARGET	n/a	LTP331	ltpFR	4	3	1	DANDRUFF	439	1	5	0	n/a	n/a	n/a	n/a	n/a
3490818	RECOG_RESP	n/a	LTP331	ltpFR	4	3	1	DANDRUFF	439	1	n/a	0	n/a	n/a	n/a	n/a	n/a
3491241	RECOG_CONF	n/a	LTP331	ltpFR	4	3	1	DANDRUFF	439	n/a	5	0	n/a	n/a	n/a	n/a	n/a
3492784	RECOG_LURE	n/a	LTP331	ltpFR	4	3	n/a	LION	827	0	5	n/a	n/a	n/a	n/a	n/a	n/a
3493687	RECOG_RESP	n/a	LTP331	ltpFR	4	3	n/a	LION	827	0	n/a	n/a	n/a	n/a	n/a	n/a	n/a
3494221	RECOG_CONF	n/a	LTP331	ltpFR	4	3	n/a	LION	827	n/a	5	n/a	n/a	n/a	n/a	n/a	n/a
3495749	RECOG_TARGET	n/a	LTP331	ltpFR	4	3	1	FELLOW	558	1	5	0	n/a	n/a	n/a	n/a	n/a
3496438	RECOG_RESP	n/a	LTP331	ltpFR	4	3	1	FELLOW	558	1	n/a	0	n/a	n/a	n/a	n/a	n/a
3497041	RECOG_CONF	n/a	LTP331	ltpFR	4	3	1	FELLOW	558	n/a	5	0	n/a	n/a	n/a	n/a	n/a
3498447	RECOG_TARGET	n/a	LTP331	ltpFR	4	3	0	SLEIGH	1325	1	5	1	n/a	n/a	n/a	n/a	n/a
3499188	RECOG_RESP	n/a	LTP331	ltpFR	4	3	0	SLEIGH	1325	1	n/a	1	n/a	n/a	n/a	n/a	n/a
3499561	RECOG_CONF	n/a	LTP331	ltpFR	4	3	0	SLEIGH	1325	n/a	5	1	n/a	n/a	n/a	n/a	n/a
3501179	RECOG_TARGET	n/a	LTP331	ltpFR	4	3	1	MAT	877	1	5	0	n/a	n/a	n/a	n/a	n/a
3502033	RECOG_RESP	n/a	LTP331	ltpFR	4	3	1	MAT	877	1	n/a	0	n/a	n/a	n/a	n/a	n/a
3502778	RECOG_CONF	n/a	LTP331	ltpFR	4	3	1	MAT	877	n/a	5	0	n/a	n/a	n/a	n/a	n/a
3504227	RECOG_LURE	n/a	LTP331	ltpFR	4	3	n/a	BOULEVARD	156	0	5	n/a	n/a	n/a	n/a	n/a	n/a
3504992	RECOG_RESP	n/a	LTP331	ltpFR	4	3	n/a	BOULEVARD	156	0	n/a	n/a	n/a	n/a	n/a	n/a	n/a
3505631	RECOG_CONF	n/a	LTP331	ltpFR	4	3	n/a	BOULEVARD	156	n/a	5	n/a	n/a	n/a	n/a	n/a	n/a
3507092	RECOG_TARGET	n/a	LTP331	ltpFR	4	3	0	GANG	619	1	5	1	n/a	n/a	n/a	n/a	n/a
3507728	RECOG_RESP	n/a	LTP331	ltpFR	4	3	0	GANG	619	1	n/a	1	n/a	n/a	n/a	n/a	n/a
3508021	RECOG_CONF	n/a	LTP331	ltpFR	4	3	0	GANG	619	n/a	5	1	n/a	n/a	n/a	n/a	n/a
3509842	RECOG_TARGET	n/a	LTP331	ltpFR	4	3	0	BOULDER	155	1	5	1	n/a	n/a	n/a	n/a	n/a
3511383	RECOG_RESP	n/a	LTP331	ltpFR	4	3	0	BOULDER	155	1	n/a	1	n/a	n/a	n/a	n/a	n/a
3511981	RECOG_CONF	n/a	LTP331	ltpFR	4	3	0	BOULDER	155	n/a	5	1	n/a	n/a	n/a	n/a	n/a
3513639	RECOG_LURE	n/a	LTP331	ltpFR	4	3	n/a	SERVER	1272	0	3	n/a	n/a	n/a	n/a	n/a	n/a
3516437	RECOG_RESP	n/a	LTP331	ltpFR	4	3	n/a	SERVER	1272	0	n/a	n/a	n/a	n/a	n/a	n/a	n/a
3516799	RECOG_CONF	n/a	LTP331	ltpFR	4	3	n/a	SERVER	1272	n/a	3	n/a	n/a	n/a	n/a	n/a	n/a
3518754	RECOG_LURE	n/a	LTP331	ltpFR	4	3	n/a	SWORD	1423	1	1	n/a	n/a	n/a	n/a	n/a	n/a
3519803	RECOG_RESP	n/a	LTP331	ltpFR	4	3	n/a	SWORD	1423	1	n/a	n/a	n/a	n/a	n/a	n/a	n/a
3521456	RECOG_CONF	n/a	LTP331	ltpFR	4	3	n/a	SWORD	1423	n/a	1	n/a	n/a	n/a	n/a	n/a	n/a
3523584	RECOG_LURE	n/a	LTP331	ltpFR	4	3	n/a	OATS	968	1	5	n/a	n/a	n/a	n/a	n/a	n/a
3524728	RECOG_RESP	n/a	LTP331	ltpFR	4	3	n/a	OATS	968	1	n/a	n/a	n/a	n/a	n/a	n/a	n/a
3524991	RECOG_CONF	n/a	LTP331	ltpFR	4	3	n/a	OATS	968	n/a	5	n/a	n/a	n/a	n/a	n/a	n/a
3529200	REC_START	n/a	LTP331	ltpFR	4	4	n/a	n/a	n/a	n/a	n/a	n/a	n/a	n/a	n/a	n/a	n/a
3529231	RECOG_TARGET	n/a	LTP331	ltpFR	4	4	-1	RADIO	1157	1	5	-1	n/a	n/a	n/a	n/a	n/a
3530114	RECOG_RESP	n/a	LTP331	ltpFR	4	4	-1	RADIO	1157	1	n/a	-1	n/a	n/a	n/a	n/a	n/a
3530637	RECOG_CONF	n/a	LTP331	ltpFR	4	4	-1	RADIO	1157	n/a	5	-1	n/a	n/a	n/a	n/a	n/a
3532197	RECOG_TARGET	n/a	LTP331	ltpFR	4	4	1	FOUNTAIN	597	1	5	0	n/a	n/a	n/a	n/a	n/a
3532964	RECOG_RESP	n/a	LTP331	ltpFR	4	4	1	FOUNTAIN	597	1	n/a	0	n/a	n/a	n/a	n/a	n/a
3533357	RECOG_CONF	n/a	LTP331	ltpFR	4	4	1	FOUNTAIN	597	n/a	5	0	n/a	n/a	n/a	n/a	n/a
3535028	RECOG_TARGET	n/a	LTP331	ltpFR	4	4	-1	BLENDER	136	1	5	-1	n/a	n/a	n/a	n/a	n/a
3535844	RECOG_RESP	n/a	LTP331	ltpFR	4	4	-1	BLENDER	136	1	n/a	-1	n/a	n/a	n/a	n/a	n/a
3536287	RECOG_CONF	n/a	LTP331	ltpFR	4	4	-1	BLENDER	136	n/a	5	-1	n/a	n/a	n/a	n/a	n/a
3538010	RECOG_LURE	n/a	LTP331	ltpFR	4	4	n/a	BOY	161	0	5	n/a	n/a	n/a	n/a	n/a	n/a
3538648	RECOG_RESP	n/a	LTP331	ltpFR	4	4	n/a	BOY	161	0	n/a	n/a	n/a	n/a	n/a	n/a	n/a
3538997	RECOG_CONF	n/a	LTP331	ltpFR	4	4	n/a	BOY	161	n/a	5	n/a	n/a	n/a	n/a	n/a	n/a
3540659	RECOG_TARGET	n/a	LTP331	ltpFR	4	4	0	DUST	508	1	5	0	n/a	n/a	n/a	n/a	n/a
3541494	RECOG_RESP	n/a	LTP331	ltpFR	4	4	0	DUST	508	1	n/a	0	n/a	n/a	n/a	n/a	n/a
3542067	RECOG_CONF	n/a	LTP331	ltpFR	4	4	0	DUST	508	n/a	5	0	n/a	n/a	n/a	n/a	n/a
3543491	RECOG_TARGET	n/a	LTP331	ltpFR	4	4	0	STONE	1385	1	5	1	n/a	n/a	n/a	n/a	n/a
3544519	RECOG_RESP	n/a	LTP331	ltpFR	4	4	0	STONE	1385	1	n/a	1	n/a	n/a	n/a	n/a	n/a
3545164	RECOG_CONF	n/a	LTP331	ltpFR	4	4	0	STONE	1385	n/a	5	1	n/a	n/a	n/a	n/a	n/a
3546723	RECOG_LURE	n/a	LTP331	ltpFR	4	4	n/a	OUTDOORS	987	0	5	n/a	n/a	n/a	n/a	n/a	n/a
3547473	RECOG_RESP	n/a	LTP331	ltpFR	4	4	n/a	OUTDOORS	987	0	n/a	n/a	n/a	n/a	n/a	n/a	n/a
3548017	RECOG_CONF	n/a	LTP331	ltpFR	4	4	n/a	OUTDOORS	987	n/a	5	n/a	n/a	n/a	n/a	n/a	n/a
3549571	RECOG_LURE	n/a	LTP331	ltpFR	4	4	n/a	ASHTRAY	45	0	5	n/a	n/a	n/a	n/a	n/a	n/a
3550618	RECOG_RESP	n/a	LTP331	ltpFR	4	4	n/a	ASHTRAY	45	0	n/a	n/a	n/a	n/a	n/a	n/a	n/a
3550917	RECOG_CONF	n/a	LTP331	ltpFR	4	4	n/a	ASHTRAY	45	n/a	5	n/a	n/a	n/a	n/a	n/a	n/a
3552737	RECOG_LURE	n/a	LTP331	ltpFR	4	4	n/a	QUILL	1150	0	5	n/a	n/a	n/a	n/a	n/a	n/a
3553973	RECOG_RESP	n/a	LTP331	ltpFR	4	4	n/a	QUILL	1150	0	n/a	n/a	n/a	n/a	n/a	n/a	n/a
3554517	RECOG_CONF	n/a	LTP331	ltpFR	4	4	n/a	QUILL	1150	n/a	5	n/a	n/a	n/a	n/a	n/a	n/a
3555968	RECOG_TARGET	n/a	LTP331	ltpFR	4	4	0	JURY	766	1	5	1	n/a	n/a	n/a	n/a	n/a
3556744	RECOG_RESP	n/a	LTP331	ltpFR	4	4	0	JURY	766	1	n/a	1	n/a	n/a	n/a	n/a	n/a
3557167	RECOG_CONF	n/a	LTP331	ltpFR	4	4	0	JURY	766	n/a	5	1	n/a	n/a	n/a	n/a	n/a
3558851	RECOG_LURE	n/a	LTP331	ltpFR	4	4	n/a	EGG	518	0	5	n/a	n/a	n/a	n/a	n/a	n/a
3559608	RECOG_RESP	n/a	LTP331	ltpFR	4	4	n/a	EGG	518	0	n/a	n/a	n/a	n/a	n/a	n/a	n/a
3560017	RECOG_CONF	n/a	LTP331	ltpFR	4	4	n/a	EGG	518	n/a	5	n/a	n/a	n/a	n/a	n/a	n/a
3561615	RECOG_LURE	n/a	LTP331	ltpFR	4	4	n/a	SIBLING	1301	0	3	n/a	n/a	n/a	n/a	n/a	n/a
3562458	RECOG_RESP	n/a	LTP331	ltpFR	4	4	n/a	SIBLING	1301	0	n/a	n/a	n/a	n/a	n/a	n/a	n/a
3565575	RECOG_CONF	n/a	LTP331	ltpFR	4	4	n/a	SIBLING	1301	n/a	3	n/a	n/a	n/a	n/a	n/a	n/a
3567163	RECOG_LURE	n/a	LTP331	ltpFR	4	4	n/a	FIN	566	0	5	n/a	n/a	n/a	n/a	n/a	n/a
3568733	RECOG_RESP	n/a	LTP331	ltpFR	4	4	n/a	FIN	566	0	n/a	n/a	n/a	n/a	n/a	n/a	n/a
3569207	RECOG_CONF	n/a	LTP331	ltpFR	4	4	n/a	FIN	566	n/a	5	n/a	n/a	n/a	n/a	n/a	n/a
3570677	RECOG_LURE	n/a	LTP331	ltpFR	4	4	n/a	BULLETIN	195	0	5	n/a	n/a	n/a	n/a	n/a	n/a
3571263	RECOG_RESP	n/a	LTP331	ltpFR	4	4	n/a	BULLETIN	195	0	n/a	n/a	n/a	n/a	n/a	n/a	n/a
3572437	RECOG_CONF	n/a	LTP331	ltpFR	4	4	n/a	BULLETIN	195	n/a	5	n/a	n/a	n/a	n/a	n/a	n/a
3573860	RECOG_LURE	n/a	LTP331	ltpFR	4	4	n/a	CARTON	251	0	5	n/a	n/a	n/a	n/a	n/a	n/a
3574893	RECOG_RESP	n/a	LTP331	ltpFR	4	4	n/a	CARTON	251	0	n/a	n/a	n/a	n/a	n/a	n/a	n/a
3575447	RECOG_CONF	n/a	LTP331	ltpFR	4	4	n/a	CARTON	251	n/a	5	n/a	n/a	n/a	n/a	n/a	n/a
3576892	RECOG_LURE	n/a	LTP331	ltpFR	4	4	n/a	NICOTINE	951	0	5	n/a	n/a	n/a	n/a	n/a	n/a
3577543	RECOG_RESP	n/a	LTP331	ltpFR	4	4	n/a	NICOTINE	951	0	n/a	n/a	n/a	n/a	n/a	n/a	n/a
3577877	RECOG_CONF	n/a	LTP331	ltpFR	4	4	n/a	NICOTINE	951	n/a	5	n/a	n/a	n/a	n/a	n/a	n/a
3579540	RECOG_LURE	n/a	LTP331	ltpFR	4	4	n/a	SCHOOL	1248	0	5	n/a	n/a	n/a	n/a	n/a	n/a
3580278	RECOG_RESP	n/a	LTP331	ltpFR	4	4	n/a	SCHOOL	1248	0	n/a	n/a	n/a	n/a	n/a	n/a	n/a
3581357	RECOG_CONF	n/a	LTP331	ltpFR	4	4	n/a	SCHOOL	1248	n/a	5	n/a	n/a	n/a	n/a	n/a	n/a
3583005	RECOG_LURE	n/a	LTP331	ltpFR	4	4	n/a	LIST	830	1	3	n/a	n/a	n/a	n/a	n/a	n/a
3583909	RECOG_RESP	n/a	LTP331	ltpFR	4	4	n/a	LIST	830	1	n/a	n/a	n/a	n/a	n/a	n/a	n/a
3584815	RECOG_CONF	n/a	LTP331	ltpFR	4	4	n/a	LIST	830	n/a	3	n/a	n/a	n/a	n/a	n/a	n/a
3586336	RECOG_TARGET	n/a	LTP331	ltpFR	4	4	1	JOINT	758	1	5	0	n/a	n/a	n/a	n/a	n/a
3587074	RECOG_RESP	n/a	LTP331	ltpFR	4	4	1	JOINT	758	1	n/a	0	n/a	n/a	n/a	n/a	n/a
3587577	RECOG_CONF	n/a	LTP331	ltpFR	4	4	1	JOINT	758	n/a	5	0	n/a	n/a	n/a	n/a	n/a
3589168	RECOG_LURE	n/a	LTP331	ltpFR	4	4	n/a	BEAD	103	0	2	n/a	n/a	n/a	n/a	n/a	n/a
3590678	RECOG_RESP	n/a	LTP331	ltpFR	4	4	n/a	BEAD	103	0	n/a	n/a	n/a	n/a	n/a	n/a	n/a
3591882	RECOG_CONF	n/a	LTP331	ltpFR	4	4	n/a	BEAD	103	n/a	2	n/a	n/a	n/a	n/a	n/a	n/a
3595352	REC_START	n/a	LTP331	ltpFR	4	5	n/a	n/a	n/a	n/a	n/a	n/a	n/a	n/a	n/a	n/a	n/a
3595382	RECOG_TARGET	n/a	LTP331	ltpFR	4	5	0	BRUSH	182	0	5	0	n/a	n/a	n/a	n/a	n/a
3596055	RECOG_RESP	n/a	LTP331	ltpFR	4	5	0	BRUSH	182	0	n/a	0	n/a	n/a	n/a	n/a	n/a
3597609	RECOG_CONF	n/a	LTP331	ltpFR	4	5	0	BRUSH	182	n/a	5	0	n/a	n/a	n/a	n/a	n/a
3599280	RECOG_TARGET	n/a	LTP331	ltpFR	4	5	-1	VEST	1559	1	5	-1	n/a	n/a	n/a	n/a	n/a
3600251	RECOG_RESP	n/a	LTP331	ltpFR	4	5	-1	VEST	1559	1	n/a	-1	n/a	n/a	n/a	n/a	n/a
3600879	RECOG_CONF	n/a	LTP331	ltpFR	4	5	-1	VEST	1559	n/a	5	-1	n/a	n/a	n/a	n/a	n/a
3602328	RECOG_TARGET	n/a	LTP331	ltpFR	4	5	0	MATCH	878	1	1	1	n/a	n/a	n/a	n/a	n/a
3606094	RECOG_RESP_VV	n/a	LTP331	ltpFR	4	5	0	MATCH	878	n/a	2	1	n/a	n/a	n/a	n/a	n/a
3611779	RECOG_RESP	n/a	LTP331	ltpFR	4	5	0	MATCH	878	1	n/a	1	n/a	n/a	n/a	n/a	n/a
3612879	RECOG_CONF	n/a	LTP331	ltpFR	4	5	0	MATCH	878	n/a	1	1	n/a	n/a	n/a	n/a	n/a
3614389	RECOG_LURE	n/a	LTP331	ltpFR	4	5	n/a	ICE	730	0	5	n/a	n/a	n/a	n/a	n/a	n/a
3616584	RECOG_RESP	n/a	LTP331	ltpFR	4	5	n/a	ICE	730	0	n/a	n/a	n/a	n/a	n/a	n/a	n/a
3617869	RECOG_CONF	n/a	LTP331	ltpFR	4	5	n/a	ICE	730	n/a	5	n/a	n/a	n/a	n/a	n/a	n/a
3619871	RECOG_TARGET	n/a	LTP331	ltpFR	4	5	-1	TONGUE	1479	1	5	-1	n/a	n/a	n/a	n/a	n/a
3621206	RECOG_RESP	n/a	LTP331	ltpFR	4	5	-1	TONGUE	1479	1	n/a	-1	n/a	n/a	n/a	n/a	n/a
3622019	RECOG_CONF	n/a	LTP331	ltpFR	4	5	-1	TONGUE	1479	n/a	5	-1	n/a	n/a	n/a	n/a	n/a
3623534	RECOG_TARGET	n/a	LTP331	ltpFR	4	5	0	CAFE	216	1	5	1	n/a	n/a	n/a	n/a	n/a
3625651	RECOG_RESP	n/a	LTP331	ltpFR	4	5	0	CAFE	216	1	n/a	1	n/a	n/a	n/a	n/a	n/a
3626119	RECOG_CONF	n/a	LTP331	ltpFR	4	5	0	CAFE	216	n/a	5	1	n/a	n/a	n/a	n/a	n/a
3627850	RECOG_TARGET	n/a	LTP331	ltpFR	4	5	1	CHAMPAGNE	278	1	5	0	n/a	n/a	n/a	n/a	n/a
3628626	RECOG_RESP	n/a	LTP331	ltpFR	4	5	1	CHAMPAGNE	278	1	n/a	0	n/a	n/a	n/a	n/a	n/a
3629109	RECOG_CONF	n/a	LTP331	ltpFR	4	5	1	CHAMPAGNE	278	n/a	5	0	n/a	n/a	n/a	n/a	n/a
3630614	RECOG_TARGET	n/a	LTP331	ltpFR	4	5	0	DRAGON	492	1	5	1	n/a	n/a	n/a	n/a	n/a
3631406	RECOG_RESP	n/a	LTP331	ltpFR	4	5	0	DRAGON	492	1	n/a	1	n/a	n/a	n/a	n/a	n/a
3631789	RECOG_CONF	n/a	LTP331	ltpFR	4	5	0	DRAGON	492	n/a	5	1	n/a	n/a	n/a	n/a	n/a
3633380	RECOG_TARGET	n/a	LTP331	ltpFR	4	5	1	SISTER	1312	1	5	1	n/a	n/a	n/a	n/a	n/a
3633991	RECOG_RESP	n/a	LTP331	ltpFR	4	5	1	SISTER	1312	1	n/a	1	n/a	n/a	n/a	n/a	n/a
3634519	RECOG_CONF	n/a	LTP331	ltpFR	4	5	1	SISTER	1312	n/a	5	1	n/a	n/a	n/a	n/a	n/a
3635962	RECOG_LURE	n/a	LTP331	ltpFR	4	5	n/a	ASIA	46	0	5	n/a	n/a	n/a	n/a	n/a	n/a
3636470	RECOG_RESP	n/a	LTP331	ltpFR	4	5	n/a	ASIA	46	0	n/a	n/a	n/a	n/a	n/a	n/a	n/a
3637029	RECOG_CONF	n/a	LTP331	ltpFR	4	5	n/a	ASIA	46	n/a	5	n/a	n/a	n/a	n/a	n/a	n/a
3638527	RECOG_TARGET	n/a	LTP331	ltpFR	4	5	-1	MOTEL	919	1	5	-1	n/a	n/a	n/a	n/a	n/a
3639006	RECOG_RESP	n/a	LTP331	ltpFR	4	5	-1	MOTEL	919	1	n/a	-1	n/a	n/a	n/a	n/a	n/a
3639579	RECOG_CONF	n/a	LTP331	ltpFR	4	5	-1	MOTEL	919	n/a	5	-1	n/a	n/a	n/a	n/a	n/a
3641109	RECOG_LURE	n/a	LTP331	ltpFR	4	5	n/a	GRIZZLY	662	0	5	n/a	n/a	n/a	n/a	n/a	n/a
3641635	RECOG_RESP	n/a	LTP331	ltpFR	4	5	n/a	GRIZZLY	662	0	n/a	n/a	n/a	n/a	n/a	n/a	n/a
3642306	RECOG_CONF	n/a	LTP331	ltpFR	4	5	n/a	GRIZZLY	662	n/a	5	n/a	n/a	n/a	n/a	n/a	n/a
3643724	RECOG_LURE	n/a	LTP331	ltpFR	4	5	n/a	GLOBE	641	0	5	n/a	n/a	n/a	n/a	n/a	n/a
3644205	RECOG_RESP	n/a	LTP331	ltpFR	4	5	n/a	GLOBE	641	0	n/a	n/a	n/a	n/a	n/a	n/a	n/a
3644739	RECOG_CONF	n/a	LTP331	ltpFR	4	5	n/a	GLOBE	641	n/a	5	n/a	n/a	n/a	n/a	n/a	n/a
3646306	RECOG_TARGET	n/a	LTP331	ltpFR	4	5	-1	PLAYGROUND	1087	1	5	-1	n/a	n/a	n/a	n/a	n/a
3646801	RECOG_RESP	n/a	LTP331	ltpFR	4	5	-1	PLAYGROUND	1087	1	n/a	-1	n/a	n/a	n/a	n/a	n/a
3647399	RECOG_CONF	n/a	LTP331	ltpFR	4	5	-1	PLAYGROUND	1087	n/a	5	-1	n/a	n/a	n/a	n/a	n/a
3649005	RECOG_TARGET	n/a	LTP331	ltpFR	4	5	1	PANTHER	1009	1	5	1	n/a	n/a	n/a	n/a	n/a
3649506	RECOG_RESP	n/a	LTP331	ltpFR	4	5	1	PANTHER	1009	1	n/a	1	n/a	n/a	n/a	n/a	n/a
3649959	RECOG_CONF	n/a	LTP331	ltpFR	4	5	1	PANTHER	1009	n/a	5	1	n/a	n/a	n/a	n/a	n/a
3651571	RECOG_TARGET	n/a	LTP331	ltpFR	4	5	0	KITCHEN	778	1	5	0	n/a	n/a	n/a	n/a	n/a
3652051	RECOG_RESP	n/a	LTP331	ltpFR	4	5	0	KITCHEN	778	1	n/a	0	n/a	n/a	n/a	n/a	n/a
3652359	RECOG_CONF	n/a	LTP331	ltpFR	4	5	0	KITCHEN	778	n/a	5	0	n/a	n/a	n/a	n/a	n/a
3654036	RECOG_TARGET	n/a	LTP331	ltpFR	4	5	-1	GOWN	652	1	5	-1	n/a	n/a	n/a	n/a	n/a
3654671	RECOG_RESP	n/a	LTP331	ltpFR	4	5	-1	GOWN	652	1	n/a	-1	n/a	n/a	n/a	n/a	n/a
3655219	RECOG_CONF	n/a	LTP331	ltpFR	4	5	-1	GOWN	652	n/a	5	-1	n/a	n/a	n/a	n/a	n/a
3656701	RECOG_LURE	n/a	LTP331	ltpFR	4	5	n/a	ROOM	1206	0	5	n/a	n/a	n/a	n/a	n/a	n/a
3657315	RECOG_RESP	n/a	LTP331	ltpFR	4	5	n/a	ROOM	1206	0	n/a	n/a	n/a	n/a	n/a	n/a	n/a
3657889	RECOG_CONF	n/a	LTP331	ltpFR	4	5	n/a	ROOM	1206	n/a	5	n/a	n/a	n/a	n/a	n/a	n/a
3659383	RECOG_TARGET	n/a	LTP331	ltpFR	4	5	1	SPICE	1350	1	5	0	n/a	n/a	n/a	n/a	n/a
3659886	RECOG_RESP	n/a	LTP331	ltpFR	4	5	1	SPICE	1350	1	n/a	0	n/a	n/a	n/a	n/a	n/a
3660299	RECOG_CONF	n/a	LTP331	ltpFR	4	5	1	SPICE	1350	n/a	5	0	n/a	n/a	n/a	n/a	n/a
3661915	RECOG_TARGET	n/a	LTP331	ltpFR	4	5	1	PAPER	1011	1	5	0	n/a	n/a	n/a	n/a	n/a
3663011	RECOG_RESP	n/a	LTP331	ltpFR	4	5	1	PAPER	1011	1	n/a	0	n/a	n/a	n/a	n/a	n/a
3663599	RECOG_CONF	n/a	LTP331	ltpFR	4	5	1	PAPER	1011	n/a	5	0	n/a	n/a	n/a	n/a	n/a
3666840	REC_START	n/a	LTP331	ltpFR	4	6	n/a	n/a	n/a	n/a	n/a	n/a	n/a	n/a	n/a	n/a	n/a
3666864	RECOG_LURE	n/a	LTP331	ltpFR	4	6	n/a	SNAKE	1333	0	5	n/a	n/a	n/a	n/a	n/a	n/a
3667853	RECOG_RESP	n/a	LTP331	ltpFR	4	6	n/a	SNAKE	1333	0	n/a	n/a	n/a	n/a	n/a	n/a	n/a
3668387	RECOG_CONF	n/a	LTP331	ltpFR	4	6	n/a	SNAKE	1333	n/a	5	n/a	n/a	n/a	n/a	n/a	n/a
3669879	RECOG_LURE	n/a	LTP331	ltpFR	4	6	n/a	SPAGHETTI	1346	0	5	n/a	n/a	n/a	n/a	n/a	n/a
3670433	RECOG_RESP	n/a	LTP331	ltpFR	4	6	n/a	SPAGHETTI	1346	0	n/a	n/a	n/a	n/a	n/a	n/a	n/a
3670957	RECOG_CONF	n/a	LTP331	ltpFR	4	6	n/a	SPAGHETTI	1346	n/a	5	n/a	n/a	n/a	n/a	n/a	n/a
3672294	RECOG_TARGET	n/a	LTP331	ltpFR	4	6	0	TAPE	1433	1	5	0	n/a	n/a	n/a	n/a	n/a
3672794	RECOG_RESP	n/a	LTP331	ltpFR	4	6	0	TAPE	1433	1	n/a	0	n/a	n/a	n/a	n/a	n/a
3673287	RECOG_CONF	n/a	LTP331	ltpFR	4	6	0	TAPE	1433	n/a	5	0	n/a	n/a	n/a	n/a	n/a
3674843	RECOG_LURE	n/a	LTP331	ltpFR	4	6	n/a	SIGN	1305	0	5	n/a	n/a	n/a	n/a	n/a	n/a
3675428	RECOG_RESP	n/a	LTP331	ltpFR	4	6	n/a	SIGN	1305	0	n/a	n/a	n/a	n/a	n/a	n/a	n/a
3676027	RECOG_CONF	n/a	LTP331	ltpFR	4	6	n/a	SIGN	1305	n/a	5	n/a	n/a	n/a	n/a	n/a	n/a
3677508	RECOG_LURE	n/a	LTP331	ltpFR	4	6	n/a	STEWARDESS	1381	0	5	n/a	n/a	n/a	n/a	n/a	n/a
3678038	RECOG_RESP	n/a	LTP331	ltpFR	4	6	n/a	STEWARDESS	1381	0	n/a	n/a	n/a	n/a	n/a	n/a	n/a
3678387	RECOG_CONF	n/a	LTP331	ltpFR	4	6	n/a	STEWARDESS	1381	n/a	5	n/a	n/a	n/a	n/a	n/a	n/a
3680256	RECOG_LURE	n/a	LTP331	ltpFR	4	6	n/a	RESTAURANT	1187	1	2	n/a	n/a	n/a	n/a	n/a	n/a
3682184	RECOG_RESP	n/a	LTP331	ltpFR	4	6	n/a	RESTAURANT	1187	1	n/a	n/a	n/a	n/a	n/a	n/a	n/a
3683242	RECOG_CONF	n/a	LTP331	ltpFR	4	6	n/a	RESTAURANT	1187	n/a	2	n/a	n/a	n/a	n/a	n/a	n/a
3684872	RECOG_TARGET	n/a	LTP331	ltpFR	4	6	1	CAFETERIA	217	1	5	0	n/a	n/a	n/a	n/a	n/a
3685489	RECOG_RESP	n/a	LTP331	ltpFR	4	6	1	CAFETERIA	217	1	n/a	0	n/a	n/a	n/a	n/a	n/a
3686017	RECOG_CONF	n/a	LTP331	ltpFR	4	6	1	CAFETERIA	217	n/a	5	0	n/a	n/a	n/a	n/a	n/a
3687469	RECOG_TARGET	n/a	LTP331	ltpFR	4	6	-1	LAMB	797	1	5	-1	n/a	n/a	n/a	n/a	n/a
3687984	RECOG_RESP	n/a	LTP331	ltpFR	4	6	-1	LAMB	797	1	n/a	-1	n/a	n/a	n/a	n/a	n/a
3688387	RECOG_CONF	n/a	LTP331	ltpFR	4	6	-1	LAMB	797	n/a	5	-1	n/a	n/a	n/a	n/a	n/a
3689918	RECOG_TARGET	n/a	LTP331	ltpFR	4	6	0	THESAURUS	1454	1	5	0	n/a	n/a	n/a	n/a	n/a
3690494	RECOG_RESP	n/a	LTP331	ltpFR	4	6	0	THESAURUS	1454	1	n/a	0	n/a	n/a	n/a	n/a	n/a
3690927	RECOG_CONF	n/a	LTP331	ltpFR	4	6	0	THESAURUS	1454	n/a	5	0	n/a	n/a	n/a	n/a	n/a
3692583	RECOG_TARGET	n/a	LTP331	ltpFR	4	6	1	LEADER	807	1	5	0	n/a	n/a	n/a	n/a	n/a
3693174	RECOG_RESP	n/a	LTP331	ltpFR	4	6	1	LEADER	807	1	n/a	0	n/a	n/a	n/a	n/a	n/a
3693797	RECOG_CONF	n/a	LTP331	ltpFR	4	6	1	LEADER	807	n/a	5	0	n/a	n/a	n/a	n/a	n/a
3695365	RECOG_TARGET	n/a	LTP331	ltpFR	4	6	-1	FLUTE	585	1	5	-1	n/a	n/a	n/a	n/a	n/a
3695934	RECOG_RESP	n/a	LTP331	ltpFR	4	6	-1	FLUTE	585	1	n/a	-1	n/a	n/a	n/a	n/a	n/a
3696357	RECOG_CONF	n/a	LTP331	ltpFR	4	6	-1	FLUTE	585	n/a	5	-1	n/a	n/a	n/a	n/a	n/a
3697997	RECOG_LURE	n/a	LTP331	ltpFR	4	6	n/a	POTATO	1115	0	5	n/a	n/a	n/a	n/a	n/a	n/a
3698558	RECOG_RESP	n/a	LTP331	ltpFR	4	6	n/a	POTATO	1115	0	n/a	n/a	n/a	n/a	n/a	n/a	n/a
3698907	RECOG_CONF	n/a	LTP331	ltpFR	4	6	n/a	POTATO	1115	n/a	5	n/a	n/a	n/a	n/a	n/a	n/a
3700563	RECOG_LURE	n/a	LTP331	ltpFR	4	6	n/a	STICKER	1382	0	1	n/a	n/a	n/a	n/a	n/a	n/a
3702993	RECOG_RESP	n/a	LTP331	ltpFR	4	6	n/a	STICKER	1382	0	n/a	n/a	n/a	n/a	n/a	n/a	n/a
3704252	RECOG_CONF	n/a	LTP331	ltpFR	4	6	n/a	STICKER	1382	n/a	1	n/a	n/a	n/a	n/a	n/a	n/a
3705993	RECOG_TARGET	n/a	LTP331	ltpFR	4	6	0	GOVERNOR	651	1	5	1	n/a	n/a	n/a	n/a	n/a
3707424	RECOG_RESP	n/a	LTP331	ltpFR	4	6	0	GOVERNOR	651	1	n/a	1	n/a	n/a	n/a	n/a	n/a
3708247	RECOG_CONF	n/a	LTP331	ltpFR	4	6	0	GOVERNOR	651	n/a	5	1	n/a	n/a	n/a	n/a	n/a
3709658	RECOG_LURE	n/a	LTP331	ltpFR	4	6	n/a	CRADLE	399	0	5	n/a	n/a	n/a	n/a	n/a	n/a
3710538	RECOG_RESP	n/a	LTP331	ltpFR	4	6	n/a	CRADLE	399	0	n/a	n/a	n/a	n/a	n/a	n/a	n/a
3710994	RECOG_CONF	n/a	LTP331	ltpFR	4	6	n/a	CRADLE	399	n/a	5	n/a	n/a	n/a	n/a	n/a	n/a
3712474	RECOG_LURE	n/a	LTP331	ltpFR	4	6	n/a	DAISY	435	1	3	n/a	n/a	n/a	n/a	n/a	n/a
3713269	RECOG_RESP	n/a	LTP331	ltpFR	4	6	n/a	DAISY	435	1	n/a	n/a	n/a	n/a	n/a	n/a	n/a
3714585	RECOG_CONF	n/a	LTP331	ltpFR	4	6	n/a	DAISY	435	n/a	3	n/a	n/a	n/a	n/a	n/a	n/a
3716222	RECOG_TARGET	n/a	LTP331	ltpFR	4	6	1	DIRECTOR	471	1	5	1	n/a	n/a	n/a	n/a	n/a
3717089	RECOG_RESP	n/a	LTP331	ltpFR	4	6	1	DIRECTOR	471	1	n/a	1	n/a	n/a	n/a	n/a	n/a
3717477	RECOG_CONF	n/a	LTP331	ltpFR	4	6	1	DIRECTOR	471	n/a	5	1	n/a	n/a	n/a	n/a	n/a
3719537	RECOG_TARGET	n/a	LTP331	ltpFR	4	6	-1	CHIP	303	1	5	-1	n/a	n/a	n/a	n/a	n/a
3720319	RECOG_RESP	n/a	LTP331	ltpFR	4	6	-1	CHIP	303	1	n/a	-1	n/a	n/a	n/a	n/a	n/a
3720787	RECOG_CONF	n/a	LTP331	ltpFR	4	6	-1	CHIP	303	n/a	5	-1	n/a	n/a	n/a	n/a	n/a
