onset	duration	trial_type	sample	stim_file	subject	experiment	session	trial	task	item_name	item_num	recog_resp	recog_conf	resp	color_r	color_g	color_b	case	font
268.798	n/a	SESS_START	134399	n/a	LTP114	ltpFR	16	n/a	n/a	n/a	n/a	0	5	n/a	n/a	n/a	n/a	n/a	n/a
345.82	n/a	WORD	172910	wordpools/wasnorm_wordpool.txt	LTP114	ltpFR	16	1	1	FLY	586	1	n/a	1	0.422607421875	0.5869140625	0	lower	zerothre.ttf
349.968	n/a	WORD	174984	wordpools/wasnorm_wordpool.txt	LTP114	ltpFR	16	1	1	IGLOO	734	n/a	n/a	0	0.422607421875	0.5869140625	0	lower	zerothre.ttf
354.034	n/a	WORD	177017	wordpools/wasnorm_wordpool.txt	LTP114	ltpFR	16	1	0	KIDNEY	776	n/a	n/a	0	0.57763671875	0.412841796875	1	upper	amplitud.ttf
357.858	n/a	WORD	178929	wordpools/wasnorm_wordpool.txt	LTP114	ltpFR	16	1	0	ELBOW	520	n/a	n/a	0	0.57763671875	0.412841796875	1	upper	amplitud.ttf
361.8	n/a	WORD	180900	wordpools/wasnorm_wordpool.txt	LTP114	ltpFR	16	1	0	PUDDLE	1140	n/a	n/a	0	0.57763671875	0.412841796875	1	upper	amplitud.ttf
365.806	n/a	WORD	182903	wordpools/wasnorm_wordpool.txt	LTP114	ltpFR	16	1	0	SPRINKLE	1359	n/a	n/a	0	0.57763671875	0.412841796875	1	upper	amplitud.ttf
369.722	n/a	WORD	184861	wordpools/wasnorm_wordpool.txt	LTP114	ltpFR	16	1	1	PADDLE	1000	n/a	n/a	0	0.422607421875	0.5869140625	0	lower	zerothre.ttf
373.828	n/a	WORD	186914	wordpools/wasnorm_wordpool.txt	LTP114	ltpFR	16	1	1	CLASS	318	n/a	n/a	0	0.422607421875	0.5869140625	0	lower	zerothre.ttf
378.026	n/a	WORD	189013	wordpools/wasnorm_wordpool.txt	LTP114	ltpFR	16	1	0	VEGETABLE	1552	n/a	n/a	0	0.57763671875	0.412841796875	1	upper	amplitud.ttf
382.16	n/a	WORD	191080	wordpools/wasnorm_wordpool.txt	LTP114	ltpFR	16	1	0	PEAR	1033	n/a	n/a	0	0.57763671875	0.412841796875	1	upper	amplitud.ttf
386.016	n/a	WORD	193008	wordpools/wasnorm_wordpool.txt	LTP114	ltpFR	16	1	0	WRIST	1626	n/a	n/a	0	0.57763671875	0.412841796875	1	upper	amplitud.ttf
389.916	n/a	WORD	194958	wordpools/wasnorm_wordpool.txt	LTP114	ltpFR	16	1	0	STAFF	1365	n/a	n/a	1	0.57763671875	0.412841796875	1	upper	amplitud.ttf
393.822	n/a	WORD	196911	wordpools/wasnorm_wordpool.txt	LTP114	ltpFR	16	1	1	FEATHER	557	n/a	n/a	0	0.422607421875	0.5869140625	0	lower	zerothre.ttf
397.796	n/a	WORD	198898	wordpools/wasnorm_wordpool.txt	LTP114	ltpFR	16	1	1	BRANDY	169	n/a	n/a	0	0.422607421875	0.5869140625	0	lower	zerothre.ttf
401.828	n/a	WORD	200914	wordpools/wasnorm_wordpool.txt	LTP114	ltpFR	16	1	1	CATCHER	258	n/a	n/a	1	0.422607421875	0.5869140625	0	lower	zerothre.ttf
405.818	n/a	WORD	202909	wordpools/wasnorm_wordpool.txt	LTP114	ltpFR	16	1	1	CAT	257	n/a	n/a	0	0.422607421875	0.5869140625	0	lower	zerothre.ttf
411.66	n/a	REC_START	205830	n/a	LTP114	ltpFR	16	1	n/a	n/a	n/a	n/a	n/a	n/a	n/a	n/a	n/a	n/a	n/a
412.308	n/a	REC_WORD	206154	wordpools/wasnorm_wordpool.txt	LTP114	ltpFR	16	1	1	FLY	586	n/a	n/a	1	n/a	n/a	n/a	n/a	n/a
413.446	n/a	REC_WORD	206723	wordpools/wasnorm_wordpool.txt	LTP114	ltpFR	16	1	0	KIDNEY	776	n/a	n/a	0	n/a	n/a	n/a	n/a	n/a
414.418	n/a	REC_WORD	207209	wordpools/wasnorm_wordpool.txt	LTP114	ltpFR	16	1	0	PUDDLE	1140	n/a	n/a	0	n/a	n/a	n/a	n/a	n/a
415.416	n/a	REC_WORD	207708	wordpools/wasnorm_wordpool.txt	LTP114	ltpFR	16	1	1	PADDLE	1000	n/a	n/a	0	n/a	n/a	n/a	n/a	n/a
416.48	n/a	REC_WORD	208240	wordpools/wasnorm_wordpool.txt	LTP114	ltpFR	16	1	1	CAT	257	n/a	n/a	0	n/a	n/a	n/a	n/a	n/a
417.552	n/a	REC_WORD	208776	wordpools/wasnorm_wordpool.txt	LTP114	ltpFR	16	1	0	STAFF	1365	n/a	n/a	1	n/a	n/a	n/a	n/a	n/a
421.966	n/a	REC_WORD	210983	wordpools/wasnorm_wordpool.txt	LTP114	ltpFR	16	1	0	WRIST	1626	n/a	n/a	0	n/a	n/a	n/a	n/a	n/a
423.638	n/a	REC_WORD	211819	wordpools/wasnorm_wordpool.txt	LTP114	ltpFR	16	1	n/a	ANKLE	24	n/a	n/a	n/a	n/a	n/a	n/a	n/a	n/a
528.474	n/a	WORD	264237	wordpools/wasnorm_wordpool.txt	LTP114	ltpFR	16	2	0	BABY	64	n/a	n/a	0	0.57763671875	0.412841796875	1	upper	amplitud.ttf
532.506	n/a	WORD	266253	wordpools/wasnorm_wordpool.txt	LTP114	ltpFR	16	2	0	BUSH	202	n/a	n/a	0	0.57763671875	0.412841796875	1	upper	amplitud.ttf
536.662	n/a	WORD	268331	wordpools/wasnorm_wordpool.txt	LTP114	ltpFR	16	2	0	THIGH	1457	n/a	n/a	0	0.57763671875	0.412841796875	1	upper	amplitud.ttf
540.694	n/a	WORD	270347	wordpools/wasnorm_wordpool.txt	LTP114	ltpFR	16	2	0	APPENDAGE	32	n/a	n/a	0	0.57763671875	0.412841796875	1	upper	amplitud.ttf
544.586	n/a	WORD	272293	wordpools/wasnorm_wordpool.txt	LTP114	ltpFR	16	2	1	TRANSPLANT	1496	n/a	n/a	0	0.422607421875	0.5869140625	0	lower	zerothre.ttf
548.502	n/a	WORD	274251	wordpools/wasnorm_wordpool.txt	LTP114	ltpFR	16	2	1	CUB	419	n/a	n/a	0	0.422607421875	0.5869140625	0	lower	zerothre.ttf
552.584	n/a	WORD	276292	wordpools/wasnorm_wordpool.txt	LTP114	ltpFR	16	2	0	ANIMAL	23	n/a	n/a	1	0.57763671875	0.412841796875	1	upper	amplitud.ttf
556.598	n/a	WORD	278299	wordpools/wasnorm_wordpool.txt	LTP114	ltpFR	16	2	0	PURSE	1145	n/a	n/a	0	0.57763671875	0.412841796875	1	upper	amplitud.ttf
560.572	n/a	WORD	280286	wordpools/wasnorm_wordpool.txt	LTP114	ltpFR	16	2	0	OUTFIT	988	n/a	n/a	1	0.57763671875	0.412841796875	1	upper	amplitud.ttf
564.654	n/a	WORD	282327	wordpools/wasnorm_wordpool.txt	LTP114	ltpFR	16	2	0	DRYER	503	n/a	n/a	0	0.57763671875	0.412841796875	1	upper	amplitud.ttf
568.786	n/a	WORD	284393	wordpools/wasnorm_wordpool.txt	LTP114	ltpFR	16	2	1	OLIVE	975	n/a	n/a	1	0.422607421875	0.5869140625	0	lower	zerothre.ttf
572.786	n/a	WORD	286393	wordpools/wasnorm_wordpool.txt	LTP114	ltpFR	16	2	1	CHICKEN	297	n/a	n/a	1	0.422607421875	0.5869140625	0	lower	zerothre.ttf
576.834	n/a	WORD	288417	wordpools/wasnorm_wordpool.txt	LTP114	ltpFR	16	2	1	FLESH	579	n/a	n/a	0	0.422607421875	0.5869140625	0	lower	zerothre.ttf
580.79	n/a	WORD	290395	wordpools/wasnorm_wordpool.txt	LTP114	ltpFR	16	2	1	NURSERY	964	n/a	n/a	0	0.422607421875	0.5869140625	0	lower	zerothre.ttf
584.782	n/a	WORD	292391	wordpools/wasnorm_wordpool.txt	LTP114	ltpFR	16	2	1	PEOPLE	1046	n/a	n/a	1	0.422607421875	0.5869140625	0	lower	zerothre.ttf
588.78	n/a	WORD	294390	wordpools/wasnorm_wordpool.txt	LTP114	ltpFR	16	2	1	PLAQUE	1084	n/a	n/a	0	0.422607421875	0.5869140625	0	lower	zerothre.ttf
594.722	n/a	REC_START	297361	n/a	LTP114	ltpFR	16	2	n/a	n/a	n/a	n/a	n/a	n/a	n/a	n/a	n/a	n/a	n/a
595.314	n/a	REC_WORD	297657	wordpools/wasnorm_wordpool.txt	LTP114	ltpFR	16	2	1	PEOPLE	1046	n/a	n/a	1	n/a	n/a	n/a	n/a	n/a
596.402	n/a	REC_WORD	298201	wordpools/wasnorm_wordpool.txt	LTP114	ltpFR	16	2	1	PLAQUE	1084	n/a	n/a	0	n/a	n/a	n/a	n/a	n/a
597.604	n/a	REC_WORD	298802	wordpools/wasnorm_wordpool.txt	LTP114	ltpFR	16	2	0	THIGH	1457	n/a	n/a	0	n/a	n/a	n/a	n/a	n/a
598.902	n/a	REC_WORD	299451	wordpools/wasnorm_wordpool.txt	LTP114	ltpFR	16	2	1	CHICKEN	297	n/a	n/a	1	n/a	n/a	n/a	n/a	n/a
600.078	n/a	REC_WORD	300039	wordpools/wasnorm_wordpool.txt	LTP114	ltpFR	16	2	0	APPENDAGE	32	n/a	n/a	0	n/a	n/a	n/a	n/a	n/a
604.21	n/a	REC_WORD	302105	wordpools/wasnorm_wordpool.txt	LTP114	ltpFR	16	2	0	WRIST	1626	n/a	n/a	0	n/a	n/a	n/a	n/a	n/a
618.014	n/a	REC_WORD	309007	wordpools/wasnorm_wordpool.txt	LTP114	ltpFR	16	2	0	ANIMAL	23	n/a	n/a	1	n/a	n/a	n/a	n/a	n/a
619.442	n/a	REC_WORD	309721	wordpools/wasnorm_wordpool.txt	LTP114	ltpFR	16	2	1	CUB	419	n/a	n/a	0	n/a	n/a	n/a	n/a	n/a
623.258	n/a	REC_WORD	311629	wordpools/wasnorm_wordpool.txt	LTP114	ltpFR	16	2	0	PURSE	1145	n/a	n/a	0	n/a	n/a	n/a	n/a	n/a
629.898	n/a	REC_WORD	314949	wordpools/wasnorm_wordpool.txt	LTP114	ltpFR	16	2	0	OUTFIT	988	n/a	n/a	1	n/a	n/a	n/a	n/a	n/a
734.378	n/a	WORD	367189	wordpools/wasnorm_wordpool.txt	LTP114	ltpFR	16	3	0	BILL	126	n/a	n/a	0	0.57763671875	0.412841796875	1	upper	amplitud.ttf
738.402	n/a	WORD	369201	wordpools/wasnorm_wordpool.txt	LTP114	ltpFR	16	3	0	COMMANDER	354	n/a	n/a	1	0.57763671875	0.412841796875	1	upper	amplitud.ttf
742.402	n/a	WORD	371201	wordpools/wasnorm_wordpool.txt	LTP114	ltpFR	16	3	0	PUMPKIN	1142	n/a	n/a	0	0.57763671875	0.412841796875	1	upper	amplitud.ttf
746.376	n/a	WORD	373188	wordpools/wasnorm_wordpool.txt	LTP114	ltpFR	16	3	0	PRUNE	1134	n/a	n/a	0	0.57763671875	0.412841796875	1	upper	amplitud.ttf
750.258	n/a	WORD	375129	wordpools/wasnorm_wordpool.txt	LTP114	ltpFR	16	3	0	CHILD	299	n/a	n/a	1	0.57763671875	0.412841796875	1	upper	amplitud.ttf
754.248	n/a	WORD	377124	wordpools/wasnorm_wordpool.txt	LTP114	ltpFR	16	3	0	PICKLE	1059	n/a	n/a	0	0.57763671875	0.412841796875	1	upper	amplitud.ttf
758.38	n/a	WORD	379190	wordpools/wasnorm_wordpool.txt	LTP114	ltpFR	16	3	0	BADGE	68	n/a	n/a	0	0.57763671875	0.412841796875	1	upper	amplitud.ttf
762.42	n/a	WORD	381210	wordpools/wasnorm_wordpool.txt	LTP114	ltpFR	16	3	0	BLOCKADE	137	n/a	n/a	n/a	0.57763671875	0.412841796875	1	upper	amplitud.ttf
765.444	n/a	SLOW_MSG	382722	n/a	LTP114	ltpFR	16	3	n/a	n/a	n/a	n/a	n/a	n/a	n/a	n/a	n/a	n/a	n/a
767.802	n/a	WORD	383901	wordpools/wasnorm_wordpool.txt	LTP114	ltpFR	16	3	0	QUARTER	1148	n/a	n/a	0	0.57763671875	0.412841796875	1	upper	amplitud.ttf
771.85	n/a	WORD	385925	wordpools/wasnorm_wordpool.txt	LTP114	ltpFR	16	3	0	CANE	231	n/a	n/a	0	0.57763671875	0.412841796875	1	upper	amplitud.ttf
775.99	n/a	WORD	387995	wordpools/wasnorm_wordpool.txt	LTP114	ltpFR	16	3	0	BANK	83	n/a	n/a	1	0.57763671875	0.412841796875	1	upper	amplitud.ttf
780.19	n/a	WORD	390095	wordpools/wasnorm_wordpool.txt	LTP114	ltpFR	16	3	0	SHELTER	1282	n/a	n/a	1	0.57763671875	0.412841796875	1	upper	amplitud.ttf
784.298	n/a	WORD	392149	wordpools/wasnorm_wordpool.txt	LTP114	ltpFR	16	3	0	MANSION	864	n/a	n/a	1	0.57763671875	0.412841796875	1	upper	amplitud.ttf
788.43	n/a	WORD	394215	wordpools/wasnorm_wordpool.txt	LTP114	ltpFR	16	3	0	SOLDIER	1344	n/a	n/a	1	0.57763671875	0.412841796875	1	upper	amplitud.ttf
792.552	n/a	WORD	396276	wordpools/wasnorm_wordpool.txt	LTP114	ltpFR	16	3	0	WORKER	1621	n/a	n/a	1	0.57763671875	0.412841796875	1	upper	amplitud.ttf
796.568	n/a	WORD	398284	wordpools/wasnorm_wordpool.txt	LTP114	ltpFR	16	3	0	TREASURE	1500	n/a	n/a	1	0.57763671875	0.412841796875	1	upper	amplitud.ttf
802.402	n/a	REC_START	401201	n/a	LTP114	ltpFR	16	3	n/a	n/a	n/a	n/a	n/a	n/a	n/a	n/a	n/a	n/a	n/a
803.684	n/a	REC_WORD	401842	wordpools/wasnorm_wordpool.txt	LTP114	ltpFR	16	3	0	BILL	126	n/a	n/a	0	n/a	n/a	n/a	n/a	n/a
804.502	n/a	REC_WORD	402251	wordpools/wasnorm_wordpool.txt	LTP114	ltpFR	16	3	0	COMMANDER	354	n/a	n/a	1	n/a	n/a	n/a	n/a	n/a
805.41	n/a	REC_WORD	402705	wordpools/wasnorm_wordpool.txt	LTP114	ltpFR	16	3	0	SOLDIER	1344	n/a	n/a	1	n/a	n/a	n/a	n/a	n/a
806.312	n/a	REC_WORD	403156	wordpools/wasnorm_wordpool.txt	LTP114	ltpFR	16	3	n/a	BARRICADE	-1	n/a	n/a	n/a	n/a	n/a	n/a	n/a	n/a
807.3	n/a	REC_WORD	403650	wordpools/wasnorm_wordpool.txt	LTP114	ltpFR	16	3	0	SHELTER	1282	n/a	n/a	1	n/a	n/a	n/a	n/a	n/a
809.376	n/a	REC_WORD	404688	wordpools/wasnorm_wordpool.txt	LTP114	ltpFR	16	3	0	PUMPKIN	1142	n/a	n/a	0	n/a	n/a	n/a	n/a	n/a
810.044	n/a	REC_WORD	405022	wordpools/wasnorm_wordpool.txt	LTP114	ltpFR	16	3	0	PRUNE	1134	n/a	n/a	0	n/a	n/a	n/a	n/a	n/a
810.762	n/a	REC_WORD	405381	wordpools/wasnorm_wordpool.txt	LTP114	ltpFR	16	3	0	PICKLE	1059	n/a	n/a	0	n/a	n/a	n/a	n/a	n/a
811.53	n/a	REC_WORD	405765	wordpools/wasnorm_wordpool.txt	LTP114	ltpFR	16	3	0	CHILD	299	n/a	n/a	1	n/a	n/a	n/a	n/a	n/a
941.616	n/a	WORD	470808	wordpools/wasnorm_wordpool.txt	LTP114	ltpFR	16	4	1	WAITER	1580	n/a	n/a	1	0.422607421875	0.5869140625	0	lower	zerothre.ttf
945.44	n/a	WORD	472720	wordpools/wasnorm_wordpool.txt	LTP114	ltpFR	16	4	1	VAULT	1550	n/a	n/a	0	0.422607421875	0.5869140625	0	lower	zerothre.ttf
949.588	n/a	WORD	474794	wordpools/wasnorm_wordpool.txt	LTP114	ltpFR	16	4	1	ICING	732	n/a	n/a	0	0.422607421875	0.5869140625	0	lower	zerothre.ttf
953.554	n/a	WORD	476777	wordpools/wasnorm_wordpool.txt	LTP114	ltpFR	16	4	1	LOVER	846	n/a	n/a	1	0.422607421875	0.5869140625	0	lower	zerothre.ttf
957.386	n/a	WORD	478693	wordpools/wasnorm_wordpool.txt	LTP114	ltpFR	16	4	0	ENGINE	535	n/a	n/a	1	0.57763671875	0.412841796875	1	upper	amplitud.ttf
961.444	n/a	WORD	480722	wordpools/wasnorm_wordpool.txt	LTP114	ltpFR	16	4	0	MECHANIC	884	n/a	n/a	1	0.57763671875	0.412841796875	1	upper	amplitud.ttf
965.31	n/a	WORD	482655	wordpools/wasnorm_wordpool.txt	LTP114	ltpFR	16	4	1	OATMEAL	967	n/a	n/a	0	0.422607421875	0.5869140625	0	lower	zerothre.ttf
969.192	n/a	WORD	484596	wordpools/wasnorm_wordpool.txt	LTP114	ltpFR	16	4	1	NAPKIN	937	n/a	n/a	0	0.422607421875	0.5869140625	0	lower	zerothre.ttf
973.014	n/a	WORD	486507	wordpools/wasnorm_wordpool.txt	LTP114	ltpFR	16	4	1	NEWSSTAND	949	n/a	n/a	0	0.422607421875	0.5869140625	0	lower	zerothre.ttf
977.088	n/a	WORD	488544	wordpools/wasnorm_wordpool.txt	LTP114	ltpFR	16	4	1	FOE	587	n/a	n/a	1	0.422607421875	0.5869140625	0	lower	zerothre.ttf
981.196	n/a	WORD	490598	wordpools/wasnorm_wordpool.txt	LTP114	ltpFR	16	4	0	MUSTARD	935	n/a	n/a	0	0.57763671875	0.412841796875	1	upper	amplitud.ttf
985.286	n/a	WORD	492643	wordpools/wasnorm_wordpool.txt	LTP114	ltpFR	16	4	0	BISCUIT	130	n/a	n/a	0	0.57763671875	0.412841796875	1	upper	amplitud.ttf
989.236	n/a	WORD	494618	wordpools/wasnorm_wordpool.txt	LTP114	ltpFR	16	4	0	COMB	351	n/a	n/a	0	0.57763671875	0.412841796875	1	upper	amplitud.ttf
993.276	n/a	WORD	496638	wordpools/wasnorm_wordpool.txt	LTP114	ltpFR	16	4	0	TUNA	1518	n/a	n/a	1	0.57763671875	0.412841796875	1	upper	amplitud.ttf
997.458	n/a	WORD	498729	wordpools/wasnorm_wordpool.txt	LTP114	ltpFR	16	4	0	MOUSE	925	n/a	n/a	0	0.57763671875	0.412841796875	1	upper	amplitud.ttf
1001.432	n/a	WORD	500716	wordpools/wasnorm_wordpool.txt	LTP114	ltpFR	16	4	0	DOLLAR	482	n/a	n/a	0	0.57763671875	0.412841796875	1	upper	amplitud.ttf
1007.138	n/a	REC_START	503569	n/a	LTP114	ltpFR	16	4	n/a	n/a	n/a	n/a	n/a	n/a	n/a	n/a	n/a	n/a	n/a
1007.916	n/a	REC_WORD	503958	wordpools/wasnorm_wordpool.txt	LTP114	ltpFR	16	4	0	DOLLAR	482	n/a	n/a	0	n/a	n/a	n/a	n/a	n/a
1008.63	n/a	REC_WORD	504315	wordpools/wasnorm_wordpool.txt	LTP114	ltpFR	16	4	0	MOUSE	925	n/a	n/a	0	n/a	n/a	n/a	n/a	n/a
1009.42	n/a	REC_WORD	504710	wordpools/wasnorm_wordpool.txt	LTP114	ltpFR	16	4	0	TUNA	1518	n/a	n/a	1	n/a	n/a	n/a	n/a	n/a
1012.512	n/a	REC_WORD	506256	wordpools/wasnorm_wordpool.txt	LTP114	ltpFR	16	4	1	LOVER	846	n/a	n/a	1	n/a	n/a	n/a	n/a	n/a
1014.498	n/a	REC_WORD	507249	wordpools/wasnorm_wordpool.txt	LTP114	ltpFR	16	4	1	WAITER	1580	n/a	n/a	1	n/a	n/a	n/a	n/a	n/a
1016.628	n/a	REC_WORD	508314	wordpools/wasnorm_wordpool.txt	LTP114	ltpFR	16	4	1	ICING	732	n/a	n/a	0	n/a	n/a	n/a	n/a	n/a
1018.194	n/a	REC_WORD	509097	wordpools/wasnorm_wordpool.txt	LTP114	ltpFR	16	4	1	NEWSSTAND	949	n/a	n/a	0	n/a	n/a	n/a	n/a	n/a
1019.93	n/a	REC_WORD	509965	wordpools/wasnorm_wordpool.txt	LTP114	ltpFR	16	4	1	NAPKIN	937	n/a	n/a	0	n/a	n/a	n/a	n/a	n/a
1143.106	n/a	WORD	571553	wordpools/wasnorm_wordpool.txt	LTP114	ltpFR	16	5	0	FOLLOWER	589	n/a	n/a	1	0.57763671875	0.412841796875	1	upper	amplitud.ttf
1147.23	n/a	WORD	573615	wordpools/wasnorm_wordpool.txt	LTP114	ltpFR	16	5	0	RIB	1188	n/a	n/a	0	0.57763671875	0.412841796875	1	upper	amplitud.ttf
1151.228	n/a	WORD	575614	wordpools/wasnorm_wordpool.txt	LTP114	ltpFR	16	5	0	CHAMPION	279	n/a	n/a	1	0.57763671875	0.412841796875	1	upper	amplitud.ttf
1155.084	n/a	WORD	577542	wordpools/wasnorm_wordpool.txt	LTP114	ltpFR	16	5	0	SANDPAPER	1231	n/a	n/a	0	0.57763671875	0.412841796875	1	upper	amplitud.ttf
1159.158	n/a	WORD	579579	wordpools/wasnorm_wordpool.txt	LTP114	ltpFR	16	5	0	COOK	372	n/a	n/a	1	0.57763671875	0.412841796875	1	upper	amplitud.ttf
1163.166	n/a	WORD	581583	wordpools/wasnorm_wordpool.txt	LTP114	ltpFR	16	5	0	APRON	35	n/a	n/a	0	0.57763671875	0.412841796875	1	upper	amplitud.ttf
1167.248	n/a	WORD	583624	wordpools/wasnorm_wordpool.txt	LTP114	ltpFR	16	5	0	DICTATOR	462	n/a	n/a	1	0.57763671875	0.412841796875	1	upper	amplitud.ttf
1171.422	n/a	WORD	585711	wordpools/wasnorm_wordpool.txt	LTP114	ltpFR	16	5	0	FOOT	590	n/a	n/a	0	0.57763671875	0.412841796875	1	upper	amplitud.ttf
1175.62	n/a	WORD	587810	wordpools/wasnorm_wordpool.txt	LTP114	ltpFR	16	5	0	TICKET	1464	n/a	n/a	0	0.57763671875	0.412841796875	1	upper	amplitud.ttf
1179.818	n/a	WORD	589909	wordpools/wasnorm_wordpool.txt	LTP114	ltpFR	16	5	0	CALENDAR	221	n/a	n/a	0	0.57763671875	0.412841796875	1	upper	amplitud.ttf
1183.918	n/a	WORD	591959	wordpools/wasnorm_wordpool.txt	LTP114	ltpFR	16	5	0	SKIN	1318	n/a	n/a	1	0.57763671875	0.412841796875	1	upper	amplitud.ttf
1187.958	n/a	WORD	593979	wordpools/wasnorm_wordpool.txt	LTP114	ltpFR	16	5	0	PELT	1040	n/a	n/a	0	0.57763671875	0.412841796875	1	upper	amplitud.ttf
1191.956	n/a	WORD	595978	wordpools/wasnorm_wordpool.txt	LTP114	ltpFR	16	5	0	BALL	73	n/a	n/a	0	0.57763671875	0.412841796875	1	upper	amplitud.ttf
1195.872	n/a	WORD	597936	wordpools/wasnorm_wordpool.txt	LTP114	ltpFR	16	5	0	ORGAN	984	n/a	n/a	0	0.57763671875	0.412841796875	1	upper	amplitud.ttf
1199.878	n/a	WORD	599939	wordpools/wasnorm_wordpool.txt	LTP114	ltpFR	16	5	0	MISSILE	900	n/a	n/a	1	0.57763671875	0.412841796875	1	upper	amplitud.ttf
1204.078	n/a	WORD	602039	wordpools/wasnorm_wordpool.txt	LTP114	ltpFR	16	5	0	BROOK	177	n/a	n/a	1	0.57763671875	0.412841796875	1	upper	amplitud.ttf
1210.002	n/a	REC_START	605001	n/a	LTP114	ltpFR	16	5	n/a	n/a	n/a	n/a	n/a	n/a	n/a	n/a	n/a	n/a	n/a
1210.65	n/a	REC_WORD	605325	wordpools/wasnorm_wordpool.txt	LTP114	ltpFR	16	5	0	ORGAN	984	n/a	n/a	0	n/a	n/a	n/a	n/a	n/a
1211.564	n/a	REC_WORD	605782	wordpools/wasnorm_wordpool.txt	LTP114	ltpFR	16	5	0	BROOK	177	n/a	n/a	1	n/a	n/a	n/a	n/a	n/a
1212.512	n/a	REC_WORD	606256	wordpools/wasnorm_wordpool.txt	LTP114	ltpFR	16	5	0	MISSILE	900	n/a	n/a	1	n/a	n/a	n/a	n/a	n/a
1214.478	n/a	REC_WORD	607239	wordpools/wasnorm_wordpool.txt	LTP114	ltpFR	16	5	0	APRON	35	n/a	n/a	0	n/a	n/a	n/a	n/a	n/a
1215.36	n/a	REC_WORD	607680	wordpools/wasnorm_wordpool.txt	LTP114	ltpFR	16	5	0	COOK	372	n/a	n/a	1	n/a	n/a	n/a	n/a	n/a
1217.59	n/a	REC_WORD	608795	wordpools/wasnorm_wordpool.txt	LTP114	ltpFR	16	5	0	OUTFIT	988	n/a	n/a	1	n/a	n/a	n/a	n/a	n/a
1237.52	n/a	REC_WORD	618760	wordpools/wasnorm_wordpool.txt	LTP114	ltpFR	16	5	1	TRANSPLANT	1496	n/a	n/a	0	n/a	n/a	n/a	n/a	n/a
1344.32	n/a	WORD	672160	wordpools/wasnorm_wordpool.txt	LTP114	ltpFR	16	6	-1	SLUG	1329	n/a	n/a	-1	1.0	1.0	1	upper	Verdana.ttf
1348.41	n/a	WORD	674205	wordpools/wasnorm_wordpool.txt	LTP114	ltpFR	16	6	-1	RUNNER	1218	n/a	n/a	-1	1.0	1.0	1	upper	Verdana.ttf
1352.284	n/a	WORD	676142	wordpools/wasnorm_wordpool.txt	LTP114	ltpFR	16	6	-1	CHURCH	307	n/a	n/a	-1	1.0	1.0	1	upper	Verdana.ttf
1356.276	n/a	WORD	678138	wordpools/wasnorm_wordpool.txt	LTP114	ltpFR	16	6	-1	APPLE	33	n/a	n/a	-1	1.0	1.0	1	upper	Verdana.ttf
1360.232	n/a	WORD	680116	wordpools/wasnorm_wordpool.txt	LTP114	ltpFR	16	6	-1	BUN	197	n/a	n/a	-1	1.0	1.0	1	upper	Verdana.ttf
1364.248	n/a	WORD	682124	wordpools/wasnorm_wordpool.txt	LTP114	ltpFR	16	6	-1	SHEPHERD	1283	n/a	n/a	-1	1.0	1.0	1	upper	Verdana.ttf
1368.43	n/a	WORD	684215	wordpools/wasnorm_wordpool.txt	LTP114	ltpFR	16	6	-1	FIG	563	n/a	n/a	-1	1.0	1.0	1	upper	Verdana.ttf
1372.462	n/a	WORD	686231	wordpools/wasnorm_wordpool.txt	LTP114	ltpFR	16	6	-1	STAR	1373	n/a	n/a	-1	1.0	1.0	1	upper	Verdana.ttf
1376.344	n/a	WORD	688172	wordpools/wasnorm_wordpool.txt	LTP114	ltpFR	16	6	-1	FUGITIVE	612	n/a	n/a	-1	1.0	1.0	1	upper	Verdana.ttf
1380.5	n/a	WORD	690250	wordpools/wasnorm_wordpool.txt	LTP114	ltpFR	16	6	-1	DUNGEON	507	n/a	n/a	-1	1.0	1.0	1	upper	Verdana.ttf
1384.332	n/a	WORD	692166	wordpools/wasnorm_wordpool.txt	LTP114	ltpFR	16	6	-1	INMATE	738	n/a	n/a	-1	1.0	1.0	1	upper	Verdana.ttf
1388.44	n/a	WORD	694220	wordpools/wasnorm_wordpool.txt	LTP114	ltpFR	16	6	-1	CLERK	321	n/a	n/a	-1	1.0	1.0	1	upper	Verdana.ttf
1392.422	n/a	WORD	696211	wordpools/wasnorm_wordpool.txt	LTP114	ltpFR	16	6	-1	SUPPER	1411	n/a	n/a	-1	1.0	1.0	1	upper	Verdana.ttf
1396.238	n/a	WORD	698119	wordpools/wasnorm_wordpool.txt	LTP114	ltpFR	16	6	-1	TURKEY	1520	n/a	n/a	-1	1.0	1.0	1	upper	Verdana.ttf
1400.412	n/a	WORD	700206	wordpools/wasnorm_wordpool.txt	LTP114	ltpFR	16	6	-1	LOAF	835	n/a	n/a	-1	1.0	1.0	1	upper	Verdana.ttf
1404.41	n/a	WORD	702205	wordpools/wasnorm_wordpool.txt	LTP114	ltpFR	16	6	-1	ANTEATER	26	n/a	n/a	-1	1.0	1.0	1	upper	Verdana.ttf
1410.276	n/a	REC_START	705138	n/a	LTP114	ltpFR	16	6	n/a	n/a	n/a	n/a	n/a	n/a	n/a	n/a	n/a	n/a	n/a
1411.508	n/a	REC_WORD	705754	wordpools/wasnorm_wordpool.txt	LTP114	ltpFR	16	6	-1	ANTEATER	26	n/a	n/a	-1	n/a	n/a	n/a	n/a	n/a
1412.86	n/a	REC_WORD	706430	wordpools/wasnorm_wordpool.txt	LTP114	ltpFR	16	6	-1	LOAF	835	n/a	n/a	-1	n/a	n/a	n/a	n/a	n/a
1414.168	n/a	REC_WORD	707084	wordpools/wasnorm_wordpool.txt	LTP114	ltpFR	16	6	-1	TURKEY	1520	n/a	n/a	-1	n/a	n/a	n/a	n/a	n/a
1417.928	n/a	REC_WORD	708964	wordpools/wasnorm_wordpool.txt	LTP114	ltpFR	16	6	-1	FUGITIVE	612	n/a	n/a	-1	n/a	n/a	n/a	n/a	n/a
1418.802	n/a	REC_WORD	709401	wordpools/wasnorm_wordpool.txt	LTP114	ltpFR	16	6	-1	INMATE	738	n/a	n/a	-1	n/a	n/a	n/a	n/a	n/a
1419.57	n/a	REC_WORD	709785	wordpools/wasnorm_wordpool.txt	LTP114	ltpFR	16	6	-1	SUPPER	1411	n/a	n/a	-1	n/a	n/a	n/a	n/a	n/a
1420.538	n/a	REC_WORD	710269	wordpools/wasnorm_wordpool.txt	LTP114	ltpFR	16	6	-1	DUNGEON	507	n/a	n/a	-1	n/a	n/a	n/a	n/a	n/a
1461.996	n/a	REC_WORD	730998	wordpools/wasnorm_wordpool.txt	LTP114	ltpFR	16	6	n/a	CHEF	290	n/a	n/a	n/a	n/a	n/a	n/a	n/a	n/a
1496.582	n/a	WORD	748291	wordpools/wasnorm_wordpool.txt	LTP114	ltpFR	16	7	1	TOE	1473	n/a	n/a	0	0.422607421875	0.5869140625	0	lower	zerothre.ttf
1500.456	n/a	WORD	750228	wordpools/wasnorm_wordpool.txt	LTP114	ltpFR	16	7	1	BIOLOGIST	128	n/a	n/a	1	0.422607421875	0.5869140625	0	lower	zerothre.ttf
1504.454	n/a	WORD	752227	wordpools/wasnorm_wordpool.txt	LTP114	ltpFR	16	7	0	SOFA	1342	n/a	n/a	1	0.57763671875	0.412841796875	1	upper	amplitud.ttf
1508.538	n/a	WORD	754269	wordpools/wasnorm_wordpool.txt	LTP114	ltpFR	16	7	0	WORM	1623	n/a	n/a	0	0.57763671875	0.412841796875	1	upper	amplitud.ttf
1512.652	n/a	WORD	756326	wordpools/wasnorm_wordpool.txt	LTP114	ltpFR	16	7	1	SERPENT	1270	n/a	n/a	1	0.422607421875	0.5869140625	0	lower	zerothre.ttf
1516.708	n/a	WORD	758354	wordpools/wasnorm_wordpool.txt	LTP114	ltpFR	16	7	1	CAVITY	264	n/a	n/a	0	0.422607421875	0.5869140625	0	lower	zerothre.ttf
1520.816	n/a	WORD	760408	wordpools/wasnorm_wordpool.txt	LTP114	ltpFR	16	7	0	GOVERNOR	651	n/a	n/a	1	0.57763671875	0.412841796875	1	upper	amplitud.ttf
1524.714	n/a	WORD	762357	wordpools/wasnorm_wordpool.txt	LTP114	ltpFR	16	7	0	RECEIPT	1173	n/a	n/a	0	0.57763671875	0.412841796875	1	upper	amplitud.ttf
1528.798	n/a	WORD	764399	wordpools/wasnorm_wordpool.txt	LTP114	ltpFR	16	7	0	RACK	1154	n/a	n/a	1	0.57763671875	0.412841796875	1	upper	amplitud.ttf
1532.804	n/a	WORD	766402	wordpools/wasnorm_wordpool.txt	LTP114	ltpFR	16	7	0	KNAPSACK	783	n/a	n/a	1	0.57763671875	0.412841796875	1	upper	amplitud.ttf
1536.76	n/a	WORD	768380	wordpools/wasnorm_wordpool.txt	LTP114	ltpFR	16	7	0	SOCK	1339	n/a	n/a	0	0.57763671875	0.412841796875	1	upper	amplitud.ttf
1540.692	n/a	WORD	770346	wordpools/wasnorm_wordpool.txt	LTP114	ltpFR	16	7	0	CHOCOLATE	306	n/a	n/a	0	0.57763671875	0.412841796875	1	upper	amplitud.ttf
1544.868	n/a	WORD	772434	wordpools/wasnorm_wordpool.txt	LTP114	ltpFR	16	7	1	BASSINET	97	n/a	n/a	0	0.422607421875	0.5869140625	0	lower	zerothre.ttf
1548.85	n/a	WORD	774425	wordpools/wasnorm_wordpool.txt	LTP114	ltpFR	16	7	1	INFANT	737	n/a	n/a	0	0.422607421875	0.5869140625	0	lower	zerothre.ttf
1553.006	n/a	WORD	776503	wordpools/wasnorm_wordpool.txt	LTP114	ltpFR	16	7	1	MINT	898	n/a	n/a	0	0.422607421875	0.5869140625	0	lower	zerothre.ttf
1557.03	n/a	WORD	778515	wordpools/wasnorm_wordpool.txt	LTP114	ltpFR	16	7	1	DOCTOR	478	n/a	n/a	1	0.422607421875	0.5869140625	0	lower	zerothre.ttf
1562.946	n/a	REC_START	781473	n/a	LTP114	ltpFR	16	7	n/a	n/a	n/a	n/a	n/a	n/a	n/a	n/a	n/a	n/a	n/a
1564.618	n/a	REC_WORD	782309	wordpools/wasnorm_wordpool.txt	LTP114	ltpFR	16	7	1	DOCTOR	478	n/a	n/a	1	n/a	n/a	n/a	n/a	n/a
1565.74	n/a	REC_WORD	782870	wordpools/wasnorm_wordpool.txt	LTP114	ltpFR	16	7	1	MINT	898	n/a	n/a	0	n/a	n/a	n/a	n/a	n/a
1567.022	n/a	REC_WORD	783511	wordpools/wasnorm_wordpool.txt	LTP114	ltpFR	16	7	1	BASSINET	97	n/a	n/a	0	n/a	n/a	n/a	n/a	n/a
1573.822	n/a	REC_WORD	786911	wordpools/wasnorm_wordpool.txt	LTP114	ltpFR	16	7	0	SOFA	1342	n/a	n/a	1	n/a	n/a	n/a	n/a	n/a
1579.12	n/a	REC_WORD	789560	wordpools/wasnorm_wordpool.txt	LTP114	ltpFR	16	7	1	TOE	1473	n/a	n/a	0	n/a	n/a	n/a	n/a	n/a
1580.516	n/a	REC_WORD	790258	wordpools/wasnorm_wordpool.txt	LTP114	ltpFR	16	7	1	CAVITY	264	n/a	n/a	0	n/a	n/a	n/a	n/a	n/a
1641.83	n/a	WORD	820915	wordpools/wasnorm_wordpool.txt	LTP114	ltpFR	16	8	0	CAPTAIN	239	n/a	n/a	1	0.57763671875	0.412841796875	1	upper	amplitud.ttf
1645.886	n/a	WORD	822943	wordpools/wasnorm_wordpool.txt	LTP114	ltpFR	16	8	0	SWATTER	1418	n/a	n/a	0	0.57763671875	0.412841796875	1	upper	amplitud.ttf
1649.736	n/a	WORD	824868	wordpools/wasnorm_wordpool.txt	LTP114	ltpFR	16	8	0	MONASTERY	907	n/a	n/a	1	0.57763671875	0.412841796875	1	upper	amplitud.ttf
1653.592	n/a	WORD	826796	wordpools/wasnorm_wordpool.txt	LTP114	ltpFR	16	8	1	IRON	744	n/a	n/a	0	0.422607421875	0.5869140625	0	lower	zerothre.ttf
1657.508	n/a	WORD	828754	wordpools/wasnorm_wordpool.txt	LTP114	ltpFR	16	8	1	GRASSHOPPER	656	n/a	n/a	1	0.422607421875	0.5869140625	0	lower	zerothre.ttf
1661.716	n/a	WORD	830858	wordpools/wasnorm_wordpool.txt	LTP114	ltpFR	16	8	1	MOTH	920	n/a	n/a	1	0.422607421875	0.5869140625	0	lower	zerothre.ttf
1665.672	n/a	WORD	832836	wordpools/wasnorm_wordpool.txt	LTP114	ltpFR	16	8	1	PEBBLE	1035	n/a	n/a	0	0.422607421875	0.5869140625	0	lower	zerothre.ttf
1669.854	n/a	WORD	834927	wordpools/wasnorm_wordpool.txt	LTP114	ltpFR	16	8	0	POET	1095	n/a	n/a	1	0.57763671875	0.412841796875	1	upper	amplitud.ttf
1673.72	n/a	WORD	836860	wordpools/wasnorm_wordpool.txt	LTP114	ltpFR	16	8	0	DIARY	460	n/a	n/a	0	0.57763671875	0.412841796875	1	upper	amplitud.ttf
1677.726	n/a	WORD	838863	wordpools/wasnorm_wordpool.txt	LTP114	ltpFR	16	8	0	MONK	910	n/a	n/a	1	0.57763671875	0.412841796875	1	upper	amplitud.ttf
1681.61	n/a	WORD	840805	wordpools/wasnorm_wordpool.txt	LTP114	ltpFR	16	8	1	SHEEP	1278	n/a	n/a	1	0.422607421875	0.5869140625	0	lower	zerothre.ttf
1685.674	n/a	WORD	842837	wordpools/wasnorm_wordpool.txt	LTP114	ltpFR	16	8	1	GOAT	644	n/a	n/a	1	0.422607421875	0.5869140625	0	lower	zerothre.ttf
1689.606	n/a	WORD	844803	wordpools/wasnorm_wordpool.txt	LTP114	ltpFR	16	8	1	GYM	674	n/a	n/a	0	0.422607421875	0.5869140625	0	lower	zerothre.ttf
1693.456	n/a	WORD	846728	wordpools/wasnorm_wordpool.txt	LTP114	ltpFR	16	8	1	ROACH	1195	n/a	n/a	1	0.422607421875	0.5869140625	0	lower	zerothre.ttf
1697.556	n/a	WORD	848778	wordpools/wasnorm_wordpool.txt	LTP114	ltpFR	16	8	0	BLUEBERRY	140	n/a	n/a	0	0.57763671875	0.412841796875	1	upper	amplitud.ttf
1701.704	n/a	WORD	850852	wordpools/wasnorm_wordpool.txt	LTP114	ltpFR	16	8	0	DUSTPAN	509	n/a	n/a	0	0.57763671875	0.412841796875	1	upper	amplitud.ttf
1707.436	n/a	REC_START	853718	n/a	LTP114	ltpFR	16	8	n/a	n/a	n/a	n/a	n/a	n/a	n/a	n/a	n/a	n/a	n/a
1708.114	n/a	REC_WORD	854057	wordpools/wasnorm_wordpool.txt	LTP114	ltpFR	16	8	0	BLUEBERRY	140	n/a	n/a	0	n/a	n/a	n/a	n/a	n/a
1709.192	n/a	REC_WORD	854596	wordpools/wasnorm_wordpool.txt	LTP114	ltpFR	16	8	0	DUSTPAN	509	n/a	n/a	0	n/a	n/a	n/a	n/a	n/a
1710.31	n/a	REC_WORD	855155	wordpools/wasnorm_wordpool.txt	LTP114	ltpFR	16	8	1	ROACH	1195	n/a	n/a	1	n/a	n/a	n/a	n/a	n/a
1713.792	n/a	REC_WORD	856896	wordpools/wasnorm_wordpool.txt	LTP114	ltpFR	16	8	1	SERPENT	1270	n/a	n/a	1	n/a	n/a	n/a	n/a	n/a
1725.746	n/a	REC_WORD	862873	wordpools/wasnorm_wordpool.txt	LTP114	ltpFR	16	8	0	CAPTAIN	239	n/a	n/a	1	n/a	n/a	n/a	n/a	n/a
1786.644	n/a	WORD	893322	wordpools/wasnorm_wordpool.txt	LTP114	ltpFR	16	9	0	MEAL	882	n/a	n/a	0	0.57763671875	0.412841796875	1	upper	amplitud.ttf
1790.834	n/a	WORD	895417	wordpools/wasnorm_wordpool.txt	LTP114	ltpFR	16	9	0	LEG	809	n/a	n/a	0	0.57763671875	0.412841796875	1	upper	amplitud.ttf
1794.858	n/a	WORD	897429	wordpools/wasnorm_wordpool.txt	LTP114	ltpFR	16	9	0	BARN	89	n/a	n/a	1	0.57763671875	0.412841796875	1	upper	amplitud.ttf
1798.974	n/a	WORD	899487	wordpools/wasnorm_wordpool.txt	LTP114	ltpFR	16	9	0	JEANS	752	n/a	n/a	0	0.57763671875	0.412841796875	1	upper	amplitud.ttf
1803.09	n/a	WORD	901545	wordpools/wasnorm_wordpool.txt	LTP114	ltpFR	16	9	0	PASSAGE	1019	n/a	n/a	1	0.57763671875	0.412841796875	1	upper	amplitud.ttf
1807.104	n/a	WORD	903552	wordpools/wasnorm_wordpool.txt	LTP114	ltpFR	16	9	0	HIP	710	n/a	n/a	1	0.57763671875	0.412841796875	1	upper	amplitud.ttf
1811.254	n/a	WORD	905627	wordpools/wasnorm_wordpool.txt	LTP114	ltpFR	16	9	0	PEN	1041	n/a	n/a	0	0.57763671875	0.412841796875	1	upper	amplitud.ttf
1815.436	n/a	WORD	907718	wordpools/wasnorm_wordpool.txt	LTP114	ltpFR	16	9	0	PENCIL	1042	n/a	n/a	0	0.57763671875	0.412841796875	1	upper	amplitud.ttf
1819.336	n/a	WORD	909668	wordpools/wasnorm_wordpool.txt	LTP114	ltpFR	16	9	0	COPIER	377	n/a	n/a	1	0.57763671875	0.412841796875	1	upper	amplitud.ttf
1823.518	n/a	WORD	911759	wordpools/wasnorm_wordpool.txt	LTP114	ltpFR	16	9	0	PAPER	1011	n/a	n/a	0	0.57763671875	0.412841796875	1	upper	amplitud.ttf
1827.64	n/a	WORD	913820	wordpools/wasnorm_wordpool.txt	LTP114	ltpFR	16	9	0	CELERY	266	n/a	n/a	1	0.57763671875	0.412841796875	1	upper	amplitud.ttf
1831.764	n/a	WORD	915882	wordpools/wasnorm_wordpool.txt	LTP114	ltpFR	16	9	0	TURTLE	1522	n/a	n/a	0	0.57763671875	0.412841796875	1	upper	amplitud.ttf
1835.812	n/a	WORD	917906	wordpools/wasnorm_wordpool.txt	LTP114	ltpFR	16	9	0	CAN	225	n/a	n/a	0	0.57763671875	0.412841796875	1	upper	amplitud.ttf
1839.678	n/a	WORD	919839	wordpools/wasnorm_wordpool.txt	LTP114	ltpFR	16	9	0	REFRIGERATOR	1179	n/a	n/a	1	0.57763671875	0.412841796875	1	upper	amplitud.ttf
1843.81	n/a	WORD	921905	wordpools/wasnorm_wordpool.txt	LTP114	ltpFR	16	9	0	RESORT	1186	n/a	n/a	1	0.57763671875	0.412841796875	1	upper	amplitud.ttf
1847.984	n/a	WORD	923992	wordpools/wasnorm_wordpool.txt	LTP114	ltpFR	16	9	0	SUNRISE	1407	n/a	n/a	1	0.57763671875	0.412841796875	1	upper	amplitud.ttf
1853.65	n/a	REC_START	926825	n/a	LTP114	ltpFR	16	9	n/a	n/a	n/a	n/a	n/a	n/a	n/a	n/a	n/a	n/a	n/a
1854.268	n/a	REC_WORD	927134	wordpools/wasnorm_wordpool.txt	LTP114	ltpFR	16	9	0	REFRIGERATOR	1179	n/a	n/a	1	n/a	n/a	n/a	n/a	n/a
1855.614	n/a	REC_WORD	927807	wordpools/wasnorm_wordpool.txt	LTP114	ltpFR	16	9	0	CAN	225	n/a	n/a	0	n/a	n/a	n/a	n/a	n/a
1856.692	n/a	REC_WORD	928346	wordpools/wasnorm_wordpool.txt	LTP114	ltpFR	16	9	0	RESORT	1186	n/a	n/a	1	n/a	n/a	n/a	n/a	n/a
1857.96	n/a	REC_WORD	928980	wordpools/wasnorm_wordpool.txt	LTP114	ltpFR	16	9	0	SUNRISE	1407	n/a	n/a	1	n/a	n/a	n/a	n/a	n/a
1863.512	n/a	REC_WORD	931756	wordpools/wasnorm_wordpool.txt	LTP114	ltpFR	16	9	0	DUSTPAN	509	n/a	n/a	0	n/a	n/a	n/a	n/a	n/a
1871.424	n/a	REC_WORD	935712	wordpools/wasnorm_wordpool.txt	LTP114	ltpFR	16	9	0	REFRIGERATOR	1179	n/a	n/a	1	n/a	n/a	n/a	n/a	n/a
1933.134	n/a	WORD	966567	wordpools/wasnorm_wordpool.txt	LTP114	ltpFR	16	10	1	PREACHER	1119	n/a	n/a	1	0.422607421875	0.5869140625	0	lower	zerothre.ttf
1937.242	n/a	WORD	968621	wordpools/wasnorm_wordpool.txt	LTP114	ltpFR	16	10	1	CHAPEL	280	n/a	n/a	0	0.422607421875	0.5869140625	0	lower	zerothre.ttf
1941.314	n/a	WORD	970657	wordpools/wasnorm_wordpool.txt	LTP114	ltpFR	16	10	1	GODDESS	646	n/a	n/a	1	0.422607421875	0.5869140625	0	lower	zerothre.ttf
1945.338	n/a	WORD	972669	wordpools/wasnorm_wordpool.txt	LTP114	ltpFR	16	10	1	CAP	236	n/a	n/a	0	0.422607421875	0.5869140625	0	lower	zerothre.ttf
1949.538	n/a	WORD	974769	wordpools/wasnorm_wordpool.txt	LTP114	ltpFR	16	10	1	BAY	102	n/a	n/a	0	0.422607421875	0.5869140625	0	lower	zerothre.ttf
1953.412	n/a	WORD	976706	wordpools/wasnorm_wordpool.txt	LTP114	ltpFR	16	10	1	FREEWAY	603	n/a	n/a	0	0.422607421875	0.5869140625	0	lower	zerothre.ttf
1957.31	n/a	WORD	978655	wordpools/wasnorm_wordpool.txt	LTP114	ltpFR	16	10	1	ANKLE	24	n/a	n/a	1	0.422607421875	0.5869140625	0	lower	zerothre.ttf
1961.226	n/a	WORD	980613	wordpools/wasnorm_wordpool.txt	LTP114	ltpFR	16	10	1	SHOE	1288	n/a	n/a	0	0.422607421875	0.5869140625	0	lower	zerothre.ttf
1965.15	n/a	WORD	982575	wordpools/wasnorm_wordpool.txt	LTP114	ltpFR	16	10	1	ALLIGATOR	16	n/a	n/a	1	0.422607421875	0.5869140625	0	lower	zerothre.ttf
1969.332	n/a	WORD	984666	wordpools/wasnorm_wordpool.txt	LTP114	ltpFR	16	10	1	DRIVEWAY	500	n/a	n/a	1	0.422607421875	0.5869140625	0	lower	zerothre.ttf
1973.488	n/a	WORD	986744	wordpools/wasnorm_wordpool.txt	LTP114	ltpFR	16	10	1	LIGHTER	819	n/a	n/a	0	0.422607421875	0.5869140625	0	lower	zerothre.ttf
1977.652	n/a	WORD	988826	wordpools/wasnorm_wordpool.txt	LTP114	ltpFR	16	10	1	ASH	44	n/a	n/a	0	0.422607421875	0.5869140625	0	lower	zerothre.ttf
1981.752	n/a	WORD	990876	wordpools/wasnorm_wordpool.txt	LTP114	ltpFR	16	10	1	PARSLEY	1016	n/a	n/a	1	0.422607421875	0.5869140625	0	lower	zerothre.ttf
1985.884	n/a	WORD	992942	wordpools/wasnorm_wordpool.txt	LTP114	ltpFR	16	10	1	CRICKET	408	n/a	n/a	0	0.422607421875	0.5869140625	0	lower	zerothre.ttf
1989.75	n/a	WORD	994875	wordpools/wasnorm_wordpool.txt	LTP114	ltpFR	16	10	1	FOREHEAD	592	n/a	n/a	0	0.422607421875	0.5869140625	0	lower	zerothre.ttf
1993.59	n/a	WORD	996795	wordpools/wasnorm_wordpool.txt	LTP114	ltpFR	16	10	1	SALIVA	1226	n/a	n/a	0	0.422607421875	0.5869140625	0	lower	zerothre.ttf
1999.564	n/a	REC_START	999782	n/a	LTP114	ltpFR	16	10	n/a	n/a	n/a	n/a	n/a	n/a	n/a	n/a	n/a	n/a	n/a
2000.118	n/a	REC_WORD	1000059	wordpools/wasnorm_wordpool.txt	LTP114	ltpFR	16	10	1	SALIVA	1226	n/a	n/a	0	n/a	n/a	n/a	n/a	n/a
2001.544	n/a	REC_WORD	1000772	wordpools/wasnorm_wordpool.txt	LTP114	ltpFR	16	10	1	FOREHEAD	592	n/a	n/a	0	n/a	n/a	n/a	n/a	n/a
2003.516	n/a	REC_WORD	1001758	wordpools/wasnorm_wordpool.txt	LTP114	ltpFR	16	10	1	ANKLE	24	n/a	n/a	1	n/a	n/a	n/a	n/a	n/a
2005.91	n/a	REC_WORD	1002955	wordpools/wasnorm_wordpool.txt	LTP114	ltpFR	16	10	0	FOOT	590	n/a	n/a	0	n/a	n/a	n/a	n/a	n/a
2007.332	n/a	REC_WORD	1003666	wordpools/wasnorm_wordpool.txt	LTP114	ltpFR	16	10	1	SHOE	1288	n/a	n/a	0	n/a	n/a	n/a	n/a	n/a
2010.834	n/a	REC_WORD	1005417	wordpools/wasnorm_wordpool.txt	LTP114	ltpFR	16	10	0	WRIST	1626	n/a	n/a	0	n/a	n/a	n/a	n/a	n/a
2013.774	n/a	REC_WORD	1006887	wordpools/wasnorm_wordpool.txt	LTP114	ltpFR	16	10	1	GODDESS	646	n/a	n/a	1	n/a	n/a	n/a	n/a	n/a
2020.812	n/a	REC_WORD	1010406	wordpools/wasnorm_wordpool.txt	LTP114	ltpFR	16	10	1	BAY	102	n/a	n/a	0	n/a	n/a	n/a	n/a	n/a
2078.688	n/a	WORD	1039344	wordpools/wasnorm_wordpool.txt	LTP114	ltpFR	16	11	-1	ACID	2	n/a	n/a	-1	1.0	1.0	1	upper	Verdana.ttf
2082.54	n/a	WORD	1041270	wordpools/wasnorm_wordpool.txt	LTP114	ltpFR	16	11	-1	BENCH	121	n/a	n/a	-1	1.0	1.0	1	upper	Verdana.ttf
2086.728	n/a	WORD	1043364	wordpools/wasnorm_wordpool.txt	LTP114	ltpFR	16	11	-1	GRIZZLY	662	n/a	n/a	-1	1.0	1.0	1	upper	Verdana.ttf
2090.636	n/a	WORD	1045318	wordpools/wasnorm_wordpool.txt	LTP114	ltpFR	16	11	-1	CREVICE	405	n/a	n/a	-1	1.0	1.0	1	upper	Verdana.ttf
2094.75	n/a	WORD	1047375	wordpools/wasnorm_wordpool.txt	LTP114	ltpFR	16	11	-1	MOTORCYCLE	923	n/a	n/a	-1	1.0	1.0	1	upper	Verdana.ttf
2098.792	n/a	WORD	1049396	wordpools/wasnorm_wordpool.txt	LTP114	ltpFR	16	11	-1	RIDER	1191	n/a	n/a	-1	1.0	1.0	1	upper	Verdana.ttf
2102.99	n/a	WORD	1051495	wordpools/wasnorm_wordpool.txt	LTP114	ltpFR	16	11	-1	SACK	1220	n/a	n/a	-1	1.0	1.0	1	upper	Verdana.ttf
2107.14	n/a	WORD	1053570	wordpools/wasnorm_wordpool.txt	LTP114	ltpFR	16	11	-1	HANDBAG	684	n/a	n/a	-1	1.0	1.0	1	upper	Verdana.ttf
2111.298	n/a	WORD	1055649	wordpools/wasnorm_wordpool.txt	LTP114	ltpFR	16	11	-1	WATERFALL	1595	n/a	n/a	-1	1.0	1.0	1	upper	Verdana.ttf
2115.128	n/a	WORD	1057564	wordpools/wasnorm_wordpool.txt	LTP114	ltpFR	16	11	-1	CAPTIVE	240	n/a	n/a	-1	1.0	1.0	1	upper	Verdana.ttf
2119.094	n/a	WORD	1059547	wordpools/wasnorm_wordpool.txt	LTP114	ltpFR	16	11	-1	RESTAURANT	1187	n/a	n/a	-1	1.0	1.0	1	upper	Verdana.ttf
2123.178	n/a	WORD	1061589	wordpools/wasnorm_wordpool.txt	LTP114	ltpFR	16	11	-1	SANDWICH	1232	n/a	n/a	-1	1.0	1.0	1	upper	Verdana.ttf
2127.15	n/a	WORD	1063575	wordpools/wasnorm_wordpool.txt	LTP114	ltpFR	16	11	-1	CRATER	400	n/a	n/a	-1	1.0	1.0	1	upper	Verdana.ttf
2131.098	n/a	WORD	1065549	wordpools/wasnorm_wordpool.txt	LTP114	ltpFR	16	11	-1	POISON	1096	n/a	n/a	-1	1.0	1.0	1	upper	Verdana.ttf
2135.056	n/a	WORD	1067528	wordpools/wasnorm_wordpool.txt	LTP114	ltpFR	16	11	-1	PIER	1063	n/a	n/a	-1	1.0	1.0	1	upper	Verdana.ttf
2138.93	n/a	WORD	1069465	wordpools/wasnorm_wordpool.txt	LTP114	ltpFR	16	11	-1	SEAT	1264	n/a	n/a	-1	1.0	1.0	1	upper	Verdana.ttf
2144.854	n/a	REC_START	1072427	n/a	LTP114	ltpFR	16	11	n/a	n/a	n/a	n/a	n/a	n/a	n/a	n/a	n/a	n/a	n/a
2145.626	n/a	REC_WORD	1072813	wordpools/wasnorm_wordpool.txt	LTP114	ltpFR	16	11	-1	ACID	2	n/a	n/a	-1	n/a	n/a	n/a	n/a	n/a
2146.758	n/a	REC_WORD	1073379	wordpools/wasnorm_wordpool.txt	LTP114	ltpFR	16	11	-1	BENCH	121	n/a	n/a	-1	n/a	n/a	n/a	n/a	n/a
2147.736	n/a	REC_WORD	1073868	wordpools/wasnorm_wordpool.txt	LTP114	ltpFR	16	11	-1	GRIZZLY	662	n/a	n/a	-1	n/a	n/a	n/a	n/a	n/a
2148.92	n/a	REC_WORD	1074460	wordpools/wasnorm_wordpool.txt	LTP114	ltpFR	16	11	-1	CREVICE	405	n/a	n/a	-1	n/a	n/a	n/a	n/a	n/a
2150.336	n/a	REC_WORD	1075168	wordpools/wasnorm_wordpool.txt	LTP114	ltpFR	16	11	-1	PIER	1063	n/a	n/a	-1	n/a	n/a	n/a	n/a	n/a
2151.544	n/a	REC_WORD	1075772	wordpools/wasnorm_wordpool.txt	LTP114	ltpFR	16	11	-1	SEAT	1264	n/a	n/a	-1	n/a	n/a	n/a	n/a	n/a
2224.088	n/a	WORD	1112044	wordpools/wasnorm_wordpool.txt	LTP114	ltpFR	16	12	-1	HAMMER	680	n/a	n/a	-1	1.0	1.0	1	upper	Verdana.ttf
2228.028	n/a	WORD	1114014	wordpools/wasnorm_wordpool.txt	LTP114	ltpFR	16	12	-1	BATH	98	n/a	n/a	-1	1.0	1.0	1	upper	Verdana.ttf
2231.868	n/a	WORD	1115934	wordpools/wasnorm_wordpool.txt	LTP114	ltpFR	16	12	-1	SPONGE	1355	n/a	n/a	-1	1.0	1.0	1	upper	Verdana.ttf
2236.018	n/a	WORD	1118009	wordpools/wasnorm_wordpool.txt	LTP114	ltpFR	16	12	-1	CHECK	284	n/a	n/a	-1	1.0	1.0	1	upper	Verdana.ttf
2239.932	n/a	WORD	1119966	wordpools/wasnorm_wordpool.txt	LTP114	ltpFR	16	12	-1	CARPET	247	n/a	n/a	-1	1.0	1.0	1	upper	Verdana.ttf
2243.864	n/a	WORD	1121932	wordpools/wasnorm_wordpool.txt	LTP114	ltpFR	16	12	-1	FRIEND	606	n/a	n/a	-1	1.0	1.0	1	upper	Verdana.ttf
2247.872	n/a	WORD	1123936	wordpools/wasnorm_wordpool.txt	LTP114	ltpFR	16	12	-1	FAMILY	550	n/a	n/a	-1	1.0	1.0	1	upper	Verdana.ttf
2252.004	n/a	WORD	1126002	wordpools/wasnorm_wordpool.txt	LTP114	ltpFR	16	12	-1	RACKET	1155	n/a	n/a	-1	1.0	1.0	1	upper	Verdana.ttf
2256.136	n/a	WORD	1128068	wordpools/wasnorm_wordpool.txt	LTP114	ltpFR	16	12	-1	METEOR	889	n/a	n/a	-1	1.0	1.0	1	upper	Verdana.ttf
2260.102	n/a	WORD	1130051	wordpools/wasnorm_wordpool.txt	LTP114	ltpFR	16	12	-1	SUBWAY	1400	n/a	n/a	-1	1.0	1.0	1	upper	Verdana.ttf
2264.084	n/a	WORD	1132042	wordpools/wasnorm_wordpool.txt	LTP114	ltpFR	16	12	-1	NET	946	n/a	n/a	-1	1.0	1.0	1	upper	Verdana.ttf
2268.124	n/a	WORD	1134062	wordpools/wasnorm_wordpool.txt	LTP114	ltpFR	16	12	-1	PAINTER	1004	n/a	n/a	-1	1.0	1.0	1	upper	Verdana.ttf
2272.056	n/a	WORD	1136028	wordpools/wasnorm_wordpool.txt	LTP114	ltpFR	16	12	-1	SCENERY	1247	n/a	n/a	-1	1.0	1.0	1	upper	Verdana.ttf
2276.046	n/a	WORD	1138023	wordpools/wasnorm_wordpool.txt	LTP114	ltpFR	16	12	-1	UMPIRE	1535	n/a	n/a	-1	1.0	1.0	1	upper	Verdana.ttf
2279.912	n/a	WORD	1139956	wordpools/wasnorm_wordpool.txt	LTP114	ltpFR	16	12	-1	MOP	916	n/a	n/a	-1	1.0	1.0	1	upper	Verdana.ttf
2283.936	n/a	WORD	1141968	wordpools/wasnorm_wordpool.txt	LTP114	ltpFR	16	12	-1	WHALE	1601	n/a	n/a	-1	1.0	1.0	1	upper	Verdana.ttf
2289.844	n/a	REC_START	1144922	n/a	LTP114	ltpFR	16	12	n/a	n/a	n/a	n/a	n/a	n/a	n/a	n/a	n/a	n/a	n/a
2290.476	n/a	REC_WORD	1145238	wordpools/wasnorm_wordpool.txt	LTP114	ltpFR	16	12	-1	WHALE	1601	n/a	n/a	-1	n/a	n/a	n/a	n/a	n/a
2291.708	n/a	REC_WORD	1145854	wordpools/wasnorm_wordpool.txt	LTP114	ltpFR	16	12	-1	SPONGE	1355	n/a	n/a	-1	n/a	n/a	n/a	n/a	n/a
2293.216	n/a	REC_WORD	1146608	wordpools/wasnorm_wordpool.txt	LTP114	ltpFR	16	12	-1	BATH	98	n/a	n/a	-1	n/a	n/a	n/a	n/a	n/a
2294.552	n/a	REC_WORD	1147276	wordpools/wasnorm_wordpool.txt	LTP114	ltpFR	16	12	-1	HAMMER	680	n/a	n/a	-1	n/a	n/a	n/a	n/a	n/a
2297.426	n/a	REC_WORD	1148713	wordpools/wasnorm_wordpool.txt	LTP114	ltpFR	16	12	-1	METEOR	889	n/a	n/a	-1	n/a	n/a	n/a	n/a	n/a
2298.394	n/a	REC_WORD	1149197	wordpools/wasnorm_wordpool.txt	LTP114	ltpFR	16	12	-1	SUBWAY	1400	n/a	n/a	-1	n/a	n/a	n/a	n/a	n/a
2300.25	n/a	REC_WORD	1150125	wordpools/wasnorm_wordpool.txt	LTP114	ltpFR	16	12	-1	RACKET	1155	n/a	n/a	-1	n/a	n/a	n/a	n/a	n/a
2301.582	n/a	REC_WORD	1150791	wordpools/wasnorm_wordpool.txt	LTP114	ltpFR	16	12	-1	NET	946	n/a	n/a	-1	n/a	n/a	n/a	n/a	n/a
2302.734	n/a	REC_WORD	1151367	wordpools/wasnorm_wordpool.txt	LTP114	ltpFR	16	12	-1	FRIEND	606	n/a	n/a	-1	n/a	n/a	n/a	n/a	n/a
2305.078	n/a	REC_WORD	1152539	wordpools/wasnorm_wordpool.txt	LTP114	ltpFR	16	12	-1	FAMILY	550	n/a	n/a	-1	n/a	n/a	n/a	n/a	n/a
2365.462	n/a	REST_REWET	1182731	n/a	LTP114	ltpFR	16	12	n/a	n/a	n/a	n/a	n/a	n/a	n/a	n/a	n/a	n/a	n/a
2633.73	n/a	WORD	1316865	wordpools/wasnorm_wordpool.txt	LTP114	ltpFR	16	13	1	NUT	965	n/a	n/a	0	0.422607421875	0.5869140625	0	lower	zerothre.ttf
2637.872	n/a	WORD	1318936	wordpools/wasnorm_wordpool.txt	LTP114	ltpFR	16	13	1	PARROT	1015	n/a	n/a	1	0.422607421875	0.5869140625	0	lower	zerothre.ttf
2641.686	n/a	WORD	1320843	wordpools/wasnorm_wordpool.txt	LTP114	ltpFR	16	13	1	GULL	671	n/a	n/a	1	0.422607421875	0.5869140625	0	lower	zerothre.ttf
2645.784	n/a	WORD	1322892	wordpools/wasnorm_wordpool.txt	LTP114	ltpFR	16	13	1	HATCHET	691	n/a	n/a	0	0.422607421875	0.5869140625	0	lower	zerothre.ttf
2649.684	n/a	WORD	1324842	wordpools/wasnorm_wordpool.txt	LTP114	ltpFR	16	13	1	UNDERWEAR	1537	n/a	n/a	0	0.422607421875	0.5869140625	0	lower	zerothre.ttf
2653.75	n/a	WORD	1326875	wordpools/wasnorm_wordpool.txt	LTP114	ltpFR	16	13	1	CHEST	295	n/a	n/a	1	0.422607421875	0.5869140625	0	lower	zerothre.ttf
2657.864	n/a	WORD	1328932	wordpools/wasnorm_wordpool.txt	LTP114	ltpFR	16	13	1	GOO	648	n/a	n/a	0	0.422607421875	0.5869140625	0	lower	zerothre.ttf
2661.996	n/a	WORD	1330998	wordpools/wasnorm_wordpool.txt	LTP114	ltpFR	16	13	1	FLORIDA	582	n/a	n/a	0	0.422607421875	0.5869140625	0	lower	zerothre.ttf
2665.97	n/a	WORD	1332985	wordpools/wasnorm_wordpool.txt	LTP114	ltpFR	16	13	1	FLOWER	584	n/a	n/a	1	0.422607421875	0.5869140625	0	lower	zerothre.ttf
2669.82	n/a	WORD	1334910	wordpools/wasnorm_wordpool.txt	LTP114	ltpFR	16	13	1	TOWER	1490	n/a	n/a	0	0.422607421875	0.5869140625	0	lower	zerothre.ttf
2673.91	n/a	WORD	1336955	wordpools/wasnorm_wordpool.txt	LTP114	ltpFR	16	13	1	SURF	1412	n/a	n/a	0	0.422607421875	0.5869140625	0	lower	zerothre.ttf
2678.068	n/a	WORD	1339034	wordpools/wasnorm_wordpool.txt	LTP114	ltpFR	16	13	1	FOLDER	588	n/a	n/a	0	0.422607421875	0.5869140625	0	lower	zerothre.ttf
2681.966	n/a	WORD	1340983	wordpools/wasnorm_wordpool.txt	LTP114	ltpFR	16	13	1	DICTIONARY	463	n/a	n/a	0	0.422607421875	0.5869140625	0	lower	zerothre.ttf
2685.822	n/a	WORD	1342911	wordpools/wasnorm_wordpool.txt	LTP114	ltpFR	16	13	1	VICTIM	1562	n/a	n/a	1	0.422607421875	0.5869140625	0	lower	zerothre.ttf
2689.788	n/a	WORD	1344894	wordpools/wasnorm_wordpool.txt	LTP114	ltpFR	16	13	1	BINDER	127	n/a	n/a	0	0.422607421875	0.5869140625	0	lower	zerothre.ttf
2693.97	n/a	WORD	1346985	wordpools/wasnorm_wordpool.txt	LTP114	ltpFR	16	13	1	WEED	1599	n/a	n/a	1	0.422607421875	0.5869140625	0	lower	zerothre.ttf
2699.852	n/a	REC_START	1349926	n/a	LTP114	ltpFR	16	13	n/a	n/a	n/a	n/a	n/a	n/a	n/a	n/a	n/a	n/a	n/a
2700.71	n/a	REC_WORD	1350355	wordpools/wasnorm_wordpool.txt	LTP114	ltpFR	16	13	1	WEED	1599	n/a	n/a	1	n/a	n/a	n/a	n/a	n/a
2701.688	n/a	REC_WORD	1350844	wordpools/wasnorm_wordpool.txt	LTP114	ltpFR	16	13	1	BINDER	127	n/a	n/a	0	n/a	n/a	n/a	n/a	n/a
2702.61	n/a	REC_WORD	1351305	wordpools/wasnorm_wordpool.txt	LTP114	ltpFR	16	13	1	FOLDER	588	n/a	n/a	0	n/a	n/a	n/a	n/a	n/a
2706.458	n/a	REC_WORD	1353229	wordpools/wasnorm_wordpool.txt	LTP114	ltpFR	16	13	1	SURF	1412	n/a	n/a	0	n/a	n/a	n/a	n/a	n/a
2710.634	n/a	REC_WORD	1355317	wordpools/wasnorm_wordpool.txt	LTP114	ltpFR	16	13	1	GULL	671	n/a	n/a	1	n/a	n/a	n/a	n/a	n/a
2712.854	n/a	REC_WORD	1356427	wordpools/wasnorm_wordpool.txt	LTP114	ltpFR	16	13	1	PARROT	1015	n/a	n/a	1	n/a	n/a	n/a	n/a	n/a
2715.462	n/a	REC_WORD	1357731	wordpools/wasnorm_wordpool.txt	LTP114	ltpFR	16	13	1	UNDERWEAR	1537	n/a	n/a	0	n/a	n/a	n/a	n/a	n/a
2717.494	n/a	REC_WORD	1358747	wordpools/wasnorm_wordpool.txt	LTP114	ltpFR	16	13	1	NUT	965	n/a	n/a	0	n/a	n/a	n/a	n/a	n/a
2725.684	n/a	REC_WORD	1362842	wordpools/wasnorm_wordpool.txt	LTP114	ltpFR	16	13	1	HATCHET	691	n/a	n/a	0	n/a	n/a	n/a	n/a	n/a
2728.014	n/a	REC_WORD	1364007	wordpools/wasnorm_wordpool.txt	LTP114	ltpFR	16	13	1	CHEST	295	n/a	n/a	1	n/a	n/a	n/a	n/a	n/a
2730.54	n/a	REC_WORD	1365270	wordpools/wasnorm_wordpool.txt	LTP114	ltpFR	16	13	1	GOO	648	n/a	n/a	0	n/a	n/a	n/a	n/a	n/a
2792.9	n/a	WORD	1396450	wordpools/wasnorm_wordpool.txt	LTP114	ltpFR	16	14	1	LETTER	813	n/a	n/a	0	0.422607421875	0.5869140625	0	lower	zerothre.ttf
2796.79	n/a	WORD	1398395	wordpools/wasnorm_wordpool.txt	LTP114	ltpFR	16	14	1	PACKAGE	997	n/a	n/a	0	0.422607421875	0.5869140625	0	lower	zerothre.ttf
2800.714	n/a	WORD	1400357	wordpools/wasnorm_wordpool.txt	LTP114	ltpFR	16	14	1	COAL	332	n/a	n/a	0	0.422607421875	0.5869140625	0	lower	zerothre.ttf
2804.562	n/a	WORD	1402281	wordpools/wasnorm_wordpool.txt	LTP114	ltpFR	16	14	1	SWAMP	1416	n/a	n/a	0	0.422607421875	0.5869140625	0	lower	zerothre.ttf
2808.736	n/a	WORD	1404368	wordpools/wasnorm_wordpool.txt	LTP114	ltpFR	16	14	1	CHIMPANZEE	302	n/a	n/a	1	0.422607421875	0.5869140625	0	lower	zerothre.ttf
2812.884	n/a	WORD	1406442	wordpools/wasnorm_wordpool.txt	LTP114	ltpFR	16	14	1	PRISONER	1128	n/a	n/a	1	0.422607421875	0.5869140625	0	lower	zerothre.ttf
2816.976	n/a	WORD	1408488	wordpools/wasnorm_wordpool.txt	LTP114	ltpFR	16	14	1	CONVICT	371	n/a	n/a	1	0.422607421875	0.5869140625	0	lower	zerothre.ttf
2820.84	n/a	WORD	1410420	wordpools/wasnorm_wordpool.txt	LTP114	ltpFR	16	14	1	SQUIRREL	1362	n/a	n/a	1	0.422607421875	0.5869140625	0	lower	zerothre.ttf
2824.88	n/a	WORD	1412440	wordpools/wasnorm_wordpool.txt	LTP114	ltpFR	16	14	1	ZOO	1637	n/a	n/a	1	0.422607421875	0.5869140625	0	lower	zerothre.ttf
2828.872	n/a	WORD	1414436	wordpools/wasnorm_wordpool.txt	LTP114	ltpFR	16	14	1	SKULL	1320	n/a	n/a	0	0.422607421875	0.5869140625	0	lower	zerothre.ttf
2832.928	n/a	WORD	1416464	wordpools/wasnorm_wordpool.txt	LTP114	ltpFR	16	14	1	APE	31	n/a	n/a	1	0.422607421875	0.5869140625	0	lower	zerothre.ttf
2837.01	n/a	WORD	1418505	wordpools/wasnorm_wordpool.txt	LTP114	ltpFR	16	14	1	SHOVEL	1295	n/a	n/a	0	0.422607421875	0.5869140625	0	lower	zerothre.ttf
2840.934	n/a	WORD	1420467	wordpools/wasnorm_wordpool.txt	LTP114	ltpFR	16	14	1	EGYPT	519	n/a	n/a	0	0.422607421875	0.5869140625	0	lower	zerothre.ttf
2844.908	n/a	WORD	1422454	wordpools/wasnorm_wordpool.txt	LTP114	ltpFR	16	14	1	MAJOR	859	n/a	n/a	0	0.422607421875	0.5869140625	0	lower	zerothre.ttf
2848.832	n/a	WORD	1424416	wordpools/wasnorm_wordpool.txt	LTP114	ltpFR	16	14	1	BUCKET	184	n/a	n/a	0	0.422607421875	0.5869140625	0	lower	zerothre.ttf
2852.998	n/a	WORD	1426499	wordpools/wasnorm_wordpool.txt	LTP114	ltpFR	16	14	1	GARBAGE	622	n/a	n/a	0	0.422607421875	0.5869140625	0	lower	zerothre.ttf
2858.772	n/a	REC_START	1429386	n/a	LTP114	ltpFR	16	14	n/a	n/a	n/a	n/a	n/a	n/a	n/a	n/a	n/a	n/a	n/a
2860.068	n/a	REC_WORD	1430034	wordpools/wasnorm_wordpool.txt	LTP114	ltpFR	16	14	1	GARBAGE	622	n/a	n/a	0	n/a	n/a	n/a	n/a	n/a
2861.256	n/a	REC_WORD	1430628	wordpools/wasnorm_wordpool.txt	LTP114	ltpFR	16	14	1	BUCKET	184	n/a	n/a	0	n/a	n/a	n/a	n/a	n/a
2864.898	n/a	REC_WORD	1432449	wordpools/wasnorm_wordpool.txt	LTP114	ltpFR	16	14	1	SQUIRREL	1362	n/a	n/a	1	n/a	n/a	n/a	n/a	n/a
2866.48	n/a	REC_WORD	1433240	wordpools/wasnorm_wordpool.txt	LTP114	ltpFR	16	14	1	ZOO	1637	n/a	n/a	1	n/a	n/a	n/a	n/a	n/a
2870.316	n/a	REC_WORD	1435158	wordpools/wasnorm_wordpool.txt	LTP114	ltpFR	16	14	1	CHIMPANZEE	302	n/a	n/a	1	n/a	n/a	n/a	n/a	n/a
2871.812	n/a	REC_WORD	1435906	wordpools/wasnorm_wordpool.txt	LTP114	ltpFR	16	14	1	APE	31	n/a	n/a	1	n/a	n/a	n/a	n/a	n/a
2938.422	n/a	WORD	1469211	wordpools/wasnorm_wordpool.txt	LTP114	ltpFR	16	15	0	COMPANION	357	n/a	n/a	1	0.57763671875	0.412841796875	1	upper	amplitud.ttf
2942.538	n/a	WORD	1471269	wordpools/wasnorm_wordpool.txt	LTP114	ltpFR	16	15	0	CART	250	n/a	n/a	1	0.57763671875	0.412841796875	1	upper	amplitud.ttf
2946.728	n/a	WORD	1473364	wordpools/wasnorm_wordpool.txt	LTP114	ltpFR	16	15	1	BEVERAGE	123	n/a	n/a	0	0.422607421875	0.5869140625	0	lower	zerothre.ttf
2950.634	n/a	WORD	1475317	wordpools/wasnorm_wordpool.txt	LTP114	ltpFR	16	15	1	CORPORATION	382	n/a	n/a	0	0.422607421875	0.5869140625	0	lower	zerothre.ttf
2954.626	n/a	WORD	1477313	wordpools/wasnorm_wordpool.txt	LTP114	ltpFR	16	15	1	PEACH	1031	n/a	n/a	1	0.422607421875	0.5869140625	0	lower	zerothre.ttf
2958.558	n/a	WORD	1479279	wordpools/wasnorm_wordpool.txt	LTP114	ltpFR	16	15	1	TOY	1492	n/a	n/a	0	0.422607421875	0.5869140625	0	lower	zerothre.ttf
2962.656	n/a	WORD	1481328	wordpools/wasnorm_wordpool.txt	LTP114	ltpFR	16	15	1	GUARDIAN	668	n/a	n/a	1	0.422607421875	0.5869140625	0	lower	zerothre.ttf
2966.556	n/a	WORD	1483278	wordpools/wasnorm_wordpool.txt	LTP114	ltpFR	16	15	1	RASPBERRY	1168	n/a	n/a	1	0.422607421875	0.5869140625	0	lower	zerothre.ttf
2970.38	n/a	WORD	1485190	wordpools/wasnorm_wordpool.txt	LTP114	ltpFR	16	15	0	BANANA	77	n/a	n/a	0	0.57763671875	0.412841796875	1	upper	amplitud.ttf
2974.27	n/a	WORD	1487135	wordpools/wasnorm_wordpool.txt	LTP114	ltpFR	16	15	0	DEPUTY	450	n/a	n/a	1	0.57763671875	0.412841796875	1	upper	amplitud.ttf
2978.402	n/a	WORD	1489201	wordpools/wasnorm_wordpool.txt	LTP114	ltpFR	16	15	0	GUARD	667	n/a	n/a	1	0.57763671875	0.412841796875	1	upper	amplitud.ttf
2982.426	n/a	WORD	1491213	wordpools/wasnorm_wordpool.txt	LTP114	ltpFR	16	15	0	SAPPHIRE	1234	n/a	n/a	0	0.57763671875	0.412841796875	1	upper	amplitud.ttf
2986.55	n/a	WORD	1493275	wordpools/wasnorm_wordpool.txt	LTP114	ltpFR	16	15	0	HAMPER	682	n/a	n/a	1	0.57763671875	0.412841796875	1	upper	amplitud.ttf
2990.598	n/a	WORD	1495299	wordpools/wasnorm_wordpool.txt	LTP114	ltpFR	16	15	0	PHYSICIAN	1056	n/a	n/a	1	0.57763671875	0.412841796875	1	upper	amplitud.ttf
2994.498	n/a	WORD	1497249	wordpools/wasnorm_wordpool.txt	LTP114	ltpFR	16	15	1	SODA	1341	n/a	n/a	0	0.422607421875	0.5869140625	0	lower	zerothre.ttf
2998.372	n/a	WORD	1499186	wordpools/wasnorm_wordpool.txt	LTP114	ltpFR	16	15	1	COBBLER	335	n/a	n/a	1	0.422607421875	0.5869140625	0	lower	zerothre.ttf
3004.238	n/a	REC_START	1502119	n/a	LTP114	ltpFR	16	15	n/a	n/a	n/a	n/a	n/a	n/a	n/a	n/a	n/a	n/a	n/a
3005.156	n/a	REC_WORD	1502578	wordpools/wasnorm_wordpool.txt	LTP114	ltpFR	16	15	1	COBBLER	335	n/a	n/a	1	n/a	n/a	n/a	n/a	n/a
3006.202	n/a	REC_WORD	1503101	wordpools/wasnorm_wordpool.txt	LTP114	ltpFR	16	15	1	SODA	1341	n/a	n/a	0	n/a	n/a	n/a	n/a	n/a
3007.3	n/a	REC_WORD	1503650	wordpools/wasnorm_wordpool.txt	LTP114	ltpFR	16	15	1	BEVERAGE	123	n/a	n/a	0	n/a	n/a	n/a	n/a	n/a
3008.372	n/a	REC_WORD	1504186	wordpools/wasnorm_wordpool.txt	LTP114	ltpFR	16	15	0	PHYSICIAN	1056	n/a	n/a	1	n/a	n/a	n/a	n/a	n/a
3012.034	n/a	REC_WORD	1506017	wordpools/wasnorm_wordpool.txt	LTP114	ltpFR	16	15	-1	INMATE	738	n/a	n/a	-1	n/a	n/a	n/a	n/a	n/a
3013.446	n/a	REC_WORD	1506723	wordpools/wasnorm_wordpool.txt	LTP114	ltpFR	16	15	1	CONVICT	371	n/a	n/a	1	n/a	n/a	n/a	n/a	n/a
3014.854	n/a	REC_WORD	1507427	wordpools/wasnorm_wordpool.txt	LTP114	ltpFR	16	15	-1	FUGITIVE	612	n/a	n/a	-1	n/a	n/a	n/a	n/a	n/a
3018.95	n/a	REC_WORD	1509475	wordpools/wasnorm_wordpool.txt	LTP114	ltpFR	16	15	1	PRISONER	1128	n/a	n/a	1	n/a	n/a	n/a	n/a	n/a
3020.362	n/a	REC_WORD	1510181	wordpools/wasnorm_wordpool.txt	LTP114	ltpFR	16	15	-1	DUNGEON	507	n/a	n/a	-1	n/a	n/a	n/a	n/a	n/a
3025.236	n/a	REC_WORD	1512618	wordpools/wasnorm_wordpool.txt	LTP114	ltpFR	16	15	1	RASPBERRY	1168	n/a	n/a	1	n/a	n/a	n/a	n/a	n/a
3026.722	n/a	REC_WORD	1513361	wordpools/wasnorm_wordpool.txt	LTP114	ltpFR	16	15	0	BLUEBERRY	140	n/a	n/a	0	n/a	n/a	n/a	n/a	n/a
3028.568	n/a	REC_WORD	1514284	wordpools/wasnorm_wordpool.txt	LTP114	ltpFR	16	15	1	PEACH	1031	n/a	n/a	1	n/a	n/a	n/a	n/a	n/a
3038.686	n/a	REC_WORD	1519343	wordpools/wasnorm_wordpool.txt	LTP114	ltpFR	16	15	1	MAJOR	859	n/a	n/a	0	n/a	n/a	n/a	n/a	n/a
3042.438	n/a	REC_WORD	1521219	wordpools/wasnorm_wordpool.txt	LTP114	ltpFR	16	15	n/a	GENERAL	630	n/a	n/a	n/a	n/a	n/a	n/a	n/a	n/a
3105.646	n/a	WORD	1552823	wordpools/wasnorm_wordpool.txt	LTP114	ltpFR	16	16	-1	PAINTING	1005	n/a	n/a	-1	1.0	1.0	1	upper	Verdana.ttf
3109.678	n/a	WORD	1554839	wordpools/wasnorm_wordpool.txt	LTP114	ltpFR	16	16	-1	QUILT	1151	n/a	n/a	-1	1.0	1.0	1	upper	Verdana.ttf
3113.852	n/a	WORD	1556926	wordpools/wasnorm_wordpool.txt	LTP114	ltpFR	16	16	-1	TRENCH	1503	n/a	n/a	-1	1.0	1.0	1	upper	Verdana.ttf
3117.976	n/a	WORD	1558988	wordpools/wasnorm_wordpool.txt	LTP114	ltpFR	16	16	-1	LAPEL	800	n/a	n/a	-1	1.0	1.0	1	upper	Verdana.ttf
3122.184	n/a	WORD	1561092	wordpools/wasnorm_wordpool.txt	LTP114	ltpFR	16	16	-1	EWE	542	n/a	n/a	-1	1.0	1.0	1	upper	Verdana.ttf
3126.114	n/a	WORD	1563057	wordpools/wasnorm_wordpool.txt	LTP114	ltpFR	16	16	-1	VIOLA	1570	n/a	n/a	-1	1.0	1.0	1	upper	Verdana.ttf
3129.938	n/a	WORD	1564969	wordpools/wasnorm_wordpool.txt	LTP114	ltpFR	16	16	-1	FLOOR	581	n/a	n/a	-1	1.0	1.0	1	upper	Verdana.ttf
3133.788	n/a	WORD	1566894	wordpools/wasnorm_wordpool.txt	LTP114	ltpFR	16	16	-1	PRIMATE	1123	n/a	n/a	-1	1.0	1.0	1	upper	Verdana.ttf
3137.762	n/a	WORD	1568881	wordpools/wasnorm_wordpool.txt	LTP114	ltpFR	16	16	-1	MAID	856	n/a	n/a	-1	1.0	1.0	1	upper	Verdana.ttf
3141.578	n/a	WORD	1570789	wordpools/wasnorm_wordpool.txt	LTP114	ltpFR	16	16	-1	FEMALE	559	n/a	n/a	-1	1.0	1.0	1	upper	Verdana.ttf
3145.75	n/a	WORD	1572875	wordpools/wasnorm_wordpool.txt	LTP114	ltpFR	16	16	-1	SCULPTURE	1258	n/a	n/a	-1	1.0	1.0	1	upper	Verdana.ttf
3149.626	n/a	WORD	1574813	wordpools/wasnorm_wordpool.txt	LTP114	ltpFR	16	16	-1	POSTAGE	1113	n/a	n/a	-1	1.0	1.0	1	upper	Verdana.ttf
3153.624	n/a	WORD	1576812	wordpools/wasnorm_wordpool.txt	LTP114	ltpFR	16	16	-1	PARCEL	1012	n/a	n/a	-1	1.0	1.0	1	upper	Verdana.ttf
3157.84	n/a	WORD	1578920	wordpools/wasnorm_wordpool.txt	LTP114	ltpFR	16	16	-1	MAT	877	n/a	n/a	-1	1.0	1.0	1	upper	Verdana.ttf
3161.896	n/a	WORD	1580948	wordpools/wasnorm_wordpool.txt	LTP114	ltpFR	16	16	-1	JELLO	754	n/a	n/a	-1	1.0	1.0	1	upper	Verdana.ttf
3166.112	n/a	WORD	1583056	wordpools/wasnorm_wordpool.txt	LTP114	ltpFR	16	16	-1	PLUM	1090	n/a	n/a	-1	1.0	1.0	1	upper	Verdana.ttf
3172.036	n/a	REC_START	1586018	n/a	LTP114	ltpFR	16	16	n/a	n/a	n/a	n/a	n/a	n/a	n/a	n/a	n/a	n/a	n/a
3173.024	n/a	REC_WORD	1586512	wordpools/wasnorm_wordpool.txt	LTP114	ltpFR	16	16	-1	PLUM	1090	n/a	n/a	-1	n/a	n/a	n/a	n/a	n/a
3174.006	n/a	REC_WORD	1587003	wordpools/wasnorm_wordpool.txt	LTP114	ltpFR	16	16	-1	JELLO	754	n/a	n/a	-1	n/a	n/a	n/a	n/a	n/a
3261.742	n/a	REC_START	1630871	n/a	LTP114	ltpFR	16	n/a	n/a	n/a	n/a	n/a	n/a	n/a	n/a	n/a	n/a	n/a	n/a
3262.554	n/a	FFR_REC_WORD	1631277	wordpools/wasnorm_wordpool.txt	LTP114	ltpFR	16	n/a	1	CHIMPANZEE	302	n/a	n/a	1	n/a	n/a	n/a	n/a	n/a
3264.062	n/a	FFR_REC_WORD	1632031	wordpools/wasnorm_wordpool.txt	LTP114	ltpFR	16	n/a	1	APE	31	n/a	n/a	1	n/a	n/a	n/a	n/a	n/a
3266.436	n/a	FFR_REC_WORD	1633218	wordpools/wasnorm_wordpool.txt	LTP114	ltpFR	16	n/a	n/a	MONKEY	911	n/a	n/a	n/a	n/a	n/a	n/a	n/a	n/a
3271.46	n/a	FFR_REC_WORD	1635730	wordpools/wasnorm_wordpool.txt	LTP114	ltpFR	16	n/a	1	SQUIRREL	1362	n/a	n/a	1	n/a	n/a	n/a	n/a	n/a
3272.472	n/a	FFR_REC_WORD	1636236	wordpools/wasnorm_wordpool.txt	LTP114	ltpFR	16	n/a	1	ZOO	1637	n/a	n/a	1	n/a	n/a	n/a	n/a	n/a
3280.874	n/a	FFR_REC_WORD	1640437	wordpools/wasnorm_wordpool.txt	LTP114	ltpFR	16	n/a	0	PUDDLE	1140	n/a	n/a	0	n/a	n/a	n/a	n/a	n/a
3284.706	n/a	FFR_REC_WORD	1642353	wordpools/wasnorm_wordpool.txt	LTP114	ltpFR	16	n/a	0	BANANA	77	n/a	n/a	0	n/a	n/a	n/a	n/a	n/a
3285.56	n/a	FFR_REC_WORD	1642780	wordpools/wasnorm_wordpool.txt	LTP114	ltpFR	16	n/a	1	PEACH	1031	n/a	n/a	1	n/a	n/a	n/a	n/a	n/a
3286.188	n/a	FFR_REC_WORD	1643094	wordpools/wasnorm_wordpool.txt	LTP114	ltpFR	16	n/a	0	BLUEBERRY	140	n/a	n/a	0	n/a	n/a	n/a	n/a	n/a
3286.886	n/a	FFR_REC_WORD	1643443	wordpools/wasnorm_wordpool.txt	LTP114	ltpFR	16	n/a	1	RASPBERRY	1168	n/a	n/a	1	n/a	n/a	n/a	n/a	n/a
3291.202	n/a	FFR_REC_WORD	1645601	wordpools/wasnorm_wordpool.txt	LTP114	ltpFR	16	n/a	1	PARROT	1015	n/a	n/a	1	n/a	n/a	n/a	n/a	n/a
3292.288	n/a	FFR_REC_WORD	1646144	wordpools/wasnorm_wordpool.txt	LTP114	ltpFR	16	n/a	1	GULL	671	n/a	n/a	1	n/a	n/a	n/a	n/a	n/a
3294.114	n/a	FFR_REC_WORD	1647057	wordpools/wasnorm_wordpool.txt	LTP114	ltpFR	16	n/a	1	NUT	965	n/a	n/a	0	n/a	n/a	n/a	n/a	n/a
3294.794	n/a	FFR_REC_WORD	1647397	wordpools/wasnorm_wordpool.txt	LTP114	ltpFR	16	n/a	1	UNDERWEAR	1537	n/a	n/a	0	n/a	n/a	n/a	n/a	n/a
3298.17	n/a	FFR_REC_WORD	1649085	wordpools/wasnorm_wordpool.txt	LTP114	ltpFR	16	n/a	n/a	GENERAL	630	n/a	n/a	n/a	n/a	n/a	n/a	n/a	n/a
3298.814	n/a	FFR_REC_WORD	1649407	wordpools/wasnorm_wordpool.txt	LTP114	ltpFR	16	n/a	1	MAJOR	859	n/a	n/a	0	n/a	n/a	n/a	n/a	n/a
3307.93	n/a	FFR_REC_WORD	1653965	wordpools/wasnorm_wordpool.txt	LTP114	ltpFR	16	n/a	-1	FUGITIVE	612	n/a	n/a	-1	n/a	n/a	n/a	n/a	n/a
3308.992	n/a	FFR_REC_WORD	1654496	wordpools/wasnorm_wordpool.txt	LTP114	ltpFR	16	n/a	-1	INMATE	738	n/a	n/a	-1	n/a	n/a	n/a	n/a	n/a
3309.89	n/a	FFR_REC_WORD	1654945	wordpools/wasnorm_wordpool.txt	LTP114	ltpFR	16	n/a	1	CONVICT	371	n/a	n/a	1	n/a	n/a	n/a	n/a	n/a
3310.878	n/a	FFR_REC_WORD	1655439	wordpools/wasnorm_wordpool.txt	LTP114	ltpFR	16	n/a	1	PRISONER	1128	n/a	n/a	1	n/a	n/a	n/a	n/a	n/a
3312.064	n/a	FFR_REC_WORD	1656032	wordpools/wasnorm_wordpool.txt	LTP114	ltpFR	16	n/a	-1	DUNGEON	507	n/a	n/a	-1	n/a	n/a	n/a	n/a	n/a
3319.702	n/a	FFR_REC_WORD	1659851	wordpools/wasnorm_wordpool.txt	LTP114	ltpFR	16	n/a	0	JEANS	752	n/a	n/a	0	n/a	n/a	n/a	n/a	n/a
3321.284	n/a	FFR_REC_WORD	1660642	wordpools/wasnorm_wordpool.txt	LTP114	ltpFR	16	n/a	0	OUTFIT	988	n/a	n/a	1	n/a	n/a	n/a	n/a	n/a
3322.686	n/a	FFR_REC_WORD	1661343	wordpools/wasnorm_wordpool.txt	LTP114	ltpFR	16	n/a	0	APRON	35	n/a	n/a	0	n/a	n/a	n/a	n/a	n/a
3324.108	n/a	FFR_REC_WORD	1662054	wordpools/wasnorm_wordpool.txt	LTP114	ltpFR	16	n/a	n/a	CHEF	290	n/a	n/a	n/a	n/a	n/a	n/a	n/a	n/a
3327.382	n/a	FFR_REC_WORD	1663691	wordpools/wasnorm_wordpool.txt	LTP114	ltpFR	16	n/a	1	GARBAGE	622	n/a	n/a	0	n/a	n/a	n/a	n/a	n/a
3333.702	n/a	FFR_REC_WORD	1666851	wordpools/wasnorm_wordpool.txt	LTP114	ltpFR	16	n/a	1	SWAMP	1416	n/a	n/a	0	n/a	n/a	n/a	n/a	n/a
3395.898	n/a	FFR_REC_WORD	1697949	wordpools/wasnorm_wordpool.txt	LTP114	ltpFR	16	n/a	0	CAPTAIN	239	n/a	n/a	1	n/a	n/a	n/a	n/a	n/a
3404.938	n/a	FFR_REC_WORD	1702469	wordpools/wasnorm_wordpool.txt	LTP114	ltpFR	16	n/a	-1	FRIEND	606	n/a	n/a	-1	n/a	n/a	n/a	n/a	n/a
3405.822	n/a	FFR_REC_WORD	1702911	wordpools/wasnorm_wordpool.txt	LTP114	ltpFR	16	n/a	-1	FAMILY	550	n/a	n/a	-1	n/a	n/a	n/a	n/a	n/a
3409.188	n/a	FFR_REC_WORD	1704594	wordpools/wasnorm_wordpool.txt	LTP114	ltpFR	16	n/a	-1	SPONGE	1355	n/a	n/a	-1	n/a	n/a	n/a	n/a	n/a
3410.656	n/a	FFR_REC_WORD	1705328	wordpools/wasnorm_wordpool.txt	LTP114	ltpFR	16	n/a	-1	BATH	98	n/a	n/a	-1	n/a	n/a	n/a	n/a	n/a
3587.094	n/a	REC_START	1793547	n/a	LTP114	ltpFR	16	1	n/a	n/a	n/a	n/a	n/a	n/a	n/a	n/a	n/a	n/a	n/a
3587.134	n/a	RECOG_TARGET	1793567	n/a	LTP114	ltpFR	16	1	1	TRANSPLANT	1496	1	5	0	n/a	n/a	n/a	n/a	n/a
3588.126	n/a	RECOG_RESP	1794063	n/a	LTP114	ltpFR	16	1	1	TRANSPLANT	1496	1	n/a	0	n/a	n/a	n/a	n/a	n/a
3589.284	n/a	RECOG_CONF	1794642	n/a	LTP114	ltpFR	16	1	1	TRANSPLANT	1496	n/a	5	0	n/a	n/a	n/a	n/a	n/a
3590.858	n/a	RECOG_TARGET	1795429	n/a	LTP114	ltpFR	16	1	-1	HANDBAG	684	0	5	-1	n/a	n/a	n/a	n/a	n/a
3591.924	n/a	RECOG_RESP	1795962	n/a	LTP114	ltpFR	16	1	-1	HANDBAG	684	0	n/a	-1	n/a	n/a	n/a	n/a	n/a
3592.616	n/a	RECOG_CONF	1796308	n/a	LTP114	ltpFR	16	1	-1	HANDBAG	684	n/a	5	-1	n/a	n/a	n/a	n/a	n/a
3594.0	n/a	RECOG_LURE	1797000	n/a	LTP114	ltpFR	16	1	n/a	PARTY	1018	0	5	n/a	n/a	n/a	n/a	n/a	n/a
3594.762	n/a	RECOG_RESP	1797381	n/a	LTP114	ltpFR	16	1	n/a	PARTY	1018	0	n/a	n/a	n/a	n/a	n/a	n/a	n/a
3595.306	n/a	RECOG_CONF	1797653	n/a	LTP114	ltpFR	16	1	n/a	PARTY	1018	n/a	5	n/a	n/a	n/a	n/a	n/a	n/a
3596.682	n/a	RECOG_TARGET	1798341	n/a	LTP114	ltpFR	16	1	-1	FRIEND	606	1	5	-1	n/a	n/a	n/a	n/a	n/a
3597.196	n/a	RECOG_RESP	1798598	n/a	LTP114	ltpFR	16	1	-1	FRIEND	606	1	n/a	-1	n/a	n/a	n/a	n/a	n/a
3597.716	n/a	RECOG_CONF	1798858	n/a	LTP114	ltpFR	16	1	-1	FRIEND	606	n/a	5	-1	n/a	n/a	n/a	n/a	n/a
3598.964	n/a	RECOG_TARGET	1799482	n/a	LTP114	ltpFR	16	1	-1	SUBWAY	1400	1	5	-1	n/a	n/a	n/a	n/a	n/a
3599.6	n/a	RECOG_RESP	1799800	n/a	LTP114	ltpFR	16	1	-1	SUBWAY	1400	1	n/a	-1	n/a	n/a	n/a	n/a	n/a
3600.01	n/a	RECOG_CONF	1800005	n/a	LTP114	ltpFR	16	1	-1	SUBWAY	1400	n/a	5	-1	n/a	n/a	n/a	n/a	n/a
3601.364	n/a	RECOG_TARGET	1800682	n/a	LTP114	ltpFR	16	1	-1	FUGITIVE	612	1	5	-1	n/a	n/a	n/a	n/a	n/a
3602.934	n/a	RECOG_RESP	1801467	n/a	LTP114	ltpFR	16	1	-1	FUGITIVE	612	1	n/a	-1	n/a	n/a	n/a	n/a	n/a
3603.352	n/a	RECOG_CONF	1801676	n/a	LTP114	ltpFR	16	1	-1	FUGITIVE	612	n/a	5	-1	n/a	n/a	n/a	n/a	n/a
3604.738	n/a	RECOG_LURE	1802369	n/a	LTP114	ltpFR	16	1	n/a	DOVE	491	0	5	n/a	n/a	n/a	n/a	n/a	n/a
3605.528	n/a	RECOG_RESP	1802764	n/a	LTP114	ltpFR	16	1	n/a	DOVE	491	0	n/a	n/a	n/a	n/a	n/a	n/a	n/a
3605.816	n/a	RECOG_CONF	1802908	n/a	LTP114	ltpFR	16	1	n/a	DOVE	491	n/a	5	n/a	n/a	n/a	n/a	n/a	n/a
3607.296	n/a	RECOG_LURE	1803648	n/a	LTP114	ltpFR	16	1	n/a	GARAGE	621	1	5	n/a	n/a	n/a	n/a	n/a	n/a
3607.882	n/a	RECOG_RESP	1803941	n/a	LTP114	ltpFR	16	1	n/a	GARAGE	621	1	n/a	n/a	n/a	n/a	n/a	n/a	n/a
3608.282	n/a	RECOG_CONF	1804141	n/a	LTP114	ltpFR	16	1	n/a	GARAGE	621	n/a	5	n/a	n/a	n/a	n/a	n/a	n/a
3609.678	n/a	RECOG_TARGET	1804839	n/a	LTP114	ltpFR	16	1	-1	CAPTIVE	240	1	5	-1	n/a	n/a	n/a	n/a	n/a
3610.258	n/a	RECOG_RESP	1805129	n/a	LTP114	ltpFR	16	1	-1	CAPTIVE	240	1	n/a	-1	n/a	n/a	n/a	n/a	n/a
3610.616	n/a	RECOG_CONF	1805308	n/a	LTP114	ltpFR	16	1	-1	CAPTIVE	240	n/a	5	-1	n/a	n/a	n/a	n/a	n/a
3612.07	n/a	RECOG_LURE	1806035	n/a	LTP114	ltpFR	16	1	n/a	NOOSE	956	0	5	n/a	n/a	n/a	n/a	n/a	n/a
3612.812	n/a	RECOG_RESP	1806406	n/a	LTP114	ltpFR	16	1	n/a	NOOSE	956	0	n/a	n/a	n/a	n/a	n/a	n/a	n/a
3613.26	n/a	RECOG_CONF	1806630	n/a	LTP114	ltpFR	16	1	n/a	NOOSE	956	n/a	5	n/a	n/a	n/a	n/a	n/a	n/a
3614.636	n/a	RECOG_TARGET	1807318	n/a	LTP114	ltpFR	16	1	0	CAPTAIN	239	1	5	1	n/a	n/a	n/a	n/a	n/a
3615.336	n/a	RECOG_RESP	1807668	n/a	LTP114	ltpFR	16	1	0	CAPTAIN	239	1	n/a	1	n/a	n/a	n/a	n/a	n/a
3615.746	n/a	RECOG_CONF	1807873	n/a	LTP114	ltpFR	16	1	0	CAPTAIN	239	n/a	5	1	n/a	n/a	n/a	n/a	n/a
3617.126	n/a	RECOG_LURE	1808563	n/a	LTP114	ltpFR	16	1	n/a	WASP	1593	0	5	n/a	n/a	n/a	n/a	n/a	n/a
3617.736	n/a	RECOG_RESP	1808868	n/a	LTP114	ltpFR	16	1	n/a	WASP	1593	0	n/a	n/a	n/a	n/a	n/a	n/a	n/a
3618.08	n/a	RECOG_CONF	1809040	n/a	LTP114	ltpFR	16	1	n/a	WASP	1593	n/a	5	n/a	n/a	n/a	n/a	n/a	n/a
3619.518	n/a	RECOG_TARGET	1809759	n/a	LTP114	ltpFR	16	1	-1	CARPET	247	1	5	-1	n/a	n/a	n/a	n/a	n/a
3620.166	n/a	RECOG_RESP	1810083	n/a	LTP114	ltpFR	16	1	-1	CARPET	247	1	n/a	-1	n/a	n/a	n/a	n/a	n/a
3620.548	n/a	RECOG_CONF	1810274	n/a	LTP114	ltpFR	16	1	-1	CARPET	247	n/a	5	-1	n/a	n/a	n/a	n/a	n/a
3622.024	n/a	RECOG_TARGET	1811012	n/a	LTP114	ltpFR	16	1	-1	GRIZZLY	662	1	5	-1	n/a	n/a	n/a	n/a	n/a
3622.66	n/a	RECOG_RESP	1811330	n/a	LTP114	ltpFR	16	1	-1	GRIZZLY	662	1	n/a	-1	n/a	n/a	n/a	n/a	n/a
3623.058	n/a	RECOG_CONF	1811529	n/a	LTP114	ltpFR	16	1	-1	GRIZZLY	662	n/a	5	-1	n/a	n/a	n/a	n/a	n/a
3624.49	n/a	RECOG_LURE	1812245	n/a	LTP114	ltpFR	16	1	n/a	SALAD	1224	0	5	n/a	n/a	n/a	n/a	n/a	n/a
3625.164	n/a	RECOG_RESP	1812582	n/a	LTP114	ltpFR	16	1	n/a	SALAD	1224	0	n/a	n/a	n/a	n/a	n/a	n/a	n/a
3625.562	n/a	RECOG_CONF	1812781	n/a	LTP114	ltpFR	16	1	n/a	SALAD	1224	n/a	5	n/a	n/a	n/a	n/a	n/a	n/a
3627.022	n/a	RECOG_TARGET	1813511	n/a	LTP114	ltpFR	16	1	-1	METEOR	889	1	5	-1	n/a	n/a	n/a	n/a	n/a
3627.598	n/a	RECOG_RESP	1813799	n/a	LTP114	ltpFR	16	1	-1	METEOR	889	1	n/a	-1	n/a	n/a	n/a	n/a	n/a
3627.988	n/a	RECOG_CONF	1813994	n/a	LTP114	ltpFR	16	1	-1	METEOR	889	n/a	5	-1	n/a	n/a	n/a	n/a	n/a
3629.398	n/a	RECOG_TARGET	1814699	n/a	LTP114	ltpFR	16	1	1	MOTH	920	0	1	1	n/a	n/a	n/a	n/a	n/a
3630.264	n/a	RECOG_RESP	1815132	n/a	LTP114	ltpFR	16	1	1	MOTH	920	0	n/a	1	n/a	n/a	n/a	n/a	n/a
3631.54	n/a	RECOG_CONF	1815770	n/a	LTP114	ltpFR	16	1	1	MOTH	920	n/a	1	1	n/a	n/a	n/a	n/a	n/a
3632.988	n/a	RECOG_TARGET	1816494	n/a	LTP114	ltpFR	16	1	-1	SLUG	1329	1	4	-1	n/a	n/a	n/a	n/a	n/a
3633.796	n/a	RECOG_RESP	1816898	n/a	LTP114	ltpFR	16	1	-1	SLUG	1329	1	n/a	-1	n/a	n/a	n/a	n/a	n/a
3634.384	n/a	RECOG_CONF	1817192	n/a	LTP114	ltpFR	16	1	-1	SLUG	1329	n/a	4	-1	n/a	n/a	n/a	n/a	n/a
3635.804	n/a	RECOG_TARGET	1817902	n/a	LTP114	ltpFR	16	1	1	FLY	586	1	5	1	n/a	n/a	n/a	n/a	n/a
3636.43	n/a	RECOG_RESP	1818215	n/a	LTP114	ltpFR	16	1	1	FLY	586	1	n/a	1	n/a	n/a	n/a	n/a	n/a
3636.938	n/a	RECOG_CONF	1818469	n/a	LTP114	ltpFR	16	1	1	FLY	586	n/a	5	1	n/a	n/a	n/a	n/a	n/a
3638.262	n/a	RECOG_TARGET	1819131	n/a	LTP114	ltpFR	16	1	0	FOOT	590	1	5	0	n/a	n/a	n/a	n/a	n/a
3639.152	n/a	RECOG_RESP	1819576	n/a	LTP114	ltpFR	16	1	0	FOOT	590	1	n/a	0	n/a	n/a	n/a	n/a	n/a
3639.558	n/a	RECOG_CONF	1819779	n/a	LTP114	ltpFR	16	1	0	FOOT	590	n/a	5	0	n/a	n/a	n/a	n/a	n/a
3643.02	n/a	REC_START	1821510	n/a	LTP114	ltpFR	16	2	n/a	n/a	n/a	n/a	n/a	n/a	n/a	n/a	n/a	n/a	n/a
3643.05	n/a	RECOG_TARGET	1821525	n/a	LTP114	ltpFR	16	2	-1	MOP	916	0	3	-1	n/a	n/a	n/a	n/a	n/a
3644.222	n/a	RECOG_RESP	1822111	n/a	LTP114	ltpFR	16	2	-1	MOP	916	0	n/a	-1	n/a	n/a	n/a	n/a	n/a
3644.792	n/a	RECOG_CONF	1822396	n/a	LTP114	ltpFR	16	2	-1	MOP	916	n/a	3	-1	n/a	n/a	n/a	n/a	n/a
3646.318	n/a	RECOG_LURE	1823159	n/a	LTP114	ltpFR	16	2	n/a	CHIEF	298	1	5	n/a	n/a	n/a	n/a	n/a	n/a
3646.956	n/a	RECOG_RESP	1823478	n/a	LTP114	ltpFR	16	2	n/a	CHIEF	298	1	n/a	n/a	n/a	n/a	n/a	n/a	n/a
3647.446	n/a	RECOG_CONF	1823723	n/a	LTP114	ltpFR	16	2	n/a	CHIEF	298	n/a	5	n/a	n/a	n/a	n/a	n/a	n/a
3648.9	n/a	RECOG_TARGET	1824450	n/a	LTP114	ltpFR	16	2	-1	PIER	1063	1	5	-1	n/a	n/a	n/a	n/a	n/a
3649.622	n/a	RECOG_RESP	1824811	n/a	LTP114	ltpFR	16	2	-1	PIER	1063	1	n/a	-1	n/a	n/a	n/a	n/a	n/a
3650.08	n/a	RECOG_CONF	1825040	n/a	LTP114	ltpFR	16	2	-1	PIER	1063	n/a	5	-1	n/a	n/a	n/a	n/a	n/a
3651.484	n/a	RECOG_TARGET	1825742	n/a	LTP114	ltpFR	16	2	0	RESORT	1186	0	4	1	n/a	n/a	n/a	n/a	n/a
3652.386	n/a	RECOG_RESP	1826193	n/a	LTP114	ltpFR	16	2	0	RESORT	1186	0	n/a	1	n/a	n/a	n/a	n/a	n/a
3652.85	n/a	RECOG_CONF	1826425	n/a	LTP114	ltpFR	16	2	0	RESORT	1186	n/a	4	1	n/a	n/a	n/a	n/a	n/a
3654.39	n/a	RECOG_TARGET	1827195	n/a	LTP114	ltpFR	16	2	0	TREASURE	1500	1	4	1	n/a	n/a	n/a	n/a	n/a
3655.03	n/a	RECOG_RESP	1827515	n/a	LTP114	ltpFR	16	2	0	TREASURE	1500	1	n/a	1	n/a	n/a	n/a	n/a	n/a
3655.588	n/a	RECOG_CONF	1827794	n/a	LTP114	ltpFR	16	2	0	TREASURE	1500	n/a	4	1	n/a	n/a	n/a	n/a	n/a
3656.98	n/a	RECOG_LURE	1828490	n/a	LTP114	ltpFR	16	2	n/a	WAVE	1596	0	4	n/a	n/a	n/a	n/a	n/a	n/a
3658.306	n/a	RECOG_RESP	1829153	n/a	LTP114	ltpFR	16	2	n/a	WAVE	1596	0	n/a	n/a	n/a	n/a	n/a	n/a	n/a
3658.972	n/a	RECOG_CONF	1829486	n/a	LTP114	ltpFR	16	2	n/a	WAVE	1596	n/a	4	n/a	n/a	n/a	n/a	n/a	n/a
3660.356	n/a	RECOG_TARGET	1830178	n/a	LTP114	ltpFR	16	2	1	PLAQUE	1084	1	5	0	n/a	n/a	n/a	n/a	n/a
3661.066	n/a	RECOG_RESP	1830533	n/a	LTP114	ltpFR	16	2	1	PLAQUE	1084	1	n/a	0	n/a	n/a	n/a	n/a	n/a
3661.564	n/a	RECOG_CONF	1830782	n/a	LTP114	ltpFR	16	2	1	PLAQUE	1084	n/a	5	0	n/a	n/a	n/a	n/a	n/a
3662.954	n/a	RECOG_TARGET	1831477	n/a	LTP114	ltpFR	16	2	0	TUNA	1518	1	5	1	n/a	n/a	n/a	n/a	n/a
3663.604	n/a	RECOG_RESP	1831802	n/a	LTP114	ltpFR	16	2	0	TUNA	1518	1	n/a	1	n/a	n/a	n/a	n/a	n/a
3664.048	n/a	RECOG_CONF	1832024	n/a	LTP114	ltpFR	16	2	0	TUNA	1518	n/a	5	1	n/a	n/a	n/a	n/a	n/a
3665.37	n/a	RECOG_TARGET	1832685	n/a	LTP114	ltpFR	16	2	0	CALENDAR	221	1	5	0	n/a	n/a	n/a	n/a	n/a
3666.794	n/a	RECOG_RESP	1833397	n/a	LTP114	ltpFR	16	2	0	CALENDAR	221	1	n/a	0	n/a	n/a	n/a	n/a	n/a
3667.262	n/a	RECOG_CONF	1833631	n/a	LTP114	ltpFR	16	2	0	CALENDAR	221	n/a	5	0	n/a	n/a	n/a	n/a	n/a
3668.628	n/a	RECOG_LURE	1834314	n/a	LTP114	ltpFR	16	2	n/a	COURSE	390	0	3	n/a	n/a	n/a	n/a	n/a	n/a
3669.622	n/a	RECOG_RESP	1834811	n/a	LTP114	ltpFR	16	2	n/a	COURSE	390	0	n/a	n/a	n/a	n/a	n/a	n/a	n/a
3670.136	n/a	RECOG_CONF	1835068	n/a	LTP114	ltpFR	16	2	n/a	COURSE	390	n/a	3	n/a	n/a	n/a	n/a	n/a	n/a
3671.536	n/a	RECOG_TARGET	1835768	n/a	LTP114	ltpFR	16	2	0	COMMANDER	354	1	5	1	n/a	n/a	n/a	n/a	n/a
3672.4	n/a	RECOG_RESP	1836200	n/a	LTP114	ltpFR	16	2	0	COMMANDER	354	1	n/a	1	n/a	n/a	n/a	n/a	n/a
3672.8	n/a	RECOG_CONF	1836400	n/a	LTP114	ltpFR	16	2	0	COMMANDER	354	n/a	5	1	n/a	n/a	n/a	n/a	n/a
3674.318	n/a	RECOG_TARGET	1837159	n/a	LTP114	ltpFR	16	2	1	PARROT	1015	1	5	1	n/a	n/a	n/a	n/a	n/a
3674.944	n/a	RECOG_RESP	1837472	n/a	LTP114	ltpFR	16	2	1	PARROT	1015	1	n/a	1	n/a	n/a	n/a	n/a	n/a
3675.424	n/a	RECOG_CONF	1837712	n/a	LTP114	ltpFR	16	2	1	PARROT	1015	n/a	5	1	n/a	n/a	n/a	n/a	n/a
3676.774	n/a	RECOG_TARGET	1838387	n/a	LTP114	ltpFR	16	2	1	SODA	1341	1	5	0	n/a	n/a	n/a	n/a	n/a
3677.4	n/a	RECOG_RESP	1838700	n/a	LTP114	ltpFR	16	2	1	SODA	1341	1	n/a	0	n/a	n/a	n/a	n/a	n/a
3677.858	n/a	RECOG_CONF	1838929	n/a	LTP114	ltpFR	16	2	1	SODA	1341	n/a	5	0	n/a	n/a	n/a	n/a	n/a
3679.25	n/a	RECOG_LURE	1839625	n/a	LTP114	ltpFR	16	2	n/a	SHORTS	1293	1	5	n/a	n/a	n/a	n/a	n/a	n/a
3679.978	n/a	RECOG_RESP	1839989	n/a	LTP114	ltpFR	16	2	n/a	SHORTS	1293	1	n/a	n/a	n/a	n/a	n/a	n/a	n/a
3680.388	n/a	RECOG_CONF	1840194	n/a	LTP114	ltpFR	16	2	n/a	SHORTS	1293	n/a	5	n/a	n/a	n/a	n/a	n/a	n/a
3681.88	n/a	RECOG_TARGET	1840940	n/a	LTP114	ltpFR	16	2	0	COMPANION	357	1	4	1	n/a	n/a	n/a	n/a	n/a
3683.99	n/a	RECOG_RESP	1841995	n/a	LTP114	ltpFR	16	2	0	COMPANION	357	1	n/a	1	n/a	n/a	n/a	n/a	n/a
3684.474	n/a	RECOG_CONF	1842237	n/a	LTP114	ltpFR	16	2	0	COMPANION	357	n/a	4	1	n/a	n/a	n/a	n/a	n/a
3685.946	n/a	RECOG_TARGET	1842973	n/a	LTP114	ltpFR	16	2	0	WORKER	1621	1	5	1	n/a	n/a	n/a	n/a	n/a
3686.744	n/a	RECOG_RESP	1843372	n/a	LTP114	ltpFR	16	2	0	WORKER	1621	1	n/a	1	n/a	n/a	n/a	n/a	n/a
3687.278	n/a	RECOG_CONF	1843639	n/a	LTP114	ltpFR	16	2	0	WORKER	1621	n/a	5	1	n/a	n/a	n/a	n/a	n/a
3688.638	n/a	RECOG_TARGET	1844319	n/a	LTP114	ltpFR	16	2	1	PEACH	1031	1	5	1	n/a	n/a	n/a	n/a	n/a
3689.264	n/a	RECOG_RESP	1844632	n/a	LTP114	ltpFR	16	2	1	PEACH	1031	1	n/a	1	n/a	n/a	n/a	n/a	n/a
3689.702	n/a	RECOG_CONF	1844851	n/a	LTP114	ltpFR	16	2	1	PEACH	1031	n/a	5	1	n/a	n/a	n/a	n/a	n/a
3691.12	n/a	RECOG_TARGET	1845560	n/a	LTP114	ltpFR	16	2	-1	LOAF	835	1	5	-1	n/a	n/a	n/a	n/a	n/a
3691.842	n/a	RECOG_RESP	1845921	n/a	LTP114	ltpFR	16	2	-1	LOAF	835	1	n/a	-1	n/a	n/a	n/a	n/a	n/a
3692.346	n/a	RECOG_CONF	1846173	n/a	LTP114	ltpFR	16	2	-1	LOAF	835	n/a	5	-1	n/a	n/a	n/a	n/a	n/a
3693.736	n/a	RECOG_TARGET	1846868	n/a	LTP114	ltpFR	16	2	0	PEAR	1033	1	5	0	n/a	n/a	n/a	n/a	n/a
3694.352	n/a	RECOG_RESP	1847176	n/a	LTP114	ltpFR	16	2	0	PEAR	1033	1	n/a	0	n/a	n/a	n/a	n/a	n/a
3694.86	n/a	RECOG_CONF	1847430	n/a	LTP114	ltpFR	16	2	0	PEAR	1033	n/a	5	0	n/a	n/a	n/a	n/a	n/a
3696.202	n/a	RECOG_TARGET	1848101	n/a	LTP114	ltpFR	16	2	1	UNDERWEAR	1537	1	5	0	n/a	n/a	n/a	n/a	n/a
3696.836	n/a	RECOG_RESP	1848418	n/a	LTP114	ltpFR	16	2	1	UNDERWEAR	1537	1	n/a	0	n/a	n/a	n/a	n/a	n/a
3697.294	n/a	RECOG_CONF	1848647	n/a	LTP114	ltpFR	16	2	1	UNDERWEAR	1537	n/a	5	0	n/a	n/a	n/a	n/a	n/a
3700.63	n/a	REC_START	1850315	n/a	LTP114	ltpFR	16	3	n/a	n/a	n/a	n/a	n/a	n/a	n/a	n/a	n/a	n/a	n/a
3700.66	n/a	RECOG_LURE	1850330	n/a	LTP114	ltpFR	16	3	n/a	YOKE	1632	0	5	n/a	n/a	n/a	n/a	n/a	n/a
3701.414	n/a	RECOG_RESP	1850707	n/a	LTP114	ltpFR	16	3	n/a	YOKE	1632	0	n/a	n/a	n/a	n/a	n/a	n/a	n/a
3701.912	n/a	RECOG_CONF	1850956	n/a	LTP114	ltpFR	16	3	n/a	YOKE	1632	n/a	5	n/a	n/a	n/a	n/a	n/a	n/a
3703.326	n/a	RECOG_TARGET	1851663	n/a	LTP114	ltpFR	16	3	0	MISSILE	900	1	5	1	n/a	n/a	n/a	n/a	n/a
3703.938	n/a	RECOG_RESP	1851969	n/a	LTP114	ltpFR	16	3	0	MISSILE	900	1	n/a	1	n/a	n/a	n/a	n/a	n/a
3704.408	n/a	RECOG_CONF	1852204	n/a	LTP114	ltpFR	16	3	0	MISSILE	900	n/a	5	1	n/a	n/a	n/a	n/a	n/a
3705.79	n/a	RECOG_LURE	1852895	n/a	LTP114	ltpFR	16	3	n/a	MOOSE	915	0	4	n/a	n/a	n/a	n/a	n/a	n/a
3706.682	n/a	RECOG_RESP	1853341	n/a	LTP114	ltpFR	16	3	n/a	MOOSE	915	0	n/a	n/a	n/a	n/a	n/a	n/a	n/a
3707.212	n/a	RECOG_CONF	1853606	n/a	LTP114	ltpFR	16	3	n/a	MOOSE	915	n/a	4	n/a	n/a	n/a	n/a	n/a	n/a
3708.65	n/a	RECOG_TARGET	1854325	n/a	LTP114	ltpFR	16	3	-1	SEAT	1264	1	5	-1	n/a	n/a	n/a	n/a	n/a
3709.212	n/a	RECOG_RESP	1854606	n/a	LTP114	ltpFR	16	3	-1	SEAT	1264	1	n/a	-1	n/a	n/a	n/a	n/a	n/a
3709.668	n/a	RECOG_CONF	1854834	n/a	LTP114	ltpFR	16	3	-1	SEAT	1264	n/a	5	-1	n/a	n/a	n/a	n/a	n/a
3711.098	n/a	RECOG_LURE	1855549	n/a	LTP114	ltpFR	16	3	n/a	WELL	1600	0	5	n/a	n/a	n/a	n/a	n/a	n/a
3711.86	n/a	RECOG_RESP	1855930	n/a	LTP114	ltpFR	16	3	n/a	WELL	1600	0	n/a	n/a	n/a	n/a	n/a	n/a	n/a
3712.35	n/a	RECOG_CONF	1856175	n/a	LTP114	ltpFR	16	3	n/a	WELL	1600	n/a	5	n/a	n/a	n/a	n/a	n/a	n/a
3713.772	n/a	RECOG_LURE	1856886	n/a	LTP114	ltpFR	16	3	n/a	OWL	992	0	5	n/a	n/a	n/a	n/a	n/a	n/a
3714.494	n/a	RECOG_RESP	1857247	n/a	LTP114	ltpFR	16	3	n/a	OWL	992	0	n/a	n/a	n/a	n/a	n/a	n/a	n/a
3714.946	n/a	RECOG_CONF	1857473	n/a	LTP114	ltpFR	16	3	n/a	OWL	992	n/a	5	n/a	n/a	n/a	n/a	n/a	n/a
3716.472	n/a	RECOG_TARGET	1858236	n/a	LTP114	ltpFR	16	3	0	BILL	126	0	5	0	n/a	n/a	n/a	n/a	n/a
3717.218	n/a	RECOG_RESP	1858609	n/a	LTP114	ltpFR	16	3	0	BILL	126	0	n/a	0	n/a	n/a	n/a	n/a	n/a
3717.718	n/a	RECOG_CONF	1858859	n/a	LTP114	ltpFR	16	3	0	BILL	126	n/a	5	0	n/a	n/a	n/a	n/a	n/a
3719.17	n/a	RECOG_LURE	1859585	n/a	LTP114	ltpFR	16	3	n/a	KEG	770	0	5	n/a	n/a	n/a	n/a	n/a	n/a
3720.012	n/a	RECOG_RESP	1860006	n/a	LTP114	ltpFR	16	3	n/a	KEG	770	0	n/a	n/a	n/a	n/a	n/a	n/a	n/a
3720.418	n/a	RECOG_CONF	1860209	n/a	LTP114	ltpFR	16	3	n/a	KEG	770	n/a	5	n/a	n/a	n/a	n/a	n/a	n/a
3721.844	n/a	RECOG_TARGET	1860922	n/a	LTP114	ltpFR	16	3	1	PACKAGE	997	1	4	0	n/a	n/a	n/a	n/a	n/a
3724.014	n/a	RECOG_RESP	1862007	n/a	LTP114	ltpFR	16	3	1	PACKAGE	997	1	n/a	0	n/a	n/a	n/a	n/a	n/a
3724.542	n/a	RECOG_CONF	1862271	n/a	LTP114	ltpFR	16	3	1	PACKAGE	997	n/a	4	0	n/a	n/a	n/a	n/a	n/a
3725.918	n/a	RECOG_TARGET	1862959	n/a	LTP114	ltpFR	16	3	-1	SUPPER	1411	1	5	-1	n/a	n/a	n/a	n/a	n/a
3728.234	n/a	RECOG_RESP	1864117	n/a	LTP114	ltpFR	16	3	-1	SUPPER	1411	1	n/a	-1	n/a	n/a	n/a	n/a	n/a
3728.644	n/a	RECOG_CONF	1864322	n/a	LTP114	ltpFR	16	3	-1	SUPPER	1411	n/a	5	-1	n/a	n/a	n/a	n/a	n/a
3730.25	n/a	RECOG_TARGET	1865125	n/a	LTP114	ltpFR	16	3	-1	FAMILY	550	1	5	-1	n/a	n/a	n/a	n/a	n/a
3730.998	n/a	RECOG_RESP	1865499	n/a	LTP114	ltpFR	16	3	-1	FAMILY	550	1	n/a	-1	n/a	n/a	n/a	n/a	n/a
3731.518	n/a	RECOG_CONF	1865759	n/a	LTP114	ltpFR	16	3	-1	FAMILY	550	n/a	5	-1	n/a	n/a	n/a	n/a	n/a
3732.99	n/a	RECOG_LURE	1866495	n/a	LTP114	ltpFR	16	3	n/a	ALLEY	15	0	4	n/a	n/a	n/a	n/a	n/a	n/a
3733.702	n/a	RECOG_RESP	1866851	n/a	LTP114	ltpFR	16	3	n/a	ALLEY	15	0	n/a	n/a	n/a	n/a	n/a	n/a	n/a
3734.162	n/a	RECOG_CONF	1867081	n/a	LTP114	ltpFR	16	3	n/a	ALLEY	15	n/a	4	n/a	n/a	n/a	n/a	n/a	n/a
3735.59	n/a	RECOG_TARGET	1867795	n/a	LTP114	ltpFR	16	3	0	PICKLE	1059	1	5	0	n/a	n/a	n/a	n/a	n/a
3736.282	n/a	RECOG_RESP	1868141	n/a	LTP114	ltpFR	16	3	0	PICKLE	1059	1	n/a	0	n/a	n/a	n/a	n/a	n/a
3736.796	n/a	RECOG_CONF	1868398	n/a	LTP114	ltpFR	16	3	0	PICKLE	1059	n/a	5	0	n/a	n/a	n/a	n/a	n/a
3738.282	n/a	RECOG_TARGET	1869141	n/a	LTP114	ltpFR	16	3	0	MANSION	864	1	5	1	n/a	n/a	n/a	n/a	n/a
3738.896	n/a	RECOG_RESP	1869448	n/a	LTP114	ltpFR	16	3	0	MANSION	864	1	n/a	1	n/a	n/a	n/a	n/a	n/a
3739.908	n/a	RECOG_CONF	1869954	n/a	LTP114	ltpFR	16	3	0	MANSION	864	n/a	5	1	n/a	n/a	n/a	n/a	n/a
3741.38	n/a	RECOG_LURE	1870690	n/a	LTP114	ltpFR	16	3	n/a	UMBRELLA	1534	0	5	n/a	n/a	n/a	n/a	n/a	n/a
3742.018	n/a	RECOG_RESP	1871009	n/a	LTP114	ltpFR	16	3	n/a	UMBRELLA	1534	0	n/a	n/a	n/a	n/a	n/a	n/a	n/a
3742.452	n/a	RECOG_CONF	1871226	n/a	LTP114	ltpFR	16	3	n/a	UMBRELLA	1534	n/a	5	n/a	n/a	n/a	n/a	n/a	n/a
3743.912	n/a	RECOG_TARGET	1871956	n/a	LTP114	ltpFR	16	3	-1	VIOLA	1570	1	5	-1	n/a	n/a	n/a	n/a	n/a
3744.484	n/a	RECOG_RESP	1872242	n/a	LTP114	ltpFR	16	3	-1	VIOLA	1570	1	n/a	-1	n/a	n/a	n/a	n/a	n/a
3744.988	n/a	RECOG_CONF	1872494	n/a	LTP114	ltpFR	16	3	-1	VIOLA	1570	n/a	5	-1	n/a	n/a	n/a	n/a	n/a
3746.438	n/a	RECOG_TARGET	1873219	n/a	LTP114	ltpFR	16	3	-1	WHALE	1601	1	5	-1	n/a	n/a	n/a	n/a	n/a
3747.038	n/a	RECOG_RESP	1873519	n/a	LTP114	ltpFR	16	3	-1	WHALE	1601	1	n/a	-1	n/a	n/a	n/a	n/a	n/a
3747.552	n/a	RECOG_CONF	1873776	n/a	LTP114	ltpFR	16	3	-1	WHALE	1601	n/a	5	-1	n/a	n/a	n/a	n/a	n/a
3749.036	n/a	RECOG_TARGET	1874518	n/a	LTP114	ltpFR	16	3	1	CONVICT	371	1	5	1	n/a	n/a	n/a	n/a	n/a
3749.636	n/a	RECOG_RESP	1874818	n/a	LTP114	ltpFR	16	3	1	CONVICT	371	1	n/a	1	n/a	n/a	n/a	n/a	n/a
3750.156	n/a	RECOG_CONF	1875078	n/a	LTP114	ltpFR	16	3	1	CONVICT	371	n/a	5	1	n/a	n/a	n/a	n/a	n/a
3751.536	n/a	RECOG_TARGET	1875768	n/a	LTP114	ltpFR	16	3	0	PHYSICIAN	1056	1	5	1	n/a	n/a	n/a	n/a	n/a
3752.122	n/a	RECOG_RESP	1876061	n/a	LTP114	ltpFR	16	3	0	PHYSICIAN	1056	1	n/a	1	n/a	n/a	n/a	n/a	n/a
3752.6	n/a	RECOG_CONF	1876300	n/a	LTP114	ltpFR	16	3	0	PHYSICIAN	1056	n/a	5	1	n/a	n/a	n/a	n/a	n/a
3754.1	n/a	RECOG_TARGET	1877050	n/a	LTP114	ltpFR	16	3	1	RASPBERRY	1168	1	5	1	n/a	n/a	n/a	n/a	n/a
3754.606	n/a	RECOG_RESP	1877303	n/a	LTP114	ltpFR	16	3	1	RASPBERRY	1168	1	n/a	1	n/a	n/a	n/a	n/a	n/a
3755.114	n/a	RECOG_CONF	1877557	n/a	LTP114	ltpFR	16	3	1	RASPBERRY	1168	n/a	5	1	n/a	n/a	n/a	n/a	n/a
3758.602	n/a	REC_START	1879301	n/a	LTP114	ltpFR	16	4	n/a	n/a	n/a	n/a	n/a	n/a	n/a	n/a	n/a	n/a	n/a
3758.634	n/a	RECOG_TARGET	1879317	n/a	LTP114	ltpFR	16	4	0	SHELTER	1282	1	5	1	n/a	n/a	n/a	n/a	n/a
3759.984	n/a	RECOG_RESP	1879992	n/a	LTP114	ltpFR	16	4	0	SHELTER	1282	1	n/a	1	n/a	n/a	n/a	n/a	n/a
3760.474	n/a	RECOG_CONF	1880237	n/a	LTP114	ltpFR	16	4	0	SHELTER	1282	n/a	5	1	n/a	n/a	n/a	n/a	n/a
3761.95	n/a	RECOG_LURE	1880975	n/a	LTP114	ltpFR	16	4	n/a	JUGGLER	763	0	5	n/a	n/a	n/a	n/a	n/a	n/a
3762.55	n/a	RECOG_RESP	1881275	n/a	LTP114	ltpFR	16	4	n/a	JUGGLER	763	0	n/a	n/a	n/a	n/a	n/a	n/a	n/a
3762.968	n/a	RECOG_CONF	1881484	n/a	LTP114	ltpFR	16	4	n/a	JUGGLER	763	n/a	5	n/a	n/a	n/a	n/a	n/a	n/a
3764.5	n/a	RECOG_LURE	1882250	n/a	LTP114	ltpFR	16	4	n/a	CONCRETE	361	0	5	n/a	n/a	n/a	n/a	n/a	n/a
3765.762	n/a	RECOG_RESP	1882881	n/a	LTP114	ltpFR	16	4	n/a	CONCRETE	361	0	n/a	n/a	n/a	n/a	n/a	n/a	n/a
3766.26	n/a	RECOG_CONF	1883130	n/a	LTP114	ltpFR	16	4	n/a	CONCRETE	361	n/a	5	n/a	n/a	n/a	n/a	n/a	n/a
3767.748	n/a	RECOG_TARGET	1883874	n/a	LTP114	ltpFR	16	4	0	MOUSE	925	1	3	0	n/a	n/a	n/a	n/a	n/a
3768.606	n/a	RECOG_RESP_VV	1884303	n/a	LTP114	ltpFR	16	4	0	MOUSE	925	0	n/a	0	n/a	n/a	n/a	n/a	n/a
3769.394	n/a	RECOG_RESP	1884697	n/a	LTP114	ltpFR	16	4	0	MOUSE	925	1	n/a	0	n/a	n/a	n/a	n/a	n/a
3770.072	n/a	RECOG_CONF	1885036	n/a	LTP114	ltpFR	16	4	0	MOUSE	925	n/a	3	0	n/a	n/a	n/a	n/a	n/a
3771.58	n/a	RECOG_LURE	1885790	n/a	LTP114	ltpFR	16	4	n/a	MARS	873	0	5	n/a	n/a	n/a	n/a	n/a	n/a
3772.466	n/a	RECOG_RESP	1886233	n/a	LTP114	ltpFR	16	4	n/a	MARS	873	0	n/a	n/a	n/a	n/a	n/a	n/a	n/a
3772.996	n/a	RECOG_CONF	1886498	n/a	LTP114	ltpFR	16	4	n/a	MARS	873	n/a	5	n/a	n/a	n/a	n/a	n/a	n/a
3774.446	n/a	RECOG_TARGET	1887223	n/a	LTP114	ltpFR	16	4	-1	PRIMATE	1123	0	3	-1	n/a	n/a	n/a	n/a	n/a
3776.058	n/a	RECOG_RESP	1888029	n/a	LTP114	ltpFR	16	4	-1	PRIMATE	1123	0	n/a	-1	n/a	n/a	n/a	n/a	n/a
3776.464	n/a	RECOG_CONF	1888232	n/a	LTP114	ltpFR	16	4	-1	PRIMATE	1123	n/a	3	-1	n/a	n/a	n/a	n/a	n/a
3778.018	n/a	RECOG_TARGET	1889009	n/a	LTP114	ltpFR	16	4	1	CATCHER	258	1	4	1	n/a	n/a	n/a	n/a	n/a
3778.658	n/a	RECOG_RESP	1889329	n/a	LTP114	ltpFR	16	4	1	CATCHER	258	1	n/a	1	n/a	n/a	n/a	n/a	n/a
3779.242	n/a	RECOG_CONF	1889621	n/a	LTP114	ltpFR	16	4	1	CATCHER	258	n/a	4	1	n/a	n/a	n/a	n/a	n/a
3780.602	n/a	RECOG_TARGET	1890301	n/a	LTP114	ltpFR	16	4	-1	ANTEATER	26	1	5	-1	n/a	n/a	n/a	n/a	n/a
3781.198	n/a	RECOG_RESP	1890599	n/a	LTP114	ltpFR	16	4	-1	ANTEATER	26	1	n/a	-1	n/a	n/a	n/a	n/a	n/a
3781.646	n/a	RECOG_CONF	1890823	n/a	LTP114	ltpFR	16	4	-1	ANTEATER	26	n/a	5	-1	n/a	n/a	n/a	n/a	n/a
3783.026	n/a	RECOG_LURE	1891513	n/a	LTP114	ltpFR	16	4	n/a	ROCKET	1202	0	4	n/a	n/a	n/a	n/a	n/a	n/a
3784.34	n/a	RECOG_RESP_VV	1892170	n/a	LTP114	ltpFR	16	4	n/a	ROCKET	1202	1	n/a	n/a	n/a	n/a	n/a	n/a	n/a
3785.014	n/a	RECOG_RESP	1892507	n/a	LTP114	ltpFR	16	4	n/a	ROCKET	1202	0	n/a	n/a	n/a	n/a	n/a	n/a	n/a
3785.61	n/a	RECOG_CONF	1892805	n/a	LTP114	ltpFR	16	4	n/a	ROCKET	1202	n/a	4	n/a	n/a	n/a	n/a	n/a	n/a
3787.15	n/a	RECOG_LURE	1893575	n/a	LTP114	ltpFR	16	4	n/a	TWIN	1528	0	3	n/a	n/a	n/a	n/a	n/a	n/a
3788.062	n/a	RECOG_RESP	1894031	n/a	LTP114	ltpFR	16	4	n/a	TWIN	1528	0	n/a	n/a	n/a	n/a	n/a	n/a	n/a
3788.76	n/a	RECOG_CONF	1894380	n/a	LTP114	ltpFR	16	4	n/a	TWIN	1528	n/a	3	n/a	n/a	n/a	n/a	n/a	n/a
3790.198	n/a	RECOG_TARGET	1895099	n/a	LTP114	ltpFR	16	4	-1	PLUM	1090	1	3	-1	n/a	n/a	n/a	n/a	n/a
3791.026	n/a	RECOG_RESP	1895513	n/a	LTP114	ltpFR	16	4	-1	PLUM	1090	1	n/a	-1	n/a	n/a	n/a	n/a	n/a
3791.804	n/a	RECOG_CONF	1895902	n/a	LTP114	ltpFR	16	4	-1	PLUM	1090	n/a	3	-1	n/a	n/a	n/a	n/a	n/a
3793.164	n/a	RECOG_LURE	1896582	n/a	LTP114	ltpFR	16	4	n/a	LAWN	805	0	4	n/a	n/a	n/a	n/a	n/a	n/a
3793.978	n/a	RECOG_RESP	1896989	n/a	LTP114	ltpFR	16	4	n/a	LAWN	805	0	n/a	n/a	n/a	n/a	n/a	n/a	n/a
3794.5	n/a	RECOG_CONF	1897250	n/a	LTP114	ltpFR	16	4	n/a	LAWN	805	n/a	4	n/a	n/a	n/a	n/a	n/a	n/a
3795.964	n/a	RECOG_TARGET	1897982	n/a	LTP114	ltpFR	16	4	0	CAN	225	1	5	0	n/a	n/a	n/a	n/a	n/a
3796.632	n/a	RECOG_RESP	1898316	n/a	LTP114	ltpFR	16	4	0	CAN	225	1	n/a	0	n/a	n/a	n/a	n/a	n/a
3797.112	n/a	RECOG_CONF	1898556	n/a	LTP114	ltpFR	16	4	0	CAN	225	n/a	5	0	n/a	n/a	n/a	n/a	n/a
3798.564	n/a	RECOG_LURE	1899282	n/a	LTP114	ltpFR	16	4	n/a	WHISTLE	1606	0	4	n/a	n/a	n/a	n/a	n/a	n/a
3799.516	n/a	RECOG_RESP	1899758	n/a	LTP114	ltpFR	16	4	n/a	WHISTLE	1606	0	n/a	n/a	n/a	n/a	n/a	n/a	n/a
3799.992	n/a	RECOG_CONF	1899996	n/a	LTP114	ltpFR	16	4	n/a	WHISTLE	1606	n/a	4	n/a	n/a	n/a	n/a	n/a	n/a
3801.364	n/a	RECOG_TARGET	1900682	n/a	LTP114	ltpFR	16	4	1	INFANT	737	1	5	0	n/a	n/a	n/a	n/a	n/a
3802.32	n/a	RECOG_RESP	1901160	n/a	LTP114	ltpFR	16	4	1	INFANT	737	1	n/a	0	n/a	n/a	n/a	n/a	n/a
3802.82	n/a	RECOG_CONF	1901410	n/a	LTP114	ltpFR	16	4	1	INFANT	737	n/a	5	0	n/a	n/a	n/a	n/a	n/a
3804.262	n/a	RECOG_TARGET	1902131	n/a	LTP114	ltpFR	16	4	1	MAJOR	859	1	5	0	n/a	n/a	n/a	n/a	n/a
3804.836	n/a	RECOG_RESP	1902418	n/a	LTP114	ltpFR	16	4	1	MAJOR	859	1	n/a	0	n/a	n/a	n/a	n/a	n/a
3805.224	n/a	RECOG_CONF	1902612	n/a	LTP114	ltpFR	16	4	1	MAJOR	859	n/a	5	0	n/a	n/a	n/a	n/a	n/a
3806.662	n/a	RECOG_LURE	1903331	n/a	LTP114	ltpFR	16	4	n/a	DRINK	498	0	3	n/a	n/a	n/a	n/a	n/a	n/a
3807.728	n/a	RECOG_RESP	1903864	n/a	LTP114	ltpFR	16	4	n/a	DRINK	498	0	n/a	n/a	n/a	n/a	n/a	n/a	n/a
3808.876	n/a	RECOG_CONF	1904438	n/a	LTP114	ltpFR	16	4	n/a	DRINK	498	n/a	3	n/a	n/a	n/a	n/a	n/a	n/a
3810.344	n/a	RECOG_TARGET	1905172	n/a	LTP114	ltpFR	16	4	0	RACK	1154	1	5	1	n/a	n/a	n/a	n/a	n/a
3812.618	n/a	RECOG_RESP	1906309	n/a	LTP114	ltpFR	16	4	0	RACK	1154	1	n/a	1	n/a	n/a	n/a	n/a	n/a
3813.096	n/a	RECOG_CONF	1906548	n/a	LTP114	ltpFR	16	4	0	RACK	1154	n/a	5	1	n/a	n/a	n/a	n/a	n/a
3814.55	n/a	RECOG_TARGET	1907275	n/a	LTP114	ltpFR	16	4	0	ELBOW	520	0	4	0	n/a	n/a	n/a	n/a	n/a
3816.13	n/a	RECOG_RESP	1908065	n/a	LTP114	ltpFR	16	4	0	ELBOW	520	0	n/a	0	n/a	n/a	n/a	n/a	n/a
3816.58	n/a	RECOG_CONF	1908290	n/a	LTP114	ltpFR	16	4	0	ELBOW	520	n/a	4	0	n/a	n/a	n/a	n/a	n/a
3818.04	n/a	RECOG_LURE	1909020	n/a	LTP114	ltpFR	16	4	n/a	SPAGHETTI	1346	0	5	n/a	n/a	n/a	n/a	n/a	n/a
3819.712	n/a	RECOG_RESP	1909856	n/a	LTP114	ltpFR	16	4	n/a	SPAGHETTI	1346	0	n/a	n/a	n/a	n/a	n/a	n/a	n/a
3820.118	n/a	RECOG_CONF	1910059	n/a	LTP114	ltpFR	16	4	n/a	SPAGHETTI	1346	n/a	5	n/a	n/a	n/a	n/a	n/a	n/a
3823.428	n/a	REC_START	1911714	n/a	LTP114	ltpFR	16	5	n/a	n/a	n/a	n/a	n/a	n/a	n/a	n/a	n/a	n/a	n/a
3823.464	n/a	RECOG_TARGET	1911732	n/a	LTP114	ltpFR	16	5	1	FLESH	579	1	5	0	n/a	n/a	n/a	n/a	n/a
3824.51	n/a	RECOG_RESP	1912255	n/a	LTP114	ltpFR	16	5	1	FLESH	579	1	n/a	0	n/a	n/a	n/a	n/a	n/a
3825.03	n/a	RECOG_CONF	1912515	n/a	LTP114	ltpFR	16	5	1	FLESH	579	n/a	5	0	n/a	n/a	n/a	n/a	n/a
3826.356	n/a	RECOG_TARGET	1913178	n/a	LTP114	ltpFR	16	5	-1	SCULPTURE	1258	0	5	-1	n/a	n/a	n/a	n/a	n/a
3827.144	n/a	RECOG_RESP	1913572	n/a	LTP114	ltpFR	16	5	-1	SCULPTURE	1258	0	n/a	-1	n/a	n/a	n/a	n/a	n/a
3827.572	n/a	RECOG_CONF	1913786	n/a	LTP114	ltpFR	16	5	-1	SCULPTURE	1258	n/a	5	-1	n/a	n/a	n/a	n/a	n/a
3829.054	n/a	RECOG_TARGET	1914527	n/a	LTP114	ltpFR	16	5	0	COOK	372	1	5	1	n/a	n/a	n/a	n/a	n/a
3829.738	n/a	RECOG_RESP	1914869	n/a	LTP114	ltpFR	16	5	0	COOK	372	1	n/a	1	n/a	n/a	n/a	n/a	n/a
3830.248	n/a	RECOG_CONF	1915124	n/a	LTP114	ltpFR	16	5	0	COOK	372	n/a	5	1	n/a	n/a	n/a	n/a	n/a
3831.554	n/a	RECOG_TARGET	1915777	n/a	LTP114	ltpFR	16	5	1	BASSINET	97	1	5	0	n/a	n/a	n/a	n/a	n/a
3832.098	n/a	RECOG_RESP	1916049	n/a	LTP114	ltpFR	16	5	1	BASSINET	97	1	n/a	0	n/a	n/a	n/a	n/a	n/a
3832.542	n/a	RECOG_CONF	1916271	n/a	LTP114	ltpFR	16	5	1	BASSINET	97	n/a	5	0	n/a	n/a	n/a	n/a	n/a
3833.894	n/a	RECOG_TARGET	1916947	n/a	LTP114	ltpFR	16	5	-1	CHECK	284	1	5	-1	n/a	n/a	n/a	n/a	n/a
3834.588	n/a	RECOG_RESP	1917294	n/a	LTP114	ltpFR	16	5	-1	CHECK	284	1	n/a	-1	n/a	n/a	n/a	n/a	n/a
3835.076	n/a	RECOG_CONF	1917538	n/a	LTP114	ltpFR	16	5	-1	CHECK	284	n/a	5	-1	n/a	n/a	n/a	n/a	n/a
3836.452	n/a	RECOG_TARGET	1918226	n/a	LTP114	ltpFR	16	5	0	KIDNEY	776	0	4	0	n/a	n/a	n/a	n/a	n/a
3837.048	n/a	RECOG_RESP	1918524	n/a	LTP114	ltpFR	16	5	0	KIDNEY	776	0	n/a	0	n/a	n/a	n/a	n/a	n/a
3837.96	n/a	RECOG_CONF	1918980	n/a	LTP114	ltpFR	16	5	0	KIDNEY	776	n/a	4	0	n/a	n/a	n/a	n/a	n/a
3839.394	n/a	RECOG_LURE	1919697	n/a	LTP114	ltpFR	16	5	n/a	COP	376	1	4	n/a	n/a	n/a	n/a	n/a	n/a
3840.8	n/a	RECOG_RESP	1920400	n/a	LTP114	ltpFR	16	5	n/a	COP	376	1	n/a	n/a	n/a	n/a	n/a	n/a	n/a
3841.334	n/a	RECOG_CONF	1920667	n/a	LTP114	ltpFR	16	5	n/a	COP	376	n/a	4	n/a	n/a	n/a	n/a	n/a	n/a
3842.708	n/a	RECOG_TARGET	1921354	n/a	LTP114	ltpFR	16	5	-1	TRENCH	1503	1	5	-1	n/a	n/a	n/a	n/a	n/a
3843.32	n/a	RECOG_RESP	1921660	n/a	LTP114	ltpFR	16	5	-1	TRENCH	1503	1	n/a	-1	n/a	n/a	n/a	n/a	n/a
3843.788	n/a	RECOG_CONF	1921894	n/a	LTP114	ltpFR	16	5	-1	TRENCH	1503	n/a	5	-1	n/a	n/a	n/a	n/a	n/a
3845.132	n/a	RECOG_LURE	1922566	n/a	LTP114	ltpFR	16	5	n/a	VASE	1549	0	4	n/a	n/a	n/a	n/a	n/a	n/a
3845.864	n/a	RECOG_RESP	1922932	n/a	LTP114	ltpFR	16	5	n/a	VASE	1549	0	n/a	n/a	n/a	n/a	n/a	n/a	n/a
3846.362	n/a	RECOG_CONF	1923181	n/a	LTP114	ltpFR	16	5	n/a	VASE	1549	n/a	4	n/a	n/a	n/a	n/a	n/a	n/a
3847.706	n/a	RECOG_TARGET	1923853	n/a	LTP114	ltpFR	16	5	1	APE	31	1	5	1	n/a	n/a	n/a	n/a	n/a
3848.776	n/a	RECOG_RESP	1924388	n/a	LTP114	ltpFR	16	5	1	APE	31	1	n/a	1	n/a	n/a	n/a	n/a	n/a
3849.276	n/a	RECOG_CONF	1924638	n/a	LTP114	ltpFR	16	5	1	APE	31	n/a	5	1	n/a	n/a	n/a	n/a	n/a
3850.664	n/a	RECOG_TARGET	1925332	n/a	LTP114	ltpFR	16	5	-1	SACK	1220	1	3	-1	n/a	n/a	n/a	n/a	n/a
3851.69	n/a	RECOG_RESP	1925845	n/a	LTP114	ltpFR	16	5	-1	SACK	1220	1	n/a	-1	n/a	n/a	n/a	n/a	n/a
3852.278	n/a	RECOG_CONF	1926139	n/a	LTP114	ltpFR	16	5	-1	SACK	1220	n/a	3	-1	n/a	n/a	n/a	n/a	n/a
3853.622	n/a	RECOG_LURE	1926811	n/a	LTP114	ltpFR	16	5	n/a	MIRROR	899	0	4	n/a	n/a	n/a	n/a	n/a	n/a
3854.464	n/a	RECOG_RESP	1927232	n/a	LTP114	ltpFR	16	5	n/a	MIRROR	899	0	n/a	n/a	n/a	n/a	n/a	n/a	n/a
3854.962	n/a	RECOG_CONF	1927481	n/a	LTP114	ltpFR	16	5	n/a	MIRROR	899	n/a	4	n/a	n/a	n/a	n/a	n/a	n/a
3856.338	n/a	RECOG_TARGET	1928169	n/a	LTP114	ltpFR	16	5	1	BEVERAGE	123	1	5	0	n/a	n/a	n/a	n/a	n/a
3857.128	n/a	RECOG_RESP	1928564	n/a	LTP114	ltpFR	16	5	1	BEVERAGE	123	1	n/a	0	n/a	n/a	n/a	n/a	n/a
3857.578	n/a	RECOG_CONF	1928789	n/a	LTP114	ltpFR	16	5	1	BEVERAGE	123	n/a	5	0	n/a	n/a	n/a	n/a	n/a
3858.962	n/a	RECOG_TARGET	1929481	n/a	LTP114	ltpFR	16	5	-1	QUILT	1151	1	5	-1	n/a	n/a	n/a	n/a	n/a
3859.604	n/a	RECOG_RESP	1929802	n/a	LTP114	ltpFR	16	5	-1	QUILT	1151	1	n/a	-1	n/a	n/a	n/a	n/a	n/a
3860.008	n/a	RECOG_CONF	1930004	n/a	LTP114	ltpFR	16	5	-1	QUILT	1151	n/a	5	-1	n/a	n/a	n/a	n/a	n/a
3861.394	n/a	RECOG_LURE	1930697	n/a	LTP114	ltpFR	16	5	n/a	STEWARDESS	1381	0	4	n/a	n/a	n/a	n/a	n/a	n/a
3862.028	n/a	RECOG_RESP	1931014	n/a	LTP114	ltpFR	16	5	n/a	STEWARDESS	1381	0	n/a	n/a	n/a	n/a	n/a	n/a	n/a
3862.616	n/a	RECOG_CONF	1931308	n/a	LTP114	ltpFR	16	5	n/a	STEWARDESS	1381	n/a	4	n/a	n/a	n/a	n/a	n/a	n/a
3864.01	n/a	RECOG_LURE	1932005	n/a	LTP114	ltpFR	16	5	n/a	BUFFALO	186	0	5	n/a	n/a	n/a	n/a	n/a	n/a
3864.656	n/a	RECOG_RESP	1932328	n/a	LTP114	ltpFR	16	5	n/a	BUFFALO	186	0	n/a	n/a	n/a	n/a	n/a	n/a	n/a
3865.112	n/a	RECOG_CONF	1932556	n/a	LTP114	ltpFR	16	5	n/a	BUFFALO	186	n/a	5	n/a	n/a	n/a	n/a	n/a	n/a
3866.494	n/a	RECOG_LURE	1933247	n/a	LTP114	ltpFR	16	5	n/a	STRANGER	1389	1	3	n/a	n/a	n/a	n/a	n/a	n/a
3867.196	n/a	RECOG_RESP	1933598	n/a	LTP114	ltpFR	16	5	n/a	STRANGER	1389	1	n/a	n/a	n/a	n/a	n/a	n/a	n/a
3867.854	n/a	RECOG_CONF	1933927	n/a	LTP114	ltpFR	16	5	n/a	STRANGER	1389	n/a	3	n/a	n/a	n/a	n/a	n/a	n/a
3869.25	n/a	RECOG_LURE	1934625	n/a	LTP114	ltpFR	16	5	n/a	BOOT	150	1	2	n/a	n/a	n/a	n/a	n/a	n/a
3870.208	n/a	RECOG_RESP	1935104	n/a	LTP114	ltpFR	16	5	n/a	BOOT	150	1	n/a	n/a	n/a	n/a	n/a	n/a	n/a
3871.018	n/a	RECOG_CONF	1935509	n/a	LTP114	ltpFR	16	5	n/a	BOOT	150	n/a	2	n/a	n/a	n/a	n/a	n/a	n/a
3872.4	n/a	RECOG_TARGET	1936200	n/a	LTP114	ltpFR	16	5	0	MEAL	882	0	4	0	n/a	n/a	n/a	n/a	n/a
3875.268	n/a	RECOG_RESP	1937634	n/a	LTP114	ltpFR	16	5	0	MEAL	882	0	n/a	0	n/a	n/a	n/a	n/a	n/a
3875.882	n/a	RECOG_CONF	1937941	n/a	LTP114	ltpFR	16	5	0	MEAL	882	n/a	4	0	n/a	n/a	n/a	n/a	n/a
3877.248	n/a	RECOG_TARGET	1938624	n/a	LTP114	ltpFR	16	5	0	SAPPHIRE	1234	1	5	0	n/a	n/a	n/a	n/a	n/a
3878.052	n/a	RECOG_RESP	1939026	n/a	LTP114	ltpFR	16	5	0	SAPPHIRE	1234	1	n/a	0	n/a	n/a	n/a	n/a	n/a
3878.522	n/a	RECOG_CONF	1939261	n/a	LTP114	ltpFR	16	5	0	SAPPHIRE	1234	n/a	5	0	n/a	n/a	n/a	n/a	n/a
3881.928	n/a	REC_START	1940964	n/a	LTP114	ltpFR	16	6	n/a	n/a	n/a	n/a	n/a	n/a	n/a	n/a	n/a	n/a	n/a
3881.962	n/a	RECOG_LURE	1940981	n/a	LTP114	ltpFR	16	6	n/a	LION	827	0	5	n/a	n/a	n/a	n/a	n/a	n/a
3885.634	n/a	RECOG_RESP	1942817	n/a	LTP114	ltpFR	16	6	n/a	LION	827	0	n/a	n/a	n/a	n/a	n/a	n/a	n/a
3886.154	n/a	RECOG_CONF	1943077	n/a	LTP114	ltpFR	16	6	n/a	LION	827	n/a	5	n/a	n/a	n/a	n/a	n/a	n/a
3887.62	n/a	RECOG_LURE	1943810	n/a	LTP114	ltpFR	16	6	n/a	TYPIST	1532	0	3	n/a	n/a	n/a	n/a	n/a	n/a
3888.574	n/a	RECOG_RESP	1944287	n/a	LTP114	ltpFR	16	6	n/a	TYPIST	1532	0	n/a	n/a	n/a	n/a	n/a	n/a	n/a
3889.058	n/a	RECOG_CONF	1944529	n/a	LTP114	ltpFR	16	6	n/a	TYPIST	1532	n/a	3	n/a	n/a	n/a	n/a	n/a	n/a
3890.436	n/a	RECOG_TARGET	1945218	n/a	LTP114	ltpFR	16	6	-1	BENCH	121	1	5	-1	n/a	n/a	n/a	n/a	n/a
3891.95	n/a	RECOG_RESP	1945975	n/a	LTP114	ltpFR	16	6	-1	BENCH	121	1	n/a	-1	n/a	n/a	n/a	n/a	n/a
3892.37	n/a	RECOG_CONF	1946185	n/a	LTP114	ltpFR	16	6	-1	BENCH	121	n/a	5	-1	n/a	n/a	n/a	n/a	n/a
3893.684	n/a	RECOG_TARGET	1946842	n/a	LTP114	ltpFR	16	6	1	CAVITY	264	1	5	0	n/a	n/a	n/a	n/a	n/a
3894.25	n/a	RECOG_RESP	1947125	n/a	LTP114	ltpFR	16	6	1	CAVITY	264	1	n/a	0	n/a	n/a	n/a	n/a	n/a
3894.624	n/a	RECOG_CONF	1947312	n/a	LTP114	ltpFR	16	6	1	CAVITY	264	n/a	5	0	n/a	n/a	n/a	n/a	n/a
3896.076	n/a	RECOG_LURE	1948038	n/a	LTP114	ltpFR	16	6	n/a	JELLY	755	1	5	n/a	n/a	n/a	n/a	n/a	n/a
3896.66	n/a	RECOG_RESP	1948330	n/a	LTP114	ltpFR	16	6	n/a	JELLY	755	1	n/a	n/a	n/a	n/a	n/a	n/a	n/a
3897.088	n/a	RECOG_CONF	1948544	n/a	LTP114	ltpFR	16	6	n/a	JELLY	755	n/a	5	n/a	n/a	n/a	n/a	n/a	n/a
3898.508	n/a	RECOG_TARGET	1949254	n/a	LTP114	ltpFR	16	6	1	CAT	257	1	5	0	n/a	n/a	n/a	n/a	n/a
3899.016	n/a	RECOG_RESP	1949508	n/a	LTP114	ltpFR	16	6	1	CAT	257	1	n/a	0	n/a	n/a	n/a	n/a	n/a
3899.424	n/a	RECOG_CONF	1949712	n/a	LTP114	ltpFR	16	6	1	CAT	257	n/a	5	0	n/a	n/a	n/a	n/a	n/a
3900.848	n/a	RECOG_TARGET	1950424	n/a	LTP114	ltpFR	16	6	0	BLOCKADE	137	1	3	n/a	n/a	n/a	n/a	n/a	n/a
3901.63	n/a	RECOG_RESP	1950815	n/a	LTP114	ltpFR	16	6	0	BLOCKADE	137	1	n/a	n/a	n/a	n/a	n/a	n/a	n/a
3902.318	n/a	RECOG_CONF	1951159	n/a	LTP114	ltpFR	16	6	0	BLOCKADE	137	n/a	3	n/a	n/a	n/a	n/a	n/a	n/a
3903.59	n/a	RECOG_TARGET	1951795	n/a	LTP114	ltpFR	16	6	-1	JELLO	754	1	5	-1	n/a	n/a	n/a	n/a	n/a
3904.124	n/a	RECOG_RESP	1952062	n/a	LTP114	ltpFR	16	6	-1	JELLO	754	1	n/a	-1	n/a	n/a	n/a	n/a	n/a
3904.542	n/a	RECOG_CONF	1952271	n/a	LTP114	ltpFR	16	6	-1	JELLO	754	n/a	5	-1	n/a	n/a	n/a	n/a	n/a
3905.972	n/a	RECOG_TARGET	1952986	n/a	LTP114	ltpFR	16	6	1	GUARDIAN	668	1	5	1	n/a	n/a	n/a	n/a	n/a
3906.598	n/a	RECOG_RESP	1953299	n/a	LTP114	ltpFR	16	6	1	GUARDIAN	668	1	n/a	1	n/a	n/a	n/a	n/a	n/a
3907.008	n/a	RECOG_CONF	1953504	n/a	LTP114	ltpFR	16	6	1	GUARDIAN	668	n/a	5	1	n/a	n/a	n/a	n/a	n/a
3908.438	n/a	RECOG_LURE	1954219	n/a	LTP114	ltpFR	16	6	n/a	FIREPLACE	570	0	5	n/a	n/a	n/a	n/a	n/a	n/a
3909.072	n/a	RECOG_RESP	1954536	n/a	LTP114	ltpFR	16	6	n/a	FIREPLACE	570	0	n/a	n/a	n/a	n/a	n/a	n/a	n/a
3909.524	n/a	RECOG_CONF	1954762	n/a	LTP114	ltpFR	16	6	n/a	FIREPLACE	570	n/a	5	n/a	n/a	n/a	n/a	n/a	n/a
3910.87	n/a	RECOG_TARGET	1955435	n/a	LTP114	ltpFR	16	6	-1	PAINTING	1005	1	3	-1	n/a	n/a	n/a	n/a	n/a
3911.596	n/a	RECOG_RESP	1955798	n/a	LTP114	ltpFR	16	6	-1	PAINTING	1005	1	n/a	-1	n/a	n/a	n/a	n/a	n/a
3912.146	n/a	RECOG_CONF	1956073	n/a	LTP114	ltpFR	16	6	-1	PAINTING	1005	n/a	3	-1	n/a	n/a	n/a	n/a	n/a
3913.47	n/a	RECOG_TARGET	1956735	n/a	LTP114	ltpFR	16	6	0	HAMPER	682	1	5	1	n/a	n/a	n/a	n/a	n/a
3915.948	n/a	RECOG_RESP	1957974	n/a	LTP114	ltpFR	16	6	0	HAMPER	682	1	n/a	1	n/a	n/a	n/a	n/a	n/a
3917.076	n/a	RECOG_CONF	1958538	n/a	LTP114	ltpFR	16	6	0	HAMPER	682	n/a	5	1	n/a	n/a	n/a	n/a	n/a
3918.636	n/a	RECOG_LURE	1959318	n/a	LTP114	ltpFR	16	6	n/a	SAND	1230	0	5	n/a	n/a	n/a	n/a	n/a	n/a
3920.778	n/a	RECOG_RESP	1960389	n/a	LTP114	ltpFR	16	6	n/a	SAND	1230	0	n/a	n/a	n/a	n/a	n/a	n/a	n/a
3921.206	n/a	RECOG_CONF	1960603	n/a	LTP114	ltpFR	16	6	n/a	SAND	1230	n/a	5	n/a	n/a	n/a	n/a	n/a	n/a
3922.618	n/a	RECOG_TARGET	1961309	n/a	LTP114	ltpFR	16	6	1	FOREHEAD	592	1	5	0	n/a	n/a	n/a	n/a	n/a
3923.272	n/a	RECOG_RESP	1961636	n/a	LTP114	ltpFR	16	6	1	FOREHEAD	592	1	n/a	0	n/a	n/a	n/a	n/a	n/a
3923.676	n/a	RECOG_CONF	1961838	n/a	LTP114	ltpFR	16	6	1	FOREHEAD	592	n/a	5	0	n/a	n/a	n/a	n/a	n/a
3925.208	n/a	RECOG_TARGET	1962604	n/a	LTP114	ltpFR	16	6	1	SALIVA	1226	1	5	0	n/a	n/a	n/a	n/a	n/a
3925.78	n/a	RECOG_RESP	1962890	n/a	LTP114	ltpFR	16	6	1	SALIVA	1226	1	n/a	0	n/a	n/a	n/a	n/a	n/a
3926.214	n/a	RECOG_CONF	1963107	n/a	LTP114	ltpFR	16	6	1	SALIVA	1226	n/a	5	0	n/a	n/a	n/a	n/a	n/a
3927.566	n/a	RECOG_LURE	1963783	n/a	LTP114	ltpFR	16	6	n/a	HALL	677	0	4	n/a	n/a	n/a	n/a	n/a	n/a
3929.362	n/a	RECOG_RESP	1964681	n/a	LTP114	ltpFR	16	6	n/a	HALL	677	0	n/a	n/a	n/a	n/a	n/a	n/a	n/a
3929.876	n/a	RECOG_CONF	1964938	n/a	LTP114	ltpFR	16	6	n/a	HALL	677	n/a	4	n/a	n/a	n/a	n/a	n/a	n/a
3931.364	n/a	RECOG_TARGET	1965682	n/a	LTP114	ltpFR	16	6	1	ROACH	1195	1	5	1	n/a	n/a	n/a	n/a	n/a
3931.986	n/a	RECOG_RESP	1965993	n/a	LTP114	ltpFR	16	6	1	ROACH	1195	1	n/a	1	n/a	n/a	n/a	n/a	n/a
3932.47	n/a	RECOG_CONF	1966235	n/a	LTP114	ltpFR	16	6	1	ROACH	1195	n/a	5	1	n/a	n/a	n/a	n/a	n/a
3933.772	n/a	RECOG_LURE	1966886	n/a	LTP114	ltpFR	16	6	n/a	TRASH	1497	1	5	n/a	n/a	n/a	n/a	n/a	n/a
3934.338	n/a	RECOG_RESP	1967169	n/a	LTP114	ltpFR	16	6	n/a	TRASH	1497	1	n/a	n/a	n/a	n/a	n/a	n/a	n/a
3934.766	n/a	RECOG_CONF	1967383	n/a	LTP114	ltpFR	16	6	n/a	TRASH	1497	n/a	5	n/a	n/a	n/a	n/a	n/a	n/a
3936.054	n/a	RECOG_LURE	1968027	n/a	LTP114	ltpFR	16	6	n/a	PIZZA	1079	0	5	n/a	n/a	n/a	n/a	n/a	n/a
3937.654	n/a	RECOG_RESP	1968827	n/a	LTP114	ltpFR	16	6	n/a	PIZZA	1079	0	n/a	n/a	n/a	n/a	n/a	n/a	n/a
3938.11	n/a	RECOG_CONF	1969055	n/a	LTP114	ltpFR	16	6	n/a	PIZZA	1079	n/a	5	n/a	n/a	n/a	n/a	n/a	n/a
3939.696	n/a	RECOG_TARGET	1969848	n/a	LTP114	ltpFR	16	6	1	ANKLE	24	1	5	1	n/a	n/a	n/a	n/a	n/a
3940.354	n/a	RECOG_RESP	1970177	n/a	LTP114	ltpFR	16	6	1	ANKLE	24	1	n/a	1	n/a	n/a	n/a	n/a	n/a
3940.822	n/a	RECOG_CONF	1970411	n/a	LTP114	ltpFR	16	6	1	ANKLE	24	n/a	5	1	n/a	n/a	n/a	n/a	n/a
3944.26	n/a	REC_START	1972130	n/a	LTP114	ltpFR	16	7	n/a	n/a	n/a	n/a	n/a	n/a	n/a	n/a	n/a	n/a	n/a
3944.294	n/a	RECOG_TARGET	1972147	n/a	LTP114	ltpFR	16	7	1	SHEEP	1278	1	5	1	n/a	n/a	n/a	n/a	n/a
3944.952	n/a	RECOG_RESP	1972476	n/a	LTP114	ltpFR	16	7	1	SHEEP	1278	1	n/a	1	n/a	n/a	n/a	n/a	n/a
3945.372	n/a	RECOG_CONF	1972686	n/a	LTP114	ltpFR	16	7	1	SHEEP	1278	n/a	5	1	n/a	n/a	n/a	n/a	n/a
3946.8	n/a	RECOG_TARGET	1973400	n/a	LTP114	ltpFR	16	7	1	ASH	44	1	5	0	n/a	n/a	n/a	n/a	n/a
3947.726	n/a	RECOG_RESP	1973863	n/a	LTP114	ltpFR	16	7	1	ASH	44	1	n/a	0	n/a	n/a	n/a	n/a	n/a
3948.19	n/a	RECOG_CONF	1974095	n/a	LTP114	ltpFR	16	7	1	ASH	44	n/a	5	0	n/a	n/a	n/a	n/a	n/a
3949.56	n/a	RECOG_LURE	1974780	n/a	LTP114	ltpFR	16	7	n/a	COIN	343	0	5	n/a	n/a	n/a	n/a	n/a	n/a
3950.26	n/a	RECOG_RESP	1975130	n/a	LTP114	ltpFR	16	7	n/a	COIN	343	0	n/a	n/a	n/a	n/a	n/a	n/a	n/a
3950.7	n/a	RECOG_CONF	1975350	n/a	LTP114	ltpFR	16	7	n/a	COIN	343	n/a	5	n/a	n/a	n/a	n/a	n/a	n/a
3952.09	n/a	RECOG_LURE	1976045	n/a	LTP114	ltpFR	16	7	n/a	RING	1193	0	5	n/a	n/a	n/a	n/a	n/a	n/a
3952.916	n/a	RECOG_RESP	1976458	n/a	LTP114	ltpFR	16	7	n/a	RING	1193	0	n/a	n/a	n/a	n/a	n/a	n/a	n/a
3953.31	n/a	RECOG_CONF	1976655	n/a	LTP114	ltpFR	16	7	n/a	RING	1193	n/a	5	n/a	n/a	n/a	n/a	n/a	n/a
3954.816	n/a	RECOG_TARGET	1977408	n/a	LTP114	ltpFR	16	7	1	FLOWER	584	1	5	1	n/a	n/a	n/a	n/a	n/a
3955.534	n/a	RECOG_RESP	1977767	n/a	LTP114	ltpFR	16	7	1	FLOWER	584	1	n/a	1	n/a	n/a	n/a	n/a	n/a
3956.008	n/a	RECOG_CONF	1978004	n/a	LTP114	ltpFR	16	7	1	FLOWER	584	n/a	5	1	n/a	n/a	n/a	n/a	n/a
3957.45	n/a	RECOG_TARGET	1978725	n/a	LTP114	ltpFR	16	7	-1	FEMALE	559	1	5	-1	n/a	n/a	n/a	n/a	n/a
3958.024	n/a	RECOG_RESP	1979012	n/a	LTP114	ltpFR	16	7	-1	FEMALE	559	1	n/a	-1	n/a	n/a	n/a	n/a	n/a
3958.452	n/a	RECOG_CONF	1979226	n/a	LTP114	ltpFR	16	7	-1	FEMALE	559	n/a	5	-1	n/a	n/a	n/a	n/a	n/a
3959.806	n/a	RECOG_TARGET	1979903	n/a	LTP114	ltpFR	16	7	1	GODDESS	646	1	5	1	n/a	n/a	n/a	n/a	n/a
3960.378	n/a	RECOG_RESP	1980189	n/a	LTP114	ltpFR	16	7	1	GODDESS	646	1	n/a	1	n/a	n/a	n/a	n/a	n/a
3960.784	n/a	RECOG_CONF	1980392	n/a	LTP114	ltpFR	16	7	1	GODDESS	646	n/a	5	1	n/a	n/a	n/a	n/a	n/a
3962.114	n/a	RECOG_TARGET	1981057	n/a	LTP114	ltpFR	16	7	1	CORPORATION	382	1	5	0	n/a	n/a	n/a	n/a	n/a
3962.698	n/a	RECOG_RESP	1981349	n/a	LTP114	ltpFR	16	7	1	CORPORATION	382	1	n/a	0	n/a	n/a	n/a	n/a	n/a
3963.108	n/a	RECOG_CONF	1981554	n/a	LTP114	ltpFR	16	7	1	CORPORATION	382	n/a	5	0	n/a	n/a	n/a	n/a	n/a
3964.564	n/a	RECOG_TARGET	1982282	n/a	LTP114	ltpFR	16	7	1	CRICKET	408	1	5	0	n/a	n/a	n/a	n/a	n/a
3965.118	n/a	RECOG_RESP	1982559	n/a	LTP114	ltpFR	16	7	1	CRICKET	408	1	n/a	0	n/a	n/a	n/a	n/a	n/a
3965.576	n/a	RECOG_CONF	1982788	n/a	LTP114	ltpFR	16	7	1	CRICKET	408	n/a	5	0	n/a	n/a	n/a	n/a	n/a
3967.012	n/a	RECOG_TARGET	1983506	n/a	LTP114	ltpFR	16	7	-1	DUNGEON	507	1	5	-1	n/a	n/a	n/a	n/a	n/a
3967.612	n/a	RECOG_RESP	1983806	n/a	LTP114	ltpFR	16	7	-1	DUNGEON	507	1	n/a	-1	n/a	n/a	n/a	n/a	n/a
3967.992	n/a	RECOG_CONF	1983996	n/a	LTP114	ltpFR	16	7	-1	DUNGEON	507	n/a	5	-1	n/a	n/a	n/a	n/a	n/a
3969.512	n/a	RECOG_TARGET	1984756	n/a	LTP114	ltpFR	16	7	0	PRUNE	1134	1	5	0	n/a	n/a	n/a	n/a	n/a
3970.076	n/a	RECOG_RESP	1985038	n/a	LTP114	ltpFR	16	7	0	PRUNE	1134	1	n/a	0	n/a	n/a	n/a	n/a	n/a
3970.506	n/a	RECOG_CONF	1985253	n/a	LTP114	ltpFR	16	7	0	PRUNE	1134	n/a	5	0	n/a	n/a	n/a	n/a	n/a
3971.884	n/a	RECOG_LURE	1985942	n/a	LTP114	ltpFR	16	7	n/a	FARM	552	1	5	n/a	n/a	n/a	n/a	n/a	n/a
3972.586	n/a	RECOG_RESP	1986293	n/a	LTP114	ltpFR	16	7	n/a	FARM	552	1	n/a	n/a	n/a	n/a	n/a	n/a	n/a
3973.002	n/a	RECOG_CONF	1986501	n/a	LTP114	ltpFR	16	7	n/a	FARM	552	n/a	5	n/a	n/a	n/a	n/a	n/a	n/a
3974.478	n/a	RECOG_TARGET	1987239	n/a	LTP114	ltpFR	16	7	0	TICKET	1464	1	5	0	n/a	n/a	n/a	n/a	n/a
3975.53	n/a	RECOG_RESP	1987765	n/a	LTP114	ltpFR	16	7	0	TICKET	1464	1	n/a	0	n/a	n/a	n/a	n/a	n/a
3975.94	n/a	RECOG_CONF	1987970	n/a	LTP114	ltpFR	16	7	0	TICKET	1464	n/a	5	0	n/a	n/a	n/a	n/a	n/a
3977.352	n/a	RECOG_TARGET	1988676	n/a	LTP114	ltpFR	16	7	1	PRISONER	1128	1	5	1	n/a	n/a	n/a	n/a	n/a
3977.99	n/a	RECOG_RESP	1988995	n/a	LTP114	ltpFR	16	7	1	PRISONER	1128	1	n/a	1	n/a	n/a	n/a	n/a	n/a
3978.468	n/a	RECOG_CONF	1989234	n/a	LTP114	ltpFR	16	7	1	PRISONER	1128	n/a	5	1	n/a	n/a	n/a	n/a	n/a
3979.85	n/a	RECOG_LURE	1989925	n/a	LTP114	ltpFR	16	7	n/a	CHIME	300	1	3	n/a	n/a	n/a	n/a	n/a	n/a
3981.542	n/a	RECOG_RESP	1990771	n/a	LTP114	ltpFR	16	7	n/a	CHIME	300	1	n/a	n/a	n/a	n/a	n/a	n/a	n/a
3981.99	n/a	RECOG_CONF	1990995	n/a	LTP114	ltpFR	16	7	n/a	CHIME	300	n/a	3	n/a	n/a	n/a	n/a	n/a	n/a
3983.658	n/a	RECOG_TARGET	1991829	n/a	LTP114	ltpFR	16	7	1	BIOLOGIST	128	1	5	1	n/a	n/a	n/a	n/a	n/a
3984.564	n/a	RECOG_RESP	1992282	n/a	LTP114	ltpFR	16	7	1	BIOLOGIST	128	1	n/a	1	n/a	n/a	n/a	n/a	n/a
3985.016	n/a	RECOG_CONF	1992508	n/a	LTP114	ltpFR	16	7	1	BIOLOGIST	128	n/a	5	1	n/a	n/a	n/a	n/a	n/a
3986.364	n/a	RECOG_TARGET	1993182	n/a	LTP114	ltpFR	16	7	1	GULL	671	1	5	1	n/a	n/a	n/a	n/a	n/a
3986.984	n/a	RECOG_RESP	1993492	n/a	LTP114	ltpFR	16	7	1	GULL	671	1	n/a	1	n/a	n/a	n/a	n/a	n/a
3987.388	n/a	RECOG_CONF	1993694	n/a	LTP114	ltpFR	16	7	1	GULL	671	n/a	5	1	n/a	n/a	n/a	n/a	n/a
3988.854	n/a	RECOG_TARGET	1994427	n/a	LTP114	ltpFR	16	7	0	BANANA	77	1	5	0	n/a	n/a	n/a	n/a	n/a
3989.404	n/a	RECOG_RESP	1994702	n/a	LTP114	ltpFR	16	7	0	BANANA	77	1	n/a	0	n/a	n/a	n/a	n/a	n/a
3989.872	n/a	RECOG_CONF	1994936	n/a	LTP114	ltpFR	16	7	0	BANANA	77	n/a	5	0	n/a	n/a	n/a	n/a	n/a
3991.306	n/a	RECOG_TARGET	1995653	n/a	LTP114	ltpFR	16	7	1	COBBLER	335	1	5	1	n/a	n/a	n/a	n/a	n/a
3991.86	n/a	RECOG_RESP	1995930	n/a	LTP114	ltpFR	16	7	1	COBBLER	335	1	n/a	1	n/a	n/a	n/a	n/a	n/a
3992.258	n/a	RECOG_CONF	1996129	n/a	LTP114	ltpFR	16	7	1	COBBLER	335	n/a	5	1	n/a	n/a	n/a	n/a	n/a
3993.704	n/a	RECOG_LURE	1996852	n/a	LTP114	ltpFR	16	7	n/a	PELICAN	1039	0	5	n/a	n/a	n/a	n/a	n/a	n/a
3994.284	n/a	RECOG_RESP_VV	1997142	n/a	LTP114	ltpFR	16	7	n/a	PELICAN	1039	1	n/a	n/a	n/a	n/a	n/a	n/a	n/a
3994.612	n/a	RECOG_RESP	1997306	n/a	LTP114	ltpFR	16	7	n/a	PELICAN	1039	0	n/a	n/a	n/a	n/a	n/a	n/a	n/a
3995.202	n/a	RECOG_CONF	1997601	n/a	LTP114	ltpFR	16	7	n/a	PELICAN	1039	n/a	5	n/a	n/a	n/a	n/a	n/a	n/a
3998.88	n/a	REC_START	1999440	n/a	LTP114	ltpFR	16	8	n/a	n/a	n/a	n/a	n/a	n/a	n/a	n/a	n/a	n/a	n/a
3998.91	n/a	RECOG_LURE	1999455	n/a	LTP114	ltpFR	16	8	n/a	RAZOR	1171	0	5	n/a	n/a	n/a	n/a	n/a	n/a
3999.734	n/a	RECOG_RESP	1999867	n/a	LTP114	ltpFR	16	8	n/a	RAZOR	1171	0	n/a	n/a	n/a	n/a	n/a	n/a	n/a
4000.262	n/a	RECOG_CONF	2000131	n/a	LTP114	ltpFR	16	8	n/a	RAZOR	1171	n/a	5	n/a	n/a	n/a	n/a	n/a	n/a
4001.692	n/a	RECOG_LURE	2000846	n/a	LTP114	ltpFR	16	8	n/a	NERVE	944	0	5	n/a	n/a	n/a	n/a	n/a	n/a
4002.428	n/a	RECOG_RESP	2001214	n/a	LTP114	ltpFR	16	8	n/a	NERVE	944	0	n/a	n/a	n/a	n/a	n/a	n/a	n/a
4002.81	n/a	RECOG_CONF	2001405	n/a	LTP114	ltpFR	16	8	n/a	NERVE	944	n/a	5	n/a	n/a	n/a	n/a	n/a	n/a
