onset	duration	trial_type	sample	stim_file	subject	experiment	session	trial	item_name	item_num	list	answer	test_x	test_y	test_z
-0.002	n/a	SESS_START	-1	n/a	LTP236	ltpFR2	1	n/a	n/a	n/a	n/a	n/a	0	0	0
-0.002	n/a	START	-1	n/a	LTP236	ltpFR2	1	n/a	n/a	n/a	-1	n/a	n/a	n/a	n/a
-0.002	n/a	PROB	-1	n/a	LTP236	ltpFR2	1	n/a	n/a	n/a	-1	19	6	7	6
-0.002	n/a	PROB	-1	n/a	LTP236	ltpFR2	1	n/a	n/a	n/a	-1	18	3	6	9
-0.002	n/a	PROB	-1	n/a	LTP236	ltpFR2	1	n/a	n/a	n/a	-1	11	5	4	2
-0.002	n/a	PROB	-1	n/a	LTP236	ltpFR2	1	n/a	n/a	n/a	-1	21	9	8	4
-0.002	n/a	PROB	-1	n/a	LTP236	ltpFR2	1	n/a	n/a	n/a	-1	1	6	5	4
-0.002	n/a	PROB	-1	n/a	LTP236	ltpFR2	1	n/a	n/a	n/a	-1	8	3	2	3
-0.002	n/a	PROB	-1	n/a	LTP236	ltpFR2	1	n/a	n/a	n/a	-1	18	2	9	7
-0.002	n/a	STOP	-1	n/a	LTP236	ltpFR2	1	n/a	n/a	n/a	-1	n/a	n/a	n/a	n/a
-0.002	n/a	SESS_START	-1	n/a	LTP236	ltpFR2	1	n/a	n/a	n/a	n/a	n/a	0	0	0
-0.002	n/a	START	-1	n/a	LTP236	ltpFR2	1	n/a	n/a	n/a	1	n/a	n/a	n/a	n/a
-0.002	n/a	PROB	-1	n/a	LTP236	ltpFR2	1	n/a	n/a	n/a	1	18	9	8	1
-0.002	n/a	PROB	-1	n/a	LTP236	ltpFR2	1	n/a	n/a	n/a	1	13	4	3	6
-0.002	n/a	PROB	-1	n/a	LTP236	ltpFR2	1	n/a	n/a	n/a	1	10	7	1	2
-0.002	n/a	PROB	-1	n/a	LTP236	ltpFR2	1	n/a	n/a	n/a	1	14	9	1	4
-0.002	n/a	PROB	-1	n/a	LTP236	ltpFR2	1	n/a	n/a	n/a	1	14	4	2	8
-0.002	n/a	PROB	-1	n/a	LTP236	ltpFR2	1	n/a	n/a	n/a	1	13	2	7	4
-0.002	n/a	STOP	-1	n/a	LTP236	ltpFR2	1	n/a	n/a	n/a	1	n/a	n/a	n/a	n/a
272.222	n/a	SESS_START	136111	n/a	LTP236	ltpFR2	1	n/a	n/a	n/a	n/a	n/a	0	0	0
288.236	n/a	START	144118	n/a	LTP236	ltpFR2	1	n/a	n/a	n/a	2	n/a	n/a	n/a	n/a
288.26	n/a	PROB	144130	n/a	LTP236	ltpFR2	1	n/a	n/a	n/a	2	19	6	8	5
291.236	n/a	PROB	145618	n/a	LTP236	ltpFR2	1	n/a	n/a	n/a	2	12	5	1	6
292.37	n/a	PROB	146185	n/a	LTP236	ltpFR2	1	n/a	n/a	n/a	2	16	5	9	2
293.568	n/a	PROB	146784	n/a	LTP236	ltpFR2	1	n/a	n/a	n/a	2	24	8	7	9
297.072	n/a	PROB	148536	n/a	LTP236	ltpFR2	1	n/a	n/a	n/a	2	9	3	4	2
298.622	n/a	PROB	149311	n/a	LTP236	ltpFR2	1	n/a	n/a	n/a	2	17	4	8	5
299.91	n/a	STOP	149955	n/a	LTP236	ltpFR2	1	n/a	n/a	n/a	2	n/a	n/a	n/a	n/a
331.984	n/a	WORD	165992	wordpools/wasnorm_wordpool_576.txt	LTP236	ltpFR2	1	1	FOREHEAD	592	n/a	n/a	0	0	0
334.684	n/a	WORD	167342	wordpools/wasnorm_wordpool_576.txt	LTP236	ltpFR2	1	1	SUBWAY	1400	n/a	n/a	0	0	0
337.386	n/a	WORD	168693	wordpools/wasnorm_wordpool_576.txt	LTP236	ltpFR2	1	1	STAR	1373	n/a	n/a	0	0	0
340.056	n/a	WORD	170028	wordpools/wasnorm_wordpool_576.txt	LTP236	ltpFR2	1	1	COMET	353	n/a	n/a	0	0	0
342.592	n/a	WORD	171296	wordpools/wasnorm_wordpool_576.txt	LTP236	ltpFR2	1	1	SCOTCH	1251	n/a	n/a	0	0	0
345.326	n/a	WORD	172663	wordpools/wasnorm_wordpool_576.txt	LTP236	ltpFR2	1	1	IGLOO	734	n/a	n/a	0	0	0
347.81	n/a	WORD	173905	wordpools/wasnorm_wordpool_576.txt	LTP236	ltpFR2	1	1	CRAYON	401	n/a	n/a	0	0	0
350.33	n/a	WORD	175165	wordpools/wasnorm_wordpool_576.txt	LTP236	ltpFR2	1	1	FOX	598	n/a	n/a	0	0	0
352.85	n/a	WORD	176425	wordpools/wasnorm_wordpool_576.txt	LTP236	ltpFR2	1	1	CEILING	265	n/a	n/a	0	0	0
355.654	n/a	WORD	177827	wordpools/wasnorm_wordpool_576.txt	LTP236	ltpFR2	1	1	OX	994	n/a	n/a	0	0	0
358.372	n/a	WORD	179186	wordpools/wasnorm_wordpool_576.txt	LTP236	ltpFR2	1	1	RECORD	1176	n/a	n/a	0	0	0
360.84	n/a	WORD	180420	wordpools/wasnorm_wordpool_576.txt	LTP236	ltpFR2	1	1	BRIEFCASE	175	n/a	n/a	0	0	0
363.276	n/a	WORD	181638	wordpools/wasnorm_wordpool_576.txt	LTP236	ltpFR2	1	1	WINDOW	1611	n/a	n/a	0	0	0
365.776	n/a	WORD	182888	wordpools/wasnorm_wordpool_576.txt	LTP236	ltpFR2	1	1	GLASS	639	n/a	n/a	0	0	0
368.312	n/a	WORD	184156	wordpools/wasnorm_wordpool_576.txt	LTP236	ltpFR2	1	1	PAPER	1011	n/a	n/a	0	0	0
371.032	n/a	WORD	185516	wordpools/wasnorm_wordpool_576.txt	LTP236	ltpFR2	1	1	FRECKLE	602	n/a	n/a	0	0	0
373.718	n/a	WORD	186859	wordpools/wasnorm_wordpool_576.txt	LTP236	ltpFR2	1	1	EGYPT	519	n/a	n/a	0	0	0
376.218	n/a	WORD	188109	wordpools/wasnorm_wordpool_576.txt	LTP236	ltpFR2	1	1	TRENCH	1503	n/a	n/a	0	0	0
379.038	n/a	WORD	189519	wordpools/wasnorm_wordpool_576.txt	LTP236	ltpFR2	1	1	FRUIT	610	n/a	n/a	0	0	0
381.858	n/a	WORD	190929	wordpools/wasnorm_wordpool_576.txt	LTP236	ltpFR2	1	1	FLESH	579	n/a	n/a	0	0	0
384.31	n/a	WORD	192155	wordpools/wasnorm_wordpool_576.txt	LTP236	ltpFR2	1	1	MARKER	870	n/a	n/a	0	0	0
386.996	n/a	WORD	193498	wordpools/wasnorm_wordpool_576.txt	LTP236	ltpFR2	1	1	COLONEL	348	n/a	n/a	0	0	0
389.748	n/a	WORD	194874	wordpools/wasnorm_wordpool_576.txt	LTP236	ltpFR2	1	1	GUARD	667	n/a	n/a	0	0	0
392.45	n/a	WORD	196225	wordpools/wasnorm_wordpool_576.txt	LTP236	ltpFR2	1	1	STREAM	1392	n/a	n/a	0	0	0
394.068	n/a	START	197034	n/a	LTP236	ltpFR2	1	n/a	n/a	n/a	3	n/a	n/a	n/a	n/a
395.08	n/a	DISTRACTOR	197540	n/a	LTP236	ltpFR2	1	1	n/a	n/a	n/a	n/a	0	0	0
395.086	n/a	PROB	197543	n/a	LTP236	ltpFR2	1	n/a	n/a	n/a	3	9	2	5	2
397.068	n/a	PROB	198534	n/a	LTP236	ltpFR2	1	n/a	n/a	n/a	3	17	2	9	6
398.452	n/a	PROB	199226	n/a	LTP236	ltpFR2	1	n/a	n/a	n/a	3	8	3	3	2
399.62	n/a	PROB	199810	n/a	LTP236	ltpFR2	1	n/a	n/a	n/a	3	7	3	1	3
401.172	n/a	PROB	200586	n/a	LTP236	ltpFR2	1	n/a	n/a	n/a	3	13	6	6	1
402.254	n/a	PROB	201127	n/a	LTP236	ltpFR2	1	n/a	n/a	n/a	3	22	7	6	9
404.756	n/a	PROB	202378	n/a	LTP236	ltpFR2	1	n/a	n/a	n/a	3	13	1	8	4
405.858	n/a	PROB	202929	n/a	LTP236	ltpFR2	1	n/a	n/a	n/a	3	10	2	2	6
407.092	n/a	PROB	203546	n/a	LTP236	ltpFR2	1	n/a	n/a	n/a	3	17	9	6	2
409.628	n/a	PROB	204814	n/a	LTP236	ltpFR2	1	n/a	n/a	n/a	3	14	3	3	8
412.096	n/a	PROB	206048	n/a	LTP236	ltpFR2	1	n/a	n/a	n/a	3	19	7	5	7
413.366	n/a	PROB	206683	n/a	LTP236	ltpFR2	1	n/a	n/a	n/a	3	12	1	5	6
415.734	n/a	PROB	207867	n/a	LTP236	ltpFR2	1	n/a	n/a	n/a	3	14	9	2	3
416.882	n/a	STOP	208441	n/a	LTP236	ltpFR2	1	n/a	n/a	n/a	3	n/a	n/a	n/a	n/a
419.904	n/a	REC_START	209952	n/a	LTP236	ltpFR2	1	1	n/a	n/a	n/a	n/a	0	0	0
420.484	n/a	REC_WORD	210242	wordpools/wasnorm_wordpool_576.txt	LTP236	ltpFR2	1	1	STREAM	1392	n/a	n/a	0	0	0
421.514	n/a	REC_WORD	210757	wordpools/wasnorm_wordpool_576.txt	LTP236	ltpFR2	1	1	EGYPT	519	n/a	n/a	0	0	0
422.306	n/a	REC_WORD	211153	wordpools/wasnorm_wordpool_576.txt	LTP236	ltpFR2	1	1	COLONEL	348	n/a	n/a	0	0	0
423.5	n/a	REC_WORD	211750	wordpools/wasnorm_wordpool_576.txt	LTP236	ltpFR2	1	1	GUARD	667	n/a	n/a	0	0	0
425.42	n/a	REC_WORD	212710	wordpools/wasnorm_wordpool_576.txt	LTP236	ltpFR2	1	1	TRENCH	1503	n/a	n/a	0	0	0
426.992	n/a	REC_WORD	213496	wordpools/wasnorm_wordpool_576.txt	LTP236	ltpFR2	1	1	FOX	598	n/a	n/a	0	0	0
427.868	n/a	REC_WORD	213934	wordpools/wasnorm_wordpool_576.txt	LTP236	ltpFR2	1	1	OX	994	n/a	n/a	0	0	0
428.996	n/a	REC_WORD	214498	wordpools/wasnorm_wordpool_576.txt	LTP236	ltpFR2	1	1	STAR	1373	n/a	n/a	0	0	0
430.216	n/a	REC_WORD	215108	wordpools/wasnorm_wordpool_576.txt	LTP236	ltpFR2	1	1	COMET	353	n/a	n/a	0	0	0
431.184	n/a	REC_WORD	215592	wordpools/wasnorm_wordpool_576.txt	LTP236	ltpFR2	1	1	SUBWAY	1400	n/a	n/a	0	0	0
433.686	n/a	REC_WORD	216843	wordpools/wasnorm_wordpool_576.txt	LTP236	ltpFR2	1	1	CEILING	265	n/a	n/a	0	0	0
434.778	n/a	REC_WORD	217389	wordpools/wasnorm_wordpool_576.txt	LTP236	ltpFR2	1	1	GLASS	639	n/a	n/a	0	0	0
435.69	n/a	REC_WORD	217845	wordpools/wasnorm_wordpool_576.txt	LTP236	ltpFR2	1	1	WINDOW	1611	n/a	n/a	0	0	0
438.026	n/a	REC_WORD	219013	wordpools/wasnorm_wordpool_576.txt	LTP236	ltpFR2	1	1	CRAYON	401	n/a	n/a	0	0	0
439.672	n/a	REC_WORD	219836	wordpools/wasnorm_wordpool_576.txt	LTP236	ltpFR2	1	1	MARKER	870	n/a	n/a	0	0	0
440.548	n/a	REC_WORD	220274	wordpools/wasnorm_wordpool_576.txt	LTP236	ltpFR2	1	1	PAPER	1011	n/a	n/a	0	0	0
443.788	n/a	REC_WORD	221894	wordpools/wasnorm_wordpool_576.txt	LTP236	ltpFR2	1	1	BRIEFCASE	175	n/a	n/a	0	0	0
453.996	n/a	REC_WORD	226998	wordpools/wasnorm_wordpool_576.txt	LTP236	ltpFR2	1	1	IGLOO	734	n/a	n/a	0	0	0
510.326	n/a	DISTRACTOR	255163	n/a	LTP236	ltpFR2	1	2	n/a	n/a	n/a	n/a	0	0	0
510.326	n/a	START	255163	n/a	LTP236	ltpFR2	1	n/a	n/a	n/a	4	n/a	n/a	n/a	n/a
510.34	n/a	PROB	255170	n/a	LTP236	ltpFR2	1	n/a	n/a	n/a	4	11	3	4	4
512.21	n/a	PROB	256105	n/a	LTP236	ltpFR2	1	n/a	n/a	n/a	4	10	5	2	3
513.378	n/a	PROB	256689	n/a	LTP236	ltpFR2	1	n/a	n/a	n/a	4	19	5	5	7
514.644	n/a	PROB	257322	n/a	LTP236	ltpFR2	1	n/a	n/a	n/a	4	16	2	7	7
517.232	n/a	PROB	258616	n/a	LTP236	ltpFR2	1	n/a	n/a	n/a	4	13	7	1	5
518.416	n/a	PROB	259208	n/a	LTP236	ltpFR2	1	n/a	n/a	n/a	4	16	8	5	3
519.718	n/a	PROB	259859	n/a	LTP236	ltpFR2	1	n/a	n/a	n/a	4	17	3	6	8
521.284	n/a	PROB	260642	n/a	LTP236	ltpFR2	1	n/a	n/a	n/a	4	18	9	7	2
522.6	n/a	PROB	261300	n/a	LTP236	ltpFR2	1	n/a	n/a	n/a	4	19	7	6	6
524.238	n/a	PROB	262119	n/a	LTP236	ltpFR2	1	n/a	n/a	n/a	4	16	3	5	8
525.42	n/a	PROB	262710	n/a	LTP236	ltpFR2	1	n/a	n/a	n/a	4	19	8	3	8
526.654	n/a	PROB	263327	n/a	LTP236	ltpFR2	1	n/a	n/a	n/a	4	15	5	7	3
527.882	n/a	PROB	263941	n/a	LTP236	ltpFR2	1	n/a	n/a	n/a	4	17	4	6	7
529.324	n/a	PROB	264662	n/a	LTP236	ltpFR2	1	n/a	n/a	n/a	4	14	5	1	8
530.44	n/a	PROB	265220	n/a	LTP236	ltpFR2	1	n/a	n/a	n/a	4	14	3	5	6
531.64	n/a	PROB	265820	n/a	LTP236	ltpFR2	1	n/a	n/a	n/a	4	12	2	2	8
532.778	n/a	PROB	266389	n/a	LTP236	ltpFR2	1	n/a	n/a	n/a	4	17	4	6	7
533.894	n/a	STOP	266947	n/a	LTP236	ltpFR2	1	n/a	n/a	n/a	4	n/a	n/a	n/a	n/a
535.548	n/a	WORD	267774	wordpools/wasnorm_wordpool_576.txt	LTP236	ltpFR2	1	2	MATCH	878	n/a	n/a	0	0	0
538.258	n/a	WORD	269129	wordpools/wasnorm_wordpool_576.txt	LTP236	ltpFR2	1	2	CELLAR	267	n/a	n/a	0	0	0
540.884	n/a	WORD	270442	wordpools/wasnorm_wordpool_576.txt	LTP236	ltpFR2	1	2	SHELTER	1282	n/a	n/a	0	0	0
543.596	n/a	WORD	271798	wordpools/wasnorm_wordpool_576.txt	LTP236	ltpFR2	1	2	AGENT	10	n/a	n/a	0	0	0
546.384	n/a	WORD	273192	wordpools/wasnorm_wordpool_576.txt	LTP236	ltpFR2	1	2	RAZOR	1171	n/a	n/a	0	0	0
549.118	n/a	WORD	274559	wordpools/wasnorm_wordpool_576.txt	LTP236	ltpFR2	1	2	CLOTHES	327	n/a	n/a	0	0	0
551.722	n/a	WORD	275861	wordpools/wasnorm_wordpool_576.txt	LTP236	ltpFR2	1	2	DIME	466	n/a	n/a	0	0	0
554.49	n/a	WORD	277245	wordpools/wasnorm_wordpool_576.txt	LTP236	ltpFR2	1	2	FOREST	593	n/a	n/a	0	0	0
557.046	n/a	WORD	278523	wordpools/wasnorm_wordpool_576.txt	LTP236	ltpFR2	1	2	DUSTPAN	509	n/a	n/a	0	0	0
559.66	n/a	WORD	279830	wordpools/wasnorm_wordpool_576.txt	LTP236	ltpFR2	1	2	BADGE	68	n/a	n/a	0	0	0
562.13	n/a	WORD	281065	wordpools/wasnorm_wordpool_576.txt	LTP236	ltpFR2	1	2	PARROT	1015	n/a	n/a	0	0	0
564.632	n/a	WORD	282316	wordpools/wasnorm_wordpool_576.txt	LTP236	ltpFR2	1	2	PADDLE	1000	n/a	n/a	0	0	0
567.268	n/a	WORD	283634	wordpools/wasnorm_wordpool_576.txt	LTP236	ltpFR2	1	2	YACHT	1629	n/a	n/a	0	0	0
569.77	n/a	WORD	284885	wordpools/wasnorm_wordpool_576.txt	LTP236	ltpFR2	1	2	GHETTO	633	n/a	n/a	0	0	0
572.238	n/a	WORD	286119	wordpools/wasnorm_wordpool_576.txt	LTP236	ltpFR2	1	2	EXPERT	543	n/a	n/a	0	0	0
575.058	n/a	WORD	287529	wordpools/wasnorm_wordpool_576.txt	LTP236	ltpFR2	1	2	BINDER	127	n/a	n/a	0	0	0
577.712	n/a	WORD	288856	wordpools/wasnorm_wordpool_576.txt	LTP236	ltpFR2	1	2	STAPLE	1371	n/a	n/a	0	0	0
580.248	n/a	WORD	290124	wordpools/wasnorm_wordpool_576.txt	LTP236	ltpFR2	1	2	QUAIL	1147	n/a	n/a	0	0	0
582.818	n/a	WORD	291409	wordpools/wasnorm_wordpool_576.txt	LTP236	ltpFR2	1	2	APRON	35	n/a	n/a	0	0	0
585.25	n/a	WORD	292625	wordpools/wasnorm_wordpool_576.txt	LTP236	ltpFR2	1	2	BUREAU	199	n/a	n/a	0	0	0
587.822	n/a	WORD	293911	wordpools/wasnorm_wordpool_576.txt	LTP236	ltpFR2	1	2	DENTIST	447	n/a	n/a	0	0	0
590.354	n/a	WORD	295177	wordpools/wasnorm_wordpool_576.txt	LTP236	ltpFR2	1	2	MESSAGE	888	n/a	n/a	0	0	0
593.108	n/a	WORD	296554	wordpools/wasnorm_wordpool_576.txt	LTP236	ltpFR2	1	2	BANQUET	86	n/a	n/a	0	0	0
595.676	n/a	WORD	297838	wordpools/wasnorm_wordpool_576.txt	LTP236	ltpFR2	1	2	SNAKE	1333	n/a	n/a	0	0	0
597.294	n/a	START	298647	n/a	LTP236	ltpFR2	1	n/a	n/a	n/a	5	n/a	n/a	n/a	n/a
598.212	n/a	DISTRACTOR	299106	n/a	LTP236	ltpFR2	1	2	n/a	n/a	n/a	n/a	0	0	0
598.228	n/a	PROB	299114	n/a	LTP236	ltpFR2	1	n/a	n/a	n/a	5	18	9	6	3
600.678	n/a	PROB	300339	n/a	LTP236	ltpFR2	1	n/a	n/a	n/a	5	9	5	3	1
602.05	n/a	PROB	301025	n/a	LTP236	ltpFR2	1	n/a	n/a	n/a	5	21	9	3	9
604.168	n/a	PROB	302084	n/a	LTP236	ltpFR2	1	n/a	n/a	n/a	5	10	1	6	3
605.334	n/a	PROB	302667	n/a	LTP236	ltpFR2	1	n/a	n/a	n/a	5	10	1	5	4
606.466	n/a	PROB	303233	n/a	LTP236	ltpFR2	1	n/a	n/a	n/a	5	14	5	2	7
608.154	n/a	PROB	304077	n/a	LTP236	ltpFR2	1	n/a	n/a	n/a	5	13	5	7	1
609.304	n/a	PROB	304652	n/a	LTP236	ltpFR2	1	n/a	n/a	n/a	5	16	7	7	2
610.538	n/a	PROB	305269	n/a	LTP236	ltpFR2	1	n/a	n/a	n/a	5	15	4	4	7
613.24	n/a	PROB	306620	n/a	LTP236	ltpFR2	1	n/a	n/a	n/a	5	21	6	9	6
615.16	n/a	PROB	307580	n/a	LTP236	ltpFR2	1	n/a	n/a	n/a	5	20	9	7	4
616.644	n/a	PROB	308322	n/a	LTP236	ltpFR2	1	n/a	n/a	n/a	5	9	2	4	3
618.012	n/a	PROB	309006	n/a	LTP236	ltpFR2	1	n/a	n/a	n/a	5	14	4	1	9
619.712	n/a	PROB	309856	n/a	LTP236	ltpFR2	1	n/a	n/a	n/a	5	11	4	1	6
621.032	n/a	STOP	310516	n/a	LTP236	ltpFR2	1	n/a	n/a	n/a	5	n/a	n/a	n/a	n/a
623.23	n/a	REC_START	311615	n/a	LTP236	ltpFR2	1	2	n/a	n/a	n/a	n/a	0	0	0
624.262	n/a	REC_WORD	312131	wordpools/wasnorm_wordpool_576.txt	LTP236	ltpFR2	1	2	MATCH	878	n/a	n/a	0	0	0
625.426	n/a	REC_WORD	312713	wordpools/wasnorm_wordpool_576.txt	LTP236	ltpFR2	1	2	AGENT	10	n/a	n/a	0	0	0
627.688	n/a	REC_WORD	313844	wordpools/wasnorm_wordpool_576.txt	LTP236	ltpFR2	1	2	BANQUET	86	n/a	n/a	0	0	0
632.104	n/a	REC_WORD	316052	wordpools/wasnorm_wordpool_576.txt	LTP236	ltpFR2	1	2	SALE	-1	n/a	n/a	0	0	0
633.33	n/a	REC_WORD	316665	wordpools/wasnorm_wordpool_576.txt	LTP236	ltpFR2	1	2	DENTIST	447	n/a	n/a	0	0	0
634.596	n/a	REC_WORD	317298	wordpools/wasnorm_wordpool_576.txt	LTP236	ltpFR2	1	2	BUREAU	199	n/a	n/a	0	0	0
638.652	n/a	REC_WORD	319326	wordpools/wasnorm_wordpool_576.txt	LTP236	ltpFR2	1	2	BADGE	68	n/a	n/a	0	0	0
646.154	n/a	REC_WORD	323077	wordpools/wasnorm_wordpool_576.txt	LTP236	ltpFR2	1	2	FOREST	593	n/a	n/a	0	0	0
653.202	n/a	REC_WORD	326601	wordpools/wasnorm_wordpool_576.txt	LTP236	ltpFR2	1	2	PARROT	1015	n/a	n/a	0	0	0
713.672	n/a	DISTRACTOR	356836	n/a	LTP236	ltpFR2	1	3	n/a	n/a	n/a	n/a	0	0	0
713.672	n/a	START	356836	n/a	LTP236	ltpFR2	1	n/a	n/a	n/a	6	n/a	n/a	n/a	n/a
713.686	n/a	PROB	356843	n/a	LTP236	ltpFR2	1	n/a	n/a	n/a	6	12	1	7	4
715.638	n/a	PROB	357819	n/a	LTP236	ltpFR2	1	n/a	n/a	n/a	6	14	3	2	9
717.974	n/a	PROB	358987	n/a	LTP236	ltpFR2	1	n/a	n/a	n/a	6	22	9	4	9
719.826	n/a	PROB	359913	n/a	LTP236	ltpFR2	1	n/a	n/a	n/a	6	11	5	4	2
720.926	n/a	PROB	360463	n/a	LTP236	ltpFR2	1	n/a	n/a	n/a	6	12	7	4	1
722.026	n/a	PROB	361013	n/a	LTP236	ltpFR2	1	n/a	n/a	n/a	6	26	8	9	9
725.762	n/a	PROB	362881	n/a	LTP236	ltpFR2	1	n/a	n/a	n/a	6	13	2	3	8
727.016	n/a	PROB	363508	n/a	LTP236	ltpFR2	1	n/a	n/a	n/a	6	10	2	1	7
728.214	n/a	PROB	364107	n/a	LTP236	ltpFR2	1	n/a	n/a	n/a	6	15	4	4	7
730.466	n/a	PROB	365233	n/a	LTP236	ltpFR2	1	n/a	n/a	n/a	6	17	8	3	6
731.85	n/a	PROB	365925	n/a	LTP236	ltpFR2	1	n/a	n/a	n/a	6	13	2	7	4
733.052	n/a	PROB	366526	n/a	LTP236	ltpFR2	1	n/a	n/a	n/a	6	8	3	3	2
734.17	n/a	PROB	367085	n/a	LTP236	ltpFR2	1	n/a	n/a	n/a	6	18	9	1	8
735.304	n/a	PROB	367652	n/a	LTP236	ltpFR2	1	n/a	n/a	n/a	6	20	6	9	5
737.012	n/a	STOP	368506	n/a	LTP236	ltpFR2	1	n/a	n/a	n/a	6	n/a	n/a	n/a	n/a
738.514	n/a	WORD	369257	wordpools/wasnorm_wordpool_576.txt	LTP236	ltpFR2	1	3	PLIERS	1089	n/a	n/a	0	0	0
741.21	n/a	WORD	370605	wordpools/wasnorm_wordpool_576.txt	LTP236	ltpFR2	1	3	EYELASH	546	n/a	n/a	0	0	0
743.946	n/a	WORD	371973	wordpools/wasnorm_wordpool_576.txt	LTP236	ltpFR2	1	3	DUST	508	n/a	n/a	0	0	0
746.672	n/a	WORD	373336	wordpools/wasnorm_wordpool_576.txt	LTP236	ltpFR2	1	3	TAXI	1438	n/a	n/a	0	0	0
749.458	n/a	WORD	374729	wordpools/wasnorm_wordpool_576.txt	LTP236	ltpFR2	1	3	BIKE	125	n/a	n/a	0	0	0
751.986	n/a	WORD	375993	wordpools/wasnorm_wordpool_576.txt	LTP236	ltpFR2	1	3	BLENDER	136	n/a	n/a	0	0	0
754.662	n/a	WORD	377331	wordpools/wasnorm_wordpool_576.txt	LTP236	ltpFR2	1	3	FARMER	553	n/a	n/a	0	0	0
757.456	n/a	WORD	378728	wordpools/wasnorm_wordpool_576.txt	LTP236	ltpFR2	1	3	LODGE	839	n/a	n/a	0	0	0
760.016	n/a	WORD	380008	wordpools/wasnorm_wordpool_576.txt	LTP236	ltpFR2	1	3	TILE	1468	n/a	n/a	0	0	0
762.676	n/a	WORD	381338	wordpools/wasnorm_wordpool_576.txt	LTP236	ltpFR2	1	3	LUNCH	849	n/a	n/a	0	0	0
765.204	n/a	WORD	382602	wordpools/wasnorm_wordpool_576.txt	LTP236	ltpFR2	1	3	BRANCH	168	n/a	n/a	0	0	0
767.924	n/a	WORD	383962	wordpools/wasnorm_wordpool_576.txt	LTP236	ltpFR2	1	3	MAPLE	866	n/a	n/a	0	0	0
770.624	n/a	WORD	385312	wordpools/wasnorm_wordpool_576.txt	LTP236	ltpFR2	1	3	JELLO	754	n/a	n/a	0	0	0
773.32	n/a	WORD	386660	wordpools/wasnorm_wordpool_576.txt	LTP236	ltpFR2	1	3	BISON	131	n/a	n/a	0	0	0
776.048	n/a	WORD	388024	wordpools/wasnorm_wordpool_576.txt	LTP236	ltpFR2	1	3	RUG	1215	n/a	n/a	0	0	0
778.684	n/a	WORD	389342	wordpools/wasnorm_wordpool_576.txt	LTP236	ltpFR2	1	3	INFANT	737	n/a	n/a	0	0	0
781.252	n/a	WORD	390626	wordpools/wasnorm_wordpool_576.txt	LTP236	ltpFR2	1	3	CRIB	407	n/a	n/a	0	0	0
783.972	n/a	WORD	391986	wordpools/wasnorm_wordpool_576.txt	LTP236	ltpFR2	1	3	TRACTOR	1493	n/a	n/a	0	0	0
786.524	n/a	WORD	393262	wordpools/wasnorm_wordpool_576.txt	LTP236	ltpFR2	1	3	COSTUME	383	n/a	n/a	0	0	0
789.064	n/a	WORD	394532	wordpools/wasnorm_wordpool_576.txt	LTP236	ltpFR2	1	3	BOARD	143	n/a	n/a	0	0	0
791.494	n/a	WORD	395747	wordpools/wasnorm_wordpool_576.txt	LTP236	ltpFR2	1	3	STAKE	1368	n/a	n/a	0	0	0
793.912	n/a	WORD	396956	wordpools/wasnorm_wordpool_576.txt	LTP236	ltpFR2	1	3	PUDDLE	1140	n/a	n/a	0	0	0
796.63	n/a	WORD	398315	wordpools/wasnorm_wordpool_576.txt	LTP236	ltpFR2	1	3	BUG	187	n/a	n/a	0	0	0
799.234	n/a	WORD	399617	wordpools/wasnorm_wordpool_576.txt	LTP236	ltpFR2	1	3	LIVER	833	n/a	n/a	0	0	0
800.84	n/a	START	400420	n/a	LTP236	ltpFR2	1	n/a	n/a	n/a	7	n/a	n/a	n/a	n/a
801.784	n/a	DISTRACTOR	400892	n/a	LTP236	ltpFR2	1	3	n/a	n/a	n/a	n/a	0	0	0
801.79	n/a	PROB	400895	n/a	LTP236	ltpFR2	1	n/a	n/a	n/a	7	13	5	2	6
804.174	n/a	PROB	402087	n/a	LTP236	ltpFR2	1	n/a	n/a	n/a	7	15	5	7	3
805.958	n/a	PROB	402979	n/a	LTP236	ltpFR2	1	n/a	n/a	n/a	7	11	2	5	4
807.638	n/a	PROB	403819	n/a	LTP236	ltpFR2	1	n/a	n/a	n/a	7	18	7	9	2
808.976	n/a	PROB	404488	n/a	LTP236	ltpFR2	1	n/a	n/a	n/a	7	12	2	3	7
810.596	n/a	PROB	405298	n/a	LTP236	ltpFR2	1	n/a	n/a	n/a	7	18	3	8	7
813.766	n/a	PROB	406883	n/a	LTP236	ltpFR2	1	n/a	n/a	n/a	7	15	8	2	5
815.166	n/a	PROB	407583	n/a	LTP236	ltpFR2	1	n/a	n/a	n/a	7	9	3	5	1
816.266	n/a	PROB	408133	n/a	LTP236	ltpFR2	1	n/a	n/a	n/a	7	13	2	7	4
817.468	n/a	PROB	408734	n/a	LTP236	ltpFR2	1	n/a	n/a	n/a	7	21	9	9	3
818.788	n/a	PROB	409394	n/a	LTP236	ltpFR2	1	n/a	n/a	n/a	7	11	4	3	4
819.97	n/a	PROB	409985	n/a	LTP236	ltpFR2	1	n/a	n/a	n/a	7	26	2	9	8
821.454	n/a	PROB	410727	n/a	LTP236	ltpFR2	1	n/a	n/a	n/a	7	20	4	8	8
823.982	n/a	STOP	411991	n/a	LTP236	ltpFR2	1	n/a	n/a	n/a	7	n/a	n/a	n/a	n/a
826.744	n/a	REC_START	413372	n/a	LTP236	ltpFR2	1	3	n/a	n/a	n/a	n/a	0	0	0
827.82	n/a	REC_WORD	413910	wordpools/wasnorm_wordpool_576.txt	LTP236	ltpFR2	1	3	PLIERS	1089	n/a	n/a	0	0	0
828.864	n/a	REC_WORD	414432	wordpools/wasnorm_wordpool_576.txt	LTP236	ltpFR2	1	3	EYELASH	546	n/a	n/a	0	0	0
829.904	n/a	REC_WORD	414952	wordpools/wasnorm_wordpool_576.txt	LTP236	ltpFR2	1	3	DUST	508	n/a	n/a	0	0	0
831.476	n/a	REC_WORD	415738	wordpools/wasnorm_wordpool_576.txt	LTP236	ltpFR2	1	3	TAXI	1438	n/a	n/a	0	0	0
833.588	n/a	REC_WORD	416794	wordpools/wasnorm_wordpool_576.txt	LTP236	ltpFR2	1	3	BIKE	125	n/a	n/a	0	0	0
835.48	n/a	REC_WORD	417740	wordpools/wasnorm_wordpool_576.txt	LTP236	ltpFR2	1	3	FARMER	553	n/a	n/a	0	0	0
837.324	n/a	REC_WORD	418662	wordpools/wasnorm_wordpool_576.txt	LTP236	ltpFR2	1	3	TRACTOR	1493	n/a	n/a	0	0	0
839.108	n/a	REC_WORD	419554	wordpools/wasnorm_wordpool_576.txt	LTP236	ltpFR2	1	3	BISON	131	n/a	n/a	0	0	0
841.156	n/a	REC_WORD	420578	wordpools/wasnorm_wordpool_576.txt	LTP236	ltpFR2	1	3	RUG	1215	n/a	n/a	0	0	0
843.372	n/a	REC_WORD	421686	wordpools/wasnorm_wordpool_576.txt	LTP236	ltpFR2	1	3	TILE	1468	n/a	n/a	0	0	0
847.878	n/a	REC_WORD	423939	wordpools/wasnorm_wordpool_576.txt	LTP236	ltpFR2	1	3	JELLO	754	n/a	n/a	0	0	0
853.746	n/a	REC_WORD	426873	wordpools/wasnorm_wordpool_576.txt	LTP236	ltpFR2	1	3	LUNCH	849	n/a	n/a	0	0	0
860.472	n/a	REC_WORD	430236	wordpools/wasnorm_wordpool_576.txt	LTP236	ltpFR2	1	3	PUDDLE	1140	n/a	n/a	0	0	0
861.942	n/a	REC_WORD	430971	wordpools/wasnorm_wordpool_576.txt	LTP236	ltpFR2	1	3	BOARD	143	n/a	n/a	0	0	0
878.462	n/a	REC_WORD	439231	wordpools/wasnorm_wordpool_576.txt	LTP236	ltpFR2	1	3	LIVER	833	n/a	n/a	0	0	0
917.216	n/a	WORD	458608	wordpools/wasnorm_wordpool_576.txt	LTP236	ltpFR2	1	4	BATHTUB	100	n/a	n/a	0	0	0
919.954	n/a	WORD	459977	wordpools/wasnorm_wordpool_576.txt	LTP236	ltpFR2	1	4	MATTRESS	879	n/a	n/a	0	0	0
922.67	n/a	WORD	461335	wordpools/wasnorm_wordpool_576.txt	LTP236	ltpFR2	1	4	SURVEY	1414	n/a	n/a	0	0	0
925.44	n/a	WORD	462720	wordpools/wasnorm_wordpool_576.txt	LTP236	ltpFR2	1	4	TURKEY	1520	n/a	n/a	0	0	0
927.992	n/a	WORD	463996	wordpools/wasnorm_wordpool_576.txt	LTP236	ltpFR2	1	4	LONDON	843	n/a	n/a	0	0	0
930.444	n/a	WORD	465222	wordpools/wasnorm_wordpool_576.txt	LTP236	ltpFR2	1	4	ICING	732	n/a	n/a	0	0	0
932.966	n/a	WORD	466483	wordpools/wasnorm_wordpool_576.txt	LTP236	ltpFR2	1	4	SHORTCAKE	1292	n/a	n/a	0	0	0
935.682	n/a	WORD	467841	wordpools/wasnorm_wordpool_576.txt	LTP236	ltpFR2	1	4	SPHINX	1349	n/a	n/a	0	0	0
938.334	n/a	WORD	469167	wordpools/wasnorm_wordpool_576.txt	LTP236	ltpFR2	1	4	SLUG	1329	n/a	n/a	0	0	0
941.034	n/a	WORD	470517	wordpools/wasnorm_wordpool_576.txt	LTP236	ltpFR2	1	4	OUTFIT	988	n/a	n/a	0	0	0
943.544	n/a	WORD	471772	wordpools/wasnorm_wordpool_576.txt	LTP236	ltpFR2	1	4	GROUND	666	n/a	n/a	0	0	0
946.272	n/a	WORD	473136	wordpools/wasnorm_wordpool_576.txt	LTP236	ltpFR2	1	4	OINTMENT	974	n/a	n/a	0	0	0
948.998	n/a	WORD	474499	wordpools/wasnorm_wordpool_576.txt	LTP236	ltpFR2	1	4	WHISKERS	1605	n/a	n/a	0	0	0
951.692	n/a	WORD	475846	wordpools/wasnorm_wordpool_576.txt	LTP236	ltpFR2	1	4	MUMMY	932	n/a	n/a	0	0	0
954.378	n/a	WORD	477189	wordpools/wasnorm_wordpool_576.txt	LTP236	ltpFR2	1	4	UNCLE	1536	n/a	n/a	0	0	0
956.948	n/a	WORD	478474	wordpools/wasnorm_wordpool_576.txt	LTP236	ltpFR2	1	4	FLASHLIGHT	575	n/a	n/a	0	0	0
959.598	n/a	WORD	479799	wordpools/wasnorm_wordpool_576.txt	LTP236	ltpFR2	1	4	DRESS	495	n/a	n/a	0	0	0
962.284	n/a	WORD	481142	wordpools/wasnorm_wordpool_576.txt	LTP236	ltpFR2	1	4	SKIRT	1319	n/a	n/a	0	0	0
964.928	n/a	WORD	482464	wordpools/wasnorm_wordpool_576.txt	LTP236	ltpFR2	1	4	MARSH	874	n/a	n/a	0	0	0
967.522	n/a	WORD	483761	wordpools/wasnorm_wordpool_576.txt	LTP236	ltpFR2	1	4	SWITCH	1422	n/a	n/a	0	0	0
970.116	n/a	WORD	485058	wordpools/wasnorm_wordpool_576.txt	LTP236	ltpFR2	1	4	LUGGAGE	847	n/a	n/a	0	0	0
972.802	n/a	WORD	486401	wordpools/wasnorm_wordpool_576.txt	LTP236	ltpFR2	1	4	SCARF	1246	n/a	n/a	0	0	0
975.578	n/a	WORD	487789	wordpools/wasnorm_wordpool_576.txt	LTP236	ltpFR2	1	4	SALAD	1224	n/a	n/a	0	0	0
978.214	n/a	WORD	489107	wordpools/wasnorm_wordpool_576.txt	LTP236	ltpFR2	1	4	GOBLIN	645	n/a	n/a	0	0	0
979.824	n/a	START	489912	n/a	LTP236	ltpFR2	1	n/a	n/a	n/a	8	n/a	n/a	n/a	n/a
980.692	n/a	DISTRACTOR	490346	n/a	LTP236	ltpFR2	1	4	n/a	n/a	n/a	n/a	0	0	0
980.7	n/a	PROB	490350	n/a	LTP236	ltpFR2	1	n/a	n/a	n/a	8	11	2	3	6
983.582	n/a	PROB	491791	n/a	LTP236	ltpFR2	1	n/a	n/a	n/a	8	23	7	8	8
986.968	n/a	PROB	493484	n/a	LTP236	ltpFR2	1	n/a	n/a	n/a	8	12	5	5	2
988.054	n/a	PROB	494027	n/a	LTP236	ltpFR2	1	n/a	n/a	n/a	8	20	5	6	9
990.674	n/a	PROB	495337	n/a	LTP236	ltpFR2	1	n/a	n/a	n/a	8	8	6	1	1
991.858	n/a	PROB	495929	n/a	LTP236	ltpFR2	1	n/a	n/a	n/a	8	20	9	9	2
994.276	n/a	PROB	497138	n/a	LTP236	ltpFR2	1	n/a	n/a	n/a	8	22	9	9	4
995.71	n/a	PROB	497855	n/a	LTP236	ltpFR2	1	n/a	n/a	n/a	8	19	9	5	5
997.16	n/a	PROB	498580	n/a	LTP236	ltpFR2	1	n/a	n/a	n/a	8	5	2	1	2
998.444	n/a	PROB	499222	n/a	LTP236	ltpFR2	1	n/a	n/a	n/a	8	13	1	9	3
999.512	n/a	PROB	499756	n/a	LTP236	ltpFR2	1	n/a	n/a	n/a	8	13	4	7	2
1000.58	n/a	PROB	500290	n/a	LTP236	ltpFR2	1	n/a	n/a	n/a	8	12	2	2	8
1001.648	n/a	PROB	500824	n/a	LTP236	ltpFR2	1	n/a	n/a	n/a	8	13	3	1	9
1002.836	n/a	STOP	501418	n/a	LTP236	ltpFR2	1	n/a	n/a	n/a	8	n/a	n/a	n/a	n/a
1005.584	n/a	REC_START	502792	n/a	LTP236	ltpFR2	1	4	n/a	n/a	n/a	n/a	0	0	0
1006.644	n/a	REC_WORD	503322	wordpools/wasnorm_wordpool_576.txt	LTP236	ltpFR2	1	4	GOBLIN	645	n/a	n/a	0	0	0
1009.606	n/a	REC_WORD	504803	wordpools/wasnorm_wordpool_576.txt	LTP236	ltpFR2	1	4	WHISKERS	1605	n/a	n/a	0	0	0
1012.688	n/a	REC_WORD	506344	wordpools/wasnorm_wordpool_576.txt	LTP236	ltpFR2	1	4	UNCLE	1536	n/a	n/a	0	0	0
1014.468	n/a	REC_WORD	507234	wordpools/wasnorm_wordpool_576.txt	LTP236	ltpFR2	1	4	GROUND	666	n/a	n/a	0	0	0
1015.886	n/a	REC_WORD	507943	wordpools/wasnorm_wordpool_576.txt	LTP236	ltpFR2	1	4	LUGGAGE	847	n/a	n/a	0	0	0
1017.622	n/a	REC_WORD	508811	wordpools/wasnorm_wordpool_576.txt	LTP236	ltpFR2	1	4	SCARF	1246	n/a	n/a	0	0	0
1018.49	n/a	REC_WORD	509245	wordpools/wasnorm_wordpool_576.txt	LTP236	ltpFR2	1	4	SKIRT	1319	n/a	n/a	0	0	0
1019.546	n/a	REC_WORD	509773	wordpools/wasnorm_wordpool_576.txt	LTP236	ltpFR2	1	4	DRESS	495	n/a	n/a	0	0	0
1020.418	n/a	REC_WORD	510209	wordpools/wasnorm_wordpool_576.txt	LTP236	ltpFR2	1	4	OUTFIT	988	n/a	n/a	0	0	0
1021.312	n/a	REC_WORD	510656	wordpools/wasnorm_wordpool_576.txt	LTP236	ltpFR2	1	4	SLUG	1329	n/a	n/a	0	0	0
1022.408	n/a	REC_WORD	511204	wordpools/wasnorm_wordpool_576.txt	LTP236	ltpFR2	1	4	OINTMENT	974	n/a	n/a	0	0	0
1023.462	n/a	REC_WORD	511731	wordpools/wasnorm_wordpool_576.txt	LTP236	ltpFR2	1	4	SALAD	1224	n/a	n/a	0	0	0
1024.524	n/a	REC_WORD	512262	wordpools/wasnorm_wordpool_576.txt	LTP236	ltpFR2	1	4	TURKEY	1520	n/a	n/a	0	0	0
1026.19	n/a	REC_WORD	513095	wordpools/wasnorm_wordpool_576.txt	LTP236	ltpFR2	1	4	ICING	732	n/a	n/a	0	0	0
1027.0	n/a	REC_WORD	513500	wordpools/wasnorm_wordpool_576.txt	LTP236	ltpFR2	1	4	SHORTCAKE	1292	n/a	n/a	0	0	0
1029.42	n/a	REC_WORD	514710	wordpools/wasnorm_wordpool_576.txt	LTP236	ltpFR2	1	4	LONDON	843	n/a	n/a	0	0	0
1030.676	n/a	REC_WORD	515338	wordpools/wasnorm_wordpool_576.txt	LTP236	ltpFR2	1	4	SPHINX	1349	n/a	n/a	0	0	0
1032.56	n/a	REC_WORD	516280	wordpools/wasnorm_wordpool_576.txt	LTP236	ltpFR2	1	4	MUMMY	932	n/a	n/a	0	0	0
1034.358	n/a	REC_WORD	517179	wordpools/wasnorm_wordpool_576.txt	LTP236	ltpFR2	1	4	BATHTUB	100	n/a	n/a	0	0	0
1035.456	n/a	REC_WORD	517728	wordpools/wasnorm_wordpool_576.txt	LTP236	ltpFR2	1	4	MATTRESS	879	n/a	n/a	0	0	0
1053.038	n/a	REC_WORD	526519	wordpools/wasnorm_wordpool_576.txt	LTP236	ltpFR2	1	4	FLASHLIGHT	575	n/a	n/a	0	0	0
1096.056	n/a	WORD	548028	wordpools/wasnorm_wordpool_576.txt	LTP236	ltpFR2	1	5	HEADBAND	696	n/a	n/a	0	0	0
1098.56	n/a	WORD	549280	wordpools/wasnorm_wordpool_576.txt	LTP236	ltpFR2	1	5	COD	340	n/a	n/a	0	0	0
1101.028	n/a	WORD	550514	wordpools/wasnorm_wordpool_576.txt	LTP236	ltpFR2	1	5	CABIN	211	n/a	n/a	0	0	0
1103.832	n/a	WORD	551916	wordpools/wasnorm_wordpool_576.txt	LTP236	ltpFR2	1	5	TABLET	1427	n/a	n/a	0	0	0
1106.334	n/a	WORD	553167	wordpools/wasnorm_wordpool_576.txt	LTP236	ltpFR2	1	5	CONCERT	360	n/a	n/a	0	0	0
1108.836	n/a	WORD	554418	wordpools/wasnorm_wordpool_576.txt	LTP236	ltpFR2	1	5	COLLEGE	346	n/a	n/a	0	0	0
1111.538	n/a	WORD	555769	wordpools/wasnorm_wordpool_576.txt	LTP236	ltpFR2	1	5	ARMY	39	n/a	n/a	0	0	0
1114.19	n/a	WORD	557095	wordpools/wasnorm_wordpool_576.txt	LTP236	ltpFR2	1	5	AUTHOR	61	n/a	n/a	0	0	0
1116.908	n/a	WORD	558454	wordpools/wasnorm_wordpool_576.txt	LTP236	ltpFR2	1	5	SLOPE	1328	n/a	n/a	0	0	0
1119.376	n/a	WORD	559688	wordpools/wasnorm_wordpool_576.txt	LTP236	ltpFR2	1	5	FRAME	600	n/a	n/a	0	0	0
1121.828	n/a	WORD	560914	wordpools/wasnorm_wordpool_576.txt	LTP236	ltpFR2	1	5	PEDAL	1037	n/a	n/a	0	0	0
1124.296	n/a	WORD	562148	wordpools/wasnorm_wordpool_576.txt	LTP236	ltpFR2	1	5	PLATE	1086	n/a	n/a	0	0	0
1126.732	n/a	WORD	563366	wordpools/wasnorm_wordpool_576.txt	LTP236	ltpFR2	1	5	WIDOW	1608	n/a	n/a	0	0	0
1129.45	n/a	WORD	564725	wordpools/wasnorm_wordpool_576.txt	LTP236	ltpFR2	1	5	SPOUSE	1358	n/a	n/a	0	0	0
1132.106	n/a	WORD	566053	wordpools/wasnorm_wordpool_576.txt	LTP236	ltpFR2	1	5	ZEBRA	1635	n/a	n/a	0	0	0
1134.724	n/a	WORD	567362	wordpools/wasnorm_wordpool_576.txt	LTP236	ltpFR2	1	5	COWBOY	395	n/a	n/a	0	0	0
1137.424	n/a	WORD	568712	wordpools/wasnorm_wordpool_576.txt	LTP236	ltpFR2	1	5	LOVER	846	n/a	n/a	0	0	0
1139.942	n/a	WORD	569971	wordpools/wasnorm_wordpool_576.txt	LTP236	ltpFR2	1	5	CUPBOARD	425	n/a	n/a	0	0	0
1142.396	n/a	WORD	571198	wordpools/wasnorm_wordpool_576.txt	LTP236	ltpFR2	1	5	COURSE	390	n/a	n/a	0	0	0
1144.964	n/a	WORD	572482	wordpools/wasnorm_wordpool_576.txt	LTP236	ltpFR2	1	5	PAIL	1002	n/a	n/a	0	0	0
1147.532	n/a	WORD	573766	wordpools/wasnorm_wordpool_576.txt	LTP236	ltpFR2	1	5	DANCER	437	n/a	n/a	0	0	0
1150.038	n/a	WORD	575019	wordpools/wasnorm_wordpool_576.txt	LTP236	ltpFR2	1	5	TUTU	1524	n/a	n/a	0	0	0
1152.718	n/a	WORD	576359	wordpools/wasnorm_wordpool_576.txt	LTP236	ltpFR2	1	5	CASHIER	254	n/a	n/a	0	0	0
1155.388	n/a	WORD	577694	wordpools/wasnorm_wordpool_576.txt	LTP236	ltpFR2	1	5	CHAUFFEUR	283	n/a	n/a	0	0	0
1157.008	n/a	START	578504	n/a	LTP236	ltpFR2	1	n/a	n/a	n/a	9	n/a	n/a	n/a	n/a
1158.006	n/a	DISTRACTOR	579003	n/a	LTP236	ltpFR2	1	5	n/a	n/a	n/a	n/a	0	0	0
1158.024	n/a	PROB	579012	n/a	LTP236	ltpFR2	1	n/a	n/a	n/a	9	15	8	1	6
1160.256	n/a	PROB	580128	n/a	LTP236	ltpFR2	1	n/a	n/a	n/a	9	19	1	9	9
1162.508	n/a	PROB	581254	n/a	LTP236	ltpFR2	1	n/a	n/a	n/a	9	15	1	8	6
1164.01	n/a	PROB	582005	n/a	LTP236	ltpFR2	1	n/a	n/a	n/a	9	15	2	7	6
1166.096	n/a	PROB	583048	n/a	LTP236	ltpFR2	1	n/a	n/a	n/a	9	10	7	2	1
1167.532	n/a	PROB	583766	n/a	LTP236	ltpFR2	1	n/a	n/a	n/a	9	15	2	9	4
1168.93	n/a	PROB	584465	n/a	LTP236	ltpFR2	1	n/a	n/a	n/a	9	12	6	5	1
1170.016	n/a	PROB	585008	n/a	LTP236	ltpFR2	1	n/a	n/a	n/a	9	8	1	4	3
1171.516	n/a	PROB	585758	n/a	LTP236	ltpFR2	1	n/a	n/a	n/a	9	17	9	5	3
1172.966	n/a	PROB	586483	n/a	LTP236	ltpFR2	1	n/a	n/a	n/a	9	1	5	9	7
1174.852	n/a	PROB	587426	n/a	LTP236	ltpFR2	1	n/a	n/a	n/a	9	13	3	8	2
1176.252	n/a	PROB	588126	n/a	LTP236	ltpFR2	1	n/a	n/a	n/a	9	17	8	7	2
1178.154	n/a	PROB	589077	n/a	LTP236	ltpFR2	1	n/a	n/a	n/a	9	13	2	5	6
1179.632	n/a	STOP	589816	n/a	LTP236	ltpFR2	1	n/a	n/a	n/a	9	n/a	n/a	n/a	n/a
1182.792	n/a	REC_START	591396	n/a	LTP236	ltpFR2	1	5	n/a	n/a	n/a	n/a	0	0	0
1183.788	n/a	REC_WORD	591894	wordpools/wasnorm_wordpool_576.txt	LTP236	ltpFR2	1	5	DANCER	437	n/a	n/a	0	0	0
1184.812	n/a	REC_WORD	592406	wordpools/wasnorm_wordpool_576.txt	LTP236	ltpFR2	1	5	CASHIER	254	n/a	n/a	0	0	0
1186.016	n/a	REC_WORD	593008	wordpools/wasnorm_wordpool_576.txt	LTP236	ltpFR2	1	5	CHAUFFEUR	283	n/a	n/a	0	0	0
1188.076	n/a	REC_WORD	594038	wordpools/wasnorm_wordpool_576.txt	LTP236	ltpFR2	1	5	CABIN	211	n/a	n/a	0	0	0
1188.814	n/a	REC_WORD	594407	wordpools/wasnorm_wordpool_576.txt	LTP236	ltpFR2	1	5	SLOPE	1328	n/a	n/a	0	0	0
1190.054	n/a	REC_WORD	595027	wordpools/wasnorm_wordpool_576.txt	LTP236	ltpFR2	1	5	ARMY	39	n/a	n/a	0	0	0
1190.942	n/a	REC_WORD	595471	wordpools/wasnorm_wordpool_576.txt	LTP236	ltpFR2	1	5	WIDOW	1608	n/a	n/a	0	0	0
1191.888	n/a	REC_WORD	595944	wordpools/wasnorm_wordpool_576.txt	LTP236	ltpFR2	1	5	LOVER	846	n/a	n/a	0	0	0
1195.872	n/a	REC_WORD	597936	wordpools/wasnorm_wordpool_576.txt	LTP236	ltpFR2	1	5	SPOUSE	1358	n/a	n/a	0	0	0
1199.004	n/a	REC_WORD	599502	wordpools/wasnorm_wordpool_576.txt	LTP236	ltpFR2	1	5	CUPBOARD	425	n/a	n/a	0	0	0
1199.868	n/a	REC_WORD	599934	wordpools/wasnorm_wordpool_576.txt	LTP236	ltpFR2	1	5	PLATE	1086	n/a	n/a	0	0	0
1201.082	n/a	REC_WORD	600541	wordpools/wasnorm_wordpool_576.txt	LTP236	ltpFR2	1	5	COD	340	n/a	n/a	0	0	0
1202.054	n/a	REC_WORD	601027	wordpools/wasnorm_wordpool_576.txt	LTP236	ltpFR2	1	5	HEADBAND	696	n/a	n/a	0	0	0
1204.664	n/a	REC_WORD	602332	wordpools/wasnorm_wordpool_576.txt	LTP236	ltpFR2	1	5	COLLEGE	346	n/a	n/a	0	0	0
1206.972	n/a	REC_WORD	603486	wordpools/wasnorm_wordpool_576.txt	LTP236	ltpFR2	1	5	TABLET	1427	n/a	n/a	0	0	0
1207.85	n/a	REC_WORD	603925	wordpools/wasnorm_wordpool_576.txt	LTP236	ltpFR2	1	5	AUTHOR	61	n/a	n/a	0	0	0
1210.046	n/a	REC_WORD	605023	wordpools/wasnorm_wordpool_576.txt	LTP236	ltpFR2	1	5	CONCERT	360	n/a	n/a	0	0	0
1230.368	n/a	REC_WORD	615184	wordpools/wasnorm_wordpool_576.txt	LTP236	ltpFR2	1	5	FRAME	600	n/a	n/a	0	0	0
1273.216	n/a	DISTRACTOR	636608	n/a	LTP236	ltpFR2	1	6	n/a	n/a	n/a	n/a	0	0	0
1273.216	n/a	START	636608	n/a	LTP236	ltpFR2	1	n/a	n/a	n/a	10	n/a	n/a	n/a	n/a
1273.23	n/a	PROB	636615	n/a	LTP236	ltpFR2	1	n/a	n/a	n/a	10	6	2	3	1
1275.576	n/a	PROB	637788	n/a	LTP236	ltpFR2	1	n/a	n/a	n/a	10	15	2	8	5
1277.594	n/a	PROB	638797	n/a	LTP236	ltpFR2	1	n/a	n/a	n/a	10	18	5	4	9
1279.334	n/a	PROB	639667	n/a	LTP236	ltpFR2	1	n/a	n/a	n/a	10	16	8	1	7
1280.468	n/a	PROB	640234	n/a	LTP236	ltpFR2	1	n/a	n/a	n/a	10	14	3	5	6
1281.682	n/a	PROB	640841	n/a	LTP236	ltpFR2	1	n/a	n/a	n/a	10	10	4	5	1
1282.984	n/a	PROB	641492	n/a	LTP236	ltpFR2	1	n/a	n/a	n/a	10	13	7	4	2
1284.054	n/a	PROB	642027	n/a	LTP236	ltpFR2	1	n/a	n/a	n/a	10	10	6	3	1
1285.24	n/a	PROB	642620	n/a	LTP236	ltpFR2	1	n/a	n/a	n/a	10	23	9	9	5
1286.952	n/a	PROB	643476	n/a	LTP236	ltpFR2	1	n/a	n/a	n/a	10	11	3	3	5
1288.07	n/a	PROB	644035	n/a	LTP236	ltpFR2	1	n/a	n/a	n/a	10	18	7	6	5
1289.27	n/a	PROB	644635	n/a	LTP236	ltpFR2	1	n/a	n/a	n/a	10	14	4	4	6
1290.472	n/a	PROB	645236	n/a	LTP236	ltpFR2	1	n/a	n/a	n/a	10	19	5	8	6
1293.742	n/a	PROB	646871	n/a	LTP236	ltpFR2	1	n/a	n/a	n/a	10	19	2	9	8
1294.91	n/a	PROB	647455	n/a	LTP236	ltpFR2	1	n/a	n/a	n/a	10	18	3	6	9
1296.326	n/a	STOP	648163	n/a	LTP236	ltpFR2	1	n/a	n/a	n/a	10	n/a	n/a	n/a	n/a
1298.088	n/a	WORD	649044	wordpools/wasnorm_wordpool_576.txt	LTP236	ltpFR2	1	6	CARRIAGE	248	n/a	n/a	0	0	0
1300.872	n/a	WORD	650436	wordpools/wasnorm_wordpool_576.txt	LTP236	ltpFR2	1	6	PROTON	1132	n/a	n/a	0	0	0
1303.704	n/a	WORD	651852	wordpools/wasnorm_wordpool_576.txt	LTP236	ltpFR2	1	6	SADDLE	1221	n/a	n/a	0	0	0
1306.29	n/a	WORD	653145	wordpools/wasnorm_wordpool_576.txt	LTP236	ltpFR2	1	6	BACKBONE	66	n/a	n/a	0	0	0
1308.908	n/a	WORD	654454	wordpools/wasnorm_wordpool_576.txt	LTP236	ltpFR2	1	6	LUMBER	848	n/a	n/a	0	0	0
1311.494	n/a	WORD	655747	wordpools/wasnorm_wordpool_576.txt	LTP236	ltpFR2	1	6	SHIRT	1287	n/a	n/a	0	0	0
1314.146	n/a	WORD	657073	wordpools/wasnorm_wordpool_576.txt	LTP236	ltpFR2	1	6	LACE	792	n/a	n/a	0	0	0
1316.814	n/a	WORD	658407	wordpools/wasnorm_wordpool_576.txt	LTP236	ltpFR2	1	6	BANKER	84	n/a	n/a	0	0	0
1319.384	n/a	WORD	659692	wordpools/wasnorm_wordpool_576.txt	LTP236	ltpFR2	1	6	STOMACH	1384	n/a	n/a	0	0	0
1322.202	n/a	WORD	661101	wordpools/wasnorm_wordpool_576.txt	LTP236	ltpFR2	1	6	BROTHER	179	n/a	n/a	0	0	0
1324.67	n/a	WORD	662335	wordpools/wasnorm_wordpool_576.txt	LTP236	ltpFR2	1	6	FRAGRANCE	599	n/a	n/a	0	0	0
1327.39	n/a	WORD	663695	wordpools/wasnorm_wordpool_576.txt	LTP236	ltpFR2	1	6	PILOT	1070	n/a	n/a	0	0	0
1330.176	n/a	WORD	665088	wordpools/wasnorm_wordpool_576.txt	LTP236	ltpFR2	1	6	PADDING	999	n/a	n/a	0	0	0
1332.762	n/a	WORD	666381	wordpools/wasnorm_wordpool_576.txt	LTP236	ltpFR2	1	6	VELVET	1555	n/a	n/a	0	0	0
1335.414	n/a	WORD	667707	wordpools/wasnorm_wordpool_576.txt	LTP236	ltpFR2	1	6	BOUQUET	157	n/a	n/a	0	0	0
1337.95	n/a	WORD	668975	wordpools/wasnorm_wordpool_576.txt	LTP236	ltpFR2	1	6	OUTLAW	989	n/a	n/a	0	0	0
1340.468	n/a	WORD	670234	wordpools/wasnorm_wordpool_576.txt	LTP236	ltpFR2	1	6	COTTAGE	384	n/a	n/a	0	0	0
1342.97	n/a	WORD	671485	wordpools/wasnorm_wordpool_576.txt	LTP236	ltpFR2	1	6	HORSE	719	n/a	n/a	0	0	0
1345.488	n/a	WORD	672744	wordpools/wasnorm_wordpool_576.txt	LTP236	ltpFR2	1	6	STOVE	1388	n/a	n/a	0	0	0
1348.006	n/a	WORD	674003	wordpools/wasnorm_wordpool_576.txt	LTP236	ltpFR2	1	6	SKILLET	1317	n/a	n/a	0	0	0
1350.46	n/a	WORD	675230	wordpools/wasnorm_wordpool_576.txt	LTP236	ltpFR2	1	6	CROWN	415	n/a	n/a	0	0	0
1353.046	n/a	WORD	676523	wordpools/wasnorm_wordpool_576.txt	LTP236	ltpFR2	1	6	MARROW	872	n/a	n/a	0	0	0
1355.848	n/a	WORD	677924	wordpools/wasnorm_wordpool_576.txt	LTP236	ltpFR2	1	6	RAFT	1159	n/a	n/a	0	0	0
1358.466	n/a	WORD	679233	wordpools/wasnorm_wordpool_576.txt	LTP236	ltpFR2	1	6	HIKER	708	n/a	n/a	0	0	0
1360.086	n/a	START	680043	n/a	LTP236	ltpFR2	1	n/a	n/a	n/a	11	n/a	n/a	n/a	n/a
1361.156	n/a	DISTRACTOR	680578	n/a	LTP236	ltpFR2	1	6	n/a	n/a	n/a	n/a	0	0	0
1361.168	n/a	PROB	680584	n/a	LTP236	ltpFR2	1	n/a	n/a	n/a	11	20	9	5	6
1363.72	n/a	PROB	681860	n/a	LTP236	ltpFR2	1	n/a	n/a	n/a	11	14	2	4	8
1365.306	n/a	PROB	682653	n/a	LTP236	ltpFR2	1	n/a	n/a	n/a	11	17	8	6	3
1367.022	n/a	PROB	683511	n/a	LTP236	ltpFR2	1	n/a	n/a	n/a	11	16	3	7	6
1368.34	n/a	PROB	684170	n/a	LTP236	ltpFR2	1	n/a	n/a	n/a	11	16	5	7	4
1370.306	n/a	PROB	685153	n/a	LTP236	ltpFR2	1	n/a	n/a	n/a	11	10	2	7	1
1371.792	n/a	PROB	685896	n/a	LTP236	ltpFR2	1	n/a	n/a	n/a	11	18	3	9	6
1373.46	n/a	PROB	686730	n/a	LTP236	ltpFR2	1	n/a	n/a	n/a	11	10	2	3	5
1374.642	n/a	PROB	687321	n/a	LTP236	ltpFR2	1	n/a	n/a	n/a	11	13	3	8	2
1376.694	n/a	PROB	688347	n/a	LTP236	ltpFR2	1	n/a	n/a	n/a	11	23	7	7	9
1378.382	n/a	PROB	689191	n/a	LTP236	ltpFR2	1	n/a	n/a	n/a	11	18	2	7	9
1379.646	n/a	PROB	689823	n/a	LTP236	ltpFR2	1	n/a	n/a	n/a	11	23	2	9	5
1381.382	n/a	PROB	690691	n/a	LTP236	ltpFR2	1	n/a	n/a	n/a	11	12	3	1	8
1382.696	n/a	STOP	691348	n/a	LTP236	ltpFR2	1	n/a	n/a	n/a	11	n/a	n/a	n/a	n/a
1385.904	n/a	REC_START	692952	n/a	LTP236	ltpFR2	1	6	n/a	n/a	n/a	n/a	0	0	0
1386.868	n/a	REC_WORD	693434	wordpools/wasnorm_wordpool_576.txt	LTP236	ltpFR2	1	6	RAFT	1159	n/a	n/a	0	0	0
1387.782	n/a	REC_WORD	693891	wordpools/wasnorm_wordpool_576.txt	LTP236	ltpFR2	1	6	HIKER	708	n/a	n/a	0	0	0
1390.388	n/a	REC_WORD	695194	wordpools/wasnorm_wordpool_576.txt	LTP236	ltpFR2	1	6	COTTAGE	384	n/a	n/a	0	0	0
1392.992	n/a	REC_WORD	696496	wordpools/wasnorm_wordpool_576.txt	LTP236	ltpFR2	1	6	CARRIAGE	248	n/a	n/a	0	0	0
1394.178	n/a	REC_WORD	697089	wordpools/wasnorm_wordpool_576.txt	LTP236	ltpFR2	1	6	HORSE	719	n/a	n/a	0	0	0
1400.814	n/a	REC_WORD	700407	wordpools/wasnorm_wordpool_576.txt	LTP236	ltpFR2	1	6	BANKER	84	n/a	n/a	0	0	0
1401.964	n/a	REC_WORD	700982	wordpools/wasnorm_wordpool_576.txt	LTP236	ltpFR2	1	6	BROTHER	179	n/a	n/a	0	0	0
1403.474	n/a	REC_WORD	701737	wordpools/wasnorm_wordpool_576.txt	LTP236	ltpFR2	1	6	PROTON	1132	n/a	n/a	0	0	0
1409.206	n/a	REC_WORD	704603	wordpools/wasnorm_wordpool_576.txt	LTP236	ltpFR2	1	6	SADDLE	1221	n/a	n/a	0	0	0
1427.822	n/a	REC_WORD	713911	wordpools/wasnorm_wordpool_576.txt	LTP236	ltpFR2	1	6	BOUQUET	157	n/a	n/a	0	0	0
1429.406	n/a	REC_WORD	714703	wordpools/wasnorm_wordpool_576.txt	LTP236	ltpFR2	1	6	VELVET	1555	n/a	n/a	0	0	0
1476.342	n/a	WORD	738171	wordpools/wasnorm_wordpool_576.txt	LTP236	ltpFR2	1	7	OMELET	976	n/a	n/a	0	0	0
1478.944	n/a	WORD	739472	wordpools/wasnorm_wordpool_576.txt	LTP236	ltpFR2	1	7	MARKET	871	n/a	n/a	0	0	0
1481.398	n/a	WORD	740699	wordpools/wasnorm_wordpool_576.txt	LTP236	ltpFR2	1	7	MOTEL	919	n/a	n/a	0	0	0
1484.042	n/a	WORD	742021	wordpools/wasnorm_wordpool_576.txt	LTP236	ltpFR2	1	7	OYSTER	995	n/a	n/a	0	0	0
1486.468	n/a	WORD	743234	wordpools/wasnorm_wordpool_576.txt	LTP236	ltpFR2	1	7	COUNTY	389	n/a	n/a	0	0	0
1489.278	n/a	WORD	744639	wordpools/wasnorm_wordpool_576.txt	LTP236	ltpFR2	1	7	BOX	159	n/a	n/a	0	0	0
1491.814	n/a	WORD	745907	wordpools/wasnorm_wordpool_576.txt	LTP236	ltpFR2	1	7	PUPPY	1144	n/a	n/a	0	0	0
1494.552	n/a	WORD	747276	wordpools/wasnorm_wordpool_576.txt	LTP236	ltpFR2	1	7	WOMAN	1620	n/a	n/a	0	0	0
1497.036	n/a	WORD	748518	wordpools/wasnorm_wordpool_576.txt	LTP236	ltpFR2	1	7	HEART	697	n/a	n/a	0	0	0
1499.772	n/a	WORD	749886	wordpools/wasnorm_wordpool_576.txt	LTP236	ltpFR2	1	7	POLICE	1098	n/a	n/a	0	0	0
1502.398	n/a	WORD	751199	wordpools/wasnorm_wordpool_576.txt	LTP236	ltpFR2	1	7	APPLE	33	n/a	n/a	0	0	0
1504.842	n/a	WORD	752421	wordpools/wasnorm_wordpool_576.txt	LTP236	ltpFR2	1	7	PISTON	1076	n/a	n/a	0	0	0
1507.396	n/a	WORD	753698	wordpools/wasnorm_wordpool_576.txt	LTP236	ltpFR2	1	7	MOTOR	922	n/a	n/a	0	0	0
1510.08	n/a	WORD	755040	wordpools/wasnorm_wordpool_576.txt	LTP236	ltpFR2	1	7	COOK	372	n/a	n/a	0	0	0
1512.666	n/a	WORD	756333	wordpools/wasnorm_wordpool_576.txt	LTP236	ltpFR2	1	7	MISTER	901	n/a	n/a	0	0	0
1515.318	n/a	WORD	757659	wordpools/wasnorm_wordpool_576.txt	LTP236	ltpFR2	1	7	SLIDE	1326	n/a	n/a	0	0	0
1518.06	n/a	WORD	759030	wordpools/wasnorm_wordpool_576.txt	LTP236	ltpFR2	1	7	SEAGULL	1261	n/a	n/a	0	0	0
1520.654	n/a	WORD	760327	wordpools/wasnorm_wordpool_576.txt	LTP236	ltpFR2	1	7	SEAFOOD	1260	n/a	n/a	0	0	0
1523.11	n/a	WORD	761555	wordpools/wasnorm_wordpool_576.txt	LTP236	ltpFR2	1	7	THRONE	1461	n/a	n/a	0	0	0
1525.644	n/a	WORD	762822	wordpools/wasnorm_wordpool_576.txt	LTP236	ltpFR2	1	7	EMPIRE	530	n/a	n/a	0	0	0
1528.262	n/a	WORD	764131	wordpools/wasnorm_wordpool_576.txt	LTP236	ltpFR2	1	7	COUCH	386	n/a	n/a	0	0	0
1530.698	n/a	WORD	765349	wordpools/wasnorm_wordpool_576.txt	LTP236	ltpFR2	1	7	STALLION	1369	n/a	n/a	0	0	0
1533.238	n/a	WORD	766619	wordpools/wasnorm_wordpool_576.txt	LTP236	ltpFR2	1	7	WAGON	1578	n/a	n/a	0	0	0
1535.936	n/a	WORD	767968	wordpools/wasnorm_wordpool_576.txt	LTP236	ltpFR2	1	7	CASKET	255	n/a	n/a	0	0	0
1537.556	n/a	START	768778	n/a	LTP236	ltpFR2	1	n/a	n/a	n/a	12	n/a	n/a	n/a	n/a
1538.72	n/a	DISTRACTOR	769360	n/a	LTP236	ltpFR2	1	7	n/a	n/a	n/a	n/a	0	0	0
1538.74	n/a	PROB	769370	n/a	LTP236	ltpFR2	1	n/a	n/a	n/a	12	15	9	3	3
1540.96	n/a	PROB	770480	n/a	LTP236	ltpFR2	1	n/a	n/a	n/a	12	21	6	6	9
1543.744	n/a	PROB	771872	n/a	LTP236	ltpFR2	1	n/a	n/a	n/a	12	18	8	3	7
1544.958	n/a	PROB	772479	n/a	LTP236	ltpFR2	1	n/a	n/a	n/a	12	14	1	7	6
1546.03	n/a	PROB	773015	n/a	LTP236	ltpFR2	1	n/a	n/a	n/a	12	13	5	3	5
1547.614	n/a	PROB	773807	n/a	LTP236	ltpFR2	1	n/a	n/a	n/a	12	16	9	1	6
1548.848	n/a	PROB	774424	n/a	LTP236	ltpFR2	1	n/a	n/a	n/a	12	22	6	9	7
1551.682	n/a	PROB	775841	n/a	LTP236	ltpFR2	1	n/a	n/a	n/a	12	6	1	3	2
1552.82	n/a	PROB	776410	n/a	LTP236	ltpFR2	1	n/a	n/a	n/a	12	26	9	8	9
1555.068	n/a	PROB	777534	n/a	LTP236	ltpFR2	1	n/a	n/a	n/a	12	16	7	2	7
1556.422	n/a	PROB	778211	n/a	LTP236	ltpFR2	1	n/a	n/a	n/a	12	26	9	9	8
1557.706	n/a	PROB	778853	n/a	LTP236	ltpFR2	1	n/a	n/a	n/a	12	14	4	8	2
1558.94	n/a	PROB	779470	n/a	LTP236	ltpFR2	1	n/a	n/a	n/a	12	13	3	9	1
1560.058	n/a	PROB	780029	n/a	LTP236	ltpFR2	1	n/a	n/a	n/a	12	23	8	8	7
1561.214	n/a	STOP	780607	n/a	LTP236	ltpFR2	1	n/a	n/a	n/a	12	n/a	n/a	n/a	n/a
1563.428	n/a	REC_START	781714	n/a	LTP236	ltpFR2	1	7	n/a	n/a	n/a	n/a	0	0	0
1564.36	n/a	REC_WORD	782180	wordpools/wasnorm_wordpool_576.txt	LTP236	ltpFR2	1	7	CASKET	255	n/a	n/a	0	0	0
1570.06	n/a	REC_WORD	785030	wordpools/wasnorm_wordpool_576.txt	LTP236	ltpFR2	1	7	POLICE	1098	n/a	n/a	0	0	0
1575.312	n/a	REC_WORD	787656	wordpools/wasnorm_wordpool_576.txt	LTP236	ltpFR2	1	7	WOMAN	1620	n/a	n/a	0	0	0
1576.714	n/a	REC_WORD	788357	wordpools/wasnorm_wordpool_576.txt	LTP236	ltpFR2	1	7	PUPPY	1144	n/a	n/a	0	0	0
1577.628	n/a	REC_WORD	788814	wordpools/wasnorm_wordpool_576.txt	LTP236	ltpFR2	1	7	HEART	697	n/a	n/a	0	0	0
1578.928	n/a	REC_WORD	789464	wordpools/wasnorm_wordpool_576.txt	LTP236	ltpFR2	1	7	BOX	159	n/a	n/a	0	0	0
1580.466	n/a	REC_WORD	790233	wordpools/wasnorm_wordpool_576.txt	LTP236	ltpFR2	1	7	SEAGULL	1261	n/a	n/a	0	0	0
1581.472	n/a	REC_WORD	790736	wordpools/wasnorm_wordpool_576.txt	LTP236	ltpFR2	1	7	SLIDE	1326	n/a	n/a	0	0	0
1583.942	n/a	REC_WORD	791971	wordpools/wasnorm_wordpool_576.txt	LTP236	ltpFR2	1	7	COOK	372	n/a	n/a	0	0	0
1585.032	n/a	REC_WORD	792516	wordpools/wasnorm_wordpool_576.txt	LTP236	ltpFR2	1	7	SEAFOOD	1260	n/a	n/a	0	0	0
1587.22	n/a	REC_WORD	793610	wordpools/wasnorm_wordpool_576.txt	LTP236	ltpFR2	1	7	OYSTER	995	n/a	n/a	0	0	0
1588.502	n/a	REC_WORD	794251	wordpools/wasnorm_wordpool_576.txt	LTP236	ltpFR2	1	7	OMELET	976	n/a	n/a	0	0	0
1589.852	n/a	REC_WORD	794926	wordpools/wasnorm_wordpool_576.txt	LTP236	ltpFR2	1	7	APPLE	33	n/a	n/a	0	0	0
1592.3	n/a	REC_WORD	796150	wordpools/wasnorm_wordpool_576.txt	LTP236	ltpFR2	1	7	MOTEL	919	n/a	n/a	0	0	0
1600.026	n/a	REC_WORD	800013	wordpools/wasnorm_wordpool_576.txt	LTP236	ltpFR2	1	7	MOTOR	922	n/a	n/a	0	0	0
1602.638	n/a	REC_WORD	801319	wordpools/wasnorm_wordpool_576.txt	LTP236	ltpFR2	1	7	STALLION	1369	n/a	n/a	0	0	0
1608.534	n/a	REC_WORD	804267	wordpools/wasnorm_wordpool_576.txt	LTP236	ltpFR2	1	7	EMPIRE	530	n/a	n/a	0	0	0
1609.4	n/a	REC_WORD	804700	wordpools/wasnorm_wordpool_576.txt	LTP236	ltpFR2	1	7	THRONE	1461	n/a	n/a	0	0	0
1610.448	n/a	REC_WORD	805224	wordpools/wasnorm_wordpool_576.txt	LTP236	ltpFR2	1	7	COUCH	386	n/a	n/a	0	0	0
1634.786	n/a	REC_WORD	817393	wordpools/wasnorm_wordpool_576.txt	LTP236	ltpFR2	1	7	MARKET	871	n/a	n/a	0	0	0
1653.872	n/a	DISTRACTOR	826936	n/a	LTP236	ltpFR2	1	8	n/a	n/a	n/a	n/a	0	0	0
1653.872	n/a	START	826936	n/a	LTP236	ltpFR2	1	n/a	n/a	n/a	13	n/a	n/a	n/a	n/a
1653.888	n/a	PROB	826944	n/a	LTP236	ltpFR2	1	n/a	n/a	n/a	13	20	9	5	6
1655.95	n/a	PROB	827975	n/a	LTP236	ltpFR2	1	n/a	n/a	n/a	13	17	5	5	7
1657.2	n/a	PROB	828600	n/a	LTP236	ltpFR2	1	n/a	n/a	n/a	13	16	8	5	3
1658.37	n/a	PROB	829185	n/a	LTP236	ltpFR2	1	n/a	n/a	n/a	13	21	7	5	9
1659.686	n/a	PROB	829843	n/a	LTP236	ltpFR2	1	n/a	n/a	n/a	13	11	1	3	7
1660.804	n/a	PROB	830402	n/a	LTP236	ltpFR2	1	n/a	n/a	n/a	13	12	2	8	2
1661.822	n/a	PROB	830911	n/a	LTP236	ltpFR2	1	n/a	n/a	n/a	13	15	8	1	6
1663.006	n/a	PROB	831503	n/a	LTP236	ltpFR2	1	n/a	n/a	n/a	13	15	3	9	3
1664.908	n/a	PROB	832454	n/a	LTP236	ltpFR2	1	n/a	n/a	n/a	13	13	7	2	4
1666.042	n/a	PROB	833021	n/a	LTP236	ltpFR2	1	n/a	n/a	n/a	13	9	4	4	1
1667.142	n/a	PROB	833571	n/a	LTP236	ltpFR2	1	n/a	n/a	n/a	13	25	9	8	8
1668.828	n/a	PROB	834414	n/a	LTP236	ltpFR2	1	n/a	n/a	n/a	13	14	4	1	9
1671.246	n/a	PROB	835623	n/a	LTP236	ltpFR2	1	n/a	n/a	n/a	13	13	3	2	8
1672.896	n/a	PROB	836448	n/a	LTP236	ltpFR2	1	n/a	n/a	n/a	13	16	6	7	3
1674.114	n/a	PROB	837057	n/a	LTP236	ltpFR2	1	n/a	n/a	n/a	13	22	9	6	7
1675.314	n/a	PROB	837657	n/a	LTP236	ltpFR2	1	n/a	n/a	n/a	13	16	3	4	9
1676.448	n/a	STOP	838224	n/a	LTP236	ltpFR2	1	n/a	n/a	n/a	13	n/a	n/a	n/a	n/a
1679.02	n/a	WORD	839510	wordpools/wasnorm_wordpool_576.txt	LTP236	ltpFR2	1	8	CROSS	413	n/a	n/a	0	0	0
1681.678	n/a	WORD	840839	wordpools/wasnorm_wordpool_576.txt	LTP236	ltpFR2	1	8	PEACH	1031	n/a	n/a	0	0	0
1684.106	n/a	WORD	842053	wordpools/wasnorm_wordpool_576.txt	LTP236	ltpFR2	1	8	SISTER	1312	n/a	n/a	0	0	0
1686.81	n/a	WORD	843405	wordpools/wasnorm_wordpool_576.txt	LTP236	ltpFR2	1	8	UMPIRE	1535	n/a	n/a	0	0	0
1689.43	n/a	WORD	844715	wordpools/wasnorm_wordpool_576.txt	LTP236	ltpFR2	1	8	GLOVE	642	n/a	n/a	0	0	0
1692.114	n/a	WORD	846057	wordpools/wasnorm_wordpool_576.txt	LTP236	ltpFR2	1	8	TUNNEL	1519	n/a	n/a	0	0	0
1694.84	n/a	WORD	847420	wordpools/wasnorm_wordpool_576.txt	LTP236	ltpFR2	1	8	TROUT	1511	n/a	n/a	0	0	0
1697.518	n/a	WORD	848759	wordpools/wasnorm_wordpool_576.txt	LTP236	ltpFR2	1	8	THIEF	1456	n/a	n/a	0	0	0
1700.112	n/a	WORD	850056	wordpools/wasnorm_wordpool_576.txt	LTP236	ltpFR2	1	8	ROBBER	1197	n/a	n/a	0	0	0
1702.84	n/a	WORD	851420	wordpools/wasnorm_wordpool_576.txt	LTP236	ltpFR2	1	8	SHARK	1275	n/a	n/a	0	0	0
1705.558	n/a	WORD	852779	wordpools/wasnorm_wordpool_576.txt	LTP236	ltpFR2	1	8	LAMP	798	n/a	n/a	0	0	0
1708.144	n/a	WORD	854072	wordpools/wasnorm_wordpool_576.txt	LTP236	ltpFR2	1	8	JOURNAL	760	n/a	n/a	0	0	0
1710.712	n/a	WORD	855356	wordpools/wasnorm_wordpool_576.txt	LTP236	ltpFR2	1	8	DRILL	497	n/a	n/a	0	0	0
1713.13	n/a	WORD	856565	wordpools/wasnorm_wordpool_576.txt	LTP236	ltpFR2	1	8	WIFE	1609	n/a	n/a	0	0	0
1715.924	n/a	WORD	857962	wordpools/wasnorm_wordpool_576.txt	LTP236	ltpFR2	1	8	KNAPSACK	783	n/a	n/a	0	0	0
1718.634	n/a	WORD	859317	wordpools/wasnorm_wordpool_576.txt	LTP236	ltpFR2	1	8	BURGLAR	200	n/a	n/a	0	0	0
1721.114	n/a	WORD	860557	wordpools/wasnorm_wordpool_576.txt	LTP236	ltpFR2	1	8	SUSPECT	1415	n/a	n/a	0	0	0
1723.69	n/a	WORD	861845	wordpools/wasnorm_wordpool_576.txt	LTP236	ltpFR2	1	8	NURSE	963	n/a	n/a	0	0	0
1726.452	n/a	WORD	863226	wordpools/wasnorm_wordpool_576.txt	LTP236	ltpFR2	1	8	SALMON	1227	n/a	n/a	0	0	0
1729.02	n/a	WORD	864510	wordpools/wasnorm_wordpool_576.txt	LTP236	ltpFR2	1	8	CIGAR	308	n/a	n/a	0	0	0
1731.78	n/a	WORD	865890	wordpools/wasnorm_wordpool_576.txt	LTP236	ltpFR2	1	8	CRAB	397	n/a	n/a	0	0	0
1734.34	n/a	WORD	867170	wordpools/wasnorm_wordpool_576.txt	LTP236	ltpFR2	1	8	PARTNER	1017	n/a	n/a	0	0	0
1736.976	n/a	WORD	868488	wordpools/wasnorm_wordpool_576.txt	LTP236	ltpFR2	1	8	LEOPARD	812	n/a	n/a	0	0	0
1739.452	n/a	WORD	869726	wordpools/wasnorm_wordpool_576.txt	LTP236	ltpFR2	1	8	PERFUME	1049	n/a	n/a	0	0	0
1741.064	n/a	START	870532	n/a	LTP236	ltpFR2	1	n/a	n/a	n/a	14	n/a	n/a	n/a	n/a
1742.228	n/a	DISTRACTOR	871114	n/a	LTP236	ltpFR2	1	8	n/a	n/a	n/a	n/a	0	0	0
1742.236	n/a	PROB	871118	n/a	LTP236	ltpFR2	1	n/a	n/a	n/a	14	10	2	7	1
1745.38	n/a	PROB	872690	n/a	LTP236	ltpFR2	1	n/a	n/a	n/a	14	21	8	8	5
1747.638	n/a	PROB	873819	n/a	LTP236	ltpFR2	1	n/a	n/a	n/a	14	11	6	4	1
1748.756	n/a	PROB	874378	n/a	LTP236	ltpFR2	1	n/a	n/a	n/a	14	20	4	7	9
1751.142	n/a	PROB	875571	n/a	LTP236	ltpFR2	1	n/a	n/a	n/a	14	14	4	5	5
1753.412	n/a	PROB	876706	n/a	LTP236	ltpFR2	1	n/a	n/a	n/a	14	13	4	8	1
1755.69	n/a	PROB	877845	n/a	LTP236	ltpFR2	1	n/a	n/a	n/a	14	11	4	5	2
1756.974	n/a	PROB	878487	n/a	LTP236	ltpFR2	1	n/a	n/a	n/a	14	14	3	5	6
1758.432	n/a	PROB	879216	n/a	LTP236	ltpFR2	1	n/a	n/a	n/a	14	11	4	2	5
1760.028	n/a	PROB	880014	n/a	LTP236	ltpFR2	1	n/a	n/a	n/a	14	16	5	4	7
1761.628	n/a	PROB	880814	n/a	LTP236	ltpFR2	1	n/a	n/a	n/a	14	15	2	4	9
1764.116	n/a	STOP	882058	n/a	LTP236	ltpFR2	1	n/a	n/a	n/a	14	n/a	n/a	n/a	n/a
1766.936	n/a	REC_START	883468	n/a	LTP236	ltpFR2	1	8	n/a	n/a	n/a	n/a	0	0	0
1768.204	n/a	REC_WORD	884102	wordpools/wasnorm_wordpool_576.txt	LTP236	ltpFR2	1	8	WIFE	1609	n/a	n/a	0	0	0
1769.024	n/a	REC_WORD	884512	wordpools/wasnorm_wordpool_576.txt	LTP236	ltpFR2	1	8	LEOPARD	812	n/a	n/a	0	0	0
1769.906	n/a	REC_WORD	884953	wordpools/wasnorm_wordpool_576.txt	LTP236	ltpFR2	1	8	PERFUME	1049	n/a	n/a	0	0	0
1771.066	n/a	REC_WORD	885533	wordpools/wasnorm_wordpool_576.txt	LTP236	ltpFR2	1	8	NURSE	963	n/a	n/a	0	0	0
1772.528	n/a	REC_WORD	886264	wordpools/wasnorm_wordpool_576.txt	LTP236	ltpFR2	1	8	KNAPSACK	783	n/a	n/a	0	0	0
1773.302	n/a	REC_WORD	886651	wordpools/wasnorm_wordpool_576.txt	LTP236	ltpFR2	1	8	CIGAR	308	n/a	n/a	0	0	0
1774.146	n/a	REC_WORD	887073	wordpools/wasnorm_wordpool_576.txt	LTP236	ltpFR2	1	8	SHARK	1275	n/a	n/a	0	0	0
1775.244	n/a	REC_WORD	887622	wordpools/wasnorm_wordpool_576.txt	LTP236	ltpFR2	1	8	CRAB	397	n/a	n/a	0	0	0
1775.918	n/a	REC_WORD	887959	wordpools/wasnorm_wordpool_576.txt	LTP236	ltpFR2	1	8	SUSPECT	1415	n/a	n/a	0	0	0
1777.42	n/a	REC_WORD	888710	wordpools/wasnorm_wordpool_576.txt	LTP236	ltpFR2	1	8	THIEF	1456	n/a	n/a	0	0	0
1778.848	n/a	REC_WORD	889424	wordpools/wasnorm_wordpool_576.txt	LTP236	ltpFR2	1	8	BURGLAR	200	n/a	n/a	0	0	0
1781.352	n/a	REC_WORD	890676	wordpools/wasnorm_wordpool_576.txt	LTP236	ltpFR2	1	8	ROBBER	1197	n/a	n/a	0	0	0
1782.322	n/a	REC_WORD	891161	wordpools/wasnorm_wordpool_576.txt	LTP236	ltpFR2	1	8	TUNNEL	1519	n/a	n/a	0	0	0
1789.248	n/a	REC_WORD	894624	wordpools/wasnorm_wordpool_576.txt	LTP236	ltpFR2	1	8	PEACH	1031	n/a	n/a	0	0	0
1792.144	n/a	REC_WORD	896072	wordpools/wasnorm_wordpool_576.txt	LTP236	ltpFR2	1	8	TROUT	1511	n/a	n/a	0	0	0
1793.428	n/a	REC_WORD	896714	wordpools/wasnorm_wordpool_576.txt	LTP236	ltpFR2	1	8	SALMON	1227	n/a	n/a	0	0	0
1797.35	n/a	REC_WORD	898675	wordpools/wasnorm_wordpool_576.txt	LTP236	ltpFR2	1	8	GLOVE	642	n/a	n/a	0	0	0
1798.248	n/a	REC_WORD	899124	wordpools/wasnorm_wordpool_576.txt	LTP236	ltpFR2	1	8	UMPIRE	1535	n/a	n/a	0	0	0
1803.534	n/a	REC_WORD	901767	wordpools/wasnorm_wordpool_576.txt	LTP236	ltpFR2	1	8	CROSS	413	n/a	n/a	0	0	0
1824.986	n/a	REC_WORD	912493	wordpools/wasnorm_wordpool_576.txt	LTP236	ltpFR2	1	8	LAMP	798	n/a	n/a	0	0	0
1826.112	n/a	REC_WORD	913056	wordpools/wasnorm_wordpool_576.txt	LTP236	ltpFR2	1	8	JOURNAL	760	n/a	n/a	0	0	0
1843.484	n/a	REST_REWET	921742	n/a	LTP236	ltpFR2	1	8	n/a	n/a	n/a	n/a	0	0	0
2063.94	n/a	WORD	1031970	wordpools/wasnorm_wordpool_576.txt	LTP236	ltpFR2	1	9	CATCHER	258	n/a	n/a	0	0	0
2066.526	n/a	WORD	1033263	wordpools/wasnorm_wordpool_576.txt	LTP236	ltpFR2	1	9	ROOSTER	1209	n/a	n/a	0	0	0
2069.08	n/a	WORD	1034540	wordpools/wasnorm_wordpool_576.txt	LTP236	ltpFR2	1	9	SANDWICH	1232	n/a	n/a	0	0	0
2071.816	n/a	WORD	1035908	wordpools/wasnorm_wordpool_576.txt	LTP236	ltpFR2	1	9	HAND	683	n/a	n/a	0	0	0
2074.3	n/a	WORD	1037150	wordpools/wasnorm_wordpool_576.txt	LTP236	ltpFR2	1	9	WRIST	1626	n/a	n/a	0	0	0
2077.12	n/a	WORD	1038560	wordpools/wasnorm_wordpool_576.txt	LTP236	ltpFR2	1	9	KNIFE	785	n/a	n/a	0	0	0
2079.738	n/a	WORD	1039869	wordpools/wasnorm_wordpool_576.txt	LTP236	ltpFR2	1	9	WHISTLE	1606	n/a	n/a	0	0	0
2082.44	n/a	WORD	1041220	wordpools/wasnorm_wordpool_576.txt	LTP236	ltpFR2	1	9	CHEST	295	n/a	n/a	0	0	0
2085.06	n/a	WORD	1042530	wordpools/wasnorm_wordpool_576.txt	LTP236	ltpFR2	1	9	MEDAL	885	n/a	n/a	0	0	0
2087.878	n/a	WORD	1043939	wordpools/wasnorm_wordpool_576.txt	LTP236	ltpFR2	1	9	POPCORN	1104	n/a	n/a	0	0	0
2090.448	n/a	WORD	1045224	wordpools/wasnorm_wordpool_576.txt	LTP236	ltpFR2	1	9	BREAST	171	n/a	n/a	0	0	0
2093.266	n/a	WORD	1046633	wordpools/wasnorm_wordpool_576.txt	LTP236	ltpFR2	1	9	ITEM	746	n/a	n/a	0	0	0
2095.934	n/a	WORD	1047967	wordpools/wasnorm_wordpool_576.txt	LTP236	ltpFR2	1	9	WRENCH	1625	n/a	n/a	0	0	0
2098.386	n/a	WORD	1049193	wordpools/wasnorm_wordpool_576.txt	LTP236	ltpFR2	1	9	FLUTE	585	n/a	n/a	0	0	0
2100.838	n/a	WORD	1050419	wordpools/wasnorm_wordpool_576.txt	LTP236	ltpFR2	1	9	WORLD	1622	n/a	n/a	0	0	0
2103.356	n/a	WORD	1051678	wordpools/wasnorm_wordpool_576.txt	LTP236	ltpFR2	1	9	GLOBE	641	n/a	n/a	0	0	0
2106.026	n/a	WORD	1053013	wordpools/wasnorm_wordpool_576.txt	LTP236	ltpFR2	1	9	BUNNY	198	n/a	n/a	0	0	0
2108.56	n/a	WORD	1054280	wordpools/wasnorm_wordpool_576.txt	LTP236	ltpFR2	1	9	TUBA	1515	n/a	n/a	0	0	0
2111.15	n/a	WORD	1055575	wordpools/wasnorm_wordpool_576.txt	LTP236	ltpFR2	1	9	HIGHWAY	707	n/a	n/a	0	0	0
2113.916	n/a	WORD	1056958	wordpools/wasnorm_wordpool_576.txt	LTP236	ltpFR2	1	9	TURTLE	1522	n/a	n/a	0	0	0
2116.47	n/a	WORD	1058235	wordpools/wasnorm_wordpool_576.txt	LTP236	ltpFR2	1	9	HOUND	724	n/a	n/a	0	0	0
2119.07	n/a	WORD	1059535	wordpools/wasnorm_wordpool_576.txt	LTP236	ltpFR2	1	9	FRANCE	601	n/a	n/a	0	0	0
2121.654	n/a	WORD	1060827	wordpools/wasnorm_wordpool_576.txt	LTP236	ltpFR2	1	9	SHOVEL	1295	n/a	n/a	0	0	0
2124.222	n/a	WORD	1062111	wordpools/wasnorm_wordpool_576.txt	LTP236	ltpFR2	1	9	PANTHER	1009	n/a	n/a	0	0	0
2125.828	n/a	START	1062914	n/a	LTP236	ltpFR2	1	n/a	n/a	n/a	15	n/a	n/a	n/a	n/a
2126.756	n/a	DISTRACTOR	1063378	n/a	LTP236	ltpFR2	1	9	n/a	n/a	n/a	n/a	0	0	0
2126.762	n/a	PROB	1063381	n/a	LTP236	ltpFR2	1	n/a	n/a	n/a	15	1	9	2	3
2129.864	n/a	PROB	1064932	n/a	LTP236	ltpFR2	1	n/a	n/a	n/a	15	6	2	1	3
2132.91	n/a	PROB	1066455	n/a	LTP236	ltpFR2	1	n/a	n/a	n/a	15	8	1	1	6
2134.314	n/a	PROB	1067157	n/a	LTP236	ltpFR2	1	n/a	n/a	n/a	15	15	9	4	2
2135.93	n/a	PROB	1067965	n/a	LTP236	ltpFR2	1	n/a	n/a	n/a	15	16	6	1	9
2138.282	n/a	PROB	1069141	n/a	LTP236	ltpFR2	1	n/a	n/a	n/a	15	22	7	7	8
2139.484	n/a	PROB	1069742	n/a	LTP236	ltpFR2	1	n/a	n/a	n/a	15	16	9	4	3
2140.868	n/a	PROB	1070434	n/a	LTP236	ltpFR2	1	n/a	n/a	n/a	15	13	7	3	3
2142.634	n/a	PROB	1071317	n/a	LTP236	ltpFR2	1	n/a	n/a	n/a	15	19	8	4	7
2144.088	n/a	PROB	1072044	n/a	LTP236	ltpFR2	1	n/a	n/a	n/a	15	11	2	2	7
2145.09	n/a	PROB	1072545	n/a	LTP236	ltpFR2	1	n/a	n/a	n/a	15	14	6	7	1
2146.356	n/a	PROB	1073178	n/a	LTP236	ltpFR2	1	n/a	n/a	n/a	15	14	3	5	6
2147.522	n/a	PROB	1073761	n/a	LTP236	ltpFR2	1	n/a	n/a	n/a	15	14	7	4	3
2149.536	n/a	STOP	1074768	n/a	LTP236	ltpFR2	1	n/a	n/a	n/a	15	n/a	n/a	n/a	n/a
2151.744	n/a	REC_START	1075872	n/a	LTP236	ltpFR2	1	9	n/a	n/a	n/a	n/a	0	0	0
2152.836	n/a	REC_WORD	1076418	wordpools/wasnorm_wordpool_576.txt	LTP236	ltpFR2	1	9	TUBA	1515	n/a	n/a	0	0	0
2153.5	n/a	REC_WORD	1076750	wordpools/wasnorm_wordpool_576.txt	LTP236	ltpFR2	1	9	FLUTE	585	n/a	n/a	0	0	0
2154.466	n/a	REC_WORD	1077233	wordpools/wasnorm_wordpool_576.txt	LTP236	ltpFR2	1	9	PANTHER	1009	n/a	n/a	0	0	0
2155.298	n/a	REC_WORD	1077649	wordpools/wasnorm_wordpool_576.txt	LTP236	ltpFR2	1	9	FRANCE	601	n/a	n/a	0	0	0
2156.03	n/a	REC_WORD	1078015	wordpools/wasnorm_wordpool_576.txt	LTP236	ltpFR2	1	9	SHOVEL	1295	n/a	n/a	0	0	0
2159.622	n/a	REC_WORD	1079811	wordpools/wasnorm_wordpool_576.txt	LTP236	ltpFR2	1	9	WHISTLE	1606	n/a	n/a	0	0	0
2164.218	n/a	REC_WORD	1082109	wordpools/wasnorm_wordpool_576.txt	LTP236	ltpFR2	1	9	PANTHER	1009	n/a	n/a	0	0	0
2169.62	n/a	REC_WORD	1084810	wordpools/wasnorm_wordpool_576.txt	LTP236	ltpFR2	1	9	ROOSTER	1209	n/a	n/a	0	0	0
2171.27	n/a	REC_WORD	1085635	wordpools/wasnorm_wordpool_576.txt	LTP236	ltpFR2	1	9	SANDWICH	1232	n/a	n/a	0	0	0
2172.284	n/a	REC_WORD	1086142	wordpools/wasnorm_wordpool_576.txt	LTP236	ltpFR2	1	9	POPCORN	1104	n/a	n/a	0	0	0
2172.976	n/a	REC_WORD	1086488	wordpools/wasnorm_wordpool_576.txt	LTP236	ltpFR2	1	9	KNIFE	785	n/a	n/a	0	0	0
2174.432	n/a	REC_WORD	1087216	wordpools/wasnorm_wordpool_576.txt	LTP236	ltpFR2	1	9	HAND	683	n/a	n/a	0	0	0
2175.134	n/a	REC_WORD	1087567	wordpools/wasnorm_wordpool_576.txt	LTP236	ltpFR2	1	9	WRIST	1626	n/a	n/a	0	0	0
2178.906	n/a	REC_WORD	1089453	wordpools/wasnorm_wordpool_576.txt	LTP236	ltpFR2	1	9	FARMER	553	n/a	n/a	0	0	0
2185.566	n/a	REC_WORD	1092783	wordpools/wasnorm_wordpool_576.txt	LTP236	ltpFR2	1	9	BUNNY	198	n/a	n/a	0	0	0
2186.244	n/a	REC_WORD	1093122	wordpools/wasnorm_wordpool_576.txt	LTP236	ltpFR2	1	9	TURTLE	1522	n/a	n/a	0	0	0
2205.19	n/a	REC_WORD	1102595	wordpools/wasnorm_wordpool_576.txt	LTP236	ltpFR2	1	9	WORLD	1622	n/a	n/a	0	0	0
2205.914	n/a	REC_WORD	1102957	wordpools/wasnorm_wordpool_576.txt	LTP236	ltpFR2	1	9	GLOBE	641	n/a	n/a	0	0	0
2242.168	n/a	DISTRACTOR	1121084	n/a	LTP236	ltpFR2	1	10	n/a	n/a	n/a	n/a	0	0	0
2242.168	n/a	START	1121084	n/a	LTP236	ltpFR2	1	n/a	n/a	n/a	16	n/a	n/a	n/a	n/a
2242.182	n/a	PROB	1121091	n/a	LTP236	ltpFR2	1	n/a	n/a	n/a	16	17	5	6	6
2244.212	n/a	PROB	1122106	n/a	LTP236	ltpFR2	1	n/a	n/a	n/a	16	12	3	2	7
2245.414	n/a	PROB	1122707	n/a	LTP236	ltpFR2	1	n/a	n/a	n/a	16	17	5	9	3
2247.148	n/a	PROB	1123574	n/a	LTP236	ltpFR2	1	n/a	n/a	n/a	16	19	8	7	4
2248.656	n/a	PROB	1124328	n/a	LTP236	ltpFR2	1	n/a	n/a	n/a	16	19	5	8	6
2252.318	n/a	PROB	1126159	n/a	LTP236	ltpFR2	1	n/a	n/a	n/a	16	16	3	5	8
2253.474	n/a	PROB	1126737	n/a	LTP236	ltpFR2	1	n/a	n/a	n/a	16	19	4	6	9
2254.958	n/a	PROB	1127479	n/a	LTP236	ltpFR2	1	n/a	n/a	n/a	16	16	7	7	2
2256.062	n/a	PROB	1128031	n/a	LTP236	ltpFR2	1	n/a	n/a	n/a	16	6	1	1	4
2257.19	n/a	PROB	1128595	n/a	LTP236	ltpFR2	1	n/a	n/a	n/a	16	14	7	1	6
2258.596	n/a	PROB	1129298	n/a	LTP236	ltpFR2	1	n/a	n/a	n/a	16	13	4	3	6
2260.576	n/a	PROB	1130288	n/a	LTP236	ltpFR2	1	n/a	n/a	n/a	16	19	9	9	1
2261.93	n/a	PROB	1130965	n/a	LTP236	ltpFR2	1	n/a	n/a	n/a	16	9	1	5	3
2263.116	n/a	PROB	1131558	n/a	LTP236	ltpFR2	1	n/a	n/a	n/a	16	18	4	7	7
2265.122	n/a	STOP	1132561	n/a	LTP236	ltpFR2	1	n/a	n/a	n/a	16	n/a	n/a	n/a	n/a
2267.2	n/a	WORD	1133600	wordpools/wasnorm_wordpool_576.txt	LTP236	ltpFR2	1	10	CANYON	235	n/a	n/a	0	0	0
2269.82	n/a	WORD	1134910	wordpools/wasnorm_wordpool_576.txt	LTP236	ltpFR2	1	10	STATUE	1374	n/a	n/a	0	0	0
2272.538	n/a	WORD	1136269	wordpools/wasnorm_wordpool_576.txt	LTP236	ltpFR2	1	10	HEDGE	699	n/a	n/a	0	0	0
2275.24	n/a	WORD	1137620	wordpools/wasnorm_wordpool_576.txt	LTP236	ltpFR2	1	10	ACTOR	5	n/a	n/a	0	0	0
2277.91	n/a	WORD	1138955	wordpools/wasnorm_wordpool_576.txt	LTP236	ltpFR2	1	10	COUNTRY	388	n/a	n/a	0	0	0
2280.594	n/a	WORD	1140297	wordpools/wasnorm_wordpool_576.txt	LTP236	ltpFR2	1	10	FIREPLACE	570	n/a	n/a	0	0	0
2283.048	n/a	WORD	1141524	wordpools/wasnorm_wordpool_576.txt	LTP236	ltpFR2	1	10	SUPPER	1411	n/a	n/a	0	0	0
2285.75	n/a	WORD	1142875	wordpools/wasnorm_wordpool_576.txt	LTP236	ltpFR2	1	10	GRAVE	658	n/a	n/a	0	0	0
2288.47	n/a	WORD	1144235	wordpools/wasnorm_wordpool_576.txt	LTP236	ltpFR2	1	10	HELMET	702	n/a	n/a	0	0	0
2291.138	n/a	WORD	1145569	wordpools/wasnorm_wordpool_576.txt	LTP236	ltpFR2	1	10	HOOD	714	n/a	n/a	0	0	0
2293.624	n/a	WORD	1146812	wordpools/wasnorm_wordpool_576.txt	LTP236	ltpFR2	1	10	POET	1095	n/a	n/a	0	0	0
2296.41	n/a	WORD	1148205	wordpools/wasnorm_wordpool_576.txt	LTP236	ltpFR2	1	10	STAMP	1370	n/a	n/a	0	0	0
2299.178	n/a	WORD	1149589	wordpools/wasnorm_wordpool_576.txt	LTP236	ltpFR2	1	10	TREAT	1501	n/a	n/a	0	0	0
2301.962	n/a	WORD	1150981	wordpools/wasnorm_wordpool_576.txt	LTP236	ltpFR2	1	10	TART	1436	n/a	n/a	0	0	0
2304.448	n/a	WORD	1152224	wordpools/wasnorm_wordpool_576.txt	LTP236	ltpFR2	1	10	BALLOON	75	n/a	n/a	0	0	0
2307.018	n/a	WORD	1153509	wordpools/wasnorm_wordpool_576.txt	LTP236	ltpFR2	1	10	FUNGUS	614	n/a	n/a	0	0	0
2309.602	n/a	WORD	1154801	wordpools/wasnorm_wordpool_576.txt	LTP236	ltpFR2	1	10	GARBAGE	622	n/a	n/a	0	0	0
2312.174	n/a	WORD	1156087	wordpools/wasnorm_wordpool_576.txt	LTP236	ltpFR2	1	10	CLIMBER	323	n/a	n/a	0	0	0
2314.69	n/a	WORD	1157345	wordpools/wasnorm_wordpool_576.txt	LTP236	ltpFR2	1	10	SODA	1341	n/a	n/a	0	0	0
2317.526	n/a	WORD	1158763	wordpools/wasnorm_wordpool_576.txt	LTP236	ltpFR2	1	10	ROBIN	1199	n/a	n/a	0	0	0
2320.162	n/a	WORD	1160081	wordpools/wasnorm_wordpool_576.txt	LTP236	ltpFR2	1	10	YOLK	1633	n/a	n/a	0	0	0
2322.998	n/a	WORD	1161499	wordpools/wasnorm_wordpool_576.txt	LTP236	ltpFR2	1	10	DRAWING	494	n/a	n/a	0	0	0
2325.516	n/a	WORD	1162758	wordpools/wasnorm_wordpool_576.txt	LTP236	ltpFR2	1	10	TERMITE	1451	n/a	n/a	0	0	0
2328.268	n/a	WORD	1164134	wordpools/wasnorm_wordpool_576.txt	LTP236	ltpFR2	1	10	SPIDER	1351	n/a	n/a	0	0	0
2329.888	n/a	START	1164944	n/a	LTP236	ltpFR2	1	n/a	n/a	n/a	17	n/a	n/a	n/a	n/a
2330.706	n/a	DISTRACTOR	1165353	n/a	LTP236	ltpFR2	1	10	n/a	n/a	n/a	n/a	0	0	0
2330.72	n/a	PROB	1165360	n/a	LTP236	ltpFR2	1	n/a	n/a	n/a	17	18	3	8	7
2333.404	n/a	PROB	1166702	n/a	LTP236	ltpFR2	1	n/a	n/a	n/a	17	19	6	9	6
2335.488	n/a	PROB	1167744	n/a	LTP236	ltpFR2	1	n/a	n/a	n/a	17	18	4	8	6
2337.892	n/a	PROB	1168946	n/a	LTP236	ltpFR2	1	n/a	n/a	n/a	17	20	5	6	9
2339.726	n/a	PROB	1169863	n/a	LTP236	ltpFR2	1	n/a	n/a	n/a	17	16	5	6	5
2341.228	n/a	PROB	1170614	n/a	LTP236	ltpFR2	1	n/a	n/a	n/a	17	11	2	3	6
2342.694	n/a	PROB	1171347	n/a	LTP236	ltpFR2	1	n/a	n/a	n/a	17	19	3	8	8
2344.264	n/a	PROB	1172132	n/a	LTP236	ltpFR2	1	n/a	n/a	n/a	17	14	9	4	1
2345.632	n/a	PROB	1172816	n/a	LTP236	ltpFR2	1	n/a	n/a	n/a	17	19	3	8	8
2347.264	n/a	PROB	1173632	n/a	LTP236	ltpFR2	1	n/a	n/a	n/a	17	12	2	7	3
2349.318	n/a	PROB	1174659	n/a	LTP236	ltpFR2	1	n/a	n/a	n/a	17	7	3	3	1
2350.47	n/a	PROB	1175235	n/a	LTP236	ltpFR2	1	n/a	n/a	n/a	17	13	7	2	4
2352.636	n/a	STOP	1176318	n/a	LTP236	ltpFR2	1	n/a	n/a	n/a	17	n/a	n/a	n/a	n/a
2355.824	n/a	REC_START	1177912	n/a	LTP236	ltpFR2	1	10	n/a	n/a	n/a	n/a	0	0	0
2356.978	n/a	REC_WORD	1178489	wordpools/wasnorm_wordpool_576.txt	LTP236	ltpFR2	1	10	YOLK	1633	n/a	n/a	0	0	0
2358.162	n/a	REC_WORD	1179081	wordpools/wasnorm_wordpool_576.txt	LTP236	ltpFR2	1	10	DRAWING	494	n/a	n/a	0	0	0
2359.096	n/a	REC_WORD	1179548	wordpools/wasnorm_wordpool_576.txt	LTP236	ltpFR2	1	10	TERMITE	1451	n/a	n/a	0	0	0
2359.882	n/a	REC_WORD	1179941	wordpools/wasnorm_wordpool_576.txt	LTP236	ltpFR2	1	10	SPIDER	1351	n/a	n/a	0	0	0
2361.092	n/a	REC_WORD	1180546	wordpools/wasnorm_wordpool_576.txt	LTP236	ltpFR2	1	10	POET	1095	n/a	n/a	0	0	0
2362.436	n/a	REC_WORD	1181218	wordpools/wasnorm_wordpool_576.txt	LTP236	ltpFR2	1	10	DINNER	468	n/a	n/a	0	0	0
2363.086	n/a	REC_WORD	1181543	wordpools/wasnorm_wordpool_576.txt	LTP236	ltpFR2	1	10	FIREPLACE	570	n/a	n/a	0	0	0
2364.256	n/a	REC_WORD	1182128	wordpools/wasnorm_wordpool_576.txt	LTP236	ltpFR2	1	10	CANYON	235	n/a	n/a	0	0	0
2365.394	n/a	REC_WORD	1182697	wordpools/wasnorm_wordpool_576.txt	LTP236	ltpFR2	1	10	BALLOON	75	n/a	n/a	0	0	0
2366.69	n/a	REC_WORD	1183345	wordpools/wasnorm_wordpool_576.txt	LTP236	ltpFR2	1	10	FUNGUS	614	n/a	n/a	0	0	0
2371.09	n/a	REC_WORD	1185545	wordpools/wasnorm_wordpool_576.txt	LTP236	ltpFR2	1	10	COUNTRY	388	n/a	n/a	0	0	0
2372.054	n/a	REC_WORD	1186027	wordpools/wasnorm_wordpool_576.txt	LTP236	ltpFR2	1	10	ACTOR	5	n/a	n/a	0	0	0
2372.992	n/a	REC_WORD	1186496	wordpools/wasnorm_wordpool_576.txt	LTP236	ltpFR2	1	10	CANYON	235	n/a	n/a	0	0	0
2399.43	n/a	REC_WORD	1199715	wordpools/wasnorm_wordpool_576.txt	LTP236	ltpFR2	1	10	GRAVE	658	n/a	n/a	0	0	0
2400.92	n/a	REC_WORD	1200460	wordpools/wasnorm_wordpool_576.txt	LTP236	ltpFR2	1	10	HELMET	702	n/a	n/a	0	0	0
2401.892	n/a	REC_WORD	1200946	wordpools/wasnorm_wordpool_576.txt	LTP236	ltpFR2	1	10	HOOD	714	n/a	n/a	0	0	0
2446.286	n/a	WORD	1223143	wordpools/wasnorm_wordpool_576.txt	LTP236	ltpFR2	1	11	WITNESS	1618	n/a	n/a	0	0	0
2448.84	n/a	WORD	1224420	wordpools/wasnorm_wordpool_576.txt	LTP236	ltpFR2	1	11	INMATE	738	n/a	n/a	0	0	0
2451.266	n/a	WORD	1225633	wordpools/wasnorm_wordpool_576.txt	LTP236	ltpFR2	1	11	TYPIST	1532	n/a	n/a	0	0	0
2453.818	n/a	WORD	1226909	wordpools/wasnorm_wordpool_576.txt	LTP236	ltpFR2	1	11	ROBOT	1200	n/a	n/a	0	0	0
2456.37	n/a	WORD	1228185	wordpools/wasnorm_wordpool_576.txt	LTP236	ltpFR2	1	11	SCULPTURE	1258	n/a	n/a	0	0	0
2459.15	n/a	WORD	1229575	wordpools/wasnorm_wordpool_576.txt	LTP236	ltpFR2	1	11	SUNRISE	1407	n/a	n/a	0	0	0
2461.768	n/a	WORD	1230884	wordpools/wasnorm_wordpool_576.txt	LTP236	ltpFR2	1	11	GALLON	618	n/a	n/a	0	0	0
2464.288	n/a	WORD	1232144	wordpools/wasnorm_wordpool_576.txt	LTP236	ltpFR2	1	11	PICTURE	1061	n/a	n/a	0	0	0
2466.772	n/a	WORD	1233386	wordpools/wasnorm_wordpool_576.txt	LTP236	ltpFR2	1	11	HAMPER	682	n/a	n/a	0	0	0
2469.398	n/a	WORD	1234699	wordpools/wasnorm_wordpool_576.txt	LTP236	ltpFR2	1	11	BEEF	113	n/a	n/a	0	0	0
2472.144	n/a	WORD	1236072	wordpools/wasnorm_wordpool_576.txt	LTP236	ltpFR2	1	11	SKETCH	1315	n/a	n/a	0	0	0
2474.796	n/a	WORD	1237398	wordpools/wasnorm_wordpool_576.txt	LTP236	ltpFR2	1	11	CURTAIN	427	n/a	n/a	0	0	0
2477.282	n/a	WORD	1238641	wordpools/wasnorm_wordpool_576.txt	LTP236	ltpFR2	1	11	CUSTARD	429	n/a	n/a	0	0	0
2479.956	n/a	WORD	1239978	wordpools/wasnorm_wordpool_576.txt	LTP236	ltpFR2	1	11	TOASTER	1472	n/a	n/a	0	0	0
2482.524	n/a	WORD	1241262	wordpools/wasnorm_wordpool_576.txt	LTP236	ltpFR2	1	11	MUFFIN	929	n/a	n/a	0	0	0
2484.988	n/a	WORD	1242494	wordpools/wasnorm_wordpool_576.txt	LTP236	ltpFR2	1	11	MILK	895	n/a	n/a	0	0	0
2487.558	n/a	WORD	1243779	wordpools/wasnorm_wordpool_576.txt	LTP236	ltpFR2	1	11	QUARTER	1148	n/a	n/a	0	0	0
2490.28	n/a	WORD	1245140	wordpools/wasnorm_wordpool_576.txt	LTP236	ltpFR2	1	11	PERCH	1048	n/a	n/a	0	0	0
2493.082	n/a	WORD	1246541	wordpools/wasnorm_wordpool_576.txt	LTP236	ltpFR2	1	11	SCARECROW	1245	n/a	n/a	0	0	0
2495.53	n/a	WORD	1247765	wordpools/wasnorm_wordpool_576.txt	LTP236	ltpFR2	1	11	BARLEY	88	n/a	n/a	0	0	0
2498.082	n/a	WORD	1249041	wordpools/wasnorm_wordpool_576.txt	LTP236	ltpFR2	1	11	REPORT	1184	n/a	n/a	0	0	0
2500.568	n/a	WORD	1250284	wordpools/wasnorm_wordpool_576.txt	LTP236	ltpFR2	1	11	CAMEL	223	n/a	n/a	0	0	0
2503.054	n/a	WORD	1251527	wordpools/wasnorm_wordpool_576.txt	LTP236	ltpFR2	1	11	CAFE	216	n/a	n/a	0	0	0
2505.64	n/a	WORD	1252820	wordpools/wasnorm_wordpool_576.txt	LTP236	ltpFR2	1	11	SWAMP	1416	n/a	n/a	0	0	0
2507.258	n/a	START	1253629	n/a	LTP236	ltpFR2	1	n/a	n/a	n/a	18	n/a	n/a	n/a	n/a
2508.404	n/a	DISTRACTOR	1254202	n/a	LTP236	ltpFR2	1	11	n/a	n/a	n/a	n/a	0	0	0
2508.412	n/a	PROB	1254206	n/a	LTP236	ltpFR2	1	n/a	n/a	n/a	18	15	8	2	5
2510.56	n/a	PROB	1255280	n/a	LTP236	ltpFR2	1	n/a	n/a	n/a	18	8	4	1	3
2512.146	n/a	PROB	1256073	n/a	LTP236	ltpFR2	1	n/a	n/a	n/a	18	14	8	1	5
2513.548	n/a	PROB	1256774	n/a	LTP236	ltpFR2	1	n/a	n/a	n/a	18	11	7	2	2
2514.696	n/a	PROB	1257348	n/a	LTP236	ltpFR2	1	n/a	n/a	n/a	18	16	3	8	5
2517.232	n/a	PROB	1258616	n/a	LTP236	ltpFR2	1	n/a	n/a	n/a	18	14	3	6	5
2518.77	n/a	PROB	1259385	n/a	LTP236	ltpFR2	1	n/a	n/a	n/a	18	11	2	3	6
2520.172	n/a	PROB	1260086	n/a	LTP236	ltpFR2	1	n/a	n/a	n/a	18	23	7	7	9
2522.504	n/a	PROB	1261252	n/a	LTP236	ltpFR2	1	n/a	n/a	n/a	18	10	6	3	1
2523.74	n/a	PROB	1261870	n/a	LTP236	ltpFR2	1	n/a	n/a	n/a	18	20	8	6	6
2525.456	n/a	PROB	1262728	n/a	LTP236	ltpFR2	1	n/a	n/a	n/a	18	16	4	5	7
2526.59	n/a	PROB	1263295	n/a	LTP236	ltpFR2	1	n/a	n/a	n/a	18	13	7	4	2
2527.608	n/a	PROB	1263804	n/a	LTP236	ltpFR2	1	n/a	n/a	n/a	18	4	2	1	1
2528.542	n/a	PROB	1264271	n/a	LTP236	ltpFR2	1	n/a	n/a	n/a	18	9	2	3	4
2529.93	n/a	STOP	1264965	n/a	LTP236	ltpFR2	1	n/a	n/a	n/a	18	n/a	n/a	n/a	n/a
2533.182	n/a	REC_START	1266591	n/a	LTP236	ltpFR2	1	11	n/a	n/a	n/a	n/a	0	0	0
2534.694	n/a	REC_WORD	1267347	wordpools/wasnorm_wordpool_576.txt	LTP236	ltpFR2	1	11	CAMEL	223	n/a	n/a	0	0	0
2535.806	n/a	REC_WORD	1267903	wordpools/wasnorm_wordpool_576.txt	LTP236	ltpFR2	1	11	CAFE	216	n/a	n/a	0	0	0
2537.418	n/a	REC_WORD	1268709	wordpools/wasnorm_wordpool_576.txt	LTP236	ltpFR2	1	11	SWAMP	1416	n/a	n/a	0	0	0
2539.292	n/a	REC_WORD	1269646	wordpools/wasnorm_wordpool_576.txt	LTP236	ltpFR2	1	11	INMATE	738	n/a	n/a	0	0	0
2540.43	n/a	REC_WORD	1270215	wordpools/wasnorm_wordpool_576.txt	LTP236	ltpFR2	1	11	TYPIST	1532	n/a	n/a	0	0	0
2541.504	n/a	REC_WORD	1270752	wordpools/wasnorm_wordpool_576.txt	LTP236	ltpFR2	1	11	WITNESS	1618	n/a	n/a	0	0	0
2543.708	n/a	REC_WORD	1271854	wordpools/wasnorm_wordpool_576.txt	LTP236	ltpFR2	1	11	PICTURE	1061	n/a	n/a	0	0	0
2547.304	n/a	REC_WORD	1273652	wordpools/wasnorm_wordpool_576.txt	LTP236	ltpFR2	1	11	SKETCH	1315	n/a	n/a	0	0	0
2549.134	n/a	REC_WORD	1274567	wordpools/wasnorm_wordpool_576.txt	LTP236	ltpFR2	1	11	SUNRISE	1407	n/a	n/a	0	0	0
2550.382	n/a	REC_WORD	1275191	wordpools/wasnorm_wordpool_576.txt	LTP236	ltpFR2	1	11	CURTAIN	427	n/a	n/a	0	0	0
2554.832	n/a	REC_WORD	1277416	wordpools/wasnorm_wordpool_576.txt	LTP236	ltpFR2	1	11	TOASTER	1472	n/a	n/a	0	0	0
2555.952	n/a	REC_WORD	1277976	wordpools/wasnorm_wordpool_576.txt	LTP236	ltpFR2	1	11	BARLEY	88	n/a	n/a	0	0	0
2556.77	n/a	REC_WORD	1278385	wordpools/wasnorm_wordpool_576.txt	LTP236	ltpFR2	1	11	MUFFIN	929	n/a	n/a	0	0	0
2557.758	n/a	REC_WORD	1278879	wordpools/wasnorm_wordpool_576.txt	LTP236	ltpFR2	1	11	QUARTER	1148	n/a	n/a	0	0	0
2558.798	n/a	REC_WORD	1279399	wordpools/wasnorm_wordpool_576.txt	LTP236	ltpFR2	1	11	GALLON	618	n/a	n/a	0	0	0
2559.748	n/a	REC_WORD	1279874	wordpools/wasnorm_wordpool_576.txt	LTP236	ltpFR2	1	11	MILK	895	n/a	n/a	0	0	0
2563.49	n/a	REC_WORD	1281745	wordpools/wasnorm_wordpool_576.txt	LTP236	ltpFR2	1	11	BEEF	113	n/a	n/a	0	0	0
2565.206	n/a	REC_WORD	1282603	wordpools/wasnorm_wordpool_576.txt	LTP236	ltpFR2	1	11	CUSTARD	429	n/a	n/a	0	0	0
2570.874	n/a	REC_WORD	1285437	wordpools/wasnorm_wordpool_576.txt	LTP236	ltpFR2	1	11	PERCH	1048	n/a	n/a	0	0	0
2574.97	n/a	REC_WORD	1287485	wordpools/wasnorm_wordpool_576.txt	LTP236	ltpFR2	1	11	SCARECROW	1245	n/a	n/a	0	0	0
2623.624	n/a	DISTRACTOR	1311812	n/a	LTP236	ltpFR2	1	12	n/a	n/a	n/a	n/a	0	0	0
2623.624	n/a	START	1311812	n/a	LTP236	ltpFR2	1	n/a	n/a	n/a	19	n/a	n/a	n/a	n/a
2623.638	n/a	PROB	1311819	n/a	LTP236	ltpFR2	1	n/a	n/a	n/a	19	13	1	9	3
2625.552	n/a	PROB	1312776	n/a	LTP236	ltpFR2	1	n/a	n/a	n/a	19	12	2	6	4
2628.22	n/a	PROB	1314110	n/a	LTP236	ltpFR2	1	n/a	n/a	n/a	19	13	1	6	6
2629.474	n/a	PROB	1314737	n/a	LTP236	ltpFR2	1	n/a	n/a	n/a	19	13	3	8	2
2631.09	n/a	PROB	1315545	n/a	LTP236	ltpFR2	1	n/a	n/a	n/a	19	10	8	1	1
2632.24	n/a	PROB	1316120	n/a	LTP236	ltpFR2	1	n/a	n/a	n/a	19	19	9	1	9
2633.426	n/a	PROB	1316713	n/a	LTP236	ltpFR2	1	n/a	n/a	n/a	19	15	4	8	3
2634.576	n/a	PROB	1317288	n/a	LTP236	ltpFR2	1	n/a	n/a	n/a	19	9	5	1	3
2636.03	n/a	PROB	1318015	n/a	LTP236	ltpFR2	1	n/a	n/a	n/a	19	7	2	1	4
2637.482	n/a	PROB	1318741	n/a	LTP236	ltpFR2	1	n/a	n/a	n/a	19	18	3	6	9
2638.662	n/a	PROB	1319331	n/a	LTP236	ltpFR2	1	n/a	n/a	n/a	19	17	8	5	4
2640.698	n/a	PROB	1320349	n/a	LTP236	ltpFR2	1	n/a	n/a	n/a	19	15	4	3	8
2641.982	n/a	PROB	1320991	n/a	LTP236	ltpFR2	1	n/a	n/a	n/a	19	16	8	3	5
2644.3	n/a	PROB	1322150	n/a	LTP236	ltpFR2	1	n/a	n/a	n/a	19	4	2	1	1
2645.352	n/a	PROB	1322676	n/a	LTP236	ltpFR2	1	n/a	n/a	n/a	19	15	8	3	4
2646.462	n/a	STOP	1323231	n/a	LTP236	ltpFR2	1	n/a	n/a	n/a	19	n/a	n/a	n/a	n/a
2648.508	n/a	WORD	1324254	wordpools/wasnorm_wordpool_576.txt	LTP236	ltpFR2	1	12	NOMAD	955	n/a	n/a	0	0	0
2651.082	n/a	WORD	1325541	wordpools/wasnorm_wordpool_576.txt	LTP236	ltpFR2	1	12	LION	827	n/a	n/a	0	0	0
2653.594	n/a	WORD	1326797	wordpools/wasnorm_wordpool_576.txt	LTP236	ltpFR2	1	12	MUSTARD	935	n/a	n/a	0	0	0
2656.234	n/a	WORD	1328117	wordpools/wasnorm_wordpool_576.txt	LTP236	ltpFR2	1	12	PRINCE	1124	n/a	n/a	0	0	0
2658.898	n/a	WORD	1329449	wordpools/wasnorm_wordpool_576.txt	LTP236	ltpFR2	1	12	SIBLING	1301	n/a	n/a	0	0	0
2661.44	n/a	WORD	1330720	wordpools/wasnorm_wordpool_576.txt	LTP236	ltpFR2	1	12	DRUG	501	n/a	n/a	0	0	0
2664.242	n/a	WORD	1332121	wordpools/wasnorm_wordpool_576.txt	LTP236	ltpFR2	1	12	POISON	1096	n/a	n/a	0	0	0
2667.004	n/a	WORD	1333502	wordpools/wasnorm_wordpool_576.txt	LTP236	ltpFR2	1	12	COFFEE	341	n/a	n/a	0	0	0
2669.64	n/a	WORD	1334820	wordpools/wasnorm_wordpool_576.txt	LTP236	ltpFR2	1	12	JURY	766	n/a	n/a	0	0	0
2672.45	n/a	WORD	1336225	wordpools/wasnorm_wordpool_576.txt	LTP236	ltpFR2	1	12	GRILL	661	n/a	n/a	0	0	0
2675.052	n/a	WORD	1337526	wordpools/wasnorm_wordpool_576.txt	LTP236	ltpFR2	1	12	HONEY	713	n/a	n/a	0	0	0
2677.572	n/a	WORD	1338786	wordpools/wasnorm_wordpool_576.txt	LTP236	ltpFR2	1	12	HORNET	718	n/a	n/a	0	0	0
2680.324	n/a	WORD	1340162	wordpools/wasnorm_wordpool_576.txt	LTP236	ltpFR2	1	12	FLASK	576	n/a	n/a	0	0	0
2682.992	n/a	WORD	1341496	wordpools/wasnorm_wordpool_576.txt	LTP236	ltpFR2	1	12	PLASTER	1085	n/a	n/a	0	0	0
2685.762	n/a	WORD	1342881	wordpools/wasnorm_wordpool_576.txt	LTP236	ltpFR2	1	12	RECEIPT	1173	n/a	n/a	0	0	0
2688.28	n/a	WORD	1344140	wordpools/wasnorm_wordpool_576.txt	LTP236	ltpFR2	1	12	OFFICE	972	n/a	n/a	0	0	0
2690.85	n/a	WORD	1345425	wordpools/wasnorm_wordpool_576.txt	LTP236	ltpFR2	1	12	SCALLOP	1242	n/a	n/a	0	0	0
2693.358	n/a	WORD	1346679	wordpools/wasnorm_wordpool_576.txt	LTP236	ltpFR2	1	12	STONE	1385	n/a	n/a	0	0	0
2696.054	n/a	WORD	1348027	wordpools/wasnorm_wordpool_576.txt	LTP236	ltpFR2	1	12	KIDNEY	776	n/a	n/a	0	0	0
2698.688	n/a	WORD	1349344	wordpools/wasnorm_wordpool_576.txt	LTP236	ltpFR2	1	12	CITRUS	313	n/a	n/a	0	0	0
2701.226	n/a	WORD	1350613	wordpools/wasnorm_wordpool_576.txt	LTP236	ltpFR2	1	12	SWORD	1423	n/a	n/a	0	0	0
2703.676	n/a	WORD	1351838	wordpools/wasnorm_wordpool_576.txt	LTP236	ltpFR2	1	12	HOOK	715	n/a	n/a	0	0	0
2706.38	n/a	WORD	1353190	wordpools/wasnorm_wordpool_576.txt	LTP236	ltpFR2	1	12	CHAMPAGNE	278	n/a	n/a	0	0	0
2709.132	n/a	WORD	1354566	wordpools/wasnorm_wordpool_576.txt	LTP236	ltpFR2	1	12	PIGMENT	1066	n/a	n/a	0	0	0
2710.74	n/a	START	1355370	n/a	LTP236	ltpFR2	1	n/a	n/a	n/a	20	n/a	n/a	n/a	n/a
2711.806	n/a	DISTRACTOR	1355903	n/a	LTP236	ltpFR2	1	12	n/a	n/a	n/a	n/a	0	0	0
2711.818	n/a	PROB	1355909	n/a	LTP236	ltpFR2	1	n/a	n/a	n/a	20	9	5	3	1
2714.454	n/a	PROB	1357227	n/a	LTP236	ltpFR2	1	n/a	n/a	n/a	20	10	1	1	8
2715.584	n/a	PROB	1357792	n/a	LTP236	ltpFR2	1	n/a	n/a	n/a	20	24	8	7	9
2717.436	n/a	PROB	1358718	n/a	LTP236	ltpFR2	1	n/a	n/a	n/a	20	13	3	2	8
2718.536	n/a	PROB	1359268	n/a	LTP236	ltpFR2	1	n/a	n/a	n/a	20	13	7	2	4
2719.904	n/a	PROB	1359952	n/a	LTP236	ltpFR2	1	n/a	n/a	n/a	20	14	2	4	8
2721.74	n/a	PROB	1360870	n/a	LTP236	ltpFR2	1	n/a	n/a	n/a	20	15	5	7	3
2723.09	n/a	PROB	1361545	n/a	LTP236	ltpFR2	1	n/a	n/a	n/a	20	9	2	5	2
2724.408	n/a	PROB	1362204	n/a	LTP236	ltpFR2	1	n/a	n/a	n/a	20	17	9	4	4
2726.21	n/a	PROB	1363105	n/a	LTP236	ltpFR2	1	n/a	n/a	n/a	20	16	5	7	4
2727.412	n/a	PROB	1363706	n/a	LTP236	ltpFR2	1	n/a	n/a	n/a	20	13	4	5	4
2729.452	n/a	PROB	1364726	n/a	LTP236	ltpFR2	1	n/a	n/a	n/a	20	20	5	6	9
2731.248	n/a	PROB	1365624	n/a	LTP236	ltpFR2	1	n/a	n/a	n/a	20	18	2	9	7
2733.2	n/a	PROB	1366600	n/a	LTP236	ltpFR2	1	n/a	n/a	n/a	20	14	9	3	2
2734.466	n/a	STOP	1367233	n/a	LTP236	ltpFR2	1	n/a	n/a	n/a	20	n/a	n/a	n/a	n/a
2736.544	n/a	REC_START	1368272	n/a	LTP236	ltpFR2	1	12	n/a	n/a	n/a	n/a	0	0	0
2737.428	n/a	REC_WORD	1368714	wordpools/wasnorm_wordpool_576.txt	LTP236	ltpFR2	1	12	CITRUS	313	n/a	n/a	0	0	0
2738.338	n/a	REC_WORD	1369169	wordpools/wasnorm_wordpool_576.txt	LTP236	ltpFR2	1	12	CHAMPAGNE	278	n/a	n/a	0	0	0
2740.128	n/a	REC_WORD	1370064	wordpools/wasnorm_wordpool_576.txt	LTP236	ltpFR2	1	12	PIGMENT	1066	n/a	n/a	0	0	0
2740.882	n/a	REC_WORD	1370441	wordpools/wasnorm_wordpool_576.txt	LTP236	ltpFR2	1	12	SCALLOP	1242	n/a	n/a	0	0	0
2741.884	n/a	REC_WORD	1370942	wordpools/wasnorm_wordpool_576.txt	LTP236	ltpFR2	1	12	STONE	1385	n/a	n/a	0	0	0
2743.328	n/a	REC_WORD	1371664	wordpools/wasnorm_wordpool_576.txt	LTP236	ltpFR2	1	12	OFFICE	972	n/a	n/a	0	0	0
2749.204	n/a	REC_WORD	1374602	wordpools/wasnorm_wordpool_576.txt	LTP236	ltpFR2	1	12	NOMAD	955	n/a	n/a	0	0	0
2751.472	n/a	REC_WORD	1375736	wordpools/wasnorm_wordpool_576.txt	LTP236	ltpFR2	1	12	LION	827	n/a	n/a	0	0	0
2752.676	n/a	REC_WORD	1376338	wordpools/wasnorm_wordpool_576.txt	LTP236	ltpFR2	1	12	MUSTARD	935	n/a	n/a	0	0	0
2754.868	n/a	REC_WORD	1377434	wordpools/wasnorm_wordpool_576.txt	LTP236	ltpFR2	1	12	PRINCE	1124	n/a	n/a	0	0	0
2755.704	n/a	REC_WORD	1377852	wordpools/wasnorm_wordpool_576.txt	LTP236	ltpFR2	1	12	SIBLING	1301	n/a	n/a	0	0	0
2757.764	n/a	REC_WORD	1378882	wordpools/wasnorm_wordpool_576.txt	LTP236	ltpFR2	1	12	DRUG	501	n/a	n/a	0	0	0
2759.32	n/a	REC_WORD	1379660	wordpools/wasnorm_wordpool_576.txt	LTP236	ltpFR2	1	12	COFFEE	341	n/a	n/a	0	0	0
2809.694	n/a	REC_WORD	1404847	wordpools/wasnorm_wordpool_576.txt	LTP236	ltpFR2	1	12	JURY	766	n/a	n/a	0	0	0
2827.01	n/a	WORD	1413505	wordpools/wasnorm_wordpool_576.txt	LTP236	ltpFR2	1	13	GREASE	660	n/a	n/a	0	0	0
2829.502	n/a	WORD	1414751	wordpools/wasnorm_wordpool_576.txt	LTP236	ltpFR2	1	13	ORANGE	980	n/a	n/a	0	0	0
2832.302	n/a	WORD	1416151	wordpools/wasnorm_wordpool_576.txt	LTP236	ltpFR2	1	13	CARROT	249	n/a	n/a	0	0	0
2835.006	n/a	WORD	1417503	wordpools/wasnorm_wordpool_576.txt	LTP236	ltpFR2	1	13	THREAD	1460	n/a	n/a	0	0	0
2837.656	n/a	WORD	1418828	wordpools/wasnorm_wordpool_576.txt	LTP236	ltpFR2	1	13	BLACKBOARD	133	n/a	n/a	0	0	0
2840.392	n/a	WORD	1420196	wordpools/wasnorm_wordpool_576.txt	LTP236	ltpFR2	1	13	LAGOON	795	n/a	n/a	0	0	0
2843.014	n/a	WORD	1421507	wordpools/wasnorm_wordpool_576.txt	LTP236	ltpFR2	1	13	FIREMAN	569	n/a	n/a	0	0	0
2845.78	n/a	WORD	1422890	wordpools/wasnorm_wordpool_576.txt	LTP236	ltpFR2	1	13	DRAGON	492	n/a	n/a	0	0	0
2848.436	n/a	WORD	1424218	wordpools/wasnorm_wordpool_576.txt	LTP236	ltpFR2	1	13	SCRIBBLE	1256	n/a	n/a	0	0	0
2850.966	n/a	WORD	1425483	wordpools/wasnorm_wordpool_576.txt	LTP236	ltpFR2	1	13	SPOON	1357	n/a	n/a	0	0	0
2853.716	n/a	WORD	1426858	wordpools/wasnorm_wordpool_576.txt	LTP236	ltpFR2	1	13	PUDDING	1139	n/a	n/a	0	0	0
2856.142	n/a	WORD	1428071	wordpools/wasnorm_wordpool_576.txt	LTP236	ltpFR2	1	13	DRESSER	496	n/a	n/a	0	0	0
2858.772	n/a	WORD	1429386	wordpools/wasnorm_wordpool_576.txt	LTP236	ltpFR2	1	13	CANAL	226	n/a	n/a	0	0	0
2861.358	n/a	WORD	1430679	wordpools/wasnorm_wordpool_576.txt	LTP236	ltpFR2	1	13	GUITAR	670	n/a	n/a	0	0	0
2864.0	n/a	WORD	1432000	wordpools/wasnorm_wordpool_576.txt	LTP236	ltpFR2	1	13	SALT	1229	n/a	n/a	0	0	0
2866.578	n/a	WORD	1433289	wordpools/wasnorm_wordpool_576.txt	LTP236	ltpFR2	1	13	MOP	916	n/a	n/a	0	0	0
2869.32	n/a	WORD	1434660	wordpools/wasnorm_wordpool_576.txt	LTP236	ltpFR2	1	13	GAZELLE	628	n/a	n/a	0	0	0
2871.954	n/a	WORD	1435977	wordpools/wasnorm_wordpool_576.txt	LTP236	ltpFR2	1	13	SHELF	1280	n/a	n/a	0	0	0
2874.452	n/a	WORD	1437226	wordpools/wasnorm_wordpool_576.txt	LTP236	ltpFR2	1	13	CABBAGE	210	n/a	n/a	0	0	0
2877.188	n/a	WORD	1438594	wordpools/wasnorm_wordpool_576.txt	LTP236	ltpFR2	1	13	PASTA	1021	n/a	n/a	0	0	0
2879.922	n/a	WORD	1439961	wordpools/wasnorm_wordpool_576.txt	LTP236	ltpFR2	1	13	VIKING	1565	n/a	n/a	0	0	0
2882.508	n/a	WORD	1441254	wordpools/wasnorm_wordpool_576.txt	LTP236	ltpFR2	1	13	PEPPER	1047	n/a	n/a	0	0	0
2885.01	n/a	WORD	1442505	wordpools/wasnorm_wordpool_576.txt	LTP236	ltpFR2	1	13	DORM	488	n/a	n/a	0	0	0
2887.718	n/a	WORD	1443859	wordpools/wasnorm_wordpool_576.txt	LTP236	ltpFR2	1	13	NOTEBOOK	959	n/a	n/a	0	0	0
2889.33	n/a	START	1444665	n/a	LTP236	ltpFR2	1	n/a	n/a	n/a	21	n/a	n/a	n/a	n/a
2890.516	n/a	DISTRACTOR	1445258	n/a	LTP236	ltpFR2	1	13	n/a	n/a	n/a	n/a	0	0	0
2890.522	n/a	PROB	1445261	n/a	LTP236	ltpFR2	1	n/a	n/a	n/a	21	6	2	2	2
2892.362	n/a	PROB	1446181	n/a	LTP236	ltpFR2	1	n/a	n/a	n/a	21	14	6	2	6
2893.632	n/a	PROB	1446816	n/a	LTP236	ltpFR2	1	n/a	n/a	n/a	21	12	3	6	3
2897.218	n/a	PROB	1448609	n/a	LTP236	ltpFR2	1	n/a	n/a	n/a	21	19	7	7	5
2899.954	n/a	PROB	1449977	n/a	LTP236	ltpFR2	1	n/a	n/a	n/a	21	15	3	6	6
2901.872	n/a	PROB	1450936	n/a	LTP236	ltpFR2	1	n/a	n/a	n/a	21	14	3	8	3
2902.99	n/a	PROB	1451495	n/a	LTP236	ltpFR2	1	n/a	n/a	n/a	21	18	1	8	9
2904.174	n/a	PROB	1452087	n/a	LTP236	ltpFR2	1	n/a	n/a	n/a	21	15	2	9	4
2905.558	n/a	PROB	1452779	n/a	LTP236	ltpFR2	1	n/a	n/a	n/a	21	13	2	8	3
2907.742	n/a	PROB	1453871	n/a	LTP236	ltpFR2	1	n/a	n/a	n/a	21	19	8	7	4
2909.96	n/a	PROB	1454980	n/a	LTP236	ltpFR2	1	n/a	n/a	n/a	21	20	7	5	8
2911.33	n/a	PROB	1455665	n/a	LTP236	ltpFR2	1	n/a	n/a	n/a	21	8	2	4	2
2913.294	n/a	STOP	1456647	n/a	LTP236	ltpFR2	1	n/a	n/a	n/a	21	n/a	n/a	n/a	n/a
2915.1	n/a	REC_START	1457550	n/a	LTP236	ltpFR2	1	13	n/a	n/a	n/a	n/a	0	0	0
2916.058	n/a	REC_WORD	1458029	wordpools/wasnorm_wordpool_576.txt	LTP236	ltpFR2	1	13	NOTEBOOK	959	n/a	n/a	0	0	0
2917.152	n/a	REC_WORD	1458576	wordpools/wasnorm_wordpool_576.txt	LTP236	ltpFR2	1	13	VIKING	1565	n/a	n/a	0	0	0
2918.596	n/a	REC_WORD	1459298	wordpools/wasnorm_wordpool_576.txt	LTP236	ltpFR2	1	13	DORM	488	n/a	n/a	0	0	0
2922.8	n/a	REC_WORD	1461400	wordpools/wasnorm_wordpool_576.txt	LTP236	ltpFR2	1	13	DRESSER	496	n/a	n/a	0	0	0
2924.862	n/a	REC_WORD	1462431	wordpools/wasnorm_wordpool_576.txt	LTP236	ltpFR2	1	13	SALT	1229	n/a	n/a	0	0	0
2926.06	n/a	REC_WORD	1463030	wordpools/wasnorm_wordpool_576.txt	LTP236	ltpFR2	1	13	PEPPER	1047	n/a	n/a	0	0	0
2927.932	n/a	REC_WORD	1463966	wordpools/wasnorm_wordpool_576.txt	LTP236	ltpFR2	1	13	GREASE	660	n/a	n/a	0	0	0
2928.896	n/a	REC_WORD	1464448	wordpools/wasnorm_wordpool_576.txt	LTP236	ltpFR2	1	13	SPOON	1357	n/a	n/a	0	0	0
2930.528	n/a	REC_WORD	1465264	wordpools/wasnorm_wordpool_576.txt	LTP236	ltpFR2	1	13	PUDDING	1139	n/a	n/a	0	0	0
2935.612	n/a	REC_WORD	1467806	wordpools/wasnorm_wordpool_576.txt	LTP236	ltpFR2	1	13	ORANGE	980	n/a	n/a	0	0	0
2936.892	n/a	REC_WORD	1468446	wordpools/wasnorm_wordpool_576.txt	LTP236	ltpFR2	1	13	CARROT	249	n/a	n/a	0	0	0
2941.696	n/a	REC_WORD	1470848	wordpools/wasnorm_wordpool_576.txt	LTP236	ltpFR2	1	13	CANAL	226	n/a	n/a	0	0	0
2942.806	n/a	REC_WORD	1471403	wordpools/wasnorm_wordpool_576.txt	LTP236	ltpFR2	1	13	GUITAR	670	n/a	n/a	0	0	0
2965.06	n/a	REC_WORD_VV	1482530	wordpools/wasnorm_wordpool_576.txt	LTP236	ltpFR2	1	13	<>	-1	n/a	n/a	0	0	0
2965.562	n/a	REC_WORD	1482781	wordpools/wasnorm_wordpool_576.txt	LTP236	ltpFR2	1	13	LETTUCE	814	n/a	n/a	0	0	0
2970.512	n/a	REC_WORD	1485256	wordpools/wasnorm_wordpool_576.txt	LTP236	ltpFR2	1	13	PASTA	1021	n/a	n/a	0	0	0
3005.572	n/a	WORD	1502786	wordpools/wasnorm_wordpool_576.txt	LTP236	ltpFR2	1	14	KITCHEN	778	n/a	n/a	0	0	0
3008.34	n/a	WORD	1504170	wordpools/wasnorm_wordpool_576.txt	LTP236	ltpFR2	1	14	COOKBOOK	373	n/a	n/a	0	0	0
3011.026	n/a	WORD	1505513	wordpools/wasnorm_wordpool_576.txt	LTP236	ltpFR2	1	14	JUGGLER	763	n/a	n/a	0	0	0
3013.544	n/a	WORD	1506772	wordpools/wasnorm_wordpool_576.txt	LTP236	ltpFR2	1	14	BEAST	108	n/a	n/a	0	0	0
3016.346	n/a	WORD	1508173	wordpools/wasnorm_wordpool_576.txt	LTP236	ltpFR2	1	14	ARM	38	n/a	n/a	0	0	0
3019.132	n/a	WORD	1509566	wordpools/wasnorm_wordpool_576.txt	LTP236	ltpFR2	1	14	POSTAGE	1113	n/a	n/a	0	0	0
3021.936	n/a	WORD	1510968	wordpools/wasnorm_wordpool_576.txt	LTP236	ltpFR2	1	14	PACKAGE	997	n/a	n/a	0	0	0
3024.604	n/a	WORD	1512302	wordpools/wasnorm_wordpool_576.txt	LTP236	ltpFR2	1	14	LAVA	804	n/a	n/a	0	0	0
3027.338	n/a	WORD	1513669	wordpools/wasnorm_wordpool_576.txt	LTP236	ltpFR2	1	14	CHAPEL	280	n/a	n/a	0	0	0
3030.108	n/a	WORD	1515054	wordpools/wasnorm_wordpool_576.txt	LTP236	ltpFR2	1	14	SEAL	1262	n/a	n/a	0	0	0
3032.944	n/a	WORD	1516472	wordpools/wasnorm_wordpool_576.txt	LTP236	ltpFR2	1	14	VALLEY	1545	n/a	n/a	0	0	0
3035.514	n/a	WORD	1517757	wordpools/wasnorm_wordpool_576.txt	LTP236	ltpFR2	1	14	NOVEL	960	n/a	n/a	0	0	0
3038.314	n/a	WORD	1519157	wordpools/wasnorm_wordpool_576.txt	LTP236	ltpFR2	1	14	HAWK	692	n/a	n/a	0	0	0
3041.134	n/a	WORD	1520567	wordpools/wasnorm_wordpool_576.txt	LTP236	ltpFR2	1	14	AIRPLANE	12	n/a	n/a	0	0	0
3043.754	n/a	WORD	1521877	wordpools/wasnorm_wordpool_576.txt	LTP236	ltpFR2	1	14	PISTOL	1075	n/a	n/a	0	0	0
3046.272	n/a	WORD	1523136	wordpools/wasnorm_wordpool_576.txt	LTP236	ltpFR2	1	14	CHURCH	307	n/a	n/a	0	0	0
3048.722	n/a	WORD	1524361	wordpools/wasnorm_wordpool_576.txt	LTP236	ltpFR2	1	14	LEADER	807	n/a	n/a	0	0	0
3051.258	n/a	WORD	1525629	wordpools/wasnorm_wordpool_576.txt	LTP236	ltpFR2	1	14	HUSBAND	728	n/a	n/a	0	0	0
3054.044	n/a	WORD	1527022	wordpools/wasnorm_wordpool_576.txt	LTP236	ltpFR2	1	14	BODY	145	n/a	n/a	0	0	0
3056.83	n/a	WORD	1528415	wordpools/wasnorm_wordpool_576.txt	LTP236	ltpFR2	1	14	JUDGE	761	n/a	n/a	0	0	0
3059.466	n/a	WORD	1529733	wordpools/wasnorm_wordpool_576.txt	LTP236	ltpFR2	1	14	STUDENT	1395	n/a	n/a	0	0	0
3062.168	n/a	WORD	1531084	wordpools/wasnorm_wordpool_576.txt	LTP236	ltpFR2	1	14	ANKLE	24	n/a	n/a	0	0	0
3064.752	n/a	WORD	1532376	wordpools/wasnorm_wordpool_576.txt	LTP236	ltpFR2	1	14	PREACHER	1119	n/a	n/a	0	0	0
3067.572	n/a	WORD	1533786	wordpools/wasnorm_wordpool_576.txt	LTP236	ltpFR2	1	14	YARN	1631	n/a	n/a	0	0	0
3069.19	n/a	START	1534595	n/a	LTP236	ltpFR2	1	n/a	n/a	n/a	22	n/a	n/a	n/a	n/a
3069.996	n/a	DISTRACTOR	1534998	n/a	LTP236	ltpFR2	1	14	n/a	n/a	n/a	n/a	0	0	0
3070.006	n/a	PROB	1535003	n/a	LTP236	ltpFR2	1	n/a	n/a	n/a	22	11	2	5	4
3073.592	n/a	PROB	1536796	n/a	LTP236	ltpFR2	1	n/a	n/a	n/a	22	13	1	8	4
3074.96	n/a	PROB	1537480	n/a	LTP236	ltpFR2	1	n/a	n/a	n/a	22	24	9	6	9
3076.826	n/a	PROB	1538413	n/a	LTP236	ltpFR2	1	n/a	n/a	n/a	22	13	6	4	3
3078.71	n/a	PROB	1539355	n/a	LTP236	ltpFR2	1	n/a	n/a	n/a	22	19	5	5	9
3079.878	n/a	PROB	1539939	n/a	LTP236	ltpFR2	1	n/a	n/a	n/a	22	14	4	8	2
3081.098	n/a	PROB	1540549	n/a	LTP236	ltpFR2	1	n/a	n/a	n/a	22	14	2	8	4
3082.582	n/a	PROB	1541291	n/a	LTP236	ltpFR2	1	n/a	n/a	n/a	22	19	6	6	7
3084.05	n/a	PROB	1542025	n/a	LTP236	ltpFR2	1	n/a	n/a	n/a	22	14	6	3	5
3085.716	n/a	PROB	1542858	n/a	LTP236	ltpFR2	1	n/a	n/a	n/a	22	9	4	4	1
3086.7	n/a	PROB	1543350	n/a	LTP236	ltpFR2	1	n/a	n/a	n/a	22	3	1	1	1
3087.604	n/a	PROB	1543802	n/a	LTP236	ltpFR2	1	n/a	n/a	n/a	22	20	8	4	6
3089.22	n/a	PROB	1544610	n/a	LTP236	ltpFR2	1	n/a	n/a	n/a	22	21	8	9	4
3090.888	n/a	PROB	1545444	n/a	LTP236	ltpFR2	1	n/a	n/a	n/a	22	14	7	1	6
3091.972	n/a	STOP	1545986	n/a	LTP236	ltpFR2	1	n/a	n/a	n/a	22	n/a	n/a	n/a	n/a
3095.008	n/a	REC_START	1547504	n/a	LTP236	ltpFR2	1	14	n/a	n/a	n/a	n/a	0	0	0
3095.984	n/a	REC_WORD	1547992	wordpools/wasnorm_wordpool_576.txt	LTP236	ltpFR2	1	14	ANKLE	24	n/a	n/a	0	0	0
3096.778	n/a	REC_WORD	1548389	wordpools/wasnorm_wordpool_576.txt	LTP236	ltpFR2	1	14	PREACHER	1119	n/a	n/a	0	0	0
3097.826	n/a	REC_WORD	1548913	wordpools/wasnorm_wordpool_576.txt	LTP236	ltpFR2	1	14	YARN	1631	n/a	n/a	0	0	0
3098.868	n/a	REC_WORD	1549434	wordpools/wasnorm_wordpool_576.txt	LTP236	ltpFR2	1	14	CHURCH	307	n/a	n/a	0	0	0
3100.036	n/a	REC_WORD	1550018	wordpools/wasnorm_wordpool_576.txt	LTP236	ltpFR2	1	14	CHAPEL	280	n/a	n/a	0	0	0
3101.056	n/a	REC_WORD	1550528	wordpools/wasnorm_wordpool_576.txt	LTP236	ltpFR2	1	14	HUSBAND	728	n/a	n/a	0	0	0
3105.678	n/a	REC_WORD	1552839	wordpools/wasnorm_wordpool_576.txt	LTP236	ltpFR2	1	14	PREACHER	1119	n/a	n/a	0	0	0
3115.616	n/a	REC_WORD	1557808	wordpools/wasnorm_wordpool_576.txt	LTP236	ltpFR2	1	14	VALLEY	1545	n/a	n/a	0	0	0
3116.546	n/a	REC_WORD	1558273	wordpools/wasnorm_wordpool_576.txt	LTP236	ltpFR2	1	14	AIRPLANE	12	n/a	n/a	0	0	0
3117.22	n/a	REC_WORD	1558610	wordpools/wasnorm_wordpool_576.txt	LTP236	ltpFR2	1	14	HAWK	692	n/a	n/a	0	0	0
3127.452	n/a	REC_WORD	1563726	wordpools/wasnorm_wordpool_576.txt	LTP236	ltpFR2	1	14	LEADER	807	n/a	n/a	0	0	0
3134.698	n/a	REC_WORD	1567349	wordpools/wasnorm_wordpool_576.txt	LTP236	ltpFR2	1	14	STUDENT	1395	n/a	n/a	0	0	0
3139.33	n/a	REC_WORD	1569665	wordpools/wasnorm_wordpool_576.txt	LTP236	ltpFR2	1	14	ANKLE	24	n/a	n/a	0	0	0
3145.98	n/a	REC_WORD	1572990	wordpools/wasnorm_wordpool_576.txt	LTP236	ltpFR2	1	14	PISTOL	1075	n/a	n/a	0	0	0
3157.588	n/a	REC_WORD	1578794	wordpools/wasnorm_wordpool_576.txt	LTP236	ltpFR2	1	14	SEAL	1262	n/a	n/a	0	0	0
3160.0	n/a	REC_WORD	1580000	wordpools/wasnorm_wordpool_576.txt	LTP236	ltpFR2	1	14	PACKAGE	997	n/a	n/a	0	0	0
3160.986	n/a	REC_WORD	1580493	wordpools/wasnorm_wordpool_576.txt	LTP236	ltpFR2	1	14	POSTAGE	1113	n/a	n/a	0	0	0
3185.442	n/a	DISTRACTOR	1592721	n/a	LTP236	ltpFR2	1	15	n/a	n/a	n/a	n/a	0	0	0
3185.442	n/a	START	1592721	n/a	LTP236	ltpFR2	1	n/a	n/a	n/a	23	n/a	n/a	n/a	n/a
3185.456	n/a	PROB	1592728	n/a	LTP236	ltpFR2	1	n/a	n/a	n/a	23	21	6	8	7
3188.26	n/a	PROB	1594130	n/a	LTP236	ltpFR2	1	n/a	n/a	n/a	23	14	2	8	4
3189.284	n/a	PROB	1594642	n/a	LTP236	ltpFR2	1	n/a	n/a	n/a	23	11	4	3	4
3191.728	n/a	PROB	1595864	n/a	LTP236	ltpFR2	1	n/a	n/a	n/a	23	15	7	6	2
3193.714	n/a	PROB	1596857	n/a	LTP236	ltpFR2	1	n/a	n/a	n/a	23	19	9	2	8
3194.964	n/a	PROB	1597482	n/a	LTP236	ltpFR2	1	n/a	n/a	n/a	23	16	9	6	1
3196.088	n/a	PROB	1598044	n/a	LTP236	ltpFR2	1	n/a	n/a	n/a	23	12	1	8	3
3197.168	n/a	PROB	1598584	n/a	LTP236	ltpFR2	1	n/a	n/a	n/a	23	15	6	2	7
3198.652	n/a	PROB	1599326	n/a	LTP236	ltpFR2	1	n/a	n/a	n/a	23	12	5	6	1
3200.808	n/a	PROB	1600404	n/a	LTP236	ltpFR2	1	n/a	n/a	n/a	23	17	6	2	9
3202.07	n/a	PROB	1601035	n/a	LTP236	ltpFR2	1	n/a	n/a	n/a	23	18	3	9	6
3204.59	n/a	PROB	1602295	n/a	LTP236	ltpFR2	1	n/a	n/a	n/a	23	8	1	2	5
3208.144	n/a	STOP	1604072	n/a	LTP236	ltpFR2	1	n/a	n/a	n/a	23	n/a	n/a	n/a	n/a
3210.464	n/a	WORD	1605232	wordpools/wasnorm_wordpool_576.txt	LTP236	ltpFR2	1	15	DOUGHNUT	490	n/a	n/a	0	0	0
3213.088	n/a	WORD	1606544	wordpools/wasnorm_wordpool_576.txt	LTP236	ltpFR2	1	15	OZONE	996	n/a	n/a	0	0	0
3215.734	n/a	WORD	1607867	wordpools/wasnorm_wordpool_576.txt	LTP236	ltpFR2	1	15	LETTUCE	814	n/a	n/a	0	0	0
3218.286	n/a	WORD	1609143	wordpools/wasnorm_wordpool_576.txt	LTP236	ltpFR2	1	15	BANJO	82	n/a	n/a	0	0	0
3221.01	n/a	WORD	1610505	wordpools/wasnorm_wordpool_576.txt	LTP236	ltpFR2	1	15	FIDDLE	561	n/a	n/a	0	0	0
3223.542	n/a	WORD	1611771	wordpools/wasnorm_wordpool_576.txt	LTP236	ltpFR2	1	15	ASIA	46	n/a	n/a	0	0	0
3226.044	n/a	WORD	1613022	wordpools/wasnorm_wordpool_576.txt	LTP236	ltpFR2	1	15	ATLAS	53	n/a	n/a	0	0	0
3228.682	n/a	WORD	1614341	wordpools/wasnorm_wordpool_576.txt	LTP236	ltpFR2	1	15	LAKE	796	n/a	n/a	0	0	0
3231.3	n/a	WORD	1615650	wordpools/wasnorm_wordpool_576.txt	LTP236	ltpFR2	1	15	SILK	1307	n/a	n/a	0	0	0
3234.034	n/a	WORD	1617017	wordpools/wasnorm_wordpool_576.txt	LTP236	ltpFR2	1	15	BRANDY	169	n/a	n/a	0	0	0
3236.604	n/a	WORD	1618302	wordpools/wasnorm_wordpool_576.txt	LTP236	ltpFR2	1	15	PIANO	1057	n/a	n/a	0	0	0
3239.106	n/a	WORD	1619553	wordpools/wasnorm_wordpool_576.txt	LTP236	ltpFR2	1	15	BLOCKADE	137	n/a	n/a	0	0	0
3241.574	n/a	WORD	1620787	wordpools/wasnorm_wordpool_576.txt	LTP236	ltpFR2	1	15	PARENT	1013	n/a	n/a	0	0	0
3244.396	n/a	WORD	1622198	wordpools/wasnorm_wordpool_576.txt	LTP236	ltpFR2	1	15	KLEENEX	782	n/a	n/a	0	0	0
3246.998	n/a	WORD	1623499	wordpools/wasnorm_wordpool_576.txt	LTP236	ltpFR2	1	15	NAPKIN	937	n/a	n/a	0	0	0
3249.814	n/a	WORD	1624907	wordpools/wasnorm_wordpool_576.txt	LTP236	ltpFR2	1	15	COCOON	339	n/a	n/a	0	0	0
3252.45	n/a	WORD	1626225	wordpools/wasnorm_wordpool_576.txt	LTP236	ltpFR2	1	15	ULCER	1533	n/a	n/a	0	0	0
3255.07	n/a	WORD	1627535	wordpools/wasnorm_wordpool_576.txt	LTP236	ltpFR2	1	15	EUROPE	541	n/a	n/a	0	0	0
3257.572	n/a	WORD	1628786	wordpools/wasnorm_wordpool_576.txt	LTP236	ltpFR2	1	15	COUSIN	392	n/a	n/a	0	0	0
3260.374	n/a	WORD	1630187	wordpools/wasnorm_wordpool_576.txt	LTP236	ltpFR2	1	15	SPOOL	1356	n/a	n/a	0	0	0
3262.926	n/a	WORD	1631463	wordpools/wasnorm_wordpool_576.txt	LTP236	ltpFR2	1	15	JAPAN	749	n/a	n/a	0	0	0
3265.676	n/a	WORD	1632838	wordpools/wasnorm_wordpool_576.txt	LTP236	ltpFR2	1	15	GAVEL	627	n/a	n/a	0	0	0
3268.114	n/a	WORD	1634057	wordpools/wasnorm_wordpool_576.txt	LTP236	ltpFR2	1	15	DRINK	498	n/a	n/a	0	0	0
3270.716	n/a	WORD	1635358	wordpools/wasnorm_wordpool_576.txt	LTP236	ltpFR2	1	15	MISSILE	900	n/a	n/a	0	0	0
3272.336	n/a	START	1636168	n/a	LTP236	ltpFR2	1	n/a	n/a	n/a	24	n/a	n/a	n/a	n/a
3273.38	n/a	DISTRACTOR	1636690	n/a	LTP236	ltpFR2	1	15	n/a	n/a	n/a	n/a	0	0	0
3273.402	n/a	PROB	1636701	n/a	LTP236	ltpFR2	1	n/a	n/a	n/a	24	13	4	1	8
3276.922	n/a	PROB	1638461	n/a	LTP236	ltpFR2	1	n/a	n/a	n/a	24	16	1	9	6
3278.152	n/a	PROB	1639076	n/a	LTP236	ltpFR2	1	n/a	n/a	n/a	24	16	6	5	5
3279.304	n/a	PROB	1639652	n/a	LTP236	ltpFR2	1	n/a	n/a	n/a	24	20	7	4	9
3280.556	n/a	PROB	1640278	n/a	LTP236	ltpFR2	1	n/a	n/a	n/a	24	19	8	7	4
3282.206	n/a	PROB	1641103	n/a	LTP236	ltpFR2	1	n/a	n/a	n/a	24	20	7	5	8
3283.474	n/a	PROB	1641737	n/a	LTP236	ltpFR2	1	n/a	n/a	n/a	24	15	3	6	6
3285.494	n/a	PROB	1642747	n/a	LTP236	ltpFR2	1	n/a	n/a	n/a	24	13	9	2	2
3286.994	n/a	PROB	1643497	n/a	LTP236	ltpFR2	1	n/a	n/a	n/a	24	19	4	6	9
3288.146	n/a	PROB	1644073	n/a	LTP236	ltpFR2	1	n/a	n/a	n/a	24	24	9	9	6
3289.412	n/a	PROB	1644706	n/a	LTP236	ltpFR2	1	n/a	n/a	n/a	24	20	8	7	5
3291.114	n/a	PROB	1645557	n/a	LTP236	ltpFR2	1	n/a	n/a	n/a	24	16	6	6	4
3292.948	n/a	PROB	1646474	n/a	LTP236	ltpFR2	1	n/a	n/a	n/a	24	1	3	9	5
3294.666	n/a	PROB	1647333	n/a	LTP236	ltpFR2	1	n/a	n/a	n/a	24	13	6	5	2
3296.274	n/a	STOP	1648137	n/a	LTP236	ltpFR2	1	n/a	n/a	n/a	24	n/a	n/a	n/a	n/a
3298.27	n/a	REC_START	1649135	n/a	LTP236	ltpFR2	1	15	n/a	n/a	n/a	n/a	0	0	0
3299.24	n/a	REC_WORD	1649620	wordpools/wasnorm_wordpool_576.txt	LTP236	ltpFR2	1	15	GAVEL	627	n/a	n/a	0	0	0
3300.168	n/a	REC_WORD	1650084	wordpools/wasnorm_wordpool_576.txt	LTP236	ltpFR2	1	15	DRINK	498	n/a	n/a	0	0	0
3301.014	n/a	REC_WORD	1650507	wordpools/wasnorm_wordpool_576.txt	LTP236	ltpFR2	1	15	MISSILE	900	n/a	n/a	0	0	0
3302.1	n/a	REC_WORD	1651050	wordpools/wasnorm_wordpool_576.txt	LTP236	ltpFR2	1	15	JAPAN	749	n/a	n/a	0	0	0
3303.146	n/a	REC_WORD	1651573	wordpools/wasnorm_wordpool_576.txt	LTP236	ltpFR2	1	15	ASIA	46	n/a	n/a	0	0	0
3304.056	n/a	REC_WORD	1652028	wordpools/wasnorm_wordpool_576.txt	LTP236	ltpFR2	1	15	EUROPE	541	n/a	n/a	0	0	0
3307.056	n/a	REC_WORD	1653528	wordpools/wasnorm_wordpool_576.txt	LTP236	ltpFR2	1	15	SILK	1307	n/a	n/a	0	0	0
3308.482	n/a	REC_WORD	1654241	wordpools/wasnorm_wordpool_576.txt	LTP236	ltpFR2	1	15	COCOON	339	n/a	n/a	0	0	0
3309.482	n/a	REC_WORD	1654741	wordpools/wasnorm_wordpool_576.txt	LTP236	ltpFR2	1	15	SPOOL	1356	n/a	n/a	0	0	0
3310.994	n/a	REC_WORD	1655497	wordpools/wasnorm_wordpool_576.txt	LTP236	ltpFR2	1	15	LETTUCE	814	n/a	n/a	0	0	0
3327.088	n/a	REC_WORD	1663544	wordpools/wasnorm_wordpool_576.txt	LTP236	ltpFR2	1	15	PIANO	1057	n/a	n/a	0	0	0
3327.914	n/a	REC_WORD	1663957	wordpools/wasnorm_wordpool_576.txt	LTP236	ltpFR2	1	15	BANJO	82	n/a	n/a	0	0	0
3344.582	n/a	REC_WORD	1672291	wordpools/wasnorm_wordpool_576.txt	LTP236	ltpFR2	1	15	SIBLING	1301	n/a	n/a	0	0	0
3347.194	n/a	REC_WORD	1673597	wordpools/wasnorm_wordpool_576.txt	LTP236	ltpFR2	1	15	COUSIN	392	n/a	n/a	0	0	0
3348.202	n/a	REC_WORD	1674101	wordpools/wasnorm_wordpool_576.txt	LTP236	ltpFR2	1	15	ULCER	1533	n/a	n/a	0	0	0
3388.708	n/a	WORD	1694354	wordpools/wasnorm_wordpool_576.txt	LTP236	ltpFR2	1	16	PUPIL	1143	n/a	n/a	0	0	0
3391.47	n/a	WORD	1695735	wordpools/wasnorm_wordpool_576.txt	LTP236	ltpFR2	1	16	BRICK	172	n/a	n/a	0	0	0
3394.064	n/a	WORD	1697032	wordpools/wasnorm_wordpool_576.txt	LTP236	ltpFR2	1	16	BLUEPRINT	142	n/a	n/a	0	0	0
3396.69	n/a	WORD	1698345	wordpools/wasnorm_wordpool_576.txt	LTP236	ltpFR2	1	16	BABY	64	n/a	n/a	0	0	0
3399.176	n/a	WORD	1699588	wordpools/wasnorm_wordpool_576.txt	LTP236	ltpFR2	1	16	MAMMAL	861	n/a	n/a	0	0	0
3401.978	n/a	WORD	1700989	wordpools/wasnorm_wordpool_576.txt	LTP236	ltpFR2	1	16	FOOT	590	n/a	n/a	0	0	0
3404.704	n/a	WORD	1702352	wordpools/wasnorm_wordpool_576.txt	LTP236	ltpFR2	1	16	PECAN	1036	n/a	n/a	0	0	0
3407.334	n/a	WORD	1703667	wordpools/wasnorm_wordpool_576.txt	LTP236	ltpFR2	1	16	CASHEW	253	n/a	n/a	0	0	0
3409.81	n/a	WORD	1704905	wordpools/wasnorm_wordpool_576.txt	LTP236	ltpFR2	1	16	DASHBOARD	441	n/a	n/a	0	0	0
3412.26	n/a	WORD	1706130	wordpools/wasnorm_wordpool_576.txt	LTP236	ltpFR2	1	16	TRANSPLANT	1496	n/a	n/a	0	0	0
3414.746	n/a	WORD	1707373	wordpools/wasnorm_wordpool_576.txt	LTP236	ltpFR2	1	16	COMPASS	358	n/a	n/a	0	0	0
3417.326	n/a	WORD	1708663	wordpools/wasnorm_wordpool_576.txt	LTP236	ltpFR2	1	16	FLAG	573	n/a	n/a	0	0	0
3419.784	n/a	WORD	1709892	wordpools/wasnorm_wordpool_576.txt	LTP236	ltpFR2	1	16	JELLY	755	n/a	n/a	0	0	0
3422.52	n/a	WORD	1711260	wordpools/wasnorm_wordpool_576.txt	LTP236	ltpFR2	1	16	CREATURE	403	n/a	n/a	0	0	0
3425.14	n/a	WORD	1712570	wordpools/wasnorm_wordpool_576.txt	LTP236	ltpFR2	1	16	REBEL	1172	n/a	n/a	0	0	0
3427.868	n/a	WORD	1713934	wordpools/wasnorm_wordpool_576.txt	LTP236	ltpFR2	1	16	PORTRAIT	1111	n/a	n/a	0	0	0
3430.47	n/a	WORD	1715235	wordpools/wasnorm_wordpool_576.txt	LTP236	ltpFR2	1	16	CAPTIVE	240	n/a	n/a	0	0	0
3433.19	n/a	WORD	1716595	wordpools/wasnorm_wordpool_576.txt	LTP236	ltpFR2	1	16	HOSTESS	723	n/a	n/a	0	0	0
3435.774	n/a	WORD	1717887	wordpools/wasnorm_wordpool_576.txt	LTP236	ltpFR2	1	16	CRICKET	408	n/a	n/a	0	0	0
3438.56	n/a	WORD	1719280	wordpools/wasnorm_wordpool_576.txt	LTP236	ltpFR2	1	16	WARDROBE	1587	n/a	n/a	0	0	0
3441.146	n/a	WORD	1720573	wordpools/wasnorm_wordpool_576.txt	LTP236	ltpFR2	1	16	CRUTCH	417	n/a	n/a	0	0	0
3443.864	n/a	WORD	1721932	wordpools/wasnorm_wordpool_576.txt	LTP236	ltpFR2	1	16	TRUCK	1512	n/a	n/a	0	0	0
3446.654	n/a	WORD	1723327	wordpools/wasnorm_wordpool_576.txt	LTP236	ltpFR2	1	16	FOOTBALL	591	n/a	n/a	0	0	0
3449.236	n/a	WORD	1724618	wordpools/wasnorm_wordpool_576.txt	LTP236	ltpFR2	1	16	GYMNAST	675	n/a	n/a	0	0	0
3450.844	n/a	START	1725422	n/a	LTP236	ltpFR2	1	n/a	n/a	n/a	25	n/a	n/a	n/a	n/a
3451.968	n/a	DISTRACTOR	1725984	n/a	LTP236	ltpFR2	1	16	n/a	n/a	n/a	n/a	0	0	0
3451.976	n/a	PROB	1725988	n/a	LTP236	ltpFR2	1	n/a	n/a	n/a	25	11	4	1	6
3454.172	n/a	PROB	1727086	n/a	LTP236	ltpFR2	1	n/a	n/a	n/a	25	16	8	6	2
3455.856	n/a	PROB	1727928	n/a	LTP236	ltpFR2	1	n/a	n/a	n/a	25	18	1	8	9
3457.024	n/a	PROB	1728512	n/a	LTP236	ltpFR2	1	n/a	n/a	n/a	25	14	4	4	6
3458.444	n/a	PROB	1729222	n/a	LTP236	ltpFR2	1	n/a	n/a	n/a	25	7	2	1	4
3459.618	n/a	PROB	1729809	n/a	LTP236	ltpFR2	1	n/a	n/a	n/a	25	19	5	5	9
3460.78	n/a	PROB	1730390	n/a	LTP236	ltpFR2	1	n/a	n/a	n/a	25	16	6	6	4
3463.4	n/a	PROB	1731700	n/a	LTP236	ltpFR2	1	n/a	n/a	n/a	25	20	7	4	9
3465.282	n/a	PROB	1732641	n/a	LTP236	ltpFR2	1	n/a	n/a	n/a	25	12	2	1	9
3466.318	n/a	PROB	1733159	n/a	LTP236	ltpFR2	1	n/a	n/a	n/a	25	16	4	9	3
3467.82	n/a	PROB	1733910	n/a	LTP236	ltpFR2	1	n/a	n/a	n/a	25	6	4	1	1
3468.92	n/a	PROB	1734460	n/a	LTP236	ltpFR2	1	n/a	n/a	n/a	25	20	5	6	9
3470.654	n/a	PROB	1735327	n/a	LTP236	ltpFR2	1	n/a	n/a	n/a	25	19	5	7	7
3472.358	n/a	PROB	1736179	n/a	LTP236	ltpFR2	1	n/a	n/a	n/a	25	19	1	9	9
3473.384	n/a	STOP	1736692	n/a	LTP236	ltpFR2	1	n/a	n/a	n/a	25	n/a	n/a	n/a	n/a
3476.63	n/a	REC_START	1738315	n/a	LTP236	ltpFR2	1	16	n/a	n/a	n/a	n/a	0	0	0
3477.426	n/a	REC_WORD	1738713	wordpools/wasnorm_wordpool_576.txt	LTP236	ltpFR2	1	16	CRUTCH	417	n/a	n/a	0	0	0
3478.13	n/a	REC_WORD	1739065	wordpools/wasnorm_wordpool_576.txt	LTP236	ltpFR2	1	16	FOOTBALL	591	n/a	n/a	0	0	0
3479.172	n/a	REC_WORD	1739586	wordpools/wasnorm_wordpool_576.txt	LTP236	ltpFR2	1	16	GYMNAST	675	n/a	n/a	0	0	0
3480.312	n/a	REC_WORD	1740156	wordpools/wasnorm_wordpool_576.txt	LTP236	ltpFR2	1	16	TRUCK	1512	n/a	n/a	0	0	0
3481.872	n/a	REC_WORD	1740936	wordpools/wasnorm_wordpool_576.txt	LTP236	ltpFR2	1	16	PUPIL	1143	n/a	n/a	0	0	0
3483.374	n/a	REC_WORD	1741687	wordpools/wasnorm_wordpool_576.txt	LTP236	ltpFR2	1	16	MAMMAL	861	n/a	n/a	0	0	0
3484.088	n/a	REC_WORD	1742044	wordpools/wasnorm_wordpool_576.txt	LTP236	ltpFR2	1	16	CREATURE	403	n/a	n/a	0	0	0
3490.784	n/a	REC_WORD	1745392	wordpools/wasnorm_wordpool_576.txt	LTP236	ltpFR2	1	16	CASHEW	253	n/a	n/a	0	0	0
3492.168	n/a	REC_WORD	1746084	wordpools/wasnorm_wordpool_576.txt	LTP236	ltpFR2	1	16	PECAN	1036	n/a	n/a	0	0	0
3542.37	n/a	REC_WORD	1771185	wordpools/wasnorm_wordpool_576.txt	LTP236	ltpFR2	1	16	CRICKET	408	n/a	n/a	0	0	0
3543.784	n/a	REC_WORD	1771892	wordpools/wasnorm_wordpool_576.txt	LTP236	ltpFR2	1	16	WARDROBE	1587	n/a	n/a	0	0	0
3553.174	n/a	REST_REWET	1776587	n/a	LTP236	ltpFR2	1	16	n/a	n/a	n/a	n/a	0	0	0
3774.116	n/a	DISTRACTOR	1887058	n/a	LTP236	ltpFR2	1	17	n/a	n/a	n/a	n/a	0	0	0
3774.116	n/a	START	1887058	n/a	LTP236	ltpFR2	1	n/a	n/a	n/a	26	n/a	n/a	n/a	n/a
3774.13	n/a	PROB	1887065	n/a	LTP236	ltpFR2	1	n/a	n/a	n/a	26	13	4	6	3
3776.132	n/a	PROB	1888066	n/a	LTP236	ltpFR2	1	n/a	n/a	n/a	26	13	7	1	5
3777.266	n/a	PROB	1888633	n/a	LTP236	ltpFR2	1	n/a	n/a	n/a	26	12	3	6	3
3779.036	n/a	PROB	1889518	n/a	LTP236	ltpFR2	1	n/a	n/a	n/a	26	17	9	1	7
3780.286	n/a	PROB	1890143	n/a	LTP236	ltpFR2	1	n/a	n/a	n/a	26	24	9	9	6
3781.586	n/a	PROB	1890793	n/a	LTP236	ltpFR2	1	n/a	n/a	n/a	26	13	3	1	9
3783.406	n/a	PROB	1891703	n/a	LTP236	ltpFR2	1	n/a	n/a	n/a	26	11	2	1	8
3784.588	n/a	PROB	1892294	n/a	LTP236	ltpFR2	1	n/a	n/a	n/a	26	10	3	3	4
3786.222	n/a	PROB	1893111	n/a	LTP236	ltpFR2	1	n/a	n/a	n/a	26	13	5	7	1
3787.242	n/a	PROB	1893621	n/a	LTP236	ltpFR2	1	n/a	n/a	n/a	26	19	9	9	1
3788.276	n/a	PROB	1894138	n/a	LTP236	ltpFR2	1	n/a	n/a	n/a	26	9	3	3	3
3789.362	n/a	PROB	1894681	n/a	LTP236	ltpFR2	1	n/a	n/a	n/a	26	20	4	7	9
3790.892	n/a	PROB	1895446	n/a	LTP236	ltpFR2	1	n/a	n/a	n/a	26	20	4	8	8
3792.428	n/a	PROB	1896214	n/a	LTP236	ltpFR2	1	n/a	n/a	n/a	26	16	4	9	3
3793.962	n/a	PROB	1896981	n/a	LTP236	ltpFR2	1	n/a	n/a	n/a	26	17	9	6	2
3795.678	n/a	PROB	1897839	n/a	LTP236	ltpFR2	1	n/a	n/a	n/a	26	16	7	1	8
3796.858	n/a	STOP	1898429	n/a	LTP236	ltpFR2	1	n/a	n/a	n/a	26	n/a	n/a	n/a	n/a
3799.236	n/a	WORD	1899618	wordpools/wasnorm_wordpool_576.txt	LTP236	ltpFR2	1	17	WASHER	1592	n/a	n/a	0	0	0
3801.838	n/a	WORD	1900919	wordpools/wasnorm_wordpool_576.txt	LTP236	ltpFR2	1	17	BANK	83	n/a	n/a	0	0	0
3804.456	n/a	WORD	1902228	wordpools/wasnorm_wordpool_576.txt	LTP236	ltpFR2	1	17	PASSAGE	1019	n/a	n/a	0	0	0
3807.146	n/a	WORD	1903573	wordpools/wasnorm_wordpool_576.txt	LTP236	ltpFR2	1	17	CREVICE	405	n/a	n/a	0	0	0
3809.828	n/a	WORD	1904914	wordpools/wasnorm_wordpool_576.txt	LTP236	ltpFR2	1	17	TEACHER	1440	n/a	n/a	0	0	0
3812.58	n/a	WORD	1906290	wordpools/wasnorm_wordpool_576.txt	LTP236	ltpFR2	1	17	MACHINE	852	n/a	n/a	0	0	0
3815.048	n/a	WORD	1907524	wordpools/wasnorm_wordpool_576.txt	LTP236	ltpFR2	1	17	PATROL	1027	n/a	n/a	0	0	0
