onset	duration	trial_type	sample	stim_file	subject	experiment	session	trial	task	item_name	item_num	recog_conf	resp	answer	test_x	test_y	test_z	color_b	color_g	color_r	case	font
285.2	n/a	SESS_START	142600	n/a	LTP293	ltpFR	13	n/a	n/a	n/a	n/a	3	n/a	n/a	0	0	0	n/a	n/a	n/a	n/a	n/a
309.88	n/a	START	154940	n/a	LTP293	ltpFR	13	n/a	n/a	n/a	n/a	n/a	n/a	n/a	n/a	n/a	n/a	n/a	n/a	n/a	n/a	n/a
309.912	n/a	PROB	154956	n/a	LTP293	ltpFR	13	n/a	n/a	n/a	n/a	n/a	n/a	12	2	6	4	n/a	n/a	n/a	n/a	n/a
312.178	n/a	PROB	156089	n/a	LTP293	ltpFR	13	n/a	n/a	n/a	n/a	n/a	n/a	18	9	4	5	n/a	n/a	n/a	n/a	n/a
313.574	n/a	PROB	156787	n/a	LTP293	ltpFR	13	n/a	n/a	n/a	n/a	n/a	n/a	17	6	9	2	n/a	n/a	n/a	n/a	n/a
315.056	n/a	PROB	157528	n/a	LTP293	ltpFR	13	n/a	n/a	n/a	n/a	n/a	n/a	17	3	9	5	n/a	n/a	n/a	n/a	n/a
316.404	n/a	PROB	158202	n/a	LTP293	ltpFR	13	n/a	n/a	n/a	n/a	n/a	n/a	7	4	2	1	n/a	n/a	n/a	n/a	n/a
317.784	n/a	PROB	158892	n/a	LTP293	ltpFR	13	n/a	n/a	n/a	n/a	n/a	n/a	19	6	7	6	n/a	n/a	n/a	n/a	n/a
320.764	n/a	PROB	160382	n/a	LTP293	ltpFR	13	n/a	n/a	n/a	n/a	n/a	n/a	16	9	3	4	n/a	n/a	n/a	n/a	n/a
322.044	n/a	PROB	161022	n/a	LTP293	ltpFR	13	n/a	n/a	n/a	n/a	n/a	n/a	18	5	7	6	n/a	n/a	n/a	n/a	n/a
323.876	n/a	PROB	161938	n/a	LTP293	ltpFR	13	n/a	n/a	n/a	n/a	n/a	n/a	16	9	2	5	n/a	n/a	n/a	n/a	n/a
325.04	n/a	PROB	162520	n/a	LTP293	ltpFR	13	n/a	n/a	n/a	n/a	n/a	n/a	14	3	7	4	n/a	n/a	n/a	n/a	n/a
326.888	n/a	PROB	163444	n/a	LTP293	ltpFR	13	n/a	n/a	n/a	n/a	n/a	n/a	19	7	4	8	n/a	n/a	n/a	n/a	n/a
329.538	n/a	STOP	164769	n/a	LTP293	ltpFR	13	n/a	n/a	n/a	n/a	n/a	n/a	n/a	n/a	n/a	n/a	n/a	n/a	n/a	n/a	n/a
366.58	n/a	START	183290	n/a	LTP293	ltpFR	13	n/a	n/a	n/a	n/a	n/a	n/a	n/a	n/a	n/a	n/a	n/a	n/a	n/a	n/a	n/a
368.092	n/a	PROB	184046	n/a	LTP293	ltpFR	13	n/a	n/a	n/a	n/a	n/a	n/a	7	1	3	3	n/a	n/a	n/a	n/a	n/a
369.774	n/a	PROB	184887	n/a	LTP293	ltpFR	13	n/a	n/a	n/a	n/a	n/a	n/a	16	6	3	7	n/a	n/a	n/a	n/a	n/a
371.638	n/a	PROB	185819	n/a	LTP293	ltpFR	13	n/a	n/a	n/a	n/a	n/a	n/a	17	7	3	7	n/a	n/a	n/a	n/a	n/a
373.57	n/a	STOP	186785	n/a	LTP293	ltpFR	13	n/a	n/a	n/a	n/a	n/a	n/a	n/a	n/a	n/a	n/a	n/a	n/a	n/a	n/a	n/a
375.45	n/a	WORD	187725	wordpools/wasnorm_wordpool_less_exclusions.txt	LTP293	ltpFR	13	1	0	SCAPEGOAT	1244	n/a	1	n/a	0	0	0	0	0.5869140625	0.422607421875	lower	../fonts/zerothre.ttf
378.462	n/a	START	189231	n/a	LTP293	ltpFR	13	n/a	n/a	n/a	n/a	n/a	n/a	n/a	n/a	n/a	n/a	n/a	n/a	n/a	n/a	n/a
379.278	n/a	PROB	189639	n/a	LTP293	ltpFR	13	n/a	n/a	n/a	n/a	n/a	n/a	12	3	5	4	n/a	n/a	n/a	n/a	n/a
380.758	n/a	PROB	190379	n/a	LTP293	ltpFR	13	n/a	n/a	n/a	n/a	n/a	n/a	16	6	1	9	n/a	n/a	n/a	n/a	n/a
381.872	n/a	PROB	190936	n/a	LTP293	ltpFR	13	n/a	n/a	n/a	n/a	n/a	n/a	16	6	5	5	n/a	n/a	n/a	n/a	n/a
382.888	n/a	PROB	191444	n/a	LTP293	ltpFR	13	n/a	n/a	n/a	n/a	n/a	n/a	4	2	1	1	n/a	n/a	n/a	n/a	n/a
383.986	n/a	PROB	191993	n/a	LTP293	ltpFR	13	n/a	n/a	n/a	n/a	n/a	n/a	15	9	3	3	n/a	n/a	n/a	n/a	n/a
385.444	n/a	STOP	192722	n/a	LTP293	ltpFR	13	n/a	n/a	n/a	n/a	n/a	n/a	n/a	n/a	n/a	n/a	n/a	n/a	n/a	n/a	n/a
387.516	n/a	WORD	193758	wordpools/wasnorm_wordpool_less_exclusions.txt	LTP293	ltpFR	13	1	0	AUTOMOBILE	62	n/a	1	n/a	0	0	0	0	0.5869140625	0.422607421875	lower	../fonts/zerothre.ttf
390.528	n/a	START	195264	n/a	LTP293	ltpFR	13	n/a	n/a	n/a	n/a	n/a	n/a	n/a	n/a	n/a	n/a	n/a	n/a	n/a	n/a	n/a
391.66	n/a	PROB	195830	n/a	LTP293	ltpFR	13	n/a	n/a	n/a	n/a	n/a	n/a	13	3	9	1	n/a	n/a	n/a	n/a	n/a
393.19	n/a	PROB	196595	n/a	LTP293	ltpFR	13	n/a	n/a	n/a	n/a	n/a	n/a	14	4	3	7	n/a	n/a	n/a	n/a	n/a
394.786	n/a	PROB	197393	n/a	LTP293	ltpFR	13	n/a	n/a	n/a	n/a	n/a	n/a	23	8	6	9	n/a	n/a	n/a	n/a	n/a
397.01	n/a	STOP	198505	n/a	LTP293	ltpFR	13	n/a	n/a	n/a	n/a	n/a	n/a	n/a	n/a	n/a	n/a	n/a	n/a	n/a	n/a	n/a
399.58	n/a	WORD	199790	wordpools/wasnorm_wordpool_less_exclusions.txt	LTP293	ltpFR	13	1	0	SCALE	1241	n/a	0	n/a	0	0	0	0	0.5869140625	0.422607421875	lower	../fonts/zerothre.ttf
402.594	n/a	START	201297	n/a	LTP293	ltpFR	13	n/a	n/a	n/a	n/a	n/a	n/a	n/a	n/a	n/a	n/a	n/a	n/a	n/a	n/a	n/a
403.774	n/a	PROB	201887	n/a	LTP293	ltpFR	13	n/a	n/a	n/a	n/a	n/a	n/a	8	2	5	1	n/a	n/a	n/a	n/a	n/a
405.638	n/a	PROB	202819	n/a	LTP293	ltpFR	13	n/a	n/a	n/a	n/a	n/a	n/a	18	6	9	3	n/a	n/a	n/a	n/a	n/a
407.668	n/a	PROB	203834	n/a	LTP293	ltpFR	13	n/a	n/a	n/a	n/a	n/a	n/a	15	8	4	3	n/a	n/a	n/a	n/a	n/a
410.58	n/a	STOP	205290	n/a	LTP293	ltpFR	13	n/a	n/a	n/a	n/a	n/a	n/a	n/a	n/a	n/a	n/a	n/a	n/a	n/a	n/a	n/a
411.744	n/a	WORD	205872	wordpools/wasnorm_wordpool_less_exclusions.txt	LTP293	ltpFR	13	1	0	SYRUP	1425	n/a	0	n/a	0	0	0	0	0.5869140625	0.422607421875	lower	../fonts/zerothre.ttf
414.758	n/a	START	207379	n/a	LTP293	ltpFR	13	n/a	n/a	n/a	n/a	n/a	n/a	n/a	n/a	n/a	n/a	n/a	n/a	n/a	n/a	n/a
415.788	n/a	PROB	207894	n/a	LTP293	ltpFR	13	n/a	n/a	n/a	n/a	n/a	n/a	17	6	7	4	n/a	n/a	n/a	n/a	n/a
418.636	n/a	PROB	209318	n/a	LTP293	ltpFR	13	n/a	n/a	n/a	n/a	n/a	n/a	18	9	6	3	n/a	n/a	n/a	n/a	n/a
419.95	n/a	PROB	209975	n/a	LTP293	ltpFR	13	n/a	n/a	n/a	n/a	n/a	n/a	16	6	7	3	n/a	n/a	n/a	n/a	n/a
421.082	n/a	PROB	210541	n/a	LTP293	ltpFR	13	n/a	n/a	n/a	n/a	n/a	n/a	9	4	4	1	n/a	n/a	n/a	n/a	n/a
422.26	n/a	STOP	211130	n/a	LTP293	ltpFR	13	n/a	n/a	n/a	n/a	n/a	n/a	n/a	n/a	n/a	n/a	n/a	n/a	n/a	n/a	n/a
423.662	n/a	WORD	211831	wordpools/wasnorm_wordpool_less_exclusions.txt	LTP293	ltpFR	13	1	0	TOWN	1491	n/a	1	n/a	0	0	0	0	0.5869140625	0.422607421875	lower	../fonts/zerothre.ttf
426.674	n/a	START	213337	n/a	LTP293	ltpFR	13	n/a	n/a	n/a	n/a	n/a	n/a	n/a	n/a	n/a	n/a	n/a	n/a	n/a	n/a	n/a
427.522	n/a	PROB	213761	n/a	LTP293	ltpFR	13	n/a	n/a	n/a	n/a	n/a	n/a	10	2	1	7	n/a	n/a	n/a	n/a	n/a
428.736	n/a	PROB	214368	n/a	LTP293	ltpFR	13	n/a	n/a	n/a	n/a	n/a	n/a	10	6	1	3	n/a	n/a	n/a	n/a	n/a
430.202	n/a	PROB	215101	n/a	LTP293	ltpFR	13	n/a	n/a	n/a	n/a	n/a	n/a	14	5	2	7	n/a	n/a	n/a	n/a	n/a
431.35	n/a	PROB	215675	n/a	LTP293	ltpFR	13	n/a	n/a	n/a	n/a	n/a	n/a	6	3	1	2	n/a	n/a	n/a	n/a	n/a
433.212	n/a	STOP	216606	n/a	LTP293	ltpFR	13	n/a	n/a	n/a	n/a	n/a	n/a	n/a	n/a	n/a	n/a	n/a	n/a	n/a	n/a	n/a
435.81	n/a	WORD	217905	wordpools/wasnorm_wordpool_less_exclusions.txt	LTP293	ltpFR	13	1	0	FACTORY	548	n/a	1	n/a	0	0	0	0	0.5869140625	0.422607421875	lower	../fonts/zerothre.ttf
438.822	n/a	START	219411	n/a	LTP293	ltpFR	13	n/a	n/a	n/a	n/a	n/a	n/a	n/a	n/a	n/a	n/a	n/a	n/a	n/a	n/a	n/a
440.036	n/a	PROB	220018	n/a	LTP293	ltpFR	13	n/a	n/a	n/a	n/a	n/a	n/a	16	6	6	4	n/a	n/a	n/a	n/a	n/a
441.7	n/a	PROB	220850	n/a	LTP293	ltpFR	13	n/a	n/a	n/a	n/a	n/a	n/a	12	3	5	4	n/a	n/a	n/a	n/a	n/a
442.916	n/a	PROB	221458	n/a	LTP293	ltpFR	13	n/a	n/a	n/a	n/a	n/a	n/a	23	6	9	8	n/a	n/a	n/a	n/a	n/a
446.802	n/a	STOP	223401	n/a	LTP293	ltpFR	13	n/a	n/a	n/a	n/a	n/a	n/a	n/a	n/a	n/a	n/a	n/a	n/a	n/a	n/a	n/a
447.974	n/a	WORD	223987	wordpools/wasnorm_wordpool_less_exclusions.txt	LTP293	ltpFR	13	1	0	TRUCK	1512	n/a	1	n/a	0	0	0	0	0.5869140625	0.422607421875	lower	../fonts/zerothre.ttf
450.986	n/a	START	225493	n/a	LTP293	ltpFR	13	n/a	n/a	n/a	n/a	n/a	n/a	n/a	n/a	n/a	n/a	n/a	n/a	n/a	n/a	n/a
452.084	n/a	PROB	226042	n/a	LTP293	ltpFR	13	n/a	n/a	n/a	n/a	n/a	n/a	12	1	7	4	n/a	n/a	n/a	n/a	n/a
453.368	n/a	PROB	226684	n/a	LTP293	ltpFR	13	n/a	n/a	n/a	n/a	n/a	n/a	10	2	5	3	n/a	n/a	n/a	n/a	n/a
456.062	n/a	PROB	228031	n/a	LTP293	ltpFR	13	n/a	n/a	n/a	n/a	n/a	n/a	10	1	6	3	n/a	n/a	n/a	n/a	n/a
457.66	n/a	STOP	228830	n/a	LTP293	ltpFR	13	n/a	n/a	n/a	n/a	n/a	n/a	n/a	n/a	n/a	n/a	n/a	n/a	n/a	n/a	n/a
460.156	n/a	WORD	230078	wordpools/wasnorm_wordpool_less_exclusions.txt	LTP293	ltpFR	13	1	0	ARTICLE	42	n/a	0	n/a	0	0	0	0	0.5869140625	0.422607421875	lower	../fonts/zerothre.ttf
463.17	n/a	START	231585	n/a	LTP293	ltpFR	13	n/a	n/a	n/a	n/a	n/a	n/a	n/a	n/a	n/a	n/a	n/a	n/a	n/a	n/a	n/a
464.268	n/a	PROB	232134	n/a	LTP293	ltpFR	13	n/a	n/a	n/a	n/a	n/a	n/a	15	7	6	2	n/a	n/a	n/a	n/a	n/a
466.348	n/a	PROB	233174	n/a	LTP293	ltpFR	13	n/a	n/a	n/a	n/a	n/a	n/a	8	5	1	3	n/a	n/a	n/a	n/a	n/a
468.094	n/a	PROB	234047	n/a	LTP293	ltpFR	13	n/a	n/a	n/a	n/a	n/a	n/a	13	1	6	6	n/a	n/a	n/a	n/a	n/a
469.426	n/a	PROB	234713	n/a	LTP293	ltpFR	13	n/a	n/a	n/a	n/a	n/a	n/a	12	5	1	6	n/a	n/a	n/a	n/a	n/a
470.698	n/a	STOP	235349	n/a	LTP293	ltpFR	13	n/a	n/a	n/a	n/a	n/a	n/a	n/a	n/a	n/a	n/a	n/a	n/a	n/a	n/a	n/a
472.24	n/a	WORD	236120	wordpools/wasnorm_wordpool_less_exclusions.txt	LTP293	ltpFR	13	1	0	SHELF	1280	n/a	1	n/a	0	0	0	0	0.5869140625	0.422607421875	lower	../fonts/zerothre.ttf
475.252	n/a	START	237626	n/a	LTP293	ltpFR	13	n/a	n/a	n/a	n/a	n/a	n/a	n/a	n/a	n/a	n/a	n/a	n/a	n/a	n/a	n/a
476.15	n/a	PROB	238075	n/a	LTP293	ltpFR	13	n/a	n/a	n/a	n/a	n/a	n/a	8	2	2	4	n/a	n/a	n/a	n/a	n/a
477.35	n/a	PROB	238675	n/a	LTP293	ltpFR	13	n/a	n/a	n/a	n/a	n/a	n/a	26	9	9	8	n/a	n/a	n/a	n/a	n/a
479.778	n/a	PROB	239889	n/a	LTP293	ltpFR	13	n/a	n/a	n/a	n/a	n/a	n/a	7	3	2	2	n/a	n/a	n/a	n/a	n/a
481.9	n/a	STOP	240950	n/a	LTP293	ltpFR	13	n/a	n/a	n/a	n/a	n/a	n/a	n/a	n/a	n/a	n/a	n/a	n/a	n/a	n/a	n/a
484.272	n/a	WORD	242136	wordpools/wasnorm_wordpool_less_exclusions.txt	LTP293	ltpFR	13	1	0	TICK	1463	n/a	0	n/a	0	0	0	0	0.5869140625	0.422607421875	lower	../fonts/zerothre.ttf
487.284	n/a	START	243642	n/a	LTP293	ltpFR	13	n/a	n/a	n/a	n/a	n/a	n/a	n/a	n/a	n/a	n/a	n/a	n/a	n/a	n/a	n/a
488.332	n/a	PROB	244166	n/a	LTP293	ltpFR	13	n/a	n/a	n/a	n/a	n/a	n/a	19	8	2	9	n/a	n/a	n/a	n/a	n/a
489.598	n/a	PROB	244799	n/a	LTP293	ltpFR	13	n/a	n/a	n/a	n/a	n/a	n/a	22	6	7	9	n/a	n/a	n/a	n/a	n/a
491.128	n/a	PROB	245564	n/a	LTP293	ltpFR	13	n/a	n/a	n/a	n/a	n/a	n/a	13	4	4	5	n/a	n/a	n/a	n/a	n/a
493.058	n/a	PROB	246529	n/a	LTP293	ltpFR	13	n/a	n/a	n/a	n/a	n/a	n/a	11	2	2	7	n/a	n/a	n/a	n/a	n/a
494.668	n/a	STOP	247334	n/a	LTP293	ltpFR	13	n/a	n/a	n/a	n/a	n/a	n/a	n/a	n/a	n/a	n/a	n/a	n/a	n/a	n/a	n/a
496.32	n/a	WORD	248160	wordpools/wasnorm_wordpool_less_exclusions.txt	LTP293	ltpFR	13	1	0	HOUND	724	n/a	1	n/a	0	0	0	0	0.5869140625	0.422607421875	lower	../fonts/zerothre.ttf
499.334	n/a	START	249667	n/a	LTP293	ltpFR	13	n/a	n/a	n/a	n/a	n/a	n/a	n/a	n/a	n/a	n/a	n/a	n/a	n/a	n/a	n/a
500.498	n/a	PROB	250249	n/a	LTP293	ltpFR	13	n/a	n/a	n/a	n/a	n/a	n/a	14	7	1	6	n/a	n/a	n/a	n/a	n/a
502.726	n/a	PROB	251363	n/a	LTP293	ltpFR	13	n/a	n/a	n/a	n/a	n/a	n/a	17	9	7	1	n/a	n/a	n/a	n/a	n/a
504.956	n/a	PROB	252478	n/a	LTP293	ltpFR	13	n/a	n/a	n/a	n/a	n/a	n/a	10	1	2	7	n/a	n/a	n/a	n/a	n/a
506.116	n/a	STOP	253058	n/a	LTP293	ltpFR	13	n/a	n/a	n/a	n/a	n/a	n/a	n/a	n/a	n/a	n/a	n/a	n/a	n/a	n/a	n/a
508.302	n/a	WORD	254151	wordpools/wasnorm_wordpool_less_exclusions.txt	LTP293	ltpFR	13	1	0	TILE	1468	n/a	0	n/a	0	0	0	0	0.5869140625	0.422607421875	lower	../fonts/zerothre.ttf
511.316	n/a	START	255658	n/a	LTP293	ltpFR	13	n/a	n/a	n/a	n/a	n/a	n/a	n/a	n/a	n/a	n/a	n/a	n/a	n/a	n/a	n/a
512.364	n/a	PROB	256182	n/a	LTP293	ltpFR	13	n/a	n/a	n/a	n/a	n/a	n/a	24	8	8	6	n/a	n/a	n/a	n/a	n/a
514.16	n/a	PROB	257080	n/a	LTP293	ltpFR	13	n/a	n/a	n/a	n/a	n/a	n/a	17	8	8	1	n/a	n/a	n/a	n/a	n/a
515.974	n/a	PROB	257987	n/a	LTP293	ltpFR	13	n/a	n/a	n/a	n/a	n/a	n/a	13	9	2	2	n/a	n/a	n/a	n/a	n/a
518.132	n/a	STOP	259066	n/a	LTP293	ltpFR	13	n/a	n/a	n/a	n/a	n/a	n/a	n/a	n/a	n/a	n/a	n/a	n/a	n/a	n/a	n/a
520.518	n/a	WORD	260259	wordpools/wasnorm_wordpool_less_exclusions.txt	LTP293	ltpFR	13	1	0	STUDENT	1395	n/a	1	n/a	0	0	0	0	0.5869140625	0.422607421875	lower	../fonts/zerothre.ttf
523.53	n/a	START	261765	n/a	LTP293	ltpFR	13	n/a	n/a	n/a	n/a	n/a	n/a	n/a	n/a	n/a	n/a	n/a	n/a	n/a	n/a	n/a
524.512	n/a	PROB	262256	n/a	LTP293	ltpFR	13	n/a	n/a	n/a	n/a	n/a	n/a	12	3	8	1	n/a	n/a	n/a	n/a	n/a
525.726	n/a	PROB	262863	n/a	LTP293	ltpFR	13	n/a	n/a	n/a	n/a	n/a	n/a	20	6	9	5	n/a	n/a	n/a	n/a	n/a
527.658	n/a	PROB	263829	n/a	LTP293	ltpFR	13	n/a	n/a	n/a	n/a	n/a	n/a	11	1	7	3	n/a	n/a	n/a	n/a	n/a
528.888	n/a	PROB	264444	n/a	LTP293	ltpFR	13	n/a	n/a	n/a	n/a	n/a	n/a	18	7	7	4	n/a	n/a	n/a	n/a	n/a
530.26	n/a	STOP	265130	n/a	LTP293	ltpFR	13	n/a	n/a	n/a	n/a	n/a	n/a	n/a	n/a	n/a	n/a	n/a	n/a	n/a	n/a	n/a
532.666	n/a	WORD	266333	wordpools/wasnorm_wordpool_less_exclusions.txt	LTP293	ltpFR	13	1	0	INSTRUCTOR	741	n/a	1	n/a	0	0	0	0	0.5869140625	0.422607421875	lower	../fonts/zerothre.ttf
535.678	n/a	START	267839	n/a	LTP293	ltpFR	13	n/a	n/a	n/a	n/a	n/a	n/a	n/a	n/a	n/a	n/a	n/a	n/a	n/a	n/a	n/a
536.56	n/a	PROB	268280	n/a	LTP293	ltpFR	13	n/a	n/a	n/a	n/a	n/a	n/a	18	6	8	4	n/a	n/a	n/a	n/a	n/a
538.174	n/a	PROB	269087	n/a	LTP293	ltpFR	13	n/a	n/a	n/a	n/a	n/a	n/a	23	8	7	8	n/a	n/a	n/a	n/a	n/a
540.804	n/a	PROB	270402	n/a	LTP293	ltpFR	13	n/a	n/a	n/a	n/a	n/a	n/a	6	1	4	1	n/a	n/a	n/a	n/a	n/a
541.968	n/a	PROB	270984	n/a	LTP293	ltpFR	13	n/a	n/a	n/a	n/a	n/a	n/a	21	4	8	9	n/a	n/a	n/a	n/a	n/a
543.212	n/a	STOP	271606	n/a	LTP293	ltpFR	13	n/a	n/a	n/a	n/a	n/a	n/a	n/a	n/a	n/a	n/a	n/a	n/a	n/a	n/a	n/a
544.598	n/a	WORD	272299	wordpools/wasnorm_wordpool_less_exclusions.txt	LTP293	ltpFR	13	1	0	WALL	1582	n/a	1	n/a	0	0	0	0	0.5869140625	0.422607421875	lower	../fonts/zerothre.ttf
547.612	n/a	START	273806	n/a	LTP293	ltpFR	13	n/a	n/a	n/a	n/a	n/a	n/a	n/a	n/a	n/a	n/a	n/a	n/a	n/a	n/a	n/a
548.626	n/a	PROB	274313	n/a	LTP293	ltpFR	13	n/a	n/a	n/a	n/a	n/a	n/a	13	5	1	7	n/a	n/a	n/a	n/a	n/a
549.79	n/a	PROB	274895	n/a	LTP293	ltpFR	13	n/a	n/a	n/a	n/a	n/a	n/a	17	4	5	8	n/a	n/a	n/a	n/a	n/a
551.256	n/a	PROB	275628	n/a	LTP293	ltpFR	13	n/a	n/a	n/a	n/a	n/a	n/a	12	5	5	2	n/a	n/a	n/a	n/a	n/a
552.304	n/a	PROB	276152	n/a	LTP293	ltpFR	13	n/a	n/a	n/a	n/a	n/a	n/a	7	1	1	5	n/a	n/a	n/a	n/a	n/a
553.452	n/a	PROB	276726	n/a	LTP293	ltpFR	13	n/a	n/a	n/a	n/a	n/a	n/a	16	9	3	4	n/a	n/a	n/a	n/a	n/a
554.54	n/a	STOP	277270	n/a	LTP293	ltpFR	13	n/a	n/a	n/a	n/a	n/a	n/a	n/a	n/a	n/a	n/a	n/a	n/a	n/a	n/a	n/a
556.464	n/a	WORD	278232	wordpools/wasnorm_wordpool_less_exclusions.txt	LTP293	ltpFR	13	1	0	CLOVE	329	n/a	0	n/a	0	0	0	0	0.5869140625	0.422607421875	lower	../fonts/zerothre.ttf
559.476	n/a	START	279738	n/a	LTP293	ltpFR	13	n/a	n/a	n/a	n/a	n/a	n/a	n/a	n/a	n/a	n/a	n/a	n/a	n/a	n/a	n/a
560.624	n/a	PROB	280312	n/a	LTP293	ltpFR	13	n/a	n/a	n/a	n/a	n/a	n/a	20	6	5	9	n/a	n/a	n/a	n/a	n/a
561.856	n/a	PROB	280928	n/a	LTP293	ltpFR	13	n/a	n/a	n/a	n/a	n/a	n/a	10	3	4	3	n/a	n/a	n/a	n/a	n/a
564.018	n/a	PROB	282009	n/a	LTP293	ltpFR	13	n/a	n/a	n/a	n/a	n/a	n/a	9	3	1	5	n/a	n/a	n/a	n/a	n/a
565.402	n/a	PROB	282701	n/a	LTP293	ltpFR	13	n/a	n/a	n/a	n/a	n/a	n/a	6	2	2	2	n/a	n/a	n/a	n/a	n/a
566.358	n/a	STOP	283179	n/a	LTP293	ltpFR	13	n/a	n/a	n/a	n/a	n/a	n/a	n/a	n/a	n/a	n/a	n/a	n/a	n/a	n/a	n/a
569.364	n/a	REC_START	284682	n/a	LTP293	ltpFR	13	1	n/a	n/a	n/a	n/a	n/a	n/a	0	0	0	n/a	n/a	n/a	n/a	n/a
570.066	n/a	REC_WORD	285033	wordpools/wasnorm_wordpool_less_exclusions.txt	LTP293	ltpFR	13	1	0	CLOVE	329	n/a	0	n/a	0	0	0	n/a	n/a	n/a	n/a	n/a
571.046	n/a	REC_WORD	285523	wordpools/wasnorm_wordpool_less_exclusions.txt	LTP293	ltpFR	13	1	0	WALL	1582	n/a	1	n/a	0	0	0	n/a	n/a	n/a	n/a	n/a
574.596	n/a	REC_WORD	287298	wordpools/wasnorm_wordpool_less_exclusions.txt	LTP293	ltpFR	13	1	0	AUTOMOBILE	62	n/a	1	n/a	0	0	0	n/a	n/a	n/a	n/a	n/a
575.64	n/a	REC_WORD	287820	wordpools/wasnorm_wordpool_less_exclusions.txt	LTP293	ltpFR	13	1	0	TRUCK	1512	n/a	1	n/a	0	0	0	n/a	n/a	n/a	n/a	n/a
576.988	n/a	REC_WORD	288494	wordpools/wasnorm_wordpool_less_exclusions.txt	LTP293	ltpFR	13	1	0	SHELF	1280	n/a	1	n/a	0	0	0	n/a	n/a	n/a	n/a	n/a
578.944	n/a	REC_WORD	289472	wordpools/wasnorm_wordpool_less_exclusions.txt	LTP293	ltpFR	13	1	0	SCAPEGOAT	1244	n/a	1	n/a	0	0	0	n/a	n/a	n/a	n/a	n/a
580.312	n/a	REC_WORD	290156	wordpools/wasnorm_wordpool_less_exclusions.txt	LTP293	ltpFR	13	1	0	TICK	1463	n/a	0	n/a	0	0	0	n/a	n/a	n/a	n/a	n/a
666.336	n/a	WORD	333168	wordpools/wasnorm_wordpool_less_exclusions.txt	LTP293	ltpFR	13	2	0	CLOWN	330	n/a	1	n/a	0	0	0	0	0.5869140625	0.422607421875	lower	../fonts/zerothre.ttf
670.18	n/a	WORD	335090	wordpools/wasnorm_wordpool_less_exclusions.txt	LTP293	ltpFR	13	2	0	AIRPORT	13	n/a	1	n/a	0	0	0	0	0.5869140625	0.422607421875	lower	../fonts/zerothre.ttf
674.04	n/a	WORD	337020	wordpools/wasnorm_wordpool_less_exclusions.txt	LTP293	ltpFR	13	2	1	SNACK	1331	n/a	0	n/a	0	0	0	1	0.412841796875	0.57763671875	upper	../fonts/amplitud.ttf
677.884	n/a	WORD	338942	wordpools/wasnorm_wordpool_less_exclusions.txt	LTP293	ltpFR	13	2	1	BOLT	146	n/a	1	n/a	0	0	0	1	0.412841796875	0.57763671875	upper	../fonts/amplitud.ttf
681.862	n/a	WORD	340931	wordpools/wasnorm_wordpool_less_exclusions.txt	LTP293	ltpFR	13	2	1	PUB	1135	n/a	1	n/a	0	0	0	1	0.412841796875	0.57763671875	upper	../fonts/amplitud.ttf
685.856	n/a	WORD	342928	wordpools/wasnorm_wordpool_less_exclusions.txt	LTP293	ltpFR	13	2	1	JOKER	759	n/a	1	n/a	0	0	0	1	0.412841796875	0.57763671875	upper	../fonts/amplitud.ttf
689.982	n/a	WORD	344991	wordpools/wasnorm_wordpool_less_exclusions.txt	LTP293	ltpFR	13	2	1	COTTAGE	384	n/a	0	n/a	0	0	0	1	0.412841796875	0.57763671875	upper	../fonts/amplitud.ttf
693.844	n/a	WORD	346922	wordpools/wasnorm_wordpool_less_exclusions.txt	LTP293	ltpFR	13	2	0	TICKET	1464	n/a	0	n/a	0	0	0	0	0.5869140625	0.422607421875	lower	../fonts/zerothre.ttf
697.704	n/a	WORD	348852	wordpools/wasnorm_wordpool_less_exclusions.txt	LTP293	ltpFR	13	2	0	CHESS	294	n/a	1	n/a	0	0	0	0	0.5869140625	0.422607421875	lower	../fonts/zerothre.ttf
701.6	n/a	WORD	350800	wordpools/wasnorm_wordpool_less_exclusions.txt	LTP293	ltpFR	13	2	0	MARGARINE	868	n/a	1	n/a	0	0	0	0	0.5869140625	0.422607421875	lower	../fonts/zerothre.ttf
705.61	n/a	WORD	352805	wordpools/wasnorm_wordpool_less_exclusions.txt	LTP293	ltpFR	13	2	0	SANDWICH	1232	n/a	1	n/a	0	0	0	0	0.5869140625	0.422607421875	lower	../fonts/zerothre.ttf
709.82	n/a	WORD	354910	wordpools/wasnorm_wordpool_less_exclusions.txt	LTP293	ltpFR	13	2	1	WORKER	1621	n/a	1	n/a	0	0	0	1	0.412841796875	0.57763671875	upper	../fonts/amplitud.ttf
714.03	n/a	WORD	357015	wordpools/wasnorm_wordpool_less_exclusions.txt	LTP293	ltpFR	13	2	1	ASSISTANT	48	n/a	1	n/a	0	0	0	1	0.412841796875	0.57763671875	upper	../fonts/amplitud.ttf
718.14	n/a	WORD	359070	wordpools/wasnorm_wordpool_less_exclusions.txt	LTP293	ltpFR	13	2	1	SPARROW	1347	n/a	1	n/a	0	0	0	1	0.412841796875	0.57763671875	upper	../fonts/amplitud.ttf
722.336	n/a	WORD	361168	wordpools/wasnorm_wordpool_less_exclusions.txt	LTP293	ltpFR	13	2	0	HAWK	692	n/a	1	n/a	0	0	0	0	0.5869140625	0.422607421875	lower	../fonts/zerothre.ttf
726.478	n/a	WORD	363239	wordpools/wasnorm_wordpool_less_exclusions.txt	LTP293	ltpFR	13	2	0	DICE	461	n/a	0	n/a	0	0	0	0	0.5869140625	0.422607421875	lower	../fonts/zerothre.ttf
729.492	n/a	START	364746	n/a	LTP293	ltpFR	13	n/a	n/a	n/a	n/a	n/a	n/a	n/a	n/a	n/a	n/a	n/a	n/a	n/a	n/a	n/a
730.49	n/a	PROB	365245	n/a	LTP293	ltpFR	13	n/a	n/a	n/a	n/a	n/a	n/a	16	7	7	2	n/a	n/a	n/a	n/a	n/a
732.604	n/a	PROB	366302	n/a	LTP293	ltpFR	13	n/a	n/a	n/a	n/a	n/a	n/a	12	1	3	8	n/a	n/a	n/a	n/a	n/a
733.784	n/a	PROB	366892	n/a	LTP293	ltpFR	13	n/a	n/a	n/a	n/a	n/a	n/a	12	7	3	2	n/a	n/a	n/a	n/a	n/a
735.348	n/a	PROB	367674	n/a	LTP293	ltpFR	13	n/a	n/a	n/a	n/a	n/a	n/a	17	9	4	4	n/a	n/a	n/a	n/a	n/a
737.022	n/a	STOP	368511	n/a	LTP293	ltpFR	13	n/a	n/a	n/a	n/a	n/a	n/a	n/a	n/a	n/a	n/a	n/a	n/a	n/a	n/a	n/a
739.326	n/a	REC_START	369663	n/a	LTP293	ltpFR	13	2	n/a	n/a	n/a	n/a	n/a	n/a	0	0	0	n/a	n/a	n/a	n/a	n/a
739.902	n/a	REC_WORD	369951	wordpools/wasnorm_wordpool_less_exclusions.txt	LTP293	ltpFR	13	2	0	HAWK	692	n/a	1	n/a	0	0	0	n/a	n/a	n/a	n/a	n/a
740.744	n/a	REC_WORD	370372	wordpools/wasnorm_wordpool_less_exclusions.txt	LTP293	ltpFR	13	2	1	SPARROW	1347	n/a	1	n/a	0	0	0	n/a	n/a	n/a	n/a	n/a
742.142	n/a	REC_WORD	371071	wordpools/wasnorm_wordpool_less_exclusions.txt	LTP293	ltpFR	13	2	0	MARGARINE	868	n/a	1	n/a	0	0	0	n/a	n/a	n/a	n/a	n/a
743.072	n/a	REC_WORD	371536	wordpools/wasnorm_wordpool_less_exclusions.txt	LTP293	ltpFR	13	2	0	SANDWICH	1232	n/a	1	n/a	0	0	0	n/a	n/a	n/a	n/a	n/a
744.776	n/a	REC_WORD	372388	wordpools/wasnorm_wordpool_less_exclusions.txt	LTP293	ltpFR	13	2	1	WORKER	1621	n/a	1	n/a	0	0	0	n/a	n/a	n/a	n/a	n/a
745.49	n/a	REC_WORD	372745	wordpools/wasnorm_wordpool_less_exclusions.txt	LTP293	ltpFR	13	2	1	ASSISTANT	48	n/a	1	n/a	0	0	0	n/a	n/a	n/a	n/a	n/a
749.088	n/a	REC_WORD	374544	wordpools/wasnorm_wordpool_less_exclusions.txt	LTP293	ltpFR	13	2	0	AIRPORT	13	n/a	1	n/a	0	0	0	n/a	n/a	n/a	n/a	n/a
750.088	n/a	REC_WORD	375044	wordpools/wasnorm_wordpool_less_exclusions.txt	LTP293	ltpFR	13	2	1	COTTAGE	384	n/a	0	n/a	0	0	0	n/a	n/a	n/a	n/a	n/a
753.728	n/a	REC_WORD	376864	wordpools/wasnorm_wordpool_less_exclusions.txt	LTP293	ltpFR	13	2	1	SNACK	1331	n/a	0	n/a	0	0	0	n/a	n/a	n/a	n/a	n/a
779.538	n/a	REC_WORD	389769	wordpools/wasnorm_wordpool_less_exclusions.txt	LTP293	ltpFR	13	2	1	PUB	1135	n/a	1	n/a	0	0	0	n/a	n/a	n/a	n/a	n/a
832.504	n/a	WORD	416252	wordpools/wasnorm_wordpool_less_exclusions.txt	LTP293	ltpFR	13	3	1	TROUT	1511	n/a	1	n/a	0	0	0	1	0.412841796875	0.57763671875	upper	../fonts/amplitud.ttf
836.466	n/a	WORD	418233	wordpools/wasnorm_wordpool_less_exclusions.txt	LTP293	ltpFR	13	3	1	STRAWBERRY	1391	n/a	0	n/a	0	0	0	1	0.412841796875	0.57763671875	upper	../fonts/amplitud.ttf
840.326	n/a	WORD	420163	wordpools/wasnorm_wordpool_less_exclusions.txt	LTP293	ltpFR	13	3	1	WASP	1593	n/a	1	n/a	0	0	0	1	0.412841796875	0.57763671875	upper	../fonts/amplitud.ttf
844.238	n/a	WORD	422119	wordpools/wasnorm_wordpool_less_exclusions.txt	LTP293	ltpFR	13	3	1	SHACK	1273	n/a	0	n/a	0	0	0	1	0.412841796875	0.57763671875	upper	../fonts/amplitud.ttf
848.132	n/a	WORD	424066	wordpools/wasnorm_wordpool_less_exclusions.txt	LTP293	ltpFR	13	3	0	SHRIMP	1297	n/a	0	n/a	0	0	0	0	0.5869140625	0.422607421875	lower	../fonts/zerothre.ttf
852.142	n/a	WORD	426071	wordpools/wasnorm_wordpool_less_exclusions.txt	LTP293	ltpFR	13	3	0	MAPLE	866	n/a	1	n/a	0	0	0	0	0.5869140625	0.422607421875	lower	../fonts/zerothre.ttf
856.12	n/a	WORD	428060	wordpools/wasnorm_wordpool_less_exclusions.txt	LTP293	ltpFR	13	3	1	CREEK	404	n/a	0	n/a	0	0	0	1	0.412841796875	0.57763671875	upper	../fonts/amplitud.ttf
860.064	n/a	WORD	430032	wordpools/wasnorm_wordpool_less_exclusions.txt	LTP293	ltpFR	13	3	1	VALVE	1546	n/a	0	n/a	0	0	0	1	0.412841796875	0.57763671875	upper	../fonts/amplitud.ttf
864.14	n/a	WORD	432070	wordpools/wasnorm_wordpool_less_exclusions.txt	LTP293	ltpFR	13	3	1	PIKE	1067	n/a	1	n/a	0	0	0	1	0.412841796875	0.57763671875	upper	../fonts/amplitud.ttf
867.968	n/a	WORD	433984	wordpools/wasnorm_wordpool_less_exclusions.txt	LTP293	ltpFR	13	3	1	ROOF	1205	n/a	0	n/a	0	0	0	1	0.412841796875	0.57763671875	upper	../fonts/amplitud.ttf
871.812	n/a	WORD	435906	wordpools/wasnorm_wordpool_less_exclusions.txt	LTP293	ltpFR	13	3	0	ZUCCHINI	1638	n/a	1	n/a	0	0	0	0	0.5869140625	0.422607421875	lower	../fonts/zerothre.ttf
875.756	n/a	WORD	437878	wordpools/wasnorm_wordpool_less_exclusions.txt	LTP293	ltpFR	13	3	0	DOVE	491	n/a	0	n/a	0	0	0	0	0.5869140625	0.422607421875	lower	../fonts/zerothre.ttf
879.718	n/a	WORD	439859	wordpools/wasnorm_wordpool_less_exclusions.txt	LTP293	ltpFR	13	3	0	CARDINAL	244	n/a	1	n/a	0	0	0	0	0.5869140625	0.422607421875	lower	../fonts/zerothre.ttf
883.828	n/a	WORD	441914	wordpools/wasnorm_wordpool_less_exclusions.txt	LTP293	ltpFR	13	3	0	FLY	586	n/a	0	n/a	0	0	0	0	0.5869140625	0.422607421875	lower	../fonts/zerothre.ttf
888.006	n/a	WORD	444003	wordpools/wasnorm_wordpool_less_exclusions.txt	LTP293	ltpFR	13	3	0	BUG	187	n/a	0	n/a	0	0	0	0	0.5869140625	0.422607421875	lower	../fonts/zerothre.ttf
892.166	n/a	WORD	446083	wordpools/wasnorm_wordpool_less_exclusions.txt	LTP293	ltpFR	13	3	0	ROD	1203	n/a	1	n/a	0	0	0	0	0.5869140625	0.422607421875	lower	../fonts/zerothre.ttf
897.858	n/a	REC_START	448929	n/a	LTP293	ltpFR	13	3	n/a	n/a	n/a	n/a	n/a	n/a	0	0	0	n/a	n/a	n/a	n/a	n/a
898.672	n/a	REC_WORD	449336	wordpools/wasnorm_wordpool_less_exclusions.txt	LTP293	ltpFR	13	3	0	ROD	1203	n/a	1	n/a	0	0	0	n/a	n/a	n/a	n/a	n/a
899.482	n/a	REC_WORD	449741	wordpools/wasnorm_wordpool_less_exclusions.txt	LTP293	ltpFR	13	3	0	FLY	586	n/a	0	n/a	0	0	0	n/a	n/a	n/a	n/a	n/a
900.852	n/a	REC_WORD	450426	wordpools/wasnorm_wordpool_less_exclusions.txt	LTP293	ltpFR	13	3	0	BUG	187	n/a	0	n/a	0	0	0	n/a	n/a	n/a	n/a	n/a
902.934	n/a	REC_WORD	451467	wordpools/wasnorm_wordpool_less_exclusions.txt	LTP293	ltpFR	13	3	1	SHACK	1273	n/a	0	n/a	0	0	0	n/a	n/a	n/a	n/a	n/a
905.102	n/a	REC_WORD	452551	wordpools/wasnorm_wordpool_less_exclusions.txt	LTP293	ltpFR	13	3	1	ROOF	1205	n/a	0	n/a	0	0	0	n/a	n/a	n/a	n/a	n/a
907.536	n/a	REC_WORD	453768	wordpools/wasnorm_wordpool_less_exclusions.txt	LTP293	ltpFR	13	3	1	TROUT	1511	n/a	1	n/a	0	0	0	n/a	n/a	n/a	n/a	n/a
908.65	n/a	REC_WORD	454325	wordpools/wasnorm_wordpool_less_exclusions.txt	LTP293	ltpFR	13	3	1	PIKE	1067	n/a	1	n/a	0	0	0	n/a	n/a	n/a	n/a	n/a
913.974	n/a	REC_WORD	456987	wordpools/wasnorm_wordpool_less_exclusions.txt	LTP293	ltpFR	13	3	1	STRAWBERRY	1391	n/a	0	n/a	0	0	0	n/a	n/a	n/a	n/a	n/a
915.394	n/a	REC_WORD	457697	wordpools/wasnorm_wordpool_less_exclusions.txt	LTP293	ltpFR	13	3	1	WASP	1593	n/a	1	n/a	0	0	0	n/a	n/a	n/a	n/a	n/a
983.416	n/a	START	491708	n/a	LTP293	ltpFR	13	n/a	n/a	n/a	n/a	n/a	n/a	n/a	n/a	n/a	n/a	n/a	n/a	n/a	n/a	n/a
984.928	n/a	PROB	492464	n/a	LTP293	ltpFR	13	n/a	n/a	n/a	n/a	n/a	n/a	22	8	6	8	n/a	n/a	n/a	n/a	n/a
987.21	n/a	PROB	493605	n/a	LTP293	ltpFR	13	n/a	n/a	n/a	n/a	n/a	n/a	14	6	1	7	n/a	n/a	n/a	n/a	n/a
988.674	n/a	PROB	494337	n/a	LTP293	ltpFR	13	n/a	n/a	n/a	n/a	n/a	n/a	15	8	4	3	n/a	n/a	n/a	n/a	n/a
990.136	n/a	STOP	495068	n/a	LTP293	ltpFR	13	n/a	n/a	n/a	n/a	n/a	n/a	n/a	n/a	n/a	n/a	n/a	n/a	n/a	n/a	n/a
992.252	n/a	WORD	496126	wordpools/wasnorm_wordpool_less_exclusions.txt	LTP293	ltpFR	13	4	1	LAWYER	806	n/a	1	n/a	0	0	0	1	0.412841796875	0.57763671875	upper	../fonts/amplitud.ttf
995.264	n/a	START	497632	n/a	LTP293	ltpFR	13	n/a	n/a	n/a	n/a	n/a	n/a	n/a	n/a	n/a	n/a	n/a	n/a	n/a	n/a	n/a
996.23	n/a	PROB	498115	n/a	LTP293	ltpFR	13	n/a	n/a	n/a	n/a	n/a	n/a	11	2	6	3	n/a	n/a	n/a	n/a	n/a
997.478	n/a	PROB	498739	n/a	LTP293	ltpFR	13	n/a	n/a	n/a	n/a	n/a	n/a	17	9	3	5	n/a	n/a	n/a	n/a	n/a
999.04	n/a	PROB	499520	n/a	LTP293	ltpFR	13	n/a	n/a	n/a	n/a	n/a	n/a	14	3	8	3	n/a	n/a	n/a	n/a	n/a
1000.822	n/a	PROB	500411	n/a	LTP293	ltpFR	13	n/a	n/a	n/a	n/a	n/a	n/a	14	2	4	8	n/a	n/a	n/a	n/a	n/a
1002.12	n/a	STOP	501060	n/a	LTP293	ltpFR	13	n/a	n/a	n/a	n/a	n/a	n/a	n/a	n/a	n/a	n/a	n/a	n/a	n/a	n/a	n/a
1004.218	n/a	WORD	502109	wordpools/wasnorm_wordpool_less_exclusions.txt	LTP293	ltpFR	13	4	1	ATTORNEY	58	n/a	1	n/a	0	0	0	1	0.412841796875	0.57763671875	upper	../fonts/amplitud.ttf
1007.23	n/a	START	503615	n/a	LTP293	ltpFR	13	n/a	n/a	n/a	n/a	n/a	n/a	n/a	n/a	n/a	n/a	n/a	n/a	n/a	n/a	n/a
1008.428	n/a	PROB	504214	n/a	LTP293	ltpFR	13	n/a	n/a	n/a	n/a	n/a	n/a	11	6	4	1	n/a	n/a	n/a	n/a	n/a
1010.108	n/a	PROB	505054	n/a	LTP293	ltpFR	13	n/a	n/a	n/a	n/a	n/a	n/a	15	2	6	7	n/a	n/a	n/a	n/a	n/a
1011.788	n/a	PROB	505894	n/a	LTP293	ltpFR	13	n/a	n/a	n/a	n/a	n/a	n/a	21	9	5	8	n/a	n/a	n/a	n/a	n/a
1014.712	n/a	STOP	507356	n/a	LTP293	ltpFR	13	n/a	n/a	n/a	n/a	n/a	n/a	n/a	n/a	n/a	n/a	n/a	n/a	n/a	n/a	n/a
1016.082	n/a	WORD	508041	wordpools/wasnorm_wordpool_less_exclusions.txt	LTP293	ltpFR	13	4	1	CEREAL	272	n/a	0	n/a	0	0	0	1	0.412841796875	0.57763671875	upper	../fonts/amplitud.ttf
1019.094	n/a	START	509547	n/a	LTP293	ltpFR	13	n/a	n/a	n/a	n/a	n/a	n/a	n/a	n/a	n/a	n/a	n/a	n/a	n/a	n/a	n/a
1020.076	n/a	PROB	510038	n/a	LTP293	ltpFR	13	n/a	n/a	n/a	n/a	n/a	n/a	14	7	3	4	n/a	n/a	n/a	n/a	n/a
1021.308	n/a	PROB	510654	n/a	LTP293	ltpFR	13	n/a	n/a	n/a	n/a	n/a	n/a	13	5	1	7	n/a	n/a	n/a	n/a	n/a
1022.938	n/a	PROB	511469	n/a	LTP293	ltpFR	13	n/a	n/a	n/a	n/a	n/a	n/a	19	7	8	5	n/a	n/a	n/a	n/a	n/a
1026.522	n/a	STOP	513261	n/a	LTP293	ltpFR	13	n/a	n/a	n/a	n/a	n/a	n/a	n/a	n/a	n/a	n/a	n/a	n/a	n/a	n/a	n/a
1027.948	n/a	WORD	513974	wordpools/wasnorm_wordpool_less_exclusions.txt	LTP293	ltpFR	13	4	1	DINNER	468	n/a	0	n/a	0	0	0	1	0.412841796875	0.57763671875	upper	../fonts/amplitud.ttf
1030.96	n/a	START	515480	n/a	LTP293	ltpFR	13	n/a	n/a	n/a	n/a	n/a	n/a	n/a	n/a	n/a	n/a	n/a	n/a	n/a	n/a	n/a
1032.158	n/a	PROB	516079	n/a	LTP293	ltpFR	13	n/a	n/a	n/a	n/a	n/a	n/a	10	7	2	1	n/a	n/a	n/a	n/a	n/a
1033.608	n/a	PROB	516804	n/a	LTP293	ltpFR	13	n/a	n/a	n/a	n/a	n/a	n/a	17	9	5	3	n/a	n/a	n/a	n/a	n/a
1035.836	n/a	PROB	517918	n/a	LTP293	ltpFR	13	n/a	n/a	n/a	n/a	n/a	n/a	17	7	1	9	n/a	n/a	n/a	n/a	n/a
1037.618	n/a	STOP	518809	n/a	LTP293	ltpFR	13	n/a	n/a	n/a	n/a	n/a	n/a	n/a	n/a	n/a	n/a	n/a	n/a	n/a	n/a	n/a
1039.78	n/a	WORD	519890	wordpools/wasnorm_wordpool_less_exclusions.txt	LTP293	ltpFR	13	4	1	SEED	1266	n/a	0	n/a	0	0	0	1	0.412841796875	0.57763671875	upper	../fonts/amplitud.ttf
1042.794	n/a	START	521397	n/a	LTP293	ltpFR	13	n/a	n/a	n/a	n/a	n/a	n/a	n/a	n/a	n/a	n/a	n/a	n/a	n/a	n/a	n/a
1043.958	n/a	PROB	521979	n/a	LTP293	ltpFR	13	n/a	n/a	n/a	n/a	n/a	n/a	17	3	5	9	n/a	n/a	n/a	n/a	n/a
1045.54	n/a	PROB	522770	n/a	LTP293	ltpFR	13	n/a	n/a	n/a	n/a	n/a	n/a	12	4	5	3	n/a	n/a	n/a	n/a	n/a
1048.336	n/a	PROB	524168	n/a	LTP293	ltpFR	13	n/a	n/a	n/a	n/a	n/a	n/a	21	8	8	5	n/a	n/a	n/a	n/a	n/a
1050.066	n/a	STOP	525033	n/a	LTP293	ltpFR	13	n/a	n/a	n/a	n/a	n/a	n/a	n/a	n/a	n/a	n/a	n/a	n/a	n/a	n/a	n/a
1051.712	n/a	WORD	525856	wordpools/wasnorm_wordpool_less_exclusions.txt	LTP293	ltpFR	13	4	1	NEPHEW	942	n/a	1	n/a	0	0	0	1	0.412841796875	0.57763671875	upper	../fonts/amplitud.ttf
1054.726	n/a	START	527363	n/a	LTP293	ltpFR	13	n/a	n/a	n/a	n/a	n/a	n/a	n/a	n/a	n/a	n/a	n/a	n/a	n/a	n/a	n/a
1055.906	n/a	PROB	527953	n/a	LTP293	ltpFR	13	n/a	n/a	n/a	n/a	n/a	n/a	5	1	2	2	n/a	n/a	n/a	n/a	n/a
1057.256	n/a	PROB	528628	n/a	LTP293	ltpFR	13	n/a	n/a	n/a	n/a	n/a	n/a	13	9	3	1	n/a	n/a	n/a	n/a	n/a
1058.72	n/a	PROB	529360	n/a	LTP293	ltpFR	13	n/a	n/a	n/a	n/a	n/a	n/a	10	1	3	6	n/a	n/a	n/a	n/a	n/a
1060.882	n/a	PROB	530441	n/a	LTP293	ltpFR	13	n/a	n/a	n/a	n/a	n/a	n/a	22	9	9	4	n/a	n/a	n/a	n/a	n/a
1062.666	n/a	STOP	531333	n/a	LTP293	ltpFR	13	n/a	n/a	n/a	n/a	n/a	n/a	n/a	n/a	n/a	n/a	n/a	n/a	n/a	n/a	n/a
1063.58	n/a	WORD	531790	wordpools/wasnorm_wordpool_less_exclusions.txt	LTP293	ltpFR	13	4	1	WAREHOUSE	1588	n/a	0	n/a	0	0	0	1	0.412841796875	0.57763671875	upper	../fonts/amplitud.ttf
1066.592	n/a	START	533296	n/a	LTP293	ltpFR	13	n/a	n/a	n/a	n/a	n/a	n/a	n/a	n/a	n/a	n/a	n/a	n/a	n/a	n/a	n/a
1067.688	n/a	PROB	533844	n/a	LTP293	ltpFR	13	n/a	n/a	n/a	n/a	n/a	n/a	22	8	5	9	n/a	n/a	n/a	n/a	n/a
1069.67	n/a	PROB	534835	n/a	LTP293	ltpFR	13	n/a	n/a	n/a	n/a	n/a	n/a	10	4	4	2	n/a	n/a	n/a	n/a	n/a
1070.95	n/a	PROB	535475	n/a	LTP293	ltpFR	13	n/a	n/a	n/a	n/a	n/a	n/a	13	1	8	4	n/a	n/a	n/a	n/a	n/a
1072.284	n/a	PROB	536142	n/a	LTP293	ltpFR	13	n/a	n/a	n/a	n/a	n/a	n/a	17	4	7	6	n/a	n/a	n/a	n/a	n/a
1073.89	n/a	STOP	536945	n/a	LTP293	ltpFR	13	n/a	n/a	n/a	n/a	n/a	n/a	n/a	n/a	n/a	n/a	n/a	n/a	n/a	n/a	n/a
1075.544	n/a	WORD	537772	wordpools/wasnorm_wordpool_less_exclusions.txt	LTP293	ltpFR	13	4	1	BANQUET	86	n/a	0	n/a	0	0	0	1	0.412841796875	0.57763671875	upper	../fonts/amplitud.ttf
1078.558	n/a	START	539279	n/a	LTP293	ltpFR	13	n/a	n/a	n/a	n/a	n/a	n/a	n/a	n/a	n/a	n/a	n/a	n/a	n/a	n/a	n/a
1079.472	n/a	PROB	539736	n/a	LTP293	ltpFR	13	n/a	n/a	n/a	n/a	n/a	n/a	13	5	3	5	n/a	n/a	n/a	n/a	n/a
1080.638	n/a	PROB	540319	n/a	LTP293	ltpFR	13	n/a	n/a	n/a	n/a	n/a	n/a	9	2	1	6	n/a	n/a	n/a	n/a	n/a
1082.0	n/a	PROB	541000	n/a	LTP293	ltpFR	13	n/a	n/a	n/a	n/a	n/a	n/a	15	2	8	5	n/a	n/a	n/a	n/a	n/a
1083.384	n/a	PROB	541692	n/a	LTP293	ltpFR	13	n/a	n/a	n/a	n/a	n/a	n/a	12	4	6	2	n/a	n/a	n/a	n/a	n/a
1086.558	n/a	STOP	543279	n/a	LTP293	ltpFR	13	n/a	n/a	n/a	n/a	n/a	n/a	n/a	n/a	n/a	n/a	n/a	n/a	n/a	n/a	n/a
1087.444	n/a	WORD	543722	wordpools/wasnorm_wordpool_less_exclusions.txt	LTP293	ltpFR	13	4	1	WITNESS	1618	n/a	0	n/a	0	0	0	1	0.412841796875	0.57763671875	upper	../fonts/amplitud.ttf
1090.456	n/a	START	545228	n/a	LTP293	ltpFR	13	n/a	n/a	n/a	n/a	n/a	n/a	n/a	n/a	n/a	n/a	n/a	n/a	n/a	n/a	n/a
1091.372	n/a	PROB	545686	n/a	LTP293	ltpFR	13	n/a	n/a	n/a	n/a	n/a	n/a	14	5	5	4	n/a	n/a	n/a	n/a	n/a
1093.002	n/a	PROB	546501	n/a	LTP293	ltpFR	13	n/a	n/a	n/a	n/a	n/a	n/a	10	7	2	1	n/a	n/a	n/a	n/a	n/a
1094.434	n/a	PROB	547217	n/a	LTP293	ltpFR	13	n/a	n/a	n/a	n/a	n/a	n/a	13	8	2	3	n/a	n/a	n/a	n/a	n/a
1095.814	n/a	PROB	547907	n/a	LTP293	ltpFR	13	n/a	n/a	n/a	n/a	n/a	n/a	18	9	4	5	n/a	n/a	n/a	n/a	n/a
1097.394	n/a	STOP	548697	n/a	LTP293	ltpFR	13	n/a	n/a	n/a	n/a	n/a	n/a	n/a	n/a	n/a	n/a	n/a	n/a	n/a	n/a	n/a
1099.642	n/a	WORD	549821	wordpools/wasnorm_wordpool_less_exclusions.txt	LTP293	ltpFR	13	4	1	ZIPPER	1636	n/a	0	n/a	0	0	0	1	0.412841796875	0.57763671875	upper	../fonts/amplitud.ttf
1102.654	n/a	START	551327	n/a	LTP293	ltpFR	13	n/a	n/a	n/a	n/a	n/a	n/a	n/a	n/a	n/a	n/a	n/a	n/a	n/a	n/a	n/a
1103.586	n/a	PROB	551793	n/a	LTP293	ltpFR	13	n/a	n/a	n/a	n/a	n/a	n/a	22	7	8	7	n/a	n/a	n/a	n/a	n/a
1107.646	n/a	PROB	553823	n/a	LTP293	ltpFR	13	n/a	n/a	n/a	n/a	n/a	n/a	17	8	3	6	n/a	n/a	n/a	n/a	n/a
1110.654	n/a	STOP	555327	n/a	LTP293	ltpFR	13	n/a	n/a	n/a	n/a	n/a	n/a	n/a	n/a	n/a	n/a	n/a	n/a	n/a	n/a	n/a
1111.542	n/a	WORD	555771	wordpools/wasnorm_wordpool_less_exclusions.txt	LTP293	ltpFR	13	4	1	POCKET	1093	n/a	0	n/a	0	0	0	1	0.412841796875	0.57763671875	upper	../fonts/amplitud.ttf
1114.554	n/a	START	557277	n/a	LTP293	ltpFR	13	n/a	n/a	n/a	n/a	n/a	n/a	n/a	n/a	n/a	n/a	n/a	n/a	n/a	n/a	n/a
1115.468	n/a	PROB	557734	n/a	LTP293	ltpFR	13	n/a	n/a	n/a	n/a	n/a	n/a	15	8	3	4	n/a	n/a	n/a	n/a	n/a
1116.616	n/a	PROB	558308	n/a	LTP293	ltpFR	13	n/a	n/a	n/a	n/a	n/a	n/a	18	5	6	7	n/a	n/a	n/a	n/a	n/a
1118.63	n/a	PROB	559315	n/a	LTP293	ltpFR	13	n/a	n/a	n/a	n/a	n/a	n/a	12	5	4	3	n/a	n/a	n/a	n/a	n/a
1120.044	n/a	PROB	560022	n/a	LTP293	ltpFR	13	n/a	n/a	n/a	n/a	n/a	n/a	18	9	7	2	n/a	n/a	n/a	n/a	n/a
1122.074	n/a	STOP	561037	n/a	LTP293	ltpFR	13	n/a	n/a	n/a	n/a	n/a	n/a	n/a	n/a	n/a	n/a	n/a	n/a	n/a	n/a	n/a
1123.64	n/a	WORD	561820	wordpools/wasnorm_wordpool_less_exclusions.txt	LTP293	ltpFR	13	4	1	COACH	331	n/a	1	n/a	0	0	0	1	0.412841796875	0.57763671875	upper	../fonts/amplitud.ttf
1126.654	n/a	START	563327	n/a	LTP293	ltpFR	13	n/a	n/a	n/a	n/a	n/a	n/a	n/a	n/a	n/a	n/a	n/a	n/a	n/a	n/a	n/a
1127.502	n/a	PROB	563751	n/a	LTP293	ltpFR	13	n/a	n/a	n/a	n/a	n/a	n/a	19	7	5	7	n/a	n/a	n/a	n/a	n/a
1129.348	n/a	PROB	564674	n/a	LTP293	ltpFR	13	n/a	n/a	n/a	n/a	n/a	n/a	9	2	5	2	n/a	n/a	n/a	n/a	n/a
1130.796	n/a	PROB	565398	n/a	LTP293	ltpFR	13	n/a	n/a	n/a	n/a	n/a	n/a	20	5	7	8	n/a	n/a	n/a	n/a	n/a
1132.278	n/a	PROB	566139	n/a	LTP293	ltpFR	13	n/a	n/a	n/a	n/a	n/a	n/a	17	8	6	3	n/a	n/a	n/a	n/a	n/a
1134.436	n/a	STOP	567218	n/a	LTP293	ltpFR	13	n/a	n/a	n/a	n/a	n/a	n/a	n/a	n/a	n/a	n/a	n/a	n/a	n/a	n/a	n/a
1135.572	n/a	WORD	567786	wordpools/wasnorm_wordpool_less_exclusions.txt	LTP293	ltpFR	13	4	1	JAW	751	n/a	0	n/a	0	0	0	1	0.412841796875	0.57763671875	upper	../fonts/amplitud.ttf
1138.586	n/a	START	569293	n/a	LTP293	ltpFR	13	n/a	n/a	n/a	n/a	n/a	n/a	n/a	n/a	n/a	n/a	n/a	n/a	n/a	n/a	n/a
1139.698	n/a	PROB	569849	n/a	LTP293	ltpFR	13	n/a	n/a	n/a	n/a	n/a	n/a	22	7	7	8	n/a	n/a	n/a	n/a	n/a
1141.13	n/a	PROB	570565	n/a	LTP293	ltpFR	13	n/a	n/a	n/a	n/a	n/a	n/a	22	9	8	5	n/a	n/a	n/a	n/a	n/a
1143.16	n/a	PROB	571580	n/a	LTP293	ltpFR	13	n/a	n/a	n/a	n/a	n/a	n/a	7	3	2	2	n/a	n/a	n/a	n/a	n/a
1145.042	n/a	PROB	572521	n/a	LTP293	ltpFR	13	n/a	n/a	n/a	n/a	n/a	n/a	14	8	1	5	n/a	n/a	n/a	n/a	n/a
1146.146	n/a	STOP	573073	n/a	LTP293	ltpFR	13	n/a	n/a	n/a	n/a	n/a	n/a	n/a	n/a	n/a	n/a	n/a	n/a	n/a	n/a	n/a
1147.688	n/a	WORD	573844	wordpools/wasnorm_wordpool_less_exclusions.txt	LTP293	ltpFR	13	4	1	RESTAURANT	1187	n/a	0	n/a	0	0	0	1	0.412841796875	0.57763671875	upper	../fonts/amplitud.ttf
1150.7	n/a	START	575350	n/a	LTP293	ltpFR	13	n/a	n/a	n/a	n/a	n/a	n/a	n/a	n/a	n/a	n/a	n/a	n/a	n/a	n/a	n/a
1151.814	n/a	PROB	575907	n/a	LTP293	ltpFR	13	n/a	n/a	n/a	n/a	n/a	n/a	12	5	4	3	n/a	n/a	n/a	n/a	n/a
1153.296	n/a	PROB	576648	n/a	LTP293	ltpFR	13	n/a	n/a	n/a	n/a	n/a	n/a	20	5	8	7	n/a	n/a	n/a	n/a	n/a
1155.194	n/a	PROB	577597	n/a	LTP293	ltpFR	13	n/a	n/a	n/a	n/a	n/a	n/a	12	2	4	6	n/a	n/a	n/a	n/a	n/a
1158.7	n/a	STOP	579350	n/a	LTP293	ltpFR	13	n/a	n/a	n/a	n/a	n/a	n/a	n/a	n/a	n/a	n/a	n/a	n/a	n/a	n/a	n/a
1159.786	n/a	WORD	579893	wordpools/wasnorm_wordpool_less_exclusions.txt	LTP293	ltpFR	13	4	1	CACTUS	215	n/a	1	n/a	0	0	0	1	0.412841796875	0.57763671875	upper	../fonts/amplitud.ttf
1162.798	n/a	START	581399	n/a	LTP293	ltpFR	13	n/a	n/a	n/a	n/a	n/a	n/a	n/a	n/a	n/a	n/a	n/a	n/a	n/a	n/a	n/a
1163.714	n/a	PROB	581857	n/a	LTP293	ltpFR	13	n/a	n/a	n/a	n/a	n/a	n/a	16	6	9	1	n/a	n/a	n/a	n/a	n/a
1165.078	n/a	PROB	582539	n/a	LTP293	ltpFR	13	n/a	n/a	n/a	n/a	n/a	n/a	16	4	3	9	n/a	n/a	n/a	n/a	n/a
1166.376	n/a	PROB	583188	n/a	LTP293	ltpFR	13	n/a	n/a	n/a	n/a	n/a	n/a	10	2	7	1	n/a	n/a	n/a	n/a	n/a
1168.508	n/a	PROB	584254	n/a	LTP293	ltpFR	13	n/a	n/a	n/a	n/a	n/a	n/a	13	3	1	9	n/a	n/a	n/a	n/a	n/a
1169.994	n/a	STOP	584997	n/a	LTP293	ltpFR	13	n/a	n/a	n/a	n/a	n/a	n/a	n/a	n/a	n/a	n/a	n/a	n/a	n/a	n/a	n/a
1172.0	n/a	WORD	586000	wordpools/wasnorm_wordpool_less_exclusions.txt	LTP293	ltpFR	13	4	1	CABOOSE	214	n/a	0	n/a	0	0	0	1	0.412841796875	0.57763671875	upper	../fonts/amplitud.ttf
1175.014	n/a	START	587507	n/a	LTP293	ltpFR	13	n/a	n/a	n/a	n/a	n/a	n/a	n/a	n/a	n/a	n/a	n/a	n/a	n/a	n/a	n/a
1175.944	n/a	PROB	587972	n/a	LTP293	ltpFR	13	n/a	n/a	n/a	n/a	n/a	n/a	18	7	7	4	n/a	n/a	n/a	n/a	n/a
1177.294	n/a	PROB	588647	n/a	LTP293	ltpFR	13	n/a	n/a	n/a	n/a	n/a	n/a	14	4	6	4	n/a	n/a	n/a	n/a	n/a
1178.642	n/a	PROB	589321	n/a	LTP293	ltpFR	13	n/a	n/a	n/a	n/a	n/a	n/a	13	6	4	3	n/a	n/a	n/a	n/a	n/a
1180.24	n/a	PROB	590120	n/a	LTP293	ltpFR	13	n/a	n/a	n/a	n/a	n/a	n/a	24	9	9	6	n/a	n/a	n/a	n/a	n/a
1182.228	n/a	STOP	591114	n/a	LTP293	ltpFR	13	n/a	n/a	n/a	n/a	n/a	n/a	n/a	n/a	n/a	n/a	n/a	n/a	n/a	n/a	n/a
1184.782	n/a	REC_START	592391	n/a	LTP293	ltpFR	13	4	n/a	n/a	n/a	n/a	n/a	n/a	0	0	0	n/a	n/a	n/a	n/a	n/a
1186.234	n/a	REC_WORD	593117	wordpools/wasnorm_wordpool_less_exclusions.txt	LTP293	ltpFR	13	4	1	CABOOSE	214	n/a	0	n/a	0	0	0	n/a	n/a	n/a	n/a	n/a
1188.24	n/a	REC_WORD	594120	wordpools/wasnorm_wordpool_less_exclusions.txt	LTP293	ltpFR	13	4	1	ATTORNEY	58	n/a	1	n/a	0	0	0	n/a	n/a	n/a	n/a	n/a
1189.234	n/a	REC_WORD	594617	wordpools/wasnorm_wordpool_less_exclusions.txt	LTP293	ltpFR	13	4	1	LAWYER	806	n/a	1	n/a	0	0	0	n/a	n/a	n/a	n/a	n/a
1191.034	n/a	REC_WORD	595517	wordpools/wasnorm_wordpool_less_exclusions.txt	LTP293	ltpFR	13	4	1	BANQUET	86	n/a	0	n/a	0	0	0	n/a	n/a	n/a	n/a	n/a
1192.982	n/a	REC_WORD	596491	wordpools/wasnorm_wordpool_less_exclusions.txt	LTP293	ltpFR	13	4	1	CEREAL	272	n/a	0	n/a	0	0	0	n/a	n/a	n/a	n/a	n/a
1196.574	n/a	REC_WORD	598287	wordpools/wasnorm_wordpool_less_exclusions.txt	LTP293	ltpFR	13	4	1	DINNER	468	n/a	0	n/a	0	0	0	n/a	n/a	n/a	n/a	n/a
1202.38	n/a	REC_WORD	601190	wordpools/wasnorm_wordpool_less_exclusions.txt	LTP293	ltpFR	13	4	1	WITNESS	1618	n/a	0	n/a	0	0	0	n/a	n/a	n/a	n/a	n/a
1213.926	n/a	REC_WORD	606963	wordpools/wasnorm_wordpool_less_exclusions.txt	LTP293	ltpFR	13	4	1	NEPHEW	942	n/a	1	n/a	0	0	0	n/a	n/a	n/a	n/a	n/a
1281.422	n/a	START	640711	n/a	LTP293	ltpFR	13	n/a	n/a	n/a	n/a	n/a	n/a	n/a	n/a	n/a	n/a	n/a	n/a	n/a	n/a	n/a
1282.936	n/a	PROB	641468	n/a	LTP293	ltpFR	13	n/a	n/a	n/a	n/a	n/a	n/a	18	8	5	5	n/a	n/a	n/a	n/a	n/a
1284.168	n/a	PROB	642084	n/a	LTP293	ltpFR	13	n/a	n/a	n/a	n/a	n/a	n/a	19	7	6	6	n/a	n/a	n/a	n/a	n/a
1286.148	n/a	PROB	643074	n/a	LTP293	ltpFR	13	n/a	n/a	n/a	n/a	n/a	n/a	11	6	2	3	n/a	n/a	n/a	n/a	n/a
1287.778	n/a	PROB	643889	n/a	LTP293	ltpFR	13	n/a	n/a	n/a	n/a	n/a	n/a	16	7	8	1	n/a	n/a	n/a	n/a	n/a
1288.878	n/a	PROB	644439	n/a	LTP293	ltpFR	13	n/a	n/a	n/a	n/a	n/a	n/a	13	4	5	4	n/a	n/a	n/a	n/a	n/a
1290.426	n/a	PROB	645213	n/a	LTP293	ltpFR	13	n/a	n/a	n/a	n/a	n/a	n/a	19	6	7	6	n/a	n/a	n/a	n/a	n/a
1292.622	n/a	PROB	646311	n/a	LTP293	ltpFR	13	n/a	n/a	n/a	n/a	n/a	n/a	16	1	9	7	n/a	n/a	n/a	n/a	n/a
1294.002	n/a	PROB	647001	n/a	LTP293	ltpFR	13	n/a	n/a	n/a	n/a	n/a	n/a	16	6	7	3	n/a	n/a	n/a	n/a	n/a
1295.068	n/a	PROB	647534	n/a	LTP293	ltpFR	13	n/a	n/a	n/a	n/a	n/a	n/a	15	5	1	9	n/a	n/a	n/a	n/a	n/a
1296.924	n/a	STOP	648462	n/a	LTP293	ltpFR	13	n/a	n/a	n/a	n/a	n/a	n/a	n/a	n/a	n/a	n/a	n/a	n/a	n/a	n/a	n/a
1298.348	n/a	WORD	649174	wordpools/wasnorm_wordpool_less_exclusions.txt	LTP293	ltpFR	13	5	1	ALLIGATOR	16	n/a	1	n/a	0	0	0	1	0.412841796875	0.57763671875	upper	../fonts/amplitud.ttf
1301.36	n/a	START	650680	n/a	LTP293	ltpFR	13	n/a	n/a	n/a	n/a	n/a	n/a	n/a	n/a	n/a	n/a	n/a	n/a	n/a	n/a	n/a
1302.274	n/a	PROB	651137	n/a	LTP293	ltpFR	13	n/a	n/a	n/a	n/a	n/a	n/a	9	2	6	1	n/a	n/a	n/a	n/a	n/a
1304.704	n/a	PROB	652352	n/a	LTP293	ltpFR	13	n/a	n/a	n/a	n/a	n/a	n/a	8	2	2	4	n/a	n/a	n/a	n/a	n/a
1305.836	n/a	PROB	652918	n/a	LTP293	ltpFR	13	n/a	n/a	n/a	n/a	n/a	n/a	16	7	8	1	n/a	n/a	n/a	n/a	n/a
1307.184	n/a	PROB	653592	n/a	LTP293	ltpFR	13	n/a	n/a	n/a	n/a	n/a	n/a	14	1	5	8	n/a	n/a	n/a	n/a	n/a
1308.516	n/a	PROB	654258	n/a	LTP293	ltpFR	13	n/a	n/a	n/a	n/a	n/a	n/a	22	5	9	7	n/a	n/a	n/a	n/a	n/a
1310.894	n/a	PROB	655447	n/a	LTP293	ltpFR	13	n/a	n/a	n/a	n/a	n/a	n/a	10	6	1	3	n/a	n/a	n/a	n/a	n/a
1312.476	n/a	PROB	656238	n/a	LTP293	ltpFR	13	n/a	n/a	n/a	n/a	n/a	n/a	11	3	2	6	n/a	n/a	n/a	n/a	n/a
1314.674	n/a	PROB	657337	n/a	LTP293	ltpFR	13	n/a	n/a	n/a	n/a	n/a	n/a	22	9	6	7	n/a	n/a	n/a	n/a	n/a
1316.678	n/a	STOP	658339	n/a	LTP293	ltpFR	13	n/a	n/a	n/a	n/a	n/a	n/a	n/a	n/a	n/a	n/a	n/a	n/a	n/a	n/a	n/a
1318.318	n/a	WORD	659159	wordpools/wasnorm_wordpool_less_exclusions.txt	LTP293	ltpFR	13	5	1	MONGOOSE	909	n/a	1	n/a	0	0	0	1	0.412841796875	0.57763671875	upper	../fonts/amplitud.ttf
1321.332	n/a	START	660666	n/a	LTP293	ltpFR	13	n/a	n/a	n/a	n/a	n/a	n/a	n/a	n/a	n/a	n/a	n/a	n/a	n/a	n/a	n/a
1322.512	n/a	PROB	661256	n/a	LTP293	ltpFR	13	n/a	n/a	n/a	n/a	n/a	n/a	18	6	4	8	n/a	n/a	n/a	n/a	n/a
1323.992	n/a	PROB	661996	n/a	LTP293	ltpFR	13	n/a	n/a	n/a	n/a	n/a	n/a	14	1	6	7	n/a	n/a	n/a	n/a	n/a
1325.79	n/a	PROB	662895	n/a	LTP293	ltpFR	13	n/a	n/a	n/a	n/a	n/a	n/a	17	9	4	4	n/a	n/a	n/a	n/a	n/a
1327.936	n/a	PROB	663968	n/a	LTP293	ltpFR	13	n/a	n/a	n/a	n/a	n/a	n/a	14	6	2	6	n/a	n/a	n/a	n/a	n/a
1329.552	n/a	PROB	664776	n/a	LTP293	ltpFR	13	n/a	n/a	n/a	n/a	n/a	n/a	14	6	5	3	n/a	n/a	n/a	n/a	n/a
1330.948	n/a	PROB	665474	n/a	LTP293	ltpFR	13	n/a	n/a	n/a	n/a	n/a	n/a	17	2	8	7	n/a	n/a	n/a	n/a	n/a
1332.498	n/a	PROB	666249	n/a	LTP293	ltpFR	13	n/a	n/a	n/a	n/a	n/a	n/a	17	9	5	3	n/a	n/a	n/a	n/a	n/a
1334.212	n/a	PROB	667106	n/a	LTP293	ltpFR	13	n/a	n/a	n/a	n/a	n/a	n/a	12	4	5	3	n/a	n/a	n/a	n/a	n/a
1335.86	n/a	STOP	667930	n/a	LTP293	ltpFR	13	n/a	n/a	n/a	n/a	n/a	n/a	n/a	n/a	n/a	n/a	n/a	n/a	n/a	n/a	n/a
1338.488	n/a	WORD	669244	wordpools/wasnorm_wordpool_less_exclusions.txt	LTP293	ltpFR	13	5	1	CHIMNEY	301	n/a	0	n/a	0	0	0	1	0.412841796875	0.57763671875	upper	../fonts/amplitud.ttf
1341.502	n/a	START	670751	n/a	LTP293	ltpFR	13	n/a	n/a	n/a	n/a	n/a	n/a	n/a	n/a	n/a	n/a	n/a	n/a	n/a	n/a	n/a
1342.432	n/a	PROB	671216	n/a	LTP293	ltpFR	13	n/a	n/a	n/a	n/a	n/a	n/a	13	2	7	4	n/a	n/a	n/a	n/a	n/a
1345.144	n/a	PROB	672572	n/a	LTP293	ltpFR	13	n/a	n/a	n/a	n/a	n/a	n/a	22	9	9	4	n/a	n/a	n/a	n/a	n/a
1346.642	n/a	PROB	673321	n/a	LTP293	ltpFR	13	n/a	n/a	n/a	n/a	n/a	n/a	16	5	9	2	n/a	n/a	n/a	n/a	n/a
1348.006	n/a	PROB	674003	n/a	LTP293	ltpFR	13	n/a	n/a	n/a	n/a	n/a	n/a	11	2	2	7	n/a	n/a	n/a	n/a	n/a
1349.704	n/a	PROB	674852	n/a	LTP293	ltpFR	13	n/a	n/a	n/a	n/a	n/a	n/a	13	3	2	8	n/a	n/a	n/a	n/a	n/a
1350.986	n/a	PROB	675493	n/a	LTP293	ltpFR	13	n/a	n/a	n/a	n/a	n/a	n/a	8	6	1	1	n/a	n/a	n/a	n/a	n/a
1352.202	n/a	PROB	676101	n/a	LTP293	ltpFR	13	n/a	n/a	n/a	n/a	n/a	n/a	11	2	7	2	n/a	n/a	n/a	n/a	n/a
1353.45	n/a	PROB	676725	n/a	LTP293	ltpFR	13	n/a	n/a	n/a	n/a	n/a	n/a	21	8	7	6	n/a	n/a	n/a	n/a	n/a
1356.012	n/a	STOP	678006	n/a	LTP293	ltpFR	13	n/a	n/a	n/a	n/a	n/a	n/a	n/a	n/a	n/a	n/a	n/a	n/a	n/a	n/a	n/a
1358.376	n/a	WORD	679188	wordpools/wasnorm_wordpool_less_exclusions.txt	LTP293	ltpFR	13	5	1	SWING	1421	n/a	0	n/a	0	0	0	1	0.412841796875	0.57763671875	upper	../fonts/amplitud.ttf
1361.388	n/a	START	680694	n/a	LTP293	ltpFR	13	n/a	n/a	n/a	n/a	n/a	n/a	n/a	n/a	n/a	n/a	n/a	n/a	n/a	n/a	n/a
1362.386	n/a	PROB	681193	n/a	LTP293	ltpFR	13	n/a	n/a	n/a	n/a	n/a	n/a	16	3	7	6	n/a	n/a	n/a	n/a	n/a
1364.434	n/a	PROB	682217	n/a	LTP293	ltpFR	13	n/a	n/a	n/a	n/a	n/a	n/a	16	7	5	4	n/a	n/a	n/a	n/a	n/a
1365.664	n/a	PROB	682832	n/a	LTP293	ltpFR	13	n/a	n/a	n/a	n/a	n/a	n/a	18	4	6	8	n/a	n/a	n/a	n/a	n/a
1366.978	n/a	PROB	683489	n/a	LTP293	ltpFR	13	n/a	n/a	n/a	n/a	n/a	n/a	12	5	5	2	n/a	n/a	n/a	n/a	n/a
1368.076	n/a	PROB	684038	n/a	LTP293	ltpFR	13	n/a	n/a	n/a	n/a	n/a	n/a	17	4	7	6	n/a	n/a	n/a	n/a	n/a
1369.642	n/a	PROB	684821	n/a	LTP293	ltpFR	13	n/a	n/a	n/a	n/a	n/a	n/a	19	3	7	9	n/a	n/a	n/a	n/a	n/a
1370.922	n/a	PROB	685461	n/a	LTP293	ltpFR	13	n/a	n/a	n/a	n/a	n/a	n/a	18	4	9	5	n/a	n/a	n/a	n/a	n/a
1372.288	n/a	PROB	686144	n/a	LTP293	ltpFR	13	n/a	n/a	n/a	n/a	n/a	n/a	10	1	4	5	n/a	n/a	n/a	n/a	n/a
1373.52	n/a	PROB	686760	n/a	LTP293	ltpFR	13	n/a	n/a	n/a	n/a	n/a	n/a	13	1	6	6	n/a	n/a	n/a	n/a	n/a
1374.734	n/a	PROB	687367	n/a	LTP293	ltpFR	13	n/a	n/a	n/a	n/a	n/a	n/a	18	8	1	9	n/a	n/a	n/a	n/a	n/a
1375.876	n/a	STOP	687938	n/a	LTP293	ltpFR	13	n/a	n/a	n/a	n/a	n/a	n/a	n/a	n/a	n/a	n/a	n/a	n/a	n/a	n/a	n/a
1378.328	n/a	WORD	689164	wordpools/wasnorm_wordpool_less_exclusions.txt	LTP293	ltpFR	13	5	1	LUMBER	848	n/a	0	n/a	0	0	0	1	0.412841796875	0.57763671875	upper	../fonts/amplitud.ttf
1381.342	n/a	START	690671	n/a	LTP293	ltpFR	13	n/a	n/a	n/a	n/a	n/a	n/a	n/a	n/a	n/a	n/a	n/a	n/a	n/a	n/a	n/a
1382.372	n/a	PROB	691186	n/a	LTP293	ltpFR	13	n/a	n/a	n/a	n/a	n/a	n/a	16	9	1	6	n/a	n/a	n/a	n/a	n/a
1383.67	n/a	PROB	691835	n/a	LTP293	ltpFR	13	n/a	n/a	n/a	n/a	n/a	n/a	17	8	5	4	n/a	n/a	n/a	n/a	n/a
1385.268	n/a	PROB	692634	n/a	LTP293	ltpFR	13	n/a	n/a	n/a	n/a	n/a	n/a	11	4	1	6	n/a	n/a	n/a	n/a	n/a
1386.882	n/a	PROB	693441	n/a	LTP293	ltpFR	13	n/a	n/a	n/a	n/a	n/a	n/a	13	3	3	7	n/a	n/a	n/a	n/a	n/a
1389.646	n/a	PROB	694823	n/a	LTP293	ltpFR	13	n/a	n/a	n/a	n/a	n/a	n/a	19	9	6	4	n/a	n/a	n/a	n/a	n/a
1391.194	n/a	PROB	695597	n/a	LTP293	ltpFR	13	n/a	n/a	n/a	n/a	n/a	n/a	19	3	8	8	n/a	n/a	n/a	n/a	n/a
1392.79	n/a	PROB	696395	n/a	LTP293	ltpFR	13	n/a	n/a	n/a	n/a	n/a	n/a	10	3	2	5	n/a	n/a	n/a	n/a	n/a
1394.038	n/a	PROB	697019	n/a	LTP293	ltpFR	13	n/a	n/a	n/a	n/a	n/a	n/a	16	5	7	4	n/a	n/a	n/a	n/a	n/a
1395.818	n/a	PROB	697909	n/a	LTP293	ltpFR	13	n/a	n/a	n/a	n/a	n/a	n/a	10	3	1	6	n/a	n/a	n/a	n/a	n/a
1397.318	n/a	STOP	698659	n/a	LTP293	ltpFR	13	n/a	n/a	n/a	n/a	n/a	n/a	n/a	n/a	n/a	n/a	n/a	n/a	n/a	n/a	n/a
1398.366	n/a	WORD	699183	wordpools/wasnorm_wordpool_less_exclusions.txt	LTP293	ltpFR	13	5	1	SNAKE	1333	n/a	1	n/a	0	0	0	1	0.412841796875	0.57763671875	upper	../fonts/amplitud.ttf
1401.378	n/a	START	700689	n/a	LTP293	ltpFR	13	n/a	n/a	n/a	n/a	n/a	n/a	n/a	n/a	n/a	n/a	n/a	n/a	n/a	n/a	n/a
1402.26	n/a	PROB	701130	n/a	LTP293	ltpFR	13	n/a	n/a	n/a	n/a	n/a	n/a	10	1	7	2	n/a	n/a	n/a	n/a	n/a
1403.924	n/a	PROB	701962	n/a	LTP293	ltpFR	13	n/a	n/a	n/a	n/a	n/a	n/a	20	3	8	9	n/a	n/a	n/a	n/a	n/a
1408.002	n/a	PROB	704001	n/a	LTP293	ltpFR	13	n/a	n/a	n/a	n/a	n/a	n/a	11	2	5	4	n/a	n/a	n/a	n/a	n/a
1409.65	n/a	PROB	704825	n/a	LTP293	ltpFR	13	n/a	n/a	n/a	n/a	n/a	n/a	17	3	9	5	n/a	n/a	n/a	n/a	n/a
1411.398	n/a	PROB	705699	n/a	LTP293	ltpFR	13	n/a	n/a	n/a	n/a	n/a	n/a	17	8	5	4	n/a	n/a	n/a	n/a	n/a
1413.378	n/a	PROB	706689	n/a	LTP293	ltpFR	13	n/a	n/a	n/a	n/a	n/a	n/a	14	2	3	9	n/a	n/a	n/a	n/a	n/a
1414.542	n/a	PROB	707271	n/a	LTP293	ltpFR	13	n/a	n/a	n/a	n/a	n/a	n/a	15	4	4	7	n/a	n/a	n/a	n/a	n/a
1415.806	n/a	PROB	707903	n/a	LTP293	ltpFR	13	n/a	n/a	n/a	n/a	n/a	n/a	8	6	1	1	n/a	n/a	n/a	n/a	n/a
1416.854	n/a	STOP	708427	n/a	LTP293	ltpFR	13	n/a	n/a	n/a	n/a	n/a	n/a	n/a	n/a	n/a	n/a	n/a	n/a	n/a	n/a	n/a
1418.32	n/a	WORD	709160	wordpools/wasnorm_wordpool_less_exclusions.txt	LTP293	ltpFR	13	5	1	POT	1114	n/a	0	n/a	0	0	0	1	0.412841796875	0.57763671875	upper	../fonts/amplitud.ttf
1421.332	n/a	START	710666	n/a	LTP293	ltpFR	13	n/a	n/a	n/a	n/a	n/a	n/a	n/a	n/a	n/a	n/a	n/a	n/a	n/a	n/a	n/a
1422.164	n/a	PROB	711082	n/a	LTP293	ltpFR	13	n/a	n/a	n/a	n/a	n/a	n/a	13	8	2	3	n/a	n/a	n/a	n/a	n/a
1423.462	n/a	PROB	711731	n/a	LTP293	ltpFR	13	n/a	n/a	n/a	n/a	n/a	n/a	8	1	3	4	n/a	n/a	n/a	n/a	n/a
1424.926	n/a	PROB	712463	n/a	LTP293	ltpFR	13	n/a	n/a	n/a	n/a	n/a	n/a	12	1	5	6	n/a	n/a	n/a	n/a	n/a
1427.072	n/a	PROB	713536	n/a	LTP293	ltpFR	13	n/a	n/a	n/a	n/a	n/a	n/a	13	2	9	2	n/a	n/a	n/a	n/a	n/a
1428.836	n/a	PROB	714418	n/a	LTP293	ltpFR	13	n/a	n/a	n/a	n/a	n/a	n/a	17	3	9	5	n/a	n/a	n/a	n/a	n/a
1430.818	n/a	PROB	715409	n/a	LTP293	ltpFR	13	n/a	n/a	n/a	n/a	n/a	n/a	12	6	7	1	n/a	n/a	n/a	n/a	n/a
1432.166	n/a	PROB	716083	n/a	LTP293	ltpFR	13	n/a	n/a	n/a	n/a	n/a	n/a	17	3	8	6	n/a	n/a	n/a	n/a	n/a
1434.346	n/a	PROB	717173	n/a	LTP293	ltpFR	13	n/a	n/a	n/a	n/a	n/a	n/a	5	2	2	1	n/a	n/a	n/a	n/a	n/a
1435.644	n/a	PROB	717822	n/a	LTP293	ltpFR	13	n/a	n/a	n/a	n/a	n/a	n/a	14	5	1	8	n/a	n/a	n/a	n/a	n/a
1436.99	n/a	STOP	718495	n/a	LTP293	ltpFR	13	n/a	n/a	n/a	n/a	n/a	n/a	n/a	n/a	n/a	n/a	n/a	n/a	n/a	n/a	n/a
1438.24	n/a	WORD	719120	wordpools/wasnorm_wordpool_less_exclusions.txt	LTP293	ltpFR	13	5	1	COLT	349	n/a	1	n/a	0	0	0	1	0.412841796875	0.57763671875	upper	../fonts/amplitud.ttf
1441.254	n/a	START	720627	n/a	LTP293	ltpFR	13	n/a	n/a	n/a	n/a	n/a	n/a	n/a	n/a	n/a	n/a	n/a	n/a	n/a	n/a	n/a
1442.368	n/a	PROB	721184	n/a	LTP293	ltpFR	13	n/a	n/a	n/a	n/a	n/a	n/a	15	3	8	4	n/a	n/a	n/a	n/a	n/a
1444.664	n/a	PROB	722332	n/a	LTP293	ltpFR	13	n/a	n/a	n/a	n/a	n/a	n/a	14	2	8	4	n/a	n/a	n/a	n/a	n/a
1446.394	n/a	PROB	723197	n/a	LTP293	ltpFR	13	n/a	n/a	n/a	n/a	n/a	n/a	17	7	4	6	n/a	n/a	n/a	n/a	n/a
1448.058	n/a	PROB	724029	n/a	LTP293	ltpFR	13	n/a	n/a	n/a	n/a	n/a	n/a	12	5	6	1	n/a	n/a	n/a	n/a	n/a
1449.524	n/a	PROB	724762	n/a	LTP293	ltpFR	13	n/a	n/a	n/a	n/a	n/a	n/a	13	3	2	8	n/a	n/a	n/a	n/a	n/a
1450.688	n/a	PROB	725344	n/a	LTP293	ltpFR	13	n/a	n/a	n/a	n/a	n/a	n/a	13	8	4	1	n/a	n/a	n/a	n/a	n/a
1452.586	n/a	PROB	726293	n/a	LTP293	ltpFR	13	n/a	n/a	n/a	n/a	n/a	n/a	6	4	1	1	n/a	n/a	n/a	n/a	n/a
1453.568	n/a	PROB	726784	n/a	LTP293	ltpFR	13	n/a	n/a	n/a	n/a	n/a	n/a	13	2	2	9	n/a	n/a	n/a	n/a	n/a
1455.114	n/a	PROB	727557	n/a	LTP293	ltpFR	13	n/a	n/a	n/a	n/a	n/a	n/a	10	1	8	1	n/a	n/a	n/a	n/a	n/a
1456.278	n/a	STOP	728139	n/a	LTP293	ltpFR	13	n/a	n/a	n/a	n/a	n/a	n/a	n/a	n/a	n/a	n/a	n/a	n/a	n/a	n/a	n/a
1458.344	n/a	WORD	729172	wordpools/wasnorm_wordpool_less_exclusions.txt	LTP293	ltpFR	13	5	1	TAPE	1433	n/a	0	n/a	0	0	0	1	0.412841796875	0.57763671875	upper	../fonts/amplitud.ttf
1461.356	n/a	START	730678	n/a	LTP293	ltpFR	13	n/a	n/a	n/a	n/a	n/a	n/a	n/a	n/a	n/a	n/a	n/a	n/a	n/a	n/a	n/a
1462.322	n/a	PROB	731161	n/a	LTP293	ltpFR	13	n/a	n/a	n/a	n/a	n/a	n/a	22	8	5	9	n/a	n/a	n/a	n/a	n/a
1463.852	n/a	PROB	731926	n/a	LTP293	ltpFR	13	n/a	n/a	n/a	n/a	n/a	n/a	21	4	8	9	n/a	n/a	n/a	n/a	n/a
1465.1	n/a	PROB	732550	n/a	LTP293	ltpFR	13	n/a	n/a	n/a	n/a	n/a	n/a	12	6	4	2	n/a	n/a	n/a	n/a	n/a
1466.464	n/a	PROB	733232	n/a	LTP293	ltpFR	13	n/a	n/a	n/a	n/a	n/a	n/a	12	2	7	3	n/a	n/a	n/a	n/a	n/a
1468.562	n/a	PROB	734281	n/a	LTP293	ltpFR	13	n/a	n/a	n/a	n/a	n/a	n/a	17	6	3	8	n/a	n/a	n/a	n/a	n/a
1470.41	n/a	PROB	735205	n/a	LTP293	ltpFR	13	n/a	n/a	n/a	n/a	n/a	n/a	3	1	1	1	n/a	n/a	n/a	n/a	n/a
1471.408	n/a	PROB	735704	n/a	LTP293	ltpFR	13	n/a	n/a	n/a	n/a	n/a	n/a	22	7	9	6	n/a	n/a	n/a	n/a	n/a
1473.686	n/a	PROB	736843	n/a	LTP293	ltpFR	13	n/a	n/a	n/a	n/a	n/a	n/a	17	9	5	3	n/a	n/a	n/a	n/a	n/a
1477.356	n/a	STOP	738678	n/a	LTP293	ltpFR	13	n/a	n/a	n/a	n/a	n/a	n/a	n/a	n/a	n/a	n/a	n/a	n/a	n/a	n/a	n/a
1478.248	n/a	WORD	739124	wordpools/wasnorm_wordpool_less_exclusions.txt	LTP293	ltpFR	13	5	1	RAM	1165	n/a	1	n/a	0	0	0	1	0.412841796875	0.57763671875	upper	../fonts/amplitud.ttf
1481.26	n/a	START	740630	n/a	LTP293	ltpFR	13	n/a	n/a	n/a	n/a	n/a	n/a	n/a	n/a	n/a	n/a	n/a	n/a	n/a	n/a	n/a
1482.442	n/a	PROB	741221	n/a	LTP293	ltpFR	13	n/a	n/a	n/a	n/a	n/a	n/a	13	5	3	5	n/a	n/a	n/a	n/a	n/a
1483.622	n/a	PROB	741811	n/a	LTP293	ltpFR	13	n/a	n/a	n/a	n/a	n/a	n/a	11	3	4	2	n/a	n/a	n/a	n/a	n/a
1486.186	n/a	PROB	743093	n/a	LTP293	ltpFR	13	n/a	n/a	n/a	n/a	n/a	n/a	23	6	9	8	n/a	n/a	n/a	n/a	n/a
1487.932	n/a	PROB	743966	n/a	LTP293	ltpFR	13	n/a	n/a	n/a	n/a	n/a	n/a	21	6	6	9	n/a	n/a	n/a	n/a	n/a
1490.396	n/a	PROB	745198	n/a	LTP293	ltpFR	13	n/a	n/a	n/a	n/a	n/a	n/a	18	8	7	3	n/a	n/a	n/a	n/a	n/a
1491.942	n/a	PROB	745971	n/a	LTP293	ltpFR	13	n/a	n/a	n/a	n/a	n/a	n/a	19	6	7	6	n/a	n/a	n/a	n/a	n/a
1494.622	n/a	PROB	747311	n/a	LTP293	ltpFR	13	n/a	n/a	n/a	n/a	n/a	n/a	13	4	3	6	n/a	n/a	n/a	n/a	n/a
1496.358	n/a	STOP	748179	n/a	LTP293	ltpFR	13	n/a	n/a	n/a	n/a	n/a	n/a	n/a	n/a	n/a	n/a	n/a	n/a	n/a	n/a	n/a
1498.1	n/a	WORD	749050	wordpools/wasnorm_wordpool_less_exclusions.txt	LTP293	ltpFR	13	5	1	KNOB	787	n/a	0	n/a	0	0	0	1	0.412841796875	0.57763671875	upper	../fonts/amplitud.ttf
1501.114	n/a	START	750557	n/a	LTP293	ltpFR	13	n/a	n/a	n/a	n/a	n/a	n/a	n/a	n/a	n/a	n/a	n/a	n/a	n/a	n/a	n/a
1501.962	n/a	PROB	750981	n/a	LTP293	ltpFR	13	n/a	n/a	n/a	n/a	n/a	n/a	20	7	5	8	n/a	n/a	n/a	n/a	n/a
1503.726	n/a	PROB	751863	n/a	LTP293	ltpFR	13	n/a	n/a	n/a	n/a	n/a	n/a	13	7	4	2	n/a	n/a	n/a	n/a	n/a
1505.956	n/a	PROB	752978	n/a	LTP293	ltpFR	13	n/a	n/a	n/a	n/a	n/a	n/a	13	8	4	1	n/a	n/a	n/a	n/a	n/a
1507.372	n/a	PROB	753686	n/a	LTP293	ltpFR	13	n/a	n/a	n/a	n/a	n/a	n/a	18	5	6	7	n/a	n/a	n/a	n/a	n/a
1509.084	n/a	PROB	754542	n/a	LTP293	ltpFR	13	n/a	n/a	n/a	n/a	n/a	n/a	21	7	6	8	n/a	n/a	n/a	n/a	n/a
1510.998	n/a	PROB	755499	n/a	LTP293	ltpFR	13	n/a	n/a	n/a	n/a	n/a	n/a	18	9	2	7	n/a	n/a	n/a	n/a	n/a
1512.912	n/a	PROB	756456	n/a	LTP293	ltpFR	13	n/a	n/a	n/a	n/a	n/a	n/a	12	2	4	6	n/a	n/a	n/a	n/a	n/a
1514.078	n/a	PROB	757039	n/a	LTP293	ltpFR	13	n/a	n/a	n/a	n/a	n/a	n/a	13	3	6	2	n/a	n/a	n/a	n/a	n/a
1515.758	n/a	STOP	757879	n/a	LTP293	ltpFR	13	n/a	n/a	n/a	n/a	n/a	n/a	n/a	n/a	n/a	n/a	n/a	n/a	n/a	n/a	n/a
1518.172	n/a	WORD	759086	wordpools/wasnorm_wordpool_less_exclusions.txt	LTP293	ltpFR	13	5	1	KEY	773	n/a	0	n/a	0	0	0	1	0.412841796875	0.57763671875	upper	../fonts/amplitud.ttf
1521.184	n/a	START	760592	n/a	LTP293	ltpFR	13	n/a	n/a	n/a	n/a	n/a	n/a	n/a	n/a	n/a	n/a	n/a	n/a	n/a	n/a	n/a
1522.016	n/a	PROB	761008	n/a	LTP293	ltpFR	13	n/a	n/a	n/a	n/a	n/a	n/a	19	8	7	4	n/a	n/a	n/a	n/a	n/a
1524.046	n/a	PROB	762023	n/a	LTP293	ltpFR	13	n/a	n/a	n/a	n/a	n/a	n/a	20	9	9	2	n/a	n/a	n/a	n/a	n/a
1525.61	n/a	PROB	762805	n/a	LTP293	ltpFR	13	n/a	n/a	n/a	n/a	n/a	n/a	13	3	4	6	n/a	n/a	n/a	n/a	n/a
1527.442	n/a	PROB	763721	n/a	LTP293	ltpFR	13	n/a	n/a	n/a	n/a	n/a	n/a	19	8	3	8	n/a	n/a	n/a	n/a	n/a
1529.306	n/a	PROB	764653	n/a	LTP293	ltpFR	13	n/a	n/a	n/a	n/a	n/a	n/a	14	8	5	1	n/a	n/a	n/a	n/a	n/a
1530.902	n/a	PROB	765451	n/a	LTP293	ltpFR	13	n/a	n/a	n/a	n/a	n/a	n/a	18	4	9	5	n/a	n/a	n/a	n/a	n/a
1532.95	n/a	PROB	766475	n/a	LTP293	ltpFR	13	n/a	n/a	n/a	n/a	n/a	n/a	17	6	3	8	n/a	n/a	n/a	n/a	n/a
1535.23	n/a	PROB	767615	n/a	LTP293	ltpFR	13	n/a	n/a	n/a	n/a	n/a	n/a	4	1	1	2	n/a	n/a	n/a	n/a	n/a
1537.022	n/a	STOP	768511	n/a	LTP293	ltpFR	13	n/a	n/a	n/a	n/a	n/a	n/a	n/a	n/a	n/a	n/a	n/a	n/a	n/a	n/a	n/a
1538.208	n/a	WORD	769104	wordpools/wasnorm_wordpool_less_exclusions.txt	LTP293	ltpFR	13	5	1	BARN	89	n/a	0	n/a	0	0	0	1	0.412841796875	0.57763671875	upper	../fonts/amplitud.ttf
1541.222	n/a	START	770611	n/a	LTP293	ltpFR	13	n/a	n/a	n/a	n/a	n/a	n/a	n/a	n/a	n/a	n/a	n/a	n/a	n/a	n/a	n/a
1542.052	n/a	PROB	771026	n/a	LTP293	ltpFR	13	n/a	n/a	n/a	n/a	n/a	n/a	12	3	7	2	n/a	n/a	n/a	n/a	n/a
1543.55	n/a	PROB	771775	n/a	LTP293	ltpFR	13	n/a	n/a	n/a	n/a	n/a	n/a	14	5	7	2	n/a	n/a	n/a	n/a	n/a
1546.464	n/a	PROB	773232	n/a	LTP293	ltpFR	13	n/a	n/a	n/a	n/a	n/a	n/a	20	9	8	3	n/a	n/a	n/a	n/a	n/a
1548.044	n/a	PROB	774022	n/a	LTP293	ltpFR	13	n/a	n/a	n/a	n/a	n/a	n/a	12	2	4	5	n/a	n/a	n/a	n/a	n/a
1549.526	n/a	PROB	774763	n/a	LTP293	ltpFR	13	n/a	n/a	n/a	n/a	n/a	n/a	15	4	9	2	n/a	n/a	n/a	n/a	n/a
1551.556	n/a	PROB	775778	n/a	LTP293	ltpFR	13	n/a	n/a	n/a	n/a	n/a	n/a	14	7	5	2	n/a	n/a	n/a	n/a	n/a
1553.536	n/a	PROB	776768	n/a	LTP293	ltpFR	13	n/a	n/a	n/a	n/a	n/a	n/a	25	8	8	9	n/a	n/a	n/a	n/a	n/a
1557.222	n/a	STOP	778611	n/a	LTP293	ltpFR	13	n/a	n/a	n/a	n/a	n/a	n/a	n/a	n/a	n/a	n/a	n/a	n/a	n/a	n/a	n/a
1558.246	n/a	WORD	779123	wordpools/wasnorm_wordpool_less_exclusions.txt	LTP293	ltpFR	13	5	1	JAM	748	n/a	0	n/a	0	0	0	1	0.412841796875	0.57763671875	upper	../fonts/amplitud.ttf
1561.258	n/a	START	780629	n/a	LTP293	ltpFR	13	n/a	n/a	n/a	n/a	n/a	n/a	n/a	n/a	n/a	n/a	n/a	n/a	n/a	n/a	n/a
1562.406	n/a	PROB	781203	n/a	LTP293	ltpFR	13	n/a	n/a	n/a	n/a	n/a	n/a	17	8	3	6	n/a	n/a	n/a	n/a	n/a
1564.436	n/a	PROB	782218	n/a	LTP293	ltpFR	13	n/a	n/a	n/a	n/a	n/a	n/a	18	6	8	4	n/a	n/a	n/a	n/a	n/a
1565.966	n/a	PROB	782983	n/a	LTP293	ltpFR	13	n/a	n/a	n/a	n/a	n/a	n/a	15	7	1	7	n/a	n/a	n/a	n/a	n/a
1568.53	n/a	PROB	784265	n/a	LTP293	ltpFR	13	n/a	n/a	n/a	n/a	n/a	n/a	16	2	6	8	n/a	n/a	n/a	n/a	n/a
1569.612	n/a	PROB	784806	n/a	LTP293	ltpFR	13	n/a	n/a	n/a	n/a	n/a	n/a	24	8	8	8	n/a	n/a	n/a	n/a	n/a
1571.008	n/a	PROB	785504	n/a	LTP293	ltpFR	13	n/a	n/a	n/a	n/a	n/a	n/a	13	1	8	4	n/a	n/a	n/a	n/a	n/a
1572.342	n/a	PROB	786171	n/a	LTP293	ltpFR	13	n/a	n/a	n/a	n/a	n/a	n/a	18	4	6	8	n/a	n/a	n/a	n/a	n/a
1575.982	n/a	STOP	787991	n/a	LTP293	ltpFR	13	n/a	n/a	n/a	n/a	n/a	n/a	n/a	n/a	n/a	n/a	n/a	n/a	n/a	n/a	n/a
1578.398	n/a	WORD	789199	wordpools/wasnorm_wordpool_less_exclusions.txt	LTP293	ltpFR	13	5	1	SUPERMARKET	1409	n/a	0	n/a	0	0	0	1	0.412841796875	0.57763671875	upper	../fonts/amplitud.ttf
1581.412	n/a	START	790706	n/a	LTP293	ltpFR	13	n/a	n/a	n/a	n/a	n/a	n/a	n/a	n/a	n/a	n/a	n/a	n/a	n/a	n/a	n/a
1582.592	n/a	PROB	791296	n/a	LTP293	ltpFR	13	n/a	n/a	n/a	n/a	n/a	n/a	14	3	8	3	n/a	n/a	n/a	n/a	n/a
1584.224	n/a	PROB	792112	n/a	LTP293	ltpFR	13	n/a	n/a	n/a	n/a	n/a	n/a	21	6	7	8	n/a	n/a	n/a	n/a	n/a
1586.586	n/a	PROB	793293	n/a	LTP293	ltpFR	13	n/a	n/a	n/a	n/a	n/a	n/a	23	8	6	9	n/a	n/a	n/a	n/a	n/a
1588.7	n/a	PROB	794350	n/a	LTP293	ltpFR	13	n/a	n/a	n/a	n/a	n/a	n/a	15	3	6	6	n/a	n/a	n/a	n/a	n/a
1590.43	n/a	PROB	795215	n/a	LTP293	ltpFR	13	n/a	n/a	n/a	n/a	n/a	n/a	20	4	8	8	n/a	n/a	n/a	n/a	n/a
1592.478	n/a	PROB	796239	n/a	LTP293	ltpFR	13	n/a	n/a	n/a	n/a	n/a	n/a	13	8	3	2	n/a	n/a	n/a	n/a	n/a
1597.412	n/a	STOP	798706	n/a	LTP293	ltpFR	13	n/a	n/a	n/a	n/a	n/a	n/a	n/a	n/a	n/a	n/a	n/a	n/a	n/a	n/a	n/a
1598.454	n/a	WORD	799227	wordpools/wasnorm_wordpool_less_exclusions.txt	LTP293	ltpFR	13	5	1	STORE	1387	n/a	0	n/a	0	0	0	1	0.412841796875	0.57763671875	upper	../fonts/amplitud.ttf
1601.466	n/a	START	800733	n/a	LTP293	ltpFR	13	n/a	n/a	n/a	n/a	n/a	n/a	n/a	n/a	n/a	n/a	n/a	n/a	n/a	n/a	n/a
1602.348	n/a	PROB	801174	n/a	LTP293	ltpFR	13	n/a	n/a	n/a	n/a	n/a	n/a	18	4	6	6	n/a	n/a	n/a	n/a	n/a
1604.044	n/a	PROB	802022	n/a	LTP293	ltpFR	13	n/a	n/a	n/a	n/a	n/a	n/a	9	4	3	2	n/a	n/a	n/a	n/a	n/a
1605.874	n/a	PROB	802937	n/a	LTP293	ltpFR	13	n/a	n/a	n/a	n/a	n/a	n/a	14	8	1	5	n/a	n/a	n/a	n/a	n/a
1607.14	n/a	PROB	803570	n/a	LTP293	ltpFR	13	n/a	n/a	n/a	n/a	n/a	n/a	9	4	2	3	n/a	n/a	n/a	n/a	n/a
1609.436	n/a	PROB	804718	n/a	LTP293	ltpFR	13	n/a	n/a	n/a	n/a	n/a	n/a	22	7	8	7	n/a	n/a	n/a	n/a	n/a
1612.016	n/a	PROB	806008	n/a	LTP293	ltpFR	13	n/a	n/a	n/a	n/a	n/a	n/a	17	8	8	1	n/a	n/a	n/a	n/a	n/a
1613.962	n/a	PROB	806981	n/a	LTP293	ltpFR	13	n/a	n/a	n/a	n/a	n/a	n/a	16	8	3	5	n/a	n/a	n/a	n/a	n/a
1615.044	n/a	PROB	807522	n/a	LTP293	ltpFR	13	n/a	n/a	n/a	n/a	n/a	n/a	18	8	6	4	n/a	n/a	n/a	n/a	n/a
1616.216	n/a	STOP	808108	n/a	LTP293	ltpFR	13	n/a	n/a	n/a	n/a	n/a	n/a	n/a	n/a	n/a	n/a	n/a	n/a	n/a	n/a	n/a
1619.34	n/a	REC_START	809670	n/a	LTP293	ltpFR	13	5	n/a	n/a	n/a	n/a	n/a	n/a	0	0	0	n/a	n/a	n/a	n/a	n/a
1624.69	n/a	REC_WORD	812345	wordpools/wasnorm_wordpool_less_exclusions.txt	LTP293	ltpFR	13	5	1	ALLIGATOR	16	n/a	1	n/a	0	0	0	n/a	n/a	n/a	n/a	n/a
1625.76	n/a	REC_WORD	812880	wordpools/wasnorm_wordpool_less_exclusions.txt	LTP293	ltpFR	13	5	1	MONGOOSE	909	n/a	1	n/a	0	0	0	n/a	n/a	n/a	n/a	n/a
1626.978	n/a	REC_WORD	813489	wordpools/wasnorm_wordpool_less_exclusions.txt	LTP293	ltpFR	13	5	1	SNAKE	1333	n/a	1	n/a	0	0	0	n/a	n/a	n/a	n/a	n/a
1629.024	n/a	REC_WORD	814512	wordpools/wasnorm_wordpool_less_exclusions.txt	LTP293	ltpFR	13	5	1	KNOB	787	n/a	0	n/a	0	0	0	n/a	n/a	n/a	n/a	n/a
1630.158	n/a	REC_WORD	815079	wordpools/wasnorm_wordpool_less_exclusions.txt	LTP293	ltpFR	13	5	1	KEY	773	n/a	0	n/a	0	0	0	n/a	n/a	n/a	n/a	n/a
1631.718	n/a	REC_WORD	815859	wordpools/wasnorm_wordpool_less_exclusions.txt	LTP293	ltpFR	13	5	1	BARN	89	n/a	0	n/a	0	0	0	n/a	n/a	n/a	n/a	n/a
1707.608	n/a	WORD	853804	wordpools/wasnorm_wordpool_less_exclusions.txt	LTP293	ltpFR	13	6	1	MARINE	869	n/a	1	n/a	0	0	0	1	0.412841796875	0.57763671875	upper	../fonts/amplitud.ttf
1711.734	n/a	WORD	855867	wordpools/wasnorm_wordpool_less_exclusions.txt	LTP293	ltpFR	13	6	1	ICEBERG	731	n/a	0	n/a	0	0	0	1	0.412841796875	0.57763671875	upper	../fonts/amplitud.ttf
1715.596	n/a	WORD	857798	wordpools/wasnorm_wordpool_less_exclusions.txt	LTP293	ltpFR	13	6	1	RADISH	1158	n/a	0	n/a	0	0	0	1	0.412841796875	0.57763671875	upper	../fonts/amplitud.ttf
1719.59	n/a	WORD	859795	wordpools/wasnorm_wordpool_less_exclusions.txt	LTP293	ltpFR	13	6	0	PATROL	1027	n/a	1	n/a	0	0	0	0	0.5869140625	0.422607421875	lower	../fonts/zerothre.ttf
1723.45	n/a	WORD	861725	wordpools/wasnorm_wordpool_less_exclusions.txt	LTP293	ltpFR	13	6	0	PONY	1102	n/a	1	n/a	0	0	0	0	0.5869140625	0.422607421875	lower	../fonts/zerothre.ttf
1727.412	n/a	WORD	863706	wordpools/wasnorm_wordpool_less_exclusions.txt	LTP293	ltpFR	13	6	1	NIGHTGOWN	953	n/a	0	n/a	0	0	0	1	0.412841796875	0.57763671875	upper	../fonts/amplitud.ttf
1731.24	n/a	WORD	865620	wordpools/wasnorm_wordpool_less_exclusions.txt	LTP293	ltpFR	13	6	1	CLOTHES	327	n/a	0	n/a	0	0	0	1	0.412841796875	0.57763671875	upper	../fonts/amplitud.ttf
1735.316	n/a	WORD	867658	wordpools/wasnorm_wordpool_less_exclusions.txt	LTP293	ltpFR	13	6	1	FORK	594	n/a	0	n/a	0	0	0	1	0.412841796875	0.57763671875	upper	../fonts/amplitud.ttf
1739.476	n/a	WORD	869738	wordpools/wasnorm_wordpool_less_exclusions.txt	LTP293	ltpFR	13	6	0	BROOK	177	n/a	0	n/a	0	0	0	0	0.5869140625	0.422607421875	lower	../fonts/zerothre.ttf
1743.354	n/a	WORD	871677	wordpools/wasnorm_wordpool_less_exclusions.txt	LTP293	ltpFR	13	6	0	DEPARTMENT	449	n/a	1	n/a	0	0	0	0	0.5869140625	0.422607421875	lower	../fonts/zerothre.ttf
1747.382	n/a	WORD	873691	wordpools/wasnorm_wordpool_less_exclusions.txt	LTP293	ltpFR	13	6	0	PALM	1007	n/a	0	n/a	0	0	0	0	0.5869140625	0.422607421875	lower	../fonts/zerothre.ttf
1751.442	n/a	WORD	875721	wordpools/wasnorm_wordpool_less_exclusions.txt	LTP293	ltpFR	13	6	0	ELM	527	n/a	1	n/a	0	0	0	0	0.5869140625	0.422607421875	lower	../fonts/zerothre.ttf
1755.57	n/a	WORD	877785	wordpools/wasnorm_wordpool_less_exclusions.txt	LTP293	ltpFR	13	6	0	VEGETABLE	1552	n/a	1	n/a	0	0	0	0	0.5869140625	0.422607421875	lower	../fonts/zerothre.ttf
1759.496	n/a	WORD	879748	wordpools/wasnorm_wordpool_less_exclusions.txt	LTP293	ltpFR	13	6	0	OFFICER	973	n/a	1	n/a	0	0	0	0	0.5869140625	0.422607421875	lower	../fonts/zerothre.ttf
1763.608	n/a	WORD	881804	wordpools/wasnorm_wordpool_less_exclusions.txt	LTP293	ltpFR	13	6	1	TRUMPET	1513	n/a	0	n/a	0	0	0	1	0.412841796875	0.57763671875	upper	../fonts/amplitud.ttf
1767.634	n/a	WORD	883817	wordpools/wasnorm_wordpool_less_exclusions.txt	LTP293	ltpFR	13	6	1	TROMBONE	1508	n/a	0	n/a	0	0	0	1	0.412841796875	0.57763671875	upper	../fonts/amplitud.ttf
1770.648	n/a	START	885324	n/a	LTP293	ltpFR	13	n/a	n/a	n/a	n/a	n/a	n/a	n/a	n/a	n/a	n/a	n/a	n/a	n/a	n/a	n/a
1771.628	n/a	PROB	885814	n/a	LTP293	ltpFR	13	n/a	n/a	n/a	n/a	n/a	n/a	10	6	2	2	n/a	n/a	n/a	n/a	n/a
1773.542	n/a	PROB	886771	n/a	LTP293	ltpFR	13	n/a	n/a	n/a	n/a	n/a	n/a	20	8	4	4	n/a	n/a	n/a	n/a	n/a
1774.89	n/a	PROB	887445	n/a	LTP293	ltpFR	13	n/a	n/a	n/a	n/a	n/a	n/a	12	2	6	4	n/a	n/a	n/a	n/a	n/a
1776.206	n/a	PROB	888103	n/a	LTP293	ltpFR	13	n/a	n/a	n/a	n/a	n/a	n/a	16	2	7	7	n/a	n/a	n/a	n/a	n/a
1777.636	n/a	PROB	888818	n/a	LTP293	ltpFR	13	n/a	n/a	n/a	n/a	n/a	n/a	13	2	2	9	n/a	n/a	n/a	n/a	n/a
1779.218	n/a	PROB	889609	n/a	LTP293	ltpFR	13	n/a	n/a	n/a	n/a	n/a	n/a	19	7	9	3	n/a	n/a	n/a	n/a	n/a
1780.466	n/a	PROB	890233	n/a	LTP293	ltpFR	13	n/a	n/a	n/a	n/a	n/a	n/a	5	1	1	3	n/a	n/a	n/a	n/a	n/a
1781.814	n/a	PROB	890907	n/a	LTP293	ltpFR	13	n/a	n/a	n/a	n/a	n/a	n/a	13	7	1	5	n/a	n/a	n/a	n/a	n/a
1783.562	n/a	PROB	891781	n/a	LTP293	ltpFR	13	n/a	n/a	n/a	n/a	n/a	n/a	23	5	9	9	n/a	n/a	n/a	n/a	n/a
1785.578	n/a	STOP	892789	n/a	LTP293	ltpFR	13	n/a	n/a	n/a	n/a	n/a	n/a	n/a	n/a	n/a	n/a	n/a	n/a	n/a	n/a	n/a
1788.572	n/a	REC_START	894286	n/a	LTP293	ltpFR	13	6	n/a	n/a	n/a	n/a	n/a	n/a	0	0	0	n/a	n/a	n/a	n/a	n/a
1789.32	n/a	REC_WORD	894660	wordpools/wasnorm_wordpool_less_exclusions.txt	LTP293	ltpFR	13	6	1	MARINE	869	n/a	1	n/a	0	0	0	n/a	n/a	n/a	n/a	n/a
1790.43	n/a	REC_WORD	895215	wordpools/wasnorm_wordpool_less_exclusions.txt	LTP293	ltpFR	13	6	1	ICEBERG	731	n/a	0	n/a	0	0	0	n/a	n/a	n/a	n/a	n/a
1792.124	n/a	REC_WORD	896062	wordpools/wasnorm_wordpool_less_exclusions.txt	LTP293	ltpFR	13	6	0	PATROL	1027	n/a	1	n/a	0	0	0	n/a	n/a	n/a	n/a	n/a
1794.152	n/a	REC_WORD	897076	wordpools/wasnorm_wordpool_less_exclusions.txt	LTP293	ltpFR	13	6	1	RADISH	1158	n/a	0	n/a	0	0	0	n/a	n/a	n/a	n/a	n/a
1795.264	n/a	REC_WORD	897632	wordpools/wasnorm_wordpool_less_exclusions.txt	LTP293	ltpFR	13	6	1	FORK	594	n/a	0	n/a	0	0	0	n/a	n/a	n/a	n/a	n/a
1796.622	n/a	REC_WORD	898311	wordpools/wasnorm_wordpool_less_exclusions.txt	LTP293	ltpFR	13	6	1	NIGHTGOWN	953	n/a	0	n/a	0	0	0	n/a	n/a	n/a	n/a	n/a
1800.07	n/a	REC_WORD	900035	wordpools/wasnorm_wordpool_less_exclusions.txt	LTP293	ltpFR	13	6	0	OFFICER	973	n/a	1	n/a	0	0	0	n/a	n/a	n/a	n/a	n/a
1803.314	n/a	REC_WORD	901657	wordpools/wasnorm_wordpool_less_exclusions.txt	LTP293	ltpFR	13	6	0	DEPARTMENT	449	n/a	1	n/a	0	0	0	n/a	n/a	n/a	n/a	n/a
1804.86	n/a	REC_WORD	902430	wordpools/wasnorm_wordpool_less_exclusions.txt	LTP293	ltpFR	13	6	0	PALM	1007	n/a	0	n/a	0	0	0	n/a	n/a	n/a	n/a	n/a
1806.73	n/a	REC_WORD	903365	wordpools/wasnorm_wordpool_less_exclusions.txt	LTP293	ltpFR	13	6	0	VEGETABLE	1552	n/a	1	n/a	0	0	0	n/a	n/a	n/a	n/a	n/a
1817.772	n/a	REC_WORD	908886	wordpools/wasnorm_wordpool_less_exclusions.txt	LTP293	ltpFR	13	6	1	TRUMPET	1513	n/a	0	n/a	0	0	0	n/a	n/a	n/a	n/a	n/a
1818.714	n/a	REC_WORD	909357	wordpools/wasnorm_wordpool_less_exclusions.txt	LTP293	ltpFR	13	6	1	TROMBONE	1508	n/a	0	n/a	0	0	0	n/a	n/a	n/a	n/a	n/a
1864.192	n/a	REST_REWET	932096	n/a	LTP293	ltpFR	13	6	n/a	n/a	n/a	n/a	n/a	n/a	0	0	0	n/a	n/a	n/a	n/a	n/a
2611.2	n/a	WORD	1305600	wordpools/wasnorm_wordpool_less_exclusions.txt	LTP293	ltpFR	13	7	1	SWORD	1423	n/a	0	n/a	0	0	0	1	0.412841796875	0.57763671875	upper	../fonts/amplitud.ttf
2615.278	n/a	WORD	1307639	wordpools/wasnorm_wordpool_less_exclusions.txt	LTP293	ltpFR	13	7	1	SARDINE	1235	n/a	1	n/a	0	0	0	1	0.412841796875	0.57763671875	upper	../fonts/amplitud.ttf
2619.154	n/a	WORD	1309577	wordpools/wasnorm_wordpool_less_exclusions.txt	LTP293	ltpFR	13	7	1	NET	946	n/a	0	n/a	0	0	0	1	0.412841796875	0.57763671875	upper	../fonts/amplitud.ttf
2623.048	n/a	WORD	1311524	wordpools/wasnorm_wordpool_less_exclusions.txt	LTP293	ltpFR	13	7	0	LETTUCE	814	n/a	1	n/a	0	0	0	0	0.5869140625	0.422607421875	lower	../fonts/zerothre.ttf
2627.026	n/a	WORD	1313513	wordpools/wasnorm_wordpool_less_exclusions.txt	LTP293	ltpFR	13	7	0	CYCLONE	431	n/a	1	n/a	0	0	0	0	0.5869140625	0.422607421875	lower	../fonts/zerothre.ttf
2631.104	n/a	WORD	1315552	wordpools/wasnorm_wordpool_less_exclusions.txt	LTP293	ltpFR	13	7	0	MULE	931	n/a	1	n/a	0	0	0	0	0.5869140625	0.422607421875	lower	../fonts/zerothre.ttf
2635.2	n/a	WORD	1317600	wordpools/wasnorm_wordpool_less_exclusions.txt	LTP293	ltpFR	13	7	0	VICTOR	1563	n/a	1	n/a	0	0	0	0	0.5869140625	0.422607421875	lower	../fonts/zerothre.ttf
2639.092	n/a	WORD	1319546	wordpools/wasnorm_wordpool_less_exclusions.txt	LTP293	ltpFR	13	7	0	BEAST	108	n/a	1	n/a	0	0	0	0	0.5869140625	0.422607421875	lower	../fonts/zerothre.ttf
2643.004	n/a	WORD	1321502	wordpools/wasnorm_wordpool_less_exclusions.txt	LTP293	ltpFR	13	7	0	UNDERWEAR	1537	n/a	0	n/a	0	0	0	0	0.5869140625	0.422607421875	lower	../fonts/zerothre.ttf
2647.08	n/a	WORD	1323540	wordpools/wasnorm_wordpool_less_exclusions.txt	LTP293	ltpFR	13	7	1	FEMALE	559	n/a	1	n/a	0	0	0	1	0.412841796875	0.57763671875	upper	../fonts/amplitud.ttf
2651.208	n/a	WORD	1325604	wordpools/wasnorm_wordpool_less_exclusions.txt	LTP293	ltpFR	13	7	1	GROUND	666	n/a	0	n/a	0	0	0	1	0.412841796875	0.57763671875	upper	../fonts/amplitud.ttf
2655.418	n/a	WORD	1327709	wordpools/wasnorm_wordpool_less_exclusions.txt	LTP293	ltpFR	13	7	1	LIPSTICK	829	n/a	0	n/a	0	0	0	1	0.412841796875	0.57763671875	upper	../fonts/amplitud.ttf
2659.362	n/a	WORD	1329681	wordpools/wasnorm_wordpool_less_exclusions.txt	LTP293	ltpFR	13	7	1	EYELASH	546	n/a	0	n/a	0	0	0	1	0.412841796875	0.57763671875	upper	../fonts/amplitud.ttf
2663.424	n/a	WORD	1331712	wordpools/wasnorm_wordpool_less_exclusions.txt	LTP293	ltpFR	13	7	1	PICKLE	1059	n/a	0	n/a	0	0	0	1	0.412841796875	0.57763671875	upper	../fonts/amplitud.ttf
2667.634	n/a	WORD	1333817	wordpools/wasnorm_wordpool_less_exclusions.txt	LTP293	ltpFR	13	7	0	CHEST	295	n/a	1	n/a	0	0	0	0	0.5869140625	0.422607421875	lower	../fonts/zerothre.ttf
2671.594	n/a	WORD	1335797	wordpools/wasnorm_wordpool_less_exclusions.txt	LTP293	ltpFR	13	7	0	HURRICANE	727	n/a	1	n/a	0	0	0	0	0.5869140625	0.422607421875	lower	../fonts/zerothre.ttf
2674.608	n/a	START	1337304	n/a	LTP293	ltpFR	13	n/a	n/a	n/a	n/a	n/a	n/a	n/a	n/a	n/a	n/a	n/a	n/a	n/a	n/a	n/a
2675.804	n/a	PROB	1337902	n/a	LTP293	ltpFR	13	n/a	n/a	n/a	n/a	n/a	n/a	9	1	3	5	n/a	n/a	n/a	n/a	n/a
2677.752	n/a	PROB	1338876	n/a	LTP293	ltpFR	13	n/a	n/a	n/a	n/a	n/a	n/a	18	3	9	6	n/a	n/a	n/a	n/a	n/a
2679.6	n/a	PROB	1339800	n/a	LTP293	ltpFR	13	n/a	n/a	n/a	n/a	n/a	n/a	18	7	5	6	n/a	n/a	n/a	n/a	n/a
2681.26	n/a	STOP	1340630	n/a	LTP293	ltpFR	13	n/a	n/a	n/a	n/a	n/a	n/a	n/a	n/a	n/a	n/a	n/a	n/a	n/a	n/a	n/a
2684.376	n/a	REC_START	1342188	n/a	LTP293	ltpFR	13	7	n/a	n/a	n/a	n/a	n/a	n/a	0	0	0	n/a	n/a	n/a	n/a	n/a
2684.976	n/a	REC_WORD	1342488	wordpools/wasnorm_wordpool_less_exclusions.txt	LTP293	ltpFR	13	7	0	CYCLONE	431	n/a	1	n/a	0	0	0	n/a	n/a	n/a	n/a	n/a
2685.97	n/a	REC_WORD	1342985	wordpools/wasnorm_wordpool_less_exclusions.txt	LTP293	ltpFR	13	7	0	HURRICANE	727	n/a	1	n/a	0	0	0	n/a	n/a	n/a	n/a	n/a
2687.62	n/a	REC_WORD	1343810	wordpools/wasnorm_wordpool_less_exclusions.txt	LTP293	ltpFR	13	7	1	PICKLE	1059	n/a	0	n/a	0	0	0	n/a	n/a	n/a	n/a	n/a
2688.502	n/a	REC_WORD	1344251	wordpools/wasnorm_wordpool_less_exclusions.txt	LTP293	ltpFR	13	7	0	LETTUCE	814	n/a	1	n/a	0	0	0	n/a	n/a	n/a	n/a	n/a
2689.454	n/a	REC_WORD	1344727	wordpools/wasnorm_wordpool_less_exclusions.txt	LTP293	ltpFR	13	7	1	FEMALE	559	n/a	1	n/a	0	0	0	n/a	n/a	n/a	n/a	n/a
2690.744	n/a	REC_WORD	1345372	wordpools/wasnorm_wordpool_less_exclusions.txt	LTP293	ltpFR	13	7	1	LIPSTICK	829	n/a	0	n/a	0	0	0	n/a	n/a	n/a	n/a	n/a
2691.652	n/a	REC_WORD	1345826	wordpools/wasnorm_wordpool_less_exclusions.txt	LTP293	ltpFR	13	7	1	EYELASH	546	n/a	0	n/a	0	0	0	n/a	n/a	n/a	n/a	n/a
2695.518	n/a	REC_WORD	1347759	wordpools/wasnorm_wordpool_less_exclusions.txt	LTP293	ltpFR	13	7	0	BEAST	108	n/a	1	n/a	0	0	0	n/a	n/a	n/a	n/a	n/a
2696.586	n/a	REC_WORD	1348293	wordpools/wasnorm_wordpool_less_exclusions.txt	LTP293	ltpFR	13	7	0	MULE	931	n/a	1	n/a	0	0	0	n/a	n/a	n/a	n/a	n/a
2706.628	n/a	REC_WORD	1353314	wordpools/wasnorm_wordpool_less_exclusions.txt	LTP293	ltpFR	13	7	1	SWORD	1423	n/a	0	n/a	0	0	0	n/a	n/a	n/a	n/a	n/a
2743.79	n/a	REC_WORD	1371895	wordpools/wasnorm_wordpool_less_exclusions.txt	LTP293	ltpFR	13	7	1	GROUND	666	n/a	0	n/a	0	0	0	n/a	n/a	n/a	n/a	n/a
2769.25	n/a	START	1384625	n/a	LTP293	ltpFR	13	n/a	n/a	n/a	n/a	n/a	n/a	n/a	n/a	n/a	n/a	n/a	n/a	n/a	n/a	n/a
2770.764	n/a	PROB	1385382	n/a	LTP293	ltpFR	13	n/a	n/a	n/a	n/a	n/a	n/a	13	3	1	9	n/a	n/a	n/a	n/a	n/a
2772.396	n/a	PROB	1386198	n/a	LTP293	ltpFR	13	n/a	n/a	n/a	n/a	n/a	n/a	25	7	9	9	n/a	n/a	n/a	n/a	n/a
2775.29	n/a	PROB	1387645	n/a	LTP293	ltpFR	13	n/a	n/a	n/a	n/a	n/a	n/a	15	2	5	8	n/a	n/a	n/a	n/a	n/a
2776.924	n/a	STOP	1388462	n/a	LTP293	ltpFR	13	n/a	n/a	n/a	n/a	n/a	n/a	n/a	n/a	n/a	n/a	n/a	n/a	n/a	n/a	n/a
2778.336	n/a	WORD	1389168	wordpools/wasnorm_wordpool_less_exclusions.txt	LTP293	ltpFR	13	8	0	FIST	572	n/a	0	n/a	0	0	0	0	0.5869140625	0.422607421875	lower	../fonts/zerothre.ttf
2781.348	n/a	START	1390674	n/a	LTP293	ltpFR	13	n/a	n/a	n/a	n/a	n/a	n/a	n/a	n/a	n/a	n/a	n/a	n/a	n/a	n/a	n/a
2782.248	n/a	PROB	1391124	n/a	LTP293	ltpFR	13	n/a	n/a	n/a	n/a	n/a	n/a	12	3	2	7	n/a	n/a	n/a	n/a	n/a
2783.612	n/a	PROB	1391806	n/a	LTP293	ltpFR	13	n/a	n/a	n/a	n/a	n/a	n/a	14	7	6	1	n/a	n/a	n/a	n/a	n/a
2785.326	n/a	PROB	1392663	n/a	LTP293	ltpFR	13	n/a	n/a	n/a	n/a	n/a	n/a	15	2	4	9	n/a	n/a	n/a	n/a	n/a
2786.574	n/a	PROB	1393287	n/a	LTP293	ltpFR	13	n/a	n/a	n/a	n/a	n/a	n/a	17	2	7	8	n/a	n/a	n/a	n/a	n/a
2788.244	n/a	STOP	1394122	n/a	LTP293	ltpFR	13	n/a	n/a	n/a	n/a	n/a	n/a	n/a	n/a	n/a	n/a	n/a	n/a	n/a	n/a	n/a
2790.236	n/a	WORD	1395118	wordpools/wasnorm_wordpool_less_exclusions.txt	LTP293	ltpFR	13	8	0	HOOP	716	n/a	1	n/a	0	0	0	0	0.5869140625	0.422607421875	lower	../fonts/zerothre.ttf
2793.248	n/a	START	1396624	n/a	LTP293	ltpFR	13	n/a	n/a	n/a	n/a	n/a	n/a	n/a	n/a	n/a	n/a	n/a	n/a	n/a	n/a	n/a
2794.162	n/a	PROB	1397081	n/a	LTP293	ltpFR	13	n/a	n/a	n/a	n/a	n/a	n/a	17	2	9	6	n/a	n/a	n/a	n/a	n/a
2796.342	n/a	PROB	1398171	n/a	LTP293	ltpFR	13	n/a	n/a	n/a	n/a	n/a	n/a	19	6	8	5	n/a	n/a	n/a	n/a	n/a
2798.556	n/a	PROB	1399278	n/a	LTP293	ltpFR	13	n/a	n/a	n/a	n/a	n/a	n/a	13	3	4	6	n/a	n/a	n/a	n/a	n/a
2799.764	n/a	STOP	1399882	n/a	LTP293	ltpFR	13	n/a	n/a	n/a	n/a	n/a	n/a	n/a	n/a	n/a	n/a	n/a	n/a	n/a	n/a	n/a
2802.284	n/a	WORD	1401142	wordpools/wasnorm_wordpool_less_exclusions.txt	LTP293	ltpFR	13	8	0	RUBY	1214	n/a	0	n/a	0	0	0	0	0.5869140625	0.422607421875	lower	../fonts/zerothre.ttf
2805.296	n/a	START	1402648	n/a	LTP293	ltpFR	13	n/a	n/a	n/a	n/a	n/a	n/a	n/a	n/a	n/a	n/a	n/a	n/a	n/a	n/a	n/a
2806.262	n/a	PROB	1403131	n/a	LTP293	ltpFR	13	n/a	n/a	n/a	n/a	n/a	n/a	14	5	8	1	n/a	n/a	n/a	n/a	n/a
2807.642	n/a	PROB	1403821	n/a	LTP293	ltpFR	13	n/a	n/a	n/a	n/a	n/a	n/a	12	1	9	2	n/a	n/a	n/a	n/a	n/a
2809.556	n/a	PROB	1404778	n/a	LTP293	ltpFR	13	n/a	n/a	n/a	n/a	n/a	n/a	13	5	7	1	n/a	n/a	n/a	n/a	n/a
2813.298	n/a	STOP	1406649	n/a	LTP293	ltpFR	13	n/a	n/a	n/a	n/a	n/a	n/a	n/a	n/a	n/a	n/a	n/a	n/a	n/a	n/a	n/a
2814.15	n/a	WORD	1407075	wordpools/wasnorm_wordpool_less_exclusions.txt	LTP293	ltpFR	13	8	0	SCULPTURE	1258	n/a	1	n/a	0	0	0	0	0.5869140625	0.422607421875	lower	../fonts/zerothre.ttf
2817.162	n/a	START	1408581	n/a	LTP293	ltpFR	13	n/a	n/a	n/a	n/a	n/a	n/a	n/a	n/a	n/a	n/a	n/a	n/a	n/a	n/a	n/a
2818.01	n/a	PROB	1409005	n/a	LTP293	ltpFR	13	n/a	n/a	n/a	n/a	n/a	n/a	19	8	5	6	n/a	n/a	n/a	n/a	n/a
2819.974	n/a	PROB	1409987	n/a	LTP293	ltpFR	13	n/a	n/a	n/a	n/a	n/a	n/a	19	5	5	9	n/a	n/a	n/a	n/a	n/a
2821.306	n/a	PROB	1410653	n/a	LTP293	ltpFR	13	n/a	n/a	n/a	n/a	n/a	n/a	13	1	9	3	n/a	n/a	n/a	n/a	n/a
2822.786	n/a	PROB	1411393	n/a	LTP293	ltpFR	13	n/a	n/a	n/a	n/a	n/a	n/a	13	2	9	2	n/a	n/a	n/a	n/a	n/a
2825.012	n/a	STOP	1412506	n/a	LTP293	ltpFR	13	n/a	n/a	n/a	n/a	n/a	n/a	n/a	n/a	n/a	n/a	n/a	n/a	n/a	n/a	n/a
2826.366	n/a	WORD	1413183	wordpools/wasnorm_wordpool_less_exclusions.txt	LTP293	ltpFR	13	8	0	SUBURB	1399	n/a	1	n/a	0	0	0	0	0.5869140625	0.422607421875	lower	../fonts/zerothre.ttf
2829.378	n/a	START	1414689	n/a	LTP293	ltpFR	13	n/a	n/a	n/a	n/a	n/a	n/a	n/a	n/a	n/a	n/a	n/a	n/a	n/a	n/a	n/a
2830.276	n/a	PROB	1415138	n/a	LTP293	ltpFR	13	n/a	n/a	n/a	n/a	n/a	n/a	24	9	6	9	n/a	n/a	n/a	n/a	n/a
2832.59	n/a	PROB	1416295	n/a	LTP293	ltpFR	13	n/a	n/a	n/a	n/a	n/a	n/a	11	4	4	3	n/a	n/a	n/a	n/a	n/a
2834.404	n/a	PROB	1417202	n/a	LTP293	ltpFR	13	n/a	n/a	n/a	n/a	n/a	n/a	9	5	3	1	n/a	n/a	n/a	n/a	n/a
2835.8	n/a	PROB	1417900	n/a	LTP293	ltpFR	13	n/a	n/a	n/a	n/a	n/a	n/a	15	9	2	4	n/a	n/a	n/a	n/a	n/a
2837.318	n/a	STOP	1418659	n/a	LTP293	ltpFR	13	n/a	n/a	n/a	n/a	n/a	n/a	n/a	n/a	n/a	n/a	n/a	n/a	n/a	n/a	n/a
2838.38	n/a	WORD	1419190	wordpools/wasnorm_wordpool_less_exclusions.txt	LTP293	ltpFR	13	8	0	LAWN	805	n/a	1	n/a	0	0	0	0	0.5869140625	0.422607421875	lower	../fonts/zerothre.ttf
2841.394	n/a	START	1420697	n/a	LTP293	ltpFR	13	n/a	n/a	n/a	n/a	n/a	n/a	n/a	n/a	n/a	n/a	n/a	n/a	n/a	n/a	n/a
2842.308	n/a	PROB	1421154	n/a	LTP293	ltpFR	13	n/a	n/a	n/a	n/a	n/a	n/a	14	1	4	9	n/a	n/a	n/a	n/a	n/a
2843.906	n/a	PROB	1421953	n/a	LTP293	ltpFR	13	n/a	n/a	n/a	n/a	n/a	n/a	18	2	8	8	n/a	n/a	n/a	n/a	n/a
2845.17	n/a	PROB	1422585	n/a	LTP293	ltpFR	13	n/a	n/a	n/a	n/a	n/a	n/a	19	9	6	4	n/a	n/a	n/a	n/a	n/a
2846.686	n/a	PROB	1423343	n/a	LTP293	ltpFR	13	n/a	n/a	n/a	n/a	n/a	n/a	11	5	4	2	n/a	n/a	n/a	n/a	n/a
2847.98	n/a	STOP	1423990	n/a	LTP293	ltpFR	13	n/a	n/a	n/a	n/a	n/a	n/a	n/a	n/a	n/a	n/a	n/a	n/a	n/a	n/a	n/a
2850.264	n/a	WORD	1425132	wordpools/wasnorm_wordpool_less_exclusions.txt	LTP293	ltpFR	13	8	0	ENGINE	535	n/a	1	n/a	0	0	0	0	0.5869140625	0.422607421875	lower	../fonts/zerothre.ttf
2853.276	n/a	START	1426638	n/a	LTP293	ltpFR	13	n/a	n/a	n/a	n/a	n/a	n/a	n/a	n/a	n/a	n/a	n/a	n/a	n/a	n/a	n/a
2854.358	n/a	PROB	1427179	n/a	LTP293	ltpFR	13	n/a	n/a	n/a	n/a	n/a	n/a	8	1	1	6	n/a	n/a	n/a	n/a	n/a
2855.656	n/a	PROB	1427828	n/a	LTP293	ltpFR	13	n/a	n/a	n/a	n/a	n/a	n/a	12	3	2	7	n/a	n/a	n/a	n/a	n/a
2857.502	n/a	PROB	1428751	n/a	LTP293	ltpFR	13	n/a	n/a	n/a	n/a	n/a	n/a	13	3	6	4	n/a	n/a	n/a	n/a	n/a
2858.618	n/a	PROB	1429309	n/a	LTP293	ltpFR	13	n/a	n/a	n/a	n/a	n/a	n/a	17	7	1	9	n/a	n/a	n/a	n/a	n/a
2860.59	n/a	STOP	1430295	n/a	LTP293	ltpFR	13	n/a	n/a	n/a	n/a	n/a	n/a	n/a	n/a	n/a	n/a	n/a	n/a	n/a	n/a	n/a
2862.262	n/a	WORD	1431131	wordpools/wasnorm_wordpool_less_exclusions.txt	LTP293	ltpFR	13	8	0	TOAD	1470	n/a	0	n/a	0	0	0	0	0.5869140625	0.422607421875	lower	../fonts/zerothre.ttf
2865.274	n/a	START	1432637	n/a	LTP293	ltpFR	13	n/a	n/a	n/a	n/a	n/a	n/a	n/a	n/a	n/a	n/a	n/a	n/a	n/a	n/a	n/a
2866.19	n/a	PROB	1433095	n/a	LTP293	ltpFR	13	n/a	n/a	n/a	n/a	n/a	n/a	6	4	1	1	n/a	n/a	n/a	n/a	n/a
2867.702	n/a	PROB	1433851	n/a	LTP293	ltpFR	13	n/a	n/a	n/a	n/a	n/a	n/a	23	7	7	9	n/a	n/a	n/a	n/a	n/a
2869.15	n/a	PROB	1434575	n/a	LTP293	ltpFR	13	n/a	n/a	n/a	n/a	n/a	n/a	14	4	7	3	n/a	n/a	n/a	n/a	n/a
2870.532	n/a	PROB	1435266	n/a	LTP293	ltpFR	13	n/a	n/a	n/a	n/a	n/a	n/a	17	5	8	4	n/a	n/a	n/a	n/a	n/a
2872.14	n/a	STOP	1436070	n/a	LTP293	ltpFR	13	n/a	n/a	n/a	n/a	n/a	n/a	n/a	n/a	n/a	n/a	n/a	n/a	n/a	n/a	n/a
2874.16	n/a	WORD	1437080	wordpools/wasnorm_wordpool_less_exclusions.txt	LTP293	ltpFR	13	8	0	RIVER	1194	n/a	1	n/a	0	0	0	0	0.5869140625	0.422607421875	lower	../fonts/zerothre.ttf
2877.172	n/a	START	1438586	n/a	LTP293	ltpFR	13	n/a	n/a	n/a	n/a	n/a	n/a	n/a	n/a	n/a	n/a	n/a	n/a	n/a	n/a	n/a
2878.338	n/a	PROB	1439169	n/a	LTP293	ltpFR	13	n/a	n/a	n/a	n/a	n/a	n/a	15	5	8	2	n/a	n/a	n/a	n/a	n/a
2879.47	n/a	PROB	1439735	n/a	LTP293	ltpFR	13	n/a	n/a	n/a	n/a	n/a	n/a	10	5	1	4	n/a	n/a	n/a	n/a	n/a
2880.916	n/a	PROB	1440458	n/a	LTP293	ltpFR	13	n/a	n/a	n/a	n/a	n/a	n/a	19	9	1	9	n/a	n/a	n/a	n/a	n/a
2883.514	n/a	PROB	1441757	n/a	LTP293	ltpFR	13	n/a	n/a	n/a	n/a	n/a	n/a	7	1	2	4	n/a	n/a	n/a	n/a	n/a
2884.956	n/a	STOP	1442478	n/a	LTP293	ltpFR	13	n/a	n/a	n/a	n/a	n/a	n/a	n/a	n/a	n/a	n/a	n/a	n/a	n/a	n/a	n/a
2886.176	n/a	WORD	1443088	wordpools/wasnorm_wordpool_less_exclusions.txt	LTP293	ltpFR	13	8	0	DAM	436	n/a	1	n/a	0	0	0	0	0.5869140625	0.422607421875	lower	../fonts/zerothre.ttf
2889.188	n/a	START	1444594	n/a	LTP293	ltpFR	13	n/a	n/a	n/a	n/a	n/a	n/a	n/a	n/a	n/a	n/a	n/a	n/a	n/a	n/a	n/a
2890.27	n/a	PROB	1445135	n/a	LTP293	ltpFR	13	n/a	n/a	n/a	n/a	n/a	n/a	17	4	6	7	n/a	n/a	n/a	n/a	n/a
2891.618	n/a	PROB	1445809	n/a	LTP293	ltpFR	13	n/a	n/a	n/a	n/a	n/a	n/a	16	5	5	6	n/a	n/a	n/a	n/a	n/a
2892.534	n/a	PROB	1446267	n/a	LTP293	ltpFR	13	n/a	n/a	n/a	n/a	n/a	n/a	21	8	9	4	n/a	n/a	n/a	n/a	n/a
2894.464	n/a	PROB	1447232	n/a	LTP293	ltpFR	13	n/a	n/a	n/a	n/a	n/a	n/a	14	9	1	4	n/a	n/a	n/a	n/a	n/a
2895.678	n/a	PROB	1447839	n/a	LTP293	ltpFR	13	n/a	n/a	n/a	n/a	n/a	n/a	21	7	7	7	n/a	n/a	n/a	n/a	n/a
2896.678	n/a	STOP	1448339	n/a	LTP293	ltpFR	13	n/a	n/a	n/a	n/a	n/a	n/a	n/a	n/a	n/a	n/a	n/a	n/a	n/a	n/a	n/a
2898.224	n/a	WORD	1449112	wordpools/wasnorm_wordpool_less_exclusions.txt	LTP293	ltpFR	13	8	0	COOKBOOK	373	n/a	1	n/a	0	0	0	0	0.5869140625	0.422607421875	lower	../fonts/zerothre.ttf
2901.238	n/a	START	1450619	n/a	LTP293	ltpFR	13	n/a	n/a	n/a	n/a	n/a	n/a	n/a	n/a	n/a	n/a	n/a	n/a	n/a	n/a	n/a
2902.118	n/a	PROB	1451059	n/a	LTP293	ltpFR	13	n/a	n/a	n/a	n/a	n/a	n/a	14	9	4	1	n/a	n/a	n/a	n/a	n/a
2903.3	n/a	PROB	1451650	n/a	LTP293	ltpFR	13	n/a	n/a	n/a	n/a	n/a	n/a	10	4	4	2	n/a	n/a	n/a	n/a	n/a
2904.6	n/a	PROB	1452300	n/a	LTP293	ltpFR	13	n/a	n/a	n/a	n/a	n/a	n/a	7	3	1	3	n/a	n/a	n/a	n/a	n/a
2906.38	n/a	PROB	1453190	n/a	LTP293	ltpFR	13	n/a	n/a	n/a	n/a	n/a	n/a	22	8	8	6	n/a	n/a	n/a	n/a	n/a
2907.99	n/a	STOP	1453995	n/a	LTP293	ltpFR	13	n/a	n/a	n/a	n/a	n/a	n/a	n/a	n/a	n/a	n/a	n/a	n/a	n/a	n/a	n/a
2910.258	n/a	WORD	1455129	wordpools/wasnorm_wordpool_less_exclusions.txt	LTP293	ltpFR	13	8	0	SAUSAGE	1238	n/a	1	n/a	0	0	0	0	0.5869140625	0.422607421875	lower	../fonts/zerothre.ttf
2913.27	n/a	START	1456635	n/a	LTP293	ltpFR	13	n/a	n/a	n/a	n/a	n/a	n/a	n/a	n/a	n/a	n/a	n/a	n/a	n/a	n/a	n/a
2914.452	n/a	PROB	1457226	n/a	LTP293	ltpFR	13	n/a	n/a	n/a	n/a	n/a	n/a	22	7	6	9	n/a	n/a	n/a	n/a	n/a
2916.182	n/a	PROB	1458091	n/a	LTP293	ltpFR	13	n/a	n/a	n/a	n/a	n/a	n/a	17	8	7	2	n/a	n/a	n/a	n/a	n/a
2917.58	n/a	PROB	1458790	n/a	LTP293	ltpFR	13	n/a	n/a	n/a	n/a	n/a	n/a	14	5	2	7	n/a	n/a	n/a	n/a	n/a
2919.394	n/a	PROB	1459697	n/a	LTP293	ltpFR	13	n/a	n/a	n/a	n/a	n/a	n/a	18	4	6	6	n/a	n/a	n/a	n/a	n/a
2921.198	n/a	STOP	1460599	n/a	LTP293	ltpFR	13	n/a	n/a	n/a	n/a	n/a	n/a	n/a	n/a	n/a	n/a	n/a	n/a	n/a	n/a	n/a
2922.29	n/a	WORD	1461145	wordpools/wasnorm_wordpool_less_exclusions.txt	LTP293	ltpFR	13	8	0	BOXER	160	n/a	1	n/a	0	0	0	0	0.5869140625	0.422607421875	lower	../fonts/zerothre.ttf
2925.302	n/a	START	1462651	n/a	LTP293	ltpFR	13	n/a	n/a	n/a	n/a	n/a	n/a	n/a	n/a	n/a	n/a	n/a	n/a	n/a	n/a	n/a
2926.35	n/a	PROB	1463175	n/a	LTP293	ltpFR	13	n/a	n/a	n/a	n/a	n/a	n/a	15	5	1	9	n/a	n/a	n/a	n/a	n/a
2927.898	n/a	PROB	1463949	n/a	LTP293	ltpFR	13	n/a	n/a	n/a	n/a	n/a	n/a	22	3	9	9	n/a	n/a	n/a	n/a	n/a
2929.28	n/a	PROB	1464640	n/a	LTP293	ltpFR	13	n/a	n/a	n/a	n/a	n/a	n/a	19	7	5	7	n/a	n/a	n/a	n/a	n/a
2930.826	n/a	PROB	1465413	n/a	LTP293	ltpFR	13	n/a	n/a	n/a	n/a	n/a	n/a	11	1	5	5	n/a	n/a	n/a	n/a	n/a
2931.878	n/a	STOP	1465939	n/a	LTP293	ltpFR	13	n/a	n/a	n/a	n/a	n/a	n/a	n/a	n/a	n/a	n/a	n/a	n/a	n/a	n/a	n/a
2934.138	n/a	WORD	1467069	wordpools/wasnorm_wordpool_less_exclusions.txt	LTP293	ltpFR	13	8	0	HOME	712	n/a	1	n/a	0	0	0	0	0.5869140625	0.422607421875	lower	../fonts/zerothre.ttf
2937.15	n/a	START	1468575	n/a	LTP293	ltpFR	13	n/a	n/a	n/a	n/a	n/a	n/a	n/a	n/a	n/a	n/a	n/a	n/a	n/a	n/a	n/a
2938.132	n/a	PROB	1469066	n/a	LTP293	ltpFR	13	n/a	n/a	n/a	n/a	n/a	n/a	14	3	3	8	n/a	n/a	n/a	n/a	n/a
2939.98	n/a	PROB	1469990	n/a	LTP293	ltpFR	13	n/a	n/a	n/a	n/a	n/a	n/a	14	2	7	5	n/a	n/a	n/a	n/a	n/a
2941.378	n/a	PROB	1470689	n/a	LTP293	ltpFR	13	n/a	n/a	n/a	n/a	n/a	n/a	12	1	8	3	n/a	n/a	n/a	n/a	n/a
2942.642	n/a	PROB	1471321	n/a	LTP293	ltpFR	13	n/a	n/a	n/a	n/a	n/a	n/a	20	9	7	4	n/a	n/a	n/a	n/a	n/a
2944.526	n/a	STOP	1472263	n/a	LTP293	ltpFR	13	n/a	n/a	n/a	n/a	n/a	n/a	n/a	n/a	n/a	n/a	n/a	n/a	n/a	n/a	n/a
2945.986	n/a	WORD	1472993	wordpools/wasnorm_wordpool_less_exclusions.txt	LTP293	ltpFR	13	8	0	DIAGRAM	456	n/a	0	n/a	0	0	0	0	0.5869140625	0.422607421875	lower	../fonts/zerothre.ttf
2949.0	n/a	START	1474500	n/a	LTP293	ltpFR	13	n/a	n/a	n/a	n/a	n/a	n/a	n/a	n/a	n/a	n/a	n/a	n/a	n/a	n/a	n/a
2950.114	n/a	PROB	1475057	n/a	LTP293	ltpFR	13	n/a	n/a	n/a	n/a	n/a	n/a	15	3	9	3	n/a	n/a	n/a	n/a	n/a
2952.144	n/a	PROB	1476072	n/a	LTP293	ltpFR	13	n/a	n/a	n/a	n/a	n/a	n/a	17	2	6	9	n/a	n/a	n/a	n/a	n/a
2953.958	n/a	PROB	1476979	n/a	LTP293	ltpFR	13	n/a	n/a	n/a	n/a	n/a	n/a	17	4	8	5	n/a	n/a	n/a	n/a	n/a
2955.79	n/a	STOP	1477895	n/a	LTP293	ltpFR	13	n/a	n/a	n/a	n/a	n/a	n/a	n/a	n/a	n/a	n/a	n/a	n/a	n/a	n/a	n/a
2958.052	n/a	WORD	1479026	wordpools/wasnorm_wordpool_less_exclusions.txt	LTP293	ltpFR	13	8	0	CHAUFFEUR	283	n/a	1	n/a	0	0	0	0	0.5869140625	0.422607421875	lower	../fonts/zerothre.ttf
2961.064	n/a	START	1480532	n/a	LTP293	ltpFR	13	n/a	n/a	n/a	n/a	n/a	n/a	n/a	n/a	n/a	n/a	n/a	n/a	n/a	n/a	n/a
2961.93	n/a	PROB	1480965	n/a	LTP293	ltpFR	13	n/a	n/a	n/a	n/a	n/a	n/a	9	5	1	3	n/a	n/a	n/a	n/a	n/a
2963.296	n/a	PROB	1481648	n/a	LTP293	ltpFR	13	n/a	n/a	n/a	n/a	n/a	n/a	7	1	5	1	n/a	n/a	n/a	n/a	n/a
2964.428	n/a	PROB	1482214	n/a	LTP293	ltpFR	13	n/a	n/a	n/a	n/a	n/a	n/a	18	5	4	9	n/a	n/a	n/a	n/a	n/a
2965.724	n/a	PROB	1482862	n/a	LTP293	ltpFR	13	n/a	n/a	n/a	n/a	n/a	n/a	11	1	6	4	n/a	n/a	n/a	n/a	n/a
2967.522	n/a	PROB	1483761	n/a	LTP293	ltpFR	13	n/a	n/a	n/a	n/a	n/a	n/a	17	1	9	7	n/a	n/a	n/a	n/a	n/a
2968.942	n/a	STOP	1484471	n/a	LTP293	ltpFR	13	n/a	n/a	n/a	n/a	n/a	n/a	n/a	n/a	n/a	n/a	n/a	n/a	n/a	n/a	n/a
2970.834	n/a	REC_START	1485417	n/a	LTP293	ltpFR	13	8	n/a	n/a	n/a	n/a	n/a	n/a	0	0	0	n/a	n/a	n/a	n/a	n/a
2971.708	n/a	REC_WORD	1485854	wordpools/wasnorm_wordpool_less_exclusions.txt	LTP293	ltpFR	13	8	0	CHAUFFEUR	283	n/a	1	n/a	0	0	0	n/a	n/a	n/a	n/a	n/a
2973.44	n/a	REC_WORD	1486720	wordpools/wasnorm_wordpool_less_exclusions.txt	LTP293	ltpFR	13	8	0	SUBURB	1399	n/a	1	n/a	0	0	0	n/a	n/a	n/a	n/a	n/a
2976.812	n/a	REC_WORD	1488406	wordpools/wasnorm_wordpool_less_exclusions.txt	LTP293	ltpFR	13	8	0	COOKBOOK	373	n/a	1	n/a	0	0	0	n/a	n/a	n/a	n/a	n/a
2979.212	n/a	REC_WORD	1489606	wordpools/wasnorm_wordpool_less_exclusions.txt	LTP293	ltpFR	13	8	0	LAWN	805	n/a	1	n/a	0	0	0	n/a	n/a	n/a	n/a	n/a
2983.182	n/a	REC_WORD	1491591	wordpools/wasnorm_wordpool_less_exclusions.txt	LTP293	ltpFR	13	8	0	HOME	712	n/a	1	n/a	0	0	0	n/a	n/a	n/a	n/a	n/a
3005.2	n/a	REC_WORD	1502600	wordpools/wasnorm_wordpool_less_exclusions.txt	LTP293	ltpFR	13	8	0	DAM	436	n/a	1	n/a	0	0	0	n/a	n/a	n/a	n/a	n/a
3056.856	n/a	START	1528428	n/a	LTP293	ltpFR	13	n/a	n/a	n/a	n/a	n/a	n/a	n/a	n/a	n/a	n/a	n/a	n/a	n/a	n/a	n/a
3058.372	n/a	PROB	1529186	n/a	LTP293	ltpFR	13	n/a	n/a	n/a	n/a	n/a	n/a	14	5	8	1	n/a	n/a	n/a	n/a	n/a
3060.084	n/a	PROB	1530042	n/a	LTP293	ltpFR	13	n/a	n/a	n/a	n/a	n/a	n/a	9	1	5	3	n/a	n/a	n/a	n/a	n/a
3061.732	n/a	PROB	1530866	n/a	LTP293	ltpFR	13	n/a	n/a	n/a	n/a	n/a	n/a	17	5	7	7	n/a	n/a	n/a	n/a	n/a
3063.23	n/a	PROB	1531615	n/a	LTP293	ltpFR	13	n/a	n/a	n/a	n/a	n/a	n/a	13	2	6	5	n/a	n/a	n/a	n/a	n/a
3064.596	n/a	PROB	1532298	n/a	LTP293	ltpFR	13	n/a	n/a	n/a	n/a	n/a	n/a	12	1	6	5	n/a	n/a	n/a	n/a	n/a
3065.808	n/a	PROB	1532904	n/a	LTP293	ltpFR	13	n/a	n/a	n/a	n/a	n/a	n/a	14	3	6	5	n/a	n/a	n/a	n/a	n/a
3067.408	n/a	PROB	1533704	n/a	LTP293	ltpFR	13	n/a	n/a	n/a	n/a	n/a	n/a	15	9	5	1	n/a	n/a	n/a	n/a	n/a
3069.372	n/a	PROB	1534686	n/a	LTP293	ltpFR	13	n/a	n/a	n/a	n/a	n/a	n/a	19	7	4	8	n/a	n/a	n/a	n/a	n/a
3072.846	n/a	STOP	1536423	n/a	LTP293	ltpFR	13	n/a	n/a	n/a	n/a	n/a	n/a	n/a	n/a	n/a	n/a	n/a	n/a	n/a	n/a	n/a
3073.88	n/a	WORD	1536940	wordpools/wasnorm_wordpool_less_exclusions.txt	LTP293	ltpFR	13	9	0	PICNIC	1060	n/a	1	n/a	0	0	0	0	0.5869140625	0.422607421875	lower	../fonts/zerothre.ttf
3076.892	n/a	START	1538446	n/a	LTP293	ltpFR	13	n/a	n/a	n/a	n/a	n/a	n/a	n/a	n/a	n/a	n/a	n/a	n/a	n/a	n/a	n/a
3077.774	n/a	PROB	1538887	n/a	LTP293	ltpFR	13	n/a	n/a	n/a	n/a	n/a	n/a	6	3	2	1	n/a	n/a	n/a	n/a	n/a
3078.74	n/a	PROB	1539370	n/a	LTP293	ltpFR	13	n/a	n/a	n/a	n/a	n/a	n/a	16	9	4	3	n/a	n/a	n/a	n/a	n/a
3079.922	n/a	PROB	1539961	n/a	LTP293	ltpFR	13	n/a	n/a	n/a	n/a	n/a	n/a	18	9	3	6	n/a	n/a	n/a	n/a	n/a
3081.12	n/a	PROB	1540560	n/a	LTP293	ltpFR	13	n/a	n/a	n/a	n/a	n/a	n/a	17	4	4	9	n/a	n/a	n/a	n/a	n/a
3082.368	n/a	PROB	1541184	n/a	LTP293	ltpFR	13	n/a	n/a	n/a	n/a	n/a	n/a	17	8	3	6	n/a	n/a	n/a	n/a	n/a
3083.698	n/a	PROB	1541849	n/a	LTP293	ltpFR	13	n/a	n/a	n/a	n/a	n/a	n/a	13	5	6	2	n/a	n/a	n/a	n/a	n/a
3085.614	n/a	PROB	1542807	n/a	LTP293	ltpFR	13	n/a	n/a	n/a	n/a	n/a	n/a	16	5	4	7	n/a	n/a	n/a	n/a	n/a
3087.01	n/a	PROB	1543505	n/a	LTP293	ltpFR	13	n/a	n/a	n/a	n/a	n/a	n/a	17	2	6	9	n/a	n/a	n/a	n/a	n/a
3088.376	n/a	PROB	1544188	n/a	LTP293	ltpFR	13	n/a	n/a	n/a	n/a	n/a	n/a	9	1	3	5	n/a	n/a	n/a	n/a	n/a
3090.106	n/a	PROB	1545053	n/a	LTP293	ltpFR	13	n/a	n/a	n/a	n/a	n/a	n/a	18	6	6	6	n/a	n/a	n/a	n/a	n/a
3092.894	n/a	STOP	1546447	n/a	LTP293	ltpFR	13	n/a	n/a	n/a	n/a	n/a	n/a	n/a	n/a	n/a	n/a	n/a	n/a	n/a	n/a	n/a
3093.918	n/a	WORD	1546959	wordpools/wasnorm_wordpool_less_exclusions.txt	LTP293	ltpFR	13	9	0	WAITER	1580	n/a	1	n/a	0	0	0	0	0.5869140625	0.422607421875	lower	../fonts/zerothre.ttf
3096.93	n/a	START	1548465	n/a	LTP293	ltpFR	13	n/a	n/a	n/a	n/a	n/a	n/a	n/a	n/a	n/a	n/a	n/a	n/a	n/a	n/a	n/a
3098.062	n/a	PROB	1549031	n/a	LTP293	ltpFR	13	n/a	n/a	n/a	n/a	n/a	n/a	11	3	2	6	n/a	n/a	n/a	n/a	n/a
3099.644	n/a	PROB	1549822	n/a	LTP293	ltpFR	13	n/a	n/a	n/a	n/a	n/a	n/a	20	6	7	7	n/a	n/a	n/a	n/a	n/a
3101.508	n/a	PROB	1550754	n/a	LTP293	ltpFR	13	n/a	n/a	n/a	n/a	n/a	n/a	12	1	8	3	n/a	n/a	n/a	n/a	n/a
3102.69	n/a	PROB	1551345	n/a	LTP293	ltpFR	13	n/a	n/a	n/a	n/a	n/a	n/a	15	8	6	1	n/a	n/a	n/a	n/a	n/a
3104.204	n/a	PROB	1552102	n/a	LTP293	ltpFR	13	n/a	n/a	n/a	n/a	n/a	n/a	14	1	9	4	n/a	n/a	n/a	n/a	n/a
3105.436	n/a	PROB	1552718	n/a	LTP293	ltpFR	13	n/a	n/a	n/a	n/a	n/a	n/a	18	9	1	8	n/a	n/a	n/a	n/a	n/a
3106.716	n/a	PROB	1553358	n/a	LTP293	ltpFR	13	n/a	n/a	n/a	n/a	n/a	n/a	12	1	2	9	n/a	n/a	n/a	n/a	n/a
3108.014	n/a	PROB	1554007	n/a	LTP293	ltpFR	13	n/a	n/a	n/a	n/a	n/a	n/a	19	6	9	4	n/a	n/a	n/a	n/a	n/a
3109.512	n/a	PROB	1554756	n/a	LTP293	ltpFR	13	n/a	n/a	n/a	n/a	n/a	n/a	15	2	9	4	n/a	n/a	n/a	n/a	n/a
3111.11	n/a	PROB	1555555	n/a	LTP293	ltpFR	13	n/a	n/a	n/a	n/a	n/a	n/a	22	9	8	5	n/a	n/a	n/a	n/a	n/a
3112.912	n/a	STOP	1556456	n/a	LTP293	ltpFR	13	n/a	n/a	n/a	n/a	n/a	n/a	n/a	n/a	n/a	n/a	n/a	n/a	n/a	n/a	n/a
3113.938	n/a	WORD	1556969	wordpools/wasnorm_wordpool_less_exclusions.txt	LTP293	ltpFR	13	9	0	ENEMY	534	n/a	1	n/a	0	0	0	0	0.5869140625	0.422607421875	lower	../fonts/zerothre.ttf
3116.95	n/a	START	1558475	n/a	LTP293	ltpFR	13	n/a	n/a	n/a	n/a	n/a	n/a	n/a	n/a	n/a	n/a	n/a	n/a	n/a	n/a	n/a
3118.016	n/a	PROB	1559008	n/a	LTP293	ltpFR	13	n/a	n/a	n/a	n/a	n/a	n/a	12	5	6	1	n/a	n/a	n/a	n/a	n/a
3119.282	n/a	PROB	1559641	n/a	LTP293	ltpFR	13	n/a	n/a	n/a	n/a	n/a	n/a	9	1	5	2	n/a	n/a	n/a	n/a	n/a
3120.96	n/a	PROB	1560480	n/a	LTP293	ltpFR	13	n/a	n/a	n/a	n/a	n/a	n/a	15	4	7	4	n/a	n/a	n/a	n/a	n/a
3122.344	n/a	PROB	1561172	n/a	LTP293	ltpFR	13	n/a	n/a	n/a	n/a	n/a	n/a	19	1	9	9	n/a	n/a	n/a	n/a	n/a
3124.29	n/a	PROB	1562145	n/a	LTP293	ltpFR	13	n/a	n/a	n/a	n/a	n/a	n/a	18	3	9	6	n/a	n/a	n/a	n/a	n/a
3126.004	n/a	PROB	1563002	n/a	LTP293	ltpFR	13	n/a	n/a	n/a	n/a	n/a	n/a	11	4	1	6	n/a	n/a	n/a	n/a	n/a
3127.336	n/a	PROB	1563668	n/a	LTP293	ltpFR	13	n/a	n/a	n/a	n/a	n/a	n/a	8	4	3	1	n/a	n/a	n/a	n/a	n/a
3129.698	n/a	PROB	1564849	n/a	LTP293	ltpFR	13	n/a	n/a	n/a	n/a	n/a	n/a	12	3	2	7	n/a	n/a	n/a	n/a	n/a
3130.946	n/a	PROB	1565473	n/a	LTP293	ltpFR	13	n/a	n/a	n/a	n/a	n/a	n/a	13	4	4	5	n/a	n/a	n/a	n/a	n/a
3132.544	n/a	STOP	1566272	n/a	LTP293	ltpFR	13	n/a	n/a	n/a	n/a	n/a	n/a	n/a	n/a	n/a	n/a	n/a	n/a	n/a	n/a	n/a
3133.958	n/a	WORD	1566979	wordpools/wasnorm_wordpool_less_exclusions.txt	LTP293	ltpFR	13	9	0	CAFETERIA	217	n/a	1	n/a	0	0	0	0	0.5869140625	0.422607421875	lower	../fonts/zerothre.ttf
3136.97	n/a	START	1568485	n/a	LTP293	ltpFR	13	n/a	n/a	n/a	n/a	n/a	n/a	n/a	n/a	n/a	n/a	n/a	n/a	n/a	n/a	n/a
3138.118	n/a	PROB	1569059	n/a	LTP293	ltpFR	13	n/a	n/a	n/a	n/a	n/a	n/a	14	4	6	4	n/a	n/a	n/a	n/a	n/a
3139.518	n/a	PROB	1569759	n/a	LTP293	ltpFR	13	n/a	n/a	n/a	n/a	n/a	n/a	7	4	2	1	n/a	n/a	n/a	n/a	n/a
3141.264	n/a	PROB	1570632	n/a	LTP293	ltpFR	13	n/a	n/a	n/a	n/a	n/a	n/a	9	7	2	1	n/a	n/a	n/a	n/a	n/a
3143.012	n/a	PROB	1571506	n/a	LTP293	ltpFR	13	n/a	n/a	n/a	n/a	n/a	n/a	18	7	4	7	n/a	n/a	n/a	n/a	n/a
3145.108	n/a	PROB	1572554	n/a	LTP293	ltpFR	13	n/a	n/a	n/a	n/a	n/a	n/a	10	8	1	1	n/a	n/a	n/a	n/a	n/a
3146.358	n/a	PROB	1573179	n/a	LTP293	ltpFR	13	n/a	n/a	n/a	n/a	n/a	n/a	13	5	2	6	n/a	n/a	n/a	n/a	n/a
3147.754	n/a	PROB	1573877	n/a	LTP293	ltpFR	13	n/a	n/a	n/a	n/a	n/a	n/a	15	3	5	7	n/a	n/a	n/a	n/a	n/a
3152.97	n/a	STOP	1576485	n/a	LTP293	ltpFR	13	n/a	n/a	n/a	n/a	n/a	n/a	n/a	n/a	n/a	n/a	n/a	n/a	n/a	n/a	n/a
3153.828	n/a	WORD	1576914	wordpools/wasnorm_wordpool_less_exclusions.txt	LTP293	ltpFR	13	9	0	DOUGH	489	n/a	1	n/a	0	0	0	0	0.5869140625	0.422607421875	lower	../fonts/zerothre.ttf
3156.842	n/a	START	1578421	n/a	LTP293	ltpFR	13	n/a	n/a	n/a	n/a	n/a	n/a	n/a	n/a	n/a	n/a	n/a	n/a	n/a	n/a	n/a
3157.972	n/a	PROB	1578986	n/a	LTP293	ltpFR	13	n/a	n/a	n/a	n/a	n/a	n/a	15	5	2	8	n/a	n/a	n/a	n/a	n/a
3159.222	n/a	PROB	1579611	n/a	LTP293	ltpFR	13	n/a	n/a	n/a	n/a	n/a	n/a	17	7	4	6	n/a	n/a	n/a	n/a	n/a
3161.634	n/a	PROB	1580817	n/a	LTP293	ltpFR	13	n/a	n/a	n/a	n/a	n/a	n/a	14	3	9	2	n/a	n/a	n/a	n/a	n/a
3163.114	n/a	PROB	1581557	n/a	LTP293	ltpFR	13	n/a	n/a	n/a	n/a	n/a	n/a	23	9	9	5	n/a	n/a	n/a	n/a	n/a
3164.596	n/a	PROB	1582298	n/a	LTP293	ltpFR	13	n/a	n/a	n/a	n/a	n/a	n/a	24	8	9	7	n/a	n/a	n/a	n/a	n/a
3167.158	n/a	PROB	1583579	n/a	LTP293	ltpFR	13	n/a	n/a	n/a	n/a	n/a	n/a	18	3	7	8	n/a	n/a	n/a	n/a	n/a
3168.458	n/a	PROB	1584229	n/a	LTP293	ltpFR	13	n/a	n/a	n/a	n/a	n/a	n/a	11	2	4	5	n/a	n/a	n/a	n/a	n/a
3169.656	n/a	PROB	1584828	n/a	LTP293	ltpFR	13	n/a	n/a	n/a	n/a	n/a	n/a	19	9	8	2	n/a	n/a	n/a	n/a	n/a
3171.656	n/a	STOP	1585828	n/a	LTP293	ltpFR	13	n/a	n/a	n/a	n/a	n/a	n/a	n/a	n/a	n/a	n/a	n/a	n/a	n/a	n/a	n/a
3173.898	n/a	WORD	1586949	wordpools/wasnorm_wordpool_less_exclusions.txt	LTP293	ltpFR	13	9	0	COUSIN	392	n/a	1	n/a	0	0	0	0	0.5869140625	0.422607421875	lower	../fonts/zerothre.ttf
3176.912	n/a	START	1588456	n/a	LTP293	ltpFR	13	n/a	n/a	n/a	n/a	n/a	n/a	n/a	n/a	n/a	n/a	n/a	n/a	n/a	n/a	n/a
3177.992	n/a	PROB	1588996	n/a	LTP293	ltpFR	13	n/a	n/a	n/a	n/a	n/a	n/a	19	5	7	7	n/a	n/a	n/a	n/a	n/a
3180.622	n/a	PROB	1590311	n/a	LTP293	ltpFR	13	n/a	n/a	n/a	n/a	n/a	n/a	17	8	7	2	n/a	n/a	n/a	n/a	n/a
3182.27	n/a	PROB	1591135	n/a	LTP293	ltpFR	13	n/a	n/a	n/a	n/a	n/a	n/a	24	8	8	8	n/a	n/a	n/a	n/a	n/a
3183.634	n/a	PROB	1591817	n/a	LTP293	ltpFR	13	n/a	n/a	n/a	n/a	n/a	n/a	14	1	7	6	n/a	n/a	n/a	n/a	n/a
3185.116	n/a	PROB	1592558	n/a	LTP293	ltpFR	13	n/a	n/a	n/a	n/a	n/a	n/a	19	4	8	7	n/a	n/a	n/a	n/a	n/a
3186.846	n/a	PROB	1593423	n/a	LTP293	ltpFR	13	n/a	n/a	n/a	n/a	n/a	n/a	16	9	5	2	n/a	n/a	n/a	n/a	n/a
3189.294	n/a	PROB	1594647	n/a	LTP293	ltpFR	13	n/a	n/a	n/a	n/a	n/a	n/a	21	9	8	5	n/a	n/a	n/a	n/a	n/a
3191.14	n/a	PROB	1595570	n/a	LTP293	ltpFR	13	n/a	n/a	n/a	n/a	n/a	n/a	13	3	9	1	n/a	n/a	n/a	n/a	n/a
3192.242	n/a	STOP	1596121	n/a	LTP293	ltpFR	13	n/a	n/a	n/a	n/a	n/a	n/a	n/a	n/a	n/a	n/a	n/a	n/a	n/a	n/a	n/a
3193.936	n/a	WORD	1596968	wordpools/wasnorm_wordpool_less_exclusions.txt	LTP293	ltpFR	13	9	1	FAN	551	n/a	1	n/a	0	0	0	1	0.412841796875	0.57763671875	upper	../fonts/amplitud.ttf
3196.95	n/a	START	1598475	n/a	LTP293	ltpFR	13	n/a	n/a	n/a	n/a	n/a	n/a	n/a	n/a	n/a	n/a	n/a	n/a	n/a	n/a	n/a
3197.814	n/a	PROB	1598907	n/a	LTP293	ltpFR	13	n/a	n/a	n/a	n/a	n/a	n/a	9	4	3	2	n/a	n/a	n/a	n/a	n/a
3200.194	n/a	PROB	1600097	n/a	LTP293	ltpFR	13	n/a	n/a	n/a	n/a	n/a	n/a	14	3	5	6	n/a	n/a	n/a	n/a	n/a
3201.892	n/a	PROB	1600946	n/a	LTP293	ltpFR	13	n/a	n/a	n/a	n/a	n/a	n/a	19	8	6	5	n/a	n/a	n/a	n/a	n/a
3203.672	n/a	PROB	1601836	n/a	LTP293	ltpFR	13	n/a	n/a	n/a	n/a	n/a	n/a	18	7	7	4	n/a	n/a	n/a	n/a	n/a
3205.12	n/a	PROB	1602560	n/a	LTP293	ltpFR	13	n/a	n/a	n/a	n/a	n/a	n/a	18	6	3	9	n/a	n/a	n/a	n/a	n/a
3206.286	n/a	PROB	1603143	n/a	LTP293	ltpFR	13	n/a	n/a	n/a	n/a	n/a	n/a	17	8	8	1	n/a	n/a	n/a	n/a	n/a
3207.798	n/a	PROB	1603899	n/a	LTP293	ltpFR	13	n/a	n/a	n/a	n/a	n/a	n/a	21	8	8	5	n/a	n/a	n/a	n/a	n/a
3210.196	n/a	PROB	1605098	n/a	LTP293	ltpFR	13	n/a	n/a	n/a	n/a	n/a	n/a	15	1	6	8	n/a	n/a	n/a	n/a	n/a
3211.428	n/a	PROB	1605714	n/a	LTP293	ltpFR	13	n/a	n/a	n/a	n/a	n/a	n/a	17	8	8	1	n/a	n/a	n/a	n/a	n/a
3212.72	n/a	STOP	1606360	n/a	LTP293	ltpFR	13	n/a	n/a	n/a	n/a	n/a	n/a	n/a	n/a	n/a	n/a	n/a	n/a	n/a	n/a	n/a
3214.072	n/a	WORD	1607036	wordpools/wasnorm_wordpool_less_exclusions.txt	LTP293	ltpFR	13	9	1	WORM	1623	n/a	1	n/a	0	0	0	1	0.412841796875	0.57763671875	upper	../fonts/amplitud.ttf
3217.086	n/a	START	1608543	n/a	LTP293	ltpFR	13	n/a	n/a	n/a	n/a	n/a	n/a	n/a	n/a	n/a	n/a	n/a	n/a	n/a	n/a	n/a
3218.05	n/a	PROB	1609025	n/a	LTP293	ltpFR	13	n/a	n/a	n/a	n/a	n/a	n/a	19	9	5	5	n/a	n/a	n/a	n/a	n/a
3219.4	n/a	PROB	1609700	n/a	LTP293	ltpFR	13	n/a	n/a	n/a	n/a	n/a	n/a	19	5	9	5	n/a	n/a	n/a	n/a	n/a
3221.012	n/a	PROB	1610506	n/a	LTP293	ltpFR	13	n/a	n/a	n/a	n/a	n/a	n/a	14	3	6	5	n/a	n/a	n/a	n/a	n/a
3222.926	n/a	PROB	1611463	n/a	LTP293	ltpFR	13	n/a	n/a	n/a	n/a	n/a	n/a	12	2	4	6	n/a	n/a	n/a	n/a	n/a
3224.658	n/a	PROB	1612329	n/a	LTP293	ltpFR	13	n/a	n/a	n/a	n/a	n/a	n/a	19	9	8	3	n/a	n/a	n/a	n/a	n/a
3227.32	n/a	PROB	1613660	n/a	LTP293	ltpFR	13	n/a	n/a	n/a	n/a	n/a	n/a	18	5	8	5	n/a	n/a	n/a	n/a	n/a
3228.568	n/a	PROB	1614284	n/a	LTP293	ltpFR	13	n/a	n/a	n/a	n/a	n/a	n/a	15	4	7	7	n/a	n/a	n/a	n/a	n/a
3229.866	n/a	PROB	1614933	n/a	LTP293	ltpFR	13	n/a	n/a	n/a	n/a	n/a	n/a	16	8	2	6	n/a	n/a	n/a	n/a	n/a
3232.168	n/a	STOP	1616084	n/a	LTP293	ltpFR	13	n/a	n/a	n/a	n/a	n/a	n/a	n/a	n/a	n/a	n/a	n/a	n/a	n/a	n/a	n/a
3234.278	n/a	WORD	1617139	wordpools/wasnorm_wordpool_less_exclusions.txt	LTP293	ltpFR	13	9	1	CAFE	216	n/a	1	n/a	0	0	0	1	0.412841796875	0.57763671875	upper	../fonts/amplitud.ttf
3237.29	n/a	START	1618645	n/a	LTP293	ltpFR	13	n/a	n/a	n/a	n/a	n/a	n/a	n/a	n/a	n/a	n/a	n/a	n/a	n/a	n/a	n/a
3238.204	n/a	PROB	1619102	n/a	LTP293	ltpFR	13	n/a	n/a	n/a	n/a	n/a	n/a	21	9	9	3	n/a	n/a	n/a	n/a	n/a
3240.202	n/a	PROB	1620101	n/a	LTP293	ltpFR	13	n/a	n/a	n/a	n/a	n/a	n/a	10	6	3	1	n/a	n/a	n/a	n/a	n/a
3241.914	n/a	PROB	1620957	n/a	LTP293	ltpFR	13	n/a	n/a	n/a	n/a	n/a	n/a	22	8	7	7	n/a	n/a	n/a	n/a	n/a
3247.29	n/a	PROB	1623645	n/a	LTP293	ltpFR	13	n/a	n/a	n/a	n/a	n/a	n/a	21	8	5	8	n/a	n/a	n/a	n/a	n/a
3249.12	n/a	PROB	1624560	n/a	LTP293	ltpFR	13	n/a	n/a	n/a	n/a	n/a	n/a	12	6	1	5	n/a	n/a	n/a	n/a	n/a
3250.702	n/a	PROB	1625351	n/a	LTP293	ltpFR	13	n/a	n/a	n/a	n/a	n/a	n/a	14	5	6	3	n/a	n/a	n/a	n/a	n/a
3252.442	n/a	STOP	1626221	n/a	LTP293	ltpFR	13	n/a	n/a	n/a	n/a	n/a	n/a	n/a	n/a	n/a	n/a	n/a	n/a	n/a	n/a	n/a
3254.396	n/a	WORD	1627198	wordpools/wasnorm_wordpool_less_exclusions.txt	LTP293	ltpFR	13	9	1	BLANKET	135	n/a	0	n/a	0	0	0	1	0.412841796875	0.57763671875	upper	../fonts/amplitud.ttf
3257.41	n/a	START	1628705	n/a	LTP293	ltpFR	13	n/a	n/a	n/a	n/a	n/a	n/a	n/a	n/a	n/a	n/a	n/a	n/a	n/a	n/a	n/a
3258.258	n/a	PROB	1629129	n/a	LTP293	ltpFR	13	n/a	n/a	n/a	n/a	n/a	n/a	9	5	1	3	n/a	n/a	n/a	n/a	n/a
3259.572	n/a	PROB	1629786	n/a	LTP293	ltpFR	13	n/a	n/a	n/a	n/a	n/a	n/a	19	8	3	8	n/a	n/a	n/a	n/a	n/a
3261.818	n/a	PROB	1630909	n/a	LTP293	ltpFR	13	n/a	n/a	n/a	n/a	n/a	n/a	23	9	7	7	n/a	n/a	n/a	n/a	n/a
3263.218	n/a	PROB	1631609	n/a	LTP293	ltpFR	13	n/a	n/a	n/a	n/a	n/a	n/a	16	6	3	7	n/a	n/a	n/a	n/a	n/a
3264.416	n/a	PROB	1632208	n/a	LTP293	ltpFR	13	n/a	n/a	n/a	n/a	n/a	n/a	16	6	6	4	n/a	n/a	n/a	n/a	n/a
3265.828	n/a	PROB	1632914	n/a	LTP293	ltpFR	13	n/a	n/a	n/a	n/a	n/a	n/a	5	2	1	2	n/a	n/a	n/a	n/a	n/a
3267.41	n/a	PROB	1633705	n/a	LTP293	ltpFR	13	n/a	n/a	n/a	n/a	n/a	n/a	22	9	5	8	n/a	n/a	n/a	n/a	n/a
3269.04	n/a	PROB	1634520	n/a	LTP293	ltpFR	13	n/a	n/a	n/a	n/a	n/a	n/a	19	7	6	6	n/a	n/a	n/a	n/a	n/a
3271.322	n/a	PROB	1635661	n/a	LTP293	ltpFR	13	n/a	n/a	n/a	n/a	n/a	n/a	16	7	7	2	n/a	n/a	n/a	n/a	n/a
3273.386	n/a	STOP	1636693	n/a	LTP293	ltpFR	13	n/a	n/a	n/a	n/a	n/a	n/a	n/a	n/a	n/a	n/a	n/a	n/a	n/a	n/a	n/a
3274.4	n/a	WORD	1637200	wordpools/wasnorm_wordpool_less_exclusions.txt	LTP293	ltpFR	13	9	1	BUGLE	189	n/a	0	n/a	0	0	0	1	0.412841796875	0.57763671875	upper	../fonts/amplitud.ttf
3277.414	n/a	START	1638707	n/a	LTP293	ltpFR	13	n/a	n/a	n/a	n/a	n/a	n/a	n/a	n/a	n/a	n/a	n/a	n/a	n/a	n/a	n/a
3278.262	n/a	PROB	1639131	n/a	LTP293	ltpFR	13	n/a	n/a	n/a	n/a	n/a	n/a	18	4	8	6	n/a	n/a	n/a	n/a	n/a
3280.508	n/a	PROB	1640254	n/a	LTP293	ltpFR	13	n/a	n/a	n/a	n/a	n/a	n/a	16	7	6	3	n/a	n/a	n/a	n/a	n/a
3281.99	n/a	PROB	1640995	n/a	LTP293	ltpFR	13	n/a	n/a	n/a	n/a	n/a	n/a	19	7	3	9	n/a	n/a	n/a	n/a	n/a
3283.354	n/a	PROB	1641677	n/a	LTP293	ltpFR	13	n/a	n/a	n/a	n/a	n/a	n/a	22	7	8	7	n/a	n/a	n/a	n/a	n/a
3285.336	n/a	PROB	1642668	n/a	LTP293	ltpFR	13	n/a	n/a	n/a	n/a	n/a	n/a	14	4	8	2	n/a	n/a	n/a	n/a	n/a
3286.832	n/a	PROB	1643416	n/a	LTP293	ltpFR	13	n/a	n/a	n/a	n/a	n/a	n/a	16	3	7	6	n/a	n/a	n/a	n/a	n/a
3287.93	n/a	PROB	1643965	n/a	LTP293	ltpFR	13	n/a	n/a	n/a	n/a	n/a	n/a	10	2	5	3	n/a	n/a	n/a	n/a	n/a
3289.362	n/a	PROB	1644681	n/a	LTP293	ltpFR	13	n/a	n/a	n/a	n/a	n/a	n/a	15	4	9	4	n/a	n/a	n/a	n/a	n/a
3290.776	n/a	PROB	1645388	n/a	LTP293	ltpFR	13	n/a	n/a	n/a	n/a	n/a	n/a	12	3	4	5	n/a	n/a	n/a	n/a	n/a
3292.018	n/a	STOP	1646009	n/a	LTP293	ltpFR	13	n/a	n/a	n/a	n/a	n/a	n/a	n/a	n/a	n/a	n/a	n/a	n/a	n/a	n/a	n/a
3294.604	n/a	WORD	1647302	wordpools/wasnorm_wordpool_less_exclusions.txt	LTP293	ltpFR	13	9	0	FLUTE	585	n/a	1	n/a	0	0	0	0	0.5869140625	0.422607421875	lower	../fonts/zerothre.ttf
3297.618	n/a	START	1648809	n/a	LTP293	ltpFR	13	n/a	n/a	n/a	n/a	n/a	n/a	n/a	n/a	n/a	n/a	n/a	n/a	n/a	n/a	n/a
3298.682	n/a	PROB	1649341	n/a	LTP293	ltpFR	13	n/a	n/a	n/a	n/a	n/a	n/a	16	9	7	1	n/a	n/a	n/a	n/a	n/a
3300.646	n/a	PROB	1650323	n/a	LTP293	ltpFR	13	n/a	n/a	n/a	n/a	n/a	n/a	16	4	4	8	n/a	n/a	n/a	n/a	n/a
3301.71	n/a	PROB	1650855	n/a	LTP293	ltpFR	13	n/a	n/a	n/a	n/a	n/a	n/a	12	1	5	6	n/a	n/a	n/a	n/a	n/a
3303.14	n/a	PROB	1651570	n/a	LTP293	ltpFR	13	n/a	n/a	n/a	n/a	n/a	n/a	25	9	7	9	n/a	n/a	n/a	n/a	n/a
3307.568	n/a	PROB	1653784	n/a	LTP293	ltpFR	13	n/a	n/a	n/a	n/a	n/a	n/a	24	9	9	6	n/a	n/a	n/a	n/a	n/a
3310.414	n/a	PROB	1655207	n/a	LTP293	ltpFR	13	n/a	n/a	n/a	n/a	n/a	n/a	14	6	1	7	n/a	n/a	n/a	n/a	n/a
3313.618	n/a	STOP	1656809	n/a	LTP293	ltpFR	13	n/a	n/a	n/a	n/a	n/a	n/a	n/a	n/a	n/a	n/a	n/a	n/a	n/a	n/a	n/a
3314.674	n/a	WORD	1657337	wordpools/wasnorm_wordpool_less_exclusions.txt	LTP293	ltpFR	13	9	0	CARPENTER	246	n/a	1	n/a	0	0	0	0	0.5869140625	0.422607421875	lower	../fonts/zerothre.ttf
3317.688	n/a	START	1658844	n/a	LTP293	ltpFR	13	n/a	n/a	n/a	n/a	n/a	n/a	n/a	n/a	n/a	n/a	n/a	n/a	n/a	n/a	n/a
3318.586	n/a	PROB	1659293	n/a	LTP293	ltpFR	13	n/a	n/a	n/a	n/a	n/a	n/a	20	7	9	4	n/a	n/a	n/a	n/a	n/a
3321.314	n/a	PROB	1660657	n/a	LTP293	ltpFR	13	n/a	n/a	n/a	n/a	n/a	n/a	13	2	8	3	n/a	n/a	n/a	n/a	n/a
3322.978	n/a	PROB	1661489	n/a	LTP293	ltpFR	13	n/a	n/a	n/a	n/a	n/a	n/a	9	2	5	2	n/a	n/a	n/a	n/a	n/a
3324.294	n/a	PROB	1662147	n/a	LTP293	ltpFR	13	n/a	n/a	n/a	n/a	n/a	n/a	18	8	1	9	n/a	n/a	n/a	n/a	n/a
3325.608	n/a	PROB	1662804	n/a	LTP293	ltpFR	13	n/a	n/a	n/a	n/a	n/a	n/a	10	3	3	4	n/a	n/a	n/a	n/a	n/a
3326.938	n/a	PROB	1663469	n/a	LTP293	ltpFR	13	n/a	n/a	n/a	n/a	n/a	n/a	19	2	9	7	n/a	n/a	n/a	n/a	n/a
3328.272	n/a	PROB	1664136	n/a	LTP293	ltpFR	13	n/a	n/a	n/a	n/a	n/a	n/a	8	2	3	3	n/a	n/a	n/a	n/a	n/a
3330.252	n/a	PROB	1665126	n/a	LTP293	ltpFR	13	n/a	n/a	n/a	n/a	n/a	n/a	14	8	2	4	n/a	n/a	n/a	n/a	n/a
3331.432	n/a	PROB	1665716	n/a	LTP293	ltpFR	13	n/a	n/a	n/a	n/a	n/a	n/a	13	6	3	4	n/a	n/a	n/a	n/a	n/a
