onset	duration	trial_type	sample	stim_file	subject	experiment	session	trial	task	item_name	item_num	recog_conf	resp	answer	test_x	test_y	test_z	color_b	color_g	color_r	case	font
218.134	n/a	SESS_START	109067	n/a	LTP148	ltpFR	10	n/a	n/a	n/a	n/a	1	n/a	n/a	0	0	0	n/a	n/a	n/a	n/a	n/a
282.57	n/a	START	141285	n/a	LTP148	ltpFR	10	n/a	n/a	n/a	n/a	n/a	n/a	n/a	n/a	n/a	n/a	n/a	n/a	n/a	n/a	n/a
282.596	n/a	PROB	141298	n/a	LTP148	ltpFR	10	n/a	n/a	n/a	n/a	n/a	n/a	11	4	5	2	n/a	n/a	n/a	n/a	n/a
286.068	n/a	PROB	143034	n/a	LTP148	ltpFR	10	n/a	n/a	n/a	n/a	n/a	n/a	18	5	5	8	n/a	n/a	n/a	n/a	n/a
287.532	n/a	PROB	143766	n/a	LTP148	ltpFR	10	n/a	n/a	n/a	n/a	n/a	n/a	17	7	4	6	n/a	n/a	n/a	n/a	n/a
289.67	n/a	PROB	144835	n/a	LTP148	ltpFR	10	n/a	n/a	n/a	n/a	n/a	n/a	18	8	8	2	n/a	n/a	n/a	n/a	n/a
291.402	n/a	PROB	145701	n/a	LTP148	ltpFR	10	n/a	n/a	n/a	n/a	n/a	n/a	20	6	8	6	n/a	n/a	n/a	n/a	n/a
293.958	n/a	PROB	146979	n/a	LTP148	ltpFR	10	n/a	n/a	n/a	n/a	n/a	n/a	11	1	6	4	n/a	n/a	n/a	n/a	n/a
295.614	n/a	PROB	147807	n/a	LTP148	ltpFR	10	n/a	n/a	n/a	n/a	n/a	n/a	12	3	3	6	n/a	n/a	n/a	n/a	n/a
302.57	n/a	STOP	151285	n/a	LTP148	ltpFR	10	n/a	n/a	n/a	n/a	n/a	n/a	n/a	n/a	n/a	n/a	n/a	n/a	n/a	n/a	n/a
346.374	n/a	WORD	173187	wordpools/wasnorm_wordpool.txt	LTP148	ltpFR	10	1	1	FARMER	553	n/a	1	n/a	0	0	0	0	0.5869140625	0.422607421875	lower	../fonts/zerothre.ttf
350.452	n/a	WORD	175226	wordpools/wasnorm_wordpool.txt	LTP148	ltpFR	10	1	1	WHEAT	1602	n/a	1	n/a	0	0	0	0	0.5869140625	0.422607421875	lower	../fonts/zerothre.ttf
354.34	n/a	WORD	177170	wordpools/wasnorm_wordpool.txt	LTP148	ltpFR	10	1	1	TOTE	1487	n/a	0	n/a	0	0	0	0	0.5869140625	0.422607421875	lower	../fonts/zerothre.ttf
358.268	n/a	WORD	179134	wordpools/wasnorm_wordpool.txt	LTP148	ltpFR	10	1	1	DILL	465	n/a	1	n/a	0	0	0	0	0.5869140625	0.422607421875	lower	../fonts/zerothre.ttf
362.264	n/a	WORD	181132	wordpools/wasnorm_wordpool.txt	LTP148	ltpFR	10	1	1	TYPEWRITER	1531	n/a	0	n/a	0	0	0	0	0.5869140625	0.422607421875	lower	../fonts/zerothre.ttf
366.11	n/a	WORD	183055	wordpools/wasnorm_wordpool.txt	LTP148	ltpFR	10	1	1	PERSON	1052	n/a	1	n/a	0	0	0	0	0.5869140625	0.422607421875	lower	../fonts/zerothre.ttf
369.93	n/a	WORD	184965	wordpools/wasnorm_wordpool.txt	LTP148	ltpFR	10	1	1	VISITOR	1573	n/a	1	n/a	0	0	0	0	0.5869140625	0.422607421875	lower	../fonts/zerothre.ttf
374.016	n/a	WORD	187008	wordpools/wasnorm_wordpool.txt	LTP148	ltpFR	10	1	1	TURNIP	1521	n/a	1	n/a	0	0	0	0	0.5869140625	0.422607421875	lower	../fonts/zerothre.ttf
377.978	n/a	WORD	188989	wordpools/wasnorm_wordpool.txt	LTP148	ltpFR	10	1	1	NOTEBOOK	959	n/a	0	n/a	0	0	0	0	0.5869140625	0.422607421875	lower	../fonts/zerothre.ttf
381.916	n/a	WORD	190958	wordpools/wasnorm_wordpool.txt	LTP148	ltpFR	10	1	1	MOSS	918	n/a	1	n/a	0	0	0	0	0.5869140625	0.422607421875	lower	../fonts/zerothre.ttf
385.794	n/a	WORD	192897	wordpools/wasnorm_wordpool.txt	LTP148	ltpFR	10	1	1	PICTURE	1061	n/a	0	n/a	0	0	0	0	0.5869140625	0.422607421875	lower	../fonts/zerothre.ttf
389.614	n/a	WORD	194807	wordpools/wasnorm_wordpool.txt	LTP148	ltpFR	10	1	1	DANDELION	438	n/a	1	n/a	0	0	0	0	0.5869140625	0.422607421875	lower	../fonts/zerothre.ttf
393.618	n/a	WORD	196809	wordpools/wasnorm_wordpool.txt	LTP148	ltpFR	10	1	1	PUMPKIN	1142	n/a	1	n/a	0	0	0	0	0.5869140625	0.422607421875	lower	../fonts/zerothre.ttf
397.754	n/a	WORD	198877	wordpools/wasnorm_wordpool.txt	LTP148	ltpFR	10	1	1	SPIDER	1351	n/a	1	n/a	0	0	0	0	0.5869140625	0.422607421875	lower	../fonts/zerothre.ttf
401.584	n/a	WORD	200792	wordpools/wasnorm_wordpool.txt	LTP148	ltpFR	10	1	1	TERMITE	1451	n/a	1	n/a	0	0	0	0	0.5869140625	0.422607421875	lower	../fonts/zerothre.ttf
405.406	n/a	WORD	202703	wordpools/wasnorm_wordpool.txt	LTP148	ltpFR	10	1	1	CHECK	284	n/a	0	n/a	0	0	0	0	0.5869140625	0.422607421875	lower	../fonts/zerothre.ttf
408.412	n/a	START	204206	n/a	LTP148	ltpFR	10	n/a	n/a	n/a	n/a	n/a	n/a	n/a	n/a	n/a	n/a	n/a	n/a	n/a	n/a	n/a
409.592	n/a	PROB	204796	n/a	LTP148	ltpFR	10	n/a	n/a	n/a	n/a	n/a	n/a	17	5	9	3	n/a	n/a	n/a	n/a	n/a
413.064	n/a	PROB	206532	n/a	LTP148	ltpFR	10	n/a	n/a	n/a	n/a	n/a	n/a	13	3	5	5	n/a	n/a	n/a	n/a	n/a
416.412	n/a	STOP	208206	n/a	LTP148	ltpFR	10	n/a	n/a	n/a	n/a	n/a	n/a	n/a	n/a	n/a	n/a	n/a	n/a	n/a	n/a	n/a
418.234	n/a	REC_START	209117	n/a	LTP148	ltpFR	10	1	n/a	n/a	n/a	n/a	n/a	n/a	0	0	0	n/a	n/a	n/a	n/a	n/a
419.81	n/a	REC_WORD	209905	wordpools/wasnorm_wordpool.txt	LTP148	ltpFR	10	1	1	PERSON	1052	n/a	1	n/a	0	0	0	n/a	n/a	n/a	n/a	n/a
420.678	n/a	REC_WORD	210339	wordpools/wasnorm_wordpool.txt	LTP148	ltpFR	10	1	1	VISITOR	1573	n/a	1	n/a	0	0	0	n/a	n/a	n/a	n/a	n/a
421.456	n/a	REC_WORD	210728	wordpools/wasnorm_wordpool.txt	LTP148	ltpFR	10	1	1	TERMITE	1451	n/a	1	n/a	0	0	0	n/a	n/a	n/a	n/a	n/a
422.414	n/a	REC_WORD	211207	wordpools/wasnorm_wordpool.txt	LTP148	ltpFR	10	1	1	PUMPKIN	1142	n/a	1	n/a	0	0	0	n/a	n/a	n/a	n/a	n/a
423.46	n/a	REC_WORD	211730	wordpools/wasnorm_wordpool.txt	LTP148	ltpFR	10	1	1	PICTURE	1061	n/a	0	n/a	0	0	0	n/a	n/a	n/a	n/a	n/a
424.578	n/a	REC_WORD	212289	wordpools/wasnorm_wordpool.txt	LTP148	ltpFR	10	1	1	CHECK	284	n/a	0	n/a	0	0	0	n/a	n/a	n/a	n/a	n/a
425.566	n/a	REC_WORD	212783	wordpools/wasnorm_wordpool.txt	LTP148	ltpFR	10	1	1	FARMER	553	n/a	1	n/a	0	0	0	n/a	n/a	n/a	n/a	n/a
426.504	n/a	REC_WORD	213252	wordpools/wasnorm_wordpool.txt	LTP148	ltpFR	10	1	1	WHEAT	1602	n/a	1	n/a	0	0	0	n/a	n/a	n/a	n/a	n/a
427.518	n/a	REC_WORD	213759	wordpools/wasnorm_wordpool.txt	LTP148	ltpFR	10	1	1	DILL	465	n/a	1	n/a	0	0	0	n/a	n/a	n/a	n/a	n/a
428.564	n/a	REC_WORD	214282	wordpools/wasnorm_wordpool.txt	LTP148	ltpFR	10	1	1	TURNIP	1521	n/a	1	n/a	0	0	0	n/a	n/a	n/a	n/a	n/a
438.362	n/a	REC_WORD	219181	wordpools/wasnorm_wordpool.txt	LTP148	ltpFR	10	1	1	NOTEBOOK	959	n/a	0	n/a	0	0	0	n/a	n/a	n/a	n/a	n/a
439.924	n/a	REC_WORD	219962	wordpools/wasnorm_wordpool.txt	LTP148	ltpFR	10	1	1	MOSS	918	n/a	1	n/a	0	0	0	n/a	n/a	n/a	n/a	n/a
445.062	n/a	REC_WORD	222531	wordpools/wasnorm_wordpool.txt	LTP148	ltpFR	10	1	1	SPIDER	1351	n/a	1	n/a	0	0	0	n/a	n/a	n/a	n/a	n/a
516.304	n/a	START	258152	n/a	LTP148	ltpFR	10	n/a	n/a	n/a	n/a	n/a	n/a	n/a	n/a	n/a	n/a	n/a	n/a	n/a	n/a	n/a
517.81	n/a	PROB	258905	n/a	LTP148	ltpFR	10	n/a	n/a	n/a	n/a	n/a	n/a	13	2	6	5	n/a	n/a	n/a	n/a	n/a
524.304	n/a	STOP	262152	n/a	LTP148	ltpFR	10	n/a	n/a	n/a	n/a	n/a	n/a	n/a	n/a	n/a	n/a	n/a	n/a	n/a	n/a	n/a
525.21	n/a	WORD	262605	wordpools/wasnorm_wordpool.txt	LTP148	ltpFR	10	2	0	CRADLE	399	n/a	n/a	n/a	0	0	0	1	0.412841796875	0.57763671875	upper	../fonts/amplitud.ttf
528.232	n/a	SLOW_MSG	264116	n/a	LTP148	ltpFR	10	2	n/a	n/a	n/a	n/a	n/a	n/a	0	0	0	n/a	n/a	n/a	n/a	n/a
529.746	n/a	START	264873	n/a	LTP148	ltpFR	10	n/a	n/a	n/a	n/a	n/a	n/a	n/a	n/a	n/a	n/a	n/a	n/a	n/a	n/a	n/a
530.62	n/a	PROB	265310	n/a	LTP148	ltpFR	10	n/a	n/a	n/a	n/a	n/a	n/a	24	6	9	9	n/a	n/a	n/a	n/a	n/a
533.468	n/a	PROB	266734	n/a	LTP148	ltpFR	10	n/a	n/a	n/a	n/a	n/a	n/a	15	8	2	5	n/a	n/a	n/a	n/a	n/a
535.316	n/a	PROB	267658	n/a	LTP148	ltpFR	10	n/a	n/a	n/a	n/a	n/a	n/a	19	6	5	8	n/a	n/a	n/a	n/a	n/a
537.106	n/a	STOP	268553	n/a	LTP148	ltpFR	10	n/a	n/a	n/a	n/a	n/a	n/a	n/a	n/a	n/a	n/a	n/a	n/a	n/a	n/a	n/a
538.694	n/a	WORD	269347	wordpools/wasnorm_wordpool.txt	LTP148	ltpFR	10	2	0	VALLEY	1545	n/a	1	n/a	0	0	0	1	0.412841796875	0.57763671875	upper	../fonts/amplitud.ttf
541.698	n/a	START	270849	n/a	LTP148	ltpFR	10	n/a	n/a	n/a	n/a	n/a	n/a	n/a	n/a	n/a	n/a	n/a	n/a	n/a	n/a	n/a
542.756	n/a	PROB	271378	n/a	LTP148	ltpFR	10	n/a	n/a	n/a	n/a	n/a	n/a	16	5	7	4	n/a	n/a	n/a	n/a	n/a
545.104	n/a	PROB	272552	n/a	LTP148	ltpFR	10	n/a	n/a	n/a	n/a	n/a	n/a	21	8	7	6	n/a	n/a	n/a	n/a	n/a
549.698	n/a	STOP	274849	n/a	LTP148	ltpFR	10	n/a	n/a	n/a	n/a	n/a	n/a	n/a	n/a	n/a	n/a	n/a	n/a	n/a	n/a	n/a
550.746	n/a	WORD	275373	wordpools/wasnorm_wordpool.txt	LTP148	ltpFR	10	2	0	SIBLING	1301	n/a	1	n/a	0	0	0	1	0.412841796875	0.57763671875	upper	../fonts/amplitud.ttf
553.752	n/a	START	276876	n/a	LTP148	ltpFR	10	n/a	n/a	n/a	n/a	n/a	n/a	n/a	n/a	n/a	n/a	n/a	n/a	n/a	n/a	n/a
554.758	n/a	PROB	277379	n/a	LTP148	ltpFR	10	n/a	n/a	n/a	n/a	n/a	n/a	19	4	7	8	n/a	n/a	n/a	n/a	n/a
556.698	n/a	PROB	278349	n/a	LTP148	ltpFR	10	n/a	n/a	n/a	n/a	n/a	n/a	18	7	6	5	n/a	n/a	n/a	n/a	n/a
558.912	n/a	PROB	279456	n/a	LTP148	ltpFR	10	n/a	n/a	n/a	n/a	n/a	n/a	11	2	7	2	n/a	n/a	n/a	n/a	n/a
560.794	n/a	STOP	280397	n/a	LTP148	ltpFR	10	n/a	n/a	n/a	n/a	n/a	n/a	n/a	n/a	n/a	n/a	n/a	n/a	n/a	n/a	n/a
562.632	n/a	WORD	281316	wordpools/wasnorm_wordpool.txt	LTP148	ltpFR	10	2	0	PEOPLE	1046	n/a	1	n/a	0	0	0	1	0.412841796875	0.57763671875	upper	../fonts/amplitud.ttf
565.638	n/a	START	282819	n/a	LTP148	ltpFR	10	n/a	n/a	n/a	n/a	n/a	n/a	n/a	n/a	n/a	n/a	n/a	n/a	n/a	n/a	n/a
566.812	n/a	PROB	283406	n/a	LTP148	ltpFR	10	n/a	n/a	n/a	n/a	n/a	n/a	18	7	4	7	n/a	n/a	n/a	n/a	n/a
568.902	n/a	PROB	284451	n/a	LTP148	ltpFR	10	n/a	n/a	n/a	n/a	n/a	n/a	17	4	6	7	n/a	n/a	n/a	n/a	n/a
570.598	n/a	PROB	285299	n/a	LTP148	ltpFR	10	n/a	n/a	n/a	n/a	n/a	n/a	20	8	7	5	n/a	n/a	n/a	n/a	n/a
572.844	n/a	STOP	286422	n/a	LTP148	ltpFR	10	n/a	n/a	n/a	n/a	n/a	n/a	n/a	n/a	n/a	n/a	n/a	n/a	n/a	n/a	n/a
574.454	n/a	WORD	287227	wordpools/wasnorm_wordpool.txt	LTP148	ltpFR	10	2	0	SNACK	1331	n/a	0	n/a	0	0	0	1	0.412841796875	0.57763671875	upper	../fonts/amplitud.ttf
577.46	n/a	START	288730	n/a	LTP148	ltpFR	10	n/a	n/a	n/a	n/a	n/a	n/a	n/a	n/a	n/a	n/a	n/a	n/a	n/a	n/a	n/a
578.266	n/a	PROB	289133	n/a	LTP148	ltpFR	10	n/a	n/a	n/a	n/a	n/a	n/a	13	6	2	5	n/a	n/a	n/a	n/a	n/a
580.762	n/a	PROB	290381	n/a	LTP148	ltpFR	10	n/a	n/a	n/a	n/a	n/a	n/a	9	3	4	2	n/a	n/a	n/a	n/a	n/a
582.802	n/a	PROB	291401	n/a	LTP148	ltpFR	10	n/a	n/a	n/a	n/a	n/a	n/a	12	7	4	1	n/a	n/a	n/a	n/a	n/a
584.364	n/a	STOP	292182	n/a	LTP148	ltpFR	10	n/a	n/a	n/a	n/a	n/a	n/a	n/a	n/a	n/a	n/a	n/a	n/a	n/a	n/a	n/a
586.49	n/a	WORD	293245	wordpools/wasnorm_wordpool.txt	LTP148	ltpFR	10	2	1	MATCH	878	n/a	0	n/a	0	0	0	0	0.5869140625	0.422607421875	lower	../fonts/zerothre.ttf
589.496	n/a	START	294748	n/a	LTP148	ltpFR	10	n/a	n/a	n/a	n/a	n/a	n/a	n/a	n/a	n/a	n/a	n/a	n/a	n/a	n/a	n/a
590.684	n/a	PROB	295342	n/a	LTP148	ltpFR	10	n/a	n/a	n/a	n/a	n/a	n/a	11	2	3	6	n/a	n/a	n/a	n/a	n/a
592.366	n/a	PROB	296183	n/a	LTP148	ltpFR	10	n/a	n/a	n/a	n/a	n/a	n/a	10	2	6	2	n/a	n/a	n/a	n/a	n/a
594.93	n/a	PROB	297465	n/a	LTP148	ltpFR	10	n/a	n/a	n/a	n/a	n/a	n/a	15	8	5	2	n/a	n/a	n/a	n/a	n/a
596.666	n/a	STOP	298333	n/a	LTP148	ltpFR	10	n/a	n/a	n/a	n/a	n/a	n/a	n/a	n/a	n/a	n/a	n/a	n/a	n/a	n/a	n/a
598.492	n/a	WORD	299246	wordpools/wasnorm_wordpool.txt	LTP148	ltpFR	10	2	1	SWITCH	1422	n/a	0	n/a	0	0	0	0	0.5869140625	0.422607421875	lower	../fonts/zerothre.ttf
601.498	n/a	START	300749	n/a	LTP148	ltpFR	10	n/a	n/a	n/a	n/a	n/a	n/a	n/a	n/a	n/a	n/a	n/a	n/a	n/a	n/a	n/a
602.554	n/a	PROB	301277	n/a	LTP148	ltpFR	10	n/a	n/a	n/a	n/a	n/a	n/a	22	8	7	7	n/a	n/a	n/a	n/a	n/a
604.91	n/a	PROB	302455	n/a	LTP148	ltpFR	10	n/a	n/a	n/a	n/a	n/a	n/a	19	5	9	5	n/a	n/a	n/a	n/a	n/a
609.498	n/a	STOP	304749	n/a	LTP148	ltpFR	10	n/a	n/a	n/a	n/a	n/a	n/a	n/a	n/a	n/a	n/a	n/a	n/a	n/a	n/a	n/a
610.438	n/a	WORD	305219	wordpools/wasnorm_wordpool.txt	LTP148	ltpFR	10	2	1	AUDIENCE	59	n/a	1	n/a	0	0	0	0	0.5869140625	0.422607421875	lower	../fonts/zerothre.ttf
613.442	n/a	START	306721	n/a	LTP148	ltpFR	10	n/a	n/a	n/a	n/a	n/a	n/a	n/a	n/a	n/a	n/a	n/a	n/a	n/a	n/a	n/a
614.442	n/a	PROB	307221	n/a	LTP148	ltpFR	10	n/a	n/a	n/a	n/a	n/a	n/a	16	4	6	6	n/a	n/a	n/a	n/a	n/a
615.972	n/a	PROB	307986	n/a	LTP148	ltpFR	10	n/a	n/a	n/a	n/a	n/a	n/a	13	6	5	2	n/a	n/a	n/a	n/a	n/a
621.442	n/a	STOP	310721	n/a	LTP148	ltpFR	10	n/a	n/a	n/a	n/a	n/a	n/a	n/a	n/a	n/a	n/a	n/a	n/a	n/a	n/a	n/a
622.548	n/a	WORD	311274	wordpools/wasnorm_wordpool.txt	LTP148	ltpFR	10	2	1	SHEEP	1278	n/a	1	n/a	0	0	0	0	0.5869140625	0.422607421875	lower	../fonts/zerothre.ttf
625.552	n/a	START	312776	n/a	LTP148	ltpFR	10	n/a	n/a	n/a	n/a	n/a	n/a	n/a	n/a	n/a	n/a	n/a	n/a	n/a	n/a	n/a
626.75	n/a	PROB	313375	n/a	LTP148	ltpFR	10	n/a	n/a	n/a	n/a	n/a	n/a	10	2	5	3	n/a	n/a	n/a	n/a	n/a
629.166	n/a	PROB	314583	n/a	LTP148	ltpFR	10	n/a	n/a	n/a	n/a	n/a	n/a	20	8	9	3	n/a	n/a	n/a	n/a	n/a
633.092	n/a	STOP	316546	n/a	LTP148	ltpFR	10	n/a	n/a	n/a	n/a	n/a	n/a	n/a	n/a	n/a	n/a	n/a	n/a	n/a	n/a	n/a
634.502	n/a	WORD	317251	wordpools/wasnorm_wordpool.txt	LTP148	ltpFR	10	2	0	CRAB	397	n/a	0	n/a	0	0	0	1	0.412841796875	0.57763671875	upper	../fonts/amplitud.ttf
637.506	n/a	START	318753	n/a	LTP148	ltpFR	10	n/a	n/a	n/a	n/a	n/a	n/a	n/a	n/a	n/a	n/a	n/a	n/a	n/a	n/a	n/a
638.578	n/a	PROB	319289	n/a	LTP148	ltpFR	10	n/a	n/a	n/a	n/a	n/a	n/a	6	1	3	2	n/a	n/a	n/a	n/a	n/a
641.542	n/a	PROB	320771	n/a	LTP148	ltpFR	10	n/a	n/a	n/a	n/a	n/a	n/a	15	2	6	7	n/a	n/a	n/a	n/a	n/a
643.514	n/a	PROB	321757	n/a	LTP148	ltpFR	10	n/a	n/a	n/a	n/a	n/a	n/a	15	5	7	3	n/a	n/a	n/a	n/a	n/a
644.762	n/a	STOP	322381	n/a	LTP148	ltpFR	10	n/a	n/a	n/a	n/a	n/a	n/a	n/a	n/a	n/a	n/a	n/a	n/a	n/a	n/a	n/a
646.404	n/a	WORD	323202	wordpools/wasnorm_wordpool.txt	LTP148	ltpFR	10	2	0	SKI	1316	n/a	1	n/a	0	0	0	1	0.412841796875	0.57763671875	upper	../fonts/amplitud.ttf
649.41	n/a	START	324705	n/a	LTP148	ltpFR	10	n/a	n/a	n/a	n/a	n/a	n/a	n/a	n/a	n/a	n/a	n/a	n/a	n/a	n/a	n/a
650.466	n/a	PROB	325233	n/a	LTP148	ltpFR	10	n/a	n/a	n/a	n/a	n/a	n/a	18	5	9	4	n/a	n/a	n/a	n/a	n/a
652.298	n/a	PROB	326149	n/a	LTP148	ltpFR	10	n/a	n/a	n/a	n/a	n/a	n/a	16	7	5	4	n/a	n/a	n/a	n/a	n/a
655.01	n/a	PROB	327505	n/a	LTP148	ltpFR	10	n/a	n/a	n/a	n/a	n/a	n/a	9	3	1	5	n/a	n/a	n/a	n/a	n/a
656.628	n/a	STOP	328314	n/a	LTP148	ltpFR	10	n/a	n/a	n/a	n/a	n/a	n/a	n/a	n/a	n/a	n/a	n/a	n/a	n/a	n/a	n/a
658.342	n/a	WORD	329171	wordpools/wasnorm_wordpool.txt	LTP148	ltpFR	10	2	0	WATERFALL	1595	n/a	1	n/a	0	0	0	1	0.412841796875	0.57763671875	upper	../fonts/amplitud.ttf
661.346	n/a	START	330673	n/a	LTP148	ltpFR	10	n/a	n/a	n/a	n/a	n/a	n/a	n/a	n/a	n/a	n/a	n/a	n/a	n/a	n/a	n/a
662.262	n/a	PROB	331131	n/a	LTP148	ltpFR	10	n/a	n/a	n/a	n/a	n/a	n/a	21	6	8	7	n/a	n/a	n/a	n/a	n/a
665.682	n/a	PROB	332841	n/a	LTP148	ltpFR	10	n/a	n/a	n/a	n/a	n/a	n/a	10	1	3	6	n/a	n/a	n/a	n/a	n/a
667.248	n/a	PROB	333624	n/a	LTP148	ltpFR	10	n/a	n/a	n/a	n/a	n/a	n/a	17	3	5	9	n/a	n/a	n/a	n/a	n/a
669.236	n/a	STOP	334618	n/a	LTP148	ltpFR	10	n/a	n/a	n/a	n/a	n/a	n/a	n/a	n/a	n/a	n/a	n/a	n/a	n/a	n/a	n/a
670.16	n/a	WORD	335080	wordpools/wasnorm_wordpool.txt	LTP148	ltpFR	10	2	1	TORCH	1484	n/a	0	n/a	0	0	0	0	0.5869140625	0.422607421875	lower	../fonts/zerothre.ttf
673.166	n/a	START	336583	n/a	LTP148	ltpFR	10	n/a	n/a	n/a	n/a	n/a	n/a	n/a	n/a	n/a	n/a	n/a	n/a	n/a	n/a	n/a
674.182	n/a	PROB	337091	n/a	LTP148	ltpFR	10	n/a	n/a	n/a	n/a	n/a	n/a	16	4	6	6	n/a	n/a	n/a	n/a	n/a
675.438	n/a	PROB	337719	n/a	LTP148	ltpFR	10	n/a	n/a	n/a	n/a	n/a	n/a	13	3	7	3	n/a	n/a	n/a	n/a	n/a
676.92	n/a	PROB	338460	n/a	LTP148	ltpFR	10	n/a	n/a	n/a	n/a	n/a	n/a	18	6	9	3	n/a	n/a	n/a	n/a	n/a
678.792	n/a	PROB	339396	n/a	LTP148	ltpFR	10	n/a	n/a	n/a	n/a	n/a	n/a	8	3	1	4	n/a	n/a	n/a	n/a	n/a
680.74	n/a	STOP	340370	n/a	LTP148	ltpFR	10	n/a	n/a	n/a	n/a	n/a	n/a	n/a	n/a	n/a	n/a	n/a	n/a	n/a	n/a	n/a
682.056	n/a	WORD	341028	wordpools/wasnorm_wordpool.txt	LTP148	ltpFR	10	2	1	FELLOW	558	n/a	1	n/a	0	0	0	0	0.5869140625	0.422607421875	lower	../fonts/zerothre.ttf
685.06	n/a	START	342530	n/a	LTP148	ltpFR	10	n/a	n/a	n/a	n/a	n/a	n/a	n/a	n/a	n/a	n/a	n/a	n/a	n/a	n/a	n/a
686.06	n/a	PROB	343030	n/a	LTP148	ltpFR	10	n/a	n/a	n/a	n/a	n/a	n/a	15	5	4	6	n/a	n/a	n/a	n/a	n/a
687.714	n/a	PROB	343857	n/a	LTP148	ltpFR	10	n/a	n/a	n/a	n/a	n/a	n/a	12	6	5	1	n/a	n/a	n/a	n/a	n/a
689.346	n/a	PROB	344673	n/a	LTP148	ltpFR	10	n/a	n/a	n/a	n/a	n/a	n/a	7	1	4	2	n/a	n/a	n/a	n/a	n/a
691.078	n/a	PROB	345539	n/a	LTP148	ltpFR	10	n/a	n/a	n/a	n/a	n/a	n/a	13	4	6	3	n/a	n/a	n/a	n/a	n/a
692.492	n/a	STOP	346246	n/a	LTP148	ltpFR	10	n/a	n/a	n/a	n/a	n/a	n/a	n/a	n/a	n/a	n/a	n/a	n/a	n/a	n/a	n/a
694.05	n/a	WORD	347025	wordpools/wasnorm_wordpool.txt	LTP148	ltpFR	10	2	1	BULB	192	n/a	0	n/a	0	0	0	0	0.5869140625	0.422607421875	lower	../fonts/zerothre.ttf
697.056	n/a	START	348528	n/a	LTP148	ltpFR	10	n/a	n/a	n/a	n/a	n/a	n/a	n/a	n/a	n/a	n/a	n/a	n/a	n/a	n/a	n/a
697.954	n/a	PROB	348977	n/a	LTP148	ltpFR	10	n/a	n/a	n/a	n/a	n/a	n/a	8	1	2	5	n/a	n/a	n/a	n/a	n/a
699.436	n/a	PROB	349718	n/a	LTP148	ltpFR	10	n/a	n/a	n/a	n/a	n/a	n/a	11	6	4	1	n/a	n/a	n/a	n/a	n/a
700.6	n/a	PROB	350300	n/a	LTP148	ltpFR	10	n/a	n/a	n/a	n/a	n/a	n/a	16	1	8	7	n/a	n/a	n/a	n/a	n/a
705.056	n/a	STOP	352528	n/a	LTP148	ltpFR	10	n/a	n/a	n/a	n/a	n/a	n/a	n/a	n/a	n/a	n/a	n/a	n/a	n/a	n/a	n/a
706.078	n/a	WORD	353039	wordpools/wasnorm_wordpool.txt	LTP148	ltpFR	10	2	1	WICK	1607	n/a	0	n/a	0	0	0	0	0.5869140625	0.422607421875	lower	../fonts/zerothre.ttf
709.082	n/a	START	354541	n/a	LTP148	ltpFR	10	n/a	n/a	n/a	n/a	n/a	n/a	n/a	n/a	n/a	n/a	n/a	n/a	n/a	n/a	n/a
710.09	n/a	PROB	355045	n/a	LTP148	ltpFR	10	n/a	n/a	n/a	n/a	n/a	n/a	14	1	5	8	n/a	n/a	n/a	n/a	n/a
712.138	n/a	PROB	356069	n/a	LTP148	ltpFR	10	n/a	n/a	n/a	n/a	n/a	n/a	12	1	6	5	n/a	n/a	n/a	n/a	n/a
713.818	n/a	PROB	356909	n/a	LTP148	ltpFR	10	n/a	n/a	n/a	n/a	n/a	n/a	13	5	7	1	n/a	n/a	n/a	n/a	n/a
715.668	n/a	STOP	357834	n/a	LTP148	ltpFR	10	n/a	n/a	n/a	n/a	n/a	n/a	n/a	n/a	n/a	n/a	n/a	n/a	n/a	n/a	n/a
718.846	n/a	REC_START	359423	n/a	LTP148	ltpFR	10	2	n/a	n/a	n/a	n/a	n/a	n/a	0	0	0	n/a	n/a	n/a	n/a	n/a
721.032	n/a	REC_WORD	360516	wordpools/wasnorm_wordpool.txt	LTP148	ltpFR	10	2	1	MATCH	878	n/a	0	n/a	0	0	0	n/a	n/a	n/a	n/a	n/a
721.88	n/a	REC_WORD	360940	wordpools/wasnorm_wordpool.txt	LTP148	ltpFR	10	2	1	TORCH	1484	n/a	0	n/a	0	0	0	n/a	n/a	n/a	n/a	n/a
726.224	n/a	REC_WORD	363112	wordpools/wasnorm_wordpool.txt	LTP148	ltpFR	10	2	1	WICK	1607	n/a	0	n/a	0	0	0	n/a	n/a	n/a	n/a	n/a
727.89	n/a	REC_WORD	363945	wordpools/wasnorm_wordpool.txt	LTP148	ltpFR	10	2	1	SHEEP	1278	n/a	1	n/a	0	0	0	n/a	n/a	n/a	n/a	n/a
734.222	n/a	REC_WORD	367111	wordpools/wasnorm_wordpool.txt	LTP148	ltpFR	10	2	0	SIBLING	1301	n/a	1	n/a	0	0	0	n/a	n/a	n/a	n/a	n/a
736.626	n/a	REC_WORD	368313	wordpools/wasnorm_wordpool.txt	LTP148	ltpFR	10	2	0	PEOPLE	1046	n/a	1	n/a	0	0	0	n/a	n/a	n/a	n/a	n/a
738.632	n/a	REC_WORD	369316	wordpools/wasnorm_wordpool.txt	LTP148	ltpFR	10	2	0	CRAB	397	n/a	0	n/a	0	0	0	n/a	n/a	n/a	n/a	n/a
739.59	n/a	REC_WORD	369795	wordpools/wasnorm_wordpool.txt	LTP148	ltpFR	10	2	0	SNACK	1331	n/a	0	n/a	0	0	0	n/a	n/a	n/a	n/a	n/a
743.68	n/a	REC_WORD	371840	wordpools/wasnorm_wordpool.txt	LTP148	ltpFR	10	2	0	CRADLE	399	n/a	n/a	n/a	0	0	0	n/a	n/a	n/a	n/a	n/a
757.998	n/a	REC_WORD	378999	wordpools/wasnorm_wordpool.txt	LTP148	ltpFR	10	2	1	FELLOW	558	n/a	1	n/a	0	0	0	n/a	n/a	n/a	n/a	n/a
813.938	n/a	START	406969	n/a	LTP148	ltpFR	10	n/a	n/a	n/a	n/a	n/a	n/a	n/a	n/a	n/a	n/a	n/a	n/a	n/a	n/a	n/a
815.444	n/a	PROB	407722	n/a	LTP148	ltpFR	10	n/a	n/a	n/a	n/a	n/a	n/a	14	1	7	6	n/a	n/a	n/a	n/a	n/a
817.916	n/a	PROB	408958	n/a	LTP148	ltpFR	10	n/a	n/a	n/a	n/a	n/a	n/a	14	4	4	6	n/a	n/a	n/a	n/a	n/a
819.388	n/a	PROB	409694	n/a	LTP148	ltpFR	10	n/a	n/a	n/a	n/a	n/a	n/a	24	7	8	9	n/a	n/a	n/a	n/a	n/a
823.26	n/a	PROB	411630	n/a	LTP148	ltpFR	10	n/a	n/a	n/a	n/a	n/a	n/a	16	1	7	8	n/a	n/a	n/a	n/a	n/a
825.042	n/a	PROB	412521	n/a	LTP148	ltpFR	10	n/a	n/a	n/a	n/a	n/a	n/a	9	4	2	3	n/a	n/a	n/a	n/a	n/a
827.38	n/a	PROB	413690	n/a	LTP148	ltpFR	10	n/a	n/a	n/a	n/a	n/a	n/a	15	5	6	4	n/a	n/a	n/a	n/a	n/a
828.918	n/a	STOP	414459	n/a	LTP148	ltpFR	10	n/a	n/a	n/a	n/a	n/a	n/a	n/a	n/a	n/a	n/a	n/a	n/a	n/a	n/a	n/a
830.776	n/a	WORD	415388	wordpools/wasnorm_wordpool.txt	LTP148	ltpFR	10	3	1	FRIAR	605	n/a	1	n/a	0	0	0	0	0.5869140625	0.422607421875	lower	../fonts/zerothre.ttf
833.782	n/a	START	416891	n/a	LTP148	ltpFR	10	n/a	n/a	n/a	n/a	n/a	n/a	n/a	n/a	n/a	n/a	n/a	n/a	n/a	n/a	n/a
834.872	n/a	PROB	417436	n/a	LTP148	ltpFR	10	n/a	n/a	n/a	n/a	n/a	n/a	15	9	1	5	n/a	n/a	n/a	n/a	n/a
836.17	n/a	PROB	418085	n/a	LTP148	ltpFR	10	n/a	n/a	n/a	n/a	n/a	n/a	14	6	5	2	n/a	n/a	n/a	n/a	n/a
838.294	n/a	PROB	419147	n/a	LTP148	ltpFR	10	n/a	n/a	n/a	n/a	n/a	n/a	19	4	6	9	n/a	n/a	n/a	n/a	n/a
840.0	n/a	PROB	420000	n/a	LTP148	ltpFR	10	n/a	n/a	n/a	n/a	n/a	n/a	16	7	8	1	n/a	n/a	n/a	n/a	n/a
842.446	n/a	PROB	421223	n/a	LTP148	ltpFR	10	n/a	n/a	n/a	n/a	n/a	n/a	20	9	3	8	n/a	n/a	n/a	n/a	n/a
844.544	n/a	PROB	422272	n/a	LTP148	ltpFR	10	n/a	n/a	n/a	n/a	n/a	n/a	15	3	6	6	n/a	n/a	n/a	n/a	n/a
846.532	n/a	PROB	423266	n/a	LTP148	ltpFR	10	n/a	n/a	n/a	n/a	n/a	n/a	14	4	7	3	n/a	n/a	n/a	n/a	n/a
849.782	n/a	STOP	424891	n/a	LTP148	ltpFR	10	n/a	n/a	n/a	n/a	n/a	n/a	n/a	n/a	n/a	n/a	n/a	n/a	n/a	n/a	n/a
850.778	n/a	WORD	425389	wordpools/wasnorm_wordpool.txt	LTP148	ltpFR	10	3	1	FIREMAN	569	n/a	1	n/a	0	0	0	0	0.5869140625	0.422607421875	lower	../fonts/zerothre.ttf
853.784	n/a	START	426892	n/a	LTP148	ltpFR	10	n/a	n/a	n/a	n/a	n/a	n/a	n/a	n/a	n/a	n/a	n/a	n/a	n/a	n/a	n/a
854.714	n/a	PROB	427357	n/a	LTP148	ltpFR	10	n/a	n/a	n/a	n/a	n/a	n/a	17	2	6	9	n/a	n/a	n/a	n/a	n/a
856.746	n/a	PROB	428373	n/a	LTP148	ltpFR	10	n/a	n/a	n/a	n/a	n/a	n/a	17	9	2	5	n/a	n/a	n/a	n/a	n/a
859.91	n/a	PROB	429955	n/a	LTP148	ltpFR	10	n/a	n/a	n/a	n/a	n/a	n/a	14	3	6	5	n/a	n/a	n/a	n/a	n/a
863.18	n/a	PROB	431590	n/a	LTP148	ltpFR	10	n/a	n/a	n/a	n/a	n/a	n/a	15	4	8	3	n/a	n/a	n/a	n/a	n/a
866.294	n/a	PROB	433147	n/a	LTP148	ltpFR	10	n/a	n/a	n/a	n/a	n/a	n/a	14	8	1	5	n/a	n/a	n/a	n/a	n/a
868.478	n/a	STOP	434239	n/a	LTP148	ltpFR	10	n/a	n/a	n/a	n/a	n/a	n/a	n/a	n/a	n/a	n/a	n/a	n/a	n/a	n/a	n/a
870.788	n/a	WORD	435394	wordpools/wasnorm_wordpool.txt	LTP148	ltpFR	10	3	1	LANDSCAPE	799	n/a	0	n/a	0	0	0	0	0.5869140625	0.422607421875	lower	../fonts/zerothre.ttf
873.794	n/a	START	436897	n/a	LTP148	ltpFR	10	n/a	n/a	n/a	n/a	n/a	n/a	n/a	n/a	n/a	n/a	n/a	n/a	n/a	n/a	n/a
874.65	n/a	PROB	437325	n/a	LTP148	ltpFR	10	n/a	n/a	n/a	n/a	n/a	n/a	15	3	5	7	n/a	n/a	n/a	n/a	n/a
876.672	n/a	PROB	438336	n/a	LTP148	ltpFR	10	n/a	n/a	n/a	n/a	n/a	n/a	11	4	2	5	n/a	n/a	n/a	n/a	n/a
878.238	n/a	PROB	439119	n/a	LTP148	ltpFR	10	n/a	n/a	n/a	n/a	n/a	n/a	18	5	6	7	n/a	n/a	n/a	n/a	n/a
880.104	n/a	PROB	440052	n/a	LTP148	ltpFR	10	n/a	n/a	n/a	n/a	n/a	n/a	14	1	7	6	n/a	n/a	n/a	n/a	n/a
882.434	n/a	PROB	441217	n/a	LTP148	ltpFR	10	n/a	n/a	n/a	n/a	n/a	n/a	14	3	9	2	n/a	n/a	n/a	n/a	n/a
886.338	n/a	PROB	443169	n/a	LTP148	ltpFR	10	n/a	n/a	n/a	n/a	n/a	n/a	11	7	3	1	n/a	n/a	n/a	n/a	n/a
887.576	n/a	PROB	443788	n/a	LTP148	ltpFR	10	n/a	n/a	n/a	n/a	n/a	n/a	15	8	2	5	n/a	n/a	n/a	n/a	n/a
888.854	n/a	STOP	444427	n/a	LTP148	ltpFR	10	n/a	n/a	n/a	n/a	n/a	n/a	n/a	n/a	n/a	n/a	n/a	n/a	n/a	n/a	n/a
890.79	n/a	WORD	445395	wordpools/wasnorm_wordpool.txt	LTP148	ltpFR	10	3	1	SCENERY	1247	n/a	0	n/a	0	0	0	0	0.5869140625	0.422607421875	lower	../fonts/zerothre.ttf
893.794	n/a	START	446897	n/a	LTP148	ltpFR	10	n/a	n/a	n/a	n/a	n/a	n/a	n/a	n/a	n/a	n/a	n/a	n/a	n/a	n/a	n/a
894.994	n/a	PROB	447497	n/a	LTP148	ltpFR	10	n/a	n/a	n/a	n/a	n/a	n/a	20	6	9	5	n/a	n/a	n/a	n/a	n/a
898.39	n/a	PROB	449195	n/a	LTP148	ltpFR	10	n/a	n/a	n/a	n/a	n/a	n/a	7	2	3	2	n/a	n/a	n/a	n/a	n/a
900.104	n/a	PROB	450052	n/a	LTP148	ltpFR	10	n/a	n/a	n/a	n/a	n/a	n/a	11	8	2	1	n/a	n/a	n/a	n/a	n/a
901.902	n/a	PROB	450951	n/a	LTP148	ltpFR	10	n/a	n/a	n/a	n/a	n/a	n/a	19	9	4	6	n/a	n/a	n/a	n/a	n/a
904.276	n/a	PROB	452138	n/a	LTP148	ltpFR	10	n/a	n/a	n/a	n/a	n/a	n/a	14	7	5	2	n/a	n/a	n/a	n/a	n/a
905.974	n/a	PROB	452987	n/a	LTP148	ltpFR	10	n/a	n/a	n/a	n/a	n/a	n/a	21	7	7	7	n/a	n/a	n/a	n/a	n/a
907.704	n/a	PROB	453852	n/a	LTP148	ltpFR	10	n/a	n/a	n/a	n/a	n/a	n/a	14	4	6	4	n/a	n/a	n/a	n/a	n/a
909.248	n/a	STOP	454624	n/a	LTP148	ltpFR	10	n/a	n/a	n/a	n/a	n/a	n/a	n/a	n/a	n/a	n/a	n/a	n/a	n/a	n/a	n/a
910.984	n/a	WORD	455492	wordpools/wasnorm_wordpool.txt	LTP148	ltpFR	10	3	0	CUSTARD	429	n/a	0	n/a	0	0	0	1	0.412841796875	0.57763671875	upper	../fonts/amplitud.ttf
913.99	n/a	START	456995	n/a	LTP148	ltpFR	10	n/a	n/a	n/a	n/a	n/a	n/a	n/a	n/a	n/a	n/a	n/a	n/a	n/a	n/a	n/a
914.938	n/a	PROB	457469	n/a	LTP148	ltpFR	10	n/a	n/a	n/a	n/a	n/a	n/a	16	8	5	3	n/a	n/a	n/a	n/a	n/a
919.058	n/a	PROB	459529	n/a	LTP148	ltpFR	10	n/a	n/a	n/a	n/a	n/a	n/a	16	9	2	5	n/a	n/a	n/a	n/a	n/a
922.364	n/a	PROB	461182	n/a	LTP148	ltpFR	10	n/a	n/a	n/a	n/a	n/a	n/a	17	2	9	6	n/a	n/a	n/a	n/a	n/a
925.558	n/a	PROB	462779	n/a	LTP148	ltpFR	10	n/a	n/a	n/a	n/a	n/a	n/a	22	6	7	9	n/a	n/a	n/a	n/a	n/a
928.566	n/a	STOP	464283	n/a	LTP148	ltpFR	10	n/a	n/a	n/a	n/a	n/a	n/a	n/a	n/a	n/a	n/a	n/a	n/a	n/a	n/a	n/a
930.862	n/a	WORD	465431	wordpools/wasnorm_wordpool.txt	LTP148	ltpFR	10	3	0	SANDWICH	1232	n/a	0	n/a	0	0	0	1	0.412841796875	0.57763671875	upper	../fonts/amplitud.ttf
933.868	n/a	START	466934	n/a	LTP148	ltpFR	10	n/a	n/a	n/a	n/a	n/a	n/a	n/a	n/a	n/a	n/a	n/a	n/a	n/a	n/a	n/a
934.816	n/a	PROB	467408	n/a	LTP148	ltpFR	10	n/a	n/a	n/a	n/a	n/a	n/a	14	5	3	6	n/a	n/a	n/a	n/a	n/a
936.746	n/a	PROB	468373	n/a	LTP148	ltpFR	10	n/a	n/a	n/a	n/a	n/a	n/a	19	4	6	9	n/a	n/a	n/a	n/a	n/a
938.162	n/a	PROB	469081	n/a	LTP148	ltpFR	10	n/a	n/a	n/a	n/a	n/a	n/a	19	9	8	2	n/a	n/a	n/a	n/a	n/a
940.002	n/a	PROB	470001	n/a	LTP148	ltpFR	10	n/a	n/a	n/a	n/a	n/a	n/a	14	9	2	3	n/a	n/a	n/a	n/a	n/a
942.824	n/a	PROB	471412	n/a	LTP148	ltpFR	10	n/a	n/a	n/a	n/a	n/a	n/a	15	9	3	3	n/a	n/a	n/a	n/a	n/a
944.604	n/a	PROB	472302	n/a	LTP148	ltpFR	10	n/a	n/a	n/a	n/a	n/a	n/a	11	6	1	4	n/a	n/a	n/a	n/a	n/a
946.418	n/a	PROB	473209	n/a	LTP148	ltpFR	10	n/a	n/a	n/a	n/a	n/a	n/a	18	6	6	6	n/a	n/a	n/a	n/a	n/a
948.44	n/a	STOP	474220	n/a	LTP148	ltpFR	10	n/a	n/a	n/a	n/a	n/a	n/a	n/a	n/a	n/a	n/a	n/a	n/a	n/a	n/a	n/a
950.806	n/a	WORD	475403	wordpools/wasnorm_wordpool.txt	LTP148	ltpFR	10	3	0	COLESLAW	344	n/a	0	n/a	0	0	0	1	0.412841796875	0.57763671875	upper	../fonts/amplitud.ttf
953.81	n/a	START	476905	n/a	LTP148	ltpFR	10	n/a	n/a	n/a	n/a	n/a	n/a	n/a	n/a	n/a	n/a	n/a	n/a	n/a	n/a	n/a
954.934	n/a	PROB	477467	n/a	LTP148	ltpFR	10	n/a	n/a	n/a	n/a	n/a	n/a	15	5	3	7	n/a	n/a	n/a	n/a	n/a
956.816	n/a	PROB	478408	n/a	LTP148	ltpFR	10	n/a	n/a	n/a	n/a	n/a	n/a	15	9	3	2	n/a	n/a	n/a	n/a	n/a
958.996	n/a	PROB	479498	n/a	LTP148	ltpFR	10	n/a	n/a	n/a	n/a	n/a	n/a	15	2	7	6	n/a	n/a	n/a	n/a	n/a
961.176	n/a	PROB	480588	n/a	LTP148	ltpFR	10	n/a	n/a	n/a	n/a	n/a	n/a	10	4	1	5	n/a	n/a	n/a	n/a	n/a
962.842	n/a	PROB	481421	n/a	LTP148	ltpFR	10	n/a	n/a	n/a	n/a	n/a	n/a	17	3	7	7	n/a	n/a	n/a	n/a	n/a
964.546	n/a	PROB	482273	n/a	LTP148	ltpFR	10	n/a	n/a	n/a	n/a	n/a	n/a	11	4	2	5	n/a	n/a	n/a	n/a	n/a
969.81	n/a	STOP	484905	n/a	LTP148	ltpFR	10	n/a	n/a	n/a	n/a	n/a	n/a	n/a	n/a	n/a	n/a	n/a	n/a	n/a	n/a	n/a
970.756	n/a	WORD	485378	wordpools/wasnorm_wordpool.txt	LTP148	ltpFR	10	3	0	CHARCOAL	281	n/a	0	n/a	0	0	0	1	0.412841796875	0.57763671875	upper	../fonts/amplitud.ttf
973.762	n/a	START	486881	n/a	LTP148	ltpFR	10	n/a	n/a	n/a	n/a	n/a	n/a	n/a	n/a	n/a	n/a	n/a	n/a	n/a	n/a	n/a
974.618	n/a	PROB	487309	n/a	LTP148	ltpFR	10	n/a	n/a	n/a	n/a	n/a	n/a	14	4	1	9	n/a	n/a	n/a	n/a	n/a
976.268	n/a	PROB	488134	n/a	LTP148	ltpFR	10	n/a	n/a	n/a	n/a	n/a	n/a	10	7	2	1	n/a	n/a	n/a	n/a	n/a
977.832	n/a	PROB	488916	n/a	LTP148	ltpFR	10	n/a	n/a	n/a	n/a	n/a	n/a	19	6	6	7	n/a	n/a	n/a	n/a	n/a
980.72	n/a	PROB	490360	n/a	LTP148	ltpFR	10	n/a	n/a	n/a	n/a	n/a	n/a	20	9	2	9	n/a	n/a	n/a	n/a	n/a
983.168	n/a	PROB	491584	n/a	LTP148	ltpFR	10	n/a	n/a	n/a	n/a	n/a	n/a	15	7	4	4	n/a	n/a	n/a	n/a	n/a
986.306	n/a	PROB	493153	n/a	LTP148	ltpFR	10	n/a	n/a	n/a	n/a	n/a	n/a	7	4	2	1	n/a	n/a	n/a	n/a	n/a
988.936	n/a	STOP	494468	n/a	LTP148	ltpFR	10	n/a	n/a	n/a	n/a	n/a	n/a	n/a	n/a	n/a	n/a	n/a	n/a	n/a	n/a	n/a
990.7	n/a	WORD	495350	wordpools/wasnorm_wordpool.txt	LTP148	ltpFR	10	3	0	DICTATOR	462	n/a	1	n/a	0	0	0	1	0.412841796875	0.57763671875	upper	../fonts/amplitud.ttf
993.706	n/a	START	496853	n/a	LTP148	ltpFR	10	n/a	n/a	n/a	n/a	n/a	n/a	n/a	n/a	n/a	n/a	n/a	n/a	n/a	n/a	n/a
994.654	n/a	PROB	497327	n/a	LTP148	ltpFR	10	n/a	n/a	n/a	n/a	n/a	n/a	12	6	2	4	n/a	n/a	n/a	n/a	n/a
996.578	n/a	PROB	498289	n/a	LTP148	ltpFR	10	n/a	n/a	n/a	n/a	n/a	n/a	15	6	6	3	n/a	n/a	n/a	n/a	n/a
998.144	n/a	PROB	499072	n/a	LTP148	ltpFR	10	n/a	n/a	n/a	n/a	n/a	n/a	12	5	2	5	n/a	n/a	n/a	n/a	n/a
1000.016	n/a	PROB	500008	n/a	LTP148	ltpFR	10	n/a	n/a	n/a	n/a	n/a	n/a	17	6	5	6	n/a	n/a	n/a	n/a	n/a
1001.956	n/a	PROB	500978	n/a	LTP148	ltpFR	10	n/a	n/a	n/a	n/a	n/a	n/a	18	6	7	5	n/a	n/a	n/a	n/a	n/a
1005.818	n/a	PROB	502909	n/a	LTP148	ltpFR	10	n/a	n/a	n/a	n/a	n/a	n/a	13	8	4	1	n/a	n/a	n/a	n/a	n/a
1008.728	n/a	STOP	504364	n/a	LTP148	ltpFR	10	n/a	n/a	n/a	n/a	n/a	n/a	n/a	n/a	n/a	n/a	n/a	n/a	n/a	n/a	n/a
1010.602	n/a	WORD	505301	wordpools/wasnorm_wordpool.txt	LTP148	ltpFR	10	3	1	HOSTAGE	722	n/a	1	n/a	0	0	0	0	0.5869140625	0.422607421875	lower	../fonts/zerothre.ttf
1013.608	n/a	START	506804	n/a	LTP148	ltpFR	10	n/a	n/a	n/a	n/a	n/a	n/a	n/a	n/a	n/a	n/a	n/a	n/a	n/a	n/a	n/a
1014.808	n/a	PROB	507404	n/a	LTP148	ltpFR	10	n/a	n/a	n/a	n/a	n/a	n/a	20	8	5	7	n/a	n/a	n/a	n/a	n/a
1016.73	n/a	PROB	508365	n/a	LTP148	ltpFR	10	n/a	n/a	n/a	n/a	n/a	n/a	9	1	5	3	n/a	n/a	n/a	n/a	n/a
1018.736	n/a	PROB	509368	n/a	LTP148	ltpFR	10	n/a	n/a	n/a	n/a	n/a	n/a	18	1	8	8	n/a	n/a	n/a	n/a	n/a
1020.368	n/a	PROB	510184	n/a	LTP148	ltpFR	10	n/a	n/a	n/a	n/a	n/a	n/a	20	9	7	4	n/a	n/a	n/a	n/a	n/a
1023.348	n/a	PROB	511674	n/a	LTP148	ltpFR	10	n/a	n/a	n/a	n/a	n/a	n/a	14	5	7	2	n/a	n/a	n/a	n/a	n/a
1029.608	n/a	STOP	514804	n/a	LTP148	ltpFR	10	n/a	n/a	n/a	n/a	n/a	n/a	n/a	n/a	n/a	n/a	n/a	n/a	n/a	n/a	n/a
1030.622	n/a	WORD	515311	wordpools/wasnorm_wordpool.txt	LTP148	ltpFR	10	3	1	CAULIFLOWER	262	n/a	1	n/a	0	0	0	0	0.5869140625	0.422607421875	lower	../fonts/zerothre.ttf
1033.626	n/a	START	516813	n/a	LTP148	ltpFR	10	n/a	n/a	n/a	n/a	n/a	n/a	n/a	n/a	n/a	n/a	n/a	n/a	n/a	n/a	n/a
1034.508	n/a	PROB	517254	n/a	LTP148	ltpFR	10	n/a	n/a	n/a	n/a	n/a	n/a	12	5	5	3	n/a	n/a	n/a	n/a	n/a
1035.874	n/a	PROB	517937	n/a	LTP148	ltpFR	10	n/a	n/a	n/a	n/a	n/a	n/a	16	9	4	3	n/a	n/a	n/a	n/a	n/a
1039.188	n/a	PROB	519594	n/a	LTP148	ltpFR	10	n/a	n/a	n/a	n/a	n/a	n/a	5	2	1	2	n/a	n/a	n/a	n/a	n/a
1040.844	n/a	PROB	520422	n/a	LTP148	ltpFR	10	n/a	n/a	n/a	n/a	n/a	n/a	23	9	6	8	n/a	n/a	n/a	n/a	n/a
1045.214	n/a	PROB	522607	n/a	LTP148	ltpFR	10	n/a	n/a	n/a	n/a	n/a	n/a	16	8	5	3	n/a	n/a	n/a	n/a	n/a
1048.28	n/a	STOP	524140	n/a	LTP148	ltpFR	10	n/a	n/a	n/a	n/a	n/a	n/a	n/a	n/a	n/a	n/a	n/a	n/a	n/a	n/a	n/a
1050.59	n/a	WORD	525295	wordpools/wasnorm_wordpool.txt	LTP148	ltpFR	10	3	1	PRIEST	1122	n/a	0	n/a	0	0	0	0	0.5869140625	0.422607421875	lower	../fonts/zerothre.ttf
1053.596	n/a	START	526798	n/a	LTP148	ltpFR	10	n/a	n/a	n/a	n/a	n/a	n/a	n/a	n/a	n/a	n/a	n/a	n/a	n/a	n/a	n/a
1054.576	n/a	PROB	527288	n/a	LTP148	ltpFR	10	n/a	n/a	n/a	n/a	n/a	n/a	17	4	7	6	n/a	n/a	n/a	n/a	n/a
1056.792	n/a	PROB	528396	n/a	LTP148	ltpFR	10	n/a	n/a	n/a	n/a	n/a	n/a	20	3	9	8	n/a	n/a	n/a	n/a	n/a
1059.256	n/a	PROB	529628	n/a	LTP148	ltpFR	10	n/a	n/a	n/a	n/a	n/a	n/a	14	7	4	3	n/a	n/a	n/a	n/a	n/a
1060.704	n/a	PROB	530352	n/a	LTP148	ltpFR	10	n/a	n/a	n/a	n/a	n/a	n/a	12	1	2	9	n/a	n/a	n/a	n/a	n/a
1062.41	n/a	PROB	531205	n/a	LTP148	ltpFR	10	n/a	n/a	n/a	n/a	n/a	n/a	12	7	2	3	n/a	n/a	n/a	n/a	n/a
1064.316	n/a	PROB	532158	n/a	LTP148	ltpFR	10	n/a	n/a	n/a	n/a	n/a	n/a	16	8	4	4	n/a	n/a	n/a	n/a	n/a
1067.536	n/a	PROB	533768	n/a	LTP148	ltpFR	10	n/a	n/a	n/a	n/a	n/a	n/a	17	6	2	9	n/a	n/a	n/a	n/a	n/a
1069.498	n/a	STOP	534749	n/a	LTP148	ltpFR	10	n/a	n/a	n/a	n/a	n/a	n/a	n/a	n/a	n/a	n/a	n/a	n/a	n/a	n/a	n/a
1070.56	n/a	WORD	535280	wordpools/wasnorm_wordpool.txt	LTP148	ltpFR	10	3	1	TOWER	1490	n/a	0	n/a	0	0	0	0	0.5869140625	0.422607421875	lower	../fonts/zerothre.ttf
1073.564	n/a	START	536782	n/a	LTP148	ltpFR	10	n/a	n/a	n/a	n/a	n/a	n/a	n/a	n/a	n/a	n/a	n/a	n/a	n/a	n/a	n/a
1074.546	n/a	PROB	537273	n/a	LTP148	ltpFR	10	n/a	n/a	n/a	n/a	n/a	n/a	21	9	4	8	n/a	n/a	n/a	n/a	n/a
1078.75	n/a	PROB	539375	n/a	LTP148	ltpFR	10	n/a	n/a	n/a	n/a	n/a	n/a	14	3	5	6	n/a	n/a	n/a	n/a	n/a
1080.68	n/a	PROB	540340	n/a	LTP148	ltpFR	10	n/a	n/a	n/a	n/a	n/a	n/a	19	4	9	6	n/a	n/a	n/a	n/a	n/a
1082.98	n/a	PROB	541490	n/a	LTP148	ltpFR	10	n/a	n/a	n/a	n/a	n/a	n/a	16	8	5	3	n/a	n/a	n/a	n/a	n/a
1086.06	n/a	PROB	543030	n/a	LTP148	ltpFR	10	n/a	n/a	n/a	n/a	n/a	n/a	19	4	9	6	n/a	n/a	n/a	n/a	n/a
1088.098	n/a	STOP	544049	n/a	LTP148	ltpFR	10	n/a	n/a	n/a	n/a	n/a	n/a	n/a	n/a	n/a	n/a	n/a	n/a	n/a	n/a	n/a
1090.67	n/a	WORD	545335	wordpools/wasnorm_wordpool.txt	LTP148	ltpFR	10	3	0	GUEST	669	n/a	1	n/a	0	0	0	1	0.412841796875	0.57763671875	upper	../fonts/amplitud.ttf
1093.674	n/a	START	546837	n/a	LTP148	ltpFR	10	n/a	n/a	n/a	n/a	n/a	n/a	n/a	n/a	n/a	n/a	n/a	n/a	n/a	n/a	n/a
1094.532	n/a	PROB	547266	n/a	LTP148	ltpFR	10	n/a	n/a	n/a	n/a	n/a	n/a	14	2	5	7	n/a	n/a	n/a	n/a	n/a
1097.47	n/a	PROB	548735	n/a	LTP148	ltpFR	10	n/a	n/a	n/a	n/a	n/a	n/a	17	5	6	6	n/a	n/a	n/a	n/a	n/a
1100.01	n/a	PROB	550005	n/a	LTP148	ltpFR	10	n/a	n/a	n/a	n/a	n/a	n/a	15	8	2	5	n/a	n/a	n/a	n/a	n/a
1101.166	n/a	PROB	550583	n/a	LTP148	ltpFR	10	n/a	n/a	n/a	n/a	n/a	n/a	18	6	5	7	n/a	n/a	n/a	n/a	n/a
1103.04	n/a	PROB	551520	n/a	LTP148	ltpFR	10	n/a	n/a	n/a	n/a	n/a	n/a	23	9	8	6	n/a	n/a	n/a	n/a	n/a
1109.674	n/a	STOP	554837	n/a	LTP148	ltpFR	10	n/a	n/a	n/a	n/a	n/a	n/a	n/a	n/a	n/a	n/a	n/a	n/a	n/a	n/a	n/a
1110.838	n/a	WORD	555419	wordpools/wasnorm_wordpool.txt	LTP148	ltpFR	10	3	0	RAFT	1159	n/a	1	n/a	0	0	0	1	0.412841796875	0.57763671875	upper	../fonts/amplitud.ttf
1113.844	n/a	START	556922	n/a	LTP148	ltpFR	10	n/a	n/a	n/a	n/a	n/a	n/a	n/a	n/a	n/a	n/a	n/a	n/a	n/a	n/a	n/a
1114.984	n/a	PROB	557492	n/a	LTP148	ltpFR	10	n/a	n/a	n/a	n/a	n/a	n/a	10	2	1	7	n/a	n/a	n/a	n/a	n/a
1116.498	n/a	PROB	558249	n/a	LTP148	ltpFR	10	n/a	n/a	n/a	n/a	n/a	n/a	18	3	7	8	n/a	n/a	n/a	n/a	n/a
1117.922	n/a	PROB	558961	n/a	LTP148	ltpFR	10	n/a	n/a	n/a	n/a	n/a	n/a	20	9	9	2	n/a	n/a	n/a	n/a	n/a
1120.37	n/a	PROB	560185	n/a	LTP148	ltpFR	10	n/a	n/a	n/a	n/a	n/a	n/a	17	5	3	9	n/a	n/a	n/a	n/a	n/a
1122.126	n/a	PROB	561063	n/a	LTP148	ltpFR	10	n/a	n/a	n/a	n/a	n/a	n/a	7	2	3	2	n/a	n/a	n/a	n/a	n/a
1124.556	n/a	PROB	562278	n/a	LTP148	ltpFR	10	n/a	n/a	n/a	n/a	n/a	n/a	24	7	9	8	n/a	n/a	n/a	n/a	n/a
1128.744	n/a	STOP	564372	n/a	LTP148	ltpFR	10	n/a	n/a	n/a	n/a	n/a	n/a	n/a	n/a	n/a	n/a	n/a	n/a	n/a	n/a	n/a
1130.908	n/a	WORD	565454	wordpools/wasnorm_wordpool.txt	LTP148	ltpFR	10	3	0	DOCK	477	n/a	1	n/a	0	0	0	1	0.412841796875	0.57763671875	upper	../fonts/amplitud.ttf
1133.912	n/a	START	566956	n/a	LTP148	ltpFR	10	n/a	n/a	n/a	n/a	n/a	n/a	n/a	n/a	n/a	n/a	n/a	n/a	n/a	n/a	n/a
1134.91	n/a	PROB	567455	n/a	LTP148	ltpFR	10	n/a	n/a	n/a	n/a	n/a	n/a	19	8	3	8	n/a	n/a	n/a	n/a	n/a
1138.424	n/a	PROB	569212	n/a	LTP148	ltpFR	10	n/a	n/a	n/a	n/a	n/a	n/a	11	3	1	7	n/a	n/a	n/a	n/a	n/a
1140.52	n/a	PROB	570260	n/a	LTP148	ltpFR	10	n/a	n/a	n/a	n/a	n/a	n/a	13	9	2	2	n/a	n/a	n/a	n/a	n/a
1144.084	n/a	PROB	572042	n/a	LTP148	ltpFR	10	n/a	n/a	n/a	n/a	n/a	n/a	14	4	5	5	n/a	n/a	n/a	n/a	n/a
1146.422	n/a	PROB	573211	n/a	LTP148	ltpFR	10	n/a	n/a	n/a	n/a	n/a	n/a	22	9	9	4	n/a	n/a	n/a	n/a	n/a
1148.938	n/a	STOP	574469	n/a	LTP148	ltpFR	10	n/a	n/a	n/a	n/a	n/a	n/a	n/a	n/a	n/a	n/a	n/a	n/a	n/a	n/a	n/a
1151.724	n/a	REC_START	575862	n/a	LTP148	ltpFR	10	3	n/a	n/a	n/a	n/a	n/a	n/a	0	0	0	n/a	n/a	n/a	n/a	n/a
1155.82	n/a	REC_WORD	577910	wordpools/wasnorm_wordpool.txt	LTP148	ltpFR	10	3	0	RAFT	1159	n/a	1	n/a	0	0	0	n/a	n/a	n/a	n/a	n/a
1160.39	n/a	REC_WORD	580195	wordpools/wasnorm_wordpool.txt	LTP148	ltpFR	10	3	0	CUSTARD	429	n/a	0	n/a	0	0	0	n/a	n/a	n/a	n/a	n/a
1161.358	n/a	REC_WORD	580679	wordpools/wasnorm_wordpool.txt	LTP148	ltpFR	10	3	0	SANDWICH	1232	n/a	0	n/a	0	0	0	n/a	n/a	n/a	n/a	n/a
1162.83	n/a	REC_WORD	581415	wordpools/wasnorm_wordpool.txt	LTP148	ltpFR	10	3	0	COLESLAW	344	n/a	0	n/a	0	0	0	n/a	n/a	n/a	n/a	n/a
1165.728	n/a	REC_WORD	582864	wordpools/wasnorm_wordpool.txt	LTP148	ltpFR	10	3	0	CHARCOAL	281	n/a	0	n/a	0	0	0	n/a	n/a	n/a	n/a	n/a
1178.67	n/a	REC_WORD	589335	wordpools/wasnorm_wordpool.txt	LTP148	ltpFR	10	3	0	GUEST	669	n/a	1	n/a	0	0	0	n/a	n/a	n/a	n/a	n/a
1199.392	n/a	REC_WORD	599696	wordpools/wasnorm_wordpool.txt	LTP148	ltpFR	10	3	0	DICTATOR	462	n/a	1	n/a	0	0	0	n/a	n/a	n/a	n/a	n/a
1226.016	n/a	REC_WORD	613008	wordpools/wasnorm_wordpool.txt	LTP148	ltpFR	10	3	1	LANDSCAPE	799	n/a	0	n/a	0	0	0	n/a	n/a	n/a	n/a	n/a
1235.288	n/a	START	617644	n/a	LTP148	ltpFR	10	n/a	n/a	n/a	n/a	n/a	n/a	n/a	n/a	n/a	n/a	n/a	n/a	n/a	n/a	n/a
1236.794	n/a	PROB	618397	n/a	LTP148	ltpFR	10	n/a	n/a	n/a	n/a	n/a	n/a	11	3	3	5	n/a	n/a	n/a	n/a	n/a
1239.316	n/a	PROB	619658	n/a	LTP148	ltpFR	10	n/a	n/a	n/a	n/a	n/a	n/a	11	1	1	9	n/a	n/a	n/a	n/a	n/a
1243.288	n/a	STOP	621644	n/a	LTP148	ltpFR	10	n/a	n/a	n/a	n/a	n/a	n/a	n/a	n/a	n/a	n/a	n/a	n/a	n/a	n/a	n/a
1244.186	n/a	WORD	622093	wordpools/wasnorm_wordpool.txt	LTP148	ltpFR	10	4	1	DRAWING	494	n/a	0	n/a	0	0	0	0	0.5869140625	0.422607421875	lower	../fonts/zerothre.ttf
1247.192	n/a	START	623596	n/a	LTP148	ltpFR	10	n/a	n/a	n/a	n/a	n/a	n/a	n/a	n/a	n/a	n/a	n/a	n/a	n/a	n/a	n/a
1248.024	n/a	PROB	624012	n/a	LTP148	ltpFR	10	n/a	n/a	n/a	n/a	n/a	n/a	11	2	8	1	n/a	n/a	n/a	n/a	n/a
1250.602	n/a	PROB	625301	n/a	LTP148	ltpFR	10	n/a	n/a	n/a	n/a	n/a	n/a	14	3	8	3	n/a	n/a	n/a	n/a	n/a
1253.746	n/a	STOP	626873	n/a	LTP148	ltpFR	10	n/a	n/a	n/a	n/a	n/a	n/a	n/a	n/a	n/a	n/a	n/a	n/a	n/a	n/a	n/a
1256.022	n/a	WORD	628011	wordpools/wasnorm_wordpool.txt	LTP148	ltpFR	10	4	1	FRAME	600	n/a	0	n/a	0	0	0	0	0.5869140625	0.422607421875	lower	../fonts/zerothre.ttf
1259.028	n/a	START	629514	n/a	LTP148	ltpFR	10	n/a	n/a	n/a	n/a	n/a	n/a	n/a	n/a	n/a	n/a	n/a	n/a	n/a	n/a	n/a
1259.918	n/a	PROB	629959	n/a	LTP148	ltpFR	10	n/a	n/a	n/a	n/a	n/a	n/a	7	1	4	2	n/a	n/a	n/a	n/a	n/a
1263.148	n/a	PROB	631574	n/a	LTP148	ltpFR	10	n/a	n/a	n/a	n/a	n/a	n/a	14	1	9	4	n/a	n/a	n/a	n/a	n/a
1264.678	n/a	PROB	632339	n/a	LTP148	ltpFR	10	n/a	n/a	n/a	n/a	n/a	n/a	16	5	8	3	n/a	n/a	n/a	n/a	n/a
1266.996	n/a	STOP	633498	n/a	LTP148	ltpFR	10	n/a	n/a	n/a	n/a	n/a	n/a	n/a	n/a	n/a	n/a	n/a	n/a	n/a	n/a	n/a
1268.192	n/a	WORD	634096	wordpools/wasnorm_wordpool.txt	LTP148	ltpFR	10	4	1	ENEMY	534	n/a	1	n/a	0	0	0	0	0.5869140625	0.422607421875	lower	../fonts/zerothre.ttf
1271.206	n/a	START	635603	n/a	LTP148	ltpFR	10	n/a	n/a	n/a	n/a	n/a	n/a	n/a	n/a	n/a	n/a	n/a	n/a	n/a	n/a	n/a
1272.046	n/a	PROB	636023	n/a	LTP148	ltpFR	10	n/a	n/a	n/a	n/a	n/a	n/a	12	3	7	2	n/a	n/a	n/a	n/a	n/a
1274.202	n/a	PROB	637101	n/a	LTP148	ltpFR	10	n/a	n/a	n/a	n/a	n/a	n/a	10	3	6	1	n/a	n/a	n/a	n/a	n/a
1275.674	n/a	PROB	637837	n/a	LTP148	ltpFR	10	n/a	n/a	n/a	n/a	n/a	n/a	11	3	5	3	n/a	n/a	n/a	n/a	n/a
1279.206	n/a	STOP	639603	n/a	LTP148	ltpFR	10	n/a	n/a	n/a	n/a	n/a	n/a	n/a	n/a	n/a	n/a	n/a	n/a	n/a	n/a	n/a
1280.286	n/a	WORD	640143	wordpools/wasnorm_wordpool.txt	LTP148	ltpFR	10	4	1	RADIO	1157	n/a	0	n/a	0	0	0	0	0.5869140625	0.422607421875	lower	../fonts/zerothre.ttf
1283.292	n/a	START	641646	n/a	LTP148	ltpFR	10	n/a	n/a	n/a	n/a	n/a	n/a	n/a	n/a	n/a	n/a	n/a	n/a	n/a	n/a	n/a
1284.198	n/a	PROB	642099	n/a	LTP148	ltpFR	10	n/a	n/a	n/a	n/a	n/a	n/a	16	4	4	8	n/a	n/a	n/a	n/a	n/a
1285.904	n/a	PROB	642952	n/a	LTP148	ltpFR	10	n/a	n/a	n/a	n/a	n/a	n/a	8	2	3	3	n/a	n/a	n/a	n/a	n/a
1288.46	n/a	PROB	644230	n/a	LTP148	ltpFR	10	n/a	n/a	n/a	n/a	n/a	n/a	18	8	7	3	n/a	n/a	n/a	n/a	n/a
1289.98	n/a	STOP	644990	n/a	LTP148	ltpFR	10	n/a	n/a	n/a	n/a	n/a	n/a	n/a	n/a	n/a	n/a	n/a	n/a	n/a	n/a	n/a
1292.364	n/a	WORD	646182	wordpools/wasnorm_wordpool.txt	LTP148	ltpFR	10	4	1	CURTAIN	427	n/a	0	n/a	0	0	0	0	0.5869140625	0.422607421875	lower	../fonts/zerothre.ttf
1295.37	n/a	START	647685	n/a	LTP148	ltpFR	10	n/a	n/a	n/a	n/a	n/a	n/a	n/a	n/a	n/a	n/a	n/a	n/a	n/a	n/a	n/a
1296.45	n/a	PROB	648225	n/a	LTP148	ltpFR	10	n/a	n/a	n/a	n/a	n/a	n/a	17	5	9	3	n/a	n/a	n/a	n/a	n/a
1299.222	n/a	PROB	649611	n/a	LTP148	ltpFR	10	n/a	n/a	n/a	n/a	n/a	n/a	18	7	2	9	n/a	n/a	n/a	n/a	n/a
1300.87	n/a	PROB	650435	n/a	LTP148	ltpFR	10	n/a	n/a	n/a	n/a	n/a	n/a	16	8	5	3	n/a	n/a	n/a	n/a	n/a
1303.196	n/a	STOP	651598	n/a	LTP148	ltpFR	10	n/a	n/a	n/a	n/a	n/a	n/a	n/a	n/a	n/a	n/a	n/a	n/a	n/a	n/a	n/a
1304.5	n/a	WORD	652250	wordpools/wasnorm_wordpool.txt	LTP148	ltpFR	10	4	1	BALCONY	72	n/a	0	n/a	0	0	0	0	0.5869140625	0.422607421875	lower	../fonts/zerothre.ttf
1307.506	n/a	START	653753	n/a	LTP148	ltpFR	10	n/a	n/a	n/a	n/a	n/a	n/a	n/a	n/a	n/a	n/a	n/a	n/a	n/a	n/a	n/a
1308.694	n/a	PROB	654347	n/a	LTP148	ltpFR	10	n/a	n/a	n/a	n/a	n/a	n/a	11	2	6	3	n/a	n/a	n/a	n/a	n/a
1315.506	n/a	STOP	657753	n/a	LTP148	ltpFR	10	n/a	n/a	n/a	n/a	n/a	n/a	n/a	n/a	n/a	n/a	n/a	n/a	n/a	n/a	n/a
1316.71	n/a	WORD	658355	wordpools/wasnorm_wordpool.txt	LTP148	ltpFR	10	4	1	GAZELLE	628	n/a	1	n/a	0	0	0	0	0.5869140625	0.422607421875	lower	../fonts/zerothre.ttf
1319.716	n/a	START	659858	n/a	LTP148	ltpFR	10	n/a	n/a	n/a	n/a	n/a	n/a	n/a	n/a	n/a	n/a	n/a	n/a	n/a	n/a	n/a
1320.564	n/a	PROB	660282	n/a	LTP148	ltpFR	10	n/a	n/a	n/a	n/a	n/a	n/a	16	4	6	6	n/a	n/a	n/a	n/a	n/a
1321.788	n/a	PROB	660894	n/a	LTP148	ltpFR	10	n/a	n/a	n/a	n/a	n/a	n/a	16	1	7	8	n/a	n/a	n/a	n/a	n/a
1323.37	n/a	PROB	661685	n/a	LTP148	ltpFR	10	n/a	n/a	n/a	n/a	n/a	n/a	16	1	9	6	n/a	n/a	n/a	n/a	n/a
1325.018	n/a	PROB	662509	n/a	LTP148	ltpFR	10	n/a	n/a	n/a	n/a	n/a	n/a	16	7	8	1	n/a	n/a	n/a	n/a	n/a
1327.212	n/a	STOP	663606	n/a	LTP148	ltpFR	10	n/a	n/a	n/a	n/a	n/a	n/a	n/a	n/a	n/a	n/a	n/a	n/a	n/a	n/a	n/a
1328.822	n/a	WORD	664411	wordpools/wasnorm_wordpool.txt	LTP148	ltpFR	10	4	1	MOOSE	915	n/a	n/a	n/a	0	0	0	0	0.5869140625	0.422607421875	lower	../fonts/zerothre.ttf
1331.844	n/a	SLOW_MSG	665922	n/a	LTP148	ltpFR	10	4	n/a	n/a	n/a	n/a	n/a	n/a	0	0	0	n/a	n/a	n/a	n/a	n/a
1333.36	n/a	START	666680	n/a	LTP148	ltpFR	10	n/a	n/a	n/a	n/a	n/a	n/a	n/a	n/a	n/a	n/a	n/a	n/a	n/a	n/a	n/a
1334.332	n/a	PROB	667166	n/a	LTP148	ltpFR	10	n/a	n/a	n/a	n/a	n/a	n/a	10	3	6	1	n/a	n/a	n/a	n/a	n/a
1336.106	n/a	PROB	668053	n/a	LTP148	ltpFR	10	n/a	n/a	n/a	n/a	n/a	n/a	14	4	2	8	n/a	n/a	n/a	n/a	n/a
1341.36	n/a	STOP	670680	n/a	LTP148	ltpFR	10	n/a	n/a	n/a	n/a	n/a	n/a	n/a	n/a	n/a	n/a	n/a	n/a	n/a	n/a	n/a
1342.29	n/a	WORD	671145	wordpools/wasnorm_wordpool.txt	LTP148	ltpFR	10	4	1	RACCOON	1153	n/a	1	n/a	0	0	0	0	0.5869140625	0.422607421875	lower	../fonts/zerothre.ttf
1345.296	n/a	START	672648	n/a	LTP148	ltpFR	10	n/a	n/a	n/a	n/a	n/a	n/a	n/a	n/a	n/a	n/a	n/a	n/a	n/a	n/a	n/a
1346.468	n/a	PROB	673234	n/a	LTP148	ltpFR	10	n/a	n/a	n/a	n/a	n/a	n/a	15	5	3	7	n/a	n/a	n/a	n/a	n/a
1347.7	n/a	PROB	673850	n/a	LTP148	ltpFR	10	n/a	n/a	n/a	n/a	n/a	n/a	17	9	7	1	n/a	n/a	n/a	n/a	n/a
1349.182	n/a	PROB	674591	n/a	LTP148	ltpFR	10	n/a	n/a	n/a	n/a	n/a	n/a	11	6	4	1	n/a	n/a	n/a	n/a	n/a
1350.364	n/a	PROB	675182	n/a	LTP148	ltpFR	10	n/a	n/a	n/a	n/a	n/a	n/a	7	2	3	2	n/a	n/a	n/a	n/a	n/a
1352.076	n/a	STOP	676038	n/a	LTP148	ltpFR	10	n/a	n/a	n/a	n/a	n/a	n/a	n/a	n/a	n/a	n/a	n/a	n/a	n/a	n/a	n/a
1354.452	n/a	WORD	677226	wordpools/wasnorm_wordpool.txt	LTP148	ltpFR	10	4	1	KETTLE	772	n/a	0	n/a	0	0	0	0	0.5869140625	0.422607421875	lower	../fonts/zerothre.ttf
1357.456	n/a	START	678728	n/a	LTP148	ltpFR	10	n/a	n/a	n/a	n/a	n/a	n/a	n/a	n/a	n/a	n/a	n/a	n/a	n/a	n/a	n/a
1358.438	n/a	PROB	679219	n/a	LTP148	ltpFR	10	n/a	n/a	n/a	n/a	n/a	n/a	8	1	2	5	n/a	n/a	n/a	n/a	n/a
1359.92	n/a	PROB	679960	n/a	LTP148	ltpFR	10	n/a	n/a	n/a	n/a	n/a	n/a	15	6	6	3	n/a	n/a	n/a	n/a	n/a
1361.676	n/a	PROB	680838	n/a	LTP148	ltpFR	10	n/a	n/a	n/a	n/a	n/a	n/a	18	9	3	6	n/a	n/a	n/a	n/a	n/a
1364.148	n/a	STOP	682074	n/a	LTP148	ltpFR	10	n/a	n/a	n/a	n/a	n/a	n/a	n/a	n/a	n/a	n/a	n/a	n/a	n/a	n/a	n/a
1366.412	n/a	WORD	683206	wordpools/wasnorm_wordpool.txt	LTP148	ltpFR	10	4	1	CORAL	378	n/a	0	n/a	0	0	0	0	0.5869140625	0.422607421875	lower	../fonts/zerothre.ttf
1369.418	n/a	START	684709	n/a	LTP148	ltpFR	10	n/a	n/a	n/a	n/a	n/a	n/a	n/a	n/a	n/a	n/a	n/a	n/a	n/a	n/a	n/a
1370.416	n/a	PROB	685208	n/a	LTP148	ltpFR	10	n/a	n/a	n/a	n/a	n/a	n/a	19	9	2	8	n/a	n/a	n/a	n/a	n/a
1372.472	n/a	PROB	686236	n/a	LTP148	ltpFR	10	n/a	n/a	n/a	n/a	n/a	n/a	13	2	5	6	n/a	n/a	n/a	n/a	n/a
1374.462	n/a	PROB	687231	n/a	LTP148	ltpFR	10	n/a	n/a	n/a	n/a	n/a	n/a	19	5	8	6	n/a	n/a	n/a	n/a	n/a
1376.476	n/a	STOP	688238	n/a	LTP148	ltpFR	10	n/a	n/a	n/a	n/a	n/a	n/a	n/a	n/a	n/a	n/a	n/a	n/a	n/a	n/a	n/a
1378.448	n/a	WORD	689224	wordpools/wasnorm_wordpool.txt	LTP148	ltpFR	10	4	1	MINK	897	n/a	1	n/a	0	0	0	0	0.5869140625	0.422607421875	lower	../fonts/zerothre.ttf
1381.454	n/a	START	690727	n/a	LTP148	ltpFR	10	n/a	n/a	n/a	n/a	n/a	n/a	n/a	n/a	n/a	n/a	n/a	n/a	n/a	n/a	n/a
1389.454	n/a	STOP	694727	n/a	LTP148	ltpFR	10	n/a	n/a	n/a	n/a	n/a	n/a	n/a	n/a	n/a	n/a	n/a	n/a	n/a	n/a	n/a
1390.642	n/a	WORD	695321	wordpools/wasnorm_wordpool.txt	LTP148	ltpFR	10	4	1	CITRUS	313	n/a	0	n/a	0	0	0	0	0.5869140625	0.422607421875	lower	../fonts/zerothre.ttf
1393.646	n/a	START	696823	n/a	LTP148	ltpFR	10	n/a	n/a	n/a	n/a	n/a	n/a	n/a	n/a	n/a	n/a	n/a	n/a	n/a	n/a	n/a
1394.504	n/a	PROB	697252	n/a	LTP148	ltpFR	10	n/a	n/a	n/a	n/a	n/a	n/a	10	3	2	5	n/a	n/a	n/a	n/a	n/a
1397.502	n/a	PROB	698751	n/a	LTP148	ltpFR	10	n/a	n/a	n/a	n/a	n/a	n/a	21	8	8	5	n/a	n/a	n/a	n/a	n/a
1401.648	n/a	STOP	700824	n/a	LTP148	ltpFR	10	n/a	n/a	n/a	n/a	n/a	n/a	n/a	n/a	n/a	n/a	n/a	n/a	n/a	n/a	n/a
1402.746	n/a	WORD	701373	wordpools/wasnorm_wordpool.txt	LTP148	ltpFR	10	4	1	OVAL	990	n/a	0	n/a	0	0	0	0	0.5869140625	0.422607421875	lower	../fonts/zerothre.ttf
1405.75	n/a	START	702875	n/a	LTP148	ltpFR	10	n/a	n/a	n/a	n/a	n/a	n/a	n/a	n/a	n/a	n/a	n/a	n/a	n/a	n/a	n/a
1406.65	n/a	PROB	703325	n/a	LTP148	ltpFR	10	n/a	n/a	n/a	n/a	n/a	n/a	15	2	7	6	n/a	n/a	n/a	n/a	n/a
1408.224	n/a	PROB	704112	n/a	LTP148	ltpFR	10	n/a	n/a	n/a	n/a	n/a	n/a	17	5	8	4	n/a	n/a	n/a	n/a	n/a
1410.062	n/a	PROB	705031	n/a	LTP148	ltpFR	10	n/a	n/a	n/a	n/a	n/a	n/a	13	3	6	4	n/a	n/a	n/a	n/a	n/a
1413.75	n/a	STOP	706875	n/a	LTP148	ltpFR	10	n/a	n/a	n/a	n/a	n/a	n/a	n/a	n/a	n/a	n/a	n/a	n/a	n/a	n/a	n/a
1414.748	n/a	WORD	707374	wordpools/wasnorm_wordpool.txt	LTP148	ltpFR	10	4	1	SEAGULL	1261	n/a	1	n/a	0	0	0	0	0.5869140625	0.422607421875	lower	../fonts/zerothre.ttf
1417.754	n/a	START	708877	n/a	LTP148	ltpFR	10	n/a	n/a	n/a	n/a	n/a	n/a	n/a	n/a	n/a	n/a	n/a	n/a	n/a	n/a	n/a
1418.928	n/a	PROB	709464	n/a	LTP148	ltpFR	10	n/a	n/a	n/a	n/a	n/a	n/a	13	4	3	6	n/a	n/a	n/a	n/a	n/a
1420.826	n/a	PROB	710413	n/a	LTP148	ltpFR	10	n/a	n/a	n/a	n/a	n/a	n/a	19	6	6	5	n/a	n/a	n/a	n/a	n/a
1422.664	n/a	PROB	711332	n/a	LTP148	ltpFR	10	n/a	n/a	n/a	n/a	n/a	n/a	7	2	1	4	n/a	n/a	n/a	n/a	n/a
1424.486	n/a	STOP	712243	n/a	LTP148	ltpFR	10	n/a	n/a	n/a	n/a	n/a	n/a	n/a	n/a	n/a	n/a	n/a	n/a	n/a	n/a	n/a
1426.934	n/a	WORD	713467	wordpools/wasnorm_wordpool.txt	LTP148	ltpFR	10	4	1	PARTNER	1017	n/a	1	n/a	0	0	0	0	0.5869140625	0.422607421875	lower	../fonts/zerothre.ttf
1429.94	n/a	START	714970	n/a	LTP148	ltpFR	10	n/a	n/a	n/a	n/a	n/a	n/a	n/a	n/a	n/a	n/a	n/a	n/a	n/a	n/a	n/a
1430.762	n/a	PROB	715381	n/a	LTP148	ltpFR	10	n/a	n/a	n/a	n/a	n/a	n/a	18	3	7	8	n/a	n/a	n/a	n/a	n/a
1432.112	n/a	PROB	716056	n/a	LTP148	ltpFR	10	n/a	n/a	n/a	n/a	n/a	n/a	14	4	5	5	n/a	n/a	n/a	n/a	n/a
1434.642	n/a	PROB	717321	n/a	LTP148	ltpFR	10	n/a	n/a	n/a	n/a	n/a	n/a	15	8	1	6	n/a	n/a	n/a	n/a	n/a
1437.862	n/a	STOP	718931	n/a	LTP148	ltpFR	10	n/a	n/a	n/a	n/a	n/a	n/a	n/a	n/a	n/a	n/a	n/a	n/a	n/a	n/a	n/a
1439.72	n/a	REC_START	719860	n/a	LTP148	ltpFR	10	4	n/a	n/a	n/a	n/a	n/a	n/a	0	0	0	n/a	n/a	n/a	n/a	n/a
1441.19	n/a	REC_WORD	720595	wordpools/wasnorm_wordpool.txt	LTP148	ltpFR	10	4	1	PARTNER	1017	n/a	1	n/a	0	0	0	n/a	n/a	n/a	n/a	n/a
1441.784	n/a	REC_WORD	720892	wordpools/wasnorm_wordpool.txt	LTP148	ltpFR	10	4	1	SEAGULL	1261	n/a	1	n/a	0	0	0	n/a	n/a	n/a	n/a	n/a
1445.63	n/a	REC_WORD	722815	wordpools/wasnorm_wordpool.txt	LTP148	ltpFR	10	4	1	GAZELLE	628	n/a	1	n/a	0	0	0	n/a	n/a	n/a	n/a	n/a
1446.648	n/a	REC_WORD	723324	wordpools/wasnorm_wordpool.txt	LTP148	ltpFR	10	4	1	CURTAIN	427	n/a	0	n/a	0	0	0	n/a	n/a	n/a	n/a	n/a
1447.676	n/a	REC_WORD	723838	wordpools/wasnorm_wordpool.txt	LTP148	ltpFR	10	4	1	BALCONY	72	n/a	0	n/a	0	0	0	n/a	n/a	n/a	n/a	n/a
1449.338	n/a	REC_WORD	724669	wordpools/wasnorm_wordpool.txt	LTP148	ltpFR	10	4	1	MOOSE	915	n/a	n/a	n/a	0	0	0	n/a	n/a	n/a	n/a	n/a
1454.086	n/a	REC_WORD	727043	wordpools/wasnorm_wordpool.txt	LTP148	ltpFR	10	4	1	RACCOON	1153	n/a	1	n/a	0	0	0	n/a	n/a	n/a	n/a	n/a
1458.696	n/a	REC_WORD	729348	wordpools/wasnorm_wordpool.txt	LTP148	ltpFR	10	4	1	ENEMY	534	n/a	1	n/a	0	0	0	n/a	n/a	n/a	n/a	n/a
1459.26	n/a	REC_WORD	729630	wordpools/wasnorm_wordpool.txt	LTP148	ltpFR	10	4	1	HOSTAGE	722	n/a	1	n/a	0	0	0	n/a	n/a	n/a	n/a	n/a
1491.836	n/a	REC_WORD	745918	wordpools/wasnorm_wordpool.txt	LTP148	ltpFR	10	4	1	RADIO	1157	n/a	0	n/a	0	0	0	n/a	n/a	n/a	n/a	n/a
1530.564	n/a	WORD	765282	wordpools/wasnorm_wordpool.txt	LTP148	ltpFR	10	5	0	BUCKLE	185	n/a	0	n/a	0	0	0	1	0.412841796875	0.57763671875	upper	../fonts/amplitud.ttf
1534.71	n/a	WORD	767355	wordpools/wasnorm_wordpool.txt	LTP148	ltpFR	10	5	0	BUFFALO	186	n/a	1	n/a	0	0	0	1	0.412841796875	0.57763671875	upper	../fonts/amplitud.ttf
1538.638	n/a	WORD	769319	wordpools/wasnorm_wordpool.txt	LTP148	ltpFR	10	5	0	OTTER	986	n/a	1	n/a	0	0	0	1	0.412841796875	0.57763671875	upper	../fonts/amplitud.ttf
1542.7	n/a	WORD	771350	wordpools/wasnorm_wordpool.txt	LTP148	ltpFR	10	5	0	CREEK	404	n/a	1	n/a	0	0	0	1	0.412841796875	0.57763671875	upper	../fonts/amplitud.ttf
1546.896	n/a	WORD	773448	wordpools/wasnorm_wordpool.txt	LTP148	ltpFR	10	5	0	RAM	1165	n/a	1	n/a	0	0	0	1	0.412841796875	0.57763671875	upper	../fonts/amplitud.ttf
1550.968	n/a	WORD	775484	wordpools/wasnorm_wordpool.txt	LTP148	ltpFR	10	5	0	RIBBON	1189	n/a	0	n/a	0	0	0	1	0.412841796875	0.57763671875	upper	../fonts/amplitud.ttf
1555.096	n/a	WORD	777548	wordpools/wasnorm_wordpool.txt	LTP148	ltpFR	10	5	0	SILK	1307	n/a	0	n/a	0	0	0	1	0.412841796875	0.57763671875	upper	../fonts/amplitud.ttf
1559.282	n/a	WORD	779641	wordpools/wasnorm_wordpool.txt	LTP148	ltpFR	10	5	0	MOAT	903	n/a	1	n/a	0	0	0	1	0.412841796875	0.57763671875	upper	../fonts/amplitud.ttf
1563.486	n/a	WORD	781743	wordpools/wasnorm_wordpool.txt	LTP148	ltpFR	10	5	0	STREAM	1392	n/a	1	n/a	0	0	0	1	0.412841796875	0.57763671875	upper	../fonts/amplitud.ttf
1567.672	n/a	WORD	783836	wordpools/wasnorm_wordpool.txt	LTP148	ltpFR	10	5	0	MEADOW	881	n/a	1	n/a	0	0	0	1	0.412841796875	0.57763671875	upper	../fonts/amplitud.ttf
1571.878	n/a	WORD	785939	wordpools/wasnorm_wordpool.txt	LTP148	ltpFR	10	5	0	CUCUMBER	421	n/a	0	n/a	0	0	0	1	0.412841796875	0.57763671875	upper	../fonts/amplitud.ttf
1575.922	n/a	WORD	787961	wordpools/wasnorm_wordpool.txt	LTP148	ltpFR	10	5	0	HAMBURGER	679	n/a	0	n/a	0	0	0	1	0.412841796875	0.57763671875	upper	../fonts/amplitud.ttf
1580.026	n/a	WORD	790013	wordpools/wasnorm_wordpool.txt	LTP148	ltpFR	10	5	0	MUMMY	932	n/a	1	n/a	0	0	0	1	0.412841796875	0.57763671875	upper	../fonts/amplitud.ttf
1584.196	n/a	WORD	792098	wordpools/wasnorm_wordpool.txt	LTP148	ltpFR	10	5	0	SPHINX	1349	n/a	1	n/a	0	0	0	1	0.412841796875	0.57763671875	upper	../fonts/amplitud.ttf
1588.316	n/a	WORD	794158	wordpools/wasnorm_wordpool.txt	LTP148	ltpFR	10	5	0	POOL	1103	n/a	1	n/a	0	0	0	1	0.412841796875	0.57763671875	upper	../fonts/amplitud.ttf
1592.396	n/a	WORD	796198	wordpools/wasnorm_wordpool.txt	LTP148	ltpFR	10	5	0	PRAIRIE	1118	n/a	1	n/a	0	0	0	1	0.412841796875	0.57763671875	upper	../fonts/amplitud.ttf
1595.4	n/a	START	797700	n/a	LTP148	ltpFR	10	n/a	n/a	n/a	n/a	n/a	n/a	n/a	n/a	n/a	n/a	n/a	n/a	n/a	n/a	n/a
1596.282	n/a	PROB	798141	n/a	LTP148	ltpFR	10	n/a	n/a	n/a	n/a	n/a	n/a	15	2	8	5	n/a	n/a	n/a	n/a	n/a
1598.206	n/a	PROB	799103	n/a	LTP148	ltpFR	10	n/a	n/a	n/a	n/a	n/a	n/a	19	7	7	5	n/a	n/a	n/a	n/a	n/a
1599.636	n/a	PROB	799818	n/a	LTP148	ltpFR	10	n/a	n/a	n/a	n/a	n/a	n/a	15	2	8	5	n/a	n/a	n/a	n/a	n/a
1600.784	n/a	PROB	800392	n/a	LTP148	ltpFR	10	n/a	n/a	n/a	n/a	n/a	n/a	21	9	3	9	n/a	n/a	n/a	n/a	n/a
1603.256	n/a	STOP	801628	n/a	LTP148	ltpFR	10	n/a	n/a	n/a	n/a	n/a	n/a	n/a	n/a	n/a	n/a	n/a	n/a	n/a	n/a	n/a
1605.248	n/a	REC_START	802624	n/a	LTP148	ltpFR	10	5	n/a	n/a	n/a	n/a	n/a	n/a	0	0	0	n/a	n/a	n/a	n/a	n/a
1606.44	n/a	REC_WORD	803220	wordpools/wasnorm_wordpool.txt	LTP148	ltpFR	10	5	0	MUMMY	932	n/a	1	n/a	0	0	0	n/a	n/a	n/a	n/a	n/a
1607.118	n/a	REC_WORD	803559	wordpools/wasnorm_wordpool.txt	LTP148	ltpFR	10	5	0	SPHINX	1349	n/a	1	n/a	0	0	0	n/a	n/a	n/a	n/a	n/a
1608.416	n/a	REC_WORD	804208	wordpools/wasnorm_wordpool.txt	LTP148	ltpFR	10	5	0	CREEK	404	n/a	1	n/a	0	0	0	n/a	n/a	n/a	n/a	n/a
1609.738	n/a	REC_WORD	804869	wordpools/wasnorm_wordpool.txt	LTP148	ltpFR	10	5	0	MEADOW	881	n/a	1	n/a	0	0	0	n/a	n/a	n/a	n/a	n/a
1610.69	n/a	REC_WORD	805345	wordpools/wasnorm_wordpool.txt	LTP148	ltpFR	10	5	0	STREAM	1392	n/a	1	n/a	0	0	0	n/a	n/a	n/a	n/a	n/a
1612.466	n/a	REC_WORD	806233	wordpools/wasnorm_wordpool.txt	LTP148	ltpFR	10	5	0	OTTER	986	n/a	1	n/a	0	0	0	n/a	n/a	n/a	n/a	n/a
1613.782	n/a	REC_WORD	806891	wordpools/wasnorm_wordpool.txt	LTP148	ltpFR	10	5	0	PRAIRIE	1118	n/a	1	n/a	0	0	0	n/a	n/a	n/a	n/a	n/a
1619.68	n/a	REC_WORD	809840	wordpools/wasnorm_wordpool.txt	LTP148	ltpFR	10	5	0	CUCUMBER	421	n/a	0	n/a	0	0	0	n/a	n/a	n/a	n/a	n/a
1620.488	n/a	REC_WORD	810244	wordpools/wasnorm_wordpool.txt	LTP148	ltpFR	10	5	0	HAMBURGER	679	n/a	0	n/a	0	0	0	n/a	n/a	n/a	n/a	n/a
1622.054	n/a	REC_WORD	811027	wordpools/wasnorm_wordpool.txt	LTP148	ltpFR	10	5	0	RIBBON	1189	n/a	0	n/a	0	0	0	n/a	n/a	n/a	n/a	n/a
1622.628	n/a	REC_WORD	811314	wordpools/wasnorm_wordpool.txt	LTP148	ltpFR	10	5	0	SILK	1307	n/a	0	n/a	0	0	0	n/a	n/a	n/a	n/a	n/a
1623.49	n/a	REC_WORD	811745	wordpools/wasnorm_wordpool.txt	LTP148	ltpFR	10	5	0	BUCKLE	185	n/a	0	n/a	0	0	0	n/a	n/a	n/a	n/a	n/a
1624.294	n/a	REC_WORD	812147	wordpools/wasnorm_wordpool.txt	LTP148	ltpFR	10	5	0	BUFFALO	186	n/a	1	n/a	0	0	0	n/a	n/a	n/a	n/a	n/a
1628.04	n/a	REC_WORD	814020	wordpools/wasnorm_wordpool.txt	LTP148	ltpFR	10	5	0	POOL	1103	n/a	1	n/a	0	0	0	n/a	n/a	n/a	n/a	n/a
1684.472	n/a	WORD	842236	wordpools/wasnorm_wordpool.txt	LTP148	ltpFR	10	6	0	DYNAMITE	511	n/a	0	n/a	0	0	0	1	0.412841796875	0.57763671875	upper	../fonts/amplitud.ttf
1688.302	n/a	WORD	844151	wordpools/wasnorm_wordpool.txt	LTP148	ltpFR	10	6	0	BEAN	105	n/a	0	n/a	0	0	0	1	0.412841796875	0.57763671875	upper	../fonts/amplitud.ttf
1692.414	n/a	WORD	846207	wordpools/wasnorm_wordpool.txt	LTP148	ltpFR	10	6	0	OVEN	991	n/a	1	n/a	0	0	0	1	0.412841796875	0.57763671875	upper	../fonts/amplitud.ttf
1696.418	n/a	WORD	848209	wordpools/wasnorm_wordpool.txt	LTP148	ltpFR	10	6	0	BUCKET	184	n/a	1	n/a	0	0	0	1	0.412841796875	0.57763671875	upper	../fonts/amplitud.ttf
1700.372	n/a	WORD	850186	wordpools/wasnorm_wordpool.txt	LTP148	ltpFR	10	6	1	DONKEY	484	n/a	1	n/a	0	0	0	0	0.5869140625	0.422607421875	lower	../fonts/zerothre.ttf
1704.442	n/a	WORD	852221	wordpools/wasnorm_wordpool.txt	LTP148	ltpFR	10	6	1	CARAVAN	242	n/a	0	n/a	0	0	0	0	0.5869140625	0.422607421875	lower	../fonts/zerothre.ttf
1708.628	n/a	WORD	854314	wordpools/wasnorm_wordpool.txt	LTP148	ltpFR	10	6	1	CABBAGE	210	n/a	1	n/a	0	0	0	0	0.5869140625	0.422607421875	lower	../fonts/zerothre.ttf
1712.606	n/a	WORD	856303	wordpools/wasnorm_wordpool.txt	LTP148	ltpFR	10	6	1	TEMPLE	1448	n/a	0	n/a	0	0	0	0	0.5869140625	0.422607421875	lower	../fonts/zerothre.ttf
1716.784	n/a	WORD	858392	wordpools/wasnorm_wordpool.txt	LTP148	ltpFR	10	6	1	JET	756	n/a	0	n/a	0	0	0	0	0.5869140625	0.422607421875	lower	../fonts/zerothre.ttf
1720.714	n/a	WORD	860357	wordpools/wasnorm_wordpool.txt	LTP148	ltpFR	10	6	1	NAVIGATOR	938	n/a	1	n/a	0	0	0	0	0.5869140625	0.422607421875	lower	../fonts/zerothre.ttf
1724.642	n/a	WORD	862321	wordpools/wasnorm_wordpool.txt	LTP148	ltpFR	10	6	0	CAKE	219	n/a	0	n/a	0	0	0	1	0.412841796875	0.57763671875	upper	../fonts/amplitud.ttf
1728.588	n/a	WORD	864294	wordpools/wasnorm_wordpool.txt	LTP148	ltpFR	10	6	0	DOVE	491	n/a	0	n/a	0	0	0	1	0.412841796875	0.57763671875	upper	../fonts/amplitud.ttf
1732.418	n/a	WORD	866209	wordpools/wasnorm_wordpool.txt	LTP148	ltpFR	10	6	1	BLUEJAY	141	n/a	1	n/a	0	0	0	0	0.5869140625	0.422607421875	lower	../fonts/zerothre.ttf
1736.596	n/a	WORD	868298	wordpools/wasnorm_wordpool.txt	LTP148	ltpFR	10	6	1	TICK	1463	n/a	1	n/a	0	0	0	0	0.5869140625	0.422607421875	lower	../fonts/zerothre.ttf
1740.476	n/a	WORD	870238	wordpools/wasnorm_wordpool.txt	LTP148	ltpFR	10	6	0	RASH	1167	n/a	0	n/a	0	0	0	1	0.412841796875	0.57763671875	upper	../fonts/amplitud.ttf
1744.636	n/a	WORD	872318	wordpools/wasnorm_wordpool.txt	LTP148	ltpFR	10	6	0	PREACHER	1119	n/a	1	n/a	0	0	0	1	0.412841796875	0.57763671875	upper	../fonts/amplitud.ttf
1750.372	n/a	REC_START	875186	n/a	LTP148	ltpFR	10	6	n/a	n/a	n/a	n/a	n/a	n/a	0	0	0	n/a	n/a	n/a	n/a	n/a
1752.632	n/a	REC_WORD	876316	wordpools/wasnorm_wordpool.txt	LTP148	ltpFR	10	6	0	PREACHER	1119	n/a	1	n/a	0	0	0	n/a	n/a	n/a	n/a	n/a
1753.92	n/a	REC_WORD	876960	wordpools/wasnorm_wordpool.txt	LTP148	ltpFR	10	6	1	TICK	1463	n/a	1	n/a	0	0	0	n/a	n/a	n/a	n/a	n/a
1759.95	n/a	REC_WORD	879975	wordpools/wasnorm_wordpool.txt	LTP148	ltpFR	10	6	0	BEAN	105	n/a	0	n/a	0	0	0	n/a	n/a	n/a	n/a	n/a
1764.47	n/a	REC_WORD	882235	wordpools/wasnorm_wordpool.txt	LTP148	ltpFR	10	6	0	DYNAMITE	511	n/a	0	n/a	0	0	0	n/a	n/a	n/a	n/a	n/a
1765.438	n/a	REC_WORD	882719	wordpools/wasnorm_wordpool.txt	LTP148	ltpFR	10	6	0	OVEN	991	n/a	1	n/a	0	0	0	n/a	n/a	n/a	n/a	n/a
1766.096	n/a	REC_WORD	883048	wordpools/wasnorm_wordpool.txt	LTP148	ltpFR	10	6	0	BUCKET	184	n/a	1	n/a	0	0	0	n/a	n/a	n/a	n/a	n/a
1769.27	n/a	REC_WORD	884635	wordpools/wasnorm_wordpool.txt	LTP148	ltpFR	10	6	0	DOVE	491	n/a	0	n/a	0	0	0	n/a	n/a	n/a	n/a	n/a
1769.922	n/a	REC_WORD	884961	wordpools/wasnorm_wordpool.txt	LTP148	ltpFR	10	6	0	RASH	1167	n/a	0	n/a	0	0	0	n/a	n/a	n/a	n/a	n/a
1771.156	n/a	REC_WORD	885578	wordpools/wasnorm_wordpool.txt	LTP148	ltpFR	10	6	0	CAKE	219	n/a	0	n/a	0	0	0	n/a	n/a	n/a	n/a	n/a
1772.432	n/a	REC_WORD	886216	wordpools/wasnorm_wordpool.txt	LTP148	ltpFR	10	6	1	BLUEJAY	141	n/a	1	n/a	0	0	0	n/a	n/a	n/a	n/a	n/a
1781.138	n/a	REC_WORD	890569	wordpools/wasnorm_wordpool.txt	LTP148	ltpFR	10	6	0	PREACHER	1119	n/a	1	n/a	0	0	0	n/a	n/a	n/a	n/a	n/a
1793.464	n/a	REC_WORD	896732	wordpools/wasnorm_wordpool.txt	LTP148	ltpFR	10	6	1	CARAVAN	242	n/a	0	n/a	0	0	0	n/a	n/a	n/a	n/a	n/a
1794.746	n/a	REC_WORD	897373	wordpools/wasnorm_wordpool.txt	LTP148	ltpFR	10	6	1	DONKEY	484	n/a	1	n/a	0	0	0	n/a	n/a	n/a	n/a	n/a
1801.062	n/a	REC_WORD	900531	wordpools/wasnorm_wordpool.txt	LTP148	ltpFR	10	6	1	CABBAGE	210	n/a	1	n/a	0	0	0	n/a	n/a	n/a	n/a	n/a
1839.146	n/a	WORD	919573	wordpools/wasnorm_wordpool.txt	LTP148	ltpFR	10	7	1	WHALE	1601	n/a	1	n/a	0	0	0	0	0.5869140625	0.422607421875	lower	../fonts/zerothre.ttf
1843.34	n/a	WORD	921670	wordpools/wasnorm_wordpool.txt	LTP148	ltpFR	10	7	1	SALESMAN	1225	n/a	1	n/a	0	0	0	0	0.5869140625	0.422607421875	lower	../fonts/zerothre.ttf
1847.402	n/a	WORD	923701	wordpools/wasnorm_wordpool.txt	LTP148	ltpFR	10	7	0	SHORE	1291	n/a	1	n/a	0	0	0	1	0.412841796875	0.57763671875	upper	../fonts/amplitud.ttf
1851.556	n/a	WORD	925778	wordpools/wasnorm_wordpool.txt	LTP148	ltpFR	10	7	0	GROCERIES	663	n/a	1	n/a	0	0	0	1	0.412841796875	0.57763671875	upper	../fonts/amplitud.ttf
1855.592	n/a	WORD	927796	wordpools/wasnorm_wordpool.txt	LTP148	ltpFR	10	7	0	COOK	372	n/a	1	n/a	0	0	0	1	0.412841796875	0.57763671875	upper	../fonts/amplitud.ttf
1859.48	n/a	WORD	929740	wordpools/wasnorm_wordpool.txt	LTP148	ltpFR	10	7	0	FLY	586	n/a	0	n/a	0	0	0	1	0.412841796875	0.57763671875	upper	../fonts/amplitud.ttf
1863.524	n/a	WORD	931762	wordpools/wasnorm_wordpool.txt	LTP148	ltpFR	10	7	0	BRICK	172	n/a	0	n/a	0	0	0	1	0.412841796875	0.57763671875	upper	../fonts/amplitud.ttf
1867.586	n/a	WORD	933793	wordpools/wasnorm_wordpool.txt	LTP148	ltpFR	10	7	0	APARTMENT	30	n/a	1	n/a	0	0	0	1	0.412841796875	0.57763671875	upper	../fonts/amplitud.ttf
1871.624	n/a	WORD	935812	wordpools/wasnorm_wordpool.txt	LTP148	ltpFR	10	7	1	PARSLEY	1016	n/a	1	n/a	0	0	0	0	0.5869140625	0.422607421875	lower	../fonts/zerothre.ttf
1875.594	n/a	WORD	937797	wordpools/wasnorm_wordpool.txt	LTP148	ltpFR	10	7	1	PUBLISHER	1137	n/a	1	n/a	0	0	0	0	0.5869140625	0.422607421875	lower	../fonts/zerothre.ttf
1879.516	n/a	WORD	939758	wordpools/wasnorm_wordpool.txt	LTP148	ltpFR	10	7	1	DAM	436	n/a	1	n/a	0	0	0	0	0.5869140625	0.422607421875	lower	../fonts/zerothre.ttf
1883.518	n/a	WORD	941759	wordpools/wasnorm_wordpool.txt	LTP148	ltpFR	10	7	1	MOSQUITO	917	n/a	1	n/a	0	0	0	0	0.5869140625	0.422607421875	lower	../fonts/zerothre.ttf
1887.596	n/a	WORD	943798	wordpools/wasnorm_wordpool.txt	LTP148	ltpFR	10	7	1	GLASSES	640	n/a	0	n/a	0	0	0	0	0.5869140625	0.422607421875	lower	../fonts/zerothre.ttf
1891.684	n/a	WORD	945842	wordpools/wasnorm_wordpool.txt	LTP148	ltpFR	10	7	1	WRITER	1627	n/a	1	n/a	0	0	0	0	0.5869140625	0.422607421875	lower	../fonts/zerothre.ttf
1895.588	n/a	WORD	947794	wordpools/wasnorm_wordpool.txt	LTP148	ltpFR	10	7	0	PEDAL	1037	n/a	0	n/a	0	0	0	1	0.412841796875	0.57763671875	upper	../fonts/amplitud.ttf
1899.784	n/a	WORD	949892	wordpools/wasnorm_wordpool.txt	LTP148	ltpFR	10	7	0	STEM	1376	n/a	0	n/a	0	0	0	1	0.412841796875	0.57763671875	upper	../fonts/amplitud.ttf
1902.788	n/a	START	951394	n/a	LTP148	ltpFR	10	n/a	n/a	n/a	n/a	n/a	n/a	n/a	n/a	n/a	n/a	n/a	n/a	n/a	n/a	n/a
1903.988	n/a	PROB	951994	n/a	LTP148	ltpFR	10	n/a	n/a	n/a	n/a	n/a	n/a	16	9	4	3	n/a	n/a	n/a	n/a	n/a
1906.036	n/a	PROB	953018	n/a	LTP148	ltpFR	10	n/a	n/a	n/a	n/a	n/a	n/a	17	2	6	9	n/a	n/a	n/a	n/a	n/a
1907.624	n/a	PROB	953812	n/a	LTP148	ltpFR	10	n/a	n/a	n/a	n/a	n/a	n/a	12	5	4	3	n/a	n/a	n/a	n/a	n/a
1909.332	n/a	PROB	954666	n/a	LTP148	ltpFR	10	n/a	n/a	n/a	n/a	n/a	n/a	8	3	4	1	n/a	n/a	n/a	n/a	n/a
1910.788	n/a	PROB	955394	n/a	LTP148	ltpFR	10	n/a	n/a	n/a	n/a	n/a	n/a	17	6	9	2	n/a	n/a	n/a	n/a	n/a
1912.694	n/a	PROB	956347	n/a	LTP148	ltpFR	10	n/a	n/a	n/a	n/a	n/a	n/a	19	6	5	8	n/a	n/a	n/a	n/a	n/a
1914.476	n/a	PROB	957238	n/a	LTP148	ltpFR	10	n/a	n/a	n/a	n/a	n/a	n/a	17	9	1	7	n/a	n/a	n/a	n/a	n/a
1918.788	n/a	STOP	959394	n/a	LTP148	ltpFR	10	n/a	n/a	n/a	n/a	n/a	n/a	n/a	n/a	n/a	n/a	n/a	n/a	n/a	n/a	n/a
1920.576	n/a	REC_START	960288	n/a	LTP148	ltpFR	10	7	n/a	n/a	n/a	n/a	n/a	n/a	0	0	0	n/a	n/a	n/a	n/a	n/a
1923.06	n/a	REC_WORD	961530	wordpools/wasnorm_wordpool.txt	LTP148	ltpFR	10	7	1	DAM	436	n/a	1	n/a	0	0	0	n/a	n/a	n/a	n/a	n/a
1927.44	n/a	REC_WORD	963720	wordpools/wasnorm_wordpool.txt	LTP148	ltpFR	10	7	1	PARSLEY	1016	n/a	1	n/a	0	0	0	n/a	n/a	n/a	n/a	n/a
1930.628	n/a	REC_WORD	965314	wordpools/wasnorm_wordpool.txt	LTP148	ltpFR	10	7	1	PUBLISHER	1137	n/a	1	n/a	0	0	0	n/a	n/a	n/a	n/a	n/a
1933.008	n/a	REC_WORD	966504	wordpools/wasnorm_wordpool.txt	LTP148	ltpFR	10	7	1	WRITER	1627	n/a	1	n/a	0	0	0	n/a	n/a	n/a	n/a	n/a
1933.93	n/a	REC_WORD	966965	wordpools/wasnorm_wordpool.txt	LTP148	ltpFR	10	7	1	GLASSES	640	n/a	0	n/a	0	0	0	n/a	n/a	n/a	n/a	n/a
1936.61	n/a	REC_WORD	968305	wordpools/wasnorm_wordpool.txt	LTP148	ltpFR	10	7	0	FLY	586	n/a	0	n/a	0	0	0	n/a	n/a	n/a	n/a	n/a
1939.698	n/a	REC_WORD	969849	wordpools/wasnorm_wordpool.txt	LTP148	ltpFR	10	7	0	BRICK	172	n/a	0	n/a	0	0	0	n/a	n/a	n/a	n/a	n/a
1956.41	n/a	REC_WORD	978205	wordpools/wasnorm_wordpool.txt	LTP148	ltpFR	10	7	0	APARTMENT	30	n/a	1	n/a	0	0	0	n/a	n/a	n/a	n/a	n/a
1968.926	n/a	REC_WORD	984463	wordpools/wasnorm_wordpool.txt	LTP148	ltpFR	10	7	1	TICK	1463	n/a	1	n/a	0	0	0	n/a	n/a	n/a	n/a	n/a
1986.776	n/a	REC_WORD	993388	wordpools/wasnorm_wordpool.txt	LTP148	ltpFR	10	7	0	RAM	1165	n/a	1	n/a	0	0	0	n/a	n/a	n/a	n/a	n/a
2002.942	n/a	START	1001471	n/a	LTP148	ltpFR	10	n/a	n/a	n/a	n/a	n/a	n/a	n/a	n/a	n/a	n/a	n/a	n/a	n/a	n/a	n/a
2004.448	n/a	PROB	1002224	n/a	LTP148	ltpFR	10	n/a	n/a	n/a	n/a	n/a	n/a	18	8	8	2	n/a	n/a	n/a	n/a	n/a
2006.644	n/a	PROB	1003322	n/a	LTP148	ltpFR	10	n/a	n/a	n/a	n/a	n/a	n/a	21	6	6	9	n/a	n/a	n/a	n/a	n/a
2010.232	n/a	PROB	1005116	n/a	LTP148	ltpFR	10	n/a	n/a	n/a	n/a	n/a	n/a	13	8	4	1	n/a	n/a	n/a	n/a	n/a
2012.306	n/a	PROB	1006153	n/a	LTP148	ltpFR	10	n/a	n/a	n/a	n/a	n/a	n/a	23	7	9	7	n/a	n/a	n/a	n/a	n/a
2016.084	n/a	PROB	1008042	n/a	LTP148	ltpFR	10	n/a	n/a	n/a	n/a	n/a	n/a	18	7	6	5	n/a	n/a	n/a	n/a	n/a
2018.204	n/a	STOP	1009102	n/a	LTP148	ltpFR	10	n/a	n/a	n/a	n/a	n/a	n/a	n/a	n/a	n/a	n/a	n/a	n/a	n/a	n/a	n/a
2020.08	n/a	WORD	1010040	wordpools/wasnorm_wordpool.txt	LTP148	ltpFR	10	8	1	ROPE	1211	n/a	0	n/a	0	0	0	0	0.5869140625	0.422607421875	lower	../fonts/zerothre.ttf
2023.084	n/a	START	1011542	n/a	LTP148	ltpFR	10	n/a	n/a	n/a	n/a	n/a	n/a	n/a	n/a	n/a	n/a	n/a	n/a	n/a	n/a	n/a
2023.908	n/a	PROB	1011954	n/a	LTP148	ltpFR	10	n/a	n/a	n/a	n/a	n/a	n/a	16	8	4	4	n/a	n/a	n/a	n/a	n/a
2026.348	n/a	PROB	1013174	n/a	LTP148	ltpFR	10	n/a	n/a	n/a	n/a	n/a	n/a	11	5	4	2	n/a	n/a	n/a	n/a	n/a
2030.992	n/a	PROB	1015496	n/a	LTP148	ltpFR	10	n/a	n/a	n/a	n/a	n/a	n/a	14	4	8	6	n/a	n/a	n/a	n/a	n/a
2035.338	n/a	PROB	1017669	n/a	LTP148	ltpFR	10	n/a	n/a	n/a	n/a	n/a	n/a	14	2	9	3	n/a	n/a	n/a	n/a	n/a
2038.092	n/a	STOP	1019046	n/a	LTP148	ltpFR	10	n/a	n/a	n/a	n/a	n/a	n/a	n/a	n/a	n/a	n/a	n/a	n/a	n/a	n/a	n/a
2039.898	n/a	WORD	1019949	wordpools/wasnorm_wordpool.txt	LTP148	ltpFR	10	8	1	BELT	120	n/a	0	n/a	0	0	0	0	0.5869140625	0.422607421875	lower	../fonts/zerothre.ttf
2042.904	n/a	START	1021452	n/a	LTP148	ltpFR	10	n/a	n/a	n/a	n/a	n/a	n/a	n/a	n/a	n/a	n/a	n/a	n/a	n/a	n/a	n/a
2044.018	n/a	PROB	1022009	n/a	LTP148	ltpFR	10	n/a	n/a	n/a	n/a	n/a	n/a	11	1	9	1	n/a	n/a	n/a	n/a	n/a
2045.15	n/a	PROB	1022575	n/a	LTP148	ltpFR	10	n/a	n/a	n/a	n/a	n/a	n/a	16	4	6	6	n/a	n/a	n/a	n/a	n/a
2046.466	n/a	PROB	1023233	n/a	LTP148	ltpFR	10	n/a	n/a	n/a	n/a	n/a	n/a	12	3	7	2	n/a	n/a	n/a	n/a	n/a
2048.114	n/a	PROB	1024057	n/a	LTP148	ltpFR	10	n/a	n/a	n/a	n/a	n/a	n/a	22	9	5	8	n/a	n/a	n/a	n/a	n/a
2050.244	n/a	PROB	1025122	n/a	LTP148	ltpFR	10	n/a	n/a	n/a	n/a	n/a	n/a	18	8	3	7	n/a	n/a	n/a	n/a	n/a
2053.084	n/a	PROB	1026542	n/a	LTP148	ltpFR	10	n/a	n/a	n/a	n/a	n/a	n/a	13	6	6	1	n/a	n/a	n/a	n/a	n/a
2054.414	n/a	PROB	1027207	n/a	LTP148	ltpFR	10	n/a	n/a	n/a	n/a	n/a	n/a	16	8	5	3	n/a	n/a	n/a	n/a	n/a
2058.904	n/a	STOP	1029452	n/a	LTP148	ltpFR	10	n/a	n/a	n/a	n/a	n/a	n/a	n/a	n/a	n/a	n/a	n/a	n/a	n/a	n/a	n/a
2059.724	n/a	WORD	1029862	wordpools/wasnorm_wordpool.txt	LTP148	ltpFR	10	8	1	OFFICE	972	n/a	0	n/a	0	0	0	0	0.5869140625	0.422607421875	lower	../fonts/zerothre.ttf
2062.73	n/a	START	1031365	n/a	LTP148	ltpFR	10	n/a	n/a	n/a	n/a	n/a	n/a	n/a	n/a	n/a	n/a	n/a	n/a	n/a	n/a	n/a
2063.538	n/a	PROB	1031769	n/a	LTP148	ltpFR	10	n/a	n/a	n/a	n/a	n/a	n/a	13	4	2	7	n/a	n/a	n/a	n/a	n/a
2065.744	n/a	PROB	1032872	n/a	LTP148	ltpFR	10	n/a	n/a	n/a	n/a	n/a	n/a	20	6	9	5	n/a	n/a	n/a	n/a	n/a
2068.958	n/a	PROB	1034479	n/a	LTP148	ltpFR	10	n/a	n/a	n/a	n/a	n/a	n/a	14	1	9	4	n/a	n/a	n/a	n/a	n/a
2070.712	n/a	PROB	1035356	n/a	LTP148	ltpFR	10	n/a	n/a	n/a	n/a	n/a	n/a	17	3	9	5	n/a	n/a	n/a	n/a	n/a
2073.144	n/a	PROB	1036572	n/a	LTP148	ltpFR	10	n/a	n/a	n/a	n/a	n/a	n/a	15	9	4	2	n/a	n/a	n/a	n/a	n/a
2077.822	n/a	STOP	1038911	n/a	LTP148	ltpFR	10	n/a	n/a	n/a	n/a	n/a	n/a	n/a	n/a	n/a	n/a	n/a	n/a	n/a	n/a	n/a
2079.802	n/a	WORD	1039901	wordpools/wasnorm_wordpool.txt	LTP148	ltpFR	10	8	1	LIMB	822	n/a	0	n/a	0	0	0	0	0.5869140625	0.422607421875	lower	../fonts/zerothre.ttf
2082.808	n/a	START	1041404	n/a	LTP148	ltpFR	10	n/a	n/a	n/a	n/a	n/a	n/a	n/a	n/a	n/a	n/a	n/a	n/a	n/a	n/a	n/a
2083.94	n/a	PROB	1041970	n/a	LTP148	ltpFR	10	n/a	n/a	n/a	n/a	n/a	n/a	14	4	5	5	n/a	n/a	n/a	n/a	n/a
2085.804	n/a	PROB	1042902	n/a	LTP148	ltpFR	10	n/a	n/a	n/a	n/a	n/a	n/a	22	9	8	5	n/a	n/a	n/a	n/a	n/a
2088.102	n/a	PROB	1044051	n/a	LTP148	ltpFR	10	n/a	n/a	n/a	n/a	n/a	n/a	11	1	1	9	n/a	n/a	n/a	n/a	n/a
2090.698	n/a	PROB	1045349	n/a	LTP148	ltpFR	10	n/a	n/a	n/a	n/a	n/a	n/a	13	6	4	3	n/a	n/a	n/a	n/a	n/a
2092.388	n/a	PROB	1046194	n/a	LTP148	ltpFR	10	n/a	n/a	n/a	n/a	n/a	n/a	17	7	9	1	n/a	n/a	n/a	n/a	n/a
2094.244	n/a	PROB	1047122	n/a	LTP148	ltpFR	10	n/a	n/a	n/a	n/a	n/a	n/a	20	6	7	7	n/a	n/a	n/a	n/a	n/a
2096.142	n/a	PROB	1048071	n/a	LTP148	ltpFR	10	n/a	n/a	n/a	n/a	n/a	n/a	15	5	9	1	n/a	n/a	n/a	n/a	n/a
2097.684	n/a	STOP	1048842	n/a	LTP148	ltpFR	10	n/a	n/a	n/a	n/a	n/a	n/a	n/a	n/a	n/a	n/a	n/a	n/a	n/a	n/a	n/a
2099.972	n/a	WORD	1049986	wordpools/wasnorm_wordpool.txt	LTP148	ltpFR	10	8	1	CRICKET	408	n/a	1	n/a	0	0	0	0	0.5869140625	0.422607421875	lower	../fonts/zerothre.ttf
2102.976	n/a	START	1051488	n/a	LTP148	ltpFR	10	n/a	n/a	n/a	n/a	n/a	n/a	n/a	n/a	n/a	n/a	n/a	n/a	n/a	n/a	n/a
2103.884	n/a	PROB	1051942	n/a	LTP148	ltpFR	10	n/a	n/a	n/a	n/a	n/a	n/a	13	2	2	9	n/a	n/a	n/a	n/a	n/a
2105.756	n/a	PROB	1052878	n/a	LTP148	ltpFR	10	n/a	n/a	n/a	n/a	n/a	n/a	11	2	1	8	n/a	n/a	n/a	n/a	n/a
2107.214	n/a	PROB	1053607	n/a	LTP148	ltpFR	10	n/a	n/a	n/a	n/a	n/a	n/a	10	6	3	1	n/a	n/a	n/a	n/a	n/a
2108.578	n/a	PROB	1054289	n/a	LTP148	ltpFR	10	n/a	n/a	n/a	n/a	n/a	n/a	14	4	2	8	n/a	n/a	n/a	n/a	n/a
2110.268	n/a	PROB	1055134	n/a	LTP148	ltpFR	10	n/a	n/a	n/a	n/a	n/a	n/a	8	1	3	4	n/a	n/a	n/a	n/a	n/a
2111.94	n/a	PROB	1055970	n/a	LTP148	ltpFR	10	n/a	n/a	n/a	n/a	n/a	n/a	13	5	4	4	n/a	n/a	n/a	n/a	n/a
2116.394	n/a	PROB	1058197	n/a	LTP148	ltpFR	10	n/a	n/a	n/a	n/a	n/a	n/a	9	1	7	1	n/a	n/a	n/a	n/a	n/a
2118.47	n/a	STOP	1059235	n/a	LTP148	ltpFR	10	n/a	n/a	n/a	n/a	n/a	n/a	n/a	n/a	n/a	n/a	n/a	n/a	n/a	n/a	n/a
2119.94	n/a	WORD	1059970	wordpools/wasnorm_wordpool.txt	LTP148	ltpFR	10	8	1	SWATTER	1418	n/a	0	n/a	0	0	0	0	0.5869140625	0.422607421875	lower	../fonts/zerothre.ttf
2122.946	n/a	START	1061473	n/a	LTP148	ltpFR	10	n/a	n/a	n/a	n/a	n/a	n/a	n/a	n/a	n/a	n/a	n/a	n/a	n/a	n/a	n/a
2124.044	n/a	PROB	1062022	n/a	LTP148	ltpFR	10	n/a	n/a	n/a	n/a	n/a	n/a	21	9	9	3	n/a	n/a	n/a	n/a	n/a
2125.766	n/a	PROB	1062883	n/a	LTP148	ltpFR	10	n/a	n/a	n/a	n/a	n/a	n/a	16	2	5	9	n/a	n/a	n/a	n/a	n/a
2127.814	n/a	PROB	1063907	n/a	LTP148	ltpFR	10	n/a	n/a	n/a	n/a	n/a	n/a	19	8	9	2	n/a	n/a	n/a	n/a	n/a
2130.07	n/a	PROB	1065035	n/a	LTP148	ltpFR	10	n/a	n/a	n/a	n/a	n/a	n/a	18	5	5	8	n/a	n/a	n/a	n/a	n/a
2131.376	n/a	PROB	1065688	n/a	LTP148	ltpFR	10	n/a	n/a	n/a	n/a	n/a	n/a	20	9	3	7	n/a	n/a	n/a	n/a	n/a
2134.032	n/a	PROB	1067016	n/a	LTP148	ltpFR	10	n/a	n/a	n/a	n/a	n/a	n/a	18	5	8	5	n/a	n/a	n/a	n/a	n/a
2135.988	n/a	PROB	1067994	n/a	LTP148	ltpFR	10	n/a	n/a	n/a	n/a	n/a	n/a	11	4	4	3	n/a	n/a	n/a	n/a	n/a
2137.838	n/a	STOP	1068919	n/a	LTP148	ltpFR	10	n/a	n/a	n/a	n/a	n/a	n/a	n/a	n/a	n/a	n/a	n/a	n/a	n/a	n/a	n/a
2139.808	n/a	WORD	1069904	wordpools/wasnorm_wordpool.txt	LTP148	ltpFR	10	8	1	MARSH	874	n/a	0	n/a	0	0	0	0	0.5869140625	0.422607421875	lower	../fonts/zerothre.ttf
2142.812	n/a	START	1071406	n/a	LTP148	ltpFR	10	n/a	n/a	n/a	n/a	n/a	n/a	n/a	n/a	n/a	n/a	n/a	n/a	n/a	n/a	n/a
2143.97	n/a	PROB	1071985	n/a	LTP148	ltpFR	10	n/a	n/a	n/a	n/a	n/a	n/a	12	1	3	8	n/a	n/a	n/a	n/a	n/a
2145.694	n/a	PROB	1072847	n/a	LTP148	ltpFR	10	n/a	n/a	n/a	n/a	n/a	n/a	18	8	5	5	n/a	n/a	n/a	n/a	n/a
2147.542	n/a	PROB	1073771	n/a	LTP148	ltpFR	10	n/a	n/a	n/a	n/a	n/a	n/a	18	1	9	8	n/a	n/a	n/a	n/a	n/a
2148.698	n/a	PROB	1074349	n/a	LTP148	ltpFR	10	n/a	n/a	n/a	n/a	n/a	n/a	8	3	2	3	n/a	n/a	n/a	n/a	n/a
2150.448	n/a	PROB	1075224	n/a	LTP148	ltpFR	10	n/a	n/a	n/a	n/a	n/a	n/a	23	7	7	9	n/a	n/a	n/a	n/a	n/a
2153.278	n/a	PROB	1076639	n/a	LTP148	ltpFR	10	n/a	n/a	n/a	n/a	n/a	n/a	9	3	2	4	n/a	n/a	n/a	n/a	n/a
2155.374	n/a	PROB	1077687	n/a	LTP148	ltpFR	10	n/a	n/a	n/a	n/a	n/a	n/a	8	4	1	3	n/a	n/a	n/a	n/a	n/a
2157.438	n/a	STOP	1078719	n/a	LTP148	ltpFR	10	n/a	n/a	n/a	n/a	n/a	n/a	n/a	n/a	n/a	n/a	n/a	n/a	n/a	n/a	n/a
2159.718	n/a	WORD	1079859	wordpools/wasnorm_wordpool.txt	LTP148	ltpFR	10	8	1	DEODORANT	448	n/a	0	n/a	0	0	0	0	0.5869140625	0.422607421875	lower	../fonts/zerothre.ttf
2162.724	n/a	START	1081362	n/a	LTP148	ltpFR	10	n/a	n/a	n/a	n/a	n/a	n/a	n/a	n/a	n/a	n/a	n/a	n/a	n/a	n/a	n/a
2163.606	n/a	PROB	1081803	n/a	LTP148	ltpFR	10	n/a	n/a	n/a	n/a	n/a	n/a	12	2	5	7	n/a	n/a	n/a	n/a	n/a
2165.148	n/a	PROB	1082574	n/a	LTP148	ltpFR	10	n/a	n/a	n/a	n/a	n/a	n/a	14	1	9	4	n/a	n/a	n/a	n/a	n/a
2166.97	n/a	PROB	1083485	n/a	LTP148	ltpFR	10	n/a	n/a	n/a	n/a	n/a	n/a	7	1	4	2	n/a	n/a	n/a	n/a	n/a
2170.042	n/a	PROB	1085021	n/a	LTP148	ltpFR	10	n/a	n/a	n/a	n/a	n/a	n/a	8	2	1	5	n/a	n/a	n/a	n/a	n/a
2171.49	n/a	PROB	1085745	n/a	LTP148	ltpFR	10	n/a	n/a	n/a	n/a	n/a	n/a	12	6	5	1	n/a	n/a	n/a	n/a	n/a
2173.262	n/a	PROB	1086631	n/a	LTP148	ltpFR	10	n/a	n/a	n/a	n/a	n/a	n/a	18	2	7	9	n/a	n/a	n/a	n/a	n/a
2175.618	n/a	PROB	1087809	n/a	LTP148	ltpFR	10	n/a	n/a	n/a	n/a	n/a	n/a	8	2	5	1	n/a	n/a	n/a	n/a	n/a
2178.582	n/a	STOP	1089291	n/a	LTP148	ltpFR	10	n/a	n/a	n/a	n/a	n/a	n/a	n/a	n/a	n/a	n/a	n/a	n/a	n/a	n/a	n/a
2179.73	n/a	WORD	1089865	wordpools/wasnorm_wordpool.txt	LTP148	ltpFR	10	8	1	MAN	862	n/a	1	n/a	0	0	0	0	0.5869140625	0.422607421875	lower	../fonts/zerothre.ttf
2182.734	n/a	START	1091367	n/a	LTP148	ltpFR	10	n/a	n/a	n/a	n/a	n/a	n/a	n/a	n/a	n/a	n/a	n/a	n/a	n/a	n/a	n/a
2183.85	n/a	PROB	1091925	n/a	LTP148	ltpFR	10	n/a	n/a	n/a	n/a	n/a	n/a	13	4	4	5	n/a	n/a	n/a	n/a	n/a
2189.66	n/a	PROB	1094830	n/a	LTP148	ltpFR	10	n/a	n/a	n/a	n/a	n/a	n/a	20	5	7	8	n/a	n/a	n/a	n/a	n/a
2192.848	n/a	PROB	1096424	n/a	LTP148	ltpFR	10	n/a	n/a	n/a	n/a	n/a	n/a	25	9	8	8	n/a	n/a	n/a	n/a	n/a
2195.944	n/a	PROB	1097972	n/a	LTP148	ltpFR	10	n/a	n/a	n/a	n/a	n/a	n/a	10	7	2	1	n/a	n/a	n/a	n/a	n/a
2197.366	n/a	STOP	1098683	n/a	LTP148	ltpFR	10	n/a	n/a	n/a	n/a	n/a	n/a	n/a	n/a	n/a	n/a	n/a	n/a	n/a	n/a	n/a
2199.856	n/a	WORD	1099928	wordpools/wasnorm_wordpool.txt	LTP148	ltpFR	10	8	1	FAUCET	555	n/a	0	n/a	0	0	0	0	0.5869140625	0.422607421875	lower	../fonts/zerothre.ttf
2202.862	n/a	START	1101431	n/a	LTP148	ltpFR	10	n/a	n/a	n/a	n/a	n/a	n/a	n/a	n/a	n/a	n/a	n/a	n/a	n/a	n/a	n/a
2204.026	n/a	PROB	1102013	n/a	LTP148	ltpFR	10	n/a	n/a	n/a	n/a	n/a	n/a	9	1	3	5	n/a	n/a	n/a	n/a	n/a
2206.564	n/a	PROB	1103282	n/a	LTP148	ltpFR	10	n/a	n/a	n/a	n/a	n/a	n/a	21	9	6	7	n/a	n/a	n/a	n/a	n/a
2209.004	n/a	PROB	1104502	n/a	LTP148	ltpFR	10	n/a	n/a	n/a	n/a	n/a	n/a	14	4	6	4	n/a	n/a	n/a	n/a	n/a
2212.084	n/a	PROB	1106042	n/a	LTP148	ltpFR	10	n/a	n/a	n/a	n/a	n/a	n/a	12	6	4	2	n/a	n/a	n/a	n/a	n/a
2213.64	n/a	PROB	1106820	n/a	LTP148	ltpFR	10	n/a	n/a	n/a	n/a	n/a	n/a	13	9	3	1	n/a	n/a	n/a	n/a	n/a
2215.48	n/a	PROB	1107740	n/a	LTP148	ltpFR	10	n/a	n/a	n/a	n/a	n/a	n/a	7	2	1	4	n/a	n/a	n/a	n/a	n/a
2216.838	n/a	PROB	1108419	n/a	LTP148	ltpFR	10	n/a	n/a	n/a	n/a	n/a	n/a	12	5	4	3	n/a	n/a	n/a	n/a	n/a
2218.718	n/a	STOP	1109359	n/a	LTP148	ltpFR	10	n/a	n/a	n/a	n/a	n/a	n/a	n/a	n/a	n/a	n/a	n/a	n/a	n/a	n/a	n/a
2219.866	n/a	WORD	1109933	wordpools/wasnorm_wordpool.txt	LTP148	ltpFR	10	8	1	SOCIETY	1338	n/a	0	n/a	0	0	0	0	0.5869140625	0.422607421875	lower	../fonts/zerothre.ttf
2222.872	n/a	START	1111436	n/a	LTP148	ltpFR	10	n/a	n/a	n/a	n/a	n/a	n/a	n/a	n/a	n/a	n/a	n/a	n/a	n/a	n/a	n/a
2223.786	n/a	PROB	1111893	n/a	LTP148	ltpFR	10	n/a	n/a	n/a	n/a	n/a	n/a	1	2	8	7	n/a	n/a	n/a	n/a	n/a
2225.352	n/a	PROB	1112676	n/a	LTP148	ltpFR	10	n/a	n/a	n/a	n/a	n/a	n/a	11	1	6	4	n/a	n/a	n/a	n/a	n/a
2227.468	n/a	PROB	1113734	n/a	LTP148	ltpFR	10	n/a	n/a	n/a	n/a	n/a	n/a	16	6	7	3	n/a	n/a	n/a	n/a	n/a
2229.798	n/a	PROB	1114899	n/a	LTP148	ltpFR	10	n/a	n/a	n/a	n/a	n/a	n/a	7	3	2	2	n/a	n/a	n/a	n/a	n/a
2231.694	n/a	PROB	1115847	n/a	LTP148	ltpFR	10	n/a	n/a	n/a	n/a	n/a	n/a	20	8	3	9	n/a	n/a	n/a	n/a	n/a
2234.31	n/a	PROB	1117155	n/a	LTP148	ltpFR	10	n/a	n/a	n/a	n/a	n/a	n/a	13	1	4	8	n/a	n/a	n/a	n/a	n/a
2236.066	n/a	PROB	1118033	n/a	LTP148	ltpFR	10	n/a	n/a	n/a	n/a	n/a	n/a	12	9	1	2	n/a	n/a	n/a	n/a	n/a
2237.694	n/a	STOP	1118847	n/a	LTP148	ltpFR	10	n/a	n/a	n/a	n/a	n/a	n/a	n/a	n/a	n/a	n/a	n/a	n/a	n/a	n/a	n/a
2240.044	n/a	WORD	1120022	wordpools/wasnorm_wordpool.txt	LTP148	ltpFR	10	8	1	DENTIST	447	n/a	1	n/a	0	0	0	0	0.5869140625	0.422607421875	lower	../fonts/zerothre.ttf
2243.05	n/a	START	1121525	n/a	LTP148	ltpFR	10	n/a	n/a	n/a	n/a	n/a	n/a	n/a	n/a	n/a	n/a	n/a	n/a	n/a	n/a	n/a
2244.082	n/a	PROB	1122041	n/a	LTP148	ltpFR	10	n/a	n/a	n/a	n/a	n/a	n/a	14	1	4	9	n/a	n/a	n/a	n/a	n/a
2247.644	n/a	PROB	1123822	n/a	LTP148	ltpFR	10	n/a	n/a	n/a	n/a	n/a	n/a	11	3	6	2	n/a	n/a	n/a	n/a	n/a
2250.756	n/a	PROB	1125378	n/a	LTP148	ltpFR	10	n/a	n/a	n/a	n/a	n/a	n/a	17	9	1	7	n/a	n/a	n/a	n/a	n/a
2252.006	n/a	PROB	1126003	n/a	LTP148	ltpFR	10	n/a	n/a	n/a	n/a	n/a	n/a	9	2	5	2	n/a	n/a	n/a	n/a	n/a
2253.52	n/a	PROB	1126760	n/a	LTP148	ltpFR	10	n/a	n/a	n/a	n/a	n/a	n/a	9	1	7	1	n/a	n/a	n/a	n/a	n/a
2255.018	n/a	PROB	1127509	n/a	LTP148	ltpFR	10	n/a	n/a	n/a	n/a	n/a	n/a	10	2	6	2	n/a	n/a	n/a	n/a	n/a
2257.092	n/a	PROB	1128546	n/a	LTP148	ltpFR	10	n/a	n/a	n/a	n/a	n/a	n/a	16	9	4	3	n/a	n/a	n/a	n/a	n/a
2258.742	n/a	STOP	1129371	n/a	LTP148	ltpFR	10	n/a	n/a	n/a	n/a	n/a	n/a	n/a	n/a	n/a	n/a	n/a	n/a	n/a	n/a	n/a
2260.03	n/a	WORD	1130015	wordpools/wasnorm_wordpool.txt	LTP148	ltpFR	10	8	1	LEG	809	n/a	0	n/a	0	0	0	0	0.5869140625	0.422607421875	lower	../fonts/zerothre.ttf
2263.036	n/a	START	1131518	n/a	LTP148	ltpFR	10	n/a	n/a	n/a	n/a	n/a	n/a	n/a	n/a	n/a	n/a	n/a	n/a	n/a	n/a	n/a
2264.058	n/a	PROB	1132029	n/a	LTP148	ltpFR	10	n/a	n/a	n/a	n/a	n/a	n/a	16	8	5	3	n/a	n/a	n/a	n/a	n/a
2266.348	n/a	PROB	1133174	n/a	LTP148	ltpFR	10	n/a	n/a	n/a	n/a	n/a	n/a	18	2	7	9	n/a	n/a	n/a	n/a	n/a
2268.71	n/a	PROB	1134355	n/a	LTP148	ltpFR	10	n/a	n/a	n/a	n/a	n/a	n/a	18	5	9	4	n/a	n/a	n/a	n/a	n/a
2271.324	n/a	PROB	1135662	n/a	LTP148	ltpFR	10	n/a	n/a	n/a	n/a	n/a	n/a	19	5	6	8	n/a	n/a	n/a	n/a	n/a
2273.39	n/a	PROB	1136695	n/a	LTP148	ltpFR	10	n/a	n/a	n/a	n/a	n/a	n/a	17	6	9	3	n/a	n/a	n/a	n/a	n/a
2275.512	n/a	PROB	1137756	n/a	LTP148	ltpFR	10	n/a	n/a	n/a	n/a	n/a	n/a	13	1	8	4	n/a	n/a	n/a	n/a	n/a
2277.598	n/a	STOP	1138799	n/a	LTP148	ltpFR	10	n/a	n/a	n/a	n/a	n/a	n/a	n/a	n/a	n/a	n/a	n/a	n/a	n/a	n/a	n/a
2280.032	n/a	WORD	1140016	wordpools/wasnorm_wordpool.txt	LTP148	ltpFR	10	8	1	PLANT	1083	n/a	1	n/a	0	0	0	0	0.5869140625	0.422607421875	lower	../fonts/zerothre.ttf
2283.036	n/a	START	1141518	n/a	LTP148	ltpFR	10	n/a	n/a	n/a	n/a	n/a	n/a	n/a	n/a	n/a	n/a	n/a	n/a	n/a	n/a	n/a
2284.052	n/a	PROB	1142026	n/a	LTP148	ltpFR	10	n/a	n/a	n/a	n/a	n/a	n/a	21	5	8	8	n/a	n/a	n/a	n/a	n/a
2288.896	n/a	PROB	1144448	n/a	LTP148	ltpFR	10	n/a	n/a	n/a	n/a	n/a	n/a	14	3	4	7	n/a	n/a	n/a	n/a	n/a
2290.236	n/a	PROB	1145118	n/a	LTP148	ltpFR	10	n/a	n/a	n/a	n/a	n/a	n/a	21	6	9	6	n/a	n/a	n/a	n/a	n/a
2293.184	n/a	PROB	1146592	n/a	LTP148	ltpFR	10	n/a	n/a	n/a	n/a	n/a	n/a	19	8	9	2	n/a	n/a	n/a	n/a	n/a
2295.106	n/a	PROB	1147553	n/a	LTP148	ltpFR	10	n/a	n/a	n/a	n/a	n/a	n/a	13	4	8	1	n/a	n/a	n/a	n/a	n/a
2299.036	n/a	STOP	1149518	n/a	LTP148	ltpFR	10	n/a	n/a	n/a	n/a	n/a	n/a	n/a	n/a	n/a	n/a	n/a	n/a	n/a	n/a	n/a
2299.958	n/a	WORD	1149979	wordpools/wasnorm_wordpool.txt	LTP148	ltpFR	10	8	1	WINDSHIELD	1612	n/a	0	n/a	0	0	0	0	0.5869140625	0.422607421875	lower	../fonts/zerothre.ttf
2302.964	n/a	START	1151482	n/a	LTP148	ltpFR	10	n/a	n/a	n/a	n/a	n/a	n/a	n/a	n/a	n/a	n/a	n/a	n/a	n/a	n/a	n/a
2303.778	n/a	PROB	1151889	n/a	LTP148	ltpFR	10	n/a	n/a	n/a	n/a	n/a	n/a	11	5	5	3	n/a	n/a	n/a	n/a	n/a
2309.006	n/a	PROB	1154503	n/a	LTP148	ltpFR	10	n/a	n/a	n/a	n/a	n/a	n/a	14	8	1	5	n/a	n/a	n/a	n/a	n/a
2311.046	n/a	PROB	1155523	n/a	LTP148	ltpFR	10	n/a	n/a	n/a	n/a	n/a	n/a	16	8	3	5	n/a	n/a	n/a	n/a	n/a
2313.584	n/a	PROB	1156792	n/a	LTP148	ltpFR	10	n/a	n/a	n/a	n/a	n/a	n/a	18	7	8	3	n/a	n/a	n/a	n/a	n/a
2316.04	n/a	PROB	1158020	n/a	LTP148	ltpFR	10	n/a	n/a	n/a	n/a	n/a	n/a	13	8	1	4	n/a	n/a	n/a	n/a	n/a
2317.672	n/a	STOP	1158836	n/a	LTP148	ltpFR	10	n/a	n/a	n/a	n/a	n/a	n/a	n/a	n/a	n/a	n/a	n/a	n/a	n/a	n/a	n/a
2320.002	n/a	WORD	1160001	wordpools/wasnorm_wordpool.txt	LTP148	ltpFR	10	8	1	TRUCK	1512	n/a	0	n/a	0	0	0	0	0.5869140625	0.422607421875	lower	../fonts/zerothre.ttf
2323.008	n/a	START	1161504	n/a	LTP148	ltpFR	10	n/a	n/a	n/a	n/a	n/a	n/a	n/a	n/a	n/a	n/a	n/a	n/a	n/a	n/a	n/a
2324.04	n/a	PROB	1162020	n/a	LTP148	ltpFR	10	n/a	n/a	n/a	n/a	n/a	n/a	20	3	8	9	n/a	n/a	n/a	n/a	n/a
2326.71	n/a	PROB	1163355	n/a	LTP148	ltpFR	10	n/a	n/a	n/a	n/a	n/a	n/a	10	4	5	1	n/a	n/a	n/a	n/a	n/a
2328.344	n/a	PROB	1164172	n/a	LTP148	ltpFR	10	n/a	n/a	n/a	n/a	n/a	n/a	11	1	3	7	n/a	n/a	n/a	n/a	n/a
2329.866	n/a	PROB	1164933	n/a	LTP148	ltpFR	10	n/a	n/a	n/a	n/a	n/a	n/a	14	8	1	5	n/a	n/a	n/a	n/a	n/a
2331.788	n/a	PROB	1165894	n/a	LTP148	ltpFR	10	n/a	n/a	n/a	n/a	n/a	n/a	19	7	4	8	n/a	n/a	n/a	n/a	n/a
2335.344	n/a	PROB	1167672	n/a	LTP148	ltpFR	10	n/a	n/a	n/a	n/a	n/a	n/a	15	6	1	8	n/a	n/a	n/a	n/a	n/a
2339.008	n/a	STOP	1169504	n/a	LTP148	ltpFR	10	n/a	n/a	n/a	n/a	n/a	n/a	n/a	n/a	n/a	n/a	n/a	n/a	n/a	n/a	n/a
2340.794	n/a	REC_START	1170397	n/a	LTP148	ltpFR	10	8	n/a	n/a	n/a	n/a	n/a	n/a	0	0	0	n/a	n/a	n/a	n/a	n/a
2344.066	n/a	REC_WORD	1172033	wordpools/wasnorm_wordpool.txt	LTP148	ltpFR	10	8	1	TRUCK	1512	n/a	0	n/a	0	0	0	n/a	n/a	n/a	n/a	n/a
2349.05	n/a	REC_WORD	1174525	wordpools/wasnorm_wordpool.txt	LTP148	ltpFR	10	8	1	MAN	862	n/a	1	n/a	0	0	0	n/a	n/a	n/a	n/a	n/a
2359.038	n/a	REC_WORD	1179519	wordpools/wasnorm_wordpool.txt	LTP148	ltpFR	10	8	1	SOCIETY	1338	n/a	0	n/a	0	0	0	n/a	n/a	n/a	n/a	n/a
2368.586	n/a	REC_WORD	1184293	wordpools/wasnorm_wordpool.txt	LTP148	ltpFR	10	8	1	SWATTER	1418	n/a	0	n/a	0	0	0	n/a	n/a	n/a	n/a	n/a
2379.082	n/a	REC_WORD	1189541	wordpools/wasnorm_wordpool.txt	LTP148	ltpFR	10	8	1	PLANT	1083	n/a	1	n/a	0	0	0	n/a	n/a	n/a	n/a	n/a
2439.482	n/a	WORD	1219741	wordpools/wasnorm_wordpool.txt	LTP148	ltpFR	10	9	0	BOOK	149	n/a	0	n/a	0	0	0	1	0.412841796875	0.57763671875	upper	../fonts/amplitud.ttf
2443.576	n/a	WORD	1221788	wordpools/wasnorm_wordpool.txt	LTP148	ltpFR	10	9	0	ALMANAC	17	n/a	0	n/a	0	0	0	1	0.412841796875	0.57763671875	upper	../fonts/amplitud.ttf
2447.754	n/a	WORD	1223877	wordpools/wasnorm_wordpool.txt	LTP148	ltpFR	10	9	0	ATTIC	56	n/a	1	n/a	0	0	0	1	0.412841796875	0.57763671875	upper	../fonts/amplitud.ttf
2451.718	n/a	WORD	1225859	wordpools/wasnorm_wordpool.txt	LTP148	ltpFR	10	9	0	SUPPER	1411	n/a	1	n/a	0	0	0	1	0.412841796875	0.57763671875	upper	../fonts/amplitud.ttf
2455.58	n/a	WORD	1227790	wordpools/wasnorm_wordpool.txt	LTP148	ltpFR	10	9	0	SACK	1220	n/a	1	n/a	0	0	0	1	0.412841796875	0.57763671875	upper	../fonts/amplitud.ttf
2459.566	n/a	WORD	1229783	wordpools/wasnorm_wordpool.txt	LTP148	ltpFR	10	9	0	INCENSE	735	n/a	0	n/a	0	0	0	1	0.412841796875	0.57763671875	upper	../fonts/amplitud.ttf
2463.496	n/a	WORD	1231748	wordpools/wasnorm_wordpool.txt	LTP148	ltpFR	10	9	0	TIMBER	1469	n/a	1	n/a	0	0	0	1	0.412841796875	0.57763671875	upper	../fonts/amplitud.ttf
2467.408	n/a	WORD	1233704	wordpools/wasnorm_wordpool.txt	LTP148	ltpFR	10	9	0	SATURN	1236	n/a	1	n/a	0	0	0	1	0.412841796875	0.57763671875	upper	../fonts/amplitud.ttf
2471.328	n/a	WORD	1235664	wordpools/wasnorm_wordpool.txt	LTP148	ltpFR	10	9	0	TAPE	1433	n/a	0	n/a	0	0	0	1	0.412841796875	0.57763671875	upper	../fonts/amplitud.ttf
2475.384	n/a	WORD	1237692	wordpools/wasnorm_wordpool.txt	LTP148	ltpFR	10	9	0	OREGANO	983	n/a	0	n/a	0	0	0	1	0.412841796875	0.57763671875	upper	../fonts/amplitud.ttf
2479.462	n/a	WORD	1239731	wordpools/wasnorm_wordpool.txt	LTP148	ltpFR	10	9	0	SOLDIER	1344	n/a	1	n/a	0	0	0	1	0.412841796875	0.57763671875	upper	../fonts/amplitud.ttf
2483.466	n/a	WORD	1241733	wordpools/wasnorm_wordpool.txt	LTP148	ltpFR	10	9	0	ROOM	1206	n/a	1	n/a	0	0	0	1	0.412841796875	0.57763671875	upper	../fonts/amplitud.ttf
2487.66	n/a	WORD	1243830	wordpools/wasnorm_wordpool.txt	LTP148	ltpFR	10	9	0	ROOT	1210	n/a	1	n/a	0	0	0	1	0.412841796875	0.57763671875	upper	../fonts/amplitud.ttf
2491.498	n/a	WORD	1245749	wordpools/wasnorm_wordpool.txt	LTP148	ltpFR	10	9	0	BUTCHER	203	n/a	1	n/a	0	0	0	1	0.412841796875	0.57763671875	upper	../fonts/amplitud.ttf
2495.708	n/a	WORD	1247854	wordpools/wasnorm_wordpool.txt	LTP148	ltpFR	10	9	0	BLADE	134	n/a	0	n/a	0	0	0	1	0.412841796875	0.57763671875	upper	../fonts/amplitud.ttf
2499.612	n/a	WORD	1249806	wordpools/wasnorm_wordpool.txt	LTP148	ltpFR	10	9	0	CAB	209	n/a	1	n/a	0	0	0	1	0.412841796875	0.57763671875	upper	../fonts/amplitud.ttf
2502.618	n/a	START	1251309	n/a	LTP148	ltpFR	10	n/a	n/a	n/a	n/a	n/a	n/a	n/a	n/a	n/a	n/a	n/a	n/a	n/a	n/a	n/a
2503.808	n/a	PROB	1251904	n/a	LTP148	ltpFR	10	n/a	n/a	n/a	n/a	n/a	n/a	15	6	1	8	n/a	n/a	n/a	n/a	n/a
2507.28	n/a	PROB	1253640	n/a	LTP148	ltpFR	10	n/a	n/a	n/a	n/a	n/a	n/a	18	6	3	9	n/a	n/a	n/a	n/a	n/a
2509.934	n/a	PROB	1254967	n/a	LTP148	ltpFR	10	n/a	n/a	n/a	n/a	n/a	n/a	15	9	4	2	n/a	n/a	n/a	n/a	n/a
2512.158	n/a	PROB	1256079	n/a	LTP148	ltpFR	10	n/a	n/a	n/a	n/a	n/a	n/a	24	8	9	7	n/a	n/a	n/a	n/a	n/a
2515.536	n/a	PROB	1257768	n/a	LTP148	ltpFR	10	n/a	n/a	n/a	n/a	n/a	n/a	15	7	2	6	n/a	n/a	n/a	n/a	n/a
2517.394	n/a	STOP	1258697	n/a	LTP148	ltpFR	10	n/a	n/a	n/a	n/a	n/a	n/a	n/a	n/a	n/a	n/a	n/a	n/a	n/a	n/a	n/a
2520.538	n/a	REC_START	1260269	n/a	LTP148	ltpFR	10	9	n/a	n/a	n/a	n/a	n/a	n/a	0	0	0	n/a	n/a	n/a	n/a	n/a
2527.976	n/a	REC_WORD	1263988	wordpools/wasnorm_wordpool.txt	LTP148	ltpFR	10	9	0	BOOK	149	n/a	0	n/a	0	0	0	n/a	n/a	n/a	n/a	n/a
2528.576	n/a	REC_WORD	1264288	wordpools/wasnorm_wordpool.txt	LTP148	ltpFR	10	9	0	ALMANAC	17	n/a	0	n/a	0	0	0	n/a	n/a	n/a	n/a	n/a
2529.322	n/a	REC_WORD	1264661	wordpools/wasnorm_wordpool.txt	LTP148	ltpFR	10	9	0	ROOM	1206	n/a	1	n/a	0	0	0	n/a	n/a	n/a	n/a	n/a
2530.212	n/a	REC_WORD	1265106	wordpools/wasnorm_wordpool.txt	LTP148	ltpFR	10	9	0	SOLDIER	1344	n/a	1	n/a	0	0	0	n/a	n/a	n/a	n/a	n/a
2535.35	n/a	REC_WORD	1267675	wordpools/wasnorm_wordpool.txt	LTP148	ltpFR	10	9	0	TAPE	1433	n/a	0	n/a	0	0	0	n/a	n/a	n/a	n/a	n/a
2536.102	n/a	REC_WORD	1268051	wordpools/wasnorm_wordpool.txt	LTP148	ltpFR	10	9	0	INCENSE	735	n/a	0	n/a	0	0	0	n/a	n/a	n/a	n/a	n/a
2546.858	n/a	REC_WORD	1273429	wordpools/wasnorm_wordpool.txt	LTP148	ltpFR	10	9	0	BUTCHER	203	n/a	1	n/a	0	0	0	n/a	n/a	n/a	n/a	n/a
2547.652	n/a	REC_WORD	1273826	wordpools/wasnorm_wordpool.txt	LTP148	ltpFR	10	9	0	BLADE	134	n/a	0	n/a	0	0	0	n/a	n/a	n/a	n/a	n/a
2600.622	n/a	WORD	1300311	wordpools/wasnorm_wordpool.txt	LTP148	ltpFR	10	10	1	HAND	683	n/a	0	n/a	0	0	0	0	0.5869140625	0.422607421875	lower	../fonts/zerothre.ttf
2604.676	n/a	WORD	1302338	wordpools/wasnorm_wordpool.txt	LTP148	ltpFR	10	10	1	TOENAIL	1474	n/a	0	n/a	0	0	0	0	0.5869140625	0.422607421875	lower	../fonts/zerothre.ttf
2608.804	n/a	WORD	1304402	wordpools/wasnorm_wordpool.txt	LTP148	ltpFR	10	10	1	WORKER	1621	n/a	1	n/a	0	0	0	0	0.5869140625	0.422607421875	lower	../fonts/zerothre.ttf
2612.9	n/a	WORD	1306450	wordpools/wasnorm_wordpool.txt	LTP148	ltpFR	10	10	0	SUSPECT	1415	n/a	1	n/a	0	0	0	1	0.412841796875	0.57763671875	upper	../fonts/amplitud.ttf
2616.92	n/a	WORD	1308460	wordpools/wasnorm_wordpool.txt	LTP148	ltpFR	10	10	0	COOKIE	374	n/a	0	n/a	0	0	0	1	0.412841796875	0.57763671875	upper	../fonts/amplitud.ttf
2621.032	n/a	WORD	1310516	wordpools/wasnorm_wordpool.txt	LTP148	ltpFR	10	10	0	BRACELET	163	n/a	0	n/a	0	0	0	1	0.412841796875	0.57763671875	upper	../fonts/amplitud.ttf
2625.036	n/a	WORD	1312518	wordpools/wasnorm_wordpool.txt	LTP148	ltpFR	10	10	0	CONCERT	360	n/a	1	n/a	0	0	0	1	0.412841796875	0.57763671875	upper	../fonts/amplitud.ttf
2629.206	n/a	WORD	1314603	wordpools/wasnorm_wordpool.txt	LTP148	ltpFR	10	10	1	FLUTE	585	n/a	0	n/a	0	0	0	0	0.5869140625	0.422607421875	lower	../fonts/zerothre.ttf
2633.118	n/a	WORD	1316559	wordpools/wasnorm_wordpool.txt	LTP148	ltpFR	10	10	1	THIEF	1456	n/a	1	n/a	0	0	0	0	0.5869140625	0.422607421875	lower	../fonts/zerothre.ttf
2636.948	n/a	WORD	1318474	wordpools/wasnorm_wordpool.txt	LTP148	ltpFR	10	10	1	GANGSTER	620	n/a	1	n/a	0	0	0	0	0.5869140625	0.422607421875	lower	../fonts/zerothre.ttf
2640.792	n/a	WORD	1320396	wordpools/wasnorm_wordpool.txt	LTP148	ltpFR	10	10	0	POWDER	1117	n/a	0	n/a	0	0	0	1	0.412841796875	0.57763671875	upper	../fonts/amplitud.ttf
2644.98	n/a	WORD	1322490	wordpools/wasnorm_wordpool.txt	LTP148	ltpFR	10	10	0	DRESSER	496	n/a	1	n/a	0	0	0	1	0.412841796875	0.57763671875	upper	../fonts/amplitud.ttf
2649.018	n/a	WORD	1324509	wordpools/wasnorm_wordpool.txt	LTP148	ltpFR	10	10	0	SISTER	1312	n/a	1	n/a	0	0	0	1	0.412841796875	0.57763671875	upper	../fonts/amplitud.ttf
2653.196	n/a	WORD	1326598	wordpools/wasnorm_wordpool.txt	LTP148	ltpFR	10	10	0	EMPLOYER	532	n/a	1	n/a	0	0	0	1	0.412841796875	0.57763671875	upper	../fonts/amplitud.ttf
2657.382	n/a	WORD	1328691	wordpools/wasnorm_wordpool.txt	LTP148	ltpFR	10	10	1	BEVERAGE	123	n/a	0	n/a	0	0	0	0	0.5869140625	0.422607421875	lower	../fonts/zerothre.ttf
2661.37	n/a	WORD	1330685	wordpools/wasnorm_wordpool.txt	LTP148	ltpFR	10	10	1	MILK	895	n/a	0	n/a	0	0	0	0	0.5869140625	0.422607421875	lower	../fonts/zerothre.ttf
2664.374	n/a	START	1332187	n/a	LTP148	ltpFR	10	n/a	n/a	n/a	n/a	n/a	n/a	n/a	n/a	n/a	n/a	n/a	n/a	n/a	n/a	n/a
2665.398	n/a	PROB	1332699	n/a	LTP148	ltpFR	10	n/a	n/a	n/a	n/a	n/a	n/a	22	8	5	9	n/a	n/a	n/a	n/a	n/a
2668.87	n/a	PROB	1334435	n/a	LTP148	ltpFR	10	n/a	n/a	n/a	n/a	n/a	n/a	22	9	4	9	n/a	n/a	n/a	n/a	n/a
2671.26	n/a	STOP	1335630	n/a	LTP148	ltpFR	10	n/a	n/a	n/a	n/a	n/a	n/a	n/a	n/a	n/a	n/a	n/a	n/a	n/a	n/a	n/a
2674.18	n/a	REC_START	1337090	n/a	LTP148	ltpFR	10	10	n/a	n/a	n/a	n/a	n/a	n/a	0	0	0	n/a	n/a	n/a	n/a	n/a
2675.696	n/a	REC_WORD	1337848	wordpools/wasnorm_wordpool.txt	LTP148	ltpFR	10	10	1	MILK	895	n/a	0	n/a	0	0	0	n/a	n/a	n/a	n/a	n/a
2676.968	n/a	REC_WORD	1338484	wordpools/wasnorm_wordpool.txt	LTP148	ltpFR	10	10	1	BEVERAGE	123	n/a	0	n/a	0	0	0	n/a	n/a	n/a	n/a	n/a
2679.178	n/a	REC_WORD	1339589	wordpools/wasnorm_wordpool.txt	LTP148	ltpFR	10	10	0	COOKIE	374	n/a	0	n/a	0	0	0	n/a	n/a	n/a	n/a	n/a
2679.878	n/a	REC_WORD	1339939	wordpools/wasnorm_wordpool.txt	LTP148	ltpFR	10	10	0	POWDER	1117	n/a	0	n/a	0	0	0	n/a	n/a	n/a	n/a	n/a
2680.566	n/a	REC_WORD	1340283	wordpools/wasnorm_wordpool.txt	LTP148	ltpFR	10	10	0	BRACELET	163	n/a	0	n/a	0	0	0	n/a	n/a	n/a	n/a	n/a
2703.718	n/a	REC_WORD	1351859	wordpools/wasnorm_wordpool.txt	LTP148	ltpFR	10	10	1	THIEF	1456	n/a	1	n/a	0	0	0	n/a	n/a	n/a	n/a	n/a
2704.208	n/a	REC_WORD	1352104	wordpools/wasnorm_wordpool.txt	LTP148	ltpFR	10	10	1	GANGSTER	620	n/a	1	n/a	0	0	0	n/a	n/a	n/a	n/a	n/a
2704.84	n/a	REC_WORD	1352420	wordpools/wasnorm_wordpool.txt	LTP148	ltpFR	10	10	0	SUSPECT	1415	n/a	1	n/a	0	0	0	n/a	n/a	n/a	n/a	n/a
2710.212	n/a	REC_WORD	1355106	wordpools/wasnorm_wordpool.txt	LTP148	ltpFR	10	10	1	FLUTE	585	n/a	0	n/a	0	0	0	n/a	n/a	n/a	n/a	n/a
2711.082	n/a	REC_WORD	1355541	wordpools/wasnorm_wordpool.txt	LTP148	ltpFR	10	10	0	CONCERT	360	n/a	1	n/a	0	0	0	n/a	n/a	n/a	n/a	n/a
2749.768	n/a	REST_REWET	1374884	n/a	LTP148	ltpFR	10	10	n/a	n/a	n/a	n/a	n/a	n/a	0	0	0	n/a	n/a	n/a	n/a	n/a
3294.486	n/a	START	1647243	n/a	LTP148	ltpFR	10	n/a	n/a	n/a	n/a	n/a	n/a	n/a	n/a	n/a	n/a	n/a	n/a	n/a	n/a	n/a
3295.992	n/a	PROB	1647996	n/a	LTP148	ltpFR	10	n/a	n/a	n/a	n/a	n/a	n/a	10	1	3	6	n/a	n/a	n/a	n/a	n/a
3297.706	n/a	PROB	1648853	n/a	LTP148	ltpFR	10	n/a	n/a	n/a	n/a	n/a	n/a	16	1	7	8	n/a	n/a	n/a	n/a	n/a
3301.42	n/a	STOP	1650710	n/a	LTP148	ltpFR	10	n/a	n/a	n/a	n/a	n/a	n/a	n/a	n/a	n/a	n/a	n/a	n/a	n/a	n/a	n/a
3303.608	n/a	WORD	1651804	wordpools/wasnorm_wordpool.txt	LTP148	ltpFR	10	11	0	SUBMARINE	1398	n/a	1	n/a	0	0	0	1	0.412841796875	0.57763671875	upper	../fonts/amplitud.ttf
3306.614	n/a	START	1653307	n/a	LTP148	ltpFR	10	n/a	n/a	n/a	n/a	n/a	n/a	n/a	n/a	n/a	n/a	n/a	n/a	n/a	n/a	n/a
3307.544	n/a	PROB	1653772	n/a	LTP148	ltpFR	10	n/a	n/a	n/a	n/a	n/a	n/a	14	6	6	2	n/a	n/a	n/a	n/a	n/a
3309.876	n/a	PROB	1654938	n/a	LTP148	ltpFR	10	n/a	n/a	n/a	n/a	n/a	n/a	17	6	7	4	n/a	n/a	n/a	n/a	n/a
3311.548	n/a	PROB	1655774	n/a	LTP148	ltpFR	10	n/a	n/a	n/a	n/a	n/a	n/a	18	2	9	7	n/a	n/a	n/a	n/a	n/a
3313.812	n/a	STOP	1656906	n/a	LTP148	ltpFR	10	n/a	n/a	n/a	n/a	n/a	n/a	n/a	n/a	n/a	n/a	n/a	n/a	n/a	n/a	n/a
3315.76	n/a	WORD	1657880	wordpools/wasnorm_wordpool.txt	LTP148	ltpFR	10	11	0	BLACKBERRY	132	n/a	0	n/a	0	0	0	1	0.412841796875	0.57763671875	upper	../fonts/amplitud.ttf
3318.766	n/a	START	1659383	n/a	LTP148	ltpFR	10	n/a	n/a	n/a	n/a	n/a	n/a	n/a	n/a	n/a	n/a	n/a	n/a	n/a	n/a	n/a
3319.83	n/a	PROB	1659915	n/a	LTP148	ltpFR	10	n/a	n/a	n/a	n/a	n/a	n/a	15	7	7	1	n/a	n/a	n/a	n/a	n/a
3321.28	n/a	PROB	1660640	n/a	LTP148	ltpFR	10	n/a	n/a	n/a	n/a	n/a	n/a	10	1	6	3	n/a	n/a	n/a	n/a	n/a
3322.544	n/a	PROB	1661272	n/a	LTP148	ltpFR	10	n/a	n/a	n/a	n/a	n/a	n/a	13	4	2	7	n/a	n/a	n/a	n/a	n/a
3325.996	n/a	STOP	1662998	n/a	LTP148	ltpFR	10	n/a	n/a	n/a	n/a	n/a	n/a	n/a	n/a	n/a	n/a	n/a	n/a	n/a	n/a	n/a
3327.614	n/a	WORD	1663807	wordpools/wasnorm_wordpool.txt	LTP148	ltpFR	10	11	0	CLERK	321	n/a	1	n/a	0	0	0	1	0.412841796875	0.57763671875	upper	../fonts/amplitud.ttf
3330.618	n/a	START	1665309	n/a	LTP148	ltpFR	10	n/a	n/a	n/a	n/a	n/a	n/a	n/a	n/a	n/a	n/a	n/a	n/a	n/a	n/a	n/a
3331.494	n/a	PROB	1665747	n/a	LTP148	ltpFR	10	n/a	n/a	n/a	n/a	n/a	n/a	15	4	4	7	n/a	n/a	n/a	n/a	n/a
3335.314	n/a	PROB	1667657	n/a	LTP148	ltpFR	10	n/a	n/a	n/a	n/a	n/a	n/a	18	2	7	9	n/a	n/a	n/a	n/a	n/a
3337.316	n/a	STOP	1668658	n/a	LTP148	ltpFR	10	n/a	n/a	n/a	n/a	n/a	n/a	n/a	n/a	n/a	n/a	n/a	n/a	n/a	n/a	n/a
3339.64	n/a	WORD	1669820	wordpools/wasnorm_wordpool.txt	LTP148	ltpFR	10	11	0	EMPLOYEE	531	n/a	1	n/a	0	0	0	1	0.412841796875	0.57763671875	upper	../fonts/amplitud.ttf
3342.646	n/a	START	1671323	n/a	LTP148	ltpFR	10	n/a	n/a	n/a	n/a	n/a	n/a	n/a	n/a	n/a	n/a	n/a	n/a	n/a	n/a	n/a
3343.654	n/a	PROB	1671827	n/a	LTP148	ltpFR	10	n/a	n/a	n/a	n/a	n/a	n/a	11	3	2	6	n/a	n/a	n/a	n/a	n/a
3345.228	n/a	PROB	1672614	n/a	LTP148	ltpFR	10	n/a	n/a	n/a	n/a	n/a	n/a	23	9	7	7	n/a	n/a	n/a	n/a	n/a
3349.236	n/a	STOP	1674618	n/a	LTP148	ltpFR	10	n/a	n/a	n/a	n/a	n/a	n/a	n/a	n/a	n/a	n/a	n/a	n/a	n/a	n/a	n/a
3351.544	n/a	WORD	1675772	wordpools/wasnorm_wordpool.txt	LTP148	ltpFR	10	11	0	LINT	826	n/a	0	n/a	0	0	0	1	0.412841796875	0.57763671875	upper	../fonts/amplitud.ttf
3354.55	n/a	START	1677275	n/a	LTP148	ltpFR	10	n/a	n/a	n/a	n/a	n/a	n/a	n/a	n/a	n/a	n/a	n/a	n/a	n/a	n/a	n/a
3355.598	n/a	PROB	1677799	n/a	LTP148	ltpFR	10	n/a	n/a	n/a	n/a	n/a	n/a	14	3	9	2	n/a	n/a	n/a	n/a	n/a
3358.836	n/a	PROB	1679418	n/a	LTP148	ltpFR	10	n/a	n/a	n/a	n/a	n/a	n/a	16	6	7	3	n/a	n/a	n/a	n/a	n/a
3362.55	n/a	STOP	1681275	n/a	LTP148	ltpFR	10	n/a	n/a	n/a	n/a	n/a	n/a	n/a	n/a	n/a	n/a	n/a	n/a	n/a	n/a	n/a
3363.448	n/a	WORD	1681724	wordpools/wasnorm_wordpool.txt	LTP148	ltpFR	10	11	0	AUTHOR	61	n/a	1	n/a	0	0	0	1	0.412841796875	0.57763671875	upper	../fonts/amplitud.ttf
3366.454	n/a	START	1683227	n/a	LTP148	ltpFR	10	n/a	n/a	n/a	n/a	n/a	n/a	n/a	n/a	n/a	n/a	n/a	n/a	n/a	n/a	n/a
3367.502	n/a	PROB	1683751	n/a	LTP148	ltpFR	10	n/a	n/a	n/a	n/a	n/a	n/a	11	8	1	2	n/a	n/a	n/a	n/a	n/a
3369.124	n/a	PROB	1684562	n/a	LTP148	ltpFR	10	n/a	n/a	n/a	n/a	n/a	n/a	20	6	9	5	n/a	n/a	n/a	n/a	n/a
3371.514	n/a	PROB	1685757	n/a	LTP148	ltpFR	10	n/a	n/a	n/a	n/a	n/a	n/a	13	6	1	6	n/a	n/a	n/a	n/a	n/a
3373.012	n/a	STOP	1686506	n/a	LTP148	ltpFR	10	n/a	n/a	n/a	n/a	n/a	n/a	n/a	n/a	n/a	n/a	n/a	n/a	n/a	n/a	n/a
3375.582	n/a	WORD	1687791	wordpools/wasnorm_wordpool.txt	LTP148	ltpFR	10	11	0	NOVEL	960	n/a	1	n/a	0	0	0	1	0.412841796875	0.57763671875	upper	../fonts/amplitud.ttf
3378.588	n/a	START	1689294	n/a	LTP148	ltpFR	10	n/a	n/a	n/a	n/a	n/a	n/a	n/a	n/a	n/a	n/a	n/a	n/a	n/a	n/a	n/a
3379.77	n/a	PROB	1689885	n/a	LTP148	ltpFR	10	n/a	n/a	n/a	n/a	n/a	n/a	13	5	5	3	n/a	n/a	n/a	n/a	n/a
3381.11	n/a	PROB	1690555	n/a	LTP148	ltpFR	10	n/a	n/a	n/a	n/a	n/a	n/a	16	6	1	9	n/a	n/a	n/a	n/a	n/a
3383.3	n/a	PROB	1691650	n/a	LTP148	ltpFR	10	n/a	n/a	n/a	n/a	n/a	n/a	16	7	7	2	n/a	n/a	n/a	n/a	n/a
3384.964	n/a	PROB	1692482	n/a	LTP148	ltpFR	10	n/a	n/a	n/a	n/a	n/a	n/a	13	1	9	3	n/a	n/a	n/a	n/a	n/a
3386.31	n/a	STOP	1693155	n/a	LTP148	ltpFR	10	n/a	n/a	n/a	n/a	n/a	n/a	n/a	n/a	n/a	n/a	n/a	n/a	n/a	n/a	n/a
3387.752	n/a	WORD	1693876	wordpools/wasnorm_wordpool.txt	LTP148	ltpFR	10	11	0	CREATURE	403	n/a	1	n/a	0	0	0	1	0.412841796875	0.57763671875	upper	../fonts/amplitud.ttf
3390.758	n/a	START	1695379	n/a	LTP148	ltpFR	10	n/a	n/a	n/a	n/a	n/a	n/a	n/a	n/a	n/a	n/a	n/a	n/a	n/a	n/a	n/a
3391.908	n/a	PROB	1695954	n/a	LTP148	ltpFR	10	n/a	n/a	n/a	n/a	n/a	n/a	16	7	6	3	n/a	n/a	n/a	n/a	n/a
3394.072	n/a	PROB	1697036	n/a	LTP148	ltpFR	10	n/a	n/a	n/a	n/a	n/a	n/a	23	6	8	9	n/a	n/a	n/a	n/a	n/a
3396.17	n/a	PROB	1698085	n/a	LTP148	ltpFR	10	n/a	n/a	n/a	n/a	n/a	n/a	22	7	6	9	n/a	n/a	n/a	n/a	n/a
3398.54	n/a	STOP	1699270	n/a	LTP148	ltpFR	10	n/a	n/a	n/a	n/a	n/a	n/a	n/a	n/a	n/a	n/a	n/a	n/a	n/a	n/a	n/a
3399.848	n/a	WORD	1699924	wordpools/wasnorm_wordpool.txt	LTP148	ltpFR	10	11	0	DIVER	476	n/a	1	n/a	0	0	0	1	0.412841796875	0.57763671875	upper	../fonts/amplitud.ttf
3402.862	n/a	START	1701431	n/a	LTP148	ltpFR	10	n/a	n/a	n/a	n/a	n/a	n/a	n/a	n/a	n/a	n/a	n/a	n/a	n/a	n/a	n/a
3404.002	n/a	PROB	1702001	n/a	LTP148	ltpFR	10	n/a	n/a	n/a	n/a	n/a	n/a	18	6	8	4	n/a	n/a	n/a	n/a	n/a
3405.408	n/a	PROB	1702704	n/a	LTP148	ltpFR	10	n/a	n/a	n/a	n/a	n/a	n/a	18	9	5	4	n/a	n/a	n/a	n/a	n/a
3410.862	n/a	STOP	1705431	n/a	LTP148	ltpFR	10	n/a	n/a	n/a	n/a	n/a	n/a	n/a	n/a	n/a	n/a	n/a	n/a	n/a	n/a	n/a
3411.96	n/a	WORD	1705980	wordpools/wasnorm_wordpool.txt	LTP148	ltpFR	10	11	0	CARROT	249	n/a	0	n/a	0	0	0	1	0.412841796875	0.57763671875	upper	../fonts/amplitud.ttf
3414.964	n/a	START	1707482	n/a	LTP148	ltpFR	10	n/a	n/a	n/a	n/a	n/a	n/a	n/a	n/a	n/a	n/a	n/a	n/a	n/a	n/a	n/a
3415.904	n/a	PROB	1707952	n/a	LTP148	ltpFR	10	n/a	n/a	n/a	n/a	n/a	n/a	17	9	2	6	n/a	n/a	n/a	n/a	n/a
3419.01	n/a	PROB	1709505	n/a	LTP148	ltpFR	10	n/a	n/a	n/a	n/a	n/a	n/a	15	4	4	7	n/a	n/a	n/a	n/a	n/a
3422.964	n/a	STOP	1711482	n/a	LTP148	ltpFR	10	n/a	n/a	n/a	n/a	n/a	n/a	n/a	n/a	n/a	n/a	n/a	n/a	n/a	n/a	n/a
3424.012	n/a	WORD	1712006	wordpools/wasnorm_wordpool.txt	LTP148	ltpFR	10	11	0	RACK	1154	n/a	1	n/a	0	0	0	1	0.412841796875	0.57763671875	upper	../fonts/amplitud.ttf
3427.018	n/a	START	1713509	n/a	LTP148	ltpFR	10	n/a	n/a	n/a	n/a	n/a	n/a	n/a	n/a	n/a	n/a	n/a	n/a	n/a	n/a	n/a
3428.216	n/a	PROB	1714108	n/a	LTP148	ltpFR	10	n/a	n/a	n/a	n/a	n/a	n/a	19	4	7	5	n/a	n/a	n/a	n/a	n/a
3430.562	n/a	PROB	1715281	n/a	LTP148	ltpFR	10	n/a	n/a	n/a	n/a	n/a	n/a	16	2	7	7	n/a	n/a	n/a	n/a	n/a
3433.118	n/a	PROB	1716559	n/a	LTP148	ltpFR	10	n/a	n/a	n/a	n/a	n/a	n/a	11	8	2	1	n/a	n/a	n/a	n/a	n/a
3434.446	n/a	STOP	1717223	n/a	LTP148	ltpFR	10	n/a	n/a	n/a	n/a	n/a	n/a	n/a	n/a	n/a	n/a	n/a	n/a	n/a	n/a	n/a
3435.998	n/a	WORD	1717999	wordpools/wasnorm_wordpool.txt	LTP148	ltpFR	10	11	0	PAIL	1002	n/a	1	n/a	0	0	0	1	0.412841796875	0.57763671875	upper	../fonts/amplitud.ttf
3439.004	n/a	START	1719502	n/a	LTP148	ltpFR	10	n/a	n/a	n/a	n/a	n/a	n/a	n/a	n/a	n/a	n/a	n/a	n/a	n/a	n/a	n/a
3440.018	n/a	PROB	1720009	n/a	LTP148	ltpFR	10	n/a	n/a	n/a	n/a	n/a	n/a	11	8	1	2	n/a	n/a	n/a	n/a	n/a
3441.25	n/a	PROB	1720625	n/a	LTP148	ltpFR	10	n/a	n/a	n/a	n/a	n/a	n/a	13	8	4	1	n/a	n/a	n/a	n/a	n/a
3443.714	n/a	PROB	1721857	n/a	LTP148	ltpFR	10	n/a	n/a	n/a	n/a	n/a	n/a	10	7	2	1	n/a	n/a	n/a	n/a	n/a
3446.974	n/a	STOP	1723487	n/a	LTP148	ltpFR	10	n/a	n/a	n/a	n/a	n/a	n/a	n/a	n/a	n/a	n/a	n/a	n/a	n/a	n/a	n/a
3448.084	n/a	WORD	1724042	wordpools/wasnorm_wordpool.txt	LTP148	ltpFR	10	11	0	VILLAGE	1566	n/a	1	n/a	0	0	0	1	0.412841796875	0.57763671875	upper	../fonts/amplitud.ttf
3451.09	n/a	START	1725545	n/a	LTP148	ltpFR	10	n/a	n/a	n/a	n/a	n/a	n/a	n/a	n/a	n/a	n/a	n/a	n/a	n/a	n/a	n/a
3452.238	n/a	PROB	1726119	n/a	LTP148	ltpFR	10	n/a	n/a	n/a	n/a	n/a	n/a	15	9	2	4	n/a	n/a	n/a	n/a	n/a
3454.068	n/a	PROB	1727034	n/a	LTP148	ltpFR	10	n/a	n/a	n/a	n/a	n/a	n/a	8	5	1	2	n/a	n/a	n/a	n/a	n/a
3455.958	n/a	PROB	1727979	n/a	LTP148	ltpFR	10	n/a	n/a	n/a	n/a	n/a	n/a	12	7	3	2	n/a	n/a	n/a	n/a	n/a
3457.256	n/a	PROB	1728628	n/a	LTP148	ltpFR	10	n/a	n/a	n/a	n/a	n/a	n/a	4	1	2	1	n/a	n/a	n/a	n/a	n/a
3458.556	n/a	STOP	1729278	n/a	LTP148	ltpFR	10	n/a	n/a	n/a	n/a	n/a	n/a	n/a	n/a	n/a	n/a	n/a	n/a	n/a	n/a	n/a
3460.004	n/a	WORD	1730002	wordpools/wasnorm_wordpool.txt	LTP148	ltpFR	10	11	0	RECEIPT	1173	n/a	0	n/a	0	0	0	1	0.412841796875	0.57763671875	upper	../fonts/amplitud.ttf
3463.008	n/a	START	1731504	n/a	LTP148	ltpFR	10	n/a	n/a	n/a	n/a	n/a	n/a	n/a	n/a	n/a	n/a	n/a	n/a	n/a	n/a	n/a
3463.858	n/a	PROB	1731929	n/a	LTP148	ltpFR	10	n/a	n/a	n/a	n/a	n/a	n/a	14	1	9	4	n/a	n/a	n/a	n/a	n/a
3465.248	n/a	PROB	1732624	n/a	LTP148	ltpFR	10	n/a	n/a	n/a	n/a	n/a	n/a	13	2	3	8	n/a	n/a	n/a	n/a	n/a
3466.786	n/a	PROB	1733393	n/a	LTP148	ltpFR	10	n/a	n/a	n/a	n/a	n/a	n/a	20	8	6	6	n/a	n/a	n/a	n/a	n/a
3468.668	n/a	PROB	1734334	n/a	LTP148	ltpFR	10	n/a	n/a	n/a	n/a	n/a	n/a	18	5	4	9	n/a	n/a	n/a	n/a	n/a
3470.054	n/a	STOP	1735027	n/a	LTP148	ltpFR	10	n/a	n/a	n/a	n/a	n/a	n/a	n/a	n/a	n/a	n/a	n/a	n/a	n/a	n/a	n/a
3471.948	n/a	WORD	1735974	wordpools/wasnorm_wordpool.txt	LTP148	ltpFR	10	11	0	BATTERY	101	n/a	0	n/a	0	0	0	1	0.412841796875	0.57763671875	upper	../fonts/amplitud.ttf
3474.954	n/a	START	1737477	n/a	LTP148	ltpFR	10	n/a	n/a	n/a	n/a	n/a	n/a	n/a	n/a	n/a	n/a	n/a	n/a	n/a	n/a	n/a
3475.986	n/a	PROB	1737993	n/a	LTP148	ltpFR	10	n/a	n/a	n/a	n/a	n/a	n/a	19	1	9	9	n/a	n/a	n/a	n/a	n/a
3477.65	n/a	PROB	1738825	n/a	LTP148	ltpFR	10	n/a	n/a	n/a	n/a	n/a	n/a	17	8	2	7	n/a	n/a	n/a	n/a	n/a
3479.132	n/a	PROB	1739566	n/a	LTP148	ltpFR	10	n/a	n/a	n/a	n/a	n/a	n/a	20	5	7	8	n/a	n/a	n/a	n/a	n/a
3481.138	n/a	PROB	1740569	n/a	LTP148	ltpFR	10	n/a	n/a	n/a	n/a	n/a	n/a	14	7	4	3	n/a	n/a	n/a	n/a	n/a
3482.486	n/a	STOP	1741243	n/a	LTP148	ltpFR	10	n/a	n/a	n/a	n/a	n/a	n/a	n/a	n/a	n/a	n/a	n/a	n/a	n/a	n/a	n/a
3483.936	n/a	WORD	1741968	wordpools/wasnorm_wordpool.txt	LTP148	ltpFR	10	11	0	OLIVE	975	n/a	0	n/a	0	0	0	1	0.412841796875	0.57763671875	upper	../fonts/amplitud.ttf
3486.94	n/a	START	1743470	n/a	LTP148	ltpFR	10	n/a	n/a	n/a	n/a	n/a	n/a	n/a	n/a	n/a	n/a	n/a	n/a	n/a	n/a	n/a
3487.988	n/a	PROB	1743994	n/a	LTP148	ltpFR	10	n/a	n/a	n/a	n/a	n/a	n/a	18	7	9	2	n/a	n/a	n/a	n/a	n/a
3491.126	n/a	PROB	1745563	n/a	LTP148	ltpFR	10	n/a	n/a	n/a	n/a	n/a	n/a	15	4	3	8	n/a	n/a	n/a	n/a	n/a
3494.94	n/a	STOP	1747470	n/a	LTP148	ltpFR	10	n/a	n/a	n/a	n/a	n/a	n/a	n/a	n/a	n/a	n/a	n/a	n/a	n/a	n/a	n/a
3496.694	n/a	REC_START	1748347	n/a	LTP148	ltpFR	10	11	n/a	n/a	n/a	n/a	n/a	n/a	0	0	0	n/a	n/a	n/a	n/a	n/a
3497.642	n/a	REC_WORD	1748821	wordpools/wasnorm_wordpool.txt	LTP148	ltpFR	10	11	0	RECEIPT	1173	n/a	0	n/a	0	0	0	n/a	n/a	n/a	n/a	n/a
3498.456	n/a	REC_WORD	1749228	wordpools/wasnorm_wordpool.txt	LTP148	ltpFR	10	11	0	OLIVE	975	n/a	0	n/a	0	0	0	n/a	n/a	n/a	n/a	n/a
3499.082	n/a	REC_WORD	1749541	wordpools/wasnorm_wordpool.txt	LTP148	ltpFR	10	11	0	BLACKBERRY	132	n/a	0	n/a	0	0	0	n/a	n/a	n/a	n/a	n/a
3501.632	n/a	REC_WORD	1750816	wordpools/wasnorm_wordpool.txt	LTP148	ltpFR	10	11	0	SUBMARINE	1398	n/a	1	n/a	0	0	0	n/a	n/a	n/a	n/a	n/a
3504.576	n/a	REC_WORD	1752288	wordpools/wasnorm_wordpool.txt	LTP148	ltpFR	10	11	0	DIVER	476	n/a	1	n/a	0	0	0	n/a	n/a	n/a	n/a	n/a
3505.714	n/a	REC_WORD	1752857	wordpools/wasnorm_wordpool.txt	LTP148	ltpFR	10	11	0	CREATURE	403	n/a	1	n/a	0	0	0	n/a	n/a	n/a	n/a	n/a
3514.434	n/a	REC_WORD	1757217	wordpools/wasnorm_wordpool.txt	LTP148	ltpFR	10	11	0	NOVEL	960	n/a	1	n/a	0	0	0	n/a	n/a	n/a	n/a	n/a
3515.386	n/a	REC_WORD	1757693	wordpools/wasnorm_wordpool.txt	LTP148	ltpFR	10	11	0	AUTHOR	61	n/a	1	n/a	0	0	0	n/a	n/a	n/a	n/a	n/a
3541.816	n/a	REC_WORD	1770908	wordpools/wasnorm_wordpool.txt	LTP148	ltpFR	10	11	0	PAIL	1002	n/a	1	n/a	0	0	0	n/a	n/a	n/a	n/a	n/a
3583.778	n/a	WORD	1791889	wordpools/wasnorm_wordpool.txt	LTP148	ltpFR	10	12	0	NUT	965	n/a	0	n/a	0	0	0	1	0.412841796875	0.57763671875	upper	../fonts/amplitud.ttf
3587.682	n/a	WORD	1793841	wordpools/wasnorm_wordpool.txt	LTP148	ltpFR	10	12	0	CRACKER	398	n/a	0	n/a	0	0	0	1	0.412841796875	0.57763671875	upper	../fonts/amplitud.ttf
