mstime	trial_type	stim_file	subject	experiment	session	trial	item_name	item_num	list	answer	test_x	test_y	test_z
0	SESS_START	n/a	LTP187	ltpFR2	8	n/a	n/a	n/a	n/a	n/a	0	0	0
118187	START	n/a	LTP187	ltpFR2	8	n/a	n/a	n/a	-1	n/a	n/a	n/a	n/a
118219	PROB	n/a	LTP187	ltpFR2	8	n/a	n/a	n/a	-1	10	1	7	2
120087	PROB	n/a	LTP187	ltpFR2	8	n/a	n/a	n/a	-1	14	8	3	3
121672	PROB	n/a	LTP187	ltpFR2	8	n/a	n/a	n/a	-1	9	1	5	3
123223	PROB	n/a	LTP187	ltpFR2	8	n/a	n/a	n/a	-1	20	9	9	2
125108	PROB	n/a	LTP187	ltpFR2	8	n/a	n/a	n/a	-1	22	6	8	8
126927	PROB	n/a	LTP187	ltpFR2	8	n/a	n/a	n/a	-1	13	8	4	1
128278	PROB	n/a	LTP187	ltpFR2	8	n/a	n/a	n/a	-1	9	4	1	4
129698	STOP	n/a	LTP187	ltpFR2	8	n/a	n/a	n/a	-1	n/a	n/a	n/a	n/a
193918	DISTRACTOR	n/a	LTP187	ltpFR2	8	1	n/a	n/a	n/a	n/a	0	0	0
193918	START	n/a	LTP187	ltpFR2	8	n/a	n/a	n/a	1	n/a	n/a	n/a	n/a
193935	PROB	n/a	LTP187	ltpFR2	8	n/a	n/a	n/a	1	9	4	2	3
196487	PROB	n/a	LTP187	ltpFR2	8	n/a	n/a	n/a	1	5	1	3	1
197588	PROB	n/a	LTP187	ltpFR2	8	n/a	n/a	n/a	1	14	2	8	4
198672	PROB	n/a	LTP187	ltpFR2	8	n/a	n/a	n/a	1	13	5	7	1
202076	PROB	n/a	LTP187	ltpFR2	8	n/a	n/a	n/a	1	13	6	2	5
203428	PROB	n/a	LTP187	ltpFR2	8	n/a	n/a	n/a	1	8	1	4	3
204761	PROB	n/a	LTP187	ltpFR2	8	n/a	n/a	n/a	1	16	4	8	4
206179	PROB	n/a	LTP187	ltpFR2	8	n/a	n/a	n/a	1	17	9	4	4
207830	PROB	n/a	LTP187	ltpFR2	8	n/a	n/a	n/a	1	7	5	1	1
208865	PROB	n/a	LTP187	ltpFR2	8	n/a	n/a	n/a	1	22	5	8	9
212118	PROB	n/a	LTP187	ltpFR2	8	n/a	n/a	n/a	1	13	1	8	4
213619	PROB	n/a	LTP187	ltpFR2	8	n/a	n/a	n/a	1	18	4	6	8
214703	PROB	n/a	LTP187	ltpFR2	8	n/a	n/a	n/a	1	17	9	6	2
216693	STOP	n/a	LTP187	ltpFR2	8	n/a	n/a	n/a	1	n/a	n/a	n/a	n/a
218874	WORD	wordpools/wasnorm_wordpool_576.txt	LTP187	ltpFR2	8	1	PUDDING	1139	n/a	n/a	0	0	0
221576	WORD	wordpools/wasnorm_wordpool_576.txt	LTP187	ltpFR2	8	1	FLESH	579	n/a	n/a	0	0	0
224078	WORD	wordpools/wasnorm_wordpool_576.txt	LTP187	ltpFR2	8	1	TRANSPLANT	1496	n/a	n/a	0	0	0
226597	WORD	wordpools/wasnorm_wordpool_576.txt	LTP187	ltpFR2	8	1	INFANT	737	n/a	n/a	0	0	0
229066	WORD	wordpools/wasnorm_wordpool_576.txt	LTP187	ltpFR2	8	1	BABY	64	n/a	n/a	0	0	0
231801	WORD	wordpools/wasnorm_wordpool_576.txt	LTP187	ltpFR2	8	1	SWITCH	1422	n/a	n/a	0	0	0
234421	WORD	wordpools/wasnorm_wordpool_576.txt	LTP187	ltpFR2	8	1	DANCER	437	n/a	n/a	0	0	0
237089	WORD	wordpools/wasnorm_wordpool_576.txt	LTP187	ltpFR2	8	1	VELVET	1555	n/a	n/a	0	0	0
239742	WORD	wordpools/wasnorm_wordpool_576.txt	LTP187	ltpFR2	8	1	RIFLE	1192	n/a	n/a	0	0	0
242412	WORD	wordpools/wasnorm_wordpool_576.txt	LTP187	ltpFR2	8	1	GANGSTER	620	n/a	n/a	0	0	0
245013	WORD	wordpools/wasnorm_wordpool_576.txt	LTP187	ltpFR2	8	1	ROD	1203	n/a	n/a	0	0	0
247449	WORD	wordpools/wasnorm_wordpool_576.txt	LTP187	ltpFR2	8	1	HIGHWAY	707	n/a	n/a	0	0	0
249884	WORD	wordpools/wasnorm_wordpool_576.txt	LTP187	ltpFR2	8	1	TURTLE	1522	n/a	n/a	0	0	0
252703	WORD	wordpools/wasnorm_wordpool_576.txt	LTP187	ltpFR2	8	1	NOVEL	960	n/a	n/a	0	0	0
255473	WORD	wordpools/wasnorm_wordpool_576.txt	LTP187	ltpFR2	8	1	ELBOW	520	n/a	n/a	0	0	0
258124	WORD	wordpools/wasnorm_wordpool_576.txt	LTP187	ltpFR2	8	1	FOOT	590	n/a	n/a	0	0	0
260877	WORD	wordpools/wasnorm_wordpool_576.txt	LTP187	ltpFR2	8	1	COD	340	n/a	n/a	0	0	0
263397	WORD	wordpools/wasnorm_wordpool_576.txt	LTP187	ltpFR2	8	1	CUSTARD	429	n/a	n/a	0	0	0
266198	WORD	wordpools/wasnorm_wordpool_576.txt	LTP187	ltpFR2	8	1	CASKET	255	n/a	n/a	0	0	0
268767	WORD	wordpools/wasnorm_wordpool_576.txt	LTP187	ltpFR2	8	1	THREAD	1460	n/a	n/a	0	0	0
271219	WORD	wordpools/wasnorm_wordpool_576.txt	LTP187	ltpFR2	8	1	ULCER	1533	n/a	n/a	0	0	0
273888	WORD	wordpools/wasnorm_wordpool_576.txt	LTP187	ltpFR2	8	1	TUTU	1524	n/a	n/a	0	0	0
276375	WORD	wordpools/wasnorm_wordpool_576.txt	LTP187	ltpFR2	8	1	INMATE	738	n/a	n/a	0	0	0
279126	WORD	wordpools/wasnorm_wordpool_576.txt	LTP187	ltpFR2	8	1	BARREL	91	n/a	n/a	0	0	0
280744	START	n/a	LTP187	ltpFR2	8	n/a	n/a	n/a	2	n/a	n/a	n/a	n/a
281646	DISTRACTOR	n/a	LTP187	ltpFR2	8	1	n/a	n/a	n/a	n/a	0	0	0
281662	PROB	n/a	LTP187	ltpFR2	8	n/a	n/a	n/a	2	13	6	3	4
283563	PROB	n/a	LTP187	ltpFR2	8	n/a	n/a	n/a	2	12	1	2	9
284898	PROB	n/a	LTP187	ltpFR2	8	n/a	n/a	n/a	2	12	2	6	4
286433	PROB	n/a	LTP187	ltpFR2	8	n/a	n/a	n/a	2	16	3	5	8
287984	PROB	n/a	LTP187	ltpFR2	8	n/a	n/a	n/a	2	12	2	1	9
289318	PROB	n/a	LTP187	ltpFR2	8	n/a	n/a	n/a	2	18	4	6	8
290686	PROB	n/a	LTP187	ltpFR2	8	n/a	n/a	n/a	2	11	6	4	1
292738	PROB	n/a	LTP187	ltpFR2	8	n/a	n/a	n/a	2	14	2	6	6
295007	PROB	n/a	LTP187	ltpFR2	8	n/a	n/a	n/a	2	11	4	1	6
296558	PROB	n/a	LTP187	ltpFR2	8	n/a	n/a	n/a	2	18	4	5	9
298927	PROB	n/a	LTP187	ltpFR2	8	n/a	n/a	n/a	2	15	8	5	2
301012	PROB	n/a	LTP187	ltpFR2	8	n/a	n/a	n/a	2	14	4	5	5
302279	PROB	n/a	LTP187	ltpFR2	8	n/a	n/a	n/a	2	17	2	6	9
304426	STOP	n/a	LTP187	ltpFR2	8	n/a	n/a	n/a	2	n/a	n/a	n/a	n/a
306667	REC_START	n/a	LTP187	ltpFR2	8	1	n/a	n/a	n/a	n/a	0	0	0
309991	REC_WORD	wordpools/wasnorm_wordpool_576.txt	LTP187	ltpFR2	8	1	PUDDING	1139	n/a	n/a	0	0	0
312085	REC_WORD	wordpools/wasnorm_wordpool_576.txt	LTP187	ltpFR2	8	1	FLESH	579	n/a	n/a	0	0	0
313903	REC_WORD	wordpools/wasnorm_wordpool_576.txt	LTP187	ltpFR2	8	1	TUTU	1524	n/a	n/a	0	0	0
315996	REC_WORD	wordpools/wasnorm_wordpool_576.txt	LTP187	ltpFR2	8	1	VELVET	1555	n/a	n/a	0	0	0
317681	REC_WORD	wordpools/wasnorm_wordpool_576.txt	LTP187	ltpFR2	8	1	DANCER	437	n/a	n/a	0	0	0
319446	REC_WORD	wordpools/wasnorm_wordpool_576.txt	LTP187	ltpFR2	8	1	BABY	64	n/a	n/a	0	0	0
320970	REC_WORD	wordpools/wasnorm_wordpool_576.txt	LTP187	ltpFR2	8	1	SWITCH	1422	n/a	n/a	0	0	0
321970	REC_WORD_VV	wordpools/wasnorm_wordpool_576.txt	LTP187	ltpFR2	8	1	<>	-1	n/a	n/a	0	0	0
325795	REC_WORD	wordpools/wasnorm_wordpool_576.txt	LTP187	ltpFR2	8	1	BARREL	91	n/a	n/a	0	0	0
327319	REC_WORD	wordpools/wasnorm_wordpool_576.txt	LTP187	ltpFR2	8	1	RIFLE	1192	n/a	n/a	0	0	0
363676	REC_WORD	wordpools/wasnorm_wordpool_576.txt	LTP187	ltpFR2	8	1	INMATE	738	n/a	n/a	0	0	0
397296	DISTRACTOR	n/a	LTP187	ltpFR2	8	2	n/a	n/a	n/a	n/a	0	0	0
397296	START	n/a	LTP187	ltpFR2	8	n/a	n/a	n/a	3	n/a	n/a	n/a	n/a
397330	PROB	n/a	LTP187	ltpFR2	8	n/a	n/a	n/a	3	14	9	2	3
399081	PROB	n/a	LTP187	ltpFR2	8	n/a	n/a	n/a	3	13	7	3	3
400282	PROB	n/a	LTP187	ltpFR2	8	n/a	n/a	n/a	3	15	5	6	4
401966	PROB	n/a	LTP187	ltpFR2	8	n/a	n/a	n/a	3	16	8	2	6
403051	PROB	n/a	LTP187	ltpFR2	8	n/a	n/a	n/a	3	15	4	7	4
404353	PROB	n/a	LTP187	ltpFR2	8	n/a	n/a	n/a	3	18	7	5	6
406687	PROB	n/a	LTP187	ltpFR2	8	n/a	n/a	n/a	3	9	1	6	2
408005	PROB	n/a	LTP187	ltpFR2	8	n/a	n/a	n/a	3	12	7	1	4
409957	PROB	n/a	LTP187	ltpFR2	8	n/a	n/a	n/a	3	11	2	2	7
412192	PROB	n/a	LTP187	ltpFR2	8	n/a	n/a	n/a	3	20	4	8	8
416447	PROB	n/a	LTP187	ltpFR2	8	n/a	n/a	n/a	3	12	3	7	2
417513	PROB	n/a	LTP187	ltpFR2	8	n/a	n/a	n/a	3	20	5	9	6
419565	PROB	n/a	LTP187	ltpFR2	8	n/a	n/a	n/a	3	18	8	3	7
420837	STOP	n/a	LTP187	ltpFR2	8	n/a	n/a	n/a	3	n/a	n/a	n/a	n/a
422234	WORD	wordpools/wasnorm_wordpool_576.txt	LTP187	ltpFR2	8	2	COCOON	339	n/a	n/a	0	0	0
424820	WORD	wordpools/wasnorm_wordpool_576.txt	LTP187	ltpFR2	8	2	LASER	801	n/a	n/a	0	0	0
427555	WORD	wordpools/wasnorm_wordpool_576.txt	LTP187	ltpFR2	8	2	HEADBAND	696	n/a	n/a	0	0	0
430091	WORD	wordpools/wasnorm_wordpool_576.txt	LTP187	ltpFR2	8	2	NECKLACE	940	n/a	n/a	0	0	0
432710	WORD	wordpools/wasnorm_wordpool_576.txt	LTP187	ltpFR2	8	2	TAXI	1438	n/a	n/a	0	0	0
435212	WORD	wordpools/wasnorm_wordpool_576.txt	LTP187	ltpFR2	8	2	PACKAGE	997	n/a	n/a	0	0	0
437864	WORD	wordpools/wasnorm_wordpool_576.txt	LTP187	ltpFR2	8	2	LEADER	807	n/a	n/a	0	0	0
440451	WORD	wordpools/wasnorm_wordpool_576.txt	LTP187	ltpFR2	8	2	TWIG	1527	n/a	n/a	0	0	0
443202	WORD	wordpools/wasnorm_wordpool_576.txt	LTP187	ltpFR2	8	2	PENGUIN	1044	n/a	n/a	0	0	0
445805	WORD	wordpools/wasnorm_wordpool_576.txt	LTP187	ltpFR2	8	2	KEEPER	769	n/a	n/a	0	0	0
448324	WORD	wordpools/wasnorm_wordpool_576.txt	LTP187	ltpFR2	8	2	COSTUME	383	n/a	n/a	0	0	0
450859	WORD	wordpools/wasnorm_wordpool_576.txt	LTP187	ltpFR2	8	2	SCARF	1246	n/a	n/a	0	0	0
453578	WORD	wordpools/wasnorm_wordpool_576.txt	LTP187	ltpFR2	8	2	MARSH	874	n/a	n/a	0	0	0
456348	WORD	wordpools/wasnorm_wordpool_576.txt	LTP187	ltpFR2	8	2	BOX	159	n/a	n/a	0	0	0
458816	WORD	wordpools/wasnorm_wordpool_576.txt	LTP187	ltpFR2	8	2	ARMY	39	n/a	n/a	0	0	0
461485	WORD	wordpools/wasnorm_wordpool_576.txt	LTP187	ltpFR2	8	2	FLEET	578	n/a	n/a	0	0	0
464171	WORD	wordpools/wasnorm_wordpool_576.txt	LTP187	ltpFR2	8	2	LAGOON	795	n/a	n/a	0	0	0
466873	WORD	wordpools/wasnorm_wordpool_576.txt	LTP187	ltpFR2	8	2	SLIDE	1326	n/a	n/a	0	0	0
469659	WORD	wordpools/wasnorm_wordpool_576.txt	LTP187	ltpFR2	8	2	BUG	187	n/a	n/a	0	0	0
472094	WORD	wordpools/wasnorm_wordpool_576.txt	LTP187	ltpFR2	8	2	CRITIC	410	n/a	n/a	0	0	0
474613	WORD	wordpools/wasnorm_wordpool_576.txt	LTP187	ltpFR2	8	2	PASTA	1021	n/a	n/a	0	0	0
477082	WORD	wordpools/wasnorm_wordpool_576.txt	LTP187	ltpFR2	8	2	OFFICE	972	n/a	n/a	0	0	0
479784	WORD	wordpools/wasnorm_wordpool_576.txt	LTP187	ltpFR2	8	2	CLOTHES	327	n/a	n/a	0	0	0
482421	WORD	wordpools/wasnorm_wordpool_576.txt	LTP187	ltpFR2	8	2	FOREST	593	n/a	n/a	0	0	0
484038	START	n/a	LTP187	ltpFR2	8	n/a	n/a	n/a	4	n/a	n/a	n/a	n/a
485228	DISTRACTOR	n/a	LTP187	ltpFR2	8	2	n/a	n/a	n/a	n/a	0	0	0
485239	PROB	n/a	LTP187	ltpFR2	8	n/a	n/a	n/a	4	16	1	6	9
488091	PROB	n/a	LTP187	ltpFR2	8	n/a	n/a	n/a	4	13	6	3	4
490210	PROB	n/a	LTP187	ltpFR2	8	n/a	n/a	n/a	4	19	8	6	5
493029	PROB	n/a	LTP187	ltpFR2	8	n/a	n/a	n/a	4	12	2	7	3
496899	PROB	n/a	LTP187	ltpFR2	8	n/a	n/a	n/a	4	20	6	7	7
499635	PROB	n/a	LTP187	ltpFR2	8	n/a	n/a	n/a	4	13	2	6	5
503038	PROB	n/a	LTP187	ltpFR2	8	n/a	n/a	n/a	4	20	8	5	7
504739	PROB	n/a	LTP187	ltpFR2	8	n/a	n/a	n/a	4	15	6	4	5
508038	STOP	n/a	LTP187	ltpFR2	8	n/a	n/a	n/a	4	n/a	n/a	n/a	n/a
509994	REC_START	n/a	LTP187	ltpFR2	8	2	n/a	n/a	n/a	n/a	0	0	0
512312	REC_WORD	wordpools/wasnorm_wordpool_576.txt	LTP187	ltpFR2	8	2	PASTA	1021	n/a	n/a	0	0	0
517767	REC_WORD	wordpools/wasnorm_wordpool_576.txt	LTP187	ltpFR2	8	2	COCOON	339	n/a	n/a	0	0	0
519284	REC_WORD	wordpools/wasnorm_wordpool_576.txt	LTP187	ltpFR2	8	2	HEADBAND	696	n/a	n/a	0	0	0
520728	REC_WORD	wordpools/wasnorm_wordpool_576.txt	LTP187	ltpFR2	8	2	LASER	801	n/a	n/a	0	0	0
522429	REC_WORD	wordpools/wasnorm_wordpool_576.txt	LTP187	ltpFR2	8	2	MARSH	874	n/a	n/a	0	0	0
526199	REC_WORD	wordpools/wasnorm_wordpool_576.txt	LTP187	ltpFR2	8	2	SWAMP	1416	n/a	n/a	0	0	0
527994	REC_WORD	wordpools/wasnorm_wordpool_576.txt	LTP187	ltpFR2	8	2	LAGOON	795	n/a	n/a	0	0	0
531150	REC_WORD	wordpools/wasnorm_wordpool_576.txt	LTP187	ltpFR2	8	2	ARMY	39	n/a	n/a	0	0	0
533912	REC_WORD	wordpools/wasnorm_wordpool_576.txt	LTP187	ltpFR2	8	2	SLIDE	1326	n/a	n/a	0	0	0
543319	REC_WORD	wordpools/wasnorm_wordpool_576.txt	LTP187	ltpFR2	8	2	SCARF	1246	n/a	n/a	0	0	0
600639	WORD	wordpools/wasnorm_wordpool_576.txt	LTP187	ltpFR2	8	3	DIVER	476	n/a	n/a	0	0	0
603108	WORD	wordpools/wasnorm_wordpool_576.txt	LTP187	ltpFR2	8	3	SWAMP	1416	n/a	n/a	0	0	0
605827	WORD	wordpools/wasnorm_wordpool_576.txt	LTP187	ltpFR2	8	3	FRIAR	605	n/a	n/a	0	0	0
608364	WORD	wordpools/wasnorm_wordpool_576.txt	LTP187	ltpFR2	8	3	WHISTLE	1606	n/a	n/a	0	0	0
610982	WORD	wordpools/wasnorm_wordpool_576.txt	LTP187	ltpFR2	8	3	SNAKE	1333	n/a	n/a	0	0	0
613701	WORD	wordpools/wasnorm_wordpool_576.txt	LTP187	ltpFR2	8	3	LEOPARD	812	n/a	n/a	0	0	0
616286	WORD	wordpools/wasnorm_wordpool_576.txt	LTP187	ltpFR2	8	3	SMOG	1330	n/a	n/a	0	0	0
619106	WORD	wordpools/wasnorm_wordpool_576.txt	LTP187	ltpFR2	8	3	CLOUD	328	n/a	n/a	0	0	0
621891	WORD	wordpools/wasnorm_wordpool_576.txt	LTP187	ltpFR2	8	3	MATTRESS	879	n/a	n/a	0	0	0
624445	WORD	wordpools/wasnorm_wordpool_576.txt	LTP187	ltpFR2	8	3	JURY	766	n/a	n/a	0	0	0
627029	WORD	wordpools/wasnorm_wordpool_576.txt	LTP187	ltpFR2	8	3	UNCLE	1536	n/a	n/a	0	0	0
629848	WORD	wordpools/wasnorm_wordpool_576.txt	LTP187	ltpFR2	8	3	MONSTER	912	n/a	n/a	0	0	0
632385	WORD	wordpools/wasnorm_wordpool_576.txt	LTP187	ltpFR2	8	3	SWIMMER	1420	n/a	n/a	0	0	0
635036	WORD	wordpools/wasnorm_wordpool_576.txt	LTP187	ltpFR2	8	3	TABLE	1426	n/a	n/a	0	0	0
637755	WORD	wordpools/wasnorm_wordpool_576.txt	LTP187	ltpFR2	8	3	PADDING	999	n/a	n/a	0	0	0
640241	WORD	wordpools/wasnorm_wordpool_576.txt	LTP187	ltpFR2	8	3	ORCHID	982	n/a	n/a	0	0	0
642726	WORD	wordpools/wasnorm_wordpool_576.txt	LTP187	ltpFR2	8	3	DAISY	435	n/a	n/a	0	0	0
645396	WORD	wordpools/wasnorm_wordpool_576.txt	LTP187	ltpFR2	8	3	MAILMAN	858	n/a	n/a	0	0	0
647847	WORD	wordpools/wasnorm_wordpool_576.txt	LTP187	ltpFR2	8	3	BURGLAR	200	n/a	n/a	0	0	0
650533	WORD	wordpools/wasnorm_wordpool_576.txt	LTP187	ltpFR2	8	3	TERMITE	1451	n/a	n/a	0	0	0
652985	WORD	wordpools/wasnorm_wordpool_576.txt	LTP187	ltpFR2	8	3	POPCORN	1104	n/a	n/a	0	0	0
655621	WORD	wordpools/wasnorm_wordpool_576.txt	LTP187	ltpFR2	8	3	TWISTER	1530	n/a	n/a	0	0	0
658358	WORD	wordpools/wasnorm_wordpool_576.txt	LTP187	ltpFR2	8	3	HIKER	708	n/a	n/a	0	0	0
661176	WORD	wordpools/wasnorm_wordpool_576.txt	LTP187	ltpFR2	8	3	BLENDER	136	n/a	n/a	0	0	0
662794	START	n/a	LTP187	ltpFR2	8	n/a	n/a	n/a	5	n/a	n/a	n/a	n/a
663709	DISTRACTOR	n/a	LTP187	ltpFR2	8	3	n/a	n/a	n/a	n/a	0	0	0
663711	PROB	n/a	LTP187	ltpFR2	8	n/a	n/a	n/a	5	13	5	1	7
666415	PROB	n/a	LTP187	ltpFR2	8	n/a	n/a	n/a	5	12	1	9	2
667948	PROB	n/a	LTP187	ltpFR2	8	n/a	n/a	n/a	5	19	8	4	7
670283	PROB	n/a	LTP187	ltpFR2	8	n/a	n/a	n/a	5	17	6	2	9
675038	PROB	n/a	LTP187	ltpFR2	8	n/a	n/a	n/a	5	14	8	3	3
679525	PROB	n/a	LTP187	ltpFR2	8	n/a	n/a	n/a	5	14	4	6	4
681193	PROB	n/a	LTP187	ltpFR2	8	n/a	n/a	n/a	5	16	5	3	8
683578	PROB	n/a	LTP187	ltpFR2	8	n/a	n/a	n/a	5	9	5	3	1
686794	STOP	n/a	LTP187	ltpFR2	8	n/a	n/a	n/a	5	n/a	n/a	n/a	n/a
688600	REC_START	n/a	LTP187	ltpFR2	8	3	n/a	n/a	n/a	n/a	0	0	0
690398	REC_WORD	wordpools/wasnorm_wordpool_576.txt	LTP187	ltpFR2	8	3	POPCORN	1104	n/a	n/a	0	0	0
717743	REC_WORD_VV	wordpools/wasnorm_wordpool_576.txt	LTP187	ltpFR2	8	3	<>	-1	n/a	n/a	0	0	0
718054	REC_WORD	wordpools/wasnorm_wordpool_576.txt	LTP187	ltpFR2	8	3	DIVER	476	n/a	n/a	0	0	0
719622	REC_WORD	wordpools/wasnorm_wordpool_576.txt	LTP187	ltpFR2	8	3	FRIAR	605	n/a	n/a	0	0	0
723013	REC_WORD	wordpools/wasnorm_wordpool_576.txt	LTP187	ltpFR2	8	3	SWAMP	1416	n/a	n/a	0	0	0
724227	REC_WORD	wordpools/wasnorm_wordpool_576.txt	LTP187	ltpFR2	8	3	SMOG	1330	n/a	n/a	0	0	0
725493	REC_WORD	wordpools/wasnorm_wordpool_576.txt	LTP187	ltpFR2	8	3	CLOUD	328	n/a	n/a	0	0	0
727629	REC_WORD	wordpools/wasnorm_wordpool_576.txt	LTP187	ltpFR2	8	3	SNAKE	1333	n/a	n/a	0	0	0
730277	REC_WORD	wordpools/wasnorm_wordpool_576.txt	LTP187	ltpFR2	8	3	FOG	-1	n/a	n/a	0	0	0
732035	REC_WORD	wordpools/wasnorm_wordpool_576.txt	LTP187	ltpFR2	8	3	LEOPARD	812	n/a	n/a	0	0	0
779037	WORD	wordpools/wasnorm_wordpool_576.txt	LTP187	ltpFR2	8	4	CELLAR	267	n/a	n/a	0	0	0
781617	WORD	wordpools/wasnorm_wordpool_576.txt	LTP187	ltpFR2	8	4	PORTRAIT	1111	n/a	n/a	0	0	0
784136	WORD	wordpools/wasnorm_wordpool_576.txt	LTP187	ltpFR2	8	4	NIGHTGOWN	953	n/a	n/a	0	0	0
786705	WORD	wordpools/wasnorm_wordpool_576.txt	LTP187	ltpFR2	8	4	BISON	131	n/a	n/a	0	0	0
789513	WORD	wordpools/wasnorm_wordpool_576.txt	LTP187	ltpFR2	8	4	PANTHER	1009	n/a	n/a	0	0	0
792160	WORD	wordpools/wasnorm_wordpool_576.txt	LTP187	ltpFR2	8	4	CAFE	216	n/a	n/a	0	0	0
794711	WORD	wordpools/wasnorm_wordpool_576.txt	LTP187	ltpFR2	8	4	UMPIRE	1535	n/a	n/a	0	0	0
797297	WORD	wordpools/wasnorm_wordpool_576.txt	LTP187	ltpFR2	8	4	SLUG	1329	n/a	n/a	0	0	0
800021	WORD	wordpools/wasnorm_wordpool_576.txt	LTP187	ltpFR2	8	4	CHIPMUNK	304	n/a	n/a	0	0	0
802607	WORD	wordpools/wasnorm_wordpool_576.txt	LTP187	ltpFR2	8	4	JUNGLE	764	n/a	n/a	0	0	0
805120	WORD	wordpools/wasnorm_wordpool_576.txt	LTP187	ltpFR2	8	4	PUPIL	1143	n/a	n/a	0	0	0
807544	WORD	wordpools/wasnorm_wordpool_576.txt	LTP187	ltpFR2	8	4	CRAB	397	n/a	n/a	0	0	0
810058	WORD	wordpools/wasnorm_wordpool_576.txt	LTP187	ltpFR2	8	4	SKILLET	1317	n/a	n/a	0	0	0
812532	WORD	wordpools/wasnorm_wordpool_576.txt	LTP187	ltpFR2	8	4	YOLK	1633	n/a	n/a	0	0	0
814967	WORD	wordpools/wasnorm_wordpool_576.txt	LTP187	ltpFR2	8	4	SHARK	1275	n/a	n/a	0	0	0
817614	WORD	wordpools/wasnorm_wordpool_576.txt	LTP187	ltpFR2	8	4	HANDBAG	684	n/a	n/a	0	0	0
820134	WORD	wordpools/wasnorm_wordpool_576.txt	LTP187	ltpFR2	8	4	BEEF	113	n/a	n/a	0	0	0
822803	WORD	wordpools/wasnorm_wordpool_576.txt	LTP187	ltpFR2	8	4	CLAM	315	n/a	n/a	0	0	0
825542	WORD	wordpools/wasnorm_wordpool_576.txt	LTP187	ltpFR2	8	4	COLONEL	348	n/a	n/a	0	0	0
828278	WORD	wordpools/wasnorm_wordpool_576.txt	LTP187	ltpFR2	8	4	STUDENT	1395	n/a	n/a	0	0	0
830759	WORD	wordpools/wasnorm_wordpool_576.txt	LTP187	ltpFR2	8	4	BANKER	84	n/a	n/a	0	0	0
833516	WORD	wordpools/wasnorm_wordpool_576.txt	LTP187	ltpFR2	8	4	BALLOON	75	n/a	n/a	0	0	0
836298	WORD	wordpools/wasnorm_wordpool_576.txt	LTP187	ltpFR2	8	4	PISTON	1076	n/a	n/a	0	0	0
838950	WORD	wordpools/wasnorm_wordpool_576.txt	LTP187	ltpFR2	8	4	TYPIST	1532	n/a	n/a	0	0	0
840555	START	n/a	LTP187	ltpFR2	8	n/a	n/a	n/a	6	n/a	n/a	n/a	n/a
841661	DISTRACTOR	n/a	LTP187	ltpFR2	8	4	n/a	n/a	n/a	n/a	0	0	0
841669	PROB	n/a	LTP187	ltpFR2	8	n/a	n/a	n/a	6	12	1	4	7
844170	PROB	n/a	LTP187	ltpFR2	8	n/a	n/a	n/a	6	17	9	2	6
845721	PROB	n/a	LTP187	ltpFR2	8	n/a	n/a	n/a	6	17	7	7	3
847173	PROB	n/a	LTP187	ltpFR2	8	n/a	n/a	n/a	6	14	3	7	4
848458	PROB	n/a	LTP187	ltpFR2	8	n/a	n/a	n/a	6	15	2	8	5
849675	PROB	n/a	LTP187	ltpFR2	8	n/a	n/a	n/a	6	17	7	6	4
852211	PROB	n/a	LTP187	ltpFR2	8	n/a	n/a	n/a	6	14	5	4	5
853578	PROB	n/a	LTP187	ltpFR2	8	n/a	n/a	n/a	6	18	3	9	6
854946	PROB	n/a	LTP187	ltpFR2	8	n/a	n/a	n/a	6	17	9	4	4
856981	PROB	n/a	LTP187	ltpFR2	8	n/a	n/a	n/a	6	14	5	1	8
860438	PROB	n/a	LTP187	ltpFR2	8	n/a	n/a	n/a	6	13	7	2	4
862836	PROB	n/a	LTP187	ltpFR2	8	n/a	n/a	n/a	6	18	2	7	9
864344	STOP	n/a	LTP187	ltpFR2	8	n/a	n/a	n/a	6	n/a	n/a	n/a	n/a
866426	REC_START	n/a	LTP187	ltpFR2	8	4	n/a	n/a	n/a	n/a	0	0	0
870836	REC_WORD	wordpools/wasnorm_wordpool_576.txt	LTP187	ltpFR2	8	4	PURSE	1145	n/a	n/a	0	0	0
872073	REC_WORD	wordpools/wasnorm_wordpool_576.txt	LTP187	ltpFR2	8	4	SKILLET	1317	n/a	n/a	0	0	0
873656	REC_WORD	wordpools/wasnorm_wordpool_576.txt	LTP187	ltpFR2	8	4	MEAT	883	n/a	n/a	0	0	0
874926	REC_WORD	wordpools/wasnorm_wordpool_576.txt	LTP187	ltpFR2	8	4	CLAM	315	n/a	n/a	0	0	0
883031	REC_WORD	wordpools/wasnorm_wordpool_576.txt	LTP187	ltpFR2	8	4	COLONEL	348	n/a	n/a	0	0	0
956865	WORD	wordpools/wasnorm_wordpool_576.txt	LTP187	ltpFR2	8	5	CONTRACT	368	n/a	n/a	0	0	0
959422	WORD	wordpools/wasnorm_wordpool_576.txt	LTP187	ltpFR2	8	5	PAIL	1002	n/a	n/a	0	0	0
962018	WORD	wordpools/wasnorm_wordpool_576.txt	LTP187	ltpFR2	8	5	PLASTER	1085	n/a	n/a	0	0	0
964487	WORD	wordpools/wasnorm_wordpool_576.txt	LTP187	ltpFR2	8	5	GUARD	667	n/a	n/a	0	0	0
967044	WORD	wordpools/wasnorm_wordpool_576.txt	LTP187	ltpFR2	8	5	LION	827	n/a	n/a	0	0	0
969848	WORD	wordpools/wasnorm_wordpool_576.txt	LTP187	ltpFR2	8	5	BEAST	108	n/a	n/a	0	0	0
972477	WORD	wordpools/wasnorm_wordpool_576.txt	LTP187	ltpFR2	8	5	VENUS	1557	n/a	n/a	0	0	0
974912	WORD	wordpools/wasnorm_wordpool_576.txt	LTP187	ltpFR2	8	5	STOVE	1388	n/a	n/a	0	0	0
977480	WORD	wordpools/wasnorm_wordpool_576.txt	LTP187	ltpFR2	8	5	LETTUCE	814	n/a	n/a	0	0	0
980200	WORD	wordpools/wasnorm_wordpool_576.txt	LTP187	ltpFR2	8	5	EAGLE	512	n/a	n/a	0	0	0
982902	WORD	wordpools/wasnorm_wordpool_576.txt	LTP187	ltpFR2	8	5	AIRPLANE	12	n/a	n/a	0	0	0
985405	WORD	wordpools/wasnorm_wordpool_576.txt	LTP187	ltpFR2	8	5	DENTIST	447	n/a	n/a	0	0	0
988080	WORD	wordpools/wasnorm_wordpool_576.txt	LTP187	ltpFR2	8	5	COLLEGE	346	n/a	n/a	0	0	0
990691	WORD	wordpools/wasnorm_wordpool_576.txt	LTP187	ltpFR2	8	5	YARN	1631	n/a	n/a	0	0	0
993260	WORD	wordpools/wasnorm_wordpool_576.txt	LTP187	ltpFR2	8	5	BUCKET	184	n/a	n/a	0	0	0
995937	WORD	wordpools/wasnorm_wordpool_576.txt	LTP187	ltpFR2	8	5	PICNIC	1060	n/a	n/a	0	0	0
998631	WORD	wordpools/wasnorm_wordpool_576.txt	LTP187	ltpFR2	8	5	FLOWER	584	n/a	n/a	0	0	0
1001400	WORD	wordpools/wasnorm_wordpool_576.txt	LTP187	ltpFR2	8	5	PREACHER	1119	n/a	n/a	0	0	0
1004093	WORD	wordpools/wasnorm_wordpool_576.txt	LTP187	ltpFR2	8	5	SHELTER	1282	n/a	n/a	0	0	0
1006746	WORD	wordpools/wasnorm_wordpool_576.txt	LTP187	ltpFR2	8	5	COMET	353	n/a	n/a	0	0	0
1009407	WORD	wordpools/wasnorm_wordpool_576.txt	LTP187	ltpFR2	8	5	STAR	1373	n/a	n/a	0	0	0
1011925	WORD	wordpools/wasnorm_wordpool_576.txt	LTP187	ltpFR2	8	5	EMPIRE	530	n/a	n/a	0	0	0
1014602	WORD	wordpools/wasnorm_wordpool_576.txt	LTP187	ltpFR2	8	5	SHORTS	1293	n/a	n/a	0	0	0
1017263	WORD	wordpools/wasnorm_wordpool_576.txt	LTP187	ltpFR2	8	5	SANDWICH	1232	n/a	n/a	0	0	0
1018874	START	n/a	LTP187	ltpFR2	8	n/a	n/a	n/a	7	n/a	n/a	n/a	n/a
1019835	DISTRACTOR	n/a	LTP187	ltpFR2	8	5	n/a	n/a	n/a	n/a	0	0	0
1019840	PROB	n/a	LTP187	ltpFR2	8	n/a	n/a	n/a	7	16	3	5	8
1022999	PROB	n/a	LTP187	ltpFR2	8	n/a	n/a	n/a	7	12	7	1	4
1024150	PROB	n/a	LTP187	ltpFR2	8	n/a	n/a	n/a	7	15	7	6	2
1026804	PROB	n/a	LTP187	ltpFR2	8	n/a	n/a	n/a	7	18	1	9	8
1027970	PROB	n/a	LTP187	ltpFR2	8	n/a	n/a	n/a	7	16	5	9	2
1030221	PROB	n/a	LTP187	ltpFR2	8	n/a	n/a	n/a	7	10	8	1	1
1031441	PROB	n/a	LTP187	ltpFR2	8	n/a	n/a	n/a	7	17	8	5	4
1033659	PROB	n/a	LTP187	ltpFR2	8	n/a	n/a	n/a	7	19	8	7	4
1036077	PROB	n/a	LTP187	ltpFR2	8	n/a	n/a	n/a	7	23	7	9	7
1038047	PROB	n/a	LTP187	ltpFR2	8	n/a	n/a	n/a	7	19	8	3	8
1040131	PROB	n/a	LTP187	ltpFR2	8	n/a	n/a	n/a	7	19	8	2	9
1041366	PROB	n/a	LTP187	ltpFR2	8	n/a	n/a	n/a	7	16	8	2	6
1042518	STOP	n/a	LTP187	ltpFR2	8	n/a	n/a	n/a	7	n/a	n/a	n/a	n/a
1044719	REC_START	n/a	LTP187	ltpFR2	8	5	n/a	n/a	n/a	n/a	0	0	0
1046671	REC_WORD	wordpools/wasnorm_wordpool_576.txt	LTP187	ltpFR2	8	5	CONTRACT	368	n/a	n/a	0	0	0
1047671	REC_WORD_VV	wordpools/wasnorm_wordpool_576.txt	LTP187	ltpFR2	8	5	<>	-1	n/a	n/a	0	0	0
1048833	REC_WORD	wordpools/wasnorm_wordpool_576.txt	LTP187	ltpFR2	8	5	PAIL	1002	n/a	n/a	0	0	0
1050078	REC_WORD	wordpools/wasnorm_wordpool_576.txt	LTP187	ltpFR2	8	5	PLASTER	1085	n/a	n/a	0	0	0
1052214	REC_WORD	wordpools/wasnorm_wordpool_576.txt	LTP187	ltpFR2	8	5	LION	827	n/a	n/a	0	0	0
1053790	REC_WORD	wordpools/wasnorm_wordpool_576.txt	LTP187	ltpFR2	8	5	BEAST	108	n/a	n/a	0	0	0
1055231	REC_WORD	wordpools/wasnorm_wordpool_576.txt	LTP187	ltpFR2	8	5	VENUS	1557	n/a	n/a	0	0	0
1060699	REC_WORD	wordpools/wasnorm_wordpool_576.txt	LTP187	ltpFR2	8	5	AIRPLANE	12	n/a	n/a	0	0	0
1062556	REC_WORD	wordpools/wasnorm_wordpool_576.txt	LTP187	ltpFR2	8	5	DENTIST	447	n/a	n/a	0	0	0
1063902	REC_WORD	wordpools/wasnorm_wordpool_576.txt	LTP187	ltpFR2	8	5	EMPIRE	530	n/a	n/a	0	0	0
1065464	REC_WORD	wordpools/wasnorm_wordpool_576.txt	LTP187	ltpFR2	8	5	STOVE	1388	n/a	n/a	0	0	0
1067094	REC_WORD	wordpools/wasnorm_wordpool_576.txt	LTP187	ltpFR2	8	5	CABBAGE	210	n/a	n/a	0	0	0
1068815	REC_WORD	wordpools/wasnorm_wordpool_576.txt	LTP187	ltpFR2	8	5	EAGLE	512	n/a	n/a	0	0	0
1072181	REC_WORD	wordpools/wasnorm_wordpool_576.txt	LTP187	ltpFR2	8	5	YARN	1631	n/a	n/a	0	0	0
1073743	REC_WORD	wordpools/wasnorm_wordpool_576.txt	LTP187	ltpFR2	8	5	COLLEGE	346	n/a	n/a	0	0	0
1090629	REC_WORD	wordpools/wasnorm_wordpool_576.txt	LTP187	ltpFR2	8	5	PICNIC	1060	n/a	n/a	0	0	0
1092170	REC_WORD	wordpools/wasnorm_wordpool_576.txt	LTP187	ltpFR2	8	5	FLOWER	584	n/a	n/a	0	0	0
1135191	DISTRACTOR	n/a	LTP187	ltpFR2	8	6	n/a	n/a	n/a	n/a	0	0	0
1135191	START	n/a	LTP187	ltpFR2	8	n/a	n/a	n/a	8	n/a	n/a	n/a	n/a
1135206	PROB	n/a	LTP187	ltpFR2	8	n/a	n/a	n/a	8	16	8	5	3
1137376	PROB	n/a	LTP187	ltpFR2	8	n/a	n/a	n/a	8	10	4	5	1
1138711	PROB	n/a	LTP187	ltpFR2	8	n/a	n/a	n/a	8	14	1	6	7
1141127	PROB	n/a	LTP187	ltpFR2	8	n/a	n/a	n/a	8	14	2	6	6
1143280	PROB	n/a	LTP187	ltpFR2	8	n/a	n/a	n/a	8	13	3	4	6
1145498	PROB	n/a	LTP187	ltpFR2	8	n/a	n/a	n/a	8	8	2	1	5
1146817	PROB	n/a	LTP187	ltpFR2	8	n/a	n/a	n/a	8	15	5	7	3
1148166	PROB	n/a	LTP187	ltpFR2	8	n/a	n/a	n/a	8	15	7	2	6
1149567	PROB	n/a	LTP187	ltpFR2	8	n/a	n/a	n/a	8	22	7	6	9
1152987	PROB	n/a	LTP187	ltpFR2	8	n/a	n/a	n/a	8	18	8	4	6
1154373	PROB	n/a	LTP187	ltpFR2	8	n/a	n/a	n/a	8	10	4	1	5
1155640	PROB	n/a	LTP187	ltpFR2	8	n/a	n/a	n/a	8	21	6	7	8
1157899	STOP	n/a	LTP187	ltpFR2	8	n/a	n/a	n/a	8	n/a	n/a	n/a	n/a
1160381	WORD	wordpools/wasnorm_wordpool_576.txt	LTP187	ltpFR2	8	6	FARMER	553	n/a	n/a	0	0	0
1162880	WORD	wordpools/wasnorm_wordpool_576.txt	LTP187	ltpFR2	8	6	MASK	876	n/a	n/a	0	0	0
1165581	WORD	wordpools/wasnorm_wordpool_576.txt	LTP187	ltpFR2	8	6	CABIN	211	n/a	n/a	0	0	0
1168334	WORD	wordpools/wasnorm_wordpool_576.txt	LTP187	ltpFR2	8	6	MEAT	883	n/a	n/a	0	0	0
1171069	WORD	wordpools/wasnorm_wordpool_576.txt	LTP187	ltpFR2	8	6	BUTCHER	203	n/a	n/a	0	0	0
1173505	WORD	wordpools/wasnorm_wordpool_576.txt	LTP187	ltpFR2	8	6	APRON	35	n/a	n/a	0	0	0
1176090	WORD	wordpools/wasnorm_wordpool_576.txt	LTP187	ltpFR2	8	6	KIDNEY	776	n/a	n/a	0	0	0
1178759	WORD	wordpools/wasnorm_wordpool_576.txt	LTP187	ltpFR2	8	6	BLOCKADE	137	n/a	n/a	0	0	0
1181429	WORD	wordpools/wasnorm_wordpool_576.txt	LTP187	ltpFR2	8	6	WINDOW	1611	n/a	n/a	0	0	0
1183914	WORD	wordpools/wasnorm_wordpool_576.txt	LTP187	ltpFR2	8	6	GIRL	637	n/a	n/a	0	0	0
1186332	WORD	wordpools/wasnorm_wordpool_576.txt	LTP187	ltpFR2	8	6	FUNGUS	614	n/a	n/a	0	0	0
1188751	WORD	wordpools/wasnorm_wordpool_576.txt	LTP187	ltpFR2	8	6	HAWK	692	n/a	n/a	0	0	0
1191273	WORD	wordpools/wasnorm_wordpool_576.txt	LTP187	ltpFR2	8	6	ROOSTER	1209	n/a	n/a	0	0	0
1193854	WORD	wordpools/wasnorm_wordpool_576.txt	LTP187	ltpFR2	8	6	REPORT	1184	n/a	n/a	0	0	0
1196489	WORD	wordpools/wasnorm_wordpool_576.txt	LTP187	ltpFR2	8	6	STAPLE	1371	n/a	n/a	0	0	0
1199059	WORD	wordpools/wasnorm_wordpool_576.txt	LTP187	ltpFR2	8	6	RADISH	1158	n/a	n/a	0	0	0
1201695	WORD	wordpools/wasnorm_wordpool_576.txt	LTP187	ltpFR2	8	6	FIREPLACE	570	n/a	n/a	0	0	0
1204280	WORD	wordpools/wasnorm_wordpool_576.txt	LTP187	ltpFR2	8	6	LABEL	790	n/a	n/a	0	0	0
1206704	WORD	wordpools/wasnorm_wordpool_576.txt	LTP187	ltpFR2	8	6	BOUQUET	157	n/a	n/a	0	0	0
1209418	WORD	wordpools/wasnorm_wordpool_576.txt	LTP187	ltpFR2	8	6	ANTLER	29	n/a	n/a	0	0	0
1212186	WORD	wordpools/wasnorm_wordpool_576.txt	LTP187	ltpFR2	8	6	DUSTPAN	509	n/a	n/a	0	0	0
1214978	WORD	wordpools/wasnorm_wordpool_576.txt	LTP187	ltpFR2	8	6	CURTAIN	427	n/a	n/a	0	0	0
1217623	WORD	wordpools/wasnorm_wordpool_576.txt	LTP187	ltpFR2	8	6	HOUND	724	n/a	n/a	0	0	0
1220232	WORD	wordpools/wasnorm_wordpool_576.txt	LTP187	ltpFR2	8	6	LIZARD	834	n/a	n/a	0	0	0
1221843	START	n/a	LTP187	ltpFR2	8	n/a	n/a	n/a	9	n/a	n/a	n/a	n/a
1222931	DISTRACTOR	n/a	LTP187	ltpFR2	8	6	n/a	n/a	n/a	n/a	0	0	0
1222934	PROB	n/a	LTP187	ltpFR2	8	n/a	n/a	n/a	9	24	9	8	7
1226382	PROB	n/a	LTP187	ltpFR2	8	n/a	n/a	n/a	9	17	3	5	9
1229682	PROB	n/a	LTP187	ltpFR2	8	n/a	n/a	n/a	9	14	5	8	1
1231317	PROB	n/a	LTP187	ltpFR2	8	n/a	n/a	n/a	9	20	7	8	5
1233801	PROB	n/a	LTP187	ltpFR2	8	n/a	n/a	n/a	9	14	2	6	6
1235253	PROB	n/a	LTP187	ltpFR2	8	n/a	n/a	n/a	9	13	3	6	4
1236688	PROB	n/a	LTP187	ltpFR2	8	n/a	n/a	n/a	9	20	8	8	4
1237921	PROB	n/a	LTP187	ltpFR2	8	n/a	n/a	n/a	9	12	5	6	1
1239540	PROB	n/a	LTP187	ltpFR2	8	n/a	n/a	n/a	9	6	1	1	4
1240724	PROB	n/a	LTP187	ltpFR2	8	n/a	n/a	n/a	9	17	4	5	8
1243477	PROB	n/a	LTP187	ltpFR2	8	n/a	n/a	n/a	9	18	7	2	9
1244638	STOP	n/a	LTP187	ltpFR2	8	n/a	n/a	n/a	9	n/a	n/a	n/a	n/a
1247665	REC_START	n/a	LTP187	ltpFR2	8	6	n/a	n/a	n/a	n/a	0	0	0
1250151	REC_WORD	wordpools/wasnorm_wordpool_576.txt	LTP187	ltpFR2	8	6	FARMER	553	n/a	n/a	0	0	0
1252055	REC_WORD	wordpools/wasnorm_wordpool_576.txt	LTP187	ltpFR2	8	6	MASK	876	n/a	n/a	0	0	0
1254012	REC_WORD	wordpools/wasnorm_wordpool_576.txt	LTP187	ltpFR2	8	6	APRON	35	n/a	n/a	0	0	0
1256303	REC_WORD	wordpools/wasnorm_wordpool_576.txt	LTP187	ltpFR2	8	6	BUTCHER	203	n/a	n/a	0	0	0
1257779	REC_WORD	wordpools/wasnorm_wordpool_576.txt	LTP187	ltpFR2	8	6	CABIN	211	n/a	n/a	0	0	0
1259863	REC_WORD	wordpools/wasnorm_wordpool_576.txt	LTP187	ltpFR2	8	6	MEAT	883	n/a	n/a	0	0	0
1261608	REC_WORD	wordpools/wasnorm_wordpool_576.txt	LTP187	ltpFR2	8	6	KIDNEY	776	n/a	n/a	0	0	0
1263645	REC_WORD	wordpools/wasnorm_wordpool_576.txt	LTP187	ltpFR2	8	6	WINDOW	1611	n/a	n/a	0	0	0
1265206	REC_WORD	wordpools/wasnorm_wordpool_576.txt	LTP187	ltpFR2	8	6	GIRL	637	n/a	n/a	0	0	0
1266612	REC_WORD	wordpools/wasnorm_wordpool_576.txt	LTP187	ltpFR2	8	6	FUNGUS	614	n/a	n/a	0	0	0
1268256	REC_WORD	wordpools/wasnorm_wordpool_576.txt	LTP187	ltpFR2	8	6	HAWK	692	n/a	n/a	0	0	0
1269722	REC_WORD	wordpools/wasnorm_wordpool_576.txt	LTP187	ltpFR2	8	6	BLOCKADE	137	n/a	n/a	0	0	0
1277325	REC_WORD	wordpools/wasnorm_wordpool_576.txt	LTP187	ltpFR2	8	6	HOUND	724	n/a	n/a	0	0	0
1278826	REC_WORD	wordpools/wasnorm_wordpool_576.txt	LTP187	ltpFR2	8	6	LIZARD	834	n/a	n/a	0	0	0
1282293	REC_WORD	wordpools/wasnorm_wordpool_576.txt	LTP187	ltpFR2	8	6	APRON	35	n/a	n/a	0	0	0
1338086	DISTRACTOR	n/a	LTP187	ltpFR2	8	7	n/a	n/a	n/a	n/a	0	0	0
1338087	START	n/a	LTP187	ltpFR2	8	n/a	n/a	n/a	10	n/a	n/a	n/a	n/a
1338104	PROB	n/a	LTP187	ltpFR2	8	n/a	n/a	n/a	10	15	9	4	2
1340503	PROB	n/a	LTP187	ltpFR2	8	n/a	n/a	n/a	10	18	7	9	2
1342307	PROB	n/a	LTP187	ltpFR2	8	n/a	n/a	n/a	10	21	9	8	4
1344357	PROB	n/a	LTP187	ltpFR2	8	n/a	n/a	n/a	10	17	2	8	7
1346124	PROB	n/a	LTP187	ltpFR2	8	n/a	n/a	n/a	10	15	4	3	8
1347544	PROB	n/a	LTP187	ltpFR2	8	n/a	n/a	n/a	10	12	6	4	2
1348762	PROB	n/a	LTP187	ltpFR2	8	n/a	n/a	n/a	10	22	9	6	7
1351197	PROB	n/a	LTP187	ltpFR2	8	n/a	n/a	n/a	10	18	8	6	4
1352799	PROB	n/a	LTP187	ltpFR2	8	n/a	n/a	n/a	10	17	8	4	5
1354100	PROB	n/a	LTP187	ltpFR2	8	n/a	n/a	n/a	10	20	8	3	9
1356386	PROB	n/a	LTP187	ltpFR2	8	n/a	n/a	n/a	10	22	7	9	6
1358920	PROB	n/a	LTP187	ltpFR2	8	n/a	n/a	n/a	10	11	1	1	9
1360072	PROB	n/a	LTP187	ltpFR2	8	n/a	n/a	n/a	10	13	3	1	9
1361420	STOP	n/a	LTP187	ltpFR2	8	n/a	n/a	n/a	10	n/a	n/a	n/a	n/a
1363190	WORD	wordpools/wasnorm_wordpool_576.txt	LTP187	ltpFR2	8	7	PLAYGROUND	1087	n/a	n/a	0	0	0
1365826	WORD	wordpools/wasnorm_wordpool_576.txt	LTP187	ltpFR2	8	7	CLOCK	325	n/a	n/a	0	0	0
1368545	WORD	wordpools/wasnorm_wordpool_576.txt	LTP187	ltpFR2	8	7	PARTNER	1017	n/a	n/a	0	0	0
1371163	WORD	wordpools/wasnorm_wordpool_576.txt	LTP187	ltpFR2	8	7	MUSTARD	935	n/a	n/a	0	0	0
1373615	WORD	wordpools/wasnorm_wordpool_576.txt	LTP187	ltpFR2	8	7	COWBOY	395	n/a	n/a	0	0	0
1376151	WORD	wordpools/wasnorm_wordpool_576.txt	LTP187	ltpFR2	8	7	MATCH	878	n/a	n/a	0	0	0
1378669	WORD	wordpools/wasnorm_wordpool_576.txt	LTP187	ltpFR2	8	7	SKIRT	1319	n/a	n/a	0	0	0
1381238	WORD	wordpools/wasnorm_wordpool_576.txt	LTP187	ltpFR2	8	7	HEDGE	699	n/a	n/a	0	0	0
1383890	WORD	wordpools/wasnorm_wordpool_576.txt	LTP187	ltpFR2	8	7	OMELET	976	n/a	n/a	0	0	0
1386509	WORD	wordpools/wasnorm_wordpool_576.txt	LTP187	ltpFR2	8	7	BACON	67	n/a	n/a	0	0	0
1388977	WORD	wordpools/wasnorm_wordpool_576.txt	LTP187	ltpFR2	8	7	CHEMIST	292	n/a	n/a	0	0	0
1391579	WORD	wordpools/wasnorm_wordpool_576.txt	LTP187	ltpFR2	8	7	FLASK	576	n/a	n/a	0	0	0
1394148	WORD	wordpools/wasnorm_wordpool_576.txt	LTP187	ltpFR2	8	7	BRANDY	169	n/a	n/a	0	0	0
1396633	WORD	wordpools/wasnorm_wordpool_576.txt	LTP187	ltpFR2	8	7	BACKBONE	66	n/a	n/a	0	0	0
1399303	WORD	wordpools/wasnorm_wordpool_576.txt	LTP187	ltpFR2	8	7	FOOTBALL	591	n/a	n/a	0	0	0
1401737	WORD	wordpools/wasnorm_wordpool_576.txt	LTP187	ltpFR2	8	7	DASHBOARD	441	n/a	n/a	0	0	0
1404273	WORD	wordpools/wasnorm_wordpool_576.txt	LTP187	ltpFR2	8	7	CONVICT	371	n/a	n/a	0	0	0
1406941	WORD	wordpools/wasnorm_wordpool_576.txt	LTP187	ltpFR2	8	7	BLADE	134	n/a	n/a	0	0	0
1409644	WORD	wordpools/wasnorm_wordpool_576.txt	LTP187	ltpFR2	8	7	DRESS	495	n/a	n/a	0	0	0
1412112	WORD	wordpools/wasnorm_wordpool_576.txt	LTP187	ltpFR2	8	7	ROBBER	1197	n/a	n/a	0	0	0
1414614	WORD	wordpools/wasnorm_wordpool_576.txt	LTP187	ltpFR2	8	7	COUCH	386	n/a	n/a	0	0	0
1417301	WORD	wordpools/wasnorm_wordpool_576.txt	LTP187	ltpFR2	8	7	DRAWING	494	n/a	n/a	0	0	0
1419769	WORD	wordpools/wasnorm_wordpool_576.txt	LTP187	ltpFR2	8	7	HOOD	714	n/a	n/a	0	0	0
1422388	WORD	wordpools/wasnorm_wordpool_576.txt	LTP187	ltpFR2	8	7	FLAG	573	n/a	n/a	0	0	0
1423994	START	n/a	LTP187	ltpFR2	8	n/a	n/a	n/a	11	n/a	n/a	n/a	n/a
1424930	DISTRACTOR	n/a	LTP187	ltpFR2	8	7	n/a	n/a	n/a	n/a	0	0	0
1424940	PROB	n/a	LTP187	ltpFR2	8	n/a	n/a	n/a	11	14	4	2	8
1428876	PROB	n/a	LTP187	ltpFR2	8	n/a	n/a	n/a	11	6	1	3	2
1431077	PROB	n/a	LTP187	ltpFR2	8	n/a	n/a	n/a	11	20	4	9	7
1432813	PROB	n/a	LTP187	ltpFR2	8	n/a	n/a	n/a	11	12	1	9	2
1434096	PROB	n/a	LTP187	ltpFR2	8	n/a	n/a	n/a	11	13	4	5	4
1436180	PROB	n/a	LTP187	ltpFR2	8	n/a	n/a	n/a	11	17	8	8	1
1437532	PROB	n/a	LTP187	ltpFR2	8	n/a	n/a	n/a	11	20	9	6	5
1439351	PROB	n/a	LTP187	ltpFR2	8	n/a	n/a	n/a	11	15	8	3	4
1440618	PROB	n/a	LTP187	ltpFR2	8	n/a	n/a	n/a	11	13	5	3	5
1441969	PROB	n/a	LTP187	ltpFR2	8	n/a	n/a	n/a	11	16	6	4	6
1447994	STOP	n/a	LTP187	ltpFR2	8	n/a	n/a	n/a	11	n/a	n/a	n/a	n/a
1449726	REC_START	n/a	LTP187	ltpFR2	8	7	n/a	n/a	n/a	n/a	0	0	0
1451998	REC_WORD	wordpools/wasnorm_wordpool_576.txt	LTP187	ltpFR2	8	7	PLAYGROUND	1087	n/a	n/a	0	0	0
1453827	REC_WORD	wordpools/wasnorm_wordpool_576.txt	LTP187	ltpFR2	8	7	CLOCK	325	n/a	n/a	0	0	0
1455658	REC_WORD	wordpools/wasnorm_wordpool_576.txt	LTP187	ltpFR2	8	7	COWBOY	395	n/a	n/a	0	0	0
1457493	REC_WORD	wordpools/wasnorm_wordpool_576.txt	LTP187	ltpFR2	8	7	PARTNER	1017	n/a	n/a	0	0	0
1461815	REC_WORD	wordpools/wasnorm_wordpool_576.txt	LTP187	ltpFR2	8	7	SKIRT	1319	n/a	n/a	0	0	0
1463502	REC_WORD	wordpools/wasnorm_wordpool_576.txt	LTP187	ltpFR2	8	7	ROBBER	1197	n/a	n/a	0	0	0
1468291	REC_WORD	wordpools/wasnorm_wordpool_576.txt	LTP187	ltpFR2	8	7	BACON	67	n/a	n/a	0	0	0
1469742	REC_WORD	wordpools/wasnorm_wordpool_576.txt	LTP187	ltpFR2	8	7	CHEMIST	292	n/a	n/a	0	0	0
1471644	REC_WORD	wordpools/wasnorm_wordpool_576.txt	LTP187	ltpFR2	8	7	FLASK	576	n/a	n/a	0	0	0
1540159	WORD	wordpools/wasnorm_wordpool_576.txt	LTP187	ltpFR2	8	8	WORKER	1621	n/a	n/a	0	0	0
1542613	WORD	wordpools/wasnorm_wordpool_576.txt	LTP187	ltpFR2	8	8	COIN	343	n/a	n/a	0	0	0
1545265	WORD	wordpools/wasnorm_wordpool_576.txt	LTP187	ltpFR2	8	8	BIKE	125	n/a	n/a	0	0	0
1547688	WORD	wordpools/wasnorm_wordpool_576.txt	LTP187	ltpFR2	8	8	MAILBOX	857	n/a	n/a	0	0	0
1550107	WORD	wordpools/wasnorm_wordpool_576.txt	LTP187	ltpFR2	8	8	MESSAGE	888	n/a	n/a	0	0	0
1552605	WORD	wordpools/wasnorm_wordpool_576.txt	LTP187	ltpFR2	8	8	GRAPE	654	n/a	n/a	0	0	0
1555141	WORD	wordpools/wasnorm_wordpool_576.txt	LTP187	ltpFR2	8	8	BRICK	172	n/a	n/a	0	0	0
1557826	WORD	wordpools/wasnorm_wordpool_576.txt	LTP187	ltpFR2	8	8	PATROL	1027	n/a	n/a	0	0	0
1560413	WORD	wordpools/wasnorm_wordpool_576.txt	LTP187	ltpFR2	8	8	SUPPER	1411	n/a	n/a	0	0	0
1562847	WORD	wordpools/wasnorm_wordpool_576.txt	LTP187	ltpFR2	8	8	JELLO	754	n/a	n/a	0	0	0
1565451	WORD	wordpools/wasnorm_wordpool_576.txt	LTP187	ltpFR2	8	8	HAMPER	682	n/a	n/a	0	0	0
1567952	WORD	wordpools/wasnorm_wordpool_576.txt	LTP187	ltpFR2	8	8	DRESSER	496	n/a	n/a	0	0	0
1570455	WORD	wordpools/wasnorm_wordpool_576.txt	LTP187	ltpFR2	8	8	HOOK	715	n/a	n/a	0	0	0
1572972	WORD	wordpools/wasnorm_wordpool_576.txt	LTP187	ltpFR2	8	8	THRONE	1461	n/a	n/a	0	0	0
1575542	WORD	wordpools/wasnorm_wordpool_576.txt	LTP187	ltpFR2	8	8	TUNNEL	1519	n/a	n/a	0	0	0
1578293	WORD	wordpools/wasnorm_wordpool_576.txt	LTP187	ltpFR2	8	8	SCALLOP	1242	n/a	n/a	0	0	0
1581047	WORD	wordpools/wasnorm_wordpool_576.txt	LTP187	ltpFR2	8	8	PERMIT	1051	n/a	n/a	0	0	0
1583667	WORD	wordpools/wasnorm_wordpool_576.txt	LTP187	ltpFR2	8	8	LIPSTICK	829	n/a	n/a	0	0	0
1586469	WORD	wordpools/wasnorm_wordpool_576.txt	LTP187	ltpFR2	8	8	CLAMP	316	n/a	n/a	0	0	0
1588970	WORD	wordpools/wasnorm_wordpool_576.txt	LTP187	ltpFR2	8	8	DRINK	498	n/a	n/a	0	0	0
1591605	WORD	wordpools/wasnorm_wordpool_576.txt	LTP187	ltpFR2	8	8	HEART	697	n/a	n/a	0	0	0
1594308	WORD	wordpools/wasnorm_wordpool_576.txt	LTP187	ltpFR2	8	8	CROWN	415	n/a	n/a	0	0	0
1597077	WORD	wordpools/wasnorm_wordpool_576.txt	LTP187	ltpFR2	8	8	POSTAGE	1113	n/a	n/a	0	0	0
1599880	WORD	wordpools/wasnorm_wordpool_576.txt	LTP187	ltpFR2	8	8	SHELF	1280	n/a	n/a	0	0	0
1601498	START	n/a	LTP187	ltpFR2	8	n/a	n/a	n/a	12	n/a	n/a	n/a	n/a
1602436	DISTRACTOR	n/a	LTP187	ltpFR2	8	8	n/a	n/a	n/a	n/a	0	0	0
1602450	PROB	n/a	LTP187	ltpFR2	8	n/a	n/a	n/a	12	12	3	3	6
1606435	PROB	n/a	LTP187	ltpFR2	8	n/a	n/a	n/a	12	5	1	3	1
1607552	PROB	n/a	LTP187	ltpFR2	8	n/a	n/a	n/a	12	18	4	9	5
1609455	PROB	n/a	LTP187	ltpFR2	8	n/a	n/a	n/a	12	15	4	7	4
1611756	PROB	n/a	LTP187	ltpFR2	8	n/a	n/a	n/a	12	19	7	8	4
1613924	PROB	n/a	LTP187	ltpFR2	8	n/a	n/a	n/a	12	10	2	7	1
1615944	PROB	n/a	LTP187	ltpFR2	8	n/a	n/a	n/a	12	15	2	9	3
1618811	PROB	n/a	LTP187	ltpFR2	8	n/a	n/a	n/a	12	17	6	8	3
1621664	PROB	n/a	LTP187	ltpFR2	8	n/a	n/a	n/a	12	11	4	3	4
1623532	PROB	n/a	LTP187	ltpFR2	8	n/a	n/a	n/a	12	19	7	5	7
1625245	STOP	n/a	LTP187	ltpFR2	8	n/a	n/a	n/a	12	n/a	n/a	n/a	n/a
1627471	REC_START	n/a	LTP187	ltpFR2	8	8	n/a	n/a	n/a	n/a	0	0	0
1629135	REC_WORD	wordpools/wasnorm_wordpool_576.txt	LTP187	ltpFR2	8	8	WORKER	1621	n/a	n/a	0	0	0
1630861	REC_WORD	wordpools/wasnorm_wordpool_576.txt	LTP187	ltpFR2	8	8	COIN	343	n/a	n/a	0	0	0
1636080	REC_WORD	wordpools/wasnorm_wordpool_576.txt	LTP187	ltpFR2	8	8	SUPPER	1411	n/a	n/a	0	0	0
1637788	REC_WORD	wordpools/wasnorm_wordpool_576.txt	LTP187	ltpFR2	8	8	JELLO	754	n/a	n/a	0	0	0
1639119	REC_WORD	wordpools/wasnorm_wordpool_576.txt	LTP187	ltpFR2	8	8	HAMPER	682	n/a	n/a	0	0	0
1640871	REC_WORD	wordpools/wasnorm_wordpool_576.txt	LTP187	ltpFR2	8	8	HOOK	715	n/a	n/a	0	0	0
1642345	REC_WORD	wordpools/wasnorm_wordpool_576.txt	LTP187	ltpFR2	8	8	SCALLOP	1242	n/a	n/a	0	0	0
1644599	REC_WORD	wordpools/wasnorm_wordpool_576.txt	LTP187	ltpFR2	8	8	THRONE	1461	n/a	n/a	0	0	0
1703997	REST_REWET	n/a	LTP187	ltpFR2	8	8	n/a	n/a	n/a	n/a	0	0	0
1869847	DISTRACTOR	n/a	LTP187	ltpFR2	8	9	n/a	n/a	n/a	n/a	0	0	0
1869847	START	n/a	LTP187	ltpFR2	8	n/a	n/a	n/a	13	n/a	n/a	n/a	n/a
1869862	PROB	n/a	LTP187	ltpFR2	8	n/a	n/a	n/a	13	18	3	7	8
1871213	PROB	n/a	LTP187	ltpFR2	8	n/a	n/a	n/a	13	22	7	8	7
1873165	PROB	n/a	LTP187	ltpFR2	8	n/a	n/a	n/a	13	15	1	7	7
1874749	PROB	n/a	LTP187	ltpFR2	8	n/a	n/a	n/a	13	10	2	6	2
1876502	PROB	n/a	LTP187	ltpFR2	8	n/a	n/a	n/a	13	16	9	5	2
1878236	PROB	n/a	LTP187	ltpFR2	8	n/a	n/a	n/a	13	9	2	1	6
1880504	PROB	n/a	LTP187	ltpFR2	8	n/a	n/a	n/a	13	17	2	6	9
1883041	PROB	n/a	LTP187	ltpFR2	8	n/a	n/a	n/a	13	13	4	3	6
1885742	PROB	n/a	LTP187	ltpFR2	8	n/a	n/a	n/a	13	23	9	5	9
1888927	PROB	n/a	LTP187	ltpFR2	8	n/a	n/a	n/a	13	16	2	8	6
1891113	PROB	n/a	LTP187	ltpFR2	8	n/a	n/a	n/a	13	16	5	9	2
1893377	STOP	n/a	LTP187	ltpFR2	8	n/a	n/a	n/a	13	n/a	n/a	n/a	n/a
1894766	WORD	wordpools/wasnorm_wordpool_576.txt	LTP187	ltpFR2	8	9	PLIERS	1089	n/a	n/a	0	0	0
1897353	WORD	wordpools/wasnorm_wordpool_576.txt	LTP187	ltpFR2	8	9	WRENCH	1625	n/a	n/a	0	0	0
1899957	WORD	wordpools/wasnorm_wordpool_576.txt	LTP187	ltpFR2	8	9	HORSE	719	n/a	n/a	0	0	0
1902661	WORD	wordpools/wasnorm_wordpool_576.txt	LTP187	ltpFR2	8	9	VIRUS	1572	n/a	n/a	0	0	0
1905377	WORD	wordpools/wasnorm_wordpool_576.txt	LTP187	ltpFR2	8	9	CANYON	235	n/a	n/a	0	0	0
1908164	WORD	wordpools/wasnorm_wordpool_576.txt	LTP187	ltpFR2	8	9	MOP	916	n/a	n/a	0	0	0
1910729	WORD	wordpools/wasnorm_wordpool_576.txt	LTP187	ltpFR2	8	9	VIKING	1565	n/a	n/a	0	0	0
1913400	WORD	wordpools/wasnorm_wordpool_576.txt	LTP187	ltpFR2	8	9	HOSTESS	723	n/a	n/a	0	0	0
1916171	WORD	wordpools/wasnorm_wordpool_576.txt	LTP187	ltpFR2	8	9	NOTEBOOK	959	n/a	n/a	0	0	0
1918791	WORD	wordpools/wasnorm_wordpool_576.txt	LTP187	ltpFR2	8	9	EUROPE	541	n/a	n/a	0	0	0
1921288	WORD	wordpools/wasnorm_wordpool_576.txt	LTP187	ltpFR2	8	9	KNIFE	785	n/a	n/a	0	0	0
1923806	WORD	wordpools/wasnorm_wordpool_576.txt	LTP187	ltpFR2	8	9	FINGER	567	n/a	n/a	0	0	0
1926394	WORD	wordpools/wasnorm_wordpool_576.txt	LTP187	ltpFR2	8	9	ASIA	46	n/a	n/a	0	0	0
1929028	WORD	wordpools/wasnorm_wordpool_576.txt	LTP187	ltpFR2	8	9	CHAPEL	280	n/a	n/a	0	0	0
1931447	WORD	wordpools/wasnorm_wordpool_576.txt	LTP187	ltpFR2	8	9	IDOL	733	n/a	n/a	0	0	0
1933882	WORD	wordpools/wasnorm_wordpool_576.txt	LTP187	ltpFR2	8	9	PLATE	1086	n/a	n/a	0	0	0
1936657	WORD	wordpools/wasnorm_wordpool_576.txt	LTP187	ltpFR2	8	9	PUDDLE	1140	n/a	n/a	0	0	0
1939359	WORD	wordpools/wasnorm_wordpool_576.txt	LTP187	ltpFR2	8	9	CEILING	265	n/a	n/a	0	0	0
1941837	WORD	wordpools/wasnorm_wordpool_576.txt	LTP187	ltpFR2	8	9	QUEEN	1149	n/a	n/a	0	0	0
1944640	WORD	wordpools/wasnorm_wordpool_576.txt	LTP187	ltpFR2	8	9	MISTER	901	n/a	n/a	0	0	0
1947426	WORD	wordpools/wasnorm_wordpool_576.txt	LTP187	ltpFR2	8	9	LOFT	840	n/a	n/a	0	0	0
1950111	WORD	wordpools/wasnorm_wordpool_576.txt	LTP187	ltpFR2	8	9	TOMBSTONE	1478	n/a	n/a	0	0	0
1952887	WORD	wordpools/wasnorm_wordpool_576.txt	LTP187	ltpFR2	8	9	POISON	1096	n/a	n/a	0	0	0
1955424	WORD	wordpools/wasnorm_wordpool_576.txt	LTP187	ltpFR2	8	9	BULLET	194	n/a	n/a	0	0	0
1957034	START	n/a	LTP187	ltpFR2	8	n/a	n/a	n/a	14	n/a	n/a	n/a	n/a
1958143	DISTRACTOR	n/a	LTP187	ltpFR2	8	9	n/a	n/a	n/a	n/a	0	0	0
1958150	PROB	n/a	LTP187	ltpFR2	8	n/a	n/a	n/a	14	16	7	5	4
1962503	PROB	n/a	LTP187	ltpFR2	8	n/a	n/a	n/a	14	21	8	7	6
1964755	PROB	n/a	LTP187	ltpFR2	8	n/a	n/a	n/a	14	11	1	3	7
1966039	PROB	n/a	LTP187	ltpFR2	8	n/a	n/a	n/a	14	8	5	2	1
1968375	PROB	n/a	LTP187	ltpFR2	8	n/a	n/a	n/a	14	19	6	6	7
1970543	PROB	n/a	LTP187	ltpFR2	8	n/a	n/a	n/a	14	18	7	6	5
1972578	PROB	n/a	LTP187	ltpFR2	8	n/a	n/a	n/a	14	18	1	9	8
1974246	PROB	n/a	LTP187	ltpFR2	8	n/a	n/a	n/a	14	11	3	6	2
1976682	PROB	n/a	LTP187	ltpFR2	8	n/a	n/a	n/a	14	13	5	5	3
1977966	PROB	n/a	LTP187	ltpFR2	8	n/a	n/a	n/a	14	24	8	9	7
1980307	STOP	n/a	LTP187	ltpFR2	8	n/a	n/a	n/a	14	n/a	n/a	n/a	n/a
1982787	REC_START	n/a	LTP187	ltpFR2	8	9	n/a	n/a	n/a	n/a	0	0	0
1988966	REC_WORD	wordpools/wasnorm_wordpool_576.txt	LTP187	ltpFR2	8	9	NOTEBOOK	959	n/a	n/a	0	0	0
1990620	REC_WORD	wordpools/wasnorm_wordpool_576.txt	LTP187	ltpFR2	8	9	EUROPE	541	n/a	n/a	0	0	0
1991962	REC_WORD	wordpools/wasnorm_wordpool_576.txt	LTP187	ltpFR2	8	9	KNIFE	785	n/a	n/a	0	0	0
1993647	REC_WORD	wordpools/wasnorm_wordpool_576.txt	LTP187	ltpFR2	8	9	FINGER	567	n/a	n/a	0	0	0
2048701	REC_WORD	wordpools/wasnorm_wordpool_576.txt	LTP187	ltpFR2	8	9	WAITRESS	1581	n/a	n/a	0	0	0
2050685	REC_WORD	wordpools/wasnorm_wordpool_576.txt	LTP187	ltpFR2	8	9	HOSTESS	723	n/a	n/a	0	0	0
2073242	DISTRACTOR	n/a	LTP187	ltpFR2	8	10	n/a	n/a	n/a	n/a	0	0	0
2073242	START	n/a	LTP187	ltpFR2	8	n/a	n/a	n/a	15	n/a	n/a	n/a	n/a
2073261	PROB	n/a	LTP187	ltpFR2	8	n/a	n/a	n/a	15	8	2	1	5
2075677	PROB	n/a	LTP187	ltpFR2	8	n/a	n/a	n/a	15	18	9	3	6
2077228	PROB	n/a	LTP187	ltpFR2	8	n/a	n/a	n/a	15	15	4	2	9
2079130	PROB	n/a	LTP187	ltpFR2	8	n/a	n/a	n/a	15	16	6	9	1
2081333	PROB	n/a	LTP187	ltpFR2	8	n/a	n/a	n/a	15	21	7	8	6
2082833	PROB	n/a	LTP187	ltpFR2	8	n/a	n/a	n/a	15	11	6	4	1
2084036	PROB	n/a	LTP187	ltpFR2	8	n/a	n/a	n/a	15	7	1	2	4
2085355	PROB	n/a	LTP187	ltpFR2	8	n/a	n/a	n/a	15	16	7	8	1
2087356	PROB	n/a	LTP187	ltpFR2	8	n/a	n/a	n/a	15	9	3	4	2
2088873	PROB	n/a	LTP187	ltpFR2	8	n/a	n/a	n/a	15	9	4	3	2
2090941	PROB	n/a	LTP187	ltpFR2	8	n/a	n/a	n/a	15	14	7	5	2
2093725	PROB	n/a	LTP187	ltpFR2	8	n/a	n/a	n/a	15	13	7	4	2
2095461	PROB	n/a	LTP187	ltpFR2	8	n/a	n/a	n/a	15	10	4	4	2
2096744	STOP	n/a	LTP187	ltpFR2	8	n/a	n/a	n/a	15	n/a	n/a	n/a	n/a
2098164	WORD	wordpools/wasnorm_wordpool_576.txt	LTP187	ltpFR2	8	10	TEACHER	1440	n/a	n/a	0	0	0
2100832	WORD	wordpools/wasnorm_wordpool_576.txt	LTP187	ltpFR2	8	10	SPACE	1345	n/a	n/a	0	0	0
2103601	WORD	wordpools/wasnorm_wordpool_576.txt	LTP187	ltpFR2	8	10	ISLAND	745	n/a	n/a	0	0	0
2106269	WORD	wordpools/wasnorm_wordpool_576.txt	LTP187	ltpFR2	8	10	BADGE	68	n/a	n/a	0	0	0
2108888	WORD	wordpools/wasnorm_wordpool_576.txt	LTP187	ltpFR2	8	10	SUBWAY	1400	n/a	n/a	0	0	0
2111691	WORD	wordpools/wasnorm_wordpool_576.txt	LTP187	ltpFR2	8	10	PADDLE	1000	n/a	n/a	0	0	0
2114461	WORD	wordpools/wasnorm_wordpool_576.txt	LTP187	ltpFR2	8	10	RAFT	1159	n/a	n/a	0	0	0
2117261	WORD	wordpools/wasnorm_wordpool_576.txt	LTP187	ltpFR2	8	10	SHOULDER	1294	n/a	n/a	0	0	0
2119747	WORD	wordpools/wasnorm_wordpool_576.txt	LTP187	ltpFR2	8	10	TRENCH	1503	n/a	n/a	0	0	0
2122433	WORD	wordpools/wasnorm_wordpool_576.txt	LTP187	ltpFR2	8	10	CANAL	226	n/a	n/a	0	0	0
2125085	WORD	wordpools/wasnorm_wordpool_576.txt	LTP187	ltpFR2	8	10	BANQUET	86	n/a	n/a	0	0	0
2127521	WORD	wordpools/wasnorm_wordpool_576.txt	LTP187	ltpFR2	8	10	HERO	706	n/a	n/a	0	0	0
2129974	WORD	wordpools/wasnorm_wordpool_576.txt	LTP187	ltpFR2	8	10	GREASE	660	n/a	n/a	0	0	0
2132557	WORD	wordpools/wasnorm_wordpool_576.txt	LTP187	ltpFR2	8	10	ROCKET	1202	n/a	n/a	0	0	0
2134993	WORD	wordpools/wasnorm_wordpool_576.txt	LTP187	ltpFR2	8	10	SODA	1341	n/a	n/a	0	0	0
2137712	WORD	wordpools/wasnorm_wordpool_576.txt	LTP187	ltpFR2	8	10	CRUTCH	417	n/a	n/a	0	0	0
2140348	WORD	wordpools/wasnorm_wordpool_576.txt	LTP187	ltpFR2	8	10	WARDROBE	1587	n/a	n/a	0	0	0
2142953	WORD	wordpools/wasnorm_wordpool_576.txt	LTP187	ltpFR2	8	10	PIZZA	1079	n/a	n/a	0	0	0
2145385	WORD	wordpools/wasnorm_wordpool_576.txt	LTP187	ltpFR2	8	10	DANDRUFF	439	n/a	n/a	0	0	0
2147903	WORD	wordpools/wasnorm_wordpool_576.txt	LTP187	ltpFR2	8	10	LAPEL	800	n/a	n/a	0	0	0
2150622	WORD	wordpools/wasnorm_wordpool_576.txt	LTP187	ltpFR2	8	10	PLAID	1080	n/a	n/a	0	0	0
2153379	WORD	wordpools/wasnorm_wordpool_576.txt	LTP187	ltpFR2	8	10	ANKLE	24	n/a	n/a	0	0	0
2155892	WORD	wordpools/wasnorm_wordpool_576.txt	LTP187	ltpFR2	8	10	MARROW	872	n/a	n/a	0	0	0
2158379	WORD	wordpools/wasnorm_wordpool_576.txt	LTP187	ltpFR2	8	10	PEDAL	1037	n/a	n/a	0	0	0
2159985	START	n/a	LTP187	ltpFR2	8	n/a	n/a	n/a	16	n/a	n/a	n/a	n/a
2161031	DISTRACTOR	n/a	LTP187	ltpFR2	8	10	n/a	n/a	n/a	n/a	0	0	0
2161036	PROB	n/a	LTP187	ltpFR2	8	n/a	n/a	n/a	16	13	9	3	1
2163281	PROB	n/a	LTP187	ltpFR2	8	n/a	n/a	n/a	16	24	9	6	9
2166184	PROB	n/a	LTP187	ltpFR2	8	n/a	n/a	n/a	16	8	3	2	3
2168654	PROB	n/a	LTP187	ltpFR2	8	n/a	n/a	n/a	16	8	1	5	2
2170238	PROB	n/a	LTP187	ltpFR2	8	n/a	n/a	n/a	16	17	4	4	9
2171905	PROB	n/a	LTP187	ltpFR2	8	n/a	n/a	n/a	16	5	1	2	2
2173255	PROB	n/a	LTP187	ltpFR2	8	n/a	n/a	n/a	16	20	6	5	9
2175892	PROB	n/a	LTP187	ltpFR2	8	n/a	n/a	n/a	16	9	2	2	5
2177060	PROB	n/a	LTP187	ltpFR2	8	n/a	n/a	n/a	16	11	4	4	3
2178543	PROB	n/a	LTP187	ltpFR2	8	n/a	n/a	n/a	16	11	4	1	6
2180395	PROB	n/a	LTP187	ltpFR2	8	n/a	n/a	n/a	16	14	3	3	8
2183985	STOP	n/a	LTP187	ltpFR2	8	n/a	n/a	n/a	16	n/a	n/a	n/a	n/a
2185767	REC_START	n/a	LTP187	ltpFR2	8	10	n/a	n/a	n/a	n/a	0	0	0
2187409	REC_WORD	wordpools/wasnorm_wordpool_576.txt	LTP187	ltpFR2	8	10	PLAID	1080	n/a	n/a	0	0	0
2188752	REC_WORD	wordpools/wasnorm_wordpool_576.txt	LTP187	ltpFR2	8	10	ANKLE	24	n/a	n/a	0	0	0
2189952	REC_WORD	wordpools/wasnorm_wordpool_576.txt	LTP187	ltpFR2	8	10	MARROW	872	n/a	n/a	0	0	0
2192478	REC_WORD	wordpools/wasnorm_wordpool_576.txt	LTP187	ltpFR2	8	10	TEACHER	1440	n/a	n/a	0	0	0
2193780	REC_WORD	wordpools/wasnorm_wordpool_576.txt	LTP187	ltpFR2	8	10	SPACE	1345	n/a	n/a	0	0	0
2195428	REC_WORD	wordpools/wasnorm_wordpool_576.txt	LTP187	ltpFR2	8	10	ISLAND	745	n/a	n/a	0	0	0
2197898	REC_WORD	wordpools/wasnorm_wordpool_576.txt	LTP187	ltpFR2	8	10	BADGE	68	n/a	n/a	0	0	0
2200985	REC_WORD	wordpools/wasnorm_wordpool_576.txt	LTP187	ltpFR2	8	10	RAFT	1159	n/a	n/a	0	0	0
2202234	REC_WORD	wordpools/wasnorm_wordpool_576.txt	LTP187	ltpFR2	8	10	PADDLE	1000	n/a	n/a	0	0	0
2203741	REC_WORD	wordpools/wasnorm_wordpool_576.txt	LTP187	ltpFR2	8	10	CANAL	226	n/a	n/a	0	0	0
2206624	REC_WORD	wordpools/wasnorm_wordpool_576.txt	LTP187	ltpFR2	8	10	TRENCH	1503	n/a	n/a	0	0	0
2207982	REC_WORD	wordpools/wasnorm_wordpool_576.txt	LTP187	ltpFR2	8	10	SHOULDER	1294	n/a	n/a	0	0	0
2218647	REC_WORD	wordpools/wasnorm_wordpool_576.txt	LTP187	ltpFR2	8	10	SUBWAY	1400	n/a	n/a	0	0	0
2276186	DISTRACTOR	n/a	LTP187	ltpFR2	8	11	n/a	n/a	n/a	n/a	0	0	0
2276186	START	n/a	LTP187	ltpFR2	8	n/a	n/a	n/a	17	n/a	n/a	n/a	n/a
2276201	PROB	n/a	LTP187	ltpFR2	8	n/a	n/a	n/a	17	11	3	4	4
2277921	PROB	n/a	LTP187	ltpFR2	8	n/a	n/a	n/a	17	21	8	6	7
2281324	PROB	n/a	LTP187	ltpFR2	8	n/a	n/a	n/a	17	20	9	9	2
2282908	PROB	n/a	LTP187	ltpFR2	8	n/a	n/a	n/a	17	16	3	8	5
2284313	PROB	n/a	LTP187	ltpFR2	8	n/a	n/a	n/a	17	11	6	4	1
2285759	PROB	n/a	LTP187	ltpFR2	8	n/a	n/a	n/a	17	9	7	1	1
2286861	PROB	n/a	LTP187	ltpFR2	8	n/a	n/a	n/a	17	16	3	9	4
2288414	PROB	n/a	LTP187	ltpFR2	8	n/a	n/a	n/a	17	22	9	7	6
2291948	PROB	n/a	LTP187	ltpFR2	8	n/a	n/a	n/a	17	12	7	3	2
2293282	PROB	n/a	LTP187	ltpFR2	8	n/a	n/a	n/a	17	19	5	6	8
2300186	STOP	n/a	LTP187	ltpFR2	8	n/a	n/a	n/a	17	n/a	n/a	n/a	n/a
2301358	WORD	wordpools/wasnorm_wordpool_576.txt	LTP187	ltpFR2	8	11	BEAKER	104	n/a	n/a	0	0	0
2303943	WORD	wordpools/wasnorm_wordpool_576.txt	LTP187	ltpFR2	8	11	CYCLONE	431	n/a	n/a	0	0	0
2306379	WORD	wordpools/wasnorm_wordpool_576.txt	LTP187	ltpFR2	8	11	PERCH	1048	n/a	n/a	0	0	0
2309013	WORD	wordpools/wasnorm_wordpool_576.txt	LTP187	ltpFR2	8	11	GRILL	661	n/a	n/a	0	0	0
2311816	WORD	wordpools/wasnorm_wordpool_576.txt	LTP187	ltpFR2	8	11	SNACK	1331	n/a	n/a	0	0	0
2314453	WORD	wordpools/wasnorm_wordpool_576.txt	LTP187	ltpFR2	8	11	CARRIAGE	248	n/a	n/a	0	0	0
2317189	WORD	wordpools/wasnorm_wordpool_576.txt	LTP187	ltpFR2	8	11	SCARECROW	1245	n/a	n/a	0	0	0
2319690	WORD	wordpools/wasnorm_wordpool_576.txt	LTP187	ltpFR2	8	11	SUMMIT	1405	n/a	n/a	0	0	0
2322343	WORD	wordpools/wasnorm_wordpool_576.txt	LTP187	ltpFR2	8	11	STONE	1385	n/a	n/a	0	0	0
2324978	WORD	wordpools/wasnorm_wordpool_576.txt	LTP187	ltpFR2	8	11	WAGON	1578	n/a	n/a	0	0	0
2327514	WORD	wordpools/wasnorm_wordpool_576.txt	LTP187	ltpFR2	8	11	BOYFRIEND	162	n/a	n/a	0	0	0
2330150	WORD	wordpools/wasnorm_wordpool_576.txt	LTP187	ltpFR2	8	11	FRAGRANCE	599	n/a	n/a	0	0	0
2332984	WORD	wordpools/wasnorm_wordpool_576.txt	LTP187	ltpFR2	8	11	HUSBAND	728	n/a	n/a	0	0	0
2335487	WORD	wordpools/wasnorm_wordpool_576.txt	LTP187	ltpFR2	8	11	SPOUSE	1358	n/a	n/a	0	0	0
2338306	WORD	wordpools/wasnorm_wordpool_576.txt	LTP187	ltpFR2	8	11	PARSLEY	1016	n/a	n/a	0	0	0
2340825	WORD	wordpools/wasnorm_wordpool_576.txt	LTP187	ltpFR2	8	11	SIDEWALK	1303	n/a	n/a	0	0	0
2343277	WORD	wordpools/wasnorm_wordpool_576.txt	LTP187	ltpFR2	8	11	CREVICE	405	n/a	n/a	0	0	0
2346095	WORD	wordpools/wasnorm_wordpool_576.txt	LTP187	ltpFR2	8	11	COBRA	336	n/a	n/a	0	0	0
2348847	WORD	wordpools/wasnorm_wordpool_576.txt	LTP187	ltpFR2	8	11	PERFUME	1049	n/a	n/a	0	0	0
2351316	WORD	wordpools/wasnorm_wordpool_576.txt	LTP187	ltpFR2	8	11	RATTLE	1170	n/a	n/a	0	0	0
2354051	WORD	wordpools/wasnorm_wordpool_576.txt	LTP187	ltpFR2	8	11	CHAUFFEUR	283	n/a	n/a	0	0	0
2356837	WORD	wordpools/wasnorm_wordpool_576.txt	LTP187	ltpFR2	8	11	OUTDOORS	987	n/a	n/a	0	0	0
2359407	WORD	wordpools/wasnorm_wordpool_576.txt	LTP187	ltpFR2	8	11	BUREAU	199	n/a	n/a	0	0	0
2362058	WORD	wordpools/wasnorm_wordpool_576.txt	LTP187	ltpFR2	8	11	GRIZZLY	662	n/a	n/a	0	0	0
2363662	START	n/a	LTP187	ltpFR2	8	n/a	n/a	n/a	18	n/a	n/a	n/a	n/a
2364619	DISTRACTOR	n/a	LTP187	ltpFR2	8	11	n/a	n/a	n/a	n/a	0	0	0
2364626	PROB	n/a	LTP187	ltpFR2	8	n/a	n/a	n/a	18	13	1	4	8
2368195	PROB	n/a	LTP187	ltpFR2	8	n/a	n/a	n/a	18	6	4	1	1
2369213	PROB	n/a	LTP187	ltpFR2	8	n/a	n/a	n/a	18	16	2	5	9
2371417	PROB	n/a	LTP187	ltpFR2	8	n/a	n/a	n/a	18	15	7	5	3
2372650	PROB	n/a	LTP187	ltpFR2	8	n/a	n/a	n/a	18	16	6	1	9
2374435	PROB	n/a	LTP187	ltpFR2	8	n/a	n/a	n/a	18	21	9	5	7
2377152	PROB	n/a	LTP187	ltpFR2	8	n/a	n/a	n/a	18	16	6	6	4
2378287	PROB	n/a	LTP187	ltpFR2	8	n/a	n/a	n/a	18	24	9	6	9
2379821	PROB	n/a	LTP187	ltpFR2	8	n/a	n/a	n/a	18	14	2	9	3
2381823	PROB	n/a	LTP187	ltpFR2	8	n/a	n/a	n/a	18	12	8	1	3
2383057	PROB	n/a	LTP187	ltpFR2	8	n/a	n/a	n/a	18	8	5	1	2
2384377	PROB	n/a	LTP187	ltpFR2	8	n/a	n/a	n/a	18	16	2	9	5
2385511	PROB	n/a	LTP187	ltpFR2	8	n/a	n/a	n/a	18	10	5	3	2
2387107	STOP	n/a	LTP187	ltpFR2	8	n/a	n/a	n/a	18	n/a	n/a	n/a	n/a
2389399	REC_START	n/a	LTP187	ltpFR2	8	11	n/a	n/a	n/a	n/a	0	0	0
2393930	REC_WORD	wordpools/wasnorm_wordpool_576.txt	LTP187	ltpFR2	8	11	SIDEWALK	1303	n/a	n/a	0	0	0
2395521	REC_WORD	wordpools/wasnorm_wordpool_576.txt	LTP187	ltpFR2	8	11	PERFUME	1049	n/a	n/a	0	0	0
2397112	REC_WORD	wordpools/wasnorm_wordpool_576.txt	LTP187	ltpFR2	8	11	COBRA	336	n/a	n/a	0	0	0
2479819	WORD	wordpools/wasnorm_wordpool_576.txt	LTP187	ltpFR2	8	12	SPIDER	1351	n/a	n/a	0	0	0
2482516	WORD	wordpools/wasnorm_wordpool_576.txt	LTP187	ltpFR2	8	12	BRIEFCASE	175	n/a	n/a	0	0	0
2485167	WORD	wordpools/wasnorm_wordpool_576.txt	LTP187	ltpFR2	8	12	YACHT	1629	n/a	n/a	0	0	0
2487753	WORD	wordpools/wasnorm_wordpool_576.txt	LTP187	ltpFR2	8	12	CRATER	400	n/a	n/a	0	0	0
2490390	WORD	wordpools/wasnorm_wordpool_576.txt	LTP187	ltpFR2	8	12	TROMBONE	1508	n/a	n/a	0	0	0
2493030	WORD	wordpools/wasnorm_wordpool_576.txt	LTP187	ltpFR2	8	12	LOVER	846	n/a	n/a	0	0	0
2495494	WORD	wordpools/wasnorm_wordpool_576.txt	LTP187	ltpFR2	8	12	JEANS	752	n/a	n/a	0	0	0
2498179	WORD	wordpools/wasnorm_wordpool_576.txt	LTP187	ltpFR2	8	12	CRICKET	408	n/a	n/a	0	0	0
2500598	WORD	wordpools/wasnorm_wordpool_576.txt	LTP187	ltpFR2	8	12	NAPKIN	937	n/a	n/a	0	0	0
2503017	WORD	wordpools/wasnorm_wordpool_576.txt	LTP187	ltpFR2	8	12	BROOK	177	n/a	n/a	0	0	0
2505606	WORD	wordpools/wasnorm_wordpool_576.txt	LTP187	ltpFR2	8	12	VICTIM	1562	n/a	n/a	0	0	0
2508359	WORD	wordpools/wasnorm_wordpool_576.txt	LTP187	ltpFR2	8	12	BLUEPRINT	142	n/a	n/a	0	0	0
2511074	WORD	wordpools/wasnorm_wordpool_576.txt	LTP187	ltpFR2	8	12	HELMET	702	n/a	n/a	0	0	0
2513543	WORD	wordpools/wasnorm_wordpool_576.txt	LTP187	ltpFR2	8	12	MOTOR	922	n/a	n/a	0	0	0
2516078	WORD	wordpools/wasnorm_wordpool_576.txt	LTP187	ltpFR2	8	12	SURVEY	1414	n/a	n/a	0	0	0
2518564	WORD	wordpools/wasnorm_wordpool_576.txt	LTP187	ltpFR2	8	12	SPHINX	1349	n/a	n/a	0	0	0
2521166	WORD	wordpools/wasnorm_wordpool_576.txt	LTP187	ltpFR2	8	12	MUMMY	932	n/a	n/a	0	0	0
2523738	WORD	wordpools/wasnorm_wordpool_576.txt	LTP187	ltpFR2	8	12	KETCHUP	771	n/a	n/a	0	0	0
2526504	WORD	wordpools/wasnorm_wordpool_576.txt	LTP187	ltpFR2	8	12	ICEBERG	731	n/a	n/a	0	0	0
2529155	WORD	wordpools/wasnorm_wordpool_576.txt	LTP187	ltpFR2	8	12	FEMALE	559	n/a	n/a	0	0	0
2531875	WORD	wordpools/wasnorm_wordpool_576.txt	LTP187	ltpFR2	8	12	MAPLE	866	n/a	n/a	0	0	0
2534327	WORD	wordpools/wasnorm_wordpool_576.txt	LTP187	ltpFR2	8	12	COOKBOOK	373	n/a	n/a	0	0	0
2537063	WORD	wordpools/wasnorm_wordpool_576.txt	LTP187	ltpFR2	8	12	WAITRESS	1581	n/a	n/a	0	0	0
2539565	WORD	wordpools/wasnorm_wordpool_576.txt	LTP187	ltpFR2	8	12	TREAT	1501	n/a	n/a	0	0	0
2541169	START	n/a	LTP187	ltpFR2	8	n/a	n/a	n/a	19	n/a	n/a	n/a	n/a
2542038	DISTRACTOR	n/a	LTP187	ltpFR2	8	12	n/a	n/a	n/a	n/a	0	0	0
2542051	PROB	n/a	LTP187	ltpFR2	8	n/a	n/a	n/a	19	16	5	6	5
2544252	PROB	n/a	LTP187	ltpFR2	8	n/a	n/a	n/a	19	18	8	7	3
2545905	PROB	n/a	LTP187	ltpFR2	8	n/a	n/a	n/a	19	12	2	5	5
2547187	PROB	n/a	LTP187	ltpFR2	8	n/a	n/a	n/a	19	13	1	3	9
2549656	PROB	n/a	LTP187	ltpFR2	8	n/a	n/a	n/a	19	18	5	7	6
2551275	PROB	n/a	LTP187	ltpFR2	8	n/a	n/a	n/a	19	5	3	1	1
2552528	PROB	n/a	LTP187	ltpFR2	8	n/a	n/a	n/a	19	21	4	8	9
2554697	PROB	n/a	LTP187	ltpFR2	8	n/a	n/a	n/a	19	13	7	5	1
2557647	PROB	n/a	LTP187	ltpFR2	8	n/a	n/a	n/a	19	23	6	8	9
2560767	PROB	n/a	LTP187	ltpFR2	8	n/a	n/a	n/a	19	13	4	5	4
2565169	STOP	n/a	LTP187	ltpFR2	8	n/a	n/a	n/a	19	n/a	n/a	n/a	n/a
2566973	REC_START	n/a	LTP187	ltpFR2	8	12	n/a	n/a	n/a	n/a	0	0	0
2572242	REC_WORD	wordpools/wasnorm_wordpool_576.txt	LTP187	ltpFR2	8	12	SPIDER	1351	n/a	n/a	0	0	0
2574017	REC_WORD	wordpools/wasnorm_wordpool_576.txt	LTP187	ltpFR2	8	12	BRIEFCASE	175	n/a	n/a	0	0	0
2575819	REC_WORD	wordpools/wasnorm_wordpool_576.txt	LTP187	ltpFR2	8	12	YACHT	1629	n/a	n/a	0	0	0
2577331	REC_WORD	wordpools/wasnorm_wordpool_576.txt	LTP187	ltpFR2	8	12	CRATER	400	n/a	n/a	0	0	0
2582329	REC_WORD	wordpools/wasnorm_wordpool_576.txt	LTP187	ltpFR2	8	12	BLUEPRINT	142	n/a	n/a	0	0	0
2583853	REC_WORD	wordpools/wasnorm_wordpool_576.txt	LTP187	ltpFR2	8	12	HELMET	702	n/a	n/a	0	0	0
2585510	REC_WORD	wordpools/wasnorm_wordpool_576.txt	LTP187	ltpFR2	8	12	NAPKIN	937	n/a	n/a	0	0	0
2588056	REC_WORD	wordpools/wasnorm_wordpool_576.txt	LTP187	ltpFR2	8	12	VICTIM	1562	n/a	n/a	0	0	0
2589668	REC_WORD	wordpools/wasnorm_wordpool_576.txt	LTP187	ltpFR2	8	12	BROOK	177	n/a	n/a	0	0	0
2593413	REC_WORD	wordpools/wasnorm_wordpool_576.txt	LTP187	ltpFR2	8	12	SPHINX	1349	n/a	n/a	0	0	0
2596326	REC_WORD	wordpools/wasnorm_wordpool_576.txt	LTP187	ltpFR2	8	12	SURVEY	1414	n/a	n/a	0	0	0
2598461	REC_WORD	wordpools/wasnorm_wordpool_576.txt	LTP187	ltpFR2	8	12	MOTOR	922	n/a	n/a	0	0	0
2613072	REC_WORD	wordpools/wasnorm_wordpool_576.txt	LTP187	ltpFR2	8	12	TROMBONE	1508	n/a	n/a	0	0	0
2615076	REC_WORD	wordpools/wasnorm_wordpool_576.txt	LTP187	ltpFR2	8	12	LOVER	846	n/a	n/a	0	0	0
2657396	DISTRACTOR	n/a	LTP187	ltpFR2	8	13	n/a	n/a	n/a	n/a	0	0	0
2657397	START	n/a	LTP187	ltpFR2	8	n/a	n/a	n/a	20	n/a	n/a	n/a	n/a
2657411	PROB	n/a	LTP187	ltpFR2	8	n/a	n/a	n/a	20	13	9	2	2
2659713	PROB	n/a	LTP187	ltpFR2	8	n/a	n/a	n/a	20	16	7	3	6
2661181	PROB	n/a	LTP187	ltpFR2	8	n/a	n/a	n/a	20	13	9	2	2
2662933	PROB	n/a	LTP187	ltpFR2	8	n/a	n/a	n/a	20	22	9	4	9
2665651	PROB	n/a	LTP187	ltpFR2	8	n/a	n/a	n/a	20	15	4	8	3
2668053	PROB	n/a	LTP187	ltpFR2	8	n/a	n/a	n/a	20	22	4	9	9
2669537	PROB	n/a	LTP187	ltpFR2	8	n/a	n/a	n/a	20	14	7	4	3
2671222	PROB	n/a	LTP187	ltpFR2	8	n/a	n/a	n/a	20	18	8	2	8
2672358	PROB	n/a	LTP187	ltpFR2	8	n/a	n/a	n/a	20	5	2	1	2
2673774	PROB	n/a	LTP187	ltpFR2	8	n/a	n/a	n/a	20	16	3	5	8
2675025	PROB	n/a	LTP187	ltpFR2	8	n/a	n/a	n/a	20	14	3	3	8
2676227	PROB	n/a	LTP187	ltpFR2	8	n/a	n/a	n/a	20	18	9	8	1
2677328	PROB	n/a	LTP187	ltpFR2	8	n/a	n/a	n/a	20	17	5	7	7
2681396	STOP	n/a	LTP187	ltpFR2	8	n/a	n/a	n/a	20	n/a	n/a	n/a	n/a
2682467	WORD	wordpools/wasnorm_wordpool_576.txt	LTP187	ltpFR2	8	13	COTTAGE	384	n/a	n/a	0	0	0
2685067	WORD	wordpools/wasnorm_wordpool_576.txt	LTP187	ltpFR2	8	13	FOREHEAD	592	n/a	n/a	0	0	0
2687637	WORD	wordpools/wasnorm_wordpool_576.txt	LTP187	ltpFR2	8	13	HUMAN	726	n/a	n/a	0	0	0
2690096	WORD	wordpools/wasnorm_wordpool_576.txt	LTP187	ltpFR2	8	13	FOX	598	n/a	n/a	0	0	0
2692515	WORD	wordpools/wasnorm_wordpool_576.txt	LTP187	ltpFR2	8	13	SUNRISE	1407	n/a	n/a	0	0	0
2695018	WORD	wordpools/wasnorm_wordpool_576.txt	LTP187	ltpFR2	8	13	WAITER	1580	n/a	n/a	0	0	0
2697661	WORD	wordpools/wasnorm_wordpool_576.txt	LTP187	ltpFR2	8	13	PASTRY	1022	n/a	n/a	0	0	0
2700121	WORD	wordpools/wasnorm_wordpool_576.txt	LTP187	ltpFR2	8	13	POLICE	1098	n/a	n/a	0	0	0
2702924	WORD	wordpools/wasnorm_wordpool_576.txt	LTP187	ltpFR2	8	13	SCRIBBLE	1256	n/a	n/a	0	0	0
2705517	WORD	wordpools/wasnorm_wordpool_576.txt	LTP187	ltpFR2	8	13	STICKER	1382	n/a	n/a	0	0	0
2708111	WORD	wordpools/wasnorm_wordpool_576.txt	LTP187	ltpFR2	8	13	OUTFIT	988	n/a	n/a	0	0	0
2710821	WORD	wordpools/wasnorm_wordpool_576.txt	LTP187	ltpFR2	8	13	SHERIFF	1284	n/a	n/a	0	0	0
2713442	WORD	wordpools/wasnorm_wordpool_576.txt	LTP187	ltpFR2	8	13	ICING	732	n/a	n/a	0	0	0
2715919	WORD	wordpools/wasnorm_wordpool_576.txt	LTP187	ltpFR2	8	13	OX	994	n/a	n/a	0	0	0
2718722	WORD	wordpools/wasnorm_wordpool_576.txt	LTP187	ltpFR2	8	13	CATTLE	261	n/a	n/a	0	0	0
2721408	WORD	wordpools/wasnorm_wordpool_576.txt	LTP187	ltpFR2	8	13	CARROT	249	n/a	n/a	0	0	0
2724159	WORD	wordpools/wasnorm_wordpool_576.txt	LTP187	ltpFR2	8	13	PEBBLE	1035	n/a	n/a	0	0	0
2726911	WORD	wordpools/wasnorm_wordpool_576.txt	LTP187	ltpFR2	8	13	SPARROW	1347	n/a	n/a	0	0	0
2729637	WORD	wordpools/wasnorm_wordpool_576.txt	LTP187	ltpFR2	8	13	DONKEY	484	n/a	n/a	0	0	0
2732368	WORD	wordpools/wasnorm_wordpool_576.txt	LTP187	ltpFR2	8	13	PUPPY	1144	n/a	n/a	0	0	0
2735041	WORD	wordpools/wasnorm_wordpool_576.txt	LTP187	ltpFR2	8	13	BELLY	119	n/a	n/a	0	0	0
2737520	WORD	wordpools/wasnorm_wordpool_576.txt	LTP187	ltpFR2	8	13	BODY	145	n/a	n/a	0	0	0
2740262	WORD	wordpools/wasnorm_wordpool_576.txt	LTP187	ltpFR2	8	13	PRINCESS	1125	n/a	n/a	0	0	0
2742748	WORD	wordpools/wasnorm_wordpool_576.txt	LTP187	ltpFR2	8	13	DRIVER	499	n/a	n/a	0	0	0
2744361	START	n/a	LTP187	ltpFR2	8	n/a	n/a	n/a	21	n/a	n/a	n/a	n/a
2745555	DISTRACTOR	n/a	LTP187	ltpFR2	8	13	n/a	n/a	n/a	n/a	0	0	0
2745561	PROB	n/a	LTP187	ltpFR2	8	n/a	n/a	n/a	21	14	3	4	7
2748454	PROB	n/a	LTP187	ltpFR2	8	n/a	n/a	n/a	21	13	4	3	6
2751836	PROB	n/a	LTP187	ltpFR2	8	n/a	n/a	n/a	21	14	3	7	4
2753789	PROB	n/a	LTP187	ltpFR2	8	n/a	n/a	n/a	21	12	3	2	7
2757376	PROB	n/a	LTP187	ltpFR2	8	n/a	n/a	n/a	21	20	4	7	9
2759655	PROB	n/a	LTP187	ltpFR2	8	n/a	n/a	n/a	21	12	5	1	6
2761291	PROB	n/a	LTP187	ltpFR2	8	n/a	n/a	n/a	21	18	1	8	8
2762946	PROB	n/a	LTP187	ltpFR2	8	n/a	n/a	n/a	21	23	8	6	9
2768361	STOP	n/a	LTP187	ltpFR2	8	n/a	n/a	n/a	21	n/a	n/a	n/a	n/a
2770302	REC_START	n/a	LTP187	ltpFR2	8	13	n/a	n/a	n/a	n/a	0	0	0
2772766	REC_WORD	wordpools/wasnorm_wordpool_576.txt	LTP187	ltpFR2	8	13	COTTAGE	384	n/a	n/a	0	0	0
2774209	REC_WORD	wordpools/wasnorm_wordpool_576.txt	LTP187	ltpFR2	8	13	FOREHEAD	592	n/a	n/a	0	0	0
2775780	REC_WORD	wordpools/wasnorm_wordpool_576.txt	LTP187	ltpFR2	8	13	FOX	598	n/a	n/a	0	0	0
2777333	REC_WORD	wordpools/wasnorm_wordpool_576.txt	LTP187	ltpFR2	8	13	WAITER	1580	n/a	n/a	0	0	0
2783637	REC_WORD	wordpools/wasnorm_wordpool_576.txt	LTP187	ltpFR2	8	13	POLICE	1098	n/a	n/a	0	0	0
2785379	REC_WORD	wordpools/wasnorm_wordpool_576.txt	LTP187	ltpFR2	8	13	PASTRY	1022	n/a	n/a	0	0	0
2788665	REC_WORD	wordpools/wasnorm_wordpool_576.txt	LTP187	ltpFR2	8	13	SHERIFF	1284	n/a	n/a	0	0	0
2836538	REC_WORD	wordpools/wasnorm_wordpool_576.txt	LTP187	ltpFR2	8	13	STICKER	1382	n/a	n/a	0	0	0
2837538	REC_WORD_VV	wordpools/wasnorm_wordpool_576.txt	LTP187	ltpFR2	8	13	<>	-1	n/a	n/a	0	0	0
2840275	REC_WORD	wordpools/wasnorm_wordpool_576.txt	LTP187	ltpFR2	8	13	OUTFIT	988	n/a	n/a	0	0	0
2844281	REC_WORD	wordpools/wasnorm_wordpool_576.txt	LTP187	ltpFR2	8	13	UNIFORM	1539	n/a	n/a	0	0	0
2860742	DISTRACTOR	n/a	LTP187	ltpFR2	8	14	n/a	n/a	n/a	n/a	0	0	0
2860742	START	n/a	LTP187	ltpFR2	8	n/a	n/a	n/a	22	n/a	n/a	n/a	n/a
2860758	PROB	n/a	LTP187	ltpFR2	8	n/a	n/a	n/a	22	14	4	5	5
2862175	PROB	n/a	LTP187	ltpFR2	8	n/a	n/a	n/a	22	10	2	5	3
2863960	PROB	n/a	LTP187	ltpFR2	8	n/a	n/a	n/a	22	12	1	5	6
2865928	PROB	n/a	LTP187	ltpFR2	8	n/a	n/a	n/a	22	14	3	9	2
2867495	PROB	n/a	LTP187	ltpFR2	8	n/a	n/a	n/a	22	20	8	6	6
2869582	PROB	n/a	LTP187	ltpFR2	8	n/a	n/a	n/a	22	13	1	9	3
2870967	PROB	n/a	LTP187	ltpFR2	8	n/a	n/a	n/a	22	11	4	5	2
2872583	PROB	n/a	LTP187	ltpFR2	8	n/a	n/a	n/a	22	13	4	5	4
2874751	PROB	n/a	LTP187	ltpFR2	8	n/a	n/a	n/a	22	11	4	3	4
2876236	PROB	n/a	LTP187	ltpFR2	8	n/a	n/a	n/a	22	16	7	1	8
2877388	PROB	n/a	LTP187	ltpFR2	8	n/a	n/a	n/a	22	15	2	9	4
2878755	PROB	n/a	LTP187	ltpFR2	8	n/a	n/a	n/a	22	10	3	4	3
2880325	PROB	n/a	LTP187	ltpFR2	8	n/a	n/a	n/a	22	11	5	4	2
2881908	PROB	n/a	LTP187	ltpFR2	8	n/a	n/a	n/a	22	17	9	2	6
2883271	STOP	n/a	LTP187	ltpFR2	8	n/a	n/a	n/a	22	n/a	n/a	n/a	n/a
2885846	WORD	wordpools/wasnorm_wordpool_576.txt	LTP187	ltpFR2	8	14	PIMPLE	1071	n/a	n/a	0	0	0
2888348	WORD	wordpools/wasnorm_wordpool_576.txt	LTP187	ltpFR2	8	14	SLIME	1327	n/a	n/a	0	0	0
2890966	WORD	wordpools/wasnorm_wordpool_576.txt	LTP187	ltpFR2	8	14	DUST	508	n/a	n/a	0	0	0
2893607	WORD	wordpools/wasnorm_wordpool_576.txt	LTP187	ltpFR2	8	14	PALACE	1006	n/a	n/a	0	0	0
2896236	WORD	wordpools/wasnorm_wordpool_576.txt	LTP187	ltpFR2	8	14	CONCERT	360	n/a	n/a	0	0	0
2898944	WORD	wordpools/wasnorm_wordpool_576.txt	LTP187	ltpFR2	8	14	STOMACH	1384	n/a	n/a	0	0	0
2901724	WORD	wordpools/wasnorm_wordpool_576.txt	LTP187	ltpFR2	8	14	CATCHER	258	n/a	n/a	0	0	0
2904243	WORD	wordpools/wasnorm_wordpool_576.txt	LTP187	ltpFR2	8	14	DENIM	446	n/a	n/a	0	0	0
2906712	WORD	wordpools/wasnorm_wordpool_576.txt	LTP187	ltpFR2	8	14	ZIPPER	1636	n/a	n/a	0	0	0
2909399	WORD	wordpools/wasnorm_wordpool_576.txt	LTP187	ltpFR2	8	14	SUSPECT	1415	n/a	n/a	0	0	0
2912039	WORD	wordpools/wasnorm_wordpool_576.txt	LTP187	ltpFR2	8	14	CAPTIVE	240	n/a	n/a	0	0	0
2914485	WORD	wordpools/wasnorm_wordpool_576.txt	LTP187	ltpFR2	8	14	PEACH	1031	n/a	n/a	0	0	0
2917186	WORD	wordpools/wasnorm_wordpool_576.txt	LTP187	ltpFR2	8	14	SUITCASE	1403	n/a	n/a	0	0	0
2919822	WORD	wordpools/wasnorm_wordpool_576.txt	LTP187	ltpFR2	8	14	SHIRT	1287	n/a	n/a	0	0	0
2922433	WORD	wordpools/wasnorm_wordpool_576.txt	LTP187	ltpFR2	8	14	HARP	689	n/a	n/a	0	0	0
2925134	WORD	wordpools/wasnorm_wordpool_576.txt	LTP187	ltpFR2	8	14	GAVEL	627	n/a	n/a	0	0	0
2927837	WORD	wordpools/wasnorm_wordpool_576.txt	LTP187	ltpFR2	8	14	SHOVEL	1295	n/a	n/a	0	0	0
2930639	WORD	wordpools/wasnorm_wordpool_576.txt	LTP187	ltpFR2	8	14	RELISH	1183	n/a	n/a	0	0	0
2933091	WORD	wordpools/wasnorm_wordpool_576.txt	LTP187	ltpFR2	8	14	POET	1095	n/a	n/a	0	0	0
2935793	WORD	wordpools/wasnorm_wordpool_576.txt	LTP187	ltpFR2	8	14	MARKER	870	n/a	n/a	0	0	0
2938488	WORD	wordpools/wasnorm_wordpool_576.txt	LTP187	ltpFR2	8	14	LUGGAGE	847	n/a	n/a	0	0	0
2941090	WORD	wordpools/wasnorm_wordpool_576.txt	LTP187	ltpFR2	8	14	SALT	1229	n/a	n/a	0	0	0
2943884	WORD	wordpools/wasnorm_wordpool_576.txt	LTP187	ltpFR2	8	14	NEUTRON	947	n/a	n/a	0	0	0
2946479	WORD	wordpools/wasnorm_wordpool_576.txt	LTP187	ltpFR2	8	14	MEDAL	885	n/a	n/a	0	0	0
2948088	START	n/a	LTP187	ltpFR2	8	n/a	n/a	n/a	23	n/a	n/a	n/a	n/a
2949180	DISTRACTOR	n/a	LTP187	ltpFR2	8	14	n/a	n/a	n/a	n/a	0	0	0
2949189	PROB	n/a	LTP187	ltpFR2	8	n/a	n/a	n/a	23	18	7	6	5
2952247	PROB	n/a	LTP187	ltpFR2	8	n/a	n/a	n/a	23	9	5	1	3
2955117	PROB	n/a	LTP187	ltpFR2	8	n/a	n/a	n/a	23	22	8	8	6
2957001	PROB	n/a	LTP187	ltpFR2	8	n/a	n/a	n/a	23	18	8	2	8
2958102	PROB	n/a	LTP187	ltpFR2	8	n/a	n/a	n/a	23	18	9	8	1
2959354	PROB	n/a	LTP187	ltpFR2	8	n/a	n/a	n/a	23	19	2	9	8
2960620	PROB	n/a	LTP187	ltpFR2	8	n/a	n/a	n/a	23	16	9	4	3
2962624	PROB	n/a	LTP187	ltpFR2	8	n/a	n/a	n/a	23	20	9	6	5
2964707	PROB	n/a	LTP187	ltpFR2	8	n/a	n/a	n/a	23	17	8	7	2
2966508	PROB	n/a	LTP187	ltpFR2	8	n/a	n/a	n/a	23	5	1	3	1
2967477	PROB	n/a	LTP187	ltpFR2	8	n/a	n/a	n/a	23	11	1	7	3
2968844	PROB	n/a	LTP187	ltpFR2	8	n/a	n/a	n/a	23	12	6	5	1
2970723	STOP	n/a	LTP187	ltpFR2	8	n/a	n/a	n/a	23	n/a	n/a	n/a	n/a
2973831	REC_START	n/a	LTP187	ltpFR2	8	14	n/a	n/a	n/a	n/a	0	0	0
3024877	REC_WORD	wordpools/wasnorm_wordpool_576.txt	LTP187	ltpFR2	8	14	DOG	480	n/a	n/a	0	0	0
3064289	DISTRACTOR	n/a	LTP187	ltpFR2	8	15	n/a	n/a	n/a	n/a	0	0	0
3064289	START	n/a	LTP187	ltpFR2	8	n/a	n/a	n/a	24	n/a	n/a	n/a	n/a
3064305	PROB	n/a	LTP187	ltpFR2	8	n/a	n/a	n/a	24	12	2	5	5
3066556	PROB	n/a	LTP187	ltpFR2	8	n/a	n/a	n/a	24	9	2	3	4
3068624	PROB	n/a	LTP187	ltpFR2	8	n/a	n/a	n/a	24	21	3	9	9
3071194	PROB	n/a	LTP187	ltpFR2	8	n/a	n/a	n/a	24	11	2	3	6
3072811	PROB	n/a	LTP187	ltpFR2	8	n/a	n/a	n/a	24	13	4	2	7
3074363	PROB	n/a	LTP187	ltpFR2	8	n/a	n/a	n/a	24	16	9	6	1
3076580	PROB	n/a	LTP187	ltpFR2	8	n/a	n/a	n/a	24	9	2	2	5
3077682	PROB	n/a	LTP187	ltpFR2	8	n/a	n/a	n/a	24	18	1	8	9
3078866	PROB	n/a	LTP187	ltpFR2	8	n/a	n/a	n/a	24	25	9	9	7
3080418	PROB	n/a	LTP187	ltpFR2	8	n/a	n/a	n/a	24	13	3	5	5
3081652	PROB	n/a	LTP187	ltpFR2	8	n/a	n/a	n/a	24	15	9	5	1
3083186	PROB	n/a	LTP187	ltpFR2	8	n/a	n/a	n/a	24	14	4	6	4
3084703	PROB	n/a	LTP187	ltpFR2	8	n/a	n/a	n/a	24	15	5	9	1
3086122	PROB	n/a	LTP187	ltpFR2	8	n/a	n/a	n/a	24	23	5	9	9
3087791	STOP	n/a	LTP187	ltpFR2	8	n/a	n/a	n/a	24	n/a	n/a	n/a	n/a
3089477	WORD	wordpools/wasnorm_wordpool_576.txt	LTP187	ltpFR2	8	15	POWDER	1117	n/a	n/a	0	0	0
3092127	WORD	wordpools/wasnorm_wordpool_576.txt	LTP187	ltpFR2	8	15	GAZELLE	628	n/a	n/a	0	0	0
3094913	WORD	wordpools/wasnorm_wordpool_576.txt	LTP187	ltpFR2	8	15	PLUTO	1092	n/a	n/a	0	0	0
3097698	WORD	wordpools/wasnorm_wordpool_576.txt	LTP187	ltpFR2	8	15	ATLAS	53	n/a	n/a	0	0	0
3100438	WORD	wordpools/wasnorm_wordpool_576.txt	LTP187	ltpFR2	8	15	GLOVE	642	n/a	n/a	0	0	0
3103086	WORD	wordpools/wasnorm_wordpool_576.txt	LTP187	ltpFR2	8	15	CITRUS	313	n/a	n/a	0	0	0
3105688	WORD	wordpools/wasnorm_wordpool_576.txt	LTP187	ltpFR2	8	15	CROSS	413	n/a	n/a	0	0	0
3108306	WORD	wordpools/wasnorm_wordpool_576.txt	LTP187	ltpFR2	8	15	SUNSET	1408	n/a	n/a	0	0	0
3111009	WORD	wordpools/wasnorm_wordpool_576.txt	LTP187	ltpFR2	8	15	GLOBE	641	n/a	n/a	0	0	0
3113494	WORD	wordpools/wasnorm_wordpool_576.txt	LTP187	ltpFR2	8	15	SHRUB	1299	n/a	n/a	0	0	0
3116163	WORD	wordpools/wasnorm_wordpool_576.txt	LTP187	ltpFR2	8	15	BRANCH	168	n/a	n/a	0	0	0
3118602	WORD	wordpools/wasnorm_wordpool_576.txt	LTP187	ltpFR2	8	15	BANK	83	n/a	n/a	0	0	0
3121088	WORD	wordpools/wasnorm_wordpool_576.txt	LTP187	ltpFR2	8	15	SILK	1307	n/a	n/a	0	0	0
3123819	WORD	wordpools/wasnorm_wordpool_576.txt	LTP187	ltpFR2	8	15	OUTLAW	989	n/a	n/a	0	0	0
3126589	WORD	wordpools/wasnorm_wordpool_576.txt	LTP187	ltpFR2	8	15	FLASHLIGHT	575	n/a	n/a	0	0	0
3129240	WORD	wordpools/wasnorm_wordpool_576.txt	LTP187	ltpFR2	8	15	WRIST	1626	n/a	n/a	0	0	0
3131676	WORD	wordpools/wasnorm_wordpool_576.txt	LTP187	ltpFR2	8	15	CREATURE	403	n/a	n/a	0	0	0
3134350	WORD	wordpools/wasnorm_wordpool_576.txt	LTP187	ltpFR2	8	15	SEAL	1262	n/a	n/a	0	0	0
3136968	WORD	wordpools/wasnorm_wordpool_576.txt	LTP187	ltpFR2	8	15	PAPER	1011	n/a	n/a	0	0	0
3139699	WORD	wordpools/wasnorm_wordpool_576.txt	LTP187	ltpFR2	8	15	CHEST	295	n/a	n/a	0	0	0
3142185	WORD	wordpools/wasnorm_wordpool_576.txt	LTP187	ltpFR2	8	15	COUSIN	392	n/a	n/a	0	0	0
3144970	WORD	wordpools/wasnorm_wordpool_576.txt	LTP187	ltpFR2	8	15	STALLION	1369	n/a	n/a	0	0	0
3147462	WORD	wordpools/wasnorm_wordpool_576.txt	LTP187	ltpFR2	8	15	BARLEY	88	n/a	n/a	0	0	0
3149930	WORD	wordpools/wasnorm_wordpool_576.txt	LTP187	ltpFR2	8	15	BINDER	127	n/a	n/a	0	0	0
3151542	START	n/a	LTP187	ltpFR2	8	n/a	n/a	n/a	25	n/a	n/a	n/a	n/a
3152739	DISTRACTOR	n/a	LTP187	ltpFR2	8	15	n/a	n/a	n/a	n/a	0	0	0
3152742	PROB	n/a	LTP187	ltpFR2	8	n/a	n/a	n/a	25	13	7	1	5
3157764	PROB	n/a	LTP187	ltpFR2	8	n/a	n/a	n/a	25	10	2	5	3
3159530	PROB	n/a	LTP187	ltpFR2	8	n/a	n/a	n/a	25	19	8	2	9
3161100	PROB	n/a	LTP187	ltpFR2	8	n/a	n/a	n/a	25	23	9	7	7
3164751	PROB	n/a	LTP187	ltpFR2	8	n/a	n/a	n/a	25	13	6	4	3
3166169	PROB	n/a	LTP187	ltpFR2	8	n/a	n/a	n/a	25	11	4	1	6
3167519	PROB	n/a	LTP187	ltpFR2	8	n/a	n/a	n/a	25	11	4	5	2
3168971	PROB	n/a	LTP187	ltpFR2	8	n/a	n/a	n/a	25	19	9	5	5
3170423	PROB	n/a	LTP187	ltpFR2	8	n/a	n/a	n/a	25	17	2	6	9
3172943	PROB	n/a	LTP187	ltpFR2	8	n/a	n/a	n/a	25	9	6	1	2
3174995	STOP	n/a	LTP187	ltpFR2	8	n/a	n/a	n/a	25	n/a	n/a	n/a	n/a
3177331	REC_START	n/a	LTP187	ltpFR2	8	15	n/a	n/a	n/a	n/a	0	0	0
3180148	REC_WORD	wordpools/wasnorm_wordpool_576.txt	LTP187	ltpFR2	8	15	POWDER	1117	n/a	n/a	0	0	0
3182194	REC_WORD	wordpools/wasnorm_wordpool_576.txt	LTP187	ltpFR2	8	15	GAZELLE	628	n/a	n/a	0	0	0
3183687	REC_WORD	wordpools/wasnorm_wordpool_576.txt	LTP187	ltpFR2	8	15	ATLAS	53	n/a	n/a	0	0	0
3185237	REC_WORD	wordpools/wasnorm_wordpool_576.txt	LTP187	ltpFR2	8	15	PLUTO	1092	n/a	n/a	0	0	0
3187268	REC_WORD	wordpools/wasnorm_wordpool_576.txt	LTP187	ltpFR2	8	15	SUN	1406	n/a	n/a	0	0	0
3189025	REC_WORD	wordpools/wasnorm_wordpool_576.txt	LTP187	ltpFR2	8	15	BRANCH	168	n/a	n/a	0	0	0
3194216	REC_WORD	wordpools/wasnorm_wordpool_576.txt	LTP187	ltpFR2	8	15	SUNSET	1408	n/a	n/a	0	0	0
3226420	REC_WORD	wordpools/wasnorm_wordpool_576.txt	LTP187	ltpFR2	8	15	OUTLAW	989	n/a	n/a	0	0	0
3267767	WORD	wordpools/wasnorm_wordpool_576.txt	LTP187	ltpFR2	8	16	DORM	488	n/a	n/a	0	0	0
3270269	WORD	wordpools/wasnorm_wordpool_576.txt	LTP187	ltpFR2	8	16	CIGAR	308	n/a	n/a	0	0	0
3272955	WORD	wordpools/wasnorm_wordpool_576.txt	LTP187	ltpFR2	8	16	SPOOL	1356	n/a	n/a	0	0	0
3275656	WORD	wordpools/wasnorm_wordpool_576.txt	LTP187	ltpFR2	8	16	IGLOO	734	n/a	n/a	0	0	0
3278410	WORD	wordpools/wasnorm_wordpool_576.txt	LTP187	ltpFR2	8	16	KLEENEX	782	n/a	n/a	0	0	0
3281161	WORD	wordpools/wasnorm_wordpool_576.txt	LTP187	ltpFR2	8	16	TOASTER	1472	n/a	n/a	0	0	0
3283813	WORD	wordpools/wasnorm_wordpool_576.txt	LTP187	ltpFR2	8	16	COUNTRY	388	n/a	n/a	0	0	0
3286616	WORD	wordpools/wasnorm_wordpool_576.txt	LTP187	ltpFR2	8	16	PEPPER	1047	n/a	n/a	0	0	0
3289386	WORD	wordpools/wasnorm_wordpool_576.txt	LTP187	ltpFR2	8	16	CABBAGE	210	n/a	n/a	0	0	0
3292138	WORD	wordpools/wasnorm_wordpool_576.txt	LTP187	ltpFR2	8	16	SALAD	1224	n/a	n/a	0	0	0
3294907	WORD	wordpools/wasnorm_wordpool_576.txt	LTP187	ltpFR2	8	16	LIVER	833	n/a	n/a	0	0	0
3297576	WORD	wordpools/wasnorm_wordpool_576.txt	LTP187	ltpFR2	8	16	MUFFIN	929	n/a	n/a	0	0	0
3300345	WORD	wordpools/wasnorm_wordpool_576.txt	LTP187	ltpFR2	8	16	GHETTO	633	n/a	n/a	0	0	0
3302813	WORD	wordpools/wasnorm_wordpool_576.txt	LTP187	ltpFR2	8	16	DRUG	501	n/a	n/a	0	0	0
3305315	WORD	wordpools/wasnorm_wordpool_576.txt	LTP187	ltpFR2	8	16	CAMEL	223	n/a	n/a	0	0	0
3307933	WORD	wordpools/wasnorm_wordpool_576.txt	LTP187	ltpFR2	8	16	TRACTOR	1493	n/a	n/a	0	0	0
3310387	WORD	wordpools/wasnorm_wordpool_576.txt	LTP187	ltpFR2	8	16	GROUND	666	n/a	n/a	0	0	0
3313137	WORD	wordpools/wasnorm_wordpool_576.txt	LTP187	ltpFR2	8	16	PLAZA	1088	n/a	n/a	0	0	0
3315840	WORD	wordpools/wasnorm_wordpool_576.txt	LTP187	ltpFR2	8	16	GOBLIN	645	n/a	n/a	0	0	0
3318343	WORD	wordpools/wasnorm_wordpool_576.txt	LTP187	ltpFR2	8	16	ROBOT	1200	n/a	n/a	0	0	0
3321161	WORD	wordpools/wasnorm_wordpool_576.txt	LTP187	ltpFR2	8	16	POCKET	1093	n/a	n/a	0	0	0
3323648	WORD	wordpools/wasnorm_wordpool_576.txt	LTP187	ltpFR2	8	16	FRAME	600	n/a	n/a	0	0	0
3326081	WORD	wordpools/wasnorm_wordpool_576.txt	LTP187	ltpFR2	8	16	TRIBE	1505	n/a	n/a	0	0	0
3328817	WORD	wordpools/wasnorm_wordpool_576.txt	LTP187	ltpFR2	8	16	LONDON	843	n/a	n/a	0	0	0
3330422	START	n/a	LTP187	ltpFR2	8	n/a	n/a	n/a	26	n/a	n/a	n/a	n/a
3331481	DISTRACTOR	n/a	LTP187	ltpFR2	8	16	n/a	n/a	n/a	n/a	0	0	0
3331486	PROB	n/a	LTP187	ltpFR2	8	n/a	n/a	n/a	26	17	8	8	1
3333686	PROB	n/a	LTP187	ltpFR2	8	n/a	n/a	n/a	26	16	9	5	2
3336073	PROB	n/a	LTP187	ltpFR2	8	n/a	n/a	n/a	26	20	3	9	8
3337723	PROB	n/a	LTP187	ltpFR2	8	n/a	n/a	n/a	26	14	4	7	3
3339393	PROB	n/a	LTP187	ltpFR2	8	n/a	n/a	n/a	26	22	7	6	9
3342961	PROB	n/a	LTP187	ltpFR2	8	n/a	n/a	n/a	26	13	4	4	5
3346564	PROB	n/a	LTP187	ltpFR2	8	n/a	n/a	n/a	26	16	5	8	3
3348165	PROB	n/a	LTP187	ltpFR2	8	n/a	n/a	n/a	26	13	5	6	2
3349733	PROB	n/a	LTP187	ltpFR2	8	n/a	n/a	n/a	26	6	3	1	2
3351534	PROB	n/a	LTP187	ltpFR2	8	n/a	n/a	n/a	26	20	9	7	4
3353459	STOP	n/a	LTP187	ltpFR2	8	n/a	n/a	n/a	26	n/a	n/a	n/a	n/a
3356223	REC_START	n/a	LTP187	ltpFR2	8	16	n/a	n/a	n/a	n/a	0	0	0
3358651	REC_WORD	wordpools/wasnorm_wordpool_576.txt	LTP187	ltpFR2	8	16	DORM	488	n/a	n/a	0	0	0
3360164	REC_WORD	wordpools/wasnorm_wordpool_576.txt	LTP187	ltpFR2	8	16	CIGAR	308	n/a	n/a	0	0	0
3361897	REC_WORD	wordpools/wasnorm_wordpool_576.txt	LTP187	ltpFR2	8	16	SPOOL	1356	n/a	n/a	0	0	0
3363521	REC_WORD	wordpools/wasnorm_wordpool_576.txt	LTP187	ltpFR2	8	16	IGLOO	734	n/a	n/a	0	0	0
3365286	REC_WORD	wordpools/wasnorm_wordpool_576.txt	LTP187	ltpFR2	8	16	TOASTER	1472	n/a	n/a	0	0	0
3366912	REC_WORD	wordpools/wasnorm_wordpool_576.txt	LTP187	ltpFR2	8	16	KLEENEX	782	n/a	n/a	0	0	0
3374062	REC_WORD	wordpools/wasnorm_wordpool_576.txt	LTP187	ltpFR2	8	16	COUNTRY	388	n/a	n/a	0	0	0
3376027	REC_WORD	wordpools/wasnorm_wordpool_576.txt	LTP187	ltpFR2	8	16	PEPPER	1047	n/a	n/a	0	0	0
3377448	REC_WORD	wordpools/wasnorm_wordpool_576.txt	LTP187	ltpFR2	8	16	CABBAGE	210	n/a	n/a	0	0	0
3432751	REST_REWET	n/a	LTP187	ltpFR2	8	16	n/a	n/a	n/a	n/a	0	0	0
3585940	WORD	wordpools/wasnorm_wordpool_576.txt	LTP187	ltpFR2	8	17	WIFE	1609	n/a	n/a	0	0	0
3588558	WORD	wordpools/wasnorm_wordpool_576.txt	LTP187	ltpFR2	8	17	PRINCE	1124	n/a	n/a	0	0	0
3591328	WORD	wordpools/wasnorm_wordpool_576.txt	LTP187	ltpFR2	8	17	COFFEE	341	n/a	n/a	0	0	0
3594018	WORD	wordpools/wasnorm_wordpool_576.txt	LTP187	ltpFR2	8	17	WHISKERS	1605	n/a	n/a	0	0	0
3596566	WORD	wordpools/wasnorm_wordpool_576.txt	LTP187	ltpFR2	8	17	LIGHTNING	820	n/a	n/a	0	0	0
3599139	WORD	wordpools/wasnorm_wordpool_576.txt	LTP187	ltpFR2	8	17	GALLON	618	n/a	n/a	0	0	0
3601886	WORD	wordpools/wasnorm_wordpool_576.txt	LTP187	ltpFR2	8	17	FIDDLE	561	n/a	n/a	0	0	0
3604355	WORD	wordpools/wasnorm_wordpool_576.txt	LTP187	ltpFR2	8	17	SNAIL	1332	n/a	n/a	0	0	0
3606911	WORD	wordpools/wasnorm_wordpool_576.txt	LTP187	ltpFR2	8	17	LUNCH	849	n/a	n/a	0	0	0
3609675	WORD	wordpools/wasnorm_wordpool_576.txt	LTP187	ltpFR2	8	17	SISTER	1312	n/a	n/a	0	0	0
3612345	WORD	wordpools/wasnorm_wordpool_576.txt	LTP187	ltpFR2	8	17	FRECKLE	602	n/a	n/a	0	0	0
3614769	WORD	wordpools/wasnorm_wordpool_576.txt	LTP187	ltpFR2	8	17	MOTEL	919	n/a	n/a	0	0	0
3617232	WORD	wordpools/wasnorm_wordpool_576.txt	LTP187	ltpFR2	8	17	TOURIST	1488	n/a	n/a	0	0	0
3619768	WORD	wordpools/wasnorm_wordpool_576.txt	LTP187	ltpFR2	8	17	BREAST	171	n/a	n/a	0	0	0
3622404	WORD	wordpools/wasnorm_wordpool_576.txt	LTP187	ltpFR2	8	17	REBEL	1172	n/a	n/a	0	0	0
3625071	WORD	wordpools/wasnorm_wordpool_576.txt	LTP187	ltpFR2	8	17	PROTON	1132	n/a	n/a	0	0	0
3627846	WORD	wordpools/wasnorm_wordpool_576.txt	LTP187	ltpFR2	8	17	ATOM	55	n/a	n/a	0	0	0
3630576	WORD	wordpools/wasnorm_wordpool_576.txt	LTP187	ltpFR2	8	17	BANJO	82	n/a	n/a	0	0	0
3633363	WORD	wordpools/wasnorm_wordpool_576.txt	LTP187	ltpFR2	8	17	COURSE	390	n/a	n/a	0	0	0
3635786	WORD	wordpools/wasnorm_wordpool_576.txt	LTP187	ltpFR2	8	17	COMPASS	358	n/a	n/a	0	0	0
3638533	WORD	wordpools/wasnorm_wordpool_576.txt	LTP187	ltpFR2	8	17	SERVER	1272	n/a	n/a	0	0	0
3641318	WORD	wordpools/wasnorm_wordpool_576.txt	LTP187	ltpFR2	8	17	SERVANT	1271	n/a	n/a	0	0	0
3644036	WORD	wordpools/wasnorm_wordpool_576.txt	LTP187	ltpFR2	8	17	LAMP	798	n/a	n/a	0	0	0
3646780	WORD	wordpools/wasnorm_wordpool_576.txt	LTP187	ltpFR2	8	17	BLOUSE	139	n/a	n/a	0	0	0
3648391	START	n/a	LTP187	ltpFR2	8	n/a	n/a	n/a	27	n/a	n/a	n/a	n/a
3649525	DISTRACTOR	n/a	LTP187	ltpFR2	8	17	n/a	n/a	n/a	n/a	0	0	0
3649532	PROB	n/a	LTP187	ltpFR2	8	n/a	n/a	n/a	27	15	9	3	3
3652110	PROB	n/a	LTP187	ltpFR2	8	n/a	n/a	n/a	27	17	9	4	4
3655111	PROB	n/a	LTP187	ltpFR2	8	n/a	n/a	n/a	27	22	5	8	9
3659099	PROB	n/a	LTP187	ltpFR2	8	n/a	n/a	n/a	27	15	4	9	1
3661134	PROB	n/a	LTP187	ltpFR2	8	n/a	n/a	n/a	27	16	4	7	5
3664135	PROB	n/a	LTP187	ltpFR2	8	n/a	n/a	n/a	27	15	1	7	7
3665954	PROB	n/a	LTP187	ltpFR2	8	n/a	n/a	n/a	27	14	6	6	2
3668272	PROB	n/a	LTP187	ltpFR2	8	n/a	n/a	n/a	27	19	7	3	9
3670141	PROB	n/a	LTP187	ltpFR2	8	n/a	n/a	n/a	27	19	6	4	9
3671223	STOP	n/a	LTP187	ltpFR2	8	n/a	n/a	n/a	27	n/a	n/a	n/a	n/a
3674162	REC_START	n/a	LTP187	ltpFR2	8	17	n/a	n/a	n/a	n/a	0	0	0
3676037	REC_WORD	wordpools/wasnorm_wordpool_576.txt	LTP187	ltpFR2	8	17	WIFE	1609	n/a	n/a	0	0	0
3677435	REC_WORD	wordpools/wasnorm_wordpool_576.txt	LTP187	ltpFR2	8	17	PRINCE	1124	n/a	n/a	0	0	0
3678999	REC_WORD	wordpools/wasnorm_wordpool_576.txt	LTP187	ltpFR2	8	17	COFFEE	341	n/a	n/a	0	0	0
3681319	REC_WORD	wordpools/wasnorm_wordpool_576.txt	LTP187	ltpFR2	8	17	WHISKERS	1605	n/a	n/a	0	0	0
3684526	REC_WORD	wordpools/wasnorm_wordpool_576.txt	LTP187	ltpFR2	8	17	GALLON	618	n/a	n/a	0	0	0
3686703	REC_WORD	wordpools/wasnorm_wordpool_576.txt	LTP187	ltpFR2	8	17	LIGHTNING	820	n/a	n/a	0	0	0
3764650	WORD	wordpools/wasnorm_wordpool_576.txt	LTP187	ltpFR2	8	18	COCKTAIL	338	n/a	n/a	0	0	0
3767168	WORD	wordpools/wasnorm_wordpool_576.txt	LTP187	ltpFR2	8	18	BRAKE	166	n/a	n/a	0	0	0
3769670	WORD	wordpools/wasnorm_wordpool_576.txt	LTP187	ltpFR2	8	18	PRIMATE	1123	n/a	n/a	0	0	0
3772440	WORD	wordpools/wasnorm_wordpool_576.txt	LTP187	ltpFR2	8	18	ZEBRA	1635	n/a	n/a	0	0	0
3775058	WORD	wordpools/wasnorm_wordpool_576.txt	LTP187	ltpFR2	8	18	SPONGE	1355	n/a	n/a	0	0	0
3777860	WORD	wordpools/wasnorm_wordpool_576.txt	LTP187	ltpFR2	8	18	WASHER	1592	n/a	n/a	0	0	0
3780296	WORD	wordpools/wasnorm_wordpool_576.txt	LTP187	ltpFR2	8	18	CRIB	407	n/a	n/a	0	0	0
3783098	WORD	wordpools/wasnorm_wordpool_576.txt	LTP187	ltpFR2	8	18	VAGRANT	1544	n/a	n/a	0	0	0
3785566	WORD	wordpools/wasnorm_wordpool_576.txt	LTP187	ltpFR2	8	18	FREEZER	604	n/a	n/a	0	0	0
3788269	WORD	wordpools/wasnorm_wordpool_576.txt	LTP187	ltpFR2	8	18	TURKEY	1520	n/a	n/a	0	0	0
3790904	WORD	wordpools/wasnorm_wordpool_576.txt	LTP187	ltpFR2	8	18	CHILD	299	n/a	n/a	0	0	0
3793691	WORD	wordpools/wasnorm_wordpool_576.txt	LTP187	ltpFR2	8	18	ONION	977	n/a	n/a	0	0	0
3796509	WORD	wordpools/wasnorm_wordpool_576.txt	LTP187	ltpFR2	8	18	GARLIC	624	n/a	n/a	0	0	0
3799111	WORD	wordpools/wasnorm_wordpool_576.txt	LTP187	ltpFR2	8	18	JELLY	755	n/a	n/a	0	0	0
3801847	WORD	wordpools/wasnorm_wordpool_576.txt	LTP187	ltpFR2	8	18	CORAL	378	n/a	n/a	0	0	0
3804649	WORD	wordpools/wasnorm_wordpool_576.txt	LTP187	ltpFR2	8	18	GIFT	635	n/a	n/a	0	0	0
3807201	WORD	wordpools/wasnorm_wordpool_576.txt	LTP187	ltpFR2	8	18	VALLEY	1545	n/a	n/a	0	0	0
3809620	WORD	wordpools/wasnorm_wordpool_576.txt	LTP187	ltpFR2	8	18	QUAIL	1147	n/a	n/a	0	0	0
3812272	WORD	wordpools/wasnorm_wordpool_576.txt	LTP187	ltpFR2	8	18	SEAGULL	1261	n/a	n/a	0	0	0
3815058	WORD	wordpools/wasnorm_wordpool_576.txt	LTP187	ltpFR2	8	18	MILDEW	893	n/a	n/a	0	0	0
3817625	WORD	wordpools/wasnorm_wordpool_576.txt	LTP187	ltpFR2	8	18	PILOT	1070	n/a	n/a	0	0	0
3820311	WORD	wordpools/wasnorm_wordpool_576.txt	LTP187	ltpFR2	8	18	SLOPE	1328	n/a	n/a	0	0	0
3822746	WORD	wordpools/wasnorm_wordpool_576.txt	LTP187	ltpFR2	8	18	LADY	794	n/a	n/a	0	0	0
3825400	WORD	wordpools/wasnorm_wordpool_576.txt	LTP187	ltpFR2	8	18	AIRPORT	13	n/a	n/a	0	0	0
3827004	START	n/a	LTP187	ltpFR2	8	n/a	n/a	n/a	28	n/a	n/a	n/a	n/a
3828200	DISTRACTOR	n/a	LTP187	ltpFR2	8	18	n/a	n/a	n/a	n/a	0	0	0
3828205	PROB	n/a	LTP187	ltpFR2	8	n/a	n/a	n/a	28	18	6	8	4
3830202	PROB	n/a	LTP187	ltpFR2	8	n/a	n/a	n/a	28	25	7	9	9
3832720	PROB	n/a	LTP187	ltpFR2	8	n/a	n/a	n/a	28	22	8	9	5
3836208	PROB	n/a	LTP187	ltpFR2	8	n/a	n/a	n/a	28	8	3	4	1
3837742	PROB	n/a	LTP187	ltpFR2	8	n/a	n/a	n/a	28	15	7	4	4
3839277	PROB	n/a	LTP187	ltpFR2	8	n/a	n/a	n/a	28	9	2	1	6
3841462	PROB	n/a	LTP187	ltpFR2	8	n/a	n/a	n/a	28	6	2	3	1
3843112	PROB	n/a	LTP187	ltpFR2	8	n/a	n/a	n/a	28	17	4	6	7
3844597	PROB	n/a	LTP187	ltpFR2	8	n/a	n/a	n/a	28	11	1	4	6
3846382	PROB	n/a	LTP187	ltpFR2	8	n/a	n/a	n/a	28	10	5	1	4
3847865	PROB	n/a	LTP187	ltpFR2	8	n/a	n/a	n/a	28	20	8	8	4
3850150	STOP	n/a	LTP187	ltpFR2	8	n/a	n/a	n/a	28	n/a	n/a	n/a	n/a
3852838	REC_START	n/a	LTP187	ltpFR2	8	18	n/a	n/a	n/a	n/a	0	0	0
3856227	REC_WORD	wordpools/wasnorm_wordpool_576.txt	LTP187	ltpFR2	8	18	SLOPE	1328	n/a	n/a	0	0	0
3857690	REC_WORD	wordpools/wasnorm_wordpool_576.txt	LTP187	ltpFR2	8	18	PILOT	1070	n/a	n/a	0	0	0
3865727	REC_WORD	wordpools/wasnorm_wordpool_576.txt	LTP187	ltpFR2	8	18	COCKTAIL	338	n/a	n/a	0	0	0
3867053	REC_WORD	wordpools/wasnorm_wordpool_576.txt	LTP187	ltpFR2	8	18	BRAKE	166	n/a	n/a	0	0	0
3868810	REC_WORD	wordpools/wasnorm_wordpool_576.txt	LTP187	ltpFR2	8	18	BRAKE	166	n/a	n/a	0	0	0
3871625	REC_WORD	wordpools/wasnorm_wordpool_576.txt	LTP187	ltpFR2	8	18	PRIMATE	1123	n/a	n/a	0	0	0
3876243	REC_WORD	wordpools/wasnorm_wordpool_576.txt	LTP187	ltpFR2	8	18	VAGRANT	1544	n/a	n/a	0	0	0
3877391	REC_WORD	wordpools/wasnorm_wordpool_576.txt	LTP187	ltpFR2	8	18	FREEZER	604	n/a	n/a	0	0	0
3878820	REC_WORD	wordpools/wasnorm_wordpool_576.txt	LTP187	ltpFR2	8	18	JELLO	754	n/a	n/a	0	0	0
3880203	REC_WORD	wordpools/wasnorm_wordpool_576.txt	LTP187	ltpFR2	8	18	TURKEY	1520	n/a	n/a	0	0	0
3882408	REC_WORD	wordpools/wasnorm_wordpool_576.txt	LTP187	ltpFR2	8	18	BABY	64	n/a	n/a	0	0	0
3883598	REC_WORD	wordpools/wasnorm_wordpool_576.txt	LTP187	ltpFR2	8	18	CRIB	407	n/a	n/a	0	0	0
3889144	REC_WORD	wordpools/wasnorm_wordpool_576.txt	LTP187	ltpFR2	8	18	PRESENTS	-1	n/a	n/a	0	0	0
3890394	REC_WORD	wordpools/wasnorm_wordpool_576.txt	LTP187	ltpFR2	8	18	CORAL	378	n/a	n/a	0	0	0
3892936	REC_WORD	wordpools/wasnorm_wordpool_576.txt	LTP187	ltpFR2	8	18	GIFT	635	n/a	n/a	0	0	0
3943255	DISTRACTOR	n/a	LTP187	ltpFR2	8	19	n/a	n/a	n/a	n/a	0	0	0
3943255	START	n/a	LTP187	ltpFR2	8	n/a	n/a	n/a	29	n/a	n/a	n/a	n/a
3943272	PROB	n/a	LTP187	ltpFR2	8	n/a	n/a	n/a	29	12	3	5	4
3945245	PROB	n/a	LTP187	ltpFR2	8	n/a	n/a	n/a	29	13	5	4	4
3948063	PROB	n/a	LTP187	ltpFR2	8	n/a	n/a	n/a	29	14	8	5	1
3950732	PROB	n/a	LTP187	ltpFR2	8	n/a	n/a	n/a	29	20	5	8	7
3952516	PROB	n/a	LTP187	ltpFR2	8	n/a	n/a	n/a	29	12	4	5	3
3954553	PROB	n/a	LTP187	ltpFR2	8	n/a	n/a	n/a	29	10	4	5	1
3956254	PROB	n/a	LTP187	ltpFR2	8	n/a	n/a	n/a	29	17	3	8	6
3957822	PROB	n/a	LTP187	ltpFR2	8	n/a	n/a	n/a	29	16	1	7	8
3959190	PROB	n/a	LTP187	ltpFR2	8	n/a	n/a	n/a	29	19	8	3	8
3960652	PROB	n/a	LTP187	ltpFR2	8	n/a	n/a	n/a	29	13	5	1	7
3962109	PROB	n/a	LTP187	ltpFR2	8	n/a	n/a	n/a	29	20	4	8	8
3963593	PROB	n/a	LTP187	ltpFR2	8	n/a	n/a	n/a	29	16	4	7	5
3965174	PROB	n/a	LTP187	ltpFR2	8	n/a	n/a	n/a	29	23	9	5	9
3967186	STOP	n/a	LTP187	ltpFR2	8	n/a	n/a	n/a	29	n/a	n/a	n/a	n/a
3968193	WORD	wordpools/wasnorm_wordpool_576.txt	LTP187	ltpFR2	8	19	COOK	372	n/a	n/a	0	0	0
3970913	WORD	wordpools/wasnorm_wordpool_576.txt	LTP187	ltpFR2	8	19	WOMAN	1620	n/a	n/a	0	0	0
3973532	WORD	wordpools/wasnorm_wordpool_576.txt	LTP187	ltpFR2	8	19	PEANUT	1032	n/a	n/a	0	0	0
3975950	WORD	wordpools/wasnorm_wordpool_576.txt	LTP187	ltpFR2	8	19	BEAVER	109	n/a	n/a	0	0	0
3978436	WORD	wordpools/wasnorm_wordpool_576.txt	LTP187	ltpFR2	8	19	PARROT	1015	n/a	n/a	0	0	0
3980855	WORD	wordpools/wasnorm_wordpool_576.txt	LTP187	ltpFR2	8	19	BUBBLE	183	n/a	n/a	0	0	0
3983490	WORD	wordpools/wasnorm_wordpool_576.txt	LTP187	ltpFR2	8	19	CHURCH	307	n/a	n/a	0	0	0
3986109	WORD	wordpools/wasnorm_wordpool_576.txt	LTP187	ltpFR2	8	19	HORNET	718	n/a	n/a	0	0	0
3988727	WORD	wordpools/wasnorm_wordpool_576.txt	LTP187	ltpFR2	8	19	BATHTUB	100	n/a	n/a	0	0	0
3991397	WORD	wordpools/wasnorm_wordpool_576.txt	LTP187	ltpFR2	8	19	TURNIP	1521	n/a	n/a	0	0	0
3994182	WORD	wordpools/wasnorm_wordpool_576.txt	LTP187	ltpFR2	8	19	ORANGE	980	n/a	n/a	0	0	0
3996851	WORD	wordpools/wasnorm_wordpool_576.txt	LTP187	ltpFR2	8	19	FRUIT	610	n/a	n/a	0	0	0
3999423	WORD	wordpools/wasnorm_wordpool_576.txt	LTP187	ltpFR2	8	19	GRAVE	658	n/a	n/a	0	0	0
4001906	WORD	wordpools/wasnorm_wordpool_576.txt	LTP187	ltpFR2	8	19	THIEF	1456	n/a	n/a	0	0	0
4004641	WORD	wordpools/wasnorm_wordpool_576.txt	LTP187	ltpFR2	8	19	ROBIN	1199	n/a	n/a	0	0	0
4007361	WORD	wordpools/wasnorm_wordpool_576.txt	LTP187	ltpFR2	8	19	SAUSAGE	1238	n/a	n/a	0	0	0
4010096	WORD	wordpools/wasnorm_wordpool_576.txt	LTP187	ltpFR2	8	19	SOFTBALL	1343	n/a	n/a	0	0	0
4012632	WORD	wordpools/wasnorm_wordpool_576.txt	LTP187	ltpFR2	8	19	LAKE	796	n/a	n/a	0	0	0
4015201	WORD	wordpools/wasnorm_wordpool_576.txt	LTP187	ltpFR2	8	19	DRILL	497	n/a	n/a	0	0	0
4017786	WORD	wordpools/wasnorm_wordpool_576.txt	LTP187	ltpFR2	8	19	FIREMAN	569	n/a	n/a	0	0	0
4020588	WORD	wordpools/wasnorm_wordpool_576.txt	LTP187	ltpFR2	8	19	CANDY	230	n/a	n/a	0	0	0
4023258	WORD	wordpools/wasnorm_wordpool_576.txt	LTP187	ltpFR2	8	19	TART	1436	n/a	n/a	0	0	0
4025944	WORD	wordpools/wasnorm_wordpool_576.txt	LTP187	ltpFR2	8	19	WORLD	1622	n/a	n/a	0	0	0
4028779	WORD	wordpools/wasnorm_wordpool_576.txt	LTP187	ltpFR2	8	19	WASP	1593	n/a	n/a	0	0	0
4030398	START	n/a	LTP187	ltpFR2	8	n/a	n/a	n/a	30	n/a	n/a	n/a	n/a
4031354	DISTRACTOR	n/a	LTP187	ltpFR2	8	19	n/a	n/a	n/a	n/a	0	0	0
4031365	PROB	n/a	LTP187	ltpFR2	8	n/a	n/a	n/a	30	14	9	4	1
4034682	PROB	n/a	LTP187	ltpFR2	8	n/a	n/a	n/a	30	20	7	9	4
4036968	PROB	n/a	LTP187	ltpFR2	8	n/a	n/a	n/a	30	18	9	3	6
4039086	PROB	n/a	LTP187	ltpFR2	8	n/a	n/a	n/a	30	17	8	2	7
4040489	PROB	n/a	LTP187	ltpFR2	8	n/a	n/a	n/a	30	7	1	4	2
4042105	PROB	n/a	LTP187	ltpFR2	8	n/a	n/a	n/a	30	8	1	1	6
4043241	PROB	n/a	LTP187	ltpFR2	8	n/a	n/a	n/a	30	17	7	6	4
4046192	PROB	n/a	LTP187	ltpFR2	8	n/a	n/a	n/a	30	20	9	6	5
4048446	PROB	n/a	LTP187	ltpFR2	8	n/a	n/a	n/a	30	10	8	1	1
4049846	PROB	n/a	LTP187	ltpFR2	8	n/a	n/a	n/a	30	19	9	6	4
4051763	PROB	n/a	LTP187	ltpFR2	8	n/a	n/a	n/a	30	15	3	4	8
4054238	STOP	n/a	LTP187	ltpFR2	8	n/a	n/a	n/a	30	n/a	n/a	n/a	n/a
4056185	REC_START	n/a	LTP187	ltpFR2	8	19	n/a	n/a	n/a	n/a	0	0	0
4058421	REC_WORD	wordpools/wasnorm_wordpool_576.txt	LTP187	ltpFR2	8	19	COOK	372	n/a	n/a	0	0	0
4059886	REC_WORD	wordpools/wasnorm_wordpool_576.txt	LTP187	ltpFR2	8	19	WOMAN	1620	n/a	n/a	0	0	0
4061432	REC_WORD	wordpools/wasnorm_wordpool_576.txt	LTP187	ltpFR2	8	19	PEANUT	1032	n/a	n/a	0	0	0
4062829	REC_WORD	wordpools/wasnorm_wordpool_576.txt	LTP187	ltpFR2	8	19	BADGER	-1	n/a	n/a	0	0	0
4064215	REC_WORD	wordpools/wasnorm_wordpool_576.txt	LTP187	ltpFR2	8	19	PARROT	1015	n/a	n/a	0	0	0
4075181	REC_WORD	wordpools/wasnorm_wordpool_576.txt	LTP187	ltpFR2	8	19	CHURCH	307	n/a	n/a	0	0	0
4079965	REC_WORD	wordpools/wasnorm_wordpool_576.txt	LTP187	ltpFR2	8	19	BEE	112	n/a	n/a	0	0	0
4081783	REC_WORD	wordpools/wasnorm_wordpool_576.txt	LTP187	ltpFR2	8	19	BATHTUB	100	n/a	n/a	0	0	0
4083457	REC_WORD	wordpools/wasnorm_wordpool_576.txt	LTP187	ltpFR2	8	19	TURNIP	1521	n/a	n/a	0	0	0
4084855	REC_WORD	wordpools/wasnorm_wordpool_576.txt	LTP187	ltpFR2	8	19	ORANGE	980	n/a	n/a	0	0	0
4086519	REC_WORD	wordpools/wasnorm_wordpool_576.txt	LTP187	ltpFR2	8	19	FRUIT	610	n/a	n/a	0	0	0
4146622	WORD	wordpools/wasnorm_wordpool_576.txt	LTP187	ltpFR2	8	20	HATCHET	691	n/a	n/a	0	0	0
4149108	WORD	wordpools/wasnorm_wordpool_576.txt	LTP187	ltpFR2	8	20	CASHEW	253	n/a	n/a	0	0	0
4151660	WORD	wordpools/wasnorm_wordpool_576.txt	LTP187	ltpFR2	8	20	LACE	792	n/a	n/a	0	0	0
4154430	WORD	wordpools/wasnorm_wordpool_576.txt	LTP187	ltpFR2	8	20	RACKET	1155	n/a	n/a	0	0	0
4157074	WORD	wordpools/wasnorm_wordpool_576.txt	LTP187	ltpFR2	8	20	PASSAGE	1019	n/a	n/a	0	0	0
4159793	WORD	wordpools/wasnorm_wordpool_576.txt	LTP187	ltpFR2	8	20	GARDEN	623	n/a	n/a	0	0	0
4162252	WORD	wordpools/wasnorm_wordpool_576.txt	LTP187	ltpFR2	8	20	GYMNAST	675	n/a	n/a	0	0	0
4164932	WORD	wordpools/wasnorm_wordpool_576.txt	LTP187	ltpFR2	8	20	CASHIER	254	n/a	n/a	0	0	0
4167517	WORD	wordpools/wasnorm_wordpool_576.txt	LTP187	ltpFR2	8	20	LODGE	839	n/a	n/a	0	0	0
4170158	WORD	wordpools/wasnorm_wordpool_576.txt	LTP187	ltpFR2	8	20	LADDER	793	n/a	n/a	0	0	0
4172755	WORD	wordpools/wasnorm_wordpool_576.txt	LTP187	ltpFR2	8	20	WITNESS	1618	n/a	n/a	0	0	0
4175279	WORD	wordpools/wasnorm_wordpool_576.txt	LTP187	ltpFR2	8	20	JUGGLER	763	n/a	n/a	0	0	0
4177893	WORD	wordpools/wasnorm_wordpool_576.txt	LTP187	ltpFR2	8	20	NOMAD	955	n/a	n/a	0	0	0
4180594	WORD	wordpools/wasnorm_wordpool_576.txt	LTP187	ltpFR2	8	20	MONEY	908	n/a	n/a	0	0	0
4183219	WORD	wordpools/wasnorm_wordpool_576.txt	LTP187	ltpFR2	8	20	RECEIPT	1173	n/a	n/a	0	0	0
4185849	WORD	wordpools/wasnorm_wordpool_576.txt	LTP187	ltpFR2	8	20	JAPAN	749	n/a	n/a	0	0	0
4188352	WORD	wordpools/wasnorm_wordpool_576.txt	LTP187	ltpFR2	8	20	FRANCE	601	n/a	n/a	0	0	0
4190770	WORD	wordpools/wasnorm_wordpool_576.txt	LTP187	ltpFR2	8	20	COUNTY	389	n/a	n/a	0	0	0
4193256	WORD	wordpools/wasnorm_wordpool_576.txt	LTP187	ltpFR2	8	20	DOLPHIN	483	n/a	n/a	0	0	0
4195774	WORD	wordpools/wasnorm_wordpool_576.txt	LTP187	ltpFR2	8	20	EYELASH	546	n/a	n/a	0	0	0
4198214	WORD	wordpools/wasnorm_wordpool_576.txt	LTP187	ltpFR2	8	20	PECAN	1036	n/a	n/a	0	0	0
4200745	WORD	wordpools/wasnorm_wordpool_576.txt	LTP187	ltpFR2	8	20	DONOR	485	n/a	n/a	0	0	0
4203169	WORD	wordpools/wasnorm_wordpool_576.txt	LTP187	ltpFR2	8	20	VALVE	1546	n/a	n/a	0	0	0
4205851	WORD	wordpools/wasnorm_wordpool_576.txt	LTP187	ltpFR2	8	20	RUST	1219	n/a	n/a	0	0	0
4207457	START	n/a	LTP187	ltpFR2	8	n/a	n/a	n/a	31	n/a	n/a	n/a	n/a
4208408	DISTRACTOR	n/a	LTP187	ltpFR2	8	20	n/a	n/a	n/a	n/a	0	0	0
4208420	PROB	n/a	LTP187	ltpFR2	8	n/a	n/a	n/a	31	18	6	6	6
4209789	PROB	n/a	LTP187	ltpFR2	8	n/a	n/a	n/a	31	15	5	3	7
4211541	PROB	n/a	LTP187	ltpFR2	8	n/a	n/a	n/a	31	17	9	3	5
4213639	PROB	n/a	LTP187	ltpFR2	8	n/a	n/a	n/a	31	19	6	6	7
4215491	PROB	n/a	LTP187	ltpFR2	8	n/a	n/a	n/a	31	19	8	5	6
4217360	PROB	n/a	LTP187	ltpFR2	8	n/a	n/a	n/a	31	10	1	2	7
4218627	PROB	n/a	LTP187	ltpFR2	8	n/a	n/a	n/a	31	21	8	8	5
4219845	PROB	n/a	LTP187	ltpFR2	8	n/a	n/a	n/a	31	19	4	9	6
4221496	PROB	n/a	LTP187	ltpFR2	8	n/a	n/a	n/a	31	13	2	7	4
4223865	PROB	n/a	LTP187	ltpFR2	8	n/a	n/a	n/a	31	19	9	8	2
4226267	PROB	n/a	LTP187	ltpFR2	8	n/a	n/a	n/a	31	12	4	5	3
4228388	PROB	n/a	LTP187	ltpFR2	8	n/a	n/a	n/a	31	19	7	8	4
4230213	STOP	n/a	LTP187	ltpFR2	8	n/a	n/a	n/a	31	n/a	n/a	n/a	n/a
4233308	REC_START	n/a	LTP187	ltpFR2	8	20	n/a	n/a	n/a	n/a	0	0	0
4234792	REC_WORD	wordpools/wasnorm_wordpool_576.txt	LTP187	ltpFR2	8	20	HATCHET	691	n/a	n/a	0	0	0
4243103	REC_WORD	wordpools/wasnorm_wordpool_576.txt	LTP187	ltpFR2	8	20	PEANUT	1032	n/a	n/a	0	0	0
4244669	REC_WORD	wordpools/wasnorm_wordpool_576.txt	LTP187	ltpFR2	8	20	ALMOND	18	n/a	n/a	0	0	0
4297367	REC_WORD	wordpools/wasnorm_wordpool_576.txt	LTP187	ltpFR2	8	20	WITNESS	1618	n/a	n/a	0	0	0
4298900	REC_WORD	wordpools/wasnorm_wordpool_576.txt	LTP187	ltpFR2	8	20	CASHIER	254	n/a	n/a	0	0	0
4299946	REC_WORD	wordpools/wasnorm_wordpool_576.txt	LTP187	ltpFR2	8	20	RECEIPT	1173	n/a	n/a	0	0	0
4301104	REC_WORD	wordpools/wasnorm_wordpool_576.txt	LTP187	ltpFR2	8	20	JAPAN	749	n/a	n/a	0	0	0
4302378	REC_WORD	wordpools/wasnorm_wordpool_576.txt	LTP187	ltpFR2	8	20	FRANCE	601	n/a	n/a	0	0	0
4303584	REC_WORD	wordpools/wasnorm_wordpool_576.txt	LTP187	ltpFR2	8	20	LADDER	793	n/a	n/a	0	0	0
4323732	DISTRACTOR	n/a	LTP187	ltpFR2	8	21	n/a	n/a	n/a	n/a	0	0	0
4323733	START	n/a	LTP187	ltpFR2	8	n/a	n/a	n/a	32	n/a	n/a	n/a	n/a
4323747	PROB	n/a	LTP187	ltpFR2	8	n/a	n/a	n/a	32	22	7	8	7
4325834	PROB	n/a	LTP187	ltpFR2	8	n/a	n/a	n/a	32	20	6	9	5
4328785	PROB	n/a	LTP187	ltpFR2	8	n/a	n/a	n/a	32	14	1	8	5
4330103	PROB	n/a	LTP187	ltpFR2	8	n/a	n/a	n/a	32	6	3	2	1
4331737	PROB	n/a	LTP187	ltpFR2	8	n/a	n/a	n/a	32	7	2	3	2
4333089	PROB	n/a	LTP187	ltpFR2	8	n/a	n/a	n/a	32	10	5	4	1
4334392	PROB	n/a	LTP187	ltpFR2	8	n/a	n/a	n/a	32	19	8	4	7
4335823	PROB	n/a	LTP187	ltpFR2	8	n/a	n/a	n/a	32	15	2	6	7
4337193	PROB	n/a	LTP187	ltpFR2	8	n/a	n/a	n/a	32	12	4	6	2
4338445	PROB	n/a	LTP187	ltpFR2	8	n/a	n/a	n/a	32	14	8	4	2
4340078	PROB	n/a	LTP187	ltpFR2	8	n/a	n/a	n/a	32	26	8	9	9
4341997	PROB	n/a	LTP187	ltpFR2	8	n/a	n/a	n/a	32	11	2	1	8
4343530	PROB	n/a	LTP187	ltpFR2	8	n/a	n/a	n/a	32	18	6	8	4
4347733	STOP	n/a	LTP187	ltpFR2	8	n/a	n/a	n/a	32	n/a	n/a	n/a	n/a
4348658	WORD	wordpools/wasnorm_wordpool_576.txt	LTP187	ltpFR2	8	21	MARS	873	n/a	n/a	0	0	0
4351076	WORD	wordpools/wasnorm_wordpool_576.txt	LTP187	ltpFR2	8	21	XEROX	1628	n/a	n/a	0	0	0
4353889	WORD	wordpools/wasnorm_wordpool_576.txt	LTP187	ltpFR2	8	21	TABLET	1427	n/a	n/a	0	0	0
4356525	WORD	wordpools/wasnorm_wordpool_576.txt	LTP187	ltpFR2	8	21	RAZOR	1171	n/a	n/a	0	0	0
4358977	WORD	wordpools/wasnorm_wordpool_576.txt	LTP187	ltpFR2	8	21	SCALPEL	1243	n/a	n/a	0	0	0
4361695	WORD	wordpools/wasnorm_wordpool_576.txt	LTP187	ltpFR2	8	21	NURSE	963	n/a	n/a	0	0	0
4364356	WORD	wordpools/wasnorm_wordpool_576.txt	LTP187	ltpFR2	8	21	PORK	1108	n/a	n/a	0	0	0
4367116	WORD	wordpools/wasnorm_wordpool_576.txt	LTP187	ltpFR2	8	21	TEMPLE	1448	n/a	n/a	0	0	0
4369776	WORD	wordpools/wasnorm_wordpool_576.txt	LTP187	ltpFR2	8	21	CRAYON	401	n/a	n/a	0	0	0
4372529	WORD	wordpools/wasnorm_wordpool_576.txt	LTP187	ltpFR2	8	21	MACHINE	852	n/a	n/a	0	0	0
4375207	WORD	wordpools/wasnorm_wordpool_576.txt	LTP187	ltpFR2	8	21	FLIPPER	580	n/a	n/a	0	0	0
4377649	WORD	wordpools/wasnorm_wordpool_576.txt	LTP187	ltpFR2	8	21	HAND	683	n/a	n/a	0	0	0
4380161	WORD	wordpools/wasnorm_wordpool_576.txt	LTP187	ltpFR2	8	21	ARM	38	n/a	n/a	0	0	0
4382629	WORD	wordpools/wasnorm_wordpool_576.txt	LTP187	ltpFR2	8	21	ACTOR	5	n/a	n/a	0	0	0
4385190	WORD	wordpools/wasnorm_wordpool_576.txt	LTP187	ltpFR2	8	21	EXPERT	543	n/a	n/a	0	0	0
4387742	WORD	wordpools/wasnorm_wordpool_576.txt	LTP187	ltpFR2	8	21	QUARTER	1148	n/a	n/a	0	0	0
4390168	WORD	wordpools/wasnorm_wordpool_576.txt	LTP187	ltpFR2	8	21	CHAMPAGNE	278	n/a	n/a	0	0	0
4392870	WORD	wordpools/wasnorm_wordpool_576.txt	LTP187	ltpFR2	8	21	DRAGON	492	n/a	n/a	0	0	0
4395649	WORD	wordpools/wasnorm_wordpool_576.txt	LTP187	ltpFR2	8	21	DIME	466	n/a	n/a	0	0	0
4398275	WORD	wordpools/wasnorm_wordpool_576.txt	LTP187	ltpFR2	8	21	OYSTER	995	n/a	n/a	0	0	0
4400727	WORD	wordpools/wasnorm_wordpool_576.txt	LTP187	ltpFR2	8	21	AGENT	10	n/a	n/a	0	0	0
4403357	WORD	wordpools/wasnorm_wordpool_576.txt	LTP187	ltpFR2	8	21	STAKE	1368	n/a	n/a	0	0	0
4405815	WORD	wordpools/wasnorm_wordpool_576.txt	LTP187	ltpFR2	8	21	LUMBER	848	n/a	n/a	0	0	0
4408610	WORD	wordpools/wasnorm_wordpool_576.txt	LTP187	ltpFR2	8	21	STREAM	1392	n/a	n/a	0	0	0
4410219	START	n/a	LTP187	ltpFR2	8	n/a	n/a	n/a	33	n/a	n/a	n/a	n/a
4411281	DISTRACTOR	n/a	LTP187	ltpFR2	8	21	n/a	n/a	n/a	n/a	0	0	0
4411286	PROB	n/a	LTP187	ltpFR2	8	n/a	n/a	n/a	33	15	5	1	9
4413087	PROB	n/a	LTP187	ltpFR2	8	n/a	n/a	n/a	33	20	7	4	9
4414722	PROB	n/a	LTP187	ltpFR2	8	n/a	n/a	n/a	33	17	8	5	4
4420309	PROB	n/a	LTP187	ltpFR2	8	n/a	n/a	n/a	33	6	1	1	4
4421644	PROB	n/a	LTP187	ltpFR2	8	n/a	n/a	n/a	33	12	3	3	6
4423144	PROB	n/a	LTP187	ltpFR2	8	n/a	n/a	n/a	33	15	8	3	4
4424296	PROB	n/a	LTP187	ltpFR2	8	n/a	n/a	n/a	33	17	8	2	7
4425398	PROB	n/a	LTP187	ltpFR2	8	n/a	n/a	n/a	33	13	6	2	5
4428164	PROB	n/a	LTP187	ltpFR2	8	n/a	n/a	n/a	33	9	3	4	2
4429350	PROB	n/a	LTP187	ltpFR2	8	n/a	n/a	n/a	33	13	7	2	1
4430635	PROB	n/a	LTP187	ltpFR2	8	n/a	n/a	n/a	33	24	9	8	7
4433165	STOP	n/a	LTP187	ltpFR2	8	n/a	n/a	n/a	33	n/a	n/a	n/a	n/a
4436123	REC_START	n/a	LTP187	ltpFR2	8	21	n/a	n/a	n/a	n/a	0	0	0
4439938	REC_WORD	wordpools/wasnorm_wordpool_576.txt	LTP187	ltpFR2	8	21	MARKS	-1	n/a	n/a	0	0	0
4444168	REC_WORD	wordpools/wasnorm_wordpool_576.txt	LTP187	ltpFR2	8	21	FLIPPER	580	n/a	n/a	0	0	0
4445231	REC_WORD	wordpools/wasnorm_wordpool_576.txt	LTP187	ltpFR2	8	21	ARM	38	n/a	n/a	0	0	0
4446269	REC_WORD	wordpools/wasnorm_wordpool_576.txt	LTP187	ltpFR2	8	21	HAND	683	n/a	n/a	0	0	0
4451624	REC_WORD	wordpools/wasnorm_wordpool_576.txt	LTP187	ltpFR2	8	21	SKILLET	1317	n/a	n/a	0	0	0
4454456	REC_WORD	wordpools/wasnorm_wordpool_576.txt	LTP187	ltpFR2	8	21	SCALPEL	1243	n/a	n/a	0	0	0
4463209	REC_WORD	wordpools/wasnorm_wordpool_576.txt	LTP187	ltpFR2	8	21	PORK	1108	n/a	n/a	0	0	0
4479812	REC_WORD	wordpools/wasnorm_wordpool_576.txt	LTP187	ltpFR2	8	21	RAZOR	1171	n/a	n/a	0	0	0
4526577	WORD	wordpools/wasnorm_wordpool_576.txt	LTP187	ltpFR2	8	22	BRACES	164	n/a	n/a	0	0	0
4529030	WORD	wordpools/wasnorm_wordpool_576.txt	LTP187	ltpFR2	8	22	AWARD	63	n/a	n/a	0	0	0
4531615	WORD	wordpools/wasnorm_wordpool_576.txt	LTP187	ltpFR2	8	22	TUBA	1515	n/a	n/a	0	0	0
4534217	WORD	wordpools/wasnorm_wordpool_576.txt	LTP187	ltpFR2	8	22	SKETCH	1315	n/a	n/a	0	0	0
4536653	WORD	wordpools/wasnorm_wordpool_576.txt	LTP187	ltpFR2	8	22	PICTURE	1061	n/a	n/a	0	0	0
4539238	WORD	wordpools/wasnorm_wordpool_576.txt	LTP187	ltpFR2	8	22	KNAPSACK	783	n/a	n/a	0	0	0
4541660	WORD	wordpools/wasnorm_wordpool_576.txt	LTP187	ltpFR2	8	22	PIGMENT	1066	n/a	n/a	0	0	0
4544225	WORD	wordpools/wasnorm_wordpool_576.txt	LTP187	ltpFR2	8	22	SCULPTURE	1258	n/a	n/a	0	0	0
4546795	WORD	wordpools/wasnorm_wordpool_576.txt	LTP187	ltpFR2	8	22	GLASS	639	n/a	n/a	0	0	0
4549513	WORD	wordpools/wasnorm_wordpool_576.txt	LTP187	ltpFR2	8	22	RABBIT	1152	n/a	n/a	0	0	0
4552265	WORD	wordpools/wasnorm_wordpool_576.txt	LTP187	ltpFR2	8	22	TRUCK	1512	n/a	n/a	0	0	0
4554884	WORD	wordpools/wasnorm_wordpool_576.txt	LTP187	ltpFR2	8	22	LAVA	804	n/a	n/a	0	0	0
4557319	WORD	wordpools/wasnorm_wordpool_576.txt	LTP187	ltpFR2	8	22	BASEMENT	94	n/a	n/a	0	0	0
4560021	WORD	wordpools/wasnorm_wordpool_576.txt	LTP187	ltpFR2	8	22	GARBAGE	622	n/a	n/a	0	0	0
4562778	WORD	wordpools/wasnorm_wordpool_576.txt	LTP187	ltpFR2	8	22	BUNNY	198	n/a	n/a	0	0	0
4565526	WORD	wordpools/wasnorm_wordpool_576.txt	LTP187	ltpFR2	8	22	POSSUM	1112	n/a	n/a	0	0	0
4568111	WORD	wordpools/wasnorm_wordpool_576.txt	LTP187	ltpFR2	8	22	MAMMAL	861	n/a	n/a	0	0	0
4570831	WORD	wordpools/wasnorm_wordpool_576.txt	LTP187	ltpFR2	8	22	CLIMBER	323	n/a	n/a	0	0	0
4573532	WORD	wordpools/wasnorm_wordpool_576.txt	LTP187	ltpFR2	8	22	LILY	821	n/a	n/a	0	0	0
4576323	WORD	wordpools/wasnorm_wordpool_576.txt	LTP187	ltpFR2	8	22	TORTOISE	1486	n/a	n/a	0	0	0
4578758	WORD	wordpools/wasnorm_wordpool_576.txt	LTP187	ltpFR2	8	22	STATUE	1374	n/a	n/a	0	0	0
4581505	WORD	wordpools/wasnorm_wordpool_576.txt	LTP187	ltpFR2	8	22	GUITAR	670	n/a	n/a	0	0	0
4584229	WORD	wordpools/wasnorm_wordpool_576.txt	LTP187	ltpFR2	8	22	OINTMENT	974	n/a	n/a	0	0	0
4587033	WORD	wordpools/wasnorm_wordpool_576.txt	LTP187	ltpFR2	8	22	MISSILE	900	n/a	n/a	0	0	0
4588645	START	n/a	LTP187	ltpFR2	8	n/a	n/a	n/a	34	n/a	n/a	n/a	n/a
4589767	DISTRACTOR	n/a	LTP187	ltpFR2	8	22	n/a	n/a	n/a	n/a	0	0	0
4589778	PROB	n/a	LTP187	ltpFR2	8	n/a	n/a	n/a	34	5	1	2	2
4591846	PROB	n/a	LTP187	ltpFR2	8	n/a	n/a	n/a	34	17	8	7	2
4594350	PROB	n/a	LTP187	ltpFR2	8	n/a	n/a	n/a	34	22	6	9	7
4596818	PROB	n/a	LTP187	ltpFR2	8	n/a	n/a	n/a	34	19	7	6	6
4598118	PROB	n/a	LTP187	ltpFR2	8	n/a	n/a	n/a	34	14	6	4	4
4599202	PROB	n/a	LTP187	ltpFR2	8	n/a	n/a	n/a	34	20	9	7	4
4601671	PROB	n/a	LTP187	ltpFR2	8	n/a	n/a	n/a	34	6	1	4	1
4602655	PROB	n/a	LTP187	ltpFR2	8	n/a	n/a	n/a	34	12	4	3	5
4603824	PROB	n/a	LTP187	ltpFR2	8	n/a	n/a	n/a	34	17	5	8	4
4605525	PROB	n/a	LTP187	ltpFR2	8	n/a	n/a	n/a	34	18	9	8	1
4607159	PROB	n/a	LTP187	ltpFR2	8	n/a	n/a	n/a	34	11	7	2	2
4608410	PROB	n/a	LTP187	ltpFR2	8	n/a	n/a	n/a	34	16	2	5	9
4610445	PROB	n/a	LTP187	ltpFR2	8	n/a	n/a	n/a	34	10	1	3	6
4611748	STOP	n/a	LTP187	ltpFR2	8	n/a	n/a	n/a	34	n/a	n/a	n/a	n/a
4614433	REC_START	n/a	LTP187	ltpFR2	8	22	n/a	n/a	n/a	n/a	0	0	0
4618873	REC_WORD	wordpools/wasnorm_wordpool_576.txt	LTP187	ltpFR2	8	22	TORTOISE	1486	n/a	n/a	0	0	0
4620536	REC_WORD	wordpools/wasnorm_wordpool_576.txt	LTP187	ltpFR2	8	22	LILY	821	n/a	n/a	0	0	0
4630146	REC_WORD	wordpools/wasnorm_wordpool_576.txt	LTP187	ltpFR2	8	22	MAMMAL	861	n/a	n/a	0	0	0
4635012	REC_WORD	wordpools/wasnorm_wordpool_576.txt	LTP187	ltpFR2	8	22	MISSILE	900	n/a	n/a	0	0	0
4704867	WORD	wordpools/wasnorm_wordpool_576.txt	LTP187	ltpFR2	8	23	DAUGHTER	442	n/a	n/a	0	0	0
4707604	WORD	wordpools/wasnorm_wordpool_576.txt	LTP187	ltpFR2	8	23	STAMP	1370	n/a	n/a	0	0	0
4710239	WORD	wordpools/wasnorm_wordpool_576.txt	LTP187	ltpFR2	8	23	PARENT	1013	n/a	n/a	0	0	0
4712660	WORD	wordpools/wasnorm_wordpool_576.txt	LTP187	ltpFR2	8	23	HONEY	713	n/a	n/a	0	0	0
4715277	WORD	wordpools/wasnorm_wordpool_576.txt	LTP187	ltpFR2	8	23	SIBLING	1301	n/a	n/a	0	0	0
4717796	WORD	wordpools/wasnorm_wordpool_576.txt	LTP187	ltpFR2	8	23	GRAVEL	659	n/a	n/a	0	0	0
4720516	WORD	wordpools/wasnorm_wordpool_576.txt	LTP187	ltpFR2	8	23	MARINE	869	n/a	n/a	0	0	0
4723218	WORD	wordpools/wasnorm_wordpool_576.txt	LTP187	ltpFR2	8	23	RIVER	1194	n/a	n/a	0	0	0
4725836	WORD	wordpools/wasnorm_wordpool_576.txt	LTP187	ltpFR2	8	23	PIGEON	1065	n/a	n/a	0	0	0
4728573	WORD	wordpools/wasnorm_wordpool_576.txt	LTP187	ltpFR2	8	23	BLACKBOARD	133	n/a	n/a	0	0	0
4731108	WORD	wordpools/wasnorm_wordpool_576.txt	LTP187	ltpFR2	8	23	RECORD	1176	n/a	n/a	0	0	0
4733927	WORD	wordpools/wasnorm_wordpool_576.txt	LTP187	ltpFR2	8	23	SADDLE	1221	n/a	n/a	0	0	0
4736364	WORD	wordpools/wasnorm_wordpool_576.txt	LTP187	ltpFR2	8	23	EGYPT	519	n/a	n/a	0	0	0
4738847	WORD	wordpools/wasnorm_wordpool_576.txt	LTP187	ltpFR2	8	23	FLUTE	585	n/a	n/a	0	0	0
4741384	WORD	wordpools/wasnorm_wordpool_576.txt	LTP187	ltpFR2	8	23	BOARD	143	n/a	n/a	0	0	0
4744102	WORD	wordpools/wasnorm_wordpool_576.txt	LTP187	ltpFR2	8	23	SPOON	1357	n/a	n/a	0	0	0
4746654	WORD	wordpools/wasnorm_wordpool_576.txt	LTP187	ltpFR2	8	23	SWORD	1423	n/a	n/a	0	0	0
4749408	WORD	wordpools/wasnorm_wordpool_576.txt	LTP187	ltpFR2	8	23	RUG	1215	n/a	n/a	0	0	0
