onset	duration	trial_type	sample	stim_file	subject	experiment	session	trial	item_name	item_num	list	answer	test_x	test_y	test_z
223.244	n/a	SESS_START	111622	n/a	LTP251	ltpFR2	15	n/a	n/a	n/a	n/a	n/a	0	0	0
237.596	n/a	START	118798	n/a	LTP251	ltpFR2	15	n/a	n/a	n/a	-1	n/a	n/a	n/a	n/a
237.61	n/a	PROB	118805	n/a	LTP251	ltpFR2	15	n/a	n/a	n/a	-1	11	1	4	6
239.346	n/a	PROB	119673	n/a	LTP251	ltpFR2	15	n/a	n/a	n/a	-1	1	7	4	6
241.812	n/a	PROB	120906	n/a	LTP251	ltpFR2	15	n/a	n/a	n/a	-1	14	3	9	1
243.332	n/a	PROB	121666	n/a	LTP251	ltpFR2	15	n/a	n/a	n/a	-1	13	2	9	2
244.898	n/a	PROB	122449	n/a	LTP251	ltpFR2	15	n/a	n/a	n/a	-1	16	6	3	7
246.25	n/a	PROB	123125	n/a	LTP251	ltpFR2	15	n/a	n/a	n/a	-1	7	2	3	2
248.868	n/a	STOP	124434	n/a	LTP251	ltpFR2	15	n/a	n/a	n/a	-1	n/a	n/a	n/a	n/a
287.864	n/a	DISTRACTOR	143932	n/a	LTP251	ltpFR2	15	1	n/a	n/a	n/a	n/a	0	0	0
287.864	n/a	START	143932	n/a	LTP251	ltpFR2	15	n/a	n/a	n/a	1	n/a	n/a	n/a	n/a
287.882	n/a	PROB	143941	n/a	LTP251	ltpFR2	15	n/a	n/a	n/a	1	11	3	2	6
289.216	n/a	PROB	144608	n/a	LTP251	ltpFR2	15	n/a	n/a	n/a	1	4	1	1	2
290.3	n/a	PROB	145150	n/a	LTP251	ltpFR2	15	n/a	n/a	n/a	1	14	7	2	5
292.218	n/a	PROB	146109	n/a	LTP251	ltpFR2	15	n/a	n/a	n/a	1	19	8	2	9
293.468	n/a	PROB	146734	n/a	LTP251	ltpFR2	15	n/a	n/a	n/a	1	14	1	4	9
294.886	n/a	PROB	147443	n/a	LTP251	ltpFR2	15	n/a	n/a	n/a	1	15	3	8	4
296.754	n/a	PROB	148377	n/a	LTP251	ltpFR2	15	n/a	n/a	n/a	1	8	1	2	5
297.924	n/a	PROB	148962	n/a	LTP251	ltpFR2	15	n/a	n/a	n/a	1	10	6	2	2
299.208	n/a	PROB	149604	n/a	LTP251	ltpFR2	15	n/a	n/a	n/a	1	18	9	3	6
301.126	n/a	PROB	150563	n/a	LTP251	ltpFR2	15	n/a	n/a	n/a	1	14	8	2	4
302.276	n/a	PROB	151138	n/a	LTP251	ltpFR2	15	n/a	n/a	n/a	1	14	7	1	6
303.928	n/a	PROB	151964	n/a	LTP251	ltpFR2	15	n/a	n/a	n/a	1	17	6	4	7
305.232	n/a	PROB	152616	n/a	LTP251	ltpFR2	15	n/a	n/a	n/a	1	23	9	6	8
307.03	n/a	PROB	153515	n/a	LTP251	ltpFR2	15	n/a	n/a	n/a	1	19	5	9	5
308.582	n/a	PROB	154291	n/a	LTP251	ltpFR2	15	n/a	n/a	n/a	1	19	1	9	9
310.32	n/a	PROB	155160	n/a	LTP251	ltpFR2	15	n/a	n/a	n/a	1	10	3	2	5
311.508	n/a	STOP	155754	n/a	LTP251	ltpFR2	15	n/a	n/a	n/a	1	n/a	n/a	n/a	n/a
312.918	n/a	WORD	156459	wordpools/wasnorm_wordpool_576.txt	LTP251	ltpFR2	15	1	STOMACH	1384	n/a	n/a	0	0	0
315.622	n/a	WORD	157811	wordpools/wasnorm_wordpool_576.txt	LTP251	ltpFR2	15	1	BELLY	119	n/a	n/a	0	0	0
318.106	n/a	WORD	159053	wordpools/wasnorm_wordpool_576.txt	LTP251	ltpFR2	15	1	PADDING	999	n/a	n/a	0	0	0
320.758	n/a	WORD	160379	wordpools/wasnorm_wordpool_576.txt	LTP251	ltpFR2	15	1	FLASHLIGHT	575	n/a	n/a	0	0	0
323.494	n/a	WORD	161747	wordpools/wasnorm_wordpool_576.txt	LTP251	ltpFR2	15	1	SWITCH	1422	n/a	n/a	0	0	0
326.23	n/a	WORD	163115	wordpools/wasnorm_wordpool_576.txt	LTP251	ltpFR2	15	1	NIGHTGOWN	953	n/a	n/a	0	0	0
328.982	n/a	WORD	164491	wordpools/wasnorm_wordpool_576.txt	LTP251	ltpFR2	15	1	FARMER	553	n/a	n/a	0	0	0
331.584	n/a	WORD	165792	wordpools/wasnorm_wordpool_576.txt	LTP251	ltpFR2	15	1	GARBAGE	622	n/a	n/a	0	0	0
334.086	n/a	WORD	167043	wordpools/wasnorm_wordpool_576.txt	LTP251	ltpFR2	15	1	TUBA	1515	n/a	n/a	0	0	0
336.538	n/a	WORD	168269	wordpools/wasnorm_wordpool_576.txt	LTP251	ltpFR2	15	1	RAZOR	1171	n/a	n/a	0	0	0
339.258	n/a	WORD	169629	wordpools/wasnorm_wordpool_576.txt	LTP251	ltpFR2	15	1	CHAMPAGNE	278	n/a	n/a	0	0	0
341.692	n/a	WORD	170846	wordpools/wasnorm_wordpool_576.txt	LTP251	ltpFR2	15	1	SODA	1341	n/a	n/a	0	0	0
344.296	n/a	WORD	172148	wordpools/wasnorm_wordpool_576.txt	LTP251	ltpFR2	15	1	RACKET	1155	n/a	n/a	0	0	0
347.114	n/a	WORD	173557	wordpools/wasnorm_wordpool_576.txt	LTP251	ltpFR2	15	1	LODGE	839	n/a	n/a	0	0	0
349.766	n/a	WORD	174883	wordpools/wasnorm_wordpool_576.txt	LTP251	ltpFR2	15	1	BLADE	134	n/a	n/a	0	0	0
352.334	n/a	WORD	176167	wordpools/wasnorm_wordpool_576.txt	LTP251	ltpFR2	15	1	ROBBER	1197	n/a	n/a	0	0	0
354.92	n/a	WORD	177460	wordpools/wasnorm_wordpool_576.txt	LTP251	ltpFR2	15	1	CRIB	407	n/a	n/a	0	0	0
357.72	n/a	WORD	178860	wordpools/wasnorm_wordpool_576.txt	LTP251	ltpFR2	15	1	SERVER	1272	n/a	n/a	0	0	0
360.358	n/a	WORD	180179	wordpools/wasnorm_wordpool_576.txt	LTP251	ltpFR2	15	1	KIDNEY	776	n/a	n/a	0	0	0
362.892	n/a	WORD	181446	wordpools/wasnorm_wordpool_576.txt	LTP251	ltpFR2	15	1	BUBBLE	183	n/a	n/a	0	0	0
365.446	n/a	WORD	182723	wordpools/wasnorm_wordpool_576.txt	LTP251	ltpFR2	15	1	CHILD	299	n/a	n/a	0	0	0
368.228	n/a	WORD	184114	wordpools/wasnorm_wordpool_576.txt	LTP251	ltpFR2	15	1	BURGLAR	200	n/a	n/a	0	0	0
370.764	n/a	WORD	185382	wordpools/wasnorm_wordpool_576.txt	LTP251	ltpFR2	15	1	LOVER	846	n/a	n/a	0	0	0
373.366	n/a	WORD	186683	wordpools/wasnorm_wordpool_576.txt	LTP251	ltpFR2	15	1	SIBLING	1301	n/a	n/a	0	0	0
374.972	n/a	START	187486	n/a	LTP251	ltpFR2	15	n/a	n/a	n/a	2	n/a	n/a	n/a	n/a
375.858	n/a	DISTRACTOR	187929	n/a	LTP251	ltpFR2	15	1	n/a	n/a	n/a	n/a	0	0	0
375.868	n/a	PROB	187934	n/a	LTP251	ltpFR2	15	n/a	n/a	n/a	2	17	8	7	2
378.102	n/a	PROB	189051	n/a	LTP251	ltpFR2	15	n/a	n/a	n/a	2	10	7	1	2
379.306	n/a	PROB	189653	n/a	LTP251	ltpFR2	15	n/a	n/a	n/a	2	20	8	9	3
381.822	n/a	PROB	190911	n/a	LTP251	ltpFR2	15	n/a	n/a	n/a	2	21	8	7	6
384.308	n/a	PROB	192154	n/a	LTP251	ltpFR2	15	n/a	n/a	n/a	2	12	8	1	3
385.792	n/a	PROB	192896	n/a	LTP251	ltpFR2	15	n/a	n/a	n/a	2	17	7	1	9
388.544	n/a	PROB	194272	n/a	LTP251	ltpFR2	15	n/a	n/a	n/a	2	14	7	4	3
390.08	n/a	PROB	195040	n/a	LTP251	ltpFR2	15	n/a	n/a	n/a	2	17	5	7	5
391.914	n/a	PROB	195957	n/a	LTP251	ltpFR2	15	n/a	n/a	n/a	2	18	3	9	6
393.766	n/a	PROB	196883	n/a	LTP251	ltpFR2	15	n/a	n/a	n/a	2	15	3	6	6
396.384	n/a	PROB	198192	n/a	LTP251	ltpFR2	15	n/a	n/a	n/a	2	13	4	5	4
398.774	n/a	STOP	199387	n/a	LTP251	ltpFR2	15	n/a	n/a	n/a	2	n/a	n/a	n/a	n/a
400.72	n/a	REC_START	200360	n/a	LTP251	ltpFR2	15	1	n/a	n/a	n/a	n/a	0	0	0
402.078	n/a	REC_WORD	201039	wordpools/wasnorm_wordpool_576.txt	LTP251	ltpFR2	15	1	STOMACH	1384	n/a	n/a	0	0	0
403.078	n/a	REC_WORD_VV	201539	wordpools/wasnorm_wordpool_576.txt	LTP251	ltpFR2	15	1	<>	-1	n/a	n/a	0	0	0
403.52	n/a	REC_WORD	201760	wordpools/wasnorm_wordpool_576.txt	LTP251	ltpFR2	15	1	BELLY	119	n/a	n/a	0	0	0
404.604	n/a	REC_WORD	202302	wordpools/wasnorm_wordpool_576.txt	LTP251	ltpFR2	15	1	KIDNEY	776	n/a	n/a	0	0	0
405.966	n/a	REC_WORD	202983	wordpools/wasnorm_wordpool_576.txt	LTP251	ltpFR2	15	1	PADDING	999	n/a	n/a	0	0	0
407.196	n/a	REC_WORD	203598	wordpools/wasnorm_wordpool_576.txt	LTP251	ltpFR2	15	1	SWITCH	1422	n/a	n/a	0	0	0
408.394	n/a	REC_WORD	204197	wordpools/wasnorm_wordpool_576.txt	LTP251	ltpFR2	15	1	FLASHLIGHT	575	n/a	n/a	0	0	0
409.394	n/a	REC_WORD_VV	204697	wordpools/wasnorm_wordpool_576.txt	LTP251	ltpFR2	15	1	<>	-1	n/a	n/a	0	0	0
412.442	n/a	REC_WORD	206221	wordpools/wasnorm_wordpool_576.txt	LTP251	ltpFR2	15	1	BURGLAR	200	n/a	n/a	0	0	0
414.052	n/a	REC_WORD	207026	wordpools/wasnorm_wordpool_576.txt	LTP251	ltpFR2	15	1	CHILD	299	n/a	n/a	0	0	0
415.338	n/a	REC_WORD	207669	wordpools/wasnorm_wordpool_576.txt	LTP251	ltpFR2	15	1	LOVER	846	n/a	n/a	0	0	0
416.738	n/a	REC_WORD	208369	wordpools/wasnorm_wordpool_576.txt	LTP251	ltpFR2	15	1	RAZOR	1171	n/a	n/a	0	0	0
418.334	n/a	REC_WORD	209167	wordpools/wasnorm_wordpool_576.txt	LTP251	ltpFR2	15	1	BLADE	134	n/a	n/a	0	0	0
420.178	n/a	REC_WORD	210089	wordpools/wasnorm_wordpool_576.txt	LTP251	ltpFR2	15	1	BUBBLE	183	n/a	n/a	0	0	0
423.382	n/a	REC_WORD	211691	wordpools/wasnorm_wordpool_576.txt	LTP251	ltpFR2	15	1	TUBA	1515	n/a	n/a	0	0	0
424.692	n/a	REC_WORD	212346	wordpools/wasnorm_wordpool_576.txt	LTP251	ltpFR2	15	1	RACKET	1155	n/a	n/a	0	0	0
426.746	n/a	REC_WORD	213373	wordpools/wasnorm_wordpool_576.txt	LTP251	ltpFR2	15	1	LODGE	839	n/a	n/a	0	0	0
443.906	n/a	REC_WORD	221953	wordpools/wasnorm_wordpool_576.txt	LTP251	ltpFR2	15	1	SIBLING	1301	n/a	n/a	0	0	0
450.94	n/a	REC_WORD_VV	225470	wordpools/wasnorm_wordpool_576.txt	LTP251	ltpFR2	15	1	<>	-1	n/a	n/a	0	0	0
491.152	n/a	WORD	245576	wordpools/wasnorm_wordpool_576.txt	LTP251	ltpFR2	15	2	MONSTER	912	n/a	n/a	0	0	0
493.806	n/a	WORD	246903	wordpools/wasnorm_wordpool_576.txt	LTP251	ltpFR2	15	2	EXPERT	543	n/a	n/a	0	0	0
496.408	n/a	WORD	248204	wordpools/wasnorm_wordpool_576.txt	LTP251	ltpFR2	15	2	TEACHER	1440	n/a	n/a	0	0	0
499.216	n/a	WORD	249608	wordpools/wasnorm_wordpool_576.txt	LTP251	ltpFR2	15	2	STUDENT	1395	n/a	n/a	0	0	0
501.73	n/a	WORD	250865	wordpools/wasnorm_wordpool_576.txt	LTP251	ltpFR2	15	2	BANJO	82	n/a	n/a	0	0	0
504.536	n/a	WORD	252268	wordpools/wasnorm_wordpool_576.txt	LTP251	ltpFR2	15	2	HATCHET	691	n/a	n/a	0	0	0
507.35	n/a	WORD	253675	wordpools/wasnorm_wordpool_576.txt	LTP251	ltpFR2	15	2	YARN	1631	n/a	n/a	0	0	0
509.952	n/a	WORD	254976	wordpools/wasnorm_wordpool_576.txt	LTP251	ltpFR2	15	2	PLAZA	1088	n/a	n/a	0	0	0
512.422	n/a	WORD	256211	wordpools/wasnorm_wordpool_576.txt	LTP251	ltpFR2	15	2	SCRIBBLE	1256	n/a	n/a	0	0	0
515.126	n/a	WORD	257563	wordpools/wasnorm_wordpool_576.txt	LTP251	ltpFR2	15	2	JOURNAL	760	n/a	n/a	0	0	0
517.68	n/a	WORD	258840	wordpools/wasnorm_wordpool_576.txt	LTP251	ltpFR2	15	2	CRITIC	410	n/a	n/a	0	0	0
520.23	n/a	WORD	260115	wordpools/wasnorm_wordpool_576.txt	LTP251	ltpFR2	15	2	POWDER	1117	n/a	n/a	0	0	0
522.746	n/a	WORD	261373	wordpools/wasnorm_wordpool_576.txt	LTP251	ltpFR2	15	2	COUNTY	389	n/a	n/a	0	0	0
525.402	n/a	WORD	262701	wordpools/wasnorm_wordpool_576.txt	LTP251	ltpFR2	15	2	WIFE	1609	n/a	n/a	0	0	0
528.152	n/a	WORD	264076	wordpools/wasnorm_wordpool_576.txt	LTP251	ltpFR2	15	2	PIGEON	1065	n/a	n/a	0	0	0
530.704	n/a	WORD	265352	wordpools/wasnorm_wordpool_576.txt	LTP251	ltpFR2	15	2	DONKEY	484	n/a	n/a	0	0	0
533.158	n/a	WORD	266579	wordpools/wasnorm_wordpool_576.txt	LTP251	ltpFR2	15	2	PISTOL	1075	n/a	n/a	0	0	0
535.808	n/a	WORD	267904	wordpools/wasnorm_wordpool_576.txt	LTP251	ltpFR2	15	2	DENIM	446	n/a	n/a	0	0	0
538.612	n/a	WORD	269306	wordpools/wasnorm_wordpool_576.txt	LTP251	ltpFR2	15	2	PICNIC	1060	n/a	n/a	0	0	0
541.364	n/a	WORD	270682	wordpools/wasnorm_wordpool_576.txt	LTP251	ltpFR2	15	2	FLUTE	585	n/a	n/a	0	0	0
543.898	n/a	WORD	271949	wordpools/wasnorm_wordpool_576.txt	LTP251	ltpFR2	15	2	SALMON	1227	n/a	n/a	0	0	0
546.718	n/a	WORD	273359	wordpools/wasnorm_wordpool_576.txt	LTP251	ltpFR2	15	2	GARDEN	623	n/a	n/a	0	0	0
549.47	n/a	WORD	274735	wordpools/wasnorm_wordpool_576.txt	LTP251	ltpFR2	15	2	LILY	821	n/a	n/a	0	0	0
552.004	n/a	WORD	276002	wordpools/wasnorm_wordpool_576.txt	LTP251	ltpFR2	15	2	SPOON	1357	n/a	n/a	0	0	0
553.624	n/a	START	276812	n/a	LTP251	ltpFR2	15	n/a	n/a	n/a	3	n/a	n/a	n/a	n/a
554.632	n/a	DISTRACTOR	277316	n/a	LTP251	ltpFR2	15	2	n/a	n/a	n/a	n/a	0	0	0
554.64	n/a	PROB	277320	n/a	LTP251	ltpFR2	15	n/a	n/a	n/a	3	18	7	3	8
556.278	n/a	PROB	278139	n/a	LTP251	ltpFR2	15	n/a	n/a	n/a	3	25	9	7	9
558.228	n/a	PROB	279114	n/a	LTP251	ltpFR2	15	n/a	n/a	n/a	3	15	9	1	6
560.278	n/a	PROB	280139	n/a	LTP251	ltpFR2	15	n/a	n/a	n/a	3	14	2	9	3
562.012	n/a	PROB	281006	n/a	LTP251	ltpFR2	15	n/a	n/a	n/a	3	10	8	1	1
563.112	n/a	PROB	281556	n/a	LTP251	ltpFR2	15	n/a	n/a	n/a	3	14	1	8	5
565.614	n/a	PROB	282807	n/a	LTP251	ltpFR2	15	n/a	n/a	n/a	3	14	6	1	7
566.9	n/a	PROB	283450	n/a	LTP251	ltpFR2	15	n/a	n/a	n/a	3	17	9	5	3
568.686	n/a	PROB	284343	n/a	LTP251	ltpFR2	15	n/a	n/a	n/a	3	12	2	9	1
570.322	n/a	PROB	285161	n/a	LTP251	ltpFR2	15	n/a	n/a	n/a	3	15	8	3	4
571.92	n/a	PROB	285960	n/a	LTP251	ltpFR2	15	n/a	n/a	n/a	3	9	3	1	5
573.556	n/a	PROB	286778	n/a	LTP251	ltpFR2	15	n/a	n/a	n/a	3	13	1	6	6
574.806	n/a	PROB	287403	n/a	LTP251	ltpFR2	15	n/a	n/a	n/a	3	10	6	3	1
577.624	n/a	STOP	288812	n/a	LTP251	ltpFR2	15	n/a	n/a	n/a	3	n/a	n/a	n/a	n/a
579.528	n/a	REC_START	289764	n/a	LTP251	ltpFR2	15	2	n/a	n/a	n/a	n/a	0	0	0
581.682	n/a	REC_WORD	290841	wordpools/wasnorm_wordpool_576.txt	LTP251	ltpFR2	15	2	TEACHER	1440	n/a	n/a	0	0	0
583.088	n/a	REC_WORD	291544	wordpools/wasnorm_wordpool_576.txt	LTP251	ltpFR2	15	2	STUDENT	1395	n/a	n/a	0	0	0
584.638	n/a	REC_WORD	292319	wordpools/wasnorm_wordpool_576.txt	LTP251	ltpFR2	15	2	BANJO	82	n/a	n/a	0	0	0
585.794	n/a	REC_WORD	292897	wordpools/wasnorm_wordpool_576.txt	LTP251	ltpFR2	15	2	FLUTE	585	n/a	n/a	0	0	0
586.968	n/a	REC_WORD	293484	wordpools/wasnorm_wordpool_576.txt	LTP251	ltpFR2	15	2	SPOON	1357	n/a	n/a	0	0	0
588.29	n/a	REC_WORD	294145	wordpools/wasnorm_wordpool_576.txt	LTP251	ltpFR2	15	2	YARN	1631	n/a	n/a	0	0	0
589.664	n/a	REC_WORD	294832	wordpools/wasnorm_wordpool_576.txt	LTP251	ltpFR2	15	2	JOURNAL	760	n/a	n/a	0	0	0
590.774	n/a	REC_WORD	295387	wordpools/wasnorm_wordpool_576.txt	LTP251	ltpFR2	15	2	SCRIBBLE	1256	n/a	n/a	0	0	0
592.608	n/a	REC_WORD	296304	wordpools/wasnorm_wordpool_576.txt	LTP251	ltpFR2	15	2	POWDER	1117	n/a	n/a	0	0	0
594.832	n/a	REC_WORD	297416	wordpools/wasnorm_wordpool_576.txt	LTP251	ltpFR2	15	2	DONKEY	484	n/a	n/a	0	0	0
596.058	n/a	REC_WORD	298029	wordpools/wasnorm_wordpool_576.txt	LTP251	ltpFR2	15	2	PIGEON	1065	n/a	n/a	0	0	0
597.488	n/a	REC_WORD	298744	wordpools/wasnorm_wordpool_576.txt	LTP251	ltpFR2	15	2	LILY	821	n/a	n/a	0	0	0
598.974	n/a	REC_WORD	299487	wordpools/wasnorm_wordpool_576.txt	LTP251	ltpFR2	15	2	GARDEN	623	n/a	n/a	0	0	0
601.902	n/a	REC_WORD	300951	wordpools/wasnorm_wordpool_576.txt	LTP251	ltpFR2	15	2	DENIM	446	n/a	n/a	0	0	0
603.064	n/a	REC_WORD	301532	wordpools/wasnorm_wordpool_576.txt	LTP251	ltpFR2	15	2	COUNTY	389	n/a	n/a	0	0	0
604.44	n/a	REC_WORD	302220	wordpools/wasnorm_wordpool_576.txt	LTP251	ltpFR2	15	2	WIFE	1609	n/a	n/a	0	0	0
609.802	n/a	REC_WORD	304901	wordpools/wasnorm_wordpool_576.txt	LTP251	ltpFR2	15	2	HATCHET	691	n/a	n/a	0	0	0
676.078	n/a	DISTRACTOR	338039	n/a	LTP251	ltpFR2	15	3	n/a	n/a	n/a	n/a	0	0	0
676.078	n/a	START	338039	n/a	LTP251	ltpFR2	15	n/a	n/a	n/a	4	n/a	n/a	n/a	n/a
676.092	n/a	PROB	338046	n/a	LTP251	ltpFR2	15	n/a	n/a	n/a	4	13	3	9	1
678.054	n/a	PROB	339027	n/a	LTP251	ltpFR2	15	n/a	n/a	n/a	4	13	7	5	1
683.142	n/a	PROB	341571	n/a	LTP251	ltpFR2	15	n/a	n/a	n/a	4	19	6	5	8
685.16	n/a	PROB	342580	n/a	LTP251	ltpFR2	15	n/a	n/a	n/a	4	14	7	1	6
686.494	n/a	PROB	343247	n/a	LTP251	ltpFR2	15	n/a	n/a	n/a	4	12	4	5	3
689.228	n/a	PROB	344614	n/a	LTP251	ltpFR2	15	n/a	n/a	n/a	4	5	3	1	1
690.412	n/a	PROB	345206	n/a	LTP251	ltpFR2	15	n/a	n/a	n/a	4	13	4	9	1
692.13	n/a	PROB	346065	n/a	LTP251	ltpFR2	15	n/a	n/a	n/a	4	13	3	6	4
693.448	n/a	PROB	346724	n/a	LTP251	ltpFR2	15	n/a	n/a	n/a	4	17	4	7	6
695.718	n/a	PROB	347859	n/a	LTP251	ltpFR2	15	n/a	n/a	n/a	4	98	2	1	6
697.036	n/a	PROB	348518	n/a	LTP251	ltpFR2	15	n/a	n/a	n/a	4	9	3	5	1
700.078	n/a	STOP	350039	n/a	LTP251	ltpFR2	15	n/a	n/a	n/a	4	n/a	n/a	n/a	n/a
701.014	n/a	WORD	350507	wordpools/wasnorm_wordpool_576.txt	LTP251	ltpFR2	15	3	LION	827	n/a	n/a	0	0	0
703.758	n/a	WORD	351879	wordpools/wasnorm_wordpool_576.txt	LTP251	ltpFR2	15	3	ANKLE	24	n/a	n/a	0	0	0
706.492	n/a	WORD	353246	wordpools/wasnorm_wordpool_576.txt	LTP251	ltpFR2	15	3	LUNCH	849	n/a	n/a	0	0	0
709.19	n/a	WORD	354595	wordpools/wasnorm_wordpool_576.txt	LTP251	ltpFR2	15	3	MARKET	871	n/a	n/a	0	0	0
711.966	n/a	WORD	355983	wordpools/wasnorm_wordpool_576.txt	LTP251	ltpFR2	15	3	IGLOO	734	n/a	n/a	0	0	0
714.56	n/a	WORD	357280	wordpools/wasnorm_wordpool_576.txt	LTP251	ltpFR2	15	3	SKILLET	1317	n/a	n/a	0	0	0
717.112	n/a	WORD	358556	wordpools/wasnorm_wordpool_576.txt	LTP251	ltpFR2	15	3	CLOTHES	327	n/a	n/a	0	0	0
719.786	n/a	WORD	359893	wordpools/wasnorm_wordpool_576.txt	LTP251	ltpFR2	15	3	ULCER	1533	n/a	n/a	0	0	0
722.584	n/a	WORD	361292	wordpools/wasnorm_wordpool_576.txt	LTP251	ltpFR2	15	3	OUTFIT	988	n/a	n/a	0	0	0
725.386	n/a	WORD	362693	wordpools/wasnorm_wordpool_576.txt	LTP251	ltpFR2	15	3	STREAM	1392	n/a	n/a	0	0	0
727.872	n/a	WORD	363936	wordpools/wasnorm_wordpool_576.txt	LTP251	ltpFR2	15	3	BIKE	125	n/a	n/a	0	0	0
730.324	n/a	WORD	365162	wordpools/wasnorm_wordpool_576.txt	LTP251	ltpFR2	15	3	KLEENEX	782	n/a	n/a	0	0	0
733.092	n/a	WORD	366546	wordpools/wasnorm_wordpool_576.txt	LTP251	ltpFR2	15	3	COSTUME	383	n/a	n/a	0	0	0
735.544	n/a	WORD	367772	wordpools/wasnorm_wordpool_576.txt	LTP251	ltpFR2	15	3	SKIRT	1319	n/a	n/a	0	0	0
738.096	n/a	WORD	369048	wordpools/wasnorm_wordpool_576.txt	LTP251	ltpFR2	15	3	DRINK	498	n/a	n/a	0	0	0
740.632	n/a	WORD	370316	wordpools/wasnorm_wordpool_576.txt	LTP251	ltpFR2	15	3	VALLEY	1545	n/a	n/a	0	0	0
743.256	n/a	WORD	371628	wordpools/wasnorm_wordpool_576.txt	LTP251	ltpFR2	15	3	CANYON	235	n/a	n/a	0	0	0
745.936	n/a	WORD	372968	wordpools/wasnorm_wordpool_576.txt	LTP251	ltpFR2	15	3	ACTOR	5	n/a	n/a	0	0	0
748.442	n/a	WORD	374221	wordpools/wasnorm_wordpool_576.txt	LTP251	ltpFR2	15	3	MATTRESS	879	n/a	n/a	0	0	0
751.192	n/a	WORD	375596	wordpools/wasnorm_wordpool_576.txt	LTP251	ltpFR2	15	3	SOFTBALL	1343	n/a	n/a	0	0	0
753.776	n/a	WORD	376888	wordpools/wasnorm_wordpool_576.txt	LTP251	ltpFR2	15	3	SCARF	1246	n/a	n/a	0	0	0
756.362	n/a	WORD	378181	wordpools/wasnorm_wordpool_576.txt	LTP251	ltpFR2	15	3	SNAIL	1332	n/a	n/a	0	0	0
758.782	n/a	WORD	379391	wordpools/wasnorm_wordpool_576.txt	LTP251	ltpFR2	15	3	SLIME	1327	n/a	n/a	0	0	0
761.47	n/a	WORD	380735	wordpools/wasnorm_wordpool_576.txt	LTP251	ltpFR2	15	3	RIVER	1194	n/a	n/a	0	0	0
763.086	n/a	START	381543	n/a	LTP251	ltpFR2	15	n/a	n/a	n/a	5	n/a	n/a	n/a	n/a
763.948	n/a	DISTRACTOR	381974	n/a	LTP251	ltpFR2	15	3	n/a	n/a	n/a	n/a	0	0	0
763.952	n/a	PROB	381976	n/a	LTP251	ltpFR2	15	n/a	n/a	n/a	5	12	2	2	8
766.006	n/a	PROB	383003	n/a	LTP251	ltpFR2	15	n/a	n/a	n/a	5	16	7	4	5
769.79	n/a	PROB	384895	n/a	LTP251	ltpFR2	15	n/a	n/a	n/a	5	16	8	5	3
771.44	n/a	PROB	385720	n/a	LTP251	ltpFR2	15	n/a	n/a	n/a	5	13	3	8	2
773.842	n/a	PROB	386921	n/a	LTP251	ltpFR2	15	n/a	n/a	n/a	5	10	4	1	5
775.18	n/a	PROB	387590	n/a	LTP251	ltpFR2	15	n/a	n/a	n/a	5	6	1	1	4
776.398	n/a	PROB	388199	n/a	LTP251	ltpFR2	15	n/a	n/a	n/a	5	14	4	2	8
777.964	n/a	PROB	388982	n/a	LTP251	ltpFR2	15	n/a	n/a	n/a	5	12	1	9	2
779.38	n/a	PROB	389690	n/a	LTP251	ltpFR2	15	n/a	n/a	n/a	5	13	6	2	5
781.332	n/a	PROB	390666	n/a	LTP251	ltpFR2	15	n/a	n/a	n/a	5	7	5	1	1
782.62	n/a	PROB	391310	n/a	LTP251	ltpFR2	15	n/a	n/a	n/a	5	21	9	5	7
785.07	n/a	PROB	392535	n/a	LTP251	ltpFR2	15	n/a	n/a	n/a	5	19	9	9	1
786.684	n/a	STOP	393342	n/a	LTP251	ltpFR2	15	n/a	n/a	n/a	5	n/a	n/a	n/a	n/a
789.026	n/a	REC_START	394513	n/a	LTP251	ltpFR2	15	3	n/a	n/a	n/a	n/a	0	0	0
791.152	n/a	REC_WORD	395576	wordpools/wasnorm_wordpool_576.txt	LTP251	ltpFR2	15	3	OUTFIT	988	n/a	n/a	0	0	0
792.512	n/a	REC_WORD	396256	wordpools/wasnorm_wordpool_576.txt	LTP251	ltpFR2	15	3	CLOTHES	327	n/a	n/a	0	0	0
794.902	n/a	REC_WORD	397451	wordpools/wasnorm_wordpool_576.txt	LTP251	ltpFR2	15	3	SKIRT	1319	n/a	n/a	0	0	0
797.342	n/a	REC_WORD	398671	wordpools/wasnorm_wordpool_576.txt	LTP251	ltpFR2	15	3	DRINK	498	n/a	n/a	0	0	0
798.46	n/a	REC_WORD	399230	wordpools/wasnorm_wordpool_576.txt	LTP251	ltpFR2	15	3	ULCER	1533	n/a	n/a	0	0	0
799.694	n/a	REC_WORD	399847	wordpools/wasnorm_wordpool_576.txt	LTP251	ltpFR2	15	3	SNAIL	1332	n/a	n/a	0	0	0
801.062	n/a	REC_WORD	400531	wordpools/wasnorm_wordpool_576.txt	LTP251	ltpFR2	15	3	SKILLET	1317	n/a	n/a	0	0	0
803.692	n/a	REC_WORD	401846	wordpools/wasnorm_wordpool_576.txt	LTP251	ltpFR2	15	3	ACTOR	5	n/a	n/a	0	0	0
806.65	n/a	REC_WORD_VV	403325	wordpools/wasnorm_wordpool_576.txt	LTP251	ltpFR2	15	3	<>	-1	n/a	n/a	0	0	0
807.098	n/a	REC_WORD	403549	wordpools/wasnorm_wordpool_576.txt	LTP251	ltpFR2	15	3	BIKE	125	n/a	n/a	0	0	0
808.362	n/a	REC_WORD	404181	wordpools/wasnorm_wordpool_576.txt	LTP251	ltpFR2	15	3	SOFTBALL	1343	n/a	n/a	0	0	0
809.362	n/a	REC_WORD_VV	404681	wordpools/wasnorm_wordpool_576.txt	LTP251	ltpFR2	15	3	<>	-1	n/a	n/a	0	0	0
809.556	n/a	REC_WORD	404778	wordpools/wasnorm_wordpool_576.txt	LTP251	ltpFR2	15	3	MATTRESS	879	n/a	n/a	0	0	0
811.112	n/a	REC_WORD	405556	wordpools/wasnorm_wordpool_576.txt	LTP251	ltpFR2	15	3	STREAM	1392	n/a	n/a	0	0	0
812.546	n/a	REC_WORD	406273	wordpools/wasnorm_wordpool_576.txt	LTP251	ltpFR2	15	3	VALLEY	1545	n/a	n/a	0	0	0
815.308	n/a	REC_WORD	407654	wordpools/wasnorm_wordpool_576.txt	LTP251	ltpFR2	15	3	LUNCH	849	n/a	n/a	0	0	0
817.064	n/a	REC_WORD	408532	wordpools/wasnorm_wordpool_576.txt	LTP251	ltpFR2	15	3	ANKLE	24	n/a	n/a	0	0	0
818.26	n/a	REC_WORD	409130	wordpools/wasnorm_wordpool_576.txt	LTP251	ltpFR2	15	3	LION	827	n/a	n/a	0	0	0
820.38	n/a	REC_WORD	410190	wordpools/wasnorm_wordpool_576.txt	LTP251	ltpFR2	15	3	CANYON	235	n/a	n/a	0	0	0
879.446	n/a	DISTRACTOR	439723	n/a	LTP251	ltpFR2	15	4	n/a	n/a	n/a	n/a	0	0	0
879.446	n/a	START	439723	n/a	LTP251	ltpFR2	15	n/a	n/a	n/a	6	n/a	n/a	n/a	n/a
879.46	n/a	PROB	439730	n/a	LTP251	ltpFR2	15	n/a	n/a	n/a	6	16	6	3	7
880.928	n/a	PROB	440464	n/a	LTP251	ltpFR2	15	n/a	n/a	n/a	6	21	8	8	5
882.83	n/a	PROB	441415	n/a	LTP251	ltpFR2	15	n/a	n/a	n/a	6	13	5	1	7
885.63	n/a	PROB	442815	n/a	LTP251	ltpFR2	15	n/a	n/a	n/a	6	6	1	1	4
886.684	n/a	PROB	443342	n/a	LTP251	ltpFR2	15	n/a	n/a	n/a	6	15	9	2	4
889.552	n/a	PROB	444776	n/a	LTP251	ltpFR2	15	n/a	n/a	n/a	6	16	9	5	2
891.188	n/a	PROB	445594	n/a	LTP251	ltpFR2	15	n/a	n/a	n/a	6	13	2	7	4
893.872	n/a	PROB	446936	n/a	LTP251	ltpFR2	15	n/a	n/a	n/a	6	15	7	2	6
896.474	n/a	PROB	448237	n/a	LTP251	ltpFR2	15	n/a	n/a	n/a	6	9	5	2	2
897.824	n/a	PROB	448912	n/a	LTP251	ltpFR2	15	n/a	n/a	n/a	6	12	2	2	8
899.442	n/a	PROB	449721	n/a	LTP251	ltpFR2	15	n/a	n/a	n/a	6	21	5	7	9
903.444	n/a	STOP	451722	n/a	LTP251	ltpFR2	15	n/a	n/a	n/a	6	n/a	n/a	n/a	n/a
904.572	n/a	WORD	452286	wordpools/wasnorm_wordpool_576.txt	LTP251	ltpFR2	15	4	TURKEY	1520	n/a	n/a	0	0	0
907.384	n/a	WORD	453692	wordpools/wasnorm_wordpool_576.txt	LTP251	ltpFR2	15	4	BARLEY	88	n/a	n/a	0	0	0
909.908	n/a	WORD	454954	wordpools/wasnorm_wordpool_576.txt	LTP251	ltpFR2	15	4	THRONE	1461	n/a	n/a	0	0	0
912.712	n/a	WORD	456356	wordpools/wasnorm_wordpool_576.txt	LTP251	ltpFR2	15	4	PUDDLE	1140	n/a	n/a	0	0	0
915.248	n/a	WORD	457624	wordpools/wasnorm_wordpool_576.txt	LTP251	ltpFR2	15	4	QUARTER	1148	n/a	n/a	0	0	0
918.058	n/a	WORD	459029	wordpools/wasnorm_wordpool_576.txt	LTP251	ltpFR2	15	4	LIZARD	834	n/a	n/a	0	0	0
920.744	n/a	WORD	460372	wordpools/wasnorm_wordpool_576.txt	LTP251	ltpFR2	15	4	GRAPE	654	n/a	n/a	0	0	0
923.322	n/a	WORD	461661	wordpools/wasnorm_wordpool_576.txt	LTP251	ltpFR2	15	4	SCALPEL	1243	n/a	n/a	0	0	0
926.014	n/a	WORD	463007	wordpools/wasnorm_wordpool_576.txt	LTP251	ltpFR2	15	4	SALAD	1224	n/a	n/a	0	0	0
928.524	n/a	WORD	464262	wordpools/wasnorm_wordpool_576.txt	LTP251	ltpFR2	15	4	COCOON	339	n/a	n/a	0	0	0
930.968	n/a	WORD	465484	wordpools/wasnorm_wordpool_576.txt	LTP251	ltpFR2	15	4	CANDY	230	n/a	n/a	0	0	0
933.412	n/a	WORD	466706	wordpools/wasnorm_wordpool_576.txt	LTP251	ltpFR2	15	4	BARREL	91	n/a	n/a	0	0	0
935.898	n/a	WORD	467949	wordpools/wasnorm_wordpool_576.txt	LTP251	ltpFR2	15	4	TWIG	1527	n/a	n/a	0	0	0
938.49	n/a	WORD	469245	wordpools/wasnorm_wordpool_576.txt	LTP251	ltpFR2	15	4	APRON	35	n/a	n/a	0	0	0
941.276	n/a	WORD	470638	wordpools/wasnorm_wordpool_576.txt	LTP251	ltpFR2	15	4	BALLOON	75	n/a	n/a	0	0	0
943.738	n/a	WORD	471869	wordpools/wasnorm_wordpool_576.txt	LTP251	ltpFR2	15	4	HOOK	715	n/a	n/a	0	0	0
946.496	n/a	WORD	473248	wordpools/wasnorm_wordpool_576.txt	LTP251	ltpFR2	15	4	PEBBLE	1035	n/a	n/a	0	0	0
949.162	n/a	WORD	474581	wordpools/wasnorm_wordpool_576.txt	LTP251	ltpFR2	15	4	CONCERT	360	n/a	n/a	0	0	0
951.896	n/a	WORD	475948	wordpools/wasnorm_wordpool_576.txt	LTP251	ltpFR2	15	4	TART	1436	n/a	n/a	0	0	0
954.552	n/a	WORD	477276	wordpools/wasnorm_wordpool_576.txt	LTP251	ltpFR2	15	4	PATIENT	1024	n/a	n/a	0	0	0
957.3	n/a	WORD	478650	wordpools/wasnorm_wordpool_576.txt	LTP251	ltpFR2	15	4	FRAGRANCE	599	n/a	n/a	0	0	0
960.076	n/a	WORD	480038	wordpools/wasnorm_wordpool_576.txt	LTP251	ltpFR2	15	4	PERFUME	1049	n/a	n/a	0	0	0
962.61	n/a	WORD	481305	wordpools/wasnorm_wordpool_576.txt	LTP251	ltpFR2	15	4	DRILL	497	n/a	n/a	0	0	0
965.338	n/a	WORD	482669	wordpools/wasnorm_wordpool_576.txt	LTP251	ltpFR2	15	4	FIREPLACE	570	n/a	n/a	0	0	0
966.946	n/a	START	483473	n/a	LTP251	ltpFR2	15	n/a	n/a	n/a	7	n/a	n/a	n/a	n/a
967.814	n/a	DISTRACTOR	483907	n/a	LTP251	ltpFR2	15	4	n/a	n/a	n/a	n/a	0	0	0
967.824	n/a	PROB	483912	n/a	LTP251	ltpFR2	15	n/a	n/a	n/a	7	18	4	6	8
970.498	n/a	PROB	485249	n/a	LTP251	ltpFR2	15	n/a	n/a	n/a	7	20	4	7	9
972.934	n/a	PROB	486467	n/a	LTP251	ltpFR2	15	n/a	n/a	n/a	7	15	6	1	8
974.368	n/a	PROB	487184	n/a	LTP251	ltpFR2	15	n/a	n/a	n/a	7	18	5	8	5
975.702	n/a	PROB	487851	n/a	LTP251	ltpFR2	15	n/a	n/a	n/a	7	20	5	6	9
977.238	n/a	PROB	488619	n/a	LTP251	ltpFR2	15	n/a	n/a	n/a	7	23	8	6	9
980.122	n/a	PROB	490061	n/a	LTP251	ltpFR2	15	n/a	n/a	n/a	7	13	5	5	3
982.176	n/a	PROB	491088	n/a	LTP251	ltpFR2	15	n/a	n/a	n/a	7	21	8	6	7
985.026	n/a	PROB	492513	n/a	LTP251	ltpFR2	15	n/a	n/a	n/a	7	15	5	7	3
987.074	n/a	PROB	493537	n/a	LTP251	ltpFR2	15	n/a	n/a	n/a	7	14	2	7	7
990.946	n/a	STOP	495473	n/a	LTP251	ltpFR2	15	n/a	n/a	n/a	7	n/a	n/a	n/a	n/a
992.812	n/a	REC_START	496406	n/a	LTP251	ltpFR2	15	4	n/a	n/a	n/a	n/a	0	0	0
994.57	n/a	REC_WORD	497285	wordpools/wasnorm_wordpool_576.txt	LTP251	ltpFR2	15	4	APRON	35	n/a	n/a	0	0	0
995.684	n/a	REC_WORD	497842	wordpools/wasnorm_wordpool_576.txt	LTP251	ltpFR2	15	4	HOOK	715	n/a	n/a	0	0	0
996.904	n/a	REC_WORD	498452	wordpools/wasnorm_wordpool_576.txt	LTP251	ltpFR2	15	4	PERFUME	1049	n/a	n/a	0	0	0
998.26	n/a	REC_WORD	499130	wordpools/wasnorm_wordpool_576.txt	LTP251	ltpFR2	15	4	FRAGRANCE	599	n/a	n/a	0	0	0
999.76	n/a	REC_WORD	499880	wordpools/wasnorm_wordpool_576.txt	LTP251	ltpFR2	15	4	TART	1436	n/a	n/a	0	0	0
1000.924	n/a	REC_WORD	500462	wordpools/wasnorm_wordpool_576.txt	LTP251	ltpFR2	15	4	BALLOON	75	n/a	n/a	0	0	0
1003.354	n/a	REC_WORD	501677	wordpools/wasnorm_wordpool_576.txt	LTP251	ltpFR2	15	4	FIREPLACE	570	n/a	n/a	0	0	0
1004.354	n/a	REC_WORD_VV	502177	wordpools/wasnorm_wordpool_576.txt	LTP251	ltpFR2	15	4	<>	-1	n/a	n/a	0	0	0
1004.986	n/a	REC_WORD	502493	wordpools/wasnorm_wordpool_576.txt	LTP251	ltpFR2	15	4	DRILL	497	n/a	n/a	0	0	0
1006.242	n/a	REC_WORD	503121	wordpools/wasnorm_wordpool_576.txt	LTP251	ltpFR2	15	4	PEBBLE	1035	n/a	n/a	0	0	0
1007.518	n/a	REC_WORD	503759	wordpools/wasnorm_wordpool_576.txt	LTP251	ltpFR2	15	4	COCOON	339	n/a	n/a	0	0	0
1009.336	n/a	REC_WORD	504668	wordpools/wasnorm_wordpool_576.txt	LTP251	ltpFR2	15	4	BARREL	91	n/a	n/a	0	0	0
1011.822	n/a	REC_WORD	505911	wordpools/wasnorm_wordpool_576.txt	LTP251	ltpFR2	15	4	CANDY	230	n/a	n/a	0	0	0
1013.936	n/a	REC_WORD	506968	wordpools/wasnorm_wordpool_576.txt	LTP251	ltpFR2	15	4	LIZARD	834	n/a	n/a	0	0	0
1019.392	n/a	REC_WORD	509696	wordpools/wasnorm_wordpool_576.txt	LTP251	ltpFR2	15	4	THRONE	1461	n/a	n/a	0	0	0
1083.254	n/a	WORD	541627	wordpools/wasnorm_wordpool_576.txt	LTP251	ltpFR2	15	5	FIDDLE	561	n/a	n/a	0	0	0
1085.906	n/a	WORD	542953	wordpools/wasnorm_wordpool_576.txt	LTP251	ltpFR2	15	5	ORANGE	980	n/a	n/a	0	0	0
1088.592	n/a	WORD	544296	wordpools/wasnorm_wordpool_576.txt	LTP251	ltpFR2	15	5	SUNRISE	1407	n/a	n/a	0	0	0
1091.378	n/a	WORD	545689	wordpools/wasnorm_wordpool_576.txt	LTP251	ltpFR2	15	5	FRIEND	606	n/a	n/a	0	0	0
1093.862	n/a	WORD	546931	wordpools/wasnorm_wordpool_576.txt	LTP251	ltpFR2	15	5	GALLON	618	n/a	n/a	0	0	0
1096.514	n/a	WORD	548257	wordpools/wasnorm_wordpool_576.txt	LTP251	ltpFR2	15	5	CITRUS	313	n/a	n/a	0	0	0
1099.268	n/a	WORD	549634	wordpools/wasnorm_wordpool_576.txt	LTP251	ltpFR2	15	5	PEACH	1031	n/a	n/a	0	0	0
1102.018	n/a	WORD	551009	wordpools/wasnorm_wordpool_576.txt	LTP251	ltpFR2	15	5	MAILBOX	857	n/a	n/a	0	0	0
1104.604	n/a	WORD	552302	wordpools/wasnorm_wordpool_576.txt	LTP251	ltpFR2	15	5	SEAL	1262	n/a	n/a	0	0	0
1107.094	n/a	WORD	553547	wordpools/wasnorm_wordpool_576.txt	LTP251	ltpFR2	15	5	JAPAN	749	n/a	n/a	0	0	0
1109.908	n/a	WORD	554954	wordpools/wasnorm_wordpool_576.txt	LTP251	ltpFR2	15	5	SHELF	1280	n/a	n/a	0	0	0
1112.396	n/a	WORD	556198	wordpools/wasnorm_wordpool_576.txt	LTP251	ltpFR2	15	5	THREAD	1460	n/a	n/a	0	0	0
1115.18	n/a	WORD	557590	wordpools/wasnorm_wordpool_576.txt	LTP251	ltpFR2	15	5	BADGE	68	n/a	n/a	0	0	0
1117.602	n/a	WORD	558801	wordpools/wasnorm_wordpool_576.txt	LTP251	ltpFR2	15	5	ROD	1203	n/a	n/a	0	0	0
1120.404	n/a	WORD	560202	wordpools/wasnorm_wordpool_576.txt	LTP251	ltpFR2	15	5	CHEMIST	292	n/a	n/a	0	0	0
1123.188	n/a	WORD	561594	wordpools/wasnorm_wordpool_576.txt	LTP251	ltpFR2	15	5	HIGHWAY	707	n/a	n/a	0	0	0
1125.82	n/a	WORD	562910	wordpools/wasnorm_wordpool_576.txt	LTP251	ltpFR2	15	5	FINGER	567	n/a	n/a	0	0	0
1128.488	n/a	WORD	564244	wordpools/wasnorm_wordpool_576.txt	LTP251	ltpFR2	15	5	SHOULDER	1294	n/a	n/a	0	0	0
1131.192	n/a	WORD	565596	wordpools/wasnorm_wordpool_576.txt	LTP251	ltpFR2	15	5	KEEPER	769	n/a	n/a	0	0	0
1133.994	n/a	WORD	566997	wordpools/wasnorm_wordpool_576.txt	LTP251	ltpFR2	15	5	SPONGE	1355	n/a	n/a	0	0	0
1136.562	n/a	WORD	568281	wordpools/wasnorm_wordpool_576.txt	LTP251	ltpFR2	15	5	BEAKER	104	n/a	n/a	0	0	0
1139.314	n/a	WORD	569657	wordpools/wasnorm_wordpool_576.txt	LTP251	ltpFR2	15	5	SKETCH	1315	n/a	n/a	0	0	0
1142.074	n/a	WORD	571037	wordpools/wasnorm_wordpool_576.txt	LTP251	ltpFR2	15	5	POISON	1096	n/a	n/a	0	0	0
1144.742	n/a	WORD	572371	wordpools/wasnorm_wordpool_576.txt	LTP251	ltpFR2	15	5	BOYFRIEND	162	n/a	n/a	0	0	0
1146.354	n/a	START	573177	n/a	LTP251	ltpFR2	15	n/a	n/a	n/a	8	n/a	n/a	n/a	n/a
1147.274	n/a	DISTRACTOR	573637	n/a	LTP251	ltpFR2	15	5	n/a	n/a	n/a	n/a	0	0	0
1147.28	n/a	PROB	573640	n/a	LTP251	ltpFR2	15	n/a	n/a	n/a	8	21	9	3	9
1149.322	n/a	PROB	574661	n/a	LTP251	ltpFR2	15	n/a	n/a	n/a	8	15	8	4	3
1151.54	n/a	PROB	575770	n/a	LTP251	ltpFR2	15	n/a	n/a	n/a	8	12	4	7	1
1154.126	n/a	PROB	577063	n/a	LTP251	ltpFR2	15	n/a	n/a	n/a	8	18	8	8	2
1156.026	n/a	PROB	578013	n/a	LTP251	ltpFR2	15	n/a	n/a	n/a	8	11	6	4	1
1157.262	n/a	PROB	578631	n/a	LTP251	ltpFR2	15	n/a	n/a	n/a	8	5	3	1	1
1158.344	n/a	PROB	579172	n/a	LTP251	ltpFR2	15	n/a	n/a	n/a	8	12	1	6	5
1160.096	n/a	PROB	580048	n/a	LTP251	ltpFR2	15	n/a	n/a	n/a	8	17	9	7	1
1163.218	n/a	PROB	581609	n/a	LTP251	ltpFR2	15	n/a	n/a	n/a	8	9	5	2	1
1164.734	n/a	PROB	582367	n/a	LTP251	ltpFR2	15	n/a	n/a	n/a	8	11	2	1	8
1166.034	n/a	PROB	583017	n/a	LTP251	ltpFR2	15	n/a	n/a	n/a	8	11	2	5	4
1168.27	n/a	PROB	584135	n/a	LTP251	ltpFR2	15	n/a	n/a	n/a	8	18	5	7	6
1169.964	n/a	STOP	584982	n/a	LTP251	ltpFR2	15	n/a	n/a	n/a	8	n/a	n/a	n/a	n/a
1172.174	n/a	REC_START	586087	n/a	LTP251	ltpFR2	15	5	n/a	n/a	n/a	n/a	0	0	0
1173.318	n/a	REC_WORD	586659	wordpools/wasnorm_wordpool_576.txt	LTP251	ltpFR2	15	5	CHEMIST	292	n/a	n/a	0	0	0
1174.378	n/a	REC_WORD	587189	wordpools/wasnorm_wordpool_576.txt	LTP251	ltpFR2	15	5	BEAKER	104	n/a	n/a	0	0	0
1175.542	n/a	REC_WORD	587771	wordpools/wasnorm_wordpool_576.txt	LTP251	ltpFR2	15	5	POISON	1096	n/a	n/a	0	0	0
1176.948	n/a	REC_WORD	588474	wordpools/wasnorm_wordpool_576.txt	LTP251	ltpFR2	15	5	BOYFRIEND	162	n/a	n/a	0	0	0
1178.25	n/a	REC_WORD	589125	wordpools/wasnorm_wordpool_576.txt	LTP251	ltpFR2	15	5	SHOULDER	1294	n/a	n/a	0	0	0
1180.554	n/a	REC_WORD	590277	wordpools/wasnorm_wordpool_576.txt	LTP251	ltpFR2	15	5	FRIEND	606	n/a	n/a	0	0	0
1182.384	n/a	REC_WORD	591192	wordpools/wasnorm_wordpool_576.txt	LTP251	ltpFR2	15	5	FINGER	567	n/a	n/a	0	0	0
1183.636	n/a	REC_WORD	591818	wordpools/wasnorm_wordpool_576.txt	LTP251	ltpFR2	15	5	FIDDLE	561	n/a	n/a	0	0	0
1186.206	n/a	REC_WORD	593103	wordpools/wasnorm_wordpool_576.txt	LTP251	ltpFR2	15	5	SEAL	1262	n/a	n/a	0	0	0
1187.622	n/a	REC_WORD	593811	wordpools/wasnorm_wordpool_576.txt	LTP251	ltpFR2	15	5	JAPAN	749	n/a	n/a	0	0	0
1189.166	n/a	REC_WORD	594583	wordpools/wasnorm_wordpool_576.txt	LTP251	ltpFR2	15	5	BADGE	68	n/a	n/a	0	0	0
1190.512	n/a	REC_WORD	595256	wordpools/wasnorm_wordpool_576.txt	LTP251	ltpFR2	15	5	MAILBOX	857	n/a	n/a	0	0	0
1191.746	n/a	REC_WORD_VV	595873	wordpools/wasnorm_wordpool_576.txt	LTP251	ltpFR2	15	5	<>	-1	n/a	n/a	0	0	0
1193.92	n/a	REC_WORD	596960	wordpools/wasnorm_wordpool_576.txt	LTP251	ltpFR2	15	5	CITRUS	313	n/a	n/a	0	0	0
1195.234	n/a	REC_WORD	597617	wordpools/wasnorm_wordpool_576.txt	LTP251	ltpFR2	15	5	ORANGE	980	n/a	n/a	0	0	0
1196.9	n/a	REC_WORD	598450	wordpools/wasnorm_wordpool_576.txt	LTP251	ltpFR2	15	5	PEACH	1031	n/a	n/a	0	0	0
1198.266	n/a	REC_WORD	599133	wordpools/wasnorm_wordpool_576.txt	LTP251	ltpFR2	15	5	GALLON	618	n/a	n/a	0	0	0
1203.534	n/a	REC_WORD	601767	wordpools/wasnorm_wordpool_576.txt	LTP251	ltpFR2	15	5	SPONGE	1355	n/a	n/a	0	0	0
1262.61	n/a	DISTRACTOR	631305	n/a	LTP251	ltpFR2	15	6	n/a	n/a	n/a	n/a	0	0	0
1262.61	n/a	START	631305	n/a	LTP251	ltpFR2	15	n/a	n/a	n/a	9	n/a	n/a	n/a	n/a
1262.626	n/a	PROB	631313	n/a	LTP251	ltpFR2	15	n/a	n/a	n/a	9	11	7	2	2
1263.91	n/a	PROB	631955	n/a	LTP251	ltpFR2	15	n/a	n/a	n/a	9	18	6	4	8
1265.33	n/a	PROB	632665	n/a	LTP251	ltpFR2	15	n/a	n/a	n/a	9	11	2	2	7
1266.514	n/a	PROB	633257	n/a	LTP251	ltpFR2	15	n/a	n/a	n/a	9	18	6	7	5
1269.182	n/a	PROB	634591	n/a	LTP251	ltpFR2	15	n/a	n/a	n/a	9	14	5	5	4
1270.734	n/a	PROB	635367	n/a	LTP251	ltpFR2	15	n/a	n/a	n/a	9	5	1	1	3
1272.318	n/a	PROB	636159	n/a	LTP251	ltpFR2	15	n/a	n/a	n/a	9	21	8	7	6
1276.436	n/a	PROB	638218	n/a	LTP251	ltpFR2	15	n/a	n/a	n/a	9	18	5	8	5
1278.372	n/a	PROB	639186	n/a	LTP251	ltpFR2	15	n/a	n/a	n/a	9	17	9	5	6
1280.056	n/a	PROB	640028	n/a	LTP251	ltpFR2	15	n/a	n/a	n/a	9	16	7	1	8
1281.926	n/a	PROB	640963	n/a	LTP251	ltpFR2	15	n/a	n/a	n/a	9	12	8	2	2
1286.61	n/a	STOP	643305	n/a	LTP251	ltpFR2	15	n/a	n/a	n/a	9	n/a	n/a	n/a	n/a
1287.512	n/a	WORD	643756	wordpools/wasnorm_wordpool_576.txt	LTP251	ltpFR2	15	6	YACHT	1629	n/a	n/a	0	0	0
1290.232	n/a	WORD	645116	wordpools/wasnorm_wordpool_576.txt	LTP251	ltpFR2	15	6	COTTAGE	384	n/a	n/a	0	0	0
1292.8	n/a	WORD	646400	wordpools/wasnorm_wordpool_576.txt	LTP251	ltpFR2	15	6	HEDGE	699	n/a	n/a	0	0	0
1295.47	n/a	WORD	647735	wordpools/wasnorm_wordpool_576.txt	LTP251	ltpFR2	15	6	STONE	1385	n/a	n/a	0	0	0
1298.206	n/a	WORD	649103	wordpools/wasnorm_wordpool_576.txt	LTP251	ltpFR2	15	6	PIGMENT	1066	n/a	n/a	0	0	0
1300.774	n/a	WORD	650387	wordpools/wasnorm_wordpool_576.txt	LTP251	ltpFR2	15	6	VELVET	1555	n/a	n/a	0	0	0
1303.526	n/a	WORD	651763	wordpools/wasnorm_wordpool_576.txt	LTP251	ltpFR2	15	6	GIRL	637	n/a	n/a	0	0	0
1306.294	n/a	WORD	653147	wordpools/wasnorm_wordpool_576.txt	LTP251	ltpFR2	15	6	PORK	1108	n/a	n/a	0	0	0
1308.764	n/a	WORD	654382	wordpools/wasnorm_wordpool_576.txt	LTP251	ltpFR2	15	6	REBEL	1172	n/a	n/a	0	0	0
1311.468	n/a	WORD	655734	wordpools/wasnorm_wordpool_576.txt	LTP251	ltpFR2	15	6	DRAWING	494	n/a	n/a	0	0	0
1314.152	n/a	WORD	657076	wordpools/wasnorm_wordpool_576.txt	LTP251	ltpFR2	15	6	PICTURE	1061	n/a	n/a	0	0	0
1316.854	n/a	WORD	658427	wordpools/wasnorm_wordpool_576.txt	LTP251	ltpFR2	15	6	OFFICE	972	n/a	n/a	0	0	0
1319.388	n/a	WORD	659694	wordpools/wasnorm_wordpool_576.txt	LTP251	ltpFR2	15	6	ARM	38	n/a	n/a	0	0	0
1322.174	n/a	WORD	661087	wordpools/wasnorm_wordpool_576.txt	LTP251	ltpFR2	15	6	PADDLE	1000	n/a	n/a	0	0	0
1324.976	n/a	WORD	662488	wordpools/wasnorm_wordpool_576.txt	LTP251	ltpFR2	15	6	RECEIPT	1173	n/a	n/a	0	0	0
1327.498	n/a	WORD	663749	wordpools/wasnorm_wordpool_576.txt	LTP251	ltpFR2	15	6	LUMBER	848	n/a	n/a	0	0	0
1329.93	n/a	WORD	664965	wordpools/wasnorm_wordpool_576.txt	LTP251	ltpFR2	15	6	PUPPY	1144	n/a	n/a	0	0	0
1332.498	n/a	WORD	666249	wordpools/wasnorm_wordpool_576.txt	LTP251	ltpFR2	15	6	BUTCHER	203	n/a	n/a	0	0	0
1335.066	n/a	WORD	667533	wordpools/wasnorm_wordpool_576.txt	LTP251	ltpFR2	15	6	MAILMAN	858	n/a	n/a	0	0	0
1337.618	n/a	WORD	668809	wordpools/wasnorm_wordpool_576.txt	LTP251	ltpFR2	15	6	COWBOY	395	n/a	n/a	0	0	0
1340.358	n/a	WORD	670179	wordpools/wasnorm_wordpool_576.txt	LTP251	ltpFR2	15	6	TABLE	1426	n/a	n/a	0	0	0
1342.988	n/a	WORD	671494	wordpools/wasnorm_wordpool_576.txt	LTP251	ltpFR2	15	6	PAPER	1011	n/a	n/a	0	0	0
1345.592	n/a	WORD	672796	wordpools/wasnorm_wordpool_576.txt	LTP251	ltpFR2	15	6	BINDER	127	n/a	n/a	0	0	0
1348.378	n/a	WORD	674189	wordpools/wasnorm_wordpool_576.txt	LTP251	ltpFR2	15	6	DUST	508	n/a	n/a	0	0	0
1349.984	n/a	START	674992	n/a	LTP251	ltpFR2	15	n/a	n/a	n/a	10	n/a	n/a	n/a	n/a
1350.944	n/a	DISTRACTOR	675472	n/a	LTP251	ltpFR2	15	6	n/a	n/a	n/a	n/a	0	0	0
1350.95	n/a	PROB	675475	n/a	LTP251	ltpFR2	15	n/a	n/a	n/a	10	13	7	2	4
1353.314	n/a	PROB	676657	n/a	LTP251	ltpFR2	15	n/a	n/a	n/a	10	15	4	2	9
1354.882	n/a	PROB	677441	n/a	LTP251	ltpFR2	15	n/a	n/a	n/a	10	14	4	3	7
1356.202	n/a	PROB	678101	n/a	LTP251	ltpFR2	15	n/a	n/a	n/a	10	15	6	8	1
1358.45	n/a	PROB	679225	n/a	LTP251	ltpFR2	15	n/a	n/a	n/a	10	15	8	2	5
1359.718	n/a	PROB	679859	n/a	LTP251	ltpFR2	15	n/a	n/a	n/a	10	17	7	3	7
1363.272	n/a	PROB	681636	n/a	LTP251	ltpFR2	15	n/a	n/a	n/a	10	13	2	6	5
1364.756	n/a	PROB	682378	n/a	LTP251	ltpFR2	15	n/a	n/a	n/a	10	8	5	1	2
1366.14	n/a	PROB	683070	n/a	LTP251	ltpFR2	15	n/a	n/a	n/a	10	15	1	8	6
1367.71	n/a	PROB	683855	n/a	LTP251	ltpFR2	15	n/a	n/a	n/a	10	7	4	2	1
1369.026	n/a	PROB	684513	n/a	LTP251	ltpFR2	15	n/a	n/a	n/a	10	5	3	1	1
1370.312	n/a	PROB	685156	n/a	LTP251	ltpFR2	15	n/a	n/a	n/a	10	9	4	2	3
1373.792	n/a	STOP	686896	n/a	LTP251	ltpFR2	15	n/a	n/a	n/a	10	n/a	n/a	n/a	n/a
1375.9	n/a	REC_START	687950	n/a	LTP251	ltpFR2	15	6	n/a	n/a	n/a	n/a	0	0	0
1378.696	n/a	REC_WORD	689348	wordpools/wasnorm_wordpool_576.txt	LTP251	ltpFR2	15	6	HEDGE	699	n/a	n/a	0	0	0
1380.062	n/a	REC_WORD	690031	wordpools/wasnorm_wordpool_576.txt	LTP251	ltpFR2	15	6	YACHT	1629	n/a	n/a	0	0	0
1381.342	n/a	REC_WORD	690671	wordpools/wasnorm_wordpool_576.txt	LTP251	ltpFR2	15	6	COTTAGE	384	n/a	n/a	0	0	0
1382.5	n/a	REC_WORD	691250	wordpools/wasnorm_wordpool_576.txt	LTP251	ltpFR2	15	6	STONE	1385	n/a	n/a	0	0	0
1383.5	n/a	REC_WORD_VV	691750	wordpools/wasnorm_wordpool_576.txt	LTP251	ltpFR2	15	6	<>	-1	n/a	n/a	0	0	0
1384.424	n/a	REC_WORD	692212	wordpools/wasnorm_wordpool_576.txt	LTP251	ltpFR2	15	6	PUPPY	1144	n/a	n/a	0	0	0
1385.762	n/a	REC_WORD	692881	wordpools/wasnorm_wordpool_576.txt	LTP251	ltpFR2	15	6	GIRL	637	n/a	n/a	0	0	0
1387.054	n/a	REC_WORD	693527	wordpools/wasnorm_wordpool_576.txt	LTP251	ltpFR2	15	6	VELVET	1555	n/a	n/a	0	0	0
1388.974	n/a	REC_WORD	694487	wordpools/wasnorm_wordpool_576.txt	LTP251	ltpFR2	15	6	PORTRAIT	1111	n/a	n/a	0	0	0
1390.542	n/a	REC_WORD	695271	wordpools/wasnorm_wordpool_576.txt	LTP251	ltpFR2	15	6	BINDER	127	n/a	n/a	0	0	0
1392.082	n/a	REC_WORD	696041	wordpools/wasnorm_wordpool_576.txt	LTP251	ltpFR2	15	6	PICTURE	1061	n/a	n/a	0	0	0
1393.7	n/a	REC_WORD	696850	wordpools/wasnorm_wordpool_576.txt	LTP251	ltpFR2	15	6	PAPER	1011	n/a	n/a	0	0	0
1398.27	n/a	REC_WORD	699135	wordpools/wasnorm_wordpool_576.txt	LTP251	ltpFR2	15	6	COWBOY	395	n/a	n/a	0	0	0
1399.824	n/a	REC_WORD	699912	wordpools/wasnorm_wordpool_576.txt	LTP251	ltpFR2	15	6	ARM	38	n/a	n/a	0	0	0
1401.256	n/a	REC_WORD	700628	wordpools/wasnorm_wordpool_576.txt	LTP251	ltpFR2	15	6	REBEL	1172	n/a	n/a	0	0	0
1403.704	n/a	REC_WORD	701852	wordpools/wasnorm_wordpool_576.txt	LTP251	ltpFR2	15	6	PADDLE	1000	n/a	n/a	0	0	0
1405.246	n/a	REC_WORD	702623	wordpools/wasnorm_wordpool_576.txt	LTP251	ltpFR2	15	6	PORK	1108	n/a	n/a	0	0	0
1466.316	n/a	DISTRACTOR	733158	n/a	LTP251	ltpFR2	15	7	n/a	n/a	n/a	n/a	0	0	0
1466.316	n/a	START	733158	n/a	LTP251	ltpFR2	15	n/a	n/a	n/a	11	n/a	n/a	n/a	n/a
1466.33	n/a	PROB	733165	n/a	LTP251	ltpFR2	15	n/a	n/a	n/a	11	14	1	8	5
1469.606	n/a	PROB	734803	n/a	LTP251	ltpFR2	15	n/a	n/a	n/a	11	10	3	3	4
1471.484	n/a	PROB	735742	n/a	LTP251	ltpFR2	15	n/a	n/a	n/a	11	15	2	4	9
1473.17	n/a	PROB	736585	n/a	LTP251	ltpFR2	15	n/a	n/a	n/a	11	21	9	9	3
1475.522	n/a	PROB	737761	n/a	LTP251	ltpFR2	15	n/a	n/a	n/a	11	12	8	2	2
1477.84	n/a	PROB	738920	n/a	LTP251	ltpFR2	15	n/a	n/a	n/a	11	6	1	3	2
1479.58	n/a	PROB	739790	n/a	LTP251	ltpFR2	15	n/a	n/a	n/a	11	17	5	9	3
1482.096	n/a	PROB	741048	n/a	LTP251	ltpFR2	15	n/a	n/a	n/a	11	7	1	2	4
1483.746	n/a	PROB	741873	n/a	LTP251	ltpFR2	15	n/a	n/a	n/a	11	15	9	4	4
1485.814	n/a	PROB	742907	n/a	LTP251	ltpFR2	15	n/a	n/a	n/a	11	17	5	7	5
1489.034	n/a	STOP	744517	n/a	LTP251	ltpFR2	15	n/a	n/a	n/a	11	n/a	n/a	n/a	n/a
1491.402	n/a	WORD	745701	wordpools/wasnorm_wordpool_576.txt	LTP251	ltpFR2	15	7	CRAB	397	n/a	n/a	0	0	0
1493.822	n/a	WORD	746911	wordpools/wasnorm_wordpool_576.txt	LTP251	ltpFR2	15	7	CATTLE	261	n/a	n/a	0	0	0
1496.34	n/a	WORD	748170	wordpools/wasnorm_wordpool_576.txt	LTP251	ltpFR2	15	7	CHAUFFEUR	283	n/a	n/a	0	0	0
1499.026	n/a	WORD	749513	wordpools/wasnorm_wordpool_576.txt	LTP251	ltpFR2	15	7	TRACTOR	1493	n/a	n/a	0	0	0
1501.696	n/a	WORD	750848	wordpools/wasnorm_wordpool_576.txt	LTP251	ltpFR2	15	7	DASHBOARD	441	n/a	n/a	0	0	0
1504.266	n/a	WORD	752133	wordpools/wasnorm_wordpool_576.txt	LTP251	ltpFR2	15	7	CROSS	413	n/a	n/a	0	0	0
1507.066	n/a	WORD	753533	wordpools/wasnorm_wordpool_576.txt	LTP251	ltpFR2	15	7	TUTU	1524	n/a	n/a	0	0	0
1509.502	n/a	WORD	754751	wordpools/wasnorm_wordpool_576.txt	LTP251	ltpFR2	15	7	POSTAGE	1113	n/a	n/a	0	0	0
1512.29	n/a	WORD	756145	wordpools/wasnorm_wordpool_576.txt	LTP251	ltpFR2	15	7	DRAGON	492	n/a	n/a	0	0	0
1514.758	n/a	WORD	757379	wordpools/wasnorm_wordpool_576.txt	LTP251	ltpFR2	15	7	FILM	565	n/a	n/a	0	0	0
1517.558	n/a	WORD	758779	wordpools/wasnorm_wordpool_576.txt	LTP251	ltpFR2	15	7	CIGAR	308	n/a	n/a	0	0	0
1520.01	n/a	WORD	760005	wordpools/wasnorm_wordpool_576.txt	LTP251	ltpFR2	15	7	COBRA	336	n/a	n/a	0	0	0
1522.478	n/a	WORD	761239	wordpools/wasnorm_wordpool_576.txt	LTP251	ltpFR2	15	7	STAMP	1370	n/a	n/a	0	0	0
1525.014	n/a	WORD	762507	wordpools/wasnorm_wordpool_576.txt	LTP251	ltpFR2	15	7	OX	994	n/a	n/a	0	0	0
1527.734	n/a	WORD	763867	wordpools/wasnorm_wordpool_576.txt	LTP251	ltpFR2	15	7	BEEF	113	n/a	n/a	0	0	0
1530.486	n/a	WORD	765243	wordpools/wasnorm_wordpool_576.txt	LTP251	ltpFR2	15	7	CLAM	315	n/a	n/a	0	0	0
1533.038	n/a	WORD	766519	wordpools/wasnorm_wordpool_576.txt	LTP251	ltpFR2	15	7	MEAT	883	n/a	n/a	0	0	0
1535.64	n/a	WORD	767820	wordpools/wasnorm_wordpool_576.txt	LTP251	ltpFR2	15	7	DANCER	437	n/a	n/a	0	0	0
1538.092	n/a	WORD	769046	wordpools/wasnorm_wordpool_576.txt	LTP251	ltpFR2	15	7	CHAPEL	280	n/a	n/a	0	0	0
1540.578	n/a	WORD	770289	wordpools/wasnorm_wordpool_576.txt	LTP251	ltpFR2	15	7	PRIMATE	1123	n/a	n/a	0	0	0
1543.212	n/a	WORD	771606	wordpools/wasnorm_wordpool_576.txt	LTP251	ltpFR2	15	7	TREAT	1501	n/a	n/a	0	0	0
1545.664	n/a	WORD	772832	wordpools/wasnorm_wordpool_576.txt	LTP251	ltpFR2	15	7	MACHINE	852	n/a	n/a	0	0	0
1548.452	n/a	WORD	774226	wordpools/wasnorm_wordpool_576.txt	LTP251	ltpFR2	15	7	ROBOT	1200	n/a	n/a	0	0	0
1551.17	n/a	WORD	775585	wordpools/wasnorm_wordpool_576.txt	LTP251	ltpFR2	15	7	DRESS	495	n/a	n/a	0	0	0
1552.788	n/a	START	776394	n/a	LTP251	ltpFR2	15	n/a	n/a	n/a	12	n/a	n/a	n/a	n/a
1553.6	n/a	DISTRACTOR	776800	n/a	LTP251	ltpFR2	15	7	n/a	n/a	n/a	n/a	0	0	0
1553.604	n/a	PROB	776802	n/a	LTP251	ltpFR2	15	n/a	n/a	n/a	12	100	5	1	4
1555.506	n/a	PROB	777753	n/a	LTP251	ltpFR2	15	n/a	n/a	n/a	12	17	9	5	3
1557.558	n/a	PROB	778779	n/a	LTP251	ltpFR2	15	n/a	n/a	n/a	12	14	1	9	4
1558.774	n/a	PROB	779387	n/a	LTP251	ltpFR2	15	n/a	n/a	n/a	12	13	3	1	9
1560.592	n/a	PROB	780296	n/a	LTP251	ltpFR2	15	n/a	n/a	n/a	12	15	3	3	9
1562.26	n/a	PROB	781130	n/a	LTP251	ltpFR2	15	n/a	n/a	n/a	12	22	9	5	8
1568.032	n/a	PROB	784016	n/a	LTP251	ltpFR2	15	n/a	n/a	n/a	12	12	1	4	7
1569.684	n/a	PROB	784842	n/a	LTP251	ltpFR2	15	n/a	n/a	n/a	12	10	2	4	4
1571.284	n/a	PROB	785642	n/a	LTP251	ltpFR2	15	n/a	n/a	n/a	12	17	1	7	9
1573.452	n/a	PROB	786726	n/a	LTP251	ltpFR2	15	n/a	n/a	n/a	12	14	2	5	7
1575.554	n/a	STOP	787777	n/a	LTP251	ltpFR2	15	n/a	n/a	n/a	12	n/a	n/a	n/a	n/a
1578.706	n/a	REC_START	789353	n/a	LTP251	ltpFR2	15	7	n/a	n/a	n/a	n/a	0	0	0
1580.784	n/a	REC_WORD	790392	wordpools/wasnorm_wordpool_576.txt	LTP251	ltpFR2	15	7	CHAUFFEUR	283	n/a	n/a	0	0	0
1581.784	n/a	REC_WORD_VV	790892	wordpools/wasnorm_wordpool_576.txt	LTP251	ltpFR2	15	7	<>	-1	n/a	n/a	0	0	0
1582.632	n/a	REC_WORD	791316	wordpools/wasnorm_wordpool_576.txt	LTP251	ltpFR2	15	7	DASHBOARD	441	n/a	n/a	0	0	0
1584.804	n/a	REC_WORD	792402	wordpools/wasnorm_wordpool_576.txt	LTP251	ltpFR2	15	7	CLAM	315	n/a	n/a	0	0	0
1586.938	n/a	REC_WORD	793469	wordpools/wasnorm_wordpool_576.txt	LTP251	ltpFR2	15	7	PRIMATE	1123	n/a	n/a	0	0	0
1588.36	n/a	REC_WORD	794180	wordpools/wasnorm_wordpool_576.txt	LTP251	ltpFR2	15	7	TREAT	1501	n/a	n/a	0	0	0
1590.584	n/a	REC_WORD	795292	wordpools/wasnorm_wordpool_576.txt	LTP251	ltpFR2	15	7	FILM	565	n/a	n/a	0	0	0
1591.914	n/a	REC_WORD	795957	wordpools/wasnorm_wordpool_576.txt	LTP251	ltpFR2	15	7	TUTU	1524	n/a	n/a	0	0	0
1593.41	n/a	REC_WORD	796705	wordpools/wasnorm_wordpool_576.txt	LTP251	ltpFR2	15	7	DRESS	495	n/a	n/a	0	0	0
1597.11	n/a	REC_WORD	798555	wordpools/wasnorm_wordpool_576.txt	LTP251	ltpFR2	15	7	CIGAR	308	n/a	n/a	0	0	0
1600.026	n/a	REC_WORD	800013	wordpools/wasnorm_wordpool_576.txt	LTP251	ltpFR2	15	7	CHAPEL	280	n/a	n/a	0	0	0
1602.35	n/a	REC_WORD	801175	wordpools/wasnorm_wordpool_576.txt	LTP251	ltpFR2	15	7	OX	994	n/a	n/a	0	0	0
1604.19	n/a	REC_WORD	802095	wordpools/wasnorm_wordpool_576.txt	LTP251	ltpFR2	15	7	BEEF	113	n/a	n/a	0	0	0
1605.5	n/a	REC_WORD	802750	wordpools/wasnorm_wordpool_576.txt	LTP251	ltpFR2	15	7	CATTLE	261	n/a	n/a	0	0	0
1607.092	n/a	REC_WORD	803546	wordpools/wasnorm_wordpool_576.txt	LTP251	ltpFR2	15	7	MEAT	883	n/a	n/a	0	0	0
1608.494	n/a	REC_WORD	804247	wordpools/wasnorm_wordpool_576.txt	LTP251	ltpFR2	15	7	TRACTOR	1493	n/a	n/a	0	0	0
1609.998	n/a	REC_WORD	804999	wordpools/wasnorm_wordpool_576.txt	LTP251	ltpFR2	15	7	ROBOT	1200	n/a	n/a	0	0	0
1611.304	n/a	REC_WORD	805652	wordpools/wasnorm_wordpool_576.txt	LTP251	ltpFR2	15	7	MACHINE	852	n/a	n/a	0	0	0
1669.144	n/a	WORD	834572	wordpools/wasnorm_wordpool_576.txt	LTP251	ltpFR2	15	8	SHELTER	1282	n/a	n/a	0	0	0
1671.722	n/a	WORD	835861	wordpools/wasnorm_wordpool_576.txt	LTP251	ltpFR2	15	8	GOBLIN	645	n/a	n/a	0	0	0
1674.482	n/a	WORD	837241	wordpools/wasnorm_wordpool_576.txt	LTP251	ltpFR2	15	8	SMOG	1330	n/a	n/a	0	0	0
1677.128	n/a	WORD	838564	wordpools/wasnorm_wordpool_576.txt	LTP251	ltpFR2	15	8	CLOUD	328	n/a	n/a	0	0	0
1679.564	n/a	WORD	839782	wordpools/wasnorm_wordpool_576.txt	LTP251	ltpFR2	15	8	TYPIST	1532	n/a	n/a	0	0	0
1682.366	n/a	WORD	841183	wordpools/wasnorm_wordpool_576.txt	LTP251	ltpFR2	15	8	SPOUSE	1358	n/a	n/a	0	0	0
1684.984	n/a	WORD	842492	wordpools/wasnorm_wordpool_576.txt	LTP251	ltpFR2	15	8	QUEEN	1149	n/a	n/a	0	0	0
1687.586	n/a	WORD	843793	wordpools/wasnorm_wordpool_576.txt	LTP251	ltpFR2	15	8	BREAST	171	n/a	n/a	0	0	0
1690.122	n/a	WORD	845061	wordpools/wasnorm_wordpool_576.txt	LTP251	ltpFR2	15	8	BANQUET	86	n/a	n/a	0	0	0
1692.774	n/a	WORD	846387	wordpools/wasnorm_wordpool_576.txt	LTP251	ltpFR2	15	8	CABBAGE	210	n/a	n/a	0	0	0
1695.582	n/a	WORD	847791	wordpools/wasnorm_wordpool_576.txt	LTP251	ltpFR2	15	8	COCKTAIL	338	n/a	n/a	0	0	0
1698.38	n/a	WORD	849190	wordpools/wasnorm_wordpool_576.txt	LTP251	ltpFR2	15	8	SPOOL	1356	n/a	n/a	0	0	0
1701.03	n/a	WORD	850515	wordpools/wasnorm_wordpool_576.txt	LTP251	ltpFR2	15	8	CYCLONE	431	n/a	n/a	0	0	0
1703.734	n/a	WORD	851867	wordpools/wasnorm_wordpool_576.txt	LTP251	ltpFR2	15	8	GIFT	635	n/a	n/a	0	0	0
1706.542	n/a	WORD	853271	wordpools/wasnorm_wordpool_576.txt	LTP251	ltpFR2	15	8	UNCLE	1536	n/a	n/a	0	0	0
1709.172	n/a	WORD	854586	wordpools/wasnorm_wordpool_576.txt	LTP251	ltpFR2	15	8	COUSIN	392	n/a	n/a	0	0	0
1711.626	n/a	WORD	855813	wordpools/wasnorm_wordpool_576.txt	LTP251	ltpFR2	15	8	HORNET	718	n/a	n/a	0	0	0
1714.244	n/a	WORD	857122	wordpools/wasnorm_wordpool_576.txt	LTP251	ltpFR2	15	8	GRILL	661	n/a	n/a	0	0	0
1716.864	n/a	WORD	858432	wordpools/wasnorm_wordpool_576.txt	LTP251	ltpFR2	15	8	CUSTARD	429	n/a	n/a	0	0	0
1719.414	n/a	WORD	859707	wordpools/wasnorm_wordpool_576.txt	LTP251	ltpFR2	15	8	BLENDER	136	n/a	n/a	0	0	0
1721.998	n/a	WORD	860999	wordpools/wasnorm_wordpool_576.txt	LTP251	ltpFR2	15	8	BLACKBOARD	133	n/a	n/a	0	0	0
1724.418	n/a	WORD	862209	wordpools/wasnorm_wordpool_576.txt	LTP251	ltpFR2	15	8	HUSBAND	728	n/a	n/a	0	0	0
1727.138	n/a	WORD	863569	wordpools/wasnorm_wordpool_576.txt	LTP251	ltpFR2	15	8	SUBWAY	1400	n/a	n/a	0	0	0
1729.622	n/a	WORD	864811	wordpools/wasnorm_wordpool_576.txt	LTP251	ltpFR2	15	8	LASER	801	n/a	n/a	0	0	0
1731.226	n/a	START	865613	n/a	LTP251	ltpFR2	15	n/a	n/a	n/a	13	n/a	n/a	n/a	n/a
1732.406	n/a	DISTRACTOR	866203	n/a	LTP251	ltpFR2	15	8	n/a	n/a	n/a	n/a	0	0	0
1732.41	n/a	PROB	866205	n/a	LTP251	ltpFR2	15	n/a	n/a	n/a	13	145	6	7	2
1736.362	n/a	PROB	868181	n/a	LTP251	ltpFR2	15	n/a	n/a	n/a	13	12	4	5	3
1738.928	n/a	PROB	869464	n/a	LTP251	ltpFR2	15	n/a	n/a	n/a	13	19	3	7	9
1740.714	n/a	PROB	870357	n/a	LTP251	ltpFR2	15	n/a	n/a	n/a	13	15	6	8	1
1742.25	n/a	PROB	871125	n/a	LTP251	ltpFR2	15	n/a	n/a	n/a	13	14	1	4	9
1743.57	n/a	PROB	871785	n/a	LTP251	ltpFR2	15	n/a	n/a	n/a	13	20	6	6	8
1746.138	n/a	PROB	873069	n/a	LTP251	ltpFR2	15	n/a	n/a	n/a	13	20	5	6	9
1747.972	n/a	PROB	873986	n/a	LTP251	ltpFR2	15	n/a	n/a	n/a	13	21	6	9	6
1751.092	n/a	PROB	875546	n/a	LTP251	ltpFR2	15	n/a	n/a	n/a	13	7	1	1	5
1752.392	n/a	PROB	876196	n/a	LTP251	ltpFR2	15	n/a	n/a	n/a	13	15	2	4	9
1753.766	n/a	STOP	876883	n/a	LTP251	ltpFR2	15	n/a	n/a	n/a	13	n/a	n/a	n/a	n/a
1757.03	n/a	REC_START	878515	n/a	LTP251	ltpFR2	15	8	n/a	n/a	n/a	n/a	0	0	0
1807.16	n/a	REC_WORD	903580	wordpools/wasnorm_wordpool_576.txt	LTP251	ltpFR2	15	8	QUEEN	1149	n/a	n/a	0	0	0
1808.128	n/a	REC_WORD	904064	wordpools/wasnorm_wordpool_576.txt	LTP251	ltpFR2	15	8	BREAST	171	n/a	n/a	0	0	0
1809.184	n/a	REC_WORD	904592	wordpools/wasnorm_wordpool_576.txt	LTP251	ltpFR2	15	8	BANQUET	86	n/a	n/a	0	0	0
1811.946	n/a	REC_WORD	905973	wordpools/wasnorm_wordpool_576.txt	LTP251	ltpFR2	15	8	COUSIN	392	n/a	n/a	0	0	0
1812.872	n/a	REC_WORD	906436	wordpools/wasnorm_wordpool_576.txt	LTP251	ltpFR2	15	8	UNCLE	1536	n/a	n/a	0	0	0
1813.718	n/a	REC_WORD	906859	wordpools/wasnorm_wordpool_576.txt	LTP251	ltpFR2	15	8	SPOOL	1356	n/a	n/a	0	0	0
1815.71	n/a	REC_WORD	907855	wordpools/wasnorm_wordpool_576.txt	LTP251	ltpFR2	15	8	COCKTAIL	338	n/a	n/a	0	0	0
1817.408	n/a	REC_WORD	908704	wordpools/wasnorm_wordpool_576.txt	LTP251	ltpFR2	15	8	CUSTARD	429	n/a	n/a	0	0	0
1828.932	n/a	REC_WORD	914466	wordpools/wasnorm_wordpool_576.txt	LTP251	ltpFR2	15	8	SUBWAY	1400	n/a	n/a	0	0	0
1833.562	n/a	REST_REWET	916781	n/a	LTP251	ltpFR2	15	8	n/a	n/a	n/a	n/a	0	0	0
2167.196	n/a	DISTRACTOR	1083598	n/a	LTP251	ltpFR2	15	9	n/a	n/a	n/a	n/a	0	0	0
2167.196	n/a	START	1083598	n/a	LTP251	ltpFR2	15	n/a	n/a	n/a	14	n/a	n/a	n/a	n/a
2167.21	n/a	PROB	1083605	n/a	LTP251	ltpFR2	15	n/a	n/a	n/a	14	8	5	1	2
2168.85	n/a	PROB	1084425	n/a	LTP251	ltpFR2	15	n/a	n/a	n/a	14	16	1	9	6
2170.134	n/a	PROB	1085067	n/a	LTP251	ltpFR2	15	n/a	n/a	n/a	14	21	7	5	9
2171.502	n/a	PROB	1085751	n/a	LTP251	ltpFR2	15	n/a	n/a	n/a	14	8	3	3	2
2174.638	n/a	PROB	1087319	n/a	LTP251	ltpFR2	15	n/a	n/a	n/a	14	13	4	3	6
2176.69	n/a	PROB	1088345	n/a	LTP251	ltpFR2	15	n/a	n/a	n/a	14	15	5	1	9
2178.774	n/a	PROB	1089387	n/a	LTP251	ltpFR2	15	n/a	n/a	n/a	14	12	3	4	5
2180.892	n/a	PROB	1090446	n/a	LTP251	ltpFR2	15	n/a	n/a	n/a	14	9	3	2	4
2183.396	n/a	PROB	1091698	n/a	LTP251	ltpFR2	15	n/a	n/a	n/a	14	20	7	5	8
2185.096	n/a	PROB	1092548	n/a	LTP251	ltpFR2	15	n/a	n/a	n/a	14	14	3	5	6
2187.548	n/a	PROB	1093774	n/a	LTP251	ltpFR2	15	n/a	n/a	n/a	14	18	8	7	3
2189.168	n/a	PROB	1094584	n/a	LTP251	ltpFR2	15	n/a	n/a	n/a	14	15	4	2	9
2190.47	n/a	STOP	1095235	n/a	LTP251	ltpFR2	15	n/a	n/a	n/a	14	n/a	n/a	n/a	n/a
2192.25	n/a	WORD	1096125	wordpools/wasnorm_wordpool_576.txt	LTP251	ltpFR2	15	9	SWORD	1423	n/a	n/a	0	0	0
2194.968	n/a	WORD	1097484	wordpools/wasnorm_wordpool_576.txt	LTP251	ltpFR2	15	9	NAPKIN	937	n/a	n/a	0	0	0
2197.69	n/a	WORD	1098845	wordpools/wasnorm_wordpool_576.txt	LTP251	ltpFR2	15	9	FOOTBALL	591	n/a	n/a	0	0	0
2200.44	n/a	WORD	1100220	wordpools/wasnorm_wordpool_576.txt	LTP251	ltpFR2	15	9	MARSH	874	n/a	n/a	0	0	0
2203.146	n/a	WORD	1101573	wordpools/wasnorm_wordpool_576.txt	LTP251	ltpFR2	15	9	COFFEE	341	n/a	n/a	0	0	0
2205.66	n/a	WORD	1102830	wordpools/wasnorm_wordpool_576.txt	LTP251	ltpFR2	15	9	CAFE	216	n/a	n/a	0	0	0
2208.396	n/a	WORD	1104198	wordpools/wasnorm_wordpool_576.txt	LTP251	ltpFR2	15	9	OMELET	976	n/a	n/a	0	0	0
2210.88	n/a	WORD	1105440	wordpools/wasnorm_wordpool_576.txt	LTP251	ltpFR2	15	9	NEUTRON	947	n/a	n/a	0	0	0
2213.666	n/a	WORD	1106833	wordpools/wasnorm_wordpool_576.txt	LTP251	ltpFR2	15	9	PROTON	1132	n/a	n/a	0	0	0
2216.452	n/a	WORD	1108226	wordpools/wasnorm_wordpool_576.txt	LTP251	ltpFR2	15	9	BATHTUB	100	n/a	n/a	0	0	0
2218.87	n/a	WORD	1109435	wordpools/wasnorm_wordpool_576.txt	LTP251	ltpFR2	15	9	CUPBOARD	425	n/a	n/a	0	0	0
2221.59	n/a	WORD	1110795	wordpools/wasnorm_wordpool_576.txt	LTP251	ltpFR2	15	9	MAPLE	866	n/a	n/a	0	0	0
2224.16	n/a	WORD	1112080	wordpools/wasnorm_wordpool_576.txt	LTP251	ltpFR2	15	9	RELISH	1183	n/a	n/a	0	0	0
2226.644	n/a	WORD	1113322	wordpools/wasnorm_wordpool_576.txt	LTP251	ltpFR2	15	9	CREVICE	405	n/a	n/a	0	0	0
2229.314	n/a	WORD	1114657	wordpools/wasnorm_wordpool_576.txt	LTP251	ltpFR2	15	9	JUDGE	761	n/a	n/a	0	0	0
2231.966	n/a	WORD	1115983	wordpools/wasnorm_wordpool_576.txt	LTP251	ltpFR2	15	9	WRIST	1626	n/a	n/a	0	0	0
2234.634	n/a	WORD	1117317	wordpools/wasnorm_wordpool_576.txt	LTP251	ltpFR2	15	9	TABLET	1427	n/a	n/a	0	0	0
2237.42	n/a	WORD	1118710	wordpools/wasnorm_wordpool_576.txt	LTP251	ltpFR2	15	9	JUNGLE	764	n/a	n/a	0	0	0
2240.006	n/a	WORD	1120003	wordpools/wasnorm_wordpool_576.txt	LTP251	ltpFR2	15	9	VALVE	1546	n/a	n/a	0	0	0
2242.81	n/a	WORD	1121405	wordpools/wasnorm_wordpool_576.txt	LTP251	ltpFR2	15	9	PAIL	1002	n/a	n/a	0	0	0
2245.444	n/a	WORD	1122722	wordpools/wasnorm_wordpool_576.txt	LTP251	ltpFR2	15	9	BROOK	177	n/a	n/a	0	0	0
2248.266	n/a	WORD	1124133	wordpools/wasnorm_wordpool_576.txt	LTP251	ltpFR2	15	9	HEART	697	n/a	n/a	0	0	0
2250.864	n/a	WORD	1125432	wordpools/wasnorm_wordpool_576.txt	LTP251	ltpFR2	15	9	ITEM	746	n/a	n/a	0	0	0
2253.6	n/a	WORD	1126800	wordpools/wasnorm_wordpool_576.txt	LTP251	ltpFR2	15	9	JURY	766	n/a	n/a	0	0	0
2255.204	n/a	START	1127602	n/a	LTP251	ltpFR2	15	n/a	n/a	n/a	15	n/a	n/a	n/a	n/a
2256.164	n/a	DISTRACTOR	1128082	n/a	LTP251	ltpFR2	15	9	n/a	n/a	n/a	n/a	0	0	0
2256.17	n/a	PROB	1128085	n/a	LTP251	ltpFR2	15	n/a	n/a	n/a	15	20	9	5	6
2258.004	n/a	PROB	1129002	n/a	LTP251	ltpFR2	15	n/a	n/a	n/a	15	14	2	5	7
2260.272	n/a	PROB	1130136	n/a	LTP251	ltpFR2	15	n/a	n/a	n/a	15	19	8	9	2
2262.892	n/a	PROB	1131446	n/a	LTP251	ltpFR2	15	n/a	n/a	n/a	15	18	6	4	8
2264.224	n/a	PROB	1132112	n/a	LTP251	ltpFR2	15	n/a	n/a	n/a	15	9	2	6	1
2265.66	n/a	PROB	1132830	n/a	LTP251	ltpFR2	15	n/a	n/a	n/a	15	20	9	9	2
2268.912	n/a	PROB	1134456	n/a	LTP251	ltpFR2	15	n/a	n/a	n/a	15	8	4	1	3
2272.064	n/a	PROB	1136032	n/a	LTP251	ltpFR2	15	n/a	n/a	n/a	15	14	5	7	2
2273.282	n/a	PROB	1136641	n/a	LTP251	ltpFR2	15	n/a	n/a	n/a	15	20	5	6	9
2274.75	n/a	PROB	1137375	n/a	LTP251	ltpFR2	15	n/a	n/a	n/a	15	17	9	4	4
2276.384	n/a	PROB	1138192	n/a	LTP251	ltpFR2	15	n/a	n/a	n/a	15	22	8	7	7
2278.36	n/a	STOP	1139180	n/a	LTP251	ltpFR2	15	n/a	n/a	n/a	15	n/a	n/a	n/a	n/a
2280.988	n/a	REC_START	1140494	n/a	LTP251	ltpFR2	15	9	n/a	n/a	n/a	n/a	0	0	0
2282.32	n/a	REC_WORD	1141160	wordpools/wasnorm_wordpool_576.txt	LTP251	ltpFR2	15	9	FOOTBALL	591	n/a	n/a	0	0	0
2283.546	n/a	REC_WORD	1141773	wordpools/wasnorm_wordpool_576.txt	LTP251	ltpFR2	15	9	CAFE	216	n/a	n/a	0	0	0
2286.522	n/a	REC_WORD	1143261	wordpools/wasnorm_wordpool_576.txt	LTP251	ltpFR2	15	9	PROTON	1132	n/a	n/a	0	0	0
2287.78	n/a	REC_WORD	1143890	wordpools/wasnorm_wordpool_576.txt	LTP251	ltpFR2	15	9	NEUTRON	947	n/a	n/a	0	0	0
2288.78	n/a	REC_WORD_VV	1144390	wordpools/wasnorm_wordpool_576.txt	LTP251	ltpFR2	15	9	<>	-1	n/a	n/a	0	0	0
2289.356	n/a	REC_WORD	1144678	wordpools/wasnorm_wordpool_576.txt	LTP251	ltpFR2	15	9	JUNGLE	764	n/a	n/a	0	0	0
2290.694	n/a	REC_WORD	1145347	wordpools/wasnorm_wordpool_576.txt	LTP251	ltpFR2	15	9	TABLET	1427	n/a	n/a	0	0	0
2292.062	n/a	REC_WORD	1146031	wordpools/wasnorm_wordpool_576.txt	LTP251	ltpFR2	15	9	WRIST	1626	n/a	n/a	0	0	0
2294.056	n/a	REC_WORD	1147028	wordpools/wasnorm_wordpool_576.txt	LTP251	ltpFR2	15	9	BATHTUB	100	n/a	n/a	0	0	0
2295.26	n/a	REC_WORD	1147630	wordpools/wasnorm_wordpool_576.txt	LTP251	ltpFR2	15	9	VALVE	1546	n/a	n/a	0	0	0
2296.548	n/a	REC_WORD	1148274	wordpools/wasnorm_wordpool_576.txt	LTP251	ltpFR2	15	9	ITEM	746	n/a	n/a	0	0	0
2297.842	n/a	REC_WORD	1148921	wordpools/wasnorm_wordpool_576.txt	LTP251	ltpFR2	15	9	JURY	766	n/a	n/a	0	0	0
2300.83	n/a	REC_WORD	1150415	wordpools/wasnorm_wordpool_576.txt	LTP251	ltpFR2	15	9	JUNGLE	764	n/a	n/a	0	0	0
2315.204	n/a	REC_WORD	1157602	wordpools/wasnorm_wordpool_576.txt	LTP251	ltpFR2	15	9	OMELET	976	n/a	n/a	0	0	0
2316.574	n/a	REC_WORD	1158287	wordpools/wasnorm_wordpool_576.txt	LTP251	ltpFR2	15	9	RELISH	1183	n/a	n/a	0	0	0
2318.104	n/a	REC_WORD	1159052	wordpools/wasnorm_wordpool_576.txt	LTP251	ltpFR2	15	9	MAPLE	866	n/a	n/a	0	0	0
2319.874	n/a	REC_WORD	1159937	wordpools/wasnorm_wordpool_576.txt	LTP251	ltpFR2	15	9	CREVICE	405	n/a	n/a	0	0	0
2371.418	n/a	DISTRACTOR	1185709	n/a	LTP251	ltpFR2	15	10	n/a	n/a	n/a	n/a	0	0	0
2371.418	n/a	START	1185709	n/a	LTP251	ltpFR2	15	n/a	n/a	n/a	16	n/a	n/a	n/a	n/a
2371.432	n/a	PROB	1185716	n/a	LTP251	ltpFR2	15	n/a	n/a	n/a	16	11	1	4	6
2372.976	n/a	PROB	1186488	n/a	LTP251	ltpFR2	15	n/a	n/a	n/a	16	9	4	4	1
2375.378	n/a	PROB	1187689	n/a	LTP251	ltpFR2	15	n/a	n/a	n/a	16	19	9	9	1
2377.546	n/a	PROB	1188773	n/a	LTP251	ltpFR2	15	n/a	n/a	n/a	16	4	2	2	2
2378.63	n/a	PROB	1189315	n/a	LTP251	ltpFR2	15	n/a	n/a	n/a	16	19	9	1	9
2380.284	n/a	PROB	1190142	n/a	LTP251	ltpFR2	15	n/a	n/a	n/a	16	9	3	5	1
2381.95	n/a	PROB	1190975	n/a	LTP251	ltpFR2	15	n/a	n/a	n/a	16	18	2	7	9
2384.252	n/a	PROB	1192126	n/a	LTP251	ltpFR2	15	n/a	n/a	n/a	16	18	9	5	4
2386.02	n/a	PROB	1193010	n/a	LTP251	ltpFR2	15	n/a	n/a	n/a	16	18	2	8	8
2387.57	n/a	PROB	1193785	n/a	LTP251	ltpFR2	15	n/a	n/a	n/a	16	16	6	8	2
2389.538	n/a	PROB	1194769	n/a	LTP251	ltpFR2	15	n/a	n/a	n/a	16	13	9	1	3
2391.49	n/a	PROB	1195745	n/a	LTP251	ltpFR2	15	n/a	n/a	n/a	16	12	6	3	3
2394.05	n/a	STOP	1197025	n/a	LTP251	ltpFR2	15	n/a	n/a	n/a	16	n/a	n/a	n/a	n/a
2396.256	n/a	WORD	1198128	wordpools/wasnorm_wordpool_576.txt	LTP251	ltpFR2	15	10	NOVEL	960	n/a	n/a	0	0	0
2398.824	n/a	WORD	1199412	wordpools/wasnorm_wordpool_576.txt	LTP251	ltpFR2	15	10	PLAID	1080	n/a	n/a	0	0	0
2401.566	n/a	WORD	1200783	wordpools/wasnorm_wordpool_576.txt	LTP251	ltpFR2	15	10	STALLION	1369	n/a	n/a	0	0	0
2404.362	n/a	WORD	1202181	wordpools/wasnorm_wordpool_576.txt	LTP251	ltpFR2	15	10	REPORT	1184	n/a	n/a	0	0	0
2406.936	n/a	WORD	1203468	wordpools/wasnorm_wordpool_576.txt	LTP251	ltpFR2	15	10	SWIMMER	1420	n/a	n/a	0	0	0
2409.666	n/a	WORD	1204833	wordpools/wasnorm_wordpool_576.txt	LTP251	ltpFR2	15	10	TUNNEL	1519	n/a	n/a	0	0	0
2412.386	n/a	WORD	1206193	wordpools/wasnorm_wordpool_576.txt	LTP251	ltpFR2	15	10	BACKBONE	66	n/a	n/a	0	0	0
2414.97	n/a	WORD	1207485	wordpools/wasnorm_wordpool_576.txt	LTP251	ltpFR2	15	10	LEADER	807	n/a	n/a	0	0	0
2417.59	n/a	WORD	1208795	wordpools/wasnorm_wordpool_576.txt	LTP251	ltpFR2	15	10	OZONE	996	n/a	n/a	0	0	0
2420.248	n/a	WORD	1210124	wordpools/wasnorm_wordpool_576.txt	LTP251	ltpFR2	15	10	BLUEPRINT	142	n/a	n/a	0	0	0
2422.7	n/a	WORD	1211350	wordpools/wasnorm_wordpool_576.txt	LTP251	ltpFR2	15	10	MASK	876	n/a	n/a	0	0	0
2425.186	n/a	WORD	1212593	wordpools/wasnorm_wordpool_576.txt	LTP251	ltpFR2	15	10	RECORD	1176	n/a	n/a	0	0	0
2427.852	n/a	WORD	1213926	wordpools/wasnorm_wordpool_576.txt	LTP251	ltpFR2	15	10	CABIN	211	n/a	n/a	0	0	0
2430.668	n/a	WORD	1215334	wordpools/wasnorm_wordpool_576.txt	LTP251	ltpFR2	15	10	TURTLE	1522	n/a	n/a	0	0	0
2433.354	n/a	WORD	1216677	wordpools/wasnorm_wordpool_576.txt	LTP251	ltpFR2	15	10	SLUG	1329	n/a	n/a	0	0	0
2436.01	n/a	WORD	1218005	wordpools/wasnorm_wordpool_576.txt	LTP251	ltpFR2	15	10	HARP	689	n/a	n/a	0	0	0
2438.54	n/a	WORD	1219270	wordpools/wasnorm_wordpool_576.txt	LTP251	ltpFR2	15	10	SPHINX	1349	n/a	n/a	0	0	0
2441.092	n/a	WORD	1220546	wordpools/wasnorm_wordpool_576.txt	LTP251	ltpFR2	15	10	BODY	145	n/a	n/a	0	0	0
2443.564	n/a	WORD	1221782	wordpools/wasnorm_wordpool_576.txt	LTP251	ltpFR2	15	10	BOARD	143	n/a	n/a	0	0	0
2446.084	n/a	WORD	1223042	wordpools/wasnorm_wordpool_576.txt	LTP251	ltpFR2	15	10	MESSAGE	888	n/a	n/a	0	0	0
2448.666	n/a	WORD	1224333	wordpools/wasnorm_wordpool_576.txt	LTP251	ltpFR2	15	10	SANDWICH	1232	n/a	n/a	0	0	0
2451.1	n/a	WORD	1225550	wordpools/wasnorm_wordpool_576.txt	LTP251	ltpFR2	15	10	SAUSAGE	1238	n/a	n/a	0	0	0
2453.888	n/a	WORD	1226944	wordpools/wasnorm_wordpool_576.txt	LTP251	ltpFR2	15	10	FOREHEAD	592	n/a	n/a	0	0	0
2456.624	n/a	WORD	1228312	wordpools/wasnorm_wordpool_576.txt	LTP251	ltpFR2	15	10	GUITAR	670	n/a	n/a	0	0	0
2458.228	n/a	START	1229114	n/a	LTP251	ltpFR2	15	n/a	n/a	n/a	17	n/a	n/a	n/a	n/a
2459.336	n/a	DISTRACTOR	1229668	n/a	LTP251	ltpFR2	15	10	n/a	n/a	n/a	n/a	0	0	0
2459.342	n/a	PROB	1229671	n/a	LTP251	ltpFR2	15	n/a	n/a	n/a	17	15	3	9	3
2461.294	n/a	PROB	1230647	n/a	LTP251	ltpFR2	15	n/a	n/a	n/a	17	16	6	1	9
2463.01	n/a	PROB	1231505	n/a	LTP251	ltpFR2	15	n/a	n/a	n/a	17	18	6	7	5
2464.846	n/a	PROB	1232423	n/a	LTP251	ltpFR2	15	n/a	n/a	n/a	17	16	5	2	9
2466.634	n/a	PROB	1233317	n/a	LTP251	ltpFR2	15	n/a	n/a	n/a	17	11	5	3	3
2468.698	n/a	PROB	1234349	n/a	LTP251	ltpFR2	15	n/a	n/a	n/a	17	11	7	2	4
2470.552	n/a	PROB	1235276	n/a	LTP251	ltpFR2	15	n/a	n/a	n/a	17	7	3	1	3
2472.486	n/a	PROB	1236243	n/a	LTP251	ltpFR2	15	n/a	n/a	n/a	17	17	5	5	7
2473.856	n/a	PROB	1236928	n/a	LTP251	ltpFR2	15	n/a	n/a	n/a	17	8	4	3	1
2476.042	n/a	PROB	1238021	n/a	LTP251	ltpFR2	15	n/a	n/a	n/a	17	24	9	7	8
2478.294	n/a	PROB	1239147	n/a	LTP251	ltpFR2	15	n/a	n/a	n/a	17	20	7	7	6
2481.58	n/a	STOP	1240790	n/a	LTP251	ltpFR2	15	n/a	n/a	n/a	17	n/a	n/a	n/a	n/a
2484.014	n/a	REC_START	1242007	n/a	LTP251	ltpFR2	15	10	n/a	n/a	n/a	n/a	0	0	0
2485.372	n/a	REC_WORD	1242686	wordpools/wasnorm_wordpool_576.txt	LTP251	ltpFR2	15	10	SWIMMER	1420	n/a	n/a	0	0	0
2486.372	n/a	REC_WORD_VV	1243186	wordpools/wasnorm_wordpool_576.txt	LTP251	ltpFR2	15	10	<>	-1	n/a	n/a	0	0	0
2486.688	n/a	REC_WORD	1243344	wordpools/wasnorm_wordpool_576.txt	LTP251	ltpFR2	15	10	BACKBONE	66	n/a	n/a	0	0	0
2487.688	n/a	REC_WORD_VV	1243844	wordpools/wasnorm_wordpool_576.txt	LTP251	ltpFR2	15	10	<>	-1	n/a	n/a	0	0	0
2488.37	n/a	REC_WORD	1244185	wordpools/wasnorm_wordpool_576.txt	LTP251	ltpFR2	15	10	FOREHEAD	592	n/a	n/a	0	0	0
2489.726	n/a	REC_WORD	1244863	wordpools/wasnorm_wordpool_576.txt	LTP251	ltpFR2	15	10	MASK	876	n/a	n/a	0	0	0
2491.012	n/a	REC_WORD	1245506	wordpools/wasnorm_wordpool_576.txt	LTP251	ltpFR2	15	10	OZONE	996	n/a	n/a	0	0	0
2492.858	n/a	REC_WORD	1246429	wordpools/wasnorm_wordpool_576.txt	LTP251	ltpFR2	15	10	TURTLE	1522	n/a	n/a	0	0	0
2494.066	n/a	REC_WORD	1247033	wordpools/wasnorm_wordpool_576.txt	LTP251	ltpFR2	15	10	SLUG	1329	n/a	n/a	0	0	0
2495.708	n/a	REC_WORD	1247854	wordpools/wasnorm_wordpool_576.txt	LTP251	ltpFR2	15	10	TUNNEL	1519	n/a	n/a	0	0	0
2497.086	n/a	REC_WORD	1248543	wordpools/wasnorm_wordpool_576.txt	LTP251	ltpFR2	15	10	CABIN	211	n/a	n/a	0	0	0
2498.71	n/a	REC_WORD	1249355	wordpools/wasnorm_wordpool_576.txt	LTP251	ltpFR2	15	10	RECORD	1176	n/a	n/a	0	0	0
2500.364	n/a	REC_WORD	1250182	wordpools/wasnorm_wordpool_576.txt	LTP251	ltpFR2	15	10	BODY	145	n/a	n/a	0	0	0
2501.834	n/a	REC_WORD	1250917	wordpools/wasnorm_wordpool_576.txt	LTP251	ltpFR2	15	10	SANDWICH	1232	n/a	n/a	0	0	0
2503.12	n/a	REC_WORD	1251560	wordpools/wasnorm_wordpool_576.txt	LTP251	ltpFR2	15	10	SAUSAGE	1238	n/a	n/a	0	0	0
2504.63	n/a	REC_WORD	1252315	wordpools/wasnorm_wordpool_576.txt	LTP251	ltpFR2	15	10	MESSAGE	888	n/a	n/a	0	0	0
2507.566	n/a	REC_WORD	1253783	wordpools/wasnorm_wordpool_576.txt	LTP251	ltpFR2	15	10	BOARD	143	n/a	n/a	0	0	0
2574.45	n/a	WORD	1287225	wordpools/wasnorm_wordpool_576.txt	LTP251	ltpFR2	15	11	SHARK	1275	n/a	n/a	0	0	0
2577.102	n/a	WORD	1288551	wordpools/wasnorm_wordpool_576.txt	LTP251	ltpFR2	15	11	BUG	187	n/a	n/a	0	0	0
2579.522	n/a	WORD	1289761	wordpools/wasnorm_wordpool_576.txt	LTP251	ltpFR2	15	11	PALACE	1006	n/a	n/a	0	0	0
2581.94	n/a	WORD	1290970	wordpools/wasnorm_wordpool_576.txt	LTP251	ltpFR2	15	11	GRIZZLY	662	n/a	n/a	0	0	0
2584.558	n/a	WORD	1292279	wordpools/wasnorm_wordpool_576.txt	LTP251	ltpFR2	15	11	JEANS	752	n/a	n/a	0	0	0
2587.3	n/a	WORD	1293650	wordpools/wasnorm_wordpool_576.txt	LTP251	ltpFR2	15	11	AIRPLANE	12	n/a	n/a	0	0	0
2589.896	n/a	WORD	1294948	wordpools/wasnorm_wordpool_576.txt	LTP251	ltpFR2	15	11	PARENT	1013	n/a	n/a	0	0	0
2592.548	n/a	WORD	1296274	wordpools/wasnorm_wordpool_576.txt	LTP251	ltpFR2	15	11	RUST	1219	n/a	n/a	0	0	0
2595.308	n/a	WORD	1297654	wordpools/wasnorm_wordpool_576.txt	LTP251	ltpFR2	15	11	TAXI	1438	n/a	n/a	0	0	0
2598.112	n/a	WORD	1299056	wordpools/wasnorm_wordpool_576.txt	LTP251	ltpFR2	15	11	MARKER	870	n/a	n/a	0	0	0
2600.604	n/a	WORD	1300302	wordpools/wasnorm_wordpool_576.txt	LTP251	ltpFR2	15	11	BUREAU	199	n/a	n/a	0	0	0
2603.182	n/a	WORD	1301591	wordpools/wasnorm_wordpool_576.txt	LTP251	ltpFR2	15	11	HANDBAG	684	n/a	n/a	0	0	0
2605.958	n/a	WORD	1302979	wordpools/wasnorm_wordpool_576.txt	LTP251	ltpFR2	15	11	LADY	794	n/a	n/a	0	0	0
2608.386	n/a	WORD	1304193	wordpools/wasnorm_wordpool_576.txt	LTP251	ltpFR2	15	11	SHORTS	1293	n/a	n/a	0	0	0
2611.072	n/a	WORD	1305536	wordpools/wasnorm_wordpool_576.txt	LTP251	ltpFR2	15	11	VENUS	1557	n/a	n/a	0	0	0
2613.732	n/a	WORD	1306866	wordpools/wasnorm_wordpool_576.txt	LTP251	ltpFR2	15	11	LAMP	798	n/a	n/a	0	0	0
2616.244	n/a	WORD	1308122	wordpools/wasnorm_wordpool_576.txt	LTP251	ltpFR2	15	11	GYMNAST	675	n/a	n/a	0	0	0
2618.836	n/a	WORD	1309418	wordpools/wasnorm_wordpool_576.txt	LTP251	ltpFR2	15	11	JUGGLER	763	n/a	n/a	0	0	0
2621.614	n/a	WORD	1310807	wordpools/wasnorm_wordpool_576.txt	LTP251	ltpFR2	15	11	ZIPPER	1636	n/a	n/a	0	0	0
2624.382	n/a	WORD	1312191	wordpools/wasnorm_wordpool_576.txt	LTP251	ltpFR2	15	11	MISTER	901	n/a	n/a	0	0	0
2626.9	n/a	WORD	1313450	wordpools/wasnorm_wordpool_576.txt	LTP251	ltpFR2	15	11	CHURCH	307	n/a	n/a	0	0	0
2629.476	n/a	WORD	1314738	wordpools/wasnorm_wordpool_576.txt	LTP251	ltpFR2	15	11	IDOL	733	n/a	n/a	0	0	0
2632.172	n/a	WORD	1316086	wordpools/wasnorm_wordpool_576.txt	LTP251	ltpFR2	15	11	FRAME	600	n/a	n/a	0	0	0
2634.908	n/a	WORD	1317454	wordpools/wasnorm_wordpool_576.txt	LTP251	ltpFR2	15	11	ANTLER	29	n/a	n/a	0	0	0
2636.516	n/a	START	1318258	n/a	LTP251	ltpFR2	15	n/a	n/a	n/a	18	n/a	n/a	n/a	n/a
2637.574	n/a	DISTRACTOR	1318787	n/a	LTP251	ltpFR2	15	11	n/a	n/a	n/a	n/a	0	0	0
2637.584	n/a	PROB	1318792	n/a	LTP251	ltpFR2	15	n/a	n/a	n/a	18	22	4	9	9
2639.834	n/a	PROB	1319917	n/a	LTP251	ltpFR2	15	n/a	n/a	n/a	18	13	6	6	1
2641.318	n/a	PROB	1320659	n/a	LTP251	ltpFR2	15	n/a	n/a	n/a	18	19	6	8	5
2644.52	n/a	PROB	1322260	n/a	LTP251	ltpFR2	15	n/a	n/a	n/a	18	22	8	8	6
2646.674	n/a	PROB	1323337	n/a	LTP251	ltpFR2	15	n/a	n/a	n/a	18	23	5	9	9
2650.144	n/a	PROB	1325072	n/a	LTP251	ltpFR2	15	n/a	n/a	n/a	18	16	8	6	2
2653.644	n/a	PROB	1326822	n/a	LTP251	ltpFR2	15	n/a	n/a	n/a	18	18	8	6	4
2655.364	n/a	PROB	1327682	n/a	LTP251	ltpFR2	15	n/a	n/a	n/a	18	19	6	8	5
2659.766	n/a	STOP	1329883	n/a	LTP251	ltpFR2	15	n/a	n/a	n/a	18	n/a	n/a	n/a	n/a
2662.288	n/a	REC_START	1331144	n/a	LTP251	ltpFR2	15	11	n/a	n/a	n/a	n/a	0	0	0
2666.106	n/a	REC_WORD	1333053	wordpools/wasnorm_wordpool_576.txt	LTP251	ltpFR2	15	11	SHARK	1275	n/a	n/a	0	0	0
2667.362	n/a	REC_WORD	1333681	wordpools/wasnorm_wordpool_576.txt	LTP251	ltpFR2	15	11	BUG	187	n/a	n/a	0	0	0
2668.408	n/a	REC_WORD	1334204	wordpools/wasnorm_wordpool_576.txt	LTP251	ltpFR2	15	11	SHORTS	1293	n/a	n/a	0	0	0
2669.63	n/a	REC_WORD	1334815	wordpools/wasnorm_wordpool_576.txt	LTP251	ltpFR2	15	11	JEANS	752	n/a	n/a	0	0	0
2670.816	n/a	REC_WORD	1335408	wordpools/wasnorm_wordpool_576.txt	LTP251	ltpFR2	15	11	PALACE	1006	n/a	n/a	0	0	0
2671.902	n/a	REC_WORD	1335951	wordpools/wasnorm_wordpool_576.txt	LTP251	ltpFR2	15	11	RUST	1219	n/a	n/a	0	0	0
2673.068	n/a	REC_WORD	1336534	wordpools/wasnorm_wordpool_576.txt	LTP251	ltpFR2	15	11	AIRPLANE	12	n/a	n/a	0	0	0
2674.698	n/a	REC_WORD	1337349	wordpools/wasnorm_wordpool_576.txt	LTP251	ltpFR2	15	11	ANTLER	29	n/a	n/a	0	0	0
2676.042	n/a	REC_WORD	1338021	wordpools/wasnorm_wordpool_576.txt	LTP251	ltpFR2	15	11	GRIZZLY	662	n/a	n/a	0	0	0
2677.418	n/a	REC_WORD	1338709	wordpools/wasnorm_wordpool_576.txt	LTP251	ltpFR2	15	11	LADY	794	n/a	n/a	0	0	0
2678.502	n/a	REC_WORD	1339251	wordpools/wasnorm_wordpool_576.txt	LTP251	ltpFR2	15	11	ZIPPER	1636	n/a	n/a	0	0	0
2679.712	n/a	REC_WORD	1339856	wordpools/wasnorm_wordpool_576.txt	LTP251	ltpFR2	15	11	HANDBAG	684	n/a	n/a	0	0	0
2680.712	n/a	REC_WORD_VV	1340356	wordpools/wasnorm_wordpool_576.txt	LTP251	ltpFR2	15	11	<>	-1	n/a	n/a	0	0	0
2681.332	n/a	REC_WORD	1340666	wordpools/wasnorm_wordpool_576.txt	LTP251	ltpFR2	15	11	GYMNAST	675	n/a	n/a	0	0	0
2682.554	n/a	REC_WORD	1341277	wordpools/wasnorm_wordpool_576.txt	LTP251	ltpFR2	15	11	JUGGLER	763	n/a	n/a	0	0	0
2687.428	n/a	REC_WORD	1343714	wordpools/wasnorm_wordpool_576.txt	LTP251	ltpFR2	15	11	TAXI	1438	n/a	n/a	0	0	0
2688.552	n/a	REC_WORD	1344276	wordpools/wasnorm_wordpool_576.txt	LTP251	ltpFR2	15	11	MARKER	870	n/a	n/a	0	0	0
2696.836	n/a	REC_WORD	1348418	wordpools/wasnorm_wordpool_576.txt	LTP251	ltpFR2	15	11	RUST	1219	n/a	n/a	0	0	0
2752.74	n/a	DISTRACTOR	1376370	n/a	LTP251	ltpFR2	15	12	n/a	n/a	n/a	n/a	0	0	0
2752.74	n/a	START	1376370	n/a	LTP251	ltpFR2	15	n/a	n/a	n/a	19	n/a	n/a	n/a	n/a
2752.756	n/a	PROB	1376378	n/a	LTP251	ltpFR2	15	n/a	n/a	n/a	19	16	1	6	9
2754.356	n/a	PROB	1377178	n/a	LTP251	ltpFR2	15	n/a	n/a	n/a	19	20	8	5	7
2755.908	n/a	PROB	1377954	n/a	LTP251	ltpFR2	15	n/a	n/a	n/a	19	12	3	3	6
2757.494	n/a	PROB	1378747	n/a	LTP251	ltpFR2	15	n/a	n/a	n/a	19	19	7	9	3
2759.214	n/a	PROB	1379607	n/a	LTP251	ltpFR2	15	n/a	n/a	n/a	19	13	6	5	1
2760.678	n/a	PROB	1380339	n/a	LTP251	ltpFR2	15	n/a	n/a	n/a	19	4	1	3	3
2762.462	n/a	PROB	1381231	n/a	LTP251	ltpFR2	15	n/a	n/a	n/a	19	9	6	2	1
2763.88	n/a	PROB	1381940	n/a	LTP251	ltpFR2	15	n/a	n/a	n/a	19	13	1	5	7
2765.382	n/a	PROB	1382691	n/a	LTP251	ltpFR2	15	n/a	n/a	n/a	19	6	4	1	1
2766.566	n/a	PROB	1383283	n/a	LTP251	ltpFR2	15	n/a	n/a	n/a	19	16	3	8	6
2768.136	n/a	PROB	1384068	n/a	LTP251	ltpFR2	15	n/a	n/a	n/a	19	18	2	9	7
2770.688	n/a	PROB	1385344	n/a	LTP251	ltpFR2	15	n/a	n/a	n/a	19	12	2	6	4
2772.054	n/a	PROB	1386027	n/a	LTP251	ltpFR2	15	n/a	n/a	n/a	19	18	8	6	4
2773.622	n/a	PROB	1386811	n/a	LTP251	ltpFR2	15	n/a	n/a	n/a	19	15	6	2	7
2776.592	n/a	STOP	1388296	n/a	LTP251	ltpFR2	15	n/a	n/a	n/a	19	n/a	n/a	n/a	n/a
2777.558	n/a	WORD	1388779	wordpools/wasnorm_wordpool_576.txt	LTP251	ltpFR2	15	12	SPARROW	1347	n/a	n/a	0	0	0
2780.128	n/a	WORD	1390064	wordpools/wasnorm_wordpool_576.txt	LTP251	ltpFR2	15	12	DRUG	501	n/a	n/a	0	0	0
2782.7	n/a	WORD	1391350	wordpools/wasnorm_wordpool_576.txt	LTP251	ltpFR2	15	12	BEAVER	109	n/a	n/a	0	0	0
2785.298	n/a	WORD	1392649	wordpools/wasnorm_wordpool_576.txt	LTP251	ltpFR2	15	12	YOLK	1633	n/a	n/a	0	0	0
2787.934	n/a	WORD	1393967	wordpools/wasnorm_wordpool_576.txt	LTP251	ltpFR2	15	12	RADISH	1158	n/a	n/a	0	0	0
2790.44	n/a	WORD	1395220	wordpools/wasnorm_wordpool_576.txt	LTP251	ltpFR2	15	12	LETTUCE	814	n/a	n/a	0	0	0
2793.088	n/a	WORD	1396544	wordpools/wasnorm_wordpool_576.txt	LTP251	ltpFR2	15	12	SUNSET	1408	n/a	n/a	0	0	0
2795.69	n/a	WORD	1397845	wordpools/wasnorm_wordpool_576.txt	LTP251	ltpFR2	15	12	GLOVE	642	n/a	n/a	0	0	0
2798.142	n/a	WORD	1399071	wordpools/wasnorm_wordpool_576.txt	LTP251	ltpFR2	15	12	ICEBERG	731	n/a	n/a	0	0	0
2800.716	n/a	WORD	1400358	wordpools/wasnorm_wordpool_576.txt	LTP251	ltpFR2	15	12	HAWK	692	n/a	n/a	0	0	0
2803.334	n/a	WORD	1401667	wordpools/wasnorm_wordpool_576.txt	LTP251	ltpFR2	15	12	TRENCH	1503	n/a	n/a	0	0	0
2806.064	n/a	WORD	1403032	wordpools/wasnorm_wordpool_576.txt	LTP251	ltpFR2	15	12	SHOVEL	1295	n/a	n/a	0	0	0
2808.75	n/a	WORD	1404375	wordpools/wasnorm_wordpool_576.txt	LTP251	ltpFR2	15	12	MAMMAL	861	n/a	n/a	0	0	0
2811.336	n/a	WORD	1405668	wordpools/wasnorm_wordpool_576.txt	LTP251	ltpFR2	15	12	HOSTESS	723	n/a	n/a	0	0	0
2813.854	n/a	WORD	1406927	wordpools/wasnorm_wordpool_576.txt	LTP251	ltpFR2	15	12	TRANSPLANT	1496	n/a	n/a	0	0	0
2816.422	n/a	WORD	1408211	wordpools/wasnorm_wordpool_576.txt	LTP251	ltpFR2	15	12	GLOBE	641	n/a	n/a	0	0	0
2819.21	n/a	WORD	1409605	wordpools/wasnorm_wordpool_576.txt	LTP251	ltpFR2	15	12	BLOUSE	139	n/a	n/a	0	0	0
2821.844	n/a	WORD	1410922	wordpools/wasnorm_wordpool_576.txt	LTP251	ltpFR2	15	12	VAGRANT	1544	n/a	n/a	0	0	0
2824.614	n/a	WORD	1412307	wordpools/wasnorm_wordpool_576.txt	LTP251	ltpFR2	15	12	SHIRT	1287	n/a	n/a	0	0	0
2827.338	n/a	WORD	1413669	wordpools/wasnorm_wordpool_576.txt	LTP251	ltpFR2	15	12	STICKER	1382	n/a	n/a	0	0	0
2829.8	n/a	WORD	1414900	wordpools/wasnorm_wordpool_576.txt	LTP251	ltpFR2	15	12	LIGHTNING	820	n/a	n/a	0	0	0
2832.486	n/a	WORD	1416243	wordpools/wasnorm_wordpool_576.txt	LTP251	ltpFR2	15	12	HOOD	714	n/a	n/a	0	0	0
2835.156	n/a	WORD	1417578	wordpools/wasnorm_wordpool_576.txt	LTP251	ltpFR2	15	12	BUCKET	184	n/a	n/a	0	0	0
2837.956	n/a	WORD	1418978	wordpools/wasnorm_wordpool_576.txt	LTP251	ltpFR2	15	12	BRIEFCASE	175	n/a	n/a	0	0	0
2839.566	n/a	START	1419783	n/a	LTP251	ltpFR2	15	n/a	n/a	n/a	20	n/a	n/a	n/a	n/a
2840.736	n/a	DISTRACTOR	1420368	n/a	LTP251	ltpFR2	15	12	n/a	n/a	n/a	n/a	0	0	0
2840.742	n/a	PROB	1420371	n/a	LTP251	ltpFR2	15	n/a	n/a	n/a	20	10	5	3	2
2842.81	n/a	PROB	1421405	n/a	LTP251	ltpFR2	15	n/a	n/a	n/a	20	7	1	3	3
2845.13	n/a	PROB	1422565	n/a	LTP251	ltpFR2	15	n/a	n/a	n/a	20	19	9	2	8
2846.812	n/a	PROB	1423406	n/a	LTP251	ltpFR2	15	n/a	n/a	n/a	20	15	5	3	7
2848.614	n/a	PROB	1424307	n/a	LTP251	ltpFR2	15	n/a	n/a	n/a	20	12	6	4	2
2849.816	n/a	PROB	1424908	n/a	LTP251	ltpFR2	15	n/a	n/a	n/a	20	12	4	5	3
2853.852	n/a	PROB	1426926	n/a	LTP251	ltpFR2	15	n/a	n/a	n/a	20	19	3	8	8
2856.12	n/a	PROB	1428060	n/a	LTP251	ltpFR2	15	n/a	n/a	n/a	20	13	2	5	6
2858.038	n/a	PROB	1429019	n/a	LTP251	ltpFR2	15	n/a	n/a	n/a	20	18	7	3	8
2859.488	n/a	PROB	1429744	n/a	LTP251	ltpFR2	15	n/a	n/a	n/a	20	20	9	4	7
2862.006	n/a	PROB	1431003	n/a	LTP251	ltpFR2	15	n/a	n/a	n/a	20	15	6	2	7
2863.538	n/a	STOP	1431769	n/a	LTP251	ltpFR2	15	n/a	n/a	n/a	20	n/a	n/a	n/a	n/a
2865.462	n/a	REC_START	1432731	n/a	LTP251	ltpFR2	15	12	n/a	n/a	n/a	n/a	0	0	0
2866.702	n/a	REC_WORD	1433351	wordpools/wasnorm_wordpool_576.txt	LTP251	ltpFR2	15	12	YOLK	1633	n/a	n/a	0	0	0
2868.57	n/a	REC_WORD	1434285	wordpools/wasnorm_wordpool_576.txt	LTP251	ltpFR2	15	12	CABBAGE	210	n/a	n/a	0	0	0
2869.57	n/a	REC_WORD_VV	1434785	wordpools/wasnorm_wordpool_576.txt	LTP251	ltpFR2	15	12	<>	-1	n/a	n/a	0	0	0
2871.604	n/a	REC_WORD	1435802	wordpools/wasnorm_wordpool_576.txt	LTP251	ltpFR2	15	12	ICEBERG	731	n/a	n/a	0	0	0
2873.246	n/a	REC_WORD	1436623	wordpools/wasnorm_wordpool_576.txt	LTP251	ltpFR2	15	12	BLOUSE	139	n/a	n/a	0	0	0
2874.508	n/a	REC_WORD	1437254	wordpools/wasnorm_wordpool_576.txt	LTP251	ltpFR2	15	12	SHIRT	1287	n/a	n/a	0	0	0
2876.102	n/a	REC_WORD	1438051	wordpools/wasnorm_wordpool_576.txt	LTP251	ltpFR2	15	12	TRENCH	1503	n/a	n/a	0	0	0
2877.582	n/a	REC_WORD	1438791	wordpools/wasnorm_wordpool_576.txt	LTP251	ltpFR2	15	12	GLOBE	641	n/a	n/a	0	0	0
2882.034	n/a	REC_WORD	1441017	wordpools/wasnorm_wordpool_576.txt	LTP251	ltpFR2	15	12	GLOVE	642	n/a	n/a	0	0	0
2883.494	n/a	REC_WORD	1441747	wordpools/wasnorm_wordpool_576.txt	LTP251	ltpFR2	15	12	HOSTESS	723	n/a	n/a	0	0	0
2955.914	n/a	WORD	1477957	wordpools/wasnorm_wordpool_576.txt	LTP251	ltpFR2	15	13	BUNNY	198	n/a	n/a	0	0	0
2958.416	n/a	WORD	1479208	wordpools/wasnorm_wordpool_576.txt	LTP251	ltpFR2	15	13	BOUQUET	157	n/a	n/a	0	0	0
2960.934	n/a	WORD	1480467	wordpools/wasnorm_wordpool_576.txt	LTP251	ltpFR2	15	13	GHETTO	633	n/a	n/a	0	0	0
2963.57	n/a	WORD	1481785	wordpools/wasnorm_wordpool_576.txt	LTP251	ltpFR2	15	13	EMPIRE	530	n/a	n/a	0	0	0
2966.156	n/a	WORD	1483078	wordpools/wasnorm_wordpool_576.txt	LTP251	ltpFR2	15	13	BRICK	172	n/a	n/a	0	0	0
2968.808	n/a	WORD	1484404	wordpools/wasnorm_wordpool_576.txt	LTP251	ltpFR2	15	13	POCKET	1093	n/a	n/a	0	0	0
2971.578	n/a	WORD	1485789	wordpools/wasnorm_wordpool_576.txt	LTP251	ltpFR2	15	13	OYSTER	995	n/a	n/a	0	0	0
2974.03	n/a	WORD	1487015	wordpools/wasnorm_wordpool_576.txt	LTP251	ltpFR2	15	13	ATLAS	53	n/a	n/a	0	0	0
2976.564	n/a	WORD	1488282	wordpools/wasnorm_wordpool_576.txt	LTP251	ltpFR2	15	13	AUTHOR	61	n/a	n/a	0	0	0
2979.2	n/a	WORD	1489600	wordpools/wasnorm_wordpool_576.txt	LTP251	ltpFR2	15	13	SUSPECT	1415	n/a	n/a	0	0	0
2982.018	n/a	WORD	1491009	wordpools/wasnorm_wordpool_576.txt	LTP251	ltpFR2	15	13	BRACES	164	n/a	n/a	0	0	0
2984.772	n/a	WORD	1492386	wordpools/wasnorm_wordpool_576.txt	LTP251	ltpFR2	15	13	OINTMENT	974	n/a	n/a	0	0	0
2987.34	n/a	WORD	1493670	wordpools/wasnorm_wordpool_576.txt	LTP251	ltpFR2	15	13	CARROT	249	n/a	n/a	0	0	0
2990.058	n/a	WORD	1495029	wordpools/wasnorm_wordpool_576.txt	LTP251	ltpFR2	15	13	KNAPSACK	783	n/a	n/a	0	0	0
2992.626	n/a	WORD	1496313	wordpools/wasnorm_wordpool_576.txt	LTP251	ltpFR2	15	13	QUAIL	1147	n/a	n/a	0	0	0
2995.096	n/a	WORD	1497548	wordpools/wasnorm_wordpool_576.txt	LTP251	ltpFR2	15	13	FOOT	590	n/a	n/a	0	0	0
2997.53	n/a	WORD	1498765	wordpools/wasnorm_wordpool_576.txt	LTP251	ltpFR2	15	13	PILOT	1070	n/a	n/a	0	0	0
3000.268	n/a	WORD	1500134	wordpools/wasnorm_wordpool_576.txt	LTP251	ltpFR2	15	13	SPACE	1345	n/a	n/a	0	0	0
3002.986	n/a	WORD	1501493	wordpools/wasnorm_wordpool_576.txt	LTP251	ltpFR2	15	13	SERVANT	1271	n/a	n/a	0	0	0
3005.636	n/a	WORD	1502818	wordpools/wasnorm_wordpool_576.txt	LTP251	ltpFR2	15	13	BABY	64	n/a	n/a	0	0	0
3008.14	n/a	WORD	1504070	wordpools/wasnorm_wordpool_576.txt	LTP251	ltpFR2	15	13	RATTLE	1170	n/a	n/a	0	0	0
3010.574	n/a	WORD	1505287	wordpools/wasnorm_wordpool_576.txt	LTP251	ltpFR2	15	13	PARROT	1015	n/a	n/a	0	0	0
3013.076	n/a	WORD	1506538	wordpools/wasnorm_wordpool_576.txt	LTP251	ltpFR2	15	13	SEAGULL	1261	n/a	n/a	0	0	0
3015.578	n/a	WORD	1507789	wordpools/wasnorm_wordpool_576.txt	LTP251	ltpFR2	15	13	LUGGAGE	847	n/a	n/a	0	0	0
3017.184	n/a	START	1508592	n/a	LTP251	ltpFR2	15	n/a	n/a	n/a	21	n/a	n/a	n/a	n/a
3018.356	n/a	DISTRACTOR	1509178	n/a	LTP251	ltpFR2	15	13	n/a	n/a	n/a	n/a	0	0	0
3018.364	n/a	PROB	1509182	n/a	LTP251	ltpFR2	15	n/a	n/a	n/a	21	11	3	1	7
3020.598	n/a	PROB	1510299	n/a	LTP251	ltpFR2	15	n/a	n/a	n/a	21	8	2	3	3
3022.516	n/a	PROB	1511258	n/a	LTP251	ltpFR2	15	n/a	n/a	n/a	21	14	6	4	4
3023.784	n/a	PROB	1511892	n/a	LTP251	ltpFR2	15	n/a	n/a	n/a	21	16	3	7	6
3025.186	n/a	PROB	1512593	n/a	LTP251	ltpFR2	15	n/a	n/a	n/a	21	20	9	8	3
3027.07	n/a	PROB	1513535	n/a	LTP251	ltpFR2	15	n/a	n/a	n/a	21	17	2	6	9
3028.654	n/a	PROB	1514327	n/a	LTP251	ltpFR2	15	n/a	n/a	n/a	21	13	2	4	7
3030.19	n/a	PROB	1515095	n/a	LTP251	ltpFR2	15	n/a	n/a	n/a	21	11	2	2	7
3031.69	n/a	PROB	1515845	n/a	LTP251	ltpFR2	15	n/a	n/a	n/a	21	20	7	7	6
3033.59	n/a	PROB	1516795	n/a	LTP251	ltpFR2	15	n/a	n/a	n/a	21	19	5	6	8
3035.092	n/a	PROB	1517546	n/a	LTP251	ltpFR2	15	n/a	n/a	n/a	21	19	8	7	4
3036.794	n/a	PROB	1518397	n/a	LTP251	ltpFR2	15	n/a	n/a	n/a	21	19	9	8	2
3041.184	n/a	STOP	1520592	n/a	LTP251	ltpFR2	15	n/a	n/a	n/a	21	n/a	n/a	n/a	n/a
3043.082	n/a	REC_START	1521541	n/a	LTP251	ltpFR2	15	13	n/a	n/a	n/a	n/a	0	0	0
3044.834	n/a	REC_WORD	1522417	wordpools/wasnorm_wordpool_576.txt	LTP251	ltpFR2	15	13	BOUQUET	157	n/a	n/a	0	0	0
3046.258	n/a	REC_WORD	1523129	wordpools/wasnorm_wordpool_576.txt	LTP251	ltpFR2	15	13	BUNNY	198	n/a	n/a	0	0	0
3047.536	n/a	REC_WORD	1523768	wordpools/wasnorm_wordpool_576.txt	LTP251	ltpFR2	15	13	AUTHOR	61	n/a	n/a	0	0	0
3048.946	n/a	REC_WORD	1524473	wordpools/wasnorm_wordpool_576.txt	LTP251	ltpFR2	15	13	BRACES	164	n/a	n/a	0	0	0
3050.242	n/a	REC_WORD	1525121	wordpools/wasnorm_wordpool_576.txt	LTP251	ltpFR2	15	13	CARROT	249	n/a	n/a	0	0	0
3051.608	n/a	REC_WORD	1525804	wordpools/wasnorm_wordpool_576.txt	LTP251	ltpFR2	15	13	OYSTER	995	n/a	n/a	0	0	0
3053.136	n/a	REC_WORD	1526568	wordpools/wasnorm_wordpool_576.txt	LTP251	ltpFR2	15	13	BRICK	172	n/a	n/a	0	0	0
3054.342	n/a	REC_WORD	1527171	wordpools/wasnorm_wordpool_576.txt	LTP251	ltpFR2	15	13	GHETTO	633	n/a	n/a	0	0	0
3055.664	n/a	REC_WORD	1527832	wordpools/wasnorm_wordpool_576.txt	LTP251	ltpFR2	15	13	EMPIRE	530	n/a	n/a	0	0	0
3169.294	n/a	WORD	1584647	wordpools/wasnorm_wordpool_576.txt	LTP251	ltpFR2	15	14	PATROL	1027	n/a	n/a	0	0	0
3171.748	n/a	WORD	1585874	wordpools/wasnorm_wordpool_576.txt	LTP251	ltpFR2	15	14	VIRUS	1572	n/a	n/a	0	0	0
3174.382	n/a	WORD	1587191	wordpools/wasnorm_wordpool_576.txt	LTP251	ltpFR2	15	14	MARS	873	n/a	n/a	0	0	0
3177.07	n/a	WORD	1588535	wordpools/wasnorm_wordpool_576.txt	LTP251	ltpFR2	15	14	BACON	67	n/a	n/a	0	0	0
3179.554	n/a	WORD	1589777	wordpools/wasnorm_wordpool_576.txt	LTP251	ltpFR2	15	14	DIVER	476	n/a	n/a	0	0	0
3182.224	n/a	WORD	1591112	wordpools/wasnorm_wordpool_576.txt	LTP251	ltpFR2	15	14	PLUTO	1092	n/a	n/a	0	0	0
3184.874	n/a	WORD	1592437	wordpools/wasnorm_wordpool_576.txt	LTP251	ltpFR2	15	14	CHEST	295	n/a	n/a	0	0	0
3187.546	n/a	WORD	1593773	wordpools/wasnorm_wordpool_576.txt	LTP251	ltpFR2	15	14	TRIBE	1505	n/a	n/a	0	0	0
3190.346	n/a	WORD	1595173	wordpools/wasnorm_wordpool_576.txt	LTP251	ltpFR2	15	14	PLIERS	1089	n/a	n/a	0	0	0
3192.948	n/a	WORD	1596474	wordpools/wasnorm_wordpool_576.txt	LTP251	ltpFR2	15	14	DRIVER	499	n/a	n/a	0	0	0
3195.736	n/a	WORD	1597868	wordpools/wasnorm_wordpool_576.txt	LTP251	ltpFR2	15	14	BRAKE	166	n/a	n/a	0	0	0
3198.336	n/a	WORD	1599168	wordpools/wasnorm_wordpool_576.txt	LTP251	ltpFR2	15	14	ROOSTER	1209	n/a	n/a	0	0	0
3200.938	n/a	WORD	1600469	wordpools/wasnorm_wordpool_576.txt	LTP251	ltpFR2	15	14	POET	1095	n/a	n/a	0	0	0
3203.658	n/a	WORD	1601829	wordpools/wasnorm_wordpool_576.txt	LTP251	ltpFR2	15	14	WHISTLE	1606	n/a	n/a	0	0	0
3206.092	n/a	WORD	1603046	wordpools/wasnorm_wordpool_576.txt	LTP251	ltpFR2	15	14	BISON	131	n/a	n/a	0	0	0
3208.812	n/a	WORD	1604406	wordpools/wasnorm_wordpool_576.txt	LTP251	ltpFR2	15	14	FLAG	573	n/a	n/a	0	0	0
3211.448	n/a	WORD	1605724	wordpools/wasnorm_wordpool_576.txt	LTP251	ltpFR2	15	14	TROUT	1511	n/a	n/a	0	0	0
3214.016	n/a	WORD	1607008	wordpools/wasnorm_wordpool_576.txt	LTP251	ltpFR2	15	14	FRUIT	610	n/a	n/a	0	0	0
3216.518	n/a	WORD	1608259	wordpools/wasnorm_wordpool_576.txt	LTP251	ltpFR2	15	14	TURNIP	1521	n/a	n/a	0	0	0
3219.24	n/a	WORD	1609620	wordpools/wasnorm_wordpool_576.txt	LTP251	ltpFR2	15	14	STOVE	1388	n/a	n/a	0	0	0
3222.006	n/a	WORD	1611003	wordpools/wasnorm_wordpool_576.txt	LTP251	ltpFR2	15	14	NOMAD	955	n/a	n/a	0	0	0
3224.59	n/a	WORD	1612295	wordpools/wasnorm_wordpool_576.txt	LTP251	ltpFR2	15	14	GANGSTER	620	n/a	n/a	0	0	0
3227.042	n/a	WORD	1613521	wordpools/wasnorm_wordpool_576.txt	LTP251	ltpFR2	15	14	TEMPLE	1448	n/a	n/a	0	0	0
3229.728	n/a	WORD	1614864	wordpools/wasnorm_wordpool_576.txt	LTP251	ltpFR2	15	14	PREACHER	1119	n/a	n/a	0	0	0
3231.348	n/a	START	1615674	n/a	LTP251	ltpFR2	15	n/a	n/a	n/a	22	n/a	n/a	n/a	n/a
3232.24	n/a	DISTRACTOR	1616120	n/a	LTP251	ltpFR2	15	14	n/a	n/a	n/a	n/a	0	0	0
3232.248	n/a	PROB	1616124	n/a	LTP251	ltpFR2	15	n/a	n/a	n/a	22	11	2	3	6
3234.198	n/a	PROB	1617099	n/a	LTP251	ltpFR2	15	n/a	n/a	n/a	22	15	5	4	6
3235.966	n/a	PROB	1617983	n/a	LTP251	ltpFR2	15	n/a	n/a	n/a	22	10	1	6	3
3238.668	n/a	PROB	1619334	n/a	LTP251	ltpFR2	15	n/a	n/a	n/a	22	12	8	1	3
3240.188	n/a	PROB	1620094	n/a	LTP251	ltpFR2	15	n/a	n/a	n/a	22	10	4	2	4
3241.804	n/a	PROB	1620902	n/a	LTP251	ltpFR2	15	n/a	n/a	n/a	22	14	5	6	3
3243.672	n/a	PROB	1621836	n/a	LTP251	ltpFR2	15	n/a	n/a	n/a	22	11	1	5	5
3244.972	n/a	PROB	1622486	n/a	LTP251	ltpFR2	15	n/a	n/a	n/a	22	15	4	2	9
3246.29	n/a	PROB	1623145	n/a	LTP251	ltpFR2	15	n/a	n/a	n/a	22	13	3	9	1
3248.194	n/a	PROB	1624097	n/a	LTP251	ltpFR2	15	n/a	n/a	n/a	22	11	1	1	9
3249.562	n/a	PROB	1624781	n/a	LTP251	ltpFR2	15	n/a	n/a	n/a	22	12	9	1	2
3255.348	n/a	STOP	1627674	n/a	LTP251	ltpFR2	15	n/a	n/a	n/a	22	n/a	n/a	n/a	n/a
3257.118	n/a	REC_START	1628559	n/a	LTP251	ltpFR2	15	14	n/a	n/a	n/a	n/a	0	0	0
3260.206	n/a	REC_WORD	1630103	wordpools/wasnorm_wordpool_576.txt	LTP251	ltpFR2	15	14	TROUT	1511	n/a	n/a	0	0	0
3261.014	n/a	REC_WORD	1630507	wordpools/wasnorm_wordpool_576.txt	LTP251	ltpFR2	15	14	TURNIP	1521	n/a	n/a	0	0	0
3261.948	n/a	REC_WORD	1630974	wordpools/wasnorm_wordpool_576.txt	LTP251	ltpFR2	15	14	BACON	67	n/a	n/a	0	0	0
3262.748	n/a	REC_WORD	1631374	wordpools/wasnorm_wordpool_576.txt	LTP251	ltpFR2	15	14	STOVE	1388	n/a	n/a	0	0	0
3263.794	n/a	REC_WORD	1631897	wordpools/wasnorm_wordpool_576.txt	LTP251	ltpFR2	15	14	FLAG	573	n/a	n/a	0	0	0
3265.058	n/a	REC_WORD	1632529	wordpools/wasnorm_wordpool_576.txt	LTP251	ltpFR2	15	14	BRAKE	166	n/a	n/a	0	0	0
3265.948	n/a	REC_WORD	1632974	wordpools/wasnorm_wordpool_576.txt	LTP251	ltpFR2	15	14	DRIVER	499	n/a	n/a	0	0	0
3267.096	n/a	REC_WORD	1633548	wordpools/wasnorm_wordpool_576.txt	LTP251	ltpFR2	15	14	WHISTLE	1606	n/a	n/a	0	0	0
3268.424	n/a	REC_WORD	1634212	wordpools/wasnorm_wordpool_576.txt	LTP251	ltpFR2	15	14	PLIERS	1089	n/a	n/a	0	0	0
3270.042	n/a	REC_WORD	1635021	wordpools/wasnorm_wordpool_576.txt	LTP251	ltpFR2	15	14	VIRUS	1572	n/a	n/a	0	0	0
3271.042	n/a	REC_WORD_VV	1635521	wordpools/wasnorm_wordpool_576.txt	LTP251	ltpFR2	15	14	<>	-1	n/a	n/a	0	0	0
3273.258	n/a	REC_WORD	1636629	wordpools/wasnorm_wordpool_576.txt	LTP251	ltpFR2	15	14	PREACHER	1119	n/a	n/a	0	0	0
3276.72	n/a	REC_WORD	1638360	wordpools/wasnorm_wordpool_576.txt	LTP251	ltpFR2	15	14	MARS	873	n/a	n/a	0	0	0
3278.516	n/a	REC_WORD	1639258	wordpools/wasnorm_wordpool_576.txt	LTP251	ltpFR2	15	14	PLUTO	1092	n/a	n/a	0	0	0
3279.53	n/a	REC_WORD	1639765	wordpools/wasnorm_wordpool_576.txt	LTP251	ltpFR2	15	14	FLAG	573	n/a	n/a	0	0	0
3283.134	n/a	REC_WORD	1641567	wordpools/wasnorm_wordpool_576.txt	LTP251	ltpFR2	15	14	BISON	131	n/a	n/a	0	0	0
3288.498	n/a	REC_WORD	1644249	wordpools/wasnorm_wordpool_576.txt	LTP251	ltpFR2	15	14	FRUIT	610	n/a	n/a	0	0	0
3347.554	n/a	WORD	1673777	wordpools/wasnorm_wordpool_576.txt	LTP251	ltpFR2	15	15	FLESH	579	n/a	n/a	0	0	0
3350.134	n/a	WORD	1675067	wordpools/wasnorm_wordpool_576.txt	LTP251	ltpFR2	15	15	MISSILE	900	n/a	n/a	0	0	0
3352.692	n/a	WORD	1676346	wordpools/wasnorm_wordpool_576.txt	LTP251	ltpFR2	15	15	ROCKET	1202	n/a	n/a	0	0	0
3355.478	n/a	WORD	1677739	wordpools/wasnorm_wordpool_576.txt	LTP251	ltpFR2	15	15	NECKLACE	940	n/a	n/a	0	0	0
3358.124	n/a	WORD	1679062	wordpools/wasnorm_wordpool_576.txt	LTP251	ltpFR2	15	15	COLLEGE	346	n/a	n/a	0	0	0
3360.724	n/a	WORD	1680362	wordpools/wasnorm_wordpool_576.txt	LTP251	ltpFR2	15	15	DAUGHTER	442	n/a	n/a	0	0	0
3363.278	n/a	WORD	1681639	wordpools/wasnorm_wordpool_576.txt	LTP251	ltpFR2	15	15	SPIDER	1351	n/a	n/a	0	0	0
3365.86	n/a	WORD	1682930	wordpools/wasnorm_wordpool_576.txt	LTP251	ltpFR2	15	15	DIME	466	n/a	n/a	0	0	0
3368.304	n/a	WORD	1684152	wordpools/wasnorm_wordpool_576.txt	LTP251	ltpFR2	15	15	SADDLE	1221	n/a	n/a	0	0	0
3370.998	n/a	WORD	1685499	wordpools/wasnorm_wordpool_576.txt	LTP251	ltpFR2	15	15	SCOTCH	1251	n/a	n/a	0	0	0
3373.49	n/a	WORD	1686745	wordpools/wasnorm_wordpool_576.txt	LTP251	ltpFR2	15	15	BRANDY	169	n/a	n/a	0	0	0
3375.96	n/a	WORD	1687980	wordpools/wasnorm_wordpool_576.txt	LTP251	ltpFR2	15	15	MOTOR	922	n/a	n/a	0	0	0
3378.456	n/a	WORD	1689228	wordpools/wasnorm_wordpool_576.txt	LTP251	ltpFR2	15	15	RAFT	1159	n/a	n/a	0	0	0
3381.042	n/a	WORD	1690521	wordpools/wasnorm_wordpool_576.txt	LTP251	ltpFR2	15	15	WASHER	1592	n/a	n/a	0	0	0
3383.748	n/a	WORD	1691874	wordpools/wasnorm_wordpool_576.txt	LTP251	ltpFR2	15	15	TOASTER	1472	n/a	n/a	0	0	0
3386.264	n/a	WORD	1693132	wordpools/wasnorm_wordpool_576.txt	LTP251	ltpFR2	15	15	CRICKET	408	n/a	n/a	0	0	0
3388.916	n/a	WORD	1694458	wordpools/wasnorm_wordpool_576.txt	LTP251	ltpFR2	15	15	PIMPLE	1071	n/a	n/a	0	0	0
3391.702	n/a	WORD	1695851	wordpools/wasnorm_wordpool_576.txt	LTP251	ltpFR2	15	15	BUGGY	188	n/a	n/a	0	0	0
3394.488	n/a	WORD	1697244	wordpools/wasnorm_wordpool_576.txt	LTP251	ltpFR2	15	15	GRAVE	658	n/a	n/a	0	0	0
3397.156	n/a	WORD	1698578	wordpools/wasnorm_wordpool_576.txt	LTP251	ltpFR2	15	15	COURSE	390	n/a	n/a	0	0	0
3399.892	n/a	WORD	1699946	wordpools/wasnorm_wordpool_576.txt	LTP251	ltpFR2	15	15	APPLE	33	n/a	n/a	0	0	0
3402.36	n/a	WORD	1701180	wordpools/wasnorm_wordpool_576.txt	LTP251	ltpFR2	15	15	SWAMP	1416	n/a	n/a	0	0	0
3405.048	n/a	WORD	1702524	wordpools/wasnorm_wordpool_576.txt	LTP251	ltpFR2	15	15	XEROX	1628	n/a	n/a	0	0	0
3407.782	n/a	WORD	1703891	wordpools/wasnorm_wordpool_576.txt	LTP251	ltpFR2	15	15	VIKING	1565	n/a	n/a	0	0	0
3409.386	n/a	START	1704693	n/a	LTP251	ltpFR2	15	n/a	n/a	n/a	23	n/a	n/a	n/a	n/a
3410.396	n/a	DISTRACTOR	1705198	n/a	LTP251	ltpFR2	15	15	n/a	n/a	n/a	n/a	0	0	0
3410.398	n/a	PROB	1705199	n/a	LTP251	ltpFR2	15	n/a	n/a	n/a	23	8	2	1	5
3413.118	n/a	PROB	1706559	n/a	LTP251	ltpFR2	15	n/a	n/a	n/a	23	17	4	5	8
3415.356	n/a	PROB	1707678	n/a	LTP251	ltpFR2	15	n/a	n/a	n/a	23	15	5	1	9
3417.372	n/a	PROB	1708686	n/a	LTP251	ltpFR2	15	n/a	n/a	n/a	23	21	9	3	9
3419.406	n/a	PROB	1709703	n/a	LTP251	ltpFR2	15	n/a	n/a	n/a	23	7	2	4	1
3422.094	n/a	PROB	1711047	n/a	LTP251	ltpFR2	15	n/a	n/a	n/a	23	16	2	9	6
3424.762	n/a	PROB	1712381	n/a	LTP251	ltpFR2	15	n/a	n/a	n/a	23	20	9	9	2
3426.23	n/a	PROB	1713115	n/a	LTP251	ltpFR2	15	n/a	n/a	n/a	23	16	5	5	6
3427.63	n/a	PROB	1713815	n/a	LTP251	ltpFR2	15	n/a	n/a	n/a	23	19	6	8	5
3429.2	n/a	PROB	1714600	n/a	LTP251	ltpFR2	15	n/a	n/a	n/a	23	13	7	1	5
3432.388	n/a	STOP	1716194	n/a	LTP251	ltpFR2	15	n/a	n/a	n/a	23	n/a	n/a	n/a	n/a
3435.242	n/a	REC_START	1717621	n/a	LTP251	ltpFR2	15	15	n/a	n/a	n/a	n/a	0	0	0
3435.808	n/a	REC_WORD	1717904	wordpools/wasnorm_wordpool_576.txt	LTP251	ltpFR2	15	15	ROCKET	1202	n/a	n/a	0	0	0
3436.836	n/a	REC_WORD	1718418	wordpools/wasnorm_wordpool_576.txt	LTP251	ltpFR2	15	15	MISSILE	900	n/a	n/a	0	0	0
3438.19	n/a	REC_WORD	1719095	wordpools/wasnorm_wordpool_576.txt	LTP251	ltpFR2	15	15	DIME	466	n/a	n/a	0	0	0
3439.278	n/a	REC_WORD	1719639	wordpools/wasnorm_wordpool_576.txt	LTP251	ltpFR2	15	15	DAUGHTER	442	n/a	n/a	0	0	0
3440.3	n/a	REC_WORD	1720150	wordpools/wasnorm_wordpool_576.txt	LTP251	ltpFR2	15	15	NECKLACE	940	n/a	n/a	0	0	0
3441.25	n/a	REC_WORD	1720625	wordpools/wasnorm_wordpool_576.txt	LTP251	ltpFR2	15	15	SCOTCH	1251	n/a	n/a	0	0	0
3442.452	n/a	REC_WORD	1721226	wordpools/wasnorm_wordpool_576.txt	LTP251	ltpFR2	15	15	BRANDY	169	n/a	n/a	0	0	0
3443.774	n/a	REC_WORD	1721887	wordpools/wasnorm_wordpool_576.txt	LTP251	ltpFR2	15	15	APPLE	33	n/a	n/a	0	0	0
3445.166	n/a	REC_WORD	1722583	wordpools/wasnorm_wordpool_576.txt	LTP251	ltpFR2	15	15	XEROX	1628	n/a	n/a	0	0	0
3446.166	n/a	REC_WORD_VV	1723083	wordpools/wasnorm_wordpool_576.txt	LTP251	ltpFR2	15	15	<>	-1	n/a	n/a	0	0	0
3446.898	n/a	REC_WORD	1723449	wordpools/wasnorm_wordpool_576.txt	LTP251	ltpFR2	15	15	SWAMP	1416	n/a	n/a	0	0	0
3448.272	n/a	REC_WORD	1724136	wordpools/wasnorm_wordpool_576.txt	LTP251	ltpFR2	15	15	COLLEGE	346	n/a	n/a	0	0	0
3452.154	n/a	REC_WORD	1726077	wordpools/wasnorm_wordpool_576.txt	LTP251	ltpFR2	15	15	SPIDER	1351	n/a	n/a	0	0	0
3454.452	n/a	REC_WORD	1727226	wordpools/wasnorm_wordpool_576.txt	LTP251	ltpFR2	15	15	PIMPLE	1071	n/a	n/a	0	0	0
3525.66	n/a	DISTRACTOR	1762830	n/a	LTP251	ltpFR2	15	16	n/a	n/a	n/a	n/a	0	0	0
3525.66	n/a	START	1762830	n/a	LTP251	ltpFR2	15	n/a	n/a	n/a	24	n/a	n/a	n/a	n/a
3525.676	n/a	PROB	1762838	n/a	LTP251	ltpFR2	15	n/a	n/a	n/a	24	9	3	5	1
3527.21	n/a	PROB	1763605	n/a	LTP251	ltpFR2	15	n/a	n/a	n/a	24	8	2	5	1
3528.678	n/a	PROB	1764339	n/a	LTP251	ltpFR2	15	n/a	n/a	n/a	24	11	9	1	1
3530.28	n/a	PROB	1765140	n/a	LTP251	ltpFR2	15	n/a	n/a	n/a	24	11	2	4	5
3532.864	n/a	PROB	1766432	n/a	LTP251	ltpFR2	15	n/a	n/a	n/a	24	21	6	7	8
3535.234	n/a	PROB	1767617	n/a	LTP251	ltpFR2	15	n/a	n/a	n/a	24	14	2	9	3
3536.934	n/a	PROB	1768467	n/a	LTP251	ltpFR2	15	n/a	n/a	n/a	24	9	4	3	2
3538.486	n/a	PROB	1769243	n/a	LTP251	ltpFR2	15	n/a	n/a	n/a	24	10	4	1	5
3539.77	n/a	PROB	1769885	n/a	LTP251	ltpFR2	15	n/a	n/a	n/a	24	10	3	4	3
3541.272	n/a	PROB	1770636	n/a	LTP251	ltpFR2	15	n/a	n/a	n/a	24	23	7	9	7
3546.176	n/a	PROB	1773088	n/a	LTP251	ltpFR2	15	n/a	n/a	n/a	24	19	6	7	6
3549.022	n/a	STOP	1774511	n/a	LTP251	ltpFR2	15	n/a	n/a	n/a	24	n/a	n/a	n/a	n/a
3550.852	n/a	WORD	1775426	wordpools/wasnorm_wordpool_576.txt	LTP251	ltpFR2	15	16	LONDON	843	n/a	n/a	0	0	0
3553.58	n/a	WORD	1776790	wordpools/wasnorm_wordpool_576.txt	LTP251	ltpFR2	15	16	COD	340	n/a	n/a	0	0	0
3556.234	n/a	WORD	1778117	wordpools/wasnorm_wordpool_576.txt	LTP251	ltpFR2	15	16	SEAFOOD	1260	n/a	n/a	0	0	0
3558.936	n/a	WORD	1779468	wordpools/wasnorm_wordpool_576.txt	LTP251	ltpFR2	15	16	LADDER	793	n/a	n/a	0	0	0
3561.704	n/a	WORD	1780852	wordpools/wasnorm_wordpool_576.txt	LTP251	ltpFR2	15	16	WAITRESS	1581	n/a	n/a	0	0	0
3564.44	n/a	WORD	1782220	wordpools/wasnorm_wordpool_576.txt	LTP251	ltpFR2	15	16	BLOCKADE	137	n/a	n/a	0	0	0
3567.05	n/a	WORD	1783525	wordpools/wasnorm_wordpool_576.txt	LTP251	ltpFR2	15	16	LAKE	796	n/a	n/a	0	0	0
3569.644	n/a	WORD	1784822	wordpools/wasnorm_wordpool_576.txt	LTP251	ltpFR2	15	16	ISLAND	745	n/a	n/a	0	0	0
3572.396	n/a	WORD	1786198	wordpools/wasnorm_wordpool_576.txt	LTP251	ltpFR2	15	16	ARMY	39	n/a	n/a	0	0	0
3574.898	n/a	WORD	1787449	wordpools/wasnorm_wordpool_576.txt	LTP251	ltpFR2	15	16	WHISKERS	1605	n/a	n/a	0	0	0
3577.342	n/a	WORD	1788671	wordpools/wasnorm_wordpool_576.txt	LTP251	ltpFR2	15	16	NOTEBOOK	959	n/a	n/a	0	0	0
3579.802	n/a	WORD	1789901	wordpools/wasnorm_wordpool_576.txt	LTP251	ltpFR2	15	16	SUPPER	1411	n/a	n/a	0	0	0
3582.264	n/a	WORD	1791132	wordpools/wasnorm_wordpool_576.txt	LTP251	ltpFR2	15	16	WRENCH	1625	n/a	n/a	0	0	0
3584.748	n/a	WORD	1792374	wordpools/wasnorm_wordpool_576.txt	LTP251	ltpFR2	15	16	PACKAGE	997	n/a	n/a	0	0	0
3587.434	n/a	WORD	1793717	wordpools/wasnorm_wordpool_576.txt	LTP251	ltpFR2	15	16	FREEZER	604	n/a	n/a	0	0	0
3590.086	n/a	WORD	1795043	wordpools/wasnorm_wordpool_576.txt	LTP251	ltpFR2	15	16	DOLPHIN	483	n/a	n/a	0	0	0
3592.712	n/a	WORD	1796356	wordpools/wasnorm_wordpool_576.txt	LTP251	ltpFR2	15	16	HAND	683	n/a	n/a	0	0	0
3595.322	n/a	WORD	1797661	wordpools/wasnorm_wordpool_576.txt	LTP251	ltpFR2	15	16	TROMBONE	1508	n/a	n/a	0	0	0
3597.96	n/a	WORD	1798980	wordpools/wasnorm_wordpool_576.txt	LTP251	ltpFR2	15	16	SURVEY	1414	n/a	n/a	0	0	0
3600.678	n/a	WORD	1800339	wordpools/wasnorm_wordpool_576.txt	LTP251	ltpFR2	15	16	FLASK	576	n/a	n/a	0	0	0
3603.446	n/a	WORD	1801723	wordpools/wasnorm_wordpool_576.txt	LTP251	ltpFR2	15	16	FLEET	578	n/a	n/a	0	0	0
3606.184	n/a	WORD	1803092	wordpools/wasnorm_wordpool_576.txt	LTP251	ltpFR2	15	16	PEDAL	1037	n/a	n/a	0	0	0
3608.942	n/a	WORD	1804471	wordpools/wasnorm_wordpool_576.txt	LTP251	ltpFR2	15	16	TRUCK	1512	n/a	n/a	0	0	0
3611.436	n/a	WORD	1805718	wordpools/wasnorm_wordpool_576.txt	LTP251	ltpFR2	15	16	WORLD	1622	n/a	n/a	0	0	0
3613.044	n/a	START	1806522	n/a	LTP251	ltpFR2	15	n/a	n/a	n/a	25	n/a	n/a	n/a	n/a
3613.88	n/a	DISTRACTOR	1806940	n/a	LTP251	ltpFR2	15	16	n/a	n/a	n/a	n/a	0	0	0
3613.888	n/a	PROB	1806944	n/a	LTP251	ltpFR2	15	n/a	n/a	n/a	25	7	1	4	2
3615.946	n/a	PROB	1807973	n/a	LTP251	ltpFR2	15	n/a	n/a	n/a	25	10	2	3	5
3618.08	n/a	PROB	1809040	n/a	LTP251	ltpFR2	15	n/a	n/a	n/a	25	9	1	4	4
3619.716	n/a	PROB	1809858	n/a	LTP251	ltpFR2	15	n/a	n/a	n/a	25	22	9	7	8
3622.37	n/a	PROB	1811185	n/a	LTP251	ltpFR2	15	n/a	n/a	n/a	25	14	1	9	4
3623.702	n/a	PROB	1811851	n/a	LTP251	ltpFR2	15	n/a	n/a	n/a	25	20	6	8	6
3626.388	n/a	PROB	1813194	n/a	LTP251	ltpFR2	15	n/a	n/a	n/a	25	19	5	9	5
3627.856	n/a	PROB	1813928	n/a	LTP251	ltpFR2	15	n/a	n/a	n/a	25	13	7	1	5
3630.058	n/a	PROB	1815029	n/a	LTP251	ltpFR2	15	n/a	n/a	n/a	25	15	9	3	3
3631.876	n/a	PROB	1815938	n/a	LTP251	ltpFR2	15	n/a	n/a	n/a	25	11	3	7	1
3633.244	n/a	PROB	1816622	n/a	LTP251	ltpFR2	15	n/a	n/a	n/a	25	9	4	3	2
3635.372	n/a	PROB	1817686	n/a	LTP251	ltpFR2	15	n/a	n/a	n/a	25	16	5	5	6
3636.744	n/a	STOP	1818372	n/a	LTP251	ltpFR2	15	n/a	n/a	n/a	25	n/a	n/a	n/a	n/a
3638.814	n/a	REC_START	1819407	n/a	LTP251	ltpFR2	15	16	n/a	n/a	n/a	n/a	0	0	0
3640.45	n/a	REC_WORD	1820225	wordpools/wasnorm_wordpool_576.txt	LTP251	ltpFR2	15	16	LONDON	843	n/a	n/a	0	0	0
3641.38	n/a	REC_WORD	1820690	wordpools/wasnorm_wordpool_576.txt	LTP251	ltpFR2	15	16	COD	340	n/a	n/a	0	0	0
3642.218	n/a	REC_WORD	1821109	wordpools/wasnorm_wordpool_576.txt	LTP251	ltpFR2	15	16	SEAFOOD	1260	n/a	n/a	0	0	0
3643.268	n/a	REC_WORD	1821634	wordpools/wasnorm_wordpool_576.txt	LTP251	ltpFR2	15	16	FREEZER	604	n/a	n/a	0	0	0
3644.736	n/a	REC_WORD	1822368	wordpools/wasnorm_wordpool_576.txt	LTP251	ltpFR2	15	16	LADDER	793	n/a	n/a	0	0	0
3645.878	n/a	REC_WORD	1822939	wordpools/wasnorm_wordpool_576.txt	LTP251	ltpFR2	15	16	WRENCH	1625	n/a	n/a	0	0	0
3648.232	n/a	REC_WORD	1824116	wordpools/wasnorm_wordpool_576.txt	LTP251	ltpFR2	15	16	NOTEBOOK	959	n/a	n/a	0	0	0
3649.664	n/a	REC_WORD	1824832	wordpools/wasnorm_wordpool_576.txt	LTP251	ltpFR2	15	16	TROMBONE	1508	n/a	n/a	0	0	0
3650.664	n/a	REC_WORD_VV	1825332	wordpools/wasnorm_wordpool_576.txt	LTP251	ltpFR2	15	16	<>	-1	n/a	n/a	0	0	0
3651.394	n/a	REC_WORD	1825697	wordpools/wasnorm_wordpool_576.txt	LTP251	ltpFR2	15	16	HAND	683	n/a	n/a	0	0	0
3659.624	n/a	REC_WORD	1829812	wordpools/wasnorm_wordpool_576.txt	LTP251	ltpFR2	15	16	ARMY	39	n/a	n/a	0	0	0
3664.194	n/a	REC_WORD	1832097	wordpools/wasnorm_wordpool_576.txt	LTP251	ltpFR2	15	16	SUPPER	1411	n/a	n/a	0	0	0
3666.768	n/a	REC_WORD	1833384	wordpools/wasnorm_wordpool_576.txt	LTP251	ltpFR2	15	16	ISLAND	745	n/a	n/a	0	0	0
3668.188	n/a	REC_WORD	1834094	wordpools/wasnorm_wordpool_576.txt	LTP251	ltpFR2	15	16	LAKE	796	n/a	n/a	0	0	0
3715.358	n/a	REST_REWET	1857679	n/a	LTP251	ltpFR2	15	16	n/a	n/a	n/a	n/a	0	0	0
4008.868	n/a	WORD	2004434	wordpools/wasnorm_wordpool_576.txt	LTP251	ltpFR2	15	17	UMPIRE	1535	n/a	n/a	0	0	0
4011.304	n/a	WORD	2005652	wordpools/wasnorm_wordpool_576.txt	LTP251	ltpFR2	15	17	LACE	792	n/a	n/a	0	0	0
4013.812	n/a	WORD	2006906	wordpools/wasnorm_wordpool_576.txt	LTP251	ltpFR2	15	17	RIFLE	1192	n/a	n/a	0	0	0
4016.274	n/a	WORD	2008137	wordpools/wasnorm_wordpool_576.txt	LTP251	ltpFR2	15	17	SUITCASE	1403	n/a	n/a	0	0	0
4018.766	n/a	WORD	2009383	wordpools/wasnorm_wordpool_576.txt	LTP251	ltpFR2	15	17	EUROPE	541	n/a	n/a	0	0	0
4021.414	n/a	WORD	2010707	wordpools/wasnorm_wordpool_576.txt	LTP251	ltpFR2	15	17	COUNTRY	388	n/a	n/a	0	0	0
4023.872	n/a	WORD	2011936	wordpools/wasnorm_wordpool_576.txt	LTP251	ltpFR2	15	17	SCISSORS	1250	n/a	n/a	0	0	0
4026.368	n/a	WORD	2013184	wordpools/wasnorm_wordpool_576.txt	LTP251	ltpFR2	15	17	SHORTCAKE	1292	n/a	n/a	0	0	0
4028.986	n/a	WORD	2014493	wordpools/wasnorm_wordpool_576.txt	LTP251	ltpFR2	15	17	SILK	1307	n/a	n/a	0	0	0
4031.738	n/a	WORD	2015869	wordpools/wasnorm_wordpool_576.txt	LTP251	ltpFR2	15	17	BANK	83	n/a	n/a	0	0	0
4034.23	n/a	WORD	2017115	wordpools/wasnorm_wordpool_576.txt	LTP251	ltpFR2	15	17	DONOR	485	n/a	n/a	0	0	0
4036.714	n/a	WORD	2018357	wordpools/wasnorm_wordpool_576.txt	LTP251	ltpFR2	15	17	CORAL	378	n/a	n/a	0	0	0
4039.512	n/a	WORD	2019756	wordpools/wasnorm_wordpool_576.txt	LTP251	ltpFR2	15	17	SCULPTURE	1258	n/a	n/a	0	0	0
4042.32	n/a	WORD	2021160	wordpools/wasnorm_wordpool_576.txt	LTP251	ltpFR2	15	17	CASHEW	253	n/a	n/a	0	0	0
4045.008	n/a	WORD	2022504	wordpools/wasnorm_wordpool_576.txt	LTP251	ltpFR2	15	17	POPCORN	1104	n/a	n/a	0	0	0
4047.468	n/a	WORD	2023734	wordpools/wasnorm_wordpool_576.txt	LTP251	ltpFR2	15	17	KITCHEN	778	n/a	n/a	0	0	0
4049.934	n/a	WORD	2024967	wordpools/wasnorm_wordpool_576.txt	LTP251	ltpFR2	15	17	GRAVEL	659	n/a	n/a	0	0	0
4052.688	n/a	WORD	2026344	wordpools/wasnorm_wordpool_576.txt	LTP251	ltpFR2	15	17	HELMET	702	n/a	n/a	0	0	0
4055.164	n/a	WORD	2027582	wordpools/wasnorm_wordpool_576.txt	LTP251	ltpFR2	15	17	HIKER	708	n/a	n/a	0	0	0
4057.774	n/a	WORD	2028887	wordpools/wasnorm_wordpool_576.txt	LTP251	ltpFR2	15	17	SLOPE	1328	n/a	n/a	0	0	0
4060.31	n/a	WORD	2030155	wordpools/wasnorm_wordpool_576.txt	LTP251	ltpFR2	15	17	HAMPER	682	n/a	n/a	0	0	0
4063.08	n/a	WORD	2031540	wordpools/wasnorm_wordpool_576.txt	LTP251	ltpFR2	15	17	MILK	895	n/a	n/a	0	0	0
4065.572	n/a	WORD	2032786	wordpools/wasnorm_wordpool_576.txt	LTP251	ltpFR2	15	17	TOMBSTONE	1478	n/a	n/a	0	0	0
4068.076	n/a	WORD	2034038	wordpools/wasnorm_wordpool_576.txt	LTP251	ltpFR2	15	17	COOK	372	n/a	n/a	0	0	0
4069.684	n/a	START	2034842	n/a	LTP251	ltpFR2	15	n/a	n/a	n/a	26	n/a	n/a	n/a	n/a
4070.636	n/a	DISTRACTOR	2035318	n/a	LTP251	ltpFR2	15	17	n/a	n/a	n/a	n/a	0	0	0
4070.644	n/a	PROB	2035322	n/a	LTP251	ltpFR2	15	n/a	n/a	n/a	26	18	1	9	8
4072.686	n/a	PROB	2036343	n/a	LTP251	ltpFR2	15	n/a	n/a	n/a	26	13	4	6	3
4074.002	n/a	PROB	2037001	n/a	LTP251	ltpFR2	15	n/a	n/a	n/a	26	9	5	2	2
4076.004	n/a	PROB	2038002	n/a	LTP251	ltpFR2	15	n/a	n/a	n/a	26	5	3	1	1
4077.224	n/a	PROB	2038612	n/a	LTP251	ltpFR2	15	n/a	n/a	n/a	26	9	6	2	1
4081.076	n/a	PROB	2040538	n/a	LTP251	ltpFR2	15	n/a	n/a	n/a	26	14	5	2	7
4083.528	n/a	PROB	2041764	n/a	LTP251	ltpFR2	15	n/a	n/a	n/a	26	14	6	2	6
4085.862	n/a	PROB	2042931	n/a	LTP251	ltpFR2	15	n/a	n/a	n/a	26	8	1	6	1
4093.684	n/a	STOP	2046842	n/a	LTP251	ltpFR2	15	n/a	n/a	n/a	26	n/a	n/a	n/a	n/a
4095.572	n/a	REC_START	2047786	n/a	LTP251	ltpFR2	15	17	n/a	n/a	n/a	n/a	0	0	0
4098.588	n/a	REC_WORD	2049294	wordpools/wasnorm_wordpool_576.txt	LTP251	ltpFR2	15	17	LACE	792	n/a	n/a	0	0	0
4100.444	n/a	REC_WORD	2050222	wordpools/wasnorm_wordpool_576.txt	LTP251	ltpFR2	15	17	LACE	792	n/a	n/a	0	0	0
4101.212	n/a	REC_WORD	2050606	wordpools/wasnorm_wordpool_576.txt	LTP251	ltpFR2	15	17	SILK	1307	n/a	n/a	0	0	0
4102.242	n/a	REC_WORD	2051121	wordpools/wasnorm_wordpool_576.txt	LTP251	ltpFR2	15	17	UMPIRE	1535	n/a	n/a	0	0	0
4103.242	n/a	REC_WORD_VV	2051621	wordpools/wasnorm_wordpool_576.txt	LTP251	ltpFR2	15	17	<>	-1	n/a	n/a	0	0	0
4104.226	n/a	REC_WORD	2052113	wordpools/wasnorm_wordpool_576.txt	LTP251	ltpFR2	15	17	SCISSORS	1250	n/a	n/a	0	0	0
4106.116	n/a	REC_WORD	2053058	wordpools/wasnorm_wordpool_576.txt	LTP251	ltpFR2	15	17	SHORTCAKE	1292	n/a	n/a	0	0	0
4107.116	n/a	REC_WORD_VV	2053558	wordpools/wasnorm_wordpool_576.txt	LTP251	ltpFR2	15	17	<>	-1	n/a	n/a	0	0	0
4107.688	n/a	REC_WORD	2053844	wordpools/wasnorm_wordpool_576.txt	LTP251	ltpFR2	15	17	HAMPER	682	n/a	n/a	0	0	0
4109.832	n/a	REC_WORD	2054916	wordpools/wasnorm_wordpool_576.txt	LTP251	ltpFR2	15	17	BANK	83	n/a	n/a	0	0	0
4112.438	n/a	REC_WORD	2056219	wordpools/wasnorm_wordpool_576.txt	LTP251	ltpFR2	15	17	COUNTRY	388	n/a	n/a	0	0	0
4114.408	n/a	REC_WORD	2057204	wordpools/wasnorm_wordpool_576.txt	LTP251	ltpFR2	15	17	DONOR	485	n/a	n/a	0	0	0
4116.054	n/a	REC_WORD	2058027	wordpools/wasnorm_wordpool_576.txt	LTP251	ltpFR2	15	17	MILK	895	n/a	n/a	0	0	0
4117.362	n/a	REC_WORD	2058681	wordpools/wasnorm_wordpool_576.txt	LTP251	ltpFR2	15	17	TOMBSTONE	1478	n/a	n/a	0	0	0
4118.906	n/a	REC_WORD	2059453	wordpools/wasnorm_wordpool_576.txt	LTP251	ltpFR2	15	17	HIKER	708	n/a	n/a	0	0	0
4120.268	n/a	REC_WORD	2060134	wordpools/wasnorm_wordpool_576.txt	LTP251	ltpFR2	15	17	HELMET	702	n/a	n/a	0	0	0
4122.318	n/a	REC_WORD	2061159	wordpools/wasnorm_wordpool_576.txt	LTP251	ltpFR2	15	17	SLOPE	1328	n/a	n/a	0	0	0
