mstime	trial_type	stim_file	subject	experiment	session	trial	item_name	item_num	list	answer	test_x	test_y	test_z
0	SESS_START	n/a	LTP280	ltpFR2	16	n/a	n/a	n/a	n/a	n/a	0	0	0
73465	START	n/a	LTP280	ltpFR2	16	n/a	n/a	n/a	-1	n/a	n/a	n/a	n/a
73480	PROB	n/a	LTP280	ltpFR2	16	n/a	n/a	n/a	-1	14	6	1	7
74832	PROB	n/a	LTP280	ltpFR2	16	n/a	n/a	n/a	-1	16	3	8	5
75967	PROB	n/a	LTP280	ltpFR2	16	n/a	n/a	n/a	-1	15	5	4	6
77017	PROB	n/a	LTP280	ltpFR2	16	n/a	n/a	n/a	-1	13	7	4	2
78118	PROB	n/a	LTP280	ltpFR2	16	n/a	n/a	n/a	-1	16	5	2	9
79720	PROB	n/a	LTP280	ltpFR2	16	n/a	n/a	n/a	-1	12	7	4	1
80536	PROB	n/a	LTP280	ltpFR2	16	n/a	n/a	n/a	-1	13	6	4	3
81688	PROB	n/a	LTP280	ltpFR2	16	n/a	n/a	n/a	-1	13	4	5	4
83857	PROB	n/a	LTP280	ltpFR2	16	n/a	n/a	n/a	-1	15	8	3	4
84943	STOP	n/a	LTP280	ltpFR2	16	n/a	n/a	n/a	-1	n/a	n/a	n/a	n/a
137219	WORD	wordpools/wasnorm_wordpool_576.txt	LTP280	ltpFR2	16	1	BEAST	108	n/a	n/a	0	0	0
139805	WORD	wordpools/wasnorm_wordpool_576.txt	LTP280	ltpFR2	16	1	CRIB	407	n/a	n/a	0	0	0
142590	WORD	wordpools/wasnorm_wordpool_576.txt	LTP280	ltpFR2	16	1	CABBAGE	210	n/a	n/a	0	0	0
145077	WORD	wordpools/wasnorm_wordpool_576.txt	LTP280	ltpFR2	16	1	SADDLE	1221	n/a	n/a	0	0	0
147696	WORD	wordpools/wasnorm_wordpool_576.txt	LTP280	ltpFR2	16	1	PEANUT	1032	n/a	n/a	0	0	0
150514	WORD	wordpools/wasnorm_wordpool_576.txt	LTP280	ltpFR2	16	1	SAUSAGE	1238	n/a	n/a	0	0	0
152967	WORD	wordpools/wasnorm_wordpool_576.txt	LTP280	ltpFR2	16	1	CATCHER	258	n/a	n/a	0	0	0
155635	WORD	wordpools/wasnorm_wordpool_576.txt	LTP280	ltpFR2	16	1	FEMALE	559	n/a	n/a	0	0	0
158304	WORD	wordpools/wasnorm_wordpool_576.txt	LTP280	ltpFR2	16	1	TRENCH	1503	n/a	n/a	0	0	0
161041	WORD	wordpools/wasnorm_wordpool_576.txt	LTP280	ltpFR2	16	1	SURVEY	1414	n/a	n/a	0	0	0
163659	WORD	wordpools/wasnorm_wordpool_576.txt	LTP280	ltpFR2	16	1	LIZARD	834	n/a	n/a	0	0	0
166244	WORD	wordpools/wasnorm_wordpool_576.txt	LTP280	ltpFR2	16	1	FLIPPER	580	n/a	n/a	0	0	0
168781	WORD	wordpools/wasnorm_wordpool_576.txt	LTP280	ltpFR2	16	1	CHIPMUNK	304	n/a	n/a	0	0	0
171365	WORD	wordpools/wasnorm_wordpool_576.txt	LTP280	ltpFR2	16	1	RUG	1215	n/a	n/a	0	0	0
173985	WORD	wordpools/wasnorm_wordpool_576.txt	LTP280	ltpFR2	16	1	SIBLING	1301	n/a	n/a	0	0	0
176771	WORD	wordpools/wasnorm_wordpool_576.txt	LTP280	ltpFR2	16	1	SLIDE	1326	n/a	n/a	0	0	0
179406	WORD	wordpools/wasnorm_wordpool_576.txt	LTP280	ltpFR2	16	1	LAGOON	795	n/a	n/a	0	0	0
181842	WORD	wordpools/wasnorm_wordpool_576.txt	LTP280	ltpFR2	16	1	BISON	131	n/a	n/a	0	0	0
184593	WORD	wordpools/wasnorm_wordpool_576.txt	LTP280	ltpFR2	16	1	FOX	598	n/a	n/a	0	0	0
187246	WORD	wordpools/wasnorm_wordpool_576.txt	LTP280	ltpFR2	16	1	JELLY	755	n/a	n/a	0	0	0
189899	WORD	wordpools/wasnorm_wordpool_576.txt	LTP280	ltpFR2	16	1	WASP	1593	n/a	n/a	0	0	0
192617	WORD	wordpools/wasnorm_wordpool_576.txt	LTP280	ltpFR2	16	1	POISON	1096	n/a	n/a	0	0	0
195420	WORD	wordpools/wasnorm_wordpool_576.txt	LTP280	ltpFR2	16	1	POLICE	1098	n/a	n/a	0	0	0
197989	WORD	wordpools/wasnorm_wordpool_576.txt	LTP280	ltpFR2	16	1	SHERIFF	1284	n/a	n/a	0	0	0
199607	START	n/a	LTP280	ltpFR2	16	n/a	n/a	n/a	1	n/a	n/a	n/a	n/a
200536	DISTRACTOR	n/a	LTP280	ltpFR2	16	1	n/a	n/a	n/a	n/a	0	0	0
200557	PROB	n/a	LTP280	ltpFR2	16	n/a	n/a	n/a	1	19	6	9	4
202126	PROB	n/a	LTP280	ltpFR2	16	n/a	n/a	n/a	1	19	9	7	3
203593	PROB	n/a	LTP280	ltpFR2	16	n/a	n/a	n/a	1	9	7	1	1
204544	PROB	n/a	LTP280	ltpFR2	16	n/a	n/a	n/a	1	21	8	8	5
205729	PROB	n/a	LTP280	ltpFR2	16	n/a	n/a	n/a	1	13	2	6	5
207280	PROB	n/a	LTP280	ltpFR2	16	n/a	n/a	n/a	1	25	7	7	8
209432	PROB	n/a	LTP280	ltpFR2	16	n/a	n/a	n/a	1	6	1	4	1
210383	PROB	n/a	LTP280	ltpFR2	16	n/a	n/a	n/a	1	11	9	1	1
211550	PROB	n/a	LTP280	ltpFR2	16	n/a	n/a	n/a	1	14	2	4	8
212752	PROB	n/a	LTP280	ltpFR2	16	n/a	n/a	n/a	1	11	3	2	5
213837	PROB	n/a	LTP280	ltpFR2	16	n/a	n/a	n/a	1	17	8	8	1
215021	PROB	n/a	LTP280	ltpFR2	16	n/a	n/a	n/a	1	16	6	2	8
216172	PROB	n/a	LTP280	ltpFR2	16	n/a	n/a	n/a	1	25	8	7	9
217790	PROB	n/a	LTP280	ltpFR2	16	n/a	n/a	n/a	1	14	7	3	4
219591	PROB	n/a	LTP280	ltpFR2	16	n/a	n/a	n/a	1	13	7	1	5
220693	PROB	n/a	LTP280	ltpFR2	16	n/a	n/a	n/a	1	15	3	6	6
223607	STOP	n/a	LTP280	ltpFR2	16	n/a	n/a	n/a	1	n/a	n/a	n/a	n/a
225496	REC_START	n/a	LTP280	ltpFR2	16	1	n/a	n/a	n/a	n/a	0	0	0
225791	REC_WORD	wordpools/wasnorm_wordpool_576.txt	LTP280	ltpFR2	16	1	FOX	598	n/a	n/a	0	0	0
226423	REC_WORD	wordpools/wasnorm_wordpool_576.txt	LTP280	ltpFR2	16	1	JELLY	755	n/a	n/a	0	0	0
228006	REC_WORD	wordpools/wasnorm_wordpool_576.txt	LTP280	ltpFR2	16	1	POISON	1096	n/a	n/a	0	0	0
228729	REC_WORD	wordpools/wasnorm_wordpool_576.txt	LTP280	ltpFR2	16	1	POLICE	1098	n/a	n/a	0	0	0
229537	REC_WORD	wordpools/wasnorm_wordpool_576.txt	LTP280	ltpFR2	16	1	SHERIFF	1284	n/a	n/a	0	0	0
230459	REC_WORD	wordpools/wasnorm_wordpool_576.txt	LTP280	ltpFR2	16	1	FEMALE	559	n/a	n/a	0	0	0
231074	REC_WORD	wordpools/wasnorm_wordpool_576.txt	LTP280	ltpFR2	16	1	CATCHER	258	n/a	n/a	0	0	0
231911	REC_WORD	wordpools/wasnorm_wordpool_576.txt	LTP280	ltpFR2	16	1	TRENCH	1503	n/a	n/a	0	0	0
233074	REC_WORD	wordpools/wasnorm_wordpool_576.txt	LTP280	ltpFR2	16	1	SURVEY	1414	n/a	n/a	0	0	0
233837	REC_WORD	wordpools/wasnorm_wordpool_576.txt	LTP280	ltpFR2	16	1	RUG	1215	n/a	n/a	0	0	0
234551	REC_WORD	wordpools/wasnorm_wordpool_576.txt	LTP280	ltpFR2	16	1	SIBLING	1301	n/a	n/a	0	0	0
239603	REC_WORD	wordpools/wasnorm_wordpool_576.txt	LTP280	ltpFR2	16	1	PEANUT	1032	n/a	n/a	0	0	0
240078	REC_WORD	wordpools/wasnorm_wordpool_576.txt	LTP280	ltpFR2	16	1	SAUSAGE	1238	n/a	n/a	0	0	0
241391	REC_WORD	wordpools/wasnorm_wordpool_576.txt	LTP280	ltpFR2	16	1	CABBAGE	210	n/a	n/a	0	0	0
242340	REC_WORD	wordpools/wasnorm_wordpool_576.txt	LTP280	ltpFR2	16	1	BEAST	108	n/a	n/a	0	0	0
243260	REC_WORD	wordpools/wasnorm_wordpool_576.txt	LTP280	ltpFR2	16	1	CRIB	407	n/a	n/a	0	0	0
245827	REC_WORD	wordpools/wasnorm_wordpool_576.txt	LTP280	ltpFR2	16	1	SLIDE	1326	n/a	n/a	0	0	0
255799	REC_WORD_VV	wordpools/wasnorm_wordpool_576.txt	LTP280	ltpFR2	16	1	<>	-1	n/a	n/a	0	0	0
277994	REC_WORD_VV	wordpools/wasnorm_wordpool_576.txt	LTP280	ltpFR2	16	1	<>	-1	n/a	n/a	0	0	0
315959	DISTRACTOR	n/a	LTP280	ltpFR2	16	2	n/a	n/a	n/a	n/a	0	0	0
315959	START	n/a	LTP280	ltpFR2	16	n/a	n/a	n/a	2	n/a	n/a	n/a	n/a
315976	PROB	n/a	LTP280	ltpFR2	16	n/a	n/a	n/a	2	4	1	2	1
316760	PROB	n/a	LTP280	ltpFR2	16	n/a	n/a	n/a	2	13	2	3	8
318044	PROB	n/a	LTP280	ltpFR2	16	n/a	n/a	n/a	2	20	7	7	6
319896	PROB	n/a	LTP280	ltpFR2	16	n/a	n/a	n/a	2	17	7	2	8
321246	PROB	n/a	LTP280	ltpFR2	16	n/a	n/a	n/a	2	12	2	9	1
322148	PROB	n/a	LTP280	ltpFR2	16	n/a	n/a	n/a	2	11	1	6	4
323448	PROB	n/a	LTP280	ltpFR2	16	n/a	n/a	n/a	2	14	7	4	3
325466	PROB	n/a	LTP280	ltpFR2	16	n/a	n/a	n/a	2	19	9	5	7
327919	PROB	n/a	LTP280	ltpFR2	16	n/a	n/a	n/a	2	11	1	6	4
328837	PROB	n/a	LTP280	ltpFR2	16	n/a	n/a	n/a	2	174	5	8	4
330254	PROB	n/a	LTP280	ltpFR2	16	n/a	n/a	n/a	2	14	3	4	7
332156	PROB	n/a	LTP280	ltpFR2	16	n/a	n/a	n/a	2	22	5	9	8
333708	PROB	n/a	LTP280	ltpFR2	16	n/a	n/a	n/a	2	13	3	3	7
334992	PROB	n/a	LTP280	ltpFR2	16	n/a	n/a	n/a	2	15	7	7	1
336060	PROB	n/a	LTP280	ltpFR2	16	n/a	n/a	n/a	2	20	8	3	9
337343	PROB	n/a	LTP280	ltpFR2	16	n/a	n/a	n/a	2	8	2	2	4
338344	PROB	n/a	LTP280	ltpFR2	16	n/a	n/a	n/a	2	12	2	7	3
339544	STOP	n/a	LTP280	ltpFR2	16	n/a	n/a	n/a	2	n/a	n/a	n/a	n/a
341164	WORD	wordpools/wasnorm_wordpool_576.txt	LTP280	ltpFR2	16	2	RECORD	1176	n/a	n/a	0	0	0
343817	WORD	wordpools/wasnorm_wordpool_576.txt	LTP280	ltpFR2	16	2	NAPKIN	937	n/a	n/a	0	0	0
346585	WORD	wordpools/wasnorm_wordpool_576.txt	LTP280	ltpFR2	16	2	PRINCESS	1125	n/a	n/a	0	0	0
349404	WORD	wordpools/wasnorm_wordpool_576.txt	LTP280	ltpFR2	16	2	ACTOR	5	n/a	n/a	0	0	0
351840	WORD	wordpools/wasnorm_wordpool_576.txt	LTP280	ltpFR2	16	2	LAKE	796	n/a	n/a	0	0	0
354525	WORD	wordpools/wasnorm_wordpool_576.txt	LTP280	ltpFR2	16	2	QUARTER	1148	n/a	n/a	0	0	0
357260	WORD	wordpools/wasnorm_wordpool_576.txt	LTP280	ltpFR2	16	2	AGENT	10	n/a	n/a	0	0	0
359864	WORD	wordpools/wasnorm_wordpool_576.txt	LTP280	ltpFR2	16	2	WHISTLE	1606	n/a	n/a	0	0	0
362432	WORD	wordpools/wasnorm_wordpool_576.txt	LTP280	ltpFR2	16	2	PEBBLE	1035	n/a	n/a	0	0	0
365217	WORD	wordpools/wasnorm_wordpool_576.txt	LTP280	ltpFR2	16	2	SCULPTURE	1258	n/a	n/a	0	0	0
367837	WORD	wordpools/wasnorm_wordpool_576.txt	LTP280	ltpFR2	16	2	ACTRESS	6	n/a	n/a	0	0	0
370489	WORD	wordpools/wasnorm_wordpool_576.txt	LTP280	ltpFR2	16	2	NECKLACE	940	n/a	n/a	0	0	0
372925	WORD	wordpools/wasnorm_wordpool_576.txt	LTP280	ltpFR2	16	2	COSTUME	383	n/a	n/a	0	0	0
375443	WORD	wordpools/wasnorm_wordpool_576.txt	LTP280	ltpFR2	16	2	EXPERT	543	n/a	n/a	0	0	0
378163	WORD	wordpools/wasnorm_wordpool_576.txt	LTP280	ltpFR2	16	2	TABLET	1427	n/a	n/a	0	0	0
380782	WORD	wordpools/wasnorm_wordpool_576.txt	LTP280	ltpFR2	16	2	FRIEND	606	n/a	n/a	0	0	0
383583	WORD	wordpools/wasnorm_wordpool_576.txt	LTP280	ltpFR2	16	2	BABY	64	n/a	n/a	0	0	0
386219	WORD	wordpools/wasnorm_wordpool_576.txt	LTP280	ltpFR2	16	2	BRIEFCASE	175	n/a	n/a	0	0	0
388671	WORD	wordpools/wasnorm_wordpool_576.txt	LTP280	ltpFR2	16	2	SCALPEL	1243	n/a	n/a	0	0	0
391240	WORD	wordpools/wasnorm_wordpool_576.txt	LTP280	ltpFR2	16	2	SCISSORS	1250	n/a	n/a	0	0	0
393810	WORD	wordpools/wasnorm_wordpool_576.txt	LTP280	ltpFR2	16	2	CARRIAGE	248	n/a	n/a	0	0	0
396595	WORD	wordpools/wasnorm_wordpool_576.txt	LTP280	ltpFR2	16	2	BUGGY	188	n/a	n/a	0	0	0
399065	WORD	wordpools/wasnorm_wordpool_576.txt	LTP280	ltpFR2	16	2	WARDROBE	1587	n/a	n/a	0	0	0
401750	WORD	wordpools/wasnorm_wordpool_576.txt	LTP280	ltpFR2	16	2	EYELASH	546	n/a	n/a	0	0	0
403368	START	n/a	LTP280	ltpFR2	16	n/a	n/a	n/a	3	n/a	n/a	n/a	n/a
404429	DISTRACTOR	n/a	LTP280	ltpFR2	16	2	n/a	n/a	n/a	n/a	0	0	0
404452	PROB	n/a	LTP280	ltpFR2	16	n/a	n/a	n/a	3	27	9	9	9
405787	PROB	n/a	LTP280	ltpFR2	16	n/a	n/a	n/a	3	10	2	6	2
407038	PROB	n/a	LTP280	ltpFR2	16	n/a	n/a	n/a	3	20	7	7	6
409640	PROB	n/a	LTP280	ltpFR2	16	n/a	n/a	n/a	3	17	5	5	7
411058	PROB	n/a	LTP280	ltpFR2	16	n/a	n/a	n/a	3	17	7	9	1
412325	PROB	n/a	LTP280	ltpFR2	16	n/a	n/a	n/a	3	20	7	9	4
413727	PROB	n/a	LTP280	ltpFR2	16	n/a	n/a	n/a	3	20	9	6	5
415129	PROB	n/a	LTP280	ltpFR2	16	n/a	n/a	n/a	3	8	2	6	2
416229	PROB	n/a	LTP280	ltpFR2	16	n/a	n/a	n/a	3	18	4	6	8
417596	PROB	n/a	LTP280	ltpFR2	16	n/a	n/a	n/a	3	19	6	8	5
419231	PROB	n/a	LTP280	ltpFR2	16	n/a	n/a	n/a	3	13	6	2	5
421167	PROB	n/a	LTP280	ltpFR2	16	n/a	n/a	n/a	3	6	1	2	3
422085	PROB	n/a	LTP280	ltpFR2	16	n/a	n/a	n/a	3	21	6	8	7
423351	PROB	n/a	LTP280	ltpFR2	16	n/a	n/a	n/a	3	17	2	9	6
424854	PROB	n/a	LTP280	ltpFR2	16	n/a	n/a	n/a	3	17	8	2	7
425884	STOP	n/a	LTP280	ltpFR2	16	n/a	n/a	n/a	3	n/a	n/a	n/a	n/a
429207	REC_START	n/a	LTP280	ltpFR2	16	2	n/a	n/a	n/a	n/a	0	0	0
429467	REC_WORD	wordpools/wasnorm_wordpool_576.txt	LTP280	ltpFR2	16	2	EXPERT	543	n/a	n/a	0	0	0
430124	REC_WORD	wordpools/wasnorm_wordpool_576.txt	LTP280	ltpFR2	16	2	TABLET	1427	n/a	n/a	0	0	0
430853	REC_WORD	wordpools/wasnorm_wordpool_576.txt	LTP280	ltpFR2	16	2	BABY	64	n/a	n/a	0	0	0
431503	REC_WORD_VV	wordpools/wasnorm_wordpool_576.txt	LTP280	ltpFR2	16	2	<>	-1	n/a	n/a	0	0	0
431810	REC_WORD	wordpools/wasnorm_wordpool_576.txt	LTP280	ltpFR2	16	2	BRIEFCASE	175	n/a	n/a	0	0	0
434111	REC_WORD	wordpools/wasnorm_wordpool_576.txt	LTP280	ltpFR2	16	2	WARDROBE	1587	n/a	n/a	0	0	0
435249	REC_WORD	wordpools/wasnorm_wordpool_576.txt	LTP280	ltpFR2	16	2	NECKLACE	940	n/a	n/a	0	0	0
435834	REC_WORD	wordpools/wasnorm_wordpool_576.txt	LTP280	ltpFR2	16	2	ACTRESS	6	n/a	n/a	0	0	0
439753	REC_WORD	wordpools/wasnorm_wordpool_576.txt	LTP280	ltpFR2	16	2	SCALPEL	1243	n/a	n/a	0	0	0
440301	REC_WORD	wordpools/wasnorm_wordpool_576.txt	LTP280	ltpFR2	16	2	SCISSORS	1250	n/a	n/a	0	0	0
441517	REC_WORD	wordpools/wasnorm_wordpool_576.txt	LTP280	ltpFR2	16	2	CARRIAGE	248	n/a	n/a	0	0	0
442397	REC_WORD	wordpools/wasnorm_wordpool_576.txt	LTP280	ltpFR2	16	2	BUGGY	188	n/a	n/a	0	0	0
519836	DISTRACTOR	n/a	LTP280	ltpFR2	16	3	n/a	n/a	n/a	n/a	0	0	0
519837	START	n/a	LTP280	ltpFR2	16	n/a	n/a	n/a	4	n/a	n/a	n/a	n/a
519870	PROB	n/a	LTP280	ltpFR2	16	n/a	n/a	n/a	4	8	4	2	2
520937	PROB	n/a	LTP280	ltpFR2	16	n/a	n/a	n/a	4	17	9	5	3
522839	PROB	n/a	LTP280	ltpFR2	16	n/a	n/a	n/a	4	14	9	3	3
525307	PROB	n/a	LTP280	ltpFR2	16	n/a	n/a	n/a	4	10	1	8	1
526541	PROB	n/a	LTP280	ltpFR2	16	n/a	n/a	n/a	4	8	3	4	1
528593	PROB	n/a	LTP280	ltpFR2	16	n/a	n/a	n/a	4	7	2	4	1
529527	PROB	n/a	LTP280	ltpFR2	16	n/a	n/a	n/a	4	17	7	7	3
530929	PROB	n/a	LTP280	ltpFR2	16	n/a	n/a	n/a	4	12	2	3	7
532131	PROB	n/a	LTP280	ltpFR2	16	n/a	n/a	n/a	4	17	9	5	3
533314	PROB	n/a	LTP280	ltpFR2	16	n/a	n/a	n/a	4	24	9	8	6
535166	PROB	n/a	LTP280	ltpFR2	16	n/a	n/a	n/a	4	12	2	2	8
536250	PROB	n/a	LTP280	ltpFR2	16	n/a	n/a	n/a	4	21	9	8	4
537702	PROB	n/a	LTP280	ltpFR2	16	n/a	n/a	n/a	4	16	3	7	6
538753	PROB	n/a	LTP280	ltpFR2	16	n/a	n/a	n/a	4	16	6	8	2
539854	PROB	n/a	LTP280	ltpFR2	16	n/a	n/a	n/a	4	14	2	6	6
541055	PROB	n/a	LTP280	ltpFR2	16	n/a	n/a	n/a	4	17	9	7	1
542205	PROB	n/a	LTP280	ltpFR2	16	n/a	n/a	n/a	4	17	6	8	3
543360	STOP	n/a	LTP280	ltpFR2	16	n/a	n/a	n/a	4	n/a	n/a	n/a	n/a
544875	WORD	wordpools/wasnorm_wordpool_576.txt	LTP280	ltpFR2	16	3	PASSAGE	1019	n/a	n/a	0	0	0
547509	WORD	wordpools/wasnorm_wordpool_576.txt	LTP280	ltpFR2	16	3	SHELF	1280	n/a	n/a	0	0	0
550029	WORD	wordpools/wasnorm_wordpool_576.txt	LTP280	ltpFR2	16	3	COBRA	336	n/a	n/a	0	0	0
552597	WORD	wordpools/wasnorm_wordpool_576.txt	LTP280	ltpFR2	16	3	RATTLE	1170	n/a	n/a	0	0	0
555167	WORD	wordpools/wasnorm_wordpool_576.txt	LTP280	ltpFR2	16	3	PLATE	1086	n/a	n/a	0	0	0
557970	WORD	wordpools/wasnorm_wordpool_576.txt	LTP280	ltpFR2	16	3	CRAYON	401	n/a	n/a	0	0	0
560689	WORD	wordpools/wasnorm_wordpool_576.txt	LTP280	ltpFR2	16	3	FINGER	567	n/a	n/a	0	0	0
563190	WORD	wordpools/wasnorm_wordpool_576.txt	LTP280	ltpFR2	16	3	HIKER	708	n/a	n/a	0	0	0
565625	WORD	wordpools/wasnorm_wordpool_576.txt	LTP280	ltpFR2	16	3	REPORT	1184	n/a	n/a	0	0	0
568062	WORD	wordpools/wasnorm_wordpool_576.txt	LTP280	ltpFR2	16	3	SPOUSE	1358	n/a	n/a	0	0	0
570580	WORD	wordpools/wasnorm_wordpool_576.txt	LTP280	ltpFR2	16	3	ASIA	46	n/a	n/a	0	0	0
573249	WORD	wordpools/wasnorm_wordpool_576.txt	LTP280	ltpFR2	16	3	FRIAR	605	n/a	n/a	0	0	0
575902	WORD	wordpools/wasnorm_wordpool_576.txt	LTP280	ltpFR2	16	3	ATOM	55	n/a	n/a	0	0	0
578403	WORD	wordpools/wasnorm_wordpool_576.txt	LTP280	ltpFR2	16	3	CRATER	400	n/a	n/a	0	0	0
581073	WORD	wordpools/wasnorm_wordpool_576.txt	LTP280	ltpFR2	16	3	RIFLE	1192	n/a	n/a	0	0	0
583574	WORD	wordpools/wasnorm_wordpool_576.txt	LTP280	ltpFR2	16	3	COCOON	339	n/a	n/a	0	0	0
586161	WORD	wordpools/wasnorm_wordpool_576.txt	LTP280	ltpFR2	16	3	MARKET	871	n/a	n/a	0	0	0
588746	WORD	wordpools/wasnorm_wordpool_576.txt	LTP280	ltpFR2	16	3	ORCHID	982	n/a	n/a	0	0	0
591548	WORD	wordpools/wasnorm_wordpool_576.txt	LTP280	ltpFR2	16	3	STAKE	1368	n/a	n/a	0	0	0
594284	WORD	wordpools/wasnorm_wordpool_576.txt	LTP280	ltpFR2	16	3	COURSE	390	n/a	n/a	0	0	0
596937	WORD	wordpools/wasnorm_wordpool_576.txt	LTP280	ltpFR2	16	3	TEMPLE	1448	n/a	n/a	0	0	0
599455	WORD	wordpools/wasnorm_wordpool_576.txt	LTP280	ltpFR2	16	3	NEUTRON	947	n/a	n/a	0	0	0
602274	WORD	wordpools/wasnorm_wordpool_576.txt	LTP280	ltpFR2	16	3	HOOK	715	n/a	n/a	0	0	0
604827	WORD	wordpools/wasnorm_wordpool_576.txt	LTP280	ltpFR2	16	3	SHOVEL	1295	n/a	n/a	0	0	0
606444	START	n/a	LTP280	ltpFR2	16	n/a	n/a	n/a	5	n/a	n/a	n/a	n/a
607622	DISTRACTOR	n/a	LTP280	ltpFR2	16	3	n/a	n/a	n/a	n/a	0	0	0
607629	PROB	n/a	LTP280	ltpFR2	16	n/a	n/a	n/a	5	21	6	8	5
608964	PROB	n/a	LTP280	ltpFR2	16	n/a	n/a	n/a	5	9	2	2	5
610197	PROB	n/a	LTP280	ltpFR2	16	n/a	n/a	n/a	5	16	9	4	3
611415	PROB	n/a	LTP280	ltpFR2	16	n/a	n/a	n/a	5	8	5	2	1
613267	PROB	n/a	LTP280	ltpFR2	16	n/a	n/a	n/a	5	14	3	9	3
615036	PROB	n/a	LTP280	ltpFR2	16	n/a	n/a	n/a	5	10	2	3	5
616470	PROB	n/a	LTP280	ltpFR2	16	n/a	n/a	n/a	5	24	8	7	9
617905	PROB	n/a	LTP280	ltpFR2	16	n/a	n/a	n/a	5	16	7	8	1
618873	PROB	n/a	LTP280	ltpFR2	16	n/a	n/a	n/a	5	12	1	4	7
619990	PROB	n/a	LTP280	ltpFR2	16	n/a	n/a	n/a	5	21	7	6	8
621457	PROB	n/a	LTP280	ltpFR2	16	n/a	n/a	n/a	5	13	2	3	8
622575	PROB	n/a	LTP280	ltpFR2	16	n/a	n/a	n/a	5	20	8	4	8
623894	PROB	n/a	LTP280	ltpFR2	16	n/a	n/a	n/a	5	16	8	1	7
624978	PROB	n/a	LTP280	ltpFR2	16	n/a	n/a	n/a	5	16	7	2	7
626628	PROB	n/a	LTP280	ltpFR2	16	n/a	n/a	n/a	5	19	8	2	9
627864	PROB	n/a	LTP280	ltpFR2	16	n/a	n/a	n/a	5	16	6	5	5
629092	STOP	n/a	LTP280	ltpFR2	16	n/a	n/a	n/a	5	n/a	n/a	n/a	n/a
632401	REC_START	n/a	LTP280	ltpFR2	16	3	n/a	n/a	n/a	n/a	0	0	0
632612	REC_WORD	wordpools/wasnorm_wordpool_576.txt	LTP280	ltpFR2	16	3	ASIA	46	n/a	n/a	0	0	0
633043	REC_WORD	wordpools/wasnorm_wordpool_576.txt	LTP280	ltpFR2	16	3	FRIAR	605	n/a	n/a	0	0	0
633768	REC_WORD	wordpools/wasnorm_wordpool_576.txt	LTP280	ltpFR2	16	3	SPOUSE	1358	n/a	n/a	0	0	0
636523	REC_WORD	wordpools/wasnorm_wordpool_576.txt	LTP280	ltpFR2	16	3	MARKET	871	n/a	n/a	0	0	0
637137	REC_WORD	wordpools/wasnorm_wordpool_576.txt	LTP280	ltpFR2	16	3	ORCHID	982	n/a	n/a	0	0	0
637940	REC_WORD	wordpools/wasnorm_wordpool_576.txt	LTP280	ltpFR2	16	3	FINGER	567	n/a	n/a	0	0	0
638562	REC_WORD	wordpools/wasnorm_wordpool_576.txt	LTP280	ltpFR2	16	3	CRAYON	401	n/a	n/a	0	0	0
640497	REC_WORD	wordpools/wasnorm_wordpool_576.txt	LTP280	ltpFR2	16	3	TEMPLE	1448	n/a	n/a	0	0	0
643395	REC_WORD_VV	wordpools/wasnorm_wordpool_576.txt	LTP280	ltpFR2	16	3	<>	-1	n/a	n/a	0	0	0
681830	REC_WORD_VV	wordpools/wasnorm_wordpool_576.txt	LTP280	ltpFR2	16	3	<>	-1	n/a	n/a	0	0	0
723030	DISTRACTOR	n/a	LTP280	ltpFR2	16	4	n/a	n/a	n/a	n/a	0	0	0
723030	START	n/a	LTP280	ltpFR2	16	n/a	n/a	n/a	6	n/a	n/a	n/a	n/a
723063	PROB	n/a	LTP280	ltpFR2	16	n/a	n/a	n/a	6	12	1	5	6
723998	PROB	n/a	LTP280	ltpFR2	16	n/a	n/a	n/a	6	12	3	5	4
726365	PROB	n/a	LTP280	ltpFR2	16	n/a	n/a	n/a	6	7	5	1	1
727333	PROB	n/a	LTP280	ltpFR2	16	n/a	n/a	n/a	6	24	6	9	9
728935	PROB	n/a	LTP280	ltpFR2	16	n/a	n/a	n/a	6	20	9	2	9
730319	PROB	n/a	LTP280	ltpFR2	16	n/a	n/a	n/a	6	14	4	7	3
731403	PROB	n/a	LTP280	ltpFR2	16	n/a	n/a	n/a	6	12	6	1	5
732321	PROB	n/a	LTP280	ltpFR2	16	n/a	n/a	n/a	6	26	9	8	9
733990	PROB	n/a	LTP280	ltpFR2	16	n/a	n/a	n/a	6	21	7	6	8
735607	PROB	n/a	LTP280	ltpFR2	16	n/a	n/a	n/a	6	18	3	7	8
736608	PROB	n/a	LTP280	ltpFR2	16	n/a	n/a	n/a	6	19	3	7	9
737826	PROB	n/a	LTP280	ltpFR2	16	n/a	n/a	n/a	6	16	1	8	7
738877	PROB	n/a	LTP280	ltpFR2	16	n/a	n/a	n/a	6	14	9	2	3
741079	PROB	n/a	LTP280	ltpFR2	16	n/a	n/a	n/a	6	18	6	4	8
742180	PROB	n/a	LTP280	ltpFR2	16	n/a	n/a	n/a	6	17	4	4	9
743363	PROB	n/a	LTP280	ltpFR2	16	n/a	n/a	n/a	6	13	8	1	4
744314	PROB	n/a	LTP280	ltpFR2	16	n/a	n/a	n/a	6	16	2	6	7
746368	STOP	n/a	LTP280	ltpFR2	16	n/a	n/a	n/a	6	n/a	n/a	n/a	n/a
748035	WORD	wordpools/wasnorm_wordpool_576.txt	LTP280	ltpFR2	16	4	DINER	467	n/a	n/a	0	0	0
750821	WORD	wordpools/wasnorm_wordpool_576.txt	LTP280	ltpFR2	16	4	MARS	873	n/a	n/a	0	0	0
753289	WORD	wordpools/wasnorm_wordpool_576.txt	LTP280	ltpFR2	16	4	TUNNEL	1519	n/a	n/a	0	0	0
755942	WORD	wordpools/wasnorm_wordpool_576.txt	LTP280	ltpFR2	16	4	GLOBE	641	n/a	n/a	0	0	0
758695	WORD	wordpools/wasnorm_wordpool_576.txt	LTP280	ltpFR2	16	4	PARROT	1015	n/a	n/a	0	0	0
761362	WORD	wordpools/wasnorm_wordpool_576.txt	LTP280	ltpFR2	16	4	FRANCE	601	n/a	n/a	0	0	0
763899	WORD	wordpools/wasnorm_wordpool_576.txt	LTP280	ltpFR2	16	4	LUNCH	849	n/a	n/a	0	0	0
766500	WORD	wordpools/wasnorm_wordpool_576.txt	LTP280	ltpFR2	16	4	HOUND	724	n/a	n/a	0	0	0
769037	WORD	wordpools/wasnorm_wordpool_576.txt	LTP280	ltpFR2	16	4	INMATE	738	n/a	n/a	0	0	0
771773	WORD	wordpools/wasnorm_wordpool_576.txt	LTP280	ltpFR2	16	4	SUBWAY	1400	n/a	n/a	0	0	0
774357	WORD	wordpools/wasnorm_wordpool_576.txt	LTP280	ltpFR2	16	4	MAPLE	866	n/a	n/a	0	0	0
776944	WORD	wordpools/wasnorm_wordpool_576.txt	LTP280	ltpFR2	16	4	CHAPEL	280	n/a	n/a	0	0	0
779528	WORD	wordpools/wasnorm_wordpool_576.txt	LTP280	ltpFR2	16	4	FRECKLE	602	n/a	n/a	0	0	0
782048	WORD	wordpools/wasnorm_wordpool_576.txt	LTP280	ltpFR2	16	4	AUTHOR	61	n/a	n/a	0	0	0
784516	WORD	wordpools/wasnorm_wordpool_576.txt	LTP280	ltpFR2	16	4	MATTRESS	879	n/a	n/a	0	0	0
787103	WORD	wordpools/wasnorm_wordpool_576.txt	LTP280	ltpFR2	16	4	PADDING	999	n/a	n/a	0	0	0
789805	WORD	wordpools/wasnorm_wordpool_576.txt	LTP280	ltpFR2	16	4	PUPIL	1143	n/a	n/a	0	0	0
792506	WORD	wordpools/wasnorm_wordpool_576.txt	LTP280	ltpFR2	16	4	COLLEGE	346	n/a	n/a	0	0	0
795242	WORD	wordpools/wasnorm_wordpool_576.txt	LTP280	ltpFR2	16	4	CRITIC	410	n/a	n/a	0	0	0
797728	WORD	wordpools/wasnorm_wordpool_576.txt	LTP280	ltpFR2	16	4	LONDON	843	n/a	n/a	0	0	0
800180	WORD	wordpools/wasnorm_wordpool_576.txt	LTP280	ltpFR2	16	4	MEAT	883	n/a	n/a	0	0	0
802950	WORD	wordpools/wasnorm_wordpool_576.txt	LTP280	ltpFR2	16	4	BEEF	113	n/a	n/a	0	0	0
805719	WORD	wordpools/wasnorm_wordpool_576.txt	LTP280	ltpFR2	16	4	DIVER	476	n/a	n/a	0	0	0
808370	WORD	wordpools/wasnorm_wordpool_576.txt	LTP280	ltpFR2	16	4	OUTLAW	989	n/a	n/a	0	0	0
809989	START	n/a	LTP280	ltpFR2	16	n/a	n/a	n/a	7	n/a	n/a	n/a	n/a
811189	DISTRACTOR	n/a	LTP280	ltpFR2	16	4	n/a	n/a	n/a	n/a	0	0	0
811206	PROB	n/a	LTP280	ltpFR2	16	n/a	n/a	n/a	7	20	9	9	2
812323	PROB	n/a	LTP280	ltpFR2	16	n/a	n/a	n/a	7	21	6	8	7
813658	PROB	n/a	LTP280	ltpFR2	16	n/a	n/a	n/a	7	10	4	2	4
815193	PROB	n/a	LTP280	ltpFR2	16	n/a	n/a	n/a	7	11	1	1	9
816095	PROB	n/a	LTP280	ltpFR2	16	n/a	n/a	n/a	7	13	3	7	3
817145	PROB	n/a	LTP280	ltpFR2	16	n/a	n/a	n/a	7	14	9	2	3
819130	PROB	n/a	LTP280	ltpFR2	16	n/a	n/a	n/a	7	10	3	5	2
820264	PROB	n/a	LTP280	ltpFR2	16	n/a	n/a	n/a	7	10	7	1	2
821331	PROB	n/a	LTP280	ltpFR2	16	n/a	n/a	n/a	7	16	3	4	9
822817	PROB	n/a	LTP280	ltpFR2	16	n/a	n/a	n/a	7	16	8	6	2
824085	PROB	n/a	LTP280	ltpFR2	16	n/a	n/a	n/a	7	12	1	6	5
825019	PROB	n/a	LTP280	ltpFR2	16	n/a	n/a	n/a	7	8	1	3	4
826070	PROB	n/a	LTP280	ltpFR2	16	n/a	n/a	n/a	7	11	1	2	8
827287	PROB	n/a	LTP280	ltpFR2	16	n/a	n/a	n/a	7	13	6	6	1
828338	PROB	n/a	LTP280	ltpFR2	16	n/a	n/a	n/a	7	14	4	1	9
829455	PROB	n/a	LTP280	ltpFR2	16	n/a	n/a	n/a	7	9	3	1	5
830824	PROB	n/a	LTP280	ltpFR2	16	n/a	n/a	n/a	7	13	2	8	3
831925	PROB	n/a	LTP280	ltpFR2	16	n/a	n/a	n/a	7	13	3	1	9
832948	STOP	n/a	LTP280	ltpFR2	16	n/a	n/a	n/a	7	n/a	n/a	n/a	n/a
835929	REC_START	n/a	LTP280	ltpFR2	16	4	n/a	n/a	n/a	n/a	0	0	0
836190	REC_WORD	wordpools/wasnorm_wordpool_576.txt	LTP280	ltpFR2	16	4	CRITIC	410	n/a	n/a	0	0	0
836761	REC_WORD	wordpools/wasnorm_wordpool_576.txt	LTP280	ltpFR2	16	4	LONDON	843	n/a	n/a	0	0	0
837586	REC_WORD	wordpools/wasnorm_wordpool_576.txt	LTP280	ltpFR2	16	4	BEEF	113	n/a	n/a	0	0	0
838170	REC_WORD	wordpools/wasnorm_wordpool_576.txt	LTP280	ltpFR2	16	4	MEAT	883	n/a	n/a	0	0	0
840060	REC_WORD	wordpools/wasnorm_wordpool_576.txt	LTP280	ltpFR2	16	4	TUNNEL	1519	n/a	n/a	0	0	0
840897	REC_WORD	wordpools/wasnorm_wordpool_576.txt	LTP280	ltpFR2	16	4	GLOBE	641	n/a	n/a	0	0	0
841973	REC_WORD	wordpools/wasnorm_wordpool_576.txt	LTP280	ltpFR2	16	4	MARS	873	n/a	n/a	0	0	0
926556	DISTRACTOR	n/a	LTP280	ltpFR2	16	5	n/a	n/a	n/a	n/a	0	0	0
926557	START	n/a	LTP280	ltpFR2	16	n/a	n/a	n/a	8	n/a	n/a	n/a	n/a
926590	PROB	n/a	LTP280	ltpFR2	16	n/a	n/a	n/a	8	11	7	1	3
927657	PROB	n/a	LTP280	ltpFR2	16	n/a	n/a	n/a	8	14	6	4	4
928558	PROB	n/a	LTP280	ltpFR2	16	n/a	n/a	n/a	8	10	5	2	3
929642	PROB	n/a	LTP280	ltpFR2	16	n/a	n/a	n/a	8	13	2	8	3
930577	PROB	n/a	LTP280	ltpFR2	16	n/a	n/a	n/a	8	13	4	6	3
931577	PROB	n/a	LTP280	ltpFR2	16	n/a	n/a	n/a	8	10	3	3	4
932628	PROB	n/a	LTP280	ltpFR2	16	n/a	n/a	n/a	8	15	4	7	4
933780	PROB	n/a	LTP280	ltpFR2	16	n/a	n/a	n/a	8	16	2	7	7
934931	PROB	n/a	LTP280	ltpFR2	16	n/a	n/a	n/a	8	6	2	1	3
935882	PROB	n/a	LTP280	ltpFR2	16	n/a	n/a	n/a	8	12	5	1	6
936783	PROB	n/a	LTP280	ltpFR2	16	n/a	n/a	n/a	8	15	3	7	5
937834	PROB	n/a	LTP280	ltpFR2	16	n/a	n/a	n/a	8	13	7	2	4
939317	PROB	n/a	LTP280	ltpFR2	16	n/a	n/a	n/a	8	15	6	5	4
941619	PROB	n/a	LTP280	ltpFR2	16	n/a	n/a	n/a	8	9	2	1	6
942805	PROB	n/a	LTP280	ltpFR2	16	n/a	n/a	n/a	8	21	6	9	6
943989	PROB	n/a	LTP280	ltpFR2	16	n/a	n/a	n/a	8	18	5	6	7
945189	PROB	n/a	LTP280	ltpFR2	16	n/a	n/a	n/a	8	24	7	8	9
946892	PROB	n/a	LTP280	ltpFR2	16	n/a	n/a	n/a	8	16	3	7	6
947943	PROB	n/a	LTP280	ltpFR2	16	n/a	n/a	n/a	8	7	2	1	4
948877	PROB	n/a	LTP280	ltpFR2	16	n/a	n/a	n/a	8	14	9	1	4
949905	STOP	n/a	LTP280	ltpFR2	16	n/a	n/a	n/a	8	n/a	n/a	n/a	n/a
951713	WORD	wordpools/wasnorm_wordpool_576.txt	LTP280	ltpFR2	16	5	PICNIC	1060	n/a	n/a	0	0	0
954381	WORD	wordpools/wasnorm_wordpool_576.txt	LTP280	ltpFR2	16	5	BANQUET	86	n/a	n/a	0	0	0
957134	WORD	wordpools/wasnorm_wordpool_576.txt	LTP280	ltpFR2	16	5	LIPSTICK	829	n/a	n/a	0	0	0
959836	WORD	wordpools/wasnorm_wordpool_576.txt	LTP280	ltpFR2	16	5	FOREHEAD	592	n/a	n/a	0	0	0
962538	WORD	wordpools/wasnorm_wordpool_576.txt	LTP280	ltpFR2	16	5	COMET	353	n/a	n/a	0	0	0
965041	WORD	wordpools/wasnorm_wordpool_576.txt	LTP280	ltpFR2	16	5	CANAL	226	n/a	n/a	0	0	0
967676	WORD	wordpools/wasnorm_wordpool_576.txt	LTP280	ltpFR2	16	5	OFFICE	972	n/a	n/a	0	0	0
970445	WORD	wordpools/wasnorm_wordpool_576.txt	LTP280	ltpFR2	16	5	HIGHWAY	707	n/a	n/a	0	0	0
973230	WORD	wordpools/wasnorm_wordpool_576.txt	LTP280	ltpFR2	16	5	WORLD	1622	n/a	n/a	0	0	0
975917	WORD	wordpools/wasnorm_wordpool_576.txt	LTP280	ltpFR2	16	5	GLOVE	642	n/a	n/a	0	0	0
978686	WORD	wordpools/wasnorm_wordpool_576.txt	LTP280	ltpFR2	16	5	FLAG	573	n/a	n/a	0	0	0
981155	WORD	wordpools/wasnorm_wordpool_576.txt	LTP280	ltpFR2	16	5	MISSILE	900	n/a	n/a	0	0	0
983639	WORD	wordpools/wasnorm_wordpool_576.txt	LTP280	ltpFR2	16	5	UNCLE	1536	n/a	n/a	0	0	0
986342	WORD	wordpools/wasnorm_wordpool_576.txt	LTP280	ltpFR2	16	5	PERMIT	1051	n/a	n/a	0	0	0
988995	WORD	wordpools/wasnorm_wordpool_576.txt	LTP280	ltpFR2	16	5	LOFT	840	n/a	n/a	0	0	0
991814	WORD	wordpools/wasnorm_wordpool_576.txt	LTP280	ltpFR2	16	5	APRON	35	n/a	n/a	0	0	0
994332	WORD	wordpools/wasnorm_wordpool_576.txt	LTP280	ltpFR2	16	5	CUPBOARD	425	n/a	n/a	0	0	0
996802	WORD	wordpools/wasnorm_wordpool_576.txt	LTP280	ltpFR2	16	5	CLIMBER	323	n/a	n/a	0	0	0
999587	WORD	wordpools/wasnorm_wordpool_576.txt	LTP280	ltpFR2	16	5	GRAVEL	659	n/a	n/a	0	0	0
1002256	WORD	wordpools/wasnorm_wordpool_576.txt	LTP280	ltpFR2	16	5	PEPPER	1047	n/a	n/a	0	0	0
1005042	WORD	wordpools/wasnorm_wordpool_576.txt	LTP280	ltpFR2	16	5	NIGHTGOWN	953	n/a	n/a	0	0	0
1007510	WORD	wordpools/wasnorm_wordpool_576.txt	LTP280	ltpFR2	16	5	PUPPY	1144	n/a	n/a	0	0	0
1010329	WORD	wordpools/wasnorm_wordpool_576.txt	LTP280	ltpFR2	16	5	LAVA	804	n/a	n/a	0	0	0
1012999	WORD	wordpools/wasnorm_wordpool_576.txt	LTP280	ltpFR2	16	5	HARP	689	n/a	n/a	0	0	0
1014600	START	n/a	LTP280	ltpFR2	16	n/a	n/a	n/a	9	n/a	n/a	n/a	n/a
1015681	DISTRACTOR	n/a	LTP280	ltpFR2	16	5	n/a	n/a	n/a	n/a	0	0	0
1015684	PROB	n/a	LTP280	ltpFR2	16	n/a	n/a	n/a	9	13	1	6	6
1016702	PROB	n/a	LTP280	ltpFR2	16	n/a	n/a	n/a	9	21	3	9	9
1018004	PROB	n/a	LTP280	ltpFR2	16	n/a	n/a	n/a	9	7	1	1	5
1019055	PROB	n/a	LTP280	ltpFR2	16	n/a	n/a	n/a	9	3	1	1	1
1019955	PROB	n/a	LTP280	ltpFR2	16	n/a	n/a	n/a	9	15	1	7	7
1020873	PROB	n/a	LTP280	ltpFR2	16	n/a	n/a	n/a	9	9	3	5	1
1021807	PROB	n/a	LTP280	ltpFR2	16	n/a	n/a	n/a	9	6	1	1	4
1022708	PROB	n/a	LTP280	ltpFR2	16	n/a	n/a	n/a	9	20	8	9	3
1024308	PROB	n/a	LTP280	ltpFR2	16	n/a	n/a	n/a	9	17	6	2	9
1026327	PROB	n/a	LTP280	ltpFR2	16	n/a	n/a	n/a	9	16	8	2	6
1027494	PROB	n/a	LTP280	ltpFR2	16	n/a	n/a	n/a	9	10	5	1	4
1028495	PROB	n/a	LTP280	ltpFR2	16	n/a	n/a	n/a	9	20	8	7	5
1029947	PROB	n/a	LTP280	ltpFR2	16	n/a	n/a	n/a	9	9	2	5	2
1031581	PROB	n/a	LTP280	ltpFR2	16	n/a	n/a	n/a	9	20	9	8	2
1032682	PROB	n/a	LTP280	ltpFR2	16	n/a	n/a	n/a	9	18	2	7	9
1034250	PROB	n/a	LTP280	ltpFR2	16	n/a	n/a	n/a	9	16	1	9	6
1035284	PROB	n/a	LTP280	ltpFR2	16	n/a	n/a	n/a	9	18	9	2	7
1036820	PROB	n/a	LTP280	ltpFR2	16	n/a	n/a	n/a	9	16	2	9	5
1037980	STOP	n/a	LTP280	ltpFR2	16	n/a	n/a	n/a	9	n/a	n/a	n/a	n/a
1040473	REC_START	n/a	LTP280	ltpFR2	16	5	n/a	n/a	n/a	n/a	0	0	0
1040824	REC_WORD	wordpools/wasnorm_wordpool_576.txt	LTP280	ltpFR2	16	5	APRON	35	n/a	n/a	0	0	0
1041373	REC_WORD	wordpools/wasnorm_wordpool_576.txt	LTP280	ltpFR2	16	5	CLIMBER	323	n/a	n/a	0	0	0
1042065	REC_WORD	wordpools/wasnorm_wordpool_576.txt	LTP280	ltpFR2	16	5	PEPPER	1047	n/a	n/a	0	0	0
1042748	REC_WORD	wordpools/wasnorm_wordpool_576.txt	LTP280	ltpFR2	16	5	PUPPY	1144	n/a	n/a	0	0	0
1043873	REC_WORD	wordpools/wasnorm_wordpool_576.txt	LTP280	ltpFR2	16	5	LAVA	804	n/a	n/a	0	0	0
1049148	REC_WORD	wordpools/wasnorm_wordpool_576.txt	LTP280	ltpFR2	16	5	PICNIC	1060	n/a	n/a	0	0	0
1051080	REC_WORD	wordpools/wasnorm_wordpool_576.txt	LTP280	ltpFR2	16	5	BLANKET	135	n/a	n/a	0	0	0
1053295	REC_WORD	wordpools/wasnorm_wordpool_576.txt	LTP280	ltpFR2	16	5	WORLD	1622	n/a	n/a	0	0	0
1054640	REC_WORD	wordpools/wasnorm_wordpool_576.txt	LTP280	ltpFR2	16	5	CANAL	226	n/a	n/a	0	0	0
1055286	REC_WORD	wordpools/wasnorm_wordpool_576.txt	LTP280	ltpFR2	16	5	HIGHWAY	707	n/a	n/a	0	0	0
1056334	REC_WORD	wordpools/wasnorm_wordpool_576.txt	LTP280	ltpFR2	16	5	OFFICE	972	n/a	n/a	0	0	0
1062573	REC_WORD	wordpools/wasnorm_wordpool_576.txt	LTP280	ltpFR2	16	5	UNCLE	1536	n/a	n/a	0	0	0
1131002	WORD	wordpools/wasnorm_wordpool_576.txt	LTP280	ltpFR2	16	6	DORM	488	n/a	n/a	0	0	0
1133755	WORD	wordpools/wasnorm_wordpool_576.txt	LTP280	ltpFR2	16	6	SHORTCAKE	1292	n/a	n/a	0	0	0
1136523	WORD	wordpools/wasnorm_wordpool_576.txt	LTP280	ltpFR2	16	6	HONEY	713	n/a	n/a	0	0	0
1139342	WORD	wordpools/wasnorm_wordpool_576.txt	LTP280	ltpFR2	16	6	LUGGAGE	847	n/a	n/a	0	0	0
1142028	WORD	wordpools/wasnorm_wordpool_576.txt	LTP280	ltpFR2	16	6	TOURIST	1488	n/a	n/a	0	0	0
1144463	WORD	wordpools/wasnorm_wordpool_576.txt	LTP280	ltpFR2	16	6	SHIRT	1287	n/a	n/a	0	0	0
1147215	WORD	wordpools/wasnorm_wordpool_576.txt	LTP280	ltpFR2	16	6	FOOTBALL	591	n/a	n/a	0	0	0
1149802	WORD	wordpools/wasnorm_wordpool_576.txt	LTP280	ltpFR2	16	6	ARMY	39	n/a	n/a	0	0	0
1152637	WORD	wordpools/wasnorm_wordpool_576.txt	LTP280	ltpFR2	16	6	BREAST	171	n/a	n/a	0	0	0
1155173	WORD	wordpools/wasnorm_wordpool_576.txt	LTP280	ltpFR2	16	6	STOMACH	1384	n/a	n/a	0	0	0
1157624	WORD	wordpools/wasnorm_wordpool_576.txt	LTP280	ltpFR2	16	6	BOYFRIEND	162	n/a	n/a	0	0	0
1160260	WORD	wordpools/wasnorm_wordpool_576.txt	LTP280	ltpFR2	16	6	COLONEL	348	n/a	n/a	0	0	0
1162847	WORD	wordpools/wasnorm_wordpool_576.txt	LTP280	ltpFR2	16	6	PISTON	1076	n/a	n/a	0	0	0
1165298	WORD	wordpools/wasnorm_wordpool_576.txt	LTP280	ltpFR2	16	6	OZONE	996	n/a	n/a	0	0	0
1167901	WORD	wordpools/wasnorm_wordpool_576.txt	LTP280	ltpFR2	16	6	ZIPPER	1636	n/a	n/a	0	0	0
1170469	WORD	wordpools/wasnorm_wordpool_576.txt	LTP280	ltpFR2	16	6	SUITCASE	1403	n/a	n/a	0	0	0
1173139	WORD	wordpools/wasnorm_wordpool_576.txt	LTP280	ltpFR2	16	6	PATROL	1027	n/a	n/a	0	0	0
1175775	WORD	wordpools/wasnorm_wordpool_576.txt	LTP280	ltpFR2	16	6	HOOD	714	n/a	n/a	0	0	0
1178209	WORD	wordpools/wasnorm_wordpool_576.txt	LTP280	ltpFR2	16	6	PICTURE	1061	n/a	n/a	0	0	0
1180996	WORD	wordpools/wasnorm_wordpool_576.txt	LTP280	ltpFR2	16	6	COOKBOOK	373	n/a	n/a	0	0	0
1183647	WORD	wordpools/wasnorm_wordpool_576.txt	LTP280	ltpFR2	16	6	SPIDER	1351	n/a	n/a	0	0	0
1186117	WORD	wordpools/wasnorm_wordpool_576.txt	LTP280	ltpFR2	16	6	CRICKET	408	n/a	n/a	0	0	0
1188786	WORD	wordpools/wasnorm_wordpool_576.txt	LTP280	ltpFR2	16	6	OYSTER	995	n/a	n/a	0	0	0
1191420	WORD	wordpools/wasnorm_wordpool_576.txt	LTP280	ltpFR2	16	6	DRESS	495	n/a	n/a	0	0	0
1193040	START	n/a	LTP280	ltpFR2	16	n/a	n/a	n/a	10	n/a	n/a	n/a	n/a
1193983	DISTRACTOR	n/a	LTP280	ltpFR2	16	6	n/a	n/a	n/a	n/a	0	0	0
1194007	PROB	n/a	LTP280	ltpFR2	16	n/a	n/a	n/a	10	24	8	8	8
1195207	PROB	n/a	LTP280	ltpFR2	16	n/a	n/a	n/a	10	18	4	6	8
1196408	PROB	n/a	LTP280	ltpFR2	16	n/a	n/a	n/a	10	14	4	9	2
1197977	PROB	n/a	LTP280	ltpFR2	16	n/a	n/a	n/a	10	16	3	5	8
1199277	PROB	n/a	LTP280	ltpFR2	16	n/a	n/a	n/a	10	13	1	9	3
1200880	PROB	n/a	LTP280	ltpFR2	16	n/a	n/a	n/a	10	22	9	9	4
1202330	PROB	n/a	LTP280	ltpFR2	16	n/a	n/a	n/a	10	17	5	4	8
1203664	PROB	n/a	LTP280	ltpFR2	16	n/a	n/a	n/a	10	15	5	3	7
1205433	PROB	n/a	LTP280	ltpFR2	16	n/a	n/a	n/a	10	7	3	3	1
1206400	PROB	n/a	LTP280	ltpFR2	16	n/a	n/a	n/a	10	12	5	2	5
1207551	PROB	n/a	LTP280	ltpFR2	16	n/a	n/a	n/a	10	14	7	2	5
1208853	PROB	n/a	LTP280	ltpFR2	16	n/a	n/a	n/a	10	9	3	3	3
1210021	PROB	n/a	LTP280	ltpFR2	16	n/a	n/a	n/a	10	12	6	1	5
1210938	PROB	n/a	LTP280	ltpFR2	16	n/a	n/a	n/a	10	13	6	1	6
1212023	PROB	n/a	LTP280	ltpFR2	16	n/a	n/a	n/a	10	8	1	1	6
1213290	PROB	n/a	LTP280	ltpFR2	16	n/a	n/a	n/a	10	13	4	3	8
1215009	PROB	n/a	LTP280	ltpFR2	16	n/a	n/a	n/a	10	14	6	7	1
1216051	STOP	n/a	LTP280	ltpFR2	16	n/a	n/a	n/a	10	n/a	n/a	n/a	n/a
1218879	REC_START	n/a	LTP280	ltpFR2	16	6	n/a	n/a	n/a	n/a	0	0	0
1219354	REC_WORD	wordpools/wasnorm_wordpool_576.txt	LTP280	ltpFR2	16	6	PISTON	1076	n/a	n/a	0	0	0
1219962	REC_WORD	wordpools/wasnorm_wordpool_576.txt	LTP280	ltpFR2	16	6	ZIPPER	1636	n/a	n/a	0	0	0
1221680	REC_WORD	wordpools/wasnorm_wordpool_576.txt	LTP280	ltpFR2	16	6	SUITCASE	1403	n/a	n/a	0	0	0
1224331	REC_WORD	wordpools/wasnorm_wordpool_576.txt	LTP280	ltpFR2	16	6	FOOTBALL	591	n/a	n/a	0	0	0
1226704	REC_WORD	wordpools/wasnorm_wordpool_576.txt	LTP280	ltpFR2	16	6	DORM	488	n/a	n/a	0	0	0
1228745	REC_WORD	wordpools/wasnorm_wordpool_576.txt	LTP280	ltpFR2	16	6	CRICKET	408	n/a	n/a	0	0	0
1233255	REC_WORD	wordpools/wasnorm_wordpool_576.txt	LTP280	ltpFR2	16	6	SHORTCAKE	1292	n/a	n/a	0	0	0
1234214	REC_WORD	wordpools/wasnorm_wordpool_576.txt	LTP280	ltpFR2	16	6	HONEY	713	n/a	n/a	0	0	0
1234962	REC_WORD	wordpools/wasnorm_wordpool_576.txt	LTP280	ltpFR2	16	6	COOKBOOK	373	n/a	n/a	0	0	0
1309357	DISTRACTOR	n/a	LTP280	ltpFR2	16	7	n/a	n/a	n/a	n/a	0	0	0
1309357	START	n/a	LTP280	ltpFR2	16	n/a	n/a	n/a	11	n/a	n/a	n/a	n/a
1309373	PROB	n/a	LTP280	ltpFR2	16	n/a	n/a	n/a	11	13	2	3	8
1310759	PROB	n/a	LTP280	ltpFR2	16	n/a	n/a	n/a	11	6	2	3	1
1311675	PROB	n/a	LTP280	ltpFR2	16	n/a	n/a	n/a	11	22	9	9	4
1312861	PROB	n/a	LTP280	ltpFR2	16	n/a	n/a	n/a	11	19	7	6	6
1314478	PROB	n/a	LTP280	ltpFR2	16	n/a	n/a	n/a	11	15	5	2	8
1315963	PROB	n/a	LTP280	ltpFR2	16	n/a	n/a	n/a	11	14	3	9	2
1317098	PROB	n/a	LTP280	ltpFR2	16	n/a	n/a	n/a	11	6	3	2	1
1317948	PROB	n/a	LTP280	ltpFR2	16	n/a	n/a	n/a	11	9	1	2	6
1318999	PROB	n/a	LTP280	ltpFR2	16	n/a	n/a	n/a	11	9	2	3	4
1320483	PROB	n/a	LTP280	ltpFR2	16	n/a	n/a	n/a	11	17	1	8	8
1321517	PROB	n/a	LTP280	ltpFR2	16	n/a	n/a	n/a	11	1	9	6	1
1322535	PROB	n/a	LTP280	ltpFR2	16	n/a	n/a	n/a	11	14	5	7	2
1323669	PROB	n/a	LTP280	ltpFR2	16	n/a	n/a	n/a	11	13	1	6	6
1324670	PROB	n/a	LTP280	ltpFR2	16	n/a	n/a	n/a	11	9	4	4	1
1325537	PROB	n/a	LTP280	ltpFR2	16	n/a	n/a	n/a	11	11	7	2	2
1327239	PROB	n/a	LTP280	ltpFR2	16	n/a	n/a	n/a	11	11	3	1	7
1328223	PROB	n/a	LTP280	ltpFR2	16	n/a	n/a	n/a	11	15	6	5	4
1329374	PROB	n/a	LTP280	ltpFR2	16	n/a	n/a	n/a	11	22	9	6	7
1330709	PROB	n/a	LTP280	ltpFR2	16	n/a	n/a	n/a	11	10	3	1	6
1331960	STOP	n/a	LTP280	ltpFR2	16	n/a	n/a	n/a	11	n/a	n/a	n/a	n/a
1334278	WORD	wordpools/wasnorm_wordpool_576.txt	LTP280	ltpFR2	16	7	BLACKBOARD	133	n/a	n/a	0	0	0
1336781	WORD	wordpools/wasnorm_wordpool_576.txt	LTP280	ltpFR2	16	7	WAITER	1580	n/a	n/a	0	0	0
1339466	WORD	wordpools/wasnorm_wordpool_576.txt	LTP280	ltpFR2	16	7	CASHEW	253	n/a	n/a	0	0	0
1341902	WORD	wordpools/wasnorm_wordpool_576.txt	LTP280	ltpFR2	16	7	LIGHTNING	820	n/a	n/a	0	0	0
1344504	WORD	wordpools/wasnorm_wordpool_576.txt	LTP280	ltpFR2	16	7	TWIG	1527	n/a	n/a	0	0	0
1346974	WORD	wordpools/wasnorm_wordpool_576.txt	LTP280	ltpFR2	16	7	SEAGULL	1261	n/a	n/a	0	0	0
1349759	WORD	wordpools/wasnorm_wordpool_576.txt	LTP280	ltpFR2	16	7	SNAIL	1332	n/a	n/a	0	0	0
1352394	WORD	wordpools/wasnorm_wordpool_576.txt	LTP280	ltpFR2	16	7	POPCORN	1104	n/a	n/a	0	0	0
1354864	WORD	wordpools/wasnorm_wordpool_576.txt	LTP280	ltpFR2	16	7	PROTON	1132	n/a	n/a	0	0	0
1357665	WORD	wordpools/wasnorm_wordpool_576.txt	LTP280	ltpFR2	16	7	MARINE	869	n/a	n/a	0	0	0
1360118	WORD	wordpools/wasnorm_wordpool_576.txt	LTP280	ltpFR2	16	7	MARSH	874	n/a	n/a	0	0	0
1362904	WORD	wordpools/wasnorm_wordpool_576.txt	LTP280	ltpFR2	16	7	MAMMAL	861	n/a	n/a	0	0	0
1365389	WORD	wordpools/wasnorm_wordpool_576.txt	LTP280	ltpFR2	16	7	SHARK	1275	n/a	n/a	0	0	0
1368092	WORD	wordpools/wasnorm_wordpool_576.txt	LTP280	ltpFR2	16	7	EAGLE	512	n/a	n/a	0	0	0
1370861	WORD	wordpools/wasnorm_wordpool_576.txt	LTP280	ltpFR2	16	7	VIRUS	1572	n/a	n/a	0	0	0
1373612	WORD	wordpools/wasnorm_wordpool_576.txt	LTP280	ltpFR2	16	7	STREAM	1392	n/a	n/a	0	0	0
1376332	WORD	wordpools/wasnorm_wordpool_576.txt	LTP280	ltpFR2	16	7	SPOON	1357	n/a	n/a	0	0	0
1378968	WORD	wordpools/wasnorm_wordpool_576.txt	LTP280	ltpFR2	16	7	HATCHET	691	n/a	n/a	0	0	0
1381636	WORD	wordpools/wasnorm_wordpool_576.txt	LTP280	ltpFR2	16	7	FILM	565	n/a	n/a	0	0	0
1384238	WORD	wordpools/wasnorm_wordpool_576.txt	LTP280	ltpFR2	16	7	AWARD	63	n/a	n/a	0	0	0
1386825	WORD	wordpools/wasnorm_wordpool_576.txt	LTP280	ltpFR2	16	7	JUGGLER	763	n/a	n/a	0	0	0
1389593	WORD	wordpools/wasnorm_wordpool_576.txt	LTP280	ltpFR2	16	7	WAITRESS	1581	n/a	n/a	0	0	0
1392262	WORD	wordpools/wasnorm_wordpool_576.txt	LTP280	ltpFR2	16	7	SERVER	1272	n/a	n/a	0	0	0
1394982	WORD	wordpools/wasnorm_wordpool_576.txt	LTP280	ltpFR2	16	7	SHRUB	1299	n/a	n/a	0	0	0
1396599	START	n/a	LTP280	ltpFR2	16	n/a	n/a	n/a	12	n/a	n/a	n/a	n/a
1397683	DISTRACTOR	n/a	LTP280	ltpFR2	16	7	n/a	n/a	n/a	n/a	0	0	0
1397701	PROB	n/a	LTP280	ltpFR2	16	n/a	n/a	n/a	12	17	5	7	5
1399169	PROB	n/a	LTP280	ltpFR2	16	n/a	n/a	n/a	12	17	3	7	7
1401320	PROB	n/a	LTP280	ltpFR2	16	n/a	n/a	n/a	12	9	1	3	5
1402488	PROB	n/a	LTP280	ltpFR2	16	n/a	n/a	n/a	12	13	8	4	1
1403555	PROB	n/a	LTP280	ltpFR2	16	n/a	n/a	n/a	12	25	9	9	7
1405440	PROB	n/a	LTP280	ltpFR2	16	n/a	n/a	n/a	12	14	9	3	2
1407242	PROB	n/a	LTP280	ltpFR2	16	n/a	n/a	n/a	12	15	7	2	6
1408927	PROB	n/a	LTP280	ltpFR2	16	n/a	n/a	n/a	12	25	9	8	8
1410361	PROB	n/a	LTP280	ltpFR2	16	n/a	n/a	n/a	12	24	7	8	9
1412613	PROB	n/a	LTP280	ltpFR2	16	n/a	n/a	n/a	12	16	1	7	8
1413815	PROB	n/a	LTP280	ltpFR2	16	n/a	n/a	n/a	12	6	3	1	2
1414632	PROB	n/a	LTP280	ltpFR2	16	n/a	n/a	n/a	12	23	8	7	8
1416266	PROB	n/a	LTP280	ltpFR2	16	n/a	n/a	n/a	12	12	2	3	7
1417367	PROB	n/a	LTP280	ltpFR2	16	n/a	n/a	n/a	12	21	8	7	6
1418686	PROB	n/a	LTP280	ltpFR2	16	n/a	n/a	n/a	12	9	3	5	1
1419578	STOP	n/a	LTP280	ltpFR2	16	n/a	n/a	n/a	12	n/a	n/a	n/a	n/a
1422372	REC_START	n/a	LTP280	ltpFR2	16	7	n/a	n/a	n/a	n/a	0	0	0
1423032	REC_WORD	wordpools/wasnorm_wordpool_576.txt	LTP280	ltpFR2	16	7	WAITER	1580	n/a	n/a	0	0	0
1423487	REC_WORD	wordpools/wasnorm_wordpool_576.txt	LTP280	ltpFR2	16	7	WAITRESS	1581	n/a	n/a	0	0	0
1424210	REC_WORD	wordpools/wasnorm_wordpool_576.txt	LTP280	ltpFR2	16	7	SERVER	1272	n/a	n/a	0	0	0
1424980	REC_WORD	wordpools/wasnorm_wordpool_576.txt	LTP280	ltpFR2	16	7	BLACKBOARD	133	n/a	n/a	0	0	0
1428217	REC_WORD	wordpools/wasnorm_wordpool_576.txt	LTP280	ltpFR2	16	7	MAMMAL	861	n/a	n/a	0	0	0
1428809	REC_WORD	wordpools/wasnorm_wordpool_576.txt	LTP280	ltpFR2	16	7	SHARK	1275	n/a	n/a	0	0	0
1430189	REC_WORD	wordpools/wasnorm_wordpool_576.txt	LTP280	ltpFR2	16	7	SEAGULL	1261	n/a	n/a	0	0	0
1431506	REC_WORD	wordpools/wasnorm_wordpool_576.txt	LTP280	ltpFR2	16	7	EAGLE	512	n/a	n/a	0	0	0
1432950	REC_WORD	wordpools/wasnorm_wordpool_576.txt	LTP280	ltpFR2	16	7	SNAIL	1332	n/a	n/a	0	0	0
1435962	REC_WORD	wordpools/wasnorm_wordpool_576.txt	LTP280	ltpFR2	16	7	POPCORN	1104	n/a	n/a	0	0	0
1437387	REC_WORD	wordpools/wasnorm_wordpool_576.txt	LTP280	ltpFR2	16	7	MARSH	874	n/a	n/a	0	0	0
1512818	WORD	wordpools/wasnorm_wordpool_576.txt	LTP280	ltpFR2	16	8	ICEBERG	731	n/a	n/a	0	0	0
1515569	WORD	wordpools/wasnorm_wordpool_576.txt	LTP280	ltpFR2	16	8	LAMP	798	n/a	n/a	0	0	0
1518205	WORD	wordpools/wasnorm_wordpool_576.txt	LTP280	ltpFR2	16	8	PENGUIN	1044	n/a	n/a	0	0	0
1520708	WORD	wordpools/wasnorm_wordpool_576.txt	LTP280	ltpFR2	16	8	CANDY	230	n/a	n/a	0	0	0
1523460	WORD	wordpools/wasnorm_wordpool_576.txt	LTP280	ltpFR2	16	8	GROUND	666	n/a	n/a	0	0	0
1525913	WORD	wordpools/wasnorm_wordpool_576.txt	LTP280	ltpFR2	16	8	PEACH	1031	n/a	n/a	0	0	0
1528414	WORD	wordpools/wasnorm_wordpool_576.txt	LTP280	ltpFR2	16	8	BROOK	177	n/a	n/a	0	0	0
1531034	WORD	wordpools/wasnorm_wordpool_576.txt	LTP280	ltpFR2	16	8	VALLEY	1545	n/a	n/a	0	0	0
1533619	WORD	wordpools/wasnorm_wordpool_576.txt	LTP280	ltpFR2	16	8	ATLAS	53	n/a	n/a	0	0	0
1536172	WORD	wordpools/wasnorm_wordpool_576.txt	LTP280	ltpFR2	16	8	COUSIN	392	n/a	n/a	0	0	0
1538841	WORD	wordpools/wasnorm_wordpool_576.txt	LTP280	ltpFR2	16	8	MOTEL	919	n/a	n/a	0	0	0
1541375	WORD	wordpools/wasnorm_wordpool_576.txt	LTP280	ltpFR2	16	8	FRUIT	610	n/a	n/a	0	0	0
1543895	WORD	wordpools/wasnorm_wordpool_576.txt	LTP280	ltpFR2	16	8	TOASTER	1472	n/a	n/a	0	0	0
1546380	WORD	wordpools/wasnorm_wordpool_576.txt	LTP280	ltpFR2	16	8	STOVE	1388	n/a	n/a	0	0	0
1549100	WORD	wordpools/wasnorm_wordpool_576.txt	LTP280	ltpFR2	16	8	HEADBAND	696	n/a	n/a	0	0	0
1551618	WORD	wordpools/wasnorm_wordpool_576.txt	LTP280	ltpFR2	16	8	SWITCH	1422	n/a	n/a	0	0	0
1554303	WORD	wordpools/wasnorm_wordpool_576.txt	LTP280	ltpFR2	16	8	SALAD	1224	n/a	n/a	0	0	0
1556957	WORD	wordpools/wasnorm_wordpool_576.txt	LTP280	ltpFR2	16	8	GARLIC	624	n/a	n/a	0	0	0
1559776	WORD	wordpools/wasnorm_wordpool_576.txt	LTP280	ltpFR2	16	8	LEADER	807	n/a	n/a	0	0	0
1562227	WORD	wordpools/wasnorm_wordpool_576.txt	LTP280	ltpFR2	16	8	SODA	1341	n/a	n/a	0	0	0
1564830	WORD	wordpools/wasnorm_wordpool_576.txt	LTP280	ltpFR2	16	8	BRANCH	168	n/a	n/a	0	0	0
1567548	WORD	wordpools/wasnorm_wordpool_576.txt	LTP280	ltpFR2	16	8	CEILING	265	n/a	n/a	0	0	0
1570250	WORD	wordpools/wasnorm_wordpool_576.txt	LTP280	ltpFR2	16	8	LAPEL	800	n/a	n/a	0	0	0
1572837	WORD	wordpools/wasnorm_wordpool_576.txt	LTP280	ltpFR2	16	8	SKIRT	1319	n/a	n/a	0	0	0
1574454	START	n/a	LTP280	ltpFR2	16	n/a	n/a	n/a	13	n/a	n/a	n/a	n/a
1575309	DISTRACTOR	n/a	LTP280	ltpFR2	16	8	n/a	n/a	n/a	n/a	0	0	0
1575321	PROB	n/a	LTP280	ltpFR2	16	n/a	n/a	n/a	13	17	4	5	8
1576757	PROB	n/a	LTP280	ltpFR2	16	n/a	n/a	n/a	13	13	6	4	3
1577825	PROB	n/a	LTP280	ltpFR2	16	n/a	n/a	n/a	13	10	4	1	5
1578792	PROB	n/a	LTP280	ltpFR2	16	n/a	n/a	n/a	13	25	9	9	7
1580610	PROB	n/a	LTP280	ltpFR2	16	n/a	n/a	n/a	13	15	3	4	8
1581912	PROB	n/a	LTP280	ltpFR2	16	n/a	n/a	n/a	13	15	5	3	7
1583612	PROB	n/a	LTP280	ltpFR2	16	n/a	n/a	n/a	13	16	6	6	4
1584981	PROB	n/a	LTP280	ltpFR2	16	n/a	n/a	n/a	13	15	2	6	7
1586581	PROB	n/a	LTP280	ltpFR2	16	n/a	n/a	n/a	13	11	5	3	3
1587700	PROB	n/a	LTP280	ltpFR2	16	n/a	n/a	n/a	13	15	5	8	2
1588851	PROB	n/a	LTP280	ltpFR2	16	n/a	n/a	n/a	13	17	7	5	5
1590069	PROB	n/a	LTP280	ltpFR2	16	n/a	n/a	n/a	13	19	5	6	8
1591302	PROB	n/a	LTP280	ltpFR2	16	n/a	n/a	n/a	13	19	8	5	6
1592704	PROB	n/a	LTP280	ltpFR2	16	n/a	n/a	n/a	13	17	7	4	6
1594005	PROB	n/a	LTP280	ltpFR2	16	n/a	n/a	n/a	13	14	5	7	2
1595006	PROB	n/a	LTP280	ltpFR2	16	n/a	n/a	n/a	13	18	6	6	6
1596057	PROB	n/a	LTP280	ltpFR2	16	n/a	n/a	n/a	13	14	3	8	3
1597369	STOP	n/a	LTP280	ltpFR2	16	n/a	n/a	n/a	13	n/a	n/a	n/a	n/a
1600361	REC_START	n/a	LTP280	ltpFR2	16	8	n/a	n/a	n/a	n/a	0	0	0
1600494	REC_WORD	wordpools/wasnorm_wordpool_576.txt	LTP280	ltpFR2	16	8	TOASTER	1472	n/a	n/a	0	0	0
1601018	REC_WORD	wordpools/wasnorm_wordpool_576.txt	LTP280	ltpFR2	16	8	STOVE	1388	n/a	n/a	0	0	0
1601774	REC_WORD	wordpools/wasnorm_wordpool_576.txt	LTP280	ltpFR2	16	8	SWITCH	1422	n/a	n/a	0	0	0
1603224	REC_WORD	wordpools/wasnorm_wordpool_576.txt	LTP280	ltpFR2	16	8	GARLIC	624	n/a	n/a	0	0	0
1604154	REC_WORD	wordpools/wasnorm_wordpool_576.txt	LTP280	ltpFR2	16	8	SALAD	1224	n/a	n/a	0	0	0
1646155	REC_WORD	wordpools/wasnorm_wordpool_576.txt	LTP280	ltpFR2	16	8	GROUND	666	n/a	n/a	0	0	0
1646857	REC_WORD	wordpools/wasnorm_wordpool_576.txt	LTP280	ltpFR2	16	8	PEACH	1031	n/a	n/a	0	0	0
1647971	REC_WORD	wordpools/wasnorm_wordpool_576.txt	LTP280	ltpFR2	16	8	BROOK	177	n/a	n/a	0	0	0
1648627	REC_WORD	wordpools/wasnorm_wordpool_576.txt	LTP280	ltpFR2	16	8	VALLEY	1545	n/a	n/a	0	0	0
1663684	REC_WORD	wordpools/wasnorm_wordpool_576.txt	LTP280	ltpFR2	16	8	ICEBERG	731	n/a	n/a	0	0	0
1664632	REC_WORD	wordpools/wasnorm_wordpool_576.txt	LTP280	ltpFR2	16	8	PENGUIN	1044	n/a	n/a	0	0	0
1676911	REST_REWET	n/a	LTP280	ltpFR2	16	8	n/a	n/a	n/a	n/a	0	0	0
1959673	DISTRACTOR	n/a	LTP280	ltpFR2	16	9	n/a	n/a	n/a	n/a	0	0	0
1959673	START	n/a	LTP280	ltpFR2	16	n/a	n/a	n/a	14	n/a	n/a	n/a	n/a
1959707	PROB	n/a	LTP280	ltpFR2	16	n/a	n/a	n/a	14	20	2	9	9
1960842	PROB	n/a	LTP280	ltpFR2	16	n/a	n/a	n/a	14	17	8	2	7
1961959	PROB	n/a	LTP280	ltpFR2	16	n/a	n/a	n/a	14	13	6	2	5
1963326	PROB	n/a	LTP280	ltpFR2	16	n/a	n/a	n/a	14	16	8	6	2
1964979	PROB	n/a	LTP280	ltpFR2	16	n/a	n/a	n/a	14	14	6	3	5
1966245	PROB	n/a	LTP280	ltpFR2	16	n/a	n/a	n/a	14	12	3	5	4
1967781	PROB	n/a	LTP280	ltpFR2	16	n/a	n/a	n/a	14	16	9	1	5
1968749	PROB	n/a	LTP280	ltpFR2	16	n/a	n/a	n/a	14	13	1	6	6
1970050	PROB	n/a	LTP280	ltpFR2	16	n/a	n/a	n/a	14	16	2	6	8
1971350	PROB	n/a	LTP280	ltpFR2	16	n/a	n/a	n/a	14	18	5	9	4
1972484	PROB	n/a	LTP280	ltpFR2	16	n/a	n/a	n/a	14	16	5	4	8
1973669	PROB	n/a	LTP280	ltpFR2	16	n/a	n/a	n/a	14	10	3	3	4
1974937	PROB	n/a	LTP280	ltpFR2	16	n/a	n/a	n/a	14	11	3	5	4
1976538	PROB	n/a	LTP280	ltpFR2	16	n/a	n/a	n/a	14	10	3	3	4
1977690	PROB	n/a	LTP280	ltpFR2	16	n/a	n/a	n/a	14	21	9	3	9
1979240	PROB	n/a	LTP280	ltpFR2	16	n/a	n/a	n/a	14	9	3	5	2
1981342	PROB	n/a	LTP280	ltpFR2	16	n/a	n/a	n/a	14	13	7	2	3
1983257	STOP	n/a	LTP280	ltpFR2	16	n/a	n/a	n/a	14	n/a	n/a	n/a	n/a
1984696	WORD	wordpools/wasnorm_wordpool_576.txt	LTP280	ltpFR2	16	9	LASER	801	n/a	n/a	0	0	0
1987447	WORD	wordpools/wasnorm_wordpool_576.txt	LTP280	ltpFR2	16	9	YACHT	1629	n/a	n/a	0	0	0
1990134	WORD	wordpools/wasnorm_wordpool_576.txt	LTP280	ltpFR2	16	9	TRUCK	1512	n/a	n/a	0	0	0
1992786	WORD	wordpools/wasnorm_wordpool_576.txt	LTP280	ltpFR2	16	9	RUST	1219	n/a	n/a	0	0	0
1995387	WORD	wordpools/wasnorm_wordpool_576.txt	LTP280	ltpFR2	16	9	BRAKE	166	n/a	n/a	0	0	0
1997991	WORD	wordpools/wasnorm_wordpool_576.txt	LTP280	ltpFR2	16	9	BULLET	194	n/a	n/a	0	0	0
2000726	WORD	wordpools/wasnorm_wordpool_576.txt	LTP280	ltpFR2	16	9	PISTOL	1075	n/a	n/a	0	0	0
2003378	WORD	wordpools/wasnorm_wordpool_576.txt	LTP280	ltpFR2	16	9	SILK	1307	n/a	n/a	0	0	0
2005964	WORD	wordpools/wasnorm_wordpool_576.txt	LTP280	ltpFR2	16	9	STAMP	1370	n/a	n/a	0	0	0
2008767	WORD	wordpools/wasnorm_wordpool_576.txt	LTP280	ltpFR2	16	9	MESSAGE	888	n/a	n/a	0	0	0
2011201	WORD	wordpools/wasnorm_wordpool_576.txt	LTP280	ltpFR2	16	9	ULCER	1533	n/a	n/a	0	0	0
2013788	WORD	wordpools/wasnorm_wordpool_576.txt	LTP280	ltpFR2	16	9	STAR	1373	n/a	n/a	0	0	0
2016356	WORD	wordpools/wasnorm_wordpool_576.txt	LTP280	ltpFR2	16	9	VIKING	1565	n/a	n/a	0	0	0
2019109	WORD	wordpools/wasnorm_wordpool_576.txt	LTP280	ltpFR2	16	9	PILOT	1070	n/a	n/a	0	0	0
2021928	WORD	wordpools/wasnorm_wordpool_576.txt	LTP280	ltpFR2	16	9	BIKE	125	n/a	n/a	0	0	0
2024379	WORD	wordpools/wasnorm_wordpool_576.txt	LTP280	ltpFR2	16	9	GANGSTER	620	n/a	n/a	0	0	0
2026949	WORD	wordpools/wasnorm_wordpool_576.txt	LTP280	ltpFR2	16	9	CELLAR	267	n/a	n/a	0	0	0
2029550	WORD	wordpools/wasnorm_wordpool_576.txt	LTP280	ltpFR2	16	9	SPACE	1345	n/a	n/a	0	0	0
2032353	WORD	wordpools/wasnorm_wordpool_576.txt	LTP280	ltpFR2	16	9	SANDWICH	1232	n/a	n/a	0	0	0
2034956	WORD	wordpools/wasnorm_wordpool_576.txt	LTP280	ltpFR2	16	9	SMOG	1330	n/a	n/a	0	0	0
2037524	WORD	wordpools/wasnorm_wordpool_576.txt	LTP280	ltpFR2	16	9	JEANS	752	n/a	n/a	0	0	0
2040243	WORD	wordpools/wasnorm_wordpool_576.txt	LTP280	ltpFR2	16	9	ROBBER	1197	n/a	n/a	0	0	0
2042696	WORD	wordpools/wasnorm_wordpool_576.txt	LTP280	ltpFR2	16	9	CORAL	378	n/a	n/a	0	0	0
2045331	WORD	wordpools/wasnorm_wordpool_576.txt	LTP280	ltpFR2	16	9	SPONGE	1355	n/a	n/a	0	0	0
2046950	START	n/a	LTP280	ltpFR2	16	n/a	n/a	n/a	15	n/a	n/a	n/a	n/a
2048108	DISTRACTOR	n/a	LTP280	ltpFR2	16	9	n/a	n/a	n/a	n/a	0	0	0
2048118	PROB	n/a	LTP280	ltpFR2	16	n/a	n/a	n/a	15	8	3	1	4
2049201	PROB	n/a	LTP280	ltpFR2	16	n/a	n/a	n/a	15	18	3	8	7
2050703	PROB	n/a	LTP280	ltpFR2	16	n/a	n/a	n/a	15	15	5	5	5
2051570	PROB	n/a	LTP280	ltpFR2	16	n/a	n/a	n/a	15	13	2	8	3
2052504	PROB	n/a	LTP280	ltpFR2	16	n/a	n/a	n/a	15	21	9	3	9
2053723	PROB	n/a	LTP280	ltpFR2	16	n/a	n/a	n/a	15	13	9	1	3
2055124	PROB	n/a	LTP280	ltpFR2	16	n/a	n/a	n/a	15	14	8	5	1
2056390	PROB	n/a	LTP280	ltpFR2	16	n/a	n/a	n/a	15	9	7	1	1
2057475	PROB	n/a	LTP280	ltpFR2	16	n/a	n/a	n/a	15	13	9	3	1
2058442	PROB	n/a	LTP280	ltpFR2	16	n/a	n/a	n/a	15	16	9	1	6
2059393	PROB	n/a	LTP280	ltpFR2	16	n/a	n/a	n/a	15	17	8	1	8
2060511	PROB	n/a	LTP280	ltpFR2	16	n/a	n/a	n/a	15	13	8	3	2
2061880	PROB	n/a	LTP280	ltpFR2	16	n/a	n/a	n/a	15	12	1	5	6
2062831	PROB	n/a	LTP280	ltpFR2	16	n/a	n/a	n/a	15	18	3	8	7
2064181	PROB	n/a	LTP280	ltpFR2	16	n/a	n/a	n/a	15	21	8	8	5
2065565	PROB	n/a	LTP280	ltpFR2	16	n/a	n/a	n/a	15	9	1	5	3
2066616	PROB	n/a	LTP280	ltpFR2	16	n/a	n/a	n/a	15	19	2	8	9
2067701	PROB	n/a	LTP280	ltpFR2	16	n/a	n/a	n/a	15	16	7	5	4
2068902	PROB	n/a	LTP280	ltpFR2	16	n/a	n/a	n/a	15	13	1	8	4
2069805	STOP	n/a	LTP280	ltpFR2	16	n/a	n/a	n/a	15	n/a	n/a	n/a	n/a
2072790	REC_START	n/a	LTP280	ltpFR2	16	9	n/a	n/a	n/a	n/a	0	0	0
2073215	REC_WORD	wordpools/wasnorm_wordpool_576.txt	LTP280	ltpFR2	16	9	SPACE	1345	n/a	n/a	0	0	0
2073808	REC_WORD	wordpools/wasnorm_wordpool_576.txt	LTP280	ltpFR2	16	9	SANDWICH	1232	n/a	n/a	0	0	0
2074666	REC_WORD	wordpools/wasnorm_wordpool_576.txt	LTP280	ltpFR2	16	9	SMOG	1330	n/a	n/a	0	0	0
2077130	REC_WORD	wordpools/wasnorm_wordpool_576.txt	LTP280	ltpFR2	16	9	TRUCK	1512	n/a	n/a	0	0	0
2077644	REC_WORD	wordpools/wasnorm_wordpool_576.txt	LTP280	ltpFR2	16	9	RUST	1219	n/a	n/a	0	0	0
2078316	REC_WORD	wordpools/wasnorm_wordpool_576.txt	LTP280	ltpFR2	16	9	HOOD	714	n/a	n/a	0	0	0
2079591	REC_WORD	wordpools/wasnorm_wordpool_576.txt	LTP280	ltpFR2	16	9	BULLET	194	n/a	n/a	0	0	0
2080278	REC_WORD	wordpools/wasnorm_wordpool_576.txt	LTP280	ltpFR2	16	9	PISTOL	1075	n/a	n/a	0	0	0
2163434	WORD	wordpools/wasnorm_wordpool_576.txt	LTP280	ltpFR2	16	10	SPHINX	1349	n/a	n/a	0	0	0
2165987	WORD	wordpools/wasnorm_wordpool_576.txt	LTP280	ltpFR2	16	10	EGYPT	519	n/a	n/a	0	0	0
2168588	WORD	wordpools/wasnorm_wordpool_576.txt	LTP280	ltpFR2	16	10	ANTLER	29	n/a	n/a	0	0	0
2171108	WORD	wordpools/wasnorm_wordpool_576.txt	LTP280	ltpFR2	16	10	DRINK	498	n/a	n/a	0	0	0
2173777	WORD	wordpools/wasnorm_wordpool_576.txt	LTP280	ltpFR2	16	10	FLASK	576	n/a	n/a	0	0	0
2176512	WORD	wordpools/wasnorm_wordpool_576.txt	LTP280	ltpFR2	16	10	IGLOO	734	n/a	n/a	0	0	0
2179264	WORD	wordpools/wasnorm_wordpool_576.txt	LTP280	ltpFR2	16	10	CAPTIVE	240	n/a	n/a	0	0	0
2181884	WORD	wordpools/wasnorm_wordpool_576.txt	LTP280	ltpFR2	16	10	DASHBOARD	441	n/a	n/a	0	0	0
2184486	WORD	wordpools/wasnorm_wordpool_576.txt	LTP280	ltpFR2	16	10	STICKER	1382	n/a	n/a	0	0	0
2186972	WORD	wordpools/wasnorm_wordpool_576.txt	LTP280	ltpFR2	16	10	DONOR	485	n/a	n/a	0	0	0
2189473	WORD	wordpools/wasnorm_wordpool_576.txt	LTP280	ltpFR2	16	10	THREAD	1460	n/a	n/a	0	0	0
2192043	WORD	wordpools/wasnorm_wordpool_576.txt	LTP280	ltpFR2	16	10	WINDOW	1611	n/a	n/a	0	0	0
2194729	WORD	wordpools/wasnorm_wordpool_576.txt	LTP280	ltpFR2	16	10	DENIM	446	n/a	n/a	0	0	0
2197380	WORD	wordpools/wasnorm_wordpool_576.txt	LTP280	ltpFR2	16	10	BODY	145	n/a	n/a	0	0	0
2200017	WORD	wordpools/wasnorm_wordpool_576.txt	LTP280	ltpFR2	16	10	HEDGE	699	n/a	n/a	0	0	0
2202635	WORD	wordpools/wasnorm_wordpool_576.txt	LTP280	ltpFR2	16	10	SISTER	1312	n/a	n/a	0	0	0
2205454	WORD	wordpools/wasnorm_wordpool_576.txt	LTP280	ltpFR2	16	10	DRILL	497	n/a	n/a	0	0	0
2208256	WORD	wordpools/wasnorm_wordpool_576.txt	LTP280	ltpFR2	16	10	FLOWER	584	n/a	n/a	0	0	0
2211043	WORD	wordpools/wasnorm_wordpool_576.txt	LTP280	ltpFR2	16	10	PLASTER	1085	n/a	n/a	0	0	0
2213594	WORD	wordpools/wasnorm_wordpool_576.txt	LTP280	ltpFR2	16	10	PLIERS	1089	n/a	n/a	0	0	0
2216031	WORD	wordpools/wasnorm_wordpool_576.txt	LTP280	ltpFR2	16	10	HEART	697	n/a	n/a	0	0	0
2218465	WORD	wordpools/wasnorm_wordpool_576.txt	LTP280	ltpFR2	16	10	MOP	916	n/a	n/a	0	0	0
2221118	WORD	wordpools/wasnorm_wordpool_576.txt	LTP280	ltpFR2	16	10	PUDDING	1139	n/a	n/a	0	0	0
2223586	WORD	wordpools/wasnorm_wordpool_576.txt	LTP280	ltpFR2	16	10	NURSE	963	n/a	n/a	0	0	0
2225188	START	n/a	LTP280	ltpFR2	16	n/a	n/a	n/a	16	n/a	n/a	n/a	n/a
2226327	DISTRACTOR	n/a	LTP280	ltpFR2	16	10	n/a	n/a	n/a	n/a	0	0	0
2226339	PROB	n/a	LTP280	ltpFR2	16	n/a	n/a	n/a	16	18	6	3	9
2227606	PROB	n/a	LTP280	ltpFR2	16	n/a	n/a	n/a	16	17	3	6	8
2229059	PROB	n/a	LTP280	ltpFR2	16	n/a	n/a	n/a	16	16	5	4	8
2230475	PROB	n/a	LTP280	ltpFR2	16	n/a	n/a	n/a	16	11	2	3	6
2232577	PROB	n/a	LTP280	ltpFR2	16	n/a	n/a	n/a	16	19	8	3	8
2233946	PROB	n/a	LTP280	ltpFR2	16	n/a	n/a	n/a	16	26	8	9	9
2236581	PROB	n/a	LTP280	ltpFR2	16	n/a	n/a	n/a	16	8	4	2	2
2237716	PROB	n/a	LTP280	ltpFR2	16	n/a	n/a	n/a	16	16	4	3	8
2239600	PROB	n/a	LTP280	ltpFR2	16	n/a	n/a	n/a	16	21	5	8	8
2240986	PROB	n/a	LTP280	ltpFR2	16	n/a	n/a	n/a	16	17	7	8	2
2242170	PROB	n/a	LTP280	ltpFR2	16	n/a	n/a	n/a	16	16	3	5	8
2243387	PROB	n/a	LTP280	ltpFR2	16	n/a	n/a	n/a	16	19	9	4	6
2244772	PROB	n/a	LTP280	ltpFR2	16	n/a	n/a	n/a	16	13	3	2	8
2245973	PROB	n/a	LTP280	ltpFR2	16	n/a	n/a	n/a	16	13	8	3	2
2247158	PROB	n/a	LTP280	ltpFR2	16	n/a	n/a	n/a	16	17	7	8	2
2248515	STOP	n/a	LTP280	ltpFR2	16	n/a	n/a	n/a	16	n/a	n/a	n/a	n/a
2251112	REC_START	n/a	LTP280	ltpFR2	16	10	n/a	n/a	n/a	n/a	0	0	0
2251333	REC_WORD	wordpools/wasnorm_wordpool_576.txt	LTP280	ltpFR2	16	10	PLASTER	1085	n/a	n/a	0	0	0
2252128	REC_WORD	wordpools/wasnorm_wordpool_576.txt	LTP280	ltpFR2	16	10	PLIERS	1089	n/a	n/a	0	0	0
2252869	REC_WORD	wordpools/wasnorm_wordpool_576.txt	LTP280	ltpFR2	16	10	DONOR	485	n/a	n/a	0	0	0
2253561	REC_WORD	wordpools/wasnorm_wordpool_576.txt	LTP280	ltpFR2	16	10	STICKER	1382	n/a	n/a	0	0	0
2254818	REC_WORD	wordpools/wasnorm_wordpool_576.txt	LTP280	ltpFR2	16	10	NURSE	963	n/a	n/a	0	0	0
2255585	REC_WORD	wordpools/wasnorm_wordpool_576.txt	LTP280	ltpFR2	16	10	PUDDING	1139	n/a	n/a	0	0	0
2260966	REC_WORD	wordpools/wasnorm_wordpool_576.txt	LTP280	ltpFR2	16	10	CAPTIVE	240	n/a	n/a	0	0	0
2261742	REC_WORD	wordpools/wasnorm_wordpool_576.txt	LTP280	ltpFR2	16	10	IGLOO	734	n/a	n/a	0	0	0
2264924	REC_WORD	wordpools/wasnorm_wordpool_576.txt	LTP280	ltpFR2	16	10	EGYPT	519	n/a	n/a	0	0	0
2265518	REC_WORD	wordpools/wasnorm_wordpool_576.txt	LTP280	ltpFR2	16	10	SPHINX	1349	n/a	n/a	0	0	0
2271594	REC_WORD	wordpools/wasnorm_wordpool_576.txt	LTP280	ltpFR2	16	10	ANTLER	29	n/a	n/a	0	0	0
2278063	REC_WORD	wordpools/wasnorm_wordpool_576.txt	LTP280	ltpFR2	16	10	MOP	916	n/a	n/a	0	0	0
2341707	WORD	wordpools/wasnorm_wordpool_576.txt	LTP280	ltpFR2	16	11	FOREST	593	n/a	n/a	0	0	0
2344291	WORD	wordpools/wasnorm_wordpool_576.txt	LTP280	ltpFR2	16	11	LILY	821	n/a	n/a	0	0	0
2346878	WORD	wordpools/wasnorm_wordpool_576.txt	LTP280	ltpFR2	16	11	CONCERT	360	n/a	n/a	0	0	0
2349563	WORD	wordpools/wasnorm_wordpool_576.txt	LTP280	ltpFR2	16	11	HAMPER	682	n/a	n/a	0	0	0
2352298	WORD	wordpools/wasnorm_wordpool_576.txt	LTP280	ltpFR2	16	11	CHILD	299	n/a	n/a	0	0	0
2354768	WORD	wordpools/wasnorm_wordpool_576.txt	LTP280	ltpFR2	16	11	GUITAR	670	n/a	n/a	0	0	0
2357470	WORD	wordpools/wasnorm_wordpool_576.txt	LTP280	ltpFR2	16	11	BANJO	82	n/a	n/a	0	0	0
2360023	WORD	wordpools/wasnorm_wordpool_576.txt	LTP280	ltpFR2	16	11	LADY	794	n/a	n/a	0	0	0
2362708	WORD	wordpools/wasnorm_wordpool_576.txt	LTP280	ltpFR2	16	11	COIN	343	n/a	n/a	0	0	0
2365326	WORD	wordpools/wasnorm_wordpool_576.txt	LTP280	ltpFR2	16	11	REBEL	1172	n/a	n/a	0	0	0
2367963	WORD	wordpools/wasnorm_wordpool_576.txt	LTP280	ltpFR2	16	11	FLUTE	585	n/a	n/a	0	0	0
2370664	WORD	wordpools/wasnorm_wordpool_576.txt	LTP280	ltpFR2	16	11	OUTDOORS	987	n/a	n/a	0	0	0
2373450	WORD	wordpools/wasnorm_wordpool_576.txt	LTP280	ltpFR2	16	11	SOFTBALL	1343	n/a	n/a	0	0	0
2376253	WORD	wordpools/wasnorm_wordpool_576.txt	LTP280	ltpFR2	16	11	RACKET	1155	n/a	n/a	0	0	0
2379089	WORD	wordpools/wasnorm_wordpool_576.txt	LTP280	ltpFR2	16	11	PRIMATE	1123	n/a	n/a	0	0	0
2381692	WORD	wordpools/wasnorm_wordpool_576.txt	LTP280	ltpFR2	16	11	TREAT	1501	n/a	n/a	0	0	0
2384510	WORD	wordpools/wasnorm_wordpool_576.txt	LTP280	ltpFR2	16	11	EUROPE	541	n/a	n/a	0	0	0
2387130	WORD	wordpools/wasnorm_wordpool_576.txt	LTP280	ltpFR2	16	11	PERFUME	1049	n/a	n/a	0	0	0
2389581	WORD	wordpools/wasnorm_wordpool_576.txt	LTP280	ltpFR2	16	11	ARM	38	n/a	n/a	0	0	0
2392167	WORD	wordpools/wasnorm_wordpool_576.txt	LTP280	ltpFR2	16	11	SALMON	1227	n/a	n/a	0	0	0
2394970	WORD	wordpools/wasnorm_wordpool_576.txt	LTP280	ltpFR2	16	11	RIVER	1194	n/a	n/a	0	0	0
2397655	WORD	wordpools/wasnorm_wordpool_576.txt	LTP280	ltpFR2	16	11	PIANO	1057	n/a	n/a	0	0	0
2400257	WORD	wordpools/wasnorm_wordpool_576.txt	LTP280	ltpFR2	16	11	CLOTHES	327	n/a	n/a	0	0	0
2402793	WORD	wordpools/wasnorm_wordpool_576.txt	LTP280	ltpFR2	16	11	BUREAU	199	n/a	n/a	0	0	0
2404410	START	n/a	LTP280	ltpFR2	16	n/a	n/a	n/a	17	n/a	n/a	n/a	n/a
2405292	DISTRACTOR	n/a	LTP280	ltpFR2	16	11	n/a	n/a	n/a	n/a	0	0	0
2405311	PROB	n/a	LTP280	ltpFR2	16	n/a	n/a	n/a	17	8	1	5	2
2406345	PROB	n/a	LTP280	ltpFR2	16	n/a	n/a	n/a	17	10	2	4	4
2407663	PROB	n/a	LTP280	ltpFR2	16	n/a	n/a	n/a	17	16	4	7	5
2408765	PROB	n/a	LTP280	ltpFR2	16	n/a	n/a	n/a	17	14	7	4	3
2409966	PROB	n/a	LTP280	ltpFR2	16	n/a	n/a	n/a	17	23	9	7	7
2411985	PROB	n/a	LTP280	ltpFR2	16	n/a	n/a	n/a	17	15	7	7	1
2413753	PROB	n/a	LTP280	ltpFR2	16	n/a	n/a	n/a	17	17	8	5	4
2415004	PROB	n/a	LTP280	ltpFR2	16	n/a	n/a	n/a	17	12	1	6	5
2415971	PROB	n/a	LTP280	ltpFR2	16	n/a	n/a	n/a	17	17	7	1	9
2417139	PROB	n/a	LTP280	ltpFR2	16	n/a	n/a	n/a	17	14	5	8	1
2418239	PROB	n/a	LTP280	ltpFR2	16	n/a	n/a	n/a	17	12	1	9	2
2419775	PROB	n/a	LTP280	ltpFR2	16	n/a	n/a	n/a	17	11	2	3	6
2420959	PROB	n/a	LTP280	ltpFR2	16	n/a	n/a	n/a	17	23	8	8	7
2422476	PROB	n/a	LTP280	ltpFR2	16	n/a	n/a	n/a	17	8	5	2	1
2423427	PROB	n/a	LTP280	ltpFR2	16	n/a	n/a	n/a	17	7	1	3	3
2424528	PROB	n/a	LTP280	ltpFR2	16	n/a	n/a	n/a	17	10	2	3	5
2425579	PROB	n/a	LTP280	ltpFR2	16	n/a	n/a	n/a	17	11	9	1	1
2426446	PROB	n/a	LTP280	ltpFR2	16	n/a	n/a	n/a	17	19	4	3	2
2427979	STOP	n/a	LTP280	ltpFR2	16	n/a	n/a	n/a	17	n/a	n/a	n/a	n/a
2430250	REC_START	n/a	LTP280	ltpFR2	16	11	n/a	n/a	n/a	n/a	0	0	0
2430664	REC_WORD	wordpools/wasnorm_wordpool_576.txt	LTP280	ltpFR2	16	11	PRIMATE	1123	n/a	n/a	0	0	0
2431293	REC_WORD	wordpools/wasnorm_wordpool_576.txt	LTP280	ltpFR2	16	11	BANJO	82	n/a	n/a	0	0	0
2432425	REC_WORD	wordpools/wasnorm_wordpool_576.txt	LTP280	ltpFR2	16	11	TREAT	1501	n/a	n/a	0	0	0
2432916	REC_WORD	wordpools/wasnorm_wordpool_576.txt	LTP280	ltpFR2	16	11	FLUTE	585	n/a	n/a	0	0	0
2433386	REC_WORD	wordpools/wasnorm_wordpool_576.txt	LTP280	ltpFR2	16	11	OUTDOORS	987	n/a	n/a	0	0	0
2434808	REC_WORD	wordpools/wasnorm_wordpool_576.txt	LTP280	ltpFR2	16	11	PIANO	1057	n/a	n/a	0	0	0
2436558	REC_WORD	wordpools/wasnorm_wordpool_576.txt	LTP280	ltpFR2	16	11	BUREAU	199	n/a	n/a	0	0	0
2543231	WORD	wordpools/wasnorm_wordpool_576.txt	LTP280	ltpFR2	16	12	BALLOON	75	n/a	n/a	0	0	0
2545951	WORD	wordpools/wasnorm_wordpool_576.txt	LTP280	ltpFR2	16	12	BUBBLE	183	n/a	n/a	0	0	0
2548720	WORD	wordpools/wasnorm_wordpool_576.txt	LTP280	ltpFR2	16	12	FRAME	600	n/a	n/a	0	0	0
2551338	WORD	wordpools/wasnorm_wordpool_576.txt	LTP280	ltpFR2	16	12	BRACES	164	n/a	n/a	0	0	0
2554075	WORD	wordpools/wasnorm_wordpool_576.txt	LTP280	ltpFR2	16	12	DIME	466	n/a	n/a	0	0	0
2556560	WORD	wordpools/wasnorm_wordpool_576.txt	LTP280	ltpFR2	16	12	PECAN	1036	n/a	n/a	0	0	0
2559080	WORD	wordpools/wasnorm_wordpool_576.txt	LTP280	ltpFR2	16	12	TERMITE	1451	n/a	n/a	0	0	0
2561865	WORD	wordpools/wasnorm_wordpool_576.txt	LTP280	ltpFR2	16	12	JURY	766	n/a	n/a	0	0	0
2564417	WORD	wordpools/wasnorm_wordpool_576.txt	LTP280	ltpFR2	16	12	PORTRAIT	1111	n/a	n/a	0	0	0
2566970	WORD	wordpools/wasnorm_wordpool_576.txt	LTP280	ltpFR2	16	12	CONTRACT	368	n/a	n/a	0	0	0
2569404	WORD	wordpools/wasnorm_wordpool_576.txt	LTP280	ltpFR2	16	12	HELMET	702	n/a	n/a	0	0	0
2572174	WORD	wordpools/wasnorm_wordpool_576.txt	LTP280	ltpFR2	16	12	BUG	187	n/a	n/a	0	0	0
2574893	WORD	wordpools/wasnorm_wordpool_576.txt	LTP280	ltpFR2	16	12	BLADE	134	n/a	n/a	0	0	0
2577561	WORD	wordpools/wasnorm_wordpool_576.txt	LTP280	ltpFR2	16	12	TROMBONE	1508	n/a	n/a	0	0	0
2580081	WORD	wordpools/wasnorm_wordpool_576.txt	LTP280	ltpFR2	16	12	SCRIBBLE	1256	n/a	n/a	0	0	0
2582767	WORD	wordpools/wasnorm_wordpool_576.txt	LTP280	ltpFR2	16	12	BUTCHER	203	n/a	n/a	0	0	0
2585451	WORD	wordpools/wasnorm_wordpool_576.txt	LTP280	ltpFR2	16	12	GRAPE	654	n/a	n/a	0	0	0
2588204	WORD	wordpools/wasnorm_wordpool_576.txt	LTP280	ltpFR2	16	12	CREATURE	403	n/a	n/a	0	0	0
2590991	WORD	wordpools/wasnorm_wordpool_576.txt	LTP280	ltpFR2	16	12	DRIVER	499	n/a	n/a	0	0	0
2593826	WORD	wordpools/wasnorm_wordpool_576.txt	LTP280	ltpFR2	16	12	JOURNAL	760	n/a	n/a	0	0	0
2596494	WORD	wordpools/wasnorm_wordpool_576.txt	LTP280	ltpFR2	16	12	POET	1095	n/a	n/a	0	0	0
2599148	WORD	wordpools/wasnorm_wordpool_576.txt	LTP280	ltpFR2	16	12	BLUEPRINT	142	n/a	n/a	0	0	0
2601616	WORD	wordpools/wasnorm_wordpool_576.txt	LTP280	ltpFR2	16	12	SLUG	1329	n/a	n/a	0	0	0
2604119	WORD	wordpools/wasnorm_wordpool_576.txt	LTP280	ltpFR2	16	12	TURTLE	1522	n/a	n/a	0	0	0
2605737	START	n/a	LTP280	ltpFR2	16	n/a	n/a	n/a	18	n/a	n/a	n/a	n/a
2606747	DISTRACTOR	n/a	LTP280	ltpFR2	16	12	n/a	n/a	n/a	n/a	0	0	0
2606771	PROB	n/a	LTP280	ltpFR2	16	n/a	n/a	n/a	18	15	1	5	9
2607755	PROB	n/a	LTP280	ltpFR2	16	n/a	n/a	n/a	18	17	2	6	9
2609439	PROB	n/a	LTP280	ltpFR2	16	n/a	n/a	n/a	18	22	9	6	7
2610691	PROB	n/a	LTP280	ltpFR2	16	n/a	n/a	n/a	18	19	5	9	5
2612225	PROB	n/a	LTP280	ltpFR2	16	n/a	n/a	n/a	18	10	1	6	3
2613209	PROB	n/a	LTP280	ltpFR2	16	n/a	n/a	n/a	18	16	6	3	7
2614510	PROB	n/a	LTP280	ltpFR2	16	n/a	n/a	n/a	18	5	1	2	2
2615294	PROB	n/a	LTP280	ltpFR2	16	n/a	n/a	n/a	18	12	6	3	3
2616863	PROB	n/a	LTP280	ltpFR2	16	n/a	n/a	n/a	18	9	2	5	2
2619782	PROB	n/a	LTP280	ltpFR2	16	n/a	n/a	n/a	18	19	9	7	3
2621117	PROB	n/a	LTP280	ltpFR2	16	n/a	n/a	n/a	18	8	1	1	6
2621968	PROB	n/a	LTP280	ltpFR2	16	n/a	n/a	n/a	18	7	1	4	2
2623169	PROB	n/a	LTP280	ltpFR2	16	n/a	n/a	n/a	18	19	3	8	8
2624502	PROB	n/a	LTP280	ltpFR2	16	n/a	n/a	n/a	18	23	5	9	9
2625888	PROB	n/a	LTP280	ltpFR2	16	n/a	n/a	n/a	18	21	7	6	8
2627188	PROB	n/a	LTP280	ltpFR2	16	n/a	n/a	n/a	18	12	7	1	4
2628222	PROB	n/a	LTP280	ltpFR2	16	n/a	n/a	n/a	18	19	3	7	9
2629258	STOP	n/a	LTP280	ltpFR2	16	n/a	n/a	n/a	18	n/a	n/a	n/a	n/a
2631676	REC_START	n/a	LTP280	ltpFR2	16	12	n/a	n/a	n/a	n/a	0	0	0
2632002	REC_WORD	wordpools/wasnorm_wordpool_576.txt	LTP280	ltpFR2	16	12	BALLOON	75	n/a	n/a	0	0	0
2632725	REC_WORD	wordpools/wasnorm_wordpool_576.txt	LTP280	ltpFR2	16	12	BUBBLE	183	n/a	n/a	0	0	0
2636048	REC_WORD	wordpools/wasnorm_wordpool_576.txt	LTP280	ltpFR2	16	12	BUG	187	n/a	n/a	0	0	0
2641343	REC_WORD	wordpools/wasnorm_wordpool_576.txt	LTP280	ltpFR2	16	12	BLADE	134	n/a	n/a	0	0	0
2642096	REC_WORD	wordpools/wasnorm_wordpool_576.txt	LTP280	ltpFR2	16	12	BUTCHER	203	n/a	n/a	0	0	0
2655415	REC_WORD	wordpools/wasnorm_wordpool_576.txt	LTP280	ltpFR2	16	12	BLUEPRINT	142	n/a	n/a	0	0	0
2796987	DISTRACTOR	n/a	LTP280	ltpFR2	16	13	n/a	n/a	n/a	n/a	0	0	0
2796987	START	n/a	LTP280	ltpFR2	16	n/a	n/a	n/a	19	n/a	n/a	n/a	n/a
2797003	PROB	n/a	LTP280	ltpFR2	16	n/a	n/a	n/a	19	12	4	3	5
2798620	PROB	n/a	LTP280	ltpFR2	16	n/a	n/a	n/a	19	13	6	1	7
2799671	PROB	n/a	LTP280	ltpFR2	16	n/a	n/a	n/a	19	22	7	9	6
2801623	PROB	n/a	LTP280	ltpFR2	16	n/a	n/a	n/a	19	11	3	6	2
2802657	PROB	n/a	LTP280	ltpFR2	16	n/a	n/a	n/a	19	15	7	4	3
2803776	PROB	n/a	LTP280	ltpFR2	16	n/a	n/a	n/a	19	20	8	8	4
2805144	PROB	n/a	LTP280	ltpFR2	16	n/a	n/a	n/a	19	12	3	1	8
2806128	PROB	n/a	LTP280	ltpFR2	16	n/a	n/a	n/a	19	7	3	1	3
2807245	PROB	n/a	LTP280	ltpFR2	16	n/a	n/a	n/a	19	19	4	9	6
2808663	PROB	n/a	LTP280	ltpFR2	16	n/a	n/a	n/a	19	15	1	9	5
2809630	PROB	n/a	LTP280	ltpFR2	16	n/a	n/a	n/a	19	12	2	5	5
2810699	PROB	n/a	LTP280	ltpFR2	16	n/a	n/a	n/a	19	10	2	3	5
2811950	PROB	n/a	LTP280	ltpFR2	16	n/a	n/a	n/a	19	20	8	7	5
2813350	PROB	n/a	LTP280	ltpFR2	16	n/a	n/a	n/a	19	18	8	7	3
2814852	PROB	n/a	LTP280	ltpFR2	16	n/a	n/a	n/a	19	19	3	9	7
2816286	PROB	n/a	LTP280	ltpFR2	16	n/a	n/a	n/a	19	16	6	2	8
2817470	PROB	n/a	LTP280	ltpFR2	16	n/a	n/a	n/a	19	21	9	4	8
2818856	PROB	n/a	LTP280	ltpFR2	16	n/a	n/a	n/a	19	15	2	6	7
2820186	STOP	n/a	LTP280	ltpFR2	16	n/a	n/a	n/a	19	n/a	n/a	n/a	n/a
2822191	WORD	wordpools/wasnorm_wordpool_576.txt	LTP280	ltpFR2	16	13	KEEPER	769	n/a	n/a	0	0	0
2824778	WORD	wordpools/wasnorm_wordpool_576.txt	LTP280	ltpFR2	16	13	SERVANT	1271	n/a	n/a	0	0	0
2827546	WORD	wordpools/wasnorm_wordpool_576.txt	LTP280	ltpFR2	16	13	WITNESS	1618	n/a	n/a	0	0	0
2830116	WORD	wordpools/wasnorm_wordpool_576.txt	LTP280	ltpFR2	16	13	KITCHEN	778	n/a	n/a	0	0	0
2832583	WORD	wordpools/wasnorm_wordpool_576.txt	LTP280	ltpFR2	16	13	ORANGE	980	n/a	n/a	0	0	0
2835369	WORD	wordpools/wasnorm_wordpool_576.txt	LTP280	ltpFR2	16	13	TILE	1468	n/a	n/a	0	0	0
2837956	WORD	wordpools/wasnorm_wordpool_576.txt	LTP280	ltpFR2	16	13	HORNET	718	n/a	n/a	0	0	0
2840741	WORD	wordpools/wasnorm_wordpool_576.txt	LTP280	ltpFR2	16	13	INFANT	737	n/a	n/a	0	0	0
2843209	WORD	wordpools/wasnorm_wordpool_576.txt	LTP280	ltpFR2	16	13	PLAYGROUND	1087	n/a	n/a	0	0	0
2845729	WORD	wordpools/wasnorm_wordpool_576.txt	LTP280	ltpFR2	16	13	GAZELLE	628	n/a	n/a	0	0	0
2848280	WORD	wordpools/wasnorm_wordpool_576.txt	LTP280	ltpFR2	16	13	ONION	977	n/a	n/a	0	0	0
2850800	WORD	wordpools/wasnorm_wordpool_576.txt	LTP280	ltpFR2	16	13	CUSTARD	429	n/a	n/a	0	0	0
2853635	WORD	wordpools/wasnorm_wordpool_576.txt	LTP280	ltpFR2	16	13	OUTFIT	988	n/a	n/a	0	0	0
2856187	WORD	wordpools/wasnorm_wordpool_576.txt	LTP280	ltpFR2	16	13	CLOCK	325	n/a	n/a	0	0	0
2859007	WORD	wordpools/wasnorm_wordpool_576.txt	LTP280	ltpFR2	16	13	JUDGE	761	n/a	n/a	0	0	0
2861710	WORD	wordpools/wasnorm_wordpool_576.txt	LTP280	ltpFR2	16	13	KNIFE	785	n/a	n/a	0	0	0
2864478	WORD	wordpools/wasnorm_wordpool_576.txt	LTP280	ltpFR2	16	13	APPLE	33	n/a	n/a	0	0	0
2867230	WORD	wordpools/wasnorm_wordpool_576.txt	LTP280	ltpFR2	16	13	BOUQUET	157	n/a	n/a	0	0	0
2869733	WORD	wordpools/wasnorm_wordpool_576.txt	LTP280	ltpFR2	16	13	SHELTER	1282	n/a	n/a	0	0	0
2872418	WORD	wordpools/wasnorm_wordpool_576.txt	LTP280	ltpFR2	16	13	FLASHLIGHT	575	n/a	n/a	0	0	0
2875221	WORD	wordpools/wasnorm_wordpool_576.txt	LTP280	ltpFR2	16	13	BOX	159	n/a	n/a	0	0	0
2877941	WORD	wordpools/wasnorm_wordpool_576.txt	LTP280	ltpFR2	16	13	GIFT	635	n/a	n/a	0	0	0
2880542	WORD	wordpools/wasnorm_wordpool_576.txt	LTP280	ltpFR2	16	13	ELBOW	520	n/a	n/a	0	0	0
2883261	WORD	wordpools/wasnorm_wordpool_576.txt	LTP280	ltpFR2	16	13	WRIST	1626	n/a	n/a	0	0	0
2884880	START	n/a	LTP280	ltpFR2	16	n/a	n/a	n/a	20	n/a	n/a	n/a	n/a
2885932	DISTRACTOR	n/a	LTP280	ltpFR2	16	13	n/a	n/a	n/a	n/a	0	0	0
2885948	PROB	n/a	LTP280	ltpFR2	16	n/a	n/a	n/a	20	7	1	1	5
2886998	PROB	n/a	LTP280	ltpFR2	16	n/a	n/a	n/a	20	19	5	5	9
2888282	PROB	n/a	LTP280	ltpFR2	16	n/a	n/a	n/a	20	9	2	2	5
2889316	PROB	n/a	LTP280	ltpFR2	16	n/a	n/a	n/a	20	17	2	9	6
2890768	PROB	n/a	LTP280	ltpFR2	16	n/a	n/a	n/a	20	11	4	1	6
2891786	PROB	n/a	LTP280	ltpFR2	16	n/a	n/a	n/a	20	11	9	1	1
2892904	PROB	n/a	LTP280	ltpFR2	16	n/a	n/a	n/a	20	14	6	1	7
2893938	PROB	n/a	LTP280	ltpFR2	16	n/a	n/a	n/a	20	15	5	1	9
2895056	PROB	n/a	LTP280	ltpFR2	16	n/a	n/a	n/a	20	9	2	7	2
2897791	PROB	n/a	LTP280	ltpFR2	16	n/a	n/a	n/a	20	13	5	6	2
2899026	PROB	n/a	LTP280	ltpFR2	16	n/a	n/a	n/a	20	16	8	5	3
2900242	PROB	n/a	LTP280	ltpFR2	16	n/a	n/a	n/a	20	14	5	3	6
2902194	PROB	n/a	LTP280	ltpFR2	16	n/a	n/a	n/a	20	20	4	7	9
2904063	PROB	n/a	LTP280	ltpFR2	16	n/a	n/a	n/a	20	14	7	6	1
2905081	PROB	n/a	LTP280	ltpFR2	16	n/a	n/a	n/a	20	13	4	6	3
2906181	PROB	n/a	LTP280	ltpFR2	16	n/a	n/a	n/a	20	15	4	3	8
2907349	STOP	n/a	LTP280	ltpFR2	16	n/a	n/a	n/a	20	n/a	n/a	n/a	n/a
2910786	REC_START	n/a	LTP280	ltpFR2	16	13	n/a	n/a	n/a	n/a	0	0	0
2910984	REC_WORD	wordpools/wasnorm_wordpool_576.txt	LTP280	ltpFR2	16	13	GIFT	635	n/a	n/a	0	0	0
2911671	REC_WORD	wordpools/wasnorm_wordpool_576.txt	LTP280	ltpFR2	16	13	ELBOW	520	n/a	n/a	0	0	0
2912507	REC_WORD	wordpools/wasnorm_wordpool_576.txt	LTP280	ltpFR2	16	13	WRIST	1626	n/a	n/a	0	0	0
2914028	REC_WORD	wordpools/wasnorm_wordpool_576.txt	LTP280	ltpFR2	16	13	BOUQUET	157	n/a	n/a	0	0	0
2916647	REC_WORD_VV	wordpools/wasnorm_wordpool_576.txt	LTP280	ltpFR2	16	13	<>	-1	n/a	n/a	0	0	0
2918363	REC_WORD	wordpools/wasnorm_wordpool_576.txt	LTP280	ltpFR2	16	13	ORANGE	980	n/a	n/a	0	0	0
2918948	REC_WORD	wordpools/wasnorm_wordpool_576.txt	LTP280	ltpFR2	16	13	KITCHEN	778	n/a	n/a	0	0	0
2919629	REC_WORD	wordpools/wasnorm_wordpool_576.txt	LTP280	ltpFR2	16	13	TILE	1468	n/a	n/a	0	0	0
2920821	REC_WORD	wordpools/wasnorm_wordpool_576.txt	LTP280	ltpFR2	16	13	APPLE	33	n/a	n/a	0	0	0
2921375	REC_WORD	wordpools/wasnorm_wordpool_576.txt	LTP280	ltpFR2	16	13	ONION	977	n/a	n/a	0	0	0
2922066	REC_WORD	wordpools/wasnorm_wordpool_576.txt	LTP280	ltpFR2	16	13	CUSTARD	429	n/a	n/a	0	0	0
2926122	REC_WORD	wordpools/wasnorm_wordpool_576.txt	LTP280	ltpFR2	16	13	INFANT	737	n/a	n/a	0	0	0
2926687	REC_WORD	wordpools/wasnorm_wordpool_576.txt	LTP280	ltpFR2	16	13	PLAYGROUND	1087	n/a	n/a	0	0	0
2927698	REC_WORD	wordpools/wasnorm_wordpool_576.txt	LTP280	ltpFR2	16	13	KNIFE	785	n/a	n/a	0	0	0
2932082	REC_WORD	wordpools/wasnorm_wordpool_576.txt	LTP280	ltpFR2	16	13	WITNESS	1618	n/a	n/a	0	0	0
2932973	REC_WORD	wordpools/wasnorm_wordpool_576.txt	LTP280	ltpFR2	16	13	HORNET	718	n/a	n/a	0	0	0
2933922	REC_WORD	wordpools/wasnorm_wordpool_576.txt	LTP280	ltpFR2	16	13	BABY	64	n/a	n/a	0	0	0
3001264	WORD	wordpools/wasnorm_wordpool_576.txt	LTP280	ltpFR2	16	14	MUFFIN	929	n/a	n/a	0	0	0
3003717	WORD	wordpools/wasnorm_wordpool_576.txt	LTP280	ltpFR2	16	14	PLAID	1080	n/a	n/a	0	0	0
3006169	WORD	wordpools/wasnorm_wordpool_576.txt	LTP280	ltpFR2	16	14	GOBLIN	645	n/a	n/a	0	0	0
3008971	WORD	wordpools/wasnorm_wordpool_576.txt	LTP280	ltpFR2	16	14	MASK	876	n/a	n/a	0	0	0
3011506	WORD	wordpools/wasnorm_wordpool_576.txt	LTP280	ltpFR2	16	14	BRANDY	169	n/a	n/a	0	0	0
3013959	WORD	wordpools/wasnorm_wordpool_576.txt	LTP280	ltpFR2	16	14	CHAMPAGNE	278	n/a	n/a	0	0	0
3016527	WORD	wordpools/wasnorm_wordpool_576.txt	LTP280	ltpFR2	16	14	SUMMIT	1405	n/a	n/a	0	0	0
3018997	WORD	wordpools/wasnorm_wordpool_576.txt	LTP280	ltpFR2	16	14	GAVEL	627	n/a	n/a	0	0	0
3021766	WORD	wordpools/wasnorm_wordpool_576.txt	LTP280	ltpFR2	16	14	STATUE	1374	n/a	n/a	0	0	0
3024417	WORD	wordpools/wasnorm_wordpool_576.txt	LTP280	ltpFR2	16	14	SALT	1229	n/a	n/a	0	0	0
3026937	WORD	wordpools/wasnorm_wordpool_576.txt	LTP280	ltpFR2	16	14	BARLEY	88	n/a	n/a	0	0	0
3029588	WORD	wordpools/wasnorm_wordpool_576.txt	LTP280	ltpFR2	16	14	BLOUSE	139	n/a	n/a	0	0	0
3032175	WORD	wordpools/wasnorm_wordpool_576.txt	LTP280	ltpFR2	16	14	PUDDLE	1140	n/a	n/a	0	0	0
3034961	WORD	wordpools/wasnorm_wordpool_576.txt	LTP280	ltpFR2	16	14	LODGE	839	n/a	n/a	0	0	0
3037512	WORD	wordpools/wasnorm_wordpool_576.txt	LTP280	ltpFR2	16	14	JELLO	754	n/a	n/a	0	0	0
3040065	WORD	wordpools/wasnorm_wordpool_576.txt	LTP280	ltpFR2	16	14	SCALLOP	1242	n/a	n/a	0	0	0
3042583	WORD	wordpools/wasnorm_wordpool_576.txt	LTP280	ltpFR2	16	14	RECEIPT	1173	n/a	n/a	0	0	0
3045385	WORD	wordpools/wasnorm_wordpool_576.txt	LTP280	ltpFR2	16	14	XEROX	1628	n/a	n/a	0	0	0
3047922	WORD	wordpools/wasnorm_wordpool_576.txt	LTP280	ltpFR2	16	14	COTTAGE	384	n/a	n/a	0	0	0
3050573	WORD	wordpools/wasnorm_wordpool_576.txt	LTP280	ltpFR2	16	14	MAILBOX	857	n/a	n/a	0	0	0
3053110	WORD	wordpools/wasnorm_wordpool_576.txt	LTP280	ltpFR2	16	14	IDOL	733	n/a	n/a	0	0	0
3055829	WORD	wordpools/wasnorm_wordpool_576.txt	LTP280	ltpFR2	16	14	CLAM	315	n/a	n/a	0	0	0
3058530	WORD	wordpools/wasnorm_wordpool_576.txt	LTP280	ltpFR2	16	14	HUMAN	726	n/a	n/a	0	0	0
3061000	WORD	wordpools/wasnorm_wordpool_576.txt	LTP280	ltpFR2	16	14	DUST	508	n/a	n/a	0	0	0
3062617	START	n/a	LTP280	ltpFR2	16	n/a	n/a	n/a	21	n/a	n/a	n/a	n/a
3063702	DISTRACTOR	n/a	LTP280	ltpFR2	16	14	n/a	n/a	n/a	n/a	0	0	0
3063719	PROB	n/a	LTP280	ltpFR2	16	n/a	n/a	n/a	21	14	1	5	8
3064770	PROB	n/a	LTP280	ltpFR2	16	n/a	n/a	n/a	21	15	3	5	7
3066304	PROB	n/a	LTP280	ltpFR2	16	n/a	n/a	n/a	21	15	1	8	6
3067438	PROB	n/a	LTP280	ltpFR2	16	n/a	n/a	n/a	21	11	2	6	3
3068823	PROB	n/a	LTP280	ltpFR2	16	n/a	n/a	n/a	21	20	4	7	9
3069925	PROB	n/a	LTP280	ltpFR2	16	n/a	n/a	n/a	21	9	3	1	5
3071009	PROB	n/a	LTP280	ltpFR2	16	n/a	n/a	n/a	21	11	3	4	4
3072509	PROB	n/a	LTP280	ltpFR2	16	n/a	n/a	n/a	21	14	2	6	6
3073660	PROB	n/a	LTP280	ltpFR2	16	n/a	n/a	n/a	21	15	5	5	5
3074561	PROB	n/a	LTP280	ltpFR2	16	n/a	n/a	n/a	21	9	5	3	1
3075863	PROB	n/a	LTP280	ltpFR2	16	n/a	n/a	n/a	21	20	6	9	5
3077014	PROB	n/a	LTP280	ltpFR2	16	n/a	n/a	n/a	21	14	5	3	6
3078581	PROB	n/a	LTP280	ltpFR2	16	n/a	n/a	n/a	21	12	3	4	5
3080349	PROB	n/a	LTP280	ltpFR2	16	n/a	n/a	n/a	21	16	7	6	3
3081918	PROB	n/a	LTP280	ltpFR2	16	n/a	n/a	n/a	21	16	8	2	6
3082936	PROB	n/a	LTP280	ltpFR2	16	n/a	n/a	n/a	21	14	6	5	3
3084037	PROB	n/a	LTP280	ltpFR2	16	n/a	n/a	n/a	21	21	8	8	5
3085981	STOP	n/a	LTP280	ltpFR2	16	n/a	n/a	n/a	21	n/a	n/a	n/a	n/a
3088390	REC_START	n/a	LTP280	ltpFR2	16	14	n/a	n/a	n/a	n/a	0	0	0
3088735	REC_WORD	wordpools/wasnorm_wordpool_576.txt	LTP280	ltpFR2	16	14	JELLO	754	n/a	n/a	0	0	0
3089228	REC_WORD	wordpools/wasnorm_wordpool_576.txt	LTP280	ltpFR2	16	14	XEROX	1628	n/a	n/a	0	0	0
3090186	REC_WORD	wordpools/wasnorm_wordpool_576.txt	LTP280	ltpFR2	16	14	COTTAGE	384	n/a	n/a	0	0	0
3090845	REC_WORD	wordpools/wasnorm_wordpool_576.txt	LTP280	ltpFR2	16	14	MAILBOX	857	n/a	n/a	0	0	0
3092246	REC_WORD	wordpools/wasnorm_wordpool_576.txt	LTP280	ltpFR2	16	14	SALT	1229	n/a	n/a	0	0	0
3093194	REC_WORD	wordpools/wasnorm_wordpool_576.txt	LTP280	ltpFR2	16	14	BARLEY	88	n/a	n/a	0	0	0
3094925	REC_WORD	wordpools/wasnorm_wordpool_576.txt	LTP280	ltpFR2	16	14	SUMMIT	1405	n/a	n/a	0	0	0
3179053	WORD	wordpools/wasnorm_wordpool_576.txt	LTP280	ltpFR2	16	15	YOLK	1633	n/a	n/a	0	0	0
3181571	WORD	wordpools/wasnorm_wordpool_576.txt	LTP280	ltpFR2	16	15	SWAMP	1416	n/a	n/a	0	0	0
3184240	WORD	wordpools/wasnorm_wordpool_576.txt	LTP280	ltpFR2	16	15	GRIZZLY	662	n/a	n/a	0	0	0
3187010	WORD	wordpools/wasnorm_wordpool_576.txt	LTP280	ltpFR2	16	15	EMPIRE	530	n/a	n/a	0	0	0
3189829	WORD	wordpools/wasnorm_wordpool_576.txt	LTP280	ltpFR2	16	15	QUEEN	1149	n/a	n/a	0	0	0
3192647	WORD	wordpools/wasnorm_wordpool_576.txt	LTP280	ltpFR2	16	15	ICING	732	n/a	n/a	0	0	0
3195067	WORD	wordpools/wasnorm_wordpool_576.txt	LTP280	ltpFR2	16	15	PERCH	1048	n/a	n/a	0	0	0
3197551	WORD	wordpools/wasnorm_wordpool_576.txt	LTP280	ltpFR2	16	15	VALVE	1546	n/a	n/a	0	0	0
3200055	WORD	wordpools/wasnorm_wordpool_576.txt	LTP280	ltpFR2	16	15	BATHTUB	100	n/a	n/a	0	0	0
3202606	WORD	wordpools/wasnorm_wordpool_576.txt	LTP280	ltpFR2	16	15	COUNTRY	388	n/a	n/a	0	0	0
3205291	WORD	wordpools/wasnorm_wordpool_576.txt	LTP280	ltpFR2	16	15	JAPAN	749	n/a	n/a	0	0	0
3207778	WORD	wordpools/wasnorm_wordpool_576.txt	LTP280	ltpFR2	16	15	BADGE	68	n/a	n/a	0	0	0
3210396	WORD	wordpools/wasnorm_wordpool_576.txt	LTP280	ltpFR2	16	15	COUNTY	389	n/a	n/a	0	0	0
3212866	WORD	wordpools/wasnorm_wordpool_576.txt	LTP280	ltpFR2	16	15	RADISH	1158	n/a	n/a	0	0	0
3215350	WORD	wordpools/wasnorm_wordpool_576.txt	LTP280	ltpFR2	16	15	CAFE	216	n/a	n/a	0	0	0
3217887	WORD	wordpools/wasnorm_wordpool_576.txt	LTP280	ltpFR2	16	15	ROBOT	1200	n/a	n/a	0	0	0
3220638	WORD	wordpools/wasnorm_wordpool_576.txt	LTP280	ltpFR2	16	15	FLEET	578	n/a	n/a	0	0	0
3223257	WORD	wordpools/wasnorm_wordpool_576.txt	LTP280	ltpFR2	16	15	SIDEWALK	1303	n/a	n/a	0	0	0
3225794	WORD	wordpools/wasnorm_wordpool_576.txt	LTP280	ltpFR2	16	15	CROWN	415	n/a	n/a	0	0	0
3228395	WORD	wordpools/wasnorm_wordpool_576.txt	LTP280	ltpFR2	16	15	BUCKET	184	n/a	n/a	0	0	0
3230898	WORD	wordpools/wasnorm_wordpool_576.txt	LTP280	ltpFR2	16	15	ITEM	746	n/a	n/a	0	0	0
3233416	WORD	wordpools/wasnorm_wordpool_576.txt	LTP280	ltpFR2	16	15	GRILL	661	n/a	n/a	0	0	0
3236019	WORD	wordpools/wasnorm_wordpool_576.txt	LTP280	ltpFR2	16	15	TURKEY	1520	n/a	n/a	0	0	0
3238738	WORD	wordpools/wasnorm_wordpool_576.txt	LTP280	ltpFR2	16	15	GHETTO	633	n/a	n/a	0	0	0
3240355	START	n/a	LTP280	ltpFR2	16	n/a	n/a	n/a	22	n/a	n/a	n/a	n/a
3241190	DISTRACTOR	n/a	LTP280	ltpFR2	16	15	n/a	n/a	n/a	n/a	0	0	0
3241206	PROB	n/a	LTP280	ltpFR2	16	n/a	n/a	n/a	22	17	7	2	8
3242775	PROB	n/a	LTP280	ltpFR2	16	n/a	n/a	n/a	22	14	1	8	5
3243876	PROB	n/a	LTP280	ltpFR2	16	n/a	n/a	n/a	22	12	5	3	4
3245543	PROB	n/a	LTP280	ltpFR2	16	n/a	n/a	n/a	22	15	3	7	5
3246594	PROB	n/a	LTP280	ltpFR2	16	n/a	n/a	n/a	22	10	1	7	2
3247645	PROB	n/a	LTP280	ltpFR2	16	n/a	n/a	n/a	22	14	6	6	2
3248679	PROB	n/a	LTP280	ltpFR2	16	n/a	n/a	n/a	22	15	5	6	4
3249748	PROB	n/a	LTP280	ltpFR2	16	n/a	n/a	n/a	22	21	7	6	8
3250999	PROB	n/a	LTP280	ltpFR2	16	n/a	n/a	n/a	22	5	2	1	2
3251833	PROB	n/a	LTP280	ltpFR2	16	n/a	n/a	n/a	22	16	4	5	7
3253034	PROB	n/a	LTP280	ltpFR2	16	n/a	n/a	n/a	22	12	6	3	3
3254301	PROB	n/a	LTP280	ltpFR2	16	n/a	n/a	n/a	22	15	2	6	7
3256037	PROB	n/a	LTP280	ltpFR2	16	n/a	n/a	n/a	22	19	8	5	6
3257287	PROB	n/a	LTP280	ltpFR2	16	n/a	n/a	n/a	22	18	6	5	7
3258571	PROB	n/a	LTP280	ltpFR2	16	n/a	n/a	n/a	22	22	4	9	9
3259840	PROB	n/a	LTP280	ltpFR2	16	n/a	n/a	n/a	22	12	2	7	3
3261108	PROB	n/a	LTP280	ltpFR2	16	n/a	n/a	n/a	22	16	4	3	9
3262491	PROB	n/a	LTP280	ltpFR2	16	n/a	n/a	n/a	22	10	2	3	5
3264012	STOP	n/a	LTP280	ltpFR2	16	n/a	n/a	n/a	22	n/a	n/a	n/a	n/a
3266163	REC_START	n/a	LTP280	ltpFR2	16	15	n/a	n/a	n/a	n/a	0	0	0
3267502	REC_WORD	wordpools/wasnorm_wordpool_576.txt	LTP280	ltpFR2	16	15	TURKEY	1520	n/a	n/a	0	0	0
3268440	REC_WORD	wordpools/wasnorm_wordpool_576.txt	LTP280	ltpFR2	16	15	GHETTO	633	n/a	n/a	0	0	0
3273379	REC_WORD	wordpools/wasnorm_wordpool_576.txt	LTP280	ltpFR2	16	15	ROBOT	1200	n/a	n/a	0	0	0
3274404	REC_WORD_VV	wordpools/wasnorm_wordpool_576.txt	LTP280	ltpFR2	16	15	<>	-1	n/a	n/a	0	0	0
3274839	REC_WORD_VV	wordpools/wasnorm_wordpool_576.txt	LTP280	ltpFR2	16	15	<>	-1	n/a	n/a	0	0	0
3275147	REC_WORD	wordpools/wasnorm_wordpool_576.txt	LTP280	ltpFR2	16	15	COUNTY	389	n/a	n/a	0	0	0
3282037	REC_WORD	wordpools/wasnorm_wordpool_576.txt	LTP280	ltpFR2	16	15	CAFE	216	n/a	n/a	0	0	0
3287692	REC_WORD	wordpools/wasnorm_wordpool_576.txt	LTP280	ltpFR2	16	15	FLEET	578	n/a	n/a	0	0	0
3293452	REC_WORD	wordpools/wasnorm_wordpool_576.txt	LTP280	ltpFR2	16	15	XEROX	1628	n/a	n/a	0	0	0
3356808	WORD	wordpools/wasnorm_wordpool_576.txt	LTP280	ltpFR2	16	16	MONSTER	912	n/a	n/a	0	0	0
3359576	WORD	wordpools/wasnorm_wordpool_576.txt	LTP280	ltpFR2	16	16	KLEENEX	782	n/a	n/a	0	0	0
3362262	WORD	wordpools/wasnorm_wordpool_576.txt	LTP280	ltpFR2	16	16	MILK	895	n/a	n/a	0	0	0
3364715	WORD	wordpools/wasnorm_wordpool_576.txt	LTP280	ltpFR2	16	16	MEDAL	885	n/a	n/a	0	0	0
3367249	WORD	wordpools/wasnorm_wordpool_576.txt	LTP280	ltpFR2	16	16	HERO	706	n/a	n/a	0	0	0
3369719	WORD	wordpools/wasnorm_wordpool_576.txt	LTP280	ltpFR2	16	16	TRACTOR	1493	n/a	n/a	0	0	0
3372220	WORD	wordpools/wasnorm_wordpool_576.txt	LTP280	ltpFR2	16	16	FARMER	553	n/a	n/a	0	0	0
3374740	WORD	wordpools/wasnorm_wordpool_576.txt	LTP280	ltpFR2	16	16	VELVET	1555	n/a	n/a	0	0	0
3377525	WORD	wordpools/wasnorm_wordpool_576.txt	LTP280	ltpFR2	16	16	RABBIT	1152	n/a	n/a	0	0	0
3380344	WORD	wordpools/wasnorm_wordpool_576.txt	LTP280	ltpFR2	16	16	BURGLAR	200	n/a	n/a	0	0	0
3382814	WORD	wordpools/wasnorm_wordpool_576.txt	LTP280	ltpFR2	16	16	PADDLE	1000	n/a	n/a	0	0	0
3385432	WORD	wordpools/wasnorm_wordpool_576.txt	LTP280	ltpFR2	16	16	QUAIL	1147	n/a	n/a	0	0	0
3387885	WORD	wordpools/wasnorm_wordpool_576.txt	LTP280	ltpFR2	16	16	ROBIN	1199	n/a	n/a	0	0	0
3390519	WORD	wordpools/wasnorm_wordpool_576.txt	LTP280	ltpFR2	16	16	TRIBE	1505	n/a	n/a	0	0	0
3393023	WORD	wordpools/wasnorm_wordpool_576.txt	LTP280	ltpFR2	16	16	CYCLONE	431	n/a	n/a	0	0	0
3395524	WORD	wordpools/wasnorm_wordpool_576.txt	LTP280	ltpFR2	16	16	TWISTER	1530	n/a	n/a	0	0	0
3398259	WORD	wordpools/wasnorm_wordpool_576.txt	LTP280	ltpFR2	16	16	FREEZER	604	n/a	n/a	0	0	0
3400963	WORD	wordpools/wasnorm_wordpool_576.txt	LTP280	ltpFR2	16	16	GALLON	618	n/a	n/a	0	0	0
3403799	WORD	wordpools/wasnorm_wordpool_576.txt	LTP280	ltpFR2	16	16	LACE	792	n/a	n/a	0	0	0
3406517	WORD	wordpools/wasnorm_wordpool_576.txt	LTP280	ltpFR2	16	16	SUSPECT	1415	n/a	n/a	0	0	0
3409303	WORD	wordpools/wasnorm_wordpool_576.txt	LTP280	ltpFR2	16	16	COWBOY	395	n/a	n/a	0	0	0
3412089	WORD	wordpools/wasnorm_wordpool_576.txt	LTP280	ltpFR2	16	16	SUNSET	1408	n/a	n/a	0	0	0
3414808	WORD	wordpools/wasnorm_wordpool_576.txt	LTP280	ltpFR2	16	16	SKETCH	1315	n/a	n/a	0	0	0
3417460	WORD	wordpools/wasnorm_wordpool_576.txt	LTP280	ltpFR2	16	16	ZEBRA	1635	n/a	n/a	0	0	0
3419079	START	n/a	LTP280	ltpFR2	16	n/a	n/a	n/a	23	n/a	n/a	n/a	n/a
3420163	DISTRACTOR	n/a	LTP280	ltpFR2	16	16	n/a	n/a	n/a	n/a	0	0	0
3420195	PROB	n/a	LTP280	ltpFR2	16	n/a	n/a	n/a	23	12	3	6	3
3421263	PROB	n/a	LTP280	ltpFR2	16	n/a	n/a	n/a	23	20	5	6	9
3422464	PROB	n/a	LTP280	ltpFR2	16	n/a	n/a	n/a	23	8	2	3	3
3423766	PROB	n/a	LTP280	ltpFR2	16	n/a	n/a	n/a	23	20	7	9	4
3425350	PROB	n/a	LTP280	ltpFR2	16	n/a	n/a	n/a	23	12	1	2	9
3426384	PROB	n/a	LTP280	ltpFR2	16	n/a	n/a	n/a	23	14	6	7	2
3427585	PROB	n/a	LTP280	ltpFR2	16	n/a	n/a	n/a	23	25	9	8	5
3429955	PROB	n/a	LTP280	ltpFR2	16	n/a	n/a	n/a	23	17	2	9	6
3432090	PROB	n/a	LTP280	ltpFR2	16	n/a	n/a	n/a	23	4	1	1	2
3433108	PROB	n/a	LTP280	ltpFR2	16	n/a	n/a	n/a	23	16	7	1	8
3434374	PROB	n/a	LTP280	ltpFR2	16	n/a	n/a	n/a	23	16	9	4	3
3435625	PROB	n/a	LTP280	ltpFR2	16	n/a	n/a	n/a	23	12	4	4	4
3436626	PROB	n/a	LTP280	ltpFR2	16	n/a	n/a	n/a	23	10	1	7	2
3437762	PROB	n/a	LTP280	ltpFR2	16	n/a	n/a	n/a	23	14	5	6	3
3438813	PROB	n/a	LTP280	ltpFR2	16	n/a	n/a	n/a	23	18	9	2	7
3440948	PROB	n/a	LTP280	ltpFR2	16	n/a	n/a	n/a	23	16	1	8	7
3441963	STOP	n/a	LTP280	ltpFR2	16	n/a	n/a	n/a	23	n/a	n/a	n/a	n/a
3445018	REC_START	n/a	LTP280	ltpFR2	16	16	n/a	n/a	n/a	n/a	0	0	0
3445440	REC_WORD	wordpools/wasnorm_wordpool_576.txt	LTP280	ltpFR2	16	16	GALLON	618	n/a	n/a	0	0	0
3446055	REC_WORD	wordpools/wasnorm_wordpool_576.txt	LTP280	ltpFR2	16	16	LACE	792	n/a	n/a	0	0	0
3446615	REC_WORD	wordpools/wasnorm_wordpool_576.txt	LTP280	ltpFR2	16	16	SUSPECT	1415	n/a	n/a	0	0	0
3447622	REC_WORD	wordpools/wasnorm_wordpool_576.txt	LTP280	ltpFR2	16	16	SUBJECT	-1	n/a	n/a	0	0	0
3448980	REC_WORD	wordpools/wasnorm_wordpool_576.txt	LTP280	ltpFR2	16	16	ZEBRA	1635	n/a	n/a	0	0	0
3450845	REC_WORD	wordpools/wasnorm_wordpool_576.txt	LTP280	ltpFR2	16	16	MILK	895	n/a	n/a	0	0	0
3451414	REC_WORD	wordpools/wasnorm_wordpool_576.txt	LTP280	ltpFR2	16	16	MEDIA	-1	n/a	n/a	0	0	0
3452199	REC_WORD	wordpools/wasnorm_wordpool_576.txt	LTP280	ltpFR2	16	16	QUAIL	1147	n/a	n/a	0	0	0
3452909	REC_WORD	wordpools/wasnorm_wordpool_576.txt	LTP280	ltpFR2	16	16	ROBIN	1199	n/a	n/a	0	0	0
3457659	REC_WORD	wordpools/wasnorm_wordpool_576.txt	LTP280	ltpFR2	16	16	VELVET	1555	n/a	n/a	0	0	0
3458393	REC_WORD	wordpools/wasnorm_wordpool_576.txt	LTP280	ltpFR2	16	16	RABBIT	1152	n/a	n/a	0	0	0
3466933	REC_WORD	wordpools/wasnorm_wordpool_576.txt	LTP280	ltpFR2	16	16	MONSTER	912	n/a	n/a	0	0	0
3469607	REC_WORD	wordpools/wasnorm_wordpool_576.txt	LTP280	ltpFR2	16	16	TISSUE	-1	n/a	n/a	0	0	0
3521567	REST_REWET	n/a	LTP280	ltpFR2	16	16	n/a	n/a	n/a	n/a	0	0	0
3781477	DISTRACTOR	n/a	LTP280	ltpFR2	16	17	n/a	n/a	n/a	n/a	0	0	0
3781477	START	n/a	LTP280	ltpFR2	16	n/a	n/a	n/a	24	n/a	n/a	n/a	n/a
3781510	PROB	n/a	LTP280	ltpFR2	16	n/a	n/a	n/a	24	13	1	3	9
3782628	PROB	n/a	LTP280	ltpFR2	16	n/a	n/a	n/a	24	16	5	4	7
3784246	PROB	n/a	LTP280	ltpFR2	16	n/a	n/a	n/a	24	25	9	8	8
3786999	PROB	n/a	LTP280	ltpFR2	16	n/a	n/a	n/a	24	12	9	1	2
3788083	PROB	n/a	LTP280	ltpFR2	16	n/a	n/a	n/a	24	18	9	7	2
3789400	PROB	n/a	LTP280	ltpFR2	16	n/a	n/a	n/a	24	8	3	4	1
3790301	PROB	n/a	LTP280	ltpFR2	16	n/a	n/a	n/a	24	17	8	6	3
3791619	PROB	n/a	LTP280	ltpFR2	16	n/a	n/a	n/a	24	13	9	2	2
3792837	PROB	n/a	LTP280	ltpFR2	16	n/a	n/a	n/a	24	15	1	7	7
3793755	PROB	n/a	LTP280	ltpFR2	16	n/a	n/a	n/a	24	16	4	3	9
3795123	PROB	n/a	LTP280	ltpFR2	16	n/a	n/a	n/a	24	21	5	7	9
3796473	PROB	n/a	LTP280	ltpFR2	16	n/a	n/a	n/a	24	18	9	1	8
3797457	PROB	n/a	LTP280	ltpFR2	16	n/a	n/a	n/a	24	19	2	8	9
3798608	PROB	n/a	LTP280	ltpFR2	16	n/a	n/a	n/a	24	13	3	2	8
3799810	PROB	n/a	LTP280	ltpFR2	16	n/a	n/a	n/a	24	18	7	4	7
3801712	PROB	n/a	LTP280	ltpFR2	16	n/a	n/a	n/a	24	10	6	1	3
3802679	PROB	n/a	LTP280	ltpFR2	16	n/a	n/a	n/a	24	20	8	9	3
3803914	PROB	n/a	LTP280	ltpFR2	16	n/a	n/a	n/a	24	11	2	2	7
3804930	STOP	n/a	LTP280	ltpFR2	16	n/a	n/a	n/a	24	n/a	n/a	n/a	n/a
3806382	WORD	wordpools/wasnorm_wordpool_576.txt	LTP280	ltpFR2	16	17	CHEMIST	292	n/a	n/a	0	0	0
3808968	WORD	wordpools/wasnorm_wordpool_576.txt	LTP280	ltpFR2	16	17	WRENCH	1625	n/a	n/a	0	0	0
3811687	WORD	wordpools/wasnorm_wordpool_576.txt	LTP280	ltpFR2	16	17	TYPIST	1532	n/a	n/a	0	0	0
3814422	WORD	wordpools/wasnorm_wordpool_576.txt	LTP280	ltpFR2	16	17	BOARD	143	n/a	n/a	0	0	0
3817042	WORD	wordpools/wasnorm_wordpool_576.txt	LTP280	ltpFR2	16	17	LETTUCE	814	n/a	n/a	0	0	0
3819560	WORD	wordpools/wasnorm_wordpool_576.txt	LTP280	ltpFR2	16	17	DRESSER	496	n/a	n/a	0	0	0
3822379	WORD	wordpools/wasnorm_wordpool_576.txt	LTP280	ltpFR2	16	17	SCARF	1246	n/a	n/a	0	0	0
3824832	WORD	wordpools/wasnorm_wordpool_576.txt	LTP280	ltpFR2	16	17	POSSUM	1112	n/a	n/a	0	0	0
3827633	WORD	wordpools/wasnorm_wordpool_576.txt	LTP280	ltpFR2	16	17	BACON	67	n/a	n/a	0	0	0
3830369	WORD	wordpools/wasnorm_wordpool_576.txt	LTP280	ltpFR2	16	17	OMELET	976	n/a	n/a	0	0	0
3833188	WORD	wordpools/wasnorm_wordpool_576.txt	LTP280	ltpFR2	16	17	FUNGUS	614	n/a	n/a	0	0	0
3835692	WORD	wordpools/wasnorm_wordpool_576.txt	LTP280	ltpFR2	16	17	TUTU	1524	n/a	n/a	0	0	0
3838393	WORD	wordpools/wasnorm_wordpool_576.txt	LTP280	ltpFR2	16	17	WORKER	1621	n/a	n/a	0	0	0
3841229	WORD	wordpools/wasnorm_wordpool_576.txt	LTP280	ltpFR2	16	17	BARREL	91	n/a	n/a	0	0	0
3843799	WORD	wordpools/wasnorm_wordpool_576.txt	LTP280	ltpFR2	16	17	DANCER	437	n/a	n/a	0	0	0
3846483	WORD	wordpools/wasnorm_wordpool_576.txt	LTP280	ltpFR2	16	17	PASTRY	1022	n/a	n/a	0	0	0
3849036	WORD	wordpools/wasnorm_wordpool_576.txt	LTP280	ltpFR2	16	17	TART	1436	n/a	n/a	0	0	0
3851839	WORD	wordpools/wasnorm_wordpool_576.txt	LTP280	ltpFR2	16	17	LABEL	790	n/a	n/a	0	0	0
3854307	WORD	wordpools/wasnorm_wordpool_576.txt	LTP280	ltpFR2	16	17	STALLION	1369	n/a	n/a	0	0	0
3857094	WORD	wordpools/wasnorm_wordpool_576.txt	LTP280	ltpFR2	16	17	LEG	809	n/a	n/a	0	0	0
3859846	WORD	wordpools/wasnorm_wordpool_576.txt	LTP280	ltpFR2	16	17	JUNGLE	764	n/a	n/a	0	0	0
3862397	WORD	wordpools/wasnorm_wordpool_576.txt	LTP280	ltpFR2	16	17	OX	994	n/a	n/a	0	0	0
3865117	WORD	wordpools/wasnorm_wordpool_576.txt	LTP280	ltpFR2	16	17	FRAGRANCE	599	n/a	n/a	0	0	0
3867936	WORD	wordpools/wasnorm_wordpool_576.txt	LTP280	ltpFR2	16	17	LEOPARD	812	n/a	n/a	0	0	0
3869554	START	n/a	LTP280	ltpFR2	16	n/a	n/a	n/a	25	n/a	n/a	n/a	n/a
3870695	DISTRACTOR	n/a	LTP280	ltpFR2	16	17	n/a	n/a	n/a	n/a	0	0	0
3870722	PROB	n/a	LTP280	ltpFR2	16	n/a	n/a	n/a	25	4	1	2	1
3871706	PROB	n/a	LTP280	ltpFR2	16	n/a	n/a	n/a	25	18	7	6	5
3873490	PROB	n/a	LTP280	ltpFR2	16	n/a	n/a	n/a	25	22	9	6	7
3875425	PROB	n/a	LTP280	ltpFR2	16	n/a	n/a	n/a	25	11	5	3	3
3876443	PROB	n/a	LTP280	ltpFR2	16	n/a	n/a	n/a	25	13	5	5	3
3877460	PROB	n/a	LTP280	ltpFR2	16	n/a	n/a	n/a	25	17	6	8	3
3878796	PROB	n/a	LTP280	ltpFR2	16	n/a	n/a	n/a	25	16	3	7	6
3879913	PROB	n/a	LTP280	ltpFR2	16	n/a	n/a	n/a	25	13	2	3	8
3882431	PROB	n/a	LTP280	ltpFR2	16	n/a	n/a	n/a	25	10	2	5	3
3883867	PROB	n/a	LTP280	ltpFR2	16	n/a	n/a	n/a	25	20	8	8	4
3885118	PROB	n/a	LTP280	ltpFR2	16	n/a	n/a	n/a	25	20	8	8	6
3886786	PROB	n/a	LTP280	ltpFR2	16	n/a	n/a	n/a	25	7	2	1	4
3888453	PROB	n/a	LTP280	ltpFR2	16	n/a	n/a	n/a	25	7	2	3	2
3889855	PROB	n/a	LTP280	ltpFR2	16	n/a	n/a	n/a	25	11	2	5	4
3891322	PROB	n/a	LTP280	ltpFR2	16	n/a	n/a	n/a	25	14	7	1	6
3892284	STOP	n/a	LTP280	ltpFR2	16	n/a	n/a	n/a	25	n/a	n/a	n/a	n/a
3895410	REC_START	n/a	LTP280	ltpFR2	16	17	n/a	n/a	n/a	n/a	0	0	0
3895796	REC_WORD	wordpools/wasnorm_wordpool_576.txt	LTP280	ltpFR2	16	17	TUTU	1524	n/a	n/a	0	0	0
3896414	REC_WORD	wordpools/wasnorm_wordpool_576.txt	LTP280	ltpFR2	16	17	WORKER	1621	n/a	n/a	0	0	0
3897125	REC_WORD	wordpools/wasnorm_wordpool_576.txt	LTP280	ltpFR2	16	17	DANCER	437	n/a	n/a	0	0	0
3898081	REC_WORD	wordpools/wasnorm_wordpool_576.txt	LTP280	ltpFR2	16	17	PASTRY	1022	n/a	n/a	0	0	0
3899583	REC_WORD	wordpools/wasnorm_wordpool_576.txt	LTP280	ltpFR2	16	17	TART	1436	n/a	n/a	0	0	0
3901095	REC_WORD	wordpools/wasnorm_wordpool_576.txt	LTP280	ltpFR2	16	17	LEOPARD	812	n/a	n/a	0	0	0
3985856	DISTRACTOR	n/a	LTP280	ltpFR2	16	18	n/a	n/a	n/a	n/a	0	0	0
3985856	START	n/a	LTP280	ltpFR2	16	n/a	n/a	n/a	26	n/a	n/a	n/a	n/a
3985872	PROB	n/a	LTP280	ltpFR2	16	n/a	n/a	n/a	26	11	4	3	5
3987456	PROB	n/a	LTP280	ltpFR2	16	n/a	n/a	n/a	26	15	4	2	9
3989441	PROB	n/a	LTP280	ltpFR2	16	n/a	n/a	n/a	26	18	8	8	2
3990492	PROB	n/a	LTP280	ltpFR2	16	n/a	n/a	n/a	26	17	5	9	3
3991676	PROB	n/a	LTP280	ltpFR2	16	n/a	n/a	n/a	26	9	3	2	4
3993980	PROB	n/a	LTP280	ltpFR2	16	n/a	n/a	n/a	26	20	9	8	3
3995213	PROB	n/a	LTP280	ltpFR2	16	n/a	n/a	n/a	26	10	7	2	1
3996230	PROB	n/a	LTP280	ltpFR2	16	n/a	n/a	n/a	26	6	4	1	1
3997515	PROB	n/a	LTP280	ltpFR2	16	n/a	n/a	n/a	26	14	4	6	4
3998432	PROB	n/a	LTP280	ltpFR2	16	n/a	n/a	n/a	26	12	6	4	2
3999533	PROB	n/a	LTP280	ltpFR2	16	n/a	n/a	n/a	26	16	6	4	6
4000601	PROB	n/a	LTP280	ltpFR2	16	n/a	n/a	n/a	26	15	6	2	7
4002053	PROB	n/a	LTP280	ltpFR2	16	n/a	n/a	n/a	26	9	3	5	1
4003236	PROB	n/a	LTP280	ltpFR2	16	n/a	n/a	n/a	26	219	8	5	6
4005222	PROB	n/a	LTP280	ltpFR2	16	n/a	n/a	n/a	26	11	1	9	1
4006523	PROB	n/a	LTP280	ltpFR2	16	n/a	n/a	n/a	26	9	5	3	1
4008158	PROB	n/a	LTP280	ltpFR2	16	n/a	n/a	n/a	26	11	8	2	1
4009010	STOP	n/a	LTP280	ltpFR2	16	n/a	n/a	n/a	26	n/a	n/a	n/a	n/a
4010727	WORD	wordpools/wasnorm_wordpool_576.txt	LTP280	ltpFR2	16	18	LIVER	833	n/a	n/a	0	0	0
4013362	WORD	wordpools/wasnorm_wordpool_576.txt	LTP280	ltpFR2	16	18	PIZZA	1079	n/a	n/a	0	0	0
4015965	WORD	wordpools/wasnorm_wordpool_576.txt	LTP280	ltpFR2	16	18	DOUGHNUT	490	n/a	n/a	0	0	0
4018517	WORD	wordpools/wasnorm_wordpool_576.txt	LTP280	ltpFR2	16	18	COFFEE	341	n/a	n/a	0	0	0
4021285	WORD	wordpools/wasnorm_wordpool_576.txt	LTP280	ltpFR2	16	18	OINTMENT	974	n/a	n/a	0	0	0
4024006	WORD	wordpools/wasnorm_wordpool_576.txt	LTP280	ltpFR2	16	18	BEAVER	109	n/a	n/a	0	0	0
4026540	WORD	wordpools/wasnorm_wordpool_576.txt	LTP280	ltpFR2	16	18	SPOOL	1356	n/a	n/a	0	0	0
4029259	WORD	wordpools/wasnorm_wordpool_576.txt	LTP280	ltpFR2	16	18	KIDNEY	776	n/a	n/a	0	0	0
4032029	WORD	wordpools/wasnorm_wordpool_576.txt	LTP280	ltpFR2	16	18	SHORTS	1293	n/a	n/a	0	0	0
4034865	WORD	wordpools/wasnorm_wordpool_576.txt	LTP280	ltpFR2	16	18	CHAUFFEUR	283	n/a	n/a	0	0	0
4037483	WORD	wordpools/wasnorm_wordpool_576.txt	LTP280	ltpFR2	16	18	PASTA	1021	n/a	n/a	0	0	0
4040003	WORD	wordpools/wasnorm_wordpool_576.txt	LTP280	ltpFR2	16	18	TWEEZERS	1526	n/a	n/a	0	0	0
4042621	WORD	wordpools/wasnorm_wordpool_576.txt	LTP280	ltpFR2	16	18	CHURCH	307	n/a	n/a	0	0	0
4045406	WORD	wordpools/wasnorm_wordpool_576.txt	LTP280	ltpFR2	16	18	CROSS	413	n/a	n/a	0	0	0
4048010	WORD	wordpools/wasnorm_wordpool_576.txt	LTP280	ltpFR2	16	18	DONKEY	484	n/a	n/a	0	0	0
4050511	WORD	wordpools/wasnorm_wordpool_576.txt	LTP280	ltpFR2	16	18	GYMNAST	675	n/a	n/a	0	0	0
4053148	WORD	wordpools/wasnorm_wordpool_576.txt	LTP280	ltpFR2	16	18	PATIENT	1024	n/a	n/a	0	0	0
4055867	WORD	wordpools/wasnorm_wordpool_576.txt	LTP280	ltpFR2	16	18	TRANSPLANT	1496	n/a	n/a	0	0	0
4058651	WORD	wordpools/wasnorm_wordpool_576.txt	LTP280	ltpFR2	16	18	SUNRISE	1407	n/a	n/a	0	0	0
4061187	WORD	wordpools/wasnorm_wordpool_576.txt	LTP280	ltpFR2	16	18	SEAL	1262	n/a	n/a	0	0	0
4063707	WORD	wordpools/wasnorm_wordpool_576.txt	LTP280	ltpFR2	16	18	DRUG	501	n/a	n/a	0	0	0
4066176	WORD	wordpools/wasnorm_wordpool_576.txt	LTP280	ltpFR2	16	18	CREVICE	405	n/a	n/a	0	0	0
4068795	WORD	wordpools/wasnorm_wordpool_576.txt	LTP280	ltpFR2	16	18	TUBA	1515	n/a	n/a	0	0	0
4071346	WORD	wordpools/wasnorm_wordpool_576.txt	LTP280	ltpFR2	16	18	TOMBSTONE	1478	n/a	n/a	0	0	0
4072965	START	n/a	LTP280	ltpFR2	16	n/a	n/a	n/a	27	n/a	n/a	n/a	n/a
4073796	DISTRACTOR	n/a	LTP280	ltpFR2	16	18	n/a	n/a	n/a	n/a	0	0	0
4073816	PROB	n/a	LTP280	ltpFR2	16	n/a	n/a	n/a	27	17	8	2	7
4074933	PROB	n/a	LTP280	ltpFR2	16	n/a	n/a	n/a	27	6	2	3	1
4075851	PROB	n/a	LTP280	ltpFR2	16	n/a	n/a	n/a	27	12	4	1	7
4076835	PROB	n/a	LTP280	ltpFR2	16	n/a	n/a	n/a	27	15	4	5	6
4078552	PROB	n/a	LTP280	ltpFR2	16	n/a	n/a	n/a	27	12	2	5	5
4079821	PROB	n/a	LTP280	ltpFR2	16	n/a	n/a	n/a	27	12	5	3	4
4081022	PROB	n/a	LTP280	ltpFR2	16	n/a	n/a	n/a	27	13	2	7	4
4082222	PROB	n/a	LTP280	ltpFR2	16	n/a	n/a	n/a	27	12	2	9	1
4083440	PROB	n/a	LTP280	ltpFR2	16	n/a	n/a	n/a	27	21	4	9	8
4086409	PROB	n/a	LTP280	ltpFR2	16	n/a	n/a	n/a	27	9	3	5	1
4087460	PROB	n/a	LTP280	ltpFR2	16	n/a	n/a	n/a	27	13	3	1	9
4088544	PROB	n/a	LTP280	ltpFR2	16	n/a	n/a	n/a	27	15	4	4	7
4089830	PROB	n/a	LTP280	ltpFR2	16	n/a	n/a	n/a	27	13	7	5	1
4090997	PROB	n/a	LTP280	ltpFR2	16	n/a	n/a	n/a	27	14	5	4	5
4092214	PROB	n/a	LTP280	ltpFR2	16	n/a	n/a	n/a	27	13	4	1	8
4093248	PROB	n/a	LTP280	ltpFR2	16	n/a	n/a	n/a	27	1	8	6	5
4095250	PROB	n/a	LTP280	ltpFR2	16	n/a	n/a	n/a	27	20	9	9	2
4096460	STOP	n/a	LTP280	ltpFR2	16	n/a	n/a	n/a	27	n/a	n/a	n/a	n/a
4098855	REC_START	n/a	LTP280	ltpFR2	16	18	n/a	n/a	n/a	n/a	0	0	0
4102743	REC_WORD	wordpools/wasnorm_wordpool_576.txt	LTP280	ltpFR2	16	18	CREVICE	405	n/a	n/a	0	0	0
4104775	REC_WORD	wordpools/wasnorm_wordpool_576.txt	LTP280	ltpFR2	16	18	TUBA	1515	n/a	n/a	0	0	0
4105395	REC_WORD	wordpools/wasnorm_wordpool_576.txt	LTP280	ltpFR2	16	18	TOMBSTONE	1478	n/a	n/a	0	0	0
4108203	REC_WORD	wordpools/wasnorm_wordpool_576.txt	LTP280	ltpFR2	16	18	CHURCH	307	n/a	n/a	0	0	0
4111407	REC_WORD	wordpools/wasnorm_wordpool_576.txt	LTP280	ltpFR2	16	18	SHORTS	1293	n/a	n/a	0	0	0
4112222	REC_WORD	wordpools/wasnorm_wordpool_576.txt	LTP280	ltpFR2	16	18	SPOOL	1356	n/a	n/a	0	0	0
4113137	REC_WORD	wordpools/wasnorm_wordpool_576.txt	LTP280	ltpFR2	16	18	LIVER	833	n/a	n/a	0	0	0
4113873	REC_WORD	wordpools/wasnorm_wordpool_576.txt	LTP280	ltpFR2	16	18	KIDNEY	776	n/a	n/a	0	0	0
4114469	REC_WORD	wordpools/wasnorm_wordpool_576.txt	LTP280	ltpFR2	16	18	TRANSPLANT	1496	n/a	n/a	0	0	0
4123311	REC_WORD	wordpools/wasnorm_wordpool_576.txt	LTP280	ltpFR2	16	18	YARN	1631	n/a	n/a	0	0	0
4189299	DISTRACTOR	n/a	LTP280	ltpFR2	16	19	n/a	n/a	n/a	n/a	0	0	0
4189299	START	n/a	LTP280	ltpFR2	16	n/a	n/a	n/a	28	n/a	n/a	n/a	n/a
4189315	PROB	n/a	LTP280	ltpFR2	16	n/a	n/a	n/a	28	18	3	9	6
4191034	PROB	n/a	LTP280	ltpFR2	16	n/a	n/a	n/a	28	20	5	9	6
4193586	PROB	n/a	LTP280	ltpFR2	16	n/a	n/a	n/a	28	21	9	6	6
4195187	PROB	n/a	LTP280	ltpFR2	16	n/a	n/a	n/a	28	18	2	8	8
4196271	PROB	n/a	LTP280	ltpFR2	16	n/a	n/a	n/a	28	7	2	2	3
4197556	PROB	n/a	LTP280	ltpFR2	16	n/a	n/a	n/a	28	7	2	2	3
4198290	PROB	n/a	LTP280	ltpFR2	16	n/a	n/a	n/a	28	17	2	7	8
4199591	PROB	n/a	LTP280	ltpFR2	16	n/a	n/a	n/a	28	19	7	4	8
4200910	PROB	n/a	LTP280	ltpFR2	16	n/a	n/a	n/a	28	12	1	9	2
4202044	PROB	n/a	LTP280	ltpFR2	16	n/a	n/a	n/a	28	13	4	2	7
4203327	PROB	n/a	LTP280	ltpFR2	16	n/a	n/a	n/a	28	20	9	4	7
4204947	PROB	n/a	LTP280	ltpFR2	16	n/a	n/a	n/a	28	15	3	6	6
4206064	PROB	n/a	LTP280	ltpFR2	16	n/a	n/a	n/a	28	17	4	6	7
4207165	PROB	n/a	LTP280	ltpFR2	16	n/a	n/a	n/a	28	18	9	1	8
4208133	PROB	n/a	LTP280	ltpFR2	16	n/a	n/a	n/a	28	10	1	1	8
4209183	PROB	n/a	LTP280	ltpFR2	16	n/a	n/a	n/a	28	22	9	8	5
4210500	PROB	n/a	LTP280	ltpFR2	16	n/a	n/a	n/a	28	9	2	3	4
4211914	STOP	n/a	LTP280	ltpFR2	16	n/a	n/a	n/a	28	n/a	n/a	n/a	n/a
4214404	WORD	wordpools/wasnorm_wordpool_576.txt	LTP280	ltpFR2	16	19	COUCH	386	n/a	n/a	0	0	0
4216974	WORD	wordpools/wasnorm_wordpool_576.txt	LTP280	ltpFR2	16	19	HUSBAND	728	n/a	n/a	0	0	0
4219458	WORD	wordpools/wasnorm_wordpool_576.txt	LTP280	ltpFR2	16	19	AIRPORT	13	n/a	n/a	0	0	0
4222045	WORD	wordpools/wasnorm_wordpool_576.txt	LTP280	ltpFR2	16	19	DOLPHIN	483	n/a	n/a	0	0	0
4224831	WORD	wordpools/wasnorm_wordpool_576.txt	LTP280	ltpFR2	16	19	STUDENT	1395	n/a	n/a	0	0	0
4227365	WORD	wordpools/wasnorm_wordpool_576.txt	LTP280	ltpFR2	16	19	KNAPSACK	783	n/a	n/a	0	0	0
4229852	WORD	wordpools/wasnorm_wordpool_576.txt	LTP280	ltpFR2	16	19	ROD	1203	n/a	n/a	0	0	0
4232636	WORD	wordpools/wasnorm_wordpool_576.txt	LTP280	ltpFR2	16	19	CRAB	397	n/a	n/a	0	0	0
4235272	WORD	wordpools/wasnorm_wordpool_576.txt	LTP280	ltpFR2	16	19	PAPER	1011	n/a	n/a	0	0	0
4238009	WORD	wordpools/wasnorm_wordpool_576.txt	LTP280	ltpFR2	16	19	CLAMP	316	n/a	n/a	0	0	0
4240694	WORD	wordpools/wasnorm_wordpool_576.txt	LTP280	ltpFR2	16	19	BINDER	127	n/a	n/a	0	0	0
4243130	WORD	wordpools/wasnorm_wordpool_576.txt	LTP280	ltpFR2	16	19	LOVER	846	n/a	n/a	0	0	0
4245715	WORD	wordpools/wasnorm_wordpool_576.txt	LTP280	ltpFR2	16	19	PEDAL	1037	n/a	n/a	0	0	0
4248217	WORD	wordpools/wasnorm_wordpool_576.txt	LTP280	ltpFR2	16	19	PLUTO	1092	n/a	n/a	0	0	0
4250703	WORD	wordpools/wasnorm_wordpool_576.txt	LTP280	ltpFR2	16	19	VENUS	1557	n/a	n/a	0	0	0
4253155	WORD	wordpools/wasnorm_wordpool_576.txt	LTP280	ltpFR2	16	19	GIRL	637	n/a	n/a	0	0	0
4255824	WORD	wordpools/wasnorm_wordpool_576.txt	LTP280	ltpFR2	16	19	TABLE	1426	n/a	n/a	0	0	0
4258626	WORD	wordpools/wasnorm_wordpool_576.txt	LTP280	ltpFR2	16	19	WHISKERS	1605	n/a	n/a	0	0	0
4261311	WORD	wordpools/wasnorm_wordpool_576.txt	LTP280	ltpFR2	16	19	PANTHER	1009	n/a	n/a	0	0	0
4264081	WORD	wordpools/wasnorm_wordpool_576.txt	LTP280	ltpFR2	16	19	POWDER	1117	n/a	n/a	0	0	0
4266599	WORD	wordpools/wasnorm_wordpool_576.txt	LTP280	ltpFR2	16	19	SNACK	1331	n/a	n/a	0	0	0
4269052	WORD	wordpools/wasnorm_wordpool_576.txt	LTP280	ltpFR2	16	19	UMPIRE	1535	n/a	n/a	0	0	0
4271705	WORD	wordpools/wasnorm_wordpool_576.txt	LTP280	ltpFR2	16	19	NOTEBOOK	959	n/a	n/a	0	0	0
4274339	WORD	wordpools/wasnorm_wordpool_576.txt	LTP280	ltpFR2	16	19	DAISY	435	n/a	n/a	0	0	0
4275959	START	n/a	LTP280	ltpFR2	16	n/a	n/a	n/a	29	n/a	n/a	n/a	n/a
4276949	DISTRACTOR	n/a	LTP280	ltpFR2	16	19	n/a	n/a	n/a	n/a	0	0	0
4276959	PROB	n/a	LTP280	ltpFR2	16	n/a	n/a	n/a	29	16	4	6	6
4278376	PROB	n/a	LTP280	ltpFR2	16	n/a	n/a	n/a	29	11	1	8	2
4279377	PROB	n/a	LTP280	ltpFR2	16	n/a	n/a	n/a	29	8	5	2	1
4280661	PROB	n/a	LTP280	ltpFR2	16	n/a	n/a	n/a	29	18	9	7	2
4282180	PROB	n/a	LTP280	ltpFR2	16	n/a	n/a	n/a	29	16	7	1	8
4283297	PROB	n/a	LTP280	ltpFR2	16	n/a	n/a	n/a	29	14	3	9	2
4284431	PROB	n/a	LTP280	ltpFR2	16	n/a	n/a	n/a	29	11	5	5	1
4285299	PROB	n/a	LTP280	ltpFR2	16	n/a	n/a	n/a	29	6	2	2	2
4286216	PROB	n/a	LTP280	ltpFR2	16	n/a	n/a	n/a	29	12	6	2	2
4287217	PROB	n/a	LTP280	ltpFR2	16	n/a	n/a	n/a	29	13	8	1	4
4288568	PROB	n/a	LTP280	ltpFR2	16	n/a	n/a	n/a	29	15	6	1	8
4289619	PROB	n/a	LTP280	ltpFR2	16	n/a	n/a	n/a	29	10	4	4	2
4291956	PROB	n/a	LTP280	ltpFR2	16	n/a	n/a	n/a	29	20	5	6	9
4293389	PROB	n/a	LTP280	ltpFR2	16	n/a	n/a	n/a	29	8	6	1	1
4294307	PROB	n/a	LTP280	ltpFR2	16	n/a	n/a	n/a	29	9	5	2	2
4295508	PROB	n/a	LTP280	ltpFR2	16	n/a	n/a	n/a	29	15	4	8	3
4296609	PROB	n/a	LTP280	ltpFR2	16	n/a	n/a	n/a	29	14	2	8	4
4298011	PROB	n/a	LTP280	ltpFR2	16	n/a	n/a	n/a	29	6	1	2	3
4298973	STOP	n/a	LTP280	ltpFR2	16	n/a	n/a	n/a	29	n/a	n/a	n/a	n/a
4301882	REC_START	n/a	LTP280	ltpFR2	16	19	n/a	n/a	n/a	n/a	0	0	0
4302117	REC_WORD	wordpools/wasnorm_wordpool_576.txt	LTP280	ltpFR2	16	19	UMPIRE	1535	n/a	n/a	0	0	0
4302666	REC_WORD	wordpools/wasnorm_wordpool_576.txt	LTP280	ltpFR2	16	19	SNACK	1331	n/a	n/a	0	0	0
4308979	REC_WORD	wordpools/wasnorm_wordpool_576.txt	LTP280	ltpFR2	16	19	DAISY	435	n/a	n/a	0	0	0
4333131	REC_WORD	wordpools/wasnorm_wordpool_576.txt	LTP280	ltpFR2	16	19	NOTEBOOK	959	n/a	n/a	0	0	0
4336924	REC_WORD	wordpools/wasnorm_wordpool_576.txt	LTP280	ltpFR2	16	19	BINDER	127	n/a	n/a	0	0	0
4337811	REC_WORD	wordpools/wasnorm_wordpool_576.txt	LTP280	ltpFR2	16	19	CLIP	-1	n/a	n/a	0	0	0
4340426	REC_WORD	wordpools/wasnorm_wordpool_576.txt	LTP280	ltpFR2	16	19	CRAB	397	n/a	n/a	0	0	0
4345392	REC_WORD	wordpools/wasnorm_wordpool_576.txt	LTP280	ltpFR2	16	19	CLAMP	316	n/a	n/a	0	0	0
4392476	WORD	wordpools/wasnorm_wordpool_576.txt	LTP280	ltpFR2	16	20	SPARROW	1347	n/a	n/a	0	0	0
4395146	WORD	wordpools/wasnorm_wordpool_576.txt	LTP280	ltpFR2	16	20	BLENDER	136	n/a	n/a	0	0	0
4397597	WORD	wordpools/wasnorm_wordpool_576.txt	LTP280	ltpFR2	16	20	COOK	372	n/a	n/a	0	0	0
4400216	WORD	wordpools/wasnorm_wordpool_576.txt	LTP280	ltpFR2	16	20	HAWK	692	n/a	n/a	0	0	0
4402852	WORD	wordpools/wasnorm_wordpool_576.txt	LTP280	ltpFR2	16	20	DRAWING	494	n/a	n/a	0	0	0
4405604	WORD	wordpools/wasnorm_wordpool_576.txt	LTP280	ltpFR2	16	20	MACHINE	852	n/a	n/a	0	0	0
4408373	WORD	wordpools/wasnorm_wordpool_576.txt	LTP280	ltpFR2	16	20	WASHER	1592	n/a	n/a	0	0	0
4410826	WORD	wordpools/wasnorm_wordpool_576.txt	LTP280	ltpFR2	16	20	ANKLE	24	n/a	n/a	0	0	0
4413494	WORD	wordpools/wasnorm_wordpool_576.txt	LTP280	ltpFR2	16	20	FOOT	590	n/a	n/a	0	0	0
4416114	WORD	wordpools/wasnorm_wordpool_576.txt	LTP280	ltpFR2	16	20	SKILLET	1317	n/a	n/a	0	0	0
4418916	WORD	wordpools/wasnorm_wordpool_576.txt	LTP280	ltpFR2	16	20	GARDEN	623	n/a	n/a	0	0	0
4421634	WORD	wordpools/wasnorm_wordpool_576.txt	LTP280	ltpFR2	16	20	PIGMENT	1066	n/a	n/a	0	0	0
4424387	WORD	wordpools/wasnorm_wordpool_576.txt	LTP280	ltpFR2	16	20	BELLY	119	n/a	n/a	0	0	0
4427107	WORD	wordpools/wasnorm_wordpool_576.txt	LTP280	ltpFR2	16	20	STONE	1385	n/a	n/a	0	0	0
4429675	WORD	wordpools/wasnorm_wordpool_576.txt	LTP280	ltpFR2	16	20	PAIL	1002	n/a	n/a	0	0	0
4432243	WORD	wordpools/wasnorm_wordpool_576.txt	LTP280	ltpFR2	16	20	TURNIP	1521	n/a	n/a	0	0	0
4434730	WORD	wordpools/wasnorm_wordpool_576.txt	LTP280	ltpFR2	16	20	SUPPER	1411	n/a	n/a	0	0	0
4437265	WORD	wordpools/wasnorm_wordpool_576.txt	LTP280	ltpFR2	16	20	POSTAGE	1113	n/a	n/a	0	0	0
4439734	WORD	wordpools/wasnorm_wordpool_576.txt	LTP280	ltpFR2	16	20	BACKBONE	66	n/a	n/a	0	0	0
4442319	WORD	wordpools/wasnorm_wordpool_576.txt	LTP280	ltpFR2	16	20	CHEST	295	n/a	n/a	0	0	0
4445123	WORD	wordpools/wasnorm_wordpool_576.txt	LTP280	ltpFR2	16	20	MAILMAN	858	n/a	n/a	0	0	0
4447708	WORD	wordpools/wasnorm_wordpool_576.txt	LTP280	ltpFR2	16	20	SLIME	1327	n/a	n/a	0	0	0
4450160	WORD	wordpools/wasnorm_wordpool_576.txt	LTP280	ltpFR2	16	20	MOTOR	922	n/a	n/a	0	0	0
4452628	WORD	wordpools/wasnorm_wordpool_576.txt	LTP280	ltpFR2	16	20	MARROW	872	n/a	n/a	0	0	0
4454246	START	n/a	LTP280	ltpFR2	16	n/a	n/a	n/a	30	n/a	n/a	n/a	n/a
4455081	DISTRACTOR	n/a	LTP280	ltpFR2	16	20	n/a	n/a	n/a	n/a	0	0	0
4455098	PROB	n/a	LTP280	ltpFR2	16	n/a	n/a	n/a	30	18	2	7	9
4456431	PROB	n/a	LTP280	ltpFR2	16	n/a	n/a	n/a	30	17	2	9	6
4457917	PROB	n/a	LTP280	ltpFR2	16	n/a	n/a	n/a	30	17	4	6	7
4459068	PROB	n/a	LTP280	ltpFR2	16	n/a	n/a	n/a	30	11	7	1	3
4460035	PROB	n/a	LTP280	ltpFR2	16	n/a	n/a	n/a	30	16	7	8	1
4461987	PROB	n/a	LTP280	ltpFR2	16	n/a	n/a	n/a	30	19	9	6	4
4463321	PROB	n/a	LTP280	ltpFR2	16	n/a	n/a	n/a	30	14	4	2	8
4465206	PROB	n/a	LTP280	ltpFR2	16	n/a	n/a	n/a	30	15	7	4	4
4466290	PROB	n/a	LTP280	ltpFR2	16	n/a	n/a	n/a	30	11	5	5	1
4467257	PROB	n/a	LTP280	ltpFR2	16	n/a	n/a	n/a	30	20	8	9	3
4469359	PROB	n/a	LTP280	ltpFR2	16	n/a	n/a	n/a	30	17	9	7	1
