onset	duration	trial_type	sample	stim_file	subject	experiment	session	trial	task	item_name	item_num	recog_resp	recog_conf	resp	color_r	color_g	color_b	case	font
233.26	n/a	SESS_START	116630	n/a	LTP091	ltpFR	14	n/a	n/a	n/a	n/a	1	3	n/a	n/a	n/a	n/a	n/a	n/a
277.08	n/a	WORD	138540	wordpools/wasnorm_wordpool.txt	LTP091	ltpFR	14	1	1	GYMNAST	675	0	5	1	0.57763671875	0.412841796875	1	upper	amplitud.ttf
280.922	n/a	WORD	140461	wordpools/wasnorm_wordpool.txt	LTP091	ltpFR	14	1	1	PLAID	1080	1	n/a	0	0.57763671875	0.412841796875	1	upper	amplitud.ttf
285.04	n/a	WORD	142520	wordpools/wasnorm_wordpool.txt	LTP091	ltpFR	14	1	1	DENIM	446	n/a	n/a	0	0.57763671875	0.412841796875	1	upper	amplitud.ttf
289.046	n/a	WORD	144523	wordpools/wasnorm_wordpool.txt	LTP091	ltpFR	14	1	0	FUDGE	611	n/a	n/a	0	0.422607421875	0.5869140625	0	lower	zerothre.ttf
293.146	n/a	WORD	146573	wordpools/wasnorm_wordpool.txt	LTP091	ltpFR	14	1	0	DOVE	491	n/a	n/a	0	0.422607421875	0.5869140625	0	lower	zerothre.ttf
296.972	n/a	WORD	148486	wordpools/wasnorm_wordpool.txt	LTP091	ltpFR	14	1	0	JUGGLER	763	n/a	n/a	0	0.422607421875	0.5869140625	0	lower	zerothre.ttf
300.906	n/a	WORD	150453	wordpools/wasnorm_wordpool.txt	LTP091	ltpFR	14	1	0	CITRUS	313	n/a	n/a	0	0.422607421875	0.5869140625	0	lower	zerothre.ttf
304.872	n/a	WORD	152436	wordpools/wasnorm_wordpool.txt	LTP091	ltpFR	14	1	0	PRUNE	1134	n/a	n/a	0	0.422607421875	0.5869140625	0	lower	zerothre.ttf
308.98	n/a	WORD	154490	wordpools/wasnorm_wordpool.txt	LTP091	ltpFR	14	1	1	VALVE	1546	n/a	n/a	0	0.57763671875	0.412841796875	1	upper	amplitud.ttf
313.13	n/a	WORD	156565	wordpools/wasnorm_wordpool.txt	LTP091	ltpFR	14	1	1	SHOWER	1296	n/a	n/a	0	0.57763671875	0.412841796875	1	upper	amplitud.ttf
317.262	n/a	WORD	158631	wordpools/wasnorm_wordpool.txt	LTP091	ltpFR	14	1	0	POTATO	1115	n/a	n/a	0	0.422607421875	0.5869140625	0	lower	zerothre.ttf
321.086	n/a	WORD	160543	wordpools/wasnorm_wordpool.txt	LTP091	ltpFR	14	1	0	HOUSE	725	n/a	n/a	0	0.422607421875	0.5869140625	0	lower	zerothre.ttf
325.196	n/a	WORD	162598	wordpools/wasnorm_wordpool.txt	LTP091	ltpFR	14	1	0	CIGAR	308	n/a	n/a	0	0.422607421875	0.5869140625	0	lower	zerothre.ttf
329.038	n/a	WORD	164519	wordpools/wasnorm_wordpool.txt	LTP091	ltpFR	14	1	1	CHAIRPERSON	275	n/a	n/a	1	0.57763671875	0.412841796875	1	upper	amplitud.ttf
333.004	n/a	WORD	166502	wordpools/wasnorm_wordpool.txt	LTP091	ltpFR	14	1	1	CONTRACTOR	369	n/a	n/a	1	0.57763671875	0.412841796875	1	upper	amplitud.ttf
336.83	n/a	WORD	168415	wordpools/wasnorm_wordpool.txt	LTP091	ltpFR	14	1	1	PISTON	1076	n/a	n/a	0	0.57763671875	0.412841796875	1	upper	amplitud.ttf
342.798	n/a	REC_START	171399	n/a	LTP091	ltpFR	14	1	n/a	n/a	n/a	n/a	n/a	n/a	n/a	n/a	n/a	n/a	n/a
343.706	n/a	REC_WORD	171853	wordpools/wasnorm_wordpool.txt	LTP091	ltpFR	14	1	1	GYMNAST	675	n/a	n/a	1	n/a	n/a	n/a	n/a	n/a
344.702	n/a	REC_WORD	172351	wordpools/wasnorm_wordpool.txt	LTP091	ltpFR	14	1	1	PLAID	1080	n/a	n/a	0	n/a	n/a	n/a	n/a	n/a
345.81	n/a	REC_WORD	172905	wordpools/wasnorm_wordpool.txt	LTP091	ltpFR	14	1	1	DENIM	446	n/a	n/a	0	n/a	n/a	n/a	n/a	n/a
347.308	n/a	REC_WORD	173654	wordpools/wasnorm_wordpool.txt	LTP091	ltpFR	14	1	0	DOVE	491	n/a	n/a	0	n/a	n/a	n/a	n/a	n/a
348.614	n/a	REC_WORD	174307	wordpools/wasnorm_wordpool.txt	LTP091	ltpFR	14	1	0	CITRUS	313	n/a	n/a	0	n/a	n/a	n/a	n/a	n/a
350.11	n/a	REC_WORD	175055	wordpools/wasnorm_wordpool.txt	LTP091	ltpFR	14	1	0	PRUNE	1134	n/a	n/a	0	n/a	n/a	n/a	n/a	n/a
350.998	n/a	REC_WORD	175499	wordpools/wasnorm_wordpool.txt	LTP091	ltpFR	14	1	1	VALVE	1546	n/a	n/a	0	n/a	n/a	n/a	n/a	n/a
351.876	n/a	REC_WORD	175938	wordpools/wasnorm_wordpool.txt	LTP091	ltpFR	14	1	1	SHOWER	1296	n/a	n/a	0	n/a	n/a	n/a	n/a	n/a
353.668	n/a	REC_WORD	176834	wordpools/wasnorm_wordpool.txt	LTP091	ltpFR	14	1	1	CHAIRPERSON	275	n/a	n/a	1	n/a	n/a	n/a	n/a	n/a
354.99	n/a	REC_WORD	177495	wordpools/wasnorm_wordpool.txt	LTP091	ltpFR	14	1	0	HOUSE	725	n/a	n/a	0	n/a	n/a	n/a	n/a	n/a
381.602	n/a	REC_WORD	190801	wordpools/wasnorm_wordpool.txt	LTP091	ltpFR	14	1	0	CIGAR	308	n/a	n/a	0	n/a	n/a	n/a	n/a	n/a
404.83	n/a	REC_WORD	202415	wordpools/wasnorm_wordpool.txt	LTP091	ltpFR	14	1	0	JUGGLER	763	n/a	n/a	0	n/a	n/a	n/a	n/a	n/a
416.598	n/a	REC_WORD	208299	wordpools/wasnorm_wordpool.txt	LTP091	ltpFR	14	1	1	CONTRACTOR	369	n/a	n/a	1	n/a	n/a	n/a	n/a	n/a
422.402	n/a	WORD	211201	wordpools/wasnorm_wordpool.txt	LTP091	ltpFR	14	2	0	NOTE	958	n/a	n/a	0	0.422607421875	0.5869140625	0	lower	zerothre.ttf
426.294	n/a	WORD	213147	wordpools/wasnorm_wordpool.txt	LTP091	ltpFR	14	2	0	HAWK	692	n/a	n/a	1	0.422607421875	0.5869140625	0	lower	zerothre.ttf
430.292	n/a	WORD	215146	wordpools/wasnorm_wordpool.txt	LTP091	ltpFR	14	2	0	PRINCESS	1125	n/a	n/a	0	0.422607421875	0.5869140625	0	lower	zerothre.ttf
434.134	n/a	WORD	217067	wordpools/wasnorm_wordpool.txt	LTP091	ltpFR	14	2	0	SKI	1316	n/a	n/a	0	0.422607421875	0.5869140625	0	lower	zerothre.ttf
438.276	n/a	WORD	219138	wordpools/wasnorm_wordpool.txt	LTP091	ltpFR	14	2	1	LOLLIPOP	842	n/a	n/a	0	0.57763671875	0.412841796875	1	upper	amplitud.ttf
442.392	n/a	WORD	221196	wordpools/wasnorm_wordpool.txt	LTP091	ltpFR	14	2	1	MAGAZINE	853	n/a	n/a	0	0.57763671875	0.412841796875	1	upper	amplitud.ttf
446.492	n/a	WORD	223246	wordpools/wasnorm_wordpool.txt	LTP091	ltpFR	14	2	1	TELEVISION	1447	n/a	n/a	0	0.57763671875	0.412841796875	1	upper	amplitud.ttf
450.508	n/a	WORD	225254	wordpools/wasnorm_wordpool.txt	LTP091	ltpFR	14	2	1	SUPERMARKET	1409	n/a	n/a	0	0.57763671875	0.412841796875	1	upper	amplitud.ttf
454.676	n/a	WORD	227338	wordpools/wasnorm_wordpool.txt	LTP091	ltpFR	14	2	0	SANDWICH	1232	n/a	n/a	0	0.422607421875	0.5869140625	0	lower	zerothre.ttf
458.668	n/a	WORD	229334	wordpools/wasnorm_wordpool.txt	LTP091	ltpFR	14	2	0	SURGEON	1413	n/a	n/a	0	0.422607421875	0.5869140625	0	lower	zerothre.ttf
462.744	n/a	WORD	231372	wordpools/wasnorm_wordpool.txt	LTP091	ltpFR	14	2	0	NURSE	963	n/a	n/a	0	0.422607421875	0.5869140625	0	lower	zerothre.ttf
466.61	n/a	WORD	233305	wordpools/wasnorm_wordpool.txt	LTP091	ltpFR	14	2	0	PILOT	1070	n/a	n/a	1	0.422607421875	0.5869140625	0	lower	zerothre.ttf
470.542	n/a	WORD	235271	wordpools/wasnorm_wordpool.txt	LTP091	ltpFR	14	2	1	TROMBONE	1508	n/a	n/a	0	0.57763671875	0.412841796875	1	upper	amplitud.ttf
474.634	n/a	WORD	237317	wordpools/wasnorm_wordpool.txt	LTP091	ltpFR	14	2	1	QUAIL	1147	n/a	n/a	0	0.57763671875	0.412841796875	1	upper	amplitud.ttf
478.792	n/a	WORD	239396	wordpools/wasnorm_wordpool.txt	LTP091	ltpFR	14	2	1	SHORTCAKE	1292	n/a	n/a	0	0.57763671875	0.412841796875	1	upper	amplitud.ttf
482.96	n/a	WORD	241480	wordpools/wasnorm_wordpool.txt	LTP091	ltpFR	14	2	1	INSECT	740	n/a	n/a	0	0.57763671875	0.412841796875	1	upper	amplitud.ttf
488.702	n/a	REC_START	244351	n/a	LTP091	ltpFR	14	2	n/a	n/a	n/a	n/a	n/a	n/a	n/a	n/a	n/a	n/a	n/a
489.604	n/a	REC_WORD	244802	wordpools/wasnorm_wordpool.txt	LTP091	ltpFR	14	2	1	INSECT	740	n/a	n/a	0	n/a	n/a	n/a	n/a	n/a
490.462	n/a	REC_WORD	245231	wordpools/wasnorm_wordpool.txt	LTP091	ltpFR	14	2	1	SHORTCAKE	1292	n/a	n/a	0	n/a	n/a	n/a	n/a	n/a
491.86	n/a	REC_WORD	245930	wordpools/wasnorm_wordpool.txt	LTP091	ltpFR	14	2	1	QUAIL	1147	n/a	n/a	0	n/a	n/a	n/a	n/a	n/a
493.37	n/a	REC_WORD	246685	wordpools/wasnorm_wordpool.txt	LTP091	ltpFR	14	2	0	NOTE	958	n/a	n/a	0	n/a	n/a	n/a	n/a	n/a
494.084	n/a	REC_WORD	247042	wordpools/wasnorm_wordpool.txt	LTP091	ltpFR	14	2	0	HAWK	692	n/a	n/a	1	n/a	n/a	n/a	n/a	n/a
494.822	n/a	REC_WORD	247411	wordpools/wasnorm_wordpool.txt	LTP091	ltpFR	14	2	0	PRINCESS	1125	n/a	n/a	0	n/a	n/a	n/a	n/a	n/a
496.524	n/a	REC_WORD	248262	wordpools/wasnorm_wordpool.txt	LTP091	ltpFR	14	2	0	SKI	1316	n/a	n/a	0	n/a	n/a	n/a	n/a	n/a
498.8	n/a	REC_WORD	249400	wordpools/wasnorm_wordpool.txt	LTP091	ltpFR	14	2	1	LOLLIPOP	842	n/a	n/a	0	n/a	n/a	n/a	n/a	n/a
505.948	n/a	REC_WORD	252974	wordpools/wasnorm_wordpool.txt	LTP091	ltpFR	14	2	0	SURGEON	1413	n/a	n/a	0	n/a	n/a	n/a	n/a	n/a
506.93	n/a	REC_WORD	253465	wordpools/wasnorm_wordpool.txt	LTP091	ltpFR	14	2	0	PILOT	1070	n/a	n/a	1	n/a	n/a	n/a	n/a	n/a
507.53	n/a	REC_WORD	253765	wordpools/wasnorm_wordpool.txt	LTP091	ltpFR	14	2	0	NURSE	963	n/a	n/a	0	n/a	n/a	n/a	n/a	n/a
545.87	n/a	REC_WORD	272935	wordpools/wasnorm_wordpool.txt	LTP091	ltpFR	14	2	1	MAGAZINE	853	n/a	n/a	0	n/a	n/a	n/a	n/a	n/a
546.56	n/a	REC_WORD	273280	wordpools/wasnorm_wordpool.txt	LTP091	ltpFR	14	2	1	TELEVISION	1447	n/a	n/a	0	n/a	n/a	n/a	n/a	n/a
547.11	n/a	REC_WORD	273555	wordpools/wasnorm_wordpool.txt	LTP091	ltpFR	14	2	1	SUPERMARKET	1409	n/a	n/a	0	n/a	n/a	n/a	n/a	n/a
566.806	n/a	WORD	283403	wordpools/wasnorm_wordpool.txt	LTP091	ltpFR	14	3	-1	ANTEATER	26	n/a	n/a	-1	1.0	1.0	1	upper	Verdana.ttf
570.656	n/a	WORD	285328	wordpools/wasnorm_wordpool.txt	LTP091	ltpFR	14	3	-1	FARM	552	n/a	n/a	-1	1.0	1.0	1	upper	Verdana.ttf
574.564	n/a	WORD	287282	wordpools/wasnorm_wordpool.txt	LTP091	ltpFR	14	3	-1	CANDY	230	n/a	n/a	-1	1.0	1.0	1	upper	Verdana.ttf
578.774	n/a	WORD	289387	wordpools/wasnorm_wordpool.txt	LTP091	ltpFR	14	3	-1	PASSAGE	1019	n/a	n/a	-1	1.0	1.0	1	upper	Verdana.ttf
582.648	n/a	WORD	291324	wordpools/wasnorm_wordpool.txt	LTP091	ltpFR	14	3	-1	COUGAR	387	n/a	n/a	-1	1.0	1.0	1	upper	Verdana.ttf
586.732	n/a	WORD	293366	wordpools/wasnorm_wordpool.txt	LTP091	ltpFR	14	3	-1	RUST	1219	n/a	n/a	-1	1.0	1.0	1	upper	Verdana.ttf
590.554	n/a	WORD	295277	wordpools/wasnorm_wordpool.txt	LTP091	ltpFR	14	3	-1	PEAR	1033	n/a	n/a	-1	1.0	1.0	1	upper	Verdana.ttf
594.572	n/a	WORD	297286	wordpools/wasnorm_wordpool.txt	LTP091	ltpFR	14	3	-1	SILK	1307	n/a	n/a	-1	1.0	1.0	1	upper	Verdana.ttf
598.538	n/a	WORD	299269	wordpools/wasnorm_wordpool.txt	LTP091	ltpFR	14	3	-1	SWIMMER	1420	n/a	n/a	-1	1.0	1.0	1	upper	Verdana.ttf
602.648	n/a	WORD	301324	wordpools/wasnorm_wordpool.txt	LTP091	ltpFR	14	3	-1	SURF	1412	n/a	n/a	-1	1.0	1.0	1	upper	Verdana.ttf
606.83	n/a	WORD	303415	wordpools/wasnorm_wordpool.txt	LTP091	ltpFR	14	3	-1	EYELASH	546	n/a	n/a	-1	1.0	1.0	1	upper	Verdana.ttf
610.672	n/a	WORD	305336	wordpools/wasnorm_wordpool.txt	LTP091	ltpFR	14	3	-1	DIME	466	n/a	n/a	-1	1.0	1.0	1	upper	Verdana.ttf
614.722	n/a	WORD	307361	wordpools/wasnorm_wordpool.txt	LTP091	ltpFR	14	3	-1	ENGINE	535	n/a	n/a	-1	1.0	1.0	1	upper	Verdana.ttf
618.622	n/a	WORD	309311	wordpools/wasnorm_wordpool.txt	LTP091	ltpFR	14	3	-1	COOKIE	374	n/a	n/a	-1	1.0	1.0	1	upper	Verdana.ttf
622.604	n/a	WORD	311302	wordpools/wasnorm_wordpool.txt	LTP091	ltpFR	14	3	-1	WALLET	1583	n/a	n/a	-1	1.0	1.0	1	upper	Verdana.ttf
626.462	n/a	WORD	313231	wordpools/wasnorm_wordpool.txt	LTP091	ltpFR	14	3	-1	BANDANNA	80	n/a	n/a	-1	1.0	1.0	1	upper	Verdana.ttf
632.162	n/a	REC_START	316081	n/a	LTP091	ltpFR	14	3	n/a	n/a	n/a	n/a	n/a	n/a	n/a	n/a	n/a	n/a	n/a
632.736	n/a	REC_WORD	316368	wordpools/wasnorm_wordpool.txt	LTP091	ltpFR	14	3	-1	BANDANNA	80	n/a	n/a	-1	n/a	n/a	n/a	n/a	n/a
633.864	n/a	REC_WORD	316932	wordpools/wasnorm_wordpool.txt	LTP091	ltpFR	14	3	-1	WALLET	1583	n/a	n/a	-1	n/a	n/a	n/a	n/a	n/a
635.77	n/a	REC_WORD	317885	wordpools/wasnorm_wordpool.txt	LTP091	ltpFR	14	3	-1	ANTEATER	26	n/a	n/a	-1	n/a	n/a	n/a	n/a	n/a
636.912	n/a	REC_WORD	318456	wordpools/wasnorm_wordpool.txt	LTP091	ltpFR	14	3	-1	FARM	552	n/a	n/a	-1	n/a	n/a	n/a	n/a	n/a
638.754	n/a	REC_WORD	319377	wordpools/wasnorm_wordpool.txt	LTP091	ltpFR	14	3	-1	CANDY	230	n/a	n/a	-1	n/a	n/a	n/a	n/a	n/a
640.08	n/a	REC_WORD	320040	wordpools/wasnorm_wordpool.txt	LTP091	ltpFR	14	3	-1	PEAR	1033	n/a	n/a	-1	n/a	n/a	n/a	n/a	n/a
641.632	n/a	REC_WORD	320816	wordpools/wasnorm_wordpool.txt	LTP091	ltpFR	14	3	-1	SILK	1307	n/a	n/a	-1	n/a	n/a	n/a	n/a	n/a
642.734	n/a	REC_WORD	321367	wordpools/wasnorm_wordpool.txt	LTP091	ltpFR	14	3	-1	EYELASH	546	n/a	n/a	-1	n/a	n/a	n/a	n/a	n/a
666.112	n/a	REC_WORD	333056	wordpools/wasnorm_wordpool.txt	LTP091	ltpFR	14	3	-1	COUGAR	387	n/a	n/a	-1	n/a	n/a	n/a	n/a	n/a
667.094	n/a	REC_WORD	333547	wordpools/wasnorm_wordpool.txt	LTP091	ltpFR	14	3	-1	RUST	1219	n/a	n/a	-1	n/a	n/a	n/a	n/a	n/a
680.94	n/a	REC_WORD	340470	wordpools/wasnorm_wordpool.txt	LTP091	ltpFR	14	3	-1	SWIMMER	1420	n/a	n/a	-1	n/a	n/a	n/a	n/a	n/a
696.66	n/a	REC_WORD	348330	wordpools/wasnorm_wordpool.txt	LTP091	ltpFR	14	3	-1	PASSAGE	1019	n/a	n/a	-1	n/a	n/a	n/a	n/a	n/a
842.732	n/a	WORD	421366	wordpools/wasnorm_wordpool.txt	LTP091	ltpFR	14	4	0	MONK	910	n/a	n/a	0	0.422607421875	0.5869140625	0	lower	zerothre.ttf
846.724	n/a	WORD	423362	wordpools/wasnorm_wordpool.txt	LTP091	ltpFR	14	4	0	FARMER	553	n/a	n/a	0	0.422607421875	0.5869140625	0	lower	zerothre.ttf
850.574	n/a	WORD	425287	wordpools/wasnorm_wordpool.txt	LTP091	ltpFR	14	4	0	AUDIENCE	59	n/a	n/a	0	0.422607421875	0.5869140625	0	lower	zerothre.ttf
854.548	n/a	WORD	427274	wordpools/wasnorm_wordpool.txt	LTP091	ltpFR	14	4	0	VEST	1559	n/a	n/a	0	0.422607421875	0.5869140625	0	lower	zerothre.ttf
858.724	n/a	WORD	429362	wordpools/wasnorm_wordpool.txt	LTP091	ltpFR	14	4	0	SCARF	1246	n/a	n/a	0	0.422607421875	0.5869140625	0	lower	zerothre.ttf
862.698	n/a	WORD	431349	wordpools/wasnorm_wordpool.txt	LTP091	ltpFR	14	4	0	GIRAFFE	636	n/a	n/a	1	0.422607421875	0.5869140625	0	lower	zerothre.ttf
866.89	n/a	WORD	433445	wordpools/wasnorm_wordpool.txt	LTP091	ltpFR	14	4	0	FUNERAL	613	n/a	n/a	0	0.422607421875	0.5869140625	0	lower	zerothre.ttf
870.85	n/a	WORD	435425	wordpools/wasnorm_wordpool.txt	LTP091	ltpFR	14	4	0	GRAVE	658	n/a	n/a	0	0.422607421875	0.5869140625	0	lower	zerothre.ttf
874.882	n/a	WORD	437441	wordpools/wasnorm_wordpool.txt	LTP091	ltpFR	14	4	0	TROPHY	1509	n/a	n/a	0	0.422607421875	0.5869140625	0	lower	zerothre.ttf
878.782	n/a	WORD	439391	wordpools/wasnorm_wordpool.txt	LTP091	ltpFR	14	4	0	FRIAR	605	n/a	n/a	0	0.422607421875	0.5869140625	0	lower	zerothre.ttf
882.906	n/a	WORD	441453	wordpools/wasnorm_wordpool.txt	LTP091	ltpFR	14	4	0	PERSONNEL	1053	n/a	n/a	1	0.422607421875	0.5869140625	0	lower	zerothre.ttf
886.908	n/a	WORD	443454	wordpools/wasnorm_wordpool.txt	LTP091	ltpFR	14	4	0	CHAMPAGNE	278	n/a	n/a	0	0.422607421875	0.5869140625	0	lower	zerothre.ttf
890.924	n/a	WORD	445462	wordpools/wasnorm_wordpool.txt	LTP091	ltpFR	14	4	0	ACORN	3	n/a	n/a	0	0.422607421875	0.5869140625	0	lower	zerothre.ttf
894.856	n/a	WORD	447428	wordpools/wasnorm_wordpool.txt	LTP091	ltpFR	14	4	0	MOUSE	925	n/a	n/a	0	0.422607421875	0.5869140625	0	lower	zerothre.ttf
899.056	n/a	WORD	449528	wordpools/wasnorm_wordpool.txt	LTP091	ltpFR	14	4	0	KITE	779	n/a	n/a	1	0.422607421875	0.5869140625	0	lower	zerothre.ttf
903.188	n/a	WORD	451594	wordpools/wasnorm_wordpool.txt	LTP091	ltpFR	14	4	0	ROBIN	1199	n/a	n/a	0	0.422607421875	0.5869140625	0	lower	zerothre.ttf
909.106	n/a	REC_START	454553	n/a	LTP091	ltpFR	14	4	n/a	n/a	n/a	n/a	n/a	n/a	n/a	n/a	n/a	n/a	n/a
910.308	n/a	REC_WORD	455154	wordpools/wasnorm_wordpool.txt	LTP091	ltpFR	14	4	0	ROBIN	1199	n/a	n/a	0	n/a	n/a	n/a	n/a	n/a
911.292	n/a	REC_WORD	455646	wordpools/wasnorm_wordpool.txt	LTP091	ltpFR	14	4	0	KITE	779	n/a	n/a	1	n/a	n/a	n/a	n/a	n/a
912.704	n/a	REC_WORD	456352	wordpools/wasnorm_wordpool.txt	LTP091	ltpFR	14	4	0	MONK	910	n/a	n/a	0	n/a	n/a	n/a	n/a	n/a
914.334	n/a	REC_WORD	457167	wordpools/wasnorm_wordpool.txt	LTP091	ltpFR	14	4	n/a	ALLIGATOR	16	n/a	n/a	n/a	n/a	n/a	n/a	n/a	n/a
917.312	n/a	REC_WORD	458656	wordpools/wasnorm_wordpool.txt	LTP091	ltpFR	14	4	0	GIRAFFE	636	n/a	n/a	1	n/a	n/a	n/a	n/a	n/a
923.858	n/a	REC_WORD	461929	wordpools/wasnorm_wordpool.txt	LTP091	ltpFR	14	4	0	FUNERAL	613	n/a	n/a	0	n/a	n/a	n/a	n/a	n/a
932.508	n/a	REC_WORD	466254	wordpools/wasnorm_wordpool.txt	LTP091	ltpFR	14	4	0	FRIAR	605	n/a	n/a	0	n/a	n/a	n/a	n/a	n/a
934.72	n/a	REC_WORD	467360	wordpools/wasnorm_wordpool.txt	LTP091	ltpFR	14	4	n/a	BACON	67	n/a	n/a	n/a	n/a	n/a	n/a	n/a	n/a
939.778	n/a	REC_WORD	469889	wordpools/wasnorm_wordpool.txt	LTP091	ltpFR	14	4	n/a	BALL	73	n/a	n/a	n/a	n/a	n/a	n/a	n/a	n/a
948.998	n/a	REC_WORD	474499	wordpools/wasnorm_wordpool.txt	LTP091	ltpFR	14	4	0	MOUSE	925	n/a	n/a	0	n/a	n/a	n/a	n/a	n/a
953.462	n/a	REC_WORD	476731	wordpools/wasnorm_wordpool.txt	LTP091	ltpFR	14	4	n/a	RAT	1169	n/a	n/a	n/a	n/a	n/a	n/a	n/a	n/a
1019.794	n/a	WORD	509897	wordpools/wasnorm_wordpool.txt	LTP091	ltpFR	14	5	0	MATCH	878	n/a	n/a	0	0.422607421875	0.5869140625	0	lower	zerothre.ttf
1023.954	n/a	WORD	511977	wordpools/wasnorm_wordpool.txt	LTP091	ltpFR	14	5	0	COWBOY	395	n/a	n/a	0	0.422607421875	0.5869140625	0	lower	zerothre.ttf
1027.804	n/a	WORD	513902	wordpools/wasnorm_wordpool.txt	LTP091	ltpFR	14	5	0	NEPTUNE	943	n/a	n/a	0	0.422607421875	0.5869140625	0	lower	zerothre.ttf
1031.92	n/a	WORD	515960	wordpools/wasnorm_wordpool.txt	LTP091	ltpFR	14	5	0	AUTOMOBILE	62	n/a	n/a	0	0.422607421875	0.5869140625	0	lower	zerothre.ttf
1035.844	n/a	WORD	517922	wordpools/wasnorm_wordpool.txt	LTP091	ltpFR	14	5	0	CACTUS	215	n/a	n/a	0	0.422607421875	0.5869140625	0	lower	zerothre.ttf
1039.686	n/a	WORD	519843	wordpools/wasnorm_wordpool.txt	LTP091	ltpFR	14	5	0	WAITER	1580	n/a	n/a	0	0.422607421875	0.5869140625	0	lower	zerothre.ttf
1043.894	n/a	WORD	521947	wordpools/wasnorm_wordpool.txt	LTP091	ltpFR	14	5	0	COOKBOOK	373	n/a	n/a	1	0.422607421875	0.5869140625	0	lower	zerothre.ttf
1048.086	n/a	WORD	524043	wordpools/wasnorm_wordpool.txt	LTP091	ltpFR	14	5	0	WHEEL	1603	n/a	n/a	0	0.422607421875	0.5869140625	0	lower	zerothre.ttf
1052.01	n/a	WORD	526005	wordpools/wasnorm_wordpool.txt	LTP091	ltpFR	14	5	0	HOOP	716	n/a	n/a	0	0.422607421875	0.5869140625	0	lower	zerothre.ttf
1056.192	n/a	WORD	528096	wordpools/wasnorm_wordpool.txt	LTP091	ltpFR	14	5	0	LAGOON	795	n/a	n/a	0	0.422607421875	0.5869140625	0	lower	zerothre.ttf
1060.084	n/a	WORD	530042	wordpools/wasnorm_wordpool.txt	LTP091	ltpFR	14	5	0	TREAD	1499	n/a	n/a	0	0.422607421875	0.5869140625	0	lower	zerothre.ttf
1064.176	n/a	WORD	532088	wordpools/wasnorm_wordpool.txt	LTP091	ltpFR	14	5	0	FIREMAN	569	n/a	n/a	0	0.422607421875	0.5869140625	0	lower	zerothre.ttf
1068.078	n/a	WORD	534039	wordpools/wasnorm_wordpool.txt	LTP091	ltpFR	14	5	0	SCAPEGOAT	1244	n/a	n/a	0	0.422607421875	0.5869140625	0	lower	zerothre.ttf
1071.894	n/a	WORD	535947	wordpools/wasnorm_wordpool.txt	LTP091	ltpFR	14	5	0	PERCH	1048	n/a	n/a	1	0.422607421875	0.5869140625	0	lower	zerothre.ttf
1075.736	n/a	WORD	537868	wordpools/wasnorm_wordpool.txt	LTP091	ltpFR	14	5	0	ROSE	1212	n/a	n/a	0	0.422607421875	0.5869140625	0	lower	zerothre.ttf
1079.818	n/a	WORD	539909	wordpools/wasnorm_wordpool.txt	LTP091	ltpFR	14	5	0	SPY	1360	n/a	n/a	0	0.422607421875	0.5869140625	0	lower	zerothre.ttf
1085.86	n/a	REC_START	542930	n/a	LTP091	ltpFR	14	5	n/a	n/a	n/a	n/a	n/a	n/a	n/a	n/a	n/a	n/a	n/a
1086.558	n/a	REC_WORD	543279	wordpools/wasnorm_wordpool.txt	LTP091	ltpFR	14	5	0	SPY	1360	n/a	n/a	0	n/a	n/a	n/a	n/a	n/a
1087.876	n/a	REC_WORD	543938	wordpools/wasnorm_wordpool.txt	LTP091	ltpFR	14	5	0	ROSE	1212	n/a	n/a	0	n/a	n/a	n/a	n/a	n/a
1088.934	n/a	REC_WORD	544467	wordpools/wasnorm_wordpool.txt	LTP091	ltpFR	14	5	n/a	LILY	821	n/a	n/a	n/a	n/a	n/a	n/a	n/a	n/a
1090.7	n/a	REC_WORD	545350	wordpools/wasnorm_wordpool.txt	LTP091	ltpFR	14	5	0	SCAPEGOAT	1244	n/a	n/a	0	n/a	n/a	n/a	n/a	n/a
1095.348	n/a	REC_WORD	547674	wordpools/wasnorm_wordpool.txt	LTP091	ltpFR	14	5	0	MONK	910	n/a	n/a	0	n/a	n/a	n/a	n/a	n/a
1105.472	n/a	REC_WORD	552736	wordpools/wasnorm_wordpool.txt	LTP091	ltpFR	14	5	0	SPY	1360	n/a	n/a	0	n/a	n/a	n/a	n/a	n/a
1112.55	n/a	REC_WORD	556275	wordpools/wasnorm_wordpool.txt	LTP091	ltpFR	14	5	n/a	ALLIGATOR	16	n/a	n/a	n/a	n/a	n/a	n/a	n/a	n/a
1115.224	n/a	REC_WORD	557612	wordpools/wasnorm_wordpool.txt	LTP091	ltpFR	14	5	0	KITE	779	n/a	n/a	1	n/a	n/a	n/a	n/a	n/a
1164.382	n/a	WORD	582191	wordpools/wasnorm_wordpool.txt	LTP091	ltpFR	14	6	1	BUYER	208	n/a	n/a	1	0.57763671875	0.412841796875	1	upper	amplitud.ttf
1168.456	n/a	WORD	584228	wordpools/wasnorm_wordpool.txt	LTP091	ltpFR	14	6	1	TIGER	1467	n/a	n/a	1	0.57763671875	0.412841796875	1	upper	amplitud.ttf
1172.324	n/a	WORD	586162	wordpools/wasnorm_wordpool.txt	LTP091	ltpFR	14	6	0	STOCKING	1383	n/a	n/a	0	0.422607421875	0.5869140625	0	lower	zerothre.ttf
1176.464	n/a	WORD	588232	wordpools/wasnorm_wordpool.txt	LTP091	ltpFR	14	6	0	OWNER	993	n/a	n/a	1	0.422607421875	0.5869140625	0	lower	zerothre.ttf
1180.432	n/a	WORD	590216	wordpools/wasnorm_wordpool.txt	LTP091	ltpFR	14	6	0	CIGARETTE	309	n/a	n/a	0	0.422607421875	0.5869140625	0	lower	zerothre.ttf
1184.274	n/a	WORD	592137	wordpools/wasnorm_wordpool.txt	LTP091	ltpFR	14	6	0	CAMEL	223	n/a	n/a	0	0.422607421875	0.5869140625	0	lower	zerothre.ttf
1188.432	n/a	WORD	594216	wordpools/wasnorm_wordpool.txt	LTP091	ltpFR	14	6	0	OVEN	991	n/a	n/a	0	0.422607421875	0.5869140625	0	lower	zerothre.ttf
1192.264	n/a	WORD	596132	wordpools/wasnorm_wordpool.txt	LTP091	ltpFR	14	6	0	KITTEN	780	n/a	n/a	0	0.422607421875	0.5869140625	0	lower	zerothre.ttf
1196.214	n/a	WORD	598107	wordpools/wasnorm_wordpool.txt	LTP091	ltpFR	14	6	1	TERMITE	1451	n/a	n/a	1	0.57763671875	0.412841796875	1	upper	amplitud.ttf
1200.124	n/a	WORD	600062	wordpools/wasnorm_wordpool.txt	LTP091	ltpFR	14	6	1	TICK	1463	n/a	n/a	1	0.57763671875	0.412841796875	1	upper	amplitud.ttf
1204.09	n/a	WORD	602045	wordpools/wasnorm_wordpool.txt	LTP091	ltpFR	14	6	0	SHACK	1273	n/a	n/a	0	0.422607421875	0.5869140625	0	lower	zerothre.ttf
1208.024	n/a	WORD	604012	wordpools/wasnorm_wordpool.txt	LTP091	ltpFR	14	6	0	CARNIVAL	245	n/a	n/a	0	0.422607421875	0.5869140625	0	lower	zerothre.ttf
1211.998	n/a	WORD	605999	wordpools/wasnorm_wordpool.txt	LTP091	ltpFR	14	6	1	KETCHUP	771	n/a	n/a	0	0.57763671875	0.412841796875	1	upper	amplitud.ttf
1216.13	n/a	WORD	608065	wordpools/wasnorm_wordpool.txt	LTP091	ltpFR	14	6	1	CAFETERIA	217	n/a	n/a	0	0.57763671875	0.412841796875	1	upper	amplitud.ttf
1220.29	n/a	WORD	610145	wordpools/wasnorm_wordpool.txt	LTP091	ltpFR	14	6	1	TOAST	1471	n/a	n/a	0	0.57763671875	0.412841796875	1	upper	amplitud.ttf
1224.472	n/a	WORD	612236	wordpools/wasnorm_wordpool.txt	LTP091	ltpFR	14	6	1	OLIVE	975	n/a	n/a	1	0.57763671875	0.412841796875	1	upper	amplitud.ttf
1230.472	n/a	REC_START	615236	n/a	LTP091	ltpFR	14	6	n/a	n/a	n/a	n/a	n/a	n/a	n/a	n/a	n/a	n/a	n/a
1231.87	n/a	REC_WORD	615935	wordpools/wasnorm_wordpool.txt	LTP091	ltpFR	14	6	1	OLIVE	975	n/a	n/a	1	n/a	n/a	n/a	n/a	n/a
1232.782	n/a	REC_WORD	616391	wordpools/wasnorm_wordpool.txt	LTP091	ltpFR	14	6	0	CACTUS	215	n/a	n/a	0	n/a	n/a	n/a	n/a	n/a
1234.572	n/a	REC_WORD	617286	wordpools/wasnorm_wordpool.txt	LTP091	ltpFR	14	6	0	CAMEL	223	n/a	n/a	0	n/a	n/a	n/a	n/a	n/a
1236.454	n/a	REC_WORD	618227	wordpools/wasnorm_wordpool.txt	LTP091	ltpFR	14	6	0	CIGARETTE	309	n/a	n/a	0	n/a	n/a	n/a	n/a	n/a
1238.196	n/a	REC_WORD	619098	wordpools/wasnorm_wordpool.txt	LTP091	ltpFR	14	6	0	CIGAR	308	n/a	n/a	0	n/a	n/a	n/a	n/a	n/a
1240.082	n/a	REC_WORD	620041	wordpools/wasnorm_wordpool.txt	LTP091	ltpFR	14	6	0	COWBOY	395	n/a	n/a	0	n/a	n/a	n/a	n/a	n/a
1243.154	n/a	REC_WORD	621577	wordpools/wasnorm_wordpool.txt	LTP091	ltpFR	14	6	0	AUTOMOBILE	62	n/a	n/a	0	n/a	n/a	n/a	n/a	n/a
1247.286	n/a	REC_WORD	623643	wordpools/wasnorm_wordpool.txt	LTP091	ltpFR	14	6	-1	PASSAGE	1019	n/a	n/a	-1	n/a	n/a	n/a	n/a	n/a
1259.458	n/a	REC_WORD	629729	wordpools/wasnorm_wordpool.txt	LTP091	ltpFR	14	6	0	MONK	910	n/a	n/a	0	n/a	n/a	n/a	n/a	n/a
1279.37	n/a	REC_WORD	639685	wordpools/wasnorm_wordpool.txt	LTP091	ltpFR	14	6	1	BUYER	208	n/a	n/a	1	n/a	n/a	n/a	n/a	n/a
1280.132	n/a	REC_WORD	640066	wordpools/wasnorm_wordpool.txt	LTP091	ltpFR	14	6	0	OWNER	993	n/a	n/a	1	n/a	n/a	n/a	n/a	n/a
1284.608	n/a	REC_WORD	642304	wordpools/wasnorm_wordpool.txt	LTP091	ltpFR	14	6	n/a	MANAGER	863	n/a	n/a	n/a	n/a	n/a	n/a	n/a	n/a
1302.148	n/a	REC_WORD	651074	wordpools/wasnorm_wordpool.txt	LTP091	ltpFR	14	6	1	QUAIL	1147	n/a	n/a	0	n/a	n/a	n/a	n/a	n/a
1309.062	n/a	WORD	654531	wordpools/wasnorm_wordpool.txt	LTP091	ltpFR	14	7	1	OINTMENT	974	n/a	n/a	0	0.57763671875	0.412841796875	1	upper	amplitud.ttf
1312.954	n/a	WORD	656477	wordpools/wasnorm_wordpool.txt	LTP091	ltpFR	14	7	1	CEREAL	272	n/a	n/a	0	0.57763671875	0.412841796875	1	upper	amplitud.ttf
1316.77	n/a	WORD	658385	wordpools/wasnorm_wordpool.txt	LTP091	ltpFR	14	7	1	SYRINGE	1424	n/a	n/a	0	0.57763671875	0.412841796875	1	upper	amplitud.ttf
1320.796	n/a	WORD	660398	wordpools/wasnorm_wordpool.txt	LTP091	ltpFR	14	7	1	BUREAU	199	n/a	n/a	0	0.57763671875	0.412841796875	1	upper	amplitud.ttf
1324.654	n/a	WORD	662327	wordpools/wasnorm_wordpool.txt	LTP091	ltpFR	14	7	0	RECEIPT	1173	n/a	n/a	0	0.422607421875	0.5869140625	0	lower	zerothre.ttf
1328.57	n/a	WORD	664285	wordpools/wasnorm_wordpool.txt	LTP091	ltpFR	14	7	0	PAWN	1030	n/a	n/a	0	0.422607421875	0.5869140625	0	lower	zerothre.ttf
1332.402	n/a	WORD	666201	wordpools/wasnorm_wordpool.txt	LTP091	ltpFR	14	7	0	GOVERNOR	651	n/a	n/a	1	0.422607421875	0.5869140625	0	lower	zerothre.ttf
1336.544	n/a	WORD	668272	wordpools/wasnorm_wordpool.txt	LTP091	ltpFR	14	7	1	PISTOL	1075	n/a	n/a	0	0.57763671875	0.412841796875	1	upper	amplitud.ttf
1340.552	n/a	WORD	670276	wordpools/wasnorm_wordpool.txt	LTP091	ltpFR	14	7	1	PERSON	1052	n/a	n/a	0	0.57763671875	0.412841796875	1	upper	amplitud.ttf
1344.51	n/a	WORD	672255	wordpools/wasnorm_wordpool.txt	LTP091	ltpFR	14	7	1	OATS	968	n/a	n/a	0	0.57763671875	0.412841796875	1	upper	amplitud.ttf
1348.694	n/a	WORD	674347	wordpools/wasnorm_wordpool.txt	LTP091	ltpFR	14	7	1	CHISEL	305	n/a	n/a	0	0.57763671875	0.412841796875	1	upper	amplitud.ttf
1352.576	n/a	WORD	676288	wordpools/wasnorm_wordpool.txt	LTP091	ltpFR	14	7	0	CARPENTER	246	n/a	n/a	0	0.422607421875	0.5869140625	0	lower	zerothre.ttf
1356.654	n/a	WORD	678327	wordpools/wasnorm_wordpool.txt	LTP091	ltpFR	14	7	0	DONKEY	484	n/a	n/a	0	0.422607421875	0.5869140625	0	lower	zerothre.ttf
1360.802	n/a	WORD	680401	wordpools/wasnorm_wordpool.txt	LTP091	ltpFR	14	7	0	CAVE	263	n/a	n/a	0	0.422607421875	0.5869140625	0	lower	zerothre.ttf
1364.86	n/a	WORD	682430	wordpools/wasnorm_wordpool.txt	LTP091	ltpFR	14	7	0	STRANGER	1389	n/a	n/a	0	0.422607421875	0.5869140625	0	lower	zerothre.ttf
1368.76	n/a	WORD	684380	wordpools/wasnorm_wordpool.txt	LTP091	ltpFR	14	7	0	MEDICINE	886	n/a	n/a	0	0.422607421875	0.5869140625	0	lower	zerothre.ttf
1374.486	n/a	REC_START	687243	n/a	LTP091	ltpFR	14	7	n/a	n/a	n/a	n/a	n/a	n/a	n/a	n/a	n/a	n/a	n/a
1375.794	n/a	REC_WORD	687897	wordpools/wasnorm_wordpool.txt	LTP091	ltpFR	14	7	0	MEDICINE	886	n/a	n/a	0	n/a	n/a	n/a	n/a	n/a
1377.284	n/a	REC_WORD	688642	wordpools/wasnorm_wordpool.txt	LTP091	ltpFR	14	7	n/a	DOCTOR	478	n/a	n/a	n/a	n/a	n/a	n/a	n/a	n/a
1380.976	n/a	REC_WORD	690488	wordpools/wasnorm_wordpool.txt	LTP091	ltpFR	14	7	0	COWBOY	395	n/a	n/a	0	n/a	n/a	n/a	n/a	n/a
1383.6	n/a	REC_WORD	691800	wordpools/wasnorm_wordpool.txt	LTP091	ltpFR	14	7	1	SYRINGE	1424	n/a	n/a	0	n/a	n/a	n/a	n/a	n/a
1384.892	n/a	REC_WORD	692446	wordpools/wasnorm_wordpool.txt	LTP091	ltpFR	14	7	1	OINTMENT	974	n/a	n/a	0	n/a	n/a	n/a	n/a	n/a
1385.68	n/a	REC_WORD	692840	wordpools/wasnorm_wordpool.txt	LTP091	ltpFR	14	7	1	CEREAL	272	n/a	n/a	0	n/a	n/a	n/a	n/a	n/a
1392.5	n/a	REC_WORD	696250	wordpools/wasnorm_wordpool.txt	LTP091	ltpFR	14	7	n/a	FACE	547	n/a	n/a	n/a	n/a	n/a	n/a	n/a	n/a
1409.282	n/a	REC_WORD	704641	wordpools/wasnorm_wordpool.txt	LTP091	ltpFR	14	7	0	CARPENTER	246	n/a	n/a	0	n/a	n/a	n/a	n/a	n/a
1469.574	n/a	WORD	734787	wordpools/wasnorm_wordpool.txt	LTP091	ltpFR	14	8	-1	EARRING	514	n/a	n/a	-1	1.0	1.0	1	upper	Verdana.ttf
1473.524	n/a	WORD	736762	wordpools/wasnorm_wordpool.txt	LTP091	ltpFR	14	8	-1	MONASTERY	907	n/a	n/a	-1	1.0	1.0	1	upper	Verdana.ttf
1477.49	n/a	WORD	738745	wordpools/wasnorm_wordpool.txt	LTP091	ltpFR	14	8	-1	SENATOR	1268	n/a	n/a	-1	1.0	1.0	1	upper	Verdana.ttf
1481.432	n/a	WORD	740716	wordpools/wasnorm_wordpool.txt	LTP091	ltpFR	14	8	-1	CLOTHES	327	n/a	n/a	-1	1.0	1.0	1	upper	Verdana.ttf
1485.49	n/a	WORD	742745	wordpools/wasnorm_wordpool.txt	LTP091	ltpFR	14	8	-1	ROCKET	1202	n/a	n/a	-1	1.0	1.0	1	upper	Verdana.ttf
1489.472	n/a	WORD	744736	wordpools/wasnorm_wordpool.txt	LTP091	ltpFR	14	8	-1	EAR	513	n/a	n/a	-1	1.0	1.0	1	upper	Verdana.ttf
1493.456	n/a	WORD	746728	wordpools/wasnorm_wordpool.txt	LTP091	ltpFR	14	8	-1	PICNIC	1060	n/a	n/a	-1	1.0	1.0	1	upper	Verdana.ttf
1497.582	n/a	WORD	748791	wordpools/wasnorm_wordpool.txt	LTP091	ltpFR	14	8	-1	PILL	1068	n/a	n/a	-1	1.0	1.0	1	upper	Verdana.ttf
1501.532	n/a	WORD	750766	wordpools/wasnorm_wordpool.txt	LTP091	ltpFR	14	8	-1	MOON	914	n/a	n/a	-1	1.0	1.0	1	upper	Verdana.ttf
1505.656	n/a	WORD	752828	wordpools/wasnorm_wordpool.txt	LTP091	ltpFR	14	8	-1	BUFFALO	186	n/a	n/a	-1	1.0	1.0	1	upper	Verdana.ttf
1509.766	n/a	WORD	754883	wordpools/wasnorm_wordpool.txt	LTP091	ltpFR	14	8	-1	ALLIGATOR	16	n/a	n/a	-1	1.0	1.0	1	upper	Verdana.ttf
1513.932	n/a	WORD	756966	wordpools/wasnorm_wordpool.txt	LTP091	ltpFR	14	8	-1	NEWSPAPER	948	n/a	n/a	-1	1.0	1.0	1	upper	Verdana.ttf
1518.09	n/a	WORD	759045	wordpools/wasnorm_wordpool.txt	LTP091	ltpFR	14	8	-1	EDITORIAL	517	n/a	n/a	-1	1.0	1.0	1	upper	Verdana.ttf
1522.04	n/a	WORD	761020	wordpools/wasnorm_wordpool.txt	LTP091	ltpFR	14	8	-1	STORE	1387	n/a	n/a	-1	1.0	1.0	1	upper	Verdana.ttf
1526.206	n/a	WORD	763103	wordpools/wasnorm_wordpool.txt	LTP091	ltpFR	14	8	-1	SPACE	1345	n/a	n/a	-1	1.0	1.0	1	upper	Verdana.ttf
1530.34	n/a	WORD	765170	wordpools/wasnorm_wordpool.txt	LTP091	ltpFR	14	8	-1	SATURN	1236	n/a	n/a	-1	1.0	1.0	1	upper	Verdana.ttf
1536.058	n/a	REC_START	768029	n/a	LTP091	ltpFR	14	8	n/a	n/a	n/a	n/a	n/a	n/a	n/a	n/a	n/a	n/a	n/a
1545.096	n/a	REC_WORD	772548	wordpools/wasnorm_wordpool.txt	LTP091	ltpFR	14	8	-1	EDITORIAL	517	n/a	n/a	-1	n/a	n/a	n/a	n/a	n/a
1546.318	n/a	REC_WORD	773159	wordpools/wasnorm_wordpool.txt	LTP091	ltpFR	14	8	-1	NEWSPAPER	948	n/a	n/a	-1	n/a	n/a	n/a	n/a	n/a
1548.76	n/a	REC_WORD	774380	wordpools/wasnorm_wordpool.txt	LTP091	ltpFR	14	8	n/a	NUN	962	n/a	n/a	n/a	n/a	n/a	n/a	n/a	n/a
1554.606	n/a	REC_WORD	777303	wordpools/wasnorm_wordpool.txt	LTP091	ltpFR	14	8	1	MAGAZINE	853	n/a	n/a	0	n/a	n/a	n/a	n/a	n/a
1555.664	n/a	REC_WORD	777832	wordpools/wasnorm_wordpool.txt	LTP091	ltpFR	14	8	1	SUPERMARKET	1409	n/a	n/a	0	n/a	n/a	n/a	n/a	n/a
1560.008	n/a	REC_WORD	780004	wordpools/wasnorm_wordpool.txt	LTP091	ltpFR	14	8	1	TELEVISION	1447	n/a	n/a	0	n/a	n/a	n/a	n/a	n/a
1576.438	n/a	REC_WORD	788219	wordpools/wasnorm_wordpool.txt	LTP091	ltpFR	14	8	0	KITE	779	n/a	n/a	1	n/a	n/a	n/a	n/a	n/a
1582.838	n/a	REC_WORD	791419	wordpools/wasnorm_wordpool.txt	LTP091	ltpFR	14	8	n/a	DOOR	486	n/a	n/a	n/a	n/a	n/a	n/a	n/a	n/a
1614.32	n/a	WORD	807160	wordpools/wasnorm_wordpool.txt	LTP091	ltpFR	14	9	-1	NIGHTGOWN	953	n/a	n/a	-1	1.0	1.0	1	upper	Verdana.ttf
1618.504	n/a	WORD	809252	wordpools/wasnorm_wordpool.txt	LTP091	ltpFR	14	9	-1	LOFT	840	n/a	n/a	-1	1.0	1.0	1	upper	Verdana.ttf
1622.478	n/a	WORD	811239	wordpools/wasnorm_wordpool.txt	LTP091	ltpFR	14	9	-1	HAMMER	680	n/a	n/a	-1	1.0	1.0	1	upper	Verdana.ttf
1626.57	n/a	WORD	813285	wordpools/wasnorm_wordpool.txt	LTP091	ltpFR	14	9	-1	JAR	750	n/a	n/a	-1	1.0	1.0	1	upper	Verdana.ttf
1630.712	n/a	WORD	815356	wordpools/wasnorm_wordpool.txt	LTP091	ltpFR	14	9	-1	GALLON	618	n/a	n/a	-1	1.0	1.0	1	upper	Verdana.ttf
1634.72	n/a	WORD	817360	wordpools/wasnorm_wordpool.txt	LTP091	ltpFR	14	9	-1	TREE	1502	n/a	n/a	-1	1.0	1.0	1	upper	Verdana.ttf
1638.778	n/a	WORD	819389	wordpools/wasnorm_wordpool.txt	LTP091	ltpFR	14	9	-1	DOUGHNUT	490	n/a	n/a	-1	1.0	1.0	1	upper	Verdana.ttf
1642.912	n/a	WORD	821456	wordpools/wasnorm_wordpool.txt	LTP091	ltpFR	14	9	-1	PAIL	1002	n/a	n/a	-1	1.0	1.0	1	upper	Verdana.ttf
1647.046	n/a	WORD	823523	wordpools/wasnorm_wordpool.txt	LTP091	ltpFR	14	9	-1	CHIPMUNK	304	n/a	n/a	-1	1.0	1.0	1	upper	Verdana.ttf
1650.938	n/a	WORD	825469	wordpools/wasnorm_wordpool.txt	LTP091	ltpFR	14	9	-1	ISLAND	745	n/a	n/a	-1	1.0	1.0	1	upper	Verdana.ttf
1655.112	n/a	WORD	827556	wordpools/wasnorm_wordpool.txt	LTP091	ltpFR	14	9	-1	SNOB	1335	n/a	n/a	-1	1.0	1.0	1	upper	Verdana.ttf
1659.028	n/a	WORD	829514	wordpools/wasnorm_wordpool.txt	LTP091	ltpFR	14	9	-1	BANANA	77	n/a	n/a	-1	1.0	1.0	1	upper	Verdana.ttf
1662.92	n/a	WORD	831460	wordpools/wasnorm_wordpool.txt	LTP091	ltpFR	14	9	-1	BLUEBERRY	140	n/a	n/a	-1	1.0	1.0	1	upper	Verdana.ttf
1667.062	n/a	WORD	833531	wordpools/wasnorm_wordpool.txt	LTP091	ltpFR	14	9	-1	CONTAINER	366	n/a	n/a	-1	1.0	1.0	1	upper	Verdana.ttf
1671.118	n/a	WORD	835559	wordpools/wasnorm_wordpool.txt	LTP091	ltpFR	14	9	-1	BEAVER	109	n/a	n/a	-1	1.0	1.0	1	upper	Verdana.ttf
1675.194	n/a	WORD	837597	wordpools/wasnorm_wordpool.txt	LTP091	ltpFR	14	9	-1	WATERFALL	1595	n/a	n/a	-1	1.0	1.0	1	upper	Verdana.ttf
1681.044	n/a	REC_START	840522	n/a	LTP091	ltpFR	14	9	n/a	n/a	n/a	n/a	n/a	n/a	n/a	n/a	n/a	n/a	n/a
1681.878	n/a	REC_WORD	840939	wordpools/wasnorm_wordpool.txt	LTP091	ltpFR	14	9	-1	CONTAINER	366	n/a	n/a	-1	n/a	n/a	n/a	n/a	n/a
1684.446	n/a	REC_WORD	842223	wordpools/wasnorm_wordpool.txt	LTP091	ltpFR	14	9	-1	NIGHTGOWN	953	n/a	n/a	-1	n/a	n/a	n/a	n/a	n/a
1686.214	n/a	REC_WORD	843107	wordpools/wasnorm_wordpool.txt	LTP091	ltpFR	14	9	-1	JAR	750	n/a	n/a	-1	n/a	n/a	n/a	n/a	n/a
1687.4	n/a	REC_WORD	843700	wordpools/wasnorm_wordpool.txt	LTP091	ltpFR	14	9	-1	GALLON	618	n/a	n/a	-1	n/a	n/a	n/a	n/a	n/a
1688.404	n/a	REC_WORD	844202	wordpools/wasnorm_wordpool.txt	LTP091	ltpFR	14	9	n/a	HAT	690	n/a	n/a	n/a	n/a	n/a	n/a	n/a	n/a
1690.554	n/a	REC_WORD	845277	wordpools/wasnorm_wordpool.txt	LTP091	ltpFR	14	9	-1	LOFT	840	n/a	n/a	-1	n/a	n/a	n/a	n/a	n/a
1691.8	n/a	REC_WORD	845900	wordpools/wasnorm_wordpool.txt	LTP091	ltpFR	14	9	-1	TREE	1502	n/a	n/a	-1	n/a	n/a	n/a	n/a	n/a
1692.998	n/a	REC_WORD	846499	wordpools/wasnorm_wordpool.txt	LTP091	ltpFR	14	9	-1	CHIPMUNK	304	n/a	n/a	-1	n/a	n/a	n/a	n/a	n/a
1693.976	n/a	REC_WORD	846988	wordpools/wasnorm_wordpool.txt	LTP091	ltpFR	14	9	-1	ANTEATER	26	n/a	n/a	-1	n/a	n/a	n/a	n/a	n/a
1700.302	n/a	REC_WORD	850151	wordpools/wasnorm_wordpool.txt	LTP091	ltpFR	14	9	-1	PAIL	1002	n/a	n/a	-1	n/a	n/a	n/a	n/a	n/a
1701.618	n/a	REC_WORD	850809	wordpools/wasnorm_wordpool.txt	LTP091	ltpFR	14	9	n/a	BUCKET	184	n/a	n/a	n/a	n/a	n/a	n/a	n/a	n/a
1721.234	n/a	REC_WORD	860617	wordpools/wasnorm_wordpool.txt	LTP091	ltpFR	14	9	-1	HAMMER	680	n/a	n/a	-1	n/a	n/a	n/a	n/a	n/a
1723.75	n/a	REC_WORD	861875	wordpools/wasnorm_wordpool.txt	LTP091	ltpFR	14	9	n/a	THOR	-1	n/a	n/a	n/a	n/a	n/a	n/a	n/a	n/a
1776.908	n/a	WORD	888454	wordpools/wasnorm_wordpool.txt	LTP091	ltpFR	14	10	0	TOASTER	1472	n/a	n/a	0	0.422607421875	0.5869140625	0	lower	zerothre.ttf
1780.858	n/a	WORD	890429	wordpools/wasnorm_wordpool.txt	LTP091	ltpFR	14	10	0	CLAY	320	n/a	n/a	0	0.422607421875	0.5869140625	0	lower	zerothre.ttf
1785.05	n/a	WORD	892525	wordpools/wasnorm_wordpool.txt	LTP091	ltpFR	14	10	1	PLATE	1086	n/a	n/a	0	0.57763671875	0.412841796875	1	upper	amplitud.ttf
1789.034	n/a	WORD	894517	wordpools/wasnorm_wordpool.txt	LTP091	ltpFR	14	10	1	LIP	828	n/a	n/a	0	0.57763671875	0.412841796875	1	upper	amplitud.ttf
1792.874	n/a	WORD	896437	wordpools/wasnorm_wordpool.txt	LTP091	ltpFR	14	10	1	BAKER	71	n/a	n/a	1	0.57763671875	0.412841796875	1	upper	amplitud.ttf
1796.832	n/a	WORD	898416	wordpools/wasnorm_wordpool.txt	LTP091	ltpFR	14	10	1	CONCERT	360	n/a	n/a	0	0.57763671875	0.412841796875	1	upper	amplitud.ttf
1800.94	n/a	WORD	900470	wordpools/wasnorm_wordpool.txt	LTP091	ltpFR	14	10	0	HARP	689	n/a	n/a	0	0.422607421875	0.5869140625	0	lower	zerothre.ttf
1805.0	n/a	WORD	902500	wordpools/wasnorm_wordpool.txt	LTP091	ltpFR	14	10	0	GIRL	637	n/a	n/a	0	0.422607421875	0.5869140625	0	lower	zerothre.ttf
1808.916	n/a	WORD	904458	wordpools/wasnorm_wordpool.txt	LTP091	ltpFR	14	10	1	DICTATOR	462	n/a	n/a	1	0.57763671875	0.412841796875	1	upper	amplitud.ttf
1813.074	n/a	WORD	906537	wordpools/wasnorm_wordpool.txt	LTP091	ltpFR	14	10	1	JAW	751	n/a	n/a	0	0.57763671875	0.412841796875	1	upper	amplitud.ttf
1817.164	n/a	WORD	908582	wordpools/wasnorm_wordpool.txt	LTP091	ltpFR	14	10	1	JAPAN	749	n/a	n/a	0	0.57763671875	0.412841796875	1	upper	amplitud.ttf
1821.198	n/a	WORD	910599	wordpools/wasnorm_wordpool.txt	LTP091	ltpFR	14	10	1	MONUMENT	913	n/a	n/a	0	0.57763671875	0.412841796875	1	upper	amplitud.ttf
1825.266	n/a	WORD	912633	wordpools/wasnorm_wordpool.txt	LTP091	ltpFR	14	10	0	MOSQUITO	917	n/a	n/a	0	0.422607421875	0.5869140625	0	lower	zerothre.ttf
1829.382	n/a	WORD	914691	wordpools/wasnorm_wordpool.txt	LTP091	ltpFR	14	10	0	RIB	1188	n/a	n/a	0	0.422607421875	0.5869140625	0	lower	zerothre.ttf
1833.49	n/a	WORD	916745	wordpools/wasnorm_wordpool.txt	LTP091	ltpFR	14	10	0	SAUSAGE	1238	n/a	n/a	0	0.422607421875	0.5869140625	0	lower	zerothre.ttf
1837.48	n/a	WORD	918740	wordpools/wasnorm_wordpool.txt	LTP091	ltpFR	14	10	0	PARSLEY	1016	n/a	n/a	0	0.422607421875	0.5869140625	0	lower	zerothre.ttf
1843.266	n/a	REC_START	921633	n/a	LTP091	ltpFR	14	10	n/a	n/a	n/a	n/a	n/a	n/a	n/a	n/a	n/a	n/a	n/a
1843.958	n/a	REC_WORD	921979	wordpools/wasnorm_wordpool.txt	LTP091	ltpFR	14	10	0	PARSLEY	1016	n/a	n/a	0	n/a	n/a	n/a	n/a	n/a
1844.876	n/a	REC_WORD	922438	wordpools/wasnorm_wordpool.txt	LTP091	ltpFR	14	10	0	RIB	1188	n/a	n/a	0	n/a	n/a	n/a	n/a	n/a
1846.048	n/a	REC_WORD	923024	wordpools/wasnorm_wordpool.txt	LTP091	ltpFR	14	10	n/a	BUTCHER	203	n/a	n/a	n/a	n/a	n/a	n/a	n/a	n/a
1846.898	n/a	REC_WORD	923449	wordpools/wasnorm_wordpool.txt	LTP091	ltpFR	14	10	1	CONCERT	360	n/a	n/a	0	n/a	n/a	n/a	n/a	n/a
1847.696	n/a	REC_WORD	923848	wordpools/wasnorm_wordpool.txt	LTP091	ltpFR	14	10	0	GIRL	637	n/a	n/a	0	n/a	n/a	n/a	n/a	n/a
1848.718	n/a	REC_WORD	924359	wordpools/wasnorm_wordpool.txt	LTP091	ltpFR	14	10	0	HARP	689	n/a	n/a	0	n/a	n/a	n/a	n/a	n/a
1849.726	n/a	REC_WORD	924863	wordpools/wasnorm_wordpool.txt	LTP091	ltpFR	14	10	n/a	CELLO	268	n/a	n/a	n/a	n/a	n/a	n/a	n/a	n/a
1851.9	n/a	REC_WORD_VV	925950	wordpools/wasnorm_wordpool.txt	LTP091	ltpFR	14	10	n/a	<>	-1	n/a	n/a	n/a	n/a	n/a	n/a	n/a	n/a
1864.792	n/a	REC_WORD	932396	wordpools/wasnorm_wordpool.txt	LTP091	ltpFR	14	10	1	BAKER	71	n/a	n/a	1	n/a	n/a	n/a	n/a	n/a
1867.526	n/a	REC_WORD	933763	wordpools/wasnorm_wordpool.txt	LTP091	ltpFR	14	10	0	TOASTER	1472	n/a	n/a	0	n/a	n/a	n/a	n/a	n/a
1868.39	n/a	REC_WORD	934195	wordpools/wasnorm_wordpool.txt	LTP091	ltpFR	14	10	0	CLAY	320	n/a	n/a	0	n/a	n/a	n/a	n/a	n/a
1869.258	n/a	REC_WORD	934629	wordpools/wasnorm_wordpool.txt	LTP091	ltpFR	14	10	1	LIP	828	n/a	n/a	0	n/a	n/a	n/a	n/a	n/a
1869.82	n/a	REC_WORD	934910	wordpools/wasnorm_wordpool.txt	LTP091	ltpFR	14	10	1	JAW	751	n/a	n/a	0	n/a	n/a	n/a	n/a	n/a
1871.252	n/a	REC_WORD	935626	wordpools/wasnorm_wordpool.txt	LTP091	ltpFR	14	10	0	RIB	1188	n/a	n/a	0	n/a	n/a	n/a	n/a	n/a
1873.528	n/a	REC_WORD	936764	wordpools/wasnorm_wordpool.txt	LTP091	ltpFR	14	10	n/a	LIMB	822	n/a	n/a	n/a	n/a	n/a	n/a	n/a	n/a
1874.446	n/a	REC_WORD	937223	wordpools/wasnorm_wordpool.txt	LTP091	ltpFR	14	10	n/a	HIP	710	n/a	n/a	n/a	n/a	n/a	n/a	n/a	n/a
1875.798	n/a	REC_WORD	937899	wordpools/wasnorm_wordpool.txt	LTP091	ltpFR	14	10	n/a	KNEE	784	n/a	n/a	n/a	n/a	n/a	n/a	n/a	n/a
1884.214	n/a	REC_WORD	942107	wordpools/wasnorm_wordpool.txt	LTP091	ltpFR	14	10	0	MONK	910	n/a	n/a	0	n/a	n/a	n/a	n/a	n/a
1886.254	n/a	REC_WORD	943127	wordpools/wasnorm_wordpool.txt	LTP091	ltpFR	14	10	0	COWBOY	395	n/a	n/a	0	n/a	n/a	n/a	n/a	n/a
1887.058	n/a	REC_WORD	943529	wordpools/wasnorm_wordpool.txt	LTP091	ltpFR	14	10	0	CACTUS	215	n/a	n/a	0	n/a	n/a	n/a	n/a	n/a
1933.144	n/a	WORD	966572	wordpools/wasnorm_wordpool.txt	LTP091	ltpFR	14	11	1	CATERPILLAR	259	n/a	n/a	1	0.57763671875	0.412841796875	1	upper	amplitud.ttf
1937.262	n/a	WORD	968631	wordpools/wasnorm_wordpool.txt	LTP091	ltpFR	14	11	1	DESSERT	453	n/a	n/a	0	0.57763671875	0.412841796875	1	upper	amplitud.ttf
1941.212	n/a	WORD	970606	wordpools/wasnorm_wordpool.txt	LTP091	ltpFR	14	11	1	TERRITORY	1452	n/a	n/a	0	0.57763671875	0.412841796875	1	upper	amplitud.ttf
1945.346	n/a	WORD	972673	wordpools/wasnorm_wordpool.txt	LTP091	ltpFR	14	11	1	OZONE	996	n/a	n/a	0	0.57763671875	0.412841796875	1	upper	amplitud.ttf
1949.486	n/a	WORD	974743	wordpools/wasnorm_wordpool.txt	LTP091	ltpFR	14	11	1	FRECKLE	602	n/a	n/a	0	0.57763671875	0.412841796875	1	upper	amplitud.ttf
1953.478	n/a	WORD	976739	wordpools/wasnorm_wordpool.txt	LTP091	ltpFR	14	11	1	WAITRESS	1581	n/a	n/a	0	0.57763671875	0.412841796875	1	upper	amplitud.ttf
1957.454	n/a	WORD	978727	wordpools/wasnorm_wordpool.txt	LTP091	ltpFR	14	11	1	BERRY	122	n/a	n/a	0	0.57763671875	0.412841796875	1	upper	amplitud.ttf
1961.404	n/a	WORD	980702	wordpools/wasnorm_wordpool.txt	LTP091	ltpFR	14	11	1	BACON	67	n/a	n/a	0	0.57763671875	0.412841796875	1	upper	amplitud.ttf
1965.486	n/a	WORD	982743	wordpools/wasnorm_wordpool.txt	LTP091	ltpFR	14	11	1	SPATULA	1348	n/a	n/a	0	0.57763671875	0.412841796875	1	upper	amplitud.ttf
1969.486	n/a	WORD	984743	wordpools/wasnorm_wordpool.txt	LTP091	ltpFR	14	11	1	EGYPT	519	n/a	n/a	n/a	0.57763671875	0.412841796875	1	upper	amplitud.ttf
1972.51	n/a	SLOW_MSG	986255	n/a	LTP091	ltpFR	14	11	n/a	n/a	n/a	n/a	n/a	n/a	n/a	n/a	n/a	n/a	n/a
1974.894	n/a	WORD	987447	wordpools/wasnorm_wordpool.txt	LTP091	ltpFR	14	11	1	GROCERIES	663	n/a	n/a	1	0.57763671875	0.412841796875	1	upper	amplitud.ttf
1979.096	n/a	WORD	989548	wordpools/wasnorm_wordpool.txt	LTP091	ltpFR	14	11	1	SERVANT	1271	n/a	n/a	0	0.57763671875	0.412841796875	1	upper	amplitud.ttf
1983.152	n/a	WORD	991576	wordpools/wasnorm_wordpool.txt	LTP091	ltpFR	14	11	1	MAILBOX	857	n/a	n/a	0	0.57763671875	0.412841796875	1	upper	amplitud.ttf
1987.244	n/a	WORD	993622	wordpools/wasnorm_wordpool.txt	LTP091	ltpFR	14	11	1	NET	946	n/a	n/a	0	0.57763671875	0.412841796875	1	upper	amplitud.ttf
1991.202	n/a	WORD	995601	wordpools/wasnorm_wordpool.txt	LTP091	ltpFR	14	11	1	TUNA	1518	n/a	n/a	0	0.57763671875	0.412841796875	1	upper	amplitud.ttf
1995.168	n/a	WORD	997584	wordpools/wasnorm_wordpool.txt	LTP091	ltpFR	14	11	1	ROACH	1195	n/a	n/a	1	0.57763671875	0.412841796875	1	upper	amplitud.ttf
2001.12	n/a	REC_START	1000560	n/a	LTP091	ltpFR	14	11	n/a	n/a	n/a	n/a	n/a	n/a	n/a	n/a	n/a	n/a	n/a
2001.728	n/a	REC_WORD	1000864	wordpools/wasnorm_wordpool.txt	LTP091	ltpFR	14	11	1	TUNA	1518	n/a	n/a	0	n/a	n/a	n/a	n/a	n/a
2002.632	n/a	REC_WORD	1001316	wordpools/wasnorm_wordpool.txt	LTP091	ltpFR	14	11	1	ROACH	1195	n/a	n/a	1	n/a	n/a	n/a	n/a	n/a
2003.894	n/a	REC_WORD	1001947	wordpools/wasnorm_wordpool.txt	LTP091	ltpFR	14	11	1	TERMITE	1451	n/a	n/a	1	n/a	n/a	n/a	n/a	n/a
2006.308	n/a	REC_WORD	1003154	wordpools/wasnorm_wordpool.txt	LTP091	ltpFR	14	11	0	COWBOY	395	n/a	n/a	0	n/a	n/a	n/a	n/a	n/a
2007.212	n/a	REC_WORD	1003606	wordpools/wasnorm_wordpool.txt	LTP091	ltpFR	14	11	0	MONK	910	n/a	n/a	0	n/a	n/a	n/a	n/a	n/a
2007.876	n/a	REC_WORD	1003938	wordpools/wasnorm_wordpool.txt	LTP091	ltpFR	14	11	0	CACTUS	215	n/a	n/a	0	n/a	n/a	n/a	n/a	n/a
2014.564	n/a	REC_WORD	1007282	wordpools/wasnorm_wordpool.txt	LTP091	ltpFR	14	11	1	CATERPILLAR	259	n/a	n/a	1	n/a	n/a	n/a	n/a	n/a
2015.478	n/a	REC_WORD	1007739	wordpools/wasnorm_wordpool.txt	LTP091	ltpFR	14	11	1	DESSERT	453	n/a	n/a	0	n/a	n/a	n/a	n/a	n/a
2082.524	n/a	WORD	1041262	wordpools/wasnorm_wordpool.txt	LTP091	ltpFR	14	12	1	ARTICLE	42	n/a	n/a	0	0.57763671875	0.412841796875	1	upper	amplitud.ttf
2086.6	n/a	WORD	1043300	wordpools/wasnorm_wordpool.txt	LTP091	ltpFR	14	12	1	PIGEON	1065	n/a	n/a	1	0.57763671875	0.412841796875	1	upper	amplitud.ttf
2090.658	n/a	WORD	1045329	wordpools/wasnorm_wordpool.txt	LTP091	ltpFR	14	12	1	FOLLOWER	589	n/a	n/a	0	0.57763671875	0.412841796875	1	upper	amplitud.ttf
2094.734	n/a	WORD	1047367	wordpools/wasnorm_wordpool.txt	LTP091	ltpFR	14	12	1	SERVER	1272	n/a	n/a	1	0.57763671875	0.412841796875	1	upper	amplitud.ttf
2098.95	n/a	WORD	1049475	wordpools/wasnorm_wordpool.txt	LTP091	ltpFR	14	12	1	UNIVERSE	1540	n/a	n/a	0	0.57763671875	0.412841796875	1	upper	amplitud.ttf
2102.9	n/a	WORD	1051450	wordpools/wasnorm_wordpool.txt	LTP091	ltpFR	14	12	1	BLUEJAY	141	n/a	n/a	0	0.57763671875	0.412841796875	1	upper	amplitud.ttf
2106.858	n/a	WORD	1053429	wordpools/wasnorm_wordpool.txt	LTP091	ltpFR	14	12	1	NOTEBOOK	959	n/a	n/a	0	0.57763671875	0.412841796875	1	upper	amplitud.ttf
2111.024	n/a	WORD	1055512	wordpools/wasnorm_wordpool.txt	LTP091	ltpFR	14	12	1	SALAD	1224	n/a	n/a	0	0.57763671875	0.412841796875	1	upper	amplitud.ttf
2114.976	n/a	WORD	1057488	wordpools/wasnorm_wordpool.txt	LTP091	ltpFR	14	12	1	COLESLAW	344	n/a	n/a	0	0.57763671875	0.412841796875	1	upper	amplitud.ttf
2118.974	n/a	WORD	1059487	wordpools/wasnorm_wordpool.txt	LTP091	ltpFR	14	12	1	PRAIRIE	1118	n/a	n/a	0	0.57763671875	0.412841796875	1	upper	amplitud.ttf
2123.05	n/a	WORD	1061525	wordpools/wasnorm_wordpool.txt	LTP091	ltpFR	14	12	1	PAW	1029	n/a	n/a	0	0.57763671875	0.412841796875	1	upper	amplitud.ttf
2127.124	n/a	WORD	1063562	wordpools/wasnorm_wordpool.txt	LTP091	ltpFR	14	12	1	PAPER	1011	n/a	n/a	0	0.57763671875	0.412841796875	1	upper	amplitud.ttf
2131.14	n/a	WORD	1065570	wordpools/wasnorm_wordpool.txt	LTP091	ltpFR	14	12	1	CAPTAIN	239	n/a	n/a	1	0.57763671875	0.412841796875	1	upper	amplitud.ttf
2135.108	n/a	WORD	1067554	wordpools/wasnorm_wordpool.txt	LTP091	ltpFR	14	12	1	DINNER	468	n/a	n/a	0	0.57763671875	0.412841796875	1	upper	amplitud.ttf
2139.124	n/a	WORD	1069562	wordpools/wasnorm_wordpool.txt	LTP091	ltpFR	14	12	1	SIRLOIN	1311	n/a	n/a	0	0.57763671875	0.412841796875	1	upper	amplitud.ttf
2143.29	n/a	WORD	1071645	wordpools/wasnorm_wordpool.txt	LTP091	ltpFR	14	12	1	ROCK	1201	n/a	n/a	0	0.57763671875	0.412841796875	1	upper	amplitud.ttf
2149.074	n/a	REC_START	1074537	n/a	LTP091	ltpFR	14	12	n/a	n/a	n/a	n/a	n/a	n/a	n/a	n/a	n/a	n/a	n/a
2149.712	n/a	REC_WORD	1074856	wordpools/wasnorm_wordpool.txt	LTP091	ltpFR	14	12	1	ROCK	1201	n/a	n/a	0	n/a	n/a	n/a	n/a	n/a
2150.356	n/a	REC_WORD	1075178	wordpools/wasnorm_wordpool.txt	LTP091	ltpFR	14	12	1	SIRLOIN	1311	n/a	n/a	0	n/a	n/a	n/a	n/a	n/a
2153.036	n/a	REC_WORD	1076518	wordpools/wasnorm_wordpool.txt	LTP091	ltpFR	14	12	1	DESSERT	453	n/a	n/a	0	n/a	n/a	n/a	n/a	n/a
2155.346	n/a	REC_WORD	1077673	wordpools/wasnorm_wordpool.txt	LTP091	ltpFR	14	12	1	CATERPILLAR	259	n/a	n/a	1	n/a	n/a	n/a	n/a	n/a
2160.174	n/a	REC_WORD	1080087	wordpools/wasnorm_wordpool.txt	LTP091	ltpFR	14	12	1	FOLLOWER	589	n/a	n/a	0	n/a	n/a	n/a	n/a	n/a
2160.968	n/a	REC_WORD	1080484	wordpools/wasnorm_wordpool.txt	LTP091	ltpFR	14	12	1	ARTICLE	42	n/a	n/a	0	n/a	n/a	n/a	n/a	n/a
2161.652	n/a	REC_WORD	1080826	wordpools/wasnorm_wordpool.txt	LTP091	ltpFR	14	12	-1	EDITORIAL	517	n/a	n/a	-1	n/a	n/a	n/a	n/a	n/a
2162.974	n/a	REC_WORD	1081487	wordpools/wasnorm_wordpool.txt	LTP091	ltpFR	14	12	-1	NEWSPAPER	948	n/a	n/a	-1	n/a	n/a	n/a	n/a	n/a
2164.146	n/a	REC_WORD	1082073	wordpools/wasnorm_wordpool.txt	LTP091	ltpFR	14	12	1	SUPERMARKET	1409	n/a	n/a	0	n/a	n/a	n/a	n/a	n/a
2165.398	n/a	REC_WORD	1082699	wordpools/wasnorm_wordpool.txt	LTP091	ltpFR	14	12	1	MAGAZINE	853	n/a	n/a	0	n/a	n/a	n/a	n/a	n/a
2166.576	n/a	REC_WORD	1083288	wordpools/wasnorm_wordpool.txt	LTP091	ltpFR	14	12	1	TELEVISION	1447	n/a	n/a	0	n/a	n/a	n/a	n/a	n/a
2168.786	n/a	REC_WORD	1084393	wordpools/wasnorm_wordpool.txt	LTP091	ltpFR	14	12	0	COWBOY	395	n/a	n/a	0	n/a	n/a	n/a	n/a	n/a
2169.768	n/a	REC_WORD	1084884	wordpools/wasnorm_wordpool.txt	LTP091	ltpFR	14	12	0	CACTUS	215	n/a	n/a	0	n/a	n/a	n/a	n/a	n/a
2170.726	n/a	REC_WORD	1085363	wordpools/wasnorm_wordpool.txt	LTP091	ltpFR	14	12	0	CAMEL	223	n/a	n/a	0	n/a	n/a	n/a	n/a	n/a
2171.36	n/a	REC_WORD	1085680	wordpools/wasnorm_wordpool.txt	LTP091	ltpFR	14	12	0	CIGARETTE	309	n/a	n/a	0	n/a	n/a	n/a	n/a	n/a
2172.094	n/a	REC_WORD	1086047	wordpools/wasnorm_wordpool.txt	LTP091	ltpFR	14	12	0	CIGAR	308	n/a	n/a	0	n/a	n/a	n/a	n/a	n/a
2183.184	n/a	REC_WORD	1091592	wordpools/wasnorm_wordpool.txt	LTP091	ltpFR	14	12	1	NET	946	n/a	n/a	0	n/a	n/a	n/a	n/a	n/a
2196.08	n/a	REC_WORD	1098040	wordpools/wasnorm_wordpool.txt	LTP091	ltpFR	14	12	n/a	BIRD	129	n/a	n/a	n/a	n/a	n/a	n/a	n/a	n/a
2201.238	n/a	REC_WORD	1100619	wordpools/wasnorm_wordpool.txt	LTP091	ltpFR	14	12	1	QUAIL	1147	n/a	n/a	0	n/a	n/a	n/a	n/a	n/a
2210.754	n/a	REC_WORD	1105377	wordpools/wasnorm_wordpool.txt	LTP091	ltpFR	14	12	1	SERVER	1272	n/a	n/a	1	n/a	n/a	n/a	n/a	n/a
2211.53	n/a	REC_WORD	1105765	wordpools/wasnorm_wordpool.txt	LTP091	ltpFR	14	12	1	SERVANT	1271	n/a	n/a	0	n/a	n/a	n/a	n/a	n/a
2224.688	n/a	REST_REWET	1112344	n/a	LTP091	ltpFR	14	12	n/a	n/a	n/a	n/a	n/a	n/a	n/a	n/a	n/a	n/a	n/a
2521.604	n/a	WORD	1260802	wordpools/wasnorm_wordpool.txt	LTP091	ltpFR	14	13	0	POSSUM	1112	n/a	n/a	0	0.422607421875	0.5869140625	0	lower	zerothre.ttf
2525.438	n/a	WORD	1262719	wordpools/wasnorm_wordpool.txt	LTP091	ltpFR	14	13	0	ASSISTANT	48	n/a	n/a	0	0.422607421875	0.5869140625	0	lower	zerothre.ttf
2529.622	n/a	WORD	1264811	wordpools/wasnorm_wordpool.txt	LTP091	ltpFR	14	13	0	CHAPEL	280	n/a	n/a	0	0.422607421875	0.5869140625	0	lower	zerothre.ttf
2533.446	n/a	WORD	1266723	wordpools/wasnorm_wordpool.txt	LTP091	ltpFR	14	13	0	BIBLE	124	n/a	n/a	0	0.422607421875	0.5869140625	0	lower	zerothre.ttf
2537.612	n/a	WORD	1268806	wordpools/wasnorm_wordpool.txt	LTP091	ltpFR	14	13	0	COLONEL	348	n/a	n/a	0	0.422607421875	0.5869140625	0	lower	zerothre.ttf
2541.538	n/a	WORD	1270769	wordpools/wasnorm_wordpool.txt	LTP091	ltpFR	14	13	1	CAT	257	n/a	n/a	0	0.57763671875	0.412841796875	1	upper	amplitud.ttf
2545.53	n/a	WORD	1272765	wordpools/wasnorm_wordpool.txt	LTP091	ltpFR	14	13	1	BRUSH	182	n/a	n/a	0	0.57763671875	0.412841796875	1	upper	amplitud.ttf
2549.422	n/a	WORD	1274711	wordpools/wasnorm_wordpool.txt	LTP091	ltpFR	14	13	1	COMB	351	n/a	n/a	0	0.57763671875	0.412841796875	1	upper	amplitud.ttf
2553.362	n/a	WORD	1276681	wordpools/wasnorm_wordpool.txt	LTP091	ltpFR	14	13	1	CELLO	268	n/a	n/a	0	0.57763671875	0.412841796875	1	upper	amplitud.ttf
2557.446	n/a	WORD	1278723	wordpools/wasnorm_wordpool.txt	LTP091	ltpFR	14	13	1	PRISON	1127	n/a	n/a	0	0.57763671875	0.412841796875	1	upper	amplitud.ttf
2561.396	n/a	WORD	1280698	wordpools/wasnorm_wordpool.txt	LTP091	ltpFR	14	13	0	BARRACUDA	90	n/a	n/a	0	0.422607421875	0.5869140625	0	lower	zerothre.ttf
2565.22	n/a	WORD	1282610	wordpools/wasnorm_wordpool.txt	LTP091	ltpFR	14	13	0	PELT	1040	n/a	n/a	0	0.422607421875	0.5869140625	0	lower	zerothre.ttf
2569.42	n/a	WORD	1284710	wordpools/wasnorm_wordpool.txt	LTP091	ltpFR	14	13	0	WAIST	1579	n/a	n/a	0	0.422607421875	0.5869140625	0	lower	zerothre.ttf
2573.404	n/a	WORD	1286702	wordpools/wasnorm_wordpool.txt	LTP091	ltpFR	14	13	1	PRISONER	1128	n/a	n/a	1	0.57763671875	0.412841796875	1	upper	amplitud.ttf
2577.604	n/a	WORD	1288802	wordpools/wasnorm_wordpool.txt	LTP091	ltpFR	14	13	1	PORPOISE	1109	n/a	n/a	1	0.57763671875	0.412841796875	1	upper	amplitud.ttf
2581.746	n/a	WORD	1290873	wordpools/wasnorm_wordpool.txt	LTP091	ltpFR	14	13	1	FLEA	577	n/a	n/a	1	0.57763671875	0.412841796875	1	upper	amplitud.ttf
2587.43	n/a	REC_START	1293715	n/a	LTP091	ltpFR	14	13	n/a	n/a	n/a	n/a	n/a	n/a	n/a	n/a	n/a	n/a	n/a
2588.288	n/a	REC_WORD	1294144	wordpools/wasnorm_wordpool.txt	LTP091	ltpFR	14	13	1	PORPOISE	1109	n/a	n/a	1	n/a	n/a	n/a	n/a	n/a
2589.018	n/a	REC_WORD	1294509	wordpools/wasnorm_wordpool.txt	LTP091	ltpFR	14	13	1	FLEA	577	n/a	n/a	1	n/a	n/a	n/a	n/a	n/a
2589.944	n/a	REC_WORD	1294972	wordpools/wasnorm_wordpool.txt	LTP091	ltpFR	14	13	-1	ALLIGATOR	16	n/a	n/a	-1	n/a	n/a	n/a	n/a	n/a
2591.196	n/a	REC_WORD	1295598	wordpools/wasnorm_wordpool.txt	LTP091	ltpFR	14	13	n/a	CROCODILE	411	n/a	n/a	n/a	n/a	n/a	n/a	n/a	n/a
2592.976	n/a	REC_WORD	1296488	wordpools/wasnorm_wordpool.txt	LTP091	ltpFR	14	13	n/a	OTTER	986	n/a	n/a	n/a	n/a	n/a	n/a	n/a	n/a
2593.854	n/a	REC_WORD	1296927	wordpools/wasnorm_wordpool.txt	LTP091	ltpFR	14	13	n/a	GOO	648	n/a	n/a	n/a	n/a	n/a	n/a	n/a	n/a
2597.212	n/a	REC_WORD	1298606	wordpools/wasnorm_wordpool.txt	LTP091	ltpFR	14	13	0	COWBOY	395	n/a	n/a	0	n/a	n/a	n/a	n/a	n/a
2598.698	n/a	REC_WORD	1299349	wordpools/wasnorm_wordpool.txt	LTP091	ltpFR	14	13	0	MONK	910	n/a	n/a	0	n/a	n/a	n/a	n/a	n/a
2599.484	n/a	REC_WORD	1299742	wordpools/wasnorm_wordpool.txt	LTP091	ltpFR	14	13	0	CACTUS	215	n/a	n/a	0	n/a	n/a	n/a	n/a	n/a
2600.576	n/a	REC_WORD	1300288	wordpools/wasnorm_wordpool.txt	LTP091	ltpFR	14	13	0	CIGAR	308	n/a	n/a	0	n/a	n/a	n/a	n/a	n/a
2601.3	n/a	REC_WORD	1300650	wordpools/wasnorm_wordpool.txt	LTP091	ltpFR	14	13	0	CIGARETTE	309	n/a	n/a	0	n/a	n/a	n/a	n/a	n/a
2606.082	n/a	REC_WORD	1303041	wordpools/wasnorm_wordpool.txt	LTP091	ltpFR	14	13	0	CHAPEL	280	n/a	n/a	0	n/a	n/a	n/a	n/a	n/a
2607.56	n/a	REC_WORD	1303780	wordpools/wasnorm_wordpool.txt	LTP091	ltpFR	14	13	0	BIBLE	124	n/a	n/a	0	n/a	n/a	n/a	n/a	n/a
2610.522	n/a	REC_WORD	1305261	wordpools/wasnorm_wordpool.txt	LTP091	ltpFR	14	13	1	BRUSH	182	n/a	n/a	0	n/a	n/a	n/a	n/a	n/a
2613.976	n/a	REC_WORD	1306988	wordpools/wasnorm_wordpool.txt	LTP091	ltpFR	14	13	n/a	STROKE	-1	n/a	n/a	n/a	n/a	n/a	n/a	n/a	n/a
2617.468	n/a	REC_WORD	1308734	wordpools/wasnorm_wordpool.txt	LTP091	ltpFR	14	13	0	POSSUM	1112	n/a	n/a	0	n/a	n/a	n/a	n/a	n/a
2618.214	n/a	REC_WORD	1309107	wordpools/wasnorm_wordpool.txt	LTP091	ltpFR	14	13	0	ASSISTANT	48	n/a	n/a	0	n/a	n/a	n/a	n/a	n/a
2619.624	n/a	REC_WORD	1309812	wordpools/wasnorm_wordpool.txt	LTP091	ltpFR	14	13	n/a	SECRETARY	1265	n/a	n/a	n/a	n/a	n/a	n/a	n/a	n/a
2620.986	n/a	REC_WORD	1310493	wordpools/wasnorm_wordpool.txt	LTP091	ltpFR	14	13	n/a	MANAGER	863	n/a	n/a	n/a	n/a	n/a	n/a	n/a	n/a
2632.744	n/a	REC_WORD	1316372	wordpools/wasnorm_wordpool.txt	LTP091	ltpFR	14	13	1	CAT	257	n/a	n/a	0	n/a	n/a	n/a	n/a	n/a
2670.952	n/a	WORD	1335476	wordpools/wasnorm_wordpool.txt	LTP091	ltpFR	14	14	0	SKIRT	1319	n/a	n/a	0	0.422607421875	0.5869140625	0	lower	zerothre.ttf
2674.81	n/a	WORD	1337405	wordpools/wasnorm_wordpool.txt	LTP091	ltpFR	14	14	0	BUTTON	207	n/a	n/a	0	0.422607421875	0.5869140625	0	lower	zerothre.ttf
2678.728	n/a	WORD	1339364	wordpools/wasnorm_wordpool.txt	LTP091	ltpFR	14	14	0	FLOUR	583	n/a	n/a	0	0.422607421875	0.5869140625	0	lower	zerothre.ttf
2682.668	n/a	WORD	1341334	wordpools/wasnorm_wordpool.txt	LTP091	ltpFR	14	14	0	LEAF	808	n/a	n/a	0	0.422607421875	0.5869140625	0	lower	zerothre.ttf
2686.576	n/a	WORD	1343288	wordpools/wasnorm_wordpool.txt	LTP091	ltpFR	14	14	0	WILDERNESS	1610	n/a	n/a	1	0.422607421875	0.5869140625	0	lower	zerothre.ttf
2690.392	n/a	WORD	1345196	wordpools/wasnorm_wordpool.txt	LTP091	ltpFR	14	14	0	PHOTO	1055	n/a	n/a	0	0.422607421875	0.5869140625	0	lower	zerothre.ttf
2694.516	n/a	WORD	1347258	wordpools/wasnorm_wordpool.txt	LTP091	ltpFR	14	14	0	TOURIST	1488	n/a	n/a	0	0.422607421875	0.5869140625	0	lower	zerothre.ttf
2698.56	n/a	WORD	1349280	wordpools/wasnorm_wordpool.txt	LTP091	ltpFR	14	14	0	COURSE	390	n/a	n/a	0	0.422607421875	0.5869140625	0	lower	zerothre.ttf
2702.55	n/a	WORD	1351275	wordpools/wasnorm_wordpool.txt	LTP091	ltpFR	14	14	0	KETTLE	772	n/a	n/a	0	0.422607421875	0.5869140625	0	lower	zerothre.ttf
2706.542	n/a	WORD	1353271	wordpools/wasnorm_wordpool.txt	LTP091	ltpFR	14	14	0	LOAF	835	n/a	n/a	0	0.422607421875	0.5869140625	0	lower	zerothre.ttf
2710.642	n/a	WORD	1355321	wordpools/wasnorm_wordpool.txt	LTP091	ltpFR	14	14	0	KNIGHT	786	n/a	n/a	1	0.422607421875	0.5869140625	0	lower	zerothre.ttf
2714.792	n/a	WORD	1357396	wordpools/wasnorm_wordpool.txt	LTP091	ltpFR	14	14	0	MUSTARD	935	n/a	n/a	0	0.422607421875	0.5869140625	0	lower	zerothre.ttf
2718.776	n/a	WORD	1359388	wordpools/wasnorm_wordpool.txt	LTP091	ltpFR	14	14	0	ASPIRIN	47	n/a	n/a	0	0.422607421875	0.5869140625	0	lower	zerothre.ttf
2722.726	n/a	WORD	1361363	wordpools/wasnorm_wordpool.txt	LTP091	ltpFR	14	14	0	SHEPHERD	1283	n/a	n/a	0	0.422607421875	0.5869140625	0	lower	zerothre.ttf
2726.776	n/a	WORD	1363388	wordpools/wasnorm_wordpool.txt	LTP091	ltpFR	14	14	0	MAYONNAISE	880	n/a	n/a	0	0.422607421875	0.5869140625	0	lower	zerothre.ttf
2730.866	n/a	WORD	1365433	wordpools/wasnorm_wordpool.txt	LTP091	ltpFR	14	14	0	CABINET	212	n/a	n/a	0	0.422607421875	0.5869140625	0	lower	zerothre.ttf
2736.484	n/a	REC_START	1368242	n/a	LTP091	ltpFR	14	14	n/a	n/a	n/a	n/a	n/a	n/a	n/a	n/a	n/a	n/a	n/a
2737.254	n/a	REC_WORD	1368627	wordpools/wasnorm_wordpool.txt	LTP091	ltpFR	14	14	0	CABINET	212	n/a	n/a	0	n/a	n/a	n/a	n/a	n/a
2739.502	n/a	REC_WORD	1369751	wordpools/wasnorm_wordpool.txt	LTP091	ltpFR	14	14	0	SHEPHERD	1283	n/a	n/a	0	n/a	n/a	n/a	n/a	n/a
2740.52	n/a	REC_WORD	1370260	wordpools/wasnorm_wordpool.txt	LTP091	ltpFR	14	14	n/a	SHEEP	1278	n/a	n/a	n/a	n/a	n/a	n/a	n/a	n/a
2742.934	n/a	REC_WORD	1371467	wordpools/wasnorm_wordpool.txt	LTP091	ltpFR	14	14	n/a	HINGE	709	n/a	n/a	n/a	n/a	n/a	n/a	n/a	n/a
2746.6	n/a	REC_WORD	1373300	wordpools/wasnorm_wordpool.txt	LTP091	ltpFR	14	14	n/a	SHED	1277	n/a	n/a	n/a	n/a	n/a	n/a	n/a	n/a
2755.276	n/a	REC_WORD	1377638	wordpools/wasnorm_wordpool.txt	LTP091	ltpFR	14	14	1	CAFETERIA	217	n/a	n/a	0	n/a	n/a	n/a	n/a	n/a
2763.038	n/a	REC_WORD	1381519	wordpools/wasnorm_wordpool.txt	LTP091	ltpFR	14	14	n/a	NIGHT	-1	n/a	n/a	n/a	n/a	n/a	n/a	n/a	n/a
2764.45	n/a	REC_WORD	1382225	wordpools/wasnorm_wordpool.txt	LTP091	ltpFR	14	14	0	COWBOY	395	n/a	n/a	0	n/a	n/a	n/a	n/a	n/a
2766.432	n/a	REC_WORD	1383216	wordpools/wasnorm_wordpool.txt	LTP091	ltpFR	14	14	0	MONK	910	n/a	n/a	0	n/a	n/a	n/a	n/a	n/a
2767.29	n/a	REC_WORD	1383645	wordpools/wasnorm_wordpool.txt	LTP091	ltpFR	14	14	0	CACTUS	215	n/a	n/a	0	n/a	n/a	n/a	n/a	n/a
2768.94	n/a	REC_WORD	1384470	wordpools/wasnorm_wordpool.txt	LTP091	ltpFR	14	14	0	CIGARETTE	309	n/a	n/a	0	n/a	n/a	n/a	n/a	n/a
2769.924	n/a	REC_WORD	1384962	wordpools/wasnorm_wordpool.txt	LTP091	ltpFR	14	14	0	CIGAR	308	n/a	n/a	0	n/a	n/a	n/a	n/a	n/a
2771.116	n/a	REC_WORD	1385558	wordpools/wasnorm_wordpool.txt	LTP091	ltpFR	14	14	0	CAMEL	223	n/a	n/a	0	n/a	n/a	n/a	n/a	n/a
2773.914	n/a	REC_WORD	1386957	wordpools/wasnorm_wordpool.txt	LTP091	ltpFR	14	14	1	TELEVISION	1447	n/a	n/a	0	n/a	n/a	n/a	n/a	n/a
2774.738	n/a	REC_WORD	1387369	wordpools/wasnorm_wordpool.txt	LTP091	ltpFR	14	14	1	MAGAZINE	853	n/a	n/a	0	n/a	n/a	n/a	n/a	n/a
2775.39	n/a	REC_WORD	1387695	wordpools/wasnorm_wordpool.txt	LTP091	ltpFR	14	14	1	SUPERMARKET	1409	n/a	n/a	0	n/a	n/a	n/a	n/a	n/a
2777.452	n/a	REC_WORD	1388726	wordpools/wasnorm_wordpool.txt	LTP091	ltpFR	14	14	-1	EDITORIAL	517	n/a	n/a	-1	n/a	n/a	n/a	n/a	n/a
2778.126	n/a	REC_WORD	1389063	wordpools/wasnorm_wordpool.txt	LTP091	ltpFR	14	14	-1	NEWSPAPER	948	n/a	n/a	-1	n/a	n/a	n/a	n/a	n/a
2784.71	n/a	REC_WORD	1392355	wordpools/wasnorm_wordpool.txt	LTP091	ltpFR	14	14	0	PILOT	1070	n/a	n/a	1	n/a	n/a	n/a	n/a	n/a
2786.212	n/a	REC_WORD	1393106	wordpools/wasnorm_wordpool.txt	LTP091	ltpFR	14	14	n/a	SECRETARY	1265	n/a	n/a	n/a	n/a	n/a	n/a	n/a	n/a
2787.27	n/a	REC_WORD	1393635	wordpools/wasnorm_wordpool.txt	LTP091	ltpFR	14	14	n/a	MANAGER	863	n/a	n/a	n/a	n/a	n/a	n/a	n/a	n/a
2792.538	n/a	REC_WORD	1396269	wordpools/wasnorm_wordpool.txt	LTP091	ltpFR	14	14	0	KITE	779	n/a	n/a	1	n/a	n/a	n/a	n/a	n/a
2793.246	n/a	REC_WORD	1396623	wordpools/wasnorm_wordpool.txt	LTP091	ltpFR	14	14	n/a	DOOR	486	n/a	n/a	n/a	n/a	n/a	n/a	n/a	n/a
2806.792	n/a	REC_WORD	1403396	wordpools/wasnorm_wordpool.txt	LTP091	ltpFR	14	14	0	SKIRT	1319	n/a	n/a	0	n/a	n/a	n/a	n/a	n/a
2807.964	n/a	REC_WORD	1403982	wordpools/wasnorm_wordpool.txt	LTP091	ltpFR	14	14	0	LEAF	808	n/a	n/a	0	n/a	n/a	n/a	n/a	n/a
2808.946	n/a	REC_WORD	1404473	wordpools/wasnorm_wordpool.txt	LTP091	ltpFR	14	14	0	FLOUR	583	n/a	n/a	0	n/a	n/a	n/a	n/a	n/a
2809.77	n/a	REC_WORD	1404885	wordpools/wasnorm_wordpool.txt	LTP091	ltpFR	14	14	0	BUTTON	207	n/a	n/a	0	n/a	n/a	n/a	n/a	n/a
2815.322	n/a	WORD	1407661	wordpools/wasnorm_wordpool.txt	LTP091	ltpFR	14	15	1	DANCER	437	n/a	n/a	1	0.57763671875	0.412841796875	1	upper	amplitud.ttf
2819.448	n/a	WORD	1409724	wordpools/wasnorm_wordpool.txt	LTP091	ltpFR	14	15	1	SHRIMP	1297	n/a	n/a	1	0.57763671875	0.412841796875	1	upper	amplitud.ttf
2823.414	n/a	WORD	1411707	wordpools/wasnorm_wordpool.txt	LTP091	ltpFR	14	15	1	TABLE	1426	n/a	n/a	0	0.57763671875	0.412841796875	1	upper	amplitud.ttf
2827.522	n/a	WORD	1413761	wordpools/wasnorm_wordpool.txt	LTP091	ltpFR	14	15	1	FURNITURE	616	n/a	n/a	0	0.57763671875	0.412841796875	1	upper	amplitud.ttf
2831.372	n/a	WORD	1415686	wordpools/wasnorm_wordpool.txt	LTP091	ltpFR	14	15	1	PLIERS	1089	n/a	n/a	0	0.57763671875	0.412841796875	1	upper	amplitud.ttf
2835.43	n/a	WORD	1417715	wordpools/wasnorm_wordpool.txt	LTP091	ltpFR	14	15	1	FLOWER	584	n/a	n/a	0	0.57763671875	0.412841796875	1	upper	amplitud.ttf
2839.488	n/a	WORD	1419744	wordpools/wasnorm_wordpool.txt	LTP091	ltpFR	14	15	1	SCALLOP	1242	n/a	n/a	1	0.57763671875	0.412841796875	1	upper	amplitud.ttf
2843.572	n/a	WORD	1421786	wordpools/wasnorm_wordpool.txt	LTP091	ltpFR	14	15	1	WOLF	1619	n/a	n/a	1	0.57763671875	0.412841796875	1	upper	amplitud.ttf
2847.672	n/a	WORD	1423836	wordpools/wasnorm_wordpool.txt	LTP091	ltpFR	14	15	1	PRIMATE	1123	n/a	n/a	1	0.57763671875	0.412841796875	1	upper	amplitud.ttf
2851.72	n/a	WORD	1425860	wordpools/wasnorm_wordpool.txt	LTP091	ltpFR	14	15	1	SKIN	1318	n/a	n/a	0	0.57763671875	0.412841796875	1	upper	amplitud.ttf
2855.654	n/a	WORD	1427827	wordpools/wasnorm_wordpool.txt	LTP091	ltpFR	14	15	1	TURNIP	1521	n/a	n/a	0	0.57763671875	0.412841796875	1	upper	amplitud.ttf
2859.848	n/a	WORD	1429924	wordpools/wasnorm_wordpool.txt	LTP091	ltpFR	14	15	1	RADISH	1158	n/a	n/a	1	0.57763671875	0.412841796875	1	upper	amplitud.ttf
2863.756	n/a	WORD	1431878	wordpools/wasnorm_wordpool.txt	LTP091	ltpFR	14	15	1	CONCRETE	361	n/a	n/a	0	0.57763671875	0.412841796875	1	upper	amplitud.ttf
2867.78	n/a	WORD	1433890	wordpools/wasnorm_wordpool.txt	LTP091	ltpFR	14	15	1	SAW	1239	n/a	n/a	0	0.57763671875	0.412841796875	1	upper	amplitud.ttf
2871.696	n/a	WORD	1435848	wordpools/wasnorm_wordpool.txt	LTP091	ltpFR	14	15	1	JAM	748	n/a	n/a	0	0.57763671875	0.412841796875	1	upper	amplitud.ttf
2875.748	n/a	WORD	1437874	wordpools/wasnorm_wordpool.txt	LTP091	ltpFR	14	15	1	PEARL	1034	n/a	n/a	0	0.57763671875	0.412841796875	1	upper	amplitud.ttf
2881.454	n/a	REC_START	1440727	n/a	LTP091	ltpFR	14	15	n/a	n/a	n/a	n/a	n/a	n/a	n/a	n/a	n/a	n/a	n/a
2882.102	n/a	REC_WORD	1441051	wordpools/wasnorm_wordpool.txt	LTP091	ltpFR	14	15	1	PEARL	1034	n/a	n/a	0	n/a	n/a	n/a	n/a	n/a
2882.916	n/a	REC_WORD	1441458	wordpools/wasnorm_wordpool.txt	LTP091	ltpFR	14	15	n/a	TOOL	1480	n/a	n/a	n/a	n/a	n/a	n/a	n/a	n/a
2883.834	n/a	REC_WORD	1441917	wordpools/wasnorm_wordpool.txt	LTP091	ltpFR	14	15	1	SAW	1239	n/a	n/a	0	n/a	n/a	n/a	n/a	n/a
2884.602	n/a	REC_WORD	1442301	wordpools/wasnorm_wordpool.txt	LTP091	ltpFR	14	15	1	PLIERS	1089	n/a	n/a	0	n/a	n/a	n/a	n/a	n/a
2885.47	n/a	REC_WORD	1442735	wordpools/wasnorm_wordpool.txt	LTP091	ltpFR	14	15	1	DANCER	437	n/a	n/a	1	n/a	n/a	n/a	n/a	n/a
2886.622	n/a	REC_WORD	1443311	wordpools/wasnorm_wordpool.txt	LTP091	ltpFR	14	15	n/a	SCISSORS	1250	n/a	n/a	n/a	n/a	n/a	n/a	n/a	n/a
2895.658	n/a	REC_WORD	1447829	wordpools/wasnorm_wordpool.txt	LTP091	ltpFR	14	15	1	JAM	748	n/a	n/a	0	n/a	n/a	n/a	n/a	n/a
2906.484	n/a	REC_WORD	1453242	wordpools/wasnorm_wordpool.txt	LTP091	ltpFR	14	15	1	WOLF	1619	n/a	n/a	1	n/a	n/a	n/a	n/a	n/a
2907.776	n/a	REC_WORD	1453888	wordpools/wasnorm_wordpool.txt	LTP091	ltpFR	14	15	n/a	SHEEP	1278	n/a	n/a	n/a	n/a	n/a	n/a	n/a	n/a
2908.452	n/a	REC_WORD	1454226	wordpools/wasnorm_wordpool.txt	LTP091	ltpFR	14	15	0	SHEPHERD	1283	n/a	n/a	0	n/a	n/a	n/a	n/a	n/a
2910.18	n/a	REC_WORD	1455090	wordpools/wasnorm_wordpool.txt	LTP091	ltpFR	14	15	0	COWBOY	395	n/a	n/a	0	n/a	n/a	n/a	n/a	n/a
2912.436	n/a	REC_WORD	1456218	wordpools/wasnorm_wordpool.txt	LTP091	ltpFR	14	15	0	MONK	910	n/a	n/a	0	n/a	n/a	n/a	n/a	n/a
2916.456	n/a	REC_WORD	1458228	wordpools/wasnorm_wordpool.txt	LTP091	ltpFR	14	15	1	TELEVISION	1447	n/a	n/a	0	n/a	n/a	n/a	n/a	n/a
2917.136	n/a	REC_WORD	1458568	wordpools/wasnorm_wordpool.txt	LTP091	ltpFR	14	15	-1	NEWSPAPER	948	n/a	n/a	-1	n/a	n/a	n/a	n/a	n/a
2918.752	n/a	REC_WORD	1459376	wordpools/wasnorm_wordpool.txt	LTP091	ltpFR	14	15	-1	EDITORIAL	517	n/a	n/a	-1	n/a	n/a	n/a	n/a	n/a
2919.58	n/a	REC_WORD	1459790	wordpools/wasnorm_wordpool.txt	LTP091	ltpFR	14	15	1	MAGAZINE	853	n/a	n/a	0	n/a	n/a	n/a	n/a	n/a
2920.18	n/a	REC_WORD	1460090	wordpools/wasnorm_wordpool.txt	LTP091	ltpFR	14	15	1	SUPERMARKET	1409	n/a	n/a	0	n/a	n/a	n/a	n/a	n/a
2920.894	n/a	REC_WORD	1460447	wordpools/wasnorm_wordpool.txt	LTP091	ltpFR	14	15	1	TELEVISION	1447	n/a	n/a	0	n/a	n/a	n/a	n/a	n/a
2923.076	n/a	REC_WORD	1461538	wordpools/wasnorm_wordpool.txt	LTP091	ltpFR	14	15	0	KITE	779	n/a	n/a	1	n/a	n/a	n/a	n/a	n/a
2924.798	n/a	REC_WORD	1462399	wordpools/wasnorm_wordpool.txt	LTP091	ltpFR	14	15	n/a	DOOR	486	n/a	n/a	n/a	n/a	n/a	n/a	n/a	n/a
2959.46	n/a	WORD	1479730	wordpools/wasnorm_wordpool.txt	LTP091	ltpFR	14	16	-1	ASTEROID	50	n/a	n/a	-1	1.0	1.0	1	upper	Verdana.ttf
2963.56	n/a	WORD	1481780	wordpools/wasnorm_wordpool.txt	LTP091	ltpFR	14	16	-1	WAVE	1596	n/a	n/a	-1	1.0	1.0	1	upper	Verdana.ttf
2967.376	n/a	WORD	1483688	wordpools/wasnorm_wordpool.txt	LTP091	ltpFR	14	16	-1	WINE	1613	n/a	n/a	-1	1.0	1.0	1	upper	Verdana.ttf
2971.544	n/a	WORD	1485772	wordpools/wasnorm_wordpool.txt	LTP091	ltpFR	14	16	-1	SALOON	1228	n/a	n/a	-1	1.0	1.0	1	upper	Verdana.ttf
2975.536	n/a	WORD	1487768	wordpools/wasnorm_wordpool.txt	LTP091	ltpFR	14	16	-1	TUTU	1524	n/a	n/a	-1	1.0	1.0	1	upper	Verdana.ttf
2979.552	n/a	WORD	1489776	wordpools/wasnorm_wordpool.txt	LTP091	ltpFR	14	16	-1	ELECTRICIAN	521	n/a	n/a	-1	1.0	1.0	1	upper	Verdana.ttf
2983.426	n/a	WORD	1491713	wordpools/wasnorm_wordpool.txt	LTP091	ltpFR	14	16	-1	SPRINKLE	1359	n/a	n/a	-1	1.0	1.0	1	upper	Verdana.ttf
2987.434	n/a	WORD	1493717	wordpools/wasnorm_wordpool.txt	LTP091	ltpFR	14	16	-1	HEATER	698	n/a	n/a	-1	1.0	1.0	1	upper	Verdana.ttf
2991.326	n/a	WORD	1495663	wordpools/wasnorm_wordpool.txt	LTP091	ltpFR	14	16	-1	MECHANIC	884	n/a	n/a	-1	1.0	1.0	1	upper	Verdana.ttf
2995.36	n/a	WORD	1497680	wordpools/wasnorm_wordpool.txt	LTP091	ltpFR	14	16	-1	WALL	1582	n/a	n/a	-1	1.0	1.0	1	upper	Verdana.ttf
2999.392	n/a	WORD	1499696	wordpools/wasnorm_wordpool.txt	LTP091	ltpFR	14	16	-1	THRONE	1461	n/a	n/a	-1	1.0	1.0	1	upper	Verdana.ttf
3003.45	n/a	WORD	1501725	wordpools/wasnorm_wordpool.txt	LTP091	ltpFR	14	16	-1	GALAXY	617	n/a	n/a	-1	1.0	1.0	1	upper	Verdana.ttf
3007.266	n/a	WORD	1503633	wordpools/wasnorm_wordpool.txt	LTP091	ltpFR	14	16	-1	KID	775	n/a	n/a	-1	1.0	1.0	1	upper	Verdana.ttf
3011.118	n/a	WORD	1505559	wordpools/wasnorm_wordpool.txt	LTP091	ltpFR	14	16	-1	YOUTH	1634	n/a	n/a	-1	1.0	1.0	1	upper	Verdana.ttf
3015.292	n/a	WORD	1507646	wordpools/wasnorm_wordpool.txt	LTP091	ltpFR	14	16	-1	CRIB	407	n/a	n/a	-1	1.0	1.0	1	upper	Verdana.ttf
3019.134	n/a	WORD	1509567	wordpools/wasnorm_wordpool.txt	LTP091	ltpFR	14	16	-1	FAUCET	555	n/a	n/a	-1	1.0	1.0	1	upper	Verdana.ttf
3024.926	n/a	REC_START	1512463	n/a	LTP091	ltpFR	14	16	n/a	n/a	n/a	n/a	n/a	n/a	n/a	n/a	n/a	n/a	n/a
3025.426	n/a	REC_WORD	1512713	wordpools/wasnorm_wordpool.txt	LTP091	ltpFR	14	16	-1	CRIB	407	n/a	n/a	-1	n/a	n/a	n/a	n/a	n/a
3026.278	n/a	REC_WORD	1513139	wordpools/wasnorm_wordpool.txt	LTP091	ltpFR	14	16	n/a	BABY	64	n/a	n/a	n/a	n/a	n/a	n/a	n/a	n/a
3027.116	n/a	REC_WORD	1513558	wordpools/wasnorm_wordpool.txt	LTP091	ltpFR	14	16	-1	FAUCET	555	n/a	n/a	-1	n/a	n/a	n/a	n/a	n/a
3028.09	n/a	REC_WORD	1514045	wordpools/wasnorm_wordpool.txt	LTP091	ltpFR	14	16	1	VALVE	1546	n/a	n/a	0	n/a	n/a	n/a	n/a	n/a
3029.862	n/a	REC_WORD	1514931	wordpools/wasnorm_wordpool.txt	LTP091	ltpFR	14	16	-1	ASTEROID	50	n/a	n/a	-1	n/a	n/a	n/a	n/a	n/a
3030.914	n/a	REC_WORD	1515457	wordpools/wasnorm_wordpool.txt	LTP091	ltpFR	14	16	-1	WALL	1582	n/a	n/a	-1	n/a	n/a	n/a	n/a	n/a
3032.5	n/a	REC_WORD	1516250	wordpools/wasnorm_wordpool.txt	LTP091	ltpFR	14	16	-1	SPRINKLE	1359	n/a	n/a	-1	n/a	n/a	n/a	n/a	n/a
3033.468	n/a	REC_WORD	1516734	wordpools/wasnorm_wordpool.txt	LTP091	ltpFR	14	16	-1	WAVE	1596	n/a	n/a	-1	n/a	n/a	n/a	n/a	n/a
3035.06	n/a	REC_WORD	1517530	wordpools/wasnorm_wordpool.txt	LTP091	ltpFR	14	16	n/a	OCEAN	970	n/a	n/a	n/a	n/a	n/a	n/a	n/a	n/a
3037.134	n/a	REC_WORD	1518567	wordpools/wasnorm_wordpool.txt	LTP091	ltpFR	14	16	n/a	CORAL	378	n/a	n/a	n/a	n/a	n/a	n/a	n/a	n/a
3041.624	n/a	REC_WORD	1520812	wordpools/wasnorm_wordpool.txt	LTP091	ltpFR	14	16	n/a	LIVING	-1	n/a	n/a	n/a	n/a	n/a	n/a	n/a	n/a
3047.346	n/a	REC_WORD	1523673	wordpools/wasnorm_wordpool.txt	LTP091	ltpFR	14	16	1	DANCER	437	n/a	n/a	1	n/a	n/a	n/a	n/a	n/a
3049.188	n/a	REC_WORD	1524594	wordpools/wasnorm_wordpool.txt	LTP091	ltpFR	14	16	-1	ELECTRICIAN	521	n/a	n/a	-1	n/a	n/a	n/a	n/a	n/a
3050.764	n/a	REC_WORD	1525382	wordpools/wasnorm_wordpool.txt	LTP091	ltpFR	14	16	n/a	PLUMBER	1091	n/a	n/a	n/a	n/a	n/a	n/a	n/a	n/a
3051.652	n/a	REC_WORD	1525826	wordpools/wasnorm_wordpool.txt	LTP091	ltpFR	14	16	-1	MECHANIC	884	n/a	n/a	-1	n/a	n/a	n/a	n/a	n/a
3052.89	n/a	REC_WORD	1526445	wordpools/wasnorm_wordpool.txt	LTP091	ltpFR	14	16	n/a	CAR	241	n/a	n/a	n/a	n/a	n/a	n/a	n/a	n/a
3061.186	n/a	REC_WORD	1530593	wordpools/wasnorm_wordpool.txt	LTP091	ltpFR	14	16	0	MOUSE	925	n/a	n/a	0	n/a	n/a	n/a	n/a	n/a
3063.864	n/a	REC_WORD	1531932	wordpools/wasnorm_wordpool.txt	LTP091	ltpFR	14	16	1	TERMITE	1451	n/a	n/a	1	n/a	n/a	n/a	n/a	n/a
3065.022	n/a	REC_WORD	1532511	wordpools/wasnorm_wordpool.txt	LTP091	ltpFR	14	16	1	ROACH	1195	n/a	n/a	1	n/a	n/a	n/a	n/a	n/a
3109.1	n/a	REC_START	1554550	n/a	LTP091	ltpFR	14	n/a	n/a	n/a	n/a	n/a	n/a	n/a	n/a	n/a	n/a	n/a	n/a
3110.822	n/a	FFR_REC_WORD	1555411	wordpools/wasnorm_wordpool.txt	LTP091	ltpFR	14	n/a	-1	NEWSPAPER	948	n/a	n/a	-1	n/a	n/a	n/a	n/a	n/a
3111.412	n/a	FFR_REC_WORD	1555706	wordpools/wasnorm_wordpool.txt	LTP091	ltpFR	14	n/a	-1	EDITORIAL	517	n/a	n/a	-1	n/a	n/a	n/a	n/a	n/a
3111.994	n/a	FFR_REC_WORD	1555997	wordpools/wasnorm_wordpool.txt	LTP091	ltpFR	14	n/a	1	MAGAZINE	853	n/a	n/a	0	n/a	n/a	n/a	n/a	n/a
3112.676	n/a	FFR_REC_WORD	1556338	wordpools/wasnorm_wordpool.txt	LTP091	ltpFR	14	n/a	1	SUPERMARKET	1409	n/a	n/a	0	n/a	n/a	n/a	n/a	n/a
3114.208	n/a	FFR_REC_WORD	1557104	wordpools/wasnorm_wordpool.txt	LTP091	ltpFR	14	n/a	1	TELEVISION	1447	n/a	n/a	0	n/a	n/a	n/a	n/a	n/a
3115.79	n/a	FFR_REC_WORD_VV	1557895	wordpools/wasnorm_wordpool.txt	LTP091	ltpFR	14	n/a	n/a	<>	-1	n/a	n/a	n/a	n/a	n/a	n/a	n/a	n/a
3116.862	n/a	FFR_REC_WORD	1558431	wordpools/wasnorm_wordpool.txt	LTP091	ltpFR	14	n/a	1	ARTICLE	42	n/a	n/a	0	n/a	n/a	n/a	n/a	n/a
3118.14	n/a	FFR_REC_WORD	1559070	wordpools/wasnorm_wordpool.txt	LTP091	ltpFR	14	n/a	1	FOLLOWER	589	n/a	n/a	0	n/a	n/a	n/a	n/a	n/a
3119.062	n/a	FFR_REC_WORD	1559531	wordpools/wasnorm_wordpool.txt	LTP091	ltpFR	14	n/a	1	SERVANT	1271	n/a	n/a	0	n/a	n/a	n/a	n/a	n/a
3119.822	n/a	FFR_REC_WORD	1559911	wordpools/wasnorm_wordpool.txt	LTP091	ltpFR	14	n/a	1	SERVER	1272	n/a	n/a	1	n/a	n/a	n/a	n/a	n/a
3121.468	n/a	FFR_REC_WORD	1560734	wordpools/wasnorm_wordpool.txt	LTP091	ltpFR	14	n/a	0	CACTUS	215	n/a	n/a	0	n/a	n/a	n/a	n/a	n/a
3122.074	n/a	FFR_REC_WORD	1561037	wordpools/wasnorm_wordpool.txt	LTP091	ltpFR	14	n/a	0	COWBOY	395	n/a	n/a	0	n/a	n/a	n/a	n/a	n/a
3123.448	n/a	FFR_REC_WORD	1561724	wordpools/wasnorm_wordpool.txt	LTP091	ltpFR	14	n/a	-1	SALOON	1228	n/a	n/a	-1	n/a	n/a	n/a	n/a	n/a
3124.256	n/a	FFR_REC_WORD	1562128	wordpools/wasnorm_wordpool.txt	LTP091	ltpFR	14	n/a	0	CIGARETTE	309	n/a	n/a	0	n/a	n/a	n/a	n/a	n/a
3124.9	n/a	FFR_REC_WORD	1562450	wordpools/wasnorm_wordpool.txt	LTP091	ltpFR	14	n/a	0	CIGAR	308	n/a	n/a	0	n/a	n/a	n/a	n/a	n/a
3128.362	n/a	FFR_REC_WORD	1564181	wordpools/wasnorm_wordpool.txt	LTP091	ltpFR	14	n/a	-1	ASTEROID	50	n/a	n/a	-1	n/a	n/a	n/a	n/a	n/a
3129.01	n/a	FFR_REC_WORD	1564505	wordpools/wasnorm_wordpool.txt	LTP091	ltpFR	14	n/a	-1	WAVE	1596	n/a	n/a	-1	n/a	n/a	n/a	n/a	n/a
3129.78	n/a	FFR_REC_WORD	1564890	wordpools/wasnorm_wordpool.txt	LTP091	ltpFR	14	n/a	-1	SPRINKLE	1359	n/a	n/a	-1	n/a	n/a	n/a	n/a	n/a
3131.042	n/a	FFR_REC_WORD	1565521	wordpools/wasnorm_wordpool.txt	LTP091	ltpFR	14	n/a	-1	WALL	1582	n/a	n/a	-1	n/a	n/a	n/a	n/a	n/a
3131.606	n/a	FFR_REC_WORD	1565803	wordpools/wasnorm_wordpool.txt	LTP091	ltpFR	14	n/a	n/a	CRADLE	399	n/a	n/a	n/a	n/a	n/a	n/a	n/a	n/a
3132.374	n/a	FFR_REC_WORD	1566187	wordpools/wasnorm_wordpool.txt	LTP091	ltpFR	14	n/a	n/a	BABY	64	n/a	n/a	n/a	n/a	n/a	n/a	n/a	n/a
3134.444	n/a	FFR_REC_WORD	1567222	wordpools/wasnorm_wordpool.txt	LTP091	ltpFR	14	n/a	0	KITE	779	n/a	n/a	1	n/a	n/a	n/a	n/a	n/a
3135.786	n/a	FFR_REC_WORD	1567893	wordpools/wasnorm_wordpool.txt	LTP091	ltpFR	14	n/a	n/a	DOOR	486	n/a	n/a	n/a	n/a	n/a	n/a	n/a	n/a
3139.212	n/a	FFR_REC_WORD	1569606	wordpools/wasnorm_wordpool.txt	LTP091	ltpFR	14	n/a	-1	ALLIGATOR	16	n/a	n/a	-1	n/a	n/a	n/a	n/a	n/a
3140.02	n/a	FFR_REC_WORD	1570010	wordpools/wasnorm_wordpool.txt	LTP091	ltpFR	14	n/a	-1	ANTEATER	26	n/a	n/a	-1	n/a	n/a	n/a	n/a	n/a
3142.042	n/a	FFR_REC_WORD_VV	1571021	wordpools/wasnorm_wordpool.txt	LTP091	ltpFR	14	n/a	n/a	<>	-1	n/a	n/a	n/a	n/a	n/a	n/a	n/a	n/a
3143.358	n/a	FFR_REC_WORD	1571679	wordpools/wasnorm_wordpool.txt	LTP091	ltpFR	14	n/a	n/a	COYOTE	396	n/a	n/a	n/a	n/a	n/a	n/a	n/a	n/a
3144.456	n/a	FFR_REC_WORD	1572228	wordpools/wasnorm_wordpool.txt	LTP091	ltpFR	14	n/a	-1	COUGAR	387	n/a	n/a	-1	n/a	n/a	n/a	n/a	n/a
3146.218	n/a	FFR_REC_WORD	1573109	wordpools/wasnorm_wordpool.txt	LTP091	ltpFR	14	n/a	0	SHEPHERD	1283	n/a	n/a	0	n/a	n/a	n/a	n/a	n/a
3147.22	n/a	FFR_REC_WORD	1573610	wordpools/wasnorm_wordpool.txt	LTP091	ltpFR	14	n/a	0	CABINET	212	n/a	n/a	0	n/a	n/a	n/a	n/a	n/a
3152.21	n/a	FFR_REC_WORD	1576105	wordpools/wasnorm_wordpool.txt	LTP091	ltpFR	14	n/a	1	BRUSH	182	n/a	n/a	0	n/a	n/a	n/a	n/a	n/a
3154.952	n/a	FFR_REC_WORD	1577476	wordpools/wasnorm_wordpool.txt	LTP091	ltpFR	14	n/a	1	WOLF	1619	n/a	n/a	1	n/a	n/a	n/a	n/a	n/a
3157.388	n/a	FFR_REC_WORD	1578694	wordpools/wasnorm_wordpool.txt	LTP091	ltpFR	14	n/a	n/a	BLITZER	-1	n/a	n/a	n/a	n/a	n/a	n/a	n/a	n/a
3162.6	n/a	FFR_REC_WORD	1581300	wordpools/wasnorm_wordpool.txt	LTP091	ltpFR	14	n/a	-1	HAMMER	680	n/a	n/a	-1	n/a	n/a	n/a	n/a	n/a
3163.648	n/a	FFR_REC_WORD	1581824	wordpools/wasnorm_wordpool.txt	LTP091	ltpFR	14	n/a	1	PLIERS	1089	n/a	n/a	0	n/a	n/a	n/a	n/a	n/a
3164.346	n/a	FFR_REC_WORD	1582173	wordpools/wasnorm_wordpool.txt	LTP091	ltpFR	14	n/a	1	DANCER	437	n/a	n/a	1	n/a	n/a	n/a	n/a	n/a
3165.466	n/a	FFR_REC_WORD	1582733	wordpools/wasnorm_wordpool.txt	LTP091	ltpFR	14	n/a	0	SKIRT	1319	n/a	n/a	0	n/a	n/a	n/a	n/a	n/a
3166.218	n/a	FFR_REC_WORD	1583109	wordpools/wasnorm_wordpool.txt	LTP091	ltpFR	14	n/a	0	BUTTON	207	n/a	n/a	0	n/a	n/a	n/a	n/a	n/a
3166.818	n/a	FFR_REC_WORD	1583409	wordpools/wasnorm_wordpool.txt	LTP091	ltpFR	14	n/a	0	LEAF	808	n/a	n/a	0	n/a	n/a	n/a	n/a	n/a
3167.734	n/a	FFR_REC_WORD	1583867	wordpools/wasnorm_wordpool.txt	LTP091	ltpFR	14	n/a	1	FLOWER	584	n/a	n/a	0	n/a	n/a	n/a	n/a	n/a
3171.162	n/a	FFR_REC_WORD	1585581	wordpools/wasnorm_wordpool.txt	LTP091	ltpFR	14	n/a	n/a	SALT	1229	n/a	n/a	n/a	n/a	n/a	n/a	n/a	n/a
3174.958	n/a	FFR_REC_WORD	1587479	wordpools/wasnorm_wordpool.txt	LTP091	ltpFR	14	n/a	n/a	ORNAMENT	985	n/a	n/a	n/a	n/a	n/a	n/a	n/a	n/a
3179.708	n/a	FFR_REC_WORD	1589854	wordpools/wasnorm_wordpool.txt	LTP091	ltpFR	14	n/a	-1	TREE	1502	n/a	n/a	-1	n/a	n/a	n/a	n/a	n/a
3183.04	n/a	FFR_REC_WORD	1591520	wordpools/wasnorm_wordpool.txt	LTP091	ltpFR	14	n/a	n/a	FINGER	567	n/a	n/a	n/a	n/a	n/a	n/a	n/a	n/a
3185.73	n/a	FFR_REC_WORD	1592865	wordpools/wasnorm_wordpool.txt	LTP091	ltpFR	14	n/a	n/a	KNEE	784	n/a	n/a	n/a	n/a	n/a	n/a	n/a	n/a
3188.932	n/a	FFR_REC_WORD	1594466	wordpools/wasnorm_wordpool.txt	LTP091	ltpFR	14	n/a	n/a	LIMB	822	n/a	n/a	n/a	n/a	n/a	n/a	n/a	n/a
3190.48	n/a	FFR_REC_WORD	1595240	wordpools/wasnorm_wordpool.txt	LTP091	ltpFR	14	n/a	1	JAW	751	n/a	n/a	0	n/a	n/a	n/a	n/a	n/a
3191.292	n/a	FFR_REC_WORD	1595646	wordpools/wasnorm_wordpool.txt	LTP091	ltpFR	14	n/a	1	LIP	828	n/a	n/a	0	n/a	n/a	n/a	n/a	n/a
3193.322	n/a	FFR_REC_WORD	1596661	wordpools/wasnorm_wordpool.txt	LTP091	ltpFR	14	n/a	0	TOASTER	1472	n/a	n/a	0	n/a	n/a	n/a	n/a	n/a
3196.232	n/a	FFR_REC_WORD	1598116	wordpools/wasnorm_wordpool.txt	LTP091	ltpFR	14	n/a	0	CLAY	320	n/a	n/a	0	n/a	n/a	n/a	n/a	n/a
3198.166	n/a	FFR_REC_WORD	1599083	wordpools/wasnorm_wordpool.txt	LTP091	ltpFR	14	n/a	1	BAKER	71	n/a	n/a	1	n/a	n/a	n/a	n/a	n/a
3202.258	n/a	FFR_REC_WORD	1601129	wordpools/wasnorm_wordpool.txt	LTP091	ltpFR	14	n/a	n/a	EMPEROR	529	n/a	n/a	n/a	n/a	n/a	n/a	n/a	n/a
3203.82	n/a	FFR_REC_WORD	1601910	wordpools/wasnorm_wordpool.txt	LTP091	ltpFR	14	n/a	0	COLONEL	348	n/a	n/a	0	n/a	n/a	n/a	n/a	n/a
3204.818	n/a	FFR_REC_WORD	1602409	wordpools/wasnorm_wordpool.txt	LTP091	ltpFR	14	n/a	0	CHAPEL	280	n/a	n/a	0	n/a	n/a	n/a	n/a	n/a
3206.16	n/a	FFR_REC_WORD	1603080	wordpools/wasnorm_wordpool.txt	LTP091	ltpFR	14	n/a	1	BRUSH	182	n/a	n/a	0	n/a	n/a	n/a	n/a	n/a
3208.554	n/a	FFR_REC_WORD	1604277	wordpools/wasnorm_wordpool.txt	LTP091	ltpFR	14	n/a	0	BIBLE	124	n/a	n/a	0	n/a	n/a	n/a	n/a	n/a
3211.488	n/a	FFR_REC_WORD	1605744	wordpools/wasnorm_wordpool.txt	LTP091	ltpFR	14	n/a	-1	SILK	1307	n/a	n/a	-1	n/a	n/a	n/a	n/a	n/a
3212.48	n/a	FFR_REC_WORD	1606240	wordpools/wasnorm_wordpool.txt	LTP091	ltpFR	14	n/a	-1	SWIMMER	1420	n/a	n/a	-1	n/a	n/a	n/a	n/a	n/a
3216.212	n/a	FFR_REC_WORD	1608106	wordpools/wasnorm_wordpool.txt	LTP091	ltpFR	14	n/a	-1	EYELASH	546	n/a	n/a	-1	n/a	n/a	n/a	n/a	n/a
3219.06	n/a	FFR_REC_WORD	1609530	wordpools/wasnorm_wordpool.txt	LTP091	ltpFR	14	n/a	n/a	SUBMARINE	1398	n/a	n/a	n/a	n/a	n/a	n/a	n/a	n/a
3219.988	n/a	FFR_REC_WORD	1609994	wordpools/wasnorm_wordpool.txt	LTP091	ltpFR	14	n/a	n/a	MOSS	918	n/a	n/a	n/a	n/a	n/a	n/a	n/a	n/a
3221.77	n/a	FFR_REC_WORD	1610885	wordpools/wasnorm_wordpool.txt	LTP091	ltpFR	14	n/a	n/a	ICE	730	n/a	n/a	n/a	n/a	n/a	n/a	n/a	n/a
3226.266	n/a	FFR_REC_WORD	1613133	wordpools/wasnorm_wordpool.txt	LTP091	ltpFR	14	n/a	1	PLAID	1080	n/a	n/a	0	n/a	n/a	n/a	n/a	n/a
3227.078	n/a	FFR_REC_WORD	1613539	wordpools/wasnorm_wordpool.txt	LTP091	ltpFR	14	n/a	1	DENIM	446	n/a	n/a	0	n/a	n/a	n/a	n/a	n/a
3241.012	n/a	FFR_REC_WORD	1620506	wordpools/wasnorm_wordpool.txt	LTP091	ltpFR	14	n/a	-1	RUST	1219	n/a	n/a	-1	n/a	n/a	n/a	n/a	n/a
3250.64	n/a	FFR_REC_WORD	1625320	wordpools/wasnorm_wordpool.txt	LTP091	ltpFR	14	n/a	-1	RUST	1219	n/a	n/a	-1	n/a	n/a	n/a	n/a	n/a
3257.988	n/a	FFR_REC_WORD	1628994	wordpools/wasnorm_wordpool.txt	LTP091	ltpFR	14	n/a	n/a	BALL	73	n/a	n/a	n/a	n/a	n/a	n/a	n/a	n/a
3262.8	n/a	FFR_REC_WORD	1631400	wordpools/wasnorm_wordpool.txt	LTP091	ltpFR	14	n/a	n/a	CIRCUS	311	n/a	n/a	n/a	n/a	n/a	n/a	n/a	n/a
3266.526	n/a	FFR_REC_WORD	1633263	wordpools/wasnorm_wordpool.txt	LTP091	ltpFR	14	n/a	n/a	ELEPHANT	523	n/a	n/a	n/a	n/a	n/a	n/a	n/a	n/a
3298.304	n/a	FFR_REC_WORD	1649152	wordpools/wasnorm_wordpool.txt	LTP091	ltpFR	14	n/a	1	QUAIL	1147	n/a	n/a	0	n/a	n/a	n/a	n/a	n/a
3303.668	n/a	FFR_REC_WORD	1651834	wordpools/wasnorm_wordpool.txt	LTP091	ltpFR	14	n/a	n/a	OTTER	986	n/a	n/a	n/a	n/a	n/a	n/a	n/a	n/a
3304.366	n/a	FFR_REC_WORD	1652183	wordpools/wasnorm_wordpool.txt	LTP091	ltpFR	14	n/a	n/a	GOO	648	n/a	n/a	n/a	n/a	n/a	n/a	n/a	n/a
3320.406	n/a	FFR_REC_WORD	1660203	wordpools/wasnorm_wordpool.txt	LTP091	ltpFR	14	n/a	n/a	CARROT	249	n/a	n/a	n/a	n/a	n/a	n/a	n/a	n/a
3325.954	n/a	FFR_REC_WORD	1662977	wordpools/wasnorm_wordpool.txt	LTP091	ltpFR	14	n/a	n/a	RELISH	1183	n/a	n/a	n/a	n/a	n/a	n/a	n/a	n/a
3339.158	n/a	FFR_REC_WORD	1669579	wordpools/wasnorm_wordpool.txt	LTP091	ltpFR	14	n/a	-1	ELECTRICIAN	521	n/a	n/a	-1	n/a	n/a	n/a	n/a	n/a
3340.118	n/a	FFR_REC_WORD	1670059	wordpools/wasnorm_wordpool.txt	LTP091	ltpFR	14	n/a	n/a	PLUMBER	1091	n/a	n/a	n/a	n/a	n/a	n/a	n/a	n/a
3341.06	n/a	FFR_REC_WORD	1670530	wordpools/wasnorm_wordpool.txt	LTP091	ltpFR	14	n/a	-1	MECHANIC	884	n/a	n/a	-1	n/a	n/a	n/a	n/a	n/a
3356.166	n/a	FFR_REC_WORD	1678083	wordpools/wasnorm_wordpool.txt	LTP091	ltpFR	14	n/a	n/a	NIGHT	-1	n/a	n/a	n/a	n/a	n/a	n/a	n/a	n/a
3367.936	n/a	FFR_REC_WORD	1683968	wordpools/wasnorm_wordpool.txt	LTP091	ltpFR	14	n/a	n/a	MOAT	903	n/a	n/a	n/a	n/a	n/a	n/a	n/a	n/a
3371.008	n/a	FFR_REC_WORD	1685504	wordpools/wasnorm_wordpool.txt	LTP091	ltpFR	14	n/a	n/a	HILL	-1	n/a	n/a	n/a	n/a	n/a	n/a	n/a	n/a
3382.128	n/a	FFR_REC_WORD	1691064	wordpools/wasnorm_wordpool.txt	LTP091	ltpFR	14	n/a	1	DINNER	468	n/a	n/a	0	n/a	n/a	n/a	n/a	n/a
3384.314	n/a	FFR_REC_WORD	1692157	wordpools/wasnorm_wordpool.txt	LTP091	ltpFR	14	n/a	1	CATERPILLAR	259	n/a	n/a	1	n/a	n/a	n/a	n/a	n/a
3385.092	n/a	FFR_REC_WORD	1692546	wordpools/wasnorm_wordpool.txt	LTP091	ltpFR	14	n/a	1	DESSERT	453	n/a	n/a	0	n/a	n/a	n/a	n/a	n/a
3426.85	n/a	REC_START	1713425	n/a	LTP091	ltpFR	14	1	n/a	n/a	n/a	n/a	n/a	n/a	n/a	n/a	n/a	n/a	n/a
3426.89	n/a	RECOG_TARGET	1713445	n/a	LTP091	ltpFR	14	1	0	SANDWICH	1232	1	3	0	n/a	n/a	n/a	n/a	n/a
3427.754	n/a	RECOG_RESP	1713877	n/a	LTP091	ltpFR	14	1	0	SANDWICH	1232	1	n/a	0	n/a	n/a	n/a	n/a	n/a
3428.482	n/a	RECOG_CONF	1714241	n/a	LTP091	ltpFR	14	1	0	SANDWICH	1232	n/a	3	0	n/a	n/a	n/a	n/a	n/a
3429.84	n/a	RECOG_TARGET	1714920	n/a	LTP091	ltpFR	14	1	0	COWBOY	395	1	4	0	n/a	n/a	n/a	n/a	n/a
3430.388	n/a	RECOG_RESP	1715194	n/a	LTP091	ltpFR	14	1	0	COWBOY	395	1	n/a	0	n/a	n/a	n/a	n/a	n/a
3430.922	n/a	RECOG_CONF	1715461	n/a	LTP091	ltpFR	14	1	0	COWBOY	395	n/a	4	0	n/a	n/a	n/a	n/a	n/a
3432.23	n/a	RECOG_TARGET	1716115	n/a	LTP091	ltpFR	14	1	1	WAITRESS	1581	1	2	0	n/a	n/a	n/a	n/a	n/a
3433.082	n/a	RECOG_RESP	1716541	n/a	LTP091	ltpFR	14	1	1	WAITRESS	1581	1	n/a	0	n/a	n/a	n/a	n/a	n/a
3433.63	n/a	RECOG_CONF	1716815	n/a	LTP091	ltpFR	14	1	1	WAITRESS	1581	n/a	2	0	n/a	n/a	n/a	n/a	n/a
3435.016	n/a	RECOG_TARGET	1717508	n/a	LTP091	ltpFR	14	1	1	FOLLOWER	589	1	4	0	n/a	n/a	n/a	n/a	n/a
3435.75	n/a	RECOG_RESP	1717875	n/a	LTP091	ltpFR	14	1	1	FOLLOWER	589	1	n/a	0	n/a	n/a	n/a	n/a	n/a
3436.372	n/a	RECOG_CONF	1718186	n/a	LTP091	ltpFR	14	1	1	FOLLOWER	589	n/a	4	0	n/a	n/a	n/a	n/a	n/a
3437.714	n/a	RECOG_LURE	1718857	n/a	LTP091	ltpFR	14	1	n/a	DINER	467	0	3	n/a	n/a	n/a	n/a	n/a	n/a
3438.604	n/a	RECOG_RESP	1719302	n/a	LTP091	ltpFR	14	1	n/a	DINER	467	0	n/a	n/a	n/a	n/a	n/a	n/a	n/a
3439.138	n/a	RECOG_CONF	1719569	n/a	LTP091	ltpFR	14	1	n/a	DINER	467	n/a	3	n/a	n/a	n/a	n/a	n/a	n/a
3440.514	n/a	RECOG_LURE	1720257	n/a	LTP091	ltpFR	14	1	n/a	LUNG	850	0	4	n/a	n/a	n/a	n/a	n/a	n/a
3441.258	n/a	RECOG_RESP	1720629	n/a	LTP091	ltpFR	14	1	n/a	LUNG	850	0	n/a	n/a	n/a	n/a	n/a	n/a	n/a
3441.902	n/a	RECOG_CONF	1720951	n/a	LTP091	ltpFR	14	1	n/a	LUNG	850	n/a	4	n/a	n/a	n/a	n/a	n/a	n/a
3443.19	n/a	RECOG_TARGET	1721595	n/a	LTP091	ltpFR	14	1	1	BACON	67	0	3	0	n/a	n/a	n/a	n/a	n/a
3443.822	n/a	RECOG_RESP	1721911	n/a	LTP091	ltpFR	14	1	1	BACON	67	0	n/a	0	n/a	n/a	n/a	n/a	n/a
3444.406	n/a	RECOG_CONF	1722203	n/a	LTP091	ltpFR	14	1	1	BACON	67	n/a	3	0	n/a	n/a	n/a	n/a	n/a
3445.69	n/a	RECOG_TARGET	1722845	n/a	LTP091	ltpFR	14	1	-1	EAR	513	1	2	-1	n/a	n/a	n/a	n/a	n/a
3446.312	n/a	RECOG_RESP	1723156	n/a	LTP091	ltpFR	14	1	-1	EAR	513	1	n/a	-1	n/a	n/a	n/a	n/a	n/a
3446.88	n/a	RECOG_CONF	1723440	n/a	LTP091	ltpFR	14	1	-1	EAR	513	n/a	2	-1	n/a	n/a	n/a	n/a	n/a
3448.264	n/a	RECOG_LURE	1724132	n/a	LTP091	ltpFR	14	1	n/a	MIRROR	899	1	1	n/a	n/a	n/a	n/a	n/a	n/a
3449.306	n/a	RECOG_RESP	1724653	n/a	LTP091	ltpFR	14	1	n/a	MIRROR	899	1	n/a	n/a	n/a	n/a	n/a	n/a	n/a
3449.824	n/a	RECOG_CONF	1724912	n/a	LTP091	ltpFR	14	1	n/a	MIRROR	899	n/a	1	n/a	n/a	n/a	n/a	n/a	n/a
3451.114	n/a	RECOG_TARGET	1725557	n/a	LTP091	ltpFR	14	1	0	CIGAR	308	1	4	0	n/a	n/a	n/a	n/a	n/a
3451.77	n/a	RECOG_RESP	1725885	n/a	LTP091	ltpFR	14	1	0	CIGAR	308	1	n/a	0	n/a	n/a	n/a	n/a	n/a
3452.234	n/a	RECOG_CONF	1726117	n/a	LTP091	ltpFR	14	1	0	CIGAR	308	n/a	4	0	n/a	n/a	n/a	n/a	n/a
3453.588	n/a	RECOG_TARGET	1726794	n/a	LTP091	ltpFR	14	1	0	SPY	1360	1	4	0	n/a	n/a	n/a	n/a	n/a
3454.064	n/a	RECOG_RESP	1727032	n/a	LTP091	ltpFR	14	1	0	SPY	1360	1	n/a	0	n/a	n/a	n/a	n/a	n/a
3454.644	n/a	RECOG_CONF	1727322	n/a	LTP091	ltpFR	14	1	0	SPY	1360	n/a	4	0	n/a	n/a	n/a	n/a	n/a
3455.932	n/a	RECOG_LURE	1727966	n/a	LTP091	ltpFR	14	1	n/a	LODGE	839	1	2	n/a	n/a	n/a	n/a	n/a	n/a
3456.798	n/a	RECOG_RESP	1728399	n/a	LTP091	ltpFR	14	1	n/a	LODGE	839	1	n/a	n/a	n/a	n/a	n/a	n/a	n/a
3457.308	n/a	RECOG_CONF	1728654	n/a	LTP091	ltpFR	14	1	n/a	LODGE	839	n/a	2	n/a	n/a	n/a	n/a	n/a	n/a
3458.672	n/a	RECOG_LURE	1729336	n/a	LTP091	ltpFR	14	1	n/a	GULL	671	0	3	n/a	n/a	n/a	n/a	n/a	n/a
3459.508	n/a	RECOG_RESP	1729754	n/a	LTP091	ltpFR	14	1	n/a	GULL	671	0	n/a	n/a	n/a	n/a	n/a	n/a	n/a
3460.032	n/a	RECOG_CONF	1730016	n/a	LTP091	ltpFR	14	1	n/a	GULL	671	n/a	3	n/a	n/a	n/a	n/a	n/a	n/a
3461.372	n/a	RECOG_TARGET	1730686	n/a	LTP091	ltpFR	14	1	1	SPATULA	1348	0	2	0	n/a	n/a	n/a	n/a	n/a
3462.138	n/a	RECOG_RESP	1731069	n/a	LTP091	ltpFR	14	1	1	SPATULA	1348	0	n/a	0	n/a	n/a	n/a	n/a	n/a
3462.646	n/a	RECOG_CONF	1731323	n/a	LTP091	ltpFR	14	1	1	SPATULA	1348	n/a	2	0	n/a	n/a	n/a	n/a	n/a
3463.974	n/a	RECOG_TARGET	1731987	n/a	LTP091	ltpFR	14	1	-1	PASSAGE	1019	1	4	-1	n/a	n/a	n/a	n/a	n/a
3464.646	n/a	RECOG_RESP	1732323	n/a	LTP091	ltpFR	14	1	-1	PASSAGE	1019	1	n/a	-1	n/a	n/a	n/a	n/a	n/a
3465.09	n/a	RECOG_CONF	1732545	n/a	LTP091	ltpFR	14	1	-1	PASSAGE	1019	n/a	4	-1	n/a	n/a	n/a	n/a	n/a
3466.48	n/a	RECOG_TARGET	1733240	n/a	LTP091	ltpFR	14	1	-1	FARM	552	1	4	-1	n/a	n/a	n/a	n/a	n/a
3467.62	n/a	RECOG_RESP	1733810	n/a	LTP091	ltpFR	14	1	-1	FARM	552	1	n/a	-1	n/a	n/a	n/a	n/a	n/a
3468.078	n/a	RECOG_CONF	1734039	n/a	LTP091	ltpFR	14	1	-1	FARM	552	n/a	4	-1	n/a	n/a	n/a	n/a	n/a
3469.414	n/a	RECOG_LURE	1734707	n/a	LTP091	ltpFR	14	1	n/a	DOLPHIN	483	0	2	n/a	n/a	n/a	n/a	n/a	n/a
3470.244	n/a	RECOG_RESP	1735122	n/a	LTP091	ltpFR	14	1	n/a	DOLPHIN	483	0	n/a	n/a	n/a	n/a	n/a	n/a	n/a
3470.722	n/a	RECOG_CONF	1735361	n/a	LTP091	ltpFR	14	1	n/a	DOLPHIN	483	n/a	2	n/a	n/a	n/a	n/a	n/a	n/a
3472.09	n/a	RECOG_LURE	1736045	n/a	LTP091	ltpFR	14	1	n/a	TWINE	1529	0	3	n/a	n/a	n/a	n/a	n/a	n/a
3472.718	n/a	RECOG_RESP	1736359	n/a	LTP091	ltpFR	14	1	n/a	TWINE	1529	0	n/a	n/a	n/a	n/a	n/a	n/a	n/a
3473.272	n/a	RECOG_CONF	1736636	n/a	LTP091	ltpFR	14	1	n/a	TWINE	1529	n/a	3	n/a	n/a	n/a	n/a	n/a	n/a
3474.638	n/a	RECOG_LURE	1737319	n/a	LTP091	ltpFR	14	1	n/a	SCHOOL	1248	0	4	n/a	n/a	n/a	n/a	n/a	n/a
3475.352	n/a	RECOG_RESP	1737676	n/a	LTP091	ltpFR	14	1	n/a	SCHOOL	1248	0	n/a	n/a	n/a	n/a	n/a	n/a	n/a
3475.796	n/a	RECOG_CONF	1737898	n/a	LTP091	ltpFR	14	1	n/a	SCHOOL	1248	n/a	4	n/a	n/a	n/a	n/a	n/a	n/a
3477.174	n/a	RECOG_TARGET	1738587	n/a	LTP091	ltpFR	14	1	0	COOKBOOK	373	1	5	1	n/a	n/a	n/a	n/a	n/a
3477.968	n/a	RECOG_RESP	1738984	n/a	LTP091	ltpFR	14	1	0	COOKBOOK	373	1	n/a	1	n/a	n/a	n/a	n/a	n/a
3478.462	n/a	RECOG_CONF	1739231	n/a	LTP091	ltpFR	14	1	0	COOKBOOK	373	n/a	5	1	n/a	n/a	n/a	n/a	n/a
3485.422	n/a	REC_START	1742711	n/a	LTP091	ltpFR	14	2	n/a	n/a	n/a	n/a	n/a	n/a	n/a	n/a	n/a	n/a	n/a
3485.454	n/a	RECOG_TARGET	1742727	n/a	LTP091	ltpFR	14	2	-1	ALLIGATOR	16	1	2	-1	n/a	n/a	n/a	n/a	n/a
3486.254	n/a	RECOG_RESP	1743127	n/a	LTP091	ltpFR	14	2	-1	ALLIGATOR	16	1	n/a	-1	n/a	n/a	n/a	n/a	n/a
3486.788	n/a	RECOG_CONF	1743394	n/a	LTP091	ltpFR	14	2	-1	ALLIGATOR	16	n/a	2	-1	n/a	n/a	n/a	n/a	n/a
3488.114	n/a	RECOG_TARGET	1744057	n/a	LTP091	ltpFR	14	2	0	GIRL	637	0	2	0	n/a	n/a	n/a	n/a	n/a
3488.838	n/a	RECOG_RESP	1744419	n/a	LTP091	ltpFR	14	2	0	GIRL	637	0	n/a	0	n/a	n/a	n/a	n/a	n/a
3489.876	n/a	RECOG_CONF	1744938	n/a	LTP091	ltpFR	14	2	0	GIRL	637	n/a	2	0	n/a	n/a	n/a	n/a	n/a
3491.246	n/a	RECOG_TARGET	1745623	n/a	LTP091	ltpFR	14	2	-1	HEATER	698	0	1	-1	n/a	n/a	n/a	n/a	n/a
3492.256	n/a	RECOG_RESP	1746128	n/a	LTP091	ltpFR	14	2	-1	HEATER	698	0	n/a	-1	n/a	n/a	n/a	n/a	n/a
3493.318	n/a	RECOG_CONF	1746659	n/a	LTP091	ltpFR	14	2	-1	HEATER	698	n/a	1	-1	n/a	n/a	n/a	n/a	n/a
3494.662	n/a	RECOG_TARGET	1747331	n/a	LTP091	ltpFR	14	2	1	PEARL	1034	1	3	0	n/a	n/a	n/a	n/a	n/a
3495.384	n/a	RECOG_RESP	1747692	n/a	LTP091	ltpFR	14	2	1	PEARL	1034	1	n/a	0	n/a	n/a	n/a	n/a	n/a
3495.894	n/a	RECOG_CONF	1747947	n/a	LTP091	ltpFR	14	2	1	PEARL	1034	n/a	3	0	n/a	n/a	n/a	n/a	n/a
3497.164	n/a	RECOG_TARGET	1748582	n/a	LTP091	ltpFR	14	2	-1	CANDY	230	1	4	-1	n/a	n/a	n/a	n/a	n/a
3498.058	n/a	RECOG_RESP	1749029	n/a	LTP091	ltpFR	14	2	-1	CANDY	230	1	n/a	-1	n/a	n/a	n/a	n/a	n/a
3498.492	n/a	RECOG_CONF	1749246	n/a	LTP091	ltpFR	14	2	-1	CANDY	230	n/a	4	-1	n/a	n/a	n/a	n/a	n/a
3499.822	n/a	RECOG_TARGET	1749911	n/a	LTP091	ltpFR	14	2	1	TURNIP	1521	0	3	0	n/a	n/a	n/a	n/a	n/a
3500.712	n/a	RECOG_RESP	1750356	n/a	LTP091	ltpFR	14	2	1	TURNIP	1521	0	n/a	0	n/a	n/a	n/a	n/a	n/a
3501.192	n/a	RECOG_CONF	1750596	n/a	LTP091	ltpFR	14	2	1	TURNIP	1521	n/a	3	0	n/a	n/a	n/a	n/a	n/a
3502.472	n/a	RECOG_LURE	1751236	n/a	LTP091	ltpFR	14	2	n/a	CLOVE	329	0	3	n/a	n/a	n/a	n/a	n/a	n/a
3503.292	n/a	RECOG_RESP	1751646	n/a	LTP091	ltpFR	14	2	n/a	CLOVE	329	0	n/a	n/a	n/a	n/a	n/a	n/a	n/a
3503.826	n/a	RECOG_CONF	1751913	n/a	LTP091	ltpFR	14	2	n/a	CLOVE	329	n/a	3	n/a	n/a	n/a	n/a	n/a	n/a
3505.096	n/a	RECOG_TARGET	1752548	n/a	LTP091	ltpFR	14	2	1	CHISEL	305	0	4	0	n/a	n/a	n/a	n/a	n/a
3505.956	n/a	RECOG_RESP	1752978	n/a	LTP091	ltpFR	14	2	1	CHISEL	305	0	n/a	0	n/a	n/a	n/a	n/a	n/a
3506.384	n/a	RECOG_CONF	1753192	n/a	LTP091	ltpFR	14	2	1	CHISEL	305	n/a	4	0	n/a	n/a	n/a	n/a	n/a
3507.838	n/a	RECOG_TARGET	1753919	n/a	LTP091	ltpFR	14	2	-1	MECHANIC	884	1	4	-1	n/a	n/a	n/a	n/a	n/a
3508.49	n/a	RECOG_RESP	1754245	n/a	LTP091	ltpFR	14	2	-1	MECHANIC	884	1	n/a	-1	n/a	n/a	n/a	n/a	n/a
3508.994	n/a	RECOG_CONF	1754497	n/a	LTP091	ltpFR	14	2	-1	MECHANIC	884	n/a	4	-1	n/a	n/a	n/a	n/a	n/a
3510.254	n/a	RECOG_LURE	1755127	n/a	LTP091	ltpFR	14	2	n/a	TWEEZERS	1526	0	3	n/a	n/a	n/a	n/a	n/a	n/a
3511.04	n/a	RECOG_RESP	1755520	n/a	LTP091	ltpFR	14	2	n/a	TWEEZERS	1526	0	n/a	n/a	n/a	n/a	n/a	n/a	n/a
3511.578	n/a	RECOG_CONF	1755789	n/a	LTP091	ltpFR	14	2	n/a	TWEEZERS	1526	n/a	3	n/a	n/a	n/a	n/a	n/a	n/a
3512.838	n/a	RECOG_TARGET	1756419	n/a	LTP091	ltpFR	14	2	1	PAW	1029	1	4	0	n/a	n/a	n/a	n/a	n/a
3513.584	n/a	RECOG_RESP	1756792	n/a	LTP091	ltpFR	14	2	1	PAW	1029	1	n/a	0	n/a	n/a	n/a	n/a	n/a
3514.072	n/a	RECOG_CONF	1757036	n/a	LTP091	ltpFR	14	2	1	PAW	1029	n/a	4	0	n/a	n/a	n/a	n/a	n/a
3515.354	n/a	RECOG_TARGET	1757677	n/a	LTP091	ltpFR	14	2	1	RADISH	1158	1	4	1	n/a	n/a	n/a	n/a	n/a
3516.034	n/a	RECOG_RESP	1758017	n/a	LTP091	ltpFR	14	2	1	RADISH	1158	1	n/a	1	n/a	n/a	n/a	n/a	n/a
3516.508	n/a	RECOG_CONF	1758254	n/a	LTP091	ltpFR	14	2	1	RADISH	1158	n/a	4	1	n/a	n/a	n/a	n/a	n/a
3517.872	n/a	RECOG_TARGET	1758936	n/a	LTP091	ltpFR	14	2	1	SIRLOIN	1311	0	3	0	n/a	n/a	n/a	n/a	n/a
3518.702	n/a	RECOG_RESP	1759351	n/a	LTP091	ltpFR	14	2	1	SIRLOIN	1311	0	n/a	0	n/a	n/a	n/a	n/a	n/a
3519.182	n/a	RECOG_CONF	1759591	n/a	LTP091	ltpFR	14	2	1	SIRLOIN	1311	n/a	3	0	n/a	n/a	n/a	n/a	n/a
3520.57	n/a	RECOG_TARGET	1760285	n/a	LTP091	ltpFR	14	2	1	DINNER	468	1	4	0	n/a	n/a	n/a	n/a	n/a
3521.566	n/a	RECOG_RESP	1760783	n/a	LTP091	ltpFR	14	2	1	DINNER	468	1	n/a	0	n/a	n/a	n/a	n/a	n/a
3522.036	n/a	RECOG_CONF	1761018	n/a	LTP091	ltpFR	14	2	1	DINNER	468	n/a	4	0	n/a	n/a	n/a	n/a	n/a
3523.412	n/a	RECOG_LURE	1761706	n/a	LTP091	ltpFR	14	2	n/a	TWISTER	1530	0	3	n/a	n/a	n/a	n/a	n/a	n/a
3524.206	n/a	RECOG_RESP	1762103	n/a	LTP091	ltpFR	14	2	n/a	TWISTER	1530	0	n/a	n/a	n/a	n/a	n/a	n/a	n/a
3524.728	n/a	RECOG_CONF	1762364	n/a	LTP091	ltpFR	14	2	n/a	TWISTER	1530	n/a	3	n/a	n/a	n/a	n/a	n/a	n/a
3526.088	n/a	RECOG_TARGET	1763044	n/a	LTP091	ltpFR	14	2	1	CAT	257	1	2	0	n/a	n/a	n/a	n/a	n/a
3526.754	n/a	RECOG_RESP	1763377	n/a	LTP091	ltpFR	14	2	1	CAT	257	1	n/a	0	n/a	n/a	n/a	n/a	n/a
3527.264	n/a	RECOG_CONF	1763632	n/a	LTP091	ltpFR	14	2	1	CAT	257	n/a	2	0	n/a	n/a	n/a	n/a	n/a
3528.528	n/a	RECOG_LURE	1764264	n/a	LTP091	ltpFR	14	2	n/a	VIOLA	1570	0	3	n/a	n/a	n/a	n/a	n/a	n/a
3529.438	n/a	RECOG_RESP	1764719	n/a	LTP091	ltpFR	14	2	n/a	VIOLA	1570	0	n/a	n/a	n/a	n/a	n/a	n/a	n/a
3529.978	n/a	RECOG_CONF	1764989	n/a	LTP091	ltpFR	14	2	n/a	VIOLA	1570	n/a	3	n/a	n/a	n/a	n/a	n/a	n/a
3531.312	n/a	RECOG_LURE	1765656	n/a	LTP091	ltpFR	14	2	n/a	TRIANGLE	1504	0	4	n/a	n/a	n/a	n/a	n/a	n/a
3532.032	n/a	RECOG_RESP	1766016	n/a	LTP091	ltpFR	14	2	n/a	TRIANGLE	1504	0	n/a	n/a	n/a	n/a	n/a	n/a	n/a
3532.502	n/a	RECOG_CONF	1766251	n/a	LTP091	ltpFR	14	2	n/a	TRIANGLE	1504	n/a	4	n/a	n/a	n/a	n/a	n/a	n/a
3533.854	n/a	RECOG_TARGET	1766927	n/a	LTP091	ltpFR	14	2	1	CONTRACTOR	369	1	2	1	n/a	n/a	n/a	n/a	n/a
3535.016	n/a	RECOG_RESP	1767508	n/a	LTP091	ltpFR	14	2	1	CONTRACTOR	369	1	n/a	1	n/a	n/a	n/a	n/a	n/a
3535.546	n/a	RECOG_CONF	1767773	n/a	LTP091	ltpFR	14	2	1	CONTRACTOR	369	n/a	2	1	n/a	n/a	n/a	n/a	n/a
3536.872	n/a	RECOG_TARGET	1768436	n/a	LTP091	ltpFR	14	2	0	CARPENTER	246	1	2	0	n/a	n/a	n/a	n/a	n/a
3537.576	n/a	RECOG_RESP	1768788	n/a	LTP091	ltpFR	14	2	0	CARPENTER	246	1	n/a	0	n/a	n/a	n/a	n/a	n/a
3538.17	n/a	RECOG_CONF	1769085	n/a	LTP091	ltpFR	14	2	0	CARPENTER	246	n/a	2	0	n/a	n/a	n/a	n/a	n/a
3541.216	n/a	REC_START	1770608	n/a	LTP091	ltpFR	14	3	n/a	n/a	n/a	n/a	n/a	n/a	n/a	n/a	n/a	n/a	n/a
3541.246	n/a	RECOG_TARGET	1770623	n/a	LTP091	ltpFR	14	3	0	KITE	779	1	4	1	n/a	n/a	n/a	n/a	n/a
3542.094	n/a	RECOG_RESP	1771047	n/a	LTP091	ltpFR	14	3	0	KITE	779	1	n/a	1	n/a	n/a	n/a	n/a	n/a
3542.6	n/a	RECOG_CONF	1771300	n/a	LTP091	ltpFR	14	3	0	KITE	779	n/a	4	1	n/a	n/a	n/a	n/a	n/a
3543.854	n/a	RECOG_TARGET	1771927	n/a	LTP091	ltpFR	14	3	1	PLAID	1080	1	4	0	n/a	n/a	n/a	n/a	n/a
3544.582	n/a	RECOG_RESP	1772291	n/a	LTP091	ltpFR	14	3	1	PLAID	1080	1	n/a	0	n/a	n/a	n/a	n/a	n/a
3545.044	n/a	RECOG_CONF	1772522	n/a	LTP091	ltpFR	14	3	1	PLAID	1080	n/a	4	0	n/a	n/a	n/a	n/a	n/a
3546.394	n/a	RECOG_TARGET	1773197	n/a	LTP091	ltpFR	14	3	1	DICTATOR	462	1	3	1	n/a	n/a	n/a	n/a	n/a
3547.326	n/a	RECOG_RESP	1773663	n/a	LTP091	ltpFR	14	3	1	DICTATOR	462	1	n/a	1	n/a	n/a	n/a	n/a	n/a
3547.846	n/a	RECOG_CONF	1773923	n/a	LTP091	ltpFR	14	3	1	DICTATOR	462	n/a	3	1	n/a	n/a	n/a	n/a	n/a
3549.17	n/a	RECOG_TARGET	1774585	n/a	LTP091	ltpFR	14	3	1	GROCERIES	663	1	2	1	n/a	n/a	n/a	n/a	n/a
3549.936	n/a	RECOG_RESP	1774968	n/a	LTP091	ltpFR	14	3	1	GROCERIES	663	1	n/a	1	n/a	n/a	n/a	n/a	n/a
3550.43	n/a	RECOG_CONF	1775215	n/a	LTP091	ltpFR	14	3	1	GROCERIES	663	n/a	2	1	n/a	n/a	n/a	n/a	n/a
3551.812	n/a	RECOG_TARGET	1775906	n/a	LTP091	ltpFR	14	3	1	INSECT	740	1	3	0	n/a	n/a	n/a	n/a	n/a
3552.484	n/a	RECOG_RESP	1776242	n/a	LTP091	ltpFR	14	3	1	INSECT	740	1	n/a	0	n/a	n/a	n/a	n/a	n/a
3553.502	n/a	RECOG_CONF	1776751	n/a	LTP091	ltpFR	14	3	1	INSECT	740	n/a	3	0	n/a	n/a	n/a	n/a	n/a
3554.93	n/a	RECOG_TARGET	1777465	n/a	LTP091	ltpFR	14	3	1	CONCRETE	361	1	5	0	n/a	n/a	n/a	n/a	n/a
3555.678	n/a	RECOG_RESP	1777839	n/a	LTP091	ltpFR	14	3	1	CONCRETE	361	1	n/a	0	n/a	n/a	n/a	n/a	n/a
3556.208	n/a	RECOG_CONF	1778104	n/a	LTP091	ltpFR	14	3	1	CONCRETE	361	n/a	5	0	n/a	n/a	n/a	n/a	n/a
3557.612	n/a	RECOG_LURE	1778806	n/a	LTP091	ltpFR	14	3	n/a	WARRIOR	1589	0	3	n/a	n/a	n/a	n/a	n/a	n/a
3558.692	n/a	RECOG_RESP	1779346	n/a	LTP091	ltpFR	14	3	n/a	WARRIOR	1589	0	n/a	n/a	n/a	n/a	n/a	n/a	n/a
3559.18	n/a	RECOG_CONF	1779590	n/a	LTP091	ltpFR	14	3	n/a	WARRIOR	1589	n/a	3	n/a	n/a	n/a	n/a	n/a	n/a
3560.554	n/a	RECOG_LURE	1780277	n/a	LTP091	ltpFR	14	3	n/a	UNICORN	1538	0	3	n/a	n/a	n/a	n/a	n/a	n/a
3561.356	n/a	RECOG_RESP	1780678	n/a	LTP091	ltpFR	14	3	n/a	UNICORN	1538	0	n/a	n/a	n/a	n/a	n/a	n/a	n/a
3561.864	n/a	RECOG_CONF	1780932	n/a	LTP091	ltpFR	14	3	n/a	UNICORN	1538	n/a	3	n/a	n/a	n/a	n/a	n/a	n/a
3563.154	n/a	RECOG_TARGET	1781577	n/a	LTP091	ltpFR	14	3	-1	COOKIE	374	1	1	-1	n/a	n/a	n/a	n/a	n/a
3564.22	n/a	RECOG_RESP	1782110	n/a	LTP091	ltpFR	14	3	-1	COOKIE	374	1	n/a	-1	n/a	n/a	n/a	n/a	n/a
3564.718	n/a	RECOG_CONF	1782359	n/a	LTP091	ltpFR	14	3	-1	COOKIE	374	n/a	1	-1	n/a	n/a	n/a	n/a	n/a
3566.004	n/a	RECOG_TARGET	1783002	n/a	LTP091	ltpFR	14	3	-1	WINE	1613	0	2	-1	n/a	n/a	n/a	n/a	n/a
3567.062	n/a	RECOG_RESP	1783531	n/a	LTP091	ltpFR	14	3	-1	WINE	1613	0	n/a	-1	n/a	n/a	n/a	n/a	n/a
3567.622	n/a	RECOG_CONF	1783811	n/a	LTP091	ltpFR	14	3	-1	WINE	1613	n/a	2	-1	n/a	n/a	n/a	n/a	n/a
3569.062	n/a	RECOG_TARGET	1784531	n/a	LTP091	ltpFR	14	3	-1	MOON	914	0	1	-1	n/a	n/a	n/a	n/a	n/a
3569.886	n/a	RECOG_RESP	1784943	n/a	LTP091	ltpFR	14	3	-1	MOON	914	0	n/a	-1	n/a	n/a	n/a	n/a	n/a
3570.504	n/a	RECOG_CONF	1785252	n/a	LTP091	ltpFR	14	3	-1	MOON	914	n/a	1	-1	n/a	n/a	n/a	n/a	n/a
3571.836	n/a	RECOG_TARGET	1785918	n/a	LTP091	ltpFR	14	3	1	BLUEJAY	141	0	3	0	n/a	n/a	n/a	n/a	n/a
3572.72	n/a	RECOG_RESP	1786360	n/a	LTP091	ltpFR	14	3	1	BLUEJAY	141	0	n/a	0	n/a	n/a	n/a	n/a	n/a
3573.238	n/a	RECOG_CONF	1786619	n/a	LTP091	ltpFR	14	3	1	BLUEJAY	141	n/a	3	0	n/a	n/a	n/a	n/a	n/a
3574.594	n/a	RECOG_TARGET	1787297	n/a	LTP091	ltpFR	14	3	0	MOSQUITO	917	1	4	0	n/a	n/a	n/a	n/a	n/a
3575.45	n/a	RECOG_RESP	1787725	n/a	LTP091	ltpFR	14	3	0	MOSQUITO	917	1	n/a	0	n/a	n/a	n/a	n/a	n/a
3575.954	n/a	RECOG_CONF	1787977	n/a	LTP091	ltpFR	14	3	0	MOSQUITO	917	n/a	4	0	n/a	n/a	n/a	n/a	n/a
3577.386	n/a	RECOG_TARGET	1788693	n/a	LTP091	ltpFR	14	3	1	JAPAN	749	1	4	0	n/a	n/a	n/a	n/a	n/a
3578.442	n/a	RECOG_RESP	1789221	n/a	LTP091	ltpFR	14	3	1	JAPAN	749	1	n/a	0	n/a	n/a	n/a	n/a	n/a
3579.022	n/a	RECOG_CONF	1789511	n/a	LTP091	ltpFR	14	3	1	JAPAN	749	n/a	4	0	n/a	n/a	n/a	n/a	n/a
3580.452	n/a	RECOG_TARGET	1790226	n/a	LTP091	ltpFR	14	3	0	ASPIRIN	47	0	3	0	n/a	n/a	n/a	n/a	n/a
3581.212	n/a	RECOG_RESP	1790606	n/a	LTP091	ltpFR	14	3	0	ASPIRIN	47	0	n/a	0	n/a	n/a	n/a	n/a	n/a
3581.72	n/a	RECOG_CONF	1790860	n/a	LTP091	ltpFR	14	3	0	ASPIRIN	47	n/a	3	0	n/a	n/a	n/a	n/a	n/a
3583.036	n/a	RECOG_TARGET	1791518	n/a	LTP091	ltpFR	14	3	0	PAWN	1030	1	3	0	n/a	n/a	n/a	n/a	n/a
3583.89	n/a	RECOG_RESP_VV	1791945	n/a	LTP091	ltpFR	14	3	0	PAWN	1030	0	n/a	0	n/a	n/a	n/a	n/a	n/a
3584.514	n/a	RECOG_RESP_VV	1792257	n/a	LTP091	ltpFR	14	3	0	PAWN	1030	1	n/a	0	n/a	n/a	n/a	n/a	n/a
3585.526	n/a	RECOG_RESP	1792763	n/a	LTP091	ltpFR	14	3	0	PAWN	1030	1	n/a	0	n/a	n/a	n/a	n/a	n/a
3586.23	n/a	RECOG_CONF	1793115	n/a	LTP091	ltpFR	14	3	0	PAWN	1030	n/a	3	0	n/a	n/a	n/a	n/a	n/a
3587.812	n/a	RECOG_TARGET	1793906	n/a	LTP091	ltpFR	14	3	1	CELLO	268	1	4	0	n/a	n/a	n/a	n/a	n/a
3588.56	n/a	RECOG_RESP	1794280	n/a	LTP091	ltpFR	14	3	1	CELLO	268	1	n/a	0	n/a	n/a	n/a	n/a	n/a
3589.024	n/a	RECOG_CONF	1794512	n/a	LTP091	ltpFR	14	3	1	CELLO	268	n/a	4	0	n/a	n/a	n/a	n/a	n/a
3590.426	n/a	RECOG_TARGET	1795213	n/a	LTP091	ltpFR	14	3	0	MUSTARD	935	1	2	0	n/a	n/a	n/a	n/a	n/a
3591.912	n/a	RECOG_RESP	1795956	n/a	LTP091	ltpFR	14	3	0	MUSTARD	935	1	n/a	0	n/a	n/a	n/a	n/a	n/a
3592.396	n/a	RECOG_CONF	1796198	n/a	LTP091	ltpFR	14	3	0	MUSTARD	935	n/a	2	0	n/a	n/a	n/a	n/a	n/a
3593.846	n/a	RECOG_LURE	1796923	n/a	LTP091	ltpFR	14	3	n/a	COYOTE	396	1	2	n/a	n/a	n/a	n/a	n/a	n/a
3594.538	n/a	RECOG_RESP	1797269	n/a	LTP091	ltpFR	14	3	n/a	COYOTE	396	1	n/a	n/a	n/a	n/a	n/a	n/a	n/a
3595.09	n/a	RECOG_CONF	1797545	n/a	LTP091	ltpFR	14	3	n/a	COYOTE	396	n/a	2	n/a	n/a	n/a	n/a	n/a	n/a
3596.368	n/a	RECOG_LURE	1798184	n/a	LTP091	ltpFR	14	3	n/a	BOMB	147	0	3	n/a	n/a	n/a	n/a	n/a	n/a
3597.516	n/a	RECOG_RESP	1798758	n/a	LTP091	ltpFR	14	3	n/a	BOMB	147	0	n/a	n/a	n/a	n/a	n/a	n/a	n/a
3597.964	n/a	RECOG_CONF	1798982	n/a	LTP091	ltpFR	14	3	n/a	BOMB	147	n/a	3	n/a	n/a	n/a	n/a	n/a	n/a
3601.31	n/a	REC_START	1800655	n/a	LTP091	ltpFR	14	4	n/a	n/a	n/a	n/a	n/a	n/a	n/a	n/a	n/a	n/a	n/a
3601.344	n/a	RECOG_LURE	1800672	n/a	LTP091	ltpFR	14	4	n/a	POOL	1103	0	3	n/a	n/a	n/a	n/a	n/a	n/a
3602.642	n/a	RECOG_RESP	1801321	n/a	LTP091	ltpFR	14	4	n/a	POOL	1103	0	n/a	n/a	n/a	n/a	n/a	n/a	n/a
3603.06	n/a	RECOG_CONF	1801530	n/a	LTP091	ltpFR	14	4	n/a	POOL	1103	n/a	3	n/a	n/a	n/a	n/a	n/a	n/a
3604.302	n/a	RECOG_TARGET	1802151	n/a	LTP091	ltpFR	14	4	0	DONKEY	484	0	3	0	n/a	n/a	n/a	n/a	n/a
3605.036	n/a	RECOG_RESP	1802518	n/a	LTP091	ltpFR	14	4	0	DONKEY	484	0	n/a	0	n/a	n/a	n/a	n/a	n/a
3605.454	n/a	RECOG_CONF	1802727	n/a	LTP091	ltpFR	14	4	0	DONKEY	484	n/a	3	0	n/a	n/a	n/a	n/a	n/a
3606.676	n/a	RECOG_TARGET	1803338	n/a	LTP091	ltpFR	14	4	0	SKIRT	1319	1	4	0	n/a	n/a	n/a	n/a	n/a
3607.35	n/a	RECOG_RESP	1803675	n/a	LTP091	ltpFR	14	4	0	SKIRT	1319	1	n/a	0	n/a	n/a	n/a	n/a	n/a
3607.764	n/a	RECOG_CONF	1803882	n/a	LTP091	ltpFR	14	4	0	SKIRT	1319	n/a	4	0	n/a	n/a	n/a	n/a	n/a
3608.994	n/a	RECOG_LURE	1804497	n/a	LTP091	ltpFR	14	4	n/a	CANYON	235	0	3	n/a	n/a	n/a	n/a	n/a	n/a
3609.776	n/a	RECOG_RESP	1804888	n/a	LTP091	ltpFR	14	4	n/a	CANYON	235	0	n/a	n/a	n/a	n/a	n/a	n/a	n/a
3610.194	n/a	RECOG_CONF	1805097	n/a	LTP091	ltpFR	14	4	n/a	CANYON	235	n/a	3	n/a	n/a	n/a	n/a	n/a	n/a
3611.484	n/a	RECOG_TARGET	1805742	n/a	LTP091	ltpFR	14	4	0	AUTOMOBILE	62	1	4	0	n/a	n/a	n/a	n/a	n/a
3612.16	n/a	RECOG_RESP	1806080	n/a	LTP091	ltpFR	14	4	0	AUTOMOBILE	62	1	n/a	0	n/a	n/a	n/a	n/a	n/a
3612.57	n/a	RECOG_CONF	1806285	n/a	LTP091	ltpFR	14	4	0	AUTOMOBILE	62	n/a	4	0	n/a	n/a	n/a	n/a	n/a
3613.844	n/a	RECOG_TARGET	1806922	n/a	LTP091	ltpFR	14	4	0	WAITER	1580	1	2	0	n/a	n/a	n/a	n/a	n/a
3614.654	n/a	RECOG_RESP	1807327	n/a	LTP091	ltpFR	14	4	0	WAITER	1580	1	n/a	0	n/a	n/a	n/a	n/a	n/a
3615.034	n/a	RECOG_CONF	1807517	n/a	LTP091	ltpFR	14	4	0	WAITER	1580	n/a	2	0	n/a	n/a	n/a	n/a	n/a
3616.252	n/a	RECOG_TARGET	1808126	n/a	LTP091	ltpFR	14	4	0	MOUSE	925	1	4	0	n/a	n/a	n/a	n/a	n/a
3616.9	n/a	RECOG_RESP	1808450	n/a	LTP091	ltpFR	14	4	0	MOUSE	925	1	n/a	0	n/a	n/a	n/a	n/a	n/a
3617.406	n/a	RECOG_CONF	1808703	n/a	LTP091	ltpFR	14	4	0	MOUSE	925	n/a	4	0	n/a	n/a	n/a	n/a	n/a
3618.602	n/a	RECOG_TARGET	1809301	n/a	LTP091	ltpFR	14	4	1	CAFETERIA	217	1	3	0	n/a	n/a	n/a	n/a	n/a
3619.304	n/a	RECOG_RESP	1809652	n/a	LTP091	ltpFR	14	4	1	CAFETERIA	217	1	n/a	0	n/a	n/a	n/a	n/a	n/a
3619.834	n/a	RECOG_CONF	1809917	n/a	LTP091	ltpFR	14	4	1	CAFETERIA	217	n/a	3	0	n/a	n/a	n/a	n/a	n/a
3621.102	n/a	RECOG_TARGET	1810551	n/a	LTP091	ltpFR	14	4	-1	WALLET	1583	0	3	-1	n/a	n/a	n/a	n/a	n/a
3621.758	n/a	RECOG_RESP	1810879	n/a	LTP091	ltpFR	14	4	-1	WALLET	1583	0	n/a	-1	n/a	n/a	n/a	n/a	n/a
3622.14	n/a	RECOG_CONF	1811070	n/a	LTP091	ltpFR	14	4	-1	WALLET	1583	n/a	3	-1	n/a	n/a	n/a	n/a	n/a
3623.484	n/a	RECOG_LURE	1811742	n/a	LTP091	ltpFR	14	4	n/a	REGISTER	1180	0	3	n/a	n/a	n/a	n/a	n/a	n/a
3624.284	n/a	RECOG_RESP	1812142	n/a	LTP091	ltpFR	14	4	n/a	REGISTER	1180	0	n/a	n/a	n/a	n/a	n/a	n/a	n/a
3624.722	n/a	RECOG_CONF	1812361	n/a	LTP091	ltpFR	14	4	n/a	REGISTER	1180	n/a	3	n/a	n/a	n/a	n/a	n/a	n/a
3625.986	n/a	RECOG_TARGET	1812993	n/a	LTP091	ltpFR	14	4	-1	WALL	1582	1	4	-1	n/a	n/a	n/a	n/a	n/a
3626.688	n/a	RECOG_RESP	1813344	n/a	LTP091	ltpFR	14	4	-1	WALL	1582	1	n/a	-1	n/a	n/a	n/a	n/a	n/a
3627.148	n/a	RECOG_CONF	1813574	n/a	LTP091	ltpFR	14	4	-1	WALL	1582	n/a	4	-1	n/a	n/a	n/a	n/a	n/a
3628.426	n/a	RECOG_TARGET	1814213	n/a	LTP091	ltpFR	14	4	0	ACORN	3	1	5	0	n/a	n/a	n/a	n/a	n/a
3629.132	n/a	RECOG_RESP	1814566	n/a	LTP091	ltpFR	14	4	0	ACORN	3	1	n/a	0	n/a	n/a	n/a	n/a	n/a
3629.544	n/a	RECOG_CONF	1814772	n/a	LTP091	ltpFR	14	4	0	ACORN	3	n/a	5	0	n/a	n/a	n/a	n/a	n/a
3630.844	n/a	RECOG_TARGET	1815422	n/a	LTP091	ltpFR	14	4	0	SCARF	1246	1	3	0	n/a	n/a	n/a	n/a	n/a
3631.552	n/a	RECOG_RESP	1815776	n/a	LTP091	ltpFR	14	4	0	SCARF	1246	1	n/a	0	n/a	n/a	n/a	n/a	n/a
3632.082	n/a	RECOG_CONF	1816041	n/a	LTP091	ltpFR	14	4	0	SCARF	1246	n/a	3	0	n/a	n/a	n/a	n/a	n/a
3633.284	n/a	RECOG_TARGET	1816642	n/a	LTP091	ltpFR	14	4	1	MAILBOX	857	0	2	0	n/a	n/a	n/a	n/a	n/a
