onset	duration	trial_type	sample	stim_file	subject	experiment	session	trial	task	item_name	item_num	recog_conf	resp	answer	test_x	test_y	test_z	color_b	color_g	color_r	case	font
218.978	n/a	SESS_START	109489	n/a	LTP084	ltpFR	11	n/a	n/a	n/a	n/a	5	n/a	n/a	0	0	0	n/a	n/a	n/a	n/a	n/a
281.702	n/a	START	140851	n/a	LTP084	ltpFR	11	n/a	n/a	n/a	n/a	n/a	n/a	n/a	n/a	n/a	n/a	n/a	n/a	n/a	n/a	n/a
281.726	n/a	PROB	140863	n/a	LTP084	ltpFR	11	n/a	n/a	n/a	n/a	n/a	n/a	24	7	9	8	n/a	n/a	n/a	n/a	n/a
284.434	n/a	PROB	142217	n/a	LTP084	ltpFR	11	n/a	n/a	n/a	n/a	n/a	n/a	13	9	2	2	n/a	n/a	n/a	n/a	n/a
285.702	n/a	PROB	142851	n/a	LTP084	ltpFR	11	n/a	n/a	n/a	n/a	n/a	n/a	11	9	1	1	n/a	n/a	n/a	n/a	n/a
286.926	n/a	PROB	143463	n/a	LTP084	ltpFR	11	n/a	n/a	n/a	n/a	n/a	n/a	21	9	5	7	n/a	n/a	n/a	n/a	n/a
288.31	n/a	PROB	144155	n/a	LTP084	ltpFR	11	n/a	n/a	n/a	n/a	n/a	n/a	13	3	2	8	n/a	n/a	n/a	n/a	n/a
290.168	n/a	PROB	145084	n/a	LTP084	ltpFR	11	n/a	n/a	n/a	n/a	n/a	n/a	18	6	4	8	n/a	n/a	n/a	n/a	n/a
291.426	n/a	PROB	145713	n/a	LTP084	ltpFR	11	n/a	n/a	n/a	n/a	n/a	n/a	14	4	5	5	n/a	n/a	n/a	n/a	n/a
292.85	n/a	PROB	146425	n/a	LTP084	ltpFR	11	n/a	n/a	n/a	n/a	n/a	n/a	13	4	3	6	n/a	n/a	n/a	n/a	n/a
294.092	n/a	PROB	147046	n/a	LTP084	ltpFR	11	n/a	n/a	n/a	n/a	n/a	n/a	10	3	2	5	n/a	n/a	n/a	n/a	n/a
295.318	n/a	PROB	147659	n/a	LTP084	ltpFR	11	n/a	n/a	n/a	n/a	n/a	n/a	12	6	3	3	n/a	n/a	n/a	n/a	n/a
296.518	n/a	PROB	148259	n/a	LTP084	ltpFR	11	n/a	n/a	n/a	n/a	n/a	n/a	15	6	6	3	n/a	n/a	n/a	n/a	n/a
297.61	n/a	PROB	148805	n/a	LTP084	ltpFR	11	n/a	n/a	n/a	n/a	n/a	n/a	22	9	6	7	n/a	n/a	n/a	n/a	n/a
299.202	n/a	PROB	149601	n/a	LTP084	ltpFR	11	n/a	n/a	n/a	n/a	n/a	n/a	18	9	7	2	n/a	n/a	n/a	n/a	n/a
300.642	n/a	STOP	150321	n/a	LTP084	ltpFR	11	n/a	n/a	n/a	n/a	n/a	n/a	n/a	n/a	n/a	n/a	n/a	n/a	n/a	n/a	n/a
324.082	n/a	WORD	162041	wordpools/wasnorm_wordpool.txt	LTP084	ltpFR	11	1	0	BASKET	95	n/a	0	n/a	0	0	0	0	0.5869140625	0.422607421875	lower	../fonts/amplitud.ttf
327.94	n/a	WORD	163970	wordpools/wasnorm_wordpool.txt	LTP084	ltpFR	11	1	0	WINDSHIELD	1612	n/a	0	n/a	0	0	0	0	0.5869140625	0.422607421875	lower	../fonts/amplitud.ttf
331.898	n/a	WORD	165949	wordpools/wasnorm_wordpool.txt	LTP084	ltpFR	11	1	0	THIEF	1456	n/a	0	n/a	0	0	0	0	0.5869140625	0.422607421875	lower	../fonts/amplitud.ttf
335.892	n/a	WORD	167946	wordpools/wasnorm_wordpool.txt	LTP084	ltpFR	11	1	0	HAMPER	682	n/a	0	n/a	0	0	0	0	0.5869140625	0.422607421875	lower	../fonts/amplitud.ttf
340.008	n/a	WORD	170004	wordpools/wasnorm_wordpool.txt	LTP084	ltpFR	11	1	0	CITRUS	313	n/a	0	n/a	0	0	0	0	0.5869140625	0.422607421875	lower	../fonts/amplitud.ttf
344.216	n/a	WORD	172108	wordpools/wasnorm_wordpool.txt	LTP084	ltpFR	11	1	0	ENGINEER	536	n/a	0	n/a	0	0	0	0	0.5869140625	0.422607421875	lower	../fonts/amplitud.ttf
348.09	n/a	WORD	174045	wordpools/wasnorm_wordpool.txt	LTP084	ltpFR	11	1	0	STOOL	1386	n/a	0	n/a	0	0	0	0	0.5869140625	0.422607421875	lower	../fonts/amplitud.ttf
352.166	n/a	WORD	176083	wordpools/wasnorm_wordpool.txt	LTP084	ltpFR	11	1	0	RECIPE	1175	n/a	0	n/a	0	0	0	0	0.5869140625	0.422607421875	lower	../fonts/amplitud.ttf
356.166	n/a	WORD	178083	wordpools/wasnorm_wordpool.txt	LTP084	ltpFR	11	1	0	CAFETERIA	217	n/a	1	n/a	0	0	0	0	0.5869140625	0.422607421875	lower	../fonts/amplitud.ttf
360.374	n/a	WORD	180187	wordpools/wasnorm_wordpool.txt	LTP084	ltpFR	11	1	0	VALVE	1546	n/a	0	n/a	0	0	0	0	0.5869140625	0.422607421875	lower	../fonts/amplitud.ttf
364.458	n/a	WORD	182229	wordpools/wasnorm_wordpool.txt	LTP084	ltpFR	11	1	0	HEART	697	n/a	0	n/a	0	0	0	0	0.5869140625	0.422607421875	lower	../fonts/amplitud.ttf
368.64	n/a	WORD	184320	wordpools/wasnorm_wordpool.txt	LTP084	ltpFR	11	1	0	TRUCK	1512	n/a	0	n/a	0	0	0	0	0.5869140625	0.422607421875	lower	../fonts/amplitud.ttf
372.624	n/a	WORD	186312	wordpools/wasnorm_wordpool.txt	LTP084	ltpFR	11	1	0	PASSENGER	1020	n/a	0	n/a	0	0	0	0	0.5869140625	0.422607421875	lower	../fonts/amplitud.ttf
376.782	n/a	WORD	188391	wordpools/wasnorm_wordpool.txt	LTP084	ltpFR	11	1	0	BATTERY	101	n/a	0	n/a	0	0	0	0	0.5869140625	0.422607421875	lower	../fonts/amplitud.ttf
380.716	n/a	WORD	190358	wordpools/wasnorm_wordpool.txt	LTP084	ltpFR	11	1	0	BEET	115	n/a	0	n/a	0	0	0	0	0.5869140625	0.422607421875	lower	../fonts/amplitud.ttf
384.856	n/a	WORD	192428	wordpools/wasnorm_wordpool.txt	LTP084	ltpFR	11	1	0	VEGETABLE	1552	n/a	0	n/a	0	0	0	0	0.5869140625	0.422607421875	lower	../fonts/amplitud.ttf
387.864	n/a	START	193932	n/a	LTP084	ltpFR	11	n/a	n/a	n/a	n/a	n/a	n/a	n/a	n/a	n/a	n/a	n/a	n/a	n/a	n/a	n/a
388.922	n/a	PROB	194461	n/a	LTP084	ltpFR	11	n/a	n/a	n/a	n/a	n/a	n/a	20	9	6	5	n/a	n/a	n/a	n/a	n/a
391.756	n/a	PROB	195878	n/a	LTP084	ltpFR	11	n/a	n/a	n/a	n/a	n/a	n/a	12	2	8	2	n/a	n/a	n/a	n/a	n/a
392.924	n/a	PROB	196462	n/a	LTP084	ltpFR	11	n/a	n/a	n/a	n/a	n/a	n/a	14	1	8	5	n/a	n/a	n/a	n/a	n/a
394.24	n/a	PROB	197120	n/a	LTP084	ltpFR	11	n/a	n/a	n/a	n/a	n/a	n/a	20	6	9	5	n/a	n/a	n/a	n/a	n/a
395.496	n/a	STOP	197748	n/a	LTP084	ltpFR	11	n/a	n/a	n/a	n/a	n/a	n/a	n/a	n/a	n/a	n/a	n/a	n/a	n/a	n/a	n/a
397.716	n/a	REC_START	198858	n/a	LTP084	ltpFR	11	1	n/a	n/a	n/a	n/a	n/a	n/a	0	0	0	n/a	n/a	n/a	n/a	n/a
398.246	n/a	REC_WORD_VV	199123	wordpools/wasnorm_wordpool.txt	LTP084	ltpFR	11	1	n/a	<>	-1	n/a	n/a	n/a	0	0	0	n/a	n/a	n/a	n/a	n/a
398.714	n/a	REC_WORD	199357	wordpools/wasnorm_wordpool.txt	LTP084	ltpFR	11	1	0	TRUCK	1512	n/a	0	n/a	0	0	0	n/a	n/a	n/a	n/a	n/a
399.568	n/a	REC_WORD_VV	199784	wordpools/wasnorm_wordpool.txt	LTP084	ltpFR	11	1	n/a	<>	-1	n/a	n/a	n/a	0	0	0	n/a	n/a	n/a	n/a	n/a
400.67	n/a	REC_WORD	200335	wordpools/wasnorm_wordpool.txt	LTP084	ltpFR	11	1	0	TRUCK	1512	n/a	0	n/a	0	0	0	n/a	n/a	n/a	n/a	n/a
401.542	n/a	REC_WORD	200771	wordpools/wasnorm_wordpool.txt	LTP084	ltpFR	11	1	0	PASSENGER	1020	n/a	0	n/a	0	0	0	n/a	n/a	n/a	n/a	n/a
403.294	n/a	REC_WORD	201647	wordpools/wasnorm_wordpool.txt	LTP084	ltpFR	11	1	0	BEET	115	n/a	0	n/a	0	0	0	n/a	n/a	n/a	n/a	n/a
404.012	n/a	REC_WORD	202006	wordpools/wasnorm_wordpool.txt	LTP084	ltpFR	11	1	0	VEGETABLE	1552	n/a	0	n/a	0	0	0	n/a	n/a	n/a	n/a	n/a
405.518	n/a	REC_WORD	202759	wordpools/wasnorm_wordpool.txt	LTP084	ltpFR	11	1	0	WINDSHIELD	1612	n/a	0	n/a	0	0	0	n/a	n/a	n/a	n/a	n/a
406.716	n/a	REC_WORD	203358	wordpools/wasnorm_wordpool.txt	LTP084	ltpFR	11	1	0	THIEF	1456	n/a	0	n/a	0	0	0	n/a	n/a	n/a	n/a	n/a
407.45	n/a	REC_WORD	203725	wordpools/wasnorm_wordpool.txt	LTP084	ltpFR	11	1	0	HAMPER	682	n/a	0	n/a	0	0	0	n/a	n/a	n/a	n/a	n/a
408.93	n/a	REC_WORD	204465	wordpools/wasnorm_wordpool.txt	LTP084	ltpFR	11	1	0	BASKET	95	n/a	0	n/a	0	0	0	n/a	n/a	n/a	n/a	n/a
410.498	n/a	REC_WORD	205249	wordpools/wasnorm_wordpool.txt	LTP084	ltpFR	11	1	0	HEART	697	n/a	0	n/a	0	0	0	n/a	n/a	n/a	n/a	n/a
411.42	n/a	REC_WORD	205710	wordpools/wasnorm_wordpool.txt	LTP084	ltpFR	11	1	0	VALVE	1546	n/a	0	n/a	0	0	0	n/a	n/a	n/a	n/a	n/a
415.856	n/a	REC_WORD	207928	wordpools/wasnorm_wordpool.txt	LTP084	ltpFR	11	1	0	CITRUS	313	n/a	0	n/a	0	0	0	n/a	n/a	n/a	n/a	n/a
417.732	n/a	REC_WORD	208866	wordpools/wasnorm_wordpool.txt	LTP084	ltpFR	11	1	0	CAFETERIA	217	n/a	1	n/a	0	0	0	n/a	n/a	n/a	n/a	n/a
478.146	n/a	START	239073	n/a	LTP084	ltpFR	11	n/a	n/a	n/a	n/a	n/a	n/a	n/a	n/a	n/a	n/a	n/a	n/a	n/a	n/a	n/a
479.646	n/a	PROB	239823	n/a	LTP084	ltpFR	11	n/a	n/a	n/a	n/a	n/a	n/a	16	4	7	5	n/a	n/a	n/a	n/a	n/a
481.272	n/a	PROB	240636	n/a	LTP084	ltpFR	11	n/a	n/a	n/a	n/a	n/a	n/a	19	9	8	2	n/a	n/a	n/a	n/a	n/a
482.596	n/a	PROB	241298	n/a	LTP084	ltpFR	11	n/a	n/a	n/a	n/a	n/a	n/a	19	7	5	7	n/a	n/a	n/a	n/a	n/a
484.062	n/a	PROB	242031	n/a	LTP084	ltpFR	11	n/a	n/a	n/a	n/a	n/a	n/a	16	6	9	1	n/a	n/a	n/a	n/a	n/a
485.218	n/a	STOP	242609	n/a	LTP084	ltpFR	11	n/a	n/a	n/a	n/a	n/a	n/a	n/a	n/a	n/a	n/a	n/a	n/a	n/a	n/a	n/a
487.312	n/a	WORD	243656	wordpools/wasnorm_wordpool.txt	LTP084	ltpFR	11	2	0	SCARF	1246	n/a	0	n/a	0	0	0	0	0.5869140625	0.422607421875	lower	../fonts/amplitud.ttf
490.322	n/a	START	245161	n/a	LTP084	ltpFR	11	n/a	n/a	n/a	n/a	n/a	n/a	n/a	n/a	n/a	n/a	n/a	n/a	n/a	n/a	n/a
491.362	n/a	PROB	245681	n/a	LTP084	ltpFR	11	n/a	n/a	n/a	n/a	n/a	n/a	20	9	9	2	n/a	n/a	n/a	n/a	n/a
492.72	n/a	PROB	246360	n/a	LTP084	ltpFR	11	n/a	n/a	n/a	n/a	n/a	n/a	13	4	4	5	n/a	n/a	n/a	n/a	n/a
494.472	n/a	PROB	247236	n/a	LTP084	ltpFR	11	n/a	n/a	n/a	n/a	n/a	n/a	16	5	4	7	n/a	n/a	n/a	n/a	n/a
495.846	n/a	PROB	247923	n/a	LTP084	ltpFR	11	n/a	n/a	n/a	n/a	n/a	n/a	11	1	2	8	n/a	n/a	n/a	n/a	n/a
496.946	n/a	STOP	248473	n/a	LTP084	ltpFR	11	n/a	n/a	n/a	n/a	n/a	n/a	n/a	n/a	n/a	n/a	n/a	n/a	n/a	n/a	n/a
499.238	n/a	WORD	249619	wordpools/wasnorm_wordpool.txt	LTP084	ltpFR	11	2	0	RIBBON	1189	n/a	0	n/a	0	0	0	0	0.5869140625	0.422607421875	lower	../fonts/amplitud.ttf
502.246	n/a	START	251123	n/a	LTP084	ltpFR	11	n/a	n/a	n/a	n/a	n/a	n/a	n/a	n/a	n/a	n/a	n/a	n/a	n/a	n/a	n/a
503.312	n/a	PROB	251656	n/a	LTP084	ltpFR	11	n/a	n/a	n/a	n/a	n/a	n/a	18	4	6	8	n/a	n/a	n/a	n/a	n/a
504.788	n/a	PROB	252394	n/a	LTP084	ltpFR	11	n/a	n/a	n/a	n/a	n/a	n/a	13	4	2	7	n/a	n/a	n/a	n/a	n/a
506.404	n/a	PROB	253202	n/a	LTP084	ltpFR	11	n/a	n/a	n/a	n/a	n/a	n/a	17	4	4	9	n/a	n/a	n/a	n/a	n/a
507.762	n/a	PROB	253881	n/a	LTP084	ltpFR	11	n/a	n/a	n/a	n/a	n/a	n/a	12	8	8	2	n/a	n/a	n/a	n/a	n/a
508.788	n/a	STOP	254394	n/a	LTP084	ltpFR	11	n/a	n/a	n/a	n/a	n/a	n/a	n/a	n/a	n/a	n/a	n/a	n/a	n/a	n/a	n/a
511.246	n/a	WORD	255623	wordpools/wasnorm_wordpool.txt	LTP084	ltpFR	11	2	1	WORM	1623	n/a	0	n/a	0	0	0	1	0.412841796875	0.57763671875	upper	../fonts/zerothre.ttf
514.264	n/a	START	257132	n/a	LTP084	ltpFR	11	n/a	n/a	n/a	n/a	n/a	n/a	n/a	n/a	n/a	n/a	n/a	n/a	n/a	n/a	n/a
515.086	n/a	PROB	257543	n/a	LTP084	ltpFR	11	n/a	n/a	n/a	n/a	n/a	n/a	26	9	8	9	n/a	n/a	n/a	n/a	n/a
517.238	n/a	PROB	258619	n/a	LTP084	ltpFR	11	n/a	n/a	n/a	n/a	n/a	n/a	18	4	7	7	n/a	n/a	n/a	n/a	n/a
518.804	n/a	PROB	259402	n/a	LTP084	ltpFR	11	n/a	n/a	n/a	n/a	n/a	n/a	13	1	6	6	n/a	n/a	n/a	n/a	n/a
520.052	n/a	PROB	260026	n/a	LTP084	ltpFR	11	n/a	n/a	n/a	n/a	n/a	n/a	15	4	6	5	n/a	n/a	n/a	n/a	n/a
521.302	n/a	STOP	260651	n/a	LTP084	ltpFR	11	n/a	n/a	n/a	n/a	n/a	n/a	n/a	n/a	n/a	n/a	n/a	n/a	n/a	n/a	n/a
523.328	n/a	WORD	261664	wordpools/wasnorm_wordpool.txt	LTP084	ltpFR	11	2	1	STRAWBERRY	1391	n/a	1	n/a	0	0	0	1	0.412841796875	0.57763671875	upper	../fonts/zerothre.ttf
526.338	n/a	START	263169	n/a	LTP084	ltpFR	11	n/a	n/a	n/a	n/a	n/a	n/a	n/a	n/a	n/a	n/a	n/a	n/a	n/a	n/a	n/a
527.278	n/a	PROB	263639	n/a	LTP084	ltpFR	11	n/a	n/a	n/a	n/a	n/a	n/a	23	9	9	5	n/a	n/a	n/a	n/a	n/a
528.77	n/a	PROB	264385	n/a	LTP084	ltpFR	11	n/a	n/a	n/a	n/a	n/a	n/a	11	4	1	6	n/a	n/a	n/a	n/a	n/a
530.228	n/a	PROB	265114	n/a	LTP084	ltpFR	11	n/a	n/a	n/a	n/a	n/a	n/a	20	8	8	4	n/a	n/a	n/a	n/a	n/a
531.528	n/a	PROB	265764	n/a	LTP084	ltpFR	11	n/a	n/a	n/a	n/a	n/a	n/a	14	8	2	4	n/a	n/a	n/a	n/a	n/a
532.978	n/a	STOP	266489	n/a	LTP084	ltpFR	11	n/a	n/a	n/a	n/a	n/a	n/a	n/a	n/a	n/a	n/a	n/a	n/a	n/a	n/a	n/a
535.188	n/a	WORD	267594	wordpools/wasnorm_wordpool.txt	LTP084	ltpFR	11	2	1	TOASTER	1472	n/a	0	n/a	0	0	0	1	0.412841796875	0.57763671875	upper	../fonts/zerothre.ttf
538.196	n/a	START	269098	n/a	LTP084	ltpFR	11	n/a	n/a	n/a	n/a	n/a	n/a	n/a	n/a	n/a	n/a	n/a	n/a	n/a	n/a	n/a
539.028	n/a	PROB	269514	n/a	LTP084	ltpFR	11	n/a	n/a	n/a	n/a	n/a	n/a	16	6	3	7	n/a	n/a	n/a	n/a	n/a
540.536	n/a	PROB	270268	n/a	LTP084	ltpFR	11	n/a	n/a	n/a	n/a	n/a	n/a	17	4	9	4	n/a	n/a	n/a	n/a	n/a
542.036	n/a	PROB	271018	n/a	LTP084	ltpFR	11	n/a	n/a	n/a	n/a	n/a	n/a	27	9	9	9	n/a	n/a	n/a	n/a	n/a
543.328	n/a	PROB	271664	n/a	LTP084	ltpFR	11	n/a	n/a	n/a	n/a	n/a	n/a	6	3	4	2	n/a	n/a	n/a	n/a	n/a
545.118	n/a	STOP	272559	n/a	LTP084	ltpFR	11	n/a	n/a	n/a	n/a	n/a	n/a	n/a	n/a	n/a	n/a	n/a	n/a	n/a	n/a	n/a
547.252	n/a	WORD	273626	wordpools/wasnorm_wordpool.txt	LTP084	ltpFR	11	2	0	SERGEANT	1269	n/a	0	n/a	0	0	0	0	0.5869140625	0.422607421875	lower	../fonts/amplitud.ttf
550.262	n/a	START	275131	n/a	LTP084	ltpFR	11	n/a	n/a	n/a	n/a	n/a	n/a	n/a	n/a	n/a	n/a	n/a	n/a	n/a	n/a	n/a
551.31	n/a	PROB	275655	n/a	LTP084	ltpFR	11	n/a	n/a	n/a	n/a	n/a	n/a	14	4	6	4	n/a	n/a	n/a	n/a	n/a
552.86	n/a	PROB	276430	n/a	LTP084	ltpFR	11	n/a	n/a	n/a	n/a	n/a	n/a	15	8	1	6	n/a	n/a	n/a	n/a	n/a
554.394	n/a	PROB	277197	n/a	LTP084	ltpFR	11	n/a	n/a	n/a	n/a	n/a	n/a	21	9	4	8	n/a	n/a	n/a	n/a	n/a
557.504	n/a	STOP	278752	n/a	LTP084	ltpFR	11	n/a	n/a	n/a	n/a	n/a	n/a	n/a	n/a	n/a	n/a	n/a	n/a	n/a	n/a	n/a
559.294	n/a	WORD	279647	wordpools/wasnorm_wordpool.txt	LTP084	ltpFR	11	2	0	CARROT	249	n/a	0	n/a	0	0	0	0	0.5869140625	0.422607421875	lower	../fonts/amplitud.ttf
562.304	n/a	START	281152	n/a	LTP084	ltpFR	11	n/a	n/a	n/a	n/a	n/a	n/a	n/a	n/a	n/a	n/a	n/a	n/a	n/a	n/a	n/a
563.262	n/a	PROB	281631	n/a	LTP084	ltpFR	11	n/a	n/a	n/a	n/a	n/a	n/a	14	4	5	5	n/a	n/a	n/a	n/a	n/a
564.61	n/a	PROB	282305	n/a	LTP084	ltpFR	11	n/a	n/a	n/a	n/a	n/a	n/a	15	7	3	5	n/a	n/a	n/a	n/a	n/a
565.802	n/a	PROB	282901	n/a	LTP084	ltpFR	11	n/a	n/a	n/a	n/a	n/a	n/a	8	2	5	1	n/a	n/a	n/a	n/a	n/a
567.252	n/a	PROB	283626	n/a	LTP084	ltpFR	11	n/a	n/a	n/a	n/a	n/a	n/a	14	5	8	1	n/a	n/a	n/a	n/a	n/a
568.402	n/a	PROB	284201	n/a	LTP084	ltpFR	11	n/a	n/a	n/a	n/a	n/a	n/a	20	3	9	8	n/a	n/a	n/a	n/a	n/a
569.72	n/a	STOP	284860	n/a	LTP084	ltpFR	11	n/a	n/a	n/a	n/a	n/a	n/a	n/a	n/a	n/a	n/a	n/a	n/a	n/a	n/a	n/a
571.478	n/a	WORD	285739	wordpools/wasnorm_wordpool.txt	LTP084	ltpFR	11	2	0	CONE	363	n/a	0	n/a	0	0	0	0	0.5869140625	0.422607421875	lower	../fonts/amplitud.ttf
574.486	n/a	START	287243	n/a	LTP084	ltpFR	11	n/a	n/a	n/a	n/a	n/a	n/a	n/a	n/a	n/a	n/a	n/a	n/a	n/a	n/a	n/a
575.594	n/a	PROB	287797	n/a	LTP084	ltpFR	11	n/a	n/a	n/a	n/a	n/a	n/a	24	9	8	7	n/a	n/a	n/a	n/a	n/a
576.952	n/a	PROB	288476	n/a	LTP084	ltpFR	11	n/a	n/a	n/a	n/a	n/a	n/a	17	8	4	5	n/a	n/a	n/a	n/a	n/a
578.876	n/a	PROB	289438	n/a	LTP084	ltpFR	11	n/a	n/a	n/a	n/a	n/a	n/a	21	7	5	9	n/a	n/a	n/a	n/a	n/a
580.41	n/a	PROB	290205	n/a	LTP084	ltpFR	11	n/a	n/a	n/a	n/a	n/a	n/a	17	5	4	8	n/a	n/a	n/a	n/a	n/a
581.888	n/a	STOP	290944	n/a	LTP084	ltpFR	11	n/a	n/a	n/a	n/a	n/a	n/a	n/a	n/a	n/a	n/a	n/a	n/a	n/a	n/a	n/a
583.31	n/a	WORD	291655	wordpools/wasnorm_wordpool.txt	LTP084	ltpFR	11	2	0	CANDIDATE	228	n/a	0	n/a	0	0	0	0	0.5869140625	0.422607421875	lower	../fonts/amplitud.ttf
586.32	n/a	START	293160	n/a	LTP084	ltpFR	11	n/a	n/a	n/a	n/a	n/a	n/a	n/a	n/a	n/a	n/a	n/a	n/a	n/a	n/a	n/a
587.286	n/a	PROB	293643	n/a	LTP084	ltpFR	11	n/a	n/a	n/a	n/a	n/a	n/a	20	9	5	6	n/a	n/a	n/a	n/a	n/a
589.176	n/a	PROB	294588	n/a	LTP084	ltpFR	11	n/a	n/a	n/a	n/a	n/a	n/a	16	9	5	2	n/a	n/a	n/a	n/a	n/a
590.468	n/a	PROB	295234	n/a	LTP084	ltpFR	11	n/a	n/a	n/a	n/a	n/a	n/a	15	5	3	7	n/a	n/a	n/a	n/a	n/a
591.992	n/a	PROB	295996	n/a	LTP084	ltpFR	11	n/a	n/a	n/a	n/a	n/a	n/a	15	8	6	1	n/a	n/a	n/a	n/a	n/a
593.128	n/a	STOP	296564	n/a	LTP084	ltpFR	11	n/a	n/a	n/a	n/a	n/a	n/a	n/a	n/a	n/a	n/a	n/a	n/a	n/a	n/a	n/a
595.194	n/a	WORD	297597	wordpools/wasnorm_wordpool.txt	LTP084	ltpFR	11	2	1	POLITICIAN	1099	n/a	1	n/a	0	0	0	1	0.412841796875	0.57763671875	upper	../fonts/zerothre.ttf
598.194	n/a	START	299097	n/a	LTP084	ltpFR	11	n/a	n/a	n/a	n/a	n/a	n/a	n/a	n/a	n/a	n/a	n/a	n/a	n/a	n/a	n/a
599.152	n/a	PROB	299576	n/a	LTP084	ltpFR	11	n/a	n/a	n/a	n/a	n/a	n/a	9	3	3	3	n/a	n/a	n/a	n/a	n/a
600.452	n/a	PROB	300226	n/a	LTP084	ltpFR	11	n/a	n/a	n/a	n/a	n/a	n/a	14	8	2	4	n/a	n/a	n/a	n/a	n/a
601.718	n/a	PROB	300859	n/a	LTP084	ltpFR	11	n/a	n/a	n/a	n/a	n/a	n/a	7	1	1	5	n/a	n/a	n/a	n/a	n/a
602.992	n/a	PROB	301496	n/a	LTP084	ltpFR	11	n/a	n/a	n/a	n/a	n/a	n/a	16	5	1	8	n/a	n/a	n/a	n/a	n/a
604.746	n/a	STOP	302373	n/a	LTP084	ltpFR	11	n/a	n/a	n/a	n/a	n/a	n/a	n/a	n/a	n/a	n/a	n/a	n/a	n/a	n/a	n/a
607.294	n/a	WORD	303647	wordpools/wasnorm_wordpool.txt	LTP084	ltpFR	11	2	1	RABBIT	1152	n/a	1	n/a	0	0	0	1	0.412841796875	0.57763671875	upper	../fonts/zerothre.ttf
610.302	n/a	START	305151	n/a	LTP084	ltpFR	11	n/a	n/a	n/a	n/a	n/a	n/a	n/a	n/a	n/a	n/a	n/a	n/a	n/a	n/a	n/a
611.502	n/a	PROB	305751	n/a	LTP084	ltpFR	11	n/a	n/a	n/a	n/a	n/a	n/a	11	4	2	5	n/a	n/a	n/a	n/a	n/a
612.942	n/a	PROB	306471	n/a	LTP084	ltpFR	11	n/a	n/a	n/a	n/a	n/a	n/a	15	3	3	9	n/a	n/a	n/a	n/a	n/a
614.526	n/a	PROB	307263	n/a	LTP084	ltpFR	11	n/a	n/a	n/a	n/a	n/a	n/a	25	8	8	9	n/a	n/a	n/a	n/a	n/a
616.186	n/a	PROB	308093	n/a	LTP084	ltpFR	11	n/a	n/a	n/a	n/a	n/a	n/a	5	2	1	2	n/a	n/a	n/a	n/a	n/a
617.41	n/a	STOP	308705	n/a	LTP084	ltpFR	11	n/a	n/a	n/a	n/a	n/a	n/a	n/a	n/a	n/a	n/a	n/a	n/a	n/a	n/a	n/a
619.226	n/a	WORD	309613	wordpools/wasnorm_wordpool.txt	LTP084	ltpFR	11	2	1	FLOUR	583	n/a	0	n/a	0	0	0	1	0.412841796875	0.57763671875	upper	../fonts/zerothre.ttf
622.234	n/a	START	311117	n/a	LTP084	ltpFR	11	n/a	n/a	n/a	n/a	n/a	n/a	n/a	n/a	n/a	n/a	n/a	n/a	n/a	n/a	n/a
623.142	n/a	PROB	311571	n/a	LTP084	ltpFR	11	n/a	n/a	n/a	n/a	n/a	n/a	21	8	6	7	n/a	n/a	n/a	n/a	n/a
624.768	n/a	PROB	312384	n/a	LTP084	ltpFR	11	n/a	n/a	n/a	n/a	n/a	n/a	21	8	4	9	n/a	n/a	n/a	n/a	n/a
626.226	n/a	PROB	313113	n/a	LTP084	ltpFR	11	n/a	n/a	n/a	n/a	n/a	n/a	10	3	5	2	n/a	n/a	n/a	n/a	n/a
627.642	n/a	PROB	313821	n/a	LTP084	ltpFR	11	n/a	n/a	n/a	n/a	n/a	n/a	17	6	3	8	n/a	n/a	n/a	n/a	n/a
629.09	n/a	STOP	314545	n/a	LTP084	ltpFR	11	n/a	n/a	n/a	n/a	n/a	n/a	n/a	n/a	n/a	n/a	n/a	n/a	n/a	n/a	n/a
631.092	n/a	WORD	315546	wordpools/wasnorm_wordpool.txt	LTP084	ltpFR	11	2	1	PLATE	1086	n/a	0	n/a	0	0	0	1	0.412841796875	0.57763671875	upper	../fonts/zerothre.ttf
634.1	n/a	START	317050	n/a	LTP084	ltpFR	11	n/a	n/a	n/a	n/a	n/a	n/a	n/a	n/a	n/a	n/a	n/a	n/a	n/a	n/a	n/a
635.202	n/a	PROB	317601	n/a	LTP084	ltpFR	11	n/a	n/a	n/a	n/a	n/a	n/a	17	6	6	5	n/a	n/a	n/a	n/a	n/a
637.034	n/a	PROB	318517	n/a	LTP084	ltpFR	11	n/a	n/a	n/a	n/a	n/a	n/a	26	8	9	9	n/a	n/a	n/a	n/a	n/a
638.9	n/a	PROB	319450	n/a	LTP084	ltpFR	11	n/a	n/a	n/a	n/a	n/a	n/a	25	8	8	9	n/a	n/a	n/a	n/a	n/a
640.492	n/a	PROB	320246	n/a	LTP084	ltpFR	11	n/a	n/a	n/a	n/a	n/a	n/a	1	6	7	6	n/a	n/a	n/a	n/a	n/a
641.906	n/a	STOP	320953	n/a	LTP084	ltpFR	11	n/a	n/a	n/a	n/a	n/a	n/a	n/a	n/a	n/a	n/a	n/a	n/a	n/a	n/a	n/a
643.016	n/a	WORD	321508	wordpools/wasnorm_wordpool.txt	LTP084	ltpFR	11	2	1	TIMBER	1469	n/a	0	n/a	0	0	0	1	0.412841796875	0.57763671875	upper	../fonts/zerothre.ttf
646.024	n/a	START	323012	n/a	LTP084	ltpFR	11	n/a	n/a	n/a	n/a	n/a	n/a	n/a	n/a	n/a	n/a	n/a	n/a	n/a	n/a	n/a
647.2	n/a	PROB	323600	n/a	LTP084	ltpFR	11	n/a	n/a	n/a	n/a	n/a	n/a	18	7	2	9	n/a	n/a	n/a	n/a	n/a
648.658	n/a	PROB	324329	n/a	LTP084	ltpFR	11	n/a	n/a	n/a	n/a	n/a	n/a	16	6	7	3	n/a	n/a	n/a	n/a	n/a
649.94	n/a	PROB	324970	n/a	LTP084	ltpFR	11	n/a	n/a	n/a	n/a	n/a	n/a	9	2	1	6	n/a	n/a	n/a	n/a	n/a
651.376	n/a	PROB	325688	n/a	LTP084	ltpFR	11	n/a	n/a	n/a	n/a	n/a	n/a	11	1	2	8	n/a	n/a	n/a	n/a	n/a
652.532	n/a	STOP	326266	n/a	LTP084	ltpFR	11	n/a	n/a	n/a	n/a	n/a	n/a	n/a	n/a	n/a	n/a	n/a	n/a	n/a	n/a	n/a
655.058	n/a	WORD	327529	wordpools/wasnorm_wordpool.txt	LTP084	ltpFR	11	2	0	CAT	257	n/a	2	n/a	0	0	0	0	0.5869140625	0.422607421875	lower	../fonts/amplitud.ttf
656.05	n/a	KEY_MSG	328025	n/a	LTP084	ltpFR	11	2	n/a	n/a	n/a	n/a	n/a	n/a	0	0	0	n/a	n/a	n/a	n/a	n/a
658.066	n/a	START	329033	n/a	LTP084	ltpFR	11	n/a	n/a	n/a	n/a	n/a	n/a	n/a	n/a	n/a	n/a	n/a	n/a	n/a	n/a	n/a
658.916	n/a	PROB	329458	n/a	LTP084	ltpFR	11	n/a	n/a	n/a	n/a	n/a	n/a	8	1	3	4	n/a	n/a	n/a	n/a	n/a
660.2	n/a	PROB	330100	n/a	LTP084	ltpFR	11	n/a	n/a	n/a	n/a	n/a	n/a	21	5	8	8	n/a	n/a	n/a	n/a	n/a
662.108	n/a	PROB	331054	n/a	LTP084	ltpFR	11	n/a	n/a	n/a	n/a	n/a	n/a	19	7	3	9	n/a	n/a	n/a	n/a	n/a
663.608	n/a	PROB	331804	n/a	LTP084	ltpFR	11	n/a	n/a	n/a	n/a	n/a	n/a	27	9	9	9	n/a	n/a	n/a	n/a	n/a
664.964	n/a	STOP	332482	n/a	LTP084	ltpFR	11	n/a	n/a	n/a	n/a	n/a	n/a	n/a	n/a	n/a	n/a	n/a	n/a	n/a	n/a	n/a
667.09	n/a	WORD	333545	wordpools/wasnorm_wordpool.txt	LTP084	ltpFR	11	2	0	WHISKERS	1605	n/a	0	n/a	0	0	0	0	0.5869140625	0.422607421875	lower	../fonts/amplitud.ttf
670.098	n/a	START	335049	n/a	LTP084	ltpFR	11	n/a	n/a	n/a	n/a	n/a	n/a	n/a	n/a	n/a	n/a	n/a	n/a	n/a	n/a	n/a
671.082	n/a	PROB	335541	n/a	LTP084	ltpFR	11	n/a	n/a	n/a	n/a	n/a	n/a	19	7	8	4	n/a	n/a	n/a	n/a	n/a
672.948	n/a	PROB	336474	n/a	LTP084	ltpFR	11	n/a	n/a	n/a	n/a	n/a	n/a	13	1	8	4	n/a	n/a	n/a	n/a	n/a
674.468	n/a	PROB	337234	n/a	LTP084	ltpFR	11	n/a	n/a	n/a	n/a	n/a	n/a	10	1	4	5	n/a	n/a	n/a	n/a	n/a
675.716	n/a	PROB	337858	n/a	LTP084	ltpFR	11	n/a	n/a	n/a	n/a	n/a	n/a	15	2	9	4	n/a	n/a	n/a	n/a	n/a
677.044	n/a	STOP	338522	n/a	LTP084	ltpFR	11	n/a	n/a	n/a	n/a	n/a	n/a	n/a	n/a	n/a	n/a	n/a	n/a	n/a	n/a	n/a
679.966	n/a	REC_START	339983	n/a	LTP084	ltpFR	11	2	n/a	n/a	n/a	n/a	n/a	n/a	0	0	0	n/a	n/a	n/a	n/a	n/a
681.568	n/a	REC_WORD	340784	wordpools/wasnorm_wordpool.txt	LTP084	ltpFR	11	2	0	BASKET	95	n/a	0	n/a	0	0	0	n/a	n/a	n/a	n/a	n/a
682.68	n/a	REC_WORD	341340	wordpools/wasnorm_wordpool.txt	LTP084	ltpFR	11	2	0	CAT	257	n/a	2	n/a	0	0	0	n/a	n/a	n/a	n/a	n/a
683.672	n/a	REC_WORD	341836	wordpools/wasnorm_wordpool.txt	LTP084	ltpFR	11	2	0	WHISKERS	1605	n/a	0	n/a	0	0	0	n/a	n/a	n/a	n/a	n/a
685.384	n/a	REC_WORD	342692	wordpools/wasnorm_wordpool.txt	LTP084	ltpFR	11	2	0	RIBBON	1189	n/a	0	n/a	0	0	0	n/a	n/a	n/a	n/a	n/a
759.672	n/a	WORD	379836	wordpools/wasnorm_wordpool.txt	LTP084	ltpFR	11	3	0	BUNNY	198	n/a	0	n/a	0	0	0	0	0.5869140625	0.422607421875	lower	../fonts/amplitud.ttf
763.69	n/a	WORD	381845	wordpools/wasnorm_wordpool.txt	LTP084	ltpFR	11	3	0	MAGICIAN	854	n/a	0	n/a	0	0	0	0	0.5869140625	0.422607421875	lower	../fonts/amplitud.ttf
767.838	n/a	WORD	383919	wordpools/wasnorm_wordpool.txt	LTP084	ltpFR	11	3	0	BLACKBERRY	132	n/a	0	n/a	0	0	0	0	0.5869140625	0.422607421875	lower	../fonts/amplitud.ttf
771.764	n/a	WORD	385882	wordpools/wasnorm_wordpool.txt	LTP084	ltpFR	11	3	0	ELECTRICIAN	521	n/a	0	n/a	0	0	0	0	0.5869140625	0.422607421875	lower	../fonts/amplitud.ttf
775.922	n/a	WORD	387961	wordpools/wasnorm_wordpool.txt	LTP084	ltpFR	11	3	0	COIN	343	n/a	0	n/a	0	0	0	0	0.5869140625	0.422607421875	lower	../fonts/amplitud.ttf
780.038	n/a	WORD	390019	wordpools/wasnorm_wordpool.txt	LTP084	ltpFR	11	3	1	RASH	1167	n/a	0	n/a	0	0	0	1	0.412841796875	0.57763671875	upper	../fonts/zerothre.ttf
783.93	n/a	WORD	391965	wordpools/wasnorm_wordpool.txt	LTP084	ltpFR	11	3	1	BINDER	127	n/a	0	n/a	0	0	0	1	0.412841796875	0.57763671875	upper	../fonts/zerothre.ttf
787.98	n/a	WORD	393990	wordpools/wasnorm_wordpool.txt	LTP084	ltpFR	11	3	1	SPICE	1350	n/a	0	n/a	0	0	0	1	0.412841796875	0.57763671875	upper	../fonts/zerothre.ttf
791.854	n/a	WORD	395927	wordpools/wasnorm_wordpool.txt	LTP084	ltpFR	11	3	1	CHAUFFEUR	283	n/a	0	n/a	0	0	0	1	0.412841796875	0.57763671875	upper	../fonts/zerothre.ttf
795.988	n/a	WORD	397994	wordpools/wasnorm_wordpool.txt	LTP084	ltpFR	11	3	1	POTATO	1115	n/a	0	n/a	0	0	0	1	0.412841796875	0.57763671875	upper	../fonts/zerothre.ttf
800.02	n/a	WORD	400010	wordpools/wasnorm_wordpool.txt	LTP084	ltpFR	11	3	1	HURRICANE	727	n/a	0	n/a	0	0	0	1	0.412841796875	0.57763671875	upper	../fonts/zerothre.ttf
803.97	n/a	WORD	401985	wordpools/wasnorm_wordpool.txt	LTP084	ltpFR	11	3	0	CYCLONE	431	n/a	0	n/a	0	0	0	0	0.5869140625	0.422607421875	lower	../fonts/amplitud.ttf
807.888	n/a	WORD	403944	wordpools/wasnorm_wordpool.txt	LTP084	ltpFR	11	3	0	SUPERMARKET	1409	n/a	0	n/a	0	0	0	0	0.5869140625	0.422607421875	lower	../fonts/amplitud.ttf
811.712	n/a	WORD	405856	wordpools/wasnorm_wordpool.txt	LTP084	ltpFR	11	3	0	BALL	73	n/a	0	n/a	0	0	0	0	0.5869140625	0.422607421875	lower	../fonts/amplitud.ttf
815.83	n/a	WORD	407915	wordpools/wasnorm_wordpool.txt	LTP084	ltpFR	11	3	1	FREEWAY	603	n/a	0	n/a	0	0	0	1	0.412841796875	0.57763671875	upper	../fonts/zerothre.ttf
819.92	n/a	WORD	409960	wordpools/wasnorm_wordpool.txt	LTP084	ltpFR	11	3	1	SERVER	1272	n/a	0	n/a	0	0	0	1	0.412841796875	0.57763671875	upper	../fonts/zerothre.ttf
822.928	n/a	START	411464	n/a	LTP084	ltpFR	11	n/a	n/a	n/a	n/a	n/a	n/a	n/a	n/a	n/a	n/a	n/a	n/a	n/a	n/a	n/a
824.062	n/a	PROB	412031	n/a	LTP084	ltpFR	11	n/a	n/a	n/a	n/a	n/a	n/a	11	3	1	7	n/a	n/a	n/a	n/a	n/a
826.346	n/a	PROB	413173	n/a	LTP084	ltpFR	11	n/a	n/a	n/a	n/a	n/a	n/a	14	1	7	6	n/a	n/a	n/a	n/a	n/a
827.588	n/a	PROB	413794	n/a	LTP084	ltpFR	11	n/a	n/a	n/a	n/a	n/a	n/a	14	7	3	4	n/a	n/a	n/a	n/a	n/a
828.696	n/a	PROB	414348	n/a	LTP084	ltpFR	11	n/a	n/a	n/a	n/a	n/a	n/a	25	9	7	9	n/a	n/a	n/a	n/a	n/a
829.916	n/a	STOP	414958	n/a	LTP084	ltpFR	11	n/a	n/a	n/a	n/a	n/a	n/a	n/a	n/a	n/a	n/a	n/a	n/a	n/a	n/a	n/a
832.78	n/a	REC_START	416390	n/a	LTP084	ltpFR	11	3	n/a	n/a	n/a	n/a	n/a	n/a	0	0	0	n/a	n/a	n/a	n/a	n/a
833.956	n/a	REC_WORD	416978	wordpools/wasnorm_wordpool.txt	LTP084	ltpFR	11	3	1	BINDER	127	n/a	0	n/a	0	0	0	n/a	n/a	n/a	n/a	n/a
835.06	n/a	REC_WORD	417530	wordpools/wasnorm_wordpool.txt	LTP084	ltpFR	11	3	1	SPICE	1350	n/a	0	n/a	0	0	0	n/a	n/a	n/a	n/a	n/a
838.158	n/a	REC_WORD	419079	wordpools/wasnorm_wordpool.txt	LTP084	ltpFR	11	3	0	BUNNY	198	n/a	0	n/a	0	0	0	n/a	n/a	n/a	n/a	n/a
840.228	n/a	REC_WORD	420114	wordpools/wasnorm_wordpool.txt	LTP084	ltpFR	11	3	1	POTATO	1115	n/a	0	n/a	0	0	0	n/a	n/a	n/a	n/a	n/a
843.89	n/a	REC_WORD	421945	wordpools/wasnorm_wordpool.txt	LTP084	ltpFR	11	3	0	BLACKBERRY	132	n/a	0	n/a	0	0	0	n/a	n/a	n/a	n/a	n/a
910.018	n/a	START	455009	n/a	LTP084	ltpFR	11	n/a	n/a	n/a	n/a	n/a	n/a	n/a	n/a	n/a	n/a	n/a	n/a	n/a	n/a	n/a
911.518	n/a	PROB	455759	n/a	LTP084	ltpFR	11	n/a	n/a	n/a	n/a	n/a	n/a	11	8	1	2	n/a	n/a	n/a	n/a	n/a
913.752	n/a	PROB	456876	n/a	LTP084	ltpFR	11	n/a	n/a	n/a	n/a	n/a	n/a	11	4	3	4	n/a	n/a	n/a	n/a	n/a
915.008	n/a	PROB	457504	n/a	LTP084	ltpFR	11	n/a	n/a	n/a	n/a	n/a	n/a	22	8	5	9	n/a	n/a	n/a	n/a	n/a
916.762	n/a	STOP	458381	n/a	LTP084	ltpFR	11	n/a	n/a	n/a	n/a	n/a	n/a	n/a	n/a	n/a	n/a	n/a	n/a	n/a	n/a	n/a
918.984	n/a	WORD	459492	wordpools/wasnorm_wordpool.txt	LTP084	ltpFR	11	4	1	SHOVEL	1295	n/a	0	n/a	0	0	0	1	0.412841796875	0.57763671875	upper	../fonts/zerothre.ttf
921.994	n/a	START	460997	n/a	LTP084	ltpFR	11	n/a	n/a	n/a	n/a	n/a	n/a	n/a	n/a	n/a	n/a	n/a	n/a	n/a	n/a	n/a
922.942	n/a	PROB	461471	n/a	LTP084	ltpFR	11	n/a	n/a	n/a	n/a	n/a	n/a	17	4	7	6	n/a	n/a	n/a	n/a	n/a
924.468	n/a	PROB	462234	n/a	LTP084	ltpFR	11	n/a	n/a	n/a	n/a	n/a	n/a	10	1	4	5	n/a	n/a	n/a	n/a	n/a
926.268	n/a	PROB	463134	n/a	LTP084	ltpFR	11	n/a	n/a	n/a	n/a	n/a	n/a	19	6	8	5	n/a	n/a	n/a	n/a	n/a
927.776	n/a	PROB	463888	n/a	LTP084	ltpFR	11	n/a	n/a	n/a	n/a	n/a	n/a	5	1	3	1	n/a	n/a	n/a	n/a	n/a
928.754	n/a	STOP	464377	n/a	LTP084	ltpFR	11	n/a	n/a	n/a	n/a	n/a	n/a	n/a	n/a	n/a	n/a	n/a	n/a	n/a	n/a	n/a
931.126	n/a	WORD	465563	wordpools/wasnorm_wordpool.txt	LTP084	ltpFR	11	4	1	JUGGLER	763	n/a	0	n/a	0	0	0	1	0.412841796875	0.57763671875	upper	../fonts/zerothre.ttf
934.134	n/a	START	467067	n/a	LTP084	ltpFR	11	n/a	n/a	n/a	n/a	n/a	n/a	n/a	n/a	n/a	n/a	n/a	n/a	n/a	n/a	n/a
935.034	n/a	PROB	467517	n/a	LTP084	ltpFR	11	n/a	n/a	n/a	n/a	n/a	n/a	15	7	5	3	n/a	n/a	n/a	n/a	n/a
936.544	n/a	PROB	468272	n/a	LTP084	ltpFR	11	n/a	n/a	n/a	n/a	n/a	n/a	8	2	5	1	n/a	n/a	n/a	n/a	n/a
937.594	n/a	PROB	468797	n/a	LTP084	ltpFR	11	n/a	n/a	n/a	n/a	n/a	n/a	15	7	1	4	n/a	n/a	n/a	n/a	n/a
939.236	n/a	PROB	469618	n/a	LTP084	ltpFR	11	n/a	n/a	n/a	n/a	n/a	n/a	8	4	3	1	n/a	n/a	n/a	n/a	n/a
940.284	n/a	PROB	470142	n/a	LTP084	ltpFR	11	n/a	n/a	n/a	n/a	n/a	n/a	11	6	3	2	n/a	n/a	n/a	n/a	n/a
941.49	n/a	STOP	470745	n/a	LTP084	ltpFR	11	n/a	n/a	n/a	n/a	n/a	n/a	n/a	n/a	n/a	n/a	n/a	n/a	n/a	n/a	n/a
943.184	n/a	WORD	471592	wordpools/wasnorm_wordpool.txt	LTP084	ltpFR	11	4	1	SPONGE	1355	n/a	0	n/a	0	0	0	1	0.412841796875	0.57763671875	upper	../fonts/zerothre.ttf
946.184	n/a	START	473092	n/a	LTP084	ltpFR	11	n/a	n/a	n/a	n/a	n/a	n/a	n/a	n/a	n/a	n/a	n/a	n/a	n/a	n/a	n/a
947.116	n/a	PROB	473558	n/a	LTP084	ltpFR	11	n/a	n/a	n/a	n/a	n/a	n/a	21	4	8	9	n/a	n/a	n/a	n/a	n/a
948.792	n/a	PROB	474396	n/a	LTP084	ltpFR	11	n/a	n/a	n/a	n/a	n/a	n/a	22	8	7	7	n/a	n/a	n/a	n/a	n/a
950.292	n/a	PROB	475146	n/a	LTP084	ltpFR	11	n/a	n/a	n/a	n/a	n/a	n/a	14	8	3	3	n/a	n/a	n/a	n/a	n/a
951.518	n/a	PROB	475759	n/a	LTP084	ltpFR	11	n/a	n/a	n/a	n/a	n/a	n/a	17	7	6	4	n/a	n/a	n/a	n/a	n/a
952.85	n/a	STOP	476425	n/a	LTP084	ltpFR	11	n/a	n/a	n/a	n/a	n/a	n/a	n/a	n/a	n/a	n/a	n/a	n/a	n/a	n/a	n/a
955.042	n/a	WORD	477521	wordpools/wasnorm_wordpool.txt	LTP084	ltpFR	11	4	1	FLASHLIGHT	575	n/a	0	n/a	0	0	0	1	0.412841796875	0.57763671875	upper	../fonts/zerothre.ttf
958.05	n/a	START	479025	n/a	LTP084	ltpFR	11	n/a	n/a	n/a	n/a	n/a	n/a	n/a	n/a	n/a	n/a	n/a	n/a	n/a	n/a	n/a
959.108	n/a	PROB	479554	n/a	LTP084	ltpFR	11	n/a	n/a	n/a	n/a	n/a	n/a	14	7	6	1	n/a	n/a	n/a	n/a	n/a
960.41	n/a	PROB	480205	n/a	LTP084	ltpFR	11	n/a	n/a	n/a	n/a	n/a	n/a	19	8	3	8	n/a	n/a	n/a	n/a	n/a
961.984	n/a	PROB	480992	n/a	LTP084	ltpFR	11	n/a	n/a	n/a	n/a	n/a	n/a	16	4	6	6	n/a	n/a	n/a	n/a	n/a
963.492	n/a	PROB	481746	n/a	LTP084	ltpFR	11	n/a	n/a	n/a	n/a	n/a	n/a	17	9	6	2	n/a	n/a	n/a	n/a	n/a
965.138	n/a	STOP	482569	n/a	LTP084	ltpFR	11	n/a	n/a	n/a	n/a	n/a	n/a	n/a	n/a	n/a	n/a	n/a	n/a	n/a	n/a	n/a
967.124	n/a	WORD	483562	wordpools/wasnorm_wordpool.txt	LTP084	ltpFR	11	4	1	BUBBLE	183	n/a	0	n/a	0	0	0	1	0.412841796875	0.57763671875	upper	../fonts/zerothre.ttf
970.134	n/a	START	485067	n/a	LTP084	ltpFR	11	n/a	n/a	n/a	n/a	n/a	n/a	n/a	n/a	n/a	n/a	n/a	n/a	n/a	n/a	n/a
971.042	n/a	PROB	485521	n/a	LTP084	ltpFR	11	n/a	n/a	n/a	n/a	n/a	n/a	15	8	1	6	n/a	n/a	n/a	n/a	n/a
972.458	n/a	PROB	486229	n/a	LTP084	ltpFR	11	n/a	n/a	n/a	n/a	n/a	n/a	12	1	7	4	n/a	n/a	n/a	n/a	n/a
973.708	n/a	PROB	486854	n/a	LTP084	ltpFR	11	n/a	n/a	n/a	n/a	n/a	n/a	13	5	1	7	n/a	n/a	n/a	n/a	n/a
975.284	n/a	PROB	487642	n/a	LTP084	ltpFR	11	n/a	n/a	n/a	n/a	n/a	n/a	12	7	1	4	n/a	n/a	n/a	n/a	n/a
976.988	n/a	STOP	488494	n/a	LTP084	ltpFR	11	n/a	n/a	n/a	n/a	n/a	n/a	n/a	n/a	n/a	n/a	n/a	n/a	n/a	n/a	n/a
979.26	n/a	WORD	489630	wordpools/wasnorm_wordpool.txt	LTP084	ltpFR	11	4	1	FAUCET	555	n/a	0	n/a	0	0	0	1	0.412841796875	0.57763671875	upper	../fonts/zerothre.ttf
982.268	n/a	START	491134	n/a	LTP084	ltpFR	11	n/a	n/a	n/a	n/a	n/a	n/a	n/a	n/a	n/a	n/a	n/a	n/a	n/a	n/a	n/a
983.368	n/a	PROB	491684	n/a	LTP084	ltpFR	11	n/a	n/a	n/a	n/a	n/a	n/a	17	4	8	5	n/a	n/a	n/a	n/a	n/a
984.7	n/a	PROB	492350	n/a	LTP084	ltpFR	11	n/a	n/a	n/a	n/a	n/a	n/a	20	3	8	9	n/a	n/a	n/a	n/a	n/a
987.476	n/a	PROB	493738	n/a	LTP084	ltpFR	11	n/a	n/a	n/a	n/a	n/a	n/a	15	3	7	5	n/a	n/a	n/a	n/a	n/a
988.574	n/a	PROB	494287	n/a	LTP084	ltpFR	11	n/a	n/a	n/a	n/a	n/a	n/a	15	5	2	8	n/a	n/a	n/a	n/a	n/a
989.644	n/a	STOP	494822	n/a	LTP084	ltpFR	11	n/a	n/a	n/a	n/a	n/a	n/a	n/a	n/a	n/a	n/a	n/a	n/a	n/a	n/a	n/a
991.284	n/a	WORD	495642	wordpools/wasnorm_wordpool.txt	LTP084	ltpFR	11	4	1	BADGE	68	n/a	0	n/a	0	0	0	1	0.412841796875	0.57763671875	upper	../fonts/zerothre.ttf
994.292	n/a	START	497146	n/a	LTP084	ltpFR	11	n/a	n/a	n/a	n/a	n/a	n/a	n/a	n/a	n/a	n/a	n/a	n/a	n/a	n/a	n/a
995.442	n/a	PROB	497721	n/a	LTP084	ltpFR	11	n/a	n/a	n/a	n/a	n/a	n/a	21	9	7	5	n/a	n/a	n/a	n/a	n/a
996.842	n/a	PROB	498421	n/a	LTP084	ltpFR	11	n/a	n/a	n/a	n/a	n/a	n/a	18	8	4	7	n/a	n/a	n/a	n/a	n/a
998.276	n/a	PROB	499138	n/a	LTP084	ltpFR	11	n/a	n/a	n/a	n/a	n/a	n/a	7	1	2	4	n/a	n/a	n/a	n/a	n/a
999.584	n/a	PROB	499792	n/a	LTP084	ltpFR	11	n/a	n/a	n/a	n/a	n/a	n/a	13	8	2	3	n/a	n/a	n/a	n/a	n/a
1000.9	n/a	STOP	500450	n/a	LTP084	ltpFR	11	n/a	n/a	n/a	n/a	n/a	n/a	n/a	n/a	n/a	n/a	n/a	n/a	n/a	n/a	n/a
1003.392	n/a	WORD	501696	wordpools/wasnorm_wordpool.txt	LTP084	ltpFR	11	4	1	ROOF	1205	n/a	0	n/a	0	0	0	1	0.412841796875	0.57763671875	upper	../fonts/zerothre.ttf
1006.4	n/a	START	503200	n/a	LTP084	ltpFR	11	n/a	n/a	n/a	n/a	n/a	n/a	n/a	n/a	n/a	n/a	n/a	n/a	n/a	n/a	n/a
1007.358	n/a	PROB	503679	n/a	LTP084	ltpFR	11	n/a	n/a	n/a	n/a	n/a	n/a	17	2	9	6	n/a	n/a	n/a	n/a	n/a
1009.04	n/a	PROB	504520	n/a	LTP084	ltpFR	11	n/a	n/a	n/a	n/a	n/a	n/a	21	7	9	5	n/a	n/a	n/a	n/a	n/a
1010.542	n/a	PROB	505271	n/a	LTP084	ltpFR	11	n/a	n/a	n/a	n/a	n/a	n/a	12	2	6	4	n/a	n/a	n/a	n/a	n/a
1014.4	n/a	STOP	507200	n/a	LTP084	ltpFR	11	n/a	n/a	n/a	n/a	n/a	n/a	n/a	n/a	n/a	n/a	n/a	n/a	n/a	n/a	n/a
1015.224	n/a	WORD	507612	wordpools/wasnorm_wordpool.txt	LTP084	ltpFR	11	4	1	SURGEON	1413	n/a	0	n/a	0	0	0	1	0.412841796875	0.57763671875	upper	../fonts/zerothre.ttf
1018.234	n/a	START	509117	n/a	LTP084	ltpFR	11	n/a	n/a	n/a	n/a	n/a	n/a	n/a	n/a	n/a	n/a	n/a	n/a	n/a	n/a	n/a
1019.284	n/a	PROB	509642	n/a	LTP084	ltpFR	11	n/a	n/a	n/a	n/a	n/a	n/a	22	5	8	9	n/a	n/a	n/a	n/a	n/a
1021.45	n/a	PROB	510725	n/a	LTP084	ltpFR	11	n/a	n/a	n/a	n/a	n/a	n/a	15	1	8	6	n/a	n/a	n/a	n/a	n/a
1022.824	n/a	PROB	511412	n/a	LTP084	ltpFR	11	n/a	n/a	n/a	n/a	n/a	n/a	18	9	8	1	n/a	n/a	n/a	n/a	n/a
1024.35	n/a	PROB	512175	n/a	LTP084	ltpFR	11	n/a	n/a	n/a	n/a	n/a	n/a	14	9	4	1	n/a	n/a	n/a	n/a	n/a
1025.662	n/a	STOP	512831	n/a	LTP084	ltpFR	11	n/a	n/a	n/a	n/a	n/a	n/a	n/a	n/a	n/a	n/a	n/a	n/a	n/a	n/a	n/a
1027.064	n/a	WORD	513532	wordpools/wasnorm_wordpool.txt	LTP084	ltpFR	11	4	1	SCIENTIST	1249	n/a	0	n/a	0	0	0	1	0.412841796875	0.57763671875	upper	../fonts/zerothre.ttf
1030.064	n/a	START	515032	n/a	LTP084	ltpFR	11	n/a	n/a	n/a	n/a	n/a	n/a	n/a	n/a	n/a	n/a	n/a	n/a	n/a	n/a	n/a
1030.956	n/a	PROB	515478	n/a	LTP084	ltpFR	11	n/a	n/a	n/a	n/a	n/a	n/a	10	4	4	2	n/a	n/a	n/a	n/a	n/a
1033.006	n/a	PROB	516503	n/a	LTP084	ltpFR	11	n/a	n/a	n/a	n/a	n/a	n/a	14	7	3	4	n/a	n/a	n/a	n/a	n/a
1034.156	n/a	PROB	517078	n/a	LTP084	ltpFR	11	n/a	n/a	n/a	n/a	n/a	n/a	21	5	9	7	n/a	n/a	n/a	n/a	n/a
1035.524	n/a	PROB	517762	n/a	LTP084	ltpFR	11	n/a	n/a	n/a	n/a	n/a	n/a	13	7	1	5	n/a	n/a	n/a	n/a	n/a
1036.696	n/a	STOP	518348	n/a	LTP084	ltpFR	11	n/a	n/a	n/a	n/a	n/a	n/a	n/a	n/a	n/a	n/a	n/a	n/a	n/a	n/a	n/a
1038.99	n/a	WORD	519495	wordpools/wasnorm_wordpool.txt	LTP084	ltpFR	11	4	1	FEATHER	557	n/a	0	n/a	0	0	0	1	0.412841796875	0.57763671875	upper	../fonts/zerothre.ttf
1041.998	n/a	START	520999	n/a	LTP084	ltpFR	11	n/a	n/a	n/a	n/a	n/a	n/a	n/a	n/a	n/a	n/a	n/a	n/a	n/a	n/a	n/a
1042.906	n/a	PROB	521453	n/a	LTP084	ltpFR	11	n/a	n/a	n/a	n/a	n/a	n/a	15	6	2	7	n/a	n/a	n/a	n/a	n/a
1044.324	n/a	PROB	522162	n/a	LTP084	ltpFR	11	n/a	n/a	n/a	n/a	n/a	n/a	18	9	8	1	n/a	n/a	n/a	n/a	n/a
1046.316	n/a	PROB	523158	n/a	LTP084	ltpFR	11	n/a	n/a	n/a	n/a	n/a	n/a	11	4	5	2	n/a	n/a	n/a	n/a	n/a
1048.91	n/a	STOP	524455	n/a	LTP084	ltpFR	11	n/a	n/a	n/a	n/a	n/a	n/a	n/a	n/a	n/a	n/a	n/a	n/a	n/a	n/a	n/a
1050.848	n/a	WORD	525424	wordpools/wasnorm_wordpool.txt	LTP084	ltpFR	11	4	1	BASKETBALL	96	n/a	0	n/a	0	0	0	1	0.412841796875	0.57763671875	upper	../fonts/zerothre.ttf
1053.856	n/a	START	526928	n/a	LTP084	ltpFR	11	n/a	n/a	n/a	n/a	n/a	n/a	n/a	n/a	n/a	n/a	n/a	n/a	n/a	n/a	n/a
1054.756	n/a	PROB	527378	n/a	LTP084	ltpFR	11	n/a	n/a	n/a	n/a	n/a	n/a	15	7	3	5	n/a	n/a	n/a	n/a	n/a
1056.14	n/a	PROB	528070	n/a	LTP084	ltpFR	11	n/a	n/a	n/a	n/a	n/a	n/a	7	5	1	1	n/a	n/a	n/a	n/a	n/a
1057.49	n/a	PROB	528745	n/a	LTP084	ltpFR	11	n/a	n/a	n/a	n/a	n/a	n/a	16	4	9	3	n/a	n/a	n/a	n/a	n/a
1058.882	n/a	PROB	529441	n/a	LTP084	ltpFR	11	n/a	n/a	n/a	n/a	n/a	n/a	21	9	4	8	n/a	n/a	n/a	n/a	n/a
1060.464	n/a	STOP	530232	n/a	LTP084	ltpFR	11	n/a	n/a	n/a	n/a	n/a	n/a	n/a	n/a	n/a	n/a	n/a	n/a	n/a	n/a	n/a
1062.864	n/a	WORD	531432	wordpools/wasnorm_wordpool.txt	LTP084	ltpFR	11	4	1	MATCH	878	n/a	0	n/a	0	0	0	1	0.412841796875	0.57763671875	upper	../fonts/zerothre.ttf
1065.872	n/a	START	532936	n/a	LTP084	ltpFR	11	n/a	n/a	n/a	n/a	n/a	n/a	n/a	n/a	n/a	n/a	n/a	n/a	n/a	n/a	n/a
1066.938	n/a	PROB	533469	n/a	LTP084	ltpFR	11	n/a	n/a	n/a	n/a	n/a	n/a	18	9	6	3	n/a	n/a	n/a	n/a	n/a
1068.79	n/a	PROB	534395	n/a	LTP084	ltpFR	11	n/a	n/a	n/a	n/a	n/a	n/a	20	9	7	4	n/a	n/a	n/a	n/a	n/a
1070.138	n/a	PROB	535069	n/a	LTP084	ltpFR	11	n/a	n/a	n/a	n/a	n/a	n/a	18	8	8	2	n/a	n/a	n/a	n/a	n/a
1071.348	n/a	PROB	535674	n/a	LTP084	ltpFR	11	n/a	n/a	n/a	n/a	n/a	n/a	13	1	6	6	n/a	n/a	n/a	n/a	n/a
1072.672	n/a	STOP	536336	n/a	LTP084	ltpFR	11	n/a	n/a	n/a	n/a	n/a	n/a	n/a	n/a	n/a	n/a	n/a	n/a	n/a	n/a	n/a
1074.938	n/a	WORD	537469	wordpools/wasnorm_wordpool.txt	LTP084	ltpFR	11	4	1	DELINQUENT	445	n/a	0	n/a	0	0	0	1	0.412841796875	0.57763671875	upper	../fonts/zerothre.ttf
1077.948	n/a	START	538974	n/a	LTP084	ltpFR	11	n/a	n/a	n/a	n/a	n/a	n/a	n/a	n/a	n/a	n/a	n/a	n/a	n/a	n/a	n/a
1078.98	n/a	PROB	539490	n/a	LTP084	ltpFR	11	n/a	n/a	n/a	n/a	n/a	n/a	13	7	1	5	n/a	n/a	n/a	n/a	n/a
1080.474	n/a	PROB	540237	n/a	LTP084	ltpFR	11	n/a	n/a	n/a	n/a	n/a	n/a	14	6	7	1	n/a	n/a	n/a	n/a	n/a
1081.664	n/a	PROB	540832	n/a	LTP084	ltpFR	11	n/a	n/a	n/a	n/a	n/a	n/a	9	6	2	1	n/a	n/a	n/a	n/a	n/a
1083.214	n/a	PROB	541607	n/a	LTP084	ltpFR	11	n/a	n/a	n/a	n/a	n/a	n/a	17	5	6	6	n/a	n/a	n/a	n/a	n/a
1084.786	n/a	STOP	542393	n/a	LTP084	ltpFR	11	n/a	n/a	n/a	n/a	n/a	n/a	n/a	n/a	n/a	n/a	n/a	n/a	n/a	n/a	n/a
1087.022	n/a	WORD	543511	wordpools/wasnorm_wordpool.txt	LTP084	ltpFR	11	4	1	ADOLESCENT	7	n/a	0	n/a	0	0	0	1	0.412841796875	0.57763671875	upper	../fonts/zerothre.ttf
1090.03	n/a	START	545015	n/a	LTP084	ltpFR	11	n/a	n/a	n/a	n/a	n/a	n/a	n/a	n/a	n/a	n/a	n/a	n/a	n/a	n/a	n/a
1091.172	n/a	PROB	545586	n/a	LTP084	ltpFR	11	n/a	n/a	n/a	n/a	n/a	n/a	7	2	3	2	n/a	n/a	n/a	n/a	n/a
1092.672	n/a	PROB	546336	n/a	LTP084	ltpFR	11	n/a	n/a	n/a	n/a	n/a	n/a	12	3	4	5	n/a	n/a	n/a	n/a	n/a
1094.08	n/a	PROB	547040	n/a	LTP084	ltpFR	11	n/a	n/a	n/a	n/a	n/a	n/a	16	6	2	8	n/a	n/a	n/a	n/a	n/a
1096.138	n/a	PROB	548069	n/a	LTP084	ltpFR	11	n/a	n/a	n/a	n/a	n/a	n/a	10	4	2	4	n/a	n/a	n/a	n/a	n/a
1097.874	n/a	STOP	548937	n/a	LTP084	ltpFR	11	n/a	n/a	n/a	n/a	n/a	n/a	n/a	n/a	n/a	n/a	n/a	n/a	n/a	n/a	n/a
1099.096	n/a	WORD	549548	wordpools/wasnorm_wordpool.txt	LTP084	ltpFR	11	4	1	SHOWER	1296	n/a	0	n/a	0	0	0	1	0.412841796875	0.57763671875	upper	../fonts/zerothre.ttf
1102.106	n/a	START	551053	n/a	LTP084	ltpFR	11	n/a	n/a	n/a	n/a	n/a	n/a	n/a	n/a	n/a	n/a	n/a	n/a	n/a	n/a	n/a
1103.23	n/a	PROB	551615	n/a	LTP084	ltpFR	11	n/a	n/a	n/a	n/a	n/a	n/a	20	9	9	2	n/a	n/a	n/a	n/a	n/a
1104.448	n/a	PROB	552224	n/a	LTP084	ltpFR	11	n/a	n/a	n/a	n/a	n/a	n/a	12	4	7	1	n/a	n/a	n/a	n/a	n/a
1105.706	n/a	PROB	552853	n/a	LTP084	ltpFR	11	n/a	n/a	n/a	n/a	n/a	n/a	12	2	8	2	n/a	n/a	n/a	n/a	n/a
1106.922	n/a	PROB	553461	n/a	LTP084	ltpFR	11	n/a	n/a	n/a	n/a	n/a	n/a	17	6	9	2	n/a	n/a	n/a	n/a	n/a
1108.606	n/a	PROB	554303	n/a	LTP084	ltpFR	11	n/a	n/a	n/a	n/a	n/a	n/a	17	7	7	3	n/a	n/a	n/a	n/a	n/a
1109.842	n/a	STOP	554921	n/a	LTP084	ltpFR	11	n/a	n/a	n/a	n/a	n/a	n/a	n/a	n/a	n/a	n/a	n/a	n/a	n/a	n/a	n/a
1111.896	n/a	REC_START	555948	n/a	LTP084	ltpFR	11	4	n/a	n/a	n/a	n/a	n/a	n/a	0	0	0	n/a	n/a	n/a	n/a	n/a
1113.772	n/a	REC_WORD	556886	wordpools/wasnorm_wordpool.txt	LTP084	ltpFR	11	4	1	BASKETBALL	96	n/a	0	n/a	0	0	0	n/a	n/a	n/a	n/a	n/a
1115.562	n/a	REC_WORD	557781	wordpools/wasnorm_wordpool.txt	LTP084	ltpFR	11	4	1	JUGGLER	763	n/a	0	n/a	0	0	0	n/a	n/a	n/a	n/a	n/a
1117.758	n/a	REC_WORD	558879	wordpools/wasnorm_wordpool.txt	LTP084	ltpFR	11	4	n/a	COP	376	n/a	n/a	n/a	0	0	0	n/a	n/a	n/a	n/a	n/a
1126.264	n/a	REC_WORD_VV	563132	wordpools/wasnorm_wordpool.txt	LTP084	ltpFR	11	4	n/a	<>	-1	n/a	n/a	n/a	0	0	0	n/a	n/a	n/a	n/a	n/a
1193.604	n/a	START	596802	n/a	LTP084	ltpFR	11	n/a	n/a	n/a	n/a	n/a	n/a	n/a	n/a	n/a	n/a	n/a	n/a	n/a	n/a	n/a
1195.11	n/a	PROB	597555	n/a	LTP084	ltpFR	11	n/a	n/a	n/a	n/a	n/a	n/a	22	7	6	9	n/a	n/a	n/a	n/a	n/a
1196.662	n/a	PROB	598331	n/a	LTP084	ltpFR	11	n/a	n/a	n/a	n/a	n/a	n/a	25	9	7	9	n/a	n/a	n/a	n/a	n/a
1198.746	n/a	PROB	599373	n/a	LTP084	ltpFR	11	n/a	n/a	n/a	n/a	n/a	n/a	10	3	1	6	n/a	n/a	n/a	n/a	n/a
1200.07	n/a	PROB	600035	n/a	LTP084	ltpFR	11	n/a	n/a	n/a	n/a	n/a	n/a	17	6	3	8	n/a	n/a	n/a	n/a	n/a
1201.762	n/a	PROB	600881	n/a	LTP084	ltpFR	11	n/a	n/a	n/a	n/a	n/a	n/a	17	8	8	1	n/a	n/a	n/a	n/a	n/a
1203.136	n/a	PROB	601568	n/a	LTP084	ltpFR	11	n/a	n/a	n/a	n/a	n/a	n/a	19	5	8	6	n/a	n/a	n/a	n/a	n/a
1204.644	n/a	PROB	602322	n/a	LTP084	ltpFR	11	n/a	n/a	n/a	n/a	n/a	n/a	13	9	1	3	n/a	n/a	n/a	n/a	n/a
1206.168	n/a	PROB	603084	n/a	LTP084	ltpFR	11	n/a	n/a	n/a	n/a	n/a	n/a	10	7	1	2	n/a	n/a	n/a	n/a	n/a
1207.502	n/a	PROB	603751	n/a	LTP084	ltpFR	11	n/a	n/a	n/a	n/a	n/a	n/a	21	6	9	6	n/a	n/a	n/a	n/a	n/a
1208.68	n/a	STOP	604340	n/a	LTP084	ltpFR	11	n/a	n/a	n/a	n/a	n/a	n/a	n/a	n/a	n/a	n/a	n/a	n/a	n/a	n/a	n/a
1210.62	n/a	WORD	605310	wordpools/wasnorm_wordpool.txt	LTP084	ltpFR	11	5	1	CLAY	320	n/a	0	n/a	0	0	0	1	0.412841796875	0.57763671875	upper	../fonts/zerothre.ttf
1213.628	n/a	START	606814	n/a	LTP084	ltpFR	11	n/a	n/a	n/a	n/a	n/a	n/a	n/a	n/a	n/a	n/a	n/a	n/a	n/a	n/a	n/a
1214.728	n/a	PROB	607364	n/a	LTP084	ltpFR	11	n/a	n/a	n/a	n/a	n/a	n/a	22	9	5	8	n/a	n/a	n/a	n/a	n/a
1216.052	n/a	PROB	608026	n/a	LTP084	ltpFR	11	n/a	n/a	n/a	n/a	n/a	n/a	15	9	5	1	n/a	n/a	n/a	n/a	n/a
1217.228	n/a	PROB	608614	n/a	LTP084	ltpFR	11	n/a	n/a	n/a	n/a	n/a	n/a	19	8	5	6	n/a	n/a	n/a	n/a	n/a
1219.044	n/a	PROB	609522	n/a	LTP084	ltpFR	11	n/a	n/a	n/a	n/a	n/a	n/a	14	1	5	8	n/a	n/a	n/a	n/a	n/a
1220.352	n/a	PROB	610176	n/a	LTP084	ltpFR	11	n/a	n/a	n/a	n/a	n/a	n/a	24	6	9	7	n/a	n/a	n/a	n/a	n/a
1222.362	n/a	PROB	611181	n/a	LTP084	ltpFR	11	n/a	n/a	n/a	n/a	n/a	n/a	17	5	8	4	n/a	n/a	n/a	n/a	n/a
1223.702	n/a	PROB	611851	n/a	LTP084	ltpFR	11	n/a	n/a	n/a	n/a	n/a	n/a	18	6	5	7	n/a	n/a	n/a	n/a	n/a
1225.244	n/a	PROB	612622	n/a	LTP084	ltpFR	11	n/a	n/a	n/a	n/a	n/a	n/a	12	9	1	2	n/a	n/a	n/a	n/a	n/a
1227.176	n/a	PROB	613588	n/a	LTP084	ltpFR	11	n/a	n/a	n/a	n/a	n/a	n/a	18	4	7	9	n/a	n/a	n/a	n/a	n/a
1229.184	n/a	STOP	614592	n/a	LTP084	ltpFR	11	n/a	n/a	n/a	n/a	n/a	n/a	n/a	n/a	n/a	n/a	n/a	n/a	n/a	n/a	n/a
1230.81	n/a	WORD	615405	wordpools/wasnorm_wordpool.txt	LTP084	ltpFR	11	5	1	GAZELLE	628	n/a	0	n/a	0	0	0	1	0.412841796875	0.57763671875	upper	../fonts/zerothre.ttf
1233.82	n/a	START	616910	n/a	LTP084	ltpFR	11	n/a	n/a	n/a	n/a	n/a	n/a	n/a	n/a	n/a	n/a	n/a	n/a	n/a	n/a	n/a
1234.818	n/a	PROB	617409	n/a	LTP084	ltpFR	11	n/a	n/a	n/a	n/a	n/a	n/a	22	9	6	7	n/a	n/a	n/a	n/a	n/a
1237.036	n/a	PROB	618518	n/a	LTP084	ltpFR	11	n/a	n/a	n/a	n/a	n/a	n/a	18	8	8	2	n/a	n/a	n/a	n/a	n/a
1238.47	n/a	PROB	619235	n/a	LTP084	ltpFR	11	n/a	n/a	n/a	n/a	n/a	n/a	11	5	3	3	n/a	n/a	n/a	n/a	n/a
1239.786	n/a	PROB	619893	n/a	LTP084	ltpFR	11	n/a	n/a	n/a	n/a	n/a	n/a	20	7	4	9	n/a	n/a	n/a	n/a	n/a
1241.51	n/a	PROB	620755	n/a	LTP084	ltpFR	11	n/a	n/a	n/a	n/a	n/a	n/a	8	6	1	1	n/a	n/a	n/a	n/a	n/a
1242.752	n/a	PROB	621376	n/a	LTP084	ltpFR	11	n/a	n/a	n/a	n/a	n/a	n/a	9	3	2	4	n/a	n/a	n/a	n/a	n/a
1244.042	n/a	PROB	622021	n/a	LTP084	ltpFR	11	n/a	n/a	n/a	n/a	n/a	n/a	18	9	3	6	n/a	n/a	n/a	n/a	n/a
1245.368	n/a	PROB	622684	n/a	LTP084	ltpFR	11	n/a	n/a	n/a	n/a	n/a	n/a	21	9	7	5	n/a	n/a	n/a	n/a	n/a
1246.686	n/a	PROB	623343	n/a	LTP084	ltpFR	11	n/a	n/a	n/a	n/a	n/a	n/a	7	2	3	1	n/a	n/a	n/a	n/a	n/a
1249.82	n/a	STOP	624910	n/a	LTP084	ltpFR	11	n/a	n/a	n/a	n/a	n/a	n/a	n/a	n/a	n/a	n/a	n/a	n/a	n/a	n/a	n/a
1251.008	n/a	WORD	625504	wordpools/wasnorm_wordpool.txt	LTP084	ltpFR	11	5	0	CENT	270	n/a	0	n/a	0	0	0	0	0.5869140625	0.422607421875	lower	../fonts/amplitud.ttf
1254.018	n/a	START	627009	n/a	LTP084	ltpFR	11	n/a	n/a	n/a	n/a	n/a	n/a	n/a	n/a	n/a	n/a	n/a	n/a	n/a	n/a	n/a
1255.058	n/a	PROB	627529	n/a	LTP084	ltpFR	11	n/a	n/a	n/a	n/a	n/a	n/a	20	5	8	7	n/a	n/a	n/a	n/a	n/a
1256.384	n/a	PROB	628192	n/a	LTP084	ltpFR	11	n/a	n/a	n/a	n/a	n/a	n/a	22	9	6	7	n/a	n/a	n/a	n/a	n/a
1257.768	n/a	PROB	628884	n/a	LTP084	ltpFR	11	n/a	n/a	n/a	n/a	n/a	n/a	13	9	2	2	n/a	n/a	n/a	n/a	n/a
1259.2	n/a	PROB	629600	n/a	LTP084	ltpFR	11	n/a	n/a	n/a	n/a	n/a	n/a	17	6	4	7	n/a	n/a	n/a	n/a	n/a
1260.586	n/a	PROB	630293	n/a	LTP084	ltpFR	11	n/a	n/a	n/a	n/a	n/a	n/a	20	8	3	9	n/a	n/a	n/a	n/a	n/a
1262.118	n/a	PROB	631059	n/a	LTP084	ltpFR	11	n/a	n/a	n/a	n/a	n/a	n/a	8	4	3	1	n/a	n/a	n/a	n/a	n/a
1263.26	n/a	PROB	631630	n/a	LTP084	ltpFR	11	n/a	n/a	n/a	n/a	n/a	n/a	12	8	1	3	n/a	n/a	n/a	n/a	n/a
1264.868	n/a	PROB	632434	n/a	LTP084	ltpFR	11	n/a	n/a	n/a	n/a	n/a	n/a	21	6	7	8	n/a	n/a	n/a	n/a	n/a
1266.226	n/a	PROB	633113	n/a	LTP084	ltpFR	11	n/a	n/a	n/a	n/a	n/a	n/a	13	4	2	7	n/a	n/a	n/a	n/a	n/a
1267.976	n/a	PROB	633988	n/a	LTP084	ltpFR	11	n/a	n/a	n/a	n/a	n/a	n/a	17	3	7	7	n/a	n/a	n/a	n/a	n/a
1269.778	n/a	STOP	634889	n/a	LTP084	ltpFR	11	n/a	n/a	n/a	n/a	n/a	n/a	n/a	n/a	n/a	n/a	n/a	n/a	n/a	n/a	n/a
1271.066	n/a	WORD	635533	wordpools/wasnorm_wordpool.txt	LTP084	ltpFR	11	5	0	CLIMBER	323	n/a	0	n/a	0	0	0	0	0.5869140625	0.422607421875	lower	../fonts/amplitud.ttf
1274.076	n/a	START	637038	n/a	LTP084	ltpFR	11	n/a	n/a	n/a	n/a	n/a	n/a	n/a	n/a	n/a	n/a	n/a	n/a	n/a	n/a	n/a
1274.892	n/a	PROB	637446	n/a	LTP084	ltpFR	11	n/a	n/a	n/a	n/a	n/a	n/a	15	5	4	6	n/a	n/a	n/a	n/a	n/a
1276.392	n/a	PROB	638196	n/a	LTP084	ltpFR	11	n/a	n/a	n/a	n/a	n/a	n/a	8	1	2	5	n/a	n/a	n/a	n/a	n/a
1277.584	n/a	PROB	638792	n/a	LTP084	ltpFR	11	n/a	n/a	n/a	n/a	n/a	n/a	11	3	3	5	n/a	n/a	n/a	n/a	n/a
1279.26	n/a	PROB	639630	n/a	LTP084	ltpFR	11	n/a	n/a	n/a	n/a	n/a	n/a	17	7	8	2	n/a	n/a	n/a	n/a	n/a
1280.634	n/a	PROB	640317	n/a	LTP084	ltpFR	11	n/a	n/a	n/a	n/a	n/a	n/a	15	7	4	4	n/a	n/a	n/a	n/a	n/a
1282.084	n/a	PROB	641042	n/a	LTP084	ltpFR	11	n/a	n/a	n/a	n/a	n/a	n/a	11	3	1	7	n/a	n/a	n/a	n/a	n/a
1284.46	n/a	PROB	642230	n/a	LTP084	ltpFR	11	n/a	n/a	n/a	n/a	n/a	n/a	18	4	7	7	n/a	n/a	n/a	n/a	n/a
1285.9	n/a	PROB	642950	n/a	LTP084	ltpFR	11	n/a	n/a	n/a	n/a	n/a	n/a	19	6	5	8	n/a	n/a	n/a	n/a	n/a
1287.392	n/a	PROB	643696	n/a	LTP084	ltpFR	11	n/a	n/a	n/a	n/a	n/a	n/a	18	7	2	9	n/a	n/a	n/a	n/a	n/a
1289.098	n/a	STOP	644549	n/a	LTP084	ltpFR	11	n/a	n/a	n/a	n/a	n/a	n/a	n/a	n/a	n/a	n/a	n/a	n/a	n/a	n/a	n/a
1291.15	n/a	WORD	645575	wordpools/wasnorm_wordpool.txt	LTP084	ltpFR	11	5	0	LIME	823	n/a	0	n/a	0	0	0	0	0.5869140625	0.422607421875	lower	../fonts/amplitud.ttf
1294.158	n/a	START	647079	n/a	LTP084	ltpFR	11	n/a	n/a	n/a	n/a	n/a	n/a	n/a	n/a	n/a	n/a	n/a	n/a	n/a	n/a	n/a
1295.182	n/a	PROB	647591	n/a	LTP084	ltpFR	11	n/a	n/a	n/a	n/a	n/a	n/a	12	5	3	4	n/a	n/a	n/a	n/a	n/a
1296.85	n/a	PROB	648425	n/a	LTP084	ltpFR	11	n/a	n/a	n/a	n/a	n/a	n/a	16	7	5	4	n/a	n/a	n/a	n/a	n/a
1298.502	n/a	PROB	649251	n/a	LTP084	ltpFR	11	n/a	n/a	n/a	n/a	n/a	n/a	13	2	6	5	n/a	n/a	n/a	n/a	n/a
1300.692	n/a	PROB	650346	n/a	LTP084	ltpFR	11	n/a	n/a	n/a	n/a	n/a	n/a	24	9	9	6	n/a	n/a	n/a	n/a	n/a
1303.326	n/a	PROB	651663	n/a	LTP084	ltpFR	11	n/a	n/a	n/a	n/a	n/a	n/a	19	6	5	8	n/a	n/a	n/a	n/a	n/a
1304.734	n/a	PROB	652367	n/a	LTP084	ltpFR	11	n/a	n/a	n/a	n/a	n/a	n/a	15	6	5	4	n/a	n/a	n/a	n/a	n/a
1305.924	n/a	PROB	652962	n/a	LTP084	ltpFR	11	n/a	n/a	n/a	n/a	n/a	n/a	17	7	3	7	n/a	n/a	n/a	n/a	n/a
1307.234	n/a	PROB	653617	n/a	LTP084	ltpFR	11	n/a	n/a	n/a	n/a	n/a	n/a	12	4	1	7	n/a	n/a	n/a	n/a	n/a
1308.408	n/a	PROB	654204	n/a	LTP084	ltpFR	11	n/a	n/a	n/a	n/a	n/a	n/a	14	7	1	6	n/a	n/a	n/a	n/a	n/a
1309.548	n/a	STOP	654774	n/a	LTP084	ltpFR	11	n/a	n/a	n/a	n/a	n/a	n/a	n/a	n/a	n/a	n/a	n/a	n/a	n/a	n/a	n/a
1311.258	n/a	WORD	655629	wordpools/wasnorm_wordpool.txt	LTP084	ltpFR	11	5	1	KIWI	781	n/a	0	n/a	0	0	0	1	0.412841796875	0.57763671875	upper	../fonts/zerothre.ttf
1314.266	n/a	START	657133	n/a	LTP084	ltpFR	11	n/a	n/a	n/a	n/a	n/a	n/a	n/a	n/a	n/a	n/a	n/a	n/a	n/a	n/a	n/a
1315.132	n/a	PROB	657566	n/a	LTP084	ltpFR	11	n/a	n/a	n/a	n/a	n/a	n/a	22	6	8	8	n/a	n/a	n/a	n/a	n/a
1316.792	n/a	PROB	658396	n/a	LTP084	ltpFR	11	n/a	n/a	n/a	n/a	n/a	n/a	20	6	9	5	n/a	n/a	n/a	n/a	n/a
1318.2	n/a	PROB	659100	n/a	LTP084	ltpFR	11	n/a	n/a	n/a	n/a	n/a	n/a	15	6	1	8	n/a	n/a	n/a	n/a	n/a
1319.526	n/a	PROB	659763	n/a	LTP084	ltpFR	11	n/a	n/a	n/a	n/a	n/a	n/a	16	6	6	4	n/a	n/a	n/a	n/a	n/a
1321.226	n/a	PROB	660613	n/a	LTP084	ltpFR	11	n/a	n/a	n/a	n/a	n/a	n/a	16	5	2	9	n/a	n/a	n/a	n/a	n/a
1322.558	n/a	PROB	661279	n/a	LTP084	ltpFR	11	n/a	n/a	n/a	n/a	n/a	n/a	8	4	3	1	n/a	n/a	n/a	n/a	n/a
1323.726	n/a	PROB	661863	n/a	LTP084	ltpFR	11	n/a	n/a	n/a	n/a	n/a	n/a	12	1	9	2	n/a	n/a	n/a	n/a	n/a
1324.858	n/a	PROB	662429	n/a	LTP084	ltpFR	11	n/a	n/a	n/a	n/a	n/a	n/a	16	8	6	2	n/a	n/a	n/a	n/a	n/a
1326.584	n/a	PROB	663292	n/a	LTP084	ltpFR	11	n/a	n/a	n/a	n/a	n/a	n/a	21	7	8	6	n/a	n/a	n/a	n/a	n/a
1327.974	n/a	PROB	663987	n/a	LTP084	ltpFR	11	n/a	n/a	n/a	n/a	n/a	n/a	18	2	9	7	n/a	n/a	n/a	n/a	n/a
1329.622	n/a	STOP	664811	n/a	LTP084	ltpFR	11	n/a	n/a	n/a	n/a	n/a	n/a	n/a	n/a	n/a	n/a	n/a	n/a	n/a	n/a	n/a
1331.292	n/a	WORD	665646	wordpools/wasnorm_wordpool.txt	LTP084	ltpFR	11	5	1	CHILD	299	n/a	0	n/a	0	0	0	1	0.412841796875	0.57763671875	upper	../fonts/zerothre.ttf
1334.3	n/a	START	667150	n/a	LTP084	ltpFR	11	n/a	n/a	n/a	n/a	n/a	n/a	n/a	n/a	n/a	n/a	n/a	n/a	n/a	n/a	n/a
1335.424	n/a	PROB	667712	n/a	LTP084	ltpFR	11	n/a	n/a	n/a	n/a	n/a	n/a	20	3	8	9	n/a	n/a	n/a	n/a	n/a
1336.79	n/a	PROB	668395	n/a	LTP084	ltpFR	11	n/a	n/a	n/a	n/a	n/a	n/a	17	2	7	8	n/a	n/a	n/a	n/a	n/a
1338.19	n/a	PROB	669095	n/a	LTP084	ltpFR	11	n/a	n/a	n/a	n/a	n/a	n/a	19	8	6	5	n/a	n/a	n/a	n/a	n/a
1339.674	n/a	PROB	669837	n/a	LTP084	ltpFR	11	n/a	n/a	n/a	n/a	n/a	n/a	16	7	1	8	n/a	n/a	n/a	n/a	n/a
1341.14	n/a	PROB	670570	n/a	LTP084	ltpFR	11	n/a	n/a	n/a	n/a	n/a	n/a	22	9	6	7	n/a	n/a	n/a	n/a	n/a
1343.608	n/a	PROB	671804	n/a	LTP084	ltpFR	11	n/a	n/a	n/a	n/a	n/a	n/a	14	9	1	4	n/a	n/a	n/a	n/a	n/a
1345.048	n/a	PROB	672524	n/a	LTP084	ltpFR	11	n/a	n/a	n/a	n/a	n/a	n/a	14	5	8	1	n/a	n/a	n/a	n/a	n/a
1346.582	n/a	PROB	673291	n/a	LTP084	ltpFR	11	n/a	n/a	n/a	n/a	n/a	n/a	18	7	2	9	n/a	n/a	n/a	n/a	n/a
1348.216	n/a	PROB	674108	n/a	LTP084	ltpFR	11	n/a	n/a	n/a	n/a	n/a	n/a	16	7	8	1	n/a	n/a	n/a	n/a	n/a
1349.87	n/a	STOP	674935	n/a	LTP084	ltpFR	11	n/a	n/a	n/a	n/a	n/a	n/a	n/a	n/a	n/a	n/a	n/a	n/a	n/a	n/a	n/a
1351.424	n/a	WORD	675712	wordpools/wasnorm_wordpool.txt	LTP084	ltpFR	11	5	1	HIKER	708	n/a	0	n/a	0	0	0	1	0.412841796875	0.57763671875	upper	../fonts/zerothre.ttf
1354.432	n/a	START	677216	n/a	LTP084	ltpFR	11	n/a	n/a	n/a	n/a	n/a	n/a	n/a	n/a	n/a	n/a	n/a	n/a	n/a	n/a	n/a
1355.64	n/a	PROB	677820	n/a	LTP084	ltpFR	11	n/a	n/a	n/a	n/a	n/a	n/a	15	5	7	3	n/a	n/a	n/a	n/a	n/a
1357.156	n/a	PROB	678578	n/a	LTP084	ltpFR	11	n/a	n/a	n/a	n/a	n/a	n/a	11	1	6	4	n/a	n/a	n/a	n/a	n/a
1358.416	n/a	PROB	679208	n/a	LTP084	ltpFR	11	n/a	n/a	n/a	n/a	n/a	n/a	8	2	2	4	n/a	n/a	n/a	n/a	n/a
1360.016	n/a	PROB	680008	n/a	LTP084	ltpFR	11	n/a	n/a	n/a	n/a	n/a	n/a	21	9	6	6	n/a	n/a	n/a	n/a	n/a
1364.54	n/a	PROB	682270	n/a	LTP084	ltpFR	11	n/a	n/a	n/a	n/a	n/a	n/a	5	1	2	2	n/a	n/a	n/a	n/a	n/a
1365.616	n/a	PROB	682808	n/a	LTP084	ltpFR	11	n/a	n/a	n/a	n/a	n/a	n/a	4	1	1	2	n/a	n/a	n/a	n/a	n/a
1366.648	n/a	PROB	683324	n/a	LTP084	ltpFR	11	n/a	n/a	n/a	n/a	n/a	n/a	6	4	1	1	n/a	n/a	n/a	n/a	n/a
1367.716	n/a	PROB	683858	n/a	LTP084	ltpFR	11	n/a	n/a	n/a	n/a	n/a	n/a	13	6	4	3	n/a	n/a	n/a	n/a	n/a
1368.99	n/a	STOP	684495	n/a	LTP084	ltpFR	11	n/a	n/a	n/a	n/a	n/a	n/a	n/a	n/a	n/a	n/a	n/a	n/a	n/a	n/a	n/a
1371.606	n/a	WORD	685803	wordpools/wasnorm_wordpool.txt	LTP084	ltpFR	11	5	1	ALLIGATOR	16	n/a	0	n/a	0	0	0	1	0.412841796875	0.57763671875	upper	../fonts/zerothre.ttf
1374.608	n/a	START	687304	n/a	LTP084	ltpFR	11	n/a	n/a	n/a	n/a	n/a	n/a	n/a	n/a	n/a	n/a	n/a	n/a	n/a	n/a	n/a
1375.806	n/a	PROB	687903	n/a	LTP084	ltpFR	11	n/a	n/a	n/a	n/a	n/a	n/a	10	3	1	6	n/a	n/a	n/a	n/a	n/a
1377.59	n/a	PROB	688795	n/a	LTP084	ltpFR	11	n/a	n/a	n/a	n/a	n/a	n/a	10	2	4	4	n/a	n/a	n/a	n/a	n/a
1379.106	n/a	PROB	689553	n/a	LTP084	ltpFR	11	n/a	n/a	n/a	n/a	n/a	n/a	16	5	5	6	n/a	n/a	n/a	n/a	n/a
1380.906	n/a	PROB	690453	n/a	LTP084	ltpFR	11	n/a	n/a	n/a	n/a	n/a	n/a	17	1	8	8	n/a	n/a	n/a	n/a	n/a
1382.432	n/a	PROB	691216	n/a	LTP084	ltpFR	11	n/a	n/a	n/a	n/a	n/a	n/a	11	2	4	5	n/a	n/a	n/a	n/a	n/a
1383.724	n/a	PROB	691862	n/a	LTP084	ltpFR	11	n/a	n/a	n/a	n/a	n/a	n/a	6	1	1	5	n/a	n/a	n/a	n/a	n/a
1384.998	n/a	PROB	692499	n/a	LTP084	ltpFR	11	n/a	n/a	n/a	n/a	n/a	n/a	14	5	6	3	n/a	n/a	n/a	n/a	n/a
1387.232	n/a	PROB	693616	n/a	LTP084	ltpFR	11	n/a	n/a	n/a	n/a	n/a	n/a	8	3	1	4	n/a	n/a	n/a	n/a	n/a
1388.532	n/a	PROB	694266	n/a	LTP084	ltpFR	11	n/a	n/a	n/a	n/a	n/a	n/a	7	3	3	1	n/a	n/a	n/a	n/a	n/a
1389.624	n/a	STOP	694812	n/a	LTP084	ltpFR	11	n/a	n/a	n/a	n/a	n/a	n/a	n/a	n/a	n/a	n/a	n/a	n/a	n/a	n/a	n/a
1391.464	n/a	WORD	695732	wordpools/wasnorm_wordpool.txt	LTP084	ltpFR	11	5	1	SHIRT	1287	n/a	0	n/a	0	0	0	1	0.412841796875	0.57763671875	upper	../fonts/zerothre.ttf
1394.474	n/a	START	697237	n/a	LTP084	ltpFR	11	n/a	n/a	n/a	n/a	n/a	n/a	n/a	n/a	n/a	n/a	n/a	n/a	n/a	n/a	n/a
1395.606	n/a	PROB	697803	n/a	LTP084	ltpFR	11	n/a	n/a	n/a	n/a	n/a	n/a	11	9	1	1	n/a	n/a	n/a	n/a	n/a
1397.03	n/a	PROB	698515	n/a	LTP084	ltpFR	11	n/a	n/a	n/a	n/a	n/a	n/a	23	8	6	9	n/a	n/a	n/a	n/a	n/a
1399.24	n/a	PROB	699620	n/a	LTP084	ltpFR	11	n/a	n/a	n/a	n/a	n/a	n/a	17	3	7	7	n/a	n/a	n/a	n/a	n/a
1400.614	n/a	PROB	700307	n/a	LTP084	ltpFR	11	n/a	n/a	n/a	n/a	n/a	n/a	12	6	1	5	n/a	n/a	n/a	n/a	n/a
1401.956	n/a	PROB	700978	n/a	LTP084	ltpFR	11	n/a	n/a	n/a	n/a	n/a	n/a	16	5	3	8	n/a	n/a	n/a	n/a	n/a
1403.448	n/a	PROB	701724	n/a	LTP084	ltpFR	11	n/a	n/a	n/a	n/a	n/a	n/a	16	8	1	7	n/a	n/a	n/a	n/a	n/a
1405.34	n/a	PROB	702670	n/a	LTP084	ltpFR	11	n/a	n/a	n/a	n/a	n/a	n/a	9	2	6	1	n/a	n/a	n/a	n/a	n/a
1406.996	n/a	PROB	703498	n/a	LTP084	ltpFR	11	n/a	n/a	n/a	n/a	n/a	n/a	14	6	6	2	n/a	n/a	n/a	n/a	n/a
1408.498	n/a	PROB	704249	n/a	LTP084	ltpFR	11	n/a	n/a	n/a	n/a	n/a	n/a	11	1	2	8	n/a	n/a	n/a	n/a	n/a
1409.73	n/a	STOP	704865	n/a	LTP084	ltpFR	11	n/a	n/a	n/a	n/a	n/a	n/a	n/a	n/a	n/a	n/a	n/a	n/a	n/a	n/a	n/a
1411.656	n/a	WORD	705828	wordpools/wasnorm_wordpool.txt	LTP084	ltpFR	11	5	1	COLLAR	345	n/a	0	n/a	0	0	0	1	0.412841796875	0.57763671875	upper	../fonts/zerothre.ttf
1414.656	n/a	START	707328	n/a	LTP084	ltpFR	11	n/a	n/a	n/a	n/a	n/a	n/a	n/a	n/a	n/a	n/a	n/a	n/a	n/a	n/a	n/a
1415.488	n/a	PROB	707744	n/a	LTP084	ltpFR	11	n/a	n/a	n/a	n/a	n/a	n/a	17	6	5	6	n/a	n/a	n/a	n/a	n/a
1417.364	n/a	PROB	708682	n/a	LTP084	ltpFR	11	n/a	n/a	n/a	n/a	n/a	n/a	11	7	2	2	n/a	n/a	n/a	n/a	n/a
1418.906	n/a	PROB	709453	n/a	LTP084	ltpFR	11	n/a	n/a	n/a	n/a	n/a	n/a	9	3	3	3	n/a	n/a	n/a	n/a	n/a
1419.938	n/a	PROB	709969	n/a	LTP084	ltpFR	11	n/a	n/a	n/a	n/a	n/a	n/a	18	8	6	4	n/a	n/a	n/a	n/a	n/a
1421.348	n/a	PROB	710674	n/a	LTP084	ltpFR	11	n/a	n/a	n/a	n/a	n/a	n/a	14	6	2	6	n/a	n/a	n/a	n/a	n/a
1423.096	n/a	PROB	711548	n/a	LTP084	ltpFR	11	n/a	n/a	n/a	n/a	n/a	n/a	8	4	3	1	n/a	n/a	n/a	n/a	n/a
1424.256	n/a	PROB	712128	n/a	LTP084	ltpFR	11	n/a	n/a	n/a	n/a	n/a	n/a	11	3	3	5	n/a	n/a	n/a	n/a	n/a
1426.196	n/a	PROB	713098	n/a	LTP084	ltpFR	11	n/a	n/a	n/a	n/a	n/a	n/a	9	5	3	1	n/a	n/a	n/a	n/a	n/a
1427.498	n/a	PROB	713749	n/a	LTP084	ltpFR	11	n/a	n/a	n/a	n/a	n/a	n/a	19	9	3	7	n/a	n/a	n/a	n/a	n/a
1429.202	n/a	STOP	714601	n/a	LTP084	ltpFR	11	n/a	n/a	n/a	n/a	n/a	n/a	n/a	n/a	n/a	n/a	n/a	n/a	n/a	n/a	n/a
1431.78	n/a	WORD	715890	wordpools/wasnorm_wordpool.txt	LTP084	ltpFR	11	5	0	FOSSIL	596	n/a	2	n/a	0	0	0	0	0.5869140625	0.422607421875	lower	../fonts/amplitud.ttf
1432.446	n/a	KEY_MSG	716223	n/a	LTP084	ltpFR	11	5	n/a	n/a	n/a	n/a	n/a	n/a	0	0	0	n/a	n/a	n/a	n/a	n/a
1434.788	n/a	START	717394	n/a	LTP084	ltpFR	11	n/a	n/a	n/a	n/a	n/a	n/a	n/a	n/a	n/a	n/a	n/a	n/a	n/a	n/a	n/a
1435.704	n/a	PROB	717852	n/a	LTP084	ltpFR	11	n/a	n/a	n/a	n/a	n/a	n/a	21	6	6	9	n/a	n/a	n/a	n/a	n/a
1437.354	n/a	PROB	718677	n/a	LTP084	ltpFR	11	n/a	n/a	n/a	n/a	n/a	n/a	7	2	1	4	n/a	n/a	n/a	n/a	n/a
1439.064	n/a	PROB	719532	n/a	LTP084	ltpFR	11	n/a	n/a	n/a	n/a	n/a	n/a	22	7	9	6	n/a	n/a	n/a	n/a	n/a
1440.588	n/a	PROB	720294	n/a	LTP084	ltpFR	11	n/a	n/a	n/a	n/a	n/a	n/a	13	1	8	4	n/a	n/a	n/a	n/a	n/a
1441.954	n/a	PROB	720977	n/a	LTP084	ltpFR	11	n/a	n/a	n/a	n/a	n/a	n/a	20	4	8	8	n/a	n/a	n/a	n/a	n/a
1443.456	n/a	PROB	721728	n/a	LTP084	ltpFR	11	n/a	n/a	n/a	n/a	n/a	n/a	18	7	9	2	n/a	n/a	n/a	n/a	n/a
1444.83	n/a	PROB	722415	n/a	LTP084	ltpFR	11	n/a	n/a	n/a	n/a	n/a	n/a	16	3	5	8	n/a	n/a	n/a	n/a	n/a
1446.912	n/a	PROB	723456	n/a	LTP084	ltpFR	11	n/a	n/a	n/a	n/a	n/a	n/a	19	9	4	6	n/a	n/a	n/a	n/a	n/a
1448.238	n/a	PROB	724119	n/a	LTP084	ltpFR	11	n/a	n/a	n/a	n/a	n/a	n/a	20	9	3	8	n/a	n/a	n/a	n/a	n/a
1449.692	n/a	STOP	724846	n/a	LTP084	ltpFR	11	n/a	n/a	n/a	n/a	n/a	n/a	n/a	n/a	n/a	n/a	n/a	n/a	n/a	n/a	n/a
1451.962	n/a	WORD	725981	wordpools/wasnorm_wordpool.txt	LTP084	ltpFR	11	5	0	MARROW	872	n/a	2	n/a	0	0	0	0	0.5869140625	0.422607421875	lower	../fonts/amplitud.ttf
1453.12	n/a	KEY_MSG	726560	n/a	LTP084	ltpFR	11	5	n/a	n/a	n/a	n/a	n/a	n/a	0	0	0	n/a	n/a	n/a	n/a	n/a
1454.97	n/a	START	727485	n/a	LTP084	ltpFR	11	n/a	n/a	n/a	n/a	n/a	n/a	n/a	n/a	n/a	n/a	n/a	n/a	n/a	n/a	n/a
1455.954	n/a	PROB	727977	n/a	LTP084	ltpFR	11	n/a	n/a	n/a	n/a	n/a	n/a	11	9	1	1	n/a	n/a	n/a	n/a	n/a
1457.272	n/a	PROB	728636	n/a	LTP084	ltpFR	11	n/a	n/a	n/a	n/a	n/a	n/a	24	9	8	7	n/a	n/a	n/a	n/a	n/a
1458.87	n/a	PROB	729435	n/a	LTP084	ltpFR	11	n/a	n/a	n/a	n/a	n/a	n/a	17	6	5	5	n/a	n/a	n/a	n/a	n/a
1460.372	n/a	PROB	730186	n/a	LTP084	ltpFR	11	n/a	n/a	n/a	n/a	n/a	n/a	9	4	2	3	n/a	n/a	n/a	n/a	n/a
1462.272	n/a	PROB	731136	n/a	LTP084	ltpFR	11	n/a	n/a	n/a	n/a	n/a	n/a	5	1	1	3	n/a	n/a	n/a	n/a	n/a
1463.588	n/a	PROB	731794	n/a	LTP084	ltpFR	11	n/a	n/a	n/a	n/a	n/a	n/a	14	7	4	3	n/a	n/a	n/a	n/a	n/a
1464.878	n/a	PROB	732439	n/a	LTP084	ltpFR	11	n/a	n/a	n/a	n/a	n/a	n/a	11	1	4	6	n/a	n/a	n/a	n/a	n/a
1465.954	n/a	PROB	732977	n/a	LTP084	ltpFR	11	n/a	n/a	n/a	n/a	n/a	n/a	16	5	9	2	n/a	n/a	n/a	n/a	n/a
1467.254	n/a	PROB	733627	n/a	LTP084	ltpFR	11	n/a	n/a	n/a	n/a	n/a	n/a	19	7	6	6	n/a	n/a	n/a	n/a	n/a
1468.612	n/a	PROB	734306	n/a	LTP084	ltpFR	11	n/a	n/a	n/a	n/a	n/a	n/a	14	5	5	4	n/a	n/a	n/a	n/a	n/a
1469.7	n/a	STOP	734850	n/a	LTP084	ltpFR	11	n/a	n/a	n/a	n/a	n/a	n/a	n/a	n/a	n/a	n/a	n/a	n/a	n/a	n/a	n/a
1472.036	n/a	WORD	736018	wordpools/wasnorm_wordpool.txt	LTP084	ltpFR	11	5	0	CORPORATION	382	n/a	0	n/a	0	0	0	0	0.5869140625	0.422607421875	lower	../fonts/amplitud.ttf
1475.046	n/a	START	737523	n/a	LTP084	ltpFR	11	n/a	n/a	n/a	n/a	n/a	n/a	n/a	n/a	n/a	n/a	n/a	n/a	n/a	n/a	n/a
1475.952	n/a	PROB	737976	n/a	LTP084	ltpFR	11	n/a	n/a	n/a	n/a	n/a	n/a	14	4	5	5	n/a	n/a	n/a	n/a	n/a
1477.446	n/a	PROB	738723	n/a	LTP084	ltpFR	11	n/a	n/a	n/a	n/a	n/a	n/a	20	5	7	8	n/a	n/a	n/a	n/a	n/a
1479.038	n/a	PROB	739519	n/a	LTP084	ltpFR	11	n/a	n/a	n/a	n/a	n/a	n/a	15	5	8	2	n/a	n/a	n/a	n/a	n/a
1480.254	n/a	PROB	740127	n/a	LTP084	ltpFR	11	n/a	n/a	n/a	n/a	n/a	n/a	7	2	1	4	n/a	n/a	n/a	n/a	n/a
1481.712	n/a	PROB	740856	n/a	LTP084	ltpFR	11	n/a	n/a	n/a	n/a	n/a	n/a	11	1	9	1	n/a	n/a	n/a	n/a	n/a
1482.896	n/a	PROB	741448	n/a	LTP084	ltpFR	11	n/a	n/a	n/a	n/a	n/a	n/a	12	3	7	2	n/a	n/a	n/a	n/a	n/a
1484.128	n/a	PROB	742064	n/a	LTP084	ltpFR	11	n/a	n/a	n/a	n/a	n/a	n/a	8	2	2	4	n/a	n/a	n/a	n/a	n/a
1485.496	n/a	PROB	742748	n/a	LTP084	ltpFR	11	n/a	n/a	n/a	n/a	n/a	n/a	17	5	6	6	n/a	n/a	n/a	n/a	n/a
1487.144	n/a	PROB	743572	n/a	LTP084	ltpFR	11	n/a	n/a	n/a	n/a	n/a	n/a	10	2	2	6	n/a	n/a	n/a	n/a	n/a
1489.98	n/a	STOP	744990	n/a	LTP084	ltpFR	11	n/a	n/a	n/a	n/a	n/a	n/a	n/a	n/a	n/a	n/a	n/a	n/a	n/a	n/a	n/a
1491.952	n/a	WORD	745976	wordpools/wasnorm_wordpool.txt	LTP084	ltpFR	11	5	0	RULER	1216	n/a	2	n/a	0	0	0	0	0.5869140625	0.422607421875	lower	../fonts/amplitud.ttf
1492.504	n/a	KEY_MSG	746252	n/a	LTP084	ltpFR	11	5	n/a	n/a	n/a	n/a	n/a	n/a	0	0	0	n/a	n/a	n/a	n/a	n/a
1494.952	n/a	START	747476	n/a	LTP084	ltpFR	11	n/a	n/a	n/a	n/a	n/a	n/a	n/a	n/a	n/a	n/a	n/a	n/a	n/a	n/a	n/a
1495.878	n/a	PROB	747939	n/a	LTP084	ltpFR	11	n/a	n/a	n/a	n/a	n/a	n/a	19	2	8	9	n/a	n/a	n/a	n/a	n/a
1497.546	n/a	PROB	748773	n/a	LTP084	ltpFR	11	n/a	n/a	n/a	n/a	n/a	n/a	15	3	6	6	n/a	n/a	n/a	n/a	n/a
1499.77	n/a	PROB	749885	n/a	LTP084	ltpFR	11	n/a	n/a	n/a	n/a	n/a	n/a	10	1	6	3	n/a	n/a	n/a	n/a	n/a
1501.044	n/a	PROB	750522	n/a	LTP084	ltpFR	11	n/a	n/a	n/a	n/a	n/a	n/a	15	3	9	3	n/a	n/a	n/a	n/a	n/a
1502.304	n/a	PROB	751152	n/a	LTP084	ltpFR	11	n/a	n/a	n/a	n/a	n/a	n/a	8	6	1	1	n/a	n/a	n/a	n/a	n/a
1503.596	n/a	PROB	751798	n/a	LTP084	ltpFR	11	n/a	n/a	n/a	n/a	n/a	n/a	24	9	8	7	n/a	n/a	n/a	n/a	n/a
1505.238	n/a	PROB	752619	n/a	LTP084	ltpFR	11	n/a	n/a	n/a	n/a	n/a	n/a	16	6	6	4	n/a	n/a	n/a	n/a	n/a
1507.052	n/a	PROB	753526	n/a	LTP084	ltpFR	11	n/a	n/a	n/a	n/a	n/a	n/a	16	7	1	8	n/a	n/a	n/a	n/a	n/a
1508.42	n/a	PROB	754210	n/a	LTP084	ltpFR	11	n/a	n/a	n/a	n/a	n/a	n/a	14	4	9	1	n/a	n/a	n/a	n/a	n/a
1509.646	n/a	STOP	754823	n/a	LTP084	ltpFR	11	n/a	n/a	n/a	n/a	n/a	n/a	n/a	n/a	n/a	n/a	n/a	n/a	n/a	n/a	n/a
1511.894	n/a	WORD	755947	wordpools/wasnorm_wordpool.txt	LTP084	ltpFR	11	5	0	MOVIE	927	n/a	0	n/a	0	0	0	0	0.5869140625	0.422607421875	lower	../fonts/amplitud.ttf
1514.894	n/a	START	757447	n/a	LTP084	ltpFR	11	n/a	n/a	n/a	n/a	n/a	n/a	n/a	n/a	n/a	n/a	n/a	n/a	n/a	n/a	n/a
1515.918	n/a	PROB	757959	n/a	LTP084	ltpFR	11	n/a	n/a	n/a	n/a	n/a	n/a	21	9	3	9	n/a	n/a	n/a	n/a	n/a
1517.636	n/a	PROB	758818	n/a	LTP084	ltpFR	11	n/a	n/a	n/a	n/a	n/a	n/a	12	7	1	4	n/a	n/a	n/a	n/a	n/a
1518.962	n/a	PROB	759481	n/a	LTP084	ltpFR	11	n/a	n/a	n/a	n/a	n/a	n/a	18	8	6	4	n/a	n/a	n/a	n/a	n/a
1520.336	n/a	PROB	760168	n/a	LTP084	ltpFR	11	n/a	n/a	n/a	n/a	n/a	n/a	10	3	1	6	n/a	n/a	n/a	n/a	n/a
1521.62	n/a	PROB	760810	n/a	LTP084	ltpFR	11	n/a	n/a	n/a	n/a	n/a	n/a	21	6	6	9	n/a	n/a	n/a	n/a	n/a
1523.144	n/a	PROB	761572	n/a	LTP084	ltpFR	11	n/a	n/a	n/a	n/a	n/a	n/a	21	8	5	8	n/a	n/a	n/a	n/a	n/a
1524.596	n/a	PROB	762298	n/a	LTP084	ltpFR	11	n/a	n/a	n/a	n/a	n/a	n/a	18	6	3	9	n/a	n/a	n/a	n/a	n/a
1526.454	n/a	PROB	763227	n/a	LTP084	ltpFR	11	n/a	n/a	n/a	n/a	n/a	n/a	25	7	9	9	n/a	n/a	n/a	n/a	n/a
1528.486	n/a	PROB	764243	n/a	LTP084	ltpFR	11	n/a	n/a	n/a	n/a	n/a	n/a	16	7	7	2	n/a	n/a	n/a	n/a	n/a
1529.83	n/a	STOP	764915	n/a	LTP084	ltpFR	11	n/a	n/a	n/a	n/a	n/a	n/a	n/a	n/a	n/a	n/a	n/a	n/a	n/a	n/a	n/a
1532.67	n/a	REC_START	766335	n/a	LTP084	ltpFR	11	5	n/a	n/a	n/a	n/a	n/a	n/a	0	0	0	n/a	n/a	n/a	n/a	n/a
1533.832	n/a	REC_WORD	766916	wordpools/wasnorm_wordpool.txt	LTP084	ltpFR	11	5	1	SHIRT	1287	n/a	0	n/a	0	0	0	n/a	n/a	n/a	n/a	n/a
1535.204	n/a	REC_WORD	767602	wordpools/wasnorm_wordpool.txt	LTP084	ltpFR	11	5	1	COLLAR	345	n/a	0	n/a	0	0	0	n/a	n/a	n/a	n/a	n/a
1536.904	n/a	REC_WORD	768452	wordpools/wasnorm_wordpool.txt	LTP084	ltpFR	11	5	0	MOVIE	927	n/a	0	n/a	0	0	0	n/a	n/a	n/a	n/a	n/a
1538.636	n/a	REC_WORD	769318	wordpools/wasnorm_wordpool.txt	LTP084	ltpFR	11	5	0	MARROW	872	n/a	2	n/a	0	0	0	n/a	n/a	n/a	n/a	n/a
1540.508	n/a	REC_WORD	770254	wordpools/wasnorm_wordpool.txt	LTP084	ltpFR	11	5	n/a	BOY	161	n/a	n/a	n/a	0	0	0	n/a	n/a	n/a	n/a	n/a
1611.368	n/a	WORD	805684	wordpools/wasnorm_wordpool.txt	LTP084	ltpFR	11	6	0	PRAIRIE	1118	n/a	0	n/a	0	0	0	0	0.5869140625	0.422607421875	lower	../fonts/amplitud.ttf
1615.182	n/a	WORD	807591	wordpools/wasnorm_wordpool.txt	LTP084	ltpFR	11	6	0	SKATE	1313	n/a	0	n/a	0	0	0	0	0.5869140625	0.422607421875	lower	../fonts/amplitud.ttf
1619.092	n/a	WORD	809546	wordpools/wasnorm_wordpool.txt	LTP084	ltpFR	11	6	0	CHAMBER	277	n/a	0	n/a	0	0	0	0	0.5869140625	0.422607421875	lower	../fonts/amplitud.ttf
1623.058	n/a	WORD	811529	wordpools/wasnorm_wordpool.txt	LTP084	ltpFR	11	6	0	ORCHESTRA	981	n/a	0	n/a	0	0	0	0	0.5869140625	0.422607421875	lower	../fonts/amplitud.ttf
1626.958	n/a	WORD	813479	wordpools/wasnorm_wordpool.txt	LTP084	ltpFR	11	6	1	MOSQUITO	917	n/a	0	n/a	0	0	0	1	0.412841796875	0.57763671875	upper	../fonts/zerothre.ttf
1630.808	n/a	WORD	815404	wordpools/wasnorm_wordpool.txt	LTP084	ltpFR	11	6	1	CRICKET	408	n/a	0	n/a	0	0	0	1	0.412841796875	0.57763671875	upper	../fonts/zerothre.ttf
1634.734	n/a	WORD	817367	wordpools/wasnorm_wordpool.txt	LTP084	ltpFR	11	6	1	ISLAND	745	n/a	0	n/a	0	0	0	1	0.412841796875	0.57763671875	upper	../fonts/zerothre.ttf
1638.826	n/a	WORD	819413	wordpools/wasnorm_wordpool.txt	LTP084	ltpFR	11	6	1	STREAM	1392	n/a	0	n/a	0	0	0	1	0.412841796875	0.57763671875	upper	../fonts/zerothre.ttf
1642.726	n/a	WORD	821363	wordpools/wasnorm_wordpool.txt	LTP084	ltpFR	11	6	1	FARM	552	n/a	0	n/a	0	0	0	1	0.412841796875	0.57763671875	upper	../fonts/zerothre.ttf
1646.816	n/a	WORD	823408	wordpools/wasnorm_wordpool.txt	LTP084	ltpFR	11	6	0	AUTOMOBILE	62	n/a	0	n/a	0	0	0	0	0.5869140625	0.422607421875	lower	../fonts/amplitud.ttf
1650.974	n/a	WORD	825487	wordpools/wasnorm_wordpool.txt	LTP084	ltpFR	11	6	0	FRIAR	605	n/a	0	n/a	0	0	0	0	0.5869140625	0.422607421875	lower	../fonts/amplitud.ttf
1655.106	n/a	WORD	827553	wordpools/wasnorm_wordpool.txt	LTP084	ltpFR	11	6	0	MUSTARD	935	n/a	0	n/a	0	0	0	0	0.5869140625	0.422607421875	lower	../fonts/amplitud.ttf
1659.292	n/a	WORD	829646	wordpools/wasnorm_wordpool.txt	LTP084	ltpFR	11	6	0	DRILL	497	n/a	0	n/a	0	0	0	0	0.5869140625	0.422607421875	lower	../fonts/amplitud.ttf
1663.408	n/a	WORD	831704	wordpools/wasnorm_wordpool.txt	LTP084	ltpFR	11	6	1	SALESMAN	1225	n/a	0	n/a	0	0	0	1	0.412841796875	0.57763671875	upper	../fonts/zerothre.ttf
1667.508	n/a	WORD	833754	wordpools/wasnorm_wordpool.txt	LTP084	ltpFR	11	6	1	BLACKBOARD	133	n/a	0	n/a	0	0	0	1	0.412841796875	0.57763671875	upper	../fonts/zerothre.ttf
1671.65	n/a	WORD	835825	wordpools/wasnorm_wordpool.txt	LTP084	ltpFR	11	6	1	TUNA	1518	n/a	0	n/a	0	0	0	1	0.412841796875	0.57763671875	upper	../fonts/zerothre.ttf
1674.658	n/a	START	837329	n/a	LTP084	ltpFR	11	n/a	n/a	n/a	n/a	n/a	n/a	n/a	n/a	n/a	n/a	n/a	n/a	n/a	n/a	n/a
1675.508	n/a	PROB	837754	n/a	LTP084	ltpFR	11	n/a	n/a	n/a	n/a	n/a	n/a	22	6	9	7	n/a	n/a	n/a	n/a	n/a
1677.308	n/a	PROB	838654	n/a	LTP084	ltpFR	11	n/a	n/a	n/a	n/a	n/a	n/a	14	4	6	4	n/a	n/a	n/a	n/a	n/a
1678.582	n/a	PROB	839291	n/a	LTP084	ltpFR	11	n/a	n/a	n/a	n/a	n/a	n/a	15	8	2	5	n/a	n/a	n/a	n/a	n/a
1679.742	n/a	PROB	839871	n/a	LTP084	ltpFR	11	n/a	n/a	n/a	n/a	n/a	n/a	11	5	4	2	n/a	n/a	n/a	n/a	n/a
1681.242	n/a	PROB	840621	n/a	LTP084	ltpFR	11	n/a	n/a	n/a	n/a	n/a	n/a	6	2	1	3	n/a	n/a	n/a	n/a	n/a
1682.932	n/a	PROB	841466	n/a	LTP084	ltpFR	11	n/a	n/a	n/a	n/a	n/a	n/a	13	5	2	6	n/a	n/a	n/a	n/a	n/a
1684.732	n/a	PROB	842366	n/a	LTP084	ltpFR	11	n/a	n/a	n/a	n/a	n/a	n/a	18	7	9	2	n/a	n/a	n/a	n/a	n/a
1686.014	n/a	PROB	843007	n/a	LTP084	ltpFR	11	n/a	n/a	n/a	n/a	n/a	n/a	21	6	9	6	n/a	n/a	n/a	n/a	n/a
1687.39	n/a	PROB	843695	n/a	LTP084	ltpFR	11	n/a	n/a	n/a	n/a	n/a	n/a	17	4	7	6	n/a	n/a	n/a	n/a	n/a
1689.064	n/a	PROB	844532	n/a	LTP084	ltpFR	11	n/a	n/a	n/a	n/a	n/a	n/a	12	6	1	3	n/a	n/a	n/a	n/a	n/a
1690.568	n/a	STOP	845284	n/a	LTP084	ltpFR	11	n/a	n/a	n/a	n/a	n/a	n/a	n/a	n/a	n/a	n/a	n/a	n/a	n/a	n/a	n/a
1692.558	n/a	REC_START	846279	n/a	LTP084	ltpFR	11	6	n/a	n/a	n/a	n/a	n/a	n/a	0	0	0	n/a	n/a	n/a	n/a	n/a
1693.954	n/a	REC_WORD	846977	wordpools/wasnorm_wordpool.txt	LTP084	ltpFR	11	6	0	MUSTARD	935	n/a	0	n/a	0	0	0	n/a	n/a	n/a	n/a	n/a
1695.55	n/a	REC_WORD	847775	wordpools/wasnorm_wordpool.txt	LTP084	ltpFR	11	6	1	BLACKBOARD	133	n/a	0	n/a	0	0	0	n/a	n/a	n/a	n/a	n/a
1697.162	n/a	REC_WORD	848581	wordpools/wasnorm_wordpool.txt	LTP084	ltpFR	11	6	0	SKATE	1313	n/a	0	n/a	0	0	0	n/a	n/a	n/a	n/a	n/a
1789.48	n/a	WORD	894740	wordpools/wasnorm_wordpool.txt	LTP084	ltpFR	11	7	1	LODGE	839	n/a	0	n/a	0	0	0	1	0.412841796875	0.57763671875	upper	../fonts/zerothre.ttf
1793.646	n/a	WORD	896823	wordpools/wasnorm_wordpool.txt	LTP084	ltpFR	11	7	1	HOUND	724	n/a	0	n/a	0	0	0	1	0.412841796875	0.57763671875	upper	../fonts/zerothre.ttf
1797.654	n/a	WORD	898827	wordpools/wasnorm_wordpool.txt	LTP084	ltpFR	11	7	1	SEA	1259	n/a	0	n/a	0	0	0	1	0.412841796875	0.57763671875	upper	../fonts/zerothre.ttf
1801.48	n/a	WORD	900740	wordpools/wasnorm_wordpool.txt	LTP084	ltpFR	11	7	0	PARENT	1013	n/a	0	n/a	0	0	0	0	0.5869140625	0.422607421875	lower	../fonts/amplitud.ttf
1805.354	n/a	WORD	902677	wordpools/wasnorm_wordpool.txt	LTP084	ltpFR	11	7	0	COBRA	336	n/a	0	n/a	0	0	0	0	0.5869140625	0.422607421875	lower	../fonts/amplitud.ttf
1809.178	n/a	WORD	904589	wordpools/wasnorm_wordpool.txt	LTP084	ltpFR	11	7	0	ARTERY	41	n/a	0	n/a	0	0	0	0	0.5869140625	0.422607421875	lower	../fonts/amplitud.ttf
1813.296	n/a	WORD	906648	wordpools/wasnorm_wordpool.txt	LTP084	ltpFR	11	7	0	LEOPARD	812	n/a	0	n/a	0	0	0	0	0.5869140625	0.422607421875	lower	../fonts/amplitud.ttf
1817.42	n/a	WORD	908710	wordpools/wasnorm_wordpool.txt	LTP084	ltpFR	11	7	0	BEAR	106	n/a	0	n/a	0	0	0	0	0.5869140625	0.422607421875	lower	../fonts/amplitud.ttf
1821.496	n/a	WORD	910748	wordpools/wasnorm_wordpool.txt	LTP084	ltpFR	11	7	0	CABBAGE	210	n/a	0	n/a	0	0	0	0	0.5869140625	0.422607421875	lower	../fonts/amplitud.ttf
1825.528	n/a	WORD	912764	wordpools/wasnorm_wordpool.txt	LTP084	ltpFR	11	7	1	SALAD	1224	n/a	0	n/a	0	0	0	1	0.412841796875	0.57763671875	upper	../fonts/zerothre.ttf
1829.488	n/a	WORD	914744	wordpools/wasnorm_wordpool.txt	LTP084	ltpFR	11	7	1	ROCK	1201	n/a	0	n/a	0	0	0	1	0.412841796875	0.57763671875	upper	../fonts/zerothre.ttf
1833.496	n/a	WORD	916748	wordpools/wasnorm_wordpool.txt	LTP084	ltpFR	11	7	1	PRESIDENT	1121	n/a	0	n/a	0	0	0	1	0.412841796875	0.57763671875	upper	../fonts/zerothre.ttf
1837.454	n/a	WORD	918727	wordpools/wasnorm_wordpool.txt	LTP084	ltpFR	11	7	0	CHAIRPERSON	275	n/a	0	n/a	0	0	0	0	0.5869140625	0.422607421875	lower	../fonts/amplitud.ttf
1841.462	n/a	WORD	920731	wordpools/wasnorm_wordpool.txt	LTP084	ltpFR	11	7	0	JUG	762	n/a	0	n/a	0	0	0	0	0.5869140625	0.422607421875	lower	../fonts/amplitud.ttf
1845.67	n/a	WORD	922835	wordpools/wasnorm_wordpool.txt	LTP084	ltpFR	11	7	1	VEIN	1554	n/a	0	n/a	0	0	0	1	0.412841796875	0.57763671875	upper	../fonts/zerothre.ttf
1849.82	n/a	WORD	924910	wordpools/wasnorm_wordpool.txt	LTP084	ltpFR	11	7	1	BOXER	160	n/a	0	n/a	0	0	0	1	0.412841796875	0.57763671875	upper	../fonts/zerothre.ttf
1855.72	n/a	REC_START	927860	n/a	LTP084	ltpFR	11	7	n/a	n/a	n/a	n/a	n/a	n/a	0	0	0	n/a	n/a	n/a	n/a	n/a
1856.846	n/a	REC_WORD	928423	wordpools/wasnorm_wordpool.txt	LTP084	ltpFR	11	7	1	VEIN	1554	n/a	0	n/a	0	0	0	n/a	n/a	n/a	n/a	n/a
1858.208	n/a	REC_WORD	929104	wordpools/wasnorm_wordpool.txt	LTP084	ltpFR	11	7	1	BOXER	160	n/a	0	n/a	0	0	0	n/a	n/a	n/a	n/a	n/a
1859.656	n/a	REC_WORD	929828	wordpools/wasnorm_wordpool.txt	LTP084	ltpFR	11	7	1	PRESIDENT	1121	n/a	0	n/a	0	0	0	n/a	n/a	n/a	n/a	n/a
1861.308	n/a	REC_WORD	930654	wordpools/wasnorm_wordpool.txt	LTP084	ltpFR	11	7	n/a	HUMAN	726	n/a	n/a	n/a	0	0	0	n/a	n/a	n/a	n/a	n/a
1934.134	n/a	WORD	967067	wordpools/wasnorm_wordpool.txt	LTP084	ltpFR	11	8	0	SIRLOIN	1311	n/a	0	n/a	0	0	0	0	0.5869140625	0.422607421875	lower	../fonts/amplitud.ttf
1937.992	n/a	WORD	968996	wordpools/wasnorm_wordpool.txt	LTP084	ltpFR	11	8	0	SPHINX	1349	n/a	0	n/a	0	0	0	0	0.5869140625	0.422607421875	lower	../fonts/amplitud.ttf
1941.942	n/a	WORD	970971	wordpools/wasnorm_wordpool.txt	LTP084	ltpFR	11	8	0	DOCTOR	478	n/a	0	n/a	0	0	0	0	0.5869140625	0.422607421875	lower	../fonts/amplitud.ttf
1945.834	n/a	WORD	972917	wordpools/wasnorm_wordpool.txt	LTP084	ltpFR	11	8	0	NURSE	963	n/a	0	n/a	0	0	0	0	0.5869140625	0.422607421875	lower	../fonts/amplitud.ttf
1949.658	n/a	WORD	974829	wordpools/wasnorm_wordpool.txt	LTP084	ltpFR	11	8	0	VILLAGE	1566	n/a	1	n/a	0	0	0	0	0.5869140625	0.422607421875	lower	../fonts/amplitud.ttf
1953.866	n/a	WORD	976933	wordpools/wasnorm_wordpool.txt	LTP084	ltpFR	11	8	0	SHORTCAKE	1292	n/a	0	n/a	0	0	0	0	0.5869140625	0.422607421875	lower	../fonts/amplitud.ttf
1957.958	n/a	WORD	978979	wordpools/wasnorm_wordpool.txt	LTP084	ltpFR	11	8	0	RAISIN	1163	n/a	0	n/a	0	0	0	0	0.5869140625	0.422607421875	lower	../fonts/amplitud.ttf
1961.81	n/a	WORD	980905	wordpools/wasnorm_wordpool.txt	LTP084	ltpFR	11	8	0	SCALE	1241	n/a	0	n/a	0	0	0	0	0.5869140625	0.422607421875	lower	../fonts/amplitud.ttf
1965.874	n/a	WORD	982937	wordpools/wasnorm_wordpool.txt	LTP084	ltpFR	11	8	0	BAIT	70	n/a	0	n/a	0	0	0	0	0.5869140625	0.422607421875	lower	../fonts/amplitud.ttf
1969.866	n/a	WORD	984933	wordpools/wasnorm_wordpool.txt	LTP084	ltpFR	11	8	0	SHOULDER	1294	n/a	0	n/a	0	0	0	0	0.5869140625	0.422607421875	lower	../fonts/amplitud.ttf
1973.708	n/a	WORD	986854	wordpools/wasnorm_wordpool.txt	LTP084	ltpFR	11	8	0	PAD	998	n/a	0	n/a	0	0	0	0	0.5869140625	0.422607421875	lower	../fonts/amplitud.ttf
1977.906	n/a	WORD	988953	wordpools/wasnorm_wordpool.txt	LTP084	ltpFR	11	8	0	SAXOPHONE	1240	n/a	0	n/a	0	0	0	0	0.5869140625	0.422607421875	lower	../fonts/amplitud.ttf
1982.09	n/a	WORD	991045	wordpools/wasnorm_wordpool.txt	LTP084	ltpFR	11	8	0	DIAPER	459	n/a	0	n/a	0	0	0	0	0.5869140625	0.422607421875	lower	../fonts/amplitud.ttf
1986.032	n/a	WORD	993016	wordpools/wasnorm_wordpool.txt	LTP084	ltpFR	11	8	0	DIARY	460	n/a	0	n/a	0	0	0	0	0.5869140625	0.422607421875	lower	../fonts/amplitud.ttf
1989.882	n/a	WORD	994941	wordpools/wasnorm_wordpool.txt	LTP084	ltpFR	11	8	0	DRUM	502	n/a	0	n/a	0	0	0	0	0.5869140625	0.422607421875	lower	../fonts/amplitud.ttf
1993.956	n/a	WORD	996978	wordpools/wasnorm_wordpool.txt	LTP084	ltpFR	11	8	0	ANKLE	24	n/a	0	n/a	0	0	0	0	0.5869140625	0.422607421875	lower	../fonts/amplitud.ttf
1996.964	n/a	START	998482	n/a	LTP084	ltpFR	11	n/a	n/a	n/a	n/a	n/a	n/a	n/a	n/a	n/a	n/a	n/a	n/a	n/a	n/a	n/a
1997.824	n/a	PROB	998912	n/a	LTP084	ltpFR	11	n/a	n/a	n/a	n/a	n/a	n/a	26	8	9	9	n/a	n/a	n/a	n/a	n/a
1999.906	n/a	PROB	999953	n/a	LTP084	ltpFR	11	n/a	n/a	n/a	n/a	n/a	n/a	16	8	6	2	n/a	n/a	n/a	n/a	n/a
2001.424	n/a	PROB	1000712	n/a	LTP084	ltpFR	11	n/a	n/a	n/a	n/a	n/a	n/a	24	7	8	9	n/a	n/a	n/a	n/a	n/a
2003.174	n/a	PROB	1001587	n/a	LTP084	ltpFR	11	n/a	n/a	n/a	n/a	n/a	n/a	10	1	8	1	n/a	n/a	n/a	n/a	n/a
2004.642	n/a	PROB	1002321	n/a	LTP084	ltpFR	11	n/a	n/a	n/a	n/a	n/a	n/a	17	7	1	9	n/a	n/a	n/a	n/a	n/a
2005.956	n/a	PROB	1002978	n/a	LTP084	ltpFR	11	n/a	n/a	n/a	n/a	n/a	n/a	9	4	1	4	n/a	n/a	n/a	n/a	n/a
2007.516	n/a	PROB	1003758	n/a	LTP084	ltpFR	11	n/a	n/a	n/a	n/a	n/a	n/a	16	9	4	3	n/a	n/a	n/a	n/a	n/a
2008.774	n/a	PROB	1004387	n/a	LTP084	ltpFR	11	n/a	n/a	n/a	n/a	n/a	n/a	22	8	8	7	n/a	n/a	n/a	n/a	n/a
2010.232	n/a	PROB	1005116	n/a	LTP084	ltpFR	11	n/a	n/a	n/a	n/a	n/a	n/a	1	8	9	2	n/a	n/a	n/a	n/a	n/a
2011.966	n/a	STOP	1005983	n/a	LTP084	ltpFR	11	n/a	n/a	n/a	n/a	n/a	n/a	n/a	n/a	n/a	n/a	n/a	n/a	n/a	n/a	n/a
2014.858	n/a	REC_START	1007429	n/a	LTP084	ltpFR	11	8	n/a	n/a	n/a	n/a	n/a	n/a	0	0	0	n/a	n/a	n/a	n/a	n/a
2016.638	n/a	REC_WORD	1008319	wordpools/wasnorm_wordpool.txt	LTP084	ltpFR	11	8	0	DOCTOR	478	n/a	0	n/a	0	0	0	n/a	n/a	n/a	n/a	n/a
2018.06	n/a	REC_WORD	1009030	wordpools/wasnorm_wordpool.txt	LTP084	ltpFR	11	8	0	NURSE	963	n/a	0	n/a	0	0	0	n/a	n/a	n/a	n/a	n/a
2019.152	n/a	REC_WORD	1009576	wordpools/wasnorm_wordpool.txt	LTP084	ltpFR	11	8	0	SPHINX	1349	n/a	0	n/a	0	0	0	n/a	n/a	n/a	n/a	n/a
2020.82	n/a	REC_WORD	1010410	wordpools/wasnorm_wordpool.txt	LTP084	ltpFR	11	8	0	SAXOPHONE	1240	n/a	0	n/a	0	0	0	n/a	n/a	n/a	n/a	n/a
2031.122	n/a	REC_WORD	1015561	wordpools/wasnorm_wordpool.txt	LTP084	ltpFR	11	8	0	SHORTCAKE	1292	n/a	0	n/a	0	0	0	n/a	n/a	n/a	n/a	n/a
2091.622	n/a	START	1045811	n/a	LTP084	ltpFR	11	n/a	n/a	n/a	n/a	n/a	n/a	n/a	n/a	n/a	n/a	n/a	n/a	n/a	n/a	n/a
2093.13	n/a	PROB	1046565	n/a	LTP084	ltpFR	11	n/a	n/a	n/a	n/a	n/a	n/a	14	8	3	3	n/a	n/a	n/a	n/a	n/a
2094.546	n/a	PROB	1047273	n/a	LTP084	ltpFR	11	n/a	n/a	n/a	n/a	n/a	n/a	21	8	6	7	n/a	n/a	n/a	n/a	n/a
2095.888	n/a	PROB	1047944	n/a	LTP084	ltpFR	11	n/a	n/a	n/a	n/a	n/a	n/a	8	2	4	2	n/a	n/a	n/a	n/a	n/a
2097.088	n/a	PROB	1048544	n/a	LTP084	ltpFR	11	n/a	n/a	n/a	n/a	n/a	n/a	17	6	9	2	n/a	n/a	n/a	n/a	n/a
2098.522	n/a	PROB	1049261	n/a	LTP084	ltpFR	11	n/a	n/a	n/a	n/a	n/a	n/a	7	3	1	3	n/a	n/a	n/a	n/a	n/a
2099.704	n/a	PROB	1049852	n/a	LTP084	ltpFR	11	n/a	n/a	n/a	n/a	n/a	n/a	12	5	6	1	n/a	n/a	n/a	n/a	n/a
2100.838	n/a	PROB	1050419	n/a	LTP084	ltpFR	11	n/a	n/a	n/a	n/a	n/a	n/a	7	4	2	1	n/a	n/a	n/a	n/a	n/a
2102.138	n/a	PROB	1051069	n/a	LTP084	ltpFR	11	n/a	n/a	n/a	n/a	n/a	n/a	7	2	1	4	n/a	n/a	n/a	n/a	n/a
2103.53	n/a	PROB	1051765	n/a	LTP084	ltpFR	11	n/a	n/a	n/a	n/a	n/a	n/a	15	7	2	6	n/a	n/a	n/a	n/a	n/a
2105.296	n/a	PROB	1052648	n/a	LTP084	ltpFR	11	n/a	n/a	n/a	n/a	n/a	n/a	19	8	3	8	n/a	n/a	n/a	n/a	n/a
2106.74	n/a	STOP	1053370	n/a	LTP084	ltpFR	11	n/a	n/a	n/a	n/a	n/a	n/a	n/a	n/a	n/a	n/a	n/a	n/a	n/a	n/a	n/a
2108.738	n/a	WORD	1054369	wordpools/wasnorm_wordpool.txt	LTP084	ltpFR	11	9	1	BRICK	172	n/a	0	n/a	0	0	0	1	0.412841796875	0.57763671875	upper	../fonts/zerothre.ttf
2111.746	n/a	START	1055873	n/a	LTP084	ltpFR	11	n/a	n/a	n/a	n/a	n/a	n/a	n/a	n/a	n/a	n/a	n/a	n/a	n/a	n/a	n/a
2112.946	n/a	PROB	1056473	n/a	LTP084	ltpFR	11	n/a	n/a	n/a	n/a	n/a	n/a	5	2	1	2	n/a	n/a	n/a	n/a	n/a
2114.078	n/a	PROB	1057039	n/a	LTP084	ltpFR	11	n/a	n/a	n/a	n/a	n/a	n/a	17	7	8	2	n/a	n/a	n/a	n/a	n/a
2115.338	n/a	PROB	1057669	n/a	LTP084	ltpFR	11	n/a	n/a	n/a	n/a	n/a	n/a	15	5	8	2	n/a	n/a	n/a	n/a	n/a
2116.496	n/a	PROB	1058248	n/a	LTP084	ltpFR	11	n/a	n/a	n/a	n/a	n/a	n/a	9	2	6	1	n/a	n/a	n/a	n/a	n/a
2117.696	n/a	PROB	1058848	n/a	LTP084	ltpFR	11	n/a	n/a	n/a	n/a	n/a	n/a	12	3	7	2	n/a	n/a	n/a	n/a	n/a
2118.894	n/a	PROB	1059447	n/a	LTP084	ltpFR	11	n/a	n/a	n/a	n/a	n/a	n/a	8	2	5	1	n/a	n/a	n/a	n/a	n/a
2120.136	n/a	PROB	1060068	n/a	LTP084	ltpFR	11	n/a	n/a	n/a	n/a	n/a	n/a	20	3	9	8	n/a	n/a	n/a	n/a	n/a
2121.672	n/a	PROB	1060836	n/a	LTP084	ltpFR	11	n/a	n/a	n/a	n/a	n/a	n/a	10	4	2	3	n/a	n/a	n/a	n/a	n/a
2122.962	n/a	PROB	1061481	n/a	LTP084	ltpFR	11	n/a	n/a	n/a	n/a	n/a	n/a	12	2	4	6	n/a	n/a	n/a	n/a	n/a
2124.63	n/a	PROB	1062315	n/a	LTP084	ltpFR	11	n/a	n/a	n/a	n/a	n/a	n/a	19	9	5	5	n/a	n/a	n/a	n/a	n/a
2127.746	n/a	STOP	1063873	n/a	LTP084	ltpFR	11	n/a	n/a	n/a	n/a	n/a	n/a	n/a	n/a	n/a	n/a	n/a	n/a	n/a	n/a	n/a
2128.78	n/a	WORD	1064390	wordpools/wasnorm_wordpool.txt	LTP084	ltpFR	11	9	1	NUCLEUS	961	n/a	1	n/a	0	0	0	1	0.412841796875	0.57763671875	upper	../fonts/zerothre.ttf
2131.788	n/a	START	1065894	n/a	LTP084	ltpFR	11	n/a	n/a	n/a	n/a	n/a	n/a	n/a	n/a	n/a	n/a	n/a	n/a	n/a	n/a	n/a
2132.936	n/a	PROB	1066468	n/a	LTP084	ltpFR	11	n/a	n/a	n/a	n/a	n/a	n/a	9	3	2	4	n/a	n/a	n/a	n/a	n/a
2135.48	n/a	PROB	1067740	n/a	LTP084	ltpFR	11	n/a	n/a	n/a	n/a	n/a	n/a	17	6	9	2	n/a	n/a	n/a	n/a	n/a
2136.788	n/a	PROB	1068394	n/a	LTP084	ltpFR	11	n/a	n/a	n/a	n/a	n/a	n/a	16	5	8	3	n/a	n/a	n/a	n/a	n/a
2138.044	n/a	PROB	1069022	n/a	LTP084	ltpFR	11	n/a	n/a	n/a	n/a	n/a	n/a	14	1	5	8	n/a	n/a	n/a	n/a	n/a
2139.27	n/a	PROB	1069635	n/a	LTP084	ltpFR	11	n/a	n/a	n/a	n/a	n/a	n/a	15	3	5	7	n/a	n/a	n/a	n/a	n/a
2140.796	n/a	PROB	1070398	n/a	LTP084	ltpFR	11	n/a	n/a	n/a	n/a	n/a	n/a	15	4	4	7	n/a	n/a	n/a	n/a	n/a
2142.68	n/a	PROB	1071340	n/a	LTP084	ltpFR	11	n/a	n/a	n/a	n/a	n/a	n/a	19	4	6	9	n/a	n/a	n/a	n/a	n/a
2144.154	n/a	PROB	1072077	n/a	LTP084	ltpFR	11	n/a	n/a	n/a	n/a	n/a	n/a	18	3	6	9	n/a	n/a	n/a	n/a	n/a
2145.77	n/a	PROB	1072885	n/a	LTP084	ltpFR	11	n/a	n/a	n/a	n/a	n/a	n/a	13	6	4	3	n/a	n/a	n/a	n/a	n/a
2147.31	n/a	STOP	1073655	n/a	LTP084	ltpFR	11	n/a	n/a	n/a	n/a	n/a	n/a	n/a	n/a	n/a	n/a	n/a	n/a	n/a	n/a	n/a
2148.796	n/a	WORD	1074398	wordpools/wasnorm_wordpool.txt	LTP084	ltpFR	11	9	1	TAIL	1430	n/a	0	n/a	0	0	0	1	0.412841796875	0.57763671875	upper	../fonts/zerothre.ttf
2151.804	n/a	START	1075902	n/a	LTP084	ltpFR	11	n/a	n/a	n/a	n/a	n/a	n/a	n/a	n/a	n/a	n/a	n/a	n/a	n/a	n/a	n/a
2152.796	n/a	PROB	1076398	n/a	LTP084	ltpFR	11	n/a	n/a	n/a	n/a	n/a	n/a	16	3	7	6	n/a	n/a	n/a	n/a	n/a
2154.346	n/a	PROB	1077173	n/a	LTP084	ltpFR	11	n/a	n/a	n/a	n/a	n/a	n/a	13	3	1	9	n/a	n/a	n/a	n/a	n/a
2155.786	n/a	PROB	1077893	n/a	LTP084	ltpFR	11	n/a	n/a	n/a	n/a	n/a	n/a	15	7	1	7	n/a	n/a	n/a	n/a	n/a
2157.02	n/a	PROB	1078510	n/a	LTP084	ltpFR	11	n/a	n/a	n/a	n/a	n/a	n/a	10	1	1	8	n/a	n/a	n/a	n/a	n/a
2158.228	n/a	PROB	1079114	n/a	LTP084	ltpFR	11	n/a	n/a	n/a	n/a	n/a	n/a	11	4	5	2	n/a	n/a	n/a	n/a	n/a
2159.504	n/a	PROB	1079752	n/a	LTP084	ltpFR	11	n/a	n/a	n/a	n/a	n/a	n/a	18	8	8	2	n/a	n/a	n/a	n/a	n/a
2160.78	n/a	PROB	1080390	n/a	LTP084	ltpFR	11	n/a	n/a	n/a	n/a	n/a	n/a	15	9	1	5	n/a	n/a	n/a	n/a	n/a
2162.02	n/a	PROB	1081010	n/a	LTP084	ltpFR	11	n/a	n/a	n/a	n/a	n/a	n/a	19	9	1	9	n/a	n/a	n/a	n/a	n/a
2163.396	n/a	PROB	1081698	n/a	LTP084	ltpFR	11	n/a	n/a	n/a	n/a	n/a	n/a	13	2	8	3	n/a	n/a	n/a	n/a	n/a
2164.952	n/a	PROB	1082476	n/a	LTP084	ltpFR	11	n/a	n/a	n/a	n/a	n/a	n/a	14	1	6	7	n/a	n/a	n/a	n/a	n/a
2167.806	n/a	STOP	1083903	n/a	LTP084	ltpFR	11	n/a	n/a	n/a	n/a	n/a	n/a	n/a	n/a	n/a	n/a	n/a	n/a	n/a	n/a	n/a
2168.67	n/a	WORD	1084335	wordpools/wasnorm_wordpool.txt	LTP084	ltpFR	11	9	1	PANTHER	1009	n/a	1	n/a	0	0	0	1	0.412841796875	0.57763671875	upper	../fonts/zerothre.ttf
2171.688	n/a	START	1085844	n/a	LTP084	ltpFR	11	n/a	n/a	n/a	n/a	n/a	n/a	n/a	n/a	n/a	n/a	n/a	n/a	n/a	n/a	n/a
2172.494	n/a	PROB	1086247	n/a	LTP084	ltpFR	11	n/a	n/a	n/a	n/a	n/a	n/a	15	7	1	7	n/a	n/a	n/a	n/a	n/a
2174.11	n/a	PROB	1087055	n/a	LTP084	ltpFR	11	n/a	n/a	n/a	n/a	n/a	n/a	16	7	4	5	n/a	n/a	n/a	n/a	n/a
2175.96	n/a	PROB	1087980	n/a	LTP084	ltpFR	11	n/a	n/a	n/a	n/a	n/a	n/a	15	4	2	9	n/a	n/a	n/a	n/a	n/a
2177.444	n/a	PROB	1088722	n/a	LTP084	ltpFR	11	n/a	n/a	n/a	n/a	n/a	n/a	14	3	3	8	n/a	n/a	n/a	n/a	n/a
2178.844	n/a	PROB	1089422	n/a	LTP084	ltpFR	11	n/a	n/a	n/a	n/a	n/a	n/a	17	3	6	8	n/a	n/a	n/a	n/a	n/a
2180.252	n/a	PROB	1090126	n/a	LTP084	ltpFR	11	n/a	n/a	n/a	n/a	n/a	n/a	8	2	1	5	n/a	n/a	n/a	n/a	n/a
2181.736	n/a	PROB	1090868	n/a	LTP084	ltpFR	11	n/a	n/a	n/a	n/a	n/a	n/a	3	1	1	1	n/a	n/a	n/a	n/a	n/a
2182.862	n/a	PROB	1091431	n/a	LTP084	ltpFR	11	n/a	n/a	n/a	n/a	n/a	n/a	15	3	4	8	n/a	n/a	n/a	n/a	n/a
2184.152	n/a	PROB	1092076	n/a	LTP084	ltpFR	11	n/a	n/a	n/a	n/a	n/a	n/a	21	6	6	9	n/a	n/a	n/a	n/a	n/a
2186.16	n/a	PROB	1093080	n/a	LTP084	ltpFR	11	n/a	n/a	n/a	n/a	n/a	n/a	5	2	1	2	n/a	n/a	n/a	n/a	n/a
2187.24	n/a	STOP	1093620	n/a	LTP084	ltpFR	11	n/a	n/a	n/a	n/a	n/a	n/a	n/a	n/a	n/a	n/a	n/a	n/a	n/a	n/a	n/a
2188.778	n/a	WORD	1094389	wordpools/wasnorm_wordpool.txt	LTP084	ltpFR	11	9	0	JAR	750	n/a	0	n/a	0	0	0	0	0.5869140625	0.422607421875	lower	../fonts/amplitud.ttf
2191.778	n/a	START	1095889	n/a	LTP084	ltpFR	11	n/a	n/a	n/a	n/a	n/a	n/a	n/a	n/a	n/a	n/a	n/a	n/a	n/a	n/a	n/a
2192.952	n/a	PROB	1096476	n/a	LTP084	ltpFR	11	n/a	n/a	n/a	n/a	n/a	n/a	17	4	5	8	n/a	n/a	n/a	n/a	n/a
2194.876	n/a	PROB	1097438	n/a	LTP084	ltpFR	11	n/a	n/a	n/a	n/a	n/a	n/a	15	7	4	4	n/a	n/a	n/a	n/a	n/a
2196.194	n/a	PROB	1098097	n/a	LTP084	ltpFR	11	n/a	n/a	n/a	n/a	n/a	n/a	21	9	5	7	n/a	n/a	n/a	n/a	n/a
2197.618	n/a	PROB	1098809	n/a	LTP084	ltpFR	11	n/a	n/a	n/a	n/a	n/a	n/a	12	8	2	2	n/a	n/a	n/a	n/a	n/a
2198.844	n/a	PROB	1099422	n/a	LTP084	ltpFR	11	n/a	n/a	n/a	n/a	n/a	n/a	21	6	9	6	n/a	n/a	n/a	n/a	n/a
2200.344	n/a	PROB	1100172	n/a	LTP084	ltpFR	11	n/a	n/a	n/a	n/a	n/a	n/a	17	1	7	9	n/a	n/a	n/a	n/a	n/a
2201.636	n/a	PROB	1100818	n/a	LTP084	ltpFR	11	n/a	n/a	n/a	n/a	n/a	n/a	16	3	6	7	n/a	n/a	n/a	n/a	n/a
2203.386	n/a	PROB	1101693	n/a	LTP084	ltpFR	11	n/a	n/a	n/a	n/a	n/a	n/a	19	7	7	5	n/a	n/a	n/a	n/a	n/a
2204.786	n/a	PROB	1102393	n/a	LTP084	ltpFR	11	n/a	n/a	n/a	n/a	n/a	n/a	8	1	2	5	n/a	n/a	n/a	n/a	n/a
2205.984	n/a	PROB	1102992	n/a	LTP084	ltpFR	11	n/a	n/a	n/a	n/a	n/a	n/a	7	1	2	4	n/a	n/a	n/a	n/a	n/a
2207.136	n/a	STOP	1103568	n/a	LTP084	ltpFR	11	n/a	n/a	n/a	n/a	n/a	n/a	n/a	n/a	n/a	n/a	n/a	n/a	n/a	n/a	n/a
2208.794	n/a	WORD	1104397	wordpools/wasnorm_wordpool.txt	LTP084	ltpFR	11	9	0	SAUCER	1237	n/a	0	n/a	0	0	0	0	0.5869140625	0.422607421875	lower	../fonts/amplitud.ttf
2211.802	n/a	START	1105901	n/a	LTP084	ltpFR	11	n/a	n/a	n/a	n/a	n/a	n/a	n/a	n/a	n/a	n/a	n/a	n/a	n/a	n/a	n/a
2212.836	n/a	PROB	1106418	n/a	LTP084	ltpFR	11	n/a	n/a	n/a	n/a	n/a	n/a	14	8	1	5	n/a	n/a	n/a	n/a	n/a
2214.142	n/a	PROB	1107071	n/a	LTP084	ltpFR	11	n/a	n/a	n/a	n/a	n/a	n/a	18	4	5	9	n/a	n/a	n/a	n/a	n/a
2215.586	n/a	PROB	1107793	n/a	LTP084	ltpFR	11	n/a	n/a	n/a	n/a	n/a	n/a	9	1	3	5	n/a	n/a	n/a	n/a	n/a
2217.034	n/a	PROB	1108517	n/a	LTP084	ltpFR	11	n/a	n/a	n/a	n/a	n/a	n/a	13	5	7	1	n/a	n/a	n/a	n/a	n/a
2218.268	n/a	PROB	1109134	n/a	LTP084	ltpFR	11	n/a	n/a	n/a	n/a	n/a	n/a	14	3	3	8	n/a	n/a	n/a	n/a	n/a
2219.526	n/a	PROB	1109763	n/a	LTP084	ltpFR	11	n/a	n/a	n/a	n/a	n/a	n/a	12	6	3	3	n/a	n/a	n/a	n/a	n/a
2220.884	n/a	PROB	1110442	n/a	LTP084	ltpFR	11	n/a	n/a	n/a	n/a	n/a	n/a	9	2	5	2	n/a	n/a	n/a	n/a	n/a
2222.32	n/a	PROB	1111160	n/a	LTP084	ltpFR	11	n/a	n/a	n/a	n/a	n/a	n/a	23	8	7	8	n/a	n/a	n/a	n/a	n/a
2223.926	n/a	PROB	1111963	n/a	LTP084	ltpFR	11	n/a	n/a	n/a	n/a	n/a	n/a	17	3	7	7	n/a	n/a	n/a	n/a	n/a
2225.268	n/a	PROB	1112634	n/a	LTP084	ltpFR	11	n/a	n/a	n/a	n/a	n/a	n/a	10	1	7	2	n/a	n/a	n/a	n/a	n/a
2226.554	n/a	STOP	1113277	n/a	LTP084	ltpFR	11	n/a	n/a	n/a	n/a	n/a	n/a	n/a	n/a	n/a	n/a	n/a	n/a	n/a	n/a	n/a
2229.0	n/a	WORD	1114500	wordpools/wasnorm_wordpool.txt	LTP084	ltpFR	11	9	0	KING	777	n/a	0	n/a	0	0	0	0	0.5869140625	0.422607421875	lower	../fonts/amplitud.ttf
2232.01	n/a	START	1116005	n/a	LTP084	ltpFR	11	n/a	n/a	n/a	n/a	n/a	n/a	n/a	n/a	n/a	n/a	n/a	n/a	n/a	n/a	n/a
2233.042	n/a	PROB	1116521	n/a	LTP084	ltpFR	11	n/a	n/a	n/a	n/a	n/a	n/a	12	4	2	6	n/a	n/a	n/a	n/a	n/a
2234.544	n/a	PROB	1117272	n/a	LTP084	ltpFR	11	n/a	n/a	n/a	n/a	n/a	n/a	18	9	2	7	n/a	n/a	n/a	n/a	n/a
2236.05	n/a	PROB	1118025	n/a	LTP084	ltpFR	11	n/a	n/a	n/a	n/a	n/a	n/a	17	5	7	5	n/a	n/a	n/a	n/a	n/a
2238.008	n/a	PROB	1119004	n/a	LTP084	ltpFR	11	n/a	n/a	n/a	n/a	n/a	n/a	15	6	8	1	n/a	n/a	n/a	n/a	n/a
2239.526	n/a	PROB	1119763	n/a	LTP084	ltpFR	11	n/a	n/a	n/a	n/a	n/a	n/a	18	8	2	8	n/a	n/a	n/a	n/a	n/a
2241.752	n/a	PROB	1120876	n/a	LTP084	ltpFR	11	n/a	n/a	n/a	n/a	n/a	n/a	6	2	3	1	n/a	n/a	n/a	n/a	n/a
2243.536	n/a	PROB	1121768	n/a	LTP084	ltpFR	11	n/a	n/a	n/a	n/a	n/a	n/a	12	3	2	7	n/a	n/a	n/a	n/a	n/a
2245.2	n/a	PROB	1122600	n/a	LTP084	ltpFR	11	n/a	n/a	n/a	n/a	n/a	n/a	10	2	7	1	n/a	n/a	n/a	n/a	n/a
2246.62	n/a	STOP	1123310	n/a	LTP084	ltpFR	11	n/a	n/a	n/a	n/a	n/a	n/a	n/a	n/a	n/a	n/a	n/a	n/a	n/a	n/a	n/a
2248.95	n/a	WORD	1124475	wordpools/wasnorm_wordpool.txt	LTP084	ltpFR	11	9	0	CASTLE	256	n/a	0	n/a	0	0	0	0	0.5869140625	0.422607421875	lower	../fonts/amplitud.ttf
2251.958	n/a	START	1125979	n/a	LTP084	ltpFR	11	n/a	n/a	n/a	n/a	n/a	n/a	n/a	n/a	n/a	n/a	n/a	n/a	n/a	n/a	n/a
2253.116	n/a	PROB	1126558	n/a	LTP084	ltpFR	11	n/a	n/a	n/a	n/a	n/a	n/a	15	3	4	8	n/a	n/a	n/a	n/a	n/a
2254.452	n/a	PROB	1127226	n/a	LTP084	ltpFR	11	n/a	n/a	n/a	n/a	n/a	n/a	16	2	5	9	n/a	n/a	n/a	n/a	n/a
2255.974	n/a	PROB	1127987	n/a	LTP084	ltpFR	11	n/a	n/a	n/a	n/a	n/a	n/a	20	3	9	8	n/a	n/a	n/a	n/a	n/a
2257.342	n/a	PROB	1128671	n/a	LTP084	ltpFR	11	n/a	n/a	n/a	n/a	n/a	n/a	10	6	1	3	n/a	n/a	n/a	n/a	n/a
2258.842	n/a	PROB	1129421	n/a	LTP084	ltpFR	11	n/a	n/a	n/a	n/a	n/a	n/a	9	4	1	4	n/a	n/a	n/a	n/a	n/a
2260.526	n/a	PROB	1130263	n/a	LTP084	ltpFR	11	n/a	n/a	n/a	n/a	n/a	n/a	7	3	1	3	n/a	n/a	n/a	n/a	n/a
2261.968	n/a	PROB	1130984	n/a	LTP084	ltpFR	11	n/a	n/a	n/a	n/a	n/a	n/a	16	9	5	2	n/a	n/a	n/a	n/a	n/a
2263.584	n/a	PROB	1131792	n/a	LTP084	ltpFR	11	n/a	n/a	n/a	n/a	n/a	n/a	9	1	6	2	n/a	n/a	n/a	n/a	n/a
2265.042	n/a	PROB	1132521	n/a	LTP084	ltpFR	11	n/a	n/a	n/a	n/a	n/a	n/a	15	1	5	9	n/a	n/a	n/a	n/a	n/a
2266.98	n/a	STOP	1133490	n/a	LTP084	ltpFR	11	n/a	n/a	n/a	n/a	n/a	n/a	n/a	n/a	n/a	n/a	n/a	n/a	n/a	n/a	n/a
2268.992	n/a	WORD	1134496	wordpools/wasnorm_wordpool.txt	LTP084	ltpFR	11	9	0	BUN	197	n/a	0	n/a	0	0	0	0	0.5869140625	0.422607421875	lower	../fonts/amplitud.ttf
2272.0	n/a	START	1136000	n/a	LTP084	ltpFR	11	n/a	n/a	n/a	n/a	n/a	n/a	n/a	n/a	n/a	n/a	n/a	n/a	n/a	n/a	n/a
2273.15	n/a	PROB	1136575	n/a	LTP084	ltpFR	11	n/a	n/a	n/a	n/a	n/a	n/a	14	4	2	8	n/a	n/a	n/a	n/a	n/a
2274.384	n/a	PROB	1137192	n/a	LTP084	ltpFR	11	n/a	n/a	n/a	n/a	n/a	n/a	11	2	7	2	n/a	n/a	n/a	n/a	n/a
2275.626	n/a	PROB	1137813	n/a	LTP084	ltpFR	11	n/a	n/a	n/a	n/a	n/a	n/a	15	4	6	5	n/a	n/a	n/a	n/a	n/a
2276.792	n/a	PROB	1138396	n/a	LTP084	ltpFR	11	n/a	n/a	n/a	n/a	n/a	n/a	15	6	6	3	n/a	n/a	n/a	n/a	n/a
2277.982	n/a	PROB	1138991	n/a	LTP084	ltpFR	11	n/a	n/a	n/a	n/a	n/a	n/a	13	1	4	8	n/a	n/a	n/a	n/a	n/a
2279.166	n/a	PROB	1139583	n/a	LTP084	ltpFR	11	n/a	n/a	n/a	n/a	n/a	n/a	18	5	4	9	n/a	n/a	n/a	n/a	n/a
2280.974	n/a	PROB	1140487	n/a	LTP084	ltpFR	11	n/a	n/a	n/a	n/a	n/a	n/a	9	5	2	2	n/a	n/a	n/a	n/a	n/a
2282.292	n/a	PROB	1141146	n/a	LTP084	ltpFR	11	n/a	n/a	n/a	n/a	n/a	n/a	17	7	9	1	n/a	n/a	n/a	n/a	n/a
2283.56	n/a	PROB	1141780	n/a	LTP084	ltpFR	11	n/a	n/a	n/a	n/a	n/a	n/a	17	7	6	4	n/a	n/a	n/a	n/a	n/a
2284.984	n/a	PROB	1142492	n/a	LTP084	ltpFR	11	n/a	n/a	n/a	n/a	n/a	n/a	10	1	8	1	n/a	n/a	n/a	n/a	n/a
2286.058	n/a	PROB	1143029	n/a	LTP084	ltpFR	11	n/a	n/a	n/a	n/a	n/a	n/a	17	2	8	7	n/a	n/a	n/a	n/a	n/a
2287.188	n/a	STOP	1143594	n/a	LTP084	ltpFR	11	n/a	n/a	n/a	n/a	n/a	n/a	n/a	n/a	n/a	n/a	n/a	n/a	n/a	n/a	n/a
2289.008	n/a	WORD	1144504	wordpools/wasnorm_wordpool.txt	LTP084	ltpFR	11	9	1	SAGE	1222	n/a	0	n/a	0	0	0	1	0.412841796875	0.57763671875	upper	../fonts/zerothre.ttf
2292.016	n/a	START	1146008	n/a	LTP084	ltpFR	11	n/a	n/a	n/a	n/a	n/a	n/a	n/a	n/a	n/a	n/a	n/a	n/a	n/a	n/a	n/a
2293.108	n/a	PROB	1146554	n/a	LTP084	ltpFR	11	n/a	n/a	n/a	n/a	n/a	n/a	18	6	9	3	n/a	n/a	n/a	n/a	n/a
2294.484	n/a	PROB	1147242	n/a	LTP084	ltpFR	11	n/a	n/a	n/a	n/a	n/a	n/a	11	3	5	3	n/a	n/a	n/a	n/a	n/a
2296.082	n/a	PROB	1148041	n/a	LTP084	ltpFR	11	n/a	n/a	n/a	n/a	n/a	n/a	15	5	6	4	n/a	n/a	n/a	n/a	n/a
2297.384	n/a	PROB	1148692	n/a	LTP084	ltpFR	11	n/a	n/a	n/a	n/a	n/a	n/a	23	9	5	9	n/a	n/a	n/a	n/a	n/a
2299.332	n/a	PROB	1149666	n/a	LTP084	ltpFR	11	n/a	n/a	n/a	n/a	n/a	n/a	17	3	6	8	n/a	n/a	n/a	n/a	n/a
2300.632	n/a	PROB	1150316	n/a	LTP084	ltpFR	11	n/a	n/a	n/a	n/a	n/a	n/a	20	9	9	2	n/a	n/a	n/a	n/a	n/a
2302.066	n/a	PROB	1151033	n/a	LTP084	ltpFR	11	n/a	n/a	n/a	n/a	n/a	n/a	18	8	1	9	n/a	n/a	n/a	n/a	n/a
2303.526	n/a	PROB	1151763	n/a	LTP084	ltpFR	11	n/a	n/a	n/a	n/a	n/a	n/a	14	3	8	3	n/a	n/a	n/a	n/a	n/a
2304.742	n/a	PROB	1152371	n/a	LTP084	ltpFR	11	n/a	n/a	n/a	n/a	n/a	n/a	12	6	4	2	n/a	n/a	n/a	n/a	n/a
2305.932	n/a	PROB	1152966	n/a	LTP084	ltpFR	11	n/a	n/a	n/a	n/a	n/a	n/a	12	6	4	2	n/a	n/a	n/a	n/a	n/a
2307.414	n/a	STOP	1153707	n/a	LTP084	ltpFR	11	n/a	n/a	n/a	n/a	n/a	n/a	n/a	n/a	n/a	n/a	n/a	n/a	n/a	n/a	n/a
2308.882	n/a	WORD	1154441	wordpools/wasnorm_wordpool.txt	LTP084	ltpFR	11	9	1	TUXEDO	1525	n/a	0	n/a	0	0	0	1	0.412841796875	0.57763671875	upper	../fonts/zerothre.ttf
2311.89	n/a	START	1155945	n/a	LTP084	ltpFR	11	n/a	n/a	n/a	n/a	n/a	n/a	n/a	n/a	n/a	n/a	n/a	n/a	n/a	n/a	n/a
2312.99	n/a	PROB	1156495	n/a	LTP084	ltpFR	11	n/a	n/a	n/a	n/a	n/a	n/a	15	4	5	6	n/a	n/a	n/a	n/a	n/a
2314.516	n/a	PROB	1157258	n/a	LTP084	ltpFR	11	n/a	n/a	n/a	n/a	n/a	n/a	18	9	6	3	n/a	n/a	n/a	n/a	n/a
2316.258	n/a	PROB	1158129	n/a	LTP084	ltpFR	11	n/a	n/a	n/a	n/a	n/a	n/a	8	2	5	1	n/a	n/a	n/a	n/a	n/a
2317.6	n/a	PROB	1158800	n/a	LTP084	ltpFR	11	n/a	n/a	n/a	n/a	n/a	n/a	20	7	4	9	n/a	n/a	n/a	n/a	n/a
2319.624	n/a	PROB	1159812	n/a	LTP084	ltpFR	11	n/a	n/a	n/a	n/a	n/a	n/a	14	5	1	7	n/a	n/a	n/a	n/a	n/a
2321.724	n/a	PROB	1160862	n/a	LTP084	ltpFR	11	n/a	n/a	n/a	n/a	n/a	n/a	16	3	7	6	n/a	n/a	n/a	n/a	n/a
2323.374	n/a	PROB	1161687	n/a	LTP084	ltpFR	11	n/a	n/a	n/a	n/a	n/a	n/a	15	6	1	8	n/a	n/a	n/a	n/a	n/a
2324.842	n/a	PROB	1162421	n/a	LTP084	ltpFR	11	n/a	n/a	n/a	n/a	n/a	n/a	16	4	4	8	n/a	n/a	n/a	n/a	n/a
2326.366	n/a	PROB	1163183	n/a	LTP084	ltpFR	11	n/a	n/a	n/a	n/a	n/a	n/a	16	3	4	9	n/a	n/a	n/a	n/a	n/a
2327.704	n/a	STOP	1163852	n/a	LTP084	ltpFR	11	n/a	n/a	n/a	n/a	n/a	n/a	n/a	n/a	n/a	n/a	n/a	n/a	n/a	n/a	n/a
2328.832	n/a	WORD	1164416	wordpools/wasnorm_wordpool.txt	LTP084	ltpFR	11	9	1	BREAST	171	n/a	0	n/a	0	0	0	1	0.412841796875	0.57763671875	upper	../fonts/zerothre.ttf
2331.842	n/a	START	1165921	n/a	LTP084	ltpFR	11	n/a	n/a	n/a	n/a	n/a	n/a	n/a	n/a	n/a	n/a	n/a	n/a	n/a	n/a	n/a
2332.782	n/a	PROB	1166391	n/a	LTP084	ltpFR	11	n/a	n/a	n/a	n/a	n/a	n/a	4	2	1	1	n/a	n/a	n/a	n/a	n/a
2334.19	n/a	PROB	1167095	n/a	LTP084	ltpFR	11	n/a	n/a	n/a	n/a	n/a	n/a	16	6	4	6	n/a	n/a	n/a	n/a	n/a
2336.156	n/a	PROB	1168078	n/a	LTP084	ltpFR	11	n/a	n/a	n/a	n/a	n/a	n/a	19	9	2	8	n/a	n/a	n/a	n/a	n/a
2337.882	n/a	PROB	1168941	n/a	LTP084	ltpFR	11	n/a	n/a	n/a	n/a	n/a	n/a	19	7	9	3	n/a	n/a	n/a	n/a	n/a
2339.532	n/a	PROB	1169766	n/a	LTP084	ltpFR	11	n/a	n/a	n/a	n/a	n/a	n/a	13	7	1	3	n/a	n/a	n/a	n/a	n/a
2341.022	n/a	PROB	1170511	n/a	LTP084	ltpFR	11	n/a	n/a	n/a	n/a	n/a	n/a	21	4	8	9	n/a	n/a	n/a	n/a	n/a
2342.916	n/a	PROB	1171458	n/a	LTP084	ltpFR	11	n/a	n/a	n/a	n/a	n/a	n/a	21	8	7	6	n/a	n/a	n/a	n/a	n/a
2344.332	n/a	PROB	1172166	n/a	LTP084	ltpFR	11	n/a	n/a	n/a	n/a	n/a	n/a	17	8	1	8	n/a	n/a	n/a	n/a	n/a
2345.832	n/a	PROB	1172916	n/a	LTP084	ltpFR	11	n/a	n/a	n/a	n/a	n/a	n/a	7	3	1	3	n/a	n/a	n/a	n/a	n/a
2347.208	n/a	STOP	1173604	n/a	LTP084	ltpFR	11	n/a	n/a	n/a	n/a	n/a	n/a	n/a	n/a	n/a	n/a	n/a	n/a	n/a	n/a	n/a
2348.798	n/a	WORD	1174399	wordpools/wasnorm_wordpool.txt	LTP084	ltpFR	11	9	1	MOLECULE	905	n/a	0	n/a	0	0	0	1	0.412841796875	0.57763671875	upper	../fonts/zerothre.ttf
2351.808	n/a	START	1175904	n/a	LTP084	ltpFR	11	n/a	n/a	n/a	n/a	n/a	n/a	n/a	n/a	n/a	n/a	n/a	n/a	n/a	n/a	n/a
2352.824	n/a	PROB	1176412	n/a	LTP084	ltpFR	11	n/a	n/a	n/a	n/a	n/a	n/a	25	8	9	8	n/a	n/a	n/a	n/a	n/a
2354.698	n/a	PROB	1177349	n/a	LTP084	ltpFR	11	n/a	n/a	n/a	n/a	n/a	n/a	21	4	8	9	n/a	n/a	n/a	n/a	n/a
2356.206	n/a	PROB	1178103	n/a	LTP084	ltpFR	11	n/a	n/a	n/a	n/a	n/a	n/a	10	2	3	5	n/a	n/a	n/a	n/a	n/a
2357.582	n/a	PROB	1178791	n/a	LTP084	ltpFR	11	n/a	n/a	n/a	n/a	n/a	n/a	16	8	3	5	n/a	n/a	n/a	n/a	n/a
2358.906	n/a	PROB	1179453	n/a	LTP084	ltpFR	11	n/a	n/a	n/a	n/a	n/a	n/a	11	6	4	1	n/a	n/a	n/a	n/a	n/a
2359.98	n/a	PROB	1179990	n/a	LTP084	ltpFR	11	n/a	n/a	n/a	n/a	n/a	n/a	9	2	6	1	n/a	n/a	n/a	n/a	n/a
2361.264	n/a	PROB	1180632	n/a	LTP084	ltpFR	11	n/a	n/a	n/a	n/a	n/a	n/a	9	2	4	3	n/a	n/a	n/a	n/a	n/a
2362.698	n/a	PROB	1181349	n/a	LTP084	ltpFR	11	n/a	n/a	n/a	n/a	n/a	n/a	15	6	7	2	n/a	n/a	n/a	n/a	n/a
2363.874	n/a	PROB	1181937	n/a	LTP084	ltpFR	11	n/a	n/a	n/a	n/a	n/a	n/a	12	2	6	4	n/a	n/a	n/a	n/a	n/a
2365.266	n/a	PROB	1182633	n/a	LTP084	ltpFR	11	n/a	n/a	n/a	n/a	n/a	n/a	10	4	2	4	n/a	n/a	n/a	n/a	n/a
2366.512	n/a	STOP	1183256	n/a	LTP084	ltpFR	11	n/a	n/a	n/a	n/a	n/a	n/a	n/a	n/a	n/a	n/a	n/a	n/a	n/a	n/a	n/a
2368.93	n/a	WORD	1184465	wordpools/wasnorm_wordpool.txt	LTP084	ltpFR	11	9	0	AUDIENCE	59	n/a	0	n/a	0	0	0	0	0.5869140625	0.422607421875	lower	../fonts/amplitud.ttf
2371.94	n/a	START	1185970	n/a	LTP084	ltpFR	11	n/a	n/a	n/a	n/a	n/a	n/a	n/a	n/a	n/a	n/a	n/a	n/a	n/a	n/a	n/a
2373.048	n/a	PROB	1186524	n/a	LTP084	ltpFR	11	n/a	n/a	n/a	n/a	n/a	n/a	10	4	4	2	n/a	n/a	n/a	n/a	n/a
2374.322	n/a	PROB	1187161	n/a	LTP084	ltpFR	11	n/a	n/a	n/a	n/a	n/a	n/a	13	9	1	3	n/a	n/a	n/a	n/a	n/a
2375.732	n/a	PROB	1187866	n/a	LTP084	ltpFR	11	n/a	n/a	n/a	n/a	n/a	n/a	19	9	5	5	n/a	n/a	n/a	n/a	n/a
2377.164	n/a	PROB	1188582	n/a	LTP084	ltpFR	11	n/a	n/a	n/a	n/a	n/a	n/a	10	4	1	5	n/a	n/a	n/a	n/a	n/a
2378.398	n/a	PROB	1189199	n/a	LTP084	ltpFR	11	n/a	n/a	n/a	n/a	n/a	n/a	10	2	7	1	n/a	n/a	n/a	n/a	n/a
2379.664	n/a	PROB	1189832	n/a	LTP084	ltpFR	11	n/a	n/a	n/a	n/a	n/a	n/a	16	5	9	2	n/a	n/a	n/a	n/a	n/a
2380.93	n/a	PROB	1190465	n/a	LTP084	ltpFR	11	n/a	n/a	n/a	n/a	n/a	n/a	12	7	4	1	n/a	n/a	n/a	n/a	n/a
2382.056	n/a	PROB	1191028	n/a	LTP084	ltpFR	11	n/a	n/a	n/a	n/a	n/a	n/a	15	1	9	5	n/a	n/a	n/a	n/a	n/a
2383.664	n/a	PROB	1191832	n/a	LTP084	ltpFR	11	n/a	n/a	n/a	n/a	n/a	n/a	11	4	1	6	n/a	n/a	n/a	n/a	n/a
2384.698	n/a	PROB	1192349	n/a	LTP084	ltpFR	11	n/a	n/a	n/a	n/a	n/a	n/a	6	1	2	3	n/a	n/a	n/a	n/a	n/a
2385.698	n/a	PROB	1192849	n/a	LTP084	ltpFR	11	n/a	n/a	n/a	n/a	n/a	n/a	14	1	9	4	n/a	n/a	n/a	n/a	n/a
2386.89	n/a	STOP	1193445	n/a	LTP084	ltpFR	11	n/a	n/a	n/a	n/a	n/a	n/a	n/a	n/a	n/a	n/a	n/a	n/a	n/a	n/a	n/a
2388.79	n/a	WORD	1194395	wordpools/wasnorm_wordpool.txt	LTP084	ltpFR	11	9	0	TURKEY	1520	n/a	0	n/a	0	0	0	0	0.5869140625	0.422607421875	lower	../fonts/amplitud.ttf
2391.798	n/a	START	1195899	n/a	LTP084	ltpFR	11	n/a	n/a	n/a	n/a	n/a	n/a	n/a	n/a	n/a	n/a	n/a	n/a	n/a	n/a	n/a
2392.872	n/a	PROB	1196436	n/a	LTP084	ltpFR	11	n/a	n/a	n/a	n/a	n/a	n/a	19	6	7	6	n/a	n/a	n/a	n/a	n/a
2394.43	n/a	PROB	1197215	n/a	LTP084	ltpFR	11	n/a	n/a	n/a	n/a	n/a	n/a	14	1	9	4	n/a	n/a	n/a	n/a	n/a
2395.888	n/a	PROB	1197944	n/a	LTP084	ltpFR	11	n/a	n/a	n/a	n/a	n/a	n/a	16	4	4	8	n/a	n/a	n/a	n/a	n/a
2397.364	n/a	PROB	1198682	n/a	LTP084	ltpFR	11	n/a	n/a	n/a	n/a	n/a	n/a	16	4	7	5	n/a	n/a	n/a	n/a	n/a
2398.706	n/a	PROB	1199353	n/a	LTP084	ltpFR	11	n/a	n/a	n/a	n/a	n/a	n/a	16	6	3	7	n/a	n/a	n/a	n/a	n/a
2400.364	n/a	PROB	1200182	n/a	LTP084	ltpFR	11	n/a	n/a	n/a	n/a	n/a	n/a	18	8	5	5	n/a	n/a	n/a	n/a	n/a
2401.946	n/a	PROB	1200973	n/a	LTP084	ltpFR	11	n/a	n/a	n/a	n/a	n/a	n/a	16	5	8	3	n/a	n/a	n/a	n/a	n/a
2403.272	n/a	PROB	1201636	n/a	LTP084	ltpFR	11	n/a	n/a	n/a	n/a	n/a	n/a	15	4	8	3	n/a	n/a	n/a	n/a	n/a
2404.54	n/a	PROB	1202270	n/a	LTP084	ltpFR	11	n/a	n/a	n/a	n/a	n/a	n/a	19	9	5	5	n/a	n/a	n/a	n/a	n/a
2405.972	n/a	PROB	1202986	n/a	LTP084	ltpFR	11	n/a	n/a	n/a	n/a	n/a	n/a	18	9	4	5	n/a	n/a	n/a	n/a	n/a
2407.356	n/a	STOP	1203678	n/a	LTP084	ltpFR	11	n/a	n/a	n/a	n/a	n/a	n/a	n/a	n/a	n/a	n/a	n/a	n/a	n/a	n/a	n/a
2408.856	n/a	WORD	1204428	wordpools/wasnorm_wordpool.txt	LTP084	ltpFR	11	9	0	CHIMNEY	301	n/a	0	n/a	0	0	0	0	0.5869140625	0.422607421875	lower	../fonts/amplitud.ttf
2411.864	n/a	START	1205932	n/a	LTP084	ltpFR	11	n/a	n/a	n/a	n/a	n/a	n/a	n/a	n/a	n/a	n/a	n/a	n/a	n/a	n/a	n/a
2412.722	n/a	PROB	1206361	n/a	LTP084	ltpFR	11	n/a	n/a	n/a	n/a	n/a	n/a	14	8	1	5	n/a	n/a	n/a	n/a	n/a
2414.154	n/a	PROB	1207077	n/a	LTP084	ltpFR	11	n/a	n/a	n/a	n/a	n/a	n/a	10	2	2	6	n/a	n/a	n/a	n/a	n/a
2415.822	n/a	PROB	1207911	n/a	LTP084	ltpFR	11	n/a	n/a	n/a	n/a	n/a	n/a	13	9	2	2	n/a	n/a	n/a	n/a	n/a
2417.204	n/a	PROB	1208602	n/a	LTP084	ltpFR	11	n/a	n/a	n/a	n/a	n/a	n/a	10	6	1	3	n/a	n/a	n/a	n/a	n/a
2418.772	n/a	PROB	1209386	n/a	LTP084	ltpFR	11	n/a	n/a	n/a	n/a	n/a	n/a	13	4	7	2	n/a	n/a	n/a	n/a	n/a
2419.938	n/a	PROB	1209969	n/a	LTP084	ltpFR	11	n/a	n/a	n/a	n/a	n/a	n/a	15	4	5	6	n/a	n/a	n/a	n/a	n/a
2421.314	n/a	PROB	1210657	n/a	LTP084	ltpFR	11	n/a	n/a	n/a	n/a	n/a	n/a	18	7	4	7	n/a	n/a	n/a	n/a	n/a
2422.938	n/a	PROB	1211469	n/a	LTP084	ltpFR	11	n/a	n/a	n/a	n/a	n/a	n/a	21	7	8	6	n/a	n/a	n/a	n/a	n/a
2424.356	n/a	PROB	1212178	n/a	LTP084	ltpFR	11	n/a	n/a	n/a	n/a	n/a	n/a	9	2	2	5	n/a	n/a	n/a	n/a	n/a
2425.714	n/a	PROB	1212857	n/a	LTP084	ltpFR	11	n/a	n/a	n/a	n/a	n/a	n/a	12	6	4	2	n/a	n/a	n/a	n/a	n/a
2426.876	n/a	STOP	1213438	n/a	LTP084	ltpFR	11	n/a	n/a	n/a	n/a	n/a	n/a	n/a	n/a	n/a	n/a	n/a	n/a	n/a	n/a	n/a
2429.598	n/a	REC_START	1214799	n/a	LTP084	ltpFR	11	9	n/a	n/a	n/a	n/a	n/a	n/a	0	0	0	n/a	n/a	n/a	n/a	n/a
2430.784	n/a	REC_WORD	1215392	wordpools/wasnorm_wordpool.txt	LTP084	ltpFR	11	9	1	NUCLEUS	961	n/a	1	n/a	0	0	0	n/a	n/a	n/a	n/a	n/a
2432.456	n/a	REC_WORD	1216228	wordpools/wasnorm_wordpool.txt	LTP084	ltpFR	11	9	0	AUDIENCE	59	n/a	0	n/a	0	0	0	n/a	n/a	n/a	n/a	n/a
2434.472	n/a	REC_WORD	1217236	wordpools/wasnorm_wordpool.txt	LTP084	ltpFR	11	9	n/a	THUMB	1462	n/a	n/a	n/a	0	0	0	n/a	n/a	n/a	n/a	n/a
2438.644	n/a	REC_WORD_VV	1219322	wordpools/wasnorm_wordpool.txt	LTP084	ltpFR	11	9	n/a	<>	-1	n/a	n/a	n/a	0	0	0	n/a	n/a	n/a	n/a	n/a
2508.102	n/a	WORD	1254051	wordpools/wasnorm_wordpool.txt	LTP084	ltpFR	11	10	0	ARMY	39	n/a	0	n/a	0	0	0	0	0.5869140625	0.422607421875	lower	../fonts/amplitud.ttf
2512.312	n/a	WORD	1256156	wordpools/wasnorm_wordpool.txt	LTP084	ltpFR	11	10	0	SUSPECT	1415	n/a	0	n/a	0	0	0	0	0.5869140625	0.422607421875	lower	../fonts/amplitud.ttf
2516.302	n/a	WORD	1258151	wordpools/wasnorm_wordpool.txt	LTP084	ltpFR	11	10	0	SHINGLE	1285	n/a	0	n/a	0	0	0	0	0.5869140625	0.422607421875	lower	../fonts/amplitud.ttf
2520.21	n/a	WORD	1260105	wordpools/wasnorm_wordpool.txt	LTP084	ltpFR	11	10	0	CARPENTER	246	n/a	0	n/a	0	0	0	0	0.5869140625	0.422607421875	lower	../fonts/amplitud.ttf
2524.386	n/a	WORD	1262193	wordpools/wasnorm_wordpool.txt	LTP084	ltpFR	11	10	0	COLUMN	350	n/a	0	n/a	0	0	0	0	0.5869140625	0.422607421875	lower	../fonts/amplitud.ttf
2528.36	n/a	WORD	1264180	wordpools/wasnorm_wordpool.txt	LTP084	ltpFR	11	10	0	ZUCCHINI	1638	n/a	0	n/a	0	0	0	0	0.5869140625	0.422607421875	lower	../fonts/amplitud.ttf
2532.194	n/a	WORD	1266097	wordpools/wasnorm_wordpool.txt	LTP084	ltpFR	11	10	0	MUSHROOM	934	n/a	0	n/a	0	0	0	0	0.5869140625	0.422607421875	lower	../fonts/amplitud.ttf
2536.226	n/a	WORD	1268113	wordpools/wasnorm_wordpool.txt	LTP084	ltpFR	11	10	0	COMMANDER	354	n/a	0	n/a	0	0	0	0	0.5869140625	0.422607421875	lower	../fonts/amplitud.ttf
2540.368	n/a	WORD	1270184	wordpools/wasnorm_wordpool.txt	LTP084	ltpFR	11	10	0	DRIVER	499	n/a	0	n/a	0	0	0	0	0.5869140625	0.422607421875	lower	../fonts/amplitud.ttf
2544.57	n/a	WORD	1272285	wordpools/wasnorm_wordpool.txt	LTP084	ltpFR	11	10	0	LOOP	844	n/a	0	n/a	0	0	0	0	0.5869140625	0.422607421875	lower	../fonts/amplitud.ttf
2548.452	n/a	WORD	1274226	wordpools/wasnorm_wordpool.txt	LTP084	ltpFR	11	10	0	SNEAKER	1334	n/a	0	n/a	0	0	0	0	0.5869140625	0.422607421875	lower	../fonts/amplitud.ttf
2552.526	n/a	WORD	1276263	wordpools/wasnorm_wordpool.txt	LTP084	ltpFR	11	10	0	SOAP	1337	n/a	0	n/a	0	0	0	0	0.5869140625	0.422607421875	lower	../fonts/amplitud.ttf
2556.502	n/a	WORD	1278251	wordpools/wasnorm_wordpool.txt	LTP084	ltpFR	11	10	0	CAR	241	n/a	0	n/a	0	0	0	0	0.5869140625	0.422607421875	lower	../fonts/amplitud.ttf
2560.402	n/a	WORD	1280201	wordpools/wasnorm_wordpool.txt	LTP084	ltpFR	11	10	0	STUMP	1396	n/a	0	n/a	0	0	0	0	0.5869140625	0.422607421875	lower	../fonts/amplitud.ttf
2564.31	n/a	WORD	1282155	wordpools/wasnorm_wordpool.txt	LTP084	ltpFR	11	10	0	LIMOUSINE	824	n/a	0	n/a	0	0	0	0	0.5869140625	0.422607421875	lower	../fonts/amplitud.ttf
2568.242	n/a	WORD	1284121	wordpools/wasnorm_wordpool.txt	LTP084	ltpFR	11	10	0	MOTOR	922	n/a	0	n/a	0	0	0	0	0.5869140625	0.422607421875	lower	../fonts/amplitud.ttf
2574.26	n/a	REC_START	1287130	n/a	LTP084	ltpFR	11	10	n/a	n/a	n/a	n/a	n/a	n/a	0	0	0	n/a	n/a	n/a	n/a	n/a
2574.948	n/a	REC_WORD	1287474	wordpools/wasnorm_wordpool.txt	LTP084	ltpFR	11	10	0	LIMOUSINE	824	n/a	0	n/a	0	0	0	n/a	n/a	n/a	n/a	n/a
2576.444	n/a	REC_WORD	1288222	wordpools/wasnorm_wordpool.txt	LTP084	ltpFR	11	10	0	MOTOR	922	n/a	0	n/a	0	0	0	n/a	n/a	n/a	n/a	n/a
2577.902	n/a	REC_WORD	1288951	wordpools/wasnorm_wordpool.txt	LTP084	ltpFR	11	10	n/a	ENGINE	535	n/a	n/a	n/a	0	0	0	n/a	n/a	n/a	n/a	n/a
2652.724	n/a	WORD	1326362	wordpools/wasnorm_wordpool.txt	LTP084	ltpFR	11	11	1	COUCH	386	n/a	0	n/a	0	0	0	1	0.412841796875	0.57763671875	upper	../fonts/zerothre.ttf
2656.732	n/a	WORD	1328366	wordpools/wasnorm_wordpool.txt	LTP084	ltpFR	11	11	1	BLUEPRINT	142	n/a	0	n/a	0	0	0	1	0.412841796875	0.57763671875	upper	../fonts/zerothre.ttf
2660.608	n/a	WORD	1330304	wordpools/wasnorm_wordpool.txt	LTP084	ltpFR	11	11	1	AGENT	10	n/a	0	n/a	0	0	0	1	0.412841796875	0.57763671875	upper	../fonts/zerothre.ttf
2664.658	n/a	WORD	1332329	wordpools/wasnorm_wordpool.txt	LTP084	ltpFR	11	11	1	HAMBURGER	679	n/a	0	n/a	0	0	0	1	0.412841796875	0.57763671875	upper	../fonts/zerothre.ttf
2668.758	n/a	WORD	1334379	wordpools/wasnorm_wordpool.txt	LTP084	ltpFR	11	11	1	PASTRY	1022	n/a	0	n/a	0	0	0	1	0.412841796875	0.57763671875	upper	../fonts/zerothre.ttf
2672.598	n/a	WORD	1336299	wordpools/wasnorm_wordpool.txt	LTP084	ltpFR	11	11	1	SEAL	1262	n/a	0	n/a	0	0	0	1	0.412841796875	0.57763671875	upper	../fonts/zerothre.ttf
2676.748	n/a	WORD	1338374	wordpools/wasnorm_wordpool.txt	LTP084	ltpFR	11	11	1	PATIO	1025	n/a	0	n/a	0	0	0	1	0.412841796875	0.57763671875	upper	../fonts/zerothre.ttf
2680.606	n/a	WORD	1340303	wordpools/wasnorm_wordpool.txt	LTP084	ltpFR	11	11	1	BLOUSE	139	n/a	0	n/a	0	0	0	1	0.412841796875	0.57763671875	upper	../fonts/zerothre.ttf
2684.748	n/a	WORD	1342374	wordpools/wasnorm_wordpool.txt	LTP084	ltpFR	11	11	1	CUFF	423	n/a	0	n/a	0	0	0	1	0.412841796875	0.57763671875	upper	../fonts/zerothre.ttf
2688.674	n/a	WORD	1344337	wordpools/wasnorm_wordpool.txt	LTP084	ltpFR	11	11	1	PERSONNEL	1053	n/a	0	n/a	0	0	0	1	0.412841796875	0.57763671875	upper	../fonts/zerothre.ttf
2692.698	n/a	WORD	1346349	wordpools/wasnorm_wordpool.txt	LTP084	ltpFR	11	11	1	BEAVER	109	n/a	0	n/a	0	0	0	1	0.412841796875	0.57763671875	upper	../fonts/zerothre.ttf
