onset	duration	trial_type	sample	stim_file	subject	experiment	session	trial	task	item_name	item_num	recog_resp	recog_conf	resp	answer	test_x	test_y	test_z	color_r	color_g	color_b	case	font
238.122	n/a	SESS_START	119061	n/a	LTP110	ltpFR	13	n/a	n/a	n/a	n/a	1	4	n/a	n/a	0	0	0	n/a	n/a	n/a	n/a	n/a
257.978	n/a	START	128989	n/a	LTP110	ltpFR	13	n/a	n/a	n/a	n/a	n/a	n/a	n/a	n/a	n/a	n/a	n/a	n/a	n/a	n/a	n/a	n/a
258.002	n/a	PROB	129001	n/a	LTP110	ltpFR	13	n/a	n/a	n/a	n/a	n/a	n/a	n/a	11	3	7	1	n/a	n/a	n/a	n/a	n/a
259.242	n/a	PROB	129621	n/a	LTP110	ltpFR	13	n/a	n/a	n/a	n/a	n/a	n/a	n/a	18	8	5	5	n/a	n/a	n/a	n/a	n/a
260.71	n/a	PROB	130355	n/a	LTP110	ltpFR	13	n/a	n/a	n/a	n/a	n/a	n/a	n/a	12	2	8	2	n/a	n/a	n/a	n/a	n/a
261.692	n/a	PROB	130846	n/a	LTP110	ltpFR	13	n/a	n/a	n/a	n/a	n/a	n/a	n/a	12	8	2	2	n/a	n/a	n/a	n/a	n/a
262.434	n/a	PROB	131217	n/a	LTP110	ltpFR	13	n/a	n/a	n/a	n/a	n/a	n/a	n/a	16	6	5	5	n/a	n/a	n/a	n/a	n/a
263.816	n/a	PROB	131908	n/a	LTP110	ltpFR	13	n/a	n/a	n/a	n/a	n/a	n/a	n/a	13	6	3	4	n/a	n/a	n/a	n/a	n/a
265.24	n/a	PROB	132620	n/a	LTP110	ltpFR	13	n/a	n/a	n/a	n/a	n/a	n/a	n/a	14	4	5	5	n/a	n/a	n/a	n/a	n/a
266.298	n/a	PROB	133149	n/a	LTP110	ltpFR	13	n/a	n/a	n/a	n/a	n/a	n/a	n/a	18	5	5	8	n/a	n/a	n/a	n/a	n/a
267.614	n/a	PROB	133807	n/a	LTP110	ltpFR	13	n/a	n/a	n/a	n/a	n/a	n/a	n/a	19	7	6	6	n/a	n/a	n/a	n/a	n/a
269.306	n/a	PROB	134653	n/a	LTP110	ltpFR	13	n/a	n/a	n/a	n/a	n/a	n/a	n/a	7	4	1	2	n/a	n/a	n/a	n/a	n/a
270.364	n/a	PROB	135182	n/a	LTP110	ltpFR	13	n/a	n/a	n/a	n/a	n/a	n/a	n/a	16	9	5	2	n/a	n/a	n/a	n/a	n/a
272.188	n/a	PROB	136094	n/a	LTP110	ltpFR	13	n/a	n/a	n/a	n/a	n/a	n/a	n/a	11	2	7	2	n/a	n/a	n/a	n/a	n/a
273.588	n/a	PROB	136794	n/a	LTP110	ltpFR	13	n/a	n/a	n/a	n/a	n/a	n/a	n/a	16	1	7	8	n/a	n/a	n/a	n/a	n/a
276.45	n/a	STOP	138225	n/a	LTP110	ltpFR	13	n/a	n/a	n/a	n/a	n/a	n/a	n/a	n/a	n/a	n/a	n/a	n/a	n/a	n/a	n/a	n/a
293.834	n/a	START	146917	n/a	LTP110	ltpFR	13	n/a	n/a	n/a	n/a	n/a	n/a	n/a	n/a	n/a	n/a	n/a	n/a	n/a	n/a	n/a	n/a
295.34	n/a	PROB	147670	n/a	LTP110	ltpFR	13	n/a	n/a	n/a	n/a	n/a	n/a	n/a	21	6	7	8	n/a	n/a	n/a	n/a	n/a
296.798	n/a	PROB	148399	n/a	LTP110	ltpFR	13	n/a	n/a	n/a	n/a	n/a	n/a	n/a	15	8	5	2	n/a	n/a	n/a	n/a	n/a
298.282	n/a	PROB	149141	n/a	LTP110	ltpFR	13	n/a	n/a	n/a	n/a	n/a	n/a	n/a	18	8	5	5	n/a	n/a	n/a	n/a	n/a
299.314	n/a	PROB	149657	n/a	LTP110	ltpFR	13	n/a	n/a	n/a	n/a	n/a	n/a	n/a	13	3	5	5	n/a	n/a	n/a	n/a	n/a
300.314	n/a	STOP	150157	n/a	LTP110	ltpFR	13	n/a	n/a	n/a	n/a	n/a	n/a	n/a	n/a	n/a	n/a	n/a	n/a	n/a	n/a	n/a	n/a
302.83	n/a	WORD	151415	wordpools/wasnorm_wordpool.txt	LTP110	ltpFR	13	1	1	VESSEL	1558	0	n/a	0	n/a	0	0	0	0.57763671875	0.412841796875	1	upper	amplitud.ttf
305.838	n/a	START	152919	n/a	LTP110	ltpFR	13	n/a	n/a	n/a	n/a	n/a	n/a	n/a	n/a	n/a	n/a	n/a	n/a	n/a	n/a	n/a	n/a
306.72	n/a	PROB	153360	n/a	LTP110	ltpFR	13	n/a	n/a	n/a	n/a	n/a	n/a	n/a	19	9	8	2	n/a	n/a	n/a	n/a	n/a
307.894	n/a	PROB	153947	n/a	LTP110	ltpFR	13	n/a	n/a	n/a	n/a	n/a	n/a	n/a	11	5	2	4	n/a	n/a	n/a	n/a	n/a
309.686	n/a	PROB	154843	n/a	LTP110	ltpFR	13	n/a	n/a	n/a	n/a	n/a	n/a	n/a	14	3	5	6	n/a	n/a	n/a	n/a	n/a
311.368	n/a	PROB	155684	n/a	LTP110	ltpFR	13	n/a	n/a	n/a	n/a	n/a	n/a	n/a	16	2	9	5	n/a	n/a	n/a	n/a	n/a
313.156	n/a	STOP	156578	n/a	LTP110	ltpFR	13	n/a	n/a	n/a	n/a	n/a	n/a	n/a	n/a	n/a	n/a	n/a	n/a	n/a	n/a	n/a	n/a
314.684	n/a	WORD	157342	wordpools/wasnorm_wordpool.txt	LTP110	ltpFR	13	1	1	REEF	1177	n/a	n/a	0	n/a	0	0	0	0.57763671875	0.412841796875	1	upper	amplitud.ttf
317.692	n/a	START	158846	n/a	LTP110	ltpFR	13	n/a	n/a	n/a	n/a	n/a	n/a	n/a	n/a	n/a	n/a	n/a	n/a	n/a	n/a	n/a	n/a
318.524	n/a	PROB	159262	n/a	LTP110	ltpFR	13	n/a	n/a	n/a	n/a	n/a	n/a	n/a	22	6	7	9	n/a	n/a	n/a	n/a	n/a
320.866	n/a	PROB	160433	n/a	LTP110	ltpFR	13	n/a	n/a	n/a	n/a	n/a	n/a	n/a	10	7	2	1	n/a	n/a	n/a	n/a	n/a
322.482	n/a	PROB	161241	n/a	LTP110	ltpFR	13	n/a	n/a	n/a	n/a	n/a	n/a	n/a	21	9	7	5	n/a	n/a	n/a	n/a	n/a
323.972	n/a	PROB	161986	n/a	LTP110	ltpFR	13	n/a	n/a	n/a	n/a	n/a	n/a	n/a	18	6	5	7	n/a	n/a	n/a	n/a	n/a
325.388	n/a	STOP	162694	n/a	LTP110	ltpFR	13	n/a	n/a	n/a	n/a	n/a	n/a	n/a	n/a	n/a	n/a	n/a	n/a	n/a	n/a	n/a	n/a
326.806	n/a	WORD	163403	wordpools/wasnorm_wordpool.txt	LTP110	ltpFR	13	1	1	ICE	730	n/a	n/a	0	n/a	0	0	0	0.57763671875	0.412841796875	1	upper	amplitud.ttf
329.812	n/a	START	164906	n/a	LTP110	ltpFR	13	n/a	n/a	n/a	n/a	n/a	n/a	n/a	n/a	n/a	n/a	n/a	n/a	n/a	n/a	n/a	n/a
330.828	n/a	PROB	165414	n/a	LTP110	ltpFR	13	n/a	n/a	n/a	n/a	n/a	n/a	n/a	22	7	9	6	n/a	n/a	n/a	n/a	n/a
333.496	n/a	PROB	166748	n/a	LTP110	ltpFR	13	n/a	n/a	n/a	n/a	n/a	n/a	n/a	11	2	7	2	n/a	n/a	n/a	n/a	n/a
335.428	n/a	PROB	167714	n/a	LTP110	ltpFR	13	n/a	n/a	n/a	n/a	n/a	n/a	n/a	19	7	9	3	n/a	n/a	n/a	n/a	n/a
337.148	n/a	STOP	168574	n/a	LTP110	ltpFR	13	n/a	n/a	n/a	n/a	n/a	n/a	n/a	n/a	n/a	n/a	n/a	n/a	n/a	n/a	n/a	n/a
338.818	n/a	WORD	169409	wordpools/wasnorm_wordpool.txt	LTP110	ltpFR	13	1	0	HANDKERCHIEF	686	n/a	n/a	0	n/a	0	0	0	0.422607421875	0.5869140625	0	lower	zerothre.ttf
341.826	n/a	START	170913	n/a	LTP110	ltpFR	13	n/a	n/a	n/a	n/a	n/a	n/a	n/a	n/a	n/a	n/a	n/a	n/a	n/a	n/a	n/a	n/a
342.668	n/a	PROB	171334	n/a	LTP110	ltpFR	13	n/a	n/a	n/a	n/a	n/a	n/a	n/a	15	4	7	4	n/a	n/a	n/a	n/a	n/a
344.634	n/a	PROB	172317	n/a	LTP110	ltpFR	13	n/a	n/a	n/a	n/a	n/a	n/a	n/a	17	9	3	5	n/a	n/a	n/a	n/a	n/a
346.216	n/a	PROB	173108	n/a	LTP110	ltpFR	13	n/a	n/a	n/a	n/a	n/a	n/a	n/a	21	7	7	7	n/a	n/a	n/a	n/a	n/a
347.4	n/a	PROB	173700	n/a	LTP110	ltpFR	13	n/a	n/a	n/a	n/a	n/a	n/a	n/a	14	2	4	8	n/a	n/a	n/a	n/a	n/a
349.228	n/a	STOP	174614	n/a	LTP110	ltpFR	13	n/a	n/a	n/a	n/a	n/a	n/a	n/a	n/a	n/a	n/a	n/a	n/a	n/a	n/a	n/a	n/a
350.748	n/a	WORD	175374	wordpools/wasnorm_wordpool.txt	LTP110	ltpFR	13	1	0	NERVE	944	n/a	n/a	0	n/a	0	0	0	0.422607421875	0.5869140625	0	lower	zerothre.ttf
353.756	n/a	START	176878	n/a	LTP110	ltpFR	13	n/a	n/a	n/a	n/a	n/a	n/a	n/a	n/a	n/a	n/a	n/a	n/a	n/a	n/a	n/a	n/a
354.622	n/a	PROB	177311	n/a	LTP110	ltpFR	13	n/a	n/a	n/a	n/a	n/a	n/a	n/a	16	6	8	2	n/a	n/a	n/a	n/a	n/a
355.672	n/a	PROB	177836	n/a	LTP110	ltpFR	13	n/a	n/a	n/a	n/a	n/a	n/a	n/a	14	2	4	8	n/a	n/a	n/a	n/a	n/a
357.038	n/a	PROB	178519	n/a	LTP110	ltpFR	13	n/a	n/a	n/a	n/a	n/a	n/a	n/a	15	4	5	6	n/a	n/a	n/a	n/a	n/a
358.662	n/a	PROB	179331	n/a	LTP110	ltpFR	13	n/a	n/a	n/a	n/a	n/a	n/a	n/a	15	6	8	1	n/a	n/a	n/a	n/a	n/a
360.414	n/a	STOP	180207	n/a	LTP110	ltpFR	13	n/a	n/a	n/a	n/a	n/a	n/a	n/a	n/a	n/a	n/a	n/a	n/a	n/a	n/a	n/a	n/a
362.72	n/a	WORD	181360	wordpools/wasnorm_wordpool.txt	LTP110	ltpFR	13	1	0	WAITRESS	1581	n/a	n/a	1	n/a	0	0	0	0.422607421875	0.5869140625	0	lower	zerothre.ttf
365.728	n/a	START	182864	n/a	LTP110	ltpFR	13	n/a	n/a	n/a	n/a	n/a	n/a	n/a	n/a	n/a	n/a	n/a	n/a	n/a	n/a	n/a	n/a
366.668	n/a	PROB	183334	n/a	LTP110	ltpFR	13	n/a	n/a	n/a	n/a	n/a	n/a	n/a	14	7	5	2	n/a	n/a	n/a	n/a	n/a
367.942	n/a	PROB	183971	n/a	LTP110	ltpFR	13	n/a	n/a	n/a	n/a	n/a	n/a	n/a	21	7	9	5	n/a	n/a	n/a	n/a	n/a
369.35	n/a	PROB	184675	n/a	LTP110	ltpFR	13	n/a	n/a	n/a	n/a	n/a	n/a	n/a	13	9	2	2	n/a	n/a	n/a	n/a	n/a
371.318	n/a	PROB	185659	n/a	LTP110	ltpFR	13	n/a	n/a	n/a	n/a	n/a	n/a	n/a	16	7	1	8	n/a	n/a	n/a	n/a	n/a
372.27	n/a	STOP	186135	n/a	LTP110	ltpFR	13	n/a	n/a	n/a	n/a	n/a	n/a	n/a	n/a	n/a	n/a	n/a	n/a	n/a	n/a	n/a	n/a
374.758	n/a	WORD	187379	wordpools/wasnorm_wordpool.txt	LTP110	ltpFR	13	1	0	EGG	518	n/a	n/a	0	n/a	0	0	0	0.422607421875	0.5869140625	0	lower	zerothre.ttf
377.766	n/a	START	188883	n/a	LTP110	ltpFR	13	n/a	n/a	n/a	n/a	n/a	n/a	n/a	n/a	n/a	n/a	n/a	n/a	n/a	n/a	n/a	n/a
378.664	n/a	PROB	189332	n/a	LTP110	ltpFR	13	n/a	n/a	n/a	n/a	n/a	n/a	n/a	20	7	9	4	n/a	n/a	n/a	n/a	n/a
381.064	n/a	PROB	190532	n/a	LTP110	ltpFR	13	n/a	n/a	n/a	n/a	n/a	n/a	n/a	19	1	9	9	n/a	n/a	n/a	n/a	n/a
383.122	n/a	PROB	191561	n/a	LTP110	ltpFR	13	n/a	n/a	n/a	n/a	n/a	n/a	n/a	9	4	2	3	n/a	n/a	n/a	n/a	n/a
385.158	n/a	STOP	192579	n/a	LTP110	ltpFR	13	n/a	n/a	n/a	n/a	n/a	n/a	n/a	n/a	n/a	n/a	n/a	n/a	n/a	n/a	n/a	n/a
386.778	n/a	WORD	193389	wordpools/wasnorm_wordpool.txt	LTP110	ltpFR	13	1	0	RIVER	1194	n/a	n/a	1	n/a	0	0	0	0.422607421875	0.5869140625	0	lower	zerothre.ttf
389.788	n/a	START	194894	n/a	LTP110	ltpFR	13	n/a	n/a	n/a	n/a	n/a	n/a	n/a	n/a	n/a	n/a	n/a	n/a	n/a	n/a	n/a	n/a
390.654	n/a	PROB	195327	n/a	LTP110	ltpFR	13	n/a	n/a	n/a	n/a	n/a	n/a	n/a	18	7	3	8	n/a	n/a	n/a	n/a	n/a
392.052	n/a	PROB	196026	n/a	LTP110	ltpFR	13	n/a	n/a	n/a	n/a	n/a	n/a	n/a	9	3	4	2	n/a	n/a	n/a	n/a	n/a
393.936	n/a	PROB	196968	n/a	LTP110	ltpFR	13	n/a	n/a	n/a	n/a	n/a	n/a	n/a	10	1	6	3	n/a	n/a	n/a	n/a	n/a
395.176	n/a	PROB	197588	n/a	LTP110	ltpFR	13	n/a	n/a	n/a	n/a	n/a	n/a	n/a	16	7	4	5	n/a	n/a	n/a	n/a	n/a
396.344	n/a	STOP	198172	n/a	LTP110	ltpFR	13	n/a	n/a	n/a	n/a	n/a	n/a	n/a	n/a	n/a	n/a	n/a	n/a	n/a	n/a	n/a	n/a
398.926	n/a	WORD	199463	wordpools/wasnorm_wordpool.txt	LTP110	ltpFR	13	1	1	COOK	372	n/a	n/a	1	n/a	0	0	0	0.57763671875	0.412841796875	1	upper	amplitud.ttf
401.934	n/a	START	200967	n/a	LTP110	ltpFR	13	n/a	n/a	n/a	n/a	n/a	n/a	n/a	n/a	n/a	n/a	n/a	n/a	n/a	n/a	n/a	n/a
402.858	n/a	PROB	201429	n/a	LTP110	ltpFR	13	n/a	n/a	n/a	n/a	n/a	n/a	n/a	13	4	3	6	n/a	n/a	n/a	n/a	n/a
404.124	n/a	PROB	202062	n/a	LTP110	ltpFR	13	n/a	n/a	n/a	n/a	n/a	n/a	n/a	19	4	8	7	n/a	n/a	n/a	n/a	n/a
407.14	n/a	PROB	203570	n/a	LTP110	ltpFR	13	n/a	n/a	n/a	n/a	n/a	n/a	n/a	15	5	6	4	n/a	n/a	n/a	n/a	n/a
408.504	n/a	STOP	204252	n/a	LTP110	ltpFR	13	n/a	n/a	n/a	n/a	n/a	n/a	n/a	n/a	n/a	n/a	n/a	n/a	n/a	n/a	n/a	n/a
410.972	n/a	WORD	205486	wordpools/wasnorm_wordpool.txt	LTP110	ltpFR	13	1	1	MEAL	882	n/a	n/a	0	n/a	0	0	0	0.57763671875	0.412841796875	1	upper	amplitud.ttf
413.98	n/a	START	206990	n/a	LTP110	ltpFR	13	n/a	n/a	n/a	n/a	n/a	n/a	n/a	n/a	n/a	n/a	n/a	n/a	n/a	n/a	n/a	n/a
414.98	n/a	PROB	207490	n/a	LTP110	ltpFR	13	n/a	n/a	n/a	n/a	n/a	n/a	n/a	18	4	8	6	n/a	n/a	n/a	n/a	n/a
416.936	n/a	PROB	208468	n/a	LTP110	ltpFR	13	n/a	n/a	n/a	n/a	n/a	n/a	n/a	18	2	7	9	n/a	n/a	n/a	n/a	n/a
418.736	n/a	PROB	209368	n/a	LTP110	ltpFR	13	n/a	n/a	n/a	n/a	n/a	n/a	n/a	17	5	7	5	n/a	n/a	n/a	n/a	n/a
421.98	n/a	STOP	210990	n/a	LTP110	ltpFR	13	n/a	n/a	n/a	n/a	n/a	n/a	n/a	n/a	n/a	n/a	n/a	n/a	n/a	n/a	n/a	n/a
423.092	n/a	WORD	211546	wordpools/wasnorm_wordpool.txt	LTP110	ltpFR	13	1	1	STRANGER	1389	n/a	n/a	1	n/a	0	0	0	0.57763671875	0.412841796875	1	upper	amplitud.ttf
426.1	n/a	START	213050	n/a	LTP110	ltpFR	13	n/a	n/a	n/a	n/a	n/a	n/a	n/a	n/a	n/a	n/a	n/a	n/a	n/a	n/a	n/a	n/a
427.042	n/a	PROB	213521	n/a	LTP110	ltpFR	13	n/a	n/a	n/a	n/a	n/a	n/a	n/a	16	3	8	5	n/a	n/a	n/a	n/a	n/a
428.408	n/a	PROB	214204	n/a	LTP110	ltpFR	13	n/a	n/a	n/a	n/a	n/a	n/a	n/a	18	9	2	7	n/a	n/a	n/a	n/a	n/a
429.692	n/a	PROB	214846	n/a	LTP110	ltpFR	13	n/a	n/a	n/a	n/a	n/a	n/a	n/a	12	7	4	1	n/a	n/a	n/a	n/a	n/a
430.832	n/a	PROB	215416	n/a	LTP110	ltpFR	13	n/a	n/a	n/a	n/a	n/a	n/a	n/a	14	2	8	4	n/a	n/a	n/a	n/a	n/a
432.032	n/a	PROB	216016	n/a	LTP110	ltpFR	13	n/a	n/a	n/a	n/a	n/a	n/a	n/a	15	5	9	1	n/a	n/a	n/a	n/a	n/a
432.914	n/a	STOP	216457	n/a	LTP110	ltpFR	13	n/a	n/a	n/a	n/a	n/a	n/a	n/a	n/a	n/a	n/a	n/a	n/a	n/a	n/a	n/a	n/a
435.248	n/a	WORD	217624	wordpools/wasnorm_wordpool.txt	LTP110	ltpFR	13	1	0	ENEMY	534	n/a	n/a	1	n/a	0	0	0	0.422607421875	0.5869140625	0	lower	zerothre.ttf
438.256	n/a	START	219128	n/a	LTP110	ltpFR	13	n/a	n/a	n/a	n/a	n/a	n/a	n/a	n/a	n/a	n/a	n/a	n/a	n/a	n/a	n/a	n/a
439.204	n/a	PROB	219602	n/a	LTP110	ltpFR	13	n/a	n/a	n/a	n/a	n/a	n/a	n/a	8	4	3	1	n/a	n/a	n/a	n/a	n/a
440.154	n/a	PROB	220077	n/a	LTP110	ltpFR	13	n/a	n/a	n/a	n/a	n/a	n/a	n/a	11	4	3	4	n/a	n/a	n/a	n/a	n/a
441.904	n/a	PROB	220952	n/a	LTP110	ltpFR	13	n/a	n/a	n/a	n/a	n/a	n/a	n/a	18	7	5	6	n/a	n/a	n/a	n/a	n/a
443.454	n/a	PROB	221727	n/a	LTP110	ltpFR	13	n/a	n/a	n/a	n/a	n/a	n/a	n/a	22	5	8	9	n/a	n/a	n/a	n/a	n/a
446.026	n/a	STOP	223013	n/a	LTP110	ltpFR	13	n/a	n/a	n/a	n/a	n/a	n/a	n/a	n/a	n/a	n/a	n/a	n/a	n/a	n/a	n/a	n/a
447.11	n/a	WORD	223555	wordpools/wasnorm_wordpool.txt	LTP110	ltpFR	13	1	0	BODY	145	n/a	n/a	1	n/a	0	0	0	0.422607421875	0.5869140625	0	lower	zerothre.ttf
450.12	n/a	START	225060	n/a	LTP110	ltpFR	13	n/a	n/a	n/a	n/a	n/a	n/a	n/a	n/a	n/a	n/a	n/a	n/a	n/a	n/a	n/a	n/a
451.194	n/a	PROB	225597	n/a	LTP110	ltpFR	13	n/a	n/a	n/a	n/a	n/a	n/a	n/a	20	6	9	5	n/a	n/a	n/a	n/a	n/a
453.176	n/a	PROB	226588	n/a	LTP110	ltpFR	13	n/a	n/a	n/a	n/a	n/a	n/a	n/a	15	1	9	5	n/a	n/a	n/a	n/a	n/a
454.484	n/a	PROB	227242	n/a	LTP110	ltpFR	13	n/a	n/a	n/a	n/a	n/a	n/a	n/a	14	9	4	1	n/a	n/a	n/a	n/a	n/a
455.392	n/a	PROB	227696	n/a	LTP110	ltpFR	13	n/a	n/a	n/a	n/a	n/a	n/a	n/a	10	2	1	7	n/a	n/a	n/a	n/a	n/a
456.474	n/a	PROB	228237	n/a	LTP110	ltpFR	13	n/a	n/a	n/a	n/a	n/a	n/a	n/a	16	6	6	4	n/a	n/a	n/a	n/a	n/a
458.018	n/a	STOP	229009	n/a	LTP110	ltpFR	13	n/a	n/a	n/a	n/a	n/a	n/a	n/a	n/a	n/a	n/a	n/a	n/a	n/a	n/a	n/a	n/a
459.324	n/a	WORD	229662	wordpools/wasnorm_wordpool.txt	LTP110	ltpFR	13	1	0	OCEAN	970	n/a	n/a	1	n/a	0	0	0	0.422607421875	0.5869140625	0	lower	zerothre.ttf
462.332	n/a	START	231166	n/a	LTP110	ltpFR	13	n/a	n/a	n/a	n/a	n/a	n/a	n/a	n/a	n/a	n/a	n/a	n/a	n/a	n/a	n/a	n/a
463.522	n/a	PROB	231761	n/a	LTP110	ltpFR	13	n/a	n/a	n/a	n/a	n/a	n/a	n/a	10	1	5	4	n/a	n/a	n/a	n/a	n/a
464.522	n/a	PROB	232261	n/a	LTP110	ltpFR	13	n/a	n/a	n/a	n/a	n/a	n/a	n/a	9	6	1	2	n/a	n/a	n/a	n/a	n/a
465.472	n/a	PROB	232736	n/a	LTP110	ltpFR	13	n/a	n/a	n/a	n/a	n/a	n/a	n/a	16	4	3	9	n/a	n/a	n/a	n/a	n/a
467.08	n/a	PROB	233540	n/a	LTP110	ltpFR	13	n/a	n/a	n/a	n/a	n/a	n/a	n/a	10	3	5	2	n/a	n/a	n/a	n/a	n/a
469.116	n/a	STOP	234558	n/a	LTP110	ltpFR	13	n/a	n/a	n/a	n/a	n/a	n/a	n/a	n/a	n/a	n/a	n/a	n/a	n/a	n/a	n/a	n/a
471.27	n/a	WORD	235635	wordpools/wasnorm_wordpool.txt	LTP110	ltpFR	13	1	1	FRAME	600	n/a	n/a	0	n/a	0	0	0	0.57763671875	0.412841796875	1	upper	amplitud.ttf
474.278	n/a	START	237139	n/a	LTP110	ltpFR	13	n/a	n/a	n/a	n/a	n/a	n/a	n/a	n/a	n/a	n/a	n/a	n/a	n/a	n/a	n/a	n/a
475.294	n/a	PROB	237647	n/a	LTP110	ltpFR	13	n/a	n/a	n/a	n/a	n/a	n/a	n/a	15	5	5	5	n/a	n/a	n/a	n/a	n/a
476.318	n/a	PROB	238159	n/a	LTP110	ltpFR	13	n/a	n/a	n/a	n/a	n/a	n/a	n/a	23	7	8	8	n/a	n/a	n/a	n/a	n/a
478.102	n/a	PROB	239051	n/a	LTP110	ltpFR	13	n/a	n/a	n/a	n/a	n/a	n/a	n/a	14	8	1	5	n/a	n/a	n/a	n/a	n/a
482.278	n/a	STOP	241139	n/a	LTP110	ltpFR	13	n/a	n/a	n/a	n/a	n/a	n/a	n/a	n/a	n/a	n/a	n/a	n/a	n/a	n/a	n/a	n/a
483.316	n/a	WORD	241658	wordpools/wasnorm_wordpool.txt	LTP110	ltpFR	13	1	1	HIP	710	n/a	n/a	0	n/a	0	0	0	0.57763671875	0.412841796875	1	upper	amplitud.ttf
486.324	n/a	START	243162	n/a	LTP110	ltpFR	13	n/a	n/a	n/a	n/a	n/a	n/a	n/a	n/a	n/a	n/a	n/a	n/a	n/a	n/a	n/a	n/a
487.324	n/a	PROB	243662	n/a	LTP110	ltpFR	13	n/a	n/a	n/a	n/a	n/a	n/a	n/a	10	2	4	4	n/a	n/a	n/a	n/a	n/a
488.806	n/a	PROB	244403	n/a	LTP110	ltpFR	13	n/a	n/a	n/a	n/a	n/a	n/a	n/a	11	4	1	6	n/a	n/a	n/a	n/a	n/a
489.874	n/a	PROB	244937	n/a	LTP110	ltpFR	13	n/a	n/a	n/a	n/a	n/a	n/a	n/a	12	4	7	1	n/a	n/a	n/a	n/a	n/a
490.948	n/a	PROB	245474	n/a	LTP110	ltpFR	13	n/a	n/a	n/a	n/a	n/a	n/a	n/a	15	6	2	7	n/a	n/a	n/a	n/a	n/a
494.316	n/a	STOP	247158	n/a	LTP110	ltpFR	13	n/a	n/a	n/a	n/a	n/a	n/a	n/a	n/a	n/a	n/a	n/a	n/a	n/a	n/a	n/a	n/a
496.214	n/a	REC_START	248107	n/a	LTP110	ltpFR	13	1	n/a	n/a	n/a	n/a	n/a	n/a	n/a	0	0	0	n/a	n/a	n/a	n/a	n/a
498.592	n/a	REC_WORD	249296	wordpools/wasnorm_wordpool.txt	LTP110	ltpFR	13	1	1	VESSEL	1558	n/a	n/a	0	n/a	0	0	0	n/a	n/a	n/a	n/a	n/a
499.466	n/a	REC_WORD	249733	wordpools/wasnorm_wordpool.txt	LTP110	ltpFR	13	1	1	ICE	730	n/a	n/a	0	n/a	0	0	0	n/a	n/a	n/a	n/a	n/a
500.498	n/a	REC_WORD	250249	wordpools/wasnorm_wordpool.txt	LTP110	ltpFR	13	1	1	REEF	1177	n/a	n/a	0	n/a	0	0	0	n/a	n/a	n/a	n/a	n/a
501.83	n/a	REC_WORD	250915	wordpools/wasnorm_wordpool.txt	LTP110	ltpFR	13	1	0	HANDKERCHIEF	686	n/a	n/a	0	n/a	0	0	0	n/a	n/a	n/a	n/a	n/a
503.032	n/a	REC_WORD	251516	wordpools/wasnorm_wordpool.txt	LTP110	ltpFR	13	1	0	NERVE	944	n/a	n/a	0	n/a	0	0	0	n/a	n/a	n/a	n/a	n/a
504.68	n/a	REC_WORD	252340	wordpools/wasnorm_wordpool.txt	LTP110	ltpFR	13	1	0	WAITRESS	1581	n/a	n/a	1	n/a	0	0	0	n/a	n/a	n/a	n/a	n/a
507.224	n/a	REC_WORD	253612	wordpools/wasnorm_wordpool.txt	LTP110	ltpFR	13	1	0	EGG	518	n/a	n/a	0	n/a	0	0	0	n/a	n/a	n/a	n/a	n/a
508.422	n/a	REC_WORD	254211	wordpools/wasnorm_wordpool.txt	LTP110	ltpFR	13	1	1	COOK	372	n/a	n/a	1	n/a	0	0	0	n/a	n/a	n/a	n/a	n/a
510.168	n/a	REC_WORD	255084	wordpools/wasnorm_wordpool.txt	LTP110	ltpFR	13	1	0	BODY	145	n/a	n/a	1	n/a	0	0	0	n/a	n/a	n/a	n/a	n/a
511.0	n/a	REC_WORD	255500	wordpools/wasnorm_wordpool.txt	LTP110	ltpFR	13	1	1	HIP	710	n/a	n/a	0	n/a	0	0	0	n/a	n/a	n/a	n/a	n/a
512.348	n/a	REC_WORD	256174	wordpools/wasnorm_wordpool.txt	LTP110	ltpFR	13	1	1	STRANGER	1389	n/a	n/a	1	n/a	0	0	0	n/a	n/a	n/a	n/a	n/a
513.506	n/a	REC_WORD	256753	wordpools/wasnorm_wordpool.txt	LTP110	ltpFR	13	1	n/a	TRAITOR	1495	n/a	n/a	n/a	n/a	0	0	0	n/a	n/a	n/a	n/a	n/a
517.342	n/a	REC_WORD	258671	wordpools/wasnorm_wordpool.txt	LTP110	ltpFR	13	1	1	MEAL	882	n/a	n/a	0	n/a	0	0	0	n/a	n/a	n/a	n/a	n/a
553.116	n/a	REC_WORD	276558	wordpools/wasnorm_wordpool.txt	LTP110	ltpFR	13	1	0	RIVER	1194	n/a	n/a	1	n/a	0	0	0	n/a	n/a	n/a	n/a	n/a
575.106	n/a	WORD	287553	wordpools/wasnorm_wordpool.txt	LTP110	ltpFR	13	2	0	HARP	689	n/a	n/a	2	n/a	0	0	0	0.422607421875	0.5869140625	0	lower	zerothre.ttf
576.172	n/a	KEY_MSG	288086	n/a	LTP110	ltpFR	13	2	n/a	n/a	n/a	n/a	n/a	n/a	n/a	0	0	0	n/a	n/a	n/a	n/a	n/a
578.988	n/a	WORD	289494	wordpools/wasnorm_wordpool.txt	LTP110	ltpFR	13	2	0	OX	994	n/a	n/a	1	n/a	0	0	0	0.422607421875	0.5869140625	0	lower	zerothre.ttf
583.104	n/a	WORD	291552	wordpools/wasnorm_wordpool.txt	LTP110	ltpFR	13	2	1	SAXOPHONE	1240	n/a	n/a	0	n/a	0	0	0	0.57763671875	0.412841796875	1	upper	amplitud.ttf
587.218	n/a	WORD	293609	wordpools/wasnorm_wordpool.txt	LTP110	ltpFR	13	2	1	RADIO	1157	n/a	n/a	0	n/a	0	0	0	0.57763671875	0.412841796875	1	upper	amplitud.ttf
591.3	n/a	WORD	295650	wordpools/wasnorm_wordpool.txt	LTP110	ltpFR	13	2	1	TUBA	1515	n/a	n/a	0	n/a	0	0	0	0.57763671875	0.412841796875	1	upper	amplitud.ttf
595.432	n/a	WORD	297716	wordpools/wasnorm_wordpool.txt	LTP110	ltpFR	13	2	1	RABBIT	1152	n/a	n/a	1	n/a	0	0	0	0.57763671875	0.412841796875	1	upper	amplitud.ttf
599.548	n/a	WORD	299774	wordpools/wasnorm_wordpool.txt	LTP110	ltpFR	13	2	0	AIRCRAFT	11	n/a	n/a	1	n/a	0	0	0	0.422607421875	0.5869140625	0	lower	zerothre.ttf
603.438	n/a	WORD	301719	wordpools/wasnorm_wordpool.txt	LTP110	ltpFR	13	2	0	PARSLEY	1016	n/a	n/a	0	n/a	0	0	0	0.422607421875	0.5869140625	0	lower	zerothre.ttf
607.27	n/a	WORD	303635	wordpools/wasnorm_wordpool.txt	LTP110	ltpFR	13	2	1	RACCOON	1153	n/a	n/a	1	n/a	0	0	0	0.57763671875	0.412841796875	1	upper	amplitud.ttf
611.362	n/a	WORD	305681	wordpools/wasnorm_wordpool.txt	LTP110	ltpFR	13	2	1	FARMER	553	n/a	n/a	1	n/a	0	0	0	0.57763671875	0.412841796875	1	upper	amplitud.ttf
615.326	n/a	WORD	307663	wordpools/wasnorm_wordpool.txt	LTP110	ltpFR	13	2	1	SCAPEGOAT	1244	n/a	n/a	1	n/a	0	0	0	0.57763671875	0.412841796875	1	upper	amplitud.ttf
619.274	n/a	WORD	309637	wordpools/wasnorm_wordpool.txt	LTP110	ltpFR	13	2	1	COURT	391	n/a	n/a	0	n/a	0	0	0	0.57763671875	0.412841796875	1	upper	amplitud.ttf
623.174	n/a	WORD	311587	wordpools/wasnorm_wordpool.txt	LTP110	ltpFR	13	2	0	TURTLE	1522	n/a	n/a	0	n/a	0	0	0	0.422607421875	0.5869140625	0	lower	zerothre.ttf
627.156	n/a	WORD	313578	wordpools/wasnorm_wordpool.txt	LTP110	ltpFR	13	2	0	TREAD	1499	n/a	n/a	1	n/a	0	0	0	0.422607421875	0.5869140625	0	lower	zerothre.ttf
631.346	n/a	WORD	315673	wordpools/wasnorm_wordpool.txt	LTP110	ltpFR	13	2	0	CREEK	404	n/a	n/a	1	n/a	0	0	0	0.422607421875	0.5869140625	0	lower	zerothre.ttf
635.212	n/a	WORD	317606	wordpools/wasnorm_wordpool.txt	LTP110	ltpFR	13	2	0	GOLD	647	n/a	n/a	0	n/a	0	0	0	0.422607421875	0.5869140625	0	lower	zerothre.ttf
638.22	n/a	START	319110	n/a	LTP110	ltpFR	13	n/a	n/a	n/a	n/a	n/a	n/a	n/a	n/a	n/a	n/a	n/a	n/a	n/a	n/a	n/a	n/a
639.294	n/a	PROB	319647	n/a	LTP110	ltpFR	13	n/a	n/a	n/a	n/a	n/a	n/a	n/a	25	8	9	8	n/a	n/a	n/a	n/a	n/a
640.994	n/a	PROB	320497	n/a	LTP110	ltpFR	13	n/a	n/a	n/a	n/a	n/a	n/a	n/a	9	1	6	2	n/a	n/a	n/a	n/a	n/a
642.052	n/a	PROB	321026	n/a	LTP110	ltpFR	13	n/a	n/a	n/a	n/a	n/a	n/a	n/a	11	6	1	4	n/a	n/a	n/a	n/a	n/a
642.994	n/a	PROB	321497	n/a	LTP110	ltpFR	13	n/a	n/a	n/a	n/a	n/a	n/a	n/a	19	6	6	7	n/a	n/a	n/a	n/a	n/a
644.51	n/a	PROB	322255	n/a	LTP110	ltpFR	13	n/a	n/a	n/a	n/a	n/a	n/a	n/a	11	6	2	3	n/a	n/a	n/a	n/a	n/a
645.604	n/a	STOP	322802	n/a	LTP110	ltpFR	13	n/a	n/a	n/a	n/a	n/a	n/a	n/a	n/a	n/a	n/a	n/a	n/a	n/a	n/a	n/a	n/a
648.0	n/a	REC_START	324000	n/a	LTP110	ltpFR	13	2	n/a	n/a	n/a	n/a	n/a	n/a	n/a	0	0	0	n/a	n/a	n/a	n/a	n/a
649.342	n/a	REC_WORD	324671	wordpools/wasnorm_wordpool.txt	LTP110	ltpFR	13	2	0	TREAD	1499	n/a	n/a	1	n/a	0	0	0	n/a	n/a	n/a	n/a	n/a
650.306	n/a	REC_WORD	325153	wordpools/wasnorm_wordpool.txt	LTP110	ltpFR	13	2	0	CREEK	404	n/a	n/a	1	n/a	0	0	0	n/a	n/a	n/a	n/a	n/a
651.322	n/a	REC_WORD	325661	wordpools/wasnorm_wordpool.txt	LTP110	ltpFR	13	2	0	GOLD	647	n/a	n/a	0	n/a	0	0	0	n/a	n/a	n/a	n/a	n/a
652.49	n/a	REC_WORD	326245	wordpools/wasnorm_wordpool.txt	LTP110	ltpFR	13	2	1	FARMER	553	n/a	n/a	1	n/a	0	0	0	n/a	n/a	n/a	n/a	n/a
653.512	n/a	REC_WORD	326756	wordpools/wasnorm_wordpool.txt	LTP110	ltpFR	13	2	0	OX	994	n/a	n/a	1	n/a	0	0	0	n/a	n/a	n/a	n/a	n/a
654.964	n/a	REC_WORD	327482	wordpools/wasnorm_wordpool.txt	LTP110	ltpFR	13	2	1	TUBA	1515	n/a	n/a	0	n/a	0	0	0	n/a	n/a	n/a	n/a	n/a
658.786	n/a	REC_WORD	329393	wordpools/wasnorm_wordpool.txt	LTP110	ltpFR	13	2	0	HARP	689	n/a	n/a	2	n/a	0	0	0	n/a	n/a	n/a	n/a	n/a
664.468	n/a	REC_WORD	332234	wordpools/wasnorm_wordpool.txt	LTP110	ltpFR	13	2	1	RABBIT	1152	n/a	n/a	1	n/a	0	0	0	n/a	n/a	n/a	n/a	n/a
665.94	n/a	REC_WORD	332970	wordpools/wasnorm_wordpool.txt	LTP110	ltpFR	13	2	1	RADIO	1157	n/a	n/a	0	n/a	0	0	0	n/a	n/a	n/a	n/a	n/a
682.164	n/a	REC_WORD	341082	wordpools/wasnorm_wordpool.txt	LTP110	ltpFR	13	2	0	GOLD	647	n/a	n/a	0	n/a	0	0	0	n/a	n/a	n/a	n/a	n/a
685.676	n/a	REC_WORD	342838	wordpools/wasnorm_wordpool.txt	LTP110	ltpFR	13	2	0	CREEK	404	n/a	n/a	1	n/a	0	0	0	n/a	n/a	n/a	n/a	n/a
691.918	n/a	REC_WORD	345959	wordpools/wasnorm_wordpool.txt	LTP110	ltpFR	13	2	1	COURT	391	n/a	n/a	0	n/a	0	0	0	n/a	n/a	n/a	n/a	n/a
695.998	n/a	REC_WORD	347999	wordpools/wasnorm_wordpool.txt	LTP110	ltpFR	13	2	1	SCAPEGOAT	1244	n/a	n/a	1	n/a	0	0	0	n/a	n/a	n/a	n/a	n/a
703.932	n/a	REC_WORD	351966	wordpools/wasnorm_wordpool.txt	LTP110	ltpFR	13	2	1	RACCOON	1153	n/a	n/a	1	n/a	0	0	0	n/a	n/a	n/a	n/a	n/a
727.126	n/a	WORD	363563	wordpools/wasnorm_wordpool.txt	LTP110	ltpFR	13	3	0	CARNIVAL	245	n/a	n/a	1	n/a	0	0	0	0.422607421875	0.5869140625	0	lower	zerothre.ttf
730.974	n/a	WORD	365487	wordpools/wasnorm_wordpool.txt	LTP110	ltpFR	13	3	0	BEAST	108	n/a	n/a	1	n/a	0	0	0	0.422607421875	0.5869140625	0	lower	zerothre.ttf
735.014	n/a	WORD	367507	wordpools/wasnorm_wordpool.txt	LTP110	ltpFR	13	3	0	VEST	1559	n/a	n/a	0	n/a	0	0	0	0.422607421875	0.5869140625	0	lower	zerothre.ttf
738.99	n/a	WORD	369495	wordpools/wasnorm_wordpool.txt	LTP110	ltpFR	13	3	0	CEREAL	272	n/a	n/a	0	n/a	0	0	0	0.422607421875	0.5869140625	0	lower	zerothre.ttf
742.838	n/a	WORD	371419	wordpools/wasnorm_wordpool.txt	LTP110	ltpFR	13	3	0	MERMAID	887	n/a	n/a	1	n/a	0	0	0	0.422607421875	0.5869140625	0	lower	zerothre.ttf
746.928	n/a	WORD	373464	wordpools/wasnorm_wordpool.txt	LTP110	ltpFR	13	3	0	ADOLESCENT	7	n/a	n/a	1	n/a	0	0	0	0.422607421875	0.5869140625	0	lower	zerothre.ttf
751.126	n/a	WORD	375563	wordpools/wasnorm_wordpool.txt	LTP110	ltpFR	13	3	0	STEAM	1375	n/a	n/a	0	n/a	0	0	0	0.422607421875	0.5869140625	0	lower	zerothre.ttf
754.992	n/a	WORD	377496	wordpools/wasnorm_wordpool.txt	LTP110	ltpFR	13	3	0	PAIL	1002	n/a	n/a	0	n/a	0	0	0	0.422607421875	0.5869140625	0	lower	zerothre.ttf
758.992	n/a	WORD	379496	wordpools/wasnorm_wordpool.txt	LTP110	ltpFR	13	3	0	FIG	563	n/a	n/a	0	n/a	0	0	0	0.422607421875	0.5869140625	0	lower	zerothre.ttf
762.908	n/a	WORD	381454	wordpools/wasnorm_wordpool.txt	LTP110	ltpFR	13	3	0	TOMATO	1476	n/a	n/a	0	n/a	0	0	0	0.422607421875	0.5869140625	0	lower	zerothre.ttf
766.822	n/a	WORD	383411	wordpools/wasnorm_wordpool.txt	LTP110	ltpFR	13	3	0	PISTON	1076	n/a	n/a	1	n/a	0	0	0	0.422607421875	0.5869140625	0	lower	zerothre.ttf
770.88	n/a	WORD	385440	wordpools/wasnorm_wordpool.txt	LTP110	ltpFR	13	3	0	DRIVEWAY	500	n/a	n/a	1	n/a	0	0	0	0.422607421875	0.5869140625	0	lower	zerothre.ttf
775.078	n/a	WORD	387539	wordpools/wasnorm_wordpool.txt	LTP110	ltpFR	13	3	0	GIRAFFE	636	n/a	n/a	1	n/a	0	0	0	0.422607421875	0.5869140625	0	lower	zerothre.ttf
779.268	n/a	WORD	389634	wordpools/wasnorm_wordpool.txt	LTP110	ltpFR	13	3	0	BAY	102	n/a	n/a	1	n/a	0	0	0	0.422607421875	0.5869140625	0	lower	zerothre.ttf
783.334	n/a	WORD	391667	wordpools/wasnorm_wordpool.txt	LTP110	ltpFR	13	3	0	DELINQUENT	445	n/a	n/a	1	n/a	0	0	0	0.422607421875	0.5869140625	0	lower	zerothre.ttf
787.3	n/a	WORD	393650	wordpools/wasnorm_wordpool.txt	LTP110	ltpFR	13	3	0	PARTY	1018	n/a	n/a	1	n/a	0	0	0	0.422607421875	0.5869140625	0	lower	zerothre.ttf
790.306	n/a	START	395153	n/a	LTP110	ltpFR	13	n/a	n/a	n/a	n/a	n/a	n/a	n/a	n/a	n/a	n/a	n/a	n/a	n/a	n/a	n/a	n/a
791.372	n/a	PROB	395686	n/a	LTP110	ltpFR	13	n/a	n/a	n/a	n/a	n/a	n/a	n/a	12	1	4	7	n/a	n/a	n/a	n/a	n/a
792.43	n/a	PROB	396215	n/a	LTP110	ltpFR	13	n/a	n/a	n/a	n/a	n/a	n/a	n/a	13	1	3	9	n/a	n/a	n/a	n/a	n/a
793.672	n/a	PROB	396836	n/a	LTP110	ltpFR	13	n/a	n/a	n/a	n/a	n/a	n/a	n/a	14	1	9	4	n/a	n/a	n/a	n/a	n/a
794.646	n/a	PROB	397323	n/a	LTP110	ltpFR	13	n/a	n/a	n/a	n/a	n/a	n/a	n/a	14	9	3	2	n/a	n/a	n/a	n/a	n/a
795.98	n/a	PROB	397990	n/a	LTP110	ltpFR	13	n/a	n/a	n/a	n/a	n/a	n/a	n/a	20	8	6	6	n/a	n/a	n/a	n/a	n/a
797.606	n/a	PROB	398803	n/a	LTP110	ltpFR	13	n/a	n/a	n/a	n/a	n/a	n/a	n/a	18	4	5	9	n/a	n/a	n/a	n/a	n/a
799.022	n/a	PROB	399511	n/a	LTP110	ltpFR	13	n/a	n/a	n/a	n/a	n/a	n/a	n/a	17	3	5	9	n/a	n/a	n/a	n/a	n/a
800.53	n/a	PROB	400265	n/a	LTP110	ltpFR	13	n/a	n/a	n/a	n/a	n/a	n/a	n/a	9	6	1	2	n/a	n/a	n/a	n/a	n/a
801.678	n/a	PROB	400839	n/a	LTP110	ltpFR	13	n/a	n/a	n/a	n/a	n/a	n/a	n/a	11	6	2	3	n/a	n/a	n/a	n/a	n/a
802.828	n/a	PROB	401414	n/a	LTP110	ltpFR	13	n/a	n/a	n/a	n/a	n/a	n/a	n/a	10	4	5	1	n/a	n/a	n/a	n/a	n/a
806.308	n/a	STOP	403154	n/a	LTP110	ltpFR	13	n/a	n/a	n/a	n/a	n/a	n/a	n/a	n/a	n/a	n/a	n/a	n/a	n/a	n/a	n/a	n/a
808.06	n/a	REC_START	404030	n/a	LTP110	ltpFR	13	3	n/a	n/a	n/a	n/a	n/a	n/a	n/a	0	0	0	n/a	n/a	n/a	n/a	n/a
809.348	n/a	REC_WORD	404674	wordpools/wasnorm_wordpool.txt	LTP110	ltpFR	13	3	0	CARNIVAL	245	n/a	n/a	1	n/a	0	0	0	n/a	n/a	n/a	n/a	n/a
811.538	n/a	REC_WORD	405769	wordpools/wasnorm_wordpool.txt	LTP110	ltpFR	13	3	0	BEAST	108	n/a	n/a	1	n/a	0	0	0	n/a	n/a	n/a	n/a	n/a
812.22	n/a	REC_WORD	406110	wordpools/wasnorm_wordpool.txt	LTP110	ltpFR	13	3	0	VEST	1559	n/a	n/a	0	n/a	0	0	0	n/a	n/a	n/a	n/a	n/a
813.642	n/a	REC_WORD	406821	wordpools/wasnorm_wordpool.txt	LTP110	ltpFR	13	3	0	CEREAL	272	n/a	n/a	0	n/a	0	0	0	n/a	n/a	n/a	n/a	n/a
815.414	n/a	REC_WORD	407707	wordpools/wasnorm_wordpool.txt	LTP110	ltpFR	13	3	0	MERMAID	887	n/a	n/a	1	n/a	0	0	0	n/a	n/a	n/a	n/a	n/a
816.332	n/a	REC_WORD	408166	wordpools/wasnorm_wordpool.txt	LTP110	ltpFR	13	3	0	ADOLESCENT	7	n/a	n/a	1	n/a	0	0	0	n/a	n/a	n/a	n/a	n/a
817.65	n/a	REC_WORD	408825	wordpools/wasnorm_wordpool.txt	LTP110	ltpFR	13	3	0	DELINQUENT	445	n/a	n/a	1	n/a	0	0	0	n/a	n/a	n/a	n/a	n/a
819.172	n/a	REC_WORD	409586	wordpools/wasnorm_wordpool.txt	LTP110	ltpFR	13	3	0	PAIL	1002	n/a	n/a	0	n/a	0	0	0	n/a	n/a	n/a	n/a	n/a
819.72	n/a	REC_WORD	409860	wordpools/wasnorm_wordpool.txt	LTP110	ltpFR	13	3	0	STEAM	1375	n/a	n/a	0	n/a	0	0	0	n/a	n/a	n/a	n/a	n/a
820.558	n/a	REC_WORD	410279	wordpools/wasnorm_wordpool.txt	LTP110	ltpFR	13	3	0	FIG	563	n/a	n/a	0	n/a	0	0	0	n/a	n/a	n/a	n/a	n/a
821.236	n/a	REC_WORD	410618	wordpools/wasnorm_wordpool.txt	LTP110	ltpFR	13	3	0	TOMATO	1476	n/a	n/a	0	n/a	0	0	0	n/a	n/a	n/a	n/a	n/a
823.118	n/a	REC_WORD	411559	wordpools/wasnorm_wordpool.txt	LTP110	ltpFR	13	3	0	PISTON	1076	n/a	n/a	1	n/a	0	0	0	n/a	n/a	n/a	n/a	n/a
824.978	n/a	REC_WORD	412489	wordpools/wasnorm_wordpool.txt	LTP110	ltpFR	13	3	0	GIRAFFE	636	n/a	n/a	1	n/a	0	0	0	n/a	n/a	n/a	n/a	n/a
826.04	n/a	REC_WORD	413020	wordpools/wasnorm_wordpool.txt	LTP110	ltpFR	13	3	0	DRIVEWAY	500	n/a	n/a	1	n/a	0	0	0	n/a	n/a	n/a	n/a	n/a
828.14	n/a	REC_WORD	414070	wordpools/wasnorm_wordpool.txt	LTP110	ltpFR	13	3	0	BAY	102	n/a	n/a	1	n/a	0	0	0	n/a	n/a	n/a	n/a	n/a
831.662	n/a	REC_WORD	415831	wordpools/wasnorm_wordpool.txt	LTP110	ltpFR	13	3	0	PARTY	1018	n/a	n/a	1	n/a	0	0	0	n/a	n/a	n/a	n/a	n/a
885.712	n/a	START	442856	n/a	LTP110	ltpFR	13	n/a	n/a	n/a	n/a	n/a	n/a	n/a	n/a	n/a	n/a	n/a	n/a	n/a	n/a	n/a	n/a
887.218	n/a	PROB	443609	n/a	LTP110	ltpFR	13	n/a	n/a	n/a	n/a	n/a	n/a	n/a	12	2	8	2	n/a	n/a	n/a	n/a	n/a
888.268	n/a	PROB	444134	n/a	LTP110	ltpFR	13	n/a	n/a	n/a	n/a	n/a	n/a	n/a	15	4	4	7	n/a	n/a	n/a	n/a	n/a
890.326	n/a	PROB	445163	n/a	LTP110	ltpFR	13	n/a	n/a	n/a	n/a	n/a	n/a	n/a	21	5	8	8	n/a	n/a	n/a	n/a	n/a
893.712	n/a	STOP	446856	n/a	LTP110	ltpFR	13	n/a	n/a	n/a	n/a	n/a	n/a	n/a	n/a	n/a	n/a	n/a	n/a	n/a	n/a	n/a	n/a
894.884	n/a	WORD	447442	wordpools/wasnorm_wordpool.txt	LTP110	ltpFR	13	4	1	MAGAZINE	853	n/a	n/a	0	n/a	0	0	0	0.57763671875	0.412841796875	1	upper	amplitud.ttf
897.892	n/a	START	448946	n/a	LTP110	ltpFR	13	n/a	n/a	n/a	n/a	n/a	n/a	n/a	n/a	n/a	n/a	n/a	n/a	n/a	n/a	n/a	n/a
899.082	n/a	PROB	449541	n/a	LTP110	ltpFR	13	n/a	n/a	n/a	n/a	n/a	n/a	n/a	15	8	6	1	n/a	n/a	n/a	n/a	n/a
900.09	n/a	PROB	450045	n/a	LTP110	ltpFR	13	n/a	n/a	n/a	n/a	n/a	n/a	n/a	17	9	4	4	n/a	n/a	n/a	n/a	n/a
901.674	n/a	PROB	450837	n/a	LTP110	ltpFR	13	n/a	n/a	n/a	n/a	n/a	n/a	n/a	13	1	4	8	n/a	n/a	n/a	n/a	n/a
903.198	n/a	PROB	451599	n/a	LTP110	ltpFR	13	n/a	n/a	n/a	n/a	n/a	n/a	n/a	15	3	4	8	n/a	n/a	n/a	n/a	n/a
904.914	n/a	STOP	452457	n/a	LTP110	ltpFR	13	n/a	n/a	n/a	n/a	n/a	n/a	n/a	n/a	n/a	n/a	n/a	n/a	n/a	n/a	n/a	n/a
907.088	n/a	WORD	453544	wordpools/wasnorm_wordpool.txt	LTP110	ltpFR	13	4	1	GARAGE	621	n/a	n/a	0	n/a	0	0	0	0.57763671875	0.412841796875	1	upper	amplitud.ttf
910.096	n/a	START	455048	n/a	LTP110	ltpFR	13	n/a	n/a	n/a	n/a	n/a	n/a	n/a	n/a	n/a	n/a	n/a	n/a	n/a	n/a	n/a	n/a
911.07	n/a	PROB	455535	n/a	LTP110	ltpFR	13	n/a	n/a	n/a	n/a	n/a	n/a	n/a	8	1	2	5	n/a	n/a	n/a	n/a	n/a
912.088	n/a	PROB	456044	n/a	LTP110	ltpFR	13	n/a	n/a	n/a	n/a	n/a	n/a	n/a	14	8	3	3	n/a	n/a	n/a	n/a	n/a
913.854	n/a	PROB	456927	n/a	LTP110	ltpFR	13	n/a	n/a	n/a	n/a	n/a	n/a	n/a	16	8	4	4	n/a	n/a	n/a	n/a	n/a
915.452	n/a	PROB	457726	n/a	LTP110	ltpFR	13	n/a	n/a	n/a	n/a	n/a	n/a	n/a	13	3	4	6	n/a	n/a	n/a	n/a	n/a
917.29	n/a	STOP	458645	n/a	LTP110	ltpFR	13	n/a	n/a	n/a	n/a	n/a	n/a	n/a	n/a	n/a	n/a	n/a	n/a	n/a	n/a	n/a	n/a
919.176	n/a	WORD	459588	wordpools/wasnorm_wordpool.txt	LTP110	ltpFR	13	4	0	CHAMBER	277	n/a	n/a	1	n/a	0	0	0	0.422607421875	0.5869140625	0	lower	zerothre.ttf
922.184	n/a	START	461092	n/a	LTP110	ltpFR	13	n/a	n/a	n/a	n/a	n/a	n/a	n/a	n/a	n/a	n/a	n/a	n/a	n/a	n/a	n/a	n/a
923.2	n/a	PROB	461600	n/a	LTP110	ltpFR	13	n/a	n/a	n/a	n/a	n/a	n/a	n/a	18	6	9	3	n/a	n/a	n/a	n/a	n/a
925.982	n/a	PROB	462991	n/a	LTP110	ltpFR	13	n/a	n/a	n/a	n/a	n/a	n/a	n/a	15	3	5	7	n/a	n/a	n/a	n/a	n/a
927.624	n/a	PROB	463812	n/a	LTP110	ltpFR	13	n/a	n/a	n/a	n/a	n/a	n/a	n/a	13	1	5	7	n/a	n/a	n/a	n/a	n/a
929.546	n/a	STOP	464773	n/a	LTP110	ltpFR	13	n/a	n/a	n/a	n/a	n/a	n/a	n/a	n/a	n/a	n/a	n/a	n/a	n/a	n/a	n/a	n/a
931.272	n/a	WORD	465636	wordpools/wasnorm_wordpool.txt	LTP110	ltpFR	13	4	0	GUARDIAN	668	n/a	n/a	1	n/a	0	0	0	0.422607421875	0.5869140625	0	lower	zerothre.ttf
934.28	n/a	START	467140	n/a	LTP110	ltpFR	13	n/a	n/a	n/a	n/a	n/a	n/a	n/a	n/a	n/a	n/a	n/a	n/a	n/a	n/a	n/a	n/a
935.296	n/a	PROB	467648	n/a	LTP110	ltpFR	13	n/a	n/a	n/a	n/a	n/a	n/a	n/a	14	1	9	4	n/a	n/a	n/a	n/a	n/a
936.28	n/a	PROB	468140	n/a	LTP110	ltpFR	13	n/a	n/a	n/a	n/a	n/a	n/a	n/a	18	9	8	1	n/a	n/a	n/a	n/a	n/a
937.27	n/a	PROB	468635	n/a	LTP110	ltpFR	13	n/a	n/a	n/a	n/a	n/a	n/a	n/a	12	6	5	1	n/a	n/a	n/a	n/a	n/a
938.346	n/a	PROB	469173	n/a	LTP110	ltpFR	13	n/a	n/a	n/a	n/a	n/a	n/a	n/a	17	9	3	5	n/a	n/a	n/a	n/a	n/a
939.546	n/a	PROB	469773	n/a	LTP110	ltpFR	13	n/a	n/a	n/a	n/a	n/a	n/a	n/a	19	8	9	2	n/a	n/a	n/a	n/a	n/a
941.004	n/a	STOP	470502	n/a	LTP110	ltpFR	13	n/a	n/a	n/a	n/a	n/a	n/a	n/a	n/a	n/a	n/a	n/a	n/a	n/a	n/a	n/a	n/a
943.302	n/a	WORD	471651	wordpools/wasnorm_wordpool.txt	LTP110	ltpFR	13	4	0	ANGEL	22	n/a	n/a	1	n/a	0	0	0	0.422607421875	0.5869140625	0	lower	zerothre.ttf
946.31	n/a	START	473155	n/a	LTP110	ltpFR	13	n/a	n/a	n/a	n/a	n/a	n/a	n/a	n/a	n/a	n/a	n/a	n/a	n/a	n/a	n/a	n/a
947.168	n/a	PROB	473584	n/a	LTP110	ltpFR	13	n/a	n/a	n/a	n/a	n/a	n/a	n/a	17	3	5	9	n/a	n/a	n/a	n/a	n/a
948.342	n/a	PROB	474171	n/a	LTP110	ltpFR	13	n/a	n/a	n/a	n/a	n/a	n/a	n/a	24	9	9	6	n/a	n/a	n/a	n/a	n/a
950.608	n/a	PROB	475304	n/a	LTP110	ltpFR	13	n/a	n/a	n/a	n/a	n/a	n/a	n/a	18	5	8	5	n/a	n/a	n/a	n/a	n/a
953.724	n/a	STOP	476862	n/a	LTP110	ltpFR	13	n/a	n/a	n/a	n/a	n/a	n/a	n/a	n/a	n/a	n/a	n/a	n/a	n/a	n/a	n/a	n/a
955.182	n/a	WORD	477591	wordpools/wasnorm_wordpool.txt	LTP110	ltpFR	13	4	0	FENCE	560	n/a	n/a	1	n/a	0	0	0	0.422607421875	0.5869140625	0	lower	zerothre.ttf
958.19	n/a	START	479095	n/a	LTP110	ltpFR	13	n/a	n/a	n/a	n/a	n/a	n/a	n/a	n/a	n/a	n/a	n/a	n/a	n/a	n/a	n/a	n/a
959.29	n/a	PROB	479645	n/a	LTP110	ltpFR	13	n/a	n/a	n/a	n/a	n/a	n/a	n/a	1	8	2	4	n/a	n/a	n/a	n/a	n/a
960.864	n/a	PROB	480432	n/a	LTP110	ltpFR	13	n/a	n/a	n/a	n/a	n/a	n/a	n/a	16	8	2	6	n/a	n/a	n/a	n/a	n/a
962.738	n/a	PROB	481369	n/a	LTP110	ltpFR	13	n/a	n/a	n/a	n/a	n/a	n/a	n/a	16	4	8	3	n/a	n/a	n/a	n/a	n/a
963.98	n/a	PROB	481990	n/a	LTP110	ltpFR	13	n/a	n/a	n/a	n/a	n/a	n/a	n/a	17	7	9	1	n/a	n/a	n/a	n/a	n/a
965.764	n/a	STOP	482882	n/a	LTP110	ltpFR	13	n/a	n/a	n/a	n/a	n/a	n/a	n/a	n/a	n/a	n/a	n/a	n/a	n/a	n/a	n/a	n/a
967.094	n/a	WORD	483547	wordpools/wasnorm_wordpool.txt	LTP110	ltpFR	13	4	0	MONEY	908	n/a	n/a	0	n/a	0	0	0	0.422607421875	0.5869140625	0	lower	zerothre.ttf
970.104	n/a	START	485052	n/a	LTP110	ltpFR	13	n/a	n/a	n/a	n/a	n/a	n/a	n/a	n/a	n/a	n/a	n/a	n/a	n/a	n/a	n/a	n/a
970.986	n/a	PROB	485493	n/a	LTP110	ltpFR	13	n/a	n/a	n/a	n/a	n/a	n/a	n/a	12	2	9	1	n/a	n/a	n/a	n/a	n/a
972.118	n/a	PROB	486059	n/a	LTP110	ltpFR	13	n/a	n/a	n/a	n/a	n/a	n/a	n/a	14	2	8	4	n/a	n/a	n/a	n/a	n/a
973.776	n/a	PROB	486888	n/a	LTP110	ltpFR	13	n/a	n/a	n/a	n/a	n/a	n/a	n/a	13	6	6	1	n/a	n/a	n/a	n/a	n/a
974.926	n/a	PROB	487463	n/a	LTP110	ltpFR	13	n/a	n/a	n/a	n/a	n/a	n/a	n/a	14	2	9	3	n/a	n/a	n/a	n/a	n/a
978.104	n/a	STOP	489052	n/a	LTP110	ltpFR	13	n/a	n/a	n/a	n/a	n/a	n/a	n/a	n/a	n/a	n/a	n/a	n/a	n/a	n/a	n/a	n/a
979.224	n/a	WORD	489612	wordpools/wasnorm_wordpool.txt	LTP110	ltpFR	13	4	0	CAPITAL	238	n/a	n/a	1	n/a	0	0	0	0.422607421875	0.5869140625	0	lower	zerothre.ttf
982.232	n/a	START	491116	n/a	LTP110	ltpFR	13	n/a	n/a	n/a	n/a	n/a	n/a	n/a	n/a	n/a	n/a	n/a	n/a	n/a	n/a	n/a	n/a
983.182	n/a	PROB	491591	n/a	LTP110	ltpFR	13	n/a	n/a	n/a	n/a	n/a	n/a	n/a	10	3	5	2	n/a	n/a	n/a	n/a	n/a
984.722	n/a	PROB	492361	n/a	LTP110	ltpFR	13	n/a	n/a	n/a	n/a	n/a	n/a	n/a	24	7	8	9	n/a	n/a	n/a	n/a	n/a
987.622	n/a	PROB	493811	n/a	LTP110	ltpFR	13	n/a	n/a	n/a	n/a	n/a	n/a	n/a	11	8	2	1	n/a	n/a	n/a	n/a	n/a
988.862	n/a	STOP	494431	n/a	LTP110	ltpFR	13	n/a	n/a	n/a	n/a	n/a	n/a	n/a	n/a	n/a	n/a	n/a	n/a	n/a	n/a	n/a	n/a
991.138	n/a	WORD	495569	wordpools/wasnorm_wordpool.txt	LTP110	ltpFR	13	4	1	PUPPY	1144	n/a	n/a	1	n/a	0	0	0	0.57763671875	0.412841796875	1	upper	amplitud.ttf
994.146	n/a	START	497073	n/a	LTP110	ltpFR	13	n/a	n/a	n/a	n/a	n/a	n/a	n/a	n/a	n/a	n/a	n/a	n/a	n/a	n/a	n/a	n/a
995.186	n/a	PROB	497593	n/a	LTP110	ltpFR	13	n/a	n/a	n/a	n/a	n/a	n/a	n/a	18	8	2	6	n/a	n/a	n/a	n/a	n/a
996.778	n/a	PROB	498389	n/a	LTP110	ltpFR	13	n/a	n/a	n/a	n/a	n/a	n/a	n/a	20	5	9	6	n/a	n/a	n/a	n/a	n/a
1000.494	n/a	PROB	500247	n/a	LTP110	ltpFR	13	n/a	n/a	n/a	n/a	n/a	n/a	n/a	15	4	5	6	n/a	n/a	n/a	n/a	n/a
1001.814	n/a	STOP	500907	n/a	LTP110	ltpFR	13	n/a	n/a	n/a	n/a	n/a	n/a	n/a	n/a	n/a	n/a	n/a	n/a	n/a	n/a	n/a	n/a
1003.208	n/a	WORD	501604	wordpools/wasnorm_wordpool.txt	LTP110	ltpFR	13	4	1	IDOL	733	n/a	n/a	0	n/a	0	0	0	0.57763671875	0.412841796875	1	upper	amplitud.ttf
1006.216	n/a	START	503108	n/a	LTP110	ltpFR	13	n/a	n/a	n/a	n/a	n/a	n/a	n/a	n/a	n/a	n/a	n/a	n/a	n/a	n/a	n/a	n/a
1007.14	n/a	PROB	503570	n/a	LTP110	ltpFR	13	n/a	n/a	n/a	n/a	n/a	n/a	n/a	21	6	7	8	n/a	n/a	n/a	n/a	n/a
1010.1	n/a	PROB	505050	n/a	LTP110	ltpFR	13	n/a	n/a	n/a	n/a	n/a	n/a	n/a	17	7	3	7	n/a	n/a	n/a	n/a	n/a
1011.216	n/a	PROB	505608	n/a	LTP110	ltpFR	13	n/a	n/a	n/a	n/a	n/a	n/a	n/a	11	7	2	2	n/a	n/a	n/a	n/a	n/a
1012.744	n/a	STOP	506372	n/a	LTP110	ltpFR	13	n/a	n/a	n/a	n/a	n/a	n/a	n/a	n/a	n/a	n/a	n/a	n/a	n/a	n/a	n/a	n/a
1015.338	n/a	WORD	507669	wordpools/wasnorm_wordpool.txt	LTP110	ltpFR	13	4	1	VACUUM	1543	n/a	n/a	0	n/a	0	0	0	0.57763671875	0.412841796875	1	upper	amplitud.ttf
1018.346	n/a	START	509173	n/a	LTP110	ltpFR	13	n/a	n/a	n/a	n/a	n/a	n/a	n/a	n/a	n/a	n/a	n/a	n/a	n/a	n/a	n/a	n/a
1019.538	n/a	PROB	509769	n/a	LTP110	ltpFR	13	n/a	n/a	n/a	n/a	n/a	n/a	n/a	18	5	8	5	n/a	n/a	n/a	n/a	n/a
1020.92	n/a	PROB	510460	n/a	LTP110	ltpFR	13	n/a	n/a	n/a	n/a	n/a	n/a	n/a	18	8	8	2	n/a	n/a	n/a	n/a	n/a
1022.336	n/a	PROB	511168	n/a	LTP110	ltpFR	13	n/a	n/a	n/a	n/a	n/a	n/a	n/a	18	4	7	7	n/a	n/a	n/a	n/a	n/a
1023.936	n/a	PROB	511968	n/a	LTP110	ltpFR	13	n/a	n/a	n/a	n/a	n/a	n/a	n/a	12	7	3	2	n/a	n/a	n/a	n/a	n/a
1025.232	n/a	STOP	512616	n/a	LTP110	ltpFR	13	n/a	n/a	n/a	n/a	n/a	n/a	n/a	n/a	n/a	n/a	n/a	n/a	n/a	n/a	n/a	n/a
1027.46	n/a	WORD	513730	wordpools/wasnorm_wordpool.txt	LTP110	ltpFR	13	4	1	THIGH	1457	n/a	n/a	0	n/a	0	0	0	0.57763671875	0.412841796875	1	upper	amplitud.ttf
1030.468	n/a	START	515234	n/a	LTP110	ltpFR	13	n/a	n/a	n/a	n/a	n/a	n/a	n/a	n/a	n/a	n/a	n/a	n/a	n/a	n/a	n/a	n/a
1031.334	n/a	PROB	515667	n/a	LTP110	ltpFR	13	n/a	n/a	n/a	n/a	n/a	n/a	n/a	16	9	5	2	n/a	n/a	n/a	n/a	n/a
1032.758	n/a	PROB	516379	n/a	LTP110	ltpFR	13	n/a	n/a	n/a	n/a	n/a	n/a	n/a	13	3	3	7	n/a	n/a	n/a	n/a	n/a
1033.834	n/a	PROB	516917	n/a	LTP110	ltpFR	13	n/a	n/a	n/a	n/a	n/a	n/a	n/a	6	3	1	2	n/a	n/a	n/a	n/a	n/a
1035.442	n/a	PROB	517721	n/a	LTP110	ltpFR	13	n/a	n/a	n/a	n/a	n/a	n/a	n/a	12	3	4	5	n/a	n/a	n/a	n/a	n/a
1036.948	n/a	PROB	518474	n/a	LTP110	ltpFR	13	n/a	n/a	n/a	n/a	n/a	n/a	n/a	15	4	6	5	n/a	n/a	n/a	n/a	n/a
1038.224	n/a	STOP	519112	n/a	LTP110	ltpFR	13	n/a	n/a	n/a	n/a	n/a	n/a	n/a	n/a	n/a	n/a	n/a	n/a	n/a	n/a	n/a	n/a
1039.282	n/a	WORD	519641	wordpools/wasnorm_wordpool.txt	LTP110	ltpFR	13	4	1	COCOON	339	n/a	n/a	0	n/a	0	0	0	0.57763671875	0.412841796875	1	upper	amplitud.ttf
1042.298	n/a	START	521149	n/a	LTP110	ltpFR	13	n/a	n/a	n/a	n/a	n/a	n/a	n/a	n/a	n/a	n/a	n/a	n/a	n/a	n/a	n/a	n/a
1043.338	n/a	PROB	521669	n/a	LTP110	ltpFR	13	n/a	n/a	n/a	n/a	n/a	n/a	n/a	19	8	5	6	n/a	n/a	n/a	n/a	n/a
1045.97	n/a	PROB	522985	n/a	LTP110	ltpFR	13	n/a	n/a	n/a	n/a	n/a	n/a	n/a	14	4	9	1	n/a	n/a	n/a	n/a	n/a
1046.938	n/a	PROB	523469	n/a	LTP110	ltpFR	13	n/a	n/a	n/a	n/a	n/a	n/a	n/a	20	8	3	9	n/a	n/a	n/a	n/a	n/a
1048.788	n/a	PROB	524394	n/a	LTP110	ltpFR	13	n/a	n/a	n/a	n/a	n/a	n/a	n/a	21	7	8	6	n/a	n/a	n/a	n/a	n/a
1050.106	n/a	STOP	525053	n/a	LTP110	ltpFR	13	n/a	n/a	n/a	n/a	n/a	n/a	n/a	n/a	n/a	n/a	n/a	n/a	n/a	n/a	n/a	n/a
1051.478	n/a	WORD	525739	wordpools/wasnorm_wordpool.txt	LTP110	ltpFR	13	4	1	ANTEATER	26	n/a	n/a	1	n/a	0	0	0	0.57763671875	0.412841796875	1	upper	amplitud.ttf
1054.486	n/a	START	527243	n/a	LTP110	ltpFR	13	n/a	n/a	n/a	n/a	n/a	n/a	n/a	n/a	n/a	n/a	n/a	n/a	n/a	n/a	n/a	n/a
1055.602	n/a	PROB	527801	n/a	LTP110	ltpFR	13	n/a	n/a	n/a	n/a	n/a	n/a	n/a	20	8	9	3	n/a	n/a	n/a	n/a	n/a
1056.876	n/a	PROB	528438	n/a	LTP110	ltpFR	13	n/a	n/a	n/a	n/a	n/a	n/a	n/a	15	5	7	3	n/a	n/a	n/a	n/a	n/a
1058.4	n/a	PROB	529200	n/a	LTP110	ltpFR	13	n/a	n/a	n/a	n/a	n/a	n/a	n/a	24	6	9	9	n/a	n/a	n/a	n/a	n/a
1060.924	n/a	PROB	530462	n/a	LTP110	ltpFR	13	n/a	n/a	n/a	n/a	n/a	n/a	n/a	12	6	1	5	n/a	n/a	n/a	n/a	n/a
1061.93	n/a	STOP	530965	n/a	LTP110	ltpFR	13	n/a	n/a	n/a	n/a	n/a	n/a	n/a	n/a	n/a	n/a	n/a	n/a	n/a	n/a	n/a	n/a
1063.682	n/a	WORD	531841	wordpools/wasnorm_wordpool.txt	LTP110	ltpFR	13	4	0	TELESCOPE	1446	n/a	n/a	1	n/a	0	0	0	0.422607421875	0.5869140625	0	lower	zerothre.ttf
1066.69	n/a	START	533345	n/a	LTP110	ltpFR	13	n/a	n/a	n/a	n/a	n/a	n/a	n/a	n/a	n/a	n/a	n/a	n/a	n/a	n/a	n/a	n/a
1067.748	n/a	PROB	533874	n/a	LTP110	ltpFR	13	n/a	n/a	n/a	n/a	n/a	n/a	n/a	6	1	3	2	n/a	n/a	n/a	n/a	n/a
1068.764	n/a	PROB	534382	n/a	LTP110	ltpFR	13	n/a	n/a	n/a	n/a	n/a	n/a	n/a	9	1	6	2	n/a	n/a	n/a	n/a	n/a
1070.13	n/a	PROB	535065	n/a	LTP110	ltpFR	13	n/a	n/a	n/a	n/a	n/a	n/a	n/a	12	7	4	1	n/a	n/a	n/a	n/a	n/a
1071.038	n/a	PROB	535519	n/a	LTP110	ltpFR	13	n/a	n/a	n/a	n/a	n/a	n/a	n/a	19	7	6	6	n/a	n/a	n/a	n/a	n/a
1072.488	n/a	PROB	536244	n/a	LTP110	ltpFR	13	n/a	n/a	n/a	n/a	n/a	n/a	n/a	16	2	8	6	n/a	n/a	n/a	n/a	n/a
1073.482	n/a	STOP	536741	n/a	LTP110	ltpFR	13	n/a	n/a	n/a	n/a	n/a	n/a	n/a	n/a	n/a	n/a	n/a	n/a	n/a	n/a	n/a	n/a
1075.696	n/a	WORD	537848	wordpools/wasnorm_wordpool.txt	LTP110	ltpFR	13	4	0	CASH	252	n/a	n/a	0	n/a	0	0	0	0.422607421875	0.5869140625	0	lower	zerothre.ttf
1078.704	n/a	START	539352	n/a	LTP110	ltpFR	13	n/a	n/a	n/a	n/a	n/a	n/a	n/a	n/a	n/a	n/a	n/a	n/a	n/a	n/a	n/a	n/a
1079.76	n/a	PROB	539880	n/a	LTP110	ltpFR	13	n/a	n/a	n/a	n/a	n/a	n/a	n/a	11	4	6	1	n/a	n/a	n/a	n/a	n/a
1080.836	n/a	PROB	540418	n/a	LTP110	ltpFR	13	n/a	n/a	n/a	n/a	n/a	n/a	n/a	20	4	7	9	n/a	n/a	n/a	n/a	n/a
1082.468	n/a	PROB	541234	n/a	LTP110	ltpFR	13	n/a	n/a	n/a	n/a	n/a	n/a	n/a	9	1	3	5	n/a	n/a	n/a	n/a	n/a
1083.502	n/a	PROB	541751	n/a	LTP110	ltpFR	13	n/a	n/a	n/a	n/a	n/a	n/a	n/a	18	7	8	3	n/a	n/a	n/a	n/a	n/a
1084.642	n/a	PROB	542321	n/a	LTP110	ltpFR	13	n/a	n/a	n/a	n/a	n/a	n/a	n/a	17	3	6	8	n/a	n/a	n/a	n/a	n/a
1086.284	n/a	STOP	543142	n/a	LTP110	ltpFR	13	n/a	n/a	n/a	n/a	n/a	n/a	n/a	n/a	n/a	n/a	n/a	n/a	n/a	n/a	n/a	n/a
1088.442	n/a	REC_START	544221	n/a	LTP110	ltpFR	13	4	n/a	n/a	n/a	n/a	n/a	n/a	n/a	0	0	0	n/a	n/a	n/a	n/a	n/a
1089.994	n/a	REC_WORD	544997	wordpools/wasnorm_wordpool.txt	LTP110	ltpFR	13	4	0	CASH	252	n/a	n/a	0	n/a	0	0	0	n/a	n/a	n/a	n/a	n/a
1090.548	n/a	REC_WORD	545274	wordpools/wasnorm_wordpool.txt	LTP110	ltpFR	13	4	0	MONEY	908	n/a	n/a	0	n/a	0	0	0	n/a	n/a	n/a	n/a	n/a
1091.062	n/a	REC_WORD	545531	wordpools/wasnorm_wordpool.txt	LTP110	ltpFR	13	4	0	CAPITAL	238	n/a	n/a	1	n/a	0	0	0	n/a	n/a	n/a	n/a	n/a
1091.724	n/a	REC_WORD	545862	wordpools/wasnorm_wordpool.txt	LTP110	ltpFR	13	4	0	CHAMBER	277	n/a	n/a	1	n/a	0	0	0	n/a	n/a	n/a	n/a	n/a
1092.852	n/a	REC_WORD	546426	wordpools/wasnorm_wordpool.txt	LTP110	ltpFR	13	4	0	GUARDIAN	668	n/a	n/a	1	n/a	0	0	0	n/a	n/a	n/a	n/a	n/a
1093.456	n/a	REC_WORD	546728	wordpools/wasnorm_wordpool.txt	LTP110	ltpFR	13	4	0	ANGEL	22	n/a	n/a	1	n/a	0	0	0	n/a	n/a	n/a	n/a	n/a
1094.24	n/a	REC_WORD	547120	wordpools/wasnorm_wordpool.txt	LTP110	ltpFR	13	4	0	FENCE	560	n/a	n/a	1	n/a	0	0	0	n/a	n/a	n/a	n/a	n/a
1094.772	n/a	REC_WORD	547386	wordpools/wasnorm_wordpool.txt	LTP110	ltpFR	13	4	1	COCOON	339	n/a	n/a	0	n/a	0	0	0	n/a	n/a	n/a	n/a	n/a
1096.4	n/a	REC_WORD	548200	wordpools/wasnorm_wordpool.txt	LTP110	ltpFR	13	4	1	MAGAZINE	853	n/a	n/a	0	n/a	0	0	0	n/a	n/a	n/a	n/a	n/a
1097.198	n/a	REC_WORD	548599	wordpools/wasnorm_wordpool.txt	LTP110	ltpFR	13	4	1	GARAGE	621	n/a	n/a	0	n/a	0	0	0	n/a	n/a	n/a	n/a	n/a
1100.006	n/a	REC_WORD	550003	wordpools/wasnorm_wordpool.txt	LTP110	ltpFR	13	4	1	VACUUM	1543	n/a	n/a	0	n/a	0	0	0	n/a	n/a	n/a	n/a	n/a
1100.76	n/a	REC_WORD	550380	wordpools/wasnorm_wordpool.txt	LTP110	ltpFR	13	4	1	PUPPY	1144	n/a	n/a	1	n/a	0	0	0	n/a	n/a	n/a	n/a	n/a
1102.924	n/a	REC_WORD	551462	wordpools/wasnorm_wordpool.txt	LTP110	ltpFR	13	4	1	ANTEATER	26	n/a	n/a	1	n/a	0	0	0	n/a	n/a	n/a	n/a	n/a
1112.912	n/a	REC_WORD	556456	wordpools/wasnorm_wordpool.txt	LTP110	ltpFR	13	4	1	THIGH	1457	n/a	n/a	0	n/a	0	0	0	n/a	n/a	n/a	n/a	n/a
1173.948	n/a	WORD	586974	wordpools/wasnorm_wordpool.txt	LTP110	ltpFR	13	5	0	POOL	1103	n/a	n/a	1	n/a	0	0	0	0.422607421875	0.5869140625	0	lower	zerothre.ttf
1178.072	n/a	WORD	589036	wordpools/wasnorm_wordpool.txt	LTP110	ltpFR	13	5	0	JOINT	758	n/a	n/a	0	n/a	0	0	0	0.422607421875	0.5869140625	0	lower	zerothre.ttf
1182.014	n/a	WORD	591007	wordpools/wasnorm_wordpool.txt	LTP110	ltpFR	13	5	0	TOMB	1477	n/a	n/a	1	n/a	0	0	0	0.422607421875	0.5869140625	0	lower	zerothre.ttf
1185.838	n/a	WORD	592919	wordpools/wasnorm_wordpool.txt	LTP110	ltpFR	13	5	0	SPARROW	1347	n/a	n/a	0	n/a	0	0	0	0.422607421875	0.5869140625	0	lower	zerothre.ttf
1189.844	n/a	WORD	594922	wordpools/wasnorm_wordpool.txt	LTP110	ltpFR	13	5	0	GALAXY	617	n/a	n/a	1	n/a	0	0	0	0.422607421875	0.5869140625	0	lower	zerothre.ttf
1193.992	n/a	WORD	596996	wordpools/wasnorm_wordpool.txt	LTP110	ltpFR	13	5	0	OTTER	986	n/a	n/a	1	n/a	0	0	0	0.422607421875	0.5869140625	0	lower	zerothre.ttf
1197.892	n/a	WORD	598946	wordpools/wasnorm_wordpool.txt	LTP110	ltpFR	13	5	0	LEG	809	n/a	n/a	1	n/a	0	0	0	0.422607421875	0.5869140625	0	lower	zerothre.ttf
1201.966	n/a	WORD	600983	wordpools/wasnorm_wordpool.txt	LTP110	ltpFR	13	5	0	PALM	1007	n/a	n/a	0	n/a	0	0	0	0.422607421875	0.5869140625	0	lower	zerothre.ttf
1205.956	n/a	WORD	602978	wordpools/wasnorm_wordpool.txt	LTP110	ltpFR	13	5	0	MARKET	871	n/a	n/a	1	n/a	0	0	0	0.422607421875	0.5869140625	0	lower	zerothre.ttf
1209.88	n/a	WORD	604940	wordpools/wasnorm_wordpool.txt	LTP110	ltpFR	13	5	0	PLAZA	1088	n/a	n/a	1	n/a	0	0	0	0.422607421875	0.5869140625	0	lower	zerothre.ttf
1213.946	n/a	WORD	606973	wordpools/wasnorm_wordpool.txt	LTP110	ltpFR	13	5	0	CAMERA	224	n/a	n/a	0	n/a	0	0	0	0.422607421875	0.5869140625	0	lower	zerothre.ttf
1217.802	n/a	WORD	608901	wordpools/wasnorm_wordpool.txt	LTP110	ltpFR	13	5	0	CHART	282	n/a	n/a	1	n/a	0	0	0	0.422607421875	0.5869140625	0	lower	zerothre.ttf
1221.752	n/a	WORD	610876	wordpools/wasnorm_wordpool.txt	LTP110	ltpFR	13	5	0	CHIPMUNK	304	n/a	n/a	1	n/a	0	0	0	0.422607421875	0.5869140625	0	lower	zerothre.ttf
1225.634	n/a	WORD	612817	wordpools/wasnorm_wordpool.txt	LTP110	ltpFR	13	5	0	TIDE	1465	n/a	n/a	1	n/a	0	0	0	0.422607421875	0.5869140625	0	lower	zerothre.ttf
1229.49	n/a	WORD	614745	wordpools/wasnorm_wordpool.txt	LTP110	ltpFR	13	5	0	UMBRELLA	1534	n/a	n/a	1	n/a	0	0	0	0.422607421875	0.5869140625	0	lower	zerothre.ttf
1233.53	n/a	WORD	616765	wordpools/wasnorm_wordpool.txt	LTP110	ltpFR	13	5	0	ACID	2	n/a	n/a	0	n/a	0	0	0	0.422607421875	0.5869140625	0	lower	zerothre.ttf
1239.422	n/a	REC_START	619711	n/a	LTP110	ltpFR	13	5	n/a	n/a	n/a	n/a	n/a	n/a	n/a	0	0	0	n/a	n/a	n/a	n/a	n/a
1241.456	n/a	REC_WORD	620728	wordpools/wasnorm_wordpool.txt	LTP110	ltpFR	13	5	0	POOL	1103	n/a	n/a	1	n/a	0	0	0	n/a	n/a	n/a	n/a	n/a
1242.18	n/a	REC_WORD	621090	wordpools/wasnorm_wordpool.txt	LTP110	ltpFR	13	5	0	JOINT	758	n/a	n/a	0	n/a	0	0	0	n/a	n/a	n/a	n/a	n/a
1243.492	n/a	REC_WORD	621746	wordpools/wasnorm_wordpool.txt	LTP110	ltpFR	13	5	0	TOMB	1477	n/a	n/a	1	n/a	0	0	0	n/a	n/a	n/a	n/a	n/a
1244.126	n/a	REC_WORD	622063	wordpools/wasnorm_wordpool.txt	LTP110	ltpFR	13	5	0	GALAXY	617	n/a	n/a	1	n/a	0	0	0	n/a	n/a	n/a	n/a	n/a
1245.886	n/a	REC_WORD	622943	wordpools/wasnorm_wordpool.txt	LTP110	ltpFR	13	5	0	OTTER	986	n/a	n/a	1	n/a	0	0	0	n/a	n/a	n/a	n/a	n/a
1246.514	n/a	REC_WORD	623257	wordpools/wasnorm_wordpool.txt	LTP110	ltpFR	13	5	0	LEG	809	n/a	n/a	1	n/a	0	0	0	n/a	n/a	n/a	n/a	n/a
1256.418	n/a	REC_WORD	628209	wordpools/wasnorm_wordpool.txt	LTP110	ltpFR	13	5	0	CAMERA	224	n/a	n/a	0	n/a	0	0	0	n/a	n/a	n/a	n/a	n/a
1273.28	n/a	REC_WORD	636640	wordpools/wasnorm_wordpool.txt	LTP110	ltpFR	13	5	0	TIDE	1465	n/a	n/a	1	n/a	0	0	0	n/a	n/a	n/a	n/a	n/a
1274.842	n/a	REC_WORD	637421	wordpools/wasnorm_wordpool.txt	LTP110	ltpFR	13	5	0	ACID	2	n/a	n/a	0	n/a	0	0	0	n/a	n/a	n/a	n/a	n/a
1280.834	n/a	REC_WORD	640417	wordpools/wasnorm_wordpool.txt	LTP110	ltpFR	13	5	0	SPARROW	1347	n/a	n/a	0	n/a	0	0	0	n/a	n/a	n/a	n/a	n/a
1291.884	n/a	REC_WORD	645942	wordpools/wasnorm_wordpool.txt	LTP110	ltpFR	13	5	0	CHIPMUNK	304	n/a	n/a	1	n/a	0	0	0	n/a	n/a	n/a	n/a	n/a
1315.748	n/a	START	657874	n/a	LTP110	ltpFR	13	n/a	n/a	n/a	n/a	n/a	n/a	n/a	n/a	n/a	n/a	n/a	n/a	n/a	n/a	n/a	n/a
1317.256	n/a	PROB	658628	n/a	LTP110	ltpFR	13	n/a	n/a	n/a	n/a	n/a	n/a	n/a	20	9	5	6	n/a	n/a	n/a	n/a	n/a
1319.222	n/a	PROB	659611	n/a	LTP110	ltpFR	13	n/a	n/a	n/a	n/a	n/a	n/a	n/a	12	8	1	3	n/a	n/a	n/a	n/a	n/a
1320.238	n/a	PROB	660119	n/a	LTP110	ltpFR	13	n/a	n/a	n/a	n/a	n/a	n/a	n/a	13	8	3	2	n/a	n/a	n/a	n/a	n/a
1321.354	n/a	PROB	660677	n/a	LTP110	ltpFR	13	n/a	n/a	n/a	n/a	n/a	n/a	n/a	23	9	8	6	n/a	n/a	n/a	n/a	n/a
1322.846	n/a	PROB	661423	n/a	LTP110	ltpFR	13	n/a	n/a	n/a	n/a	n/a	n/a	n/a	14	8	5	1	n/a	n/a	n/a	n/a	n/a
1324.07	n/a	PROB	662035	n/a	LTP110	ltpFR	13	n/a	n/a	n/a	n/a	n/a	n/a	n/a	21	9	5	7	n/a	n/a	n/a	n/a	n/a
1326.012	n/a	PROB	663006	n/a	LTP110	ltpFR	13	n/a	n/a	n/a	n/a	n/a	n/a	n/a	16	3	5	8	n/a	n/a	n/a	n/a	n/a
1327.902	n/a	PROB	663951	n/a	LTP110	ltpFR	13	n/a	n/a	n/a	n/a	n/a	n/a	n/a	10	4	4	2	n/a	n/a	n/a	n/a	n/a
1330.24	n/a	STOP	665120	n/a	LTP110	ltpFR	13	n/a	n/a	n/a	n/a	n/a	n/a	n/a	n/a	n/a	n/a	n/a	n/a	n/a	n/a	n/a	n/a
1332.61	n/a	WORD	666305	wordpools/wasnorm_wordpool.txt	LTP110	ltpFR	13	6	0	INSECT	740	n/a	n/a	0	n/a	0	0	0	0.422607421875	0.5869140625	0	lower	zerothre.ttf
1335.616	n/a	START	667808	n/a	LTP110	ltpFR	13	n/a	n/a	n/a	n/a	n/a	n/a	n/a	n/a	n/a	n/a	n/a	n/a	n/a	n/a	n/a	n/a
1336.608	n/a	PROB	668304	n/a	LTP110	ltpFR	13	n/a	n/a	n/a	n/a	n/a	n/a	n/a	12	3	7	2	n/a	n/a	n/a	n/a	n/a
1337.974	n/a	PROB	668987	n/a	LTP110	ltpFR	13	n/a	n/a	n/a	n/a	n/a	n/a	n/a	15	7	2	6	n/a	n/a	n/a	n/a	n/a
1339.232	n/a	PROB	669616	n/a	LTP110	ltpFR	13	n/a	n/a	n/a	n/a	n/a	n/a	n/a	19	7	4	8	n/a	n/a	n/a	n/a	n/a
1340.432	n/a	PROB	670216	n/a	LTP110	ltpFR	13	n/a	n/a	n/a	n/a	n/a	n/a	n/a	16	5	6	5	n/a	n/a	n/a	n/a	n/a
1341.748	n/a	PROB	670874	n/a	LTP110	ltpFR	13	n/a	n/a	n/a	n/a	n/a	n/a	n/a	17	9	4	4	n/a	n/a	n/a	n/a	n/a
1343.364	n/a	PROB	671682	n/a	LTP110	ltpFR	13	n/a	n/a	n/a	n/a	n/a	n/a	n/a	17	7	4	6	n/a	n/a	n/a	n/a	n/a
1345.138	n/a	PROB	672569	n/a	LTP110	ltpFR	13	n/a	n/a	n/a	n/a	n/a	n/a	n/a	18	7	7	4	n/a	n/a	n/a	n/a	n/a
1346.738	n/a	PROB	673369	n/a	LTP110	ltpFR	13	n/a	n/a	n/a	n/a	n/a	n/a	n/a	11	6	4	1	n/a	n/a	n/a	n/a	n/a
1347.688	n/a	PROB	673844	n/a	LTP110	ltpFR	13	n/a	n/a	n/a	n/a	n/a	n/a	n/a	14	7	4	3	n/a	n/a	n/a	n/a	n/a
1349.388	n/a	PROB	674694	n/a	LTP110	ltpFR	13	n/a	n/a	n/a	n/a	n/a	n/a	n/a	10	2	6	2	n/a	n/a	n/a	n/a	n/a
1350.976	n/a	STOP	675488	n/a	LTP110	ltpFR	13	n/a	n/a	n/a	n/a	n/a	n/a	n/a	n/a	n/a	n/a	n/a	n/a	n/a	n/a	n/a	n/a
1352.752	n/a	WORD	676376	wordpools/wasnorm_wordpool.txt	LTP110	ltpFR	13	6	0	CRICKET	408	n/a	n/a	0	n/a	0	0	0	0.422607421875	0.5869140625	0	lower	zerothre.ttf
1355.762	n/a	START	677881	n/a	LTP110	ltpFR	13	n/a	n/a	n/a	n/a	n/a	n/a	n/a	n/a	n/a	n/a	n/a	n/a	n/a	n/a	n/a	n/a
1356.802	n/a	PROB	678401	n/a	LTP110	ltpFR	13	n/a	n/a	n/a	n/a	n/a	n/a	n/a	11	4	3	4	n/a	n/a	n/a	n/a	n/a
1358.052	n/a	PROB	679026	n/a	LTP110	ltpFR	13	n/a	n/a	n/a	n/a	n/a	n/a	n/a	10	8	1	1	n/a	n/a	n/a	n/a	n/a
1359.202	n/a	PROB	679601	n/a	LTP110	ltpFR	13	n/a	n/a	n/a	n/a	n/a	n/a	n/a	10	4	1	5	n/a	n/a	n/a	n/a	n/a
1360.534	n/a	PROB	680267	n/a	LTP110	ltpFR	13	n/a	n/a	n/a	n/a	n/a	n/a	n/a	10	2	2	6	n/a	n/a	n/a	n/a	n/a
1362.658	n/a	PROB	681329	n/a	LTP110	ltpFR	13	n/a	n/a	n/a	n/a	n/a	n/a	n/a	9	2	2	5	n/a	n/a	n/a	n/a	n/a
1364.374	n/a	PROB	682187	n/a	LTP110	ltpFR	13	n/a	n/a	n/a	n/a	n/a	n/a	n/a	17	4	9	2	n/a	n/a	n/a	n/a	n/a
1365.882	n/a	PROB	682941	n/a	LTP110	ltpFR	13	n/a	n/a	n/a	n/a	n/a	n/a	n/a	13	1	5	7	n/a	n/a	n/a	n/a	n/a
1368.132	n/a	PROB	684066	n/a	LTP110	ltpFR	13	n/a	n/a	n/a	n/a	n/a	n/a	n/a	18	2	7	9	n/a	n/a	n/a	n/a	n/a
1369.872	n/a	PROB	684936	n/a	LTP110	ltpFR	13	n/a	n/a	n/a	n/a	n/a	n/a	n/a	8	1	6	1	n/a	n/a	n/a	n/a	n/a
1370.802	n/a	STOP	685401	n/a	LTP110	ltpFR	13	n/a	n/a	n/a	n/a	n/a	n/a	n/a	n/a	n/a	n/a	n/a	n/a	n/a	n/a	n/a	n/a
1372.938	n/a	WORD	686469	wordpools/wasnorm_wordpool.txt	LTP110	ltpFR	13	6	1	VOLCANO	1575	n/a	n/a	0	n/a	0	0	0	0.57763671875	0.412841796875	1	upper	amplitud.ttf
1375.948	n/a	START	687974	n/a	LTP110	ltpFR	13	n/a	n/a	n/a	n/a	n/a	n/a	n/a	n/a	n/a	n/a	n/a	n/a	n/a	n/a	n/a	n/a
1377.104	n/a	PROB	688552	n/a	LTP110	ltpFR	13	n/a	n/a	n/a	n/a	n/a	n/a	n/a	15	3	5	7	n/a	n/a	n/a	n/a	n/a
1379.204	n/a	PROB	689602	n/a	LTP110	ltpFR	13	n/a	n/a	n/a	n/a	n/a	n/a	n/a	18	7	6	5	n/a	n/a	n/a	n/a	n/a
1380.72	n/a	PROB	690360	n/a	LTP110	ltpFR	13	n/a	n/a	n/a	n/a	n/a	n/a	n/a	17	8	7	2	n/a	n/a	n/a	n/a	n/a
1382.278	n/a	PROB	691139	n/a	LTP110	ltpFR	13	n/a	n/a	n/a	n/a	n/a	n/a	n/a	9	3	1	5	n/a	n/a	n/a	n/a	n/a
1384.036	n/a	PROB	692018	n/a	LTP110	ltpFR	13	n/a	n/a	n/a	n/a	n/a	n/a	n/a	19	9	5	5	n/a	n/a	n/a	n/a	n/a
1385.534	n/a	PROB	692767	n/a	LTP110	ltpFR	13	n/a	n/a	n/a	n/a	n/a	n/a	n/a	16	6	2	8	n/a	n/a	n/a	n/a	n/a
1388.668	n/a	PROB	694334	n/a	LTP110	ltpFR	13	n/a	n/a	n/a	n/a	n/a	n/a	n/a	16	8	7	1	n/a	n/a	n/a	n/a	n/a
1389.95	n/a	PROB	694975	n/a	LTP110	ltpFR	13	n/a	n/a	n/a	n/a	n/a	n/a	n/a	18	7	2	9	n/a	n/a	n/a	n/a	n/a
1391.906	n/a	STOP	695953	n/a	LTP110	ltpFR	13	n/a	n/a	n/a	n/a	n/a	n/a	n/a	n/a	n/a	n/a	n/a	n/a	n/a	n/a	n/a	n/a
1393.058	n/a	WORD	696529	wordpools/wasnorm_wordpool.txt	LTP110	ltpFR	13	6	1	SHRINE	1298	n/a	n/a	0	n/a	0	0	0	0.57763671875	0.412841796875	1	upper	amplitud.ttf
1396.066	n/a	START	698033	n/a	LTP110	ltpFR	13	n/a	n/a	n/a	n/a	n/a	n/a	n/a	n/a	n/a	n/a	n/a	n/a	n/a	n/a	n/a	n/a
1396.906	n/a	PROB	698453	n/a	LTP110	ltpFR	13	n/a	n/a	n/a	n/a	n/a	n/a	n/a	13	9	1	3	n/a	n/a	n/a	n/a	n/a
1397.89	n/a	PROB	698945	n/a	LTP110	ltpFR	13	n/a	n/a	n/a	n/a	n/a	n/a	n/a	18	8	8	2	n/a	n/a	n/a	n/a	n/a
1399.314	n/a	PROB	699657	n/a	LTP110	ltpFR	13	n/a	n/a	n/a	n/a	n/a	n/a	n/a	19	9	3	7	n/a	n/a	n/a	n/a	n/a
1400.822	n/a	PROB	700411	n/a	LTP110	ltpFR	13	n/a	n/a	n/a	n/a	n/a	n/a	n/a	24	9	9	6	n/a	n/a	n/a	n/a	n/a
1403.238	n/a	PROB	701619	n/a	LTP110	ltpFR	13	n/a	n/a	n/a	n/a	n/a	n/a	n/a	17	9	5	3	n/a	n/a	n/a	n/a	n/a
1406.07	n/a	PROB	703035	n/a	LTP110	ltpFR	13	n/a	n/a	n/a	n/a	n/a	n/a	n/a	17	1	9	7	n/a	n/a	n/a	n/a	n/a
1407.12	n/a	PROB	703560	n/a	LTP110	ltpFR	13	n/a	n/a	n/a	n/a	n/a	n/a	n/a	14	4	7	3	n/a	n/a	n/a	n/a	n/a
1408.336	n/a	PROB	704168	n/a	LTP110	ltpFR	13	n/a	n/a	n/a	n/a	n/a	n/a	n/a	18	5	9	4	n/a	n/a	n/a	n/a	n/a
1409.71	n/a	PROB	704855	n/a	LTP110	ltpFR	13	n/a	n/a	n/a	n/a	n/a	n/a	n/a	14	8	1	5	n/a	n/a	n/a	n/a	n/a
1411.188	n/a	STOP	705594	n/a	LTP110	ltpFR	13	n/a	n/a	n/a	n/a	n/a	n/a	n/a	n/a	n/a	n/a	n/a	n/a	n/a	n/a	n/a	n/a
1412.926	n/a	WORD	706463	wordpools/wasnorm_wordpool.txt	LTP110	ltpFR	13	6	1	BED	110	n/a	n/a	0	n/a	0	0	0	0.57763671875	0.412841796875	1	upper	amplitud.ttf
1415.934	n/a	START	707967	n/a	LTP110	ltpFR	13	n/a	n/a	n/a	n/a	n/a	n/a	n/a	n/a	n/a	n/a	n/a	n/a	n/a	n/a	n/a	n/a
1416.76	n/a	PROB	708380	n/a	LTP110	ltpFR	13	n/a	n/a	n/a	n/a	n/a	n/a	n/a	12	3	1	8	n/a	n/a	n/a	n/a	n/a
1417.734	n/a	PROB	708867	n/a	LTP110	ltpFR	13	n/a	n/a	n/a	n/a	n/a	n/a	n/a	15	3	5	7	n/a	n/a	n/a	n/a	n/a
1418.892	n/a	PROB	709446	n/a	LTP110	ltpFR	13	n/a	n/a	n/a	n/a	n/a	n/a	n/a	15	3	5	7	n/a	n/a	n/a	n/a	n/a
1419.866	n/a	PROB	709933	n/a	LTP110	ltpFR	13	n/a	n/a	n/a	n/a	n/a	n/a	n/a	15	5	4	6	n/a	n/a	n/a	n/a	n/a
1420.782	n/a	PROB	710391	n/a	LTP110	ltpFR	13	n/a	n/a	n/a	n/a	n/a	n/a	n/a	14	6	4	4	n/a	n/a	n/a	n/a	n/a
1421.84	n/a	PROB	710920	n/a	LTP110	ltpFR	13	n/a	n/a	n/a	n/a	n/a	n/a	n/a	9	2	3	4	n/a	n/a	n/a	n/a	n/a
1423.724	n/a	PROB	711862	n/a	LTP110	ltpFR	13	n/a	n/a	n/a	n/a	n/a	n/a	n/a	21	9	7	5	n/a	n/a	n/a	n/a	n/a
1425.14	n/a	PROB	712570	n/a	LTP110	ltpFR	13	n/a	n/a	n/a	n/a	n/a	n/a	n/a	21	9	3	9	n/a	n/a	n/a	n/a	n/a
1426.68	n/a	PROB	713340	n/a	LTP110	ltpFR	13	n/a	n/a	n/a	n/a	n/a	n/a	n/a	21	5	8	8	n/a	n/a	n/a	n/a	n/a
1430.33	n/a	PROB	715165	n/a	LTP110	ltpFR	13	n/a	n/a	n/a	n/a	n/a	n/a	n/a	16	7	5	4	n/a	n/a	n/a	n/a	n/a
1431.748	n/a	STOP	715874	n/a	LTP110	ltpFR	13	n/a	n/a	n/a	n/a	n/a	n/a	n/a	n/a	n/a	n/a	n/a	n/a	n/a	n/a	n/a	n/a
1433.104	n/a	WORD	716552	wordpools/wasnorm_wordpool.txt	LTP110	ltpFR	13	6	1	BROCCOLI	176	n/a	n/a	0	n/a	0	0	0	0.57763671875	0.412841796875	1	upper	amplitud.ttf
1436.112	n/a	START	718056	n/a	LTP110	ltpFR	13	n/a	n/a	n/a	n/a	n/a	n/a	n/a	n/a	n/a	n/a	n/a	n/a	n/a	n/a	n/a	n/a
1437.262	n/a	PROB	718631	n/a	LTP110	ltpFR	13	n/a	n/a	n/a	n/a	n/a	n/a	n/a	16	8	7	1	n/a	n/a	n/a	n/a	n/a
1438.17	n/a	PROB	719085	n/a	LTP110	ltpFR	13	n/a	n/a	n/a	n/a	n/a	n/a	n/a	18	8	9	1	n/a	n/a	n/a	n/a	n/a
1439.544	n/a	PROB	719772	n/a	LTP110	ltpFR	13	n/a	n/a	n/a	n/a	n/a	n/a	n/a	15	4	2	9	n/a	n/a	n/a	n/a	n/a
1440.868	n/a	PROB	720434	n/a	LTP110	ltpFR	13	n/a	n/a	n/a	n/a	n/a	n/a	n/a	19	8	7	4	n/a	n/a	n/a	n/a	n/a
1442.384	n/a	PROB	721192	n/a	LTP110	ltpFR	13	n/a	n/a	n/a	n/a	n/a	n/a	n/a	14	9	1	4	n/a	n/a	n/a	n/a	n/a
1443.384	n/a	PROB	721692	n/a	LTP110	ltpFR	13	n/a	n/a	n/a	n/a	n/a	n/a	n/a	15	7	5	3	n/a	n/a	n/a	n/a	n/a
1444.866	n/a	PROB	722433	n/a	LTP110	ltpFR	13	n/a	n/a	n/a	n/a	n/a	n/a	n/a	16	4	8	4	n/a	n/a	n/a	n/a	n/a
1446.3	n/a	PROB	723150	n/a	LTP110	ltpFR	13	n/a	n/a	n/a	n/a	n/a	n/a	n/a	18	9	8	1	n/a	n/a	n/a	n/a	n/a
1447.282	n/a	PROB	723641	n/a	LTP110	ltpFR	13	n/a	n/a	n/a	n/a	n/a	n/a	n/a	13	2	9	2	n/a	n/a	n/a	n/a	n/a
1452.114	n/a	STOP	726057	n/a	LTP110	ltpFR	13	n/a	n/a	n/a	n/a	n/a	n/a	n/a	n/a	n/a	n/a	n/a	n/a	n/a	n/a	n/a	n/a
1453.314	n/a	WORD	726657	wordpools/wasnorm_wordpool.txt	LTP110	ltpFR	13	6	1	BEAN	105	n/a	n/a	0	n/a	0	0	0	0.57763671875	0.412841796875	1	upper	amplitud.ttf
1456.322	n/a	START	728161	n/a	LTP110	ltpFR	13	n/a	n/a	n/a	n/a	n/a	n/a	n/a	n/a	n/a	n/a	n/a	n/a	n/a	n/a	n/a	n/a
1457.264	n/a	PROB	728632	n/a	LTP110	ltpFR	13	n/a	n/a	n/a	n/a	n/a	n/a	n/a	18	7	6	6	n/a	n/a	n/a	n/a	n/a
1458.804	n/a	PROB	729402	n/a	LTP110	ltpFR	13	n/a	n/a	n/a	n/a	n/a	n/a	n/a	13	6	4	3	n/a	n/a	n/a	n/a	n/a
1460.388	n/a	PROB	730194	n/a	LTP110	ltpFR	13	n/a	n/a	n/a	n/a	n/a	n/a	n/a	13	3	3	7	n/a	n/a	n/a	n/a	n/a
1461.362	n/a	PROB	730681	n/a	LTP110	ltpFR	13	n/a	n/a	n/a	n/a	n/a	n/a	n/a	21	8	7	6	n/a	n/a	n/a	n/a	n/a
1462.82	n/a	PROB	731410	n/a	LTP110	ltpFR	13	n/a	n/a	n/a	n/a	n/a	n/a	n/a	11	4	3	4	n/a	n/a	n/a	n/a	n/a
1464.128	n/a	PROB	732064	n/a	LTP110	ltpFR	13	n/a	n/a	n/a	n/a	n/a	n/a	n/a	15	3	7	5	n/a	n/a	n/a	n/a	n/a
1465.552	n/a	PROB	732776	n/a	LTP110	ltpFR	13	n/a	n/a	n/a	n/a	n/a	n/a	n/a	15	7	4	4	n/a	n/a	n/a	n/a	n/a
1466.644	n/a	PROB	733322	n/a	LTP110	ltpFR	13	n/a	n/a	n/a	n/a	n/a	n/a	n/a	15	8	2	5	n/a	n/a	n/a	n/a	n/a
1467.934	n/a	PROB	733967	n/a	LTP110	ltpFR	13	n/a	n/a	n/a	n/a	n/a	n/a	n/a	20	1	9	9	n/a	n/a	n/a	n/a	n/a
1472.324	n/a	STOP	736162	n/a	LTP110	ltpFR	13	n/a	n/a	n/a	n/a	n/a	n/a	n/a	n/a	n/a	n/a	n/a	n/a	n/a	n/a	n/a	n/a
1473.334	n/a	WORD	736667	wordpools/wasnorm_wordpool.txt	LTP110	ltpFR	13	6	1	COLLAR	345	n/a	n/a	0	n/a	0	0	0	0.57763671875	0.412841796875	1	upper	amplitud.ttf
1476.342	n/a	START	738171	n/a	LTP110	ltpFR	13	n/a	n/a	n/a	n/a	n/a	n/a	n/a	n/a	n/a	n/a	n/a	n/a	n/a	n/a	n/a	n/a
1477.548	n/a	PROB	738774	n/a	LTP110	ltpFR	13	n/a	n/a	n/a	n/a	n/a	n/a	n/a	10	3	4	3	n/a	n/a	n/a	n/a	n/a
1479.19	n/a	PROB	739595	n/a	LTP110	ltpFR	13	n/a	n/a	n/a	n/a	n/a	n/a	n/a	15	6	6	3	n/a	n/a	n/a	n/a	n/a
1480.79	n/a	PROB	740395	n/a	LTP110	ltpFR	13	n/a	n/a	n/a	n/a	n/a	n/a	n/a	18	4	5	9	n/a	n/a	n/a	n/a	n/a
1481.948	n/a	PROB	740974	n/a	LTP110	ltpFR	13	n/a	n/a	n/a	n/a	n/a	n/a	n/a	22	7	7	8	n/a	n/a	n/a	n/a	n/a
1483.414	n/a	PROB	741707	n/a	LTP110	ltpFR	13	n/a	n/a	n/a	n/a	n/a	n/a	n/a	14	1	7	6	n/a	n/a	n/a	n/a	n/a
1485.062	n/a	PROB	742531	n/a	LTP110	ltpFR	13	n/a	n/a	n/a	n/a	n/a	n/a	n/a	18	4	5	9	n/a	n/a	n/a	n/a	n/a
1486.338	n/a	PROB	743169	n/a	LTP110	ltpFR	13	n/a	n/a	n/a	n/a	n/a	n/a	n/a	21	9	6	6	n/a	n/a	n/a	n/a	n/a
1488.078	n/a	PROB	744039	n/a	LTP110	ltpFR	13	n/a	n/a	n/a	n/a	n/a	n/a	n/a	14	3	8	3	n/a	n/a	n/a	n/a	n/a
1489.778	n/a	PROB	744889	n/a	LTP110	ltpFR	13	n/a	n/a	n/a	n/a	n/a	n/a	n/a	19	7	5	7	n/a	n/a	n/a	n/a	n/a
1490.992	n/a	STOP	745496	n/a	LTP110	ltpFR	13	n/a	n/a	n/a	n/a	n/a	n/a	n/a	n/a	n/a	n/a	n/a	n/a	n/a	n/a	n/a	n/a
1493.486	n/a	WORD	746743	wordpools/wasnorm_wordpool.txt	LTP110	ltpFR	13	6	0	TUNA	1518	n/a	n/a	1	n/a	0	0	0	0.422607421875	0.5869140625	0	lower	zerothre.ttf
1496.494	n/a	START	748247	n/a	LTP110	ltpFR	13	n/a	n/a	n/a	n/a	n/a	n/a	n/a	n/a	n/a	n/a	n/a	n/a	n/a	n/a	n/a	n/a
1497.326	n/a	PROB	748663	n/a	LTP110	ltpFR	13	n/a	n/a	n/a	n/a	n/a	n/a	n/a	10	4	2	8	n/a	n/a	n/a	n/a	n/a
1499.358	n/a	PROB	749679	n/a	LTP110	ltpFR	13	n/a	n/a	n/a	n/a	n/a	n/a	n/a	17	3	6	8	n/a	n/a	n/a	n/a	n/a
1502.182	n/a	PROB	751091	n/a	LTP110	ltpFR	13	n/a	n/a	n/a	n/a	n/a	n/a	n/a	11	6	1	4	n/a	n/a	n/a	n/a	n/a
1503.14	n/a	PROB	751570	n/a	LTP110	ltpFR	13	n/a	n/a	n/a	n/a	n/a	n/a	n/a	16	1	9	6	n/a	n/a	n/a	n/a	n/a
1504.198	n/a	PROB	752099	n/a	LTP110	ltpFR	13	n/a	n/a	n/a	n/a	n/a	n/a	n/a	18	5	8	5	n/a	n/a	n/a	n/a	n/a
1505.564	n/a	PROB	752782	n/a	LTP110	ltpFR	13	n/a	n/a	n/a	n/a	n/a	n/a	n/a	12	2	3	7	n/a	n/a	n/a	n/a	n/a
1506.922	n/a	PROB	753461	n/a	LTP110	ltpFR	13	n/a	n/a	n/a	n/a	n/a	n/a	n/a	15	3	3	6	n/a	n/a	n/a	n/a	n/a
1508.456	n/a	PROB	754228	n/a	LTP110	ltpFR	13	n/a	n/a	n/a	n/a	n/a	n/a	n/a	23	9	6	8	n/a	n/a	n/a	n/a	n/a
1510.164	n/a	PROB	755082	n/a	LTP110	ltpFR	13	n/a	n/a	n/a	n/a	n/a	n/a	n/a	18	6	4	8	n/a	n/a	n/a	n/a	n/a
1511.506	n/a	STOP	755753	n/a	LTP110	ltpFR	13	n/a	n/a	n/a	n/a	n/a	n/a	n/a	n/a	n/a	n/a	n/a	n/a	n/a	n/a	n/a	n/a
1513.696	n/a	WORD	756848	wordpools/wasnorm_wordpool.txt	LTP110	ltpFR	13	6	0	LUGGAGE	847	n/a	n/a	1	n/a	0	0	0	0.422607421875	0.5869140625	0	lower	zerothre.ttf
1516.704	n/a	START	758352	n/a	LTP110	ltpFR	13	n/a	n/a	n/a	n/a	n/a	n/a	n/a	n/a	n/a	n/a	n/a	n/a	n/a	n/a	n/a	n/a
1517.82	n/a	PROB	758910	n/a	LTP110	ltpFR	13	n/a	n/a	n/a	n/a	n/a	n/a	n/a	12	5	1	6	n/a	n/a	n/a	n/a	n/a
1518.786	n/a	PROB	759393	n/a	LTP110	ltpFR	13	n/a	n/a	n/a	n/a	n/a	n/a	n/a	18	5	8	5	n/a	n/a	n/a	n/a	n/a
1520.278	n/a	PROB	760139	n/a	LTP110	ltpFR	13	n/a	n/a	n/a	n/a	n/a	n/a	n/a	22	9	9	4	n/a	n/a	n/a	n/a	n/a
1522.01	n/a	PROB	761005	n/a	LTP110	ltpFR	13	n/a	n/a	n/a	n/a	n/a	n/a	n/a	17	2	9	6	n/a	n/a	n/a	n/a	n/a
1523.976	n/a	PROB	761988	n/a	LTP110	ltpFR	13	n/a	n/a	n/a	n/a	n/a	n/a	n/a	8	1	3	4	n/a	n/a	n/a	n/a	n/a
1525.076	n/a	PROB	762538	n/a	LTP110	ltpFR	13	n/a	n/a	n/a	n/a	n/a	n/a	n/a	17	8	2	7	n/a	n/a	n/a	n/a	n/a
1526.458	n/a	PROB	763229	n/a	LTP110	ltpFR	13	n/a	n/a	n/a	n/a	n/a	n/a	n/a	7	3	3	1	n/a	n/a	n/a	n/a	n/a
1528.516	n/a	PROB	764258	n/a	LTP110	ltpFR	13	n/a	n/a	n/a	n/a	n/a	n/a	n/a	5	1	2	2	n/a	n/a	n/a	n/a	n/a
1529.5	n/a	PROB	764750	n/a	LTP110	ltpFR	13	n/a	n/a	n/a	n/a	n/a	n/a	n/a	16	5	6	5	n/a	n/a	n/a	n/a	n/a
1531.354	n/a	STOP	765677	n/a	LTP110	ltpFR	13	n/a	n/a	n/a	n/a	n/a	n/a	n/a	n/a	n/a	n/a	n/a	n/a	n/a	n/a	n/a	n/a
1533.59	n/a	WORD	766795	wordpools/wasnorm_wordpool.txt	LTP110	ltpFR	13	6	0	LAUNDRY	803	n/a	n/a	1	n/a	0	0	0	0.422607421875	0.5869140625	0	lower	zerothre.ttf
1536.598	n/a	START	768299	n/a	LTP110	ltpFR	13	n/a	n/a	n/a	n/a	n/a	n/a	n/a	n/a	n/a	n/a	n/a	n/a	n/a	n/a	n/a	n/a
1537.522	n/a	PROB	768761	n/a	LTP110	ltpFR	13	n/a	n/a	n/a	n/a	n/a	n/a	n/a	16	7	3	6	n/a	n/a	n/a	n/a	n/a
1538.814	n/a	PROB	769407	n/a	LTP110	ltpFR	13	n/a	n/a	n/a	n/a	n/a	n/a	n/a	15	4	7	3	n/a	n/a	n/a	n/a	n/a
1539.872	n/a	PROB	769936	n/a	LTP110	ltpFR	13	n/a	n/a	n/a	n/a	n/a	n/a	n/a	18	9	6	3	n/a	n/a	n/a	n/a	n/a
1541.87	n/a	PROB	770935	n/a	LTP110	ltpFR	13	n/a	n/a	n/a	n/a	n/a	n/a	n/a	15	8	3	5	n/a	n/a	n/a	n/a	n/a
1543.12	n/a	PROB	771560	n/a	LTP110	ltpFR	13	n/a	n/a	n/a	n/a	n/a	n/a	n/a	16	6	1	9	n/a	n/a	n/a	n/a	n/a
1544.162	n/a	PROB	772081	n/a	LTP110	ltpFR	13	n/a	n/a	n/a	n/a	n/a	n/a	n/a	7	1	2	4	n/a	n/a	n/a	n/a	n/a
1545.17	n/a	PROB	772585	n/a	LTP110	ltpFR	13	n/a	n/a	n/a	n/a	n/a	n/a	n/a	13	7	5	1	n/a	n/a	n/a	n/a	n/a
1546.252	n/a	PROB	773126	n/a	LTP110	ltpFR	13	n/a	n/a	n/a	n/a	n/a	n/a	n/a	18	1	8	9	n/a	n/a	n/a	n/a	n/a
1547.118	n/a	PROB	773559	n/a	LTP110	ltpFR	13	n/a	n/a	n/a	n/a	n/a	n/a	n/a	14	3	3	8	n/a	n/a	n/a	n/a	n/a
1548.32	n/a	PROB	774160	n/a	LTP110	ltpFR	13	n/a	n/a	n/a	n/a	n/a	n/a	n/a	23	6	9	8	n/a	n/a	n/a	n/a	n/a
1552.6	n/a	STOP	776300	n/a	LTP110	ltpFR	13	n/a	n/a	n/a	n/a	n/a	n/a	n/a	n/a	n/a	n/a	n/a	n/a	n/a	n/a	n/a	n/a
1553.576	n/a	WORD	776788	wordpools/wasnorm_wordpool.txt	LTP110	ltpFR	13	6	1	SCARF	1246	n/a	n/a	0	n/a	0	0	0	0.57763671875	0.412841796875	1	upper	amplitud.ttf
1556.584	n/a	START	778292	n/a	LTP110	ltpFR	13	n/a	n/a	n/a	n/a	n/a	n/a	n/a	n/a	n/a	n/a	n/a	n/a	n/a	n/a	n/a	n/a
1557.416	n/a	PROB	778708	n/a	LTP110	ltpFR	13	n/a	n/a	n/a	n/a	n/a	n/a	n/a	16	6	1	5	n/a	n/a	n/a	n/a	n/a
1558.34	n/a	PROB	779170	n/a	LTP110	ltpFR	13	n/a	n/a	n/a	n/a	n/a	n/a	n/a	19	5	9	5	n/a	n/a	n/a	n/a	n/a
1560.966	n/a	PROB	780483	n/a	LTP110	ltpFR	13	n/a	n/a	n/a	n/a	n/a	n/a	n/a	12	4	7	1	n/a	n/a	n/a	n/a	n/a
1561.856	n/a	PROB	780928	n/a	LTP110	ltpFR	13	n/a	n/a	n/a	n/a	n/a	n/a	n/a	5	1	1	3	n/a	n/a	n/a	n/a	n/a
1563.998	n/a	PROB	781999	n/a	LTP110	ltpFR	13	n/a	n/a	n/a	n/a	n/a	n/a	n/a	14	8	3	3	n/a	n/a	n/a	n/a	n/a
1565.622	n/a	PROB	782811	n/a	LTP110	ltpFR	13	n/a	n/a	n/a	n/a	n/a	n/a	n/a	20	7	8	5	n/a	n/a	n/a	n/a	n/a
1567.53	n/a	PROB	783765	n/a	LTP110	ltpFR	13	n/a	n/a	n/a	n/a	n/a	n/a	n/a	21	6	9	5	n/a	n/a	n/a	n/a	n/a
1569.004	n/a	PROB	784502	n/a	LTP110	ltpFR	13	n/a	n/a	n/a	n/a	n/a	n/a	n/a	19	7	5	7	n/a	n/a	n/a	n/a	n/a
1570.62	n/a	PROB	785310	n/a	LTP110	ltpFR	13	n/a	n/a	n/a	n/a	n/a	n/a	n/a	3	1	1	1	n/a	n/a	n/a	n/a	n/a
1571.316	n/a	STOP	785658	n/a	LTP110	ltpFR	13	n/a	n/a	n/a	n/a	n/a	n/a	n/a	n/a	n/a	n/a	n/a	n/a	n/a	n/a	n/a	n/a
1573.728	n/a	WORD	786864	wordpools/wasnorm_wordpool.txt	LTP110	ltpFR	13	6	1	TOTE	1487	n/a	n/a	0	n/a	0	0	0	0.57763671875	0.412841796875	1	upper	amplitud.ttf
1576.736	n/a	START	788368	n/a	LTP110	ltpFR	13	n/a	n/a	n/a	n/a	n/a	n/a	n/a	n/a	n/a	n/a	n/a	n/a	n/a	n/a	n/a	n/a
1577.876	n/a	PROB	788938	n/a	LTP110	ltpFR	13	n/a	n/a	n/a	n/a	n/a	n/a	n/a	12	1	6	5	n/a	n/a	n/a	n/a	n/a
1578.744	n/a	PROB	789372	n/a	LTP110	ltpFR	13	n/a	n/a	n/a	n/a	n/a	n/a	n/a	17	9	7	1	n/a	n/a	n/a	n/a	n/a
1579.676	n/a	PROB	789838	n/a	LTP110	ltpFR	13	n/a	n/a	n/a	n/a	n/a	n/a	n/a	17	8	6	3	n/a	n/a	n/a	n/a	n/a
1582.076	n/a	PROB	791038	n/a	LTP110	ltpFR	13	n/a	n/a	n/a	n/a	n/a	n/a	n/a	21	4	8	9	n/a	n/a	n/a	n/a	n/a
1583.458	n/a	PROB	791729	n/a	LTP110	ltpFR	13	n/a	n/a	n/a	n/a	n/a	n/a	n/a	17	6	9	2	n/a	n/a	n/a	n/a	n/a
1586.24	n/a	PROB	793120	n/a	LTP110	ltpFR	13	n/a	n/a	n/a	n/a	n/a	n/a	n/a	10	3	3	4	n/a	n/a	n/a	n/a	n/a
1589.14	n/a	PROB	794570	n/a	LTP110	ltpFR	13	n/a	n/a	n/a	n/a	n/a	n/a	n/a	25	9	7	9	n/a	n/a	n/a	n/a	n/a
1591.014	n/a	PROB	795507	n/a	LTP110	ltpFR	13	n/a	n/a	n/a	n/a	n/a	n/a	n/a	12	5	2	5	n/a	n/a	n/a	n/a	n/a
1592.014	n/a	STOP	796007	n/a	LTP110	ltpFR	13	n/a	n/a	n/a	n/a	n/a	n/a	n/a	n/a	n/a	n/a	n/a	n/a	n/a	n/a	n/a	n/a
1593.922	n/a	WORD	796961	wordpools/wasnorm_wordpool.txt	LTP110	ltpFR	13	6	0	SQUID	1361	n/a	n/a	1	n/a	0	0	0	0.422607421875	0.5869140625	0	lower	zerothre.ttf
1596.93	n/a	START	798465	n/a	LTP110	ltpFR	13	n/a	n/a	n/a	n/a	n/a	n/a	n/a	n/a	n/a	n/a	n/a	n/a	n/a	n/a	n/a	n/a
1598.112	n/a	PROB	799056	n/a	LTP110	ltpFR	13	n/a	n/a	n/a	n/a	n/a	n/a	n/a	10	3	1	6	n/a	n/a	n/a	n/a	n/a
1599.512	n/a	PROB	799756	n/a	LTP110	ltpFR	13	n/a	n/a	n/a	n/a	n/a	n/a	n/a	17	6	5	6	n/a	n/a	n/a	n/a	n/a
1601.178	n/a	PROB	800589	n/a	LTP110	ltpFR	13	n/a	n/a	n/a	n/a	n/a	n/a	n/a	17	6	6	5	n/a	n/a	n/a	n/a	n/a
1602.886	n/a	PROB	801443	n/a	LTP110	ltpFR	13	n/a	n/a	n/a	n/a	n/a	n/a	n/a	13	4	4	5	n/a	n/a	n/a	n/a	n/a
1605.91	n/a	PROB	802955	n/a	LTP110	ltpFR	13	n/a	n/a	n/a	n/a	n/a	n/a	n/a	14	5	6	3	n/a	n/a	n/a	n/a	n/a
1607.576	n/a	PROB	803788	n/a	LTP110	ltpFR	13	n/a	n/a	n/a	n/a	n/a	n/a	n/a	17	1	9	7	n/a	n/a	n/a	n/a	n/a
1608.676	n/a	PROB	804338	n/a	LTP110	ltpFR	13	n/a	n/a	n/a	n/a	n/a	n/a	n/a	17	5	8	4	n/a	n/a	n/a	n/a	n/a
1610.108	n/a	PROB	805054	n/a	LTP110	ltpFR	13	n/a	n/a	n/a	n/a	n/a	n/a	n/a	19	7	6	6	n/a	n/a	n/a	n/a	n/a
1611.558	n/a	STOP	805779	n/a	LTP110	ltpFR	13	n/a	n/a	n/a	n/a	n/a	n/a	n/a	n/a	n/a	n/a	n/a	n/a	n/a	n/a	n/a	n/a
1613.758	n/a	WORD	806879	wordpools/wasnorm_wordpool.txt	LTP110	ltpFR	13	6	0	COYOTE	396	n/a	n/a	1	n/a	0	0	0	0.422607421875	0.5869140625	0	lower	zerothre.ttf
1616.766	n/a	START	808383	n/a	LTP110	ltpFR	13	n/a	n/a	n/a	n/a	n/a	n/a	n/a	n/a	n/a	n/a	n/a	n/a	n/a	n/a	n/a	n/a
1617.822	n/a	PROB	808911	n/a	LTP110	ltpFR	13	n/a	n/a	n/a	n/a	n/a	n/a	n/a	21	9	9	3	n/a	n/a	n/a	n/a	n/a
1619.156	n/a	PROB	809578	n/a	LTP110	ltpFR	13	n/a	n/a	n/a	n/a	n/a	n/a	n/a	18	8	8	2	n/a	n/a	n/a	n/a	n/a
1620.764	n/a	PROB	810382	n/a	LTP110	ltpFR	13	n/a	n/a	n/a	n/a	n/a	n/a	n/a	14	1	9	4	n/a	n/a	n/a	n/a	n/a
1621.772	n/a	PROB	810886	n/a	LTP110	ltpFR	13	n/a	n/a	n/a	n/a	n/a	n/a	n/a	19	4	9	6	n/a	n/a	n/a	n/a	n/a
1623.48	n/a	PROB	811740	n/a	LTP110	ltpFR	13	n/a	n/a	n/a	n/a	n/a	n/a	n/a	16	3	5	8	n/a	n/a	n/a	n/a	n/a
1625.412	n/a	PROB	812706	n/a	LTP110	ltpFR	13	n/a	n/a	n/a	n/a	n/a	n/a	n/a	14	3	9	2	n/a	n/a	n/a	n/a	n/a
1626.988	n/a	PROB	813494	n/a	LTP110	ltpFR	13	n/a	n/a	n/a	n/a	n/a	n/a	n/a	14	6	5	3	n/a	n/a	n/a	n/a	n/a
1629.244	n/a	PROB	814622	n/a	LTP110	ltpFR	13	n/a	n/a	n/a	n/a	n/a	n/a	n/a	11	6	4	1	n/a	n/a	n/a	n/a	n/a
1630.394	n/a	PROB	815197	n/a	LTP110	ltpFR	13	n/a	n/a	n/a	n/a	n/a	n/a	n/a	12	5	3	4	n/a	n/a	n/a	n/a	n/a
1631.688	n/a	STOP	815844	n/a	LTP110	ltpFR	13	n/a	n/a	n/a	n/a	n/a	n/a	n/a	n/a	n/a	n/a	n/a	n/a	n/a	n/a	n/a	n/a
1633.626	n/a	WORD	816813	wordpools/wasnorm_wordpool.txt	LTP110	ltpFR	13	6	0	WARDROBE	1587	n/a	n/a	1	n/a	0	0	0	0.422607421875	0.5869140625	0	lower	zerothre.ttf
1636.634	n/a	START	818317	n/a	LTP110	ltpFR	13	n/a	n/a	n/a	n/a	n/a	n/a	n/a	n/a	n/a	n/a	n/a	n/a	n/a	n/a	n/a	n/a
1637.8	n/a	PROB	818900	n/a	LTP110	ltpFR	13	n/a	n/a	n/a	n/a	n/a	n/a	n/a	12	7	3	2	n/a	n/a	n/a	n/a	n/a
1639.708	n/a	PROB	819854	n/a	LTP110	ltpFR	13	n/a	n/a	n/a	n/a	n/a	n/a	n/a	16	6	6	4	n/a	n/a	n/a	n/a	n/a
1641.874	n/a	PROB	820937	n/a	LTP110	ltpFR	13	n/a	n/a	n/a	n/a	n/a	n/a	n/a	17	5	4	8	n/a	n/a	n/a	n/a	n/a
1643.24	n/a	PROB	821620	n/a	LTP110	ltpFR	13	n/a	n/a	n/a	n/a	n/a	n/a	n/a	22	9	7	6	n/a	n/a	n/a	n/a	n/a
1645.232	n/a	PROB	822616	n/a	LTP110	ltpFR	13	n/a	n/a	n/a	n/a	n/a	n/a	n/a	13	1	4	7	n/a	n/a	n/a	n/a	n/a
1646.498	n/a	PROB	823249	n/a	LTP110	ltpFR	13	n/a	n/a	n/a	n/a	n/a	n/a	n/a	14	6	7	1	n/a	n/a	n/a	n/a	n/a
1648.022	n/a	PROB	824011	n/a	LTP110	ltpFR	13	n/a	n/a	n/a	n/a	n/a	n/a	n/a	25	9	8	8	n/a	n/a	n/a	n/a	n/a
1650.872	n/a	PROB	825436	n/a	LTP110	ltpFR	13	n/a	n/a	n/a	n/a	n/a	n/a	n/a	6	2	3	1	n/a	n/a	n/a	n/a	n/a
1652.192	n/a	STOP	826096	n/a	LTP110	ltpFR	13	n/a	n/a	n/a	n/a	n/a	n/a	n/a	n/a	n/a	n/a	n/a	n/a	n/a	n/a	n/a	n/a
1654.504	n/a	REC_START	827252	n/a	LTP110	ltpFR	13	6	n/a	n/a	n/a	n/a	n/a	n/a	n/a	0	0	0	n/a	n/a	n/a	n/a	n/a
1657.302	n/a	REC_WORD	828651	wordpools/wasnorm_wordpool.txt	LTP110	ltpFR	13	6	0	INSECT	740	n/a	n/a	0	n/a	0	0	0	n/a	n/a	n/a	n/a	n/a
1658.022	n/a	REC_WORD	829011	wordpools/wasnorm_wordpool.txt	LTP110	ltpFR	13	6	0	CRICKET	408	n/a	n/a	0	n/a	0	0	0	n/a	n/a	n/a	n/a	n/a
1658.55	n/a	REC_WORD	829275	wordpools/wasnorm_wordpool.txt	LTP110	ltpFR	13	6	1	VOLCANO	1575	n/a	n/a	0	n/a	0	0	0	n/a	n/a	n/a	n/a	n/a
1659.578	n/a	REC_WORD	829789	wordpools/wasnorm_wordpool.txt	LTP110	ltpFR	13	6	1	BED	110	n/a	n/a	0	n/a	0	0	0	n/a	n/a	n/a	n/a	n/a
1660.166	n/a	REC_WORD	830083	wordpools/wasnorm_wordpool.txt	LTP110	ltpFR	13	6	1	BEAN	105	n/a	n/a	0	n/a	0	0	0	n/a	n/a	n/a	n/a	n/a
1660.736	n/a	REC_WORD	830368	wordpools/wasnorm_wordpool.txt	LTP110	ltpFR	13	6	1	BROCCOLI	176	n/a	n/a	0	n/a	0	0	0	n/a	n/a	n/a	n/a	n/a
1664.002	n/a	REC_WORD	832001	wordpools/wasnorm_wordpool.txt	LTP110	ltpFR	13	6	0	COYOTE	396	n/a	n/a	1	n/a	0	0	0	n/a	n/a	n/a	n/a	n/a
1670.404	n/a	REC_WORD	835202	wordpools/wasnorm_wordpool.txt	LTP110	ltpFR	13	6	1	COLLAR	345	n/a	n/a	0	n/a	0	0	0	n/a	n/a	n/a	n/a	n/a
1698.766	n/a	REC_WORD	849383	wordpools/wasnorm_wordpool.txt	LTP110	ltpFR	13	6	1	SCARF	1246	n/a	n/a	0	n/a	0	0	0	n/a	n/a	n/a	n/a	n/a
1710.17	n/a	REC_WORD	855085	wordpools/wasnorm_wordpool.txt	LTP110	ltpFR	13	6	1	SHRINE	1298	n/a	n/a	0	n/a	0	0	0	n/a	n/a	n/a	n/a	n/a
1734.454	n/a	WORD	867227	wordpools/wasnorm_wordpool.txt	LTP110	ltpFR	13	7	1	FARM	552	n/a	n/a	0	n/a	0	0	0	0.57763671875	0.412841796875	1	upper	amplitud.ttf
1738.312	n/a	WORD	869156	wordpools/wasnorm_wordpool.txt	LTP110	ltpFR	13	7	1	ASSISTANT	48	n/a	n/a	1	n/a	0	0	0	0.57763671875	0.412841796875	1	upper	amplitud.ttf
1742.186	n/a	WORD	871093	wordpools/wasnorm_wordpool.txt	LTP110	ltpFR	13	7	1	ELF	525	n/a	n/a	1	n/a	0	0	0	0.57763671875	0.412841796875	1	upper	amplitud.ttf
1746.084	n/a	WORD	873042	wordpools/wasnorm_wordpool.txt	LTP110	ltpFR	13	7	1	CHAPEL	280	n/a	n/a	0	n/a	0	0	0	0.57763671875	0.412841796875	1	upper	amplitud.ttf
1750.258	n/a	WORD	875129	wordpools/wasnorm_wordpool.txt	LTP110	ltpFR	13	7	1	JET	756	n/a	n/a	0	n/a	0	0	0	0.57763671875	0.412841796875	1	upper	amplitud.ttf
1754.382	n/a	WORD	877191	wordpools/wasnorm_wordpool.txt	LTP110	ltpFR	13	7	1	COB	334	n/a	n/a	0	n/a	0	0	0	0.57763671875	0.412841796875	1	upper	amplitud.ttf
1758.564	n/a	WORD	879282	wordpools/wasnorm_wordpool.txt	LTP110	ltpFR	13	7	1	NECKLACE	940	n/a	n/a	0	n/a	0	0	0	0.57763671875	0.412841796875	1	upper	amplitud.ttf
1762.612	n/a	WORD	881306	wordpools/wasnorm_wordpool.txt	LTP110	ltpFR	13	7	1	AIRPORT	13	n/a	n/a	0	n/a	0	0	0	0.57763671875	0.412841796875	1	upper	amplitud.ttf
1766.736	n/a	WORD	883368	wordpools/wasnorm_wordpool.txt	LTP110	ltpFR	13	7	1	TRICYCLE	1506	n/a	n/a	0	n/a	0	0	0	0.57763671875	0.412841796875	1	upper	amplitud.ttf
1770.852	n/a	WORD	885426	wordpools/wasnorm_wordpool.txt	LTP110	ltpFR	13	7	1	DETECTIVE	454	n/a	n/a	1	n/a	0	0	0	0.57763671875	0.412841796875	1	upper	amplitud.ttf
1774.976	n/a	WORD	887488	wordpools/wasnorm_wordpool.txt	LTP110	ltpFR	13	7	1	COP	376	n/a	n/a	1	n/a	0	0	0	0.57763671875	0.412841796875	1	upper	amplitud.ttf
1779.14	n/a	WORD	889570	wordpools/wasnorm_wordpool.txt	LTP110	ltpFR	13	7	1	TOAST	1471	n/a	n/a	0	n/a	0	0	0	0.57763671875	0.412841796875	1	upper	amplitud.ttf
1783.14	n/a	WORD	891570	wordpools/wasnorm_wordpool.txt	LTP110	ltpFR	13	7	1	JAR	750	n/a	n/a	0	n/a	0	0	0	0.57763671875	0.412841796875	1	upper	amplitud.ttf
1787.246	n/a	WORD	893623	wordpools/wasnorm_wordpool.txt	LTP110	ltpFR	13	7	1	VITAMIN	1574	n/a	n/a	0	n/a	0	0	0	0.57763671875	0.412841796875	1	upper	amplitud.ttf
1791.262	n/a	WORD	895631	wordpools/wasnorm_wordpool.txt	LTP110	ltpFR	13	7	1	COLUMN	350	n/a	n/a	0	n/a	0	0	0	0.57763671875	0.412841796875	1	upper	amplitud.ttf
1795.118	n/a	WORD	897559	wordpools/wasnorm_wordpool.txt	LTP110	ltpFR	13	7	1	MINER	896	n/a	n/a	1	n/a	0	0	0	0.57763671875	0.412841796875	1	upper	amplitud.ttf
1798.126	n/a	START	899063	n/a	LTP110	ltpFR	13	n/a	n/a	n/a	n/a	n/a	n/a	n/a	n/a	n/a	n/a	n/a	n/a	n/a	n/a	n/a	n/a
1799.31	n/a	PROB	899655	n/a	LTP110	ltpFR	13	n/a	n/a	n/a	n/a	n/a	n/a	n/a	25	9	8	8	n/a	n/a	n/a	n/a	n/a
1801.41	n/a	PROB	900705	n/a	LTP110	ltpFR	13	n/a	n/a	n/a	n/a	n/a	n/a	n/a	12	4	6	2	n/a	n/a	n/a	n/a	n/a
1802.466	n/a	PROB	901233	n/a	LTP110	ltpFR	13	n/a	n/a	n/a	n/a	n/a	n/a	n/a	23	6	9	8	n/a	n/a	n/a	n/a	n/a
1804.616	n/a	STOP	902308	n/a	LTP110	ltpFR	13	n/a	n/a	n/a	n/a	n/a	n/a	n/a	n/a	n/a	n/a	n/a	n/a	n/a	n/a	n/a	n/a
1807.874	n/a	REC_START	903937	n/a	LTP110	ltpFR	13	7	n/a	n/a	n/a	n/a	n/a	n/a	n/a	0	0	0	n/a	n/a	n/a	n/a	n/a
1809.834	n/a	REC_WORD	904917	wordpools/wasnorm_wordpool.txt	LTP110	ltpFR	13	7	1	FARM	552	n/a	n/a	0	n/a	0	0	0	n/a	n/a	n/a	n/a	n/a
1810.518	n/a	REC_WORD	905259	wordpools/wasnorm_wordpool.txt	LTP110	ltpFR	13	7	1	ASSISTANT	48	n/a	n/a	1	n/a	0	0	0	n/a	n/a	n/a	n/a	n/a
1811.54	n/a	REC_WORD	905770	wordpools/wasnorm_wordpool.txt	LTP110	ltpFR	13	7	1	ELF	525	n/a	n/a	1	n/a	0	0	0	n/a	n/a	n/a	n/a	n/a
1813.088	n/a	REC_WORD	906544	wordpools/wasnorm_wordpool.txt	LTP110	ltpFR	13	7	1	CHAPEL	280	n/a	n/a	0	n/a	0	0	0	n/a	n/a	n/a	n/a	n/a
1815.038	n/a	REC_WORD	907519	wordpools/wasnorm_wordpool.txt	LTP110	ltpFR	13	7	1	COLUMN	350	n/a	n/a	0	n/a	0	0	0	n/a	n/a	n/a	n/a	n/a
1815.726	n/a	REC_WORD	907863	wordpools/wasnorm_wordpool.txt	LTP110	ltpFR	13	7	1	NECKLACE	940	n/a	n/a	0	n/a	0	0	0	n/a	n/a	n/a	n/a	n/a
1816.46	n/a	REC_WORD	908230	wordpools/wasnorm_wordpool.txt	LTP110	ltpFR	13	7	1	JET	756	n/a	n/a	0	n/a	0	0	0	n/a	n/a	n/a	n/a	n/a
1817.174	n/a	REC_WORD	908587	wordpools/wasnorm_wordpool.txt	LTP110	ltpFR	13	7	1	AIRPORT	13	n/a	n/a	0	n/a	0	0	0	n/a	n/a	n/a	n/a	n/a
1819.154	n/a	REC_WORD	909577	wordpools/wasnorm_wordpool.txt	LTP110	ltpFR	13	7	1	MINER	896	n/a	n/a	1	n/a	0	0	0	n/a	n/a	n/a	n/a	n/a
1820.83	n/a	REC_WORD	910415	wordpools/wasnorm_wordpool.txt	LTP110	ltpFR	13	7	1	TOAST	1471	n/a	n/a	0	n/a	0	0	0	n/a	n/a	n/a	n/a	n/a
1826.128	n/a	REC_WORD	913064	wordpools/wasnorm_wordpool.txt	LTP110	ltpFR	13	7	1	JAR	750	n/a	n/a	0	n/a	0	0	0	n/a	n/a	n/a	n/a	n/a
1833.732	n/a	REC_WORD	916866	wordpools/wasnorm_wordpool.txt	LTP110	ltpFR	13	7	1	TRICYCLE	1506	n/a	n/a	0	n/a	0	0	0	n/a	n/a	n/a	n/a	n/a
1835.538	n/a	REC_WORD	917769	wordpools/wasnorm_wordpool.txt	LTP110	ltpFR	13	7	1	DETECTIVE	454	n/a	n/a	1	n/a	0	0	0	n/a	n/a	n/a	n/a	n/a
1836.39	n/a	REC_WORD	918195	wordpools/wasnorm_wordpool.txt	LTP110	ltpFR	13	7	1	COP	376	n/a	n/a	1	n/a	0	0	0	n/a	n/a	n/a	n/a	n/a
1844.792	n/a	REC_WORD	922396	wordpools/wasnorm_wordpool.txt	LTP110	ltpFR	13	7	1	COB	334	n/a	n/a	0	n/a	0	0	0	n/a	n/a	n/a	n/a	n/a
1886.034	n/a	WORD	943017	wordpools/wasnorm_wordpool.txt	LTP110	ltpFR	13	8	1	GULL	671	n/a	n/a	1	n/a	0	0	0	0.57763671875	0.412841796875	1	upper	amplitud.ttf
1890.098	n/a	WORD	945049	wordpools/wasnorm_wordpool.txt	LTP110	ltpFR	13	8	1	SOCIETY	1338	n/a	n/a	0	n/a	0	0	0	0.57763671875	0.412841796875	1	upper	amplitud.ttf
1894.072	n/a	WORD	947036	wordpools/wasnorm_wordpool.txt	LTP110	ltpFR	13	8	1	LAMB	797	n/a	n/a	1	n/a	0	0	0	0.57763671875	0.412841796875	1	upper	amplitud.ttf
1898.106	n/a	WORD	949053	wordpools/wasnorm_wordpool.txt	LTP110	ltpFR	13	8	1	STRAWBERRY	1391	n/a	n/a	0	n/a	0	0	0	0.57763671875	0.412841796875	1	upper	amplitud.ttf
1902.262	n/a	WORD	951131	wordpools/wasnorm_wordpool.txt	LTP110	ltpFR	13	8	1	SEAL	1262	n/a	n/a	1	n/a	0	0	0	0.57763671875	0.412841796875	1	upper	amplitud.ttf
1906.252	n/a	WORD	953126	wordpools/wasnorm_wordpool.txt	LTP110	ltpFR	13	8	1	PERSONNEL	1053	n/a	n/a	1	n/a	0	0	0	0.57763671875	0.412841796875	1	upper	amplitud.ttf
1910.31	n/a	WORD	955155	wordpools/wasnorm_wordpool.txt	LTP110	ltpFR	13	8	1	WHISKERS	1605	n/a	n/a	0	n/a	0	0	0	0.57763671875	0.412841796875	1	upper	amplitud.ttf
1914.316	n/a	WORD	957158	wordpools/wasnorm_wordpool.txt	LTP110	ltpFR	13	8	1	FRECKLE	602	n/a	n/a	0	n/a	0	0	0	0.57763671875	0.412841796875	1	upper	amplitud.ttf
1918.216	n/a	WORD	959108	wordpools/wasnorm_wordpool.txt	LTP110	ltpFR	13	8	1	ARENA	37	n/a	n/a	0	n/a	0	0	0	0.57763671875	0.412841796875	1	upper	amplitud.ttf
1922.148	n/a	WORD	961074	wordpools/wasnorm_wordpool.txt	LTP110	ltpFR	13	8	1	INCENSE	735	n/a	n/a	0	n/a	0	0	0	0.57763671875	0.412841796875	1	upper	amplitud.ttf
1926.296	n/a	WORD	963148	wordpools/wasnorm_wordpool.txt	LTP110	ltpFR	13	8	1	SKUNK	1321	n/a	n/a	1	n/a	0	0	0	0.57763671875	0.412841796875	1	upper	amplitud.ttf
1930.328	n/a	WORD	965164	wordpools/wasnorm_wordpool.txt	LTP110	ltpFR	13	8	1	TIGER	1467	n/a	n/a	1	n/a	0	0	0	0.57763671875	0.412841796875	1	upper	amplitud.ttf
1934.394	n/a	WORD	967197	wordpools/wasnorm_wordpool.txt	LTP110	ltpFR	13	8	1	PERCH	1048	n/a	n/a	0	n/a	0	0	0	0.57763671875	0.412841796875	1	upper	amplitud.ttf
1938.51	n/a	WORD	969255	wordpools/wasnorm_wordpool.txt	LTP110	ltpFR	13	8	1	SLIDE	1326	n/a	n/a	0	n/a	0	0	0	0.57763671875	0.412841796875	1	upper	amplitud.ttf
1942.634	n/a	WORD	971317	wordpools/wasnorm_wordpool.txt	LTP110	ltpFR	13	8	1	HINGE	709	n/a	n/a	0	n/a	0	0	0	0.57763671875	0.412841796875	1	upper	amplitud.ttf
1946.532	n/a	WORD	973266	wordpools/wasnorm_wordpool.txt	LTP110	ltpFR	13	8	1	PARCEL	1012	n/a	n/a	0	n/a	0	0	0	0.57763671875	0.412841796875	1	upper	amplitud.ttf
1949.54	n/a	START	974770	n/a	LTP110	ltpFR	13	n/a	n/a	n/a	n/a	n/a	n/a	n/a	n/a	n/a	n/a	n/a	n/a	n/a	n/a	n/a	n/a
1950.364	n/a	PROB	975182	n/a	LTP110	ltpFR	13	n/a	n/a	n/a	n/a	n/a	n/a	n/a	9	3	1	5	n/a	n/a	n/a	n/a	n/a
1951.73	n/a	PROB	975865	n/a	LTP110	ltpFR	13	n/a	n/a	n/a	n/a	n/a	n/a	n/a	22	6	9	3	n/a	n/a	n/a	n/a	n/a
1953.856	n/a	PROB	976928	n/a	LTP110	ltpFR	13	n/a	n/a	n/a	n/a	n/a	n/a	n/a	19	9	1	9	n/a	n/a	n/a	n/a	n/a
1955.23	n/a	PROB	977615	n/a	LTP110	ltpFR	13	n/a	n/a	n/a	n/a	n/a	n/a	n/a	19	4	9	6	n/a	n/a	n/a	n/a	n/a
1956.404	n/a	PROB	978202	n/a	LTP110	ltpFR	13	n/a	n/a	n/a	n/a	n/a	n/a	n/a	21	3	9	9	n/a	n/a	n/a	n/a	n/a
1957.846	n/a	PROB	978923	n/a	LTP110	ltpFR	13	n/a	n/a	n/a	n/a	n/a	n/a	n/a	15	3	9	3	n/a	n/a	n/a	n/a	n/a
1958.978	n/a	PROB	979489	n/a	LTP110	ltpFR	13	n/a	n/a	n/a	n/a	n/a	n/a	n/a	10	2	4	4	n/a	n/a	n/a	n/a	n/a
1961.46	n/a	PROB	980730	n/a	LTP110	ltpFR	13	n/a	n/a	n/a	n/a	n/a	n/a	n/a	14	2	3	9	n/a	n/a	n/a	n/a	n/a
1962.568	n/a	PROB	981284	n/a	LTP110	ltpFR	13	n/a	n/a	n/a	n/a	n/a	n/a	n/a	15	9	4	2	n/a	n/a	n/a	n/a	n/a
1963.81	n/a	PROB	981905	n/a	LTP110	ltpFR	13	n/a	n/a	n/a	n/a	n/a	n/a	n/a	15	7	6	2	n/a	n/a	n/a	n/a	n/a
1964.92	n/a	STOP	982460	n/a	LTP110	ltpFR	13	n/a	n/a	n/a	n/a	n/a	n/a	n/a	n/a	n/a	n/a	n/a	n/a	n/a	n/a	n/a	n/a
1967.342	n/a	REC_START	983671	n/a	LTP110	ltpFR	13	8	n/a	n/a	n/a	n/a	n/a	n/a	n/a	0	0	0	n/a	n/a	n/a	n/a	n/a
1968.684	n/a	REC_WORD	984342	wordpools/wasnorm_wordpool.txt	LTP110	ltpFR	13	8	1	PERCH	1048	n/a	n/a	0	n/a	0	0	0	n/a	n/a	n/a	n/a	n/a
1969.294	n/a	REC_WORD	984647	wordpools/wasnorm_wordpool.txt	LTP110	ltpFR	13	8	1	HINGE	709	n/a	n/a	0	n/a	0	0	0	n/a	n/a	n/a	n/a	n/a
1969.808	n/a	REC_WORD	984904	wordpools/wasnorm_wordpool.txt	LTP110	ltpFR	13	8	1	ARENA	37	n/a	n/a	0	n/a	0	0	0	n/a	n/a	n/a	n/a	n/a
1970.59	n/a	REC_WORD	985295	wordpools/wasnorm_wordpool.txt	LTP110	ltpFR	13	8	1	TIGER	1467	n/a	n/a	1	n/a	0	0	0	n/a	n/a	n/a	n/a	n/a
1971.288	n/a	REC_WORD	985644	wordpools/wasnorm_wordpool.txt	LTP110	ltpFR	13	8	1	SKUNK	1321	n/a	n/a	1	n/a	0	0	0	n/a	n/a	n/a	n/a	n/a
1971.962	n/a	REC_WORD	985981	wordpools/wasnorm_wordpool.txt	LTP110	ltpFR	13	8	1	INCENSE	735	n/a	n/a	0	n/a	0	0	0	n/a	n/a	n/a	n/a	n/a
1973.62	n/a	REC_WORD	986810	wordpools/wasnorm_wordpool.txt	LTP110	ltpFR	13	8	1	SOCIETY	1338	n/a	n/a	0	n/a	0	0	0	n/a	n/a	n/a	n/a	n/a
1974.468	n/a	REC_WORD	987234	wordpools/wasnorm_wordpool.txt	LTP110	ltpFR	13	8	1	PERSONNEL	1053	n/a	n/a	1	n/a	0	0	0	n/a	n/a	n/a	n/a	n/a
1975.864	n/a	REC_WORD	987932	wordpools/wasnorm_wordpool.txt	LTP110	ltpFR	13	8	1	SEAL	1262	n/a	n/a	1	n/a	0	0	0	n/a	n/a	n/a	n/a	n/a
1976.43	n/a	REC_WORD	988215	wordpools/wasnorm_wordpool.txt	LTP110	ltpFR	13	8	1	WHISKERS	1605	n/a	n/a	0	n/a	0	0	0	n/a	n/a	n/a	n/a	n/a
1980.024	n/a	REC_WORD	990012	wordpools/wasnorm_wordpool.txt	LTP110	ltpFR	13	8	1	FRECKLE	602	n/a	n/a	0	n/a	0	0	0	n/a	n/a	n/a	n/a	n/a
1990.536	n/a	REC_WORD	995268	wordpools/wasnorm_wordpool.txt	LTP110	ltpFR	13	8	1	SKUNK	1321	n/a	n/a	1	n/a	0	0	0	n/a	n/a	n/a	n/a	n/a
1995.026	n/a	REC_WORD	997513	wordpools/wasnorm_wordpool.txt	LTP110	ltpFR	13	8	1	SLIDE	1326	n/a	n/a	0	n/a	0	0	0	n/a	n/a	n/a	n/a	n/a
2020.644	n/a	REC_WORD	1010322	wordpools/wasnorm_wordpool.txt	LTP110	ltpFR	13	8	1	GULL	671	n/a	n/a	1	n/a	0	0	0	n/a	n/a	n/a	n/a	n/a
2022.52	n/a	REC_WORD	1011260	wordpools/wasnorm_wordpool.txt	LTP110	ltpFR	13	8	1	LAMB	797	n/a	n/a	1	n/a	0	0	0	n/a	n/a	n/a	n/a	n/a
2023.642	n/a	REC_WORD	1011821	wordpools/wasnorm_wordpool.txt	LTP110	ltpFR	13	8	1	STRAWBERRY	1391	n/a	n/a	0	n/a	0	0	0	n/a	n/a	n/a	n/a	n/a
2046.21	n/a	START	1023105	n/a	LTP110	ltpFR	13	n/a	n/a	n/a	n/a	n/a	n/a	n/a	n/a	n/a	n/a	n/a	n/a	n/a	n/a	n/a	n/a
2047.718	n/a	PROB	1023859	n/a	LTP110	ltpFR	13	n/a	n/a	n/a	n/a	n/a	n/a	n/a	11	5	4	2	n/a	n/a	n/a	n/a	n/a
2049.034	n/a	PROB	1024517	n/a	LTP110	ltpFR	13	n/a	n/a	n/a	n/a	n/a	n/a	n/a	11	2	2	7	n/a	n/a	n/a	n/a	n/a
2051.308	n/a	PROB	1025654	n/a	LTP110	ltpFR	13	n/a	n/a	n/a	n/a	n/a	n/a	n/a	12	4	1	7	n/a	n/a	n/a	n/a	n/a
2052.316	n/a	PROB	1026158	n/a	LTP110	ltpFR	13	n/a	n/a	n/a	n/a	n/a	n/a	n/a	12	5	3	4	n/a	n/a	n/a	n/a	n/a
2053.486	n/a	STOP	1026743	n/a	LTP110	ltpFR	13	n/a	n/a	n/a	n/a	n/a	n/a	n/a	n/a	n/a	n/a	n/a	n/a	n/a	n/a	n/a	n/a
2055.4	n/a	WORD	1027700	wordpools/wasnorm_wordpool.txt	LTP110	ltpFR	13	9	1	FLANNEL	574	n/a	n/a	0	n/a	0	0	0	0.57763671875	0.412841796875	1	upper	amplitud.ttf
2058.406	n/a	START	1029203	n/a	LTP110	ltpFR	13	n/a	n/a	n/a	n/a	n/a	n/a	n/a	n/a	n/a	n/a	n/a	n/a	n/a	n/a	n/a	n/a
2059.248	n/a	PROB	1029624	n/a	LTP110	ltpFR	13	n/a	n/a	n/a	n/a	n/a	n/a	n/a	14	6	5	3	n/a	n/a	n/a	n/a	n/a
2061.138	n/a	PROB	1030569	n/a	LTP110	ltpFR	13	n/a	n/a	n/a	n/a	n/a	n/a	n/a	16	3	4	9	n/a	n/a	n/a	n/a	n/a
2062.988	n/a	PROB	1031494	n/a	LTP110	ltpFR	13	n/a	n/a	n/a	n/a	n/a	n/a	n/a	22	8	7	7	n/a	n/a	n/a	n/a	n/a
2064.338	n/a	PROB	1032169	n/a	LTP110	ltpFR	13	n/a	n/a	n/a	n/a	n/a	n/a	n/a	19	9	9	1	n/a	n/a	n/a	n/a	n/a
2065.262	n/a	STOP	1032631	n/a	LTP110	ltpFR	13	n/a	n/a	n/a	n/a	n/a	n/a	n/a	n/a	n/a	n/a	n/a	n/a	n/a	n/a	n/a	n/a
2067.504	n/a	WORD	1033752	wordpools/wasnorm_wordpool.txt	LTP110	ltpFR	13	9	1	SCHOOL	1248	n/a	n/a	0	n/a	0	0	0	0.57763671875	0.412841796875	1	upper	amplitud.ttf
2070.512	n/a	START	1035256	n/a	LTP110	ltpFR	13	n/a	n/a	n/a	n/a	n/a	n/a	n/a	n/a	n/a	n/a	n/a	n/a	n/a	n/a	n/a	n/a
2071.702	n/a	PROB	1035851	n/a	LTP110	ltpFR	13	n/a	n/a	n/a	n/a	n/a	n/a	n/a	1	7	4	5	n/a	n/a	n/a	n/a	n/a
2072.968	n/a	PROB	1036484	n/a	LTP110	ltpFR	13	n/a	n/a	n/a	n/a	n/a	n/a	n/a	14	5	3	6	n/a	n/a	n/a	n/a	n/a
2075.234	n/a	PROB	1037617	n/a	LTP110	ltpFR	13	n/a	n/a	n/a	n/a	n/a	n/a	n/a	15	4	6	5	n/a	n/a	n/a	n/a	n/a
2076.484	n/a	PROB	1038242	n/a	LTP110	ltpFR	13	n/a	n/a	n/a	n/a	n/a	n/a	n/a	19	7	6	6	n/a	n/a	n/a	n/a	n/a
2077.846	n/a	STOP	1038923	n/a	LTP110	ltpFR	13	n/a	n/a	n/a	n/a	n/a	n/a	n/a	n/a	n/a	n/a	n/a	n/a	n/a	n/a	n/a	n/a
2079.482	n/a	WORD	1039741	wordpools/wasnorm_wordpool.txt	LTP110	ltpFR	13	9	1	POSTAGE	1113	n/a	n/a	0	n/a	0	0	0	0.57763671875	0.412841796875	1	upper	amplitud.ttf
2082.492	n/a	START	1041246	n/a	LTP110	ltpFR	13	n/a	n/a	n/a	n/a	n/a	n/a	n/a	n/a	n/a	n/a	n/a	n/a	n/a	n/a	n/a	n/a
2083.64	n/a	PROB	1041820	n/a	LTP110	ltpFR	13	n/a	n/a	n/a	n/a	n/a	n/a	n/a	22	5	9	8	n/a	n/a	n/a	n/a	n/a
2086.59	n/a	PROB	1043295	n/a	LTP110	ltpFR	13	n/a	n/a	n/a	n/a	n/a	n/a	n/a	11	3	6	2	n/a	n/a	n/a	n/a	n/a
2088.654	n/a	PROB	1044327	n/a	LTP110	ltpFR	13	n/a	n/a	n/a	n/a	n/a	n/a	n/a	8	3	3	2	n/a	n/a	n/a	n/a	n/a
2090.192	n/a	STOP	1045096	n/a	LTP110	ltpFR	13	n/a	n/a	n/a	n/a	n/a	n/a	n/a	n/a	n/a	n/a	n/a	n/a	n/a	n/a	n/a	n/a
2091.396	n/a	WORD	1045698	wordpools/wasnorm_wordpool.txt	LTP110	ltpFR	13	9	1	NOTE	958	n/a	n/a	0	n/a	0	0	0	0.57763671875	0.412841796875	1	upper	amplitud.ttf
2094.404	n/a	START	1047202	n/a	LTP110	ltpFR	13	n/a	n/a	n/a	n/a	n/a	n/a	n/a	n/a	n/a	n/a	n/a	n/a	n/a	n/a	n/a	n/a
2095.346	n/a	PROB	1047673	n/a	LTP110	ltpFR	13	n/a	n/a	n/a	n/a	n/a	n/a	n/a	13	6	5	4	n/a	n/a	n/a	n/a	n/a
2097.452	n/a	PROB	1048726	n/a	LTP110	ltpFR	13	n/a	n/a	n/a	n/a	n/a	n/a	n/a	11	5	2	4	n/a	n/a	n/a	n/a	n/a
2099.252	n/a	PROB	1049626	n/a	LTP110	ltpFR	13	n/a	n/a	n/a	n/a	n/a	n/a	n/a	19	4	7	8	n/a	n/a	n/a	n/a	n/a
2100.896	n/a	STOP	1050448	n/a	LTP110	ltpFR	13	n/a	n/a	n/a	n/a	n/a	n/a	n/a	n/a	n/a	n/a	n/a	n/a	n/a	n/a	n/a	n/a
2103.334	n/a	WORD	1051667	wordpools/wasnorm_wordpool.txt	LTP110	ltpFR	13	9	1	STUDENT	1395	n/a	n/a	0	n/a	0	0	0	0.57763671875	0.412841796875	1	upper	amplitud.ttf
2106.342	n/a	START	1053171	n/a	LTP110	ltpFR	13	n/a	n/a	n/a	n/a	n/a	n/a	n/a	n/a	n/a	n/a	n/a	n/a	n/a	n/a	n/a	n/a
2107.34	n/a	PROB	1053670	n/a	LTP110	ltpFR	13	n/a	n/a	n/a	n/a	n/a	n/a	n/a	14	2	6	6	n/a	n/a	n/a	n/a	n/a
2108.666	n/a	PROB	1054333	n/a	LTP110	ltpFR	13	n/a	n/a	n/a	n/a	n/a	n/a	n/a	11	5	5	1	n/a	n/a	n/a	n/a	n/a
2109.882	n/a	PROB	1054941	n/a	LTP110	ltpFR	13	n/a	n/a	n/a	n/a	n/a	n/a	n/a	19	9	2	8	n/a	n/a	n/a	n/a	n/a
2111.024	n/a	PROB	1055512	n/a	LTP110	ltpFR	13	n/a	n/a	n/a	n/a	n/a	n/a	n/a	13	3	5	3	n/a	n/a	n/a	n/a	n/a
2113.304	n/a	STOP	1056652	n/a	LTP110	ltpFR	13	n/a	n/a	n/a	n/a	n/a	n/a	n/a	n/a	n/a	n/a	n/a	n/a	n/a	n/a	n/a	n/a
2115.314	n/a	WORD	1057657	wordpools/wasnorm_wordpool.txt	LTP110	ltpFR	13	9	1	CAFE	216	n/a	n/a	0	n/a	0	0	0	0.57763671875	0.412841796875	1	upper	amplitud.ttf
2118.322	n/a	START	1059161	n/a	LTP110	ltpFR	13	n/a	n/a	n/a	n/a	n/a	n/a	n/a	n/a	n/a	n/a	n/a	n/a	n/a	n/a	n/a	n/a
2119.18	n/a	PROB	1059590	n/a	LTP110	ltpFR	13	n/a	n/a	n/a	n/a	n/a	n/a	n/a	18	9	4	5	n/a	n/a	n/a	n/a	n/a
2120.288	n/a	PROB	1060144	n/a	LTP110	ltpFR	13	n/a	n/a	n/a	n/a	n/a	n/a	n/a	11	3	1	7	n/a	n/a	n/a	n/a	n/a
2121.228	n/a	PROB	1060614	n/a	LTP110	ltpFR	13	n/a	n/a	n/a	n/a	n/a	n/a	n/a	15	6	7	2	n/a	n/a	n/a	n/a	n/a
2122.328	n/a	PROB	1061164	n/a	LTP110	ltpFR	13	n/a	n/a	n/a	n/a	n/a	n/a	n/a	15	4	2	9	n/a	n/a	n/a	n/a	n/a
2124.062	n/a	PROB	1062031	n/a	LTP110	ltpFR	13	n/a	n/a	n/a	n/a	n/a	n/a	n/a	12	5	5	2	n/a	n/a	n/a	n/a	n/a
2125.336	n/a	STOP	1062668	n/a	LTP110	ltpFR	13	n/a	n/a	n/a	n/a	n/a	n/a	n/a	n/a	n/a	n/a	n/a	n/a	n/a	n/a	n/a	n/a
2127.36	n/a	WORD	1063680	wordpools/wasnorm_wordpool.txt	LTP110	ltpFR	13	9	1	SUPERMARKET	1409	n/a	n/a	0	n/a	0	0	0	0.57763671875	0.412841796875	1	upper	amplitud.ttf
2130.368	n/a	START	1065184	n/a	LTP110	ltpFR	13	n/a	n/a	n/a	n/a	n/a	n/a	n/a	n/a	n/a	n/a	n/a	n/a	n/a	n/a	n/a	n/a
2131.268	n/a	PROB	1065634	n/a	LTP110	ltpFR	13	n/a	n/a	n/a	n/a	n/a	n/a	n/a	11	8	1	2	n/a	n/a	n/a	n/a	n/a
2133.508	n/a	PROB	1066754	n/a	LTP110	ltpFR	13	n/a	n/a	n/a	n/a	n/a	n/a	n/a	14	8	4	2	n/a	n/a	n/a	n/a	n/a
2134.892	n/a	PROB	1067446	n/a	LTP110	ltpFR	13	n/a	n/a	n/a	n/a	n/a	n/a	n/a	8	2	3	3	n/a	n/a	n/a	n/a	n/a
2138.368	n/a	STOP	1069184	n/a	LTP110	ltpFR	13	n/a	n/a	n/a	n/a	n/a	n/a	n/a	n/a	n/a	n/a	n/a	n/a	n/a	n/a	n/a	n/a
2139.432	n/a	WORD	1069716	wordpools/wasnorm_wordpool.txt	LTP110	ltpFR	13	9	1	DRUM	502	n/a	n/a	0	n/a	0	0	0	0.57763671875	0.412841796875	1	upper	amplitud.ttf
2142.44	n/a	START	1071220	n/a	LTP110	ltpFR	13	n/a	n/a	n/a	n/a	n/a	n/a	n/a	n/a	n/a	n/a	n/a	n/a	n/a	n/a	n/a	n/a
2143.338	n/a	PROB	1071669	n/a	LTP110	ltpFR	13	n/a	n/a	n/a	n/a	n/a	n/a	n/a	12	3	2	7	n/a	n/a	n/a	n/a	n/a
2144.688	n/a	PROB	1072344	n/a	LTP110	ltpFR	13	n/a	n/a	n/a	n/a	n/a	n/a	n/a	13	1	4	8	n/a	n/a	n/a	n/a	n/a
2145.738	n/a	PROB	1072869	n/a	LTP110	ltpFR	13	n/a	n/a	n/a	n/a	n/a	n/a	n/a	15	3	8	2	n/a	n/a	n/a	n/a	n/a
2147.022	n/a	PROB	1073511	n/a	LTP110	ltpFR	13	n/a	n/a	n/a	n/a	n/a	n/a	n/a	20	5	8	7	n/a	n/a	n/a	n/a	n/a
2148.622	n/a	PROB	1074311	n/a	LTP110	ltpFR	13	n/a	n/a	n/a	n/a	n/a	n/a	n/a	12	5	1	6	n/a	n/a	n/a	n/a	n/a
2149.634	n/a	STOP	1074817	n/a	LTP110	ltpFR	13	n/a	n/a	n/a	n/a	n/a	n/a	n/a	n/a	n/a	n/a	n/a	n/a	n/a	n/a	n/a	n/a
2151.27	n/a	WORD	1075635	wordpools/wasnorm_wordpool.txt	LTP110	ltpFR	13	9	1	PIN	1072	n/a	n/a	0	n/a	0	0	0	0.57763671875	0.412841796875	1	upper	amplitud.ttf
2154.278	n/a	START	1077139	n/a	LTP110	ltpFR	13	n/a	n/a	n/a	n/a	n/a	n/a	n/a	n/a	n/a	n/a	n/a	n/a	n/a	n/a	n/a	n/a
2155.102	n/a	PROB	1077551	n/a	LTP110	ltpFR	13	n/a	n/a	n/a	n/a	n/a	n/a	n/a	15	5	3	7	n/a	n/a	n/a	n/a	n/a
2156.526	n/a	PROB	1078263	n/a	LTP110	ltpFR	13	n/a	n/a	n/a	n/a	n/a	n/a	n/a	15	5	4	6	n/a	n/a	n/a	n/a	n/a
2157.684	n/a	PROB	1078842	n/a	LTP110	ltpFR	13	n/a	n/a	n/a	n/a	n/a	n/a	n/a	19	7	4	8	n/a	n/a	n/a	n/a	n/a
2159.042	n/a	PROB	1079521	n/a	LTP110	ltpFR	13	n/a	n/a	n/a	n/a	n/a	n/a	n/a	14	5	3	6	n/a	n/a	n/a	n/a	n/a
2160.746	n/a	STOP	1080373	n/a	LTP110	ltpFR	13	n/a	n/a	n/a	n/a	n/a	n/a	n/a	n/a	n/a	n/a	n/a	n/a	n/a	n/a	n/a	n/a
2163.44	n/a	WORD	1081720	wordpools/wasnorm_wordpool.txt	LTP110	ltpFR	13	9	1	JELLO	754	n/a	n/a	0	n/a	0	0	0	0.57763671875	0.412841796875	1	upper	amplitud.ttf
2166.45	n/a	START	1083225	n/a	LTP110	ltpFR	13	n/a	n/a	n/a	n/a	n/a	n/a	n/a	n/a	n/a	n/a	n/a	n/a	n/a	n/a	n/a	n/a
2167.54	n/a	PROB	1083770	n/a	LTP110	ltpFR	13	n/a	n/a	n/a	n/a	n/a	n/a	n/a	13	1	8	4	n/a	n/a	n/a	n/a	n/a
2168.624	n/a	PROB	1084312	n/a	LTP110	ltpFR	13	n/a	n/a	n/a	n/a	n/a	n/a	n/a	7	1	1	5	n/a	n/a	n/a	n/a	n/a
2169.948	n/a	PROB	1084974	n/a	LTP110	ltpFR	13	n/a	n/a	n/a	n/a	n/a	n/a	n/a	23	9	8	6	n/a	n/a	n/a	n/a	n/a
2171.398	n/a	PROB	1085699	n/a	LTP110	ltpFR	13	n/a	n/a	n/a	n/a	n/a	n/a	n/a	15	2	4	9	n/a	n/a	n/a	n/a	n/a
2173.332	n/a	STOP	1086666	n/a	LTP110	ltpFR	13	n/a	n/a	n/a	n/a	n/a	n/a	n/a	n/a	n/a	n/a	n/a	n/a	n/a	n/a	n/a	n/a
2175.396	n/a	WORD	1087698	wordpools/wasnorm_wordpool.txt	LTP110	ltpFR	13	9	1	CONVICT	371	n/a	n/a	1	n/a	0	0	0	0.57763671875	0.412841796875	1	upper	amplitud.ttf
2178.404	n/a	START	1089202	n/a	LTP110	ltpFR	13	n/a	n/a	n/a	n/a	n/a	n/a	n/a	n/a	n/a	n/a	n/a	n/a	n/a	n/a	n/a	n/a
2179.552	n/a	PROB	1089776	n/a	LTP110	ltpFR	13	n/a	n/a	n/a	n/a	n/a	n/a	n/a	8	1	4	3	n/a	n/a	n/a	n/a	n/a
2180.836	n/a	PROB	1090418	n/a	LTP110	ltpFR	13	n/a	n/a	n/a	n/a	n/a	n/a	n/a	18	9	3	6	n/a	n/a	n/a	n/a	n/a
2182.21	n/a	PROB	1091105	n/a	LTP110	ltpFR	13	n/a	n/a	n/a	n/a	n/a	n/a	n/a	18	9	3	6	n/a	n/a	n/a	n/a	n/a
2183.034	n/a	PROB	1091517	n/a	LTP110	ltpFR	13	n/a	n/a	n/a	n/a	n/a	n/a	n/a	23	6	8	9	n/a	n/a	n/a	n/a	n/a
2184.518	n/a	PROB	1092259	n/a	LTP110	ltpFR	13	n/a	n/a	n/a	n/a	n/a	n/a	n/a	13	6	2	5	n/a	n/a	n/a	n/a	n/a
2185.764	n/a	STOP	1092882	n/a	LTP110	ltpFR	13	n/a	n/a	n/a	n/a	n/a	n/a	n/a	n/a	n/a	n/a	n/a	n/a	n/a	n/a	n/a	n/a
2187.41	n/a	WORD	1093705	wordpools/wasnorm_wordpool.txt	LTP110	ltpFR	13	9	1	CUB	419	n/a	n/a	1	n/a	0	0	0	0.57763671875	0.412841796875	1	upper	amplitud.ttf
2190.418	n/a	START	1095209	n/a	LTP110	ltpFR	13	n/a	n/a	n/a	n/a	n/a	n/a	n/a	n/a	n/a	n/a	n/a	n/a	n/a	n/a	n/a	n/a
2191.282	n/a	PROB	1095641	n/a	LTP110	ltpFR	13	n/a	n/a	n/a	n/a	n/a	n/a	n/a	8	2	4	3	n/a	n/a	n/a	n/a	n/a
2192.458	n/a	PROB	1096229	n/a	LTP110	ltpFR	13	n/a	n/a	n/a	n/a	n/a	n/a	n/a	6	1	4	1	n/a	n/a	n/a	n/a	n/a
2193.508	n/a	PROB	1096754	n/a	LTP110	ltpFR	13	n/a	n/a	n/a	n/a	n/a	n/a	n/a	13	3	3	7	n/a	n/a	n/a	n/a	n/a
2194.616	n/a	PROB	1097308	n/a	LTP110	ltpFR	13	n/a	n/a	n/a	n/a	n/a	n/a	n/a	8	5	1	3	n/a	n/a	n/a	n/a	n/a
2195.748	n/a	PROB	1097874	n/a	LTP110	ltpFR	13	n/a	n/a	n/a	n/a	n/a	n/a	n/a	9	1	1	7	n/a	n/a	n/a	n/a	n/a
2197.26	n/a	STOP	1098630	n/a	LTP110	ltpFR	13	n/a	n/a	n/a	n/a	n/a	n/a	n/a	n/a	n/a	n/a	n/a	n/a	n/a	n/a	n/a	n/a
2199.43	n/a	WORD	1099715	wordpools/wasnorm_wordpool.txt	LTP110	ltpFR	13	9	1	COWBOY	395	n/a	n/a	1	n/a	0	0	0	0.57763671875	0.412841796875	1	upper	amplitud.ttf
2202.438	n/a	START	1101219	n/a	LTP110	ltpFR	13	n/a	n/a	n/a	n/a	n/a	n/a	n/a	n/a	n/a	n/a	n/a	n/a	n/a	n/a	n/a	n/a
2203.288	n/a	PROB	1101644	n/a	LTP110	ltpFR	13	n/a	n/a	n/a	n/a	n/a	n/a	n/a	7	1	5	1	n/a	n/a	n/a	n/a	n/a
2204.654	n/a	PROB	1102327	n/a	LTP110	ltpFR	13	n/a	n/a	n/a	n/a	n/a	n/a	n/a	22	9	4	9	n/a	n/a	n/a	n/a	n/a
2205.912	n/a	PROB	1102956	n/a	LTP110	ltpFR	13	n/a	n/a	n/a	n/a	n/a	n/a	n/a	5	8	3	3	n/a	n/a	n/a	n/a	n/a
2207.244	n/a	PROB	1103622	n/a	LTP110	ltpFR	13	n/a	n/a	n/a	n/a	n/a	n/a	n/a	18	7	3	8	n/a	n/a	n/a	n/a	n/a
2209.118	n/a	STOP	1104559	n/a	LTP110	ltpFR	13	n/a	n/a	n/a	n/a	n/a	n/a	n/a	n/a	n/a	n/a	n/a	n/a	n/a	n/a	n/a	n/a
2211.326	n/a	WORD	1105663	wordpools/wasnorm_wordpool.txt	LTP110	ltpFR	13	9	1	ROOMMATE	1207	n/a	n/a	1	n/a	0	0	0	0.57763671875	0.412841796875	1	upper	amplitud.ttf
2214.334	n/a	START	1107167	n/a	LTP110	ltpFR	13	n/a	n/a	n/a	n/a	n/a	n/a	n/a	n/a	n/a	n/a	n/a	n/a	n/a	n/a	n/a	n/a
2215.276	n/a	PROB	1107638	n/a	LTP110	ltpFR	13	n/a	n/a	n/a	n/a	n/a	n/a	n/a	7	1	5	1	n/a	n/a	n/a	n/a	n/a
2216.384	n/a	PROB	1108192	n/a	LTP110	ltpFR	13	n/a	n/a	n/a	n/a	n/a	n/a	n/a	14	5	3	6	n/a	n/a	n/a	n/a	n/a
2217.682	n/a	PROB	1108841	n/a	LTP110	ltpFR	13	n/a	n/a	n/a	n/a	n/a	n/a	n/a	16	3	4	9	n/a	n/a	n/a	n/a	n/a
2219.058	n/a	PROB	1109529	n/a	LTP110	ltpFR	13	n/a	n/a	n/a	n/a	n/a	n/a	n/a	13	5	5	3	n/a	n/a	n/a	n/a	n/a
2220.082	n/a	PROB	1110041	n/a	LTP110	ltpFR	13	n/a	n/a	n/a	n/a	n/a	n/a	n/a	11	1	6	4	n/a	n/a	n/a	n/a	n/a
2220.998	n/a	STOP	1110499	n/a	LTP110	ltpFR	13	n/a	n/a	n/a	n/a	n/a	n/a	n/a	n/a	n/a	n/a	n/a	n/a	n/a	n/a	n/a	n/a
2223.364	n/a	WORD	1111682	wordpools/wasnorm_wordpool.txt	LTP110	ltpFR	13	9	1	TRENCH	1503	n/a	n/a	0	n/a	0	0	0	0.57763671875	0.412841796875	1	upper	amplitud.ttf
2226.372	n/a	START	1113186	n/a	LTP110	ltpFR	13	n/a	n/a	n/a	n/a	n/a	n/a	n/a	n/a	n/a	n/a	n/a	n/a	n/a	n/a	n/a	n/a
2227.348	n/a	PROB	1113674	n/a	LTP110	ltpFR	13	n/a	n/a	n/a	n/a	n/a	n/a	n/a	13	4	8	1	n/a	n/a	n/a	n/a	n/a
2229.538	n/a	PROB	1114769	n/a	LTP110	ltpFR	13	n/a	n/a	n/a	n/a	n/a	n/a	n/a	12	5	4	3	n/a	n/a	n/a	n/a	n/a
2231.538	n/a	PROB	1115769	n/a	LTP110	ltpFR	13	n/a	n/a	n/a	n/a	n/a	n/a	n/a	18	8	2	7	n/a	n/a	n/a	n/a	n/a
2234.372	n/a	STOP	1117186	n/a	LTP110	ltpFR	13	n/a	n/a	n/a	n/a	n/a	n/a	n/a	n/a	n/a	n/a	n/a	n/a	n/a	n/a	n/a	n/a
2235.536	n/a	WORD	1117768	wordpools/wasnorm_wordpool.txt	LTP110	ltpFR	13	9	1	FUGITIVE	612	n/a	n/a	1	n/a	0	0	0	0.57763671875	0.412841796875	1	upper	amplitud.ttf
2238.544	n/a	START	1119272	n/a	LTP110	ltpFR	13	n/a	n/a	n/a	n/a	n/a	n/a	n/a	n/a	n/a	n/a	n/a	n/a	n/a	n/a	n/a	n/a
2239.392	n/a	PROB	1119696	n/a	LTP110	ltpFR	13	n/a	n/a	n/a	n/a	n/a	n/a	n/a	20	4	7	9	n/a	n/a	n/a	n/a	n/a
2241.1	n/a	PROB	1120550	n/a	LTP110	ltpFR	13	n/a	n/a	n/a	n/a	n/a	n/a	n/a	21	8	9	4	n/a	n/a	n/a	n/a	n/a
2242.842	n/a	PROB	1121421	n/a	LTP110	ltpFR	13	n/a	n/a	n/a	n/a	n/a	n/a	n/a	12	6	3	3	n/a	n/a	n/a	n/a	n/a
2244.008	n/a	PROB	1122004	n/a	LTP110	ltpFR	13	n/a	n/a	n/a	n/a	n/a	n/a	n/a	9	3	1	5	n/a	n/a	n/a	n/a	n/a
2245.104	n/a	STOP	1122552	n/a	LTP110	ltpFR	13	n/a	n/a	n/a	n/a	n/a	n/a	n/a	n/a	n/a	n/a	n/a	n/a	n/a	n/a	n/a	n/a
2248.45	n/a	REC_START	1124225	n/a	LTP110	ltpFR	13	9	n/a	n/a	n/a	n/a	n/a	n/a	n/a	0	0	0	n/a	n/a	n/a	n/a	n/a
2250.42	n/a	REC_WORD	1125210	wordpools/wasnorm_wordpool.txt	LTP110	ltpFR	13	9	1	CONVICT	371	n/a	n/a	1	n/a	0	0	0	n/a	n/a	n/a	n/a	n/a
2254.122	n/a	REC_WORD	1127061	wordpools/wasnorm_wordpool.txt	LTP110	ltpFR	13	9	1	COWBOY	395	n/a	n/a	1	n/a	0	0	0	n/a	n/a	n/a	n/a	n/a
2255.154	n/a	REC_WORD	1127577	wordpools/wasnorm_wordpool.txt	LTP110	ltpFR	13	9	1	CUB	419	n/a	n/a	1	n/a	0	0	0	n/a	n/a	n/a	n/a	n/a
2256.332	n/a	REC_WORD	1128166	wordpools/wasnorm_wordpool.txt	LTP110	ltpFR	13	9	1	ROOMMATE	1207	n/a	n/a	1	n/a	0	0	0	n/a	n/a	n/a	n/a	n/a
2257.13	n/a	REC_WORD	1128565	wordpools/wasnorm_wordpool.txt	LTP110	ltpFR	13	9	1	TRENCH	1503	n/a	n/a	0	n/a	0	0	0	n/a	n/a	n/a	n/a	n/a
2258.556	n/a	REC_WORD	1129278	wordpools/wasnorm_wordpool.txt	LTP110	ltpFR	13	9	1	JELLO	754	n/a	n/a	0	n/a	0	0	0	n/a	n/a	n/a	n/a	n/a
2259.598	n/a	REC_WORD	1129799	wordpools/wasnorm_wordpool.txt	LTP110	ltpFR	13	9	1	SUPERMARKET	1409	n/a	n/a	0	n/a	0	0	0	n/a	n/a	n/a	n/a	n/a
2260.756	n/a	REC_WORD	1130378	wordpools/wasnorm_wordpool.txt	LTP110	ltpFR	13	9	1	CAFE	216	n/a	n/a	0	n/a	0	0	0	n/a	n/a	n/a	n/a	n/a
2262.088	n/a	REC_WORD	1131044	wordpools/wasnorm_wordpool.txt	LTP110	ltpFR	13	9	1	STUDENT	1395	n/a	n/a	0	n/a	0	0	0	n/a	n/a	n/a	n/a	n/a
2262.932	n/a	REC_WORD	1131466	wordpools/wasnorm_wordpool.txt	LTP110	ltpFR	13	9	1	SCHOOL	1248	n/a	n/a	0	n/a	0	0	0	n/a	n/a	n/a	n/a	n/a
2263.68	n/a	REC_WORD	1131840	wordpools/wasnorm_wordpool.txt	LTP110	ltpFR	13	9	1	FLANNEL	574	n/a	n/a	0	n/a	0	0	0	n/a	n/a	n/a	n/a	n/a
2327.416	n/a	WORD	1163708	wordpools/wasnorm_wordpool.txt	LTP110	ltpFR	13	10	0	BUSH	202	n/a	n/a	1	n/a	0	0	0	0.422607421875	0.5869140625	0	lower	zerothre.ttf
2331.406	n/a	WORD	1165703	wordpools/wasnorm_wordpool.txt	LTP110	ltpFR	13	10	0	PLANT	1083	n/a	n/a	1	n/a	0	0	0	0.422607421875	0.5869140625	0	lower	zerothre.ttf
2335.548	n/a	WORD	1167774	wordpools/wasnorm_wordpool.txt	LTP110	ltpFR	13	10	0	KNAPSACK	783	n/a	n/a	1	n/a	0	0	0	0.422607421875	0.5869140625	0	lower	zerothre.ttf
2339.588	n/a	WORD	1169794	wordpools/wasnorm_wordpool.txt	LTP110	ltpFR	13	10	0	COMMANDER	354	n/a	n/a	1	n/a	0	0	0	0.422607421875	0.5869140625	0	lower	zerothre.ttf
2343.436	n/a	WORD	1171718	wordpools/wasnorm_wordpool.txt	LTP110	ltpFR	13	10	1	PORT	1110	n/a	n/a	0	n/a	0	0	0	0.57763671875	0.412841796875	1	upper	amplitud.ttf
2347.418	n/a	WORD	1173709	wordpools/wasnorm_wordpool.txt	LTP110	ltpFR	13	10	1	DECK	443	n/a	n/a	0	n/a	0	0	0	0.57763671875	0.412841796875	1	upper	amplitud.ttf
2351.618	n/a	WORD	1175809	wordpools/wasnorm_wordpool.txt	LTP110	ltpFR	13	10	1	BANANA	77	n/a	n/a	0	n/a	0	0	0	0.57763671875	0.412841796875	1	upper	amplitud.ttf
2355.466	n/a	WORD	1177733	wordpools/wasnorm_wordpool.txt	LTP110	ltpFR	13	10	1	BUFFALO	186	n/a	n/a	1	n/a	0	0	0	0.57763671875	0.412841796875	1	upper	amplitud.ttf
2359.674	n/a	WORD	1179837	wordpools/wasnorm_wordpool.txt	LTP110	ltpFR	13	10	0	TRIBE	1505	n/a	n/a	1	n/a	0	0	0	0.422607421875	0.5869140625	0	lower	zerothre.ttf
2363.556	n/a	WORD	1181778	wordpools/wasnorm_wordpool.txt	LTP110	ltpFR	13	10	0	NAPKIN	937	n/a	n/a	0	n/a	0	0	0	0.422607421875	0.5869140625	0	lower	zerothre.ttf
2367.688	n/a	WORD	1183844	wordpools/wasnorm_wordpool.txt	LTP110	ltpFR	13	10	0	SWING	1421	n/a	n/a	1	n/a	0	0	0	0.422607421875	0.5869140625	0	lower	zerothre.ttf
2371.862	n/a	WORD	1185931	wordpools/wasnorm_wordpool.txt	LTP110	ltpFR	13	10	0	ERASER	538	n/a	n/a	0	n/a	0	0	0	0.422607421875	0.5869140625	0	lower	zerothre.ttf
2375.784	n/a	WORD	1187892	wordpools/wasnorm_wordpool.txt	LTP110	ltpFR	13	10	1	APPLE	33	n/a	n/a	0	n/a	0	0	0	0.57763671875	0.412841796875	1	upper	amplitud.ttf
2379.834	n/a	WORD	1189917	wordpools/wasnorm_wordpool.txt	LTP110	ltpFR	13	10	1	SERGEANT	1269	n/a	n/a	1	n/a	0	0	0	0.57763671875	0.412841796875	1	upper	amplitud.ttf
2383.8	n/a	WORD	1191900	wordpools/wasnorm_wordpool.txt	LTP110	ltpFR	13	10	1	TEA	1439	n/a	n/a	0	n/a	0	0	0	0.57763671875	0.412841796875	1	upper	amplitud.ttf
2387.624	n/a	WORD	1193812	wordpools/wasnorm_wordpool.txt	LTP110	ltpFR	13	10	1	ALMOND	18	n/a	n/a	0	n/a	0	0	0	0.57763671875	0.412841796875	1	upper	amplitud.ttf
2390.63	n/a	START	1195315	n/a	LTP110	ltpFR	13	n/a	n/a	n/a	n/a	n/a	n/a	n/a	n/a	n/a	n/a	n/a	n/a	n/a	n/a	n/a	n/a
2391.722	n/a	PROB	1195861	n/a	LTP110	ltpFR	13	n/a	n/a	n/a	n/a	n/a	n/a	n/a	11	7	2	2	n/a	n/a	n/a	n/a	n/a
2393.03	n/a	PROB	1196515	n/a	LTP110	ltpFR	13	n/a	n/a	n/a	n/a	n/a	n/a	n/a	11	1	9	1	n/a	n/a	n/a	n/a	n/a
2394.162	n/a	PROB	1197081	n/a	LTP110	ltpFR	13	n/a	n/a	n/a	n/a	n/a	n/a	n/a	22	8	7	7	n/a	n/a	n/a	n/a	n/a
2395.704	n/a	PROB	1197852	n/a	LTP110	ltpFR	13	n/a	n/a	n/a	n/a	n/a	n/a	n/a	16	7	5	4	n/a	n/a	n/a	n/a	n/a
2397.134	n/a	STOP	1198567	n/a	LTP110	ltpFR	13	n/a	n/a	n/a	n/a	n/a	n/a	n/a	n/a	n/a	n/a	n/a	n/a	n/a	n/a	n/a	n/a
2400.438	n/a	REC_START	1200219	n/a	LTP110	ltpFR	13	10	n/a	n/a	n/a	n/a	n/a	n/a	n/a	0	0	0	n/a	n/a	n/a	n/a	n/a
2402.348	n/a	REC_WORD	1201174	wordpools/wasnorm_wordpool.txt	LTP110	ltpFR	13	10	1	PORT	1110	n/a	n/a	0	n/a	0	0	0	n/a	n/a	n/a	n/a	n/a
2403.266	n/a	REC_WORD	1201633	wordpools/wasnorm_wordpool.txt	LTP110	ltpFR	13	10	1	DECK	443	n/a	n/a	0	n/a	0	0	0	n/a	n/a	n/a	n/a	n/a
2404.534	n/a	REC_WORD	1202267	wordpools/wasnorm_wordpool.txt	LTP110	ltpFR	13	10	0	COMMANDER	354	n/a	n/a	1	n/a	0	0	0	n/a	n/a	n/a	n/a	n/a
2405.25	n/a	REC_WORD	1202625	wordpools/wasnorm_wordpool.txt	LTP110	ltpFR	13	10	1	SERGEANT	1269	n/a	n/a	1	n/a	0	0	0	n/a	n/a	n/a	n/a	n/a
2406.174	n/a	REC_WORD	1203087	wordpools/wasnorm_wordpool.txt	LTP110	ltpFR	13	10	1	BUFFALO	186	n/a	n/a	1	n/a	0	0	0	n/a	n/a	n/a	n/a	n/a
2407.542	n/a	REC_WORD	1203771	wordpools/wasnorm_wordpool.txt	LTP110	ltpFR	13	10	1	BANANA	77	n/a	n/a	0	n/a	0	0	0	n/a	n/a	n/a	n/a	n/a
2408.844	n/a	REC_WORD	1204422	wordpools/wasnorm_wordpool.txt	LTP110	ltpFR	13	10	1	ALMOND	18	n/a	n/a	0	n/a	0	0	0	n/a	n/a	n/a	n/a	n/a
2409.672	n/a	REC_WORD	1204836	wordpools/wasnorm_wordpool.txt	LTP110	ltpFR	13	10	1	APPLE	33	n/a	n/a	0	n/a	0	0	0	n/a	n/a	n/a	n/a	n/a
2410.474	n/a	REC_WORD	1205237	wordpools/wasnorm_wordpool.txt	LTP110	ltpFR	13	10	1	TEA	1439	n/a	n/a	0	n/a	0	0	0	n/a	n/a	n/a	n/a	n/a
2412.47	n/a	REC_WORD	1206235	wordpools/wasnorm_wordpool.txt	LTP110	ltpFR	13	10	0	KNAPSACK	783	n/a	n/a	1	n/a	0	0	0	n/a	n/a	n/a	n/a	n/a
