onset	duration	trial_type	sample	stim_file	subject	experiment	session	trial	task	item_name	item_num	recog_conf	resp	color_b	color_g	color_r	case	font
226.536	n/a	SESS_START	113268	n/a	LTP093	ltpFR	19	n/a	n/a	n/a	n/a	3	n/a	n/a	n/a	n/a	n/a	n/a
303.008	n/a	WORD	151504	wordpools/wasnorm_wordpool.txt	LTP093	ltpFR	19	1	1	ORGAN	984	n/a	1	1	0.412841796875	0.57763671875	upper	../fonts/zerothre.ttf
306.866	n/a	WORD	153433	wordpools/wasnorm_wordpool.txt	LTP093	ltpFR	19	1	1	CROCODILE	411	n/a	1	1	0.412841796875	0.57763671875	upper	../fonts/zerothre.ttf
310.714	n/a	WORD	155357	wordpools/wasnorm_wordpool.txt	LTP093	ltpFR	19	1	1	SEAL	1262	n/a	1	1	0.412841796875	0.57763671875	upper	../fonts/zerothre.ttf
314.816	n/a	WORD	157408	wordpools/wasnorm_wordpool.txt	LTP093	ltpFR	19	1	0	POTATO	1115	n/a	0	0	0.5869140625	0.422607421875	lower	../fonts/amplitud.ttf
318.982	n/a	WORD	159491	wordpools/wasnorm_wordpool.txt	LTP093	ltpFR	19	1	0	SCALLOP	1242	n/a	0	0	0.5869140625	0.422607421875	lower	../fonts/amplitud.ttf
322.898	n/a	WORD	161449	wordpools/wasnorm_wordpool.txt	LTP093	ltpFR	19	1	0	BAND	78	n/a	1	0	0.5869140625	0.422607421875	lower	../fonts/amplitud.ttf
327.04	n/a	WORD	163520	wordpools/wasnorm_wordpool.txt	LTP093	ltpFR	19	1	0	MOLECULE	905	n/a	0	0	0.5869140625	0.422607421875	lower	../fonts/amplitud.ttf
331.098	n/a	WORD	165549	wordpools/wasnorm_wordpool.txt	LTP093	ltpFR	19	1	1	SCISSORS	1250	n/a	0	1	0.412841796875	0.57763671875	upper	../fonts/zerothre.ttf
335.156	n/a	WORD	167578	wordpools/wasnorm_wordpool.txt	LTP093	ltpFR	19	1	1	CANOE	233	n/a	0	1	0.412841796875	0.57763671875	upper	../fonts/zerothre.ttf
339.33	n/a	WORD	169665	wordpools/wasnorm_wordpool.txt	LTP093	ltpFR	19	1	0	CELLO	268	n/a	0	0	0.5869140625	0.422607421875	lower	../fonts/amplitud.ttf
343.322	n/a	WORD	171661	wordpools/wasnorm_wordpool.txt	LTP093	ltpFR	19	1	0	SPONGE	1355	n/a	0	0	0.5869140625	0.422607421875	lower	../fonts/amplitud.ttf
347.498	n/a	WORD	173749	wordpools/wasnorm_wordpool.txt	LTP093	ltpFR	19	1	0	PLUM	1090	n/a	0	0	0.5869140625	0.422607421875	lower	../fonts/amplitud.ttf
351.706	n/a	WORD	175853	wordpools/wasnorm_wordpool.txt	LTP093	ltpFR	19	1	0	COMPUTER	359	n/a	0	0	0.5869140625	0.422607421875	lower	../fonts/amplitud.ttf
355.698	n/a	WORD	177849	wordpools/wasnorm_wordpool.txt	LTP093	ltpFR	19	1	1	HOSE	720	n/a	0	1	0.412841796875	0.57763671875	upper	../fonts/zerothre.ttf
359.514	n/a	WORD	179757	wordpools/wasnorm_wordpool.txt	LTP093	ltpFR	19	1	1	GUARDIAN	668	n/a	1	1	0.412841796875	0.57763671875	upper	../fonts/zerothre.ttf
363.464	n/a	WORD	181732	wordpools/wasnorm_wordpool.txt	LTP093	ltpFR	19	1	1	ANGEL	22	n/a	1	1	0.412841796875	0.57763671875	upper	../fonts/zerothre.ttf
369.304	n/a	REC_START	184652	n/a	LTP093	ltpFR	19	1	n/a	n/a	n/a	n/a	n/a	n/a	n/a	n/a	n/a	n/a
369.868	n/a	REC_WORD	184934	wordpools/wasnorm_wordpool.txt	LTP093	ltpFR	19	1	1	ANGEL	22	n/a	1	n/a	n/a	n/a	n/a	n/a
370.582	n/a	REC_WORD	185291	wordpools/wasnorm_wordpool.txt	LTP093	ltpFR	19	1	1	GUARDIAN	668	n/a	1	n/a	n/a	n/a	n/a	n/a
371.49	n/a	REC_WORD	185745	wordpools/wasnorm_wordpool.txt	LTP093	ltpFR	19	1	1	CROCODILE	411	n/a	1	n/a	n/a	n/a	n/a	n/a
372.412	n/a	REC_WORD	186206	wordpools/wasnorm_wordpool.txt	LTP093	ltpFR	19	1	1	SCISSORS	1250	n/a	0	n/a	n/a	n/a	n/a	n/a
373.5	n/a	REC_WORD	186750	wordpools/wasnorm_wordpool.txt	LTP093	ltpFR	19	1	0	POTATO	1115	n/a	0	n/a	n/a	n/a	n/a	n/a
374.468	n/a	REC_WORD	187234	wordpools/wasnorm_wordpool.txt	LTP093	ltpFR	19	1	0	MOLECULE	905	n/a	0	n/a	n/a	n/a	n/a	n/a
375.566	n/a	REC_WORD	187783	wordpools/wasnorm_wordpool.txt	LTP093	ltpFR	19	1	0	CELLO	268	n/a	0	n/a	n/a	n/a	n/a	n/a
376.608	n/a	REC_WORD	188304	wordpools/wasnorm_wordpool.txt	LTP093	ltpFR	19	1	0	BAND	78	n/a	1	n/a	n/a	n/a	n/a	n/a
382.19	n/a	REC_WORD	191095	wordpools/wasnorm_wordpool.txt	LTP093	ltpFR	19	1	n/a	FRUIT	610	n/a	n/a	n/a	n/a	n/a	n/a	n/a
383.468	n/a	REC_WORD	191734	wordpools/wasnorm_wordpool.txt	LTP093	ltpFR	19	1	0	PLUM	1090	n/a	0	n/a	n/a	n/a	n/a	n/a
388.138	n/a	REC_WORD	194069	wordpools/wasnorm_wordpool.txt	LTP093	ltpFR	19	1	1	ORGAN	984	n/a	1	n/a	n/a	n/a	n/a	n/a
537.642	n/a	WORD	268821	wordpools/wasnorm_wordpool.txt	LTP093	ltpFR	19	2	0	CASH	252	n/a	0	0	0.5869140625	0.422607421875	lower	../fonts/amplitud.ttf
541.584	n/a	WORD	270792	wordpools/wasnorm_wordpool.txt	LTP093	ltpFR	19	2	0	SAPPHIRE	1234	n/a	0	0	0.5869140625	0.422607421875	lower	../fonts/amplitud.ttf
545.566	n/a	WORD	272783	wordpools/wasnorm_wordpool.txt	LTP093	ltpFR	19	2	0	ASTRONAUT	51	n/a	1	0	0.5869140625	0.422607421875	lower	../fonts/amplitud.ttf
549.46	n/a	WORD	274730	wordpools/wasnorm_wordpool.txt	LTP093	ltpFR	19	2	0	BANKER	84	n/a	1	0	0.5869140625	0.422607421875	lower	../fonts/amplitud.ttf
553.5	n/a	WORD	276750	wordpools/wasnorm_wordpool.txt	LTP093	ltpFR	19	2	1	WALLET	1583	n/a	0	1	0.412841796875	0.57763671875	upper	../fonts/zerothre.ttf
557.434	n/a	WORD	278717	wordpools/wasnorm_wordpool.txt	LTP093	ltpFR	19	2	1	RACK	1154	n/a	0	1	0.412841796875	0.57763671875	upper	../fonts/zerothre.ttf
561.634	n/a	WORD	280817	wordpools/wasnorm_wordpool.txt	LTP093	ltpFR	19	2	1	TIDE	1465	n/a	0	1	0.412841796875	0.57763671875	upper	../fonts/zerothre.ttf
565.624	n/a	WORD	282812	wordpools/wasnorm_wordpool.txt	LTP093	ltpFR	19	2	1	LOG	841	n/a	0	1	0.412841796875	0.57763671875	upper	../fonts/zerothre.ttf
569.484	n/a	WORD	284742	wordpools/wasnorm_wordpool.txt	LTP093	ltpFR	19	2	1	CREEK	404	n/a	0	1	0.412841796875	0.57763671875	upper	../fonts/zerothre.ttf
573.308	n/a	WORD	286654	wordpools/wasnorm_wordpool.txt	LTP093	ltpFR	19	2	1	MINT	898	n/a	0	1	0.412841796875	0.57763671875	upper	../fonts/zerothre.ttf
577.266	n/a	WORD	288633	wordpools/wasnorm_wordpool.txt	LTP093	ltpFR	19	2	0	FEATHER	557	n/a	0	0	0.5869140625	0.422607421875	lower	../fonts/amplitud.ttf
581.266	n/a	WORD	290633	wordpools/wasnorm_wordpool.txt	LTP093	ltpFR	19	2	0	WHALE	1601	n/a	1	0	0.5869140625	0.422607421875	lower	../fonts/amplitud.ttf
585.24	n/a	WORD	292620	wordpools/wasnorm_wordpool.txt	LTP093	ltpFR	19	2	1	POSSUM	1112	n/a	1	1	0.412841796875	0.57763671875	upper	../fonts/zerothre.ttf
589.308	n/a	WORD	294654	wordpools/wasnorm_wordpool.txt	LTP093	ltpFR	19	2	1	PREDATOR	1120	n/a	1	1	0.412841796875	0.57763671875	upper	../fonts/zerothre.ttf
593.45	n/a	WORD	296725	wordpools/wasnorm_wordpool.txt	LTP093	ltpFR	19	2	0	HOOK	715	n/a	0	0	0.5869140625	0.422607421875	lower	../fonts/amplitud.ttf
597.5	n/a	WORD	298750	wordpools/wasnorm_wordpool.txt	LTP093	ltpFR	19	2	0	WELL	1600	n/a	0	0	0.5869140625	0.422607421875	lower	../fonts/amplitud.ttf
603.236	n/a	REC_START	301618	n/a	LTP093	ltpFR	19	2	n/a	n/a	n/a	n/a	n/a	n/a	n/a	n/a	n/a	n/a
603.918	n/a	REC_WORD	301959	wordpools/wasnorm_wordpool.txt	LTP093	ltpFR	19	2	0	HOOK	715	n/a	0	n/a	n/a	n/a	n/a	n/a
604.926	n/a	REC_WORD	302463	wordpools/wasnorm_wordpool.txt	LTP093	ltpFR	19	2	0	WELL	1600	n/a	0	n/a	n/a	n/a	n/a	n/a
606.23	n/a	REC_WORD	303115	wordpools/wasnorm_wordpool.txt	LTP093	ltpFR	19	2	0	CASH	252	n/a	0	n/a	n/a	n/a	n/a	n/a
606.862	n/a	REC_WORD	303431	wordpools/wasnorm_wordpool.txt	LTP093	ltpFR	19	2	0	BANKER	84	n/a	1	n/a	n/a	n/a	n/a	n/a
607.582	n/a	REC_WORD	303791	wordpools/wasnorm_wordpool.txt	LTP093	ltpFR	19	2	0	ASTRONAUT	51	n/a	1	n/a	n/a	n/a	n/a	n/a
608.924	n/a	REC_WORD	304462	wordpools/wasnorm_wordpool.txt	LTP093	ltpFR	19	2	1	WALLET	1583	n/a	0	n/a	n/a	n/a	n/a	n/a
610.684	n/a	REC_WORD	305342	wordpools/wasnorm_wordpool.txt	LTP093	ltpFR	19	2	0	SAPPHIRE	1234	n/a	0	n/a	n/a	n/a	n/a	n/a
621.824	n/a	REC_WORD	310912	wordpools/wasnorm_wordpool.txt	LTP093	ltpFR	19	2	1	POSSUM	1112	n/a	1	n/a	n/a	n/a	n/a	n/a
622.522	n/a	REC_WORD	311261	wordpools/wasnorm_wordpool.txt	LTP093	ltpFR	19	2	0	WHALE	1601	n/a	1	n/a	n/a	n/a	n/a	n/a
628.4	n/a	REC_WORD	314200	wordpools/wasnorm_wordpool.txt	LTP093	ltpFR	19	2	1	CREEK	404	n/a	0	n/a	n/a	n/a	n/a	n/a
634.716	n/a	REC_WORD	317358	wordpools/wasnorm_wordpool.txt	LTP093	ltpFR	19	2	1	MINT	898	n/a	0	n/a	n/a	n/a	n/a	n/a
765.704	n/a	WORD	382852	wordpools/wasnorm_wordpool.txt	LTP093	ltpFR	19	3	0	BATTERY	101	n/a	0	0	0.5869140625	0.422607421875	lower	../fonts/amplitud.ttf
769.594	n/a	WORD	384797	wordpools/wasnorm_wordpool.txt	LTP093	ltpFR	19	3	0	VEHICLE	1553	n/a	1	0	0.5869140625	0.422607421875	lower	../fonts/amplitud.ttf
773.62	n/a	WORD	386810	wordpools/wasnorm_wordpool.txt	LTP093	ltpFR	19	3	0	TEENAGER	1444	n/a	0	0	0.5869140625	0.422607421875	lower	../fonts/amplitud.ttf
777.744	n/a	WORD	388872	wordpools/wasnorm_wordpool.txt	LTP093	ltpFR	19	3	0	TOY	1492	n/a	0	0	0.5869140625	0.422607421875	lower	../fonts/amplitud.ttf
781.812	n/a	WORD	390906	wordpools/wasnorm_wordpool.txt	LTP093	ltpFR	19	3	1	RODENT	1204	n/a	0	1	0.412841796875	0.57763671875	upper	../fonts/zerothre.ttf
785.694	n/a	WORD	392847	wordpools/wasnorm_wordpool.txt	LTP093	ltpFR	19	3	1	COLLAR	345	n/a	0	1	0.412841796875	0.57763671875	upper	../fonts/zerothre.ttf
789.586	n/a	WORD	394793	wordpools/wasnorm_wordpool.txt	LTP093	ltpFR	19	3	1	CHEMICAL	291	n/a	0	1	0.412841796875	0.57763671875	upper	../fonts/zerothre.ttf
793.72	n/a	WORD	396860	wordpools/wasnorm_wordpool.txt	LTP093	ltpFR	19	3	1	PHILOSOPHER	1054	n/a	1	1	0.412841796875	0.57763671875	upper	../fonts/zerothre.ttf
797.852	n/a	WORD	398926	wordpools/wasnorm_wordpool.txt	LTP093	ltpFR	19	3	1	DIGGER	464	n/a	1	1	0.412841796875	0.57763671875	upper	../fonts/zerothre.ttf
801.828	n/a	WORD	400914	wordpools/wasnorm_wordpool.txt	LTP093	ltpFR	19	3	0	BOULDER	155	n/a	0	0	0.5869140625	0.422607421875	lower	../fonts/amplitud.ttf
805.778	n/a	WORD	402889	wordpools/wasnorm_wordpool.txt	LTP093	ltpFR	19	3	0	WITCH	1617	n/a	0	0	0.5869140625	0.422607421875	lower	../fonts/amplitud.ttf
809.86	n/a	WORD	404930	wordpools/wasnorm_wordpool.txt	LTP093	ltpFR	19	3	1	BLOUSE	139	n/a	0	1	0.412841796875	0.57763671875	upper	../fonts/zerothre.ttf
813.752	n/a	WORD	406876	wordpools/wasnorm_wordpool.txt	LTP093	ltpFR	19	3	1	APPENDAGE	32	n/a	0	1	0.412841796875	0.57763671875	upper	../fonts/zerothre.ttf
817.902	n/a	WORD	408951	wordpools/wasnorm_wordpool.txt	LTP093	ltpFR	19	3	1	MOTH	920	n/a	1	1	0.412841796875	0.57763671875	upper	../fonts/zerothre.ttf
821.768	n/a	WORD	410884	wordpools/wasnorm_wordpool.txt	LTP093	ltpFR	19	3	0	DIRECTOR	471	n/a	1	0	0.5869140625	0.422607421875	lower	../fonts/amplitud.ttf
825.694	n/a	WORD	412847	wordpools/wasnorm_wordpool.txt	LTP093	ltpFR	19	3	0	SLEEVE	1324	n/a	0	0	0.5869140625	0.422607421875	lower	../fonts/amplitud.ttf
831.376	n/a	REC_START	415688	n/a	LTP093	ltpFR	19	3	n/a	n/a	n/a	n/a	n/a	n/a	n/a	n/a	n/a	n/a
831.77	n/a	REC_WORD	415885	wordpools/wasnorm_wordpool.txt	LTP093	ltpFR	19	3	0	SLEEVE	1324	n/a	0	n/a	n/a	n/a	n/a	n/a
832.594	n/a	REC_WORD	416297	wordpools/wasnorm_wordpool.txt	LTP093	ltpFR	19	3	0	DIRECTOR	471	n/a	1	n/a	n/a	n/a	n/a	n/a
833.626	n/a	REC_WORD	416813	wordpools/wasnorm_wordpool.txt	LTP093	ltpFR	19	3	1	MOTH	920	n/a	1	n/a	n/a	n/a	n/a	n/a
834.59	n/a	REC_WORD	417295	wordpools/wasnorm_wordpool.txt	LTP093	ltpFR	19	3	1	APPENDAGE	32	n/a	0	n/a	n/a	n/a	n/a	n/a
839.694	n/a	REC_WORD	419847	wordpools/wasnorm_wordpool.txt	LTP093	ltpFR	19	3	0	ASTRONAUT	51	n/a	1	n/a	n/a	n/a	n/a	n/a
848.748	n/a	REC_WORD	424374	wordpools/wasnorm_wordpool.txt	LTP093	ltpFR	19	3	1	DIGGER	464	n/a	1	n/a	n/a	n/a	n/a	n/a
850.22	n/a	REC_WORD	425110	wordpools/wasnorm_wordpool.txt	LTP093	ltpFR	19	3	0	BOULDER	155	n/a	0	n/a	n/a	n/a	n/a	n/a
868.734	n/a	REC_WORD	434367	wordpools/wasnorm_wordpool.txt	LTP093	ltpFR	19	3	1	PHILOSOPHER	1054	n/a	1	n/a	n/a	n/a	n/a	n/a
971.972	n/a	WORD	485986	wordpools/wasnorm_wordpool.txt	LTP093	ltpFR	19	4	1	GUEST	669	n/a	0	1	0.412841796875	0.57763671875	upper	../fonts/zerothre.ttf
976.114	n/a	WORD	488057	wordpools/wasnorm_wordpool.txt	LTP093	ltpFR	19	4	1	WAITRESS	1581	n/a	1	1	0.412841796875	0.57763671875	upper	../fonts/zerothre.ttf
979.964	n/a	WORD	489982	wordpools/wasnorm_wordpool.txt	LTP093	ltpFR	19	4	1	PRISONER	1128	n/a	1	1	0.412841796875	0.57763671875	upper	../fonts/zerothre.ttf
984.072	n/a	WORD	492036	wordpools/wasnorm_wordpool.txt	LTP093	ltpFR	19	4	1	DRAWER	493	n/a	0	1	0.412841796875	0.57763671875	upper	../fonts/zerothre.ttf
987.99	n/a	WORD	493995	wordpools/wasnorm_wordpool.txt	LTP093	ltpFR	19	4	1	ROBE	1198	n/a	0	1	0.412841796875	0.57763671875	upper	../fonts/zerothre.ttf
992.048	n/a	WORD	496024	wordpools/wasnorm_wordpool.txt	LTP093	ltpFR	19	4	1	NEST	945	n/a	0	1	0.412841796875	0.57763671875	upper	../fonts/zerothre.ttf
996.082	n/a	WORD	498041	wordpools/wasnorm_wordpool.txt	LTP093	ltpFR	19	4	1	PLANT	1083	n/a	1	1	0.412841796875	0.57763671875	upper	../fonts/zerothre.ttf
1000.04	n/a	WORD	500020	wordpools/wasnorm_wordpool.txt	LTP093	ltpFR	19	4	1	BELT	120	n/a	0	1	0.412841796875	0.57763671875	upper	../fonts/zerothre.ttf
1004.164	n/a	WORD	502082	wordpools/wasnorm_wordpool.txt	LTP093	ltpFR	19	4	1	WINGS	1614	n/a	0	1	0.412841796875	0.57763671875	upper	../fonts/zerothre.ttf
1008.214	n/a	WORD	504107	wordpools/wasnorm_wordpool.txt	LTP093	ltpFR	19	4	1	FIELD	562	n/a	0	1	0.412841796875	0.57763671875	upper	../fonts/zerothre.ttf
1012.346	n/a	WORD	506173	wordpools/wasnorm_wordpool.txt	LTP093	ltpFR	19	4	1	DANDELION	438	n/a	0	1	0.412841796875	0.57763671875	upper	../fonts/zerothre.ttf
1016.522	n/a	WORD	508261	wordpools/wasnorm_wordpool.txt	LTP093	ltpFR	19	4	1	DICTATOR	462	n/a	1	1	0.412841796875	0.57763671875	upper	../fonts/zerothre.ttf
1020.656	n/a	WORD	510328	wordpools/wasnorm_wordpool.txt	LTP093	ltpFR	19	4	1	RIDER	1191	n/a	1	1	0.412841796875	0.57763671875	upper	../fonts/zerothre.ttf
1024.754	n/a	WORD	512377	wordpools/wasnorm_wordpool.txt	LTP093	ltpFR	19	4	1	ZEBRA	1635	n/a	1	1	0.412841796875	0.57763671875	upper	../fonts/zerothre.ttf
1028.672	n/a	WORD	514336	wordpools/wasnorm_wordpool.txt	LTP093	ltpFR	19	4	1	FARM	552	n/a	0	1	0.412841796875	0.57763671875	upper	../fonts/zerothre.ttf
1032.712	n/a	WORD	516356	wordpools/wasnorm_wordpool.txt	LTP093	ltpFR	19	4	1	LUMBER	848	n/a	0	1	0.412841796875	0.57763671875	upper	../fonts/zerothre.ttf
1038.738	n/a	REC_START	519369	n/a	LTP093	ltpFR	19	4	n/a	n/a	n/a	n/a	n/a	n/a	n/a	n/a	n/a	n/a
1039.078	n/a	REC_WORD	519539	wordpools/wasnorm_wordpool.txt	LTP093	ltpFR	19	4	1	FARM	552	n/a	0	n/a	n/a	n/a	n/a	n/a
1039.96	n/a	REC_WORD	519980	wordpools/wasnorm_wordpool.txt	LTP093	ltpFR	19	4	1	LUMBER	848	n/a	0	n/a	n/a	n/a	n/a	n/a
1040.778	n/a	REC_WORD	520389	wordpools/wasnorm_wordpool.txt	LTP093	ltpFR	19	4	1	FIELD	562	n/a	0	n/a	n/a	n/a	n/a	n/a
1041.85	n/a	REC_WORD	520925	wordpools/wasnorm_wordpool.txt	LTP093	ltpFR	19	4	1	PRISONER	1128	n/a	1	n/a	n/a	n/a	n/a	n/a
1045.882	n/a	REC_WORD	522941	wordpools/wasnorm_wordpool.txt	LTP093	ltpFR	19	4	1	GUEST	669	n/a	0	n/a	n/a	n/a	n/a	n/a
1049.658	n/a	REC_WORD	524829	wordpools/wasnorm_wordpool.txt	LTP093	ltpFR	19	4	1	ROBE	1198	n/a	0	n/a	n/a	n/a	n/a	n/a
1050.362	n/a	REC_WORD	525181	wordpools/wasnorm_wordpool.txt	LTP093	ltpFR	19	4	1	BELT	120	n/a	0	n/a	n/a	n/a	n/a	n/a
1050.986	n/a	REC_WORD	525493	wordpools/wasnorm_wordpool.txt	LTP093	ltpFR	19	4	1	DANDELION	438	n/a	0	n/a	n/a	n/a	n/a	n/a
1153.186	n/a	WORD	576593	wordpools/wasnorm_wordpool.txt	LTP093	ltpFR	19	5	1	MARINE	869	n/a	0	1	0.412841796875	0.57763671875	upper	../fonts/zerothre.ttf
1157.334	n/a	WORD	578667	wordpools/wasnorm_wordpool.txt	LTP093	ltpFR	19	5	1	SAILOR	1223	n/a	1	1	0.412841796875	0.57763671875	upper	../fonts/zerothre.ttf
1161.168	n/a	WORD	580584	wordpools/wasnorm_wordpool.txt	LTP093	ltpFR	19	5	1	TURKEY	1520	n/a	1	1	0.412841796875	0.57763671875	upper	../fonts/zerothre.ttf
1165.292	n/a	WORD	582646	wordpools/wasnorm_wordpool.txt	LTP093	ltpFR	19	5	0	LILY	821	n/a	0	0	0.5869140625	0.422607421875	lower	../fonts/amplitud.ttf
1169.424	n/a	WORD	584712	wordpools/wasnorm_wordpool.txt	LTP093	ltpFR	19	5	0	TOWER	1490	n/a	1	0	0.5869140625	0.422607421875	lower	../fonts/amplitud.ttf
1173.35	n/a	WORD	586675	wordpools/wasnorm_wordpool.txt	LTP093	ltpFR	19	5	0	ESCALATOR	539	n/a	0	0	0.5869140625	0.422607421875	lower	../fonts/amplitud.ttf
1177.168	n/a	WORD	588584	wordpools/wasnorm_wordpool.txt	LTP093	ltpFR	19	5	0	HEN	703	n/a	0	0	0.5869140625	0.422607421875	lower	../fonts/amplitud.ttf
1181.018	n/a	WORD	590509	wordpools/wasnorm_wordpool.txt	LTP093	ltpFR	19	5	1	PRAIRIE	1118	n/a	0	1	0.412841796875	0.57763671875	upper	../fonts/zerothre.ttf
1185.018	n/a	WORD	592509	wordpools/wasnorm_wordpool.txt	LTP093	ltpFR	19	5	1	FOSSIL	596	n/a	0	1	0.412841796875	0.57763671875	upper	../fonts/zerothre.ttf
1189.15	n/a	WORD	594575	wordpools/wasnorm_wordpool.txt	LTP093	ltpFR	19	5	1	PASTA	1021	n/a	0	1	0.412841796875	0.57763671875	upper	../fonts/zerothre.ttf
1193.068	n/a	WORD	596534	wordpools/wasnorm_wordpool.txt	LTP093	ltpFR	19	5	1	CATERPILLAR	259	n/a	1	1	0.412841796875	0.57763671875	upper	../fonts/zerothre.ttf
1196.968	n/a	WORD	598484	wordpools/wasnorm_wordpool.txt	LTP093	ltpFR	19	5	1	TULIP	1517	n/a	1	1	0.412841796875	0.57763671875	upper	../fonts/zerothre.ttf
1200.984	n/a	WORD	600492	wordpools/wasnorm_wordpool.txt	LTP093	ltpFR	19	5	0	FRANCE	601	n/a	0	0	0.5869140625	0.422607421875	lower	../fonts/amplitud.ttf
1204.824	n/a	WORD	602412	wordpools/wasnorm_wordpool.txt	LTP093	ltpFR	19	5	0	STUDENT	1395	n/a	0	0	0.5869140625	0.422607421875	lower	../fonts/amplitud.ttf
1209.034	n/a	WORD	604517	wordpools/wasnorm_wordpool.txt	LTP093	ltpFR	19	5	0	GRADUATE	653	n/a	0	0	0.5869140625	0.422607421875	lower	../fonts/amplitud.ttf
1213.134	n/a	WORD	606567	wordpools/wasnorm_wordpool.txt	LTP093	ltpFR	19	5	0	ASIA	46	n/a	1	0	0.5869140625	0.422607421875	lower	../fonts/amplitud.ttf
1219.042	n/a	REC_START	609521	n/a	LTP093	ltpFR	19	5	n/a	n/a	n/a	n/a	n/a	n/a	n/a	n/a	n/a	n/a
1219.616	n/a	REC_WORD	609808	wordpools/wasnorm_wordpool.txt	LTP093	ltpFR	19	5	0	ASIA	46	n/a	1	n/a	n/a	n/a	n/a	n/a
1220.28	n/a	REC_WORD	610140	wordpools/wasnorm_wordpool.txt	LTP093	ltpFR	19	5	0	FRANCE	601	n/a	0	n/a	n/a	n/a	n/a	n/a
1221.182	n/a	REC_WORD	610591	wordpools/wasnorm_wordpool.txt	LTP093	ltpFR	19	5	0	STUDENT	1395	n/a	0	n/a	n/a	n/a	n/a	n/a
1222.264	n/a	REC_WORD	611132	wordpools/wasnorm_wordpool.txt	LTP093	ltpFR	19	5	0	GRADUATE	653	n/a	0	n/a	n/a	n/a	n/a	n/a
1223.806	n/a	REC_WORD	611903	wordpools/wasnorm_wordpool.txt	LTP093	ltpFR	19	5	1	TULIP	1517	n/a	1	n/a	n/a	n/a	n/a	n/a
1225.208	n/a	REC_WORD	612604	wordpools/wasnorm_wordpool.txt	LTP093	ltpFR	19	5	1	FOSSIL	596	n/a	0	n/a	n/a	n/a	n/a	n/a
1226.346	n/a	REC_WORD	613173	wordpools/wasnorm_wordpool.txt	LTP093	ltpFR	19	5	1	CATERPILLAR	259	n/a	1	n/a	n/a	n/a	n/a	n/a
1230.154	n/a	REC_WORD	615077	wordpools/wasnorm_wordpool.txt	LTP093	ltpFR	19	5	1	PASTA	1021	n/a	0	n/a	n/a	n/a	n/a	n/a
1238.504	n/a	REC_WORD	619252	wordpools/wasnorm_wordpool.txt	LTP093	ltpFR	19	5	0	TOWER	1490	n/a	1	n/a	n/a	n/a	n/a	n/a
1241.822	n/a	REC_WORD	620911	wordpools/wasnorm_wordpool.txt	LTP093	ltpFR	19	5	0	LILY	821	n/a	0	n/a	n/a	n/a	n/a	n/a
1249.086	n/a	REC_WORD	624543	wordpools/wasnorm_wordpool.txt	LTP093	ltpFR	19	5	1	MARINE	869	n/a	0	n/a	n/a	n/a	n/a	n/a
1250.134	n/a	REC_WORD	625067	wordpools/wasnorm_wordpool.txt	LTP093	ltpFR	19	5	1	SAILOR	1223	n/a	1	n/a	n/a	n/a	n/a	n/a
1252.388	n/a	REC_WORD	626194	wordpools/wasnorm_wordpool.txt	LTP093	ltpFR	19	5	1	TURKEY	1520	n/a	1	n/a	n/a	n/a	n/a	n/a
1253.272	n/a	REC_WORD	626636	wordpools/wasnorm_wordpool.txt	LTP093	ltpFR	19	5	0	HEN	703	n/a	0	n/a	n/a	n/a	n/a	n/a
1387.98	n/a	WORD	693990	wordpools/wasnorm_wordpool.txt	LTP093	ltpFR	19	6	1	VISITOR	1573	n/a	1	1	0.412841796875	0.57763671875	upper	../fonts/zerothre.ttf
1391.996	n/a	WORD	695998	wordpools/wasnorm_wordpool.txt	LTP093	ltpFR	19	6	1	CRAB	397	n/a	1	1	0.412841796875	0.57763671875	upper	../fonts/zerothre.ttf
1396.154	n/a	WORD	698077	wordpools/wasnorm_wordpool.txt	LTP093	ltpFR	19	6	1	CABINET	212	n/a	0	1	0.412841796875	0.57763671875	upper	../fonts/zerothre.ttf
1400.278	n/a	WORD	700139	wordpools/wasnorm_wordpool.txt	LTP093	ltpFR	19	6	1	GORILLA	650	n/a	1	1	0.412841796875	0.57763671875	upper	../fonts/zerothre.ttf
1404.246	n/a	WORD	702123	wordpools/wasnorm_wordpool.txt	LTP093	ltpFR	19	6	1	PRIEST	1122	n/a	1	1	0.412841796875	0.57763671875	upper	../fonts/zerothre.ttf
1408.136	n/a	WORD	704068	wordpools/wasnorm_wordpool.txt	LTP093	ltpFR	19	6	1	JEANS	752	n/a	0	1	0.412841796875	0.57763671875	upper	../fonts/zerothre.ttf
1412.286	n/a	WORD	706143	wordpools/wasnorm_wordpool.txt	LTP093	ltpFR	19	6	1	MISTER	901	n/a	1	1	0.412841796875	0.57763671875	upper	../fonts/zerothre.ttf
1416.178	n/a	WORD	708089	wordpools/wasnorm_wordpool.txt	LTP093	ltpFR	19	6	1	PATIO	1025	n/a	0	1	0.412841796875	0.57763671875	upper	../fonts/zerothre.ttf
1420.26	n/a	WORD	710130	wordpools/wasnorm_wordpool.txt	LTP093	ltpFR	19	6	1	HOUSE	725	n/a	0	1	0.412841796875	0.57763671875	upper	../fonts/zerothre.ttf
1424.294	n/a	WORD	712147	wordpools/wasnorm_wordpool.txt	LTP093	ltpFR	19	6	1	CHURCH	307	n/a	0	1	0.412841796875	0.57763671875	upper	../fonts/zerothre.ttf
1428.154	n/a	WORD	714077	wordpools/wasnorm_wordpool.txt	LTP093	ltpFR	19	6	1	PORT	1110	n/a	0	1	0.412841796875	0.57763671875	upper	../fonts/zerothre.ttf
1432.302	n/a	WORD	716151	wordpools/wasnorm_wordpool.txt	LTP093	ltpFR	19	6	1	CREW	406	n/a	0	1	0.412841796875	0.57763671875	upper	../fonts/zerothre.ttf
1436.344	n/a	WORD	718172	wordpools/wasnorm_wordpool.txt	LTP093	ltpFR	19	6	1	SYRINGE	1424	n/a	0	1	0.412841796875	0.57763671875	upper	../fonts/zerothre.ttf
1440.318	n/a	WORD	720159	wordpools/wasnorm_wordpool.txt	LTP093	ltpFR	19	6	1	SUNSET	1408	n/a	0	1	0.412841796875	0.57763671875	upper	../fonts/zerothre.ttf
1444.194	n/a	WORD	722097	wordpools/wasnorm_wordpool.txt	LTP093	ltpFR	19	6	1	JELLY	755	n/a	0	1	0.412841796875	0.57763671875	upper	../fonts/zerothre.ttf
1448.044	n/a	WORD	724022	wordpools/wasnorm_wordpool.txt	LTP093	ltpFR	19	6	1	FAMILY	550	n/a	1	1	0.412841796875	0.57763671875	upper	../fonts/zerothre.ttf
1453.844	n/a	REC_START	726922	n/a	LTP093	ltpFR	19	6	n/a	n/a	n/a	n/a	n/a	n/a	n/a	n/a	n/a	n/a
1453.85	n/a	REC_WORD	726925	wordpools/wasnorm_wordpool.txt	LTP093	ltpFR	19	6	n/a	[???]	-1	n/a	n/a	n/a	n/a	n/a	n/a	n/a
1454.274	n/a	REC_WORD	727137	wordpools/wasnorm_wordpool.txt	LTP093	ltpFR	19	6	1	FAMILY	550	n/a	1	n/a	n/a	n/a	n/a	n/a
1455.33	n/a	REC_WORD	727665	wordpools/wasnorm_wordpool.txt	LTP093	ltpFR	19	6	1	CRAB	397	n/a	1	n/a	n/a	n/a	n/a	n/a
1456.448	n/a	REC_WORD	728224	wordpools/wasnorm_wordpool.txt	LTP093	ltpFR	19	6	1	CABINET	212	n/a	0	n/a	n/a	n/a	n/a	n/a
1457.57	n/a	REC_WORD	728785	wordpools/wasnorm_wordpool.txt	LTP093	ltpFR	19	6	1	GORILLA	650	n/a	1	n/a	n/a	n/a	n/a	n/a
1458.678	n/a	REC_WORD	729339	wordpools/wasnorm_wordpool.txt	LTP093	ltpFR	19	6	1	PRIEST	1122	n/a	1	n/a	n/a	n/a	n/a	n/a
1464.7	n/a	REC_WORD	732350	wordpools/wasnorm_wordpool.txt	LTP093	ltpFR	19	6	1	PORT	1110	n/a	0	n/a	n/a	n/a	n/a	n/a
1466.062	n/a	REC_WORD	733031	wordpools/wasnorm_wordpool.txt	LTP093	ltpFR	19	6	1	PATIO	1025	n/a	0	n/a	n/a	n/a	n/a	n/a
1466.876	n/a	REC_WORD	733438	wordpools/wasnorm_wordpool.txt	LTP093	ltpFR	19	6	1	HOUSE	725	n/a	0	n/a	n/a	n/a	n/a	n/a
1475.082	n/a	REC_WORD	737541	wordpools/wasnorm_wordpool.txt	LTP093	ltpFR	19	6	1	WINGS	1614	n/a	0	n/a	n/a	n/a	n/a	n/a
1523.9	n/a	REC_WORD	761950	wordpools/wasnorm_wordpool.txt	LTP093	ltpFR	19	6	1	SYRINGE	1424	n/a	0	n/a	n/a	n/a	n/a	n/a
1525.146	n/a	REC_WORD	762573	wordpools/wasnorm_wordpool.txt	LTP093	ltpFR	19	6	1	CREW	406	n/a	0	n/a	n/a	n/a	n/a	n/a
1651.972	n/a	WORD	825986	wordpools/wasnorm_wordpool.txt	LTP093	ltpFR	19	7	-1	GRASSHOPPER	656	n/a	-1	1	1.0	1.0	upper	../fonts/Verdana.ttf
1655.83	n/a	WORD	827915	wordpools/wasnorm_wordpool.txt	LTP093	ltpFR	19	7	-1	SKULL	1320	n/a	-1	1	1.0	1.0	upper	../fonts/Verdana.ttf
1660.022	n/a	WORD	830011	wordpools/wasnorm_wordpool.txt	LTP093	ltpFR	19	7	-1	TICKET	1464	n/a	-1	1	1.0	1.0	upper	../fonts/Verdana.ttf
1663.972	n/a	WORD	831986	wordpools/wasnorm_wordpool.txt	LTP093	ltpFR	19	7	-1	BAG	69	n/a	-1	1	1.0	1.0	upper	../fonts/Verdana.ttf
1668.114	n/a	WORD	834057	wordpools/wasnorm_wordpool.txt	LTP093	ltpFR	19	7	-1	ELECTRON	522	n/a	-1	1	1.0	1.0	upper	../fonts/Verdana.ttf
1671.988	n/a	WORD	835994	wordpools/wasnorm_wordpool.txt	LTP093	ltpFR	19	7	-1	CRITIC	410	n/a	-1	1	1.0	1.0	upper	../fonts/Verdana.ttf
1676.106	n/a	WORD	838053	wordpools/wasnorm_wordpool.txt	LTP093	ltpFR	19	7	-1	TOMATO	1476	n/a	-1	1	1.0	1.0	upper	../fonts/Verdana.ttf
1680.204	n/a	WORD	840102	wordpools/wasnorm_wordpool.txt	LTP093	ltpFR	19	7	-1	CARROT	249	n/a	-1	1	1.0	1.0	upper	../fonts/Verdana.ttf
1684.37	n/a	WORD	842185	wordpools/wasnorm_wordpool.txt	LTP093	ltpFR	19	7	-1	NEUTRON	947	n/a	-1	1	1.0	1.0	upper	../fonts/Verdana.ttf
1688.504	n/a	WORD	844252	wordpools/wasnorm_wordpool.txt	LTP093	ltpFR	19	7	-1	HAT	690	n/a	-1	1	1.0	1.0	upper	../fonts/Verdana.ttf
1692.496	n/a	WORD	846248	wordpools/wasnorm_wordpool.txt	LTP093	ltpFR	19	7	-1	BARRACUDA	90	n/a	-1	1	1.0	1.0	upper	../fonts/Verdana.ttf
1696.312	n/a	WORD	848156	wordpools/wasnorm_wordpool.txt	LTP093	ltpFR	19	7	-1	TOWEL	1489	n/a	-1	1	1.0	1.0	upper	../fonts/Verdana.ttf
1700.362	n/a	WORD	850181	wordpools/wasnorm_wordpool.txt	LTP093	ltpFR	19	7	-1	TUB	1514	n/a	-1	1	1.0	1.0	upper	../fonts/Verdana.ttf
1704.478	n/a	WORD	852239	wordpools/wasnorm_wordpool.txt	LTP093	ltpFR	19	7	-1	DEODORANT	448	n/a	-1	1	1.0	1.0	upper	../fonts/Verdana.ttf
1708.32	n/a	WORD	854160	wordpools/wasnorm_wordpool.txt	LTP093	ltpFR	19	7	-1	PERFUME	1049	n/a	-1	1	1.0	1.0	upper	../fonts/Verdana.ttf
1712.312	n/a	WORD	856156	wordpools/wasnorm_wordpool.txt	LTP093	ltpFR	19	7	-1	DOG	480	n/a	-1	1	1.0	1.0	upper	../fonts/Verdana.ttf
1718.18	n/a	REC_START	859090	n/a	LTP093	ltpFR	19	7	n/a	n/a	n/a	n/a	n/a	n/a	n/a	n/a	n/a	n/a
1718.738	n/a	REC_WORD	859369	wordpools/wasnorm_wordpool.txt	LTP093	ltpFR	19	7	-1	DOG	480	n/a	-1	n/a	n/a	n/a	n/a	n/a
1719.686	n/a	REC_WORD	859843	wordpools/wasnorm_wordpool.txt	LTP093	ltpFR	19	7	-1	GRASSHOPPER	656	n/a	-1	n/a	n/a	n/a	n/a	n/a
1720.744	n/a	REC_WORD	860372	wordpools/wasnorm_wordpool.txt	LTP093	ltpFR	19	7	-1	CRITIC	410	n/a	-1	n/a	n/a	n/a	n/a	n/a
1721.542	n/a	REC_WORD	860771	wordpools/wasnorm_wordpool.txt	LTP093	ltpFR	19	7	-1	TOMATO	1476	n/a	-1	n/a	n/a	n/a	n/a	n/a
1722.52	n/a	REC_WORD	861260	wordpools/wasnorm_wordpool.txt	LTP093	ltpFR	19	7	-1	CARROT	249	n/a	-1	n/a	n/a	n/a	n/a	n/a
1723.308	n/a	REC_WORD	861654	wordpools/wasnorm_wordpool.txt	LTP093	ltpFR	19	7	-1	BAG	69	n/a	-1	n/a	n/a	n/a	n/a	n/a
1725.294	n/a	REC_WORD	862647	wordpools/wasnorm_wordpool.txt	LTP093	ltpFR	19	7	-1	SKULL	1320	n/a	-1	n/a	n/a	n/a	n/a	n/a
1728.286	n/a	REC_WORD	864143	wordpools/wasnorm_wordpool.txt	LTP093	ltpFR	19	7	-1	TICKET	1464	n/a	-1	n/a	n/a	n/a	n/a	n/a
1733.504	n/a	REC_WORD	866752	wordpools/wasnorm_wordpool.txt	LTP093	ltpFR	19	7	-1	DOG	480	n/a	-1	n/a	n/a	n/a	n/a	n/a
1839.626	n/a	WORD	919813	wordpools/wasnorm_wordpool.txt	LTP093	ltpFR	19	8	0	TOENAIL	1474	n/a	0	0	0.5869140625	0.422607421875	lower	../fonts/amplitud.ttf
1843.458	n/a	WORD	921729	wordpools/wasnorm_wordpool.txt	LTP093	ltpFR	19	8	0	WHEAT	1602	n/a	0	0	0.5869140625	0.422607421875	lower	../fonts/amplitud.ttf
1847.592	n/a	WORD	923796	wordpools/wasnorm_wordpool.txt	LTP093	ltpFR	19	8	0	BRAN	167	n/a	0	0	0.5869140625	0.422607421875	lower	../fonts/amplitud.ttf
1851.584	n/a	WORD	925792	wordpools/wasnorm_wordpool.txt	LTP093	ltpFR	19	8	0	BALLOON	75	n/a	0	0	0.5869140625	0.422607421875	lower	../fonts/amplitud.ttf
1855.642	n/a	WORD	927821	wordpools/wasnorm_wordpool.txt	LTP093	ltpFR	19	8	0	HOE	711	n/a	0	0	0.5869140625	0.422607421875	lower	../fonts/amplitud.ttf
1859.816	n/a	WORD	929908	wordpools/wasnorm_wordpool.txt	LTP093	ltpFR	19	8	0	DRIVEWAY	500	n/a	0	0	0.5869140625	0.422607421875	lower	../fonts/amplitud.ttf
1863.716	n/a	WORD	931858	wordpools/wasnorm_wordpool.txt	LTP093	ltpFR	19	8	0	THUMB	1462	n/a	0	0	0.5869140625	0.422607421875	lower	../fonts/amplitud.ttf
1867.8	n/a	WORD	933900	wordpools/wasnorm_wordpool.txt	LTP093	ltpFR	19	8	0	HATCHET	691	n/a	0	0	0.5869140625	0.422607421875	lower	../fonts/amplitud.ttf
1871.708	n/a	WORD	935854	wordpools/wasnorm_wordpool.txt	LTP093	ltpFR	19	8	0	BULL	193	n/a	0	0	0.5869140625	0.422607421875	lower	../fonts/amplitud.ttf
1875.65	n/a	WORD	937825	wordpools/wasnorm_wordpool.txt	LTP093	ltpFR	19	8	0	DIAPER	459	n/a	0	0	0.5869140625	0.422607421875	lower	../fonts/amplitud.ttf
1879.792	n/a	WORD	939896	wordpools/wasnorm_wordpool.txt	LTP093	ltpFR	19	8	0	SHOVEL	1295	n/a	0	0	0.5869140625	0.422607421875	lower	../fonts/amplitud.ttf
1883.724	n/a	WORD	941862	wordpools/wasnorm_wordpool.txt	LTP093	ltpFR	19	8	0	SCRIBBLE	1256	n/a	0	0	0.5869140625	0.422607421875	lower	../fonts/amplitud.ttf
1887.824	n/a	WORD	943912	wordpools/wasnorm_wordpool.txt	LTP093	ltpFR	19	8	0	ESSAY	540	n/a	0	0	0.5869140625	0.422607421875	lower	../fonts/amplitud.ttf
1891.908	n/a	WORD	945954	wordpools/wasnorm_wordpool.txt	LTP093	ltpFR	19	8	0	SNEAKER	1334	n/a	0	0	0.5869140625	0.422607421875	lower	../fonts/amplitud.ttf
1895.9	n/a	WORD	947950	wordpools/wasnorm_wordpool.txt	LTP093	ltpFR	19	8	0	SUN	1406	n/a	0	0	0.5869140625	0.422607421875	lower	../fonts/amplitud.ttf
1899.966	n/a	WORD	949983	wordpools/wasnorm_wordpool.txt	LTP093	ltpFR	19	8	0	CLOUD	328	n/a	0	0	0.5869140625	0.422607421875	lower	../fonts/amplitud.ttf
1906.016	n/a	REC_START	953008	n/a	LTP093	ltpFR	19	8	n/a	n/a	n/a	n/a	n/a	n/a	n/a	n/a	n/a	n/a
1906.508	n/a	REC_WORD	953254	wordpools/wasnorm_wordpool.txt	LTP093	ltpFR	19	8	0	SNEAKER	1334	n/a	0	n/a	n/a	n/a	n/a	n/a
1907.616	n/a	REC_WORD	953808	wordpools/wasnorm_wordpool.txt	LTP093	ltpFR	19	8	0	SUN	1406	n/a	0	n/a	n/a	n/a	n/a	n/a
1908.674	n/a	REC_WORD	954337	wordpools/wasnorm_wordpool.txt	LTP093	ltpFR	19	8	0	CLOUD	328	n/a	0	n/a	n/a	n/a	n/a	n/a
1909.972	n/a	REC_WORD	954986	wordpools/wasnorm_wordpool.txt	LTP093	ltpFR	19	8	0	TOENAIL	1474	n/a	0	n/a	n/a	n/a	n/a	n/a
1911.464	n/a	REC_WORD	955732	wordpools/wasnorm_wordpool.txt	LTP093	ltpFR	19	8	0	THUMB	1462	n/a	0	n/a	n/a	n/a	n/a	n/a
1914.722	n/a	REC_WORD	957361	wordpools/wasnorm_wordpool.txt	LTP093	ltpFR	19	8	0	WHEAT	1602	n/a	0	n/a	n/a	n/a	n/a	n/a
1915.49	n/a	REC_WORD	957745	wordpools/wasnorm_wordpool.txt	LTP093	ltpFR	19	8	0	BRAN	167	n/a	0	n/a	n/a	n/a	n/a	n/a
2026.288	n/a	WORD	1013144	wordpools/wasnorm_wordpool.txt	LTP093	ltpFR	19	9	-1	GALLON	618	n/a	-1	1	1.0	1.0	upper	../fonts/Verdana.ttf
2030.13	n/a	WORD	1015065	wordpools/wasnorm_wordpool.txt	LTP093	ltpFR	19	9	-1	INDIAN	736	n/a	-1	1	1.0	1.0	upper	../fonts/Verdana.ttf
2033.97	n/a	WORD	1016985	wordpools/wasnorm_wordpool.txt	LTP093	ltpFR	19	9	-1	NIGHTGOWN	953	n/a	-1	1	1.0	1.0	upper	../fonts/Verdana.ttf
2038.162	n/a	WORD	1019081	wordpools/wasnorm_wordpool.txt	LTP093	ltpFR	19	9	-1	COMPANION	357	n/a	-1	1	1.0	1.0	upper	../fonts/Verdana.ttf
2042.054	n/a	WORD	1021027	wordpools/wasnorm_wordpool.txt	LTP093	ltpFR	19	9	-1	GAVEL	627	n/a	-1	1	1.0	1.0	upper	../fonts/Verdana.ttf
2045.878	n/a	WORD	1022939	wordpools/wasnorm_wordpool.txt	LTP093	ltpFR	19	9	-1	DAUGHTER	442	n/a	-1	1	1.0	1.0	upper	../fonts/Verdana.ttf
2049.704	n/a	WORD	1024852	wordpools/wasnorm_wordpool.txt	LTP093	ltpFR	19	9	-1	SCALPEL	1243	n/a	-1	1	1.0	1.0	upper	../fonts/Verdana.ttf
2053.712	n/a	WORD	1026856	wordpools/wasnorm_wordpool.txt	LTP093	ltpFR	19	9	-1	SPOON	1357	n/a	-1	1	1.0	1.0	upper	../fonts/Verdana.ttf
2057.812	n/a	WORD	1028906	wordpools/wasnorm_wordpool.txt	LTP093	ltpFR	19	9	-1	BOYFRIEND	162	n/a	-1	1	1.0	1.0	upper	../fonts/Verdana.ttf
2061.728	n/a	WORD	1030864	wordpools/wasnorm_wordpool.txt	LTP093	ltpFR	19	9	-1	SAUSAGE	1238	n/a	-1	1	1.0	1.0	upper	../fonts/Verdana.ttf
2065.796	n/a	WORD	1032898	wordpools/wasnorm_wordpool.txt	LTP093	ltpFR	19	9	-1	BUN	197	n/a	-1	1	1.0	1.0	upper	../fonts/Verdana.ttf
2069.72	n/a	WORD	1034860	wordpools/wasnorm_wordpool.txt	LTP093	ltpFR	19	9	-1	SHORTS	1293	n/a	-1	1	1.0	1.0	upper	../fonts/Verdana.ttf
2073.652	n/a	WORD	1036826	wordpools/wasnorm_wordpool.txt	LTP093	ltpFR	19	9	-1	YACHT	1629	n/a	-1	1	1.0	1.0	upper	../fonts/Verdana.ttf
2077.57	n/a	WORD	1038785	wordpools/wasnorm_wordpool.txt	LTP093	ltpFR	19	9	-1	ROBBER	1197	n/a	-1	1	1.0	1.0	upper	../fonts/Verdana.ttf
2081.728	n/a	WORD	1040864	wordpools/wasnorm_wordpool.txt	LTP093	ltpFR	19	9	-1	OUTLAW	989	n/a	-1	1	1.0	1.0	upper	../fonts/Verdana.ttf
2085.802	n/a	WORD	1042901	wordpools/wasnorm_wordpool.txt	LTP093	ltpFR	19	9	-1	TRIBE	1505	n/a	-1	1	1.0	1.0	upper	../fonts/Verdana.ttf
2091.544	n/a	REC_START	1045772	n/a	LTP093	ltpFR	19	9	n/a	n/a	n/a	n/a	n/a	n/a	n/a	n/a	n/a	n/a
2092.198	n/a	REC_WORD	1046099	wordpools/wasnorm_wordpool.txt	LTP093	ltpFR	19	9	-1	TRIBE	1505	n/a	-1	n/a	n/a	n/a	n/a	n/a
2093.17	n/a	REC_WORD	1046585	wordpools/wasnorm_wordpool.txt	LTP093	ltpFR	19	9	-1	YACHT	1629	n/a	-1	n/a	n/a	n/a	n/a	n/a
2094.068	n/a	REC_WORD	1047034	wordpools/wasnorm_wordpool.txt	LTP093	ltpFR	19	9	-1	ROBBER	1197	n/a	-1	n/a	n/a	n/a	n/a	n/a
2095.112	n/a	REC_WORD	1047556	wordpools/wasnorm_wordpool.txt	LTP093	ltpFR	19	9	-1	OUTLAW	989	n/a	-1	n/a	n/a	n/a	n/a	n/a
2096.418	n/a	REC_WORD	1048209	wordpools/wasnorm_wordpool.txt	LTP093	ltpFR	19	9	-1	INDIAN	736	n/a	-1	n/a	n/a	n/a	n/a	n/a
2097.406	n/a	REC_WORD	1048703	wordpools/wasnorm_wordpool.txt	LTP093	ltpFR	19	9	-1	NIGHTGOWN	953	n/a	-1	n/a	n/a	n/a	n/a	n/a
2098.772	n/a	REC_WORD	1049386	wordpools/wasnorm_wordpool.txt	LTP093	ltpFR	19	9	-1	COMPANION	357	n/a	-1	n/a	n/a	n/a	n/a	n/a
2099.984	n/a	REC_WORD	1049992	wordpools/wasnorm_wordpool.txt	LTP093	ltpFR	19	9	-1	GALLON	618	n/a	-1	n/a	n/a	n/a	n/a	n/a
2101.188	n/a	REC_WORD	1050594	wordpools/wasnorm_wordpool.txt	LTP093	ltpFR	19	9	-1	BOYFRIEND	162	n/a	-1	n/a	n/a	n/a	n/a	n/a
2102.394	n/a	REC_WORD	1051197	wordpools/wasnorm_wordpool.txt	LTP093	ltpFR	19	9	-1	SPOON	1357	n/a	-1	n/a	n/a	n/a	n/a	n/a
2103.418	n/a	REC_WORD	1051709	wordpools/wasnorm_wordpool.txt	LTP093	ltpFR	19	9	-1	SCALPEL	1243	n/a	-1	n/a	n/a	n/a	n/a	n/a
2197.866	n/a	WORD	1098933	wordpools/wasnorm_wordpool.txt	LTP093	ltpFR	19	10	0	GREASE	660	n/a	0	0	0.5869140625	0.422607421875	lower	../fonts/amplitud.ttf
2202.008	n/a	WORD	1101004	wordpools/wasnorm_wordpool.txt	LTP093	ltpFR	19	10	0	MECHANIC	884	n/a	1	0	0.5869140625	0.422607421875	lower	../fonts/amplitud.ttf
2205.824	n/a	WORD	1102912	wordpools/wasnorm_wordpool.txt	LTP093	ltpFR	19	10	0	PORCUPINE	1107	n/a	0	0	0.5869140625	0.422607421875	lower	../fonts/amplitud.ttf
2209.94	n/a	WORD	1104970	wordpools/wasnorm_wordpool.txt	LTP093	ltpFR	19	10	0	BUFFALO	186	n/a	1	0	0.5869140625	0.422607421875	lower	../fonts/amplitud.ttf
2213.79	n/a	WORD	1106895	wordpools/wasnorm_wordpool.txt	LTP093	ltpFR	19	10	1	SLEIGH	1325	n/a	0	1	0.412841796875	0.57763671875	upper	../fonts/zerothre.ttf
2217.756	n/a	WORD	1108878	wordpools/wasnorm_wordpool.txt	LTP093	ltpFR	19	10	1	BRIDE	173	n/a	1	1	0.412841796875	0.57763671875	upper	../fonts/zerothre.ttf
2221.84	n/a	WORD	1110920	wordpools/wasnorm_wordpool.txt	LTP093	ltpFR	19	10	1	BRACELET	163	n/a	0	1	0.412841796875	0.57763671875	upper	../fonts/zerothre.ttf
2225.774	n/a	WORD	1112887	wordpools/wasnorm_wordpool.txt	LTP093	ltpFR	19	10	1	ACROBAT	4	n/a	1	1	0.412841796875	0.57763671875	upper	../fonts/zerothre.ttf
2229.924	n/a	WORD	1114962	wordpools/wasnorm_wordpool.txt	LTP093	ltpFR	19	10	0	GYMNAST	675	n/a	0	0	0.5869140625	0.422607421875	lower	../fonts/amplitud.ttf
2233.856	n/a	WORD	1116928	wordpools/wasnorm_wordpool.txt	LTP093	ltpFR	19	10	0	DESSERT	453	n/a	0	0	0.5869140625	0.422607421875	lower	../fonts/amplitud.ttf
2237.998	n/a	WORD	1118999	wordpools/wasnorm_wordpool.txt	LTP093	ltpFR	19	10	0	TWIG	1527	n/a	0	0	0.5869140625	0.422607421875	lower	../fonts/amplitud.ttf
2242.132	n/a	WORD	1121066	wordpools/wasnorm_wordpool.txt	LTP093	ltpFR	19	10	0	BUBBLE	183	n/a	0	0	0.5869140625	0.422607421875	lower	../fonts/amplitud.ttf
2246.232	n/a	WORD	1123116	wordpools/wasnorm_wordpool.txt	LTP093	ltpFR	19	10	1	SALAD	1224	n/a	0	1	0.412841796875	0.57763671875	upper	../fonts/zerothre.ttf
2250.438	n/a	WORD	1125219	wordpools/wasnorm_wordpool.txt	LTP093	ltpFR	19	10	1	DRUM	502	n/a	0	1	0.412841796875	0.57763671875	upper	../fonts/zerothre.ttf
2254.414	n/a	WORD	1127207	wordpools/wasnorm_wordpool.txt	LTP093	ltpFR	19	10	1	CHAIN	273	n/a	0	1	0.412841796875	0.57763671875	upper	../fonts/zerothre.ttf
2258.222	n/a	WORD	1129111	wordpools/wasnorm_wordpool.txt	LTP093	ltpFR	19	10	1	LEOPARD	812	n/a	1	1	0.412841796875	0.57763671875	upper	../fonts/zerothre.ttf
2263.99	n/a	REC_START	1131995	n/a	LTP093	ltpFR	19	10	n/a	n/a	n/a	n/a	n/a	n/a	n/a	n/a	n/a	n/a
2264.688	n/a	REC_WORD	1132344	wordpools/wasnorm_wordpool.txt	LTP093	ltpFR	19	10	0	BUBBLE	183	n/a	0	n/a	n/a	n/a	n/a	n/a
2265.622	n/a	REC_WORD	1132811	wordpools/wasnorm_wordpool.txt	LTP093	ltpFR	19	10	1	DRUM	502	n/a	0	n/a	n/a	n/a	n/a	n/a
2266.714	n/a	REC_WORD	1133357	wordpools/wasnorm_wordpool.txt	LTP093	ltpFR	19	10	1	CHAIN	273	n/a	0	n/a	n/a	n/a	n/a	n/a
2267.726	n/a	REC_WORD	1133863	wordpools/wasnorm_wordpool.txt	LTP093	ltpFR	19	10	1	LEOPARD	812	n/a	1	n/a	n/a	n/a	n/a	n/a
2287.382	n/a	REC_WORD	1143691	wordpools/wasnorm_wordpool.txt	LTP093	ltpFR	19	10	1	BRIDE	173	n/a	1	n/a	n/a	n/a	n/a	n/a
2288.302	n/a	REC_WORD	1144151	wordpools/wasnorm_wordpool.txt	LTP093	ltpFR	19	10	1	SLEIGH	1325	n/a	0	n/a	n/a	n/a	n/a	n/a
2289.454	n/a	REC_WORD	1144727	wordpools/wasnorm_wordpool.txt	LTP093	ltpFR	19	10	1	BRACELET	163	n/a	0	n/a	n/a	n/a	n/a	n/a
2290.98	n/a	REC_WORD	1145490	wordpools/wasnorm_wordpool.txt	LTP093	ltpFR	19	10	0	PORCUPINE	1107	n/a	0	n/a	n/a	n/a	n/a	n/a
2292.072	n/a	REC_WORD	1146036	wordpools/wasnorm_wordpool.txt	LTP093	ltpFR	19	10	0	GREASE	660	n/a	0	n/a	n/a	n/a	n/a	n/a
2292.806	n/a	REC_WORD	1146403	wordpools/wasnorm_wordpool.txt	LTP093	ltpFR	19	10	0	MECHANIC	884	n/a	1	n/a	n/a	n/a	n/a	n/a
2374.402	n/a	WORD	1187201	wordpools/wasnorm_wordpool.txt	LTP093	ltpFR	19	11	1	SALMON	1227	n/a	1	1	0.412841796875	0.57763671875	upper	../fonts/zerothre.ttf
2378.42	n/a	WORD	1189210	wordpools/wasnorm_wordpool.txt	LTP093	ltpFR	19	11	1	CITY	314	n/a	0	1	0.412841796875	0.57763671875	upper	../fonts/zerothre.ttf
2382.418	n/a	WORD	1191209	wordpools/wasnorm_wordpool.txt	LTP093	ltpFR	19	11	1	ANTENNA	28	n/a	0	1	0.412841796875	0.57763671875	upper	../fonts/zerothre.ttf
2386.378	n/a	WORD	1193189	wordpools/wasnorm_wordpool.txt	LTP093	ltpFR	19	11	1	TUXEDO	1525	n/a	0	1	0.412841796875	0.57763671875	upper	../fonts/zerothre.ttf
2390.32	n/a	WORD	1195160	wordpools/wasnorm_wordpool.txt	LTP093	ltpFR	19	11	1	BRUSH	182	n/a	0	1	0.412841796875	0.57763671875	upper	../fonts/zerothre.ttf
2394.194	n/a	WORD	1197097	wordpools/wasnorm_wordpool.txt	LTP093	ltpFR	19	11	1	WHISKERS	1605	n/a	0	1	0.412841796875	0.57763671875	upper	../fonts/zerothre.ttf
2398.062	n/a	WORD	1199031	wordpools/wasnorm_wordpool.txt	LTP093	ltpFR	19	11	1	OATMEAL	967	n/a	0	1	0.412841796875	0.57763671875	upper	../fonts/zerothre.ttf
2401.944	n/a	WORD	1200972	wordpools/wasnorm_wordpool.txt	LTP093	ltpFR	19	11	1	CABLE	213	n/a	0	1	0.412841796875	0.57763671875	upper	../fonts/zerothre.ttf
2406.052	n/a	WORD	1203026	wordpools/wasnorm_wordpool.txt	LTP093	ltpFR	19	11	1	LION	827	n/a	1	1	0.412841796875	0.57763671875	upper	../fonts/zerothre.ttf
2410.194	n/a	WORD	1205097	wordpools/wasnorm_wordpool.txt	LTP093	ltpFR	19	11	1	CRICKET	408	n/a	1	1	0.412841796875	0.57763671875	upper	../fonts/zerothre.ttf
2414.076	n/a	WORD	1207038	wordpools/wasnorm_wordpool.txt	LTP093	ltpFR	19	11	1	TERMITE	1451	n/a	1	1	0.412841796875	0.57763671875	upper	../fonts/zerothre.ttf
2418.036	n/a	WORD	1209018	wordpools/wasnorm_wordpool.txt	LTP093	ltpFR	19	11	1	SHRIMP	1297	n/a	1	1	0.412841796875	0.57763671875	upper	../fonts/zerothre.ttf
2422.094	n/a	WORD	1211047	wordpools/wasnorm_wordpool.txt	LTP093	ltpFR	19	11	1	RECORD	1176	n/a	0	1	0.412841796875	0.57763671875	upper	../fonts/zerothre.ttf
2425.936	n/a	WORD	1212968	wordpools/wasnorm_wordpool.txt	LTP093	ltpFR	19	11	1	PANTHER	1009	n/a	1	1	0.412841796875	0.57763671875	upper	../fonts/zerothre.ttf
2429.944	n/a	WORD	1214972	wordpools/wasnorm_wordpool.txt	LTP093	ltpFR	19	11	1	FOOTBALL	591	n/a	0	1	0.412841796875	0.57763671875	upper	../fonts/zerothre.ttf
2433.886	n/a	WORD	1216943	wordpools/wasnorm_wordpool.txt	LTP093	ltpFR	19	11	1	GYM	674	n/a	0	1	0.412841796875	0.57763671875	upper	../fonts/zerothre.ttf
2439.628	n/a	REC_START	1219814	n/a	LTP093	ltpFR	19	11	n/a	n/a	n/a	n/a	n/a	n/a	n/a	n/a	n/a	n/a
2440.266	n/a	REC_WORD	1220133	wordpools/wasnorm_wordpool.txt	LTP093	ltpFR	19	11	1	GYM	674	n/a	0	n/a	n/a	n/a	n/a	n/a
2441.154	n/a	REC_WORD	1220577	wordpools/wasnorm_wordpool.txt	LTP093	ltpFR	19	11	1	SHRIMP	1297	n/a	1	n/a	n/a	n/a	n/a	n/a
2442.426	n/a	REC_WORD	1221213	wordpools/wasnorm_wordpool.txt	LTP093	ltpFR	19	11	1	RECORD	1176	n/a	0	n/a	n/a	n/a	n/a	n/a
2444.156	n/a	REC_WORD	1222078	wordpools/wasnorm_wordpool.txt	LTP093	ltpFR	19	11	1	PANTHER	1009	n/a	1	n/a	n/a	n/a	n/a	n/a
2445.164	n/a	REC_WORD	1222582	wordpools/wasnorm_wordpool.txt	LTP093	ltpFR	19	11	1	FOOTBALL	591	n/a	0	n/a	n/a	n/a	n/a	n/a
2450.188	n/a	REC_WORD	1225094	wordpools/wasnorm_wordpool.txt	LTP093	ltpFR	19	11	1	TUXEDO	1525	n/a	0	n/a	n/a	n/a	n/a	n/a
2451.386	n/a	REC_WORD	1225693	wordpools/wasnorm_wordpool.txt	LTP093	ltpFR	19	11	1	ANTENNA	28	n/a	0	n/a	n/a	n/a	n/a	n/a
2453.092	n/a	REC_WORD	1226546	wordpools/wasnorm_wordpool.txt	LTP093	ltpFR	19	11	1	BRUSH	182	n/a	0	n/a	n/a	n/a	n/a	n/a
2454.12	n/a	REC_WORD	1227060	wordpools/wasnorm_wordpool.txt	LTP093	ltpFR	19	11	1	CABLE	213	n/a	0	n/a	n/a	n/a	n/a	n/a
2455.902	n/a	REC_WORD	1227951	wordpools/wasnorm_wordpool.txt	LTP093	ltpFR	19	11	1	SALMON	1227	n/a	1	n/a	n/a	n/a	n/a	n/a
2456.844	n/a	REC_WORD	1228422	wordpools/wasnorm_wordpool.txt	LTP093	ltpFR	19	11	1	CITY	314	n/a	0	n/a	n/a	n/a	n/a	n/a
2461.544	n/a	REC_WORD	1230772	wordpools/wasnorm_wordpool.txt	LTP093	ltpFR	19	11	1	WHISKERS	1605	n/a	0	n/a	n/a	n/a	n/a	n/a
2463.134	n/a	REC_WORD	1231567	wordpools/wasnorm_wordpool.txt	LTP093	ltpFR	19	11	1	CRICKET	408	n/a	1	n/a	n/a	n/a	n/a	n/a
2571.532	n/a	WORD	1285766	wordpools/wasnorm_wordpool.txt	LTP093	ltpFR	19	12	-1	CUFF	423	n/a	-1	1	1.0	1.0	upper	../fonts/Verdana.ttf
2575.498	n/a	WORD	1287749	wordpools/wasnorm_wordpool.txt	LTP093	ltpFR	19	12	-1	SKIRT	1319	n/a	-1	1	1.0	1.0	upper	../fonts/Verdana.ttf
2579.446	n/a	WORD	1289723	wordpools/wasnorm_wordpool.txt	LTP093	ltpFR	19	12	-1	WICK	1607	n/a	-1	1	1.0	1.0	upper	../fonts/Verdana.ttf
2583.322	n/a	WORD	1291661	wordpools/wasnorm_wordpool.txt	LTP093	ltpFR	19	12	-1	DETERGENT	455	n/a	-1	1	1.0	1.0	upper	../fonts/Verdana.ttf
2587.414	n/a	WORD	1293707	wordpools/wasnorm_wordpool.txt	LTP093	ltpFR	19	12	-1	FUR	615	n/a	-1	1	1.0	1.0	upper	../fonts/Verdana.ttf
2591.29	n/a	WORD	1295645	wordpools/wasnorm_wordpool.txt	LTP093	ltpFR	19	12	-1	SENATE	1267	n/a	-1	1	1.0	1.0	upper	../fonts/Verdana.ttf
2595.438	n/a	WORD	1297719	wordpools/wasnorm_wordpool.txt	LTP093	ltpFR	19	12	-1	RAT	1169	n/a	-1	1	1.0	1.0	upper	../fonts/Verdana.ttf
2599.38	n/a	WORD	1299690	wordpools/wasnorm_wordpool.txt	LTP093	ltpFR	19	12	-1	STEP	1377	n/a	-1	1	1.0	1.0	upper	../fonts/Verdana.ttf
2603.572	n/a	WORD	1301786	wordpools/wasnorm_wordpool.txt	LTP093	ltpFR	19	12	-1	NUCLEUS	961	n/a	-1	1	1.0	1.0	upper	../fonts/Verdana.ttf
2607.764	n/a	WORD	1303882	wordpools/wasnorm_wordpool.txt	LTP093	ltpFR	19	12	-1	BIOLOGIST	128	n/a	-1	1	1.0	1.0	upper	../fonts/Verdana.ttf
2611.714	n/a	WORD	1305857	wordpools/wasnorm_wordpool.txt	LTP093	ltpFR	19	12	-1	POLITICIAN	1099	n/a	-1	1	1.0	1.0	upper	../fonts/Verdana.ttf
2615.898	n/a	WORD	1307949	wordpools/wasnorm_wordpool.txt	LTP093	ltpFR	19	12	-1	LAPEL	800	n/a	-1	1	1.0	1.0	upper	../fonts/Verdana.ttf
2620.022	n/a	WORD	1310011	wordpools/wasnorm_wordpool.txt	LTP093	ltpFR	19	12	-1	SHED	1277	n/a	-1	1	1.0	1.0	upper	../fonts/Verdana.ttf
2624.122	n/a	WORD	1312061	wordpools/wasnorm_wordpool.txt	LTP093	ltpFR	19	12	-1	VALLEY	1545	n/a	-1	1	1.0	1.0	upper	../fonts/Verdana.ttf
2628.33	n/a	WORD	1314165	wordpools/wasnorm_wordpool.txt	LTP093	ltpFR	19	12	-1	TOAST	1471	n/a	-1	1	1.0	1.0	upper	../fonts/Verdana.ttf
2632.406	n/a	WORD	1316203	wordpools/wasnorm_wordpool.txt	LTP093	ltpFR	19	12	-1	BUTTER	205	n/a	-1	1	1.0	1.0	upper	../fonts/Verdana.ttf
2638.098	n/a	REC_START	1319049	n/a	LTP093	ltpFR	19	12	n/a	n/a	n/a	n/a	n/a	n/a	n/a	n/a	n/a	n/a
2638.62	n/a	REC_WORD	1319310	wordpools/wasnorm_wordpool.txt	LTP093	ltpFR	19	12	-1	VALLEY	1545	n/a	-1	n/a	n/a	n/a	n/a	n/a
2639.52	n/a	REC_WORD	1319760	wordpools/wasnorm_wordpool.txt	LTP093	ltpFR	19	12	-1	BUTTER	205	n/a	-1	n/a	n/a	n/a	n/a	n/a
2640.202	n/a	REC_WORD	1320101	wordpools/wasnorm_wordpool.txt	LTP093	ltpFR	19	12	-1	TOAST	1471	n/a	-1	n/a	n/a	n/a	n/a	n/a
2640.956	n/a	REC_WORD	1320478	wordpools/wasnorm_wordpool.txt	LTP093	ltpFR	19	12	-1	BIOLOGIST	128	n/a	-1	n/a	n/a	n/a	n/a	n/a
2642.218	n/a	REC_WORD	1321109	wordpools/wasnorm_wordpool.txt	LTP093	ltpFR	19	12	-1	RAT	1169	n/a	-1	n/a	n/a	n/a	n/a	n/a
2642.832	n/a	REC_WORD	1321416	wordpools/wasnorm_wordpool.txt	LTP093	ltpFR	19	12	-1	DEODORANT	448	n/a	-1	n/a	n/a	n/a	n/a	n/a
2643.67	n/a	REC_WORD	1321835	wordpools/wasnorm_wordpool.txt	LTP093	ltpFR	19	12	-1	FUR	615	n/a	-1	n/a	n/a	n/a	n/a	n/a
2644.668	n/a	REC_WORD	1322334	wordpools/wasnorm_wordpool.txt	LTP093	ltpFR	19	12	-1	WICK	1607	n/a	-1	n/a	n/a	n/a	n/a	n/a
2645.654	n/a	REC_WORD	1322827	wordpools/wasnorm_wordpool.txt	LTP093	ltpFR	19	12	-1	SENATE	1267	n/a	-1	n/a	n/a	n/a	n/a	n/a
2646.538	n/a	REC_WORD	1323269	wordpools/wasnorm_wordpool.txt	LTP093	ltpFR	19	12	-1	POLITICIAN	1099	n/a	-1	n/a	n/a	n/a	n/a	n/a
2647.606	n/a	REC_WORD	1323803	wordpools/wasnorm_wordpool.txt	LTP093	ltpFR	19	12	-1	NUCLEUS	961	n/a	-1	n/a	n/a	n/a	n/a	n/a
2649.014	n/a	REC_WORD	1324507	wordpools/wasnorm_wordpool.txt	LTP093	ltpFR	19	12	-1	SKIRT	1319	n/a	-1	n/a	n/a	n/a	n/a	n/a
2649.926	n/a	REC_WORD	1324963	wordpools/wasnorm_wordpool.txt	LTP093	ltpFR	19	12	-1	CUFF	423	n/a	-1	n/a	n/a	n/a	n/a	n/a
2650.51	n/a	REC_WORD	1325255	wordpools/wasnorm_wordpool.txt	LTP093	ltpFR	19	12	-1	STEP	1377	n/a	-1	n/a	n/a	n/a	n/a	n/a
2713.728	n/a	REST_REWET	1356864	n/a	LTP093	ltpFR	19	12	n/a	n/a	n/a	n/a	n/a	n/a	n/a	n/a	n/a	n/a
3226.73	n/a	WORD	1613365	wordpools/wasnorm_wordpool.txt	LTP093	ltpFR	19	13	0	TYPIST	1532	n/a	0	0	0.5869140625	0.422607421875	lower	../fonts/amplitud.ttf
3230.748	n/a	WORD	1615374	wordpools/wasnorm_wordpool.txt	LTP093	ltpFR	19	13	0	SHEET	1279	n/a	0	0	0.5869140625	0.422607421875	lower	../fonts/amplitud.ttf
3234.722	n/a	WORD	1617361	wordpools/wasnorm_wordpool.txt	LTP093	ltpFR	19	13	0	TYPEWRITER	1531	n/a	0	0	0.5869140625	0.422607421875	lower	../fonts/amplitud.ttf
3238.68	n/a	WORD	1619340	wordpools/wasnorm_wordpool.txt	LTP093	ltpFR	19	13	0	CHART	282	n/a	0	0	0.5869140625	0.422607421875	lower	../fonts/amplitud.ttf
3242.83	n/a	WORD	1621415	wordpools/wasnorm_wordpool.txt	LTP093	ltpFR	19	13	0	RECIPE	1175	n/a	0	0	0.5869140625	0.422607421875	lower	../fonts/amplitud.ttf
3246.688	n/a	WORD	1623344	wordpools/wasnorm_wordpool.txt	LTP093	ltpFR	19	13	0	WASHCLOTH	1591	n/a	0	0	0.5869140625	0.422607421875	lower	../fonts/amplitud.ttf
3250.74	n/a	WORD	1625370	wordpools/wasnorm_wordpool.txt	LTP093	ltpFR	19	13	0	COCKTAIL	338	n/a	0	0	0.5869140625	0.422607421875	lower	../fonts/amplitud.ttf
3254.948	n/a	WORD	1627474	wordpools/wasnorm_wordpool.txt	LTP093	ltpFR	19	13	0	DRINK	498	n/a	0	0	0.5869140625	0.422607421875	lower	../fonts/amplitud.ttf
3259.098	n/a	WORD	1629549	wordpools/wasnorm_wordpool.txt	LTP093	ltpFR	19	13	0	ATLAS	53	n/a	1	0	0.5869140625	0.422607421875	lower	../fonts/amplitud.ttf
3262.922	n/a	WORD	1631461	wordpools/wasnorm_wordpool.txt	LTP093	ltpFR	19	13	0	MARSH	874	n/a	1	0	0.5869140625	0.422607421875	lower	../fonts/amplitud.ttf
3266.872	n/a	WORD	1633436	wordpools/wasnorm_wordpool.txt	LTP093	ltpFR	19	13	0	ROOSTER	1209	n/a	0	0	0.5869140625	0.422607421875	lower	../fonts/amplitud.ttf
3271.038	n/a	WORD	1635519	wordpools/wasnorm_wordpool.txt	LTP093	ltpFR	19	13	0	DOCUMENT	479	n/a	0	0	0.5869140625	0.422607421875	lower	../fonts/amplitud.ttf
3274.93	n/a	WORD	1637465	wordpools/wasnorm_wordpool.txt	LTP093	ltpFR	19	13	0	CYCLONE	431	n/a	1	0	0.5869140625	0.422607421875	lower	../fonts/amplitud.ttf
3278.788	n/a	WORD	1639394	wordpools/wasnorm_wordpool.txt	LTP093	ltpFR	19	13	0	HAIL	676	n/a	0	0	0.5869140625	0.422607421875	lower	../fonts/amplitud.ttf
3282.804	n/a	WORD	1641402	wordpools/wasnorm_wordpool.txt	LTP093	ltpFR	19	13	0	BULLET	194	n/a	0	0	0.5869140625	0.422607421875	lower	../fonts/amplitud.ttf
3286.796	n/a	WORD	1643398	wordpools/wasnorm_wordpool.txt	LTP093	ltpFR	19	13	0	SCHOOL	1248	n/a	0	0	0.5869140625	0.422607421875	lower	../fonts/amplitud.ttf
3292.764	n/a	REC_START	1646382	n/a	LTP093	ltpFR	19	13	n/a	n/a	n/a	n/a	n/a	n/a	n/a	n/a	n/a	n/a
3293.342	n/a	REC_WORD	1646671	wordpools/wasnorm_wordpool.txt	LTP093	ltpFR	19	13	0	HAIL	676	n/a	0	n/a	n/a	n/a	n/a	n/a
3294.21	n/a	REC_WORD	1647105	wordpools/wasnorm_wordpool.txt	LTP093	ltpFR	19	13	0	BULLET	194	n/a	0	n/a	n/a	n/a	n/a	n/a
3294.978	n/a	REC_WORD	1647489	wordpools/wasnorm_wordpool.txt	LTP093	ltpFR	19	13	0	SCHOOL	1248	n/a	0	n/a	n/a	n/a	n/a	n/a
3296.19	n/a	REC_WORD	1648095	wordpools/wasnorm_wordpool.txt	LTP093	ltpFR	19	13	0	TYPIST	1532	n/a	0	n/a	n/a	n/a	n/a	n/a
3297.208	n/a	REC_WORD	1648604	wordpools/wasnorm_wordpool.txt	LTP093	ltpFR	19	13	0	SHEET	1279	n/a	0	n/a	n/a	n/a	n/a	n/a
3298.24	n/a	REC_WORD	1649120	wordpools/wasnorm_wordpool.txt	LTP093	ltpFR	19	13	0	TYPEWRITER	1531	n/a	0	n/a	n/a	n/a	n/a	n/a
3299.966	n/a	REC_WORD	1649983	wordpools/wasnorm_wordpool.txt	LTP093	ltpFR	19	13	0	DOCUMENT	479	n/a	0	n/a	n/a	n/a	n/a	n/a
3411.492	n/a	WORD	1705746	wordpools/wasnorm_wordpool.txt	LTP093	ltpFR	19	14	1	HOSPITAL	721	n/a	0	1	0.412841796875	0.57763671875	upper	../fonts/zerothre.ttf
3415.452	n/a	WORD	1707726	wordpools/wasnorm_wordpool.txt	LTP093	ltpFR	19	14	1	VASE	1549	n/a	0	1	0.412841796875	0.57763671875	upper	../fonts/zerothre.ttf
3419.484	n/a	WORD	1709742	wordpools/wasnorm_wordpool.txt	LTP093	ltpFR	19	14	1	HARP	689	n/a	0	1	0.412841796875	0.57763671875	upper	../fonts/zerothre.ttf
3423.532	n/a	WORD	1711766	wordpools/wasnorm_wordpool.txt	LTP093	ltpFR	19	14	0	NOTE	958	n/a	0	0	0.5869140625	0.422607421875	lower	../fonts/amplitud.ttf
3427.352	n/a	WORD	1713676	wordpools/wasnorm_wordpool.txt	LTP093	ltpFR	19	14	0	CROSS	413	n/a	0	0	0.5869140625	0.422607421875	lower	../fonts/amplitud.ttf
3431.46	n/a	WORD	1715730	wordpools/wasnorm_wordpool.txt	LTP093	ltpFR	19	14	0	ACID	2	n/a	0	0	0.5869140625	0.422607421875	lower	../fonts/amplitud.ttf
3435.61	n/a	WORD	1717805	wordpools/wasnorm_wordpool.txt	LTP093	ltpFR	19	14	0	PUCK	1138	n/a	0	0	0.5869140625	0.422607421875	lower	../fonts/amplitud.ttf
3439.55	n/a	WORD	1719775	wordpools/wasnorm_wordpool.txt	LTP093	ltpFR	19	14	0	VEST	1559	n/a	0	0	0.5869140625	0.422607421875	lower	../fonts/amplitud.ttf
3443.758	n/a	WORD	1721879	wordpools/wasnorm_wordpool.txt	LTP093	ltpFR	19	14	0	TROUT	1511	n/a	0	0	0.5869140625	0.422607421875	lower	../fonts/amplitud.ttf
3447.71	n/a	WORD	1723855	wordpools/wasnorm_wordpool.txt	LTP093	ltpFR	19	14	1	LOBSTER	837	n/a	0	1	0.412841796875	0.57763671875	upper	../fonts/zerothre.ttf
3451.808	n/a	WORD	1725904	wordpools/wasnorm_wordpool.txt	LTP093	ltpFR	19	14	1	TEAM	1441	n/a	1	1	0.412841796875	0.57763671875	upper	../fonts/zerothre.ttf
3455.834	n/a	WORD	1727917	wordpools/wasnorm_wordpool.txt	LTP093	ltpFR	19	14	1	UMPIRE	1535	n/a	1	1	0.412841796875	0.57763671875	upper	../fonts/zerothre.ttf
3459.866	n/a	WORD	1729933	wordpools/wasnorm_wordpool.txt	LTP093	ltpFR	19	14	0	SUSPECT	1415	n/a	0	0	0.5869140625	0.422607421875	lower	../fonts/amplitud.ttf
3463.9	n/a	WORD	1731950	wordpools/wasnorm_wordpool.txt	LTP093	ltpFR	19	14	0	SCAPEGOAT	1244	n/a	0	0	0.5869140625	0.422607421875	lower	../fonts/amplitud.ttf
3467.808	n/a	WORD	1733904	wordpools/wasnorm_wordpool.txt	LTP093	ltpFR	19	14	1	BANDAGE	79	n/a	0	1	0.412841796875	0.57763671875	upper	../fonts/zerothre.ttf
3471.95	n/a	WORD	1735975	wordpools/wasnorm_wordpool.txt	LTP093	ltpFR	19	14	1	SUIT	1402	n/a	0	1	0.412841796875	0.57763671875	upper	../fonts/zerothre.ttf
3477.616	n/a	REC_START	1738808	n/a	LTP093	ltpFR	19	14	n/a	n/a	n/a	n/a	n/a	n/a	n/a	n/a	n/a	n/a
3478.234	n/a	REC_WORD	1739117	wordpools/wasnorm_wordpool.txt	LTP093	ltpFR	19	14	1	SUIT	1402	n/a	0	n/a	n/a	n/a	n/a	n/a
3479.362	n/a	REC_WORD	1739681	wordpools/wasnorm_wordpool.txt	LTP093	ltpFR	19	14	1	BANDAGE	79	n/a	0	n/a	n/a	n/a	n/a	n/a
3480.394	n/a	REC_WORD	1740197	wordpools/wasnorm_wordpool.txt	LTP093	ltpFR	19	14	1	VASE	1549	n/a	0	n/a	n/a	n/a	n/a	n/a
3486.936	n/a	REC_WORD	1743468	wordpools/wasnorm_wordpool.txt	LTP093	ltpFR	19	14	0	NOTE	958	n/a	0	n/a	n/a	n/a	n/a	n/a
3494.608	n/a	REC_WORD	1747304	wordpools/wasnorm_wordpool.txt	LTP093	ltpFR	19	14	1	HOSPITAL	721	n/a	0	n/a	n/a	n/a	n/a	n/a
3501.986	n/a	REC_WORD	1750993	wordpools/wasnorm_wordpool.txt	LTP093	ltpFR	19	14	1	UMPIRE	1535	n/a	1	n/a	n/a	n/a	n/a	n/a
3506.976	n/a	REC_WORD	1753488	wordpools/wasnorm_wordpool.txt	LTP093	ltpFR	19	14	1	TEAM	1441	n/a	1	n/a	n/a	n/a	n/a	n/a
3576.83	n/a	WORD	1788415	wordpools/wasnorm_wordpool.txt	LTP093	ltpFR	19	15	-1	FROST	609	n/a	-1	1	1.0	1.0	upper	../fonts/Verdana.ttf
3580.938	n/a	WORD	1790469	wordpools/wasnorm_wordpool.txt	LTP093	ltpFR	19	15	-1	PILL	1068	n/a	-1	1	1.0	1.0	upper	../fonts/Verdana.ttf
3584.972	n/a	WORD	1792486	wordpools/wasnorm_wordpool.txt	LTP093	ltpFR	19	15	-1	GRASS	655	n/a	-1	1	1.0	1.0	upper	../fonts/Verdana.ttf
3588.922	n/a	WORD	1794461	wordpools/wasnorm_wordpool.txt	LTP093	ltpFR	19	15	-1	STAPLE	1371	n/a	-1	1	1.0	1.0	upper	../fonts/Verdana.ttf
3592.996	n/a	WORD	1796498	wordpools/wasnorm_wordpool.txt	LTP093	ltpFR	19	15	-1	REPORT	1184	n/a	-1	1	1.0	1.0	upper	../fonts/Verdana.ttf
3597.204	n/a	WORD	1798602	wordpools/wasnorm_wordpool.txt	LTP093	ltpFR	19	15	-1	BISCUIT	130	n/a	-1	1	1.0	1.0	upper	../fonts/Verdana.ttf
3601.296	n/a	WORD	1800648	wordpools/wasnorm_wordpool.txt	LTP093	ltpFR	19	15	-1	SQUIRREL	1362	n/a	-1	1	1.0	1.0	upper	../fonts/Verdana.ttf
3605.364	n/a	WORD	1802682	wordpools/wasnorm_wordpool.txt	LTP093	ltpFR	19	15	-1	WAVE	1596	n/a	-1	1	1.0	1.0	upper	../fonts/Verdana.ttf
3609.322	n/a	WORD	1804661	wordpools/wasnorm_wordpool.txt	LTP093	ltpFR	19	15	-1	WILDERNESS	1610	n/a	-1	1	1.0	1.0	upper	../fonts/Verdana.ttf
3613.396	n/a	WORD	1806698	wordpools/wasnorm_wordpool.txt	LTP093	ltpFR	19	15	-1	ANIMAL	23	n/a	-1	1	1.0	1.0	upper	../fonts/Verdana.ttf
3617.47	n/a	WORD	1808735	wordpools/wasnorm_wordpool.txt	LTP093	ltpFR	19	15	-1	CRYSTAL	418	n/a	-1	1	1.0	1.0	upper	../fonts/Verdana.ttf
3621.662	n/a	WORD	1810831	wordpools/wasnorm_wordpool.txt	LTP093	ltpFR	19	15	-1	QUILT	1151	n/a	-1	1	1.0	1.0	upper	../fonts/Verdana.ttf
3625.796	n/a	WORD	1812898	wordpools/wasnorm_wordpool.txt	LTP093	ltpFR	19	15	-1	MUFFIN	929	n/a	-1	1	1.0	1.0	upper	../fonts/Verdana.ttf
3629.796	n/a	WORD	1814898	wordpools/wasnorm_wordpool.txt	LTP093	ltpFR	19	15	-1	SHORE	1291	n/a	-1	1	1.0	1.0	upper	../fonts/Verdana.ttf
3633.704	n/a	WORD	1816852	wordpools/wasnorm_wordpool.txt	LTP093	ltpFR	19	15	-1	HIGHWAY	707	n/a	-1	1	1.0	1.0	upper	../fonts/Verdana.ttf
3637.736	n/a	WORD	1818868	wordpools/wasnorm_wordpool.txt	LTP093	ltpFR	19	15	-1	ROAD	1196	n/a	-1	1	1.0	1.0	upper	../fonts/Verdana.ttf
3643.57	n/a	REC_START	1821785	n/a	LTP093	ltpFR	19	15	n/a	n/a	n/a	n/a	n/a	n/a	n/a	n/a	n/a	n/a
3644.158	n/a	REC_WORD	1822079	wordpools/wasnorm_wordpool.txt	LTP093	ltpFR	19	15	-1	HIGHWAY	707	n/a	-1	n/a	n/a	n/a	n/a	n/a
3645.106	n/a	REC_WORD	1822553	wordpools/wasnorm_wordpool.txt	LTP093	ltpFR	19	15	-1	ROAD	1196	n/a	-1	n/a	n/a	n/a	n/a	n/a
3646.044	n/a	REC_WORD	1823022	wordpools/wasnorm_wordpool.txt	LTP093	ltpFR	19	15	-1	CRYSTAL	418	n/a	-1	n/a	n/a	n/a	n/a	n/a
3647.172	n/a	REC_WORD	1823586	wordpools/wasnorm_wordpool.txt	LTP093	ltpFR	19	15	-1	SQUIRREL	1362	n/a	-1	n/a	n/a	n/a	n/a	n/a
3648.828	n/a	REC_WORD	1824414	wordpools/wasnorm_wordpool.txt	LTP093	ltpFR	19	15	-1	WILDERNESS	1610	n/a	-1	n/a	n/a	n/a	n/a	n/a
3649.946	n/a	REC_WORD	1824973	wordpools/wasnorm_wordpool.txt	LTP093	ltpFR	19	15	-1	REPORT	1184	n/a	-1	n/a	n/a	n/a	n/a	n/a
3651.258	n/a	REC_WORD	1825629	wordpools/wasnorm_wordpool.txt	LTP093	ltpFR	19	15	-1	STAPLE	1371	n/a	-1	n/a	n/a	n/a	n/a	n/a
3652.37	n/a	REC_WORD	1826185	wordpools/wasnorm_wordpool.txt	LTP093	ltpFR	19	15	-1	FROST	609	n/a	-1	n/a	n/a	n/a	n/a	n/a
3654.126	n/a	REC_WORD	1827063	wordpools/wasnorm_wordpool.txt	LTP093	ltpFR	19	15	-1	ANIMAL	23	n/a	-1	n/a	n/a	n/a	n/a	n/a
3665.138	n/a	REC_WORD	1832569	wordpools/wasnorm_wordpool.txt	LTP093	ltpFR	19	15	-1	PILL	1068	n/a	-1	n/a	n/a	n/a	n/a	n/a
3666.304	n/a	REC_WORD	1833152	wordpools/wasnorm_wordpool.txt	LTP093	ltpFR	19	15	-1	GRASS	655	n/a	-1	n/a	n/a	n/a	n/a	n/a
3667.346	n/a	REC_WORD	1833673	wordpools/wasnorm_wordpool.txt	LTP093	ltpFR	19	15	-1	BISCUIT	130	n/a	-1	n/a	n/a	n/a	n/a	n/a
3669.892	n/a	REC_WORD	1834946	wordpools/wasnorm_wordpool.txt	LTP093	ltpFR	19	15	-1	WAVE	1596	n/a	-1	n/a	n/a	n/a	n/a	n/a
3751.2	n/a	WORD	1875600	wordpools/wasnorm_wordpool.txt	LTP093	ltpFR	19	16	0	SHOULDER	1294	n/a	0	0	0.5869140625	0.422607421875	lower	../fonts/amplitud.ttf
3755.092	n/a	WORD	1877546	wordpools/wasnorm_wordpool.txt	LTP093	ltpFR	19	16	0	GRAPE	654	n/a	0	0	0.5869140625	0.422607421875	lower	../fonts/amplitud.ttf
3758.992	n/a	WORD	1879496	wordpools/wasnorm_wordpool.txt	LTP093	ltpFR	19	16	0	PUMP	1141	n/a	0	0	0.5869140625	0.422607421875	lower	../fonts/amplitud.ttf
3762.892	n/a	WORD	1881446	wordpools/wasnorm_wordpool.txt	LTP093	ltpFR	19	16	0	SUPERVISOR	1410	n/a	1	0	0.5869140625	0.422607421875	lower	../fonts/amplitud.ttf
3766.892	n/a	WORD	1883446	wordpools/wasnorm_wordpool.txt	LTP093	ltpFR	19	16	0	BARLEY	88	n/a	0	0	0.5869140625	0.422607421875	lower	../fonts/amplitud.ttf
3770.85	n/a	WORD	1885425	wordpools/wasnorm_wordpool.txt	LTP093	ltpFR	19	16	0	PLATE	1086	n/a	0	0	0.5869140625	0.422607421875	lower	../fonts/amplitud.ttf
3775.058	n/a	WORD	1887529	wordpools/wasnorm_wordpool.txt	LTP093	ltpFR	19	16	0	OUTFIT	988	n/a	0	0	0.5869140625	0.422607421875	lower	../fonts/amplitud.ttf
3778.934	n/a	WORD	1889467	wordpools/wasnorm_wordpool.txt	LTP093	ltpFR	19	16	0	PARTY	1018	n/a	0	0	0.5869140625	0.422607421875	lower	../fonts/amplitud.ttf
3783.0	n/a	WORD	1891500	wordpools/wasnorm_wordpool.txt	LTP093	ltpFR	19	16	0	POTTERY	1116	n/a	0	0	0.5869140625	0.422607421875	lower	../fonts/amplitud.ttf
3787.184	n/a	WORD	1893592	wordpools/wasnorm_wordpool.txt	LTP093	ltpFR	19	16	0	RAISIN	1163	n/a	0	0	0.5869140625	0.422607421875	lower	../fonts/amplitud.ttf
3791.092	n/a	WORD	1895546	wordpools/wasnorm_wordpool.txt	LTP093	ltpFR	19	16	0	VINE	1568	n/a	0	0	0.5869140625	0.422607421875	lower	../fonts/amplitud.ttf
3794.942	n/a	WORD	1897471	wordpools/wasnorm_wordpool.txt	LTP093	ltpFR	19	16	0	SILK	1307	n/a	0	0	0.5869140625	0.422607421875	lower	../fonts/amplitud.ttf
3798.984	n/a	WORD	1899492	wordpools/wasnorm_wordpool.txt	LTP093	ltpFR	19	16	0	FLASK	576	n/a	0	0	0.5869140625	0.422607421875	lower	../fonts/amplitud.ttf
3803.142	n/a	WORD	1901571	wordpools/wasnorm_wordpool.txt	LTP093	ltpFR	19	16	0	JUG	762	n/a	0	0	0.5869140625	0.422607421875	lower	../fonts/amplitud.ttf
3807.3	n/a	WORD	1903650	wordpools/wasnorm_wordpool.txt	LTP093	ltpFR	19	16	0	WATERFALL	1595	n/a	1	0	0.5869140625	0.422607421875	lower	../fonts/amplitud.ttf
3811.282	n/a	WORD	1905641	wordpools/wasnorm_wordpool.txt	LTP093	ltpFR	19	16	0	PRUNE	1134	n/a	0	0	0.5869140625	0.422607421875	lower	../fonts/amplitud.ttf
3817.066	n/a	REC_START	1908533	n/a	LTP093	ltpFR	19	16	n/a	n/a	n/a	n/a	n/a	n/a	n/a	n/a	n/a	n/a
3817.536	n/a	REC_WORD	1908768	wordpools/wasnorm_wordpool.txt	LTP093	ltpFR	19	16	0	PRUNE	1134	n/a	0	n/a	n/a	n/a	n/a	n/a
3818.538	n/a	REC_WORD	1909269	wordpools/wasnorm_wordpool.txt	LTP093	ltpFR	19	16	0	RAISIN	1163	n/a	0	n/a	n/a	n/a	n/a	n/a
3819.536	n/a	REC_WORD	1909768	wordpools/wasnorm_wordpool.txt	LTP093	ltpFR	19	16	0	GRAPE	654	n/a	0	n/a	n/a	n/a	n/a	n/a
3820.648	n/a	REC_WORD	1910324	wordpools/wasnorm_wordpool.txt	LTP093	ltpFR	19	16	0	VINE	1568	n/a	0	n/a	n/a	n/a	n/a	n/a
3821.59	n/a	REC_WORD	1910795	wordpools/wasnorm_wordpool.txt	LTP093	ltpFR	19	16	0	FLASK	576	n/a	0	n/a	n/a	n/a	n/a	n/a
3823.088	n/a	REC_WORD	1911544	wordpools/wasnorm_wordpool.txt	LTP093	ltpFR	19	16	0	WATERFALL	1595	n/a	1	n/a	n/a	n/a	n/a	n/a
3824.22	n/a	REC_WORD	1912110	wordpools/wasnorm_wordpool.txt	LTP093	ltpFR	19	16	0	SUPERVISOR	1410	n/a	1	n/a	n/a	n/a	n/a	n/a
3831.328	n/a	REC_WORD	1915664	wordpools/wasnorm_wordpool.txt	LTP093	ltpFR	19	16	0	PUMP	1141	n/a	0	n/a	n/a	n/a	n/a	n/a
3835.8	n/a	REC_WORD	1917900	wordpools/wasnorm_wordpool.txt	LTP093	ltpFR	19	16	n/a	SILVER	-1	n/a	n/a	n/a	n/a	n/a	n/a	n/a
3921.89	n/a	REC_START	1960945	n/a	LTP093	ltpFR	19	1	n/a	n/a	n/a	n/a	n/a	n/a	n/a	n/a	n/a	n/a
3921.93	n/a	RECOG_TARGET	1960965	n/a	LTP093	ltpFR	19	1	0	SCRIBBLE	1256	4	0	n/a	n/a	n/a	n/a	n/a
3923.93	n/a	RECOG_RESP	1961965	n/a	LTP093	ltpFR	19	1	0	SCRIBBLE	1256	n/a	0	n/a	n/a	n/a	n/a	n/a
3925.058	n/a	RECOG_CONF	1962529	n/a	LTP093	ltpFR	19	1	0	SCRIBBLE	1256	4	0	n/a	n/a	n/a	n/a	n/a
3926.62	n/a	RECOG_TARGET	1963310	n/a	LTP093	ltpFR	19	1	1	LEOPARD	812	4	1	n/a	n/a	n/a	n/a	n/a
3927.228	n/a	RECOG_RESP	1963614	n/a	LTP093	ltpFR	19	1	1	LEOPARD	812	n/a	1	n/a	n/a	n/a	n/a	n/a
3927.92	n/a	RECOG_CONF	1963960	n/a	LTP093	ltpFR	19	1	1	LEOPARD	812	4	1	n/a	n/a	n/a	n/a	n/a
3929.388	n/a	RECOG_TARGET	1964694	n/a	LTP093	ltpFR	19	1	1	ANTENNA	28	4	0	n/a	n/a	n/a	n/a	n/a
3929.902	n/a	RECOG_RESP	1964951	n/a	LTP093	ltpFR	19	1	1	ANTENNA	28	n/a	0	n/a	n/a	n/a	n/a	n/a
3930.386	n/a	RECOG_CONF	1965193	n/a	LTP093	ltpFR	19	1	1	ANTENNA	28	4	0	n/a	n/a	n/a	n/a	n/a
3931.872	n/a	RECOG_TARGET	1965936	n/a	LTP093	ltpFR	19	1	0	BRAN	167	4	0	n/a	n/a	n/a	n/a	n/a
3932.492	n/a	RECOG_RESP	1966246	n/a	LTP093	ltpFR	19	1	0	BRAN	167	n/a	0	n/a	n/a	n/a	n/a	n/a
3932.98	n/a	RECOG_CONF	1966490	n/a	LTP093	ltpFR	19	1	0	BRAN	167	4	0	n/a	n/a	n/a	n/a	n/a
3934.488	n/a	RECOG_LURE	1967244	n/a	LTP093	ltpFR	19	1	n/a	POT	1114	4	n/a	n/a	n/a	n/a	n/a	n/a
3935.594	n/a	RECOG_RESP	1967797	n/a	LTP093	ltpFR	19	1	n/a	POT	1114	n/a	n/a	n/a	n/a	n/a	n/a	n/a
3936.182	n/a	RECOG_CONF	1968091	n/a	LTP093	ltpFR	19	1	n/a	POT	1114	4	n/a	n/a	n/a	n/a	n/a	n/a
3937.746	n/a	RECOG_TARGET	1968873	n/a	LTP093	ltpFR	19	1	1	RECORD	1176	4	0	n/a	n/a	n/a	n/a	n/a
3938.298	n/a	RECOG_RESP	1969149	n/a	LTP093	ltpFR	19	1	1	RECORD	1176	n/a	0	n/a	n/a	n/a	n/a	n/a
3938.756	n/a	RECOG_CONF	1969378	n/a	LTP093	ltpFR	19	1	1	RECORD	1176	4	0	n/a	n/a	n/a	n/a	n/a
3940.296	n/a	RECOG_TARGET	1970148	n/a	LTP093	ltpFR	19	1	1	SUNSET	1408	4	0	n/a	n/a	n/a	n/a	n/a
3940.848	n/a	RECOG_RESP	1970424	n/a	LTP093	ltpFR	19	1	1	SUNSET	1408	n/a	0	n/a	n/a	n/a	n/a	n/a
3941.322	n/a	RECOG_CONF	1970661	n/a	LTP093	ltpFR	19	1	1	SUNSET	1408	4	0	n/a	n/a	n/a	n/a	n/a
3942.68	n/a	RECOG_LURE	1971340	n/a	LTP093	ltpFR	19	1	n/a	SICKLE	1302	4	n/a	n/a	n/a	n/a	n/a	n/a
3943.402	n/a	RECOG_RESP	1971701	n/a	LTP093	ltpFR	19	1	n/a	SICKLE	1302	n/a	n/a	n/a	n/a	n/a	n/a	n/a
3943.876	n/a	RECOG_CONF	1971938	n/a	LTP093	ltpFR	19	1	n/a	SICKLE	1302	4	n/a	n/a	n/a	n/a	n/a	n/a
3945.296	n/a	RECOG_TARGET	1972648	n/a	LTP093	ltpFR	19	1	-1	SENATE	1267	4	-1	n/a	n/a	n/a	n/a	n/a
3945.876	n/a	RECOG_RESP	1972938	n/a	LTP093	ltpFR	19	1	-1	SENATE	1267	n/a	-1	n/a	n/a	n/a	n/a	n/a
3946.32	n/a	RECOG_CONF	1973160	n/a	LTP093	ltpFR	19	1	-1	SENATE	1267	4	-1	n/a	n/a	n/a	n/a	n/a
3947.82	n/a	RECOG_TARGET	1973910	n/a	LTP093	ltpFR	19	1	0	VEST	1559	4	0	n/a	n/a	n/a	n/a	n/a
3948.47	n/a	RECOG_RESP	1974235	n/a	LTP093	ltpFR	19	1	0	VEST	1559	n/a	0	n/a	n/a	n/a	n/a	n/a
3948.898	n/a	RECOG_CONF	1974449	n/a	LTP093	ltpFR	19	1	0	VEST	1559	4	0	n/a	n/a	n/a	n/a	n/a
3950.32	n/a	RECOG_TARGET	1975160	n/a	LTP093	ltpFR	19	1	0	TOY	1492	4	0	n/a	n/a	n/a	n/a	n/a
3951.39	n/a	RECOG_RESP	1975695	n/a	LTP093	ltpFR	19	1	0	TOY	1492	n/a	0	n/a	n/a	n/a	n/a	n/a
3951.892	n/a	RECOG_CONF	1975946	n/a	LTP093	ltpFR	19	1	0	TOY	1492	4	0	n/a	n/a	n/a	n/a	n/a
3953.362	n/a	RECOG_LURE	1976681	n/a	LTP093	ltpFR	19	1	n/a	CONTRACT	368	4	n/a	n/a	n/a	n/a	n/a	n/a
3954.124	n/a	RECOG_RESP	1977062	n/a	LTP093	ltpFR	19	1	n/a	CONTRACT	368	n/a	n/a	n/a	n/a	n/a	n/a	n/a
3954.662	n/a	RECOG_CONF	1977331	n/a	LTP093	ltpFR	19	1	n/a	CONTRACT	368	4	n/a	n/a	n/a	n/a	n/a	n/a
3956.054	n/a	RECOG_TARGET	1978027	n/a	LTP093	ltpFR	19	1	0	SHOULDER	1294	4	0	n/a	n/a	n/a	n/a	n/a
3956.758	n/a	RECOG_RESP	1978379	n/a	LTP093	ltpFR	19	1	0	SHOULDER	1294	n/a	0	n/a	n/a	n/a	n/a	n/a
3957.222	n/a	RECOG_CONF	1978611	n/a	LTP093	ltpFR	19	1	0	SHOULDER	1294	4	0	n/a	n/a	n/a	n/a	n/a
3958.544	n/a	RECOG_TARGET	1979272	n/a	LTP093	ltpFR	19	1	0	ROOSTER	1209	4	0	n/a	n/a	n/a	n/a	n/a
3960.104	n/a	RECOG_RESP	1980052	n/a	LTP093	ltpFR	19	1	0	ROOSTER	1209	n/a	0	n/a	n/a	n/a	n/a	n/a
3960.624	n/a	RECOG_CONF	1980312	n/a	LTP093	ltpFR	19	1	0	ROOSTER	1209	4	0	n/a	n/a	n/a	n/a	n/a
3962.212	n/a	RECOG_LURE	1981106	n/a	LTP093	ltpFR	19	1	n/a	CIGAR	308	4	n/a	n/a	n/a	n/a	n/a	n/a
3962.878	n/a	RECOG_RESP	1981439	n/a	LTP093	ltpFR	19	1	n/a	CIGAR	308	n/a	n/a	n/a	n/a	n/a	n/a	n/a
3963.272	n/a	RECOG_CONF	1981636	n/a	LTP093	ltpFR	19	1	n/a	CIGAR	308	4	n/a	n/a	n/a	n/a	n/a	n/a
3964.686	n/a	RECOG_TARGET	1982343	n/a	LTP093	ltpFR	19	1	0	BARLEY	88	4	0	n/a	n/a	n/a	n/a	n/a
3965.368	n/a	RECOG_RESP	1982684	n/a	LTP093	ltpFR	19	1	0	BARLEY	88	n/a	0	n/a	n/a	n/a	n/a	n/a
3965.76	n/a	RECOG_CONF	1982880	n/a	LTP093	ltpFR	19	1	0	BARLEY	88	4	0	n/a	n/a	n/a	n/a	n/a
3967.27	n/a	RECOG_TARGET	1983635	n/a	LTP093	ltpFR	19	1	1	TEAM	1441	4	1	n/a	n/a	n/a	n/a	n/a
3969.414	n/a	RECOG_RESP	1984707	n/a	LTP093	ltpFR	19	1	1	TEAM	1441	n/a	1	n/a	n/a	n/a	n/a	n/a
3970.028	n/a	RECOG_CONF	1985014	n/a	LTP093	ltpFR	19	1	1	TEAM	1441	4	1	n/a	n/a	n/a	n/a	n/a
3971.562	n/a	RECOG_TARGET	1985781	n/a	LTP093	ltpFR	19	1	-1	TICKET	1464	4	-1	n/a	n/a	n/a	n/a	n/a
3972.164	n/a	RECOG_RESP	1986082	n/a	LTP093	ltpFR	19	1	-1	TICKET	1464	n/a	-1	n/a	n/a	n/a	n/a	n/a
3972.626	n/a	RECOG_CONF	1986313	n/a	LTP093	ltpFR	19	1	-1	TICKET	1464	4	-1	n/a	n/a	n/a	n/a	n/a
3974.054	n/a	RECOG_TARGET	1987027	n/a	LTP093	ltpFR	19	1	-1	DETERGENT	455	4	-1	n/a	n/a	n/a	n/a	n/a
3974.718	n/a	RECOG_RESP	1987359	n/a	LTP093	ltpFR	19	1	-1	DETERGENT	455	n/a	-1	n/a	n/a	n/a	n/a	n/a
3975.216	n/a	RECOG_CONF	1987608	n/a	LTP093	ltpFR	19	1	-1	DETERGENT	455	4	-1	n/a	n/a	n/a	n/a	n/a
3976.736	n/a	RECOG_TARGET	1988368	n/a	LTP093	ltpFR	19	1	1	NEST	945	4	0	n/a	n/a	n/a	n/a	n/a
3977.886	n/a	RECOG_RESP	1988943	n/a	LTP093	ltpFR	19	1	1	NEST	945	n/a	0	n/a	n/a	n/a	n/a	n/a
3978.408	n/a	RECOG_CONF	1989204	n/a	LTP093	ltpFR	19	1	1	NEST	945	4	0	n/a	n/a	n/a	n/a	n/a
3986.486	n/a	REC_START	1993243	n/a	LTP093	ltpFR	19	2	n/a	n/a	n/a	n/a	n/a	n/a	n/a	n/a	n/a	n/a
3986.518	n/a	RECOG_TARGET	1993259	n/a	LTP093	ltpFR	19	2	-1	DAUGHTER	442	4	-1	n/a	n/a	n/a	n/a	n/a
3987.648	n/a	RECOG_RESP_VV	1993824	n/a	LTP093	ltpFR	19	2	-1	DAUGHTER	442	n/a	-1	n/a	n/a	n/a	n/a	n/a
3991.9	n/a	RECOG_RESP	1995950	n/a	LTP093	ltpFR	19	2	-1	DAUGHTER	442	n/a	-1	n/a	n/a	n/a	n/a	n/a
3992.728	n/a	RECOG_CONF	1996364	n/a	LTP093	ltpFR	19	2	-1	DAUGHTER	442	4	-1	n/a	n/a	n/a	n/a	n/a
3994.244	n/a	RECOG_TARGET	1997122	n/a	LTP093	ltpFR	19	2	-1	DOG	480	4	-1	n/a	n/a	n/a	n/a	n/a
3994.774	n/a	RECOG_RESP	1997387	n/a	LTP093	ltpFR	19	2	-1	DOG	480	n/a	-1	n/a	n/a	n/a	n/a	n/a
3995.226	n/a	RECOG_CONF	1997613	n/a	LTP093	ltpFR	19	2	-1	DOG	480	4	-1	n/a	n/a	n/a	n/a	n/a
3996.678	n/a	RECOG_TARGET	1998339	n/a	LTP093	ltpFR	19	2	1	CITY	314	4	0	n/a	n/a	n/a	n/a	n/a
3997.088	n/a	RECOG_RESP	1998544	n/a	LTP093	ltpFR	19	2	1	CITY	314	n/a	0	n/a	n/a	n/a	n/a	n/a
3997.464	n/a	RECOG_CONF	1998732	n/a	LTP093	ltpFR	19	2	1	CITY	314	4	0	n/a	n/a	n/a	n/a	n/a
3998.894	n/a	RECOG_TARGET	1999447	n/a	LTP093	ltpFR	19	2	0	SCAPEGOAT	1244	4	0	n/a	n/a	n/a	n/a	n/a
3999.432	n/a	RECOG_RESP	1999716	n/a	LTP093	ltpFR	19	2	0	SCAPEGOAT	1244	n/a	0	n/a	n/a	n/a	n/a	n/a
3999.794	n/a	RECOG_CONF	1999897	n/a	LTP093	ltpFR	19	2	0	SCAPEGOAT	1244	4	0	n/a	n/a	n/a	n/a	n/a
4001.16	n/a	RECOG_TARGET	2000580	n/a	LTP093	ltpFR	19	2	0	BANKER	84	4	1	n/a	n/a	n/a	n/a	n/a
4001.728	n/a	RECOG_RESP	2000864	n/a	LTP093	ltpFR	19	2	0	BANKER	84	n/a	1	n/a	n/a	n/a	n/a	n/a
4002.114	n/a	RECOG_CONF	2001057	n/a	LTP093	ltpFR	19	2	0	BANKER	84	4	1	n/a	n/a	n/a	n/a	n/a
4003.378	n/a	RECOG_TARGET	2001689	n/a	LTP093	ltpFR	19	2	0	SHOVEL	1295	4	0	n/a	n/a	n/a	n/a	n/a
4003.882	n/a	RECOG_RESP	2001941	n/a	LTP093	ltpFR	19	2	0	SHOVEL	1295	n/a	0	n/a	n/a	n/a	n/a	n/a
4004.342	n/a	RECOG_CONF	2002171	n/a	LTP093	ltpFR	19	2	0	SHOVEL	1295	4	0	n/a	n/a	n/a	n/a	n/a
4005.518	n/a	RECOG_TARGET	2002759	n/a	LTP093	ltpFR	19	2	-1	BOYFRIEND	162	4	-1	n/a	n/a	n/a	n/a	n/a
4005.992	n/a	RECOG_RESP	2002996	n/a	LTP093	ltpFR	19	2	-1	BOYFRIEND	162	n/a	-1	n/a	n/a	n/a	n/a	n/a
4006.358	n/a	RECOG_CONF	2003179	n/a	LTP093	ltpFR	19	2	-1	BOYFRIEND	162	4	-1	n/a	n/a	n/a	n/a	n/a
4007.702	n/a	RECOG_TARGET	2003851	n/a	LTP093	ltpFR	19	2	0	CYCLONE	431	4	1	n/a	n/a	n/a	n/a	n/a
4008.242	n/a	RECOG_RESP	2004121	n/a	LTP093	ltpFR	19	2	0	CYCLONE	431	n/a	1	n/a	n/a	n/a	n/a	n/a
4008.702	n/a	RECOG_CONF	2004351	n/a	LTP093	ltpFR	19	2	0	CYCLONE	431	4	1	n/a	n/a	n/a	n/a	n/a
4009.962	n/a	RECOG_TARGET	2004981	n/a	LTP093	ltpFR	19	2	-1	FUR	615	4	-1	n/a	n/a	n/a	n/a	n/a
4010.704	n/a	RECOG_RESP	2005352	n/a	LTP093	ltpFR	19	2	-1	FUR	615	n/a	-1	n/a	n/a	n/a	n/a	n/a
4011.986	n/a	RECOG_CONF	2005993	n/a	LTP093	ltpFR	19	2	-1	FUR	615	4	-1	n/a	n/a	n/a	n/a	n/a
4013.452	n/a	RECOG_TARGET	2006726	n/a	LTP093	ltpFR	19	2	-1	STAPLE	1371	4	-1	n/a	n/a	n/a	n/a	n/a
4014.046	n/a	RECOG_RESP	2007023	n/a	LTP093	ltpFR	19	2	-1	STAPLE	1371	n/a	-1	n/a	n/a	n/a	n/a	n/a
4014.52	n/a	RECOG_CONF	2007260	n/a	LTP093	ltpFR	19	2	-1	STAPLE	1371	4	-1	n/a	n/a	n/a	n/a	n/a
4015.952	n/a	RECOG_TARGET	2007976	n/a	LTP093	ltpFR	19	2	1	WHISKERS	1605	4	0	n/a	n/a	n/a	n/a	n/a
4016.466	n/a	RECOG_RESP	2008233	n/a	LTP093	ltpFR	19	2	1	WHISKERS	1605	n/a	0	n/a	n/a	n/a	n/a	n/a
4016.916	n/a	RECOG_CONF	2008458	n/a	LTP093	ltpFR	19	2	1	WHISKERS	1605	4	0	n/a	n/a	n/a	n/a	n/a
4018.436	n/a	RECOG_TARGET	2009218	n/a	LTP093	ltpFR	19	2	1	ROBE	1198	4	0	n/a	n/a	n/a	n/a	n/a
4018.95	n/a	RECOG_RESP	2009475	n/a	LTP093	ltpFR	19	2	1	ROBE	1198	n/a	0	n/a	n/a	n/a	n/a	n/a
4019.408	n/a	RECOG_CONF	2009704	n/a	LTP093	ltpFR	19	2	1	ROBE	1198	4	0	n/a	n/a	n/a	n/a	n/a
4020.818	n/a	RECOG_TARGET	2010409	n/a	LTP093	ltpFR	19	2	-1	TUB	1514	4	-1	n/a	n/a	n/a	n/a	n/a
4021.474	n/a	RECOG_RESP	2010737	n/a	LTP093	ltpFR	19	2	-1	TUB	1514	n/a	-1	n/a	n/a	n/a	n/a	n/a
4021.896	n/a	RECOG_CONF	2010948	n/a	LTP093	ltpFR	19	2	-1	TUB	1514	4	-1	n/a	n/a	n/a	n/a	n/a
4023.326	n/a	RECOG_TARGET	2011663	n/a	LTP093	ltpFR	19	2	0	HEN	703	4	0	n/a	n/a	n/a	n/a	n/a
4023.894	n/a	RECOG_RESP	2011947	n/a	LTP093	ltpFR	19	2	0	HEN	703	n/a	0	n/a	n/a	n/a	n/a	n/a
4024.326	n/a	RECOG_CONF	2012163	n/a	LTP093	ltpFR	19	2	0	HEN	703	4	0	n/a	n/a	n/a	n/a	n/a
4025.684	n/a	RECOG_TARGET	2012842	n/a	LTP093	ltpFR	19	2	1	ACROBAT	4	4	1	n/a	n/a	n/a	n/a	n/a
4026.232	n/a	RECOG_RESP	2013116	n/a	LTP093	ltpFR	19	2	1	ACROBAT	4	n/a	1	n/a	n/a	n/a	n/a	n/a
4026.718	n/a	RECOG_CONF	2013359	n/a	LTP093	ltpFR	19	2	1	ACROBAT	4	4	1	n/a	n/a	n/a	n/a	n/a
4028.152	n/a	RECOG_LURE	2014076	n/a	LTP093	ltpFR	19	2	n/a	REPTILE	1185	4	n/a	n/a	n/a	n/a	n/a	n/a
4028.864	n/a	RECOG_RESP	2014432	n/a	LTP093	ltpFR	19	2	n/a	REPTILE	1185	n/a	n/a	n/a	n/a	n/a	n/a	n/a
4029.288	n/a	RECOG_CONF	2014644	n/a	LTP093	ltpFR	19	2	n/a	REPTILE	1185	4	n/a	n/a	n/a	n/a	n/a	n/a
4030.736	n/a	RECOG_TARGET	2015368	n/a	LTP093	ltpFR	19	2	1	SHRIMP	1297	4	1	n/a	n/a	n/a	n/a	n/a
4031.388	n/a	RECOG_RESP	2015694	n/a	LTP093	ltpFR	19	2	1	SHRIMP	1297	n/a	1	n/a	n/a	n/a	n/a	n/a
4031.774	n/a	RECOG_CONF	2015887	n/a	LTP093	ltpFR	19	2	1	SHRIMP	1297	4	1	n/a	n/a	n/a	n/a	n/a
4033.218	n/a	RECOG_TARGET	2016609	n/a	LTP093	ltpFR	19	2	0	ASTRONAUT	51	4	1	n/a	n/a	n/a	n/a	n/a
4033.752	n/a	RECOG_RESP	2016876	n/a	LTP093	ltpFR	19	2	0	ASTRONAUT	51	n/a	1	n/a	n/a	n/a	n/a	n/a
4034.144	n/a	RECOG_CONF	2017072	n/a	LTP093	ltpFR	19	2	0	ASTRONAUT	51	4	1	n/a	n/a	n/a	n/a	n/a
4035.5	n/a	RECOG_TARGET	2017750	n/a	LTP093	ltpFR	19	2	1	CROCODILE	411	4	1	n/a	n/a	n/a	n/a	n/a
4036.026	n/a	RECOG_RESP	2018013	n/a	LTP093	ltpFR	19	2	1	CROCODILE	411	n/a	1	n/a	n/a	n/a	n/a	n/a
4036.5	n/a	RECOG_CONF	2018250	n/a	LTP093	ltpFR	19	2	1	CROCODILE	411	4	1	n/a	n/a	n/a	n/a	n/a
4037.794	n/a	RECOG_LURE	2018897	n/a	LTP093	ltpFR	19	2	n/a	TRAITOR	1495	4	n/a	n/a	n/a	n/a	n/a	n/a
4038.616	n/a	RECOG_RESP	2019308	n/a	LTP093	ltpFR	19	2	n/a	TRAITOR	1495	n/a	n/a	n/a	n/a	n/a	n/a	n/a
4039.184	n/a	RECOG_CONF	2019592	n/a	LTP093	ltpFR	19	2	n/a	TRAITOR	1495	4	n/a	n/a	n/a	n/a	n/a	n/a
4043.174	n/a	REC_START	2021587	n/a	LTP093	ltpFR	19	3	n/a	n/a	n/a	n/a	n/a	n/a	n/a	n/a	n/a	n/a
4043.21	n/a	RECOG_TARGET	2021605	n/a	LTP093	ltpFR	19	3	-1	TRIBE	1505	4	-1	n/a	n/a	n/a	n/a	n/a
4043.942	n/a	RECOG_RESP	2021971	n/a	LTP093	ltpFR	19	3	-1	TRIBE	1505	n/a	-1	n/a	n/a	n/a	n/a	n/a
4044.4	n/a	RECOG_CONF	2022200	n/a	LTP093	ltpFR	19	3	-1	TRIBE	1505	4	-1	n/a	n/a	n/a	n/a	n/a
4045.86	n/a	RECOG_TARGET	2022930	n/a	LTP093	ltpFR	19	3	1	MARINE	869	4	0	n/a	n/a	n/a	n/a	n/a
4046.43	n/a	RECOG_RESP	2023215	n/a	LTP093	ltpFR	19	3	1	MARINE	869	n/a	0	n/a	n/a	n/a	n/a	n/a
4046.94	n/a	RECOG_CONF	2023470	n/a	LTP093	ltpFR	19	3	1	MARINE	869	4	0	n/a	n/a	n/a	n/a	n/a
4048.226	n/a	RECOG_TARGET	2024113	n/a	LTP093	ltpFR	19	3	0	PORCUPINE	1107	4	0	n/a	n/a	n/a	n/a	n/a
4048.912	n/a	RECOG_RESP	2024456	n/a	LTP093	ltpFR	19	3	0	PORCUPINE	1107	n/a	0	n/a	n/a	n/a	n/a	n/a
4049.37	n/a	RECOG_CONF	2024685	n/a	LTP093	ltpFR	19	3	0	PORCUPINE	1107	4	0	n/a	n/a	n/a	n/a	n/a
4050.936	n/a	RECOG_TARGET	2025468	n/a	LTP093	ltpFR	19	3	0	ACID	2	4	0	n/a	n/a	n/a	n/a	n/a
4051.51	n/a	RECOG_RESP	2025755	n/a	LTP093	ltpFR	19	3	0	ACID	2	n/a	0	n/a	n/a	n/a	n/a	n/a
4051.99	n/a	RECOG_CONF	2025995	n/a	LTP093	ltpFR	19	3	0	ACID	2	4	0	n/a	n/a	n/a	n/a	n/a
4053.444	n/a	RECOG_TARGET	2026722	n/a	LTP093	ltpFR	19	3	1	BRIDE	173	4	1	n/a	n/a	n/a	n/a	n/a
4054.004	n/a	RECOG_RESP	2027002	n/a	LTP093	ltpFR	19	3	1	BRIDE	173	n/a	1	n/a	n/a	n/a	n/a	n/a
4054.468	n/a	RECOG_CONF	2027234	n/a	LTP093	ltpFR	19	3	1	BRIDE	173	4	1	n/a	n/a	n/a	n/a	n/a
4055.868	n/a	RECOG_TARGET	2027934	n/a	LTP093	ltpFR	19	3	0	RAISIN	1163	4	0	n/a	n/a	n/a	n/a	n/a
4056.42	n/a	RECOG_RESP	2028210	n/a	LTP093	ltpFR	19	3	0	RAISIN	1163	n/a	0	n/a	n/a	n/a	n/a	n/a
4056.838	n/a	RECOG_CONF	2028419	n/a	LTP093	ltpFR	19	3	0	RAISIN	1163	4	0	n/a	n/a	n/a	n/a	n/a
4058.152	n/a	RECOG_TARGET	2029076	n/a	LTP093	ltpFR	19	3	0	GRADUATE	653	4	0	n/a	n/a	n/a	n/a	n/a
4058.758	n/a	RECOG_RESP	2029379	n/a	LTP093	ltpFR	19	3	0	GRADUATE	653	n/a	0	n/a	n/a	n/a	n/a	n/a
4059.164	n/a	RECOG_CONF	2029582	n/a	LTP093	ltpFR	19	3	0	GRADUATE	653	4	0	n/a	n/a	n/a	n/a	n/a
4060.584	n/a	RECOG_TARGET	2030292	n/a	LTP093	ltpFR	19	3	1	SALMON	1227	4	1	n/a	n/a	n/a	n/a	n/a
4061.174	n/a	RECOG_RESP	2030587	n/a	LTP093	ltpFR	19	3	1	SALMON	1227	n/a	1	n/a	n/a	n/a	n/a	n/a
4061.684	n/a	RECOG_CONF	2030842	n/a	LTP093	ltpFR	19	3	1	SALMON	1227	4	1	n/a	n/a	n/a	n/a	n/a
4063.018	n/a	RECOG_TARGET	2031509	n/a	LTP093	ltpFR	19	3	1	CABINET	212	4	0	n/a	n/a	n/a	n/a	n/a
4063.612	n/a	RECOG_RESP	2031806	n/a	LTP093	ltpFR	19	3	1	CABINET	212	n/a	0	n/a	n/a	n/a	n/a	n/a
4064.076	n/a	RECOG_CONF	2032038	n/a	LTP093	ltpFR	19	3	1	CABINET	212	4	0	n/a	n/a	n/a	n/a	n/a
4065.426	n/a	RECOG_TARGET	2032713	n/a	LTP093	ltpFR	19	3	0	NOTE	958	4	0	n/a	n/a	n/a	n/a	n/a
4066.002	n/a	RECOG_RESP	2033001	n/a	LTP093	ltpFR	19	3	0	NOTE	958	n/a	0	n/a	n/a	n/a	n/a	n/a
4066.444	n/a	RECOG_CONF	2033222	n/a	LTP093	ltpFR	19	3	0	NOTE	958	4	0	n/a	n/a	n/a	n/a	n/a
4067.934	n/a	RECOG_TARGET	2033967	n/a	LTP093	ltpFR	19	3	0	SPONGE	1355	4	0	n/a	n/a	n/a	n/a	n/a
4068.458	n/a	RECOG_RESP	2034229	n/a	LTP093	ltpFR	19	3	0	SPONGE	1355	n/a	0	n/a	n/a	n/a	n/a	n/a
4068.946	n/a	RECOG_CONF	2034473	n/a	LTP093	ltpFR	19	3	0	SPONGE	1355	4	0	n/a	n/a	n/a	n/a	n/a
4070.41	n/a	RECOG_TARGET	2035205	n/a	LTP093	ltpFR	19	3	1	FAMILY	550	4	1	n/a	n/a	n/a	n/a	n/a
4071.342	n/a	RECOG_RESP	2035671	n/a	LTP093	ltpFR	19	3	1	FAMILY	550	n/a	1	n/a	n/a	n/a	n/a	n/a
4071.886	n/a	RECOG_CONF	2035943	n/a	LTP093	ltpFR	19	3	1	FAMILY	550	4	1	n/a	n/a	n/a	n/a	n/a
4073.284	n/a	RECOG_TARGET	2036642	n/a	LTP093	ltpFR	19	3	1	SAILOR	1223	4	1	n/a	n/a	n/a	n/a	n/a
4073.93	n/a	RECOG_RESP	2036965	n/a	LTP093	ltpFR	19	3	1	SAILOR	1223	n/a	1	n/a	n/a	n/a	n/a	n/a
4074.45	n/a	RECOG_CONF	2037225	n/a	LTP093	ltpFR	19	3	1	SAILOR	1223	4	1	n/a	n/a	n/a	n/a	n/a
4075.96	n/a	RECOG_TARGET	2037980	n/a	LTP093	ltpFR	19	3	-1	SHED	1277	4	-1	n/a	n/a	n/a	n/a	n/a
4076.958	n/a	RECOG_RESP	2038479	n/a	LTP093	ltpFR	19	3	-1	SHED	1277	n/a	-1	n/a	n/a	n/a	n/a	n/a
4077.932	n/a	RECOG_CONF	2038966	n/a	LTP093	ltpFR	19	3	-1	SHED	1277	4	-1	n/a	n/a	n/a	n/a	n/a
4079.542	n/a	RECOG_LURE	2039771	n/a	LTP093	ltpFR	19	3	n/a	POLE	1097	4	n/a	n/a	n/a	n/a	n/a	n/a
4080.95	n/a	RECOG_RESP	2040475	n/a	LTP093	ltpFR	19	3	n/a	POLE	1097	n/a	n/a	n/a	n/a	n/a	n/a	n/a
4081.494	n/a	RECOG_CONF	2040747	n/a	LTP093	ltpFR	19	3	n/a	POLE	1097	4	n/a	n/a	n/a	n/a	n/a	n/a
4082.9	n/a	RECOG_TARGET	2041450	n/a	LTP093	ltpFR	19	3	0	PUMP	1141	4	0	n/a	n/a	n/a	n/a	n/a
4083.614	n/a	RECOG_RESP	2041807	n/a	LTP093	ltpFR	19	3	0	PUMP	1141	n/a	0	n/a	n/a	n/a	n/a	n/a
4084.074	n/a	RECOG_CONF	2042037	n/a	LTP093	ltpFR	19	3	0	PUMP	1141	4	0	n/a	n/a	n/a	n/a	n/a
4085.366	n/a	RECOG_TARGET	2042683	n/a	LTP093	ltpFR	19	3	0	DRIVEWAY	500	4	0	n/a	n/a	n/a	n/a	n/a
4085.954	n/a	RECOG_RESP	2042977	n/a	LTP093	ltpFR	19	3	0	DRIVEWAY	500	n/a	0	n/a	n/a	n/a	n/a	n/a
4086.342	n/a	RECOG_CONF	2043171	n/a	LTP093	ltpFR	19	3	0	DRIVEWAY	500	4	0	n/a	n/a	n/a	n/a	n/a
4087.61	n/a	RECOG_TARGET	2043805	n/a	LTP093	ltpFR	19	3	1	RIDER	1191	4	1	n/a	n/a	n/a	n/a	n/a
4088.194	n/a	RECOG_RESP	2044097	n/a	LTP093	ltpFR	19	3	1	RIDER	1191	n/a	1	n/a	n/a	n/a	n/a	n/a
4088.544	n/a	RECOG_CONF	2044272	n/a	LTP093	ltpFR	19	3	1	RIDER	1191	4	1	n/a	n/a	n/a	n/a	n/a
4089.776	n/a	RECOG_TARGET	2044888	n/a	LTP093	ltpFR	19	3	1	PANTHER	1009	4	1	n/a	n/a	n/a	n/a	n/a
4090.394	n/a	RECOG_RESP	2045197	n/a	LTP093	ltpFR	19	3	1	PANTHER	1009	n/a	1	n/a	n/a	n/a	n/a	n/a
4090.812	n/a	RECOG_CONF	2045406	n/a	LTP093	ltpFR	19	3	1	PANTHER	1009	4	1	n/a	n/a	n/a	n/a	n/a
4092.142	n/a	RECOG_LURE	2046071	n/a	LTP093	ltpFR	19	3	n/a	SLIDE	1326	4	n/a	n/a	n/a	n/a	n/a	n/a
4093.042	n/a	RECOG_RESP	2046521	n/a	LTP093	ltpFR	19	3	n/a	SLIDE	1326	n/a	n/a	n/a	n/a	n/a	n/a	n/a
4093.406	n/a	RECOG_CONF	2046703	n/a	LTP093	ltpFR	19	3	n/a	SLIDE	1326	4	n/a	n/a	n/a	n/a	n/a	n/a
4109.216	n/a	REC_START	2054608	n/a	LTP093	ltpFR	19	4	n/a	n/a	n/a	n/a	n/a	n/a	n/a	n/a	n/a	n/a
4109.25	n/a	RECOG_LURE	2054625	n/a	LTP093	ltpFR	19	4	n/a	INCENSE	735	4	n/a	n/a	n/a	n/a	n/a	n/a
4109.94	n/a	RECOG_RESP	2054970	n/a	LTP093	ltpFR	19	4	n/a	INCENSE	735	n/a	n/a	n/a	n/a	n/a	n/a	n/a
4110.358	n/a	RECOG_CONF	2055179	n/a	LTP093	ltpFR	19	4	n/a	INCENSE	735	4	n/a	n/a	n/a	n/a	n/a	n/a
4111.8	n/a	RECOG_LURE	2055900	n/a	LTP093	ltpFR	19	4	n/a	MATTRESS	879	4	n/a	n/a	n/a	n/a	n/a	n/a
4112.444	n/a	RECOG_RESP	2056222	n/a	LTP093	ltpFR	19	4	n/a	MATTRESS	879	n/a	n/a	n/a	n/a	n/a	n/a	n/a
4112.834	n/a	RECOG_CONF	2056417	n/a	LTP093	ltpFR	19	4	n/a	MATTRESS	879	4	n/a	n/a	n/a	n/a	n/a	n/a
4114.316	n/a	RECOG_TARGET	2057158	n/a	LTP093	ltpFR	19	4	1	DIGGER	464	4	1	n/a	n/a	n/a	n/a	n/a
4114.974	n/a	RECOG_RESP	2057487	n/a	LTP093	ltpFR	19	4	1	DIGGER	464	n/a	1	n/a	n/a	n/a	n/a	n/a
4115.434	n/a	RECOG_CONF	2057717	n/a	LTP093	ltpFR	19	4	1	DIGGER	464	4	1	n/a	n/a	n/a	n/a	n/a
4116.758	n/a	RECOG_TARGET	2058379	n/a	LTP093	ltpFR	19	4	1	LION	827	4	1	n/a	n/a	n/a	n/a	n/a
4117.298	n/a	RECOG_RESP	2058649	n/a	LTP093	ltpFR	19	4	1	LION	827	n/a	1	n/a	n/a	n/a	n/a	n/a
4117.732	n/a	RECOG_CONF	2058866	n/a	LTP093	ltpFR	19	4	1	LION	827	4	1	n/a	n/a	n/a	n/a	n/a
4119.066	n/a	RECOG_TARGET	2059533	n/a	LTP093	ltpFR	19	4	0	TOENAIL	1474	4	0	n/a	n/a	n/a	n/a	n/a
4119.902	n/a	RECOG_RESP_VV	2059951	n/a	LTP093	ltpFR	19	4	0	TOENAIL	1474	n/a	0	n/a	n/a	n/a	n/a	n/a
4120.526	n/a	RECOG_RESP	2060263	n/a	LTP093	ltpFR	19	4	0	TOENAIL	1474	n/a	0	n/a	n/a	n/a	n/a	n/a
4121.004	n/a	RECOG_CONF	2060502	n/a	LTP093	ltpFR	19	4	0	TOENAIL	1474	4	0	n/a	n/a	n/a	n/a	n/a
4122.4	n/a	RECOG_TARGET	2061200	n/a	LTP093	ltpFR	19	4	0	BOULDER	155	4	0	n/a	n/a	n/a	n/a	n/a
4123.144	n/a	RECOG_RESP	2061572	n/a	LTP093	ltpFR	19	4	0	BOULDER	155	n/a	0	n/a	n/a	n/a	n/a	n/a
4123.61	n/a	RECOG_CONF	2061805	n/a	LTP093	ltpFR	19	4	0	BOULDER	155	4	0	n/a	n/a	n/a	n/a	n/a
4125.008	n/a	RECOG_TARGET	2062504	n/a	LTP093	ltpFR	19	4	1	RODENT	1204	4	0	n/a	n/a	n/a	n/a	n/a
4125.6	n/a	RECOG_RESP	2062800	n/a	LTP093	ltpFR	19	4	1	RODENT	1204	n/a	0	n/a	n/a	n/a	n/a	n/a
4126.088	n/a	RECOG_CONF	2063044	n/a	LTP093	ltpFR	19	4	1	RODENT	1204	4	0	n/a	n/a	n/a	n/a	n/a
4127.466	n/a	RECOG_TARGET	2063733	n/a	LTP093	ltpFR	19	4	0	JUG	762	4	0	n/a	n/a	n/a	n/a	n/a
4128.334	n/a	RECOG_RESP	2064167	n/a	LTP093	ltpFR	19	4	0	JUG	762	n/a	0	n/a	n/a	n/a	n/a	n/a
4128.79	n/a	RECOG_CONF	2064395	n/a	LTP093	ltpFR	19	4	0	JUG	762	4	0	n/a	n/a	n/a	n/a	n/a
4130.158	n/a	RECOG_TARGET	2065079	n/a	LTP093	ltpFR	19	4	0	SUPERVISOR	1410	4	1	n/a	n/a	n/a	n/a	n/a
4130.804	n/a	RECOG_RESP	2065402	n/a	LTP093	ltpFR	19	4	0	SUPERVISOR	1410	n/a	1	n/a	n/a	n/a	n/a	n/a
4131.268	n/a	RECOG_CONF	2065634	n/a	LTP093	ltpFR	19	4	0	SUPERVISOR	1410	4	1	n/a	n/a	n/a	n/a	n/a
4132.506	n/a	RECOG_TARGET	2066253	n/a	LTP093	ltpFR	19	4	1	TERMITE	1451	4	1	n/a	n/a	n/a	n/a	n/a
4133.198	n/a	RECOG_RESP	2066599	n/a	LTP093	ltpFR	19	4	1	TERMITE	1451	n/a	1	n/a	n/a	n/a	n/a	n/a
4133.608	n/a	RECOG_CONF	2066804	n/a	LTP093	ltpFR	19	4	1	TERMITE	1451	4	1	n/a	n/a	n/a	n/a	n/a
4134.974	n/a	RECOG_LURE	2067487	n/a	LTP093	ltpFR	19	4	n/a	HAMMER	680	4	n/a	n/a	n/a	n/a	n/a	n/a
4135.742	n/a	RECOG_RESP	2067871	n/a	LTP093	ltpFR	19	4	n/a	HAMMER	680	n/a	n/a	n/a	n/a	n/a	n/a	n/a
4136.24	n/a	RECOG_CONF	2068120	n/a	LTP093	ltpFR	19	4	n/a	HAMMER	680	4	n/a	n/a	n/a	n/a	n/a	n/a
4137.514	n/a	RECOG_TARGET	2068757	n/a	LTP093	ltpFR	19	4	-1	PERFUME	1049	4	-1	n/a	n/a	n/a	n/a	n/a
4138.282	n/a	RECOG_RESP	2069141	n/a	LTP093	ltpFR	19	4	-1	PERFUME	1049	n/a	-1	n/a	n/a	n/a	n/a	n/a
4138.816	n/a	RECOG_CONF	2069408	n/a	LTP093	ltpFR	19	4	-1	PERFUME	1049	4	-1	n/a	n/a	n/a	n/a	n/a
4140.148	n/a	RECOG_LURE	2070074	n/a	LTP093	ltpFR	19	4	n/a	PELICAN	1039	4	n/a	n/a	n/a	n/a	n/a	n/a
4140.846	n/a	RECOG_RESP	2070423	n/a	LTP093	ltpFR	19	4	n/a	PELICAN	1039	n/a	n/a	n/a	n/a	n/a	n/a	n/a
4141.3	n/a	RECOG_CONF	2070650	n/a	LTP093	ltpFR	19	4	n/a	PELICAN	1039	4	n/a	n/a	n/a	n/a	n/a	n/a
4142.716	n/a	RECOG_TARGET	2071358	n/a	LTP093	ltpFR	19	4	0	TEENAGER	1444	4	0	n/a	n/a	n/a	n/a	n/a
4143.354	n/a	RECOG_RESP	2071677	n/a	LTP093	ltpFR	19	4	0	TEENAGER	1444	n/a	0	n/a	n/a	n/a	n/a	n/a
4143.768	n/a	RECOG_CONF	2071884	n/a	LTP093	ltpFR	19	4	0	TEENAGER	1444	4	0	n/a	n/a	n/a	n/a	n/a
4145.092	n/a	RECOG_LURE	2072546	n/a	LTP093	ltpFR	19	4	n/a	FOREST	593	1	n/a	n/a	n/a	n/a	n/a	n/a
4145.7	n/a	RECOG_RESP	2072850	n/a	LTP093	ltpFR	19	4	n/a	FOREST	593	n/a	n/a	n/a	n/a	n/a	n/a	n/a
4149.322	n/a	RECOG_CONF	2074661	n/a	LTP093	ltpFR	19	4	n/a	FOREST	593	1	n/a	n/a	n/a	n/a	n/a	n/a
4150.832	n/a	RECOG_TARGET	2075416	n/a	LTP093	ltpFR	19	4	1	CREEK	404	4	0	n/a	n/a	n/a	n/a	n/a
4151.498	n/a	RECOG_RESP	2075749	n/a	LTP093	ltpFR	19	4	1	CREEK	404	n/a	0	n/a	n/a	n/a	n/a	n/a
4151.954	n/a	RECOG_CONF	2075977	n/a	LTP093	ltpFR	19	4	1	CREEK	404	4	0	n/a	n/a	n/a	n/a	n/a
4153.358	n/a	RECOG_TARGET	2076679	n/a	LTP093	ltpFR	19	4	1	DRUM	502	4	0	n/a	n/a	n/a	n/a	n/a
4154.246	n/a	RECOG_RESP	2077123	n/a	LTP093	ltpFR	19	4	1	DRUM	502	n/a	0	n/a	n/a	n/a	n/a	n/a
4154.686	n/a	RECOG_CONF	2077343	n/a	LTP093	ltpFR	19	4	1	DRUM	502	4	0	n/a	n/a	n/a	n/a	n/a
4156.09	n/a	RECOG_TARGET	2078045	n/a	LTP093	ltpFR	19	4	0	CELLO	268	4	0	n/a	n/a	n/a	n/a	n/a
4156.666	n/a	RECOG_RESP	2078333	n/a	LTP093	ltpFR	19	4	0	CELLO	268	n/a	0	n/a	n/a	n/a	n/a	n/a
4157.154	n/a	RECOG_CONF	2078577	n/a	LTP093	ltpFR	19	4	0	CELLO	268	4	0	n/a	n/a	n/a	n/a	n/a
4158.39	n/a	RECOG_TARGET	2079195	n/a	LTP093	ltpFR	19	4	0	FEATHER	557	4	0	n/a	n/a	n/a	n/a	n/a
4158.966	n/a	RECOG_RESP	2079483	n/a	LTP093	ltpFR	19	4	0	FEATHER	557	n/a	0	n/a	n/a	n/a	n/a	n/a
4159.548	n/a	RECOG_CONF	2079774	n/a	LTP093	ltpFR	19	4	0	FEATHER	557	4	0	n/a	n/a	n/a	n/a	n/a
4161.056	n/a	RECOG_TARGET	2080528	n/a	LTP093	ltpFR	19	4	1	BRUSH	182	4	0	n/a	n/a	n/a	n/a	n/a
4161.6	n/a	RECOG_RESP	2080800	n/a	LTP093	ltpFR	19	4	1	BRUSH	182	n/a	0	n/a	n/a	n/a	n/a	n/a
4162.116	n/a	RECOG_CONF	2081058	n/a	LTP093	ltpFR	19	4	1	BRUSH	182	4	0	n/a	n/a	n/a	n/a	n/a
4165.458	n/a	REC_START	2082729	n/a	LTP093	ltpFR	19	5	n/a	n/a	n/a	n/a	n/a	n/a	n/a	n/a	n/a	n/a
4165.49	n/a	RECOG_TARGET	2082745	n/a	LTP093	ltpFR	19	5	-1	GALLON	618	4	-1	n/a	n/a	n/a	n/a	n/a
4166.356	n/a	RECOG_RESP	2083178	n/a	LTP093	ltpFR	19	5	-1	GALLON	618	n/a	-1	n/a	n/a	n/a	n/a	n/a
4166.916	n/a	RECOG_CONF	2083458	n/a	LTP093	ltpFR	19	5	-1	GALLON	618	4	-1	n/a	n/a	n/a	n/a	n/a
4168.356	n/a	RECOG_TARGET	2084178	n/a	LTP093	ltpFR	19	5	1	VASE	1549	4	0	n/a	n/a	n/a	n/a	n/a
4168.876	n/a	RECOG_RESP	2084438	n/a	LTP093	ltpFR	19	5	1	VASE	1549	n/a	0	n/a	n/a	n/a	n/a	n/a
4169.354	n/a	RECOG_CONF	2084677	n/a	LTP093	ltpFR	19	5	1	VASE	1549	4	0	n/a	n/a	n/a	n/a	n/a
4171.032	n/a	RECOG_LURE	2085516	n/a	LTP093	ltpFR	19	5	n/a	COOKBOOK	373	1	n/a	n/a	n/a	n/a	n/a	n/a
4171.4	n/a	RECOG_RESP	2085700	n/a	LTP093	ltpFR	19	5	n/a	COOKBOOK	373	n/a	n/a	n/a	n/a	n/a	n/a	n/a
4176.468	n/a	RECOG_CONF	2088234	n/a	LTP093	ltpFR	19	5	n/a	COOKBOOK	373	1	n/a	n/a	n/a	n/a	n/a	n/a
4177.956	n/a	RECOG_TARGET	2088978	n/a	LTP093	ltpFR	19	5	0	RECIPE	1175	4	0	n/a	n/a	n/a	n/a	n/a
4178.478	n/a	RECOG_RESP	2089239	n/a	LTP093	ltpFR	19	5	0	RECIPE	1175	n/a	0	n/a	n/a	n/a	n/a	n/a
4179.036	n/a	RECOG_CONF	2089518	n/a	LTP093	ltpFR	19	5	0	RECIPE	1175	4	0	n/a	n/a	n/a	n/a	n/a
4180.314	n/a	RECOG_TARGET	2090157	n/a	LTP093	ltpFR	19	5	0	CASH	252	4	0	n/a	n/a	n/a	n/a	n/a
4180.958	n/a	RECOG_RESP	2090479	n/a	LTP093	ltpFR	19	5	0	CASH	252	n/a	0	n/a	n/a	n/a	n/a	n/a
4181.438	n/a	RECOG_CONF	2090719	n/a	LTP093	ltpFR	19	5	0	CASH	252	4	0	n/a	n/a	n/a	n/a	n/a
4182.89	n/a	RECOG_LURE	2091445	n/a	LTP093	ltpFR	19	5	n/a	STOVE	1388	4	n/a	n/a	n/a	n/a	n/a	n/a
4183.622	n/a	RECOG_RESP	2091811	n/a	LTP093	ltpFR	19	5	n/a	STOVE	1388	n/a	n/a	n/a	n/a	n/a	n/a	n/a
4184.082	n/a	RECOG_CONF	2092041	n/a	LTP093	ltpFR	19	5	n/a	STOVE	1388	4	n/a	n/a	n/a	n/a	n/a	n/a
4185.474	n/a	RECOG_LURE	2092737	n/a	LTP093	ltpFR	19	5	n/a	COOK	372	4	n/a	n/a	n/a	n/a	n/a	n/a
4186.516	n/a	RECOG_RESP	2093258	n/a	LTP093	ltpFR	19	5	n/a	COOK	372	n/a	n/a	n/a	n/a	n/a	n/a	n/a
4187.136	n/a	RECOG_CONF	2093568	n/a	LTP093	ltpFR	19	5	n/a	COOK	372	4	n/a	n/a	n/a	n/a	n/a	n/a
4188.474	n/a	RECOG_TARGET	2094237	n/a	LTP093	ltpFR	19	5	1	LUMBER	848	4	0	n/a	n/a	n/a	n/a	n/a
4189.41	n/a	RECOG_RESP	2094705	n/a	LTP093	ltpFR	19	5	1	LUMBER	848	n/a	0	n/a	n/a	n/a	n/a	n/a
4190.078	n/a	RECOG_CONF	2095039	n/a	LTP093	ltpFR	19	5	1	LUMBER	848	4	0	n/a	n/a	n/a	n/a	n/a
4191.588	n/a	RECOG_TARGET	2095794	n/a	LTP093	ltpFR	19	5	0	TWIG	1527	1	0	n/a	n/a	n/a	n/a	n/a
4192.278	n/a	RECOG_RESP	2096139	n/a	LTP093	ltpFR	19	5	0	TWIG	1527	n/a	0	n/a	n/a	n/a	n/a	n/a
4195.256	n/a	RECOG_CONF	2097628	n/a	LTP093	ltpFR	19	5	0	TWIG	1527	1	0	n/a	n/a	n/a	n/a	n/a
4196.906	n/a	RECOG_TARGET	2098453	n/a	LTP093	ltpFR	19	5	0	COCKTAIL	338	4	0	n/a	n/a	n/a	n/a	n/a
4198.27	n/a	RECOG_RESP	2099135	n/a	LTP093	ltpFR	19	5	0	COCKTAIL	338	n/a	0	n/a	n/a	n/a	n/a	n/a
4198.878	n/a	RECOG_CONF	2099439	n/a	LTP093	ltpFR	19	5	0	COCKTAIL	338	4	0	n/a	n/a	n/a	n/a	n/a
4200.348	n/a	RECOG_TARGET	2100174	n/a	LTP093	ltpFR	19	5	1	ZEBRA	1635	4	1	n/a	n/a	n/a	n/a	n/a
4200.908	n/a	RECOG_RESP	2100454	n/a	LTP093	ltpFR	19	5	1	ZEBRA	1635	n/a	1	n/a	n/a	n/a	n/a	n/a
4201.492	n/a	RECOG_CONF	2100746	n/a	LTP093	ltpFR	19	5	1	ZEBRA	1635	4	1	n/a	n/a	n/a	n/a	n/a
4202.864	n/a	RECOG_TARGET	2101432	n/a	LTP093	ltpFR	19	5	0	CROSS	413	4	0	n/a	n/a	n/a	n/a	n/a
4204.566	n/a	RECOG_RESP_VV	2102283	n/a	LTP093	ltpFR	19	5	0	CROSS	413	n/a	0	n/a	n/a	n/a	n/a	n/a
4205.016	n/a	RECOG_RESP	2102508	n/a	LTP093	ltpFR	19	5	0	CROSS	413	n/a	0	n/a	n/a	n/a	n/a	n/a
4205.714	n/a	RECOG_CONF	2102857	n/a	LTP093	ltpFR	19	5	0	CROSS	413	4	0	n/a	n/a	n/a	n/a	n/a
4207.214	n/a	RECOG_TARGET	2103607	n/a	LTP093	ltpFR	19	5	0	TROUT	1511	4	0	n/a	n/a	n/a	n/a	n/a
4207.804	n/a	RECOG_RESP	2103902	n/a	LTP093	ltpFR	19	5	0	TROUT	1511	n/a	0	n/a	n/a	n/a	n/a	n/a
4208.338	n/a	RECOG_CONF	2104169	n/a	LTP093	ltpFR	19	5	0	TROUT	1511	4	0	n/a	n/a	n/a	n/a	n/a
4209.706	n/a	RECOG_TARGET	2104853	n/a	LTP093	ltpFR	19	5	0	GYMNAST	675	4	0	n/a	n/a	n/a	n/a	n/a
4211.026	n/a	RECOG_RESP	2105513	n/a	LTP093	ltpFR	19	5	0	GYMNAST	675	n/a	0	n/a	n/a	n/a	n/a	n/a
4211.59	n/a	RECOG_CONF	2105795	n/a	LTP093	ltpFR	19	5	0	GYMNAST	675	4	0	n/a	n/a	n/a	n/a	n/a
4213.022	n/a	RECOG_TARGET	2106511	n/a	LTP093	ltpFR	19	5	1	OATMEAL	967	4	0	n/a	n/a	n/a	n/a	n/a
4213.736	n/a	RECOG_RESP	2106868	n/a	LTP093	ltpFR	19	5	1	OATMEAL	967	n/a	0	n/a	n/a	n/a	n/a	n/a
4214.284	n/a	RECOG_CONF	2107142	n/a	LTP093	ltpFR	19	5	1	OATMEAL	967	4	0	n/a	n/a	n/a	n/a	n/a
4215.622	n/a	RECOG_TARGET	2107811	n/a	LTP093	ltpFR	19	5	0	WHEAT	1602	4	0	n/a	n/a	n/a	n/a	n/a
4216.778	n/a	RECOG_RESP	2108389	n/a	LTP093	ltpFR	19	5	0	WHEAT	1602	n/a	0	n/a	n/a	n/a	n/a	n/a
4217.408	n/a	RECOG_CONF	2108704	n/a	LTP093	ltpFR	19	5	0	WHEAT	1602	4	0	n/a	n/a	n/a	n/a	n/a
4218.846	n/a	RECOG_TARGET	2109423	n/a	LTP093	ltpFR	19	5	0	ATLAS	53	4	1	n/a	n/a	n/a	n/a	n/a
4219.568	n/a	RECOG_RESP	2109784	n/a	LTP093	ltpFR	19	5	0	ATLAS	53	n/a	1	n/a	n/a	n/a	n/a	n/a
4220.082	n/a	RECOG_CONF	2110041	n/a	LTP093	ltpFR	19	5	0	ATLAS	53	4	1	n/a	n/a	n/a	n/a	n/a
4221.43	n/a	RECOG_TARGET	2110715	n/a	LTP093	ltpFR	19	5	1	LOG	841	4	0	n/a	n/a	n/a	n/a	n/a
4223.186	n/a	RECOG_RESP	2111593	n/a	LTP093	ltpFR	19	5	1	LOG	841	n/a	0	n/a	n/a	n/a	n/a	n/a
4223.814	n/a	RECOG_CONF	2111907	n/a	LTP093	ltpFR	19	5	1	LOG	841	4	0	n/a	n/a	n/a	n/a	n/a
4225.272	n/a	RECOG_TARGET	2112636	n/a	LTP093	ltpFR	19	5	1	PASTA	1021	4	0	n/a	n/a	n/a	n/a	n/a
4226.058	n/a	RECOG_RESP	2113029	n/a	LTP093	ltpFR	19	5	1	PASTA	1021	n/a	0	n/a	n/a	n/a	n/a	n/a
4226.628	n/a	RECOG_CONF	2113314	n/a	LTP093	ltpFR	19	5	1	PASTA	1021	4	0	n/a	n/a	n/a	n/a	n/a
4228.022	n/a	RECOG_TARGET	2114011	n/a	LTP093	ltpFR	19	5	-1	BUN	197	4	-1	n/a	n/a	n/a	n/a	n/a
4230.838	n/a	RECOG_RESP	2115419	n/a	LTP093	ltpFR	19	5	-1	BUN	197	n/a	-1	n/a	n/a	n/a	n/a	n/a
4231.556	n/a	RECOG_CONF	2115778	n/a	LTP093	ltpFR	19	5	-1	BUN	197	4	-1	n/a	n/a	n/a	n/a	n/a
4246.432	n/a	REC_START	2123216	n/a	LTP093	ltpFR	19	6	n/a	n/a	n/a	n/a	n/a	n/a	n/a	n/a	n/a	n/a
4246.464	n/a	RECOG_LURE	2123232	n/a	LTP093	ltpFR	19	6	n/a	COPIER	377	4	n/a	n/a	n/a	n/a	n/a	n/a
4247.324	n/a	RECOG_RESP	2123662	n/a	LTP093	ltpFR	19	6	n/a	COPIER	377	n/a	n/a	n/a	n/a	n/a	n/a	n/a
4247.794	n/a	RECOG_CONF	2123897	n/a	LTP093	ltpFR	19	6	n/a	COPIER	377	4	n/a	n/a	n/a	n/a	n/a	n/a
4249.196	n/a	RECOG_TARGET	2124598	n/a	LTP093	ltpFR	19	6	0	WASHCLOTH	1591	4	0	n/a	n/a	n/a	n/a	n/a
4249.868	n/a	RECOG_RESP	2124934	n/a	LTP093	ltpFR	19	6	0	WASHCLOTH	1591	n/a	0	n/a	n/a	n/a	n/a	n/a
4250.348	n/a	RECOG_CONF	2125174	n/a	LTP093	ltpFR	19	6	0	WASHCLOTH	1591	4	0	n/a	n/a	n/a	n/a	n/a
4251.762	n/a	RECOG_TARGET	2125881	n/a	LTP093	ltpFR	19	6	1	HOSE	720	4	0	n/a	n/a	n/a	n/a	n/a
4252.448	n/a	RECOG_RESP	2126224	n/a	LTP093	ltpFR	19	6	1	HOSE	720	n/a	0	n/a	n/a	n/a	n/a	n/a
4253.002	n/a	RECOG_CONF	2126501	n/a	LTP093	ltpFR	19	6	1	HOSE	720	4	0	n/a	n/a	n/a	n/a	n/a
4254.196	n/a	RECOG_TARGET	2127098	n/a	LTP093	ltpFR	19	6	-1	ELECTRON	522	4	-1	n/a	n/a	n/a	n/a	n/a
4254.772	n/a	RECOG_RESP	2127386	n/a	LTP093	ltpFR	19	6	-1	ELECTRON	522	n/a	-1	n/a	n/a	n/a	n/a	n/a
4255.234	n/a	RECOG_CONF	2127617	n/a	LTP093	ltpFR	19	6	-1	ELECTRON	522	4	-1	n/a	n/a	n/a	n/a	n/a
4256.488	n/a	RECOG_LURE	2128244	n/a	LTP093	ltpFR	19	6	n/a	JOURNAL	760	4	n/a	n/a	n/a	n/a	n/a	n/a
4257.162	n/a	RECOG_RESP	2128581	n/a	LTP093	ltpFR	19	6	n/a	JOURNAL	760	n/a	n/a	n/a	n/a	n/a	n/a	n/a
4257.522	n/a	RECOG_CONF	2128761	n/a	LTP093	ltpFR	19	6	n/a	JOURNAL	760	4	n/a	n/a	n/a	n/a	n/a	n/a
4258.896	n/a	RECOG_TARGET	2129448	n/a	LTP093	ltpFR	19	6	0	SNEAKER	1334	4	0	n/a	n/a	n/a	n/a	n/a
4259.546	n/a	RECOG_RESP	2129773	n/a	LTP093	ltpFR	19	6	0	SNEAKER	1334	n/a	0	n/a	n/a	n/a	n/a	n/a
4259.896	n/a	RECOG_CONF	2129948	n/a	LTP093	ltpFR	19	6	0	SNEAKER	1334	4	0	n/a	n/a	n/a	n/a	n/a
4261.304	n/a	RECOG_TARGET	2130652	n/a	LTP093	ltpFR	19	6	1	SYRINGE	1424	4	0	n/a	n/a	n/a	n/a	n/a
4261.858	n/a	RECOG_RESP	2130929	n/a	LTP093	ltpFR	19	6	1	SYRINGE	1424	n/a	0	n/a	n/a	n/a	n/a	n/a
4262.246	n/a	RECOG_CONF	2131123	n/a	LTP093	ltpFR	19	6	1	SYRINGE	1424	4	0	n/a	n/a	n/a	n/a	n/a
4263.578	n/a	RECOG_TARGET	2131789	n/a	LTP093	ltpFR	19	6	1	TUXEDO	1525	4	0	n/a	n/a	n/a	n/a	n/a
4264.376	n/a	RECOG_RESP	2132188	n/a	LTP093	ltpFR	19	6	1	TUXEDO	1525	n/a	0	n/a	n/a	n/a	n/a	n/a
4264.836	n/a	RECOG_CONF	2132418	n/a	LTP093	ltpFR	19	6	1	TUXEDO	1525	4	0	n/a	n/a	n/a	n/a	n/a
4266.122	n/a	RECOG_TARGET	2133061	n/a	LTP093	ltpFR	19	6	1	JEANS	752	4	0	n/a	n/a	n/a	n/a	n/a
4266.856	n/a	RECOG_RESP	2133428	n/a	LTP093	ltpFR	19	6	1	JEANS	752	n/a	0	n/a	n/a	n/a	n/a	n/a
4267.294	n/a	RECOG_CONF	2133647	n/a	LTP093	ltpFR	19	6	1	JEANS	752	4	0	n/a	n/a	n/a	n/a	n/a
4268.63	n/a	RECOG_TARGET	2134315	n/a	LTP093	ltpFR	19	6	0	HOOK	715	4	0	n/a	n/a	n/a	n/a	n/a
4269.236	n/a	RECOG_RESP	2134618	n/a	LTP093	ltpFR	19	6	0	HOOK	715	n/a	0	n/a	n/a	n/a	n/a	n/a
4269.63	n/a	RECOG_CONF	2134815	n/a	LTP093	ltpFR	19	6	0	HOOK	715	4	0	n/a	n/a	n/a	n/a	n/a
4271.004	n/a	RECOG_TARGET	2135502	n/a	LTP093	ltpFR	19	6	1	TIDE	1465	4	0	n/a	n/a	n/a	n/a	n/a
4271.576	n/a	RECOG_RESP	2135788	n/a	LTP093	ltpFR	19	6	1	TIDE	1465	n/a	0	n/a	n/a	n/a	n/a	n/a
4272.118	n/a	RECOG_CONF	2136059	n/a	LTP093	ltpFR	19	6	1	TIDE	1465	4	0	n/a	n/a	n/a	n/a	n/a
4273.254	n/a	RECOG_TARGET	2136627	n/a	LTP093	ltpFR	19	6	0	FLASK	576	4	0	n/a	n/a	n/a	n/a	n/a
4273.854	n/a	RECOG_RESP	2136927	n/a	LTP093	ltpFR	19	6	0	FLASK	576	n/a	0	n/a	n/a	n/a	n/a	n/a
4274.284	n/a	RECOG_CONF	2137142	n/a	LTP093	ltpFR	19	6	0	FLASK	576	4	0	n/a	n/a	n/a	n/a	n/a
4275.56	n/a	RECOG_TARGET	2137780	n/a	LTP093	ltpFR	19	6	-1	CARROT	249	4	-1	n/a	n/a	n/a	n/a	n/a
4276.3	n/a	RECOG_RESP	2138150	n/a	LTP093	ltpFR	19	6	-1	CARROT	249	n/a	-1	n/a	n/a	n/a	n/a	n/a
4276.662	n/a	RECOG_CONF	2138331	n/a	LTP093	ltpFR	19	6	-1	CARROT	249	4	-1	n/a	n/a	n/a	n/a	n/a
4278.062	n/a	RECOG_TARGET	2139031	n/a	LTP093	ltpFR	19	6	1	HOUSE	725	4	0	n/a	n/a	n/a	n/a	n/a
4278.554	n/a	RECOG_RESP	2139277	n/a	LTP093	ltpFR	19	6	1	HOUSE	725	n/a	0	n/a	n/a	n/a	n/a	n/a
4279.104	n/a	RECOG_CONF	2139552	n/a	LTP093	ltpFR	19	6	1	HOUSE	725	4	0	n/a	n/a	n/a	n/a	n/a
4280.294	n/a	RECOG_LURE	2140147	n/a	LTP093	ltpFR	19	6	n/a	BROTHER	179	4	n/a	n/a	n/a	n/a	n/a	n/a
4281.294	n/a	RECOG_RESP_VV	2140647	n/a	LTP093	ltpFR	19	6	n/a	BROTHER	179	n/a	n/a	n/a	n/a	n/a	n/a	n/a
4283.134	n/a	RECOG_RESP	2141567	n/a	LTP093	ltpFR	19	6	n/a	BROTHER	179	n/a	n/a	n/a	n/a	n/a	n/a	n/a
4283.764	n/a	RECOG_CONF	2141882	n/a	LTP093	ltpFR	19	6	n/a	BROTHER	179	4	n/a	n/a	n/a	n/a	n/a	n/a
4285.128	n/a	RECOG_LURE	2142564	n/a	LTP093	ltpFR	19	6	n/a	CENT	270	4	n/a	n/a	n/a	n/a	n/a	n/a
4285.898	n/a	RECOG_RESP_VV	2142949	n/a	LTP093	ltpFR	19	6	n/a	CENT	270	n/a	n/a	n/a	n/a	n/a	n/a	n/a
4286.716	n/a	RECOG_RESP	2143358	n/a	LTP093	ltpFR	19	6	n/a	CENT	270	n/a	n/a	n/a	n/a	n/a	n/a	n/a
4287.096	n/a	RECOG_CONF	2143548	n/a	LTP093	ltpFR	19	6	n/a	CENT	270	4	n/a	n/a	n/a	n/a	n/a	n/a
4288.662	n/a	RECOG_LURE	2144331	n/a	LTP093	ltpFR	19	6	n/a	SHACK	1273	4	n/a	n/a	n/a	n/a	n/a	n/a
4289.42	n/a	RECOG_RESP	2144710	n/a	LTP093	ltpFR	19	6	n/a	SHACK	1273	n/a	n/a	n/a	n/a	n/a	n/a	n/a
4289.9	n/a	RECOG_CONF	2144950	n/a	LTP093	ltpFR	19	6	n/a	SHACK	1273	4	n/a	n/a	n/a	n/a	n/a	n/a
4291.246	n/a	RECOG_LURE	2145623	n/a	LTP093	ltpFR	19	6	n/a	BODY	145	4	n/a	n/a	n/a	n/a	n/a	n/a
4291.85	n/a	RECOG_RESP	2145925	n/a	LTP093	ltpFR	19	6	n/a	BODY	145	n/a	n/a	n/a	n/a	n/a	n/a	n/a
4292.244	n/a	RECOG_CONF	2146122	n/a	LTP093	ltpFR	19	6	n/a	BODY	145	4	n/a	n/a	n/a	n/a	n/a	n/a
4293.478	n/a	RECOG_TARGET	2146739	n/a	LTP093	ltpFR	19	6	1	CREW	406	4	0	n/a	n/a	n/a	n/a	n/a
4294.086	n/a	RECOG_RESP	2147043	n/a	LTP093	ltpFR	19	6	1	CREW	406	n/a	0	n/a	n/a	n/a	n/a	n/a
4294.548	n/a	RECOG_CONF	2147274	n/a	LTP093	ltpFR	19	6	1	CREW	406	4	0	n/a	n/a	n/a	n/a	n/a
4295.754	n/a	RECOG_TARGET	2147877	n/a	LTP093	ltpFR	19	6	1	CHURCH	307	4	0	n/a	n/a	n/a	n/a	n/a
4296.434	n/a	RECOG_RESP_VV	2148217	n/a	LTP093	ltpFR	19	6	1	CHURCH	307	n/a	0	n/a	n/a	n/a	n/a	n/a
4296.924	n/a	RECOG_RESP	2148462	n/a	LTP093	ltpFR	19	6	1	CHURCH	307	n/a	0	n/a	n/a	n/a	n/a	n/a
4297.402	n/a	RECOG_CONF	2148701	n/a	LTP093	ltpFR	19	6	1	CHURCH	307	4	0	n/a	n/a	n/a	n/a	n/a
4333.962	n/a	REC_START	2166981	n/a	LTP093	ltpFR	19	7	n/a	n/a	n/a	n/a	n/a	n/a	n/a	n/a	n/a	n/a
4333.994	n/a	RECOG_TARGET	2166997	n/a	LTP093	ltpFR	19	7	0	GREASE	660	4	0	n/a	n/a	n/a	n/a	n/a
4334.894	n/a	RECOG_RESP	2167447	n/a	LTP093	ltpFR	19	7	0	GREASE	660	n/a	0	n/a	n/a	n/a	n/a	n/a
4336.072	n/a	RECOG_CONF	2168036	n/a	LTP093	ltpFR	19	7	0	GREASE	660	4	0	n/a	n/a	n/a	n/a	n/a
4337.526	n/a	RECOG_TARGET	2168763	n/a	LTP093	ltpFR	19	7	-1	ROBBER	1197	4	-1	n/a	n/a	n/a	n/a	n/a
4338.126	n/a	RECOG_RESP	2169063	n/a	LTP093	ltpFR	19	7	-1	ROBBER	1197	n/a	-1	n/a	n/a	n/a	n/a	n/a
4338.646	n/a	RECOG_CONF	2169323	n/a	LTP093	ltpFR	19	7	-1	ROBBER	1197	4	-1	n/a	n/a	n/a	n/a	n/a
4340.02	n/a	RECOG_TARGET	2170010	n/a	LTP093	ltpFR	19	7	0	WITCH	1617	4	0	n/a	n/a	n/a	n/a	n/a
4340.592	n/a	RECOG_RESP	2170296	n/a	LTP093	ltpFR	19	7	0	WITCH	1617	n/a	0	n/a	n/a	n/a	n/a	n/a
4340.974	n/a	RECOG_CONF	2170487	n/a	LTP093	ltpFR	19	7	0	WITCH	1617	4	0	n/a	n/a	n/a	n/a	n/a
4342.344	n/a	RECOG_LURE	2171172	n/a	LTP093	ltpFR	19	7	n/a	VAGRANT	1544	4	n/a	n/a	n/a	n/a	n/a	n/a
4343.046	n/a	RECOG_RESP	2171523	n/a	LTP093	ltpFR	19	7	n/a	VAGRANT	1544	n/a	n/a	n/a	n/a	n/a	n/a	n/a
4343.436	n/a	RECOG_CONF	2171718	n/a	LTP093	ltpFR	19	7	n/a	VAGRANT	1544	4	n/a	n/a	n/a	n/a	n/a	n/a
4344.752	n/a	RECOG_TARGET	2172376	n/a	LTP093	ltpFR	19	7	1	CATERPILLAR	259	4	1	n/a	n/a	n/a	n/a	n/a
4345.372	n/a	RECOG_RESP	2172686	n/a	LTP093	ltpFR	19	7	1	CATERPILLAR	259	n/a	1	n/a	n/a	n/a	n/a	n/a
4345.76	n/a	RECOG_CONF	2172880	n/a	LTP093	ltpFR	19	7	1	CATERPILLAR	259	4	1	n/a	n/a	n/a	n/a	n/a
4347.136	n/a	RECOG_TARGET	2173568	n/a	LTP093	ltpFR	19	7	0	VINE	1568	4	0	n/a	n/a	n/a	n/a	n/a
4347.74	n/a	RECOG_RESP	2173870	n/a	LTP093	ltpFR	19	7	0	VINE	1568	n/a	0	n/a	n/a	n/a	n/a	n/a
4348.176	n/a	RECOG_CONF	2174088	n/a	LTP093	ltpFR	19	7	0	VINE	1568	4	0	n/a	n/a	n/a	n/a	n/a
4349.502	n/a	RECOG_TARGET	2174751	n/a	LTP093	ltpFR	19	7	0	THUMB	1462	4	0	n/a	n/a	n/a	n/a	n/a
4350.1	n/a	RECOG_RESP	2175050	n/a	LTP093	ltpFR	19	7	0	THUMB	1462	n/a	0	n/a	n/a	n/a	n/a	n/a
4350.76	n/a	RECOG_CONF	2175380	n/a	LTP093	ltpFR	19	7	0	THUMB	1462	4	0	n/a	n/a	n/a	n/a	n/a
4352.018	n/a	RECOG_TARGET	2176009	n/a	LTP093	ltpFR	19	7	1	HARP	689	4	0	n/a	n/a	n/a	n/a	n/a
4352.556	n/a	RECOG_RESP	2176278	n/a	LTP093	ltpFR	19	7	1	HARP	689	n/a	0	n/a	n/a	n/a	n/a	n/a
4353.042	n/a	RECOG_CONF	2176521	n/a	LTP093	ltpFR	19	7	1	HARP	689	4	0	n/a	n/a	n/a	n/a	n/a
4354.502	n/a	RECOG_TARGET	2177251	n/a	LTP093	ltpFR	19	7	0	DIRECTOR	471	4	1	n/a	n/a	n/a	n/a	n/a
4355.11	n/a	RECOG_RESP	2177555	n/a	LTP093	ltpFR	19	7	0	DIRECTOR	471	n/a	1	n/a	n/a	n/a	n/a	n/a
4355.568	n/a	RECOG_CONF	2177784	n/a	LTP093	ltpFR	19	7	0	DIRECTOR	471	4	1	n/a	n/a	n/a	n/a	n/a
4356.992	n/a	RECOG_TARGET	2178496	n/a	LTP093	ltpFR	19	7	-1	WAVE	1596	4	-1	n/a	n/a	n/a	n/a	n/a
4357.574	n/a	RECOG_RESP	2178787	n/a	LTP093	ltpFR	19	7	-1	WAVE	1596	n/a	-1	n/a	n/a	n/a	n/a	n/a
4358.032	n/a	RECOG_CONF	2179016	n/a	LTP093	ltpFR	19	7	-1	WAVE	1596	4	-1	n/a	n/a	n/a	n/a	n/a
4359.368	n/a	RECOG_TARGET	2179684	n/a	LTP093	ltpFR	19	7	1	MOTH	920	4	1	n/a	n/a	n/a	n/a	n/a
4359.954	n/a	RECOG_RESP	2179977	n/a	LTP093	ltpFR	19	7	1	MOTH	920	n/a	1	n/a	n/a	n/a	n/a	n/a
4360.438	n/a	RECOG_CONF	2180219	n/a	LTP093	ltpFR	19	7	1	MOTH	920	4	1	n/a	n/a	n/a	n/a	n/a
4361.976	n/a	RECOG_TARGET	2180988	n/a	LTP093	ltpFR	19	7	0	HAIL	676	4	0	n/a	n/a	n/a	n/a	n/a
4362.514	n/a	RECOG_RESP	2181257	n/a	LTP093	ltpFR	19	7	0	HAIL	676	n/a	0	n/a	n/a	n/a	n/a	n/a
4362.972	n/a	RECOG_CONF	2181486	n/a	LTP093	ltpFR	19	7	0	HAIL	676	4	0	n/a	n/a	n/a	n/a	n/a
4364.394	n/a	RECOG_LURE	2182197	n/a	LTP093	ltpFR	19	7	n/a	SNAIL	1332	4	n/a	n/a	n/a	n/a	n/a	n/a
4365.008	n/a	RECOG_RESP	2182504	n/a	LTP093	ltpFR	19	7	n/a	SNAIL	1332	n/a	n/a	n/a	n/a	n/a	n/a	n/a
4365.466	n/a	RECOG_CONF	2182733	n/a	LTP093	ltpFR	19	7	n/a	SNAIL	1332	4	n/a	n/a	n/a	n/a	n/a	n/a
4366.794	n/a	RECOG_TARGET	2183397	n/a	LTP093	ltpFR	19	7	1	WALLET	1583	4	0	n/a	n/a	n/a	n/a	n/a
4367.318	n/a	RECOG_RESP	2183659	n/a	LTP093	ltpFR	19	7	1	WALLET	1583	n/a	0	n/a	n/a	n/a	n/a	n/a
4367.812	n/a	RECOG_CONF	2183906	n/a	LTP093	ltpFR	19	7	1	WALLET	1583	4	0	n/a	n/a	n/a	n/a	n/a
4369.202	n/a	RECOG_LURE	2184601	n/a	LTP093	ltpFR	19	7	n/a	DIME	466	4	n/a	n/a	n/a	n/a	n/a	n/a
4369.836	n/a	RECOG_RESP	2184918	n/a	LTP093	ltpFR	19	7	n/a	DIME	466	n/a	n/a	n/a	n/a	n/a	n/a	n/a
4370.296	n/a	RECOG_CONF	2185148	n/a	LTP093	ltpFR	19	7	n/a	DIME	466	4	n/a	n/a	n/a	n/a	n/a	n/a
4371.626	n/a	RECOG_TARGET	2185813	n/a	LTP093	ltpFR	19	7	0	LILY	821	4	0	n/a	n/a	n/a	n/a	n/a
4372.222	n/a	RECOG_RESP_VV	2186111	n/a	LTP093	ltpFR	19	7	0	LILY	821	n/a	0	n/a	n/a	n/a	n/a	n/a
4372.58	n/a	RECOG_RESP	2186290	n/a	LTP093	ltpFR	19	7	0	LILY	821	n/a	0	n/a	n/a	n/a	n/a	n/a
4373.1	n/a	RECOG_CONF	2186550	n/a	LTP093	ltpFR	19	7	0	LILY	821	4	0	n/a	n/a	n/a	n/a	n/a
4375.5	n/a	RECOG_TARGET	2187750	n/a	LTP093	ltpFR	19	7	1	TURKEY	1520	4	1	n/a	n/a	n/a	n/a	n/a
4376.612	n/a	RECOG_RESP	2188306	n/a	LTP093	ltpFR	19	7	1	TURKEY	1520	n/a	1	n/a	n/a	n/a	n/a	n/a
4377.15	n/a	RECOG_CONF	2188575	n/a	LTP093	ltpFR	19	7	1	TURKEY	1520	4	1	n/a	n/a	n/a	n/a	n/a
4378.542	n/a	RECOG_TARGET	2189271	n/a	LTP093	ltpFR	19	7	-1	SCALPEL	1243	4	-1	n/a	n/a	n/a	n/a	n/a
4379.212	n/a	RECOG_RESP	2189606	n/a	LTP093	ltpFR	19	7	-1	SCALPEL	1243	n/a	-1	n/a	n/a	n/a	n/a	n/a
4379.736	n/a	RECOG_CONF	2189868	n/a	LTP093	ltpFR	19	7	-1	SCALPEL	1243	4	-1	n/a	n/a	n/a	n/a	n/a
4380.934	n/a	RECOG_LURE	2190467	n/a	LTP093	ltpFR	19	7	n/a	MAILMAN	858	4	n/a	n/a	n/a	n/a	n/a	n/a
4381.726	n/a	RECOG_RESP	2190863	n/a	LTP093	ltpFR	19	7	n/a	MAILMAN	858	n/a	n/a	n/a	n/a	n/a	n/a	n/a
4383.706	n/a	RECOG_CONF	2191853	n/a	LTP093	ltpFR	19	7	n/a	MAILMAN	858	4	n/a	n/a	n/a	n/a	n/a	n/a
4385.226	n/a	RECOG_TARGET	2192613	n/a	LTP093	ltpFR	19	7	0	SILK	1307	4	0	n/a	n/a	n/a	n/a	n/a
4385.922	n/a	RECOG_RESP	2192961	n/a	LTP093	ltpFR	19	7	0	SILK	1307	n/a	0	n/a	n/a	n/a	n/a	n/a
4386.33	n/a	RECOG_CONF	2193165	n/a	LTP093	ltpFR	19	7	0	SILK	1307	4	0	n/a	n/a	n/a	n/a	n/a
4393.426	n/a	REC_START	2196713	n/a	LTP093	ltpFR	19	8	n/a	n/a	n/a	n/a	n/a	n/a	n/a	n/a	n/a	n/a
4393.458	n/a	RECOG_TARGET	2196729	n/a	LTP093	ltpFR	19	8	-1	GAVEL	627	4	-1	n/a	n/a	n/a	n/a	n/a
4394.334	n/a	RECOG_RESP	2197167	n/a	LTP093	ltpFR	19	8	-1	GAVEL	627	n/a	-1	n/a	n/a	n/a	n/a	n/a
4394.79	n/a	RECOG_CONF	2197395	n/a	LTP093	ltpFR	19	8	-1	GAVEL	627	4	-1	n/a	n/a	n/a	n/a	n/a
4396.158	n/a	RECOG_LURE	2198079	n/a	LTP093	ltpFR	19	8	n/a	WALRUS	1585	4	n/a	n/a	n/a	n/a	n/a	n/a
