onset	duration	trial_type	sample	stim_file	subject	experiment	session	trial	task	item_name	item_num	recog_resp	recog_conf	resp	answer	test_x	test_y	test_z	color_r	color_g	color_b	case	font
349.588	n/a	SESS_START	174794	n/a	LTP089	ltpFR	7	n/a	n/a	n/a	n/a	1	5	n/a	n/a	0	0	0	n/a	n/a	n/a	n/a	n/a
373.758	n/a	START	186879	n/a	LTP089	ltpFR	7	n/a	n/a	n/a	n/a	n/a	n/a	n/a	n/a	n/a	n/a	n/a	n/a	n/a	n/a	n/a	n/a
373.782	n/a	PROB	186891	n/a	LTP089	ltpFR	7	n/a	n/a	n/a	n/a	n/a	n/a	n/a	18	9	7	1	n/a	n/a	n/a	n/a	n/a
377.932	n/a	PROB	188966	n/a	LTP089	ltpFR	7	n/a	n/a	n/a	n/a	n/a	n/a	n/a	5	1	2	2	n/a	n/a	n/a	n/a	n/a
380.966	n/a	PROB	190483	n/a	LTP089	ltpFR	7	n/a	n/a	n/a	n/a	n/a	n/a	n/a	17	6	4	7	n/a	n/a	n/a	n/a	n/a
383.356	n/a	PROB	191678	n/a	LTP089	ltpFR	7	n/a	n/a	n/a	n/a	n/a	n/a	n/a	5	3	1	1	n/a	n/a	n/a	n/a	n/a
385.032	n/a	PROB	192516	n/a	LTP089	ltpFR	7	n/a	n/a	n/a	n/a	n/a	n/a	n/a	8	1	2	5	n/a	n/a	n/a	n/a	n/a
387.456	n/a	PROB	193728	n/a	LTP089	ltpFR	7	n/a	n/a	n/a	n/a	n/a	n/a	n/a	16	1	8	7	n/a	n/a	n/a	n/a	n/a
392.57	n/a	STOP	196285	n/a	LTP089	ltpFR	7	n/a	n/a	n/a	n/a	n/a	n/a	n/a	n/a	n/a	n/a	n/a	n/a	n/a	n/a	n/a	n/a
449.898	n/a	START	224949	n/a	LTP089	ltpFR	7	n/a	n/a	n/a	n/a	n/a	n/a	n/a	n/a	n/a	n/a	n/a	n/a	n/a	n/a	n/a	n/a
451.406	n/a	PROB	225703	n/a	LTP089	ltpFR	7	n/a	n/a	n/a	n/a	n/a	n/a	n/a	18	2	8	8	n/a	n/a	n/a	n/a	n/a
453.93	n/a	PROB	226965	n/a	LTP089	ltpFR	7	n/a	n/a	n/a	n/a	n/a	n/a	n/a	18	3	7	8	n/a	n/a	n/a	n/a	n/a
457.898	n/a	STOP	228949	n/a	LTP089	ltpFR	7	n/a	n/a	n/a	n/a	n/a	n/a	n/a	n/a	n/a	n/a	n/a	n/a	n/a	n/a	n/a	n/a
458.856	n/a	WORD	229428	wordpools/wasnorm_wordpool.txt	LTP089	ltpFR	7	1	1	CHIMPANZEE	302	1	n/a	3	n/a	0	0	0	0.57763671875	0.412841796875	1	upper	zerothre.ttf
459.956	n/a	KEY_MSG	229978	n/a	LTP089	ltpFR	7	1	n/a	n/a	n/a	n/a	n/a	n/a	n/a	0	0	0	n/a	n/a	n/a	n/a	n/a
461.864	n/a	START	230932	n/a	LTP089	ltpFR	7	n/a	n/a	n/a	n/a	n/a	n/a	n/a	n/a	n/a	n/a	n/a	n/a	n/a	n/a	n/a	n/a
462.814	n/a	PROB	231407	n/a	LTP089	ltpFR	7	n/a	n/a	n/a	n/a	n/a	n/a	n/a	16	2	6	6	n/a	n/a	n/a	n/a	n/a
469.864	n/a	STOP	234932	n/a	LTP089	ltpFR	7	n/a	n/a	n/a	n/a	n/a	n/a	n/a	n/a	n/a	n/a	n/a	n/a	n/a	n/a	n/a	n/a
470.88	n/a	WORD	235440	wordpools/wasnorm_wordpool.txt	LTP089	ltpFR	7	1	1	GATE	625	n/a	n/a	1	n/a	0	0	0	0.57763671875	0.412841796875	1	upper	zerothre.ttf
473.888	n/a	START	236944	n/a	LTP089	ltpFR	7	n/a	n/a	n/a	n/a	n/a	n/a	n/a	n/a	n/a	n/a	n/a	n/a	n/a	n/a	n/a	n/a
474.788	n/a	PROB	237394	n/a	LTP089	ltpFR	7	n/a	n/a	n/a	n/a	n/a	n/a	n/a	18	7	3	8	n/a	n/a	n/a	n/a	n/a
476.946	n/a	PROB	238473	n/a	LTP089	ltpFR	7	n/a	n/a	n/a	n/a	n/a	n/a	n/a	19	4	8	8	n/a	n/a	n/a	n/a	n/a
480.678	n/a	STOP	240339	n/a	LTP089	ltpFR	7	n/a	n/a	n/a	n/a	n/a	n/a	n/a	n/a	n/a	n/a	n/a	n/a	n/a	n/a	n/a	n/a
482.922	n/a	WORD	241461	wordpools/wasnorm_wordpool.txt	LTP089	ltpFR	7	1	1	SCHOOL	1248	n/a	n/a	1	n/a	0	0	0	0.57763671875	0.412841796875	1	upper	zerothre.ttf
485.93	n/a	START	242965	n/a	LTP089	ltpFR	7	n/a	n/a	n/a	n/a	n/a	n/a	n/a	n/a	n/a	n/a	n/a	n/a	n/a	n/a	n/a	n/a
486.872	n/a	PROB	243436	n/a	LTP089	ltpFR	7	n/a	n/a	n/a	n/a	n/a	n/a	n/a	11	3	6	2	n/a	n/a	n/a	n/a	n/a
490.904	n/a	PROB	245452	n/a	LTP089	ltpFR	7	n/a	n/a	n/a	n/a	n/a	n/a	n/a	18	7	7	3	n/a	n/a	n/a	n/a	n/a
493.806	n/a	STOP	246903	n/a	LTP089	ltpFR	7	n/a	n/a	n/a	n/a	n/a	n/a	n/a	n/a	n/a	n/a	n/a	n/a	n/a	n/a	n/a	n/a
494.946	n/a	WORD	247473	wordpools/wasnorm_wordpool.txt	LTP089	ltpFR	7	1	1	GRADUATE	653	n/a	n/a	1	n/a	0	0	0	0.57763671875	0.412841796875	1	upper	zerothre.ttf
497.956	n/a	START	248978	n/a	LTP089	ltpFR	7	n/a	n/a	n/a	n/a	n/a	n/a	n/a	n/a	n/a	n/a	n/a	n/a	n/a	n/a	n/a	n/a
498.962	n/a	PROB	249481	n/a	LTP089	ltpFR	7	n/a	n/a	n/a	n/a	n/a	n/a	n/a	16	2	4	9	n/a	n/a	n/a	n/a	n/a
505.954	n/a	STOP	252977	n/a	LTP089	ltpFR	7	n/a	n/a	n/a	n/a	n/a	n/a	n/a	n/a	n/a	n/a	n/a	n/a	n/a	n/a	n/a	n/a
506.862	n/a	WORD	253431	wordpools/wasnorm_wordpool.txt	LTP089	ltpFR	7	1	1	ROD	1203	n/a	n/a	0	n/a	0	0	0	0.57763671875	0.412841796875	1	upper	zerothre.ttf
509.87	n/a	START	254935	n/a	LTP089	ltpFR	7	n/a	n/a	n/a	n/a	n/a	n/a	n/a	n/a	n/a	n/a	n/a	n/a	n/a	n/a	n/a	n/a
510.828	n/a	PROB	255414	n/a	LTP089	ltpFR	7	n/a	n/a	n/a	n/a	n/a	n/a	n/a	14	2	7	5	n/a	n/a	n/a	n/a	n/a
517.872	n/a	STOP	258936	n/a	LTP089	ltpFR	7	n/a	n/a	n/a	n/a	n/a	n/a	n/a	n/a	n/a	n/a	n/a	n/a	n/a	n/a	n/a	n/a
518.97	n/a	WORD	259485	wordpools/wasnorm_wordpool.txt	LTP089	ltpFR	7	1	1	NURSERY	964	n/a	n/a	0	n/a	0	0	0	0.57763671875	0.412841796875	1	upper	zerothre.ttf
521.97	n/a	START	260985	n/a	LTP089	ltpFR	7	n/a	n/a	n/a	n/a	n/a	n/a	n/a	n/a	n/a	n/a	n/a	n/a	n/a	n/a	n/a	n/a
523.038	n/a	PROB	261519	n/a	LTP089	ltpFR	7	n/a	n/a	n/a	n/a	n/a	n/a	n/a	11	4	3	4	n/a	n/a	n/a	n/a	n/a
526.836	n/a	PROB	263418	n/a	LTP089	ltpFR	7	n/a	n/a	n/a	n/a	n/a	n/a	n/a	12	5	2	5	n/a	n/a	n/a	n/a	n/a
528.736	n/a	STOP	264368	n/a	LTP089	ltpFR	7	n/a	n/a	n/a	n/a	n/a	n/a	n/a	n/a	n/a	n/a	n/a	n/a	n/a	n/a	n/a	n/a
531.044	n/a	WORD	265522	wordpools/wasnorm_wordpool.txt	LTP089	ltpFR	7	1	1	CUP	424	n/a	n/a	0	n/a	0	0	0	0.57763671875	0.412841796875	1	upper	zerothre.ttf
534.046	n/a	START	267023	n/a	LTP089	ltpFR	7	n/a	n/a	n/a	n/a	n/a	n/a	n/a	n/a	n/a	n/a	n/a	n/a	n/a	n/a	n/a	n/a
535.22	n/a	PROB	267610	n/a	LTP089	ltpFR	7	n/a	n/a	n/a	n/a	n/a	n/a	n/a	11	2	2	7	n/a	n/a	n/a	n/a	n/a
542.046	n/a	STOP	271023	n/a	LTP089	ltpFR	7	n/a	n/a	n/a	n/a	n/a	n/a	n/a	n/a	n/a	n/a	n/a	n/a	n/a	n/a	n/a	n/a
543.054	n/a	WORD	271527	wordpools/wasnorm_wordpool.txt	LTP089	ltpFR	7	1	1	MEADOW	881	n/a	n/a	0	n/a	0	0	0	0.57763671875	0.412841796875	1	upper	zerothre.ttf
546.062	n/a	START	273031	n/a	LTP089	ltpFR	7	n/a	n/a	n/a	n/a	n/a	n/a	n/a	n/a	n/a	n/a	n/a	n/a	n/a	n/a	n/a	n/a
547.112	n/a	PROB	273556	n/a	LTP089	ltpFR	7	n/a	n/a	n/a	n/a	n/a	n/a	n/a	18	8	3	7	n/a	n/a	n/a	n/a	n/a
554.062	n/a	STOP	277031	n/a	LTP089	ltpFR	7	n/a	n/a	n/a	n/a	n/a	n/a	n/a	n/a	n/a	n/a	n/a	n/a	n/a	n/a	n/a	n/a
555.228	n/a	WORD	277614	wordpools/wasnorm_wordpool.txt	LTP089	ltpFR	7	1	1	VASE	1549	n/a	n/a	0	n/a	0	0	0	0.57763671875	0.412841796875	1	upper	zerothre.ttf
558.238	n/a	START	279119	n/a	LTP089	ltpFR	7	n/a	n/a	n/a	n/a	n/a	n/a	n/a	n/a	n/a	n/a	n/a	n/a	n/a	n/a	n/a	n/a
559.094	n/a	PROB	279547	n/a	LTP089	ltpFR	7	n/a	n/a	n/a	n/a	n/a	n/a	n/a	23	7	8	8	n/a	n/a	n/a	n/a	n/a
564.818	n/a	STOP	282409	n/a	LTP089	ltpFR	7	n/a	n/a	n/a	n/a	n/a	n/a	n/a	n/a	n/a	n/a	n/a	n/a	n/a	n/a	n/a	n/a
567.236	n/a	WORD	283618	wordpools/wasnorm_wordpool.txt	LTP089	ltpFR	7	1	1	BUTLER	204	n/a	n/a	0	n/a	0	0	0	0.57763671875	0.412841796875	1	upper	zerothre.ttf
570.236	n/a	START	285118	n/a	LTP089	ltpFR	7	n/a	n/a	n/a	n/a	n/a	n/a	n/a	n/a	n/a	n/a	n/a	n/a	n/a	n/a	n/a	n/a
571.06	n/a	PROB	285530	n/a	LTP089	ltpFR	7	n/a	n/a	n/a	n/a	n/a	n/a	n/a	8	4	3	1	n/a	n/a	n/a	n/a	n/a
574.218	n/a	PROB	287109	n/a	LTP089	ltpFR	7	n/a	n/a	n/a	n/a	n/a	n/a	n/a	14	4	9	1	n/a	n/a	n/a	n/a	n/a
576.82	n/a	STOP	288410	n/a	LTP089	ltpFR	7	n/a	n/a	n/a	n/a	n/a	n/a	n/a	n/a	n/a	n/a	n/a	n/a	n/a	n/a	n/a	n/a
579.228	n/a	WORD	289614	wordpools/wasnorm_wordpool.txt	LTP089	ltpFR	7	1	1	POET	1095	n/a	n/a	1	n/a	0	0	0	0.57763671875	0.412841796875	1	upper	zerothre.ttf
582.236	n/a	START	291118	n/a	LTP089	ltpFR	7	n/a	n/a	n/a	n/a	n/a	n/a	n/a	n/a	n/a	n/a	n/a	n/a	n/a	n/a	n/a	n/a
583.32	n/a	PROB	291660	n/a	LTP089	ltpFR	7	n/a	n/a	n/a	n/a	n/a	n/a	n/a	14	5	5	4	n/a	n/a	n/a	n/a	n/a
584.936	n/a	PROB	292468	n/a	LTP089	ltpFR	7	n/a	n/a	n/a	n/a	n/a	n/a	n/a	23	9	8	5	n/a	n/a	n/a	n/a	n/a
589.716	n/a	STOP	294858	n/a	LTP089	ltpFR	7	n/a	n/a	n/a	n/a	n/a	n/a	n/a	n/a	n/a	n/a	n/a	n/a	n/a	n/a	n/a	n/a
591.368	n/a	WORD	295684	wordpools/wasnorm_wordpool.txt	LTP089	ltpFR	7	1	1	ACID	2	n/a	n/a	0	n/a	0	0	0	0.57763671875	0.412841796875	1	upper	zerothre.ttf
594.376	n/a	START	297188	n/a	LTP089	ltpFR	7	n/a	n/a	n/a	n/a	n/a	n/a	n/a	n/a	n/a	n/a	n/a	n/a	n/a	n/a	n/a	n/a
595.244	n/a	PROB	297622	n/a	LTP089	ltpFR	7	n/a	n/a	n/a	n/a	n/a	n/a	n/a	13	3	7	3	n/a	n/a	n/a	n/a	n/a
597.01	n/a	PROB	298505	n/a	LTP089	ltpFR	7	n/a	n/a	n/a	n/a	n/a	n/a	n/a	8	2	5	1	n/a	n/a	n/a	n/a	n/a
599.186	n/a	PROB	299593	n/a	LTP089	ltpFR	7	n/a	n/a	n/a	n/a	n/a	n/a	n/a	9	1	2	6	n/a	n/a	n/a	n/a	n/a
601.844	n/a	STOP	300922	n/a	LTP089	ltpFR	7	n/a	n/a	n/a	n/a	n/a	n/a	n/a	n/a	n/a	n/a	n/a	n/a	n/a	n/a	n/a	n/a
603.202	n/a	WORD	301601	wordpools/wasnorm_wordpool.txt	LTP089	ltpFR	7	1	1	UMPIRE	1535	n/a	n/a	1	n/a	0	0	0	0.57763671875	0.412841796875	1	upper	zerothre.ttf
606.202	n/a	START	303101	n/a	LTP089	ltpFR	7	n/a	n/a	n/a	n/a	n/a	n/a	n/a	n/a	n/a	n/a	n/a	n/a	n/a	n/a	n/a	n/a
607.26	n/a	PROB	303630	n/a	LTP089	ltpFR	7	n/a	n/a	n/a	n/a	n/a	n/a	n/a	20	7	6	7	n/a	n/a	n/a	n/a	n/a
610.902	n/a	PROB	305451	n/a	LTP089	ltpFR	7	n/a	n/a	n/a	n/a	n/a	n/a	n/a	11	5	5	1	n/a	n/a	n/a	n/a	n/a
614.202	n/a	STOP	307101	n/a	LTP089	ltpFR	7	n/a	n/a	n/a	n/a	n/a	n/a	n/a	n/a	n/a	n/a	n/a	n/a	n/a	n/a	n/a	n/a
615.26	n/a	WORD	307630	wordpools/wasnorm_wordpool.txt	LTP089	ltpFR	7	1	1	CLIMBER	323	n/a	n/a	1	n/a	0	0	0	0.57763671875	0.412841796875	1	upper	zerothre.ttf
618.268	n/a	START	309134	n/a	LTP089	ltpFR	7	n/a	n/a	n/a	n/a	n/a	n/a	n/a	n/a	n/a	n/a	n/a	n/a	n/a	n/a	n/a	n/a
619.102	n/a	PROB	309551	n/a	LTP089	ltpFR	7	n/a	n/a	n/a	n/a	n/a	n/a	n/a	14	6	3	5	n/a	n/a	n/a	n/a	n/a
626.268	n/a	STOP	313134	n/a	LTP089	ltpFR	7	n/a	n/a	n/a	n/a	n/a	n/a	n/a	n/a	n/a	n/a	n/a	n/a	n/a	n/a	n/a	n/a
627.434	n/a	WORD	313717	wordpools/wasnorm_wordpool.txt	LTP089	ltpFR	7	1	1	MAID	856	n/a	n/a	1	n/a	0	0	0	0.57763671875	0.412841796875	1	upper	zerothre.ttf
630.442	n/a	START	315221	n/a	LTP089	ltpFR	7	n/a	n/a	n/a	n/a	n/a	n/a	n/a	n/a	n/a	n/a	n/a	n/a	n/a	n/a	n/a	n/a
631.25	n/a	PROB	315625	n/a	LTP089	ltpFR	7	n/a	n/a	n/a	n/a	n/a	n/a	n/a	14	9	3	3	n/a	n/a	n/a	n/a	n/a
638.444	n/a	STOP	319222	n/a	LTP089	ltpFR	7	n/a	n/a	n/a	n/a	n/a	n/a	n/a	n/a	n/a	n/a	n/a	n/a	n/a	n/a	n/a	n/a
639.392	n/a	WORD	319696	wordpools/wasnorm_wordpool.txt	LTP089	ltpFR	7	1	1	DISH	474	n/a	n/a	0	n/a	0	0	0	0.57763671875	0.412841796875	1	upper	zerothre.ttf
642.392	n/a	START	321196	n/a	LTP089	ltpFR	7	n/a	n/a	n/a	n/a	n/a	n/a	n/a	n/a	n/a	n/a	n/a	n/a	n/a	n/a	n/a	n/a
643.534	n/a	PROB	321767	n/a	LTP089	ltpFR	7	n/a	n/a	n/a	n/a	n/a	n/a	n/a	15	5	6	4	n/a	n/a	n/a	n/a	n/a
646.55	n/a	PROB	323275	n/a	LTP089	ltpFR	7	n/a	n/a	n/a	n/a	n/a	n/a	n/a	19	8	2	9	n/a	n/a	n/a	n/a	n/a
650.392	n/a	STOP	325196	n/a	LTP089	ltpFR	7	n/a	n/a	n/a	n/a	n/a	n/a	n/a	n/a	n/a	n/a	n/a	n/a	n/a	n/a	n/a	n/a
652.118	n/a	REC_START	326059	n/a	LTP089	ltpFR	7	1	n/a	n/a	n/a	n/a	n/a	n/a	n/a	0	0	0	n/a	n/a	n/a	n/a	n/a
655.654	n/a	REC_WORD	327827	wordpools/wasnorm_wordpool.txt	LTP089	ltpFR	7	1	1	CHIMPANZEE	302	n/a	n/a	3	n/a	0	0	0	n/a	n/a	n/a	n/a	n/a
657.72	n/a	REC_WORD_VV	328860	wordpools/wasnorm_wordpool.txt	LTP089	ltpFR	7	1	n/a	<>	-1	n/a	n/a	n/a	n/a	0	0	0	n/a	n/a	n/a	n/a	n/a
658.898	n/a	REC_WORD	329449	wordpools/wasnorm_wordpool.txt	LTP089	ltpFR	7	1	1	UMPIRE	1535	n/a	n/a	1	n/a	0	0	0	n/a	n/a	n/a	n/a	n/a
660.54	n/a	REC_WORD	330270	wordpools/wasnorm_wordpool.txt	LTP089	ltpFR	7	1	1	MEADOW	881	n/a	n/a	0	n/a	0	0	0	n/a	n/a	n/a	n/a	n/a
763.898	n/a	START	381949	n/a	LTP089	ltpFR	7	n/a	n/a	n/a	n/a	n/a	n/a	n/a	n/a	n/a	n/a	n/a	n/a	n/a	n/a	n/a	n/a
765.406	n/a	PROB	382703	n/a	LTP089	ltpFR	7	n/a	n/a	n/a	n/a	n/a	n/a	n/a	16	6	6	4	n/a	n/a	n/a	n/a	n/a
767.598	n/a	PROB	383799	n/a	LTP089	ltpFR	7	n/a	n/a	n/a	n/a	n/a	n/a	n/a	15	4	4	7	n/a	n/a	n/a	n/a	n/a
770.66	n/a	STOP	385330	n/a	LTP089	ltpFR	7	n/a	n/a	n/a	n/a	n/a	n/a	n/a	n/a	n/a	n/a	n/a	n/a	n/a	n/a	n/a	n/a
772.838	n/a	WORD	386419	wordpools/wasnorm_wordpool.txt	LTP089	ltpFR	7	2	1	MAILMAN	858	n/a	n/a	2	n/a	0	0	0	0.57763671875	0.412841796875	1	upper	zerothre.ttf
773.938	n/a	KEY_MSG	386969	n/a	LTP089	ltpFR	7	2	n/a	n/a	n/a	n/a	n/a	n/a	n/a	0	0	0	n/a	n/a	n/a	n/a	n/a
775.848	n/a	START	387924	n/a	LTP089	ltpFR	7	n/a	n/a	n/a	n/a	n/a	n/a	n/a	n/a	n/a	n/a	n/a	n/a	n/a	n/a	n/a	n/a
776.756	n/a	PROB	388378	n/a	LTP089	ltpFR	7	n/a	n/a	n/a	n/a	n/a	n/a	n/a	11	1	9	1	n/a	n/a	n/a	n/a	n/a
778.514	n/a	PROB	389257	n/a	LTP089	ltpFR	7	n/a	n/a	n/a	n/a	n/a	n/a	n/a	14	3	4	8	n/a	n/a	n/a	n/a	n/a
783.318	n/a	STOP	391659	n/a	LTP089	ltpFR	7	n/a	n/a	n/a	n/a	n/a	n/a	n/a	n/a	n/a	n/a	n/a	n/a	n/a	n/a	n/a	n/a
784.864	n/a	WORD	392432	wordpools/wasnorm_wordpool.txt	LTP089	ltpFR	7	2	1	ZUCCHINI	1638	n/a	n/a	0	n/a	0	0	0	0.57763671875	0.412841796875	1	upper	zerothre.ttf
787.872	n/a	START	393936	n/a	LTP089	ltpFR	7	n/a	n/a	n/a	n/a	n/a	n/a	n/a	n/a	n/a	n/a	n/a	n/a	n/a	n/a	n/a	n/a
788.822	n/a	PROB	394411	n/a	LTP089	ltpFR	7	n/a	n/a	n/a	n/a	n/a	n/a	n/a	27	9	9	8	n/a	n/a	n/a	n/a	n/a
795.872	n/a	STOP	397936	n/a	LTP089	ltpFR	7	n/a	n/a	n/a	n/a	n/a	n/a	n/a	n/a	n/a	n/a	n/a	n/a	n/a	n/a	n/a	n/a
796.896	n/a	WORD	398448	wordpools/wasnorm_wordpool.txt	LTP089	ltpFR	7	2	1	GIRAFFE	636	n/a	n/a	1	n/a	0	0	0	0.57763671875	0.412841796875	1	upper	zerothre.ttf
799.906	n/a	START	399953	n/a	LTP089	ltpFR	7	n/a	n/a	n/a	n/a	n/a	n/a	n/a	n/a	n/a	n/a	n/a	n/a	n/a	n/a	n/a	n/a
800.83	n/a	PROB	400415	n/a	LTP089	ltpFR	7	n/a	n/a	n/a	n/a	n/a	n/a	n/a	9	3	2	4	n/a	n/a	n/a	n/a	n/a
805.246	n/a	PROB	402623	n/a	LTP089	ltpFR	7	n/a	n/a	n/a	n/a	n/a	n/a	n/a	13	6	6	1	n/a	n/a	n/a	n/a	n/a
807.23	n/a	STOP	403615	n/a	LTP089	ltpFR	7	n/a	n/a	n/a	n/a	n/a	n/a	n/a	n/a	n/a	n/a	n/a	n/a	n/a	n/a	n/a	n/a
809.004	n/a	WORD	404502	wordpools/wasnorm_wordpool.txt	LTP089	ltpFR	7	2	1	MONSTER	912	n/a	n/a	1	n/a	0	0	0	0.57763671875	0.412841796875	1	upper	zerothre.ttf
812.014	n/a	START	406007	n/a	LTP089	ltpFR	7	n/a	n/a	n/a	n/a	n/a	n/a	n/a	n/a	n/a	n/a	n/a	n/a	n/a	n/a	n/a	n/a
812.93	n/a	PROB	406465	n/a	LTP089	ltpFR	7	n/a	n/a	n/a	n/a	n/a	n/a	n/a	13	5	4	4	n/a	n/a	n/a	n/a	n/a
820.014	n/a	STOP	410007	n/a	LTP089	ltpFR	7	n/a	n/a	n/a	n/a	n/a	n/a	n/a	n/a	n/a	n/a	n/a	n/a	n/a	n/a	n/a	n/a
821.072	n/a	WORD	410536	wordpools/wasnorm_wordpool.txt	LTP089	ltpFR	7	2	1	MEAT	883	n/a	n/a	0	n/a	0	0	0	0.57763671875	0.412841796875	1	upper	zerothre.ttf
824.08	n/a	START	412040	n/a	LTP089	ltpFR	7	n/a	n/a	n/a	n/a	n/a	n/a	n/a	n/a	n/a	n/a	n/a	n/a	n/a	n/a	n/a	n/a
825.246	n/a	PROB	412623	n/a	LTP089	ltpFR	7	n/a	n/a	n/a	n/a	n/a	n/a	n/a	11	3	2	6	n/a	n/a	n/a	n/a	n/a
828.254	n/a	PROB	414127	n/a	LTP089	ltpFR	7	n/a	n/a	n/a	n/a	n/a	n/a	n/a	12	4	3	5	n/a	n/a	n/a	n/a	n/a
831.704	n/a	STOP	415852	n/a	LTP089	ltpFR	7	n/a	n/a	n/a	n/a	n/a	n/a	n/a	n/a	n/a	n/a	n/a	n/a	n/a	n/a	n/a	n/a
832.896	n/a	WORD	416448	wordpools/wasnorm_wordpool.txt	LTP089	ltpFR	7	2	1	EMERALD	528	n/a	n/a	0	n/a	0	0	0	0.57763671875	0.412841796875	1	upper	zerothre.ttf
835.896	n/a	START	417948	n/a	LTP089	ltpFR	7	n/a	n/a	n/a	n/a	n/a	n/a	n/a	n/a	n/a	n/a	n/a	n/a	n/a	n/a	n/a	n/a
836.904	n/a	PROB	418452	n/a	LTP089	ltpFR	7	n/a	n/a	n/a	n/a	n/a	n/a	n/a	14	7	1	6	n/a	n/a	n/a	n/a	n/a
843.898	n/a	STOP	421949	n/a	LTP089	ltpFR	7	n/a	n/a	n/a	n/a	n/a	n/a	n/a	n/a	n/a	n/a	n/a	n/a	n/a	n/a	n/a	n/a
845.088	n/a	WORD	422544	wordpools/wasnorm_wordpool.txt	LTP089	ltpFR	7	2	1	STAR	1373	n/a	n/a	0	n/a	0	0	0	0.57763671875	0.412841796875	1	upper	zerothre.ttf
848.096	n/a	START	424048	n/a	LTP089	ltpFR	7	n/a	n/a	n/a	n/a	n/a	n/a	n/a	n/a	n/a	n/a	n/a	n/a	n/a	n/a	n/a	n/a
849.128	n/a	PROB	424564	n/a	LTP089	ltpFR	7	n/a	n/a	n/a	n/a	n/a	n/a	n/a	21	8	5	8	n/a	n/a	n/a	n/a	n/a
853.186	n/a	PROB	426593	n/a	LTP089	ltpFR	7	n/a	n/a	n/a	n/a	n/a	n/a	n/a	15	1	9	5	n/a	n/a	n/a	n/a	n/a
855.488	n/a	STOP	427744	n/a	LTP089	ltpFR	7	n/a	n/a	n/a	n/a	n/a	n/a	n/a	n/a	n/a	n/a	n/a	n/a	n/a	n/a	n/a	n/a
857.044	n/a	WORD	428522	wordpools/wasnorm_wordpool.txt	LTP089	ltpFR	7	2	1	MOON	914	n/a	n/a	0	n/a	0	0	0	0.57763671875	0.412841796875	1	upper	zerothre.ttf
860.054	n/a	START	430027	n/a	LTP089	ltpFR	7	n/a	n/a	n/a	n/a	n/a	n/a	n/a	n/a	n/a	n/a	n/a	n/a	n/a	n/a	n/a	n/a
860.93	n/a	PROB	430465	n/a	LTP089	ltpFR	7	n/a	n/a	n/a	n/a	n/a	n/a	n/a	19	3	7	9	n/a	n/a	n/a	n/a	n/a
863.078	n/a	PROB	431539	n/a	LTP089	ltpFR	7	n/a	n/a	n/a	n/a	n/a	n/a	n/a	9	3	4	4	n/a	n/a	n/a	n/a	n/a
867.338	n/a	STOP	433669	n/a	LTP089	ltpFR	7	n/a	n/a	n/a	n/a	n/a	n/a	n/a	n/a	n/a	n/a	n/a	n/a	n/a	n/a	n/a	n/a
869.228	n/a	WORD	434614	wordpools/wasnorm_wordpool.txt	LTP089	ltpFR	7	2	1	PATROL	1027	n/a	n/a	0	n/a	0	0	0	0.57763671875	0.412841796875	1	upper	zerothre.ttf
872.236	n/a	START	436118	n/a	LTP089	ltpFR	7	n/a	n/a	n/a	n/a	n/a	n/a	n/a	n/a	n/a	n/a	n/a	n/a	n/a	n/a	n/a	n/a
873.212	n/a	PROB	436606	n/a	LTP089	ltpFR	7	n/a	n/a	n/a	n/a	n/a	n/a	n/a	12	2	8	2	n/a	n/a	n/a	n/a	n/a
874.994	n/a	PROB	437497	n/a	LTP089	ltpFR	7	n/a	n/a	n/a	n/a	n/a	n/a	n/a	19	6	9	4	n/a	n/a	n/a	n/a	n/a
877.888	n/a	PROB	438944	n/a	LTP089	ltpFR	7	n/a	n/a	n/a	n/a	n/a	n/a	n/a	16	6	8	2	n/a	n/a	n/a	n/a	n/a
880.194	n/a	STOP	440097	n/a	LTP089	ltpFR	7	n/a	n/a	n/a	n/a	n/a	n/a	n/a	n/a	n/a	n/a	n/a	n/a	n/a	n/a	n/a	n/a
881.42	n/a	WORD	440710	wordpools/wasnorm_wordpool.txt	LTP089	ltpFR	7	2	1	COLOGNE	347	n/a	n/a	0	n/a	0	0	0	0.57763671875	0.412841796875	1	upper	zerothre.ttf
884.428	n/a	START	442214	n/a	LTP089	ltpFR	7	n/a	n/a	n/a	n/a	n/a	n/a	n/a	n/a	n/a	n/a	n/a	n/a	n/a	n/a	n/a	n/a
885.578	n/a	PROB	442789	n/a	LTP089	ltpFR	7	n/a	n/a	n/a	n/a	n/a	n/a	n/a	13	6	3	4	n/a	n/a	n/a	n/a	n/a
892.428	n/a	STOP	446214	n/a	LTP089	ltpFR	7	n/a	n/a	n/a	n/a	n/a	n/a	n/a	n/a	n/a	n/a	n/a	n/a	n/a	n/a	n/a	n/a
893.352	n/a	WORD	446676	wordpools/wasnorm_wordpool.txt	LTP089	ltpFR	7	2	1	SCRIBBLE	1256	n/a	n/a	0	n/a	0	0	0	0.57763671875	0.412841796875	1	upper	zerothre.ttf
896.362	n/a	START	448181	n/a	LTP089	ltpFR	7	n/a	n/a	n/a	n/a	n/a	n/a	n/a	n/a	n/a	n/a	n/a	n/a	n/a	n/a	n/a	n/a
897.452	n/a	PROB	448726	n/a	LTP089	ltpFR	7	n/a	n/a	n/a	n/a	n/a	n/a	n/a	17	2	7	8	n/a	n/a	n/a	n/a	n/a
900.404	n/a	PROB	450202	n/a	LTP089	ltpFR	7	n/a	n/a	n/a	n/a	n/a	n/a	n/a	15	8	5	2	n/a	n/a	n/a	n/a	n/a
902.152	n/a	PROB	451076	n/a	LTP089	ltpFR	7	n/a	n/a	n/a	n/a	n/a	n/a	n/a	16	4	6	6	n/a	n/a	n/a	n/a	n/a
904.228	n/a	STOP	452114	n/a	LTP089	ltpFR	7	n/a	n/a	n/a	n/a	n/a	n/a	n/a	n/a	n/a	n/a	n/a	n/a	n/a	n/a	n/a	n/a
905.22	n/a	WORD	452610	wordpools/wasnorm_wordpool.txt	LTP089	ltpFR	7	2	1	LOBSTER	837	n/a	n/a	1	n/a	0	0	0	0.57763671875	0.412841796875	1	upper	zerothre.ttf
908.228	n/a	START	454114	n/a	LTP089	ltpFR	7	n/a	n/a	n/a	n/a	n/a	n/a	n/a	n/a	n/a	n/a	n/a	n/a	n/a	n/a	n/a	n/a
909.328	n/a	PROB	454664	n/a	LTP089	ltpFR	7	n/a	n/a	n/a	n/a	n/a	n/a	n/a	14	1	8	5	n/a	n/a	n/a	n/a	n/a
911.744	n/a	PROB	455872	n/a	LTP089	ltpFR	7	n/a	n/a	n/a	n/a	n/a	n/a	n/a	16	6	5	5	n/a	n/a	n/a	n/a	n/a
915.14	n/a	STOP	457570	n/a	LTP089	ltpFR	7	n/a	n/a	n/a	n/a	n/a	n/a	n/a	n/a	n/a	n/a	n/a	n/a	n/a	n/a	n/a	n/a
917.086	n/a	WORD	458543	wordpools/wasnorm_wordpool.txt	LTP089	ltpFR	7	2	1	MEDICINE	886	n/a	n/a	0	n/a	0	0	0	0.57763671875	0.412841796875	1	upper	zerothre.ttf
920.094	n/a	START	460047	n/a	LTP089	ltpFR	7	n/a	n/a	n/a	n/a	n/a	n/a	n/a	n/a	n/a	n/a	n/a	n/a	n/a	n/a	n/a	n/a
921.302	n/a	PROB	460651	n/a	LTP089	ltpFR	7	n/a	n/a	n/a	n/a	n/a	n/a	n/a	10	1	3	6	n/a	n/a	n/a	n/a	n/a
924.01	n/a	PROB	462005	n/a	LTP089	ltpFR	7	n/a	n/a	n/a	n/a	n/a	n/a	n/a	8	1	1	6	n/a	n/a	n/a	n/a	n/a
927.188	n/a	STOP	463594	n/a	LTP089	ltpFR	7	n/a	n/a	n/a	n/a	n/a	n/a	n/a	n/a	n/a	n/a	n/a	n/a	n/a	n/a	n/a	n/a
929.194	n/a	WORD	464597	wordpools/wasnorm_wordpool.txt	LTP089	ltpFR	7	2	1	DRUG	501	n/a	n/a	0	n/a	0	0	0	0.57763671875	0.412841796875	1	upper	zerothre.ttf
932.202	n/a	START	466101	n/a	LTP089	ltpFR	7	n/a	n/a	n/a	n/a	n/a	n/a	n/a	n/a	n/a	n/a	n/a	n/a	n/a	n/a	n/a	n/a
933.31	n/a	PROB	466655	n/a	LTP089	ltpFR	7	n/a	n/a	n/a	n/a	n/a	n/a	n/a	17	4	7	6	n/a	n/a	n/a	n/a	n/a
936.626	n/a	PROB	468313	n/a	LTP089	ltpFR	7	n/a	n/a	n/a	n/a	n/a	n/a	n/a	8	3	4	1	n/a	n/a	n/a	n/a	n/a
939.67	n/a	STOP	469835	n/a	LTP089	ltpFR	7	n/a	n/a	n/a	n/a	n/a	n/a	n/a	n/a	n/a	n/a	n/a	n/a	n/a	n/a	n/a	n/a
941.178	n/a	WORD	470589	wordpools/wasnorm_wordpool.txt	LTP089	ltpFR	7	2	1	BASKET	95	n/a	n/a	0	n/a	0	0	0	0.57763671875	0.412841796875	1	upper	zerothre.ttf
944.186	n/a	START	472093	n/a	LTP089	ltpFR	7	n/a	n/a	n/a	n/a	n/a	n/a	n/a	n/a	n/a	n/a	n/a	n/a	n/a	n/a	n/a	n/a
945.344	n/a	PROB	472672	n/a	LTP089	ltpFR	7	n/a	n/a	n/a	n/a	n/a	n/a	n/a	16	4	3	9	n/a	n/a	n/a	n/a	n/a
952.186	n/a	STOP	476093	n/a	LTP089	ltpFR	7	n/a	n/a	n/a	n/a	n/a	n/a	n/a	n/a	n/a	n/a	n/a	n/a	n/a	n/a	n/a	n/a
953.292	n/a	WORD	476646	wordpools/wasnorm_wordpool.txt	LTP089	ltpFR	7	2	1	STAMP	1370	n/a	n/a	0	n/a	0	0	0	0.57763671875	0.412841796875	1	upper	zerothre.ttf
956.292	n/a	START	478146	n/a	LTP089	ltpFR	7	n/a	n/a	n/a	n/a	n/a	n/a	n/a	n/a	n/a	n/a	n/a	n/a	n/a	n/a	n/a	n/a
957.26	n/a	PROB	478630	n/a	LTP089	ltpFR	7	n/a	n/a	n/a	n/a	n/a	n/a	n/a	17	4	5	8	n/a	n/a	n/a	n/a	n/a
960.502	n/a	PROB	480251	n/a	LTP089	ltpFR	7	n/a	n/a	n/a	n/a	n/a	n/a	n/a	1	4	5	7	n/a	n/a	n/a	n/a	n/a
964.294	n/a	STOP	482147	n/a	LTP089	ltpFR	7	n/a	n/a	n/a	n/a	n/a	n/a	n/a	n/a	n/a	n/a	n/a	n/a	n/a	n/a	n/a	n/a
966.168	n/a	REC_START	483084	n/a	LTP089	ltpFR	7	2	n/a	n/a	n/a	n/a	n/a	n/a	n/a	0	0	0	n/a	n/a	n/a	n/a	n/a
974.244	n/a	REC_WORD	487122	wordpools/wasnorm_wordpool.txt	LTP089	ltpFR	7	2	1	EMERALD	528	n/a	n/a	0	n/a	0	0	0	n/a	n/a	n/a	n/a	n/a
980.412	n/a	REC_WORD	490206	wordpools/wasnorm_wordpool.txt	LTP089	ltpFR	7	2	1	CHIMPANZEE	302	n/a	n/a	3	n/a	0	0	0	n/a	n/a	n/a	n/a	n/a
1110.122	n/a	WORD	555061	wordpools/wasnorm_wordpool.txt	LTP089	ltpFR	7	3	0	DOUGH	489	n/a	n/a	0	n/a	0	0	0	0.422607421875	0.5869140625	0	lower	amplitud.ttf
1114.314	n/a	WORD	557157	wordpools/wasnorm_wordpool.txt	LTP089	ltpFR	7	3	0	BREAD	170	n/a	n/a	0	n/a	0	0	0	0.422607421875	0.5869140625	0	lower	amplitud.ttf
1118.206	n/a	WORD	559103	wordpools/wasnorm_wordpool.txt	LTP089	ltpFR	7	3	0	GRASS	655	n/a	n/a	0	n/a	0	0	0	0.422607421875	0.5869140625	0	lower	amplitud.ttf
1122.08	n/a	WORD	561040	wordpools/wasnorm_wordpool.txt	LTP089	ltpFR	7	3	0	CHECKERS	285	n/a	n/a	0	n/a	0	0	0	0.422607421875	0.5869140625	0	lower	amplitud.ttf
1125.964	n/a	WORD	562982	wordpools/wasnorm_wordpool.txt	LTP089	ltpFR	7	3	0	SPINACH	1352	n/a	n/a	0	n/a	0	0	0	0.422607421875	0.5869140625	0	lower	amplitud.ttf
1130.014	n/a	WORD	565007	wordpools/wasnorm_wordpool.txt	LTP089	ltpFR	7	3	0	SCENERY	1247	n/a	n/a	1	n/a	0	0	0	0.422607421875	0.5869140625	0	lower	amplitud.ttf
1134.222	n/a	WORD	567111	wordpools/wasnorm_wordpool.txt	LTP089	ltpFR	7	3	0	POTATO	1115	n/a	n/a	0	n/a	0	0	0	0.422607421875	0.5869140625	0	lower	amplitud.ttf
1138.038	n/a	WORD	569019	wordpools/wasnorm_wordpool.txt	LTP089	ltpFR	7	3	0	LAKE	796	n/a	n/a	1	n/a	0	0	0	0.422607421875	0.5869140625	0	lower	amplitud.ttf
1142.206	n/a	WORD	571103	wordpools/wasnorm_wordpool.txt	LTP089	ltpFR	7	3	0	LETTUCE	814	n/a	n/a	0	n/a	0	0	0	0.422607421875	0.5869140625	0	lower	amplitud.ttf
1146.08	n/a	WORD	573040	wordpools/wasnorm_wordpool.txt	LTP089	ltpFR	7	3	0	RAZOR	1171	n/a	n/a	0	n/a	0	0	0	0.422607421875	0.5869140625	0	lower	amplitud.ttf
1150.03	n/a	WORD	575015	wordpools/wasnorm_wordpool.txt	LTP089	ltpFR	7	3	0	SPATULA	1348	n/a	n/a	0	n/a	0	0	0	0.422607421875	0.5869140625	0	lower	amplitud.ttf
1154.23	n/a	WORD	577115	wordpools/wasnorm_wordpool.txt	LTP089	ltpFR	7	3	0	OTTER	986	n/a	n/a	0	n/a	0	0	0	0.422607421875	0.5869140625	0	lower	amplitud.ttf
1158.17	n/a	WORD	579085	wordpools/wasnorm_wordpool.txt	LTP089	ltpFR	7	3	0	PRODUCER	1129	n/a	n/a	1	n/a	0	0	0	0.422607421875	0.5869140625	0	lower	amplitud.ttf
1162.288	n/a	WORD	581144	wordpools/wasnorm_wordpool.txt	LTP089	ltpFR	7	3	0	RICE	1190	n/a	n/a	0	n/a	0	0	0	0.422607421875	0.5869140625	0	lower	amplitud.ttf
1166.38	n/a	WORD	583190	wordpools/wasnorm_wordpool.txt	LTP089	ltpFR	7	3	0	TRAY	1498	n/a	n/a	0	n/a	0	0	0	0.422607421875	0.5869140625	0	lower	amplitud.ttf
1170.212	n/a	WORD	585106	wordpools/wasnorm_wordpool.txt	LTP089	ltpFR	7	3	0	BULLY	196	n/a	n/a	1	n/a	0	0	0	0.422607421875	0.5869140625	0	lower	amplitud.ttf
1173.222	n/a	START	586611	n/a	LTP089	ltpFR	7	n/a	n/a	n/a	n/a	n/a	n/a	n/a	n/a	n/a	n/a	n/a	n/a	n/a	n/a	n/a	n/a
1174.32	n/a	PROB	587160	n/a	LTP089	ltpFR	7	n/a	n/a	n/a	n/a	n/a	n/a	n/a	13	5	1	9	n/a	n/a	n/a	n/a	n/a
1178.246	n/a	PROB	589123	n/a	LTP089	ltpFR	7	n/a	n/a	n/a	n/a	n/a	n/a	n/a	13	3	4	6	n/a	n/a	n/a	n/a	n/a
1180.258	n/a	STOP	590129	n/a	LTP089	ltpFR	7	n/a	n/a	n/a	n/a	n/a	n/a	n/a	n/a	n/a	n/a	n/a	n/a	n/a	n/a	n/a	n/a
1183.08	n/a	REC_START	591540	n/a	LTP089	ltpFR	7	3	n/a	n/a	n/a	n/a	n/a	n/a	n/a	0	0	0	n/a	n/a	n/a	n/a	n/a
1187.126	n/a	REC_WORD	593563	wordpools/wasnorm_wordpool.txt	LTP089	ltpFR	7	3	0	BULLY	196	n/a	n/a	1	n/a	0	0	0	n/a	n/a	n/a	n/a	n/a
1187.7	n/a	REC_WORD	593850	wordpools/wasnorm_wordpool.txt	LTP089	ltpFR	7	3	0	GRASS	655	n/a	n/a	0	n/a	0	0	0	n/a	n/a	n/a	n/a	n/a
1188.308	n/a	REC_WORD	594154	wordpools/wasnorm_wordpool.txt	LTP089	ltpFR	7	3	0	PRODUCER	1129	n/a	n/a	1	n/a	0	0	0	n/a	n/a	n/a	n/a	n/a
1189.062	n/a	REC_WORD	594531	wordpools/wasnorm_wordpool.txt	LTP089	ltpFR	7	3	0	TRAY	1498	n/a	n/a	0	n/a	0	0	0	n/a	n/a	n/a	n/a	n/a
1189.99	n/a	REC_WORD	594995	wordpools/wasnorm_wordpool.txt	LTP089	ltpFR	7	3	0	RICE	1190	n/a	n/a	0	n/a	0	0	0	n/a	n/a	n/a	n/a	n/a
1190.582	n/a	REC_WORD	595291	wordpools/wasnorm_wordpool.txt	LTP089	ltpFR	7	3	0	SPINACH	1352	n/a	n/a	0	n/a	0	0	0	n/a	n/a	n/a	n/a	n/a
1191.536	n/a	REC_WORD	595768	wordpools/wasnorm_wordpool.txt	LTP089	ltpFR	7	3	0	DOUGH	489	n/a	n/a	0	n/a	0	0	0	n/a	n/a	n/a	n/a	n/a
1192.214	n/a	REC_WORD	596107	wordpools/wasnorm_wordpool.txt	LTP089	ltpFR	7	3	0	BREAD	170	n/a	n/a	0	n/a	0	0	0	n/a	n/a	n/a	n/a	n/a
1192.922	n/a	REC_WORD	596461	wordpools/wasnorm_wordpool.txt	LTP089	ltpFR	7	3	0	CHECKERS	285	n/a	n/a	0	n/a	0	0	0	n/a	n/a	n/a	n/a	n/a
1195.078	n/a	REC_WORD_VV	597539	wordpools/wasnorm_wordpool.txt	LTP089	ltpFR	7	3	n/a	<>	-1	n/a	n/a	n/a	n/a	0	0	0	n/a	n/a	n/a	n/a	n/a
1195.832	n/a	REC_WORD	597916	wordpools/wasnorm_wordpool.txt	LTP089	ltpFR	7	3	0	SCENERY	1247	n/a	n/a	1	n/a	0	0	0	n/a	n/a	n/a	n/a	n/a
1196.824	n/a	REC_WORD	598412	wordpools/wasnorm_wordpool.txt	LTP089	ltpFR	7	3	0	LAKE	796	n/a	n/a	1	n/a	0	0	0	n/a	n/a	n/a	n/a	n/a
1218.926	n/a	REC_WORD	609463	wordpools/wasnorm_wordpool.txt	LTP089	ltpFR	7	3	0	OTTER	986	n/a	n/a	0	n/a	0	0	0	n/a	n/a	n/a	n/a	n/a
1284.044	n/a	WORD	642022	wordpools/wasnorm_wordpool.txt	LTP089	ltpFR	7	4	0	MOUNTAIN	924	n/a	n/a	1	n/a	0	0	0	0.422607421875	0.5869140625	0	lower	amplitud.ttf
1288.252	n/a	WORD	644126	wordpools/wasnorm_wordpool.txt	LTP089	ltpFR	7	4	0	NEWSPAPER	948	n/a	n/a	0	n/a	0	0	0	0.422607421875	0.5869140625	0	lower	amplitud.ttf
1292.16	n/a	WORD	646080	wordpools/wasnorm_wordpool.txt	LTP089	ltpFR	7	4	0	EYELASH	546	n/a	n/a	0	n/a	0	0	0	0.422607421875	0.5869140625	0	lower	amplitud.ttf
1296.35	n/a	WORD	648175	wordpools/wasnorm_wordpool.txt	LTP089	ltpFR	7	4	0	VALVE	1546	n/a	n/a	0	n/a	0	0	0	0.422607421875	0.5869140625	0	lower	amplitud.ttf
1300.444	n/a	WORD	650222	wordpools/wasnorm_wordpool.txt	LTP089	ltpFR	7	4	0	COOLER	375	n/a	n/a	1	n/a	0	0	0	0.422607421875	0.5869140625	0	lower	amplitud.ttf
1304.61	n/a	WORD	652305	wordpools/wasnorm_wordpool.txt	LTP089	ltpFR	7	4	0	TAVERN	1437	n/a	n/a	0	n/a	0	0	0	0.422607421875	0.5869140625	0	lower	amplitud.ttf
1308.81	n/a	WORD	654405	wordpools/wasnorm_wordpool.txt	LTP089	ltpFR	7	4	0	LENS	811	n/a	n/a	0	n/a	0	0	0	0.422607421875	0.5869140625	0	lower	amplitud.ttf
1312.85	n/a	WORD	656425	wordpools/wasnorm_wordpool.txt	LTP089	ltpFR	7	4	0	VILLAIN	1567	n/a	n/a	1	n/a	0	0	0	0.422607421875	0.5869140625	0	lower	amplitud.ttf
1316.768	n/a	WORD	658384	wordpools/wasnorm_wordpool.txt	LTP089	ltpFR	7	4	0	MARSH	874	n/a	n/a	1	n/a	0	0	0	0.422607421875	0.5869140625	0	lower	amplitud.ttf
1320.926	n/a	WORD	660463	wordpools/wasnorm_wordpool.txt	LTP089	ltpFR	7	4	0	SCOTCH	1251	n/a	n/a	1	n/a	0	0	0	0.422607421875	0.5869140625	0	lower	amplitud.ttf
1324.81	n/a	WORD	662405	wordpools/wasnorm_wordpool.txt	LTP089	ltpFR	7	4	0	SATURN	1236	n/a	n/a	0	n/a	0	0	0	0.422607421875	0.5869140625	0	lower	amplitud.ttf
1328.968	n/a	WORD	664484	wordpools/wasnorm_wordpool.txt	LTP089	ltpFR	7	4	0	SKIRT	1319	n/a	n/a	1	n/a	0	0	0	0.422607421875	0.5869140625	0	lower	amplitud.ttf
1332.966	n/a	WORD	666483	wordpools/wasnorm_wordpool.txt	LTP089	ltpFR	7	4	0	SUIT	1402	n/a	n/a	1	n/a	0	0	0	0.422607421875	0.5869140625	0	lower	amplitud.ttf
1336.884	n/a	WORD	668442	wordpools/wasnorm_wordpool.txt	LTP089	ltpFR	7	4	0	EDITOR	516	n/a	n/a	1	n/a	0	0	0	0.422607421875	0.5869140625	0	lower	amplitud.ttf
1340.75	n/a	WORD	670375	wordpools/wasnorm_wordpool.txt	LTP089	ltpFR	7	4	0	HEEL	700	n/a	n/a	1	n/a	0	0	0	0.422607421875	0.5869140625	0	lower	amplitud.ttf
1344.85	n/a	WORD	672425	wordpools/wasnorm_wordpool.txt	LTP089	ltpFR	7	4	0	FUNGUS	614	n/a	n/a	1	n/a	0	0	0	0.422607421875	0.5869140625	0	lower	amplitud.ttf
1347.858	n/a	START	673929	n/a	LTP089	ltpFR	7	n/a	n/a	n/a	n/a	n/a	n/a	n/a	n/a	n/a	n/a	n/a	n/a	n/a	n/a	n/a	n/a
1348.926	n/a	PROB	674463	n/a	LTP089	ltpFR	7	n/a	n/a	n/a	n/a	n/a	n/a	n/a	16	2	8	6	n/a	n/a	n/a	n/a	n/a
1351.258	n/a	PROB	675629	n/a	LTP089	ltpFR	7	n/a	n/a	n/a	n/a	n/a	n/a	n/a	5	2	2	1	n/a	n/a	n/a	n/a	n/a
1352.708	n/a	PROB	676354	n/a	LTP089	ltpFR	7	n/a	n/a	n/a	n/a	n/a	n/a	n/a	12	2	9	1	n/a	n/a	n/a	n/a	n/a
1354.698	n/a	STOP	677349	n/a	LTP089	ltpFR	7	n/a	n/a	n/a	n/a	n/a	n/a	n/a	n/a	n/a	n/a	n/a	n/a	n/a	n/a	n/a	n/a
1357.634	n/a	REC_START	678817	n/a	LTP089	ltpFR	7	4	n/a	n/a	n/a	n/a	n/a	n/a	n/a	0	0	0	n/a	n/a	n/a	n/a	n/a
1361.566	n/a	REC_WORD	680783	wordpools/wasnorm_wordpool.txt	LTP089	ltpFR	7	4	0	FUNGUS	614	n/a	n/a	1	n/a	0	0	0	n/a	n/a	n/a	n/a	n/a
1362.026	n/a	REC_WORD	681013	wordpools/wasnorm_wordpool.txt	LTP089	ltpFR	7	4	0	NEWSPAPER	948	n/a	n/a	0	n/a	0	0	0	n/a	n/a	n/a	n/a	n/a
1362.77	n/a	REC_WORD	681385	wordpools/wasnorm_wordpool.txt	LTP089	ltpFR	7	4	0	MOUNTAIN	924	n/a	n/a	1	n/a	0	0	0	n/a	n/a	n/a	n/a	n/a
1364.224	n/a	REC_WORD_VV	682112	wordpools/wasnorm_wordpool.txt	LTP089	ltpFR	7	4	n/a	<>	-1	n/a	n/a	n/a	n/a	0	0	0	n/a	n/a	n/a	n/a	n/a
1370.002	n/a	REC_WORD	685001	wordpools/wasnorm_wordpool.txt	LTP089	ltpFR	7	4	0	SUIT	1402	n/a	n/a	1	n/a	0	0	0	n/a	n/a	n/a	n/a	n/a
1370.714	n/a	REC_WORD	685357	wordpools/wasnorm_wordpool.txt	LTP089	ltpFR	7	4	0	SKIRT	1319	n/a	n/a	1	n/a	0	0	0	n/a	n/a	n/a	n/a	n/a
1466.298	n/a	WORD	733149	wordpools/wasnorm_wordpool.txt	LTP089	ltpFR	7	5	0	SQUID	1361	n/a	n/a	1	n/a	0	0	0	0.422607421875	0.5869140625	0	lower	amplitud.ttf
1470.264	n/a	WORD	735132	wordpools/wasnorm_wordpool.txt	LTP089	ltpFR	7	5	0	CRAB	397	n/a	n/a	1	n/a	0	0	0	0.422607421875	0.5869140625	0	lower	amplitud.ttf
1474.42	n/a	WORD	737210	wordpools/wasnorm_wordpool.txt	LTP089	ltpFR	7	5	0	LADY	794	n/a	n/a	1	n/a	0	0	0	0.422607421875	0.5869140625	0	lower	amplitud.ttf
1478.48	n/a	WORD	739240	wordpools/wasnorm_wordpool.txt	LTP089	ltpFR	7	5	0	LIZARD	834	n/a	n/a	1	n/a	0	0	0	0.422607421875	0.5869140625	0	lower	amplitud.ttf
1482.53	n/a	WORD	741265	wordpools/wasnorm_wordpool.txt	LTP089	ltpFR	7	5	0	LAGOON	795	n/a	n/a	1	n/a	0	0	0	0.422607421875	0.5869140625	0	lower	amplitud.ttf
1486.706	n/a	WORD	743353	wordpools/wasnorm_wordpool.txt	LTP089	ltpFR	7	5	0	NOOSE	956	n/a	n/a	1	n/a	0	0	0	0.422607421875	0.5869140625	0	lower	amplitud.ttf
1490.622	n/a	WORD	745311	wordpools/wasnorm_wordpool.txt	LTP089	ltpFR	7	5	0	GOOSE	649	n/a	n/a	1	n/a	0	0	0	0.422607421875	0.5869140625	0	lower	amplitud.ttf
1494.538	n/a	WORD	747269	wordpools/wasnorm_wordpool.txt	LTP089	ltpFR	7	5	0	WRITER	1627	n/a	n/a	1	n/a	0	0	0	0.422607421875	0.5869140625	0	lower	amplitud.ttf
1498.62	n/a	WORD	749310	wordpools/wasnorm_wordpool.txt	LTP089	ltpFR	7	5	0	TUB	1514	n/a	n/a	1	n/a	0	0	0	0.422607421875	0.5869140625	0	lower	amplitud.ttf
1502.572	n/a	WORD	751286	wordpools/wasnorm_wordpool.txt	LTP089	ltpFR	7	5	0	HONEY	713	n/a	n/a	1	n/a	0	0	0	0.422607421875	0.5869140625	0	lower	amplitud.ttf
1506.712	n/a	WORD	753356	wordpools/wasnorm_wordpool.txt	LTP089	ltpFR	7	5	0	RAIL	1161	n/a	n/a	1	n/a	0	0	0	0.422607421875	0.5869140625	0	lower	amplitud.ttf
1510.662	n/a	WORD	755331	wordpools/wasnorm_wordpool.txt	LTP089	ltpFR	7	5	0	BILL	126	n/a	n/a	1	n/a	0	0	0	0.422607421875	0.5869140625	0	lower	amplitud.ttf
1514.762	n/a	WORD	757381	wordpools/wasnorm_wordpool.txt	LTP089	ltpFR	7	5	0	TELEPHONE	1445	n/a	n/a	1	n/a	0	0	0	0.422607421875	0.5869140625	0	lower	amplitud.ttf
1518.628	n/a	WORD	759314	wordpools/wasnorm_wordpool.txt	LTP089	ltpFR	7	5	0	BOULEVARD	156	n/a	n/a	1	n/a	0	0	0	0.422607421875	0.5869140625	0	lower	amplitud.ttf
1522.522	n/a	WORD	761261	wordpools/wasnorm_wordpool.txt	LTP089	ltpFR	7	5	0	LIST	830	n/a	n/a	0	n/a	0	0	0	0.422607421875	0.5869140625	0	lower	amplitud.ttf
1526.688	n/a	WORD	763344	wordpools/wasnorm_wordpool.txt	LTP089	ltpFR	7	5	0	DAISY	435	n/a	n/a	0	n/a	0	0	0	0.422607421875	0.5869140625	0	lower	amplitud.ttf
1529.696	n/a	START	764848	n/a	LTP089	ltpFR	7	n/a	n/a	n/a	n/a	n/a	n/a	n/a	n/a	n/a	n/a	n/a	n/a	n/a	n/a	n/a	n/a
1530.688	n/a	PROB	765344	n/a	LTP089	ltpFR	7	n/a	n/a	n/a	n/a	n/a	n/a	n/a	12	2	4	6	n/a	n/a	n/a	n/a	n/a
1533.054	n/a	PROB	766527	n/a	LTP089	ltpFR	7	n/a	n/a	n/a	n/a	n/a	n/a	n/a	21	9	6	6	n/a	n/a	n/a	n/a	n/a
1536.642	n/a	STOP	768321	n/a	LTP089	ltpFR	7	n/a	n/a	n/a	n/a	n/a	n/a	n/a	n/a	n/a	n/a	n/a	n/a	n/a	n/a	n/a	n/a
1539.554	n/a	REC_START	769777	n/a	LTP089	ltpFR	7	5	n/a	n/a	n/a	n/a	n/a	n/a	n/a	0	0	0	n/a	n/a	n/a	n/a	n/a
1543.994	n/a	REC_WORD	771997	wordpools/wasnorm_wordpool.txt	LTP089	ltpFR	7	5	0	LIST	830	n/a	n/a	0	n/a	0	0	0	n/a	n/a	n/a	n/a	n/a
1544.798	n/a	REC_WORD	772399	wordpools/wasnorm_wordpool.txt	LTP089	ltpFR	7	5	0	BOULEVARD	156	n/a	n/a	1	n/a	0	0	0	n/a	n/a	n/a	n/a	n/a
1545.746	n/a	REC_WORD	772873	wordpools/wasnorm_wordpool.txt	LTP089	ltpFR	7	5	0	BILL	126	n/a	n/a	1	n/a	0	0	0	n/a	n/a	n/a	n/a	n/a
1624.386	n/a	START	812193	n/a	LTP089	ltpFR	7	n/a	n/a	n/a	n/a	n/a	n/a	n/a	n/a	n/a	n/a	n/a	n/a	n/a	n/a	n/a	n/a
1625.894	n/a	PROB	812947	n/a	LTP089	ltpFR	7	n/a	n/a	n/a	n/a	n/a	n/a	n/a	17	1	7	9	n/a	n/a	n/a	n/a	n/a
1630.952	n/a	PROB	815476	n/a	LTP089	ltpFR	7	n/a	n/a	n/a	n/a	n/a	n/a	n/a	15	3	6	6	n/a	n/a	n/a	n/a	n/a
1634.184	n/a	PROB	817092	n/a	LTP089	ltpFR	7	n/a	n/a	n/a	n/a	n/a	n/a	n/a	22	4	9	9	n/a	n/a	n/a	n/a	n/a
1640.386	n/a	STOP	820193	n/a	LTP089	ltpFR	7	n/a	n/a	n/a	n/a	n/a	n/a	n/a	n/a	n/a	n/a	n/a	n/a	n/a	n/a	n/a	n/a
1641.368	n/a	WORD	820684	wordpools/wasnorm_wordpool.txt	LTP089	ltpFR	7	6	0	HARE	688	n/a	n/a	1	n/a	0	0	0	0.422607421875	0.5869140625	0	lower	amplitud.ttf
1644.376	n/a	START	822188	n/a	LTP089	ltpFR	7	n/a	n/a	n/a	n/a	n/a	n/a	n/a	n/a	n/a	n/a	n/a	n/a	n/a	n/a	n/a	n/a
1645.352	n/a	PROB	822676	n/a	LTP089	ltpFR	7	n/a	n/a	n/a	n/a	n/a	n/a	n/a	7	5	1	1	n/a	n/a	n/a	n/a	n/a
1647.534	n/a	PROB	823767	n/a	LTP089	ltpFR	7	n/a	n/a	n/a	n/a	n/a	n/a	n/a	23	9	6	9	n/a	n/a	n/a	n/a	n/a
1653.3	n/a	PROB	826650	n/a	LTP089	ltpFR	7	n/a	n/a	n/a	n/a	n/a	n/a	n/a	15	2	7	6	n/a	n/a	n/a	n/a	n/a
1657.308	n/a	PROB	828654	n/a	LTP089	ltpFR	7	n/a	n/a	n/a	n/a	n/a	n/a	n/a	19	8	8	3	n/a	n/a	n/a	n/a	n/a
1659.504	n/a	STOP	829752	n/a	LTP089	ltpFR	7	n/a	n/a	n/a	n/a	n/a	n/a	n/a	n/a	n/a	n/a	n/a	n/a	n/a	n/a	n/a	n/a
1661.284	n/a	WORD	830642	wordpools/wasnorm_wordpool.txt	LTP089	ltpFR	7	6	0	FACTORY	548	n/a	n/a	1	n/a	0	0	0	0.422607421875	0.5869140625	0	lower	amplitud.ttf
1664.294	n/a	START	832147	n/a	LTP089	ltpFR	7	n/a	n/a	n/a	n/a	n/a	n/a	n/a	n/a	n/a	n/a	n/a	n/a	n/a	n/a	n/a	n/a
1665.176	n/a	PROB	832588	n/a	LTP089	ltpFR	7	n/a	n/a	n/a	n/a	n/a	n/a	n/a	18	6	3	9	n/a	n/a	n/a	n/a	n/a
1670.984	n/a	PROB	835492	n/a	LTP089	ltpFR	7	n/a	n/a	n/a	n/a	n/a	n/a	n/a	20	7	4	9	n/a	n/a	n/a	n/a	n/a
1675.026	n/a	PROB	837513	n/a	LTP089	ltpFR	7	n/a	n/a	n/a	n/a	n/a	n/a	n/a	10	1	7	2	n/a	n/a	n/a	n/a	n/a
1677.308	n/a	PROB	838654	n/a	LTP089	ltpFR	7	n/a	n/a	n/a	n/a	n/a	n/a	n/a	23	5	9	9	n/a	n/a	n/a	n/a	n/a
1679.786	n/a	STOP	839893	n/a	LTP089	ltpFR	7	n/a	n/a	n/a	n/a	n/a	n/a	n/a	n/a	n/a	n/a	n/a	n/a	n/a	n/a	n/a	n/a
1681.292	n/a	WORD	840646	wordpools/wasnorm_wordpool.txt	LTP089	ltpFR	7	6	0	HOE	711	n/a	n/a	0	n/a	0	0	0	0.422607421875	0.5869140625	0	lower	amplitud.ttf
1684.3	n/a	START	842150	n/a	LTP089	ltpFR	7	n/a	n/a	n/a	n/a	n/a	n/a	n/a	n/a	n/a	n/a	n/a	n/a	n/a	n/a	n/a	n/a
1685.2	n/a	PROB	842600	n/a	LTP089	ltpFR	7	n/a	n/a	n/a	n/a	n/a	n/a	n/a	12	6	2	4	n/a	n/a	n/a	n/a	n/a
1687.158	n/a	PROB	843579	n/a	LTP089	ltpFR	7	n/a	n/a	n/a	n/a	n/a	n/a	n/a	13	3	7	3	n/a	n/a	n/a	n/a	n/a
1689.0	n/a	PROB	844500	n/a	LTP089	ltpFR	7	n/a	n/a	n/a	n/a	n/a	n/a	n/a	12	1	2	9	n/a	n/a	n/a	n/a	n/a
1691.074	n/a	PROB	845537	n/a	LTP089	ltpFR	7	n/a	n/a	n/a	n/a	n/a	n/a	n/a	21	6	7	8	n/a	n/a	n/a	n/a	n/a
1695.532	n/a	PROB	847766	n/a	LTP089	ltpFR	7	n/a	n/a	n/a	n/a	n/a	n/a	n/a	11	1	1	8	n/a	n/a	n/a	n/a	n/a
1700.302	n/a	STOP	850151	n/a	LTP089	ltpFR	7	n/a	n/a	n/a	n/a	n/a	n/a	n/a	n/a	n/a	n/a	n/a	n/a	n/a	n/a	n/a	n/a
1701.116	n/a	WORD	850558	wordpools/wasnorm_wordpool.txt	LTP089	ltpFR	7	6	0	LEOPARD	812	n/a	n/a	0	n/a	0	0	0	0.422607421875	0.5869140625	0	lower	amplitud.ttf
1704.118	n/a	START	852059	n/a	LTP089	ltpFR	7	n/a	n/a	n/a	n/a	n/a	n/a	n/a	n/a	n/a	n/a	n/a	n/a	n/a	n/a	n/a	n/a
1705.074	n/a	PROB	852537	n/a	LTP089	ltpFR	7	n/a	n/a	n/a	n/a	n/a	n/a	n/a	17	1	7	9	n/a	n/a	n/a	n/a	n/a
1708.1	n/a	PROB	854050	n/a	LTP089	ltpFR	7	n/a	n/a	n/a	n/a	n/a	n/a	n/a	11	2	3	6	n/a	n/a	n/a	n/a	n/a
1711.882	n/a	PROB	855941	n/a	LTP089	ltpFR	7	n/a	n/a	n/a	n/a	n/a	n/a	n/a	17	2	6	9	n/a	n/a	n/a	n/a	n/a
1715.832	n/a	PROB	857916	n/a	LTP089	ltpFR	7	n/a	n/a	n/a	n/a	n/a	n/a	n/a	18	8	1	7	n/a	n/a	n/a	n/a	n/a
1719.444	n/a	STOP	859722	n/a	LTP089	ltpFR	7	n/a	n/a	n/a	n/a	n/a	n/a	n/a	n/a	n/a	n/a	n/a	n/a	n/a	n/a	n/a	n/a
1721.242	n/a	WORD	860621	wordpools/wasnorm_wordpool.txt	LTP089	ltpFR	7	6	0	CLASS	318	n/a	n/a	0	n/a	0	0	0	0.422607421875	0.5869140625	0	lower	amplitud.ttf
1724.25	n/a	START	862125	n/a	LTP089	ltpFR	7	n/a	n/a	n/a	n/a	n/a	n/a	n/a	n/a	n/a	n/a	n/a	n/a	n/a	n/a	n/a	n/a
1725.066	n/a	PROB	862533	n/a	LTP089	ltpFR	7	n/a	n/a	n/a	n/a	n/a	n/a	n/a	5	3	1	1	n/a	n/a	n/a	n/a	n/a
1726.616	n/a	PROB	863308	n/a	LTP089	ltpFR	7	n/a	n/a	n/a	n/a	n/a	n/a	n/a	20	4	9	7	n/a	n/a	n/a	n/a	n/a
1729.682	n/a	PROB	864841	n/a	LTP089	ltpFR	7	n/a	n/a	n/a	n/a	n/a	n/a	n/a	9	2	6	1	n/a	n/a	n/a	n/a	n/a
1732.766	n/a	PROB	866383	n/a	LTP089	ltpFR	7	n/a	n/a	n/a	n/a	n/a	n/a	n/a	17	6	7	4	n/a	n/a	n/a	n/a	n/a
1735.832	n/a	PROB	867916	n/a	LTP089	ltpFR	7	n/a	n/a	n/a	n/a	n/a	n/a	n/a	17	6	1	9	n/a	n/a	n/a	n/a	n/a
1739.404	n/a	STOP	869702	n/a	LTP089	ltpFR	7	n/a	n/a	n/a	n/a	n/a	n/a	n/a	n/a	n/a	n/a	n/a	n/a	n/a	n/a	n/a	n/a
1741.29	n/a	WORD	870645	wordpools/wasnorm_wordpool.txt	LTP089	ltpFR	7	6	0	NOTEBOOK	959	n/a	n/a	0	n/a	0	0	0	0.422607421875	0.5869140625	0	lower	amplitud.ttf
1744.3	n/a	START	872150	n/a	LTP089	ltpFR	7	n/a	n/a	n/a	n/a	n/a	n/a	n/a	n/a	n/a	n/a	n/a	n/a	n/a	n/a	n/a	n/a
1745.116	n/a	PROB	872558	n/a	LTP089	ltpFR	7	n/a	n/a	n/a	n/a	n/a	n/a	n/a	24	9	6	9	n/a	n/a	n/a	n/a	n/a
1750.724	n/a	PROB	875362	n/a	LTP089	ltpFR	7	n/a	n/a	n/a	n/a	n/a	n/a	n/a	16	8	1	7	n/a	n/a	n/a	n/a	n/a
1753.19	n/a	PROB	876595	n/a	LTP089	ltpFR	7	n/a	n/a	n/a	n/a	n/a	n/a	n/a	21	9	3	9	n/a	n/a	n/a	n/a	n/a
1760.3	n/a	STOP	880150	n/a	LTP089	ltpFR	7	n/a	n/a	n/a	n/a	n/a	n/a	n/a	n/a	n/a	n/a	n/a	n/a	n/a	n/a	n/a	n/a
1761.182	n/a	WORD	880591	wordpools/wasnorm_wordpool.txt	LTP089	ltpFR	7	6	0	BEAVER	109	n/a	n/a	0	n/a	0	0	0	0.422607421875	0.5869140625	0	lower	amplitud.ttf
1764.19	n/a	START	882095	n/a	LTP089	ltpFR	7	n/a	n/a	n/a	n/a	n/a	n/a	n/a	n/a	n/a	n/a	n/a	n/a	n/a	n/a	n/a	n/a
1765.232	n/a	PROB	882616	n/a	LTP089	ltpFR	7	n/a	n/a	n/a	n/a	n/a	n/a	n/a	25	8	8	9	n/a	n/a	n/a	n/a	n/a
1773.032	n/a	PROB	886516	n/a	LTP089	ltpFR	7	n/a	n/a	n/a	n/a	n/a	n/a	n/a	14	6	1	7	n/a	n/a	n/a	n/a	n/a
1775.83	n/a	PROB	887915	n/a	LTP089	ltpFR	7	n/a	n/a	n/a	n/a	n/a	n/a	n/a	14	5	2	7	n/a	n/a	n/a	n/a	n/a
1780.192	n/a	STOP	890096	n/a	LTP089	ltpFR	7	n/a	n/a	n/a	n/a	n/a	n/a	n/a	n/a	n/a	n/a	n/a	n/a	n/a	n/a	n/a	n/a
1781.314	n/a	WORD	890657	wordpools/wasnorm_wordpool.txt	LTP089	ltpFR	7	6	0	SUPERMARKET	1409	n/a	n/a	0	n/a	0	0	0	0.422607421875	0.5869140625	0	lower	amplitud.ttf
1784.324	n/a	START	892162	n/a	LTP089	ltpFR	7	n/a	n/a	n/a	n/a	n/a	n/a	n/a	n/a	n/a	n/a	n/a	n/a	n/a	n/a	n/a	n/a
1785.298	n/a	PROB	892649	n/a	LTP089	ltpFR	7	n/a	n/a	n/a	n/a	n/a	n/a	n/a	12	3	6	3	n/a	n/a	n/a	n/a	n/a
1787.956	n/a	PROB	893978	n/a	LTP089	ltpFR	7	n/a	n/a	n/a	n/a	n/a	n/a	n/a	12	6	5	1	n/a	n/a	n/a	n/a	n/a
1790.222	n/a	PROB	895111	n/a	LTP089	ltpFR	7	n/a	n/a	n/a	n/a	n/a	n/a	n/a	16	5	3	8	n/a	n/a	n/a	n/a	n/a
1795.28	n/a	PROB	897640	n/a	LTP089	ltpFR	7	n/a	n/a	n/a	n/a	n/a	n/a	n/a	17	9	2	6	n/a	n/a	n/a	n/a	n/a
1800.324	n/a	STOP	900162	n/a	LTP089	ltpFR	7	n/a	n/a	n/a	n/a	n/a	n/a	n/a	n/a	n/a	n/a	n/a	n/a	n/a	n/a	n/a	n/a
1801.49	n/a	WORD	900745	wordpools/wasnorm_wordpool.txt	LTP089	ltpFR	7	6	0	ARM	38	n/a	n/a	0	n/a	0	0	0	0.422607421875	0.5869140625	0	lower	amplitud.ttf
1804.498	n/a	START	902249	n/a	LTP089	ltpFR	7	n/a	n/a	n/a	n/a	n/a	n/a	n/a	n/a	n/a	n/a	n/a	n/a	n/a	n/a	n/a	n/a
1805.53	n/a	PROB	902765	n/a	LTP089	ltpFR	7	n/a	n/a	n/a	n/a	n/a	n/a	n/a	8	5	1	2	n/a	n/a	n/a	n/a	n/a
1809.206	n/a	PROB	904603	n/a	LTP089	ltpFR	7	n/a	n/a	n/a	n/a	n/a	n/a	n/a	21	8	8	5	n/a	n/a	n/a	n/a	n/a
1812.78	n/a	PROB	906390	n/a	LTP089	ltpFR	7	n/a	n/a	n/a	n/a	n/a	n/a	n/a	13	2	4	7	n/a	n/a	n/a	n/a	n/a
1815.914	n/a	PROB	907957	n/a	LTP089	ltpFR	7	n/a	n/a	n/a	n/a	n/a	n/a	n/a	16	8	4	4	n/a	n/a	n/a	n/a	n/a
1820.498	n/a	STOP	910249	n/a	LTP089	ltpFR	7	n/a	n/a	n/a	n/a	n/a	n/a	n/a	n/a	n/a	n/a	n/a	n/a	n/a	n/a	n/a	n/a
1821.622	n/a	WORD	910811	wordpools/wasnorm_wordpool.txt	LTP089	ltpFR	7	6	0	CARROT	249	n/a	n/a	0	n/a	0	0	0	0.422607421875	0.5869140625	0	lower	amplitud.ttf
1824.63	n/a	START	912315	n/a	LTP089	ltpFR	7	n/a	n/a	n/a	n/a	n/a	n/a	n/a	n/a	n/a	n/a	n/a	n/a	n/a	n/a	n/a	n/a
1825.822	n/a	PROB	912911	n/a	LTP089	ltpFR	7	n/a	n/a	n/a	n/a	n/a	n/a	n/a	13	4	1	8	n/a	n/a	n/a	n/a	n/a
1828.814	n/a	PROB	914407	n/a	LTP089	ltpFR	7	n/a	n/a	n/a	n/a	n/a	n/a	n/a	11	7	2	2	n/a	n/a	n/a	n/a	n/a
1830.914	n/a	PROB	915457	n/a	LTP089	ltpFR	7	n/a	n/a	n/a	n/a	n/a	n/a	n/a	7	1	5	1	n/a	n/a	n/a	n/a	n/a
1833.538	n/a	PROB	916769	n/a	LTP089	ltpFR	7	n/a	n/a	n/a	n/a	n/a	n/a	n/a	17	6	4	7	n/a	n/a	n/a	n/a	n/a
1835.604	n/a	PROB	917802	n/a	LTP089	ltpFR	7	n/a	n/a	n/a	n/a	n/a	n/a	n/a	12	1	2	9	n/a	n/a	n/a	n/a	n/a
1838.046	n/a	PROB	919023	n/a	LTP089	ltpFR	7	n/a	n/a	n/a	n/a	n/a	n/a	n/a	9	4	4	1	n/a	n/a	n/a	n/a	n/a
1840.186	n/a	STOP	920093	n/a	LTP089	ltpFR	7	n/a	n/a	n/a	n/a	n/a	n/a	n/a	n/a	n/a	n/a	n/a	n/a	n/a	n/a	n/a	n/a
1841.572	n/a	WORD	920786	wordpools/wasnorm_wordpool.txt	LTP089	ltpFR	7	6	0	VISITOR	1573	n/a	n/a	0	n/a	0	0	0	0.422607421875	0.5869140625	0	lower	amplitud.ttf
1844.58	n/a	START	922290	n/a	LTP089	ltpFR	7	n/a	n/a	n/a	n/a	n/a	n/a	n/a	n/a	n/a	n/a	n/a	n/a	n/a	n/a	n/a	n/a
1845.73	n/a	PROB	922865	n/a	LTP089	ltpFR	7	n/a	n/a	n/a	n/a	n/a	n/a	n/a	11	2	1	8	n/a	n/a	n/a	n/a	n/a
1847.796	n/a	PROB	923898	n/a	LTP089	ltpFR	7	n/a	n/a	n/a	n/a	n/a	n/a	n/a	16	2	7	7	n/a	n/a	n/a	n/a	n/a
1849.846	n/a	PROB	924923	n/a	LTP089	ltpFR	7	n/a	n/a	n/a	n/a	n/a	n/a	n/a	17	5	5	7	n/a	n/a	n/a	n/a	n/a
1853.304	n/a	PROB	926652	n/a	LTP089	ltpFR	7	n/a	n/a	n/a	n/a	n/a	n/a	n/a	8	6	1	1	n/a	n/a	n/a	n/a	n/a
1855.488	n/a	PROB	927744	n/a	LTP089	ltpFR	7	n/a	n/a	n/a	n/a	n/a	n/a	n/a	15	5	2	8	n/a	n/a	n/a	n/a	n/a
1860.582	n/a	STOP	930291	n/a	LTP089	ltpFR	7	n/a	n/a	n/a	n/a	n/a	n/a	n/a	n/a	n/a	n/a	n/a	n/a	n/a	n/a	n/a	n/a
1861.672	n/a	WORD	930836	wordpools/wasnorm_wordpool.txt	LTP089	ltpFR	7	6	0	PORT	1110	n/a	n/a	0	n/a	0	0	0	0.422607421875	0.5869140625	0	lower	amplitud.ttf
1864.68	n/a	START	932340	n/a	LTP089	ltpFR	7	n/a	n/a	n/a	n/a	n/a	n/a	n/a	n/a	n/a	n/a	n/a	n/a	n/a	n/a	n/a	n/a
1865.562	n/a	PROB	932781	n/a	LTP089	ltpFR	7	n/a	n/a	n/a	n/a	n/a	n/a	n/a	17	8	2	7	n/a	n/a	n/a	n/a	n/a
1867.462	n/a	PROB	933731	n/a	LTP089	ltpFR	7	n/a	n/a	n/a	n/a	n/a	n/a	n/a	19	4	7	8	n/a	n/a	n/a	n/a	n/a
1870.646	n/a	PROB	935323	n/a	LTP089	ltpFR	7	n/a	n/a	n/a	n/a	n/a	n/a	n/a	14	5	7	2	n/a	n/a	n/a	n/a	n/a
1874.736	n/a	PROB	937368	n/a	LTP089	ltpFR	7	n/a	n/a	n/a	n/a	n/a	n/a	n/a	16	4	3	9	n/a	n/a	n/a	n/a	n/a
1877.612	n/a	PROB	938806	n/a	LTP089	ltpFR	7	n/a	n/a	n/a	n/a	n/a	n/a	n/a	14	4	1	9	n/a	n/a	n/a	n/a	n/a
1879.636	n/a	STOP	939818	n/a	LTP089	ltpFR	7	n/a	n/a	n/a	n/a	n/a	n/a	n/a	n/a	n/a	n/a	n/a	n/a	n/a	n/a	n/a	n/a
1881.812	n/a	WORD	940906	wordpools/wasnorm_wordpool.txt	LTP089	ltpFR	7	6	0	TIMBER	1469	n/a	n/a	0	n/a	0	0	0	0.422607421875	0.5869140625	0	lower	amplitud.ttf
1884.82	n/a	START	942410	n/a	LTP089	ltpFR	7	n/a	n/a	n/a	n/a	n/a	n/a	n/a	n/a	n/a	n/a	n/a	n/a	n/a	n/a	n/a	n/a
1885.838	n/a	PROB	942919	n/a	LTP089	ltpFR	7	n/a	n/a	n/a	n/a	n/a	n/a	n/a	9	6	1	2	n/a	n/a	n/a	n/a	n/a
1889.254	n/a	PROB	944627	n/a	LTP089	ltpFR	7	n/a	n/a	n/a	n/a	n/a	n/a	n/a	23	7	9	7	n/a	n/a	n/a	n/a	n/a
1893.936	n/a	PROB	946968	n/a	LTP089	ltpFR	7	n/a	n/a	n/a	n/a	n/a	n/a	n/a	12	2	3	7	n/a	n/a	n/a	n/a	n/a
1900.822	n/a	STOP	950411	n/a	LTP089	ltpFR	7	n/a	n/a	n/a	n/a	n/a	n/a	n/a	n/a	n/a	n/a	n/a	n/a	n/a	n/a	n/a	n/a
1902.004	n/a	WORD	951002	wordpools/wasnorm_wordpool.txt	LTP089	ltpFR	7	6	0	SHRUB	1299	n/a	n/a	0	n/a	0	0	0	0.422607421875	0.5869140625	0	lower	amplitud.ttf
1905.012	n/a	START	952506	n/a	LTP089	ltpFR	7	n/a	n/a	n/a	n/a	n/a	n/a	n/a	n/a	n/a	n/a	n/a	n/a	n/a	n/a	n/a	n/a
1906.178	n/a	PROB	953089	n/a	LTP089	ltpFR	7	n/a	n/a	n/a	n/a	n/a	n/a	n/a	17	8	3	6	n/a	n/a	n/a	n/a	n/a
1911.212	n/a	PROB	955606	n/a	LTP089	ltpFR	7	n/a	n/a	n/a	n/a	n/a	n/a	n/a	19	8	6	5	n/a	n/a	n/a	n/a	n/a
1914.686	n/a	PROB	957343	n/a	LTP089	ltpFR	7	n/a	n/a	n/a	n/a	n/a	n/a	n/a	23	5	7	9	n/a	n/a	n/a	n/a	n/a
1920.038	n/a	STOP	960019	n/a	LTP089	ltpFR	7	n/a	n/a	n/a	n/a	n/a	n/a	n/a	n/a	n/a	n/a	n/a	n/a	n/a	n/a	n/a	n/a
1921.854	n/a	WORD	960927	wordpools/wasnorm_wordpool.txt	LTP089	ltpFR	7	6	0	COMPUTER	359	n/a	n/a	0	n/a	0	0	0	0.422607421875	0.5869140625	0	lower	amplitud.ttf
1924.862	n/a	START	962431	n/a	LTP089	ltpFR	7	n/a	n/a	n/a	n/a	n/a	n/a	n/a	n/a	n/a	n/a	n/a	n/a	n/a	n/a	n/a	n/a
1925.744	n/a	PROB	962872	n/a	LTP089	ltpFR	7	n/a	n/a	n/a	n/a	n/a	n/a	n/a	6	1	2	3	n/a	n/a	n/a	n/a	n/a
1927.71	n/a	PROB	963855	n/a	LTP089	ltpFR	7	n/a	n/a	n/a	n/a	n/a	n/a	n/a	12	1	8	3	n/a	n/a	n/a	n/a	n/a
1930.844	n/a	PROB	965422	n/a	LTP089	ltpFR	7	n/a	n/a	n/a	n/a	n/a	n/a	n/a	15	7	6	2	n/a	n/a	n/a	n/a	n/a
1933.644	n/a	PROB	966822	n/a	LTP089	ltpFR	7	n/a	n/a	n/a	n/a	n/a	n/a	n/a	9	4	5	4	n/a	n/a	n/a	n/a	n/a
1940.862	n/a	STOP	970431	n/a	LTP089	ltpFR	7	n/a	n/a	n/a	n/a	n/a	n/a	n/a	n/a	n/a	n/a	n/a	n/a	n/a	n/a	n/a	n/a
1941.894	n/a	WORD	970947	wordpools/wasnorm_wordpool.txt	LTP089	ltpFR	7	6	0	SIRLOIN	1311	n/a	n/a	0	n/a	0	0	0	0.422607421875	0.5869140625	0	lower	amplitud.ttf
1944.902	n/a	START	972451	n/a	LTP089	ltpFR	7	n/a	n/a	n/a	n/a	n/a	n/a	n/a	n/a	n/a	n/a	n/a	n/a	n/a	n/a	n/a	n/a
1946.078	n/a	PROB	973039	n/a	LTP089	ltpFR	7	n/a	n/a	n/a	n/a	n/a	n/a	n/a	16	4	3	9	n/a	n/a	n/a	n/a	n/a
1948.718	n/a	PROB	974359	n/a	LTP089	ltpFR	7	n/a	n/a	n/a	n/a	n/a	n/a	n/a	15	4	3	5	n/a	n/a	n/a	n/a	n/a
1950.968	n/a	PROB	975484	n/a	LTP089	ltpFR	7	n/a	n/a	n/a	n/a	n/a	n/a	n/a	17	4	6	7	n/a	n/a	n/a	n/a	n/a
1953.636	n/a	PROB	976818	n/a	LTP089	ltpFR	7	n/a	n/a	n/a	n/a	n/a	n/a	n/a	9	1	4	4	n/a	n/a	n/a	n/a	n/a
1955.684	n/a	PROB	977842	n/a	LTP089	ltpFR	7	n/a	n/a	n/a	n/a	n/a	n/a	n/a	21	9	9	3	n/a	n/a	n/a	n/a	n/a
1958.384	n/a	PROB	979192	n/a	LTP089	ltpFR	7	n/a	n/a	n/a	n/a	n/a	n/a	n/a	17	4	6	7	n/a	n/a	n/a	n/a	n/a
1960.784	n/a	STOP	980392	n/a	LTP089	ltpFR	7	n/a	n/a	n/a	n/a	n/a	n/a	n/a	n/a	n/a	n/a	n/a	n/a	n/a	n/a	n/a	n/a
1962.644	n/a	REC_START	981322	n/a	LTP089	ltpFR	7	6	n/a	n/a	n/a	n/a	n/a	n/a	n/a	0	0	0	n/a	n/a	n/a	n/a	n/a
1964.944	n/a	REC_WORD	982472	wordpools/wasnorm_wordpool.txt	LTP089	ltpFR	7	6	0	SUPERMARKET	1409	n/a	n/a	0	n/a	0	0	0	n/a	n/a	n/a	n/a	n/a
1966.242	n/a	REC_WORD_VV	983121	wordpools/wasnorm_wordpool.txt	LTP089	ltpFR	7	6	n/a	<>	-1	n/a	n/a	n/a	n/a	0	0	0	n/a	n/a	n/a	n/a	n/a
1969.08	n/a	REC_WORD	984540	wordpools/wasnorm_wordpool.txt	LTP089	ltpFR	7	6	n/a	LION	827	n/a	n/a	n/a	n/a	0	0	0	n/a	n/a	n/a	n/a	n/a
2057.716	n/a	WORD	1028858	wordpools/wasnorm_wordpool.txt	LTP089	ltpFR	7	7	0	ANTEATER	26	n/a	n/a	0	n/a	0	0	0	0.422607421875	0.5869140625	0	lower	amplitud.ttf
2061.824	n/a	WORD	1030912	wordpools/wasnorm_wordpool.txt	LTP089	ltpFR	7	7	0	OX	994	n/a	n/a	0	n/a	0	0	0	0.422607421875	0.5869140625	0	lower	amplitud.ttf
2065.908	n/a	WORD	1032954	wordpools/wasnorm_wordpool.txt	LTP089	ltpFR	7	7	0	BLACKBERRY	132	n/a	n/a	0	n/a	0	0	0	0.422607421875	0.5869140625	0	lower	amplitud.ttf
2070.074	n/a	WORD	1035037	wordpools/wasnorm_wordpool.txt	LTP089	ltpFR	7	7	0	GIFT	635	n/a	n/a	0	n/a	0	0	0	0.422607421875	0.5869140625	0	lower	amplitud.ttf
2074.116	n/a	WORD	1037058	wordpools/wasnorm_wordpool.txt	LTP089	ltpFR	7	7	0	PARCEL	1012	n/a	n/a	0	n/a	0	0	0	0.422607421875	0.5869140625	0	lower	amplitud.ttf
2078.24	n/a	WORD	1039120	wordpools/wasnorm_wordpool.txt	LTP089	ltpFR	7	7	0	PAD	998	n/a	n/a	0	n/a	0	0	0	0.422607421875	0.5869140625	0	lower	amplitud.ttf
2082.416	n/a	WORD	1041208	wordpools/wasnorm_wordpool.txt	LTP089	ltpFR	7	7	0	LUNG	850	n/a	n/a	0	n/a	0	0	0	0.422607421875	0.5869140625	0	lower	amplitud.ttf
2086.332	n/a	WORD	1043166	wordpools/wasnorm_wordpool.txt	LTP089	ltpFR	7	7	0	FORK	594	n/a	n/a	0	n/a	0	0	0	0.422607421875	0.5869140625	0	lower	amplitud.ttf
2090.466	n/a	WORD	1045233	wordpools/wasnorm_wordpool.txt	LTP089	ltpFR	7	7	0	BINDER	127	n/a	n/a	0	n/a	0	0	0	0.422607421875	0.5869140625	0	lower	amplitud.ttf
2094.482	n/a	WORD	1047241	wordpools/wasnorm_wordpool.txt	LTP089	ltpFR	7	7	0	PIGMENT	1066	n/a	n/a	0	n/a	0	0	0	0.422607421875	0.5869140625	0	lower	amplitud.ttf
2098.632	n/a	WORD	1049316	wordpools/wasnorm_wordpool.txt	LTP089	ltpFR	7	7	0	TUSK	1523	n/a	n/a	0	n/a	0	0	0	0.422607421875	0.5869140625	0	lower	amplitud.ttf
2102.632	n/a	WORD	1051316	wordpools/wasnorm_wordpool.txt	LTP089	ltpFR	7	7	0	WHIP	1604	n/a	n/a	0	n/a	0	0	0	0.422607421875	0.5869140625	0	lower	amplitud.ttf
2106.456	n/a	WORD	1053228	wordpools/wasnorm_wordpool.txt	LTP089	ltpFR	7	7	0	SICKLE	1302	n/a	n/a	0	n/a	0	0	0	0.422607421875	0.5869140625	0	lower	amplitud.ttf
2110.348	n/a	WORD	1055174	wordpools/wasnorm_wordpool.txt	LTP089	ltpFR	7	7	0	PLUM	1090	n/a	n/a	0	n/a	0	0	0	0.422607421875	0.5869140625	0	lower	amplitud.ttf
2114.172	n/a	WORD	1057086	wordpools/wasnorm_wordpool.txt	LTP089	ltpFR	7	7	0	AGENT	10	n/a	n/a	0	n/a	0	0	0	0.422607421875	0.5869140625	0	lower	amplitud.ttf
2118.148	n/a	WORD	1059074	wordpools/wasnorm_wordpool.txt	LTP089	ltpFR	7	7	0	BANK	83	n/a	n/a	1	n/a	0	0	0	0.422607421875	0.5869140625	0	lower	amplitud.ttf
2121.156	n/a	START	1060578	n/a	LTP089	ltpFR	7	n/a	n/a	n/a	n/a	n/a	n/a	n/a	n/a	n/a	n/a	n/a	n/a	n/a	n/a	n/a	n/a
2122.264	n/a	PROB	1061132	n/a	LTP089	ltpFR	7	n/a	n/a	n/a	n/a	n/a	n/a	n/a	13	4	9	4	n/a	n/a	n/a	n/a	n/a
2124.772	n/a	PROB	1062386	n/a	LTP089	ltpFR	7	n/a	n/a	n/a	n/a	n/a	n/a	n/a	12	7	1	4	n/a	n/a	n/a	n/a	n/a
2127.306	n/a	PROB	1063653	n/a	LTP089	ltpFR	7	n/a	n/a	n/a	n/a	n/a	n/a	n/a	15	4	2	9	n/a	n/a	n/a	n/a	n/a
2132.164	n/a	PROB	1066082	n/a	LTP089	ltpFR	7	n/a	n/a	n/a	n/a	n/a	n/a	n/a	22	5	9	8	n/a	n/a	n/a	n/a	n/a
2137.156	n/a	STOP	1068578	n/a	LTP089	ltpFR	7	n/a	n/a	n/a	n/a	n/a	n/a	n/a	n/a	n/a	n/a	n/a	n/a	n/a	n/a	n/a	n/a
2138.914	n/a	REC_START	1069457	n/a	LTP089	ltpFR	7	7	n/a	n/a	n/a	n/a	n/a	n/a	n/a	0	0	0	n/a	n/a	n/a	n/a	n/a
2142.094	n/a	REC_WORD	1071047	wordpools/wasnorm_wordpool.txt	LTP089	ltpFR	7	7	0	AGENT	10	n/a	n/a	0	n/a	0	0	0	n/a	n/a	n/a	n/a	n/a
2143.012	n/a	REC_WORD_VV	1071506	wordpools/wasnorm_wordpool.txt	LTP089	ltpFR	7	7	n/a	<>	-1	n/a	n/a	n/a	n/a	0	0	0	n/a	n/a	n/a	n/a	n/a
2145.146	n/a	REC_WORD	1072573	wordpools/wasnorm_wordpool.txt	LTP089	ltpFR	7	7	0	OX	994	n/a	n/a	0	n/a	0	0	0	n/a	n/a	n/a	n/a	n/a
2146.582	n/a	REC_WORD	1073291	wordpools/wasnorm_wordpool.txt	LTP089	ltpFR	7	7	n/a	MOOSE	915	n/a	n/a	n/a	n/a	0	0	0	n/a	n/a	n/a	n/a	n/a
2148.828	n/a	REC_WORD	1074414	wordpools/wasnorm_wordpool.txt	LTP089	ltpFR	7	7	0	PAD	998	n/a	n/a	0	n/a	0	0	0	n/a	n/a	n/a	n/a	n/a
2154.016	n/a	REC_WORD	1077008	wordpools/wasnorm_wordpool.txt	LTP089	ltpFR	7	7	0	ANTEATER	26	n/a	n/a	0	n/a	0	0	0	n/a	n/a	n/a	n/a	n/a
2227.746	n/a	START	1113873	n/a	LTP089	ltpFR	7	n/a	n/a	n/a	n/a	n/a	n/a	n/a	n/a	n/a	n/a	n/a	n/a	n/a	n/a	n/a	n/a
2229.254	n/a	PROB	1114627	n/a	LTP089	ltpFR	7	n/a	n/a	n/a	n/a	n/a	n/a	n/a	12	7	2	3	n/a	n/a	n/a	n/a	n/a
2231.186	n/a	PROB	1115593	n/a	LTP089	ltpFR	7	n/a	n/a	n/a	n/a	n/a	n/a	n/a	14	5	7	2	n/a	n/a	n/a	n/a	n/a
2235.746	n/a	STOP	1117873	n/a	LTP089	ltpFR	7	n/a	n/a	n/a	n/a	n/a	n/a	n/a	n/a	n/a	n/a	n/a	n/a	n/a	n/a	n/a	n/a
2236.778	n/a	WORD	1118389	wordpools/wasnorm_wordpool.txt	LTP089	ltpFR	7	8	1	COMB	351	n/a	n/a	1	n/a	0	0	0	0.57763671875	0.412841796875	1	upper	zerothre.ttf
2239.786	n/a	START	1119893	n/a	LTP089	ltpFR	7	n/a	n/a	n/a	n/a	n/a	n/a	n/a	n/a	n/a	n/a	n/a	n/a	n/a	n/a	n/a	n/a
2240.878	n/a	PROB	1120439	n/a	LTP089	ltpFR	7	n/a	n/a	n/a	n/a	n/a	n/a	n/a	5	6	1	1	n/a	n/a	n/a	n/a	n/a
2243.036	n/a	PROB	1121518	n/a	LTP089	ltpFR	7	n/a	n/a	n/a	n/a	n/a	n/a	n/a	17	9	2	6	n/a	n/a	n/a	n/a	n/a
2246.662	n/a	STOP	1123331	n/a	LTP089	ltpFR	7	n/a	n/a	n/a	n/a	n/a	n/a	n/a	n/a	n/a	n/a	n/a	n/a	n/a	n/a	n/a	n/a
2248.628	n/a	WORD	1124314	wordpools/wasnorm_wordpool.txt	LTP089	ltpFR	7	8	1	FRIAR	605	n/a	n/a	1	n/a	0	0	0	0.57763671875	0.412841796875	1	upper	zerothre.ttf
2251.628	n/a	START	1125814	n/a	LTP089	ltpFR	7	n/a	n/a	n/a	n/a	n/a	n/a	n/a	n/a	n/a	n/a	n/a	n/a	n/a	n/a	n/a	n/a
2252.56	n/a	PROB	1126280	n/a	LTP089	ltpFR	7	n/a	n/a	n/a	n/a	n/a	n/a	n/a	10	1	8	1	n/a	n/a	n/a	n/a	n/a
2254.394	n/a	PROB	1127197	n/a	LTP089	ltpFR	7	n/a	n/a	n/a	n/a	n/a	n/a	n/a	19	5	9	5	n/a	n/a	n/a	n/a	n/a
2257.336	n/a	PROB	1128668	n/a	LTP089	ltpFR	7	n/a	n/a	n/a	n/a	n/a	n/a	n/a	5	2	2	1	n/a	n/a	n/a	n/a	n/a
2258.518	n/a	STOP	1129259	n/a	LTP089	ltpFR	7	n/a	n/a	n/a	n/a	n/a	n/a	n/a	n/a	n/a	n/a	n/a	n/a	n/a	n/a	n/a	n/a
2260.836	n/a	WORD	1130418	wordpools/wasnorm_wordpool.txt	LTP089	ltpFR	7	8	1	MOP	916	n/a	n/a	0	n/a	0	0	0	0.57763671875	0.412841796875	1	upper	zerothre.ttf
2263.844	n/a	START	1131922	n/a	LTP089	ltpFR	7	n/a	n/a	n/a	n/a	n/a	n/a	n/a	n/a	n/a	n/a	n/a	n/a	n/a	n/a	n/a	n/a
2264.728	n/a	PROB	1132364	n/a	LTP089	ltpFR	7	n/a	n/a	n/a	n/a	n/a	n/a	n/a	11	6	2	3	n/a	n/a	n/a	n/a	n/a
2267.77	n/a	PROB	1133885	n/a	LTP089	ltpFR	7	n/a	n/a	n/a	n/a	n/a	n/a	n/a	14	8	1	5	n/a	n/a	n/a	n/a	n/a
2270.912	n/a	STOP	1135456	n/a	LTP089	ltpFR	7	n/a	n/a	n/a	n/a	n/a	n/a	n/a	n/a	n/a	n/a	n/a	n/a	n/a	n/a	n/a	n/a
2272.944	n/a	WORD	1136472	wordpools/wasnorm_wordpool.txt	LTP089	ltpFR	7	8	1	WASHER	1592	n/a	n/a	0	n/a	0	0	0	0.57763671875	0.412841796875	1	upper	zerothre.ttf
2275.952	n/a	START	1137976	n/a	LTP089	ltpFR	7	n/a	n/a	n/a	n/a	n/a	n/a	n/a	n/a	n/a	n/a	n/a	n/a	n/a	n/a	n/a	n/a
2277.11	n/a	PROB	1138555	n/a	LTP089	ltpFR	7	n/a	n/a	n/a	n/a	n/a	n/a	n/a	23	8	7	8	n/a	n/a	n/a	n/a	n/a
2283.954	n/a	STOP	1141977	n/a	LTP089	ltpFR	7	n/a	n/a	n/a	n/a	n/a	n/a	n/a	n/a	n/a	n/a	n/a	n/a	n/a	n/a	n/a	n/a
2284.844	n/a	WORD	1142422	wordpools/wasnorm_wordpool.txt	LTP089	ltpFR	7	8	1	CANDIDATE	228	n/a	n/a	0	n/a	0	0	0	0.57763671875	0.412841796875	1	upper	zerothre.ttf
2287.844	n/a	START	1143922	n/a	LTP089	ltpFR	7	n/a	n/a	n/a	n/a	n/a	n/a	n/a	n/a	n/a	n/a	n/a	n/a	n/a	n/a	n/a	n/a
2288.844	n/a	PROB	1144422	n/a	LTP089	ltpFR	7	n/a	n/a	n/a	n/a	n/a	n/a	n/a	11	1	7	3	n/a	n/a	n/a	n/a	n/a
2291.86	n/a	PROB	1145930	n/a	LTP089	ltpFR	7	n/a	n/a	n/a	n/a	n/a	n/a	n/a	10	2	2	6	n/a	n/a	n/a	n/a	n/a
2295.624	n/a	STOP	1147812	n/a	LTP089	ltpFR	7	n/a	n/a	n/a	n/a	n/a	n/a	n/a	n/a	n/a	n/a	n/a	n/a	n/a	n/a	n/a	n/a
2296.818	n/a	WORD	1148409	wordpools/wasnorm_wordpool.txt	LTP089	ltpFR	7	8	1	BUNNY	198	n/a	n/a	0	n/a	0	0	0	0.57763671875	0.412841796875	1	upper	zerothre.ttf
2299.826	n/a	START	1149913	n/a	LTP089	ltpFR	7	n/a	n/a	n/a	n/a	n/a	n/a	n/a	n/a	n/a	n/a	n/a	n/a	n/a	n/a	n/a	n/a
2300.91	n/a	PROB	1150455	n/a	LTP089	ltpFR	7	n/a	n/a	n/a	n/a	n/a	n/a	n/a	15	5	3	7	n/a	n/a	n/a	n/a	n/a
2304.218	n/a	PROB	1152109	n/a	LTP089	ltpFR	7	n/a	n/a	n/a	n/a	n/a	n/a	n/a	16	3	6	7	n/a	n/a	n/a	n/a	n/a
2307.21	n/a	STOP	1153605	n/a	LTP089	ltpFR	7	n/a	n/a	n/a	n/a	n/a	n/a	n/a	n/a	n/a	n/a	n/a	n/a	n/a	n/a	n/a	n/a
2308.894	n/a	WORD	1154447	wordpools/wasnorm_wordpool.txt	LTP089	ltpFR	7	8	1	DICE	461	n/a	n/a	1	n/a	0	0	0	0.57763671875	0.412841796875	1	upper	zerothre.ttf
2311.902	n/a	START	1155951	n/a	LTP089	ltpFR	7	n/a	n/a	n/a	n/a	n/a	n/a	n/a	n/a	n/a	n/a	n/a	n/a	n/a	n/a	n/a	n/a
2312.784	n/a	PROB	1156392	n/a	LTP089	ltpFR	7	n/a	n/a	n/a	n/a	n/a	n/a	n/a	7	2	2	3	n/a	n/a	n/a	n/a	n/a
2315.118	n/a	PROB	1157559	n/a	LTP089	ltpFR	7	n/a	n/a	n/a	n/a	n/a	n/a	n/a	12	9	3	1	n/a	n/a	n/a	n/a	n/a
2319.202	n/a	STOP	1159601	n/a	LTP089	ltpFR	7	n/a	n/a	n/a	n/a	n/a	n/a	n/a	n/a	n/a	n/a	n/a	n/a	n/a	n/a	n/a	n/a
2320.942	n/a	WORD	1160471	wordpools/wasnorm_wordpool.txt	LTP089	ltpFR	7	8	1	SKULL	1320	n/a	n/a	0	n/a	0	0	0	0.57763671875	0.412841796875	1	upper	zerothre.ttf
2323.952	n/a	START	1161976	n/a	LTP089	ltpFR	7	n/a	n/a	n/a	n/a	n/a	n/a	n/a	n/a	n/a	n/a	n/a	n/a	n/a	n/a	n/a	n/a
2324.868	n/a	PROB	1162434	n/a	LTP089	ltpFR	7	n/a	n/a	n/a	n/a	n/a	n/a	n/a	9	2	1	6	n/a	n/a	n/a	n/a	n/a
2327.542	n/a	PROB	1163771	n/a	LTP089	ltpFR	7	n/a	n/a	n/a	n/a	n/a	n/a	n/a	18	8	3	6	n/a	n/a	n/a	n/a	n/a
2331.952	n/a	STOP	1165976	n/a	LTP089	ltpFR	7	n/a	n/a	n/a	n/a	n/a	n/a	n/a	n/a	n/a	n/a	n/a	n/a	n/a	n/a	n/a	n/a
2333.118	n/a	WORD	1166559	wordpools/wasnorm_wordpool.txt	LTP089	ltpFR	7	8	1	POPE	1105	n/a	n/a	0	n/a	0	0	0	0.57763671875	0.412841796875	1	upper	zerothre.ttf
2336.126	n/a	START	1168063	n/a	LTP089	ltpFR	7	n/a	n/a	n/a	n/a	n/a	n/a	n/a	n/a	n/a	n/a	n/a	n/a	n/a	n/a	n/a	n/a
2337.116	n/a	PROB	1168558	n/a	LTP089	ltpFR	7	n/a	n/a	n/a	n/a	n/a	n/a	n/a	16	7	6	3	n/a	n/a	n/a	n/a	n/a
2339.926	n/a	PROB	1169963	n/a	LTP089	ltpFR	7	n/a	n/a	n/a	n/a	n/a	n/a	n/a	8	2	4	2	n/a	n/a	n/a	n/a	n/a
2343.572	n/a	STOP	1171786	n/a	LTP089	ltpFR	7	n/a	n/a	n/a	n/a	n/a	n/a	n/a	n/a	n/a	n/a	n/a	n/a	n/a	n/a	n/a	n/a
2344.992	n/a	WORD	1172496	wordpools/wasnorm_wordpool.txt	LTP089	ltpFR	7	8	1	DANDRUFF	439	n/a	n/a	0	n/a	0	0	0	0.57763671875	0.412841796875	1	upper	zerothre.ttf
2348.0	n/a	START	1174000	n/a	LTP089	ltpFR	7	n/a	n/a	n/a	n/a	n/a	n/a	n/a	n/a	n/a	n/a	n/a	n/a	n/a	n/a	n/a	n/a
2349.076	n/a	PROB	1174538	n/a	LTP089	ltpFR	7	n/a	n/a	n/a	n/a	n/a	n/a	n/a	18	5	5	8	n/a	n/a	n/a	n/a	n/a
2351.508	n/a	PROB	1175754	n/a	LTP089	ltpFR	7	n/a	n/a	n/a	n/a	n/a	n/a	n/a	18	6	8	4	n/a	n/a	n/a	n/a	n/a
2354.86	n/a	STOP	1177430	n/a	LTP089	ltpFR	7	n/a	n/a	n/a	n/a	n/a	n/a	n/a	n/a	n/a	n/a	n/a	n/a	n/a	n/a	n/a	n/a
2357.05	n/a	WORD	1178525	wordpools/wasnorm_wordpool.txt	LTP089	ltpFR	7	8	1	CAVITY	264	n/a	n/a	0	n/a	0	0	0	0.57763671875	0.412841796875	1	upper	zerothre.ttf
2360.058	n/a	START	1180029	n/a	LTP089	ltpFR	7	n/a	n/a	n/a	n/a	n/a	n/a	n/a	n/a	n/a	n/a	n/a	n/a	n/a	n/a	n/a	n/a
2361.066	n/a	PROB	1180533	n/a	LTP089	ltpFR	7	n/a	n/a	n/a	n/a	n/a	n/a	n/a	8	3	1	4	n/a	n/a	n/a	n/a	n/a
2363.45	n/a	PROB	1181725	n/a	LTP089	ltpFR	7	n/a	n/a	n/a	n/a	n/a	n/a	n/a	14	7	2	5	n/a	n/a	n/a	n/a	n/a
2368.06	n/a	STOP	1184030	n/a	LTP089	ltpFR	7	n/a	n/a	n/a	n/a	n/a	n/a	n/a	n/a	n/a	n/a	n/a	n/a	n/a	n/a	n/a	n/a
2369.158	n/a	WORD	1184579	wordpools/wasnorm_wordpool.txt	LTP089	ltpFR	7	8	1	HOSE	720	n/a	n/a	0	n/a	0	0	0	0.57763671875	0.412841796875	1	upper	zerothre.ttf
2372.166	n/a	START	1186083	n/a	LTP089	ltpFR	7	n/a	n/a	n/a	n/a	n/a	n/a	n/a	n/a	n/a	n/a	n/a	n/a	n/a	n/a	n/a	n/a
2373.366	n/a	PROB	1186683	n/a	LTP089	ltpFR	7	n/a	n/a	n/a	n/a	n/a	n/a	n/a	12	2	2	8	n/a	n/a	n/a	n/a	n/a
2375.632	n/a	PROB	1187816	n/a	LTP089	ltpFR	7	n/a	n/a	n/a	n/a	n/a	n/a	n/a	10	4	4	2	n/a	n/a	n/a	n/a	n/a
2380.166	n/a	STOP	1190083	n/a	LTP089	ltpFR	7	n/a	n/a	n/a	n/a	n/a	n/a	n/a	n/a	n/a	n/a	n/a	n/a	n/a	n/a	n/a	n/a
2381.282	n/a	WORD	1190641	wordpools/wasnorm_wordpool.txt	LTP089	ltpFR	7	8	1	MARINE	869	n/a	n/a	1	n/a	0	0	0	0.57763671875	0.412841796875	1	upper	zerothre.ttf
2384.292	n/a	START	1192146	n/a	LTP089	ltpFR	7	n/a	n/a	n/a	n/a	n/a	n/a	n/a	n/a	n/a	n/a	n/a	n/a	n/a	n/a	n/a	n/a
2385.216	n/a	PROB	1192608	n/a	LTP089	ltpFR	7	n/a	n/a	n/a	n/a	n/a	n/a	n/a	20	8	8	4	n/a	n/a	n/a	n/a	n/a
2389.758	n/a	PROB	1194879	n/a	LTP089	ltpFR	7	n/a	n/a	n/a	n/a	n/a	n/a	n/a	18	6	6	6	n/a	n/a	n/a	n/a	n/a
2391.806	n/a	STOP	1195903	n/a	LTP089	ltpFR	7	n/a	n/a	n/a	n/a	n/a	n/a	n/a	n/a	n/a	n/a	n/a	n/a	n/a	n/a	n/a	n/a
2393.316	n/a	WORD	1196658	wordpools/wasnorm_wordpool.txt	LTP089	ltpFR	7	8	1	ANTENNA	28	n/a	n/a	0	n/a	0	0	0	0.57763671875	0.412841796875	1	upper	zerothre.ttf
2396.316	n/a	START	1198158	n/a	LTP089	ltpFR	7	n/a	n/a	n/a	n/a	n/a	n/a	n/a	n/a	n/a	n/a	n/a	n/a	n/a	n/a	n/a	n/a
2397.408	n/a	PROB	1198704	n/a	LTP089	ltpFR	7	n/a	n/a	n/a	n/a	n/a	n/a	n/a	13	9	3	1	n/a	n/a	n/a	n/a	n/a
2404.318	n/a	STOP	1202159	n/a	LTP089	ltpFR	7	n/a	n/a	n/a	n/a	n/a	n/a	n/a	n/a	n/a	n/a	n/a	n/a	n/a	n/a	n/a	n/a
2405.524	n/a	WORD	1202762	wordpools/wasnorm_wordpool.txt	LTP089	ltpFR	7	8	1	TELEVISION	1447	n/a	n/a	0	n/a	0	0	0	0.57763671875	0.412841796875	1	upper	zerothre.ttf
2408.532	n/a	START	1204266	n/a	LTP089	ltpFR	7	n/a	n/a	n/a	n/a	n/a	n/a	n/a	n/a	n/a	n/a	n/a	n/a	n/a	n/a	n/a	n/a
2409.54	n/a	PROB	1204770	n/a	LTP089	ltpFR	7	n/a	n/a	n/a	n/a	n/a	n/a	n/a	19	2	7	9	n/a	n/a	n/a	n/a	n/a
2414.182	n/a	PROB	1207091	n/a	LTP089	ltpFR	7	n/a	n/a	n/a	n/a	n/a	n/a	n/a	13	1	6	6	n/a	n/a	n/a	n/a	n/a
2416.182	n/a	STOP	1208091	n/a	LTP089	ltpFR	7	n/a	n/a	n/a	n/a	n/a	n/a	n/a	n/a	n/a	n/a	n/a	n/a	n/a	n/a	n/a	n/a
2417.532	n/a	WORD	1208766	wordpools/wasnorm_wordpool.txt	LTP089	ltpFR	7	8	1	SHOULDER	1294	n/a	n/a	0	n/a	0	0	0	0.57763671875	0.412841796875	1	upper	zerothre.ttf
2420.54	n/a	START	1210270	n/a	LTP089	ltpFR	7	n/a	n/a	n/a	n/a	n/a	n/a	n/a	n/a	n/a	n/a	n/a	n/a	n/a	n/a	n/a	n/a
2421.506	n/a	PROB	1210753	n/a	LTP089	ltpFR	7	n/a	n/a	n/a	n/a	n/a	n/a	n/a	16	4	4	8	n/a	n/a	n/a	n/a	n/a
2428.542	n/a	STOP	1214271	n/a	LTP089	ltpFR	7	n/a	n/a	n/a	n/a	n/a	n/a	n/a	n/a	n/a	n/a	n/a	n/a	n/a	n/a	n/a	n/a
2430.366	n/a	REC_START	1215183	n/a	LTP089	ltpFR	7	8	n/a	n/a	n/a	n/a	n/a	n/a	n/a	0	0	0	n/a	n/a	n/a	n/a	n/a
2436.806	n/a	REC_WORD	1218403	wordpools/wasnorm_wordpool.txt	LTP089	ltpFR	7	8	1	DANDRUFF	439	n/a	n/a	0	n/a	0	0	0	n/a	n/a	n/a	n/a	n/a
2512.154	n/a	WORD	1256077	wordpools/wasnorm_wordpool.txt	LTP089	ltpFR	7	9	1	CHAIRPERSON	275	n/a	n/a	1	n/a	0	0	0	0.57763671875	0.412841796875	1	upper	zerothre.ttf
2516.112	n/a	WORD	1258056	wordpools/wasnorm_wordpool.txt	LTP089	ltpFR	7	9	1	MOB	904	n/a	n/a	1	n/a	0	0	0	0.57763671875	0.412841796875	1	upper	zerothre.ttf
2520.038	n/a	WORD	1260019	wordpools/wasnorm_wordpool.txt	LTP089	ltpFR	7	9	1	PEARL	1034	n/a	n/a	1	n/a	0	0	0	0.57763671875	0.412841796875	1	upper	zerothre.ttf
2524.246	n/a	WORD	1262123	wordpools/wasnorm_wordpool.txt	LTP089	ltpFR	7	9	1	CUB	419	n/a	n/a	1	n/a	0	0	0	0.57763671875	0.412841796875	1	upper	zerothre.ttf
2528.154	n/a	WORD	1264077	wordpools/wasnorm_wordpool.txt	LTP089	ltpFR	7	9	1	MUFFIN	929	n/a	n/a	1	n/a	0	0	0	0.57763671875	0.412841796875	1	upper	zerothre.ttf
2532.262	n/a	WORD	1266131	wordpools/wasnorm_wordpool.txt	LTP089	ltpFR	7	9	1	OPERA	978	n/a	n/a	1	n/a	0	0	0	0.57763671875	0.412841796875	1	upper	zerothre.ttf
2536.204	n/a	WORD	1268102	wordpools/wasnorm_wordpool.txt	LTP089	ltpFR	7	9	1	TAPE	1433	n/a	n/a	1	n/a	0	0	0	0.57763671875	0.412841796875	1	upper	zerothre.ttf
2540.378	n/a	WORD	1270189	wordpools/wasnorm_wordpool.txt	LTP089	ltpFR	7	9	1	MOAT	903	n/a	n/a	1	n/a	0	0	0	0.57763671875	0.412841796875	1	upper	zerothre.ttf
2544.23	n/a	WORD	1272115	wordpools/wasnorm_wordpool.txt	LTP089	ltpFR	7	9	1	DESIGNER	451	n/a	n/a	1	n/a	0	0	0	0.57763671875	0.412841796875	1	upper	zerothre.ttf
2548.288	n/a	WORD	1274144	wordpools/wasnorm_wordpool.txt	LTP089	ltpFR	7	9	1	DRAWER	493	n/a	n/a	1	n/a	0	0	0	0.57763671875	0.412841796875	1	upper	zerothre.ttf
2552.486	n/a	WORD	1276243	wordpools/wasnorm_wordpool.txt	LTP089	ltpFR	7	9	1	MONK	910	n/a	n/a	1	n/a	0	0	0	0.57763671875	0.412841796875	1	upper	zerothre.ttf
2556.46	n/a	WORD	1278230	wordpools/wasnorm_wordpool.txt	LTP089	ltpFR	7	9	1	JOKER	759	n/a	n/a	1	n/a	0	0	0	0.57763671875	0.412841796875	1	upper	zerothre.ttf
2560.644	n/a	WORD	1280322	wordpools/wasnorm_wordpool.txt	LTP089	ltpFR	7	9	1	PIE	1062	n/a	n/a	1	n/a	0	0	0	0.57763671875	0.412841796875	1	upper	zerothre.ttf
2564.612	n/a	WORD	1282306	wordpools/wasnorm_wordpool.txt	LTP089	ltpFR	7	9	1	SURF	1412	n/a	n/a	1	n/a	0	0	0	0.57763671875	0.412841796875	1	upper	zerothre.ttf
2568.728	n/a	WORD	1284364	wordpools/wasnorm_wordpool.txt	LTP089	ltpFR	7	9	1	PISTOL	1075	n/a	n/a	1	n/a	0	0	0	0.57763671875	0.412841796875	1	upper	zerothre.ttf
2572.636	n/a	WORD	1286318	wordpools/wasnorm_wordpool.txt	LTP089	ltpFR	7	9	1	PRIEST	1122	n/a	n/a	0	n/a	0	0	0	0.57763671875	0.412841796875	1	upper	zerothre.ttf
2578.704	n/a	REC_START	1289352	n/a	LTP089	ltpFR	7	9	n/a	n/a	n/a	n/a	n/a	n/a	n/a	0	0	0	n/a	n/a	n/a	n/a	n/a
2580.354	n/a	REC_WORD	1290177	wordpools/wasnorm_wordpool.txt	LTP089	ltpFR	7	9	1	PRIEST	1122	n/a	n/a	0	n/a	0	0	0	n/a	n/a	n/a	n/a	n/a
2581.082	n/a	REC_WORD	1290541	wordpools/wasnorm_wordpool.txt	LTP089	ltpFR	7	9	1	PISTOL	1075	n/a	n/a	1	n/a	0	0	0	n/a	n/a	n/a	n/a	n/a
2581.752	n/a	REC_WORD	1290876	wordpools/wasnorm_wordpool.txt	LTP089	ltpFR	7	9	1	SURF	1412	n/a	n/a	1	n/a	0	0	0	n/a	n/a	n/a	n/a	n/a
2583.2	n/a	REC_WORD	1291600	wordpools/wasnorm_wordpool.txt	LTP089	ltpFR	7	9	1	MOB	904	n/a	n/a	1	n/a	0	0	0	n/a	n/a	n/a	n/a	n/a
2584.686	n/a	REC_WORD	1292343	wordpools/wasnorm_wordpool.txt	LTP089	ltpFR	7	9	n/a	ANGRY	-1	n/a	n/a	n/a	n/a	0	0	0	n/a	n/a	n/a	n/a	n/a
2585.972	n/a	REC_WORD_VV	1292986	wordpools/wasnorm_wordpool.txt	LTP089	ltpFR	7	9	n/a	<>	-1	n/a	n/a	n/a	n/a	0	0	0	n/a	n/a	n/a	n/a	n/a
2587.26	n/a	REC_WORD	1293630	wordpools/wasnorm_wordpool.txt	LTP089	ltpFR	7	9	1	CHAIRPERSON	275	n/a	n/a	1	n/a	0	0	0	n/a	n/a	n/a	n/a	n/a
2671.35	n/a	START	1335675	n/a	LTP089	ltpFR	7	n/a	n/a	n/a	n/a	n/a	n/a	n/a	n/a	n/a	n/a	n/a	n/a	n/a	n/a	n/a	n/a
2672.858	n/a	PROB	1336429	n/a	LTP089	ltpFR	7	n/a	n/a	n/a	n/a	n/a	n/a	n/a	11	2	4	5	n/a	n/a	n/a	n/a	n/a
2679.35	n/a	STOP	1339675	n/a	LTP089	ltpFR	7	n/a	n/a	n/a	n/a	n/a	n/a	n/a	n/a	n/a	n/a	n/a	n/a	n/a	n/a	n/a	n/a
2680.258	n/a	WORD	1340129	wordpools/wasnorm_wordpool.txt	LTP089	ltpFR	7	10	1	SMOG	1330	n/a	n/a	1	n/a	0	0	0	0.57763671875	0.412841796875	1	upper	zerothre.ttf
2683.268	n/a	START	1341634	n/a	LTP089	ltpFR	7	n/a	n/a	n/a	n/a	n/a	n/a	n/a	n/a	n/a	n/a	n/a	n/a	n/a	n/a	n/a	n/a
2684.442	n/a	PROB	1342221	n/a	LTP089	ltpFR	7	n/a	n/a	n/a	n/a	n/a	n/a	n/a	8	4	1	3	n/a	n/a	n/a	n/a	n/a
2686.784	n/a	PROB	1343392	n/a	LTP089	ltpFR	7	n/a	n/a	n/a	n/a	n/a	n/a	n/a	9	2	2	5	n/a	n/a	n/a	n/a	n/a
2691.266	n/a	STOP	1345633	n/a	LTP089	ltpFR	7	n/a	n/a	n/a	n/a	n/a	n/a	n/a	n/a	n/a	n/a	n/a	n/a	n/a	n/a	n/a	n/a
2692.258	n/a	WORD	1346129	wordpools/wasnorm_wordpool.txt	LTP089	ltpFR	7	10	1	CAFETERIA	217	n/a	n/a	0	n/a	0	0	0	0.57763671875	0.412841796875	1	upper	zerothre.ttf
2695.266	n/a	START	1347633	n/a	LTP089	ltpFR	7	n/a	n/a	n/a	n/a	n/a	n/a	n/a	n/a	n/a	n/a	n/a	n/a	n/a	n/a	n/a	n/a
2696.3	n/a	PROB	1348150	n/a	LTP089	ltpFR	7	n/a	n/a	n/a	n/a	n/a	n/a	n/a	17	2	9	5	n/a	n/a	n/a	n/a	n/a
2703.268	n/a	STOP	1351634	n/a	LTP089	ltpFR	7	n/a	n/a	n/a	n/a	n/a	n/a	n/a	n/a	n/a	n/a	n/a	n/a	n/a	n/a	n/a	n/a
2704.234	n/a	WORD	1352117	wordpools/wasnorm_wordpool.txt	LTP089	ltpFR	7	10	1	COFFEE	341	n/a	n/a	0	n/a	0	0	0	0.57763671875	0.412841796875	1	upper	zerothre.ttf
2707.242	n/a	START	1353621	n/a	LTP089	ltpFR	7	n/a	n/a	n/a	n/a	n/a	n/a	n/a	n/a	n/a	n/a	n/a	n/a	n/a	n/a	n/a	n/a
2708.116	n/a	PROB	1354058	n/a	LTP089	ltpFR	7	n/a	n/a	n/a	n/a	n/a	n/a	n/a	7	2	3	2	n/a	n/a	n/a	n/a	n/a
2710.084	n/a	PROB	1355042	n/a	LTP089	ltpFR	7	n/a	n/a	n/a	n/a	n/a	n/a	n/a	15	1	4	8	n/a	n/a	n/a	n/a	n/a
2714.518	n/a	STOP	1357259	n/a	LTP089	ltpFR	7	n/a	n/a	n/a	n/a	n/a	n/a	n/a	n/a	n/a	n/a	n/a	n/a	n/a	n/a	n/a	n/a
2716.316	n/a	WORD	1358158	wordpools/wasnorm_wordpool.txt	LTP089	ltpFR	7	10	1	WAGON	1578	n/a	n/a	0	n/a	0	0	0	0.57763671875	0.412841796875	1	upper	zerothre.ttf
2719.316	n/a	START	1359658	n/a	LTP089	ltpFR	7	n/a	n/a	n/a	n/a	n/a	n/a	n/a	n/a	n/a	n/a	n/a	n/a	n/a	n/a	n/a	n/a
2720.208	n/a	PROB	1360104	n/a	LTP089	ltpFR	7	n/a	n/a	n/a	n/a	n/a	n/a	n/a	17	8	8	1	n/a	n/a	n/a	n/a	n/a
2724.008	n/a	PROB	1362004	n/a	LTP089	ltpFR	7	n/a	n/a	n/a	n/a	n/a	n/a	n/a	11	1	6	4	n/a	n/a	n/a	n/a	n/a
2727.318	n/a	STOP	1363659	n/a	LTP089	ltpFR	7	n/a	n/a	n/a	n/a	n/a	n/a	n/a	n/a	n/a	n/a	n/a	n/a	n/a	n/a	n/a	n/a
2728.458	n/a	WORD	1364229	wordpools/wasnorm_wordpool.txt	LTP089	ltpFR	7	10	1	RIDER	1191	n/a	n/a	0	n/a	0	0	0	0.57763671875	0.412841796875	1	upper	zerothre.ttf
2731.466	n/a	START	1365733	n/a	LTP089	ltpFR	7	n/a	n/a	n/a	n/a	n/a	n/a	n/a	n/a	n/a	n/a	n/a	n/a	n/a	n/a	n/a	n/a
2732.324	n/a	PROB	1366162	n/a	LTP089	ltpFR	7	n/a	n/a	n/a	n/a	n/a	n/a	n/a	19	7	7	5	n/a	n/a	n/a	n/a	n/a
2734.908	n/a	PROB	1367454	n/a	LTP089	ltpFR	7	n/a	n/a	n/a	n/a	n/a	n/a	n/a	22	6	8	8	n/a	n/a	n/a	n/a	n/a
2739.464	n/a	STOP	1369732	n/a	LTP089	ltpFR	7	n/a	n/a	n/a	n/a	n/a	n/a	n/a	n/a	n/a	n/a	n/a	n/a	n/a	n/a	n/a	n/a
2740.59	n/a	WORD	1370295	wordpools/wasnorm_wordpool.txt	LTP089	ltpFR	7	10	1	CHIMNEY	301	n/a	n/a	0	n/a	0	0	0	0.57763671875	0.412841796875	1	upper	zerothre.ttf
2743.6	n/a	START	1371800	n/a	LTP089	ltpFR	7	n/a	n/a	n/a	n/a	n/a	n/a	n/a	n/a	n/a	n/a	n/a	n/a	n/a	n/a	n/a	n/a
2744.766	n/a	PROB	1372383	n/a	LTP089	ltpFR	7	n/a	n/a	n/a	n/a	n/a	n/a	n/a	13	9	2	2	n/a	n/a	n/a	n/a	n/a
2748.232	n/a	PROB	1374116	n/a	LTP089	ltpFR	7	n/a	n/a	n/a	n/a	n/a	n/a	n/a	12	6	5	1	n/a	n/a	n/a	n/a	n/a
2750.648	n/a	STOP	1375324	n/a	LTP089	ltpFR	7	n/a	n/a	n/a	n/a	n/a	n/a	n/a	n/a	n/a	n/a	n/a	n/a	n/a	n/a	n/a	n/a
2752.432	n/a	WORD	1376216	wordpools/wasnorm_wordpool.txt	LTP089	ltpFR	7	10	1	LEADER	807	n/a	n/a	0	n/a	0	0	0	0.57763671875	0.412841796875	1	upper	zerothre.ttf
2755.432	n/a	START	1377716	n/a	LTP089	ltpFR	7	n/a	n/a	n/a	n/a	n/a	n/a	n/a	n/a	n/a	n/a	n/a	n/a	n/a	n/a	n/a	n/a
2756.398	n/a	PROB	1378199	n/a	LTP089	ltpFR	7	n/a	n/a	n/a	n/a	n/a	n/a	n/a	10	7	2	1	n/a	n/a	n/a	n/a	n/a
2759.432	n/a	PROB	1379716	n/a	LTP089	ltpFR	7	n/a	n/a	n/a	n/a	n/a	n/a	n/a	7	1	3	3	n/a	n/a	n/a	n/a	n/a
2763.432	n/a	STOP	1381716	n/a	LTP089	ltpFR	7	n/a	n/a	n/a	n/a	n/a	n/a	n/a	n/a	n/a	n/a	n/a	n/a	n/a	n/a	n/a	n/a
2764.358	n/a	WORD	1382179	wordpools/wasnorm_wordpool.txt	LTP089	ltpFR	7	10	1	PATIENT	1024	n/a	n/a	0	n/a	0	0	0	0.57763671875	0.412841796875	1	upper	zerothre.ttf
2767.366	n/a	START	1383683	n/a	LTP089	ltpFR	7	n/a	n/a	n/a	n/a	n/a	n/a	n/a	n/a	n/a	n/a	n/a	n/a	n/a	n/a	n/a	n/a
2768.524	n/a	PROB	1384262	n/a	LTP089	ltpFR	7	n/a	n/a	n/a	n/a	n/a	n/a	n/a	14	6	1	7	n/a	n/a	n/a	n/a	n/a
2771.974	n/a	PROB	1385987	n/a	LTP089	ltpFR	7	n/a	n/a	n/a	n/a	n/a	n/a	n/a	17	8	5	5	n/a	n/a	n/a	n/a	n/a
2774.384	n/a	STOP	1387192	n/a	LTP089	ltpFR	7	n/a	n/a	n/a	n/a	n/a	n/a	n/a	n/a	n/a	n/a	n/a	n/a	n/a	n/a	n/a	n/a
2776.29	n/a	WORD	1388145	wordpools/wasnorm_wordpool.txt	LTP089	ltpFR	7	10	1	CLAM	315	n/a	n/a	0	n/a	0	0	0	0.57763671875	0.412841796875	1	upper	zerothre.ttf
2779.298	n/a	START	1389649	n/a	LTP089	ltpFR	7	n/a	n/a	n/a	n/a	n/a	n/a	n/a	n/a	n/a	n/a	n/a	n/a	n/a	n/a	n/a	n/a
2780.248	n/a	PROB	1390124	n/a	LTP089	ltpFR	7	n/a	n/a	n/a	n/a	n/a	n/a	n/a	13	5	3	5	n/a	n/a	n/a	n/a	n/a
2781.922	n/a	PROB	1390961	n/a	LTP089	ltpFR	7	n/a	n/a	n/a	n/a	n/a	n/a	n/a	20	7	9	4	n/a	n/a	n/a	n/a	n/a
2787.3	n/a	STOP	1393650	n/a	LTP089	ltpFR	7	n/a	n/a	n/a	n/a	n/a	n/a	n/a	n/a	n/a	n/a	n/a	n/a	n/a	n/a	n/a	n/a
2788.232	n/a	WORD	1394116	wordpools/wasnorm_wordpool.txt	LTP089	ltpFR	7	10	1	REFRIGERATOR	1179	n/a	n/a	0	n/a	0	0	0	0.57763671875	0.412841796875	1	upper	zerothre.ttf
2791.24	n/a	START	1395620	n/a	LTP089	ltpFR	7	n/a	n/a	n/a	n/a	n/a	n/a	n/a	n/a	n/a	n/a	n/a	n/a	n/a	n/a	n/a	n/a
2792.422	n/a	PROB	1396211	n/a	LTP089	ltpFR	7	n/a	n/a	n/a	n/a	n/a	n/a	n/a	19	4	8	7	n/a	n/a	n/a	n/a	n/a
2794.914	n/a	PROB	1397457	n/a	LTP089	ltpFR	7	n/a	n/a	n/a	n/a	n/a	n/a	n/a	15	6	2	7	n/a	n/a	n/a	n/a	n/a
2798.298	n/a	STOP	1399149	n/a	LTP089	ltpFR	7	n/a	n/a	n/a	n/a	n/a	n/a	n/a	n/a	n/a	n/a	n/a	n/a	n/a	n/a	n/a	n/a
2800.406	n/a	WORD	1400203	wordpools/wasnorm_wordpool.txt	LTP089	ltpFR	7	10	1	SHOWER	1296	n/a	n/a	0	n/a	0	0	0	0.57763671875	0.412841796875	1	upper	zerothre.ttf
2803.414	n/a	START	1401707	n/a	LTP089	ltpFR	7	n/a	n/a	n/a	n/a	n/a	n/a	n/a	n/a	n/a	n/a	n/a	n/a	n/a	n/a	n/a	n/a
2804.298	n/a	PROB	1402149	n/a	LTP089	ltpFR	7	n/a	n/a	n/a	n/a	n/a	n/a	n/a	20	7	5	8	n/a	n/a	n/a	n/a	n/a
2807.69	n/a	PROB	1403845	n/a	LTP089	ltpFR	7	n/a	n/a	n/a	n/a	n/a	n/a	n/a	25	9	7	9	n/a	n/a	n/a	n/a	n/a
2811.106	n/a	STOP	1405553	n/a	LTP089	ltpFR	7	n/a	n/a	n/a	n/a	n/a	n/a	n/a	n/a	n/a	n/a	n/a	n/a	n/a	n/a	n/a	n/a
2812.264	n/a	WORD	1406132	wordpools/wasnorm_wordpool.txt	LTP089	ltpFR	7	10	1	CHIPMUNK	304	n/a	n/a	0	n/a	0	0	0	0.57763671875	0.412841796875	1	upper	zerothre.ttf
2815.272	n/a	START	1407636	n/a	LTP089	ltpFR	7	n/a	n/a	n/a	n/a	n/a	n/a	n/a	n/a	n/a	n/a	n/a	n/a	n/a	n/a	n/a	n/a
2816.256	n/a	PROB	1408128	n/a	LTP089	ltpFR	7	n/a	n/a	n/a	n/a	n/a	n/a	n/a	11	1	1	9	n/a	n/a	n/a	n/a	n/a
2823.268	n/a	STOP	1411634	n/a	LTP089	ltpFR	7	n/a	n/a	n/a	n/a	n/a	n/a	n/a	n/a	n/a	n/a	n/a	n/a	n/a	n/a	n/a	n/a
2824.214	n/a	WORD	1412107	wordpools/wasnorm_wordpool.txt	LTP089	ltpFR	7	10	1	ZOO	1637	n/a	n/a	0	n/a	0	0	0	0.57763671875	0.412841796875	1	upper	zerothre.ttf
2827.222	n/a	START	1413611	n/a	LTP089	ltpFR	7	n/a	n/a	n/a	n/a	n/a	n/a	n/a	n/a	n/a	n/a	n/a	n/a	n/a	n/a	n/a	n/a
2828.046	n/a	PROB	1414023	n/a	LTP089	ltpFR	7	n/a	n/a	n/a	n/a	n/a	n/a	n/a	25	9	8	8	n/a	n/a	n/a	n/a	n/a
2831.988	n/a	PROB	1415994	n/a	LTP089	ltpFR	7	n/a	n/a	n/a	n/a	n/a	n/a	n/a	14	3	6	5	n/a	n/a	n/a	n/a	n/a
2834.964	n/a	STOP	1417482	n/a	LTP089	ltpFR	7	n/a	n/a	n/a	n/a	n/a	n/a	n/a	n/a	n/a	n/a	n/a	n/a	n/a	n/a	n/a	n/a
2836.238	n/a	WORD	1418119	wordpools/wasnorm_wordpool.txt	LTP089	ltpFR	7	10	1	HERB	704	n/a	n/a	0	n/a	0	0	0	0.57763671875	0.412841796875	1	upper	zerothre.ttf
2839.238	n/a	START	1419619	n/a	LTP089	ltpFR	7	n/a	n/a	n/a	n/a	n/a	n/a	n/a	n/a	n/a	n/a	n/a	n/a	n/a	n/a	n/a	n/a
2840.296	n/a	PROB	1420148	n/a	LTP089	ltpFR	7	n/a	n/a	n/a	n/a	n/a	n/a	n/a	18	9	3	6	n/a	n/a	n/a	n/a	n/a
2847.24	n/a	STOP	1423620	n/a	LTP089	ltpFR	7	n/a	n/a	n/a	n/a	n/a	n/a	n/a	n/a	n/a	n/a	n/a	n/a	n/a	n/a	n/a	n/a
2848.072	n/a	WORD	1424036	wordpools/wasnorm_wordpool.txt	LTP089	ltpFR	7	10	1	COOKBOOK	373	n/a	n/a	0	n/a	0	0	0	0.57763671875	0.412841796875	1	upper	zerothre.ttf
2851.08	n/a	START	1425540	n/a	LTP089	ltpFR	7	n/a	n/a	n/a	n/a	n/a	n/a	n/a	n/a	n/a	n/a	n/a	n/a	n/a	n/a	n/a	n/a
2852.23	n/a	PROB	1426115	n/a	LTP089	ltpFR	7	n/a	n/a	n/a	n/a	n/a	n/a	n/a	10	6	2	2	n/a	n/a	n/a	n/a	n/a
2859.08	n/a	STOP	1429540	n/a	LTP089	ltpFR	7	n/a	n/a	n/a	n/a	n/a	n/a	n/a	n/a	n/a	n/a	n/a	n/a	n/a	n/a	n/a	n/a
2860.154	n/a	WORD	1430077	wordpools/wasnorm_wordpool.txt	LTP089	ltpFR	7	10	1	LAUNDRY	803	n/a	n/a	0	n/a	0	0	0	0.57763671875	0.412841796875	1	upper	zerothre.ttf
2863.164	n/a	START	1431582	n/a	LTP089	ltpFR	7	n/a	n/a	n/a	n/a	n/a	n/a	n/a	n/a	n/a	n/a	n/a	n/a	n/a	n/a	n/a	n/a
2864.322	n/a	PROB	1432161	n/a	LTP089	ltpFR	7	n/a	n/a	n/a	n/a	n/a	n/a	n/a	6	1	2	3	n/a	n/a	n/a	n/a	n/a
2867.762	n/a	PROB	1433881	n/a	LTP089	ltpFR	7	n/a	n/a	n/a	n/a	n/a	n/a	n/a	8	1	2	5	n/a	n/a	n/a	n/a	n/a
2870.774	n/a	STOP	1435387	n/a	LTP089	ltpFR	7	n/a	n/a	n/a	n/a	n/a	n/a	n/a	n/a	n/a	n/a	n/a	n/a	n/a	n/a	n/a	n/a
2873.054	n/a	REC_START	1436527	n/a	LTP089	ltpFR	7	10	n/a	n/a	n/a	n/a	n/a	n/a	n/a	0	0	0	n/a	n/a	n/a	n/a	n/a
2875.444	n/a	REC_WORD	1437722	wordpools/wasnorm_wordpool.txt	LTP089	ltpFR	7	10	1	LAUNDRY	803	n/a	n/a	0	n/a	0	0	0	n/a	n/a	n/a	n/a	n/a
2879.132	n/a	REC_WORD	1439566	wordpools/wasnorm_wordpool.txt	LTP089	ltpFR	7	10	1	REFRIGERATOR	1179	n/a	n/a	0	n/a	0	0	0	n/a	n/a	n/a	n/a	n/a
2948.652	n/a	REST_REWET	1474326	n/a	LTP089	ltpFR	7	10	n/a	n/a	n/a	n/a	n/a	n/a	n/a	0	0	0	n/a	n/a	n/a	n/a	n/a
3424.156	n/a	WORD	1712078	wordpools/wasnorm_wordpool.txt	LTP089	ltpFR	7	11	0	OATS	968	n/a	n/a	2	n/a	0	0	0	0.422607421875	0.5869140625	0	lower	amplitud.ttf
3424.958	n/a	KEY_MSG	1712479	n/a	LTP089	ltpFR	7	11	n/a	n/a	n/a	n/a	n/a	n/a	n/a	0	0	0	n/a	n/a	n/a	n/a	n/a
3428.306	n/a	WORD	1714153	wordpools/wasnorm_wordpool.txt	LTP089	ltpFR	7	11	0	SANDWICH	1232	n/a	n/a	1	n/a	0	0	0	0.422607421875	0.5869140625	0	lower	amplitud.ttf
3432.506	n/a	WORD	1716253	wordpools/wasnorm_wordpool.txt	LTP089	ltpFR	7	11	0	LEG	809	n/a	n/a	1	n/a	0	0	0	0.422607421875	0.5869140625	0	lower	amplitud.ttf
3436.672	n/a	WORD	1718336	wordpools/wasnorm_wordpool.txt	LTP089	ltpFR	7	11	0	DIME	466	n/a	n/a	1	n/a	0	0	0	0.422607421875	0.5869140625	0	lower	amplitud.ttf
3440.848	n/a	WORD	1720424	wordpools/wasnorm_wordpool.txt	LTP089	ltpFR	7	11	0	LODGE	839	n/a	n/a	1	n/a	0	0	0	0.422607421875	0.5869140625	0	lower	amplitud.ttf
3444.84	n/a	WORD	1722420	wordpools/wasnorm_wordpool.txt	LTP089	ltpFR	7	11	0	CUCUMBER	421	n/a	n/a	1	n/a	0	0	0	0.422607421875	0.5869140625	0	lower	amplitud.ttf
3448.94	n/a	WORD	1724470	wordpools/wasnorm_wordpool.txt	LTP089	ltpFR	7	11	0	SALAD	1224	n/a	n/a	0	n/a	0	0	0	0.422607421875	0.5869140625	0	lower	amplitud.ttf
3452.998	n/a	WORD	1726499	wordpools/wasnorm_wordpool.txt	LTP089	ltpFR	7	11	0	MEAL	882	n/a	n/a	0	n/a	0	0	0	0.422607421875	0.5869140625	0	lower	amplitud.ttf
3457.006	n/a	WORD	1728503	wordpools/wasnorm_wordpool.txt	LTP089	ltpFR	7	11	0	ASSOCIATE	49	n/a	n/a	0	n/a	0	0	0	0.422607421875	0.5869140625	0	lower	amplitud.ttf
3460.922	n/a	WORD	1730461	wordpools/wasnorm_wordpool.txt	LTP089	ltpFR	7	11	0	ENEMY	534	n/a	n/a	0	n/a	0	0	0	0.422607421875	0.5869140625	0	lower	amplitud.ttf
3464.872	n/a	WORD	1732436	wordpools/wasnorm_wordpool.txt	LTP089	ltpFR	7	11	0	CENT	270	n/a	n/a	0	n/a	0	0	0	0.422607421875	0.5869140625	0	lower	amplitud.ttf
3468.764	n/a	WORD	1734382	wordpools/wasnorm_wordpool.txt	LTP089	ltpFR	7	11	0	BRUNETTE	181	n/a	n/a	0	n/a	0	0	0	0.422607421875	0.5869140625	0	lower	amplitud.ttf
3472.598	n/a	WORD	1736299	wordpools/wasnorm_wordpool.txt	LTP089	ltpFR	7	11	0	POCKET	1093	n/a	n/a	0	n/a	0	0	0	0.422607421875	0.5869140625	0	lower	amplitud.ttf
3476.556	n/a	WORD	1738278	wordpools/wasnorm_wordpool.txt	LTP089	ltpFR	7	11	0	BODY	145	n/a	n/a	1	n/a	0	0	0	0.422607421875	0.5869140625	0	lower	amplitud.ttf
3480.554	n/a	WORD	1740277	wordpools/wasnorm_wordpool.txt	LTP089	ltpFR	7	11	0	FREEZER	604	n/a	n/a	1	n/a	0	0	0	0.422607421875	0.5869140625	0	lower	amplitud.ttf
3484.488	n/a	WORD	1742244	wordpools/wasnorm_wordpool.txt	LTP089	ltpFR	7	11	0	DINER	467	n/a	n/a	n/a	n/a	0	0	0	0.422607421875	0.5869140625	0	lower	amplitud.ttf
3487.512	n/a	SLOW_MSG	1743756	n/a	LTP089	ltpFR	7	11	n/a	n/a	n/a	n/a	n/a	n/a	n/a	0	0	0	n/a	n/a	n/a	n/a	n/a
3491.848	n/a	REC_START	1745924	n/a	LTP089	ltpFR	7	11	n/a	n/a	n/a	n/a	n/a	n/a	n/a	0	0	0	n/a	n/a	n/a	n/a	n/a
3497.25	n/a	REC_WORD	1748625	wordpools/wasnorm_wordpool.txt	LTP089	ltpFR	7	11	0	LODGE	839	n/a	n/a	1	n/a	0	0	0	n/a	n/a	n/a	n/a	n/a
3497.918	n/a	REC_WORD	1748959	wordpools/wasnorm_wordpool.txt	LTP089	ltpFR	7	11	0	BRUNETTE	181	n/a	n/a	0	n/a	0	0	0	n/a	n/a	n/a	n/a	n/a
3498.626	n/a	REC_WORD	1749313	wordpools/wasnorm_wordpool.txt	LTP089	ltpFR	7	11	0	POCKET	1093	n/a	n/a	0	n/a	0	0	0	n/a	n/a	n/a	n/a	n/a
3499.154	n/a	REC_WORD	1749577	wordpools/wasnorm_wordpool.txt	LTP089	ltpFR	7	11	0	FREEZER	604	n/a	n/a	1	n/a	0	0	0	n/a	n/a	n/a	n/a	n/a
3571.536	n/a	WORD	1785768	wordpools/wasnorm_wordpool.txt	LTP089	ltpFR	7	12	1	CIGAR	308	n/a	n/a	1	n/a	0	0	0	0.57763671875	0.412841796875	1	upper	zerothre.ttf
3575.452	n/a	WORD	1787726	wordpools/wasnorm_wordpool.txt	LTP089	ltpFR	7	12	1	CIGARETTE	309	n/a	n/a	0	n/a	0	0	0	0.57763671875	0.412841796875	1	upper	zerothre.ttf
3579.544	n/a	WORD	1789772	wordpools/wasnorm_wordpool.txt	LTP089	ltpFR	7	12	1	MECHANIC	884	n/a	n/a	0	n/a	0	0	0	0.57763671875	0.412841796875	1	upper	zerothre.ttf
3583.452	n/a	WORD	1791726	wordpools/wasnorm_wordpool.txt	LTP089	ltpFR	7	12	1	ORCHID	982	n/a	n/a	0	n/a	0	0	0	0.57763671875	0.412841796875	1	upper	zerothre.ttf
3587.652	n/a	WORD	1793826	wordpools/wasnorm_wordpool.txt	LTP089	ltpFR	7	12	1	JET	756	n/a	n/a	0	n/a	0	0	0	0.57763671875	0.412841796875	1	upper	zerothre.ttf
3591.736	n/a	WORD	1795868	wordpools/wasnorm_wordpool.txt	LTP089	ltpFR	7	12	1	GAZELLE	628	n/a	n/a	0	n/a	0	0	0	0.57763671875	0.412841796875	1	upper	zerothre.ttf
3595.844	n/a	WORD	1797922	wordpools/wasnorm_wordpool.txt	LTP089	ltpFR	7	12	1	BREAST	171	n/a	n/a	0	n/a	0	0	0	0.57763671875	0.412841796875	1	upper	zerothre.ttf
3599.868	n/a	WORD	1799934	wordpools/wasnorm_wordpool.txt	LTP089	ltpFR	7	12	1	FEAST	556	n/a	n/a	1	n/a	0	0	0	0.57763671875	0.412841796875	1	upper	zerothre.ttf
3603.776	n/a	WORD	1801888	wordpools/wasnorm_wordpool.txt	LTP089	ltpFR	7	12	1	AIRCRAFT	11	n/a	n/a	1	n/a	0	0	0	0.57763671875	0.412841796875	1	upper	zerothre.ttf
3607.91	n/a	WORD	1803955	wordpools/wasnorm_wordpool.txt	LTP089	ltpFR	7	12	1	PATRIOT	1026	n/a	n/a	1	n/a	0	0	0	0.57763671875	0.412841796875	1	upper	zerothre.ttf
3612.068	n/a	WORD	1806034	wordpools/wasnorm_wordpool.txt	LTP089	ltpFR	7	12	1	GANG	619	n/a	n/a	1	n/a	0	0	0	0.57763671875	0.412841796875	1	upper	zerothre.ttf
3615.976	n/a	WORD	1807988	wordpools/wasnorm_wordpool.txt	LTP089	ltpFR	7	12	1	BEETLE	116	n/a	n/a	1	n/a	0	0	0	0.57763671875	0.412841796875	1	upper	zerothre.ttf
3619.794	n/a	WORD	1809897	wordpools/wasnorm_wordpool.txt	LTP089	ltpFR	7	12	1	SWATTER	1418	n/a	n/a	0	n/a	0	0	0	0.57763671875	0.412841796875	1	upper	zerothre.ttf
3623.76	n/a	WORD	1811880	wordpools/wasnorm_wordpool.txt	LTP089	ltpFR	7	12	1	GOAT	644	n/a	n/a	1	n/a	0	0	0	0.57763671875	0.412841796875	1	upper	zerothre.ttf
3627.586	n/a	WORD	1813793	wordpools/wasnorm_wordpool.txt	LTP089	ltpFR	7	12	1	DIAGRAM	456	n/a	n/a	1	n/a	0	0	0	0.57763671875	0.412841796875	1	upper	zerothre.ttf
3631.594	n/a	WORD	1815797	wordpools/wasnorm_wordpool.txt	LTP089	ltpFR	7	12	1	FARM	552	n/a	n/a	1	n/a	0	0	0	0.57763671875	0.412841796875	1	upper	zerothre.ttf
3634.602	n/a	START	1817301	n/a	LTP089	ltpFR	7	n/a	n/a	n/a	n/a	n/a	n/a	n/a	n/a	n/a	n/a	n/a	n/a	n/a	n/a	n/a	n/a
3635.702	n/a	PROB	1817851	n/a	LTP089	ltpFR	7	n/a	n/a	n/a	n/a	n/a	n/a	n/a	23	7	7	9	n/a	n/a	n/a	n/a	n/a
3639.918	n/a	PROB	1819959	n/a	LTP089	ltpFR	7	n/a	n/a	n/a	n/a	n/a	n/a	n/a	13	4	7	2	n/a	n/a	n/a	n/a	n/a
3643.592	n/a	PROB	1821796	n/a	LTP089	ltpFR	7	n/a	n/a	n/a	n/a	n/a	n/a	n/a	20	8	7	5	n/a	n/a	n/a	n/a	n/a
3650.602	n/a	STOP	1825301	n/a	LTP089	ltpFR	7	n/a	n/a	n/a	n/a	n/a	n/a	n/a	n/a	n/a	n/a	n/a	n/a	n/a	n/a	n/a	n/a
3652.468	n/a	REC_START	1826234	n/a	LTP089	ltpFR	7	12	n/a	n/a	n/a	n/a	n/a	n/a	n/a	0	0	0	n/a	n/a	n/a	n/a	n/a
3660.974	n/a	REC_WORD	1830487	wordpools/wasnorm_wordpool.txt	LTP089	ltpFR	7	12	1	GANG	619	n/a	n/a	1	n/a	0	0	0	n/a	n/a	n/a	n/a	n/a
3661.912	n/a	REC_WORD	1830956	wordpools/wasnorm_wordpool.txt	LTP089	ltpFR	7	12	1	AIRCRAFT	11	n/a	n/a	1	n/a	0	0	0	n/a	n/a	n/a	n/a	n/a
3662.57	n/a	REC_WORD	1831285	wordpools/wasnorm_wordpool.txt	LTP089	ltpFR	7	12	1	PATRIOT	1026	n/a	n/a	1	n/a	0	0	0	n/a	n/a	n/a	n/a	n/a
3663.154	n/a	REC_WORD	1831577	wordpools/wasnorm_wordpool.txt	LTP089	ltpFR	7	12	n/a	MISSILE	900	n/a	n/a	n/a	n/a	0	0	0	n/a	n/a	n/a	n/a	n/a
3664.018	n/a	REC_WORD_VV	1832009	wordpools/wasnorm_wordpool.txt	LTP089	ltpFR	7	12	n/a	<>	-1	n/a	n/a	n/a	n/a	0	0	0	n/a	n/a	n/a	n/a	n/a
3741.94	n/a	WORD	1870970	wordpools/wasnorm_wordpool.txt	LTP089	ltpFR	7	13	1	KITE	779	n/a	n/a	1	n/a	0	0	0	0.57763671875	0.412841796875	1	upper	zerothre.ttf
3745.832	n/a	WORD	1872916	wordpools/wasnorm_wordpool.txt	LTP089	ltpFR	7	13	1	FLEA	577	n/a	n/a	0	n/a	0	0	0	0.57763671875	0.412841796875	1	upper	zerothre.ttf
3749.732	n/a	WORD	1874866	wordpools/wasnorm_wordpool.txt	LTP089	ltpFR	7	13	1	SHACK	1273	n/a	n/a	0	n/a	0	0	0	0.57763671875	0.412841796875	1	upper	zerothre.ttf
3753.69	n/a	WORD	1876845	wordpools/wasnorm_wordpool.txt	LTP089	ltpFR	7	13	1	BRICK	172	n/a	n/a	0	n/a	0	0	0	0.57763671875	0.412841796875	1	upper	zerothre.ttf
3757.706	n/a	WORD	1878853	wordpools/wasnorm_wordpool.txt	LTP089	ltpFR	7	13	1	DEODORANT	448	n/a	n/a	0	n/a	0	0	0	0.57763671875	0.412841796875	1	upper	zerothre.ttf
3761.538	n/a	WORD	1880769	wordpools/wasnorm_wordpool.txt	LTP089	ltpFR	7	13	1	BLANKET	135	n/a	n/a	0	n/a	0	0	0	0.57763671875	0.412841796875	1	upper	zerothre.ttf
3765.466	n/a	WORD	1882733	wordpools/wasnorm_wordpool.txt	LTP089	ltpFR	7	13	1	NET	946	n/a	n/a	0	n/a	0	0	0	0.57763671875	0.412841796875	1	upper	zerothre.ttf
3769.506	n/a	WORD	1884753	wordpools/wasnorm_wordpool.txt	LTP089	ltpFR	7	13	1	TREE	1502	n/a	n/a	0	n/a	0	0	0	0.57763671875	0.412841796875	1	upper	zerothre.ttf
3773.506	n/a	WORD	1886753	wordpools/wasnorm_wordpool.txt	LTP089	ltpFR	7	13	1	MULE	931	n/a	n/a	0	n/a	0	0	0	0.57763671875	0.412841796875	1	upper	zerothre.ttf
3777.49	n/a	WORD	1888745	wordpools/wasnorm_wordpool.txt	LTP089	ltpFR	7	13	1	COD	340	n/a	n/a	1	n/a	0	0	0	0.57763671875	0.412841796875	1	upper	zerothre.ttf
3781.512	n/a	WORD	1890756	wordpools/wasnorm_wordpool.txt	LTP089	ltpFR	7	13	1	INTESTINE	742	n/a	n/a	1	n/a	0	0	0	0.57763671875	0.412841796875	1	upper	zerothre.ttf
3785.456	n/a	WORD	1892728	wordpools/wasnorm_wordpool.txt	LTP089	ltpFR	7	13	1	LIVER	833	n/a	n/a	1	n/a	0	0	0	0.57763671875	0.412841796875	1	upper	zerothre.ttf
3789.39	n/a	WORD	1894695	wordpools/wasnorm_wordpool.txt	LTP089	ltpFR	7	13	1	HOUSE	725	n/a	n/a	1	n/a	0	0	0	0.57763671875	0.412841796875	1	upper	zerothre.ttf
3793.356	n/a	WORD	1896678	wordpools/wasnorm_wordpool.txt	LTP089	ltpFR	7	13	1	VET	1560	n/a	n/a	1	n/a	0	0	0	0.57763671875	0.412841796875	1	upper	zerothre.ttf
3797.256	n/a	WORD	1898628	wordpools/wasnorm_wordpool.txt	LTP089	ltpFR	7	13	1	LETTER	813	n/a	n/a	1	n/a	0	0	0	0.57763671875	0.412841796875	1	upper	zerothre.ttf
3801.356	n/a	WORD	1900678	wordpools/wasnorm_wordpool.txt	LTP089	ltpFR	7	13	1	SUBURB	1399	n/a	n/a	1	n/a	0	0	0	0.57763671875	0.412841796875	1	upper	zerothre.ttf
3804.364	n/a	START	1902182	n/a	LTP089	ltpFR	7	n/a	n/a	n/a	n/a	n/a	n/a	n/a	n/a	n/a	n/a	n/a	n/a	n/a	n/a	n/a	n/a
3805.214	n/a	PROB	1902607	n/a	LTP089	ltpFR	7	n/a	n/a	n/a	n/a	n/a	n/a	n/a	18	8	1	9	n/a	n/a	n/a	n/a	n/a
3808.238	n/a	PROB	1904119	n/a	LTP089	ltpFR	7	n/a	n/a	n/a	n/a	n/a	n/a	n/a	15	2	7	6	n/a	n/a	n/a	n/a	n/a
3811.708	n/a	STOP	1905854	n/a	LTP089	ltpFR	7	n/a	n/a	n/a	n/a	n/a	n/a	n/a	n/a	n/a	n/a	n/a	n/a	n/a	n/a	n/a	n/a
3814.256	n/a	REC_START	1907128	n/a	LTP089	ltpFR	7	13	n/a	n/a	n/a	n/a	n/a	n/a	n/a	0	0	0	n/a	n/a	n/a	n/a	n/a
3821.654	n/a	REC_WORD	1910827	wordpools/wasnorm_wordpool.txt	LTP089	ltpFR	7	13	1	KITE	779	n/a	n/a	1	n/a	0	0	0	n/a	n/a	n/a	n/a	n/a
3822.042	n/a	REC_WORD	1911021	wordpools/wasnorm_wordpool.txt	LTP089	ltpFR	7	13	1	FLEA	577	n/a	n/a	0	n/a	0	0	0	n/a	n/a	n/a	n/a	n/a
3822.38	n/a	REC_WORD	1911190	wordpools/wasnorm_wordpool.txt	LTP089	ltpFR	7	13	0	LODGE	839	n/a	n/a	1	n/a	0	0	0	n/a	n/a	n/a	n/a	n/a
3825.116	n/a	REC_WORD	1912558	wordpools/wasnorm_wordpool.txt	LTP089	ltpFR	7	13	1	BRICK	172	n/a	n/a	0	n/a	0	0	0	n/a	n/a	n/a	n/a	n/a
3917.678	n/a	START	1958839	n/a	LTP089	ltpFR	7	n/a	n/a	n/a	n/a	n/a	n/a	n/a	n/a	n/a	n/a	n/a	n/a	n/a	n/a	n/a	n/a
3919.186	n/a	PROB	1959593	n/a	LTP089	ltpFR	7	n/a	n/a	n/a	n/a	n/a	n/a	n/a	6	2	2	2	n/a	n/a	n/a	n/a	n/a
3921.86	n/a	PROB	1960930	n/a	LTP089	ltpFR	7	n/a	n/a	n/a	n/a	n/a	n/a	n/a	10	3	1	6	n/a	n/a	n/a	n/a	n/a
3924.96	n/a	PROB	1962480	n/a	LTP089	ltpFR	7	n/a	n/a	n/a	n/a	n/a	n/a	n/a	20	4	8	8	n/a	n/a	n/a	n/a	n/a
3927.586	n/a	PROB	1963793	n/a	LTP089	ltpFR	7	n/a	n/a	n/a	n/a	n/a	n/a	n/a	18	1	9	8	n/a	n/a	n/a	n/a	n/a
3929.47	n/a	PROB	1964735	n/a	LTP089	ltpFR	7	n/a	n/a	n/a	n/a	n/a	n/a	n/a	14	1	6	7	n/a	n/a	n/a	n/a	n/a
3933.678	n/a	STOP	1966839	n/a	LTP089	ltpFR	7	n/a	n/a	n/a	n/a	n/a	n/a	n/a	n/a	n/a	n/a	n/a	n/a	n/a	n/a	n/a	n/a
3934.552	n/a	WORD	1967276	wordpools/wasnorm_wordpool.txt	LTP089	ltpFR	7	14	0	PARIS	1014	n/a	n/a	0	n/a	0	0	0	0.422607421875	0.5869140625	0	lower	amplitud.ttf
3937.56	n/a	START	1968780	n/a	LTP089	ltpFR	7	n/a	n/a	n/a	n/a	n/a	n/a	n/a	n/a	n/a	n/a	n/a	n/a	n/a	n/a	n/a	n/a
3938.56	n/a	PROB	1969280	n/a	LTP089	ltpFR	7	n/a	n/a	n/a	n/a	n/a	n/a	n/a	4	1	1	2	n/a	n/a	n/a	n/a	n/a
3943.034	n/a	PROB	1971517	n/a	LTP089	ltpFR	7	n/a	n/a	n/a	n/a	n/a	n/a	n/a	17	6	8	3	n/a	n/a	n/a	n/a	n/a
3947.526	n/a	PROB	1973763	n/a	LTP089	ltpFR	7	n/a	n/a	n/a	n/a	n/a	n/a	n/a	12	4	4	4	n/a	n/a	n/a	n/a	n/a
3950.56	n/a	PROB	1975280	n/a	LTP089	ltpFR	7	n/a	n/a	n/a	n/a	n/a	n/a	n/a	19	5	7	7	n/a	n/a	n/a	n/a	n/a
3952.988	n/a	STOP	1976494	n/a	LTP089	ltpFR	7	n/a	n/a	n/a	n/a	n/a	n/a	n/a	n/a	n/a	n/a	n/a	n/a	n/a	n/a	n/a	n/a
3954.66	n/a	WORD	1977330	wordpools/wasnorm_wordpool.txt	LTP089	ltpFR	7	14	0	TAR	1435	n/a	n/a	1	n/a	0	0	0	0.422607421875	0.5869140625	0	lower	amplitud.ttf
3957.66	n/a	START	1978830	n/a	LTP089	ltpFR	7	n/a	n/a	n/a	n/a	n/a	n/a	n/a	n/a	n/a	n/a	n/a	n/a	n/a	n/a	n/a	n/a
3958.742	n/a	PROB	1979371	n/a	LTP089	ltpFR	7	n/a	n/a	n/a	n/a	n/a	n/a	n/a	14	7	4	3	n/a	n/a	n/a	n/a	n/a
3961.342	n/a	PROB	1980671	n/a	LTP089	ltpFR	7	n/a	n/a	n/a	n/a	n/a	n/a	n/a	12	2	5	5	n/a	n/a	n/a	n/a	n/a
3963.01	n/a	PROB	1981505	n/a	LTP089	ltpFR	7	n/a	n/a	n/a	n/a	n/a	n/a	n/a	14	2	9	3	n/a	n/a	n/a	n/a	n/a
3966.71	n/a	PROB	1983355	n/a	LTP089	ltpFR	7	n/a	n/a	n/a	n/a	n/a	n/a	n/a	7	2	1	4	n/a	n/a	n/a	n/a	n/a
3969.926	n/a	PROB	1984963	n/a	LTP089	ltpFR	7	n/a	n/a	n/a	n/a	n/a	n/a	n/a	15	9	5	1	n/a	n/a	n/a	n/a	n/a
3973.294	n/a	STOP	1986647	n/a	LTP089	ltpFR	7	n/a	n/a	n/a	n/a	n/a	n/a	n/a	n/a	n/a	n/a	n/a	n/a	n/a	n/a	n/a	n/a
3974.61	n/a	WORD	1987305	wordpools/wasnorm_wordpool.txt	LTP089	ltpFR	7	14	0	ADOLESCENT	7	n/a	n/a	0	n/a	0	0	0	0.422607421875	0.5869140625	0	lower	amplitud.ttf
3977.618	n/a	START	1988809	n/a	LTP089	ltpFR	7	n/a	n/a	n/a	n/a	n/a	n/a	n/a	n/a	n/a	n/a	n/a	n/a	n/a	n/a	n/a	n/a
3978.56	n/a	PROB	1989280	n/a	LTP089	ltpFR	7	n/a	n/a	n/a	n/a	n/a	n/a	n/a	18	5	9	4	n/a	n/a	n/a	n/a	n/a
3982.768	n/a	PROB	1991384	n/a	LTP089	ltpFR	7	n/a	n/a	n/a	n/a	n/a	n/a	n/a	18	4	7	7	n/a	n/a	n/a	n/a	n/a
3985.802	n/a	PROB	1992901	n/a	LTP089	ltpFR	7	n/a	n/a	n/a	n/a	n/a	n/a	n/a	18	8	2	8	n/a	n/a	n/a	n/a	n/a
3988.734	n/a	PROB	1994367	n/a	LTP089	ltpFR	7	n/a	n/a	n/a	n/a	n/a	n/a	n/a	19	6	5	8	n/a	n/a	n/a	n/a	n/a
3992.998	n/a	STOP	1996499	n/a	LTP089	ltpFR	7	n/a	n/a	n/a	n/a	n/a	n/a	n/a	n/a	n/a	n/a	n/a	n/a	n/a	n/a	n/a	n/a
3994.542	n/a	WORD	1997271	wordpools/wasnorm_wordpool.txt	LTP089	ltpFR	7	14	0	KID	775	n/a	n/a	0	n/a	0	0	0	0.422607421875	0.5869140625	0	lower	amplitud.ttf
3997.55	n/a	START	1998775	n/a	LTP089	ltpFR	7	n/a	n/a	n/a	n/a	n/a	n/a	n/a	n/a	n/a	n/a	n/a	n/a	n/a	n/a	n/a	n/a
3998.558	n/a	PROB	1999279	n/a	LTP089	ltpFR	7	n/a	n/a	n/a	n/a	n/a	n/a	n/a	21	7	6	8	n/a	n/a	n/a	n/a	n/a
4002.434	n/a	PROB	2001217	n/a	LTP089	ltpFR	7	n/a	n/a	n/a	n/a	n/a	n/a	n/a	15	5	3	7	n/a	n/a	n/a	n/a	n/a
4004.824	n/a	PROB	2002412	n/a	LTP089	ltpFR	7	n/a	n/a	n/a	n/a	n/a	n/a	n/a	21	7	6	9	n/a	n/a	n/a	n/a	n/a
4013.55	n/a	STOP	2006775	n/a	LTP089	ltpFR	7	n/a	n/a	n/a	n/a	n/a	n/a	n/a	n/a	n/a	n/a	n/a	n/a	n/a	n/a	n/a	n/a
4014.692	n/a	WORD	2007346	wordpools/wasnorm_wordpool.txt	LTP089	ltpFR	7	14	0	TRIGGER	1507	n/a	n/a	0	n/a	0	0	0	0.422607421875	0.5869140625	0	lower	amplitud.ttf
4017.7	n/a	START	2008850	n/a	LTP089	ltpFR	7	n/a	n/a	n/a	n/a	n/a	n/a	n/a	n/a	n/a	n/a	n/a	n/a	n/a	n/a	n/a	n/a
4018.674	n/a	PROB	2009337	n/a	LTP089	ltpFR	7	n/a	n/a	n/a	n/a	n/a	n/a	n/a	19	9	3	7	n/a	n/a	n/a	n/a	n/a
4021.842	n/a	PROB	2010921	n/a	LTP089	ltpFR	7	n/a	n/a	n/a	n/a	n/a	n/a	n/a	15	2	8	5	n/a	n/a	n/a	n/a	n/a
4023.716	n/a	PROB	2011858	n/a	LTP089	ltpFR	7	n/a	n/a	n/a	n/a	n/a	n/a	n/a	13	2	8	3	n/a	n/a	n/a	n/a	n/a
4026.126	n/a	PROB	2013063	n/a	LTP089	ltpFR	7	n/a	n/a	n/a	n/a	n/a	n/a	n/a	21	8	8	6	n/a	n/a	n/a	n/a	n/a
4029.008	n/a	PROB	2014504	n/a	LTP089	ltpFR	7	n/a	n/a	n/a	n/a	n/a	n/a	n/a	22	5	9	8	n/a	n/a	n/a	n/a	n/a
4032.784	n/a	STOP	2016392	n/a	LTP089	ltpFR	7	n/a	n/a	n/a	n/a	n/a	n/a	n/a	n/a	n/a	n/a	n/a	n/a	n/a	n/a	n/a	n/a
4034.824	n/a	WORD	2017412	wordpools/wasnorm_wordpool.txt	LTP089	ltpFR	7	14	0	BACK	65	n/a	n/a	0	n/a	0	0	0	0.422607421875	0.5869140625	0	lower	amplitud.ttf
4037.834	n/a	START	2018917	n/a	LTP089	ltpFR	7	n/a	n/a	n/a	n/a	n/a	n/a	n/a	n/a	n/a	n/a	n/a	n/a	n/a	n/a	n/a	n/a
4038.774	n/a	PROB	2019387	n/a	LTP089	ltpFR	7	n/a	n/a	n/a	n/a	n/a	n/a	n/a	15	5	8	2	n/a	n/a	n/a	n/a	n/a
4040.84	n/a	PROB	2020420	n/a	LTP089	ltpFR	7	n/a	n/a	n/a	n/a	n/a	n/a	n/a	15	5	9	1	n/a	n/a	n/a	n/a	n/a
4042.866	n/a	PROB	2021433	n/a	LTP089	ltpFR	7	n/a	n/a	n/a	n/a	n/a	n/a	n/a	13	7	3	3	n/a	n/a	n/a	n/a	n/a
4044.658	n/a	PROB	2022329	n/a	LTP089	ltpFR	7	n/a	n/a	n/a	n/a	n/a	n/a	n/a	18	8	7	3	n/a	n/a	n/a	n/a	n/a
4046.658	n/a	PROB	2023329	n/a	LTP089	ltpFR	7	n/a	n/a	n/a	n/a	n/a	n/a	n/a	14	4	8	2	n/a	n/a	n/a	n/a	n/a
4049.358	n/a	PROB	2024679	n/a	LTP089	ltpFR	7	n/a	n/a	n/a	n/a	n/a	n/a	n/a	17	3	5	9	n/a	n/a	n/a	n/a	n/a
4052.738	n/a	STOP	2026369	n/a	LTP089	ltpFR	7	n/a	n/a	n/a	n/a	n/a	n/a	n/a	n/a	n/a	n/a	n/a	n/a	n/a	n/a	n/a	n/a
4054.816	n/a	WORD	2027408	wordpools/wasnorm_wordpool.txt	LTP089	ltpFR	7	14	0	CLIPPERS	324	n/a	n/a	0	n/a	0	0	0	0.422607421875	0.5869140625	0	lower	amplitud.ttf
4057.824	n/a	START	2028912	n/a	LTP089	ltpFR	7	n/a	n/a	n/a	n/a	n/a	n/a	n/a	n/a	n/a	n/a	n/a	n/a	n/a	n/a	n/a	n/a
4058.966	n/a	PROB	2029483	n/a	LTP089	ltpFR	7	n/a	n/a	n/a	n/a	n/a	n/a	n/a	15	4	5	6	n/a	n/a	n/a	n/a	n/a
4061.656	n/a	PROB	2030828	n/a	LTP089	ltpFR	7	n/a	n/a	n/a	n/a	n/a	n/a	n/a	11	5	5	1	n/a	n/a	n/a	n/a	n/a
4063.298	n/a	PROB	2031649	n/a	LTP089	ltpFR	7	n/a	n/a	n/a	n/a	n/a	n/a	n/a	10	1	7	2	n/a	n/a	n/a	n/a	n/a
4065.506	n/a	PROB	2032753	n/a	LTP089	ltpFR	7	n/a	n/a	n/a	n/a	n/a	n/a	n/a	10	5	4	1	n/a	n/a	n/a	n/a	n/a
4068.14	n/a	PROB	2034070	n/a	LTP089	ltpFR	7	n/a	n/a	n/a	n/a	n/a	n/a	n/a	10	6	1	3	n/a	n/a	n/a	n/a	n/a
4070.274	n/a	PROB	2035137	n/a	LTP089	ltpFR	7	n/a	n/a	n/a	n/a	n/a	n/a	n/a	11	2	2	7	n/a	n/a	n/a	n/a	n/a
4072.522	n/a	STOP	2036261	n/a	LTP089	ltpFR	7	n/a	n/a	n/a	n/a	n/a	n/a	n/a	n/a	n/a	n/a	n/a	n/a	n/a	n/a	n/a	n/a
4074.998	n/a	WORD	2037499	wordpools/wasnorm_wordpool.txt	LTP089	ltpFR	7	14	0	HAMMER	680	n/a	n/a	0	n/a	0	0	0	0.422607421875	0.5869140625	0	lower	amplitud.ttf
4078.008	n/a	START	2039004	n/a	LTP089	ltpFR	7	n/a	n/a	n/a	n/a	n/a	n/a	n/a	n/a	n/a	n/a	n/a	n/a	n/a	n/a	n/a	n/a
4078.998	n/a	PROB	2039499	n/a	LTP089	ltpFR	7	n/a	n/a	n/a	n/a	n/a	n/a	n/a	9	4	3	2	n/a	n/a	n/a	n/a	n/a
4081.432	n/a	PROB	2040716	n/a	LTP089	ltpFR	7	n/a	n/a	n/a	n/a	n/a	n/a	n/a	7	2	3	2	n/a	n/a	n/a	n/a	n/a
4084.232	n/a	PROB	2042116	n/a	LTP089	ltpFR	7	n/a	n/a	n/a	n/a	n/a	n/a	n/a	7	3	2	2	n/a	n/a	n/a	n/a	n/a
4086.424	n/a	PROB	2043212	n/a	LTP089	ltpFR	7	n/a	n/a	n/a	n/a	n/a	n/a	n/a	14	6	3	5	n/a	n/a	n/a	n/a	n/a
4089.766	n/a	PROB	2044883	n/a	LTP089	ltpFR	7	n/a	n/a	n/a	n/a	n/a	n/a	n/a	18	8	5	5	n/a	n/a	n/a	n/a	n/a
4093.212	n/a	STOP	2046606	n/a	LTP089	ltpFR	7	n/a	n/a	n/a	n/a	n/a	n/a	n/a	n/a	n/a	n/a	n/a	n/a	n/a	n/a	n/a	n/a
4094.974	n/a	WORD	2047487	wordpools/wasnorm_wordpool.txt	LTP089	ltpFR	7	14	0	TREAT	1501	n/a	n/a	0	n/a	0	0	0	0.422607421875	0.5869140625	0	lower	amplitud.ttf
4097.982	n/a	START	2048991	n/a	LTP089	ltpFR	7	n/a	n/a	n/a	n/a	n/a	n/a	n/a	n/a	n/a	n/a	n/a	n/a	n/a	n/a	n/a	n/a
4098.998	n/a	PROB	2049499	n/a	LTP089	ltpFR	7	n/a	n/a	n/a	n/a	n/a	n/a	n/a	18	4	5	9	n/a	n/a	n/a	n/a	n/a
4101.898	n/a	PROB	2050949	n/a	LTP089	ltpFR	7	n/a	n/a	n/a	n/a	n/a	n/a	n/a	9	4	6	5	n/a	n/a	n/a	n/a	n/a
4104.438	n/a	PROB	2052219	n/a	LTP089	ltpFR	7	n/a	n/a	n/a	n/a	n/a	n/a	n/a	11	3	3	5	n/a	n/a	n/a	n/a	n/a
4108.706	n/a	PROB	2054353	n/a	LTP089	ltpFR	7	n/a	n/a	n/a	n/a	n/a	n/a	n/a	13	1	6	6	n/a	n/a	n/a	n/a	n/a
4113.982	n/a	STOP	2056991	n/a	LTP089	ltpFR	7	n/a	n/a	n/a	n/a	n/a	n/a	n/a	n/a	n/a	n/a	n/a	n/a	n/a	n/a	n/a	n/a
4114.872	n/a	WORD	2057436	wordpools/wasnorm_wordpool.txt	LTP089	ltpFR	7	14	0	POTTERY	1116	n/a	n/a	0	n/a	0	0	0	0.422607421875	0.5869140625	0	lower	amplitud.ttf
4117.882	n/a	START	2058941	n/a	LTP089	ltpFR	7	n/a	n/a	n/a	n/a	n/a	n/a	n/a	n/a	n/a	n/a	n/a	n/a	n/a	n/a	n/a	n/a
4119.006	n/a	PROB	2059503	n/a	LTP089	ltpFR	7	n/a	n/a	n/a	n/a	n/a	n/a	n/a	9	5	2	2	n/a	n/a	n/a	n/a	n/a
4122.146	n/a	PROB	2061073	n/a	LTP089	ltpFR	7	n/a	n/a	n/a	n/a	n/a	n/a	n/a	20	9	8	3	n/a	n/a	n/a	n/a	n/a
4125.83	n/a	PROB	2062915	n/a	LTP089	ltpFR	7	n/a	n/a	n/a	n/a	n/a	n/a	n/a	16	4	7	5	n/a	n/a	n/a	n/a	n/a
4133.882	n/a	STOP	2066941	n/a	LTP089	ltpFR	7	n/a	n/a	n/a	n/a	n/a	n/a	n/a	n/a	n/a	n/a	n/a	n/a	n/a	n/a	n/a	n/a
4134.838	n/a	WORD	2067419	wordpools/wasnorm_wordpool.txt	LTP089	ltpFR	7	14	0	WAND	1586	n/a	n/a	0	n/a	0	0	0	0.422607421875	0.5869140625	0	lower	amplitud.ttf
4137.848	n/a	START	2068924	n/a	LTP089	ltpFR	7	n/a	n/a	n/a	n/a	n/a	n/a	n/a	n/a	n/a	n/a	n/a	n/a	n/a	n/a	n/a	n/a
4139.046	n/a	PROB	2069523	n/a	LTP089	ltpFR	7	n/a	n/a	n/a	n/a	n/a	n/a	n/a	14	9	3	1	n/a	n/a	n/a	n/a	n/a
4141.764	n/a	PROB	2070882	n/a	LTP089	ltpFR	7	n/a	n/a	n/a	n/a	n/a	n/a	n/a	14	2	4	8	n/a	n/a	n/a	n/a	n/a
4146.898	n/a	PROB	2073449	n/a	LTP089	ltpFR	7	n/a	n/a	n/a	n/a	n/a	n/a	n/a	12	2	2	8	n/a	n/a	n/a	n/a	n/a
4149.046	n/a	PROB	2074523	n/a	LTP089	ltpFR	7	n/a	n/a	n/a	n/a	n/a	n/a	n/a	20	8	9	2	n/a	n/a	n/a	n/a	n/a
4152.366	n/a	STOP	2076183	n/a	LTP089	ltpFR	7	n/a	n/a	n/a	n/a	n/a	n/a	n/a	n/a	n/a	n/a	n/a	n/a	n/a	n/a	n/a	n/a
4154.804	n/a	WORD	2077402	wordpools/wasnorm_wordpool.txt	LTP089	ltpFR	7	14	0	GANGSTER	620	n/a	n/a	0	n/a	0	0	0	0.422607421875	0.5869140625	0	lower	amplitud.ttf
4157.814	n/a	START	2078907	n/a	LTP089	ltpFR	7	n/a	n/a	n/a	n/a	n/a	n/a	n/a	n/a	n/a	n/a	n/a	n/a	n/a	n/a	n/a	n/a
4158.746	n/a	PROB	2079373	n/a	LTP089	ltpFR	7	n/a	n/a	n/a	n/a	n/a	n/a	n/a	18	5	6	7	n/a	n/a	n/a	n/a	n/a
4161.52	n/a	PROB	2080760	n/a	LTP089	ltpFR	7	n/a	n/a	n/a	n/a	n/a	n/a	n/a	18	7	5	6	n/a	n/a	n/a	n/a	n/a
4164.762	n/a	PROB	2082381	n/a	LTP089	ltpFR	7	n/a	n/a	n/a	n/a	n/a	n/a	n/a	8	2	3	3	n/a	n/a	n/a	n/a	n/a
4167.454	n/a	PROB	2083727	n/a	LTP089	ltpFR	7	n/a	n/a	n/a	n/a	n/a	n/a	n/a	19	5	8	6	n/a	n/a	n/a	n/a	n/a
4173.814	n/a	STOP	2086907	n/a	LTP089	ltpFR	7	n/a	n/a	n/a	n/a	n/a	n/a	n/a	n/a	n/a	n/a	n/a	n/a	n/a	n/a	n/a	n/a
4175.022	n/a	WORD	2087511	wordpools/wasnorm_wordpool.txt	LTP089	ltpFR	7	14	0	DISHWASHER	475	n/a	n/a	0	n/a	0	0	0	0.422607421875	0.5869140625	0	lower	amplitud.ttf
4178.03	n/a	START	2089015	n/a	LTP089	ltpFR	7	n/a	n/a	n/a	n/a	n/a	n/a	n/a	n/a	n/a	n/a	n/a	n/a	n/a	n/a	n/a	n/a
4178.996	n/a	PROB	2089498	n/a	LTP089	ltpFR	7	n/a	n/a	n/a	n/a	n/a	n/a	n/a	19	5	8	6	n/a	n/a	n/a	n/a	n/a
4182.12	n/a	PROB	2091060	n/a	LTP089	ltpFR	7	n/a	n/a	n/a	n/a	n/a	n/a	n/a	21	3	8	9	n/a	n/a	n/a	n/a	n/a
4185.112	n/a	PROB	2092556	n/a	LTP089	ltpFR	7	n/a	n/a	n/a	n/a	n/a	n/a	n/a	13	2	6	5	n/a	n/a	n/a	n/a	n/a
4189.688	n/a	PROB	2094844	n/a	LTP089	ltpFR	7	n/a	n/a	n/a	n/a	n/a	n/a	n/a	14	2	3	9	n/a	n/a	n/a	n/a	n/a
4194.03	n/a	STOP	2097015	n/a	LTP089	ltpFR	7	n/a	n/a	n/a	n/a	n/a	n/a	n/a	n/a	n/a	n/a	n/a	n/a	n/a	n/a	n/a	n/a
4195.054	n/a	WORD	2097527	wordpools/wasnorm_wordpool.txt	LTP089	ltpFR	7	14	0	VACUUM	1543	n/a	n/a	0	n/a	0	0	0	0.422607421875	0.5869140625	0	lower	amplitud.ttf
4198.054	n/a	START	2099027	n/a	LTP089	ltpFR	7	n/a	n/a	n/a	n/a	n/a	n/a	n/a	n/a	n/a	n/a	n/a	n/a	n/a	n/a	n/a	n/a
4198.936	n/a	PROB	2099468	n/a	LTP089	ltpFR	7	n/a	n/a	n/a	n/a	n/a	n/a	n/a	19	7	5	7	n/a	n/a	n/a	n/a	n/a
4201.17	n/a	PROB	2100585	n/a	LTP089	ltpFR	7	n/a	n/a	n/a	n/a	n/a	n/a	n/a	11	5	5	1	n/a	n/a	n/a	n/a	n/a
4203.754	n/a	PROB	2101877	n/a	LTP089	ltpFR	7	n/a	n/a	n/a	n/a	n/a	n/a	n/a	14	5	8	1	n/a	n/a	n/a	n/a	n/a
4206.404	n/a	PROB	2103202	n/a	LTP089	ltpFR	7	n/a	n/a	n/a	n/a	n/a	n/a	n/a	11	4	5	2	n/a	n/a	n/a	n/a	n/a
4208.996	n/a	PROB	2104498	n/a	LTP089	ltpFR	7	n/a	n/a	n/a	n/a	n/a	n/a	n/a	11	5	3	3	n/a	n/a	n/a	n/a	n/a
4214.054	n/a	STOP	2107027	n/a	LTP089	ltpFR	7	n/a	n/a	n/a	n/a	n/a	n/a	n/a	n/a	n/a	n/a	n/a	n/a	n/a	n/a	n/a	n/a
4215.044	n/a	WORD	2107522	wordpools/wasnorm_wordpool.txt	LTP089	ltpFR	7	14	0	EUROPE	541	n/a	n/a	0	n/a	0	0	0	0.422607421875	0.5869140625	0	lower	amplitud.ttf
4218.046	n/a	START	2109023	n/a	LTP089	ltpFR	7	n/a	n/a	n/a	n/a	n/a	n/a	n/a	n/a	n/a	n/a	n/a	n/a	n/a	n/a	n/a	n/a
4219.144	n/a	PROB	2109572	n/a	LTP089	ltpFR	7	n/a	n/a	n/a	n/a	n/a	n/a	n/a	16	7	6	3	n/a	n/a	n/a	n/a	n/a
4221.878	n/a	PROB	2110939	n/a	LTP089	ltpFR	7	n/a	n/a	n/a	n/a	n/a	n/a	n/a	12	2	8	2	n/a	n/a	n/a	n/a	n/a
4223.686	n/a	PROB	2111843	n/a	LTP089	ltpFR	7	n/a	n/a	n/a	n/a	n/a	n/a	n/a	17	1	9	7	n/a	n/a	n/a	n/a	n/a
4226.428	n/a	PROB	2113214	n/a	LTP089	ltpFR	7	n/a	n/a	n/a	n/a	n/a	n/a	n/a	9	6	2	1	n/a	n/a	n/a	n/a	n/a
4229.278	n/a	PROB	2114639	n/a	LTP089	ltpFR	7	n/a	n/a	n/a	n/a	n/a	n/a	n/a	16	2	6	8	n/a	n/a	n/a	n/a	n/a
4234.046	n/a	STOP	2117023	n/a	LTP089	ltpFR	7	n/a	n/a	n/a	n/a	n/a	n/a	n/a	n/a	n/a	n/a	n/a	n/a	n/a	n/a	n/a	n/a
4235.136	n/a	WORD	2117568	wordpools/wasnorm_wordpool.txt	LTP089	ltpFR	7	14	0	CARPET	247	n/a	n/a	0	n/a	0	0	0	0.422607421875	0.5869140625	0	lower	amplitud.ttf
4238.144	n/a	START	2119072	n/a	LTP089	ltpFR	7	n/a	n/a	n/a	n/a	n/a	n/a	n/a	n/a	n/a	n/a	n/a	n/a	n/a	n/a	n/a	n/a
4239.278	n/a	PROB	2119639	n/a	LTP089	ltpFR	7	n/a	n/a	n/a	n/a	n/a	n/a	n/a	12	2	5	5	n/a	n/a	n/a	n/a	n/a
4240.628	n/a	PROB	2120314	n/a	LTP089	ltpFR	7	n/a	n/a	n/a	n/a	n/a	n/a	n/a	11	6	1	4	n/a	n/a	n/a	n/a	n/a
4243.578	n/a	PROB	2121789	n/a	LTP089	ltpFR	7	n/a	n/a	n/a	n/a	n/a	n/a	n/a	13	8	1	4	n/a	n/a	n/a	n/a	n/a
4247.47	n/a	PROB	2123735	n/a	LTP089	ltpFR	7	n/a	n/a	n/a	n/a	n/a	n/a	n/a	9	1	7	1	n/a	n/a	n/a	n/a	n/a
4249.07	n/a	PROB	2124535	n/a	LTP089	ltpFR	7	n/a	n/a	n/a	n/a	n/a	n/a	n/a	14	3	5	6	n/a	n/a	n/a	n/a	n/a
4254.146	n/a	STOP	2127073	n/a	LTP089	ltpFR	7	n/a	n/a	n/a	n/a	n/a	n/a	n/a	n/a	n/a	n/a	n/a	n/a	n/a	n/a	n/a	n/a
4256.062	n/a	REC_START	2128031	n/a	LTP089	ltpFR	7	14	n/a	n/a	n/a	n/a	n/a	n/a	n/a	0	0	0	n/a	n/a	n/a	n/a	n/a
4259.878	n/a	REC_WORD	2129939	wordpools/wasnorm_wordpool.txt	LTP089	ltpFR	7	14	0	TAR	1435	n/a	n/a	1	n/a	0	0	0	n/a	n/a	n/a	n/a	n/a
4273.792	n/a	REC_WORD	2136896	wordpools/wasnorm_wordpool.txt	LTP089	ltpFR	7	14	1	CHIMPANZEE	302	n/a	n/a	3	n/a	0	0	0	n/a	n/a	n/a	n/a	n/a
4278.956	n/a	REC_WORD	2139478	wordpools/wasnorm_wordpool.txt	LTP089	ltpFR	7	14	0	EUROPE	541	n/a	n/a	0	n/a	0	0	0	n/a	n/a	n/a	n/a	n/a
4348.192	n/a	REC_START	2174096	n/a	LTP089	ltpFR	7	n/a	n/a	n/a	n/a	n/a	n/a	n/a	n/a	0	0	0	n/a	n/a	n/a	n/a	n/a
4350.622	n/a	FFR_REC_WORD	2175311	wordpools/wasnorm_wordpool.txt	LTP089	ltpFR	7	n/a	1	CHIMPANZEE	302	n/a	n/a	3	n/a	0	0	0	n/a	n/a	n/a	n/a	n/a
4351.804	n/a	FFR_REC_WORD	2175902	wordpools/wasnorm_wordpool.txt	LTP089	ltpFR	7	n/a	0	TAR	1435	n/a	n/a	1	n/a	0	0	0	n/a	n/a	n/a	n/a	n/a
4352.886	n/a	FFR_REC_WORD	2176443	wordpools/wasnorm_wordpool.txt	LTP089	ltpFR	7	n/a	1	KITE	779	n/a	n/a	1	n/a	0	0	0	n/a	n/a	n/a	n/a	n/a
4353.684	n/a	FFR_REC_WORD	2176842	wordpools/wasnorm_wordpool.txt	LTP089	ltpFR	7	n/a	0	LODGE	839	n/a	n/a	1	n/a	0	0	0	n/a	n/a	n/a	n/a	n/a
4354.472	n/a	FFR_REC_WORD	2177236	wordpools/wasnorm_wordpool.txt	LTP089	ltpFR	7	n/a	1	BRICK	172	n/a	n/a	0	n/a	0	0	0	n/a	n/a	n/a	n/a	n/a
4355.58	n/a	FFR_REC_WORD	2177790	wordpools/wasnorm_wordpool.txt	LTP089	ltpFR	7	n/a	n/a	ANT	25	n/a	n/a	n/a	n/a	0	0	0	n/a	n/a	n/a	n/a	n/a
4356.174	n/a	FFR_REC_WORD	2178087	wordpools/wasnorm_wordpool.txt	LTP089	ltpFR	7	n/a	0	ANTEATER	26	n/a	n/a	0	n/a	0	0	0	n/a	n/a	n/a	n/a	n/a
4361.762	n/a	FFR_REC_WORD	2180881	wordpools/wasnorm_wordpool.txt	LTP089	ltpFR	7	n/a	0	SUPERMARKET	1409	n/a	n/a	0	n/a	0	0	0	n/a	n/a	n/a	n/a	n/a
4465.546	n/a	FFR_REC_WORD	2232773	wordpools/wasnorm_wordpool.txt	LTP089	ltpFR	7	n/a	1	GANG	619	n/a	n/a	1	n/a	0	0	0	n/a	n/a	n/a	n/a	n/a
4469.298	n/a	FFR_REC_WORD	2234649	wordpools/wasnorm_wordpool.txt	LTP089	ltpFR	7	n/a	0	SUIT	1402	n/a	n/a	1	n/a	0	0	0	n/a	n/a	n/a	n/a	n/a
4470.096	n/a	FFR_REC_WORD	2235048	wordpools/wasnorm_wordpool.txt	LTP089	ltpFR	7	n/a	0	SKIRT	1319	n/a	n/a	1	n/a	0	0	0	n/a	n/a	n/a	n/a	n/a
