onset	duration	trial_type	sample	stim_file	subject	experiment	session	trial	item_name	item_num	list	answer	test_x	test_y	test_z
218.882	n/a	SESS_START	109441	n/a	LTP280	ltpFR2	6	n/a	n/a	n/a	n/a	n/a	0	0	0
227.692	n/a	START	113846	n/a	LTP280	ltpFR2	6	n/a	n/a	n/a	-1	n/a	n/a	n/a	n/a
227.724	n/a	PROB	113862	n/a	LTP280	ltpFR2	6	n/a	n/a	n/a	-1	14	4	4	6
228.89	n/a	PROB	114445	n/a	LTP280	ltpFR2	6	n/a	n/a	n/a	-1	10	6	1	3
229.926	n/a	PROB	114963	n/a	LTP280	ltpFR2	6	n/a	n/a	n/a	-1	13	2	4	7
231.378	n/a	PROB	115689	n/a	LTP280	ltpFR2	6	n/a	n/a	n/a	-1	14	6	6	2
232.394	n/a	PROB	116197	n/a	LTP280	ltpFR2	6	n/a	n/a	n/a	-1	15	9	5	1
233.644	n/a	PROB	116822	n/a	LTP280	ltpFR2	6	n/a	n/a	n/a	-1	17	3	9	5
235.33	n/a	PROB	117665	n/a	LTP280	ltpFR2	6	n/a	n/a	n/a	-1	18	3	6	9
236.914	n/a	PROB	118457	n/a	LTP280	ltpFR2	6	n/a	n/a	n/a	-1	16	3	5	8
238.384	n/a	STOP	119192	n/a	LTP280	ltpFR2	6	n/a	n/a	n/a	-1	n/a	n/a	n/a	n/a
259.168	n/a	DISTRACTOR	129584	n/a	LTP280	ltpFR2	6	1	n/a	n/a	n/a	n/a	0	0	0
259.168	n/a	START	129584	n/a	LTP280	ltpFR2	6	n/a	n/a	n/a	1	n/a	n/a	n/a	n/a
259.2	n/a	PROB	129600	n/a	LTP280	ltpFR2	6	n/a	n/a	n/a	1	12	6	5	1
260.202	n/a	PROB	130101	n/a	LTP280	ltpFR2	6	n/a	n/a	n/a	1	17	9	2	6
261.852	n/a	PROB	130926	n/a	LTP280	ltpFR2	6	n/a	n/a	n/a	1	17	5	5	7
262.836	n/a	PROB	131418	n/a	LTP280	ltpFR2	6	n/a	n/a	n/a	1	17	8	1	6
264.038	n/a	PROB	132019	n/a	LTP280	ltpFR2	6	n/a	n/a	n/a	1	23	9	8	6
268.608	n/a	PROB	134304	n/a	LTP280	ltpFR2	6	n/a	n/a	n/a	1	12	1	4	7
269.758	n/a	PROB	134879	n/a	LTP280	ltpFR2	6	n/a	n/a	n/a	1	22	9	6	7
271.26	n/a	PROB	135630	n/a	LTP280	ltpFR2	6	n/a	n/a	n/a	1	7	2	1	3
272.594	n/a	PROB	136297	n/a	LTP280	ltpFR2	6	n/a	n/a	n/a	1	18	5	6	7
274.746	n/a	PROB	137373	n/a	LTP280	ltpFR2	6	n/a	n/a	n/a	1	16	5	6	5
276.214	n/a	PROB	138107	n/a	LTP280	ltpFR2	6	n/a	n/a	n/a	1	21	8	5	9
277.598	n/a	PROB	138799	n/a	LTP280	ltpFR2	6	n/a	n/a	n/a	1	16	4	8	4
279.384	n/a	PROB	139692	n/a	LTP280	ltpFR2	6	n/a	n/a	n/a	1	18	9	8	1
280.418	n/a	PROB	140209	n/a	LTP280	ltpFR2	6	n/a	n/a	n/a	1	12	7	2	3
281.872	n/a	STOP	140936	n/a	LTP280	ltpFR2	6	n/a	n/a	n/a	1	n/a	n/a	n/a	n/a
284.256	n/a	WORD	142128	wordpools/wasnorm_wordpool_576.txt	LTP280	ltpFR2	6	1	DIME	466	n/a	n/a	0	0	0
287.074	n/a	WORD	143537	wordpools/wasnorm_wordpool_576.txt	LTP280	ltpFR2	6	1	BLENDER	136	n/a	n/a	0	0	0
289.842	n/a	WORD	144921	wordpools/wasnorm_wordpool_576.txt	LTP280	ltpFR2	6	1	UNCLE	1536	n/a	n/a	0	0	0
292.646	n/a	WORD	146323	wordpools/wasnorm_wordpool_576.txt	LTP280	ltpFR2	6	1	SUNRISE	1407	n/a	n/a	0	0	0
295.18	n/a	WORD	147590	wordpools/wasnorm_wordpool_576.txt	LTP280	ltpFR2	6	1	TWIG	1527	n/a	n/a	0	0	0
297.75	n/a	WORD	148875	wordpools/wasnorm_wordpool_576.txt	LTP280	ltpFR2	6	1	LEADER	807	n/a	n/a	0	0	0
300.352	n/a	WORD	150176	wordpools/wasnorm_wordpool_576.txt	LTP280	ltpFR2	6	1	WORKER	1621	n/a	n/a	0	0	0
302.954	n/a	WORD	151477	wordpools/wasnorm_wordpool_576.txt	LTP280	ltpFR2	6	1	PLUTO	1092	n/a	n/a	0	0	0
305.574	n/a	WORD	152787	wordpools/wasnorm_wordpool_576.txt	LTP280	ltpFR2	6	1	MATCH	878	n/a	n/a	0	0	0
308.294	n/a	WORD	154147	wordpools/wasnorm_wordpool_576.txt	LTP280	ltpFR2	6	1	PANTHER	1009	n/a	n/a	0	0	0
310.944	n/a	WORD	155472	wordpools/wasnorm_wordpool_576.txt	LTP280	ltpFR2	6	1	POSSUM	1112	n/a	n/a	0	0	0
313.73	n/a	WORD	156865	wordpools/wasnorm_wordpool_576.txt	LTP280	ltpFR2	6	1	DONOR	485	n/a	n/a	0	0	0
316.25	n/a	WORD	158125	wordpools/wasnorm_wordpool_576.txt	LTP280	ltpFR2	6	1	ULCER	1533	n/a	n/a	0	0	0
319.018	n/a	WORD	159509	wordpools/wasnorm_wordpool_576.txt	LTP280	ltpFR2	6	1	DENTIST	447	n/a	n/a	0	0	0
321.62	n/a	WORD	160810	wordpools/wasnorm_wordpool_576.txt	LTP280	ltpFR2	6	1	VALVE	1546	n/a	n/a	0	0	0
324.272	n/a	WORD	162136	wordpools/wasnorm_wordpool_576.txt	LTP280	ltpFR2	6	1	TUTU	1524	n/a	n/a	0	0	0
326.79	n/a	WORD	163395	wordpools/wasnorm_wordpool_576.txt	LTP280	ltpFR2	6	1	SAUSAGE	1238	n/a	n/a	0	0	0
329.26	n/a	WORD	164630	wordpools/wasnorm_wordpool_576.txt	LTP280	ltpFR2	6	1	TREAT	1501	n/a	n/a	0	0	0
331.928	n/a	WORD	165964	wordpools/wasnorm_wordpool_576.txt	LTP280	ltpFR2	6	1	YACHT	1629	n/a	n/a	0	0	0
334.598	n/a	WORD	167299	wordpools/wasnorm_wordpool_576.txt	LTP280	ltpFR2	6	1	PADDLE	1000	n/a	n/a	0	0	0
337.184	n/a	WORD	168592	wordpools/wasnorm_wordpool_576.txt	LTP280	ltpFR2	6	1	STOMACH	1384	n/a	n/a	0	0	0
339.852	n/a	WORD	169926	wordpools/wasnorm_wordpool_576.txt	LTP280	ltpFR2	6	1	COUSIN	392	n/a	n/a	0	0	0
342.522	n/a	WORD	171261	wordpools/wasnorm_wordpool_576.txt	LTP280	ltpFR2	6	1	DRESSER	496	n/a	n/a	0	0	0
345.156	n/a	WORD	172578	wordpools/wasnorm_wordpool_576.txt	LTP280	ltpFR2	6	1	RAFT	1159	n/a	n/a	0	0	0
346.774	n/a	START	173387	n/a	LTP280	ltpFR2	6	n/a	n/a	n/a	2	n/a	n/a	n/a	n/a
347.938	n/a	DISTRACTOR	173969	n/a	LTP280	ltpFR2	6	1	n/a	n/a	n/a	n/a	0	0	0
347.96	n/a	PROB	173980	n/a	LTP280	ltpFR2	6	n/a	n/a	n/a	2	16	7	1	8
349.144	n/a	PROB	174572	n/a	LTP280	ltpFR2	6	n/a	n/a	n/a	2	10	6	2	2
350.462	n/a	PROB	175231	n/a	LTP280	ltpFR2	6	n/a	n/a	n/a	2	11	3	1	7
351.596	n/a	PROB	175798	n/a	LTP280	ltpFR2	6	n/a	n/a	n/a	2	20	8	6	6
352.98	n/a	PROB	176490	n/a	LTP280	ltpFR2	6	n/a	n/a	n/a	2	9	4	3	2
354.148	n/a	PROB	177074	n/a	LTP280	ltpFR2	6	n/a	n/a	n/a	2	14	4	6	4
355.132	n/a	PROB	177566	n/a	LTP280	ltpFR2	6	n/a	n/a	n/a	2	20	9	6	5
356.418	n/a	PROB	178209	n/a	LTP280	ltpFR2	6	n/a	n/a	n/a	2	14	5	5	4
357.5	n/a	PROB	178750	n/a	LTP280	ltpFR2	6	n/a	n/a	n/a	2	14	1	9	4
358.668	n/a	PROB	179334	n/a	LTP280	ltpFR2	6	n/a	n/a	n/a	2	20	7	7	6
359.952	n/a	PROB	179976	n/a	LTP280	ltpFR2	6	n/a	n/a	n/a	2	17	4	9	4
361.854	n/a	PROB	180927	n/a	LTP280	ltpFR2	6	n/a	n/a	n/a	2	19	2	9	8
363.306	n/a	PROB	181653	n/a	LTP280	ltpFR2	6	n/a	n/a	n/a	2	15	3	8	4
364.406	n/a	PROB	182203	n/a	LTP280	ltpFR2	6	n/a	n/a	n/a	2	9	3	5	1
365.59	n/a	PROB	182795	n/a	LTP280	ltpFR2	6	n/a	n/a	n/a	2	16	6	3	8
367.542	n/a	PROB	183771	n/a	LTP280	ltpFR2	6	n/a	n/a	n/a	2	19	2	8	9
369.026	n/a	PROB	184513	n/a	LTP280	ltpFR2	6	n/a	n/a	n/a	2	5	1	3	1
369.978	n/a	STOP	184989	n/a	LTP280	ltpFR2	6	n/a	n/a	n/a	2	n/a	n/a	n/a	n/a
372.58	n/a	REC_START	186290	n/a	LTP280	ltpFR2	6	1	n/a	n/a	n/a	n/a	0	0	0
372.996	n/a	REC_WORD	186498	wordpools/wasnorm_wordpool_576.txt	LTP280	ltpFR2	6	1	PANTHER	1009	n/a	n/a	0	0	0
373.554	n/a	REC_WORD	186777	wordpools/wasnorm_wordpool_576.txt	LTP280	ltpFR2	6	1	POSSUM	1112	n/a	n/a	0	0	0
374.212	n/a	REC_WORD	187106	wordpools/wasnorm_wordpool_576.txt	LTP280	ltpFR2	6	1	ULCER	1533	n/a	n/a	0	0	0
374.73	n/a	REC_WORD	187365	wordpools/wasnorm_wordpool_576.txt	LTP280	ltpFR2	6	1	SAUSAGE	1238	n/a	n/a	0	0	0
375.716	n/a	REC_WORD	187858	wordpools/wasnorm_wordpool_576.txt	LTP280	ltpFR2	6	1	TREAT	1501	n/a	n/a	0	0	0
376.446	n/a	REC_WORD	188223	wordpools/wasnorm_wordpool_576.txt	LTP280	ltpFR2	6	1	UNCLE	1536	n/a	n/a	0	0	0
377.002	n/a	REC_WORD	188501	wordpools/wasnorm_wordpool_576.txt	LTP280	ltpFR2	6	1	BLENDER	136	n/a	n/a	0	0	0
387.28	n/a	REC_WORD	193640	wordpools/wasnorm_wordpool_576.txt	LTP280	ltpFR2	6	1	SUNRISE	1407	n/a	n/a	0	0	0
411.446	n/a	REC_WORD	205723	wordpools/wasnorm_wordpool_576.txt	LTP280	ltpFR2	6	1	COUSIN	392	n/a	n/a	0	0	0
463.224	n/a	WORD	231612	wordpools/wasnorm_wordpool_576.txt	LTP280	ltpFR2	6	2	PEPPER	1047	n/a	n/a	0	0	0
465.876	n/a	WORD	232938	wordpools/wasnorm_wordpool_576.txt	LTP280	ltpFR2	6	2	REBEL	1172	n/a	n/a	0	0	0
468.694	n/a	WORD	234347	wordpools/wasnorm_wordpool_576.txt	LTP280	ltpFR2	6	2	FLAG	573	n/a	n/a	0	0	0
471.464	n/a	WORD	235732	wordpools/wasnorm_wordpool_576.txt	LTP280	ltpFR2	6	2	SERVANT	1271	n/a	n/a	0	0	0
474.25	n/a	WORD	237125	wordpools/wasnorm_wordpool_576.txt	LTP280	ltpFR2	6	2	SNAIL	1332	n/a	n/a	0	0	0
476.952	n/a	WORD	238476	wordpools/wasnorm_wordpool_576.txt	LTP280	ltpFR2	6	2	CATCHER	258	n/a	n/a	0	0	0
479.754	n/a	WORD	239877	wordpools/wasnorm_wordpool_576.txt	LTP280	ltpFR2	6	2	SIBLING	1301	n/a	n/a	0	0	0
482.506	n/a	WORD	241253	wordpools/wasnorm_wordpool_576.txt	LTP280	ltpFR2	6	2	GALLON	618	n/a	n/a	0	0	0
485.294	n/a	WORD	242647	wordpools/wasnorm_wordpool_576.txt	LTP280	ltpFR2	6	2	PECAN	1036	n/a	n/a	0	0	0
487.828	n/a	WORD	243914	wordpools/wasnorm_wordpool_576.txt	LTP280	ltpFR2	6	2	GLOVE	642	n/a	n/a	0	0	0
490.648	n/a	WORD	245324	wordpools/wasnorm_wordpool_576.txt	LTP280	ltpFR2	6	2	HAND	683	n/a	n/a	0	0	0
493.166	n/a	WORD	246583	wordpools/wasnorm_wordpool_576.txt	LTP280	ltpFR2	6	2	CLOUD	328	n/a	n/a	0	0	0
495.768	n/a	WORD	247884	wordpools/wasnorm_wordpool_576.txt	LTP280	ltpFR2	6	2	ACTOR	5	n/a	n/a	0	0	0
498.304	n/a	WORD	249152	wordpools/wasnorm_wordpool_576.txt	LTP280	ltpFR2	6	2	ORCHID	982	n/a	n/a	0	0	0
500.972	n/a	WORD	250486	wordpools/wasnorm_wordpool_576.txt	LTP280	ltpFR2	6	2	GARLIC	624	n/a	n/a	0	0	0
503.708	n/a	WORD	251854	wordpools/wasnorm_wordpool_576.txt	LTP280	ltpFR2	6	2	PIMPLE	1071	n/a	n/a	0	0	0
506.51	n/a	WORD	253255	wordpools/wasnorm_wordpool_576.txt	LTP280	ltpFR2	6	2	MOTEL	919	n/a	n/a	0	0	0
509.128	n/a	WORD	254564	wordpools/wasnorm_wordpool_576.txt	LTP280	ltpFR2	6	2	IGLOO	734	n/a	n/a	0	0	0
511.932	n/a	WORD	255966	wordpools/wasnorm_wordpool_576.txt	LTP280	ltpFR2	6	2	MAPLE	866	n/a	n/a	0	0	0
514.684	n/a	WORD	257342	wordpools/wasnorm_wordpool_576.txt	LTP280	ltpFR2	6	2	DORM	488	n/a	n/a	0	0	0
517.22	n/a	WORD	258610	wordpools/wasnorm_wordpool_576.txt	LTP280	ltpFR2	6	2	GRAVE	658	n/a	n/a	0	0	0
519.922	n/a	WORD	259961	wordpools/wasnorm_wordpool_576.txt	LTP280	ltpFR2	6	2	WIDOW	1608	n/a	n/a	0	0	0
522.608	n/a	WORD	261304	wordpools/wasnorm_wordpool_576.txt	LTP280	ltpFR2	6	2	FREEZER	604	n/a	n/a	0	0	0
525.244	n/a	WORD	262622	wordpools/wasnorm_wordpool_576.txt	LTP280	ltpFR2	6	2	STAR	1373	n/a	n/a	0	0	0
526.862	n/a	START	263431	n/a	LTP280	ltpFR2	6	n/a	n/a	n/a	3	n/a	n/a	n/a	n/a
527.756	n/a	DISTRACTOR	263878	n/a	LTP280	ltpFR2	6	2	n/a	n/a	n/a	n/a	0	0	0
527.762	n/a	PROB	263881	n/a	LTP280	ltpFR2	6	n/a	n/a	n/a	3	16	4	6	6
529.496	n/a	PROB	264748	n/a	LTP280	ltpFR2	6	n/a	n/a	n/a	3	15	5	8	2
530.598	n/a	PROB	265299	n/a	LTP280	ltpFR2	6	n/a	n/a	n/a	3	8	4	2	2
531.948	n/a	PROB	265974	n/a	LTP280	ltpFR2	6	n/a	n/a	n/a	3	12	2	2	6
533.452	n/a	PROB	266726	n/a	LTP280	ltpFR2	6	n/a	n/a	n/a	3	22	7	7	8
535.27	n/a	PROB	267635	n/a	LTP280	ltpFR2	6	n/a	n/a	n/a	3	22	8	5	9
537.804	n/a	PROB	268902	n/a	LTP280	ltpFR2	6	n/a	n/a	n/a	3	21	9	3	9
539.738	n/a	PROB	269869	n/a	LTP280	ltpFR2	6	n/a	n/a	n/a	3	18	4	7	7
541.224	n/a	PROB	270612	n/a	LTP280	ltpFR2	6	n/a	n/a	n/a	3	20	9	3	8
543.176	n/a	PROB	271588	n/a	LTP280	ltpFR2	6	n/a	n/a	n/a	3	7	3	3	1
544.228	n/a	PROB	272114	n/a	LTP280	ltpFR2	6	n/a	n/a	n/a	3	20	3	9	8
545.91	n/a	PROB	272955	n/a	LTP280	ltpFR2	6	n/a	n/a	n/a	3	18	6	6	6
547.062	n/a	PROB	273531	n/a	LTP280	ltpFR2	6	n/a	n/a	n/a	3	25	8	8	9
550.86	n/a	STOP	275430	n/a	LTP280	ltpFR2	6	n/a	n/a	n/a	3	n/a	n/a	n/a	n/a
552.632	n/a	REC_START	276316	n/a	LTP280	ltpFR2	6	2	n/a	n/a	n/a	n/a	0	0	0
553.284	n/a	REC_WORD	276642	wordpools/wasnorm_wordpool_576.txt	LTP280	ltpFR2	6	2	SERVANT	1271	n/a	n/a	0	0	0
554.284	n/a	REC_WORD_VV	277142	wordpools/wasnorm_wordpool_576.txt	LTP280	ltpFR2	6	2	<>	-1	n/a	n/a	0	0	0
555.522	n/a	REC_WORD	277761	wordpools/wasnorm_wordpool_576.txt	LTP280	ltpFR2	6	2	SIBLING	1301	n/a	n/a	0	0	0
557.302	n/a	REC_WORD	278651	wordpools/wasnorm_wordpool_576.txt	LTP280	ltpFR2	6	2	REBEL	1172	n/a	n/a	0	0	0
557.802	n/a	REC_WORD	278901	wordpools/wasnorm_wordpool_576.txt	LTP280	ltpFR2	6	2	FLAG	573	n/a	n/a	0	0	0
558.49	n/a	REC_WORD	279245	wordpools/wasnorm_wordpool_576.txt	LTP280	ltpFR2	6	2	GLOVE	642	n/a	n/a	0	0	0
559.116	n/a	REC_WORD	279558	wordpools/wasnorm_wordpool_576.txt	LTP280	ltpFR2	6	2	HAND	683	n/a	n/a	0	0	0
560.27	n/a	REC_WORD	280135	wordpools/wasnorm_wordpool_576.txt	LTP280	ltpFR2	6	2	PIMPLE	1071	n/a	n/a	0	0	0
567.538	n/a	REC_WORD	283769	wordpools/wasnorm_wordpool_576.txt	LTP280	ltpFR2	6	2	GARLIC	624	n/a	n/a	0	0	0
568.56	n/a	REC_WORD	284280	wordpools/wasnorm_wordpool_576.txt	LTP280	ltpFR2	6	2	PEPPER	1047	n/a	n/a	0	0	0
598.626	n/a	REC_WORD_VV	299313	wordpools/wasnorm_wordpool_576.txt	LTP280	ltpFR2	6	2	<>	-1	n/a	n/a	0	0	0
643.226	n/a	WORD	321613	wordpools/wasnorm_wordpool_576.txt	LTP280	ltpFR2	6	3	MOP	916	n/a	n/a	0	0	0
645.962	n/a	WORD	322981	wordpools/wasnorm_wordpool_576.txt	LTP280	ltpFR2	6	3	POCKET	1093	n/a	n/a	0	0	0
648.664	n/a	WORD	324332	wordpools/wasnorm_wordpool_576.txt	LTP280	ltpFR2	6	3	KNAPSACK	783	n/a	n/a	0	0	0
651.434	n/a	WORD	325717	wordpools/wasnorm_wordpool_576.txt	LTP280	ltpFR2	6	3	PALACE	1006	n/a	n/a	0	0	0
654.152	n/a	WORD	327076	wordpools/wasnorm_wordpool_576.txt	LTP280	ltpFR2	6	3	SHELTER	1282	n/a	n/a	0	0	0
656.754	n/a	WORD	328377	wordpools/wasnorm_wordpool_576.txt	LTP280	ltpFR2	6	3	POSTAGE	1113	n/a	n/a	0	0	0
659.524	n/a	WORD	329762	wordpools/wasnorm_wordpool_576.txt	LTP280	ltpFR2	6	3	FRECKLE	602	n/a	n/a	0	0	0
662.026	n/a	WORD	331013	wordpools/wasnorm_wordpool_576.txt	LTP280	ltpFR2	6	3	TRANSPLANT	1496	n/a	n/a	0	0	0
664.794	n/a	WORD	332397	wordpools/wasnorm_wordpool_576.txt	LTP280	ltpFR2	6	3	CONTRACT	368	n/a	n/a	0	0	0
667.264	n/a	WORD	333632	wordpools/wasnorm_wordpool_576.txt	LTP280	ltpFR2	6	3	OUTFIT	988	n/a	n/a	0	0	0
670.032	n/a	WORD	335016	wordpools/wasnorm_wordpool_576.txt	LTP280	ltpFR2	6	3	ARMY	39	n/a	n/a	0	0	0
672.852	n/a	WORD	336426	wordpools/wasnorm_wordpool_576.txt	LTP280	ltpFR2	6	3	GIRL	637	n/a	n/a	0	0	0
675.588	n/a	WORD	337794	wordpools/wasnorm_wordpool_576.txt	LTP280	ltpFR2	6	3	HEART	697	n/a	n/a	0	0	0
678.39	n/a	WORD	339195	wordpools/wasnorm_wordpool_576.txt	LTP280	ltpFR2	6	3	BRIEFCASE	175	n/a	n/a	0	0	0
680.926	n/a	WORD	340463	wordpools/wasnorm_wordpool_576.txt	LTP280	ltpFR2	6	3	ZIPPER	1636	n/a	n/a	0	0	0
683.762	n/a	WORD	341881	wordpools/wasnorm_wordpool_576.txt	LTP280	ltpFR2	6	3	SHORTS	1293	n/a	n/a	0	0	0
686.264	n/a	WORD	343132	wordpools/wasnorm_wordpool_576.txt	LTP280	ltpFR2	6	3	NOMAD	955	n/a	n/a	0	0	0
688.8	n/a	WORD	344400	wordpools/wasnorm_wordpool_576.txt	LTP280	ltpFR2	6	3	MONSTER	912	n/a	n/a	0	0	0
691.584	n/a	WORD	345792	wordpools/wasnorm_wordpool_576.txt	LTP280	ltpFR2	6	3	KIDNEY	776	n/a	n/a	0	0	0
694.42	n/a	WORD	347210	wordpools/wasnorm_wordpool_576.txt	LTP280	ltpFR2	6	3	SUITCASE	1403	n/a	n/a	0	0	0
696.872	n/a	WORD	348436	wordpools/wasnorm_wordpool_576.txt	LTP280	ltpFR2	6	3	HORSE	719	n/a	n/a	0	0	0
699.64	n/a	WORD	349820	wordpools/wasnorm_wordpool_576.txt	LTP280	ltpFR2	6	3	VAGRANT	1544	n/a	n/a	0	0	0
702.36	n/a	WORD	351180	wordpools/wasnorm_wordpool_576.txt	LTP280	ltpFR2	6	3	XEROX	1628	n/a	n/a	0	0	0
704.846	n/a	WORD	352423	wordpools/wasnorm_wordpool_576.txt	LTP280	ltpFR2	6	3	REPORT	1184	n/a	n/a	0	0	0
706.464	n/a	START	353232	n/a	LTP280	ltpFR2	6	n/a	n/a	n/a	4	n/a	n/a	n/a	n/a
707.318	n/a	DISTRACTOR	353659	n/a	LTP280	ltpFR2	6	3	n/a	n/a	n/a	n/a	0	0	0
707.348	n/a	PROB	353674	n/a	LTP280	ltpFR2	6	n/a	n/a	n/a	4	12	8	2	2
708.4	n/a	PROB	354200	n/a	LTP280	ltpFR2	6	n/a	n/a	n/a	4	9	1	7	1
709.468	n/a	PROB	354734	n/a	LTP280	ltpFR2	6	n/a	n/a	n/a	4	14	5	6	3
710.75	n/a	PROB	355375	n/a	LTP280	ltpFR2	6	n/a	n/a	n/a	4	17	6	4	7
712.586	n/a	PROB	356293	n/a	LTP280	ltpFR2	6	n/a	n/a	n/a	4	20	7	7	6
713.936	n/a	PROB	356968	n/a	LTP280	ltpFR2	6	n/a	n/a	n/a	4	11	4	1	6
715.204	n/a	PROB	357602	n/a	LTP280	ltpFR2	6	n/a	n/a	n/a	4	12	1	4	7
716.424	n/a	PROB	358212	n/a	LTP280	ltpFR2	6	n/a	n/a	n/a	4	9	1	6	2
717.856	n/a	PROB	358928	n/a	LTP280	ltpFR2	6	n/a	n/a	n/a	4	18	6	8	4
719.292	n/a	PROB	359646	n/a	LTP280	ltpFR2	6	n/a	n/a	n/a	4	8	2	4	2
720.592	n/a	PROB	360296	n/a	LTP280	ltpFR2	6	n/a	n/a	n/a	4	25	8	9	8
722.144	n/a	PROB	361072	n/a	LTP280	ltpFR2	6	n/a	n/a	n/a	4	17	7	7	3
723.796	n/a	PROB	361898	n/a	LTP280	ltpFR2	6	n/a	n/a	n/a	4	16	2	6	8
725.264	n/a	PROB	362632	n/a	LTP280	ltpFR2	6	n/a	n/a	n/a	4	19	8	9	2
726.714	n/a	PROB	363357	n/a	LTP280	ltpFR2	6	n/a	n/a	n/a	4	18	3	9	6
728.066	n/a	PROB	364033	n/a	LTP280	ltpFR2	6	n/a	n/a	n/a	4	14	6	4	4
729.016	n/a	STOP	364508	n/a	LTP280	ltpFR2	6	n/a	n/a	n/a	4	n/a	n/a	n/a	n/a
732.27	n/a	REC_START	366135	n/a	LTP280	ltpFR2	6	3	n/a	n/a	n/a	n/a	0	0	0
732.518	n/a	REC_WORD	366259	wordpools/wasnorm_wordpool_576.txt	LTP280	ltpFR2	6	3	KIDNEY	776	n/a	n/a	0	0	0
733.05	n/a	REC_WORD_VV	366525	wordpools/wasnorm_wordpool_576.txt	LTP280	ltpFR2	6	3	<>	-1	n/a	n/a	0	0	0
733.838	n/a	REC_WORD	366919	wordpools/wasnorm_wordpool_576.txt	LTP280	ltpFR2	6	3	SUITCASE	1403	n/a	n/a	0	0	0
734.988	n/a	REC_WORD	367494	wordpools/wasnorm_wordpool_576.txt	LTP280	ltpFR2	6	3	NOMAD	955	n/a	n/a	0	0	0
736.434	n/a	REC_WORD	368217	wordpools/wasnorm_wordpool_576.txt	LTP280	ltpFR2	6	3	VAGRANT	1544	n/a	n/a	0	0	0
737.402	n/a	REC_WORD	368701	wordpools/wasnorm_wordpool_576.txt	LTP280	ltpFR2	6	3	XEROX	1628	n/a	n/a	0	0	0
739.986	n/a	REC_WORD	369993	wordpools/wasnorm_wordpool_576.txt	LTP280	ltpFR2	6	3	PALACE	1006	n/a	n/a	0	0	0
740.66	n/a	REC_WORD	370330	wordpools/wasnorm_wordpool_576.txt	LTP280	ltpFR2	6	3	SHELTER	1282	n/a	n/a	0	0	0
743.21	n/a	REC_WORD	371605	wordpools/wasnorm_wordpool_576.txt	LTP280	ltpFR2	6	3	POSTAGE	1113	n/a	n/a	0	0	0
745.152	n/a	REC_WORD	372576	wordpools/wasnorm_wordpool_576.txt	LTP280	ltpFR2	6	3	MOP	916	n/a	n/a	0	0	0
745.974	n/a	REC_WORD	372987	wordpools/wasnorm_wordpool_576.txt	LTP280	ltpFR2	6	3	KNAPSACK	783	n/a	n/a	0	0	0
746.942	n/a	REC_WORD	373471	wordpools/wasnorm_wordpool_576.txt	LTP280	ltpFR2	6	3	POCKET	1093	n/a	n/a	0	0	0
749.718	n/a	REC_WORD_VV	374859	wordpools/wasnorm_wordpool_576.txt	LTP280	ltpFR2	6	3	<>	-1	n/a	n/a	0	0	0
753.576	n/a	REC_WORD	376788	wordpools/wasnorm_wordpool_576.txt	LTP280	ltpFR2	6	3	GIRL	637	n/a	n/a	0	0	0
754.182	n/a	REC_WORD	377091	wordpools/wasnorm_wordpool_576.txt	LTP280	ltpFR2	6	3	HEART	697	n/a	n/a	0	0	0
763.562	n/a	REC_WORD	381781	wordpools/wasnorm_wordpool_576.txt	LTP280	ltpFR2	6	3	ARMY	39	n/a	n/a	0	0	0
822.73	n/a	DISTRACTOR	411365	n/a	LTP280	ltpFR2	6	4	n/a	n/a	n/a	n/a	0	0	0
822.73	n/a	START	411365	n/a	LTP280	ltpFR2	6	n/a	n/a	n/a	5	n/a	n/a	n/a	n/a
822.746	n/a	PROB	411373	n/a	LTP280	ltpFR2	6	n/a	n/a	n/a	5	21	3	9	9
823.93	n/a	PROB	411965	n/a	LTP280	ltpFR2	6	n/a	n/a	n/a	5	19	8	3	8
825.282	n/a	PROB	412641	n/a	LTP280	ltpFR2	6	n/a	n/a	n/a	5	18	4	5	9
826.468	n/a	PROB	413234	n/a	LTP280	ltpFR2	6	n/a	n/a	n/a	5	10	3	4	3
827.818	n/a	PROB	413909	n/a	LTP280	ltpFR2	6	n/a	n/a	n/a	5	12	8	2	2
828.834	n/a	PROB	414417	n/a	LTP280	ltpFR2	6	n/a	n/a	n/a	5	17	7	4	6
830.27	n/a	PROB	415135	n/a	LTP280	ltpFR2	6	n/a	n/a	n/a	5	18	6	6	6
831.204	n/a	PROB	415602	n/a	LTP280	ltpFR2	6	n/a	n/a	n/a	5	15	6	2	7
832.62	n/a	PROB	416310	n/a	LTP280	ltpFR2	6	n/a	n/a	n/a	5	12	2	6	4
833.954	n/a	PROB	416977	n/a	LTP280	ltpFR2	6	n/a	n/a	n/a	5	14	5	5	4
834.94	n/a	PROB	417470	n/a	LTP280	ltpFR2	6	n/a	n/a	n/a	5	14	8	1	5
836.106	n/a	PROB	418053	n/a	LTP280	ltpFR2	6	n/a	n/a	n/a	5	18	6	3	8
837.592	n/a	PROB	418796	n/a	LTP280	ltpFR2	6	n/a	n/a	n/a	5	13	4	8	1
838.792	n/a	PROB	419396	n/a	LTP280	ltpFR2	6	n/a	n/a	n/a	5	9	5	1	3
839.86	n/a	PROB	419930	n/a	LTP280	ltpFR2	6	n/a	n/a	n/a	5	17	6	2	9
841.628	n/a	PROB	420814	n/a	LTP280	ltpFR2	6	n/a	n/a	n/a	5	22	8	6	8
843.564	n/a	PROB	421782	n/a	LTP280	ltpFR2	6	n/a	n/a	n/a	5	17	8	8	1
844.564	n/a	PROB	422282	n/a	LTP280	ltpFR2	6	n/a	n/a	n/a	5	19	5	7	7
845.89	n/a	STOP	422945	n/a	LTP280	ltpFR2	6	n/a	n/a	n/a	5	n/a	n/a	n/a	n/a
847.684	n/a	WORD	423842	wordpools/wasnorm_wordpool_576.txt	LTP280	ltpFR2	6	4	TORTOISE	1486	n/a	n/a	0	0	0
850.454	n/a	WORD	425227	wordpools/wasnorm_wordpool_576.txt	LTP280	ltpFR2	6	4	SALMON	1227	n/a	n/a	0	0	0
852.938	n/a	WORD	426469	wordpools/wasnorm_wordpool_576.txt	LTP280	ltpFR2	6	4	FRAME	600	n/a	n/a	0	0	0
855.624	n/a	WORD	427812	wordpools/wasnorm_wordpool_576.txt	LTP280	ltpFR2	6	4	AIRPLANE	12	n/a	n/a	0	0	0
858.428	n/a	WORD	429214	wordpools/wasnorm_wordpool_576.txt	LTP280	ltpFR2	6	4	CHIPMUNK	304	n/a	n/a	0	0	0
860.996	n/a	WORD	430498	wordpools/wasnorm_wordpool_576.txt	LTP280	ltpFR2	6	4	ANKLE	24	n/a	n/a	0	0	0
863.73	n/a	WORD	431865	wordpools/wasnorm_wordpool_576.txt	LTP280	ltpFR2	6	4	HELMET	702	n/a	n/a	0	0	0
866.268	n/a	WORD	433134	wordpools/wasnorm_wordpool_576.txt	LTP280	ltpFR2	6	4	OFFICE	972	n/a	n/a	0	0	0
868.786	n/a	WORD	434393	wordpools/wasnorm_wordpool_576.txt	LTP280	ltpFR2	6	4	BABY	64	n/a	n/a	0	0	0
871.504	n/a	WORD	435752	wordpools/wasnorm_wordpool_576.txt	LTP280	ltpFR2	6	4	ATLAS	53	n/a	n/a	0	0	0
873.956	n/a	WORD	436978	wordpools/wasnorm_wordpool_576.txt	LTP280	ltpFR2	6	4	COD	340	n/a	n/a	0	0	0
876.41	n/a	WORD	438205	wordpools/wasnorm_wordpool_576.txt	LTP280	ltpFR2	6	4	DIVER	476	n/a	n/a	0	0	0
879.16	n/a	WORD	439580	wordpools/wasnorm_wordpool_576.txt	LTP280	ltpFR2	6	4	SCALPEL	1243	n/a	n/a	0	0	0
881.728	n/a	WORD	440864	wordpools/wasnorm_wordpool_576.txt	LTP280	ltpFR2	6	4	HATCHET	691	n/a	n/a	0	0	0
884.416	n/a	WORD	442208	wordpools/wasnorm_wordpool_576.txt	LTP280	ltpFR2	6	4	HIKER	708	n/a	n/a	0	0	0
887.066	n/a	WORD	443533	wordpools/wasnorm_wordpool_576.txt	LTP280	ltpFR2	6	4	BELLY	119	n/a	n/a	0	0	0
889.602	n/a	WORD	444801	wordpools/wasnorm_wordpool_576.txt	LTP280	ltpFR2	6	4	MARROW	872	n/a	n/a	0	0	0
892.054	n/a	WORD	446027	wordpools/wasnorm_wordpool_576.txt	LTP280	ltpFR2	6	4	COMET	353	n/a	n/a	0	0	0
894.64	n/a	WORD	447320	wordpools/wasnorm_wordpool_576.txt	LTP280	ltpFR2	6	4	ACTRESS	6	n/a	n/a	0	0	0
897.142	n/a	WORD	448571	wordpools/wasnorm_wordpool_576.txt	LTP280	ltpFR2	6	4	BACKBONE	66	n/a	n/a	0	0	0
899.928	n/a	WORD	449964	wordpools/wasnorm_wordpool_576.txt	LTP280	ltpFR2	6	4	CEILING	265	n/a	n/a	0	0	0
902.63	n/a	WORD	451315	wordpools/wasnorm_wordpool_576.txt	LTP280	ltpFR2	6	4	RUG	1215	n/a	n/a	0	0	0
905.15	n/a	WORD	452575	wordpools/wasnorm_wordpool_576.txt	LTP280	ltpFR2	6	4	SPIDER	1351	n/a	n/a	0	0	0
907.952	n/a	WORD	453976	wordpools/wasnorm_wordpool_576.txt	LTP280	ltpFR2	6	4	COMPASS	358	n/a	n/a	0	0	0
909.57	n/a	START	454785	n/a	LTP280	ltpFR2	6	n/a	n/a	n/a	6	n/a	n/a	n/a	n/a
910.48	n/a	DISTRACTOR	455240	n/a	LTP280	ltpFR2	6	4	n/a	n/a	n/a	n/a	0	0	0
910.504	n/a	PROB	455252	n/a	LTP280	ltpFR2	6	n/a	n/a	n/a	6	17	8	5	4
912.306	n/a	PROB	456153	n/a	LTP280	ltpFR2	6	n/a	n/a	n/a	6	25	8	9	8
913.856	n/a	PROB	456928	n/a	LTP280	ltpFR2	6	n/a	n/a	n/a	6	19	6	4	9
914.974	n/a	PROB	457487	n/a	LTP280	ltpFR2	6	n/a	n/a	n/a	6	20	6	6	8
916.61	n/a	PROB	458305	n/a	LTP280	ltpFR2	6	n/a	n/a	n/a	6	15	4	8	3
917.776	n/a	PROB	458888	n/a	LTP280	ltpFR2	6	n/a	n/a	n/a	6	17	5	3	9
919.044	n/a	PROB	459522	n/a	LTP280	ltpFR2	6	n/a	n/a	n/a	6	14	6	1	7
920.18	n/a	PROB	460090	n/a	LTP280	ltpFR2	6	n/a	n/a	n/a	6	13	4	2	7
922.848	n/a	PROB	461424	n/a	LTP280	ltpFR2	6	n/a	n/a	n/a	6	11	3	6	2
924.082	n/a	PROB	462041	n/a	LTP280	ltpFR2	6	n/a	n/a	n/a	6	18	6	4	8
925.15	n/a	PROB	462575	n/a	LTP280	ltpFR2	6	n/a	n/a	n/a	6	18	6	6	6
926.084	n/a	PROB	463042	n/a	LTP280	ltpFR2	6	n/a	n/a	n/a	6	17	6	9	2
927.436	n/a	PROB	463718	n/a	LTP280	ltpFR2	6	n/a	n/a	n/a	6	22	8	6	8
929.27	n/a	PROB	464635	n/a	LTP280	ltpFR2	6	n/a	n/a	n/a	6	14	5	4	5
931.306	n/a	PROB	465653	n/a	LTP280	ltpFR2	6	n/a	n/a	n/a	6	8	1	2	5
932.332	n/a	STOP	466166	n/a	LTP280	ltpFR2	6	n/a	n/a	n/a	6	n/a	n/a	n/a	n/a
935.492	n/a	REC_START	467746	n/a	LTP280	ltpFR2	6	4	n/a	n/a	n/a	n/a	0	0	0
935.712	n/a	REC_WORD	467856	wordpools/wasnorm_wordpool_576.txt	LTP280	ltpFR2	6	4	CEILING	265	n/a	n/a	0	0	0
936.404	n/a	REC_WORD	468202	wordpools/wasnorm_wordpool_576.txt	LTP280	ltpFR2	6	4	RUG	1215	n/a	n/a	0	0	0
936.928	n/a	REC_WORD	468464	wordpools/wasnorm_wordpool_576.txt	LTP280	ltpFR2	6	4	SPIDER	1351	n/a	n/a	0	0	0
937.952	n/a	REC_WORD	468976	wordpools/wasnorm_wordpool_576.txt	LTP280	ltpFR2	6	4	COMPASS	358	n/a	n/a	0	0	0
939.368	n/a	REC_WORD	469684	wordpools/wasnorm_wordpool_576.txt	LTP280	ltpFR2	6	4	COD	340	n/a	n/a	0	0	0
939.796	n/a	REC_WORD	469898	wordpools/wasnorm_wordpool_576.txt	LTP280	ltpFR2	6	4	SALMON	1227	n/a	n/a	0	0	0
940.54	n/a	REC_WORD	470270	wordpools/wasnorm_wordpool_576.txt	LTP280	ltpFR2	6	4	TORTOISE	1486	n/a	n/a	0	0	0
942.032	n/a	REC_WORD	471016	wordpools/wasnorm_wordpool_576.txt	LTP280	ltpFR2	6	4	ATLAS	53	n/a	n/a	0	0	0
945.51	n/a	REC_WORD	472755	wordpools/wasnorm_wordpool_576.txt	LTP280	ltpFR2	6	4	AIRPLANE	12	n/a	n/a	0	0	0
946.574	n/a	REC_WORD	473287	wordpools/wasnorm_wordpool_576.txt	LTP280	ltpFR2	6	4	HELMET	702	n/a	n/a	0	0	0
947.248	n/a	REC_WORD	473624	wordpools/wasnorm_wordpool_576.txt	LTP280	ltpFR2	6	4	BABY	64	n/a	n/a	0	0	0
951.574	n/a	REC_WORD_VV	475787	wordpools/wasnorm_wordpool_576.txt	LTP280	ltpFR2	6	4	<>	-1	n/a	n/a	0	0	0
965.91	n/a	REC_WORD_VV	482955	wordpools/wasnorm_wordpool_576.txt	LTP280	ltpFR2	6	4	<>	-1	n/a	n/a	0	0	0
971.174	n/a	REC_WORD_VV	485587	wordpools/wasnorm_wordpool_576.txt	LTP280	ltpFR2	6	4	<>	-1	n/a	n/a	0	0	0
1025.934	n/a	DISTRACTOR	512967	n/a	LTP280	ltpFR2	6	5	n/a	n/a	n/a	n/a	0	0	0
1025.936	n/a	START	512968	n/a	LTP280	ltpFR2	6	n/a	n/a	n/a	7	n/a	n/a	n/a	n/a
1025.952	n/a	PROB	512976	n/a	LTP280	ltpFR2	6	n/a	n/a	n/a	7	20	9	4	7
1027.438	n/a	PROB	513719	n/a	LTP280	ltpFR2	6	n/a	n/a	n/a	7	24	9	6	9
1030.374	n/a	PROB	515187	n/a	LTP280	ltpFR2	6	n/a	n/a	n/a	7	26	7	9	9
1032.074	n/a	PROB	516037	n/a	LTP280	ltpFR2	6	n/a	n/a	n/a	7	19	8	9	2
1033.558	n/a	PROB	516779	n/a	LTP280	ltpFR2	6	n/a	n/a	n/a	7	9	4	4	1
1034.542	n/a	PROB	517271	n/a	LTP280	ltpFR2	6	n/a	n/a	n/a	7	18	5	2	9
1035.76	n/a	PROB	517880	n/a	LTP280	ltpFR2	6	n/a	n/a	n/a	7	18	1	9	8
1037.262	n/a	PROB	518631	n/a	LTP280	ltpFR2	6	n/a	n/a	n/a	7	14	5	7	2
1038.414	n/a	PROB	519207	n/a	LTP280	ltpFR2	6	n/a	n/a	n/a	7	8	1	3	4
1039.33	n/a	PROB	519665	n/a	LTP280	ltpFR2	6	n/a	n/a	n/a	7	13	1	6	6
1040.316	n/a	PROB	520158	n/a	LTP280	ltpFR2	6	n/a	n/a	n/a	7	17	7	6	4
1041.766	n/a	PROB	520883	n/a	LTP280	ltpFR2	6	n/a	n/a	n/a	7	13	1	3	9
1042.9	n/a	PROB	521450	n/a	LTP280	ltpFR2	6	n/a	n/a	n/a	7	13	4	2	7
1044.268	n/a	PROB	522134	n/a	LTP280	ltpFR2	6	n/a	n/a	n/a	7	16	7	3	6
1045.552	n/a	PROB	522776	n/a	LTP280	ltpFR2	6	n/a	n/a	n/a	7	9	3	3	3
1046.502	n/a	PROB	523251	n/a	LTP280	ltpFR2	6	n/a	n/a	n/a	7	19	5	5	9
1047.604	n/a	PROB	523802	n/a	LTP280	ltpFR2	6	n/a	n/a	n/a	7	18	3	6	7
1048.926	n/a	STOP	524463	n/a	LTP280	ltpFR2	6	n/a	n/a	n/a	7	n/a	n/a	n/a	n/a
1051.024	n/a	WORD	525512	wordpools/wasnorm_wordpool_576.txt	LTP280	ltpFR2	6	5	SPHINX	1349	n/a	n/a	0	0	0
1053.558	n/a	WORD	526779	wordpools/wasnorm_wordpool_576.txt	LTP280	ltpFR2	6	5	KETCHUP	771	n/a	n/a	0	0	0
1056.112	n/a	WORD	528056	wordpools/wasnorm_wordpool_576.txt	LTP280	ltpFR2	6	5	BULLET	194	n/a	n/a	0	0	0
1058.78	n/a	WORD	529390	wordpools/wasnorm_wordpool_576.txt	LTP280	ltpFR2	6	5	TUBA	1515	n/a	n/a	0	0	0
1061.284	n/a	WORD	530642	wordpools/wasnorm_wordpool_576.txt	LTP280	ltpFR2	6	5	WHISTLE	1606	n/a	n/a	0	0	0
1063.868	n/a	WORD	531934	wordpools/wasnorm_wordpool_576.txt	LTP280	ltpFR2	6	5	SURVEY	1414	n/a	n/a	0	0	0
1066.438	n/a	WORD	533219	wordpools/wasnorm_wordpool_576.txt	LTP280	ltpFR2	6	5	ROBBER	1197	n/a	n/a	0	0	0
1069.104	n/a	WORD	534552	wordpools/wasnorm_wordpool_576.txt	LTP280	ltpFR2	6	5	TOMBSTONE	1478	n/a	n/a	0	0	0
1071.706	n/a	WORD	535853	wordpools/wasnorm_wordpool_576.txt	LTP280	ltpFR2	6	5	COBRA	336	n/a	n/a	0	0	0
1074.542	n/a	WORD	537271	wordpools/wasnorm_wordpool_576.txt	LTP280	ltpFR2	6	5	RATTLE	1170	n/a	n/a	0	0	0
1076.978	n/a	WORD	538489	wordpools/wasnorm_wordpool_576.txt	LTP280	ltpFR2	6	5	CHAUFFEUR	283	n/a	n/a	0	0	0
1079.798	n/a	WORD	539899	wordpools/wasnorm_wordpool_576.txt	LTP280	ltpFR2	6	5	SPACE	1345	n/a	n/a	0	0	0
1082.3	n/a	WORD	541150	wordpools/wasnorm_wordpool_576.txt	LTP280	ltpFR2	6	5	LEG	809	n/a	n/a	0	0	0
1084.902	n/a	WORD	542451	wordpools/wasnorm_wordpool_576.txt	LTP280	ltpFR2	6	5	ROOSTER	1209	n/a	n/a	0	0	0
1087.472	n/a	WORD	543736	wordpools/wasnorm_wordpool_576.txt	LTP280	ltpFR2	6	5	RAZOR	1171	n/a	n/a	0	0	0
1090.224	n/a	WORD	545112	wordpools/wasnorm_wordpool_576.txt	LTP280	ltpFR2	6	5	VIRUS	1572	n/a	n/a	0	0	0
1092.708	n/a	WORD	546354	wordpools/wasnorm_wordpool_576.txt	LTP280	ltpFR2	6	5	VICTIM	1562	n/a	n/a	0	0	0
1095.528	n/a	WORD	547764	wordpools/wasnorm_wordpool_576.txt	LTP280	ltpFR2	6	5	FOX	598	n/a	n/a	0	0	0
1098.298	n/a	WORD	549149	wordpools/wasnorm_wordpool_576.txt	LTP280	ltpFR2	6	5	MUSTARD	935	n/a	n/a	0	0	0
1101.032	n/a	WORD	550516	wordpools/wasnorm_wordpool_576.txt	LTP280	ltpFR2	6	5	BREAST	171	n/a	n/a	0	0	0
1103.818	n/a	WORD	551909	wordpools/wasnorm_wordpool_576.txt	LTP280	ltpFR2	6	5	STAPLE	1371	n/a	n/a	0	0	0
1106.438	n/a	WORD	553219	wordpools/wasnorm_wordpool_576.txt	LTP280	ltpFR2	6	5	JUGGLER	763	n/a	n/a	0	0	0
1109.122	n/a	WORD	554561	wordpools/wasnorm_wordpool_576.txt	LTP280	ltpFR2	6	5	HOOK	715	n/a	n/a	0	0	0
1111.608	n/a	WORD	555804	wordpools/wasnorm_wordpool_576.txt	LTP280	ltpFR2	6	5	CRAB	397	n/a	n/a	0	0	0
1113.228	n/a	START	556614	n/a	LTP280	ltpFR2	6	n/a	n/a	n/a	8	n/a	n/a	n/a	n/a
1114.222	n/a	DISTRACTOR	557111	n/a	LTP280	ltpFR2	6	5	n/a	n/a	n/a	n/a	0	0	0
1114.246	n/a	PROB	557123	n/a	LTP280	ltpFR2	6	n/a	n/a	n/a	8	5	1	3	1
1115.212	n/a	PROB	557606	n/a	LTP280	ltpFR2	6	n/a	n/a	n/a	8	11	2	7	2
1116.546	n/a	PROB	558273	n/a	LTP280	ltpFR2	6	n/a	n/a	n/a	8	23	9	5	9
1118.596	n/a	PROB	559298	n/a	LTP280	ltpFR2	6	n/a	n/a	n/a	8	18	2	9	7
1120.4	n/a	PROB	560200	n/a	LTP280	ltpFR2	6	n/a	n/a	n/a	8	19	7	9	3
1122.1	n/a	PROB	561050	n/a	LTP280	ltpFR2	6	n/a	n/a	n/a	8	11	2	4	5
1123.468	n/a	PROB	561734	n/a	LTP280	ltpFR2	6	n/a	n/a	n/a	8	18	6	3	9
1125.288	n/a	PROB	562644	n/a	LTP280	ltpFR2	6	n/a	n/a	n/a	8	9	5	1	3
1126.338	n/a	PROB	563169	n/a	LTP280	ltpFR2	6	n/a	n/a	n/a	8	14	3	3	8
1127.754	n/a	PROB	563877	n/a	LTP280	ltpFR2	6	n/a	n/a	n/a	8	11	1	3	7
1128.688	n/a	PROB	564344	n/a	LTP280	ltpFR2	6	n/a	n/a	n/a	8	10	1	1	8
1129.674	n/a	PROB	564837	n/a	LTP280	ltpFR2	6	n/a	n/a	n/a	8	23	7	8	8
1131.142	n/a	PROB	565571	n/a	LTP280	ltpFR2	6	n/a	n/a	n/a	8	15	2	3	9
1132.526	n/a	PROB	566263	n/a	LTP280	ltpFR2	6	n/a	n/a	n/a	8	17	8	3	5
1134.262	n/a	PROB	567131	n/a	LTP280	ltpFR2	6	n/a	n/a	n/a	8	22	8	7	7
1135.832	n/a	STOP	567916	n/a	LTP280	ltpFR2	6	n/a	n/a	n/a	8	n/a	n/a	n/a	n/a
1139.048	n/a	REC_START	569524	n/a	LTP280	ltpFR2	6	5	n/a	n/a	n/a	n/a	0	0	0
1139.326	n/a	REC_WORD	569663	wordpools/wasnorm_wordpool_576.txt	LTP280	ltpFR2	6	5	SPHINX	1349	n/a	n/a	0	0	0
1140.094	n/a	REC_WORD	570047	wordpools/wasnorm_wordpool_576.txt	LTP280	ltpFR2	6	5	KETCHUP	771	n/a	n/a	0	0	0
1140.484	n/a	REC_WORD	570242	wordpools/wasnorm_wordpool_576.txt	LTP280	ltpFR2	6	5	MUSTARD	935	n/a	n/a	0	0	0
1141.298	n/a	REC_WORD	570649	wordpools/wasnorm_wordpool_576.txt	LTP280	ltpFR2	6	5	TUBA	1515	n/a	n/a	0	0	0
1142.442	n/a	REC_WORD	571221	wordpools/wasnorm_wordpool_576.txt	LTP280	ltpFR2	6	5	WHISTLE	1606	n/a	n/a	0	0	0
1143.24	n/a	REC_WORD	571620	wordpools/wasnorm_wordpool_576.txt	LTP280	ltpFR2	6	5	VIRUS	1572	n/a	n/a	0	0	0
1143.922	n/a	REC_WORD	571961	wordpools/wasnorm_wordpool_576.txt	LTP280	ltpFR2	6	5	VICTIM	1562	n/a	n/a	0	0	0
1144.774	n/a	REC_WORD	572387	wordpools/wasnorm_wordpool_576.txt	LTP280	ltpFR2	6	5	STAPLE	1371	n/a	n/a	0	0	0
1145.806	n/a	REC_WORD	572903	wordpools/wasnorm_wordpool_576.txt	LTP280	ltpFR2	6	5	BREAST	171	n/a	n/a	0	0	0
1160.222	n/a	REC_WORD	580111	wordpools/wasnorm_wordpool_576.txt	LTP280	ltpFR2	6	5	TOMBSTONE	1478	n/a	n/a	0	0	0
1163.192	n/a	REC_WORD	581596	wordpools/wasnorm_wordpool_576.txt	LTP280	ltpFR2	6	5	CHAUFFEUR	283	n/a	n/a	0	0	0
1168.58	n/a	REC_WORD	584290	wordpools/wasnorm_wordpool_576.txt	LTP280	ltpFR2	6	5	SURVEY	1414	n/a	n/a	0	0	0
1229.674	n/a	DISTRACTOR	614837	n/a	LTP280	ltpFR2	6	6	n/a	n/a	n/a	n/a	0	0	0
1229.676	n/a	START	614838	n/a	LTP280	ltpFR2	6	n/a	n/a	n/a	9	n/a	n/a	n/a	n/a
1229.708	n/a	PROB	614854	n/a	LTP280	ltpFR2	6	n/a	n/a	n/a	9	8	6	1	2
1230.676	n/a	PROB	615338	n/a	LTP280	ltpFR2	6	n/a	n/a	n/a	9	1	1	3	5
1232.778	n/a	PROB	616389	n/a	LTP280	ltpFR2	6	n/a	n/a	n/a	9	17	6	2	9
1234.364	n/a	PROB	617182	n/a	LTP280	ltpFR2	6	n/a	n/a	n/a	9	10	4	3	3
1235.48	n/a	PROB	617740	n/a	LTP280	ltpFR2	6	n/a	n/a	n/a	9	23	7	7	9
1237.282	n/a	PROB	618641	n/a	LTP280	ltpFR2	6	n/a	n/a	n/a	9	17	1	7	9
1238.8	n/a	PROB	619400	n/a	LTP280	ltpFR2	6	n/a	n/a	n/a	9	19	9	1	9
1240.0	n/a	PROB	620000	n/a	LTP280	ltpFR2	6	n/a	n/a	n/a	9	15	5	9	1
1241.202	n/a	PROB	620601	n/a	LTP280	ltpFR2	6	n/a	n/a	n/a	9	17	5	8	4
1242.786	n/a	PROB	621393	n/a	LTP280	ltpFR2	6	n/a	n/a	n/a	9	14	4	5	5
1243.97	n/a	PROB	621985	n/a	LTP280	ltpFR2	6	n/a	n/a	n/a	9	8	5	1	2
1245.322	n/a	PROB	622661	n/a	LTP280	ltpFR2	6	n/a	n/a	n/a	9	24	7	7	9
1246.956	n/a	PROB	623478	n/a	LTP280	ltpFR2	6	n/a	n/a	n/a	9	14	2	8	4
1248.592	n/a	PROB	624296	n/a	LTP280	ltpFR2	6	n/a	n/a	n/a	9	9	5	2	2
1250.01	n/a	PROB	625005	n/a	LTP280	ltpFR2	6	n/a	n/a	n/a	9	18	7	6	5
1251.694	n/a	PROB	625847	n/a	LTP280	ltpFR2	6	n/a	n/a	n/a	9	14	4	2	8
1252.898	n/a	STOP	626449	n/a	LTP280	ltpFR2	6	n/a	n/a	n/a	9	n/a	n/a	n/a	n/a
1254.764	n/a	WORD	627382	wordpools/wasnorm_wordpool_576.txt	LTP280	ltpFR2	6	6	SPOON	1357	n/a	n/a	0	0	0
1257.55	n/a	WORD	628775	wordpools/wasnorm_wordpool_576.txt	LTP280	ltpFR2	6	6	MATTRESS	879	n/a	n/a	0	0	0
1260.068	n/a	WORD	630034	wordpools/wasnorm_wordpool_576.txt	LTP280	ltpFR2	6	6	LOFT	840	n/a	n/a	0	0	0
1262.67	n/a	WORD	631335	wordpools/wasnorm_wordpool_576.txt	LTP280	ltpFR2	6	6	JELLO	754	n/a	n/a	0	0	0
1265.456	n/a	WORD	632728	wordpools/wasnorm_wordpool_576.txt	LTP280	ltpFR2	6	6	LOVER	846	n/a	n/a	0	0	0
1268.124	n/a	WORD	634062	wordpools/wasnorm_wordpool_576.txt	LTP280	ltpFR2	6	6	BEAST	108	n/a	n/a	0	0	0
1270.576	n/a	WORD	635288	wordpools/wasnorm_wordpool_576.txt	LTP280	ltpFR2	6	6	CRAYON	401	n/a	n/a	0	0	0
1273.078	n/a	WORD	636539	wordpools/wasnorm_wordpool_576.txt	LTP280	ltpFR2	6	6	COUNTRY	388	n/a	n/a	0	0	0
1275.748	n/a	WORD	637874	wordpools/wasnorm_wordpool_576.txt	LTP280	ltpFR2	6	6	COUNTY	389	n/a	n/a	0	0	0
1278.384	n/a	WORD	639192	wordpools/wasnorm_wordpool_576.txt	LTP280	ltpFR2	6	6	GOBLIN	645	n/a	n/a	0	0	0
1281.202	n/a	WORD	640601	wordpools/wasnorm_wordpool_576.txt	LTP280	ltpFR2	6	6	COOKBOOK	373	n/a	n/a	0	0	0
1284.022	n/a	WORD	642011	wordpools/wasnorm_wordpool_576.txt	LTP280	ltpFR2	6	6	SALAD	1224	n/a	n/a	0	0	0
1286.656	n/a	WORD	643328	wordpools/wasnorm_wordpool_576.txt	LTP280	ltpFR2	6	6	BANJO	82	n/a	n/a	0	0	0
1289.444	n/a	WORD	644722	wordpools/wasnorm_wordpool_576.txt	LTP280	ltpFR2	6	6	SCARECROW	1245	n/a	n/a	0	0	0
1291.928	n/a	WORD	645964	wordpools/wasnorm_wordpool_576.txt	LTP280	ltpFR2	6	6	TROMBONE	1508	n/a	n/a	0	0	0
1294.664	n/a	WORD	647332	wordpools/wasnorm_wordpool_576.txt	LTP280	ltpFR2	6	6	PLAID	1080	n/a	n/a	0	0	0
1297.2	n/a	WORD	648600	wordpools/wasnorm_wordpool_576.txt	LTP280	ltpFR2	6	6	APRON	35	n/a	n/a	0	0	0
1299.734	n/a	WORD	649867	wordpools/wasnorm_wordpool_576.txt	LTP280	ltpFR2	6	6	MASK	876	n/a	n/a	0	0	0
1302.456	n/a	WORD	651228	wordpools/wasnorm_wordpool_576.txt	LTP280	ltpFR2	6	6	BURGLAR	200	n/a	n/a	0	0	0
1305.04	n/a	WORD	652520	wordpools/wasnorm_wordpool_576.txt	LTP280	ltpFR2	6	6	PORTRAIT	1111	n/a	n/a	0	0	0
1307.742	n/a	WORD	653871	wordpools/wasnorm_wordpool_576.txt	LTP280	ltpFR2	6	6	WRENCH	1625	n/a	n/a	0	0	0
1310.36	n/a	WORD	655180	wordpools/wasnorm_wordpool_576.txt	LTP280	ltpFR2	6	6	SPARROW	1347	n/a	n/a	0	0	0
1312.912	n/a	WORD	656456	wordpools/wasnorm_wordpool_576.txt	LTP280	ltpFR2	6	6	KNIFE	785	n/a	n/a	0	0	0
1315.748	n/a	WORD	657874	wordpools/wasnorm_wordpool_576.txt	LTP280	ltpFR2	6	6	CUPBOARD	425	n/a	n/a	0	0	0
1317.368	n/a	START	658684	n/a	LTP280	ltpFR2	6	n/a	n/a	n/a	10	n/a	n/a	n/a	n/a
1318.516	n/a	DISTRACTOR	659258	n/a	LTP280	ltpFR2	6	6	n/a	n/a	n/a	n/a	0	0	0
1318.534	n/a	PROB	659267	n/a	LTP280	ltpFR2	6	n/a	n/a	n/a	10	19	7	5	7
1320.002	n/a	PROB	660001	n/a	LTP280	ltpFR2	6	n/a	n/a	n/a	10	18	8	6	4
1321.27	n/a	PROB	660635	n/a	LTP280	ltpFR2	6	n/a	n/a	n/a	10	20	5	6	9
1322.77	n/a	PROB	661385	n/a	LTP280	ltpFR2	6	n/a	n/a	n/a	10	24	8	8	7
1324.172	n/a	PROB	662086	n/a	LTP280	ltpFR2	6	n/a	n/a	n/a	10	17	3	6	8
1325.574	n/a	PROB	662787	n/a	LTP280	ltpFR2	6	n/a	n/a	n/a	10	12	1	7	4
1326.924	n/a	PROB	663462	n/a	LTP280	ltpFR2	6	n/a	n/a	n/a	10	18	9	2	7
1328.344	n/a	PROB	664172	n/a	LTP280	ltpFR2	6	n/a	n/a	n/a	10	16	1	8	7
1329.494	n/a	PROB	664747	n/a	LTP280	ltpFR2	6	n/a	n/a	n/a	10	12	5	1	6
1330.428	n/a	PROB	665214	n/a	LTP280	ltpFR2	6	n/a	n/a	n/a	10	25	8	9	8
1332.028	n/a	PROB	666014	n/a	LTP280	ltpFR2	6	n/a	n/a	n/a	10	16	6	7	3
1333.38	n/a	PROB	666690	n/a	LTP280	ltpFR2	6	n/a	n/a	n/a	10	9	2	3	4
1334.932	n/a	PROB	667466	n/a	LTP280	ltpFR2	6	n/a	n/a	n/a	10	10	4	5	1
1335.832	n/a	PROB	667916	n/a	LTP280	ltpFR2	6	n/a	n/a	n/a	10	16	5	8	3
1337.034	n/a	PROB	668517	n/a	LTP280	ltpFR2	6	n/a	n/a	n/a	10	15	6	4	5
1338.084	n/a	PROB	669042	n/a	LTP280	ltpFR2	6	n/a	n/a	n/a	10	27	9	9	9
1339.186	n/a	PROB	669593	n/a	LTP280	ltpFR2	6	n/a	n/a	n/a	10	17	7	2	8
1340.316	n/a	STOP	670158	n/a	LTP280	ltpFR2	6	n/a	n/a	n/a	10	n/a	n/a	n/a	n/a
1343.24	n/a	REC_START	671620	n/a	LTP280	ltpFR2	6	6	n/a	n/a	n/a	n/a	0	0	0
1343.65	n/a	REC_WORD	671825	wordpools/wasnorm_wordpool_576.txt	LTP280	ltpFR2	6	6	MATTRESS	879	n/a	n/a	0	0	0
1344.28	n/a	REC_WORD	672140	wordpools/wasnorm_wordpool_576.txt	LTP280	ltpFR2	6	6	LOFT	840	n/a	n/a	0	0	0
1344.952	n/a	REC_WORD	672476	wordpools/wasnorm_wordpool_576.txt	LTP280	ltpFR2	6	6	JELLO	754	n/a	n/a	0	0	0
1345.428	n/a	REC_WORD	672714	wordpools/wasnorm_wordpool_576.txt	LTP280	ltpFR2	6	6	SPOON	1357	n/a	n/a	0	0	0
1346.518	n/a	REC_WORD	673259	wordpools/wasnorm_wordpool_576.txt	LTP280	ltpFR2	6	6	COUNTRY	388	n/a	n/a	0	0	0
1347.182	n/a	REC_WORD	673591	wordpools/wasnorm_wordpool_576.txt	LTP280	ltpFR2	6	6	COUNTY	389	n/a	n/a	0	0	0
1348.04	n/a	REC_WORD	674020	wordpools/wasnorm_wordpool_576.txt	LTP280	ltpFR2	6	6	BEAST	108	n/a	n/a	0	0	0
1348.896	n/a	REC_WORD	674448	wordpools/wasnorm_wordpool_576.txt	LTP280	ltpFR2	6	6	GOBLIN	645	n/a	n/a	0	0	0
1357.586	n/a	REC_WORD	678793	wordpools/wasnorm_wordpool_576.txt	LTP280	ltpFR2	6	6	WRENCH	1625	n/a	n/a	0	0	0
1359.024	n/a	REC_WORD	679512	wordpools/wasnorm_wordpool_576.txt	LTP280	ltpFR2	6	6	MASK	876	n/a	n/a	0	0	0
1433.882	n/a	WORD	716941	wordpools/wasnorm_wordpool_576.txt	LTP280	ltpFR2	6	7	PADDING	999	n/a	n/a	0	0	0
1436.702	n/a	WORD	718351	wordpools/wasnorm_wordpool_576.txt	LTP280	ltpFR2	6	7	BASEMENT	94	n/a	n/a	0	0	0
1439.372	n/a	WORD	719686	wordpools/wasnorm_wordpool_576.txt	LTP280	ltpFR2	6	7	JAPAN	749	n/a	n/a	0	0	0
1441.806	n/a	WORD	720903	wordpools/wasnorm_wordpool_576.txt	LTP280	ltpFR2	6	7	RACKET	1155	n/a	n/a	0	0	0
1444.608	n/a	WORD	722304	wordpools/wasnorm_wordpool_576.txt	LTP280	ltpFR2	6	7	EUROPE	541	n/a	n/a	0	0	0
1447.378	n/a	WORD	723689	wordpools/wasnorm_wordpool_576.txt	LTP280	ltpFR2	6	7	POPCORN	1104	n/a	n/a	0	0	0
1450.196	n/a	WORD	725098	wordpools/wasnorm_wordpool_576.txt	LTP280	ltpFR2	6	7	PARTNER	1017	n/a	n/a	0	0	0
1452.764	n/a	WORD	726382	wordpools/wasnorm_wordpool_576.txt	LTP280	ltpFR2	6	7	GLOBE	641	n/a	n/a	0	0	0
1455.334	n/a	WORD	727667	wordpools/wasnorm_wordpool_576.txt	LTP280	ltpFR2	6	7	CARRIAGE	248	n/a	n/a	0	0	0
1458.17	n/a	WORD	729085	wordpools/wasnorm_wordpool_576.txt	LTP280	ltpFR2	6	7	OX	994	n/a	n/a	0	0	0
1460.904	n/a	WORD	730452	wordpools/wasnorm_wordpool_576.txt	LTP280	ltpFR2	6	7	BACON	67	n/a	n/a	0	0	0
1463.408	n/a	WORD	731704	wordpools/wasnorm_wordpool_576.txt	LTP280	ltpFR2	6	7	FILM	565	n/a	n/a	0	0	0
1465.892	n/a	WORD	732946	wordpools/wasnorm_wordpool_576.txt	LTP280	ltpFR2	6	7	STOVE	1388	n/a	n/a	0	0	0
1468.428	n/a	WORD	734214	wordpools/wasnorm_wordpool_576.txt	LTP280	ltpFR2	6	7	PRINCE	1124	n/a	n/a	0	0	0
1471.03	n/a	WORD	735515	wordpools/wasnorm_wordpool_576.txt	LTP280	ltpFR2	6	7	TABLE	1426	n/a	n/a	0	0	0
1473.782	n/a	WORD	736891	wordpools/wasnorm_wordpool_576.txt	LTP280	ltpFR2	6	7	COUCH	386	n/a	n/a	0	0	0
1476.502	n/a	WORD	738251	wordpools/wasnorm_wordpool_576.txt	LTP280	ltpFR2	6	7	COCOON	339	n/a	n/a	0	0	0
1479.206	n/a	WORD	739603	wordpools/wasnorm_wordpool_576.txt	LTP280	ltpFR2	6	7	BRAKE	166	n/a	n/a	0	0	0
1481.772	n/a	WORD	740886	wordpools/wasnorm_wordpool_576.txt	LTP280	ltpFR2	6	7	CRITIC	410	n/a	n/a	0	0	0
1484.542	n/a	WORD	742271	wordpools/wasnorm_wordpool_576.txt	LTP280	ltpFR2	6	7	QUEEN	1149	n/a	n/a	0	0	0
1487.178	n/a	WORD	743589	wordpools/wasnorm_wordpool_576.txt	LTP280	ltpFR2	6	7	TRIBE	1505	n/a	n/a	0	0	0
1489.714	n/a	WORD	744857	wordpools/wasnorm_wordpool_576.txt	LTP280	ltpFR2	6	7	COWBOY	395	n/a	n/a	0	0	0
1492.166	n/a	WORD	746083	wordpools/wasnorm_wordpool_576.txt	LTP280	ltpFR2	6	7	MOTOR	922	n/a	n/a	0	0	0
1494.75	n/a	WORD	747375	wordpools/wasnorm_wordpool_576.txt	LTP280	ltpFR2	6	7	SPOUSE	1358	n/a	n/a	0	0	0
1496.352	n/a	START	748176	n/a	LTP280	ltpFR2	6	n/a	n/a	n/a	11	n/a	n/a	n/a	n/a
1497.47	n/a	DISTRACTOR	748735	n/a	LTP280	ltpFR2	6	7	n/a	n/a	n/a	n/a	0	0	0
1497.486	n/a	PROB	748743	n/a	LTP280	ltpFR2	6	n/a	n/a	n/a	11	19	6	7	6
1500.456	n/a	PROB	750228	n/a	LTP280	ltpFR2	6	n/a	n/a	n/a	11	21	8	5	8
1502.474	n/a	PROB	751237	n/a	LTP280	ltpFR2	6	n/a	n/a	n/a	11	11	4	4	3
1503.608	n/a	PROB	751804	n/a	LTP280	ltpFR2	6	n/a	n/a	n/a	11	8	1	5	2
1504.658	n/a	PROB	752329	n/a	LTP280	ltpFR2	6	n/a	n/a	n/a	11	24	7	9	8
1506.594	n/a	PROB	753297	n/a	LTP280	ltpFR2	6	n/a	n/a	n/a	11	9	3	1	5
1507.544	n/a	PROB	753772	n/a	LTP280	ltpFR2	6	n/a	n/a	n/a	11	15	1	6	8
1508.746	n/a	PROB	754373	n/a	LTP280	ltpFR2	6	n/a	n/a	n/a	11	11	5	3	3
1509.896	n/a	PROB	754948	n/a	LTP280	ltpFR2	6	n/a	n/a	n/a	11	19	9	8	2
1511.148	n/a	PROB	755574	n/a	LTP280	ltpFR2	6	n/a	n/a	n/a	11	14	2	5	7
1512.498	n/a	PROB	756249	n/a	LTP280	ltpFR2	6	n/a	n/a	n/a	11	9	1	1	7
1513.468	n/a	PROB	756734	n/a	LTP280	ltpFR2	6	n/a	n/a	n/a	11	16	7	3	6
1514.618	n/a	PROB	757309	n/a	LTP280	ltpFR2	6	n/a	n/a	n/a	11	17	6	7	4
1515.936	n/a	PROB	757968	n/a	LTP280	ltpFR2	6	n/a	n/a	n/a	11	11	6	2	3
1517.97	n/a	PROB	758985	n/a	LTP280	ltpFR2	6	n/a	n/a	n/a	11	13	4	3	4
1519.448	n/a	STOP	759724	n/a	LTP280	ltpFR2	6	n/a	n/a	n/a	11	n/a	n/a	n/a	n/a
1522.19	n/a	REC_START	761095	n/a	LTP280	ltpFR2	6	7	n/a	n/a	n/a	n/a	0	0	0
1522.576	n/a	REC_WORD	761288	wordpools/wasnorm_wordpool_576.txt	LTP280	ltpFR2	6	7	CRITIC	410	n/a	n/a	0	0	0
1523.128	n/a	REC_WORD	761564	wordpools/wasnorm_wordpool_576.txt	LTP280	ltpFR2	6	7	QUEEN	1149	n/a	n/a	0	0	0
1523.786	n/a	REC_WORD	761893	wordpools/wasnorm_wordpool_576.txt	LTP280	ltpFR2	6	7	COWBOY	395	n/a	n/a	0	0	0
1524.66	n/a	REC_WORD	762330	wordpools/wasnorm_wordpool_576.txt	LTP280	ltpFR2	6	7	MOTOR	922	n/a	n/a	0	0	0
1525.286	n/a	REC_WORD	762643	wordpools/wasnorm_wordpool_576.txt	LTP280	ltpFR2	6	7	SPOUSE	1358	n/a	n/a	0	0	0
1527.116	n/a	REC_WORD	763558	wordpools/wasnorm_wordpool_576.txt	LTP280	ltpFR2	6	7	PADDING	999	n/a	n/a	0	0	0
1527.726	n/a	REC_WORD	763863	wordpools/wasnorm_wordpool_576.txt	LTP280	ltpFR2	6	7	BASEMENT	94	n/a	n/a	0	0	0
1529.636	n/a	REC_WORD	764818	wordpools/wasnorm_wordpool_576.txt	LTP280	ltpFR2	6	7	OX	994	n/a	n/a	0	0	0
1530.184	n/a	REC_WORD	765092	wordpools/wasnorm_wordpool_576.txt	LTP280	ltpFR2	6	7	CARRIAGE	248	n/a	n/a	0	0	0
1533.036	n/a	REC_WORD	766518	wordpools/wasnorm_wordpool_576.txt	LTP280	ltpFR2	6	7	EUROPE	541	n/a	n/a	0	0	0
1612.784	n/a	DISTRACTOR	806392	n/a	LTP280	ltpFR2	6	8	n/a	n/a	n/a	n/a	0	0	0
1612.784	n/a	START	806392	n/a	LTP280	ltpFR2	6	n/a	n/a	n/a	12	n/a	n/a	n/a	n/a
1612.818	n/a	PROB	806409	n/a	LTP280	ltpFR2	6	n/a	n/a	n/a	12	12	6	2	4
1613.968	n/a	PROB	806984	n/a	LTP280	ltpFR2	6	n/a	n/a	n/a	12	14	3	1	9
1615.102	n/a	PROB	807551	n/a	LTP280	ltpFR2	6	n/a	n/a	n/a	12	15	6	2	7
1616.67	n/a	PROB	808335	n/a	LTP280	ltpFR2	6	n/a	n/a	n/a	12	6	2	1	3
1617.654	n/a	PROB	808827	n/a	LTP280	ltpFR2	6	n/a	n/a	n/a	12	12	4	5	3
1618.94	n/a	PROB	809470	n/a	LTP280	ltpFR2	6	n/a	n/a	n/a	12	3	1	1	1
1619.806	n/a	PROB	809903	n/a	LTP280	ltpFR2	6	n/a	n/a	n/a	12	16	8	6	2
1620.992	n/a	PROB	810496	n/a	LTP280	ltpFR2	6	n/a	n/a	n/a	12	20	4	7	9
1622.36	n/a	PROB	811180	n/a	LTP280	ltpFR2	6	n/a	n/a	n/a	12	17	5	7	5
1623.86	n/a	PROB	811930	n/a	LTP280	ltpFR2	6	n/a	n/a	n/a	12	12	3	2	6
1625.178	n/a	PROB	812589	n/a	LTP280	ltpFR2	6	n/a	n/a	n/a	12	18	9	7	2
1626.596	n/a	PROB	813298	n/a	LTP280	ltpFR2	6	n/a	n/a	n/a	12	19	6	9	4
1627.864	n/a	PROB	813932	n/a	LTP280	ltpFR2	6	n/a	n/a	n/a	12	14	1	7	6
1629.25	n/a	PROB	814625	n/a	LTP280	ltpFR2	6	n/a	n/a	n/a	12	13	4	3	6
1630.632	n/a	PROB	815316	n/a	LTP280	ltpFR2	6	n/a	n/a	n/a	12	16	1	6	9
1631.85	n/a	PROB	815925	n/a	LTP280	ltpFR2	6	n/a	n/a	n/a	12	13	3	4	6
1633.202	n/a	PROB	816601	n/a	LTP280	ltpFR2	6	n/a	n/a	n/a	12	24	9	8	7
1634.52	n/a	PROB	817260	n/a	LTP280	ltpFR2	6	n/a	n/a	n/a	12	16	2	5	9
1636.49	n/a	STOP	818245	n/a	LTP280	ltpFR2	6	n/a	n/a	n/a	12	n/a	n/a	n/a	n/a
1637.938	n/a	WORD	818969	wordpools/wasnorm_wordpool_576.txt	LTP280	ltpFR2	6	8	VALLEY	1545	n/a	n/a	0	0	0
1640.658	n/a	WORD	820329	wordpools/wasnorm_wordpool_576.txt	LTP280	ltpFR2	6	8	CASKET	255	n/a	n/a	0	0	0
1643.092	n/a	WORD	821546	wordpools/wasnorm_wordpool_576.txt	LTP280	ltpFR2	6	8	SPOOL	1356	n/a	n/a	0	0	0
1645.696	n/a	WORD	822848	wordpools/wasnorm_wordpool_576.txt	LTP280	ltpFR2	6	8	YARN	1631	n/a	n/a	0	0	0
1648.382	n/a	WORD	824191	wordpools/wasnorm_wordpool_576.txt	LTP280	ltpFR2	6	8	LAKE	796	n/a	n/a	0	0	0
1650.932	n/a	WORD	825466	wordpools/wasnorm_wordpool_576.txt	LTP280	ltpFR2	6	8	GRAPE	654	n/a	n/a	0	0	0
1653.386	n/a	WORD	826693	wordpools/wasnorm_wordpool_576.txt	LTP280	ltpFR2	6	8	CANYON	235	n/a	n/a	0	0	0
1655.938	n/a	WORD	827969	wordpools/wasnorm_wordpool_576.txt	LTP280	ltpFR2	6	8	BATHTUB	100	n/a	n/a	0	0	0
1658.706	n/a	WORD	829353	wordpools/wasnorm_wordpool_576.txt	LTP280	ltpFR2	6	8	MUMMY	932	n/a	n/a	0	0	0
1661.46	n/a	WORD	830730	wordpools/wasnorm_wordpool_576.txt	LTP280	ltpFR2	6	8	CRIB	407	n/a	n/a	0	0	0
1663.944	n/a	WORD	831972	wordpools/wasnorm_wordpool_576.txt	LTP280	ltpFR2	6	8	MARKER	870	n/a	n/a	0	0	0
1666.664	n/a	WORD	833332	wordpools/wasnorm_wordpool_576.txt	LTP280	ltpFR2	6	8	THIEF	1456	n/a	n/a	0	0	0
1669.266	n/a	WORD	834633	wordpools/wasnorm_wordpool_576.txt	LTP280	ltpFR2	6	8	SADDLE	1221	n/a	n/a	0	0	0
1672.052	n/a	WORD	836026	wordpools/wasnorm_wordpool_576.txt	LTP280	ltpFR2	6	8	WAGON	1578	n/a	n/a	0	0	0
1674.804	n/a	WORD	837402	wordpools/wasnorm_wordpool_576.txt	LTP280	ltpFR2	6	8	CELLAR	267	n/a	n/a	0	0	0
1677.374	n/a	WORD	838687	wordpools/wasnorm_wordpool_576.txt	LTP280	ltpFR2	6	8	SCARF	1246	n/a	n/a	0	0	0
1680.126	n/a	WORD	840063	wordpools/wasnorm_wordpool_576.txt	LTP280	ltpFR2	6	8	LACE	792	n/a	n/a	0	0	0
1682.894	n/a	WORD	841447	wordpools/wasnorm_wordpool_576.txt	LTP280	ltpFR2	6	8	KEEPER	769	n/a	n/a	0	0	0
1685.546	n/a	WORD	842773	wordpools/wasnorm_wordpool_576.txt	LTP280	ltpFR2	6	8	CIGAR	308	n/a	n/a	0	0	0
1688.282	n/a	WORD	844141	wordpools/wasnorm_wordpool_576.txt	LTP280	ltpFR2	6	8	GIFT	635	n/a	n/a	0	0	0
1690.916	n/a	WORD	845458	wordpools/wasnorm_wordpool_576.txt	LTP280	ltpFR2	6	8	MAILBOX	857	n/a	n/a	0	0	0
1693.602	n/a	WORD	846801	wordpools/wasnorm_wordpool_576.txt	LTP280	ltpFR2	6	8	BUREAU	199	n/a	n/a	0	0	0
1696.222	n/a	WORD	848111	wordpools/wasnorm_wordpool_576.txt	LTP280	ltpFR2	6	8	TEACHER	1440	n/a	n/a	0	0	0
1698.99	n/a	WORD	849495	wordpools/wasnorm_wordpool_576.txt	LTP280	ltpFR2	6	8	FLIPPER	580	n/a	n/a	0	0	0
1700.608	n/a	START	850304	n/a	LTP280	ltpFR2	6	n/a	n/a	n/a	13	n/a	n/a	n/a	n/a
1701.536	n/a	DISTRACTOR	850768	n/a	LTP280	ltpFR2	6	8	n/a	n/a	n/a	n/a	0	0	0
1701.56	n/a	PROB	850780	n/a	LTP280	ltpFR2	6	n/a	n/a	n/a	13	16	6	5	5
1703.044	n/a	PROB	851522	n/a	LTP280	ltpFR2	6	n/a	n/a	n/a	13	14	8	1	5
1704.346	n/a	PROB	852173	n/a	LTP280	ltpFR2	6	n/a	n/a	n/a	13	12	4	2	6
1705.612	n/a	PROB	852806	n/a	LTP280	ltpFR2	6	n/a	n/a	n/a	13	20	6	8	6
1707.514	n/a	PROB	853757	n/a	LTP280	ltpFR2	6	n/a	n/a	n/a	13	1	4	8	8
1709.132	n/a	PROB	854566	n/a	LTP280	ltpFR2	6	n/a	n/a	n/a	13	24	9	9	5
1711.018	n/a	PROB	855509	n/a	LTP280	ltpFR2	6	n/a	n/a	n/a	13	16	9	4	3
1713.052	n/a	PROB	856526	n/a	LTP280	ltpFR2	6	n/a	n/a	n/a	13	17	3	9	4
1714.438	n/a	PROB	857219	n/a	LTP280	ltpFR2	6	n/a	n/a	n/a	13	17	5	7	5
1716.022	n/a	PROB	858011	n/a	LTP280	ltpFR2	6	n/a	n/a	n/a	13	9	4	3	2
1717.14	n/a	PROB	858570	n/a	LTP280	ltpFR2	6	n/a	n/a	n/a	13	11	3	6	2
1719.158	n/a	PROB	859579	n/a	LTP280	ltpFR2	6	n/a	n/a	n/a	13	16	8	4	4
1720.792	n/a	PROB	860396	n/a	LTP280	ltpFR2	6	n/a	n/a	n/a	13	21	9	8	4
1721.944	n/a	PROB	860972	n/a	LTP280	ltpFR2	6	n/a	n/a	n/a	13	16	8	4	4
1723.444	n/a	STOP	861722	n/a	LTP280	ltpFR2	6	n/a	n/a	n/a	13	n/a	n/a	n/a	n/a
1726.416	n/a	REC_START	863208	n/a	LTP280	ltpFR2	6	8	n/a	n/a	n/a	n/a	0	0	0
1726.69	n/a	REC_WORD	863345	wordpools/wasnorm_wordpool_576.txt	LTP280	ltpFR2	6	8	CASKET	255	n/a	n/a	0	0	0
1727.458	n/a	REC_WORD	863729	wordpools/wasnorm_wordpool_576.txt	LTP280	ltpFR2	6	8	VALLEY	1545	n/a	n/a	0	0	0
1728.022	n/a	REC_WORD	864011	wordpools/wasnorm_wordpool_576.txt	LTP280	ltpFR2	6	8	MAILBOX	857	n/a	n/a	0	0	0
1728.958	n/a	REC_WORD	864479	wordpools/wasnorm_wordpool_576.txt	LTP280	ltpFR2	6	8	BUREAU	199	n/a	n/a	0	0	0
1730.0	n/a	REC_WORD	865000	wordpools/wasnorm_wordpool_576.txt	LTP280	ltpFR2	6	8	TEACHER	1440	n/a	n/a	0	0	0
1802.962	n/a	REST_REWET	901481	n/a	LTP280	ltpFR2	6	8	n/a	n/a	n/a	n/a	0	0	0
2009.554	n/a	DISTRACTOR	1004777	n/a	LTP280	ltpFR2	6	9	n/a	n/a	n/a	n/a	0	0	0
2009.556	n/a	START	1004778	n/a	LTP280	ltpFR2	6	n/a	n/a	n/a	14	n/a	n/a	n/a	n/a
2009.572	n/a	PROB	1004786	n/a	LTP280	ltpFR2	6	n/a	n/a	n/a	14	21	9	4	8
2011.19	n/a	PROB	1005595	n/a	LTP280	ltpFR2	6	n/a	n/a	n/a	14	16	6	6	4
2012.49	n/a	PROB	1006245	n/a	LTP280	ltpFR2	6	n/a	n/a	n/a	14	9	1	4	4
2013.442	n/a	PROB	1006721	n/a	LTP280	ltpFR2	6	n/a	n/a	n/a	14	21	3	8	9
2014.892	n/a	PROB	1007446	n/a	LTP280	ltpFR2	6	n/a	n/a	n/a	14	14	4	4	6
2015.86	n/a	PROB	1007930	n/a	LTP280	ltpFR2	6	n/a	n/a	n/a	14	13	3	5	5
2016.96	n/a	PROB	1008480	n/a	LTP280	ltpFR2	6	n/a	n/a	n/a	14	21	4	8	9
2018.23	n/a	PROB	1009115	n/a	LTP280	ltpFR2	6	n/a	n/a	n/a	14	17	9	4	4
2020.114	n/a	PROB	1010057	n/a	LTP280	ltpFR2	6	n/a	n/a	n/a	14	15	7	1	7
2021.198	n/a	PROB	1010599	n/a	LTP280	ltpFR2	6	n/a	n/a	n/a	14	15	9	2	4
2022.482	n/a	PROB	1011241	n/a	LTP280	ltpFR2	6	n/a	n/a	n/a	14	14	1	6	7
2023.8	n/a	PROB	1011900	n/a	LTP280	ltpFR2	6	n/a	n/a	n/a	14	20	9	6	5
2025.236	n/a	PROB	1012618	n/a	LTP280	ltpFR2	6	n/a	n/a	n/a	14	12	2	9	1
2026.286	n/a	PROB	1013143	n/a	LTP280	ltpFR2	6	n/a	n/a	n/a	14	7	1	4	2
2027.304	n/a	PROB	1013652	n/a	LTP280	ltpFR2	6	n/a	n/a	n/a	14	20	8	8	4
2028.57	n/a	PROB	1014285	n/a	LTP280	ltpFR2	6	n/a	n/a	n/a	14	12	8	2	2
2029.522	n/a	PROB	1014761	n/a	LTP280	ltpFR2	6	n/a	n/a	n/a	14	12	5	3	4
2031.04	n/a	PROB	1015520	n/a	LTP280	ltpFR2	6	n/a	n/a	n/a	14	20	3	9	8
2032.728	n/a	STOP	1016364	n/a	LTP280	ltpFR2	6	n/a	n/a	n/a	14	n/a	n/a	n/a	n/a
2034.776	n/a	WORD	1017388	wordpools/wasnorm_wordpool_576.txt	LTP280	ltpFR2	6	9	BROOK	177	n/a	n/a	0	0	0
2037.596	n/a	WORD	1018798	wordpools/wasnorm_wordpool_576.txt	LTP280	ltpFR2	6	9	DRAGON	492	n/a	n/a	0	0	0
2040.214	n/a	WORD	1020107	wordpools/wasnorm_wordpool_576.txt	LTP280	ltpFR2	6	9	PEDAL	1037	n/a	n/a	0	0	0
2042.9	n/a	WORD	1021450	wordpools/wasnorm_wordpool_576.txt	LTP280	ltpFR2	6	9	DRIVER	499	n/a	n/a	0	0	0
2045.702	n/a	WORD	1022851	wordpools/wasnorm_wordpool_576.txt	LTP280	ltpFR2	6	9	SWAMP	1416	n/a	n/a	0	0	0
2048.288	n/a	WORD	1024144	wordpools/wasnorm_wordpool_576.txt	LTP280	ltpFR2	6	9	BRANDY	169	n/a	n/a	0	0	0
2050.874	n/a	WORD	1025437	wordpools/wasnorm_wordpool_576.txt	LTP280	ltpFR2	6	9	FLASK	576	n/a	n/a	0	0	0
2053.542	n/a	WORD	1026771	wordpools/wasnorm_wordpool_576.txt	LTP280	ltpFR2	6	9	WITNESS	1618	n/a	n/a	0	0	0
2056.262	n/a	WORD	1028131	wordpools/wasnorm_wordpool_576.txt	LTP280	ltpFR2	6	9	TYPIST	1532	n/a	n/a	0	0	0
2059.096	n/a	WORD	1029548	wordpools/wasnorm_wordpool_576.txt	LTP280	ltpFR2	6	9	LAMP	798	n/a	n/a	0	0	0
2061.566	n/a	WORD	1030783	wordpools/wasnorm_wordpool_576.txt	LTP280	ltpFR2	6	9	ICING	732	n/a	n/a	0	0	0
2064.034	n/a	WORD	1032017	wordpools/wasnorm_wordpool_576.txt	LTP280	ltpFR2	6	9	PASTRY	1022	n/a	n/a	0	0	0
2066.602	n/a	WORD	1033301	wordpools/wasnorm_wordpool_576.txt	LTP280	ltpFR2	6	9	KITCHEN	778	n/a	n/a	0	0	0
2069.172	n/a	WORD	1034586	wordpools/wasnorm_wordpool_576.txt	LTP280	ltpFR2	6	9	SNAKE	1333	n/a	n/a	0	0	0
2071.84	n/a	WORD	1035920	wordpools/wasnorm_wordpool_576.txt	LTP280	ltpFR2	6	9	INFANT	737	n/a	n/a	0	0	0
2074.492	n/a	WORD	1037246	wordpools/wasnorm_wordpool_576.txt	LTP280	ltpFR2	6	9	HAMPER	682	n/a	n/a	0	0	0
2077.028	n/a	WORD	1038514	wordpools/wasnorm_wordpool_576.txt	LTP280	ltpFR2	6	9	PUDDING	1139	n/a	n/a	0	0	0
2079.714	n/a	WORD	1039857	wordpools/wasnorm_wordpool_576.txt	LTP280	ltpFR2	6	9	LAGOON	795	n/a	n/a	0	0	0
2082.418	n/a	WORD	1041209	wordpools/wasnorm_wordpool_576.txt	LTP280	ltpFR2	6	9	STREAM	1392	n/a	n/a	0	0	0
2085.118	n/a	WORD	1042559	wordpools/wasnorm_wordpool_576.txt	LTP280	ltpFR2	6	9	STALLION	1369	n/a	n/a	0	0	0
2087.588	n/a	WORD	1043794	wordpools/wasnorm_wordpool_576.txt	LTP280	ltpFR2	6	9	BARLEY	88	n/a	n/a	0	0	0
2090.09	n/a	WORD	1045045	wordpools/wasnorm_wordpool_576.txt	LTP280	ltpFR2	6	9	TILE	1468	n/a	n/a	0	0	0
2092.926	n/a	WORD	1046463	wordpools/wasnorm_wordpool_576.txt	LTP280	ltpFR2	6	9	CRUTCH	417	n/a	n/a	0	0	0
2095.694	n/a	WORD	1047847	wordpools/wasnorm_wordpool_576.txt	LTP280	ltpFR2	6	9	GHETTO	633	n/a	n/a	0	0	0
2097.314	n/a	START	1048657	n/a	LTP280	ltpFR2	6	n/a	n/a	n/a	15	n/a	n/a	n/a	n/a
2098.504	n/a	DISTRACTOR	1049252	n/a	LTP280	ltpFR2	6	9	n/a	n/a	n/a	n/a	0	0	0
2098.53	n/a	PROB	1049265	n/a	LTP280	ltpFR2	6	n/a	n/a	n/a	15	13	5	4	4
2099.982	n/a	PROB	1049991	n/a	LTP280	ltpFR2	6	n/a	n/a	n/a	15	16	5	2	8
2102.084	n/a	PROB	1051042	n/a	LTP280	ltpFR2	6	n/a	n/a	n/a	15	17	9	1	7
2103.236	n/a	PROB	1051618	n/a	LTP280	ltpFR2	6	n/a	n/a	n/a	15	20	6	8	6
2105.704	n/a	PROB	1052852	n/a	LTP280	ltpFR2	6	n/a	n/a	n/a	15	13	7	1	5
2106.738	n/a	PROB	1053369	n/a	LTP280	ltpFR2	6	n/a	n/a	n/a	15	12	5	1	6
2107.738	n/a	PROB	1053869	n/a	LTP280	ltpFR2	6	n/a	n/a	n/a	15	19	6	6	7
2109.172	n/a	PROB	1054586	n/a	LTP280	ltpFR2	6	n/a	n/a	n/a	15	25	6	9	9
2110.94	n/a	PROB	1055470	n/a	LTP280	ltpFR2	6	n/a	n/a	n/a	15	20	9	4	7
2112.826	n/a	PROB	1056413	n/a	LTP280	ltpFR2	6	n/a	n/a	n/a	15	13	6	2	5
2114.378	n/a	PROB	1057189	n/a	LTP280	ltpFR2	6	n/a	n/a	n/a	15	22	9	5	8
2116.38	n/a	PROB	1058190	n/a	LTP280	ltpFR2	6	n/a	n/a	n/a	15	9	2	1	6
2117.446	n/a	PROB	1058723	n/a	LTP280	ltpFR2	6	n/a	n/a	n/a	15	20	9	7	4
2118.764	n/a	PROB	1059382	n/a	LTP280	ltpFR2	6	n/a	n/a	n/a	15	6	3	2	1
2119.664	n/a	PROB	1059832	n/a	LTP280	ltpFR2	6	n/a	n/a	n/a	15	6	2	1	3
2120.498	n/a	STOP	1060249	n/a	LTP280	ltpFR2	6	n/a	n/a	n/a	15	n/a	n/a	n/a	n/a
2123.202	n/a	REC_START	1061601	n/a	LTP280	ltpFR2	6	9	n/a	n/a	n/a	n/a	0	0	0
2123.402	n/a	REC_WORD	1061701	wordpools/wasnorm_wordpool_576.txt	LTP280	ltpFR2	6	9	LAMP	798	n/a	n/a	0	0	0
2124.04	n/a	REC_WORD	1062020	wordpools/wasnorm_wordpool_576.txt	LTP280	ltpFR2	6	9	PASTRY	1022	n/a	n/a	0	0	0
2124.734	n/a	REC_WORD	1062367	wordpools/wasnorm_wordpool_576.txt	LTP280	ltpFR2	6	9	KITCHEN	778	n/a	n/a	0	0	0
2125.426	n/a	REC_WORD	1062713	wordpools/wasnorm_wordpool_576.txt	LTP280	ltpFR2	6	9	PUDDING	1139	n/a	n/a	0	0	0
2127.094	n/a	REC_WORD_VV	1063547	wordpools/wasnorm_wordpool_576.txt	LTP280	ltpFR2	6	9	<>	-1	n/a	n/a	0	0	0
2129.384	n/a	REC_WORD_VV	1064692	wordpools/wasnorm_wordpool_576.txt	LTP280	ltpFR2	6	9	<>	-1	n/a	n/a	0	0	0
2133.464	n/a	REC_WORD	1066732	wordpools/wasnorm_wordpool_576.txt	LTP280	ltpFR2	6	9	VALLEY	1545	n/a	n/a	0	0	0
2134.22	n/a	REC_WORD	1067110	wordpools/wasnorm_wordpool_576.txt	LTP280	ltpFR2	6	9	SWAMP	1416	n/a	n/a	0	0	0
2136.58	n/a	REC_WORD	1068290	wordpools/wasnorm_wordpool_576.txt	LTP280	ltpFR2	6	9	DRAGON	492	n/a	n/a	0	0	0
2158.18	n/a	REC_WORD	1079090	wordpools/wasnorm_wordpool_576.txt	LTP280	ltpFR2	6	9	MARSH	874	n/a	n/a	0	0	0
2161.748	n/a	REC_WORD	1080874	wordpools/wasnorm_wordpool_576.txt	LTP280	ltpFR2	6	9	FLASK	576	n/a	n/a	0	0	0
2162.274	n/a	REC_WORD	1081137	wordpools/wasnorm_wordpool_576.txt	LTP280	ltpFR2	6	9	BRANDY	169	n/a	n/a	0	0	0
2213.794	n/a	DISTRACTOR	1106897	n/a	LTP280	ltpFR2	6	10	n/a	n/a	n/a	n/a	0	0	0
2213.794	n/a	START	1106897	n/a	LTP280	ltpFR2	6	n/a	n/a	n/a	16	n/a	n/a	n/a	n/a
2213.812	n/a	PROB	1106906	n/a	LTP280	ltpFR2	6	n/a	n/a	n/a	16	18	7	3	8
2214.978	n/a	PROB	1107489	n/a	LTP280	ltpFR2	6	n/a	n/a	n/a	16	16	5	2	9
2216.348	n/a	PROB	1108174	n/a	LTP280	ltpFR2	6	n/a	n/a	n/a	16	13	7	2	4
2218.282	n/a	PROB	1109141	n/a	LTP280	ltpFR2	6	n/a	n/a	n/a	16	5	1	4	1
2219.5	n/a	PROB	1109750	n/a	LTP280	ltpFR2	6	n/a	n/a	n/a	16	16	9	5	2
2221.218	n/a	PROB	1110609	n/a	LTP280	ltpFR2	6	n/a	n/a	n/a	16	10	3	2	5
2222.42	n/a	PROB	1111210	n/a	LTP280	ltpFR2	6	n/a	n/a	n/a	16	7	4	1	2
2223.338	n/a	PROB	1111669	n/a	LTP280	ltpFR2	6	n/a	n/a	n/a	16	12	2	5	6
2224.62	n/a	PROB	1112310	n/a	LTP280	ltpFR2	6	n/a	n/a	n/a	16	18	8	5	5
2225.754	n/a	PROB	1112877	n/a	LTP280	ltpFR2	6	n/a	n/a	n/a	16	19	4	7	8
2227.106	n/a	PROB	1113553	n/a	LTP280	ltpFR2	6	n/a	n/a	n/a	16	11	4	5	2
2228.374	n/a	PROB	1114187	n/a	LTP280	ltpFR2	6	n/a	n/a	n/a	16	9	1	6	2
2229.426	n/a	PROB	1114713	n/a	LTP280	ltpFR2	6	n/a	n/a	n/a	16	6	3	2	1
2230.276	n/a	PROB	1115138	n/a	LTP280	ltpFR2	6	n/a	n/a	n/a	16	17	8	1	8
2231.344	n/a	PROB	1115672	n/a	LTP280	ltpFR2	6	n/a	n/a	n/a	16	17	5	3	8
2232.594	n/a	PROB	1116297	n/a	LTP280	ltpFR2	6	n/a	n/a	n/a	16	9	2	3	4
2234.028	n/a	PROB	1117014	n/a	LTP280	ltpFR2	6	n/a	n/a	n/a	16	15	4	7	4
2235.746	n/a	PROB	1117873	n/a	LTP280	ltpFR2	6	n/a	n/a	n/a	16	12	9	2	2
2237.22	n/a	STOP	1118610	n/a	LTP280	ltpFR2	6	n/a	n/a	n/a	16	n/a	n/a	n/a	n/a
2238.716	n/a	WORD	1119358	wordpools/wasnorm_wordpool_576.txt	LTP280	ltpFR2	6	10	AIRPORT	13	n/a	n/a	0	0	0
2241.152	n/a	WORD	1120576	wordpools/wasnorm_wordpool_576.txt	LTP280	ltpFR2	6	10	FRAGRANCE	599	n/a	n/a	0	0	0
2243.688	n/a	WORD	1121844	wordpools/wasnorm_wordpool_576.txt	LTP280	ltpFR2	6	10	VENUS	1557	n/a	n/a	0	0	0
2246.358	n/a	WORD	1123179	wordpools/wasnorm_wordpool_576.txt	LTP280	ltpFR2	6	10	PISTON	1076	n/a	n/a	0	0	0
2249.008	n/a	WORD	1124504	wordpools/wasnorm_wordpool_576.txt	LTP280	ltpFR2	6	10	POWDER	1117	n/a	n/a	0	0	0
2251.66	n/a	WORD	1125830	wordpools/wasnorm_wordpool_576.txt	LTP280	ltpFR2	6	10	BALLOON	75	n/a	n/a	0	0	0
2254.346	n/a	WORD	1127173	wordpools/wasnorm_wordpool_576.txt	LTP280	ltpFR2	6	10	DONKEY	484	n/a	n/a	0	0	0
2257.114	n/a	WORD	1128557	wordpools/wasnorm_wordpool_576.txt	LTP280	ltpFR2	6	10	SHORTCAKE	1292	n/a	n/a	0	0	0
2259.8	n/a	WORD	1129900	wordpools/wasnorm_wordpool_576.txt	LTP280	ltpFR2	6	10	SNACK	1331	n/a	n/a	0	0	0
2262.336	n/a	WORD	1131168	wordpools/wasnorm_wordpool_576.txt	LTP280	ltpFR2	6	10	FOOT	590	n/a	n/a	0	0	0
2265.138	n/a	WORD	1132569	wordpools/wasnorm_wordpool_576.txt	LTP280	ltpFR2	6	10	BOARD	143	n/a	n/a	0	0	0
2267.608	n/a	WORD	1133804	wordpools/wasnorm_wordpool_576.txt	LTP280	ltpFR2	6	10	BLACKBOARD	133	n/a	n/a	0	0	0
2270.41	n/a	WORD	1135205	wordpools/wasnorm_wordpool_576.txt	LTP280	ltpFR2	6	10	ASIA	46	n/a	n/a	0	0	0
2272.862	n/a	WORD	1136431	wordpools/wasnorm_wordpool_576.txt	LTP280	ltpFR2	6	10	WASHER	1592	n/a	n/a	0	0	0
2275.364	n/a	WORD	1137682	wordpools/wasnorm_wordpool_576.txt	LTP280	ltpFR2	6	10	CHEST	295	n/a	n/a	0	0	0
2277.916	n/a	WORD	1138958	wordpools/wasnorm_wordpool_576.txt	LTP280	ltpFR2	6	10	LONDON	843	n/a	n/a	0	0	0
2280.518	n/a	WORD	1140259	wordpools/wasnorm_wordpool_576.txt	LTP280	ltpFR2	6	10	FINGER	567	n/a	n/a	0	0	0
2283.322	n/a	WORD	1141661	wordpools/wasnorm_wordpool_576.txt	LTP280	ltpFR2	6	10	CATTLE	261	n/a	n/a	0	0	0
2285.89	n/a	WORD	1142945	wordpools/wasnorm_wordpool_576.txt	LTP280	ltpFR2	6	10	FEMALE	559	n/a	n/a	0	0	0
2288.36	n/a	WORD	1144180	wordpools/wasnorm_wordpool_576.txt	LTP280	ltpFR2	6	10	PEACH	1031	n/a	n/a	0	0	0
2290.81	n/a	WORD	1145405	wordpools/wasnorm_wordpool_576.txt	LTP280	ltpFR2	6	10	CORAL	378	n/a	n/a	0	0	0
2293.596	n/a	WORD	1146798	wordpools/wasnorm_wordpool_576.txt	LTP280	ltpFR2	6	10	PACKAGE	997	n/a	n/a	0	0	0
2296.284	n/a	WORD	1148142	wordpools/wasnorm_wordpool_576.txt	LTP280	ltpFR2	6	10	INMATE	738	n/a	n/a	0	0	0
2299.052	n/a	WORD	1149526	wordpools/wasnorm_wordpool_576.txt	LTP280	ltpFR2	6	10	WAITER	1580	n/a	n/a	0	0	0
2300.668	n/a	START	1150334	n/a	LTP280	ltpFR2	6	n/a	n/a	n/a	17	n/a	n/a	n/a	n/a
2301.614	n/a	DISTRACTOR	1150807	n/a	LTP280	ltpFR2	6	10	n/a	n/a	n/a	n/a	0	0	0
2301.636	n/a	PROB	1150818	n/a	LTP280	ltpFR2	6	n/a	n/a	n/a	17	21	6	7	8
2302.886	n/a	PROB	1151443	n/a	LTP280	ltpFR2	6	n/a	n/a	n/a	17	14	3	7	4
2303.988	n/a	PROB	1151994	n/a	LTP280	ltpFR2	6	n/a	n/a	n/a	17	17	6	8	3
2305.722	n/a	PROB	1152861	n/a	LTP280	ltpFR2	6	n/a	n/a	n/a	17	18	4	9	5
2307.59	n/a	PROB	1153795	n/a	LTP280	ltpFR2	6	n/a	n/a	n/a	17	11	2	4	5
2308.776	n/a	PROB	1154388	n/a	LTP280	ltpFR2	6	n/a	n/a	n/a	17	21	6	9	6
2310.394	n/a	PROB	1155197	n/a	LTP280	ltpFR2	6	n/a	n/a	n/a	17	18	9	8	1
2311.396	n/a	PROB	1155698	n/a	LTP280	ltpFR2	6	n/a	n/a	n/a	17	10	3	3	4
2312.762	n/a	PROB	1156381	n/a	LTP280	ltpFR2	6	n/a	n/a	n/a	17	18	6	9	3
2314.03	n/a	PROB	1157015	n/a	LTP280	ltpFR2	6	n/a	n/a	n/a	17	7	3	1	3
2314.98	n/a	PROB	1157490	n/a	LTP280	ltpFR2	6	n/a	n/a	n/a	17	8	4	2	2
2316.098	n/a	PROB	1158049	n/a	LTP280	ltpFR2	6	n/a	n/a	n/a	17	12	2	9	1
2317.334	n/a	PROB	1158667	n/a	LTP280	ltpFR2	6	n/a	n/a	n/a	17	15	2	9	4
2319.0	n/a	PROB	1159500	n/a	LTP280	ltpFR2	6	n/a	n/a	n/a	17	4	5	4	8
2320.586	n/a	PROB	1160293	n/a	LTP280	ltpFR2	6	n/a	n/a	n/a	17	18	4	9	5
2321.92	n/a	PROB	1160960	n/a	LTP280	ltpFR2	6	n/a	n/a	n/a	17	19	6	5	8
2323.154	n/a	PROB	1161577	n/a	LTP280	ltpFR2	6	n/a	n/a	n/a	17	15	3	6	6
2324.398	n/a	STOP	1162199	n/a	LTP280	ltpFR2	6	n/a	n/a	n/a	17	n/a	n/a	n/a	n/a
2326.574	n/a	REC_START	1163287	n/a	LTP280	ltpFR2	6	10	n/a	n/a	n/a	n/a	0	0	0
2326.802	n/a	REC_WORD	1163401	wordpools/wasnorm_wordpool_576.txt	LTP280	ltpFR2	6	10	AIRPORT	13	n/a	n/a	0	0	0
2327.392	n/a	REC_WORD	1163696	wordpools/wasnorm_wordpool_576.txt	LTP280	ltpFR2	6	10	FRAGRANCE	599	n/a	n/a	0	0	0
2328.212	n/a	REC_WORD	1164106	wordpools/wasnorm_wordpool_576.txt	LTP280	ltpFR2	6	10	VENUS	1557	n/a	n/a	0	0	0
2328.964	n/a	REC_WORD	1164482	wordpools/wasnorm_wordpool_576.txt	LTP280	ltpFR2	6	10	FOOT	590	n/a	n/a	0	0	0
2329.542	n/a	REC_WORD	1164771	wordpools/wasnorm_wordpool_576.txt	LTP280	ltpFR2	6	10	BOARD	143	n/a	n/a	0	0	0
2330.222	n/a	REC_WORD	1165111	wordpools/wasnorm_wordpool_576.txt	LTP280	ltpFR2	6	10	BLACKBOARD	133	n/a	n/a	0	0	0
2331.972	n/a	REC_WORD	1165986	wordpools/wasnorm_wordpool_576.txt	LTP280	ltpFR2	6	10	CATTLE	261	n/a	n/a	0	0	0
2332.476	n/a	REC_WORD	1166238	wordpools/wasnorm_wordpool_576.txt	LTP280	ltpFR2	6	10	FEMALE	559	n/a	n/a	0	0	0
2349.074	n/a	REC_WORD	1174537	wordpools/wasnorm_wordpool_576.txt	LTP280	ltpFR2	6	10	ASIA	46	n/a	n/a	0	0	0
2371.652	n/a	REC_WORD	1185826	wordpools/wasnorm_wordpool_576.txt	LTP280	ltpFR2	6	10	PISTOL	1075	n/a	n/a	0	0	0
2373.174	n/a	REC_WORD	1186587	wordpools/wasnorm_wordpool_576.txt	LTP280	ltpFR2	6	10	PISTON	1076	n/a	n/a	0	0	0
2374.468	n/a	REC_WORD_VV	1187234	wordpools/wasnorm_wordpool_576.txt	LTP280	ltpFR2	6	10	<>	-1	n/a	n/a	0	0	0
2375.534	n/a	REC_WORD	1187767	wordpools/wasnorm_wordpool_576.txt	LTP280	ltpFR2	6	10	PISTON	1076	n/a	n/a	0	0	0
2376.036	n/a	REC_WORD	1188018	wordpools/wasnorm_wordpool_576.txt	LTP280	ltpFR2	6	10	POWDER	1117	n/a	n/a	0	0	0
2377.72	n/a	REC_WORD_VV	1188860	wordpools/wasnorm_wordpool_576.txt	LTP280	ltpFR2	6	10	<>	-1	n/a	n/a	0	0	0
2417.236	n/a	WORD	1208618	wordpools/wasnorm_wordpool_576.txt	LTP280	ltpFR2	6	11	BLADE	134	n/a	n/a	0	0	0
2419.704	n/a	WORD	1209852	wordpools/wasnorm_wordpool_576.txt	LTP280	ltpFR2	6	11	WHISKERS	1605	n/a	n/a	0	0	0
2422.306	n/a	WORD	1211153	wordpools/wasnorm_wordpool_576.txt	LTP280	ltpFR2	6	11	PATROL	1027	n/a	n/a	0	0	0
2424.84	n/a	WORD	1212420	wordpools/wasnorm_wordpool_576.txt	LTP280	ltpFR2	6	11	AGENT	10	n/a	n/a	0	0	0
2427.344	n/a	WORD	1213672	wordpools/wasnorm_wordpool_576.txt	LTP280	ltpFR2	6	11	THRONE	1461	n/a	n/a	0	0	0
2429.862	n/a	WORD	1214931	wordpools/wasnorm_wordpool_576.txt	LTP280	ltpFR2	6	11	SERVER	1272	n/a	n/a	0	0	0
2432.432	n/a	WORD	1216216	wordpools/wasnorm_wordpool_576.txt	LTP280	ltpFR2	6	11	NIGHTGOWN	953	n/a	n/a	0	0	0
2435.084	n/a	WORD	1217542	wordpools/wasnorm_wordpool_576.txt	LTP280	ltpFR2	6	11	GAVEL	627	n/a	n/a	0	0	0
2437.536	n/a	WORD	1218768	wordpools/wasnorm_wordpool_576.txt	LTP280	ltpFR2	6	11	STONE	1385	n/a	n/a	0	0	0
2440.206	n/a	WORD	1220103	wordpools/wasnorm_wordpool_576.txt	LTP280	ltpFR2	6	11	MARS	873	n/a	n/a	0	0	0
2442.788	n/a	WORD	1221394	wordpools/wasnorm_wordpool_576.txt	LTP280	ltpFR2	6	11	SUPPER	1411	n/a	n/a	0	0	0
2445.474	n/a	WORD	1222737	wordpools/wasnorm_wordpool_576.txt	LTP280	ltpFR2	6	11	GARBAGE	622	n/a	n/a	0	0	0
2448.06	n/a	WORD	1224030	wordpools/wasnorm_wordpool_576.txt	LTP280	ltpFR2	6	11	BOX	159	n/a	n/a	0	0	0
2450.88	n/a	WORD	1225440	wordpools/wasnorm_wordpool_576.txt	LTP280	ltpFR2	6	11	BRACES	164	n/a	n/a	0	0	0
2453.532	n/a	WORD	1226766	wordpools/wasnorm_wordpool_576.txt	LTP280	ltpFR2	6	11	GUARD	667	n/a	n/a	0	0	0
2456.236	n/a	WORD	1228118	wordpools/wasnorm_wordpool_576.txt	LTP280	ltpFR2	6	11	WORLD	1622	n/a	n/a	0	0	0
2459.004	n/a	WORD	1229502	wordpools/wasnorm_wordpool_576.txt	LTP280	ltpFR2	6	11	LUGGAGE	847	n/a	n/a	0	0	0
2461.522	n/a	WORD	1230761	wordpools/wasnorm_wordpool_576.txt	LTP280	ltpFR2	6	11	HOSTESS	723	n/a	n/a	0	0	0
2464.292	n/a	WORD	1232146	wordpools/wasnorm_wordpool_576.txt	LTP280	ltpFR2	6	11	WAITRESS	1581	n/a	n/a	0	0	0
2467.126	n/a	WORD	1233563	wordpools/wasnorm_wordpool_576.txt	LTP280	ltpFR2	6	11	CROWN	415	n/a	n/a	0	0	0
2469.646	n/a	WORD	1234823	wordpools/wasnorm_wordpool_576.txt	LTP280	ltpFR2	6	11	TERMITE	1451	n/a	n/a	0	0	0
2472.082	n/a	WORD	1236041	wordpools/wasnorm_wordpool_576.txt	LTP280	ltpFR2	6	11	ATOM	55	n/a	n/a	0	0	0
2474.8	n/a	WORD	1237400	wordpools/wasnorm_wordpool_576.txt	LTP280	ltpFR2	6	11	CHILD	299	n/a	n/a	0	0	0
2477.304	n/a	WORD	1238652	wordpools/wasnorm_wordpool_576.txt	LTP280	ltpFR2	6	11	PLATE	1086	n/a	n/a	0	0	0
2478.92	n/a	START	1239460	n/a	LTP280	ltpFR2	6	n/a	n/a	n/a	18	n/a	n/a	n/a	n/a
2479.974	n/a	DISTRACTOR	1239987	n/a	LTP280	ltpFR2	6	11	n/a	n/a	n/a	n/a	0	0	0
2479.988	n/a	PROB	1239994	n/a	LTP280	ltpFR2	6	n/a	n/a	n/a	18	13	3	7	3
2480.888	n/a	PROB	1240444	n/a	LTP280	ltpFR2	6	n/a	n/a	n/a	18	14	2	3	9
2482.124	n/a	PROB	1241062	n/a	LTP280	ltpFR2	6	n/a	n/a	n/a	18	17	3	5	9
2483.376	n/a	PROB	1241688	n/a	LTP280	ltpFR2	6	n/a	n/a	n/a	18	16	4	4	8
2485.994	n/a	PROB	1242997	n/a	LTP280	ltpFR2	6	n/a	n/a	n/a	18	9	5	1	2
2487.196	n/a	PROB	1243598	n/a	LTP280	ltpFR2	6	n/a	n/a	n/a	18	14	4	4	6
2489.062	n/a	PROB	1244531	n/a	LTP280	ltpFR2	6	n/a	n/a	n/a	18	11	5	1	5
2489.996	n/a	PROB	1244998	n/a	LTP280	ltpFR2	6	n/a	n/a	n/a	18	5	1	1	3
2490.996	n/a	PROB	1245498	n/a	LTP280	ltpFR2	6	n/a	n/a	n/a	18	13	2	5	6
2492.732	n/a	PROB	1246366	n/a	LTP280	ltpFR2	6	n/a	n/a	n/a	18	15	3	6	6
2493.95	n/a	PROB	1246975	n/a	LTP280	ltpFR2	6	n/a	n/a	n/a	18	19	2	8	9
2495.5	n/a	PROB	1247750	n/a	LTP280	ltpFR2	6	n/a	n/a	n/a	18	24	8	8	8
2496.702	n/a	PROB	1248351	n/a	LTP280	ltpFR2	6	n/a	n/a	n/a	18	25	6	9	8
2498.836	n/a	PROB	1249418	n/a	LTP280	ltpFR2	6	n/a	n/a	n/a	18	6	2	2	2
2499.754	n/a	PROB	1249877	n/a	LTP280	ltpFR2	6	n/a	n/a	n/a	18	18	7	3	8
2502.92	n/a	STOP	1251460	n/a	LTP280	ltpFR2	6	n/a	n/a	n/a	18	n/a	n/a	n/a	n/a
2504.792	n/a	REC_START	1252396	n/a	LTP280	ltpFR2	6	11	n/a	n/a	n/a	n/a	0	0	0
2505.15	n/a	REC_WORD	1252575	wordpools/wasnorm_wordpool_576.txt	LTP280	ltpFR2	6	11	ATOM	55	n/a	n/a	0	0	0
2505.576	n/a	REC_WORD	1252788	wordpools/wasnorm_wordpool_576.txt	LTP280	ltpFR2	6	11	CHILD	299	n/a	n/a	0	0	0
2506.262	n/a	REC_WORD	1253131	wordpools/wasnorm_wordpool_576.txt	LTP280	ltpFR2	6	11	SERVER	1272	n/a	n/a	0	0	0
2507.018	n/a	REC_WORD	1253509	wordpools/wasnorm_wordpool_576.txt	LTP280	ltpFR2	6	11	WAITRESS	1581	n/a	n/a	0	0	0
2508.022	n/a	REC_WORD_VV	1254011	wordpools/wasnorm_wordpool_576.txt	LTP280	ltpFR2	6	11	<>	-1	n/a	n/a	0	0	0
2511.55	n/a	REC_WORD	1255775	wordpools/wasnorm_wordpool_576.txt	LTP280	ltpFR2	6	11	BOARD	143	n/a	n/a	0	0	0
2519.802	n/a	REC_WORD_VV	1259901	wordpools/wasnorm_wordpool_576.txt	LTP280	ltpFR2	6	11	<>	-1	n/a	n/a	0	0	0
2528.65	n/a	REC_WORD	1264325	wordpools/wasnorm_wordpool_576.txt	LTP280	ltpFR2	6	11	BRACES	164	n/a	n/a	0	0	0
2579.164	n/a	REC_WORD	1289582	wordpools/wasnorm_wordpool_576.txt	LTP280	ltpFR2	6	11	WHISKERS	1605	n/a	n/a	0	0	0
2595.42	n/a	DISTRACTOR	1297710	n/a	LTP280	ltpFR2	6	12	n/a	n/a	n/a	n/a	0	0	0
2595.42	n/a	START	1297710	n/a	LTP280	ltpFR2	6	n/a	n/a	n/a	19	n/a	n/a	n/a	n/a
2595.452	n/a	PROB	1297726	n/a	LTP280	ltpFR2	6	n/a	n/a	n/a	19	20	7	6	7
2596.92	n/a	PROB	1298460	n/a	LTP280	ltpFR2	6	n/a	n/a	n/a	19	14	3	4	7
2598.088	n/a	PROB	1299044	n/a	LTP280	ltpFR2	6	n/a	n/a	n/a	19	14	5	1	8
2599.156	n/a	PROB	1299578	n/a	LTP280	ltpFR2	6	n/a	n/a	n/a	19	18	9	4	5
2600.774	n/a	PROB	1300387	n/a	LTP280	ltpFR2	6	n/a	n/a	n/a	19	9	1	2	6
2601.824	n/a	PROB	1300912	n/a	LTP280	ltpFR2	6	n/a	n/a	n/a	19	9	1	4	4
2603.21	n/a	PROB	1301605	n/a	LTP280	ltpFR2	6	n/a	n/a	n/a	19	1	2	3	5
2604.594	n/a	PROB	1302297	n/a	LTP280	ltpFR2	6	n/a	n/a	n/a	19	16	8	4	4
2605.778	n/a	PROB	1302889	n/a	LTP280	ltpFR2	6	n/a	n/a	n/a	19	13	2	5	7
2607.314	n/a	PROB	1303657	n/a	LTP280	ltpFR2	6	n/a	n/a	n/a	19	10	1	7	2
2608.814	n/a	PROB	1304407	n/a	LTP280	ltpFR2	6	n/a	n/a	n/a	19	16	8	4	4
2610.266	n/a	PROB	1305133	n/a	LTP280	ltpFR2	6	n/a	n/a	n/a	19	23	9	7	7
2612.116	n/a	PROB	1306058	n/a	LTP280	ltpFR2	6	n/a	n/a	n/a	19	18	3	8	7
2613.568	n/a	PROB	1306784	n/a	LTP280	ltpFR2	6	n/a	n/a	n/a	19	23	5	9	9
2615.504	n/a	PROB	1307752	n/a	LTP280	ltpFR2	6	n/a	n/a	n/a	19	12	7	1	4
2616.588	n/a	PROB	1308294	n/a	LTP280	ltpFR2	6	n/a	n/a	n/a	19	22	5	8	9
2617.898	n/a	STOP	1308949	n/a	LTP280	ltpFR2	6	n/a	n/a	n/a	19	n/a	n/a	n/a	n/a
2620.442	n/a	WORD	1310221	wordpools/wasnorm_wordpool_576.txt	LTP280	ltpFR2	6	12	JOURNAL	760	n/a	n/a	0	0	0
2623.026	n/a	WORD	1311513	wordpools/wasnorm_wordpool_576.txt	LTP280	ltpFR2	6	12	ROBOT	1200	n/a	n/a	0	0	0
2625.828	n/a	WORD	1312914	wordpools/wasnorm_wordpool_576.txt	LTP280	ltpFR2	6	12	LIVER	833	n/a	n/a	0	0	0
2628.582	n/a	WORD	1314291	wordpools/wasnorm_wordpool_576.txt	LTP280	ltpFR2	6	12	SEAL	1262	n/a	n/a	0	0	0
2631.334	n/a	WORD	1315667	wordpools/wasnorm_wordpool_576.txt	LTP280	ltpFR2	6	12	FLASHLIGHT	575	n/a	n/a	0	0	0
2633.984	n/a	WORD	1316992	wordpools/wasnorm_wordpool_576.txt	LTP280	ltpFR2	6	12	LASER	801	n/a	n/a	0	0	0
2636.588	n/a	WORD	1318294	wordpools/wasnorm_wordpool_576.txt	LTP280	ltpFR2	6	12	HERO	706	n/a	n/a	0	0	0
2639.224	n/a	WORD	1319612	wordpools/wasnorm_wordpool_576.txt	LTP280	ltpFR2	6	12	DAUGHTER	442	n/a	n/a	0	0	0
2641.758	n/a	WORD	1320879	wordpools/wasnorm_wordpool_576.txt	LTP280	ltpFR2	6	12	LETTUCE	814	n/a	n/a	0	0	0
2644.244	n/a	WORD	1322122	wordpools/wasnorm_wordpool_576.txt	LTP280	ltpFR2	6	12	TURNIP	1521	n/a	n/a	0	0	0
2646.78	n/a	WORD	1323390	wordpools/wasnorm_wordpool_576.txt	LTP280	ltpFR2	6	12	CLAM	315	n/a	n/a	0	0	0
2649.548	n/a	WORD	1324774	wordpools/wasnorm_wordpool_576.txt	LTP280	ltpFR2	6	12	BROTHER	179	n/a	n/a	0	0	0
2652.268	n/a	WORD	1326134	wordpools/wasnorm_wordpool_576.txt	LTP280	ltpFR2	6	12	OYSTER	995	n/a	n/a	0	0	0
2654.936	n/a	WORD	1327468	wordpools/wasnorm_wordpool_576.txt	LTP280	ltpFR2	6	12	SCULPTURE	1258	n/a	n/a	0	0	0
2657.672	n/a	WORD	1328836	wordpools/wasnorm_wordpool_576.txt	LTP280	ltpFR2	6	12	BEAVER	109	n/a	n/a	0	0	0
2660.158	n/a	WORD	1330079	wordpools/wasnorm_wordpool_576.txt	LTP280	ltpFR2	6	12	PISTOL	1075	n/a	n/a	0	0	0
2662.76	n/a	WORD	1331380	wordpools/wasnorm_wordpool_576.txt	LTP280	ltpFR2	6	12	MEAT	883	n/a	n/a	0	0	0
2665.346	n/a	WORD	1332673	wordpools/wasnorm_wordpool_576.txt	LTP280	ltpFR2	6	12	PROTON	1132	n/a	n/a	0	0	0
2667.932	n/a	WORD	1333966	wordpools/wasnorm_wordpool_576.txt	LTP280	ltpFR2	6	12	CABBAGE	210	n/a	n/a	0	0	0
2670.516	n/a	WORD	1335258	wordpools/wasnorm_wordpool_576.txt	LTP280	ltpFR2	6	12	DINER	467	n/a	n/a	0	0	0
2673.254	n/a	WORD	1336627	wordpools/wasnorm_wordpool_576.txt	LTP280	ltpFR2	6	12	FRIEND	606	n/a	n/a	0	0	0
2675.722	n/a	WORD	1337861	wordpools/wasnorm_wordpool_576.txt	LTP280	ltpFR2	6	12	MACHINE	852	n/a	n/a	0	0	0
2678.306	n/a	WORD	1339153	wordpools/wasnorm_wordpool_576.txt	LTP280	ltpFR2	6	12	SEAGULL	1261	n/a	n/a	0	0	0
2680.942	n/a	WORD	1340471	wordpools/wasnorm_wordpool_576.txt	LTP280	ltpFR2	6	12	LODGE	839	n/a	n/a	0	0	0
2682.56	n/a	START	1341280	n/a	LTP280	ltpFR2	6	n/a	n/a	n/a	20	n/a	n/a	n/a	n/a
2683.726	n/a	DISTRACTOR	1341863	n/a	LTP280	ltpFR2	6	12	n/a	n/a	n/a	n/a	0	0	0
2683.744	n/a	PROB	1341872	n/a	LTP280	ltpFR2	6	n/a	n/a	n/a	20	15	2	4	9
2685.23	n/a	PROB	1342615	n/a	LTP280	ltpFR2	6	n/a	n/a	n/a	20	13	4	3	6
2686.564	n/a	PROB	1343282	n/a	LTP280	ltpFR2	6	n/a	n/a	n/a	20	17	1	8	8
2687.864	n/a	PROB	1343932	n/a	LTP280	ltpFR2	6	n/a	n/a	n/a	20	16	6	8	2
2689.548	n/a	PROB	1344774	n/a	LTP280	ltpFR2	6	n/a	n/a	n/a	20	14	4	3	7
2691.05	n/a	PROB	1345525	n/a	LTP280	ltpFR2	6	n/a	n/a	n/a	20	13	5	6	2
2692.318	n/a	PROB	1346159	n/a	LTP280	ltpFR2	6	n/a	n/a	n/a	20	11	4	2	5
2693.404	n/a	PROB	1346702	n/a	LTP280	ltpFR2	6	n/a	n/a	n/a	20	19	8	4	7
2694.686	n/a	PROB	1347343	n/a	LTP280	ltpFR2	6	n/a	n/a	n/a	20	17	4	5	8
2695.888	n/a	PROB	1347944	n/a	LTP280	ltpFR2	6	n/a	n/a	n/a	20	14	4	8	2
2697.256	n/a	PROB	1348628	n/a	LTP280	ltpFR2	6	n/a	n/a	n/a	20	18	1	9	8
2698.424	n/a	PROB	1349212	n/a	LTP280	ltpFR2	6	n/a	n/a	n/a	20	11	9	1	1
2699.358	n/a	PROB	1349679	n/a	LTP280	ltpFR2	6	n/a	n/a	n/a	20	11	3	7	1
2700.31	n/a	PROB	1350155	n/a	LTP280	ltpFR2	6	n/a	n/a	n/a	20	20	7	6	7
2701.542	n/a	PROB	1350771	n/a	LTP280	ltpFR2	6	n/a	n/a	n/a	20	11	3	6	4
2703.262	n/a	PROB	1351631	n/a	LTP280	ltpFR2	6	n/a	n/a	n/a	20	22	9	8	4
2705.198	n/a	STOP	1352599	n/a	LTP280	ltpFR2	6	n/a	n/a	n/a	20	n/a	n/a	n/a	n/a
2708.366	n/a	REC_START	1354183	n/a	LTP280	ltpFR2	6	12	n/a	n/a	n/a	n/a	0	0	0
2708.506	n/a	REC_WORD	1354253	wordpools/wasnorm_wordpool_576.txt	LTP280	ltpFR2	6	12	DAUGHTER	442	n/a	n/a	0	0	0
2708.99	n/a	REC_WORD	1354495	wordpools/wasnorm_wordpool_576.txt	LTP280	ltpFR2	6	12	BROTHER	179	n/a	n/a	0	0	0
2709.482	n/a	REC_WORD	1354741	wordpools/wasnorm_wordpool_576.txt	LTP280	ltpFR2	6	12	OYSTER	995	n/a	n/a	0	0	0
2710.6	n/a	REC_WORD	1355300	wordpools/wasnorm_wordpool_576.txt	LTP280	ltpFR2	6	12	LETTUCE	814	n/a	n/a	0	0	0
2711.13	n/a	REC_WORD	1355565	wordpools/wasnorm_wordpool_576.txt	LTP280	ltpFR2	6	12	CABBAGE	210	n/a	n/a	0	0	0
2711.964	n/a	REC_WORD_VV	1355982	wordpools/wasnorm_wordpool_576.txt	LTP280	ltpFR2	6	12	<>	-1	n/a	n/a	0	0	0
2713.38	n/a	REC_WORD	1356690	wordpools/wasnorm_wordpool_576.txt	LTP280	ltpFR2	6	12	TURNIP	1521	n/a	n/a	0	0	0
2716.436	n/a	REC_WORD_VV	1358218	wordpools/wasnorm_wordpool_576.txt	LTP280	ltpFR2	6	12	<>	-1	n/a	n/a	0	0	0
2717.892	n/a	REC_WORD	1358946	wordpools/wasnorm_wordpool_576.txt	LTP280	ltpFR2	6	12	ROBOT	1200	n/a	n/a	0	0	0
2724.58	n/a	REC_WORD	1362290	wordpools/wasnorm_wordpool_576.txt	LTP280	ltpFR2	6	12	JOURNAL	760	n/a	n/a	0	0	0
2798.842	n/a	WORD	1399421	wordpools/wasnorm_wordpool_576.txt	LTP280	ltpFR2	6	13	HONEY	713	n/a	n/a	0	0	0
2801.478	n/a	WORD	1400739	wordpools/wasnorm_wordpool_576.txt	LTP280	ltpFR2	6	13	BUCKET	184	n/a	n/a	0	0	0
2804.282	n/a	WORD	1402141	wordpools/wasnorm_wordpool_576.txt	LTP280	ltpFR2	6	13	BARREL	91	n/a	n/a	0	0	0
2806.9	n/a	WORD	1403450	wordpools/wasnorm_wordpool_576.txt	LTP280	ltpFR2	6	13	BEEF	113	n/a	n/a	0	0	0
2809.352	n/a	WORD	1404676	wordpools/wasnorm_wordpool_576.txt	LTP280	ltpFR2	6	13	BUNNY	198	n/a	n/a	0	0	0
2811.804	n/a	WORD	1405902	wordpools/wasnorm_wordpool_576.txt	LTP280	ltpFR2	6	13	THREAD	1460	n/a	n/a	0	0	0
2814.424	n/a	WORD	1407212	wordpools/wasnorm_wordpool_576.txt	LTP280	ltpFR2	6	13	GROUND	666	n/a	n/a	0	0	0
2816.974	n/a	WORD	1408487	wordpools/wasnorm_wordpool_576.txt	LTP280	ltpFR2	6	13	TURTLE	1522	n/a	n/a	0	0	0
2819.744	n/a	WORD	1409872	wordpools/wasnorm_wordpool_576.txt	LTP280	ltpFR2	6	13	SCISSORS	1250	n/a	n/a	0	0	0
2822.38	n/a	WORD	1411190	wordpools/wasnorm_wordpool_576.txt	LTP280	ltpFR2	6	13	PEANUT	1032	n/a	n/a	0	0	0
2825.182	n/a	WORD	1412591	wordpools/wasnorm_wordpool_576.txt	LTP280	ltpFR2	6	13	CASHEW	253	n/a	n/a	0	0	0
2827.732	n/a	WORD	1413866	wordpools/wasnorm_wordpool_576.txt	LTP280	ltpFR2	6	13	RABBIT	1152	n/a	n/a	0	0	0
2830.402	n/a	WORD	1415201	wordpools/wasnorm_wordpool_576.txt	LTP280	ltpFR2	6	13	ROCKET	1202	n/a	n/a	0	0	0
2832.87	n/a	WORD	1416435	wordpools/wasnorm_wordpool_576.txt	LTP280	ltpFR2	6	13	SPONGE	1355	n/a	n/a	0	0	0
2835.39	n/a	WORD	1417695	wordpools/wasnorm_wordpool_576.txt	LTP280	ltpFR2	6	13	PIGMENT	1066	n/a	n/a	0	0	0
2838.008	n/a	WORD	1419004	wordpools/wasnorm_wordpool_576.txt	LTP280	ltpFR2	6	13	FLESH	579	n/a	n/a	0	0	0
2840.61	n/a	WORD	1420305	wordpools/wasnorm_wordpool_576.txt	LTP280	ltpFR2	6	13	LILY	821	n/a	n/a	0	0	0
2843.33	n/a	WORD	1421665	wordpools/wasnorm_wordpool_576.txt	LTP280	ltpFR2	6	13	BODY	145	n/a	n/a	0	0	0
2845.982	n/a	WORD	1422991	wordpools/wasnorm_wordpool_576.txt	LTP280	ltpFR2	6	13	HANDBAG	684	n/a	n/a	0	0	0
2848.802	n/a	WORD	1424401	wordpools/wasnorm_wordpool_576.txt	LTP280	ltpFR2	6	13	MISSILE	900	n/a	n/a	0	0	0
2851.554	n/a	WORD	1425777	wordpools/wasnorm_wordpool_576.txt	LTP280	ltpFR2	6	13	CAMEL	223	n/a	n/a	0	0	0
2854.358	n/a	WORD	1427179	wordpools/wasnorm_wordpool_576.txt	LTP280	ltpFR2	6	13	CABIN	211	n/a	n/a	0	0	0
2856.992	n/a	WORD	1428496	wordpools/wasnorm_wordpool_576.txt	LTP280	ltpFR2	6	13	HORNET	718	n/a	n/a	0	0	0
2859.778	n/a	WORD	1429889	wordpools/wasnorm_wordpool_576.txt	LTP280	ltpFR2	6	13	CUSTARD	429	n/a	n/a	0	0	0
2861.396	n/a	START	1430698	n/a	LTP280	ltpFR2	6	n/a	n/a	n/a	21	n/a	n/a	n/a	n/a
2862.544	n/a	DISTRACTOR	1431272	n/a	LTP280	ltpFR2	6	13	n/a	n/a	n/a	n/a	0	0	0
2862.564	n/a	PROB	1431282	n/a	LTP280	ltpFR2	6	n/a	n/a	n/a	21	18	6	5	7
2863.764	n/a	PROB	1431882	n/a	LTP280	ltpFR2	6	n/a	n/a	n/a	21	19	6	7	6
2865.216	n/a	PROB	1432608	n/a	LTP280	ltpFR2	6	n/a	n/a	n/a	21	11	1	2	8
2866.15	n/a	PROB	1433075	n/a	LTP280	ltpFR2	6	n/a	n/a	n/a	21	11	2	2	7
2867.834	n/a	PROB	1433917	n/a	LTP280	ltpFR2	6	n/a	n/a	n/a	21	11	7	3	1
2868.784	n/a	PROB	1434392	n/a	LTP280	ltpFR2	6	n/a	n/a	n/a	21	21	3	9	9
2870.002	n/a	PROB	1435001	n/a	LTP280	ltpFR2	6	n/a	n/a	n/a	21	14	4	6	6
2870.936	n/a	PROB	1435468	n/a	LTP280	ltpFR2	6	n/a	n/a	n/a	21	8	2	2	4
2872.054	n/a	PROB	1436027	n/a	LTP280	ltpFR2	6	n/a	n/a	n/a	21	15	7	1	7
2873.222	n/a	PROB	1436611	n/a	LTP280	ltpFR2	6	n/a	n/a	n/a	21	14	9	2	3
2875.156	n/a	PROB	1437578	n/a	LTP280	ltpFR2	6	n/a	n/a	n/a	21	16	2	7	7
2877.108	n/a	PROB	1438554	n/a	LTP280	ltpFR2	6	n/a	n/a	n/a	21	11	7	3	1
2877.942	n/a	PROB	1438971	n/a	LTP280	ltpFR2	6	n/a	n/a	n/a	21	13	9	1	3
2879.378	n/a	PROB	1439689	n/a	LTP280	ltpFR2	6	n/a	n/a	n/a	21	10	2	5	3
2880.878	n/a	PROB	1440439	n/a	LTP280	ltpFR2	6	n/a	n/a	n/a	21	25	6	9	9
2882.28	n/a	PROB	1441140	n/a	LTP280	ltpFR2	6	n/a	n/a	n/a	21	26	8	9	9
2884.44	n/a	STOP	1442220	n/a	LTP280	ltpFR2	6	n/a	n/a	n/a	21	n/a	n/a	n/a	n/a
2887.368	n/a	REC_START	1443684	n/a	LTP280	ltpFR2	6	13	n/a	n/a	n/a	n/a	0	0	0
2887.684	n/a	REC_WORD	1443842	wordpools/wasnorm_wordpool_576.txt	LTP280	ltpFR2	6	13	RABBIT	1152	n/a	n/a	0	0	0
2888.206	n/a	REC_WORD	1444103	wordpools/wasnorm_wordpool_576.txt	LTP280	ltpFR2	6	13	ROCKET	1202	n/a	n/a	0	0	0
2889.02	n/a	REC_WORD	1444510	wordpools/wasnorm_wordpool_576.txt	LTP280	ltpFR2	6	13	MISSILE	900	n/a	n/a	0	0	0
2895.43	n/a	REC_WORD_VV	1447715	wordpools/wasnorm_wordpool_576.txt	LTP280	ltpFR2	6	13	<>	-1	n/a	n/a	0	0	0
2977.844	n/a	WORD	1488922	wordpools/wasnorm_wordpool_576.txt	LTP280	ltpFR2	6	14	CAFE	216	n/a	n/a	0	0	0
2980.664	n/a	WORD	1490332	wordpools/wasnorm_wordpool_576.txt	LTP280	ltpFR2	6	14	JEANS	752	n/a	n/a	0	0	0
2983.166	n/a	WORD	1491583	wordpools/wasnorm_wordpool_576.txt	LTP280	ltpFR2	6	14	DOUGHNUT	490	n/a	n/a	0	0	0
2985.952	n/a	WORD	1492976	wordpools/wasnorm_wordpool_576.txt	LTP280	ltpFR2	6	14	POET	1095	n/a	n/a	0	0	0
2988.438	n/a	WORD	1494219	wordpools/wasnorm_wordpool_576.txt	LTP280	ltpFR2	6	14	CONCERT	360	n/a	n/a	0	0	0
2991.224	n/a	WORD	1495612	wordpools/wasnorm_wordpool_576.txt	LTP280	ltpFR2	6	14	GLASS	639	n/a	n/a	0	0	0
2993.842	n/a	WORD	1496921	wordpools/wasnorm_wordpool_576.txt	LTP280	ltpFR2	6	14	TRENCH	1503	n/a	n/a	0	0	0
2996.51	n/a	WORD	1498255	wordpools/wasnorm_wordpool_576.txt	LTP280	ltpFR2	6	14	BUTCHER	203	n/a	n/a	0	0	0
2999.296	n/a	WORD	1499648	wordpools/wasnorm_wordpool_576.txt	LTP280	ltpFR2	6	14	APPLE	33	n/a	n/a	0	0	0
3001.748	n/a	WORD	1500874	wordpools/wasnorm_wordpool_576.txt	LTP280	ltpFR2	6	14	CASHIER	254	n/a	n/a	0	0	0
3004.518	n/a	WORD	1502259	wordpools/wasnorm_wordpool_576.txt	LTP280	ltpFR2	6	14	MONEY	908	n/a	n/a	0	0	0
3007.07	n/a	WORD	1503535	wordpools/wasnorm_wordpool_576.txt	LTP280	ltpFR2	6	14	BANKER	84	n/a	n/a	0	0	0
3009.638	n/a	WORD	1504819	wordpools/wasnorm_wordpool_576.txt	LTP280	ltpFR2	6	14	RUST	1219	n/a	n/a	0	0	0
3012.274	n/a	WORD	1506137	wordpools/wasnorm_wordpool_576.txt	LTP280	ltpFR2	6	14	DAISY	435	n/a	n/a	0	0	0
3014.976	n/a	WORD	1507488	wordpools/wasnorm_wordpool_576.txt	LTP280	ltpFR2	6	14	COIN	343	n/a	n/a	0	0	0
3017.544	n/a	WORD	1508772	wordpools/wasnorm_wordpool_576.txt	LTP280	ltpFR2	6	14	SKILLET	1317	n/a	n/a	0	0	0
3020.248	n/a	WORD	1510124	wordpools/wasnorm_wordpool_576.txt	LTP280	ltpFR2	6	14	COOK	372	n/a	n/a	0	0	0
3022.732	n/a	WORD	1511366	wordpools/wasnorm_wordpool_576.txt	LTP280	ltpFR2	6	14	LABEL	790	n/a	n/a	0	0	0
3025.302	n/a	WORD	1512651	wordpools/wasnorm_wordpool_576.txt	LTP280	ltpFR2	6	14	RIFLE	1192	n/a	n/a	0	0	0
3027.786	n/a	WORD	1513893	wordpools/wasnorm_wordpool_576.txt	LTP280	ltpFR2	6	14	POISON	1096	n/a	n/a	0	0	0
3030.456	n/a	WORD	1515228	wordpools/wasnorm_wordpool_576.txt	LTP280	ltpFR2	6	14	WARDROBE	1587	n/a	n/a	0	0	0
3033.226	n/a	WORD	1516613	wordpools/wasnorm_wordpool_576.txt	LTP280	ltpFR2	6	14	GYMNAST	675	n/a	n/a	0	0	0
3035.81	n/a	WORD	1517905	wordpools/wasnorm_wordpool_576.txt	LTP280	ltpFR2	6	14	PORK	1108	n/a	n/a	0	0	0
3038.612	n/a	WORD	1519306	wordpools/wasnorm_wordpool_576.txt	LTP280	ltpFR2	6	14	WIFE	1609	n/a	n/a	0	0	0
3040.232	n/a	START	1520116	n/a	LTP280	ltpFR2	6	n/a	n/a	n/a	22	n/a	n/a	n/a	n/a
3041.236	n/a	DISTRACTOR	1520618	n/a	LTP280	ltpFR2	6	14	n/a	n/a	n/a	n/a	0	0	0
3041.25	n/a	PROB	1520625	n/a	LTP280	ltpFR2	6	n/a	n/a	n/a	22	13	6	2	5
3042.984	n/a	PROB	1521492	n/a	LTP280	ltpFR2	6	n/a	n/a	n/a	22	15	1	7	6
3044.134	n/a	PROB	1522067	n/a	LTP280	ltpFR2	6	n/a	n/a	n/a	22	10	3	6	1
3045.402	n/a	PROB	1522701	n/a	LTP280	ltpFR2	6	n/a	n/a	n/a	22	14	4	4	6
3046.736	n/a	PROB	1523368	n/a	LTP280	ltpFR2	6	n/a	n/a	n/a	22	11	2	4	5
3047.92	n/a	PROB	1523960	n/a	LTP280	ltpFR2	6	n/a	n/a	n/a	22	23	9	6	8
3049.506	n/a	PROB	1524753	n/a	LTP280	ltpFR2	6	n/a	n/a	n/a	22	23	9	5	9
3051.258	n/a	PROB	1525629	n/a	LTP280	ltpFR2	6	n/a	n/a	n/a	22	8	1	6	1
3052.258	n/a	PROB	1526129	n/a	LTP280	ltpFR2	6	n/a	n/a	n/a	22	15	5	5	5
3053.26	n/a	PROB	1526630	n/a	LTP280	ltpFR2	6	n/a	n/a	n/a	22	14	3	3	8
3054.444	n/a	PROB	1527222	n/a	LTP280	ltpFR2	6	n/a	n/a	n/a	22	15	7	4	4
3055.944	n/a	PROB	1527972	n/a	LTP280	ltpFR2	6	n/a	n/a	n/a	22	13	2	4	7
3057.312	n/a	PROB	1528656	n/a	LTP280	ltpFR2	6	n/a	n/a	n/a	22	8	6	1	1
3058.314	n/a	PROB	1529157	n/a	LTP280	ltpFR2	6	n/a	n/a	n/a	22	11	5	7	2
3059.696	n/a	PROB	1529848	n/a	LTP280	ltpFR2	6	n/a	n/a	n/a	22	18	7	7	4
3061.164	n/a	PROB	1530582	n/a	LTP280	ltpFR2	6	n/a	n/a	n/a	22	18	1	8	9
3064.23	n/a	STOP	1532115	n/a	LTP280	ltpFR2	6	n/a	n/a	n/a	22	n/a	n/a	n/a	n/a
3066.102	n/a	REC_START	1533051	n/a	LTP280	ltpFR2	6	14	n/a	n/a	n/a	n/a	0	0	0
3066.514	n/a	REC_WORD	1533257	wordpools/wasnorm_wordpool_576.txt	LTP280	ltpFR2	6	14	RUST	1219	n/a	n/a	0	0	0
3067.102	n/a	REC_WORD	1533551	wordpools/wasnorm_wordpool_576.txt	LTP280	ltpFR2	6	14	DAISY	435	n/a	n/a	0	0	0
3067.766	n/a	REC_WORD	1533883	wordpools/wasnorm_wordpool_576.txt	LTP280	ltpFR2	6	14	CORN	381	n/a	n/a	0	0	0
3068.46	n/a	REC_WORD	1534230	wordpools/wasnorm_wordpool_576.txt	LTP280	ltpFR2	6	14	SKILLET	1317	n/a	n/a	0	0	0
3073.502	n/a	REC_WORD	1536751	wordpools/wasnorm_wordpool_576.txt	LTP280	ltpFR2	6	14	JEANS	752	n/a	n/a	0	0	0
3074.274	n/a	REC_WORD	1537137	wordpools/wasnorm_wordpool_576.txt	LTP280	ltpFR2	6	14	CAFE	216	n/a	n/a	0	0	0
3075.14	n/a	REC_WORD	1537570	wordpools/wasnorm_wordpool_576.txt	LTP280	ltpFR2	6	14	POET	1095	n/a	n/a	0	0	0
3075.702	n/a	REC_WORD	1537851	wordpools/wasnorm_wordpool_576.txt	LTP280	ltpFR2	6	14	CONCERT	360	n/a	n/a	0	0	0
3156.746	n/a	DISTRACTOR	1578373	n/a	LTP280	ltpFR2	6	15	n/a	n/a	n/a	n/a	0	0	0
3156.746	n/a	START	1578373	n/a	LTP280	ltpFR2	6	n/a	n/a	n/a	23	n/a	n/a	n/a	n/a
3156.78	n/a	PROB	1578390	n/a	LTP280	ltpFR2	6	n/a	n/a	n/a	23	12	6	5	1
3157.764	n/a	PROB	1578882	n/a	LTP280	ltpFR2	6	n/a	n/a	n/a	23	10	8	1	1
3158.78	n/a	PROB	1579390	n/a	LTP280	ltpFR2	6	n/a	n/a	n/a	23	18	4	2	9
3160.098	n/a	PROB	1580049	n/a	LTP280	ltpFR2	6	n/a	n/a	n/a	23	19	5	7	7
3161.968	n/a	PROB	1580984	n/a	LTP280	ltpFR2	6	n/a	n/a	n/a	23	17	1	9	7
3163.42	n/a	PROB	1581710	n/a	LTP280	ltpFR2	6	n/a	n/a	n/a	23	21	6	8	7
3164.77	n/a	PROB	1582385	n/a	LTP280	ltpFR2	6	n/a	n/a	n/a	23	8	5	2	1
3165.686	n/a	PROB	1582843	n/a	LTP280	ltpFR2	6	n/a	n/a	n/a	23	12	2	6	4
3167.054	n/a	PROB	1583527	n/a	LTP280	ltpFR2	6	n/a	n/a	n/a	23	22	9	6	7
3168.606	n/a	PROB	1584303	n/a	LTP280	ltpFR2	6	n/a	n/a	n/a	23	11	8	3	2
3170.308	n/a	PROB	1585154	n/a	LTP280	ltpFR2	6	n/a	n/a	n/a	23	16	2	9	5
3171.776	n/a	PROB	1585888	n/a	LTP280	ltpFR2	6	n/a	n/a	n/a	23	13	7	4	2
3173.126	n/a	PROB	1586563	n/a	LTP280	ltpFR2	6	n/a	n/a	n/a	23	18	3	6	9
3174.328	n/a	PROB	1587164	n/a	LTP280	ltpFR2	6	n/a	n/a	n/a	23	19	6	6	7
3175.662	n/a	PROB	1587831	n/a	LTP280	ltpFR2	6	n/a	n/a	n/a	23	15	5	9	1
3176.696	n/a	PROB	1588348	n/a	LTP280	ltpFR2	6	n/a	n/a	n/a	23	15	4	8	3
3178.082	n/a	PROB	1589041	n/a	LTP280	ltpFR2	6	n/a	n/a	n/a	23	16	8	2	6
3179.23	n/a	STOP	1589615	n/a	LTP280	ltpFR2	6	n/a	n/a	n/a	23	n/a	n/a	n/a	n/a
3181.568	n/a	WORD	1590784	wordpools/wasnorm_wordpool_576.txt	LTP280	ltpFR2	6	15	SEAFOOD	1260	n/a	n/a	0	0	0
3184.102	n/a	WORD	1592051	wordpools/wasnorm_wordpool_576.txt	LTP280	ltpFR2	6	15	SMOG	1330	n/a	n/a	0	0	0
3186.622	n/a	WORD	1593311	wordpools/wasnorm_wordpool_576.txt	LTP280	ltpFR2	6	15	TOURIST	1488	n/a	n/a	0	0	0
3189.158	n/a	WORD	1594579	wordpools/wasnorm_wordpool_576.txt	LTP280	ltpFR2	6	15	PLASTER	1085	n/a	n/a	0	0	0
3191.826	n/a	WORD	1595913	wordpools/wasnorm_wordpool_576.txt	LTP280	ltpFR2	6	15	VIKING	1565	n/a	n/a	0	0	0
3194.396	n/a	WORD	1597198	wordpools/wasnorm_wordpool_576.txt	LTP280	ltpFR2	6	15	MARINE	869	n/a	n/a	0	0	0
3197.098	n/a	WORD	1598549	wordpools/wasnorm_wordpool_576.txt	LTP280	ltpFR2	6	15	GREASE	660	n/a	n/a	0	0	0
3199.616	n/a	WORD	1599808	wordpools/wasnorm_wordpool_576.txt	LTP280	ltpFR2	6	15	BRANCH	168	n/a	n/a	0	0	0
3202.186	n/a	WORD	1601093	wordpools/wasnorm_wordpool_576.txt	LTP280	ltpFR2	6	15	FRIAR	605	n/a	n/a	0	0	0
3204.686	n/a	WORD	1602343	wordpools/wasnorm_wordpool_576.txt	LTP280	ltpFR2	6	15	CHURCH	307	n/a	n/a	0	0	0
3207.472	n/a	WORD	1603736	wordpools/wasnorm_wordpool_576.txt	LTP280	ltpFR2	6	15	DOLPHIN	483	n/a	n/a	0	0	0
3210.024	n/a	WORD	1605012	wordpools/wasnorm_wordpool_576.txt	LTP280	ltpFR2	6	15	ELBOW	520	n/a	n/a	0	0	0
3212.676	n/a	WORD	1606338	wordpools/wasnorm_wordpool_576.txt	LTP280	ltpFR2	6	15	TROUT	1511	n/a	n/a	0	0	0
3215.23	n/a	WORD	1607615	wordpools/wasnorm_wordpool_576.txt	LTP280	ltpFR2	6	15	JELLY	755	n/a	n/a	0	0	0
3217.882	n/a	WORD	1608941	wordpools/wasnorm_wordpool_576.txt	LTP280	ltpFR2	6	15	SHARK	1275	n/a	n/a	0	0	0
3220.402	n/a	WORD	1610201	wordpools/wasnorm_wordpool_576.txt	LTP280	ltpFR2	6	15	PREACHER	1119	n/a	n/a	0	0	0
3223.12	n/a	WORD	1611560	wordpools/wasnorm_wordpool_576.txt	LTP280	ltpFR2	6	15	LUMBER	848	n/a	n/a	0	0	0
3225.722	n/a	WORD	1612861	wordpools/wasnorm_wordpool_576.txt	LTP280	ltpFR2	6	15	PAIL	1002	n/a	n/a	0	0	0
3228.508	n/a	WORD	1614254	wordpools/wasnorm_wordpool_576.txt	LTP280	ltpFR2	6	15	ISLAND	745	n/a	n/a	0	0	0
3231.01	n/a	WORD	1615505	wordpools/wasnorm_wordpool_576.txt	LTP280	ltpFR2	6	15	COURSE	390	n/a	n/a	0	0	0
3233.494	n/a	WORD	1616747	wordpools/wasnorm_wordpool_576.txt	LTP280	ltpFR2	6	15	FLUTE	585	n/a	n/a	0	0	0
3236.064	n/a	WORD	1618032	wordpools/wasnorm_wordpool_576.txt	LTP280	ltpFR2	6	15	ORANGE	980	n/a	n/a	0	0	0
3238.716	n/a	WORD	1619358	wordpools/wasnorm_wordpool_576.txt	LTP280	ltpFR2	6	15	DANDRUFF	439	n/a	n/a	0	0	0
3241.336	n/a	WORD	1620668	wordpools/wasnorm_wordpool_576.txt	LTP280	ltpFR2	6	15	FOREHEAD	592	n/a	n/a	0	0	0
3242.954	n/a	START	1621477	n/a	LTP280	ltpFR2	6	n/a	n/a	n/a	24	n/a	n/a	n/a	n/a
3243.96	n/a	DISTRACTOR	1621980	n/a	LTP280	ltpFR2	6	15	n/a	n/a	n/a	n/a	0	0	0
3243.97	n/a	PROB	1621985	n/a	LTP280	ltpFR2	6	n/a	n/a	n/a	24	11	5	4	1
3245.406	n/a	PROB	1622703	n/a	LTP280	ltpFR2	6	n/a	n/a	n/a	24	13	1	7	5
3246.556	n/a	PROB	1623278	n/a	LTP280	ltpFR2	6	n/a	n/a	n/a	24	15	6	6	3
3247.874	n/a	PROB	1623937	n/a	LTP280	ltpFR2	6	n/a	n/a	n/a	24	24	9	8	7
3249.208	n/a	PROB	1624604	n/a	LTP280	ltpFR2	6	n/a	n/a	n/a	24	12	5	3	4
3250.792	n/a	PROB	1625396	n/a	LTP280	ltpFR2	6	n/a	n/a	n/a	24	19	6	6	7
3252.328	n/a	PROB	1626164	n/a	LTP280	ltpFR2	6	n/a	n/a	n/a	24	6	3	2	1
3253.212	n/a	PROB	1626606	n/a	LTP280	ltpFR2	6	n/a	n/a	n/a	24	15	5	8	2
3254.312	n/a	PROB	1627156	n/a	LTP280	ltpFR2	6	n/a	n/a	n/a	24	17	2	7	8
3256.332	n/a	PROB	1628166	n/a	LTP280	ltpFR2	6	n/a	n/a	n/a	24	12	3	6	3
3257.948	n/a	PROB	1628974	n/a	LTP280	ltpFR2	6	n/a	n/a	n/a	24	23	8	9	5
3259.268	n/a	PROB	1629634	n/a	LTP280	ltpFR2	6	n/a	n/a	n/a	24	123	3	4	5
3262.652	n/a	PROB	1631326	n/a	LTP280	ltpFR2	6	n/a	n/a	n/a	24	4	1	1	2
3263.57	n/a	PROB	1631785	n/a	LTP280	ltpFR2	6	n/a	n/a	n/a	24	17	2	6	9
3264.938	n/a	PROB	1632469	n/a	LTP280	ltpFR2	6	n/a	n/a	n/a	24	14	7	5	2
3265.998	n/a	STOP	1632999	n/a	LTP280	ltpFR2	6	n/a	n/a	n/a	24	n/a	n/a	n/a	n/a
3268.876	n/a	REC_START	1634438	n/a	LTP280	ltpFR2	6	15	n/a	n/a	n/a	n/a	0	0	0
3269.124	n/a	REC_WORD	1634562	wordpools/wasnorm_wordpool_576.txt	LTP280	ltpFR2	6	15	PAIL	1002	n/a	n/a	0	0	0
3269.758	n/a	REC_WORD_VV	1634879	wordpools/wasnorm_wordpool_576.txt	LTP280	ltpFR2	6	15	<>	-1	n/a	n/a	0	0	0
3270.342	n/a	REC_WORD	1635171	wordpools/wasnorm_wordpool_576.txt	LTP280	ltpFR2	6	15	JOURNALIST	-1	n/a	n/a	0	0	0
3271.902	n/a	REC_WORD	1635951	wordpools/wasnorm_wordpool_576.txt	LTP280	ltpFR2	6	15	ISLAND	745	n/a	n/a	0	0	0
3272.438	n/a	REC_WORD	1636219	wordpools/wasnorm_wordpool_576.txt	LTP280	ltpFR2	6	15	FLOAT	-1	n/a	n/a	0	0	0
3275.158	n/a	REC_WORD	1637579	wordpools/wasnorm_wordpool_576.txt	LTP280	ltpFR2	6	15	SEAFOOD	1260	n/a	n/a	0	0	0
3275.788	n/a	REC_WORD	1637894	wordpools/wasnorm_wordpool_576.txt	LTP280	ltpFR2	6	15	SMOG	1330	n/a	n/a	0	0	0
3276.524	n/a	REC_WORD	1638262	wordpools/wasnorm_wordpool_576.txt	LTP280	ltpFR2	6	15	TOURIST	1488	n/a	n/a	0	0	0
3277.232	n/a	REC_WORD	1638616	wordpools/wasnorm_wordpool_576.txt	LTP280	ltpFR2	6	15	PLASTER	1085	n/a	n/a	0	0	0
3277.996	n/a	REC_WORD	1638998	wordpools/wasnorm_wordpool_576.txt	LTP280	ltpFR2	6	15	MARINE	869	n/a	n/a	0	0	0
3278.798	n/a	REC_WORD	1639399	wordpools/wasnorm_wordpool_576.txt	LTP280	ltpFR2	6	15	VIKING	1565	n/a	n/a	0	0	0
3359.502	n/a	DISTRACTOR	1679751	n/a	LTP280	ltpFR2	6	16	n/a	n/a	n/a	n/a	0	0	0
3359.502	n/a	START	1679751	n/a	LTP280	ltpFR2	6	n/a	n/a	n/a	25	n/a	n/a	n/a	n/a
3359.536	n/a	PROB	1679768	n/a	LTP280	ltpFR2	6	n/a	n/a	n/a	25	13	3	2	8
3361.27	n/a	PROB	1680635	n/a	LTP280	ltpFR2	6	n/a	n/a	n/a	25	8	6	6	6
3362.438	n/a	PROB	1681219	n/a	LTP280	ltpFR2	6	n/a	n/a	n/a	25	8	2	6	2
3363.822	n/a	PROB	1681911	n/a	LTP280	ltpFR2	6	n/a	n/a	n/a	25	22	9	6	7
3365.342	n/a	PROB	1682671	n/a	LTP280	ltpFR2	6	n/a	n/a	n/a	25	19	7	6	6
3367.758	n/a	PROB	1683879	n/a	LTP280	ltpFR2	6	n/a	n/a	n/a	25	14	2	8	4
3368.794	n/a	PROB	1684397	n/a	LTP280	ltpFR2	6	n/a	n/a	n/a	25	16	6	2	8
3370.11	n/a	PROB	1685055	n/a	LTP280	ltpFR2	6	n/a	n/a	n/a	25	13	3	1	9
3371.23	n/a	PROB	1685615	n/a	LTP280	ltpFR2	6	n/a	n/a	n/a	25	11	1	9	1
3372.28	n/a	PROB	1686140	n/a	LTP280	ltpFR2	6	n/a	n/a	n/a	25	18	8	6	4
3373.564	n/a	PROB	1686782	n/a	LTP280	ltpFR2	6	n/a	n/a	n/a	25	12	5	6	1
3374.548	n/a	PROB	1687274	n/a	LTP280	ltpFR2	6	n/a	n/a	n/a	25	11	5	2	4
3376.168	n/a	PROB	1688084	n/a	LTP280	ltpFR2	6	n/a	n/a	n/a	25	15	6	5	4
3377.384	n/a	PROB	1688692	n/a	LTP280	ltpFR2	6	n/a	n/a	n/a	25	15	7	1	7
3378.402	n/a	PROB	1689201	n/a	LTP280	ltpFR2	6	n/a	n/a	n/a	25	18	4	8	6
3379.836	n/a	PROB	1689918	n/a	LTP280	ltpFR2	6	n/a	n/a	n/a	25	16	8	3	5
3381.054	n/a	PROB	1690527	n/a	LTP280	ltpFR2	6	n/a	n/a	n/a	25	5	3	1	1
3381.854	n/a	PROB	1690927	n/a	LTP280	ltpFR2	6	n/a	n/a	n/a	25	18	7	4	7
3383.33	n/a	STOP	1691665	n/a	LTP280	ltpFR2	6	n/a	n/a	n/a	25	n/a	n/a	n/a	n/a
3384.59	n/a	WORD	1692295	wordpools/wasnorm_wordpool_576.txt	LTP280	ltpFR2	6	16	PARSLEY	1016	n/a	n/a	0	0	0
3387.31	n/a	WORD	1693655	wordpools/wasnorm_wordpool_576.txt	LTP280	ltpFR2	6	16	MEDAL	885	n/a	n/a	0	0	0
3390.028	n/a	WORD	1695014	wordpools/wasnorm_wordpool_576.txt	LTP280	ltpFR2	6	16	LEOPARD	812	n/a	n/a	0	0	0
3392.596	n/a	WORD	1696298	wordpools/wasnorm_wordpool_576.txt	LTP280	ltpFR2	6	16	DUST	508	n/a	n/a	0	0	0
3395.148	n/a	WORD	1697574	wordpools/wasnorm_wordpool_576.txt	LTP280	ltpFR2	6	16	MARSH	874	n/a	n/a	0	0	0
3397.918	n/a	WORD	1698959	wordpools/wasnorm_wordpool_576.txt	LTP280	ltpFR2	6	16	PUDDLE	1140	n/a	n/a	0	0	0
3400.47	n/a	WORD	1700235	wordpools/wasnorm_wordpool_576.txt	LTP280	ltpFR2	6	16	ANTLER	29	n/a	n/a	0	0	0
3403.224	n/a	WORD	1701612	wordpools/wasnorm_wordpool_576.txt	LTP280	ltpFR2	6	16	DRUG	501	n/a	n/a	0	0	0
3405.74	n/a	WORD	1702870	wordpools/wasnorm_wordpool_576.txt	LTP280	ltpFR2	6	16	TWISTER	1530	n/a	n/a	0	0	0
3408.378	n/a	WORD	1704189	wordpools/wasnorm_wordpool_576.txt	LTP280	ltpFR2	6	16	NECKLACE	940	n/a	n/a	0	0	0
3410.846	n/a	WORD	1705423	wordpools/wasnorm_wordpool_576.txt	LTP280	ltpFR2	6	16	BLUEPRINT	142	n/a	n/a	0	0	0
3413.348	n/a	WORD	1706674	wordpools/wasnorm_wordpool_576.txt	LTP280	ltpFR2	6	16	POLICE	1098	n/a	n/a	0	0	0
3416.05	n/a	WORD	1708025	wordpools/wasnorm_wordpool_576.txt	LTP280	ltpFR2	6	16	OUTDOORS	987	n/a	n/a	0	0	0
3418.718	n/a	WORD	1709359	wordpools/wasnorm_wordpool_576.txt	LTP280	ltpFR2	6	16	WRIST	1626	n/a	n/a	0	0	0
3421.488	n/a	WORD	1710744	wordpools/wasnorm_wordpool_576.txt	LTP280	ltpFR2	6	16	BIKE	125	n/a	n/a	0	0	0
3424.224	n/a	WORD	1712112	wordpools/wasnorm_wordpool_576.txt	LTP280	ltpFR2	6	16	FOREST	593	n/a	n/a	0	0	0
3426.926	n/a	WORD	1713463	wordpools/wasnorm_wordpool_576.txt	LTP280	ltpFR2	6	16	CYCLONE	431	n/a	n/a	0	0	0
3429.478	n/a	WORD	1714739	wordpools/wasnorm_wordpool_576.txt	LTP280	ltpFR2	6	16	CRICKET	408	n/a	n/a	0	0	0
3431.93	n/a	WORD	1715965	wordpools/wasnorm_wordpool_576.txt	LTP280	ltpFR2	6	16	NOTEBOOK	959	n/a	n/a	0	0	0
3434.516	n/a	WORD	1717258	wordpools/wasnorm_wordpool_576.txt	LTP280	ltpFR2	6	16	NAPKIN	937	n/a	n/a	0	0	0
3437.202	n/a	WORD	1718601	wordpools/wasnorm_wordpool_576.txt	LTP280	ltpFR2	6	16	KLEENEX	782	n/a	n/a	0	0	0
3439.802	n/a	WORD	1719901	wordpools/wasnorm_wordpool_576.txt	LTP280	ltpFR2	6	16	LADY	794	n/a	n/a	0	0	0
3442.24	n/a	WORD	1721120	wordpools/wasnorm_wordpool_576.txt	LTP280	ltpFR2	6	16	SISTER	1312	n/a	n/a	0	0	0
3444.79	n/a	WORD	1722395	wordpools/wasnorm_wordpool_576.txt	LTP280	ltpFR2	6	16	PARENT	1013	n/a	n/a	0	0	0
3446.41	n/a	START	1723205	n/a	LTP280	ltpFR2	6	n/a	n/a	n/a	26	n/a	n/a	n/a	n/a
3447.462	n/a	DISTRACTOR	1723731	n/a	LTP280	ltpFR2	6	16	n/a	n/a	n/a	n/a	0	0	0
3447.476	n/a	PROB	1723738	n/a	LTP280	ltpFR2	6	n/a	n/a	n/a	26	21	8	9	4
3448.778	n/a	PROB	1724389	n/a	LTP280	ltpFR2	6	n/a	n/a	n/a	26	14	5	7	2
3449.828	n/a	PROB	1724914	n/a	LTP280	ltpFR2	6	n/a	n/a	n/a	26	23	9	5	9
3451.664	n/a	PROB	1725832	n/a	LTP280	ltpFR2	6	n/a	n/a	n/a	26	11	1	5	5
3452.698	n/a	PROB	1726349	n/a	LTP280	ltpFR2	6	n/a	n/a	n/a	26	19	3	8	8
3454.098	n/a	PROB	1727049	n/a	LTP280	ltpFR2	6	n/a	n/a	n/a	26	16	9	2	5
3456.068	n/a	PROB	1728034	n/a	LTP280	ltpFR2	6	n/a	n/a	n/a	26	18	8	9	1
3457.152	n/a	PROB	1728576	n/a	LTP280	ltpFR2	6	n/a	n/a	n/a	26	13	4	8	1
3458.086	n/a	PROB	1729043	n/a	LTP280	ltpFR2	6	n/a	n/a	n/a	26	17	4	4	9
3459.388	n/a	PROB	1729694	n/a	LTP280	ltpFR2	6	n/a	n/a	n/a	26	10	2	6	2
3460.672	n/a	PROB	1730336	n/a	LTP280	ltpFR2	6	n/a	n/a	n/a	26	7	1	4	2
3461.638	n/a	PROB	1730819	n/a	LTP280	ltpFR2	6	n/a	n/a	n/a	26	17	7	1	9
3462.79	n/a	PROB	1731395	n/a	LTP280	ltpFR2	6	n/a	n/a	n/a	26	18	7	5	6
3464.074	n/a	PROB	1732037	n/a	LTP280	ltpFR2	6	n/a	n/a	n/a	26	14	4	9	1
3465.042	n/a	PROB	1732521	n/a	LTP280	ltpFR2	6	n/a	n/a	n/a	26	7	1	2	4
3466.026	n/a	PROB	1733013	n/a	LTP280	ltpFR2	6	n/a	n/a	n/a	26	10	2	7	1
3467.244	n/a	PROB	1733622	n/a	LTP280	ltpFR2	6	n/a	n/a	n/a	26	19	1	9	9
3468.328	n/a	PROB	1734164	n/a	LTP280	ltpFR2	6	n/a	n/a	n/a	26	1	1	1	1
3469.188	n/a	STOP	1734594	n/a	LTP280	ltpFR2	6	n/a	n/a	n/a	26	n/a	n/a	n/a	n/a
3472.266	n/a	REC_START	1736133	n/a	LTP280	ltpFR2	6	16	n/a	n/a	n/a	n/a	0	0	0
3472.514	n/a	REC_WORD	1736257	wordpools/wasnorm_wordpool_576.txt	LTP280	ltpFR2	6	16	NAPKIN	937	n/a	n/a	0	0	0
3473.114	n/a	REC_WORD_VV	1736557	wordpools/wasnorm_wordpool_576.txt	LTP280	ltpFR2	6	16	<>	-1	n/a	n/a	0	0	0
3473.592	n/a	REC_WORD	1736796	wordpools/wasnorm_wordpool_576.txt	LTP280	ltpFR2	6	16	KLEENEX	782	n/a	n/a	0	0	0
3474.224	n/a	REC_WORD	1737112	wordpools/wasnorm_wordpool_576.txt	LTP280	ltpFR2	6	16	LADY	794	n/a	n/a	0	0	0
3474.852	n/a	REC_WORD	1737426	wordpools/wasnorm_wordpool_576.txt	LTP280	ltpFR2	6	16	SISTER	1312	n/a	n/a	0	0	0
3498.4	n/a	REC_WORD	1749200	wordpools/wasnorm_wordpool_576.txt	LTP280	ltpFR2	6	16	MEDAL	885	n/a	n/a	0	0	0
3548.812	n/a	REST_REWET	1774406	n/a	LTP280	ltpFR2	6	16	n/a	n/a	n/a	n/a	0	0	0
3751.436	n/a	DISTRACTOR	1875718	n/a	LTP280	ltpFR2	6	17	n/a	n/a	n/a	n/a	0	0	0
3751.436	n/a	START	1875718	n/a	LTP280	ltpFR2	6	n/a	n/a	n/a	27	n/a	n/a	n/a	n/a
3751.452	n/a	PROB	1875726	n/a	LTP280	ltpFR2	6	n/a	n/a	n/a	27	16	5	7	3
3753.32	n/a	PROB	1876660	n/a	LTP280	ltpFR2	6	n/a	n/a	n/a	27	7	2	1	4
3754.838	n/a	PROB	1877419	n/a	LTP280	ltpFR2	6	n/a	n/a	n/a	27	10	2	6	2
3756.356	n/a	PROB	1878178	n/a	LTP280	ltpFR2	6	n/a	n/a	n/a	27	21	9	8	4
3757.59	n/a	PROB	1878795	n/a	LTP280	ltpFR2	6	n/a	n/a	n/a	27	20	8	6	6
3759.242	n/a	PROB	1879621	n/a	LTP280	ltpFR2	6	n/a	n/a	n/a	27	16	4	3	9
3760.56	n/a	PROB	1880280	n/a	LTP280	ltpFR2	6	n/a	n/a	n/a	27	15	4	3	8
3761.81	n/a	PROB	1880905	n/a	LTP280	ltpFR2	6	n/a	n/a	n/a	27	14	6	1	7
3762.862	n/a	PROB	1881431	n/a	LTP280	ltpFR2	6	n/a	n/a	n/a	27	11	4	2	5
3764.348	n/a	PROB	1882174	n/a	LTP280	ltpFR2	6	n/a	n/a	n/a	27	13	7	1	5
3766.132	n/a	PROB	1883066	n/a	LTP280	ltpFR2	6	n/a	n/a	n/a	27	13	6	2	5
3767.448	n/a	PROB	1883724	n/a	LTP280	ltpFR2	6	n/a	n/a	n/a	27	16	2	9	5
3768.8	n/a	PROB	1884400	n/a	LTP280	ltpFR2	6	n/a	n/a	n/a	27	6	1	4	1
3769.65	n/a	PROB	1884825	n/a	LTP280	ltpFR2	6	n/a	n/a	n/a	27	15	4	6	5
3770.85	n/a	PROB	1885425	n/a	LTP280	ltpFR2	6	n/a	n/a	n/a	27	15	4	6	5
3771.602	n/a	PROB	1885801	n/a	LTP280	ltpFR2	6	n/a	n/a	n/a	27	2	8	8	5
3773.27	n/a	PROB	1886635	n/a	LTP280	ltpFR2	6	n/a	n/a	n/a	27	14	5	2	7
3775.072	n/a	STOP	1887536	n/a	LTP280	ltpFR2	6	n/a	n/a	n/a	27	n/a	n/a	n/a	n/a
3776.424	n/a	WORD	1888212	wordpools/wasnorm_wordpool_576.txt	LTP280	ltpFR2	6	17	DRAWING	494	n/a	n/a	0	0	0
3778.858	n/a	WORD	1889429	wordpools/wasnorm_wordpool_576.txt	LTP280	ltpFR2	6	17	CREVICE	405	n/a	n/a	0	0	0
3781.66	n/a	WORD	1890830	wordpools/wasnorm_wordpool_576.txt	LTP280	ltpFR2	6	17	PUPIL	1143	n/a	n/a	0	0	0
3784.314	n/a	WORD	1892157	wordpools/wasnorm_wordpool_576.txt	LTP280	ltpFR2	6	17	STUDENT	1395	n/a	n/a	0	0	0
3786.764	n/a	WORD	1893382	wordpools/wasnorm_wordpool_576.txt	LTP280	ltpFR2	6	17	PLAYGROUND	1087	n/a	n/a	0	0	0
3789.55	n/a	WORD	1894775	wordpools/wasnorm_wordpool_576.txt	LTP280	ltpFR2	6	17	ONION	977	n/a	n/a	0	0	0
3792.338	n/a	WORD	1896169	wordpools/wasnorm_wordpool_576.txt	LTP280	ltpFR2	6	17	RELISH	1183	n/a	n/a	0	0	0
3794.838	n/a	WORD	1897419	wordpools/wasnorm_wordpool_576.txt	LTP280	ltpFR2	6	17	SIDEWALK	1303	n/a	n/a	0	0	0
3797.458	n/a	WORD	1898729	wordpools/wasnorm_wordpool_576.txt	LTP280	ltpFR2	6	17	PICTURE	1061	n/a	n/a	0	0	0
3800.11	n/a	WORD	1900055	wordpools/wasnorm_wordpool_576.txt	LTP280	ltpFR2	6	17	SCRIBBLE	1256	n/a	n/a	0	0	0
3802.678	n/a	WORD	1901339	wordpools/wasnorm_wordpool_576.txt	LTP280	ltpFR2	6	17	GRILL	661	n/a	n/a	0	0	0
3805.382	n/a	WORD	1902691	wordpools/wasnorm_wordpool_576.txt	LTP280	ltpFR2	6	17	SKETCH	1315	n/a	n/a	0	0	0
3808.202	n/a	WORD	1904101	wordpools/wasnorm_wordpool_576.txt	LTP280	ltpFR2	6	17	SLIDE	1326	n/a	n/a	0	0	0
3811.002	n/a	WORD	1905501	wordpools/wasnorm_wordpool_576.txt	LTP280	ltpFR2	6	17	ROD	1203	n/a	n/a	0	0	0
3813.454	n/a	WORD	1906727	wordpools/wasnorm_wordpool_576.txt	LTP280	ltpFR2	6	17	LIGHTNING	820	n/a	n/a	0	0	0
3816.106	n/a	WORD	1908053	wordpools/wasnorm_wordpool_576.txt	LTP280	ltpFR2	6	17	HAWK	692	n/a	n/a	0	0	0
3818.808	n/a	WORD	1909404	wordpools/wasnorm_wordpool_576.txt	LTP280	ltpFR2	6	17	LION	827	n/a	n/a	0	0	0
3821.344	n/a	WORD	1910672	wordpools/wasnorm_wordpool_576.txt	LTP280	ltpFR2	6	17	QUARTER	1148	n/a	n/a	0	0	0
3824.112	n/a	WORD	1912056	wordpools/wasnorm_wordpool_576.txt	LTP280	ltpFR2	6	17	CONVICT	371	n/a	n/a	0	0	0
3826.716	n/a	WORD	1913358	wordpools/wasnorm_wordpool_576.txt	LTP280	ltpFR2	6	17	COFFEE	341	n/a	n/a	0	0	0
3829.434	n/a	WORD	1914717	wordpools/wasnorm_wordpool_576.txt	LTP280	ltpFR2	6	17	COTTAGE	384	n/a	n/a	0	0	0
3831.904	n/a	WORD	1915952	wordpools/wasnorm_wordpool_576.txt	LTP280	ltpFR2	6	17	CANAL	226	n/a	n/a	0	0	0
3834.588	n/a	WORD	1917294	wordpools/wasnorm_wordpool_576.txt	LTP280	ltpFR2	6	17	ZEBRA	1635	n/a	n/a	0	0	0
3837.074	n/a	WORD	1918537	wordpools/wasnorm_wordpool_576.txt	LTP280	ltpFR2	6	17	BUGGY	188	n/a	n/a	0	0	0
3838.692	n/a	START	1919346	n/a	LTP280	ltpFR2	6	n/a	n/a	n/a	28	n/a	n/a	n/a	n/a
3839.764	n/a	DISTRACTOR	1919882	n/a	LTP280	ltpFR2	6	17	n/a	n/a	n/a	n/a	0	0	0
3839.794	n/a	PROB	1919897	n/a	LTP280	ltpFR2	6	n/a	n/a	n/a	28	15	5	4	6
3841.196	n/a	PROB	1920598	n/a	LTP280	ltpFR2	6	n/a	n/a	n/a	28	14	3	6	5
3843.18	n/a	PROB	1921590	n/a	LTP280	ltpFR2	6	n/a	n/a	n/a	28	25	9	9	6
3844.564	n/a	PROB	1922282	n/a	LTP280	ltpFR2	6	n/a	n/a	n/a	28	11	1	9	1
3845.698	n/a	PROB	1922849	n/a	LTP280	ltpFR2	6	n/a	n/a	n/a	28	11	3	1	7
3846.65	n/a	PROB	1923325	n/a	LTP280	ltpFR2	6	n/a	n/a	n/a	28	12	6	3	3
3848.0	n/a	PROB	1924000	n/a	LTP280	ltpFR2	6	n/a	n/a	n/a	28	14	3	2	9
3849.552	n/a	PROB	1924776	n/a	LTP280	ltpFR2	6	n/a	n/a	n/a	28	8	2	4	2
3850.72	n/a	PROB	1925360	n/a	LTP280	ltpFR2	6	n/a	n/a	n/a	28	15	2	4	7
3851.888	n/a	PROB	1925944	n/a	LTP280	ltpFR2	6	n/a	n/a	n/a	28	16	5	9	2
3853.372	n/a	PROB	1926686	n/a	LTP280	ltpFR2	6	n/a	n/a	n/a	28	22	7	7	8
3854.806	n/a	PROB	1927403	n/a	LTP280	ltpFR2	6	n/a	n/a	n/a	28	20	9	3	8
3856.142	n/a	PROB	1928071	n/a	LTP280	ltpFR2	6	n/a	n/a	n/a	28	10	2	3	5
3857.342	n/a	PROB	1928671	n/a	LTP280	ltpFR2	6	n/a	n/a	n/a	28	17	6	9	2
3858.694	n/a	PROB	1929347	n/a	LTP280	ltpFR2	6	n/a	n/a	n/a	28	25	9	9	6
3860.078	n/a	PROB	1930039	n/a	LTP280	ltpFR2	6	n/a	n/a	n/a	28	15	8	4	3
3862.282	n/a	STOP	1931141	n/a	LTP280	ltpFR2	6	n/a	n/a	n/a	28	n/a	n/a	n/a	n/a
3864.482	n/a	REC_START	1932241	n/a	LTP280	ltpFR2	6	17	n/a	n/a	n/a	n/a	0	0	0
3864.708	n/a	REC_WORD	1932354	wordpools/wasnorm_wordpool_576.txt	LTP280	ltpFR2	6	17	DRAWING	494	n/a	n/a	0	0	0
3865.416	n/a	REC_WORD	1932708	wordpools/wasnorm_wordpool_576.txt	LTP280	ltpFR2	6	17	CREVICE	405	n/a	n/a	0	0	0
3866.078	n/a	REC_WORD	1933039	wordpools/wasnorm_wordpool_576.txt	LTP280	ltpFR2	6	17	LIGHTNING	820	n/a	n/a	0	0	0
3866.644	n/a	REC_WORD	1933322	wordpools/wasnorm_wordpool_576.txt	LTP280	ltpFR2	6	17	ROD	1203	n/a	n/a	0	0	0
