mstime	trial_type	stim_file	subject	experiment	session	trial	item_name	item_num	list	answer	test_x	test_y	test_z
0	SESS_START	n/a	LTP371	ltpFR2	0	n/a	n/a	n/a	n/a	n/a	0	0	0
72802	START	n/a	LTP371	ltpFR2	0	n/a	n/a	n/a	-1	n/a	n/a	n/a	n/a
72832	PROB	n/a	LTP371	ltpFR2	0	n/a	n/a	n/a	-1	19	9	5	5
76131	PROB	n/a	LTP371	ltpFR2	0	n/a	n/a	n/a	-1	13	5	1	7
80162	PROB	n/a	LTP371	ltpFR2	0	n/a	n/a	n/a	-1	14	1	7	6
84802	STOP	n/a	LTP371	ltpFR2	0	n/a	n/a	n/a	-1	n/a	n/a	n/a	n/a
175619	WORD	wordpools/wasnorm_wordpool_576.txt	LTP371	ltpFR2	0	1	RAFT	1159	n/a	n/a	0	0	0
178400	WORD	wordpools/wasnorm_wordpool_576.txt	LTP371	ltpFR2	0	1	PUPPY	1144	n/a	n/a	0	0	0
180999	WORD	wordpools/wasnorm_wordpool_576.txt	LTP371	ltpFR2	0	1	SIDEWALK	1303	n/a	n/a	0	0	0
183732	WORD	wordpools/wasnorm_wordpool_576.txt	LTP371	ltpFR2	0	1	STONE	1385	n/a	n/a	0	0	0
186296	WORD	wordpools/wasnorm_wordpool_576.txt	LTP371	ltpFR2	0	1	PEBBLE	1035	n/a	n/a	0	0	0
188995	WORD	wordpools/wasnorm_wordpool_576.txt	LTP371	ltpFR2	0	1	PRINCESS	1125	n/a	n/a	0	0	0
191745	WORD	wordpools/wasnorm_wordpool_576.txt	LTP371	ltpFR2	0	1	FRIAR	605	n/a	n/a	0	0	0
194359	WORD	wordpools/wasnorm_wordpool_576.txt	LTP371	ltpFR2	0	1	SPOUSE	1358	n/a	n/a	0	0	0
197008	WORD	wordpools/wasnorm_wordpool_576.txt	LTP371	ltpFR2	0	1	SUSPECT	1415	n/a	n/a	0	0	0
199524	WORD	wordpools/wasnorm_wordpool_576.txt	LTP371	ltpFR2	0	1	BUBBLE	183	n/a	n/a	0	0	0
202056	WORD	wordpools/wasnorm_wordpool_576.txt	LTP371	ltpFR2	0	1	CRUTCH	417	n/a	n/a	0	0	0
204522	WORD	wordpools/wasnorm_wordpool_576.txt	LTP371	ltpFR2	0	1	MARKET	871	n/a	n/a	0	0	0
207320	WORD	wordpools/wasnorm_wordpool_576.txt	LTP371	ltpFR2	0	1	SWORD	1423	n/a	n/a	0	0	0
209902	WORD	wordpools/wasnorm_wordpool_576.txt	LTP371	ltpFR2	0	1	PLATE	1086	n/a	n/a	0	0	0
212685	WORD	wordpools/wasnorm_wordpool_576.txt	LTP371	ltpFR2	0	1	CLOUD	328	n/a	n/a	0	0	0
215366	WORD	wordpools/wasnorm_wordpool_576.txt	LTP371	ltpFR2	0	1	QUEEN	1149	n/a	n/a	0	0	0
217931	WORD	wordpools/wasnorm_wordpool_576.txt	LTP371	ltpFR2	0	1	HIGHWAY	707	n/a	n/a	0	0	0
220497	WORD	wordpools/wasnorm_wordpool_576.txt	LTP371	ltpFR2	0	1	MAMMAL	861	n/a	n/a	0	0	0
223296	WORD	wordpools/wasnorm_wordpool_576.txt	LTP371	ltpFR2	0	1	OUTDOORS	987	n/a	n/a	0	0	0
226011	WORD	wordpools/wasnorm_wordpool_576.txt	LTP371	ltpFR2	0	1	CORAL	378	n/a	n/a	0	0	0
228493	WORD	wordpools/wasnorm_wordpool_576.txt	LTP371	ltpFR2	0	1	PIZZA	1079	n/a	n/a	0	0	0
231209	WORD	wordpools/wasnorm_wordpool_576.txt	LTP371	ltpFR2	0	1	SAUSAGE	1238	n/a	n/a	0	0	0
233841	WORD	wordpools/wasnorm_wordpool_576.txt	LTP371	ltpFR2	0	1	ASIA	46	n/a	n/a	0	0	0
236607	WORD	wordpools/wasnorm_wordpool_576.txt	LTP371	ltpFR2	0	1	INFANT	737	n/a	n/a	0	0	0
238222	START	n/a	LTP371	ltpFR2	0	n/a	n/a	n/a	1	n/a	n/a	n/a	n/a
239060	DISTRACTOR	n/a	LTP371	ltpFR2	0	1	n/a	n/a	n/a	n/a	0	0	0
239072	PROB	n/a	LTP371	ltpFR2	0	n/a	n/a	n/a	1	14	4	5	5
241804	PROB	n/a	LTP371	ltpFR2	0	n/a	n/a	n/a	1	18	8	8	2
245835	PROB	n/a	LTP371	ltpFR2	0	n/a	n/a	n/a	1	23	5	8	9
249718	PROB	n/a	LTP371	ltpFR2	0	n/a	n/a	n/a	1	20	6	6	8
253065	PROB	n/a	LTP371	ltpFR2	0	n/a	n/a	n/a	1	14	7	5	2
255548	PROB	n/a	LTP371	ltpFR2	0	n/a	n/a	n/a	1	25	8	8	9
258514	PROB	n/a	LTP371	ltpFR2	0	n/a	n/a	n/a	1	12	5	2	5
262222	STOP	n/a	LTP371	ltpFR2	0	n/a	n/a	n/a	1	n/a	n/a	n/a	n/a
264077	REC_START	n/a	LTP371	ltpFR2	0	1	n/a	n/a	n/a	n/a	0	0	0
265364	REC_WORD	wordpools/wasnorm_wordpool_576.txt	LTP371	ltpFR2	0	1	HIGHWAY	707	n/a	n/a	0	0	0
266928	REC_WORD	wordpools/wasnorm_wordpool_576.txt	LTP371	ltpFR2	0	1	SIDEWALK	1303	n/a	n/a	0	0	0
268767	REC_WORD	wordpools/wasnorm_wordpool_576.txt	LTP371	ltpFR2	0	1	PEBBLE	1035	n/a	n/a	0	0	0
270378	REC_WORD	wordpools/wasnorm_wordpool_576.txt	LTP371	ltpFR2	0	1	STONE	1385	n/a	n/a	0	0	0
272873	REC_WORD	wordpools/wasnorm_wordpool_576.txt	LTP371	ltpFR2	0	1	PUPPY	1144	n/a	n/a	0	0	0
274948	REC_WORD	wordpools/wasnorm_wordpool_576.txt	LTP371	ltpFR2	0	1	RAFT	1159	n/a	n/a	0	0	0
276815	REC_WORD	wordpools/wasnorm_wordpool_576.txt	LTP371	ltpFR2	0	1	CORAL	378	n/a	n/a	0	0	0
278943	REC_WORD	wordpools/wasnorm_wordpool_576.txt	LTP371	ltpFR2	0	1	ASIA	46	n/a	n/a	0	0	0
281283	REC_WORD	wordpools/wasnorm_wordpool_576.txt	LTP371	ltpFR2	0	1	INFANT	737	n/a	n/a	0	0	0
283865	REC_WORD	wordpools/wasnorm_wordpool_576.txt	LTP371	ltpFR2	0	1	PRINCESS	1125	n/a	n/a	0	0	0
285904	REC_WORD	wordpools/wasnorm_wordpool_576.txt	LTP371	ltpFR2	0	1	SWORD	1423	n/a	n/a	0	0	0
292162	REC_WORD	wordpools/wasnorm_wordpool_576.txt	LTP371	ltpFR2	0	1	PIZZA	1079	n/a	n/a	0	0	0
409093	WORD	wordpools/wasnorm_wordpool_576.txt	LTP371	ltpFR2	0	2	HANDBAG	684	n/a	n/a	0	0	0
411891	WORD	wordpools/wasnorm_wordpool_576.txt	LTP371	ltpFR2	0	2	DENIM	446	n/a	n/a	0	0	0
414641	WORD	wordpools/wasnorm_wordpool_576.txt	LTP371	ltpFR2	0	2	BRICK	172	n/a	n/a	0	0	0
417355	WORD	wordpools/wasnorm_wordpool_576.txt	LTP371	ltpFR2	0	2	INMATE	738	n/a	n/a	0	0	0
419938	WORD	wordpools/wasnorm_wordpool_576.txt	LTP371	ltpFR2	0	2	GYMNAST	675	n/a	n/a	0	0	0
422403	WORD	wordpools/wasnorm_wordpool_576.txt	LTP371	ltpFR2	0	2	CAFE	216	n/a	n/a	0	0	0
424952	WORD	wordpools/wasnorm_wordpool_576.txt	LTP371	ltpFR2	0	2	ROBBER	1197	n/a	n/a	0	0	0
427752	WORD	wordpools/wasnorm_wordpool_576.txt	LTP371	ltpFR2	0	2	MUMMY	932	n/a	n/a	0	0	0
430249	WORD	wordpools/wasnorm_wordpool_576.txt	LTP371	ltpFR2	0	2	COMET	353	n/a	n/a	0	0	0
432832	WORD	wordpools/wasnorm_wordpool_576.txt	LTP371	ltpFR2	0	2	FLASK	576	n/a	n/a	0	0	0
435648	WORD	wordpools/wasnorm_wordpool_576.txt	LTP371	ltpFR2	0	2	DONKEY	484	n/a	n/a	0	0	0
438112	WORD	wordpools/wasnorm_wordpool_576.txt	LTP371	ltpFR2	0	2	RELISH	1183	n/a	n/a	0	0	0
440796	WORD	wordpools/wasnorm_wordpool_576.txt	LTP371	ltpFR2	0	2	SANDWICH	1232	n/a	n/a	0	0	0
443343	WORD	wordpools/wasnorm_wordpool_576.txt	LTP371	ltpFR2	0	2	CABIN	211	n/a	n/a	0	0	0
445959	WORD	wordpools/wasnorm_wordpool_576.txt	LTP371	ltpFR2	0	2	RABBIT	1152	n/a	n/a	0	0	0
448742	WORD	wordpools/wasnorm_wordpool_576.txt	LTP371	ltpFR2	0	2	HORSE	719	n/a	n/a	0	0	0
451223	WORD	wordpools/wasnorm_wordpool_576.txt	LTP371	ltpFR2	0	2	SNACK	1331	n/a	n/a	0	0	0
453723	WORD	wordpools/wasnorm_wordpool_576.txt	LTP371	ltpFR2	0	2	GARDEN	623	n/a	n/a	0	0	0
456371	WORD	wordpools/wasnorm_wordpool_576.txt	LTP371	ltpFR2	0	2	MATCH	878	n/a	n/a	0	0	0
459119	WORD	wordpools/wasnorm_wordpool_576.txt	LTP371	ltpFR2	0	2	FIREMAN	569	n/a	n/a	0	0	0
461669	WORD	wordpools/wasnorm_wordpool_576.txt	LTP371	ltpFR2	0	2	FIREPLACE	570	n/a	n/a	0	0	0
464284	WORD	wordpools/wasnorm_wordpool_576.txt	LTP371	ltpFR2	0	2	HUSBAND	728	n/a	n/a	0	0	0
466999	WORD	wordpools/wasnorm_wordpool_576.txt	LTP371	ltpFR2	0	2	WIFE	1609	n/a	n/a	0	0	0
469665	WORD	wordpools/wasnorm_wordpool_576.txt	LTP371	ltpFR2	0	2	SALT	1229	n/a	n/a	0	0	0
471281	START	n/a	LTP371	ltpFR2	0	n/a	n/a	n/a	2	n/a	n/a	n/a	n/a
472396	DISTRACTOR	n/a	LTP371	ltpFR2	0	2	n/a	n/a	n/a	n/a	0	0	0
472413	PROB	n/a	LTP371	ltpFR2	0	n/a	n/a	n/a	2	17	2	8	7
476328	PROB	n/a	LTP371	ltpFR2	0	n/a	n/a	n/a	2	17	6	6	5
478327	PROB	n/a	LTP371	ltpFR2	0	n/a	n/a	n/a	2	13	1	9	3
480160	PROB	n/a	LTP371	ltpFR2	0	n/a	n/a	n/a	2	10	2	1	7
482142	PROB	n/a	LTP371	ltpFR2	0	n/a	n/a	n/a	2	5	1	1	3
483609	PROB	n/a	LTP371	ltpFR2	0	n/a	n/a	n/a	2	17	4	8	5
487557	PROB	n/a	LTP371	ltpFR2	0	n/a	n/a	n/a	2	19	6	6	7
489855	PROB	n/a	LTP371	ltpFR2	0	n/a	n/a	n/a	2	9	4	3	2
491504	PROB	n/a	LTP371	ltpFR2	0	n/a	n/a	n/a	2	19	8	7	4
495281	STOP	n/a	LTP371	ltpFR2	0	n/a	n/a	n/a	2	n/a	n/a	n/a	n/a
497102	REC_START	n/a	LTP371	ltpFR2	0	2	n/a	n/a	n/a	n/a	0	0	0
498170	REC_WORD	wordpools/wasnorm_wordpool_576.txt	LTP371	ltpFR2	0	2	INMATE	738	n/a	n/a	0	0	0
499580	REC_WORD	wordpools/wasnorm_wordpool_576.txt	LTP371	ltpFR2	0	2	HUSBAND	728	n/a	n/a	0	0	0
501054	REC_WORD	wordpools/wasnorm_wordpool_576.txt	LTP371	ltpFR2	0	2	WIFE	1609	n/a	n/a	0	0	0
502399	REC_WORD	wordpools/wasnorm_wordpool_576.txt	LTP371	ltpFR2	0	2	GYMNAST	675	n/a	n/a	0	0	0
504263	REC_WORD	wordpools/wasnorm_wordpool_576.txt	LTP371	ltpFR2	0	2	RABBIT	1152	n/a	n/a	0	0	0
505594	REC_WORD	wordpools/wasnorm_wordpool_576.txt	LTP371	ltpFR2	0	2	DONKEY	484	n/a	n/a	0	0	0
507202	REC_WORD	wordpools/wasnorm_wordpool_576.txt	LTP371	ltpFR2	0	2	HORSE	719	n/a	n/a	0	0	0
509111	REC_WORD	wordpools/wasnorm_wordpool_576.txt	LTP371	ltpFR2	0	2	FIREMAN	569	n/a	n/a	0	0	0
511039	REC_WORD	wordpools/wasnorm_wordpool_576.txt	LTP371	ltpFR2	0	2	FIREPLACE	570	n/a	n/a	0	0	0
512039	REC_WORD_VV	wordpools/wasnorm_wordpool_576.txt	LTP371	ltpFR2	0	2	<>	-1	n/a	n/a	0	0	0
516388	REC_WORD	wordpools/wasnorm_wordpool_576.txt	LTP371	ltpFR2	0	2	MUMMY	932	n/a	n/a	0	0	0
518117	REC_WORD	wordpools/wasnorm_wordpool_576.txt	LTP371	ltpFR2	0	2	CAFE	216	n/a	n/a	0	0	0
520325	REC_WORD	wordpools/wasnorm_wordpool_576.txt	LTP371	ltpFR2	0	2	ROBBER	1197	n/a	n/a	0	0	0
523068	REC_WORD	wordpools/wasnorm_wordpool_576.txt	LTP371	ltpFR2	0	2	COMET	353	n/a	n/a	0	0	0
535323	REC_WORD	wordpools/wasnorm_wordpool_576.txt	LTP371	ltpFR2	0	2	SNACK	1331	n/a	n/a	0	0	0
537468	REC_WORD	wordpools/wasnorm_wordpool_576.txt	LTP371	ltpFR2	0	2	DENIM	446	n/a	n/a	0	0	0
539590	REC_WORD	wordpools/wasnorm_wordpool_576.txt	LTP371	ltpFR2	0	2	HANDBAG	684	n/a	n/a	0	0	0
562932	REC_WORD	wordpools/wasnorm_wordpool_576.txt	LTP371	ltpFR2	0	2	BRICK	172	n/a	n/a	0	0	0
587527	DISTRACTOR	n/a	LTP371	ltpFR2	0	3	n/a	n/a	n/a	n/a	0	0	0
587527	START	n/a	LTP371	ltpFR2	0	n/a	n/a	n/a	3	n/a	n/a	n/a	n/a
587544	PROB	n/a	LTP371	ltpFR2	0	n/a	n/a	n/a	3	22	6	7	9
592041	PROB	n/a	LTP371	ltpFR2	0	n/a	n/a	n/a	3	11	7	1	3
593558	PROB	n/a	LTP371	ltpFR2	0	n/a	n/a	n/a	3	14	2	4	8
595439	PROB	n/a	LTP371	ltpFR2	0	n/a	n/a	n/a	3	19	6	7	6
597539	PROB	n/a	LTP371	ltpFR2	0	n/a	n/a	n/a	3	10	7	1	2
598904	PROB	n/a	LTP371	ltpFR2	0	n/a	n/a	n/a	3	18	8	1	9
601671	PROB	n/a	LTP371	ltpFR2	0	n/a	n/a	n/a	3	7	1	3	3
608450	PROB	n/a	LTP371	ltpFR2	0	n/a	n/a	n/a	3	18	7	2	9
611162	STOP	n/a	LTP371	ltpFR2	0	n/a	n/a	n/a	3	n/a	n/a	n/a	n/a
612599	WORD	wordpools/wasnorm_wordpool_576.txt	LTP371	ltpFR2	0	3	NECKLACE	940	n/a	n/a	0	0	0
615263	WORD	wordpools/wasnorm_wordpool_576.txt	LTP371	ltpFR2	0	3	GUARD	667	n/a	n/a	0	0	0
617879	WORD	wordpools/wasnorm_wordpool_576.txt	LTP371	ltpFR2	0	3	HOOK	715	n/a	n/a	0	0	0
620579	WORD	wordpools/wasnorm_wordpool_576.txt	LTP371	ltpFR2	0	3	RATTLE	1170	n/a	n/a	0	0	0
623293	WORD	wordpools/wasnorm_wordpool_576.txt	LTP371	ltpFR2	0	3	ROD	1203	n/a	n/a	0	0	0
626025	WORD	wordpools/wasnorm_wordpool_576.txt	LTP371	ltpFR2	0	3	CIGAR	308	n/a	n/a	0	0	0
628507	WORD	wordpools/wasnorm_wordpool_576.txt	LTP371	ltpFR2	0	3	CAMEL	223	n/a	n/a	0	0	0
631106	WORD	wordpools/wasnorm_wordpool_576.txt	LTP371	ltpFR2	0	3	BABY	64	n/a	n/a	0	0	0
633639	WORD	wordpools/wasnorm_wordpool_576.txt	LTP371	ltpFR2	0	3	CARRIAGE	248	n/a	n/a	0	0	0
636403	WORD	wordpools/wasnorm_wordpool_576.txt	LTP371	ltpFR2	0	3	ISLAND	745	n/a	n/a	0	0	0
638869	WORD	wordpools/wasnorm_wordpool_576.txt	LTP371	ltpFR2	0	3	CRIB	407	n/a	n/a	0	0	0
641484	WORD	wordpools/wasnorm_wordpool_576.txt	LTP371	ltpFR2	0	3	PARROT	1015	n/a	n/a	0	0	0
644200	WORD	wordpools/wasnorm_wordpool_576.txt	LTP371	ltpFR2	0	3	WRENCH	1625	n/a	n/a	0	0	0
646982	WORD	wordpools/wasnorm_wordpool_576.txt	LTP371	ltpFR2	0	3	CONCERT	360	n/a	n/a	0	0	0
649598	WORD	wordpools/wasnorm_wordpool_576.txt	LTP371	ltpFR2	0	3	BLOCKADE	137	n/a	n/a	0	0	0
652279	WORD	wordpools/wasnorm_wordpool_576.txt	LTP371	ltpFR2	0	3	TWEEZERS	1526	n/a	n/a	0	0	0
654796	WORD	wordpools/wasnorm_wordpool_576.txt	LTP371	ltpFR2	0	3	NOMAD	955	n/a	n/a	0	0	0
657611	WORD	wordpools/wasnorm_wordpool_576.txt	LTP371	ltpFR2	0	3	RECORD	1176	n/a	n/a	0	0	0
660142	WORD	wordpools/wasnorm_wordpool_576.txt	LTP371	ltpFR2	0	3	SHARK	1275	n/a	n/a	0	0	0
662841	WORD	wordpools/wasnorm_wordpool_576.txt	LTP371	ltpFR2	0	3	SUNSET	1408	n/a	n/a	0	0	0
665558	WORD	wordpools/wasnorm_wordpool_576.txt	LTP371	ltpFR2	0	3	JELLY	755	n/a	n/a	0	0	0
668339	WORD	wordpools/wasnorm_wordpool_576.txt	LTP371	ltpFR2	0	3	GRAPE	654	n/a	n/a	0	0	0
670954	WORD	wordpools/wasnorm_wordpool_576.txt	LTP371	ltpFR2	0	3	WRIST	1626	n/a	n/a	0	0	0
673436	WORD	wordpools/wasnorm_wordpool_576.txt	LTP371	ltpFR2	0	3	SPOON	1357	n/a	n/a	0	0	0
675052	START	n/a	LTP371	ltpFR2	0	n/a	n/a	n/a	4	n/a	n/a	n/a	n/a
676105	DISTRACTOR	n/a	LTP371	ltpFR2	0	3	n/a	n/a	n/a	n/a	0	0	0
676118	PROB	n/a	LTP371	ltpFR2	0	n/a	n/a	n/a	4	7	2	2	3
678184	PROB	n/a	LTP371	ltpFR2	0	n/a	n/a	n/a	4	9	2	4	3
679718	PROB	n/a	LTP371	ltpFR2	0	n/a	n/a	n/a	4	21	6	8	7
684015	PROB	n/a	LTP371	ltpFR2	0	n/a	n/a	n/a	4	9	1	5	3
685364	PROB	n/a	LTP371	ltpFR2	0	n/a	n/a	n/a	4	18	4	6	8
687180	PROB	n/a	LTP371	ltpFR2	0	n/a	n/a	n/a	4	17	1	9	7
689129	PROB	n/a	LTP371	ltpFR2	0	n/a	n/a	n/a	4	11	7	2	2
690796	PROB	n/a	LTP371	ltpFR2	0	n/a	n/a	n/a	4	10	3	6	1
692494	PROB	n/a	LTP371	ltpFR2	0	n/a	n/a	n/a	4	7	1	2	4
694027	PROB	n/a	LTP371	ltpFR2	0	n/a	n/a	n/a	4	16	8	3	5
696176	PROB	n/a	LTP371	ltpFR2	0	n/a	n/a	n/a	4	22	8	7	7
697996	STOP	n/a	LTP371	ltpFR2	0	n/a	n/a	n/a	4	n/a	n/a	n/a	n/a
700957	REC_START	n/a	LTP371	ltpFR2	0	3	n/a	n/a	n/a	n/a	0	0	0
702417	REC_WORD	wordpools/wasnorm_wordpool_576.txt	LTP371	ltpFR2	0	3	BABY	64	n/a	n/a	0	0	0
703838	REC_WORD	wordpools/wasnorm_wordpool_576.txt	LTP371	ltpFR2	0	3	CARRIAGE	248	n/a	n/a	0	0	0
705527	REC_WORD	wordpools/wasnorm_wordpool_576.txt	LTP371	ltpFR2	0	3	GUARD	667	n/a	n/a	0	0	0
707123	REC_WORD	wordpools/wasnorm_wordpool_576.txt	LTP371	ltpFR2	0	3	HOOK	715	n/a	n/a	0	0	0
710004	REC_WORD	wordpools/wasnorm_wordpool_576.txt	LTP371	ltpFR2	0	3	ROD	1203	n/a	n/a	0	0	0
712071	REC_WORD	wordpools/wasnorm_wordpool_576.txt	LTP371	ltpFR2	0	3	CONCERT	360	n/a	n/a	0	0	0
714682	REC_WORD	wordpools/wasnorm_wordpool_576.txt	LTP371	ltpFR2	0	3	CIGAR	308	n/a	n/a	0	0	0
720080	REC_WORD	wordpools/wasnorm_wordpool_576.txt	LTP371	ltpFR2	0	3	SUNSET	1408	n/a	n/a	0	0	0
722238	REC_WORD	wordpools/wasnorm_wordpool_576.txt	LTP371	ltpFR2	0	3	ISLAND	745	n/a	n/a	0	0	0
730868	REC_WORD	wordpools/wasnorm_wordpool_576.txt	LTP371	ltpFR2	0	3	WRIST	1626	n/a	n/a	0	0	0
732611	REC_WORD	wordpools/wasnorm_wordpool_576.txt	LTP371	ltpFR2	0	3	NECKLACE	940	n/a	n/a	0	0	0
734766	REC_WORD	wordpools/wasnorm_wordpool_576.txt	LTP371	ltpFR2	0	3	SPOON	1357	n/a	n/a	0	0	0
736817	REC_WORD	wordpools/wasnorm_wordpool_576.txt	LTP371	ltpFR2	0	3	JELLY	755	n/a	n/a	0	0	0
739201	REC_WORD	wordpools/wasnorm_wordpool_576.txt	LTP371	ltpFR2	0	3	GRAPE	654	n/a	n/a	0	0	0
748136	REC_WORD	wordpools/wasnorm_wordpool_576.txt	LTP371	ltpFR2	0	3	RECORD	1176	n/a	n/a	0	0	0
791448	WORD	wordpools/wasnorm_wordpool_576.txt	LTP371	ltpFR2	0	4	BACKBONE	66	n/a	n/a	0	0	0
793897	WORD	wordpools/wasnorm_wordpool_576.txt	LTP371	ltpFR2	0	4	ONION	977	n/a	n/a	0	0	0
796713	WORD	wordpools/wasnorm_wordpool_576.txt	LTP371	ltpFR2	0	4	SCARECROW	1245	n/a	n/a	0	0	0
799511	WORD	wordpools/wasnorm_wordpool_576.txt	LTP371	ltpFR2	0	4	ICING	732	n/a	n/a	0	0	0
802276	WORD	wordpools/wasnorm_wordpool_576.txt	LTP371	ltpFR2	0	4	CANYON	235	n/a	n/a	0	0	0
804925	WORD	wordpools/wasnorm_wordpool_576.txt	LTP371	ltpFR2	0	4	GREASE	660	n/a	n/a	0	0	0
807474	WORD	wordpools/wasnorm_wordpool_576.txt	LTP371	ltpFR2	0	4	SWAMP	1416	n/a	n/a	0	0	0
810256	WORD	wordpools/wasnorm_wordpool_576.txt	LTP371	ltpFR2	0	4	HIKER	708	n/a	n/a	0	0	0
812955	WORD	wordpools/wasnorm_wordpool_576.txt	LTP371	ltpFR2	0	4	REPORT	1184	n/a	n/a	0	0	0
815588	WORD	wordpools/wasnorm_wordpool_576.txt	LTP371	ltpFR2	0	4	JOURNAL	760	n/a	n/a	0	0	0
818235	WORD	wordpools/wasnorm_wordpool_576.txt	LTP371	ltpFR2	0	4	LEADER	807	n/a	n/a	0	0	0
820735	WORD	wordpools/wasnorm_wordpool_576.txt	LTP371	ltpFR2	0	4	PORTRAIT	1111	n/a	n/a	0	0	0
823283	WORD	wordpools/wasnorm_wordpool_576.txt	LTP371	ltpFR2	0	4	ATLAS	53	n/a	n/a	0	0	0
826065	WORD	wordpools/wasnorm_wordpool_576.txt	LTP371	ltpFR2	0	4	CUPBOARD	425	n/a	n/a	0	0	0
828532	WORD	wordpools/wasnorm_wordpool_576.txt	LTP371	ltpFR2	0	4	JUNGLE	764	n/a	n/a	0	0	0
831279	WORD	wordpools/wasnorm_wordpool_576.txt	LTP371	ltpFR2	0	4	COIN	343	n/a	n/a	0	0	0
833895	WORD	wordpools/wasnorm_wordpool_576.txt	LTP371	ltpFR2	0	4	BANK	83	n/a	n/a	0	0	0
836611	WORD	wordpools/wasnorm_wordpool_576.txt	LTP371	ltpFR2	0	4	FARMER	553	n/a	n/a	0	0	0
839126	WORD	wordpools/wasnorm_wordpool_576.txt	LTP371	ltpFR2	0	4	LAGOON	795	n/a	n/a	0	0	0
841858	WORD	wordpools/wasnorm_wordpool_576.txt	LTP371	ltpFR2	0	4	ROBOT	1200	n/a	n/a	0	0	0
844423	WORD	wordpools/wasnorm_wordpool_576.txt	LTP371	ltpFR2	0	4	RUG	1215	n/a	n/a	0	0	0
847172	WORD	wordpools/wasnorm_wordpool_576.txt	LTP371	ltpFR2	0	4	GARLIC	624	n/a	n/a	0	0	0
849971	WORD	wordpools/wasnorm_wordpool_576.txt	LTP371	ltpFR2	0	4	SHERIFF	1284	n/a	n/a	0	0	0
852737	WORD	wordpools/wasnorm_wordpool_576.txt	LTP371	ltpFR2	0	4	JAPAN	749	n/a	n/a	0	0	0
854352	START	n/a	LTP371	ltpFR2	0	n/a	n/a	n/a	5	n/a	n/a	n/a	n/a
855473	DISTRACTOR	n/a	LTP371	ltpFR2	0	4	n/a	n/a	n/a	n/a	0	0	0
855485	PROB	n/a	LTP371	ltpFR2	0	n/a	n/a	n/a	5	15	8	4	3
857934	PROB	n/a	LTP371	ltpFR2	0	n/a	n/a	n/a	5	16	3	9	4
860099	PROB	n/a	LTP371	ltpFR2	0	n/a	n/a	n/a	5	11	2	3	6
862148	PROB	n/a	LTP371	ltpFR2	0	n/a	n/a	n/a	5	17	4	6	7
863864	PROB	n/a	LTP371	ltpFR2	0	n/a	n/a	n/a	5	15	3	6	6
865681	PROB	n/a	LTP371	ltpFR2	0	n/a	n/a	n/a	5	11	3	6	2
867446	PROB	n/a	LTP371	ltpFR2	0	n/a	n/a	n/a	5	17	9	7	1
869195	PROB	n/a	LTP371	ltpFR2	0	n/a	n/a	n/a	5	17	7	2	8
870944	PROB	n/a	LTP371	ltpFR2	0	n/a	n/a	n/a	5	11	1	5	5
872194	PROB	n/a	LTP371	ltpFR2	0	n/a	n/a	n/a	5	16	7	4	5
874226	PROB	n/a	LTP371	ltpFR2	0	n/a	n/a	n/a	5	23	6	9	8
876492	PROB	n/a	LTP371	ltpFR2	0	n/a	n/a	n/a	5	14	2	3	9
878186	STOP	n/a	LTP371	ltpFR2	0	n/a	n/a	n/a	5	n/a	n/a	n/a	n/a
880157	REC_START	n/a	LTP371	ltpFR2	0	4	n/a	n/a	n/a	n/a	0	0	0
881402	REC_WORD	wordpools/wasnorm_wordpool_576.txt	LTP371	ltpFR2	0	4	SWAMP	1416	n/a	n/a	0	0	0
883445	REC_WORD	wordpools/wasnorm_wordpool_576.txt	LTP371	ltpFR2	0	4	HIKER	708	n/a	n/a	0	0	0
885272	REC_WORD	wordpools/wasnorm_wordpool_576.txt	LTP371	ltpFR2	0	4	FARMER	553	n/a	n/a	0	0	0
887448	REC_WORD	wordpools/wasnorm_wordpool_576.txt	LTP371	ltpFR2	0	4	SHERIFF	1284	n/a	n/a	0	0	0
889403	REC_WORD	wordpools/wasnorm_wordpool_576.txt	LTP371	ltpFR2	0	4	REPORT	1184	n/a	n/a	0	0	0
891299	REC_WORD	wordpools/wasnorm_wordpool_576.txt	LTP371	ltpFR2	0	4	JOURNAL	760	n/a	n/a	0	0	0
893299	REC_WORD	wordpools/wasnorm_wordpool_576.txt	LTP371	ltpFR2	0	4	PORTRAIT	1111	n/a	n/a	0	0	0
897671	REC_WORD	wordpools/wasnorm_wordpool_576.txt	LTP371	ltpFR2	0	4	BACKBONE	66	n/a	n/a	0	0	0
899584	REC_WORD	wordpools/wasnorm_wordpool_576.txt	LTP371	ltpFR2	0	4	ONION	977	n/a	n/a	0	0	0
901405	REC_WORD	wordpools/wasnorm_wordpool_576.txt	LTP371	ltpFR2	0	4	GARLIC	624	n/a	n/a	0	0	0
903372	REC_WORD	wordpools/wasnorm_wordpool_576.txt	LTP371	ltpFR2	0	4	GREASE	660	n/a	n/a	0	0	0
906019	REC_WORD	wordpools/wasnorm_wordpool_576.txt	LTP371	ltpFR2	0	4	JAPAN	749	n/a	n/a	0	0	0
911213	REC_WORD	wordpools/wasnorm_wordpool_576.txt	LTP371	ltpFR2	0	4	CUPBOARD	425	n/a	n/a	0	0	0
970616	WORD	wordpools/wasnorm_wordpool_576.txt	LTP371	ltpFR2	0	5	MILK	895	n/a	n/a	0	0	0
973147	WORD	wordpools/wasnorm_wordpool_576.txt	LTP371	ltpFR2	0	5	BEEF	113	n/a	n/a	0	0	0
975597	WORD	wordpools/wasnorm_wordpool_576.txt	LTP371	ltpFR2	0	5	DINER	467	n/a	n/a	0	0	0
978211	WORD	wordpools/wasnorm_wordpool_576.txt	LTP371	ltpFR2	0	5	POLICE	1098	n/a	n/a	0	0	0
980728	WORD	wordpools/wasnorm_wordpool_576.txt	LTP371	ltpFR2	0	5	MACHINE	852	n/a	n/a	0	0	0
983175	WORD	wordpools/wasnorm_wordpool_576.txt	LTP371	ltpFR2	0	5	FLUTE	585	n/a	n/a	0	0	0
985974	WORD	wordpools/wasnorm_wordpool_576.txt	LTP371	ltpFR2	0	5	SHOULDER	1294	n/a	n/a	0	0	0
988574	WORD	wordpools/wasnorm_wordpool_576.txt	LTP371	ltpFR2	0	5	COTTAGE	384	n/a	n/a	0	0	0
991055	WORD	wordpools/wasnorm_wordpool_576.txt	LTP371	ltpFR2	0	5	CONVICT	371	n/a	n/a	0	0	0
993555	WORD	wordpools/wasnorm_wordpool_576.txt	LTP371	ltpFR2	0	5	KIDNEY	776	n/a	n/a	0	0	0
996036	WORD	wordpools/wasnorm_wordpool_576.txt	LTP371	ltpFR2	0	5	POSSUM	1112	n/a	n/a	0	0	0
998736	WORD	wordpools/wasnorm_wordpool_576.txt	LTP371	ltpFR2	0	5	TRACTOR	1493	n/a	n/a	0	0	0
1001317	WORD	wordpools/wasnorm_wordpool_576.txt	LTP371	ltpFR2	0	5	LETTUCE	814	n/a	n/a	0	0	0
1003849	WORD	wordpools/wasnorm_wordpool_576.txt	LTP371	ltpFR2	0	5	ZEBRA	1635	n/a	n/a	0	0	0
1006632	WORD	wordpools/wasnorm_wordpool_576.txt	LTP371	ltpFR2	0	5	BEAST	108	n/a	n/a	0	0	0
1009180	WORD	wordpools/wasnorm_wordpool_576.txt	LTP371	ltpFR2	0	5	COOKBOOK	373	n/a	n/a	0	0	0
1011746	WORD	wordpools/wasnorm_wordpool_576.txt	LTP371	ltpFR2	0	5	BANKER	84	n/a	n/a	0	0	0
1014511	WORD	wordpools/wasnorm_wordpool_576.txt	LTP371	ltpFR2	0	5	TREAT	1501	n/a	n/a	0	0	0
1017326	WORD	wordpools/wasnorm_wordpool_576.txt	LTP371	ltpFR2	0	5	OUTLAW	989	n/a	n/a	0	0	0
1019808	WORD	wordpools/wasnorm_wordpool_576.txt	LTP371	ltpFR2	0	5	FINGER	567	n/a	n/a	0	0	0
1022391	WORD	wordpools/wasnorm_wordpool_576.txt	LTP371	ltpFR2	0	5	HAND	683	n/a	n/a	0	0	0
1025039	WORD	wordpools/wasnorm_wordpool_576.txt	LTP371	ltpFR2	0	5	SALAD	1224	n/a	n/a	0	0	0
1027689	WORD	wordpools/wasnorm_wordpool_576.txt	LTP371	ltpFR2	0	5	VICTIM	1562	n/a	n/a	0	0	0
1030453	WORD	wordpools/wasnorm_wordpool_576.txt	LTP371	ltpFR2	0	5	CASKET	255	n/a	n/a	0	0	0
1032070	START	n/a	LTP371	ltpFR2	0	n/a	n/a	n/a	6	n/a	n/a	n/a	n/a
1032939	DISTRACTOR	n/a	LTP371	ltpFR2	0	5	n/a	n/a	n/a	n/a	0	0	0
1032952	PROB	n/a	LTP371	ltpFR2	0	n/a	n/a	n/a	6	17	3	5	9
1035251	PROB	n/a	LTP371	ltpFR2	0	n/a	n/a	n/a	6	12	2	4	6
1036950	PROB	n/a	LTP371	ltpFR2	0	n/a	n/a	n/a	6	15	8	3	4
1038784	PROB	n/a	LTP371	ltpFR2	0	n/a	n/a	n/a	6	13	3	6	4
1040482	PROB	n/a	LTP371	ltpFR2	0	n/a	n/a	n/a	6	9	1	7	1
1042015	PROB	n/a	LTP371	ltpFR2	0	n/a	n/a	n/a	6	16	2	5	9
1043798	PROB	n/a	LTP371	ltpFR2	0	n/a	n/a	n/a	6	15	7	4	4
1046664	PROB	n/a	LTP371	ltpFR2	0	n/a	n/a	n/a	6	11	2	5	4
1048195	PROB	n/a	LTP371	ltpFR2	0	n/a	n/a	n/a	6	11	7	1	3
1049596	PROB	n/a	LTP371	ltpFR2	0	n/a	n/a	n/a	6	10	3	4	3
1051545	PROB	n/a	LTP371	ltpFR2	0	n/a	n/a	n/a	6	16	7	2	7
1053992	PROB	n/a	LTP371	ltpFR2	0	n/a	n/a	n/a	6	12	2	5	5
1055223	STOP	n/a	LTP371	ltpFR2	0	n/a	n/a	n/a	6	n/a	n/a	n/a	n/a
1057825	REC_START	n/a	LTP371	ltpFR2	0	5	n/a	n/a	n/a	n/a	0	0	0
1059026	REC_WORD	wordpools/wasnorm_wordpool_576.txt	LTP371	ltpFR2	0	5	CONVICT	371	n/a	n/a	0	0	0
1060541	REC_WORD	wordpools/wasnorm_wordpool_576.txt	LTP371	ltpFR2	0	5	VICTIM	1562	n/a	n/a	0	0	0
1062864	REC_WORD	wordpools/wasnorm_wordpool_576.txt	LTP371	ltpFR2	0	5	DINER	467	n/a	n/a	0	0	0
1066448	REC_WORD	wordpools/wasnorm_wordpool_576.txt	LTP371	ltpFR2	0	5	TREAT	1501	n/a	n/a	0	0	0
1068416	REC_WORD	wordpools/wasnorm_wordpool_576.txt	LTP371	ltpFR2	0	5	SALAD	1224	n/a	n/a	0	0	0
1070070	REC_WORD	wordpools/wasnorm_wordpool_576.txt	LTP371	ltpFR2	0	5	BEEF	113	n/a	n/a	0	0	0
1071413	REC_WORD	wordpools/wasnorm_wordpool_576.txt	LTP371	ltpFR2	0	5	MILK	895	n/a	n/a	0	0	0
1072948	REC_WORD	wordpools/wasnorm_wordpool_576.txt	LTP371	ltpFR2	0	5	POLICE	1098	n/a	n/a	0	0	0
1074662	REC_WORD	wordpools/wasnorm_wordpool_576.txt	LTP371	ltpFR2	0	5	MACHINE	852	n/a	n/a	0	0	0
1076668	REC_WORD	wordpools/wasnorm_wordpool_576.txt	LTP371	ltpFR2	0	5	FLUTE	585	n/a	n/a	0	0	0
1084189	REC_WORD	wordpools/wasnorm_wordpool_576.txt	LTP371	ltpFR2	0	5	POSSUM	1112	n/a	n/a	0	0	0
1164592	DISTRACTOR	n/a	LTP371	ltpFR2	0	6	n/a	n/a	n/a	n/a	0	0	0
1164592	START	n/a	LTP371	ltpFR2	0	n/a	n/a	n/a	7	n/a	n/a	n/a	n/a
1164609	PROB	n/a	LTP371	ltpFR2	0	n/a	n/a	n/a	7	10	4	4	2
1166940	PROB	n/a	LTP371	ltpFR2	0	n/a	n/a	n/a	7	17	8	2	7
1168657	PROB	n/a	LTP371	ltpFR2	0	n/a	n/a	n/a	7	17	2	7	8
1170556	PROB	n/a	LTP371	ltpFR2	0	n/a	n/a	n/a	7	14	2	7	5
1172121	PROB	n/a	LTP371	ltpFR2	0	n/a	n/a	n/a	7	16	2	8	6
1174637	PROB	n/a	LTP371	ltpFR2	0	n/a	n/a	n/a	7	16	6	1	9
1176136	PROB	n/a	LTP371	ltpFR2	0	n/a	n/a	n/a	7	14	7	5	1
1177769	PROB	n/a	LTP371	ltpFR2	0	n/a	n/a	n/a	7	15	6	3	6
1180417	PROB	n/a	LTP371	ltpFR2	0	n/a	n/a	n/a	7	9	5	2	2
1182033	PROB	n/a	LTP371	ltpFR2	0	n/a	n/a	n/a	7	12	3	3	6
1184499	PROB	n/a	LTP371	ltpFR2	0	n/a	n/a	n/a	7	13	4	4	5
1188591	STOP	n/a	LTP371	ltpFR2	0	n/a	n/a	n/a	7	n/a	n/a	n/a	n/a
1189530	WORD	wordpools/wasnorm_wordpool_576.txt	LTP371	ltpFR2	0	6	LIPSTICK	829	n/a	n/a	0	0	0
1191962	WORD	wordpools/wasnorm_wordpool_576.txt	LTP371	ltpFR2	0	6	FEMALE	559	n/a	n/a	0	0	0
1194444	WORD	wordpools/wasnorm_wordpool_576.txt	LTP371	ltpFR2	0	6	DRINK	498	n/a	n/a	0	0	0
1196976	WORD	wordpools/wasnorm_wordpool_576.txt	LTP371	ltpFR2	0	6	BOUQUET	157	n/a	n/a	0	0	0
1199593	WORD	wordpools/wasnorm_wordpool_576.txt	LTP371	ltpFR2	0	6	FILM	565	n/a	n/a	0	0	0
1202240	WORD	wordpools/wasnorm_wordpool_576.txt	LTP371	ltpFR2	0	6	VIKING	1565	n/a	n/a	0	0	0
1205006	WORD	wordpools/wasnorm_wordpool_576.txt	LTP371	ltpFR2	0	6	PADDLE	1000	n/a	n/a	0	0	0
1207655	WORD	wordpools/wasnorm_wordpool_576.txt	LTP371	ltpFR2	0	6	STAPLE	1371	n/a	n/a	0	0	0
1210436	WORD	wordpools/wasnorm_wordpool_576.txt	LTP371	ltpFR2	0	6	PUPIL	1143	n/a	n/a	0	0	0
1213252	WORD	wordpools/wasnorm_wordpool_576.txt	LTP371	ltpFR2	0	6	SERVANT	1271	n/a	n/a	0	0	0
1215917	WORD	wordpools/wasnorm_wordpool_576.txt	LTP371	ltpFR2	0	6	WINDOW	1611	n/a	n/a	0	0	0
1218567	WORD	wordpools/wasnorm_wordpool_576.txt	LTP371	ltpFR2	0	6	PICTURE	1061	n/a	n/a	0	0	0
1221348	WORD	wordpools/wasnorm_wordpool_576.txt	LTP371	ltpFR2	0	6	FRAME	600	n/a	n/a	0	0	0
1223798	WORD	wordpools/wasnorm_wordpool_576.txt	LTP371	ltpFR2	0	6	BIKE	125	n/a	n/a	0	0	0
1226597	WORD	wordpools/wasnorm_wordpool_576.txt	LTP371	ltpFR2	0	6	FOREHEAD	592	n/a	n/a	0	0	0
1229328	WORD	wordpools/wasnorm_wordpool_576.txt	LTP371	ltpFR2	0	6	LOVER	846	n/a	n/a	0	0	0
1231860	WORD	wordpools/wasnorm_wordpool_576.txt	LTP371	ltpFR2	0	6	HAWK	692	n/a	n/a	0	0	0
1234342	WORD	wordpools/wasnorm_wordpool_576.txt	LTP371	ltpFR2	0	6	TURKEY	1520	n/a	n/a	0	0	0
1236974	WORD	wordpools/wasnorm_wordpool_576.txt	LTP371	ltpFR2	0	6	TRIBE	1505	n/a	n/a	0	0	0
1239607	WORD	wordpools/wasnorm_wordpool_576.txt	LTP371	ltpFR2	0	6	COWBOY	395	n/a	n/a	0	0	0
1242055	WORD	wordpools/wasnorm_wordpool_576.txt	LTP371	ltpFR2	0	6	FRECKLE	602	n/a	n/a	0	0	0
1244820	WORD	wordpools/wasnorm_wordpool_576.txt	LTP371	ltpFR2	0	6	CHAPEL	280	n/a	n/a	0	0	0
1247303	WORD	wordpools/wasnorm_wordpool_576.txt	LTP371	ltpFR2	0	6	DRAGON	492	n/a	n/a	0	0	0
1249868	WORD	wordpools/wasnorm_wordpool_576.txt	LTP371	ltpFR2	0	6	OFFICE	972	n/a	n/a	0	0	0
1251484	START	n/a	LTP371	ltpFR2	0	n/a	n/a	n/a	8	n/a	n/a	n/a	n/a
1252524	DISTRACTOR	n/a	LTP371	ltpFR2	0	6	n/a	n/a	n/a	n/a	0	0	0
1252534	PROB	n/a	LTP371	ltpFR2	0	n/a	n/a	n/a	8	20	5	6	9
1255166	PROB	n/a	LTP371	ltpFR2	0	n/a	n/a	n/a	8	19	9	7	3
1256981	PROB	n/a	LTP371	ltpFR2	0	n/a	n/a	n/a	8	12	2	3	7
1258447	PROB	n/a	LTP371	ltpFR2	0	n/a	n/a	n/a	8	21	8	5	8
1260313	PROB	n/a	LTP371	ltpFR2	0	n/a	n/a	n/a	8	25	9	9	7
1262995	PROB	n/a	LTP371	ltpFR2	0	n/a	n/a	n/a	8	17	6	2	9
1264762	PROB	n/a	LTP371	ltpFR2	0	n/a	n/a	n/a	8	7	4	3	3
1266027	PROB	n/a	LTP371	ltpFR2	0	n/a	n/a	n/a	8	7	3	2	2
1268360	PROB	n/a	LTP371	ltpFR2	0	n/a	n/a	n/a	8	20	7	5	8
1270359	PROB	n/a	LTP371	ltpFR2	0	n/a	n/a	n/a	8	21	7	6	8
1273507	PROB	n/a	LTP371	ltpFR2	0	n/a	n/a	n/a	8	11	3	2	6
1275094	STOP	n/a	LTP371	ltpFR2	0	n/a	n/a	n/a	8	n/a	n/a	n/a	n/a
1277389	REC_START	n/a	LTP371	ltpFR2	0	6	n/a	n/a	n/a	n/a	0	0	0
1278408	REC_WORD	wordpools/wasnorm_wordpool_576.txt	LTP371	ltpFR2	0	6	VIKING	1565	n/a	n/a	0	0	0
1280934	REC_WORD	wordpools/wasnorm_wordpool_576.txt	LTP371	ltpFR2	0	6	FEMALE	559	n/a	n/a	0	0	0
1282485	REC_WORD	wordpools/wasnorm_wordpool_576.txt	LTP371	ltpFR2	0	6	LIPSTICK	829	n/a	n/a	0	0	0
1284171	REC_WORD	wordpools/wasnorm_wordpool_576.txt	LTP371	ltpFR2	0	6	DRINK	498	n/a	n/a	0	0	0
1286301	REC_WORD	wordpools/wasnorm_wordpool_576.txt	LTP371	ltpFR2	0	6	WINDOW	1611	n/a	n/a	0	0	0
1288486	REC_WORD	wordpools/wasnorm_wordpool_576.txt	LTP371	ltpFR2	0	6	FLOWER	584	n/a	n/a	0	0	0
1291723	REC_WORD	wordpools/wasnorm_wordpool_576.txt	LTP371	ltpFR2	0	6	BOUQUET	157	n/a	n/a	0	0	0
1294848	REC_WORD	wordpools/wasnorm_wordpool_576.txt	LTP371	ltpFR2	0	6	SERVANT	1271	n/a	n/a	0	0	0
1298543	REC_WORD	wordpools/wasnorm_wordpool_576.txt	LTP371	ltpFR2	0	6	CHAPEL	280	n/a	n/a	0	0	0
1309551	REC_WORD	wordpools/wasnorm_wordpool_576.txt	LTP371	ltpFR2	0	6	PICTURE	1061	n/a	n/a	0	0	0
1311270	REC_WORD	wordpools/wasnorm_wordpool_576.txt	LTP371	ltpFR2	0	6	FRAME	600	n/a	n/a	0	0	0
1326093	REC_WORD	wordpools/wasnorm_wordpool_576.txt	LTP371	ltpFR2	0	6	COWBOY	395	n/a	n/a	0	0	0
1329208	REC_WORD	wordpools/wasnorm_wordpool_576.txt	LTP371	ltpFR2	0	6	FRECKLE	602	n/a	n/a	0	0	0
1333079	REC_WORD	wordpools/wasnorm_wordpool_576.txt	LTP371	ltpFR2	0	6	PUPIL	1143	n/a	n/a	0	0	0
1334652	REC_WORD	wordpools/wasnorm_wordpool_576.txt	LTP371	ltpFR2	0	6	FOREHEAD	592	n/a	n/a	0	0	0
1367846	DISTRACTOR	n/a	LTP371	ltpFR2	0	7	n/a	n/a	n/a	n/a	0	0	0
1367847	START	n/a	LTP371	ltpFR2	0	n/a	n/a	n/a	9	n/a	n/a	n/a	n/a
1367863	PROB	n/a	LTP371	ltpFR2	0	n/a	n/a	n/a	9	12	8	2	2
1369979	PROB	n/a	LTP371	ltpFR2	0	n/a	n/a	n/a	9	7	2	4	1
1373477	PROB	n/a	LTP371	ltpFR2	0	n/a	n/a	n/a	9	16	4	7	5
1376610	PROB	n/a	LTP371	ltpFR2	0	n/a	n/a	n/a	9	8	1	2	5
1379191	PROB	n/a	LTP371	ltpFR2	0	n/a	n/a	n/a	9	17	9	2	6
1382707	PROB	n/a	LTP371	ltpFR2	0	n/a	n/a	n/a	9	13	2	2	9
1384422	PROB	n/a	LTP371	ltpFR2	0	n/a	n/a	n/a	9	13	3	6	4
1385739	PROB	n/a	LTP371	ltpFR2	0	n/a	n/a	n/a	9	19	9	4	6
1387204	PROB	n/a	LTP371	ltpFR2	0	n/a	n/a	n/a	9	14	7	2	5
1388803	PROB	n/a	LTP371	ltpFR2	0	n/a	n/a	n/a	9	8	3	4	1
1391122	STOP	n/a	LTP371	ltpFR2	0	n/a	n/a	n/a	9	n/a	n/a	n/a	n/a
1393001	WORD	wordpools/wasnorm_wordpool_576.txt	LTP371	ltpFR2	0	7	RUST	1219	n/a	n/a	0	0	0
1395651	WORD	wordpools/wasnorm_wordpool_576.txt	LTP371	ltpFR2	0	7	SPACE	1345	n/a	n/a	0	0	0
1398166	WORD	wordpools/wasnorm_wordpool_576.txt	LTP371	ltpFR2	0	7	REBEL	1172	n/a	n/a	0	0	0
1400848	WORD	wordpools/wasnorm_wordpool_576.txt	LTP371	ltpFR2	0	7	TRUCK	1512	n/a	n/a	0	0	0
1403548	WORD	wordpools/wasnorm_wordpool_576.txt	LTP371	ltpFR2	0	7	TART	1436	n/a	n/a	0	0	0
1406145	WORD	wordpools/wasnorm_wordpool_576.txt	LTP371	ltpFR2	0	7	PASTRY	1022	n/a	n/a	0	0	0
1408927	WORD	wordpools/wasnorm_wordpool_576.txt	LTP371	ltpFR2	0	7	LUGGAGE	847	n/a	n/a	0	0	0
1411644	WORD	wordpools/wasnorm_wordpool_576.txt	LTP371	ltpFR2	0	7	OZONE	996	n/a	n/a	0	0	0
1414158	WORD	wordpools/wasnorm_wordpool_576.txt	LTP371	ltpFR2	0	7	TWIG	1527	n/a	n/a	0	0	0
1416890	WORD	wordpools/wasnorm_wordpool_576.txt	LTP371	ltpFR2	0	7	BUTCHER	203	n/a	n/a	0	0	0
1419506	WORD	wordpools/wasnorm_wordpool_576.txt	LTP371	ltpFR2	0	7	MISTER	901	n/a	n/a	0	0	0
1421955	WORD	wordpools/wasnorm_wordpool_576.txt	LTP371	ltpFR2	0	7	LADY	794	n/a	n/a	0	0	0
1424403	WORD	wordpools/wasnorm_wordpool_576.txt	LTP371	ltpFR2	0	7	AWARD	63	n/a	n/a	0	0	0
1427086	WORD	wordpools/wasnorm_wordpool_576.txt	LTP371	ltpFR2	0	7	NOTEBOOK	959	n/a	n/a	0	0	0
1429585	WORD	wordpools/wasnorm_wordpool_576.txt	LTP371	ltpFR2	0	7	SHELTER	1282	n/a	n/a	0	0	0
1432317	WORD	wordpools/wasnorm_wordpool_576.txt	LTP371	ltpFR2	0	7	BRANCH	168	n/a	n/a	0	0	0
1434949	WORD	wordpools/wasnorm_wordpool_576.txt	LTP371	ltpFR2	0	7	FRANCE	601	n/a	n/a	0	0	0
1437615	WORD	wordpools/wasnorm_wordpool_576.txt	LTP371	ltpFR2	0	7	SLOPE	1328	n/a	n/a	0	0	0
1440313	WORD	wordpools/wasnorm_wordpool_576.txt	LTP371	ltpFR2	0	7	LODGE	839	n/a	n/a	0	0	0
1442746	WORD	wordpools/wasnorm_wordpool_576.txt	LTP371	ltpFR2	0	7	KNIFE	785	n/a	n/a	0	0	0
1445327	WORD	wordpools/wasnorm_wordpool_576.txt	LTP371	ltpFR2	0	7	GHETTO	633	n/a	n/a	0	0	0
1448009	WORD	wordpools/wasnorm_wordpool_576.txt	LTP371	ltpFR2	0	7	PLUTO	1092	n/a	n/a	0	0	0
1450526	WORD	wordpools/wasnorm_wordpool_576.txt	LTP371	ltpFR2	0	7	LION	827	n/a	n/a	0	0	0
1453073	WORD	wordpools/wasnorm_wordpool_576.txt	LTP371	ltpFR2	0	7	TUBA	1515	n/a	n/a	0	0	0
1454691	START	n/a	LTP371	ltpFR2	0	n/a	n/a	n/a	10	n/a	n/a	n/a	n/a
1455802	DISTRACTOR	n/a	LTP371	ltpFR2	0	7	n/a	n/a	n/a	n/a	0	0	0
1455806	PROB	n/a	LTP371	ltpFR2	0	n/a	n/a	n/a	10	10	1	5	4
1457871	PROB	n/a	LTP371	ltpFR2	0	n/a	n/a	n/a	10	12	6	3	3
1459504	PROB	n/a	LTP371	ltpFR2	0	n/a	n/a	n/a	10	19	8	2	9
1461220	PROB	n/a	LTP371	ltpFR2	0	n/a	n/a	n/a	10	19	7	4	8
1462836	PROB	n/a	LTP371	ltpFR2	0	n/a	n/a	n/a	10	12	3	7	2
1464935	PROB	n/a	LTP371	ltpFR2	0	n/a	n/a	n/a	10	20	6	5	9
1467300	PROB	n/a	LTP371	ltpFR2	0	n/a	n/a	n/a	10	20	7	9	4
1469016	PROB	n/a	LTP371	ltpFR2	0	n/a	n/a	n/a	10	7	4	1	2
1472364	PROB	n/a	LTP371	ltpFR2	0	n/a	n/a	n/a	10	20	7	8	5
1474080	PROB	n/a	LTP371	ltpFR2	0	n/a	n/a	n/a	10	3	1	1	1
1475263	PROB	n/a	LTP371	ltpFR2	0	n/a	n/a	n/a	10	15	5	1	9
1478691	STOP	n/a	LTP371	ltpFR2	0	n/a	n/a	n/a	10	n/a	n/a	n/a	n/a
1480529	REC_START	n/a	LTP371	ltpFR2	0	7	n/a	n/a	n/a	n/a	0	0	0
1481493	REC_WORD	wordpools/wasnorm_wordpool_576.txt	LTP371	ltpFR2	0	7	PLUTO	1092	n/a	n/a	0	0	0
1484131	REC_WORD	wordpools/wasnorm_wordpool_576.txt	LTP371	ltpFR2	0	7	TWIG	1527	n/a	n/a	0	0	0
1485517	REC_WORD	wordpools/wasnorm_wordpool_576.txt	LTP371	ltpFR2	0	7	BRANCH	168	n/a	n/a	0	0	0
1487325	REC_WORD	wordpools/wasnorm_wordpool_576.txt	LTP371	ltpFR2	0	7	LOG	841	n/a	n/a	0	0	0
1488305	REC_WORD	wordpools/wasnorm_wordpool_576.txt	LTP371	ltpFR2	0	7	LODGE	839	n/a	n/a	0	0	0
1496112	REC_WORD	wordpools/wasnorm_wordpool_576.txt	LTP371	ltpFR2	0	7	AWARD	63	n/a	n/a	0	0	0
1497670	REC_WORD	wordpools/wasnorm_wordpool_576.txt	LTP371	ltpFR2	0	7	NOTEBOOK	959	n/a	n/a	0	0	0
1506399	REC_WORD	wordpools/wasnorm_wordpool_576.txt	LTP371	ltpFR2	0	7	SHELTER	1282	n/a	n/a	0	0	0
1508559	REC_WORD	wordpools/wasnorm_wordpool_576.txt	LTP371	ltpFR2	0	7	LION	827	n/a	n/a	0	0	0
1510361	REC_WORD	wordpools/wasnorm_wordpool_576.txt	LTP371	ltpFR2	0	7	TUBA	1515	n/a	n/a	0	0	0
1526566	REC_WORD	wordpools/wasnorm_wordpool_576.txt	LTP371	ltpFR2	0	7	OZONE	996	n/a	n/a	0	0	0
1528369	REC_WORD	wordpools/wasnorm_wordpool_576.txt	LTP371	ltpFR2	0	7	SPACE	1345	n/a	n/a	0	0	0
1530396	REC_WORD	wordpools/wasnorm_wordpool_576.txt	LTP371	ltpFR2	0	7	RUST	1219	n/a	n/a	0	0	0
1532121	REC_WORD	wordpools/wasnorm_wordpool_576.txt	LTP371	ltpFR2	0	7	TRUCK	1512	n/a	n/a	0	0	0
1548951	REC_WORD	wordpools/wasnorm_wordpool_576.txt	LTP371	ltpFR2	0	7	MISTER	901	n/a	n/a	0	0	0
1550426	REC_WORD	wordpools/wasnorm_wordpool_576.txt	LTP371	ltpFR2	0	7	LADY	794	n/a	n/a	0	0	0
1583046	DISTRACTOR	n/a	LTP371	ltpFR2	0	8	n/a	n/a	n/a	n/a	0	0	0
1583047	START	n/a	LTP371	ltpFR2	0	n/a	n/a	n/a	11	n/a	n/a	n/a	n/a
1583063	PROB	n/a	LTP371	ltpFR2	0	n/a	n/a	n/a	11	19	7	4	8
1585596	PROB	n/a	LTP371	ltpFR2	0	n/a	n/a	n/a	11	14	6	7	1
1588011	PROB	n/a	LTP371	ltpFR2	0	n/a	n/a	n/a	11	9	3	1	5
1589528	PROB	n/a	LTP371	ltpFR2	0	n/a	n/a	n/a	11	18	4	5	9
1591442	PROB	n/a	LTP371	ltpFR2	0	n/a	n/a	n/a	11	9	2	1	6
1592942	PROB	n/a	LTP371	ltpFR2	0	n/a	n/a	n/a	11	17	8	8	1
1594692	PROB	n/a	LTP371	ltpFR2	0	n/a	n/a	n/a	11	16	6	4	6
1596273	PROB	n/a	LTP371	ltpFR2	0	n/a	n/a	n/a	11	24	7	8	9
1599673	PROB	n/a	LTP371	ltpFR2	0	n/a	n/a	n/a	11	16	4	7	5
1602221	PROB	n/a	LTP371	ltpFR2	0	n/a	n/a	n/a	11	18	9	8	1
1604003	PROB	n/a	LTP371	ltpFR2	0	n/a	n/a	n/a	11	18	9	6	3
1605610	STOP	n/a	LTP371	ltpFR2	0	n/a	n/a	n/a	11	n/a	n/a	n/a	n/a
1608101	WORD	wordpools/wasnorm_wordpool_576.txt	LTP371	ltpFR2	0	8	DRUG	501	n/a	n/a	0	0	0
1610651	WORD	wordpools/wasnorm_wordpool_576.txt	LTP371	ltpFR2	0	8	PLAZA	1088	n/a	n/a	0	0	0
1613382	WORD	wordpools/wasnorm_wordpool_576.txt	LTP371	ltpFR2	0	8	TROMBONE	1508	n/a	n/a	0	0	0
1615914	WORD	wordpools/wasnorm_wordpool_576.txt	LTP371	ltpFR2	0	8	PREACHER	1119	n/a	n/a	0	0	0
1618714	WORD	wordpools/wasnorm_wordpool_576.txt	LTP371	ltpFR2	0	8	PROTON	1132	n/a	n/a	0	0	0
1621378	WORD	wordpools/wasnorm_wordpool_576.txt	LTP371	ltpFR2	0	8	NEUTRON	947	n/a	n/a	0	0	0
1623894	WORD	wordpools/wasnorm_wordpool_576.txt	LTP371	ltpFR2	0	8	TERMITE	1451	n/a	n/a	0	0	0
1626610	WORD	wordpools/wasnorm_wordpool_576.txt	LTP371	ltpFR2	0	8	SWITCH	1422	n/a	n/a	0	0	0
1629325	WORD	wordpools/wasnorm_wordpool_576.txt	LTP371	ltpFR2	0	8	PALACE	1006	n/a	n/a	0	0	0
1631857	WORD	wordpools/wasnorm_wordpool_576.txt	LTP371	ltpFR2	0	8	VIRUS	1572	n/a	n/a	0	0	0
1634523	WORD	wordpools/wasnorm_wordpool_576.txt	LTP371	ltpFR2	0	8	PLAYGROUND	1087	n/a	n/a	0	0	0
1637121	WORD	wordpools/wasnorm_wordpool_576.txt	LTP371	ltpFR2	0	8	MARS	873	n/a	n/a	0	0	0
1639771	WORD	wordpools/wasnorm_wordpool_576.txt	LTP371	ltpFR2	0	8	WORLD	1622	n/a	n/a	0	0	0
1642435	WORD	wordpools/wasnorm_wordpool_576.txt	LTP371	ltpFR2	0	8	CRICKET	408	n/a	n/a	0	0	0
1644867	WORD	wordpools/wasnorm_wordpool_576.txt	LTP371	ltpFR2	0	8	BRAKE	166	n/a	n/a	0	0	0
1647634	WORD	wordpools/wasnorm_wordpool_576.txt	LTP371	ltpFR2	0	8	TAXI	1438	n/a	n/a	0	0	0
1650432	WORD	wordpools/wasnorm_wordpool_576.txt	LTP371	ltpFR2	0	8	PLIERS	1089	n/a	n/a	0	0	0
1653030	WORD	wordpools/wasnorm_wordpool_576.txt	LTP371	ltpFR2	0	8	SOFTBALL	1343	n/a	n/a	0	0	0
1655547	WORD	wordpools/wasnorm_wordpool_576.txt	LTP371	ltpFR2	0	8	RIVER	1194	n/a	n/a	0	0	0
1658078	WORD	wordpools/wasnorm_wordpool_576.txt	LTP371	ltpFR2	0	8	BATHTUB	100	n/a	n/a	0	0	0
1660761	WORD	wordpools/wasnorm_wordpool_576.txt	LTP371	ltpFR2	0	8	SPIDER	1351	n/a	n/a	0	0	0
1663426	WORD	wordpools/wasnorm_wordpool_576.txt	LTP371	ltpFR2	0	8	VAGRANT	1544	n/a	n/a	0	0	0
1665891	WORD	wordpools/wasnorm_wordpool_576.txt	LTP371	ltpFR2	0	8	DRILL	497	n/a	n/a	0	0	0
1668624	WORD	wordpools/wasnorm_wordpool_576.txt	LTP371	ltpFR2	0	8	POCKET	1093	n/a	n/a	0	0	0
1670239	START	n/a	LTP371	ltpFR2	0	n/a	n/a	n/a	12	n/a	n/a	n/a	n/a
1671352	DISTRACTOR	n/a	LTP371	ltpFR2	0	8	n/a	n/a	n/a	n/a	0	0	0
1671355	PROB	n/a	LTP371	ltpFR2	0	n/a	n/a	n/a	12	24	9	7	8
1674437	PROB	n/a	LTP371	ltpFR2	0	n/a	n/a	n/a	12	14	9	3	2
1677302	PROB	n/a	LTP371	ltpFR2	0	n/a	n/a	n/a	12	11	1	4	6
1678786	PROB	n/a	LTP371	ltpFR2	0	n/a	n/a	n/a	12	14	4	6	4
1680068	PROB	n/a	LTP371	ltpFR2	0	n/a	n/a	n/a	12	14	2	6	6
1681518	PROB	n/a	LTP371	ltpFR2	0	n/a	n/a	n/a	12	13	3	9	1
1682983	PROB	n/a	LTP371	ltpFR2	0	n/a	n/a	n/a	12	16	7	8	1
1685749	PROB	n/a	LTP371	ltpFR2	0	n/a	n/a	n/a	12	13	7	2	4
1687782	PROB	n/a	LTP371	ltpFR2	0	n/a	n/a	n/a	12	16	4	9	3
1689297	PROB	n/a	LTP371	ltpFR2	0	n/a	n/a	n/a	12	11	2	7	2
1690781	PROB	n/a	LTP371	ltpFR2	0	n/a	n/a	n/a	12	13	8	1	4
1694239	STOP	n/a	LTP371	ltpFR2	0	n/a	n/a	n/a	12	n/a	n/a	n/a	n/a
1696144	REC_START	n/a	LTP371	ltpFR2	0	8	n/a	n/a	n/a	n/a	0	0	0
1696738	REC_WORD	wordpools/wasnorm_wordpool_576.txt	LTP371	ltpFR2	0	8	PLIERS	1089	n/a	n/a	0	0	0
1698339	REC_WORD	wordpools/wasnorm_wordpool_576.txt	LTP371	ltpFR2	0	8	DRILL	497	n/a	n/a	0	0	0
1709141	REC_WORD	wordpools/wasnorm_wordpool_576.txt	LTP371	ltpFR2	0	8	PROTON	1132	n/a	n/a	0	0	0
1710510	REC_WORD	wordpools/wasnorm_wordpool_576.txt	LTP371	ltpFR2	0	8	NEUTRON	947	n/a	n/a	0	0	0
1712440	REC_WORD	wordpools/wasnorm_wordpool_576.txt	LTP371	ltpFR2	0	8	PREACHER	1119	n/a	n/a	0	0	0
1714045	REC_WORD	wordpools/wasnorm_wordpool_576.txt	LTP371	ltpFR2	0	8	PLAZA	1088	n/a	n/a	0	0	0
1718790	REC_WORD	wordpools/wasnorm_wordpool_576.txt	LTP371	ltpFR2	0	8	PALACE	1006	n/a	n/a	0	0	0
1726005	REC_WORD	wordpools/wasnorm_wordpool_576.txt	LTP371	ltpFR2	0	8	TROMBONE	1508	n/a	n/a	0	0	0
1739757	REC_WORD	wordpools/wasnorm_wordpool_576.txt	LTP371	ltpFR2	0	8	MARS	873	n/a	n/a	0	0	0
1772692	REST_REWET	n/a	LTP371	ltpFR2	0	8	n/a	n/a	n/a	n/a	0	0	0
2111618	DISTRACTOR	n/a	LTP371	ltpFR2	0	9	n/a	n/a	n/a	n/a	0	0	0
2111618	START	n/a	LTP371	ltpFR2	0	n/a	n/a	n/a	13	n/a	n/a	n/a	n/a
2111635	PROB	n/a	LTP371	ltpFR2	0	n/a	n/a	n/a	13	15	4	5	6
2116065	PROB	n/a	LTP371	ltpFR2	0	n/a	n/a	n/a	13	17	3	6	8
2118097	PROB	n/a	LTP371	ltpFR2	0	n/a	n/a	n/a	13	17	3	7	7
2119681	PROB	n/a	LTP371	ltpFR2	0	n/a	n/a	n/a	13	20	9	9	2
2121563	PROB	n/a	LTP371	ltpFR2	0	n/a	n/a	n/a	13	22	6	8	8
2123513	PROB	n/a	LTP371	ltpFR2	0	n/a	n/a	n/a	13	23	7	8	8
2126327	PROB	n/a	LTP371	ltpFR2	0	n/a	n/a	n/a	13	16	4	4	8
2128276	PROB	n/a	LTP371	ltpFR2	0	n/a	n/a	n/a	13	19	4	6	9
2130643	PROB	n/a	LTP371	ltpFR2	0	n/a	n/a	n/a	13	18	8	2	8
2132407	PROB	n/a	LTP371	ltpFR2	0	n/a	n/a	n/a	13	14	9	1	4
2134634	STOP	n/a	LTP371	ltpFR2	0	n/a	n/a	n/a	13	n/a	n/a	n/a	n/a
2136690	WORD	wordpools/wasnorm_wordpool_576.txt	LTP371	ltpFR2	0	9	PIGMENT	1066	n/a	n/a	0	0	0
2139288	WORD	wordpools/wasnorm_wordpool_576.txt	LTP371	ltpFR2	0	9	BARLEY	88	n/a	n/a	0	0	0
2141853	WORD	wordpools/wasnorm_wordpool_576.txt	LTP371	ltpFR2	0	9	PACKAGE	997	n/a	n/a	0	0	0
2144669	WORD	wordpools/wasnorm_wordpool_576.txt	LTP371	ltpFR2	0	9	MESSAGE	888	n/a	n/a	0	0	0
2147467	WORD	wordpools/wasnorm_wordpool_576.txt	LTP371	ltpFR2	0	9	SUNRISE	1407	n/a	n/a	0	0	0
2149949	WORD	wordpools/wasnorm_wordpool_576.txt	LTP371	ltpFR2	0	9	MARROW	872	n/a	n/a	0	0	0
2152481	WORD	wordpools/wasnorm_wordpool_576.txt	LTP371	ltpFR2	0	9	SCISSORS	1250	n/a	n/a	0	0	0
2155014	WORD	wordpools/wasnorm_wordpool_576.txt	LTP371	ltpFR2	0	9	BADGE	68	n/a	n/a	0	0	0
2157446	WORD	wordpools/wasnorm_wordpool_576.txt	LTP371	ltpFR2	0	9	SMOG	1330	n/a	n/a	0	0	0
2160045	WORD	wordpools/wasnorm_wordpool_576.txt	LTP371	ltpFR2	0	9	BLENDER	136	n/a	n/a	0	0	0
2162711	WORD	wordpools/wasnorm_wordpool_576.txt	LTP371	ltpFR2	0	9	FOOT	590	n/a	n/a	0	0	0
2165359	WORD	wordpools/wasnorm_wordpool_576.txt	LTP371	ltpFR2	0	9	BROTHER	179	n/a	n/a	0	0	0
2168108	WORD	wordpools/wasnorm_wordpool_576.txt	LTP371	ltpFR2	0	9	CITRUS	313	n/a	n/a	0	0	0
2170574	WORD	wordpools/wasnorm_wordpool_576.txt	LTP371	ltpFR2	0	9	POSTAGE	1113	n/a	n/a	0	0	0
2173305	WORD	wordpools/wasnorm_wordpool_576.txt	LTP371	ltpFR2	0	9	KNAPSACK	783	n/a	n/a	0	0	0
2175788	WORD	wordpools/wasnorm_wordpool_576.txt	LTP371	ltpFR2	0	9	SURVEY	1414	n/a	n/a	0	0	0
2178369	WORD	wordpools/wasnorm_wordpool_576.txt	LTP371	ltpFR2	0	9	SEAL	1262	n/a	n/a	0	0	0
2181135	WORD	wordpools/wasnorm_wordpool_576.txt	LTP371	ltpFR2	0	9	GRAVE	658	n/a	n/a	0	0	0
2183801	WORD	wordpools/wasnorm_wordpool_576.txt	LTP371	ltpFR2	0	9	VALVE	1546	n/a	n/a	0	0	0
2186366	WORD	wordpools/wasnorm_wordpool_576.txt	LTP371	ltpFR2	0	9	HOOD	714	n/a	n/a	0	0	0
2188848	WORD	wordpools/wasnorm_wordpool_576.txt	LTP371	ltpFR2	0	9	SHRUB	1299	n/a	n/a	0	0	0
2191297	WORD	wordpools/wasnorm_wordpool_576.txt	LTP371	ltpFR2	0	9	PEACH	1031	n/a	n/a	0	0	0
2193912	WORD	wordpools/wasnorm_wordpool_576.txt	LTP371	ltpFR2	0	9	VELVET	1555	n/a	n/a	0	0	0
2196394	WORD	wordpools/wasnorm_wordpool_576.txt	LTP371	ltpFR2	0	9	SILK	1307	n/a	n/a	0	0	0
2198010	START	n/a	LTP371	ltpFR2	0	n/a	n/a	n/a	14	n/a	n/a	n/a	n/a
2199159	DISTRACTOR	n/a	LTP371	ltpFR2	0	9	n/a	n/a	n/a	n/a	0	0	0
2199176	PROB	n/a	LTP371	ltpFR2	0	n/a	n/a	n/a	14	22	9	8	5
2204741	PROB	n/a	LTP371	ltpFR2	0	n/a	n/a	n/a	14	12	5	2	5
2206423	PROB	n/a	LTP371	ltpFR2	0	n/a	n/a	n/a	14	13	2	6	5
2208472	PROB	n/a	LTP371	ltpFR2	0	n/a	n/a	n/a	14	24	9	9	6
2214353	PROB	n/a	LTP371	ltpFR2	0	n/a	n/a	n/a	14	19	3	9	7
2216335	PROB	n/a	LTP371	ltpFR2	0	n/a	n/a	n/a	14	13	8	2	3
2217968	PROB	n/a	LTP371	ltpFR2	0	n/a	n/a	n/a	14	6	2	2	2
2219668	PROB	n/a	LTP371	ltpFR2	0	n/a	n/a	n/a	14	14	1	7	6
2221924	STOP	n/a	LTP371	ltpFR2	0	n/a	n/a	n/a	14	n/a	n/a	n/a	n/a
2223882	REC_START	n/a	LTP371	ltpFR2	0	9	n/a	n/a	n/a	n/a	0	0	0
2224523	REC_WORD	wordpools/wasnorm_wordpool_576.txt	LTP371	ltpFR2	0	9	KNAPSACK	783	n/a	n/a	0	0	0
2226220	REC_WORD	wordpools/wasnorm_wordpool_576.txt	LTP371	ltpFR2	0	9	VELVET	1555	n/a	n/a	0	0	0
2227839	REC_WORD	wordpools/wasnorm_wordpool_576.txt	LTP371	ltpFR2	0	9	VALVE	1546	n/a	n/a	0	0	0
2229500	REC_WORD	wordpools/wasnorm_wordpool_576.txt	LTP371	ltpFR2	0	9	HOOD	714	n/a	n/a	0	0	0
2230985	REC_WORD	wordpools/wasnorm_wordpool_576.txt	LTP371	ltpFR2	0	9	SILK	1307	n/a	n/a	0	0	0
2234463	REC_WORD	wordpools/wasnorm_wordpool_576.txt	LTP371	ltpFR2	0	9	FOOT	590	n/a	n/a	0	0	0
2237895	REC_WORD	wordpools/wasnorm_wordpool_576.txt	LTP371	ltpFR2	0	9	PACKAGE	997	n/a	n/a	0	0	0
2239205	REC_WORD	wordpools/wasnorm_wordpool_576.txt	LTP371	ltpFR2	0	9	POSTAGE	1113	n/a	n/a	0	0	0
2242372	REC_WORD	wordpools/wasnorm_wordpool_576.txt	LTP371	ltpFR2	0	9	BARLEY	88	n/a	n/a	0	0	0
2246708	REC_WORD	wordpools/wasnorm_wordpool_576.txt	LTP371	ltpFR2	0	9	BLENDER	136	n/a	n/a	0	0	0
2252160	REC_WORD	wordpools/wasnorm_wordpool_576.txt	LTP371	ltpFR2	0	9	PIGMENT	1066	n/a	n/a	0	0	0
2314323	WORD	wordpools/wasnorm_wordpool_576.txt	LTP371	ltpFR2	0	10	DRESSER	496	n/a	n/a	0	0	0
2316988	WORD	wordpools/wasnorm_wordpool_576.txt	LTP371	ltpFR2	0	10	SHELF	1280	n/a	n/a	0	0	0
2319487	WORD	wordpools/wasnorm_wordpool_576.txt	LTP371	ltpFR2	0	10	LIZARD	834	n/a	n/a	0	0	0
2322202	WORD	wordpools/wasnorm_wordpool_576.txt	LTP371	ltpFR2	0	10	TOMBSTONE	1478	n/a	n/a	0	0	0
2324818	WORD	wordpools/wasnorm_wordpool_576.txt	LTP371	ltpFR2	0	10	CATCHER	258	n/a	n/a	0	0	0
2327450	WORD	wordpools/wasnorm_wordpool_576.txt	LTP371	ltpFR2	0	10	FOOTBALL	591	n/a	n/a	0	0	0
2330099	WORD	wordpools/wasnorm_wordpool_576.txt	LTP371	ltpFR2	0	10	ROOSTER	1209	n/a	n/a	0	0	0
2332665	WORD	wordpools/wasnorm_wordpool_576.txt	LTP371	ltpFR2	0	10	CANDY	230	n/a	n/a	0	0	0
2335330	WORD	wordpools/wasnorm_wordpool_576.txt	LTP371	ltpFR2	0	10	CHILD	299	n/a	n/a	0	0	0
2337796	WORD	wordpools/wasnorm_wordpool_576.txt	LTP371	ltpFR2	0	10	PIGEON	1065	n/a	n/a	0	0	0
2340595	WORD	wordpools/wasnorm_wordpool_576.txt	LTP371	ltpFR2	0	10	CHEST	295	n/a	n/a	0	0	0
2343026	WORD	wordpools/wasnorm_wordpool_576.txt	LTP371	ltpFR2	0	10	TOASTER	1472	n/a	n/a	0	0	0
2345543	WORD	wordpools/wasnorm_wordpool_576.txt	LTP371	ltpFR2	0	10	SKILLET	1317	n/a	n/a	0	0	0
2348224	WORD	wordpools/wasnorm_wordpool_576.txt	LTP371	ltpFR2	0	10	BUG	187	n/a	n/a	0	0	0
2350822	WORD	wordpools/wasnorm_wordpool_576.txt	LTP371	ltpFR2	0	10	COMPASS	358	n/a	n/a	0	0	0
2353338	WORD	wordpools/wasnorm_wordpool_576.txt	LTP371	ltpFR2	0	10	NOVEL	960	n/a	n/a	0	0	0
2355970	WORD	wordpools/wasnorm_wordpool_576.txt	LTP371	ltpFR2	0	10	FUNGUS	614	n/a	n/a	0	0	0
2358670	WORD	wordpools/wasnorm_wordpool_576.txt	LTP371	ltpFR2	0	10	BLUEPRINT	142	n/a	n/a	0	0	0
2361201	WORD	wordpools/wasnorm_wordpool_576.txt	LTP371	ltpFR2	0	10	CLAM	315	n/a	n/a	0	0	0
2363850	WORD	wordpools/wasnorm_wordpool_576.txt	LTP371	ltpFR2	0	10	YARN	1631	n/a	n/a	0	0	0
2366533	WORD	wordpools/wasnorm_wordpool_576.txt	LTP371	ltpFR2	0	10	SPOOL	1356	n/a	n/a	0	0	0
2369031	WORD	wordpools/wasnorm_wordpool_576.txt	LTP371	ltpFR2	0	10	BISON	131	n/a	n/a	0	0	0
2371463	WORD	wordpools/wasnorm_wordpool_576.txt	LTP371	ltpFR2	0	10	LUNCH	849	n/a	n/a	0	0	0
2374095	WORD	wordpools/wasnorm_wordpool_576.txt	LTP371	ltpFR2	0	10	PAIL	1002	n/a	n/a	0	0	0
2375712	START	n/a	LTP371	ltpFR2	0	n/a	n/a	n/a	15	n/a	n/a	n/a	n/a
2376762	DISTRACTOR	n/a	LTP371	ltpFR2	0	10	n/a	n/a	n/a	n/a	0	0	0
2376778	PROB	n/a	LTP371	ltpFR2	0	n/a	n/a	n/a	15	9	6	2	1
2378644	PROB	n/a	LTP371	ltpFR2	0	n/a	n/a	n/a	15	17	7	5	5
2380576	PROB	n/a	LTP371	ltpFR2	0	n/a	n/a	n/a	15	17	6	5	6
2382374	PROB	n/a	LTP371	ltpFR2	0	n/a	n/a	n/a	15	16	5	7	4
2384024	PROB	n/a	LTP371	ltpFR2	0	n/a	n/a	n/a	15	12	2	7	3
2385423	PROB	n/a	LTP371	ltpFR2	0	n/a	n/a	n/a	15	15	4	5	6
2386989	PROB	n/a	LTP371	ltpFR2	0	n/a	n/a	n/a	15	10	7	2	1
2388505	PROB	n/a	LTP371	ltpFR2	0	n/a	n/a	n/a	15	19	8	6	5
2390171	PROB	n/a	LTP371	ltpFR2	0	n/a	n/a	n/a	15	8	6	1	1
2392637	PROB	n/a	LTP371	ltpFR2	0	n/a	n/a	n/a	15	9	7	1	1
2393819	PROB	n/a	LTP371	ltpFR2	0	n/a	n/a	n/a	15	12	6	1	5
2395352	PROB	n/a	LTP371	ltpFR2	0	n/a	n/a	n/a	15	9	4	3	2
2397118	PROB	n/a	LTP371	ltpFR2	0	n/a	n/a	n/a	15	9	6	2	1
2398369	STOP	n/a	LTP371	ltpFR2	0	n/a	n/a	n/a	15	n/a	n/a	n/a	n/a
2401550	REC_START	n/a	LTP371	ltpFR2	0	10	n/a	n/a	n/a	n/a	0	0	0
2402053	REC_WORD	wordpools/wasnorm_wordpool_576.txt	LTP371	ltpFR2	0	10	PAIL	1002	n/a	n/a	0	0	0
2403404	REC_WORD	wordpools/wasnorm_wordpool_576.txt	LTP371	ltpFR2	0	10	BLUEPRINT	142	n/a	n/a	0	0	0
2405250	REC_WORD	wordpools/wasnorm_wordpool_576.txt	LTP371	ltpFR2	0	10	NOVEL	960	n/a	n/a	0	0	0
2406516	REC_WORD	wordpools/wasnorm_wordpool_576.txt	LTP371	ltpFR2	0	10	FUNGUS	614	n/a	n/a	0	0	0
2408076	REC_WORD	wordpools/wasnorm_wordpool_576.txt	LTP371	ltpFR2	0	10	LIZARD	834	n/a	n/a	0	0	0
2411350	REC_WORD	wordpools/wasnorm_wordpool_576.txt	LTP371	ltpFR2	0	10	BUG	187	n/a	n/a	0	0	0
2414096	REC_WORD	wordpools/wasnorm_wordpool_576.txt	LTP371	ltpFR2	0	10	CATCHER	258	n/a	n/a	0	0	0
2415434	REC_WORD	wordpools/wasnorm_wordpool_576.txt	LTP371	ltpFR2	0	10	CHILD	299	n/a	n/a	0	0	0
2417434	REC_WORD	wordpools/wasnorm_wordpool_576.txt	LTP371	ltpFR2	0	10	ROOSTER	1209	n/a	n/a	0	0	0
2420842	REC_WORD	wordpools/wasnorm_wordpool_576.txt	LTP371	ltpFR2	0	10	SHELF	1280	n/a	n/a	0	0	0
2422462	REC_WORD	wordpools/wasnorm_wordpool_576.txt	LTP371	ltpFR2	0	10	DRESSER	496	n/a	n/a	0	0	0
2426176	REC_WORD	wordpools/wasnorm_wordpool_576.txt	LTP371	ltpFR2	0	10	CANDY	230	n/a	n/a	0	0	0
2428000	REC_WORD	wordpools/wasnorm_wordpool_576.txt	LTP371	ltpFR2	0	10	LUNCH	849	n/a	n/a	0	0	0
2444083	REC_WORD	wordpools/wasnorm_wordpool_576.txt	LTP371	ltpFR2	0	10	TOMBSTONE	1478	n/a	n/a	0	0	0
2457504	REC_WORD	wordpools/wasnorm_wordpool_576.txt	LTP371	ltpFR2	0	10	BISON	131	n/a	n/a	0	0	0
2492007	WORD	wordpools/wasnorm_wordpool_576.txt	LTP371	ltpFR2	0	11	PECAN	1036	n/a	n/a	0	0	0
2494773	WORD	wordpools/wasnorm_wordpool_576.txt	LTP371	ltpFR2	0	11	FRUIT	610	n/a	n/a	0	0	0
2497288	WORD	wordpools/wasnorm_wordpool_576.txt	LTP371	ltpFR2	0	11	BUGGY	188	n/a	n/a	0	0	0
2499886	WORD	wordpools/wasnorm_wordpool_576.txt	LTP371	ltpFR2	0	11	SISTER	1312	n/a	n/a	0	0	0
2502553	WORD	wordpools/wasnorm_wordpool_576.txt	LTP371	ltpFR2	0	11	CYCLONE	431	n/a	n/a	0	0	0
2505101	WORD	wordpools/wasnorm_wordpool_576.txt	LTP371	ltpFR2	0	11	SCRIBBLE	1256	n/a	n/a	0	0	0
2507767	WORD	wordpools/wasnorm_wordpool_576.txt	LTP371	ltpFR2	0	11	SCARF	1246	n/a	n/a	0	0	0
2510198	WORD	wordpools/wasnorm_wordpool_576.txt	LTP371	ltpFR2	0	11	KETCHUP	771	n/a	n/a	0	0	0
2512748	WORD	wordpools/wasnorm_wordpool_576.txt	LTP371	ltpFR2	0	11	AIRPLANE	12	n/a	n/a	0	0	0
2515530	WORD	wordpools/wasnorm_wordpool_576.txt	LTP371	ltpFR2	0	11	IDOL	733	n/a	n/a	0	0	0
2518228	WORD	wordpools/wasnorm_wordpool_576.txt	LTP371	ltpFR2	0	11	HOSTESS	723	n/a	n/a	0	0	0
2520678	WORD	wordpools/wasnorm_wordpool_576.txt	LTP371	ltpFR2	0	11	UNCLE	1536	n/a	n/a	0	0	0
2523375	WORD	wordpools/wasnorm_wordpool_576.txt	LTP371	ltpFR2	0	11	COUSIN	392	n/a	n/a	0	0	0
2526008	WORD	wordpools/wasnorm_wordpool_576.txt	LTP371	ltpFR2	0	11	BUNNY	198	n/a	n/a	0	0	0
2528490	WORD	wordpools/wasnorm_wordpool_576.txt	LTP371	ltpFR2	0	11	TORTOISE	1486	n/a	n/a	0	0	0
2531072	WORD	wordpools/wasnorm_wordpool_576.txt	LTP371	ltpFR2	0	11	HELMET	702	n/a	n/a	0	0	0
2533772	WORD	wordpools/wasnorm_wordpool_576.txt	LTP371	ltpFR2	0	11	HERO	706	n/a	n/a	0	0	0
2536403	WORD	wordpools/wasnorm_wordpool_576.txt	LTP371	ltpFR2	0	11	STOMACH	1384	n/a	n/a	0	0	0
2539185	WORD	wordpools/wasnorm_wordpool_576.txt	LTP371	ltpFR2	0	11	PARENT	1013	n/a	n/a	0	0	0
2541983	WORD	wordpools/wasnorm_wordpool_576.txt	LTP371	ltpFR2	0	11	SPHINX	1349	n/a	n/a	0	0	0
2544567	WORD	wordpools/wasnorm_wordpool_576.txt	LTP371	ltpFR2	0	11	BELLY	119	n/a	n/a	0	0	0
2547014	WORD	wordpools/wasnorm_wordpool_576.txt	LTP371	ltpFR2	0	11	BOYFRIEND	162	n/a	n/a	0	0	0
2549698	WORD	wordpools/wasnorm_wordpool_576.txt	LTP371	ltpFR2	0	11	WASP	1593	n/a	n/a	0	0	0
2552345	WORD	wordpools/wasnorm_wordpool_576.txt	LTP371	ltpFR2	0	11	FRIEND	606	n/a	n/a	0	0	0
2553961	START	n/a	LTP371	ltpFR2	0	n/a	n/a	n/a	16	n/a	n/a	n/a	n/a
2554840	DISTRACTOR	n/a	LTP371	ltpFR2	0	11	n/a	n/a	n/a	n/a	0	0	0
2554844	PROB	n/a	LTP371	ltpFR2	0	n/a	n/a	n/a	16	16	2	9	5
2556943	PROB	n/a	LTP371	ltpFR2	0	n/a	n/a	n/a	16	5	1	3	1
2558209	PROB	n/a	LTP371	ltpFR2	0	n/a	n/a	n/a	16	17	3	6	8
2559875	PROB	n/a	LTP371	ltpFR2	0	n/a	n/a	n/a	16	18	5	4	9
2562824	PROB	n/a	LTP371	ltpFR2	0	n/a	n/a	n/a	16	20	8	9	3
2564691	PROB	n/a	LTP371	ltpFR2	0	n/a	n/a	n/a	16	9	1	6	2
2566239	PROB	n/a	LTP371	ltpFR2	0	n/a	n/a	n/a	16	17	6	4	7
2568071	PROB	n/a	LTP371	ltpFR2	0	n/a	n/a	n/a	16	18	7	5	6
2569522	PROB	n/a	LTP371	ltpFR2	0	n/a	n/a	n/a	16	12	7	4	1
2572353	PROB	n/a	LTP371	ltpFR2	0	n/a	n/a	n/a	16	11	2	8	1
2573902	PROB	n/a	LTP371	ltpFR2	0	n/a	n/a	n/a	16	11	3	3	5
2575485	PROB	n/a	LTP371	ltpFR2	0	n/a	n/a	n/a	16	19	6	5	8
2577432	STOP	n/a	LTP371	ltpFR2	0	n/a	n/a	n/a	16	n/a	n/a	n/a	n/a
2579866	REC_START	n/a	LTP371	ltpFR2	0	11	n/a	n/a	n/a	n/a	0	0	0
2580832	REC_WORD	wordpools/wasnorm_wordpool_576.txt	LTP371	ltpFR2	0	11	WASP	1593	n/a	n/a	0	0	0
2581987	REC_WORD	wordpools/wasnorm_wordpool_576.txt	LTP371	ltpFR2	0	11	FRIEND	606	n/a	n/a	0	0	0
2583459	REC_WORD	wordpools/wasnorm_wordpool_576.txt	LTP371	ltpFR2	0	11	BOYFRIEND	162	n/a	n/a	0	0	0
2584874	REC_WORD	wordpools/wasnorm_wordpool_576.txt	LTP371	ltpFR2	0	11	HUSBAND	728	n/a	n/a	0	0	0
2588159	REC_WORD	wordpools/wasnorm_wordpool_576.txt	LTP371	ltpFR2	0	11	UNCLE	1536	n/a	n/a	0	0	0
2590633	REC_WORD	wordpools/wasnorm_wordpool_576.txt	LTP371	ltpFR2	0	11	SISTER	1312	n/a	n/a	0	0	0
2593036	REC_WORD	wordpools/wasnorm_wordpool_576.txt	LTP371	ltpFR2	0	11	COUSIN	392	n/a	n/a	0	0	0
2604683	REC_WORD	wordpools/wasnorm_wordpool_576.txt	LTP371	ltpFR2	0	11	IDOL	733	n/a	n/a	0	0	0
2606077	REC_WORD	wordpools/wasnorm_wordpool_576.txt	LTP371	ltpFR2	0	11	HERO	706	n/a	n/a	0	0	0
2609345	REC_WORD	wordpools/wasnorm_wordpool_576.txt	LTP371	ltpFR2	0	11	AIRPLANE	12	n/a	n/a	0	0	0
2611428	REC_WORD	wordpools/wasnorm_wordpool_576.txt	LTP371	ltpFR2	0	11	HOSTESS	723	n/a	n/a	0	0	0
2633841	REC_WORD	wordpools/wasnorm_wordpool_576.txt	LTP371	ltpFR2	0	11	SPHINX	1349	n/a	n/a	0	0	0
2637251	REC_WORD	wordpools/wasnorm_wordpool_576.txt	LTP371	ltpFR2	0	11	CYCLONE	431	n/a	n/a	0	0	0
2638747	REC_WORD	wordpools/wasnorm_wordpool_576.txt	LTP371	ltpFR2	0	11	SCARF	1246	n/a	n/a	0	0	0
2645052	REC_WORD	wordpools/wasnorm_wordpool_576.txt	LTP371	ltpFR2	0	11	BUNNY	198	n/a	n/a	0	0	0
2646279	REC_WORD	wordpools/wasnorm_wordpool_576.txt	LTP371	ltpFR2	0	11	BUGGY	188	n/a	n/a	0	0	0
2679286	WORD	wordpools/wasnorm_wordpool_576.txt	LTP371	ltpFR2	0	12	SHORTCAKE	1292	n/a	n/a	0	0	0
2681902	WORD	wordpools/wasnorm_wordpool_576.txt	LTP371	ltpFR2	0	12	SERVER	1272	n/a	n/a	0	0	0
2684467	WORD	wordpools/wasnorm_wordpool_576.txt	LTP371	ltpFR2	0	12	BLACKBOARD	133	n/a	n/a	0	0	0
2687066	WORD	wordpools/wasnorm_wordpool_576.txt	LTP371	ltpFR2	0	12	BRIEFCASE	175	n/a	n/a	0	0	0
2689799	WORD	wordpools/wasnorm_wordpool_576.txt	LTP371	ltpFR2	0	12	AGENT	10	n/a	n/a	0	0	0
2692514	WORD	wordpools/wasnorm_wordpool_576.txt	LTP371	ltpFR2	0	12	DANDRUFF	439	n/a	n/a	0	0	0
2695262	WORD	wordpools/wasnorm_wordpool_576.txt	LTP371	ltpFR2	0	12	GARBAGE	622	n/a	n/a	0	0	0
2697977	WORD	wordpools/wasnorm_wordpool_576.txt	LTP371	ltpFR2	0	12	BOARD	143	n/a	n/a	0	0	0
2700443	WORD	wordpools/wasnorm_wordpool_576.txt	LTP371	ltpFR2	0	12	LOFT	840	n/a	n/a	0	0	0
2702975	WORD	wordpools/wasnorm_wordpool_576.txt	LTP371	ltpFR2	0	12	MATTRESS	879	n/a	n/a	0	0	0
2705491	WORD	wordpools/wasnorm_wordpool_576.txt	LTP371	ltpFR2	0	12	MUSTARD	935	n/a	n/a	0	0	0
2708189	WORD	wordpools/wasnorm_wordpool_576.txt	LTP371	ltpFR2	0	12	PLAID	1080	n/a	n/a	0	0	0
2710838	WORD	wordpools/wasnorm_wordpool_576.txt	LTP371	ltpFR2	0	12	DIVER	476	n/a	n/a	0	0	0
2713437	WORD	wordpools/wasnorm_wordpool_576.txt	LTP371	ltpFR2	0	12	MARSH	874	n/a	n/a	0	0	0
2716019	WORD	wordpools/wasnorm_wordpool_576.txt	LTP371	ltpFR2	0	12	BLADE	134	n/a	n/a	0	0	0
2718719	WORD	wordpools/wasnorm_wordpool_576.txt	LTP371	ltpFR2	0	12	NURSE	963	n/a	n/a	0	0	0
2721433	WORD	wordpools/wasnorm_wordpool_576.txt	LTP371	ltpFR2	0	12	CREVICE	405	n/a	n/a	0	0	0
2723932	WORD	wordpools/wasnorm_wordpool_576.txt	LTP371	ltpFR2	0	12	MONEY	908	n/a	n/a	0	0	0
2726398	WORD	wordpools/wasnorm_wordpool_576.txt	LTP371	ltpFR2	0	12	SCALPEL	1243	n/a	n/a	0	0	0
2728913	WORD	wordpools/wasnorm_wordpool_576.txt	LTP371	ltpFR2	0	12	MASK	876	n/a	n/a	0	0	0
2731596	WORD	wordpools/wasnorm_wordpool_576.txt	LTP371	ltpFR2	0	12	RAZOR	1171	n/a	n/a	0	0	0
2734227	WORD	wordpools/wasnorm_wordpool_576.txt	LTP371	ltpFR2	0	12	RECEIPT	1173	n/a	n/a	0	0	0
2736843	WORD	wordpools/wasnorm_wordpool_576.txt	LTP371	ltpFR2	0	12	SUPPER	1411	n/a	n/a	0	0	0
2739392	WORD	wordpools/wasnorm_wordpool_576.txt	LTP371	ltpFR2	0	12	OYSTER	995	n/a	n/a	0	0	0
2741008	START	n/a	LTP371	ltpFR2	0	n/a	n/a	n/a	17	n/a	n/a	n/a	n/a
2742071	DISTRACTOR	n/a	LTP371	ltpFR2	0	12	n/a	n/a	n/a	n/a	0	0	0
2742074	PROB	n/a	LTP371	ltpFR2	0	n/a	n/a	n/a	17	7	4	2	1
2743923	PROB	n/a	LTP371	ltpFR2	0	n/a	n/a	n/a	17	12	7	4	1
2747755	PROB	n/a	LTP371	ltpFR2	0	n/a	n/a	n/a	17	11	4	5	2
2749387	PROB	n/a	LTP371	ltpFR2	0	n/a	n/a	n/a	17	18	9	2	7
2751319	PROB	n/a	LTP371	ltpFR2	0	n/a	n/a	n/a	17	10	1	1	8
2753852	PROB	n/a	LTP371	ltpFR2	0	n/a	n/a	n/a	17	11	2	3	6
2755950	PROB	n/a	LTP371	ltpFR2	0	n/a	n/a	n/a	17	15	2	7	6
2757717	PROB	n/a	LTP371	ltpFR2	0	n/a	n/a	n/a	17	12	1	7	4
2759617	PROB	n/a	LTP371	ltpFR2	0	n/a	n/a	n/a	17	16	4	5	7
2761398	PROB	n/a	LTP371	ltpFR2	0	n/a	n/a	n/a	17	10	6	1	3
2762864	PROB	n/a	LTP371	ltpFR2	0	n/a	n/a	n/a	17	5	2	1	2
2763973	STOP	n/a	LTP371	ltpFR2	0	n/a	n/a	n/a	17	n/a	n/a	n/a	n/a
2766813	REC_START	n/a	LTP371	ltpFR2	0	12	n/a	n/a	n/a	n/a	0	0	0
2767252	REC_WORD	wordpools/wasnorm_wordpool_576.txt	LTP371	ltpFR2	0	12	SUPPER	1411	n/a	n/a	0	0	0
2768618	REC_WORD	wordpools/wasnorm_wordpool_576.txt	LTP371	ltpFR2	0	12	OYSTER	995	n/a	n/a	0	0	0
2770580	REC_WORD	wordpools/wasnorm_wordpool_576.txt	LTP371	ltpFR2	0	12	SCALPEL	1243	n/a	n/a	0	0	0
2772632	REC_WORD	wordpools/wasnorm_wordpool_576.txt	LTP371	ltpFR2	0	12	NURSE	963	n/a	n/a	0	0	0
2774019	REC_WORD	wordpools/wasnorm_wordpool_576.txt	LTP371	ltpFR2	0	12	MONEY	908	n/a	n/a	0	0	0
2775378	REC_WORD	wordpools/wasnorm_wordpool_576.txt	LTP371	ltpFR2	0	12	RECEIPT	1173	n/a	n/a	0	0	0
2777225	REC_WORD	wordpools/wasnorm_wordpool_576.txt	LTP371	ltpFR2	0	12	CREVICE	405	n/a	n/a	0	0	0
2782087	REC_WORD	wordpools/wasnorm_wordpool_576.txt	LTP371	ltpFR2	0	12	MUSTARD	935	n/a	n/a	0	0	0
2787642	REC_WORD	wordpools/wasnorm_wordpool_576.txt	LTP371	ltpFR2	0	12	SHORTCAKE	1292	n/a	n/a	0	0	0
2789769	REC_WORD	wordpools/wasnorm_wordpool_576.txt	LTP371	ltpFR2	0	12	SERVER	1272	n/a	n/a	0	0	0
2791465	REC_WORD	wordpools/wasnorm_wordpool_576.txt	LTP371	ltpFR2	0	12	AGENT	10	n/a	n/a	0	0	0
2793840	REC_WORD	wordpools/wasnorm_wordpool_576.txt	LTP371	ltpFR2	0	12	BRIEFCASE	175	n/a	n/a	0	0	0
2805478	REC_WORD	wordpools/wasnorm_wordpool_576.txt	LTP371	ltpFR2	0	12	MATTRESS	879	n/a	n/a	0	0	0
2806478	REC_WORD_VV	wordpools/wasnorm_wordpool_576.txt	LTP371	ltpFR2	0	12	<>	-1	n/a	n/a	0	0	0
2840727	REC_WORD	wordpools/wasnorm_wordpool_576.txt	LTP371	ltpFR2	0	12	STOMACH	1384	n/a	n/a	0	0	0
2857253	DISTRACTOR	n/a	LTP371	ltpFR2	0	13	n/a	n/a	n/a	n/a	0	0	0
2857254	START	n/a	LTP371	ltpFR2	0	n/a	n/a	n/a	18	n/a	n/a	n/a	n/a
2857270	PROB	n/a	LTP371	ltpFR2	0	n/a	n/a	n/a	18	20	4	9	7
2859469	PROB	n/a	LTP371	ltpFR2	0	n/a	n/a	n/a	18	14	5	2	7
2861418	PROB	n/a	LTP371	ltpFR2	0	n/a	n/a	n/a	18	13	5	6	2
2863184	PROB	n/a	LTP371	ltpFR2	0	n/a	n/a	n/a	18	21	9	9	3
2864751	PROB	n/a	LTP371	ltpFR2	0	n/a	n/a	n/a	18	14	3	6	5
2866216	PROB	n/a	LTP371	ltpFR2	0	n/a	n/a	n/a	18	22	5	8	9
2870281	PROB	n/a	LTP371	ltpFR2	0	n/a	n/a	n/a	18	22	4	9	9
2872280	PROB	n/a	LTP371	ltpFR2	0	n/a	n/a	n/a	18	19	5	8	6
2876078	PROB	n/a	LTP371	ltpFR2	0	n/a	n/a	n/a	18	13	4	7	2
2877695	PROB	n/a	LTP371	ltpFR2	0	n/a	n/a	n/a	18	14	6	3	5
2881248	STOP	n/a	LTP371	ltpFR2	0	n/a	n/a	n/a	18	n/a	n/a	n/a	n/a
2882092	WORD	wordpools/wasnorm_wordpool_576.txt	LTP371	ltpFR2	0	13	WITNESS	1618	n/a	n/a	0	0	0
2884792	WORD	wordpools/wasnorm_wordpool_576.txt	LTP371	ltpFR2	0	13	LUMBER	848	n/a	n/a	0	0	0
2887540	WORD	wordpools/wasnorm_wordpool_576.txt	LTP371	ltpFR2	0	13	DRESS	495	n/a	n/a	0	0	0
2890005	WORD	wordpools/wasnorm_wordpool_576.txt	LTP371	ltpFR2	0	13	DANCER	437	n/a	n/a	0	0	0
2892705	WORD	wordpools/wasnorm_wordpool_576.txt	LTP371	ltpFR2	0	13	GANGSTER	620	n/a	n/a	0	0	0
2895202	WORD	wordpools/wasnorm_wordpool_576.txt	LTP371	ltpFR2	0	13	MOP	916	n/a	n/a	0	0	0
2898001	WORD	wordpools/wasnorm_wordpool_576.txt	LTP371	ltpFR2	0	13	PEPPER	1047	n/a	n/a	0	0	0
2900816	WORD	wordpools/wasnorm_wordpool_576.txt	LTP371	ltpFR2	0	13	LEG	809	n/a	n/a	0	0	0
2903516	WORD	wordpools/wasnorm_wordpool_576.txt	LTP371	ltpFR2	0	13	TWISTER	1530	n/a	n/a	0	0	0
2906047	WORD	wordpools/wasnorm_wordpool_576.txt	LTP371	ltpFR2	0	13	RADISH	1158	n/a	n/a	0	0	0
2908514	WORD	wordpools/wasnorm_wordpool_576.txt	LTP371	ltpFR2	0	13	PARSLEY	1016	n/a	n/a	0	0	0
2911328	WORD	wordpools/wasnorm_wordpool_576.txt	LTP371	ltpFR2	0	13	CUSTARD	429	n/a	n/a	0	0	0
2913977	WORD	wordpools/wasnorm_wordpool_576.txt	LTP371	ltpFR2	0	13	PUDDING	1139	n/a	n/a	0	0	0
2916593	WORD	wordpools/wasnorm_wordpool_576.txt	LTP371	ltpFR2	0	13	CRITIC	410	n/a	n/a	0	0	0
2919241	WORD	wordpools/wasnorm_wordpool_576.txt	LTP371	ltpFR2	0	13	ACTRESS	6	n/a	n/a	0	0	0
2921674	WORD	wordpools/wasnorm_wordpool_576.txt	LTP371	ltpFR2	0	13	POWDER	1117	n/a	n/a	0	0	0
2924289	WORD	wordpools/wasnorm_wordpool_576.txt	LTP371	ltpFR2	0	13	OMELET	976	n/a	n/a	0	0	0
2926971	WORD	wordpools/wasnorm_wordpool_576.txt	LTP371	ltpFR2	0	13	CABBAGE	210	n/a	n/a	0	0	0
2929721	WORD	wordpools/wasnorm_wordpool_576.txt	LTP371	ltpFR2	0	13	FLEET	578	n/a	n/a	0	0	0
2932302	WORD	wordpools/wasnorm_wordpool_576.txt	LTP371	ltpFR2	0	13	PATROL	1027	n/a	n/a	0	0	0
2935067	WORD	wordpools/wasnorm_wordpool_576.txt	LTP371	ltpFR2	0	13	PRINCE	1124	n/a	n/a	0	0	0
2937667	WORD	wordpools/wasnorm_wordpool_576.txt	LTP371	ltpFR2	0	13	LABEL	790	n/a	n/a	0	0	0
2940198	WORD	wordpools/wasnorm_wordpool_576.txt	LTP371	ltpFR2	0	13	JUDGE	761	n/a	n/a	0	0	0
2942847	WORD	wordpools/wasnorm_wordpool_576.txt	LTP371	ltpFR2	0	13	COUNTY	389	n/a	n/a	0	0	0
2944463	START	n/a	LTP371	ltpFR2	0	n/a	n/a	n/a	19	n/a	n/a	n/a	n/a
2945443	DISTRACTOR	n/a	LTP371	ltpFR2	0	13	n/a	n/a	n/a	n/a	0	0	0
2945446	PROB	n/a	LTP371	ltpFR2	0	n/a	n/a	n/a	19	12	4	5	3
2947328	PROB	n/a	LTP371	ltpFR2	0	n/a	n/a	n/a	19	14	5	5	4
2948595	PROB	n/a	LTP371	ltpFR2	0	n/a	n/a	n/a	19	19	8	2	9
2950910	PROB	n/a	LTP371	ltpFR2	0	n/a	n/a	n/a	19	18	7	6	5
2952660	PROB	n/a	LTP371	ltpFR2	0	n/a	n/a	n/a	19	8	1	4	3
2953992	PROB	n/a	LTP371	ltpFR2	0	n/a	n/a	n/a	19	15	6	3	6
2955675	PROB	n/a	LTP371	ltpFR2	0	n/a	n/a	n/a	19	15	2	8	7
2957758	PROB	n/a	LTP371	ltpFR2	0	n/a	n/a	n/a	19	18	4	8	6
2960590	PROB	n/a	LTP371	ltpFR2	0	n/a	n/a	n/a	19	22	6	9	7
2962705	PROB	n/a	LTP371	ltpFR2	0	n/a	n/a	n/a	19	19	9	5	5
2964254	PROB	n/a	LTP371	ltpFR2	0	n/a	n/a	n/a	19	17	9	4	1
2968462	STOP	n/a	LTP371	ltpFR2	0	n/a	n/a	n/a	19	n/a	n/a	n/a	n/a
2970218	REC_START	n/a	LTP371	ltpFR2	0	13	n/a	n/a	n/a	n/a	0	0	0
2970774	REC_WORD	wordpools/wasnorm_wordpool_576.txt	LTP371	ltpFR2	0	13	FLEET	578	n/a	n/a	0	0	0
2971841	REC_WORD	wordpools/wasnorm_wordpool_576.txt	LTP371	ltpFR2	0	13	PATROL	1027	n/a	n/a	0	0	0
2979306	REC_WORD	wordpools/wasnorm_wordpool_576.txt	LTP371	ltpFR2	0	13	LEG	809	n/a	n/a	0	0	0
2981221	REC_WORD	wordpools/wasnorm_wordpool_576.txt	LTP371	ltpFR2	0	13	WITNESS	1618	n/a	n/a	0	0	0
2982750	REC_WORD	wordpools/wasnorm_wordpool_576.txt	LTP371	ltpFR2	0	13	LUMBER	848	n/a	n/a	0	0	0
2984253	REC_WORD	wordpools/wasnorm_wordpool_576.txt	LTP371	ltpFR2	0	13	DRESS	495	n/a	n/a	0	0	0
2985721	REC_WORD	wordpools/wasnorm_wordpool_576.txt	LTP371	ltpFR2	0	13	DANCER	437	n/a	n/a	0	0	0
2987238	REC_WORD	wordpools/wasnorm_wordpool_576.txt	LTP371	ltpFR2	0	13	GANGSTER	620	n/a	n/a	0	0	0
2989261	REC_WORD	wordpools/wasnorm_wordpool_576.txt	LTP371	ltpFR2	0	13	MOP	916	n/a	n/a	0	0	0
2995146	REC_WORD	wordpools/wasnorm_wordpool_576.txt	LTP371	ltpFR2	0	13	JUDGE	761	n/a	n/a	0	0	0
2996434	REC_WORD	wordpools/wasnorm_wordpool_576.txt	LTP371	ltpFR2	0	13	LABEL	790	n/a	n/a	0	0	0
3010434	REC_WORD	wordpools/wasnorm_wordpool_576.txt	LTP371	ltpFR2	0	13	CUSTARD	429	n/a	n/a	0	0	0
3013084	REC_WORD	wordpools/wasnorm_wordpool_576.txt	LTP371	ltpFR2	0	13	OMELET	976	n/a	n/a	0	0	0
3014489	REC_WORD	wordpools/wasnorm_wordpool_576.txt	LTP371	ltpFR2	0	13	PARSLEY	1016	n/a	n/a	0	0	0
3016098	REC_WORD	wordpools/wasnorm_wordpool_576.txt	LTP371	ltpFR2	0	13	RADISH	1158	n/a	n/a	0	0	0
3017437	REC_WORD	wordpools/wasnorm_wordpool_576.txt	LTP371	ltpFR2	0	13	CABBAGE	210	n/a	n/a	0	0	0
3019663	REC_WORD	wordpools/wasnorm_wordpool_576.txt	LTP371	ltpFR2	0	13	POWDER	1117	n/a	n/a	0	0	0
3060693	DISTRACTOR	n/a	LTP371	ltpFR2	0	14	n/a	n/a	n/a	n/a	0	0	0
3060693	START	n/a	LTP371	ltpFR2	0	n/a	n/a	n/a	20	n/a	n/a	n/a	n/a
3060710	PROB	n/a	LTP371	ltpFR2	0	n/a	n/a	n/a	20	10	3	2	4
3063258	PROB	n/a	LTP371	ltpFR2	0	n/a	n/a	n/a	20	9	2	1	6
3066056	PROB	n/a	LTP371	ltpFR2	0	n/a	n/a	n/a	20	19	7	5	7
3068773	PROB	n/a	LTP371	ltpFR2	0	n/a	n/a	n/a	20	11	4	4	3
3070555	PROB	n/a	LTP371	ltpFR2	0	n/a	n/a	n/a	20	19	9	2	8
3072220	PROB	n/a	LTP371	ltpFR2	0	n/a	n/a	n/a	20	16	7	5	4
3074169	PROB	n/a	LTP371	ltpFR2	0	n/a	n/a	n/a	20	15	7	2	6
3077134	PROB	n/a	LTP371	ltpFR2	0	n/a	n/a	n/a	20	12	4	2	6
3079250	PROB	n/a	LTP371	ltpFR2	0	n/a	n/a	n/a	20	10	1	3	6
3080800	PROB	n/a	LTP371	ltpFR2	0	n/a	n/a	n/a	20	8	2	3	3
3084693	STOP	n/a	LTP371	ltpFR2	0	n/a	n/a	n/a	20	n/a	n/a	n/a	n/a
3085880	WORD	wordpools/wasnorm_wordpool_576.txt	LTP371	ltpFR2	0	14	ROCKET	1202	n/a	n/a	0	0	0
3088446	WORD	wordpools/wasnorm_wordpool_576.txt	LTP371	ltpFR2	0	14	NIGHTGOWN	953	n/a	n/a	0	0	0
3090978	WORD	wordpools/wasnorm_wordpool_576.txt	LTP371	ltpFR2	0	14	ZIPPER	1636	n/a	n/a	0	0	0
3093427	WORD	wordpools/wasnorm_wordpool_576.txt	LTP371	ltpFR2	0	14	BUCKET	184	n/a	n/a	0	0	0
3095876	WORD	wordpools/wasnorm_wordpool_576.txt	LTP371	ltpFR2	0	14	SIBLING	1301	n/a	n/a	0	0	0
3098475	WORD	wordpools/wasnorm_wordpool_576.txt	LTP371	ltpFR2	0	14	AUTHOR	61	n/a	n/a	0	0	0
3101157	WORD	wordpools/wasnorm_wordpool_576.txt	LTP371	ltpFR2	0	14	STATUE	1374	n/a	n/a	0	0	0
3103839	WORD	wordpools/wasnorm_wordpool_576.txt	LTP371	ltpFR2	0	14	BULLET	194	n/a	n/a	0	0	0
3106522	WORD	wordpools/wasnorm_wordpool_576.txt	LTP371	ltpFR2	0	14	RIFLE	1192	n/a	n/a	0	0	0
3109153	WORD	wordpools/wasnorm_wordpool_576.txt	LTP371	ltpFR2	0	14	DRAWING	494	n/a	n/a	0	0	0
3111686	WORD	wordpools/wasnorm_wordpool_576.txt	LTP371	ltpFR2	0	14	MARKER	870	n/a	n/a	0	0	0
3114317	WORD	wordpools/wasnorm_wordpool_576.txt	LTP371	ltpFR2	0	14	MISSILE	900	n/a	n/a	0	0	0
3116800	WORD	wordpools/wasnorm_wordpool_576.txt	LTP371	ltpFR2	0	14	HORNET	718	n/a	n/a	0	0	0
3119599	WORD	wordpools/wasnorm_wordpool_576.txt	LTP371	ltpFR2	0	14	SHOVEL	1295	n/a	n/a	0	0	0
3122164	WORD	wordpools/wasnorm_wordpool_576.txt	LTP371	ltpFR2	0	14	DASHBOARD	441	n/a	n/a	0	0	0
3124680	WORD	wordpools/wasnorm_wordpool_576.txt	LTP371	ltpFR2	0	14	PEANUT	1032	n/a	n/a	0	0	0
3127428	WORD	wordpools/wasnorm_wordpool_576.txt	LTP371	ltpFR2	0	14	ULCER	1533	n/a	n/a	0	0	0
3130160	WORD	wordpools/wasnorm_wordpool_576.txt	LTP371	ltpFR2	0	14	PERFUME	1049	n/a	n/a	0	0	0
3132593	WORD	wordpools/wasnorm_wordpool_576.txt	LTP371	ltpFR2	0	14	CONTRACT	368	n/a	n/a	0	0	0
3135307	WORD	wordpools/wasnorm_wordpool_576.txt	LTP371	ltpFR2	0	14	CASHEW	253	n/a	n/a	0	0	0
3138006	WORD	wordpools/wasnorm_wordpool_576.txt	LTP371	ltpFR2	0	14	MILDEW	893	n/a	n/a	0	0	0
3140772	WORD	wordpools/wasnorm_wordpool_576.txt	LTP371	ltpFR2	0	14	KEEPER	769	n/a	n/a	0	0	0
3143320	WORD	wordpools/wasnorm_wordpool_576.txt	LTP371	ltpFR2	0	14	DAUGHTER	442	n/a	n/a	0	0	0
3146102	WORD	wordpools/wasnorm_wordpool_576.txt	LTP371	ltpFR2	0	14	TRENCH	1503	n/a	n/a	0	0	0
3147720	START	n/a	LTP371	ltpFR2	0	n/a	n/a	n/a	21	n/a	n/a	n/a	n/a
3148729	DISTRACTOR	n/a	LTP371	ltpFR2	0	14	n/a	n/a	n/a	n/a	0	0	0
3148735	PROB	n/a	LTP371	ltpFR2	0	n/a	n/a	n/a	21	19	9	6	4
3151966	PROB	n/a	LTP371	ltpFR2	0	n/a	n/a	n/a	21	11	1	4	6
3154215	PROB	n/a	LTP371	ltpFR2	0	n/a	n/a	n/a	21	7	4	2	1
3156214	PROB	n/a	LTP371	ltpFR2	0	n/a	n/a	n/a	21	10	1	3	6
3158030	PROB	n/a	LTP371	ltpFR2	0	n/a	n/a	n/a	21	10	4	5	1
3159530	PROB	n/a	LTP371	ltpFR2	0	n/a	n/a	n/a	21	16	2	7	7
3160929	PROB	n/a	LTP371	ltpFR2	0	n/a	n/a	n/a	21	9	1	4	4
3162128	PROB	n/a	LTP371	ltpFR2	0	n/a	n/a	n/a	21	18	6	7	5
3165277	PROB	n/a	LTP371	ltpFR2	0	n/a	n/a	n/a	21	18	8	1	9
3167392	PROB	n/a	LTP371	ltpFR2	0	n/a	n/a	n/a	21	11	1	9	1
3168759	PROB	n/a	LTP371	ltpFR2	0	n/a	n/a	n/a	21	14	9	3	2
3170209	STOP	n/a	LTP371	ltpFR2	0	n/a	n/a	n/a	21	n/a	n/a	n/a	n/a
3173474	REC_START	n/a	LTP371	ltpFR2	0	14	n/a	n/a	n/a	n/a	0	0	0
3174121	REC_WORD	wordpools/wasnorm_wordpool_576.txt	LTP371	ltpFR2	0	14	TRENCH	1503	n/a	n/a	0	0	0
3175709	REC_WORD	wordpools/wasnorm_wordpool_576.txt	LTP371	ltpFR2	0	14	DAUGHTER	442	n/a	n/a	0	0	0
3177140	REC_WORD	wordpools/wasnorm_wordpool_576.txt	LTP371	ltpFR2	0	14	KEEPER	769	n/a	n/a	0	0	0
3178586	REC_WORD	wordpools/wasnorm_wordpool_576.txt	LTP371	ltpFR2	0	14	SIBLING	1301	n/a	n/a	0	0	0
3180553	REC_WORD	wordpools/wasnorm_wordpool_576.txt	LTP371	ltpFR2	0	14	BUCKET	184	n/a	n/a	0	0	0
3182499	REC_WORD	wordpools/wasnorm_wordpool_576.txt	LTP371	ltpFR2	0	14	ROCKET	1202	n/a	n/a	0	0	0
3184469	REC_WORD	wordpools/wasnorm_wordpool_576.txt	LTP371	ltpFR2	0	14	MISSILE	900	n/a	n/a	0	0	0
3187119	REC_WORD	wordpools/wasnorm_wordpool_576.txt	LTP371	ltpFR2	0	14	RIFLE	1192	n/a	n/a	0	0	0
3189089	REC_WORD	wordpools/wasnorm_wordpool_576.txt	LTP371	ltpFR2	0	14	DRAWING	494	n/a	n/a	0	0	0
3191453	REC_WORD	wordpools/wasnorm_wordpool_576.txt	LTP371	ltpFR2	0	14	MARKER	870	n/a	n/a	0	0	0
3199607	REC_WORD	wordpools/wasnorm_wordpool_576.txt	LTP371	ltpFR2	0	14	NIGHTGOWN	953	n/a	n/a	0	0	0
3205263	REC_WORD	wordpools/wasnorm_wordpool_576.txt	LTP371	ltpFR2	0	14	ULCER	1533	n/a	n/a	0	0	0
3213262	REC_WORD	wordpools/wasnorm_wordpool_576.txt	LTP371	ltpFR2	0	14	MILDEW	893	n/a	n/a	0	0	0
3247891	REC_WORD	wordpools/wasnorm_wordpool_576.txt	LTP371	ltpFR2	0	14	ZIPPER	1636	n/a	n/a	0	0	0
3263914	DISTRACTOR	n/a	LTP371	ltpFR2	0	15	n/a	n/a	n/a	n/a	0	0	0
3263914	START	n/a	LTP371	ltpFR2	0	n/a	n/a	n/a	22	n/a	n/a	n/a	n/a
3263931	PROB	n/a	LTP371	ltpFR2	0	n/a	n/a	n/a	22	11	5	3	3
3266480	PROB	n/a	LTP371	ltpFR2	0	n/a	n/a	n/a	22	19	8	5	6
3267979	PROB	n/a	LTP371	ltpFR2	0	n/a	n/a	n/a	22	12	7	2	3
3269428	PROB	n/a	LTP371	ltpFR2	0	n/a	n/a	n/a	22	8	1	6	1
3270695	PROB	n/a	LTP371	ltpFR2	0	n/a	n/a	n/a	22	19	9	5	5
3272010	PROB	n/a	LTP371	ltpFR2	0	n/a	n/a	n/a	22	20	9	2	9
3274326	PROB	n/a	LTP371	ltpFR2	0	n/a	n/a	n/a	22	19	4	9	6
3276059	PROB	n/a	LTP371	ltpFR2	0	n/a	n/a	n/a	22	20	2	9	9
3277709	PROB	n/a	LTP371	ltpFR2	0	n/a	n/a	n/a	22	11	3	4	1
3279424	PROB	n/a	LTP371	ltpFR2	0	n/a	n/a	n/a	22	17	3	8	6
3282089	PROB	n/a	LTP371	ltpFR2	0	n/a	n/a	n/a	22	23	7	7	9
3284488	PROB	n/a	LTP371	ltpFR2	0	n/a	n/a	n/a	22	10	2	5	3
3285971	PROB	n/a	LTP371	ltpFR2	0	n/a	n/a	n/a	22	14	4	1	9
3287317	STOP	n/a	LTP371	ltpFR2	0	n/a	n/a	n/a	22	n/a	n/a	n/a	n/a
3289002	WORD	wordpools/wasnorm_wordpool_576.txt	LTP371	ltpFR2	0	15	SLUG	1329	n/a	n/a	0	0	0
3291636	WORD	wordpools/wasnorm_wordpool_576.txt	LTP371	ltpFR2	0	15	PERMIT	1051	n/a	n/a	0	0	0
3294067	WORD	wordpools/wasnorm_wordpool_576.txt	LTP371	ltpFR2	0	15	CROWN	415	n/a	n/a	0	0	0
3296882	WORD	wordpools/wasnorm_wordpool_576.txt	LTP371	ltpFR2	0	15	POISON	1096	n/a	n/a	0	0	0
3299549	WORD	wordpools/wasnorm_wordpool_576.txt	LTP371	ltpFR2	0	15	WASHER	1592	n/a	n/a	0	0	0
3302230	WORD	wordpools/wasnorm_wordpool_576.txt	LTP371	ltpFR2	0	15	GALLON	618	n/a	n/a	0	0	0
3304746	WORD	wordpools/wasnorm_wordpool_576.txt	LTP371	ltpFR2	0	15	BEAVER	109	n/a	n/a	0	0	0
3307194	WORD	wordpools/wasnorm_wordpool_576.txt	LTP371	ltpFR2	0	15	OINTMENT	974	n/a	n/a	0	0	0
3309810	WORD	wordpools/wasnorm_wordpool_576.txt	LTP371	ltpFR2	0	15	BUREAU	199	n/a	n/a	0	0	0
3312442	WORD	wordpools/wasnorm_wordpool_576.txt	LTP371	ltpFR2	0	15	LIGHTNING	820	n/a	n/a	0	0	0
3315107	WORD	wordpools/wasnorm_wordpool_576.txt	LTP371	ltpFR2	0	15	CURTAIN	427	n/a	n/a	0	0	0
3317740	WORD	wordpools/wasnorm_wordpool_576.txt	LTP371	ltpFR2	0	15	MARINE	869	n/a	n/a	0	0	0
3320271	WORD	wordpools/wasnorm_wordpool_576.txt	LTP371	ltpFR2	0	15	STREAM	1392	n/a	n/a	0	0	0
3323020	WORD	wordpools/wasnorm_wordpool_576.txt	LTP371	ltpFR2	0	15	EGYPT	519	n/a	n/a	0	0	0
3325452	WORD	wordpools/wasnorm_wordpool_576.txt	LTP371	ltpFR2	0	15	TEMPLE	1448	n/a	n/a	0	0	0
3328268	WORD	wordpools/wasnorm_wordpool_576.txt	LTP371	ltpFR2	0	15	TYPIST	1532	n/a	n/a	0	0	0
3330983	WORD	wordpools/wasnorm_wordpool_576.txt	LTP371	ltpFR2	0	15	DAISY	435	n/a	n/a	0	0	0
3333683	WORD	wordpools/wasnorm_wordpool_576.txt	LTP371	ltpFR2	0	15	HEDGE	699	n/a	n/a	0	0	0
3336497	WORD	wordpools/wasnorm_wordpool_576.txt	LTP371	ltpFR2	0	15	SUITCASE	1403	n/a	n/a	0	0	0
3339212	WORD	wordpools/wasnorm_wordpool_576.txt	LTP371	ltpFR2	0	15	THIEF	1456	n/a	n/a	0	0	0
3341828	WORD	wordpools/wasnorm_wordpool_576.txt	LTP371	ltpFR2	0	15	TURTLE	1522	n/a	n/a	0	0	0
3344628	WORD	wordpools/wasnorm_wordpool_576.txt	LTP371	ltpFR2	0	15	HATCHET	691	n/a	n/a	0	0	0
3347225	WORD	wordpools/wasnorm_wordpool_576.txt	LTP371	ltpFR2	0	15	LAPEL	800	n/a	n/a	0	0	0
3349874	WORD	wordpools/wasnorm_wordpool_576.txt	LTP371	ltpFR2	0	15	LILY	821	n/a	n/a	0	0	0
3351490	START	n/a	LTP371	ltpFR2	0	n/a	n/a	n/a	23	n/a	n/a	n/a	n/a
3352419	DISTRACTOR	n/a	LTP371	ltpFR2	0	15	n/a	n/a	n/a	n/a	0	0	0
3352423	PROB	n/a	LTP371	ltpFR2	0	n/a	n/a	n/a	23	21	6	8	7
3355288	PROB	n/a	LTP371	ltpFR2	0	n/a	n/a	n/a	23	12	3	6	3
3356655	PROB	n/a	LTP371	ltpFR2	0	n/a	n/a	n/a	23	18	5	5	8
3358120	PROB	n/a	LTP371	ltpFR2	0	n/a	n/a	n/a	23	15	2	6	7
3361086	PROB	n/a	LTP371	ltpFR2	0	n/a	n/a	n/a	23	15	5	7	3
3362603	PROB	n/a	LTP371	ltpFR2	0	n/a	n/a	n/a	23	12	5	6	1
3364552	PROB	n/a	LTP371	ltpFR2	0	n/a	n/a	n/a	23	9	3	3	3
3365784	PROB	n/a	LTP371	ltpFR2	0	n/a	n/a	n/a	23	10	3	1	6
3368099	PROB	n/a	LTP371	ltpFR2	0	n/a	n/a	n/a	23	13	2	7	4
3370198	PROB	n/a	LTP371	ltpFR2	0	n/a	n/a	n/a	23	13	2	8	3
3372681	PROB	n/a	LTP371	ltpFR2	0	n/a	n/a	n/a	23	15	7	7	1
3373983	STOP	n/a	LTP371	ltpFR2	0	n/a	n/a	n/a	23	n/a	n/a	n/a	n/a
3377395	REC_START	n/a	LTP371	ltpFR2	0	15	n/a	n/a	n/a	n/a	0	0	0
3378037	REC_WORD	wordpools/wasnorm_wordpool_576.txt	LTP371	ltpFR2	0	15	LAPEL	800	n/a	n/a	0	0	0
3379250	REC_WORD	wordpools/wasnorm_wordpool_576.txt	LTP371	ltpFR2	0	15	HATCHET	691	n/a	n/a	0	0	0
3381867	REC_WORD	wordpools/wasnorm_wordpool_576.txt	LTP371	ltpFR2	0	15	BEAVER	109	n/a	n/a	0	0	0
3382760	REC_WORD	wordpools/wasnorm_wordpool_576.txt	LTP371	ltpFR2	0	15	SLUG	1329	n/a	n/a	0	0	0
3384029	REC_WORD	wordpools/wasnorm_wordpool_576.txt	LTP371	ltpFR2	0	15	TURTLE	1522	n/a	n/a	0	0	0
3386990	REC_WORD	wordpools/wasnorm_wordpool_576.txt	LTP371	ltpFR2	0	15	OINTMENT	974	n/a	n/a	0	0	0
3395143	REC_WORD	wordpools/wasnorm_wordpool_576.txt	LTP371	ltpFR2	0	15	PERMIT	1051	n/a	n/a	0	0	0
3405349	REC_WORD	wordpools/wasnorm_wordpool_576.txt	LTP371	ltpFR2	0	15	DAISY	435	n/a	n/a	0	0	0
3406745	REC_WORD	wordpools/wasnorm_wordpool_576.txt	LTP371	ltpFR2	0	15	EGYPT	519	n/a	n/a	0	0	0
3408169	REC_WORD	wordpools/wasnorm_wordpool_576.txt	LTP371	ltpFR2	0	15	MARINE	869	n/a	n/a	0	0	0
3409746	REC_WORD	wordpools/wasnorm_wordpool_576.txt	LTP371	ltpFR2	0	15	LILY	821	n/a	n/a	0	0	0
3411311	REC_WORD	wordpools/wasnorm_wordpool_576.txt	LTP371	ltpFR2	0	15	TYPIST	1532	n/a	n/a	0	0	0
3415379	REC_WORD	wordpools/wasnorm_wordpool_576.txt	LTP371	ltpFR2	0	15	STREAM	1392	n/a	n/a	0	0	0
3427505	REC_WORD	wordpools/wasnorm_wordpool_576.txt	LTP371	ltpFR2	0	15	TEMPLE	1448	n/a	n/a	0	0	0
3486977	WORD	wordpools/wasnorm_wordpool_576.txt	LTP371	ltpFR2	0	16	MONSTER	912	n/a	n/a	0	0	0
3489760	WORD	wordpools/wasnorm_wordpool_576.txt	LTP371	ltpFR2	0	16	SCULPTURE	1258	n/a	n/a	0	0	0
3492408	WORD	wordpools/wasnorm_wordpool_576.txt	LTP371	ltpFR2	0	16	DUSTPAN	509	n/a	n/a	0	0	0
3494873	WORD	wordpools/wasnorm_wordpool_576.txt	LTP371	ltpFR2	0	16	SPARROW	1347	n/a	n/a	0	0	0
3497322	WORD	wordpools/wasnorm_wordpool_576.txt	LTP371	ltpFR2	0	16	SALMON	1227	n/a	n/a	0	0	0
3500021	WORD	wordpools/wasnorm_wordpool_576.txt	LTP371	ltpFR2	0	16	FLIPPER	580	n/a	n/a	0	0	0
3502470	WORD	wordpools/wasnorm_wordpool_576.txt	LTP371	ltpFR2	0	16	EMPIRE	530	n/a	n/a	0	0	0
3504952	WORD	wordpools/wasnorm_wordpool_576.txt	LTP371	ltpFR2	0	16	CLOCK	325	n/a	n/a	0	0	0
3507535	WORD	wordpools/wasnorm_wordpool_576.txt	LTP371	ltpFR2	0	16	JEANS	752	n/a	n/a	0	0	0
3510233	WORD	wordpools/wasnorm_wordpool_576.txt	LTP371	ltpFR2	0	16	COUCH	386	n/a	n/a	0	0	0
3512799	WORD	wordpools/wasnorm_wordpool_576.txt	LTP371	ltpFR2	0	16	TABLE	1426	n/a	n/a	0	0	0
3515314	WORD	wordpools/wasnorm_wordpool_576.txt	LTP371	ltpFR2	0	16	SKIRT	1319	n/a	n/a	0	0	0
3518129	WORD	wordpools/wasnorm_wordpool_576.txt	LTP371	ltpFR2	0	16	CRAYON	401	n/a	n/a	0	0	0
3520828	WORD	wordpools/wasnorm_wordpool_576.txt	LTP371	ltpFR2	0	16	PASSAGE	1019	n/a	n/a	0	0	0
3523410	WORD	wordpools/wasnorm_wordpool_576.txt	LTP371	ltpFR2	0	16	BINDER	127	n/a	n/a	0	0	0
3526009	WORD	wordpools/wasnorm_wordpool_576.txt	LTP371	ltpFR2	0	16	SHORTS	1293	n/a	n/a	0	0	0
3528742	WORD	wordpools/wasnorm_wordpool_576.txt	LTP371	ltpFR2	0	16	STICKER	1382	n/a	n/a	0	0	0
3531473	WORD	wordpools/wasnorm_wordpool_576.txt	LTP371	ltpFR2	0	16	CAPTIVE	240	n/a	n/a	0	0	0
3534138	WORD	wordpools/wasnorm_wordpool_576.txt	LTP371	ltpFR2	0	16	BLOUSE	139	n/a	n/a	0	0	0
3536638	WORD	wordpools/wasnorm_wordpool_576.txt	LTP371	ltpFR2	0	16	GRAVEL	659	n/a	n/a	0	0	0
3539086	WORD	wordpools/wasnorm_wordpool_576.txt	LTP371	ltpFR2	0	16	DOUGHNUT	490	n/a	n/a	0	0	0
3541818	WORD	wordpools/wasnorm_wordpool_576.txt	LTP371	ltpFR2	0	16	WORKER	1621	n/a	n/a	0	0	0
3544284	WORD	wordpools/wasnorm_wordpool_576.txt	LTP371	ltpFR2	0	16	PIMPLE	1071	n/a	n/a	0	0	0
3546800	WORD	wordpools/wasnorm_wordpool_576.txt	LTP371	ltpFR2	0	16	TRANSPLANT	1496	n/a	n/a	0	0	0
3548415	START	n/a	LTP371	ltpFR2	0	n/a	n/a	n/a	24	n/a	n/a	n/a	n/a
3549563	DISTRACTOR	n/a	LTP371	ltpFR2	0	16	n/a	n/a	n/a	n/a	0	0	0
3549566	PROB	n/a	LTP371	ltpFR2	0	n/a	n/a	n/a	24	14	4	6	4
3551531	PROB	n/a	LTP371	ltpFR2	0	n/a	n/a	n/a	24	19	9	7	3
3552946	PROB	n/a	LTP371	ltpFR2	0	n/a	n/a	n/a	24	12	4	3	5
3554630	PROB	n/a	LTP371	ltpFR2	0	n/a	n/a	n/a	24	16	5	9	2
3556178	PROB	n/a	LTP371	ltpFR2	0	n/a	n/a	n/a	24	13	9	3	1
3557944	PROB	n/a	LTP371	ltpFR2	0	n/a	n/a	n/a	24	17	7	8	2
3559644	PROB	n/a	LTP371	ltpFR2	0	n/a	n/a	n/a	24	7	1	3	3
3560959	PROB	n/a	LTP371	ltpFR2	0	n/a	n/a	n/a	24	21	8	4	9
3562975	PROB	n/a	LTP371	ltpFR2	0	n/a	n/a	n/a	24	13	9	6	6
3564792	PROB	n/a	LTP371	ltpFR2	0	n/a	n/a	n/a	24	15	9	5	1
3567006	PROB	n/a	LTP371	ltpFR2	0	n/a	n/a	n/a	24	25	8	9	8
3569838	PROB	n/a	LTP371	ltpFR2	0	n/a	n/a	n/a	24	12	3	6	3
3571958	STOP	n/a	LTP371	ltpFR2	0	n/a	n/a	n/a	24	n/a	n/a	n/a	n/a
3574187	REC_START	n/a	LTP371	ltpFR2	0	16	n/a	n/a	n/a	n/a	0	0	0
3574722	REC_WORD	wordpools/wasnorm_wordpool_576.txt	LTP371	ltpFR2	0	16	PIMPLE	1071	n/a	n/a	0	0	0
3576055	REC_WORD	wordpools/wasnorm_wordpool_576.txt	LTP371	ltpFR2	0	16	TRANSPLANT	1496	n/a	n/a	0	0	0
3578004	REC_WORD	wordpools/wasnorm_wordpool_576.txt	LTP371	ltpFR2	0	16	JEANS	752	n/a	n/a	0	0	0
3579135	REC_WORD	wordpools/wasnorm_wordpool_576.txt	LTP371	ltpFR2	0	16	SKIRT	1319	n/a	n/a	0	0	0
3580619	REC_WORD	wordpools/wasnorm_wordpool_576.txt	LTP371	ltpFR2	0	16	BLOUSE	139	n/a	n/a	0	0	0
3582154	REC_WORD	wordpools/wasnorm_wordpool_576.txt	LTP371	ltpFR2	0	16	CLOCK	325	n/a	n/a	0	0	0
3585543	REC_WORD	wordpools/wasnorm_wordpool_576.txt	LTP371	ltpFR2	0	16	PASSAGE	1019	n/a	n/a	0	0	0
3586921	REC_WORD	wordpools/wasnorm_wordpool_576.txt	LTP371	ltpFR2	0	16	CRAYON	401	n/a	n/a	0	0	0
3588409	REC_WORD	wordpools/wasnorm_wordpool_576.txt	LTP371	ltpFR2	0	16	BINDER	127	n/a	n/a	0	0	0
3589736	REC_WORD	wordpools/wasnorm_wordpool_576.txt	LTP371	ltpFR2	0	16	STICKER	1382	n/a	n/a	0	0	0
3595688	REC_WORD	wordpools/wasnorm_wordpool_576.txt	LTP371	ltpFR2	0	16	WORKER	1621	n/a	n/a	0	0	0
3597074	REC_WORD	wordpools/wasnorm_wordpool_576.txt	LTP371	ltpFR2	0	16	DOUGHNUT	490	n/a	n/a	0	0	0
3604787	REC_WORD	wordpools/wasnorm_wordpool_576.txt	LTP371	ltpFR2	0	16	COUCH	386	n/a	n/a	0	0	0
3608323	REC_WORD	wordpools/wasnorm_wordpool_576.txt	LTP371	ltpFR2	0	16	TABLE	1426	n/a	n/a	0	0	0
3620480	REC_WORD	wordpools/wasnorm_wordpool_576.txt	LTP371	ltpFR2	0	16	SALMON	1227	n/a	n/a	0	0	0
3623248	REC_WORD	wordpools/wasnorm_wordpool_576.txt	LTP371	ltpFR2	0	16	FLIPPER	580	n/a	n/a	0	0	0
3625984	REC_WORD	wordpools/wasnorm_wordpool_576.txt	LTP371	ltpFR2	0	16	SPARROW	1347	n/a	n/a	0	0	0
3629513	REC_WORD	wordpools/wasnorm_wordpool_576.txt	LTP371	ltpFR2	0	16	DUSTPAN	509	n/a	n/a	0	0	0
3631095	REC_WORD	wordpools/wasnorm_wordpool_576.txt	LTP371	ltpFR2	0	16	MONSTER	912	n/a	n/a	0	0	0
3650735	REST_REWET	n/a	LTP371	ltpFR2	0	16	n/a	n/a	n/a	n/a	0	0	0
4121749	WORD	wordpools/wasnorm_wordpool_576.txt	LTP371	ltpFR2	0	17	BANQUET	86	n/a	n/a	0	0	0
4124297	WORD	wordpools/wasnorm_wordpool_576.txt	LTP371	ltpFR2	0	17	SNAKE	1333	n/a	n/a	0	0	0
4126780	WORD	wordpools/wasnorm_wordpool_576.txt	LTP371	ltpFR2	0	17	FOREST	593	n/a	n/a	0	0	0
4129478	WORD	wordpools/wasnorm_wordpool_576.txt	LTP371	ltpFR2	0	17	MAPLE	866	n/a	n/a	0	0	0
4132143	WORD	wordpools/wasnorm_wordpool_576.txt	LTP371	ltpFR2	0	17	WAITER	1580	n/a	n/a	0	0	0
4134925	WORD	wordpools/wasnorm_wordpool_576.txt	LTP371	ltpFR2	0	17	PISTOL	1075	n/a	n/a	0	0	0
4137742	WORD	wordpools/wasnorm_wordpool_576.txt	LTP371	ltpFR2	0	17	BACON	67	n/a	n/a	0	0	0
4140173	WORD	wordpools/wasnorm_wordpool_576.txt	LTP371	ltpFR2	0	17	COURSE	390	n/a	n/a	0	0	0
4142855	WORD	wordpools/wasnorm_wordpool_576.txt	LTP371	ltpFR2	0	17	DORM	488	n/a	n/a	0	0	0
4145321	WORD	wordpools/wasnorm_wordpool_576.txt	LTP371	ltpFR2	0	17	PUDDLE	1140	n/a	n/a	0	0	0
4148086	WORD	wordpools/wasnorm_wordpool_576.txt	LTP371	ltpFR2	0	17	ORCHID	982	n/a	n/a	0	0	0
4150653	WORD	wordpools/wasnorm_wordpool_576.txt	LTP371	ltpFR2	0	17	VENUS	1557	n/a	n/a	0	0	0
4153150	WORD	wordpools/wasnorm_wordpool_576.txt	LTP371	ltpFR2	0	17	PORK	1108	n/a	n/a	0	0	0
4155916	WORD	wordpools/wasnorm_wordpool_576.txt	LTP371	ltpFR2	0	17	LAKE	796	n/a	n/a	0	0	0
4158515	WORD	wordpools/wasnorm_wordpool_576.txt	LTP371	ltpFR2	0	17	THREAD	1460	n/a	n/a	0	0	0
4161313	WORD	wordpools/wasnorm_wordpool_576.txt	LTP371	ltpFR2	0	17	MEDAL	885	n/a	n/a	0	0	0
4164062	WORD	wordpools/wasnorm_wordpool_576.txt	LTP371	ltpFR2	0	17	DONOR	485	n/a	n/a	0	0	0
4166511	WORD	wordpools/wasnorm_wordpool_576.txt	LTP371	ltpFR2	0	17	SPONGE	1355	n/a	n/a	0	0	0
4169210	WORD	wordpools/wasnorm_wordpool_576.txt	LTP371	ltpFR2	0	17	BROOK	177	n/a	n/a	0	0	0
4171892	WORD	wordpools/wasnorm_wordpool_576.txt	LTP371	ltpFR2	0	17	WARDROBE	1587	n/a	n/a	0	0	0
4174474	WORD	wordpools/wasnorm_wordpool_576.txt	LTP371	ltpFR2	0	17	CLOTHES	327	n/a	n/a	0	0	0
4177189	WORD	wordpools/wasnorm_wordpool_576.txt	LTP371	ltpFR2	0	17	LACE	792	n/a	n/a	0	0	0
4179888	WORD	wordpools/wasnorm_wordpool_576.txt	LTP371	ltpFR2	0	17	CANAL	226	n/a	n/a	0	0	0
4182571	WORD	wordpools/wasnorm_wordpool_576.txt	LTP371	ltpFR2	0	17	PATIENT	1024	n/a	n/a	0	0	0
4184186	START	n/a	LTP371	ltpFR2	0	n/a	n/a	n/a	25	n/a	n/a	n/a	n/a
4185048	DISTRACTOR	n/a	LTP371	ltpFR2	0	17	n/a	n/a	n/a	n/a	0	0	0
4185052	PROB	n/a	LTP371	ltpFR2	0	n/a	n/a	n/a	25	14	4	7	3
4186818	PROB	n/a	LTP371	ltpFR2	0	n/a	n/a	n/a	25	23	9	5	9
4190534	PROB	n/a	LTP371	ltpFR2	0	n/a	n/a	n/a	25	18	5	9	4
4192465	PROB	n/a	LTP371	ltpFR2	0	n/a	n/a	n/a	25	20	6	9	5
4194682	PROB	n/a	LTP371	ltpFR2	0	n/a	n/a	n/a	25	20	9	8	3
4196664	PROB	n/a	LTP371	ltpFR2	0	n/a	n/a	n/a	25	11	2	1	8
4198213	PROB	n/a	LTP371	ltpFR2	0	n/a	n/a	n/a	25	18	4	7	7
4199862	PROB	n/a	LTP371	ltpFR2	0	n/a	n/a	n/a	25	9	2	2	5
4201311	PROB	n/a	LTP371	ltpFR2	0	n/a	n/a	n/a	25	19	9	7	3
4202728	PROB	n/a	LTP371	ltpFR2	0	n/a	n/a	n/a	25	19	9	3	7
4204210	PROB	n/a	LTP371	ltpFR2	0	n/a	n/a	n/a	25	18	4	5	9
4207321	STOP	n/a	LTP371	ltpFR2	0	n/a	n/a	n/a	25	n/a	n/a	n/a	n/a
4209941	REC_START	n/a	LTP371	ltpFR2	0	17	n/a	n/a	n/a	n/a	0	0	0
4210646	REC_WORD	wordpools/wasnorm_wordpool_576.txt	LTP371	ltpFR2	0	17	BROOK	177	n/a	n/a	0	0	0
4211921	REC_WORD	wordpools/wasnorm_wordpool_576.txt	LTP371	ltpFR2	0	17	PASSAGE	1019	n/a	n/a	0	0	0
4214037	REC_WORD	wordpools/wasnorm_wordpool_576.txt	LTP371	ltpFR2	0	17	CANAL	226	n/a	n/a	0	0	0
4215371	REC_WORD	wordpools/wasnorm_wordpool_576.txt	LTP371	ltpFR2	0	17	PATIENT	1024	n/a	n/a	0	0	0
4216831	REC_WORD	wordpools/wasnorm_wordpool_576.txt	LTP371	ltpFR2	0	17	VENUS	1557	n/a	n/a	0	0	0
4218273	REC_WORD	wordpools/wasnorm_wordpool_576.txt	LTP371	ltpFR2	0	17	ORCHID	982	n/a	n/a	0	0	0
4220634	REC_WORD	wordpools/wasnorm_wordpool_576.txt	LTP371	ltpFR2	0	17	WARDROBE	1587	n/a	n/a	0	0	0
4222131	REC_WORD	wordpools/wasnorm_wordpool_576.txt	LTP371	ltpFR2	0	17	LACE	792	n/a	n/a	0	0	0
4230671	REC_WORD	wordpools/wasnorm_wordpool_576.txt	LTP371	ltpFR2	0	17	SNAKE	1333	n/a	n/a	0	0	0
4231989	REC_WORD	wordpools/wasnorm_wordpool_576.txt	LTP371	ltpFR2	0	17	MEDAL	885	n/a	n/a	0	0	0
4234304	REC_WORD	wordpools/wasnorm_wordpool_576.txt	LTP371	ltpFR2	0	17	BANQUET	86	n/a	n/a	0	0	0
4236465	REC_WORD	wordpools/wasnorm_wordpool_576.txt	LTP371	ltpFR2	0	17	DORM	488	n/a	n/a	0	0	0
4239236	REC_WORD	wordpools/wasnorm_wordpool_576.txt	LTP371	ltpFR2	0	17	PUDDLE	1140	n/a	n/a	0	0	0
4249125	REC_WORD	wordpools/wasnorm_wordpool_576.txt	LTP371	ltpFR2	0	17	LAKE	796	n/a	n/a	0	0	0
4265043	REC_WORD	wordpools/wasnorm_wordpool_576.txt	LTP371	ltpFR2	0	17	FOREST	593	n/a	n/a	0	0	0
4300415	WORD	wordpools/wasnorm_wordpool_576.txt	LTP371	ltpFR2	0	18	ARMY	39	n/a	n/a	0	0	0
4303197	WORD	wordpools/wasnorm_wordpool_576.txt	LTP371	ltpFR2	0	18	TILE	1468	n/a	n/a	0	0	0
4305879	WORD	wordpools/wasnorm_wordpool_576.txt	LTP371	ltpFR2	0	18	CELLAR	267	n/a	n/a	0	0	0
4308662	WORD	wordpools/wasnorm_wordpool_576.txt	LTP371	ltpFR2	0	18	BASEMENT	94	n/a	n/a	0	0	0
4311343	WORD	wordpools/wasnorm_wordpool_576.txt	LTP371	ltpFR2	0	18	CATTLE	261	n/a	n/a	0	0	0
4314159	WORD	wordpools/wasnorm_wordpool_576.txt	LTP371	ltpFR2	0	18	CHIPMUNK	304	n/a	n/a	0	0	0
4316758	WORD	wordpools/wasnorm_wordpool_576.txt	LTP371	ltpFR2	0	18	CREATURE	403	n/a	n/a	0	0	0
4319240	WORD	wordpools/wasnorm_wordpool_576.txt	LTP371	ltpFR2	0	18	SWIMMER	1420	n/a	n/a	0	0	0
4322055	WORD	wordpools/wasnorm_wordpool_576.txt	LTP371	ltpFR2	0	18	COCOON	339	n/a	n/a	0	0	0
4324837	WORD	wordpools/wasnorm_wordpool_576.txt	LTP371	ltpFR2	0	18	STAKE	1368	n/a	n/a	0	0	0
4327353	WORD	wordpools/wasnorm_wordpool_576.txt	LTP371	ltpFR2	0	18	SCALLOP	1242	n/a	n/a	0	0	0
4329818	WORD	wordpools/wasnorm_wordpool_576.txt	LTP371	ltpFR2	0	18	COSTUME	383	n/a	n/a	0	0	0
4332535	WORD	wordpools/wasnorm_wordpool_576.txt	LTP371	ltpFR2	0	18	STALLION	1369	n/a	n/a	0	0	0
4334982	WORD	wordpools/wasnorm_wordpool_576.txt	LTP371	ltpFR2	0	18	ELBOW	520	n/a	n/a	0	0	0
4337765	WORD	wordpools/wasnorm_wordpool_576.txt	LTP371	ltpFR2	0	18	HARP	689	n/a	n/a	0	0	0
4340197	WORD	wordpools/wasnorm_wordpool_576.txt	LTP371	ltpFR2	0	18	SODA	1341	n/a	n/a	0	0	0
4342879	WORD	wordpools/wasnorm_wordpool_576.txt	LTP371	ltpFR2	0	18	SADDLE	1221	n/a	n/a	0	0	0
4345662	WORD	wordpools/wasnorm_wordpool_576.txt	LTP371	ltpFR2	0	18	FIDDLE	561	n/a	n/a	0	0	0
4348293	WORD	wordpools/wasnorm_wordpool_576.txt	LTP371	ltpFR2	0	18	WHISTLE	1606	n/a	n/a	0	0	0
4351108	WORD	wordpools/wasnorm_wordpool_576.txt	LTP371	ltpFR2	0	18	POET	1095	n/a	n/a	0	0	0
4353641	WORD	wordpools/wasnorm_wordpool_576.txt	LTP371	ltpFR2	0	18	BODY	145	n/a	n/a	0	0	0
4356139	WORD	wordpools/wasnorm_wordpool_576.txt	LTP371	ltpFR2	0	18	HONEY	713	n/a	n/a	0	0	0
4358656	WORD	wordpools/wasnorm_wordpool_576.txt	LTP371	ltpFR2	0	18	BEAKER	104	n/a	n/a	0	0	0
4361304	WORD	wordpools/wasnorm_wordpool_576.txt	LTP371	ltpFR2	0	18	HUMAN	726	n/a	n/a	0	0	0
4362920	START	n/a	LTP371	ltpFR2	0	n/a	n/a	n/a	26	n/a	n/a	n/a	n/a
4363766	DISTRACTOR	n/a	LTP371	ltpFR2	0	18	n/a	n/a	n/a	n/a	0	0	0
4363770	PROB	n/a	LTP371	ltpFR2	0	n/a	n/a	n/a	26	15	5	9	1
4365569	PROB	n/a	LTP371	ltpFR2	0	n/a	n/a	n/a	26	21	8	8	5
4367167	PROB	n/a	LTP371	ltpFR2	0	n/a	n/a	n/a	26	18	6	4	8
4368534	PROB	n/a	LTP371	ltpFR2	0	n/a	n/a	n/a	26	23	8	7	8
4370783	PROB	n/a	LTP371	ltpFR2	0	n/a	n/a	n/a	26	22	7	8	7
4372865	PROB	n/a	LTP371	ltpFR2	0	n/a	n/a	n/a	26	12	1	5	6
4374615	PROB	n/a	LTP371	ltpFR2	0	n/a	n/a	n/a	26	19	9	2	8
4376380	PROB	n/a	LTP371	ltpFR2	0	n/a	n/a	n/a	26	8	2	1	5
4379478	PROB	n/a	LTP371	ltpFR2	0	n/a	n/a	n/a	26	14	2	3	9
4380944	PROB	n/a	LTP371	ltpFR2	0	n/a	n/a	n/a	26	14	8	2	4
4384126	PROB	n/a	LTP371	ltpFR2	0	n/a	n/a	n/a	26	20	5	6	9
4385736	STOP	n/a	LTP371	ltpFR2	0	n/a	n/a	n/a	26	n/a	n/a	n/a	n/a
4388776	REC_START	n/a	LTP371	ltpFR2	0	18	n/a	n/a	n/a	n/a	0	0	0
4389582	REC_WORD	wordpools/wasnorm_wordpool_576.txt	LTP371	ltpFR2	0	18	BEAKER	104	n/a	n/a	0	0	0
4390780	REC_WORD	wordpools/wasnorm_wordpool_576.txt	LTP371	ltpFR2	0	18	HONEY	713	n/a	n/a	0	0	0
4393497	REC_WORD	wordpools/wasnorm_wordpool_576.txt	LTP371	ltpFR2	0	18	BODY	145	n/a	n/a	0	0	0
4395012	REC_WORD	wordpools/wasnorm_wordpool_576.txt	LTP371	ltpFR2	0	18	HUMAN	726	n/a	n/a	0	0	0
4401483	REC_WORD	wordpools/wasnorm_wordpool_576.txt	LTP371	ltpFR2	0	18	SADDLE	1221	n/a	n/a	0	0	0
4402675	REC_WORD	wordpools/wasnorm_wordpool_576.txt	LTP371	ltpFR2	0	18	FIDDLE	561	n/a	n/a	0	0	0
4404508	REC_WORD	wordpools/wasnorm_wordpool_576.txt	LTP371	ltpFR2	0	18	POET	1095	n/a	n/a	0	0	0
4406617	REC_WORD	wordpools/wasnorm_wordpool_576.txt	LTP371	ltpFR2	0	18	WHISTLE	1606	n/a	n/a	0	0	0
4410162	REC_WORD	wordpools/wasnorm_wordpool_576.txt	LTP371	ltpFR2	0	18	STALLION	1369	n/a	n/a	0	0	0
4411791	REC_WORD	wordpools/wasnorm_wordpool_576.txt	LTP371	ltpFR2	0	18	SCALLOP	1242	n/a	n/a	0	0	0
4422733	REC_WORD	wordpools/wasnorm_wordpool_576.txt	LTP371	ltpFR2	0	18	CATTLE	261	n/a	n/a	0	0	0
4429376	REC_WORD	wordpools/wasnorm_wordpool_576.txt	LTP371	ltpFR2	0	18	CREATURE	403	n/a	n/a	0	0	0
4434230	REC_WORD	wordpools/wasnorm_wordpool_576.txt	LTP371	ltpFR2	0	18	CHIPMUNK	304	n/a	n/a	0	0	0
4447203	REC_WORD	wordpools/wasnorm_wordpool_576.txt	LTP371	ltpFR2	0	18	ELBOW	520	n/a	n/a	0	0	0
4448929	REC_WORD	wordpools/wasnorm_wordpool_576.txt	LTP371	ltpFR2	0	18	HARP	689	n/a	n/a	0	0	0
4460305	REC_WORD	wordpools/wasnorm_wordpool_576.txt	LTP371	ltpFR2	0	18	ARMY	39	n/a	n/a	0	0	0
4461897	REC_WORD	wordpools/wasnorm_wordpool_576.txt	LTP371	ltpFR2	0	18	TILE	1468	n/a	n/a	0	0	0
4479232	WORD	wordpools/wasnorm_wordpool_576.txt	LTP371	ltpFR2	0	19	MOTEL	919	n/a	n/a	0	0	0
4481897	WORD	wordpools/wasnorm_wordpool_576.txt	LTP371	ltpFR2	0	19	LAMP	798	n/a	n/a	0	0	0
4484363	WORD	wordpools/wasnorm_wordpool_576.txt	LTP371	ltpFR2	0	19	HAMPER	682	n/a	n/a	0	0	0
4486828	WORD	wordpools/wasnorm_wordpool_576.txt	LTP371	ltpFR2	0	19	EYELASH	546	n/a	n/a	0	0	0
4489311	WORD	wordpools/wasnorm_wordpool_576.txt	LTP371	ltpFR2	0	19	GLASS	639	n/a	n/a	0	0	0
4491843	WORD	wordpools/wasnorm_wordpool_576.txt	LTP371	ltpFR2	0	19	TUNNEL	1519	n/a	n/a	0	0	0
4494441	WORD	wordpools/wasnorm_wordpool_576.txt	LTP371	ltpFR2	0	19	OUTFIT	988	n/a	n/a	0	0	0
4497273	WORD	wordpools/wasnorm_wordpool_576.txt	LTP371	ltpFR2	0	19	COCKTAIL	338	n/a	n/a	0	0	0
4499956	WORD	wordpools/wasnorm_wordpool_576.txt	LTP371	ltpFR2	0	19	COFFEE	341	n/a	n/a	0	0	0
4502522	WORD	wordpools/wasnorm_wordpool_576.txt	LTP371	ltpFR2	0	19	TUTU	1524	n/a	n/a	0	0	0
4505220	WORD	wordpools/wasnorm_wordpool_576.txt	LTP371	ltpFR2	0	19	TURNIP	1521	n/a	n/a	0	0	0
4507902	WORD	wordpools/wasnorm_wordpool_576.txt	LTP371	ltpFR2	0	19	SUMMIT	1405	n/a	n/a	0	0	0
4510334	WORD	wordpools/wasnorm_wordpool_576.txt	LTP371	ltpFR2	0	19	ORANGE	980	n/a	n/a	0	0	0
4512949	WORD	wordpools/wasnorm_wordpool_576.txt	LTP371	ltpFR2	0	19	APPLE	33	n/a	n/a	0	0	0
4515516	WORD	wordpools/wasnorm_wordpool_576.txt	LTP371	ltpFR2	0	19	SLIME	1327	n/a	n/a	0	0	0
4517947	WORD	wordpools/wasnorm_wordpool_576.txt	LTP371	ltpFR2	0	19	CEILING	265	n/a	n/a	0	0	0
4520379	WORD	wordpools/wasnorm_wordpool_576.txt	LTP371	ltpFR2	0	19	ITEM	746	n/a	n/a	0	0	0
4522928	WORD	wordpools/wasnorm_wordpool_576.txt	LTP371	ltpFR2	0	19	SLIDE	1326	n/a	n/a	0	0	0
4525427	WORD	wordpools/wasnorm_wordpool_576.txt	LTP371	ltpFR2	0	19	LONDON	843	n/a	n/a	0	0	0
4528226	WORD	wordpools/wasnorm_wordpool_576.txt	LTP371	ltpFR2	0	19	COUNTRY	388	n/a	n/a	0	0	0
4530659	WORD	wordpools/wasnorm_wordpool_576.txt	LTP371	ltpFR2	0	19	GRIZZLY	662	n/a	n/a	0	0	0
4533340	WORD	wordpools/wasnorm_wordpool_576.txt	LTP371	ltpFR2	0	19	JURY	766	n/a	n/a	0	0	0
4536072	WORD	wordpools/wasnorm_wordpool_576.txt	LTP371	ltpFR2	0	19	SEAGULL	1261	n/a	n/a	0	0	0
4538522	WORD	wordpools/wasnorm_wordpool_576.txt	LTP371	ltpFR2	0	19	PADDING	999	n/a	n/a	0	0	0
4540137	START	n/a	LTP371	ltpFR2	0	n/a	n/a	n/a	27	n/a	n/a	n/a	n/a
4541058	DISTRACTOR	n/a	LTP371	ltpFR2	0	19	n/a	n/a	n/a	n/a	0	0	0
4541070	PROB	n/a	LTP371	ltpFR2	0	n/a	n/a	n/a	27	21	9	8	4
4544085	PROB	n/a	LTP371	ltpFR2	0	n/a	n/a	n/a	27	10	4	5	1
4546018	PROB	n/a	LTP371	ltpFR2	0	n/a	n/a	n/a	27	13	7	3	3
4548000	PROB	n/a	LTP371	ltpFR2	0	n/a	n/a	n/a	27	18	5	6	7
4550800	PROB	n/a	LTP371	ltpFR2	0	n/a	n/a	n/a	27	15	7	1	7
4552381	PROB	n/a	LTP371	ltpFR2	0	n/a	n/a	n/a	27	16	7	6	3
4555113	PROB	n/a	LTP371	ltpFR2	0	n/a	n/a	n/a	27	13	6	2	5
4557096	PROB	n/a	LTP371	ltpFR2	0	n/a	n/a	n/a	27	18	8	7	3
4558928	PROB	n/a	LTP371	ltpFR2	0	n/a	n/a	n/a	27	21	9	6	6
4560861	PROB	n/a	LTP371	ltpFR2	0	n/a	n/a	n/a	27	13	3	5	5
4562227	PROB	n/a	LTP371	ltpFR2	0	n/a	n/a	n/a	27	15	6	8	1
4563733	STOP	n/a	LTP371	ltpFR2	0	n/a	n/a	n/a	27	n/a	n/a	n/a	n/a
4566059	REC_START	n/a	LTP371	ltpFR2	0	19	n/a	n/a	n/a	n/a	0	0	0
4566924	REC_WORD	wordpools/wasnorm_wordpool_576.txt	LTP371	ltpFR2	0	19	GRIZZLY	662	n/a	n/a	0	0	0
4568214	REC_WORD	wordpools/wasnorm_wordpool_576.txt	LTP371	ltpFR2	0	19	PADDING	999	n/a	n/a	0	0	0
4571289	REC_WORD	wordpools/wasnorm_wordpool_576.txt	LTP371	ltpFR2	0	19	SEAGULL	1261	n/a	n/a	0	0	0
4572933	REC_WORD	wordpools/wasnorm_wordpool_576.txt	LTP371	ltpFR2	0	19	LONDON	843	n/a	n/a	0	0	0
4574325	REC_WORD	wordpools/wasnorm_wordpool_576.txt	LTP371	ltpFR2	0	19	COUNTRY	388	n/a	n/a	0	0	0
4580781	REC_WORD	wordpools/wasnorm_wordpool_576.txt	LTP371	ltpFR2	0	19	MOTEL	919	n/a	n/a	0	0	0
4582226	REC_WORD	wordpools/wasnorm_wordpool_576.txt	LTP371	ltpFR2	0	19	COCKTAIL	338	n/a	n/a	0	0	0
4584037	REC_WORD	wordpools/wasnorm_wordpool_576.txt	LTP371	ltpFR2	0	19	HAMPER	682	n/a	n/a	0	0	0
4585510	REC_WORD	wordpools/wasnorm_wordpool_576.txt	LTP371	ltpFR2	0	19	LAMP	798	n/a	n/a	0	0	0
4588666	REC_WORD	wordpools/wasnorm_wordpool_576.txt	LTP371	ltpFR2	0	19	TURNIP	1521	n/a	n/a	0	0	0
4590750	REC_WORD	wordpools/wasnorm_wordpool_576.txt	LTP371	ltpFR2	0	19	TUTU	1524	n/a	n/a	0	0	0
4592174	REC_WORD	wordpools/wasnorm_wordpool_576.txt	LTP371	ltpFR2	0	19	OUTFIT	988	n/a	n/a	0	0	0
4596660	REC_WORD	wordpools/wasnorm_wordpool_576.txt	LTP371	ltpFR2	0	19	COFFEE	341	n/a	n/a	0	0	0
4599350	REC_WORD	wordpools/wasnorm_wordpool_576.txt	LTP371	ltpFR2	0	19	GLASS	639	n/a	n/a	0	0	0
4602696	REC_WORD	wordpools/wasnorm_wordpool_576.txt	LTP371	ltpFR2	0	19	TUNNEL	1519	n/a	n/a	0	0	0
4624039	REC_WORD	wordpools/wasnorm_wordpool_576.txt	LTP371	ltpFR2	0	19	CEILING	265	n/a	n/a	0	0	0
4673593	WORD	wordpools/wasnorm_wordpool_576.txt	LTP371	ltpFR2	0	20	PICNIC	1060	n/a	n/a	0	0	0
4676323	WORD	wordpools/wasnorm_wordpool_576.txt	LTP371	ltpFR2	0	20	SEAFOOD	1260	n/a	n/a	0	0	0
4678939	WORD	wordpools/wasnorm_wordpool_576.txt	LTP371	ltpFR2	0	20	LADDER	793	n/a	n/a	0	0	0
4681689	WORD	wordpools/wasnorm_wordpool_576.txt	LTP371	ltpFR2	0	20	HOUND	724	n/a	n/a	0	0	0
4684503	WORD	wordpools/wasnorm_wordpool_576.txt	LTP371	ltpFR2	0	20	TEACHER	1440	n/a	n/a	0	0	0
4686952	WORD	wordpools/wasnorm_wordpool_576.txt	LTP371	ltpFR2	0	20	EXPERT	543	n/a	n/a	0	0	0
4689635	WORD	wordpools/wasnorm_wordpool_576.txt	LTP371	ltpFR2	0	20	GIFT	635	n/a	n/a	0	0	0
4692283	WORD	wordpools/wasnorm_wordpool_576.txt	LTP371	ltpFR2	0	20	BOX	159	n/a	n/a	0	0	0
4694981	WORD	wordpools/wasnorm_wordpool_576.txt	LTP371	ltpFR2	0	20	DENTIST	447	n/a	n/a	0	0	0
4697581	WORD	wordpools/wasnorm_wordpool_576.txt	LTP371	ltpFR2	0	20	FLASHLIGHT	575	n/a	n/a	0	0	0
4700346	WORD	wordpools/wasnorm_wordpool_576.txt	LTP371	ltpFR2	0	20	LASER	801	n/a	n/a	0	0	0
4702928	WORD	wordpools/wasnorm_wordpool_576.txt	LTP371	ltpFR2	0	20	STAR	1373	n/a	n/a	0	0	0
4705528	WORD	wordpools/wasnorm_wordpool_576.txt	LTP371	ltpFR2	0	20	TOURIST	1488	n/a	n/a	0	0	0
4708092	WORD	wordpools/wasnorm_wordpool_576.txt	LTP371	ltpFR2	0	20	KLEENEX	782	n/a	n/a	0	0	0
4710858	WORD	wordpools/wasnorm_wordpool_576.txt	LTP371	ltpFR2	0	20	GUITAR	670	n/a	n/a	0	0	0
4713624	WORD	wordpools/wasnorm_wordpool_576.txt	LTP371	ltpFR2	0	20	MAILMAN	858	n/a	n/a	0	0	0
4716122	WORD	wordpools/wasnorm_wordpool_576.txt	LTP371	ltpFR2	0	20	COOK	372	n/a	n/a	0	0	0
4718722	WORD	wordpools/wasnorm_wordpool_576.txt	LTP371	ltpFR2	0	20	GIRL	637	n/a	n/a	0	0	0
4721403	WORD	wordpools/wasnorm_wordpool_576.txt	LTP371	ltpFR2	0	20	CLIMBER	323	n/a	n/a	0	0	0
4724168	WORD	wordpools/wasnorm_wordpool_576.txt	LTP371	ltpFR2	0	20	GLOBE	641	n/a	n/a	0	0	0
4726900	WORD	wordpools/wasnorm_wordpool_576.txt	LTP371	ltpFR2	0	20	FREEZER	604	n/a	n/a	0	0	0
4729332	WORD	wordpools/wasnorm_wordpool_576.txt	LTP371	ltpFR2	0	20	ICEBERG	731	n/a	n/a	0	0	0
4731831	WORD	wordpools/wasnorm_wordpool_576.txt	LTP371	ltpFR2	0	20	PIANO	1057	n/a	n/a	0	0	0
4734631	WORD	wordpools/wasnorm_wordpool_576.txt	LTP371	ltpFR2	0	20	POPCORN	1104	n/a	n/a	0	0	0
4736246	START	n/a	LTP371	ltpFR2	0	n/a	n/a	n/a	28	n/a	n/a	n/a	n/a
4737142	DISTRACTOR	n/a	LTP371	ltpFR2	0	20	n/a	n/a	n/a	n/a	0	0	0
4737145	PROB	n/a	LTP371	ltpFR2	0	n/a	n/a	n/a	28	21	7	7	7
4739394	PROB	n/a	LTP371	ltpFR2	0	n/a	n/a	n/a	28	11	4	3	4
4742060	PROB	n/a	LTP371	ltpFR2	0	n/a	n/a	n/a	28	20	7	4	9
4744059	PROB	n/a	LTP371	ltpFR2	0	n/a	n/a	n/a	28	17	8	8	1
4745626	PROB	n/a	LTP371	ltpFR2	0	n/a	n/a	n/a	28	17	7	2	8
4747074	PROB	n/a	LTP371	ltpFR2	0	n/a	n/a	n/a	28	18	4	9	5
4748641	PROB	n/a	LTP371	ltpFR2	0	n/a	n/a	n/a	28	14	1	7	6
4750757	PROB	n/a	LTP371	ltpFR2	0	n/a	n/a	n/a	28	17	7	2	8
4752321	PROB	n/a	LTP371	ltpFR2	0	n/a	n/a	n/a	28	12	7	1	4
4753871	PROB	n/a	LTP371	ltpFR2	0	n/a	n/a	n/a	28	26	9	9	8
4756919	PROB	n/a	LTP371	ltpFR2	0	n/a	n/a	n/a	28	17	2	9	6
4758686	PROB	n/a	LTP371	ltpFR2	0	n/a	n/a	n/a	28	15	3	6	6
4760098	STOP	n/a	LTP371	ltpFR2	0	n/a	n/a	n/a	28	n/a	n/a	n/a	n/a
4762068	REC_START	n/a	LTP371	ltpFR2	0	20	n/a	n/a	n/a	n/a	0	0	0
4762726	REC_WORD	wordpools/wasnorm_wordpool_576.txt	LTP371	ltpFR2	0	20	ICEBERG	731	n/a	n/a	0	0	0
4764173	REC_WORD	wordpools/wasnorm_wordpool_576.txt	LTP371	ltpFR2	0	20	MAILMAN	858	n/a	n/a	0	0	0
4765934	REC_WORD	wordpools/wasnorm_wordpool_576.txt	LTP371	ltpFR2	0	20	POPCORN	1104	n/a	n/a	0	0	0
4768297	REC_WORD	wordpools/wasnorm_wordpool_576.txt	LTP371	ltpFR2	0	20	FREEZER	604	n/a	n/a	0	0	0
4771776	REC_WORD	wordpools/wasnorm_wordpool_576.txt	LTP371	ltpFR2	0	20	COOK	372	n/a	n/a	0	0	0
4773340	REC_WORD	wordpools/wasnorm_wordpool_576.txt	LTP371	ltpFR2	0	20	GIRL	637	n/a	n/a	0	0	0
4775537	REC_WORD	wordpools/wasnorm_wordpool_576.txt	LTP371	ltpFR2	0	20	CLIMBER	323	n/a	n/a	0	0	0
4777688	REC_WORD	wordpools/wasnorm_wordpool_576.txt	LTP371	ltpFR2	0	20	LADDER	793	n/a	n/a	0	0	0
4779689	REC_WORD	wordpools/wasnorm_wordpool_576.txt	LTP371	ltpFR2	0	20	HOUND	724	n/a	n/a	0	0	0
4781854	REC_WORD	wordpools/wasnorm_wordpool_576.txt	LTP371	ltpFR2	0	20	PICNIC	1060	n/a	n/a	0	0	0
4783562	REC_WORD	wordpools/wasnorm_wordpool_576.txt	LTP371	ltpFR2	0	20	SEAFOOD	1260	n/a	n/a	0	0	0
4785180	REC_WORD	wordpools/wasnorm_wordpool_576.txt	LTP371	ltpFR2	0	20	TEACHER	1440	n/a	n/a	0	0	0
4786619	REC_WORD	wordpools/wasnorm_wordpool_576.txt	LTP371	ltpFR2	0	20	GIFT	635	n/a	n/a	0	0	0
4787883	REC_WORD	wordpools/wasnorm_wordpool_576.txt	LTP371	ltpFR2	0	20	DENTIST	447	n/a	n/a	0	0	0
4789320	REC_WORD	wordpools/wasnorm_wordpool_576.txt	LTP371	ltpFR2	0	20	LASER	801	n/a	n/a	0	0	0
4790569	REC_WORD	wordpools/wasnorm_wordpool_576.txt	LTP371	ltpFR2	0	20	FLASHLIGHT	575	n/a	n/a	0	0	0
4792222	REC_WORD	wordpools/wasnorm_wordpool_576.txt	LTP371	ltpFR2	0	20	STAR	1373	n/a	n/a	0	0	0
4852508	DISTRACTOR	n/a	LTP371	ltpFR2	0	21	n/a	n/a	n/a	n/a	0	0	0
4852508	START	n/a	LTP371	ltpFR2	0	n/a	n/a	n/a	29	n/a	n/a	n/a	n/a
4852526	PROB	n/a	LTP371	ltpFR2	0	n/a	n/a	n/a	29	12	5	6	1
4854692	PROB	n/a	LTP371	ltpFR2	0	n/a	n/a	n/a	29	21	9	8	4
4857389	PROB	n/a	LTP371	ltpFR2	0	n/a	n/a	n/a	29	19	8	3	8
4859556	PROB	n/a	LTP371	ltpFR2	0	n/a	n/a	n/a	29	20	9	7	4
4861504	PROB	n/a	LTP371	ltpFR2	0	n/a	n/a	n/a	29	13	6	5	2
4863087	PROB	n/a	LTP371	ltpFR2	0	n/a	n/a	n/a	29	15	7	4	4
4865436	PROB	n/a	LTP371	ltpFR2	0	n/a	n/a	n/a	29	22	8	8	6
4867068	PROB	n/a	LTP371	ltpFR2	0	n/a	n/a	n/a	29	21	8	8	5
4868735	PROB	n/a	LTP371	ltpFR2	0	n/a	n/a	n/a	29	18	2	7	9
4870767	PROB	n/a	LTP371	ltpFR2	0	n/a	n/a	n/a	29	18	5	7	6
4873182	PROB	n/a	LTP371	ltpFR2	0	n/a	n/a	n/a	29	17	7	2	8
4874566	PROB	n/a	LTP371	ltpFR2	0	n/a	n/a	n/a	29	18	8	9	1
4875934	STOP	n/a	LTP371	ltpFR2	0	n/a	n/a	n/a	29	n/a	n/a	n/a	n/a
4877413	WORD	wordpools/wasnorm_wordpool_576.txt	LTP371	ltpFR2	0	21	ARM	38	n/a	n/a	0	0	0
4879979	WORD	wordpools/wasnorm_wordpool_576.txt	LTP371	ltpFR2	0	21	ANKLE	24	n/a	n/a	0	0	0
4882629	WORD	wordpools/wasnorm_wordpool_576.txt	LTP371	ltpFR2	0	21	UMPIRE	1535	n/a	n/a	0	0	0
4885126	WORD	wordpools/wasnorm_wordpool_576.txt	LTP371	ltpFR2	0	21	EAGLE	512	n/a	n/a	0	0	0
4887576	WORD	wordpools/wasnorm_wordpool_576.txt	LTP371	ltpFR2	0	21	ROBIN	1199	n/a	n/a	0	0	0
4890341	WORD	wordpools/wasnorm_wordpool_576.txt	LTP371	ltpFR2	0	21	CHEMIST	292	n/a	n/a	0	0	0
4893106	WORD	wordpools/wasnorm_wordpool_576.txt	LTP371	ltpFR2	0	21	SHIRT	1287	n/a	n/a	0	0	0
4895706	WORD	wordpools/wasnorm_wordpool_576.txt	LTP371	ltpFR2	0	21	WHISKERS	1605	n/a	n/a	0	0	0
4898404	WORD	wordpools/wasnorm_wordpool_576.txt	LTP371	ltpFR2	0	21	CHURCH	307	n/a	n/a	0	0	0
4901219	WORD	wordpools/wasnorm_wordpool_576.txt	LTP371	ltpFR2	0	21	PASTA	1021	n/a	n/a	0	0	0
4903752	WORD	wordpools/wasnorm_wordpool_576.txt	LTP371	ltpFR2	0	21	DRIVER	499	n/a	n/a	0	0	0
4906534	WORD	wordpools/wasnorm_wordpool_576.txt	LTP371	ltpFR2	0	21	QUAIL	1147	n/a	n/a	0	0	0
4908982	WORD	wordpools/wasnorm_wordpool_576.txt	LTP371	ltpFR2	0	21	COD	340	n/a	n/a	0	0	0
4911448	WORD	wordpools/wasnorm_wordpool_576.txt	LTP371	ltpFR2	0	21	GRILL	661	n/a	n/a	0	0	0
4914013	WORD	wordpools/wasnorm_wordpool_576.txt	LTP371	ltpFR2	0	21	SCOTCH	1251	n/a	n/a	0	0	0
4916713	WORD	wordpools/wasnorm_wordpool_576.txt	LTP371	ltpFR2	0	21	ACTOR	5	n/a	n/a	0	0	0
4919528	WORD	wordpools/wasnorm_wordpool_576.txt	LTP371	ltpFR2	0	21	GOBLIN	645	n/a	n/a	0	0	0
4922226	WORD	wordpools/wasnorm_wordpool_576.txt	LTP371	ltpFR2	0	21	BRANDY	169	n/a	n/a	0	0	0
4924776	WORD	wordpools/wasnorm_wordpool_576.txt	LTP371	ltpFR2	0	21	MOTOR	922	n/a	n/a	0	0	0
4927207	WORD	wordpools/wasnorm_wordpool_576.txt	LTP371	ltpFR2	0	21	ATOM	55	n/a	n/a	0	0	0
4930005	WORD	wordpools/wasnorm_wordpool_576.txt	LTP371	ltpFR2	0	21	FRAGRANCE	599	n/a	n/a	0	0	0
4932471	WORD	wordpools/wasnorm_wordpool_576.txt	LTP371	ltpFR2	0	21	MEAT	883	n/a	n/a	0	0	0
4934953	WORD	wordpools/wasnorm_wordpool_576.txt	LTP371	ltpFR2	0	21	IGLOO	734	n/a	n/a	0	0	0
4937435	WORD	wordpools/wasnorm_wordpool_576.txt	LTP371	ltpFR2	0	21	PENGUIN	1044	n/a	n/a	0	0	0
4939051	START	n/a	LTP371	ltpFR2	0	n/a	n/a	n/a	30	n/a	n/a	n/a	n/a
4940037	DISTRACTOR	n/a	LTP371	ltpFR2	0	21	n/a	n/a	n/a	n/a	0	0	0
4940051	PROB	n/a	LTP371	ltpFR2	0	n/a	n/a	n/a	30	22	6	7	9
4942567	PROB	n/a	LTP371	ltpFR2	0	n/a	n/a	n/a	30	17	4	6	7
4944182	PROB	n/a	LTP371	ltpFR2	0	n/a	n/a	n/a	30	19	7	8	4
4945831	PROB	n/a	LTP371	ltpFR2	0	n/a	n/a	n/a	30	13	4	5	4
4948064	PROB	n/a	LTP371	ltpFR2	0	n/a	n/a	n/a	30	23	9	8	6
4950363	PROB	n/a	LTP371	ltpFR2	0	n/a	n/a	n/a	30	18	6	9	3
4952746	PROB	n/a	LTP371	ltpFR2	0	n/a	n/a	n/a	30	12	2	1	9
