mstime	trial_type	stim_file	subject	experiment	session	trial	task	item_name	item_num	recog_conf	resp	color_b	color_g	color_r	case	font
0	SESS_START	n/a	LTP110	ltpFR	14	n/a	n/a	n/a	n/a	4	n/a	n/a	n/a	n/a	n/a	n/a
34052	WORD	wordpools/wasnorm_wordpool.txt	LTP110	ltpFR	14	1	1	GARDEN	623	n/a	0	1	0.412841796875	0.57763671875	upper	../fonts/amplitud.ttf
37900	WORD	wordpools/wasnorm_wordpool.txt	LTP110	ltpFR	14	1	1	JEWEL	757	n/a	0	1	0.412841796875	0.57763671875	upper	../fonts/amplitud.ttf
42099	WORD	wordpools/wasnorm_wordpool.txt	LTP110	ltpFR	14	1	0	STEW	1380	n/a	1	0	0.5869140625	0.422607421875	lower	../fonts/zerothre.ttf
45997	WORD	wordpools/wasnorm_wordpool.txt	LTP110	ltpFR	14	1	0	BUYER	208	n/a	1	0	0.5869140625	0.422607421875	lower	../fonts/zerothre.ttf
50096	WORD	wordpools/wasnorm_wordpool.txt	LTP110	ltpFR	14	1	0	IRON	744	n/a	0	0	0.5869140625	0.422607421875	lower	../fonts/zerothre.ttf
53970	WORD	wordpools/wasnorm_wordpool.txt	LTP110	ltpFR	14	1	0	DINOSAUR	469	n/a	1	0	0.5869140625	0.422607421875	lower	../fonts/zerothre.ttf
57826	WORD	wordpools/wasnorm_wordpool.txt	LTP110	ltpFR	14	1	1	FLOWER	584	n/a	0	1	0.412841796875	0.57763671875	upper	../fonts/amplitud.ttf
61799	WORD	wordpools/wasnorm_wordpool.txt	LTP110	ltpFR	14	1	1	BOULDER	155	n/a	0	1	0.412841796875	0.57763671875	upper	../fonts/amplitud.ttf
65839	WORD	wordpools/wasnorm_wordpool.txt	LTP110	ltpFR	14	1	1	BEVERAGE	123	n/a	0	1	0.412841796875	0.57763671875	upper	../fonts/amplitud.ttf
69705	WORD	wordpools/wasnorm_wordpool.txt	LTP110	ltpFR	14	1	0	JUG	762	n/a	1	0	0.5869140625	0.422607421875	lower	../fonts/zerothre.ttf
73554	WORD	wordpools/wasnorm_wordpool.txt	LTP110	ltpFR	14	1	0	WHEEL	1603	n/a	1	0	0.5869140625	0.422607421875	lower	../fonts/zerothre.ttf
77744	WORD	wordpools/wasnorm_wordpool.txt	LTP110	ltpFR	14	1	0	CHICKEN	297	n/a	1	0	0.5869140625	0.422607421875	lower	../fonts/zerothre.ttf
81667	WORD	wordpools/wasnorm_wordpool.txt	LTP110	ltpFR	14	1	0	LETTUCE	814	n/a	0	0	0.5869140625	0.422607421875	lower	../fonts/zerothre.ttf
85641	WORD	wordpools/wasnorm_wordpool.txt	LTP110	ltpFR	14	1	1	BUTCHER	203	n/a	1	1	0.412841796875	0.57763671875	upper	../fonts/amplitud.ttf
89532	WORD	wordpools/wasnorm_wordpool.txt	LTP110	ltpFR	14	1	1	CEILING	265	n/a	0	1	0.412841796875	0.57763671875	upper	../fonts/amplitud.ttf
93581	WORD	wordpools/wasnorm_wordpool.txt	LTP110	ltpFR	14	1	1	TILE	1468	n/a	0	1	0.412841796875	0.57763671875	upper	../fonts/amplitud.ttf
99546	REC_START	n/a	LTP110	ltpFR	14	1	n/a	n/a	n/a	n/a	n/a	n/a	n/a	n/a	n/a	n/a
100913	REC_WORD	wordpools/wasnorm_wordpool.txt	LTP110	ltpFR	14	1	1	BUTCHER	203	n/a	1	n/a	n/a	n/a	n/a	n/a
101397	REC_WORD	wordpools/wasnorm_wordpool.txt	LTP110	ltpFR	14	1	1	CEILING	265	n/a	0	n/a	n/a	n/a	n/a	n/a
102084	REC_WORD	wordpools/wasnorm_wordpool.txt	LTP110	ltpFR	14	1	1	TILE	1468	n/a	0	n/a	n/a	n/a	n/a	n/a
103392	REC_WORD	wordpools/wasnorm_wordpool.txt	LTP110	ltpFR	14	1	1	GARDEN	623	n/a	0	n/a	n/a	n/a	n/a	n/a
104200	REC_WORD	wordpools/wasnorm_wordpool.txt	LTP110	ltpFR	14	1	1	BOULDER	155	n/a	0	n/a	n/a	n/a	n/a	n/a
104966	REC_WORD	wordpools/wasnorm_wordpool.txt	LTP110	ltpFR	14	1	0	WHEEL	1603	n/a	1	n/a	n/a	n/a	n/a	n/a
106186	REC_WORD	wordpools/wasnorm_wordpool.txt	LTP110	ltpFR	14	1	1	FLOWER	584	n/a	0	n/a	n/a	n/a	n/a	n/a
108915	REC_WORD	wordpools/wasnorm_wordpool.txt	LTP110	ltpFR	14	1	0	DINOSAUR	469	n/a	1	n/a	n/a	n/a	n/a	n/a
109727	REC_WORD	wordpools/wasnorm_wordpool.txt	LTP110	ltpFR	14	1	0	CHICKEN	297	n/a	1	n/a	n/a	n/a	n/a	n/a
113908	REC_WORD	wordpools/wasnorm_wordpool.txt	LTP110	ltpFR	14	1	0	BUYER	208	n/a	1	n/a	n/a	n/a	n/a	n/a
114537	REC_WORD	wordpools/wasnorm_wordpool.txt	LTP110	ltpFR	14	1	1	JEWEL	757	n/a	0	n/a	n/a	n/a	n/a	n/a
115021	REC_WORD	wordpools/wasnorm_wordpool.txt	LTP110	ltpFR	14	1	0	STEW	1380	n/a	1	n/a	n/a	n/a	n/a	n/a
122000	REC_WORD	wordpools/wasnorm_wordpool.txt	LTP110	ltpFR	14	1	1	BEVERAGE	123	n/a	0	n/a	n/a	n/a	n/a	n/a
124664	REC_WORD	wordpools/wasnorm_wordpool.txt	LTP110	ltpFR	14	1	0	JUG	762	n/a	1	n/a	n/a	n/a	n/a	n/a
154127	REC_WORD	wordpools/wasnorm_wordpool.txt	LTP110	ltpFR	14	1	0	LETTUCE	814	n/a	0	n/a	n/a	n/a	n/a	n/a
178749	WORD	wordpools/wasnorm_wordpool.txt	LTP110	ltpFR	14	2	0	PLUM	1090	n/a	0	0	0.5869140625	0.422607421875	lower	../fonts/zerothre.ttf
182866	WORD	wordpools/wasnorm_wordpool.txt	LTP110	ltpFR	14	2	0	PEACH	1031	n/a	0	0	0.5869140625	0.422607421875	lower	../fonts/zerothre.ttf
186989	WORD	wordpools/wasnorm_wordpool.txt	LTP110	ltpFR	14	2	0	CRACKER	398	n/a	0	0	0.5869140625	0.422607421875	lower	../fonts/zerothre.ttf
190828	WORD	wordpools/wasnorm_wordpool.txt	LTP110	ltpFR	14	2	0	CONTAINER	366	n/a	0	0	0.5869140625	0.422607421875	lower	../fonts/zerothre.ttf
194669	WORD	wordpools/wasnorm_wordpool.txt	LTP110	ltpFR	14	2	1	CROCODILE	411	n/a	1	1	0.412841796875	0.57763671875	upper	../fonts/amplitud.ttf
198692	WORD	wordpools/wasnorm_wordpool.txt	LTP110	ltpFR	14	2	1	MAP	865	n/a	0	1	0.412841796875	0.57763671875	upper	../fonts/amplitud.ttf
202509	WORD	wordpools/wasnorm_wordpool.txt	LTP110	ltpFR	14	2	1	MAGNET	855	n/a	0	1	0.412841796875	0.57763671875	upper	../fonts/amplitud.ttf
206639	WORD	wordpools/wasnorm_wordpool.txt	LTP110	ltpFR	14	2	0	IGLOO	734	n/a	1	0	0.5869140625	0.422607421875	lower	../fonts/zerothre.ttf
210721	WORD	wordpools/wasnorm_wordpool.txt	LTP110	ltpFR	14	2	0	ASIA	46	n/a	1	0	0.5869140625	0.422607421875	lower	../fonts/zerothre.ttf
214845	WORD	wordpools/wasnorm_wordpool.txt	LTP110	ltpFR	14	2	1	REFEREE	1178	n/a	1	1	0.412841796875	0.57763671875	upper	../fonts/amplitud.ttf
218802	WORD	wordpools/wasnorm_wordpool.txt	LTP110	ltpFR	14	2	1	CHEERLEADER	288	n/a	1	1	0.412841796875	0.57763671875	upper	../fonts/amplitud.ttf
222800	WORD	wordpools/wasnorm_wordpool.txt	LTP110	ltpFR	14	2	1	ELK	526	n/a	1	1	0.412841796875	0.57763671875	upper	../fonts/amplitud.ttf
226666	WORD	wordpools/wasnorm_wordpool.txt	LTP110	ltpFR	14	2	1	FUR	615	n/a	0	1	0.412841796875	0.57763671875	upper	../fonts/amplitud.ttf
230789	WORD	wordpools/wasnorm_wordpool.txt	LTP110	ltpFR	14	2	1	SERPENT	1270	n/a	1	1	0.412841796875	0.57763671875	upper	../fonts/amplitud.ttf
234864	WORD	wordpools/wasnorm_wordpool.txt	LTP110	ltpFR	14	2	0	ANTELOPE	27	n/a	1	0	0.5869140625	0.422607421875	lower	../fonts/zerothre.ttf
238761	WORD	wordpools/wasnorm_wordpool.txt	LTP110	ltpFR	14	2	0	VETERAN	1561	n/a	1	0	0.5869140625	0.422607421875	lower	../fonts/zerothre.ttf
244461	REC_START	n/a	LTP110	ltpFR	14	2	n/a	n/a	n/a	n/a	n/a	n/a	n/a	n/a	n/a	n/a
246351	REC_WORD	wordpools/wasnorm_wordpool.txt	LTP110	ltpFR	14	2	0	VETERAN	1561	n/a	1	n/a	n/a	n/a	n/a	n/a
247509	REC_WORD	wordpools/wasnorm_wordpool.txt	LTP110	ltpFR	14	2	1	ELK	526	n/a	1	n/a	n/a	n/a	n/a	n/a
248297	REC_WORD	wordpools/wasnorm_wordpool.txt	LTP110	ltpFR	14	2	0	ANTELOPE	27	n/a	1	n/a	n/a	n/a	n/a	n/a
249155	REC_WORD	wordpools/wasnorm_wordpool.txt	LTP110	ltpFR	14	2	1	MAP	865	n/a	0	n/a	n/a	n/a	n/a	n/a
250532	REC_WORD	wordpools/wasnorm_wordpool.txt	LTP110	ltpFR	14	2	0	ASIA	46	n/a	1	n/a	n/a	n/a	n/a	n/a
252787	REC_WORD	wordpools/wasnorm_wordpool.txt	LTP110	ltpFR	14	2	1	REFEREE	1178	n/a	1	n/a	n/a	n/a	n/a	n/a
253565	REC_WORD	wordpools/wasnorm_wordpool.txt	LTP110	ltpFR	14	2	1	CHEERLEADER	288	n/a	1	n/a	n/a	n/a	n/a	n/a
254573	REC_WORD	wordpools/wasnorm_wordpool.txt	LTP110	ltpFR	14	2	1	CROCODILE	411	n/a	1	n/a	n/a	n/a	n/a	n/a
257247	REC_WORD	wordpools/wasnorm_wordpool.txt	LTP110	ltpFR	14	2	0	CONTAINER	366	n/a	0	n/a	n/a	n/a	n/a	n/a
258284	REC_WORD	wordpools/wasnorm_wordpool.txt	LTP110	ltpFR	14	2	0	CRACKER	398	n/a	0	n/a	n/a	n/a	n/a	n/a
260200	REC_WORD	wordpools/wasnorm_wordpool.txt	LTP110	ltpFR	14	2	0	PEACH	1031	n/a	0	n/a	n/a	n/a	n/a	n/a
260998	REC_WORD	wordpools/wasnorm_wordpool.txt	LTP110	ltpFR	14	2	0	PLUM	1090	n/a	0	n/a	n/a	n/a	n/a	n/a
265548	REC_WORD	wordpools/wasnorm_wordpool.txt	LTP110	ltpFR	14	2	1	MAGNET	855	n/a	0	n/a	n/a	n/a	n/a	n/a
279311	REC_WORD	wordpools/wasnorm_wordpool.txt	LTP110	ltpFR	14	2	0	IGLOO	734	n/a	1	n/a	n/a	n/a	n/a	n/a
303232	REC_WORD	wordpools/wasnorm_wordpool.txt	LTP110	ltpFR	14	2	1	SERPENT	1270	n/a	1	n/a	n/a	n/a	n/a	n/a
314117	REC_WORD	wordpools/wasnorm_wordpool.txt	LTP110	ltpFR	14	2	1	FUR	615	n/a	0	n/a	n/a	n/a	n/a	n/a
327256	WORD	wordpools/wasnorm_wordpool.txt	LTP110	ltpFR	14	3	-1	BLACKBERRY	132	n/a	-1	1	1.0	1.0	upper	../fonts/Verdana.ttf
331138	WORD	wordpools/wasnorm_wordpool.txt	LTP110	ltpFR	14	3	-1	KETCHUP	771	n/a	-1	1	1.0	1.0	upper	../fonts/Verdana.ttf
335003	WORD	wordpools/wasnorm_wordpool.txt	LTP110	ltpFR	14	3	-1	FLOUR	583	n/a	-1	1	1.0	1.0	upper	../fonts/Verdana.ttf
338869	WORD	wordpools/wasnorm_wordpool.txt	LTP110	ltpFR	14	3	-1	SANDWICH	1232	n/a	-1	1	1.0	1.0	upper	../fonts/Verdana.ttf
342824	WORD	wordpools/wasnorm_wordpool.txt	LTP110	ltpFR	14	3	-1	MARINE	869	n/a	-1	1	1.0	1.0	upper	../fonts/Verdana.ttf
346815	WORD	wordpools/wasnorm_wordpool.txt	LTP110	ltpFR	14	3	-1	TUXEDO	1525	n/a	-1	1	1.0	1.0	upper	../fonts/Verdana.ttf
350939	WORD	wordpools/wasnorm_wordpool.txt	LTP110	ltpFR	14	3	-1	TRIANGLE	1504	n/a	-1	1	1.0	1.0	upper	../fonts/Verdana.ttf
354921	WORD	wordpools/wasnorm_wordpool.txt	LTP110	ltpFR	14	3	-1	CRUMB	416	n/a	-1	1	1.0	1.0	upper	../fonts/Verdana.ttf
358928	WORD	wordpools/wasnorm_wordpool.txt	LTP110	ltpFR	14	3	-1	RIBBON	1189	n/a	-1	1	1.0	1.0	upper	../fonts/Verdana.ttf
362817	WORD	wordpools/wasnorm_wordpool.txt	LTP110	ltpFR	14	3	-1	ARMY	39	n/a	-1	1	1.0	1.0	upper	../fonts/Verdana.ttf
366875	WORD	wordpools/wasnorm_wordpool.txt	LTP110	ltpFR	14	3	-1	UNDERWEAR	1537	n/a	-1	1	1.0	1.0	upper	../fonts/Verdana.ttf
370982	WORD	wordpools/wasnorm_wordpool.txt	LTP110	ltpFR	14	3	-1	DETERGENT	455	n/a	-1	1	1.0	1.0	upper	../fonts/Verdana.ttf
375039	WORD	wordpools/wasnorm_wordpool.txt	LTP110	ltpFR	14	3	-1	DIRECTOR	471	n/a	-1	1	1.0	1.0	upper	../fonts/Verdana.ttf
378954	WORD	wordpools/wasnorm_wordpool.txt	LTP110	ltpFR	14	3	-1	ACTRESS	6	n/a	-1	1	1.0	1.0	upper	../fonts/Verdana.ttf
382936	WORD	wordpools/wasnorm_wordpool.txt	LTP110	ltpFR	14	3	-1	BOTTLE	153	n/a	-1	1	1.0	1.0	upper	../fonts/Verdana.ttf
387051	WORD	wordpools/wasnorm_wordpool.txt	LTP110	ltpFR	14	3	-1	BRANDY	169	n/a	-1	1	1.0	1.0	upper	../fonts/Verdana.ttf
393008	REC_START	n/a	LTP110	ltpFR	14	3	n/a	n/a	n/a	n/a	n/a	n/a	n/a	n/a	n/a	n/a
394395	REC_WORD	wordpools/wasnorm_wordpool.txt	LTP110	ltpFR	14	3	-1	DIRECTOR	471	n/a	-1	n/a	n/a	n/a	n/a	n/a
395188	REC_WORD	wordpools/wasnorm_wordpool.txt	LTP110	ltpFR	14	3	-1	ACTRESS	6	n/a	-1	n/a	n/a	n/a	n/a	n/a
396106	REC_WORD	wordpools/wasnorm_wordpool.txt	LTP110	ltpFR	14	3	-1	BOTTLE	153	n/a	-1	n/a	n/a	n/a	n/a	n/a
396605	REC_WORD	wordpools/wasnorm_wordpool.txt	LTP110	ltpFR	14	3	-1	BRANDY	169	n/a	-1	n/a	n/a	n/a	n/a	n/a
397991	REC_WORD	wordpools/wasnorm_wordpool.txt	LTP110	ltpFR	14	3	-1	RIBBON	1189	n/a	-1	n/a	n/a	n/a	n/a	n/a
399698	REC_WORD	wordpools/wasnorm_wordpool.txt	LTP110	ltpFR	14	3	-1	KETCHUP	771	n/a	-1	n/a	n/a	n/a	n/a	n/a
401703	REC_WORD	wordpools/wasnorm_wordpool.txt	LTP110	ltpFR	14	3	-1	DETERGENT	455	n/a	-1	n/a	n/a	n/a	n/a	n/a
402541	REC_WORD	wordpools/wasnorm_wordpool.txt	LTP110	ltpFR	14	3	-1	FLOUR	583	n/a	-1	n/a	n/a	n/a	n/a	n/a
403245	REC_WORD	wordpools/wasnorm_wordpool.txt	LTP110	ltpFR	14	3	-1	SANDWICH	1232	n/a	-1	n/a	n/a	n/a	n/a	n/a
405016	REC_WORD	wordpools/wasnorm_wordpool.txt	LTP110	ltpFR	14	3	-1	TRIANGLE	1504	n/a	-1	n/a	n/a	n/a	n/a	n/a
407211	REC_WORD	wordpools/wasnorm_wordpool.txt	LTP110	ltpFR	14	3	-1	MARINE	869	n/a	-1	n/a	n/a	n/a	n/a	n/a
407949	REC_WORD	wordpools/wasnorm_wordpool.txt	LTP110	ltpFR	14	3	-1	ARMY	39	n/a	-1	n/a	n/a	n/a	n/a	n/a
408587	REC_WORD	wordpools/wasnorm_wordpool.txt	LTP110	ltpFR	14	3	-1	TUXEDO	1525	n/a	-1	n/a	n/a	n/a	n/a	n/a
415552	REC_WORD	wordpools/wasnorm_wordpool.txt	LTP110	ltpFR	14	3	-1	BLACKBERRY	132	n/a	-1	n/a	n/a	n/a	n/a	n/a
420031	REC_WORD	wordpools/wasnorm_wordpool.txt	LTP110	ltpFR	14	3	-1	CRUMB	416	n/a	-1	n/a	n/a	n/a	n/a	n/a
712878	WORD	wordpools/wasnorm_wordpool.txt	LTP110	ltpFR	14	4	1	DONKEY	484	n/a	1	1	0.412841796875	0.57763671875	upper	../fonts/amplitud.ttf
716909	WORD	wordpools/wasnorm_wordpool.txt	LTP110	ltpFR	14	4	1	ROCK	1201	n/a	0	1	0.412841796875	0.57763671875	upper	../fonts/amplitud.ttf
721091	WORD	wordpools/wasnorm_wordpool.txt	LTP110	ltpFR	14	4	1	BANQUET	86	n/a	0	1	0.412841796875	0.57763671875	upper	../fonts/amplitud.ttf
724915	WORD	wordpools/wasnorm_wordpool.txt	LTP110	ltpFR	14	4	1	VICTIM	1562	n/a	1	1	0.412841796875	0.57763671875	upper	../fonts/amplitud.ttf
728746	WORD	wordpools/wasnorm_wordpool.txt	LTP110	ltpFR	14	4	1	PRUNE	1134	n/a	0	1	0.412841796875	0.57763671875	upper	../fonts/amplitud.ttf
732728	WORD	wordpools/wasnorm_wordpool.txt	LTP110	ltpFR	14	4	1	CHERRY	293	n/a	0	1	0.412841796875	0.57763671875	upper	../fonts/amplitud.ttf
736660	WORD	wordpools/wasnorm_wordpool.txt	LTP110	ltpFR	14	4	1	CORAL	378	n/a	0	1	0.412841796875	0.57763671875	upper	../fonts/amplitud.ttf
740825	WORD	wordpools/wasnorm_wordpool.txt	LTP110	ltpFR	14	4	1	HOSTAGE	722	n/a	1	1	0.412841796875	0.57763671875	upper	../fonts/amplitud.ttf
744823	WORD	wordpools/wasnorm_wordpool.txt	LTP110	ltpFR	14	4	1	SHINGLE	1285	n/a	0	1	0.412841796875	0.57763671875	upper	../fonts/amplitud.ttf
749006	WORD	wordpools/wasnorm_wordpool.txt	LTP110	ltpFR	14	4	1	RASPBERRY	1168	n/a	0	1	0.412841796875	0.57763671875	upper	../fonts/amplitud.ttf
752855	WORD	wordpools/wasnorm_wordpool.txt	LTP110	ltpFR	14	4	1	BLUEBERRY	140	n/a	0	1	0.412841796875	0.57763671875	upper	../fonts/amplitud.ttf
756786	WORD	wordpools/wasnorm_wordpool.txt	LTP110	ltpFR	14	4	1	WALL	1582	n/a	0	1	0.412841796875	0.57763671875	upper	../fonts/amplitud.ttf
760776	WORD	wordpools/wasnorm_wordpool.txt	LTP110	ltpFR	14	4	1	DOLLAR	482	n/a	0	1	0.412841796875	0.57763671875	upper	../fonts/amplitud.ttf
764666	WORD	wordpools/wasnorm_wordpool.txt	LTP110	ltpFR	14	4	1	DRAGON	492	n/a	1	1	0.412841796875	0.57763671875	upper	../fonts/amplitud.ttf
768748	WORD	wordpools/wasnorm_wordpool.txt	LTP110	ltpFR	14	4	1	FIGHTER	564	n/a	1	1	0.412841796875	0.57763671875	upper	../fonts/amplitud.ttf
772755	WORD	wordpools/wasnorm_wordpool.txt	LTP110	ltpFR	14	4	1	RESTAURANT	1187	n/a	0	1	0.412841796875	0.57763671875	upper	../fonts/amplitud.ttf
778637	REC_START	n/a	LTP110	ltpFR	14	4	n/a	n/a	n/a	n/a	n/a	n/a	n/a	n/a	n/a	n/a
780009	REC_WORD	wordpools/wasnorm_wordpool.txt	LTP110	ltpFR	14	4	1	DRAGON	492	n/a	1	n/a	n/a	n/a	n/a	n/a
780777	REC_WORD	wordpools/wasnorm_wordpool.txt	LTP110	ltpFR	14	4	1	FIGHTER	564	n/a	1	n/a	n/a	n/a	n/a	n/a
781314	REC_WORD	wordpools/wasnorm_wordpool.txt	LTP110	ltpFR	14	4	1	RESTAURANT	1187	n/a	0	n/a	n/a	n/a	n/a	n/a
783022	REC_WORD	wordpools/wasnorm_wordpool.txt	LTP110	ltpFR	14	4	1	DONKEY	484	n/a	1	n/a	n/a	n/a	n/a	n/a
784698	REC_WORD	wordpools/wasnorm_wordpool.txt	LTP110	ltpFR	14	4	1	CORAL	378	n/a	0	n/a	n/a	n/a	n/a	n/a
788220	REC_WORD	wordpools/wasnorm_wordpool.txt	LTP110	ltpFR	14	4	1	BANQUET	86	n/a	0	n/a	n/a	n/a	n/a	n/a
790096	REC_WORD	wordpools/wasnorm_wordpool.txt	LTP110	ltpFR	14	4	1	RASPBERRY	1168	n/a	0	n/a	n/a	n/a	n/a	n/a
791004	REC_WORD	wordpools/wasnorm_wordpool.txt	LTP110	ltpFR	14	4	1	BLUEBERRY	140	n/a	0	n/a	n/a	n/a	n/a	n/a
796880	REC_WORD	wordpools/wasnorm_wordpool.txt	LTP110	ltpFR	14	4	1	BOULDER	155	n/a	0	n/a	n/a	n/a	n/a	n/a
804323	REC_WORD	wordpools/wasnorm_wordpool.txt	LTP110	ltpFR	14	4	1	WALL	1582	n/a	0	n/a	n/a	n/a	n/a	n/a
807157	REC_WORD	wordpools/wasnorm_wordpool.txt	LTP110	ltpFR	14	4	1	DONKEY	484	n/a	1	n/a	n/a	n/a	n/a	n/a
814560	REC_WORD	wordpools/wasnorm_wordpool.txt	LTP110	ltpFR	14	4	1	DRAGON	492	n/a	1	n/a	n/a	n/a	n/a	n/a
819589	REC_WORD	wordpools/wasnorm_wordpool.txt	LTP110	ltpFR	14	4	1	HOSTAGE	722	n/a	1	n/a	n/a	n/a	n/a	n/a
820547	REC_WORD	wordpools/wasnorm_wordpool.txt	LTP110	ltpFR	14	4	1	VICTIM	1562	n/a	1	n/a	n/a	n/a	n/a	n/a
823989	REC_WORD	wordpools/wasnorm_wordpool.txt	LTP110	ltpFR	14	4	n/a	PLATE	1086	n/a	n/a	n/a	n/a	n/a	n/a	n/a
830923	REC_WORD	wordpools/wasnorm_wordpool.txt	LTP110	ltpFR	14	4	1	BANQUET	86	n/a	0	n/a	n/a	n/a	n/a	n/a
844642	REC_WORD	wordpools/wasnorm_wordpool.txt	LTP110	ltpFR	14	4	1	CORAL	378	n/a	0	n/a	n/a	n/a	n/a	n/a
849157	REC_WORD	wordpools/wasnorm_wordpool.txt	LTP110	ltpFR	14	4	1	DOLLAR	482	n/a	0	n/a	n/a	n/a	n/a	n/a
867289	WORD	wordpools/wasnorm_wordpool.txt	LTP110	ltpFR	14	5	0	FLORIDA	582	n/a	1	0	0.5869140625	0.422607421875	lower	../fonts/zerothre.ttf
871271	WORD	wordpools/wasnorm_wordpool.txt	LTP110	ltpFR	14	5	0	HEART	697	n/a	0	0	0.5869140625	0.422607421875	lower	../fonts/zerothre.ttf
875278	WORD	wordpools/wasnorm_wordpool.txt	LTP110	ltpFR	14	5	1	CHEST	295	n/a	0	1	0.412841796875	0.57763671875	upper	../fonts/amplitud.ttf
879160	WORD	wordpools/wasnorm_wordpool.txt	LTP110	ltpFR	14	5	1	COMMITTEE	355	n/a	0	1	0.412841796875	0.57763671875	upper	../fonts/amplitud.ttf
883175	WORD	wordpools/wasnorm_wordpool.txt	LTP110	ltpFR	14	5	1	RACK	1154	n/a	0	1	0.412841796875	0.57763671875	upper	../fonts/amplitud.ttf
887324	WORD	wordpools/wasnorm_wordpool.txt	LTP110	ltpFR	14	5	1	ROBE	1198	n/a	0	1	0.412841796875	0.57763671875	upper	../fonts/amplitud.ttf
891406	WORD	wordpools/wasnorm_wordpool.txt	LTP110	ltpFR	14	5	0	PAW	1029	n/a	0	0	0.5869140625	0.422607421875	lower	../fonts/zerothre.ttf
895238	WORD	wordpools/wasnorm_wordpool.txt	LTP110	ltpFR	14	5	0	LOAF	835	n/a	0	0	0.5869140625	0.422607421875	lower	../fonts/zerothre.ttf
899228	WORD	wordpools/wasnorm_wordpool.txt	LTP110	ltpFR	14	5	0	LIZARD	834	n/a	1	0	0.5869140625	0.422607421875	lower	../fonts/zerothre.ttf
903427	WORD	wordpools/wasnorm_wordpool.txt	LTP110	ltpFR	14	5	1	COMPASS	358	n/a	0	1	0.412841796875	0.57763671875	upper	../fonts/amplitud.ttf
907275	WORD	wordpools/wasnorm_wordpool.txt	LTP110	ltpFR	14	5	1	FORT	595	n/a	0	1	0.412841796875	0.57763671875	upper	../fonts/amplitud.ttf
911440	WORD	wordpools/wasnorm_wordpool.txt	LTP110	ltpFR	14	5	1	SAILOR	1223	n/a	1	1	0.412841796875	0.57763671875	upper	../fonts/amplitud.ttf
915630	WORD	wordpools/wasnorm_wordpool.txt	LTP110	ltpFR	14	5	1	CREW	406	n/a	1	1	0.412841796875	0.57763671875	upper	../fonts/amplitud.ttf
919628	WORD	wordpools/wasnorm_wordpool.txt	LTP110	ltpFR	14	5	0	INDIAN	736	n/a	1	0	0.5869140625	0.422607421875	lower	../fonts/zerothre.ttf
923561	WORD	wordpools/wasnorm_wordpool.txt	LTP110	ltpFR	14	5	0	COBRA	336	n/a	1	0	0.5869140625	0.422607421875	lower	../fonts/zerothre.ttf
927451	WORD	wordpools/wasnorm_wordpool.txt	LTP110	ltpFR	14	5	0	TOOTH	1481	n/a	0	0	0.5869140625	0.422607421875	lower	../fonts/zerothre.ttf
933425	REC_START	n/a	LTP110	ltpFR	14	5	n/a	n/a	n/a	n/a	n/a	n/a	n/a	n/a	n/a	n/a
934767	REC_WORD	wordpools/wasnorm_wordpool.txt	LTP110	ltpFR	14	5	0	COBRA	336	n/a	1	n/a	n/a	n/a	n/a	n/a
935534	REC_WORD	wordpools/wasnorm_wordpool.txt	LTP110	ltpFR	14	5	n/a	REPTILE	1185	n/a	n/a	n/a	n/a	n/a	n/a	n/a
936363	REC_WORD	wordpools/wasnorm_wordpool.txt	LTP110	ltpFR	14	5	0	TOOTH	1481	n/a	0	n/a	n/a	n/a	n/a	n/a
937770	REC_WORD	wordpools/wasnorm_wordpool.txt	LTP110	ltpFR	14	5	1	SAILOR	1223	n/a	1	n/a	n/a	n/a	n/a	n/a
939237	REC_WORD	wordpools/wasnorm_wordpool.txt	LTP110	ltpFR	14	5	1	FORT	595	n/a	0	n/a	n/a	n/a	n/a	n/a
940055	REC_WORD	wordpools/wasnorm_wordpool.txt	LTP110	ltpFR	14	5	1	CREW	406	n/a	1	n/a	n/a	n/a	n/a	n/a
941432	REC_WORD	wordpools/wasnorm_wordpool.txt	LTP110	ltpFR	14	5	1	COMPASS	358	n/a	0	n/a	n/a	n/a	n/a	n/a
942320	REC_WORD	wordpools/wasnorm_wordpool.txt	LTP110	ltpFR	14	5	0	FLORIDA	582	n/a	1	n/a	n/a	n/a	n/a	n/a
943116	REC_WORD	wordpools/wasnorm_wordpool.txt	LTP110	ltpFR	14	5	0	HEART	697	n/a	0	n/a	n/a	n/a	n/a	n/a
944584	REC_WORD	wordpools/wasnorm_wordpool.txt	LTP110	ltpFR	14	5	1	RACK	1154	n/a	0	n/a	n/a	n/a	n/a	n/a
949563	REC_WORD	wordpools/wasnorm_wordpool.txt	LTP110	ltpFR	14	5	1	COMMITTEE	355	n/a	0	n/a	n/a	n/a	n/a	n/a
951369	REC_WORD	wordpools/wasnorm_wordpool.txt	LTP110	ltpFR	14	5	1	ROBE	1198	n/a	0	n/a	n/a	n/a	n/a	n/a
952526	REC_WORD	wordpools/wasnorm_wordpool.txt	LTP110	ltpFR	14	5	1	CHEST	295	n/a	0	n/a	n/a	n/a	n/a	n/a
957515	REC_WORD	wordpools/wasnorm_wordpool.txt	LTP110	ltpFR	14	5	0	HEART	697	n/a	0	n/a	n/a	n/a	n/a	n/a
964669	REC_WORD	wordpools/wasnorm_wordpool.txt	LTP110	ltpFR	14	5	0	LOAF	835	n/a	0	n/a	n/a	n/a	n/a	n/a
977744	REC_WORD	wordpools/wasnorm_wordpool.txt	LTP110	ltpFR	14	5	1	CORAL	378	n/a	0	n/a	n/a	n/a	n/a	n/a
982149	REC_WORD	wordpools/wasnorm_wordpool.txt	LTP110	ltpFR	14	5	0	HEART	697	n/a	0	n/a	n/a	n/a	n/a	n/a
991119	REC_WORD	wordpools/wasnorm_wordpool.txt	LTP110	ltpFR	14	5	0	TOOTH	1481	n/a	0	n/a	n/a	n/a	n/a	n/a
997335	REC_WORD	wordpools/wasnorm_wordpool.txt	LTP110	ltpFR	14	5	n/a	REPTILE	1185	n/a	n/a	n/a	n/a	n/a	n/a	n/a
1016819	WORD	wordpools/wasnorm_wordpool.txt	LTP110	ltpFR	14	6	0	TOOTHBRUSH	1482	n/a	0	0	0.5869140625	0.422607421875	lower	../fonts/zerothre.ttf
1020709	WORD	wordpools/wasnorm_wordpool.txt	LTP110	ltpFR	14	6	0	AWARD	63	n/a	0	0	0.5869140625	0.422607421875	lower	../fonts/zerothre.ttf
1024567	WORD	wordpools/wasnorm_wordpool.txt	LTP110	ltpFR	14	6	0	WINE	1613	n/a	1	0	0.5869140625	0.422607421875	lower	../fonts/zerothre.ttf
1028457	WORD	wordpools/wasnorm_wordpool.txt	LTP110	ltpFR	14	6	0	PEAR	1033	n/a	0	0	0.5869140625	0.422607421875	lower	../fonts/zerothre.ttf
1032671	WORD	wordpools/wasnorm_wordpool.txt	LTP110	ltpFR	14	6	0	CHIMPANZEE	302	n/a	1	0	0.5869140625	0.422607421875	lower	../fonts/zerothre.ttf
1036863	WORD	wordpools/wasnorm_wordpool.txt	LTP110	ltpFR	14	6	0	TYPEWRITER	1531	n/a	1	0	0.5869140625	0.422607421875	lower	../fonts/zerothre.ttf
1041044	WORD	wordpools/wasnorm_wordpool.txt	LTP110	ltpFR	14	6	0	CHAMPION	279	n/a	1	0	0.5869140625	0.422607421875	lower	../fonts/zerothre.ttf
1045035	WORD	wordpools/wasnorm_wordpool.txt	LTP110	ltpFR	14	6	0	BARLEY	88	n/a	0	0	0.5869140625	0.422607421875	lower	../fonts/zerothre.ttf
1049025	WORD	wordpools/wasnorm_wordpool.txt	LTP110	ltpFR	14	6	0	COLLEGE	346	n/a	1	0	0.5869140625	0.422607421875	lower	../fonts/zerothre.ttf
1052990	WORD	wordpools/wasnorm_wordpool.txt	LTP110	ltpFR	14	6	0	HOE	711	n/a	1	0	0.5869140625	0.422607421875	lower	../fonts/zerothre.ttf
1057122	WORD	wordpools/wasnorm_wordpool.txt	LTP110	ltpFR	14	6	0	PAPER	1011	n/a	0	0	0.5869140625	0.422607421875	lower	../fonts/zerothre.ttf
1061329	WORD	wordpools/wasnorm_wordpool.txt	LTP110	ltpFR	14	6	0	CARAVAN	242	n/a	1	0	0.5869140625	0.422607421875	lower	../fonts/zerothre.ttf
1065169	WORD	wordpools/wasnorm_wordpool.txt	LTP110	ltpFR	14	6	0	RADIATOR	1156	n/a	1	0	0.5869140625	0.422607421875	lower	../fonts/zerothre.ttf
1069143	WORD	wordpools/wasnorm_wordpool.txt	LTP110	ltpFR	14	6	0	TURNIP	1521	n/a	0	0	0.5869140625	0.422607421875	lower	../fonts/zerothre.ttf
1072966	WORD	wordpools/wasnorm_wordpool.txt	LTP110	ltpFR	14	6	0	DILL	465	n/a	0	0	0.5869140625	0.422607421875	lower	../fonts/zerothre.ttf
1076982	WORD	wordpools/wasnorm_wordpool.txt	LTP110	ltpFR	14	6	0	STAFF	1365	n/a	1	0	0.5869140625	0.422607421875	lower	../fonts/zerothre.ttf
1082813	REC_START	n/a	LTP110	ltpFR	14	6	n/a	n/a	n/a	n/a	n/a	n/a	n/a	n/a	n/a	n/a
1084364	REC_WORD	wordpools/wasnorm_wordpool.txt	LTP110	ltpFR	14	6	0	DILL	465	n/a	0	n/a	n/a	n/a	n/a	n/a
1084803	REC_WORD	wordpools/wasnorm_wordpool.txt	LTP110	ltpFR	14	6	0	TURNIP	1521	n/a	0	n/a	n/a	n/a	n/a	n/a
1085333	REC_WORD	wordpools/wasnorm_wordpool.txt	LTP110	ltpFR	14	6	0	STAFF	1365	n/a	1	n/a	n/a	n/a	n/a	n/a
1086968	REC_WORD	wordpools/wasnorm_wordpool.txt	LTP110	ltpFR	14	6	0	PEAR	1033	n/a	0	n/a	n/a	n/a	n/a	n/a
1087661	REC_WORD	wordpools/wasnorm_wordpool.txt	LTP110	ltpFR	14	6	0	WINE	1613	n/a	1	n/a	n/a	n/a	n/a	n/a
1090031	REC_WORD	wordpools/wasnorm_wordpool.txt	LTP110	ltpFR	14	6	0	COLLEGE	346	n/a	1	n/a	n/a	n/a	n/a	n/a
1093414	REC_WORD	wordpools/wasnorm_wordpool.txt	LTP110	ltpFR	14	6	0	HOE	711	n/a	1	n/a	n/a	n/a	n/a	n/a
1099809	REC_WORD	wordpools/wasnorm_wordpool.txt	LTP110	ltpFR	14	6	0	INDIAN	736	n/a	1	n/a	n/a	n/a	n/a	n/a
1106304	REC_WORD	wordpools/wasnorm_wordpool.txt	LTP110	ltpFR	14	6	0	PAPER	1011	n/a	0	n/a	n/a	n/a	n/a	n/a
1110974	REC_WORD	wordpools/wasnorm_wordpool.txt	LTP110	ltpFR	14	6	0	COLLEGE	346	n/a	1	n/a	n/a	n/a	n/a	n/a
1118596	REC_WORD	wordpools/wasnorm_wordpool.txt	LTP110	ltpFR	14	6	0	PEAR	1033	n/a	0	n/a	n/a	n/a	n/a	n/a
1131173	REC_WORD	wordpools/wasnorm_wordpool.txt	LTP110	ltpFR	14	6	0	DILL	465	n/a	0	n/a	n/a	n/a	n/a	n/a
1143599	REC_WORD	wordpools/wasnorm_wordpool.txt	LTP110	ltpFR	14	6	1	COMMITTEE	355	n/a	0	n/a	n/a	n/a	n/a	n/a
1155772	REC_WORD	wordpools/wasnorm_wordpool.txt	LTP110	ltpFR	14	6	0	COLLEGE	346	n/a	1	n/a	n/a	n/a	n/a	n/a
1164101	WORD	wordpools/wasnorm_wordpool.txt	LTP110	ltpFR	14	7	0	ULCER	1533	n/a	0	0	0.5869140625	0.422607421875	lower	../fonts/zerothre.ttf
1168283	WORD	wordpools/wasnorm_wordpool.txt	LTP110	ltpFR	14	7	0	CACTUS	215	n/a	1	0	0.5869140625	0.422607421875	lower	../fonts/zerothre.ttf
1172098	WORD	wordpools/wasnorm_wordpool.txt	LTP110	ltpFR	14	7	0	BULLY	196	n/a	1	0	0.5869140625	0.422607421875	lower	../fonts/zerothre.ttf
1176072	WORD	wordpools/wasnorm_wordpool.txt	LTP110	ltpFR	14	7	0	PRINCESS	1125	n/a	1	0	0.5869140625	0.422607421875	lower	../fonts/zerothre.ttf
1180112	WORD	wordpools/wasnorm_wordpool.txt	LTP110	ltpFR	14	7	0	DEODORANT	448	n/a	0	0	0.5869140625	0.422607421875	lower	../fonts/zerothre.ttf
1184069	WORD	wordpools/wasnorm_wordpool.txt	LTP110	ltpFR	14	7	0	MAMMAL	861	n/a	1	0	0.5869140625	0.422607421875	lower	../fonts/zerothre.ttf
1188176	WORD	wordpools/wasnorm_wordpool.txt	LTP110	ltpFR	14	7	0	SHOVEL	1295	n/a	0	0	0.5869140625	0.422607421875	lower	../fonts/zerothre.ttf
1192124	WORD	wordpools/wasnorm_wordpool.txt	LTP110	ltpFR	14	7	0	DIRT	472	n/a	0	0	0.5869140625	0.422607421875	lower	../fonts/zerothre.ttf
1196056	WORD	wordpools/wasnorm_wordpool.txt	LTP110	ltpFR	14	7	0	SPACE	1345	n/a	1	0	0.5869140625	0.422607421875	lower	../fonts/zerothre.ttf
1199946	WORD	wordpools/wasnorm_wordpool.txt	LTP110	ltpFR	14	7	0	HERB	704	n/a	0	0	0.5869140625	0.422607421875	lower	../fonts/zerothre.ttf
1204095	WORD	wordpools/wasnorm_wordpool.txt	LTP110	ltpFR	14	7	0	CAT	257	n/a	1	0	0.5869140625	0.422607421875	lower	../fonts/zerothre.ttf
1208277	WORD	wordpools/wasnorm_wordpool.txt	LTP110	ltpFR	14	7	0	UNIVERSE	1540	n/a	1	0	0.5869140625	0.422607421875	lower	../fonts/zerothre.ttf
1212434	WORD	wordpools/wasnorm_wordpool.txt	LTP110	ltpFR	14	7	0	GEM	629	n/a	0	0	0.5869140625	0.422607421875	lower	../fonts/zerothre.ttf
1216274	WORD	wordpools/wasnorm_wordpool.txt	LTP110	ltpFR	14	7	0	CLOVE	329	n/a	0	0	0.5869140625	0.422607421875	lower	../fonts/zerothre.ttf
1220339	WORD	wordpools/wasnorm_wordpool.txt	LTP110	ltpFR	14	7	0	POSSUM	1112	n/a	1	0	0.5869140625	0.422607421875	lower	../fonts/zerothre.ttf
1224504	WORD	wordpools/wasnorm_wordpool.txt	LTP110	ltpFR	14	7	0	PORCUPINE	1107	n/a	1	0	0.5869140625	0.422607421875	lower	../fonts/zerothre.ttf
1230170	REC_START	n/a	LTP110	ltpFR	14	7	n/a	n/a	n/a	n/a	n/a	n/a	n/a	n/a	n/a	n/a
1231472	REC_WORD	wordpools/wasnorm_wordpool.txt	LTP110	ltpFR	14	7	0	CAT	257	n/a	1	n/a	n/a	n/a	n/a	n/a
1232001	REC_WORD	wordpools/wasnorm_wordpool.txt	LTP110	ltpFR	14	7	0	MAMMAL	861	n/a	1	n/a	n/a	n/a	n/a	n/a
1232729	REC_WORD	wordpools/wasnorm_wordpool.txt	LTP110	ltpFR	14	7	0	POSSUM	1112	n/a	1	n/a	n/a	n/a	n/a	n/a
1233407	REC_WORD	wordpools/wasnorm_wordpool.txt	LTP110	ltpFR	14	7	0	PORCUPINE	1107	n/a	1	n/a	n/a	n/a	n/a	n/a
1235782	REC_WORD	wordpools/wasnorm_wordpool.txt	LTP110	ltpFR	14	7	0	CACTUS	215	n/a	1	n/a	n/a	n/a	n/a	n/a
1237528	REC_WORD	wordpools/wasnorm_wordpool.txt	LTP110	ltpFR	14	7	0	PRINCESS	1125	n/a	1	n/a	n/a	n/a	n/a	n/a
1238436	REC_WORD	wordpools/wasnorm_wordpool.txt	LTP110	ltpFR	14	7	0	BULLY	196	n/a	1	n/a	n/a	n/a	n/a	n/a
1239080	REC_WORD	wordpools/wasnorm_wordpool.txt	LTP110	ltpFR	14	7	0	ULCER	1533	n/a	0	n/a	n/a	n/a	n/a	n/a
1241679	REC_WORD	wordpools/wasnorm_wordpool.txt	LTP110	ltpFR	14	7	0	CACTUS	215	n/a	1	n/a	n/a	n/a	n/a	n/a
1252694	REC_WORD	wordpools/wasnorm_wordpool.txt	LTP110	ltpFR	14	7	0	MAMMAL	861	n/a	1	n/a	n/a	n/a	n/a	n/a
1256325	REC_WORD	wordpools/wasnorm_wordpool.txt	LTP110	ltpFR	14	7	0	GEM	629	n/a	0	n/a	n/a	n/a	n/a	n/a
1261354	REC_WORD	wordpools/wasnorm_wordpool.txt	LTP110	ltpFR	14	7	1	JEWEL	757	n/a	0	n/a	n/a	n/a	n/a	n/a
1269755	REC_WORD	wordpools/wasnorm_wordpool.txt	LTP110	ltpFR	14	7	0	MAMMAL	861	n/a	1	n/a	n/a	n/a	n/a	n/a
1282905	REC_WORD	wordpools/wasnorm_wordpool.txt	LTP110	ltpFR	14	7	0	PORCUPINE	1107	n/a	1	n/a	n/a	n/a	n/a	n/a
1289570	REC_WORD	wordpools/wasnorm_wordpool.txt	LTP110	ltpFR	14	7	0	DIRT	472	n/a	0	n/a	n/a	n/a	n/a	n/a
1290268	REC_WORD	wordpools/wasnorm_wordpool.txt	LTP110	ltpFR	14	7	0	SHOVEL	1295	n/a	0	n/a	n/a	n/a	n/a	n/a
1293421	REC_WORD	wordpools/wasnorm_wordpool.txt	LTP110	ltpFR	14	7	0	HOE	711	n/a	1	n/a	n/a	n/a	n/a	n/a
1296993	REC_WORD	wordpools/wasnorm_wordpool.txt	LTP110	ltpFR	14	7	0	HERB	704	n/a	0	n/a	n/a	n/a	n/a	n/a
1297871	REC_WORD	wordpools/wasnorm_wordpool.txt	LTP110	ltpFR	14	7	0	CLOVE	329	n/a	0	n/a	n/a	n/a	n/a	n/a
1309458	WORD	wordpools/wasnorm_wordpool.txt	LTP110	ltpFR	14	8	1	LOLLIPOP	842	n/a	0	1	0.412841796875	0.57763671875	upper	../fonts/amplitud.ttf
1313539	WORD	wordpools/wasnorm_wordpool.txt	LTP110	ltpFR	14	8	1	GOVERNOR	651	n/a	1	1	0.412841796875	0.57763671875	upper	../fonts/amplitud.ttf
1317670	WORD	wordpools/wasnorm_wordpool.txt	LTP110	ltpFR	14	8	1	PATIENT	1024	n/a	1	1	0.412841796875	0.57763671875	upper	../fonts/amplitud.ttf
1321545	WORD	wordpools/wasnorm_wordpool.txt	LTP110	ltpFR	14	8	1	PHYSICIAN	1056	n/a	1	1	0.412841796875	0.57763671875	upper	../fonts/amplitud.ttf
1325419	WORD	wordpools/wasnorm_wordpool.txt	LTP110	ltpFR	14	8	0	CASTLE	256	n/a	1	0	0.5869140625	0.422607421875	lower	../fonts/zerothre.ttf
1329576	WORD	wordpools/wasnorm_wordpool.txt	LTP110	ltpFR	14	8	0	SEA	1259	n/a	1	0	0.5869140625	0.422607421875	lower	../fonts/zerothre.ttf
1333698	WORD	wordpools/wasnorm_wordpool.txt	LTP110	ltpFR	14	8	0	NOTEBOOK	959	n/a	0	0	0.5869140625	0.422607421875	lower	../fonts/zerothre.ttf
1337881	WORD	wordpools/wasnorm_wordpool.txt	LTP110	ltpFR	14	8	0	PIE	1062	n/a	1	0	0.5869140625	0.422607421875	lower	../fonts/zerothre.ttf
1341888	WORD	wordpools/wasnorm_wordpool.txt	LTP110	ltpFR	14	8	1	PARENT	1013	n/a	1	1	0.412841796875	0.57763671875	upper	../fonts/amplitud.ttf
1345995	WORD	wordpools/wasnorm_wordpool.txt	LTP110	ltpFR	14	8	1	FOLDER	588	n/a	0	1	0.412841796875	0.57763671875	upper	../fonts/amplitud.ttf
1349943	WORD	wordpools/wasnorm_wordpool.txt	LTP110	ltpFR	14	8	0	CANE	231	n/a	1	0	0.5869140625	0.422607421875	lower	../fonts/zerothre.ttf
1354042	WORD	wordpools/wasnorm_wordpool.txt	LTP110	ltpFR	14	8	0	LABEL	790	n/a	0	0	0.5869140625	0.422607421875	lower	../fonts/zerothre.ttf
1357890	WORD	wordpools/wasnorm_wordpool.txt	LTP110	ltpFR	14	8	0	DIVER	476	n/a	1	0	0.5869140625	0.422607421875	lower	../fonts/zerothre.ttf
1361889	WORD	wordpools/wasnorm_wordpool.txt	LTP110	ltpFR	14	8	0	PUMP	1141	n/a	1	0	0.5869140625	0.422607421875	lower	../fonts/zerothre.ttf
1365703	WORD	wordpools/wasnorm_wordpool.txt	LTP110	ltpFR	14	8	1	CHOCOLATE	306	n/a	0	1	0.412841796875	0.57763671875	upper	../fonts/amplitud.ttf
1369520	WORD	wordpools/wasnorm_wordpool.txt	LTP110	ltpFR	14	8	1	PUDDING	1139	n/a	0	1	0.412841796875	0.57763671875	upper	../fonts/amplitud.ttf
1375510	REC_START	n/a	LTP110	ltpFR	14	8	n/a	n/a	n/a	n/a	n/a	n/a	n/a	n/a	n/a	n/a
1376483	REC_WORD	wordpools/wasnorm_wordpool.txt	LTP110	ltpFR	14	8	1	CHOCOLATE	306	n/a	0	n/a	n/a	n/a	n/a	n/a
1377261	REC_WORD	wordpools/wasnorm_wordpool.txt	LTP110	ltpFR	14	8	1	PUDDING	1139	n/a	0	n/a	n/a	n/a	n/a	n/a
1378109	REC_WORD	wordpools/wasnorm_wordpool.txt	LTP110	ltpFR	14	8	0	PIE	1062	n/a	1	n/a	n/a	n/a	n/a	n/a
1379556	REC_WORD	wordpools/wasnorm_wordpool.txt	LTP110	ltpFR	14	8	1	LOLLIPOP	842	n/a	0	n/a	n/a	n/a	n/a	n/a
1381247	REC_WORD	wordpools/wasnorm_wordpool.txt	LTP110	ltpFR	14	8	1	GOVERNOR	651	n/a	1	n/a	n/a	n/a	n/a	n/a
1382010	REC_WORD	wordpools/wasnorm_wordpool.txt	LTP110	ltpFR	14	8	0	CASTLE	256	n/a	1	n/a	n/a	n/a	n/a	n/a
1382778	REC_WORD	wordpools/wasnorm_wordpool.txt	LTP110	ltpFR	14	8	0	SEA	1259	n/a	1	n/a	n/a	n/a	n/a	n/a
1384345	REC_WORD	wordpools/wasnorm_wordpool.txt	LTP110	ltpFR	14	8	1	CORAL	378	n/a	0	n/a	n/a	n/a	n/a	n/a
1389084	REC_WORD	wordpools/wasnorm_wordpool.txt	LTP110	ltpFR	14	8	1	PHYSICIAN	1056	n/a	1	n/a	n/a	n/a	n/a	n/a
1390027	REC_WORD	wordpools/wasnorm_wordpool.txt	LTP110	ltpFR	14	8	1	PATIENT	1024	n/a	1	n/a	n/a	n/a	n/a	n/a
1392855	REC_WORD	wordpools/wasnorm_wordpool.txt	LTP110	ltpFR	14	8	0	NOTEBOOK	959	n/a	0	n/a	n/a	n/a	n/a	n/a
1394162	REC_WORD	wordpools/wasnorm_wordpool.txt	LTP110	ltpFR	14	8	0	LABEL	790	n/a	0	n/a	n/a	n/a	n/a	n/a
1395001	REC_WORD	wordpools/wasnorm_wordpool.txt	LTP110	ltpFR	14	8	1	PARENT	1013	n/a	1	n/a	n/a	n/a	n/a	n/a
1399550	REC_WORD	wordpools/wasnorm_wordpool.txt	LTP110	ltpFR	14	8	0	NOTEBOOK	959	n/a	0	n/a	n/a	n/a	n/a	n/a
1404569	REC_WORD	wordpools/wasnorm_wordpool.txt	LTP110	ltpFR	14	8	1	FOLDER	588	n/a	0	n/a	n/a	n/a	n/a	n/a
1416631	REC_WORD	wordpools/wasnorm_wordpool.txt	LTP110	ltpFR	14	8	0	LABEL	790	n/a	0	n/a	n/a	n/a	n/a	n/a
1425591	REC_WORD	wordpools/wasnorm_wordpool.txt	LTP110	ltpFR	14	8	1	CORAL	378	n/a	0	n/a	n/a	n/a	n/a	n/a
1441245	REC_WORD	wordpools/wasnorm_wordpool.txt	LTP110	ltpFR	14	8	1	BUTCHER	203	n/a	1	n/a	n/a	n/a	n/a	n/a
1466751	WORD	wordpools/wasnorm_wordpool.txt	LTP110	ltpFR	14	9	0	WAGON	1578	n/a	1	0	0.5869140625	0.422607421875	lower	../fonts/zerothre.ttf
1470624	WORD	wordpools/wasnorm_wordpool.txt	LTP110	ltpFR	14	9	0	ZEBRA	1635	n/a	1	0	0.5869140625	0.422607421875	lower	../fonts/zerothre.ttf
1474499	WORD	wordpools/wasnorm_wordpool.txt	LTP110	ltpFR	14	9	0	RAZOR	1171	n/a	0	0	0.5869140625	0.422607421875	lower	../fonts/zerothre.ttf
1478697	WORD	wordpools/wasnorm_wordpool.txt	LTP110	ltpFR	14	9	0	CONSOLE	364	n/a	1	0	0.5869140625	0.422607421875	lower	../fonts/zerothre.ttf
1482729	WORD	wordpools/wasnorm_wordpool.txt	LTP110	ltpFR	14	9	0	CARDINAL	244	n/a	1	0	0.5869140625	0.422607421875	lower	../fonts/zerothre.ttf
1486886	WORD	wordpools/wasnorm_wordpool.txt	LTP110	ltpFR	14	9	0	SHEEP	1278	n/a	1	0	0.5869140625	0.422607421875	lower	../fonts/zerothre.ttf
1490960	WORD	wordpools/wasnorm_wordpool.txt	LTP110	ltpFR	14	9	0	SHRIMP	1297	n/a	0	0	0.5869140625	0.422607421875	lower	../fonts/zerothre.ttf
1494858	WORD	wordpools/wasnorm_wordpool.txt	LTP110	ltpFR	14	9	0	BUGGY	188	n/a	1	0	0.5869140625	0.422607421875	lower	../fonts/zerothre.ttf
1498714	WORD	wordpools/wasnorm_wordpool.txt	LTP110	ltpFR	14	9	0	KITE	779	n/a	0	0	0.5869140625	0.422607421875	lower	../fonts/zerothre.ttf
1502564	WORD	wordpools/wasnorm_wordpool.txt	LTP110	ltpFR	14	9	0	BOOK	149	n/a	0	0	0.5869140625	0.422607421875	lower	../fonts/zerothre.ttf
1506521	WORD	wordpools/wasnorm_wordpool.txt	LTP110	ltpFR	14	9	0	PARROT	1015	n/a	1	0	0.5869140625	0.422607421875	lower	../fonts/zerothre.ttf
1510578	WORD	wordpools/wasnorm_wordpool.txt	LTP110	ltpFR	14	9	0	OCTOPUS	971	n/a	1	0	0.5869140625	0.422607421875	lower	../fonts/zerothre.ttf
1514734	WORD	wordpools/wasnorm_wordpool.txt	LTP110	ltpFR	14	9	0	FEATHER	557	n/a	0	0	0.5869140625	0.422607421875	lower	../fonts/zerothre.ttf
1518807	WORD	wordpools/wasnorm_wordpool.txt	LTP110	ltpFR	14	9	0	BLUEJAY	141	n/a	0	0	0.5869140625	0.422607421875	lower	../fonts/zerothre.ttf
1522714	WORD	wordpools/wasnorm_wordpool.txt	LTP110	ltpFR	14	9	0	MILDEW	893	n/a	0	0	0.5869140625	0.422607421875	lower	../fonts/zerothre.ttf
1526755	WORD	wordpools/wasnorm_wordpool.txt	LTP110	ltpFR	14	9	0	TOAD	1470	n/a	0	0	0.5869140625	0.422607421875	lower	../fonts/zerothre.ttf
1532645	REC_START	n/a	LTP110	ltpFR	14	9	n/a	n/a	n/a	n/a	n/a	n/a	n/a	n/a	n/a	n/a
1533857	REC_WORD	wordpools/wasnorm_wordpool.txt	LTP110	ltpFR	14	9	0	MILDEW	893	n/a	0	n/a	n/a	n/a	n/a	n/a
1534730	REC_WORD	wordpools/wasnorm_wordpool.txt	LTP110	ltpFR	14	9	0	TOAD	1470	n/a	0	n/a	n/a	n/a	n/a	n/a
1536401	REC_WORD	wordpools/wasnorm_wordpool.txt	LTP110	ltpFR	14	9	0	BUGGY	188	n/a	1	n/a	n/a	n/a	n/a	n/a
1537152	REC_WORD	wordpools/wasnorm_wordpool.txt	LTP110	ltpFR	14	9	0	WAGON	1578	n/a	1	n/a	n/a	n/a	n/a	n/a
1539569	REC_WORD	wordpools/wasnorm_wordpool.txt	LTP110	ltpFR	14	9	0	ZEBRA	1635	n/a	1	n/a	n/a	n/a	n/a	n/a
1541530	REC_WORD	wordpools/wasnorm_wordpool.txt	LTP110	ltpFR	14	9	0	SHRIMP	1297	n/a	0	n/a	n/a	n/a	n/a	n/a
1543026	REC_WORD	wordpools/wasnorm_wordpool.txt	LTP110	ltpFR	14	9	0	SHEEP	1278	n/a	1	n/a	n/a	n/a	n/a	n/a
1545161	REC_WORD	wordpools/wasnorm_wordpool.txt	LTP110	ltpFR	14	9	0	RAZOR	1171	n/a	0	n/a	n/a	n/a	n/a	n/a
1560896	REC_WORD	wordpools/wasnorm_wordpool.txt	LTP110	ltpFR	14	9	1	DONKEY	484	n/a	1	n/a	n/a	n/a	n/a	n/a
1582077	REC_WORD	wordpools/wasnorm_wordpool.txt	LTP110	ltpFR	14	9	0	SHRIMP	1297	n/a	0	n/a	n/a	n/a	n/a	n/a
1585989	REC_WORD	wordpools/wasnorm_wordpool.txt	LTP110	ltpFR	14	9	0	BOOK	149	n/a	0	n/a	n/a	n/a	n/a	n/a
1587814	REC_WORD	wordpools/wasnorm_wordpool.txt	LTP110	ltpFR	14	9	0	FEATHER	557	n/a	0	n/a	n/a	n/a	n/a	n/a
1588712	REC_WORD	wordpools/wasnorm_wordpool.txt	LTP110	ltpFR	14	9	0	CARDINAL	244	n/a	1	n/a	n/a	n/a	n/a	n/a
1590887	REC_WORD	wordpools/wasnorm_wordpool.txt	LTP110	ltpFR	14	9	0	BLUEJAY	141	n/a	0	n/a	n/a	n/a	n/a	n/a
1611724	WORD	wordpools/wasnorm_wordpool.txt	LTP110	ltpFR	14	10	1	SEAT	1264	n/a	0	1	0.412841796875	0.57763671875	upper	../fonts/amplitud.ttf
1615665	WORD	wordpools/wasnorm_wordpool.txt	LTP110	ltpFR	14	10	1	TABLE	1426	n/a	0	1	0.412841796875	0.57763671875	upper	../fonts/amplitud.ttf
1619788	WORD	wordpools/wasnorm_wordpool.txt	LTP110	ltpFR	14	10	1	COUNTY	389	n/a	0	1	0.412841796875	0.57763671875	upper	../fonts/amplitud.ttf
1623712	WORD	wordpools/wasnorm_wordpool.txt	LTP110	ltpFR	14	10	1	MOOSE	915	n/a	1	1	0.412841796875	0.57763671875	upper	../fonts/amplitud.ttf
1627744	WORD	wordpools/wasnorm_wordpool.txt	LTP110	ltpFR	14	10	0	ROOST	1208	n/a	0	0	0.5869140625	0.422607421875	lower	../fonts/zerothre.ttf
1631809	WORD	wordpools/wasnorm_wordpool.txt	LTP110	ltpFR	14	10	0	ATOM	55	n/a	0	0	0.5869140625	0.422607421875	lower	../fonts/zerothre.ttf
1635816	WORD	wordpools/wasnorm_wordpool.txt	LTP110	ltpFR	14	10	0	NUCLEUS	961	n/a	0	0	0.5869140625	0.422607421875	lower	../fonts/zerothre.ttf
1639723	WORD	wordpools/wasnorm_wordpool.txt	LTP110	ltpFR	14	10	0	BANDAGE	79	n/a	0	0	0.5869140625	0.422607421875	lower	../fonts/zerothre.ttf
1643821	WORD	wordpools/wasnorm_wordpool.txt	LTP110	ltpFR	14	10	0	VILLAGE	1566	n/a	1	0	0.5869140625	0.422607421875	lower	../fonts/zerothre.ttf
1648004	WORD	wordpools/wasnorm_wordpool.txt	LTP110	ltpFR	14	10	1	BISON	131	n/a	1	1	0.412841796875	0.57763671875	upper	../fonts/amplitud.ttf
1652020	WORD	wordpools/wasnorm_wordpool.txt	LTP110	ltpFR	14	10	1	BULL	193	n/a	1	1	0.412841796875	0.57763671875	upper	../fonts/amplitud.ttf
1656076	WORD	wordpools/wasnorm_wordpool.txt	LTP110	ltpFR	14	10	1	STEREO	1378	n/a	0	1	0.412841796875	0.57763671875	upper	../fonts/amplitud.ttf
1660150	WORD	wordpools/wasnorm_wordpool.txt	LTP110	ltpFR	14	10	1	STRING	1394	n/a	0	1	0.412841796875	0.57763671875	upper	../fonts/amplitud.ttf
1663982	WORD	wordpools/wasnorm_wordpool.txt	LTP110	ltpFR	14	10	0	PATIO	1025	n/a	1	0	0.5869140625	0.422607421875	lower	../fonts/zerothre.ttf
1668147	WORD	wordpools/wasnorm_wordpool.txt	LTP110	ltpFR	14	10	0	MAILMAN	858	n/a	1	0	0.5869140625	0.422607421875	lower	../fonts/zerothre.ttf
1672112	WORD	wordpools/wasnorm_wordpool.txt	LTP110	ltpFR	14	10	0	TERRITORY	1452	n/a	1	0	0.5869140625	0.422607421875	lower	../fonts/zerothre.ttf
1678011	REC_START	n/a	LTP110	ltpFR	14	10	n/a	n/a	n/a	n/a	n/a	n/a	n/a	n/a	n/a	n/a
1679313	REC_WORD	wordpools/wasnorm_wordpool.txt	LTP110	ltpFR	14	10	0	TERRITORY	1452	n/a	1	n/a	n/a	n/a	n/a	n/a
1680311	REC_WORD	wordpools/wasnorm_wordpool.txt	LTP110	ltpFR	14	10	0	PATIO	1025	n/a	1	n/a	n/a	n/a	n/a	n/a
1682067	REC_WORD	wordpools/wasnorm_wordpool.txt	LTP110	ltpFR	14	10	0	MAILMAN	858	n/a	1	n/a	n/a	n/a	n/a	n/a
1683159	REC_WORD	wordpools/wasnorm_wordpool.txt	LTP110	ltpFR	14	10	1	COUNTY	389	n/a	0	n/a	n/a	n/a	n/a	n/a
1684995	REC_WORD	wordpools/wasnorm_wordpool.txt	LTP110	ltpFR	14	10	1	SEAT	1264	n/a	0	n/a	n/a	n/a	n/a	n/a
1686087	REC_WORD	wordpools/wasnorm_wordpool.txt	LTP110	ltpFR	14	10	1	TABLE	1426	n/a	0	n/a	n/a	n/a	n/a	n/a
1687983	REC_WORD	wordpools/wasnorm_wordpool.txt	LTP110	ltpFR	14	10	1	MOOSE	915	n/a	1	n/a	n/a	n/a	n/a	n/a
1691435	REC_WORD	wordpools/wasnorm_wordpool.txt	LTP110	ltpFR	14	10	1	ELK	526	n/a	1	n/a	n/a	n/a	n/a	n/a
1694523	REC_WORD	wordpools/wasnorm_wordpool.txt	LTP110	ltpFR	14	10	1	BISON	131	n/a	1	n/a	n/a	n/a	n/a	n/a
1696594	REC_WORD	wordpools/wasnorm_wordpool.txt	LTP110	ltpFR	14	10	1	BULL	193	n/a	1	n/a	n/a	n/a	n/a	n/a
1698898	REC_WORD	wordpools/wasnorm_wordpool.txt	LTP110	ltpFR	14	10	1	STRING	1394	n/a	0	n/a	n/a	n/a	n/a	n/a
1701083	REC_WORD	wordpools/wasnorm_wordpool.txt	LTP110	ltpFR	14	10	1	STEREO	1378	n/a	0	n/a	n/a	n/a	n/a	n/a
1722804	REC_WORD	wordpools/wasnorm_wordpool.txt	LTP110	ltpFR	14	10	0	BOOK	149	n/a	0	n/a	n/a	n/a	n/a	n/a
1739696	REC_WORD	wordpools/wasnorm_wordpool.txt	LTP110	ltpFR	14	10	0	ATOM	55	n/a	0	n/a	n/a	n/a	n/a	n/a
1740296	REC_WORD	wordpools/wasnorm_wordpool.txt	LTP110	ltpFR	14	10	0	NUCLEUS	961	n/a	0	n/a	n/a	n/a	n/a	n/a
1757865	WORD	wordpools/wasnorm_wordpool.txt	LTP110	ltpFR	14	11	1	HERD	705	n/a	0	1	0.412841796875	0.57763671875	upper	../fonts/amplitud.ttf
1761881	WORD	wordpools/wasnorm_wordpool.txt	LTP110	ltpFR	14	11	1	RAM	1165	n/a	1	1	0.412841796875	0.57763671875	upper	../fonts/amplitud.ttf
1765695	WORD	wordpools/wasnorm_wordpool.txt	LTP110	ltpFR	14	11	1	ROSE	1212	n/a	0	1	0.412841796875	0.57763671875	upper	../fonts/amplitud.ttf
1769735	WORD	wordpools/wasnorm_wordpool.txt	LTP110	ltpFR	14	11	1	TRAITOR	1495	n/a	1	1	0.412841796875	0.57763671875	upper	../fonts/amplitud.ttf
1773842	WORD	wordpools/wasnorm_wordpool.txt	LTP110	ltpFR	14	11	1	GRILL	661	n/a	0	1	0.412841796875	0.57763671875	upper	../fonts/amplitud.ttf
1777840	WORD	wordpools/wasnorm_wordpool.txt	LTP110	ltpFR	14	11	1	LIMB	822	n/a	0	1	0.412841796875	0.57763671875	upper	../fonts/amplitud.ttf
1781698	WORD	wordpools/wasnorm_wordpool.txt	LTP110	ltpFR	14	11	1	TOY	1492	n/a	0	1	0.412841796875	0.57763671875	upper	../fonts/amplitud.ttf
1785754	WORD	wordpools/wasnorm_wordpool.txt	LTP110	ltpFR	14	11	1	DINER	467	n/a	1	1	0.412841796875	0.57763671875	upper	../fonts/amplitud.ttf
1789628	WORD	wordpools/wasnorm_wordpool.txt	LTP110	ltpFR	14	11	1	PORPOISE	1109	n/a	1	1	0.412841796875	0.57763671875	upper	../fonts/amplitud.ttf
1793818	WORD	wordpools/wasnorm_wordpool.txt	LTP110	ltpFR	14	11	1	LANDSCAPE	799	n/a	0	1	0.412841796875	0.57763671875	upper	../fonts/amplitud.ttf
1797842	WORD	wordpools/wasnorm_wordpool.txt	LTP110	ltpFR	14	11	1	MOWER	928	n/a	1	1	0.412841796875	0.57763671875	upper	../fonts/amplitud.ttf
1801840	WORD	wordpools/wasnorm_wordpool.txt	LTP110	ltpFR	14	11	1	CELLO	268	n/a	0	1	0.412841796875	0.57763671875	upper	../fonts/amplitud.ttf
1805706	WORD	wordpools/wasnorm_wordpool.txt	LTP110	ltpFR	14	11	1	DICE	461	n/a	0	1	0.412841796875	0.57763671875	upper	../fonts/amplitud.ttf
1809713	WORD	wordpools/wasnorm_wordpool.txt	LTP110	ltpFR	14	11	1	DIPLOMA	470	n/a	0	1	0.412841796875	0.57763671875	upper	../fonts/amplitud.ttf
1813887	WORD	wordpools/wasnorm_wordpool.txt	LTP110	ltpFR	14	11	1	INSTRUCTOR	741	n/a	1	1	0.412841796875	0.57763671875	upper	../fonts/amplitud.ttf
1817801	WORD	wordpools/wasnorm_wordpool.txt	LTP110	ltpFR	14	11	1	TRUMPET	1513	n/a	0	1	0.412841796875	0.57763671875	upper	../fonts/amplitud.ttf
1823418	REC_START	n/a	LTP110	ltpFR	14	11	n/a	n/a	n/a	n/a	n/a	n/a	n/a	n/a	n/a	n/a
1824755	REC_WORD	wordpools/wasnorm_wordpool.txt	LTP110	ltpFR	14	11	1	INSTRUCTOR	741	n/a	1	n/a	n/a	n/a	n/a	n/a
1826122	REC_WORD	wordpools/wasnorm_wordpool.txt	LTP110	ltpFR	14	11	1	TRUMPET	1513	n/a	0	n/a	n/a	n/a	n/a	n/a
1826987	REC_WORD	wordpools/wasnorm_wordpool.txt	LTP110	ltpFR	14	11	1	DIPLOMA	470	n/a	0	n/a	n/a	n/a	n/a	n/a
1828721	REC_WORD	wordpools/wasnorm_wordpool.txt	LTP110	ltpFR	14	11	1	DINER	467	n/a	1	n/a	n/a	n/a	n/a	n/a
1829518	REC_WORD	wordpools/wasnorm_wordpool.txt	LTP110	ltpFR	14	11	1	LANDSCAPE	799	n/a	0	n/a	n/a	n/a	n/a	n/a
1844604	REC_WORD	wordpools/wasnorm_wordpool.txt	LTP110	ltpFR	14	11	1	FLOWER	584	n/a	0	n/a	n/a	n/a	n/a	n/a
1850202	REC_WORD	wordpools/wasnorm_wordpool.txt	LTP110	ltpFR	14	11	1	ROSE	1212	n/a	0	n/a	n/a	n/a	n/a	n/a
1852367	REC_WORD	wordpools/wasnorm_wordpool.txt	LTP110	ltpFR	14	11	1	HERD	705	n/a	0	n/a	n/a	n/a	n/a	n/a
1853275	REC_WORD	wordpools/wasnorm_wordpool.txt	LTP110	ltpFR	14	11	1	RAM	1165	n/a	1	n/a	n/a	n/a	n/a	n/a
1854826	REC_WORD	wordpools/wasnorm_wordpool.txt	LTP110	ltpFR	14	11	1	TOY	1492	n/a	0	n/a	n/a	n/a	n/a	n/a
1856059	REC_WORD	wordpools/wasnorm_wordpool.txt	LTP110	ltpFR	14	11	1	GRILL	661	n/a	0	n/a	n/a	n/a	n/a	n/a
1857894	REC_WORD	wordpools/wasnorm_wordpool.txt	LTP110	ltpFR	14	11	1	LIMB	822	n/a	0	n/a	n/a	n/a	n/a	n/a
1874347	REC_WORD	wordpools/wasnorm_wordpool.txt	LTP110	ltpFR	14	11	1	TABLE	1426	n/a	0	n/a	n/a	n/a	n/a	n/a
1906096	WORD	wordpools/wasnorm_wordpool.txt	LTP110	ltpFR	14	12	-1	TAPE	1433	n/a	-1	1	1.0	1.0	upper	../fonts/Verdana.ttf
1910186	WORD	wordpools/wasnorm_wordpool.txt	LTP110	ltpFR	14	12	-1	KNOT	788	n/a	-1	1	1.0	1.0	upper	../fonts/Verdana.ttf
1914218	WORD	wordpools/wasnorm_wordpool.txt	LTP110	ltpFR	14	12	-1	SUPPER	1411	n/a	-1	1	1.0	1.0	upper	../fonts/Verdana.ttf
1918333	WORD	wordpools/wasnorm_wordpool.txt	LTP110	ltpFR	14	12	-1	NEWSSTAND	949	n/a	-1	1	1.0	1.0	upper	../fonts/Verdana.ttf
1922240	WORD	wordpools/wasnorm_wordpool.txt	LTP110	ltpFR	14	12	-1	TAR	1435	n/a	-1	1	1.0	1.0	upper	../fonts/Verdana.ttf
1926422	WORD	wordpools/wasnorm_wordpool.txt	LTP110	ltpFR	14	12	-1	TUNNEL	1519	n/a	-1	1	1.0	1.0	upper	../fonts/Verdana.ttf
1930579	WORD	wordpools/wasnorm_wordpool.txt	LTP110	ltpFR	14	12	-1	LOBSTER	837	n/a	-1	1	1.0	1.0	upper	../fonts/Verdana.ttf
1934503	WORD	wordpools/wasnorm_wordpool.txt	LTP110	ltpFR	14	12	-1	SADDLE	1221	n/a	-1	1	1.0	1.0	upper	../fonts/Verdana.ttf
1938585	WORD	wordpools/wasnorm_wordpool.txt	LTP110	ltpFR	14	12	-1	CALF	222	n/a	-1	1	1.0	1.0	upper	../fonts/Verdana.ttf
1942600	WORD	wordpools/wasnorm_wordpool.txt	LTP110	ltpFR	14	12	-1	CHEF	290	n/a	-1	1	1.0	1.0	upper	../fonts/Verdana.ttf
1946789	WORD	wordpools/wasnorm_wordpool.txt	LTP110	ltpFR	14	12	-1	CAFETERIA	217	n/a	-1	1	1.0	1.0	upper	../fonts/Verdana.ttf
1950897	WORD	wordpools/wasnorm_wordpool.txt	LTP110	ltpFR	14	12	-1	BINDER	127	n/a	-1	1	1.0	1.0	upper	../fonts/Verdana.ttf
1954811	WORD	wordpools/wasnorm_wordpool.txt	LTP110	ltpFR	14	12	-1	NIGHTGOWN	953	n/a	-1	1	1.0	1.0	upper	../fonts/Verdana.ttf
1958919	WORD	wordpools/wasnorm_wordpool.txt	LTP110	ltpFR	14	12	-1	QUILT	1151	n/a	-1	1	1.0	1.0	upper	../fonts/Verdana.ttf
1963093	WORD	wordpools/wasnorm_wordpool.txt	LTP110	ltpFR	14	12	-1	KEG	770	n/a	-1	1	1.0	1.0	upper	../fonts/Verdana.ttf
1966908	WORD	wordpools/wasnorm_wordpool.txt	LTP110	ltpFR	14	12	-1	STABLE	1363	n/a	-1	1	1.0	1.0	upper	../fonts/Verdana.ttf
1972532	REC_START	n/a	LTP110	ltpFR	14	12	n/a	n/a	n/a	n/a	n/a	n/a	n/a	n/a	n/a	n/a
1974083	REC_WORD	wordpools/wasnorm_wordpool.txt	LTP110	ltpFR	14	12	-1	BINDER	127	n/a	-1	n/a	n/a	n/a	n/a	n/a
1974872	REC_WORD	wordpools/wasnorm_wordpool.txt	LTP110	ltpFR	14	12	-1	NIGHTGOWN	953	n/a	-1	n/a	n/a	n/a	n/a	n/a
1977335	REC_WORD	wordpools/wasnorm_wordpool.txt	LTP110	ltpFR	14	12	-1	STABLE	1363	n/a	-1	n/a	n/a	n/a	n/a	n/a
1978403	REC_WORD	wordpools/wasnorm_wordpool.txt	LTP110	ltpFR	14	12	-1	QUILT	1151	n/a	-1	n/a	n/a	n/a	n/a	n/a
1982195	REC_WORD	wordpools/wasnorm_wordpool.txt	LTP110	ltpFR	14	12	-1	NEWSSTAND	949	n/a	-1	n/a	n/a	n/a	n/a	n/a
1983402	REC_WORD	wordpools/wasnorm_wordpool.txt	LTP110	ltpFR	14	12	-1	KNOT	788	n/a	-1	n/a	n/a	n/a	n/a	n/a
1984300	REC_WORD	wordpools/wasnorm_wordpool.txt	LTP110	ltpFR	14	12	-1	TAPE	1433	n/a	-1	n/a	n/a	n/a	n/a	n/a
1986246	REC_WORD	wordpools/wasnorm_wordpool.txt	LTP110	ltpFR	14	12	-1	TAR	1435	n/a	-1	n/a	n/a	n/a	n/a	n/a
1987094	REC_WORD	wordpools/wasnorm_wordpool.txt	LTP110	ltpFR	14	12	-1	TUNNEL	1519	n/a	-1	n/a	n/a	n/a	n/a	n/a
1989987	REC_WORD	wordpools/wasnorm_wordpool.txt	LTP110	ltpFR	14	12	-1	SUPPER	1411	n/a	-1	n/a	n/a	n/a	n/a	n/a
1993220	REC_WORD	wordpools/wasnorm_wordpool.txt	LTP110	ltpFR	14	12	-1	CHEF	290	n/a	-1	n/a	n/a	n/a	n/a	n/a
2019510	REC_WORD	wordpools/wasnorm_wordpool.txt	LTP110	ltpFR	14	12	n/a	DINNER	468	n/a	n/a	n/a	n/a	n/a	n/a	n/a
2034376	REC_WORD	wordpools/wasnorm_wordpool.txt	LTP110	ltpFR	14	12	0	ROOST	1208	n/a	0	n/a	n/a	n/a	n/a	n/a
2048154	REST_REWET	n/a	LTP110	ltpFR	14	12	n/a	n/a	n/a	n/a	n/a	n/a	n/a	n/a	n/a	n/a
2648583	WORD	wordpools/wasnorm_wordpool.txt	LTP110	ltpFR	14	13	-1	DART	440	n/a	-1	1	1.0	1.0	upper	../fonts/Verdana.ttf
2652705	WORD	wordpools/wasnorm_wordpool.txt	LTP110	ltpFR	14	13	-1	PEDAL	1037	n/a	-1	1	1.0	1.0	upper	../fonts/Verdana.ttf
2656787	WORD	wordpools/wasnorm_wordpool.txt	LTP110	ltpFR	14	13	-1	BLOSSOM	138	n/a	-1	1	1.0	1.0	upper	../fonts/Verdana.ttf
2660920	WORD	wordpools/wasnorm_wordpool.txt	LTP110	ltpFR	14	13	-1	PHILOSOPHER	1054	n/a	-1	1	1.0	1.0	upper	../fonts/Verdana.ttf
2664834	WORD	wordpools/wasnorm_wordpool.txt	LTP110	ltpFR	14	13	-1	COURSE	390	n/a	-1	1	1.0	1.0	upper	../fonts/Verdana.ttf
2668741	WORD	wordpools/wasnorm_wordpool.txt	LTP110	ltpFR	14	13	-1	DRESSER	496	n/a	-1	1	1.0	1.0	upper	../fonts/Verdana.ttf
2672857	WORD	wordpools/wasnorm_wordpool.txt	LTP110	ltpFR	14	13	-1	LAKE	796	n/a	-1	1	1.0	1.0	upper	../fonts/Verdana.ttf
2676805	WORD	wordpools/wasnorm_wordpool.txt	LTP110	ltpFR	14	13	-1	SINK	1309	n/a	-1	1	1.0	1.0	upper	../fonts/Verdana.ttf
2680787	WORD	wordpools/wasnorm_wordpool.txt	LTP110	ltpFR	14	13	-1	TEACHER	1440	n/a	-1	1	1.0	1.0	upper	../fonts/Verdana.ttf
2684677	WORD	wordpools/wasnorm_wordpool.txt	LTP110	ltpFR	14	13	-1	CLASS	318	n/a	-1	1	1.0	1.0	upper	../fonts/Verdana.ttf
2688519	WORD	wordpools/wasnorm_wordpool.txt	LTP110	ltpFR	14	13	-1	CREAM	402	n/a	-1	1	1.0	1.0	upper	../fonts/Verdana.ttf
2692334	WORD	wordpools/wasnorm_wordpool.txt	LTP110	ltpFR	14	13	-1	COLOGNE	347	n/a	-1	1	1.0	1.0	upper	../fonts/Verdana.ttf
2696324	WORD	wordpools/wasnorm_wordpool.txt	LTP110	ltpFR	14	13	-1	PERFUME	1049	n/a	-1	1	1.0	1.0	upper	../fonts/Verdana.ttf
2700531	WORD	wordpools/wasnorm_wordpool.txt	LTP110	ltpFR	14	13	-1	PLUMBER	1091	n/a	-1	1	1.0	1.0	upper	../fonts/Verdana.ttf
2704446	WORD	wordpools/wasnorm_wordpool.txt	LTP110	ltpFR	14	13	-1	LAPEL	800	n/a	-1	1	1.0	1.0	upper	../fonts/Verdana.ttf
2708287	WORD	wordpools/wasnorm_wordpool.txt	LTP110	ltpFR	14	13	-1	CABINET	212	n/a	-1	1	1.0	1.0	upper	../fonts/Verdana.ttf
2714202	REC_START	n/a	LTP110	ltpFR	14	13	n/a	n/a	n/a	n/a	n/a	n/a	n/a	n/a	n/a	n/a
2714975	REC_WORD	wordpools/wasnorm_wordpool.txt	LTP110	ltpFR	14	13	-1	CABINET	212	n/a	-1	n/a	n/a	n/a	n/a	n/a
2715723	REC_WORD	wordpools/wasnorm_wordpool.txt	LTP110	ltpFR	14	13	-1	DRESSER	496	n/a	-1	n/a	n/a	n/a	n/a	n/a
2716571	REC_WORD	wordpools/wasnorm_wordpool.txt	LTP110	ltpFR	14	13	-1	COLOGNE	347	n/a	-1	n/a	n/a	n/a	n/a	n/a
2717290	REC_WORD	wordpools/wasnorm_wordpool.txt	LTP110	ltpFR	14	13	-1	PERFUME	1049	n/a	-1	n/a	n/a	n/a	n/a	n/a
2719435	REC_WORD	wordpools/wasnorm_wordpool.txt	LTP110	ltpFR	14	13	-1	TEACHER	1440	n/a	-1	n/a	n/a	n/a	n/a	n/a
2721500	REC_WORD	wordpools/wasnorm_wordpool.txt	LTP110	ltpFR	14	13	1	INSTRUCTOR	741	n/a	1	n/a	n/a	n/a	n/a	n/a
2723725	REC_WORD	wordpools/wasnorm_wordpool.txt	LTP110	ltpFR	14	13	-1	CLASS	318	n/a	-1	n/a	n/a	n/a	n/a	n/a
2724533	REC_WORD	wordpools/wasnorm_wordpool.txt	LTP110	ltpFR	14	13	-1	COURSE	390	n/a	-1	n/a	n/a	n/a	n/a	n/a
2727995	REC_WORD	wordpools/wasnorm_wordpool.txt	LTP110	ltpFR	14	13	n/a	LECTURE	-1	n/a	n/a	n/a	n/a	n/a	n/a	n/a
2733862	REC_WORD	wordpools/wasnorm_wordpool.txt	LTP110	ltpFR	14	13	-1	BLOSSOM	138	n/a	-1	n/a	n/a	n/a	n/a	n/a
2734650	REC_WORD	wordpools/wasnorm_wordpool.txt	LTP110	ltpFR	14	13	-1	PHILOSOPHER	1054	n/a	-1	n/a	n/a	n/a	n/a	n/a
2736716	REC_WORD	wordpools/wasnorm_wordpool.txt	LTP110	ltpFR	14	13	-1	DART	440	n/a	-1	n/a	n/a	n/a	n/a	n/a
2738162	REC_WORD	wordpools/wasnorm_wordpool.txt	LTP110	ltpFR	14	13	-1	PEDAL	1037	n/a	-1	n/a	n/a	n/a	n/a	n/a
2743410	REC_WORD	wordpools/wasnorm_wordpool.txt	LTP110	ltpFR	14	13	n/a	MEDAL	885	n/a	n/a	n/a	n/a	n/a	n/a	n/a
2752580	REC_WORD	wordpools/wasnorm_wordpool.txt	LTP110	ltpFR	14	13	-1	LAKE	796	n/a	-1	n/a	n/a	n/a	n/a	n/a
2753837	REC_WORD	wordpools/wasnorm_wordpool.txt	LTP110	ltpFR	14	13	-1	SINK	1309	n/a	-1	n/a	n/a	n/a	n/a	n/a
2757907	REC_WORD	wordpools/wasnorm_wordpool.txt	LTP110	ltpFR	14	13	-1	TEACHER	1440	n/a	-1	n/a	n/a	n/a	n/a	n/a
2763025	REC_WORD	wordpools/wasnorm_wordpool.txt	LTP110	ltpFR	14	13	-1	LAPEL	800	n/a	-1	n/a	n/a	n/a	n/a	n/a
2770509	REC_WORD	wordpools/wasnorm_wordpool.txt	LTP110	ltpFR	14	13	0	LABEL	790	n/a	0	n/a	n/a	n/a	n/a	n/a
2792323	WORD	wordpools/wasnorm_wordpool.txt	LTP110	ltpFR	14	14	-1	JOKER	759	n/a	-1	1	1.0	1.0	upper	../fonts/Verdana.ttf
2796355	WORD	wordpools/wasnorm_wordpool.txt	LTP110	ltpFR	14	14	-1	DRINK	498	n/a	-1	1	1.0	1.0	upper	../fonts/Verdana.ttf
2800462	WORD	wordpools/wasnorm_wordpool.txt	LTP110	ltpFR	14	14	-1	COBWEB	337	n/a	-1	1	1.0	1.0	upper	../fonts/Verdana.ttf
2804311	WORD	wordpools/wasnorm_wordpool.txt	LTP110	ltpFR	14	14	-1	LOFT	840	n/a	-1	1	1.0	1.0	upper	../fonts/Verdana.ttf
2808409	WORD	wordpools/wasnorm_wordpool.txt	LTP110	ltpFR	14	14	-1	ENGINEER	536	n/a	-1	1	1.0	1.0	upper	../fonts/Verdana.ttf
2812416	WORD	wordpools/wasnorm_wordpool.txt	LTP110	ltpFR	14	14	-1	WAREHOUSE	1588	n/a	-1	1	1.0	1.0	upper	../fonts/Verdana.ttf
2816623	WORD	wordpools/wasnorm_wordpool.txt	LTP110	ltpFR	14	14	-1	LEAF	808	n/a	-1	1	1.0	1.0	upper	../fonts/Verdana.ttf
2820687	WORD	wordpools/wasnorm_wordpool.txt	LTP110	ltpFR	14	14	-1	CITRUS	313	n/a	-1	1	1.0	1.0	upper	../fonts/Verdana.ttf
2824736	WORD	wordpools/wasnorm_wordpool.txt	LTP110	ltpFR	14	14	-1	FINGER	567	n/a	-1	1	1.0	1.0	upper	../fonts/Verdana.ttf
2828902	WORD	wordpools/wasnorm_wordpool.txt	LTP110	ltpFR	14	14	-1	KNUCKLE	789	n/a	-1	1	1.0	1.0	upper	../fonts/Verdana.ttf
2832901	WORD	wordpools/wasnorm_wordpool.txt	LTP110	ltpFR	14	14	-1	PADDING	999	n/a	-1	1	1.0	1.0	upper	../fonts/Verdana.ttf
2836883	WORD	wordpools/wasnorm_wordpool.txt	LTP110	ltpFR	14	14	-1	CONTRACT	368	n/a	-1	1	1.0	1.0	upper	../fonts/Verdana.ttf
2840705	WORD	wordpools/wasnorm_wordpool.txt	LTP110	ltpFR	14	14	-1	SAP	1233	n/a	-1	1	1.0	1.0	upper	../fonts/Verdana.ttf
2844746	WORD	wordpools/wasnorm_wordpool.txt	LTP110	ltpFR	14	14	-1	HONEY	713	n/a	-1	1	1.0	1.0	upper	../fonts/Verdana.ttf
2848644	WORD	wordpools/wasnorm_wordpool.txt	LTP110	ltpFR	14	14	-1	SOFTBALL	1343	n/a	-1	1	1.0	1.0	upper	../fonts/Verdana.ttf
2852701	WORD	wordpools/wasnorm_wordpool.txt	LTP110	ltpFR	14	14	-1	VOLLEYBALL	1576	n/a	-1	1	1.0	1.0	upper	../fonts/Verdana.ttf
2858467	REC_START	n/a	LTP110	ltpFR	14	14	n/a	n/a	n/a	n/a	n/a	n/a	n/a	n/a	n/a	n/a
2859170	REC_WORD	wordpools/wasnorm_wordpool.txt	LTP110	ltpFR	14	14	-1	SOFTBALL	1343	n/a	-1	n/a	n/a	n/a	n/a	n/a
2860966	REC_WORD	wordpools/wasnorm_wordpool.txt	LTP110	ltpFR	14	14	-1	VOLLEYBALL	1576	n/a	-1	n/a	n/a	n/a	n/a	n/a
2863041	REC_WORD	wordpools/wasnorm_wordpool.txt	LTP110	ltpFR	14	14	-1	WAREHOUSE	1588	n/a	-1	n/a	n/a	n/a	n/a	n/a
2865007	REC_WORD	wordpools/wasnorm_wordpool.txt	LTP110	ltpFR	14	14	-1	JOKER	759	n/a	-1	n/a	n/a	n/a	n/a	n/a
2865785	REC_WORD	wordpools/wasnorm_wordpool.txt	LTP110	ltpFR	14	14	-1	DRINK	498	n/a	-1	n/a	n/a	n/a	n/a	n/a
2866772	REC_WORD	wordpools/wasnorm_wordpool.txt	LTP110	ltpFR	14	14	-1	CITRUS	313	n/a	-1	n/a	n/a	n/a	n/a	n/a
2867631	REC_WORD	wordpools/wasnorm_wordpool.txt	LTP110	ltpFR	14	14	-1	LEAF	808	n/a	-1	n/a	n/a	n/a	n/a	n/a
2871028	REC_WORD	wordpools/wasnorm_wordpool.txt	LTP110	ltpFR	14	14	-1	ENGINEER	536	n/a	-1	n/a	n/a	n/a	n/a	n/a
2874645	REC_WORD	wordpools/wasnorm_wordpool.txt	LTP110	ltpFR	14	14	-1	FINGER	567	n/a	-1	n/a	n/a	n/a	n/a	n/a
2875758	REC_WORD	wordpools/wasnorm_wordpool.txt	LTP110	ltpFR	14	14	-1	PADDING	999	n/a	-1	n/a	n/a	n/a	n/a	n/a
2876890	REC_WORD	wordpools/wasnorm_wordpool.txt	LTP110	ltpFR	14	14	-1	KNUCKLE	789	n/a	-1	n/a	n/a	n/a	n/a	n/a
2884143	REC_WORD	wordpools/wasnorm_wordpool.txt	LTP110	ltpFR	14	14	-1	CONTRACT	368	n/a	-1	n/a	n/a	n/a	n/a	n/a
2888039	REC_WORD	wordpools/wasnorm_wordpool.txt	LTP110	ltpFR	14	14	-1	PLUMBER	1091	n/a	-1	n/a	n/a	n/a	n/a	n/a
2901933	REC_WORD	wordpools/wasnorm_wordpool.txt	LTP110	ltpFR	14	14	-1	LOFT	840	n/a	-1	n/a	n/a	n/a	n/a	n/a
2904866	REC_WORD	wordpools/wasnorm_wordpool.txt	LTP110	ltpFR	14	14	n/a	ATTIC	56	n/a	n/a	n/a	n/a	n/a	n/a	n/a
2918386	REC_WORD	wordpools/wasnorm_wordpool.txt	LTP110	ltpFR	14	14	-1	JOKER	759	n/a	-1	n/a	n/a	n/a	n/a	n/a
2948210	WORD	wordpools/wasnorm_wordpool.txt	LTP110	ltpFR	14	15	0	BELL	118	n/a	0	0	0.5869140625	0.422607421875	lower	../fonts/zerothre.ttf
2952050	WORD	wordpools/wasnorm_wordpool.txt	LTP110	ltpFR	14	15	0	RICE	1190	n/a	0	0	0.5869140625	0.422607421875	lower	../fonts/zerothre.ttf
2956190	WORD	wordpools/wasnorm_wordpool.txt	LTP110	ltpFR	14	15	0	BERRY	122	n/a	0	0	0.5869140625	0.422607421875	lower	../fonts/zerothre.ttf
2960072	WORD	wordpools/wasnorm_wordpool.txt	LTP110	ltpFR	14	15	0	STEP	1377	n/a	1	0	0.5869140625	0.422607421875	lower	../fonts/zerothre.ttf
2963963	WORD	wordpools/wasnorm_wordpool.txt	LTP110	ltpFR	14	15	0	LAWYER	806	n/a	1	0	0.5869140625	0.422607421875	lower	../fonts/zerothre.ttf
2968128	WORD	wordpools/wasnorm_wordpool.txt	LTP110	ltpFR	14	15	0	PENGUIN	1044	n/a	1	0	0.5869140625	0.422607421875	lower	../fonts/zerothre.ttf
2972101	WORD	wordpools/wasnorm_wordpool.txt	LTP110	ltpFR	14	15	1	CROW	414	n/a	1	1	0.412841796875	0.57763671875	upper	../fonts/amplitud.ttf
2976000	WORD	wordpools/wasnorm_wordpool.txt	LTP110	ltpFR	14	15	1	ELEVATOR	524	n/a	0	1	0.412841796875	0.57763671875	upper	../fonts/amplitud.ttf
2980157	WORD	wordpools/wasnorm_wordpool.txt	LTP110	ltpFR	14	15	1	SHOP	1290	n/a	0	1	0.412841796875	0.57763671875	upper	../fonts/amplitud.ttf
2984339	WORD	wordpools/wasnorm_wordpool.txt	LTP110	ltpFR	14	15	1	CLERK	321	n/a	1	1	0.412841796875	0.57763671875	upper	../fonts/amplitud.ttf
2988254	WORD	wordpools/wasnorm_wordpool.txt	LTP110	ltpFR	14	15	0	VEGETABLE	1552	n/a	0	0	0.5869140625	0.422607421875	lower	../fonts/zerothre.ttf
2992253	WORD	wordpools/wasnorm_wordpool.txt	LTP110	ltpFR	14	15	0	DRESS	495	n/a	0	0	0.5869140625	0.422607421875	lower	../fonts/zerothre.ttf
2996418	WORD	wordpools/wasnorm_wordpool.txt	LTP110	ltpFR	14	15	1	RIFLE	1192	n/a	0	1	0.412841796875	0.57763671875	upper	../fonts/amplitud.ttf
3000575	WORD	wordpools/wasnorm_wordpool.txt	LTP110	ltpFR	14	15	1	HORNET	718	n/a	1	1	0.412841796875	0.57763671875	upper	../fonts/amplitud.ttf
3004573	WORD	wordpools/wasnorm_wordpool.txt	LTP110	ltpFR	14	15	1	OWL	992	n/a	1	1	0.412841796875	0.57763671875	upper	../fonts/amplitud.ttf
3008505	WORD	wordpools/wasnorm_wordpool.txt	LTP110	ltpFR	14	15	1	UNIFORM	1539	n/a	0	1	0.412841796875	0.57763671875	upper	../fonts/amplitud.ttf
3014412	REC_START	n/a	LTP110	ltpFR	14	15	n/a	n/a	n/a	n/a	n/a	n/a	n/a	n/a	n/a	n/a
3015554	REC_WORD	wordpools/wasnorm_wordpool.txt	LTP110	ltpFR	14	15	1	RIFLE	1192	n/a	0	n/a	n/a	n/a	n/a	n/a
3016627	REC_WORD	wordpools/wasnorm_wordpool.txt	LTP110	ltpFR	14	15	1	OWL	992	n/a	1	n/a	n/a	n/a	n/a	n/a
3017480	REC_WORD	wordpools/wasnorm_wordpool.txt	LTP110	ltpFR	14	15	1	UNIFORM	1539	n/a	0	n/a	n/a	n/a	n/a	n/a
3019670	REC_WORD	wordpools/wasnorm_wordpool.txt	LTP110	ltpFR	14	15	1	CLERK	321	n/a	1	n/a	n/a	n/a	n/a	n/a
3021920	REC_WORD	wordpools/wasnorm_wordpool.txt	LTP110	ltpFR	14	15	0	PENGUIN	1044	n/a	1	n/a	n/a	n/a	n/a	n/a
3022872	REC_WORD	wordpools/wasnorm_wordpool.txt	LTP110	ltpFR	14	15	0	LAWYER	806	n/a	1	n/a	n/a	n/a	n/a	n/a
3023538	REC_WORD	wordpools/wasnorm_wordpool.txt	LTP110	ltpFR	14	15	0	STEP	1377	n/a	1	n/a	n/a	n/a	n/a	n/a
3025631	REC_WORD	wordpools/wasnorm_wordpool.txt	LTP110	ltpFR	14	15	0	BERRY	122	n/a	0	n/a	n/a	n/a	n/a	n/a
3027667	REC_WORD	wordpools/wasnorm_wordpool.txt	LTP110	ltpFR	14	15	1	CHERRY	293	n/a	0	n/a	n/a	n/a	n/a	n/a
3031358	REC_WORD	wordpools/wasnorm_wordpool.txt	LTP110	ltpFR	14	15	0	RICE	1190	n/a	0	n/a	n/a	n/a	n/a	n/a
3041964	REC_WORD	wordpools/wasnorm_wordpool.txt	LTP110	ltpFR	14	15	1	SHOP	1290	n/a	0	n/a	n/a	n/a	n/a	n/a
3043660	REC_WORD	wordpools/wasnorm_wordpool.txt	LTP110	ltpFR	14	15	1	ELEVATOR	524	n/a	0	n/a	n/a	n/a	n/a	n/a
3045327	REC_WORD	wordpools/wasnorm_wordpool.txt	LTP110	ltpFR	14	15	1	CROW	414	n/a	1	n/a	n/a	n/a	n/a	n/a
3048679	REC_WORD	wordpools/wasnorm_wordpool.txt	LTP110	ltpFR	14	15	n/a	MALL	860	n/a	n/a	n/a	n/a	n/a	n/a	n/a
3057349	REC_WORD	wordpools/wasnorm_wordpool.txt	LTP110	ltpFR	14	15	0	BELL	118	n/a	0	n/a	n/a	n/a	n/a	n/a
3066159	REC_WORD	wordpools/wasnorm_wordpool.txt	LTP110	ltpFR	14	15	0	VEGETABLE	1552	n/a	0	n/a	n/a	n/a	n/a	n/a
3069601	REC_WORD	wordpools/wasnorm_wordpool.txt	LTP110	ltpFR	14	15	0	DRESS	495	n/a	0	n/a	n/a	n/a	n/a	n/a
3081779	REC_WORD	wordpools/wasnorm_wordpool.txt	LTP110	ltpFR	14	15	1	OWL	992	n/a	1	n/a	n/a	n/a	n/a	n/a
3093542	WORD	wordpools/wasnorm_wordpool.txt	LTP110	ltpFR	14	16	1	KETTLE	772	n/a	0	1	0.412841796875	0.57763671875	upper	../fonts/amplitud.ttf
3097599	WORD	wordpools/wasnorm_wordpool.txt	LTP110	ltpFR	14	16	1	PISTOL	1075	n/a	0	1	0.412841796875	0.57763671875	upper	../fonts/amplitud.ttf
3101547	WORD	wordpools/wasnorm_wordpool.txt	LTP110	ltpFR	14	16	1	FLASHLIGHT	575	n/a	0	1	0.412841796875	0.57763671875	upper	../fonts/amplitud.ttf
3105371	WORD	wordpools/wasnorm_wordpool.txt	LTP110	ltpFR	14	16	1	SERVER	1272	n/a	1	1	0.412841796875	0.57763671875	upper	../fonts/amplitud.ttf
3109244	WORD	wordpools/wasnorm_wordpool.txt	LTP110	ltpFR	14	16	1	SERVANT	1271	n/a	1	1	0.412841796875	0.57763671875	upper	../fonts/amplitud.ttf
3113310	WORD	wordpools/wasnorm_wordpool.txt	LTP110	ltpFR	14	16	1	COFFEE	341	n/a	0	1	0.412841796875	0.57763671875	upper	../fonts/amplitud.ttf
3117350	WORD	wordpools/wasnorm_wordpool.txt	LTP110	ltpFR	14	16	1	BRANCH	168	n/a	0	1	0.412841796875	0.57763671875	upper	../fonts/amplitud.ttf
3121507	WORD	wordpools/wasnorm_wordpool.txt	LTP110	ltpFR	14	16	1	CRIMINAL	409	n/a	1	1	0.412841796875	0.57763671875	upper	../fonts/amplitud.ttf
3125704	WORD	wordpools/wasnorm_wordpool.txt	LTP110	ltpFR	14	16	1	OUTLAW	989	n/a	1	1	0.412841796875	0.57763671875	upper	../fonts/amplitud.ttf
3129596	WORD	wordpools/wasnorm_wordpool.txt	LTP110	ltpFR	14	16	1	BOOTH	151	n/a	0	1	0.412841796875	0.57763671875	upper	../fonts/amplitud.ttf
3133536	WORD	wordpools/wasnorm_wordpool.txt	LTP110	ltpFR	14	16	1	HANDBAG	684	n/a	0	1	0.412841796875	0.57763671875	upper	../fonts/amplitud.ttf
3137658	WORD	wordpools/wasnorm_wordpool.txt	LTP110	ltpFR	14	16	1	DIARY	460	n/a	0	1	0.412841796875	0.57763671875	upper	../fonts/amplitud.ttf
3141866	WORD	wordpools/wasnorm_wordpool.txt	LTP110	ltpFR	14	16	1	GANGSTER	620	n/a	1	1	0.412841796875	0.57763671875	upper	../fonts/amplitud.ttf
3146056	WORD	wordpools/wasnorm_wordpool.txt	LTP110	ltpFR	14	16	1	LUNG	850	n/a	0	1	0.412841796875	0.57763671875	upper	../fonts/amplitud.ttf
3149913	WORD	wordpools/wasnorm_wordpool.txt	LTP110	ltpFR	14	16	1	CIGARETTE	309	n/a	0	1	0.412841796875	0.57763671875	upper	../fonts/amplitud.ttf
3153753	WORD	wordpools/wasnorm_wordpool.txt	LTP110	ltpFR	14	16	1	ESSAY	540	n/a	0	1	0.412841796875	0.57763671875	upper	../fonts/amplitud.ttf
3159843	REC_START	n/a	LTP110	ltpFR	14	16	n/a	n/a	n/a	n/a	n/a	n/a	n/a	n/a	n/a	n/a
3160367	REC_WORD	wordpools/wasnorm_wordpool.txt	LTP110	ltpFR	14	16	1	LUNG	850	n/a	0	n/a	n/a	n/a	n/a	n/a
3160908	REC_WORD	wordpools/wasnorm_wordpool.txt	LTP110	ltpFR	14	16	1	CIGARETTE	309	n/a	0	n/a	n/a	n/a	n/a	n/a
3165565	REC_WORD	wordpools/wasnorm_wordpool.txt	LTP110	ltpFR	14	16	n/a	ASHTRAY	45	n/a	n/a	n/a	n/a	n/a	n/a	n/a
3167949	REC_WORD	wordpools/wasnorm_wordpool.txt	LTP110	ltpFR	14	16	1	BOOTH	151	n/a	0	n/a	n/a	n/a	n/a	n/a
3169665	REC_WORD	wordpools/wasnorm_wordpool.txt	LTP110	ltpFR	14	16	1	GANGSTER	620	n/a	1	n/a	n/a	n/a	n/a	n/a
3177198	REC_WORD	wordpools/wasnorm_wordpool.txt	LTP110	ltpFR	14	16	1	SERVER	1272	n/a	1	n/a	n/a	n/a	n/a	n/a
3177900	REC_WORD	wordpools/wasnorm_wordpool.txt	LTP110	ltpFR	14	16	1	SERVANT	1271	n/a	1	n/a	n/a	n/a	n/a	n/a
3178924	REC_WORD	wordpools/wasnorm_wordpool.txt	LTP110	ltpFR	14	16	1	BRANCH	168	n/a	0	n/a	n/a	n/a	n/a	n/a
3179822	REC_WORD	wordpools/wasnorm_wordpool.txt	LTP110	ltpFR	14	16	1	PISTOL	1075	n/a	0	n/a	n/a	n/a	n/a	n/a
3180675	REC_WORD	wordpools/wasnorm_wordpool.txt	LTP110	ltpFR	14	16	1	KETTLE	772	n/a	0	n/a	n/a	n/a	n/a	n/a
3182027	REC_WORD	wordpools/wasnorm_wordpool.txt	LTP110	ltpFR	14	16	1	FLASHLIGHT	575	n/a	0	n/a	n/a	n/a	n/a	n/a
3186218	REC_WORD	wordpools/wasnorm_wordpool.txt	LTP110	ltpFR	14	16	1	COFFEE	341	n/a	0	n/a	n/a	n/a	n/a	n/a
3188493	REC_WORD	wordpools/wasnorm_wordpool.txt	LTP110	ltpFR	14	16	1	OUTLAW	989	n/a	1	n/a	n/a	n/a	n/a	n/a
3189331	REC_WORD	wordpools/wasnorm_wordpool.txt	LTP110	ltpFR	14	16	1	CRIMINAL	409	n/a	1	n/a	n/a	n/a	n/a	n/a
3198251	REC_WORD	wordpools/wasnorm_wordpool.txt	LTP110	ltpFR	14	16	1	BOOTH	151	n/a	0	n/a	n/a	n/a	n/a	n/a
3200875	REC_WORD	wordpools/wasnorm_wordpool.txt	LTP110	ltpFR	14	16	1	DINER	467	n/a	1	n/a	n/a	n/a	n/a	n/a
3218504	REC_WORD	wordpools/wasnorm_wordpool.txt	LTP110	ltpFR	14	16	1	LUNG	850	n/a	0	n/a	n/a	n/a	n/a	n/a
3246530	REC_START	n/a	LTP110	ltpFR	14	n/a	n/a	n/a	n/a	n/a	n/a	n/a	n/a	n/a	n/a	n/a
3247104	FFR_REC_WORD	wordpools/wasnorm_wordpool.txt	LTP110	ltpFR	14	n/a	1	LUNG	850	n/a	0	n/a	n/a	n/a	n/a	n/a
3247558	FFR_REC_WORD	wordpools/wasnorm_wordpool.txt	LTP110	ltpFR	14	n/a	1	CIGARETTE	309	n/a	0	n/a	n/a	n/a	n/a	n/a
3248520	FFR_REC_WORD	wordpools/wasnorm_wordpool.txt	LTP110	ltpFR	14	n/a	1	DINER	467	n/a	1	n/a	n/a	n/a	n/a	n/a
3249159	FFR_REC_WORD	wordpools/wasnorm_wordpool.txt	LTP110	ltpFR	14	n/a	1	BOOTH	151	n/a	0	n/a	n/a	n/a	n/a	n/a
3249797	FFR_REC_WORD	wordpools/wasnorm_wordpool.txt	LTP110	ltpFR	14	n/a	1	GANGSTER	620	n/a	1	n/a	n/a	n/a	n/a	n/a
3253200	FFR_REC_WORD	wordpools/wasnorm_wordpool.txt	LTP110	ltpFR	14	n/a	0	SEA	1259	n/a	1	n/a	n/a	n/a	n/a	n/a
3254088	FFR_REC_WORD	wordpools/wasnorm_wordpool.txt	LTP110	ltpFR	14	n/a	1	CORAL	378	n/a	0	n/a	n/a	n/a	n/a	n/a
3255514	FFR_REC_WORD	wordpools/wasnorm_wordpool.txt	LTP110	ltpFR	14	n/a	0	PAPER	1011	n/a	0	n/a	n/a	n/a	n/a	n/a
3256243	FFR_REC_WORD	wordpools/wasnorm_wordpool.txt	LTP110	ltpFR	14	n/a	1	ESSAY	540	n/a	0	n/a	n/a	n/a	n/a	n/a
3258248	FFR_REC_WORD	wordpools/wasnorm_wordpool.txt	LTP110	ltpFR	14	n/a	1	SERVER	1272	n/a	1	n/a	n/a	n/a	n/a	n/a
3258861	FFR_REC_WORD	wordpools/wasnorm_wordpool.txt	LTP110	ltpFR	14	n/a	1	SERVANT	1271	n/a	1	n/a	n/a	n/a	n/a	n/a
3261750	FFR_REC_WORD	wordpools/wasnorm_wordpool.txt	LTP110	ltpFR	14	n/a	n/a	WAITER	1580	n/a	n/a	n/a	n/a	n/a	n/a	n/a
3264235	FFR_REC_WORD	wordpools/wasnorm_wordpool.txt	LTP110	ltpFR	14	n/a	1	BRANCH	168	n/a	0	n/a	n/a	n/a	n/a	n/a
3269163	FFR_REC_WORD	wordpools/wasnorm_wordpool.txt	LTP110	ltpFR	14	n/a	n/a	SHRUB	1299	n/a	n/a	n/a	n/a	n/a	n/a	n/a
3273414	FFR_REC_WORD	wordpools/wasnorm_wordpool.txt	LTP110	ltpFR	14	n/a	0	BOOK	149	n/a	0	n/a	n/a	n/a	n/a	n/a
3274970	FFR_REC_WORD	wordpools/wasnorm_wordpool.txt	LTP110	ltpFR	14	n/a	0	SHEEP	1278	n/a	1	n/a	n/a	n/a	n/a	n/a
3277105	FFR_REC_WORD	wordpools/wasnorm_wordpool.txt	LTP110	ltpFR	14	n/a	1	CROW	414	n/a	1	n/a	n/a	n/a	n/a	n/a
3278173	FFR_REC_WORD	wordpools/wasnorm_wordpool.txt	LTP110	ltpFR	14	n/a	0	PENGUIN	1044	n/a	1	n/a	n/a	n/a	n/a	n/a
3278936	FFR_REC_WORD	wordpools/wasnorm_wordpool.txt	LTP110	ltpFR	14	n/a	1	ELEVATOR	524	n/a	0	n/a	n/a	n/a	n/a	n/a
3279572	FFR_REC_WORD	wordpools/wasnorm_wordpool.txt	LTP110	ltpFR	14	n/a	1	SHOP	1290	n/a	0	n/a	n/a	n/a	n/a	n/a
3280248	FFR_REC_WORD	wordpools/wasnorm_wordpool.txt	LTP110	ltpFR	14	n/a	0	VEGETABLE	1552	n/a	0	n/a	n/a	n/a	n/a	n/a
3281026	FFR_REC_WORD	wordpools/wasnorm_wordpool.txt	LTP110	ltpFR	14	n/a	0	DRESS	495	n/a	0	n/a	n/a	n/a	n/a	n/a
3282463	FFR_REC_WORD	wordpools/wasnorm_wordpool.txt	LTP110	ltpFR	14	n/a	-1	TUXEDO	1525	n/a	-1	n/a	n/a	n/a	n/a	n/a
3284099	FFR_REC_WORD	wordpools/wasnorm_wordpool.txt	LTP110	ltpFR	14	n/a	-1	MARINE	869	n/a	-1	n/a	n/a	n/a	n/a	n/a
3284913	FFR_REC_WORD	wordpools/wasnorm_wordpool.txt	LTP110	ltpFR	14	n/a	-1	ARMY	39	n/a	-1	n/a	n/a	n/a	n/a	n/a
3286324	FFR_REC_WORD	wordpools/wasnorm_wordpool.txt	LTP110	ltpFR	14	n/a	-1	TRIANGLE	1504	n/a	-1	n/a	n/a	n/a	n/a	n/a
3287871	FFR_REC_WORD	wordpools/wasnorm_wordpool.txt	LTP110	ltpFR	14	n/a	-1	KETCHUP	771	n/a	-1	n/a	n/a	n/a	n/a	n/a
3288529	FFR_REC_WORD	wordpools/wasnorm_wordpool.txt	LTP110	ltpFR	14	n/a	-1	BLACKBERRY	132	n/a	-1	n/a	n/a	n/a	n/a	n/a
3289272	FFR_REC_WORD	wordpools/wasnorm_wordpool.txt	LTP110	ltpFR	14	n/a	1	RASPBERRY	1168	n/a	0	n/a	n/a	n/a	n/a	n/a
3290186	FFR_REC_WORD	wordpools/wasnorm_wordpool.txt	LTP110	ltpFR	14	n/a	1	BLUEBERRY	140	n/a	0	n/a	n/a	n/a	n/a	n/a
3293059	FFR_REC_WORD	wordpools/wasnorm_wordpool.txt	LTP110	ltpFR	14	n/a	0	BERRY	122	n/a	0	n/a	n/a	n/a	n/a	n/a
3293718	FFR_REC_WORD	wordpools/wasnorm_wordpool.txt	LTP110	ltpFR	14	n/a	1	CHERRY	293	n/a	0	n/a	n/a	n/a	n/a	n/a
3297838	FFR_REC_WORD	wordpools/wasnorm_wordpool.txt	LTP110	ltpFR	14	n/a	0	ATOM	55	n/a	0	n/a	n/a	n/a	n/a	n/a
3298416	FFR_REC_WORD	wordpools/wasnorm_wordpool.txt	LTP110	ltpFR	14	n/a	0	NUCLEUS	961	n/a	0	n/a	n/a	n/a	n/a	n/a
3300323	FFR_REC_WORD	wordpools/wasnorm_wordpool.txt	LTP110	ltpFR	14	n/a	0	BELL	118	n/a	0	n/a	n/a	n/a	n/a	n/a
3303755	FFR_REC_WORD	wordpools/wasnorm_wordpool.txt	LTP110	ltpFR	14	n/a	1	SHOP	1290	n/a	0	n/a	n/a	n/a	n/a	n/a
3307486	FFR_REC_WORD	wordpools/wasnorm_wordpool.txt	LTP110	ltpFR	14	n/a	0	CARDINAL	244	n/a	1	n/a	n/a	n/a	n/a	n/a
3308284	FFR_REC_WORD	wordpools/wasnorm_wordpool.txt	LTP110	ltpFR	14	n/a	0	BLUEJAY	141	n/a	0	n/a	n/a	n/a	n/a	n/a
3309103	FFR_REC_WORD	wordpools/wasnorm_wordpool.txt	LTP110	ltpFR	14	n/a	0	FEATHER	557	n/a	0	n/a	n/a	n/a	n/a	n/a
3313403	FFR_REC_WORD	wordpools/wasnorm_wordpool.txt	LTP110	ltpFR	14	n/a	-1	PEDAL	1037	n/a	-1	n/a	n/a	n/a	n/a	n/a
3315977	FFR_REC_WORD	wordpools/wasnorm_wordpool.txt	LTP110	ltpFR	14	n/a	-1	BLOSSOM	138	n/a	-1	n/a	n/a	n/a	n/a	n/a
3316845	FFR_REC_WORD	wordpools/wasnorm_wordpool.txt	LTP110	ltpFR	14	n/a	-1	DART	440	n/a	-1	n/a	n/a	n/a	n/a	n/a
3321494	FFR_REC_WORD	wordpools/wasnorm_wordpool.txt	LTP110	ltpFR	14	n/a	n/a	PSYCHIATRIST	-1	n/a	n/a	n/a	n/a	n/a	n/a	n/a
3324567	FFR_REC_WORD	wordpools/wasnorm_wordpool.txt	LTP110	ltpFR	14	n/a	1	PHYSICIAN	1056	n/a	1	n/a	n/a	n/a	n/a	n/a
3326962	FFR_REC_WORD	wordpools/wasnorm_wordpool.txt	LTP110	ltpFR	14	n/a	-1	PHILOSOPHER	1054	n/a	-1	n/a	n/a	n/a	n/a	n/a
3334166	FFR_REC_WORD	wordpools/wasnorm_wordpool.txt	LTP110	ltpFR	14	n/a	0	COLLEGE	346	n/a	1	n/a	n/a	n/a	n/a	n/a
3336171	FFR_REC_WORD	wordpools/wasnorm_wordpool.txt	LTP110	ltpFR	14	n/a	-1	TEACHER	1440	n/a	-1	n/a	n/a	n/a	n/a	n/a
3338076	FFR_REC_WORD	wordpools/wasnorm_wordpool.txt	LTP110	ltpFR	14	n/a	n/a	STUDENT	1395	n/a	n/a	n/a	n/a	n/a	n/a	n/a
3341220	FFR_REC_WORD	wordpools/wasnorm_wordpool.txt	LTP110	ltpFR	14	n/a	-1	COURSE	390	n/a	-1	n/a	n/a	n/a	n/a	n/a
3342098	FFR_REC_WORD	wordpools/wasnorm_wordpool.txt	LTP110	ltpFR	14	n/a	-1	CLASS	318	n/a	-1	n/a	n/a	n/a	n/a	n/a
3349601	FFR_REC_WORD	wordpools/wasnorm_wordpool.txt	LTP110	ltpFR	14	n/a	0	PAPER	1011	n/a	0	n/a	n/a	n/a	n/a	n/a
3351616	FFR_REC_WORD	wordpools/wasnorm_wordpool.txt	LTP110	ltpFR	14	n/a	0	BUGGY	188	n/a	1	n/a	n/a	n/a	n/a	n/a
3352354	FFR_REC_WORD	wordpools/wasnorm_wordpool.txt	LTP110	ltpFR	14	n/a	0	WAGON	1578	n/a	1	n/a	n/a	n/a	n/a	n/a
3353931	FFR_REC_WORD	wordpools/wasnorm_wordpool.txt	LTP110	ltpFR	14	n/a	0	ZEBRA	1635	n/a	1	n/a	n/a	n/a	n/a	n/a
3355058	FFR_REC_WORD	wordpools/wasnorm_wordpool.txt	LTP110	ltpFR	14	n/a	0	PORCUPINE	1107	n/a	1	n/a	n/a	n/a	n/a	n/a
3357104	FFR_REC_WORD	wordpools/wasnorm_wordpool.txt	LTP110	ltpFR	14	n/a	0	POSSUM	1112	n/a	1	n/a	n/a	n/a	n/a	n/a
3357942	FFR_REC_WORD	wordpools/wasnorm_wordpool.txt	LTP110	ltpFR	14	n/a	0	CAT	257	n/a	1	n/a	n/a	n/a	n/a	n/a
3358560	FFR_REC_WORD	wordpools/wasnorm_wordpool.txt	LTP110	ltpFR	14	n/a	0	MAMMAL	861	n/a	1	n/a	n/a	n/a	n/a	n/a
3361005	FFR_REC_WORD	wordpools/wasnorm_wordpool.txt	LTP110	ltpFR	14	n/a	1	PORPOISE	1109	n/a	1	n/a	n/a	n/a	n/a	n/a
3364487	FFR_REC_WORD	wordpools/wasnorm_wordpool.txt	LTP110	ltpFR	14	n/a	0	HOE	711	n/a	1	n/a	n/a	n/a	n/a	n/a
3365804	FFR_REC_WORD	wordpools/wasnorm_wordpool.txt	LTP110	ltpFR	14	n/a	n/a	RAKE	1164	n/a	n/a	n/a	n/a	n/a	n/a	n/a
3367899	FFR_REC_WORD	wordpools/wasnorm_wordpool.txt	LTP110	ltpFR	14	n/a	0	SHOVEL	1295	n/a	0	n/a	n/a	n/a	n/a	n/a
3370084	FFR_REC_WORD	wordpools/wasnorm_wordpool.txt	LTP110	ltpFR	14	n/a	0	DIRT	472	n/a	0	n/a	n/a	n/a	n/a	n/a
3371985	FFR_REC_WORD	wordpools/wasnorm_wordpool.txt	LTP110	ltpFR	14	n/a	0	HERB	704	n/a	0	n/a	n/a	n/a	n/a	n/a
3373706	FFR_REC_WORD	wordpools/wasnorm_wordpool.txt	LTP110	ltpFR	14	n/a	0	CLOVE	329	n/a	0	n/a	n/a	n/a	n/a	n/a
3387365	FFR_REC_WORD	wordpools/wasnorm_wordpool.txt	LTP110	ltpFR	14	n/a	-1	SUPPER	1411	n/a	-1	n/a	n/a	n/a	n/a	n/a
3388517	FFR_REC_WORD	wordpools/wasnorm_wordpool.txt	LTP110	ltpFR	14	n/a	-1	TAR	1435	n/a	-1	n/a	n/a	n/a	n/a	n/a
3389420	FFR_REC_WORD	wordpools/wasnorm_wordpool.txt	LTP110	ltpFR	14	n/a	-1	TUNNEL	1519	n/a	-1	n/a	n/a	n/a	n/a	n/a
3390917	FFR_REC_WORD	wordpools/wasnorm_wordpool.txt	LTP110	ltpFR	14	n/a	-1	NEWSSTAND	949	n/a	-1	n/a	n/a	n/a	n/a	n/a
3392124	FFR_REC_WORD	wordpools/wasnorm_wordpool.txt	LTP110	ltpFR	14	n/a	-1	KNOT	788	n/a	-1	n/a	n/a	n/a	n/a	n/a
3393780	FFR_REC_WORD	wordpools/wasnorm_wordpool.txt	LTP110	ltpFR	14	n/a	-1	TAPE	1433	n/a	-1	n/a	n/a	n/a	n/a	n/a
3396664	FFR_REC_WORD	wordpools/wasnorm_wordpool.txt	LTP110	ltpFR	14	n/a	1	BOULDER	155	n/a	0	n/a	n/a	n/a	n/a	n/a
3397542	FFR_REC_WORD	wordpools/wasnorm_wordpool.txt	LTP110	ltpFR	14	n/a	1	ROCK	1201	n/a	0	n/a	n/a	n/a	n/a	n/a
3398509	FFR_REC_WORD	wordpools/wasnorm_wordpool.txt	LTP110	ltpFR	14	n/a	1	DONKEY	484	n/a	1	n/a	n/a	n/a	n/a	n/a
3399826	FFR_REC_WORD	wordpools/wasnorm_wordpool.txt	LTP110	ltpFR	14	n/a	1	BANQUET	86	n/a	0	n/a	n/a	n/a	n/a	n/a
3402351	FFR_REC_WORD	wordpools/wasnorm_wordpool.txt	LTP110	ltpFR	14	n/a	1	WALL	1582	n/a	0	n/a	n/a	n/a	n/a	n/a
3405723	FFR_REC_WORD	wordpools/wasnorm_wordpool.txt	LTP110	ltpFR	14	n/a	1	HOSTAGE	722	n/a	1	n/a	n/a	n/a	n/a	n/a
3406600	FFR_REC_WORD	wordpools/wasnorm_wordpool.txt	LTP110	ltpFR	14	n/a	1	VICTIM	1562	n/a	1	n/a	n/a	n/a	n/a	n/a
3407679	FFR_REC_WORD	wordpools/wasnorm_wordpool.txt	LTP110	ltpFR	14	n/a	1	CRIMINAL	409	n/a	1	n/a	n/a	n/a	n/a	n/a
3414044	FFR_REC_WORD	wordpools/wasnorm_wordpool.txt	LTP110	ltpFR	14	n/a	1	GANGSTER	620	n/a	1	n/a	n/a	n/a	n/a	n/a
3422535	FFR_REC_WORD	wordpools/wasnorm_wordpool.txt	LTP110	ltpFR	14	n/a	0	LETTUCE	814	n/a	0	n/a	n/a	n/a	n/a	n/a
3425129	FFR_REC_WORD	wordpools/wasnorm_wordpool.txt	LTP110	ltpFR	14	n/a	0	CHICKEN	297	n/a	1	n/a	n/a	n/a	n/a	n/a
3425892	FFR_REC_WORD	wordpools/wasnorm_wordpool.txt	LTP110	ltpFR	14	n/a	0	DINOSAUR	469	n/a	1	n/a	n/a	n/a	n/a	n/a
3426775	FFR_REC_WORD	wordpools/wasnorm_wordpool.txt	LTP110	ltpFR	14	n/a	n/a	RAPTOR	-1	n/a	n/a	n/a	n/a	n/a	n/a	n/a
3429898	FFR_REC_WORD	wordpools/wasnorm_wordpool.txt	LTP110	ltpFR	14	n/a	n/a	REPTILE	1185	n/a	n/a	n/a	n/a	n/a	n/a	n/a
3430816	FFR_REC_WORD	wordpools/wasnorm_wordpool.txt	LTP110	ltpFR	14	n/a	0	COBRA	336	n/a	1	n/a	n/a	n/a	n/a	n/a
3432462	FFR_REC_WORD	wordpools/wasnorm_wordpool.txt	LTP110	ltpFR	14	n/a	1	SERPENT	1270	n/a	1	n/a	n/a	n/a	n/a	n/a
3434358	FFR_REC_WORD	wordpools/wasnorm_wordpool.txt	LTP110	ltpFR	14	n/a	1	FUR	615	n/a	0	n/a	n/a	n/a	n/a	n/a
3435515	FFR_REC_WORD	wordpools/wasnorm_wordpool.txt	LTP110	ltpFR	14	n/a	1	CHEERLEADER	288	n/a	1	n/a	n/a	n/a	n/a	n/a
3436411	FFR_REC_WORD	wordpools/wasnorm_wordpool.txt	LTP110	ltpFR	14	n/a	1	REFEREE	1178	n/a	1	n/a	n/a	n/a	n/a	n/a
3441951	FFR_REC_WORD	wordpools/wasnorm_wordpool.txt	LTP110	ltpFR	14	n/a	-1	VOLLEYBALL	1576	n/a	-1	n/a	n/a	n/a	n/a	n/a
3442805	FFR_REC_WORD	wordpools/wasnorm_wordpool.txt	LTP110	ltpFR	14	n/a	-1	SOFTBALL	1343	n/a	-1	n/a	n/a	n/a	n/a	n/a
3445632	FFR_REC_WORD	wordpools/wasnorm_wordpool.txt	LTP110	ltpFR	14	n/a	1	TABLE	1426	n/a	0	n/a	n/a	n/a	n/a	n/a
3446255	FFR_REC_WORD	wordpools/wasnorm_wordpool.txt	LTP110	ltpFR	14	n/a	1	SEAT	1264	n/a	0	n/a	n/a	n/a	n/a	n/a
3448596	FFR_REC_WORD	wordpools/wasnorm_wordpool.txt	LTP110	ltpFR	14	n/a	1	COUNTY	389	n/a	0	n/a	n/a	n/a	n/a	n/a
3450172	FFR_REC_WORD	wordpools/wasnorm_wordpool.txt	LTP110	ltpFR	14	n/a	1	ELK	526	n/a	1	n/a	n/a	n/a	n/a	n/a
3451270	FFR_REC_WORD	wordpools/wasnorm_wordpool.txt	LTP110	ltpFR	14	n/a	1	BULL	193	n/a	1	n/a	n/a	n/a	n/a	n/a
3452088	FFR_REC_WORD	wordpools/wasnorm_wordpool.txt	LTP110	ltpFR	14	n/a	1	BISON	131	n/a	1	n/a	n/a	n/a	n/a	n/a
3455560	FFR_REC_WORD	wordpools/wasnorm_wordpool.txt	LTP110	ltpFR	14	n/a	1	HERD	705	n/a	0	n/a	n/a	n/a	n/a	n/a
3457406	FFR_REC_WORD	wordpools/wasnorm_wordpool.txt	LTP110	ltpFR	14	n/a	1	RAM	1165	n/a	1	n/a	n/a	n/a	n/a	n/a
3459461	FFR_REC_WORD	wordpools/wasnorm_wordpool.txt	LTP110	ltpFR	14	n/a	1	ROSE	1212	n/a	0	n/a	n/a	n/a	n/a	n/a
3460568	FFR_REC_WORD	wordpools/wasnorm_wordpool.txt	LTP110	ltpFR	14	n/a	1	TOY	1492	n/a	0	n/a	n/a	n/a	n/a	n/a
3463212	FFR_REC_WORD	wordpools/wasnorm_wordpool.txt	LTP110	ltpFR	14	n/a	1	GRILL	661	n/a	0	n/a	n/a	n/a	n/a	n/a
3464070	FFR_REC_WORD	wordpools/wasnorm_wordpool.txt	LTP110	ltpFR	14	n/a	1	LIMB	822	n/a	0	n/a	n/a	n/a	n/a	n/a
3469797	FFR_REC_WORD	wordpools/wasnorm_wordpool.txt	LTP110	ltpFR	14	n/a	1	ELK	526	n/a	1	n/a	n/a	n/a	n/a	n/a
3473699	FFR_REC_WORD	wordpools/wasnorm_wordpool.txt	LTP110	ltpFR	14	n/a	1	STRING	1394	n/a	0	n/a	n/a	n/a	n/a	n/a
3475774	FFR_REC_WORD	wordpools/wasnorm_wordpool.txt	LTP110	ltpFR	14	n/a	1	STEREO	1378	n/a	0	n/a	n/a	n/a	n/a	n/a
3477799	FFR_REC_WORD	wordpools/wasnorm_wordpool.txt	LTP110	ltpFR	14	n/a	1	CELLO	268	n/a	0	n/a	n/a	n/a	n/a	n/a
3488655	FFR_REC_WORD	wordpools/wasnorm_wordpool.txt	LTP110	ltpFR	14	n/a	0	BELL	118	n/a	0	n/a	n/a	n/a	n/a	n/a
3493833	FFR_REC_WORD	wordpools/wasnorm_wordpool.txt	LTP110	ltpFR	14	n/a	1	CEILING	265	n/a	0	n/a	n/a	n/a	n/a	n/a
3494960	FFR_REC_WORD	wordpools/wasnorm_wordpool.txt	LTP110	ltpFR	14	n/a	1	BUTCHER	203	n/a	1	n/a	n/a	n/a	n/a	n/a
3495908	FFR_REC_WORD	wordpools/wasnorm_wordpool.txt	LTP110	ltpFR	14	n/a	1	TILE	1468	n/a	0	n/a	n/a	n/a	n/a	n/a
3498003	FFR_REC_WORD	wordpools/wasnorm_wordpool.txt	LTP110	ltpFR	14	n/a	0	BUYER	208	n/a	1	n/a	n/a	n/a	n/a	n/a
3499230	FFR_REC_WORD	wordpools/wasnorm_wordpool.txt	LTP110	ltpFR	14	n/a	0	GEM	629	n/a	0	n/a	n/a	n/a	n/a	n/a
3500099	FFR_REC_WORD	wordpools/wasnorm_wordpool.txt	LTP110	ltpFR	14	n/a	1	JEWEL	757	n/a	0	n/a	n/a	n/a	n/a	n/a
3501495	FFR_REC_WORD	wordpools/wasnorm_wordpool.txt	LTP110	ltpFR	14	n/a	1	GARDEN	623	n/a	0	n/a	n/a	n/a	n/a	n/a
3503291	FFR_REC_WORD	wordpools/wasnorm_wordpool.txt	LTP110	ltpFR	14	n/a	0	STEW	1380	n/a	1	n/a	n/a	n/a	n/a	n/a
3507472	FFR_REC_WORD	wordpools/wasnorm_wordpool.txt	LTP110	ltpFR	14	n/a	-1	KETCHUP	771	n/a	-1	n/a	n/a	n/a	n/a	n/a
3509257	FFR_REC_WORD	wordpools/wasnorm_wordpool.txt	LTP110	ltpFR	14	n/a	-1	SANDWICH	1232	n/a	-1	n/a	n/a	n/a	n/a	n/a
3510245	FFR_REC_WORD	wordpools/wasnorm_wordpool.txt	LTP110	ltpFR	14	n/a	-1	TRIANGLE	1504	n/a	-1	n/a	n/a	n/a	n/a	n/a
3511343	FFR_REC_WORD	wordpools/wasnorm_wordpool.txt	LTP110	ltpFR	14	n/a	-1	RIBBON	1189	n/a	-1	n/a	n/a	n/a	n/a	n/a
3512046	FFR_REC_WORD	wordpools/wasnorm_wordpool.txt	LTP110	ltpFR	14	n/a	-1	DIRECTOR	471	n/a	-1	n/a	n/a	n/a	n/a	n/a
3512989	FFR_REC_WORD	wordpools/wasnorm_wordpool.txt	LTP110	ltpFR	14	n/a	-1	ACTRESS	6	n/a	-1	n/a	n/a	n/a	n/a	n/a
3518497	FFR_REC_WORD	wordpools/wasnorm_wordpool.txt	LTP110	ltpFR	14	n/a	n/a	PLATE	1086	n/a	n/a	n/a	n/a	n/a	n/a	n/a
3520981	FFR_REC_WORD	wordpools/wasnorm_wordpool.txt	LTP110	ltpFR	14	n/a	1	FLOWER	584	n/a	0	n/a	n/a	n/a	n/a	n/a
3539409	FFR_REC_WORD	wordpools/wasnorm_wordpool.txt	LTP110	ltpFR	14	n/a	0	UNIVERSE	1540	n/a	1	n/a	n/a	n/a	n/a	n/a
3540420	FFR_REC_WORD	wordpools/wasnorm_wordpool.txt	LTP110	ltpFR	14	n/a	0	SPACE	1345	n/a	1	n/a	n/a	n/a	n/a	n/a
3565658	REC_START	n/a	LTP110	ltpFR	14	1	n/a	n/a	n/a	n/a	n/a	n/a	n/a	n/a	n/a	n/a
3565690	RECOG_TARGET	n/a	LTP110	ltpFR	14	1	0	RICE	1190	5	0	n/a	n/a	n/a	n/a	n/a
3566715	RECOG_RESP	n/a	LTP110	ltpFR	14	1	0	RICE	1190	n/a	0	n/a	n/a	n/a	n/a	n/a
3567888	RECOG_CONF	n/a	LTP110	ltpFR	14	1	0	RICE	1190	5	0	n/a	n/a	n/a	n/a	n/a
3569415	RECOG_TARGET	n/a	LTP110	ltpFR	14	1	0	JUG	762	5	1	n/a	n/a	n/a	n/a	n/a
3569923	RECOG_RESP	n/a	LTP110	ltpFR	14	1	0	JUG	762	n/a	1	n/a	n/a	n/a	n/a	n/a
3570552	RECOG_CONF	n/a	LTP110	ltpFR	14	1	0	JUG	762	5	1	n/a	n/a	n/a	n/a	n/a
3571880	RECOG_LURE	n/a	LTP110	ltpFR	14	1	n/a	XEROX	1628	5	n/a	n/a	n/a	n/a	n/a	n/a
3572517	RECOG_RESP	n/a	LTP110	ltpFR	14	1	n/a	XEROX	1628	n/a	n/a	n/a	n/a	n/a	n/a	n/a
3573196	RECOG_CONF	n/a	LTP110	ltpFR	14	1	n/a	XEROX	1628	5	n/a	n/a	n/a	n/a	n/a	n/a
3574670	RECOG_LURE	n/a	LTP110	ltpFR	14	1	n/a	TAIL	1430	4	n/a	n/a	n/a	n/a	n/a	n/a
3575421	RECOG_RESP	n/a	LTP110	ltpFR	14	1	n/a	TAIL	1430	n/a	n/a	n/a	n/a	n/a	n/a	n/a
3575900	RECOG_CONF	n/a	LTP110	ltpFR	14	1	n/a	TAIL	1430	4	n/a	n/a	n/a	n/a	n/a	n/a
3577379	RECOG_TARGET	n/a	LTP110	ltpFR	14	1	0	AWARD	63	5	0	n/a	n/a	n/a	n/a	n/a
3578030	RECOG_RESP	n/a	LTP110	ltpFR	14	1	0	AWARD	63	n/a	0	n/a	n/a	n/a	n/a	n/a
3578603	RECOG_CONF	n/a	LTP110	ltpFR	14	1	0	AWARD	63	5	0	n/a	n/a	n/a	n/a	n/a
3579961	RECOG_TARGET	n/a	LTP110	ltpFR	14	1	-1	HONEY	713	5	-1	n/a	n/a	n/a	n/a	n/a
3580429	RECOG_RESP	n/a	LTP110	ltpFR	14	1	-1	HONEY	713	n/a	-1	n/a	n/a	n/a	n/a	n/a
3580948	RECOG_CONF	n/a	LTP110	ltpFR	14	1	-1	HONEY	713	5	-1	n/a	n/a	n/a	n/a	n/a
3582252	RECOG_TARGET	n/a	LTP110	ltpFR	14	1	-1	PERFUME	1049	5	-1	n/a	n/a	n/a	n/a	n/a
3582794	RECOG_RESP	n/a	LTP110	ltpFR	14	1	-1	PERFUME	1049	n/a	-1	n/a	n/a	n/a	n/a	n/a
3583313	RECOG_CONF	n/a	LTP110	ltpFR	14	1	-1	PERFUME	1049	5	-1	n/a	n/a	n/a	n/a	n/a
3584675	RECOG_LURE	n/a	LTP110	ltpFR	14	1	n/a	DENIM	446	4	n/a	n/a	n/a	n/a	n/a	n/a
3585373	RECOG_RESP	n/a	LTP110	ltpFR	14	1	n/a	DENIM	446	n/a	n/a	n/a	n/a	n/a	n/a	n/a
3586096	RECOG_CONF	n/a	LTP110	ltpFR	14	1	n/a	DENIM	446	4	n/a	n/a	n/a	n/a	n/a	n/a
3587400	RECOG_TARGET	n/a	LTP110	ltpFR	14	1	-1	TUXEDO	1525	5	-1	n/a	n/a	n/a	n/a	n/a
3588052	RECOG_RESP	n/a	LTP110	ltpFR	14	1	-1	TUXEDO	1525	n/a	-1	n/a	n/a	n/a	n/a	n/a
3588611	RECOG_CONF	n/a	LTP110	ltpFR	14	1	-1	TUXEDO	1525	5	-1	n/a	n/a	n/a	n/a	n/a
3590041	RECOG_TARGET	n/a	LTP110	ltpFR	14	1	1	PARENT	1013	5	1	n/a	n/a	n/a	n/a	n/a
3590616	RECOG_RESP	n/a	LTP110	ltpFR	14	1	1	PARENT	1013	n/a	1	n/a	n/a	n/a	n/a	n/a
3591165	RECOG_CONF	n/a	LTP110	ltpFR	14	1	1	PARENT	1013	5	1	n/a	n/a	n/a	n/a	n/a
3592456	RECOG_TARGET	n/a	LTP110	ltpFR	14	1	-1	TEACHER	1440	5	-1	n/a	n/a	n/a	n/a	n/a
3592861	RECOG_RESP	n/a	LTP110	ltpFR	14	1	-1	TEACHER	1440	n/a	-1	n/a	n/a	n/a	n/a	n/a
3593430	RECOG_CONF	n/a	LTP110	ltpFR	14	1	-1	TEACHER	1440	5	-1	n/a	n/a	n/a	n/a	n/a
3594755	RECOG_TARGET	n/a	LTP110	ltpFR	14	1	0	DEODORANT	448	5	0	n/a	n/a	n/a	n/a	n/a
3595241	RECOG_RESP	n/a	LTP110	ltpFR	14	1	0	DEODORANT	448	n/a	0	n/a	n/a	n/a	n/a	n/a
3595774	RECOG_CONF	n/a	LTP110	ltpFR	14	1	0	DEODORANT	448	5	0	n/a	n/a	n/a	n/a	n/a
3597155	RECOG_TARGET	n/a	LTP110	ltpFR	14	1	1	FOLDER	588	4	0	n/a	n/a	n/a	n/a	n/a
3597615	RECOG_RESP	n/a	LTP110	ltpFR	14	1	1	FOLDER	588	n/a	0	n/a	n/a	n/a	n/a	n/a
3598588	RECOG_CONF	n/a	LTP110	ltpFR	14	1	1	FOLDER	588	4	0	n/a	n/a	n/a	n/a	n/a
3600062	RECOG_TARGET	n/a	LTP110	ltpFR	14	1	0	DIVER	476	5	1	n/a	n/a	n/a	n/a	n/a
3600633	RECOG_RESP	n/a	LTP110	ltpFR	14	1	0	DIVER	476	n/a	1	n/a	n/a	n/a	n/a	n/a
3601212	RECOG_CONF	n/a	LTP110	ltpFR	14	1	0	DIVER	476	5	1	n/a	n/a	n/a	n/a	n/a
3602578	RECOG_TARGET	n/a	LTP110	ltpFR	14	1	1	BULL	193	5	1	n/a	n/a	n/a	n/a	n/a
3603138	RECOG_RESP	n/a	LTP110	ltpFR	14	1	1	BULL	193	n/a	1	n/a	n/a	n/a	n/a	n/a
3603726	RECOG_CONF	n/a	LTP110	ltpFR	14	1	1	BULL	193	5	1	n/a	n/a	n/a	n/a	n/a
3605110	RECOG_TARGET	n/a	LTP110	ltpFR	14	1	0	PAW	1029	5	0	n/a	n/a	n/a	n/a	n/a
3605572	RECOG_RESP	n/a	LTP110	ltpFR	14	1	0	PAW	1029	n/a	0	n/a	n/a	n/a	n/a	n/a
3606161	RECOG_CONF	n/a	LTP110	ltpFR	14	1	0	PAW	1029	5	0	n/a	n/a	n/a	n/a	n/a
3607526	RECOG_TARGET	n/a	LTP110	ltpFR	14	1	-1	CABINET	212	5	-1	n/a	n/a	n/a	n/a	n/a
3608061	RECOG_RESP	n/a	LTP110	ltpFR	14	1	-1	CABINET	212	n/a	-1	n/a	n/a	n/a	n/a	n/a
3608605	RECOG_CONF	n/a	LTP110	ltpFR	14	1	-1	CABINET	212	5	-1	n/a	n/a	n/a	n/a	n/a
3610009	RECOG_LURE	n/a	LTP110	ltpFR	14	1	n/a	BARREL	91	2	n/a	n/a	n/a	n/a	n/a	n/a
3610376	RECOG_RESP	n/a	LTP110	ltpFR	14	1	n/a	BARREL	91	n/a	n/a	n/a	n/a	n/a	n/a	n/a
3612456	RECOG_CONF	n/a	LTP110	ltpFR	14	1	n/a	BARREL	91	2	n/a	n/a	n/a	n/a	n/a	n/a
3614107	RECOG_LURE	n/a	LTP110	ltpFR	14	1	n/a	CITY	314	4	n/a	n/a	n/a	n/a	n/a	n/a
3616861	RECOG_RESP	n/a	LTP110	ltpFR	14	1	n/a	CITY	314	n/a	n/a	n/a	n/a	n/a	n/a	n/a
3617734	RECOG_CONF	n/a	LTP110	ltpFR	14	1	n/a	CITY	314	4	n/a	n/a	n/a	n/a	n/a	n/a
3619230	RECOG_TARGET	n/a	LTP110	ltpFR	14	1	1	BLUEBERRY	140	5	0	n/a	n/a	n/a	n/a	n/a
3619770	RECOG_RESP	n/a	LTP110	ltpFR	14	1	1	BLUEBERRY	140	n/a	0	n/a	n/a	n/a	n/a	n/a
3620299	RECOG_CONF	n/a	LTP110	ltpFR	14	1	1	BLUEBERRY	140	5	0	n/a	n/a	n/a	n/a	n/a
3623286	REC_START	n/a	LTP110	ltpFR	14	2	n/a	n/a	n/a	n/a	n/a	n/a	n/a	n/a	n/a	n/a
3623321	RECOG_TARGET	n/a	LTP110	ltpFR	14	2	0	PARROT	1015	5	1	n/a	n/a	n/a	n/a	n/a
3623840	RECOG_RESP	n/a	LTP110	ltpFR	14	2	0	PARROT	1015	n/a	1	n/a	n/a	n/a	n/a	n/a
3624408	RECOG_CONF	n/a	LTP110	ltpFR	14	2	0	PARROT	1015	5	1	n/a	n/a	n/a	n/a	n/a
3625769	RECOG_TARGET	n/a	LTP110	ltpFR	14	2	0	KITE	779	5	0	n/a	n/a	n/a	n/a	n/a
3626344	RECOG_RESP	n/a	LTP110	ltpFR	14	2	0	KITE	779	n/a	0	n/a	n/a	n/a	n/a	n/a
3626972	RECOG_CONF	n/a	LTP110	ltpFR	14	2	0	KITE	779	5	0	n/a	n/a	n/a	n/a	n/a
3628360	RECOG_TARGET	n/a	LTP110	ltpFR	14	2	1	HOSTAGE	722	5	1	n/a	n/a	n/a	n/a	n/a
3628783	RECOG_RESP	n/a	LTP110	ltpFR	14	2	1	HOSTAGE	722	n/a	1	n/a	n/a	n/a	n/a	n/a
3629287	RECOG_CONF	n/a	LTP110	ltpFR	14	2	1	HOSTAGE	722	5	1	n/a	n/a	n/a	n/a	n/a
3630526	RECOG_TARGET	n/a	LTP110	ltpFR	14	2	0	SHEEP	1278	5	1	n/a	n/a	n/a	n/a	n/a
3630998	RECOG_RESP	n/a	LTP110	ltpFR	14	2	0	SHEEP	1278	n/a	1	n/a	n/a	n/a	n/a	n/a
3631482	RECOG_CONF	n/a	LTP110	ltpFR	14	2	0	SHEEP	1278	5	1	n/a	n/a	n/a	n/a	n/a
3632733	RECOG_TARGET	n/a	LTP110	ltpFR	14	2	1	TABLE	1426	5	0	n/a	n/a	n/a	n/a	n/a
3633158	RECOG_RESP	n/a	LTP110	ltpFR	14	2	1	TABLE	1426	n/a	0	n/a	n/a	n/a	n/a	n/a
3633687	RECOG_CONF	n/a	LTP110	ltpFR	14	2	1	TABLE	1426	5	0	n/a	n/a	n/a	n/a	n/a
3635066	RECOG_TARGET	n/a	LTP110	ltpFR	14	2	0	CARDINAL	244	5	1	n/a	n/a	n/a	n/a	n/a
3635433	RECOG_RESP	n/a	LTP110	ltpFR	14	2	0	CARDINAL	244	n/a	1	n/a	n/a	n/a	n/a	n/a
3635932	RECOG_CONF	n/a	LTP110	ltpFR	14	2	0	CARDINAL	244	5	1	n/a	n/a	n/a	n/a	n/a
3637349	RECOG_TARGET	n/a	LTP110	ltpFR	14	2	1	UNIFORM	1539	5	0	n/a	n/a	n/a	n/a	n/a
3637723	RECOG_RESP	n/a	LTP110	ltpFR	14	2	1	UNIFORM	1539	n/a	0	n/a	n/a	n/a	n/a	n/a
3638257	RECOG_CONF	n/a	LTP110	ltpFR	14	2	1	UNIFORM	1539	5	0	n/a	n/a	n/a	n/a	n/a
3639647	RECOG_LURE	n/a	LTP110	ltpFR	14	2	n/a	EARRING	514	4	n/a	n/a	n/a	n/a	n/a	n/a
3640078	RECOG_RESP_VV	n/a	LTP110	ltpFR	14	2	n/a	EARRING	514	n/a	n/a	n/a	n/a	n/a	n/a	n/a
3640631	RECOG_RESP	n/a	LTP110	ltpFR	14	2	n/a	EARRING	514	n/a	n/a	n/a	n/a	n/a	n/a	n/a
3641280	RECOG_CONF	n/a	LTP110	ltpFR	14	2	n/a	EARRING	514	4	n/a	n/a	n/a	n/a	n/a	n/a
3642663	RECOG_TARGET	n/a	LTP110	ltpFR	14	2	0	INDIAN	736	5	1	n/a	n/a	n/a	n/a	n/a
3643240	RECOG_RESP	n/a	LTP110	ltpFR	14	2	0	INDIAN	736	n/a	1	n/a	n/a	n/a	n/a	n/a
3643744	RECOG_CONF	n/a	LTP110	ltpFR	14	2	0	INDIAN	736	5	1	n/a	n/a	n/a	n/a	n/a
3645196	RECOG_TARGET	n/a	LTP110	ltpFR	14	2	0	TERRITORY	1452	5	1	n/a	n/a	n/a	n/a	n/a
3645825	RECOG_RESP	n/a	LTP110	ltpFR	14	2	0	TERRITORY	1452	n/a	1	n/a	n/a	n/a	n/a	n/a
3646357	RECOG_CONF	n/a	LTP110	ltpFR	14	2	0	TERRITORY	1452	5	1	n/a	n/a	n/a	n/a	n/a
3647786	RECOG_LURE	n/a	LTP110	ltpFR	14	2	n/a	SHARK	1275	4	n/a	n/a	n/a	n/a	n/a	n/a
3648369	RECOG_RESP	n/a	LTP110	ltpFR	14	2	n/a	SHARK	1275	n/a	n/a	n/a	n/a	n/a	n/a	n/a
3649012	RECOG_CONF	n/a	LTP110	ltpFR	14	2	n/a	SHARK	1275	4	n/a	n/a	n/a	n/a	n/a	n/a
3650419	RECOG_TARGET	n/a	LTP110	ltpFR	14	2	1	TRAITOR	1495	5	1	n/a	n/a	n/a	n/a	n/a
3650873	RECOG_RESP	n/a	LTP110	ltpFR	14	2	1	TRAITOR	1495	n/a	1	n/a	n/a	n/a	n/a	n/a
3651367	RECOG_CONF	n/a	LTP110	ltpFR	14	2	1	TRAITOR	1495	5	1	n/a	n/a	n/a	n/a	n/a
3652759	RECOG_TARGET	n/a	LTP110	ltpFR	14	2	1	KETTLE	772	5	0	n/a	n/a	n/a	n/a	n/a
3653248	RECOG_RESP	n/a	LTP110	ltpFR	14	2	1	KETTLE	772	n/a	0	n/a	n/a	n/a	n/a	n/a
3653722	RECOG_CONF	n/a	LTP110	ltpFR	14	2	1	KETTLE	772	5	0	n/a	n/a	n/a	n/a	n/a
3655093	RECOG_TARGET	n/a	LTP110	ltpFR	14	2	0	LIZARD	834	5	1	n/a	n/a	n/a	n/a	n/a
3656884	RECOG_RESP	n/a	LTP110	ltpFR	14	2	0	LIZARD	834	n/a	1	n/a	n/a	n/a	n/a	n/a
3657802	RECOG_CONF	n/a	LTP110	ltpFR	14	2	0	LIZARD	834	5	1	n/a	n/a	n/a	n/a	n/a
3659366	RECOG_LURE	n/a	LTP110	ltpFR	14	2	n/a	POLICE	1098	4	n/a	n/a	n/a	n/a	n/a	n/a
3660386	RECOG_RESP	n/a	LTP110	ltpFR	14	2	n/a	POLICE	1098	n/a	n/a	n/a	n/a	n/a	n/a	n/a
3660985	RECOG_CONF	n/a	LTP110	ltpFR	14	2	n/a	POLICE	1098	4	n/a	n/a	n/a	n/a	n/a	n/a
3662365	RECOG_LURE	n/a	LTP110	ltpFR	14	2	n/a	CROWN	415	4	n/a	n/a	n/a	n/a	n/a	n/a
3663055	RECOG_RESP	n/a	LTP110	ltpFR	14	2	n/a	CROWN	415	n/a	n/a	n/a	n/a	n/a	n/a	n/a
3663609	RECOG_CONF	n/a	LTP110	ltpFR	14	2	n/a	CROWN	415	4	n/a	n/a	n/a	n/a	n/a	n/a
3664898	RECOG_TARGET	n/a	LTP110	ltpFR	14	2	1	BOULDER	155	5	0	n/a	n/a	n/a	n/a	n/a
3665515	RECOG_RESP	n/a	LTP110	ltpFR	14	2	1	BOULDER	155	n/a	0	n/a	n/a	n/a	n/a	n/a
3665984	RECOG_CONF	n/a	LTP110	ltpFR	14	2	1	BOULDER	155	5	0	n/a	n/a	n/a	n/a	n/a
3667338	RECOG_TARGET	n/a	LTP110	ltpFR	14	2	0	ROOST	1208	5	0	n/a	n/a	n/a	n/a	n/a
3667899	RECOG_RESP	n/a	LTP110	ltpFR	14	2	0	ROOST	1208	n/a	0	n/a	n/a	n/a	n/a	n/a
3668388	RECOG_CONF	n/a	LTP110	ltpFR	14	2	0	ROOST	1208	5	0	n/a	n/a	n/a	n/a	n/a
3669803	RECOG_TARGET	n/a	LTP110	ltpFR	14	2	1	LIMB	822	5	0	n/a	n/a	n/a	n/a	n/a
3670374	RECOG_RESP	n/a	LTP110	ltpFR	14	2	1	LIMB	822	n/a	0	n/a	n/a	n/a	n/a	n/a
3670903	RECOG_CONF	n/a	LTP110	ltpFR	14	2	1	LIMB	822	5	0	n/a	n/a	n/a	n/a	n/a
3672253	RECOG_TARGET	n/a	LTP110	ltpFR	14	2	0	BANDAGE	79	5	0	n/a	n/a	n/a	n/a	n/a
3672758	RECOG_RESP	n/a	LTP110	ltpFR	14	2	0	BANDAGE	79	n/a	0	n/a	n/a	n/a	n/a	n/a
3673606	RECOG_CONF	n/a	LTP110	ltpFR	14	2	0	BANDAGE	79	5	0	n/a	n/a	n/a	n/a	n/a
3677033	REC_START	n/a	LTP110	ltpFR	14	3	n/a	n/a	n/a	n/a	n/a	n/a	n/a	n/a	n/a	n/a
3677068	RECOG_TARGET	n/a	LTP110	ltpFR	14	3	-1	ENGINEER	536	5	-1	n/a	n/a	n/a	n/a	n/a
3677696	RECOG_RESP	n/a	LTP110	ltpFR	14	3	-1	ENGINEER	536	n/a	-1	n/a	n/a	n/a	n/a	n/a
3678195	RECOG_CONF	n/a	LTP110	ltpFR	14	3	-1	ENGINEER	536	5	-1	n/a	n/a	n/a	n/a	n/a
3679484	RECOG_LURE	n/a	LTP110	ltpFR	14	3	n/a	CAVITY	264	4	n/a	n/a	n/a	n/a	n/a	n/a
3680091	RECOG_RESP	n/a	LTP110	ltpFR	14	3	n/a	CAVITY	264	n/a	n/a	n/a	n/a	n/a	n/a	n/a
3680829	RECOG_CONF	n/a	LTP110	ltpFR	14	3	n/a	CAVITY	264	4	n/a	n/a	n/a	n/a	n/a	n/a
3682158	RECOG_TARGET	n/a	LTP110	ltpFR	14	3	0	DILL	465	5	0	n/a	n/a	n/a	n/a	n/a
3682735	RECOG_RESP	n/a	LTP110	ltpFR	14	3	0	DILL	465	n/a	0	n/a	n/a	n/a	n/a	n/a
3683174	RECOG_CONF	n/a	LTP110	ltpFR	14	3	0	DILL	465	5	0	n/a	n/a	n/a	n/a	n/a
3684457	RECOG_TARGET	n/a	LTP110	ltpFR	14	3	1	CRIMINAL	409	5	1	n/a	n/a	n/a	n/a	n/a
3685000	RECOG_RESP	n/a	LTP110	ltpFR	14	3	1	CRIMINAL	409	n/a	1	n/a	n/a	n/a	n/a	n/a
3685449	RECOG_CONF	n/a	LTP110	ltpFR	14	3	1	CRIMINAL	409	5	1	n/a	n/a	n/a	n/a	n/a
3687056	RECOG_TARGET	n/a	LTP110	ltpFR	14	3	0	PEACH	1031	5	0	n/a	n/a	n/a	n/a	n/a
3687599	RECOG_RESP	n/a	LTP110	ltpFR	14	3	0	PEACH	1031	n/a	0	n/a	n/a	n/a	n/a	n/a
3688073	RECOG_CONF	n/a	LTP110	ltpFR	14	3	0	PEACH	1031	5	0	n/a	n/a	n/a	n/a	n/a
3689372	RECOG_TARGET	n/a	LTP110	ltpFR	14	3	0	WAGON	1578	5	1	n/a	n/a	n/a	n/a	n/a
3690018	RECOG_RESP	n/a	LTP110	ltpFR	14	3	0	WAGON	1578	n/a	1	n/a	n/a	n/a	n/a	n/a
3690499	RECOG_CONF	n/a	LTP110	ltpFR	14	3	0	WAGON	1578	5	1	n/a	n/a	n/a	n/a	n/a
3691855	RECOG_TARGET	n/a	LTP110	ltpFR	14	3	0	ASIA	46	5	1	n/a	n/a	n/a	n/a	n/a
3692403	RECOG_RESP	n/a	LTP110	ltpFR	14	3	0	ASIA	46	n/a	1	n/a	n/a	n/a	n/a	n/a
3692902	RECOG_CONF	n/a	LTP110	ltpFR	14	3	0	ASIA	46	5	1	n/a	n/a	n/a	n/a	n/a
3694195	RECOG_TARGET	n/a	LTP110	ltpFR	14	3	0	WINE	1613	5	1	n/a	n/a	n/a	n/a	n/a
3695187	RECOG_RESP	n/a	LTP110	ltpFR	14	3	0	WINE	1613	n/a	1	n/a	n/a	n/a	n/a	n/a
3695695	RECOG_CONF	n/a	LTP110	ltpFR	14	3	0	WINE	1613	5	1	n/a	n/a	n/a	n/a	n/a
3697019	RECOG_LURE	n/a	LTP110	ltpFR	14	3	n/a	NAIL	936	4	n/a	n/a	n/a	n/a	n/a	n/a
3697661	RECOG_RESP	n/a	LTP110	ltpFR	14	3	n/a	NAIL	936	n/a	n/a	n/a	n/a	n/a	n/a	n/a
3698160	RECOG_CONF	n/a	LTP110	ltpFR	14	3	n/a	NAIL	936	4	n/a	n/a	n/a	n/a	n/a	n/a
3699569	RECOG_TARGET	n/a	LTP110	ltpFR	14	3	-1	LOBSTER	837	5	-1	n/a	n/a	n/a	n/a	n/a
3700100	RECOG_RESP	n/a	LTP110	ltpFR	14	3	-1	LOBSTER	837	n/a	-1	n/a	n/a	n/a	n/a	n/a
3700574	RECOG_CONF	n/a	LTP110	ltpFR	14	3	-1	LOBSTER	837	5	-1	n/a	n/a	n/a	n/a	n/a
3701851	RECOG_LURE	n/a	LTP110	ltpFR	14	3	n/a	ENVELOPE	537	4	n/a	n/a	n/a	n/a	n/a	n/a
3702605	RECOG_RESP	n/a	LTP110	ltpFR	14	3	n/a	ENVELOPE	537	n/a	n/a	n/a	n/a	n/a	n/a	n/a
3703218	RECOG_CONF	n/a	LTP110	ltpFR	14	3	n/a	ENVELOPE	537	4	n/a	n/a	n/a	n/a	n/a	n/a
3704500	RECOG_TARGET	n/a	LTP110	ltpFR	14	3	1	CROW	414	5	1	n/a	n/a	n/a	n/a	n/a
3705064	RECOG_RESP	n/a	LTP110	ltpFR	14	3	1	CROW	414	n/a	1	n/a	n/a	n/a	n/a	n/a
3705503	RECOG_CONF	n/a	LTP110	ltpFR	14	3	1	CROW	414	5	1	n/a	n/a	n/a	n/a	n/a
3706908	RECOG_TARGET	n/a	LTP110	ltpFR	14	3	1	BRANCH	168	5	0	n/a	n/a	n/a	n/a	n/a
3707394	RECOG_RESP	n/a	LTP110	ltpFR	14	3	1	BRANCH	168	n/a	0	n/a	n/a	n/a	n/a	n/a
3707888	RECOG_CONF	n/a	LTP110	ltpFR	14	3	1	BRANCH	168	5	0	n/a	n/a	n/a	n/a	n/a
3709248	RECOG_TARGET	n/a	LTP110	ltpFR	14	3	-1	ARMY	39	5	-1	n/a	n/a	n/a	n/a	n/a
3709803	RECOG_RESP	n/a	LTP110	ltpFR	14	3	-1	ARMY	39	n/a	-1	n/a	n/a	n/a	n/a	n/a
3710272	RECOG_CONF	n/a	LTP110	ltpFR	14	3	-1	ARMY	39	5	-1	n/a	n/a	n/a	n/a	n/a
3711663	RECOG_TARGET	n/a	LTP110	ltpFR	14	3	1	DIPLOMA	470	5	0	n/a	n/a	n/a	n/a	n/a
3712158	RECOG_RESP	n/a	LTP110	ltpFR	14	3	1	DIPLOMA	470	n/a	0	n/a	n/a	n/a	n/a	n/a
3712617	RECOG_CONF	n/a	LTP110	ltpFR	14	3	1	DIPLOMA	470	5	0	n/a	n/a	n/a	n/a	n/a
3714022	RECOG_TARGET	n/a	LTP110	ltpFR	14	3	-1	ACTRESS	6	5	-1	n/a	n/a	n/a	n/a	n/a
3714637	RECOG_RESP	n/a	LTP110	ltpFR	14	3	-1	ACTRESS	6	n/a	-1	n/a	n/a	n/a	n/a	n/a
3715151	RECOG_CONF	n/a	LTP110	ltpFR	14	3	-1	ACTRESS	6	5	-1	n/a	n/a	n/a	n/a	n/a
3716612	RECOG_TARGET	n/a	LTP110	ltpFR	14	3	0	HEART	697	5	0	n/a	n/a	n/a	n/a	n/a
3717127	RECOG_RESP	n/a	LTP110	ltpFR	14	3	0	HEART	697	n/a	0	n/a	n/a	n/a	n/a	n/a
3717606	RECOG_CONF	n/a	LTP110	ltpFR	14	3	0	HEART	697	5	0	n/a	n/a	n/a	n/a	n/a
3718937	RECOG_TARGET	n/a	LTP110	ltpFR	14	3	0	CACTUS	215	5	1	n/a	n/a	n/a	n/a	n/a
3719431	RECOG_RESP	n/a	LTP110	ltpFR	14	3	0	CACTUS	215	n/a	1	n/a	n/a	n/a	n/a	n/a
3719920	RECOG_CONF	n/a	LTP110	ltpFR	14	3	0	CACTUS	215	5	1	n/a	n/a	n/a	n/a	n/a
3721227	RECOG_TARGET	n/a	LTP110	ltpFR	14	3	1	DONKEY	484	5	1	n/a	n/a	n/a	n/a	n/a
3721701	RECOG_RESP	n/a	LTP110	ltpFR	14	3	1	DONKEY	484	n/a	1	n/a	n/a	n/a	n/a	n/a
3722165	RECOG_CONF	n/a	LTP110	ltpFR	14	3	1	DONKEY	484	5	1	n/a	n/a	n/a	n/a	n/a
3723510	RECOG_TARGET	n/a	LTP110	ltpFR	14	3	0	BUGGY	188	5	1	n/a	n/a	n/a	n/a	n/a
3723961	RECOG_RESP	n/a	LTP110	ltpFR	14	3	0	BUGGY	188	n/a	1	n/a	n/a	n/a	n/a	n/a
3724410	RECOG_CONF	n/a	LTP110	ltpFR	14	3	0	BUGGY	188	5	1	n/a	n/a	n/a	n/a	n/a
3727378	REC_START	n/a	LTP110	ltpFR	14	4	n/a	n/a	n/a	n/a	n/a	n/a	n/a	n/a	n/a	n/a
3727409	RECOG_TARGET	n/a	LTP110	ltpFR	14	4	1	PATIENT	1024	5	1	n/a	n/a	n/a	n/a	n/a
3728206	RECOG_RESP	n/a	LTP110	ltpFR	14	4	1	PATIENT	1024	n/a	1	n/a	n/a	n/a	n/a	n/a
3728680	RECOG_CONF	n/a	LTP110	ltpFR	14	4	1	PATIENT	1024	5	1	n/a	n/a	n/a	n/a	n/a
3730058	RECOG_TARGET	n/a	LTP110	ltpFR	14	4	-1	BLOSSOM	138	5	-1	n/a	n/a	n/a	n/a	n/a
3730680	RECOG_RESP	n/a	LTP110	ltpFR	14	4	-1	BLOSSOM	138	n/a	-1	n/a	n/a	n/a	n/a	n/a
3731184	RECOG_CONF	n/a	LTP110	ltpFR	14	4	-1	BLOSSOM	138	5	-1	n/a	n/a	n/a	n/a	n/a
3732515	RECOG_TARGET	n/a	LTP110	ltpFR	14	4	0	TYPEWRITER	1531	5	1	n/a	n/a	n/a	n/a	n/a
3732920	RECOG_RESP	n/a	LTP110	ltpFR	14	4	0	TYPEWRITER	1531	n/a	1	n/a	n/a	n/a	n/a	n/a
3733359	RECOG_CONF	n/a	LTP110	ltpFR	14	4	0	TYPEWRITER	1531	5	1	n/a	n/a	n/a	n/a	n/a
3735048	RECOG_TARGET	n/a	LTP110	ltpFR	14	4	0	CANE	231	5	1	n/a	n/a	n/a	n/a	n/a
3735554	RECOG_RESP	n/a	LTP110	ltpFR	14	4	0	CANE	231	n/a	1	n/a	n/a	n/a	n/a	n/a
3735993	RECOG_CONF	n/a	LTP110	ltpFR	14	4	0	CANE	231	5	1	n/a	n/a	n/a	n/a	n/a
3737405	RECOG_TARGET	n/a	LTP110	ltpFR	14	4	-1	KETCHUP	771	5	-1	n/a	n/a	n/a	n/a	n/a
3737789	RECOG_RESP	n/a	LTP110	ltpFR	14	4	-1	KETCHUP	771	n/a	-1	n/a	n/a	n/a	n/a	n/a
3738275	RECOG_CONF	n/a	LTP110	ltpFR	14	4	-1	KETCHUP	771	5	-1	n/a	n/a	n/a	n/a	n/a
3739596	RECOG_TARGET	n/a	LTP110	ltpFR	14	4	0	TURNIP	1521	5	0	n/a	n/a	n/a	n/a	n/a
3740064	RECOG_RESP	n/a	LTP110	ltpFR	14	4	0	TURNIP	1521	n/a	0	n/a	n/a	n/a	n/a	n/a
3740503	RECOG_CONF	n/a	LTP110	ltpFR	14	4	0	TURNIP	1521	5	0	n/a	n/a	n/a	n/a	n/a
3741862	RECOG_TARGET	n/a	LTP110	ltpFR	14	4	1	ROCK	1201	5	0	n/a	n/a	n/a	n/a	n/a
3742339	RECOG_RESP	n/a	LTP110	ltpFR	14	4	1	ROCK	1201	n/a	0	n/a	n/a	n/a	n/a	n/a
3743027	RECOG_CONF	n/a	LTP110	ltpFR	14	4	1	ROCK	1201	5	0	n/a	n/a	n/a	n/a	n/a
3744461	RECOG_TARGET	n/a	LTP110	ltpFR	14	4	-1	CITRUS	313	5	-1	n/a	n/a	n/a	n/a	n/a
3744823	RECOG_RESP	n/a	LTP110	ltpFR	14	4	-1	CITRUS	313	n/a	-1	n/a	n/a	n/a	n/a	n/a
3745561	RECOG_CONF	n/a	LTP110	ltpFR	14	4	-1	CITRUS	313	5	-1	n/a	n/a	n/a	n/a	n/a
3747002	RECOG_TARGET	n/a	LTP110	ltpFR	14	4	0	CAT	257	5	1	n/a	n/a	n/a	n/a	n/a
3747592	RECOG_RESP	n/a	LTP110	ltpFR	14	4	0	CAT	257	n/a	1	n/a	n/a	n/a	n/a	n/a
3748046	RECOG_CONF	n/a	LTP110	ltpFR	14	4	0	CAT	257	5	1	n/a	n/a	n/a	n/a	n/a
3749426	RECOG_TARGET	n/a	LTP110	ltpFR	14	4	0	RAZOR	1171	5	0	n/a	n/a	n/a	n/a	n/a
3749862	RECOG_RESP	n/a	LTP110	ltpFR	14	4	0	RAZOR	1171	n/a	0	n/a	n/a	n/a	n/a	n/a
3750321	RECOG_CONF	n/a	LTP110	ltpFR	14	4	0	RAZOR	1171	5	0	n/a	n/a	n/a	n/a	n/a
3751600	RECOG_TARGET	n/a	LTP110	ltpFR	14	4	0	COBRA	336	5	1	n/a	n/a	n/a	n/a	n/a
3752067	RECOG_RESP	n/a	LTP110	ltpFR	14	4	0	COBRA	336	n/a	1	n/a	n/a	n/a	n/a	n/a
3752536	RECOG_CONF	n/a	LTP110	ltpFR	14	4	0	COBRA	336	5	1	n/a	n/a	n/a	n/a	n/a
3753924	RECOG_LURE	n/a	LTP110	ltpFR	14	4	n/a	VISITOR	1573	4	n/a	n/a	n/a	n/a	n/a	n/a
3754601	RECOG_RESP	n/a	LTP110	ltpFR	14	4	n/a	VISITOR	1573	n/a	n/a	n/a	n/a	n/a	n/a	n/a
3755120	RECOG_CONF	n/a	LTP110	ltpFR	14	4	n/a	VISITOR	1573	4	n/a	n/a	n/a	n/a	n/a	n/a
3756515	RECOG_TARGET	n/a	LTP110	ltpFR	14	4	-1	CLASS	318	5	-1	n/a	n/a	n/a	n/a	n/a
3757130	RECOG_RESP	n/a	LTP110	ltpFR	14	4	-1	CLASS	318	n/a	-1	n/a	n/a	n/a	n/a	n/a
3757604	RECOG_CONF	n/a	LTP110	ltpFR	14	4	-1	CLASS	318	5	-1	n/a	n/a	n/a	n/a	n/a
3758972	RECOG_TARGET	n/a	LTP110	ltpFR	14	4	1	RESTAURANT	1187	4	0	n/a	n/a	n/a	n/a	n/a
3759774	RECOG_RESP	n/a	LTP110	ltpFR	14	4	1	RESTAURANT	1187	n/a	0	n/a	n/a	n/a	n/a	n/a
3760310	RECOG_CONF	n/a	LTP110	ltpFR	14	4	1	RESTAURANT	1187	4	0	n/a	n/a	n/a	n/a	n/a
3761662	RECOG_TARGET	n/a	LTP110	ltpFR	14	4	-1	BINDER	127	5	-1	n/a	n/a	n/a	n/a	n/a
3762523	RECOG_RESP	n/a	LTP110	ltpFR	14	4	-1	BINDER	127	n/a	-1	n/a	n/a	n/a	n/a	n/a
3763072	RECOG_CONF	n/a	LTP110	ltpFR	14	4	-1	BINDER	127	5	-1	n/a	n/a	n/a	n/a	n/a
3764412	RECOG_TARGET	n/a	LTP110	ltpFR	14	4	1	TOY	1492	5	0	n/a	n/a	n/a	n/a	n/a
3764873	RECOG_RESP	n/a	LTP110	ltpFR	14	4	1	TOY	1492	n/a	0	n/a	n/a	n/a	n/a	n/a
3765317	RECOG_CONF	n/a	LTP110	ltpFR	14	4	1	TOY	1492	5	0	n/a	n/a	n/a	n/a	n/a
3766586	RECOG_TARGET	n/a	LTP110	ltpFR	14	4	0	STEW	1380	5	1	n/a	n/a	n/a	n/a	n/a
3767063	RECOG_RESP	n/a	LTP110	ltpFR	14	4	0	STEW	1380	n/a	1	n/a	n/a	n/a	n/a	n/a
3767481	RECOG_CONF	n/a	LTP110	ltpFR	14	4	0	STEW	1380	5	1	n/a	n/a	n/a	n/a	n/a
3768801	RECOG_LURE	n/a	LTP110	ltpFR	14	4	n/a	TAG	1429	4	n/a	n/a	n/a	n/a	n/a	n/a
3769238	RECOG_RESP_VV	n/a	LTP110	ltpFR	14	4	n/a	TAG	1429	n/a	n/a	n/a	n/a	n/a	n/a	n/a
3771872	RECOG_RESP	n/a	LTP110	ltpFR	14	4	n/a	TAG	1429	n/a	n/a	n/a	n/a	n/a	n/a	n/a
3772780	RECOG_CONF	n/a	LTP110	ltpFR	14	4	n/a	TAG	1429	4	n/a	n/a	n/a	n/a	n/a	n/a
3774284	RECOG_LURE	n/a	LTP110	ltpFR	14	4	n/a	STOCKING	1383	5	n/a	n/a	n/a	n/a	n/a	n/a
3775054	RECOG_RESP	n/a	LTP110	ltpFR	14	4	n/a	STOCKING	1383	n/a	n/a	n/a	n/a	n/a	n/a	n/a
3775502	RECOG_CONF	n/a	LTP110	ltpFR	14	4	n/a	STOCKING	1383	5	n/a	n/a	n/a	n/a	n/a	n/a
3776916	RECOG_TARGET	n/a	LTP110	ltpFR	14	4	0	VILLAGE	1566	5	1	n/a	n/a	n/a	n/a	n/a
3777649	RECOG_RESP	n/a	LTP110	ltpFR	14	4	0	VILLAGE	1566	n/a	1	n/a	n/a	n/a	n/a	n/a
3778098	RECOG_CONF	n/a	LTP110	ltpFR	14	4	0	VILLAGE	1566	5	1	n/a	n/a	n/a	n/a	n/a
3781301	REC_START	n/a	LTP110	ltpFR	14	5	n/a	n/a	n/a	n/a	n/a	n/a	n/a	n/a	n/a	n/a
3781340	RECOG_TARGET	n/a	LTP110	ltpFR	14	5	0	POSSUM	1112	5	1	n/a	n/a	n/a	n/a	n/a
3781875	RECOG_RESP	n/a	LTP110	ltpFR	14	5	0	POSSUM	1112	n/a	1	n/a	n/a	n/a	n/a	n/a
3782323	RECOG_CONF	n/a	LTP110	ltpFR	14	5	0	POSSUM	1112	5	1	n/a	n/a	n/a	n/a	n/a
3783796	RECOG_LURE	n/a	LTP110	ltpFR	14	5	n/a	GRAPE	654	4	n/a	n/a	n/a	n/a	n/a	n/a
3784479	RECOG_RESP	n/a	LTP110	ltpFR	14	5	n/a	GRAPE	654	n/a	n/a	n/a	n/a	n/a	n/a	n/a
3785207	RECOG_CONF	n/a	LTP110	ltpFR	14	5	n/a	GRAPE	654	4	n/a	n/a	n/a	n/a	n/a	n/a
3786529	RECOG_LURE	n/a	LTP110	ltpFR	14	5	n/a	GLOVE	642	4	n/a	n/a	n/a	n/a	n/a	n/a
3787133	RECOG_RESP	n/a	LTP110	ltpFR	14	5	n/a	GLOVE	642	n/a	n/a	n/a	n/a	n/a	n/a	n/a
3787881	RECOG_CONF	n/a	LTP110	ltpFR	14	5	n/a	GLOVE	642	4	n/a	n/a	n/a	n/a	n/a	n/a
3789228	RECOG_TARGET	n/a	LTP110	ltpFR	14	5	-1	QUILT	1151	5	-1	n/a	n/a	n/a	n/a	n/a
3789806	RECOG_RESP	n/a	LTP110	ltpFR	14	5	-1	QUILT	1151	n/a	-1	n/a	n/a	n/a	n/a	n/a
3790275	RECOG_CONF	n/a	LTP110	ltpFR	14	5	-1	QUILT	1151	5	-1	n/a	n/a	n/a	n/a	n/a
3791603	RECOG_TARGET	n/a	LTP110	ltpFR	14	5	1	ROBE	1198	5	0	n/a	n/a	n/a	n/a	n/a
3792006	RECOG_RESP	n/a	LTP110	ltpFR	14	5	1	ROBE	1198	n/a	0	n/a	n/a	n/a	n/a	n/a
3792421	RECOG_CONF	n/a	LTP110	ltpFR	14	5	1	ROBE	1198	5	0	n/a	n/a	n/a	n/a	n/a
3794143	RECOG_TARGET	n/a	LTP110	ltpFR	14	5	0	PAPER	1011	5	0	n/a	n/a	n/a	n/a	n/a
3794626	RECOG_RESP	n/a	LTP110	ltpFR	14	5	0	PAPER	1011	n/a	0	n/a	n/a	n/a	n/a	n/a
3795084	RECOG_CONF	n/a	LTP110	ltpFR	14	5	0	PAPER	1011	5	0	n/a	n/a	n/a	n/a	n/a
3796384	RECOG_TARGET	n/a	LTP110	ltpFR	14	5	0	STAFF	1365	4	1	n/a	n/a	n/a	n/a	n/a
3796945	RECOG_RESP	n/a	LTP110	ltpFR	14	5	0	STAFF	1365	n/a	1	n/a	n/a	n/a	n/a	n/a
3797918	RECOG_CONF	n/a	LTP110	ltpFR	14	5	0	STAFF	1365	4	1	n/a	n/a	n/a	n/a	n/a
3799300	RECOG_LURE	n/a	LTP110	ltpFR	14	5	n/a	PELICAN	1039	2	n/a	n/a	n/a	n/a	n/a	n/a
3802982	RECOG_RESP	n/a	LTP110	ltpFR	14	5	n/a	PELICAN	1039	n/a	n/a	n/a	n/a	n/a	n/a	n/a
3803805	RECOG_CONF	n/a	LTP110	ltpFR	14	5	n/a	PELICAN	1039	2	n/a	n/a	n/a	n/a	n/a	n/a
3805314	RECOG_TARGET	n/a	LTP110	ltpFR	14	5	0	BULLY	196	5	1	n/a	n/a	n/a	n/a	n/a
3805945	RECOG_RESP	n/a	LTP110	ltpFR	14	5	0	BULLY	196	n/a	1	n/a	n/a	n/a	n/a	n/a
3806419	RECOG_CONF	n/a	LTP110	ltpFR	14	5	0	BULLY	196	5	1	n/a	n/a	n/a	n/a	n/a
3807738	RECOG_TARGET	n/a	LTP110	ltpFR	14	5	-1	MARINE	869	5	-1	n/a	n/a	n/a	n/a	n/a
