onset	duration	trial_type	sample	stim_file	subject	experiment	session	trial	task	item_name	item_num	recog_conf	resp	answer	test_x	test_y	test_z	color_b	color_g	color_r	case	font
242.414	n/a	SESS_START	121207	n/a	LTP069	ltpFR	10	n/a	n/a	n/a	n/a	n/a	n/a	n/a	0	0	0	n/a	n/a	n/a	n/a	n/a
264.892	n/a	START	132446	n/a	LTP069	ltpFR	10	n/a	n/a	n/a	n/a	n/a	n/a	n/a	n/a	n/a	n/a	n/a	n/a	n/a	n/a	n/a
264.916	n/a	PROB	132458	n/a	LTP069	ltpFR	10	n/a	n/a	n/a	n/a	n/a	n/a	17	8	3	6	n/a	n/a	n/a	n/a	n/a
267.298	n/a	PROB	133649	n/a	LTP069	ltpFR	10	n/a	n/a	n/a	n/a	n/a	n/a	14	6	6	2	n/a	n/a	n/a	n/a	n/a
268.824	n/a	PROB	134412	n/a	LTP069	ltpFR	10	n/a	n/a	n/a	n/a	n/a	n/a	14	5	5	4	n/a	n/a	n/a	n/a	n/a
270.082	n/a	PROB	135041	n/a	LTP069	ltpFR	10	n/a	n/a	n/a	n/a	n/a	n/a	13	4	1	8	n/a	n/a	n/a	n/a	n/a
271.774	n/a	PROB	135887	n/a	LTP069	ltpFR	10	n/a	n/a	n/a	n/a	n/a	n/a	15	7	4	4	n/a	n/a	n/a	n/a	n/a
274.098	n/a	PROB	137049	n/a	LTP069	ltpFR	10	n/a	n/a	n/a	n/a	n/a	n/a	8	1	3	4	n/a	n/a	n/a	n/a	n/a
275.448	n/a	PROB	137724	n/a	LTP069	ltpFR	10	n/a	n/a	n/a	n/a	n/a	n/a	11	6	3	4	n/a	n/a	n/a	n/a	n/a
277.506	n/a	PROB	138753	n/a	LTP069	ltpFR	10	n/a	n/a	n/a	n/a	n/a	n/a	11	2	8	1	n/a	n/a	n/a	n/a	n/a
279.014	n/a	PROB	139507	n/a	LTP069	ltpFR	10	n/a	n/a	n/a	n/a	n/a	n/a	13	3	3	4	n/a	n/a	n/a	n/a	n/a
284.892	n/a	STOP	142446	n/a	LTP069	ltpFR	10	n/a	n/a	n/a	n/a	n/a	n/a	n/a	n/a	n/a	n/a	n/a	n/a	n/a	n/a	n/a
313.256	n/a	WORD	156628	wordpools/wasnorm_wordpool.txt	LTP069	ltpFR	10	1	1	TEACHER	1440	n/a	1	n/a	0	0	0	0	0.5869140625	0.422607421875	upper	../fonts/amplitud.ttf
317.456	n/a	WORD	158728	wordpools/wasnorm_wordpool.txt	LTP069	ltpFR	10	1	1	CONSOLE	364	n/a	1	n/a	0	0	0	0	0.5869140625	0.422607421875	upper	../fonts/amplitud.ttf
321.38	n/a	WORD	160690	wordpools/wasnorm_wordpool.txt	LTP069	ltpFR	10	1	1	FOLLOWER	589	n/a	1	n/a	0	0	0	0	0.5869140625	0.422607421875	upper	../fonts/amplitud.ttf
325.422	n/a	WORD	162711	wordpools/wasnorm_wordpool.txt	LTP069	ltpFR	10	1	1	WORKER	1621	n/a	1	n/a	0	0	0	0	0.5869140625	0.422607421875	upper	../fonts/amplitud.ttf
329.548	n/a	WORD	164774	wordpools/wasnorm_wordpool.txt	LTP069	ltpFR	10	1	1	STEW	1380	n/a	0	n/a	0	0	0	0	0.5869140625	0.422607421875	upper	../fonts/amplitud.ttf
333.53	n/a	WORD	166765	wordpools/wasnorm_wordpool.txt	LTP069	ltpFR	10	1	1	BUTCHER	203	n/a	1	n/a	0	0	0	0	0.5869140625	0.422607421875	upper	../fonts/amplitud.ttf
337.346	n/a	WORD	168673	wordpools/wasnorm_wordpool.txt	LTP069	ltpFR	10	1	1	KEEPER	769	n/a	1	n/a	0	0	0	0	0.5869140625	0.422607421875	upper	../fonts/amplitud.ttf
341.188	n/a	WORD	170594	wordpools/wasnorm_wordpool.txt	LTP069	ltpFR	10	1	1	COACH	331	n/a	1	n/a	0	0	0	0	0.5869140625	0.422607421875	upper	../fonts/amplitud.ttf
345.038	n/a	WORD	172519	wordpools/wasnorm_wordpool.txt	LTP069	ltpFR	10	1	1	SKETCH	1315	n/a	0	n/a	0	0	0	0	0.5869140625	0.422607421875	upper	../fonts/amplitud.ttf
348.98	n/a	WORD	174490	wordpools/wasnorm_wordpool.txt	LTP069	ltpFR	10	1	1	HOME	712	n/a	0	n/a	0	0	0	0	0.5869140625	0.422607421875	upper	../fonts/amplitud.ttf
352.872	n/a	WORD	176436	wordpools/wasnorm_wordpool.txt	LTP069	ltpFR	10	1	1	CELERY	266	n/a	0	n/a	0	0	0	0	0.5869140625	0.422607421875	upper	../fonts/amplitud.ttf
356.738	n/a	WORD	178369	wordpools/wasnorm_wordpool.txt	LTP069	ltpFR	10	1	1	CARROT	249	n/a	1	n/a	0	0	0	0	0.5869140625	0.422607421875	upper	../fonts/amplitud.ttf
360.896	n/a	WORD	180448	wordpools/wasnorm_wordpool.txt	LTP069	ltpFR	10	1	1	BREAST	171	n/a	1	n/a	0	0	0	0	0.5869140625	0.422607421875	upper	../fonts/amplitud.ttf
364.73	n/a	WORD	182365	wordpools/wasnorm_wordpool.txt	LTP069	ltpFR	10	1	1	DIAGRAM	456	n/a	0	n/a	0	0	0	0	0.5869140625	0.422607421875	upper	../fonts/amplitud.ttf
368.83	n/a	WORD	184415	wordpools/wasnorm_wordpool.txt	LTP069	ltpFR	10	1	1	VINE	1568	n/a	1	n/a	0	0	0	0	0.5869140625	0.422607421875	upper	../fonts/amplitud.ttf
372.93	n/a	WORD	186465	wordpools/wasnorm_wordpool.txt	LTP069	ltpFR	10	1	1	CHEDDAR	286	n/a	0	n/a	0	0	0	0	0.5869140625	0.422607421875	upper	../fonts/amplitud.ttf
375.938	n/a	START	187969	n/a	LTP069	ltpFR	10	n/a	n/a	n/a	n/a	n/a	n/a	n/a	n/a	n/a	n/a	n/a	n/a	n/a	n/a	n/a
376.83	n/a	PROB	188415	n/a	LTP069	ltpFR	10	n/a	n/a	n/a	n/a	n/a	n/a	20	4	7	9	n/a	n/a	n/a	n/a	n/a
378.97	n/a	PROB	189485	n/a	LTP069	ltpFR	10	n/a	n/a	n/a	n/a	n/a	n/a	8	3	2	3	n/a	n/a	n/a	n/a	n/a
380.688	n/a	PROB	190344	n/a	LTP069	ltpFR	10	n/a	n/a	n/a	n/a	n/a	n/a	7	3	3	1	n/a	n/a	n/a	n/a	n/a
381.962	n/a	PROB	190981	n/a	LTP069	ltpFR	10	n/a	n/a	n/a	n/a	n/a	n/a	14	4	9	1	n/a	n/a	n/a	n/a	n/a
383.616	n/a	STOP	191808	n/a	LTP069	ltpFR	10	n/a	n/a	n/a	n/a	n/a	n/a	n/a	n/a	n/a	n/a	n/a	n/a	n/a	n/a	n/a
385.68	n/a	REC_START	192840	n/a	LTP069	ltpFR	10	1	n/a	n/a	n/a	n/a	n/a	n/a	0	0	0	n/a	n/a	n/a	n/a	n/a
386.272	n/a	REC_WORD	193136	wordpools/wasnorm_wordpool.txt	LTP069	ltpFR	10	1	1	CONSOLE	364	n/a	1	n/a	0	0	0	n/a	n/a	n/a	n/a	n/a
387.13	n/a	REC_WORD	193565	wordpools/wasnorm_wordpool.txt	LTP069	ltpFR	10	1	1	FOLLOWER	589	n/a	1	n/a	0	0	0	n/a	n/a	n/a	n/a	n/a
388.102	n/a	REC_WORD	194051	wordpools/wasnorm_wordpool.txt	LTP069	ltpFR	10	1	1	WORKER	1621	n/a	1	n/a	0	0	0	n/a	n/a	n/a	n/a	n/a
388.866	n/a	REC_WORD	194433	wordpools/wasnorm_wordpool.txt	LTP069	ltpFR	10	1	1	KEEPER	769	n/a	1	n/a	0	0	0	n/a	n/a	n/a	n/a	n/a
390.166	n/a	REC_WORD	195083	wordpools/wasnorm_wordpool.txt	LTP069	ltpFR	10	1	1	TEACHER	1440	n/a	1	n/a	0	0	0	n/a	n/a	n/a	n/a	n/a
391.602	n/a	REC_WORD	195801	wordpools/wasnorm_wordpool.txt	LTP069	ltpFR	10	1	1	STEW	1380	n/a	0	n/a	0	0	0	n/a	n/a	n/a	n/a	n/a
392.654	n/a	REC_WORD	196327	wordpools/wasnorm_wordpool.txt	LTP069	ltpFR	10	1	1	SKETCH	1315	n/a	0	n/a	0	0	0	n/a	n/a	n/a	n/a	n/a
395.88	n/a	REC_WORD	197940	wordpools/wasnorm_wordpool.txt	LTP069	ltpFR	10	1	1	DIAGRAM	456	n/a	0	n/a	0	0	0	n/a	n/a	n/a	n/a	n/a
397.274	n/a	REC_WORD	198637	wordpools/wasnorm_wordpool.txt	LTP069	ltpFR	10	1	1	BREAST	171	n/a	1	n/a	0	0	0	n/a	n/a	n/a	n/a	n/a
398.312	n/a	REC_WORD	199156	wordpools/wasnorm_wordpool.txt	LTP069	ltpFR	10	1	1	VINE	1568	n/a	1	n/a	0	0	0	n/a	n/a	n/a	n/a	n/a
399.248	n/a	REC_WORD	199624	wordpools/wasnorm_wordpool.txt	LTP069	ltpFR	10	1	1	CARROT	249	n/a	1	n/a	0	0	0	n/a	n/a	n/a	n/a	n/a
399.974	n/a	REC_WORD	199987	wordpools/wasnorm_wordpool.txt	LTP069	ltpFR	10	1	1	CELERY	266	n/a	0	n/a	0	0	0	n/a	n/a	n/a	n/a	n/a
408.314	n/a	REC_WORD	204157	wordpools/wasnorm_wordpool.txt	LTP069	ltpFR	10	1	1	HOME	712	n/a	0	n/a	0	0	0	n/a	n/a	n/a	n/a	n/a
415.804	n/a	REC_WORD	207902	wordpools/wasnorm_wordpool.txt	LTP069	ltpFR	10	1	1	BUTCHER	203	n/a	1	n/a	0	0	0	n/a	n/a	n/a	n/a	n/a
462.01	n/a	START	231005	n/a	LTP069	ltpFR	10	n/a	n/a	n/a	n/a	n/a	n/a	n/a	n/a	n/a	n/a	n/a	n/a	n/a	n/a	n/a
463.518	n/a	PROB	231759	n/a	LTP069	ltpFR	10	n/a	n/a	n/a	n/a	n/a	n/a	1	8	3	2	n/a	n/a	n/a	n/a	n/a
465.2	n/a	PROB	232600	n/a	LTP069	ltpFR	10	n/a	n/a	n/a	n/a	n/a	n/a	13	6	2	5	n/a	n/a	n/a	n/a	n/a
468.494	n/a	PROB	234247	n/a	LTP069	ltpFR	10	n/a	n/a	n/a	n/a	n/a	n/a	12	9	2	1	n/a	n/a	n/a	n/a	n/a
469.956	n/a	STOP	234978	n/a	LTP069	ltpFR	10	n/a	n/a	n/a	n/a	n/a	n/a	n/a	n/a	n/a	n/a	n/a	n/a	n/a	n/a	n/a
471.094	n/a	WORD	235547	wordpools/wasnorm_wordpool.txt	LTP069	ltpFR	10	2	0	LIZARD	834	n/a	0	n/a	0	0	0	1	0.412841796875	0.57763671875	lower	../fonts/zerothre.ttf
474.102	n/a	START	237051	n/a	LTP069	ltpFR	10	n/a	n/a	n/a	n/a	n/a	n/a	n/a	n/a	n/a	n/a	n/a	n/a	n/a	n/a	n/a
475.128	n/a	PROB	237564	n/a	LTP069	ltpFR	10	n/a	n/a	n/a	n/a	n/a	n/a	15	4	4	7	n/a	n/a	n/a	n/a	n/a
477.168	n/a	PROB	238584	n/a	LTP069	ltpFR	10	n/a	n/a	n/a	n/a	n/a	n/a	12	2	7	3	n/a	n/a	n/a	n/a	n/a
479.21	n/a	PROB	239605	n/a	LTP069	ltpFR	10	n/a	n/a	n/a	n/a	n/a	n/a	13	7	4	2	n/a	n/a	n/a	n/a	n/a
480.988	n/a	STOP	240494	n/a	LTP069	ltpFR	10	n/a	n/a	n/a	n/a	n/a	n/a	n/a	n/a	n/a	n/a	n/a	n/a	n/a	n/a	n/a
482.926	n/a	WORD	241463	wordpools/wasnorm_wordpool.txt	LTP069	ltpFR	10	2	0	SCOTCH	1251	n/a	0	n/a	0	0	0	1	0.412841796875	0.57763671875	lower	../fonts/zerothre.ttf
485.934	n/a	START	242967	n/a	LTP069	ltpFR	10	n/a	n/a	n/a	n/a	n/a	n/a	n/a	n/a	n/a	n/a	n/a	n/a	n/a	n/a	n/a
486.96	n/a	PROB	243480	n/a	LTP069	ltpFR	10	n/a	n/a	n/a	n/a	n/a	n/a	10	1	2	7	n/a	n/a	n/a	n/a	n/a
489.06	n/a	PROB	244530	n/a	LTP069	ltpFR	10	n/a	n/a	n/a	n/a	n/a	n/a	12	7	4	1	n/a	n/a	n/a	n/a	n/a
490.676	n/a	PROB	245338	n/a	LTP069	ltpFR	10	n/a	n/a	n/a	n/a	n/a	n/a	12	3	6	3	n/a	n/a	n/a	n/a	n/a
492.604	n/a	STOP	246302	n/a	LTP069	ltpFR	10	n/a	n/a	n/a	n/a	n/a	n/a	n/a	n/a	n/a	n/a	n/a	n/a	n/a	n/a	n/a
495.068	n/a	WORD	247534	wordpools/wasnorm_wordpool.txt	LTP069	ltpFR	10	2	0	BOTTLE	153	n/a	0	n/a	0	0	0	1	0.412841796875	0.57763671875	lower	../fonts/zerothre.ttf
498.076	n/a	START	249038	n/a	LTP069	ltpFR	10	n/a	n/a	n/a	n/a	n/a	n/a	n/a	n/a	n/a	n/a	n/a	n/a	n/a	n/a	n/a
499.226	n/a	PROB	249613	n/a	LTP069	ltpFR	10	n/a	n/a	n/a	n/a	n/a	n/a	15	3	8	4	n/a	n/a	n/a	n/a	n/a
500.71	n/a	PROB	250355	n/a	LTP069	ltpFR	10	n/a	n/a	n/a	n/a	n/a	n/a	14	3	9	2	n/a	n/a	n/a	n/a	n/a
505.902	n/a	STOP	252951	n/a	LTP069	ltpFR	10	n/a	n/a	n/a	n/a	n/a	n/a	n/a	n/a	n/a	n/a	n/a	n/a	n/a	n/a	n/a
506.918	n/a	WORD	253459	wordpools/wasnorm_wordpool.txt	LTP069	ltpFR	10	2	0	MONGOOSE	909	n/a	1	n/a	0	0	0	1	0.412841796875	0.57763671875	lower	../fonts/zerothre.ttf
509.926	n/a	START	254963	n/a	LTP069	ltpFR	10	n/a	n/a	n/a	n/a	n/a	n/a	n/a	n/a	n/a	n/a	n/a	n/a	n/a	n/a	n/a
510.75	n/a	PROB	255375	n/a	LTP069	ltpFR	10	n/a	n/a	n/a	n/a	n/a	n/a	16	7	7	2	n/a	n/a	n/a	n/a	n/a
513.708	n/a	PROB	256854	n/a	LTP069	ltpFR	10	n/a	n/a	n/a	n/a	n/a	n/a	13	6	1	6	n/a	n/a	n/a	n/a	n/a
515.726	n/a	PROB	257863	n/a	LTP069	ltpFR	10	n/a	n/a	n/a	n/a	n/a	n/a	15	7	7	1	n/a	n/a	n/a	n/a	n/a
517.814	n/a	STOP	258907	n/a	LTP069	ltpFR	10	n/a	n/a	n/a	n/a	n/a	n/a	n/a	n/a	n/a	n/a	n/a	n/a	n/a	n/a	n/a
518.91	n/a	WORD	259455	wordpools/wasnorm_wordpool.txt	LTP069	ltpFR	10	2	1	SISTER	1312	n/a	1	n/a	0	0	0	0	0.5869140625	0.422607421875	upper	../fonts/amplitud.ttf
521.918	n/a	START	260959	n/a	LTP069	ltpFR	10	n/a	n/a	n/a	n/a	n/a	n/a	n/a	n/a	n/a	n/a	n/a	n/a	n/a	n/a	n/a
522.9	n/a	PROB	261450	n/a	LTP069	ltpFR	10	n/a	n/a	n/a	n/a	n/a	n/a	13	3	7	3	n/a	n/a	n/a	n/a	n/a
524.318	n/a	PROB	262159	n/a	LTP069	ltpFR	10	n/a	n/a	n/a	n/a	n/a	n/a	15	8	5	2	n/a	n/a	n/a	n/a	n/a
525.926	n/a	PROB	262963	n/a	LTP069	ltpFR	10	n/a	n/a	n/a	n/a	n/a	n/a	12	4	1	7	n/a	n/a	n/a	n/a	n/a
528.25	n/a	PROB	264125	n/a	LTP069	ltpFR	10	n/a	n/a	n/a	n/a	n/a	n/a	14	5	4	5	n/a	n/a	n/a	n/a	n/a
529.598	n/a	STOP	264799	n/a	LTP069	ltpFR	10	n/a	n/a	n/a	n/a	n/a	n/a	n/a	n/a	n/a	n/a	n/a	n/a	n/a	n/a	n/a
530.876	n/a	WORD	265438	wordpools/wasnorm_wordpool.txt	LTP069	ltpFR	10	2	1	BEAVER	109	n/a	1	n/a	0	0	0	0	0.5869140625	0.422607421875	upper	../fonts/amplitud.ttf
533.884	n/a	START	266942	n/a	LTP069	ltpFR	10	n/a	n/a	n/a	n/a	n/a	n/a	n/a	n/a	n/a	n/a	n/a	n/a	n/a	n/a	n/a
534.85	n/a	PROB	267425	n/a	LTP069	ltpFR	10	n/a	n/a	n/a	n/a	n/a	n/a	12	7	4	1	n/a	n/a	n/a	n/a	n/a
536.366	n/a	PROB	268183	n/a	LTP069	ltpFR	10	n/a	n/a	n/a	n/a	n/a	n/a	18	5	9	4	n/a	n/a	n/a	n/a	n/a
541.884	n/a	STOP	270942	n/a	LTP069	ltpFR	10	n/a	n/a	n/a	n/a	n/a	n/a	n/a	n/a	n/a	n/a	n/a	n/a	n/a	n/a	n/a
542.95	n/a	WORD	271475	wordpools/wasnorm_wordpool.txt	LTP069	ltpFR	10	2	1	LIST	830	n/a	0	n/a	0	0	0	0	0.5869140625	0.422607421875	upper	../fonts/amplitud.ttf
545.958	n/a	START	272979	n/a	LTP069	ltpFR	10	n/a	n/a	n/a	n/a	n/a	n/a	n/a	n/a	n/a	n/a	n/a	n/a	n/a	n/a	n/a
547.05	n/a	PROB	273525	n/a	LTP069	ltpFR	10	n/a	n/a	n/a	n/a	n/a	n/a	17	1	8	8	n/a	n/a	n/a	n/a	n/a
549.084	n/a	PROB	274542	n/a	LTP069	ltpFR	10	n/a	n/a	n/a	n/a	n/a	n/a	7	2	1	4	n/a	n/a	n/a	n/a	n/a
551.206	n/a	PROB	275603	n/a	LTP069	ltpFR	10	n/a	n/a	n/a	n/a	n/a	n/a	14	7	5	2	n/a	n/a	n/a	n/a	n/a
553.664	n/a	STOP	276832	n/a	LTP069	ltpFR	10	n/a	n/a	n/a	n/a	n/a	n/a	n/a	n/a	n/a	n/a	n/a	n/a	n/a	n/a	n/a
554.95	n/a	WORD	277475	wordpools/wasnorm_wordpool.txt	LTP069	ltpFR	10	2	1	VESSEL	1558	n/a	0	n/a	0	0	0	0	0.5869140625	0.422607421875	upper	../fonts/amplitud.ttf
557.958	n/a	START	278979	n/a	LTP069	ltpFR	10	n/a	n/a	n/a	n/a	n/a	n/a	n/a	n/a	n/a	n/a	n/a	n/a	n/a	n/a	n/a
559.108	n/a	PROB	279554	n/a	LTP069	ltpFR	10	n/a	n/a	n/a	n/a	n/a	n/a	9	2	3	4	n/a	n/a	n/a	n/a	n/a
560.75	n/a	PROB	280375	n/a	LTP069	ltpFR	10	n/a	n/a	n/a	n/a	n/a	n/a	10	5	4	1	n/a	n/a	n/a	n/a	n/a
563.1	n/a	PROB	281550	n/a	LTP069	ltpFR	10	n/a	n/a	n/a	n/a	n/a	n/a	18	8	5	6	n/a	n/a	n/a	n/a	n/a
565.536	n/a	STOP	282768	n/a	LTP069	ltpFR	10	n/a	n/a	n/a	n/a	n/a	n/a	n/a	n/a	n/a	n/a	n/a	n/a	n/a	n/a	n/a
567.124	n/a	WORD	283562	wordpools/wasnorm_wordpool.txt	LTP069	ltpFR	10	2	1	ATTIC	56	n/a	0	n/a	0	0	0	0	0.5869140625	0.422607421875	upper	../fonts/amplitud.ttf
570.132	n/a	START	285066	n/a	LTP069	ltpFR	10	n/a	n/a	n/a	n/a	n/a	n/a	n/a	n/a	n/a	n/a	n/a	n/a	n/a	n/a	n/a
571.058	n/a	PROB	285529	n/a	LTP069	ltpFR	10	n/a	n/a	n/a	n/a	n/a	n/a	14	7	1	6	n/a	n/a	n/a	n/a	n/a
574.29	n/a	PROB	287145	n/a	LTP069	ltpFR	10	n/a	n/a	n/a	n/a	n/a	n/a	12	2	6	4	n/a	n/a	n/a	n/a	n/a
577.944	n/a	STOP	288972	n/a	LTP069	ltpFR	10	n/a	n/a	n/a	n/a	n/a	n/a	n/a	n/a	n/a	n/a	n/a	n/a	n/a	n/a	n/a
579.332	n/a	WORD	289666	wordpools/wasnorm_wordpool.txt	LTP069	ltpFR	10	2	0	SAGE	1222	n/a	0	n/a	0	0	0	1	0.412841796875	0.57763671875	lower	../fonts/zerothre.ttf
582.334	n/a	START	291167	n/a	LTP069	ltpFR	10	n/a	n/a	n/a	n/a	n/a	n/a	n/a	n/a	n/a	n/a	n/a	n/a	n/a	n/a	n/a
583.15	n/a	PROB	291575	n/a	LTP069	ltpFR	10	n/a	n/a	n/a	n/a	n/a	n/a	15	4	3	8	n/a	n/a	n/a	n/a	n/a
584.79	n/a	PROB	292395	n/a	LTP069	ltpFR	10	n/a	n/a	n/a	n/a	n/a	n/a	19	5	8	6	n/a	n/a	n/a	n/a	n/a
589.73	n/a	STOP	294865	n/a	LTP069	ltpFR	10	n/a	n/a	n/a	n/a	n/a	n/a	n/a	n/a	n/a	n/a	n/a	n/a	n/a	n/a	n/a
591.306	n/a	WORD	295653	wordpools/wasnorm_wordpool.txt	LTP069	ltpFR	10	2	0	GIRAFFE	636	n/a	1	n/a	0	0	0	1	0.412841796875	0.57763671875	lower	../fonts/zerothre.ttf
594.308	n/a	START	297154	n/a	LTP069	ltpFR	10	n/a	n/a	n/a	n/a	n/a	n/a	n/a	n/a	n/a	n/a	n/a	n/a	n/a	n/a	n/a
595.448	n/a	PROB	297724	n/a	LTP069	ltpFR	10	n/a	n/a	n/a	n/a	n/a	n/a	15	2	7	6	n/a	n/a	n/a	n/a	n/a
597.114	n/a	PROB	298557	n/a	LTP069	ltpFR	10	n/a	n/a	n/a	n/a	n/a	n/a	17	4	4	9	n/a	n/a	n/a	n/a	n/a
602.308	n/a	STOP	301154	n/a	LTP069	ltpFR	10	n/a	n/a	n/a	n/a	n/a	n/a	n/a	n/a	n/a	n/a	n/a	n/a	n/a	n/a	n/a
603.122	n/a	WORD	301561	wordpools/wasnorm_wordpool.txt	LTP069	ltpFR	10	2	0	CEILING	265	n/a	1	n/a	0	0	0	1	0.412841796875	0.57763671875	lower	../fonts/zerothre.ttf
606.132	n/a	START	303066	n/a	LTP069	ltpFR	10	n/a	n/a	n/a	n/a	n/a	n/a	n/a	n/a	n/a	n/a	n/a	n/a	n/a	n/a	n/a
607.23	n/a	PROB	303615	n/a	LTP069	ltpFR	10	n/a	n/a	n/a	n/a	n/a	n/a	14	3	3	8	n/a	n/a	n/a	n/a	n/a
609.174	n/a	PROB	304587	n/a	LTP069	ltpFR	10	n/a	n/a	n/a	n/a	n/a	n/a	12	7	1	4	n/a	n/a	n/a	n/a	n/a
611.29	n/a	PROB	305645	n/a	LTP069	ltpFR	10	n/a	n/a	n/a	n/a	n/a	n/a	16	4	5	7	n/a	n/a	n/a	n/a	n/a
613.114	n/a	STOP	306557	n/a	LTP069	ltpFR	10	n/a	n/a	n/a	n/a	n/a	n/a	n/a	n/a	n/a	n/a	n/a	n/a	n/a	n/a	n/a
614.972	n/a	WORD	307486	wordpools/wasnorm_wordpool.txt	LTP069	ltpFR	10	2	0	LOUNGE	845	n/a	1	n/a	0	0	0	1	0.412841796875	0.57763671875	lower	../fonts/zerothre.ttf
617.982	n/a	START	308991	n/a	LTP069	ltpFR	10	n/a	n/a	n/a	n/a	n/a	n/a	n/a	n/a	n/a	n/a	n/a	n/a	n/a	n/a	n/a
619.156	n/a	PROB	309578	n/a	LTP069	ltpFR	10	n/a	n/a	n/a	n/a	n/a	n/a	11	3	3	5	n/a	n/a	n/a	n/a	n/a
621.556	n/a	PROB	310778	n/a	LTP069	ltpFR	10	n/a	n/a	n/a	n/a	n/a	n/a	17	6	6	5	n/a	n/a	n/a	n/a	n/a
625.982	n/a	STOP	312991	n/a	LTP069	ltpFR	10	n/a	n/a	n/a	n/a	n/a	n/a	n/a	n/a	n/a	n/a	n/a	n/a	n/a	n/a	n/a
626.898	n/a	WORD	313449	wordpools/wasnorm_wordpool.txt	LTP069	ltpFR	10	2	1	MOTEL	919	n/a	0	n/a	0	0	0	0	0.5869140625	0.422607421875	upper	../fonts/amplitud.ttf
629.906	n/a	START	314953	n/a	LTP069	ltpFR	10	n/a	n/a	n/a	n/a	n/a	n/a	n/a	n/a	n/a	n/a	n/a	n/a	n/a	n/a	n/a
631.106	n/a	PROB	315553	n/a	LTP069	ltpFR	10	n/a	n/a	n/a	n/a	n/a	n/a	17	6	5	6	n/a	n/a	n/a	n/a	n/a
632.664	n/a	PROB	316332	n/a	LTP069	ltpFR	10	n/a	n/a	n/a	n/a	n/a	n/a	15	7	7	1	n/a	n/a	n/a	n/a	n/a
634.49	n/a	PROB	317245	n/a	LTP069	ltpFR	10	n/a	n/a	n/a	n/a	n/a	n/a	15	9	5	1	n/a	n/a	n/a	n/a	n/a
636.82	n/a	STOP	318410	n/a	LTP069	ltpFR	10	n/a	n/a	n/a	n/a	n/a	n/a	n/a	n/a	n/a	n/a	n/a	n/a	n/a	n/a	n/a
638.838	n/a	WORD	319419	wordpools/wasnorm_wordpool.txt	LTP069	ltpFR	10	2	1	HAT	690	n/a	0	n/a	0	0	0	0	0.5869140625	0.422607421875	upper	../fonts/amplitud.ttf
641.848	n/a	START	320924	n/a	LTP069	ltpFR	10	n/a	n/a	n/a	n/a	n/a	n/a	n/a	n/a	n/a	n/a	n/a	n/a	n/a	n/a	n/a
642.806	n/a	PROB	321403	n/a	LTP069	ltpFR	10	n/a	n/a	n/a	n/a	n/a	n/a	11	3	2	6	n/a	n/a	n/a	n/a	n/a
644.438	n/a	PROB	322219	n/a	LTP069	ltpFR	10	n/a	n/a	n/a	n/a	n/a	n/a	14	5	1	8	n/a	n/a	n/a	n/a	n/a
645.972	n/a	PROB	322986	n/a	LTP069	ltpFR	10	n/a	n/a	n/a	n/a	n/a	n/a	7	1	2	4	n/a	n/a	n/a	n/a	n/a
647.44	n/a	PROB	323720	n/a	LTP069	ltpFR	10	n/a	n/a	n/a	n/a	n/a	n/a	9	3	1	5	n/a	n/a	n/a	n/a	n/a
649.18	n/a	STOP	324590	n/a	LTP069	ltpFR	10	n/a	n/a	n/a	n/a	n/a	n/a	n/a	n/a	n/a	n/a	n/a	n/a	n/a	n/a	n/a
650.764	n/a	WORD	325382	wordpools/wasnorm_wordpool.txt	LTP069	ltpFR	10	2	1	CAP	236	n/a	0	n/a	0	0	0	0	0.5869140625	0.422607421875	upper	../fonts/amplitud.ttf
653.772	n/a	START	326886	n/a	LTP069	ltpFR	10	n/a	n/a	n/a	n/a	n/a	n/a	n/a	n/a	n/a	n/a	n/a	n/a	n/a	n/a	n/a
654.73	n/a	PROB	327365	n/a	LTP069	ltpFR	10	n/a	n/a	n/a	n/a	n/a	n/a	21	8	4	9	n/a	n/a	n/a	n/a	n/a
657.43	n/a	PROB	328715	n/a	LTP069	ltpFR	10	n/a	n/a	n/a	n/a	n/a	n/a	17	7	8	2	n/a	n/a	n/a	n/a	n/a
659.288	n/a	PROB	329644	n/a	LTP069	ltpFR	10	n/a	n/a	n/a	n/a	n/a	n/a	9	1	2	6	n/a	n/a	n/a	n/a	n/a
660.628	n/a	STOP	330314	n/a	LTP069	ltpFR	10	n/a	n/a	n/a	n/a	n/a	n/a	n/a	n/a	n/a	n/a	n/a	n/a	n/a	n/a	n/a
663.556	n/a	REC_START	331778	n/a	LTP069	ltpFR	10	2	n/a	n/a	n/a	n/a	n/a	n/a	0	0	0	n/a	n/a	n/a	n/a	n/a
664.708	n/a	REC_WORD	332354	wordpools/wasnorm_wordpool.txt	LTP069	ltpFR	10	2	0	CEILING	265	n/a	1	n/a	0	0	0	n/a	n/a	n/a	n/a	n/a
665.63	n/a	REC_WORD	332815	wordpools/wasnorm_wordpool.txt	LTP069	ltpFR	10	2	1	ATTIC	56	n/a	0	n/a	0	0	0	n/a	n/a	n/a	n/a	n/a
666.264	n/a	REC_WORD	333132	wordpools/wasnorm_wordpool.txt	LTP069	ltpFR	10	2	0	LOUNGE	845	n/a	1	n/a	0	0	0	n/a	n/a	n/a	n/a	n/a
668.432	n/a	REC_WORD	334216	wordpools/wasnorm_wordpool.txt	LTP069	ltpFR	10	2	0	GIRAFFE	636	n/a	1	n/a	0	0	0	n/a	n/a	n/a	n/a	n/a
678.428	n/a	REC_WORD	339214	wordpools/wasnorm_wordpool.txt	LTP069	ltpFR	10	2	1	VESSEL	1558	n/a	0	n/a	0	0	0	n/a	n/a	n/a	n/a	n/a
713.494	n/a	REC_WORD	356747	wordpools/wasnorm_wordpool.txt	LTP069	ltpFR	10	2	0	BOTTLE	153	n/a	0	n/a	0	0	0	n/a	n/a	n/a	n/a	n/a
715.458	n/a	REC_WORD	357729	wordpools/wasnorm_wordpool.txt	LTP069	ltpFR	10	2	0	SCOTCH	1251	n/a	0	n/a	0	0	0	n/a	n/a	n/a	n/a	n/a
717.372	n/a	REC_WORD	358686	wordpools/wasnorm_wordpool.txt	LTP069	ltpFR	10	2	0	MONGOOSE	909	n/a	1	n/a	0	0	0	n/a	n/a	n/a	n/a	n/a
728.236	n/a	REC_WORD	364118	wordpools/wasnorm_wordpool.txt	LTP069	ltpFR	10	2	1	SISTER	1312	n/a	1	n/a	0	0	0	n/a	n/a	n/a	n/a	n/a
741.562	n/a	WORD	370781	wordpools/wasnorm_wordpool.txt	LTP069	ltpFR	10	3	1	PARROT	1015	n/a	1	n/a	0	0	0	0	0.5869140625	0.422607421875	upper	../fonts/amplitud.ttf
745.52	n/a	WORD	372760	wordpools/wasnorm_wordpool.txt	LTP069	ltpFR	10	3	1	SEAGULL	1261	n/a	1	n/a	0	0	0	0	0.5869140625	0.422607421875	upper	../fonts/amplitud.ttf
749.352	n/a	WORD	374676	wordpools/wasnorm_wordpool.txt	LTP069	ltpFR	10	3	1	EWE	542	n/a	1	n/a	0	0	0	0	0.5869140625	0.422607421875	upper	../fonts/amplitud.ttf
753.562	n/a	WORD	376781	wordpools/wasnorm_wordpool.txt	LTP069	ltpFR	10	3	1	PIER	1063	n/a	0	n/a	0	0	0	0	0.5869140625	0.422607421875	upper	../fonts/amplitud.ttf
757.57	n/a	WORD	378785	wordpools/wasnorm_wordpool.txt	LTP069	ltpFR	10	3	1	CUFF	423	n/a	0	n/a	0	0	0	0	0.5869140625	0.422607421875	upper	../fonts/amplitud.ttf
761.736	n/a	WORD	380868	wordpools/wasnorm_wordpool.txt	LTP069	ltpFR	10	3	1	LIMB	822	n/a	1	n/a	0	0	0	0	0.5869140625	0.422607421875	upper	../fonts/amplitud.ttf
765.81	n/a	WORD	382905	wordpools/wasnorm_wordpool.txt	LTP069	ltpFR	10	3	1	SKULL	1320	n/a	0	n/a	0	0	0	0	0.5869140625	0.422607421875	upper	../fonts/amplitud.ttf
769.886	n/a	WORD	384943	wordpools/wasnorm_wordpool.txt	LTP069	ltpFR	10	3	1	HAND	683	n/a	1	n/a	0	0	0	0	0.5869140625	0.422607421875	upper	../fonts/amplitud.ttf
774.044	n/a	WORD	387022	wordpools/wasnorm_wordpool.txt	LTP069	ltpFR	10	3	1	MANAGER	863	n/a	1	n/a	0	0	0	0	0.5869140625	0.422607421875	upper	../fonts/amplitud.ttf
778.01	n/a	WORD	389005	wordpools/wasnorm_wordpool.txt	LTP069	ltpFR	10	3	1	SOCIETY	1338	n/a	1	n/a	0	0	0	0	0.5869140625	0.422607421875	upper	../fonts/amplitud.ttf
781.836	n/a	WORD	390918	wordpools/wasnorm_wordpool.txt	LTP069	ltpFR	10	3	1	MOSS	918	n/a	1	n/a	0	0	0	0	0.5869140625	0.422607421875	upper	../fonts/amplitud.ttf
785.71	n/a	WORD	392855	wordpools/wasnorm_wordpool.txt	LTP069	ltpFR	10	3	1	BROOK	177	n/a	0	n/a	0	0	0	0	0.5869140625	0.422607421875	upper	../fonts/amplitud.ttf
789.544	n/a	WORD	394772	wordpools/wasnorm_wordpool.txt	LTP069	ltpFR	10	3	1	DISHWASHER	475	n/a	0	n/a	0	0	0	0	0.5869140625	0.422607421875	upper	../fonts/amplitud.ttf
793.61	n/a	WORD	396805	wordpools/wasnorm_wordpool.txt	LTP069	ltpFR	10	3	1	POSTAGE	1113	n/a	0	n/a	0	0	0	0	0.5869140625	0.422607421875	upper	../fonts/amplitud.ttf
797.668	n/a	WORD	398834	wordpools/wasnorm_wordpool.txt	LTP069	ltpFR	10	3	1	MESSAGE	888	n/a	0	n/a	0	0	0	0	0.5869140625	0.422607421875	upper	../fonts/amplitud.ttf
801.502	n/a	WORD	400751	wordpools/wasnorm_wordpool.txt	LTP069	ltpFR	10	3	1	SUBMARINE	1398	n/a	0	n/a	0	0	0	0	0.5869140625	0.422607421875	upper	../fonts/amplitud.ttf
804.502	n/a	START	402251	n/a	LTP069	ltpFR	10	n/a	n/a	n/a	n/a	n/a	n/a	n/a	n/a	n/a	n/a	n/a	n/a	n/a	n/a	n/a
805.318	n/a	PROB	402659	n/a	LTP069	ltpFR	10	n/a	n/a	n/a	n/a	n/a	n/a	12	3	8	1	n/a	n/a	n/a	n/a	n/a
808.852	n/a	PROB	404426	n/a	LTP069	ltpFR	10	n/a	n/a	n/a	n/a	n/a	n/a	16	2	5	9	n/a	n/a	n/a	n/a	n/a
810.526	n/a	PROB	405263	n/a	LTP069	ltpFR	10	n/a	n/a	n/a	n/a	n/a	n/a	19	9	4	6	n/a	n/a	n/a	n/a	n/a
813.1	n/a	PROB	406550	n/a	LTP069	ltpFR	10	n/a	n/a	n/a	n/a	n/a	n/a	13	3	9	1	n/a	n/a	n/a	n/a	n/a
814.5	n/a	PROB	407250	n/a	LTP069	ltpFR	10	n/a	n/a	n/a	n/a	n/a	n/a	17	1	8	8	n/a	n/a	n/a	n/a	n/a
816.376	n/a	PROB	408188	n/a	LTP069	ltpFR	10	n/a	n/a	n/a	n/a	n/a	n/a	16	6	2	8	n/a	n/a	n/a	n/a	n/a
818.234	n/a	PROB	409117	n/a	LTP069	ltpFR	10	n/a	n/a	n/a	n/a	n/a	n/a	12	1	7	5	n/a	n/a	n/a	n/a	n/a
820.052	n/a	STOP	410026	n/a	LTP069	ltpFR	10	n/a	n/a	n/a	n/a	n/a	n/a	n/a	n/a	n/a	n/a	n/a	n/a	n/a	n/a	n/a
822.336	n/a	REC_START	411168	n/a	LTP069	ltpFR	10	3	n/a	n/a	n/a	n/a	n/a	n/a	0	0	0	n/a	n/a	n/a	n/a	n/a
822.814	n/a	REC_WORD	411407	wordpools/wasnorm_wordpool.txt	LTP069	ltpFR	10	3	1	PIER	1063	n/a	0	n/a	0	0	0	n/a	n/a	n/a	n/a	n/a
823.564	n/a	REC_WORD	411782	wordpools/wasnorm_wordpool.txt	LTP069	ltpFR	10	3	1	EWE	542	n/a	1	n/a	0	0	0	n/a	n/a	n/a	n/a	n/a
827.63	n/a	REC_WORD	413815	wordpools/wasnorm_wordpool.txt	LTP069	ltpFR	10	3	1	PARROT	1015	n/a	1	n/a	0	0	0	n/a	n/a	n/a	n/a	n/a
828.346	n/a	REC_WORD	414173	wordpools/wasnorm_wordpool.txt	LTP069	ltpFR	10	3	1	SEAGULL	1261	n/a	1	n/a	0	0	0	n/a	n/a	n/a	n/a	n/a
832.37	n/a	REC_WORD	416185	wordpools/wasnorm_wordpool.txt	LTP069	ltpFR	10	3	1	DISHWASHER	475	n/a	0	n/a	0	0	0	n/a	n/a	n/a	n/a	n/a
833.502	n/a	REC_WORD	416751	wordpools/wasnorm_wordpool.txt	LTP069	ltpFR	10	3	1	POSTAGE	1113	n/a	0	n/a	0	0	0	n/a	n/a	n/a	n/a	n/a
835.408	n/a	REC_WORD	417704	wordpools/wasnorm_wordpool.txt	LTP069	ltpFR	10	3	1	MESSAGE	888	n/a	0	n/a	0	0	0	n/a	n/a	n/a	n/a	n/a
878.63	n/a	REC_WORD	439315	wordpools/wasnorm_wordpool.txt	LTP069	ltpFR	10	3	1	SUBMARINE	1398	n/a	0	n/a	0	0	0	n/a	n/a	n/a	n/a	n/a
898.374	n/a	START	449187	n/a	LTP069	ltpFR	10	n/a	n/a	n/a	n/a	n/a	n/a	n/a	n/a	n/a	n/a	n/a	n/a	n/a	n/a	n/a
899.882	n/a	PROB	449941	n/a	LTP069	ltpFR	10	n/a	n/a	n/a	n/a	n/a	n/a	12	2	8	2	n/a	n/a	n/a	n/a	n/a
901.44	n/a	PROB	450720	n/a	LTP069	ltpFR	10	n/a	n/a	n/a	n/a	n/a	n/a	7	4	2	1	n/a	n/a	n/a	n/a	n/a
904.85	n/a	PROB	452425	n/a	LTP069	ltpFR	10	n/a	n/a	n/a	n/a	n/a	n/a	14	3	6	5	n/a	n/a	n/a	n/a	n/a
906.866	n/a	PROB	453433	n/a	LTP069	ltpFR	10	n/a	n/a	n/a	n/a	n/a	n/a	15	7	2	6	n/a	n/a	n/a	n/a	n/a
908.5	n/a	PROB	454250	n/a	LTP069	ltpFR	10	n/a	n/a	n/a	n/a	n/a	n/a	17	4	9	4	n/a	n/a	n/a	n/a	n/a
910.732	n/a	PROB	455366	n/a	LTP069	ltpFR	10	n/a	n/a	n/a	n/a	n/a	n/a	16	5	4	7	n/a	n/a	n/a	n/a	n/a
914.376	n/a	STOP	457188	n/a	LTP069	ltpFR	10	n/a	n/a	n/a	n/a	n/a	n/a	n/a	n/a	n/a	n/a	n/a	n/a	n/a	n/a	n/a
915.424	n/a	WORD	457712	wordpools/wasnorm_wordpool.txt	LTP069	ltpFR	10	4	0	CANAL	226	n/a	1	n/a	0	0	0	1	0.412841796875	0.57763671875	lower	../fonts/zerothre.ttf
918.432	n/a	START	459216	n/a	LTP069	ltpFR	10	n/a	n/a	n/a	n/a	n/a	n/a	n/a	n/a	n/a	n/a	n/a	n/a	n/a	n/a	n/a
919.264	n/a	PROB	459632	n/a	LTP069	ltpFR	10	n/a	n/a	n/a	n/a	n/a	n/a	15	4	9	2	n/a	n/a	n/a	n/a	n/a
921.04	n/a	PROB	460520	n/a	LTP069	ltpFR	10	n/a	n/a	n/a	n/a	n/a	n/a	15	1	5	9	n/a	n/a	n/a	n/a	n/a
923.322	n/a	PROB	461661	n/a	LTP069	ltpFR	10	n/a	n/a	n/a	n/a	n/a	n/a	16	3	4	9	n/a	n/a	n/a	n/a	n/a
925.09	n/a	PROB	462545	n/a	LTP069	ltpFR	10	n/a	n/a	n/a	n/a	n/a	n/a	7	1	1	5	n/a	n/a	n/a	n/a	n/a
926.348	n/a	PROB	463174	n/a	LTP069	ltpFR	10	n/a	n/a	n/a	n/a	n/a	n/a	9	4	2	3	n/a	n/a	n/a	n/a	n/a
928.406	n/a	PROB	464203	n/a	LTP069	ltpFR	10	n/a	n/a	n/a	n/a	n/a	n/a	15	7	5	3	n/a	n/a	n/a	n/a	n/a
931.148	n/a	PROB	465574	n/a	LTP069	ltpFR	10	n/a	n/a	n/a	n/a	n/a	n/a	13	2	4	7	n/a	n/a	n/a	n/a	n/a
933.362	n/a	STOP	466681	n/a	LTP069	ltpFR	10	n/a	n/a	n/a	n/a	n/a	n/a	n/a	n/a	n/a	n/a	n/a	n/a	n/a	n/a	n/a
935.374	n/a	WORD	467687	wordpools/wasnorm_wordpool.txt	LTP069	ltpFR	10	4	0	DECK	443	n/a	1	n/a	0	0	0	1	0.412841796875	0.57763671875	lower	../fonts/zerothre.ttf
938.382	n/a	START	469191	n/a	LTP069	ltpFR	10	n/a	n/a	n/a	n/a	n/a	n/a	n/a	n/a	n/a	n/a	n/a	n/a	n/a	n/a	n/a
939.196	n/a	PROB	469598	n/a	LTP069	ltpFR	10	n/a	n/a	n/a	n/a	n/a	n/a	12	8	2	2	n/a	n/a	n/a	n/a	n/a
940.498	n/a	PROB	470249	n/a	LTP069	ltpFR	10	n/a	n/a	n/a	n/a	n/a	n/a	20	7	5	8	n/a	n/a	n/a	n/a	n/a
944.414	n/a	PROB	472207	n/a	LTP069	ltpFR	10	n/a	n/a	n/a	n/a	n/a	n/a	10	7	1	2	n/a	n/a	n/a	n/a	n/a
947.414	n/a	PROB	473707	n/a	LTP069	ltpFR	10	n/a	n/a	n/a	n/a	n/a	n/a	19	8	3	8	n/a	n/a	n/a	n/a	n/a
948.898	n/a	PROB	474449	n/a	LTP069	ltpFR	10	n/a	n/a	n/a	n/a	n/a	n/a	16	6	4	6	n/a	n/a	n/a	n/a	n/a
950.306	n/a	PROB	475153	n/a	LTP069	ltpFR	10	n/a	n/a	n/a	n/a	n/a	n/a	15	5	5	5	n/a	n/a	n/a	n/a	n/a
951.606	n/a	PROB	475803	n/a	LTP069	ltpFR	10	n/a	n/a	n/a	n/a	n/a	n/a	15	2	9	4	n/a	n/a	n/a	n/a	n/a
953.642	n/a	STOP	476821	n/a	LTP069	ltpFR	10	n/a	n/a	n/a	n/a	n/a	n/a	n/a	n/a	n/a	n/a	n/a	n/a	n/a	n/a	n/a
955.238	n/a	WORD	477619	wordpools/wasnorm_wordpool.txt	LTP069	ltpFR	10	4	1	NUN	962	n/a	1	n/a	0	0	0	0	0.5869140625	0.422607421875	upper	../fonts/amplitud.ttf
958.246	n/a	START	479123	n/a	LTP069	ltpFR	10	n/a	n/a	n/a	n/a	n/a	n/a	n/a	n/a	n/a	n/a	n/a	n/a	n/a	n/a	n/a
959.23	n/a	PROB	479615	n/a	LTP069	ltpFR	10	n/a	n/a	n/a	n/a	n/a	n/a	16	3	8	5	n/a	n/a	n/a	n/a	n/a
960.664	n/a	PROB	480332	n/a	LTP069	ltpFR	10	n/a	n/a	n/a	n/a	n/a	n/a	13	5	5	3	n/a	n/a	n/a	n/a	n/a
962.006	n/a	PROB	481003	n/a	LTP069	ltpFR	10	n/a	n/a	n/a	n/a	n/a	n/a	19	9	6	4	n/a	n/a	n/a	n/a	n/a
963.588	n/a	PROB	481794	n/a	LTP069	ltpFR	10	n/a	n/a	n/a	n/a	n/a	n/a	13	9	2	2	n/a	n/a	n/a	n/a	n/a
966.096	n/a	PROB	483048	n/a	LTP069	ltpFR	10	n/a	n/a	n/a	n/a	n/a	n/a	4	2	1	1	n/a	n/a	n/a	n/a	n/a
967.698	n/a	PROB	483849	n/a	LTP069	ltpFR	10	n/a	n/a	n/a	n/a	n/a	n/a	15	8	4	3	n/a	n/a	n/a	n/a	n/a
970.122	n/a	PROB	485061	n/a	LTP069	ltpFR	10	n/a	n/a	n/a	n/a	n/a	n/a	17	9	4	4	n/a	n/a	n/a	n/a	n/a
974.248	n/a	STOP	487124	n/a	LTP069	ltpFR	10	n/a	n/a	n/a	n/a	n/a	n/a	n/a	n/a	n/a	n/a	n/a	n/a	n/a	n/a	n/a
975.38	n/a	WORD	487690	wordpools/wasnorm_wordpool.txt	LTP069	ltpFR	10	4	1	PEAR	1033	n/a	1	n/a	0	0	0	0	0.5869140625	0.422607421875	upper	../fonts/amplitud.ttf
978.39	n/a	START	489195	n/a	LTP069	ltpFR	10	n/a	n/a	n/a	n/a	n/a	n/a	n/a	n/a	n/a	n/a	n/a	n/a	n/a	n/a	n/a
979.572	n/a	PROB	489786	n/a	LTP069	ltpFR	10	n/a	n/a	n/a	n/a	n/a	n/a	25	9	9	7	n/a	n/a	n/a	n/a	n/a
982.472	n/a	PROB	491236	n/a	LTP069	ltpFR	10	n/a	n/a	n/a	n/a	n/a	n/a	12	2	8	2	n/a	n/a	n/a	n/a	n/a
983.904	n/a	PROB	491952	n/a	LTP069	ltpFR	10	n/a	n/a	n/a	n/a	n/a	n/a	16	5	3	8	n/a	n/a	n/a	n/a	n/a
986.004	n/a	PROB	493002	n/a	LTP069	ltpFR	10	n/a	n/a	n/a	n/a	n/a	n/a	14	4	9	1	n/a	n/a	n/a	n/a	n/a
987.488	n/a	PROB	493744	n/a	LTP069	ltpFR	10	n/a	n/a	n/a	n/a	n/a	n/a	12	2	1	9	n/a	n/a	n/a	n/a	n/a
989.522	n/a	PROB	494761	n/a	LTP069	ltpFR	10	n/a	n/a	n/a	n/a	n/a	n/a	8	1	2	5	n/a	n/a	n/a	n/a	n/a
991.13	n/a	PROB	495565	n/a	LTP069	ltpFR	10	n/a	n/a	n/a	n/a	n/a	n/a	14	7	4	3	n/a	n/a	n/a	n/a	n/a
993.492	n/a	STOP	496746	n/a	LTP069	ltpFR	10	n/a	n/a	n/a	n/a	n/a	n/a	n/a	n/a	n/a	n/a	n/a	n/a	n/a	n/a	n/a
995.22	n/a	WORD	497610	wordpools/wasnorm_wordpool.txt	LTP069	ltpFR	10	4	1	BEAKER	104	n/a	0	n/a	0	0	0	0	0.5869140625	0.422607421875	upper	../fonts/amplitud.ttf
998.23	n/a	START	499115	n/a	LTP069	ltpFR	10	n/a	n/a	n/a	n/a	n/a	n/a	n/a	n/a	n/a	n/a	n/a	n/a	n/a	n/a	n/a
999.38	n/a	PROB	499690	n/a	LTP069	ltpFR	10	n/a	n/a	n/a	n/a	n/a	n/a	14	4	9	1	n/a	n/a	n/a	n/a	n/a
1000.788	n/a	PROB	500394	n/a	LTP069	ltpFR	10	n/a	n/a	n/a	n/a	n/a	n/a	11	1	2	8	n/a	n/a	n/a	n/a	n/a
1002.388	n/a	PROB	501194	n/a	LTP069	ltpFR	10	n/a	n/a	n/a	n/a	n/a	n/a	11	4	4	3	n/a	n/a	n/a	n/a	n/a
1004.762	n/a	PROB	502381	n/a	LTP069	ltpFR	10	n/a	n/a	n/a	n/a	n/a	n/a	10	4	3	3	n/a	n/a	n/a	n/a	n/a
1006.92	n/a	PROB	503460	n/a	LTP069	ltpFR	10	n/a	n/a	n/a	n/a	n/a	n/a	22	5	8	9	n/a	n/a	n/a	n/a	n/a
1009.896	n/a	PROB	504948	n/a	LTP069	ltpFR	10	n/a	n/a	n/a	n/a	n/a	n/a	10	6	3	1	n/a	n/a	n/a	n/a	n/a
1014.23	n/a	STOP	507115	n/a	LTP069	ltpFR	10	n/a	n/a	n/a	n/a	n/a	n/a	n/a	n/a	n/a	n/a	n/a	n/a	n/a	n/a	n/a
1015.372	n/a	WORD	507686	wordpools/wasnorm_wordpool.txt	LTP069	ltpFR	10	4	1	HELMET	702	n/a	0	n/a	0	0	0	0	0.5869140625	0.422607421875	upper	../fonts/amplitud.ttf
1018.38	n/a	START	509190	n/a	LTP069	ltpFR	10	n/a	n/a	n/a	n/a	n/a	n/a	n/a	n/a	n/a	n/a	n/a	n/a	n/a	n/a	n/a
1019.322	n/a	PROB	509661	n/a	LTP069	ltpFR	10	n/a	n/a	n/a	n/a	n/a	n/a	18	7	6	5	n/a	n/a	n/a	n/a	n/a
1021.63	n/a	PROB	510815	n/a	LTP069	ltpFR	10	n/a	n/a	n/a	n/a	n/a	n/a	12	3	1	8	n/a	n/a	n/a	n/a	n/a
1023.33	n/a	PROB	511665	n/a	LTP069	ltpFR	10	n/a	n/a	n/a	n/a	n/a	n/a	20	9	7	4	n/a	n/a	n/a	n/a	n/a
1025.496	n/a	PROB	512748	n/a	LTP069	ltpFR	10	n/a	n/a	n/a	n/a	n/a	n/a	16	4	6	6	n/a	n/a	n/a	n/a	n/a
1026.862	n/a	PROB	513431	n/a	LTP069	ltpFR	10	n/a	n/a	n/a	n/a	n/a	n/a	16	4	3	9	n/a	n/a	n/a	n/a	n/a
1028.628	n/a	PROB	514314	n/a	LTP069	ltpFR	10	n/a	n/a	n/a	n/a	n/a	n/a	17	5	7	5	n/a	n/a	n/a	n/a	n/a
1031.136	n/a	PROB	515568	n/a	LTP069	ltpFR	10	n/a	n/a	n/a	n/a	n/a	n/a	11	1	7	3	n/a	n/a	n/a	n/a	n/a
1034.382	n/a	STOP	517191	n/a	LTP069	ltpFR	10	n/a	n/a	n/a	n/a	n/a	n/a	n/a	n/a	n/a	n/a	n/a	n/a	n/a	n/a	n/a
1035.296	n/a	WORD	517648	wordpools/wasnorm_wordpool.txt	LTP069	ltpFR	10	4	1	CARDINAL	244	n/a	0	n/a	0	0	0	0	0.5869140625	0.422607421875	upper	../fonts/amplitud.ttf
1038.304	n/a	START	519152	n/a	LTP069	ltpFR	10	n/a	n/a	n/a	n/a	n/a	n/a	n/a	n/a	n/a	n/a	n/a	n/a	n/a	n/a	n/a
1039.188	n/a	PROB	519594	n/a	LTP069	ltpFR	10	n/a	n/a	n/a	n/a	n/a	n/a	14	7	4	3	n/a	n/a	n/a	n/a	n/a
1041.546	n/a	PROB	520773	n/a	LTP069	ltpFR	10	n/a	n/a	n/a	n/a	n/a	n/a	16	3	6	7	n/a	n/a	n/a	n/a	n/a
1043.57	n/a	PROB	521785	n/a	LTP069	ltpFR	10	n/a	n/a	n/a	n/a	n/a	n/a	19	6	5	8	n/a	n/a	n/a	n/a	n/a
1045.812	n/a	PROB	522906	n/a	LTP069	ltpFR	10	n/a	n/a	n/a	n/a	n/a	n/a	15	5	3	7	n/a	n/a	n/a	n/a	n/a
1047.47	n/a	PROB	523735	n/a	LTP069	ltpFR	10	n/a	n/a	n/a	n/a	n/a	n/a	18	3	7	8	n/a	n/a	n/a	n/a	n/a
1048.812	n/a	PROB	524406	n/a	LTP069	ltpFR	10	n/a	n/a	n/a	n/a	n/a	n/a	9	2	3	4	n/a	n/a	n/a	n/a	n/a
1050.628	n/a	PROB	525314	n/a	LTP069	ltpFR	10	n/a	n/a	n/a	n/a	n/a	n/a	16	8	1	7	n/a	n/a	n/a	n/a	n/a
1054.306	n/a	STOP	527153	n/a	LTP069	ltpFR	10	n/a	n/a	n/a	n/a	n/a	n/a	n/a	n/a	n/a	n/a	n/a	n/a	n/a	n/a	n/a
1055.17	n/a	WORD	527585	wordpools/wasnorm_wordpool.txt	LTP069	ltpFR	10	4	0	PIZZA	1079	n/a	0	n/a	0	0	0	1	0.412841796875	0.57763671875	lower	../fonts/zerothre.ttf
1058.18	n/a	START	529090	n/a	LTP069	ltpFR	10	n/a	n/a	n/a	n/a	n/a	n/a	n/a	n/a	n/a	n/a	n/a	n/a	n/a	n/a	n/a
1059.046	n/a	PROB	529523	n/a	LTP069	ltpFR	10	n/a	n/a	n/a	n/a	n/a	n/a	17	9	5	3	n/a	n/a	n/a	n/a	n/a
1062.02	n/a	PROB	531010	n/a	LTP069	ltpFR	10	n/a	n/a	n/a	n/a	n/a	n/a	8	1	5	2	n/a	n/a	n/a	n/a	n/a
1064.136	n/a	PROB	532068	n/a	LTP069	ltpFR	10	n/a	n/a	n/a	n/a	n/a	n/a	14	5	8	1	n/a	n/a	n/a	n/a	n/a
1068.21	n/a	PROB	534105	n/a	LTP069	ltpFR	10	n/a	n/a	n/a	n/a	n/a	n/a	16	3	8	5	n/a	n/a	n/a	n/a	n/a
1071.544	n/a	PROB	535772	n/a	LTP069	ltpFR	10	n/a	n/a	n/a	n/a	n/a	n/a	17	7	8	2	n/a	n/a	n/a	n/a	n/a
1073.28	n/a	STOP	536640	n/a	LTP069	ltpFR	10	n/a	n/a	n/a	n/a	n/a	n/a	n/a	n/a	n/a	n/a	n/a	n/a	n/a	n/a	n/a
1075.336	n/a	WORD	537668	wordpools/wasnorm_wordpool.txt	LTP069	ltpFR	10	4	0	SHORTCAKE	1292	n/a	1	n/a	0	0	0	1	0.412841796875	0.57763671875	lower	../fonts/zerothre.ttf
1078.346	n/a	START	539173	n/a	LTP069	ltpFR	10	n/a	n/a	n/a	n/a	n/a	n/a	n/a	n/a	n/a	n/a	n/a	n/a	n/a	n/a	n/a
1079.162	n/a	PROB	539581	n/a	LTP069	ltpFR	10	n/a	n/a	n/a	n/a	n/a	n/a	13	3	1	9	n/a	n/a	n/a	n/a	n/a
1081.428	n/a	PROB	540714	n/a	LTP069	ltpFR	10	n/a	n/a	n/a	n/a	n/a	n/a	7	1	3	3	n/a	n/a	n/a	n/a	n/a
1083.512	n/a	PROB	541756	n/a	LTP069	ltpFR	10	n/a	n/a	n/a	n/a	n/a	n/a	14	5	2	7	n/a	n/a	n/a	n/a	n/a
1085.37	n/a	PROB	542685	n/a	LTP069	ltpFR	10	n/a	n/a	n/a	n/a	n/a	n/a	21	7	9	5	n/a	n/a	n/a	n/a	n/a
1088.702	n/a	PROB	544351	n/a	LTP069	ltpFR	10	n/a	n/a	n/a	n/a	n/a	n/a	12	7	4	1	n/a	n/a	n/a	n/a	n/a
1092.26	n/a	PROB	546130	n/a	LTP069	ltpFR	10	n/a	n/a	n/a	n/a	n/a	n/a	15	7	3	5	n/a	n/a	n/a	n/a	n/a
1093.92	n/a	STOP	546960	n/a	LTP069	ltpFR	10	n/a	n/a	n/a	n/a	n/a	n/a	n/a	n/a	n/a	n/a	n/a	n/a	n/a	n/a	n/a
1095.25	n/a	WORD	547625	wordpools/wasnorm_wordpool.txt	LTP069	ltpFR	10	4	1	HERD	705	n/a	0	n/a	0	0	0	0	0.5869140625	0.422607421875	upper	../fonts/amplitud.ttf
1098.252	n/a	START	549126	n/a	LTP069	ltpFR	10	n/a	n/a	n/a	n/a	n/a	n/a	n/a	n/a	n/a	n/a	n/a	n/a	n/a	n/a	n/a
1099.178	n/a	PROB	549589	n/a	LTP069	ltpFR	10	n/a	n/a	n/a	n/a	n/a	n/a	17	2	8	7	n/a	n/a	n/a	n/a	n/a
1100.87	n/a	PROB	550435	n/a	LTP069	ltpFR	10	n/a	n/a	n/a	n/a	n/a	n/a	14	2	5	7	n/a	n/a	n/a	n/a	n/a
1102.968	n/a	PROB	551484	n/a	LTP069	ltpFR	10	n/a	n/a	n/a	n/a	n/a	n/a	14	6	2	6	n/a	n/a	n/a	n/a	n/a
1105.21	n/a	PROB	552605	n/a	LTP069	ltpFR	10	n/a	n/a	n/a	n/a	n/a	n/a	11	5	3	3	n/a	n/a	n/a	n/a	n/a
1107.294	n/a	PROB	553647	n/a	LTP069	ltpFR	10	n/a	n/a	n/a	n/a	n/a	n/a	15	9	4	2	n/a	n/a	n/a	n/a	n/a
1109.802	n/a	PROB	554901	n/a	LTP069	ltpFR	10	n/a	n/a	n/a	n/a	n/a	n/a	22	8	7	7	n/a	n/a	n/a	n/a	n/a
1113.914	n/a	STOP	556957	n/a	LTP069	ltpFR	10	n/a	n/a	n/a	n/a	n/a	n/a	n/a	n/a	n/a	n/a	n/a	n/a	n/a	n/a	n/a
1115.218	n/a	WORD	557609	wordpools/wasnorm_wordpool.txt	LTP069	ltpFR	10	4	1	CALF	222	n/a	1	n/a	0	0	0	0	0.5869140625	0.422607421875	upper	../fonts/amplitud.ttf
1118.226	n/a	START	559113	n/a	LTP069	ltpFR	10	n/a	n/a	n/a	n/a	n/a	n/a	n/a	n/a	n/a	n/a	n/a	n/a	n/a	n/a	n/a
1119.078	n/a	PROB	559539	n/a	LTP069	ltpFR	10	n/a	n/a	n/a	n/a	n/a	n/a	20	6	6	8	n/a	n/a	n/a	n/a	n/a
1121.636	n/a	PROB	560818	n/a	LTP069	ltpFR	10	n/a	n/a	n/a	n/a	n/a	n/a	18	6	5	7	n/a	n/a	n/a	n/a	n/a
1123.786	n/a	PROB	561893	n/a	LTP069	ltpFR	10	n/a	n/a	n/a	n/a	n/a	n/a	13	2	6	5	n/a	n/a	n/a	n/a	n/a
1125.586	n/a	PROB	562793	n/a	LTP069	ltpFR	10	n/a	n/a	n/a	n/a	n/a	n/a	13	2	7	4	n/a	n/a	n/a	n/a	n/a
1129.994	n/a	PROB	564997	n/a	LTP069	ltpFR	10	n/a	n/a	n/a	n/a	n/a	n/a	16	7	2	7	n/a	n/a	n/a	n/a	n/a
1134.226	n/a	STOP	567113	n/a	LTP069	ltpFR	10	n/a	n/a	n/a	n/a	n/a	n/a	n/a	n/a	n/a	n/a	n/a	n/a	n/a	n/a	n/a
1135.068	n/a	WORD	567534	wordpools/wasnorm_wordpool.txt	LTP069	ltpFR	10	4	1	RACK	1154	n/a	0	n/a	0	0	0	0	0.5869140625	0.422607421875	upper	../fonts/amplitud.ttf
1138.076	n/a	START	569038	n/a	LTP069	ltpFR	10	n/a	n/a	n/a	n/a	n/a	n/a	n/a	n/a	n/a	n/a	n/a	n/a	n/a	n/a	n/a
1139.086	n/a	PROB	569543	n/a	LTP069	ltpFR	10	n/a	n/a	n/a	n/a	n/a	n/a	7	2	3	2	n/a	n/a	n/a	n/a	n/a
1140.71	n/a	PROB	570355	n/a	LTP069	ltpFR	10	n/a	n/a	n/a	n/a	n/a	n/a	19	8	5	6	n/a	n/a	n/a	n/a	n/a
1145.368	n/a	PROB	572684	n/a	LTP069	ltpFR	10	n/a	n/a	n/a	n/a	n/a	n/a	24	9	9	6	n/a	n/a	n/a	n/a	n/a
1147.91	n/a	PROB	573955	n/a	LTP069	ltpFR	10	n/a	n/a	n/a	n/a	n/a	n/a	19	8	6	5	n/a	n/a	n/a	n/a	n/a
1149.71	n/a	PROB	574855	n/a	LTP069	ltpFR	10	n/a	n/a	n/a	n/a	n/a	n/a	15	9	3	3	n/a	n/a	n/a	n/a	n/a
1152.7	n/a	STOP	576350	n/a	LTP069	ltpFR	10	n/a	n/a	n/a	n/a	n/a	n/a	n/a	n/a	n/a	n/a	n/a	n/a	n/a	n/a	n/a
1155.018	n/a	WORD	577509	wordpools/wasnorm_wordpool.txt	LTP069	ltpFR	10	4	0	PRINTER	1126	n/a	1	n/a	0	0	0	1	0.412841796875	0.57763671875	lower	../fonts/zerothre.ttf
1158.026	n/a	START	579013	n/a	LTP069	ltpFR	10	n/a	n/a	n/a	n/a	n/a	n/a	n/a	n/a	n/a	n/a	n/a	n/a	n/a	n/a	n/a
1159.208	n/a	PROB	579604	n/a	LTP069	ltpFR	10	n/a	n/a	n/a	n/a	n/a	n/a	10	5	1	4	n/a	n/a	n/a	n/a	n/a
1161.402	n/a	PROB	580701	n/a	LTP069	ltpFR	10	n/a	n/a	n/a	n/a	n/a	n/a	22	7	7	8	n/a	n/a	n/a	n/a	n/a
1163.334	n/a	PROB	581667	n/a	LTP069	ltpFR	10	n/a	n/a	n/a	n/a	n/a	n/a	8	2	4	4	n/a	n/a	n/a	n/a	n/a
1165.96	n/a	PROB	582980	n/a	LTP069	ltpFR	10	n/a	n/a	n/a	n/a	n/a	n/a	12	2	2	8	n/a	n/a	n/a	n/a	n/a
1168.458	n/a	PROB	584229	n/a	LTP069	ltpFR	10	n/a	n/a	n/a	n/a	n/a	n/a	18	4	7	7	n/a	n/a	n/a	n/a	n/a
1170.326	n/a	PROB	585163	n/a	LTP069	ltpFR	10	n/a	n/a	n/a	n/a	n/a	n/a	18	7	6	5	n/a	n/a	n/a	n/a	n/a
1174.026	n/a	STOP	587013	n/a	LTP069	ltpFR	10	n/a	n/a	n/a	n/a	n/a	n/a	n/a	n/a	n/a	n/a	n/a	n/a	n/a	n/a	n/a
1175.224	n/a	WORD	587612	wordpools/wasnorm_wordpool.txt	LTP069	ltpFR	10	4	0	SEAT	1264	n/a	1	n/a	0	0	0	1	0.412841796875	0.57763671875	lower	../fonts/zerothre.ttf
1178.232	n/a	START	589116	n/a	LTP069	ltpFR	10	n/a	n/a	n/a	n/a	n/a	n/a	n/a	n/a	n/a	n/a	n/a	n/a	n/a	n/a	n/a
1179.058	n/a	PROB	589529	n/a	LTP069	ltpFR	10	n/a	n/a	n/a	n/a	n/a	n/a	18	5	4	9	n/a	n/a	n/a	n/a	n/a
1181.124	n/a	PROB	590562	n/a	LTP069	ltpFR	10	n/a	n/a	n/a	n/a	n/a	n/a	16	4	7	5	n/a	n/a	n/a	n/a	n/a
1182.958	n/a	PROB	591479	n/a	LTP069	ltpFR	10	n/a	n/a	n/a	n/a	n/a	n/a	15	7	2	6	n/a	n/a	n/a	n/a	n/a
1185.168	n/a	PROB	592584	n/a	LTP069	ltpFR	10	n/a	n/a	n/a	n/a	n/a	n/a	23	8	9	5	n/a	n/a	n/a	n/a	n/a
1190.884	n/a	PROB	595442	n/a	LTP069	ltpFR	10	n/a	n/a	n/a	n/a	n/a	n/a	10	8	1	1	n/a	n/a	n/a	n/a	n/a
1192.806	n/a	STOP	596403	n/a	LTP069	ltpFR	10	n/a	n/a	n/a	n/a	n/a	n/a	n/a	n/a	n/a	n/a	n/a	n/a	n/a	n/a	n/a
1195.192	n/a	WORD	597596	wordpools/wasnorm_wordpool.txt	LTP069	ltpFR	10	4	0	WINGS	1614	n/a	1	n/a	0	0	0	1	0.412841796875	0.57763671875	lower	../fonts/zerothre.ttf
1198.2	n/a	START	599100	n/a	LTP069	ltpFR	10	n/a	n/a	n/a	n/a	n/a	n/a	n/a	n/a	n/a	n/a	n/a	n/a	n/a	n/a	n/a
1199.032	n/a	PROB	599516	n/a	LTP069	ltpFR	10	n/a	n/a	n/a	n/a	n/a	n/a	24	7	8	9	n/a	n/a	n/a	n/a	n/a
1206.05	n/a	PROB	603025	n/a	LTP069	ltpFR	10	n/a	n/a	n/a	n/a	n/a	n/a	18	5	7	6	n/a	n/a	n/a	n/a	n/a
1208.924	n/a	PROB	604462	n/a	LTP069	ltpFR	10	n/a	n/a	n/a	n/a	n/a	n/a	14	1	7	6	n/a	n/a	n/a	n/a	n/a
1210.916	n/a	PROB	605458	n/a	LTP069	ltpFR	10	n/a	n/a	n/a	n/a	n/a	n/a	19	9	2	8	n/a	n/a	n/a	n/a	n/a
1212.862	n/a	STOP	606431	n/a	LTP069	ltpFR	10	n/a	n/a	n/a	n/a	n/a	n/a	n/a	n/a	n/a	n/a	n/a	n/a	n/a	n/a	n/a
1215.14	n/a	WORD	607570	wordpools/wasnorm_wordpool.txt	LTP069	ltpFR	10	4	0	SECRETARY	1265	n/a	1	n/a	0	0	0	1	0.412841796875	0.57763671875	lower	../fonts/zerothre.ttf
1218.14	n/a	START	609070	n/a	LTP069	ltpFR	10	n/a	n/a	n/a	n/a	n/a	n/a	n/a	n/a	n/a	n/a	n/a	n/a	n/a	n/a	n/a
1219.058	n/a	PROB	609529	n/a	LTP069	ltpFR	10	n/a	n/a	n/a	n/a	n/a	n/a	19	8	6	5	n/a	n/a	n/a	n/a	n/a
1220.982	n/a	PROB	610491	n/a	LTP069	ltpFR	10	n/a	n/a	n/a	n/a	n/a	n/a	17	1	8	8	n/a	n/a	n/a	n/a	n/a
1223.098	n/a	PROB	611549	n/a	LTP069	ltpFR	10	n/a	n/a	n/a	n/a	n/a	n/a	19	3	8	8	n/a	n/a	n/a	n/a	n/a
1225.774	n/a	PROB	612887	n/a	LTP069	ltpFR	10	n/a	n/a	n/a	n/a	n/a	n/a	7	4	1	2	n/a	n/a	n/a	n/a	n/a
1227.582	n/a	PROB	613791	n/a	LTP069	ltpFR	10	n/a	n/a	n/a	n/a	n/a	n/a	14	9	3	2	n/a	n/a	n/a	n/a	n/a
1229.49	n/a	PROB	614745	n/a	LTP069	ltpFR	10	n/a	n/a	n/a	n/a	n/a	n/a	19	4	6	9	n/a	n/a	n/a	n/a	n/a
1230.858	n/a	PROB	615429	n/a	LTP069	ltpFR	10	n/a	n/a	n/a	n/a	n/a	n/a	17	5	6	6	n/a	n/a	n/a	n/a	n/a
1234.142	n/a	STOP	617071	n/a	LTP069	ltpFR	10	n/a	n/a	n/a	n/a	n/a	n/a	n/a	n/a	n/a	n/a	n/a	n/a	n/a	n/a	n/a
1236.024	n/a	REC_START	618012	n/a	LTP069	ltpFR	10	4	n/a	n/a	n/a	n/a	n/a	n/a	0	0	0	n/a	n/a	n/a	n/a	n/a
1237.862	n/a	REC_WORD	618931	wordpools/wasnorm_wordpool.txt	LTP069	ltpFR	10	4	1	NUN	962	n/a	1	n/a	0	0	0	n/a	n/a	n/a	n/a	n/a
1239.846	n/a	REC_WORD	619923	wordpools/wasnorm_wordpool.txt	LTP069	ltpFR	10	4	0	SECRETARY	1265	n/a	1	n/a	0	0	0	n/a	n/a	n/a	n/a	n/a
1243.662	n/a	REC_WORD	621831	wordpools/wasnorm_wordpool.txt	LTP069	ltpFR	10	4	0	SEAT	1264	n/a	1	n/a	0	0	0	n/a	n/a	n/a	n/a	n/a
1245.394	n/a	REC_WORD	622697	wordpools/wasnorm_wordpool.txt	LTP069	ltpFR	10	4	0	WINGS	1614	n/a	1	n/a	0	0	0	n/a	n/a	n/a	n/a	n/a
1254.562	n/a	REC_WORD	627281	wordpools/wasnorm_wordpool.txt	LTP069	ltpFR	10	4	0	WINGS	1614	n/a	1	n/a	0	0	0	n/a	n/a	n/a	n/a	n/a
1268.372	n/a	REC_WORD	634186	wordpools/wasnorm_wordpool.txt	LTP069	ltpFR	10	4	0	DECK	443	n/a	1	n/a	0	0	0	n/a	n/a	n/a	n/a	n/a
1293.548	n/a	REC_WORD	646774	wordpools/wasnorm_wordpool.txt	LTP069	ltpFR	10	4	1	HAND	683	n/a	1	n/a	0	0	0	n/a	n/a	n/a	n/a	n/a
1304.124	n/a	REC_WORD	652062	wordpools/wasnorm_wordpool.txt	LTP069	ltpFR	10	4	1	HERD	705	n/a	0	n/a	0	0	0	n/a	n/a	n/a	n/a	n/a
1305.374	n/a	REC_WORD	652687	wordpools/wasnorm_wordpool.txt	LTP069	ltpFR	10	4	1	SOCIETY	1338	n/a	1	n/a	0	0	0	n/a	n/a	n/a	n/a	n/a
1312.422	n/a	START	656211	n/a	LTP069	ltpFR	10	n/a	n/a	n/a	n/a	n/a	n/a	n/a	n/a	n/a	n/a	n/a	n/a	n/a	n/a	n/a
1313.93	n/a	PROB	656965	n/a	LTP069	ltpFR	10	n/a	n/a	n/a	n/a	n/a	n/a	13	8	3	2	n/a	n/a	n/a	n/a	n/a
1315.48	n/a	PROB	657740	n/a	LTP069	ltpFR	10	n/a	n/a	n/a	n/a	n/a	n/a	10	2	5	3	n/a	n/a	n/a	n/a	n/a
1317.322	n/a	PROB	658661	n/a	LTP069	ltpFR	10	n/a	n/a	n/a	n/a	n/a	n/a	16	9	1	6	n/a	n/a	n/a	n/a	n/a
1320.422	n/a	STOP	660211	n/a	LTP069	ltpFR	10	n/a	n/a	n/a	n/a	n/a	n/a	n/a	n/a	n/a	n/a	n/a	n/a	n/a	n/a	n/a
1321.246	n/a	WORD	660623	wordpools/wasnorm_wordpool.txt	LTP069	ltpFR	10	5	1	PAINTING	1005	n/a	0	n/a	0	0	0	0	0.5869140625	0.422607421875	upper	../fonts/amplitud.ttf
1324.254	n/a	START	662127	n/a	LTP069	ltpFR	10	n/a	n/a	n/a	n/a	n/a	n/a	n/a	n/a	n/a	n/a	n/a	n/a	n/a	n/a	n/a
1325.254	n/a	PROB	662627	n/a	LTP069	ltpFR	10	n/a	n/a	n/a	n/a	n/a	n/a	14	8	2	4	n/a	n/a	n/a	n/a	n/a
1326.622	n/a	PROB	663311	n/a	LTP069	ltpFR	10	n/a	n/a	n/a	n/a	n/a	n/a	10	3	1	6	n/a	n/a	n/a	n/a	n/a
1328.53	n/a	PROB	664265	n/a	LTP069	ltpFR	10	n/a	n/a	n/a	n/a	n/a	n/a	13	3	6	4	n/a	n/a	n/a	n/a	n/a
1329.92	n/a	PROB	664960	n/a	LTP069	ltpFR	10	n/a	n/a	n/a	n/a	n/a	n/a	17	8	1	8	n/a	n/a	n/a	n/a	n/a
1331.844	n/a	STOP	665922	n/a	LTP069	ltpFR	10	n/a	n/a	n/a	n/a	n/a	n/a	n/a	n/a	n/a	n/a	n/a	n/a	n/a	n/a	n/a
1333.314	n/a	WORD	666657	wordpools/wasnorm_wordpool.txt	LTP069	ltpFR	10	5	1	SPOOL	1356	n/a	0	n/a	0	0	0	0	0.5869140625	0.422607421875	upper	../fonts/amplitud.ttf
1336.322	n/a	START	668161	n/a	LTP069	ltpFR	10	n/a	n/a	n/a	n/a	n/a	n/a	n/a	n/a	n/a	n/a	n/a	n/a	n/a	n/a	n/a
1337.396	n/a	PROB	668698	n/a	LTP069	ltpFR	10	n/a	n/a	n/a	n/a	n/a	n/a	11	5	4	2	n/a	n/a	n/a	n/a	n/a
1339.404	n/a	PROB	669702	n/a	LTP069	ltpFR	10	n/a	n/a	n/a	n/a	n/a	n/a	13	3	3	7	n/a	n/a	n/a	n/a	n/a
1344.322	n/a	STOP	672161	n/a	LTP069	ltpFR	10	n/a	n/a	n/a	n/a	n/a	n/a	n/a	n/a	n/a	n/a	n/a	n/a	n/a	n/a	n/a
1345.438	n/a	WORD	672719	wordpools/wasnorm_wordpool.txt	LTP069	ltpFR	10	5	1	TIE	1466	n/a	0	n/a	0	0	0	0	0.5869140625	0.422607421875	upper	../fonts/amplitud.ttf
1348.446	n/a	START	674223	n/a	LTP069	ltpFR	10	n/a	n/a	n/a	n/a	n/a	n/a	n/a	n/a	n/a	n/a	n/a	n/a	n/a	n/a	n/a
1349.404	n/a	PROB	674702	n/a	LTP069	ltpFR	10	n/a	n/a	n/a	n/a	n/a	n/a	23	5	9	9	n/a	n/a	n/a	n/a	n/a
1351.878	n/a	PROB	675939	n/a	LTP069	ltpFR	10	n/a	n/a	n/a	n/a	n/a	n/a	14	7	1	6	n/a	n/a	n/a	n/a	n/a
1354.612	n/a	PROB	677306	n/a	LTP069	ltpFR	10	n/a	n/a	n/a	n/a	n/a	n/a	17	5	4	8	n/a	n/a	n/a	n/a	n/a
1356.134	n/a	STOP	678067	n/a	LTP069	ltpFR	10	n/a	n/a	n/a	n/a	n/a	n/a	n/a	n/a	n/a	n/a	n/a	n/a	n/a	n/a	n/a
1357.412	n/a	WORD	678706	wordpools/wasnorm_wordpool.txt	LTP069	ltpFR	10	5	0	RIDER	1191	n/a	1	n/a	0	0	0	1	0.412841796875	0.57763671875	lower	../fonts/zerothre.ttf
1360.422	n/a	START	680211	n/a	LTP069	ltpFR	10	n/a	n/a	n/a	n/a	n/a	n/a	n/a	n/a	n/a	n/a	n/a	n/a	n/a	n/a	n/a
1361.554	n/a	PROB	680777	n/a	LTP069	ltpFR	10	n/a	n/a	n/a	n/a	n/a	n/a	14	7	5	2	n/a	n/a	n/a	n/a	n/a
1363.388	n/a	PROB	681694	n/a	LTP069	ltpFR	10	n/a	n/a	n/a	n/a	n/a	n/a	23	9	6	8	n/a	n/a	n/a	n/a	n/a
1367.334	n/a	STOP	683667	n/a	LTP069	ltpFR	10	n/a	n/a	n/a	n/a	n/a	n/a	n/a	n/a	n/a	n/a	n/a	n/a	n/a	n/a	n/a
1369.412	n/a	WORD	684706	wordpools/wasnorm_wordpool.txt	LTP069	ltpFR	10	5	0	JAM	748	n/a	0	n/a	0	0	0	1	0.412841796875	0.57763671875	lower	../fonts/zerothre.ttf
1372.42	n/a	START	686210	n/a	LTP069	ltpFR	10	n/a	n/a	n/a	n/a	n/a	n/a	n/a	n/a	n/a	n/a	n/a	n/a	n/a	n/a	n/a
1373.536	n/a	PROB	686768	n/a	LTP069	ltpFR	10	n/a	n/a	n/a	n/a	n/a	n/a	18	9	1	8	n/a	n/a	n/a	n/a	n/a
1374.996	n/a	PROB	687498	n/a	LTP069	ltpFR	10	n/a	n/a	n/a	n/a	n/a	n/a	7	3	2	2	n/a	n/a	n/a	n/a	n/a
1377.128	n/a	PROB	688564	n/a	LTP069	ltpFR	10	n/a	n/a	n/a	n/a	n/a	n/a	18	4	5	9	n/a	n/a	n/a	n/a	n/a
1379.15	n/a	STOP	689575	n/a	LTP069	ltpFR	10	n/a	n/a	n/a	n/a	n/a	n/a	n/a	n/a	n/a	n/a	n/a	n/a	n/a	n/a	n/a
1381.52	n/a	WORD	690760	wordpools/wasnorm_wordpool.txt	LTP069	ltpFR	10	5	1	COOK	372	n/a	1	n/a	0	0	0	0	0.5869140625	0.422607421875	upper	../fonts/amplitud.ttf
1384.528	n/a	START	692264	n/a	LTP069	ltpFR	10	n/a	n/a	n/a	n/a	n/a	n/a	n/a	n/a	n/a	n/a	n/a	n/a	n/a	n/a	n/a
1385.478	n/a	PROB	692739	n/a	LTP069	ltpFR	10	n/a	n/a	n/a	n/a	n/a	n/a	7	3	1	3	n/a	n/a	n/a	n/a	n/a
1386.97	n/a	PROB	693485	n/a	LTP069	ltpFR	10	n/a	n/a	n/a	n/a	n/a	n/a	13	5	1	7	n/a	n/a	n/a	n/a	n/a
1389.086	n/a	PROB	694543	n/a	LTP069	ltpFR	10	n/a	n/a	n/a	n/a	n/a	n/a	11	2	4	5	n/a	n/a	n/a	n/a	n/a
1392.528	n/a	STOP	696264	n/a	LTP069	ltpFR	10	n/a	n/a	n/a	n/a	n/a	n/a	n/a	n/a	n/a	n/a	n/a	n/a	n/a	n/a	n/a
1393.36	n/a	WORD	696680	wordpools/wasnorm_wordpool.txt	LTP069	ltpFR	10	5	1	BEEF	113	n/a	0	n/a	0	0	0	0	0.5869140625	0.422607421875	upper	../fonts/amplitud.ttf
1396.37	n/a	START	698185	n/a	LTP069	ltpFR	10	n/a	n/a	n/a	n/a	n/a	n/a	n/a	n/a	n/a	n/a	n/a	n/a	n/a	n/a	n/a
1397.544	n/a	PROB	698772	n/a	LTP069	ltpFR	10	n/a	n/a	n/a	n/a	n/a	n/a	16	4	5	7	n/a	n/a	n/a	n/a	n/a
1399.178	n/a	PROB	699589	n/a	LTP069	ltpFR	10	n/a	n/a	n/a	n/a	n/a	n/a	16	3	6	7	n/a	n/a	n/a	n/a	n/a
1400.994	n/a	PROB	700497	n/a	LTP069	ltpFR	10	n/a	n/a	n/a	n/a	n/a	n/a	19	3	8	8	n/a	n/a	n/a	n/a	n/a
1403.27	n/a	STOP	701635	n/a	LTP069	ltpFR	10	n/a	n/a	n/a	n/a	n/a	n/a	n/a	n/a	n/a	n/a	n/a	n/a	n/a	n/a	n/a
1405.562	n/a	WORD	702781	wordpools/wasnorm_wordpool.txt	LTP069	ltpFR	10	5	1	FARMER	553	n/a	1	n/a	0	0	0	0	0.5869140625	0.422607421875	upper	../fonts/amplitud.ttf
1408.57	n/a	START	704285	n/a	LTP069	ltpFR	10	n/a	n/a	n/a	n/a	n/a	n/a	n/a	n/a	n/a	n/a	n/a	n/a	n/a	n/a	n/a
1409.42	n/a	PROB	704710	n/a	LTP069	ltpFR	10	n/a	n/a	n/a	n/a	n/a	n/a	12	2	7	3	n/a	n/a	n/a	n/a	n/a
1410.668	n/a	PROB	705334	n/a	LTP069	ltpFR	10	n/a	n/a	n/a	n/a	n/a	n/a	13	7	3	3	n/a	n/a	n/a	n/a	n/a
1412.086	n/a	PROB	706043	n/a	LTP069	ltpFR	10	n/a	n/a	n/a	n/a	n/a	n/a	17	8	5	4	n/a	n/a	n/a	n/a	n/a
1413.794	n/a	PROB	706897	n/a	LTP069	ltpFR	10	n/a	n/a	n/a	n/a	n/a	n/a	12	9	1	2	n/a	n/a	n/a	n/a	n/a
1415.048	n/a	STOP	707524	n/a	LTP069	ltpFR	10	n/a	n/a	n/a	n/a	n/a	n/a	n/a	n/a	n/a	n/a	n/a	n/a	n/a	n/a	n/a
1417.728	n/a	WORD	708864	wordpools/wasnorm_wordpool.txt	LTP069	ltpFR	10	5	1	OX	994	n/a	1	n/a	0	0	0	0	0.5869140625	0.422607421875	upper	../fonts/amplitud.ttf
1420.728	n/a	START	710364	n/a	LTP069	ltpFR	10	n/a	n/a	n/a	n/a	n/a	n/a	n/a	n/a	n/a	n/a	n/a	n/a	n/a	n/a	n/a
1421.828	n/a	PROB	710914	n/a	LTP069	ltpFR	10	n/a	n/a	n/a	n/a	n/a	n/a	13	3	9	1	n/a	n/a	n/a	n/a	n/a
1423.078	n/a	PROB	711539	n/a	LTP069	ltpFR	10	n/a	n/a	n/a	n/a	n/a	n/a	8	2	2	4	n/a	n/a	n/a	n/a	n/a
1424.436	n/a	PROB	712218	n/a	LTP069	ltpFR	10	n/a	n/a	n/a	n/a	n/a	n/a	13	8	4	1	n/a	n/a	n/a	n/a	n/a
1426.41	n/a	PROB	713205	n/a	LTP069	ltpFR	10	n/a	n/a	n/a	n/a	n/a	n/a	17	6	4	7	n/a	n/a	n/a	n/a	n/a
1428.176	n/a	STOP	714088	n/a	LTP069	ltpFR	10	n/a	n/a	n/a	n/a	n/a	n/a	n/a	n/a	n/a	n/a	n/a	n/a	n/a	n/a	n/a
1429.718	n/a	WORD	714859	wordpools/wasnorm_wordpool.txt	LTP069	ltpFR	10	5	1	VENT	1556	n/a	0	n/a	0	0	0	0	0.5869140625	0.422607421875	upper	../fonts/amplitud.ttf
1432.728	n/a	START	716364	n/a	LTP069	ltpFR	10	n/a	n/a	n/a	n/a	n/a	n/a	n/a	n/a	n/a	n/a	n/a	n/a	n/a	n/a	n/a
1433.86	n/a	PROB	716930	n/a	LTP069	ltpFR	10	n/a	n/a	n/a	n/a	n/a	n/a	17	2	7	8	n/a	n/a	n/a	n/a	n/a
1435.41	n/a	PROB	717705	n/a	LTP069	ltpFR	10	n/a	n/a	n/a	n/a	n/a	n/a	15	7	4	4	n/a	n/a	n/a	n/a	n/a
1437.634	n/a	PROB	718817	n/a	LTP069	ltpFR	10	n/a	n/a	n/a	n/a	n/a	n/a	21	9	3	9	n/a	n/a	n/a	n/a	n/a
1440.058	n/a	STOP	720029	n/a	LTP069	ltpFR	10	n/a	n/a	n/a	n/a	n/a	n/a	n/a	n/a	n/a	n/a	n/a	n/a	n/a	n/a	n/a
1441.802	n/a	WORD	720901	wordpools/wasnorm_wordpool.txt	LTP069	ltpFR	10	5	0	TWINE	1529	n/a	0	n/a	0	0	0	1	0.412841796875	0.57763671875	lower	../fonts/zerothre.ttf
1444.81	n/a	START	722405	n/a	LTP069	ltpFR	10	n/a	n/a	n/a	n/a	n/a	n/a	n/a	n/a	n/a	n/a	n/a	n/a	n/a	n/a	n/a
1445.91	n/a	PROB	722955	n/a	LTP069	ltpFR	10	n/a	n/a	n/a	n/a	n/a	n/a	23	9	7	7	n/a	n/a	n/a	n/a	n/a
1448.25	n/a	PROB	724125	n/a	LTP069	ltpFR	10	n/a	n/a	n/a	n/a	n/a	n/a	12	7	3	2	n/a	n/a	n/a	n/a	n/a
1449.834	n/a	PROB	724917	n/a	LTP069	ltpFR	10	n/a	n/a	n/a	n/a	n/a	n/a	16	4	7	5	n/a	n/a	n/a	n/a	n/a
1451.45	n/a	STOP	725725	n/a	LTP069	ltpFR	10	n/a	n/a	n/a	n/a	n/a	n/a	n/a	n/a	n/a	n/a	n/a	n/a	n/a	n/a	n/a
1453.626	n/a	WORD	726813	wordpools/wasnorm_wordpool.txt	LTP069	ltpFR	10	5	0	TOAST	1471	n/a	0	n/a	0	0	0	1	0.412841796875	0.57763671875	lower	../fonts/zerothre.ttf
1456.634	n/a	START	728317	n/a	LTP069	ltpFR	10	n/a	n/a	n/a	n/a	n/a	n/a	n/a	n/a	n/a	n/a	n/a	n/a	n/a	n/a	n/a
1457.534	n/a	PROB	728767	n/a	LTP069	ltpFR	10	n/a	n/a	n/a	n/a	n/a	n/a	11	7	1	3	n/a	n/a	n/a	n/a	n/a
1459.01	n/a	PROB	729505	n/a	LTP069	ltpFR	10	n/a	n/a	n/a	n/a	n/a	n/a	18	1	9	8	n/a	n/a	n/a	n/a	n/a
1460.426	n/a	PROB	730213	n/a	LTP069	ltpFR	10	n/a	n/a	n/a	n/a	n/a	n/a	23	8	8	7	n/a	n/a	n/a	n/a	n/a
1464.636	n/a	STOP	732318	n/a	LTP069	ltpFR	10	n/a	n/a	n/a	n/a	n/a	n/a	n/a	n/a	n/a	n/a	n/a	n/a	n/a	n/a	n/a
1465.734	n/a	WORD	732867	wordpools/wasnorm_wordpool.txt	LTP069	ltpFR	10	5	0	BARLEY	88	n/a	0	n/a	0	0	0	1	0.412841796875	0.57763671875	lower	../fonts/zerothre.ttf
1468.744	n/a	START	734372	n/a	LTP069	ltpFR	10	n/a	n/a	n/a	n/a	n/a	n/a	n/a	n/a	n/a	n/a	n/a	n/a	n/a	n/a	n/a
1469.942	n/a	PROB	734971	n/a	LTP069	ltpFR	10	n/a	n/a	n/a	n/a	n/a	n/a	21	6	6	9	n/a	n/a	n/a	n/a	n/a
1472.86	n/a	PROB	736430	n/a	LTP069	ltpFR	10	n/a	n/a	n/a	n/a	n/a	n/a	25	9	7	9	n/a	n/a	n/a	n/a	n/a
1475.898	n/a	STOP	737949	n/a	LTP069	ltpFR	10	n/a	n/a	n/a	n/a	n/a	n/a	n/a	n/a	n/a	n/a	n/a	n/a	n/a	n/a	n/a
1477.576	n/a	WORD	738788	wordpools/wasnorm_wordpool.txt	LTP069	ltpFR	10	5	0	BLUEPRINT	142	n/a	0	n/a	0	0	0	1	0.412841796875	0.57763671875	lower	../fonts/zerothre.ttf
1480.584	n/a	START	740292	n/a	LTP069	ltpFR	10	n/a	n/a	n/a	n/a	n/a	n/a	n/a	n/a	n/a	n/a	n/a	n/a	n/a	n/a	n/a
1481.61	n/a	PROB	740805	n/a	LTP069	ltpFR	10	n/a	n/a	n/a	n/a	n/a	n/a	21	7	8	6	n/a	n/a	n/a	n/a	n/a
1485.176	n/a	PROB	742588	n/a	LTP069	ltpFR	10	n/a	n/a	n/a	n/a	n/a	n/a	14	4	9	1	n/a	n/a	n/a	n/a	n/a
1487.25	n/a	STOP	743625	n/a	LTP069	ltpFR	10	n/a	n/a	n/a	n/a	n/a	n/a	n/a	n/a	n/a	n/a	n/a	n/a	n/a	n/a	n/a
1489.6	n/a	WORD	744800	wordpools/wasnorm_wordpool.txt	LTP069	ltpFR	10	5	0	CHAPEL	280	n/a	1	n/a	0	0	0	1	0.412841796875	0.57763671875	lower	../fonts/zerothre.ttf
1492.61	n/a	START	746305	n/a	LTP069	ltpFR	10	n/a	n/a	n/a	n/a	n/a	n/a	n/a	n/a	n/a	n/a	n/a	n/a	n/a	n/a	n/a
1493.542	n/a	PROB	746771	n/a	LTP069	ltpFR	10	n/a	n/a	n/a	n/a	n/a	n/a	14	6	3	5	n/a	n/a	n/a	n/a	n/a
1496.642	n/a	PROB	748321	n/a	LTP069	ltpFR	10	n/a	n/a	n/a	n/a	n/a	n/a	17	8	8	1	n/a	n/a	n/a	n/a	n/a
1498.624	n/a	PROB	749312	n/a	LTP069	ltpFR	10	n/a	n/a	n/a	n/a	n/a	n/a	16	3	7	6	n/a	n/a	n/a	n/a	n/a
1499.916	n/a	STOP	749958	n/a	LTP069	ltpFR	10	n/a	n/a	n/a	n/a	n/a	n/a	n/a	n/a	n/a	n/a	n/a	n/a	n/a	n/a	n/a
1501.65	n/a	WORD	750825	wordpools/wasnorm_wordpool.txt	LTP069	ltpFR	10	5	0	POPE	1105	n/a	1	n/a	0	0	0	1	0.412841796875	0.57763671875	lower	../fonts/zerothre.ttf
1504.66	n/a	START	752330	n/a	LTP069	ltpFR	10	n/a	n/a	n/a	n/a	n/a	n/a	n/a	n/a	n/a	n/a	n/a	n/a	n/a	n/a	n/a
1505.468	n/a	PROB	752734	n/a	LTP069	ltpFR	10	n/a	n/a	n/a	n/a	n/a	n/a	16	5	3	8	n/a	n/a	n/a	n/a	n/a
1507.45	n/a	PROB	753725	n/a	LTP069	ltpFR	10	n/a	n/a	n/a	n/a	n/a	n/a	10	6	3	1	n/a	n/a	n/a	n/a	n/a
1509.084	n/a	PROB	754542	n/a	LTP069	ltpFR	10	n/a	n/a	n/a	n/a	n/a	n/a	16	6	5	5	n/a	n/a	n/a	n/a	n/a
1510.426	n/a	PROB	755213	n/a	LTP069	ltpFR	10	n/a	n/a	n/a	n/a	n/a	n/a	18	4	6	8	n/a	n/a	n/a	n/a	n/a
1511.684	n/a	STOP	755842	n/a	LTP069	ltpFR	10	n/a	n/a	n/a	n/a	n/a	n/a	n/a	n/a	n/a	n/a	n/a	n/a	n/a	n/a	n/a
1514.418	n/a	REC_START	757209	n/a	LTP069	ltpFR	10	5	n/a	n/a	n/a	n/a	n/a	n/a	0	0	0	n/a	n/a	n/a	n/a	n/a
1515.572	n/a	REC_WORD	757786	wordpools/wasnorm_wordpool.txt	LTP069	ltpFR	10	5	0	POPE	1105	n/a	1	n/a	0	0	0	n/a	n/a	n/a	n/a	n/a
1517.346	n/a	REC_WORD	758673	wordpools/wasnorm_wordpool.txt	LTP069	ltpFR	10	5	0	BLUEPRINT	142	n/a	0	n/a	0	0	0	n/a	n/a	n/a	n/a	n/a
1522.726	n/a	REC_WORD	761363	wordpools/wasnorm_wordpool.txt	LTP069	ltpFR	10	5	0	TWINE	1529	n/a	0	n/a	0	0	0	n/a	n/a	n/a	n/a	n/a
1529.322	n/a	REC_WORD	764661	wordpools/wasnorm_wordpool.txt	LTP069	ltpFR	10	5	1	OX	994	n/a	1	n/a	0	0	0	n/a	n/a	n/a	n/a	n/a
1568.31	n/a	REC_WORD	784155	wordpools/wasnorm_wordpool.txt	LTP069	ltpFR	10	5	0	BARLEY	88	n/a	0	n/a	0	0	0	n/a	n/a	n/a	n/a	n/a
1586.58	n/a	REC_WORD	793290	wordpools/wasnorm_wordpool.txt	LTP069	ltpFR	10	5	1	PAINTING	1005	n/a	0	n/a	0	0	0	n/a	n/a	n/a	n/a	n/a
1601.206	n/a	WORD	800603	wordpools/wasnorm_wordpool.txt	LTP069	ltpFR	10	6	1	SUSPECT	1415	n/a	1	n/a	0	0	0	0	0.5869140625	0.422607421875	upper	../fonts/amplitud.ttf
1605.398	n/a	WORD	802699	wordpools/wasnorm_wordpool.txt	LTP069	ltpFR	10	6	1	THIEF	1456	n/a	1	n/a	0	0	0	0	0.5869140625	0.422607421875	upper	../fonts/amplitud.ttf
1609.23	n/a	WORD	804615	wordpools/wasnorm_wordpool.txt	LTP069	ltpFR	10	6	1	RUBY	1214	n/a	0	n/a	0	0	0	0	0.5869140625	0.422607421875	upper	../fonts/amplitud.ttf
1613.406	n/a	WORD	806703	wordpools/wasnorm_wordpool.txt	LTP069	ltpFR	10	6	1	BRACELET	163	n/a	0	n/a	0	0	0	0	0.5869140625	0.422607421875	upper	../fonts/amplitud.ttf
1617.254	n/a	WORD	808627	wordpools/wasnorm_wordpool.txt	LTP069	ltpFR	10	6	1	CLAY	320	n/a	0	n/a	0	0	0	0	0.5869140625	0.422607421875	upper	../fonts/amplitud.ttf
1621.398	n/a	WORD	810699	wordpools/wasnorm_wordpool.txt	LTP069	ltpFR	10	6	1	SINK	1309	n/a	0	n/a	0	0	0	0	0.5869140625	0.422607421875	upper	../fonts/amplitud.ttf
1625.364	n/a	WORD	812682	wordpools/wasnorm_wordpool.txt	LTP069	ltpFR	10	6	1	ASTRONAUT	51	n/a	1	n/a	0	0	0	0	0.5869140625	0.422607421875	upper	../fonts/amplitud.ttf
1629.48	n/a	WORD	814740	wordpools/wasnorm_wordpool.txt	LTP069	ltpFR	10	6	1	ARMY	39	n/a	1	n/a	0	0	0	0	0.5869140625	0.422607421875	upper	../fonts/amplitud.ttf
1633.498	n/a	WORD	816749	wordpools/wasnorm_wordpool.txt	LTP069	ltpFR	10	6	1	SLIME	1327	n/a	0	n/a	0	0	0	0	0.5869140625	0.422607421875	upper	../fonts/amplitud.ttf
1637.656	n/a	WORD	818828	wordpools/wasnorm_wordpool.txt	LTP069	ltpFR	10	6	1	MERMAID	887	n/a	1	n/a	0	0	0	0	0.5869140625	0.422607421875	upper	../fonts/amplitud.ttf
1641.654	n/a	WORD	820827	wordpools/wasnorm_wordpool.txt	LTP069	ltpFR	10	6	1	YOKE	1632	n/a	0	n/a	0	0	0	0	0.5869140625	0.422607421875	upper	../fonts/amplitud.ttf
1645.788	n/a	WORD	822894	wordpools/wasnorm_wordpool.txt	LTP069	ltpFR	10	6	1	GALAXY	617	n/a	0	n/a	0	0	0	0	0.5869140625	0.422607421875	upper	../fonts/amplitud.ttf
1649.946	n/a	WORD	824973	wordpools/wasnorm_wordpool.txt	LTP069	ltpFR	10	6	1	PREDATOR	1120	n/a	1	n/a	0	0	0	0	0.5869140625	0.422607421875	upper	../fonts/amplitud.ttf
1653.846	n/a	WORD	826923	wordpools/wasnorm_wordpool.txt	LTP069	ltpFR	10	6	1	HEN	703	n/a	1	n/a	0	0	0	0	0.5869140625	0.422607421875	upper	../fonts/amplitud.ttf
1657.664	n/a	WORD	828832	wordpools/wasnorm_wordpool.txt	LTP069	ltpFR	10	6	1	VISITOR	1573	n/a	1	n/a	0	0	0	0	0.5869140625	0.422607421875	upper	../fonts/amplitud.ttf
1661.862	n/a	WORD	830931	wordpools/wasnorm_wordpool.txt	LTP069	ltpFR	10	6	1	FELLOW	558	n/a	1	n/a	0	0	0	0	0.5869140625	0.422607421875	upper	../fonts/amplitud.ttf
1664.862	n/a	START	832431	n/a	LTP069	ltpFR	10	n/a	n/a	n/a	n/a	n/a	n/a	n/a	n/a	n/a	n/a	n/a	n/a	n/a	n/a	n/a
1665.78	n/a	PROB	832890	n/a	LTP069	ltpFR	10	n/a	n/a	n/a	n/a	n/a	n/a	20	3	8	9	n/a	n/a	n/a	n/a	n/a
1668.188	n/a	PROB	834094	n/a	LTP069	ltpFR	10	n/a	n/a	n/a	n/a	n/a	n/a	9	3	4	2	n/a	n/a	n/a	n/a	n/a
1669.904	n/a	PROB	834952	n/a	LTP069	ltpFR	10	n/a	n/a	n/a	n/a	n/a	n/a	10	4	3	4	n/a	n/a	n/a	n/a	n/a
1672.572	n/a	STOP	836286	n/a	LTP069	ltpFR	10	n/a	n/a	n/a	n/a	n/a	n/a	n/a	n/a	n/a	n/a	n/a	n/a	n/a	n/a	n/a
1674.746	n/a	REC_START	837373	n/a	LTP069	ltpFR	10	6	n/a	n/a	n/a	n/a	n/a	n/a	0	0	0	n/a	n/a	n/a	n/a	n/a
1677.162	n/a	REC_WORD	838581	wordpools/wasnorm_wordpool.txt	LTP069	ltpFR	10	6	1	MERMAID	887	n/a	1	n/a	0	0	0	n/a	n/a	n/a	n/a	n/a
1677.844	n/a	REC_WORD	838922	wordpools/wasnorm_wordpool.txt	LTP069	ltpFR	10	6	1	ASTRONAUT	51	n/a	1	n/a	0	0	0	n/a	n/a	n/a	n/a	n/a
1680.666	n/a	REC_WORD	840333	wordpools/wasnorm_wordpool.txt	LTP069	ltpFR	10	6	1	THIEF	1456	n/a	1	n/a	0	0	0	n/a	n/a	n/a	n/a	n/a
1681.474	n/a	REC_WORD	840737	wordpools/wasnorm_wordpool.txt	LTP069	ltpFR	10	6	1	SUSPECT	1415	n/a	1	n/a	0	0	0	n/a	n/a	n/a	n/a	n/a
1683.494	n/a	REC_WORD	841747	wordpools/wasnorm_wordpool.txt	LTP069	ltpFR	10	6	1	BRACELET	163	n/a	0	n/a	0	0	0	n/a	n/a	n/a	n/a	n/a
1684.576	n/a	REC_WORD	842288	wordpools/wasnorm_wordpool.txt	LTP069	ltpFR	10	6	1	RUBY	1214	n/a	0	n/a	0	0	0	n/a	n/a	n/a	n/a	n/a
1685.418	n/a	REC_WORD	842709	wordpools/wasnorm_wordpool.txt	LTP069	ltpFR	10	6	1	CLAY	320	n/a	0	n/a	0	0	0	n/a	n/a	n/a	n/a	n/a
1685.422	n/a	REC_WORD	842711	wordpools/wasnorm_wordpool.txt	LTP069	ltpFR	10	6	1	CLAY	320	n/a	0	n/a	0	0	0	n/a	n/a	n/a	n/a	n/a
1687.83	n/a	REC_WORD	843915	wordpools/wasnorm_wordpool.txt	LTP069	ltpFR	10	6	1	ARMY	39	n/a	1	n/a	0	0	0	n/a	n/a	n/a	n/a	n/a
1688.914	n/a	REC_WORD	844457	wordpools/wasnorm_wordpool.txt	LTP069	ltpFR	10	6	1	SLIME	1327	n/a	0	n/a	0	0	0	n/a	n/a	n/a	n/a	n/a
1691.2	n/a	REC_WORD	845600	wordpools/wasnorm_wordpool.txt	LTP069	ltpFR	10	6	1	HEN	703	n/a	1	n/a	0	0	0	n/a	n/a	n/a	n/a	n/a
1692.214	n/a	REC_WORD	846107	wordpools/wasnorm_wordpool.txt	LTP069	ltpFR	10	6	1	VISITOR	1573	n/a	1	n/a	0	0	0	n/a	n/a	n/a	n/a	n/a
1693.362	n/a	REC_WORD	846681	wordpools/wasnorm_wordpool.txt	LTP069	ltpFR	10	6	1	FELLOW	558	n/a	1	n/a	0	0	0	n/a	n/a	n/a	n/a	n/a
1696.498	n/a	REC_WORD	848249	wordpools/wasnorm_wordpool.txt	LTP069	ltpFR	10	6	1	PREDATOR	1120	n/a	1	n/a	0	0	0	n/a	n/a	n/a	n/a	n/a
1701.16	n/a	REC_WORD	850580	wordpools/wasnorm_wordpool.txt	LTP069	ltpFR	10	6	1	GALAXY	617	n/a	0	n/a	0	0	0	n/a	n/a	n/a	n/a	n/a
1713.568	n/a	REC_WORD	856784	wordpools/wasnorm_wordpool.txt	LTP069	ltpFR	10	6	1	YOKE	1632	n/a	0	n/a	0	0	0	n/a	n/a	n/a	n/a	n/a
1760.768	n/a	WORD	880384	wordpools/wasnorm_wordpool.txt	LTP069	ltpFR	10	7	1	CAPTAIN	239	n/a	1	n/a	0	0	0	0	0.5869140625	0.422607421875	upper	../fonts/amplitud.ttf
1764.91	n/a	WORD	882455	wordpools/wasnorm_wordpool.txt	LTP069	ltpFR	10	7	1	FIELD	562	n/a	0	n/a	0	0	0	0	0.5869140625	0.422607421875	upper	../fonts/amplitud.ttf
1769.06	n/a	WORD	884530	wordpools/wasnorm_wordpool.txt	LTP069	ltpFR	10	7	1	ATMOSPHERE	54	n/a	0	n/a	0	0	0	0	0.5869140625	0.422607421875	upper	../fonts/amplitud.ttf
1773.268	n/a	WORD	886634	wordpools/wasnorm_wordpool.txt	LTP069	ltpFR	10	7	0	LUNG	850	n/a	0	n/a	0	0	0	1	0.412841796875	0.57763671875	lower	../fonts/zerothre.ttf
1777.292	n/a	WORD	888646	wordpools/wasnorm_wordpool.txt	LTP069	ltpFR	10	7	0	GUARD	667	n/a	1	n/a	0	0	0	1	0.412841796875	0.57763671875	lower	../fonts/zerothre.ttf
1781.292	n/a	WORD	890646	wordpools/wasnorm_wordpool.txt	LTP069	ltpFR	10	7	1	ANCHOR	21	n/a	0	n/a	0	0	0	0	0.5869140625	0.422607421875	upper	../fonts/amplitud.ttf
1785.144	n/a	WORD	892572	wordpools/wasnorm_wordpool.txt	LTP069	ltpFR	10	7	1	STREAM	1392	n/a	0	n/a	0	0	0	0	0.5869140625	0.422607421875	upper	../fonts/amplitud.ttf
1789.168	n/a	WORD	894584	wordpools/wasnorm_wordpool.txt	LTP069	ltpFR	10	7	0	COW	393	n/a	1	n/a	0	0	0	1	0.412841796875	0.57763671875	lower	../fonts/zerothre.ttf
1793.342	n/a	WORD	896671	wordpools/wasnorm_wordpool.txt	LTP069	ltpFR	10	7	0	BADGE	68	n/a	0	n/a	0	0	0	1	0.412841796875	0.57763671875	lower	../fonts/zerothre.ttf
1797.35	n/a	WORD	898675	wordpools/wasnorm_wordpool.txt	LTP069	ltpFR	10	7	0	SPIT	1354	n/a	0	n/a	0	0	0	1	0.412841796875	0.57763671875	lower	../fonts/zerothre.ttf
1801.542	n/a	WORD	900771	wordpools/wasnorm_wordpool.txt	LTP069	ltpFR	10	7	0	PLUM	1090	n/a	0	n/a	0	0	0	1	0.412841796875	0.57763671875	lower	../fonts/zerothre.ttf
1805.726	n/a	WORD	902863	wordpools/wasnorm_wordpool.txt	LTP069	ltpFR	10	7	0	BAIT	70	n/a	0	n/a	0	0	0	1	0.412841796875	0.57763671875	lower	../fonts/zerothre.ttf
1809.834	n/a	WORD	904917	wordpools/wasnorm_wordpool.txt	LTP069	ltpFR	10	7	0	COD	340	n/a	1	n/a	0	0	0	1	0.412841796875	0.57763671875	lower	../fonts/zerothre.ttf
1813.726	n/a	WORD	906863	wordpools/wasnorm_wordpool.txt	LTP069	ltpFR	10	7	1	SANDWICH	1232	n/a	0	n/a	0	0	0	0	0.5869140625	0.422607421875	upper	../fonts/amplitud.ttf
1817.708	n/a	WORD	908854	wordpools/wasnorm_wordpool.txt	LTP069	ltpFR	10	7	1	CUSTARD	429	n/a	0	n/a	0	0	0	0	0.5869140625	0.422607421875	upper	../fonts/amplitud.ttf
1821.9	n/a	WORD	910950	wordpools/wasnorm_wordpool.txt	LTP069	ltpFR	10	7	1	ORCHESTRA	981	n/a	0	n/a	0	0	0	0	0.5869140625	0.422607421875	upper	../fonts/amplitud.ttf
1827.75	n/a	REC_START	913875	n/a	LTP069	ltpFR	10	7	n/a	n/a	n/a	n/a	n/a	n/a	0	0	0	n/a	n/a	n/a	n/a	n/a
1828.128	n/a	REC_WORD	914064	wordpools/wasnorm_wordpool.txt	LTP069	ltpFR	10	7	1	SANDWICH	1232	n/a	0	n/a	0	0	0	n/a	n/a	n/a	n/a	n/a
1829.058	n/a	REC_WORD	914529	wordpools/wasnorm_wordpool.txt	LTP069	ltpFR	10	7	1	ORCHESTRA	981	n/a	0	n/a	0	0	0	n/a	n/a	n/a	n/a	n/a
1831.42	n/a	REC_WORD	915710	wordpools/wasnorm_wordpool.txt	LTP069	ltpFR	10	7	1	CUSTARD	429	n/a	0	n/a	0	0	0	n/a	n/a	n/a	n/a	n/a
1832.512	n/a	REC_WORD	916256	wordpools/wasnorm_wordpool.txt	LTP069	ltpFR	10	7	0	PLUM	1090	n/a	0	n/a	0	0	0	n/a	n/a	n/a	n/a	n/a
1835.87	n/a	REC_WORD	917935	wordpools/wasnorm_wordpool.txt	LTP069	ltpFR	10	7	1	STREAM	1392	n/a	0	n/a	0	0	0	n/a	n/a	n/a	n/a	n/a
1837.112	n/a	REC_WORD	918556	wordpools/wasnorm_wordpool.txt	LTP069	ltpFR	10	7	0	COW	393	n/a	1	n/a	0	0	0	n/a	n/a	n/a	n/a	n/a
1840.462	n/a	REC_WORD	920231	wordpools/wasnorm_wordpool.txt	LTP069	ltpFR	10	7	1	ANCHOR	21	n/a	0	n/a	0	0	0	n/a	n/a	n/a	n/a	n/a
1842.404	n/a	REC_WORD	921202	wordpools/wasnorm_wordpool.txt	LTP069	ltpFR	10	7	1	CAPTAIN	239	n/a	1	n/a	0	0	0	n/a	n/a	n/a	n/a	n/a
1843.486	n/a	REC_WORD	921743	wordpools/wasnorm_wordpool.txt	LTP069	ltpFR	10	7	0	GUARD	667	n/a	1	n/a	0	0	0	n/a	n/a	n/a	n/a	n/a
1844.536	n/a	REC_WORD	922268	wordpools/wasnorm_wordpool.txt	LTP069	ltpFR	10	7	0	LUNG	850	n/a	0	n/a	0	0	0	n/a	n/a	n/a	n/a	n/a
1849.632	n/a	REC_WORD	924816	wordpools/wasnorm_wordpool.txt	LTP069	ltpFR	10	7	1	FIELD	562	n/a	0	n/a	0	0	0	n/a	n/a	n/a	n/a	n/a
1905.482	n/a	WORD	952741	wordpools/wasnorm_wordpool.txt	LTP069	ltpFR	10	8	0	TEENAGER	1444	n/a	1	n/a	0	0	0	1	0.412841796875	0.57763671875	lower	../fonts/zerothre.ttf
1909.582	n/a	WORD	954791	wordpools/wasnorm_wordpool.txt	LTP069	ltpFR	10	8	0	TANGERINE	1431	n/a	0	n/a	0	0	0	1	0.412841796875	0.57763671875	lower	../fonts/zerothre.ttf
1913.782	n/a	WORD	956891	wordpools/wasnorm_wordpool.txt	LTP069	ltpFR	10	8	0	ROOF	1205	n/a	1	n/a	0	0	0	1	0.412841796875	0.57763671875	lower	../fonts/zerothre.ttf
1917.814	n/a	WORD	958907	wordpools/wasnorm_wordpool.txt	LTP069	ltpFR	10	8	0	SEAL	1262	n/a	0	n/a	0	0	0	1	0.412841796875	0.57763671875	lower	../fonts/zerothre.ttf
1921.706	n/a	WORD	960853	wordpools/wasnorm_wordpool.txt	LTP069	ltpFR	10	8	0	RAFT	1159	n/a	1	n/a	0	0	0	1	0.412841796875	0.57763671875	lower	../fonts/zerothre.ttf
1925.73	n/a	WORD	962865	wordpools/wasnorm_wordpool.txt	LTP069	ltpFR	10	8	0	STUDENT	1395	n/a	1	n/a	0	0	0	1	0.412841796875	0.57763671875	lower	../fonts/zerothre.ttf
1929.696	n/a	WORD	964848	wordpools/wasnorm_wordpool.txt	LTP069	ltpFR	10	8	0	SCHOOL	1248	n/a	1	n/a	0	0	0	1	0.412841796875	0.57763671875	lower	../fonts/zerothre.ttf
1933.872	n/a	WORD	966936	wordpools/wasnorm_wordpool.txt	LTP069	ltpFR	10	8	0	PAGE	1001	n/a	0	n/a	0	0	0	1	0.412841796875	0.57763671875	lower	../fonts/zerothre.ttf
1937.84	n/a	WORD	968920	wordpools/wasnorm_wordpool.txt	LTP069	ltpFR	10	8	0	BROCCOLI	176	n/a	0	n/a	0	0	0	1	0.412841796875	0.57763671875	lower	../fonts/zerothre.ttf
1941.948	n/a	WORD	970974	wordpools/wasnorm_wordpool.txt	LTP069	ltpFR	10	8	0	OWL	992	n/a	1	n/a	0	0	0	1	0.412841796875	0.57763671875	lower	../fonts/zerothre.ttf
1946.046	n/a	WORD	973023	wordpools/wasnorm_wordpool.txt	LTP069	ltpFR	10	8	0	SUITE	1404	n/a	1	n/a	0	0	0	1	0.412841796875	0.57763671875	lower	../fonts/zerothre.ttf
1950.072	n/a	WORD	975036	wordpools/wasnorm_wordpool.txt	LTP069	ltpFR	10	8	0	CATHEDRAL	260	n/a	1	n/a	0	0	0	1	0.412841796875	0.57763671875	lower	../fonts/zerothre.ttf
1953.948	n/a	WORD	976974	wordpools/wasnorm_wordpool.txt	LTP069	ltpFR	10	8	0	TEMPLE	1448	n/a	1	n/a	0	0	0	1	0.412841796875	0.57763671875	lower	../fonts/zerothre.ttf
1957.764	n/a	WORD	978882	wordpools/wasnorm_wordpool.txt	LTP069	ltpFR	10	8	0	BASEMENT	94	n/a	1	n/a	0	0	0	1	0.412841796875	0.57763671875	lower	../fonts/zerothre.ttf
1961.588	n/a	WORD	980794	wordpools/wasnorm_wordpool.txt	LTP069	ltpFR	10	8	0	CITRUS	313	n/a	0	n/a	0	0	0	1	0.412841796875	0.57763671875	lower	../fonts/zerothre.ttf
1965.464	n/a	WORD	982732	wordpools/wasnorm_wordpool.txt	LTP069	ltpFR	10	8	0	PARENT	1013	n/a	1	n/a	0	0	0	1	0.412841796875	0.57763671875	lower	../fonts/zerothre.ttf
1971.196	n/a	REC_START	985598	n/a	LTP069	ltpFR	10	8	n/a	n/a	n/a	n/a	n/a	n/a	0	0	0	n/a	n/a	n/a	n/a	n/a
1972.292	n/a	REC_WORD	986146	wordpools/wasnorm_wordpool.txt	LTP069	ltpFR	10	8	0	PARENT	1013	n/a	1	n/a	0	0	0	n/a	n/a	n/a	n/a	n/a
1974.318	n/a	REC_WORD	987159	wordpools/wasnorm_wordpool.txt	LTP069	ltpFR	10	8	0	BASEMENT	94	n/a	1	n/a	0	0	0	n/a	n/a	n/a	n/a	n/a
1975.672	n/a	REC_WORD	987836	wordpools/wasnorm_wordpool.txt	LTP069	ltpFR	10	8	0	ROOF	1205	n/a	1	n/a	0	0	0	n/a	n/a	n/a	n/a	n/a
1977.942	n/a	REC_WORD	988971	wordpools/wasnorm_wordpool.txt	LTP069	ltpFR	10	8	0	BROCCOLI	176	n/a	0	n/a	0	0	0	n/a	n/a	n/a	n/a	n/a
1978.93	n/a	REC_WORD	989465	wordpools/wasnorm_wordpool.txt	LTP069	ltpFR	10	8	0	PAGE	1001	n/a	0	n/a	0	0	0	n/a	n/a	n/a	n/a	n/a
1981.348	n/a	REC_WORD	990674	wordpools/wasnorm_wordpool.txt	LTP069	ltpFR	10	8	0	STUDENT	1395	n/a	1	n/a	0	0	0	n/a	n/a	n/a	n/a	n/a
1982.788	n/a	REC_WORD	991394	wordpools/wasnorm_wordpool.txt	LTP069	ltpFR	10	8	0	TEENAGER	1444	n/a	1	n/a	0	0	0	n/a	n/a	n/a	n/a	n/a
1983.704	n/a	REC_WORD	991852	wordpools/wasnorm_wordpool.txt	LTP069	ltpFR	10	8	0	TANGERINE	1431	n/a	0	n/a	0	0	0	n/a	n/a	n/a	n/a	n/a
1984.644	n/a	REC_WORD	992322	wordpools/wasnorm_wordpool.txt	LTP069	ltpFR	10	8	0	CITRUS	313	n/a	0	n/a	0	0	0	n/a	n/a	n/a	n/a	n/a
1988.716	n/a	REC_WORD	994358	wordpools/wasnorm_wordpool.txt	LTP069	ltpFR	10	8	0	RAFT	1159	n/a	1	n/a	0	0	0	n/a	n/a	n/a	n/a	n/a
1991.544	n/a	REC_WORD	995772	wordpools/wasnorm_wordpool.txt	LTP069	ltpFR	10	8	0	SEAL	1262	n/a	0	n/a	0	0	0	n/a	n/a	n/a	n/a	n/a
2003.764	n/a	REC_WORD	1001882	wordpools/wasnorm_wordpool.txt	LTP069	ltpFR	10	8	0	OWL	992	n/a	1	n/a	0	0	0	n/a	n/a	n/a	n/a	n/a
2057.802	n/a	START	1028901	n/a	LTP069	ltpFR	10	n/a	n/a	n/a	n/a	n/a	n/a	n/a	n/a	n/a	n/a	n/a	n/a	n/a	n/a	n/a
2059.31	n/a	PROB	1029655	n/a	LTP069	ltpFR	10	n/a	n/a	n/a	n/a	n/a	n/a	19	9	7	3	n/a	n/a	n/a	n/a	n/a
2061.036	n/a	PROB	1030518	n/a	LTP069	ltpFR	10	n/a	n/a	n/a	n/a	n/a	n/a	19	9	9	1	n/a	n/a	n/a	n/a	n/a
2062.57	n/a	PROB	1031285	n/a	LTP069	ltpFR	10	n/a	n/a	n/a	n/a	n/a	n/a	14	8	1	5	n/a	n/a	n/a	n/a	n/a
2064.302	n/a	PROB	1032151	n/a	LTP069	ltpFR	10	n/a	n/a	n/a	n/a	n/a	n/a	14	1	7	6	n/a	n/a	n/a	n/a	n/a
2066.21	n/a	PROB	1033105	n/a	LTP069	ltpFR	10	n/a	n/a	n/a	n/a	n/a	n/a	15	6	5	4	n/a	n/a	n/a	n/a	n/a
2067.802	n/a	PROB	1033901	n/a	LTP069	ltpFR	10	n/a	n/a	n/a	n/a	n/a	n/a	12	2	2	8	n/a	n/a	n/a	n/a	n/a
2069.218	n/a	PROB	1034609	n/a	LTP069	ltpFR	10	n/a	n/a	n/a	n/a	n/a	n/a	14	4	9	1	n/a	n/a	n/a	n/a	n/a
2070.61	n/a	PROB	1035305	n/a	LTP069	ltpFR	10	n/a	n/a	n/a	n/a	n/a	n/a	15	1	8	6	n/a	n/a	n/a	n/a	n/a
2072.21	n/a	PROB	1036105	n/a	LTP069	ltpFR	10	n/a	n/a	n/a	n/a	n/a	n/a	15	6	1	8	n/a	n/a	n/a	n/a	n/a
2073.598	n/a	STOP	1036799	n/a	LTP069	ltpFR	10	n/a	n/a	n/a	n/a	n/a	n/a	n/a	n/a	n/a	n/a	n/a	n/a	n/a	n/a	n/a
2074.944	n/a	WORD	1037472	wordpools/wasnorm_wordpool.txt	LTP069	ltpFR	10	9	0	TOWEL	1489	n/a	1	n/a	0	0	0	1	0.412841796875	0.57763671875	lower	../fonts/zerothre.ttf
2077.952	n/a	START	1038976	n/a	LTP069	ltpFR	10	n/a	n/a	n/a	n/a	n/a	n/a	n/a	n/a	n/a	n/a	n/a	n/a	n/a	n/a	n/a
2078.96	n/a	PROB	1039480	n/a	LTP069	ltpFR	10	n/a	n/a	n/a	n/a	n/a	n/a	18	7	3	8	n/a	n/a	n/a	n/a	n/a
2080.56	n/a	PROB	1040280	n/a	LTP069	ltpFR	10	n/a	n/a	n/a	n/a	n/a	n/a	13	4	4	5	n/a	n/a	n/a	n/a	n/a
2082.794	n/a	PROB	1041397	n/a	LTP069	ltpFR	10	n/a	n/a	n/a	n/a	n/a	n/a	15	1	9	5	n/a	n/a	n/a	n/a	n/a
2084.378	n/a	PROB	1042189	n/a	LTP069	ltpFR	10	n/a	n/a	n/a	n/a	n/a	n/a	10	4	4	2	n/a	n/a	n/a	n/a	n/a
2086.41	n/a	PROB	1043205	n/a	LTP069	ltpFR	10	n/a	n/a	n/a	n/a	n/a	n/a	9	1	7	1	n/a	n/a	n/a	n/a	n/a
2088.076	n/a	PROB	1044038	n/a	LTP069	ltpFR	10	n/a	n/a	n/a	n/a	n/a	n/a	12	4	5	3	n/a	n/a	n/a	n/a	n/a
2089.852	n/a	PROB	1044926	n/a	LTP069	ltpFR	10	n/a	n/a	n/a	n/a	n/a	n/a	16	3	4	9	n/a	n/a	n/a	n/a	n/a
2093.952	n/a	STOP	1046976	n/a	LTP069	ltpFR	10	n/a	n/a	n/a	n/a	n/a	n/a	n/a	n/a	n/a	n/a	n/a	n/a	n/a	n/a	n/a
2094.952	n/a	WORD	1047476	wordpools/wasnorm_wordpool.txt	LTP069	ltpFR	10	9	0	HAIL	676	n/a	0	n/a	0	0	0	1	0.412841796875	0.57763671875	lower	../fonts/zerothre.ttf
2097.96	n/a	START	1048980	n/a	LTP069	ltpFR	10	n/a	n/a	n/a	n/a	n/a	n/a	n/a	n/a	n/a	n/a	n/a	n/a	n/a	n/a	n/a
2098.918	n/a	PROB	1049459	n/a	LTP069	ltpFR	10	n/a	n/a	n/a	n/a	n/a	n/a	18	9	2	7	n/a	n/a	n/a	n/a	n/a
2101.034	n/a	PROB	1050517	n/a	LTP069	ltpFR	10	n/a	n/a	n/a	n/a	n/a	n/a	6	2	2	2	n/a	n/a	n/a	n/a	n/a
2102.586	n/a	PROB	1051293	n/a	LTP069	ltpFR	10	n/a	n/a	n/a	n/a	n/a	n/a	9	2	1	6	n/a	n/a	n/a	n/a	n/a
2104.602	n/a	PROB	1052301	n/a	LTP069	ltpFR	10	n/a	n/a	n/a	n/a	n/a	n/a	11	8	1	2	n/a	n/a	n/a	n/a	n/a
2106.702	n/a	PROB	1053351	n/a	LTP069	ltpFR	10	n/a	n/a	n/a	n/a	n/a	n/a	11	4	1	5	n/a	n/a	n/a	n/a	n/a
2109.91	n/a	PROB	1054955	n/a	LTP069	ltpFR	10	n/a	n/a	n/a	n/a	n/a	n/a	9	2	4	3	n/a	n/a	n/a	n/a	n/a
2112.72	n/a	STOP	1056360	n/a	LTP069	ltpFR	10	n/a	n/a	n/a	n/a	n/a	n/a	n/a	n/a	n/a	n/a	n/a	n/a	n/a	n/a	n/a
2115.118	n/a	WORD	1057559	wordpools/wasnorm_wordpool.txt	LTP069	ltpFR	10	9	0	NUCLEUS	961	n/a	0	n/a	0	0	0	1	0.412841796875	0.57763671875	lower	../fonts/zerothre.ttf
2118.126	n/a	START	1059063	n/a	LTP069	ltpFR	10	n/a	n/a	n/a	n/a	n/a	n/a	n/a	n/a	n/a	n/a	n/a	n/a	n/a	n/a	n/a
2119.2	n/a	PROB	1059600	n/a	LTP069	ltpFR	10	n/a	n/a	n/a	n/a	n/a	n/a	25	7	9	9	n/a	n/a	n/a	n/a	n/a
2122.334	n/a	PROB	1061167	n/a	LTP069	ltpFR	10	n/a	n/a	n/a	n/a	n/a	n/a	19	5	8	6	n/a	n/a	n/a	n/a	n/a
2124.568	n/a	PROB	1062284	n/a	LTP069	ltpFR	10	n/a	n/a	n/a	n/a	n/a	n/a	18	6	9	3	n/a	n/a	n/a	n/a	n/a
2127.66	n/a	PROB	1063830	n/a	LTP069	ltpFR	10	n/a	n/a	n/a	n/a	n/a	n/a	15	3	8	4	n/a	n/a	n/a	n/a	n/a
2129.36	n/a	PROB	1064680	n/a	LTP069	ltpFR	10	n/a	n/a	n/a	n/a	n/a	n/a	12	3	5	4	n/a	n/a	n/a	n/a	n/a
2132.866	n/a	STOP	1066433	n/a	LTP069	ltpFR	10	n/a	n/a	n/a	n/a	n/a	n/a	n/a	n/a	n/a	n/a	n/a	n/a	n/a	n/a	n/a
2135.316	n/a	WORD	1067658	wordpools/wasnorm_wordpool.txt	LTP069	ltpFR	10	9	0	CLOTHES	327	n/a	1	n/a	0	0	0	1	0.412841796875	0.57763671875	lower	../fonts/zerothre.ttf
2138.326	n/a	START	1069163	n/a	LTP069	ltpFR	10	n/a	n/a	n/a	n/a	n/a	n/a	n/a	n/a	n/a	n/a	n/a	n/a	n/a	n/a	n/a
2139.45	n/a	PROB	1069725	n/a	LTP069	ltpFR	10	n/a	n/a	n/a	n/a	n/a	n/a	23	5	9	9	n/a	n/a	n/a	n/a	n/a
2143.95	n/a	PROB	1071975	n/a	LTP069	ltpFR	10	n/a	n/a	n/a	n/a	n/a	n/a	13	5	5	3	n/a	n/a	n/a	n/a	n/a
2145.408	n/a	PROB	1072704	n/a	LTP069	ltpFR	10	n/a	n/a	n/a	n/a	n/a	n/a	15	4	2	9	n/a	n/a	n/a	n/a	n/a
2147.492	n/a	PROB	1073746	n/a	LTP069	ltpFR	10	n/a	n/a	n/a	n/a	n/a	n/a	23	9	7	5	n/a	n/a	n/a	n/a	n/a
2151.076	n/a	PROB	1075538	n/a	LTP069	ltpFR	10	n/a	n/a	n/a	n/a	n/a	n/a	17	8	1	8	n/a	n/a	n/a	n/a	n/a
2153.65	n/a	STOP	1076825	n/a	LTP069	ltpFR	10	n/a	n/a	n/a	n/a	n/a	n/a	n/a	n/a	n/a	n/a	n/a	n/a	n/a	n/a	n/a
2155.158	n/a	WORD	1077579	wordpools/wasnorm_wordpool.txt	LTP069	ltpFR	10	9	0	SWEATER	1419	n/a	1	n/a	0	0	0	1	0.412841796875	0.57763671875	lower	../fonts/zerothre.ttf
2158.166	n/a	START	1079083	n/a	LTP069	ltpFR	10	n/a	n/a	n/a	n/a	n/a	n/a	n/a	n/a	n/a	n/a	n/a	n/a	n/a	n/a	n/a
2159.308	n/a	PROB	1079654	n/a	LTP069	ltpFR	10	n/a	n/a	n/a	n/a	n/a	n/a	8	3	4	1	n/a	n/a	n/a	n/a	n/a
2160.942	n/a	PROB	1080471	n/a	LTP069	ltpFR	10	n/a	n/a	n/a	n/a	n/a	n/a	18	5	9	4	n/a	n/a	n/a	n/a	n/a
2163.966	n/a	PROB	1081983	n/a	LTP069	ltpFR	10	n/a	n/a	n/a	n/a	n/a	n/a	17	5	5	7	n/a	n/a	n/a	n/a	n/a
2165.682	n/a	PROB	1082841	n/a	LTP069	ltpFR	10	n/a	n/a	n/a	n/a	n/a	n/a	15	7	7	1	n/a	n/a	n/a	n/a	n/a
2167.816	n/a	PROB	1083908	n/a	LTP069	ltpFR	10	n/a	n/a	n/a	n/a	n/a	n/a	18	1	9	8	n/a	n/a	n/a	n/a	n/a
2169.842	n/a	PROB	1084921	n/a	LTP069	ltpFR	10	n/a	n/a	n/a	n/a	n/a	n/a	18	8	4	6	n/a	n/a	n/a	n/a	n/a
2172.358	n/a	PROB	1086179	n/a	LTP069	ltpFR	10	n/a	n/a	n/a	n/a	n/a	n/a	18	9	1	8	n/a	n/a	n/a	n/a	n/a
2173.78	n/a	STOP	1086890	n/a	LTP069	ltpFR	10	n/a	n/a	n/a	n/a	n/a	n/a	n/a	n/a	n/a	n/a	n/a	n/a	n/a	n/a	n/a
2175.224	n/a	WORD	1087612	wordpools/wasnorm_wordpool.txt	LTP069	ltpFR	10	9	1	CHIME	300	n/a	0	n/a	0	0	0	0	0.5869140625	0.422607421875	upper	../fonts/amplitud.ttf
2178.234	n/a	START	1089117	n/a	LTP069	ltpFR	10	n/a	n/a	n/a	n/a	n/a	n/a	n/a	n/a	n/a	n/a	n/a	n/a	n/a	n/a	n/a
2179.04	n/a	PROB	1089520	n/a	LTP069	ltpFR	10	n/a	n/a	n/a	n/a	n/a	n/a	11	2	4	5	n/a	n/a	n/a	n/a	n/a
2181.15	n/a	PROB	1090575	n/a	LTP069	ltpFR	10	n/a	n/a	n/a	n/a	n/a	n/a	19	5	9	5	n/a	n/a	n/a	n/a	n/a
2182.608	n/a	PROB	1091304	n/a	LTP069	ltpFR	10	n/a	n/a	n/a	n/a	n/a	n/a	19	9	4	6	n/a	n/a	n/a	n/a	n/a
2184.532	n/a	PROB	1092266	n/a	LTP069	ltpFR	10	n/a	n/a	n/a	n/a	n/a	n/a	12	1	8	3	n/a	n/a	n/a	n/a	n/a
2187.882	n/a	PROB	1093941	n/a	LTP069	ltpFR	10	n/a	n/a	n/a	n/a	n/a	n/a	20	6	6	8	n/a	n/a	n/a	n/a	n/a
2190.192	n/a	PROB	1095096	n/a	LTP069	ltpFR	10	n/a	n/a	n/a	n/a	n/a	n/a	18	1	9	8	n/a	n/a	n/a	n/a	n/a
2191.84	n/a	PROB	1095920	n/a	LTP069	ltpFR	10	n/a	n/a	n/a	n/a	n/a	n/a	16	6	3	7	n/a	n/a	n/a	n/a	n/a
2193.668	n/a	STOP	1096834	n/a	LTP069	ltpFR	10	n/a	n/a	n/a	n/a	n/a	n/a	n/a	n/a	n/a	n/a	n/a	n/a	n/a	n/a	n/a
2195.066	n/a	WORD	1097533	wordpools/wasnorm_wordpool.txt	LTP069	ltpFR	10	9	1	SUITCASE	1403	n/a	0	n/a	0	0	0	0	0.5869140625	0.422607421875	upper	../fonts/amplitud.ttf
2198.074	n/a	START	1099037	n/a	LTP069	ltpFR	10	n/a	n/a	n/a	n/a	n/a	n/a	n/a	n/a	n/a	n/a	n/a	n/a	n/a	n/a	n/a
2199.216	n/a	PROB	1099608	n/a	LTP069	ltpFR	10	n/a	n/a	n/a	n/a	n/a	n/a	9	2	4	3	n/a	n/a	n/a	n/a	n/a
2201.898	n/a	PROB	1100949	n/a	LTP069	ltpFR	10	n/a	n/a	n/a	n/a	n/a	n/a	9	1	4	4	n/a	n/a	n/a	n/a	n/a
2203.998	n/a	PROB	1101999	n/a	LTP069	ltpFR	10	n/a	n/a	n/a	n/a	n/a	n/a	17	2	9	6	n/a	n/a	n/a	n/a	n/a
2205.864	n/a	PROB	1102932	n/a	LTP069	ltpFR	10	n/a	n/a	n/a	n/a	n/a	n/a	14	4	3	7	n/a	n/a	n/a	n/a	n/a
2207.49	n/a	PROB	1103745	n/a	LTP069	ltpFR	10	n/a	n/a	n/a	n/a	n/a	n/a	13	2	7	4	n/a	n/a	n/a	n/a	n/a
2209.29	n/a	PROB	1104645	n/a	LTP069	ltpFR	10	n/a	n/a	n/a	n/a	n/a	n/a	26	9	9	8	n/a	n/a	n/a	n/a	n/a
2214.076	n/a	STOP	1107038	n/a	LTP069	ltpFR	10	n/a	n/a	n/a	n/a	n/a	n/a	n/a	n/a	n/a	n/a	n/a	n/a	n/a	n/a	n/a
2214.956	n/a	WORD	1107478	wordpools/wasnorm_wordpool.txt	LTP069	ltpFR	10	9	1	LEOPARD	812	n/a	1	n/a	0	0	0	0	0.5869140625	0.422607421875	upper	../fonts/amplitud.ttf
2217.958	n/a	START	1108979	n/a	LTP069	ltpFR	10	n/a	n/a	n/a	n/a	n/a	n/a	n/a	n/a	n/a	n/a	n/a	n/a	n/a	n/a	n/a
2218.99	n/a	PROB	1109495	n/a	LTP069	ltpFR	10	n/a	n/a	n/a	n/a	n/a	n/a	7	2	2	3	n/a	n/a	n/a	n/a	n/a
2220.964	n/a	PROB	1110482	n/a	LTP069	ltpFR	10	n/a	n/a	n/a	n/a	n/a	n/a	17	9	3	5	n/a	n/a	n/a	n/a	n/a
2223.072	n/a	PROB	1111536	n/a	LTP069	ltpFR	10	n/a	n/a	n/a	n/a	n/a	n/a	18	8	5	5	n/a	n/a	n/a	n/a	n/a
2229.048	n/a	PROB	1114524	n/a	LTP069	ltpFR	10	n/a	n/a	n/a	n/a	n/a	n/a	12	5	5	2	n/a	n/a	n/a	n/a	n/a
2230.54	n/a	PROB	1115270	n/a	LTP069	ltpFR	10	n/a	n/a	n/a	n/a	n/a	n/a	17	7	1	8	n/a	n/a	n/a	n/a	n/a
2232.55	n/a	STOP	1116275	n/a	LTP069	ltpFR	10	n/a	n/a	n/a	n/a	n/a	n/a	n/a	n/a	n/a	n/a	n/a	n/a	n/a	n/a	n/a
2235.04	n/a	WORD	1117520	wordpools/wasnorm_wordpool.txt	LTP069	ltpFR	10	9	0	MARS	873	n/a	1	n/a	0	0	0	1	0.412841796875	0.57763671875	lower	../fonts/zerothre.ttf
2238.04	n/a	START	1119020	n/a	LTP069	ltpFR	10	n/a	n/a	n/a	n/a	n/a	n/a	n/a	n/a	n/a	n/a	n/a	n/a	n/a	n/a	n/a
2238.932	n/a	PROB	1119466	n/a	LTP069	ltpFR	10	n/a	n/a	n/a	n/a	n/a	n/a	9	1	2	6	n/a	n/a	n/a	n/a	n/a
2240.914	n/a	PROB	1120457	n/a	LTP069	ltpFR	10	n/a	n/a	n/a	n/a	n/a	n/a	6	1	3	2	n/a	n/a	n/a	n/a	n/a
2244.264	n/a	PROB	1122132	n/a	LTP069	ltpFR	10	n/a	n/a	n/a	n/a	n/a	n/a	10	2	1	7	n/a	n/a	n/a	n/a	n/a
2246.006	n/a	PROB	1123003	n/a	LTP069	ltpFR	10	n/a	n/a	n/a	n/a	n/a	n/a	21	6	9	6	n/a	n/a	n/a	n/a	n/a
2248.898	n/a	PROB	1124449	n/a	LTP069	ltpFR	10	n/a	n/a	n/a	n/a	n/a	n/a	13	5	5	3	n/a	n/a	n/a	n/a	n/a
2250.222	n/a	PROB	1125111	n/a	LTP069	ltpFR	10	n/a	n/a	n/a	n/a	n/a	n/a	18	8	2	8	n/a	n/a	n/a	n/a	n/a
2251.546	n/a	PROB	1125773	n/a	LTP069	ltpFR	10	n/a	n/a	n/a	n/a	n/a	n/a	18	7	9	2	n/a	n/a	n/a	n/a	n/a
2253.504	n/a	STOP	1126752	n/a	LTP069	ltpFR	10	n/a	n/a	n/a	n/a	n/a	n/a	n/a	n/a	n/a	n/a	n/a	n/a	n/a	n/a	n/a
2255.014	n/a	WORD	1127507	wordpools/wasnorm_wordpool.txt	LTP069	ltpFR	10	9	0	CATTLE	261	n/a	1	n/a	0	0	0	1	0.412841796875	0.57763671875	lower	../fonts/zerothre.ttf
2258.022	n/a	START	1129011	n/a	LTP069	ltpFR	10	n/a	n/a	n/a	n/a	n/a	n/a	n/a	n/a	n/a	n/a	n/a	n/a	n/a	n/a	n/a
2258.922	n/a	PROB	1129461	n/a	LTP069	ltpFR	10	n/a	n/a	n/a	n/a	n/a	n/a	15	9	3	3	n/a	n/a	n/a	n/a	n/a
2262.63	n/a	PROB	1131315	n/a	LTP069	ltpFR	10	n/a	n/a	n/a	n/a	n/a	n/a	13	6	2	5	n/a	n/a	n/a	n/a	n/a
2264.588	n/a	PROB	1132294	n/a	LTP069	ltpFR	10	n/a	n/a	n/a	n/a	n/a	n/a	5	3	1	1	n/a	n/a	n/a	n/a	n/a
2265.888	n/a	PROB	1132944	n/a	LTP069	ltpFR	10	n/a	n/a	n/a	n/a	n/a	n/a	12	2	9	1	n/a	n/a	n/a	n/a	n/a
2267.422	n/a	PROB	1133711	n/a	LTP069	ltpFR	10	n/a	n/a	n/a	n/a	n/a	n/a	15	2	9	4	n/a	n/a	n/a	n/a	n/a
2269.646	n/a	PROB	1134823	n/a	LTP069	ltpFR	10	n/a	n/a	n/a	n/a	n/a	n/a	17	2	7	8	n/a	n/a	n/a	n/a	n/a
2271.646	n/a	PROB	1135823	n/a	LTP069	ltpFR	10	n/a	n/a	n/a	n/a	n/a	n/a	15	1	7	7	n/a	n/a	n/a	n/a	n/a
2273.368	n/a	STOP	1136684	n/a	LTP069	ltpFR	10	n/a	n/a	n/a	n/a	n/a	n/a	n/a	n/a	n/a	n/a	n/a	n/a	n/a	n/a	n/a
2274.88	n/a	WORD	1137440	wordpools/wasnorm_wordpool.txt	LTP069	ltpFR	10	9	0	VEAL	1551	n/a	1	n/a	0	0	0	1	0.412841796875	0.57763671875	lower	../fonts/zerothre.ttf
2277.89	n/a	START	1138945	n/a	LTP069	ltpFR	10	n/a	n/a	n/a	n/a	n/a	n/a	n/a	n/a	n/a	n/a	n/a	n/a	n/a	n/a	n/a
2278.988	n/a	PROB	1139494	n/a	LTP069	ltpFR	10	n/a	n/a	n/a	n/a	n/a	n/a	9	1	7	1	n/a	n/a	n/a	n/a	n/a
2280.414	n/a	PROB	1140207	n/a	LTP069	ltpFR	10	n/a	n/a	n/a	n/a	n/a	n/a	23	7	8	8	n/a	n/a	n/a	n/a	n/a
2283.614	n/a	PROB	1141807	n/a	LTP069	ltpFR	10	n/a	n/a	n/a	n/a	n/a	n/a	9	2	2	4	n/a	n/a	n/a	n/a	n/a
2285.964	n/a	PROB	1142982	n/a	LTP069	ltpFR	10	n/a	n/a	n/a	n/a	n/a	n/a	10	5	2	3	n/a	n/a	n/a	n/a	n/a
2288.938	n/a	PROB	1144469	n/a	LTP069	ltpFR	10	n/a	n/a	n/a	n/a	n/a	n/a	15	8	6	1	n/a	n/a	n/a	n/a	n/a
2293.89	n/a	STOP	1146945	n/a	LTP069	ltpFR	10	n/a	n/a	n/a	n/a	n/a	n/a	n/a	n/a	n/a	n/a	n/a	n/a	n/a	n/a	n/a
2294.964	n/a	WORD	1147482	wordpools/wasnorm_wordpool.txt	LTP069	ltpFR	10	9	1	BELL	118	n/a	0	n/a	0	0	0	0	0.5869140625	0.422607421875	upper	../fonts/amplitud.ttf
2297.972	n/a	START	1148986	n/a	LTP069	ltpFR	10	n/a	n/a	n/a	n/a	n/a	n/a	n/a	n/a	n/a	n/a	n/a	n/a	n/a	n/a	n/a
2298.854	n/a	PROB	1149427	n/a	LTP069	ltpFR	10	n/a	n/a	n/a	n/a	n/a	n/a	19	8	2	9	n/a	n/a	n/a	n/a	n/a
2300.262	n/a	PROB	1150131	n/a	LTP069	ltpFR	10	n/a	n/a	n/a	n/a	n/a	n/a	12	6	2	4	n/a	n/a	n/a	n/a	n/a
2301.904	n/a	PROB	1150952	n/a	LTP069	ltpFR	10	n/a	n/a	n/a	n/a	n/a	n/a	14	3	2	9	n/a	n/a	n/a	n/a	n/a
2304.762	n/a	PROB	1152381	n/a	LTP069	ltpFR	10	n/a	n/a	n/a	n/a	n/a	n/a	6	3	1	2	n/a	n/a	n/a	n/a	n/a
2307.93	n/a	PROB	1153965	n/a	LTP069	ltpFR	10	n/a	n/a	n/a	n/a	n/a	n/a	24	9	8	7	n/a	n/a	n/a	n/a	n/a
2310.302	n/a	PROB	1155151	n/a	LTP069	ltpFR	10	n/a	n/a	n/a	n/a	n/a	n/a	16	9	6	1	n/a	n/a	n/a	n/a	n/a
2313.972	n/a	STOP	1156986	n/a	LTP069	ltpFR	10	n/a	n/a	n/a	n/a	n/a	n/a	n/a	n/a	n/a	n/a	n/a	n/a	n/a	n/a	n/a
2314.896	n/a	WORD	1157448	wordpools/wasnorm_wordpool.txt	LTP069	ltpFR	10	9	1	FROST	609	n/a	0	n/a	0	0	0	0	0.5869140625	0.422607421875	upper	../fonts/amplitud.ttf
2317.904	n/a	START	1158952	n/a	LTP069	ltpFR	10	n/a	n/a	n/a	n/a	n/a	n/a	n/a	n/a	n/a	n/a	n/a	n/a	n/a	n/a	n/a
2318.846	n/a	PROB	1159423	n/a	LTP069	ltpFR	10	n/a	n/a	n/a	n/a	n/a	n/a	10	1	8	1	n/a	n/a	n/a	n/a	n/a
2320.294	n/a	PROB	1160147	n/a	LTP069	ltpFR	10	n/a	n/a	n/a	n/a	n/a	n/a	13	7	1	5	n/a	n/a	n/a	n/a	n/a
2322.396	n/a	PROB	1161198	n/a	LTP069	ltpFR	10	n/a	n/a	n/a	n/a	n/a	n/a	15	6	6	3	n/a	n/a	n/a	n/a	n/a
2324.888	n/a	PROB	1162444	n/a	LTP069	ltpFR	10	n/a	n/a	n/a	n/a	n/a	n/a	7	2	3	2	n/a	n/a	n/a	n/a	n/a
2326.988	n/a	PROB	1163494	n/a	LTP069	ltpFR	10	n/a	n/a	n/a	n/a	n/a	n/a	9	2	6	1	n/a	n/a	n/a	n/a	n/a
2329.462	n/a	PROB	1164731	n/a	LTP069	ltpFR	10	n/a	n/a	n/a	n/a	n/a	n/a	9	7	1	2	n/a	n/a	n/a	n/a	n/a
2333.904	n/a	STOP	1166952	n/a	LTP069	ltpFR	10	n/a	n/a	n/a	n/a	n/a	n/a	n/a	n/a	n/a	n/a	n/a	n/a	n/a	n/a	n/a
2334.862	n/a	WORD	1167431	wordpools/wasnorm_wordpool.txt	LTP069	ltpFR	10	9	1	POSSUM	1112	n/a	1	n/a	0	0	0	0	0.5869140625	0.422607421875	upper	../fonts/amplitud.ttf
2337.872	n/a	START	1168936	n/a	LTP069	ltpFR	10	n/a	n/a	n/a	n/a	n/a	n/a	n/a	n/a	n/a	n/a	n/a	n/a	n/a	n/a	n/a
2339.038	n/a	PROB	1169519	n/a	LTP069	ltpFR	10	n/a	n/a	n/a	n/a	n/a	n/a	21	9	6	6	n/a	n/a	n/a	n/a	n/a
2341.12	n/a	PROB	1170560	n/a	LTP069	ltpFR	10	n/a	n/a	n/a	n/a	n/a	n/a	10	1	3	6	n/a	n/a	n/a	n/a	n/a
2342.954	n/a	PROB	1171477	n/a	LTP069	ltpFR	10	n/a	n/a	n/a	n/a	n/a	n/a	11	3	4	4	n/a	n/a	n/a	n/a	n/a
2344.97	n/a	PROB	1172485	n/a	LTP069	ltpFR	10	n/a	n/a	n/a	n/a	n/a	n/a	21	8	4	9	n/a	n/a	n/a	n/a	n/a
2350.636	n/a	PROB	1175318	n/a	LTP069	ltpFR	10	n/a	n/a	n/a	n/a	n/a	n/a	18	9	1	8	n/a	n/a	n/a	n/a	n/a
2351.994	n/a	PROB	1175997	n/a	LTP069	ltpFR	10	n/a	n/a	n/a	n/a	n/a	n/a	3	1	1	1	n/a	n/a	n/a	n/a	n/a
2353.012	n/a	STOP	1176506	n/a	LTP069	ltpFR	10	n/a	n/a	n/a	n/a	n/a	n/a	n/a	n/a	n/a	n/a	n/a	n/a	n/a	n/a	n/a
2354.852	n/a	WORD	1177426	wordpools/wasnorm_wordpool.txt	LTP069	ltpFR	10	9	1	ALLIGATOR	16	n/a	1	n/a	0	0	0	0	0.5869140625	0.422607421875	upper	../fonts/amplitud.ttf
2357.854	n/a	START	1178927	n/a	LTP069	ltpFR	10	n/a	n/a	n/a	n/a	n/a	n/a	n/a	n/a	n/a	n/a	n/a	n/a	n/a	n/a	n/a
2358.928	n/a	PROB	1179464	n/a	LTP069	ltpFR	10	n/a	n/a	n/a	n/a	n/a	n/a	16	2	8	6	n/a	n/a	n/a	n/a	n/a
2360.236	n/a	PROB	1180118	n/a	LTP069	ltpFR	10	n/a	n/a	n/a	n/a	n/a	n/a	14	1	8	5	n/a	n/a	n/a	n/a	n/a
2361.904	n/a	PROB	1180952	n/a	LTP069	ltpFR	10	n/a	n/a	n/a	n/a	n/a	n/a	16	5	8	3	n/a	n/a	n/a	n/a	n/a
2364.354	n/a	PROB	1182177	n/a	LTP069	ltpFR	10	n/a	n/a	n/a	n/a	n/a	n/a	7	2	4	1	n/a	n/a	n/a	n/a	n/a
2366.152	n/a	PROB	1183076	n/a	LTP069	ltpFR	10	n/a	n/a	n/a	n/a	n/a	n/a	18	7	6	5	n/a	n/a	n/a	n/a	n/a
2368.17	n/a	PROB	1184085	n/a	LTP069	ltpFR	10	n/a	n/a	n/a	n/a	n/a	n/a	13	1	8	4	n/a	n/a	n/a	n/a	n/a
2370.236	n/a	PROB	1185118	n/a	LTP069	ltpFR	10	n/a	n/a	n/a	n/a	n/a	n/a	13	2	9	2	n/a	n/a	n/a	n/a	n/a
2372.356	n/a	STOP	1186178	n/a	LTP069	ltpFR	10	n/a	n/a	n/a	n/a	n/a	n/a	n/a	n/a	n/a	n/a	n/a	n/a	n/a	n/a	n/a
2375.002	n/a	WORD	1187501	wordpools/wasnorm_wordpool.txt	LTP069	ltpFR	10	9	1	MINER	896	n/a	1	n/a	0	0	0	0	0.5869140625	0.422607421875	upper	../fonts/amplitud.ttf
2378.01	n/a	START	1189005	n/a	LTP069	ltpFR	10	n/a	n/a	n/a	n/a	n/a	n/a	n/a	n/a	n/a	n/a	n/a	n/a	n/a	n/a	n/a
2378.894	n/a	PROB	1189447	n/a	LTP069	ltpFR	10	n/a	n/a	n/a	n/a	n/a	n/a	15	4	3	8	n/a	n/a	n/a	n/a	n/a
2380.728	n/a	PROB	1190364	n/a	LTP069	ltpFR	10	n/a	n/a	n/a	n/a	n/a	n/a	19	9	5	5	n/a	n/a	n/a	n/a	n/a
2382.044	n/a	PROB	1191022	n/a	LTP069	ltpFR	10	n/a	n/a	n/a	n/a	n/a	n/a	21	8	7	6	n/a	n/a	n/a	n/a	n/a
2384.302	n/a	PROB	1192151	n/a	LTP069	ltpFR	10	n/a	n/a	n/a	n/a	n/a	n/a	16	5	3	8	n/a	n/a	n/a	n/a	n/a
2385.96	n/a	PROB	1192980	n/a	LTP069	ltpFR	10	n/a	n/a	n/a	n/a	n/a	n/a	19	2	9	8	n/a	n/a	n/a	n/a	n/a
2388.478	n/a	PROB	1194239	n/a	LTP069	ltpFR	10	n/a	n/a	n/a	n/a	n/a	n/a	16	2	5	9	n/a	n/a	n/a	n/a	n/a
2390.31	n/a	PROB	1195155	n/a	LTP069	ltpFR	10	n/a	n/a	n/a	n/a	n/a	n/a	20	9	8	3	n/a	n/a	n/a	n/a	n/a
2393.558	n/a	STOP	1196779	n/a	LTP069	ltpFR	10	n/a	n/a	n/a	n/a	n/a	n/a	n/a	n/a	n/a	n/a	n/a	n/a	n/a	n/a	n/a
2395.87	n/a	REC_START	1197935	n/a	LTP069	ltpFR	10	9	n/a	n/a	n/a	n/a	n/a	n/a	0	0	0	n/a	n/a	n/a	n/a	n/a
2396.558	n/a	REC_WORD	1198279	wordpools/wasnorm_wordpool.txt	LTP069	ltpFR	10	9	1	POSSUM	1112	n/a	1	n/a	0	0	0	n/a	n/a	n/a	n/a	n/a
2397.428	n/a	REC_WORD	1198714	wordpools/wasnorm_wordpool.txt	LTP069	ltpFR	10	9	1	ALLIGATOR	16	n/a	1	n/a	0	0	0	n/a	n/a	n/a	n/a	n/a
2400.332	n/a	REC_WORD	1200166	wordpools/wasnorm_wordpool.txt	LTP069	ltpFR	10	9	0	VEAL	1551	n/a	1	n/a	0	0	0	n/a	n/a	n/a	n/a	n/a
2404.604	n/a	REC_WORD	1202302	wordpools/wasnorm_wordpool.txt	LTP069	ltpFR	10	9	1	MINER	896	n/a	1	n/a	0	0	0	n/a	n/a	n/a	n/a	n/a
2410.742	n/a	REC_WORD	1205371	wordpools/wasnorm_wordpool.txt	LTP069	ltpFR	10	9	1	CHIME	300	n/a	0	n/a	0	0	0	n/a	n/a	n/a	n/a	n/a
2412.114	n/a	REC_WORD	1206057	wordpools/wasnorm_wordpool.txt	LTP069	ltpFR	10	9	1	BELL	118	n/a	0	n/a	0	0	0	n/a	n/a	n/a	n/a	n/a
2419.99	n/a	REC_WORD	1209995	wordpools/wasnorm_wordpool.txt	LTP069	ltpFR	10	9	0	CLOTHES	327	n/a	1	n/a	0	0	0	n/a	n/a	n/a	n/a	n/a
2441.108	n/a	REC_WORD	1220554	wordpools/wasnorm_wordpool.txt	LTP069	ltpFR	10	9	1	LEOPARD	812	n/a	1	n/a	0	0	0	n/a	n/a	n/a	n/a	n/a
2480.732	n/a	WORD	1240366	wordpools/wasnorm_wordpool.txt	LTP069	ltpFR	10	10	1	CORPORATION	382	n/a	1	n/a	0	0	0	0	0.5869140625	0.422607421875	upper	../fonts/amplitud.ttf
2484.892	n/a	WORD	1242446	wordpools/wasnorm_wordpool.txt	LTP069	ltpFR	10	10	1	STOCKING	1383	n/a	0	n/a	0	0	0	0	0.5869140625	0.422607421875	upper	../fonts/amplitud.ttf
2488.726	n/a	WORD	1244363	wordpools/wasnorm_wordpool.txt	LTP069	ltpFR	10	10	0	SHRIMP	1297	n/a	0	n/a	0	0	0	1	0.412841796875	0.57763671875	lower	../fonts/zerothre.ttf
2492.684	n/a	WORD	1246342	wordpools/wasnorm_wordpool.txt	LTP069	ltpFR	10	10	0	PICNIC	1060	n/a	1	n/a	0	0	0	1	0.412841796875	0.57763671875	lower	../fonts/zerothre.ttf
2496.716	n/a	WORD	1248358	wordpools/wasnorm_wordpool.txt	LTP069	ltpFR	10	10	0	DOG	480	n/a	1	n/a	0	0	0	1	0.412841796875	0.57763671875	lower	../fonts/zerothre.ttf
2500.674	n/a	WORD	1250337	wordpools/wasnorm_wordpool.txt	LTP069	ltpFR	10	10	0	BARK	87	n/a	1	n/a	0	0	0	1	0.412841796875	0.57763671875	lower	../fonts/zerothre.ttf
2504.782	n/a	WORD	1252391	wordpools/wasnorm_wordpool.txt	LTP069	ltpFR	10	10	0	AUNT	60	n/a	1	n/a	0	0	0	1	0.412841796875	0.57763671875	lower	../fonts/zerothre.ttf
2508.806	n/a	WORD	1254403	wordpools/wasnorm_wordpool.txt	LTP069	ltpFR	10	10	0	SCREEN	1253	n/a	1	n/a	0	0	0	1	0.412841796875	0.57763671875	lower	../fonts/zerothre.ttf
2512.65	n/a	WORD	1256325	wordpools/wasnorm_wordpool.txt	LTP069	ltpFR	10	10	1	POISON	1096	n/a	0	n/a	0	0	0	0	0.5869140625	0.422607421875	upper	../fonts/amplitud.ttf
2516.632	n/a	WORD	1258316	wordpools/wasnorm_wordpool.txt	LTP069	ltpFR	10	10	1	SERGEANT	1269	n/a	1	n/a	0	0	0	0	0.5869140625	0.422607421875	upper	../fonts/amplitud.ttf
2520.658	n/a	WORD	1260329	wordpools/wasnorm_wordpool.txt	LTP069	ltpFR	10	10	1	SLEIGH	1325	n/a	0	n/a	0	0	0	0	0.5869140625	0.422607421875	upper	../fonts/amplitud.ttf
2524.69	n/a	WORD	1262345	wordpools/wasnorm_wordpool.txt	LTP069	ltpFR	10	10	0	COMPUTER	359	n/a	1	n/a	0	0	0	1	0.412841796875	0.57763671875	lower	../fonts/zerothre.ttf
2528.514	n/a	WORD	1264257	wordpools/wasnorm_wordpool.txt	LTP069	ltpFR	10	10	0	TOOL	1480	n/a	0	n/a	0	0	0	1	0.412841796875	0.57763671875	lower	../fonts/zerothre.ttf
2532.348	n/a	WORD	1266174	wordpools/wasnorm_wordpool.txt	LTP069	ltpFR	10	10	1	PERSONNEL	1053	n/a	1	n/a	0	0	0	0	0.5869140625	0.422607421875	upper	../fonts/amplitud.ttf
2536.548	n/a	WORD	1268274	wordpools/wasnorm_wordpool.txt	LTP069	ltpFR	10	10	1	PEARL	1034	n/a	0	n/a	0	0	0	0	0.5869140625	0.422607421875	upper	../fonts/amplitud.ttf
2540.614	n/a	WORD	1270307	wordpools/wasnorm_wordpool.txt	LTP069	ltpFR	10	10	1	NECKLACE	940	n/a	0	n/a	0	0	0	0	0.5869140625	0.422607421875	upper	../fonts/amplitud.ttf
2543.624	n/a	START	1271812	n/a	LTP069	ltpFR	10	n/a	n/a	n/a	n/a	n/a	n/a	n/a	n/a	n/a	n/a	n/a	n/a	n/a	n/a	n/a
2544.822	n/a	PROB	1272411	n/a	LTP069	ltpFR	10	n/a	n/a	n/a	n/a	n/a	n/a	12	3	7	2	n/a	n/a	n/a	n/a	n/a
2546.632	n/a	PROB	1273316	n/a	LTP069	ltpFR	10	n/a	n/a	n/a	n/a	n/a	n/a	21	8	5	8	n/a	n/a	n/a	n/a	n/a
2549.122	n/a	PROB	1274561	n/a	LTP069	ltpFR	10	n/a	n/a	n/a	n/a	n/a	n/a	20	5	8	7	n/a	n/a	n/a	n/a	n/a
2551.614	n/a	PROB	1275807	n/a	LTP069	ltpFR	10	n/a	n/a	n/a	n/a	n/a	n/a	16	4	4	8	n/a	n/a	n/a	n/a	n/a
2553.756	n/a	PROB	1276878	n/a	LTP069	ltpFR	10	n/a	n/a	n/a	n/a	n/a	n/a	10	3	4	3	n/a	n/a	n/a	n/a	n/a
2556.698	n/a	PROB	1278349	n/a	LTP069	ltpFR	10	n/a	n/a	n/a	n/a	n/a	n/a	24	7	8	9	n/a	n/a	n/a	n/a	n/a
2558.638	n/a	STOP	1279319	n/a	LTP069	ltpFR	10	n/a	n/a	n/a	n/a	n/a	n/a	n/a	n/a	n/a	n/a	n/a	n/a	n/a	n/a	n/a
2561.456	n/a	REC_START	1280728	n/a	LTP069	ltpFR	10	10	n/a	n/a	n/a	n/a	n/a	n/a	0	0	0	n/a	n/a	n/a	n/a	n/a
2562.374	n/a	REC_WORD	1281187	wordpools/wasnorm_wordpool.txt	LTP069	ltpFR	10	10	1	CORPORATION	382	n/a	1	n/a	0	0	0	n/a	n/a	n/a	n/a	n/a
2563.434	n/a	REC_WORD	1281717	wordpools/wasnorm_wordpool.txt	LTP069	ltpFR	10	10	1	STOCKING	1383	n/a	0	n/a	0	0	0	n/a	n/a	n/a	n/a	n/a
2565.296	n/a	REC_WORD	1282648	wordpools/wasnorm_wordpool.txt	LTP069	ltpFR	10	10	0	SHRIMP	1297	n/a	0	n/a	0	0	0	n/a	n/a	n/a	n/a	n/a
2568.608	n/a	REC_WORD	1284304	wordpools/wasnorm_wordpool.txt	LTP069	ltpFR	10	10	0	AUNT	60	n/a	1	n/a	0	0	0	n/a	n/a	n/a	n/a	n/a
2569.374	n/a	REC_WORD	1284687	wordpools/wasnorm_wordpool.txt	LTP069	ltpFR	10	10	0	DOG	480	n/a	1	n/a	0	0	0	n/a	n/a	n/a	n/a	n/a
2571.33	n/a	REC_WORD	1285665	wordpools/wasnorm_wordpool.txt	LTP069	ltpFR	10	10	0	BARK	87	n/a	1	n/a	0	0	0	n/a	n/a	n/a	n/a	n/a
2572.148	n/a	REC_WORD	1286074	wordpools/wasnorm_wordpool.txt	LTP069	ltpFR	10	10	0	SCREEN	1253	n/a	1	n/a	0	0	0	n/a	n/a	n/a	n/a	n/a
2583.768	n/a	REC_WORD	1291884	wordpools/wasnorm_wordpool.txt	LTP069	ltpFR	10	10	1	SERGEANT	1269	n/a	1	n/a	0	0	0	n/a	n/a	n/a	n/a	n/a
2601.452	n/a	REC_WORD	1300726	wordpools/wasnorm_wordpool.txt	LTP069	ltpFR	10	10	0	PICNIC	1060	n/a	1	n/a	0	0	0	n/a	n/a	n/a	n/a	n/a
2612.218	n/a	REC_WORD	1306109	wordpools/wasnorm_wordpool.txt	LTP069	ltpFR	10	10	0	TOOL	1480	n/a	0	n/a	0	0	0	n/a	n/a	n/a	n/a	n/a
2648.988	n/a	WORD	1324494	wordpools/wasnorm_wordpool.txt	LTP069	ltpFR	10	11	0	KETCHUP	771	n/a	0	n/a	0	0	0	1	0.412841796875	0.57763671875	lower	../fonts/zerothre.ttf
2652.978	n/a	WORD	1326489	wordpools/wasnorm_wordpool.txt	LTP069	ltpFR	10	11	0	INMATE	738	n/a	1	n/a	0	0	0	1	0.412841796875	0.57763671875	lower	../fonts/zerothre.ttf
2657.078	n/a	WORD	1328539	wordpools/wasnorm_wordpool.txt	LTP069	ltpFR	10	11	0	BUSH	202	n/a	1	n/a	0	0	0	1	0.412841796875	0.57763671875	lower	../fonts/zerothre.ttf
2661.27	n/a	WORD	1330635	wordpools/wasnorm_wordpool.txt	LTP069	ltpFR	10	11	0	POTATO	1115	n/a	0	n/a	0	0	0	1	0.412841796875	0.57763671875	lower	../fonts/zerothre.ttf
2665.186	n/a	WORD	1332593	wordpools/wasnorm_wordpool.txt	LTP069	ltpFR	10	11	0	SCAPEGOAT	1244	n/a	1	n/a	0	0	0	1	0.412841796875	0.57763671875	lower	../fonts/zerothre.ttf
2669.12	n/a	WORD	1334560	wordpools/wasnorm_wordpool.txt	LTP069	ltpFR	10	11	0	WALRUS	1585	n/a	1	n/a	0	0	0	1	0.412841796875	0.57763671875	lower	../fonts/zerothre.ttf
2672.936	n/a	WORD	1336468	wordpools/wasnorm_wordpool.txt	LTP069	ltpFR	10	11	0	GARAGE	621	n/a	1	n/a	0	0	0	1	0.412841796875	0.57763671875	lower	../fonts/zerothre.ttf
2677.02	n/a	WORD	1338510	wordpools/wasnorm_wordpool.txt	LTP069	ltpFR	10	11	0	VALVE	1546	n/a	0	n/a	0	0	0	1	0.412841796875	0.57763671875	lower	../fonts/zerothre.ttf
2681.004	n/a	WORD	1340502	wordpools/wasnorm_wordpool.txt	LTP069	ltpFR	10	11	0	CONVICT	371	n/a	1	n/a	0	0	0	1	0.412841796875	0.57763671875	lower	../fonts/zerothre.ttf
2684.954	n/a	WORD	1342477	wordpools/wasnorm_wordpool.txt	LTP069	ltpFR	10	11	0	COCKTAIL	338	n/a	0	n/a	0	0	0	1	0.412841796875	0.57763671875	lower	../fonts/zerothre.ttf
2688.986	n/a	WORD	1344493	wordpools/wasnorm_wordpool.txt	LTP069	ltpFR	10	11	0	CROCODILE	411	n/a	1	n/a	0	0	0	1	0.412841796875	0.57763671875	lower	../fonts/zerothre.ttf
2692.952	n/a	WORD	1346476	wordpools/wasnorm_wordpool.txt	LTP069	ltpFR	10	11	0	FAN	551	n/a	1	n/a	0	0	0	1	0.412841796875	0.57763671875	lower	../fonts/zerothre.ttf
2696.86	n/a	WORD	1348430	wordpools/wasnorm_wordpool.txt	LTP069	ltpFR	10	11	0	BALLOON	75	n/a	0	n/a	0	0	0	1	0.412841796875	0.57763671875	lower	../fonts/zerothre.ttf
2700.726	n/a	WORD	1350363	wordpools/wasnorm_wordpool.txt	LTP069	ltpFR	10	11	0	MONKEY	911	n/a	1	n/a	0	0	0	1	0.412841796875	0.57763671875	lower	../fonts/zerothre.ttf
2704.744	n/a	WORD	1352372	wordpools/wasnorm_wordpool.txt	LTP069	ltpFR	10	11	0	LOG	841	n/a	1	n/a	0	0	0	1	0.412841796875	0.57763671875	lower	../fonts/zerothre.ttf
2708.57	n/a	WORD	1354285	wordpools/wasnorm_wordpool.txt	LTP069	ltpFR	10	11	0	RIB	1188	n/a	0	n/a	0	0	0	1	0.412841796875	0.57763671875	lower	../fonts/zerothre.ttf
2711.578	n/a	START	1355789	n/a	LTP069	ltpFR	10	n/a	n/a	n/a	n/a	n/a	n/a	n/a	n/a	n/a	n/a	n/a	n/a	n/a	n/a	n/a
2712.694	n/a	PROB	1356347	n/a	LTP069	ltpFR	10	n/a	n/a	n/a	n/a	n/a	n/a	13	6	6	1	n/a	n/a	n/a	n/a	n/a
2714.71	n/a	PROB	1357355	n/a	LTP069	ltpFR	10	n/a	n/a	n/a	n/a	n/a	n/a	12	5	6	1	n/a	n/a	n/a	n/a	n/a
2716.626	n/a	PROB	1358313	n/a	LTP069	ltpFR	10	n/a	n/a	n/a	n/a	n/a	n/a	11	9	1	1	n/a	n/a	n/a	n/a	n/a
2718.444	n/a	STOP	1359222	n/a	LTP069	ltpFR	10	n/a	n/a	n/a	n/a	n/a	n/a	n/a	n/a	n/a	n/a	n/a	n/a	n/a	n/a	n/a
2721.326	n/a	REC_START	1360663	n/a	LTP069	ltpFR	10	11	n/a	n/a	n/a	n/a	n/a	n/a	0	0	0	n/a	n/a	n/a	n/a	n/a
2722.896	n/a	REC_WORD	1361448	wordpools/wasnorm_wordpool.txt	LTP069	ltpFR	10	11	0	CROCODILE	411	n/a	1	n/a	0	0	0	n/a	n/a	n/a	n/a	n/a
2724.652	n/a	REC_WORD	1362326	wordpools/wasnorm_wordpool.txt	LTP069	ltpFR	10	11	0	CONVICT	371	n/a	1	n/a	0	0	0	n/a	n/a	n/a	n/a	n/a
2725.972	n/a	REC_WORD	1362986	wordpools/wasnorm_wordpool.txt	LTP069	ltpFR	10	11	0	BALLOON	75	n/a	0	n/a	0	0	0	n/a	n/a	n/a	n/a	n/a
2727.042	n/a	REC_WORD	1363521	wordpools/wasnorm_wordpool.txt	LTP069	ltpFR	10	11	0	FAN	551	n/a	1	n/a	0	0	0	n/a	n/a	n/a	n/a	n/a
2727.832	n/a	REC_WORD	1363916	wordpools/wasnorm_wordpool.txt	LTP069	ltpFR	10	11	0	RIB	1188	n/a	0	n/a	0	0	0	n/a	n/a	n/a	n/a	n/a
2735.898	n/a	REC_WORD	1367949	wordpools/wasnorm_wordpool.txt	LTP069	ltpFR	10	11	0	INMATE	738	n/a	1	n/a	0	0	0	n/a	n/a	n/a	n/a	n/a
2738.362	n/a	REC_WORD	1369181	wordpools/wasnorm_wordpool.txt	LTP069	ltpFR	10	11	0	FAN	551	n/a	1	n/a	0	0	0	n/a	n/a	n/a	n/a	n/a
2769.394	n/a	REC_WORD	1384697	wordpools/wasnorm_wordpool.txt	LTP069	ltpFR	10	11	0	SCAPEGOAT	1244	n/a	1	n/a	0	0	0	n/a	n/a	n/a	n/a	n/a
2770.38	n/a	REC_WORD	1385190	wordpools/wasnorm_wordpool.txt	LTP069	ltpFR	10	11	0	WALRUS	1585	n/a	1	n/a	0	0	0	n/a	n/a	n/a	n/a	n/a
2771.59	n/a	REC_WORD	1385795	wordpools/wasnorm_wordpool.txt	LTP069	ltpFR	10	11	0	GARAGE	621	n/a	1	n/a	0	0	0	n/a	n/a	n/a	n/a	n/a
2804.5	n/a	START	1402250	n/a	LTP069	ltpFR	10	n/a	n/a	n/a	n/a	n/a	n/a	n/a	n/a	n/a	n/a	n/a	n/a	n/a	n/a	n/a
2806.008	n/a	PROB	1403004	n/a	LTP069	ltpFR	10	n/a	n/a	n/a	n/a	n/a	n/a	15	9	1	5	n/a	n/a	n/a	n/a	n/a
2807.474	n/a	PROB	1403737	n/a	LTP069	ltpFR	10	n/a	n/a	n/a	n/a	n/a	n/a	12	4	7	1	n/a	n/a	n/a	n/a	n/a
2810.4	n/a	PROB	1405200	n/a	LTP069	ltpFR	10	n/a	n/a	n/a	n/a	n/a	n/a	13	3	6	4	n/a	n/a	n/a	n/a	n/a
2811.818	n/a	STOP	1405909	n/a	LTP069	ltpFR	10	n/a	n/a	n/a	n/a	n/a	n/a	n/a	n/a	n/a	n/a	n/a	n/a	n/a	n/a	n/a
2813.65	n/a	WORD	1406825	wordpools/wasnorm_wordpool.txt	LTP069	ltpFR	10	12	0	SPICE	1350	n/a	0	n/a	0	0	0	1	0.412841796875	0.57763671875	lower	../fonts/zerothre.ttf
2816.658	n/a	START	1408329	n/a	LTP069	ltpFR	10	n/a	n/a	n/a	n/a	n/a	n/a	n/a	n/a	n/a	n/a	n/a	n/a	n/a	n/a	n/a
2817.624	n/a	PROB	1408812	n/a	LTP069	ltpFR	10	n/a	n/a	n/a	n/a	n/a	n/a	19	9	6	4	n/a	n/a	n/a	n/a	n/a
2820.24	n/a	PROB	1410120	n/a	LTP069	ltpFR	10	n/a	n/a	n/a	n/a	n/a	n/a	13	3	4	6	n/a	n/a	n/a	n/a	n/a
2824.658	n/a	STOP	1412329	n/a	LTP069	ltpFR	10	n/a	n/a	n/a	n/a	n/a	n/a	n/a	n/a	n/a	n/a	n/a	n/a	n/a	n/a	n/a
2825.84	n/a	WORD	1412920	wordpools/wasnorm_wordpool.txt	LTP069	ltpFR	10	12	0	RACCOON	1153	n/a	1	n/a	0	0	0	1	0.412841796875	0.57763671875	lower	../fonts/zerothre.ttf
2828.85	n/a	START	1414425	n/a	LTP069	ltpFR	10	n/a	n/a	n/a	n/a	n/a	n/a	n/a	n/a	n/a	n/a	n/a	n/a	n/a	n/a	n/a
2829.932	n/a	PROB	1414966	n/a	LTP069	ltpFR	10	n/a	n/a	n/a	n/a	n/a	n/a	18	7	3	8	n/a	n/a	n/a	n/a	n/a
2831.45	n/a	PROB	1415725	n/a	LTP069	ltpFR	10	n/a	n/a	n/a	n/a	n/a	n/a	10	1	2	7	n/a	n/a	n/a	n/a	n/a
2833.058	n/a	PROB	1416529	n/a	LTP069	ltpFR	10	n/a	n/a	n/a	n/a	n/a	n/a	14	6	2	6	n/a	n/a	n/a	n/a	n/a
2836.776	n/a	STOP	1418388	n/a	LTP069	ltpFR	10	n/a	n/a	n/a	n/a	n/a	n/a	n/a	n/a	n/a	n/a	n/a	n/a	n/a	n/a	n/a
2837.932	n/a	WORD	1418966	wordpools/wasnorm_wordpool.txt	LTP069	ltpFR	10	12	0	RUST	1219	n/a	0	n/a	0	0	0	1	0.412841796875	0.57763671875	lower	../fonts/zerothre.ttf
2840.94	n/a	START	1420470	n/a	LTP069	ltpFR	10	n/a	n/a	n/a	n/a	n/a	n/a	n/a	n/a	n/a	n/a	n/a	n/a	n/a	n/a	n/a
2842.124	n/a	PROB	1421062	n/a	LTP069	ltpFR	10	n/a	n/a	n/a	n/a	n/a	n/a	23	8	9	8	n/a	n/a	n/a	n/a	n/a
2848.506	n/a	STOP	1424253	n/a	LTP069	ltpFR	10	n/a	n/a	n/a	n/a	n/a	n/a	n/a	n/a	n/a	n/a	n/a	n/a	n/a	n/a	n/a
2850.132	n/a	WORD	1425066	wordpools/wasnorm_wordpool.txt	LTP069	ltpFR	10	12	0	LOLLIPOP	842	n/a	0	n/a	0	0	0	1	0.412841796875	0.57763671875	lower	../fonts/zerothre.ttf
2853.14	n/a	START	1426570	n/a	LTP069	ltpFR	10	n/a	n/a	n/a	n/a	n/a	n/a	n/a	n/a	n/a	n/a	n/a	n/a	n/a	n/a	n/a
2854.216	n/a	PROB	1427108	n/a	LTP069	ltpFR	10	n/a	n/a	n/a	n/a	n/a	n/a	17	8	2	7	n/a	n/a	n/a	n/a	n/a
2856.24	n/a	PROB	1428120	n/a	LTP069	ltpFR	10	n/a	n/a	n/a	n/a	n/a	n/a	16	3	5	8	n/a	n/a	n/a	n/a	n/a
2858.314	n/a	PROB	1429157	n/a	LTP069	ltpFR	10	n/a	n/a	n/a	n/a	n/a	n/a	15	8	3	4	n/a	n/a	n/a	n/a	n/a
2860.252	n/a	STOP	1430126	n/a	LTP069	ltpFR	10	n/a	n/a	n/a	n/a	n/a	n/a	n/a	n/a	n/a	n/a	n/a	n/a	n/a	n/a	n/a
2862.356	n/a	WORD	1431178	wordpools/wasnorm_wordpool.txt	LTP069	ltpFR	10	12	0	CAGE	218	n/a	1	n/a	0	0	0	1	0.412841796875	0.57763671875	lower	../fonts/zerothre.ttf
2865.366	n/a	START	1432683	n/a	LTP069	ltpFR	10	n/a	n/a	n/a	n/a	n/a	n/a	n/a	n/a	n/a	n/a	n/a	n/a	n/a	n/a	n/a
2866.322	n/a	PROB	1433161	n/a	LTP069	ltpFR	10	n/a	n/a	n/a	n/a	n/a	n/a	7	2	3	2	n/a	n/a	n/a	n/a	n/a
2868.022	n/a	PROB	1434011	n/a	LTP069	ltpFR	10	n/a	n/a	n/a	n/a	n/a	n/a	17	4	8	6	n/a	n/a	n/a	n/a	n/a
2873.366	n/a	STOP	1436683	n/a	LTP069	ltpFR	10	n/a	n/a	n/a	n/a	n/a	n/a	n/a	n/a	n/a	n/a	n/a	n/a	n/a	n/a	n/a
2874.322	n/a	WORD	1437161	wordpools/wasnorm_wordpool.txt	LTP069	ltpFR	10	12	0	MOUSE	925	n/a	0	n/a	0	0	0	1	0.412841796875	0.57763671875	lower	../fonts/zerothre.ttf
2877.33	n/a	START	1438665	n/a	LTP069	ltpFR	10	n/a	n/a	n/a	n/a	n/a	n/a	n/a	n/a	n/a	n/a	n/a	n/a	n/a	n/a	n/a
2878.282	n/a	PROB	1439141	n/a	LTP069	ltpFR	10	n/a	n/a	n/a	n/a	n/a	n/a	11	3	1	7	n/a	n/a	n/a	n/a	n/a
2879.89	n/a	PROB	1439945	n/a	LTP069	ltpFR	10	n/a	n/a	n/a	n/a	n/a	n/a	24	8	7	9	n/a	n/a	n/a	n/a	n/a
2881.898	n/a	PROB	1440949	n/a	LTP069	ltpFR	10	n/a	n/a	n/a	n/a	n/a	n/a	14	3	5	6	n/a	n/a	n/a	n/a	n/a
2885.33	n/a	STOP	1442665	n/a	LTP069	ltpFR	10	n/a	n/a	n/a	n/a	n/a	n/a	n/a	n/a	n/a	n/a	n/a	n/a	n/a	n/a	n/a
2886.322	n/a	WORD	1443161	wordpools/wasnorm_wordpool.txt	LTP069	ltpFR	10	12	0	CARAVAN	242	n/a	1	n/a	0	0	0	1	0.412841796875	0.57763671875	lower	../fonts/zerothre.ttf
2889.33	n/a	START	1444665	n/a	LTP069	ltpFR	10	n/a	n/a	n/a	n/a	n/a	n/a	n/a	n/a	n/a	n/a	n/a	n/a	n/a	n/a	n/a
2890.138	n/a	PROB	1445069	n/a	LTP069	ltpFR	10	n/a	n/a	n/a	n/a	n/a	n/a	20	7	4	9	n/a	n/a	n/a	n/a	n/a
2891.988	n/a	PROB	1445994	n/a	LTP069	ltpFR	10	n/a	n/a	n/a	n/a	n/a	n/a	10	5	2	1	n/a	n/a	n/a	n/a	n/a
2897.33	n/a	STOP	1448665	n/a	LTP069	ltpFR	10	n/a	n/a	n/a	n/a	n/a	n/a	n/a	n/a	n/a	n/a	n/a	n/a	n/a	n/a	n/a
2898.49	n/a	WORD	1449245	wordpools/wasnorm_wordpool.txt	LTP069	ltpFR	10	12	0	PARTNER	1017	n/a	1	n/a	0	0	0	1	0.412841796875	0.57763671875	lower	../fonts/zerothre.ttf
2901.498	n/a	START	1450749	n/a	LTP069	ltpFR	10	n/a	n/a	n/a	n/a	n/a	n/a	n/a	n/a	n/a	n/a	n/a	n/a	n/a	n/a	n/a
2902.448	n/a	PROB	1451224	n/a	LTP069	ltpFR	10	n/a	n/a	n/a	n/a	n/a	n/a	13	3	6	4	n/a	n/a	n/a	n/a	n/a
2903.898	n/a	PROB	1451949	n/a	LTP069	ltpFR	10	n/a	n/a	n/a	n/a	n/a	n/a	13	3	8	2	n/a	n/a	n/a	n/a	n/a
2909.498	n/a	STOP	1454749	n/a	LTP069	ltpFR	10	n/a	n/a	n/a	n/a	n/a	n/a	n/a	n/a	n/a	n/a	n/a	n/a	n/a	n/a	n/a
2910.504	n/a	WORD	1455252	wordpools/wasnorm_wordpool.txt	LTP069	ltpFR	10	12	0	FOE	587	n/a	1	n/a	0	0	0	1	0.412841796875	0.57763671875	lower	../fonts/zerothre.ttf
2913.506	n/a	START	1456753	n/a	LTP069	ltpFR	10	n/a	n/a	n/a	n/a	n/a	n/a	n/a	n/a	n/a	n/a	n/a	n/a	n/a	n/a	n/a
2914.48	n/a	PROB	1457240	n/a	LTP069	ltpFR	10	n/a	n/a	n/a	n/a	n/a	n/a	14	5	8	1	n/a	n/a	n/a	n/a	n/a
2916.58	n/a	PROB	1458290	n/a	LTP069	ltpFR	10	n/a	n/a	n/a	n/a	n/a	n/a	18	6	7	5	n/a	n/a	n/a	n/a	n/a
2921.506	n/a	STOP	1460753	n/a	LTP069	ltpFR	10	n/a	n/a	n/a	n/a	n/a	n/a	n/a	n/a	n/a	n/a	n/a	n/a	n/a	n/a	n/a
2922.614	n/a	WORD	1461307	wordpools/wasnorm_wordpool.txt	LTP069	ltpFR	10	12	0	SILK	1307	n/a	1	n/a	0	0	0	1	0.412841796875	0.57763671875	lower	../fonts/zerothre.ttf
2925.622	n/a	START	1462811	n/a	LTP069	ltpFR	10	n/a	n/a	n/a	n/a	n/a	n/a	n/a	n/a	n/a	n/a	n/a	n/a	n/a	n/a	n/a
2926.622	n/a	PROB	1463311	n/a	LTP069	ltpFR	10	n/a	n/a	n/a	n/a	n/a	n/a	6	4	1	1	n/a	n/a	n/a	n/a	n/a
2928.83	n/a	PROB	1464415	n/a	LTP069	ltpFR	10	n/a	n/a	n/a	n/a	n/a	n/a	11	2	6	3	n/a	n/a	n/a	n/a	n/a
2933.622	n/a	STOP	1466811	n/a	LTP069	ltpFR	10	n/a	n/a	n/a	n/a	n/a	n/a	n/a	n/a	n/a	n/a	n/a	n/a	n/a	n/a	n/a
2934.62	n/a	WORD	1467310	wordpools/wasnorm_wordpool.txt	LTP069	ltpFR	10	12	0	MUMMY	932	n/a	n/a	n/a	0	0	0	1	0.412841796875	0.57763671875	lower	../fonts/zerothre.ttf
2937.646	n/a	SLOW_MSG	1468823	n/a	LTP069	ltpFR	10	12	n/a	n/a	n/a	n/a	n/a	n/a	0	0	0	n/a	n/a	n/a	n/a	n/a
2939.156	n/a	START	1469578	n/a	LTP069	ltpFR	10	n/a	n/a	n/a	n/a	n/a	n/a	n/a	n/a	n/a	n/a	n/a	n/a	n/a	n/a	n/a
2940.23	n/a	PROB	1470115	n/a	LTP069	ltpFR	10	n/a	n/a	n/a	n/a	n/a	n/a	11	4	3	4	n/a	n/a	n/a	n/a	n/a
