mstime	trial_type	stim_file	subject	experiment	session	trial	item_name	item_num	list	answer	test_x	test_y	test_z
0	SESS_START	n/a	LTP311	ltpFR2	8	n/a	n/a	n/a	n/a	n/a	0	0	0
87270	START	n/a	LTP311	ltpFR2	8	n/a	n/a	n/a	-1	n/a	n/a	n/a	n/a
87285	PROB	n/a	LTP311	ltpFR2	8	n/a	n/a	n/a	-1	23	7	8	8
89704	PROB	n/a	LTP311	ltpFR2	8	n/a	n/a	n/a	-1	18	8	7	3
91722	PROB	n/a	LTP311	ltpFR2	8	n/a	n/a	n/a	-1	7	1	4	2
93007	PROB	n/a	LTP311	ltpFR2	8	n/a	n/a	n/a	-1	7	3	2	2
94207	PROB	n/a	LTP311	ltpFR2	8	n/a	n/a	n/a	-1	18	7	8	3
95893	PROB	n/a	LTP311	ltpFR2	8	n/a	n/a	n/a	-1	22	7	7	8
98530	STOP	n/a	LTP311	ltpFR2	8	n/a	n/a	n/a	-1	n/a	n/a	n/a	n/a
134056	WORD	wordpools/wasnorm_wordpool_576.txt	LTP311	ltpFR2	8	1	SPOON	1357	n/a	n/a	0	0	0
136593	WORD	wordpools/wasnorm_wordpool_576.txt	LTP311	ltpFR2	8	1	PISTOL	1075	n/a	n/a	0	0	0
139055	WORD	wordpools/wasnorm_wordpool_576.txt	LTP311	ltpFR2	8	1	STAPLE	1371	n/a	n/a	0	0	0
141707	WORD	wordpools/wasnorm_wordpool_576.txt	LTP311	ltpFR2	8	1	TORTOISE	1486	n/a	n/a	0	0	0
144266	WORD	wordpools/wasnorm_wordpool_576.txt	LTP311	ltpFR2	8	1	PICTURE	1061	n/a	n/a	0	0	0
146828	WORD	wordpools/wasnorm_wordpool_576.txt	LTP311	ltpFR2	8	1	TURTLE	1522	n/a	n/a	0	0	0
149503	WORD	wordpools/wasnorm_wordpool_576.txt	LTP311	ltpFR2	8	1	GAZELLE	628	n/a	n/a	0	0	0
152055	WORD	wordpools/wasnorm_wordpool_576.txt	LTP311	ltpFR2	8	1	HEART	697	n/a	n/a	0	0	0
154484	WORD	wordpools/wasnorm_wordpool_576.txt	LTP311	ltpFR2	8	1	OUTDOORS	987	n/a	n/a	0	0	0
157286	WORD	wordpools/wasnorm_wordpool_576.txt	LTP311	ltpFR2	8	1	PATROL	1027	n/a	n/a	0	0	0
159795	WORD	wordpools/wasnorm_wordpool_576.txt	LTP311	ltpFR2	8	1	RUST	1219	n/a	n/a	0	0	0
162275	WORD	wordpools/wasnorm_wordpool_576.txt	LTP311	ltpFR2	8	1	GIFT	635	n/a	n/a	0	0	0
165032	WORD	wordpools/wasnorm_wordpool_576.txt	LTP311	ltpFR2	8	1	MARKER	870	n/a	n/a	0	0	0
167768	WORD	wordpools/wasnorm_wordpool_576.txt	LTP311	ltpFR2	8	1	THIEF	1456	n/a	n/a	0	0	0
170515	WORD	wordpools/wasnorm_wordpool_576.txt	LTP311	ltpFR2	8	1	PEANUT	1032	n/a	n/a	0	0	0
173268	WORD	wordpools/wasnorm_wordpool_576.txt	LTP311	ltpFR2	8	1	PECAN	1036	n/a	n/a	0	0	0
175770	WORD	wordpools/wasnorm_wordpool_576.txt	LTP311	ltpFR2	8	1	EXPERT	543	n/a	n/a	0	0	0
178422	WORD	wordpools/wasnorm_wordpool_576.txt	LTP311	ltpFR2	8	1	STAKE	1368	n/a	n/a	0	0	0
180875	WORD	wordpools/wasnorm_wordpool_576.txt	LTP311	ltpFR2	8	1	ANTLER	29	n/a	n/a	0	0	0
183347	WORD	wordpools/wasnorm_wordpool_576.txt	LTP311	ltpFR2	8	1	COMPASS	358	n/a	n/a	0	0	0
185795	WORD	wordpools/wasnorm_wordpool_576.txt	LTP311	ltpFR2	8	1	CLAM	315	n/a	n/a	0	0	0
188348	WORD	wordpools/wasnorm_wordpool_576.txt	LTP311	ltpFR2	8	1	MACHINE	852	n/a	n/a	0	0	0
190770	WORD	wordpools/wasnorm_wordpool_576.txt	LTP311	ltpFR2	8	1	CHAUFFEUR	283	n/a	n/a	0	0	0
193234	WORD	wordpools/wasnorm_wordpool_576.txt	LTP311	ltpFR2	8	1	CASHEW	253	n/a	n/a	0	0	0
194841	START	n/a	LTP311	ltpFR2	8	n/a	n/a	n/a	1	n/a	n/a	n/a	n/a
195790	DISTRACTOR	n/a	LTP311	ltpFR2	8	1	n/a	n/a	n/a	n/a	0	0	0
195804	PROB	n/a	LTP311	ltpFR2	8	n/a	n/a	n/a	1	11	6	1	4
197390	PROB	n/a	LTP311	ltpFR2	8	n/a	n/a	n/a	1	19	5	6	8
199440	PROB	n/a	LTP311	ltpFR2	8	n/a	n/a	n/a	1	12	4	7	1
201541	PROB	n/a	LTP311	ltpFR2	8	n/a	n/a	n/a	1	12	6	2	4
202742	PROB	n/a	LTP311	ltpFR2	8	n/a	n/a	n/a	1	12	3	3	6
204010	PROB	n/a	LTP311	ltpFR2	8	n/a	n/a	n/a	1	17	1	7	9
206679	PROB	n/a	LTP311	ltpFR2	8	n/a	n/a	n/a	1	16	5	3	8
209030	PROB	n/a	LTP311	ltpFR2	8	n/a	n/a	n/a	1	18	3	8	7
210886	PROB	n/a	LTP311	ltpFR2	8	n/a	n/a	n/a	1	18	3	8	7
212435	PROB	n/a	LTP311	ltpFR2	8	n/a	n/a	n/a	1	15	8	2	5
213988	PROB	n/a	LTP311	ltpFR2	8	n/a	n/a	n/a	1	19	6	5	8
215838	PROB	n/a	LTP311	ltpFR2	8	n/a	n/a	n/a	1	9	4	1	4
218841	STOP	n/a	LTP311	ltpFR2	8	n/a	n/a	n/a	1	n/a	n/a	n/a	n/a
220760	REC_START	n/a	LTP311	ltpFR2	8	1	n/a	n/a	n/a	n/a	0	0	0
225801	REC_WORD	wordpools/wasnorm_wordpool_576.txt	LTP311	ltpFR2	8	1	SPOON	1357	n/a	n/a	0	0	0
226903	REC_WORD	wordpools/wasnorm_wordpool_576.txt	LTP311	ltpFR2	8	1	PISTOL	1075	n/a	n/a	0	0	0
228853	REC_WORD	wordpools/wasnorm_wordpool_576.txt	LTP311	ltpFR2	8	1	STAPLE	1371	n/a	n/a	0	0	0
231007	REC_WORD	wordpools/wasnorm_wordpool_576.txt	LTP311	ltpFR2	8	1	TORTOISE	1486	n/a	n/a	0	0	0
232639	REC_WORD	wordpools/wasnorm_wordpool_576.txt	LTP311	ltpFR2	8	1	PICTURE	1061	n/a	n/a	0	0	0
235227	REC_WORD	wordpools/wasnorm_wordpool_576.txt	LTP311	ltpFR2	8	1	TURTLE	1522	n/a	n/a	0	0	0
243334	REC_WORD	wordpools/wasnorm_wordpool_576.txt	LTP311	ltpFR2	8	1	GAZELLE	628	n/a	n/a	0	0	0
244224	REC_WORD	wordpools/wasnorm_wordpool_576.txt	LTP311	ltpFR2	8	1	HEART	697	n/a	n/a	0	0	0
245153	REC_WORD	wordpools/wasnorm_wordpool_576.txt	LTP311	ltpFR2	8	1	PATROL	1027	n/a	n/a	0	0	0
246190	REC_WORD	wordpools/wasnorm_wordpool_576.txt	LTP311	ltpFR2	8	1	OUTDOORS	987	n/a	n/a	0	0	0
253339	REC_WORD	wordpools/wasnorm_wordpool_576.txt	LTP311	ltpFR2	8	1	RUST	1219	n/a	n/a	0	0	0
256346	REC_WORD	wordpools/wasnorm_wordpool_576.txt	LTP311	ltpFR2	8	1	GIFT	635	n/a	n/a	0	0	0
258520	REC_WORD	wordpools/wasnorm_wordpool_576.txt	LTP311	ltpFR2	8	1	THIEF	1456	n/a	n/a	0	0	0
259452	REC_WORD	wordpools/wasnorm_wordpool_576.txt	LTP311	ltpFR2	8	1	MARKER	870	n/a	n/a	0	0	0
261244	REC_WORD	wordpools/wasnorm_wordpool_576.txt	LTP311	ltpFR2	8	1	PEANUT	1032	n/a	n/a	0	0	0
269051	REC_WORD	wordpools/wasnorm_wordpool_576.txt	LTP311	ltpFR2	8	1	CASHEW	253	n/a	n/a	0	0	0
271258	REC_WORD	wordpools/wasnorm_wordpool_576.txt	LTP311	ltpFR2	8	1	MACHINE	852	n/a	n/a	0	0	0
279167	REC_WORD	wordpools/wasnorm_wordpool_576.txt	LTP311	ltpFR2	8	1	ANTLER	29	n/a	n/a	0	0	0
291514	REC_WORD	wordpools/wasnorm_wordpool_576.txt	LTP311	ltpFR2	8	1	CHAUFFEUR	283	n/a	n/a	0	0	0
311188	DISTRACTOR	n/a	LTP311	ltpFR2	8	2	n/a	n/a	n/a	n/a	0	0	0
311188	START	n/a	LTP311	ltpFR2	8	n/a	n/a	n/a	2	n/a	n/a	n/a	n/a
311204	PROB	n/a	LTP311	ltpFR2	8	n/a	n/a	n/a	2	24	8	7	9
313951	PROB	n/a	LTP311	ltpFR2	8	n/a	n/a	n/a	2	17	2	8	7
317587	PROB	n/a	LTP311	ltpFR2	8	n/a	n/a	n/a	2	9	4	1	4
318872	PROB	n/a	LTP311	ltpFR2	8	n/a	n/a	n/a	2	17	5	3	9
321189	PROB	n/a	LTP311	ltpFR2	8	n/a	n/a	n/a	2	18	3	9	6
322807	PROB	n/a	LTP311	ltpFR2	8	n/a	n/a	n/a	2	7	1	2	4
324408	PROB	n/a	LTP311	ltpFR2	8	n/a	n/a	n/a	2	10	4	4	2
325843	PROB	n/a	LTP311	ltpFR2	8	n/a	n/a	n/a	2	16	6	4	6
327128	PROB	n/a	LTP311	ltpFR2	8	n/a	n/a	n/a	2	16	7	4	5
331098	PROB	n/a	LTP311	ltpFR2	8	n/a	n/a	n/a	2	16	3	9	4
332665	PROB	n/a	LTP311	ltpFR2	8	n/a	n/a	n/a	2	16	6	9	1
334323	STOP	n/a	LTP311	ltpFR2	8	n/a	n/a	n/a	2	n/a	n/a	n/a	n/a
336309	WORD	wordpools/wasnorm_wordpool_576.txt	LTP311	ltpFR2	8	2	BACON	67	n/a	n/a	0	0	0
338788	WORD	wordpools/wasnorm_wordpool_576.txt	LTP311	ltpFR2	8	2	BROTHER	179	n/a	n/a	0	0	0
341280	WORD	wordpools/wasnorm_wordpool_576.txt	LTP311	ltpFR2	8	2	INFANT	737	n/a	n/a	0	0	0
343942	WORD	wordpools/wasnorm_wordpool_576.txt	LTP311	ltpFR2	8	2	TOASTER	1472	n/a	n/a	0	0	0
346460	WORD	wordpools/wasnorm_wordpool_576.txt	LTP311	ltpFR2	8	2	MUFFIN	929	n/a	n/a	0	0	0
349063	WORD	wordpools/wasnorm_wordpool_576.txt	LTP311	ltpFR2	8	2	SHARK	1275	n/a	n/a	0	0	0
351840	WORD	wordpools/wasnorm_wordpool_576.txt	LTP311	ltpFR2	8	2	SMOG	1330	n/a	n/a	0	0	0
354543	WORD	wordpools/wasnorm_wordpool_576.txt	LTP311	ltpFR2	8	2	MILK	895	n/a	n/a	0	0	0
357178	WORD	wordpools/wasnorm_wordpool_576.txt	LTP311	ltpFR2	8	2	LIVER	833	n/a	n/a	0	0	0
359729	WORD	wordpools/wasnorm_wordpool_576.txt	LTP311	ltpFR2	8	2	BLOCKADE	137	n/a	n/a	0	0	0
362207	WORD	wordpools/wasnorm_wordpool_576.txt	LTP311	ltpFR2	8	2	SHERIFF	1284	n/a	n/a	0	0	0
364985	WORD	wordpools/wasnorm_wordpool_576.txt	LTP311	ltpFR2	8	2	SPOUSE	1358	n/a	n/a	0	0	0
367671	WORD	wordpools/wasnorm_wordpool_576.txt	LTP311	ltpFR2	8	2	SCULPTURE	1258	n/a	n/a	0	0	0
370197	WORD	wordpools/wasnorm_wordpool_576.txt	LTP311	ltpFR2	8	2	SKETCH	1315	n/a	n/a	0	0	0
372615	WORD	wordpools/wasnorm_wordpool_576.txt	LTP311	ltpFR2	8	2	CRITIC	410	n/a	n/a	0	0	0
375227	WORD	wordpools/wasnorm_wordpool_576.txt	LTP311	ltpFR2	8	2	UMPIRE	1535	n/a	n/a	0	0	0
377869	WORD	wordpools/wasnorm_wordpool_576.txt	LTP311	ltpFR2	8	2	GLOVE	642	n/a	n/a	0	0	0
380305	WORD	wordpools/wasnorm_wordpool_576.txt	LTP311	ltpFR2	8	2	FILM	565	n/a	n/a	0	0	0
382790	WORD	wordpools/wasnorm_wordpool_576.txt	LTP311	ltpFR2	8	2	MUMMY	932	n/a	n/a	0	0	0
385526	WORD	wordpools/wasnorm_wordpool_576.txt	LTP311	ltpFR2	8	2	CORAL	378	n/a	n/a	0	0	0
388222	WORD	wordpools/wasnorm_wordpool_576.txt	LTP311	ltpFR2	8	2	GUITAR	670	n/a	n/a	0	0	0
390824	WORD	wordpools/wasnorm_wordpool_576.txt	LTP311	ltpFR2	8	2	CHIPMUNK	304	n/a	n/a	0	0	0
393593	WORD	wordpools/wasnorm_wordpool_576.txt	LTP311	ltpFR2	8	2	OUTLAW	989	n/a	n/a	0	0	0
396095	WORD	wordpools/wasnorm_wordpool_576.txt	LTP311	ltpFR2	8	2	SEAFOOD	1260	n/a	n/a	0	0	0
397703	START	n/a	LTP311	ltpFR2	8	n/a	n/a	n/a	3	n/a	n/a	n/a	n/a
398554	DISTRACTOR	n/a	LTP311	ltpFR2	8	2	n/a	n/a	n/a	n/a	0	0	0
398564	PROB	n/a	LTP311	ltpFR2	8	n/a	n/a	n/a	3	7	1	1	5
399852	PROB	n/a	LTP311	ltpFR2	8	n/a	n/a	n/a	3	20	9	2	9
401288	PROB	n/a	LTP311	ltpFR2	8	n/a	n/a	n/a	3	19	8	5	6
402671	PROB	n/a	LTP311	ltpFR2	8	n/a	n/a	n/a	3	24	9	7	8
404374	PROB	n/a	LTP311	ltpFR2	8	n/a	n/a	n/a	3	13	8	4	1
406542	PROB	n/a	LTP311	ltpFR2	8	n/a	n/a	n/a	3	23	7	8	8
408592	PROB	n/a	LTP311	ltpFR2	8	n/a	n/a	n/a	3	12	5	1	6
410078	PROB	n/a	LTP311	ltpFR2	8	n/a	n/a	n/a	3	17	7	8	2
411862	PROB	n/a	LTP311	ltpFR2	8	n/a	n/a	n/a	3	11	3	6	2
413714	PROB	n/a	LTP311	ltpFR2	8	n/a	n/a	n/a	3	9	3	3	3
414866	PROB	n/a	LTP311	ltpFR2	8	n/a	n/a	n/a	3	19	1	9	9
416365	PROB	n/a	LTP311	ltpFR2	8	n/a	n/a	n/a	3	22	7	6	9
418351	PROB	n/a	LTP311	ltpFR2	8	n/a	n/a	n/a	3	18	4	7	7
420583	STOP	n/a	LTP311	ltpFR2	8	n/a	n/a	n/a	3	n/a	n/a	n/a	n/a
423440	REC_START	n/a	LTP311	ltpFR2	8	2	n/a	n/a	n/a	n/a	0	0	0
425606	REC_WORD	wordpools/wasnorm_wordpool_576.txt	LTP311	ltpFR2	8	2	BACON	67	n/a	n/a	0	0	0
426574	REC_WORD	wordpools/wasnorm_wordpool_576.txt	LTP311	ltpFR2	8	2	BROTHER	179	n/a	n/a	0	0	0
428339	REC_WORD	wordpools/wasnorm_wordpool_576.txt	LTP311	ltpFR2	8	2	INFANT	737	n/a	n/a	0	0	0
429980	REC_WORD	wordpools/wasnorm_wordpool_576.txt	LTP311	ltpFR2	8	2	TOASTER	1472	n/a	n/a	0	0	0
431100	REC_WORD	wordpools/wasnorm_wordpool_576.txt	LTP311	ltpFR2	8	2	MUFFIN	929	n/a	n/a	0	0	0
432384	REC_WORD	wordpools/wasnorm_wordpool_576.txt	LTP311	ltpFR2	8	2	LIVER	833	n/a	n/a	0	0	0
435094	REC_WORD	wordpools/wasnorm_wordpool_576.txt	LTP311	ltpFR2	8	2	BLOCKADE	137	n/a	n/a	0	0	0
436307	REC_WORD	wordpools/wasnorm_wordpool_576.txt	LTP311	ltpFR2	8	2	SHERIFF	1284	n/a	n/a	0	0	0
437992	REC_WORD	wordpools/wasnorm_wordpool_576.txt	LTP311	ltpFR2	8	2	SPOUSE	1358	n/a	n/a	0	0	0
439819	REC_WORD	wordpools/wasnorm_wordpool_576.txt	LTP311	ltpFR2	8	2	SCULPTURE	1258	n/a	n/a	0	0	0
441339	REC_WORD	wordpools/wasnorm_wordpool_576.txt	LTP311	ltpFR2	8	2	SKETCH	1315	n/a	n/a	0	0	0
442469	REC_WORD	wordpools/wasnorm_wordpool_576.txt	LTP311	ltpFR2	8	2	CRITIC	410	n/a	n/a	0	0	0
443680	REC_WORD	wordpools/wasnorm_wordpool_576.txt	LTP311	ltpFR2	8	2	UMPIRE	1535	n/a	n/a	0	0	0
445052	REC_WORD	wordpools/wasnorm_wordpool_576.txt	LTP311	ltpFR2	8	2	GLOVE	642	n/a	n/a	0	0	0
445748	REC_WORD	wordpools/wasnorm_wordpool_576.txt	LTP311	ltpFR2	8	2	FILM	565	n/a	n/a	0	0	0
447332	REC_WORD	wordpools/wasnorm_wordpool_576.txt	LTP311	ltpFR2	8	2	MUMMY	932	n/a	n/a	0	0	0
451031	REC_WORD	wordpools/wasnorm_wordpool_576.txt	LTP311	ltpFR2	8	2	CORAL	378	n/a	n/a	0	0	0
452254	REC_WORD	wordpools/wasnorm_wordpool_576.txt	LTP311	ltpFR2	8	2	CHIPMUNK	304	n/a	n/a	0	0	0
455485	REC_WORD	wordpools/wasnorm_wordpool_576.txt	LTP311	ltpFR2	8	2	GUITAR	670	n/a	n/a	0	0	0
456112	REC_WORD	wordpools/wasnorm_wordpool_576.txt	LTP311	ltpFR2	8	2	SEAFOOD	1260	n/a	n/a	0	0	0
458235	REC_WORD	wordpools/wasnorm_wordpool_576.txt	LTP311	ltpFR2	8	2	OUTLAW	989	n/a	n/a	0	0	0
461224	REC_WORD	wordpools/wasnorm_wordpool_576.txt	LTP311	ltpFR2	8	2	MILK	895	n/a	n/a	0	0	0
513895	DISTRACTOR	n/a	LTP311	ltpFR2	8	3	n/a	n/a	n/a	n/a	0	0	0
513895	START	n/a	LTP311	ltpFR2	8	n/a	n/a	n/a	4	n/a	n/a	n/a	n/a
513911	PROB	n/a	LTP311	ltpFR2	8	n/a	n/a	n/a	4	16	5	6	5
515678	PROB	n/a	LTP311	ltpFR2	8	n/a	n/a	n/a	4	16	5	9	2
518099	PROB	n/a	LTP311	ltpFR2	8	n/a	n/a	n/a	4	6	3	2	1
519598	PROB	n/a	LTP311	ltpFR2	8	n/a	n/a	n/a	4	16	5	8	3
521450	PROB	n/a	LTP311	ltpFR2	8	n/a	n/a	n/a	4	10	5	4	1
523301	PROB	n/a	LTP311	ltpFR2	8	n/a	n/a	n/a	4	14	7	5	2
524937	PROB	n/a	LTP311	ltpFR2	8	n/a	n/a	n/a	4	10	2	4	4
526254	PROB	n/a	LTP311	ltpFR2	8	n/a	n/a	n/a	4	17	4	9	4
527689	PROB	n/a	LTP311	ltpFR2	8	n/a	n/a	n/a	4	13	7	5	1
529773	PROB	n/a	LTP311	ltpFR2	8	n/a	n/a	n/a	4	14	7	6	1
531091	PROB	n/a	LTP311	ltpFR2	8	n/a	n/a	n/a	4	19	6	6	7
533559	PROB	n/a	LTP311	ltpFR2	8	n/a	n/a	n/a	4	16	6	5	5
534911	PROB	n/a	LTP311	ltpFR2	8	n/a	n/a	n/a	4	17	8	1	8
536547	STOP	n/a	LTP311	ltpFR2	8	n/a	n/a	n/a	4	n/a	n/a	n/a	n/a
538749	WORD	wordpools/wasnorm_wordpool_576.txt	LTP311	ltpFR2	8	3	SHRUB	1299	n/a	n/a	0	0	0
541268	WORD	wordpools/wasnorm_wordpool_576.txt	LTP311	ltpFR2	8	3	GYMNAST	675	n/a	n/a	0	0	0
543986	WORD	wordpools/wasnorm_wordpool_576.txt	LTP311	ltpFR2	8	3	DRUG	501	n/a	n/a	0	0	0
546571	WORD	wordpools/wasnorm_wordpool_576.txt	LTP311	ltpFR2	8	3	HEDGE	699	n/a	n/a	0	0	0
549357	WORD	wordpools/wasnorm_wordpool_576.txt	LTP311	ltpFR2	8	3	COUNTY	389	n/a	n/a	0	0	0
551992	WORD	wordpools/wasnorm_wordpool_576.txt	LTP311	ltpFR2	8	3	ONION	977	n/a	n/a	0	0	0
554778	WORD	wordpools/wasnorm_wordpool_576.txt	LTP311	ltpFR2	8	3	OYSTER	995	n/a	n/a	0	0	0
557196	WORD	wordpools/wasnorm_wordpool_576.txt	LTP311	ltpFR2	8	3	LACE	792	n/a	n/a	0	0	0
559755	WORD	wordpools/wasnorm_wordpool_576.txt	LTP311	ltpFR2	8	3	SALT	1229	n/a	n/a	0	0	0
562467	WORD	wordpools/wasnorm_wordpool_576.txt	LTP311	ltpFR2	8	3	PASSAGE	1019	n/a	n/a	0	0	0
565192	WORD	wordpools/wasnorm_wordpool_576.txt	LTP311	ltpFR2	8	3	SUSPECT	1415	n/a	n/a	0	0	0
567722	WORD	wordpools/wasnorm_wordpool_576.txt	LTP311	ltpFR2	8	3	SKIRT	1319	n/a	n/a	0	0	0
570307	WORD	wordpools/wasnorm_wordpool_576.txt	LTP311	ltpFR2	8	3	SADDLE	1221	n/a	n/a	0	0	0
572759	WORD	wordpools/wasnorm_wordpool_576.txt	LTP311	ltpFR2	8	3	COWBOY	395	n/a	n/a	0	0	0
575445	WORD	wordpools/wasnorm_wordpool_576.txt	LTP311	ltpFR2	8	3	BLUEPRINT	142	n/a	n/a	0	0	0
578020	WORD	wordpools/wasnorm_wordpool_576.txt	LTP311	ltpFR2	8	3	CARROT	249	n/a	n/a	0	0	0
580598	WORD	wordpools/wasnorm_wordpool_576.txt	LTP311	ltpFR2	8	3	BUNNY	198	n/a	n/a	0	0	0
583308	WORD	wordpools/wasnorm_wordpool_576.txt	LTP311	ltpFR2	8	3	ELBOW	520	n/a	n/a	0	0	0
586070	WORD	wordpools/wasnorm_wordpool_576.txt	LTP311	ltpFR2	8	3	ICEBERG	731	n/a	n/a	0	0	0
588538	WORD	wordpools/wasnorm_wordpool_576.txt	LTP311	ltpFR2	8	3	VIRUS	1572	n/a	n/a	0	0	0
591240	WORD	wordpools/wasnorm_wordpool_576.txt	LTP311	ltpFR2	8	3	GHETTO	633	n/a	n/a	0	0	0
593935	WORD	wordpools/wasnorm_wordpool_576.txt	LTP311	ltpFR2	8	3	WIFE	1609	n/a	n/a	0	0	0
596737	WORD	wordpools/wasnorm_wordpool_576.txt	LTP311	ltpFR2	8	3	FRIEND	606	n/a	n/a	0	0	0
599314	WORD	wordpools/wasnorm_wordpool_576.txt	LTP311	ltpFR2	8	3	SPOOL	1356	n/a	n/a	0	0	0
600925	START	n/a	LTP311	ltpFR2	8	n/a	n/a	n/a	5	n/a	n/a	n/a	n/a
602104	DISTRACTOR	n/a	LTP311	ltpFR2	8	3	n/a	n/a	n/a	n/a	0	0	0
602116	PROB	n/a	LTP311	ltpFR2	8	n/a	n/a	n/a	5	12	5	6	2
605068	PROB	n/a	LTP311	ltpFR2	8	n/a	n/a	n/a	5	15	7	2	6
607519	PROB	n/a	LTP311	ltpFR2	8	n/a	n/a	n/a	5	24	6	9	9
610905	PROB	n/a	LTP311	ltpFR2	8	n/a	n/a	n/a	5	16	6	7	3
612423	PROB	n/a	LTP311	ltpFR2	8	n/a	n/a	n/a	5	16	9	2	5
613824	PROB	n/a	LTP311	ltpFR2	8	n/a	n/a	n/a	5	12	2	5	5
615009	PROB	n/a	LTP311	ltpFR2	8	n/a	n/a	n/a	5	20	8	7	5
617577	PROB	n/a	LTP311	ltpFR2	8	n/a	n/a	n/a	5	13	7	4	2
618895	PROB	n/a	LTP311	ltpFR2	8	n/a	n/a	n/a	5	17	5	7	5
620329	PROB	n/a	LTP311	ltpFR2	8	n/a	n/a	n/a	5	17	1	8	8
621647	PROB	n/a	LTP311	ltpFR2	8	n/a	n/a	n/a	5	14	6	2	8
624925	STOP	n/a	LTP311	ltpFR2	8	n/a	n/a	n/a	5	n/a	n/a	n/a	n/a
626702	REC_START	n/a	LTP311	ltpFR2	8	3	n/a	n/a	n/a	n/a	0	0	0
629992	REC_WORD	wordpools/wasnorm_wordpool_576.txt	LTP311	ltpFR2	8	3	HEDGE	699	n/a	n/a	0	0	0
633687	REC_WORD	wordpools/wasnorm_wordpool_576.txt	LTP311	ltpFR2	8	3	COUNTY	389	n/a	n/a	0	0	0
634690	REC_WORD	wordpools/wasnorm_wordpool_576.txt	LTP311	ltpFR2	8	3	COWBOY	395	n/a	n/a	0	0	0
635360	REC_WORD	wordpools/wasnorm_wordpool_576.txt	LTP311	ltpFR2	8	3	SADDLE	1221	n/a	n/a	0	0	0
635842	REC_WORD	wordpools/wasnorm_wordpool_576.txt	LTP311	ltpFR2	8	3	BLUEPRINT	142	n/a	n/a	0	0	0
638208	REC_WORD	wordpools/wasnorm_wordpool_576.txt	LTP311	ltpFR2	8	3	SPOOL	1356	n/a	n/a	0	0	0
640137	REC_WORD	wordpools/wasnorm_wordpool_576.txt	LTP311	ltpFR2	8	3	FRIEND	606	n/a	n/a	0	0	0
641507	REC_WORD	wordpools/wasnorm_wordpool_576.txt	LTP311	ltpFR2	8	3	WIFE	1609	n/a	n/a	0	0	0
645717	REC_WORD	wordpools/wasnorm_wordpool_576.txt	LTP311	ltpFR2	8	3	BUNNY	198	n/a	n/a	0	0	0
646609	REC_WORD	wordpools/wasnorm_wordpool_576.txt	LTP311	ltpFR2	8	3	CARROT	249	n/a	n/a	0	0	0
647931	REC_WORD	wordpools/wasnorm_wordpool_576.txt	LTP311	ltpFR2	8	3	ELBOW	520	n/a	n/a	0	0	0
651642	REC_WORD	wordpools/wasnorm_wordpool_576.txt	LTP311	ltpFR2	8	3	GHETTO	633	n/a	n/a	0	0	0
717158	DISTRACTOR	n/a	LTP311	ltpFR2	8	4	n/a	n/a	n/a	n/a	0	0	0
717159	START	n/a	LTP311	ltpFR2	8	n/a	n/a	n/a	6	n/a	n/a	n/a	n/a
717173	PROB	n/a	LTP311	ltpFR2	8	n/a	n/a	n/a	6	20	8	6	6
719343	PROB	n/a	LTP311	ltpFR2	8	n/a	n/a	n/a	6	25	9	7	9
721194	PROB	n/a	LTP311	ltpFR2	8	n/a	n/a	n/a	6	12	5	1	6
722845	PROB	n/a	LTP311	ltpFR2	8	n/a	n/a	n/a	6	10	1	2	7
724046	PROB	n/a	LTP311	ltpFR2	8	n/a	n/a	n/a	6	18	5	4	9
725715	PROB	n/a	LTP311	ltpFR2	8	n/a	n/a	n/a	6	12	4	4	4
727082	PROB	n/a	LTP311	ltpFR2	8	n/a	n/a	n/a	6	16	5	9	2
729000	PROB	n/a	LTP311	ltpFR2	8	n/a	n/a	n/a	6	14	3	8	3
730434	PROB	n/a	LTP311	ltpFR2	8	n/a	n/a	n/a	6	22	9	4	9
732503	PROB	n/a	LTP311	ltpFR2	8	n/a	n/a	n/a	6	10	7	2	1
733603	PROB	n/a	LTP311	ltpFR2	8	n/a	n/a	n/a	6	18	6	4	8
735624	PROB	n/a	LTP311	ltpFR2	8	n/a	n/a	n/a	6	17	1	9	7
737358	PROB	n/a	LTP311	ltpFR2	8	n/a	n/a	n/a	6	18	4	7	7
741159	STOP	n/a	LTP311	ltpFR2	8	n/a	n/a	n/a	6	n/a	n/a	n/a	n/a
742095	WORD	wordpools/wasnorm_wordpool_576.txt	LTP311	ltpFR2	8	4	ZEBRA	1635	n/a	n/a	0	0	0
744714	WORD	wordpools/wasnorm_wordpool_576.txt	LTP311	ltpFR2	8	4	LAGOON	795	n/a	n/a	0	0	0
747349	WORD	wordpools/wasnorm_wordpool_576.txt	LTP311	ltpFR2	8	4	CHEMIST	292	n/a	n/a	0	0	0
750118	WORD	wordpools/wasnorm_wordpool_576.txt	LTP311	ltpFR2	8	4	SUITCASE	1403	n/a	n/a	0	0	0
752803	WORD	wordpools/wasnorm_wordpool_576.txt	LTP311	ltpFR2	8	4	FLOWER	584	n/a	n/a	0	0	0
755539	WORD	wordpools/wasnorm_wordpool_576.txt	LTP311	ltpFR2	8	4	GLOBE	641	n/a	n/a	0	0	0
758077	WORD	wordpools/wasnorm_wordpool_576.txt	LTP311	ltpFR2	8	4	MARS	873	n/a	n/a	0	0	0
760809	WORD	wordpools/wasnorm_wordpool_576.txt	LTP311	ltpFR2	8	4	CHILD	299	n/a	n/a	0	0	0
763446	WORD	wordpools/wasnorm_wordpool_576.txt	LTP311	ltpFR2	8	4	PATIENT	1024	n/a	n/a	0	0	0
765981	WORD	wordpools/wasnorm_wordpool_576.txt	LTP311	ltpFR2	8	4	BLACKBOARD	133	n/a	n/a	0	0	0
768416	WORD	wordpools/wasnorm_wordpool_576.txt	LTP311	ltpFR2	8	4	HONEY	713	n/a	n/a	0	0	0
771172	WORD	wordpools/wasnorm_wordpool_576.txt	LTP311	ltpFR2	8	4	FARMER	553	n/a	n/a	0	0	0
773603	WORD	wordpools/wasnorm_wordpool_576.txt	LTP311	ltpFR2	8	4	WINDOW	1611	n/a	n/a	0	0	0
776338	WORD	wordpools/wasnorm_wordpool_576.txt	LTP311	ltpFR2	8	4	BOX	159	n/a	n/a	0	0	0
779091	WORD	wordpools/wasnorm_wordpool_576.txt	LTP311	ltpFR2	8	4	ICING	732	n/a	n/a	0	0	0
781898	WORD	wordpools/wasnorm_wordpool_576.txt	LTP311	ltpFR2	8	4	COUCH	386	n/a	n/a	0	0	0
784478	WORD	wordpools/wasnorm_wordpool_576.txt	LTP311	ltpFR2	8	4	PADDING	999	n/a	n/a	0	0	0
787231	WORD	wordpools/wasnorm_wordpool_576.txt	LTP311	ltpFR2	8	4	OX	994	n/a	n/a	0	0	0
789850	WORD	wordpools/wasnorm_wordpool_576.txt	LTP311	ltpFR2	8	4	HOSTESS	723	n/a	n/a	0	0	0
792485	WORD	wordpools/wasnorm_wordpool_576.txt	LTP311	ltpFR2	8	4	LODGE	839	n/a	n/a	0	0	0
795121	WORD	wordpools/wasnorm_wordpool_576.txt	LTP311	ltpFR2	8	4	BOARD	143	n/a	n/a	0	0	0
797762	WORD	wordpools/wasnorm_wordpool_576.txt	LTP311	ltpFR2	8	4	TABLET	1427	n/a	n/a	0	0	0
800347	WORD	wordpools/wasnorm_wordpool_576.txt	LTP311	ltpFR2	8	4	BUG	187	n/a	n/a	0	0	0
803011	WORD	wordpools/wasnorm_wordpool_576.txt	LTP311	ltpFR2	8	4	TERMITE	1451	n/a	n/a	0	0	0
804619	START	n/a	LTP311	ltpFR2	8	n/a	n/a	n/a	7	n/a	n/a	n/a	n/a
805425	DISTRACTOR	n/a	LTP311	ltpFR2	8	4	n/a	n/a	n/a	n/a	0	0	0
805435	PROB	n/a	LTP311	ltpFR2	8	n/a	n/a	n/a	7	16	4	7	5
808098	PROB	n/a	LTP311	ltpFR2	8	n/a	n/a	n/a	7	11	7	2	2
809598	PROB	n/a	LTP311	ltpFR2	8	n/a	n/a	n/a	7	10	5	1	4
811184	PROB	n/a	LTP311	ltpFR2	8	n/a	n/a	n/a	7	17	7	8	2
813167	PROB	n/a	LTP311	ltpFR2	8	n/a	n/a	n/a	7	7	2	3	2
816454	PROB	n/a	LTP311	ltpFR2	8	n/a	n/a	n/a	7	16	1	7	8
817987	PROB	n/a	LTP311	ltpFR2	8	n/a	n/a	n/a	7	22	7	9	6
820457	PROB	n/a	LTP311	ltpFR2	8	n/a	n/a	n/a	7	22	7	9	6
822441	PROB	n/a	LTP311	ltpFR2	8	n/a	n/a	n/a	7	16	6	1	9
824544	PROB	n/a	LTP311	ltpFR2	8	n/a	n/a	n/a	7	10	7	2	1
825794	PROB	n/a	LTP311	ltpFR2	8	n/a	n/a	n/a	7	19	7	7	5
827647	STOP	n/a	LTP311	ltpFR2	8	n/a	n/a	n/a	7	n/a	n/a	n/a	n/a
830467	REC_START	n/a	LTP311	ltpFR2	8	4	n/a	n/a	n/a	n/a	0	0	0
831756	REC_WORD	wordpools/wasnorm_wordpool_576.txt	LTP311	ltpFR2	8	4	ZEBRA	1635	n/a	n/a	0	0	0
833422	REC_WORD	wordpools/wasnorm_wordpool_576.txt	LTP311	ltpFR2	8	4	LAGOON	795	n/a	n/a	0	0	0
834759	REC_WORD	wordpools/wasnorm_wordpool_576.txt	LTP311	ltpFR2	8	4	CHEMIST	292	n/a	n/a	0	0	0
837994	REC_WORD	wordpools/wasnorm_wordpool_576.txt	LTP311	ltpFR2	8	4	SUITCASE	1403	n/a	n/a	0	0	0
838751	REC_WORD	wordpools/wasnorm_wordpool_576.txt	LTP311	ltpFR2	8	4	FLOWER	584	n/a	n/a	0	0	0
840648	REC_WORD	wordpools/wasnorm_wordpool_576.txt	LTP311	ltpFR2	8	4	GLOBE	641	n/a	n/a	0	0	0
841546	REC_WORD	wordpools/wasnorm_wordpool_576.txt	LTP311	ltpFR2	8	4	MARS	873	n/a	n/a	0	0	0
843979	REC_WORD	wordpools/wasnorm_wordpool_576.txt	LTP311	ltpFR2	8	4	CHILD	299	n/a	n/a	0	0	0
845009	REC_WORD	wordpools/wasnorm_wordpool_576.txt	LTP311	ltpFR2	8	4	PATIENT	1024	n/a	n/a	0	0	0
847129	REC_WORD	wordpools/wasnorm_wordpool_576.txt	LTP311	ltpFR2	8	4	BLACKBOARD	133	n/a	n/a	0	0	0
849086	REC_WORD	wordpools/wasnorm_wordpool_576.txt	LTP311	ltpFR2	8	4	HONEY	713	n/a	n/a	0	0	0
850635	REC_WORD	wordpools/wasnorm_wordpool_576.txt	LTP311	ltpFR2	8	4	FARMER	553	n/a	n/a	0	0	0
852909	REC_WORD	wordpools/wasnorm_wordpool_576.txt	LTP311	ltpFR2	8	4	WINDOW	1611	n/a	n/a	0	0	0
854412	REC_WORD	wordpools/wasnorm_wordpool_576.txt	LTP311	ltpFR2	8	4	BOX	159	n/a	n/a	0	0	0
856003	REC_WORD	wordpools/wasnorm_wordpool_576.txt	LTP311	ltpFR2	8	4	ICING	732	n/a	n/a	0	0	0
857362	REC_WORD	wordpools/wasnorm_wordpool_576.txt	LTP311	ltpFR2	8	4	COUCH	386	n/a	n/a	0	0	0
858864	REC_WORD	wordpools/wasnorm_wordpool_576.txt	LTP311	ltpFR2	8	4	PADDING	999	n/a	n/a	0	0	0
860408	REC_WORD	wordpools/wasnorm_wordpool_576.txt	LTP311	ltpFR2	8	4	OX	994	n/a	n/a	0	0	0
864537	REC_WORD	wordpools/wasnorm_wordpool_576.txt	LTP311	ltpFR2	8	4	BUG	187	n/a	n/a	0	0	0
866121	REC_WORD	wordpools/wasnorm_wordpool_576.txt	LTP311	ltpFR2	8	4	TERMITE	1451	n/a	n/a	0	0	0
920906	DISTRACTOR	n/a	LTP311	ltpFR2	8	5	n/a	n/a	n/a	n/a	0	0	0
920907	START	n/a	LTP311	ltpFR2	8	n/a	n/a	n/a	8	n/a	n/a	n/a	n/a
920921	PROB	n/a	LTP311	ltpFR2	8	n/a	n/a	n/a	8	14	9	1	4
922755	PROB	n/a	LTP311	ltpFR2	8	n/a	n/a	n/a	8	15	4	3	8
924554	PROB	n/a	LTP311	ltpFR2	8	n/a	n/a	n/a	8	12	4	7	1
926255	PROB	n/a	LTP311	ltpFR2	8	n/a	n/a	n/a	8	9	2	2	5
927908	PROB	n/a	LTP311	ltpFR2	8	n/a	n/a	n/a	8	21	5	8	8
931310	PROB	n/a	LTP311	ltpFR2	8	n/a	n/a	n/a	8	23	9	9	5
932980	PROB	n/a	LTP311	ltpFR2	8	n/a	n/a	n/a	8	22	8	6	8
935297	PROB	n/a	LTP311	ltpFR2	8	n/a	n/a	n/a	8	16	8	1	7
936967	PROB	n/a	LTP311	ltpFR2	8	n/a	n/a	n/a	8	13	1	6	6
938316	PROB	n/a	LTP311	ltpFR2	8	n/a	n/a	n/a	8	18	2	7	9
940335	PROB	n/a	LTP311	ltpFR2	8	n/a	n/a	n/a	8	12	3	2	7
941671	PROB	n/a	LTP311	ltpFR2	8	n/a	n/a	n/a	8	17	5	4	8
943357	PROB	n/a	LTP311	ltpFR2	8	n/a	n/a	n/a	8	25	9	9	7
944875	STOP	n/a	LTP311	ltpFR2	8	n/a	n/a	n/a	8	n/a	n/a	n/a	n/a
945956	WORD	wordpools/wasnorm_wordpool_576.txt	LTP311	ltpFR2	8	5	SCRIBBLE	1256	n/a	n/a	0	0	0
948393	WORD	wordpools/wasnorm_wordpool_576.txt	LTP311	ltpFR2	8	5	PAPER	1011	n/a	n/a	0	0	0
951195	WORD	wordpools/wasnorm_wordpool_576.txt	LTP311	ltpFR2	8	5	SCALLOP	1242	n/a	n/a	0	0	0
953831	WORD	wordpools/wasnorm_wordpool_576.txt	LTP311	ltpFR2	8	5	TOURIST	1488	n/a	n/a	0	0	0
956366	WORD	wordpools/wasnorm_wordpool_576.txt	LTP311	ltpFR2	8	5	PISTON	1076	n/a	n/a	0	0	0
958885	WORD	wordpools/wasnorm_wordpool_576.txt	LTP311	ltpFR2	8	5	CANDY	230	n/a	n/a	0	0	0
961355	WORD	wordpools/wasnorm_wordpool_576.txt	LTP311	ltpFR2	8	5	POPCORN	1104	n/a	n/a	0	0	0
963889	WORD	wordpools/wasnorm_wordpool_576.txt	LTP311	ltpFR2	8	5	DRESSER	496	n/a	n/a	0	0	0
966374	WORD	wordpools/wasnorm_wordpool_576.txt	LTP311	ltpFR2	8	5	BURGLAR	200	n/a	n/a	0	0	0
968861	WORD	wordpools/wasnorm_wordpool_576.txt	LTP311	ltpFR2	8	5	ROBBER	1197	n/a	n/a	0	0	0
971346	WORD	wordpools/wasnorm_wordpool_576.txt	LTP311	ltpFR2	8	5	PENGUIN	1044	n/a	n/a	0	0	0
973798	WORD	wordpools/wasnorm_wordpool_576.txt	LTP311	ltpFR2	8	5	PRINCESS	1125	n/a	n/a	0	0	0
976316	WORD	wordpools/wasnorm_wordpool_576.txt	LTP311	ltpFR2	8	5	WAITER	1580	n/a	n/a	0	0	0
979018	WORD	wordpools/wasnorm_wordpool_576.txt	LTP311	ltpFR2	8	5	ITEM	746	n/a	n/a	0	0	0
981738	WORD	wordpools/wasnorm_wordpool_576.txt	LTP311	ltpFR2	8	5	BUTCHER	203	n/a	n/a	0	0	0
984473	WORD	wordpools/wasnorm_wordpool_576.txt	LTP311	ltpFR2	8	5	CUSTARD	429	n/a	n/a	0	0	0
986991	WORD	wordpools/wasnorm_wordpool_576.txt	LTP311	ltpFR2	8	5	CLIMBER	323	n/a	n/a	0	0	0
989661	WORD	wordpools/wasnorm_wordpool_576.txt	LTP311	ltpFR2	8	5	BOYFRIEND	162	n/a	n/a	0	0	0
992363	WORD	wordpools/wasnorm_wordpool_576.txt	LTP311	ltpFR2	8	5	PEBBLE	1035	n/a	n/a	0	0	0
994880	WORD	wordpools/wasnorm_wordpool_576.txt	LTP311	ltpFR2	8	5	ACTRESS	6	n/a	n/a	0	0	0
997500	WORD	wordpools/wasnorm_wordpool_576.txt	LTP311	ltpFR2	8	5	IGLOO	734	n/a	n/a	0	0	0
1000019	WORD	wordpools/wasnorm_wordpool_576.txt	LTP311	ltpFR2	8	5	PORK	1108	n/a	n/a	0	0	0
1002538	WORD	wordpools/wasnorm_wordpool_576.txt	LTP311	ltpFR2	8	5	TRACTOR	1493	n/a	n/a	0	0	0
1005139	WORD	wordpools/wasnorm_wordpool_576.txt	LTP311	ltpFR2	8	5	WARDROBE	1587	n/a	n/a	0	0	0
1006744	START	n/a	LTP311	ltpFR2	8	n/a	n/a	n/a	9	n/a	n/a	n/a	n/a
1007600	DISTRACTOR	n/a	LTP311	ltpFR2	8	5	n/a	n/a	n/a	n/a	0	0	0
1007608	PROB	n/a	LTP311	ltpFR2	8	n/a	n/a	n/a	9	20	3	9	8
1010160	PROB	n/a	LTP311	ltpFR2	8	n/a	n/a	n/a	9	19	6	5	8
1011776	PROB	n/a	LTP311	ltpFR2	8	n/a	n/a	n/a	9	12	9	2	1
1013545	PROB	n/a	LTP311	ltpFR2	8	n/a	n/a	n/a	9	11	1	2	8
1014813	PROB	n/a	LTP311	ltpFR2	8	n/a	n/a	n/a	9	13	4	4	5
1017148	PROB	n/a	LTP311	ltpFR2	8	n/a	n/a	n/a	9	9	2	5	2
1018949	PROB	n/a	LTP311	ltpFR2	8	n/a	n/a	n/a	9	10	8	1	1
1020334	PROB	n/a	LTP311	ltpFR2	8	n/a	n/a	n/a	9	17	4	2	9
1022034	PROB	n/a	LTP311	ltpFR2	8	n/a	n/a	n/a	9	15	5	7	3
1024270	PROB	n/a	LTP311	ltpFR2	8	n/a	n/a	n/a	9	21	8	7	6
1025924	PROB	n/a	LTP311	ltpFR2	8	n/a	n/a	n/a	9	19	8	3	8
1027756	PROB	n/a	LTP311	ltpFR2	8	n/a	n/a	n/a	9	17	2	8	7
1029911	STOP	n/a	LTP311	ltpFR2	8	n/a	n/a	n/a	9	n/a	n/a	n/a	n/a
1032529	REC_START	n/a	LTP311	ltpFR2	8	5	n/a	n/a	n/a	n/a	0	0	0
1037665	REC_WORD	wordpools/wasnorm_wordpool_576.txt	LTP311	ltpFR2	8	5	BOYFRIEND	162	n/a	n/a	0	0	0
1038672	REC_WORD	wordpools/wasnorm_wordpool_576.txt	LTP311	ltpFR2	8	5	CLIMBER	323	n/a	n/a	0	0	0
1039969	REC_WORD	wordpools/wasnorm_wordpool_576.txt	LTP311	ltpFR2	8	5	BUTCHER	203	n/a	n/a	0	0	0
1041339	REC_WORD	wordpools/wasnorm_wordpool_576.txt	LTP311	ltpFR2	8	5	PENGUIN	1044	n/a	n/a	0	0	0
1043426	REC_WORD	wordpools/wasnorm_wordpool_576.txt	LTP311	ltpFR2	8	5	SCRIBBLE	1256	n/a	n/a	0	0	0
1044554	REC_WORD	wordpools/wasnorm_wordpool_576.txt	LTP311	ltpFR2	8	5	SCALLOP	1242	n/a	n/a	0	0	0
1047457	REC_WORD	wordpools/wasnorm_wordpool_576.txt	LTP311	ltpFR2	8	5	WAITER	1580	n/a	n/a	0	0	0
1053633	REC_WORD	wordpools/wasnorm_wordpool_576.txt	LTP311	ltpFR2	8	5	TOURIST	1488	n/a	n/a	0	0	0
1055360	REC_WORD	wordpools/wasnorm_wordpool_576.txt	LTP311	ltpFR2	8	5	ROBBER	1197	n/a	n/a	0	0	0
1122966	WORD	wordpools/wasnorm_wordpool_576.txt	LTP311	ltpFR2	8	6	SODA	1341	n/a	n/a	0	0	0
1125581	WORD	wordpools/wasnorm_wordpool_576.txt	LTP311	ltpFR2	8	6	ROOSTER	1209	n/a	n/a	0	0	0
1128233	WORD	wordpools/wasnorm_wordpool_576.txt	LTP311	ltpFR2	8	6	BREAST	171	n/a	n/a	0	0	0
1131040	WORD	wordpools/wasnorm_wordpool_576.txt	LTP311	ltpFR2	8	6	PUDDING	1139	n/a	n/a	0	0	0
1133476	WORD	wordpools/wasnorm_wordpool_576.txt	LTP311	ltpFR2	8	6	QUEEN	1149	n/a	n/a	0	0	0
1136190	WORD	wordpools/wasnorm_wordpool_576.txt	LTP311	ltpFR2	8	6	LUNCH	849	n/a	n/a	0	0	0
1138741	WORD	wordpools/wasnorm_wordpool_576.txt	LTP311	ltpFR2	8	6	GARBAGE	622	n/a	n/a	0	0	0
1141178	WORD	wordpools/wasnorm_wordpool_576.txt	LTP311	ltpFR2	8	6	POSTAGE	1113	n/a	n/a	0	0	0
1143630	WORD	wordpools/wasnorm_wordpool_576.txt	LTP311	ltpFR2	8	6	FREEZER	604	n/a	n/a	0	0	0
1146365	WORD	wordpools/wasnorm_wordpool_576.txt	LTP311	ltpFR2	8	6	CROSS	413	n/a	n/a	0	0	0
1148820	WORD	wordpools/wasnorm_wordpool_576.txt	LTP311	ltpFR2	8	6	MAILMAN	858	n/a	n/a	0	0	0
1151587	WORD	wordpools/wasnorm_wordpool_576.txt	LTP311	ltpFR2	8	6	COBRA	336	n/a	n/a	0	0	0
1154223	WORD	wordpools/wasnorm_wordpool_576.txt	LTP311	ltpFR2	8	6	PREACHER	1119	n/a	n/a	0	0	0
1156991	WORD	wordpools/wasnorm_wordpool_576.txt	LTP311	ltpFR2	8	6	JEANS	752	n/a	n/a	0	0	0
1159527	WORD	wordpools/wasnorm_wordpool_576.txt	LTP311	ltpFR2	8	6	SHORTS	1293	n/a	n/a	0	0	0
1162265	WORD	wordpools/wasnorm_wordpool_576.txt	LTP311	ltpFR2	8	6	DOLPHIN	483	n/a	n/a	0	0	0
1164815	WORD	wordpools/wasnorm_wordpool_576.txt	LTP311	ltpFR2	8	6	HUMAN	726	n/a	n/a	0	0	0
1167567	WORD	wordpools/wasnorm_wordpool_576.txt	LTP311	ltpFR2	8	6	LAKE	796	n/a	n/a	0	0	0
1170252	WORD	wordpools/wasnorm_wordpool_576.txt	LTP311	ltpFR2	8	6	AIRPORT	13	n/a	n/a	0	0	0
1172855	WORD	wordpools/wasnorm_wordpool_576.txt	LTP311	ltpFR2	8	6	STOMACH	1384	n/a	n/a	0	0	0
1175391	WORD	wordpools/wasnorm_wordpool_576.txt	LTP311	ltpFR2	8	6	TRANSPLANT	1496	n/a	n/a	0	0	0
1178159	WORD	wordpools/wasnorm_wordpool_576.txt	LTP311	ltpFR2	8	6	GRIZZLY	662	n/a	n/a	0	0	0
1180662	WORD	wordpools/wasnorm_wordpool_576.txt	LTP311	ltpFR2	8	6	NAPKIN	937	n/a	n/a	0	0	0
1183247	WORD	wordpools/wasnorm_wordpool_576.txt	LTP311	ltpFR2	8	6	DANCER	437	n/a	n/a	0	0	0
1184866	START	n/a	LTP311	ltpFR2	8	n/a	n/a	n/a	10	n/a	n/a	n/a	n/a
1185914	DISTRACTOR	n/a	LTP311	ltpFR2	8	6	n/a	n/a	n/a	n/a	0	0	0
1185934	PROB	n/a	LTP311	ltpFR2	8	n/a	n/a	n/a	10	16	4	3	9
1188587	PROB	n/a	LTP311	ltpFR2	8	n/a	n/a	n/a	10	9	1	5	3
1191488	PROB	n/a	LTP311	ltpFR2	8	n/a	n/a	n/a	10	13	2	9	2
1194490	PROB	n/a	LTP311	ltpFR2	8	n/a	n/a	n/a	10	21	8	5	8
1196576	PROB	n/a	LTP311	ltpFR2	8	n/a	n/a	n/a	10	25	8	8	9
1198610	PROB	n/a	LTP311	ltpFR2	8	n/a	n/a	n/a	10	20	5	9	6
1200378	PROB	n/a	LTP311	ltpFR2	8	n/a	n/a	n/a	10	13	9	2	2
1202496	PROB	n/a	LTP311	ltpFR2	8	n/a	n/a	n/a	10	10	5	3	2
1204865	PROB	n/a	LTP311	ltpFR2	8	n/a	n/a	n/a	10	18	3	9	6
1208865	STOP	n/a	LTP311	ltpFR2	8	n/a	n/a	n/a	10	n/a	n/a	n/a	n/a
1210755	REC_START	n/a	LTP311	ltpFR2	8	6	n/a	n/a	n/a	n/a	0	0	0
1220061	REC_WORD	wordpools/wasnorm_wordpool_576.txt	LTP311	ltpFR2	8	6	QUEEN	1149	n/a	n/a	0	0	0
1222651	REC_WORD	wordpools/wasnorm_wordpool_576.txt	LTP311	ltpFR2	8	6	LUNCH	849	n/a	n/a	0	0	0
1224136	REC_WORD_VV	wordpools/wasnorm_wordpool_576.txt	LTP311	ltpFR2	8	6	<>	-1	n/a	n/a	0	0	0
1226237	REC_WORD	wordpools/wasnorm_wordpool_576.txt	LTP311	ltpFR2	8	6	PUDDING	1139	n/a	n/a	0	0	0
1228197	REC_WORD	wordpools/wasnorm_wordpool_576.txt	LTP311	ltpFR2	8	6	ROOSTER	1209	n/a	n/a	0	0	0
1229498	REC_WORD	wordpools/wasnorm_wordpool_576.txt	LTP311	ltpFR2	8	6	SODA	1341	n/a	n/a	0	0	0
1233777	REC_WORD	wordpools/wasnorm_wordpool_576.txt	LTP311	ltpFR2	8	6	FREEZER	604	n/a	n/a	0	0	0
1238427	REC_WORD_VV	wordpools/wasnorm_wordpool_576.txt	LTP311	ltpFR2	8	6	<>	-1	n/a	n/a	0	0	0
1239874	REC_WORD	wordpools/wasnorm_wordpool_576.txt	LTP311	ltpFR2	8	6	CROSS	413	n/a	n/a	0	0	0
1241127	REC_WORD	wordpools/wasnorm_wordpool_576.txt	LTP311	ltpFR2	8	6	MAILMAN	858	n/a	n/a	0	0	0
1242997	REC_WORD	wordpools/wasnorm_wordpool_576.txt	LTP311	ltpFR2	8	6	POSTAGE	1113	n/a	n/a	0	0	0
1245770	REC_WORD	wordpools/wasnorm_wordpool_576.txt	LTP311	ltpFR2	8	6	POSTAGE	1113	n/a	n/a	0	0	0
1249301	REC_WORD	wordpools/wasnorm_wordpool_576.txt	LTP311	ltpFR2	8	6	PREACHER	1119	n/a	n/a	0	0	0
1252647	REC_WORD	wordpools/wasnorm_wordpool_576.txt	LTP311	ltpFR2	8	6	HUMAN	726	n/a	n/a	0	0	0
1254551	REC_WORD	wordpools/wasnorm_wordpool_576.txt	LTP311	ltpFR2	8	6	LAKE	796	n/a	n/a	0	0	0
1256420	REC_WORD	wordpools/wasnorm_wordpool_576.txt	LTP311	ltpFR2	8	6	AIRPORT	13	n/a	n/a	0	0	0
1301192	WORD	wordpools/wasnorm_wordpool_576.txt	LTP311	ltpFR2	8	7	CREVICE	405	n/a	n/a	0	0	0
1303636	WORD	wordpools/wasnorm_wordpool_576.txt	LTP311	ltpFR2	8	7	RAZOR	1171	n/a	n/a	0	0	0
1306314	WORD	wordpools/wasnorm_wordpool_576.txt	LTP311	ltpFR2	8	7	HATCHET	691	n/a	n/a	0	0	0
1309107	WORD	wordpools/wasnorm_wordpool_576.txt	LTP311	ltpFR2	8	7	BARLEY	88	n/a	n/a	0	0	0
1311535	WORD	wordpools/wasnorm_wordpool_576.txt	LTP311	ltpFR2	8	7	APRON	35	n/a	n/a	0	0	0
1314220	WORD	wordpools/wasnorm_wordpool_576.txt	LTP311	ltpFR2	8	7	PERMIT	1051	n/a	n/a	0	0	0
1316914	WORD	wordpools/wasnorm_wordpool_576.txt	LTP311	ltpFR2	8	7	MOTOR	922	n/a	n/a	0	0	0
1319692	WORD	wordpools/wasnorm_wordpool_576.txt	LTP311	ltpFR2	8	7	RIFLE	1192	n/a	n/a	0	0	0
1322503	WORD	wordpools/wasnorm_wordpool_576.txt	LTP311	ltpFR2	8	7	ATOM	55	n/a	n/a	0	0	0
1324963	WORD	wordpools/wasnorm_wordpool_576.txt	LTP311	ltpFR2	8	7	HAND	683	n/a	n/a	0	0	0
1327574	WORD	wordpools/wasnorm_wordpool_576.txt	LTP311	ltpFR2	8	7	ARMY	39	n/a	n/a	0	0	0
1330033	WORD	wordpools/wasnorm_wordpool_576.txt	LTP311	ltpFR2	8	7	FLEET	578	n/a	n/a	0	0	0
1332628	WORD	wordpools/wasnorm_wordpool_576.txt	LTP311	ltpFR2	8	7	RABBIT	1152	n/a	n/a	0	0	0
1335088	WORD	wordpools/wasnorm_wordpool_576.txt	LTP311	ltpFR2	8	7	CYCLONE	431	n/a	n/a	0	0	0
1337898	WORD	wordpools/wasnorm_wordpool_576.txt	LTP311	ltpFR2	8	7	SWITCH	1422	n/a	n/a	0	0	0
1340475	WORD	wordpools/wasnorm_wordpool_576.txt	LTP311	ltpFR2	8	7	TRUCK	1512	n/a	n/a	0	0	0
1343120	WORD	wordpools/wasnorm_wordpool_576.txt	LTP311	ltpFR2	8	7	RADISH	1158	n/a	n/a	0	0	0
1345622	WORD	wordpools/wasnorm_wordpool_576.txt	LTP311	ltpFR2	8	7	PRINCE	1124	n/a	n/a	0	0	0
1348041	WORD	wordpools/wasnorm_wordpool_576.txt	LTP311	ltpFR2	8	7	HORSE	719	n/a	n/a	0	0	0
1350727	WORD	wordpools/wasnorm_wordpool_576.txt	LTP311	ltpFR2	8	7	SIDEWALK	1303	n/a	n/a	0	0	0
1353246	WORD	wordpools/wasnorm_wordpool_576.txt	LTP311	ltpFR2	8	7	HOUND	724	n/a	n/a	0	0	0
1355864	WORD	wordpools/wasnorm_wordpool_576.txt	LTP311	ltpFR2	8	7	LEOPARD	812	n/a	n/a	0	0	0
1358422	WORD	wordpools/wasnorm_wordpool_576.txt	LTP311	ltpFR2	8	7	DRAWING	494	n/a	n/a	0	0	0
1361225	WORD	wordpools/wasnorm_wordpool_576.txt	LTP311	ltpFR2	8	7	SCARECROW	1245	n/a	n/a	0	0	0
1362838	START	n/a	LTP311	ltpFR2	8	n/a	n/a	n/a	11	n/a	n/a	n/a	n/a
1363751	DISTRACTOR	n/a	LTP311	ltpFR2	8	7	n/a	n/a	n/a	n/a	0	0	0
1363760	PROB	n/a	LTP311	ltpFR2	8	n/a	n/a	n/a	11	17	9	1	7
1366144	PROB	n/a	LTP311	ltpFR2	8	n/a	n/a	n/a	11	16	1	9	6
1368062	PROB	n/a	LTP311	ltpFR2	8	n/a	n/a	n/a	11	12	7	3	2
1369999	PROB	n/a	LTP311	ltpFR2	8	n/a	n/a	n/a	11	5	2	1	2
1372017	PROB	n/a	LTP311	ltpFR2	8	n/a	n/a	n/a	11	21	6	8	7
1374467	PROB	n/a	LTP311	ltpFR2	8	n/a	n/a	n/a	11	11	4	3	4
1376470	PROB	n/a	LTP311	ltpFR2	8	n/a	n/a	n/a	11	12	3	8	1
1378204	PROB	n/a	LTP311	ltpFR2	8	n/a	n/a	n/a	11	20	3	8	9
1380341	PROB	n/a	LTP311	ltpFR2	8	n/a	n/a	n/a	11	8	2	4	2
1383025	PROB	n/a	LTP311	ltpFR2	8	n/a	n/a	n/a	11	14	6	6	2
1386838	STOP	n/a	LTP311	ltpFR2	8	n/a	n/a	n/a	11	n/a	n/a	n/a	n/a
1388694	REC_START	n/a	LTP311	ltpFR2	8	7	n/a	n/a	n/a	n/a	0	0	0
1389967	REC_WORD	wordpools/wasnorm_wordpool_576.txt	LTP311	ltpFR2	8	7	CREVICE	405	n/a	n/a	0	0	0
1390822	REC_WORD	wordpools/wasnorm_wordpool_576.txt	LTP311	ltpFR2	8	7	HATCHET	691	n/a	n/a	0	0	0
1393587	REC_WORD	wordpools/wasnorm_wordpool_576.txt	LTP311	ltpFR2	8	7	RAZOR	1171	n/a	n/a	0	0	0
1397760	REC_WORD	wordpools/wasnorm_wordpool_576.txt	LTP311	ltpFR2	8	7	APRON	35	n/a	n/a	0	0	0
1399003	REC_WORD	wordpools/wasnorm_wordpool_576.txt	LTP311	ltpFR2	8	7	BARLEY	88	n/a	n/a	0	0	0
1401903	REC_WORD	wordpools/wasnorm_wordpool_576.txt	LTP311	ltpFR2	8	7	RIFLE	1192	n/a	n/a	0	0	0
1402800	REC_WORD	wordpools/wasnorm_wordpool_576.txt	LTP311	ltpFR2	8	7	ATOM	55	n/a	n/a	0	0	0
1409484	REC_WORD	wordpools/wasnorm_wordpool_576.txt	LTP311	ltpFR2	8	7	CYCLONE	431	n/a	n/a	0	0	0
1410439	REC_WORD	wordpools/wasnorm_wordpool_576.txt	LTP311	ltpFR2	8	7	SWITCH	1422	n/a	n/a	0	0	0
1411512	REC_WORD	wordpools/wasnorm_wordpool_576.txt	LTP311	ltpFR2	8	7	TRUCK	1512	n/a	n/a	0	0	0
1412245	REC_WORD	wordpools/wasnorm_wordpool_576.txt	LTP311	ltpFR2	8	7	RADISH	1158	n/a	n/a	0	0	0
1413505	REC_WORD	wordpools/wasnorm_wordpool_576.txt	LTP311	ltpFR2	8	7	DRAWING	494	n/a	n/a	0	0	0
1414255	REC_WORD	wordpools/wasnorm_wordpool_576.txt	LTP311	ltpFR2	8	7	LEOPARD	812	n/a	n/a	0	0	0
1414933	REC_WORD	wordpools/wasnorm_wordpool_576.txt	LTP311	ltpFR2	8	7	SCARECROW	1245	n/a	n/a	0	0	0
1423613	REC_WORD	wordpools/wasnorm_wordpool_576.txt	LTP311	ltpFR2	8	7	ARMY	39	n/a	n/a	0	0	0
1424682	REC_WORD	wordpools/wasnorm_wordpool_576.txt	LTP311	ltpFR2	8	7	HAND	683	n/a	n/a	0	0	0
1426002	REC_WORD	wordpools/wasnorm_wordpool_576.txt	LTP311	ltpFR2	8	7	FLEET	578	n/a	n/a	0	0	0
1427207	REC_WORD	wordpools/wasnorm_wordpool_576.txt	LTP311	ltpFR2	8	7	RABBIT	1152	n/a	n/a	0	0	0
1479153	DISTRACTOR	n/a	LTP311	ltpFR2	8	8	n/a	n/a	n/a	n/a	0	0	0
1479154	START	n/a	LTP311	ltpFR2	8	n/a	n/a	n/a	12	n/a	n/a	n/a	n/a
1479168	PROB	n/a	LTP311	ltpFR2	8	n/a	n/a	n/a	12	20	9	7	4
1481853	PROB	n/a	LTP311	ltpFR2	8	n/a	n/a	n/a	12	9	6	2	1
1483038	PROB	n/a	LTP311	ltpFR2	8	n/a	n/a	n/a	12	18	7	1	4
1485056	PROB	n/a	LTP311	ltpFR2	8	n/a	n/a	n/a	12	17	4	7	6
1487408	PROB	n/a	LTP311	ltpFR2	8	n/a	n/a	n/a	12	13	2	3	8
1489544	PROB	n/a	LTP311	ltpFR2	8	n/a	n/a	n/a	12	22	5	9	8
1494780	PROB	n/a	LTP311	ltpFR2	8	n/a	n/a	n/a	12	20	9	7	4
1499268	PROB	n/a	LTP311	ltpFR2	8	n/a	n/a	n/a	12	25	9	9	7
1500885	PROB	n/a	LTP311	ltpFR2	8	n/a	n/a	n/a	12	6	1	2	3
1502097	STOP	n/a	LTP311	ltpFR2	8	n/a	n/a	n/a	12	n/a	n/a	n/a	n/a
1504106	WORD	wordpools/wasnorm_wordpool_576.txt	LTP311	ltpFR2	8	8	CANAL	226	n/a	n/a	0	0	0
1506730	WORD	wordpools/wasnorm_wordpool_576.txt	LTP311	ltpFR2	8	8	FOREST	593	n/a	n/a	0	0	0
1509477	WORD	wordpools/wasnorm_wordpool_576.txt	LTP311	ltpFR2	8	8	FIREPLACE	570	n/a	n/a	0	0	0
1512267	WORD	wordpools/wasnorm_wordpool_576.txt	LTP311	ltpFR2	8	8	COOK	372	n/a	n/a	0	0	0
1514864	WORD	wordpools/wasnorm_wordpool_576.txt	LTP311	ltpFR2	8	8	CASHIER	254	n/a	n/a	0	0	0
1517417	WORD	wordpools/wasnorm_wordpool_576.txt	LTP311	ltpFR2	8	8	BASEMENT	94	n/a	n/a	0	0	0
1520218	WORD	wordpools/wasnorm_wordpool_576.txt	LTP311	ltpFR2	8	8	LILY	821	n/a	n/a	0	0	0
1522805	WORD	wordpools/wasnorm_wordpool_576.txt	LTP311	ltpFR2	8	8	CAFE	216	n/a	n/a	0	0	0
1525307	WORD	wordpools/wasnorm_wordpool_576.txt	LTP311	ltpFR2	8	8	SLOPE	1328	n/a	n/a	0	0	0
1527898	WORD	wordpools/wasnorm_wordpool_576.txt	LTP311	ltpFR2	8	8	CRICKET	408	n/a	n/a	0	0	0
1530444	WORD	wordpools/wasnorm_wordpool_576.txt	LTP311	ltpFR2	8	8	SLIDE	1326	n/a	n/a	0	0	0
1532996	WORD	wordpools/wasnorm_wordpool_576.txt	LTP311	ltpFR2	8	8	GARDEN	623	n/a	n/a	0	0	0
1535748	WORD	wordpools/wasnorm_wordpool_576.txt	LTP311	ltpFR2	8	8	FLESH	579	n/a	n/a	0	0	0
1538517	WORD	wordpools/wasnorm_wordpool_576.txt	LTP311	ltpFR2	8	8	FINGER	567	n/a	n/a	0	0	0
1541136	WORD	wordpools/wasnorm_wordpool_576.txt	LTP311	ltpFR2	8	8	HEADBAND	696	n/a	n/a	0	0	0
1543604	WORD	wordpools/wasnorm_wordpool_576.txt	LTP311	ltpFR2	8	8	WHISKERS	1605	n/a	n/a	0	0	0
1546390	WORD	wordpools/wasnorm_wordpool_576.txt	LTP311	ltpFR2	8	8	HERO	706	n/a	n/a	0	0	0
1548959	WORD	wordpools/wasnorm_wordpool_576.txt	LTP311	ltpFR2	8	8	SPONGE	1355	n/a	n/a	0	0	0
1551394	WORD	wordpools/wasnorm_wordpool_576.txt	LTP311	ltpFR2	8	8	BUCKET	184	n/a	n/a	0	0	0
1554130	WORD	wordpools/wasnorm_wordpool_576.txt	LTP311	ltpFR2	8	8	FLAG	573	n/a	n/a	0	0	0
1556639	WORD	wordpools/wasnorm_wordpool_576.txt	LTP311	ltpFR2	8	8	DRILL	497	n/a	n/a	0	0	0
1559283	WORD	wordpools/wasnorm_wordpool_576.txt	LTP311	ltpFR2	8	8	SHELTER	1282	n/a	n/a	0	0	0
1561752	WORD	wordpools/wasnorm_wordpool_576.txt	LTP311	ltpFR2	8	8	FOOTBALL	591	n/a	n/a	0	0	0
1564455	WORD	wordpools/wasnorm_wordpool_576.txt	LTP311	ltpFR2	8	8	BLADE	134	n/a	n/a	0	0	0
1566066	START	n/a	LTP311	ltpFR2	8	n/a	n/a	n/a	13	n/a	n/a	n/a	n/a
1567106	DISTRACTOR	n/a	LTP311	ltpFR2	8	8	n/a	n/a	n/a	n/a	0	0	0
1567115	PROB	n/a	LTP311	ltpFR2	8	n/a	n/a	n/a	13	14	4	1	9
1569157	PROB	n/a	LTP311	ltpFR2	8	n/a	n/a	n/a	13	19	7	3	9
1572677	PROB	n/a	LTP311	ltpFR2	8	n/a	n/a	n/a	13	17	1	9	7
1574362	PROB	n/a	LTP311	ltpFR2	8	n/a	n/a	n/a	13	10	4	4	2
1576646	PROB	n/a	LTP311	ltpFR2	8	n/a	n/a	n/a	13	12	4	2	6
1578131	PROB	n/a	LTP311	ltpFR2	8	n/a	n/a	n/a	13	16	9	2	5
1580299	PROB	n/a	LTP311	ltpFR2	8	n/a	n/a	n/a	13	16	7	4	5
1583136	PROB	n/a	LTP311	ltpFR2	8	n/a	n/a	n/a	13	8	1	1	6
1584755	PROB	n/a	LTP311	ltpFR2	8	n/a	n/a	n/a	13	18	6	3	9
1587339	PROB	n/a	LTP311	ltpFR2	8	n/a	n/a	n/a	13	10	6	2	2
1588533	STOP	n/a	LTP311	ltpFR2	8	n/a	n/a	n/a	13	n/a	n/a	n/a	n/a
1591960	REC_START	n/a	LTP311	ltpFR2	8	8	n/a	n/a	n/a	n/a	0	0	0
1598440	REC_WORD	wordpools/wasnorm_wordpool_576.txt	LTP311	ltpFR2	8	8	BLADE	134	n/a	n/a	0	0	0
1668503	REST_REWET	n/a	LTP311	ltpFR2	8	8	n/a	n/a	n/a	n/a	0	0	0
1784880	WORD	wordpools/wasnorm_wordpool_576.txt	LTP311	ltpFR2	8	9	PERFUME	1049	n/a	n/a	0	0	0
1787390	WORD	wordpools/wasnorm_wordpool_576.txt	LTP311	ltpFR2	8	9	DIVER	476	n/a	n/a	0	0	0
1790085	WORD	wordpools/wasnorm_wordpool_576.txt	LTP311	ltpFR2	8	9	VIKING	1565	n/a	n/a	0	0	0
1792772	WORD	wordpools/wasnorm_wordpool_576.txt	LTP311	ltpFR2	8	9	MARINE	869	n/a	n/a	0	0	0
1795331	WORD	wordpools/wasnorm_wordpool_576.txt	LTP311	ltpFR2	8	9	DRINK	498	n/a	n/a	0	0	0
1797800	WORD	wordpools/wasnorm_wordpool_576.txt	LTP311	ltpFR2	8	9	SHIRT	1287	n/a	n/a	0	0	0
1800435	WORD	wordpools/wasnorm_wordpool_576.txt	LTP311	ltpFR2	8	9	WAGON	1578	n/a	n/a	0	0	0
1803020	WORD	wordpools/wasnorm_wordpool_576.txt	LTP311	ltpFR2	8	9	PIMPLE	1071	n/a	n/a	0	0	0
1805440	WORD	wordpools/wasnorm_wordpool_576.txt	LTP311	ltpFR2	8	9	REBEL	1172	n/a	n/a	0	0	0
1807943	WORD	wordpools/wasnorm_wordpool_576.txt	LTP311	ltpFR2	8	9	BLOUSE	139	n/a	n/a	0	0	0
1810594	WORD	wordpools/wasnorm_wordpool_576.txt	LTP311	ltpFR2	8	9	DRESS	495	n/a	n/a	0	0	0
1813371	WORD	wordpools/wasnorm_wordpool_576.txt	LTP311	ltpFR2	8	9	TEMPLE	1448	n/a	n/a	0	0	0
1815889	WORD	wordpools/wasnorm_wordpool_576.txt	LTP311	ltpFR2	8	9	FOX	598	n/a	n/a	0	0	0
1818408	WORD	wordpools/wasnorm_wordpool_576.txt	LTP311	ltpFR2	8	9	STONE	1385	n/a	n/a	0	0	0
1820837	WORD	wordpools/wasnorm_wordpool_576.txt	LTP311	ltpFR2	8	9	FRIAR	605	n/a	n/a	0	0	0
1823513	WORD	wordpools/wasnorm_wordpool_576.txt	LTP311	ltpFR2	8	9	LAPEL	800	n/a	n/a	0	0	0
1826108	WORD	wordpools/wasnorm_wordpool_576.txt	LTP311	ltpFR2	8	9	SKILLET	1317	n/a	n/a	0	0	0
1828767	WORD	wordpools/wasnorm_wordpool_576.txt	LTP311	ltpFR2	8	9	PIGEON	1065	n/a	n/a	0	0	0
1831246	WORD	wordpools/wasnorm_wordpool_576.txt	LTP311	ltpFR2	8	9	GALLON	618	n/a	n/a	0	0	0
1833897	WORD	wordpools/wasnorm_wordpool_576.txt	LTP311	ltpFR2	8	9	CABBAGE	210	n/a	n/a	0	0	0
1836583	WORD	wordpools/wasnorm_wordpool_576.txt	LTP311	ltpFR2	8	9	LETTUCE	814	n/a	n/a	0	0	0
1839135	WORD	wordpools/wasnorm_wordpool_576.txt	LTP311	ltpFR2	8	9	HIGHWAY	707	n/a	n/a	0	0	0
1841929	WORD	wordpools/wasnorm_wordpool_576.txt	LTP311	ltpFR2	8	9	ISLAND	745	n/a	n/a	0	0	0
1844373	WORD	wordpools/wasnorm_wordpool_576.txt	LTP311	ltpFR2	8	9	SERVANT	1271	n/a	n/a	0	0	0
1845982	START	n/a	LTP311	ltpFR2	8	n/a	n/a	n/a	14	n/a	n/a	n/a	n/a
1847029	DISTRACTOR	n/a	LTP311	ltpFR2	8	9	n/a	n/a	n/a	n/a	0	0	0
1847042	PROB	n/a	LTP311	ltpFR2	8	n/a	n/a	n/a	14	14	8	3	3
1849766	PROB	n/a	LTP311	ltpFR2	8	n/a	n/a	n/a	14	14	7	3	4
1850866	PROB	n/a	LTP311	ltpFR2	8	n/a	n/a	n/a	14	14	9	1	4
1852618	PROB	n/a	LTP311	ltpFR2	8	n/a	n/a	n/a	14	13	8	3	2
1854221	PROB	n/a	LTP311	ltpFR2	8	n/a	n/a	n/a	14	18	8	8	2
1855838	PROB	n/a	LTP311	ltpFR2	8	n/a	n/a	n/a	14	13	4	1	8
1857440	PROB	n/a	LTP311	ltpFR2	8	n/a	n/a	n/a	14	15	4	8	3
1858956	PROB	n/a	LTP311	ltpFR2	8	n/a	n/a	n/a	14	9	1	5	3
1861343	PROB	n/a	LTP311	ltpFR2	8	n/a	n/a	n/a	14	13	2	9	2
1862676	PROB	n/a	LTP311	ltpFR2	8	n/a	n/a	n/a	14	12	9	1	2
1863879	PROB	n/a	LTP311	ltpFR2	8	n/a	n/a	n/a	14	19	5	6	8
1869982	STOP	n/a	LTP311	ltpFR2	8	n/a	n/a	n/a	14	n/a	n/a	n/a	n/a
1871931	REC_START	n/a	LTP311	ltpFR2	8	9	n/a	n/a	n/a	n/a	0	0	0
1874157	REC_WORD	wordpools/wasnorm_wordpool_576.txt	LTP311	ltpFR2	8	9	PERFUME	1049	n/a	n/a	0	0	0
1876024	REC_WORD	wordpools/wasnorm_wordpool_576.txt	LTP311	ltpFR2	8	9	VIKING	1565	n/a	n/a	0	0	0
1877072	REC_WORD	wordpools/wasnorm_wordpool_576.txt	LTP311	ltpFR2	8	9	SHIRT	1287	n/a	n/a	0	0	0
1878320	REC_WORD	wordpools/wasnorm_wordpool_576.txt	LTP311	ltpFR2	8	9	BLOUSE	139	n/a	n/a	0	0	0
1892650	REC_WORD	wordpools/wasnorm_wordpool_576.txt	LTP311	ltpFR2	8	9	FOX	598	n/a	n/a	0	0	0
1893608	REC_WORD	wordpools/wasnorm_wordpool_576.txt	LTP311	ltpFR2	8	9	STONE	1385	n/a	n/a	0	0	0
1894853	REC_WORD	wordpools/wasnorm_wordpool_576.txt	LTP311	ltpFR2	8	9	PIGEON	1065	n/a	n/a	0	0	0
1896071	REC_WORD	wordpools/wasnorm_wordpool_576.txt	LTP311	ltpFR2	8	9	MARINE	869	n/a	n/a	0	0	0
1897370	REC_WORD	wordpools/wasnorm_wordpool_576.txt	LTP311	ltpFR2	8	9	DIVER	476	n/a	n/a	0	0	0
1899078	REC_WORD	wordpools/wasnorm_wordpool_576.txt	LTP311	ltpFR2	8	9	HIGHWAY	707	n/a	n/a	0	0	0
1908064	REC_WORD	wordpools/wasnorm_wordpool_576.txt	LTP311	ltpFR2	8	9	TEMPLE	1448	n/a	n/a	0	0	0
1908896	REC_WORD	wordpools/wasnorm_wordpool_576.txt	LTP311	ltpFR2	8	9	FRIAR	605	n/a	n/a	0	0	0
1962374	DISTRACTOR	n/a	LTP311	ltpFR2	8	10	n/a	n/a	n/a	n/a	0	0	0
1962375	START	n/a	LTP311	ltpFR2	8	n/a	n/a	n/a	15	n/a	n/a	n/a	n/a
1962389	PROB	n/a	LTP311	ltpFR2	8	n/a	n/a	n/a	15	11	2	8	1
1964057	PROB	n/a	LTP311	ltpFR2	8	n/a	n/a	n/a	15	17	8	1	8
1965525	PROB	n/a	LTP311	ltpFR2	8	n/a	n/a	n/a	15	10	8	1	1
1966709	PROB	n/a	LTP311	ltpFR2	8	n/a	n/a	n/a	15	11	3	4	4
1970312	PROB	n/a	LTP311	ltpFR2	8	n/a	n/a	n/a	15	17	8	4	5
1971864	PROB	n/a	LTP311	ltpFR2	8	n/a	n/a	n/a	15	16	6	5	5
1973817	PROB	n/a	LTP311	ltpFR2	8	n/a	n/a	n/a	15	17	9	7	1
1975433	PROB	n/a	LTP311	ltpFR2	8	n/a	n/a	n/a	15	14	2	4	8
1977818	PROB	n/a	LTP311	ltpFR2	8	n/a	n/a	n/a	15	15	5	2	8
1979704	PROB	n/a	LTP311	ltpFR2	8	n/a	n/a	n/a	15	18	9	3	6
1982272	PROB	n/a	LTP311	ltpFR2	8	n/a	n/a	n/a	15	12	5	3	4
1986317	STOP	n/a	LTP311	ltpFR2	8	n/a	n/a	n/a	15	n/a	n/a	n/a	n/a
1987427	WORD	wordpools/wasnorm_wordpool_576.txt	LTP311	ltpFR2	8	10	YARN	1631	n/a	n/a	0	0	0
1990029	WORD	wordpools/wasnorm_wordpool_576.txt	LTP311	ltpFR2	8	10	DAISY	435	n/a	n/a	0	0	0
1992581	WORD	wordpools/wasnorm_wordpool_576.txt	LTP311	ltpFR2	8	10	NOVEL	960	n/a	n/a	0	0	0
1995200	WORD	wordpools/wasnorm_wordpool_576.txt	LTP311	ltpFR2	8	10	JAPAN	749	n/a	n/a	0	0	0
1998003	WORD	wordpools/wasnorm_wordpool_576.txt	LTP311	ltpFR2	8	10	SLIME	1327	n/a	n/a	0	0	0
2000660	WORD	wordpools/wasnorm_wordpool_576.txt	LTP311	ltpFR2	8	10	QUARTER	1148	n/a	n/a	0	0	0
2003190	WORD	wordpools/wasnorm_wordpool_576.txt	LTP311	ltpFR2	8	10	COLLEGE	346	n/a	n/a	0	0	0
2005893	WORD	wordpools/wasnorm_wordpool_576.txt	LTP311	ltpFR2	8	10	MILDEW	893	n/a	n/a	0	0	0
2008344	WORD	wordpools/wasnorm_wordpool_576.txt	LTP311	ltpFR2	8	10	TRENCH	1503	n/a	n/a	0	0	0
2010813	WORD	wordpools/wasnorm_wordpool_576.txt	LTP311	ltpFR2	8	10	THREAD	1460	n/a	n/a	0	0	0
2013597	WORD	wordpools/wasnorm_wordpool_576.txt	LTP311	ltpFR2	8	10	TEACHER	1440	n/a	n/a	0	0	0
2016184	WORD	wordpools/wasnorm_wordpool_576.txt	LTP311	ltpFR2	8	10	COD	340	n/a	n/a	0	0	0
2018702	WORD	wordpools/wasnorm_wordpool_576.txt	LTP311	ltpFR2	8	10	CRAB	397	n/a	n/a	0	0	0
2021437	WORD	wordpools/wasnorm_wordpool_576.txt	LTP311	ltpFR2	8	10	CAPTIVE	240	n/a	n/a	0	0	0
2024007	WORD	wordpools/wasnorm_wordpool_576.txt	LTP311	ltpFR2	8	10	CIGAR	308	n/a	n/a	0	0	0
2026692	WORD	wordpools/wasnorm_wordpool_576.txt	LTP311	ltpFR2	8	10	PEACH	1031	n/a	n/a	0	0	0
2029378	WORD	wordpools/wasnorm_wordpool_576.txt	LTP311	ltpFR2	8	10	TREAT	1501	n/a	n/a	0	0	0
2032163	WORD	wordpools/wasnorm_wordpool_576.txt	LTP311	ltpFR2	8	10	OINTMENT	974	n/a	n/a	0	0	0
2034906	WORD	wordpools/wasnorm_wordpool_576.txt	LTP311	ltpFR2	8	10	PACKAGE	997	n/a	n/a	0	0	0
2037458	WORD	wordpools/wasnorm_wordpool_576.txt	LTP311	ltpFR2	8	10	STICKER	1382	n/a	n/a	0	0	0
2039921	WORD	wordpools/wasnorm_wordpool_576.txt	LTP311	ltpFR2	8	10	CRUTCH	417	n/a	n/a	0	0	0
2042346	WORD	wordpools/wasnorm_wordpool_576.txt	LTP311	ltpFR2	8	10	LEG	809	n/a	n/a	0	0	0
2044998	WORD	wordpools/wasnorm_wordpool_576.txt	LTP311	ltpFR2	8	10	PLAZA	1088	n/a	n/a	0	0	0
2047733	WORD	wordpools/wasnorm_wordpool_576.txt	LTP311	ltpFR2	8	10	RECEIPT	1173	n/a	n/a	0	0	0
2049344	START	n/a	LTP311	ltpFR2	8	n/a	n/a	n/a	16	n/a	n/a	n/a	n/a
2050247	DISTRACTOR	n/a	LTP311	ltpFR2	8	10	n/a	n/a	n/a	n/a	0	0	0
2050253	PROB	n/a	LTP311	ltpFR2	8	n/a	n/a	n/a	16	17	7	2	8
2051945	PROB	n/a	LTP311	ltpFR2	8	n/a	n/a	n/a	16	19	2	8	9
2053712	PROB	n/a	LTP311	ltpFR2	8	n/a	n/a	n/a	16	17	4	7	6
2056182	PROB	n/a	LTP311	ltpFR2	8	n/a	n/a	n/a	16	17	3	6	8
2059984	PROB	n/a	LTP311	ltpFR2	8	n/a	n/a	n/a	16	20	9	5	6
2062102	PROB	n/a	LTP311	ltpFR2	8	n/a	n/a	n/a	16	11	8	1	2
2064154	PROB	n/a	LTP311	ltpFR2	8	n/a	n/a	n/a	16	25	9	9	7
2066190	PROB	n/a	LTP311	ltpFR2	8	n/a	n/a	n/a	16	8	2	2	4
2069460	PROB	n/a	LTP311	ltpFR2	8	n/a	n/a	n/a	16	10	3	6	1
2073343	STOP	n/a	LTP311	ltpFR2	8	n/a	n/a	n/a	16	n/a	n/a	n/a	n/a
2075146	REC_START	n/a	LTP311	ltpFR2	8	10	n/a	n/a	n/a	n/a	0	0	0
2080971	REC_WORD	wordpools/wasnorm_wordpool_576.txt	LTP311	ltpFR2	8	10	DAISY	435	n/a	n/a	0	0	0
2083904	REC_WORD	wordpools/wasnorm_wordpool_576.txt	LTP311	ltpFR2	8	10	PEACH	1031	n/a	n/a	0	0	0
2087288	REC_WORD	wordpools/wasnorm_wordpool_576.txt	LTP311	ltpFR2	8	10	TREAT	1501	n/a	n/a	0	0	0
2089653	REC_WORD	wordpools/wasnorm_wordpool_576.txt	LTP311	ltpFR2	8	10	OINTMENT	974	n/a	n/a	0	0	0
2098516	REC_WORD	wordpools/wasnorm_wordpool_576.txt	LTP311	ltpFR2	8	10	PACKAGE	997	n/a	n/a	0	0	0
2099423	REC_WORD	wordpools/wasnorm_wordpool_576.txt	LTP311	ltpFR2	8	10	STICKER	1382	n/a	n/a	0	0	0
2103335	REC_WORD	wordpools/wasnorm_wordpool_576.txt	LTP311	ltpFR2	8	10	CRUTCH	417	n/a	n/a	0	0	0
2104864	REC_WORD	wordpools/wasnorm_wordpool_576.txt	LTP311	ltpFR2	8	10	LEG	809	n/a	n/a	0	0	0
2106315	REC_WORD	wordpools/wasnorm_wordpool_576.txt	LTP311	ltpFR2	8	10	RECEIPT	1173	n/a	n/a	0	0	0
2112297	REC_WORD	wordpools/wasnorm_wordpool_576.txt	LTP311	ltpFR2	8	10	CIGAR	308	n/a	n/a	0	0	0
2165619	WORD	wordpools/wasnorm_wordpool_576.txt	LTP311	ltpFR2	8	11	CUPBOARD	425	n/a	n/a	0	0	0
2168389	WORD	wordpools/wasnorm_wordpool_576.txt	LTP311	ltpFR2	8	11	SHORTCAKE	1292	n/a	n/a	0	0	0
2171192	WORD	wordpools/wasnorm_wordpool_576.txt	LTP311	ltpFR2	8	11	TABLE	1426	n/a	n/a	0	0	0
2173826	WORD	wordpools/wasnorm_wordpool_576.txt	LTP311	ltpFR2	8	11	MATTRESS	879	n/a	n/a	0	0	0
2176529	WORD	wordpools/wasnorm_wordpool_576.txt	LTP311	ltpFR2	8	11	MEAT	883	n/a	n/a	0	0	0
2179115	WORD	wordpools/wasnorm_wordpool_576.txt	LTP311	ltpFR2	8	11	TWEEZERS	1526	n/a	n/a	0	0	0
2181934	WORD	wordpools/wasnorm_wordpool_576.txt	LTP311	ltpFR2	8	11	CHEST	295	n/a	n/a	0	0	0
2184369	WORD	wordpools/wasnorm_wordpool_576.txt	LTP311	ltpFR2	8	11	POSSUM	1112	n/a	n/a	0	0	0
2186837	WORD	wordpools/wasnorm_wordpool_576.txt	LTP311	ltpFR2	8	11	BRANDY	169	n/a	n/a	0	0	0
2189373	WORD	wordpools/wasnorm_wordpool_576.txt	LTP311	ltpFR2	8	11	BROOK	177	n/a	n/a	0	0	0
2192008	WORD	wordpools/wasnorm_wordpool_576.txt	LTP311	ltpFR2	8	11	BRANCH	168	n/a	n/a	0	0	0
2194677	WORD	wordpools/wasnorm_wordpool_576.txt	LTP311	ltpFR2	8	11	AWARD	63	n/a	n/a	0	0	0
2197428	WORD	wordpools/wasnorm_wordpool_576.txt	LTP311	ltpFR2	8	11	WITNESS	1618	n/a	n/a	0	0	0
2200115	WORD	wordpools/wasnorm_wordpool_576.txt	LTP311	ltpFR2	8	11	XEROX	1628	n/a	n/a	0	0	0
2202903	WORD	wordpools/wasnorm_wordpool_576.txt	LTP311	ltpFR2	8	11	FUNGUS	614	n/a	n/a	0	0	0
2205369	WORD	wordpools/wasnorm_wordpool_576.txt	LTP311	ltpFR2	8	11	BEAKER	104	n/a	n/a	0	0	0
2207956	WORD	wordpools/wasnorm_wordpool_576.txt	LTP311	ltpFR2	8	11	TWISTER	1530	n/a	n/a	0	0	0
2210523	WORD	wordpools/wasnorm_wordpool_576.txt	LTP311	ltpFR2	8	11	GRILL	661	n/a	n/a	0	0	0
2213191	WORD	wordpools/wasnorm_wordpool_576.txt	LTP311	ltpFR2	8	11	EYELASH	546	n/a	n/a	0	0	0
2215814	WORD	wordpools/wasnorm_wordpool_576.txt	LTP311	ltpFR2	8	11	LOFT	840	n/a	n/a	0	0	0
2218629	WORD	wordpools/wasnorm_wordpool_576.txt	LTP311	ltpFR2	8	11	BATHTUB	100	n/a	n/a	0	0	0
2221052	WORD	wordpools/wasnorm_wordpool_576.txt	LTP311	ltpFR2	8	11	NIGHTGOWN	953	n/a	n/a	0	0	0
2223534	WORD	wordpools/wasnorm_wordpool_576.txt	LTP311	ltpFR2	8	11	HAWK	692	n/a	n/a	0	0	0
2226286	WORD	wordpools/wasnorm_wordpool_576.txt	LTP311	ltpFR2	8	11	EAGLE	512	n/a	n/a	0	0	0
2227891	START	n/a	LTP311	ltpFR2	8	n/a	n/a	n/a	17	n/a	n/a	n/a	n/a
2228944	DISTRACTOR	n/a	LTP311	ltpFR2	8	11	n/a	n/a	n/a	n/a	0	0	0
2228954	PROB	n/a	LTP311	ltpFR2	8	n/a	n/a	n/a	17	9	1	7	1
2230203	PROB	n/a	LTP311	ltpFR2	8	n/a	n/a	n/a	17	7	3	2	2
2231706	PROB	n/a	LTP311	ltpFR2	8	n/a	n/a	n/a	17	15	3	8	4
2233492	PROB	n/a	LTP311	ltpFR2	8	n/a	n/a	n/a	17	16	8	3	5
2235058	PROB	n/a	LTP311	ltpFR2	8	n/a	n/a	n/a	17	18	2	9	7
2236759	PROB	n/a	LTP311	ltpFR2	8	n/a	n/a	n/a	17	11	4	4	3
2238561	PROB	n/a	LTP311	ltpFR2	8	n/a	n/a	n/a	17	21	3	9	9
2240295	PROB	n/a	LTP311	ltpFR2	8	n/a	n/a	n/a	17	19	7	7	6
2242314	PROB	n/a	LTP311	ltpFR2	8	n/a	n/a	n/a	17	18	3	8	7
2245850	PROB	n/a	LTP311	ltpFR2	8	n/a	n/a	n/a	17	16	8	4	4
2249002	PROB	n/a	LTP311	ltpFR2	8	n/a	n/a	n/a	17	14	5	7	2
2251223	STOP	n/a	LTP311	ltpFR2	8	n/a	n/a	n/a	17	n/a	n/a	n/a	n/a
2253725	REC_START	n/a	LTP311	ltpFR2	8	11	n/a	n/a	n/a	n/a	0	0	0
2261686	REC_WORD	wordpools/wasnorm_wordpool_576.txt	LTP311	ltpFR2	8	11	BRANCH	168	n/a	n/a	0	0	0
2262615	REC_WORD	wordpools/wasnorm_wordpool_576.txt	LTP311	ltpFR2	8	11	BEAKER	104	n/a	n/a	0	0	0
2263700	REC_WORD	wordpools/wasnorm_wordpool_576.txt	LTP311	ltpFR2	8	11	BROOK	177	n/a	n/a	0	0	0
2264504	REC_WORD	wordpools/wasnorm_wordpool_576.txt	LTP311	ltpFR2	8	11	AWARD	63	n/a	n/a	0	0	0
2265756	REC_WORD	wordpools/wasnorm_wordpool_576.txt	LTP311	ltpFR2	8	11	WITNESS	1618	n/a	n/a	0	0	0
2274230	REC_WORD	wordpools/wasnorm_wordpool_576.txt	LTP311	ltpFR2	8	11	CUPBOARD	425	n/a	n/a	0	0	0
2375605	WORD	wordpools/wasnorm_wordpool_576.txt	LTP311	ltpFR2	8	12	CITRUS	313	n/a	n/a	0	0	0
2378139	WORD	wordpools/wasnorm_wordpool_576.txt	LTP311	ltpFR2	8	12	MARROW	872	n/a	n/a	0	0	0
2380674	WORD	wordpools/wasnorm_wordpool_576.txt	LTP311	ltpFR2	8	12	LADDER	793	n/a	n/a	0	0	0
2383126	WORD	wordpools/wasnorm_wordpool_576.txt	LTP311	ltpFR2	8	12	VALVE	1546	n/a	n/a	0	0	0
2385695	WORD	wordpools/wasnorm_wordpool_576.txt	LTP311	ltpFR2	8	12	VELVET	1555	n/a	n/a	0	0	0
2388497	WORD	wordpools/wasnorm_wordpool_576.txt	LTP311	ltpFR2	8	12	VAGRANT	1544	n/a	n/a	0	0	0
2391183	WORD	wordpools/wasnorm_wordpool_576.txt	LTP311	ltpFR2	8	12	NOMAD	955	n/a	n/a	0	0	0
2393702	WORD	wordpools/wasnorm_wordpool_576.txt	LTP311	ltpFR2	8	12	WOMAN	1620	n/a	n/a	0	0	0
2396438	WORD	wordpools/wasnorm_wordpool_576.txt	LTP311	ltpFR2	8	12	BODY	145	n/a	n/a	0	0	0
2399073	WORD	wordpools/wasnorm_wordpool_576.txt	LTP311	ltpFR2	8	12	BELLY	119	n/a	n/a	0	0	0
2401559	WORD	wordpools/wasnorm_wordpool_576.txt	LTP311	ltpFR2	8	12	MESSAGE	888	n/a	n/a	0	0	0
2404328	WORD	wordpools/wasnorm_wordpool_576.txt	LTP311	ltpFR2	8	12	FIREMAN	569	n/a	n/a	0	0	0
2406847	WORD	wordpools/wasnorm_wordpool_576.txt	LTP311	ltpFR2	8	12	TART	1436	n/a	n/a	0	0	0
2409299	WORD	wordpools/wasnorm_wordpool_576.txt	LTP311	ltpFR2	8	12	PRIMATE	1123	n/a	n/a	0	0	0
2412051	WORD	wordpools/wasnorm_wordpool_576.txt	LTP311	ltpFR2	8	12	COLONEL	348	n/a	n/a	0	0	0
2414603	WORD	wordpools/wasnorm_wordpool_576.txt	LTP311	ltpFR2	8	12	WAITRESS	1581	n/a	n/a	0	0	0
2417089	WORD	wordpools/wasnorm_wordpool_576.txt	LTP311	ltpFR2	8	12	SILK	1307	n/a	n/a	0	0	0
2419809	WORD	wordpools/wasnorm_wordpool_576.txt	LTP311	ltpFR2	8	12	LEADER	807	n/a	n/a	0	0	0
2422310	WORD	wordpools/wasnorm_wordpool_576.txt	LTP311	ltpFR2	8	12	PICNIC	1060	n/a	n/a	0	0	0
2424795	WORD	wordpools/wasnorm_wordpool_576.txt	LTP311	ltpFR2	8	12	SEAGULL	1261	n/a	n/a	0	0	0
2427580	WORD	wordpools/wasnorm_wordpool_576.txt	LTP311	ltpFR2	8	12	ROBIN	1199	n/a	n/a	0	0	0
2430216	WORD	wordpools/wasnorm_wordpool_576.txt	LTP311	ltpFR2	8	12	PARENT	1013	n/a	n/a	0	0	0
2432918	WORD	wordpools/wasnorm_wordpool_576.txt	LTP311	ltpFR2	8	12	OFFICE	972	n/a	n/a	0	0	0
2435437	WORD	wordpools/wasnorm_wordpool_576.txt	LTP311	ltpFR2	8	12	SUPPER	1411	n/a	n/a	0	0	0
2437055	START	n/a	LTP311	ltpFR2	8	n/a	n/a	n/a	18	n/a	n/a	n/a	n/a
2438253	DISTRACTOR	n/a	LTP311	ltpFR2	8	12	n/a	n/a	n/a	n/a	0	0	0
2438258	PROB	n/a	LTP311	ltpFR2	8	n/a	n/a	n/a	18	16	7	7	2
2439906	PROB	n/a	LTP311	ltpFR2	8	n/a	n/a	n/a	18	10	6	1	3
2442474	PROB	n/a	LTP311	ltpFR2	8	n/a	n/a	n/a	18	6	2	2	2
2444127	PROB	n/a	LTP311	ltpFR2	8	n/a	n/a	n/a	18	13	6	4	3
2446011	PROB	n/a	LTP311	ltpFR2	8	n/a	n/a	n/a	18	13	5	7	1
2449280	PROB	n/a	LTP311	ltpFR2	8	n/a	n/a	n/a	18	15	3	3	9
2450814	PROB	n/a	LTP311	ltpFR2	8	n/a	n/a	n/a	18	12	3	7	2
2453268	PROB	n/a	LTP311	ltpFR2	8	n/a	n/a	n/a	18	20	6	8	6
2455034	PROB	n/a	LTP311	ltpFR2	8	n/a	n/a	n/a	18	17	5	9	3
2457436	PROB	n/a	LTP311	ltpFR2	8	n/a	n/a	n/a	18	21	3	9	9
2461055	STOP	n/a	LTP311	ltpFR2	8	n/a	n/a	n/a	18	n/a	n/a	n/a	n/a
2462875	REC_START	n/a	LTP311	ltpFR2	8	12	n/a	n/a	n/a	n/a	0	0	0
2474890	REC_WORD	wordpools/wasnorm_wordpool_576.txt	LTP311	ltpFR2	8	12	CITRUS	313	n/a	n/a	0	0	0
2476110	REC_WORD	wordpools/wasnorm_wordpool_576.txt	LTP311	ltpFR2	8	12	MARROW	872	n/a	n/a	0	0	0
2479968	REC_WORD	wordpools/wasnorm_wordpool_576.txt	LTP311	ltpFR2	8	12	VELVET	1555	n/a	n/a	0	0	0
2480716	REC_WORD	wordpools/wasnorm_wordpool_576.txt	LTP311	ltpFR2	8	12	VAGRANT	1544	n/a	n/a	0	0	0
2482268	REC_WORD	wordpools/wasnorm_wordpool_576.txt	LTP311	ltpFR2	8	12	VALVE	1546	n/a	n/a	0	0	0
2483260	REC_WORD	wordpools/wasnorm_wordpool_576.txt	LTP311	ltpFR2	8	12	LADDER	793	n/a	n/a	0	0	0
2484165	REC_WORD	wordpools/wasnorm_wordpool_576.txt	LTP311	ltpFR2	8	12	NOMAD	955	n/a	n/a	0	0	0
2485121	REC_WORD	wordpools/wasnorm_wordpool_576.txt	LTP311	ltpFR2	8	12	WOMAN	1620	n/a	n/a	0	0	0
2488974	REC_WORD	wordpools/wasnorm_wordpool_576.txt	LTP311	ltpFR2	8	12	BODY	145	n/a	n/a	0	0	0
2489749	REC_WORD	wordpools/wasnorm_wordpool_576.txt	LTP311	ltpFR2	8	12	BELLY	119	n/a	n/a	0	0	0
2490804	REC_WORD	wordpools/wasnorm_wordpool_576.txt	LTP311	ltpFR2	8	12	MESSAGE	888	n/a	n/a	0	0	0
2491716	REC_WORD	wordpools/wasnorm_wordpool_576.txt	LTP311	ltpFR2	8	12	FIREMAN	569	n/a	n/a	0	0	0
2493784	REC_WORD	wordpools/wasnorm_wordpool_576.txt	LTP311	ltpFR2	8	12	TART	1436	n/a	n/a	0	0	0
2494702	REC_WORD	wordpools/wasnorm_wordpool_576.txt	LTP311	ltpFR2	8	12	PRIMATE	1123	n/a	n/a	0	0	0
2496198	REC_WORD	wordpools/wasnorm_wordpool_576.txt	LTP311	ltpFR2	8	12	COLONEL	348	n/a	n/a	0	0	0
2500192	REC_WORD	wordpools/wasnorm_wordpool_576.txt	LTP311	ltpFR2	8	12	LEADER	807	n/a	n/a	0	0	0
2508172	REC_WORD	wordpools/wasnorm_wordpool_576.txt	LTP311	ltpFR2	8	12	SUPPER	1411	n/a	n/a	0	0	0
2553299	DISTRACTOR	n/a	LTP311	ltpFR2	8	13	n/a	n/a	n/a	n/a	0	0	0
2553299	START	n/a	LTP311	ltpFR2	8	n/a	n/a	n/a	19	n/a	n/a	n/a	n/a
2553314	PROB	n/a	LTP311	ltpFR2	8	n/a	n/a	n/a	19	21	8	8	5
2555731	PROB	n/a	LTP311	ltpFR2	8	n/a	n/a	n/a	19	13	8	4	1
2557450	PROB	n/a	LTP311	ltpFR2	8	n/a	n/a	n/a	19	14	3	3	8
2558850	PROB	n/a	LTP311	ltpFR2	8	n/a	n/a	n/a	19	19	6	7	6
2561237	PROB	n/a	LTP311	ltpFR2	8	n/a	n/a	n/a	19	21	9	4	8
2563089	PROB	n/a	LTP311	ltpFR2	8	n/a	n/a	n/a	19	12	6	5	1
2565674	PROB	n/a	LTP311	ltpFR2	8	n/a	n/a	n/a	19	18	2	8	8
2568175	PROB	n/a	LTP311	ltpFR2	8	n/a	n/a	n/a	19	16	1	7	8
2570276	PROB	n/a	LTP311	ltpFR2	8	n/a	n/a	n/a	19	23	6	9	8
2573014	PROB	n/a	LTP311	ltpFR2	8	n/a	n/a	n/a	19	212	6	9	7
2576300	STOP	n/a	LTP311	ltpFR2	8	n/a	n/a	n/a	19	n/a	n/a	n/a	n/a
2578280	WORD	wordpools/wasnorm_wordpool_576.txt	LTP311	ltpFR2	8	13	ARM	38	n/a	n/a	0	0	0
2581082	WORD	wordpools/wasnorm_wordpool_576.txt	LTP311	ltpFR2	8	13	WRIST	1626	n/a	n/a	0	0	0
2583635	WORD	wordpools/wasnorm_wordpool_576.txt	LTP311	ltpFR2	8	13	BLENDER	136	n/a	n/a	0	0	0
2586153	WORD	wordpools/wasnorm_wordpool_576.txt	LTP311	ltpFR2	8	13	PUPPY	1144	n/a	n/a	0	0	0
2588956	WORD	wordpools/wasnorm_wordpool_576.txt	LTP311	ltpFR2	8	13	JURY	766	n/a	n/a	0	0	0
2591541	WORD	wordpools/wasnorm_wordpool_576.txt	LTP311	ltpFR2	8	13	MOTEL	919	n/a	n/a	0	0	0
2594144	WORD	wordpools/wasnorm_wordpool_576.txt	LTP311	ltpFR2	8	13	DORM	488	n/a	n/a	0	0	0
2596650	WORD	wordpools/wasnorm_wordpool_576.txt	LTP311	ltpFR2	8	13	VALLEY	1545	n/a	n/a	0	0	0
2599402	WORD	wordpools/wasnorm_wordpool_576.txt	LTP311	ltpFR2	8	13	FIDDLE	561	n/a	n/a	0	0	0
2602150	WORD	wordpools/wasnorm_wordpool_576.txt	LTP311	ltpFR2	8	13	HUSBAND	728	n/a	n/a	0	0	0
2604669	WORD	wordpools/wasnorm_wordpool_576.txt	LTP311	ltpFR2	8	13	PLATE	1086	n/a	n/a	0	0	0
2607155	WORD	wordpools/wasnorm_wordpool_576.txt	LTP311	ltpFR2	8	13	BRACES	164	n/a	n/a	0	0	0
2609790	WORD	wordpools/wasnorm_wordpool_576.txt	LTP311	ltpFR2	8	13	SEAL	1262	n/a	n/a	0	0	0
2612326	WORD	wordpools/wasnorm_wordpool_576.txt	LTP311	ltpFR2	8	13	YOLK	1633	n/a	n/a	0	0	0
2614828	WORD	wordpools/wasnorm_wordpool_576.txt	LTP311	ltpFR2	8	13	PARTNER	1017	n/a	n/a	0	0	0
2617300	WORD	wordpools/wasnorm_wordpool_576.txt	LTP311	ltpFR2	8	13	AGENT	10	n/a	n/a	0	0	0
2619933	WORD	wordpools/wasnorm_wordpool_576.txt	LTP311	ltpFR2	8	13	DENTIST	447	n/a	n/a	0	0	0
2622651	WORD	wordpools/wasnorm_wordpool_576.txt	LTP311	ltpFR2	8	13	SHELF	1280	n/a	n/a	0	0	0
2625437	WORD	wordpools/wasnorm_wordpool_576.txt	LTP311	ltpFR2	8	13	SPARROW	1347	n/a	n/a	0	0	0
2627989	WORD	wordpools/wasnorm_wordpool_576.txt	LTP311	ltpFR2	8	13	TURKEY	1520	n/a	n/a	0	0	0
2630475	WORD	wordpools/wasnorm_wordpool_576.txt	LTP311	ltpFR2	8	13	POLICE	1098	n/a	n/a	0	0	0
2633278	WORD	wordpools/wasnorm_wordpool_576.txt	LTP311	ltpFR2	8	13	CHAMPAGNE	278	n/a	n/a	0	0	0
2635931	WORD	wordpools/wasnorm_wordpool_576.txt	LTP311	ltpFR2	8	13	DIME	466	n/a	n/a	0	0	0
2638482	WORD	wordpools/wasnorm_wordpool_576.txt	LTP311	ltpFR2	8	13	PEPPER	1047	n/a	n/a	0	0	0
2640101	START	n/a	LTP311	ltpFR2	8	n/a	n/a	n/a	20	n/a	n/a	n/a	n/a
2641008	DISTRACTOR	n/a	LTP311	ltpFR2	8	13	n/a	n/a	n/a	n/a	0	0	0
2641017	PROB	n/a	LTP311	ltpFR2	8	n/a	n/a	n/a	20	10	8	1	1
2642387	PROB	n/a	LTP311	ltpFR2	8	n/a	n/a	n/a	20	22	6	7	9
2645154	PROB	n/a	LTP311	ltpFR2	8	n/a	n/a	n/a	20	13	2	9	2
2646805	PROB	n/a	LTP311	ltpFR2	8	n/a	n/a	n/a	20	16	4	9	3
2648439	PROB	n/a	LTP311	ltpFR2	8	n/a	n/a	n/a	20	23	7	8	8
2650324	PROB	n/a	LTP311	ltpFR2	8	n/a	n/a	n/a	20	12	9	1	2
2652192	PROB	n/a	LTP311	ltpFR2	8	n/a	n/a	n/a	20	15	2	6	7
2654845	PROB	n/a	LTP311	ltpFR2	8	n/a	n/a	n/a	20	24	7	9	8
2656195	PROB	n/a	LTP311	ltpFR2	8	n/a	n/a	n/a	20	11	2	6	3
2658280	PROB	n/a	LTP311	ltpFR2	8	n/a	n/a	n/a	20	10	7	1	2
2659565	PROB	n/a	LTP311	ltpFR2	8	n/a	n/a	n/a	20	5	2	1	2
2660800	PROB	n/a	LTP311	ltpFR2	8	n/a	n/a	n/a	20	10	4	1	5
2664101	STOP	n/a	LTP311	ltpFR2	8	n/a	n/a	n/a	20	n/a	n/a	n/a	n/a
2665989	REC_START	n/a	LTP311	ltpFR2	8	13	n/a	n/a	n/a	n/a	0	0	0
2671146	REC_WORD	wordpools/wasnorm_wordpool_576.txt	LTP311	ltpFR2	8	13	ARM	38	n/a	n/a	0	0	0
2673277	REC_WORD	wordpools/wasnorm_wordpool_576.txt	LTP311	ltpFR2	8	13	WRIST	1626	n/a	n/a	0	0	0
2674249	REC_WORD	wordpools/wasnorm_wordpool_576.txt	LTP311	ltpFR2	8	13	BLENDER	136	n/a	n/a	0	0	0
2674885	REC_WORD	wordpools/wasnorm_wordpool_576.txt	LTP311	ltpFR2	8	13	PUPPY	1144	n/a	n/a	0	0	0
2675348	REC_WORD	wordpools/wasnorm_wordpool_576.txt	LTP311	ltpFR2	8	13	JURY	766	n/a	n/a	0	0	0
2676961	REC_WORD	wordpools/wasnorm_wordpool_576.txt	LTP311	ltpFR2	8	13	MOTEL	919	n/a	n/a	0	0	0
2678215	REC_WORD	wordpools/wasnorm_wordpool_576.txt	LTP311	ltpFR2	8	13	DORM	488	n/a	n/a	0	0	0
2679274	REC_WORD	wordpools/wasnorm_wordpool_576.txt	LTP311	ltpFR2	8	13	VALLEY	1545	n/a	n/a	0	0	0
2681784	REC_WORD	wordpools/wasnorm_wordpool_576.txt	LTP311	ltpFR2	8	13	FIDDLE	561	n/a	n/a	0	0	0
2682375	REC_WORD	wordpools/wasnorm_wordpool_576.txt	LTP311	ltpFR2	8	13	HUSBAND	728	n/a	n/a	0	0	0
2687969	REC_WORD	wordpools/wasnorm_wordpool_576.txt	LTP311	ltpFR2	8	13	PEPPER	1047	n/a	n/a	0	0	0
2688572	REC_WORD	wordpools/wasnorm_wordpool_576.txt	LTP311	ltpFR2	8	13	DIME	466	n/a	n/a	0	0	0
2756411	DISTRACTOR	n/a	LTP311	ltpFR2	8	14	n/a	n/a	n/a	n/a	0	0	0
2756411	START	n/a	LTP311	ltpFR2	8	n/a	n/a	n/a	21	n/a	n/a	n/a	n/a
2756426	PROB	n/a	LTP311	ltpFR2	8	n/a	n/a	n/a	21	20	8	5	7
2758310	PROB	n/a	LTP311	ltpFR2	8	n/a	n/a	n/a	21	16	5	4	7
2760712	PROB	n/a	LTP311	ltpFR2	8	n/a	n/a	n/a	21	18	9	5	4
2762264	PROB	n/a	LTP311	ltpFR2	8	n/a	n/a	n/a	21	18	7	8	3
2765267	PROB	n/a	LTP311	ltpFR2	8	n/a	n/a	n/a	21	13	5	1	7
2767519	PROB	n/a	LTP311	ltpFR2	8	n/a	n/a	n/a	21	14	5	4	5
2769053	PROB	n/a	LTP311	ltpFR2	8	n/a	n/a	n/a	21	15	5	9	1
2771790	PROB	n/a	LTP311	ltpFR2	8	n/a	n/a	n/a	21	18	9	2	7
2773323	PROB	n/a	LTP311	ltpFR2	8	n/a	n/a	n/a	21	21	7	8	6
2776393	PROB	n/a	LTP311	ltpFR2	8	n/a	n/a	n/a	21	15	1	5	9
2779132	STOP	n/a	LTP311	ltpFR2	8	n/a	n/a	n/a	21	n/a	n/a	n/a	n/a
2781531	WORD	wordpools/wasnorm_wordpool_576.txt	LTP311	ltpFR2	8	14	PARSLEY	1016	n/a	n/a	0	0	0
2784343	WORD	wordpools/wasnorm_wordpool_576.txt	LTP311	ltpFR2	8	14	RELISH	1183	n/a	n/a	0	0	0
2786811	WORD	wordpools/wasnorm_wordpool_576.txt	LTP311	ltpFR2	8	14	CREATURE	403	n/a	n/a	0	0	0
2789604	WORD	wordpools/wasnorm_wordpool_576.txt	LTP311	ltpFR2	8	14	BISON	131	n/a	n/a	0	0	0
2792299	WORD	wordpools/wasnorm_wordpool_576.txt	LTP311	ltpFR2	8	14	WIDOW	1608	n/a	n/a	0	0	0
2794802	WORD	wordpools/wasnorm_wordpool_576.txt	LTP311	ltpFR2	8	14	CABIN	211	n/a	n/a	0	0	0
2797344	WORD	wordpools/wasnorm_wordpool_576.txt	LTP311	ltpFR2	8	14	PASTA	1021	n/a	n/a	0	0	0
2799963	WORD	wordpools/wasnorm_wordpool_576.txt	LTP311	ltpFR2	8	14	EUROPE	541	n/a	n/a	0	0	0
2802748	WORD	wordpools/wasnorm_wordpool_576.txt	LTP311	ltpFR2	8	14	HANDBAG	684	n/a	n/a	0	0	0
2805461	WORD	wordpools/wasnorm_wordpool_576.txt	LTP311	ltpFR2	8	14	CHAPEL	280	n/a	n/a	0	0	0
2808163	WORD	wordpools/wasnorm_wordpool_576.txt	LTP311	ltpFR2	8	14	NEUTRON	947	n/a	n/a	0	0	0
2810833	WORD	wordpools/wasnorm_wordpool_576.txt	LTP311	ltpFR2	8	14	FRANCE	601	n/a	n/a	0	0	0
2813623	WORD	wordpools/wasnorm_wordpool_576.txt	LTP311	ltpFR2	8	14	GREASE	660	n/a	n/a	0	0	0
2816137	WORD	wordpools/wasnorm_wordpool_576.txt	LTP311	ltpFR2	8	14	DRIVER	499	n/a	n/a	0	0	0
2818923	WORD	wordpools/wasnorm_wordpool_576.txt	LTP311	ltpFR2	8	14	FLASHLIGHT	575	n/a	n/a	0	0	0
2821514	WORD	wordpools/wasnorm_wordpool_576.txt	LTP311	ltpFR2	8	14	RAFT	1159	n/a	n/a	0	0	0
2823994	WORD	wordpools/wasnorm_wordpool_576.txt	LTP311	ltpFR2	8	14	SPHINX	1349	n/a	n/a	0	0	0
2826462	WORD	wordpools/wasnorm_wordpool_576.txt	LTP311	ltpFR2	8	14	PANTHER	1009	n/a	n/a	0	0	0
2829097	WORD	wordpools/wasnorm_wordpool_576.txt	LTP311	ltpFR2	8	14	MISSILE	900	n/a	n/a	0	0	0
2831822	WORD	wordpools/wasnorm_wordpool_576.txt	LTP311	ltpFR2	8	14	TOMBSTONE	1478	n/a	n/a	0	0	0
2834335	WORD	wordpools/wasnorm_wordpool_576.txt	LTP311	ltpFR2	8	14	GRAPE	654	n/a	n/a	0	0	0
2836855	WORD	wordpools/wasnorm_wordpool_576.txt	LTP311	ltpFR2	8	14	TUTU	1524	n/a	n/a	0	0	0
2839661	WORD	wordpools/wasnorm_wordpool_576.txt	LTP311	ltpFR2	8	14	JUNGLE	764	n/a	n/a	0	0	0
2842242	WORD	wordpools/wasnorm_wordpool_576.txt	LTP311	ltpFR2	8	14	BULLET	194	n/a	n/a	0	0	0
2843849	START	n/a	LTP311	ltpFR2	8	n/a	n/a	n/a	22	n/a	n/a	n/a	n/a
2844773	DISTRACTOR	n/a	LTP311	ltpFR2	8	14	n/a	n/a	n/a	n/a	0	0	0
2844779	PROB	n/a	LTP311	ltpFR2	8	n/a	n/a	n/a	22	22	7	6	9
2848680	PROB	n/a	LTP311	ltpFR2	8	n/a	n/a	n/a	22	13	6	1	6
2850665	PROB	n/a	LTP311	ltpFR2	8	n/a	n/a	n/a	22	15	7	2	6
2852353	PROB	n/a	LTP311	ltpFR2	8	n/a	n/a	n/a	22	6	1	2	3
2853619	PROB	n/a	LTP311	ltpFR2	8	n/a	n/a	n/a	22	18	9	4	5
2855939	PROB	n/a	LTP311	ltpFR2	8	n/a	n/a	n/a	22	17	4	4	9
2857540	PROB	n/a	LTP311	ltpFR2	8	n/a	n/a	n/a	22	24	9	7	8
2858857	PROB	n/a	LTP311	ltpFR2	8	n/a	n/a	n/a	22	11	5	3	3
2860393	PROB	n/a	LTP311	ltpFR2	8	n/a	n/a	n/a	22	16	9	1	6
2862409	PROB	n/a	LTP311	ltpFR2	8	n/a	n/a	n/a	22	17	2	8	7
2864396	PROB	n/a	LTP311	ltpFR2	8	n/a	n/a	n/a	22	15	4	8	3
2866149	PROB	n/a	LTP311	ltpFR2	8	n/a	n/a	n/a	22	11	1	5	5
2867256	STOP	n/a	LTP311	ltpFR2	8	n/a	n/a	n/a	22	n/a	n/a	n/a	n/a
2869736	REC_START	n/a	LTP311	ltpFR2	8	14	n/a	n/a	n/a	n/a	0	0	0
2871150	REC_WORD	wordpools/wasnorm_wordpool_576.txt	LTP311	ltpFR2	8	14	PARSLEY	1016	n/a	n/a	0	0	0
2874070	REC_WORD	wordpools/wasnorm_wordpool_576.txt	LTP311	ltpFR2	8	14	RELISH	1183	n/a	n/a	0	0	0
2874967	REC_WORD	wordpools/wasnorm_wordpool_576.txt	LTP311	ltpFR2	8	14	CREATURE	403	n/a	n/a	0	0	0
2875715	REC_WORD	wordpools/wasnorm_wordpool_576.txt	LTP311	ltpFR2	8	14	BISON	131	n/a	n/a	0	0	0
2876553	REC_WORD	wordpools/wasnorm_wordpool_576.txt	LTP311	ltpFR2	8	14	WIDOW	1608	n/a	n/a	0	0	0
2877203	REC_WORD	wordpools/wasnorm_wordpool_576.txt	LTP311	ltpFR2	8	14	CABIN	211	n/a	n/a	0	0	0
2882979	REC_WORD	wordpools/wasnorm_wordpool_576.txt	LTP311	ltpFR2	8	14	TUTU	1524	n/a	n/a	0	0	0
2883584	REC_WORD	wordpools/wasnorm_wordpool_576.txt	LTP311	ltpFR2	8	14	GRAPE	654	n/a	n/a	0	0	0
2887621	REC_WORD	wordpools/wasnorm_wordpool_576.txt	LTP311	ltpFR2	8	14	EUROPE	541	n/a	n/a	0	0	0
2888458	REC_WORD	wordpools/wasnorm_wordpool_576.txt	LTP311	ltpFR2	8	14	TOMBSTONE	1478	n/a	n/a	0	0	0
2889391	REC_WORD	wordpools/wasnorm_wordpool_576.txt	LTP311	ltpFR2	8	14	GRAVE	658	n/a	n/a	0	0	0
2896040	REC_WORD	wordpools/wasnorm_wordpool_576.txt	LTP311	ltpFR2	8	14	SPHINX	1349	n/a	n/a	0	0	0
2960175	DISTRACTOR	n/a	LTP311	ltpFR2	8	15	n/a	n/a	n/a	n/a	0	0	0
2960175	START	n/a	LTP311	ltpFR2	8	n/a	n/a	n/a	23	n/a	n/a	n/a	n/a
2960190	PROB	n/a	LTP311	ltpFR2	8	n/a	n/a	n/a	23	5	1	2	2
2962107	PROB	n/a	LTP311	ltpFR2	8	n/a	n/a	n/a	23	11	7	3	1
2963376	PROB	n/a	LTP311	ltpFR2	8	n/a	n/a	n/a	23	15	5	2	8
2966561	PROB	n/a	LTP311	ltpFR2	8	n/a	n/a	n/a	23	11	6	2	3
2968531	PROB	n/a	LTP311	ltpFR2	8	n/a	n/a	n/a	23	9	6	2	1
2969898	PROB	n/a	LTP311	ltpFR2	8	n/a	n/a	n/a	23	15	3	3	9
2971716	PROB	n/a	LTP311	ltpFR2	8	n/a	n/a	n/a	23	12	4	5	3
2975703	PROB	n/a	LTP311	ltpFR2	8	n/a	n/a	n/a	23	21	5	7	9
2978038	PROB	n/a	LTP311	ltpFR2	8	n/a	n/a	n/a	23	19	1	9	9
2979556	PROB	n/a	LTP311	ltpFR2	8	n/a	n/a	n/a	23	13	5	4	4
2982308	PROB	n/a	LTP311	ltpFR2	8	n/a	n/a	n/a	23	11	3	1	7
2983548	STOP	n/a	LTP311	ltpFR2	8	n/a	n/a	n/a	23	n/a	n/a	n/a	n/a
2985311	WORD	wordpools/wasnorm_wordpool_576.txt	LTP311	ltpFR2	8	15	RECORD	1176	n/a	n/a	0	0	0
2988064	WORD	wordpools/wasnorm_wordpool_576.txt	LTP311	ltpFR2	8	15	SUBWAY	1400	n/a	n/a	0	0	0
2990665	WORD	wordpools/wasnorm_wordpool_576.txt	LTP311	ltpFR2	8	15	SANDWICH	1232	n/a	n/a	0	0	0
2993158	WORD	wordpools/wasnorm_wordpool_576.txt	LTP311	ltpFR2	8	15	WORKER	1621	n/a	n/a	0	0	0
2995910	WORD	wordpools/wasnorm_wordpool_576.txt	LTP311	ltpFR2	8	15	ZIPPER	1636	n/a	n/a	0	0	0
2998604	WORD	wordpools/wasnorm_wordpool_576.txt	LTP311	ltpFR2	8	15	BIKE	125	n/a	n/a	0	0	0
3001199	WORD	wordpools/wasnorm_wordpool_576.txt	LTP311	ltpFR2	8	15	DANDRUFF	439	n/a	n/a	0	0	0
3003676	WORD	wordpools/wasnorm_wordpool_576.txt	LTP311	ltpFR2	8	15	TUBA	1515	n/a	n/a	0	0	0
3006202	WORD	wordpools/wasnorm_wordpool_576.txt	LTP311	ltpFR2	8	15	EMPIRE	530	n/a	n/a	0	0	0
3008980	WORD	wordpools/wasnorm_wordpool_576.txt	LTP311	ltpFR2	8	15	CRAYON	401	n/a	n/a	0	0	0
3011516	WORD	wordpools/wasnorm_wordpool_576.txt	LTP311	ltpFR2	8	15	PIGMENT	1066	n/a	n/a	0	0	0
3013944	WORD	wordpools/wasnorm_wordpool_576.txt	LTP311	ltpFR2	8	15	FRAGRANCE	599	n/a	n/a	0	0	0
3016753	WORD	wordpools/wasnorm_wordpool_576.txt	LTP311	ltpFR2	8	15	RUG	1215	n/a	n/a	0	0	0
3019238	WORD	wordpools/wasnorm_wordpool_576.txt	LTP311	ltpFR2	8	15	DENIM	446	n/a	n/a	0	0	0
3021916	WORD	wordpools/wasnorm_wordpool_576.txt	LTP311	ltpFR2	8	15	SPIDER	1351	n/a	n/a	0	0	0
3024385	WORD	wordpools/wasnorm_wordpool_576.txt	LTP311	ltpFR2	8	15	TILE	1468	n/a	n/a	0	0	0
3026987	WORD	wordpools/wasnorm_wordpool_576.txt	LTP311	ltpFR2	8	15	SURVEY	1414	n/a	n/a	0	0	0
3029623	WORD	wordpools/wasnorm_wordpool_576.txt	LTP311	ltpFR2	8	15	JUDGE	761	n/a	n/a	0	0	0
3032342	WORD	wordpools/wasnorm_wordpool_576.txt	LTP311	ltpFR2	8	15	FOOT	590	n/a	n/a	0	0	0
3035051	WORD	wordpools/wasnorm_wordpool_576.txt	LTP311	ltpFR2	8	15	CLAMP	316	n/a	n/a	0	0	0
3037563	WORD	wordpools/wasnorm_wordpool_576.txt	LTP311	ltpFR2	8	15	MAILBOX	857	n/a	n/a	0	0	0
3040132	WORD	wordpools/wasnorm_wordpool_576.txt	LTP311	ltpFR2	8	15	LABEL	790	n/a	n/a	0	0	0
3042868	WORD	wordpools/wasnorm_wordpool_576.txt	LTP311	ltpFR2	8	15	BUBBLE	183	n/a	n/a	0	0	0
3045477	WORD	wordpools/wasnorm_wordpool_576.txt	LTP311	ltpFR2	8	15	PALACE	1006	n/a	n/a	0	0	0
3047089	START	n/a	LTP311	ltpFR2	8	n/a	n/a	n/a	24	n/a	n/a	n/a	n/a
3048210	DISTRACTOR	n/a	LTP311	ltpFR2	8	15	n/a	n/a	n/a	n/a	0	0	0
3048222	PROB	n/a	LTP311	ltpFR2	8	n/a	n/a	n/a	24	10	2	1	7
3049811	PROB	n/a	LTP311	ltpFR2	8	n/a	n/a	n/a	24	13	5	4	4
3052897	PROB	n/a	LTP311	ltpFR2	8	n/a	n/a	n/a	24	17	8	3	6
3055199	PROB	n/a	LTP311	ltpFR2	8	n/a	n/a	n/a	24	23	9	7	7
3057151	PROB	n/a	LTP311	ltpFR2	8	n/a	n/a	n/a	24	20	6	6	8
3059169	PROB	n/a	LTP311	ltpFR2	8	n/a	n/a	n/a	24	15	8	5	2
3060603	PROB	n/a	LTP311	ltpFR2	8	n/a	n/a	n/a	24	3	1	1	1
3061688	PROB	n/a	LTP311	ltpFR2	8	n/a	n/a	n/a	24	15	6	2	7
3064424	PROB	n/a	LTP311	ltpFR2	8	n/a	n/a	n/a	24	16	4	8	4
3067159	PROB	n/a	LTP311	ltpFR2	8	n/a	n/a	n/a	24	21	5	7	9
3069427	PROB	n/a	LTP311	ltpFR2	8	n/a	n/a	n/a	24	16	6	4	6
3071072	STOP	n/a	LTP311	ltpFR2	8	n/a	n/a	n/a	24	n/a	n/a	n/a	n/a
3072882	REC_START	n/a	LTP311	ltpFR2	8	15	n/a	n/a	n/a	n/a	0	0	0
3082432	REC_WORD	wordpools/wasnorm_wordpool_576.txt	LTP311	ltpFR2	8	15	SUBWAY	1400	n/a	n/a	0	0	0
3083999	REC_WORD	wordpools/wasnorm_wordpool_576.txt	LTP311	ltpFR2	8	15	SANDWICH	1232	n/a	n/a	0	0	0
3095706	REC_WORD	wordpools/wasnorm_wordpool_576.txt	LTP311	ltpFR2	8	15	CAMERA	224	n/a	n/a	0	0	0
3097014	REC_WORD	wordpools/wasnorm_wordpool_576.txt	LTP311	ltpFR2	8	15	WORKER	1621	n/a	n/a	0	0	0
3100275	REC_WORD	wordpools/wasnorm_wordpool_576.txt	LTP311	ltpFR2	8	15	ZIPPER	1636	n/a	n/a	0	0	0
3101980	REC_WORD	wordpools/wasnorm_wordpool_576.txt	LTP311	ltpFR2	8	15	BIKE	125	n/a	n/a	0	0	0
3103137	REC_WORD	wordpools/wasnorm_wordpool_576.txt	LTP311	ltpFR2	8	15	EMPIRE	530	n/a	n/a	0	0	0
3104946	REC_WORD	wordpools/wasnorm_wordpool_576.txt	LTP311	ltpFR2	8	15	CRAYON	401	n/a	n/a	0	0	0
3112252	REC_WORD	wordpools/wasnorm_wordpool_576.txt	LTP311	ltpFR2	8	15	FRAGRANCE	599	n/a	n/a	0	0	0
3117261	REC_WORD	wordpools/wasnorm_wordpool_576.txt	LTP311	ltpFR2	8	15	TILE	1468	n/a	n/a	0	0	0
3128057	REC_WORD	wordpools/wasnorm_wordpool_576.txt	LTP311	ltpFR2	8	15	JUDGE	761	n/a	n/a	0	0	0
3129161	REC_WORD	wordpools/wasnorm_wordpool_576.txt	LTP311	ltpFR2	8	15	CLAMP	316	n/a	n/a	0	0	0
3130141	REC_WORD	wordpools/wasnorm_wordpool_576.txt	LTP311	ltpFR2	8	15	FOOT	590	n/a	n/a	0	0	0
3133804	REC_WORD	wordpools/wasnorm_wordpool_576.txt	LTP311	ltpFR2	8	15	MAILBOX	857	n/a	n/a	0	0	0
3135144	REC_WORD	wordpools/wasnorm_wordpool_576.txt	LTP311	ltpFR2	8	15	LABEL	790	n/a	n/a	0	0	0
3136744	REC_WORD	wordpools/wasnorm_wordpool_576.txt	LTP311	ltpFR2	8	15	BUBBLE	183	n/a	n/a	0	0	0
3138247	REC_WORD	wordpools/wasnorm_wordpool_576.txt	LTP311	ltpFR2	8	15	PALACE	1006	n/a	n/a	0	0	0
3163338	DISTRACTOR	n/a	LTP311	ltpFR2	8	16	n/a	n/a	n/a	n/a	0	0	0
3163338	START	n/a	LTP311	ltpFR2	8	n/a	n/a	n/a	25	n/a	n/a	n/a	n/a
3163352	PROB	n/a	LTP311	ltpFR2	8	n/a	n/a	n/a	25	14	5	6	3
3165721	PROB	n/a	LTP311	ltpFR2	8	n/a	n/a	n/a	25	18	7	3	8
3167222	PROB	n/a	LTP311	ltpFR2	8	n/a	n/a	n/a	25	17	4	6	7
3169224	PROB	n/a	LTP311	ltpFR2	8	n/a	n/a	n/a	25	7	2	4	1
3170608	PROB	n/a	LTP311	ltpFR2	8	n/a	n/a	n/a	25	17	8	8	1
3172061	PROB	n/a	LTP311	ltpFR2	8	n/a	n/a	n/a	25	17	7	3	7
3174296	PROB	n/a	LTP311	ltpFR2	8	n/a	n/a	n/a	25	12	1	6	5
3175862	PROB	n/a	LTP311	ltpFR2	8	n/a	n/a	n/a	25	25	9	8	8
3178532	PROB	n/a	LTP311	ltpFR2	8	n/a	n/a	n/a	25	15	8	2	5
3180534	PROB	n/a	LTP311	ltpFR2	8	n/a	n/a	n/a	25	12	3	8	1
3183035	PROB	n/a	LTP311	ltpFR2	8	n/a	n/a	n/a	25	24	8	9	7
3184552	PROB	n/a	LTP311	ltpFR2	8	n/a	n/a	n/a	25	14	4	5	5
3187338	STOP	n/a	LTP311	ltpFR2	8	n/a	n/a	n/a	25	n/a	n/a	n/a	n/a
3188208	WORD	wordpools/wasnorm_wordpool_576.txt	LTP311	ltpFR2	8	16	SLUG	1329	n/a	n/a	0	0	0
3190815	WORD	wordpools/wasnorm_wordpool_576.txt	LTP311	ltpFR2	8	16	CRATER	400	n/a	n/a	0	0	0
3193310	WORD	wordpools/wasnorm_wordpool_576.txt	LTP311	ltpFR2	8	16	RATTLE	1170	n/a	n/a	0	0	0
3195897	WORD	wordpools/wasnorm_wordpool_576.txt	LTP311	ltpFR2	8	16	LAMP	798	n/a	n/a	0	0	0
3198604	WORD	wordpools/wasnorm_wordpool_576.txt	LTP311	ltpFR2	8	16	HELMET	702	n/a	n/a	0	0	0
3201089	WORD	wordpools/wasnorm_wordpool_576.txt	LTP311	ltpFR2	8	16	GANGSTER	620	n/a	n/a	0	0	0
3203553	WORD	wordpools/wasnorm_wordpool_576.txt	LTP311	ltpFR2	8	16	RIVER	1194	n/a	n/a	0	0	0
3206105	WORD	wordpools/wasnorm_wordpool_576.txt	LTP311	ltpFR2	8	16	FRECKLE	602	n/a	n/a	0	0	0
3208874	WORD	wordpools/wasnorm_wordpool_576.txt	LTP311	ltpFR2	8	16	SCARF	1246	n/a	n/a	0	0	0
3211626	WORD	wordpools/wasnorm_wordpool_576.txt	LTP311	ltpFR2	8	16	SNAIL	1332	n/a	n/a	0	0	0
3214245	WORD	wordpools/wasnorm_wordpool_576.txt	LTP311	ltpFR2	8	16	BUREAU	199	n/a	n/a	0	0	0
3216830	WORD	wordpools/wasnorm_wordpool_576.txt	LTP311	ltpFR2	8	16	YACHT	1629	n/a	n/a	0	0	0
3219415	WORD	wordpools/wasnorm_wordpool_576.txt	LTP311	ltpFR2	8	16	TUNNEL	1519	n/a	n/a	0	0	0
3221917	WORD	wordpools/wasnorm_wordpool_576.txt	LTP311	ltpFR2	8	16	AUTHOR	61	n/a	n/a	0	0	0
3224726	WORD	wordpools/wasnorm_wordpool_576.txt	LTP311	ltpFR2	8	16	JOURNAL	760	n/a	n/a	0	0	0
3227488	WORD	wordpools/wasnorm_wordpool_576.txt	LTP311	ltpFR2	8	16	CATCHER	258	n/a	n/a	0	0	0
3230191	WORD	wordpools/wasnorm_wordpool_576.txt	LTP311	ltpFR2	8	16	LAVA	804	n/a	n/a	0	0	0
3232977	WORD	wordpools/wasnorm_wordpool_576.txt	LTP311	ltpFR2	8	16	LIGHTNING	820	n/a	n/a	0	0	0
3235720	WORD	wordpools/wasnorm_wordpool_576.txt	LTP311	ltpFR2	8	16	MONEY	908	n/a	n/a	0	0	0
3238248	WORD	wordpools/wasnorm_wordpool_576.txt	LTP311	ltpFR2	8	16	INMATE	738	n/a	n/a	0	0	0
3240941	WORD	wordpools/wasnorm_wordpool_576.txt	LTP311	ltpFR2	8	16	PLAID	1080	n/a	n/a	0	0	0
3243467	WORD	wordpools/wasnorm_wordpool_576.txt	LTP311	ltpFR2	8	16	BRAKE	166	n/a	n/a	0	0	0
3246103	WORD	wordpools/wasnorm_wordpool_576.txt	LTP311	ltpFR2	8	16	DASHBOARD	441	n/a	n/a	0	0	0
3248680	WORD	wordpools/wasnorm_wordpool_576.txt	LTP311	ltpFR2	8	16	PERCH	1048	n/a	n/a	0	0	0
3250291	START	n/a	LTP311	ltpFR2	8	n/a	n/a	n/a	26	n/a	n/a	n/a	n/a
3251139	DISTRACTOR	n/a	LTP311	ltpFR2	8	16	n/a	n/a	n/a	n/a	0	0	0
3251149	PROB	n/a	LTP311	ltpFR2	8	n/a	n/a	n/a	26	14	7	6	1
3253776	PROB	n/a	LTP311	ltpFR2	8	n/a	n/a	n/a	26	16	9	3	4
3256394	PROB	n/a	LTP311	ltpFR2	8	n/a	n/a	n/a	26	25	8	9	8
3258478	PROB	n/a	LTP311	ltpFR2	8	n/a	n/a	n/a	26	16	4	6	6
3260015	PROB	n/a	LTP311	ltpFR2	8	n/a	n/a	n/a	26	16	2	9	5
3262533	PROB	n/a	LTP311	ltpFR2	8	n/a	n/a	n/a	26	10	2	2	6
3263867	PROB	n/a	LTP311	ltpFR2	8	n/a	n/a	n/a	26	19	6	9	4
3265718	PROB	n/a	LTP311	ltpFR2	8	n/a	n/a	n/a	26	15	6	8	1
3267386	PROB	n/a	LTP311	ltpFR2	8	n/a	n/a	n/a	26	10	1	5	4
3269038	PROB	n/a	LTP311	ltpFR2	8	n/a	n/a	n/a	26	12	3	8	1
3270738	PROB	n/a	LTP311	ltpFR2	8	n/a	n/a	n/a	26	8	4	1	3
3272872	STOP	n/a	LTP311	ltpFR2	8	n/a	n/a	n/a	26	n/a	n/a	n/a	n/a
3276178	REC_START	n/a	LTP311	ltpFR2	8	16	n/a	n/a	n/a	n/a	0	0	0
3281109	REC_WORD	wordpools/wasnorm_wordpool_576.txt	LTP311	ltpFR2	8	16	HELMET	702	n/a	n/a	0	0	0
3282600	REC_WORD	wordpools/wasnorm_wordpool_576.txt	LTP311	ltpFR2	8	16	CRATER	400	n/a	n/a	0	0	0
3294851	REC_WORD	wordpools/wasnorm_wordpool_576.txt	LTP311	ltpFR2	8	16	GANGSTER	620	n/a	n/a	0	0	0
3300187	REC_WORD	wordpools/wasnorm_wordpool_576.txt	LTP311	ltpFR2	8	16	RIVER	1194	n/a	n/a	0	0	0
3310253	REC_WORD	wordpools/wasnorm_wordpool_576.txt	LTP311	ltpFR2	8	16	BUREAU	199	n/a	n/a	0	0	0
3310787	REC_WORD	wordpools/wasnorm_wordpool_576.txt	LTP311	ltpFR2	8	16	SNAIL	1332	n/a	n/a	0	0	0
3311850	REC_WORD	wordpools/wasnorm_wordpool_576.txt	LTP311	ltpFR2	8	16	YACHT	1629	n/a	n/a	0	0	0
3316250	REC_WORD	wordpools/wasnorm_wordpool_576.txt	LTP311	ltpFR2	8	16	FRECKLE	602	n/a	n/a	0	0	0
3352721	REST_REWET	n/a	LTP311	ltpFR2	8	16	n/a	n/a	n/a	n/a	0	0	0
3514300	WORD	wordpools/wasnorm_wordpool_576.txt	LTP311	ltpFR2	8	17	SUMMIT	1405	n/a	n/a	0	0	0
3517114	WORD	wordpools/wasnorm_wordpool_576.txt	LTP311	ltpFR2	8	17	KNIFE	785	n/a	n/a	0	0	0
3519857	WORD	wordpools/wasnorm_wordpool_576.txt	LTP311	ltpFR2	8	17	PADDLE	1000	n/a	n/a	0	0	0
3522436	WORD	wordpools/wasnorm_wordpool_576.txt	LTP311	ltpFR2	8	17	ROBOT	1200	n/a	n/a	0	0	0
3525128	WORD	wordpools/wasnorm_wordpool_576.txt	LTP311	ltpFR2	8	17	HIKER	708	n/a	n/a	0	0	0
3527706	WORD	wordpools/wasnorm_wordpool_576.txt	LTP311	ltpFR2	8	17	BEAVER	109	n/a	n/a	0	0	0
3530426	WORD	wordpools/wasnorm_wordpool_576.txt	LTP311	ltpFR2	8	17	LION	827	n/a	n/a	0	0	0
3533062	WORD	wordpools/wasnorm_wordpool_576.txt	LTP311	ltpFR2	8	17	CONTRACT	368	n/a	n/a	0	0	0
3535636	WORD	wordpools/wasnorm_wordpool_576.txt	LTP311	ltpFR2	8	17	WASP	1593	n/a	n/a	0	0	0
3538138	WORD	wordpools/wasnorm_wordpool_576.txt	LTP311	ltpFR2	8	17	ACTOR	5	n/a	n/a	0	0	0
3540936	WORD	wordpools/wasnorm_wordpool_576.txt	LTP311	ltpFR2	8	17	CONCERT	360	n/a	n/a	0	0	0
3543520	WORD	wordpools/wasnorm_wordpool_576.txt	LTP311	ltpFR2	8	17	MONSTER	912	n/a	n/a	0	0	0
3546327	WORD	wordpools/wasnorm_wordpool_576.txt	LTP311	ltpFR2	8	17	LIPSTICK	829	n/a	n/a	0	0	0
3548797	WORD	wordpools/wasnorm_wordpool_576.txt	LTP311	ltpFR2	8	17	OUTFIT	988	n/a	n/a	0	0	0
3551377	WORD	wordpools/wasnorm_wordpool_576.txt	LTP311	ltpFR2	8	17	CLOTHES	327	n/a	n/a	0	0	0
3554113	WORD	wordpools/wasnorm_wordpool_576.txt	LTP311	ltpFR2	8	17	CONVICT	371	n/a	n/a	0	0	0
3556582	WORD	wordpools/wasnorm_wordpool_576.txt	LTP311	ltpFR2	8	17	ROCKET	1202	n/a	n/a	0	0	0
3559168	WORD	wordpools/wasnorm_wordpool_576.txt	LTP311	ltpFR2	8	17	JUGGLER	763	n/a	n/a	0	0	0
3561770	WORD	wordpools/wasnorm_wordpool_576.txt	LTP311	ltpFR2	8	17	TRIBE	1505	n/a	n/a	0	0	0
3564539	WORD	wordpools/wasnorm_wordpool_576.txt	LTP311	ltpFR2	8	17	HORNET	718	n/a	n/a	0	0	0
3567208	WORD	wordpools/wasnorm_wordpool_576.txt	LTP311	ltpFR2	8	17	NOTEBOOK	959	n/a	n/a	0	0	0
3569877	WORD	wordpools/wasnorm_wordpool_576.txt	LTP311	ltpFR2	8	17	BADGE	68	n/a	n/a	0	0	0
3572580	WORD	wordpools/wasnorm_wordpool_576.txt	LTP311	ltpFR2	8	17	CRIB	407	n/a	n/a	0	0	0
3575331	WORD	wordpools/wasnorm_wordpool_576.txt	LTP311	ltpFR2	8	17	POWDER	1117	n/a	n/a	0	0	0
3576938	START	n/a	LTP311	ltpFR2	8	n/a	n/a	n/a	27	n/a	n/a	n/a	n/a
3577890	DISTRACTOR	n/a	LTP311	ltpFR2	8	17	n/a	n/a	n/a	n/a	0	0	0
3577900	PROB	n/a	LTP311	ltpFR2	8	n/a	n/a	n/a	27	7	1	1	5
3579604	PROB	n/a	LTP311	ltpFR2	8	n/a	n/a	n/a	27	17	8	7	2
3581872	PROB	n/a	LTP311	ltpFR2	8	n/a	n/a	n/a	27	19	5	7	7
3583655	PROB	n/a	LTP311	ltpFR2	8	n/a	n/a	n/a	27	25	8	8	9
3585759	PROB	n/a	LTP311	ltpFR2	8	n/a	n/a	n/a	27	19	4	8	7
3587493	PROB	n/a	LTP311	ltpFR2	8	n/a	n/a	n/a	27	10	5	2	3
3589410	PROB	n/a	LTP311	ltpFR2	8	n/a	n/a	n/a	27	15	7	2	6
3592765	PROB	n/a	LTP311	ltpFR2	8	n/a	n/a	n/a	27	11	7	2	2
3594165	PROB	n/a	LTP311	ltpFR2	8	n/a	n/a	n/a	27	11	7	1	3
3595448	PROB	n/a	LTP311	ltpFR2	8	n/a	n/a	n/a	27	16	9	2	5
3597318	PROB	n/a	LTP311	ltpFR2	8	n/a	n/a	n/a	27	18	4	5	9
3599035	PROB	n/a	LTP311	ltpFR2	8	n/a	n/a	n/a	27	13	6	6	1
3600205	STOP	n/a	LTP311	ltpFR2	8	n/a	n/a	n/a	27	n/a	n/a	n/a	n/a
3602891	REC_START	n/a	LTP311	ltpFR2	8	17	n/a	n/a	n/a	n/a	0	0	0
3607328	REC_WORD	wordpools/wasnorm_wordpool_576.txt	LTP311	ltpFR2	8	17	HIKER	708	n/a	n/a	0	0	0
3608503	REC_WORD	wordpools/wasnorm_wordpool_576.txt	LTP311	ltpFR2	8	17	BEAVER	109	n/a	n/a	0	0	0
3609687	REC_WORD	wordpools/wasnorm_wordpool_576.txt	LTP311	ltpFR2	8	17	LION	827	n/a	n/a	0	0	0
3611272	REC_WORD	wordpools/wasnorm_wordpool_576.txt	LTP311	ltpFR2	8	17	SUMMIT	1405	n/a	n/a	0	0	0
3612749	REC_WORD	wordpools/wasnorm_wordpool_576.txt	LTP311	ltpFR2	8	17	KNIFE	785	n/a	n/a	0	0	0
3613578	REC_WORD	wordpools/wasnorm_wordpool_576.txt	LTP311	ltpFR2	8	17	PADDLE	1000	n/a	n/a	0	0	0
3614409	REC_WORD	wordpools/wasnorm_wordpool_576.txt	LTP311	ltpFR2	8	17	ROBOT	1200	n/a	n/a	0	0	0
3615964	REC_WORD	wordpools/wasnorm_wordpool_576.txt	LTP311	ltpFR2	8	17	CONTRACT	368	n/a	n/a	0	0	0
3617682	REC_WORD	wordpools/wasnorm_wordpool_576.txt	LTP311	ltpFR2	8	17	WASP	1593	n/a	n/a	0	0	0
3620925	REC_WORD	wordpools/wasnorm_wordpool_576.txt	LTP311	ltpFR2	8	17	MONSTER	912	n/a	n/a	0	0	0
3621718	REC_WORD	wordpools/wasnorm_wordpool_576.txt	LTP311	ltpFR2	8	17	ACTOR	5	n/a	n/a	0	0	0
3631388	REC_WORD	wordpools/wasnorm_wordpool_576.txt	LTP311	ltpFR2	8	17	OUTFIT	988	n/a	n/a	0	0	0
3632064	REC_WORD	wordpools/wasnorm_wordpool_576.txt	LTP311	ltpFR2	8	17	LIPSTICK	829	n/a	n/a	0	0	0
3633179	REC_WORD	wordpools/wasnorm_wordpool_576.txt	LTP311	ltpFR2	8	17	CLOTHES	327	n/a	n/a	0	0	0
3642323	REC_WORD	wordpools/wasnorm_wordpool_576.txt	LTP311	ltpFR2	8	17	CONVICT	371	n/a	n/a	0	0	0
3643662	REC_WORD	wordpools/wasnorm_wordpool_576.txt	LTP311	ltpFR2	8	17	ROCKET	1202	n/a	n/a	0	0	0
3645737	REC_WORD	wordpools/wasnorm_wordpool_576.txt	LTP311	ltpFR2	8	17	JUGGLER	763	n/a	n/a	0	0	0
3648636	REC_WORD	wordpools/wasnorm_wordpool_576.txt	LTP311	ltpFR2	8	17	NOTEBOOK	959	n/a	n/a	0	0	0
3649333	REC_WORD	wordpools/wasnorm_wordpool_576.txt	LTP311	ltpFR2	8	17	HORNET	718	n/a	n/a	0	0	0
3693327	WORD	wordpools/wasnorm_wordpool_576.txt	LTP311	ltpFR2	8	18	GOBLIN	645	n/a	n/a	0	0	0
3695881	WORD	wordpools/wasnorm_wordpool_576.txt	LTP311	ltpFR2	8	18	PIANO	1057	n/a	n/a	0	0	0
3698689	WORD	wordpools/wasnorm_wordpool_576.txt	LTP311	ltpFR2	8	18	SHOVEL	1295	n/a	n/a	0	0	0
3701358	WORD	wordpools/wasnorm_wordpool_576.txt	LTP311	ltpFR2	8	18	STOVE	1388	n/a	n/a	0	0	0
3704038	WORD	wordpools/wasnorm_wordpool_576.txt	LTP311	ltpFR2	8	18	RACKET	1155	n/a	n/a	0	0	0
3706746	WORD	wordpools/wasnorm_wordpool_576.txt	LTP311	ltpFR2	8	18	FLUTE	585	n/a	n/a	0	0	0
3709492	WORD	wordpools/wasnorm_wordpool_576.txt	LTP311	ltpFR2	8	18	SCISSORS	1250	n/a	n/a	0	0	0
3712228	WORD	wordpools/wasnorm_wordpool_576.txt	LTP311	ltpFR2	8	18	SCALPEL	1243	n/a	n/a	0	0	0
3714880	WORD	wordpools/wasnorm_wordpool_576.txt	LTP311	ltpFR2	8	18	STALLION	1369	n/a	n/a	0	0	0
3717615	WORD	wordpools/wasnorm_wordpool_576.txt	LTP311	ltpFR2	8	18	PORTRAIT	1111	n/a	n/a	0	0	0
3720134	WORD	wordpools/wasnorm_wordpool_576.txt	LTP311	ltpFR2	8	18	PLASTER	1085	n/a	n/a	0	0	0
3722794	WORD	wordpools/wasnorm_wordpool_576.txt	LTP311	ltpFR2	8	18	PAIL	1002	n/a	n/a	0	0	0
3725213	WORD	wordpools/wasnorm_wordpool_576.txt	LTP311	ltpFR2	8	18	LOVER	846	n/a	n/a	0	0	0
3727831	WORD	wordpools/wasnorm_wordpool_576.txt	LTP311	ltpFR2	8	18	BALLOON	75	n/a	n/a	0	0	0
3730293	WORD	wordpools/wasnorm_wordpool_576.txt	LTP311	ltpFR2	8	18	PLIERS	1089	n/a	n/a	0	0	0
3733036	WORD	wordpools/wasnorm_wordpool_576.txt	LTP311	ltpFR2	8	18	WRENCH	1625	n/a	n/a	0	0	0
3735738	WORD	wordpools/wasnorm_wordpool_576.txt	LTP311	ltpFR2	8	18	SOFTBALL	1343	n/a	n/a	0	0	0
3738307	WORD	wordpools/wasnorm_wordpool_576.txt	LTP311	ltpFR2	8	18	ORANGE	980	n/a	n/a	0	0	0
3741051	WORD	wordpools/wasnorm_wordpool_576.txt	LTP311	ltpFR2	8	18	KEEPER	769	n/a	n/a	0	0	0
3743845	WORD	wordpools/wasnorm_wordpool_576.txt	LTP311	ltpFR2	8	18	BOUQUET	157	n/a	n/a	0	0	0
3746631	WORD	wordpools/wasnorm_wordpool_576.txt	LTP311	ltpFR2	8	18	HARP	689	n/a	n/a	0	0	0
3749150	WORD	wordpools/wasnorm_wordpool_576.txt	LTP311	ltpFR2	8	18	BUGGY	188	n/a	n/a	0	0	0
3751803	WORD	wordpools/wasnorm_wordpool_576.txt	LTP311	ltpFR2	8	18	CANYON	235	n/a	n/a	0	0	0
3754305	WORD	wordpools/wasnorm_wordpool_576.txt	LTP311	ltpFR2	8	18	TROMBONE	1508	n/a	n/a	0	0	0
3755914	START	n/a	LTP311	ltpFR2	8	n/a	n/a	n/a	28	n/a	n/a	n/a	n/a
3756875	DISTRACTOR	n/a	LTP311	ltpFR2	8	18	n/a	n/a	n/a	n/a	0	0	0
3756880	PROB	n/a	LTP311	ltpFR2	8	n/a	n/a	n/a	28	12	5	3	4
3759797	PROB	n/a	LTP311	ltpFR2	8	n/a	n/a	n/a	28	8	1	2	5
3761016	PROB	n/a	LTP311	ltpFR2	8	n/a	n/a	n/a	28	15	6	3	6
3762484	PROB	n/a	LTP311	ltpFR2	8	n/a	n/a	n/a	28	20	9	7	4
3765468	PROB	n/a	LTP311	ltpFR2	8	n/a	n/a	n/a	28	14	4	2	8
3768473	PROB	n/a	LTP311	ltpFR2	8	n/a	n/a	n/a	28	23	6	8	9
3771192	PROB	n/a	LTP311	ltpFR2	8	n/a	n/a	n/a	28	6	2	3	1
3772625	PROB	n/a	LTP311	ltpFR2	8	n/a	n/a	n/a	28	10	5	4	1
3774194	PROB	n/a	LTP311	ltpFR2	8	n/a	n/a	n/a	28	22	8	6	8
3776345	PROB	n/a	LTP311	ltpFR2	8	n/a	n/a	n/a	28	10	5	3	2
3778064	PROB	n/a	LTP311	ltpFR2	8	n/a	n/a	n/a	28	11	1	9	1
3779172	STOP	n/a	LTP311	ltpFR2	8	n/a	n/a	n/a	28	n/a	n/a	n/a	n/a
3781717	REC_START	n/a	LTP311	ltpFR2	8	18	n/a	n/a	n/a	n/a	0	0	0
3782948	REC_WORD	wordpools/wasnorm_wordpool_576.txt	LTP311	ltpFR2	8	18	GOBLIN	645	n/a	n/a	0	0	0
3785924	REC_WORD	wordpools/wasnorm_wordpool_576.txt	LTP311	ltpFR2	8	18	STOVE	1388	n/a	n/a	0	0	0
3788091	REC_WORD	wordpools/wasnorm_wordpool_576.txt	LTP311	ltpFR2	8	18	FLUTE	585	n/a	n/a	0	0	0
3812080	REC_WORD	wordpools/wasnorm_wordpool_576.txt	LTP311	ltpFR2	8	18	BOUQUET	157	n/a	n/a	0	0	0
3852051	REC_WORD	wordpools/wasnorm_wordpool_576.txt	LTP311	ltpFR2	8	18	ORANGE	980	n/a	n/a	0	0	0
3852958	REC_WORD	wordpools/wasnorm_wordpool_576.txt	LTP311	ltpFR2	8	18	LOVER	846	n/a	n/a	0	0	0
3853551	REC_WORD	wordpools/wasnorm_wordpool_576.txt	LTP311	ltpFR2	8	18	PAIL	1002	n/a	n/a	0	0	0
3872188	WORD	wordpools/wasnorm_wordpool_576.txt	LTP311	ltpFR2	8	19	FLIPPER	580	n/a	n/a	0	0	0
3874674	WORD	wordpools/wasnorm_wordpool_576.txt	LTP311	ltpFR2	8	19	POCKET	1093	n/a	n/a	0	0	0
3877360	WORD	wordpools/wasnorm_wordpool_576.txt	LTP311	ltpFR2	8	19	TWIG	1527	n/a	n/a	0	0	0
3879862	WORD	wordpools/wasnorm_wordpool_576.txt	LTP311	ltpFR2	8	19	GAVEL	627	n/a	n/a	0	0	0
3882547	WORD	wordpools/wasnorm_wordpool_576.txt	LTP311	ltpFR2	8	19	FEMALE	559	n/a	n/a	0	0	0
3885369	WORD	wordpools/wasnorm_wordpool_576.txt	LTP311	ltpFR2	8	19	LONDON	843	n/a	n/a	0	0	0
3888019	WORD	wordpools/wasnorm_wordpool_576.txt	LTP311	ltpFR2	8	19	BANK	83	n/a	n/a	0	0	0
3890738	WORD	wordpools/wasnorm_wordpool_576.txt	LTP311	ltpFR2	8	19	SNACK	1331	n/a	n/a	0	0	0
3893189	WORD	wordpools/wasnorm_wordpool_576.txt	LTP311	ltpFR2	8	19	GUARD	667	n/a	n/a	0	0	0
3895841	WORD	wordpools/wasnorm_wordpool_576.txt	LTP311	ltpFR2	8	19	KIDNEY	776	n/a	n/a	0	0	0
3898314	WORD	wordpools/wasnorm_wordpool_576.txt	LTP311	ltpFR2	8	19	OZONE	996	n/a	n/a	0	0	0
3901096	WORD	wordpools/wasnorm_wordpool_576.txt	LTP311	ltpFR2	8	19	DUSTPAN	509	n/a	n/a	0	0	0
3903698	WORD	wordpools/wasnorm_wordpool_576.txt	LTP311	ltpFR2	8	19	DUST	508	n/a	n/a	0	0	0
3906254	WORD	wordpools/wasnorm_wordpool_576.txt	LTP311	ltpFR2	8	19	APPLE	33	n/a	n/a	0	0	0
3908772	WORD	wordpools/wasnorm_wordpool_576.txt	LTP311	ltpFR2	8	19	PASTRY	1022	n/a	n/a	0	0	0
3911337	WORD	wordpools/wasnorm_wordpool_576.txt	LTP311	ltpFR2	8	19	BANKER	84	n/a	n/a	0	0	0
3913959	WORD	wordpools/wasnorm_wordpool_576.txt	LTP311	ltpFR2	8	19	STATUE	1374	n/a	n/a	0	0	0
3916508	WORD	wordpools/wasnorm_wordpool_576.txt	LTP311	ltpFR2	8	19	SNAKE	1333	n/a	n/a	0	0	0
3919281	WORD	wordpools/wasnorm_wordpool_576.txt	LTP311	ltpFR2	8	19	DAUGHTER	442	n/a	n/a	0	0	0
3921879	WORD	wordpools/wasnorm_wordpool_576.txt	LTP311	ltpFR2	8	19	GIRL	637	n/a	n/a	0	0	0
3924303	WORD	wordpools/wasnorm_wordpool_576.txt	LTP311	ltpFR2	8	19	MISTER	901	n/a	n/a	0	0	0
3926787	WORD	wordpools/wasnorm_wordpool_576.txt	LTP311	ltpFR2	8	19	LADY	794	n/a	n/a	0	0	0
3929357	WORD	wordpools/wasnorm_wordpool_576.txt	LTP311	ltpFR2	8	19	TAXI	1438	n/a	n/a	0	0	0
3932088	WORD	wordpools/wasnorm_wordpool_576.txt	LTP311	ltpFR2	8	19	CURTAIN	427	n/a	n/a	0	0	0
3933695	START	n/a	LTP311	ltpFR2	8	n/a	n/a	n/a	29	n/a	n/a	n/a	n/a
3934718	DISTRACTOR	n/a	LTP311	ltpFR2	8	19	n/a	n/a	n/a	n/a	0	0	0
3934723	PROB	n/a	LTP311	ltpFR2	8	n/a	n/a	n/a	29	13	4	7	2
3937540	PROB	n/a	LTP311	ltpFR2	8	n/a	n/a	n/a	29	11	6	2	3
3939108	PROB	n/a	LTP311	ltpFR2	8	n/a	n/a	n/a	29	18	6	7	5
3941244	PROB	n/a	LTP311	ltpFR2	8	n/a	n/a	n/a	29	19	9	5	5
3942528	PROB	n/a	LTP311	ltpFR2	8	n/a	n/a	n/a	29	21	5	7	9
3945782	PROB	n/a	LTP311	ltpFR2	8	n/a	n/a	n/a	29	13	6	1	6
3947549	PROB	n/a	LTP311	ltpFR2	8	n/a	n/a	n/a	29	25	7	8	8
3949385	PROB	n/a	LTP311	ltpFR2	8	n/a	n/a	n/a	29	22	5	9	8
3953352	PROB	n/a	LTP311	ltpFR2	8	n/a	n/a	n/a	29	16	1	9	6
3955455	PROB	n/a	LTP311	ltpFR2	8	n/a	n/a	n/a	29	17	9	5	3
3957163	STOP	n/a	LTP311	ltpFR2	8	n/a	n/a	n/a	29	n/a	n/a	n/a	n/a
3959478	REC_START	n/a	LTP311	ltpFR2	8	19	n/a	n/a	n/a	n/a	0	0	0
3964399	REC_WORD	wordpools/wasnorm_wordpool_576.txt	LTP311	ltpFR2	8	19	POCKET	1093	n/a	n/a	0	0	0
3967610	REC_WORD	wordpools/wasnorm_wordpool_576.txt	LTP311	ltpFR2	8	19	FLIPPER	580	n/a	n/a	0	0	0
3970167	REC_WORD	wordpools/wasnorm_wordpool_576.txt	LTP311	ltpFR2	8	19	TWIG	1527	n/a	n/a	0	0	0
3971096	REC_WORD	wordpools/wasnorm_wordpool_576.txt	LTP311	ltpFR2	8	19	GAVEL	627	n/a	n/a	0	0	0
3972280	REC_WORD	wordpools/wasnorm_wordpool_576.txt	LTP311	ltpFR2	8	19	LONDON	843	n/a	n/a	0	0	0
3973553	REC_WORD	wordpools/wasnorm_wordpool_576.txt	LTP311	ltpFR2	8	19	BANK	83	n/a	n/a	0	0	0
3974884	REC_WORD	wordpools/wasnorm_wordpool_576.txt	LTP311	ltpFR2	8	19	SNACK	1331	n/a	n/a	0	0	0
3977102	REC_WORD	wordpools/wasnorm_wordpool_576.txt	LTP311	ltpFR2	8	19	APPLE	33	n/a	n/a	0	0	0
3978636	REC_WORD	wordpools/wasnorm_wordpool_576.txt	LTP311	ltpFR2	8	19	PASTRY	1022	n/a	n/a	0	0	0
3981022	REC_WORD	wordpools/wasnorm_wordpool_576.txt	LTP311	ltpFR2	8	19	STATUE	1374	n/a	n/a	0	0	0
3986247	REC_WORD	wordpools/wasnorm_wordpool_576.txt	LTP311	ltpFR2	8	19	BANKER	84	n/a	n/a	0	0	0
3989142	REC_WORD	wordpools/wasnorm_wordpool_576.txt	LTP311	ltpFR2	8	19	SNAKE	1333	n/a	n/a	0	0	0
3992198	REC_WORD	wordpools/wasnorm_wordpool_576.txt	LTP311	ltpFR2	8	19	MISTER	901	n/a	n/a	0	0	0
3993206	REC_WORD	wordpools/wasnorm_wordpool_576.txt	LTP311	ltpFR2	8	19	DAUGHTER	442	n/a	n/a	0	0	0
3994288	REC_WORD	wordpools/wasnorm_wordpool_576.txt	LTP311	ltpFR2	8	19	GIRL	637	n/a	n/a	0	0	0
3995548	REC_WORD	wordpools/wasnorm_wordpool_576.txt	LTP311	ltpFR2	8	19	LADY	794	n/a	n/a	0	0	0
3996654	REC_WORD	wordpools/wasnorm_wordpool_576.txt	LTP311	ltpFR2	8	19	TAXI	1438	n/a	n/a	0	0	0
4004341	REC_WORD	wordpools/wasnorm_wordpool_576.txt	LTP311	ltpFR2	8	19	CURTAIN	427	n/a	n/a	0	0	0
4049896	DISTRACTOR	n/a	LTP311	ltpFR2	8	20	n/a	n/a	n/a	n/a	0	0	0
4049896	START	n/a	LTP311	ltpFR2	8	n/a	n/a	n/a	30	n/a	n/a	n/a	n/a
4049910	PROB	n/a	LTP311	ltpFR2	8	n/a	n/a	n/a	30	7	2	1	4
4051295	PROB	n/a	LTP311	ltpFR2	8	n/a	n/a	n/a	30	8	2	4	2
4052897	PROB	n/a	LTP311	ltpFR2	8	n/a	n/a	n/a	30	19	8	3	9
4055031	PROB	n/a	LTP311	ltpFR2	8	n/a	n/a	n/a	30	10	2	7	1
4057033	PROB	n/a	LTP311	ltpFR2	8	n/a	n/a	n/a	30	14	1	6	7
4058487	PROB	n/a	LTP311	ltpFR2	8	n/a	n/a	n/a	30	15	7	4	4
4060087	PROB	n/a	LTP311	ltpFR2	8	n/a	n/a	n/a	30	17	9	3	5
4063056	PROB	n/a	LTP311	ltpFR2	8	n/a	n/a	n/a	30	19	5	7	7
4064523	PROB	n/a	LTP311	ltpFR2	8	n/a	n/a	n/a	30	5	2	1	2
4065658	PROB	n/a	LTP311	ltpFR2	8	n/a	n/a	n/a	30	14	3	4	7
4066929	PROB	n/a	LTP311	ltpFR2	8	n/a	n/a	n/a	30	12	2	3	7
4068744	PROB	n/a	LTP311	ltpFR2	8	n/a	n/a	n/a	30	22	5	8	9
4072967	STOP	n/a	LTP311	ltpFR2	8	n/a	n/a	n/a	30	n/a	n/a	n/a	n/a
4075034	WORD	wordpools/wasnorm_wordpool_576.txt	LTP311	ltpFR2	8	20	FLASK	576	n/a	n/a	0	0	0
4077803	WORD	wordpools/wasnorm_wordpool_576.txt	LTP311	ltpFR2	8	20	MARKET	871	n/a	n/a	0	0	0
4080255	WORD	wordpools/wasnorm_wordpool_576.txt	LTP311	ltpFR2	8	20	UNCLE	1536	n/a	n/a	0	0	0
4082790	WORD	wordpools/wasnorm_wordpool_576.txt	LTP311	ltpFR2	8	20	CHURCH	307	n/a	n/a	0	0	0
4085242	WORD	wordpools/wasnorm_wordpool_576.txt	LTP311	ltpFR2	8	20	COOKBOOK	373	n/a	n/a	0	0	0
4087862	WORD	wordpools/wasnorm_wordpool_576.txt	LTP311	ltpFR2	8	20	BANJO	82	n/a	n/a	0	0	0
4090664	WORD	wordpools/wasnorm_wordpool_576.txt	LTP311	ltpFR2	8	20	DONOR	485	n/a	n/a	0	0	0
4093433	WORD	wordpools/wasnorm_wordpool_576.txt	LTP311	ltpFR2	8	20	JELLY	755	n/a	n/a	0	0	0
4096219	WORD	wordpools/wasnorm_wordpool_576.txt	LTP311	ltpFR2	8	20	KLEENEX	782	n/a	n/a	0	0	0
4098971	WORD	wordpools/wasnorm_wordpool_576.txt	LTP311	ltpFR2	8	20	STAR	1373	n/a	n/a	0	0	0
4101756	WORD	wordpools/wasnorm_wordpool_576.txt	LTP311	ltpFR2	8	20	TROUT	1511	n/a	n/a	0	0	0
4104325	WORD	wordpools/wasnorm_wordpool_576.txt	LTP311	ltpFR2	8	20	COCKTAIL	338	n/a	n/a	0	0	0
4107144	WORD	wordpools/wasnorm_wordpool_576.txt	LTP311	ltpFR2	8	20	SCOTCH	1251	n/a	n/a	0	0	0
4109864	WORD	wordpools/wasnorm_wordpool_576.txt	LTP311	ltpFR2	8	20	GARLIC	624	n/a	n/a	0	0	0
4112349	WORD	wordpools/wasnorm_wordpool_576.txt	LTP311	ltpFR2	8	20	CARRIAGE	248	n/a	n/a	0	0	0
4115035	WORD	wordpools/wasnorm_wordpool_576.txt	LTP311	ltpFR2	8	20	PROTON	1132	n/a	n/a	0	0	0
4117720	WORD	wordpools/wasnorm_wordpool_576.txt	LTP311	ltpFR2	8	20	COUSIN	392	n/a	n/a	0	0	0
4120271	WORD	wordpools/wasnorm_wordpool_576.txt	LTP311	ltpFR2	8	20	MEDAL	885	n/a	n/a	0	0	0
4122890	WORD	wordpools/wasnorm_wordpool_576.txt	LTP311	ltpFR2	8	20	NECKLACE	940	n/a	n/a	0	0	0
4125459	WORD	wordpools/wasnorm_wordpool_576.txt	LTP311	ltpFR2	8	20	FRUIT	610	n/a	n/a	0	0	0
4128194	WORD	wordpools/wasnorm_wordpool_576.txt	LTP311	ltpFR2	8	20	SAUSAGE	1238	n/a	n/a	0	0	0
4130863	WORD	wordpools/wasnorm_wordpool_576.txt	LTP311	ltpFR2	8	20	CATTLE	261	n/a	n/a	0	0	0
4133352	WORD	wordpools/wasnorm_wordpool_576.txt	LTP311	ltpFR2	8	20	ATLAS	53	n/a	n/a	0	0	0
4136051	WORD	wordpools/wasnorm_wordpool_576.txt	LTP311	ltpFR2	8	20	ANKLE	24	n/a	n/a	0	0	0
4137670	START	n/a	LTP311	ltpFR2	8	n/a	n/a	n/a	31	n/a	n/a	n/a	n/a
4138644	DISTRACTOR	n/a	LTP311	ltpFR2	8	20	n/a	n/a	n/a	n/a	0	0	0
4138654	PROB	n/a	LTP311	ltpFR2	8	n/a	n/a	n/a	31	17	6	2	9
4141021	PROB	n/a	LTP311	ltpFR2	8	n/a	n/a	n/a	31	16	4	7	5
4143638	PROB	n/a	LTP311	ltpFR2	8	n/a	n/a	n/a	31	25	8	8	9
4145608	PROB	n/a	LTP311	ltpFR2	8	n/a	n/a	n/a	31	19	8	7	4
4147610	PROB	n/a	LTP311	ltpFR2	8	n/a	n/a	n/a	31	20	6	7	7
4149311	PROB	n/a	LTP311	ltpFR2	8	n/a	n/a	n/a	31	13	3	3	7
4150895	PROB	n/a	LTP311	ltpFR2	8	n/a	n/a	n/a	31	13	4	6	3
4152680	PROB	n/a	LTP311	ltpFR2	8	n/a	n/a	n/a	31	16	4	6	6
4154297	PROB	n/a	LTP311	ltpFR2	8	n/a	n/a	n/a	31	10	6	2	2
4156232	PROB	n/a	LTP311	ltpFR2	8	n/a	n/a	n/a	31	21	5	9	7
4159401	PROB	n/a	LTP311	ltpFR2	8	n/a	n/a	n/a	31	11	1	9	1
4160475	STOP	n/a	LTP311	ltpFR2	8	n/a	n/a	n/a	31	n/a	n/a	n/a	n/a
4163522	REC_START	n/a	LTP311	ltpFR2	8	20	n/a	n/a	n/a	n/a	0	0	0
4185310	REC_WORD	wordpools/wasnorm_wordpool_576.txt	LTP311	ltpFR2	8	20	PROTON	1132	n/a	n/a	0	0	0
4186099	REC_WORD	wordpools/wasnorm_wordpool_576.txt	LTP311	ltpFR2	8	20	KLEENEX	782	n/a	n/a	0	0	0
4187112	REC_WORD	wordpools/wasnorm_wordpool_576.txt	LTP311	ltpFR2	8	20	JELLY	755	n/a	n/a	0	0	0
4188120	REC_WORD	wordpools/wasnorm_wordpool_576.txt	LTP311	ltpFR2	8	20	DONOR	485	n/a	n/a	0	0	0
4192042	REC_WORD	wordpools/wasnorm_wordpool_576.txt	LTP311	ltpFR2	8	20	STAR	1373	n/a	n/a	0	0	0
4202300	REC_WORD	wordpools/wasnorm_wordpool_576.txt	LTP311	ltpFR2	8	20	SAUSAGE	1238	n/a	n/a	0	0	0
4202830	REC_WORD	wordpools/wasnorm_wordpool_576.txt	LTP311	ltpFR2	8	20	FRUIT	610	n/a	n/a	0	0	0
4203391	REC_WORD	wordpools/wasnorm_wordpool_576.txt	LTP311	ltpFR2	8	20	CATTLE	261	n/a	n/a	0	0	0
4253960	WORD	wordpools/wasnorm_wordpool_576.txt	LTP311	ltpFR2	8	21	EGYPT	519	n/a	n/a	0	0	0
4256709	WORD	wordpools/wasnorm_wordpool_576.txt	LTP311	ltpFR2	8	21	CAMEL	223	n/a	n/a	0	0	0
4259394	WORD	wordpools/wasnorm_wordpool_576.txt	LTP311	ltpFR2	8	21	FOREHEAD	592	n/a	n/a	0	0	0
4261920	WORD	wordpools/wasnorm_wordpool_576.txt	LTP311	ltpFR2	8	21	WORLD	1622	n/a	n/a	0	0	0
4264704	WORD	wordpools/wasnorm_wordpool_576.txt	LTP311	ltpFR2	8	21	POET	1095	n/a	n/a	0	0	0
4267218	WORD	wordpools/wasnorm_wordpool_576.txt	LTP311	ltpFR2	8	21	BRIEFCASE	175	n/a	n/a	0	0	0
4269826	WORD	wordpools/wasnorm_wordpool_576.txt	LTP311	ltpFR2	8	21	COFFEE	341	n/a	n/a	0	0	0
4272422	WORD	wordpools/wasnorm_wordpool_576.txt	LTP311	ltpFR2	8	21	CLOCK	325	n/a	n/a	0	0	0
4275062	WORD	wordpools/wasnorm_wordpool_576.txt	LTP311	ltpFR2	8	21	SPACE	1345	n/a	n/a	0	0	0
4277810	WORD	wordpools/wasnorm_wordpool_576.txt	LTP311	ltpFR2	8	21	GRAVE	658	n/a	n/a	0	0	0
4280246	WORD	wordpools/wasnorm_wordpool_576.txt	LTP311	ltpFR2	8	21	NURSE	963	n/a	n/a	0	0	0
4282881	WORD	wordpools/wasnorm_wordpool_576.txt	LTP311	ltpFR2	8	21	SWAMP	1416	n/a	n/a	0	0	0
4285400	WORD	wordpools/wasnorm_wordpool_576.txt	LTP311	ltpFR2	8	21	PUDDLE	1140	n/a	n/a	0	0	0
4287868	WORD	wordpools/wasnorm_wordpool_576.txt	LTP311	ltpFR2	8	21	CASKET	255	n/a	n/a	0	0	0
4290321	WORD	wordpools/wasnorm_wordpool_576.txt	LTP311	ltpFR2	8	21	SISTER	1312	n/a	n/a	0	0	0
4292977	WORD	wordpools/wasnorm_wordpool_576.txt	LTP311	ltpFR2	8	21	SIBLING	1301	n/a	n/a	0	0	0
4295659	WORD	wordpools/wasnorm_wordpool_576.txt	LTP311	ltpFR2	8	21	OMELET	976	n/a	n/a	0	0	0
4298245	WORD	wordpools/wasnorm_wordpool_576.txt	LTP311	ltpFR2	8	21	WHISTLE	1606	n/a	n/a	0	0	0
4300947	WORD	wordpools/wasnorm_wordpool_576.txt	LTP311	ltpFR2	8	21	BARREL	91	n/a	n/a	0	0	0
4303515	WORD	wordpools/wasnorm_wordpool_576.txt	LTP311	ltpFR2	8	21	COURSE	390	n/a	n/a	0	0	0
4306122	WORD	wordpools/wasnorm_wordpool_576.txt	LTP311	ltpFR2	8	21	MAPLE	866	n/a	n/a	0	0	0
4308754	WORD	wordpools/wasnorm_wordpool_576.txt	LTP311	ltpFR2	8	21	LUGGAGE	847	n/a	n/a	0	0	0
4311306	WORD	wordpools/wasnorm_wordpool_576.txt	LTP311	ltpFR2	8	21	BABY	64	n/a	n/a	0	0	0
4313892	WORD	wordpools/wasnorm_wordpool_576.txt	LTP311	ltpFR2	8	21	GLASS	639	n/a	n/a	0	0	0
4315511	START	n/a	LTP311	ltpFR2	8	n/a	n/a	n/a	32	n/a	n/a	n/a	n/a
4316398	DISTRACTOR	n/a	LTP311	ltpFR2	8	21	n/a	n/a	n/a	n/a	0	0	0
4316411	PROB	n/a	LTP311	ltpFR2	8	n/a	n/a	n/a	32	22	8	5	9
4319798	PROB	n/a	LTP311	ltpFR2	8	n/a	n/a	n/a	32	18	7	9	2
4321565	PROB	n/a	LTP311	ltpFR2	8	n/a	n/a	n/a	32	13	1	7	5
4323685	PROB	n/a	LTP311	ltpFR2	8	n/a	n/a	n/a	32	23	6	9	8
4326053	PROB	n/a	LTP311	ltpFR2	8	n/a	n/a	n/a	32	8	4	2	2
4327521	PROB	n/a	LTP311	ltpFR2	8	n/a	n/a	n/a	32	20	6	6	8
4329923	PROB	n/a	LTP311	ltpFR2	8	n/a	n/a	n/a	32	12	2	5	5
4331190	PROB	n/a	LTP311	ltpFR2	8	n/a	n/a	n/a	32	16	5	3	8
4332875	PROB	n/a	LTP311	ltpFR2	8	n/a	n/a	n/a	32	21	9	5	7
4334943	PROB	n/a	LTP311	ltpFR2	8	n/a	n/a	n/a	32	14	2	3	9
4337212	PROB	n/a	LTP311	ltpFR2	8	n/a	n/a	n/a	32	7	1	5	1
4338210	STOP	n/a	LTP311	ltpFR2	8	n/a	n/a	n/a	32	n/a	n/a	n/a	n/a
4341299	REC_START	n/a	LTP311	ltpFR2	8	21	n/a	n/a	n/a	n/a	0	0	0
4345205	REC_WORD	wordpools/wasnorm_wordpool_576.txt	LTP311	ltpFR2	8	21	CAMEL	223	n/a	n/a	0	0	0
4346281	REC_WORD	wordpools/wasnorm_wordpool_576.txt	LTP311	ltpFR2	8	21	EGYPT	519	n/a	n/a	0	0	0
4347303	REC_WORD	wordpools/wasnorm_wordpool_576.txt	LTP311	ltpFR2	8	21	FOREHEAD	592	n/a	n/a	0	0	0
4348804	REC_WORD	wordpools/wasnorm_wordpool_576.txt	LTP311	ltpFR2	8	21	WORLD	1622	n/a	n/a	0	0	0
4349888	REC_WORD	wordpools/wasnorm_wordpool_576.txt	LTP311	ltpFR2	8	21	BRIEFCASE	175	n/a	n/a	0	0	0
