mstime	trial_type	stim_file	subject	experiment	session	trial	task	item_name	item_num	recog_resp	recog_conf	resp	color_r	color_g	color_b	case	font
0	SESS_START	n/a	LTP248	ltpFR	3	n/a	n/a	n/a	n/a	1	5	n/a	n/a	n/a	n/a	n/a	n/a
48293	WORD	wordpools/wasnorm_wordpool_less_exclusions.txt	LTP248	ltpFR	3	1	0	LOBSTER	837	0	n/a	0	0.422607421875	0.5869140625	0	lower	amplitud.ttf
52187	WORD	wordpools/wasnorm_wordpool_less_exclusions.txt	LTP248	ltpFR	3	1	0	PLAID	1080	n/a	n/a	0	0.422607421875	0.5869140625	0	lower	amplitud.ttf
56398	WORD	wordpools/wasnorm_wordpool_less_exclusions.txt	LTP248	ltpFR	3	1	0	OX	994	n/a	n/a	1	0.422607421875	0.5869140625	0	lower	amplitud.ttf
60458	WORD	wordpools/wasnorm_wordpool_less_exclusions.txt	LTP248	ltpFR	3	1	0	DETERGENT	455	n/a	n/a	0	0.422607421875	0.5869140625	0	lower	amplitud.ttf
64635	WORD	wordpools/wasnorm_wordpool_less_exclusions.txt	LTP248	ltpFR	3	1	1	SHUTTER	1300	n/a	n/a	0	0.57763671875	0.412841796875	1	upper	zerothre.ttf
68613	WORD	wordpools/wasnorm_wordpool_less_exclusions.txt	LTP248	ltpFR	3	1	1	GUITAR	670	n/a	n/a	0	0.57763671875	0.412841796875	1	upper	zerothre.ttf
72475	WORD	wordpools/wasnorm_wordpool_less_exclusions.txt	LTP248	ltpFR	3	1	0	TOAST	1471	n/a	n/a	0	0.422607421875	0.5869140625	0	lower	amplitud.ttf
76634	WORD	wordpools/wasnorm_wordpool_less_exclusions.txt	LTP248	ltpFR	3	1	0	VACUUM	1543	n/a	n/a	0	0.422607421875	0.5869140625	0	lower	amplitud.ttf
80513	WORD	wordpools/wasnorm_wordpool_less_exclusions.txt	LTP248	ltpFR	3	1	0	FLANNEL	574	n/a	n/a	0	0.422607421875	0.5869140625	0	lower	amplitud.ttf
84689	WORD	wordpools/wasnorm_wordpool_less_exclusions.txt	LTP248	ltpFR	3	1	0	OFFICER	973	n/a	n/a	1	0.422607421875	0.5869140625	0	lower	amplitud.ttf
88716	WORD	wordpools/wasnorm_wordpool_less_exclusions.txt	LTP248	ltpFR	3	1	1	DETECTIVE	454	n/a	n/a	1	0.57763671875	0.412841796875	1	upper	zerothre.ttf
92710	WORD	wordpools/wasnorm_wordpool_less_exclusions.txt	LTP248	ltpFR	3	1	1	HAT	690	n/a	n/a	0	0.57763671875	0.412841796875	1	upper	zerothre.ttf
96571	WORD	wordpools/wasnorm_wordpool_less_exclusions.txt	LTP248	ltpFR	3	1	1	WAND	1586	n/a	n/a	0	0.57763671875	0.412841796875	1	upper	zerothre.ttf
100598	WORD	wordpools/wasnorm_wordpool_less_exclusions.txt	LTP248	ltpFR	3	1	1	FLUTE	585	n/a	n/a	0	0.57763671875	0.412841796875	1	upper	zerothre.ttf
104775	WORD	wordpools/wasnorm_wordpool_less_exclusions.txt	LTP248	ltpFR	3	1	1	FLOWER	584	n/a	n/a	0	0.57763671875	0.412841796875	1	upper	zerothre.ttf
108886	WORD	wordpools/wasnorm_wordpool_less_exclusions.txt	LTP248	ltpFR	3	1	1	PLANT	1083	n/a	n/a	0	0.57763671875	0.412841796875	1	upper	zerothre.ttf
114545	REC_START	n/a	LTP248	ltpFR	3	1	n/a	n/a	n/a	n/a	n/a	n/a	n/a	n/a	n/a	n/a	n/a
114908	REC_WORD	wordpools/wasnorm_wordpool_less_exclusions.txt	LTP248	ltpFR	3	1	1	DETECTIVE	454	n/a	n/a	1	n/a	n/a	n/a	n/a	n/a
115782	REC_WORD	wordpools/wasnorm_wordpool_less_exclusions.txt	LTP248	ltpFR	3	1	0	OFFICER	973	n/a	n/a	1	n/a	n/a	n/a	n/a	n/a
116545	REC_WORD	wordpools/wasnorm_wordpool_less_exclusions.txt	LTP248	ltpFR	3	1	1	HAT	690	n/a	n/a	0	n/a	n/a	n/a	n/a	n/a
117168	REC_WORD	wordpools/wasnorm_wordpool_less_exclusions.txt	LTP248	ltpFR	3	1	1	FLUTE	585	n/a	n/a	0	n/a	n/a	n/a	n/a	n/a
118650	REC_WORD	wordpools/wasnorm_wordpool_less_exclusions.txt	LTP248	ltpFR	3	1	1	FLOWER	584	n/a	n/a	0	n/a	n/a	n/a	n/a	n/a
119573	REC_WORD	wordpools/wasnorm_wordpool_less_exclusions.txt	LTP248	ltpFR	3	1	n/a	PLANET	1082	n/a	n/a	n/a	n/a	n/a	n/a	n/a	n/a
131865	REC_WORD	wordpools/wasnorm_wordpool_less_exclusions.txt	LTP248	ltpFR	3	1	1	GUITAR	670	n/a	n/a	0	n/a	n/a	n/a	n/a	n/a
144302	REC_WORD	wordpools/wasnorm_wordpool_less_exclusions.txt	LTP248	ltpFR	3	1	0	OX	994	n/a	n/a	1	n/a	n/a	n/a	n/a	n/a
147041	REC_WORD	wordpools/wasnorm_wordpool_less_exclusions.txt	LTP248	ltpFR	3	1	0	PLAID	1080	n/a	n/a	0	n/a	n/a	n/a	n/a	n/a
148941	REC_WORD_VV	wordpools/wasnorm_wordpool_less_exclusions.txt	LTP248	ltpFR	3	1	n/a	<>	-1	n/a	n/a	n/a	n/a	n/a	n/a	n/a	n/a
159258	REC_WORD	wordpools/wasnorm_wordpool_less_exclusions.txt	LTP248	ltpFR	3	1	1	GUITAR	670	n/a	n/a	0	n/a	n/a	n/a	n/a	n/a
174049	REC_WORD	wordpools/wasnorm_wordpool_less_exclusions.txt	LTP248	ltpFR	3	1	1	DETECTIVE	454	n/a	n/a	1	n/a	n/a	n/a	n/a	n/a
185394	REC_WORD	wordpools/wasnorm_wordpool_less_exclusions.txt	LTP248	ltpFR	3	1	n/a	GRASS	655	n/a	n/a	n/a	n/a	n/a	n/a	n/a	n/a
194392	WORD	wordpools/wasnorm_wordpool_less_exclusions.txt	LTP248	ltpFR	3	2	1	WINE	1613	n/a	n/a	0	0.57763671875	0.412841796875	1	upper	zerothre.ttf
198302	WORD	wordpools/wasnorm_wordpool_less_exclusions.txt	LTP248	ltpFR	3	2	1	SALOON	1228	n/a	n/a	0	0.57763671875	0.412841796875	1	upper	zerothre.ttf
202180	WORD	wordpools/wasnorm_wordpool_less_exclusions.txt	LTP248	ltpFR	3	2	0	WORKER	1621	n/a	n/a	1	0.422607421875	0.5869140625	0	lower	amplitud.ttf
206141	WORD	wordpools/wasnorm_wordpool_less_exclusions.txt	LTP248	ltpFR	3	2	0	EMPLOYEE	531	n/a	n/a	1	0.422607421875	0.5869140625	0	lower	amplitud.ttf
210268	WORD	wordpools/wasnorm_wordpool_less_exclusions.txt	LTP248	ltpFR	3	2	0	ANTLER	29	n/a	n/a	1	0.422607421875	0.5869140625	0	lower	amplitud.ttf
214412	WORD	wordpools/wasnorm_wordpool_less_exclusions.txt	LTP248	ltpFR	3	2	0	COUSIN	392	n/a	n/a	1	0.422607421875	0.5869140625	0	lower	amplitud.ttf
218490	WORD	wordpools/wasnorm_wordpool_less_exclusions.txt	LTP248	ltpFR	3	2	1	SPARROW	1347	n/a	n/a	0	0.57763671875	0.412841796875	1	upper	zerothre.ttf
222699	WORD	wordpools/wasnorm_wordpool_less_exclusions.txt	LTP248	ltpFR	3	2	1	OWL	992	n/a	n/a	1	0.57763671875	0.412841796875	1	upper	zerothre.ttf
226627	WORD	wordpools/wasnorm_wordpool_less_exclusions.txt	LTP248	ltpFR	3	2	1	CINNAMON	310	n/a	n/a	0	0.57763671875	0.412841796875	1	upper	zerothre.ttf
230787	WORD	wordpools/wasnorm_wordpool_less_exclusions.txt	LTP248	ltpFR	3	2	1	SEAL	1262	n/a	n/a	1	0.57763671875	0.412841796875	1	upper	zerothre.ttf
234881	WORD	wordpools/wasnorm_wordpool_less_exclusions.txt	LTP248	ltpFR	3	2	0	KEYBOARD	774	n/a	n/a	1	0.422607421875	0.5869140625	0	lower	amplitud.ttf
238942	WORD	wordpools/wasnorm_wordpool_less_exclusions.txt	LTP248	ltpFR	3	2	0	CRATER	400	n/a	n/a	1	0.422607421875	0.5869140625	0	lower	amplitud.ttf
242886	WORD	wordpools/wasnorm_wordpool_less_exclusions.txt	LTP248	ltpFR	3	2	0	HOOK	715	n/a	n/a	0	0.422607421875	0.5869140625	0	lower	amplitud.ttf
246897	WORD	wordpools/wasnorm_wordpool_less_exclusions.txt	LTP248	ltpFR	3	2	0	BAND	78	n/a	n/a	1	0.422607421875	0.5869140625	0	lower	amplitud.ttf
250824	WORD	wordpools/wasnorm_wordpool_less_exclusions.txt	LTP248	ltpFR	3	2	1	FATHER	554	n/a	n/a	1	0.57763671875	0.412841796875	1	upper	zerothre.ttf
254984	WORD	wordpools/wasnorm_wordpool_less_exclusions.txt	LTP248	ltpFR	3	2	1	SARDINE	1235	n/a	n/a	1	0.57763671875	0.412841796875	1	upper	zerothre.ttf
260727	REC_START	n/a	LTP248	ltpFR	3	2	n/a	n/a	n/a	n/a	n/a	n/a	n/a	n/a	n/a	n/a	n/a
261041	REC_WORD	wordpools/wasnorm_wordpool_less_exclusions.txt	LTP248	ltpFR	3	2	1	FATHER	554	n/a	n/a	1	n/a	n/a	n/a	n/a	n/a
261789	REC_WORD	wordpools/wasnorm_wordpool_less_exclusions.txt	LTP248	ltpFR	3	2	1	SARDINE	1235	n/a	n/a	1	n/a	n/a	n/a	n/a	n/a
263700	REC_WORD	wordpools/wasnorm_wordpool_less_exclusions.txt	LTP248	ltpFR	3	2	0	BAND	78	n/a	n/a	1	n/a	n/a	n/a	n/a	n/a
264633	REC_WORD	wordpools/wasnorm_wordpool_less_exclusions.txt	LTP248	ltpFR	3	2	0	HOOK	715	n/a	n/a	0	n/a	n/a	n/a	n/a	n/a
266134	REC_WORD	wordpools/wasnorm_wordpool_less_exclusions.txt	LTP248	ltpFR	3	2	0	KEYBOARD	774	n/a	n/a	1	n/a	n/a	n/a	n/a	n/a
268828	REC_WORD	wordpools/wasnorm_wordpool_less_exclusions.txt	LTP248	ltpFR	3	2	1	SALOON	1228	n/a	n/a	0	n/a	n/a	n/a	n/a	n/a
271837	REC_WORD	wordpools/wasnorm_wordpool_less_exclusions.txt	LTP248	ltpFR	3	2	n/a	BAR	-1	n/a	n/a	n/a	n/a	n/a	n/a	n/a	n/a
285655	REC_WORD	wordpools/wasnorm_wordpool_less_exclusions.txt	LTP248	ltpFR	3	2	1	SARDINE	1235	n/a	n/a	1	n/a	n/a	n/a	n/a	n/a
290494	REC_WORD	wordpools/wasnorm_wordpool_less_exclusions.txt	LTP248	ltpFR	3	2	1	SHUTTER	1300	n/a	n/a	0	n/a	n/a	n/a	n/a	n/a
340290	WORD	wordpools/wasnorm_wordpool_less_exclusions.txt	LTP248	ltpFR	3	3	-1	PAGE	1001	n/a	n/a	-1	1.0	1.0	1	upper	Verdana.ttf
344485	WORD	wordpools/wasnorm_wordpool_less_exclusions.txt	LTP248	ltpFR	3	3	-1	POOL	1103	n/a	n/a	-1	1.0	1.0	1	upper	Verdana.ttf
348428	WORD	wordpools/wasnorm_wordpool_less_exclusions.txt	LTP248	ltpFR	3	3	-1	NET	946	n/a	n/a	-1	1.0	1.0	1	upper	Verdana.ttf
352372	WORD	wordpools/wasnorm_wordpool_less_exclusions.txt	LTP248	ltpFR	3	3	-1	MAN	862	n/a	n/a	-1	1.0	1.0	1	upper	Verdana.ttf
356583	WORD	wordpools/wasnorm_wordpool_less_exclusions.txt	LTP248	ltpFR	3	3	-1	BANANA	77	n/a	n/a	-1	1.0	1.0	1	upper	Verdana.ttf
360461	WORD	wordpools/wasnorm_wordpool_less_exclusions.txt	LTP248	ltpFR	3	3	-1	APPLE	33	n/a	n/a	-1	1.0	1.0	1	upper	Verdana.ttf
364505	WORD	wordpools/wasnorm_wordpool_less_exclusions.txt	LTP248	ltpFR	3	3	-1	SEAT	1264	n/a	n/a	-1	1.0	1.0	1	upper	Verdana.ttf
368565	WORD	wordpools/wasnorm_wordpool_less_exclusions.txt	LTP248	ltpFR	3	3	-1	OTTER	986	n/a	n/a	-1	1.0	1.0	1	upper	Verdana.ttf
372392	WORD	wordpools/wasnorm_wordpool_less_exclusions.txt	LTP248	ltpFR	3	3	-1	TAVERN	1437	n/a	n/a	-1	1.0	1.0	1	upper	Verdana.ttf
376303	WORD	wordpools/wasnorm_wordpool_less_exclusions.txt	LTP248	ltpFR	3	3	-1	BRANDY	169	n/a	n/a	-1	1.0	1.0	1	upper	Verdana.ttf
380347	WORD	wordpools/wasnorm_wordpool_less_exclusions.txt	LTP248	ltpFR	3	3	-1	PORCUPINE	1107	n/a	n/a	-1	1.0	1.0	1	upper	Verdana.ttf
384458	WORD	wordpools/wasnorm_wordpool_less_exclusions.txt	LTP248	ltpFR	3	3	-1	PRIMATE	1123	n/a	n/a	-1	1.0	1.0	1	upper	Verdana.ttf
388535	WORD	wordpools/wasnorm_wordpool_less_exclusions.txt	LTP248	ltpFR	3	3	-1	BOOK	149	n/a	n/a	-1	1.0	1.0	1	upper	Verdana.ttf
392745	WORD	wordpools/wasnorm_wordpool_less_exclusions.txt	LTP248	ltpFR	3	3	-1	VAULT	1550	n/a	n/a	-1	1.0	1.0	1	upper	Verdana.ttf
396789	WORD	wordpools/wasnorm_wordpool_less_exclusions.txt	LTP248	ltpFR	3	3	-1	SIDING	1304	n/a	n/a	-1	1.0	1.0	1	upper	Verdana.ttf
400750	WORD	wordpools/wasnorm_wordpool_less_exclusions.txt	LTP248	ltpFR	3	3	-1	NOMAD	955	n/a	n/a	-1	1.0	1.0	1	upper	Verdana.ttf
406792	REC_START	n/a	LTP248	ltpFR	3	3	n/a	n/a	n/a	n/a	n/a	n/a	n/a	n/a	n/a	n/a	n/a
407029	REC_WORD	wordpools/wasnorm_wordpool_less_exclusions.txt	LTP248	ltpFR	3	3	-1	PORCUPINE	1107	n/a	n/a	-1	n/a	n/a	n/a	n/a	n/a
407984	REC_WORD	wordpools/wasnorm_wordpool_less_exclusions.txt	LTP248	ltpFR	3	3	-1	OTTER	986	n/a	n/a	-1	n/a	n/a	n/a	n/a	n/a
408837	REC_WORD	wordpools/wasnorm_wordpool_less_exclusions.txt	LTP248	ltpFR	3	3	-1	NOMAD	955	n/a	n/a	-1	n/a	n/a	n/a	n/a	n/a
410014	REC_WORD	wordpools/wasnorm_wordpool_less_exclusions.txt	LTP248	ltpFR	3	3	-1	TAVERN	1437	n/a	n/a	-1	n/a	n/a	n/a	n/a	n/a
410757	REC_WORD	wordpools/wasnorm_wordpool_less_exclusions.txt	LTP248	ltpFR	3	3	-1	SIDING	1304	n/a	n/a	-1	n/a	n/a	n/a	n/a	n/a
412065	REC_WORD	wordpools/wasnorm_wordpool_less_exclusions.txt	LTP248	ltpFR	3	3	-1	VAULT	1550	n/a	n/a	-1	n/a	n/a	n/a	n/a	n/a
413467	REC_WORD	wordpools/wasnorm_wordpool_less_exclusions.txt	LTP248	ltpFR	3	3	-1	POOL	1103	n/a	n/a	-1	n/a	n/a	n/a	n/a	n/a
414913	REC_WORD	wordpools/wasnorm_wordpool_less_exclusions.txt	LTP248	ltpFR	3	3	-1	BOOK	149	n/a	n/a	-1	n/a	n/a	n/a	n/a	n/a
417907	REC_WORD	wordpools/wasnorm_wordpool_less_exclusions.txt	LTP248	ltpFR	3	3	n/a	CHAIR	274	n/a	n/a	n/a	n/a	n/a	n/a	n/a	n/a
420082	REC_WORD	wordpools/wasnorm_wordpool_less_exclusions.txt	LTP248	ltpFR	3	3	-1	MAN	862	n/a	n/a	-1	n/a	n/a	n/a	n/a	n/a
421019	REC_WORD	wordpools/wasnorm_wordpool_less_exclusions.txt	LTP248	ltpFR	3	3	-1	PAGE	1001	n/a	n/a	-1	n/a	n/a	n/a	n/a	n/a
422671	REC_WORD	wordpools/wasnorm_wordpool_less_exclusions.txt	LTP248	ltpFR	3	3	-1	BRANDY	169	n/a	n/a	-1	n/a	n/a	n/a	n/a	n/a
425594	REC_WORD	wordpools/wasnorm_wordpool_less_exclusions.txt	LTP248	ltpFR	3	3	-1	APPLE	33	n/a	n/a	-1	n/a	n/a	n/a	n/a	n/a
426327	REC_WORD	wordpools/wasnorm_wordpool_less_exclusions.txt	LTP248	ltpFR	3	3	-1	BANANA	77	n/a	n/a	-1	n/a	n/a	n/a	n/a	n/a
437672	REC_WORD	wordpools/wasnorm_wordpool_less_exclusions.txt	LTP248	ltpFR	3	3	-1	MAN	862	n/a	n/a	-1	n/a	n/a	n/a	n/a	n/a
444087	REC_WORD	wordpools/wasnorm_wordpool_less_exclusions.txt	LTP248	ltpFR	3	3	-1	VAULT	1550	n/a	n/a	-1	n/a	n/a	n/a	n/a	n/a
484775	WORD	wordpools/wasnorm_wordpool_less_exclusions.txt	LTP248	ltpFR	3	4	1	BUILDER	190	n/a	n/a	0	0.57763671875	0.412841796875	1	upper	zerothre.ttf
488785	WORD	wordpools/wasnorm_wordpool_less_exclusions.txt	LTP248	ltpFR	3	4	1	GIFT	635	n/a	n/a	0	0.57763671875	0.412841796875	1	upper	zerothre.ttf
492946	WORD	wordpools/wasnorm_wordpool_less_exclusions.txt	LTP248	ltpFR	3	4	1	CREATURE	403	n/a	n/a	1	0.57763671875	0.412841796875	1	upper	zerothre.ttf
496790	WORD	wordpools/wasnorm_wordpool_less_exclusions.txt	LTP248	ltpFR	3	4	1	MISSILE	900	n/a	n/a	0	0.57763671875	0.412841796875	1	upper	zerothre.ttf
500667	WORD	wordpools/wasnorm_wordpool_less_exclusions.txt	LTP248	ltpFR	3	4	1	CUSHION	428	n/a	n/a	0	0.57763671875	0.412841796875	1	upper	zerothre.ttf
504645	WORD	wordpools/wasnorm_wordpool_less_exclusions.txt	LTP248	ltpFR	3	4	1	FURNITURE	616	n/a	n/a	0	0.57763671875	0.412841796875	1	upper	zerothre.ttf
508507	WORD	wordpools/wasnorm_wordpool_less_exclusions.txt	LTP248	ltpFR	3	4	1	DISHWASHER	475	n/a	n/a	0	0.57763671875	0.412841796875	1	upper	zerothre.ttf
512600	WORD	wordpools/wasnorm_wordpool_less_exclusions.txt	LTP248	ltpFR	3	4	1	SNAKE	1333	n/a	n/a	1	0.57763671875	0.412841796875	1	upper	zerothre.ttf
516560	WORD	wordpools/wasnorm_wordpool_less_exclusions.txt	LTP248	ltpFR	3	4	1	PACKAGE	997	n/a	n/a	0	0.57763671875	0.412841796875	1	upper	zerothre.ttf
520654	WORD	wordpools/wasnorm_wordpool_less_exclusions.txt	LTP248	ltpFR	3	4	1	MACHINE	852	n/a	n/a	0	0.57763671875	0.412841796875	1	upper	zerothre.ttf
524632	WORD	wordpools/wasnorm_wordpool_less_exclusions.txt	LTP248	ltpFR	3	4	1	FOLDER	588	n/a	n/a	0	0.57763671875	0.412841796875	1	upper	zerothre.ttf
528709	WORD	wordpools/wasnorm_wordpool_less_exclusions.txt	LTP248	ltpFR	3	4	1	RASH	1167	n/a	n/a	1	0.57763671875	0.412841796875	1	upper	zerothre.ttf
532903	WORD	wordpools/wasnorm_wordpool_less_exclusions.txt	LTP248	ltpFR	3	4	1	MICROWAVE	892	n/a	n/a	0	0.57763671875	0.412841796875	1	upper	zerothre.ttf
536913	WORD	wordpools/wasnorm_wordpool_less_exclusions.txt	LTP248	ltpFR	3	4	1	CAFETERIA	217	n/a	n/a	0	0.57763671875	0.412841796875	1	upper	zerothre.ttf
541074	WORD	wordpools/wasnorm_wordpool_less_exclusions.txt	LTP248	ltpFR	3	4	1	PILOT	1070	n/a	n/a	1	0.57763671875	0.412841796875	1	upper	zerothre.ttf
545201	WORD	wordpools/wasnorm_wordpool_less_exclusions.txt	LTP248	ltpFR	3	4	1	CROCODILE	411	n/a	n/a	1	0.57763671875	0.412841796875	1	upper	zerothre.ttf
551143	REC_START	n/a	LTP248	ltpFR	3	4	n/a	n/a	n/a	n/a	n/a	n/a	n/a	n/a	n/a	n/a	n/a
551746	REC_WORD	wordpools/wasnorm_wordpool_less_exclusions.txt	LTP248	ltpFR	3	4	1	BUILDER	190	n/a	n/a	0	n/a	n/a	n/a	n/a	n/a
553123	REC_WORD	wordpools/wasnorm_wordpool_less_exclusions.txt	LTP248	ltpFR	3	4	1	PILOT	1070	n/a	n/a	1	n/a	n/a	n/a	n/a	n/a
554764	REC_WORD	wordpools/wasnorm_wordpool_less_exclusions.txt	LTP248	ltpFR	3	4	1	CROCODILE	411	n/a	n/a	1	n/a	n/a	n/a	n/a	n/a
557228	REC_WORD	wordpools/wasnorm_wordpool_less_exclusions.txt	LTP248	ltpFR	3	4	1	MISSILE	900	n/a	n/a	0	n/a	n/a	n/a	n/a	n/a
570074	REC_WORD	wordpools/wasnorm_wordpool_less_exclusions.txt	LTP248	ltpFR	3	4	1	CROCODILE	411	n/a	n/a	1	n/a	n/a	n/a	n/a	n/a
571706	REC_WORD	wordpools/wasnorm_wordpool_less_exclusions.txt	LTP248	ltpFR	3	4	n/a	BRIDGE	174	n/a	n/a	n/a	n/a	n/a	n/a	n/a	n/a
581718	REC_WORD	wordpools/wasnorm_wordpool_less_exclusions.txt	LTP248	ltpFR	3	4	n/a	CONCRETE	361	n/a	n/a	n/a	n/a	n/a	n/a	n/a	n/a
585575	REC_WORD	wordpools/wasnorm_wordpool_less_exclusions.txt	LTP248	ltpFR	3	4	n/a	ROCKET	1202	n/a	n/a	n/a	n/a	n/a	n/a	n/a	n/a
609740	REC_WORD	wordpools/wasnorm_wordpool_less_exclusions.txt	LTP248	ltpFR	3	4	1	DISHWASHER	475	n/a	n/a	0	n/a	n/a	n/a	n/a	n/a
617676	REC_WORD	wordpools/wasnorm_wordpool_less_exclusions.txt	LTP248	ltpFR	3	4	n/a	APPLIANCE	-1	n/a	n/a	n/a	n/a	n/a	n/a	n/a	n/a
622590	REC_WORD	wordpools/wasnorm_wordpool_less_exclusions.txt	LTP248	ltpFR	3	4	1	SNAKE	1333	n/a	n/a	1	n/a	n/a	n/a	n/a	n/a
630224	WORD	wordpools/wasnorm_wordpool_less_exclusions.txt	LTP248	ltpFR	3	5	1	HAMBURGER	679	n/a	n/a	0	0.57763671875	0.412841796875	1	upper	zerothre.ttf
634068	WORD	wordpools/wasnorm_wordpool_less_exclusions.txt	LTP248	ltpFR	3	5	1	CANDIDATE	228	n/a	n/a	1	0.57763671875	0.412841796875	1	upper	zerothre.ttf
637996	WORD	wordpools/wasnorm_wordpool_less_exclusions.txt	LTP248	ltpFR	3	5	1	RADIATOR	1156	n/a	n/a	0	0.57763671875	0.412841796875	1	upper	zerothre.ttf
641973	WORD	wordpools/wasnorm_wordpool_less_exclusions.txt	LTP248	ltpFR	3	5	1	SALESMAN	1225	n/a	n/a	1	0.57763671875	0.412841796875	1	upper	zerothre.ttf
646067	WORD	wordpools/wasnorm_wordpool_less_exclusions.txt	LTP248	ltpFR	3	5	1	BANQUET	86	n/a	n/a	1	0.57763671875	0.412841796875	1	upper	zerothre.ttf
649961	WORD	wordpools/wasnorm_wordpool_less_exclusions.txt	LTP248	ltpFR	3	5	1	DOUGH	489	n/a	n/a	0	0.57763671875	0.412841796875	1	upper	zerothre.ttf
654055	WORD	wordpools/wasnorm_wordpool_less_exclusions.txt	LTP248	ltpFR	3	5	1	LIZARD	834	n/a	n/a	1	0.57763671875	0.412841796875	1	upper	zerothre.ttf
657916	WORD	wordpools/wasnorm_wordpool_less_exclusions.txt	LTP248	ltpFR	3	5	1	MONGOOSE	909	n/a	n/a	1	0.57763671875	0.412841796875	1	upper	zerothre.ttf
661744	WORD	wordpools/wasnorm_wordpool_less_exclusions.txt	LTP248	ltpFR	3	5	1	CELLAR	267	n/a	n/a	0	0.57763671875	0.412841796875	1	upper	zerothre.ttf
665771	WORD	wordpools/wasnorm_wordpool_less_exclusions.txt	LTP248	ltpFR	3	5	1	BAKER	71	n/a	n/a	1	0.57763671875	0.412841796875	1	upper	zerothre.ttf
669599	WORD	wordpools/wasnorm_wordpool_less_exclusions.txt	LTP248	ltpFR	3	5	1	BERRY	122	n/a	n/a	0	0.57763671875	0.412841796875	1	upper	zerothre.ttf
673692	WORD	wordpools/wasnorm_wordpool_less_exclusions.txt	LTP248	ltpFR	3	5	1	LUNG	850	n/a	n/a	1	0.57763671875	0.412841796875	1	upper	zerothre.ttf
677620	WORD	wordpools/wasnorm_wordpool_less_exclusions.txt	LTP248	ltpFR	3	5	1	PORCH	1106	n/a	n/a	3	0.57763671875	0.412841796875	1	upper	zerothre.ttf
679468	KEY_MSG	n/a	LTP248	ltpFR	3	5	n/a	n/a	n/a	n/a	n/a	n/a	n/a	n/a	n/a	n/a	n/a
681914	WORD	wordpools/wasnorm_wordpool_less_exclusions.txt	LTP248	ltpFR	3	5	1	SENATOR	1268	n/a	n/a	3	0.57763671875	0.412841796875	1	upper	zerothre.ttf
681980	KEY_MSG	n/a	LTP248	ltpFR	3	5	n/a	n/a	n/a	n/a	n/a	n/a	n/a	n/a	n/a	n/a	n/a
685991	WORD	wordpools/wasnorm_wordpool_less_exclusions.txt	LTP248	ltpFR	3	5	1	KETCHUP	771	n/a	n/a	0	0.57763671875	0.412841796875	1	upper	zerothre.ttf
690201	WORD	wordpools/wasnorm_wordpool_less_exclusions.txt	LTP248	ltpFR	3	5	1	PERCH	1048	n/a	n/a	1	0.57763671875	0.412841796875	1	upper	zerothre.ttf
696126	REC_START	n/a	LTP248	ltpFR	3	5	n/a	n/a	n/a	n/a	n/a	n/a	n/a	n/a	n/a	n/a	n/a
697767	REC_WORD	wordpools/wasnorm_wordpool_less_exclusions.txt	LTP248	ltpFR	3	5	1	PERCH	1048	n/a	n/a	1	n/a	n/a	n/a	n/a	n/a
698450	REC_WORD	wordpools/wasnorm_wordpool_less_exclusions.txt	LTP248	ltpFR	3	5	1	KETCHUP	771	n/a	n/a	0	n/a	n/a	n/a	n/a	n/a
699522	REC_WORD	wordpools/wasnorm_wordpool_less_exclusions.txt	LTP248	ltpFR	3	5	1	CELLAR	267	n/a	n/a	0	n/a	n/a	n/a	n/a	n/a
701803	REC_WORD	wordpools/wasnorm_wordpool_less_exclusions.txt	LTP248	ltpFR	3	5	1	BAKER	71	n/a	n/a	1	n/a	n/a	n/a	n/a	n/a
702576	REC_WORD	wordpools/wasnorm_wordpool_less_exclusions.txt	LTP248	ltpFR	3	5	1	DOUGH	489	n/a	n/a	0	n/a	n/a	n/a	n/a	n/a
705320	REC_WORD	wordpools/wasnorm_wordpool_less_exclusions.txt	LTP248	ltpFR	3	5	1	CANDIDATE	228	n/a	n/a	1	n/a	n/a	n/a	n/a	n/a
707350	REC_WORD	wordpools/wasnorm_wordpool_less_exclusions.txt	LTP248	ltpFR	3	5	1	PORCH	1106	n/a	n/a	3	n/a	n/a	n/a	n/a	n/a
727185	REC_WORD	wordpools/wasnorm_wordpool_less_exclusions.txt	LTP248	ltpFR	3	5	1	WINE	1613	n/a	n/a	0	n/a	n/a	n/a	n/a	n/a
731954	REC_WORD	wordpools/wasnorm_wordpool_less_exclusions.txt	LTP248	ltpFR	3	5	1	MONGOOSE	909	n/a	n/a	1	n/a	n/a	n/a	n/a	n/a
743747	REC_WORD	wordpools/wasnorm_wordpool_less_exclusions.txt	LTP248	ltpFR	3	5	-1	PORCUPINE	1107	n/a	n/a	-1	n/a	n/a	n/a	n/a	n/a
752732	REC_WORD	wordpools/wasnorm_wordpool_less_exclusions.txt	LTP248	ltpFR	3	5	n/a	TEA	1439	n/a	n/a	n/a	n/a	n/a	n/a	n/a	n/a
755007	REC_WORD	wordpools/wasnorm_wordpool_less_exclusions.txt	LTP248	ltpFR	3	5	1	BANQUET	86	n/a	n/a	1	n/a	n/a	n/a	n/a	n/a
788904	WORD	wordpools/wasnorm_wordpool_less_exclusions.txt	LTP248	ltpFR	3	6	-1	UNIFORM	1539	n/a	n/a	-1	1.0	1.0	1	upper	Verdana.ttf
792815	WORD	wordpools/wasnorm_wordpool_less_exclusions.txt	LTP248	ltpFR	3	6	-1	BUREAU	199	n/a	n/a	-1	1.0	1.0	1	upper	Verdana.ttf
796692	WORD	wordpools/wasnorm_wordpool_less_exclusions.txt	LTP248	ltpFR	3	6	-1	SAILOR	1223	n/a	n/a	-1	1.0	1.0	1	upper	Verdana.ttf
800919	WORD	wordpools/wasnorm_wordpool_less_exclusions.txt	LTP248	ltpFR	3	6	-1	BEAN	105	n/a	n/a	-1	1.0	1.0	1	upper	Verdana.ttf
804863	WORD	wordpools/wasnorm_wordpool_less_exclusions.txt	LTP248	ltpFR	3	6	-1	DEODORANT	448	n/a	n/a	-1	1.0	1.0	1	upper	Verdana.ttf
808724	WORD	wordpools/wasnorm_wordpool_less_exclusions.txt	LTP248	ltpFR	3	6	-1	PERFUME	1049	n/a	n/a	-1	1.0	1.0	1	upper	Verdana.ttf
812868	WORD	wordpools/wasnorm_wordpool_less_exclusions.txt	LTP248	ltpFR	3	6	-1	ATTIRE	57	n/a	n/a	-1	1.0	1.0	1	upper	Verdana.ttf
816812	WORD	wordpools/wasnorm_wordpool_less_exclusions.txt	LTP248	ltpFR	3	6	-1	LUGGAGE	847	n/a	n/a	-1	1.0	1.0	1	upper	Verdana.ttf
820789	WORD	wordpools/wasnorm_wordpool_less_exclusions.txt	LTP248	ltpFR	3	6	-1	LITERATURE	831	n/a	n/a	-1	1.0	1.0	1	upper	Verdana.ttf
824833	WORD	wordpools/wasnorm_wordpool_less_exclusions.txt	LTP248	ltpFR	3	6	-1	FLASK	576	n/a	n/a	-1	1.0	1.0	1	upper	Verdana.ttf
828961	WORD	wordpools/wasnorm_wordpool_less_exclusions.txt	LTP248	ltpFR	3	6	-1	SLOPE	1328	n/a	n/a	-1	1.0	1.0	1	upper	Verdana.ttf
833104	WORD	wordpools/wasnorm_wordpool_less_exclusions.txt	LTP248	ltpFR	3	6	-1	THICKET	1455	n/a	n/a	-1	1.0	1.0	1	upper	Verdana.ttf
836965	WORD	wordpools/wasnorm_wordpool_less_exclusions.txt	LTP248	ltpFR	3	6	-1	MOP	916	n/a	n/a	-1	1.0	1.0	1	upper	Verdana.ttf
840859	WORD	wordpools/wasnorm_wordpool_less_exclusions.txt	LTP248	ltpFR	3	6	-1	DIARY	460	n/a	n/a	-1	1.0	1.0	1	upper	Verdana.ttf
844920	WORD	wordpools/wasnorm_wordpool_less_exclusions.txt	LTP248	ltpFR	3	6	-1	HIKER	708	n/a	n/a	-1	1.0	1.0	1	upper	Verdana.ttf
848764	WORD	wordpools/wasnorm_wordpool_less_exclusions.txt	LTP248	ltpFR	3	6	-1	DANDELION	438	n/a	n/a	-1	1.0	1.0	1	upper	Verdana.ttf
854756	REC_START	n/a	LTP248	ltpFR	3	6	n/a	n/a	n/a	n/a	n/a	n/a	n/a	n/a	n/a	n/a	n/a
854996	REC_WORD	wordpools/wasnorm_wordpool_less_exclusions.txt	LTP248	ltpFR	3	6	-1	THICKET	1455	n/a	n/a	-1	n/a	n/a	n/a	n/a	n/a
855903	REC_WORD	wordpools/wasnorm_wordpool_less_exclusions.txt	LTP248	ltpFR	3	6	-1	MOP	916	n/a	n/a	-1	n/a	n/a	n/a	n/a	n/a
856781	REC_WORD	wordpools/wasnorm_wordpool_less_exclusions.txt	LTP248	ltpFR	3	6	-1	DANDELION	438	n/a	n/a	-1	n/a	n/a	n/a	n/a	n/a
858328	REC_WORD	wordpools/wasnorm_wordpool_less_exclusions.txt	LTP248	ltpFR	3	6	-1	DIARY	460	n/a	n/a	-1	n/a	n/a	n/a	n/a	n/a
859794	REC_WORD	wordpools/wasnorm_wordpool_less_exclusions.txt	LTP248	ltpFR	3	6	-1	LITERATURE	831	n/a	n/a	-1	n/a	n/a	n/a	n/a	n/a
861216	REC_WORD	wordpools/wasnorm_wordpool_less_exclusions.txt	LTP248	ltpFR	3	6	-1	FLASK	576	n/a	n/a	-1	n/a	n/a	n/a	n/a	n/a
862234	REC_WORD	wordpools/wasnorm_wordpool_less_exclusions.txt	LTP248	ltpFR	3	6	-1	HIKER	708	n/a	n/a	-1	n/a	n/a	n/a	n/a	n/a
863750	REC_WORD	wordpools/wasnorm_wordpool_less_exclusions.txt	LTP248	ltpFR	3	6	-1	SLOPE	1328	n/a	n/a	-1	n/a	n/a	n/a	n/a	n/a
864633	REC_WORD	wordpools/wasnorm_wordpool_less_exclusions.txt	LTP248	ltpFR	3	6	n/a	SEED	1266	n/a	n/a	n/a	n/a	n/a	n/a	n/a	n/a
866260	REC_WORD	wordpools/wasnorm_wordpool_less_exclusions.txt	LTP248	ltpFR	3	6	-1	LUGGAGE	847	n/a	n/a	-1	n/a	n/a	n/a	n/a	n/a
868175	REC_WORD	wordpools/wasnorm_wordpool_less_exclusions.txt	LTP248	ltpFR	3	6	-1	UNIFORM	1539	n/a	n/a	-1	n/a	n/a	n/a	n/a	n/a
869163	REC_WORD	wordpools/wasnorm_wordpool_less_exclusions.txt	LTP248	ltpFR	3	6	-1	SAILOR	1223	n/a	n/a	-1	n/a	n/a	n/a	n/a	n/a
870490	REC_WORD	wordpools/wasnorm_wordpool_less_exclusions.txt	LTP248	ltpFR	3	6	-1	BUREAU	199	n/a	n/a	-1	n/a	n/a	n/a	n/a	n/a
872395	REC_WORD	wordpools/wasnorm_wordpool_less_exclusions.txt	LTP248	ltpFR	3	6	-1	ATTIRE	57	n/a	n/a	-1	n/a	n/a	n/a	n/a	n/a
874336	REC_WORD	wordpools/wasnorm_wordpool_less_exclusions.txt	LTP248	ltpFR	3	6	-1	DEODORANT	448	n/a	n/a	-1	n/a	n/a	n/a	n/a	n/a
875514	REC_WORD	wordpools/wasnorm_wordpool_less_exclusions.txt	LTP248	ltpFR	3	6	-1	PERFUME	1049	n/a	n/a	-1	n/a	n/a	n/a	n/a	n/a
900557	REC_WORD	wordpools/wasnorm_wordpool_less_exclusions.txt	LTP248	ltpFR	3	6	-1	DANDELION	438	n/a	n/a	-1	n/a	n/a	n/a	n/a	n/a
933238	WORD	wordpools/wasnorm_wordpool_less_exclusions.txt	LTP248	ltpFR	3	7	1	SWEATER	1419	n/a	n/a	0	0.57763671875	0.412841796875	1	upper	zerothre.ttf
937399	WORD	wordpools/wasnorm_wordpool_less_exclusions.txt	LTP248	ltpFR	3	7	1	HERD	705	n/a	n/a	1	0.57763671875	0.412841796875	1	upper	zerothre.ttf
941542	WORD	wordpools/wasnorm_wordpool_less_exclusions.txt	LTP248	ltpFR	3	7	1	CARNIVAL	245	n/a	n/a	1	0.57763671875	0.412841796875	1	upper	zerothre.ttf
945437	WORD	wordpools/wasnorm_wordpool_less_exclusions.txt	LTP248	ltpFR	3	7	1	PIKE	1067	n/a	n/a	0	0.57763671875	0.412841796875	1	upper	zerothre.ttf
949498	WORD	wordpools/wasnorm_wordpool_less_exclusions.txt	LTP248	ltpFR	3	7	1	CAMERA	224	n/a	n/a	0	0.57763671875	0.412841796875	1	upper	zerothre.ttf
953441	WORD	wordpools/wasnorm_wordpool_less_exclusions.txt	LTP248	ltpFR	3	7	0	AIRCRAFT	11	n/a	n/a	1	0.422607421875	0.5869140625	0	lower	amplitud.ttf
957336	WORD	wordpools/wasnorm_wordpool_less_exclusions.txt	LTP248	ltpFR	3	7	0	AIRPORT	13	n/a	n/a	1	0.422607421875	0.5869140625	0	lower	amplitud.ttf
961296	WORD	wordpools/wasnorm_wordpool_less_exclusions.txt	LTP248	ltpFR	3	7	1	KNUCKLE	789	n/a	n/a	1	0.57763671875	0.412841796875	1	upper	zerothre.ttf
965373	WORD	wordpools/wasnorm_wordpool_less_exclusions.txt	LTP248	ltpFR	3	7	1	KEEPER	769	n/a	n/a	1	0.57763671875	0.412841796875	1	upper	zerothre.ttf
969284	WORD	wordpools/wasnorm_wordpool_less_exclusions.txt	LTP248	ltpFR	3	7	1	POET	1095	n/a	n/a	0	0.57763671875	0.412841796875	1	upper	zerothre.ttf
973212	WORD	wordpools/wasnorm_wordpool_less_exclusions.txt	LTP248	ltpFR	3	7	0	COUNTRY	388	n/a	n/a	1	0.422607421875	0.5869140625	0	lower	amplitud.ttf
977406	WORD	wordpools/wasnorm_wordpool_less_exclusions.txt	LTP248	ltpFR	3	7	0	SCENERY	1247	n/a	n/a	1	0.422607421875	0.5869140625	0	lower	amplitud.ttf
981250	WORD	wordpools/wasnorm_wordpool_less_exclusions.txt	LTP248	ltpFR	3	7	0	OUTFIT	988	n/a	n/a	0	0.422607421875	0.5869140625	0	lower	amplitud.ttf
985394	WORD	wordpools/wasnorm_wordpool_less_exclusions.txt	LTP248	ltpFR	3	7	0	FINGER	567	n/a	n/a	1	0.422607421875	0.5869140625	0	lower	amplitud.ttf
989238	WORD	wordpools/wasnorm_wordpool_less_exclusions.txt	LTP248	ltpFR	3	7	0	BRAKE	166	n/a	n/a	1	0.422607421875	0.5869140625	0	lower	amplitud.ttf
993415	WORD	wordpools/wasnorm_wordpool_less_exclusions.txt	LTP248	ltpFR	3	7	0	CHAUFFEUR	283	n/a	n/a	1	0.422607421875	0.5869140625	0	lower	amplitud.ttf
999307	REC_START	n/a	LTP248	ltpFR	3	7	n/a	n/a	n/a	n/a	n/a	n/a	n/a	n/a	n/a	n/a	n/a
999307	REC_WORD	wordpools/wasnorm_wordpool_less_exclusions.txt	LTP248	ltpFR	3	7	0	CHAUFFEUR	283	n/a	n/a	1	n/a	n/a	n/a	n/a	n/a
1000205	REC_WORD	wordpools/wasnorm_wordpool_less_exclusions.txt	LTP248	ltpFR	3	7	1	KNUCKLE	789	n/a	n/a	1	n/a	n/a	n/a	n/a	n/a
1001257	REC_WORD	wordpools/wasnorm_wordpool_less_exclusions.txt	LTP248	ltpFR	3	7	n/a	SWEAT	-1	n/a	n/a	n/a	n/a	n/a	n/a	n/a	n/a
1006221	REC_WORD	wordpools/wasnorm_wordpool_less_exclusions.txt	LTP248	ltpFR	3	7	0	AIRPORT	13	n/a	n/a	1	n/a	n/a	n/a	n/a	n/a
1007049	REC_WORD	wordpools/wasnorm_wordpool_less_exclusions.txt	LTP248	ltpFR	3	7	0	AIRCRAFT	11	n/a	n/a	1	n/a	n/a	n/a	n/a	n/a
1011399	REC_WORD	wordpools/wasnorm_wordpool_less_exclusions.txt	LTP248	ltpFR	3	7	0	COUNTRY	388	n/a	n/a	1	n/a	n/a	n/a	n/a	n/a
1019137	REC_WORD	wordpools/wasnorm_wordpool_less_exclusions.txt	LTP248	ltpFR	3	7	0	CHAUFFEUR	283	n/a	n/a	1	n/a	n/a	n/a	n/a	n/a
1022279	REC_WORD	wordpools/wasnorm_wordpool_less_exclusions.txt	LTP248	ltpFR	3	7	n/a	SHEEP	1278	n/a	n/a	n/a	n/a	n/a	n/a	n/a	n/a
1023467	REC_WORD	wordpools/wasnorm_wordpool_less_exclusions.txt	LTP248	ltpFR	3	7	1	SWEATER	1419	n/a	n/a	0	n/a	n/a	n/a	n/a	n/a
1025527	REC_WORD	wordpools/wasnorm_wordpool_less_exclusions.txt	LTP248	ltpFR	3	7	1	CARNIVAL	245	n/a	n/a	1	n/a	n/a	n/a	n/a	n/a
1027019	REC_WORD	wordpools/wasnorm_wordpool_less_exclusions.txt	LTP248	ltpFR	3	7	-1	SLOPE	1328	n/a	n/a	-1	n/a	n/a	n/a	n/a	n/a
1037809	REC_WORD	wordpools/wasnorm_wordpool_less_exclusions.txt	LTP248	ltpFR	3	7	1	KNUCKLE	789	n/a	n/a	1	n/a	n/a	n/a	n/a	n/a
1041037	REC_WORD	wordpools/wasnorm_wordpool_less_exclusions.txt	LTP248	ltpFR	3	7	n/a	KNEE	784	n/a	n/a	n/a	n/a	n/a	n/a	n/a	n/a
1078355	WORD	wordpools/wasnorm_wordpool_less_exclusions.txt	LTP248	ltpFR	3	8	-1	OATMEAL	967	n/a	n/a	-1	1.0	1.0	1	upper	Verdana.ttf
1082332	WORD	wordpools/wasnorm_wordpool_less_exclusions.txt	LTP248	ltpFR	3	8	-1	HIGHWAY	707	n/a	n/a	-1	1.0	1.0	1	upper	Verdana.ttf
1086260	WORD	wordpools/wasnorm_wordpool_less_exclusions.txt	LTP248	ltpFR	3	8	-1	ACROBAT	4	n/a	n/a	-1	1.0	1.0	1	upper	Verdana.ttf
1090387	WORD	wordpools/wasnorm_wordpool_less_exclusions.txt	LTP248	ltpFR	3	8	-1	OATS	968	n/a	n/a	-1	1.0	1.0	1	upper	Verdana.ttf
1094381	WORD	wordpools/wasnorm_wordpool_less_exclusions.txt	LTP248	ltpFR	3	8	-1	OWNER	993	n/a	n/a	-1	1.0	1.0	1	upper	Verdana.ttf
1098392	WORD	wordpools/wasnorm_wordpool_less_exclusions.txt	LTP248	ltpFR	3	8	-1	STOOL	1386	n/a	n/a	-1	1.0	1.0	1	upper	Verdana.ttf
1102585	WORD	wordpools/wasnorm_wordpool_less_exclusions.txt	LTP248	ltpFR	3	8	-1	POTATO	1115	n/a	n/a	-1	1.0	1.0	1	upper	Verdana.ttf
1106530	WORD	wordpools/wasnorm_wordpool_less_exclusions.txt	LTP248	ltpFR	3	8	-1	PARSLEY	1016	n/a	n/a	-1	1.0	1.0	1	upper	Verdana.ttf
1110607	WORD	wordpools/wasnorm_wordpool_less_exclusions.txt	LTP248	ltpFR	3	8	-1	HERB	704	n/a	n/a	-1	1.0	1.0	1	upper	Verdana.ttf
1114451	WORD	wordpools/wasnorm_wordpool_less_exclusions.txt	LTP248	ltpFR	3	8	-1	METEOR	889	n/a	n/a	-1	1.0	1.0	1	upper	Verdana.ttf
1118362	WORD	wordpools/wasnorm_wordpool_less_exclusions.txt	LTP248	ltpFR	3	8	-1	SALIVA	1226	n/a	n/a	-1	1.0	1.0	1	upper	Verdana.ttf
1122273	WORD	wordpools/wasnorm_wordpool_less_exclusions.txt	LTP248	ltpFR	3	8	-1	CLERK	321	n/a	n/a	-1	1.0	1.0	1	upper	Verdana.ttf
1126167	WORD	wordpools/wasnorm_wordpool_less_exclusions.txt	LTP248	ltpFR	3	8	-1	NITROGEN	954	n/a	n/a	-1	1.0	1.0	1	upper	Verdana.ttf
1130211	WORD	wordpools/wasnorm_wordpool_less_exclusions.txt	LTP248	ltpFR	3	8	-1	PUMP	1141	n/a	n/a	-1	1.0	1.0	1	upper	Verdana.ttf
1134121	WORD	wordpools/wasnorm_wordpool_less_exclusions.txt	LTP248	ltpFR	3	8	-1	DAD	433	n/a	n/a	-1	1.0	1.0	1	upper	Verdana.ttf
1138282	WORD	wordpools/wasnorm_wordpool_less_exclusions.txt	LTP248	ltpFR	3	8	-1	CURB	426	n/a	n/a	-1	1.0	1.0	1	upper	Verdana.ttf
1144157	REC_START	n/a	LTP248	ltpFR	3	8	n/a	n/a	n/a	n/a	n/a	n/a	n/a	n/a	n/a	n/a	n/a
1144391	REC_WORD	wordpools/wasnorm_wordpool_less_exclusions.txt	LTP248	ltpFR	3	8	-1	DAD	433	n/a	n/a	-1	n/a	n/a	n/a	n/a	n/a
1144975	REC_WORD	wordpools/wasnorm_wordpool_less_exclusions.txt	LTP248	ltpFR	3	8	-1	CURB	426	n/a	n/a	-1	n/a	n/a	n/a	n/a	n/a
1145878	REC_WORD	wordpools/wasnorm_wordpool_less_exclusions.txt	LTP248	ltpFR	3	8	-1	METEOR	889	n/a	n/a	-1	n/a	n/a	n/a	n/a	n/a
1147000	REC_WORD	wordpools/wasnorm_wordpool_less_exclusions.txt	LTP248	ltpFR	3	8	n/a	ASTEROID	50	n/a	n/a	n/a	n/a	n/a	n/a	n/a	n/a
1148342	REC_WORD	wordpools/wasnorm_wordpool_less_exclusions.txt	LTP248	ltpFR	3	8	-1	HIGHWAY	707	n/a	n/a	-1	n/a	n/a	n/a	n/a	n/a
1149904	REC_WORD	wordpools/wasnorm_wordpool_less_exclusions.txt	LTP248	ltpFR	3	8	-1	ACROBAT	4	n/a	n/a	-1	n/a	n/a	n/a	n/a	n/a
1151046	REC_WORD	wordpools/wasnorm_wordpool_less_exclusions.txt	LTP248	ltpFR	3	8	-1	STOOL	1386	n/a	n/a	-1	n/a	n/a	n/a	n/a	n/a
1153061	REC_WORD	wordpools/wasnorm_wordpool_less_exclusions.txt	LTP248	ltpFR	3	8	-1	OWNER	993	n/a	n/a	-1	n/a	n/a	n/a	n/a	n/a
1154384	REC_WORD	wordpools/wasnorm_wordpool_less_exclusions.txt	LTP248	ltpFR	3	8	-1	OATS	968	n/a	n/a	-1	n/a	n/a	n/a	n/a	n/a
1155506	REC_WORD	wordpools/wasnorm_wordpool_less_exclusions.txt	LTP248	ltpFR	3	8	-1	OATMEAL	967	n/a	n/a	-1	n/a	n/a	n/a	n/a	n/a
1156868	REC_WORD	wordpools/wasnorm_wordpool_less_exclusions.txt	LTP248	ltpFR	3	8	-1	POTATO	1115	n/a	n/a	-1	n/a	n/a	n/a	n/a	n/a
1191793	REC_WORD	wordpools/wasnorm_wordpool_less_exclusions.txt	LTP248	ltpFR	3	8	n/a	FARM	552	n/a	n/a	n/a	n/a	n/a	n/a	n/a	n/a
1203047	REC_WORD	wordpools/wasnorm_wordpool_less_exclusions.txt	LTP248	ltpFR	3	8	n/a	FIELD	562	n/a	n/a	n/a	n/a	n/a	n/a	n/a	n/a
1204110	REC_WORD	wordpools/wasnorm_wordpool_less_exclusions.txt	LTP248	ltpFR	3	8	n/a	WHEAT	1602	n/a	n/a	n/a	n/a	n/a	n/a	n/a	n/a
1208969	REC_WORD	wordpools/wasnorm_wordpool_less_exclusions.txt	LTP248	ltpFR	3	8	-1	PARSLEY	1016	n/a	n/a	-1	n/a	n/a	n/a	n/a	n/a
1209783	REC_WORD	wordpools/wasnorm_wordpool_less_exclusions.txt	LTP248	ltpFR	3	8	-1	HERB	704	n/a	n/a	-1	n/a	n/a	n/a	n/a	n/a
1224570	WORD	wordpools/wasnorm_wordpool_less_exclusions.txt	LTP248	ltpFR	3	9	0	NOSE	957	n/a	n/a	1	0.422607421875	0.5869140625	0	lower	amplitud.ttf
1228664	WORD	wordpools/wasnorm_wordpool_less_exclusions.txt	LTP248	ltpFR	3	9	0	PUMPKIN	1142	n/a	n/a	1	0.422607421875	0.5869140625	0	lower	amplitud.ttf
1232624	WORD	wordpools/wasnorm_wordpool_less_exclusions.txt	LTP248	ltpFR	3	9	0	VENUS	1557	n/a	n/a	1	0.422607421875	0.5869140625	0	lower	amplitud.ttf
1236552	WORD	wordpools/wasnorm_wordpool_less_exclusions.txt	LTP248	ltpFR	3	9	0	PATROL	1027	n/a	n/a	1	0.422607421875	0.5869140625	0	lower	amplitud.ttf
1240729	WORD	wordpools/wasnorm_wordpool_less_exclusions.txt	LTP248	ltpFR	3	9	0	PUPPY	1144	n/a	n/a	1	0.422607421875	0.5869140625	0	lower	amplitud.ttf
1244656	WORD	wordpools/wasnorm_wordpool_less_exclusions.txt	LTP248	ltpFR	3	9	0	FRECKLE	602	n/a	n/a	0	0.422607421875	0.5869140625	0	lower	amplitud.ttf
1248750	WORD	wordpools/wasnorm_wordpool_less_exclusions.txt	LTP248	ltpFR	3	9	0	CITIZEN	312	n/a	n/a	1	0.422607421875	0.5869140625	0	lower	amplitud.ttf
1252961	WORD	wordpools/wasnorm_wordpool_less_exclusions.txt	LTP248	ltpFR	3	9	0	COMMITTEE	355	n/a	n/a	1	0.422607421875	0.5869140625	0	lower	amplitud.ttf
1256955	WORD	wordpools/wasnorm_wordpool_less_exclusions.txt	LTP248	ltpFR	3	9	0	SCULPTURE	1258	n/a	n/a	n/a	0.422607421875	0.5869140625	0	lower	amplitud.ttf
1259984	SLOW_MSG	n/a	LTP248	ltpFR	3	9	n/a	n/a	n/a	n/a	n/a	n/a	n/a	n/a	n/a	n/a	n/a
1262696	WORD	wordpools/wasnorm_wordpool_less_exclusions.txt	LTP248	ltpFR	3	9	0	PAINTER	1004	n/a	n/a	1	0.422607421875	0.5869140625	0	lower	amplitud.ttf
1266873	WORD	wordpools/wasnorm_wordpool_less_exclusions.txt	LTP248	ltpFR	3	9	0	SNORKEL	1336	n/a	n/a	1	0.422607421875	0.5869140625	0	lower	amplitud.ttf
1270984	WORD	wordpools/wasnorm_wordpool_less_exclusions.txt	LTP248	ltpFR	3	9	0	PIZZA	1079	n/a	n/a	1	0.422607421875	0.5869140625	0	lower	amplitud.ttf
1274928	WORD	wordpools/wasnorm_wordpool_less_exclusions.txt	LTP248	ltpFR	3	9	0	GRAVEL	659	n/a	n/a	1	0.422607421875	0.5869140625	0	lower	amplitud.ttf
1279022	WORD	wordpools/wasnorm_wordpool_less_exclusions.txt	LTP248	ltpFR	3	9	0	SHOVEL	1295	n/a	n/a	1	0.422607421875	0.5869140625	0	lower	amplitud.ttf
1283199	WORD	wordpools/wasnorm_wordpool_less_exclusions.txt	LTP248	ltpFR	3	9	0	SECRETARY	1265	n/a	n/a	1	0.422607421875	0.5869140625	0	lower	amplitud.ttf
1287160	WORD	wordpools/wasnorm_wordpool_less_exclusions.txt	LTP248	ltpFR	3	9	0	BROOK	177	n/a	n/a	1	0.422607421875	0.5869140625	0	lower	amplitud.ttf
1293085	REC_START	n/a	LTP248	ltpFR	3	9	n/a	n/a	n/a	n/a	n/a	n/a	n/a	n/a	n/a	n/a	n/a
1294033	REC_WORD	wordpools/wasnorm_wordpool_less_exclusions.txt	LTP248	ltpFR	3	9	0	BROOK	177	n/a	n/a	1	n/a	n/a	n/a	n/a	n/a
1294437	REC_WORD	wordpools/wasnorm_wordpool_less_exclusions.txt	LTP248	ltpFR	3	9	n/a	STATIONARY	-1	n/a	n/a	n/a	n/a	n/a	n/a	n/a	n/a
1295320	REC_WORD	wordpools/wasnorm_wordpool_less_exclusions.txt	LTP248	ltpFR	3	9	0	PUMPKIN	1142	n/a	n/a	1	n/a	n/a	n/a	n/a	n/a
1295909	REC_WORD	wordpools/wasnorm_wordpool_less_exclusions.txt	LTP248	ltpFR	3	9	0	NOSE	957	n/a	n/a	1	n/a	n/a	n/a	n/a	n/a
1296587	REC_WORD	wordpools/wasnorm_wordpool_less_exclusions.txt	LTP248	ltpFR	3	9	0	VENUS	1557	n/a	n/a	1	n/a	n/a	n/a	n/a	n/a
1297395	REC_WORD	wordpools/wasnorm_wordpool_less_exclusions.txt	LTP248	ltpFR	3	9	0	PATROL	1027	n/a	n/a	1	n/a	n/a	n/a	n/a	n/a
1299240	REC_WORD	wordpools/wasnorm_wordpool_less_exclusions.txt	LTP248	ltpFR	3	9	0	FRECKLE	602	n/a	n/a	0	n/a	n/a	n/a	n/a	n/a
1304673	REC_WORD	wordpools/wasnorm_wordpool_less_exclusions.txt	LTP248	ltpFR	3	9	0	BROOK	177	n/a	n/a	1	n/a	n/a	n/a	n/a	n/a
1315917	REC_WORD	wordpools/wasnorm_wordpool_less_exclusions.txt	LTP248	ltpFR	3	9	0	PATROL	1027	n/a	n/a	1	n/a	n/a	n/a	n/a	n/a
1321251	REC_WORD	wordpools/wasnorm_wordpool_less_exclusions.txt	LTP248	ltpFR	3	9	0	NOSE	957	n/a	n/a	1	n/a	n/a	n/a	n/a	n/a
1382035	WORD	wordpools/wasnorm_wordpool_less_exclusions.txt	LTP248	ltpFR	3	10	0	RING	1193	n/a	n/a	0	0.422607421875	0.5869140625	0	lower	amplitud.ttf
1386112	WORD	wordpools/wasnorm_wordpool_less_exclusions.txt	LTP248	ltpFR	3	10	0	HOUSE	725	n/a	n/a	1	0.422607421875	0.5869140625	0	lower	amplitud.ttf
1390222	WORD	wordpools/wasnorm_wordpool_less_exclusions.txt	LTP248	ltpFR	3	10	0	BLUEJAY	141	n/a	n/a	1	0.422607421875	0.5869140625	0	lower	amplitud.ttf
1394250	WORD	wordpools/wasnorm_wordpool_less_exclusions.txt	LTP248	ltpFR	3	10	0	BIRD	129	n/a	n/a	1	0.422607421875	0.5869140625	0	lower	amplitud.ttf
1398161	WORD	wordpools/wasnorm_wordpool_less_exclusions.txt	LTP248	ltpFR	3	10	0	DEPUTY	450	n/a	n/a	1	0.422607421875	0.5869140625	0	lower	amplitud.ttf
1402371	WORD	wordpools/wasnorm_wordpool_less_exclusions.txt	LTP248	ltpFR	3	10	0	TUB	1514	n/a	n/a	1	0.422607421875	0.5869140625	0	lower	amplitud.ttf
1406499	WORD	wordpools/wasnorm_wordpool_less_exclusions.txt	LTP248	ltpFR	3	10	0	CHIME	300	n/a	n/a	1	0.422607421875	0.5869140625	0	lower	amplitud.ttf
1410642	WORD	wordpools/wasnorm_wordpool_less_exclusions.txt	LTP248	ltpFR	3	10	0	PLASTER	1085	n/a	n/a	1	0.422607421875	0.5869140625	0	lower	amplitud.ttf
1414487	WORD	wordpools/wasnorm_wordpool_less_exclusions.txt	LTP248	ltpFR	3	10	0	BEVERAGE	123	n/a	n/a	1	0.422607421875	0.5869140625	0	lower	amplitud.ttf
1418663	WORD	wordpools/wasnorm_wordpool_less_exclusions.txt	LTP248	ltpFR	3	10	0	TRAIN	1494	n/a	n/a	1	0.422607421875	0.5869140625	0	lower	amplitud.ttf
1422874	WORD	wordpools/wasnorm_wordpool_less_exclusions.txt	LTP248	ltpFR	3	10	0	VOLCANO	1575	n/a	n/a	1	0.422607421875	0.5869140625	0	lower	amplitud.ttf
1426918	WORD	wordpools/wasnorm_wordpool_less_exclusions.txt	LTP248	ltpFR	3	10	0	BLACKBERRY	132	n/a	n/a	0	0.422607421875	0.5869140625	0	lower	amplitud.ttf
1430962	WORD	wordpools/wasnorm_wordpool_less_exclusions.txt	LTP248	ltpFR	3	10	0	FUDGE	611	n/a	n/a	0	0.422607421875	0.5869140625	0	lower	amplitud.ttf
1435072	WORD	wordpools/wasnorm_wordpool_less_exclusions.txt	LTP248	ltpFR	3	10	0	BOAT	144	n/a	n/a	1	0.422607421875	0.5869140625	0	lower	amplitud.ttf
1439249	WORD	wordpools/wasnorm_wordpool_less_exclusions.txt	LTP248	ltpFR	3	10	0	CUFF	423	n/a	n/a	0	0.422607421875	0.5869140625	0	lower	amplitud.ttf
1443260	WORD	wordpools/wasnorm_wordpool_less_exclusions.txt	LTP248	ltpFR	3	10	0	SKIRT	1319	n/a	n/a	0	0.422607421875	0.5869140625	0	lower	amplitud.ttf
1448952	REC_START	n/a	LTP248	ltpFR	3	10	n/a	n/a	n/a	n/a	n/a	n/a	n/a	n/a	n/a	n/a	n/a
1449126	REC_WORD	wordpools/wasnorm_wordpool_less_exclusions.txt	LTP248	ltpFR	3	10	0	BLUEJAY	141	n/a	n/a	1	n/a	n/a	n/a	n/a	n/a
1450698	REC_WORD	wordpools/wasnorm_wordpool_less_exclusions.txt	LTP248	ltpFR	3	10	0	SKIRT	1319	n/a	n/a	0	n/a	n/a	n/a	n/a	n/a
1451825	REC_WORD	wordpools/wasnorm_wordpool_less_exclusions.txt	LTP248	ltpFR	3	10	0	CUFF	423	n/a	n/a	0	n/a	n/a	n/a	n/a	n/a
1452992	REC_WORD	wordpools/wasnorm_wordpool_less_exclusions.txt	LTP248	ltpFR	3	10	0	VOLCANO	1575	n/a	n/a	1	n/a	n/a	n/a	n/a	n/a
1454005	REC_WORD	wordpools/wasnorm_wordpool_less_exclusions.txt	LTP248	ltpFR	3	10	0	TRAIN	1494	n/a	n/a	1	n/a	n/a	n/a	n/a	n/a
1457218	REC_WORD	wordpools/wasnorm_wordpool_less_exclusions.txt	LTP248	ltpFR	3	10	0	BLACKBERRY	132	n/a	n/a	0	n/a	n/a	n/a	n/a	n/a
1461029	REC_WORD	wordpools/wasnorm_wordpool_less_exclusions.txt	LTP248	ltpFR	3	10	0	SKIRT	1319	n/a	n/a	0	n/a	n/a	n/a	n/a	n/a
1464621	REC_WORD	wordpools/wasnorm_wordpool_less_exclusions.txt	LTP248	ltpFR	3	10	0	HOUSE	725	n/a	n/a	1	n/a	n/a	n/a	n/a	n/a
1473596	REC_WORD	wordpools/wasnorm_wordpool_less_exclusions.txt	LTP248	ltpFR	3	10	0	RING	1193	n/a	n/a	0	n/a	n/a	n/a	n/a	n/a
1489485	REC_WORD	wordpools/wasnorm_wordpool_less_exclusions.txt	LTP248	ltpFR	3	10	0	OFFICER	973	n/a	n/a	1	n/a	n/a	n/a	n/a	n/a
1548520	WORD	wordpools/wasnorm_wordpool_less_exclusions.txt	LTP248	ltpFR	3	11	0	BUTLER	204	n/a	n/a	1	0.422607421875	0.5869140625	0	lower	amplitud.ttf
1552514	WORD	wordpools/wasnorm_wordpool_less_exclusions.txt	LTP248	ltpFR	3	11	0	MINK	897	n/a	n/a	1	0.422607421875	0.5869140625	0	lower	amplitud.ttf
1556408	WORD	wordpools/wasnorm_wordpool_less_exclusions.txt	LTP248	ltpFR	3	11	0	ROBE	1198	n/a	n/a	1	0.422607421875	0.5869140625	0	lower	amplitud.ttf
1560318	WORD	wordpools/wasnorm_wordpool_less_exclusions.txt	LTP248	ltpFR	3	11	0	BATHTUB	100	n/a	n/a	1	0.422607421875	0.5869140625	0	lower	amplitud.ttf
1564296	WORD	wordpools/wasnorm_wordpool_less_exclusions.txt	LTP248	ltpFR	3	11	0	FLOOR	581	n/a	n/a	1	0.422607421875	0.5869140625	0	lower	amplitud.ttf
1568423	WORD	wordpools/wasnorm_wordpool_less_exclusions.txt	LTP248	ltpFR	3	11	0	MAID	856	n/a	n/a	1	0.422607421875	0.5869140625	0	lower	amplitud.ttf
1572633	WORD	wordpools/wasnorm_wordpool_less_exclusions.txt	LTP248	ltpFR	3	11	0	DOCK	477	n/a	n/a	1	0.422607421875	0.5869140625	0	lower	amplitud.ttf
1576677	WORD	wordpools/wasnorm_wordpool_less_exclusions.txt	LTP248	ltpFR	3	11	0	PIRATE	1074	n/a	n/a	1	0.422607421875	0.5869140625	0	lower	amplitud.ttf
1580671	WORD	wordpools/wasnorm_wordpool_less_exclusions.txt	LTP248	ltpFR	3	11	0	LEG	809	n/a	n/a	1	0.422607421875	0.5869140625	0	lower	amplitud.ttf
1584532	WORD	wordpools/wasnorm_wordpool_less_exclusions.txt	LTP248	ltpFR	3	11	0	ANKLE	24	n/a	n/a	1	0.422607421875	0.5869140625	0	lower	amplitud.ttf
1588410	WORD	wordpools/wasnorm_wordpool_less_exclusions.txt	LTP248	ltpFR	3	11	0	CAPE	237	n/a	n/a	1	0.422607421875	0.5869140625	0	lower	amplitud.ttf
1592304	WORD	wordpools/wasnorm_wordpool_less_exclusions.txt	LTP248	ltpFR	3	11	0	CREEK	404	n/a	n/a	1	0.422607421875	0.5869140625	0	lower	amplitud.ttf
1596381	WORD	wordpools/wasnorm_wordpool_less_exclusions.txt	LTP248	ltpFR	3	11	0	SCREW	1254	n/a	n/a	0	0.422607421875	0.5869140625	0	lower	amplitud.ttf
1600526	WORD	wordpools/wasnorm_wordpool_less_exclusions.txt	LTP248	ltpFR	3	11	0	BOX	159	n/a	n/a	0	0.422607421875	0.5869140625	0	lower	amplitud.ttf
1604536	WORD	wordpools/wasnorm_wordpool_less_exclusions.txt	LTP248	ltpFR	3	11	0	HEN	703	n/a	n/a	0	0.422607421875	0.5869140625	0	lower	amplitud.ttf
1608746	WORD	wordpools/wasnorm_wordpool_less_exclusions.txt	LTP248	ltpFR	3	11	0	TOENAIL	1474	n/a	n/a	0	0.422607421875	0.5869140625	0	lower	amplitud.ttf
1614771	REC_START	n/a	LTP248	ltpFR	3	11	n/a	n/a	n/a	n/a	n/a	n/a	n/a	n/a	n/a	n/a	n/a
1615938	REC_WORD	wordpools/wasnorm_wordpool_less_exclusions.txt	LTP248	ltpFR	3	11	0	TOENAIL	1474	n/a	n/a	0	n/a	n/a	n/a	n/a	n/a
1616826	REC_WORD	wordpools/wasnorm_wordpool_less_exclusions.txt	LTP248	ltpFR	3	11	0	BOX	159	n/a	n/a	0	n/a	n/a	n/a	n/a	n/a
1618832	REC_WORD	wordpools/wasnorm_wordpool_less_exclusions.txt	LTP248	ltpFR	3	11	n/a	CHICKEN	297	n/a	n/a	n/a	n/a	n/a	n/a	n/a	n/a
1619864	REC_WORD	wordpools/wasnorm_wordpool_less_exclusions.txt	LTP248	ltpFR	3	11	0	HEN	703	n/a	n/a	0	n/a	n/a	n/a	n/a	n/a
1620942	REC_WORD	wordpools/wasnorm_wordpool_less_exclusions.txt	LTP248	ltpFR	3	11	0	CREEK	404	n/a	n/a	1	n/a	n/a	n/a	n/a	n/a
1623092	REC_WORD	wordpools/wasnorm_wordpool_less_exclusions.txt	LTP248	ltpFR	3	11	0	PIRATE	1074	n/a	n/a	1	n/a	n/a	n/a	n/a	n/a
1623930	REC_WORD	wordpools/wasnorm_wordpool_less_exclusions.txt	LTP248	ltpFR	3	11	0	SCREW	1254	n/a	n/a	0	n/a	n/a	n/a	n/a	n/a
1625686	REC_WORD	wordpools/wasnorm_wordpool_less_exclusions.txt	LTP248	ltpFR	3	11	0	LEG	809	n/a	n/a	1	n/a	n/a	n/a	n/a	n/a
1626973	REC_WORD	wordpools/wasnorm_wordpool_less_exclusions.txt	LTP248	ltpFR	3	11	n/a	KNEE	784	n/a	n/a	n/a	n/a	n/a	n/a	n/a	n/a
1628150	REC_WORD	wordpools/wasnorm_wordpool_less_exclusions.txt	LTP248	ltpFR	3	11	0	DOCK	477	n/a	n/a	1	n/a	n/a	n/a	n/a	n/a
1630315	REC_WORD	wordpools/wasnorm_wordpool_less_exclusions.txt	LTP248	ltpFR	3	11	0	BUTLER	204	n/a	n/a	1	n/a	n/a	n/a	n/a	n/a
1631164	REC_WORD	wordpools/wasnorm_wordpool_less_exclusions.txt	LTP248	ltpFR	3	11	0	MAID	856	n/a	n/a	1	n/a	n/a	n/a	n/a	n/a
1632386	REC_WORD	wordpools/wasnorm_wordpool_less_exclusions.txt	LTP248	ltpFR	3	11	0	CAPE	237	n/a	n/a	1	n/a	n/a	n/a	n/a	n/a
1633518	REC_WORD	wordpools/wasnorm_wordpool_less_exclusions.txt	LTP248	ltpFR	3	11	0	ROBE	1198	n/a	n/a	1	n/a	n/a	n/a	n/a	n/a
1635209	REC_WORD	wordpools/wasnorm_wordpool_less_exclusions.txt	LTP248	ltpFR	3	11	n/a	BATH	98	n/a	n/a	n/a	n/a	n/a	n/a	n/a	n/a
1636322	REC_WORD	wordpools/wasnorm_wordpool_less_exclusions.txt	LTP248	ltpFR	3	11	0	BATHTUB	100	n/a	n/a	1	n/a	n/a	n/a	n/a	n/a
1637863	REC_WORD	wordpools/wasnorm_wordpool_less_exclusions.txt	LTP248	ltpFR	3	11	0	FLOOR	581	n/a	n/a	1	n/a	n/a	n/a	n/a	n/a
1655284	REC_WORD	wordpools/wasnorm_wordpool_less_exclusions.txt	LTP248	ltpFR	3	11	0	TOENAIL	1474	n/a	n/a	0	n/a	n/a	n/a	n/a	n/a
1698878	WORD	wordpools/wasnorm_wordpool_less_exclusions.txt	LTP248	ltpFR	3	12	-1	VALLEY	1545	n/a	n/a	-1	1.0	1.0	1	upper	Verdana.ttf
1703072	WORD	wordpools/wasnorm_wordpool_less_exclusions.txt	LTP248	ltpFR	3	12	-1	JAW	751	n/a	n/a	-1	1.0	1.0	1	upper	Verdana.ttf
1707066	WORD	wordpools/wasnorm_wordpool_less_exclusions.txt	LTP248	ltpFR	3	12	-1	KNAPSACK	783	n/a	n/a	-1	1.0	1.0	1	upper	Verdana.ttf
1711160	WORD	wordpools/wasnorm_wordpool_less_exclusions.txt	LTP248	ltpFR	3	12	-1	BUCKET	184	n/a	n/a	-1	1.0	1.0	1	upper	Verdana.ttf
1715270	WORD	wordpools/wasnorm_wordpool_less_exclusions.txt	LTP248	ltpFR	3	12	-1	LAGOON	795	n/a	n/a	-1	1.0	1.0	1	upper	Verdana.ttf
1719181	WORD	wordpools/wasnorm_wordpool_less_exclusions.txt	LTP248	ltpFR	3	12	-1	HOOD	714	n/a	n/a	-1	1.0	1.0	1	upper	Verdana.ttf
1723159	WORD	wordpools/wasnorm_wordpool_less_exclusions.txt	LTP248	ltpFR	3	12	-1	BOUQUET	157	n/a	n/a	-1	1.0	1.0	1	upper	Verdana.ttf
1727219	WORD	wordpools/wasnorm_wordpool_less_exclusions.txt	LTP248	ltpFR	3	12	-1	BUCKLE	185	n/a	n/a	-1	1.0	1.0	1	upper	Verdana.ttf
1731197	WORD	wordpools/wasnorm_wordpool_less_exclusions.txt	LTP248	ltpFR	3	12	-1	CLIPPERS	324	n/a	n/a	-1	1.0	1.0	1	upper	Verdana.ttf
1735174	WORD	wordpools/wasnorm_wordpool_less_exclusions.txt	LTP248	ltpFR	3	12	-1	LIP	828	n/a	n/a	-1	1.0	1.0	1	upper	Verdana.ttf
1739351	WORD	wordpools/wasnorm_wordpool_less_exclusions.txt	LTP248	ltpFR	3	12	-1	IGLOO	734	n/a	n/a	-1	1.0	1.0	1	upper	Verdana.ttf
1743412	WORD	wordpools/wasnorm_wordpool_less_exclusions.txt	LTP248	ltpFR	3	12	-1	BRICK	172	n/a	n/a	-1	1.0	1.0	1	upper	Verdana.ttf
1747555	WORD	wordpools/wasnorm_wordpool_less_exclusions.txt	LTP248	ltpFR	3	12	-1	QUILT	1151	n/a	n/a	-1	1.0	1.0	1	upper	Verdana.ttf
1751416	WORD	wordpools/wasnorm_wordpool_less_exclusions.txt	LTP248	ltpFR	3	12	-1	SACK	1220	n/a	n/a	-1	1.0	1.0	1	upper	Verdana.ttf
1755294	WORD	wordpools/wasnorm_wordpool_less_exclusions.txt	LTP248	ltpFR	3	12	-1	PAPER	1011	n/a	n/a	-1	1.0	1.0	1	upper	Verdana.ttf
1759155	WORD	wordpools/wasnorm_wordpool_less_exclusions.txt	LTP248	ltpFR	3	12	-1	QUILL	1150	n/a	n/a	-1	1.0	1.0	1	upper	Verdana.ttf
1765130	REC_START	n/a	LTP248	ltpFR	3	12	n/a	n/a	n/a	n/a	n/a	n/a	n/a	n/a	n/a	n/a	n/a
1765288	REC_WORD	wordpools/wasnorm_wordpool_less_exclusions.txt	LTP248	ltpFR	3	12	-1	QUILL	1150	n/a	n/a	-1	n/a	n/a	n/a	n/a	n/a
1765873	REC_WORD	wordpools/wasnorm_wordpool_less_exclusions.txt	LTP248	ltpFR	3	12	-1	PAPER	1011	n/a	n/a	-1	n/a	n/a	n/a	n/a	n/a
1768078	REC_WORD	wordpools/wasnorm_wordpool_less_exclusions.txt	LTP248	ltpFR	3	12	-1	QUILT	1151	n/a	n/a	-1	n/a	n/a	n/a	n/a	n/a
1769659	REC_WORD	wordpools/wasnorm_wordpool_less_exclusions.txt	LTP248	ltpFR	3	12	-1	KNAPSACK	783	n/a	n/a	-1	n/a	n/a	n/a	n/a	n/a
1770627	REC_WORD	wordpools/wasnorm_wordpool_less_exclusions.txt	LTP248	ltpFR	3	12	-1	SACK	1220	n/a	n/a	-1	n/a	n/a	n/a	n/a	n/a
1773919	REC_WORD	wordpools/wasnorm_wordpool_less_exclusions.txt	LTP248	ltpFR	3	12	-1	LAGOON	795	n/a	n/a	-1	n/a	n/a	n/a	n/a	n/a
1774716	REC_WORD	wordpools/wasnorm_wordpool_less_exclusions.txt	LTP248	ltpFR	3	12	-1	IGLOO	734	n/a	n/a	-1	n/a	n/a	n/a	n/a	n/a
1775426	REC_WORD	wordpools/wasnorm_wordpool_less_exclusions.txt	LTP248	ltpFR	3	12	-1	BRICK	172	n/a	n/a	-1	n/a	n/a	n/a	n/a	n/a
1776823	REC_WORD	wordpools/wasnorm_wordpool_less_exclusions.txt	LTP248	ltpFR	3	12	-1	JAW	751	n/a	n/a	-1	n/a	n/a	n/a	n/a	n/a
1778729	REC_WORD	wordpools/wasnorm_wordpool_less_exclusions.txt	LTP248	ltpFR	3	12	-1	VALLEY	1545	n/a	n/a	-1	n/a	n/a	n/a	n/a	n/a
1783437	REC_WORD	wordpools/wasnorm_wordpool_less_exclusions.txt	LTP248	ltpFR	3	12	-1	BUCKLE	185	n/a	n/a	-1	n/a	n/a	n/a	n/a	n/a
1812018	REC_WORD	wordpools/wasnorm_wordpool_less_exclusions.txt	LTP248	ltpFR	3	12	0	HOUSE	725	n/a	n/a	1	n/a	n/a	n/a	n/a	n/a
1820090	REC_WORD	wordpools/wasnorm_wordpool_less_exclusions.txt	LTP248	ltpFR	3	12	0	CAPE	237	n/a	n/a	1	n/a	n/a	n/a	n/a	n/a
1820663	REC_WORD	wordpools/wasnorm_wordpool_less_exclusions.txt	LTP248	ltpFR	3	12	1	HAT	690	n/a	n/a	0	n/a	n/a	n/a	n/a	n/a
1840733	REST_REWET	n/a	LTP248	ltpFR	3	12	n/a	n/a	n/a	n/a	n/a	n/a	n/a	n/a	n/a	n/a	n/a
2158059	WORD	wordpools/wasnorm_wordpool_less_exclusions.txt	LTP248	ltpFR	3	13	0	ROBIN	1199	n/a	n/a	0	0.422607421875	0.5869140625	0	lower	amplitud.ttf
2162269	WORD	wordpools/wasnorm_wordpool_less_exclusions.txt	LTP248	ltpFR	3	13	0	APPENDAGE	32	n/a	n/a	1	0.422607421875	0.5869140625	0	lower	amplitud.ttf
2166313	WORD	wordpools/wasnorm_wordpool_less_exclusions.txt	LTP248	ltpFR	3	13	0	ELBOW	520	n/a	n/a	1	0.422607421875	0.5869140625	0	lower	amplitud.ttf
2170407	WORD	wordpools/wasnorm_wordpool_less_exclusions.txt	LTP248	ltpFR	3	13	1	LEAF	808	n/a	n/a	1	0.57763671875	0.412841796875	1	upper	zerothre.ttf
2174285	WORD	wordpools/wasnorm_wordpool_less_exclusions.txt	LTP248	ltpFR	3	13	1	ORNAMENT	985	n/a	n/a	0	0.57763671875	0.412841796875	1	upper	zerothre.ttf
2178362	WORD	wordpools/wasnorm_wordpool_less_exclusions.txt	LTP248	ltpFR	3	13	1	TREE	1502	n/a	n/a	1	0.57763671875	0.412841796875	1	upper	zerothre.ttf
2182190	WORD	wordpools/wasnorm_wordpool_less_exclusions.txt	LTP248	ltpFR	3	13	1	CHEMICAL	291	n/a	n/a	0	0.57763671875	0.412841796875	1	upper	zerothre.ttf
2186300	WORD	wordpools/wasnorm_wordpool_less_exclusions.txt	LTP248	ltpFR	3	13	1	WORM	1623	n/a	n/a	1	0.57763671875	0.412841796875	1	upper	zerothre.ttf
2190311	WORD	wordpools/wasnorm_wordpool_less_exclusions.txt	LTP248	ltpFR	3	13	1	DIRECTOR	471	n/a	n/a	1	0.57763671875	0.412841796875	1	upper	zerothre.ttf
2194322	WORD	wordpools/wasnorm_wordpool_less_exclusions.txt	LTP248	ltpFR	3	13	0	CENT	270	n/a	n/a	0	0.422607421875	0.5869140625	0	lower	amplitud.ttf
2198199	WORD	wordpools/wasnorm_wordpool_less_exclusions.txt	LTP248	ltpFR	3	13	0	ASH	44	n/a	n/a	0	0.422607421875	0.5869140625	0	lower	amplitud.ttf
2202060	WORD	wordpools/wasnorm_wordpool_less_exclusions.txt	LTP248	ltpFR	3	13	1	CRITIC	410	n/a	n/a	1	0.57763671875	0.412841796875	1	upper	zerothre.ttf
2205987	WORD	wordpools/wasnorm_wordpool_less_exclusions.txt	LTP248	ltpFR	3	13	1	MICROSCOPE	891	n/a	n/a	1	0.57763671875	0.412841796875	1	upper	zerothre.ttf
2210131	WORD	wordpools/wasnorm_wordpool_less_exclusions.txt	LTP248	ltpFR	3	13	0	LOG	841	n/a	n/a	0	0.422607421875	0.5869140625	0	lower	amplitud.ttf
2214325	WORD	wordpools/wasnorm_wordpool_less_exclusions.txt	LTP248	ltpFR	3	13	0	MANSION	864	n/a	n/a	1	0.422607421875	0.5869140625	0	lower	amplitud.ttf
2218336	WORD	wordpools/wasnorm_wordpool_less_exclusions.txt	LTP248	ltpFR	3	13	0	POSSUM	1112	n/a	n/a	3	0.422607421875	0.5869140625	0	lower	amplitud.ttf
2219351	KEY_MSG	n/a	LTP248	ltpFR	3	13	n/a	n/a	n/a	n/a	n/a	n/a	n/a	n/a	n/a	n/a	n/a
2224244	REC_START	n/a	LTP248	ltpFR	3	13	n/a	n/a	n/a	n/a	n/a	n/a	n/a	n/a	n/a	n/a	n/a
2225601	REC_WORD	wordpools/wasnorm_wordpool_less_exclusions.txt	LTP248	ltpFR	3	13	0	POSSUM	1112	n/a	n/a	3	n/a	n/a	n/a	n/a	n/a
2229368	REC_WORD_VV	wordpools/wasnorm_wordpool_less_exclusions.txt	LTP248	ltpFR	3	13	n/a	<>	-1	n/a	n/a	n/a	n/a	n/a	n/a	n/a	n/a
2238626	REC_WORD	wordpools/wasnorm_wordpool_less_exclusions.txt	LTP248	ltpFR	3	13	0	ROBIN	1199	n/a	n/a	0	n/a	n/a	n/a	n/a	n/a
2240587	REC_WORD	wordpools/wasnorm_wordpool_less_exclusions.txt	LTP248	ltpFR	3	13	0	LOG	841	n/a	n/a	0	n/a	n/a	n/a	n/a	n/a
2249787	REC_WORD_VV	wordpools/wasnorm_wordpool_less_exclusions.txt	LTP248	ltpFR	3	13	n/a	<>	-1	n/a	n/a	n/a	n/a	n/a	n/a	n/a	n/a
2280750	REC_WORD	wordpools/wasnorm_wordpool_less_exclusions.txt	LTP248	ltpFR	3	13	1	LEAF	808	n/a	n/a	1	n/a	n/a	n/a	n/a	n/a
2281464	REC_WORD	wordpools/wasnorm_wordpool_less_exclusions.txt	LTP248	ltpFR	3	13	n/a	VASE	1549	n/a	n/a	n/a	n/a	n/a	n/a	n/a	n/a
2283684	REC_WORD	wordpools/wasnorm_wordpool_less_exclusions.txt	LTP248	ltpFR	3	13	1	WORM	1623	n/a	n/a	1	n/a	n/a	n/a	n/a	n/a
2288677	REC_WORD	wordpools/wasnorm_wordpool_less_exclusions.txt	LTP248	ltpFR	3	13	1	CHEMICAL	291	n/a	n/a	0	n/a	n/a	n/a	n/a	n/a
2322713	WORD	wordpools/wasnorm_wordpool_less_exclusions.txt	LTP248	ltpFR	3	14	1	LIMB	822	n/a	n/a	1	0.57763671875	0.412841796875	1	upper	zerothre.ttf
2326774	WORD	wordpools/wasnorm_wordpool_less_exclusions.txt	LTP248	ltpFR	3	14	1	SAP	1233	n/a	n/a	1	0.57763671875	0.412841796875	1	upper	zerothre.ttf
2330701	WORD	wordpools/wasnorm_wordpool_less_exclusions.txt	LTP248	ltpFR	3	14	1	PHOTO	1055	n/a	n/a	0	0.57763671875	0.412841796875	1	upper	zerothre.ttf
2334895	WORD	wordpools/wasnorm_wordpool_less_exclusions.txt	LTP248	ltpFR	3	14	1	CANVAS	234	n/a	n/a	0	0.57763671875	0.412841796875	1	upper	zerothre.ttf
2338889	WORD	wordpools/wasnorm_wordpool_less_exclusions.txt	LTP248	ltpFR	3	14	1	CHERRY	293	n/a	n/a	1	0.57763671875	0.412841796875	1	upper	zerothre.ttf
2343083	WORD	wordpools/wasnorm_wordpool_less_exclusions.txt	LTP248	ltpFR	3	14	1	MULE	931	n/a	n/a	1	0.57763671875	0.412841796875	1	upper	zerothre.ttf
2346960	WORD	wordpools/wasnorm_wordpool_less_exclusions.txt	LTP248	ltpFR	3	14	1	COP	376	n/a	n/a	1	0.57763671875	0.412841796875	1	upper	zerothre.ttf
2351137	WORD	wordpools/wasnorm_wordpool_less_exclusions.txt	LTP248	ltpFR	3	14	1	RADISH	1158	n/a	n/a	1	0.57763671875	0.412841796875	1	upper	zerothre.ttf
2355314	WORD	wordpools/wasnorm_wordpool_less_exclusions.txt	LTP248	ltpFR	3	14	1	MAT	877	n/a	n/a	0	0.57763671875	0.412841796875	1	upper	zerothre.ttf
2359526	WORD	wordpools/wasnorm_wordpool_less_exclusions.txt	LTP248	ltpFR	3	14	1	WINDSHIELD	1612	n/a	n/a	0	0.57763671875	0.412841796875	1	upper	zerothre.ttf
2363569	WORD	wordpools/wasnorm_wordpool_less_exclusions.txt	LTP248	ltpFR	3	14	1	ENGINE	535	n/a	n/a	0	0.57763671875	0.412841796875	1	upper	zerothre.ttf
2367713	WORD	wordpools/wasnorm_wordpool_less_exclusions.txt	LTP248	ltpFR	3	14	1	BALLOT	76	n/a	n/a	0	0.57763671875	0.412841796875	1	upper	zerothre.ttf
2371840	WORD	wordpools/wasnorm_wordpool_less_exclusions.txt	LTP248	ltpFR	3	14	1	POLICE	1098	n/a	n/a	0	0.57763671875	0.412841796875	1	upper	zerothre.ttf
2375767	WORD	wordpools/wasnorm_wordpool_less_exclusions.txt	LTP248	ltpFR	3	14	1	HAYSTACK	694	n/a	n/a	1	0.57763671875	0.412841796875	1	upper	zerothre.ttf
2379978	WORD	wordpools/wasnorm_wordpool_less_exclusions.txt	LTP248	ltpFR	3	14	1	COMET	353	n/a	n/a	1	0.57763671875	0.412841796875	1	upper	zerothre.ttf
2384072	WORD	wordpools/wasnorm_wordpool_less_exclusions.txt	LTP248	ltpFR	3	14	1	BUTTERFLY	206	n/a	n/a	1	0.57763671875	0.412841796875	1	upper	zerothre.ttf
2389880	REC_START	n/a	LTP248	ltpFR	3	14	n/a	n/a	n/a	n/a	n/a	n/a	n/a	n/a	n/a	n/a	n/a
2390359	REC_WORD	wordpools/wasnorm_wordpool_less_exclusions.txt	LTP248	ltpFR	3	14	1	COMET	353	n/a	n/a	1	n/a	n/a	n/a	n/a	n/a
2391302	REC_WORD	wordpools/wasnorm_wordpool_less_exclusions.txt	LTP248	ltpFR	3	14	1	BUTTERFLY	206	n/a	n/a	1	n/a	n/a	n/a	n/a	n/a
2392509	REC_WORD	wordpools/wasnorm_wordpool_less_exclusions.txt	LTP248	ltpFR	3	14	1	LIMB	822	n/a	n/a	1	n/a	n/a	n/a	n/a	n/a
2397283	REC_WORD	wordpools/wasnorm_wordpool_less_exclusions.txt	LTP248	ltpFR	3	14	n/a	MAGGOT	-1	n/a	n/a	n/a	n/a	n/a	n/a	n/a	n/a
2407470	REC_WORD	wordpools/wasnorm_wordpool_less_exclusions.txt	LTP248	ltpFR	3	14	1	COMET	353	n/a	n/a	1	n/a	n/a	n/a	n/a	n/a
2412369	REC_WORD	wordpools/wasnorm_wordpool_less_exclusions.txt	LTP248	ltpFR	3	14	1	TREE	1502	n/a	n/a	1	n/a	n/a	n/a	n/a	n/a
2440839	REC_WORD	wordpools/wasnorm_wordpool_less_exclusions.txt	LTP248	ltpFR	3	14	1	POLICE	1098	n/a	n/a	0	n/a	n/a	n/a	n/a	n/a
2468862	WORD	wordpools/wasnorm_wordpool_less_exclusions.txt	LTP248	ltpFR	3	15	1	IRON	744	n/a	n/a	2	0.57763671875	0.412841796875	1	upper	zerothre.ttf
2470759	KEY_MSG	n/a	LTP248	ltpFR	3	15	n/a	n/a	n/a	n/a	n/a	n/a	n/a	n/a	n/a	n/a	n/a
2473222	WORD	wordpools/wasnorm_wordpool_less_exclusions.txt	LTP248	ltpFR	3	15	1	BRANCH	168	n/a	n/a	1	0.57763671875	0.412841796875	1	upper	zerothre.ttf
2477199	WORD	wordpools/wasnorm_wordpool_less_exclusions.txt	LTP248	ltpFR	3	15	1	TOTE	1487	n/a	n/a	0	0.57763671875	0.412841796875	1	upper	zerothre.ttf
2481210	WORD	wordpools/wasnorm_wordpool_less_exclusions.txt	LTP248	ltpFR	3	15	0	CLOTHES	327	n/a	n/a	1	0.422607421875	0.5869140625	0	lower	amplitud.ttf
2485187	WORD	wordpools/wasnorm_wordpool_less_exclusions.txt	LTP248	ltpFR	3	15	0	GAZELLE	628	n/a	n/a	1	0.422607421875	0.5869140625	0	lower	amplitud.ttf
2489198	WORD	wordpools/wasnorm_wordpool_less_exclusions.txt	LTP248	ltpFR	3	15	0	CLAW	319	n/a	n/a	0	0.422607421875	0.5869140625	0	lower	amplitud.ttf
2493342	WORD	wordpools/wasnorm_wordpool_less_exclusions.txt	LTP248	ltpFR	3	15	0	PANTHER	1009	n/a	n/a	1	0.422607421875	0.5869140625	0	lower	amplitud.ttf
2497386	WORD	wordpools/wasnorm_wordpool_less_exclusions.txt	LTP248	ltpFR	3	15	0	CAT	257	n/a	n/a	1	0.422607421875	0.5869140625	0	lower	amplitud.ttf
2501514	WORD	wordpools/wasnorm_wordpool_less_exclusions.txt	LTP248	ltpFR	3	15	0	AUTOMOBILE	62	n/a	n/a	1	0.422607421875	0.5869140625	0	lower	amplitud.ttf
2505557	WORD	wordpools/wasnorm_wordpool_less_exclusions.txt	LTP248	ltpFR	3	15	1	SINK	1309	n/a	n/a	1	0.57763671875	0.412841796875	1	upper	zerothre.ttf
2509734	WORD	wordpools/wasnorm_wordpool_less_exclusions.txt	LTP248	ltpFR	3	15	1	BATHROOM	99	n/a	n/a	0	0.57763671875	0.412841796875	1	upper	zerothre.ttf
2513628	WORD	wordpools/wasnorm_wordpool_less_exclusions.txt	LTP248	ltpFR	3	15	1	WALL	1582	n/a	n/a	0	0.57763671875	0.412841796875	1	upper	zerothre.ttf
2517655	WORD	wordpools/wasnorm_wordpool_less_exclusions.txt	LTP248	ltpFR	3	15	0	BLUEBERRY	140	n/a	n/a	0	0.422607421875	0.5869140625	0	lower	amplitud.ttf
2521666	WORD	wordpools/wasnorm_wordpool_less_exclusions.txt	LTP248	ltpFR	3	15	0	MECHANIC	884	n/a	n/a	0	0.422607421875	0.5869140625	0	lower	amplitud.ttf
2525760	WORD	wordpools/wasnorm_wordpool_less_exclusions.txt	LTP248	ltpFR	3	15	1	CARPENTER	246	n/a	n/a	1	0.57763671875	0.412841796875	1	upper	zerothre.ttf
2529771	WORD	wordpools/wasnorm_wordpool_less_exclusions.txt	LTP248	ltpFR	3	15	1	GREASE	660	n/a	n/a	0	0.57763671875	0.412841796875	1	upper	zerothre.ttf
2535812	REC_START	n/a	LTP248	ltpFR	3	15	n/a	n/a	n/a	n/a	n/a	n/a	n/a	n/a	n/a	n/a	n/a
2536011	REC_WORD	wordpools/wasnorm_wordpool_less_exclusions.txt	LTP248	ltpFR	3	15	0	MECHANIC	884	n/a	n/a	0	n/a	n/a	n/a	n/a	n/a
2537208	REC_WORD	wordpools/wasnorm_wordpool_less_exclusions.txt	LTP248	ltpFR	3	15	1	GREASE	660	n/a	n/a	0	n/a	n/a	n/a	n/a	n/a
2538216	REC_WORD	wordpools/wasnorm_wordpool_less_exclusions.txt	LTP248	ltpFR	3	15	1	CARPENTER	246	n/a	n/a	1	n/a	n/a	n/a	n/a	n/a
2540072	REC_WORD	wordpools/wasnorm_wordpool_less_exclusions.txt	LTP248	ltpFR	3	15	0	AUTOMOBILE	62	n/a	n/a	1	n/a	n/a	n/a	n/a	n/a
2541499	REC_WORD	wordpools/wasnorm_wordpool_less_exclusions.txt	LTP248	ltpFR	3	15	n/a	CAR	241	n/a	n/a	n/a	n/a	n/a	n/a	n/a	n/a
2592308	REC_WORD	wordpools/wasnorm_wordpool_less_exclusions.txt	LTP248	ltpFR	3	15	1	GREASE	660	n/a	n/a	0	n/a	n/a	n/a	n/a	n/a
2640855	WORD	wordpools/wasnorm_wordpool_less_exclusions.txt	LTP248	ltpFR	3	16	0	ATTORNEY	58	n/a	n/a	1	0.422607421875	0.5869140625	0	lower	amplitud.ttf
2644965	WORD	wordpools/wasnorm_wordpool_less_exclusions.txt	LTP248	ltpFR	3	16	0	SAXOPHONE	1240	n/a	n/a	1	0.422607421875	0.5869140625	0	lower	amplitud.ttf
2649109	WORD	wordpools/wasnorm_wordpool_less_exclusions.txt	LTP248	ltpFR	3	16	0	SHORTCAKE	1292	n/a	n/a	1	0.422607421875	0.5869140625	0	lower	amplitud.ttf
2652937	WORD	wordpools/wasnorm_wordpool_less_exclusions.txt	LTP248	ltpFR	3	16	0	BASKETBALL	96	n/a	n/a	1	0.422607421875	0.5869140625	0	lower	amplitud.ttf
2656848	WORD	wordpools/wasnorm_wordpool_less_exclusions.txt	LTP248	ltpFR	3	16	1	BILL	126	n/a	n/a	0	0.57763671875	0.412841796875	1	upper	zerothre.ttf
2660875	WORD	wordpools/wasnorm_wordpool_less_exclusions.txt	LTP248	ltpFR	3	16	1	OPERATOR	979	n/a	n/a	0	0.57763671875	0.412841796875	1	upper	zerothre.ttf
2664802	WORD	wordpools/wasnorm_wordpool_less_exclusions.txt	LTP248	ltpFR	3	16	1	DRUM	502	n/a	n/a	0	0.57763671875	0.412841796875	1	upper	zerothre.ttf
2668896	WORD	wordpools/wasnorm_wordpool_less_exclusions.txt	LTP248	ltpFR	3	16	1	CELLO	268	n/a	n/a	0	0.57763671875	0.412841796875	1	upper	zerothre.ttf
2672757	WORD	wordpools/wasnorm_wordpool_less_exclusions.txt	LTP248	ltpFR	3	16	0	KING	777	n/a	n/a	1	0.422607421875	0.5869140625	0	lower	amplitud.ttf
2676884	WORD	wordpools/wasnorm_wordpool_less_exclusions.txt	LTP248	ltpFR	3	16	0	MOTHER	921	n/a	n/a	1	0.422607421875	0.5869140625	0	lower	amplitud.ttf
2681028	WORD	wordpools/wasnorm_wordpool_less_exclusions.txt	LTP248	ltpFR	3	16	0	RAM	1165	n/a	n/a	1	0.422607421875	0.5869140625	0	lower	amplitud.ttf
2684889	WORD	wordpools/wasnorm_wordpool_less_exclusions.txt	LTP248	ltpFR	3	16	0	GIRAFFE	636	n/a	n/a	1	0.422607421875	0.5869140625	0	lower	amplitud.ttf
2688950	WORD	wordpools/wasnorm_wordpool_less_exclusions.txt	LTP248	ltpFR	3	16	1	FINGERNAIL	568	n/a	n/a	0	0.57763671875	0.412841796875	1	upper	zerothre.ttf
2692994	WORD	wordpools/wasnorm_wordpool_less_exclusions.txt	LTP248	ltpFR	3	16	1	OBOE	969	n/a	n/a	0	0.57763671875	0.412841796875	1	upper	zerothre.ttf
2696971	WORD	wordpools/wasnorm_wordpool_less_exclusions.txt	LTP248	ltpFR	3	16	1	CAKE	219	n/a	n/a	0	0.57763671875	0.412841796875	1	upper	zerothre.ttf
2701015	WORD	wordpools/wasnorm_wordpool_less_exclusions.txt	LTP248	ltpFR	3	16	1	RODENT	1204	n/a	n/a	1	0.57763671875	0.412841796875	1	upper	zerothre.ttf
2706940	REC_START	n/a	LTP248	ltpFR	3	16	n/a	n/a	n/a	n/a	n/a	n/a	n/a	n/a	n/a	n/a	n/a
2707279	REC_WORD	wordpools/wasnorm_wordpool_less_exclusions.txt	LTP248	ltpFR	3	16	1	RODENT	1204	n/a	n/a	1	n/a	n/a	n/a	n/a	n/a
2708257	REC_WORD	wordpools/wasnorm_wordpool_less_exclusions.txt	LTP248	ltpFR	3	16	0	SHORTCAKE	1292	n/a	n/a	1	n/a	n/a	n/a	n/a	n/a
2710048	REC_WORD	wordpools/wasnorm_wordpool_less_exclusions.txt	LTP248	ltpFR	3	16	1	CAKE	219	n/a	n/a	0	n/a	n/a	n/a	n/a	n/a
2711874	REC_WORD	wordpools/wasnorm_wordpool_less_exclusions.txt	LTP248	ltpFR	3	16	1	CELLO	268	n/a	n/a	0	n/a	n/a	n/a	n/a	n/a
2713829	REC_WORD	wordpools/wasnorm_wordpool_less_exclusions.txt	LTP248	ltpFR	3	16	0	SAXOPHONE	1240	n/a	n/a	1	n/a	n/a	n/a	n/a	n/a
2715899	REC_WORD	wordpools/wasnorm_wordpool_less_exclusions.txt	LTP248	ltpFR	3	16	1	OBOE	969	n/a	n/a	0	n/a	n/a	n/a	n/a	n/a
2733080	REC_WORD	wordpools/wasnorm_wordpool_less_exclusions.txt	LTP248	ltpFR	3	16	0	BASKETBALL	96	n/a	n/a	1	n/a	n/a	n/a	n/a	n/a
2776906	REC_WORD	wordpools/wasnorm_wordpool_less_exclusions.txt	LTP248	ltpFR	3	16	-1	BOOK	149	n/a	n/a	-1	n/a	n/a	n/a	n/a	n/a
2780917	REC_WORD	wordpools/wasnorm_wordpool_less_exclusions.txt	LTP248	ltpFR	3	16	n/a	WALNUT	1584	n/a	n/a	n/a	n/a	n/a	n/a	n/a	n/a
2793577	REC_START	n/a	LTP248	ltpFR	3	n/a	n/a	n/a	n/a	n/a	n/a	n/a	n/a	n/a	n/a	n/a	n/a
2812707	FFR_REC_WORD_VV	wordpools/wasnorm_wordpool_less_exclusions.txt	LTP248	ltpFR	3	n/a	n/a	<>	-1	n/a	n/a	n/a	n/a	n/a	n/a	n/a	n/a
2813707	FFR_REC_WORD_VV	wordpools/wasnorm_wordpool_less_exclusions.txt	LTP248	ltpFR	3	n/a	n/a	<>	-1	n/a	n/a	n/a	n/a	n/a	n/a	n/a	n/a
2814707	FFR_REC_WORD_VV	wordpools/wasnorm_wordpool_less_exclusions.txt	LTP248	ltpFR	3	n/a	n/a	<>	-1	n/a	n/a	n/a	n/a	n/a	n/a	n/a	n/a
2815707	FFR_REC_WORD_VV	wordpools/wasnorm_wordpool_less_exclusions.txt	LTP248	ltpFR	3	n/a	n/a	<>	-1	n/a	n/a	n/a	n/a	n/a	n/a	n/a	n/a
2816707	FFR_REC_WORD_VV	wordpools/wasnorm_wordpool_less_exclusions.txt	LTP248	ltpFR	3	n/a	n/a	<>	-1	n/a	n/a	n/a	n/a	n/a	n/a	n/a	n/a
2817707	FFR_REC_WORD_VV	wordpools/wasnorm_wordpool_less_exclusions.txt	LTP248	ltpFR	3	n/a	n/a	<>	-1	n/a	n/a	n/a	n/a	n/a	n/a	n/a	n/a
2818707	FFR_REC_WORD_VV	wordpools/wasnorm_wordpool_less_exclusions.txt	LTP248	ltpFR	3	n/a	n/a	<>	-1	n/a	n/a	n/a	n/a	n/a	n/a	n/a	n/a
2819707	FFR_REC_WORD_VV	wordpools/wasnorm_wordpool_less_exclusions.txt	LTP248	ltpFR	3	n/a	n/a	<>	-1	n/a	n/a	n/a	n/a	n/a	n/a	n/a	n/a
2820707	FFR_REC_WORD_VV	wordpools/wasnorm_wordpool_less_exclusions.txt	LTP248	ltpFR	3	n/a	n/a	<>	-1	n/a	n/a	n/a	n/a	n/a	n/a	n/a	n/a
2821707	FFR_REC_WORD_VV	wordpools/wasnorm_wordpool_less_exclusions.txt	LTP248	ltpFR	3	n/a	n/a	<>	-1	n/a	n/a	n/a	n/a	n/a	n/a	n/a	n/a
2822707	FFR_REC_WORD_VV	wordpools/wasnorm_wordpool_less_exclusions.txt	LTP248	ltpFR	3	n/a	n/a	<>	-1	n/a	n/a	n/a	n/a	n/a	n/a	n/a	n/a
2823707	FFR_REC_WORD_VV	wordpools/wasnorm_wordpool_less_exclusions.txt	LTP248	ltpFR	3	n/a	n/a	<>	-1	n/a	n/a	n/a	n/a	n/a	n/a	n/a	n/a
2824707	FFR_REC_WORD_VV	wordpools/wasnorm_wordpool_less_exclusions.txt	LTP248	ltpFR	3	n/a	n/a	<>	-1	n/a	n/a	n/a	n/a	n/a	n/a	n/a	n/a
2825707	FFR_REC_WORD_VV	wordpools/wasnorm_wordpool_less_exclusions.txt	LTP248	ltpFR	3	n/a	n/a	<>	-1	n/a	n/a	n/a	n/a	n/a	n/a	n/a	n/a
2826707	FFR_REC_WORD_VV	wordpools/wasnorm_wordpool_less_exclusions.txt	LTP248	ltpFR	3	n/a	n/a	<>	-1	n/a	n/a	n/a	n/a	n/a	n/a	n/a	n/a
2827707	FFR_REC_WORD_VV	wordpools/wasnorm_wordpool_less_exclusions.txt	LTP248	ltpFR	3	n/a	n/a	<>	-1	n/a	n/a	n/a	n/a	n/a	n/a	n/a	n/a
2828707	FFR_REC_WORD_VV	wordpools/wasnorm_wordpool_less_exclusions.txt	LTP248	ltpFR	3	n/a	n/a	<>	-1	n/a	n/a	n/a	n/a	n/a	n/a	n/a	n/a
2829707	FFR_REC_WORD_VV	wordpools/wasnorm_wordpool_less_exclusions.txt	LTP248	ltpFR	3	n/a	n/a	<>	-1	n/a	n/a	n/a	n/a	n/a	n/a	n/a	n/a
2833790	FFR_REC_WORD	wordpools/wasnorm_wordpool_less_exclusions.txt	LTP248	ltpFR	3	n/a	1	OBOE	969	n/a	n/a	0	n/a	n/a	n/a	n/a	n/a
2834983	FFR_REC_WORD	wordpools/wasnorm_wordpool_less_exclusions.txt	LTP248	ltpFR	3	n/a	1	CELLO	268	n/a	n/a	0	n/a	n/a	n/a	n/a	n/a
2836065	FFR_REC_WORD	wordpools/wasnorm_wordpool_less_exclusions.txt	LTP248	ltpFR	3	n/a	0	SAXOPHONE	1240	n/a	n/a	1	n/a	n/a	n/a	n/a	n/a
2837407	FFR_REC_WORD	wordpools/wasnorm_wordpool_less_exclusions.txt	LTP248	ltpFR	3	n/a	1	RODENT	1204	n/a	n/a	1	n/a	n/a	n/a	n/a	n/a
2840260	FFR_REC_WORD	wordpools/wasnorm_wordpool_less_exclusions.txt	LTP248	ltpFR	3	n/a	1	CAKE	219	n/a	n/a	0	n/a	n/a	n/a	n/a	n/a
2840992	FFR_REC_WORD	wordpools/wasnorm_wordpool_less_exclusions.txt	LTP248	ltpFR	3	n/a	0	SHORTCAKE	1292	n/a	n/a	1	n/a	n/a	n/a	n/a	n/a
2844667	FFR_REC_WORD	wordpools/wasnorm_wordpool_less_exclusions.txt	LTP248	ltpFR	3	n/a	-1	SAILOR	1223	n/a	n/a	-1	n/a	n/a	n/a	n/a	n/a
2845728	FFR_REC_WORD	wordpools/wasnorm_wordpool_less_exclusions.txt	LTP248	ltpFR	3	n/a	1	POLICE	1098	n/a	n/a	0	n/a	n/a	n/a	n/a	n/a
2848721	FFR_REC_WORD	wordpools/wasnorm_wordpool_less_exclusions.txt	LTP248	ltpFR	3	n/a	-1	SLOPE	1328	n/a	n/a	-1	n/a	n/a	n/a	n/a	n/a
2849574	FFR_REC_WORD	wordpools/wasnorm_wordpool_less_exclusions.txt	LTP248	ltpFR	3	n/a	n/a	SEED	1266	n/a	n/a	n/a	n/a	n/a	n/a	n/a	n/a
2853394	FFR_REC_WORD	wordpools/wasnorm_wordpool_less_exclusions.txt	LTP248	ltpFR	3	n/a	-1	THICKET	1455	n/a	n/a	-1	n/a	n/a	n/a	n/a	n/a
2856389	FFR_REC_WORD	wordpools/wasnorm_wordpool_less_exclusions.txt	LTP248	ltpFR	3	n/a	-1	LUGGAGE	847	n/a	n/a	-1	n/a	n/a	n/a	n/a	n/a
2857601	FFR_REC_WORD	wordpools/wasnorm_wordpool_less_exclusions.txt	LTP248	ltpFR	3	n/a	-1	LITERATURE	831	n/a	n/a	-1	n/a	n/a	n/a	n/a	n/a
2858778	FFR_REC_WORD	wordpools/wasnorm_wordpool_less_exclusions.txt	LTP248	ltpFR	3	n/a	-1	FLASK	576	n/a	n/a	-1	n/a	n/a	n/a	n/a	n/a
2861517	FFR_REC_WORD	wordpools/wasnorm_wordpool_less_exclusions.txt	LTP248	ltpFR	3	n/a	n/a	SUIT	1402	n/a	n/a	n/a	n/a	n/a	n/a	n/a	n/a
2862889	FFR_REC_WORD	wordpools/wasnorm_wordpool_less_exclusions.txt	LTP248	ltpFR	3	n/a	-1	UNIFORM	1539	n/a	n/a	-1	n/a	n/a	n/a	n/a	n/a
2866147	FFR_REC_WORD	wordpools/wasnorm_wordpool_less_exclusions.txt	LTP248	ltpFR	3	n/a	-1	STOOL	1386	n/a	n/a	-1	n/a	n/a	n/a	n/a	n/a
2868372	FFR_REC_WORD	wordpools/wasnorm_wordpool_less_exclusions.txt	LTP248	ltpFR	3	n/a	-1	OWNER	993	n/a	n/a	-1	n/a	n/a	n/a	n/a	n/a
2869853	FFR_REC_WORD	wordpools/wasnorm_wordpool_less_exclusions.txt	LTP248	ltpFR	3	n/a	-1	OATS	968	n/a	n/a	-1	n/a	n/a	n/a	n/a	n/a
2870672	FFR_REC_WORD	wordpools/wasnorm_wordpool_less_exclusions.txt	LTP248	ltpFR	3	n/a	-1	OATMEAL	967	n/a	n/a	-1	n/a	n/a	n/a	n/a	n/a
2873959	FFR_REC_WORD	wordpools/wasnorm_wordpool_less_exclusions.txt	LTP248	ltpFR	3	n/a	-1	ACROBAT	4	n/a	n/a	-1	n/a	n/a	n/a	n/a	n/a
2874907	FFR_REC_WORD	wordpools/wasnorm_wordpool_less_exclusions.txt	LTP248	ltpFR	3	n/a	-1	HIGHWAY	707	n/a	n/a	-1	n/a	n/a	n/a	n/a	n/a
2876982	FFR_REC_WORD	wordpools/wasnorm_wordpool_less_exclusions.txt	LTP248	ltpFR	3	n/a	n/a	FIELD	562	n/a	n/a	n/a	n/a	n/a	n/a	n/a	n/a
2878045	FFR_REC_WORD	wordpools/wasnorm_wordpool_less_exclusions.txt	LTP248	ltpFR	3	n/a	n/a	WHEAT	1602	n/a	n/a	n/a	n/a	n/a	n/a	n/a	n/a
2884660	FFR_REC_WORD	wordpools/wasnorm_wordpool_less_exclusions.txt	LTP248	ltpFR	3	n/a	0	PIRATE	1074	n/a	n/a	1	n/a	n/a	n/a	n/a	n/a
2885638	FFR_REC_WORD	wordpools/wasnorm_wordpool_less_exclusions.txt	LTP248	ltpFR	3	n/a	0	SCREW	1254	n/a	n/a	0	n/a	n/a	n/a	n/a	n/a
2886974	FFR_REC_WORD	wordpools/wasnorm_wordpool_less_exclusions.txt	LTP248	ltpFR	3	n/a	n/a	KNEE	784	n/a	n/a	n/a	n/a	n/a	n/a	n/a	n/a
2888172	FFR_REC_WORD	wordpools/wasnorm_wordpool_less_exclusions.txt	LTP248	ltpFR	3	n/a	n/a	PORT	1110	n/a	n/a	n/a	n/a	n/a	n/a	n/a	n/a
2895490	FFR_REC_WORD	wordpools/wasnorm_wordpool_less_exclusions.txt	LTP248	ltpFR	3	n/a	-1	JAW	751	n/a	n/a	-1	n/a	n/a	n/a	n/a	n/a
2897196	FFR_REC_WORD	wordpools/wasnorm_wordpool_less_exclusions.txt	LTP248	ltpFR	3	n/a	-1	VALLEY	1545	n/a	n/a	-1	n/a	n/a	n/a	n/a	n/a
2909312	FFR_REC_WORD_VV	wordpools/wasnorm_wordpool_less_exclusions.txt	LTP248	ltpFR	3	n/a	n/a	<>	-1	n/a	n/a	n/a	n/a	n/a	n/a	n/a	n/a
2912471	FFR_REC_WORD	wordpools/wasnorm_wordpool_less_exclusions.txt	LTP248	ltpFR	3	n/a	-1	KNAPSACK	783	n/a	n/a	-1	n/a	n/a	n/a	n/a	n/a
2913918	FFR_REC_WORD	wordpools/wasnorm_wordpool_less_exclusions.txt	LTP248	ltpFR	3	n/a	-1	SACK	1220	n/a	n/a	-1	n/a	n/a	n/a	n/a	n/a
2917864	FFR_REC_WORD	wordpools/wasnorm_wordpool_less_exclusions.txt	LTP248	ltpFR	3	n/a	n/a	CLOAK	-1	n/a	n/a	n/a	n/a	n/a	n/a	n/a	n/a
2920104	FFR_REC_WORD	wordpools/wasnorm_wordpool_less_exclusions.txt	LTP248	ltpFR	3	n/a	0	CAPE	237	n/a	n/a	1	n/a	n/a	n/a	n/a	n/a
2921476	FFR_REC_WORD	wordpools/wasnorm_wordpool_less_exclusions.txt	LTP248	ltpFR	3	n/a	0	ROBE	1198	n/a	n/a	1	n/a	n/a	n/a	n/a	n/a
2922673	FFR_REC_WORD	wordpools/wasnorm_wordpool_less_exclusions.txt	LTP248	ltpFR	3	n/a	0	MAID	856	n/a	n/a	1	n/a	n/a	n/a	n/a	n/a
2925771	FFR_REC_WORD	wordpools/wasnorm_wordpool_less_exclusions.txt	LTP248	ltpFR	3	n/a	0	BUTLER	204	n/a	n/a	1	n/a	n/a	n/a	n/a	n/a
2927378	FFR_REC_WORD	wordpools/wasnorm_wordpool_less_exclusions.txt	LTP248	ltpFR	3	n/a	n/a	BATH	98	n/a	n/a	n/a	n/a	n/a	n/a	n/a	n/a
2927865	FFR_REC_WORD_VV	wordpools/wasnorm_wordpool_less_exclusions.txt	LTP248	ltpFR	3	n/a	n/a	<>	-1	n/a	n/a	n/a	n/a	n/a	n/a	n/a	n/a
2928061	FFR_REC_WORD	wordpools/wasnorm_wordpool_less_exclusions.txt	LTP248	ltpFR	3	n/a	0	BATHTUB	100	n/a	n/a	1	n/a	n/a	n/a	n/a	n/a
2933538	FFR_REC_WORD	wordpools/wasnorm_wordpool_less_exclusions.txt	LTP248	ltpFR	3	n/a	0	FLOOR	581	n/a	n/a	1	n/a	n/a	n/a	n/a	n/a
2946195	FFR_REC_WORD_VV	wordpools/wasnorm_wordpool_less_exclusions.txt	LTP248	ltpFR	3	n/a	n/a	<>	-1	n/a	n/a	n/a	n/a	n/a	n/a	n/a	n/a
2946729	FFR_REC_WORD	wordpools/wasnorm_wordpool_less_exclusions.txt	LTP248	ltpFR	3	n/a	n/a	PORPOISE	1109	n/a	n/a	n/a	n/a	n/a	n/a	n/a	n/a
2949437	FFR_REC_WORD	wordpools/wasnorm_wordpool_less_exclusions.txt	LTP248	ltpFR	3	n/a	-1	PORCUPINE	1107	n/a	n/a	-1	n/a	n/a	n/a	n/a	n/a
2951862	FFR_REC_WORD	wordpools/wasnorm_wordpool_less_exclusions.txt	LTP248	ltpFR	3	n/a	-1	OTTER	986	n/a	n/a	-1	n/a	n/a	n/a	n/a	n/a
2954037	FFR_REC_WORD	wordpools/wasnorm_wordpool_less_exclusions.txt	LTP248	ltpFR	3	n/a	-1	POOL	1103	n/a	n/a	-1	n/a	n/a	n/a	n/a	n/a
2954800	FFR_REC_WORD	wordpools/wasnorm_wordpool_less_exclusions.txt	LTP248	ltpFR	3	n/a	-1	VAULT	1550	n/a	n/a	-1	n/a	n/a	n/a	n/a	n/a
2957719	FFR_REC_WORD	wordpools/wasnorm_wordpool_less_exclusions.txt	LTP248	ltpFR	3	n/a	-1	SIDING	1304	n/a	n/a	-1	n/a	n/a	n/a	n/a	n/a
2958841	FFR_REC_WORD_VV	wordpools/wasnorm_wordpool_less_exclusions.txt	LTP248	ltpFR	3	n/a	n/a	<>	-1	n/a	n/a	n/a	n/a	n/a	n/a	n/a	n/a
2963339	FFR_REC_WORD_VV	wordpools/wasnorm_wordpool_less_exclusions.txt	LTP248	ltpFR	3	n/a	n/a	<>	-1	n/a	n/a	n/a	n/a	n/a	n/a	n/a	n/a
2964339	FFR_REC_WORD_VV	wordpools/wasnorm_wordpool_less_exclusions.txt	LTP248	ltpFR	3	n/a	n/a	<>	-1	n/a	n/a	n/a	n/a	n/a	n/a	n/a	n/a
2965339	FFR_REC_WORD_VV	wordpools/wasnorm_wordpool_less_exclusions.txt	LTP248	ltpFR	3	n/a	n/a	<>	-1	n/a	n/a	n/a	n/a	n/a	n/a	n/a	n/a
2966646	FFR_REC_WORD_VV	wordpools/wasnorm_wordpool_less_exclusions.txt	LTP248	ltpFR	3	n/a	n/a	<>	-1	n/a	n/a	n/a	n/a	n/a	n/a	n/a	n/a
2974421	FFR_REC_WORD_VV	wordpools/wasnorm_wordpool_less_exclusions.txt	LTP248	ltpFR	3	n/a	n/a	<>	-1	n/a	n/a	n/a	n/a	n/a	n/a	n/a	n/a
2976653	FFR_REC_WORD_VV	wordpools/wasnorm_wordpool_less_exclusions.txt	LTP248	ltpFR	3	n/a	n/a	<>	-1	n/a	n/a	n/a	n/a	n/a	n/a	n/a	n/a
2978306	FFR_REC_WORD	wordpools/wasnorm_wordpool_less_exclusions.txt	LTP248	ltpFR	3	n/a	-1	APPLE	33	n/a	n/a	-1	n/a	n/a	n/a	n/a	n/a
2978995	FFR_REC_WORD	wordpools/wasnorm_wordpool_less_exclusions.txt	LTP248	ltpFR	3	n/a	-1	BANANA	77	n/a	n/a	-1	n/a	n/a	n/a	n/a	n/a
2991632	FFR_REC_WORD	wordpools/wasnorm_wordpool_less_exclusions.txt	LTP248	ltpFR	3	n/a	0	MOTHER	921	n/a	n/a	1	n/a	n/a	n/a	n/a	n/a
2993687	FFR_REC_WORD	wordpools/wasnorm_wordpool_less_exclusions.txt	LTP248	ltpFR	3	n/a	-1	MAN	862	n/a	n/a	-1	n/a	n/a	n/a	n/a	n/a
2995777	FFR_REC_WORD	wordpools/wasnorm_wordpool_less_exclusions.txt	LTP248	ltpFR	3	n/a	n/a	COIN	343	n/a	n/a	n/a	n/a	n/a	n/a	n/a	n/a
2997119	FFR_REC_WORD	wordpools/wasnorm_wordpool_less_exclusions.txt	LTP248	ltpFR	3	n/a	0	RING	1193	n/a	n/a	0	n/a	n/a	n/a	n/a	n/a
3001564	FFR_REC_WORD	wordpools/wasnorm_wordpool_less_exclusions.txt	LTP248	ltpFR	3	n/a	-1	BOOK	149	n/a	n/a	-1	n/a	n/a	n/a	n/a	n/a
3002457	FFR_REC_WORD	wordpools/wasnorm_wordpool_less_exclusions.txt	LTP248	ltpFR	3	n/a	n/a	AUTHOR	61	n/a	n/a	n/a	n/a	n/a	n/a	n/a	n/a
3011696	FFR_REC_WORD	wordpools/wasnorm_wordpool_less_exclusions.txt	LTP248	ltpFR	3	n/a	1	GUITAR	670	n/a	n/a	0	n/a	n/a	n/a	n/a	n/a
3013123	FFR_REC_WORD	wordpools/wasnorm_wordpool_less_exclusions.txt	LTP248	ltpFR	3	n/a	n/a	VIOLIN	1571	n/a	n/a	n/a	n/a	n/a	n/a	n/a	n/a
3021278	FFR_REC_WORD	wordpools/wasnorm_wordpool_less_exclusions.txt	LTP248	ltpFR	3	n/a	-1	THICKET	1455	n/a	n/a	-1	n/a	n/a	n/a	n/a	n/a
3045369	FFR_REC_WORD	wordpools/wasnorm_wordpool_less_exclusions.txt	LTP248	ltpFR	3	n/a	n/a	KNEE	784	n/a	n/a	n/a	n/a	n/a	n/a	n/a	n/a
3046547	FFR_REC_WORD	wordpools/wasnorm_wordpool_less_exclusions.txt	LTP248	ltpFR	3	n/a	0	ELBOW	520	n/a	n/a	1	n/a	n/a	n/a	n/a	n/a
3053985	FFR_REC_WORD	wordpools/wasnorm_wordpool_less_exclusions.txt	LTP248	ltpFR	3	n/a	1	LIMB	822	n/a	n/a	1	n/a	n/a	n/a	n/a	n/a
3055172	FFR_REC_WORD	wordpools/wasnorm_wordpool_less_exclusions.txt	LTP248	ltpFR	3	n/a	1	CHEMICAL	291	n/a	n/a	0	n/a	n/a	n/a	n/a	n/a
3058270	FFR_REC_WORD	wordpools/wasnorm_wordpool_less_exclusions.txt	LTP248	ltpFR	3	n/a	n/a	REFRIGERATOR	1179	n/a	n/a	n/a	n/a	n/a	n/a	n/a	n/a
3068038	FFR_REC_WORD	wordpools/wasnorm_wordpool_less_exclusions.txt	LTP248	ltpFR	3	n/a	1	KNUCKLE	789	n/a	n/a	1	n/a	n/a	n/a	n/a	n/a
3071645	FFR_REC_WORD	wordpools/wasnorm_wordpool_less_exclusions.txt	LTP248	ltpFR	3	n/a	n/a	BABY	64	n/a	n/a	n/a	n/a	n/a	n/a	n/a	n/a
3074404	FFR_REC_WORD	wordpools/wasnorm_wordpool_less_exclusions.txt	LTP248	ltpFR	3	n/a	n/a	CROW	414	n/a	n/a	n/a	n/a	n/a	n/a	n/a	n/a
3076823	FFR_REC_WORD	wordpools/wasnorm_wordpool_less_exclusions.txt	LTP248	ltpFR	3	n/a	n/a	NEST	945	n/a	n/a	n/a	n/a	n/a	n/a	n/a	n/a
3086042	FFR_REC_WORD	wordpools/wasnorm_wordpool_less_exclusions.txt	LTP248	ltpFR	3	n/a	n/a	DOLPHIN	483	n/a	n/a	n/a	n/a	n/a	n/a	n/a	n/a
3125582	REC_START	n/a	LTP248	ltpFR	3	1	n/a	n/a	n/a	n/a	n/a	n/a	n/a	n/a	n/a	n/a	n/a
3125614	RECOG_LURE	n/a	LTP248	ltpFR	3	1	n/a	SPACE	1345	n/a	3	n/a	n/a	n/a	n/a	n/a	n/a
3132140	RECOG_CONF	n/a	LTP248	ltpFR	3	1	n/a	SPACE	1345	n/a	3	n/a	n/a	n/a	n/a	n/a	n/a
3134018	RECOG_TARGET	n/a	LTP248	ltpFR	3	1	1	LEAF	808	1	5	1	n/a	n/a	n/a	n/a	n/a
3135733	RECOG_RESP	n/a	LTP248	ltpFR	3	1	1	LEAF	808	1	n/a	1	n/a	n/a	n/a	n/a	n/a
3136601	RECOG_CONF	n/a	LTP248	ltpFR	3	1	1	LEAF	808	n/a	5	1	n/a	n/a	n/a	n/a	n/a
3138129	RECOG_TARGET	n/a	LTP248	ltpFR	3	1	0	ATTORNEY	58	1	5	1	n/a	n/a	n/a	n/a	n/a
3138996	RECOG_RESP	n/a	LTP248	ltpFR	3	1	0	ATTORNEY	58	1	n/a	1	n/a	n/a	n/a	n/a	n/a
3139749	RECOG_CONF	n/a	LTP248	ltpFR	3	1	0	ATTORNEY	58	n/a	5	1	n/a	n/a	n/a	n/a	n/a
3141391	RECOG_TARGET	n/a	LTP248	ltpFR	3	1	0	AUTOMOBILE	62	1	5	1	n/a	n/a	n/a	n/a	n/a
3142149	RECOG_RESP	n/a	LTP248	ltpFR	3	1	0	AUTOMOBILE	62	1	n/a	1	n/a	n/a	n/a	n/a	n/a
3142872	RECOG_CONF	n/a	LTP248	ltpFR	3	1	0	AUTOMOBILE	62	n/a	5	1	n/a	n/a	n/a	n/a	n/a
3144453	RECOG_TARGET	n/a	LTP248	ltpFR	3	1	-1	BUCKLE	185	1	5	-1	n/a	n/a	n/a	n/a	n/a
3145248	RECOG_RESP	n/a	LTP248	ltpFR	3	1	-1	BUCKLE	185	1	n/a	-1	n/a	n/a	n/a	n/a	n/a
3145952	RECOG_CONF	n/a	LTP248	ltpFR	3	1	-1	BUCKLE	185	n/a	5	-1	n/a	n/a	n/a	n/a	n/a
3147665	RECOG_TARGET	n/a	LTP248	ltpFR	3	1	0	EMPLOYEE	531	1	1	1	n/a	n/a	n/a	n/a	n/a
3148451	RECOG_RESP	n/a	LTP248	ltpFR	3	1	0	EMPLOYEE	531	1	n/a	1	n/a	n/a	n/a	n/a	n/a
3149238	RECOG_CONF	n/a	LTP248	ltpFR	3	1	0	EMPLOYEE	531	n/a	1	1	n/a	n/a	n/a	n/a	n/a
3150843	RECOG_TARGET	n/a	LTP248	ltpFR	3	1	-1	CLIPPERS	324	1	5	-1	n/a	n/a	n/a	n/a	n/a
3151606	RECOG_RESP	n/a	LTP248	ltpFR	3	1	-1	CLIPPERS	324	1	n/a	-1	n/a	n/a	n/a	n/a	n/a
3152288	RECOG_CONF	n/a	LTP248	ltpFR	3	1	-1	CLIPPERS	324	n/a	5	-1	n/a	n/a	n/a	n/a	n/a
3153855	RECOG_TARGET	n/a	LTP248	ltpFR	3	1	0	FLOOR	581	1	5	1	n/a	n/a	n/a	n/a	n/a
3154717	RECOG_RESP	n/a	LTP248	ltpFR	3	1	0	FLOOR	581	1	n/a	1	n/a	n/a	n/a	n/a	n/a
3155359	RECOG_CONF	n/a	LTP248	ltpFR	3	1	0	FLOOR	581	n/a	5	1	n/a	n/a	n/a	n/a	n/a
3157051	RECOG_LURE	n/a	LTP248	ltpFR	3	1	n/a	RECEIPT	1173	0	5	n/a	n/a	n/a	n/a	n/a	n/a
3157796	RECOG_RESP	n/a	LTP248	ltpFR	3	1	n/a	RECEIPT	1173	0	n/a	n/a	n/a	n/a	n/a	n/a	n/a
3158435	RECOG_CONF	n/a	LTP248	ltpFR	3	1	n/a	RECEIPT	1173	n/a	5	n/a	n/a	n/a	n/a	n/a	n/a
3160179	RECOG_TARGET	n/a	LTP248	ltpFR	3	1	-1	PERFUME	1049	1	5	-1	n/a	n/a	n/a	n/a	n/a
3160894	RECOG_RESP	n/a	LTP248	ltpFR	3	1	-1	PERFUME	1049	1	n/a	-1	n/a	n/a	n/a	n/a	n/a
3161492	RECOG_CONF	n/a	LTP248	ltpFR	3	1	-1	PERFUME	1049	n/a	5	-1	n/a	n/a	n/a	n/a	n/a
3163291	RECOG_TARGET	n/a	LTP248	ltpFR	3	1	0	AIRPORT	13	1	5	1	n/a	n/a	n/a	n/a	n/a
3163966	RECOG_RESP	n/a	LTP248	ltpFR	3	1	0	AIRPORT	13	1	n/a	1	n/a	n/a	n/a	n/a	n/a
3164554	RECOG_CONF	n/a	LTP248	ltpFR	3	1	0	AIRPORT	13	n/a	5	1	n/a	n/a	n/a	n/a	n/a
3166087	RECOG_TARGET	n/a	LTP248	ltpFR	3	1	1	CUSHION	428	0	1	0	n/a	n/a	n/a	n/a	n/a
3167004	RECOG_RESP	n/a	LTP248	ltpFR	3	1	1	CUSHION	428	0	n/a	0	n/a	n/a	n/a	n/a	n/a
3167681	RECOG_CONF	n/a	LTP248	ltpFR	3	1	1	CUSHION	428	n/a	1	0	n/a	n/a	n/a	n/a	n/a
3169216	RECOG_TARGET	n/a	LTP248	ltpFR	3	1	1	FATHER	554	1	1	1	n/a	n/a	n/a	n/a	n/a
3169907	RECOG_RESP	n/a	LTP248	ltpFR	3	1	1	FATHER	554	1	n/a	1	n/a	n/a	n/a	n/a	n/a
3170629	RECOG_CONF	n/a	LTP248	ltpFR	3	1	1	FATHER	554	n/a	1	1	n/a	n/a	n/a	n/a	n/a
3172261	RECOG_TARGET	n/a	LTP248	ltpFR	3	1	1	FLOWER	584	1	5	0	n/a	n/a	n/a	n/a	n/a
3172914	RECOG_RESP	n/a	LTP248	ltpFR	3	1	1	FLOWER	584	1	n/a	0	n/a	n/a	n/a	n/a	n/a
3173542	RECOG_CONF	n/a	LTP248	ltpFR	3	1	1	FLOWER	584	n/a	5	0	n/a	n/a	n/a	n/a	n/a
3175224	RECOG_TARGET	n/a	LTP248	ltpFR	3	1	-1	POTATO	1115	0	1	-1	n/a	n/a	n/a	n/a	n/a
3176329	RECOG_RESP	n/a	LTP248	ltpFR	3	1	-1	POTATO	1115	0	n/a	-1	n/a	n/a	n/a	n/a	n/a
3177150	RECOG_CONF	n/a	LTP248	ltpFR	3	1	-1	POTATO	1115	n/a	1	-1	n/a	n/a	n/a	n/a	n/a
3178818	RECOG_LURE	n/a	LTP248	ltpFR	3	1	n/a	ENVELOPE	537	0	5	n/a	n/a	n/a	n/a	n/a	n/a
3179844	RECOG_RESP_VV	n/a	LTP248	ltpFR	3	1	n/a	ENVELOPE	537	1	n/a	n/a	n/a	n/a	n/a	n/a	n/a
3180948	RECOG_RESP	n/a	LTP248	ltpFR	3	1	n/a	ENVELOPE	537	0	n/a	n/a	n/a	n/a	n/a	n/a	n/a
3181507	RECOG_CONF	n/a	LTP248	ltpFR	3	1	n/a	ENVELOPE	537	n/a	5	n/a	n/a	n/a	n/a	n/a	n/a
3183495	RECOG_TARGET	n/a	LTP248	ltpFR	3	1	0	CLOTHES	327	1	3	1	n/a	n/a	n/a	n/a	n/a
3184609	RECOG_RESP	n/a	LTP248	ltpFR	3	1	0	CLOTHES	327	1	n/a	1	n/a	n/a	n/a	n/a	n/a
3185291	RECOG_CONF	n/a	LTP248	ltpFR	3	1	0	CLOTHES	327	n/a	3	1	n/a	n/a	n/a	n/a	n/a
3186923	RECOG_TARGET	n/a	LTP248	ltpFR	3	1	1	DISHWASHER	475	1	5	0	n/a	n/a	n/a	n/a	n/a
3187684	RECOG_RESP	n/a	LTP248	ltpFR	3	1	1	DISHWASHER	475	1	n/a	0	n/a	n/a	n/a	n/a	n/a
3188370	RECOG_CONF	n/a	LTP248	ltpFR	3	1	1	DISHWASHER	475	n/a	5	0	n/a	n/a	n/a	n/a	n/a
3190018	RECOG_LURE	n/a	LTP248	ltpFR	3	1	n/a	PANTS	1010	0	5	n/a	n/a	n/a	n/a	n/a	n/a
3190898	RECOG_RESP	n/a	LTP248	ltpFR	3	1	n/a	PANTS	1010	0	n/a	n/a	n/a	n/a	n/a	n/a	n/a
3191464	RECOG_CONF	n/a	LTP248	ltpFR	3	1	n/a	PANTS	1010	n/a	5	n/a	n/a	n/a	n/a	n/a	n/a
3193047	RECOG_LURE	n/a	LTP248	ltpFR	3	1	n/a	MIRROR	899	0	1	n/a	n/a	n/a	n/a	n/a	n/a
3193849	RECOG_RESP	n/a	LTP248	ltpFR	3	1	n/a	MIRROR	899	0	n/a	n/a	n/a	n/a	n/a	n/a	n/a
3194464	RECOG_CONF	n/a	LTP248	ltpFR	3	1	n/a	MIRROR	899	n/a	1	n/a	n/a	n/a	n/a	n/a	n/a
3198282	REC_START	n/a	LTP248	ltpFR	3	2	n/a	n/a	n/a	n/a	n/a	n/a	n/a	n/a	n/a	n/a	n/a
3198322	RECOG_LURE	n/a	LTP248	ltpFR	3	2	n/a	GRATE	657	0	5	n/a	n/a	n/a	n/a	n/a	n/a
3199441	RECOG_RESP	n/a	LTP248	ltpFR	3	2	n/a	GRATE	657	0	n/a	n/a	n/a	n/a	n/a	n/a	n/a
3200063	RECOG_CONF	n/a	LTP248	ltpFR	3	2	n/a	GRATE	657	n/a	5	n/a	n/a	n/a	n/a	n/a	n/a
3201717	RECOG_TARGET	n/a	LTP248	ltpFR	3	2	1	MONGOOSE	909	1	5	1	n/a	n/a	n/a	n/a	n/a
3202366	RECOG_RESP	n/a	LTP248	ltpFR	3	2	1	MONGOOSE	909	1	n/a	1	n/a	n/a	n/a	n/a	n/a
3202912	RECOG_CONF	n/a	LTP248	ltpFR	3	2	1	MONGOOSE	909	n/a	5	1	n/a	n/a	n/a	n/a	n/a
3204580	RECOG_TARGET	n/a	LTP248	ltpFR	3	2	1	CANDIDATE	228	0	1	1	n/a	n/a	n/a	n/a	n/a
3205345	RECOG_RESP	n/a	LTP248	ltpFR	3	2	1	CANDIDATE	228	0	n/a	1	n/a	n/a	n/a	n/a	n/a
3206652	RECOG_CONF	n/a	LTP248	ltpFR	3	2	1	CANDIDATE	228	n/a	1	1	n/a	n/a	n/a	n/a	n/a
3210055	RECOG_TARGET	n/a	LTP248	ltpFR	3	2	-1	BEAN	105	1	5	-1	n/a	n/a	n/a	n/a	n/a
3210730	RECOG_RESP	n/a	LTP248	ltpFR	3	2	-1	BEAN	105	1	n/a	-1	n/a	n/a	n/a	n/a	n/a
3211284	RECOG_CONF	n/a	LTP248	ltpFR	3	2	-1	BEAN	105	n/a	5	-1	n/a	n/a	n/a	n/a	n/a
3212984	RECOG_TARGET	n/a	LTP248	ltpFR	3	2	1	SAP	1233	1	5	1	n/a	n/a	n/a	n/a	n/a
3213661	RECOG_RESP_VV	n/a	LTP248	ltpFR	3	2	1	SAP	1233	0	n/a	1	n/a	n/a	n/a	n/a	n/a
3214168	RECOG_RESP	n/a	LTP248	ltpFR	3	2	1	SAP	1233	1	n/a	1	n/a	n/a	n/a	n/a	n/a
3215468	RECOG_CONF	n/a	LTP248	ltpFR	3	2	1	SAP	1233	n/a	5	1	n/a	n/a	n/a	n/a	n/a
3217277	RECOG_TARGET	n/a	LTP248	ltpFR	3	2	-1	NET	946	1	5	-1	n/a	n/a	n/a	n/a	n/a
3218765	RECOG_RESP	n/a	LTP248	ltpFR	3	2	-1	NET	946	1	n/a	-1	n/a	n/a	n/a	n/a	n/a
3219650	RECOG_CONF	n/a	LTP248	ltpFR	3	2	-1	NET	946	n/a	5	-1	n/a	n/a	n/a	n/a	n/a
3221454	RECOG_TARGET	n/a	LTP248	ltpFR	3	2	-1	MAN	862	1	1	-1	n/a	n/a	n/a	n/a	n/a
3222285	RECOG_RESP	n/a	LTP248	ltpFR	3	2	-1	MAN	862	1	n/a	-1	n/a	n/a	n/a	n/a	n/a
3223010	RECOG_CONF	n/a	LTP248	ltpFR	3	2	-1	MAN	862	n/a	1	-1	n/a	n/a	n/a	n/a	n/a
3224433	RECOG_TARGET	n/a	LTP248	ltpFR	3	2	1	ORNAMENT	985	0	5	0	n/a	n/a	n/a	n/a	n/a
3225482	RECOG_RESP	n/a	LTP248	ltpFR	3	2	1	ORNAMENT	985	0	n/a	0	n/a	n/a	n/a	n/a	n/a
3226061	RECOG_CONF	n/a	LTP248	ltpFR	3	2	1	ORNAMENT	985	n/a	5	0	n/a	n/a	n/a	n/a	n/a
3227728	RECOG_LURE	n/a	LTP248	ltpFR	3	2	n/a	CASHIER	254	1	1	n/a	n/a	n/a	n/a	n/a	n/a
3229018	RECOG_RESP	n/a	LTP248	ltpFR	3	2	n/a	CASHIER	254	1	n/a	n/a	n/a	n/a	n/a	n/a	n/a
3229675	RECOG_CONF	n/a	LTP248	ltpFR	3	2	n/a	CASHIER	254	n/a	1	n/a	n/a	n/a	n/a	n/a	n/a
3231406	RECOG_TARGET	n/a	LTP248	ltpFR	3	2	-1	SAILOR	1223	1	5	-1	n/a	n/a	n/a	n/a	n/a
3232172	RECOG_RESP	n/a	LTP248	ltpFR	3	2	-1	SAILOR	1223	1	n/a	-1	n/a	n/a	n/a	n/a	n/a
3232828	RECOG_CONF	n/a	LTP248	ltpFR	3	2	-1	SAILOR	1223	n/a	5	-1	n/a	n/a	n/a	n/a	n/a
3234235	RECOG_LURE	n/a	LTP248	ltpFR	3	2	n/a	PASTRY	1022	0	5	n/a	n/a	n/a	n/a	n/a	n/a
3235076	RECOG_RESP	n/a	LTP248	ltpFR	3	2	n/a	PASTRY	1022	0	n/a	n/a	n/a	n/a	n/a	n/a	n/a
3235616	RECOG_CONF	n/a	LTP248	ltpFR	3	2	n/a	PASTRY	1022	n/a	5	n/a	n/a	n/a	n/a	n/a	n/a
3237297	RECOG_TARGET	n/a	LTP248	ltpFR	3	2	0	HEN	703	1	5	0	n/a	n/a	n/a	n/a	n/a
3238234	RECOG_RESP	n/a	LTP248	ltpFR	3	2	0	HEN	703	1	n/a	0	n/a	n/a	n/a	n/a	n/a
3238819	RECOG_CONF	n/a	LTP248	ltpFR	3	2	0	HEN	703	n/a	5	0	n/a	n/a	n/a	n/a	n/a
3240510	RECOG_TARGET	n/a	LTP248	ltpFR	3	2	0	TOAST	1471	0	5	0	n/a	n/a	n/a	n/a	n/a
3241336	RECOG_RESP	n/a	LTP248	ltpFR	3	2	0	TOAST	1471	0	n/a	0	n/a	n/a	n/a	n/a	n/a
3241873	RECOG_CONF	n/a	LTP248	ltpFR	3	2	0	TOAST	1471	n/a	5	0	n/a	n/a	n/a	n/a	n/a
3243489	RECOG_TARGET	n/a	LTP248	ltpFR	3	2	1	TREE	1502	1	2	1	n/a	n/a	n/a	n/a	n/a
3244484	RECOG_RESP	n/a	LTP248	ltpFR	3	2	1	TREE	1502	1	n/a	1	n/a	n/a	n/a	n/a	n/a
3245196	RECOG_CONF	n/a	LTP248	ltpFR	3	2	1	TREE	1502	n/a	2	1	n/a	n/a	n/a	n/a	n/a
3246916	RECOG_TARGET	n/a	LTP248	ltpFR	3	2	-1	TAVERN	1437	1	5	-1	n/a	n/a	n/a	n/a	n/a
3247672	RECOG_RESP	n/a	LTP248	ltpFR	3	2	-1	TAVERN	1437	1	n/a	-1	n/a	n/a	n/a	n/a	n/a
3248307	RECOG_CONF	n/a	LTP248	ltpFR	3	2	-1	TAVERN	1437	n/a	5	-1	n/a	n/a	n/a	n/a	n/a
3250178	RECOG_TARGET	n/a	LTP248	ltpFR	3	2	-1	PAPER	1011	1	1	-1	n/a	n/a	n/a	n/a	n/a
3251462	RECOG_RESP	n/a	LTP248	ltpFR	3	2	-1	PAPER	1011	1	n/a	-1	n/a	n/a	n/a	n/a	n/a
3252099	RECOG_CONF	n/a	LTP248	ltpFR	3	2	-1	PAPER	1011	n/a	1	-1	n/a	n/a	n/a	n/a	n/a
3253673	RECOG_LURE	n/a	LTP248	ltpFR	3	2	n/a	POPCORN	1104	0	5	n/a	n/a	n/a	n/a	n/a	n/a
3254606	RECOG_RESP	n/a	LTP248	ltpFR	3	2	n/a	POPCORN	1104	0	n/a	n/a	n/a	n/a	n/a	n/a	n/a
3255104	RECOG_CONF	n/a	LTP248	ltpFR	3	2	n/a	POPCORN	1104	n/a	5	n/a	n/a	n/a	n/a	n/a	n/a
3256768	RECOG_TARGET	n/a	LTP248	ltpFR	3	2	1	IRON	744	1	5	2	n/a	n/a	n/a	n/a	n/a
3257565	RECOG_RESP	n/a	LTP248	ltpFR	3	2	1	IRON	744	1	n/a	2	n/a	n/a	n/a	n/a	n/a
3258138	RECOG_CONF	n/a	LTP248	ltpFR	3	2	1	IRON	744	n/a	5	2	n/a	n/a	n/a	n/a	n/a
3259697	RECOG_TARGET	n/a	LTP248	ltpFR	3	2	-1	CURB	426	1	5	-1	n/a	n/a	n/a	n/a	n/a
3260686	RECOG_RESP	n/a	LTP248	ltpFR	3	2	-1	CURB	426	1	n/a	-1	n/a	n/a	n/a	n/a	n/a
3261260	RECOG_CONF	n/a	LTP248	ltpFR	3	2	-1	CURB	426	n/a	5	-1	n/a	n/a	n/a	n/a	n/a
3262942	RECOG_TARGET	n/a	LTP248	ltpFR	3	2	1	MAT	877	0	5	0	n/a	n/a	n/a	n/a	n/a
3263608	RECOG_RESP	n/a	LTP248	ltpFR	3	2	1	MAT	877	0	n/a	0	n/a	n/a	n/a	n/a	n/a
3264146	RECOG_CONF	n/a	LTP248	ltpFR	3	2	1	MAT	877	n/a	5	0	n/a	n/a	n/a	n/a	n/a
3267632	REC_START	n/a	LTP248	ltpFR	3	3	n/a	n/a	n/a	n/a	n/a	n/a	n/a	n/a	n/a	n/a	n/a
3267669	RECOG_TARGET	n/a	LTP248	ltpFR	3	3	0	AIRCRAFT	11	1	5	1	n/a	n/a	n/a	n/a	n/a
3268371	RECOG_RESP	n/a	LTP248	ltpFR	3	3	0	AIRCRAFT	11	1	n/a	1	n/a	n/a	n/a	n/a	n/a
3269014	RECOG_CONF	n/a	LTP248	ltpFR	3	3	0	AIRCRAFT	11	n/a	5	1	n/a	n/a	n/a	n/a	n/a
3270581	RECOG_LURE	n/a	LTP248	ltpFR	3	3	n/a	CHART	282	0	3	n/a	n/a	n/a	n/a	n/a	n/a
3271267	RECOG_RESP	n/a	LTP248	ltpFR	3	3	n/a	CHART	282	0	n/a	n/a	n/a	n/a	n/a	n/a	n/a
3271827	RECOG_CONF	n/a	LTP248	ltpFR	3	3	n/a	CHART	282	n/a	3	n/a	n/a	n/a	n/a	n/a	n/a
3273478	RECOG_TARGET	n/a	LTP248	ltpFR	3	3	-1	BUREAU	199	1	5	-1	n/a	n/a	n/a	n/a	n/a
3274080	RECOG_RESP	n/a	LTP248	ltpFR	3	3	-1	BUREAU	199	1	n/a	-1	n/a	n/a	n/a	n/a	n/a
3274590	RECOG_CONF	n/a	LTP248	ltpFR	3	3	-1	BUREAU	199	n/a	5	-1	n/a	n/a	n/a	n/a	n/a
3276206	RECOG_TARGET	n/a	LTP248	ltpFR	3	3	0	ANKLE	24	1	5	1	n/a	n/a	n/a	n/a	n/a
3276958	RECOG_RESP	n/a	LTP248	ltpFR	3	3	0	ANKLE	24	1	n/a	1	n/a	n/a	n/a	n/a	n/a
3277513	RECOG_CONF	n/a	LTP248	ltpFR	3	3	0	ANKLE	24	n/a	5	1	n/a	n/a	n/a	n/a	n/a
3279202	RECOG_TARGET	n/a	LTP248	ltpFR	3	3	1	LUNG	850	1	5	1	n/a	n/a	n/a	n/a	n/a
3279709	RECOG_RESP	n/a	LTP248	ltpFR	3	3	1	LUNG	850	1	n/a	1	n/a	n/a	n/a	n/a	n/a
3280298	RECOG_CONF	n/a	LTP248	ltpFR	3	3	1	LUNG	850	n/a	5	1	n/a	n/a	n/a	n/a	n/a
3281997	RECOG_TARGET	n/a	LTP248	ltpFR	3	3	-1	ACROBAT	4	1	5	-1	n/a	n/a	n/a	n/a	n/a
3282770	RECOG_RESP	n/a	LTP248	ltpFR	3	3	-1	ACROBAT	4	1	n/a	-1	n/a	n/a	n/a	n/a	n/a
3283313	RECOG_CONF	n/a	LTP248	ltpFR	3	3	-1	ACROBAT	4	n/a	5	-1	n/a	n/a	n/a	n/a	n/a
3284993	RECOG_TARGET	n/a	LTP248	ltpFR	3	3	0	PLAID	1080	1	5	0	n/a	n/a	n/a	n/a	n/a
3285683	RECOG_RESP	n/a	LTP248	ltpFR	3	3	0	PLAID	1080	1	n/a	0	n/a	n/a	n/a	n/a	n/a
3286219	RECOG_CONF	n/a	LTP248	ltpFR	3	3	0	PLAID	1080	n/a	5	0	n/a	n/a	n/a	n/a	n/a
3288005	RECOG_TARGET	n/a	LTP248	ltpFR	3	3	1	DRUM	502	1	5	0	n/a	n/a	n/a	n/a	n/a
3288694	RECOG_RESP	n/a	LTP248	ltpFR	3	3	1	DRUM	502	1	n/a	0	n/a	n/a	n/a	n/a	n/a
3289220	RECOG_CONF	n/a	LTP248	ltpFR	3	3	1	DRUM	502	n/a	5	0	n/a	n/a	n/a	n/a	n/a
3290851	RECOG_TARGET	n/a	LTP248	ltpFR	3	3	0	APPENDAGE	32	0	5	1	n/a	n/a	n/a	n/a	n/a
3291795	RECOG_RESP	n/a	LTP248	ltpFR	3	3	0	APPENDAGE	32	0	n/a	1	n/a	n/a	n/a	n/a	n/a
3292400	RECOG_CONF	n/a	LTP248	ltpFR	3	3	0	APPENDAGE	32	n/a	5	1	n/a	n/a	n/a	n/a	n/a
3293963	RECOG_LURE	n/a	LTP248	ltpFR	3	3	n/a	ESSAY	540	0	1	n/a	n/a	n/a	n/a	n/a	n/a
3295017	RECOG_RESP	n/a	LTP248	ltpFR	3	3	n/a	ESSAY	540	0	n/a	n/a	n/a	n/a	n/a	n/a	n/a
3295669	RECOG_CONF	n/a	LTP248	ltpFR	3	3	n/a	ESSAY	540	n/a	1	n/a	n/a	n/a	n/a	n/a	n/a
3297175	RECOG_LURE	n/a	LTP248	ltpFR	3	3	n/a	HAMMOCK	681	0	3	n/a	n/a	n/a	n/a	n/a	n/a
3298150	RECOG_RESP	n/a	LTP248	ltpFR	3	3	n/a	HAMMOCK	681	0	n/a	n/a	n/a	n/a	n/a	n/a	n/a
3298696	RECOG_CONF	n/a	LTP248	ltpFR	3	3	n/a	HAMMOCK	681	n/a	3	n/a	n/a	n/a	n/a	n/a	n/a
3300471	RECOG_TARGET	n/a	LTP248	ltpFR	3	3	1	CHERRY	293	1	5	1	n/a	n/a	n/a	n/a	n/a
3301170	RECOG_RESP	n/a	LTP248	ltpFR	3	3	1	CHERRY	293	1	n/a	1	n/a	n/a	n/a	n/a	n/a
3301799	RECOG_CONF	n/a	LTP248	ltpFR	3	3	1	CHERRY	293	n/a	5	1	n/a	n/a	n/a	n/a	n/a
3303516	RECOG_TARGET	n/a	LTP248	ltpFR	3	3	0	CREEK	404	1	5	1	n/a	n/a	n/a	n/a	n/a
3304066	RECOG_RESP	n/a	LTP248	ltpFR	3	3	0	CREEK	404	1	n/a	1	n/a	n/a	n/a	n/a	n/a
3304673	RECOG_CONF	n/a	LTP248	ltpFR	3	3	0	CREEK	404	n/a	5	1	n/a	n/a	n/a	n/a	n/a
3306211	RECOG_LURE	n/a	LTP248	ltpFR	3	3	n/a	MAILMAN	858	0	5	n/a	n/a	n/a	n/a	n/a	n/a
3306991	RECOG_RESP	n/a	LTP248	ltpFR	3	3	n/a	MAILMAN	858	0	n/a	n/a	n/a	n/a	n/a	n/a	n/a
3307558	RECOG_CONF	n/a	LTP248	ltpFR	3	3	n/a	MAILMAN	858	n/a	5	n/a	n/a	n/a	n/a	n/a	n/a
3309190	RECOG_TARGET	n/a	LTP248	ltpFR	3	3	1	SARDINE	1235	1	5	1	n/a	n/a	n/a	n/a	n/a
3309833	RECOG_RESP	n/a	LTP248	ltpFR	3	3	1	SARDINE	1235	1	n/a	1	n/a	n/a	n/a	n/a	n/a
3310434	RECOG_CONF	n/a	LTP248	ltpFR	3	3	1	SARDINE	1235	n/a	5	1	n/a	n/a	n/a	n/a	n/a
3312036	RECOG_TARGET	n/a	LTP248	ltpFR	3	3	0	BLUEBERRY	140	1	5	0	n/a	n/a	n/a	n/a	n/a
3312634	RECOG_RESP	n/a	LTP248	ltpFR	3	3	0	BLUEBERRY	140	1	n/a	0	n/a	n/a	n/a	n/a	n/a
3313271	RECOG_CONF	n/a	LTP248	ltpFR	3	3	0	BLUEBERRY	140	n/a	5	0	n/a	n/a	n/a	n/a	n/a
3314832	RECOG_TARGET	n/a	LTP248	ltpFR	3	3	0	NOSE	957	0	5	1	n/a	n/a	n/a	n/a	n/a
3315630	RECOG_RESP	n/a	LTP248	ltpFR	3	3	0	NOSE	957	0	n/a	1	n/a	n/a	n/a	n/a	n/a
3316316	RECOG_CONF	n/a	LTP248	ltpFR	3	3	0	NOSE	957	n/a	5	1	n/a	n/a	n/a	n/a	n/a
3317844	RECOG_TARGET	n/a	LTP248	ltpFR	3	3	0	OX	994	0	5	1	n/a	n/a	n/a	n/a	n/a
3318580	RECOG_RESP	n/a	LTP248	ltpFR	3	3	0	OX	994	0	n/a	1	n/a	n/a	n/a	n/a	n/a
3319285	RECOG_CONF	n/a	LTP248	ltpFR	3	3	0	OX	994	n/a	5	1	n/a	n/a	n/a	n/a	n/a
3320939	RECOG_TARGET	n/a	LTP248	ltpFR	3	3	1	WINE	1613	1	5	0	n/a	n/a	n/a	n/a	n/a
3321794	RECOG_RESP	n/a	LTP248	ltpFR	3	3	1	WINE	1613	1	n/a	0	n/a	n/a	n/a	n/a	n/a
3322466	RECOG_CONF	n/a	LTP248	ltpFR	3	3	1	WINE	1613	n/a	5	0	n/a	n/a	n/a	n/a	n/a
3323868	RECOG_LURE	n/a	LTP248	ltpFR	3	3	n/a	ROOST	1208	0	3	n/a	n/a	n/a	n/a	n/a	n/a
3324656	RECOG_RESP	n/a	LTP248	ltpFR	3	3	n/a	ROOST	1208	0	n/a	n/a	n/a	n/a	n/a	n/a	n/a
3325346	RECOG_CONF	n/a	LTP248	ltpFR	3	3	n/a	ROOST	1208	n/a	3	n/a	n/a	n/a	n/a	n/a	n/a
3334273	REC_START	n/a	LTP248	ltpFR	3	4	n/a	n/a	n/a	n/a	n/a	n/a	n/a	n/a	n/a	n/a	n/a
3334303	RECOG_TARGET	n/a	LTP248	ltpFR	3	4	0	PAINTER	1004	0	4	1	n/a	n/a	n/a	n/a	n/a
3335114	RECOG_RESP	n/a	LTP248	ltpFR	3	4	0	PAINTER	1004	0	n/a	1	n/a	n/a	n/a	n/a	n/a
3335645	RECOG_CONF	n/a	LTP248	ltpFR	3	4	0	PAINTER	1004	n/a	4	1	n/a	n/a	n/a	n/a	n/a
3337365	RECOG_LURE	n/a	LTP248	ltpFR	3	4	n/a	REINDEER	1181	0	5	n/a	n/a	n/a	n/a	n/a	n/a
3338401	RECOG_RESP	n/a	LTP248	ltpFR	3	4	n/a	REINDEER	1181	0	n/a	n/a	n/a	n/a	n/a	n/a	n/a
3339082	RECOG_CONF	n/a	LTP248	ltpFR	3	4	n/a	REINDEER	1181	n/a	5	n/a	n/a	n/a	n/a	n/a	n/a
3340859	RECOG_TARGET	n/a	LTP248	ltpFR	3	4	0	BOAT	144	0	1	1	n/a	n/a	n/a	n/a	n/a
3341536	RECOG_RESP	n/a	LTP248	ltpFR	3	4	0	BOAT	144	0	n/a	1	n/a	n/a	n/a	n/a	n/a
3342171	RECOG_CONF	n/a	LTP248	ltpFR	3	4	0	BOAT	144	n/a	1	1	n/a	n/a	n/a	n/a	n/a
3343705	RECOG_LURE	n/a	LTP248	ltpFR	3	4	n/a	SALAD	1224	0	3	n/a	n/a	n/a	n/a	n/a	n/a
3344534	RECOG_RESP	n/a	LTP248	ltpFR	3	4	n/a	SALAD	1224	0	n/a	n/a	n/a	n/a	n/a	n/a	n/a
3345063	RECOG_CONF	n/a	LTP248	ltpFR	3	4	n/a	SALAD	1224	n/a	3	n/a	n/a	n/a	n/a	n/a	n/a
3346784	RECOG_TARGET	n/a	LTP248	ltpFR	3	4	-1	OATMEAL	967	1	5	-1	n/a	n/a	n/a	n/a	n/a
3347448	RECOG_RESP	n/a	LTP248	ltpFR	3	4	-1	OATMEAL	967	1	n/a	-1	n/a	n/a	n/a	n/a	n/a
3348018	RECOG_CONF	n/a	LTP248	ltpFR	3	4	-1	OATMEAL	967	n/a	5	-1	n/a	n/a	n/a	n/a	n/a
3349779	RECOG_LURE	n/a	LTP248	ltpFR	3	4	n/a	PRINCE	1124	0	5	n/a	n/a	n/a	n/a	n/a	n/a
3350532	RECOG_RESP	n/a	LTP248	ltpFR	3	4	n/a	PRINCE	1124	0	n/a	n/a	n/a	n/a	n/a	n/a	n/a
3351109	RECOG_CONF	n/a	LTP248	ltpFR	3	4	n/a	PRINCE	1124	n/a	5	n/a	n/a	n/a	n/a	n/a	n/a
3352725	RECOG_TARGET	n/a	LTP248	ltpFR	3	4	1	COP	376	0	1	1	n/a	n/a	n/a	n/a	n/a
3353780	RECOG_RESP	n/a	LTP248	ltpFR	3	4	1	COP	376	0	n/a	1	n/a	n/a	n/a	n/a	n/a
3354412	RECOG_CONF	n/a	LTP248	ltpFR	3	4	1	COP	376	n/a	1	1	n/a	n/a	n/a	n/a	n/a
3356170	RECOG_LURE	n/a	LTP248	ltpFR	3	4	n/a	SWORD	1423	0	4	n/a	n/a	n/a	n/a	n/a	n/a
3356959	RECOG_RESP	n/a	LTP248	ltpFR	3	4	n/a	SWORD	1423	0	n/a	n/a	n/a	n/a	n/a	n/a	n/a
3357686	RECOG_CONF	n/a	LTP248	ltpFR	3	4	n/a	SWORD	1423	n/a	4	n/a	n/a	n/a	n/a	n/a	n/a
3359399	RECOG_LURE	n/a	LTP248	ltpFR	3	4	n/a	TELEPHONE	1445	1	4	n/a	n/a	n/a	n/a	n/a	n/a
3360010	RECOG_RESP	n/a	LTP248	ltpFR	3	4	n/a	TELEPHONE	1445	1	n/a	n/a	n/a	n/a	n/a	n/a	n/a
3360640	RECOG_CONF	n/a	LTP248	ltpFR	3	4	n/a	TELEPHONE	1445	n/a	4	n/a	n/a	n/a	n/a	n/a	n/a
3362377	RECOG_TARGET	n/a	LTP248	ltpFR	3	4	0	CAPE	237	1	5	1	n/a	n/a	n/a	n/a	n/a
3363109	RECOG_RESP	n/a	LTP248	ltpFR	3	4	0	CAPE	237	1	n/a	1	n/a	n/a	n/a	n/a	n/a
3363681	RECOG_CONF	n/a	LTP248	ltpFR	3	4	0	CAPE	237	n/a	5	1	n/a	n/a	n/a	n/a	n/a
3365290	RECOG_TARGET	n/a	LTP248	ltpFR	3	4	-1	OATS	968	1	5	-1	n/a	n/a	n/a	n/a	n/a
3365876	RECOG_RESP	n/a	LTP248	ltpFR	3	4	-1	OATS	968	1	n/a	-1	n/a	n/a	n/a	n/a	n/a
3366472	RECOG_CONF	n/a	LTP248	ltpFR	3	4	-1	OATS	968	n/a	5	-1	n/a	n/a	n/a	n/a	n/a
3368269	RECOG_TARGET	n/a	LTP248	ltpFR	3	4	0	CITIZEN	312	1	5	1	n/a	n/a	n/a	n/a	n/a
3369134	RECOG_RESP	n/a	LTP248	ltpFR	3	4	0	CITIZEN	312	1	n/a	1	n/a	n/a	n/a	n/a	n/a
3369768	RECOG_CONF	n/a	LTP248	ltpFR	3	4	0	CITIZEN	312	n/a	5	1	n/a	n/a	n/a	n/a	n/a
3371414	RECOG_TARGET	n/a	LTP248	ltpFR	3	4	0	BATHTUB	100	1	5	1	n/a	n/a	n/a	n/a	n/a
3371937	RECOG_RESP	n/a	LTP248	ltpFR	3	4	0	BATHTUB	100	1	n/a	1	n/a	n/a	n/a	n/a	n/a
3372592	RECOG_CONF	n/a	LTP248	ltpFR	3	4	0	BATHTUB	100	n/a	5	1	n/a	n/a	n/a	n/a	n/a
3374160	RECOG_TARGET	n/a	LTP248	ltpFR	3	4	-1	KNAPSACK	783	1	5	-1	n/a	n/a	n/a	n/a	n/a
3374799	RECOG_RESP	n/a	LTP248	ltpFR	3	4	-1	KNAPSACK	783	1	n/a	-1	n/a	n/a	n/a	n/a	n/a
3375426	RECOG_CONF	n/a	LTP248	ltpFR	3	4	-1	KNAPSACK	783	n/a	5	-1	n/a	n/a	n/a	n/a	n/a
3377006	RECOG_LURE	n/a	LTP248	ltpFR	3	4	n/a	PICK	1058	0	5	n/a	n/a	n/a	n/a	n/a	n/a
3377696	RECOG_RESP	n/a	LTP248	ltpFR	3	4	n/a	PICK	1058	0	n/a	n/a	n/a	n/a	n/a	n/a	n/a
3378299	RECOG_CONF	n/a	LTP248	ltpFR	3	4	n/a	PICK	1058	n/a	5	n/a	n/a	n/a	n/a	n/a	n/a
3379918	RECOG_LURE	n/a	LTP248	ltpFR	3	4	n/a	TYPIST	1532	0	1	n/a	n/a	n/a	n/a	n/a	n/a
3380732	RECOG_RESP	n/a	LTP248	ltpFR	3	4	n/a	TYPIST	1532	0	n/a	n/a	n/a	n/a	n/a	n/a	n/a
3381348	RECOG_CONF	n/a	LTP248	ltpFR	3	4	n/a	TYPIST	1532	n/a	1	n/a	n/a	n/a	n/a	n/a	n/a
3382947	RECOG_TARGET	n/a	LTP248	ltpFR	3	4	0	LOBSTER	837	0	5	0	n/a	n/a	n/a	n/a	n/a
3383922	RECOG_RESP	n/a	LTP248	ltpFR	3	4	0	LOBSTER	837	0	n/a	0	n/a	n/a	n/a	n/a	n/a
3384563	RECOG_CONF	n/a	LTP248	ltpFR	3	4	0	LOBSTER	837	n/a	5	0	n/a	n/a	n/a	n/a	n/a
3386292	RECOG_TARGET	n/a	LTP248	ltpFR	3	4	-1	HIKER	708	1	5	-1	n/a	n/a	n/a	n/a	n/a
3386959	RECOG_RESP	n/a	LTP248	ltpFR	3	4	-1	HIKER	708	1	n/a	-1	n/a	n/a	n/a	n/a	n/a
3387571	RECOG_CONF	n/a	LTP248	ltpFR	3	4	-1	HIKER	708	n/a	5	-1	n/a	n/a	n/a	n/a	n/a
3389304	RECOG_TARGET	n/a	LTP248	ltpFR	3	4	-1	STOOL	1386	1	5	-1	n/a	n/a	n/a	n/a	n/a
3389837	RECOG_RESP	n/a	LTP248	ltpFR	3	4	-1	STOOL	1386	1	n/a	-1	n/a	n/a	n/a	n/a	n/a
3390444	RECOG_CONF	n/a	LTP248	ltpFR	3	4	-1	STOOL	1386	n/a	5	-1	n/a	n/a	n/a	n/a	n/a
3392100	RECOG_TARGET	n/a	LTP248	ltpFR	3	4	-1	POOL	1103	1	5	-1	n/a	n/a	n/a	n/a	n/a
3392771	RECOG_RESP	n/a	LTP248	ltpFR	3	4	-1	POOL	1103	1	n/a	-1	n/a	n/a	n/a	n/a	n/a
3393408	RECOG_CONF	n/a	LTP248	ltpFR	3	4	-1	POOL	1103	n/a	5	-1	n/a	n/a	n/a	n/a	n/a
3399008	REC_START	n/a	LTP248	ltpFR	3	5	n/a	n/a	n/a	n/a	n/a	n/a	n/a	n/a	n/a	n/a	n/a
3399039	RECOG_TARGET	n/a	LTP248	ltpFR	3	5	0	COUSIN	392	0	1	1	n/a	n/a	n/a	n/a	n/a
3400044	RECOG_RESP	n/a	LTP248	ltpFR	3	5	0	COUSIN	392	0	n/a	1	n/a	n/a	n/a	n/a	n/a
3400723	RECOG_CONF	n/a	LTP248	ltpFR	3	5	0	COUSIN	392	n/a	1	1	n/a	n/a	n/a	n/a	n/a
3402301	RECOG_TARGET	n/a	LTP248	ltpFR	3	5	1	SENATOR	1268	1	5	3	n/a	n/a	n/a	n/a	n/a
3402916	RECOG_RESP	n/a	LTP248	ltpFR	3	5	1	SENATOR	1268	1	n/a	3	n/a	n/a	n/a	n/a	n/a
3403542	RECOG_CONF	n/a	LTP248	ltpFR	3	5	1	SENATOR	1268	n/a	5	3	n/a	n/a	n/a	n/a	n/a
3405164	RECOG_TARGET	n/a	LTP248	ltpFR	3	5	1	OPERATOR	979	1	5	0	n/a	n/a	n/a	n/a	n/a
3405687	RECOG_RESP	n/a	LTP248	ltpFR	3	5	1	OPERATOR	979	1	n/a	0	n/a	n/a	n/a	n/a	n/a
3406244	RECOG_CONF	n/a	LTP248	ltpFR	3	5	1	OPERATOR	979	n/a	5	0	n/a	n/a	n/a	n/a	n/a
3408026	RECOG_TARGET	n/a	LTP248	ltpFR	3	5	1	WAND	1586	0	5	0	n/a	n/a	n/a	n/a	n/a
3408955	RECOG_RESP	n/a	LTP248	ltpFR	3	5	1	WAND	1586	0	n/a	0	n/a	n/a	n/a	n/a	n/a
3409828	RECOG_CONF	n/a	LTP248	ltpFR	3	5	1	WAND	1586	n/a	5	0	n/a	n/a	n/a	n/a	n/a
3411522	RECOG_LURE	n/a	LTP248	ltpFR	3	5	n/a	JOURNAL	760	1	4	n/a	n/a	n/a	n/a	n/a	n/a
3412326	RECOG_RESP	n/a	LTP248	ltpFR	3	5	n/a	JOURNAL	760	1	n/a	n/a	n/a	n/a	n/a	n/a	n/a
3412997	RECOG_CONF	n/a	LTP248	ltpFR	3	5	n/a	JOURNAL	760	n/a	4	n/a	n/a	n/a	n/a	n/a	n/a
3414649	RECOG_TARGET	n/a	LTP248	ltpFR	3	5	0	ASH	44	1	5	0	n/a	n/a	n/a	n/a	n/a
3415109	RECOG_RESP	n/a	LTP248	ltpFR	3	5	0	ASH	44	1	n/a	0	n/a	n/a	n/a	n/a	n/a
3415765	RECOG_CONF	n/a	LTP248	ltpFR	3	5	0	ASH	44	n/a	5	0	n/a	n/a	n/a	n/a	n/a
3417312	RECOG_LURE	n/a	LTP248	ltpFR	3	5	n/a	CUP	424	1	1	n/a	n/a	n/a	n/a	n/a	n/a
3417780	RECOG_RESP	n/a	LTP248	ltpFR	3	5	n/a	CUP	424	1	n/a	n/a	n/a	n/a	n/a	n/a	n/a
3418399	RECOG_CONF	n/a	LTP248	ltpFR	3	5	n/a	CUP	424	n/a	1	n/a	n/a	n/a	n/a	n/a	n/a
3419925	RECOG_LURE	n/a	LTP248	ltpFR	3	5	n/a	JEWEL	757	1	2	n/a	n/a	n/a	n/a	n/a	n/a
3420568	RECOG_RESP	n/a	LTP248	ltpFR	3	5	n/a	JEWEL	757	1	n/a	n/a	n/a	n/a	n/a	n/a	n/a
3421240	RECOG_CONF	n/a	LTP248	ltpFR	3	5	n/a	JEWEL	757	n/a	2	n/a	n/a	n/a	n/a	n/a	n/a
3422887	RECOG_TARGET	n/a	LTP248	ltpFR	3	5	0	CUFF	423	1	5	0	n/a	n/a	n/a	n/a	n/a
3423570	RECOG_RESP	n/a	LTP248	ltpFR	3	5	0	CUFF	423	1	n/a	0	n/a	n/a	n/a	n/a	n/a
3424150	RECOG_CONF	n/a	LTP248	ltpFR	3	5	0	CUFF	423	n/a	5	0	n/a	n/a	n/a	n/a	n/a
3425849	RECOG_TARGET	n/a	LTP248	ltpFR	3	5	0	BUTLER	204	1	5	1	n/a	n/a	n/a	n/a	n/a
3426397	RECOG_RESP	n/a	LTP248	ltpFR	3	5	0	BUTLER	204	1	n/a	1	n/a	n/a	n/a	n/a	n/a
3426970	RECOG_CONF	n/a	LTP248	ltpFR	3	5	0	BUTLER	204	n/a	5	1	n/a	n/a	n/a	n/a	n/a
3428579	RECOG_LURE	n/a	LTP248	ltpFR	3	5	n/a	COCKTAIL	338	0	5	n/a	n/a	n/a	n/a	n/a	n/a
3429403	RECOG_RESP	n/a	LTP248	ltpFR	3	5	n/a	COCKTAIL	338	0	n/a	n/a	n/a	n/a	n/a	n/a	n/a
3430060	RECOG_CONF	n/a	LTP248	ltpFR	3	5	n/a	COCKTAIL	338	n/a	5	n/a	n/a	n/a	n/a	n/a	n/a
3431724	RECOG_TARGET	n/a	LTP248	ltpFR	3	5	1	OWL	992	0	5	1	n/a	n/a	n/a	n/a	n/a
3432454	RECOG_RESP	n/a	LTP248	ltpFR	3	5	1	OWL	992	0	n/a	1	n/a	n/a	n/a	n/a	n/a
3433158	RECOG_CONF	n/a	LTP248	ltpFR	3	5	1	OWL	992	n/a	5	1	n/a	n/a	n/a	n/a	n/a
3434719	RECOG_TARGET	n/a	LTP248	ltpFR	3	5	0	ELBOW	520	1	5	1	n/a	n/a	n/a	n/a	n/a
3435345	RECOG_RESP	n/a	LTP248	ltpFR	3	5	0	ELBOW	520	1	n/a	1	n/a	n/a	n/a	n/a	n/a
3436014	RECOG_CONF	n/a	LTP248	ltpFR	3	5	0	ELBOW	520	n/a	5	1	n/a	n/a	n/a	n/a	n/a
3437315	RECOG_TARGET	n/a	LTP248	ltpFR	3	5	1	CELLO	268	1	5	0	n/a	n/a	n/a	n/a	n/a
3437986	RECOG_RESP	n/a	LTP248	ltpFR	3	5	1	CELLO	268	1	n/a	0	n/a	n/a	n/a	n/a	n/a
3438600	RECOG_CONF	n/a	LTP248	ltpFR	3	5	1	CELLO	268	n/a	5	0	n/a	n/a	n/a	n/a	n/a
3440228	RECOG_TARGET	n/a	LTP248	ltpFR	3	5	-1	OWNER	993	1	5	-1	n/a	n/a	n/a	n/a	n/a
3440740	RECOG_RESP	n/a	LTP248	ltpFR	3	5	-1	OWNER	993	1	n/a	-1	n/a	n/a	n/a	n/a	n/a
3441408	RECOG_CONF	n/a	LTP248	ltpFR	3	5	-1	OWNER	993	n/a	5	-1	n/a	n/a	n/a	n/a	n/a
3443157	RECOG_LURE	n/a	LTP248	ltpFR	3	5	n/a	SQUIRREL	1362	0	5	n/a	n/a	n/a	n/a	n/a	n/a
3443724	RECOG_RESP	n/a	LTP248	ltpFR	3	5	n/a	SQUIRREL	1362	0	n/a	n/a	n/a	n/a	n/a	n/a	n/a
3444299	RECOG_CONF	n/a	LTP248	ltpFR	3	5	n/a	SQUIRREL	1362	n/a	5	n/a	n/a	n/a	n/a	n/a	n/a
3445803	RECOG_LURE	n/a	LTP248	ltpFR	3	5	n/a	TENT	1449	1	4	n/a	n/a	n/a	n/a	n/a	n/a
3446823	RECOG_RESP	n/a	LTP248	ltpFR	3	5	n/a	TENT	1449	1	n/a	n/a	n/a	n/a	n/a	n/a	n/a
3447441	RECOG_CONF	n/a	LTP248	ltpFR	3	5	n/a	TENT	1449	n/a	4	n/a	n/a	n/a	n/a	n/a	n/a
