onset	duration	trial_type	sample	stim_file	subject	experiment	session	trial	item_name	item_num	list	answer	test_x	test_y	test_z
255.04	n/a	SESS_START	127520	n/a	LTP278	ltpFR2	23	n/a	n/a	n/a	n/a	n/a	0	0	0
268.778	n/a	START	134389	n/a	LTP278	ltpFR2	23	n/a	n/a	n/a	-1	n/a	n/a	n/a	n/a
268.828	n/a	PROB	134414	n/a	LTP278	ltpFR2	23	n/a	n/a	n/a	-1	10	6	3	1
270.316	n/a	PROB	135158	n/a	LTP278	ltpFR2	23	n/a	n/a	n/a	-1	13	5	4	4
271.822	n/a	PROB	135911	n/a	LTP278	ltpFR2	23	n/a	n/a	n/a	-1	11	1	8	2
273.194	n/a	PROB	136597	n/a	LTP278	ltpFR2	23	n/a	n/a	n/a	-1	15	1	7	7
275.32	n/a	PROB	137660	n/a	LTP278	ltpFR2	23	n/a	n/a	n/a	-1	12	5	1	6
277.444	n/a	PROB	138722	n/a	LTP278	ltpFR2	23	n/a	n/a	n/a	-1	17	5	5	7
280.778	n/a	STOP	140389	n/a	LTP278	ltpFR2	23	n/a	n/a	n/a	-1	n/a	n/a	n/a	n/a
314.47	n/a	WORD	157235	wordpools/wasnorm_wordpool_576.txt	LTP278	ltpFR2	23	1	CRYSTAL	418	n/a	n/a	0	0	0
317.224	n/a	WORD	158612	wordpools/wasnorm_wordpool_576.txt	LTP278	ltpFR2	23	1	BRAKE	166	n/a	n/a	0	0	0
319.838	n/a	WORD	159919	wordpools/wasnorm_wordpool_576.txt	LTP278	ltpFR2	23	1	BLOCKADE	137	n/a	n/a	0	0	0
322.584	n/a	WORD	161292	wordpools/wasnorm_wordpool_576.txt	LTP278	ltpFR2	23	1	UNCLE	1536	n/a	n/a	0	0	0
325.026	n/a	WORD	162513	wordpools/wasnorm_wordpool_576.txt	LTP278	ltpFR2	23	1	COBWEB	337	n/a	n/a	0	0	0
327.77	n/a	WORD	163885	wordpools/wasnorm_wordpool_576.txt	LTP278	ltpFR2	23	1	BUGLE	189	n/a	n/a	0	0	0
330.482	n/a	WORD	165241	wordpools/wasnorm_wordpool_576.txt	LTP278	ltpFR2	23	1	MOTHER	921	n/a	n/a	0	0	0
333.218	n/a	WORD	166609	wordpools/wasnorm_wordpool_576.txt	LTP278	ltpFR2	23	1	PIANO	1057	n/a	n/a	0	0	0
335.8	n/a	WORD	167900	wordpools/wasnorm_wordpool_576.txt	LTP278	ltpFR2	23	1	CREATURE	403	n/a	n/a	0	0	0
338.528	n/a	WORD	169264	wordpools/wasnorm_wordpool_576.txt	LTP278	ltpFR2	23	1	HOOK	715	n/a	n/a	0	0	0
341.104	n/a	WORD	170552	wordpools/wasnorm_wordpool_576.txt	LTP278	ltpFR2	23	1	RIVER	1194	n/a	n/a	0	0	0
343.848	n/a	WORD	171924	wordpools/wasnorm_wordpool_576.txt	LTP278	ltpFR2	23	1	PORK	1108	n/a	n/a	0	0	0
346.56	n/a	WORD	173280	wordpools/wasnorm_wordpool_576.txt	LTP278	ltpFR2	23	1	CAPTIVE	240	n/a	n/a	0	0	0
349.152	n/a	WORD	174576	wordpools/wasnorm_wordpool_576.txt	LTP278	ltpFR2	23	1	CONCERT	360	n/a	n/a	0	0	0
351.924	n/a	WORD	175962	wordpools/wasnorm_wordpool_576.txt	LTP278	ltpFR2	23	1	PORTRAIT	1111	n/a	n/a	0	0	0
354.506	n/a	WORD	177253	wordpools/wasnorm_wordpool_576.txt	LTP278	ltpFR2	23	1	RECORD	1176	n/a	n/a	0	0	0
356.948	n/a	WORD	178474	wordpools/wasnorm_wordpool_576.txt	LTP278	ltpFR2	23	1	SEAL	1262	n/a	n/a	0	0	0
359.404	n/a	WORD	179702	wordpools/wasnorm_wordpool_576.txt	LTP278	ltpFR2	23	1	CONCRETE	361	n/a	n/a	0	0	0
362.018	n/a	WORD	181009	wordpools/wasnorm_wordpool_576.txt	LTP278	ltpFR2	23	1	WORKER	1621	n/a	n/a	0	0	0
364.806	n/a	WORD	182403	wordpools/wasnorm_wordpool_576.txt	LTP278	ltpFR2	23	1	PEBBLE	1035	n/a	n/a	0	0	0
367.266	n/a	WORD	183633	wordpools/wasnorm_wordpool_576.txt	LTP278	ltpFR2	23	1	GODDESS	646	n/a	n/a	0	0	0
369.814	n/a	WORD	184907	wordpools/wasnorm_wordpool_576.txt	LTP278	ltpFR2	23	1	SAND	1230	n/a	n/a	0	0	0
372.408	n/a	WORD	186204	wordpools/wasnorm_wordpool_576.txt	LTP278	ltpFR2	23	1	BACON	67	n/a	n/a	0	0	0
374.882	n/a	WORD	187441	wordpools/wasnorm_wordpool_576.txt	LTP278	ltpFR2	23	1	VILLAGE	1566	n/a	n/a	0	0	0
376.49	n/a	START	188245	n/a	LTP278	ltpFR2	23	n/a	n/a	n/a	1	n/a	n/a	n/a	n/a
377.29	n/a	DISTRACTOR	188645	n/a	LTP278	ltpFR2	23	1	n/a	n/a	n/a	n/a	0	0	0
377.308	n/a	PROB	188654	n/a	LTP278	ltpFR2	23	n/a	n/a	n/a	1	19	5	6	8
379.986	n/a	PROB	189993	n/a	LTP278	ltpFR2	23	n/a	n/a	n/a	1	14	7	3	4
381.76	n/a	PROB	190880	n/a	LTP278	ltpFR2	23	n/a	n/a	n/a	1	17	9	6	2
385.442	n/a	PROB	192721	n/a	LTP278	ltpFR2	23	n/a	n/a	n/a	1	10	3	6	1
386.594	n/a	PROB	193297	n/a	LTP278	ltpFR2	23	n/a	n/a	n/a	1	17	6	6	5
388.33	n/a	PROB	194165	n/a	LTP278	ltpFR2	23	n/a	n/a	n/a	1	15	6	2	7
390.626	n/a	PROB	195313	n/a	LTP278	ltpFR2	23	n/a	n/a	n/a	1	12	4	3	5
392.282	n/a	PROB	196141	n/a	LTP278	ltpFR2	23	n/a	n/a	n/a	1	21	8	4	9
394.24	n/a	PROB	197120	n/a	LTP278	ltpFR2	23	n/a	n/a	n/a	1	10	2	5	3
400.492	n/a	STOP	200246	n/a	LTP278	ltpFR2	23	n/a	n/a	n/a	1	n/a	n/a	n/a	n/a
402.338	n/a	REC_START	201169	n/a	LTP278	ltpFR2	23	1	n/a	n/a	n/a	n/a	0	0	0
403.516	n/a	REC_WORD	201758	wordpools/wasnorm_wordpool_576.txt	LTP278	ltpFR2	23	1	RECORD	1176	n/a	n/a	0	0	0
404.186	n/a	REC_WORD	202093	wordpools/wasnorm_wordpool_576.txt	LTP278	ltpFR2	23	1	CONCRETE	361	n/a	n/a	0	0	0
406.31	n/a	REC_WORD	203155	wordpools/wasnorm_wordpool_576.txt	LTP278	ltpFR2	23	1	WORKER	1621	n/a	n/a	0	0	0
411.218	n/a	REC_WORD	205609	wordpools/wasnorm_wordpool_576.txt	LTP278	ltpFR2	23	1	SEAL	1262	n/a	n/a	0	0	0
493.42	n/a	WORD	246710	wordpools/wasnorm_wordpool_576.txt	LTP278	ltpFR2	23	2	ACTOR	5	n/a	n/a	0	0	0
496.024	n/a	WORD	248012	wordpools/wasnorm_wordpool_576.txt	LTP278	ltpFR2	23	2	FOUNTAIN	597	n/a	n/a	0	0	0
498.452	n/a	WORD	249226	wordpools/wasnorm_wordpool_576.txt	LTP278	ltpFR2	23	2	SEAFOOD	1260	n/a	n/a	0	0	0
501.116	n/a	WORD	250558	wordpools/wasnorm_wordpool_576.txt	LTP278	ltpFR2	23	2	QUILT	1151	n/a	n/a	0	0	0
503.674	n/a	WORD	251837	wordpools/wasnorm_wordpool_576.txt	LTP278	ltpFR2	23	2	BEDROOM	111	n/a	n/a	0	0	0
506.234	n/a	WORD	253117	wordpools/wasnorm_wordpool_576.txt	LTP278	ltpFR2	23	2	BOTTLE	153	n/a	n/a	0	0	0
508.762	n/a	WORD	254381	wordpools/wasnorm_wordpool_576.txt	LTP278	ltpFR2	23	2	FIGHTER	564	n/a	n/a	0	0	0
511.422	n/a	WORD	255711	wordpools/wasnorm_wordpool_576.txt	LTP278	ltpFR2	23	2	MISSILE	900	n/a	n/a	0	0	0
514.166	n/a	WORD	257083	wordpools/wasnorm_wordpool_576.txt	LTP278	ltpFR2	23	2	COOK	372	n/a	n/a	0	0	0
516.642	n/a	WORD	258321	wordpools/wasnorm_wordpool_576.txt	LTP278	ltpFR2	23	2	CHICKEN	297	n/a	n/a	0	0	0
519.352	n/a	WORD	259676	wordpools/wasnorm_wordpool_576.txt	LTP278	ltpFR2	23	2	CREEK	404	n/a	n/a	0	0	0
522.012	n/a	WORD	261006	wordpools/wasnorm_wordpool_576.txt	LTP278	ltpFR2	23	2	REPTILE	1185	n/a	n/a	0	0	0
524.534	n/a	WORD	262267	wordpools/wasnorm_wordpool_576.txt	LTP278	ltpFR2	23	2	SERPENT	1270	n/a	n/a	0	0	0
527.198	n/a	WORD	263599	wordpools/wasnorm_wordpool_576.txt	LTP278	ltpFR2	23	2	TEAPOT	1442	n/a	n/a	0	0	0
530.01	n/a	WORD	265005	wordpools/wasnorm_wordpool_576.txt	LTP278	ltpFR2	23	2	MAJOR	859	n/a	n/a	0	0	0
532.72	n/a	WORD	266360	wordpools/wasnorm_wordpool_576.txt	LTP278	ltpFR2	23	2	ADULT	8	n/a	n/a	0	0	0
535.43	n/a	WORD	267715	wordpools/wasnorm_wordpool_576.txt	LTP278	ltpFR2	23	2	BENCH	121	n/a	n/a	0	0	0
538.156	n/a	WORD	269078	wordpools/wasnorm_wordpool_576.txt	LTP278	ltpFR2	23	2	CIRCUS	311	n/a	n/a	0	0	0
540.9	n/a	WORD	270450	wordpools/wasnorm_wordpool_576.txt	LTP278	ltpFR2	23	2	PIZZA	1079	n/a	n/a	0	0	0
543.678	n/a	WORD	271839	wordpools/wasnorm_wordpool_576.txt	LTP278	ltpFR2	23	2	DANCER	437	n/a	n/a	0	0	0
546.1	n/a	WORD	273050	wordpools/wasnorm_wordpool_576.txt	LTP278	ltpFR2	23	2	TRANSPLANT	1496	n/a	n/a	0	0	0
548.714	n/a	WORD	274357	wordpools/wasnorm_wordpool_576.txt	LTP278	ltpFR2	23	2	PARTY	1018	n/a	n/a	0	0	0
551.258	n/a	WORD	275629	wordpools/wasnorm_wordpool_576.txt	LTP278	ltpFR2	23	2	PADDING	999	n/a	n/a	0	0	0
553.9	n/a	WORD	276950	wordpools/wasnorm_wordpool_576.txt	LTP278	ltpFR2	23	2	COLESLAW	344	n/a	n/a	0	0	0
555.508	n/a	START	277754	n/a	LTP278	ltpFR2	23	n/a	n/a	n/a	2	n/a	n/a	n/a	n/a
556.344	n/a	DISTRACTOR	278172	n/a	LTP278	ltpFR2	23	2	n/a	n/a	n/a	n/a	0	0	0
556.36	n/a	PROB	278180	n/a	LTP278	ltpFR2	23	n/a	n/a	n/a	2	12	5	1	6
558.698	n/a	PROB	279349	n/a	LTP278	ltpFR2	23	n/a	n/a	n/a	2	11	7	3	1
561.278	n/a	PROB	280639	n/a	LTP278	ltpFR2	23	n/a	n/a	n/a	2	8	1	4	3
562.862	n/a	PROB	281431	n/a	LTP278	ltpFR2	23	n/a	n/a	n/a	2	24	8	7	9
565.842	n/a	PROB	282921	n/a	LTP278	ltpFR2	23	n/a	n/a	n/a	2	17	8	5	4
567.62	n/a	PROB	283810	n/a	LTP278	ltpFR2	23	n/a	n/a	n/a	2	16	7	2	7
569.12	n/a	PROB	284560	n/a	LTP278	ltpFR2	23	n/a	n/a	n/a	2	12	1	9	2
570.426	n/a	PROB	285213	n/a	LTP278	ltpFR2	23	n/a	n/a	n/a	2	13	5	4	4
573.556	n/a	PROB	286778	n/a	LTP278	ltpFR2	23	n/a	n/a	n/a	2	8	2	3	3
575.362	n/a	PROB	287681	n/a	LTP278	ltpFR2	23	n/a	n/a	n/a	2	12	6	3	3
577.368	n/a	PROB	288684	n/a	LTP278	ltpFR2	23	n/a	n/a	n/a	2	16	3	5	8
578.538	n/a	STOP	289269	n/a	LTP278	ltpFR2	23	n/a	n/a	n/a	2	n/a	n/a	n/a	n/a
581.384	n/a	REC_START	290692	n/a	LTP278	ltpFR2	23	2	n/a	n/a	n/a	n/a	0	0	0
587.528	n/a	REC_WORD	293764	wordpools/wasnorm_wordpool_576.txt	LTP278	ltpFR2	23	2	ADULT	8	n/a	n/a	0	0	0
588.034	n/a	REC_WORD	294017	wordpools/wasnorm_wordpool_576.txt	LTP278	ltpFR2	23	2	BENCH	121	n/a	n/a	0	0	0
672.538	n/a	DISTRACTOR	336269	n/a	LTP278	ltpFR2	23	3	n/a	n/a	n/a	n/a	0	0	0
672.538	n/a	START	336269	n/a	LTP278	ltpFR2	23	n/a	n/a	n/a	3	n/a	n/a	n/a	n/a
672.588	n/a	PROB	336294	n/a	LTP278	ltpFR2	23	n/a	n/a	n/a	3	14	7	6	1
675.06	n/a	PROB	337530	n/a	LTP278	ltpFR2	23	n/a	n/a	n/a	3	13	1	7	5
677.0	n/a	PROB	338500	n/a	LTP278	ltpFR2	23	n/a	n/a	n/a	3	13	5	3	5
678.79	n/a	PROB	339395	n/a	LTP278	ltpFR2	23	n/a	n/a	n/a	3	12	2	8	2
680.346	n/a	PROB	340173	n/a	LTP278	ltpFR2	23	n/a	n/a	n/a	3	15	7	5	3
682.304	n/a	PROB	341152	n/a	LTP278	ltpFR2	23	n/a	n/a	n/a	3	23	9	7	7
684.31	n/a	PROB	342155	n/a	LTP278	ltpFR2	23	n/a	n/a	n/a	3	12	1	9	2
686.356	n/a	PROB	343178	n/a	LTP278	ltpFR2	23	n/a	n/a	n/a	3	12	6	3	3
688.092	n/a	PROB	344046	n/a	LTP278	ltpFR2	23	n/a	n/a	n/a	3	11	6	4	1
689.57	n/a	PROB	344785	n/a	LTP278	ltpFR2	23	n/a	n/a	n/a	3	16	2	8	6
691.84	n/a	PROB	345920	n/a	LTP278	ltpFR2	23	n/a	n/a	n/a	3	14	6	6	2
694.506	n/a	PROB	347253	n/a	LTP278	ltpFR2	23	n/a	n/a	n/a	3	19	9	5	5
696.36	n/a	STOP	348180	n/a	LTP278	ltpFR2	23	n/a	n/a	n/a	3	n/a	n/a	n/a	n/a
697.746	n/a	WORD	348873	wordpools/wasnorm_wordpool_576.txt	LTP278	ltpFR2	23	3	BANDIT	81	n/a	n/a	0	0	0
700.558	n/a	WORD	350279	wordpools/wasnorm_wordpool_576.txt	LTP278	ltpFR2	23	3	BLUEJAY	141	n/a	n/a	0	0	0
703.254	n/a	WORD	351627	wordpools/wasnorm_wordpool_576.txt	LTP278	ltpFR2	23	3	BUSH	202	n/a	n/a	0	0	0
705.764	n/a	WORD	352882	wordpools/wasnorm_wordpool_576.txt	LTP278	ltpFR2	23	3	DECK	443	n/a	n/a	0	0	0
708.324	n/a	WORD	354162	wordpools/wasnorm_wordpool_576.txt	LTP278	ltpFR2	23	3	PIRATE	1074	n/a	n/a	0	0	0
710.8	n/a	WORD	355400	wordpools/wasnorm_wordpool_576.txt	LTP278	ltpFR2	23	3	PLANT	1083	n/a	n/a	0	0	0
713.394	n/a	WORD	356697	wordpools/wasnorm_wordpool_576.txt	LTP278	ltpFR2	23	3	VENUS	1557	n/a	n/a	0	0	0
715.854	n/a	WORD	357927	wordpools/wasnorm_wordpool_576.txt	LTP278	ltpFR2	23	3	RACCOON	1153	n/a	n/a	0	0	0
718.396	n/a	WORD	359198	wordpools/wasnorm_wordpool_576.txt	LTP278	ltpFR2	23	3	AGENT	10	n/a	n/a	0	0	0
720.968	n/a	WORD	360484	wordpools/wasnorm_wordpool_576.txt	LTP278	ltpFR2	23	3	CANOE	233	n/a	n/a	0	0	0
723.416	n/a	WORD	361708	wordpools/wasnorm_wordpool_576.txt	LTP278	ltpFR2	23	3	WATER	1594	n/a	n/a	0	0	0
725.836	n/a	WORD	362918	wordpools/wasnorm_wordpool_576.txt	LTP278	ltpFR2	23	3	RUBY	1214	n/a	n/a	0	0	0
728.536	n/a	WORD	364268	wordpools/wasnorm_wordpool_576.txt	LTP278	ltpFR2	23	3	PUPIL	1143	n/a	n/a	0	0	0
731.056	n/a	WORD	365528	wordpools/wasnorm_wordpool_576.txt	LTP278	ltpFR2	23	3	BUBBLE	183	n/a	n/a	0	0	0
733.716	n/a	WORD	366858	wordpools/wasnorm_wordpool_576.txt	LTP278	ltpFR2	23	3	GIRL	637	n/a	n/a	0	0	0
736.45	n/a	WORD	368225	wordpools/wasnorm_wordpool_576.txt	LTP278	ltpFR2	23	3	SNAIL	1332	n/a	n/a	0	0	0
739.158	n/a	WORD	369579	wordpools/wasnorm_wordpool_576.txt	LTP278	ltpFR2	23	3	SAILOR	1223	n/a	n/a	0	0	0
741.836	n/a	WORD	370918	wordpools/wasnorm_wordpool_576.txt	LTP278	ltpFR2	23	3	SERGEANT	1269	n/a	n/a	0	0	0
744.344	n/a	WORD	372172	wordpools/wasnorm_wordpool_576.txt	LTP278	ltpFR2	23	3	PRINCE	1124	n/a	n/a	0	0	0
746.77	n/a	WORD	373385	wordpools/wasnorm_wordpool_576.txt	LTP278	ltpFR2	23	3	CROOK	412	n/a	n/a	0	0	0
749.5	n/a	WORD	374750	wordpools/wasnorm_wordpool_576.txt	LTP278	ltpFR2	23	3	SHEPHERD	1283	n/a	n/a	0	0	0
752.058	n/a	WORD	376029	wordpools/wasnorm_wordpool_576.txt	LTP278	ltpFR2	23	3	BIBLE	124	n/a	n/a	0	0	0
754.786	n/a	WORD	377393	wordpools/wasnorm_wordpool_576.txt	LTP278	ltpFR2	23	3	DESSERT	453	n/a	n/a	0	0	0
757.294	n/a	WORD	378647	wordpools/wasnorm_wordpool_576.txt	LTP278	ltpFR2	23	3	LIGHTNING	820	n/a	n/a	0	0	0
758.902	n/a	START	379451	n/a	LTP278	ltpFR2	23	n/a	n/a	n/a	4	n/a	n/a	n/a	n/a
759.792	n/a	DISTRACTOR	379896	n/a	LTP278	ltpFR2	23	3	n/a	n/a	n/a	n/a	0	0	0
759.804	n/a	PROB	379902	n/a	LTP278	ltpFR2	23	n/a	n/a	n/a	4	19	7	9	3
763.548	n/a	PROB	381774	n/a	LTP278	ltpFR2	23	n/a	n/a	n/a	4	15	6	5	4
765.108	n/a	PROB	382554	n/a	LTP278	ltpFR2	23	n/a	n/a	n/a	4	9	3	2	4
767.53	n/a	PROB	383765	n/a	LTP278	ltpFR2	23	n/a	n/a	n/a	4	14	5	4	5
769.17	n/a	PROB	384585	n/a	LTP278	ltpFR2	23	n/a	n/a	n/a	4	15	5	5	5
770.492	n/a	PROB	385246	n/a	LTP278	ltpFR2	23	n/a	n/a	n/a	4	18	9	8	1
772.382	n/a	PROB	386191	n/a	LTP278	ltpFR2	23	n/a	n/a	n/a	4	17	4	4	9
774.154	n/a	PROB	387077	n/a	LTP278	ltpFR2	23	n/a	n/a	n/a	4	18	3	9	6
776.43	n/a	PROB	388215	n/a	LTP278	ltpFR2	23	n/a	n/a	n/a	4	11	1	3	7
778.002	n/a	PROB	389001	n/a	LTP278	ltpFR2	23	n/a	n/a	n/a	4	12	8	2	2
779.614	n/a	PROB	389807	n/a	LTP278	ltpFR2	23	n/a	n/a	n/a	4	5	1	2	2
782.902	n/a	STOP	391451	n/a	LTP278	ltpFR2	23	n/a	n/a	n/a	4	n/a	n/a	n/a	n/a
784.746	n/a	REC_START	392373	n/a	LTP278	ltpFR2	23	3	n/a	n/a	n/a	n/a	0	0	0
789.284	n/a	REC_WORD	394642	wordpools/wasnorm_wordpool_576.txt	LTP278	ltpFR2	23	3	PIRATE	1074	n/a	n/a	0	0	0
789.784	n/a	REC_WORD	394892	wordpools/wasnorm_wordpool_576.txt	LTP278	ltpFR2	23	3	VENUS	1557	n/a	n/a	0	0	0
790.418	n/a	REC_WORD	395209	wordpools/wasnorm_wordpool_576.txt	LTP278	ltpFR2	23	3	PLANT	1083	n/a	n/a	0	0	0
790.846	n/a	REC_WORD	395423	wordpools/wasnorm_wordpool_576.txt	LTP278	ltpFR2	23	3	RACCOON	1153	n/a	n/a	0	0	0
875.78	n/a	DISTRACTOR	437890	n/a	LTP278	ltpFR2	23	4	n/a	n/a	n/a	n/a	0	0	0
875.78	n/a	START	437890	n/a	LTP278	ltpFR2	23	n/a	n/a	n/a	5	n/a	n/a	n/a	n/a
875.83	n/a	PROB	437915	n/a	LTP278	ltpFR2	23	n/a	n/a	n/a	5	17	4	9	4
878.386	n/a	PROB	439193	n/a	LTP278	ltpFR2	23	n/a	n/a	n/a	5	22	9	6	7
880.9	n/a	PROB	440450	n/a	LTP278	ltpFR2	23	n/a	n/a	n/a	5	19	6	4	9
882.218	n/a	PROB	441109	n/a	LTP278	ltpFR2	23	n/a	n/a	n/a	5	14	8	4	2
885.514	n/a	PROB	442757	n/a	LTP278	ltpFR2	23	n/a	n/a	n/a	5	14	1	8	5
888.91	n/a	PROB	444455	n/a	LTP278	ltpFR2	23	n/a	n/a	n/a	5	10	8	1	1
890.08	n/a	PROB	445040	n/a	LTP278	ltpFR2	23	n/a	n/a	n/a	5	14	6	4	4
891.938	n/a	PROB	445969	n/a	LTP278	ltpFR2	23	n/a	n/a	n/a	5	19	8	7	4
894.296	n/a	PROB	447148	n/a	LTP278	ltpFR2	23	n/a	n/a	n/a	5	12	4	3	5
899.782	n/a	STOP	449891	n/a	LTP278	ltpFR2	23	n/a	n/a	n/a	5	n/a	n/a	n/a	n/a
900.806	n/a	WORD	450403	wordpools/wasnorm_wordpool_576.txt	LTP278	ltpFR2	23	4	SHRUB	1299	n/a	n/a	0	0	0
903.404	n/a	WORD	451702	wordpools/wasnorm_wordpool_576.txt	LTP278	ltpFR2	23	4	WAREHOUSE	1588	n/a	n/a	0	0	0
905.942	n/a	WORD	452971	wordpools/wasnorm_wordpool_576.txt	LTP278	ltpFR2	23	4	TABLE	1426	n/a	n/a	0	0	0
908.536	n/a	WORD	454268	wordpools/wasnorm_wordpool_576.txt	LTP278	ltpFR2	23	4	CAPTAIN	239	n/a	n/a	0	0	0
911.266	n/a	WORD	455633	wordpools/wasnorm_wordpool_576.txt	LTP278	ltpFR2	23	4	CARROT	249	n/a	n/a	0	0	0
914.072	n/a	WORD	457036	wordpools/wasnorm_wordpool_576.txt	LTP278	ltpFR2	23	4	BOUILLON	154	n/a	n/a	0	0	0
916.672	n/a	WORD	458336	wordpools/wasnorm_wordpool_576.txt	LTP278	ltpFR2	23	4	SIRLOIN	1311	n/a	n/a	0	0	0
919.482	n/a	WORD	459741	wordpools/wasnorm_wordpool_576.txt	LTP278	ltpFR2	23	4	SNEAKER	1334	n/a	n/a	0	0	0
922.124	n/a	WORD	461062	wordpools/wasnorm_wordpool_576.txt	LTP278	ltpFR2	23	4	HOSTAGE	722	n/a	n/a	0	0	0
924.818	n/a	WORD	462409	wordpools/wasnorm_wordpool_576.txt	LTP278	ltpFR2	23	4	STOMACH	1384	n/a	n/a	0	0	0
927.29	n/a	WORD	463645	wordpools/wasnorm_wordpool_576.txt	LTP278	ltpFR2	23	4	ICING	732	n/a	n/a	0	0	0
929.736	n/a	WORD	464868	wordpools/wasnorm_wordpool_576.txt	LTP278	ltpFR2	23	4	NEPTUNE	943	n/a	n/a	0	0	0
932.432	n/a	WORD	466216	wordpools/wasnorm_wordpool_576.txt	LTP278	ltpFR2	23	4	KIWI	781	n/a	n/a	0	0	0
935.154	n/a	WORD	467577	wordpools/wasnorm_wordpool_576.txt	LTP278	ltpFR2	23	4	COBBLER	335	n/a	n/a	0	0	0
937.852	n/a	WORD	468926	wordpools/wasnorm_wordpool_576.txt	LTP278	ltpFR2	23	4	MONARCH	906	n/a	n/a	0	0	0
940.362	n/a	WORD	470181	wordpools/wasnorm_wordpool_576.txt	LTP278	ltpFR2	23	4	POWDER	1117	n/a	n/a	0	0	0
942.82	n/a	WORD	471410	wordpools/wasnorm_wordpool_576.txt	LTP278	ltpFR2	23	4	VELVET	1555	n/a	n/a	0	0	0
945.632	n/a	WORD	472816	wordpools/wasnorm_wordpool_576.txt	LTP278	ltpFR2	23	4	SAUSAGE	1238	n/a	n/a	0	0	0
948.252	n/a	WORD	474126	wordpools/wasnorm_wordpool_576.txt	LTP278	ltpFR2	23	4	PARCEL	1012	n/a	n/a	0	0	0
951.064	n/a	WORD	475532	wordpools/wasnorm_wordpool_576.txt	LTP278	ltpFR2	23	4	VESSEL	1558	n/a	n/a	0	0	0
953.792	n/a	WORD	476896	wordpools/wasnorm_wordpool_576.txt	LTP278	ltpFR2	23	4	DOCTOR	478	n/a	n/a	0	0	0
956.306	n/a	WORD	478153	wordpools/wasnorm_wordpool_576.txt	LTP278	ltpFR2	23	4	SURGEON	1413	n/a	n/a	0	0	0
958.866	n/a	WORD	479433	wordpools/wasnorm_wordpool_576.txt	LTP278	ltpFR2	23	4	RULER	1216	n/a	n/a	0	0	0
961.56	n/a	WORD	480780	wordpools/wasnorm_wordpool_576.txt	LTP278	ltpFR2	23	4	SCOUT	1252	n/a	n/a	0	0	0
963.166	n/a	START	481583	n/a	LTP278	ltpFR2	23	n/a	n/a	n/a	6	n/a	n/a	n/a	n/a
964.188	n/a	DISTRACTOR	482094	n/a	LTP278	ltpFR2	23	4	n/a	n/a	n/a	n/a	0	0	0
987.166	n/a	STOP	493583	n/a	LTP278	ltpFR2	23	n/a	n/a	n/a	6	n/a	n/a	n/a	n/a
988.976	n/a	REC_START	494488	n/a	LTP278	ltpFR2	23	4	n/a	n/a	n/a	n/a	0	0	0
991.34	n/a	REC_WORD	495670	wordpools/wasnorm_wordpool_576.txt	LTP278	ltpFR2	23	4	WAREHOUSE	1588	n/a	n/a	0	0	0
992.182	n/a	REC_WORD	496091	wordpools/wasnorm_wordpool_576.txt	LTP278	ltpFR2	23	4	SHRUB	1299	n/a	n/a	0	0	0
993.298	n/a	REC_WORD	496649	wordpools/wasnorm_wordpool_576.txt	LTP278	ltpFR2	23	4	TABLE	1426	n/a	n/a	0	0	0
1080.012	n/a	DISTRACTOR	540006	n/a	LTP278	ltpFR2	23	5	n/a	n/a	n/a	n/a	0	0	0
1080.012	n/a	START	540006	n/a	LTP278	ltpFR2	23	n/a	n/a	n/a	7	n/a	n/a	n/a	n/a
1080.062	n/a	PROB	540031	n/a	LTP278	ltpFR2	23	n/a	n/a	n/a	7	8	4	1	3
1081.534	n/a	PROB	540767	n/a	LTP278	ltpFR2	23	n/a	n/a	n/a	7	12	3	3	6
1082.818	n/a	PROB	541409	n/a	LTP278	ltpFR2	23	n/a	n/a	n/a	7	19	9	8	2
1085.148	n/a	PROB	542574	n/a	LTP278	ltpFR2	23	n/a	n/a	n/a	7	18	6	9	4
1087.804	n/a	PROB	543902	n/a	LTP278	ltpFR2	23	n/a	n/a	n/a	7	12	1	2	9
1089.916	n/a	PROB	544958	n/a	LTP278	ltpFR2	23	n/a	n/a	n/a	7	14	8	4	2
1091.622	n/a	PROB	545811	n/a	LTP278	ltpFR2	23	n/a	n/a	n/a	7	56	8	7	1
1096.252	n/a	PROB	548126	n/a	LTP278	ltpFR2	23	n/a	n/a	n/a	7	10	6	2	2
1097.458	n/a	PROB	548729	n/a	LTP278	ltpFR2	23	n/a	n/a	n/a	7	13	4	7	2
1099.168	n/a	PROB	549584	n/a	LTP278	ltpFR2	23	n/a	n/a	n/a	7	131	2	1	7
1103.086	n/a	STOP	551543	n/a	LTP278	ltpFR2	23	n/a	n/a	n/a	7	n/a	n/a	n/a	n/a
1105.242	n/a	WORD	552621	wordpools/wasnorm_wordpool_576.txt	LTP278	ltpFR2	23	5	GYMNAST	675	n/a	n/a	0	0	0
1107.998	n/a	WORD	553999	wordpools/wasnorm_wordpool_576.txt	LTP278	ltpFR2	23	5	MERMAID	887	n/a	n/a	0	0	0
1110.724	n/a	WORD	555362	wordpools/wasnorm_wordpool_576.txt	LTP278	ltpFR2	23	5	SHAMPOO	1274	n/a	n/a	0	0	0
1113.222	n/a	WORD	556611	wordpools/wasnorm_wordpool_576.txt	LTP278	ltpFR2	23	5	THICKET	1455	n/a	n/a	0	0	0
1115.916	n/a	WORD	557958	wordpools/wasnorm_wordpool_576.txt	LTP278	ltpFR2	23	5	AIRPORT	13	n/a	n/a	0	0	0
1118.46	n/a	WORD	559230	wordpools/wasnorm_wordpool_576.txt	LTP278	ltpFR2	23	5	SUBWAY	1400	n/a	n/a	0	0	0
1121.018	n/a	WORD	560509	wordpools/wasnorm_wordpool_576.txt	LTP278	ltpFR2	23	5	TULIP	1517	n/a	n/a	0	0	0
1123.558	n/a	WORD	561779	wordpools/wasnorm_wordpool_576.txt	LTP278	ltpFR2	23	5	NEEDLE	941	n/a	n/a	0	0	0
1126.238	n/a	WORD	563119	wordpools/wasnorm_wordpool_576.txt	LTP278	ltpFR2	23	5	SHRIMP	1297	n/a	n/a	0	0	0
1128.66	n/a	WORD	564330	wordpools/wasnorm_wordpool_576.txt	LTP278	ltpFR2	23	5	EXPERT	543	n/a	n/a	0	0	0
1131.476	n/a	WORD	565738	wordpools/wasnorm_wordpool_576.txt	LTP278	ltpFR2	23	5	BLANKET	135	n/a	n/a	0	0	0
1134.036	n/a	WORD	567018	wordpools/wasnorm_wordpool_576.txt	LTP278	ltpFR2	23	5	FLASK	576	n/a	n/a	0	0	0
1136.824	n/a	WORD	568412	wordpools/wasnorm_wordpool_576.txt	LTP278	ltpFR2	23	5	ORGAN	984	n/a	n/a	0	0	0
1139.59	n/a	WORD	569795	wordpools/wasnorm_wordpool_576.txt	LTP278	ltpFR2	23	5	SKATE	1313	n/a	n/a	0	0	0
1142.3	n/a	WORD	571150	wordpools/wasnorm_wordpool_576.txt	LTP278	ltpFR2	23	5	TOOTHPASTE	1483	n/a	n/a	0	0	0
1144.822	n/a	WORD	572411	wordpools/wasnorm_wordpool_576.txt	LTP278	ltpFR2	23	5	PLAQUE	1084	n/a	n/a	0	0	0
1147.42	n/a	WORD	573710	wordpools/wasnorm_wordpool_576.txt	LTP278	ltpFR2	23	5	VALLEY	1545	n/a	n/a	0	0	0
1149.878	n/a	WORD	574939	wordpools/wasnorm_wordpool_576.txt	LTP278	ltpFR2	23	5	DIAMOND	458	n/a	n/a	0	0	0
1152.69	n/a	WORD	576345	wordpools/wasnorm_wordpool_576.txt	LTP278	ltpFR2	23	5	MARBLE	867	n/a	n/a	0	0	0
1155.266	n/a	WORD	577633	wordpools/wasnorm_wordpool_576.txt	LTP278	ltpFR2	23	5	TOURIST	1488	n/a	n/a	0	0	0
1157.994	n/a	WORD	578997	wordpools/wasnorm_wordpool_576.txt	LTP278	ltpFR2	23	5	BRIDGE	174	n/a	n/a	0	0	0
1160.504	n/a	WORD	580252	wordpools/wasnorm_wordpool_576.txt	LTP278	ltpFR2	23	5	SPRINKLE	1359	n/a	n/a	0	0	0
1162.962	n/a	WORD	581481	wordpools/wasnorm_wordpool_576.txt	LTP278	ltpFR2	23	5	PEDAL	1037	n/a	n/a	0	0	0
1165.606	n/a	WORD	582803	wordpools/wasnorm_wordpool_576.txt	LTP278	ltpFR2	23	5	FROST	609	n/a	n/a	0	0	0
1167.224	n/a	START	583612	n/a	LTP278	ltpFR2	23	n/a	n/a	n/a	8	n/a	n/a	n/a	n/a
1168.048	n/a	DISTRACTOR	584024	n/a	LTP278	ltpFR2	23	5	n/a	n/a	n/a	n/a	0	0	0
1168.064	n/a	PROB	584032	n/a	LTP278	ltpFR2	23	n/a	n/a	n/a	8	14	4	3	7
1171.724	n/a	PROB	585862	n/a	LTP278	ltpFR2	23	n/a	n/a	n/a	8	15	3	3	9
1173.162	n/a	PROB	586581	n/a	LTP278	ltpFR2	23	n/a	n/a	n/a	8	173	9	4	4
1177.532	n/a	PROB	588766	n/a	LTP278	ltpFR2	23	n/a	n/a	n/a	8	11	3	6	2
1179.27	n/a	PROB	589635	n/a	LTP278	ltpFR2	23	n/a	n/a	n/a	8	13	4	8	1
1182.332	n/a	PROB	591166	n/a	LTP278	ltpFR2	23	n/a	n/a	n/a	8	16	1	6	9
1191.226	n/a	STOP	595613	n/a	LTP278	ltpFR2	23	n/a	n/a	n/a	8	n/a	n/a	n/a	n/a
1193.072	n/a	REC_START	596536	n/a	LTP278	ltpFR2	23	5	n/a	n/a	n/a	n/a	0	0	0
1194.092	n/a	REC_WORD	597046	wordpools/wasnorm_wordpool_576.txt	LTP278	ltpFR2	23	5	PEDAL	1037	n/a	n/a	0	0	0
1284.124	n/a	WORD	642062	wordpools/wasnorm_wordpool_576.txt	LTP278	ltpFR2	23	6	VAGRANT	1544	n/a	n/a	0	0	0
1286.686	n/a	WORD	643343	wordpools/wasnorm_wordpool_576.txt	LTP278	ltpFR2	23	6	COUCH	386	n/a	n/a	0	0	0
1289.396	n/a	WORD	644698	wordpools/wasnorm_wordpool_576.txt	LTP278	ltpFR2	23	6	GARAGE	621	n/a	n/a	0	0	0
1292.072	n/a	WORD	646036	wordpools/wasnorm_wordpool_576.txt	LTP278	ltpFR2	23	6	MEADOW	881	n/a	n/a	0	0	0
1294.666	n/a	WORD	647333	wordpools/wasnorm_wordpool_576.txt	LTP278	ltpFR2	23	6	PRAIRIE	1118	n/a	n/a	0	0	0
1297.376	n/a	WORD	648688	wordpools/wasnorm_wordpool_576.txt	LTP278	ltpFR2	23	6	CHECKERS	285	n/a	n/a	0	0	0
1299.852	n/a	WORD	649926	wordpools/wasnorm_wordpool_576.txt	LTP278	ltpFR2	23	6	GERM	632	n/a	n/a	0	0	0
1302.462	n/a	WORD	651231	wordpools/wasnorm_wordpool_576.txt	LTP278	ltpFR2	23	6	KEYBOARD	774	n/a	n/a	0	0	0
1305.122	n/a	WORD	652561	wordpools/wasnorm_wordpool_576.txt	LTP278	ltpFR2	23	6	CRADLE	399	n/a	n/a	0	0	0
1307.694	n/a	WORD	653847	wordpools/wasnorm_wordpool_576.txt	LTP278	ltpFR2	23	6	CABLE	213	n/a	n/a	0	0	0
1310.158	n/a	WORD	655079	wordpools/wasnorm_wordpool_576.txt	LTP278	ltpFR2	23	6	CONSOLE	364	n/a	n/a	0	0	0
1312.852	n/a	WORD	656426	wordpools/wasnorm_wordpool_576.txt	LTP278	ltpFR2	23	6	SQUIRREL	1362	n/a	n/a	0	0	0
1315.362	n/a	WORD	657681	wordpools/wasnorm_wordpool_576.txt	LTP278	ltpFR2	23	6	ALMOND	18	n/a	n/a	0	0	0
1318.138	n/a	WORD	659069	wordpools/wasnorm_wordpool_576.txt	LTP278	ltpFR2	23	6	CROWN	415	n/a	n/a	0	0	0
1320.698	n/a	WORD	660349	wordpools/wasnorm_wordpool_576.txt	LTP278	ltpFR2	23	6	FATHER	554	n/a	n/a	0	0	0
1323.506	n/a	WORD	661753	wordpools/wasnorm_wordpool_576.txt	LTP278	ltpFR2	23	6	GIFT	635	n/a	n/a	0	0	0
1326.248	n/a	WORD	663124	wordpools/wasnorm_wordpool_576.txt	LTP278	ltpFR2	23	6	DART	440	n/a	n/a	0	0	0
1328.742	n/a	WORD	664371	wordpools/wasnorm_wordpool_576.txt	LTP278	ltpFR2	23	6	SATURN	1236	n/a	n/a	0	0	0
1331.49	n/a	WORD	665745	wordpools/wasnorm_wordpool_576.txt	LTP278	ltpFR2	23	6	CANYON	235	n/a	n/a	0	0	0
1334.184	n/a	WORD	667092	wordpools/wasnorm_wordpool_576.txt	LTP278	ltpFR2	23	6	ANKLE	24	n/a	n/a	0	0	0
1336.71	n/a	WORD	668355	wordpools/wasnorm_wordpool_576.txt	LTP278	ltpFR2	23	6	PAPER	1011	n/a	n/a	0	0	0
1339.47	n/a	WORD	669735	wordpools/wasnorm_wordpool_576.txt	LTP278	ltpFR2	23	6	HELMET	702	n/a	n/a	0	0	0
1342.276	n/a	WORD	671138	wordpools/wasnorm_wordpool_576.txt	LTP278	ltpFR2	23	6	DAD	433	n/a	n/a	0	0	0
1344.852	n/a	WORD	672426	wordpools/wasnorm_wordpool_576.txt	LTP278	ltpFR2	23	6	SICKLE	1302	n/a	n/a	0	0	0
1346.466	n/a	START	673233	n/a	LTP278	ltpFR2	23	n/a	n/a	n/a	9	n/a	n/a	n/a	n/a
1347.538	n/a	DISTRACTOR	673769	n/a	LTP278	ltpFR2	23	6	n/a	n/a	n/a	n/a	0	0	0
1347.552	n/a	PROB	673776	n/a	LTP278	ltpFR2	23	n/a	n/a	n/a	9	10	1	1	8
1349.304	n/a	PROB	674652	n/a	LTP278	ltpFR2	23	n/a	n/a	n/a	9	14	7	2	5
1351.512	n/a	PROB	675756	n/a	LTP278	ltpFR2	23	n/a	n/a	n/a	9	17	6	3	8
1353.386	n/a	PROB	676693	n/a	LTP278	ltpFR2	23	n/a	n/a	n/a	9	16	4	8	4
1355.042	n/a	PROB	677521	n/a	LTP278	ltpFR2	23	n/a	n/a	n/a	9	20	8	5	7
1361.952	n/a	PROB	680976	n/a	LTP278	ltpFR2	23	n/a	n/a	n/a	9	15	4	3	8
1363.408	n/a	PROB	681704	n/a	LTP278	ltpFR2	23	n/a	n/a	n/a	9	22	4	9	9
1370.466	n/a	STOP	685233	n/a	LTP278	ltpFR2	23	n/a	n/a	n/a	9	n/a	n/a	n/a	n/a
1372.38	n/a	REC_START	686190	n/a	LTP278	ltpFR2	23	6	n/a	n/a	n/a	n/a	0	0	0
1375.896	n/a	REC_WORD	687948	wordpools/wasnorm_wordpool_576.txt	LTP278	ltpFR2	23	6	SICKLE	1302	n/a	n/a	0	0	0
1377.886	n/a	REC_WORD	688943	wordpools/wasnorm_wordpool_576.txt	LTP278	ltpFR2	23	6	BOUILLON	154	n/a	n/a	0	0	0
1463.444	n/a	DISTRACTOR	731722	n/a	LTP278	ltpFR2	23	7	n/a	n/a	n/a	n/a	0	0	0
1463.444	n/a	START	731722	n/a	LTP278	ltpFR2	23	n/a	n/a	n/a	10	n/a	n/a	n/a	n/a
1463.496	n/a	PROB	731748	n/a	LTP278	ltpFR2	23	n/a	n/a	n/a	10	18	6	3	9
1466.906	n/a	PROB	733453	n/a	LTP278	ltpFR2	23	n/a	n/a	n/a	10	13	8	6	2
1469.65	n/a	PROB	734825	n/a	LTP278	ltpFR2	23	n/a	n/a	n/a	10	22	9	4	9
1472.598	n/a	PROB	736299	n/a	LTP278	ltpFR2	23	n/a	n/a	n/a	10	23	8	6	9
1478.452	n/a	PROB	739226	n/a	LTP278	ltpFR2	23	n/a	n/a	n/a	10	18	9	7	2
1479.97	n/a	PROB	739985	n/a	LTP278	ltpFR2	23	n/a	n/a	n/a	10	27	9	9	9
1482.21	n/a	PROB	741105	n/a	LTP278	ltpFR2	23	n/a	n/a	n/a	10	4	1	1	2
1483.466	n/a	PROB	741733	n/a	LTP278	ltpFR2	23	n/a	n/a	n/a	10	7	5	1	1
1484.854	n/a	PROB	742427	n/a	LTP278	ltpFR2	23	n/a	n/a	n/a	10	18	8	8	2
1486.594	n/a	STOP	743297	n/a	LTP278	ltpFR2	23	n/a	n/a	n/a	10	n/a	n/a	n/a	n/a
1488.372	n/a	WORD	744186	wordpools/wasnorm_wordpool_576.txt	LTP278	ltpFR2	23	7	SCULPTURE	1258	n/a	n/a	0	0	0
1491.096	n/a	WORD	745548	wordpools/wasnorm_wordpool_576.txt	LTP278	ltpFR2	23	7	OUTLAW	989	n/a	n/a	0	0	0
1493.56	n/a	WORD	746780	wordpools/wasnorm_wordpool_576.txt	LTP278	ltpFR2	23	7	CONVICT	371	n/a	n/a	0	0	0
1496.354	n/a	WORD	748177	wordpools/wasnorm_wordpool_576.txt	LTP278	ltpFR2	23	7	MAGNET	855	n/a	n/a	0	0	0
1499.13	n/a	WORD	749565	wordpools/wasnorm_wordpool_576.txt	LTP278	ltpFR2	23	7	SPOUSE	1358	n/a	n/a	0	0	0
1501.768	n/a	WORD	750884	wordpools/wasnorm_wordpool_576.txt	LTP278	ltpFR2	23	7	GAZELLE	628	n/a	n/a	0	0	0
1504.45	n/a	WORD	752225	wordpools/wasnorm_wordpool_576.txt	LTP278	ltpFR2	23	7	SWIMMER	1420	n/a	n/a	0	0	0
1507.21	n/a	WORD	753605	wordpools/wasnorm_wordpool_576.txt	LTP278	ltpFR2	23	7	BUCKET	184	n/a	n/a	0	0	0
1509.822	n/a	WORD	754911	wordpools/wasnorm_wordpool_576.txt	LTP278	ltpFR2	23	7	FLIPPER	580	n/a	n/a	0	0	0
1512.494	n/a	WORD	756247	wordpools/wasnorm_wordpool_576.txt	LTP278	ltpFR2	23	7	TRIGGER	1507	n/a	n/a	0	0	0
1515.042	n/a	WORD	757521	wordpools/wasnorm_wordpool_576.txt	LTP278	ltpFR2	23	7	WAGON	1578	n/a	n/a	0	0	0
1517.818	n/a	WORD	758909	wordpools/wasnorm_wordpool_576.txt	LTP278	ltpFR2	23	7	GLASSES	640	n/a	n/a	0	0	0
1520.356	n/a	WORD	760178	wordpools/wasnorm_wordpool_576.txt	LTP278	ltpFR2	23	7	HAYSTACK	694	n/a	n/a	0	0	0
1522.9	n/a	WORD	761450	wordpools/wasnorm_wordpool_576.txt	LTP278	ltpFR2	23	7	SCALLOP	1242	n/a	n/a	0	0	0
1525.594	n/a	WORD	762797	wordpools/wasnorm_wordpool_576.txt	LTP278	ltpFR2	23	7	FRAGRANCE	599	n/a	n/a	0	0	0
1528.208	n/a	WORD	764104	wordpools/wasnorm_wordpool_576.txt	LTP278	ltpFR2	23	7	PILOT	1070	n/a	n/a	0	0	0
1530.798	n/a	WORD	765399	wordpools/wasnorm_wordpool_576.txt	LTP278	ltpFR2	23	7	CLOSET	326	n/a	n/a	0	0	0
1533.546	n/a	WORD	766773	wordpools/wasnorm_wordpool_576.txt	LTP278	ltpFR2	23	7	CHAMBER	277	n/a	n/a	0	0	0
1536.004	n/a	WORD	768002	wordpools/wasnorm_wordpool_576.txt	LTP278	ltpFR2	23	7	RADISH	1158	n/a	n/a	0	0	0
1538.816	n/a	WORD	769408	wordpools/wasnorm_wordpool_576.txt	LTP278	ltpFR2	23	7	PORT	1110	n/a	n/a	0	0	0
1541.426	n/a	WORD	770713	wordpools/wasnorm_wordpool_576.txt	LTP278	ltpFR2	23	7	CRAB	397	n/a	n/a	0	0	0
1544.236	n/a	WORD	772118	wordpools/wasnorm_wordpool_576.txt	LTP278	ltpFR2	23	7	CITRUS	313	n/a	n/a	0	0	0
1546.942	n/a	WORD	773471	wordpools/wasnorm_wordpool_576.txt	LTP278	ltpFR2	23	7	PASTRY	1022	n/a	n/a	0	0	0
1549.406	n/a	WORD	774703	wordpools/wasnorm_wordpool_576.txt	LTP278	ltpFR2	23	7	ATTIC	56	n/a	n/a	0	0	0
1551.012	n/a	START	775506	n/a	LTP278	ltpFR2	23	n/a	n/a	n/a	11	n/a	n/a	n/a	n/a
1551.894	n/a	DISTRACTOR	775947	n/a	LTP278	ltpFR2	23	7	n/a	n/a	n/a	n/a	0	0	0
1575.012	n/a	STOP	787506	n/a	LTP278	ltpFR2	23	n/a	n/a	n/a	11	n/a	n/a	n/a	n/a
1576.794	n/a	REC_START	788397	n/a	LTP278	ltpFR2	23	7	n/a	n/a	n/a	n/a	0	0	0
1582.472	n/a	REC_WORD	791236	wordpools/wasnorm_wordpool_576.txt	LTP278	ltpFR2	23	7	FOE	587	n/a	n/a	0	0	0
1582.8	n/a	REC_WORD	791400	wordpools/wasnorm_wordpool_576.txt	LTP278	ltpFR2	23	7	LIST	830	n/a	n/a	0	0	0
1586.58	n/a	REC_WORD	793290	wordpools/wasnorm_wordpool_576.txt	LTP278	ltpFR2	23	7	CLOSET	326	n/a	n/a	0	0	0
1667.854	n/a	DISTRACTOR	833927	n/a	LTP278	ltpFR2	23	8	n/a	n/a	n/a	n/a	0	0	0
1667.854	n/a	START	833927	n/a	LTP278	ltpFR2	23	n/a	n/a	n/a	12	n/a	n/a	n/a	n/a
1667.904	n/a	PROB	833952	n/a	LTP278	ltpFR2	23	n/a	n/a	n/a	12	14	1	9	3
1685.644	n/a	PROB	842822	n/a	LTP278	ltpFR2	23	n/a	n/a	n/a	12	23	9	9	5
1688.716	n/a	PROB	844358	n/a	LTP278	ltpFR2	23	n/a	n/a	n/a	12	18	1	8	9
1690.284	n/a	STOP	845142	n/a	LTP278	ltpFR2	23	n/a	n/a	n/a	12	n/a	n/a	n/a	n/a
1692.888	n/a	WORD	846444	wordpools/wasnorm_wordpool_576.txt	LTP278	ltpFR2	23	8	TURNIP	1521	n/a	n/a	0	0	0
1695.38	n/a	WORD	847690	wordpools/wasnorm_wordpool_576.txt	LTP278	ltpFR2	23	8	NECKLACE	940	n/a	n/a	0	0	0
1697.99	n/a	WORD	848995	wordpools/wasnorm_wordpool_576.txt	LTP278	ltpFR2	23	8	MACHINE	852	n/a	n/a	0	0	0
1700.416	n/a	WORD	850208	wordpools/wasnorm_wordpool_576.txt	LTP278	ltpFR2	23	8	FROG	608	n/a	n/a	0	0	0
1702.842	n/a	WORD	851421	wordpools/wasnorm_wordpool_576.txt	LTP278	ltpFR2	23	8	EGYPT	519	n/a	n/a	0	0	0
1705.436	n/a	WORD	852718	wordpools/wasnorm_wordpool_576.txt	LTP278	ltpFR2	23	8	CHAMPAGNE	278	n/a	n/a	0	0	0
1708.078	n/a	WORD	854039	wordpools/wasnorm_wordpool_576.txt	LTP278	ltpFR2	23	8	BARREL	91	n/a	n/a	0	0	0
1710.84	n/a	WORD	855420	wordpools/wasnorm_wordpool_576.txt	LTP278	ltpFR2	23	8	TIGER	1467	n/a	n/a	0	0	0
1713.568	n/a	WORD	856784	wordpools/wasnorm_wordpool_576.txt	LTP278	ltpFR2	23	8	WHISKERS	1605	n/a	n/a	0	0	0
1716.06	n/a	WORD	858030	wordpools/wasnorm_wordpool_576.txt	LTP278	ltpFR2	23	8	WOMAN	1620	n/a	n/a	0	0	0
1718.87	n/a	WORD	859435	wordpools/wasnorm_wordpool_576.txt	LTP278	ltpFR2	23	8	OYSTER	995	n/a	n/a	0	0	0
1721.346	n/a	WORD	860673	wordpools/wasnorm_wordpool_576.txt	LTP278	ltpFR2	23	8	BANDAGE	79	n/a	n/a	0	0	0
1724.09	n/a	WORD	862045	wordpools/wasnorm_wordpool_576.txt	LTP278	ltpFR2	23	8	COFFIN	342	n/a	n/a	0	0	0
1726.75	n/a	WORD	863375	wordpools/wasnorm_wordpool_576.txt	LTP278	ltpFR2	23	8	NEPHEW	942	n/a	n/a	0	0	0
1729.49	n/a	WORD	864745	wordpools/wasnorm_wordpool_576.txt	LTP278	ltpFR2	23	8	BLOSSOM	138	n/a	n/a	0	0	0
1732.172	n/a	WORD	866086	wordpools/wasnorm_wordpool_576.txt	LTP278	ltpFR2	23	8	PANTS	1010	n/a	n/a	0	0	0
1734.648	n/a	WORD	867324	wordpools/wasnorm_wordpool_576.txt	LTP278	ltpFR2	23	8	MEDAL	885	n/a	n/a	0	0	0
1737.09	n/a	WORD	868545	wordpools/wasnorm_wordpool_576.txt	LTP278	ltpFR2	23	8	AWARD	63	n/a	n/a	0	0	0
1739.716	n/a	WORD	869858	wordpools/wasnorm_wordpool_576.txt	LTP278	ltpFR2	23	8	NEUTRON	947	n/a	n/a	0	0	0
1742.192	n/a	WORD	871096	wordpools/wasnorm_wordpool_576.txt	LTP278	ltpFR2	23	8	WRIST	1626	n/a	n/a	0	0	0
1744.886	n/a	WORD	872443	wordpools/wasnorm_wordpool_576.txt	LTP278	ltpFR2	23	8	GALLON	618	n/a	n/a	0	0	0
1747.53	n/a	WORD	873765	wordpools/wasnorm_wordpool_576.txt	LTP278	ltpFR2	23	8	ROBOT	1200	n/a	n/a	0	0	0
1750.308	n/a	WORD	875154	wordpools/wasnorm_wordpool_576.txt	LTP278	ltpFR2	23	8	TEMPLE	1448	n/a	n/a	0	0	0
1752.918	n/a	WORD	876459	wordpools/wasnorm_wordpool_576.txt	LTP278	ltpFR2	23	8	CLERK	321	n/a	n/a	0	0	0
1754.524	n/a	START	877262	n/a	LTP278	ltpFR2	23	n/a	n/a	n/a	13	n/a	n/a	n/a	n/a
1755.522	n/a	DISTRACTOR	877761	n/a	LTP278	ltpFR2	23	8	n/a	n/a	n/a	n/a	0	0	0
1755.528	n/a	PROB	877764	n/a	LTP278	ltpFR2	23	n/a	n/a	n/a	13	10	5	1	4
1758.752	n/a	PROB	879376	n/a	LTP278	ltpFR2	23	n/a	n/a	n/a	13	11	2	2	7
1759.96	n/a	PROB	879980	n/a	LTP278	ltpFR2	23	n/a	n/a	n/a	13	13	6	6	1
1761.328	n/a	PROB	880664	n/a	LTP278	ltpFR2	23	n/a	n/a	n/a	13	18	7	4	7
1762.784	n/a	PROB	881392	n/a	LTP278	ltpFR2	23	n/a	n/a	n/a	13	19	1	8	8
1765.264	n/a	PROB	882632	n/a	LTP278	ltpFR2	23	n/a	n/a	n/a	13	16	2	7	7
1768.058	n/a	PROB	884029	n/a	LTP278	ltpFR2	23	n/a	n/a	n/a	13	18	8	3	7
1769.494	n/a	PROB	884747	n/a	LTP278	ltpFR2	23	n/a	n/a	n/a	13	19	6	5	6
1771.17	n/a	PROB	885585	n/a	LTP278	ltpFR2	23	n/a	n/a	n/a	13	18	1	9	8
1772.642	n/a	PROB	886321	n/a	LTP278	ltpFR2	23	n/a	n/a	n/a	13	15	3	3	9
1778.526	n/a	STOP	889263	n/a	LTP278	ltpFR2	23	n/a	n/a	n/a	13	n/a	n/a	n/a	n/a
1780.456	n/a	REC_START	890228	n/a	LTP278	ltpFR2	23	8	n/a	n/a	n/a	n/a	0	0	0
1784.576	n/a	REC_WORD	892288	wordpools/wasnorm_wordpool_576.txt	LTP278	ltpFR2	23	8	CLERK	321	n/a	n/a	0	0	0
1790.57	n/a	REC_WORD	895285	wordpools/wasnorm_wordpool_576.txt	LTP278	ltpFR2	23	8	LOAF	835	n/a	n/a	0	0	0
1857.244	n/a	REST_REWET	928622	n/a	LTP278	ltpFR2	23	8	n/a	n/a	n/a	n/a	0	0	0
2192.046	n/a	WORD	1096023	wordpools/wasnorm_wordpool_576.txt	LTP278	ltpFR2	23	9	HORSE	719	n/a	n/a	0	0	0
2194.69	n/a	WORD	1097345	wordpools/wasnorm_wordpool_576.txt	LTP278	ltpFR2	23	9	SADDLE	1221	n/a	n/a	0	0	0
2197.316	n/a	WORD	1098658	wordpools/wasnorm_wordpool_576.txt	LTP278	ltpFR2	23	9	SQUID	1361	n/a	n/a	0	0	0
2200.138	n/a	WORD	1100069	wordpools/wasnorm_wordpool_576.txt	LTP278	ltpFR2	23	9	TAXI	1438	n/a	n/a	0	0	0
2202.686	n/a	WORD	1101343	wordpools/wasnorm_wordpool_576.txt	LTP278	ltpFR2	23	9	HOOD	714	n/a	n/a	0	0	0
2205.112	n/a	WORD	1102556	wordpools/wasnorm_wordpool_576.txt	LTP278	ltpFR2	23	9	PLAID	1080	n/a	n/a	0	0	0
2207.738	n/a	WORD	1103869	wordpools/wasnorm_wordpool_576.txt	LTP278	ltpFR2	23	9	HANDCUFFS	685	n/a	n/a	0	0	0
2210.226	n/a	WORD	1105113	wordpools/wasnorm_wordpool_576.txt	LTP278	ltpFR2	23	9	STRING	1394	n/a	n/a	0	0	0
2212.808	n/a	WORD	1106404	wordpools/wasnorm_wordpool_576.txt	LTP278	ltpFR2	23	9	WRITER	1627	n/a	n/a	0	0	0
2215.386	n/a	WORD	1107693	wordpools/wasnorm_wordpool_576.txt	LTP278	ltpFR2	23	9	GLACIER	638	n/a	n/a	0	0	0
2218.158	n/a	WORD	1109079	wordpools/wasnorm_wordpool_576.txt	LTP278	ltpFR2	23	9	WAITER	1580	n/a	n/a	0	0	0
2220.902	n/a	WORD	1110451	wordpools/wasnorm_wordpool_576.txt	LTP278	ltpFR2	23	9	FOREHEAD	592	n/a	n/a	0	0	0
2223.494	n/a	WORD	1111747	wordpools/wasnorm_wordpool_576.txt	LTP278	ltpFR2	23	9	OX	994	n/a	n/a	0	0	0
2225.936	n/a	WORD	1112968	wordpools/wasnorm_wordpool_576.txt	LTP278	ltpFR2	23	9	PRIMATE	1123	n/a	n/a	0	0	0
2228.752	n/a	WORD	1114376	wordpools/wasnorm_wordpool_576.txt	LTP278	ltpFR2	23	9	LETTER	813	n/a	n/a	0	0	0
2231.492	n/a	WORD	1115746	wordpools/wasnorm_wordpool_576.txt	LTP278	ltpFR2	23	9	BADGE	68	n/a	n/a	0	0	0
2234.258	n/a	WORD	1117129	wordpools/wasnorm_wordpool_576.txt	LTP278	ltpFR2	23	9	RESORT	1186	n/a	n/a	0	0	0
2237.002	n/a	WORD	1118501	wordpools/wasnorm_wordpool_576.txt	LTP278	ltpFR2	23	9	ELK	526	n/a	n/a	0	0	0
2239.478	n/a	WORD	1119739	wordpools/wasnorm_wordpool_576.txt	LTP278	ltpFR2	23	9	SHERIFF	1284	n/a	n/a	0	0	0
2242.272	n/a	WORD	1121136	wordpools/wasnorm_wordpool_576.txt	LTP278	ltpFR2	23	9	CRAYON	401	n/a	n/a	0	0	0
2244.982	n/a	WORD	1122491	wordpools/wasnorm_wordpool_576.txt	LTP278	ltpFR2	23	9	PASTA	1021	n/a	n/a	0	0	0
2247.708	n/a	WORD	1123854	wordpools/wasnorm_wordpool_576.txt	LTP278	ltpFR2	23	9	SALT	1229	n/a	n/a	0	0	0
2250.286	n/a	WORD	1125143	wordpools/wasnorm_wordpool_576.txt	LTP278	ltpFR2	23	9	NIGHTGOWN	953	n/a	n/a	0	0	0
2252.84	n/a	WORD	1126420	wordpools/wasnorm_wordpool_576.txt	LTP278	ltpFR2	23	9	CHEST	295	n/a	n/a	0	0	0
2254.452	n/a	START	1127226	n/a	LTP278	ltpFR2	23	n/a	n/a	n/a	14	n/a	n/a	n/a	n/a
2255.54	n/a	DISTRACTOR	1127770	n/a	LTP278	ltpFR2	23	9	n/a	n/a	n/a	n/a	0	0	0
2255.556	n/a	PROB	1127778	n/a	LTP278	ltpFR2	23	n/a	n/a	n/a	14	11	9	1	1
2257.156	n/a	PROB	1128578	n/a	LTP278	ltpFR2	23	n/a	n/a	n/a	14	19	1	9	9
2258.718	n/a	PROB	1129359	n/a	LTP278	ltpFR2	23	n/a	n/a	n/a	14	21	7	8	6
2260.47	n/a	PROB	1130235	n/a	LTP278	ltpFR2	23	n/a	n/a	n/a	14	14	8	5	1
2262.046	n/a	PROB	1131023	n/a	LTP278	ltpFR2	23	n/a	n/a	n/a	14	15	3	3	9
2263.414	n/a	PROB	1131707	n/a	LTP278	ltpFR2	23	n/a	n/a	n/a	14	1	1	2	8
2264.608	n/a	PROB	1132304	n/a	LTP278	ltpFR2	23	n/a	n/a	n/a	14	19	9	7	3
2266.748	n/a	PROB	1133374	n/a	LTP278	ltpFR2	23	n/a	n/a	n/a	14	13	5	6	2
2268.636	n/a	PROB	1134318	n/a	LTP278	ltpFR2	23	n/a	n/a	n/a	14	18	8	6	4
2270.206	n/a	PROB	1135103	n/a	LTP278	ltpFR2	23	n/a	n/a	n/a	14	18	8	6	4
2271.846	n/a	PROB	1135923	n/a	LTP278	ltpFR2	23	n/a	n/a	n/a	14	13	1	3	9
2278.452	n/a	STOP	1139226	n/a	LTP278	ltpFR2	23	n/a	n/a	n/a	14	n/a	n/a	n/a	n/a
2280.284	n/a	REC_START	1140142	n/a	LTP278	ltpFR2	23	9	n/a	n/a	n/a	n/a	0	0	0
2284.808	n/a	REC_WORD	1142404	wordpools/wasnorm_wordpool_576.txt	LTP278	ltpFR2	23	9	CHEST	295	n/a	n/a	0	0	0
2285.524	n/a	REC_WORD	1142762	wordpools/wasnorm_wordpool_576.txt	LTP278	ltpFR2	23	9	NIGHTGOWN	953	n/a	n/a	0	0	0
2289.996	n/a	REC_WORD	1144998	wordpools/wasnorm_wordpool_576.txt	LTP278	ltpFR2	23	9	RODEO	-1	n/a	n/a	0	0	0
2371.332	n/a	DISTRACTOR	1185666	n/a	LTP278	ltpFR2	23	10	n/a	n/a	n/a	n/a	0	0	0
2371.332	n/a	START	1185666	n/a	LTP278	ltpFR2	23	n/a	n/a	n/a	15	n/a	n/a	n/a	n/a
2371.382	n/a	PROB	1185691	n/a	LTP278	ltpFR2	23	n/a	n/a	n/a	15	15	8	4	3
2373.318	n/a	PROB	1186659	n/a	LTP278	ltpFR2	23	n/a	n/a	n/a	15	12	4	6	2
2376.094	n/a	PROB	1188047	n/a	LTP278	ltpFR2	23	n/a	n/a	n/a	15	24	9	9	6
2379.39	n/a	PROB	1189695	n/a	LTP278	ltpFR2	23	n/a	n/a	n/a	15	17	5	7	5
2380.734	n/a	PROB	1190367	n/a	LTP278	ltpFR2	23	n/a	n/a	n/a	15	14	5	7	2
2382.754	n/a	PROB	1191377	n/a	LTP278	ltpFR2	23	n/a	n/a	n/a	15	18	6	5	7
2384.276	n/a	PROB	1192138	n/a	LTP278	ltpFR2	23	n/a	n/a	n/a	15	12	3	8	1
2386.468	n/a	PROB	1193234	n/a	LTP278	ltpFR2	23	n/a	n/a	n/a	15	14	6	6	2
2390.868	n/a	PROB	1195434	n/a	LTP278	ltpFR2	23	n/a	n/a	n/a	15	24	8	8	6
2393.244	n/a	PROB	1196622	n/a	LTP278	ltpFR2	23	n/a	n/a	n/a	15	8	2	1	5
2394.58	n/a	STOP	1197290	n/a	LTP278	ltpFR2	23	n/a	n/a	n/a	15	n/a	n/a	n/a	n/a
2396.46	n/a	WORD	1198230	wordpools/wasnorm_wordpool_576.txt	LTP278	ltpFR2	23	10	LEAF	808	n/a	n/a	0	0	0
2399.204	n/a	WORD	1199602	wordpools/wasnorm_wordpool_576.txt	LTP278	ltpFR2	23	10	COWBOY	395	n/a	n/a	0	0	0
2401.698	n/a	WORD	1200849	wordpools/wasnorm_wordpool_576.txt	LTP278	ltpFR2	23	10	PLASTER	1085	n/a	n/a	0	0	0
2404.458	n/a	WORD	1202229	wordpools/wasnorm_wordpool_576.txt	LTP278	ltpFR2	23	10	SMOG	1330	n/a	n/a	0	0	0
2406.884	n/a	WORD	1203442	wordpools/wasnorm_wordpool_576.txt	LTP278	ltpFR2	23	10	STREET	1393	n/a	n/a	0	0	0
2409.628	n/a	WORD	1204814	wordpools/wasnorm_wordpool_576.txt	LTP278	ltpFR2	23	10	FEMALE	559	n/a	n/a	0	0	0
2412.104	n/a	WORD	1206052	wordpools/wasnorm_wordpool_576.txt	LTP278	ltpFR2	23	10	WALNUT	1584	n/a	n/a	0	0	0
2414.758	n/a	WORD	1207379	wordpools/wasnorm_wordpool_576.txt	LTP278	ltpFR2	23	10	EAGLE	512	n/a	n/a	0	0	0
2417.236	n/a	WORD	1208618	wordpools/wasnorm_wordpool_576.txt	LTP278	ltpFR2	23	10	HAMMER	680	n/a	n/a	0	0	0
2419.884	n/a	WORD	1209942	wordpools/wasnorm_wordpool_576.txt	LTP278	ltpFR2	23	10	BROOK	177	n/a	n/a	0	0	0
2422.354	n/a	WORD	1211177	wordpools/wasnorm_wordpool_576.txt	LTP278	ltpFR2	23	10	SHARK	1275	n/a	n/a	0	0	0
2425.12	n/a	WORD	1212560	wordpools/wasnorm_wordpool_576.txt	LTP278	ltpFR2	23	10	DENTIST	447	n/a	n/a	0	0	0
2427.664	n/a	WORD	1213832	wordpools/wasnorm_wordpool_576.txt	LTP278	ltpFR2	23	10	BRACES	164	n/a	n/a	0	0	0
2430.156	n/a	WORD	1215078	wordpools/wasnorm_wordpool_576.txt	LTP278	ltpFR2	23	10	NOTEBOOK	959	n/a	n/a	0	0	0
2432.916	n/a	WORD	1216458	wordpools/wasnorm_wordpool_576.txt	LTP278	ltpFR2	23	10	PAVEMENT	1028	n/a	n/a	0	0	0
2435.54	n/a	WORD	1217770	wordpools/wasnorm_wordpool_576.txt	LTP278	ltpFR2	23	10	FAUCET	555	n/a	n/a	0	0	0
2438.204	n/a	WORD	1219102	wordpools/wasnorm_wordpool_576.txt	LTP278	ltpFR2	23	10	RELISH	1183	n/a	n/a	0	0	0
2440.664	n/a	WORD	1220332	wordpools/wasnorm_wordpool_576.txt	LTP278	ltpFR2	23	10	CHISEL	305	n/a	n/a	0	0	0
2443.406	n/a	WORD	1221703	wordpools/wasnorm_wordpool_576.txt	LTP278	ltpFR2	23	10	LONDON	843	n/a	n/a	0	0	0
2446.218	n/a	WORD	1223109	wordpools/wasnorm_wordpool_576.txt	LTP278	ltpFR2	23	10	SALESMAN	1225	n/a	n/a	0	0	0
2449.012	n/a	WORD	1224506	wordpools/wasnorm_wordpool_576.txt	LTP278	ltpFR2	23	10	FACE	547	n/a	n/a	0	0	0
2451.772	n/a	WORD	1225886	wordpools/wasnorm_wordpool_576.txt	LTP278	ltpFR2	23	10	REINDEER	1181	n/a	n/a	0	0	0
2454.332	n/a	WORD	1227166	wordpools/wasnorm_wordpool_576.txt	LTP278	ltpFR2	23	10	SPINACH	1352	n/a	n/a	0	0	0
2456.854	n/a	WORD	1228427	wordpools/wasnorm_wordpool_576.txt	LTP278	ltpFR2	23	10	PICKLE	1059	n/a	n/a	0	0	0
2458.464	n/a	START	1229232	n/a	LTP278	ltpFR2	23	n/a	n/a	n/a	16	n/a	n/a	n/a	n/a
2459.61	n/a	DISTRACTOR	1229805	n/a	LTP278	ltpFR2	23	10	n/a	n/a	n/a	n/a	0	0	0
2459.62	n/a	PROB	1229810	n/a	LTP278	ltpFR2	23	n/a	n/a	n/a	16	14	8	1	5
2462.56	n/a	PROB	1231280	n/a	LTP278	ltpFR2	23	n/a	n/a	n/a	16	22	9	8	5
2464.754	n/a	PROB	1232377	n/a	LTP278	ltpFR2	23	n/a	n/a	n/a	16	18	4	8	6
2467.21	n/a	PROB	1233605	n/a	LTP278	ltpFR2	23	n/a	n/a	n/a	16	17	3	6	8
2469.334	n/a	PROB	1234667	n/a	LTP278	ltpFR2	23	n/a	n/a	n/a	16	10	2	6	2
2470.76	n/a	PROB	1235380	n/a	LTP278	ltpFR2	23	n/a	n/a	n/a	16	20	9	5	6
2472.898	n/a	PROB	1236449	n/a	LTP278	ltpFR2	23	n/a	n/a	n/a	16	17	7	2	8
2474.772	n/a	PROB	1237386	n/a	LTP278	ltpFR2	23	n/a	n/a	n/a	16	11	3	6	2
2476.78	n/a	PROB	1238390	n/a	LTP278	ltpFR2	23	n/a	n/a	n/a	16	20	9	5	6
2478.858	n/a	PROB	1239429	n/a	LTP278	ltpFR2	23	n/a	n/a	n/a	16	22	5	7	9
2481.448	n/a	STOP	1240724	n/a	LTP278	ltpFR2	23	n/a	n/a	n/a	16	n/a	n/a	n/a	n/a
2484.314	n/a	REC_START	1242157	n/a	LTP278	ltpFR2	23	10	n/a	n/a	n/a	n/a	0	0	0
2487.56	n/a	REC_WORD	1243780	wordpools/wasnorm_wordpool_576.txt	LTP278	ltpFR2	23	10	REINDEER	1181	n/a	n/a	0	0	0
2488.176	n/a	REC_WORD	1244088	wordpools/wasnorm_wordpool_576.txt	LTP278	ltpFR2	23	10	FACE	547	n/a	n/a	0	0	0
2575.36	n/a	WORD	1287680	wordpools/wasnorm_wordpool_576.txt	LTP278	ltpFR2	23	11	STUDENT	1395	n/a	n/a	0	0	0
2578.138	n/a	WORD	1289069	wordpools/wasnorm_wordpool_576.txt	LTP278	ltpFR2	23	11	COD	340	n/a	n/a	0	0	0
2580.932	n/a	WORD	1290466	wordpools/wasnorm_wordpool_576.txt	LTP278	ltpFR2	23	11	HAMMOCK	681	n/a	n/a	0	0	0
2583.61	n/a	WORD	1291805	wordpools/wasnorm_wordpool_576.txt	LTP278	ltpFR2	23	11	TIMBER	1469	n/a	n/a	0	0	0
2586.386	n/a	WORD	1293193	wordpools/wasnorm_wordpool_576.txt	LTP278	ltpFR2	23	11	SALMON	1227	n/a	n/a	0	0	0
2588.896	n/a	WORD	1294448	wordpools/wasnorm_wordpool_576.txt	LTP278	ltpFR2	23	11	OATMEAL	967	n/a	n/a	0	0	0
2591.552	n/a	WORD	1295776	wordpools/wasnorm_wordpool_576.txt	LTP278	ltpFR2	23	11	WAIST	1579	n/a	n/a	0	0	0
2594.132	n/a	WORD	1297066	wordpools/wasnorm_wordpool_576.txt	LTP278	ltpFR2	23	11	BUCKLE	185	n/a	n/a	0	0	0
2596.76	n/a	WORD	1298380	wordpools/wasnorm_wordpool_576.txt	LTP278	ltpFR2	23	11	ATHLETE	52	n/a	n/a	0	0	0
2599.52	n/a	WORD	1299760	wordpools/wasnorm_wordpool_576.txt	LTP278	ltpFR2	23	11	BLENDER	136	n/a	n/a	0	0	0
2602.344	n/a	WORD	1301172	wordpools/wasnorm_wordpool_576.txt	LTP278	ltpFR2	23	11	WOLF	1619	n/a	n/a	0	0	0
2604.97	n/a	WORD	1302485	wordpools/wasnorm_wordpool_576.txt	LTP278	ltpFR2	23	11	ARTIST	43	n/a	n/a	0	0	0
2607.636	n/a	WORD	1303818	wordpools/wasnorm_wordpool_576.txt	LTP278	ltpFR2	23	11	SINK	1309	n/a	n/a	0	0	0
2610.078	n/a	WORD	1305039	wordpools/wasnorm_wordpool_576.txt	LTP278	ltpFR2	23	11	BASEBALL	93	n/a	n/a	0	0	0
2612.52	n/a	WORD	1306260	wordpools/wasnorm_wordpool_576.txt	LTP278	ltpFR2	23	11	PEPPER	1047	n/a	n/a	0	0	0
2615.162	n/a	WORD	1307581	wordpools/wasnorm_wordpool_576.txt	LTP278	ltpFR2	23	11	PAINTING	1005	n/a	n/a	0	0	0
2617.64	n/a	WORD	1308820	wordpools/wasnorm_wordpool_576.txt	LTP278	ltpFR2	23	11	PAIL	1002	n/a	n/a	0	0	0
2620.344	n/a	WORD	1310172	wordpools/wasnorm_wordpool_576.txt	LTP278	ltpFR2	23	11	FEAST	556	n/a	n/a	0	0	0
2622.842	n/a	WORD	1311421	wordpools/wasnorm_wordpool_576.txt	LTP278	ltpFR2	23	11	VALVE	1546	n/a	n/a	0	0	0
2625.452	n/a	WORD	1312726	wordpools/wasnorm_wordpool_576.txt	LTP278	ltpFR2	23	11	FIELD	562	n/a	n/a	0	0	0
2628.208	n/a	WORD	1314104	wordpools/wasnorm_wordpool_576.txt	LTP278	ltpFR2	23	11	VICTOR	1563	n/a	n/a	0	0	0
2630.868	n/a	WORD	1315434	wordpools/wasnorm_wordpool_576.txt	LTP278	ltpFR2	23	11	BANK	83	n/a	n/a	0	0	0
2633.432	n/a	WORD	1316716	wordpools/wasnorm_wordpool_576.txt	LTP278	ltpFR2	23	11	NEWSSTAND	949	n/a	n/a	0	0	0
2636.244	n/a	WORD	1318122	wordpools/wasnorm_wordpool_576.txt	LTP278	ltpFR2	23	11	COLUMN	350	n/a	n/a	0	0	0
2637.85	n/a	START	1318925	n/a	LTP278	ltpFR2	23	n/a	n/a	n/a	17	n/a	n/a	n/a	n/a
2638.76	n/a	DISTRACTOR	1319380	n/a	LTP278	ltpFR2	23	11	n/a	n/a	n/a	n/a	0	0	0
2638.77	n/a	PROB	1319385	n/a	LTP278	ltpFR2	23	n/a	n/a	n/a	17	18	2	8	8
2661.594	n/a	STOP	1330797	n/a	LTP278	ltpFR2	23	n/a	n/a	n/a	17	n/a	n/a	n/a	n/a
2663.784	n/a	REC_START	1331892	n/a	LTP278	ltpFR2	23	11	n/a	n/a	n/a	n/a	0	0	0
2667.398	n/a	REC_WORD	1333699	wordpools/wasnorm_wordpool_576.txt	LTP278	ltpFR2	23	11	COD	340	n/a	n/a	0	0	0
2668.02	n/a	REC_WORD	1334010	wordpools/wasnorm_wordpool_576.txt	LTP278	ltpFR2	23	11	HAMMOCK	681	n/a	n/a	0	0	0
2668.642	n/a	REC_WORD	1334321	wordpools/wasnorm_wordpool_576.txt	LTP278	ltpFR2	23	11	SALMON	1227	n/a	n/a	0	0	0
2669.674	n/a	REC_WORD	1334837	wordpools/wasnorm_wordpool_576.txt	LTP278	ltpFR2	23	11	TIMBER	1469	n/a	n/a	0	0	0
2672.372	n/a	REC_WORD	1336186	wordpools/wasnorm_wordpool_576.txt	LTP278	ltpFR2	23	11	STUDENT	1395	n/a	n/a	0	0	0
2674.2	n/a	REC_WORD	1337100	wordpools/wasnorm_wordpool_576.txt	LTP278	ltpFR2	23	11	OATMEAL	967	n/a	n/a	0	0	0
2674.924	n/a	REC_WORD	1337462	wordpools/wasnorm_wordpool_576.txt	LTP278	ltpFR2	23	11	WAIST	1579	n/a	n/a	0	0	0
2754.814	n/a	DISTRACTOR	1377407	n/a	LTP278	ltpFR2	23	12	n/a	n/a	n/a	n/a	0	0	0
2754.814	n/a	START	1377407	n/a	LTP278	ltpFR2	23	n/a	n/a	n/a	18	n/a	n/a	n/a	n/a
2754.864	n/a	PROB	1377432	n/a	LTP278	ltpFR2	23	n/a	n/a	n/a	18	16	4	4	8
2757.302	n/a	PROB	1378651	n/a	LTP278	ltpFR2	23	n/a	n/a	n/a	18	16	6	8	2
2759.9	n/a	PROB	1379950	n/a	LTP278	ltpFR2	23	n/a	n/a	n/a	18	14	2	5	7
2761.986	n/a	PROB	1380993	n/a	LTP278	ltpFR2	23	n/a	n/a	n/a	18	18	7	6	5
2764.53	n/a	PROB	1382265	n/a	LTP278	ltpFR2	23	n/a	n/a	n/a	18	14	1	6	7
2766.72	n/a	PROB	1383360	n/a	LTP278	ltpFR2	23	n/a	n/a	n/a	18	15	6	2	7
2768.862	n/a	PROB	1384431	n/a	LTP278	ltpFR2	23	n/a	n/a	n/a	18	11	1	4	6
2770.826	n/a	PROB	1385413	n/a	LTP278	ltpFR2	23	n/a	n/a	n/a	18	16	5	4	6
2773.948	n/a	PROB	1386974	n/a	LTP278	ltpFR2	23	n/a	n/a	n/a	18	18	4	8	6
2776.358	n/a	PROB	1388179	n/a	LTP278	ltpFR2	23	n/a	n/a	n/a	18	7	1	5	1
2777.504	n/a	STOP	1388752	n/a	LTP278	ltpFR2	23	n/a	n/a	n/a	18	n/a	n/a	n/a	n/a
2779.776	n/a	WORD	1389888	wordpools/wasnorm_wordpool_576.txt	LTP278	ltpFR2	23	12	SUITCASE	1403	n/a	n/a	0	0	0
2782.464	n/a	WORD	1391232	wordpools/wasnorm_wordpool_576.txt	LTP278	ltpFR2	23	12	LOVER	846	n/a	n/a	0	0	0
2785.28	n/a	WORD	1392640	wordpools/wasnorm_wordpool_576.txt	LTP278	ltpFR2	23	12	PRISON	1127	n/a	n/a	0	0	0
2787.706	n/a	WORD	1393853	wordpools/wasnorm_wordpool_576.txt	LTP278	ltpFR2	23	12	DUNGEON	507	n/a	n/a	0	0	0
2790.462	n/a	WORD	1395231	wordpools/wasnorm_wordpool_576.txt	LTP278	ltpFR2	23	12	PLUTO	1092	n/a	n/a	0	0	0
2792.91	n/a	WORD	1396455	wordpools/wasnorm_wordpool_576.txt	LTP278	ltpFR2	23	12	WASHER	1592	n/a	n/a	0	0	0
2795.538	n/a	WORD	1397769	wordpools/wasnorm_wordpool_576.txt	LTP278	ltpFR2	23	12	FARM	552	n/a	n/a	0	0	0
2798.078	n/a	WORD	1399039	wordpools/wasnorm_wordpool_576.txt	LTP278	ltpFR2	23	12	FLEET	578	n/a	n/a	0	0	0
2800.64	n/a	WORD	1400320	wordpools/wasnorm_wordpool_576.txt	LTP278	ltpFR2	23	12	LITTER	832	n/a	n/a	0	0	0
2803.382	n/a	WORD	1401691	wordpools/wasnorm_wordpool_576.txt	LTP278	ltpFR2	23	12	SARDINE	1235	n/a	n/a	0	0	0
2805.874	n/a	WORD	1402937	wordpools/wasnorm_wordpool_576.txt	LTP278	ltpFR2	23	12	GLOVE	642	n/a	n/a	0	0	0
2808.402	n/a	WORD	1404201	wordpools/wasnorm_wordpool_576.txt	LTP278	ltpFR2	23	12	JOKER	759	n/a	n/a	0	0	0
2811.174	n/a	WORD	1405587	wordpools/wasnorm_wordpool_576.txt	LTP278	ltpFR2	23	12	FIST	572	n/a	n/a	0	0	0
2813.956	n/a	WORD	1406978	wordpools/wasnorm_wordpool_576.txt	LTP278	ltpFR2	23	12	SLEEVE	1324	n/a	n/a	0	0	0
2816.416	n/a	WORD	1408208	wordpools/wasnorm_wordpool_576.txt	LTP278	ltpFR2	23	12	HANDBAG	684	n/a	n/a	0	0	0
2818.876	n/a	WORD	1409438	wordpools/wasnorm_wordpool_576.txt	LTP278	ltpFR2	23	12	SIDING	1304	n/a	n/a	0	0	0
2821.62	n/a	WORD	1410810	wordpools/wasnorm_wordpool_576.txt	LTP278	ltpFR2	23	12	STRANGER	1389	n/a	n/a	0	0	0
2824.212	n/a	WORD	1412106	wordpools/wasnorm_wordpool_576.txt	LTP278	ltpFR2	23	12	KITTEN	780	n/a	n/a	0	0	0
2826.784	n/a	WORD	1413392	wordpools/wasnorm_wordpool_576.txt	LTP278	ltpFR2	23	12	HAND	683	n/a	n/a	0	0	0
2829.432	n/a	WORD	1414716	wordpools/wasnorm_wordpool_576.txt	LTP278	ltpFR2	23	12	GREASE	660	n/a	n/a	0	0	0
2832.004	n/a	WORD	1416002	wordpools/wasnorm_wordpool_576.txt	LTP278	ltpFR2	23	12	PACKAGE	997	n/a	n/a	0	0	0
2834.502	n/a	WORD	1417251	wordpools/wasnorm_wordpool_576.txt	LTP278	ltpFR2	23	12	HEDGE	699	n/a	n/a	0	0	0
2837.14	n/a	WORD	1418570	wordpools/wasnorm_wordpool_576.txt	LTP278	ltpFR2	23	12	TWIG	1527	n/a	n/a	0	0	0
2839.906	n/a	WORD	1419953	wordpools/wasnorm_wordpool_576.txt	LTP278	ltpFR2	23	12	GIRAFFE	636	n/a	n/a	0	0	0
2841.512	n/a	START	1420756	n/a	LTP278	ltpFR2	23	n/a	n/a	n/a	19	n/a	n/a	n/a	n/a
2842.426	n/a	DISTRACTOR	1421213	n/a	LTP278	ltpFR2	23	12	n/a	n/a	n/a	n/a	0	0	0
2842.444	n/a	PROB	1421222	n/a	LTP278	ltpFR2	23	n/a	n/a	n/a	19	11	5	4	2
2845.11	n/a	PROB	1422555	n/a	LTP278	ltpFR2	23	n/a	n/a	n/a	19	10	3	5	2
2848.702	n/a	PROB	1424351	n/a	LTP278	ltpFR2	23	n/a	n/a	n/a	19	17	8	6	3
2851.63	n/a	PROB	1425815	n/a	LTP278	ltpFR2	23	n/a	n/a	n/a	19	17	7	9	1
2855.042	n/a	PROB	1427521	n/a	LTP278	ltpFR2	23	n/a	n/a	n/a	19	16	2	8	6
2856.732	n/a	PROB	1428366	n/a	LTP278	ltpFR2	23	n/a	n/a	n/a	19	9	2	2	5
2858.204	n/a	PROB	1429102	n/a	LTP278	ltpFR2	23	n/a	n/a	n/a	19	19	1	9	9
2860.262	n/a	PROB	1430131	n/a	LTP278	ltpFR2	23	n/a	n/a	n/a	19	17	5	4	7
2862.442	n/a	PROB	1431221	n/a	LTP278	ltpFR2	23	n/a	n/a	n/a	19	8	3	1	4
2864.148	n/a	STOP	1432074	n/a	LTP278	ltpFR2	23	n/a	n/a	n/a	19	n/a	n/a	n/a	n/a
2867.356	n/a	REC_START	1433678	n/a	LTP278	ltpFR2	23	12	n/a	n/a	n/a	n/a	0	0	0
2904.554	n/a	REC_WORD	1452277	wordpools/wasnorm_wordpool_576.txt	LTP278	ltpFR2	23	12	FIST	572	n/a	n/a	0	0	0
2905.092	n/a	REC_WORD	1452546	wordpools/wasnorm_wordpool_576.txt	LTP278	ltpFR2	23	12	VALVE	1546	n/a	n/a	0	0	0
2958.392	n/a	DISTRACTOR	1479196	n/a	LTP278	ltpFR2	23	13	n/a	n/a	n/a	n/a	0	0	0
2958.392	n/a	START	1479196	n/a	LTP278	ltpFR2	23	n/a	n/a	n/a	20	n/a	n/a	n/a	n/a
2958.442	n/a	PROB	1479221	n/a	LTP278	ltpFR2	23	n/a	n/a	n/a	20	15	5	8	2
2961.182	n/a	PROB	1480591	n/a	LTP278	ltpFR2	23	n/a	n/a	n/a	20	8	5	1	2
2962.754	n/a	PROB	1481377	n/a	LTP278	ltpFR2	23	n/a	n/a	n/a	20	9	1	6	2
2963.992	n/a	PROB	1481996	n/a	LTP278	ltpFR2	23	n/a	n/a	n/a	20	14	2	3	9
2966.384	n/a	PROB	1483192	n/a	LTP278	ltpFR2	23	n/a	n/a	n/a	20	17	6	3	8
2969.078	n/a	PROB	1484539	n/a	LTP278	ltpFR2	23	n/a	n/a	n/a	20	6	2	2	2
2970.366	n/a	PROB	1485183	n/a	LTP278	ltpFR2	23	n/a	n/a	n/a	20	9	7	8	4
2974.822	n/a	PROB	1487411	n/a	LTP278	ltpFR2	23	n/a	n/a	n/a	20	15	7	1	7
2978.196	n/a	PROB	1489098	n/a	LTP278	ltpFR2	23	n/a	n/a	n/a	20	20	6	7	7
2982.162	n/a	STOP	1491081	n/a	LTP278	ltpFR2	23	n/a	n/a	n/a	20	n/a	n/a	n/a	n/a
2983.47	n/a	WORD	1491735	wordpools/wasnorm_wordpool_576.txt	LTP278	ltpFR2	23	13	ANTLER	29	n/a	n/a	0	0	0
2985.946	n/a	WORD	1492973	wordpools/wasnorm_wordpool_576.txt	LTP278	ltpFR2	23	13	CLIFF	322	n/a	n/a	0	0	0
2988.554	n/a	WORD	1494277	wordpools/wasnorm_wordpool_576.txt	LTP278	ltpFR2	23	13	LEMON	810	n/a	n/a	0	0	0
2991.33	n/a	WORD	1495665	wordpools/wasnorm_wordpool_576.txt	LTP278	ltpFR2	23	13	BANJO	82	n/a	n/a	0	0	0
2993.878	n/a	WORD	1496939	wordpools/wasnorm_wordpool_576.txt	LTP278	ltpFR2	23	13	OUTDOORS	987	n/a	n/a	0	0	0
2996.404	n/a	WORD	1498202	wordpools/wasnorm_wordpool_576.txt	LTP278	ltpFR2	23	13	INMATE	738	n/a	n/a	0	0	0
2998.864	n/a	WORD	1499432	wordpools/wasnorm_wordpool_576.txt	LTP278	ltpFR2	23	13	RAISIN	1163	n/a	n/a	0	0	0
3001.29	n/a	WORD	1500645	wordpools/wasnorm_wordpool_576.txt	LTP278	ltpFR2	23	13	MOUNTAIN	924	n/a	n/a	0	0	0
3003.766	n/a	WORD	1501883	wordpools/wasnorm_wordpool_576.txt	LTP278	ltpFR2	23	13	STOCKING	1383	n/a	n/a	0	0	0
3006.374	n/a	WORD	1503187	wordpools/wasnorm_wordpool_576.txt	LTP278	ltpFR2	23	13	DWARF	510	n/a	n/a	0	0	0
3009.03	n/a	WORD	1504515	wordpools/wasnorm_wordpool_576.txt	LTP278	ltpFR2	23	13	SWATTER	1418	n/a	n/a	0	0	0
3011.698	n/a	WORD	1505849	wordpools/wasnorm_wordpool_576.txt	LTP278	ltpFR2	23	13	JEEP	753	n/a	n/a	0	0	0
3014.318	n/a	WORD	1507159	wordpools/wasnorm_wordpool_576.txt	LTP278	ltpFR2	23	13	RAFT	1159	n/a	n/a	0	0	0
3016.798	n/a	WORD	1508399	wordpools/wasnorm_wordpool_576.txt	LTP278	ltpFR2	23	13	CABIN	211	n/a	n/a	0	0	0
3019.342	n/a	WORD	1509671	wordpools/wasnorm_wordpool_576.txt	LTP278	ltpFR2	23	13	MILDEW	893	n/a	n/a	0	0	0
3021.968	n/a	WORD	1510984	wordpools/wasnorm_wordpool_576.txt	LTP278	ltpFR2	23	13	CABBAGE	210	n/a	n/a	0	0	0
3024.528	n/a	WORD	1512264	wordpools/wasnorm_wordpool_576.txt	LTP278	ltpFR2	23	13	VAMPIRE	1547	n/a	n/a	0	0	0
3027.288	n/a	WORD	1513644	wordpools/wasnorm_wordpool_576.txt	LTP278	ltpFR2	23	13	BRACELET	163	n/a	n/a	0	0	0
3029.898	n/a	WORD	1514949	wordpools/wasnorm_wordpool_576.txt	LTP278	ltpFR2	23	13	MISTER	901	n/a	n/a	0	0	0
3032.61	n/a	WORD	1516305	wordpools/wasnorm_wordpool_576.txt	LTP278	ltpFR2	23	13	MAMMAL	861	n/a	n/a	0	0	0
3035.27	n/a	WORD	1517635	wordpools/wasnorm_wordpool_576.txt	LTP278	ltpFR2	23	13	SCALPEL	1243	n/a	n/a	0	0	0
3037.98	n/a	WORD	1518990	wordpools/wasnorm_wordpool_576.txt	LTP278	ltpFR2	23	13	NURSE	963	n/a	n/a	0	0	0
3040.686	n/a	WORD	1520343	wordpools/wasnorm_wordpool_576.txt	LTP278	ltpFR2	23	13	DRIVEWAY	500	n/a	n/a	0	0	0
3043.182	n/a	WORD	1521591	wordpools/wasnorm_wordpool_576.txt	LTP278	ltpFR2	23	13	CABOOSE	214	n/a	n/a	0	0	0
3044.788	n/a	START	1522394	n/a	LTP278	ltpFR2	23	n/a	n/a	n/a	21	n/a	n/a	n/a	n/a
3045.758	n/a	DISTRACTOR	1522879	n/a	LTP278	ltpFR2	23	13	n/a	n/a	n/a	n/a	0	0	0
3045.776	n/a	PROB	1522888	n/a	LTP278	ltpFR2	23	n/a	n/a	n/a	21	24	9	9	6
3049.474	n/a	PROB	1524737	n/a	LTP278	ltpFR2	23	n/a	n/a	n/a	21	9	3	5	1
3051.498	n/a	PROB	1525749	n/a	LTP278	ltpFR2	23	n/a	n/a	n/a	21	13	4	8	1
3053.54	n/a	PROB	1526770	n/a	LTP278	ltpFR2	23	n/a	n/a	n/a	21	14	9	4	1
3061.414	n/a	PROB	1530707	n/a	LTP278	ltpFR2	23	n/a	n/a	n/a	21	14	7	5	2
3063.806	n/a	PROB	1531903	n/a	LTP278	ltpFR2	23	n/a	n/a	n/a	21	10	4	2	4
3065.998	n/a	PROB	1532999	n/a	LTP278	ltpFR2	23	n/a	n/a	n/a	21	8	1	3	4
3068.79	n/a	STOP	1534395	n/a	LTP278	ltpFR2	23	n/a	n/a	n/a	21	n/a	n/a	n/a	n/a
3070.684	n/a	REC_START	1535342	n/a	LTP278	ltpFR2	23	13	n/a	n/a	n/a	n/a	0	0	0
3071.754	n/a	REC_WORD	1535877	wordpools/wasnorm_wordpool_576.txt	LTP278	ltpFR2	23	13	DRIVEWAY	500	n/a	n/a	0	0	0
3106.43	n/a	REC_WORD	1553215	wordpools/wasnorm_wordpool_576.txt	LTP278	ltpFR2	23	13	HARVEST	-1	n/a	n/a	0	0	0
3161.736	n/a	WORD	1580868	wordpools/wasnorm_wordpool_576.txt	LTP278	ltpFR2	23	14	BAKER	71	n/a	n/a	0	0	0
3164.312	n/a	WORD	1582156	wordpools/wasnorm_wordpool_576.txt	LTP278	ltpFR2	23	14	BISCUIT	130	n/a	n/a	0	0	0
3166.94	n/a	WORD	1583470	wordpools/wasnorm_wordpool_576.txt	LTP278	ltpFR2	23	14	ROBIN	1199	n/a	n/a	0	0	0
3169.548	n/a	WORD	1584774	wordpools/wasnorm_wordpool_576.txt	LTP278	ltpFR2	23	14	TRUCK	1512	n/a	n/a	0	0	0
3171.986	n/a	WORD	1585993	wordpools/wasnorm_wordpool_576.txt	LTP278	ltpFR2	23	14	THRONE	1461	n/a	n/a	0	0	0
3174.718	n/a	WORD	1587359	wordpools/wasnorm_wordpool_576.txt	LTP278	ltpFR2	23	14	PICNIC	1060	n/a	n/a	0	0	0
3177.196	n/a	WORD	1588598	wordpools/wasnorm_wordpool_576.txt	LTP278	ltpFR2	23	14	ACTRESS	6	n/a	n/a	0	0	0
3179.756	n/a	WORD	1589878	wordpools/wasnorm_wordpool_576.txt	LTP278	ltpFR2	23	14	BASEMENT	94	n/a	n/a	0	0	0
3182.51	n/a	WORD	1591255	wordpools/wasnorm_wordpool_576.txt	LTP278	ltpFR2	23	14	IDOL	733	n/a	n/a	0	0	0
3185.276	n/a	WORD	1592638	wordpools/wasnorm_wordpool_576.txt	LTP278	ltpFR2	23	14	EYELASH	546	n/a	n/a	0	0	0
3187.936	n/a	WORD	1593968	wordpools/wasnorm_wordpool_576.txt	LTP278	ltpFR2	23	14	YOLK	1633	n/a	n/a	0	0	0
3190.378	n/a	WORD	1595189	wordpools/wasnorm_wordpool_576.txt	LTP278	ltpFR2	23	14	SUPPER	1411	n/a	n/a	0	0	0
3193.1	n/a	WORD	1596550	wordpools/wasnorm_wordpool_576.txt	LTP278	ltpFR2	23	14	EARRING	514	n/a	n/a	0	0	0
3195.6	n/a	WORD	1597800	wordpools/wasnorm_wordpool_576.txt	LTP278	ltpFR2	23	14	SAPPHIRE	1234	n/a	n/a	0	0	0
3198.036	n/a	WORD	1599018	wordpools/wasnorm_wordpool_576.txt	LTP278	ltpFR2	23	14	HEEL	700	n/a	n/a	0	0	0
3200.568	n/a	WORD	1600284	wordpools/wasnorm_wordpool_576.txt	LTP278	ltpFR2	23	14	GAUZE	626	n/a	n/a	0	0	0
3203.194	n/a	WORD	1601597	wordpools/wasnorm_wordpool_576.txt	LTP278	ltpFR2	23	14	CLIPPERS	324	n/a	n/a	0	0	0
3205.704	n/a	WORD	1602852	wordpools/wasnorm_wordpool_576.txt	LTP278	ltpFR2	23	14	SHINGLE	1285	n/a	n/a	0	0	0
3208.348	n/a	WORD	1604174	wordpools/wasnorm_wordpool_576.txt	LTP278	ltpFR2	23	14	COUGAR	387	n/a	n/a	0	0	0
3211.142	n/a	WORD	1605571	wordpools/wasnorm_wordpool_576.txt	LTP278	ltpFR2	23	14	SEASHORE	1263	n/a	n/a	0	0	0
3213.796	n/a	WORD	1606898	wordpools/wasnorm_wordpool_576.txt	LTP278	ltpFR2	23	14	COMET	353	n/a	n/a	0	0	0
3216.228	n/a	WORD	1608114	wordpools/wasnorm_wordpool_576.txt	LTP278	ltpFR2	23	14	LOBBY	836	n/a	n/a	0	0	0
3218.916	n/a	WORD	1609458	wordpools/wasnorm_wordpool_576.txt	LTP278	ltpFR2	23	14	TROPHY	1509	n/a	n/a	0	0	0
3221.464	n/a	WORD	1610732	wordpools/wasnorm_wordpool_576.txt	LTP278	ltpFR2	23	14	STAR	1373	n/a	n/a	0	0	0
3223.07	n/a	START	1611535	n/a	LTP278	ltpFR2	23	n/a	n/a	n/a	22	n/a	n/a	n/a	n/a
3223.884	n/a	DISTRACTOR	1611942	n/a	LTP278	ltpFR2	23	14	n/a	n/a	n/a	n/a	0	0	0
3247.072	n/a	STOP	1623536	n/a	LTP278	ltpFR2	23	n/a	n/a	n/a	22	n/a	n/a	n/a	n/a
3248.982	n/a	REC_START	1624491	n/a	LTP278	ltpFR2	23	14	n/a	n/a	n/a	n/a	0	0	0
3252.294	n/a	REC_WORD	1626147	wordpools/wasnorm_wordpool_576.txt	LTP278	ltpFR2	23	14	MISSION	-1	n/a	n/a	0	0	0
3259.41	n/a	REC_WORD	1629705	wordpools/wasnorm_wordpool_576.txt	LTP278	ltpFR2	23	14	BISCUIT	130	n/a	n/a	0	0	0
3260.198	n/a	REC_WORD	1630099	wordpools/wasnorm_wordpool_576.txt	LTP278	ltpFR2	23	14	BAKER	71	n/a	n/a	0	0	0
3340.046	n/a	WORD	1670023	wordpools/wasnorm_wordpool_576.txt	LTP278	ltpFR2	23	15	MUSHROOM	934	n/a	n/a	0	0	0
3342.778	n/a	WORD	1671389	wordpools/wasnorm_wordpool_576.txt	LTP278	ltpFR2	23	15	BELT	120	n/a	n/a	0	0	0
3345.238	n/a	WORD	1672619	wordpools/wasnorm_wordpool_576.txt	LTP278	ltpFR2	23	15	SHOELACE	1289	n/a	n/a	0	0	0
3347.998	n/a	WORD	1673999	wordpools/wasnorm_wordpool_576.txt	LTP278	ltpFR2	23	15	PASSAGE	1019	n/a	n/a	0	0	0
3350.474	n/a	WORD	1675237	wordpools/wasnorm_wordpool_576.txt	LTP278	ltpFR2	23	15	BUILDER	190	n/a	n/a	0	0	0
3353.268	n/a	WORD	1676634	wordpools/wasnorm_wordpool_576.txt	LTP278	ltpFR2	23	15	SAUCER	1237	n/a	n/a	0	0	0
3355.84	n/a	WORD	1677920	wordpools/wasnorm_wordpool_576.txt	LTP278	ltpFR2	23	15	KETTLE	772	n/a	n/a	0	0	0
3358.416	n/a	WORD	1679208	wordpools/wasnorm_wordpool_576.txt	LTP278	ltpFR2	23	15	DOLPHIN	483	n/a	n/a	0	0	0
3360.896	n/a	WORD	1680448	wordpools/wasnorm_wordpool_576.txt	LTP278	ltpFR2	23	15	TROUSERS	1510	n/a	n/a	0	0	0
3363.692	n/a	WORD	1681846	wordpools/wasnorm_wordpool_576.txt	LTP278	ltpFR2	23	15	PARROT	1015	n/a	n/a	0	0	0
3366.234	n/a	WORD	1683117	wordpools/wasnorm_wordpool_576.txt	LTP278	ltpFR2	23	15	BEAST	108	n/a	n/a	0	0	0
3368.822	n/a	WORD	1684411	wordpools/wasnorm_wordpool_576.txt	LTP278	ltpFR2	23	15	TERMITE	1451	n/a	n/a	0	0	0
3371.554	n/a	WORD	1685777	wordpools/wasnorm_wordpool_576.txt	LTP278	ltpFR2	23	15	SHACK	1273	n/a	n/a	0	0	0
3374.098	n/a	WORD	1687049	wordpools/wasnorm_wordpool_576.txt	LTP278	ltpFR2	23	15	ITEM	746	n/a	n/a	0	0	0
3376.608	n/a	WORD	1688304	wordpools/wasnorm_wordpool_576.txt	LTP278	ltpFR2	23	15	WINGS	1614	n/a	n/a	0	0	0
3379.082	n/a	WORD	1689541	wordpools/wasnorm_wordpool_576.txt	LTP278	ltpFR2	23	15	LIPSTICK	829	n/a	n/a	0	0	0
3381.526	n/a	WORD	1690763	wordpools/wasnorm_wordpool_576.txt	LTP278	ltpFR2	23	15	SLACKS	1323	n/a	n/a	0	0	0
3384.02	n/a	WORD	1692010	wordpools/wasnorm_wordpool_576.txt	LTP278	ltpFR2	23	15	SUITE	1404	n/a	n/a	0	0	0
3386.796	n/a	WORD	1693398	wordpools/wasnorm_wordpool_576.txt	LTP278	ltpFR2	23	15	BASKET	95	n/a	n/a	0	0	0
3389.356	n/a	WORD	1694678	wordpools/wasnorm_wordpool_576.txt	LTP278	ltpFR2	23	15	JELLY	755	n/a	n/a	0	0	0
3391.898	n/a	WORD	1695949	wordpools/wasnorm_wordpool_576.txt	LTP278	ltpFR2	23	15	INSECT	740	n/a	n/a	0	0	0
3394.576	n/a	WORD	1697288	wordpools/wasnorm_wordpool_576.txt	LTP278	ltpFR2	23	15	PLUMBER	1091	n/a	n/a	0	0	0
3397.214	n/a	WORD	1698607	wordpools/wasnorm_wordpool_576.txt	LTP278	ltpFR2	23	15	BATHROOM	99	n/a	n/a	0	0	0
3399.908	n/a	WORD	1699954	wordpools/wasnorm_wordpool_576.txt	LTP278	ltpFR2	23	15	SCAPEGOAT	1244	n/a	n/a	0	0	0
3401.52	n/a	START	1700760	n/a	LTP278	ltpFR2	23	n/a	n/a	n/a	23	n/a	n/a	n/a	n/a
3402.604	n/a	DISTRACTOR	1701302	n/a	LTP278	ltpFR2	23	15	n/a	n/a	n/a	n/a	0	0	0
3402.62	n/a	PROB	1701310	n/a	LTP278	ltpFR2	23	n/a	n/a	n/a	23	14	1	9	4
3404.426	n/a	PROB	1702213	n/a	LTP278	ltpFR2	23	n/a	n/a	n/a	23	19	7	5	7
3407.99	n/a	PROB	1703995	n/a	LTP278	ltpFR2	23	n/a	n/a	n/a	23	10	8	1	1
3412.372	n/a	PROB	1706186	n/a	LTP278	ltpFR2	23	n/a	n/a	n/a	23	14	9	4	1
3414.262	n/a	PROB	1707131	n/a	LTP278	ltpFR2	23	n/a	n/a	n/a	23	9	2	3	4
3416.554	n/a	PROB	1708277	n/a	LTP278	ltpFR2	23	n/a	n/a	n/a	23	20	8	9	5
3418.882	n/a	PROB	1709441	n/a	LTP278	ltpFR2	23	n/a	n/a	n/a	23	16	6	9	1
3421.942	n/a	PROB	1710971	n/a	LTP278	ltpFR2	23	n/a	n/a	n/a	23	12	9	2	1
3423.414	n/a	PROB	1711707	n/a	LTP278	ltpFR2	23	n/a	n/a	n/a	23	18	2	7	9
3425.154	n/a	STOP	1712577	n/a	LTP278	ltpFR2	23	n/a	n/a	n/a	23	n/a	n/a	n/a	n/a
3427.33	n/a	REC_START	1713665	n/a	LTP278	ltpFR2	23	15	n/a	n/a	n/a	n/a	0	0	0
3432.134	n/a	REC_WORD	1716067	wordpools/wasnorm_wordpool_576.txt	LTP278	ltpFR2	23	15	SHOELACE	1289	n/a	n/a	0	0	0
3433.158	n/a	REC_WORD	1716579	wordpools/wasnorm_wordpool_576.txt	LTP278	ltpFR2	23	15	BELT	120	n/a	n/a	0	0	0
3437.002	n/a	REC_WORD	1718501	wordpools/wasnorm_wordpool_576.txt	LTP278	ltpFR2	23	15	MUSHROOM	934	n/a	n/a	0	0	0
3518.382	n/a	WORD	1759191	wordpools/wasnorm_wordpool_576.txt	LTP278	ltpFR2	23	16	DOCK	477	n/a	n/a	0	0	0
3521.126	n/a	WORD	1760563	wordpools/wasnorm_wordpool_576.txt	LTP278	ltpFR2	23	16	SNORKEL	1336	n/a	n/a	0	0	0
3523.72	n/a	WORD	1761860	wordpools/wasnorm_wordpool_576.txt	LTP278	ltpFR2	23	16	STONE	1385	n/a	n/a	0	0	0
3526.542	n/a	WORD	1763271	wordpools/wasnorm_wordpool_576.txt	LTP278	ltpFR2	23	16	CAPE	237	n/a	n/a	0	0	0
3529.274	n/a	WORD	1764637	wordpools/wasnorm_wordpool_576.txt	LTP278	ltpFR2	23	16	TRUMPET	1513	n/a	n/a	0	0	0
3531.918	n/a	WORD	1765959	wordpools/wasnorm_wordpool_576.txt	LTP278	ltpFR2	23	16	ACORN	3	n/a	n/a	0	0	0
3534.472	n/a	WORD	1767236	wordpools/wasnorm_wordpool_576.txt	LTP278	ltpFR2	23	16	VICTIM	1562	n/a	n/a	0	0	0
3537.182	n/a	WORD	1768591	wordpools/wasnorm_wordpool_576.txt	LTP278	ltpFR2	23	16	PISTON	1076	n/a	n/a	0	0	0
3539.864	n/a	WORD	1769932	wordpools/wasnorm_wordpool_576.txt	LTP278	ltpFR2	23	16	HOUSE	725	n/a	n/a	0	0	0
3542.626	n/a	WORD	1771313	wordpools/wasnorm_wordpool_576.txt	LTP278	ltpFR2	23	16	DRAWER	493	n/a	n/a	0	0	0
3545.268	n/a	WORD	1772634	wordpools/wasnorm_wordpool_576.txt	LTP278	ltpFR2	23	16	HANGER	687	n/a	n/a	0	0	0
3547.908	n/a	WORD	1773954	wordpools/wasnorm_wordpool_576.txt	LTP278	ltpFR2	23	16	TAVERN	1437	n/a	n/a	0	0	0
3550.69	n/a	WORD	1775345	wordpools/wasnorm_wordpool_576.txt	LTP278	ltpFR2	23	16	DOORBELL	487	n/a	n/a	0	0	0
3553.282	n/a	WORD	1776641	wordpools/wasnorm_wordpool_576.txt	LTP278	ltpFR2	23	16	BRUNETTE	181	n/a	n/a	0	0	0
3555.86	n/a	WORD	1777930	wordpools/wasnorm_wordpool_576.txt	LTP278	ltpFR2	23	16	RIBBON	1189	n/a	n/a	0	0	0
3558.57	n/a	WORD	1779285	wordpools/wasnorm_wordpool_576.txt	LTP278	ltpFR2	23	16	SLUG	1329	n/a	n/a	0	0	0
3561.046	n/a	WORD	1780523	wordpools/wasnorm_wordpool_576.txt	LTP278	ltpFR2	23	16	BEAVER	109	n/a	n/a	0	0	0
3563.806	n/a	WORD	1781903	wordpools/wasnorm_wordpool_576.txt	LTP278	ltpFR2	23	16	STUMP	1396	n/a	n/a	0	0	0
3566.282	n/a	WORD	1783141	wordpools/wasnorm_wordpool_576.txt	LTP278	ltpFR2	23	16	MARKET	871	n/a	n/a	0	0	0
3568.826	n/a	WORD	1784413	wordpools/wasnorm_wordpool_576.txt	LTP278	ltpFR2	23	16	BUTLER	204	n/a	n/a	0	0	0
3571.57	n/a	WORD	1785785	wordpools/wasnorm_wordpool_576.txt	LTP278	ltpFR2	23	16	BOXER	160	n/a	n/a	0	0	0
3574.196	n/a	WORD	1787098	wordpools/wasnorm_wordpool_576.txt	LTP278	ltpFR2	23	16	ICEBERG	731	n/a	n/a	0	0	0
3576.806	n/a	WORD	1788403	wordpools/wasnorm_wordpool_576.txt	LTP278	ltpFR2	23	16	FIDDLE	561	n/a	n/a	0	0	0
3579.366	n/a	WORD	1789683	wordpools/wasnorm_wordpool_576.txt	LTP278	ltpFR2	23	16	PORCH	1106	n/a	n/a	0	0	0
3580.972	n/a	START	1790486	n/a	LTP278	ltpFR2	23	n/a	n/a	n/a	24	n/a	n/a	n/a	n/a
3582.012	n/a	DISTRACTOR	1791006	n/a	LTP278	ltpFR2	23	16	n/a	n/a	n/a	n/a	0	0	0
3582.026	n/a	PROB	1791013	n/a	LTP278	ltpFR2	23	n/a	n/a	n/a	24	12	9	2	1
3585.422	n/a	PROB	1792711	n/a	LTP278	ltpFR2	23	n/a	n/a	n/a	24	10	6	3	1
3587.09	n/a	PROB	1793545	n/a	LTP278	ltpFR2	23	n/a	n/a	n/a	24	14	7	4	3
3588.998	n/a	PROB	1794499	n/a	LTP278	ltpFR2	23	n/a	n/a	n/a	24	20	8	5	7
3591.524	n/a	PROB	1795762	n/a	LTP278	ltpFR2	23	n/a	n/a	n/a	24	14	8	5	1
3593.832	n/a	PROB	1796916	n/a	LTP278	ltpFR2	23	n/a	n/a	n/a	24	17	4	9	4
3597.598	n/a	PROB	1798799	n/a	LTP278	ltpFR2	23	n/a	n/a	n/a	24	18	7	9	2
3600.524	n/a	PROB	1800262	n/a	LTP278	ltpFR2	23	n/a	n/a	n/a	24	19	8	7	2
3604.974	n/a	STOP	1802487	n/a	LTP278	ltpFR2	23	n/a	n/a	n/a	24	n/a	n/a	n/a	n/a
3606.918	n/a	REC_START	1803459	n/a	LTP278	ltpFR2	23	16	n/a	n/a	n/a	n/a	0	0	0
3607.85	n/a	REC_WORD	1803925	wordpools/wasnorm_wordpool_576.txt	LTP278	ltpFR2	23	16	PORCH	1106	n/a	n/a	0	0	0
3612.05	n/a	REC_WORD	1806025	wordpools/wasnorm_wordpool_576.txt	LTP278	ltpFR2	23	16	DRIVEWAY	500	n/a	n/a	0	0	0
3613.5	n/a	REC_WORD	1806750	wordpools/wasnorm_wordpool_576.txt	LTP278	ltpFR2	23	16	LIGHT	-1	n/a	n/a	0	0	0
3683.694	n/a	REST_REWET	1841847	n/a	LTP278	ltpFR2	23	16	n/a	n/a	n/a	n/a	0	0	0
4433.128	n/a	DISTRACTOR	2216564	n/a	LTP278	ltpFR2	23	17	n/a	n/a	n/a	n/a	0	0	0
4433.13	n/a	START	2216565	n/a	LTP278	ltpFR2	23	n/a	n/a	n/a	25	n/a	n/a	n/a	n/a
4433.178	n/a	PROB	2216589	n/a	LTP278	ltpFR2	23	n/a	n/a	n/a	25	16	6	4	5
4435.784	n/a	PROB	2217892	n/a	LTP278	ltpFR2	23	n/a	n/a	n/a	25	17	5	9	3
4438.98	n/a	PROB	2219490	n/a	LTP278	ltpFR2	23	n/a	n/a	n/a	25	20	8	6	6
4440.922	n/a	PROB	2220461	n/a	LTP278	ltpFR2	23	n/a	n/a	n/a	25	19	5	7	7
4442.662	n/a	PROB	2221331	n/a	LTP278	ltpFR2	23	n/a	n/a	n/a	25	12	7	3	2
4444.652	n/a	PROB	2222326	n/a	LTP278	ltpFR2	23	n/a	n/a	n/a	25	13	6	6	1
4446.442	n/a	PROB	2223221	n/a	LTP278	ltpFR2	23	n/a	n/a	n/a	25	7	3	1	3
4447.914	n/a	PROB	2223957	n/a	LTP278	ltpFR2	23	n/a	n/a	n/a	25	13	1	6	6
4449.358	n/a	PROB	2224679	n/a	LTP278	ltpFR2	23	n/a	n/a	n/a	25	12	2	6	4
4450.78	n/a	PROB	2225390	n/a	LTP278	ltpFR2	23	n/a	n/a	n/a	25	16	8	4	4
4453.452	n/a	PROB	2226726	n/a	LTP278	ltpFR2	23	n/a	n/a	n/a	25	11	3	5	3
4457.114	n/a	STOP	2228557	n/a	LTP278	ltpFR2	23	n/a	n/a	n/a	25	n/a	n/a	n/a	n/a
4458.242	n/a	WORD	2229121	wordpools/wasnorm_wordpool_576.txt	LTP278	ltpFR2	23	17	CATCHER	258	n/a	n/a	0	0	0
4460.898	n/a	WORD	2230449	wordpools/wasnorm_wordpool_576.txt	LTP278	ltpFR2	23	17	PRIEST	1122	n/a	n/a	0	0	0
4463.658	n/a	WORD	2231829	wordpools/wasnorm_wordpool_576.txt	LTP278	ltpFR2	23	17	JOINT	758	n/a	n/a	0	0	0
4466.122	n/a	WORD	2233061	wordpools/wasnorm_wordpool_576.txt	LTP278	ltpFR2	23	17	LAKE	796	n/a	n/a	0	0	0
4468.75	n/a	WORD	2234375	wordpools/wasnorm_wordpool_576.txt	LTP278	ltpFR2	23	17	COLLEGE	346	n/a	n/a	0	0	0
4471.242	n/a	WORD	2235621	wordpools/wasnorm_wordpool_576.txt	LTP278	ltpFR2	23	17	COCKTAIL	338	n/a	n/a	0	0	0
4474.046	n/a	WORD	2237023	wordpools/wasnorm_wordpool_576.txt	LTP278	ltpFR2	23	17	CARPET	247	n/a	n/a	0	0	0
4476.578	n/a	WORD	2238289	wordpools/wasnorm_wordpool_576.txt	LTP278	ltpFR2	23	17	DASHBOARD	441	n/a	n/a	0	0	0
4479.218	n/a	WORD	2239609	wordpools/wasnorm_wordpool_576.txt	LTP278	ltpFR2	23	17	KLEENEX	782	n/a	n/a	0	0	0
4481.882	n/a	WORD	2240941	wordpools/wasnorm_wordpool_576.txt	LTP278	ltpFR2	23	17	HOUND	724	n/a	n/a	0	0	0
4484.426	n/a	WORD	2242213	wordpools/wasnorm_wordpool_576.txt	LTP278	ltpFR2	23	17	LOUNGE	845	n/a	n/a	0	0	0
4487.068	n/a	WORD	2243534	wordpools/wasnorm_wordpool_576.txt	LTP278	ltpFR2	23	17	RATTLE	1170	n/a	n/a	0	0	0
4489.862	n/a	WORD	2244931	wordpools/wasnorm_wordpool_576.txt	LTP278	ltpFR2	23	17	POISON	1096	n/a	n/a	0	0	0
4492.4	n/a	WORD	2246200	wordpools/wasnorm_wordpool_576.txt	LTP278	ltpFR2	23	17	PENCIL	1042	n/a	n/a	0	0	0
4494.86	n/a	WORD	2247430	wordpools/wasnorm_wordpool_576.txt	LTP278	ltpFR2	23	17	PLANET	1082	n/a	n/a	0	0	0
4497.426	n/a	WORD	2248713	wordpools/wasnorm_wordpool_576.txt	LTP278	ltpFR2	23	17	HAWK	692	n/a	n/a	0	0	0
4500.198	n/a	WORD	2250099	wordpools/wasnorm_wordpool_576.txt	LTP278	ltpFR2	23	17	SEAGULL	1261	n/a	n/a	0	0	0
4502.946	n/a	WORD	2251473	wordpools/wasnorm_wordpool_576.txt	LTP278	ltpFR2	23	17	CONTRACT	368	n/a	n/a	0	0	0
4505.64	n/a	WORD	2252820	wordpools/wasnorm_wordpool_576.txt	LTP278	ltpFR2	23	17	THIMBLE	1458	n/a	n/a	0	0	0
4508.3	n/a	WORD	2254150	wordpools/wasnorm_wordpool_576.txt	LTP278	ltpFR2	23	17	TYPIST	1532	n/a	n/a	0	0	0
4511.06	n/a	WORD	2255530	wordpools/wasnorm_wordpool_576.txt	LTP278	ltpFR2	23	17	BRIEFCASE	175	n/a	n/a	0	0	0
4513.872	n/a	WORD	2256936	wordpools/wasnorm_wordpool_576.txt	LTP278	ltpFR2	23	17	RAILROAD	1162	n/a	n/a	0	0	0
4516.432	n/a	WORD	2258216	wordpools/wasnorm_wordpool_576.txt	LTP278	ltpFR2	23	17	MAPLE	866	n/a	n/a	0	0	0
4518.908	n/a	WORD	2259454	wordpools/wasnorm_wordpool_576.txt	LTP278	ltpFR2	23	17	SCOTCH	1251	n/a	n/a	0	0	0
4520.514	n/a	START	2260257	n/a	LTP278	ltpFR2	23	n/a	n/a	n/a	26	n/a	n/a	n/a	n/a
4521.332	n/a	DISTRACTOR	2260666	n/a	LTP278	ltpFR2	23	17	n/a	n/a	n/a	n/a	0	0	0
4521.35	n/a	PROB	2260675	n/a	LTP278	ltpFR2	23	n/a	n/a	n/a	26	17	7	1	9
4526.866	n/a	PROB	2263433	n/a	LTP278	ltpFR2	23	n/a	n/a	n/a	26	8	5	2	1
4528.138	n/a	PROB	2264069	n/a	LTP278	ltpFR2	23	n/a	n/a	n/a	26	18	8	9	1
4530.01	n/a	PROB	2265005	n/a	LTP278	ltpFR2	23	n/a	n/a	n/a	26	4	2	1	1
4531.334	n/a	PROB	2265667	n/a	LTP278	ltpFR2	23	n/a	n/a	n/a	26	7	3	2	2
4533.006	n/a	PROB	2266503	n/a	LTP278	ltpFR2	23	n/a	n/a	n/a	26	19	7	3	9
4534.618	n/a	PROB	2267309	n/a	LTP278	ltpFR2	23	n/a	n/a	n/a	26	13	5	3	5
4536.068	n/a	PROB	2268034	n/a	LTP278	ltpFR2	23	n/a	n/a	n/a	26	25	9	7	9
4538.042	n/a	PROB	2269021	n/a	LTP278	ltpFR2	23	n/a	n/a	n/a	26	14	6	1	7
4539.564	n/a	PROB	2269782	n/a	LTP278	ltpFR2	23	n/a	n/a	n/a	26	13	5	5	3
4540.874	n/a	PROB	2270437	n/a	LTP278	ltpFR2	23	n/a	n/a	n/a	26	17	1	9	5
4542.794	n/a	PROB	2271397	n/a	LTP278	ltpFR2	23	n/a	n/a	n/a	26	19	6	4	9
4544.278	n/a	STOP	2272139	n/a	LTP278	ltpFR2	23	n/a	n/a	n/a	26	n/a	n/a	n/a	n/a
4546.446	n/a	REC_START	2273223	n/a	LTP278	ltpFR2	23	17	n/a	n/a	n/a	n/a	0	0	0
4547.576	n/a	REC_WORD	2273788	wordpools/wasnorm_wordpool_576.txt	LTP278	ltpFR2	23	17	RAILROAD	1162	n/a	n/a	0	0	0
4548.46	n/a	REC_WORD	2274230	wordpools/wasnorm_wordpool_576.txt	LTP278	ltpFR2	23	17	BRIEFCASE	175	n/a	n/a	0	0	0
4556.204	n/a	REC_WORD	2278102	wordpools/wasnorm_wordpool_576.txt	LTP278	ltpFR2	23	17	PRIEST	1122	n/a	n/a	0	0	0
4558.49	n/a	REC_WORD	2279245	wordpools/wasnorm_wordpool_576.txt	LTP278	ltpFR2	23	17	CATCHER	258	n/a	n/a	0	0	0
4637.526	n/a	WORD	2318763	wordpools/wasnorm_wordpool_576.txt	LTP278	ltpFR2	23	18	CARTON	251	n/a	n/a	0	0	0
4640.232	n/a	WORD	2320116	wordpools/wasnorm_wordpool_576.txt	LTP278	ltpFR2	23	18	PORPOISE	1109	n/a	n/a	0	0	0
4642.944	n/a	WORD	2321472	wordpools/wasnorm_wordpool_576.txt	LTP278	ltpFR2	23	18	DUST	508	n/a	n/a	0	0	0
4645.704	n/a	WORD	2322852	wordpools/wasnorm_wordpool_576.txt	LTP278	ltpFR2	23	18	PUDDLE	1140	n/a	n/a	0	0	0
4648.502	n/a	WORD	2324251	wordpools/wasnorm_wordpool_576.txt	LTP278	ltpFR2	23	18	STABLE	1363	n/a	n/a	0	0	0
4651.112	n/a	WORD	2325556	wordpools/wasnorm_wordpool_576.txt	LTP278	ltpFR2	23	18	TURTLE	1522	n/a	n/a	0	0	0
4653.706	n/a	WORD	2326853	wordpools/wasnorm_wordpool_576.txt	LTP278	ltpFR2	23	18	CLAM	315	n/a	n/a	0	0	0
4656.432	n/a	WORD	2328216	wordpools/wasnorm_wordpool_576.txt	LTP278	ltpFR2	23	18	ROBBER	1197	n/a	n/a	0	0	0
4658.976	n/a	WORD	2329488	wordpools/wasnorm_wordpool_576.txt	LTP278	ltpFR2	23	18	SKIRT	1319	n/a	n/a	0	0	0
4661.57	n/a	WORD	2330785	wordpools/wasnorm_wordpool_576.txt	LTP278	ltpFR2	23	18	WORLD	1622	n/a	n/a	0	0	0
4664.246	n/a	WORD	2332123	wordpools/wasnorm_wordpool_576.txt	LTP278	ltpFR2	23	18	SKETCH	1315	n/a	n/a	0	0	0
4667.006	n/a	WORD	2333503	wordpools/wasnorm_wordpool_576.txt	LTP278	ltpFR2	23	18	DRAWING	494	n/a	n/a	0	0	0
4669.668	n/a	WORD	2334834	wordpools/wasnorm_wordpool_576.txt	LTP278	ltpFR2	23	18	GRASS	655	n/a	n/a	0	0	0
4672.142	n/a	WORD	2336071	wordpools/wasnorm_wordpool_576.txt	LTP278	ltpFR2	23	18	PLUM	1090	n/a	n/a	0	0	0
4674.654	n/a	WORD	2337327	wordpools/wasnorm_wordpool_576.txt	LTP278	ltpFR2	23	18	SHELF	1280	n/a	n/a	0	0	0
4677.34	n/a	WORD	2338670	wordpools/wasnorm_wordpool_576.txt	LTP278	ltpFR2	23	18	SHEARS	1276	n/a	n/a	0	0	0
4680.09	n/a	WORD	2340045	wordpools/wasnorm_wordpool_576.txt	LTP278	ltpFR2	23	18	PEANUT	1032	n/a	n/a	0	0	0
4682.65	n/a	WORD	2341325	wordpools/wasnorm_wordpool_576.txt	LTP278	ltpFR2	23	18	PERMIT	1051	n/a	n/a	0	0	0
4685.126	n/a	WORD	2342563	wordpools/wasnorm_wordpool_576.txt	LTP278	ltpFR2	23	18	ULCER	1533	n/a	n/a	0	0	0
4687.786	n/a	WORD	2343893	wordpools/wasnorm_wordpool_576.txt	LTP278	ltpFR2	23	18	GLOBE	641	n/a	n/a	0	0	0
4690.596	n/a	WORD	2345298	wordpools/wasnorm_wordpool_576.txt	LTP278	ltpFR2	23	18	LACE	792	n/a	n/a	0	0	0
4693.356	n/a	WORD	2346678	wordpools/wasnorm_wordpool_576.txt	LTP278	ltpFR2	23	18	CRUTCH	417	n/a	n/a	0	0	0
4695.984	n/a	WORD	2347992	wordpools/wasnorm_wordpool_576.txt	LTP278	ltpFR2	23	18	MONKEY	911	n/a	n/a	0	0	0
4698.762	n/a	WORD	2349381	wordpools/wasnorm_wordpool_576.txt	LTP278	ltpFR2	23	18	WAX	1597	n/a	n/a	0	0	0
4700.38	n/a	START	2350190	n/a	LTP278	ltpFR2	23	n/a	n/a	n/a	27	n/a	n/a	n/a	n/a
4701.232	n/a	DISTRACTOR	2350616	n/a	LTP278	ltpFR2	23	18	n/a	n/a	n/a	n/a	0	0	0
4701.25	n/a	PROB	2350625	n/a	LTP278	ltpFR2	23	n/a	n/a	n/a	27	9	2	3	4
4703.764	n/a	PROB	2351882	n/a	LTP278	ltpFR2	23	n/a	n/a	n/a	27	11	5	1	5
4707.692	n/a	PROB	2353846	n/a	LTP278	ltpFR2	23	n/a	n/a	n/a	27	14	9	3	2
4709.754	n/a	PROB	2354877	n/a	LTP278	ltpFR2	23	n/a	n/a	n/a	27	18	8	2	8
4711.81	n/a	PROB	2355905	n/a	LTP278	ltpFR2	23	n/a	n/a	n/a	27	17	8	7	2
4713.396	n/a	PROB	2356698	n/a	LTP278	ltpFR2	23	n/a	n/a	n/a	27	12	5	5	2
4714.652	n/a	PROB	2357326	n/a	LTP278	ltpFR2	23	n/a	n/a	n/a	27	13	3	3	7
4715.972	n/a	PROB	2357986	n/a	LTP278	ltpFR2	23	n/a	n/a	n/a	27	19	4	6	9
4717.378	n/a	PROB	2358689	n/a	LTP278	ltpFR2	23	n/a	n/a	n/a	27	14	3	3	8
4719.306	n/a	PROB	2359653	n/a	LTP278	ltpFR2	23	n/a	n/a	n/a	27	10	6	1	3
4720.674	n/a	PROB	2360337	n/a	LTP278	ltpFR2	23	n/a	n/a	n/a	27	14	6	2	6
4724.38	n/a	STOP	2362190	n/a	LTP278	ltpFR2	23	n/a	n/a	n/a	27	n/a	n/a	n/a	n/a
4726.278	n/a	REC_START	2363139	n/a	LTP278	ltpFR2	23	18	n/a	n/a	n/a	n/a	0	0	0
4730.088	n/a	REC_WORD	2365044	wordpools/wasnorm_wordpool_576.txt	LTP278	ltpFR2	23	18	CARTON	251	n/a	n/a	0	0	0
4732.658	n/a	REC_WORD	2366329	wordpools/wasnorm_wordpool_576.txt	LTP278	ltpFR2	23	18	LACE	792	n/a	n/a	0	0	0
4734.136	n/a	REC_WORD	2367068	wordpools/wasnorm_wordpool_576.txt	LTP278	ltpFR2	23	18	FRONT	-1	n/a	n/a	0	0	0
4817.314	n/a	DISTRACTOR	2408657	n/a	LTP278	ltpFR2	23	19	n/a	n/a	n/a	n/a	0	0	0
4817.314	n/a	START	2408657	n/a	LTP278	ltpFR2	23	n/a	n/a	n/a	28	n/a	n/a	n/a	n/a
4817.364	n/a	PROB	2408682	n/a	LTP278	ltpFR2	23	n/a	n/a	n/a	28	5	1	3	1
4820.61	n/a	PROB	2410305	n/a	LTP278	ltpFR2	23	n/a	n/a	n/a	28	16	6	4	6
4822.648	n/a	PROB	2411324	n/a	LTP278	ltpFR2	23	n/a	n/a	n/a	28	21	6	9	6
4824.352	n/a	PROB	2412176	n/a	LTP278	ltpFR2	23	n/a	n/a	n/a	28	8	4	3	4
4825.846	n/a	PROB	2412923	n/a	LTP278	ltpFR2	23	n/a	n/a	n/a	28	19	4	8	7
4828.14	n/a	PROB	2414070	n/a	LTP278	ltpFR2	23	n/a	n/a	n/a	28	11	1	6	4
4829.406	n/a	PROB	2414703	n/a	LTP278	ltpFR2	23	n/a	n/a	n/a	28	12	7	4	1
4830.762	n/a	PROB	2415381	n/a	LTP278	ltpFR2	23	n/a	n/a	n/a	28	8	3	3	2
4832.138	n/a	PROB	2416069	n/a	LTP278	ltpFR2	23	n/a	n/a	n/a	28	11	3	1	7
4833.504	n/a	PROB	2416752	n/a	LTP278	ltpFR2	23	n/a	n/a	n/a	28	13	3	4	6
4835.412	n/a	PROB	2417706	n/a	LTP278	ltpFR2	23	n/a	n/a	n/a	28	12	7	2	3
4837.218	n/a	PROB	2418609	n/a	LTP278	ltpFR2	23	n/a	n/a	n/a	28	15	4	9	2
4839.752	n/a	STOP	2419876	n/a	LTP278	ltpFR2	23	n/a	n/a	n/a	28	n/a	n/a	n/a	n/a
4842.354	n/a	WORD	2421177	wordpools/wasnorm_wordpool_576.txt	LTP278	ltpFR2	23	19	CANDY	230	n/a	n/a	0	0	0
4845.17	n/a	WORD	2422585	wordpools/wasnorm_wordpool_576.txt	LTP278	ltpFR2	23	19	APPLE	33	n/a	n/a	0	0	0
4847.932	n/a	WORD	2423966	wordpools/wasnorm_wordpool_576.txt	LTP278	ltpFR2	23	19	FRIAR	605	n/a	n/a	0	0	0
4850.66	n/a	WORD	2425330	wordpools/wasnorm_wordpool_576.txt	LTP278	ltpFR2	23	19	PRINCESS	1125	n/a	n/a	0	0	0
4853.146	n/a	WORD	2426573	wordpools/wasnorm_wordpool_576.txt	LTP278	ltpFR2	23	19	CRICKET	408	n/a	n/a	0	0	0
4855.746	n/a	WORD	2427873	wordpools/wasnorm_wordpool_576.txt	LTP278	ltpFR2	23	19	GLASS	639	n/a	n/a	0	0	0
4858.488	n/a	WORD	2429244	wordpools/wasnorm_wordpool_576.txt	LTP278	ltpFR2	23	19	PALACE	1006	n/a	n/a	0	0	0
4861.148	n/a	WORD	2430574	wordpools/wasnorm_wordpool_576.txt	LTP278	ltpFR2	23	19	SOCKET	1340	n/a	n/a	0	0	0
4863.876	n/a	WORD	2431938	wordpools/wasnorm_wordpool_576.txt	LTP278	ltpFR2	23	19	MONGOOSE	909	n/a	n/a	0	0	0
4866.314	n/a	WORD	2433157	wordpools/wasnorm_wordpool_576.txt	LTP278	ltpFR2	23	19	ORANGE	980	n/a	n/a	0	0	0
4868.812	n/a	WORD	2434406	wordpools/wasnorm_wordpool_576.txt	LTP278	ltpFR2	23	19	TRENCH	1503	n/a	n/a	0	0	0
4871.366	n/a	WORD	2435683	wordpools/wasnorm_wordpool_576.txt	LTP278	ltpFR2	23	19	CREVICE	405	n/a	n/a	0	0	0
4873.842	n/a	WORD	2436921	wordpools/wasnorm_wordpool_576.txt	LTP278	ltpFR2	23	19	STAPLER	1372	n/a	n/a	0	0	0
4876.574	n/a	WORD	2438287	wordpools/wasnorm_wordpool_576.txt	LTP278	ltpFR2	23	19	FOLDER	588	n/a	n/a	0	0	0
4879.168	n/a	WORD	2439584	wordpools/wasnorm_wordpool_576.txt	LTP278	ltpFR2	23	19	YARD	1630	n/a	n/a	0	0	0
4881.756	n/a	WORD	2440878	wordpools/wasnorm_wordpool_576.txt	LTP278	ltpFR2	23	19	LANDSCAPE	799	n/a	n/a	0	0	0
4884.238	n/a	WORD	2442119	wordpools/wasnorm_wordpool_576.txt	LTP278	ltpFR2	23	19	BRIDE	173	n/a	n/a	0	0	0
4886.864	n/a	WORD	2443432	wordpools/wasnorm_wordpool_576.txt	LTP278	ltpFR2	23	19	MUSTARD	935	n/a	n/a	0	0	0
4889.49	n/a	WORD	2444745	wordpools/wasnorm_wordpool_576.txt	LTP278	ltpFR2	23	19	WINDOW	1611	n/a	n/a	0	0	0
4892.134	n/a	WORD	2446067	wordpools/wasnorm_wordpool_576.txt	LTP278	ltpFR2	23	19	SKUNK	1321	n/a	n/a	0	0	0
4894.844	n/a	WORD	2447422	wordpools/wasnorm_wordpool_576.txt	LTP278	ltpFR2	23	19	PONY	1102	n/a	n/a	0	0	0
4897.55	n/a	WORD	2448775	wordpools/wasnorm_wordpool_576.txt	LTP278	ltpFR2	23	19	DOG	480	n/a	n/a	0	0	0
4900.298	n/a	WORD	2450149	wordpools/wasnorm_wordpool_576.txt	LTP278	ltpFR2	23	19	ANGEL	22	n/a	n/a	0	0	0
4902.836	n/a	WORD	2451418	wordpools/wasnorm_wordpool_576.txt	LTP278	ltpFR2	23	19	FLANNEL	574	n/a	n/a	0	0	0
4904.448	n/a	START	2452224	n/a	LTP278	ltpFR2	23	n/a	n/a	n/a	29	n/a	n/a	n/a	n/a
4905.328	n/a	DISTRACTOR	2452664	n/a	LTP278	ltpFR2	23	19	n/a	n/a	n/a	n/a	0	0	0
4905.352	n/a	PROB	2452676	n/a	LTP278	ltpFR2	23	n/a	n/a	n/a	29	19	7	9	4
4907.99	n/a	PROB	2453995	n/a	LTP278	ltpFR2	23	n/a	n/a	n/a	29	11	3	1	7
4909.312	n/a	PROB	2454656	n/a	LTP278	ltpFR2	23	n/a	n/a	n/a	29	13	2	5	6
4913.728	n/a	PROB	2456864	n/a	LTP278	ltpFR2	23	n/a	n/a	n/a	29	16	4	4	8
4915.334	n/a	PROB	2457667	n/a	LTP278	ltpFR2	23	n/a	n/a	n/a	29	20	8	7	5
4918.244	n/a	PROB	2459122	n/a	LTP278	ltpFR2	23	n/a	n/a	n/a	29	17	3	9	5
4926.972	n/a	STOP	2463486	n/a	LTP278	ltpFR2	23	n/a	n/a	n/a	29	n/a	n/a	n/a	n/a
4930.264	n/a	REC_START	2465132	n/a	LTP278	ltpFR2	23	19	n/a	n/a	n/a	n/a	0	0	0
4936.76	n/a	REC_WORD	2468380	wordpools/wasnorm_wordpool_576.txt	LTP278	ltpFR2	23	19	CREVICE	405	n/a	n/a	0	0	0
4937.696	n/a	REC_WORD	2468848	wordpools/wasnorm_wordpool_576.txt	LTP278	ltpFR2	23	19	MONGOOSE	909	n/a	n/a	0	0	0
4938.78	n/a	REC_WORD	2469390	wordpools/wasnorm_wordpool_576.txt	LTP278	ltpFR2	23	19	TRENCH	1503	n/a	n/a	0	0	0
5057.45	n/a	DISTRACTOR	2528725	n/a	LTP278	ltpFR2	23	20	n/a	n/a	n/a	n/a	0	0	0
5057.45	n/a	START	2528725	n/a	LTP278	ltpFR2	23	n/a	n/a	n/a	30	n/a	n/a	n/a	n/a
5057.5	n/a	PROB	2528750	n/a	LTP278	ltpFR2	23	n/a	n/a	n/a	30	17	5	3	9
5059.738	n/a	PROB	2529869	n/a	LTP278	ltpFR2	23	n/a	n/a	n/a	30	6	4	1	1
5061.074	n/a	PROB	2530537	n/a	LTP278	ltpFR2	23	n/a	n/a	n/a	30	13	5	9	3
5063.384	n/a	PROB	2531692	n/a	LTP278	ltpFR2	23	n/a	n/a	n/a	30	13	9	6	8
5066.798	n/a	PROB	2533399	n/a	LTP278	ltpFR2	23	n/a	n/a	n/a	30	11	7	2	2
5069.09	n/a	PROB	2534545	n/a	LTP278	ltpFR2	23	n/a	n/a	n/a	30	15	6	4	5
5070.328	n/a	PROB	2535164	n/a	LTP278	ltpFR2	23	n/a	n/a	n/a	30	20	7	9	4
5072.184	n/a	PROB	2536092	n/a	LTP278	ltpFR2	23	n/a	n/a	n/a	30	8	5	1	2
5074.944	n/a	PROB	2537472	n/a	LTP278	ltpFR2	23	n/a	n/a	n/a	30	16	1	9	5
5081.45	n/a	STOP	2540725	n/a	LTP278	ltpFR2	23	n/a	n/a	n/a	30	n/a	n/a	n/a	n/a
5082.276	n/a	WORD	2541138	wordpools/wasnorm_wordpool_576.txt	LTP278	ltpFR2	23	20	TORCH	1484	n/a	n/a	0	0	0
5084.732	n/a	WORD	2542366	wordpools/wasnorm_wordpool_576.txt	LTP278	ltpFR2	23	20	PROTON	1132	n/a	n/a	0	0	0
5087.23	n/a	WORD	2543615	wordpools/wasnorm_wordpool_576.txt	LTP278	ltpFR2	23	20	GOBLIN	645	n/a	n/a	0	0	0
5090.04	n/a	WORD	2545020	wordpools/wasnorm_wordpool_576.txt	LTP278	ltpFR2	23	20	TEACHER	1440	n/a	n/a	0	0	0
5092.516	n/a	WORD	2546258	wordpools/wasnorm_wordpool_576.txt	LTP278	ltpFR2	23	20	SOFA	1342	n/a	n/a	0	0	0
5095.238	n/a	WORD	2547619	wordpools/wasnorm_wordpool_576.txt	LTP278	ltpFR2	23	20	CEILING	265	n/a	n/a	0	0	0
5097.966	n/a	WORD	2548983	wordpools/wasnorm_wordpool_576.txt	LTP278	ltpFR2	23	20	RUG	1215	n/a	n/a	0	0	0
5100.564	n/a	WORD	2550282	wordpools/wasnorm_wordpool_576.txt	LTP278	ltpFR2	23	20	PENGUIN	1044	n/a	n/a	0	0	0
5103.286	n/a	WORD	2551643	wordpools/wasnorm_wordpool_576.txt	LTP278	ltpFR2	23	20	SODA	1341	n/a	n/a	0	0	0
5105.802	n/a	WORD	2552901	wordpools/wasnorm_wordpool_576.txt	LTP278	ltpFR2	23	20	BALLOON	75	n/a	n/a	0	0	0
5108.36	n/a	WORD	2554180	wordpools/wasnorm_wordpool_576.txt	LTP278	ltpFR2	23	20	BARLEY	88	n/a	n/a	0	0	0
5111.066	n/a	WORD	2555533	wordpools/wasnorm_wordpool_576.txt	LTP278	ltpFR2	23	20	DESK	452	n/a	n/a	0	0	0
5113.732	n/a	WORD	2556866	wordpools/wasnorm_wordpool_576.txt	LTP278	ltpFR2	23	20	CHAPEL	280	n/a	n/a	0	0	0
5116.286	n/a	WORD	2558143	wordpools/wasnorm_wordpool_576.txt	LTP278	ltpFR2	23	20	ANCHOR	21	n/a	n/a	0	0	0
5118.968	n/a	WORD	2559484	wordpools/wasnorm_wordpool_576.txt	LTP278	ltpFR2	23	20	PUMPKIN	1142	n/a	n/a	0	0	0
5121.46	n/a	WORD	2560730	wordpools/wasnorm_wordpool_576.txt	LTP278	ltpFR2	23	20	HUMAN	726	n/a	n/a	0	0	0
5124.15	n/a	WORD	2562075	wordpools/wasnorm_wordpool_576.txt	LTP278	ltpFR2	23	20	JACKET	747	n/a	n/a	0	0	0
5126.832	n/a	WORD	2563416	wordpools/wasnorm_wordpool_576.txt	LTP278	ltpFR2	23	20	ONION	977	n/a	n/a	0	0	0
5129.39	n/a	WORD	2564695	wordpools/wasnorm_wordpool_576.txt	LTP278	ltpFR2	23	20	CHARCOAL	281	n/a	n/a	0	0	0
5132.068	n/a	WORD	2566034	wordpools/wasnorm_wordpool_576.txt	LTP278	ltpFR2	23	20	PITCHFORK	1078	n/a	n/a	0	0	0
5134.494	n/a	WORD	2567247	wordpools/wasnorm_wordpool_576.txt	LTP278	ltpFR2	23	20	SWEATER	1419	n/a	n/a	0	0	0
5136.92	n/a	WORD	2568460	wordpools/wasnorm_wordpool_576.txt	LTP278	ltpFR2	23	20	LOBSTER	837	n/a	n/a	0	0	0
5139.512	n/a	WORD	2569756	wordpools/wasnorm_wordpool_576.txt	LTP278	ltpFR2	23	20	PEOPLE	1046	n/a	n/a	0	0	0
5142.056	n/a	WORD	2571028	wordpools/wasnorm_wordpool_576.txt	LTP278	ltpFR2	23	20	SUBURB	1399	n/a	n/a	0	0	0
5143.664	n/a	START	2571832	n/a	LTP278	ltpFR2	23	n/a	n/a	n/a	31	n/a	n/a	n/a	n/a
5144.856	n/a	DISTRACTOR	2572428	n/a	LTP278	ltpFR2	23	20	n/a	n/a	n/a	n/a	0	0	0
5144.866	n/a	PROB	2572433	n/a	LTP278	ltpFR2	23	n/a	n/a	n/a	31	8	3	1	4
5146.534	n/a	PROB	2573267	n/a	LTP278	ltpFR2	23	n/a	n/a	n/a	31	23	6	8	9
5148.458	n/a	PROB	2574229	n/a	LTP278	ltpFR2	23	n/a	n/a	n/a	31	14	7	2	5
5151.844	n/a	PROB	2575922	n/a	LTP278	ltpFR2	23	n/a	n/a	n/a	31	21	8	6	7
5154.18	n/a	PROB	2577090	n/a	LTP278	ltpFR2	23	n/a	n/a	n/a	31	11	9	1	1
5155.658	n/a	PROB	2577829	n/a	LTP278	ltpFR2	23	n/a	n/a	n/a	31	21	6	7	8
5163.572	n/a	PROB	2581786	n/a	LTP278	ltpFR2	23	n/a	n/a	n/a	31	13	2	7	4
5167.664	n/a	STOP	2583832	n/a	LTP278	ltpFR2	23	n/a	n/a	n/a	31	n/a	n/a	n/a	n/a
5169.428	n/a	REC_START	2584714	n/a	LTP278	ltpFR2	23	20	n/a	n/a	n/a	n/a	0	0	0
5184.924	n/a	REC_WORD	2592462	wordpools/wasnorm_wordpool_576.txt	LTP278	ltpFR2	23	20	NEIGHBOR	-1	n/a	n/a	0	0	0
5185.818	n/a	REC_WORD	2592909	wordpools/wasnorm_wordpool_576.txt	LTP278	ltpFR2	23	20	ALIEN	-1	n/a	n/a	0	0	0
5189.842	n/a	REC_WORD	2594921	wordpools/wasnorm_wordpool_576.txt	LTP278	ltpFR2	23	20	SUBURB	1399	n/a	n/a	0	0	0
5195.79	n/a	REC_WORD	2597895	wordpools/wasnorm_wordpool_576.txt	LTP278	ltpFR2	23	20	LOBSTER	837	n/a	n/a	0	0	0
5196.384	n/a	REC_WORD	2598192	wordpools/wasnorm_wordpool_576.txt	LTP278	ltpFR2	23	20	PEOPLE	1046	n/a	n/a	0	0	0
5260.476	n/a	WORD	2630238	wordpools/wasnorm_wordpool_576.txt	LTP278	ltpFR2	23	21	FIREMAN	569	n/a	n/a	0	0	0
5263.152	n/a	WORD	2631576	wordpools/wasnorm_wordpool_576.txt	LTP278	ltpFR2	23	21	RODENT	1204	n/a	n/a	0	0	0
5265.674	n/a	WORD	2632837	wordpools/wasnorm_wordpool_576.txt	LTP278	ltpFR2	23	21	CASTLE	256	n/a	n/a	0	0	0
5268.5	n/a	WORD	2634250	wordpools/wasnorm_wordpool_576.txt	LTP278	ltpFR2	23	21	RIFLE	1192	n/a	n/a	0	0	0
5271.116	n/a	WORD	2635558	wordpools/wasnorm_wordpool_576.txt	LTP278	ltpFR2	23	21	CANAL	226	n/a	n/a	0	0	0
5273.554	n/a	WORD	2636777	wordpools/wasnorm_wordpool_576.txt	LTP278	ltpFR2	23	21	SKILLET	1317	n/a	n/a	0	0	0
5275.98	n/a	WORD	2637990	wordpools/wasnorm_wordpool_576.txt	LTP278	ltpFR2	23	21	FRAME	600	n/a	n/a	0	0	0
5278.724	n/a	WORD	2639362	wordpools/wasnorm_wordpool_576.txt	LTP278	ltpFR2	23	21	DENIM	446	n/a	n/a	0	0	0
5281.204	n/a	WORD	2640602	wordpools/wasnorm_wordpool_576.txt	LTP278	ltpFR2	23	21	LOFT	840	n/a	n/a	0	0	0
5283.776	n/a	WORD	2641888	wordpools/wasnorm_wordpool_576.txt	LTP278	ltpFR2	23	21	COOKIE	374	n/a	n/a	0	0	0
5286.324	n/a	WORD	2643162	wordpools/wasnorm_wordpool_576.txt	LTP278	ltpFR2	23	21	SUGAR	1401	n/a	n/a	0	0	0
5288.75	n/a	WORD	2644375	wordpools/wasnorm_wordpool_576.txt	LTP278	ltpFR2	23	21	GRIZZLY	662	n/a	n/a	0	0	0
5291.356	n/a	WORD	2645678	wordpools/wasnorm_wordpool_576.txt	LTP278	ltpFR2	23	21	PICTURE	1061	n/a	n/a	0	0	0
5294.016	n/a	WORD	2647008	wordpools/wasnorm_wordpool_576.txt	LTP278	ltpFR2	23	21	SCHOOL	1248	n/a	n/a	0	0	0
5296.524	n/a	WORD	2648262	wordpools/wasnorm_wordpool_576.txt	LTP278	ltpFR2	23	21	CANVAS	234	n/a	n/a	0	0	0
5299.256	n/a	WORD	2649628	wordpools/wasnorm_wordpool_576.txt	LTP278	ltpFR2	23	21	LAUNDRY	803	n/a	n/a	0	0	0
5301.7	n/a	WORD	2650850	wordpools/wasnorm_wordpool_576.txt	LTP278	ltpFR2	23	21	ATTIRE	57	n/a	n/a	0	0	0
5304.392	n/a	WORD	2652196	wordpools/wasnorm_wordpool_576.txt	LTP278	ltpFR2	23	21	DRESSER	496	n/a	n/a	0	0	0
5306.898	n/a	WORD	2653449	wordpools/wasnorm_wordpool_576.txt	LTP278	ltpFR2	23	21	GANGSTER	620	n/a	n/a	0	0	0
5309.512	n/a	WORD	2654756	wordpools/wasnorm_wordpool_576.txt	LTP278	ltpFR2	23	21	MANSION	864	n/a	n/a	0	0	0
5312.006	n/a	WORD	2656003	wordpools/wasnorm_wordpool_576.txt	LTP278	ltpFR2	23	21	CACTUS	215	n/a	n/a	0	0	0
5314.482	n/a	WORD	2657241	wordpools/wasnorm_wordpool_576.txt	LTP278	ltpFR2	23	21	WALRUS	1585	n/a	n/a	0	0	0
5317.024	n/a	WORD	2658512	wordpools/wasnorm_wordpool_576.txt	LTP278	ltpFR2	23	21	TOOTHBRUSH	1482	n/a	n/a	0	0	0
5319.58	n/a	WORD	2659790	wordpools/wasnorm_wordpool_576.txt	LTP278	ltpFR2	23	21	HIGHWAY	707	n/a	n/a	0	0	0
5321.19	n/a	START	2660595	n/a	LTP278	ltpFR2	23	n/a	n/a	n/a	32	n/a	n/a	n/a	n/a
5322.036	n/a	DISTRACTOR	2661018	n/a	LTP278	ltpFR2	23	21	n/a	n/a	n/a	n/a	0	0	0
5322.044	n/a	PROB	2661022	n/a	LTP278	ltpFR2	23	n/a	n/a	n/a	32	20	2	9	9
5323.918	n/a	PROB	2661959	n/a	LTP278	ltpFR2	23	n/a	n/a	n/a	32	16	9	5	2
5326.958	n/a	PROB	2663479	n/a	LTP278	ltpFR2	23	n/a	n/a	n/a	32	9	3	2	4
5329.786	n/a	PROB	2664893	n/a	LTP278	ltpFR2	23	n/a	n/a	n/a	32	14	6	1	7
5331.308	n/a	PROB	2665654	n/a	LTP278	ltpFR2	23	n/a	n/a	n/a	32	25	9	9	7
5332.948	n/a	PROB	2666474	n/a	LTP278	ltpFR2	23	n/a	n/a	n/a	32	16	5	4	7
5334.71	n/a	PROB	2667355	n/a	LTP278	ltpFR2	23	n/a	n/a	n/a	32	15	1	9	5
5337.012	n/a	PROB	2668506	n/a	LTP278	ltpFR2	23	n/a	n/a	n/a	32	16	8	7	1
5339.344	n/a	PROB	2669672	n/a	LTP278	ltpFR2	23	n/a	n/a	n/a	32	19	4	6	9
5340.962	n/a	PROB	2670481	n/a	LTP278	ltpFR2	23	n/a	n/a	n/a	32	21	8	7	6
5344.362	n/a	STOP	2672181	n/a	LTP278	ltpFR2	23	n/a	n/a	n/a	32	n/a	n/a	n/a	n/a
5347.12	n/a	REC_START	2673560	n/a	LTP278	ltpFR2	23	21	n/a	n/a	n/a	n/a	0	0	0
5348.702	n/a	REC_WORD	2674351	wordpools/wasnorm_wordpool_576.txt	LTP278	ltpFR2	23	21	FIREMAN	569	n/a	n/a	0	0	0
5349.636	n/a	REC_WORD	2674818	wordpools/wasnorm_wordpool_576.txt	LTP278	ltpFR2	23	21	MOUSE	925	n/a	n/a	0	0	0
5350.724	n/a	REC_WORD	2675362	wordpools/wasnorm_wordpool_576.txt	LTP278	ltpFR2	23	21	CASTLE	256	n/a	n/a	0	0	0
5352.848	n/a	REC_WORD	2676424	wordpools/wasnorm_wordpool_576.txt	LTP278	ltpFR2	23	21	RIFLE	1192	n/a	n/a	0	0	0
5354.432	n/a	REC_WORD	2677216	wordpools/wasnorm_wordpool_576.txt	LTP278	ltpFR2	23	21	CANAL	226	n/a	n/a	0	0	0
5438.17	n/a	DISTRACTOR	2719085	n/a	LTP278	ltpFR2	23	22	n/a	n/a	n/a	n/a	0	0	0
5438.17	n/a	START	2719085	n/a	LTP278	ltpFR2	23	n/a	n/a	n/a	33	n/a	n/a	n/a	n/a
5438.22	n/a	PROB	2719110	n/a	LTP278	ltpFR2	23	n/a	n/a	n/a	33	16	3	6	7
5440.576	n/a	PROB	2720288	n/a	LTP278	ltpFR2	23	n/a	n/a	n/a	33	11	8	2	1
5441.782	n/a	PROB	2720891	n/a	LTP278	ltpFR2	23	n/a	n/a	n/a	33	15	3	3	9
5447.742	n/a	PROB	2723871	n/a	LTP278	ltpFR2	23	n/a	n/a	n/a	33	22	9	9	4
5458.042	n/a	PROB	2729021	n/a	LTP278	ltpFR2	23	n/a	n/a	n/a	33	17	1	8	8
5462.172	n/a	STOP	2731086	n/a	LTP278	ltpFR2	23	n/a	n/a	n/a	33	n/a	n/a	n/a	n/a
5463.212	n/a	WORD	2731606	wordpools/wasnorm_wordpool_576.txt	LTP278	ltpFR2	23	22	VILLAIN	1567	n/a	n/a	0	0	0
5466.006	n/a	WORD	2733003	wordpools/wasnorm_wordpool_576.txt	LTP278	ltpFR2	23	22	MARKER	870	n/a	n/a	0	0	0
5468.588	n/a	WORD	2734294	wordpools/wasnorm_wordpool_576.txt	LTP278	ltpFR2	23	22	PIGMENT	1066	n/a	n/a	0	0	0
5471.158	n/a	WORD	2735579	wordpools/wasnorm_wordpool_576.txt	LTP278	ltpFR2	23	22	STAPLE	1371	n/a	n/a	0	0	0
5473.94	n/a	WORD	2736970	wordpools/wasnorm_wordpool_576.txt	LTP278	ltpFR2	23	22	DAGGER	434	n/a	n/a	0	0	0
5476.618	n/a	WORD	2738309	wordpools/wasnorm_wordpool_576.txt	LTP278	ltpFR2	23	22	RABBIT	1152	n/a	n/a	0	0	0
5479.106	n/a	WORD	2739553	wordpools/wasnorm_wordpool_576.txt	LTP278	ltpFR2	23	22	LETTUCE	814	n/a	n/a	0	0	0
5481.554	n/a	WORD	2740777	wordpools/wasnorm_wordpool_576.txt	LTP278	ltpFR2	23	22	STAIRS	1367	n/a	n/a	0	0	0
5484.326	n/a	WORD	2742163	wordpools/wasnorm_wordpool_576.txt	LTP278	ltpFR2	23	22	FLUTE	585	n/a	n/a	0	0	0
5486.936	n/a	WORD	2743468	wordpools/wasnorm_wordpool_576.txt	LTP278	ltpFR2	23	22	KNUCKLE	789	n/a	n/a	0	0	0
5489.686	n/a	WORD	2744843	wordpools/wasnorm_wordpool_576.txt	LTP278	ltpFR2	23	22	CONVENT	370	n/a	n/a	0	0	0
5492.126	n/a	WORD	2746063	wordpools/wasnorm_wordpool_576.txt	LTP278	ltpFR2	23	22	TOILET	1475	n/a	n/a	0	0	0
5494.9	n/a	WORD	2747450	wordpools/wasnorm_wordpool_576.txt	LTP278	ltpFR2	23	22	NAPKIN	937	n/a	n/a	0	0	0
5497.582	n/a	WORD	2748791	wordpools/wasnorm_wordpool_576.txt	LTP278	ltpFR2	23	22	TROMBONE	1508	n/a	n/a	0	0	0
5500.32	n/a	WORD	2750160	wordpools/wasnorm_wordpool_576.txt	LTP278	ltpFR2	23	22	PLATE	1086	n/a	n/a	0	0	0
5502.836	n/a	WORD	2751418	wordpools/wasnorm_wordpool_576.txt	LTP278	ltpFR2	23	22	DAISY	435	n/a	n/a	0	0	0
5505.658	n/a	WORD	2752829	wordpools/wasnorm_wordpool_576.txt	LTP278	ltpFR2	23	22	JURY	766	n/a	n/a	0	0	0
5508.122	n/a	WORD	2754061	wordpools/wasnorm_wordpool_576.txt	LTP278	ltpFR2	23	22	BEETLE	116	n/a	n/a	0	0	0
5510.732	n/a	WORD	2755366	wordpools/wasnorm_wordpool_576.txt	LTP278	ltpFR2	23	22	TUNNEL	1519	n/a	n/a	0	0	0
5513.208	n/a	WORD	2756604	wordpools/wasnorm_wordpool_576.txt	LTP278	ltpFR2	23	22	LIST	830	n/a	n/a	0	0	0
5515.686	n/a	WORD	2757843	wordpools/wasnorm_wordpool_576.txt	LTP278	ltpFR2	23	22	BODY	145	n/a	n/a	0	0	0
5518.16	n/a	WORD	2759080	wordpools/wasnorm_wordpool_576.txt	LTP278	ltpFR2	23	22	ROOSTER	1209	n/a	n/a	0	0	0
5520.848	n/a	WORD	2760424	wordpools/wasnorm_wordpool_576.txt	LTP278	ltpFR2	23	22	BREAST	171	n/a	n/a	0	0	0
5523.324	n/a	WORD	2761662	wordpools/wasnorm_wordpool_576.txt	LTP278	ltpFR2	23	22	HEART	697	n/a	n/a	0	0	0
5524.936	n/a	START	2762468	n/a	LTP278	ltpFR2	23	n/a	n/a	n/a	34	n/a	n/a	n/a	n/a
5525.922	n/a	DISTRACTOR	2762961	n/a	LTP278	ltpFR2	23	22	n/a	n/a	n/a	n/a	0	0	0
5525.94	n/a	PROB	2762970	n/a	LTP278	ltpFR2	23	n/a	n/a	n/a	34	10	1	1	8
5527.876	n/a	PROB	2763938	n/a	LTP278	ltpFR2	23	n/a	n/a	n/a	34	18	7	3	8
5529.352	n/a	PROB	2764676	n/a	LTP278	ltpFR2	23	n/a	n/a	n/a	34	12	1	2	9
5530.608	n/a	PROB	2765304	n/a	LTP278	ltpFR2	23	n/a	n/a	n/a	34	15	1	6	8
5532.076	n/a	PROB	2766038	n/a	LTP278	ltpFR2	23	n/a	n/a	n/a	34	15	3	4	8
5533.598	n/a	PROB	2766799	n/a	LTP278	ltpFR2	23	n/a	n/a	n/a	34	16	5	4	7
5535.226	n/a	PROB	2767613	n/a	LTP278	ltpFR2	23	n/a	n/a	n/a	34	12	1	7	4
5537.182	n/a	PROB	2768591	n/a	LTP278	ltpFR2	23	n/a	n/a	n/a	34	17	6	4	7
5539.374	n/a	PROB	2769687	n/a	LTP278	ltpFR2	23	n/a	n/a	n/a	34	12	5	4	3
5541.232	n/a	PROB	2770616	n/a	LTP278	ltpFR2	23	n/a	n/a	n/a	34	19	7	6	6
5543.658	n/a	PROB	2771829	n/a	LTP278	ltpFR2	23	n/a	n/a	n/a	34	12	2	1	9
5548.938	n/a	STOP	2774469	n/a	LTP278	ltpFR2	23	n/a	n/a	n/a	34	n/a	n/a	n/a	n/a
5550.732	n/a	REC_START	2775366	n/a	LTP278	ltpFR2	23	22	n/a	n/a	n/a	n/a	0	0	0
5553.802	n/a	REC_WORD	2776901	wordpools/wasnorm_wordpool_576.txt	LTP278	ltpFR2	23	22	CONVENT	370	n/a	n/a	0	0	0
5554.608	n/a	REC_WORD	2777304	wordpools/wasnorm_wordpool_576.txt	LTP278	ltpFR2	23	22	TOILET	1475	n/a	n/a	0	0	0
5641.784	n/a	WORD	2820892	wordpools/wasnorm_wordpool_576.txt	LTP278	ltpFR2	23	23	TWISTER	1530	n/a	n/a	0	0	0
5644.61	n/a	WORD	2822305	wordpools/wasnorm_wordpool_576.txt	LTP278	ltpFR2	23	23	SENATE	1267	n/a	n/a	0	0	0
5647.12	n/a	WORD	2823560	wordpools/wasnorm_wordpool_576.txt	LTP278	ltpFR2	23	23	JAR	750	n/a	n/a	0	0	0
5649.864	n/a	WORD	2824932	wordpools/wasnorm_wordpool_576.txt	LTP278	ltpFR2	23	23	YARN	1631	n/a	n/a	0	0	0
5652.456	n/a	WORD	2826228	wordpools/wasnorm_wordpool_576.txt	LTP278	ltpFR2	23	23	SPOON	1357	n/a	n/a	0	0	0
5655.184	n/a	WORD	2827592	wordpools/wasnorm_wordpool_576.txt	LTP278	ltpFR2	23	23	CROSS	413	n/a	n/a	0	0	0
5657.756	n/a	WORD	2828878	wordpools/wasnorm_wordpool_576.txt	LTP278	ltpFR2	23	23	ROCKET	1202	n/a	n/a	0	0	0
5660.32	n/a	WORD	2830160	wordpools/wasnorm_wordpool_576.txt	LTP278	ltpFR2	23	23	ZIPPER	1636	n/a	n/a	0	0	0
5663.026	n/a	WORD	2831513	wordpools/wasnorm_wordpool_576.txt	LTP278	ltpFR2	23	23	BUILDING	191	n/a	n/a	0	0	0
5665.486	n/a	WORD	2832743	wordpools/wasnorm_wordpool_576.txt	LTP278	ltpFR2	23	23	ROACH	1195	n/a	n/a	0	0	0
5668.234	n/a	WORD	2834117	wordpools/wasnorm_wordpool_576.txt	LTP278	ltpFR2	23	23	POPCORN	1104	n/a	n/a	0	0	0
5670.928	n/a	WORD	2835464	wordpools/wasnorm_wordpool_576.txt	LTP278	ltpFR2	23	23	BLOUSE	139	n/a	n/a	0	0	0
5673.404	n/a	WORD	2836702	wordpools/wasnorm_wordpool_576.txt	LTP278	ltpFR2	23	23	STAKE	1368	n/a	n/a	0	0	0
5676.146	n/a	WORD	2838073	wordpools/wasnorm_wordpool_576.txt	LTP278	ltpFR2	23	23	BEEF	113	n/a	n/a	0	0	0
5678.874	n/a	WORD	2839437	wordpools/wasnorm_wordpool_576.txt	LTP278	ltpFR2	23	23	STREAM	1392	n/a	n/a	0	0	0
5681.464	n/a	WORD	2840732	wordpools/wasnorm_wordpool_576.txt	LTP278	ltpFR2	23	23	MARSH	874	n/a	n/a	0	0	0
5684.062	n/a	WORD	2842031	wordpools/wasnorm_wordpool_576.txt	LTP278	ltpFR2	23	23	SPACE	1345	n/a	n/a	0	0	0
5686.688	n/a	WORD	2843344	wordpools/wasnorm_wordpool_576.txt	LTP278	ltpFR2	23	23	BOULDER	155	n/a	n/a	0	0	0
5689.264	n/a	WORD	2844632	wordpools/wasnorm_wordpool_576.txt	LTP278	ltpFR2	23	23	SOLDIER	1344	n/a	n/a	0	0	0
5691.89	n/a	WORD	2845945	wordpools/wasnorm_wordpool_576.txt	LTP278	ltpFR2	23	23	HEADBAND	696	n/a	n/a	0	0	0
5694.568	n/a	WORD	2847284	wordpools/wasnorm_wordpool_576.txt	LTP278	ltpFR2	23	23	INFANT	737	n/a	n/a	0	0	0
5697.138	n/a	WORD	2848569	wordpools/wasnorm_wordpool_576.txt	LTP278	ltpFR2	23	23	BABY	64	n/a	n/a	0	0	0
5699.854	n/a	WORD	2849927	wordpools/wasnorm_wordpool_576.txt	LTP278	ltpFR2	23	23	CRACKER	398	n/a	n/a	0	0	0
5702.61	n/a	WORD	2851305	wordpools/wasnorm_wordpool_576.txt	LTP278	ltpFR2	23	23	SPICE	1350	n/a	n/a	0	0	0
5704.222	n/a	START	2852111	n/a	LTP278	ltpFR2	23	n/a	n/a	n/a	35	n/a	n/a	n/a	n/a
5705.376	n/a	DISTRACTOR	2852688	n/a	LTP278	ltpFR2	23	23	n/a	n/a	n/a	n/a	0	0	0
5705.392	n/a	PROB	2852696	n/a	LTP278	ltpFR2	23	n/a	n/a	n/a	35	15	3	6	6
5708.32	n/a	PROB	2854160	n/a	LTP278	ltpFR2	23	n/a	n/a	n/a	35	13	3	9	1
5711.796	n/a	PROB	2855898	n/a	LTP278	ltpFR2	23	n/a	n/a	n/a	35	17	3	7	7
5714.204	n/a	PROB	2857102	n/a	LTP278	ltpFR2	23	n/a	n/a	n/a	35	15	7	7	3
5716.882	n/a	PROB	2858441	n/a	LTP278	ltpFR2	23	n/a	n/a	n/a	35	19	6	6	7
5719.258	n/a	PROB	2859629	n/a	LTP278	ltpFR2	23	n/a	n/a	n/a	35	11	1	2	8
5720.612	n/a	PROB	2860306	n/a	LTP278	ltpFR2	23	n/a	n/a	n/a	35	9	7	1	1
5722.052	n/a	PROB	2861026	n/a	LTP278	ltpFR2	23	n/a	n/a	n/a	35	17	3	7	7
5724.11	n/a	PROB	2862055	n/a	LTP278	ltpFR2	23	n/a	n/a	n/a	35	18	4	7	7
5726.712	n/a	STOP	2863356	n/a	LTP278	ltpFR2	23	n/a	n/a	n/a	35	n/a	n/a	n/a	n/a
5729.982	n/a	REC_START	2864991	n/a	LTP278	ltpFR2	23	23	n/a	n/a	n/a	n/a	0	0	0
5730.422	n/a	REC_WORD	2865211	wordpools/wasnorm_wordpool_576.txt	LTP278	ltpFR2	23	23	SENATE	1267	n/a	n/a	0	0	0
5731.024	n/a	REC_WORD	2865512	wordpools/wasnorm_wordpool_576.txt	LTP278	ltpFR2	23	23	TWISTER	1530	n/a	n/a	0	0	0
5731.534	n/a	REC_WORD	2865767	wordpools/wasnorm_wordpool_576.txt	LTP278	ltpFR2	23	23	JAR	750	n/a	n/a	0	0	0
5731.864	n/a	REC_WORD	2865932	wordpools/wasnorm_wordpool_576.txt	LTP278	ltpFR2	23	23	YARN	1631	n/a	n/a	0	0	0
5732.464	n/a	REC_WORD	2866232	wordpools/wasnorm_wordpool_576.txt	LTP278	ltpFR2	23	23	SPOON	1357	n/a	n/a	0	0	0
5734.622	n/a	REC_WORD	2867311	wordpools/wasnorm_wordpool_576.txt	LTP278	ltpFR2	23	23	CROSS	413	n/a	n/a	0	0	0
5735.498	n/a	REC_WORD	2867749	wordpools/wasnorm_wordpool_576.txt	LTP278	ltpFR2	23	23	ROACH	1195	n/a	n/a	0	0	0
5736.896	n/a	REC_WORD	2868448	wordpools/wasnorm_wordpool_576.txt	LTP278	ltpFR2	23	23	BUILDING	191	n/a	n/a	0	0	0
5821.034	n/a	WORD	2910517	wordpools/wasnorm_wordpool_576.txt	LTP278	ltpFR2	23	24	OCEAN	970	n/a	n/a	0	0	0
5823.708	n/a	WORD	2911854	wordpools/wasnorm_wordpool_576.txt	LTP278	ltpFR2	23	24	TWEEZERS	1526	n/a	n/a	0	0	0
5826.422	n/a	WORD	2913211	wordpools/wasnorm_wordpool_576.txt	LTP278	ltpFR2	23	24	TREASURE	1500	n/a	n/a	0	0	0
5828.944	n/a	WORD	2914472	wordpools/wasnorm_wordpool_576.txt	LTP278	ltpFR2	23	24	WINDSHIELD	1612	n/a	n/a	0	0	0
5831.374	n/a	WORD	2915687	wordpools/wasnorm_wordpool_576.txt	LTP278	ltpFR2	23	24	SURVEY	1414	n/a	n/a	0	0	0
5834.114	n/a	WORD	2917057	wordpools/wasnorm_wordpool_576.txt	LTP278	ltpFR2	23	24	REPORT	1184	n/a	n/a	0	0	0
5836.644	n/a	WORD	2918322	wordpools/wasnorm_wordpool_576.txt	LTP278	ltpFR2	23	24	FREEWAY	603	n/a	n/a	0	0	0
5839.454	n/a	WORD	2919727	wordpools/wasnorm_wordpool_576.txt	LTP278	ltpFR2	23	24	STATUE	1374	n/a	n/a	0	0	0
5841.88	n/a	WORD	2920940	wordpools/wasnorm_wordpool_576.txt	LTP278	ltpFR2	23	24	STALLION	1369	n/a	n/a	0	0	0
5844.324	n/a	WORD	2922162	wordpools/wasnorm_wordpool_576.txt	LTP278	ltpFR2	23	24	BUGGY	188	n/a	n/a	0	0	0
5846.918	n/a	WORD	2923459	wordpools/wasnorm_wordpool_576.txt	LTP278	ltpFR2	23	24	SNOB	1335	n/a	n/a	0	0	0
5849.476	n/a	WORD	2924738	wordpools/wasnorm_wordpool_576.txt	LTP278	ltpFR2	23	24	FRIES	607	n/a	n/a	0	0	0
5851.986	n/a	WORD	2925993	wordpools/wasnorm_wordpool_576.txt	LTP278	ltpFR2	23	24	LEOPARD	812	n/a	n/a	0	0	0
5854.428	n/a	WORD	2927214	wordpools/wasnorm_wordpool_576.txt	LTP278	ltpFR2	23	24	FARMER	553	n/a	n/a	0	0	0
5857.088	n/a	WORD	2928544	wordpools/wasnorm_wordpool_576.txt	LTP278	ltpFR2	23	24	FOSSIL	596	n/a	n/a	0	0	0
5859.682	n/a	WORD	2929841	wordpools/wasnorm_wordpool_576.txt	LTP278	ltpFR2	23	24	AIRCRAFT	11	n/a	n/a	0	0	0
5862.492	n/a	WORD	2931246	wordpools/wasnorm_wordpool_576.txt	LTP278	ltpFR2	23	24	ARMY	39	n/a	n/a	0	0	0
5864.918	n/a	WORD	2932459	wordpools/wasnorm_wordpool_576.txt	LTP278	ltpFR2	23	24	WARDROBE	1587	n/a	n/a	0	0	0
5867.508	n/a	WORD	2933754	wordpools/wasnorm_wordpool_576.txt	LTP278	ltpFR2	23	24	NICKEL	950	n/a	n/a	0	0	0
5870.006	n/a	WORD	2935003	wordpools/wasnorm_wordpool_576.txt	LTP278	ltpFR2	23	24	ASIA	46	n/a	n/a	0	0	0
5872.816	n/a	WORD	2936408	wordpools/wasnorm_wordpool_576.txt	LTP278	ltpFR2	23	24	EUROPE	541	n/a	n/a	0	0	0
5875.408	n/a	WORD	2937704	wordpools/wasnorm_wordpool_576.txt	LTP278	ltpFR2	23	24	PERSON	1052	n/a	n/a	0	0	0
5878.17	n/a	WORD	2939085	wordpools/wasnorm_wordpool_576.txt	LTP278	ltpFR2	23	24	POND	1101	n/a	n/a	0	0	0
5880.848	n/a	WORD	2940424	wordpools/wasnorm_wordpool_576.txt	LTP278	ltpFR2	23	24	FEATHER	557	n/a	n/a	0	0	0
5882.464	n/a	START	2941232	n/a	LTP278	ltpFR2	23	n/a	n/a	n/a	36	n/a	n/a	n/a	n/a
5883.53	n/a	DISTRACTOR	2941765	n/a	LTP278	ltpFR2	23	24	n/a	n/a	n/a	n/a	0	0	0
5883.54	n/a	PROB	2941770	n/a	LTP278	ltpFR2	23	n/a	n/a	n/a	36	20	9	5	6
5890.394	n/a	PROB	2945197	n/a	LTP278	ltpFR2	23	n/a	n/a	n/a	36	14	7	3	4
5892.402	n/a	PROB	2946201	n/a	LTP278	ltpFR2	23	n/a	n/a	n/a	36	18	2	7	8
