mstime	trial_type	stim_file	subject	experiment	session	trial	task	item_name	item_num	recog_conf	resp	color_b	color_g	color_r	case	font
0	SESS_START	n/a	LTP077	ltpFR	3	n/a	n/a	n/a	n/a	5	n/a	n/a	n/a	n/a	n/a	n/a
39115	WORD	wordpools/wasnorm_wordpool.txt	LTP077	ltpFR	3	1	1	PARROT	1015	5	1	1	0.412841796875	0.57763671875	lower	../fonts/zerothre.ttf
43198	WORD	wordpools/wasnorm_wordpool.txt	LTP077	ltpFR	3	1	1	LUGGAGE	847	n/a	0	1	0.412841796875	0.57763671875	lower	../fonts/zerothre.ttf
47156	WORD	wordpools/wasnorm_wordpool.txt	LTP077	ltpFR	3	1	1	RACK	1154	n/a	0	1	0.412841796875	0.57763671875	lower	../fonts/zerothre.ttf
51006	WORD	wordpools/wasnorm_wordpool.txt	LTP077	ltpFR	3	1	1	RECIPE	1175	n/a	0	1	0.412841796875	0.57763671875	lower	../fonts/zerothre.ttf
55106	WORD	wordpools/wasnorm_wordpool.txt	LTP077	ltpFR	3	1	0	CAPTIVE	240	n/a	0	0	0.5869140625	0.422607421875	upper	../fonts/amplitud.ttf
58930	WORD	wordpools/wasnorm_wordpool.txt	LTP077	ltpFR	3	1	0	SUBWAY	1400	n/a	1	0	0.5869140625	0.422607421875	upper	../fonts/amplitud.ttf
62780	WORD	wordpools/wasnorm_wordpool.txt	LTP077	ltpFR	3	1	0	EAGLE	512	n/a	1	0	0.5869140625	0.422607421875	upper	../fonts/amplitud.ttf
66631	WORD	wordpools/wasnorm_wordpool.txt	LTP077	ltpFR	3	1	0	FIG	563	n/a	0	0	0.5869140625	0.422607421875	upper	../fonts/amplitud.ttf
70805	WORD	wordpools/wasnorm_wordpool.txt	LTP077	ltpFR	3	1	1	STUMP	1396	n/a	0	1	0.412841796875	0.57763671875	lower	../fonts/zerothre.ttf
74746	WORD	wordpools/wasnorm_wordpool.txt	LTP077	ltpFR	3	1	1	SWEATER	1419	n/a	0	1	0.412841796875	0.57763671875	lower	../fonts/zerothre.ttf
78854	WORD	wordpools/wasnorm_wordpool.txt	LTP077	ltpFR	3	1	1	SCARF	1246	n/a	0	1	0.412841796875	0.57763671875	lower	../fonts/zerothre.ttf
82954	WORD	wordpools/wasnorm_wordpool.txt	LTP077	ltpFR	3	1	1	GLACIER	638	n/a	1	1	0.412841796875	0.57763671875	lower	../fonts/zerothre.ttf
86862	WORD	wordpools/wasnorm_wordpool.txt	LTP077	ltpFR	3	1	0	SCAPEGOAT	1244	n/a	1	0	0.5869140625	0.422607421875	upper	../fonts/amplitud.ttf
90696	WORD	wordpools/wasnorm_wordpool.txt	LTP077	ltpFR	3	1	0	MISSILE	900	n/a	1	0	0.5869140625	0.422607421875	upper	../fonts/amplitud.ttf
94729	WORD	wordpools/wasnorm_wordpool.txt	LTP077	ltpFR	3	1	0	SERVER	1272	n/a	1	0	0.5869140625	0.422607421875	upper	../fonts/amplitud.ttf
98620	WORD	wordpools/wasnorm_wordpool.txt	LTP077	ltpFR	3	1	0	WICK	1607	n/a	0	0	0.5869140625	0.422607421875	upper	../fonts/amplitud.ttf
104311	REC_START	n/a	LTP077	ltpFR	3	1	n/a	n/a	n/a	n/a	n/a	n/a	n/a	n/a	n/a	n/a
105074	REC_WORD	wordpools/wasnorm_wordpool.txt	LTP077	ltpFR	3	1	0	WICK	1607	n/a	0	n/a	n/a	n/a	n/a	n/a
106167	REC_WORD	wordpools/wasnorm_wordpool.txt	LTP077	ltpFR	3	1	1	PARROT	1015	n/a	1	n/a	n/a	n/a	n/a	n/a
107558	REC_WORD	wordpools/wasnorm_wordpool.txt	LTP077	ltpFR	3	1	1	GLACIER	638	n/a	1	n/a	n/a	n/a	n/a	n/a
108935	REC_WORD	wordpools/wasnorm_wordpool.txt	LTP077	ltpFR	3	1	0	SERVER	1272	n/a	1	n/a	n/a	n/a	n/a	n/a
110562	REC_WORD	wordpools/wasnorm_wordpool.txt	LTP077	ltpFR	3	1	0	EAGLE	512	n/a	1	n/a	n/a	n/a	n/a	n/a
112328	REC_WORD	wordpools/wasnorm_wordpool.txt	LTP077	ltpFR	3	1	1	RACK	1154	n/a	0	n/a	n/a	n/a	n/a	n/a
113665	REC_WORD	wordpools/wasnorm_wordpool.txt	LTP077	ltpFR	3	1	1	LUGGAGE	847	n/a	0	n/a	n/a	n/a	n/a	n/a
130666	REC_WORD	wordpools/wasnorm_wordpool.txt	LTP077	ltpFR	3	1	0	SCAPEGOAT	1244	n/a	1	n/a	n/a	n/a	n/a	n/a
136702	REC_WORD	wordpools/wasnorm_wordpool.txt	LTP077	ltpFR	3	1	1	RECIPE	1175	n/a	0	n/a	n/a	n/a	n/a	n/a
183788	WORD	wordpools/wasnorm_wordpool.txt	LTP077	ltpFR	3	2	0	DYNAMITE	511	n/a	0	0	0.5869140625	0.422607421875	upper	../fonts/amplitud.ttf
187763	WORD	wordpools/wasnorm_wordpool.txt	LTP077	ltpFR	3	2	0	HONEY	713	n/a	0	0	0.5869140625	0.422607421875	upper	../fonts/amplitud.ttf
191837	WORD	wordpools/wasnorm_wordpool.txt	LTP077	ltpFR	3	2	1	GOVERNOR	651	n/a	1	1	0.412841796875	0.57763671875	lower	../fonts/zerothre.ttf
195887	WORD	wordpools/wasnorm_wordpool.txt	LTP077	ltpFR	3	2	1	CAFETERIA	217	n/a	0	1	0.412841796875	0.57763671875	lower	../fonts/zerothre.ttf
200020	WORD	wordpools/wasnorm_wordpool.txt	LTP077	ltpFR	3	2	0	BALLERINA	74	n/a	1	0	0.5869140625	0.422607421875	upper	../fonts/amplitud.ttf
204078	WORD	wordpools/wasnorm_wordpool.txt	LTP077	ltpFR	3	2	0	YOKE	1632	n/a	0	0	0.5869140625	0.422607421875	upper	../fonts/amplitud.ttf
208219	WORD	wordpools/wasnorm_wordpool.txt	LTP077	ltpFR	3	2	1	SUBURB	1399	n/a	1	1	0.412841796875	0.57763671875	lower	../fonts/zerothre.ttf
212411	WORD	wordpools/wasnorm_wordpool.txt	LTP077	ltpFR	3	2	1	BEE	112	n/a	0	1	0.412841796875	0.57763671875	lower	../fonts/zerothre.ttf
216277	WORD	wordpools/wasnorm_wordpool.txt	LTP077	ltpFR	3	2	1	MEAT	883	n/a	0	1	0.412841796875	0.57763671875	lower	../fonts/zerothre.ttf
220260	WORD	wordpools/wasnorm_wordpool.txt	LTP077	ltpFR	3	2	1	TREE	1502	n/a	1	1	0.412841796875	0.57763671875	lower	../fonts/zerothre.ttf
224268	WORD	wordpools/wasnorm_wordpool.txt	LTP077	ltpFR	3	2	1	HEDGE	699	n/a	0	1	0.412841796875	0.57763671875	lower	../fonts/zerothre.ttf
228410	WORD	wordpools/wasnorm_wordpool.txt	LTP077	ltpFR	3	2	1	HEAD	695	n/a	1	1	0.412841796875	0.57763671875	lower	../fonts/zerothre.ttf
232527	WORD	wordpools/wasnorm_wordpool.txt	LTP077	ltpFR	3	2	0	FACE	547	n/a	1	0	0.5869140625	0.422607421875	upper	../fonts/amplitud.ttf
236627	WORD	wordpools/wasnorm_wordpool.txt	LTP077	ltpFR	3	2	0	SPOON	1357	n/a	0	0	0.5869140625	0.422607421875	upper	../fonts/amplitud.ttf
240800	WORD	wordpools/wasnorm_wordpool.txt	LTP077	ltpFR	3	2	0	MARINE	869	n/a	0	0	0.5869140625	0.422607421875	upper	../fonts/amplitud.ttf
244867	WORD	wordpools/wasnorm_wordpool.txt	LTP077	ltpFR	3	2	0	ISLAND	745	n/a	n/a	0	0.5869140625	0.422607421875	upper	../fonts/amplitud.ttf
247892	SLOW_MSG	n/a	LTP077	ltpFR	3	2	n/a	n/a	n/a	n/a	n/a	n/a	n/a	n/a	n/a	n/a
252333	REC_START	n/a	LTP077	ltpFR	3	2	n/a	n/a	n/a	n/a	n/a	n/a	n/a	n/a	n/a	n/a
252966	REC_WORD	wordpools/wasnorm_wordpool.txt	LTP077	ltpFR	3	2	0	BALLERINA	74	n/a	1	n/a	n/a	n/a	n/a	n/a
255141	REC_WORD	wordpools/wasnorm_wordpool.txt	LTP077	ltpFR	3	2	0	YOKE	1632	n/a	0	n/a	n/a	n/a	n/a	n/a
256503	REC_WORD	wordpools/wasnorm_wordpool.txt	LTP077	ltpFR	3	2	0	MARINE	869	n/a	0	n/a	n/a	n/a	n/a	n/a
258534	REC_WORD	wordpools/wasnorm_wordpool.txt	LTP077	ltpFR	3	2	n/a	CINNAMON	310	n/a	n/a	n/a	n/a	n/a	n/a	n/a
262116	REC_WORD	wordpools/wasnorm_wordpool.txt	LTP077	ltpFR	3	2	0	DYNAMITE	511	n/a	0	n/a	n/a	n/a	n/a	n/a
283567	REC_WORD	wordpools/wasnorm_wordpool.txt	LTP077	ltpFR	3	2	1	BEE	112	n/a	0	n/a	n/a	n/a	n/a	n/a
284082	REC_WORD	wordpools/wasnorm_wordpool.txt	LTP077	ltpFR	3	2	n/a	HIVE	-1	n/a	n/a	n/a	n/a	n/a	n/a	n/a
286181	REC_WORD	wordpools/wasnorm_wordpool.txt	LTP077	ltpFR	3	2	0	HONEY	713	n/a	0	n/a	n/a	n/a	n/a	n/a
405631	WORD	wordpools/wasnorm_wordpool.txt	LTP077	ltpFR	3	3	0	PIPE	1073	n/a	0	0	0.5869140625	0.422607421875	upper	../fonts/amplitud.ttf
409813	WORD	wordpools/wasnorm_wordpool.txt	LTP077	ltpFR	3	3	0	SCREWDRIVER	1255	n/a	0	0	0.5869140625	0.422607421875	upper	../fonts/amplitud.ttf
413846	WORD	wordpools/wasnorm_wordpool.txt	LTP077	ltpFR	3	3	0	MILK	895	n/a	0	0	0.5869140625	0.422607421875	upper	../fonts/amplitud.ttf
417887	WORD	wordpools/wasnorm_wordpool.txt	LTP077	ltpFR	3	3	0	PUBLISHER	1137	n/a	1	0	0.5869140625	0.422607421875	upper	../fonts/amplitud.ttf
422070	WORD	wordpools/wasnorm_wordpool.txt	LTP077	ltpFR	3	3	0	DOUGH	489	n/a	0	0	0.5869140625	0.422607421875	upper	../fonts/amplitud.ttf
425970	WORD	wordpools/wasnorm_wordpool.txt	LTP077	ltpFR	3	3	1	COLLEGE	346	n/a	0	1	0.412841796875	0.57763671875	lower	../fonts/zerothre.ttf
430061	WORD	wordpools/wasnorm_wordpool.txt	LTP077	ltpFR	3	3	1	WRENCH	1625	n/a	0	1	0.412841796875	0.57763671875	lower	../fonts/zerothre.ttf
434094	WORD	wordpools/wasnorm_wordpool.txt	LTP077	ltpFR	3	3	0	OVEN	991	n/a	1	0	0.5869140625	0.422607421875	upper	../fonts/amplitud.ttf
437911	WORD	wordpools/wasnorm_wordpool.txt	LTP077	ltpFR	3	3	0	GOAT	644	n/a	0	0	0.5869140625	0.422607421875	upper	../fonts/amplitud.ttf
442069	WORD	wordpools/wasnorm_wordpool.txt	LTP077	ltpFR	3	3	0	NEWSPAPER	948	n/a	0	0	0.5869140625	0.422607421875	upper	../fonts/amplitud.ttf
446177	WORD	wordpools/wasnorm_wordpool.txt	LTP077	ltpFR	3	3	1	PIGEON	1065	n/a	1	1	0.412841796875	0.57763671875	lower	../fonts/zerothre.ttf
450376	WORD	wordpools/wasnorm_wordpool.txt	LTP077	ltpFR	3	3	1	PENGUIN	1044	n/a	1	1	0.412841796875	0.57763671875	lower	../fonts/zerothre.ttf
454376	WORD	wordpools/wasnorm_wordpool.txt	LTP077	ltpFR	3	3	1	BASSINET	97	n/a	2	1	0.412841796875	0.57763671875	lower	../fonts/zerothre.ttf
456068	KEY_MSG	n/a	LTP077	ltpFR	3	3	n/a	n/a	n/a	n/a	n/a	n/a	n/a	n/a	n/a	n/a
458384	WORD	wordpools/wasnorm_wordpool.txt	LTP077	ltpFR	3	3	1	DOLL	481	n/a	2	1	0.412841796875	0.57763671875	lower	../fonts/zerothre.ttf
459451	KEY_MSG	n/a	LTP077	ltpFR	3	3	n/a	n/a	n/a	n/a	n/a	n/a	n/a	n/a	n/a	n/a
462552	WORD	wordpools/wasnorm_wordpool.txt	LTP077	ltpFR	3	3	1	DRAGON	492	n/a	1	1	0.412841796875	0.57763671875	lower	../fonts/zerothre.ttf
466409	WORD	wordpools/wasnorm_wordpool.txt	LTP077	ltpFR	3	3	1	KETTLE	772	n/a	0	1	0.412841796875	0.57763671875	lower	../fonts/zerothre.ttf
472259	REC_START	n/a	LTP077	ltpFR	3	3	n/a	n/a	n/a	n/a	n/a	n/a	n/a	n/a	n/a	n/a
472733	REC_WORD	wordpools/wasnorm_wordpool.txt	LTP077	ltpFR	3	3	1	KETTLE	772	n/a	0	n/a	n/a	n/a	n/a	n/a
473478	REC_WORD	wordpools/wasnorm_wordpool.txt	LTP077	ltpFR	3	3	1	DRAGON	492	n/a	1	n/a	n/a	n/a	n/a	n/a
474344	REC_WORD	wordpools/wasnorm_wordpool.txt	LTP077	ltpFR	3	3	0	PIPE	1073	n/a	0	n/a	n/a	n/a	n/a	n/a
475696	REC_WORD	wordpools/wasnorm_wordpool.txt	LTP077	ltpFR	3	3	0	MILK	895	n/a	0	n/a	n/a	n/a	n/a	n/a
476357	REC_WORD	wordpools/wasnorm_wordpool.txt	LTP077	ltpFR	3	3	0	SCREWDRIVER	1255	n/a	0	n/a	n/a	n/a	n/a	n/a
477801	REC_WORD	wordpools/wasnorm_wordpool.txt	LTP077	ltpFR	3	3	1	WRENCH	1625	n/a	0	n/a	n/a	n/a	n/a	n/a
483443	REC_WORD	wordpools/wasnorm_wordpool.txt	LTP077	ltpFR	3	3	0	PUBLISHER	1137	n/a	1	n/a	n/a	n/a	n/a	n/a
487973	REC_WORD	wordpools/wasnorm_wordpool.txt	LTP077	ltpFR	3	3	0	PIPE	1073	n/a	0	n/a	n/a	n/a	n/a	n/a
493501	REC_WORD	wordpools/wasnorm_wordpool.txt	LTP077	ltpFR	3	3	1	PIGEON	1065	n/a	1	n/a	n/a	n/a	n/a	n/a
494698	REC_WORD	wordpools/wasnorm_wordpool.txt	LTP077	ltpFR	3	3	1	PENGUIN	1044	n/a	1	n/a	n/a	n/a	n/a	n/a
507090	REC_WORD	wordpools/wasnorm_wordpool.txt	LTP077	ltpFR	3	3	n/a	PELICAN	1039	n/a	n/a	n/a	n/a	n/a	n/a	n/a
534083	REC_WORD	wordpools/wasnorm_wordpool.txt	LTP077	ltpFR	3	3	1	SWEATER	1419	n/a	0	n/a	n/a	n/a	n/a	n/a
552019	WORD	wordpools/wasnorm_wordpool.txt	LTP077	ltpFR	3	4	1	PORPOISE	1109	n/a	1	1	0.412841796875	0.57763671875	lower	../fonts/zerothre.ttf
555902	WORD	wordpools/wasnorm_wordpool.txt	LTP077	ltpFR	3	4	1	WHALE	1601	n/a	1	1	0.412841796875	0.57763671875	lower	../fonts/zerothre.ttf
560060	WORD	wordpools/wasnorm_wordpool.txt	LTP077	ltpFR	3	4	1	PARTY	1018	n/a	0	1	0.412841796875	0.57763671875	lower	../fonts/zerothre.ttf
564193	WORD	wordpools/wasnorm_wordpool.txt	LTP077	ltpFR	3	4	1	EXPLOSION	544	n/a	0	1	0.412841796875	0.57763671875	lower	../fonts/zerothre.ttf
568351	WORD	wordpools/wasnorm_wordpool.txt	LTP077	ltpFR	3	4	1	HOUND	724	n/a	1	1	0.412841796875	0.57763671875	lower	../fonts/zerothre.ttf
572167	WORD	wordpools/wasnorm_wordpool.txt	LTP077	ltpFR	3	4	1	ANTEATER	26	n/a	1	1	0.412841796875	0.57763671875	lower	../fonts/zerothre.ttf
576059	WORD	wordpools/wasnorm_wordpool.txt	LTP077	ltpFR	3	4	1	TERMITE	1451	n/a	1	1	0.412841796875	0.57763671875	lower	../fonts/zerothre.ttf
580092	WORD	wordpools/wasnorm_wordpool.txt	LTP077	ltpFR	3	4	1	REFEREE	1178	n/a	1	1	0.412841796875	0.57763671875	lower	../fonts/zerothre.ttf
584008	WORD	wordpools/wasnorm_wordpool.txt	LTP077	ltpFR	3	4	1	BIRD	129	n/a	1	1	0.412841796875	0.57763671875	lower	../fonts/zerothre.ttf
587891	WORD	wordpools/wasnorm_wordpool.txt	LTP077	ltpFR	3	4	1	WINGS	1614	n/a	1	1	0.412841796875	0.57763671875	lower	../fonts/zerothre.ttf
591908	WORD	wordpools/wasnorm_wordpool.txt	LTP077	ltpFR	3	4	1	OTTER	986	n/a	1	1	0.412841796875	0.57763671875	lower	../fonts/zerothre.ttf
595907	WORD	wordpools/wasnorm_wordpool.txt	LTP077	ltpFR	3	4	1	COSTUME	383	n/a	0	1	0.412841796875	0.57763671875	lower	../fonts/zerothre.ttf
599774	WORD	wordpools/wasnorm_wordpool.txt	LTP077	ltpFR	3	4	1	GALLON	618	n/a	0	1	0.412841796875	0.57763671875	lower	../fonts/zerothre.ttf
603840	WORD	wordpools/wasnorm_wordpool.txt	LTP077	ltpFR	3	4	1	PICNIC	1060	n/a	0	1	0.412841796875	0.57763671875	lower	../fonts/zerothre.ttf
607948	WORD	wordpools/wasnorm_wordpool.txt	LTP077	ltpFR	3	4	1	SHIP	1286	n/a	0	1	0.412841796875	0.57763671875	lower	../fonts/zerothre.ttf
611773	WORD	wordpools/wasnorm_wordpool.txt	LTP077	ltpFR	3	4	1	CANAL	226	n/a	0	1	0.412841796875	0.57763671875	lower	../fonts/zerothre.ttf
617566	REC_START	n/a	LTP077	ltpFR	3	4	n/a	n/a	n/a	n/a	n/a	n/a	n/a	n/a	n/a	n/a
617840	REC_WORD	wordpools/wasnorm_wordpool.txt	LTP077	ltpFR	3	4	1	CANAL	226	n/a	0	n/a	n/a	n/a	n/a	n/a
618435	REC_WORD	wordpools/wasnorm_wordpool.txt	LTP077	ltpFR	3	4	1	SHIP	1286	n/a	0	n/a	n/a	n/a	n/a	n/a
619077	REC_WORD	wordpools/wasnorm_wordpool.txt	LTP077	ltpFR	3	4	1	PARTY	1018	n/a	0	n/a	n/a	n/a	n/a	n/a
619655	REC_WORD	wordpools/wasnorm_wordpool.txt	LTP077	ltpFR	3	4	1	EXPLOSION	544	n/a	0	n/a	n/a	n/a	n/a	n/a
622629	REC_WORD	wordpools/wasnorm_wordpool.txt	LTP077	ltpFR	3	4	1	PORPOISE	1109	n/a	1	n/a	n/a	n/a	n/a	n/a
623881	REC_WORD	wordpools/wasnorm_wordpool.txt	LTP077	ltpFR	3	4	1	WHALE	1601	n/a	1	n/a	n/a	n/a	n/a	n/a
627219	REC_WORD	wordpools/wasnorm_wordpool.txt	LTP077	ltpFR	3	4	1	TERMITE	1451	n/a	1	n/a	n/a	n/a	n/a	n/a
635904	REC_WORD	wordpools/wasnorm_wordpool.txt	LTP077	ltpFR	3	4	1	GALLON	618	n/a	0	n/a	n/a	n/a	n/a	n/a
642379	REC_WORD	wordpools/wasnorm_wordpool.txt	LTP077	ltpFR	3	4	1	ANTEATER	26	n/a	1	n/a	n/a	n/a	n/a	n/a
644554	REC_WORD	wordpools/wasnorm_wordpool.txt	LTP077	ltpFR	3	4	1	HOUND	724	n/a	1	n/a	n/a	n/a	n/a	n/a
646305	REC_WORD	wordpools/wasnorm_wordpool.txt	LTP077	ltpFR	3	4	1	EXPLOSION	544	n/a	0	n/a	n/a	n/a	n/a	n/a
695375	WORD	wordpools/wasnorm_wordpool.txt	LTP077	ltpFR	3	5	0	BACK	65	n/a	0	0	0.5869140625	0.422607421875	upper	../fonts/amplitud.ttf
699542	WORD	wordpools/wasnorm_wordpool.txt	LTP077	ltpFR	3	5	0	SPINE	1353	n/a	1	0	0.5869140625	0.422607421875	upper	../fonts/amplitud.ttf
703609	WORD	wordpools/wasnorm_wordpool.txt	LTP077	ltpFR	3	5	0	PRINCE	1124	n/a	0	0	0.5869140625	0.422607421875	upper	../fonts/amplitud.ttf
707508	WORD	wordpools/wasnorm_wordpool.txt	LTP077	ltpFR	3	5	1	DOCTOR	478	n/a	1	1	0.412841796875	0.57763671875	lower	../fonts/zerothre.ttf
711533	WORD	wordpools/wasnorm_wordpool.txt	LTP077	ltpFR	3	5	1	SCOUT	1252	n/a	1	1	0.412841796875	0.57763671875	lower	../fonts/zerothre.ttf
715583	WORD	wordpools/wasnorm_wordpool.txt	LTP077	ltpFR	3	5	1	NAVIGATOR	938	n/a	1	1	0.412841796875	0.57763671875	lower	../fonts/zerothre.ttf
719591	WORD	wordpools/wasnorm_wordpool.txt	LTP077	ltpFR	3	5	1	TONGUE	1479	n/a	0	1	0.412841796875	0.57763671875	lower	../fonts/zerothre.ttf
723490	WORD	wordpools/wasnorm_wordpool.txt	LTP077	ltpFR	3	5	1	CAVITY	264	n/a	0	1	0.412841796875	0.57763671875	lower	../fonts/zerothre.ttf
727565	WORD	wordpools/wasnorm_wordpool.txt	LTP077	ltpFR	3	5	1	COMB	351	n/a	1	1	0.412841796875	0.57763671875	lower	../fonts/zerothre.ttf
731540	WORD	wordpools/wasnorm_wordpool.txt	LTP077	ltpFR	3	5	0	PUDDLE	1140	n/a	1	0	0.5869140625	0.422607421875	upper	../fonts/amplitud.ttf
735515	WORD	wordpools/wasnorm_wordpool.txt	LTP077	ltpFR	3	5	0	EWE	542	n/a	0	0	0.5869140625	0.422607421875	upper	../fonts/amplitud.ttf
739548	WORD	wordpools/wasnorm_wordpool.txt	LTP077	ltpFR	3	5	0	WHISTLE	1606	n/a	0	0	0.5869140625	0.422607421875	upper	../fonts/amplitud.ttf
743489	WORD	wordpools/wasnorm_wordpool.txt	LTP077	ltpFR	3	5	1	DAM	436	n/a	0	1	0.412841796875	0.57763671875	lower	../fonts/zerothre.ttf
747396	WORD	wordpools/wasnorm_wordpool.txt	LTP077	ltpFR	3	5	1	AIRPLANE	12	n/a	0	1	0.412841796875	0.57763671875	lower	../fonts/zerothre.ttf
751329	WORD	wordpools/wasnorm_wordpool.txt	LTP077	ltpFR	3	5	0	DRESS	495	n/a	1	0	0.5869140625	0.422607421875	upper	../fonts/amplitud.ttf
755212	WORD	wordpools/wasnorm_wordpool.txt	LTP077	ltpFR	3	5	0	HANGER	687	n/a	1	0	0.5869140625	0.422607421875	upper	../fonts/amplitud.ttf
760846	REC_START	n/a	LTP077	ltpFR	3	5	n/a	n/a	n/a	n/a	n/a	n/a	n/a	n/a	n/a	n/a
761290	REC_WORD	wordpools/wasnorm_wordpool.txt	LTP077	ltpFR	3	5	0	HANGER	687	n/a	1	n/a	n/a	n/a	n/a	n/a
762109	REC_WORD	wordpools/wasnorm_wordpool.txt	LTP077	ltpFR	3	5	0	DRESS	495	n/a	1	n/a	n/a	n/a	n/a	n/a
762986	REC_WORD	wordpools/wasnorm_wordpool.txt	LTP077	ltpFR	3	5	0	BACK	65	n/a	0	n/a	n/a	n/a	n/a	n/a
763909	REC_WORD	wordpools/wasnorm_wordpool.txt	LTP077	ltpFR	3	5	0	PRINCE	1124	n/a	0	n/a	n/a	n/a	n/a	n/a
765530	REC_WORD	wordpools/wasnorm_wordpool.txt	LTP077	ltpFR	3	5	0	SPINE	1353	n/a	1	n/a	n/a	n/a	n/a	n/a
780751	REC_WORD	wordpools/wasnorm_wordpool.txt	LTP077	ltpFR	3	5	n/a	WAITER	1580	n/a	n/a	n/a	n/a	n/a	n/a	n/a
788024	REC_WORD	wordpools/wasnorm_wordpool.txt	LTP077	ltpFR	3	5	1	NAVIGATOR	938	n/a	1	n/a	n/a	n/a	n/a	n/a
847980	WORD	wordpools/wasnorm_wordpool.txt	LTP077	ltpFR	3	6	-1	RAISIN	1163	n/a	-1	1	1.0	1.0	upper	../fonts/Verdana.ttf
851847	WORD	wordpools/wasnorm_wordpool.txt	LTP077	ltpFR	3	6	-1	TREASURE	1500	n/a	-1	1	1.0	1.0	upper	../fonts/Verdana.ttf
855905	WORD	wordpools/wasnorm_wordpool.txt	LTP077	ltpFR	3	6	-1	THIGH	1457	n/a	-1	1	1.0	1.0	upper	../fonts/Verdana.ttf
859979	WORD	wordpools/wasnorm_wordpool.txt	LTP077	ltpFR	3	6	-1	MARROW	872	n/a	-1	1	1.0	1.0	upper	../fonts/Verdana.ttf
864037	WORD	wordpools/wasnorm_wordpool.txt	LTP077	ltpFR	3	6	-1	MASK	876	n/a	-1	1	1.0	1.0	upper	../fonts/Verdana.ttf
867987	WORD	wordpools/wasnorm_wordpool.txt	LTP077	ltpFR	3	6	-1	CORPORATION	382	n/a	-1	1	1.0	1.0	upper	../fonts/Verdana.ttf
872003	WORD	wordpools/wasnorm_wordpool.txt	LTP077	ltpFR	3	6	-1	EMPLOYEE	531	n/a	-1	1	1.0	1.0	upper	../fonts/Verdana.ttf
875878	WORD	wordpools/wasnorm_wordpool.txt	LTP077	ltpFR	3	6	-1	RAM	1165	n/a	-1	1	1.0	1.0	upper	../fonts/Verdana.ttf
880003	WORD	wordpools/wasnorm_wordpool.txt	LTP077	ltpFR	3	6	-1	VINE	1568	n/a	-1	1	1.0	1.0	upper	../fonts/Verdana.ttf
883919	WORD	wordpools/wasnorm_wordpool.txt	LTP077	ltpFR	3	6	-1	KID	775	n/a	-1	1	1.0	1.0	upper	../fonts/Verdana.ttf
887911	WORD	wordpools/wasnorm_wordpool.txt	LTP077	ltpFR	3	6	-1	YOUTH	1634	n/a	-1	1	1.0	1.0	upper	../fonts/Verdana.ttf
891877	WORD	wordpools/wasnorm_wordpool.txt	LTP077	ltpFR	3	6	-1	NICKEL	950	n/a	-1	1	1.0	1.0	upper	../fonts/Verdana.ttf
895985	WORD	wordpools/wasnorm_wordpool.txt	LTP077	ltpFR	3	6	-1	BLACKBERRY	132	n/a	-1	1	1.0	1.0	upper	../fonts/Verdana.ttf
900176	WORD	wordpools/wasnorm_wordpool.txt	LTP077	ltpFR	3	6	-1	COW	393	n/a	-1	1	1.0	1.0	upper	../fonts/Verdana.ttf
904218	WORD	wordpools/wasnorm_wordpool.txt	LTP077	ltpFR	3	6	-1	PRESIDENT	1121	n/a	-1	1	1.0	1.0	upper	../fonts/Verdana.ttf
908401	WORD	wordpools/wasnorm_wordpool.txt	LTP077	ltpFR	3	6	-1	VILLAGE	1566	n/a	-1	1	1.0	1.0	upper	../fonts/Verdana.ttf
914243	REC_START	n/a	LTP077	ltpFR	3	6	n/a	n/a	n/a	n/a	n/a	n/a	n/a	n/a	n/a	n/a
914707	REC_WORD	wordpools/wasnorm_wordpool.txt	LTP077	ltpFR	3	6	-1	VILLAGE	1566	n/a	-1	n/a	n/a	n/a	n/a	n/a
915174	REC_WORD	wordpools/wasnorm_wordpool.txt	LTP077	ltpFR	3	6	-1	PRESIDENT	1121	n/a	-1	n/a	n/a	n/a	n/a	n/a
915756	REC_WORD	wordpools/wasnorm_wordpool.txt	LTP077	ltpFR	3	6	-1	NICKEL	950	n/a	-1	n/a	n/a	n/a	n/a	n/a
916321	REC_WORD	wordpools/wasnorm_wordpool.txt	LTP077	ltpFR	3	6	-1	BLACKBERRY	132	n/a	-1	n/a	n/a	n/a	n/a	n/a
918169	REC_WORD	wordpools/wasnorm_wordpool.txt	LTP077	ltpFR	3	6	-1	RAISIN	1163	n/a	-1	n/a	n/a	n/a	n/a	n/a
918861	REC_WORD	wordpools/wasnorm_wordpool.txt	LTP077	ltpFR	3	6	-1	TREASURE	1500	n/a	-1	n/a	n/a	n/a	n/a	n/a
919663	REC_WORD	wordpools/wasnorm_wordpool.txt	LTP077	ltpFR	3	6	-1	THIGH	1457	n/a	-1	n/a	n/a	n/a	n/a	n/a
920394	REC_WORD	wordpools/wasnorm_wordpool.txt	LTP077	ltpFR	3	6	-1	MARROW	872	n/a	-1	n/a	n/a	n/a	n/a	n/a
921816	REC_WORD	wordpools/wasnorm_wordpool.txt	LTP077	ltpFR	3	6	n/a	CALF	222	n/a	n/a	n/a	n/a	n/a	n/a	n/a
923517	REC_WORD	wordpools/wasnorm_wordpool.txt	LTP077	ltpFR	3	6	-1	KID	775	n/a	-1	n/a	n/a	n/a	n/a	n/a
924119	REC_WORD	wordpools/wasnorm_wordpool.txt	LTP077	ltpFR	3	6	-1	YOUTH	1634	n/a	-1	n/a	n/a	n/a	n/a	n/a
929448	REC_WORD	wordpools/wasnorm_wordpool.txt	LTP077	ltpFR	3	6	-1	EMPLOYEE	531	n/a	-1	n/a	n/a	n/a	n/a	n/a
930135	REC_WORD	wordpools/wasnorm_wordpool.txt	LTP077	ltpFR	3	6	-1	CORPORATION	382	n/a	-1	n/a	n/a	n/a	n/a	n/a
931028	REC_WORD	wordpools/wasnorm_wordpool.txt	LTP077	ltpFR	3	6	-1	MASK	876	n/a	-1	n/a	n/a	n/a	n/a	n/a
977743	REC_WORD	wordpools/wasnorm_wordpool.txt	LTP077	ltpFR	3	6	-1	TREASURE	1500	n/a	-1	n/a	n/a	n/a	n/a	n/a
980128	REC_WORD	wordpools/wasnorm_wordpool.txt	LTP077	ltpFR	3	6	-1	NICKEL	950	n/a	-1	n/a	n/a	n/a	n/a	n/a
991886	WORD	wordpools/wasnorm_wordpool.txt	LTP077	ltpFR	3	7	1	MONGOOSE	909	n/a	1	1	0.412841796875	0.57763671875	lower	../fonts/zerothre.ttf
995729	WORD	wordpools/wasnorm_wordpool.txt	LTP077	ltpFR	3	7	1	HEN	703	n/a	1	1	0.412841796875	0.57763671875	lower	../fonts/zerothre.ttf
999769	WORD	wordpools/wasnorm_wordpool.txt	LTP077	ltpFR	3	7	0	HOSE	720	n/a	0	0	0.5869140625	0.422607421875	upper	../fonts/amplitud.ttf
1003611	WORD	wordpools/wasnorm_wordpool.txt	LTP077	ltpFR	3	7	0	TOTE	1487	n/a	1	0	0.5869140625	0.422607421875	upper	../fonts/amplitud.ttf
1007619	WORD	wordpools/wasnorm_wordpool.txt	LTP077	ltpFR	3	7	0	KNAPSACK	783	n/a	1	0	0.5869140625	0.422607421875	upper	../fonts/amplitud.ttf
1011719	WORD	wordpools/wasnorm_wordpool.txt	LTP077	ltpFR	3	7	0	CABBAGE	210	n/a	0	0	0.5869140625	0.422607421875	upper	../fonts/amplitud.ttf
1015535	WORD	wordpools/wasnorm_wordpool.txt	LTP077	ltpFR	3	7	0	THERMOMETER	1453	n/a	1	0	0.5869140625	0.422607421875	upper	../fonts/amplitud.ttf
1019477	WORD	wordpools/wasnorm_wordpool.txt	LTP077	ltpFR	3	7	0	PANTS	1010	n/a	1	0	0.5869140625	0.422607421875	upper	../fonts/amplitud.ttf
1023602	WORD	wordpools/wasnorm_wordpool.txt	LTP077	ltpFR	3	7	1	BROCCOLI	176	n/a	1	1	0.412841796875	0.57763671875	lower	../fonts/zerothre.ttf
1027467	WORD	wordpools/wasnorm_wordpool.txt	LTP077	ltpFR	3	7	1	ANTELOPE	27	n/a	1	1	0.412841796875	0.57763671875	lower	../fonts/zerothre.ttf
1031383	WORD	wordpools/wasnorm_wordpool.txt	LTP077	ltpFR	3	7	1	TIDE	1465	n/a	0	1	0.412841796875	0.57763671875	lower	../fonts/zerothre.ttf
1035316	WORD	wordpools/wasnorm_wordpool.txt	LTP077	ltpFR	3	7	1	FOOT	590	n/a	0	1	0.412841796875	0.57763671875	lower	../fonts/zerothre.ttf
1039484	WORD	wordpools/wasnorm_wordpool.txt	LTP077	ltpFR	3	7	0	TOE	1473	n/a	0	0	0.5869140625	0.422607421875	upper	../fonts/amplitud.ttf
1043374	WORD	wordpools/wasnorm_wordpool.txt	LTP077	ltpFR	3	7	0	COBBLER	335	n/a	0	0	0.5869140625	0.422607421875	upper	../fonts/amplitud.ttf
1047382	WORD	wordpools/wasnorm_wordpool.txt	LTP077	ltpFR	3	7	1	RECEIPT	1173	n/a	0	1	0.412841796875	0.57763671875	lower	../fonts/zerothre.ttf
1051307	WORD	wordpools/wasnorm_wordpool.txt	LTP077	ltpFR	3	7	1	ENGINEER	536	n/a	1	1	0.412841796875	0.57763671875	lower	../fonts/zerothre.ttf
1057048	REC_START	n/a	LTP077	ltpFR	3	7	n/a	n/a	n/a	n/a	n/a	n/a	n/a	n/a	n/a	n/a
1057202	REC_WORD	wordpools/wasnorm_wordpool.txt	LTP077	ltpFR	3	7	1	ENGINEER	536	n/a	1	n/a	n/a	n/a	n/a	n/a
1058270	REC_WORD	wordpools/wasnorm_wordpool.txt	LTP077	ltpFR	3	7	0	TOTE	1487	n/a	1	n/a	n/a	n/a	n/a	n/a
1059183	REC_WORD	wordpools/wasnorm_wordpool.txt	LTP077	ltpFR	3	7	1	MONGOOSE	909	n/a	1	n/a	n/a	n/a	n/a	n/a
1060218	REC_WORD	wordpools/wasnorm_wordpool.txt	LTP077	ltpFR	3	7	1	HEN	703	n/a	1	n/a	n/a	n/a	n/a	n/a
1070792	REC_WORD	wordpools/wasnorm_wordpool.txt	LTP077	ltpFR	3	7	1	RECEIPT	1173	n/a	0	n/a	n/a	n/a	n/a	n/a
1087419	REC_WORD	wordpools/wasnorm_wordpool.txt	LTP077	ltpFR	3	7	0	CABBAGE	210	n/a	0	n/a	n/a	n/a	n/a	n/a
1087968	REC_WORD	wordpools/wasnorm_wordpool.txt	LTP077	ltpFR	3	7	1	BROCCOLI	176	n/a	1	n/a	n/a	n/a	n/a	n/a
1091135	REC_WORD	wordpools/wasnorm_wordpool.txt	LTP077	ltpFR	3	7	0	KNAPSACK	783	n/a	1	n/a	n/a	n/a	n/a	n/a
1091830	REC_WORD	wordpools/wasnorm_wordpool.txt	LTP077	ltpFR	3	7	0	TOTE	1487	n/a	1	n/a	n/a	n/a	n/a	n/a
1098424	REC_WORD	wordpools/wasnorm_wordpool.txt	LTP077	ltpFR	3	7	1	TIDE	1465	n/a	0	n/a	n/a	n/a	n/a	n/a
1103981	REC_WORD	wordpools/wasnorm_wordpool.txt	LTP077	ltpFR	3	7	0	TOE	1473	n/a	0	n/a	n/a	n/a	n/a	n/a
1136685	WORD	wordpools/wasnorm_wordpool.txt	LTP077	ltpFR	3	8	-1	WART	1590	n/a	-1	1	1.0	1.0	upper	../fonts/Verdana.ttf
1140808	WORD	wordpools/wasnorm_wordpool.txt	LTP077	ltpFR	3	8	-1	PISTON	1076	n/a	-1	1	1.0	1.0	upper	../fonts/Verdana.ttf
1144642	WORD	wordpools/wasnorm_wordpool.txt	LTP077	ltpFR	3	8	-1	LOFT	840	n/a	-1	1	1.0	1.0	upper	../fonts/Verdana.ttf
1148709	WORD	wordpools/wasnorm_wordpool.txt	LTP077	ltpFR	3	8	-1	BLADE	134	n/a	-1	1	1.0	1.0	upper	../fonts/Verdana.ttf
1152534	WORD	wordpools/wasnorm_wordpool.txt	LTP077	ltpFR	3	8	-1	GOO	648	n/a	-1	1	1.0	1.0	upper	../fonts/Verdana.ttf
1156692	WORD	wordpools/wasnorm_wordpool.txt	LTP077	ltpFR	3	8	-1	MULE	931	n/a	-1	1	1.0	1.0	upper	../fonts/Verdana.ttf
1160600	WORD	wordpools/wasnorm_wordpool.txt	LTP077	ltpFR	3	8	-1	HOOD	714	n/a	-1	1	1.0	1.0	upper	../fonts/Verdana.ttf
1164508	WORD	wordpools/wasnorm_wordpool.txt	LTP077	ltpFR	3	8	-1	SPOOL	1356	n/a	-1	1	1.0	1.0	upper	../fonts/Verdana.ttf
1168641	WORD	wordpools/wasnorm_wordpool.txt	LTP077	ltpFR	3	8	-1	PORCUPINE	1107	n/a	-1	1	1.0	1.0	upper	../fonts/Verdana.ttf
1172507	WORD	wordpools/wasnorm_wordpool.txt	LTP077	ltpFR	3	8	-1	PICKLE	1059	n/a	-1	1	1.0	1.0	upper	../fonts/Verdana.ttf
1176623	WORD	wordpools/wasnorm_wordpool.txt	LTP077	ltpFR	3	8	-1	JAR	750	n/a	-1	1	1.0	1.0	upper	../fonts/Verdana.ttf
1180481	WORD	wordpools/wasnorm_wordpool.txt	LTP077	ltpFR	3	8	-1	ALLEY	15	n/a	-1	1	1.0	1.0	upper	../fonts/Verdana.ttf
1184481	WORD	wordpools/wasnorm_wordpool.txt	LTP077	ltpFR	3	8	-1	BREAST	171	n/a	-1	1	1.0	1.0	upper	../fonts/Verdana.ttf
1188455	WORD	wordpools/wasnorm_wordpool.txt	LTP077	ltpFR	3	8	-1	BANK	83	n/a	-1	1	1.0	1.0	upper	../fonts/Verdana.ttf
1192656	WORD	wordpools/wasnorm_wordpool.txt	LTP077	ltpFR	3	8	-1	CASH	252	n/a	-1	1	1.0	1.0	upper	../fonts/Verdana.ttf
1196821	WORD	wordpools/wasnorm_wordpool.txt	LTP077	ltpFR	3	8	-1	SWORD	1423	n/a	-1	1	1.0	1.0	upper	../fonts/Verdana.ttf
1202514	REC_START	n/a	LTP077	ltpFR	3	8	n/a	n/a	n/a	n/a	n/a	n/a	n/a	n/a	n/a	n/a
1202519	REC_WORD	wordpools/wasnorm_wordpool.txt	LTP077	ltpFR	3	8	-1	SWORD	1423	n/a	-1	n/a	n/a	n/a	n/a	n/a
1203251	REC_WORD	wordpools/wasnorm_wordpool.txt	LTP077	ltpFR	3	8	-1	BREAST	171	n/a	-1	n/a	n/a	n/a	n/a	n/a
1203767	REC_WORD	wordpools/wasnorm_wordpool.txt	LTP077	ltpFR	3	8	-1	BANK	83	n/a	-1	n/a	n/a	n/a	n/a	n/a
1204190	REC_WORD	wordpools/wasnorm_wordpool.txt	LTP077	ltpFR	3	8	-1	CASH	252	n/a	-1	n/a	n/a	n/a	n/a	n/a
1204726	REC_WORD	wordpools/wasnorm_wordpool.txt	LTP077	ltpFR	3	8	-1	PICKLE	1059	n/a	-1	n/a	n/a	n/a	n/a	n/a
1205142	REC_WORD	wordpools/wasnorm_wordpool.txt	LTP077	ltpFR	3	8	-1	JAR	750	n/a	-1	n/a	n/a	n/a	n/a	n/a
1205638	REC_WORD	wordpools/wasnorm_wordpool.txt	LTP077	ltpFR	3	8	-1	WART	1590	n/a	-1	n/a	n/a	n/a	n/a	n/a
1206084	REC_WORD	wordpools/wasnorm_wordpool.txt	LTP077	ltpFR	3	8	-1	LOFT	840	n/a	-1	n/a	n/a	n/a	n/a	n/a
1207677	REC_WORD	wordpools/wasnorm_wordpool.txt	LTP077	ltpFR	3	8	-1	PORCUPINE	1107	n/a	-1	n/a	n/a	n/a	n/a	n/a
1210321	REC_WORD	wordpools/wasnorm_wordpool.txt	LTP077	ltpFR	3	8	-1	MULE	931	n/a	-1	n/a	n/a	n/a	n/a	n/a
1219311	REC_WORD	wordpools/wasnorm_wordpool.txt	LTP077	ltpFR	3	8	-1	BLADE	134	n/a	-1	n/a	n/a	n/a	n/a	n/a
1236332	REC_WORD	wordpools/wasnorm_wordpool.txt	LTP077	ltpFR	3	8	n/a	QUILL	1150	n/a	n/a	n/a	n/a	n/a	n/a	n/a
1241450	REC_WORD	wordpools/wasnorm_wordpool.txt	LTP077	ltpFR	3	8	1	HEN	703	n/a	1	n/a	n/a	n/a	n/a	n/a
1285381	WORD	wordpools/wasnorm_wordpool.txt	LTP077	ltpFR	3	9	0	CUE	422	n/a	0	0	0.5869140625	0.422607421875	upper	../fonts/amplitud.ttf
1289565	WORD	wordpools/wasnorm_wordpool.txt	LTP077	ltpFR	3	9	0	LIMOUSINE	824	n/a	1	0	0.5869140625	0.422607421875	upper	../fonts/amplitud.ttf
1293548	WORD	wordpools/wasnorm_wordpool.txt	LTP077	ltpFR	3	9	0	SILVERWARE	1308	n/a	0	0	0.5869140625	0.422607421875	upper	../fonts/amplitud.ttf
1297639	WORD	wordpools/wasnorm_wordpool.txt	LTP077	ltpFR	3	9	0	CIRCUS	311	n/a	1	0	0.5869140625	0.422607421875	upper	../fonts/amplitud.ttf
1301664	WORD	wordpools/wasnorm_wordpool.txt	LTP077	ltpFR	3	9	0	COCOON	339	n/a	1	0	0.5869140625	0.422607421875	upper	../fonts/amplitud.ttf
1305639	WORD	wordpools/wasnorm_wordpool.txt	LTP077	ltpFR	3	9	0	SLEIGH	1325	n/a	1	0	0.5869140625	0.422607421875	upper	../fonts/amplitud.ttf
1309580	WORD	wordpools/wasnorm_wordpool.txt	LTP077	ltpFR	3	9	0	DINNER	468	n/a	0	0	0.5869140625	0.422607421875	upper	../fonts/amplitud.ttf
1313538	WORD	wordpools/wasnorm_wordpool.txt	LTP077	ltpFR	3	9	0	TEMPLE	1448	n/a	1	0	0.5869140625	0.422607421875	upper	../fonts/amplitud.ttf
1317404	WORD	wordpools/wasnorm_wordpool.txt	LTP077	ltpFR	3	9	0	CROSS	413	n/a	1	0	0.5869140625	0.422607421875	upper	../fonts/amplitud.ttf
1321445	WORD	wordpools/wasnorm_wordpool.txt	LTP077	ltpFR	3	9	0	FOLLOWER	589	n/a	1	0	0.5869140625	0.422607421875	upper	../fonts/amplitud.ttf
1325562	WORD	wordpools/wasnorm_wordpool.txt	LTP077	ltpFR	3	9	0	LOCK	838	n/a	1	0	0.5869140625	0.422607421875	upper	../fonts/amplitud.ttf
1329487	WORD	wordpools/wasnorm_wordpool.txt	LTP077	ltpFR	3	9	0	CLOSET	326	n/a	1	0	0.5869140625	0.422607421875	upper	../fonts/amplitud.ttf
1333553	WORD	wordpools/wasnorm_wordpool.txt	LTP077	ltpFR	3	9	0	MEAL	882	n/a	1	0	0.5869140625	0.422607421875	upper	../fonts/amplitud.ttf
1337603	WORD	wordpools/wasnorm_wordpool.txt	LTP077	ltpFR	3	9	0	TRAY	1498	n/a	1	0	0.5869140625	0.422607421875	upper	../fonts/amplitud.ttf
1341611	WORD	wordpools/wasnorm_wordpool.txt	LTP077	ltpFR	3	9	0	CYLINDER	432	n/a	1	0	0.5869140625	0.422607421875	upper	../fonts/amplitud.ttf
1345477	WORD	wordpools/wasnorm_wordpool.txt	LTP077	ltpFR	3	9	0	DASHBOARD	441	n/a	0	0	0.5869140625	0.422607421875	upper	../fonts/amplitud.ttf
1351144	REC_START	n/a	LTP077	ltpFR	3	9	n/a	n/a	n/a	n/a	n/a	n/a	n/a	n/a	n/a	n/a
1351413	REC_WORD	wordpools/wasnorm_wordpool.txt	LTP077	ltpFR	3	9	0	DASHBOARD	441	n/a	0	n/a	n/a	n/a	n/a	n/a
1354122	REC_WORD	wordpools/wasnorm_wordpool.txt	LTP077	ltpFR	3	9	0	CUE	422	n/a	0	n/a	n/a	n/a	n/a	n/a
1355122	REC_WORD	wordpools/wasnorm_wordpool.txt	LTP077	ltpFR	3	9	0	LIMOUSINE	824	n/a	1	n/a	n/a	n/a	n/a	n/a
1361959	REC_WORD	wordpools/wasnorm_wordpool.txt	LTP077	ltpFR	3	9	0	DINNER	468	n/a	0	n/a	n/a	n/a	n/a	n/a
1363536	REC_WORD	wordpools/wasnorm_wordpool.txt	LTP077	ltpFR	3	9	0	MEAL	882	n/a	1	n/a	n/a	n/a	n/a	n/a
1381659	REC_WORD	wordpools/wasnorm_wordpool.txt	LTP077	ltpFR	3	9	n/a	HACK	-1	n/a	n/a	n/a	n/a	n/a	n/a	n/a
1387516	REC_WORD	wordpools/wasnorm_wordpool.txt	LTP077	ltpFR	3	9	0	FOLLOWER	589	n/a	1	n/a	n/a	n/a	n/a	n/a
1387980	REC_WORD	wordpools/wasnorm_wordpool.txt	LTP077	ltpFR	3	9	0	TEMPLE	1448	n/a	1	n/a	n/a	n/a	n/a	n/a
1388703	REC_WORD	wordpools/wasnorm_wordpool.txt	LTP077	ltpFR	3	9	0	CROSS	413	n/a	1	n/a	n/a	n/a	n/a	n/a
1459669	WORD	wordpools/wasnorm_wordpool.txt	LTP077	ltpFR	3	10	1	JOURNAL	760	n/a	0	1	0.412841796875	0.57763671875	lower	../fonts/zerothre.ttf
1463818	WORD	wordpools/wasnorm_wordpool.txt	LTP077	ltpFR	3	10	1	SHOELACE	1289	n/a	0	1	0.412841796875	0.57763671875	lower	../fonts/zerothre.ttf
1467635	WORD	wordpools/wasnorm_wordpool.txt	LTP077	ltpFR	3	10	1	MAILMAN	858	n/a	0	1	0.412841796875	0.57763671875	lower	../fonts/zerothre.ttf
1471660	WORD	wordpools/wasnorm_wordpool.txt	LTP077	ltpFR	3	10	0	MOSQUITO	917	n/a	0	0	0.5869140625	0.422607421875	upper	../fonts/amplitud.ttf
1475701	WORD	wordpools/wasnorm_wordpool.txt	LTP077	ltpFR	3	10	0	SPIDER	1351	n/a	0	0	0.5869140625	0.422607421875	upper	../fonts/amplitud.ttf
1479767	WORD	wordpools/wasnorm_wordpool.txt	LTP077	ltpFR	3	10	0	INMATE	738	n/a	1	0	0.5869140625	0.422607421875	upper	../fonts/amplitud.ttf
1483758	WORD	wordpools/wasnorm_wordpool.txt	LTP077	ltpFR	3	10	0	WHEEL	1603	n/a	0	0	0.5869140625	0.422607421875	upper	../fonts/amplitud.ttf
1487575	WORD	wordpools/wasnorm_wordpool.txt	LTP077	ltpFR	3	10	1	PREDATOR	1120	n/a	0	1	0.412841796875	0.57763671875	lower	../fonts/zerothre.ttf
1491667	WORD	wordpools/wasnorm_wordpool.txt	LTP077	ltpFR	3	10	1	BUGLE	189	n/a	0	1	0.412841796875	0.57763671875	lower	../fonts/zerothre.ttf
1495815	WORD	wordpools/wasnorm_wordpool.txt	LTP077	ltpFR	3	10	1	COOK	372	n/a	0	1	0.412841796875	0.57763671875	lower	../fonts/zerothre.ttf
1499674	WORD	wordpools/wasnorm_wordpool.txt	LTP077	ltpFR	3	10	1	FORK	594	n/a	0	1	0.412841796875	0.57763671875	lower	../fonts/zerothre.ttf
1503724	WORD	wordpools/wasnorm_wordpool.txt	LTP077	ltpFR	3	10	1	FREEWAY	603	n/a	1	1	0.412841796875	0.57763671875	lower	../fonts/zerothre.ttf
1507789	WORD	wordpools/wasnorm_wordpool.txt	LTP077	ltpFR	3	10	0	VAN	1548	n/a	1	0	0.5869140625	0.422607421875	upper	../fonts/amplitud.ttf
1511947	WORD	wordpools/wasnorm_wordpool.txt	LTP077	ltpFR	3	10	0	MESSAGE	888	n/a	0	0	0.5869140625	0.422607421875	upper	../fonts/amplitud.ttf
1515864	WORD	wordpools/wasnorm_wordpool.txt	LTP077	ltpFR	3	10	0	MAILBOX	857	n/a	1	0	0.5869140625	0.422607421875	upper	../fonts/amplitud.ttf
1519764	WORD	wordpools/wasnorm_wordpool.txt	LTP077	ltpFR	3	10	0	MAMMAL	861	n/a	1	0	0.5869140625	0.422607421875	upper	../fonts/amplitud.ttf
1525606	REC_START	n/a	LTP077	ltpFR	3	10	n/a	n/a	n/a	n/a	n/a	n/a	n/a	n/a	n/a	n/a
1525880	REC_WORD	wordpools/wasnorm_wordpool.txt	LTP077	ltpFR	3	10	0	MAMMAL	861	n/a	1	n/a	n/a	n/a	n/a	n/a
1527028	REC_WORD	wordpools/wasnorm_wordpool.txt	LTP077	ltpFR	3	10	0	VAN	1548	n/a	1	n/a	n/a	n/a	n/a	n/a
1528340	REC_WORD	wordpools/wasnorm_wordpool.txt	LTP077	ltpFR	3	10	1	FREEWAY	603	n/a	1	n/a	n/a	n/a	n/a	n/a
1529821	REC_WORD	wordpools/wasnorm_wordpool.txt	LTP077	ltpFR	3	10	0	MAILBOX	857	n/a	1	n/a	n/a	n/a	n/a	n/a
1530939	REC_WORD	wordpools/wasnorm_wordpool.txt	LTP077	ltpFR	3	10	1	MAILMAN	858	n/a	0	n/a	n/a	n/a	n/a	n/a
1531996	REC_WORD	wordpools/wasnorm_wordpool.txt	LTP077	ltpFR	3	10	1	JOURNAL	760	n/a	0	n/a	n/a	n/a	n/a	n/a
1532964	REC_WORD	wordpools/wasnorm_wordpool.txt	LTP077	ltpFR	3	10	1	SHOELACE	1289	n/a	0	n/a	n/a	n/a	n/a	n/a
1542777	REC_WORD	wordpools/wasnorm_wordpool.txt	LTP077	ltpFR	3	10	n/a	PRISONER	1128	n/a	n/a	n/a	n/a	n/a	n/a	n/a
1548030	REC_WORD	wordpools/wasnorm_wordpool.txt	LTP077	ltpFR	3	10	n/a	SHOULDER	1294	n/a	n/a	n/a	n/a	n/a	n/a	n/a
1645212	WORD	wordpools/wasnorm_wordpool.txt	LTP077	ltpFR	3	11	0	ROD	1203	n/a	1	0	0.5869140625	0.422607421875	upper	../fonts/amplitud.ttf
1649137	WORD	wordpools/wasnorm_wordpool.txt	LTP077	ltpFR	3	11	0	TANGERINE	1431	n/a	0	0	0.5869140625	0.422607421875	upper	../fonts/amplitud.ttf
1653087	WORD	wordpools/wasnorm_wordpool.txt	LTP077	ltpFR	3	11	0	LODGE	839	n/a	1	0	0.5869140625	0.422607421875	upper	../fonts/amplitud.ttf
1657178	WORD	wordpools/wasnorm_wordpool.txt	LTP077	ltpFR	3	11	0	HALL	677	n/a	1	0	0.5869140625	0.422607421875	upper	../fonts/amplitud.ttf
1661203	WORD	wordpools/wasnorm_wordpool.txt	LTP077	ltpFR	3	11	0	APPLE	33	n/a	1	0	0.5869140625	0.422607421875	upper	../fonts/amplitud.ttf
1665128	WORD	wordpools/wasnorm_wordpool.txt	LTP077	ltpFR	3	11	0	PREACHER	1119	n/a	1	0	0.5869140625	0.422607421875	upper	../fonts/amplitud.ttf
1669202	WORD	wordpools/wasnorm_wordpool.txt	LTP077	ltpFR	3	11	0	POPE	1105	n/a	1	0	0.5869140625	0.422607421875	upper	../fonts/amplitud.ttf
1673160	WORD	wordpools/wasnorm_wordpool.txt	LTP077	ltpFR	3	11	0	OATMEAL	967	n/a	1	0	0.5869140625	0.422607421875	upper	../fonts/amplitud.ttf
1677360	WORD	wordpools/wasnorm_wordpool.txt	LTP077	ltpFR	3	11	0	FROST	609	n/a	0	0	0.5869140625	0.422607421875	upper	../fonts/amplitud.ttf
1681202	WORD	wordpools/wasnorm_wordpool.txt	LTP077	ltpFR	3	11	0	CABLE	213	n/a	1	0	0.5869140625	0.422607421875	upper	../fonts/amplitud.ttf
1685185	WORD	wordpools/wasnorm_wordpool.txt	LTP077	ltpFR	3	11	0	ROOM	1206	n/a	1	0	0.5869140625	0.422607421875	upper	../fonts/amplitud.ttf
1689359	WORD	wordpools/wasnorm_wordpool.txt	LTP077	ltpFR	3	11	0	LAKE	796	n/a	1	0	0.5869140625	0.422607421875	upper	../fonts/amplitud.ttf
1693359	WORD	wordpools/wasnorm_wordpool.txt	LTP077	ltpFR	3	11	0	SOCK	1339	n/a	0	0	0.5869140625	0.422607421875	upper	../fonts/amplitud.ttf
1697493	WORD	wordpools/wasnorm_wordpool.txt	LTP077	ltpFR	3	11	0	ASTEROID	50	n/a	1	0	0.5869140625	0.422607421875	upper	../fonts/amplitud.ttf
1701659	WORD	wordpools/wasnorm_wordpool.txt	LTP077	ltpFR	3	11	0	FLIPPER	580	n/a	1	0	0.5869140625	0.422607421875	upper	../fonts/amplitud.ttf
1705709	WORD	wordpools/wasnorm_wordpool.txt	LTP077	ltpFR	3	11	0	SHARK	1275	n/a	1	0	0.5869140625	0.422607421875	upper	../fonts/amplitud.ttf
1711509	REC_START	n/a	LTP077	ltpFR	3	11	n/a	n/a	n/a	n/a	n/a	n/a	n/a	n/a	n/a	n/a
1711843	REC_WORD	wordpools/wasnorm_wordpool.txt	LTP077	ltpFR	3	11	0	SHARK	1275	n/a	1	n/a	n/a	n/a	n/a	n/a
1713040	REC_WORD	wordpools/wasnorm_wordpool.txt	LTP077	ltpFR	3	11	0	LAKE	796	n/a	1	n/a	n/a	n/a	n/a	n/a
1713689	REC_WORD	wordpools/wasnorm_wordpool.txt	LTP077	ltpFR	3	11	0	ASTEROID	50	n/a	1	n/a	n/a	n/a	n/a	n/a
1714589	REC_WORD	wordpools/wasnorm_wordpool.txt	LTP077	ltpFR	3	11	0	FLIPPER	580	n/a	1	n/a	n/a	n/a	n/a	n/a
1716842	REC_WORD	wordpools/wasnorm_wordpool.txt	LTP077	ltpFR	3	11	0	ROD	1203	n/a	1	n/a	n/a	n/a	n/a	n/a
1717452	REC_WORD	wordpools/wasnorm_wordpool.txt	LTP077	ltpFR	3	11	n/a	LOUNGE	845	n/a	n/a	n/a	n/a	n/a	n/a	n/a
1718341	REC_WORD	wordpools/wasnorm_wordpool.txt	LTP077	ltpFR	3	11	0	ROOM	1206	n/a	1	n/a	n/a	n/a	n/a	n/a
1719049	REC_WORD	wordpools/wasnorm_wordpool.txt	LTP077	ltpFR	3	11	0	HALL	677	n/a	1	n/a	n/a	n/a	n/a	n/a
1719771	REC_WORD	wordpools/wasnorm_wordpool.txt	LTP077	ltpFR	3	11	0	TANGERINE	1431	n/a	0	n/a	n/a	n/a	n/a	n/a
1720563	REC_WORD	wordpools/wasnorm_wordpool.txt	LTP077	ltpFR	3	11	0	APPLE	33	n/a	1	n/a	n/a	n/a	n/a	n/a
1723097	REC_WORD	wordpools/wasnorm_wordpool.txt	LTP077	ltpFR	3	11	0	PREACHER	1119	n/a	1	n/a	n/a	n/a	n/a	n/a
1723715	REC_WORD	wordpools/wasnorm_wordpool.txt	LTP077	ltpFR	3	11	0	POPE	1105	n/a	1	n/a	n/a	n/a	n/a	n/a
1753638	REC_WORD	wordpools/wasnorm_wordpool.txt	LTP077	ltpFR	3	11	0	CABLE	213	n/a	1	n/a	n/a	n/a	n/a	n/a
1761485	REC_WORD	wordpools/wasnorm_wordpool.txt	LTP077	ltpFR	3	11	0	LAKE	796	n/a	1	n/a	n/a	n/a	n/a	n/a
1767906	REC_WORD	wordpools/wasnorm_wordpool.txt	LTP077	ltpFR	3	11	0	SHARK	1275	n/a	1	n/a	n/a	n/a	n/a	n/a
1773114	REC_WORD	wordpools/wasnorm_wordpool.txt	LTP077	ltpFR	3	11	0	VAN	1548	n/a	1	n/a	n/a	n/a	n/a	n/a
1790843	WORD	wordpools/wasnorm_wordpool.txt	LTP077	ltpFR	3	12	0	VIKING	1565	n/a	1	0	0.5869140625	0.422607421875	upper	../fonts/amplitud.ttf
1794968	WORD	wordpools/wasnorm_wordpool.txt	LTP077	ltpFR	3	12	0	GRILL	661	n/a	1	0	0.5869140625	0.422607421875	upper	../fonts/amplitud.ttf
1798951	WORD	wordpools/wasnorm_wordpool.txt	LTP077	ltpFR	3	12	0	SHOWER	1296	n/a	0	0	0.5869140625	0.422607421875	upper	../fonts/amplitud.ttf
1803026	WORD	wordpools/wasnorm_wordpool.txt	LTP077	ltpFR	3	12	0	CLOUD	328	n/a	1	0	0.5869140625	0.422607421875	upper	../fonts/amplitud.ttf
1807125	WORD	wordpools/wasnorm_wordpool.txt	LTP077	ltpFR	3	12	0	TORNADO	1485	n/a	1	0	0.5869140625	0.422607421875	upper	../fonts/amplitud.ttf
1811308	WORD	wordpools/wasnorm_wordpool.txt	LTP077	ltpFR	3	12	0	TUB	1514	n/a	1	0	0.5869140625	0.422607421875	upper	../fonts/amplitud.ttf
1815475	WORD	wordpools/wasnorm_wordpool.txt	LTP077	ltpFR	3	12	0	TOWEL	1489	n/a	n/a	0	0.5869140625	0.422607421875	upper	../fonts/amplitud.ttf
1818501	SLOW_MSG	n/a	LTP077	ltpFR	3	12	n/a	n/a	n/a	n/a	n/a	n/a	n/a	n/a	n/a	n/a
1820999	WORD	wordpools/wasnorm_wordpool.txt	LTP077	ltpFR	3	12	0	PELICAN	1039	n/a	1	0	0.5869140625	0.422607421875	upper	../fonts/amplitud.ttf
1825049	WORD	wordpools/wasnorm_wordpool.txt	LTP077	ltpFR	3	12	0	QUARTER	1148	n/a	0	0	0.5869140625	0.422607421875	upper	../fonts/amplitud.ttf
1828899	WORD	wordpools/wasnorm_wordpool.txt	LTP077	ltpFR	3	12	0	BANKER	84	n/a	1	0	0.5869140625	0.422607421875	upper	../fonts/amplitud.ttf
1833007	WORD	wordpools/wasnorm_wordpool.txt	LTP077	ltpFR	3	12	0	SALAD	1224	n/a	0	0	0.5869140625	0.422607421875	upper	../fonts/amplitud.ttf
1837123	WORD	wordpools/wasnorm_wordpool.txt	LTP077	ltpFR	3	12	0	RIVER	1194	n/a	1	0	0.5869140625	0.422607421875	upper	../fonts/amplitud.ttf
1841098	WORD	wordpools/wasnorm_wordpool.txt	LTP077	ltpFR	3	12	0	FOUNTAIN	597	n/a	1	0	0.5869140625	0.422607421875	upper	../fonts/amplitud.ttf
1845256	WORD	wordpools/wasnorm_wordpool.txt	LTP077	ltpFR	3	12	0	GULL	671	n/a	1	0	0.5869140625	0.422607421875	upper	../fonts/amplitud.ttf
1849431	WORD	wordpools/wasnorm_wordpool.txt	LTP077	ltpFR	3	12	0	DOVE	491	n/a	1	0	0.5869140625	0.422607421875	upper	../fonts/amplitud.ttf
1853280	WORD	wordpools/wasnorm_wordpool.txt	LTP077	ltpFR	3	12	0	HAMBURGER	679	n/a	1	0	0.5869140625	0.422607421875	upper	../fonts/amplitud.ttf
1858897	REC_START	n/a	LTP077	ltpFR	3	12	n/a	n/a	n/a	n/a	n/a	n/a	n/a	n/a	n/a	n/a
1859520	REC_WORD	wordpools/wasnorm_wordpool.txt	LTP077	ltpFR	3	12	0	QUARTER	1148	n/a	0	n/a	n/a	n/a	n/a	n/a
1860297	REC_WORD	wordpools/wasnorm_wordpool.txt	LTP077	ltpFR	3	12	0	PELICAN	1039	n/a	1	n/a	n/a	n/a	n/a	n/a
1861038	REC_WORD	wordpools/wasnorm_wordpool.txt	LTP077	ltpFR	3	12	0	FOUNTAIN	597	n/a	1	n/a	n/a	n/a	n/a	n/a
1868680	REC_WORD	wordpools/wasnorm_wordpool.txt	LTP077	ltpFR	3	12	0	HAMBURGER	679	n/a	1	n/a	n/a	n/a	n/a	n/a
1869607	REC_WORD	wordpools/wasnorm_wordpool.txt	LTP077	ltpFR	3	12	0	GRILL	661	n/a	1	n/a	n/a	n/a	n/a	n/a
1870157	REC_WORD	wordpools/wasnorm_wordpool.txt	LTP077	ltpFR	3	12	0	VIKING	1565	n/a	1	n/a	n/a	n/a	n/a	n/a
1870936	REC_WORD	wordpools/wasnorm_wordpool.txt	LTP077	ltpFR	3	12	0	CLOUD	328	n/a	1	n/a	n/a	n/a	n/a	n/a
1874397	REC_WORD	wordpools/wasnorm_wordpool.txt	LTP077	ltpFR	3	12	0	SHOWER	1296	n/a	0	n/a	n/a	n/a	n/a	n/a
1875151	REC_WORD	wordpools/wasnorm_wordpool.txt	LTP077	ltpFR	3	12	0	TUB	1514	n/a	1	n/a	n/a	n/a	n/a	n/a
1875710	REC_WORD	wordpools/wasnorm_wordpool.txt	LTP077	ltpFR	3	12	0	TOWEL	1489	n/a	n/a	n/a	n/a	n/a	n/a	n/a
1877085	REC_WORD	wordpools/wasnorm_wordpool.txt	LTP077	ltpFR	3	12	n/a	BATHTUB	100	n/a	n/a	n/a	n/a	n/a	n/a	n/a
1880493	REC_WORD	wordpools/wasnorm_wordpool.txt	LTP077	ltpFR	3	12	n/a	BATH	98	n/a	n/a	n/a	n/a	n/a	n/a	n/a
1890360	REC_WORD	wordpools/wasnorm_wordpool.txt	LTP077	ltpFR	3	12	0	BANKER	84	n/a	1	n/a	n/a	n/a	n/a	n/a
1890854	REC_WORD	wordpools/wasnorm_wordpool.txt	LTP077	ltpFR	3	12	0	QUARTER	1148	n/a	0	n/a	n/a	n/a	n/a	n/a
1905032	REC_WORD	wordpools/wasnorm_wordpool.txt	LTP077	ltpFR	3	12	0	DOVE	491	n/a	1	n/a	n/a	n/a	n/a	n/a
1907062	REC_WORD	wordpools/wasnorm_wordpool.txt	LTP077	ltpFR	3	12	0	PELICAN	1039	n/a	1	n/a	n/a	n/a	n/a	n/a
1915119	REC_WORD	wordpools/wasnorm_wordpool.txt	LTP077	ltpFR	3	12	0	GULL	671	n/a	1	n/a	n/a	n/a	n/a	n/a
1916960	REC_WORD	wordpools/wasnorm_wordpool.txt	LTP077	ltpFR	3	12	0	LAKE	796	n/a	1	n/a	n/a	n/a	n/a	n/a
1919988	REC_WORD	wordpools/wasnorm_wordpool.txt	LTP077	ltpFR	3	12	0	RIVER	1194	n/a	1	n/a	n/a	n/a	n/a	n/a
1934500	REST_REWET	n/a	LTP077	ltpFR	3	12	n/a	n/a	n/a	n/a	n/a	n/a	n/a	n/a	n/a	n/a
2637380	WORD	wordpools/wasnorm_wordpool.txt	LTP077	ltpFR	3	13	-1	BLOUSE	139	n/a	-1	1	1.0	1.0	upper	../fonts/Verdana.ttf
2641430	WORD	wordpools/wasnorm_wordpool.txt	LTP077	ltpFR	3	13	-1	COTTAGE	384	n/a	-1	1	1.0	1.0	upper	../fonts/Verdana.ttf
2645597	WORD	wordpools/wasnorm_wordpool.txt	LTP077	ltpFR	3	13	-1	GRATE	657	n/a	-1	1	1.0	1.0	upper	../fonts/Verdana.ttf
2649804	WORD	wordpools/wasnorm_wordpool.txt	LTP077	ltpFR	3	13	-1	DIRECTOR	471	n/a	-1	1	1.0	1.0	upper	../fonts/Verdana.ttf
2653921	WORD	wordpools/wasnorm_wordpool.txt	LTP077	ltpFR	3	13	-1	FOREST	593	n/a	-1	1	1.0	1.0	upper	../fonts/Verdana.ttf
2657987	WORD	wordpools/wasnorm_wordpool.txt	LTP077	ltpFR	3	13	-1	CREVICE	405	n/a	-1	1	1.0	1.0	upper	../fonts/Verdana.ttf
2662087	WORD	wordpools/wasnorm_wordpool.txt	LTP077	ltpFR	3	13	-1	GALAXY	617	n/a	-1	1	1.0	1.0	upper	../fonts/Verdana.ttf
2666270	WORD	wordpools/wasnorm_wordpool.txt	LTP077	ltpFR	3	13	-1	SENATOR	1268	n/a	-1	1	1.0	1.0	upper	../fonts/Verdana.ttf
2670095	WORD	wordpools/wasnorm_wordpool.txt	LTP077	ltpFR	3	13	-1	POPCORN	1104	n/a	-1	1	1.0	1.0	upper	../fonts/Verdana.ttf
2673919	WORD	wordpools/wasnorm_wordpool.txt	LTP077	ltpFR	3	13	-1	QUEEN	1149	n/a	-1	1	1.0	1.0	upper	../fonts/Verdana.ttf
2677894	WORD	wordpools/wasnorm_wordpool.txt	LTP077	ltpFR	3	13	-1	KING	777	n/a	-1	1	1.0	1.0	upper	../fonts/Verdana.ttf
2681960	WORD	wordpools/wasnorm_wordpool.txt	LTP077	ltpFR	3	13	-1	GOWN	652	n/a	-1	1	1.0	1.0	upper	../fonts/Verdana.ttf
2686043	WORD	wordpools/wasnorm_wordpool.txt	LTP077	ltpFR	3	13	-1	LITTER	832	n/a	-1	1	1.0	1.0	upper	../fonts/Verdana.ttf
2690168	WORD	wordpools/wasnorm_wordpool.txt	LTP077	ltpFR	3	13	-1	BOX	159	n/a	-1	1	1.0	1.0	upper	../fonts/Verdana.ttf
2694051	WORD	wordpools/wasnorm_wordpool.txt	LTP077	ltpFR	3	13	-1	CELERY	266	n/a	-1	1	1.0	1.0	upper	../fonts/Verdana.ttf
2697893	WORD	wordpools/wasnorm_wordpool.txt	LTP077	ltpFR	3	13	-1	PAVEMENT	1028	n/a	-1	1	1.0	1.0	upper	../fonts/Verdana.ttf
2703768	REC_START	n/a	LTP077	ltpFR	3	13	n/a	n/a	n/a	n/a	n/a	n/a	n/a	n/a	n/a	n/a
2704112	REC_WORD	wordpools/wasnorm_wordpool.txt	LTP077	ltpFR	3	13	-1	PAVEMENT	1028	n/a	-1	n/a	n/a	n/a	n/a	n/a
2704721	REC_WORD	wordpools/wasnorm_wordpool.txt	LTP077	ltpFR	3	13	-1	LITTER	832	n/a	-1	n/a	n/a	n/a	n/a	n/a
2705250	REC_WORD	wordpools/wasnorm_wordpool.txt	LTP077	ltpFR	3	13	-1	BOX	159	n/a	-1	n/a	n/a	n/a	n/a	n/a
2705764	REC_WORD	wordpools/wasnorm_wordpool.txt	LTP077	ltpFR	3	13	-1	COTTAGE	384	n/a	-1	n/a	n/a	n/a	n/a	n/a
2706205	REC_WORD	wordpools/wasnorm_wordpool.txt	LTP077	ltpFR	3	13	-1	CELERY	266	n/a	-1	n/a	n/a	n/a	n/a	n/a
2707629	REC_WORD	wordpools/wasnorm_wordpool.txt	LTP077	ltpFR	3	13	-1	DIRECTOR	471	n/a	-1	n/a	n/a	n/a	n/a	n/a
2708523	REC_WORD	wordpools/wasnorm_wordpool.txt	LTP077	ltpFR	3	13	-1	BLOUSE	139	n/a	-1	n/a	n/a	n/a	n/a	n/a
2709098	REC_WORD	wordpools/wasnorm_wordpool.txt	LTP077	ltpFR	3	13	-1	SENATOR	1268	n/a	-1	n/a	n/a	n/a	n/a	n/a
2709770	REC_WORD	wordpools/wasnorm_wordpool.txt	LTP077	ltpFR	3	13	-1	GALAXY	617	n/a	-1	n/a	n/a	n/a	n/a	n/a
2711196	REC_WORD	wordpools/wasnorm_wordpool.txt	LTP077	ltpFR	3	13	0	DRESS	495	n/a	1	n/a	n/a	n/a	n/a	n/a
2716948	REC_WORD	wordpools/wasnorm_wordpool.txt	LTP077	ltpFR	3	13	-1	GOWN	652	n/a	-1	n/a	n/a	n/a	n/a	n/a
2720210	REC_WORD	wordpools/wasnorm_wordpool.txt	LTP077	ltpFR	3	13	-1	CREVICE	405	n/a	-1	n/a	n/a	n/a	n/a	n/a
2724580	REC_WORD	wordpools/wasnorm_wordpool.txt	LTP077	ltpFR	3	13	-1	FOREST	593	n/a	-1	n/a	n/a	n/a	n/a	n/a
2733286	REC_WORD	wordpools/wasnorm_wordpool.txt	LTP077	ltpFR	3	13	-1	GOWN	652	n/a	-1	n/a	n/a	n/a	n/a	n/a
2736708	REC_WORD	wordpools/wasnorm_wordpool.txt	LTP077	ltpFR	3	13	-1	POPCORN	1104	n/a	-1	n/a	n/a	n/a	n/a	n/a
2772751	REC_WORD	wordpools/wasnorm_wordpool.txt	LTP077	ltpFR	3	13	-1	GRATE	657	n/a	-1	n/a	n/a	n/a	n/a	n/a
2775879	REC_WORD	wordpools/wasnorm_wordpool.txt	LTP077	ltpFR	3	13	-1	BOX	159	n/a	-1	n/a	n/a	n/a	n/a	n/a
2782911	WORD	wordpools/wasnorm_wordpool.txt	LTP077	ltpFR	3	14	1	TAPIOCA	1434	n/a	1	1	0.412841796875	0.57763671875	lower	../fonts/zerothre.ttf
2786878	WORD	wordpools/wasnorm_wordpool.txt	LTP077	ltpFR	3	14	1	SHEPHERD	1283	n/a	1	1	0.412841796875	0.57763671875	lower	../fonts/zerothre.ttf
2790986	WORD	wordpools/wasnorm_wordpool.txt	LTP077	ltpFR	3	14	1	SHEEP	1278	n/a	1	1	0.412841796875	0.57763671875	lower	../fonts/zerothre.ttf
2794919	WORD	wordpools/wasnorm_wordpool.txt	LTP077	ltpFR	3	14	1	PAWN	1030	n/a	1	1	0.412841796875	0.57763671875	lower	../fonts/zerothre.ttf
2799077	WORD	wordpools/wasnorm_wordpool.txt	LTP077	ltpFR	3	14	1	ICE	730	n/a	1	1	0.412841796875	0.57763671875	lower	../fonts/zerothre.ttf
2803101	WORD	wordpools/wasnorm_wordpool.txt	LTP077	ltpFR	3	14	1	WHIP	1604	n/a	1	1	0.412841796875	0.57763671875	lower	../fonts/zerothre.ttf
2807068	WORD	wordpools/wasnorm_wordpool.txt	LTP077	ltpFR	3	14	1	MECHANIC	884	n/a	1	1	0.412841796875	0.57763671875	lower	../fonts/zerothre.ttf
2811009	WORD	wordpools/wasnorm_wordpool.txt	LTP077	ltpFR	3	14	1	EYE	545	n/a	0	1	0.412841796875	0.57763671875	lower	../fonts/zerothre.ttf
2815017	WORD	wordpools/wasnorm_wordpool.txt	LTP077	ltpFR	3	14	1	FLASK	576	n/a	0	1	0.412841796875	0.57763671875	lower	../fonts/zerothre.ttf
2818983	WORD	wordpools/wasnorm_wordpool.txt	LTP077	ltpFR	3	14	1	TAVERN	1437	n/a	0	1	0.412841796875	0.57763671875	lower	../fonts/zerothre.ttf
2823050	WORD	wordpools/wasnorm_wordpool.txt	LTP077	ltpFR	3	14	1	SPOUSE	1358	n/a	1	1	0.412841796875	0.57763671875	lower	../fonts/zerothre.ttf
2827016	WORD	wordpools/wasnorm_wordpool.txt	LTP077	ltpFR	3	14	1	BUGGY	188	n/a	0	1	0.412841796875	0.57763671875	lower	../fonts/zerothre.ttf
2830924	WORD	wordpools/wasnorm_wordpool.txt	LTP077	ltpFR	3	14	1	TEACHER	1440	n/a	1	1	0.412841796875	0.57763671875	lower	../fonts/zerothre.ttf
2835107	WORD	wordpools/wasnorm_wordpool.txt	LTP077	ltpFR	3	14	1	GLASS	639	n/a	1	1	0.412841796875	0.57763671875	lower	../fonts/zerothre.ttf
2839257	WORD	wordpools/wasnorm_wordpool.txt	LTP077	ltpFR	3	14	1	CANDY	230	n/a	0	1	0.412841796875	0.57763671875	lower	../fonts/zerothre.ttf
2843382	WORD	wordpools/wasnorm_wordpool.txt	LTP077	ltpFR	3	14	1	MARKET	871	n/a	0	1	0.412841796875	0.57763671875	lower	../fonts/zerothre.ttf
2849365	REC_START	n/a	LTP077	ltpFR	3	14	n/a	n/a	n/a	n/a	n/a	n/a	n/a	n/a	n/a	n/a
2849849	REC_WORD	wordpools/wasnorm_wordpool.txt	LTP077	ltpFR	3	14	1	CANDY	230	n/a	0	n/a	n/a	n/a	n/a	n/a
2850729	REC_WORD	wordpools/wasnorm_wordpool.txt	LTP077	ltpFR	3	14	1	MARKET	871	n/a	0	n/a	n/a	n/a	n/a	n/a
2852333	REC_WORD	wordpools/wasnorm_wordpool.txt	LTP077	ltpFR	3	14	1	TAPIOCA	1434	n/a	1	n/a	n/a	n/a	n/a	n/a
2853720	REC_WORD	wordpools/wasnorm_wordpool.txt	LTP077	ltpFR	3	14	1	SHEPHERD	1283	n/a	1	n/a	n/a	n/a	n/a	n/a
2854687	REC_WORD	wordpools/wasnorm_wordpool.txt	LTP077	ltpFR	3	14	1	SHEEP	1278	n/a	1	n/a	n/a	n/a	n/a	n/a
2856563	REC_WORD	wordpools/wasnorm_wordpool.txt	LTP077	ltpFR	3	14	1	WHIP	1604	n/a	1	n/a	n/a	n/a	n/a	n/a
2861607	REC_WORD	wordpools/wasnorm_wordpool.txt	LTP077	ltpFR	3	14	n/a	TOWN	1491	n/a	n/a	n/a	n/a	n/a	n/a	n/a
2864630	REC_WORD	wordpools/wasnorm_wordpool.txt	LTP077	ltpFR	3	14	1	MECHANIC	884	n/a	1	n/a	n/a	n/a	n/a	n/a
2867748	REC_WORD	wordpools/wasnorm_wordpool.txt	LTP077	ltpFR	3	14	1	BUGGY	188	n/a	0	n/a	n/a	n/a	n/a	n/a
2928250	WORD	wordpools/wasnorm_wordpool.txt	LTP077	ltpFR	3	15	-1	EARRING	514	n/a	-1	1	1.0	1.0	upper	../fonts/Verdana.ttf
2932417	WORD	wordpools/wasnorm_wordpool.txt	LTP077	ltpFR	3	15	-1	SLEEVE	1324	n/a	-1	1	1.0	1.0	upper	../fonts/Verdana.ttf
2936258	WORD	wordpools/wasnorm_wordpool.txt	LTP077	ltpFR	3	15	-1	TAXI	1438	n/a	-1	1	1.0	1.0	upper	../fonts/Verdana.ttf
2940341	WORD	wordpools/wasnorm_wordpool.txt	LTP077	ltpFR	3	15	-1	DUNE	506	n/a	-1	1	1.0	1.0	upper	../fonts/Verdana.ttf
2944258	WORD	wordpools/wasnorm_wordpool.txt	LTP077	ltpFR	3	15	-1	ATTORNEY	58	n/a	-1	1	1.0	1.0	upper	../fonts/Verdana.ttf
2948199	WORD	wordpools/wasnorm_wordpool.txt	LTP077	ltpFR	3	15	-1	DOLLAR	482	n/a	-1	1	1.0	1.0	upper	../fonts/Verdana.ttf
2952332	WORD	wordpools/wasnorm_wordpool.txt	LTP077	ltpFR	3	15	-1	SLIME	1327	n/a	-1	1	1.0	1.0	upper	../fonts/Verdana.ttf
2956273	WORD	wordpools/wasnorm_wordpool.txt	LTP077	ltpFR	3	15	-1	PRIEST	1122	n/a	-1	1	1.0	1.0	upper	../fonts/Verdana.ttf
2960123	WORD	wordpools/wasnorm_wordpool.txt	LTP077	ltpFR	3	15	-1	PLANT	1083	n/a	-1	1	1.0	1.0	upper	../fonts/Verdana.ttf
2963939	WORD	wordpools/wasnorm_wordpool.txt	LTP077	ltpFR	3	15	-1	STEM	1376	n/a	-1	1	1.0	1.0	upper	../fonts/Verdana.ttf
2967897	WORD	wordpools/wasnorm_wordpool.txt	LTP077	ltpFR	3	15	-1	TORTOISE	1486	n/a	-1	1	1.0	1.0	upper	../fonts/Verdana.ttf
2971747	WORD	wordpools/wasnorm_wordpool.txt	LTP077	ltpFR	3	15	-1	FIREMAN	569	n/a	-1	1	1.0	1.0	upper	../fonts/Verdana.ttf
2975797	WORD	wordpools/wasnorm_wordpool.txt	LTP077	ltpFR	3	15	-1	FIGHTER	564	n/a	-1	1	1.0	1.0	upper	../fonts/Verdana.ttf
2979698	WORD	wordpools/wasnorm_wordpool.txt	LTP077	ltpFR	3	15	-1	LEG	809	n/a	-1	1	1.0	1.0	upper	../fonts/Verdana.ttf
2983631	WORD	wordpools/wasnorm_wordpool.txt	LTP077	ltpFR	3	15	-1	BATTERY	101	n/a	-1	1	1.0	1.0	upper	../fonts/Verdana.ttf
2987463	WORD	wordpools/wasnorm_wordpool.txt	LTP077	ltpFR	3	15	-1	CHEST	295	n/a	-1	1	1.0	1.0	upper	../fonts/Verdana.ttf
2993463	REC_START	n/a	LTP077	ltpFR	3	15	n/a	n/a	n/a	n/a	n/a	n/a	n/a	n/a	n/a	n/a
2993607	REC_WORD	wordpools/wasnorm_wordpool.txt	LTP077	ltpFR	3	15	-1	CHEST	295	n/a	-1	n/a	n/a	n/a	n/a	n/a
2994124	REC_WORD	wordpools/wasnorm_wordpool.txt	LTP077	ltpFR	3	15	-1	BATTERY	101	n/a	-1	n/a	n/a	n/a	n/a	n/a
2994553	REC_WORD	wordpools/wasnorm_wordpool.txt	LTP077	ltpFR	3	15	-1	FIREMAN	569	n/a	-1	n/a	n/a	n/a	n/a	n/a
2995230	REC_WORD	wordpools/wasnorm_wordpool.txt	LTP077	ltpFR	3	15	-1	FIGHTER	564	n/a	-1	n/a	n/a	n/a	n/a	n/a
3001998	REC_WORD	wordpools/wasnorm_wordpool.txt	LTP077	ltpFR	3	15	-1	TAXI	1438	n/a	-1	n/a	n/a	n/a	n/a	n/a
3003156	REC_WORD	wordpools/wasnorm_wordpool.txt	LTP077	ltpFR	3	15	-1	EARRING	514	n/a	-1	n/a	n/a	n/a	n/a	n/a
3004268	REC_WORD	wordpools/wasnorm_wordpool.txt	LTP077	ltpFR	3	15	-1	SLEEVE	1324	n/a	-1	n/a	n/a	n/a	n/a	n/a
3010978	REC_WORD	wordpools/wasnorm_wordpool.txt	LTP077	ltpFR	3	15	-1	ATTORNEY	58	n/a	-1	n/a	n/a	n/a	n/a	n/a
3011951	REC_WORD	wordpools/wasnorm_wordpool.txt	LTP077	ltpFR	3	15	-1	DUNE	506	n/a	-1	n/a	n/a	n/a	n/a	n/a
3016061	REC_WORD	wordpools/wasnorm_wordpool.txt	LTP077	ltpFR	3	15	n/a	SAND	1230	n/a	n/a	n/a	n/a	n/a	n/a	n/a
3020766	REC_WORD	wordpools/wasnorm_wordpool.txt	LTP077	ltpFR	3	15	-1	DOLLAR	482	n/a	-1	n/a	n/a	n/a	n/a	n/a
3102446	WORD	wordpools/wasnorm_wordpool.txt	LTP077	ltpFR	3	16	1	NUT	965	n/a	1	1	0.412841796875	0.57763671875	lower	../fonts/zerothre.ttf
3106470	WORD	wordpools/wasnorm_wordpool.txt	LTP077	ltpFR	3	16	1	GROCERY	664	n/a	1	1	0.412841796875	0.57763671875	lower	../fonts/zerothre.ttf
3110480	WORD	wordpools/wasnorm_wordpool.txt	LTP077	ltpFR	3	16	1	BUTTON	207	n/a	0	1	0.412841796875	0.57763671875	lower	../fonts/zerothre.ttf
3114412	WORD	wordpools/wasnorm_wordpool.txt	LTP077	ltpFR	3	16	1	OX	994	n/a	1	1	0.412841796875	0.57763671875	lower	../fonts/zerothre.ttf
3118428	WORD	wordpools/wasnorm_wordpool.txt	LTP077	ltpFR	3	16	1	ZOO	1637	n/a	1	1	0.412841796875	0.57763671875	lower	../fonts/zerothre.ttf
3122403	WORD	wordpools/wasnorm_wordpool.txt	LTP077	ltpFR	3	16	1	CASHEW	253	n/a	1	1	0.412841796875	0.57763671875	lower	../fonts/zerothre.ttf
3126386	WORD	wordpools/wasnorm_wordpool.txt	LTP077	ltpFR	3	16	1	RICE	1190	n/a	1	1	0.412841796875	0.57763671875	lower	../fonts/zerothre.ttf
3130377	WORD	wordpools/wasnorm_wordpool.txt	LTP077	ltpFR	3	16	1	CHICKEN	297	n/a	1	1	0.412841796875	0.57763671875	lower	../fonts/zerothre.ttf
3134586	WORD	wordpools/wasnorm_wordpool.txt	LTP077	ltpFR	3	16	1	CUPBOARD	425	n/a	0	1	0.412841796875	0.57763671875	lower	../fonts/zerothre.ttf
3138619	WORD	wordpools/wasnorm_wordpool.txt	LTP077	ltpFR	3	16	1	LEVER	815	n/a	0	1	0.412841796875	0.57763671875	lower	../fonts/zerothre.ttf
3142677	WORD	wordpools/wasnorm_wordpool.txt	LTP077	ltpFR	3	16	1	MAID	856	n/a	1	1	0.412841796875	0.57763671875	lower	../fonts/zerothre.ttf
3146759	WORD	wordpools/wasnorm_wordpool.txt	LTP077	ltpFR	3	16	1	INVENTOR	743	n/a	1	1	0.412841796875	0.57763671875	lower	../fonts/zerothre.ttf
3150834	WORD	wordpools/wasnorm_wordpool.txt	LTP077	ltpFR	3	16	1	SPONGE	1355	n/a	0	1	0.412841796875	0.57763671875	lower	../fonts/zerothre.ttf
3154726	WORD	wordpools/wasnorm_wordpool.txt	LTP077	ltpFR	3	16	1	BEDROOM	111	n/a	1	1	0.412841796875	0.57763671875	lower	../fonts/zerothre.ttf
3158892	WORD	wordpools/wasnorm_wordpool.txt	LTP077	ltpFR	3	16	1	HAMMOCK	681	n/a	0	1	0.412841796875	0.57763671875	lower	../fonts/zerothre.ttf
3162916	WORD	wordpools/wasnorm_wordpool.txt	LTP077	ltpFR	3	16	1	GUARDIAN	668	n/a	1	1	0.412841796875	0.57763671875	lower	../fonts/zerothre.ttf
3168726	REC_START	n/a	LTP077	ltpFR	3	16	n/a	n/a	n/a	n/a	n/a	n/a	n/a	n/a	n/a	n/a
3168920	REC_WORD	wordpools/wasnorm_wordpool.txt	LTP077	ltpFR	3	16	1	GUARDIAN	668	n/a	1	n/a	n/a	n/a	n/a	n/a
3169734	REC_WORD	wordpools/wasnorm_wordpool.txt	LTP077	ltpFR	3	16	1	NUT	965	n/a	1	n/a	n/a	n/a	n/a	n/a
3170367	REC_WORD	wordpools/wasnorm_wordpool.txt	LTP077	ltpFR	3	16	1	BUTTON	207	n/a	0	n/a	n/a	n/a	n/a	n/a
3170957	REC_WORD	wordpools/wasnorm_wordpool.txt	LTP077	ltpFR	3	16	1	OX	994	n/a	1	n/a	n/a	n/a	n/a	n/a
3171577	REC_WORD	wordpools/wasnorm_wordpool.txt	LTP077	ltpFR	3	16	1	ZOO	1637	n/a	1	n/a	n/a	n/a	n/a	n/a
3172149	REC_WORD	wordpools/wasnorm_wordpool.txt	LTP077	ltpFR	3	16	1	CASHEW	253	n/a	1	n/a	n/a	n/a	n/a	n/a
3176822	REC_WORD	wordpools/wasnorm_wordpool.txt	LTP077	ltpFR	3	16	1	CUPBOARD	425	n/a	0	n/a	n/a	n/a	n/a	n/a
3183807	REC_WORD	wordpools/wasnorm_wordpool.txt	LTP077	ltpFR	3	16	1	OX	994	n/a	1	n/a	n/a	n/a	n/a	n/a
3217056	REC_WORD	wordpools/wasnorm_wordpool.txt	LTP077	ltpFR	3	16	1	CHICKEN	297	n/a	1	n/a	n/a	n/a	n/a	n/a
3233354	REC_WORD	wordpools/wasnorm_wordpool.txt	LTP077	ltpFR	3	16	n/a	KITCHEN	778	n/a	n/a	n/a	n/a	n/a	n/a	n/a
3254302	REC_START	n/a	LTP077	ltpFR	3	n/a	n/a	n/a	n/a	n/a	n/a	n/a	n/a	n/a	n/a	n/a
3254811	FFR_REC_WORD	wordpools/wasnorm_wordpool.txt	LTP077	ltpFR	3	n/a	-1	CASH	252	n/a	-1	n/a	n/a	n/a	n/a	n/a
3255857	FFR_REC_WORD	wordpools/wasnorm_wordpool.txt	LTP077	ltpFR	3	n/a	n/a	KITCHEN	778	n/a	n/a	n/a	n/a	n/a	n/a	n/a
3256869	FFR_REC_WORD	wordpools/wasnorm_wordpool.txt	LTP077	ltpFR	3	n/a	1	NUT	965	n/a	1	n/a	n/a	n/a	n/a	n/a
3258338	FFR_REC_WORD	wordpools/wasnorm_wordpool.txt	LTP077	ltpFR	3	n/a	1	CUPBOARD	425	n/a	0	n/a	n/a	n/a	n/a	n/a
3260897	FFR_REC_WORD	wordpools/wasnorm_wordpool.txt	LTP077	ltpFR	3	n/a	1	ZOO	1637	n/a	1	n/a	n/a	n/a	n/a	n/a
3262324	FFR_REC_WORD	wordpools/wasnorm_wordpool.txt	LTP077	ltpFR	3	n/a	1	CHICKEN	297	n/a	1	n/a	n/a	n/a	n/a	n/a
3263073	FFR_REC_WORD	wordpools/wasnorm_wordpool.txt	LTP077	ltpFR	3	n/a	1	HEN	703	n/a	1	n/a	n/a	n/a	n/a	n/a
3264055	FFR_REC_WORD	wordpools/wasnorm_wordpool.txt	LTP077	ltpFR	3	n/a	0	EAGLE	512	n/a	1	n/a	n/a	n/a	n/a	n/a
3264948	FFR_REC_WORD	wordpools/wasnorm_wordpool.txt	LTP077	ltpFR	3	n/a	1	PORPOISE	1109	n/a	1	n/a	n/a	n/a	n/a	n/a
3265598	FFR_REC_WORD	wordpools/wasnorm_wordpool.txt	LTP077	ltpFR	3	n/a	0	SHARK	1275	n/a	1	n/a	n/a	n/a	n/a	n/a
3266538	FFR_REC_WORD	wordpools/wasnorm_wordpool.txt	LTP077	ltpFR	3	n/a	0	RIVER	1194	n/a	1	n/a	n/a	n/a	n/a	n/a
3267285	FFR_REC_WORD	wordpools/wasnorm_wordpool.txt	LTP077	ltpFR	3	n/a	0	LAKE	796	n/a	1	n/a	n/a	n/a	n/a	n/a
3270460	FFR_REC_WORD	wordpools/wasnorm_wordpool.txt	LTP077	ltpFR	3	n/a	n/a	SNAKE	1333	n/a	n/a	n/a	n/a	n/a	n/a	n/a
3271468	FFR_REC_WORD	wordpools/wasnorm_wordpool.txt	LTP077	ltpFR	3	n/a	n/a	EEL	-1	n/a	n/a	n/a	n/a	n/a	n/a	n/a
3273284	FFR_REC_WORD	wordpools/wasnorm_wordpool.txt	LTP077	ltpFR	3	n/a	-1	CREVICE	405	n/a	-1	n/a	n/a	n/a	n/a	n/a
3274870	FFR_REC_WORD	wordpools/wasnorm_wordpool.txt	LTP077	ltpFR	3	n/a	0	RIVER	1194	n/a	1	n/a	n/a	n/a	n/a	n/a
3276970	FFR_REC_WORD	wordpools/wasnorm_wordpool.txt	LTP077	ltpFR	3	n/a	-1	GALAXY	617	n/a	-1	n/a	n/a	n/a	n/a	n/a
3278482	FFR_REC_WORD	wordpools/wasnorm_wordpool.txt	LTP077	ltpFR	3	n/a	-1	ATTORNEY	58	n/a	-1	n/a	n/a	n/a	n/a	n/a
3279280	FFR_REC_WORD	wordpools/wasnorm_wordpool.txt	LTP077	ltpFR	3	n/a	-1	SENATOR	1268	n/a	-1	n/a	n/a	n/a	n/a	n/a
3285261	FFR_REC_WORD	wordpools/wasnorm_wordpool.txt	LTP077	ltpFR	3	n/a	n/a	ACTOR	5	n/a	n/a	n/a	n/a	n/a	n/a	n/a
3286015	FFR_REC_WORD	wordpools/wasnorm_wordpool.txt	LTP077	ltpFR	3	n/a	n/a	WAITER	1580	n/a	n/a	n/a	n/a	n/a	n/a	n/a
3289487	FFR_REC_WORD	wordpools/wasnorm_wordpool.txt	LTP077	ltpFR	3	n/a	1	BROCCOLI	176	n/a	1	n/a	n/a	n/a	n/a	n/a
3290779	FFR_REC_WORD	wordpools/wasnorm_wordpool.txt	LTP077	ltpFR	3	n/a	0	CABBAGE	210	n/a	0	n/a	n/a	n/a	n/a	n/a
3292824	FFR_REC_WORD	wordpools/wasnorm_wordpool.txt	LTP077	ltpFR	3	n/a	1	WHALE	1601	n/a	1	n/a	n/a	n/a	n/a	n/a
3295583	FFR_REC_WORD	wordpools/wasnorm_wordpool.txt	LTP077	ltpFR	3	n/a	0	LODGE	839	n/a	1	n/a	n/a	n/a	n/a	n/a
3296865	FFR_REC_WORD	wordpools/wasnorm_wordpool.txt	LTP077	ltpFR	3	n/a	-1	GRATE	657	n/a	-1	n/a	n/a	n/a	n/a	n/a
3302886	FFR_REC_WORD	wordpools/wasnorm_wordpool.txt	LTP077	ltpFR	3	n/a	-1	SLEEVE	1324	n/a	-1	n/a	n/a	n/a	n/a	n/a
3304573	FFR_REC_WORD	wordpools/wasnorm_wordpool.txt	LTP077	ltpFR	3	n/a	-1	EARRING	514	n/a	-1	n/a	n/a	n/a	n/a	n/a
3305386	FFR_REC_WORD	wordpools/wasnorm_wordpool.txt	LTP077	ltpFR	3	n/a	-1	TAXI	1438	n/a	-1	n/a	n/a	n/a	n/a	n/a
3313871	FFR_REC_WORD	wordpools/wasnorm_wordpool.txt	LTP077	ltpFR	3	n/a	1	PORPOISE	1109	n/a	1	n/a	n/a	n/a	n/a	n/a
3316261	FFR_REC_WORD	wordpools/wasnorm_wordpool.txt	LTP077	ltpFR	3	n/a	0	FLIPPER	580	n/a	1	n/a	n/a	n/a	n/a	n/a
3319598	FFR_REC_WORD	wordpools/wasnorm_wordpool.txt	LTP077	ltpFR	3	n/a	n/a	JOINT	758	n/a	n/a	n/a	n/a	n/a	n/a	n/a
3322911	FFR_REC_WORD	wordpools/wasnorm_wordpool.txt	LTP077	ltpFR	3	n/a	-1	STEM	1376	n/a	-1	n/a	n/a	n/a	n/a	n/a
3325435	FFR_REC_WORD	wordpools/wasnorm_wordpool.txt	LTP077	ltpFR	3	n/a	-1	PLANT	1083	n/a	-1	n/a	n/a	n/a	n/a	n/a
3330818	FFR_REC_WORD	wordpools/wasnorm_wordpool.txt	LTP077	ltpFR	3	n/a	1	COOK	372	n/a	0	n/a	n/a	n/a	n/a	n/a
3331583	FFR_REC_WORD	wordpools/wasnorm_wordpool.txt	LTP077	ltpFR	3	n/a	1	MECHANIC	884	n/a	1	n/a	n/a	n/a	n/a	n/a
3332958	FFR_REC_WORD	wordpools/wasnorm_wordpool.txt	LTP077	ltpFR	3	n/a	1	GUARDIAN	668	n/a	1	n/a	n/a	n/a	n/a	n/a
3341439	FFR_REC_WORD	wordpools/wasnorm_wordpool.txt	LTP077	ltpFR	3	n/a	1	TIDE	1465	n/a	0	n/a	n/a	n/a	n/a	n/a
3344093	FFR_REC_WORD	wordpools/wasnorm_wordpool.txt	LTP077	ltpFR	3	n/a	1	HEN	703	n/a	1	n/a	n/a	n/a	n/a	n/a
3350304	FFR_REC_WORD	wordpools/wasnorm_wordpool.txt	LTP077	ltpFR	3	n/a	-1	VILLAGE	1566	n/a	-1	n/a	n/a	n/a	n/a	n/a
3350798	FFR_REC_WORD	wordpools/wasnorm_wordpool.txt	LTP077	ltpFR	3	n/a	n/a	TOWN	1491	n/a	n/a	n/a	n/a	n/a	n/a	n/a
3352663	FFR_REC_WORD	wordpools/wasnorm_wordpool.txt	LTP077	ltpFR	3	n/a	1	SHEPHERD	1283	n/a	1	n/a	n/a	n/a	n/a	n/a
3353084	FFR_REC_WORD	wordpools/wasnorm_wordpool.txt	LTP077	ltpFR	3	n/a	1	SHEEP	1278	n/a	1	n/a	n/a	n/a	n/a	n/a
3354529	FFR_REC_WORD	wordpools/wasnorm_wordpool.txt	LTP077	ltpFR	3	n/a	-1	KING	777	n/a	-1	n/a	n/a	n/a	n/a	n/a
3354859	FFR_REC_WORD	wordpools/wasnorm_wordpool.txt	LTP077	ltpFR	3	n/a	-1	QUEEN	1149	n/a	-1	n/a	n/a	n/a	n/a	n/a
3356774	FFR_REC_WORD	wordpools/wasnorm_wordpool.txt	LTP077	ltpFR	3	n/a	-1	BLOUSE	139	n/a	-1	n/a	n/a	n/a	n/a	n/a
3357145	FFR_REC_WORD	wordpools/wasnorm_wordpool.txt	LTP077	ltpFR	3	n/a	0	DRESS	495	n/a	1	n/a	n/a	n/a	n/a	n/a
3358266	FFR_REC_WORD	wordpools/wasnorm_wordpool.txt	LTP077	ltpFR	3	n/a	-1	GOWN	652	n/a	-1	n/a	n/a	n/a	n/a	n/a
3364307	FFR_REC_WORD_VV	wordpools/wasnorm_wordpool.txt	LTP077	ltpFR	3	n/a	n/a	<>	-1	n/a	n/a	n/a	n/a	n/a	n/a	n/a
3373256	FFR_REC_WORD	wordpools/wasnorm_wordpool.txt	LTP077	ltpFR	3	n/a	n/a	HAWK	692	n/a	n/a	n/a	n/a	n/a	n/a	n/a
3373925	FFR_REC_WORD	wordpools/wasnorm_wordpool.txt	LTP077	ltpFR	3	n/a	0	EAGLE	512	n/a	1	n/a	n/a	n/a	n/a	n/a
3383877	FFR_REC_WORD	wordpools/wasnorm_wordpool.txt	LTP077	ltpFR	3	n/a	0	PELICAN	1039	n/a	1	n/a	n/a	n/a	n/a	n/a
3384320	FFR_REC_WORD	wordpools/wasnorm_wordpool.txt	LTP077	ltpFR	3	n/a	n/a	SEAGULL	1261	n/a	n/a	n/a	n/a	n/a	n/a	n/a
3389564	FFR_REC_WORD	wordpools/wasnorm_wordpool.txt	LTP077	ltpFR	3	n/a	1	BUTTON	207	n/a	0	n/a	n/a	n/a	n/a	n/a
3392363	FFR_REC_WORD	wordpools/wasnorm_wordpool.txt	LTP077	ltpFR	3	n/a	0	VAN	1548	n/a	1	n/a	n/a	n/a	n/a	n/a
3406576	FFR_REC_WORD	wordpools/wasnorm_wordpool.txt	LTP077	ltpFR	3	n/a	-1	DIRECTOR	471	n/a	-1	n/a	n/a	n/a	n/a	n/a
3435909	FFR_REC_WORD	wordpools/wasnorm_wordpool.txt	LTP077	ltpFR	3	n/a	1	SHIP	1286	n/a	0	n/a	n/a	n/a	n/a	n/a
3447897	FFR_REC_WORD	wordpools/wasnorm_wordpool.txt	LTP077	ltpFR	3	n/a	n/a	TEMPEST	-1	n/a	n/a	n/a	n/a	n/a	n/a	n/a
3450326	FFR_REC_WORD	wordpools/wasnorm_wordpool.txt	LTP077	ltpFR	3	n/a	0	TEMPLE	1448	n/a	1	n/a	n/a	n/a	n/a	n/a
3451035	FFR_REC_WORD	wordpools/wasnorm_wordpool.txt	LTP077	ltpFR	3	n/a	-1	PRIEST	1122	n/a	-1	n/a	n/a	n/a	n/a	n/a
3451546	FFR_REC_WORD	wordpools/wasnorm_wordpool.txt	LTP077	ltpFR	3	n/a	0	PREACHER	1119	n/a	1	n/a	n/a	n/a	n/a	n/a
3451996	FFR_REC_WORD	wordpools/wasnorm_wordpool.txt	LTP077	ltpFR	3	n/a	0	POPE	1105	n/a	1	n/a	n/a	n/a	n/a	n/a
3482628	FFR_REC_WORD	wordpools/wasnorm_wordpool.txt	LTP077	ltpFR	3	n/a	-1	FIGHTER	564	n/a	-1	n/a	n/a	n/a	n/a	n/a
3482992	FFR_REC_WORD	wordpools/wasnorm_wordpool.txt	LTP077	ltpFR	3	n/a	-1	FIREMAN	569	n/a	-1	n/a	n/a	n/a	n/a	n/a
3499031	FFR_REC_WORD	wordpools/wasnorm_wordpool.txt	LTP077	ltpFR	3	n/a	n/a	CARROT	249	n/a	n/a	n/a	n/a	n/a	n/a	n/a
3505316	FFR_REC_WORD	wordpools/wasnorm_wordpool.txt	LTP077	ltpFR	3	n/a	1	HOUND	724	n/a	1	n/a	n/a	n/a	n/a	n/a
3519050	FFR_REC_WORD	wordpools/wasnorm_wordpool.txt	LTP077	ltpFR	3	n/a	1	EYE	545	n/a	0	n/a	n/a	n/a	n/a	n/a
3526738	FFR_REC_WORD	wordpools/wasnorm_wordpool.txt	LTP077	ltpFR	3	n/a	0	QUARTER	1148	n/a	0	n/a	n/a	n/a	n/a	n/a
3529237	FFR_REC_WORD	wordpools/wasnorm_wordpool.txt	LTP077	ltpFR	3	n/a	0	BANKER	84	n/a	1	n/a	n/a	n/a	n/a	n/a
3529807	FFR_REC_WORD	wordpools/wasnorm_wordpool.txt	LTP077	ltpFR	3	n/a	-1	DOLLAR	482	n/a	-1	n/a	n/a	n/a	n/a	n/a
3573778	REC_START	n/a	LTP077	ltpFR	3	1	n/a	n/a	n/a	n/a	n/a	n/a	n/a	n/a	n/a	n/a
3573819	RECOG_TARGET	n/a	LTP077	ltpFR	3	1	0	DASHBOARD	441	5	0	n/a	n/a	n/a	n/a	n/a
3576003	RECOG_RESP	n/a	LTP077	ltpFR	3	1	0	DASHBOARD	441	n/a	0	n/a	n/a	n/a	n/a	n/a
3577065	RECOG_CONF	n/a	LTP077	ltpFR	3	1	0	DASHBOARD	441	5	0	n/a	n/a	n/a	n/a	n/a
3578611	RECOG_TARGET	n/a	LTP077	ltpFR	3	1	1	SWEATER	1419	5	0	n/a	n/a	n/a	n/a	n/a
3579400	RECOG_RESP	n/a	LTP077	ltpFR	3	1	1	SWEATER	1419	n/a	0	n/a	n/a	n/a	n/a	n/a
3580368	RECOG_CONF	n/a	LTP077	ltpFR	3	1	1	SWEATER	1419	5	0	n/a	n/a	n/a	n/a	n/a
3581918	RECOG_TARGET	n/a	LTP077	ltpFR	3	1	1	COOK	372	5	0	n/a	n/a	n/a	n/a	n/a
3582593	RECOG_RESP	n/a	LTP077	ltpFR	3	1	1	COOK	372	n/a	0	n/a	n/a	n/a	n/a	n/a
3583481	RECOG_CONF	n/a	LTP077	ltpFR	3	1	1	COOK	372	5	0	n/a	n/a	n/a	n/a	n/a
3585052	RECOG_LURE	n/a	LTP077	ltpFR	3	1	n/a	RUBY	1214	1	n/a	n/a	n/a	n/a	n/a	n/a
3585930	RECOG_RESP	n/a	LTP077	ltpFR	3	1	n/a	RUBY	1214	n/a	n/a	n/a	n/a	n/a	n/a	n/a
3586803	RECOG_CONF	n/a	LTP077	ltpFR	3	1	n/a	RUBY	1214	1	n/a	n/a	n/a	n/a	n/a	n/a
3588360	RECOG_LURE	n/a	LTP077	ltpFR	3	1	n/a	STRING	1394	3	n/a	n/a	n/a	n/a	n/a	n/a
3589677	RECOG_RESP	n/a	LTP077	ltpFR	3	1	n/a	STRING	1394	n/a	n/a	n/a	n/a	n/a	n/a	n/a
3590575	RECOG_CONF	n/a	LTP077	ltpFR	3	1	n/a	STRING	1394	3	n/a	n/a	n/a	n/a	n/a	n/a
3592043	RECOG_TARGET	n/a	LTP077	ltpFR	3	1	1	ZOO	1637	5	1	n/a	n/a	n/a	n/a	n/a
3592690	RECOG_RESP	n/a	LTP077	ltpFR	3	1	1	ZOO	1637	n/a	1	n/a	n/a	n/a	n/a	n/a
3593428	RECOG_CONF	n/a	LTP077	ltpFR	3	1	1	ZOO	1637	5	1	n/a	n/a	n/a	n/a	n/a
3594710	RECOG_TARGET	n/a	LTP077	ltpFR	3	1	1	PIGEON	1065	5	1	n/a	n/a	n/a	n/a	n/a
3595349	RECOG_RESP	n/a	LTP077	ltpFR	3	1	1	PIGEON	1065	n/a	1	n/a	n/a	n/a	n/a	n/a
3595962	RECOG_CONF	n/a	LTP077	ltpFR	3	1	1	PIGEON	1065	5	1	n/a	n/a	n/a	n/a	n/a
3597384	RECOG_TARGET	n/a	LTP077	ltpFR	3	1	0	ROOM	1206	5	1	n/a	n/a	n/a	n/a	n/a
3598157	RECOG_RESP	n/a	LTP077	ltpFR	3	1	0	ROOM	1206	n/a	1	n/a	n/a	n/a	n/a	n/a
3598886	RECOG_CONF	n/a	LTP077	ltpFR	3	1	0	ROOM	1206	5	1	n/a	n/a	n/a	n/a	n/a
3600526	RECOG_TARGET	n/a	LTP077	ltpFR	3	1	0	SALAD	1224	5	0	n/a	n/a	n/a	n/a	n/a
3601235	RECOG_RESP	n/a	LTP077	ltpFR	3	1	0	SALAD	1224	n/a	0	n/a	n/a	n/a	n/a	n/a
3601889	RECOG_CONF	n/a	LTP077	ltpFR	3	1	0	SALAD	1224	5	0	n/a	n/a	n/a	n/a	n/a
3603350	RECOG_TARGET	n/a	LTP077	ltpFR	3	1	1	CUPBOARD	425	5	0	n/a	n/a	n/a	n/a	n/a
3603944	RECOG_RESP	n/a	LTP077	ltpFR	3	1	1	CUPBOARD	425	n/a	0	n/a	n/a	n/a	n/a	n/a
3604633	RECOG_CONF	n/a	LTP077	ltpFR	3	1	1	CUPBOARD	425	5	0	n/a	n/a	n/a	n/a	n/a
3606042	RECOG_TARGET	n/a	LTP077	ltpFR	3	1	-1	KING	777	5	-1	n/a	n/a	n/a	n/a	n/a
3606962	RECOG_RESP	n/a	LTP077	ltpFR	3	1	-1	KING	777	n/a	-1	n/a	n/a	n/a	n/a	n/a
3607606	RECOG_CONF	n/a	LTP077	ltpFR	3	1	-1	KING	777	5	-1	n/a	n/a	n/a	n/a	n/a
3609133	RECOG_LURE	n/a	LTP077	ltpFR	3	1	n/a	COMEDIAN	352	5	n/a	n/a	n/a	n/a	n/a	n/a
3609886	RECOG_RESP	n/a	LTP077	ltpFR	3	1	n/a	COMEDIAN	352	n/a	n/a	n/a	n/a	n/a	n/a	n/a
3610471	RECOG_CONF	n/a	LTP077	ltpFR	3	1	n/a	COMEDIAN	352	5	n/a	n/a	n/a	n/a	n/a	n/a
3612091	RECOG_TARGET	n/a	LTP077	ltpFR	3	1	0	DRESS	495	5	1	n/a	n/a	n/a	n/a	n/a
3612689	RECOG_RESP	n/a	LTP077	ltpFR	3	1	0	DRESS	495	n/a	1	n/a	n/a	n/a	n/a	n/a
3613253	RECOG_CONF	n/a	LTP077	ltpFR	3	1	0	DRESS	495	5	1	n/a	n/a	n/a	n/a	n/a
3614766	RECOG_TARGET	n/a	LTP077	ltpFR	3	1	0	SPINE	1353	5	1	n/a	n/a	n/a	n/a	n/a
3615433	RECOG_RESP	n/a	LTP077	ltpFR	3	1	0	SPINE	1353	n/a	1	n/a	n/a	n/a	n/a	n/a
3616083	RECOG_CONF	n/a	LTP077	ltpFR	3	1	0	SPINE	1353	5	1	n/a	n/a	n/a	n/a	n/a
3617683	RECOG_TARGET	n/a	LTP077	ltpFR	3	1	1	CANDY	230	5	0	n/a	n/a	n/a	n/a	n/a
3618441	RECOG_RESP	n/a	LTP077	ltpFR	3	1	1	CANDY	230	n/a	0	n/a	n/a	n/a	n/a	n/a
3619100	RECOG_CONF	n/a	LTP077	ltpFR	3	1	1	CANDY	230	5	0	n/a	n/a	n/a	n/a	n/a
3620691	RECOG_LURE	n/a	LTP077	ltpFR	3	1	n/a	BOXER	160	5	n/a	n/a	n/a	n/a	n/a	n/a
3621420	RECOG_RESP	n/a	LTP077	ltpFR	3	1	n/a	BOXER	160	n/a	n/a	n/a	n/a	n/a	n/a	n/a
3622073	RECOG_CONF	n/a	LTP077	ltpFR	3	1	n/a	BOXER	160	5	n/a	n/a	n/a	n/a	n/a	n/a
3623700	RECOG_TARGET	n/a	LTP077	ltpFR	3	1	-1	VILLAGE	1566	5	-1	n/a	n/a	n/a	n/a	n/a
3624353	RECOG_RESP	n/a	LTP077	ltpFR	3	1	-1	VILLAGE	1566	n/a	-1	n/a	n/a	n/a	n/a	n/a
3625096	RECOG_CONF	n/a	LTP077	ltpFR	3	1	-1	VILLAGE	1566	5	-1	n/a	n/a	n/a	n/a	n/a
3626583	RECOG_TARGET	n/a	LTP077	ltpFR	3	1	1	TERMITE	1451	5	1	n/a	n/a	n/a	n/a	n/a
3627291	RECOG_RESP	n/a	LTP077	ltpFR	3	1	1	TERMITE	1451	n/a	1	n/a	n/a	n/a	n/a	n/a
3628000	RECOG_CONF	n/a	LTP077	ltpFR	3	1	1	TERMITE	1451	5	1	n/a	n/a	n/a	n/a	n/a
3629541	RECOG_LURE	n/a	LTP077	ltpFR	3	1	n/a	FRIEND	606	5	n/a	n/a	n/a	n/a	n/a	n/a
3630639	RECOG_RESP	n/a	LTP077	ltpFR	3	1	n/a	FRIEND	606	n/a	n/a	n/a	n/a	n/a	n/a	n/a
3631432	RECOG_CONF	n/a	LTP077	ltpFR	3	1	n/a	FRIEND	606	5	n/a	n/a	n/a	n/a	n/a	n/a
3632998	RECOG_TARGET	n/a	LTP077	ltpFR	3	1	1	GUARDIAN	668	5	1	n/a	n/a	n/a	n/a	n/a
3633647	RECOG_RESP	n/a	LTP077	ltpFR	3	1	1	GUARDIAN	668	n/a	1	n/a	n/a	n/a	n/a	n/a
3634415	RECOG_CONF	n/a	LTP077	ltpFR	3	1	1	GUARDIAN	668	5	1	n/a	n/a	n/a	n/a	n/a
3637733	REC_START	n/a	LTP077	ltpFR	3	2	n/a	n/a	n/a	n/a	n/a	n/a	n/a	n/a	n/a	n/a
3637764	RECOG_TARGET	n/a	LTP077	ltpFR	3	2	0	COBBLER	335	5	0	n/a	n/a	n/a	n/a	n/a
3638541	RECOG_RESP	n/a	LTP077	ltpFR	3	2	0	COBBLER	335	n/a	0	n/a	n/a	n/a	n/a	n/a
3639264	RECOG_CONF	n/a	LTP077	ltpFR	3	2	0	COBBLER	335	5	0	n/a	n/a	n/a	n/a	n/a
3640814	RECOG_TARGET	n/a	LTP077	ltpFR	3	2	-1	CORPORATION	382	5	-1	n/a	n/a	n/a	n/a	n/a
3641544	RECOG_RESP	n/a	LTP077	ltpFR	3	2	-1	CORPORATION	382	n/a	-1	n/a	n/a	n/a	n/a	n/a
3642277	RECOG_CONF	n/a	LTP077	ltpFR	3	2	-1	CORPORATION	382	5	-1	n/a	n/a	n/a	n/a	n/a
3643805	RECOG_TARGET	n/a	LTP077	ltpFR	3	2	1	FREEWAY	603	5	1	n/a	n/a	n/a	n/a	n/a
3644532	RECOG_RESP	n/a	LTP077	ltpFR	3	2	1	FREEWAY	603	n/a	1	n/a	n/a	n/a	n/a	n/a
3645331	RECOG_CONF	n/a	LTP077	ltpFR	3	2	1	FREEWAY	603	5	1	n/a	n/a	n/a	n/a	n/a
3646789	RECOG_TARGET	n/a	LTP077	ltpFR	3	2	1	MONGOOSE	909	5	1	n/a	n/a	n/a	n/a	n/a
3647635	RECOG_RESP	n/a	LTP077	ltpFR	3	2	1	MONGOOSE	909	n/a	1	n/a	n/a	n/a	n/a	n/a
3648384	RECOG_CONF	n/a	LTP077	ltpFR	3	2	1	MONGOOSE	909	5	1	n/a	n/a	n/a	n/a	n/a
3650272	RECOG_TARGET	n/a	LTP077	ltpFR	3	2	1	AIRPLANE	12	5	0	n/a	n/a	n/a	n/a	n/a
3651232	RECOG_RESP	n/a	LTP077	ltpFR	3	2	1	AIRPLANE	12	n/a	0	n/a	n/a	n/a	n/a	n/a
3652205	RECOG_CONF	n/a	LTP077	ltpFR	3	2	1	AIRPLANE	12	5	0	n/a	n/a	n/a	n/a	n/a
3653672	RECOG_TARGET	n/a	LTP077	ltpFR	3	2	-1	QUEEN	1149	5	-1	n/a	n/a	n/a	n/a	n/a
3654305	RECOG_RESP	n/a	LTP077	ltpFR	3	2	-1	QUEEN	1149	n/a	-1	n/a	n/a	n/a	n/a	n/a
3655038	RECOG_CONF	n/a	LTP077	ltpFR	3	2	-1	QUEEN	1149	5	-1	n/a	n/a	n/a	n/a	n/a
3656522	RECOG_LURE	n/a	LTP077	ltpFR	3	2	n/a	INTESTINE	742	5	n/a	n/a	n/a	n/a	n/a	n/a
3657263	RECOG_RESP	n/a	LTP077	ltpFR	3	2	n/a	INTESTINE	742	n/a	n/a	n/a	n/a	n/a	n/a	n/a
3657797	RECOG_CONF	n/a	LTP077	ltpFR	3	2	n/a	INTESTINE	742	5	n/a	n/a	n/a	n/a	n/a	n/a
3659188	RECOG_TARGET	n/a	LTP077	ltpFR	3	2	1	WHALE	1601	5	1	n/a	n/a	n/a	n/a	n/a
3659748	RECOG_RESP	n/a	LTP077	ltpFR	3	2	1	WHALE	1601	n/a	1	n/a	n/a	n/a	n/a	n/a
3660406	RECOG_CONF	n/a	LTP077	ltpFR	3	2	1	WHALE	1601	5	1	n/a	n/a	n/a	n/a	n/a
3661762	RECOG_LURE	n/a	LTP077	ltpFR	3	2	n/a	COAL	332	5	n/a	n/a	n/a	n/a	n/a	n/a
3662397	RECOG_RESP	n/a	LTP077	ltpFR	3	2	n/a	COAL	332	n/a	n/a	n/a	n/a	n/a	n/a	n/a
3663280	RECOG_CONF	n/a	LTP077	ltpFR	3	2	n/a	COAL	332	5	n/a	n/a	n/a	n/a	n/a	n/a
3664663	RECOG_TARGET	n/a	LTP077	ltpFR	3	2	0	VAN	1548	5	1	n/a	n/a	n/a	n/a	n/a
3665355	RECOG_RESP	n/a	LTP077	ltpFR	3	2	0	VAN	1548	n/a	1	n/a	n/a	n/a	n/a	n/a
3666163	RECOG_CONF	n/a	LTP077	ltpFR	3	2	0	VAN	1548	5	1	n/a	n/a	n/a	n/a	n/a
3667638	RECOG_LURE	n/a	LTP077	ltpFR	3	2	n/a	RIFLE	1192	1	n/a	n/a	n/a	n/a	n/a	n/a
3668952	RECOG_RESP	n/a	LTP077	ltpFR	3	2	n/a	RIFLE	1192	n/a	n/a	n/a	n/a	n/a	n/a	n/a
3669905	RECOG_CONF	n/a	LTP077	ltpFR	3	2	n/a	RIFLE	1192	1	n/a	n/a	n/a	n/a	n/a	n/a
3671878	RECOG_LURE	n/a	LTP077	ltpFR	3	2	n/a	CARPENTER	246	5	n/a	n/a	n/a	n/a	n/a	n/a
3672928	RECOG_RESP	n/a	LTP077	ltpFR	3	2	n/a	CARPENTER	246	n/a	n/a	n/a	n/a	n/a	n/a	n/a
3673596	RECOG_CONF	n/a	LTP077	ltpFR	3	2	n/a	CARPENTER	246	5	n/a	n/a	n/a	n/a	n/a	n/a
3675086	RECOG_TARGET	n/a	LTP077	ltpFR	3	2	0	HALL	677	5	1	n/a	n/a	n/a	n/a	n/a
3675846	RECOG_RESP	n/a	LTP077	ltpFR	3	2	0	HALL	677	n/a	1	n/a	n/a	n/a	n/a	n/a
3676470	RECOG_CONF	n/a	LTP077	ltpFR	3	2	0	HALL	677	5	1	n/a	n/a	n/a	n/a	n/a
3678086	RECOG_TARGET	n/a	LTP077	ltpFR	3	2	0	GULL	671	5	1	n/a	n/a	n/a	n/a	n/a
3679473	RECOG_RESP	n/a	LTP077	ltpFR	3	2	0	GULL	671	n/a	1	n/a	n/a	n/a	n/a	n/a
3680341	RECOG_CONF	n/a	LTP077	ltpFR	3	2	0	GULL	671	5	1	n/a	n/a	n/a	n/a	n/a
3681936	RECOG_TARGET	n/a	LTP077	ltpFR	3	2	0	SHARK	1275	5	1	n/a	n/a	n/a	n/a	n/a
3682541	RECOG_RESP	n/a	LTP077	ltpFR	3	2	0	SHARK	1275	n/a	1	n/a	n/a	n/a	n/a	n/a
3683254	RECOG_CONF	n/a	LTP077	ltpFR	3	2	0	SHARK	1275	5	1	n/a	n/a	n/a	n/a	n/a
3684712	RECOG_LURE	n/a	LTP077	ltpFR	3	2	n/a	ATLAS	53	5	n/a	n/a	n/a	n/a	n/a	n/a
3685380	RECOG_RESP	n/a	LTP077	ltpFR	3	2	n/a	ATLAS	53	n/a	n/a	n/a	n/a	n/a	n/a	n/a
3685868	RECOG_CONF	n/a	LTP077	ltpFR	3	2	n/a	ATLAS	53	5	n/a	n/a	n/a	n/a	n/a	n/a
3687537	RECOG_TARGET	n/a	LTP077	ltpFR	3	2	0	CYLINDER	432	5	1	n/a	n/a	n/a	n/a	n/a
3688193	RECOG_RESP	n/a	LTP077	ltpFR	3	2	0	CYLINDER	432	n/a	1	n/a	n/a	n/a	n/a	n/a
3688762	RECOG_CONF	n/a	LTP077	ltpFR	3	2	0	CYLINDER	432	5	1	n/a	n/a	n/a	n/a	n/a
3690520	RECOG_LURE	n/a	LTP077	ltpFR	3	2	n/a	COMPASS	358	5	n/a	n/a	n/a	n/a	n/a	n/a
3691531	RECOG_RESP	n/a	LTP077	ltpFR	3	2	n/a	COMPASS	358	n/a	n/a	n/a	n/a	n/a	n/a	n/a
3692244	RECOG_CONF	n/a	LTP077	ltpFR	3	2	n/a	COMPASS	358	5	n/a	n/a	n/a	n/a	n/a	n/a
3693743	RECOG_TARGET	n/a	LTP077	ltpFR	3	2	0	MISSILE	900	5	1	n/a	n/a	n/a	n/a	n/a
3694439	RECOG_RESP	n/a	LTP077	ltpFR	3	2	0	MISSILE	900	n/a	1	n/a	n/a	n/a	n/a	n/a
3695297	RECOG_CONF	n/a	LTP077	ltpFR	3	2	0	MISSILE	900	5	1	n/a	n/a	n/a	n/a	n/a
3696728	RECOG_TARGET	n/a	LTP077	ltpFR	3	2	-1	NICKEL	950	5	-1	n/a	n/a	n/a	n/a	n/a
3697292	RECOG_RESP	n/a	LTP077	ltpFR	3	2	-1	NICKEL	950	n/a	-1	n/a	n/a	n/a	n/a	n/a
3698031	RECOG_CONF	n/a	LTP077	ltpFR	3	2	-1	NICKEL	950	5	-1	n/a	n/a	n/a	n/a	n/a
3700908	REC_START	n/a	LTP077	ltpFR	3	3	n/a	n/a	n/a	n/a	n/a	n/a	n/a	n/a	n/a	n/a
3700943	RECOG_LURE	n/a	LTP077	ltpFR	3	3	n/a	BACKBONE	66	5	n/a	n/a	n/a	n/a	n/a	n/a
3701851	RECOG_RESP	n/a	LTP077	ltpFR	3	3	n/a	BACKBONE	66	n/a	n/a	n/a	n/a	n/a	n/a	n/a
3702669	RECOG_CONF	n/a	LTP077	ltpFR	3	3	n/a	BACKBONE	66	5	n/a	n/a	n/a	n/a	n/a	n/a
3704176	RECOG_LURE	n/a	LTP077	ltpFR	3	3	n/a	VIRUS	1572	5	n/a	n/a	n/a	n/a	n/a	n/a
3704924	RECOG_RESP	n/a	LTP077	ltpFR	3	3	n/a	VIRUS	1572	n/a	n/a	n/a	n/a	n/a	n/a	n/a
3705552	RECOG_CONF	n/a	LTP077	ltpFR	3	3	n/a	VIRUS	1572	5	n/a	n/a	n/a	n/a	n/a	n/a
3706951	RECOG_TARGET	n/a	LTP077	ltpFR	3	3	-1	COTTAGE	384	5	-1	n/a	n/a	n/a	n/a	n/a
3707528	RECOG_RESP	n/a	LTP077	ltpFR	3	3	-1	COTTAGE	384	n/a	-1	n/a	n/a	n/a	n/a	n/a
3708156	RECOG_CONF	n/a	LTP077	ltpFR	3	3	-1	COTTAGE	384	5	-1	n/a	n/a	n/a	n/a	n/a
3709535	RECOG_TARGET	n/a	LTP077	ltpFR	3	3	-1	CELERY	266	5	-1	n/a	n/a	n/a	n/a	n/a
3710087	RECOG_RESP	n/a	LTP077	ltpFR	3	3	-1	CELERY	266	n/a	-1	n/a	n/a	n/a	n/a	n/a
3710760	RECOG_CONF	n/a	LTP077	ltpFR	3	3	-1	CELERY	266	5	-1	n/a	n/a	n/a	n/a	n/a
3712142	RECOG_LURE	n/a	LTP077	ltpFR	3	3	n/a	PLASTER	1085	5	n/a	n/a	n/a	n/a	n/a	n/a
3712906	RECOG_RESP	n/a	LTP077	ltpFR	3	3	n/a	PLASTER	1085	n/a	n/a	n/a	n/a	n/a	n/a	n/a
3713444	RECOG_CONF	n/a	LTP077	ltpFR	3	3	n/a	PLASTER	1085	5	n/a	n/a	n/a	n/a	n/a	n/a
3714859	RECOG_TARGET	n/a	LTP077	ltpFR	3	3	-1	STEM	1376	5	-1	n/a	n/a	n/a	n/a	n/a
3715420	RECOG_RESP	n/a	LTP077	ltpFR	3	3	-1	STEM	1376	n/a	-1	n/a	n/a	n/a	n/a	n/a
3716068	RECOG_CONF	n/a	LTP077	ltpFR	3	3	-1	STEM	1376	5	-1	n/a	n/a	n/a	n/a	n/a
3717518	RECOG_TARGET	n/a	LTP077	ltpFR	3	3	1	ANTEATER	26	5	1	n/a	n/a	n/a	n/a	n/a
3718094	RECOG_RESP	n/a	LTP077	ltpFR	3	3	1	ANTEATER	26	n/a	1	n/a	n/a	n/a	n/a	n/a
3718702	RECOG_CONF	n/a	LTP077	ltpFR	3	3	1	ANTEATER	26	5	1	n/a	n/a	n/a	n/a	n/a
3720116	RECOG_LURE	n/a	LTP077	ltpFR	3	3	n/a	PIZZA	1079	5	n/a	n/a	n/a	n/a	n/a	n/a
3720688	RECOG_RESP	n/a	LTP077	ltpFR	3	3	n/a	PIZZA	1079	n/a	n/a	n/a	n/a	n/a	n/a	n/a
3721268	RECOG_CONF	n/a	LTP077	ltpFR	3	3	n/a	PIZZA	1079	5	n/a	n/a	n/a	n/a	n/a	n/a
3722701	RECOG_TARGET	n/a	LTP077	ltpFR	3	3	1	DOCTOR	478	5	1	n/a	n/a	n/a	n/a	n/a
3723377	RECOG_RESP	n/a	LTP077	ltpFR	3	3	1	DOCTOR	478	n/a	1	n/a	n/a	n/a	n/a	n/a
3724040	RECOG_CONF	n/a	LTP077	ltpFR	3	3	1	DOCTOR	478	5	1	n/a	n/a	n/a	n/a	n/a
3725466	RECOG_TARGET	n/a	LTP077	ltpFR	3	3	0	BALLERINA	74	5	1	n/a	n/a	n/a	n/a	n/a
3726185	RECOG_RESP	n/a	LTP077	ltpFR	3	3	0	BALLERINA	74	n/a	1	n/a	n/a	n/a	n/a	n/a
3726814	RECOG_CONF	n/a	LTP077	ltpFR	3	3	0	BALLERINA	74	5	1	n/a	n/a	n/a	n/a	n/a
3728183	RECOG_TARGET	n/a	LTP077	ltpFR	3	3	1	GLACIER	638	5	1	n/a	n/a	n/a	n/a	n/a
3728809	RECOG_RESP	n/a	LTP077	ltpFR	3	3	1	GLACIER	638	n/a	1	n/a	n/a	n/a	n/a	n/a
3729398	RECOG_CONF	n/a	LTP077	ltpFR	3	3	1	GLACIER	638	5	1	n/a	n/a	n/a	n/a	n/a
3730974	RECOG_TARGET	n/a	LTP077	ltpFR	3	3	1	STUMP	1396	5	0	n/a	n/a	n/a	n/a	n/a
3731643	RECOG_RESP	n/a	LTP077	ltpFR	3	3	1	STUMP	1396	n/a	0	n/a	n/a	n/a	n/a	n/a
3732272	RECOG_CONF	n/a	LTP077	ltpFR	3	3	1	STUMP	1396	5	0	n/a	n/a	n/a	n/a	n/a
3733757	RECOG_TARGET	n/a	LTP077	ltpFR	3	3	1	RECIPE	1175	5	0	n/a	n/a	n/a	n/a	n/a
3735105	RECOG_RESP	n/a	LTP077	ltpFR	3	3	1	RECIPE	1175	n/a	0	n/a	n/a	n/a	n/a	n/a
3735662	RECOG_CONF	n/a	LTP077	ltpFR	3	3	1	RECIPE	1175	5	0	n/a	n/a	n/a	n/a	n/a
3737265	RECOG_LURE	n/a	LTP077	ltpFR	3	3	n/a	POTTERY	1116	5	n/a	n/a	n/a	n/a	n/a	n/a
3738168	RECOG_RESP	n/a	LTP077	ltpFR	3	3	n/a	POTTERY	1116	n/a	n/a	n/a	n/a	n/a	n/a	n/a
3738896	RECOG_CONF	n/a	LTP077	ltpFR	3	3	n/a	POTTERY	1116	5	n/a	n/a	n/a	n/a	n/a	n/a
3740448	RECOG_TARGET	n/a	LTP077	ltpFR	3	3	0	FACE	547	5	1	n/a	n/a	n/a	n/a	n/a
3741156	RECOG_RESP	n/a	LTP077	ltpFR	3	3	0	FACE	547	n/a	1	n/a	n/a	n/a	n/a	n/a
3741740	RECOG_CONF	n/a	LTP077	ltpFR	3	3	0	FACE	547	5	1	n/a	n/a	n/a	n/a	n/a
3743156	RECOG_TARGET	n/a	LTP077	ltpFR	3	3	0	LIMOUSINE	824	5	1	n/a	n/a	n/a	n/a	n/a
3743760	RECOG_RESP	n/a	LTP077	ltpFR	3	3	0	LIMOUSINE	824	n/a	1	n/a	n/a	n/a	n/a	n/a
3744364	RECOG_CONF	n/a	LTP077	ltpFR	3	3	0	LIMOUSINE	824	5	1	n/a	n/a	n/a	n/a	n/a
3745691	RECOG_TARGET	n/a	LTP077	ltpFR	3	3	0	PIPE	1073	5	0	n/a	n/a	n/a	n/a	n/a
3746649	RECOG_RESP	n/a	LTP077	ltpFR	3	3	0	PIPE	1073	n/a	0	n/a	n/a	n/a	n/a	n/a
3747238	RECOG_CONF	n/a	LTP077	ltpFR	3	3	0	PIPE	1073	5	0	n/a	n/a	n/a	n/a	n/a
3748624	RECOG_TARGET	n/a	LTP077	ltpFR	3	3	1	TIDE	1465	5	0	n/a	n/a	n/a	n/a	n/a
3749612	RECOG_RESP	n/a	LTP077	ltpFR	3	3	1	TIDE	1465	n/a	0	n/a	n/a	n/a	n/a	n/a
3750221	RECOG_CONF	n/a	LTP077	ltpFR	3	3	1	TIDE	1465	5	0	n/a	n/a	n/a	n/a	n/a
3751582	RECOG_TARGET	n/a	LTP077	ltpFR	3	3	-1	TAXI	1438	5	-1	n/a	n/a	n/a	n/a	n/a
3752336	RECOG_RESP	n/a	LTP077	ltpFR	3	3	-1	TAXI	1438	n/a	-1	n/a	n/a	n/a	n/a	n/a
3752915	RECOG_CONF	n/a	LTP077	ltpFR	3	3	-1	TAXI	1438	5	-1	n/a	n/a	n/a	n/a	n/a
3754322	RECOG_TARGET	n/a	LTP077	ltpFR	3	3	0	WHEEL	1603	1	0	n/a	n/a	n/a	n/a	n/a
3755509	RECOG_RESP	n/a	LTP077	ltpFR	3	3	0	WHEEL	1603	n/a	0	n/a	n/a	n/a	n/a	n/a
3756177	RECOG_CONF	n/a	LTP077	ltpFR	3	3	0	WHEEL	1603	1	0	n/a	n/a	n/a	n/a	n/a
3759073	REC_START	n/a	LTP077	ltpFR	3	4	n/a	n/a	n/a	n/a	n/a	n/a	n/a	n/a	n/a	n/a
3759105	RECOG_LURE	n/a	LTP077	ltpFR	3	4	n/a	LIME	823	5	n/a	n/a	n/a	n/a	n/a	n/a
3759791	RECOG_RESP	n/a	LTP077	ltpFR	3	4	n/a	LIME	823	n/a	n/a	n/a	n/a	n/a	n/a	n/a
3760348	RECOG_CONF	n/a	LTP077	ltpFR	3	4	n/a	LIME	823	5	n/a	n/a	n/a	n/a	n/a	n/a
3761714	RECOG_LURE	n/a	LTP077	ltpFR	3	4	n/a	NOTE	958	5	n/a	n/a	n/a	n/a	n/a	n/a
3762435	RECOG_RESP	n/a	LTP077	ltpFR	3	4	n/a	NOTE	958	n/a	n/a	n/a	n/a	n/a	n/a	n/a
3763129	RECOG_CONF	n/a	LTP077	ltpFR	3	4	n/a	NOTE	958	5	n/a	n/a	n/a	n/a	n/a	n/a
3764888	RECOG_LURE	n/a	LTP077	ltpFR	3	4	n/a	PADDLE	1000	1	n/a	n/a	n/a	n/a	n/a	n/a
3765633	RECOG_RESP	n/a	LTP077	ltpFR	3	4	n/a	PADDLE	1000	n/a	n/a	n/a	n/a	n/a	n/a	n/a
3766411	RECOG_CONF	n/a	LTP077	ltpFR	3	4	n/a	PADDLE	1000	1	n/a	n/a	n/a	n/a	n/a	n/a
3767813	RECOG_TARGET	n/a	LTP077	ltpFR	3	4	0	DYNAMITE	511	5	0	n/a	n/a	n/a	n/a	n/a
3768626	RECOG_RESP	n/a	LTP077	ltpFR	3	4	0	DYNAMITE	511	n/a	0	n/a	n/a	n/a	n/a	n/a
3769295	RECOG_CONF	n/a	LTP077	ltpFR	3	4	0	DYNAMITE	511	5	0	n/a	n/a	n/a	n/a	n/a
3770722	RECOG_TARGET	n/a	LTP077	ltpFR	3	4	1	RACK	1154	5	0	n/a	n/a	n/a	n/a	n/a
3771310	RECOG_RESP	n/a	LTP077	ltpFR	3	4	1	RACK	1154	n/a	0	n/a	n/a	n/a	n/a	n/a
3771889	RECOG_CONF	n/a	LTP077	ltpFR	3	4	1	RACK	1154	5	0	n/a	n/a	n/a	n/a	n/a
3773304	RECOG_TARGET	n/a	LTP077	ltpFR	3	4	1	PICNIC	1060	5	0	n/a	n/a	n/a	n/a	n/a
3774278	RECOG_RESP	n/a	LTP077	ltpFR	3	4	1	PICNIC	1060	n/a	0	n/a	n/a	n/a	n/a	n/a
3774932	RECOG_CONF	n/a	LTP077	ltpFR	3	4	1	PICNIC	1060	5	0	n/a	n/a	n/a	n/a	n/a
3776412	RECOG_LURE	n/a	LTP077	ltpFR	3	4	n/a	TAIL	1430	5	n/a	n/a	n/a	n/a	n/a	n/a
3777057	RECOG_RESP	n/a	LTP077	ltpFR	3	4	n/a	TAIL	1430	n/a	n/a	n/a	n/a	n/a	n/a	n/a
3777656	RECOG_CONF	n/a	LTP077	ltpFR	3	4	n/a	TAIL	1430	5	n/a	n/a	n/a	n/a	n/a	n/a
3779120	RECOG_LURE	n/a	LTP077	ltpFR	3	4	n/a	LEADER	807	5	n/a	n/a	n/a	n/a	n/a	n/a
3779751	RECOG_RESP	n/a	LTP077	ltpFR	3	4	n/a	LEADER	807	n/a	n/a	n/a	n/a	n/a	n/a	n/a
3780379	RECOG_CONF	n/a	LTP077	ltpFR	3	4	n/a	LEADER	807	5	n/a	n/a	n/a	n/a	n/a	n/a
3781854	RECOG_TARGET	n/a	LTP077	ltpFR	3	4	0	PELICAN	1039	5	1	n/a	n/a	n/a	n/a	n/a
3782475	RECOG_RESP	n/a	LTP077	ltpFR	3	4	0	PELICAN	1039	n/a	1	n/a	n/a	n/a	n/a	n/a
3783313	RECOG_CONF	n/a	LTP077	ltpFR	3	4	0	PELICAN	1039	5	1	n/a	n/a	n/a	n/a	n/a
3784679	RECOG_TARGET	n/a	LTP077	ltpFR	3	4	-1	BLOUSE	139	5	-1	n/a	n/a	n/a	n/a	n/a
3785328	RECOG_RESP	n/a	LTP077	ltpFR	3	4	-1	BLOUSE	139	n/a	-1	n/a	n/a	n/a	n/a	n/a
3786126	RECOG_CONF	n/a	LTP077	ltpFR	3	4	-1	BLOUSE	139	5	-1	n/a	n/a	n/a	n/a	n/a
3787679	RECOG_TARGET	n/a	LTP077	ltpFR	3	4	1	MAID	856	5	1	n/a	n/a	n/a	n/a	n/a
3788551	RECOG_RESP	n/a	LTP077	ltpFR	3	4	1	MAID	856	n/a	1	n/a	n/a	n/a	n/a	n/a
3789199	RECOG_CONF	n/a	LTP077	ltpFR	3	4	1	MAID	856	5	1	n/a	n/a	n/a	n/a	n/a
3790970	RECOG_TARGET	n/a	LTP077	ltpFR	3	4	0	PANTS	1010	5	1	n/a	n/a	n/a	n/a	n/a
3791544	RECOG_RESP	n/a	LTP077	ltpFR	3	4	0	PANTS	1010	n/a	1	n/a	n/a	n/a	n/a	n/a
3792183	RECOG_CONF	n/a	LTP077	ltpFR	3	4	0	PANTS	1010	5	1	n/a	n/a	n/a	n/a	n/a
3793670	RECOG_TARGET	n/a	LTP077	ltpFR	3	4	0	OVEN	991	1	1	n/a	n/a	n/a	n/a	n/a
3794692	RECOG_RESP	n/a	LTP077	ltpFR	3	4	0	OVEN	991	n/a	1	n/a	n/a	n/a	n/a	n/a
3795415	RECOG_CONF	n/a	LTP077	ltpFR	3	4	0	OVEN	991	1	1	n/a	n/a	n/a	n/a	n/a
3796786	RECOG_TARGET	n/a	LTP077	ltpFR	3	4	0	TEMPLE	1448	5	1	n/a	n/a	n/a	n/a	n/a
3797381	RECOG_RESP	n/a	LTP077	ltpFR	3	4	0	TEMPLE	1448	n/a	1	n/a	n/a	n/a	n/a	n/a
3797930	RECOG_CONF	n/a	LTP077	ltpFR	3	4	0	TEMPLE	1448	5	1	n/a	n/a	n/a	n/a	n/a
3799319	RECOG_LURE	n/a	LTP077	ltpFR	3	4	n/a	FLASHLIGHT	575	5	n/a	n/a	n/a	n/a	n/a	n/a
3799995	RECOG_RESP	n/a	LTP077	ltpFR	3	4	n/a	FLASHLIGHT	575	n/a	n/a	n/a	n/a	n/a	n/a	n/a
3800573	RECOG_CONF	n/a	LTP077	ltpFR	3	4	n/a	FLASHLIGHT	575	5	n/a	n/a	n/a	n/a	n/a	n/a
3801994	RECOG_TARGET	n/a	LTP077	ltpFR	3	4	1	BUGLE	189	5	0	n/a	n/a	n/a	n/a	n/a
3802679	RECOG_RESP	n/a	LTP077	ltpFR	3	4	1	BUGLE	189	n/a	0	n/a	n/a	n/a	n/a	n/a
3803357	RECOG_CONF	n/a	LTP077	ltpFR	3	4	1	BUGLE	189	5	0	n/a	n/a	n/a	n/a	n/a
3804661	RECOG_TARGET	n/a	LTP077	ltpFR	3	4	0	CUE	422	5	0	n/a	n/a	n/a	n/a	n/a
3805278	RECOG_RESP	n/a	LTP077	ltpFR	3	4	0	CUE	422	n/a	0	n/a	n/a	n/a	n/a	n/a
3805921	RECOG_CONF	n/a	LTP077	ltpFR	3	4	0	CUE	422	5	0	n/a	n/a	n/a	n/a	n/a
3807193	RECOG_TARGET	n/a	LTP077	ltpFR	3	4	1	PENGUIN	1044	5	1	n/a	n/a	n/a	n/a	n/a
3807777	RECOG_RESP	n/a	LTP077	ltpFR	3	4	1	PENGUIN	1044	n/a	1	n/a	n/a	n/a	n/a	n/a
3808456	RECOG_CONF	n/a	LTP077	ltpFR	3	4	1	PENGUIN	1044	5	1	n/a	n/a	n/a	n/a	n/a
3809935	RECOG_TARGET	n/a	LTP077	ltpFR	3	4	1	PREDATOR	1120	5	0	n/a	n/a	n/a	n/a	n/a
3810690	RECOG_RESP	n/a	LTP077	ltpFR	3	4	1	PREDATOR	1120	n/a	0	n/a	n/a	n/a	n/a	n/a
3811289	RECOG_CONF	n/a	LTP077	ltpFR	3	4	1	PREDATOR	1120	5	0	n/a	n/a	n/a	n/a	n/a
3812544	RECOG_TARGET	n/a	LTP077	ltpFR	3	4	1	NUT	965	5	1	n/a	n/a	n/a	n/a	n/a
3813599	RECOG_RESP	n/a	LTP077	ltpFR	3	4	1	NUT	965	n/a	1	n/a	n/a	n/a	n/a	n/a
3814252	RECOG_CONF	n/a	LTP077	ltpFR	3	4	1	NUT	965	5	1	n/a	n/a	n/a	n/a	n/a
3820216	REC_START	n/a	LTP077	ltpFR	3	5	n/a	n/a	n/a	n/a	n/a	n/a	n/a	n/a	n/a	n/a
3820251	RECOG_LURE	n/a	LTP077	ltpFR	3	5	n/a	SIGNATURE	1306	5	n/a	n/a	n/a	n/a	n/a	n/a
3821214	RECOG_RESP	n/a	LTP077	ltpFR	3	5	n/a	SIGNATURE	1306	n/a	n/a	n/a	n/a	n/a	n/a	n/a
3821897	RECOG_CONF	n/a	LTP077	ltpFR	3	5	n/a	SIGNATURE	1306	5	n/a	n/a	n/a	n/a	n/a	n/a
3823225	RECOG_TARGET	n/a	LTP077	ltpFR	3	5	1	SUBURB	1399	5	1	n/a	n/a	n/a	n/a	n/a
3823887	RECOG_RESP	n/a	LTP077	ltpFR	3	5	1	SUBURB	1399	n/a	1	n/a	n/a	n/a	n/a	n/a
3824361	RECOG_CONF	n/a	LTP077	ltpFR	3	5	1	SUBURB	1399	5	1	n/a	n/a	n/a	n/a	n/a
3826084	RECOG_TARGET	n/a	LTP077	ltpFR	3	5	0	PUDDLE	1140	5	1	n/a	n/a	n/a	n/a	n/a
3826691	RECOG_RESP	n/a	LTP077	ltpFR	3	5	0	PUDDLE	1140	n/a	1	n/a	n/a	n/a	n/a	n/a
3827285	RECOG_CONF	n/a	LTP077	ltpFR	3	5	0	PUDDLE	1140	5	1	n/a	n/a	n/a	n/a	n/a
3828684	RECOG_TARGET	n/a	LTP077	ltpFR	3	5	1	HEAD	695	5	1	n/a	n/a	n/a	n/a	n/a
3829205	RECOG_RESP	n/a	LTP077	ltpFR	3	5	1	HEAD	695	n/a	1	n/a	n/a	n/a	n/a	n/a
3829721	RECOG_CONF	n/a	LTP077	ltpFR	3	5	1	HEAD	695	5	1	n/a	n/a	n/a	n/a	n/a
3831433	RECOG_TARGET	n/a	LTP077	ltpFR	3	5	-1	CREVICE	405	5	-1	n/a	n/a	n/a	n/a	n/a
3832144	RECOG_RESP	n/a	LTP077	ltpFR	3	5	-1	CREVICE	405	n/a	-1	n/a	n/a	n/a	n/a	n/a
3832632	RECOG_CONF	n/a	LTP077	ltpFR	3	5	-1	CREVICE	405	5	-1	n/a	n/a	n/a	n/a	n/a
3834133	RECOG_LURE	n/a	LTP077	ltpFR	3	5	n/a	FARM	552	5	n/a	n/a	n/a	n/a	n/a	n/a
3834763	RECOG_RESP_VV	n/a	LTP077	ltpFR	3	5	n/a	FARM	552	n/a	n/a	n/a	n/a	n/a	n/a	n/a
3835204	RECOG_RESP_VV	n/a	LTP077	ltpFR	3	5	n/a	FARM	552	5	n/a	n/a	n/a	n/a	n/a	n/a
3835688	RECOG_RESP	n/a	LTP077	ltpFR	3	5	n/a	FARM	552	n/a	n/a	n/a	n/a	n/a	n/a	n/a
3836703	RECOG_CONF	n/a	LTP077	ltpFR	3	5	n/a	FARM	552	5	n/a	n/a	n/a	n/a	n/a	n/a
3838224	RECOG_TARGET	n/a	LTP077	ltpFR	3	5	1	TAVERN	1437	5	0	n/a	n/a	n/a	n/a	n/a
3839073	RECOG_RESP	n/a	LTP077	ltpFR	3	5	1	TAVERN	1437	n/a	0	n/a	n/a	n/a	n/a	n/a
3839906	RECOG_CONF	n/a	LTP077	ltpFR	3	5	1	TAVERN	1437	5	0	n/a	n/a	n/a	n/a	n/a
3841241	RECOG_TARGET	n/a	LTP077	ltpFR	3	5	-1	EARRING	514	5	-1	n/a	n/a	n/a	n/a	n/a
3841907	RECOG_RESP	n/a	LTP077	ltpFR	3	5	-1	EARRING	514	n/a	-1	n/a	n/a	n/a	n/a	n/a
3842700	RECOG_CONF	n/a	LTP077	ltpFR	3	5	-1	EARRING	514	5	-1	n/a	n/a	n/a	n/a	n/a
3844199	RECOG_TARGET	n/a	LTP077	ltpFR	3	5	-1	TREASURE	1500	5	-1	n/a	n/a	n/a	n/a	n/a
3844795	RECOG_RESP	n/a	LTP077	ltpFR	3	5	-1	TREASURE	1500	n/a	-1	n/a	n/a	n/a	n/a	n/a
3845503	RECOG_CONF	n/a	LTP077	ltpFR	3	5	-1	TREASURE	1500	5	-1	n/a	n/a	n/a	n/a	n/a
3846965	RECOG_TARGET	n/a	LTP077	ltpFR	3	5	0	HOSE	720	5	0	n/a	n/a	n/a	n/a	n/a
3847539	RECOG_RESP	n/a	LTP077	ltpFR	3	5	0	HOSE	720	n/a	0	n/a	n/a	n/a	n/a	n/a
3848267	RECOG_CONF	n/a	LTP077	ltpFR	3	5	0	HOSE	720	5	0	n/a	n/a	n/a	n/a	n/a
3849782	RECOG_TARGET	n/a	LTP077	ltpFR	3	5	0	SOCK	1339	5	0	n/a	n/a	n/a	n/a	n/a
3850487	RECOG_RESP	n/a	LTP077	ltpFR	3	5	0	SOCK	1339	n/a	0	n/a	n/a	n/a	n/a	n/a
3851530	RECOG_CONF	n/a	LTP077	ltpFR	3	5	0	SOCK	1339	5	0	n/a	n/a	n/a	n/a	n/a
3853415	RECOG_TARGET	n/a	LTP077	ltpFR	3	5	-1	BLACKBERRY	132	5	-1	n/a	n/a	n/a	n/a	n/a
3853999	RECOG_RESP	n/a	LTP077	ltpFR	3	5	-1	BLACKBERRY	132	n/a	-1	n/a	n/a	n/a	n/a	n/a
3854802	RECOG_CONF	n/a	LTP077	ltpFR	3	5	-1	BLACKBERRY	132	5	-1	n/a	n/a	n/a	n/a	n/a
3856248	RECOG_TARGET	n/a	LTP077	ltpFR	3	5	-1	GRATE	657	5	-1	n/a	n/a	n/a	n/a	n/a
3856798	RECOG_RESP	n/a	LTP077	ltpFR	3	5	-1	GRATE	657	n/a	-1	n/a	n/a	n/a	n/a	n/a
3857456	RECOG_CONF	n/a	LTP077	ltpFR	3	5	-1	GRATE	657	5	-1	n/a	n/a	n/a	n/a	n/a
3858856	RECOG_TARGET	n/a	LTP077	ltpFR	3	5	-1	PLANT	1083	5	-1	n/a	n/a	n/a	n/a	n/a
3859531	RECOG_RESP	n/a	LTP077	ltpFR	3	5	-1	PLANT	1083	n/a	-1	n/a	n/a	n/a	n/a	n/a
3860150	RECOG_CONF	n/a	LTP077	ltpFR	3	5	-1	PLANT	1083	5	-1	n/a	n/a	n/a	n/a	n/a
3861482	RECOG_TARGET	n/a	LTP077	ltpFR	3	5	-1	FIREMAN	569	5	-1	n/a	n/a	n/a	n/a	n/a
3862011	RECOG_RESP	n/a	LTP077	ltpFR	3	5	-1	FIREMAN	569	n/a	-1	n/a	n/a	n/a	n/a	n/a
3862614	RECOG_CONF	n/a	LTP077	ltpFR	3	5	-1	FIREMAN	569	5	-1	n/a	n/a	n/a	n/a	n/a
3863964	RECOG_LURE	n/a	LTP077	ltpFR	3	5	n/a	SUITE	1404	5	n/a	n/a	n/a	n/a	n/a	n/a
3864535	RECOG_RESP	n/a	LTP077	ltpFR	3	5	n/a	SUITE	1404	n/a	n/a	n/a	n/a	n/a	n/a	n/a
3865099	RECOG_CONF	n/a	LTP077	ltpFR	3	5	n/a	SUITE	1404	5	n/a	n/a	n/a	n/a	n/a	n/a
3866364	RECOG_LURE	n/a	LTP077	ltpFR	3	5	n/a	ROOMMATE	1207	5	n/a	n/a	n/a	n/a	n/a	n/a
3866985	RECOG_RESP	n/a	LTP077	ltpFR	3	5	n/a	ROOMMATE	1207	n/a	n/a	n/a	n/a	n/a	n/a	n/a
3867523	RECOG_CONF	n/a	LTP077	ltpFR	3	5	n/a	ROOMMATE	1207	5	n/a	n/a	n/a	n/a	n/a	n/a
3868930	RECOG_TARGET	n/a	LTP077	ltpFR	3	5	-1	ALLEY	15	5	-1	n/a	n/a	n/a	n/a	n/a
3869434	RECOG_RESP	n/a	LTP077	ltpFR	3	5	-1	ALLEY	15	n/a	-1	n/a	n/a	n/a	n/a	n/a
3869958	RECOG_CONF	n/a	LTP077	ltpFR	3	5	-1	ALLEY	15	5	-1	n/a	n/a	n/a	n/a	n/a
3871372	RECOG_TARGET	n/a	LTP077	ltpFR	3	5	0	HONEY	713	n/a	0	n/a	n/a	n/a	n/a	n/a
3871784	RECOG_RESP	n/a	LTP077	ltpFR	3	5	0	HONEY	713	n/a	0	n/a	n/a	n/a	n/a	n/a
3873847	RECOG_TARGET	n/a	LTP077	ltpFR	3	5	1	TONGUE	1479	1	0	n/a	n/a	n/a	n/a	n/a
3875650	RECOG_RESP	n/a	LTP077	ltpFR	3	5	1	TONGUE	1479	n/a	0	n/a	n/a	n/a	n/a	n/a
3877131	RECOG_CONF	n/a	LTP077	ltpFR	3	5	1	TONGUE	1479	1	0	n/a	n/a	n/a	n/a	n/a
3880332	REC_START	n/a	LTP077	ltpFR	3	6	n/a	n/a	n/a	n/a	n/a	n/a	n/a	n/a	n/a	n/a
3880380	RECOG_LURE	n/a	LTP077	ltpFR	3	6	n/a	FUNGUS	614	5	n/a	n/a	n/a	n/a	n/a	n/a
3881454	RECOG_RESP	n/a	LTP077	ltpFR	3	6	n/a	FUNGUS	614	n/a	n/a	n/a	n/a	n/a	n/a	n/a
3881983	RECOG_CONF	n/a	LTP077	ltpFR	3	6	n/a	FUNGUS	614	5	n/a	n/a	n/a	n/a	n/a	n/a
3883371	RECOG_TARGET	n/a	LTP077	ltpFR	3	6	-1	POPCORN	1104	5	-1	n/a	n/a	n/a	n/a	n/a
3884003	RECOG_RESP	n/a	LTP077	ltpFR	3	6	-1	POPCORN	1104	n/a	-1	n/a	n/a	n/a	n/a	n/a
3884421	RECOG_CONF	n/a	LTP077	ltpFR	3	6	-1	POPCORN	1104	5	-1	n/a	n/a	n/a	n/a	n/a
3885887	RECOG_TARGET	n/a	LTP077	ltpFR	3	6	-1	LOFT	840	5	-1	n/a	n/a	n/a	n/a	n/a
3886588	RECOG_RESP	n/a	LTP077	ltpFR	3	6	-1	LOFT	840	n/a	-1	n/a	n/a	n/a	n/a	n/a
3887181	RECOG_CONF	n/a	LTP077	ltpFR	3	6	-1	LOFT	840	5	-1	n/a	n/a	n/a	n/a	n/a
3888538	RECOG_TARGET	n/a	LTP077	ltpFR	3	6	1	SHEPHERD	1283	5	1	n/a	n/a	n/a	n/a	n/a
3889137	RECOG_RESP	n/a	LTP077	ltpFR	3	6	1	SHEPHERD	1283	n/a	1	n/a	n/a	n/a	n/a	n/a
3889578	RECOG_CONF	n/a	LTP077	ltpFR	3	6	1	SHEPHERD	1283	5	1	n/a	n/a	n/a	n/a	n/a
3890979	RECOG_TARGET	n/a	LTP077	ltpFR	3	6	1	SCOUT	1252	5	1	n/a	n/a	n/a	n/a	n/a
3891904	RECOG_RESP	n/a	LTP077	ltpFR	3	6	1	SCOUT	1252	n/a	1	n/a	n/a	n/a	n/a	n/a
3892609	RECOG_CONF	n/a	LTP077	ltpFR	3	6	1	SCOUT	1252	5	1	n/a	n/a	n/a	n/a	n/a
3894029	RECOG_TARGET	n/a	LTP077	ltpFR	3	6	0	GRILL	661	5	1	n/a	n/a	n/a	n/a	n/a
3894594	RECOG_RESP	n/a	LTP077	ltpFR	3	6	0	GRILL	661	n/a	1	n/a	n/a	n/a	n/a	n/a
3895143	RECOG_CONF	n/a	LTP077	ltpFR	3	6	0	GRILL	661	5	1	n/a	n/a	n/a	n/a	n/a
3896554	RECOG_TARGET	n/a	LTP077	ltpFR	3	6	1	DRAGON	492	5	1	n/a	n/a	n/a	n/a	n/a
3897283	RECOG_RESP	n/a	LTP077	ltpFR	3	6	1	DRAGON	492	n/a	1	n/a	n/a	n/a	n/a	n/a
3897877	RECOG_CONF	n/a	LTP077	ltpFR	3	6	1	DRAGON	492	5	1	n/a	n/a	n/a	n/a	n/a
3899345	RECOG_TARGET	n/a	LTP077	ltpFR	3	6	-1	LEG	809	5	-1	n/a	n/a	n/a	n/a	n/a
3900272	RECOG_RESP	n/a	LTP077	ltpFR	3	6	-1	LEG	809	n/a	-1	n/a	n/a	n/a	n/a	n/a
3900860	RECOG_CONF	n/a	LTP077	ltpFR	3	6	-1	LEG	809	5	-1	n/a	n/a	n/a	n/a	n/a
3902303	RECOG_TARGET	n/a	LTP077	ltpFR	3	6	0	SCREWDRIVER	1255	5	0	n/a	n/a	n/a	n/a	n/a
3902950	RECOG_RESP	n/a	LTP077	ltpFR	3	6	0	SCREWDRIVER	1255	n/a	0	n/a	n/a	n/a	n/a	n/a
3903544	RECOG_CONF	n/a	LTP077	ltpFR	3	6	0	SCREWDRIVER	1255	5	0	n/a	n/a	n/a	n/a	n/a
3904936	RECOG_TARGET	n/a	LTP077	ltpFR	3	6	-1	RAISIN	1163	5	-1	n/a	n/a	n/a	n/a	n/a
3905584	RECOG_RESP	n/a	LTP077	ltpFR	3	6	-1	RAISIN	1163	n/a	-1	n/a	n/a	n/a	n/a	n/a
3906567	RECOG_CONF	n/a	LTP077	ltpFR	3	6	-1	RAISIN	1163	5	-1	n/a	n/a	n/a	n/a	n/a
3907994	RECOG_TARGET	n/a	LTP077	ltpFR	3	6	0	TOE	1473	5	0	n/a	n/a	n/a	n/a	n/a
3908697	RECOG_RESP_VV	n/a	LTP077	ltpFR	3	6	0	TOE	1473	n/a	0	n/a	n/a	n/a	n/a	n/a
3909226	RECOG_RESP	n/a	LTP077	ltpFR	3	6	0	TOE	1473	n/a	0	n/a	n/a	n/a	n/a	n/a
3910049	RECOG_CONF	n/a	LTP077	ltpFR	3	6	0	TOE	1473	5	0	n/a	n/a	n/a	n/a	n/a
3911461	RECOG_TARGET	n/a	LTP077	ltpFR	3	6	0	WHISTLE	1606	5	0	n/a	n/a	n/a	n/a	n/a
3912095	RECOG_RESP	n/a	LTP077	ltpFR	3	6	0	WHISTLE	1606	n/a	0	n/a	n/a	n/a	n/a	n/a
3912753	RECOG_CONF	n/a	LTP077	ltpFR	3	6	0	WHISTLE	1606	5	0	n/a	n/a	n/a	n/a	n/a
3914060	RECOG_TARGET	n/a	LTP077	ltpFR	3	6	-1	HOOD	714	5	-1	n/a	n/a	n/a	n/a	n/a
3914659	RECOG_RESP	n/a	LTP077	ltpFR	3	6	-1	HOOD	714	n/a	-1	n/a	n/a	n/a	n/a	n/a
3915228	RECOG_CONF	n/a	LTP077	ltpFR	3	6	-1	HOOD	714	5	-1	n/a	n/a	n/a	n/a	n/a
3916620	RECOG_TARGET	n/a	LTP077	ltpFR	3	6	0	POPE	1105	5	1	n/a	n/a	n/a	n/a	n/a
3917268	RECOG_RESP	n/a	LTP077	ltpFR	3	6	0	POPE	1105	n/a	1	n/a	n/a	n/a	n/a	n/a
3917911	RECOG_CONF	n/a	LTP077	ltpFR	3	6	0	POPE	1105	5	1	n/a	n/a	n/a	n/a	n/a
3919243	RECOG_LURE	n/a	LTP077	ltpFR	3	6	n/a	CLIFF	322	5	n/a	n/a	n/a	n/a	n/a	n/a
3919977	RECOG_RESP	n/a	LTP077	ltpFR	3	6	n/a	CLIFF	322	n/a	n/a	n/a	n/a	n/a	n/a	n/a
3920565	RECOG_CONF	n/a	LTP077	ltpFR	3	6	n/a	CLIFF	322	5	n/a	n/a	n/a	n/a	n/a	n/a
3921935	RECOG_TARGET	n/a	LTP077	ltpFR	3	6	0	APPLE	33	5	1	n/a	n/a	n/a	n/a	n/a
3922725	RECOG_RESP	n/a	LTP077	ltpFR	3	6	0	APPLE	33	n/a	1	n/a	n/a	n/a	n/a	n/a
3923459	RECOG_CONF	n/a	LTP077	ltpFR	3	6	0	APPLE	33	5	1	n/a	n/a	n/a	n/a	n/a
3924993	RECOG_TARGET	n/a	LTP077	ltpFR	3	6	-1	GOO	648	5	-1	n/a	n/a	n/a	n/a	n/a
3926681	RECOG_RESP	n/a	LTP077	ltpFR	3	6	-1	GOO	648	n/a	-1	n/a	n/a	n/a	n/a	n/a
3929276	RECOG_CONF	n/a	LTP077	ltpFR	3	6	-1	GOO	648	5	-1	n/a	n/a	n/a	n/a	n/a
3930660	RECOG_TARGET	n/a	LTP077	ltpFR	3	6	-1	GOWN	652	5	-1	n/a	n/a	n/a	n/a	n/a
3931276	RECOG_RESP	n/a	LTP077	ltpFR	3	6	-1	GOWN	652	n/a	-1	n/a	n/a	n/a	n/a	n/a
3931910	RECOG_CONF	n/a	LTP077	ltpFR	3	6	-1	GOWN	652	5	-1	n/a	n/a	n/a	n/a	n/a
3933317	RECOG_TARGET	n/a	LTP077	ltpFR	3	6	0	INMATE	738	5	1	n/a	n/a	n/a	n/a	n/a
3934374	RECOG_RESP	n/a	LTP077	ltpFR	3	6	0	INMATE	738	n/a	1	n/a	n/a	n/a	n/a	n/a
3934983	RECOG_CONF	n/a	LTP077	ltpFR	3	6	0	INMATE	738	5	1	n/a	n/a	n/a	n/a	n/a
3936425	RECOG_TARGET	n/a	LTP077	ltpFR	3	6	-1	COW	393	5	-1	n/a	n/a	n/a	n/a	n/a
3937038	RECOG_RESP	n/a	LTP077	ltpFR	3	6	-1	COW	393	n/a	-1	n/a	n/a	n/a	n/a	n/a
3937637	RECOG_CONF	n/a	LTP077	ltpFR	3	6	-1	COW	393	5	-1	n/a	n/a	n/a	n/a	n/a
3940530	REC_START	n/a	LTP077	ltpFR	3	7	n/a	n/a	n/a	n/a	n/a	n/a	n/a	n/a	n/a	n/a
3940568	RECOG_TARGET	n/a	LTP077	ltpFR	3	7	1	OTTER	986	5	1	n/a	n/a	n/a	n/a	n/a
3941203	RECOG_RESP	n/a	LTP077	ltpFR	3	7	1	OTTER	986	n/a	1	n/a	n/a	n/a	n/a	n/a
3941782	RECOG_CONF	n/a	LTP077	ltpFR	3	7	1	OTTER	986	5	1	n/a	n/a	n/a	n/a	n/a
3943225	RECOG_LURE	n/a	LTP077	ltpFR	3	7	n/a	FURNITURE	616	5	n/a	n/a	n/a	n/a	n/a	n/a
3943782	RECOG_RESP	n/a	LTP077	ltpFR	3	7	n/a	FURNITURE	616	n/a	n/a	n/a	n/a	n/a	n/a	n/a
3944346	RECOG_CONF	n/a	LTP077	ltpFR	3	7	n/a	FURNITURE	616	5	n/a	n/a	n/a	n/a	n/a	n/a
3945741	RECOG_TARGET	n/a	LTP077	ltpFR	3	7	0	NEWSPAPER	948	5	0	n/a	n/a	n/a	n/a	n/a
3946307	RECOG_RESP	n/a	LTP077	ltpFR	3	7	0	NEWSPAPER	948	n/a	0	n/a	n/a	n/a	n/a	n/a
3946850	RECOG_CONF	n/a	LTP077	ltpFR	3	7	0	NEWSPAPER	948	5	0	n/a	n/a	n/a	n/a	n/a
3948199	RECOG_TARGET	n/a	LTP077	ltpFR	3	7	-1	VINE	1568	5	-1	n/a	n/a	n/a	n/a	n/a
3948736	RECOG_RESP	n/a	LTP077	ltpFR	3	7	-1	VINE	1568	n/a	-1	n/a	n/a	n/a	n/a	n/a
3949295	RECOG_CONF	n/a	LTP077	ltpFR	3	7	-1	VINE	1568	5	-1	n/a	n/a	n/a	n/a	n/a
3950642	RECOG_LURE	n/a	LTP077	ltpFR	3	7	n/a	RIBBON	1189	1	n/a	n/a	n/a	n/a	n/a	n/a
3951390	RECOG_RESP	n/a	LTP077	ltpFR	3	7	n/a	RIBBON	1189	n/a	n/a	n/a	n/a	n/a	n/a	n/a
3952049	RECOG_CONF	n/a	LTP077	ltpFR	3	7	n/a	RIBBON	1189	1	n/a	n/a	n/a	n/a	n/a	n/a
3953424	RECOG_TARGET	n/a	LTP077	ltpFR	3	7	1	PAWN	1030	5	1	n/a	n/a	n/a	n/a	n/a
3954004	RECOG_RESP	n/a	LTP077	ltpFR	3	7	1	PAWN	1030	n/a	1	n/a	n/a	n/a	n/a	n/a
3954492	RECOG_CONF	n/a	LTP077	ltpFR	3	7	1	PAWN	1030	5	1	n/a	n/a	n/a	n/a	n/a
3955966	RECOG_TARGET	n/a	LTP077	ltpFR	3	7	1	SHIP	1286	5	0	n/a	n/a	n/a	n/a	n/a
3956578	RECOG_RESP	n/a	LTP077	ltpFR	3	7	1	SHIP	1286	n/a	0	n/a	n/a	n/a	n/a	n/a
3957127	RECOG_CONF	n/a	LTP077	ltpFR	3	7	1	SHIP	1286	5	0	n/a	n/a	n/a	n/a	n/a
3958558	RECOG_LURE	n/a	LTP077	ltpFR	3	7	n/a	NIGHTGOWN	953	5	n/a	n/a	n/a	n/a	n/a	n/a
3959392	RECOG_RESP	n/a	LTP077	ltpFR	3	7	n/a	NIGHTGOWN	953	n/a	n/a	n/a	n/a	n/a	n/a	n/a
3959901	RECOG_CONF	n/a	LTP077	ltpFR	3	7	n/a	NIGHTGOWN	953	5	n/a	n/a	n/a	n/a	n/a	n/a
3961332	RECOG_TARGET	n/a	LTP077	ltpFR	3	7	0	EAGLE	512	5	1	n/a	n/a	n/a	n/a	n/a
3961891	RECOG_RESP	n/a	LTP077	ltpFR	3	7	0	EAGLE	512	n/a	1	n/a	n/a	n/a	n/a	n/a
3962465	RECOG_CONF	n/a	LTP077	ltpFR	3	7	0	EAGLE	512	5	1	n/a	n/a	n/a	n/a	n/a
3963882	RECOG_TARGET	n/a	LTP077	ltpFR	3	7	-1	WART	1590	5	-1	n/a	n/a	n/a	n/a	n/a
3964560	RECOG_RESP	n/a	LTP077	ltpFR	3	7	-1	WART	1590	n/a	-1	n/a	n/a	n/a	n/a	n/a
3965048	RECOG_CONF	n/a	LTP077	ltpFR	3	7	-1	WART	1590	5	-1	n/a	n/a	n/a	n/a	n/a
3966516	RECOG_TARGET	n/a	LTP077	ltpFR	3	7	0	HAMBURGER	679	5	1	n/a	n/a	n/a	n/a	n/a
3967194	RECOG_RESP	n/a	LTP077	ltpFR	3	7	0	HAMBURGER	679	n/a	1	n/a	n/a	n/a	n/a	n/a
3967823	RECOG_CONF	n/a	LTP077	ltpFR	3	7	0	HAMBURGER	679	5	1	n/a	n/a	n/a	n/a	n/a
3969306	RECOG_TARGET	n/a	LTP077	ltpFR	3	7	0	LAKE	796	5	1	n/a	n/a	n/a	n/a	n/a
3969978	RECOG_RESP	n/a	LTP077	ltpFR	3	7	0	LAKE	796	n/a	1	n/a	n/a	n/a	n/a	n/a
3970596	RECOG_CONF	n/a	LTP077	ltpFR	3	7	0	LAKE	796	5	1	n/a	n/a	n/a	n/a	n/a
3972048	RECOG_LURE	n/a	LTP077	ltpFR	3	7	n/a	COPIER	377	5	n/a	n/a	n/a	n/a	n/a	n/a
3972667	RECOG_RESP	n/a	LTP077	ltpFR	3	7	n/a	COPIER	377	n/a	n/a	n/a	n/a	n/a	n/a	n/a
3973160	RECOG_CONF	n/a	LTP077	ltpFR	3	7	n/a	COPIER	377	5	n/a	n/a	n/a	n/a	n/a	n/a
3974615	RECOG_TARGET	n/a	LTP077	ltpFR	3	7	1	NAVIGATOR	938	5	1	n/a	n/a	n/a	n/a	n/a
3975191	RECOG_RESP	n/a	LTP077	ltpFR	3	7	1	NAVIGATOR	938	n/a	1	n/a	n/a	n/a	n/a	n/a
3975884	RECOG_CONF	n/a	LTP077	ltpFR	3	7	1	NAVIGATOR	938	5	1	n/a	n/a	n/a	n/a	n/a
3977306	RECOG_TARGET	n/a	LTP077	ltpFR	3	7	0	PREACHER	1119	5	1	n/a	n/a	n/a	n/a	n/a
3977885	RECOG_RESP	n/a	LTP077	ltpFR	3	7	0	PREACHER	1119	n/a	1	n/a	n/a	n/a	n/a	n/a
3978396	RECOG_CONF	n/a	LTP077	ltpFR	3	7	0	PREACHER	1119	5	1	n/a	n/a	n/a	n/a	n/a
3980022	RECOG_TARGET	n/a	LTP077	ltpFR	3	7	0	TORNADO	1485	5	1	n/a	n/a	n/a	n/a	n/a
3980669	RECOG_RESP	n/a	LTP077	ltpFR	3	7	0	TORNADO	1485	n/a	1	n/a	n/a	n/a	n/a	n/a
3981352	RECOG_CONF	n/a	LTP077	ltpFR	3	7	0	TORNADO	1485	5	1	n/a	n/a	n/a	n/a	n/a
3982797	RECOG_TARGET	n/a	LTP077	ltpFR	3	7	-1	SPOOL	1356	5	-1	n/a	n/a	n/a	n/a	n/a
3983467	RECOG_RESP	n/a	LTP077	ltpFR	3	7	-1	SPOOL	1356	n/a	-1	n/a	n/a	n/a	n/a	n/a
3983955	RECOG_CONF	n/a	LTP077	ltpFR	3	7	-1	SPOOL	1356	5	-1	n/a	n/a	n/a	n/a	n/a
3985523	RECOG_TARGET	n/a	LTP077	ltpFR	3	7	-1	LITTER	832	1	-1	n/a	n/a	n/a	n/a	n/a
3986201	RECOG_RESP	n/a	LTP077	ltpFR	3	7	-1	LITTER	832	n/a	-1	n/a	n/a	n/a	n/a	n/a
3986899	RECOG_CONF	n/a	LTP077	ltpFR	3	7	-1	LITTER	832	1	-1	n/a	n/a	n/a	n/a	n/a
3988388	RECOG_LURE	n/a	LTP077	ltpFR	3	7	n/a	CERAMICS	271	5	n/a	n/a	n/a	n/a	n/a	n/a
3989194	RECOG_RESP	n/a	LTP077	ltpFR	3	7	n/a	CERAMICS	271	n/a	n/a	n/a	n/a	n/a	n/a	n/a
3989612	RECOG_CONF	n/a	LTP077	ltpFR	3	7	n/a	CERAMICS	271	5	n/a	n/a	n/a	n/a	n/a	n/a
3991221	RECOG_LURE	n/a	LTP077	ltpFR	3	7	n/a	CHIME	300	1	n/a	n/a	n/a	n/a	n/a	n/a
3992088	RECOG_RESP	n/a	LTP077	ltpFR	3	7	n/a	CHIME	300	n/a	n/a	n/a	n/a	n/a	n/a	n/a
3992826	RECOG_CONF	n/a	LTP077	ltpFR	3	7	n/a	CHIME	300	1	n/a	n/a	n/a	n/a	n/a	n/a
3995993	REC_START	n/a	LTP077	ltpFR	3	8	n/a	n/a	n/a	n/a	n/a	n/a	n/a	n/a	n/a	n/a
3996029	RECOG_TARGET	n/a	LTP077	ltpFR	3	8	-1	BANK	83	5	-1	n/a	n/a	n/a	n/a	n/a
3996681	RECOG_RESP	n/a	LTP077	ltpFR	3	8	-1	BANK	83	n/a	-1	n/a	n/a	n/a	n/a	n/a
3997145	RECOG_CONF	n/a	LTP077	ltpFR	3	8	-1	BANK	83	5	-1	n/a	n/a	n/a	n/a	n/a
3998762	RECOG_TARGET	n/a	LTP077	ltpFR	3	8	1	REFEREE	1178	5	1	n/a	n/a	n/a	n/a	n/a
3999405	RECOG_RESP	n/a	LTP077	ltpFR	3	8	1	REFEREE	1178	n/a	1	n/a	n/a	n/a	n/a	n/a
3999916	RECOG_CONF	n/a	LTP077	ltpFR	3	8	1	REFEREE	1178	5	1	n/a	n/a	n/a	n/a	n/a
4001538	RECOG_TARGET	n/a	LTP077	ltpFR	3	8	-1	MARROW	872	5	-1	n/a	n/a	n/a	n/a	n/a
4002094	RECOG_RESP	n/a	LTP077	ltpFR	3	8	-1	MARROW	872	n/a	-1	n/a	n/a	n/a	n/a	n/a
4002932	RECOG_CONF	n/a	LTP077	ltpFR	3	8	-1	MARROW	872	5	-1	n/a	n/a	n/a	n/a	n/a
4004462	RECOG_TARGET	n/a	LTP077	ltpFR	3	8	-1	BATTERY	101	5	-1	n/a	n/a	n/a	n/a	n/a
4005067	RECOG_RESP	n/a	LTP077	ltpFR	3	8	-1	BATTERY	101	n/a	-1	n/a	n/a	n/a	n/a	n/a
4005566	RECOG_CONF	n/a	LTP077	ltpFR	3	8	-1	BATTERY	101	5	-1	n/a	n/a	n/a	n/a	n/a
4006928	RECOG_TARGET	n/a	LTP077	ltpFR	3	8	1	MECHANIC	884	5	1	n/a	n/a	n/a	n/a	n/a
4007537	RECOG_RESP	n/a	LTP077	ltpFR	3	8	1	MECHANIC	884	n/a	1	n/a	n/a	n/a	n/a	n/a
4008080	RECOG_CONF	n/a	LTP077	ltpFR	3	8	1	MECHANIC	884	5	1	n/a	n/a	n/a	n/a	n/a
4009778	RECOG_TARGET	n/a	LTP077	ltpFR	3	8	0	ROD	1203	5	1	n/a	n/a	n/a	n/a	n/a
4010310	RECOG_RESP	n/a	LTP077	ltpFR	3	8	0	ROD	1203	n/a	1	n/a	n/a	n/a	n/a	n/a
4010864	RECOG_CONF	n/a	LTP077	ltpFR	3	8	0	ROD	1203	5	1	n/a	n/a	n/a	n/a	n/a
4012295	RECOG_TARGET	n/a	LTP077	ltpFR	3	8	1	PORPOISE	1109	5	1	n/a	n/a	n/a	n/a	n/a
4012854	RECOG_RESP	n/a	LTP077	ltpFR	3	8	1	PORPOISE	1109	n/a	1	n/a	n/a	n/a	n/a	n/a
4013408	RECOG_CONF	n/a	LTP077	ltpFR	3	8	1	PORPOISE	1109	5	1	n/a	n/a	n/a	n/a	n/a
4014944	RECOG_TARGET	n/a	LTP077	ltpFR	3	8	1	HOUND	724	5	1	n/a	n/a	n/a	n/a	n/a
4015449	RECOG_RESP	n/a	LTP077	ltpFR	3	8	1	HOUND	724	n/a	1	n/a	n/a	n/a	n/a	n/a
4016002	RECOG_CONF	n/a	LTP077	ltpFR	3	8	1	HOUND	724	5	1	n/a	n/a	n/a	n/a	n/a
4017419	RECOG_TARGET	n/a	LTP077	ltpFR	3	8	1	BUGGY	188	5	0	n/a	n/a	n/a	n/a	n/a
