onset	duration	trial_type	sample	stim_file	subject	experiment	session	trial	task	item_name	item_num	recog_conf	resp	answer	test_x	test_y	test_z	color_b	color_g	color_r	case	font
257.538	n/a	SESS_START	128769	n/a	LTP293	ltpFR	11	n/a	n/a	n/a	n/a	2	n/a	n/a	0	0	0	n/a	n/a	n/a	n/a	n/a
299.49	n/a	START	149745	n/a	LTP293	ltpFR	11	n/a	n/a	n/a	n/a	n/a	n/a	n/a	n/a	n/a	n/a	n/a	n/a	n/a	n/a	n/a
299.54	n/a	PROB	149770	n/a	LTP293	ltpFR	11	n/a	n/a	n/a	n/a	n/a	n/a	23	9	5	8	n/a	n/a	n/a	n/a	n/a
302.674	n/a	PROB	151337	n/a	LTP293	ltpFR	11	n/a	n/a	n/a	n/a	n/a	n/a	17	7	5	5	n/a	n/a	n/a	n/a	n/a
304.146	n/a	PROB	152073	n/a	LTP293	ltpFR	11	n/a	n/a	n/a	n/a	n/a	n/a	16	3	8	5	n/a	n/a	n/a	n/a	n/a
305.786	n/a	PROB	152893	n/a	LTP293	ltpFR	11	n/a	n/a	n/a	n/a	n/a	n/a	19	2	8	9	n/a	n/a	n/a	n/a	n/a
307.358	n/a	PROB	153679	n/a	LTP293	ltpFR	11	n/a	n/a	n/a	n/a	n/a	n/a	14	1	4	9	n/a	n/a	n/a	n/a	n/a
308.742	n/a	PROB	154371	n/a	LTP293	ltpFR	11	n/a	n/a	n/a	n/a	n/a	n/a	11	1	1	9	n/a	n/a	n/a	n/a	n/a
309.864	n/a	PROB	154932	n/a	LTP293	ltpFR	11	n/a	n/a	n/a	n/a	n/a	n/a	7	4	1	2	n/a	n/a	n/a	n/a	n/a
311.502	n/a	PROB	155751	n/a	LTP293	ltpFR	11	n/a	n/a	n/a	n/a	n/a	n/a	9	2	2	5	n/a	n/a	n/a	n/a	n/a
312.792	n/a	PROB	156396	n/a	LTP293	ltpFR	11	n/a	n/a	n/a	n/a	n/a	n/a	16	4	9	2	n/a	n/a	n/a	n/a	n/a
314.698	n/a	PROB	157349	n/a	LTP293	ltpFR	11	n/a	n/a	n/a	n/a	n/a	n/a	17	3	8	6	n/a	n/a	n/a	n/a	n/a
317.096	n/a	PROB	158548	n/a	LTP293	ltpFR	11	n/a	n/a	n/a	n/a	n/a	n/a	9	1	5	3	n/a	n/a	n/a	n/a	n/a
318.594	n/a	STOP	159297	n/a	LTP293	ltpFR	11	n/a	n/a	n/a	n/a	n/a	n/a	n/a	n/a	n/a	n/a	n/a	n/a	n/a	n/a	n/a
392.468	n/a	START	196234	n/a	LTP293	ltpFR	11	n/a	n/a	n/a	n/a	n/a	n/a	n/a	n/a	n/a	n/a	n/a	n/a	n/a	n/a	n/a
393.984	n/a	PROB	196992	n/a	LTP293	ltpFR	11	n/a	n/a	n/a	n/a	n/a	n/a	9	4	1	4	n/a	n/a	n/a	n/a	n/a
395.612	n/a	PROB	197806	n/a	LTP293	ltpFR	11	n/a	n/a	n/a	n/a	n/a	n/a	18	2	7	9	n/a	n/a	n/a	n/a	n/a
396.862	n/a	PROB	198431	n/a	LTP293	ltpFR	11	n/a	n/a	n/a	n/a	n/a	n/a	17	5	5	7	n/a	n/a	n/a	n/a	n/a
398.166	n/a	PROB	199083	n/a	LTP293	ltpFR	11	n/a	n/a	n/a	n/a	n/a	n/a	14	6	1	7	n/a	n/a	n/a	n/a	n/a
399.944	n/a	STOP	199972	n/a	LTP293	ltpFR	11	n/a	n/a	n/a	n/a	n/a	n/a	n/a	n/a	n/a	n/a	n/a	n/a	n/a	n/a	n/a
401.318	n/a	WORD	200659	wordpools/wasnorm_wordpool_less_exclusions.txt	LTP293	ltpFR	11	1	1	STEW	1380	n/a	0	n/a	0	0	0	1	0.412841796875	0.57763671875	upper	../fonts/amplitud.ttf
404.33	n/a	START	202165	n/a	LTP293	ltpFR	11	n/a	n/a	n/a	n/a	n/a	n/a	n/a	n/a	n/a	n/a	n/a	n/a	n/a	n/a	n/a
405.294	n/a	PROB	202647	n/a	LTP293	ltpFR	11	n/a	n/a	n/a	n/a	n/a	n/a	10	2	6	2	n/a	n/a	n/a	n/a	n/a
406.952	n/a	PROB	203476	n/a	LTP293	ltpFR	11	n/a	n/a	n/a	n/a	n/a	n/a	13	4	7	2	n/a	n/a	n/a	n/a	n/a
408.506	n/a	PROB	204253	n/a	LTP293	ltpFR	11	n/a	n/a	n/a	n/a	n/a	n/a	12	2	9	1	n/a	n/a	n/a	n/a	n/a
409.694	n/a	PROB	204847	n/a	LTP293	ltpFR	11	n/a	n/a	n/a	n/a	n/a	n/a	8	1	2	5	n/a	n/a	n/a	n/a	n/a
410.784	n/a	STOP	205392	n/a	LTP293	ltpFR	11	n/a	n/a	n/a	n/a	n/a	n/a	n/a	n/a	n/a	n/a	n/a	n/a	n/a	n/a	n/a
413.164	n/a	WORD	206582	wordpools/wasnorm_wordpool_less_exclusions.txt	LTP293	ltpFR	11	1	1	ACROBAT	4	n/a	1	n/a	0	0	0	1	0.412841796875	0.57763671875	upper	../fonts/amplitud.ttf
416.176	n/a	START	208088	n/a	LTP293	ltpFR	11	n/a	n/a	n/a	n/a	n/a	n/a	n/a	n/a	n/a	n/a	n/a	n/a	n/a	n/a	n/a
417.04	n/a	PROB	208520	n/a	LTP293	ltpFR	11	n/a	n/a	n/a	n/a	n/a	n/a	15	3	4	8	n/a	n/a	n/a	n/a	n/a
418.478	n/a	PROB	209239	n/a	LTP293	ltpFR	11	n/a	n/a	n/a	n/a	n/a	n/a	20	5	6	9	n/a	n/a	n/a	n/a	n/a
419.89	n/a	PROB	209945	n/a	LTP293	ltpFR	11	n/a	n/a	n/a	n/a	n/a	n/a	18	7	6	5	n/a	n/a	n/a	n/a	n/a
421.914	n/a	PROB	210957	n/a	LTP293	ltpFR	11	n/a	n/a	n/a	n/a	n/a	n/a	11	2	4	5	n/a	n/a	n/a	n/a	n/a
423.472	n/a	STOP	211736	n/a	LTP293	ltpFR	11	n/a	n/a	n/a	n/a	n/a	n/a	n/a	n/a	n/a	n/a	n/a	n/a	n/a	n/a	n/a
425.008	n/a	WORD	212504	wordpools/wasnorm_wordpool_less_exclusions.txt	LTP293	ltpFR	11	1	1	CLOWN	330	n/a	1	n/a	0	0	0	1	0.412841796875	0.57763671875	upper	../fonts/amplitud.ttf
428.02	n/a	START	214010	n/a	LTP293	ltpFR	11	n/a	n/a	n/a	n/a	n/a	n/a	n/a	n/a	n/a	n/a	n/a	n/a	n/a	n/a	n/a
429.108	n/a	PROB	214554	n/a	LTP293	ltpFR	11	n/a	n/a	n/a	n/a	n/a	n/a	10	1	3	6	n/a	n/a	n/a	n/a	n/a
430.792	n/a	PROB	215396	n/a	LTP293	ltpFR	11	n/a	n/a	n/a	n/a	n/a	n/a	19	4	7	8	n/a	n/a	n/a	n/a	n/a
432.604	n/a	PROB	216302	n/a	LTP293	ltpFR	11	n/a	n/a	n/a	n/a	n/a	n/a	12	1	2	9	n/a	n/a	n/a	n/a	n/a
436.02	n/a	STOP	218010	n/a	LTP293	ltpFR	11	n/a	n/a	n/a	n/a	n/a	n/a	n/a	n/a	n/a	n/a	n/a	n/a	n/a	n/a	n/a
437.256	n/a	WORD	218628	wordpools/wasnorm_wordpool_less_exclusions.txt	LTP293	ltpFR	11	1	1	BANDANNA	80	n/a	0	n/a	0	0	0	1	0.412841796875	0.57763671875	upper	../fonts/amplitud.ttf
440.268	n/a	START	220134	n/a	LTP293	ltpFR	11	n/a	n/a	n/a	n/a	n/a	n/a	n/a	n/a	n/a	n/a	n/a	n/a	n/a	n/a	n/a
441.454	n/a	PROB	220727	n/a	LTP293	ltpFR	11	n/a	n/a	n/a	n/a	n/a	n/a	11	2	4	5	n/a	n/a	n/a	n/a	n/a
442.788	n/a	PROB	221394	n/a	LTP293	ltpFR	11	n/a	n/a	n/a	n/a	n/a	n/a	10	1	7	2	n/a	n/a	n/a	n/a	n/a
444.316	n/a	PROB	222158	n/a	LTP293	ltpFR	11	n/a	n/a	n/a	n/a	n/a	n/a	8	1	4	3	n/a	n/a	n/a	n/a	n/a
445.632	n/a	PROB	222816	n/a	LTP293	ltpFR	11	n/a	n/a	n/a	n/a	n/a	n/a	20	9	4	7	n/a	n/a	n/a	n/a	n/a
447.41	n/a	STOP	223705	n/a	LTP293	ltpFR	11	n/a	n/a	n/a	n/a	n/a	n/a	n/a	n/a	n/a	n/a	n/a	n/a	n/a	n/a	n/a
449.2	n/a	WORD	224600	wordpools/wasnorm_wordpool_less_exclusions.txt	LTP293	ltpFR	11	1	1	DINER	467	n/a	0	n/a	0	0	0	1	0.412841796875	0.57763671875	upper	../fonts/amplitud.ttf
452.212	n/a	START	226106	n/a	LTP293	ltpFR	11	n/a	n/a	n/a	n/a	n/a	n/a	n/a	n/a	n/a	n/a	n/a	n/a	n/a	n/a	n/a
453.416	n/a	PROB	226708	n/a	LTP293	ltpFR	11	n/a	n/a	n/a	n/a	n/a	n/a	20	3	9	8	n/a	n/a	n/a	n/a	n/a
454.816	n/a	PROB	227408	n/a	LTP293	ltpFR	11	n/a	n/a	n/a	n/a	n/a	n/a	16	7	6	3	n/a	n/a	n/a	n/a	n/a
456.91	n/a	PROB	228455	n/a	LTP293	ltpFR	11	n/a	n/a	n/a	n/a	n/a	n/a	9	3	1	5	n/a	n/a	n/a	n/a	n/a
459.06	n/a	STOP	229530	n/a	LTP293	ltpFR	11	n/a	n/a	n/a	n/a	n/a	n/a	n/a	n/a	n/a	n/a	n/a	n/a	n/a	n/a	n/a
461.332	n/a	WORD	230666	wordpools/wasnorm_wordpool_less_exclusions.txt	LTP293	ltpFR	11	1	1	SCOTCH	1251	n/a	0	n/a	0	0	0	1	0.412841796875	0.57763671875	upper	../fonts/amplitud.ttf
464.342	n/a	START	232171	n/a	LTP293	ltpFR	11	n/a	n/a	n/a	n/a	n/a	n/a	n/a	n/a	n/a	n/a	n/a	n/a	n/a	n/a	n/a
465.28	n/a	PROB	232640	n/a	LTP293	ltpFR	11	n/a	n/a	n/a	n/a	n/a	n/a	13	2	5	6	n/a	n/a	n/a	n/a	n/a
468.636	n/a	PROB	234318	n/a	LTP293	ltpFR	11	n/a	n/a	n/a	n/a	n/a	n/a	14	2	4	8	n/a	n/a	n/a	n/a	n/a
470.476	n/a	PROB	235238	n/a	LTP293	ltpFR	11	n/a	n/a	n/a	n/a	n/a	n/a	13	6	4	3	n/a	n/a	n/a	n/a	n/a
472.116	n/a	STOP	236058	n/a	LTP293	ltpFR	11	n/a	n/a	n/a	n/a	n/a	n/a	n/a	n/a	n/a	n/a	n/a	n/a	n/a	n/a	n/a
473.276	n/a	WORD	236638	wordpools/wasnorm_wordpool_less_exclusions.txt	LTP293	ltpFR	11	1	1	BEARD	107	n/a	0	n/a	0	0	0	1	0.412841796875	0.57763671875	upper	../fonts/amplitud.ttf
476.288	n/a	START	238144	n/a	LTP293	ltpFR	11	n/a	n/a	n/a	n/a	n/a	n/a	n/a	n/a	n/a	n/a	n/a	n/a	n/a	n/a	n/a
477.308	n/a	PROB	238654	n/a	LTP293	ltpFR	11	n/a	n/a	n/a	n/a	n/a	n/a	16	8	5	3	n/a	n/a	n/a	n/a	n/a
478.81	n/a	PROB	239405	n/a	LTP293	ltpFR	11	n/a	n/a	n/a	n/a	n/a	n/a	15	3	8	4	n/a	n/a	n/a	n/a	n/a
480.8	n/a	PROB	240400	n/a	LTP293	ltpFR	11	n/a	n/a	n/a	n/a	n/a	n/a	15	6	2	7	n/a	n/a	n/a	n/a	n/a
482.756	n/a	STOP	241378	n/a	LTP293	ltpFR	11	n/a	n/a	n/a	n/a	n/a	n/a	n/a	n/a	n/a	n/a	n/a	n/a	n/a	n/a	n/a
485.434	n/a	WORD	242717	wordpools/wasnorm_wordpool_less_exclusions.txt	LTP293	ltpFR	11	1	1	RESTAURANT	1187	n/a	0	n/a	0	0	0	1	0.412841796875	0.57763671875	upper	../fonts/amplitud.ttf
488.45	n/a	START	244225	n/a	LTP293	ltpFR	11	n/a	n/a	n/a	n/a	n/a	n/a	n/a	n/a	n/a	n/a	n/a	n/a	n/a	n/a	n/a
489.638	n/a	PROB	244819	n/a	LTP293	ltpFR	11	n/a	n/a	n/a	n/a	n/a	n/a	13	5	3	5	n/a	n/a	n/a	n/a	n/a
490.956	n/a	PROB	245478	n/a	LTP293	ltpFR	11	n/a	n/a	n/a	n/a	n/a	n/a	12	4	1	7	n/a	n/a	n/a	n/a	n/a
492.042	n/a	PROB	246021	n/a	LTP293	ltpFR	11	n/a	n/a	n/a	n/a	n/a	n/a	13	8	3	2	n/a	n/a	n/a	n/a	n/a
494.134	n/a	PROB	247067	n/a	LTP293	ltpFR	11	n/a	n/a	n/a	n/a	n/a	n/a	20	4	7	9	n/a	n/a	n/a	n/a	n/a
495.702	n/a	STOP	247851	n/a	LTP293	ltpFR	11	n/a	n/a	n/a	n/a	n/a	n/a	n/a	n/a	n/a	n/a	n/a	n/a	n/a	n/a	n/a
497.552	n/a	WORD	248776	wordpools/wasnorm_wordpool_less_exclusions.txt	LTP293	ltpFR	11	1	1	HAYSTACK	694	n/a	0	n/a	0	0	0	1	0.412841796875	0.57763671875	upper	../fonts/amplitud.ttf
500.564	n/a	START	250282	n/a	LTP293	ltpFR	11	n/a	n/a	n/a	n/a	n/a	n/a	n/a	n/a	n/a	n/a	n/a	n/a	n/a	n/a	n/a
501.516	n/a	PROB	250758	n/a	LTP293	ltpFR	11	n/a	n/a	n/a	n/a	n/a	n/a	10	7	2	1	n/a	n/a	n/a	n/a	n/a
503.286	n/a	PROB	251643	n/a	LTP293	ltpFR	11	n/a	n/a	n/a	n/a	n/a	n/a	19	3	8	8	n/a	n/a	n/a	n/a	n/a
504.942	n/a	PROB	252471	n/a	LTP293	ltpFR	11	n/a	n/a	n/a	n/a	n/a	n/a	13	3	4	6	n/a	n/a	n/a	n/a	n/a
506.502	n/a	PROB	253251	n/a	LTP293	ltpFR	11	n/a	n/a	n/a	n/a	n/a	n/a	7	2	2	3	n/a	n/a	n/a	n/a	n/a
508.142	n/a	STOP	254071	n/a	LTP293	ltpFR	11	n/a	n/a	n/a	n/a	n/a	n/a	n/a	n/a	n/a	n/a	n/a	n/a	n/a	n/a	n/a
509.766	n/a	WORD	254883	wordpools/wasnorm_wordpool_less_exclusions.txt	LTP293	ltpFR	11	1	1	WAGON	1578	n/a	0	n/a	0	0	0	1	0.412841796875	0.57763671875	upper	../fonts/amplitud.ttf
512.778	n/a	START	256389	n/a	LTP293	ltpFR	11	n/a	n/a	n/a	n/a	n/a	n/a	n/a	n/a	n/a	n/a	n/a	n/a	n/a	n/a	n/a
513.848	n/a	PROB	256924	n/a	LTP293	ltpFR	11	n/a	n/a	n/a	n/a	n/a	n/a	10	3	4	3	n/a	n/a	n/a	n/a	n/a
515.17	n/a	PROB	257585	n/a	LTP293	ltpFR	11	n/a	n/a	n/a	n/a	n/a	n/a	14	2	5	7	n/a	n/a	n/a	n/a	n/a
516.536	n/a	PROB	258268	n/a	LTP293	ltpFR	11	n/a	n/a	n/a	n/a	n/a	n/a	15	7	5	3	n/a	n/a	n/a	n/a	n/a
518.16	n/a	PROB	259080	n/a	LTP293	ltpFR	11	n/a	n/a	n/a	n/a	n/a	n/a	18	8	9	1	n/a	n/a	n/a	n/a	n/a
520.046	n/a	STOP	260023	n/a	LTP293	ltpFR	11	n/a	n/a	n/a	n/a	n/a	n/a	n/a	n/a	n/a	n/a	n/a	n/a	n/a	n/a	n/a
521.694	n/a	WORD	260847	wordpools/wasnorm_wordpool_less_exclusions.txt	LTP293	ltpFR	11	1	1	CHILD	299	n/a	1	n/a	0	0	0	1	0.412841796875	0.57763671875	upper	../fonts/amplitud.ttf
524.706	n/a	START	262353	n/a	LTP293	ltpFR	11	n/a	n/a	n/a	n/a	n/a	n/a	n/a	n/a	n/a	n/a	n/a	n/a	n/a	n/a	n/a
525.636	n/a	PROB	262818	n/a	LTP293	ltpFR	11	n/a	n/a	n/a	n/a	n/a	n/a	9	5	1	3	n/a	n/a	n/a	n/a	n/a
527.26	n/a	PROB	263630	n/a	LTP293	ltpFR	11	n/a	n/a	n/a	n/a	n/a	n/a	11	7	2	2	n/a	n/a	n/a	n/a	n/a
529.106	n/a	PROB	264553	n/a	LTP293	ltpFR	11	n/a	n/a	n/a	n/a	n/a	n/a	14	5	1	8	n/a	n/a	n/a	n/a	n/a
530.306	n/a	PROB	265153	n/a	LTP293	ltpFR	11	n/a	n/a	n/a	n/a	n/a	n/a	19	9	9	1	n/a	n/a	n/a	n/a	n/a
532.446	n/a	STOP	266223	n/a	LTP293	ltpFR	11	n/a	n/a	n/a	n/a	n/a	n/a	n/a	n/a	n/a	n/a	n/a	n/a	n/a	n/a	n/a
533.708	n/a	WORD	266854	wordpools/wasnorm_wordpool_less_exclusions.txt	LTP293	ltpFR	11	1	1	GYMNAST	675	n/a	1	n/a	0	0	0	1	0.412841796875	0.57763671875	upper	../fonts/amplitud.ttf
536.72	n/a	START	268360	n/a	LTP293	ltpFR	11	n/a	n/a	n/a	n/a	n/a	n/a	n/a	n/a	n/a	n/a	n/a	n/a	n/a	n/a	n/a
537.74	n/a	PROB	268870	n/a	LTP293	ltpFR	11	n/a	n/a	n/a	n/a	n/a	n/a	12	3	4	5	n/a	n/a	n/a	n/a	n/a
539.274	n/a	PROB	269637	n/a	LTP293	ltpFR	11	n/a	n/a	n/a	n/a	n/a	n/a	20	5	8	7	n/a	n/a	n/a	n/a	n/a
541.18	n/a	PROB	270590	n/a	LTP293	ltpFR	11	n/a	n/a	n/a	n/a	n/a	n/a	15	9	1	5	n/a	n/a	n/a	n/a	n/a
542.372	n/a	PROB	271186	n/a	LTP293	ltpFR	11	n/a	n/a	n/a	n/a	n/a	n/a	18	2	8	8	n/a	n/a	n/a	n/a	n/a
543.566	n/a	STOP	271783	n/a	LTP293	ltpFR	11	n/a	n/a	n/a	n/a	n/a	n/a	n/a	n/a	n/a	n/a	n/a	n/a	n/a	n/a	n/a
545.568	n/a	WORD	272784	wordpools/wasnorm_wordpool_less_exclusions.txt	LTP293	ltpFR	11	1	1	SHOE	1288	n/a	0	n/a	0	0	0	1	0.412841796875	0.57763671875	upper	../fonts/amplitud.ttf
548.58	n/a	START	274290	n/a	LTP293	ltpFR	11	n/a	n/a	n/a	n/a	n/a	n/a	n/a	n/a	n/a	n/a	n/a	n/a	n/a	n/a	n/a
549.5	n/a	PROB	274750	n/a	LTP293	ltpFR	11	n/a	n/a	n/a	n/a	n/a	n/a	22	5	9	8	n/a	n/a	n/a	n/a	n/a
551.424	n/a	PROB	275712	n/a	LTP293	ltpFR	11	n/a	n/a	n/a	n/a	n/a	n/a	18	8	6	4	n/a	n/a	n/a	n/a	n/a
553.06	n/a	PROB	276530	n/a	LTP293	ltpFR	11	n/a	n/a	n/a	n/a	n/a	n/a	24	8	8	8	n/a	n/a	n/a	n/a	n/a
554.38	n/a	PROB	277190	n/a	LTP293	ltpFR	11	n/a	n/a	n/a	n/a	n/a	n/a	10	3	3	4	n/a	n/a	n/a	n/a	n/a
555.76	n/a	STOP	277880	n/a	LTP293	ltpFR	11	n/a	n/a	n/a	n/a	n/a	n/a	n/a	n/a	n/a	n/a	n/a	n/a	n/a	n/a	n/a
557.782	n/a	WORD	278891	wordpools/wasnorm_wordpool_less_exclusions.txt	LTP293	ltpFR	11	1	1	MUSHROOM	934	n/a	1	n/a	0	0	0	1	0.412841796875	0.57763671875	upper	../fonts/amplitud.ttf
560.796	n/a	START	280398	n/a	LTP293	ltpFR	11	n/a	n/a	n/a	n/a	n/a	n/a	n/a	n/a	n/a	n/a	n/a	n/a	n/a	n/a	n/a
561.944	n/a	PROB	280972	n/a	LTP293	ltpFR	11	n/a	n/a	n/a	n/a	n/a	n/a	5	1	3	1	n/a	n/a	n/a	n/a	n/a
563.348	n/a	PROB	281674	n/a	LTP293	ltpFR	11	n/a	n/a	n/a	n/a	n/a	n/a	13	3	5	5	n/a	n/a	n/a	n/a	n/a
564.586	n/a	PROB	282293	n/a	LTP293	ltpFR	11	n/a	n/a	n/a	n/a	n/a	n/a	18	9	6	3	n/a	n/a	n/a	n/a	n/a
566.678	n/a	PROB	283339	n/a	LTP293	ltpFR	11	n/a	n/a	n/a	n/a	n/a	n/a	6	2	2	2	n/a	n/a	n/a	n/a	n/a
567.768	n/a	STOP	283884	n/a	LTP293	ltpFR	11	n/a	n/a	n/a	n/a	n/a	n/a	n/a	n/a	n/a	n/a	n/a	n/a	n/a	n/a	n/a
569.812	n/a	WORD	284906	wordpools/wasnorm_wordpool_less_exclusions.txt	LTP293	ltpFR	11	1	1	REPTILE	1185	n/a	1	n/a	0	0	0	1	0.412841796875	0.57763671875	upper	../fonts/amplitud.ttf
572.824	n/a	START	286412	n/a	LTP293	ltpFR	11	n/a	n/a	n/a	n/a	n/a	n/a	n/a	n/a	n/a	n/a	n/a	n/a	n/a	n/a	n/a
573.728	n/a	PROB	286864	n/a	LTP293	ltpFR	11	n/a	n/a	n/a	n/a	n/a	n/a	8	2	3	3	n/a	n/a	n/a	n/a	n/a
575.344	n/a	PROB	287672	n/a	LTP293	ltpFR	11	n/a	n/a	n/a	n/a	n/a	n/a	18	9	5	4	n/a	n/a	n/a	n/a	n/a
576.968	n/a	PROB	288484	n/a	LTP293	ltpFR	11	n/a	n/a	n/a	n/a	n/a	n/a	17	7	5	5	n/a	n/a	n/a	n/a	n/a
578.394	n/a	PROB	289197	n/a	LTP293	ltpFR	11	n/a	n/a	n/a	n/a	n/a	n/a	15	6	8	1	n/a	n/a	n/a	n/a	n/a
579.746	n/a	STOP	289873	n/a	LTP293	ltpFR	11	n/a	n/a	n/a	n/a	n/a	n/a	n/a	n/a	n/a	n/a	n/a	n/a	n/a	n/a	n/a
581.82	n/a	WORD	290910	wordpools/wasnorm_wordpool_less_exclusions.txt	LTP293	ltpFR	11	1	1	ALLIGATOR	16	n/a	1	n/a	0	0	0	1	0.412841796875	0.57763671875	upper	../fonts/amplitud.ttf
584.836	n/a	START	292418	n/a	LTP293	ltpFR	11	n/a	n/a	n/a	n/a	n/a	n/a	n/a	n/a	n/a	n/a	n/a	n/a	n/a	n/a	n/a
585.75	n/a	PROB	292875	n/a	LTP293	ltpFR	11	n/a	n/a	n/a	n/a	n/a	n/a	11	2	5	4	n/a	n/a	n/a	n/a	n/a
587.378	n/a	PROB	293689	n/a	LTP293	ltpFR	11	n/a	n/a	n/a	n/a	n/a	n/a	19	7	9	3	n/a	n/a	n/a	n/a	n/a
588.964	n/a	PROB	294482	n/a	LTP293	ltpFR	11	n/a	n/a	n/a	n/a	n/a	n/a	12	6	5	1	n/a	n/a	n/a	n/a	n/a
590.218	n/a	PROB	295109	n/a	LTP293	ltpFR	11	n/a	n/a	n/a	n/a	n/a	n/a	15	1	9	5	n/a	n/a	n/a	n/a	n/a
591.61	n/a	STOP	295805	n/a	LTP293	ltpFR	11	n/a	n/a	n/a	n/a	n/a	n/a	n/a	n/a	n/a	n/a	n/a	n/a	n/a	n/a	n/a
594.626	n/a	REC_START	297313	n/a	LTP293	ltpFR	11	1	n/a	n/a	n/a	n/a	n/a	n/a	0	0	0	n/a	n/a	n/a	n/a	n/a
595.856	n/a	REC_WORD	297928	wordpools/wasnorm_wordpool_less_exclusions.txt	LTP293	ltpFR	11	1	1	ACROBAT	4	n/a	1	n/a	0	0	0	n/a	n/a	n/a	n/a	n/a
596.842	n/a	REC_WORD	298421	wordpools/wasnorm_wordpool_less_exclusions.txt	LTP293	ltpFR	11	1	1	STEW	1380	n/a	0	n/a	0	0	0	n/a	n/a	n/a	n/a	n/a
598.818	n/a	REC_WORD	299409	wordpools/wasnorm_wordpool_less_exclusions.txt	LTP293	ltpFR	11	1	1	REPTILE	1185	n/a	1	n/a	0	0	0	n/a	n/a	n/a	n/a	n/a
599.87	n/a	REC_WORD	299935	wordpools/wasnorm_wordpool_less_exclusions.txt	LTP293	ltpFR	11	1	1	ALLIGATOR	16	n/a	1	n/a	0	0	0	n/a	n/a	n/a	n/a	n/a
601.768	n/a	REC_WORD	300884	wordpools/wasnorm_wordpool_less_exclusions.txt	LTP293	ltpFR	11	1	1	GYMNAST	675	n/a	1	n/a	0	0	0	n/a	n/a	n/a	n/a	n/a
604.506	n/a	REC_WORD	302253	wordpools/wasnorm_wordpool_less_exclusions.txt	LTP293	ltpFR	11	1	1	CLOWN	330	n/a	1	n/a	0	0	0	n/a	n/a	n/a	n/a	n/a
605.578	n/a	REC_WORD	302789	wordpools/wasnorm_wordpool_less_exclusions.txt	LTP293	ltpFR	11	1	1	BANDANNA	80	n/a	0	n/a	0	0	0	n/a	n/a	n/a	n/a	n/a
618.144	n/a	REC_WORD	309072	wordpools/wasnorm_wordpool_less_exclusions.txt	LTP293	ltpFR	11	1	1	HAYSTACK	694	n/a	0	n/a	0	0	0	n/a	n/a	n/a	n/a	n/a
619.49	n/a	REC_WORD	309745	wordpools/wasnorm_wordpool_less_exclusions.txt	LTP293	ltpFR	11	1	1	WAGON	1578	n/a	0	n/a	0	0	0	n/a	n/a	n/a	n/a	n/a
621.022	n/a	REC_WORD	310511	wordpools/wasnorm_wordpool_less_exclusions.txt	LTP293	ltpFR	11	1	1	DINER	467	n/a	0	n/a	0	0	0	n/a	n/a	n/a	n/a	n/a
622.366	n/a	REC_WORD	311183	wordpools/wasnorm_wordpool_less_exclusions.txt	LTP293	ltpFR	11	1	1	RESTAURANT	1187	n/a	0	n/a	0	0	0	n/a	n/a	n/a	n/a	n/a
628.828	n/a	REC_WORD	314414	wordpools/wasnorm_wordpool_less_exclusions.txt	LTP293	ltpFR	11	1	1	CHILD	299	n/a	1	n/a	0	0	0	n/a	n/a	n/a	n/a	n/a
652.88	n/a	REC_WORD	326440	wordpools/wasnorm_wordpool_less_exclusions.txt	LTP293	ltpFR	11	1	1	SHOE	1288	n/a	0	n/a	0	0	0	n/a	n/a	n/a	n/a	n/a
726.276	n/a	WORD	363138	wordpools/wasnorm_wordpool_less_exclusions.txt	LTP293	ltpFR	11	2	0	REFEREE	1178	n/a	1	n/a	0	0	0	0	0.5869140625	0.422607421875	lower	../fonts/zerothre.ttf
730.292	n/a	WORD	365146	wordpools/wasnorm_wordpool_less_exclusions.txt	LTP293	ltpFR	11	2	0	POWDER	1117	n/a	0	n/a	0	0	0	0	0.5869140625	0.422607421875	lower	../fonts/zerothre.ttf
734.124	n/a	WORD	367062	wordpools/wasnorm_wordpool_less_exclusions.txt	LTP293	ltpFR	11	2	1	VEIN	1554	n/a	0	n/a	0	0	0	1	0.412841796875	0.57763671875	upper	../fonts/amplitud.ttf
738.272	n/a	WORD	369136	wordpools/wasnorm_wordpool_less_exclusions.txt	LTP293	ltpFR	11	2	1	HUT	729	n/a	0	n/a	0	0	0	1	0.412841796875	0.57763671875	upper	../fonts/amplitud.ttf
742.366	n/a	WORD	371183	wordpools/wasnorm_wordpool_less_exclusions.txt	LTP293	ltpFR	11	2	1	WAIST	1579	n/a	0	n/a	0	0	0	1	0.412841796875	0.57763671875	upper	../fonts/amplitud.ttf
746.402	n/a	WORD	373201	wordpools/wasnorm_wordpool_less_exclusions.txt	LTP293	ltpFR	11	2	1	COACH	331	n/a	1	n/a	0	0	0	1	0.412841796875	0.57763671875	upper	../fonts/amplitud.ttf
750.58	n/a	WORD	375290	wordpools/wasnorm_wordpool_less_exclusions.txt	LTP293	ltpFR	11	2	1	FRIAR	605	n/a	1	n/a	0	0	0	1	0.412841796875	0.57763671875	upper	../fonts/amplitud.ttf
754.802	n/a	WORD	377401	wordpools/wasnorm_wordpool_less_exclusions.txt	LTP293	ltpFR	11	2	1	CHURCH	307	n/a	0	n/a	0	0	0	1	0.412841796875	0.57763671875	upper	../fonts/amplitud.ttf
758.818	n/a	WORD	379409	wordpools/wasnorm_wordpool_less_exclusions.txt	LTP293	ltpFR	11	2	0	TIGER	1467	n/a	1	n/a	0	0	0	0	0.5869140625	0.422607421875	lower	../fonts/zerothre.ttf
762.8	n/a	WORD	381400	wordpools/wasnorm_wordpool_less_exclusions.txt	LTP293	ltpFR	11	2	0	CHIPMUNK	304	n/a	0	n/a	0	0	0	0	0.5869140625	0.422607421875	lower	../fonts/zerothre.ttf
766.798	n/a	WORD	383399	wordpools/wasnorm_wordpool_less_exclusions.txt	LTP293	ltpFR	11	2	0	PAPER	1011	n/a	0	n/a	0	0	0	0	0.5869140625	0.422607421875	lower	../fonts/zerothre.ttf
770.948	n/a	WORD	385474	wordpools/wasnorm_wordpool_less_exclusions.txt	LTP293	ltpFR	11	2	0	TREAD	1499	n/a	1	n/a	0	0	0	0	0.5869140625	0.422607421875	lower	../fonts/zerothre.ttf
774.824	n/a	WORD	387412	wordpools/wasnorm_wordpool_less_exclusions.txt	LTP293	ltpFR	11	2	0	SHOWER	1296	n/a	1	n/a	0	0	0	0	0.5869140625	0.422607421875	lower	../fonts/zerothre.ttf
778.688	n/a	WORD	389344	wordpools/wasnorm_wordpool_less_exclusions.txt	LTP293	ltpFR	11	2	0	CLERK	321	n/a	1	n/a	0	0	0	0	0.5869140625	0.422607421875	lower	../fonts/zerothre.ttf
782.574	n/a	WORD	391287	wordpools/wasnorm_wordpool_less_exclusions.txt	LTP293	ltpFR	11	2	1	HOME	712	n/a	0	n/a	0	0	0	1	0.412841796875	0.57763671875	upper	../fonts/amplitud.ttf
786.54	n/a	WORD	393270	wordpools/wasnorm_wordpool_less_exclusions.txt	LTP293	ltpFR	11	2	1	GOO	648	n/a	0	n/a	0	0	0	1	0.412841796875	0.57763671875	upper	../fonts/amplitud.ttf
789.552	n/a	START	394776	n/a	LTP293	ltpFR	11	n/a	n/a	n/a	n/a	n/a	n/a	n/a	n/a	n/a	n/a	n/a	n/a	n/a	n/a	n/a
790.532	n/a	PROB	395266	n/a	LTP293	ltpFR	11	n/a	n/a	n/a	n/a	n/a	n/a	8	2	5	1	n/a	n/a	n/a	n/a	n/a
792.556	n/a	PROB	396278	n/a	LTP293	ltpFR	11	n/a	n/a	n/a	n/a	n/a	n/a	15	8	6	1	n/a	n/a	n/a	n/a	n/a
794.648	n/a	PROB	397324	n/a	LTP293	ltpFR	11	n/a	n/a	n/a	n/a	n/a	n/a	17	9	4	4	n/a	n/a	n/a	n/a	n/a
797.206	n/a	STOP	398603	n/a	LTP293	ltpFR	11	n/a	n/a	n/a	n/a	n/a	n/a	n/a	n/a	n/a	n/a	n/a	n/a	n/a	n/a	n/a
799.324	n/a	REC_START	399662	n/a	LTP293	ltpFR	11	2	n/a	n/a	n/a	n/a	n/a	n/a	0	0	0	n/a	n/a	n/a	n/a	n/a
801.238	n/a	REC_WORD	400619	wordpools/wasnorm_wordpool_less_exclusions.txt	LTP293	ltpFR	11	2	1	GOO	648	n/a	0	n/a	0	0	0	n/a	n/a	n/a	n/a	n/a
802.294	n/a	REC_WORD	401147	wordpools/wasnorm_wordpool_less_exclusions.txt	LTP293	ltpFR	11	2	1	HOME	712	n/a	0	n/a	0	0	0	n/a	n/a	n/a	n/a	n/a
804.202	n/a	REC_WORD	402101	wordpools/wasnorm_wordpool_less_exclusions.txt	LTP293	ltpFR	11	2	0	REFEREE	1178	n/a	1	n/a	0	0	0	n/a	n/a	n/a	n/a	n/a
805.932	n/a	REC_WORD	402966	wordpools/wasnorm_wordpool_less_exclusions.txt	LTP293	ltpFR	11	2	1	COACH	331	n/a	1	n/a	0	0	0	n/a	n/a	n/a	n/a	n/a
807.514	n/a	REC_WORD	403757	wordpools/wasnorm_wordpool_less_exclusions.txt	LTP293	ltpFR	11	2	0	TIGER	1467	n/a	1	n/a	0	0	0	n/a	n/a	n/a	n/a	n/a
809.468	n/a	REC_WORD	404734	wordpools/wasnorm_wordpool_less_exclusions.txt	LTP293	ltpFR	11	2	1	HUT	729	n/a	0	n/a	0	0	0	n/a	n/a	n/a	n/a	n/a
810.834	n/a	REC_WORD	405417	wordpools/wasnorm_wordpool_less_exclusions.txt	LTP293	ltpFR	11	2	0	POWDER	1117	n/a	0	n/a	0	0	0	n/a	n/a	n/a	n/a	n/a
813.514	n/a	REC_WORD	406757	wordpools/wasnorm_wordpool_less_exclusions.txt	LTP293	ltpFR	11	2	1	VEIN	1554	n/a	0	n/a	0	0	0	n/a	n/a	n/a	n/a	n/a
823.74	n/a	REC_WORD_VV	411870	wordpools/wasnorm_wordpool_less_exclusions.txt	LTP293	ltpFR	11	2	n/a	<>	-1	n/a	n/a	n/a	0	0	0	n/a	n/a	n/a	n/a	n/a
824.03	n/a	REC_WORD	412015	wordpools/wasnorm_wordpool_less_exclusions.txt	LTP293	ltpFR	11	2	0	CHIPMUNK	304	n/a	0	n/a	0	0	0	n/a	n/a	n/a	n/a	n/a
911.954	n/a	WORD	455977	wordpools/wasnorm_wordpool_less_exclusions.txt	LTP293	ltpFR	11	3	0	SHELF	1280	n/a	1	n/a	0	0	0	0	0.5869140625	0.422607421875	lower	../fonts/zerothre.ttf
916.102	n/a	WORD	458051	wordpools/wasnorm_wordpool_less_exclusions.txt	LTP293	ltpFR	11	3	0	DIARY	460	n/a	1	n/a	0	0	0	0	0.5869140625	0.422607421875	lower	../fonts/zerothre.ttf
920.034	n/a	WORD	460017	wordpools/wasnorm_wordpool_less_exclusions.txt	LTP293	ltpFR	11	3	0	COUNTY	389	n/a	1	n/a	0	0	0	0	0.5869140625	0.422607421875	lower	../fonts/zerothre.ttf
924.066	n/a	WORD	462033	wordpools/wasnorm_wordpool_less_exclusions.txt	LTP293	ltpFR	11	3	0	SUBURB	1399	n/a	1	n/a	0	0	0	0	0.5869140625	0.422607421875	lower	../fonts/zerothre.ttf
927.976	n/a	WORD	463988	wordpools/wasnorm_wordpool_less_exclusions.txt	LTP293	ltpFR	11	3	0	COMPUTER	359	n/a	1	n/a	0	0	0	0	0.5869140625	0.422607421875	lower	../fonts/zerothre.ttf
932.176	n/a	WORD	466088	wordpools/wasnorm_wordpool_less_exclusions.txt	LTP293	ltpFR	11	3	0	SILVERWARE	1308	n/a	0	n/a	0	0	0	0	0.5869140625	0.422607421875	lower	../fonts/zerothre.ttf
936.296	n/a	WORD	468148	wordpools/wasnorm_wordpool_less_exclusions.txt	LTP293	ltpFR	11	3	0	MAID	856	n/a	1	n/a	0	0	0	0	0.5869140625	0.422607421875	lower	../fonts/zerothre.ttf
940.472	n/a	WORD	470236	wordpools/wasnorm_wordpool_less_exclusions.txt	LTP293	ltpFR	11	3	0	MACHINE	852	n/a	1	n/a	0	0	0	0	0.5869140625	0.422607421875	lower	../fonts/zerothre.ttf
944.504	n/a	WORD	472252	wordpools/wasnorm_wordpool_less_exclusions.txt	LTP293	ltpFR	11	3	0	BEAVER	109	n/a	1	n/a	0	0	0	0	0.5869140625	0.422607421875	lower	../fonts/zerothre.ttf
948.626	n/a	WORD	474313	wordpools/wasnorm_wordpool_less_exclusions.txt	LTP293	ltpFR	11	3	0	ANIMAL	23	n/a	1	n/a	0	0	0	0	0.5869140625	0.422607421875	lower	../fonts/zerothre.ttf
952.508	n/a	WORD	476254	wordpools/wasnorm_wordpool_less_exclusions.txt	LTP293	ltpFR	11	3	0	SPATULA	1348	n/a	0	n/a	0	0	0	0	0.5869140625	0.422607421875	lower	../fonts/zerothre.ttf
956.634	n/a	WORD	478317	wordpools/wasnorm_wordpool_less_exclusions.txt	LTP293	ltpFR	11	3	0	HOSE	720	n/a	1	n/a	0	0	0	0	0.5869140625	0.422607421875	lower	../fonts/zerothre.ttf
960.756	n/a	WORD	480378	wordpools/wasnorm_wordpool_less_exclusions.txt	LTP293	ltpFR	11	3	0	COMPASS	358	n/a	0	n/a	0	0	0	0	0.5869140625	0.422607421875	lower	../fonts/zerothre.ttf
964.636	n/a	WORD	482318	wordpools/wasnorm_wordpool_less_exclusions.txt	LTP293	ltpFR	11	3	0	SURF	1412	n/a	1	n/a	0	0	0	0	0.5869140625	0.422607421875	lower	../fonts/zerothre.ttf
968.586	n/a	WORD	484293	wordpools/wasnorm_wordpool_less_exclusions.txt	LTP293	ltpFR	11	3	0	CABINET	212	n/a	1	n/a	0	0	0	0	0.5869140625	0.422607421875	lower	../fonts/zerothre.ttf
972.484	n/a	WORD	486242	wordpools/wasnorm_wordpool_less_exclusions.txt	LTP293	ltpFR	11	3	0	SHEET	1279	n/a	1	n/a	0	0	0	0	0.5869140625	0.422607421875	lower	../fonts/zerothre.ttf
975.496	n/a	START	487748	n/a	LTP293	ltpFR	11	n/a	n/a	n/a	n/a	n/a	n/a	n/a	n/a	n/a	n/a	n/a	n/a	n/a	n/a	n/a
976.332	n/a	PROB	488166	n/a	LTP293	ltpFR	11	n/a	n/a	n/a	n/a	n/a	n/a	22	7	9	4	n/a	n/a	n/a	n/a	n/a
978.54	n/a	PROB	489270	n/a	LTP293	ltpFR	11	n/a	n/a	n/a	n/a	n/a	n/a	20	7	5	8	n/a	n/a	n/a	n/a	n/a
980.158	n/a	PROB	490079	n/a	LTP293	ltpFR	11	n/a	n/a	n/a	n/a	n/a	n/a	16	7	3	3	n/a	n/a	n/a	n/a	n/a
981.948	n/a	PROB	490974	n/a	LTP293	ltpFR	11	n/a	n/a	n/a	n/a	n/a	n/a	17	3	5	9	n/a	n/a	n/a	n/a	n/a
983.504	n/a	PROB	491752	n/a	LTP293	ltpFR	11	n/a	n/a	n/a	n/a	n/a	n/a	17	3	8	6	n/a	n/a	n/a	n/a	n/a
985.346	n/a	PROB	492673	n/a	LTP293	ltpFR	11	n/a	n/a	n/a	n/a	n/a	n/a	19	6	5	8	n/a	n/a	n/a	n/a	n/a
987.474	n/a	PROB	493737	n/a	LTP293	ltpFR	11	n/a	n/a	n/a	n/a	n/a	n/a	17	6	4	7	n/a	n/a	n/a	n/a	n/a
989.194	n/a	PROB	494597	n/a	LTP293	ltpFR	11	n/a	n/a	n/a	n/a	n/a	n/a	12	4	7	1	n/a	n/a	n/a	n/a	n/a
990.904	n/a	STOP	495452	n/a	LTP293	ltpFR	11	n/a	n/a	n/a	n/a	n/a	n/a	n/a	n/a	n/a	n/a	n/a	n/a	n/a	n/a	n/a
993.26	n/a	REC_START	496630	n/a	LTP293	ltpFR	11	3	n/a	n/a	n/a	n/a	n/a	n/a	0	0	0	n/a	n/a	n/a	n/a	n/a
993.788	n/a	REC_WORD	496894	wordpools/wasnorm_wordpool_less_exclusions.txt	LTP293	ltpFR	11	3	0	SURF	1412	n/a	1	n/a	0	0	0	n/a	n/a	n/a	n/a	n/a
994.8	n/a	REC_WORD	497400	wordpools/wasnorm_wordpool_less_exclusions.txt	LTP293	ltpFR	11	3	0	SHEET	1279	n/a	1	n/a	0	0	0	n/a	n/a	n/a	n/a	n/a
996.638	n/a	REC_WORD	498319	wordpools/wasnorm_wordpool_less_exclusions.txt	LTP293	ltpFR	11	3	0	CABINET	212	n/a	1	n/a	0	0	0	n/a	n/a	n/a	n/a	n/a
999.222	n/a	REC_WORD	499611	wordpools/wasnorm_wordpool_less_exclusions.txt	LTP293	ltpFR	11	3	0	HOSE	720	n/a	1	n/a	0	0	0	n/a	n/a	n/a	n/a	n/a
1000.744	n/a	REC_WORD	500372	wordpools/wasnorm_wordpool_less_exclusions.txt	LTP293	ltpFR	11	3	0	SUBURB	1399	n/a	1	n/a	0	0	0	n/a	n/a	n/a	n/a	n/a
1002.228	n/a	REC_WORD	501114	wordpools/wasnorm_wordpool_less_exclusions.txt	LTP293	ltpFR	11	3	0	COUNTY	389	n/a	1	n/a	0	0	0	n/a	n/a	n/a	n/a	n/a
1003.858	n/a	REC_WORD	501929	wordpools/wasnorm_wordpool_less_exclusions.txt	LTP293	ltpFR	11	3	0	SHELF	1280	n/a	1	n/a	0	0	0	n/a	n/a	n/a	n/a	n/a
1007.656	n/a	REC_WORD	503828	wordpools/wasnorm_wordpool_less_exclusions.txt	LTP293	ltpFR	11	3	0	SILVERWARE	1308	n/a	0	n/a	0	0	0	n/a	n/a	n/a	n/a	n/a
1011.158	n/a	REC_WORD	505579	wordpools/wasnorm_wordpool_less_exclusions.txt	LTP293	ltpFR	11	3	0	COMPUTER	359	n/a	1	n/a	0	0	0	n/a	n/a	n/a	n/a	n/a
1040.964	n/a	REC_WORD	520482	wordpools/wasnorm_wordpool_less_exclusions.txt	LTP293	ltpFR	11	3	0	DIARY	460	n/a	1	n/a	0	0	0	n/a	n/a	n/a	n/a	n/a
1112.218	n/a	START	556109	n/a	LTP293	ltpFR	11	n/a	n/a	n/a	n/a	n/a	n/a	n/a	n/a	n/a	n/a	n/a	n/a	n/a	n/a	n/a
1113.736	n/a	PROB	556868	n/a	LTP293	ltpFR	11	n/a	n/a	n/a	n/a	n/a	n/a	6	2	2	2	n/a	n/a	n/a	n/a	n/a
1114.974	n/a	PROB	557487	n/a	LTP293	ltpFR	11	n/a	n/a	n/a	n/a	n/a	n/a	10	6	3	1	n/a	n/a	n/a	n/a	n/a
1116.312	n/a	PROB	558156	n/a	LTP293	ltpFR	11	n/a	n/a	n/a	n/a	n/a	n/a	12	5	1	6	n/a	n/a	n/a	n/a	n/a
1117.334	n/a	PROB	558667	n/a	LTP293	ltpFR	11	n/a	n/a	n/a	n/a	n/a	n/a	16	8	5	3	n/a	n/a	n/a	n/a	n/a
1118.536	n/a	PROB	559268	n/a	LTP293	ltpFR	11	n/a	n/a	n/a	n/a	n/a	n/a	16	7	5	4	n/a	n/a	n/a	n/a	n/a
1120.16	n/a	PROB	560080	n/a	LTP293	ltpFR	11	n/a	n/a	n/a	n/a	n/a	n/a	10	2	4	4	n/a	n/a	n/a	n/a	n/a
1121.582	n/a	PROB	560791	n/a	LTP293	ltpFR	11	n/a	n/a	n/a	n/a	n/a	n/a	16	8	7	1	n/a	n/a	n/a	n/a	n/a
1124.08	n/a	PROB	562040	n/a	LTP293	ltpFR	11	n/a	n/a	n/a	n/a	n/a	n/a	9	3	3	3	n/a	n/a	n/a	n/a	n/a
1128.206	n/a	STOP	564103	n/a	LTP293	ltpFR	11	n/a	n/a	n/a	n/a	n/a	n/a	n/a	n/a	n/a	n/a	n/a	n/a	n/a	n/a	n/a
1129.2	n/a	WORD	564600	wordpools/wasnorm_wordpool_less_exclusions.txt	LTP293	ltpFR	11	4	0	POLITICIAN	1099	n/a	1	n/a	0	0	0	0	0.5869140625	0.422607421875	lower	../fonts/zerothre.ttf
1132.212	n/a	START	566106	n/a	LTP293	ltpFR	11	n/a	n/a	n/a	n/a	n/a	n/a	n/a	n/a	n/a	n/a	n/a	n/a	n/a	n/a	n/a
1133.098	n/a	PROB	566549	n/a	LTP293	ltpFR	11	n/a	n/a	n/a	n/a	n/a	n/a	8	2	1	5	n/a	n/a	n/a	n/a	n/a
1134.398	n/a	PROB	567199	n/a	LTP293	ltpFR	11	n/a	n/a	n/a	n/a	n/a	n/a	20	7	7	6	n/a	n/a	n/a	n/a	n/a
1135.692	n/a	PROB	567846	n/a	LTP293	ltpFR	11	n/a	n/a	n/a	n/a	n/a	n/a	9	3	2	4	n/a	n/a	n/a	n/a	n/a
1137.408	n/a	PROB	568704	n/a	LTP293	ltpFR	11	n/a	n/a	n/a	n/a	n/a	n/a	8	3	1	4	n/a	n/a	n/a	n/a	n/a
1138.888	n/a	PROB	569444	n/a	LTP293	ltpFR	11	n/a	n/a	n/a	n/a	n/a	n/a	6	2	3	1	n/a	n/a	n/a	n/a	n/a
1140.504	n/a	PROB	570252	n/a	LTP293	ltpFR	11	n/a	n/a	n/a	n/a	n/a	n/a	16	2	6	8	n/a	n/a	n/a	n/a	n/a
1141.848	n/a	PROB	570924	n/a	LTP293	ltpFR	11	n/a	n/a	n/a	n/a	n/a	n/a	18	8	7	3	n/a	n/a	n/a	n/a	n/a
1143.298	n/a	PROB	571649	n/a	LTP293	ltpFR	11	n/a	n/a	n/a	n/a	n/a	n/a	12	1	7	4	n/a	n/a	n/a	n/a	n/a
1145.272	n/a	PROB	572636	n/a	LTP293	ltpFR	11	n/a	n/a	n/a	n/a	n/a	n/a	5	1	3	1	n/a	n/a	n/a	n/a	n/a
1146.316	n/a	PROB	573158	n/a	LTP293	ltpFR	11	n/a	n/a	n/a	n/a	n/a	n/a	10	7	1	2	n/a	n/a	n/a	n/a	n/a
1147.486	n/a	STOP	573743	n/a	LTP293	ltpFR	11	n/a	n/a	n/a	n/a	n/a	n/a	n/a	n/a	n/a	n/a	n/a	n/a	n/a	n/a	n/a
1149.192	n/a	WORD	574596	wordpools/wasnorm_wordpool_less_exclusions.txt	LTP293	ltpFR	11	4	0	JELLY	755	n/a	0	n/a	0	0	0	0	0.5869140625	0.422607421875	lower	../fonts/zerothre.ttf
1152.204	n/a	START	576102	n/a	LTP293	ltpFR	11	n/a	n/a	n/a	n/a	n/a	n/a	n/a	n/a	n/a	n/a	n/a	n/a	n/a	n/a	n/a
1153.074	n/a	PROB	576537	n/a	LTP293	ltpFR	11	n/a	n/a	n/a	n/a	n/a	n/a	8	5	1	2	n/a	n/a	n/a	n/a	n/a
1154.29	n/a	PROB	577145	n/a	LTP293	ltpFR	11	n/a	n/a	n/a	n/a	n/a	n/a	21	8	6	7	n/a	n/a	n/a	n/a	n/a
1157.738	n/a	PROB	578869	n/a	LTP293	ltpFR	11	n/a	n/a	n/a	n/a	n/a	n/a	21	7	5	9	n/a	n/a	n/a	n/a	n/a
1159.176	n/a	PROB	579588	n/a	LTP293	ltpFR	11	n/a	n/a	n/a	n/a	n/a	n/a	13	5	7	1	n/a	n/a	n/a	n/a	n/a
1161.138	n/a	PROB	580569	n/a	LTP293	ltpFR	11	n/a	n/a	n/a	n/a	n/a	n/a	15	6	4	5	n/a	n/a	n/a	n/a	n/a
1162.928	n/a	PROB	581464	n/a	LTP293	ltpFR	11	n/a	n/a	n/a	n/a	n/a	n/a	15	3	7	5	n/a	n/a	n/a	n/a	n/a
1164.278	n/a	PROB	582139	n/a	LTP293	ltpFR	11	n/a	n/a	n/a	n/a	n/a	n/a	21	8	8	5	n/a	n/a	n/a	n/a	n/a
1166.302	n/a	PROB	583151	n/a	LTP293	ltpFR	11	n/a	n/a	n/a	n/a	n/a	n/a	14	9	1	4	n/a	n/a	n/a	n/a	n/a
1167.392	n/a	STOP	583696	n/a	LTP293	ltpFR	11	n/a	n/a	n/a	n/a	n/a	n/a	n/a	n/a	n/a	n/a	n/a	n/a	n/a	n/a	n/a
1169.42	n/a	WORD	584710	wordpools/wasnorm_wordpool_less_exclusions.txt	LTP293	ltpFR	11	4	0	CASHEW	253	n/a	0	n/a	0	0	0	0	0.5869140625	0.422607421875	lower	../fonts/zerothre.ttf
1172.432	n/a	START	586216	n/a	LTP293	ltpFR	11	n/a	n/a	n/a	n/a	n/a	n/a	n/a	n/a	n/a	n/a	n/a	n/a	n/a	n/a	n/a
1173.286	n/a	PROB	586643	n/a	LTP293	ltpFR	11	n/a	n/a	n/a	n/a	n/a	n/a	11	1	3	7	n/a	n/a	n/a	n/a	n/a
1174.416	n/a	PROB	587208	n/a	LTP293	ltpFR	11	n/a	n/a	n/a	n/a	n/a	n/a	14	4	8	2	n/a	n/a	n/a	n/a	n/a
1176.564	n/a	PROB	588282	n/a	LTP293	ltpFR	11	n/a	n/a	n/a	n/a	n/a	n/a	11	7	2	2	n/a	n/a	n/a	n/a	n/a
1178.116	n/a	PROB	589058	n/a	LTP293	ltpFR	11	n/a	n/a	n/a	n/a	n/a	n/a	11	6	3	2	n/a	n/a	n/a	n/a	n/a
1179.972	n/a	PROB	589986	n/a	LTP293	ltpFR	11	n/a	n/a	n/a	n/a	n/a	n/a	17	5	3	9	n/a	n/a	n/a	n/a	n/a
1181.448	n/a	PROB	590724	n/a	LTP293	ltpFR	11	n/a	n/a	n/a	n/a	n/a	n/a	18	1	9	8	n/a	n/a	n/a	n/a	n/a
1182.816	n/a	PROB	591408	n/a	LTP293	ltpFR	11	n/a	n/a	n/a	n/a	n/a	n/a	7	1	5	1	n/a	n/a	n/a	n/a	n/a
1184.042	n/a	PROB	592021	n/a	LTP293	ltpFR	11	n/a	n/a	n/a	n/a	n/a	n/a	13	1	5	7	n/a	n/a	n/a	n/a	n/a
1186.012	n/a	PROB	593006	n/a	LTP293	ltpFR	11	n/a	n/a	n/a	n/a	n/a	n/a	18	9	2	7	n/a	n/a	n/a	n/a	n/a
1187.914	n/a	STOP	593957	n/a	LTP293	ltpFR	11	n/a	n/a	n/a	n/a	n/a	n/a	n/a	n/a	n/a	n/a	n/a	n/a	n/a	n/a	n/a
1189.612	n/a	WORD	594806	wordpools/wasnorm_wordpool_less_exclusions.txt	LTP293	ltpFR	11	4	0	DIVER	476	n/a	1	n/a	0	0	0	0	0.5869140625	0.422607421875	lower	../fonts/zerothre.ttf
1192.626	n/a	START	596313	n/a	LTP293	ltpFR	11	n/a	n/a	n/a	n/a	n/a	n/a	n/a	n/a	n/a	n/a	n/a	n/a	n/a	n/a	n/a
1193.646	n/a	PROB	596823	n/a	LTP293	ltpFR	11	n/a	n/a	n/a	n/a	n/a	n/a	17	9	4	4	n/a	n/a	n/a	n/a	n/a
1195.214	n/a	PROB	597607	n/a	LTP293	ltpFR	11	n/a	n/a	n/a	n/a	n/a	n/a	11	3	3	5	n/a	n/a	n/a	n/a	n/a
1197.154	n/a	PROB	598577	n/a	LTP293	ltpFR	11	n/a	n/a	n/a	n/a	n/a	n/a	19	8	5	6	n/a	n/a	n/a	n/a	n/a
1199.848	n/a	PROB	599924	n/a	LTP293	ltpFR	11	n/a	n/a	n/a	n/a	n/a	n/a	19	8	2	9	n/a	n/a	n/a	n/a	n/a
1201.424	n/a	PROB	600712	n/a	LTP293	ltpFR	11	n/a	n/a	n/a	n/a	n/a	n/a	13	7	3	3	n/a	n/a	n/a	n/a	n/a
1203.082	n/a	PROB	601541	n/a	LTP293	ltpFR	11	n/a	n/a	n/a	n/a	n/a	n/a	18	6	9	3	n/a	n/a	n/a	n/a	n/a
1205.268	n/a	PROB	602634	n/a	LTP293	ltpFR	11	n/a	n/a	n/a	n/a	n/a	n/a	16	6	8	2	n/a	n/a	n/a	n/a	n/a
1206.69	n/a	PROB	603345	n/a	LTP293	ltpFR	11	n/a	n/a	n/a	n/a	n/a	n/a	7	4	2	1	n/a	n/a	n/a	n/a	n/a
1208.33	n/a	STOP	604165	n/a	LTP293	ltpFR	11	n/a	n/a	n/a	n/a	n/a	n/a	n/a	n/a	n/a	n/a	n/a	n/a	n/a	n/a	n/a
1209.774	n/a	WORD	604887	wordpools/wasnorm_wordpool_less_exclusions.txt	LTP293	ltpFR	11	4	0	SAGE	1222	n/a	0	n/a	0	0	0	0	0.5869140625	0.422607421875	lower	../fonts/zerothre.ttf
1212.788	n/a	START	606394	n/a	LTP293	ltpFR	11	n/a	n/a	n/a	n/a	n/a	n/a	n/a	n/a	n/a	n/a	n/a	n/a	n/a	n/a	n/a
1213.89	n/a	PROB	606945	n/a	LTP293	ltpFR	11	n/a	n/a	n/a	n/a	n/a	n/a	22	4	9	8	n/a	n/a	n/a	n/a	n/a
1216.01	n/a	PROB	608005	n/a	LTP293	ltpFR	11	n/a	n/a	n/a	n/a	n/a	n/a	21	3	9	9	n/a	n/a	n/a	n/a	n/a
1217.586	n/a	PROB	608793	n/a	LTP293	ltpFR	11	n/a	n/a	n/a	n/a	n/a	n/a	16	7	1	7	n/a	n/a	n/a	n/a	n/a
1219.824	n/a	PROB	609912	n/a	LTP293	ltpFR	11	n/a	n/a	n/a	n/a	n/a	n/a	18	7	2	9	n/a	n/a	n/a	n/a	n/a
1221.152	n/a	PROB	610576	n/a	LTP293	ltpFR	11	n/a	n/a	n/a	n/a	n/a	n/a	13	2	3	8	n/a	n/a	n/a	n/a	n/a
1222.372	n/a	PROB	611186	n/a	LTP293	ltpFR	11	n/a	n/a	n/a	n/a	n/a	n/a	12	2	7	3	n/a	n/a	n/a	n/a	n/a
1223.862	n/a	PROB	611931	n/a	LTP293	ltpFR	11	n/a	n/a	n/a	n/a	n/a	n/a	19	9	1	9	n/a	n/a	n/a	n/a	n/a
1225.162	n/a	PROB	612581	n/a	LTP293	ltpFR	11	n/a	n/a	n/a	n/a	n/a	n/a	21	7	7	7	n/a	n/a	n/a	n/a	n/a
1226.548	n/a	PROB	613274	n/a	LTP293	ltpFR	11	n/a	n/a	n/a	n/a	n/a	n/a	11	1	4	6	n/a	n/a	n/a	n/a	n/a
1227.538	n/a	STOP	613769	n/a	LTP293	ltpFR	11	n/a	n/a	n/a	n/a	n/a	n/a	n/a	n/a	n/a	n/a	n/a	n/a	n/a	n/a	n/a
1229.918	n/a	WORD	614959	wordpools/wasnorm_wordpool_less_exclusions.txt	LTP293	ltpFR	11	4	0	WARDROBE	1587	n/a	1	n/a	0	0	0	0	0.5869140625	0.422607421875	lower	../fonts/zerothre.ttf
1232.93	n/a	START	616465	n/a	LTP293	ltpFR	11	n/a	n/a	n/a	n/a	n/a	n/a	n/a	n/a	n/a	n/a	n/a	n/a	n/a	n/a	n/a
1233.766	n/a	PROB	616883	n/a	LTP293	ltpFR	11	n/a	n/a	n/a	n/a	n/a	n/a	21	7	5	9	n/a	n/a	n/a	n/a	n/a
1235.368	n/a	PROB	617684	n/a	LTP293	ltpFR	11	n/a	n/a	n/a	n/a	n/a	n/a	12	1	9	2	n/a	n/a	n/a	n/a	n/a
1236.454	n/a	PROB	618227	n/a	LTP293	ltpFR	11	n/a	n/a	n/a	n/a	n/a	n/a	11	2	7	2	n/a	n/a	n/a	n/a	n/a
1237.692	n/a	PROB	618846	n/a	LTP293	ltpFR	11	n/a	n/a	n/a	n/a	n/a	n/a	23	6	8	9	n/a	n/a	n/a	n/a	n/a
1239.404	n/a	PROB	619702	n/a	LTP293	ltpFR	11	n/a	n/a	n/a	n/a	n/a	n/a	16	3	5	8	n/a	n/a	n/a	n/a	n/a
1240.536	n/a	PROB	620268	n/a	LTP293	ltpFR	11	n/a	n/a	n/a	n/a	n/a	n/a	16	7	2	7	n/a	n/a	n/a	n/a	n/a
1242.448	n/a	PROB	621224	n/a	LTP293	ltpFR	11	n/a	n/a	n/a	n/a	n/a	n/a	13	4	4	5	n/a	n/a	n/a	n/a	n/a
1244.234	n/a	PROB	622117	n/a	LTP293	ltpFR	11	n/a	n/a	n/a	n/a	n/a	n/a	19	7	8	4	n/a	n/a	n/a	n/a	n/a
1246.944	n/a	PROB	623472	n/a	LTP293	ltpFR	11	n/a	n/a	n/a	n/a	n/a	n/a	21	9	3	9	n/a	n/a	n/a	n/a	n/a
1248.294	n/a	STOP	624147	n/a	LTP293	ltpFR	11	n/a	n/a	n/a	n/a	n/a	n/a	n/a	n/a	n/a	n/a	n/a	n/a	n/a	n/a	n/a
1249.894	n/a	WORD	624947	wordpools/wasnorm_wordpool_less_exclusions.txt	LTP293	ltpFR	11	4	0	MAILBOX	857	n/a	1	n/a	0	0	0	0	0.5869140625	0.422607421875	lower	../fonts/zerothre.ttf
1252.906	n/a	START	626453	n/a	LTP293	ltpFR	11	n/a	n/a	n/a	n/a	n/a	n/a	n/a	n/a	n/a	n/a	n/a	n/a	n/a	n/a	n/a
1253.792	n/a	PROB	626896	n/a	LTP293	ltpFR	11	n/a	n/a	n/a	n/a	n/a	n/a	14	5	3	6	n/a	n/a	n/a	n/a	n/a
1255.968	n/a	PROB	627984	n/a	LTP293	ltpFR	11	n/a	n/a	n/a	n/a	n/a	n/a	17	9	5	3	n/a	n/a	n/a	n/a	n/a
1257.69	n/a	PROB	628845	n/a	LTP293	ltpFR	11	n/a	n/a	n/a	n/a	n/a	n/a	6	2	2	2	n/a	n/a	n/a	n/a	n/a
1258.806	n/a	PROB	629403	n/a	LTP293	ltpFR	11	n/a	n/a	n/a	n/a	n/a	n/a	21	8	9	4	n/a	n/a	n/a	n/a	n/a
1260.92	n/a	PROB	630460	n/a	LTP293	ltpFR	11	n/a	n/a	n/a	n/a	n/a	n/a	17	1	8	8	n/a	n/a	n/a	n/a	n/a
1262.404	n/a	PROB	631202	n/a	LTP293	ltpFR	11	n/a	n/a	n/a	n/a	n/a	n/a	6	1	3	2	n/a	n/a	n/a	n/a	n/a
1264.282	n/a	PROB	632141	n/a	LTP293	ltpFR	11	n/a	n/a	n/a	n/a	n/a	n/a	13	8	4	1	n/a	n/a	n/a	n/a	n/a
1266.19	n/a	PROB	633095	n/a	LTP293	ltpFR	11	n/a	n/a	n/a	n/a	n/a	n/a	16	4	4	8	n/a	n/a	n/a	n/a	n/a
1267.47	n/a	STOP	633735	n/a	LTP293	ltpFR	11	n/a	n/a	n/a	n/a	n/a	n/a	n/a	n/a	n/a	n/a	n/a	n/a	n/a	n/a	n/a
1269.754	n/a	WORD	634877	wordpools/wasnorm_wordpool_less_exclusions.txt	LTP293	ltpFR	11	4	0	CABIN	211	n/a	1	n/a	0	0	0	0	0.5869140625	0.422607421875	lower	../fonts/zerothre.ttf
1272.766	n/a	START	636383	n/a	LTP293	ltpFR	11	n/a	n/a	n/a	n/a	n/a	n/a	n/a	n/a	n/a	n/a	n/a	n/a	n/a	n/a	n/a
1273.836	n/a	PROB	636918	n/a	LTP293	ltpFR	11	n/a	n/a	n/a	n/a	n/a	n/a	13	7	4	2	n/a	n/a	n/a	n/a	n/a
1275.722	n/a	PROB	637861	n/a	LTP293	ltpFR	11	n/a	n/a	n/a	n/a	n/a	n/a	15	7	4	4	n/a	n/a	n/a	n/a	n/a
1277.094	n/a	PROB	638547	n/a	LTP293	ltpFR	11	n/a	n/a	n/a	n/a	n/a	n/a	21	5	9	7	n/a	n/a	n/a	n/a	n/a
1278.972	n/a	PROB	639486	n/a	LTP293	ltpFR	11	n/a	n/a	n/a	n/a	n/a	n/a	17	2	8	7	n/a	n/a	n/a	n/a	n/a
1280.41	n/a	PROB	640205	n/a	LTP293	ltpFR	11	n/a	n/a	n/a	n/a	n/a	n/a	24	9	6	9	n/a	n/a	n/a	n/a	n/a
1282.546	n/a	PROB	641273	n/a	LTP293	ltpFR	11	n/a	n/a	n/a	n/a	n/a	n/a	14	3	5	6	n/a	n/a	n/a	n/a	n/a
1284.61	n/a	PROB	642305	n/a	LTP293	ltpFR	11	n/a	n/a	n/a	n/a	n/a	n/a	18	5	6	7	n/a	n/a	n/a	n/a	n/a
1287.12	n/a	PROB	643560	n/a	LTP293	ltpFR	11	n/a	n/a	n/a	n/a	n/a	n/a	6	1	3	2	n/a	n/a	n/a	n/a	n/a
1288.55	n/a	STOP	644275	n/a	LTP293	ltpFR	11	n/a	n/a	n/a	n/a	n/a	n/a	n/a	n/a	n/a	n/a	n/a	n/a	n/a	n/a	n/a
1289.792	n/a	WORD	644896	wordpools/wasnorm_wordpool_less_exclusions.txt	LTP293	ltpFR	11	4	0	SHELTER	1282	n/a	1	n/a	0	0	0	0	0.5869140625	0.422607421875	lower	../fonts/zerothre.ttf
1292.81	n/a	START	646405	n/a	LTP293	ltpFR	11	n/a	n/a	n/a	n/a	n/a	n/a	n/a	n/a	n/a	n/a	n/a	n/a	n/a	n/a	n/a
1293.846	n/a	PROB	646923	n/a	LTP293	ltpFR	11	n/a	n/a	n/a	n/a	n/a	n/a	17	2	7	8	n/a	n/a	n/a	n/a	n/a
1295.848	n/a	PROB	647924	n/a	LTP293	ltpFR	11	n/a	n/a	n/a	n/a	n/a	n/a	15	3	6	6	n/a	n/a	n/a	n/a	n/a
1297.738	n/a	PROB	648869	n/a	LTP293	ltpFR	11	n/a	n/a	n/a	n/a	n/a	n/a	16	4	5	7	n/a	n/a	n/a	n/a	n/a
1300.03	n/a	PROB	650015	n/a	LTP293	ltpFR	11	n/a	n/a	n/a	n/a	n/a	n/a	9	2	4	3	n/a	n/a	n/a	n/a	n/a
1303.064	n/a	PROB	651532	n/a	LTP293	ltpFR	11	n/a	n/a	n/a	n/a	n/a	n/a	9	2	1	6	n/a	n/a	n/a	n/a	n/a
1305.402	n/a	PROB	652701	n/a	LTP293	ltpFR	11	n/a	n/a	n/a	n/a	n/a	n/a	15	9	5	1	n/a	n/a	n/a	n/a	n/a
1306.656	n/a	PROB	653328	n/a	LTP293	ltpFR	11	n/a	n/a	n/a	n/a	n/a	n/a	21	7	5	9	n/a	n/a	n/a	n/a	n/a
1308.576	n/a	STOP	654288	n/a	LTP293	ltpFR	11	n/a	n/a	n/a	n/a	n/a	n/a	n/a	n/a	n/a	n/a	n/a	n/a	n/a	n/a	n/a
1310.024	n/a	WORD	655012	wordpools/wasnorm_wordpool_less_exclusions.txt	LTP293	ltpFR	11	4	0	TOAST	1471	n/a	0	n/a	0	0	0	0	0.5869140625	0.422607421875	lower	../fonts/zerothre.ttf
1313.036	n/a	START	656518	n/a	LTP293	ltpFR	11	n/a	n/a	n/a	n/a	n/a	n/a	n/a	n/a	n/a	n/a	n/a	n/a	n/a	n/a	n/a
1314.202	n/a	PROB	657101	n/a	LTP293	ltpFR	11	n/a	n/a	n/a	n/a	n/a	n/a	5	3	1	1	n/a	n/a	n/a	n/a	n/a
1315.26	n/a	PROB	657630	n/a	LTP293	ltpFR	11	n/a	n/a	n/a	n/a	n/a	n/a	13	2	8	3	n/a	n/a	n/a	n/a	n/a
1316.694	n/a	PROB	658347	n/a	LTP293	ltpFR	11	n/a	n/a	n/a	n/a	n/a	n/a	17	6	6	5	n/a	n/a	n/a	n/a	n/a
1318.488	n/a	PROB	659244	n/a	LTP293	ltpFR	11	n/a	n/a	n/a	n/a	n/a	n/a	17	9	3	5	n/a	n/a	n/a	n/a	n/a
1320.63	n/a	PROB	660315	n/a	LTP293	ltpFR	11	n/a	n/a	n/a	n/a	n/a	n/a	9	4	4	1	n/a	n/a	n/a	n/a	n/a
1322.354	n/a	PROB	661177	n/a	LTP293	ltpFR	11	n/a	n/a	n/a	n/a	n/a	n/a	12	5	4	3	n/a	n/a	n/a	n/a	n/a
1323.978	n/a	PROB	661989	n/a	LTP293	ltpFR	11	n/a	n/a	n/a	n/a	n/a	n/a	18	8	5	6	n/a	n/a	n/a	n/a	n/a
1325.968	n/a	PROB	662984	n/a	LTP293	ltpFR	11	n/a	n/a	n/a	n/a	n/a	n/a	16	6	8	2	n/a	n/a	n/a	n/a	n/a
1327.802	n/a	STOP	663901	n/a	LTP293	ltpFR	11	n/a	n/a	n/a	n/a	n/a	n/a	n/a	n/a	n/a	n/a	n/a	n/a	n/a	n/a	n/a
1329.9	n/a	WORD	664950	wordpools/wasnorm_wordpool_less_exclusions.txt	LTP293	ltpFR	11	4	0	LEADER	807	n/a	1	n/a	0	0	0	0	0.5869140625	0.422607421875	lower	../fonts/zerothre.ttf
1332.912	n/a	START	666456	n/a	LTP293	ltpFR	11	n/a	n/a	n/a	n/a	n/a	n/a	n/a	n/a	n/a	n/a	n/a	n/a	n/a	n/a	n/a
1333.916	n/a	PROB	666958	n/a	LTP293	ltpFR	11	n/a	n/a	n/a	n/a	n/a	n/a	12	3	4	5	n/a	n/a	n/a	n/a	n/a
1335.414	n/a	PROB	667707	n/a	LTP293	ltpFR	11	n/a	n/a	n/a	n/a	n/a	n/a	13	6	3	4	n/a	n/a	n/a	n/a	n/a
1336.91	n/a	PROB	668455	n/a	LTP293	ltpFR	11	n/a	n/a	n/a	n/a	n/a	n/a	17	7	2	8	n/a	n/a	n/a	n/a	n/a
1338.846	n/a	PROB	669423	n/a	LTP293	ltpFR	11	n/a	n/a	n/a	n/a	n/a	n/a	11	1	7	3	n/a	n/a	n/a	n/a	n/a
1340.25	n/a	PROB	670125	n/a	LTP293	ltpFR	11	n/a	n/a	n/a	n/a	n/a	n/a	12	8	1	3	n/a	n/a	n/a	n/a	n/a
1342.108	n/a	PROB	671054	n/a	LTP293	ltpFR	11	n/a	n/a	n/a	n/a	n/a	n/a	11	3	7	1	n/a	n/a	n/a	n/a	n/a
1343.286	n/a	PROB	671643	n/a	LTP293	ltpFR	11	n/a	n/a	n/a	n/a	n/a	n/a	19	8	9	2	n/a	n/a	n/a	n/a	n/a
1345.22	n/a	PROB	672610	n/a	LTP293	ltpFR	11	n/a	n/a	n/a	n/a	n/a	n/a	12	1	6	5	n/a	n/a	n/a	n/a	n/a
1346.692	n/a	PROB	673346	n/a	LTP293	ltpFR	11	n/a	n/a	n/a	n/a	n/a	n/a	17	5	5	7	n/a	n/a	n/a	n/a	n/a
1348.002	n/a	STOP	674001	n/a	LTP293	ltpFR	11	n/a	n/a	n/a	n/a	n/a	n/a	n/a	n/a	n/a	n/a	n/a	n/a	n/a	n/a	n/a
1349.978	n/a	WORD	674989	wordpools/wasnorm_wordpool_less_exclusions.txt	LTP293	ltpFR	11	4	0	RAFT	1159	n/a	1	n/a	0	0	0	0	0.5869140625	0.422607421875	lower	../fonts/zerothre.ttf
1352.99	n/a	START	676495	n/a	LTP293	ltpFR	11	n/a	n/a	n/a	n/a	n/a	n/a	n/a	n/a	n/a	n/a	n/a	n/a	n/a	n/a	n/a
1354.142	n/a	PROB	677071	n/a	LTP293	ltpFR	11	n/a	n/a	n/a	n/a	n/a	n/a	15	4	4	7	n/a	n/a	n/a	n/a	n/a
1355.592	n/a	PROB	677796	n/a	LTP293	ltpFR	11	n/a	n/a	n/a	n/a	n/a	n/a	15	4	8	3	n/a	n/a	n/a	n/a	n/a
1357.684	n/a	PROB	678842	n/a	LTP293	ltpFR	11	n/a	n/a	n/a	n/a	n/a	n/a	21	9	9	3	n/a	n/a	n/a	n/a	n/a
1359.428	n/a	PROB	679714	n/a	LTP293	ltpFR	11	n/a	n/a	n/a	n/a	n/a	n/a	11	6	4	1	n/a	n/a	n/a	n/a	n/a
1360.7	n/a	PROB	680350	n/a	LTP293	ltpFR	11	n/a	n/a	n/a	n/a	n/a	n/a	17	7	3	7	n/a	n/a	n/a	n/a	n/a
1361.968	n/a	PROB	680984	n/a	LTP293	ltpFR	11	n/a	n/a	n/a	n/a	n/a	n/a	12	4	6	2	n/a	n/a	n/a	n/a	n/a
1363.094	n/a	PROB	681547	n/a	LTP293	ltpFR	11	n/a	n/a	n/a	n/a	n/a	n/a	11	3	1	7	n/a	n/a	n/a	n/a	n/a
1364.902	n/a	PROB	682451	n/a	LTP293	ltpFR	11	n/a	n/a	n/a	n/a	n/a	n/a	11	6	3	2	n/a	n/a	n/a	n/a	n/a
1366.702	n/a	PROB	683351	n/a	LTP293	ltpFR	11	n/a	n/a	n/a	n/a	n/a	n/a	14	8	5	1	n/a	n/a	n/a	n/a	n/a
1368.212	n/a	STOP	684106	n/a	LTP293	ltpFR	11	n/a	n/a	n/a	n/a	n/a	n/a	n/a	n/a	n/a	n/a	n/a	n/a	n/a	n/a	n/a
1369.848	n/a	WORD	684924	wordpools/wasnorm_wordpool_less_exclusions.txt	LTP293	ltpFR	11	4	0	RIB	1188	n/a	1	n/a	0	0	0	0	0.5869140625	0.422607421875	lower	../fonts/zerothre.ttf
1372.866	n/a	START	686433	n/a	LTP293	ltpFR	11	n/a	n/a	n/a	n/a	n/a	n/a	n/a	n/a	n/a	n/a	n/a	n/a	n/a	n/a	n/a
1373.802	n/a	PROB	686901	n/a	LTP293	ltpFR	11	n/a	n/a	n/a	n/a	n/a	n/a	12	4	6	2	n/a	n/a	n/a	n/a	n/a
1375.552	n/a	PROB	687776	n/a	LTP293	ltpFR	11	n/a	n/a	n/a	n/a	n/a	n/a	11	5	4	2	n/a	n/a	n/a	n/a	n/a
1377.198	n/a	PROB	688599	n/a	LTP293	ltpFR	11	n/a	n/a	n/a	n/a	n/a	n/a	14	4	2	8	n/a	n/a	n/a	n/a	n/a
1378.518	n/a	PROB	689259	n/a	LTP293	ltpFR	11	n/a	n/a	n/a	n/a	n/a	n/a	16	7	5	4	n/a	n/a	n/a	n/a	n/a
1380.454	n/a	PROB	690227	n/a	LTP293	ltpFR	11	n/a	n/a	n/a	n/a	n/a	n/a	6	2	3	1	n/a	n/a	n/a	n/a	n/a
1382.196	n/a	PROB	691098	n/a	LTP293	ltpFR	11	n/a	n/a	n/a	n/a	n/a	n/a	10	7	2	1	n/a	n/a	n/a	n/a	n/a
1383.936	n/a	PROB	691968	n/a	LTP293	ltpFR	11	n/a	n/a	n/a	n/a	n/a	n/a	18	7	8	3	n/a	n/a	n/a	n/a	n/a
1385.612	n/a	PROB	692806	n/a	LTP293	ltpFR	11	n/a	n/a	n/a	n/a	n/a	n/a	12	3	8	1	n/a	n/a	n/a	n/a	n/a
1387.32	n/a	PROB	693660	n/a	LTP293	ltpFR	11	n/a	n/a	n/a	n/a	n/a	n/a	16	1	6	9	n/a	n/a	n/a	n/a	n/a
1388.412	n/a	STOP	694206	n/a	LTP293	ltpFR	11	n/a	n/a	n/a	n/a	n/a	n/a	n/a	n/a	n/a	n/a	n/a	n/a	n/a	n/a	n/a
1390.014	n/a	WORD	695007	wordpools/wasnorm_wordpool_less_exclusions.txt	LTP293	ltpFR	11	4	0	REFRIGERATOR	1179	n/a	1	n/a	0	0	0	0	0.5869140625	0.422607421875	lower	../fonts/zerothre.ttf
1393.026	n/a	START	696513	n/a	LTP293	ltpFR	11	n/a	n/a	n/a	n/a	n/a	n/a	n/a	n/a	n/a	n/a	n/a	n/a	n/a	n/a	n/a
1393.978	n/a	PROB	696989	n/a	LTP293	ltpFR	11	n/a	n/a	n/a	n/a	n/a	n/a	10	7	1	2	n/a	n/a	n/a	n/a	n/a
1396.148	n/a	PROB	698074	n/a	LTP293	ltpFR	11	n/a	n/a	n/a	n/a	n/a	n/a	22	6	9	7	n/a	n/a	n/a	n/a	n/a
1399.812	n/a	PROB	699906	n/a	LTP293	ltpFR	11	n/a	n/a	n/a	n/a	n/a	n/a	13	4	3	6	n/a	n/a	n/a	n/a	n/a
1402.01	n/a	PROB	701005	n/a	LTP293	ltpFR	11	n/a	n/a	n/a	n/a	n/a	n/a	12	2	2	8	n/a	n/a	n/a	n/a	n/a
1403.76	n/a	PROB	701880	n/a	LTP293	ltpFR	11	n/a	n/a	n/a	n/a	n/a	n/a	25	9	8	8	n/a	n/a	n/a	n/a	n/a
1406.176	n/a	PROB	703088	n/a	LTP293	ltpFR	11	n/a	n/a	n/a	n/a	n/a	n/a	15	2	8	5	n/a	n/a	n/a	n/a	n/a
1408.822	n/a	STOP	704411	n/a	LTP293	ltpFR	11	n/a	n/a	n/a	n/a	n/a	n/a	n/a	n/a	n/a	n/a	n/a	n/a	n/a	n/a	n/a
1410.04	n/a	WORD	705020	wordpools/wasnorm_wordpool_less_exclusions.txt	LTP293	ltpFR	11	4	0	CLAMP	316	n/a	1	n/a	0	0	0	0	0.5869140625	0.422607421875	lower	../fonts/zerothre.ttf
1413.052	n/a	START	706526	n/a	LTP293	ltpFR	11	n/a	n/a	n/a	n/a	n/a	n/a	n/a	n/a	n/a	n/a	n/a	n/a	n/a	n/a	n/a
1413.972	n/a	PROB	706986	n/a	LTP293	ltpFR	11	n/a	n/a	n/a	n/a	n/a	n/a	20	9	3	8	n/a	n/a	n/a	n/a	n/a
1415.896	n/a	PROB	707948	n/a	LTP293	ltpFR	11	n/a	n/a	n/a	n/a	n/a	n/a	17	8	1	8	n/a	n/a	n/a	n/a	n/a
1417.368	n/a	PROB	708684	n/a	LTP293	ltpFR	11	n/a	n/a	n/a	n/a	n/a	n/a	12	2	3	7	n/a	n/a	n/a	n/a	n/a
1418.55	n/a	PROB	709275	n/a	LTP293	ltpFR	11	n/a	n/a	n/a	n/a	n/a	n/a	6	1	2	3	n/a	n/a	n/a	n/a	n/a
1419.62	n/a	PROB	709810	n/a	LTP293	ltpFR	11	n/a	n/a	n/a	n/a	n/a	n/a	16	9	5	2	n/a	n/a	n/a	n/a	n/a
1421.768	n/a	PROB	710884	n/a	LTP293	ltpFR	11	n/a	n/a	n/a	n/a	n/a	n/a	19	9	6	4	n/a	n/a	n/a	n/a	n/a
1423.302	n/a	PROB	711651	n/a	LTP293	ltpFR	11	n/a	n/a	n/a	n/a	n/a	n/a	9	4	2	3	n/a	n/a	n/a	n/a	n/a
1425.448	n/a	PROB	712724	n/a	LTP293	ltpFR	11	n/a	n/a	n/a	n/a	n/a	n/a	17	7	6	4	n/a	n/a	n/a	n/a	n/a
1429.052	n/a	STOP	714526	n/a	LTP293	ltpFR	11	n/a	n/a	n/a	n/a	n/a	n/a	n/a	n/a	n/a	n/a	n/a	n/a	n/a	n/a	n/a
1429.898	n/a	WORD	714949	wordpools/wasnorm_wordpool_less_exclusions.txt	LTP293	ltpFR	11	4	0	GARAGE	621	n/a	1	n/a	0	0	0	0	0.5869140625	0.422607421875	lower	../fonts/zerothre.ttf
1432.91	n/a	START	716455	n/a	LTP293	ltpFR	11	n/a	n/a	n/a	n/a	n/a	n/a	n/a	n/a	n/a	n/a	n/a	n/a	n/a	n/a	n/a
1434.048	n/a	PROB	717024	n/a	LTP293	ltpFR	11	n/a	n/a	n/a	n/a	n/a	n/a	15	8	2	5	n/a	n/a	n/a	n/a	n/a
1435.716	n/a	PROB	717858	n/a	LTP293	ltpFR	11	n/a	n/a	n/a	n/a	n/a	n/a	12	4	1	8	n/a	n/a	n/a	n/a	n/a
1438.092	n/a	PROB	719046	n/a	LTP293	ltpFR	11	n/a	n/a	n/a	n/a	n/a	n/a	4	2	1	1	n/a	n/a	n/a	n/a	n/a
1439.798	n/a	PROB	719899	n/a	LTP293	ltpFR	11	n/a	n/a	n/a	n/a	n/a	n/a	15	8	6	1	n/a	n/a	n/a	n/a	n/a
1441.322	n/a	PROB	720661	n/a	LTP293	ltpFR	11	n/a	n/a	n/a	n/a	n/a	n/a	18	5	6	7	n/a	n/a	n/a	n/a	n/a
1442.882	n/a	PROB	721441	n/a	LTP293	ltpFR	11	n/a	n/a	n/a	n/a	n/a	n/a	9	1	2	6	n/a	n/a	n/a	n/a	n/a
1444.17	n/a	PROB	722085	n/a	LTP293	ltpFR	11	n/a	n/a	n/a	n/a	n/a	n/a	17	5	6	6	n/a	n/a	n/a	n/a	n/a
1445.686	n/a	PROB	722843	n/a	LTP293	ltpFR	11	n/a	n/a	n/a	n/a	n/a	n/a	13	2	9	2	n/a	n/a	n/a	n/a	n/a
1447.696	n/a	STOP	723848	n/a	LTP293	ltpFR	11	n/a	n/a	n/a	n/a	n/a	n/a	n/a	n/a	n/a	n/a	n/a	n/a	n/a	n/a	n/a
1450.762	n/a	REC_START	725381	n/a	LTP293	ltpFR	11	4	n/a	n/a	n/a	n/a	n/a	n/a	0	0	0	n/a	n/a	n/a	n/a	n/a
1452.16	n/a	REC_WORD	726080	wordpools/wasnorm_wordpool_less_exclusions.txt	LTP293	ltpFR	11	4	0	GARAGE	621	n/a	1	n/a	0	0	0	n/a	n/a	n/a	n/a	n/a
1453.308	n/a	REC_WORD	726654	wordpools/wasnorm_wordpool_less_exclusions.txt	LTP293	ltpFR	11	4	0	CLAMP	316	n/a	1	n/a	0	0	0	n/a	n/a	n/a	n/a	n/a
1455.974	n/a	REC_WORD	727987	wordpools/wasnorm_wordpool_less_exclusions.txt	LTP293	ltpFR	11	4	0	POLITICIAN	1099	n/a	1	n/a	0	0	0	n/a	n/a	n/a	n/a	n/a
1457.204	n/a	REC_WORD	728602	wordpools/wasnorm_wordpool_less_exclusions.txt	LTP293	ltpFR	11	4	0	LEADER	807	n/a	1	n/a	0	0	0	n/a	n/a	n/a	n/a	n/a
1461.174	n/a	REC_WORD	730587	wordpools/wasnorm_wordpool_less_exclusions.txt	LTP293	ltpFR	11	4	0	JELLY	755	n/a	0	n/a	0	0	0	n/a	n/a	n/a	n/a	n/a
1462.59	n/a	REC_WORD	731295	wordpools/wasnorm_wordpool_less_exclusions.txt	LTP293	ltpFR	11	4	0	TOAST	1471	n/a	0	n/a	0	0	0	n/a	n/a	n/a	n/a	n/a
1464.45	n/a	REC_WORD	732225	wordpools/wasnorm_wordpool_less_exclusions.txt	LTP293	ltpFR	11	4	0	CASHEW	253	n/a	0	n/a	0	0	0	n/a	n/a	n/a	n/a	n/a
1506.904	n/a	REC_WORD	753452	wordpools/wasnorm_wordpool_less_exclusions.txt	LTP293	ltpFR	11	4	0	RAFT	1159	n/a	1	n/a	0	0	0	n/a	n/a	n/a	n/a	n/a
1509.464	n/a	REC_WORD	754732	wordpools/wasnorm_wordpool_less_exclusions.txt	LTP293	ltpFR	11	4	0	MAILBOX	857	n/a	1	n/a	0	0	0	n/a	n/a	n/a	n/a	n/a
1512.19	n/a	REC_WORD	756095	wordpools/wasnorm_wordpool_less_exclusions.txt	LTP293	ltpFR	11	4	0	REFRIGERATOR	1179	n/a	1	n/a	0	0	0	n/a	n/a	n/a	n/a	n/a
1577.882	n/a	WORD	788941	wordpools/wasnorm_wordpool_less_exclusions.txt	LTP293	ltpFR	11	5	0	NUT	965	n/a	0	n/a	0	0	0	0	0.5869140625	0.422607421875	lower	../fonts/zerothre.ttf
1582.064	n/a	WORD	791032	wordpools/wasnorm_wordpool_less_exclusions.txt	LTP293	ltpFR	11	5	0	MANSION	864	n/a	1	n/a	0	0	0	0	0.5869140625	0.422607421875	lower	../fonts/zerothre.ttf
1586.212	n/a	WORD	793106	wordpools/wasnorm_wordpool_less_exclusions.txt	LTP293	ltpFR	11	5	0	SIDING	1304	n/a	1	n/a	0	0	0	0	0.5869140625	0.422607421875	lower	../fonts/zerothre.ttf
1590.14	n/a	WORD	795070	wordpools/wasnorm_wordpool_less_exclusions.txt	LTP293	ltpFR	11	5	0	SKI	1316	n/a	1	n/a	0	0	0	0	0.5869140625	0.422607421875	lower	../fonts/zerothre.ttf
1594.156	n/a	WORD	797078	wordpools/wasnorm_wordpool_less_exclusions.txt	LTP293	ltpFR	11	5	0	CANYON	235	n/a	1	n/a	0	0	0	0	0.5869140625	0.422607421875	lower	../fonts/zerothre.ttf
1598.338	n/a	WORD	799169	wordpools/wasnorm_wordpool_less_exclusions.txt	LTP293	ltpFR	11	5	0	PIE	1062	n/a	1	n/a	0	0	0	0	0.5869140625	0.422607421875	lower	../fonts/zerothre.ttf
1602.24	n/a	WORD	801120	wordpools/wasnorm_wordpool_less_exclusions.txt	LTP293	ltpFR	11	5	0	SAUSAGE	1238	n/a	0	n/a	0	0	0	0	0.5869140625	0.422607421875	lower	../fonts/zerothre.ttf
1606.106	n/a	WORD	803053	wordpools/wasnorm_wordpool_less_exclusions.txt	LTP293	ltpFR	11	5	0	LINEN	825	n/a	0	n/a	0	0	0	0	0.5869140625	0.422607421875	lower	../fonts/zerothre.ttf
1610.172	n/a	WORD	805086	wordpools/wasnorm_wordpool_less_exclusions.txt	LTP293	ltpFR	11	5	0	GRIZZLY	662	n/a	1	n/a	0	0	0	0	0.5869140625	0.422607421875	lower	../fonts/zerothre.ttf
1614.17	n/a	WORD	807085	wordpools/wasnorm_wordpool_less_exclusions.txt	LTP293	ltpFR	11	5	0	BEAR	106	n/a	1	n/a	0	0	0	0	0.5869140625	0.422607421875	lower	../fonts/zerothre.ttf
1618.13	n/a	WORD	809065	wordpools/wasnorm_wordpool_less_exclusions.txt	LTP293	ltpFR	11	5	0	VALLEY	1545	n/a	1	n/a	0	0	0	0	0.5869140625	0.422607421875	lower	../fonts/zerothre.ttf
1622.0	n/a	WORD	811000	wordpools/wasnorm_wordpool_less_exclusions.txt	LTP293	ltpFR	11	5	0	CORD	379	n/a	1	n/a	0	0	0	0	0.5869140625	0.422607421875	lower	../fonts/zerothre.ttf
1626.1	n/a	WORD	813050	wordpools/wasnorm_wordpool_less_exclusions.txt	LTP293	ltpFR	11	5	0	SILK	1307	n/a	0	n/a	0	0	0	0	0.5869140625	0.422607421875	lower	../fonts/zerothre.ttf
1630.048	n/a	WORD	815024	wordpools/wasnorm_wordpool_less_exclusions.txt	LTP293	ltpFR	11	5	0	PIPE	1073	n/a	1	n/a	0	0	0	0	0.5869140625	0.422607421875	lower	../fonts/zerothre.ttf
1634.264	n/a	WORD	817132	wordpools/wasnorm_wordpool_less_exclusions.txt	LTP293	ltpFR	11	5	0	GUM	672	n/a	0	n/a	0	0	0	0	0.5869140625	0.422607421875	lower	../fonts/zerothre.ttf
1638.462	n/a	WORD	819231	wordpools/wasnorm_wordpool_less_exclusions.txt	LTP293	ltpFR	11	5	0	SANDWICH	1232	n/a	1	n/a	0	0	0	0	0.5869140625	0.422607421875	lower	../fonts/zerothre.ttf
1644.298	n/a	REC_START	822149	n/a	LTP293	ltpFR	11	5	n/a	n/a	n/a	n/a	n/a	n/a	0	0	0	n/a	n/a	n/a	n/a	n/a
1645.12	n/a	REC_WORD	822560	wordpools/wasnorm_wordpool_less_exclusions.txt	LTP293	ltpFR	11	5	0	SANDWICH	1232	n/a	1	n/a	0	0	0	n/a	n/a	n/a	n/a	n/a
1646.214	n/a	REC_WORD	823107	wordpools/wasnorm_wordpool_less_exclusions.txt	LTP293	ltpFR	11	5	0	GUM	672	n/a	0	n/a	0	0	0	n/a	n/a	n/a	n/a	n/a
1647.484	n/a	REC_WORD	823742	wordpools/wasnorm_wordpool_less_exclusions.txt	LTP293	ltpFR	11	5	0	SILK	1307	n/a	0	n/a	0	0	0	n/a	n/a	n/a	n/a	n/a
1648.742	n/a	REC_WORD	824371	wordpools/wasnorm_wordpool_less_exclusions.txt	LTP293	ltpFR	11	5	0	LINEN	825	n/a	0	n/a	0	0	0	n/a	n/a	n/a	n/a	n/a
1651.402	n/a	REC_WORD	825701	wordpools/wasnorm_wordpool_less_exclusions.txt	LTP293	ltpFR	11	5	0	GRIZZLY	662	n/a	1	n/a	0	0	0	n/a	n/a	n/a	n/a	n/a
1652.534	n/a	REC_WORD	826267	wordpools/wasnorm_wordpool_less_exclusions.txt	LTP293	ltpFR	11	5	0	BEAR	106	n/a	1	n/a	0	0	0	n/a	n/a	n/a	n/a	n/a
1653.854	n/a	REC_WORD	826927	wordpools/wasnorm_wordpool_less_exclusions.txt	LTP293	ltpFR	11	5	0	MANSION	864	n/a	1	n/a	0	0	0	n/a	n/a	n/a	n/a	n/a
1656.012	n/a	REC_WORD	828006	wordpools/wasnorm_wordpool_less_exclusions.txt	LTP293	ltpFR	11	5	0	PIE	1062	n/a	1	n/a	0	0	0	n/a	n/a	n/a	n/a	n/a
1658.864	n/a	REC_WORD	829432	wordpools/wasnorm_wordpool_less_exclusions.txt	LTP293	ltpFR	11	5	0	NUT	965	n/a	0	n/a	0	0	0	n/a	n/a	n/a	n/a	n/a
1661.324	n/a	REC_WORD	830662	wordpools/wasnorm_wordpool_less_exclusions.txt	LTP293	ltpFR	11	5	0	CANYON	235	n/a	1	n/a	0	0	0	n/a	n/a	n/a	n/a	n/a
1662.16	n/a	REC_WORD	831080	wordpools/wasnorm_wordpool_less_exclusions.txt	LTP293	ltpFR	11	5	0	SKI	1316	n/a	1	n/a	0	0	0	n/a	n/a	n/a	n/a	n/a
1767.138	n/a	WORD	883569	wordpools/wasnorm_wordpool_less_exclusions.txt	LTP293	ltpFR	11	6	0	GOVERNOR	651	n/a	1	n/a	0	0	0	0	0.5869140625	0.422607421875	lower	../fonts/zerothre.ttf
1771.338	n/a	WORD	885669	wordpools/wasnorm_wordpool_less_exclusions.txt	LTP293	ltpFR	11	6	0	PICKLE	1059	n/a	0	n/a	0	0	0	0	0.5869140625	0.422607421875	lower	../fonts/zerothre.ttf
1775.53	n/a	WORD	887765	wordpools/wasnorm_wordpool_less_exclusions.txt	LTP293	ltpFR	11	6	0	COUCH	386	n/a	1	n/a	0	0	0	0	0.5869140625	0.422607421875	lower	../fonts/zerothre.ttf
1779.668	n/a	WORD	889834	wordpools/wasnorm_wordpool_less_exclusions.txt	LTP293	ltpFR	11	6	1	STOOL	1386	n/a	0	n/a	0	0	0	1	0.412841796875	0.57763671875	upper	../fonts/amplitud.ttf
1783.65	n/a	WORD	891825	wordpools/wasnorm_wordpool_less_exclusions.txt	LTP293	ltpFR	11	6	1	MONGOOSE	909	n/a	1	n/a	0	0	0	1	0.412841796875	0.57763671875	upper	../fonts/amplitud.ttf
1787.648	n/a	WORD	893824	wordpools/wasnorm_wordpool_less_exclusions.txt	LTP293	ltpFR	11	6	1	CREATURE	403	n/a	1	n/a	0	0	0	1	0.412841796875	0.57763671875	upper	../fonts/amplitud.ttf
1791.664	n/a	WORD	895832	wordpools/wasnorm_wordpool_less_exclusions.txt	LTP293	ltpFR	11	6	1	HEAD	695	n/a	0	n/a	0	0	0	1	0.412841796875	0.57763671875	upper	../fonts/amplitud.ttf
1795.612	n/a	WORD	897806	wordpools/wasnorm_wordpool_less_exclusions.txt	LTP293	ltpFR	11	6	0	CLAW	319	n/a	1	n/a	0	0	0	0	0.5869140625	0.422607421875	lower	../fonts/zerothre.ttf
1799.69	n/a	WORD	899845	wordpools/wasnorm_wordpool_less_exclusions.txt	LTP293	ltpFR	11	6	0	PORCUPINE	1107	n/a	1	n/a	0	0	0	0	0.5869140625	0.422607421875	lower	../fonts/zerothre.ttf
1803.52	n/a	WORD	901760	wordpools/wasnorm_wordpool_less_exclusions.txt	LTP293	ltpFR	11	6	1	VIOLIN	1571	n/a	0	n/a	0	0	0	1	0.412841796875	0.57763671875	upper	../fonts/amplitud.ttf
1807.62	n/a	WORD	903810	wordpools/wasnorm_wordpool_less_exclusions.txt	LTP293	ltpFR	11	6	1	SWITCH	1422	n/a	0	n/a	0	0	0	1	0.412841796875	0.57763671875	upper	../fonts/amplitud.ttf
1811.742	n/a	WORD	905871	wordpools/wasnorm_wordpool_less_exclusions.txt	LTP293	ltpFR	11	6	1	PLANET	1082	n/a	0	n/a	0	0	0	1	0.412841796875	0.57763671875	upper	../fonts/amplitud.ttf
1815.874	n/a	WORD	907937	wordpools/wasnorm_wordpool_less_exclusions.txt	LTP293	ltpFR	11	6	1	BRUSH	182	n/a	0	n/a	0	0	0	1	0.412841796875	0.57763671875	upper	../fonts/amplitud.ttf
1819.722	n/a	WORD	909861	wordpools/wasnorm_wordpool_less_exclusions.txt	LTP293	ltpFR	11	6	0	SALAD	1224	n/a	1	n/a	0	0	0	0	0.5869140625	0.422607421875	lower	../fonts/zerothre.ttf
1823.602	n/a	WORD	911801	wordpools/wasnorm_wordpool_less_exclusions.txt	LTP293	ltpFR	11	6	0	LILY	821	n/a	0	n/a	0	0	0	0	0.5869140625	0.422607421875	lower	../fonts/zerothre.ttf
1827.68	n/a	WORD	913840	wordpools/wasnorm_wordpool_less_exclusions.txt	LTP293	ltpFR	11	6	0	TAPE	1433	n/a	0	n/a	0	0	0	0	0.5869140625	0.422607421875	lower	../fonts/zerothre.ttf
1830.696	n/a	START	915348	n/a	LTP293	ltpFR	11	n/a	n/a	n/a	n/a	n/a	n/a	n/a	n/a	n/a	n/a	n/a	n/a	n/a	n/a	n/a
1831.616	n/a	PROB	915808	n/a	LTP293	ltpFR	11	n/a	n/a	n/a	n/a	n/a	n/a	16	9	2	5	n/a	n/a	n/a	n/a	n/a
1833.024	n/a	PROB	916512	n/a	LTP293	ltpFR	11	n/a	n/a	n/a	n/a	n/a	n/a	8	1	2	5	n/a	n/a	n/a	n/a	n/a
1834.328	n/a	PROB	917164	n/a	LTP293	ltpFR	11	n/a	n/a	n/a	n/a	n/a	n/a	13	2	3	8	n/a	n/a	n/a	n/a	n/a
1836.414	n/a	PROB	918207	n/a	LTP293	ltpFR	11	n/a	n/a	n/a	n/a	n/a	n/a	17	1	8	8	n/a	n/a	n/a	n/a	n/a
1837.734	n/a	STOP	918867	n/a	LTP293	ltpFR	11	n/a	n/a	n/a	n/a	n/a	n/a	n/a	n/a	n/a	n/a	n/a	n/a	n/a	n/a	n/a
1840.518	n/a	REC_START	920259	n/a	LTP293	ltpFR	11	6	n/a	n/a	n/a	n/a	n/a	n/a	0	0	0	n/a	n/a	n/a	n/a	n/a
1841.018	n/a	REC_WORD	920509	wordpools/wasnorm_wordpool_less_exclusions.txt	LTP293	ltpFR	11	6	0	LILY	821	n/a	0	n/a	0	0	0	n/a	n/a	n/a	n/a	n/a
1841.932	n/a	REC_WORD	920966	wordpools/wasnorm_wordpool_less_exclusions.txt	LTP293	ltpFR	11	6	0	TAPE	1433	n/a	0	n/a	0	0	0	n/a	n/a	n/a	n/a	n/a
1844.214	n/a	REC_WORD	922107	wordpools/wasnorm_wordpool_less_exclusions.txt	LTP293	ltpFR	11	6	1	STOOL	1386	n/a	0	n/a	0	0	0	n/a	n/a	n/a	n/a	n/a
1845.384	n/a	REC_WORD	922692	wordpools/wasnorm_wordpool_less_exclusions.txt	LTP293	ltpFR	11	6	0	COUCH	386	n/a	1	n/a	0	0	0	n/a	n/a	n/a	n/a	n/a
1846.506	n/a	REC_WORD	923253	wordpools/wasnorm_wordpool_less_exclusions.txt	LTP293	ltpFR	11	6	0	GOVERNOR	651	n/a	1	n/a	0	0	0	n/a	n/a	n/a	n/a	n/a
1847.578	n/a	REC_WORD	923789	wordpools/wasnorm_wordpool_less_exclusions.txt	LTP293	ltpFR	11	6	0	PICKLE	1059	n/a	0	n/a	0	0	0	n/a	n/a	n/a	n/a	n/a
1861.2	n/a	REC_WORD	930600	wordpools/wasnorm_wordpool_less_exclusions.txt	LTP293	ltpFR	11	6	n/a	WORLD	1622	n/a	n/a	n/a	0	0	0	n/a	n/a	n/a	n/a	n/a
1916.174	n/a	REST_REWET	958087	n/a	LTP293	ltpFR	11	6	n/a	n/a	n/a	n/a	n/a	n/a	0	0	0	n/a	n/a	n/a	n/a	n/a
2224.888	n/a	START	1112444	n/a	LTP293	ltpFR	11	n/a	n/a	n/a	n/a	n/a	n/a	n/a	n/a	n/a	n/a	n/a	n/a	n/a	n/a	n/a
2226.404	n/a	PROB	1113202	n/a	LTP293	ltpFR	11	n/a	n/a	n/a	n/a	n/a	n/a	24	7	9	8	n/a	n/a	n/a	n/a	n/a
2229.79	n/a	PROB	1114895	n/a	LTP293	ltpFR	11	n/a	n/a	n/a	n/a	n/a	n/a	20	8	3	9	n/a	n/a	n/a	n/a	n/a
2231.212	n/a	PROB	1115606	n/a	LTP293	ltpFR	11	n/a	n/a	n/a	n/a	n/a	n/a	13	7	1	5	n/a	n/a	n/a	n/a	n/a
2232.546	n/a	STOP	1116273	n/a	LTP293	ltpFR	11	n/a	n/a	n/a	n/a	n/a	n/a	n/a	n/a	n/a	n/a	n/a	n/a	n/a	n/a	n/a
2233.988	n/a	WORD	1116994	wordpools/wasnorm_wordpool_less_exclusions.txt	LTP293	ltpFR	11	7	1	SEAL	1262	n/a	1	n/a	0	0	0	1	0.412841796875	0.57763671875	upper	../fonts/amplitud.ttf
2237.002	n/a	START	1118501	n/a	LTP293	ltpFR	11	n/a	n/a	n/a	n/a	n/a	n/a	n/a	n/a	n/a	n/a	n/a	n/a	n/a	n/a	n/a
2238.154	n/a	PROB	1119077	n/a	LTP293	ltpFR	11	n/a	n/a	n/a	n/a	n/a	n/a	14	3	8	3	n/a	n/a	n/a	n/a	n/a
2239.588	n/a	PROB	1119794	n/a	LTP293	ltpFR	11	n/a	n/a	n/a	n/a	n/a	n/a	13	3	8	2	n/a	n/a	n/a	n/a	n/a
2241.412	n/a	PROB	1120706	n/a	LTP293	ltpFR	11	n/a	n/a	n/a	n/a	n/a	n/a	14	1	5	8	n/a	n/a	n/a	n/a	n/a
2242.8	n/a	PROB	1121400	n/a	LTP293	ltpFR	11	n/a	n/a	n/a	n/a	n/a	n/a	9	3	1	5	n/a	n/a	n/a	n/a	n/a
2244.002	n/a	STOP	1122001	n/a	LTP293	ltpFR	11	n/a	n/a	n/a	n/a	n/a	n/a	n/a	n/a	n/a	n/a	n/a	n/a	n/a	n/a	n/a
2245.918	n/a	WORD	1122959	wordpools/wasnorm_wordpool_less_exclusions.txt	LTP293	ltpFR	11	7	1	VET	1560	n/a	1	n/a	0	0	0	1	0.412841796875	0.57763671875	upper	../fonts/amplitud.ttf
2248.93	n/a	START	1124465	n/a	LTP293	ltpFR	11	n/a	n/a	n/a	n/a	n/a	n/a	n/a	n/a	n/a	n/a	n/a	n/a	n/a	n/a	n/a
2250.068	n/a	PROB	1125034	n/a	LTP293	ltpFR	11	n/a	n/a	n/a	n/a	n/a	n/a	17	4	9	4	n/a	n/a	n/a	n/a	n/a
2252.486	n/a	PROB	1126243	n/a	LTP293	ltpFR	11	n/a	n/a	n/a	n/a	n/a	n/a	19	5	6	8	n/a	n/a	n/a	n/a	n/a
2254.026	n/a	PROB	1127013	n/a	LTP293	ltpFR	11	n/a	n/a	n/a	n/a	n/a	n/a	24	8	9	7	n/a	n/a	n/a	n/a	n/a
2256.1	n/a	STOP	1128050	n/a	LTP293	ltpFR	11	n/a	n/a	n/a	n/a	n/a	n/a	n/a	n/a	n/a	n/a	n/a	n/a	n/a	n/a	n/a
2257.812	n/a	WORD	1128906	wordpools/wasnorm_wordpool_less_exclusions.txt	LTP293	ltpFR	11	7	1	TUSK	1523	n/a	0	n/a	0	0	0	1	0.412841796875	0.57763671875	upper	../fonts/amplitud.ttf
2260.826	n/a	START	1130413	n/a	LTP293	ltpFR	11	n/a	n/a	n/a	n/a	n/a	n/a	n/a	n/a	n/a	n/a	n/a	n/a	n/a	n/a	n/a
2261.74	n/a	PROB	1130870	n/a	LTP293	ltpFR	11	n/a	n/a	n/a	n/a	n/a	n/a	11	5	2	4	n/a	n/a	n/a	n/a	n/a
2263.346	n/a	PROB	1131673	n/a	LTP293	ltpFR	11	n/a	n/a	n/a	n/a	n/a	n/a	13	7	5	1	n/a	n/a	n/a	n/a	n/a
2265.006	n/a	PROB	1132503	n/a	LTP293	ltpFR	11	n/a	n/a	n/a	n/a	n/a	n/a	15	5	8	2	n/a	n/a	n/a	n/a	n/a
2266.156	n/a	PROB	1133078	n/a	LTP293	ltpFR	11	n/a	n/a	n/a	n/a	n/a	n/a	18	3	7	8	n/a	n/a	n/a	n/a	n/a
2267.236	n/a	STOP	1133618	n/a	LTP293	ltpFR	11	n/a	n/a	n/a	n/a	n/a	n/a	n/a	n/a	n/a	n/a	n/a	n/a	n/a	n/a	n/a
2269.658	n/a	WORD	1134829	wordpools/wasnorm_wordpool_less_exclusions.txt	LTP293	ltpFR	11	7	1	ANT	25	n/a	1	n/a	0	0	0	1	0.412841796875	0.57763671875	upper	../fonts/amplitud.ttf
2272.67	n/a	START	1136335	n/a	LTP293	ltpFR	11	n/a	n/a	n/a	n/a	n/a	n/a	n/a	n/a	n/a	n/a	n/a	n/a	n/a	n/a	n/a
2273.634	n/a	PROB	1136817	n/a	LTP293	ltpFR	11	n/a	n/a	n/a	n/a	n/a	n/a	9	2	4	3	n/a	n/a	n/a	n/a	n/a
2275.38	n/a	PROB	1137690	n/a	LTP293	ltpFR	11	n/a	n/a	n/a	n/a	n/a	n/a	18	9	5	4	n/a	n/a	n/a	n/a	n/a
2277.85	n/a	PROB	1138925	n/a	LTP293	ltpFR	11	n/a	n/a	n/a	n/a	n/a	n/a	14	1	8	5	n/a	n/a	n/a	n/a	n/a
2280.668	n/a	STOP	1140334	n/a	LTP293	ltpFR	11	n/a	n/a	n/a	n/a	n/a	n/a	n/a	n/a	n/a	n/a	n/a	n/a	n/a	n/a	n/a
2281.62	n/a	WORD	1140810	wordpools/wasnorm_wordpool_less_exclusions.txt	LTP293	ltpFR	11	7	1	ROOSTER	1209	n/a	1	n/a	0	0	0	1	0.412841796875	0.57763671875	upper	../fonts/amplitud.ttf
2284.632	n/a	START	1142316	n/a	LTP293	ltpFR	11	n/a	n/a	n/a	n/a	n/a	n/a	n/a	n/a	n/a	n/a	n/a	n/a	n/a	n/a	n/a
2285.67	n/a	PROB	1142835	n/a	LTP293	ltpFR	11	n/a	n/a	n/a	n/a	n/a	n/a	17	3	9	5	n/a	n/a	n/a	n/a	n/a
2287.36	n/a	PROB	1143680	n/a	LTP293	ltpFR	11	n/a	n/a	n/a	n/a	n/a	n/a	16	6	9	1	n/a	n/a	n/a	n/a	n/a
2288.698	n/a	PROB	1144349	n/a	LTP293	ltpFR	11	n/a	n/a	n/a	n/a	n/a	n/a	6	1	1	4	n/a	n/a	n/a	n/a	n/a
2289.852	n/a	PROB	1144926	n/a	LTP293	ltpFR	11	n/a	n/a	n/a	n/a	n/a	n/a	13	4	3	6	n/a	n/a	n/a	n/a	n/a
2291.532	n/a	STOP	1145766	n/a	LTP293	ltpFR	11	n/a	n/a	n/a	n/a	n/a	n/a	n/a	n/a	n/a	n/a	n/a	n/a	n/a	n/a	n/a
2293.694	n/a	WORD	1146847	wordpools/wasnorm_wordpool_less_exclusions.txt	LTP293	ltpFR	11	7	1	DETERGENT	455	n/a	0	n/a	0	0	0	1	0.412841796875	0.57763671875	upper	../fonts/amplitud.ttf
2296.712	n/a	START	1148356	n/a	LTP293	ltpFR	11	n/a	n/a	n/a	n/a	n/a	n/a	n/a	n/a	n/a	n/a	n/a	n/a	n/a	n/a	n/a
2297.626	n/a	PROB	1148813	n/a	LTP293	ltpFR	11	n/a	n/a	n/a	n/a	n/a	n/a	16	7	1	8	n/a	n/a	n/a	n/a	n/a
2298.82	n/a	PROB	1149410	n/a	LTP293	ltpFR	11	n/a	n/a	n/a	n/a	n/a	n/a	9	1	5	3	n/a	n/a	n/a	n/a	n/a
2300.844	n/a	PROB	1150422	n/a	LTP293	ltpFR	11	n/a	n/a	n/a	n/a	n/a	n/a	14	9	3	2	n/a	n/a	n/a	n/a	n/a
2304.712	n/a	STOP	1152356	n/a	LTP293	ltpFR	11	n/a	n/a	n/a	n/a	n/a	n/a	n/a	n/a	n/a	n/a	n/a	n/a	n/a	n/a	n/a
2305.842	n/a	WORD	1152921	wordpools/wasnorm_wordpool_less_exclusions.txt	LTP293	ltpFR	11	7	1	LUNG	850	n/a	0	n/a	0	0	0	1	0.412841796875	0.57763671875	upper	../fonts/amplitud.ttf
2308.86	n/a	START	1154430	n/a	LTP293	ltpFR	11	n/a	n/a	n/a	n/a	n/a	n/a	n/a	n/a	n/a	n/a	n/a	n/a	n/a	n/a	n/a
2309.856	n/a	PROB	1154928	n/a	LTP293	ltpFR	11	n/a	n/a	n/a	n/a	n/a	n/a	7	4	2	1	n/a	n/a	n/a	n/a	n/a
2311.528	n/a	PROB	1155764	n/a	LTP293	ltpFR	11	n/a	n/a	n/a	n/a	n/a	n/a	17	5	9	3	n/a	n/a	n/a	n/a	n/a
2313.486	n/a	PROB	1156743	n/a	LTP293	ltpFR	11	n/a	n/a	n/a	n/a	n/a	n/a	16	2	6	9	n/a	n/a	n/a	n/a	n/a
2315.574	n/a	STOP	1157787	n/a	LTP293	ltpFR	11	n/a	n/a	n/a	n/a	n/a	n/a	n/a	n/a	n/a	n/a	n/a	n/a	n/a	n/a	n/a
2317.96	n/a	WORD	1158980	wordpools/wasnorm_wordpool_less_exclusions.txt	LTP293	ltpFR	11	7	1	CARTON	251	n/a	0	n/a	0	0	0	1	0.412841796875	0.57763671875	upper	../fonts/amplitud.ttf
2320.972	n/a	START	1160486	n/a	LTP293	ltpFR	11	n/a	n/a	n/a	n/a	n/a	n/a	n/a	n/a	n/a	n/a	n/a	n/a	n/a	n/a	n/a
2322.074	n/a	PROB	1161037	n/a	LTP293	ltpFR	11	n/a	n/a	n/a	n/a	n/a	n/a	18	7	9	2	n/a	n/a	n/a	n/a	n/a
2324.028	n/a	PROB	1162014	n/a	LTP293	ltpFR	11	n/a	n/a	n/a	n/a	n/a	n/a	14	2	6	6	n/a	n/a	n/a	n/a	n/a
2325.45	n/a	PROB	1162725	n/a	LTP293	ltpFR	11	n/a	n/a	n/a	n/a	n/a	n/a	20	7	9	4	n/a	n/a	n/a	n/a	n/a
2327.374	n/a	PROB	1163687	n/a	LTP293	ltpFR	11	n/a	n/a	n/a	n/a	n/a	n/a	17	7	8	2	n/a	n/a	n/a	n/a	n/a
2328.752	n/a	STOP	1164376	n/a	LTP293	ltpFR	11	n/a	n/a	n/a	n/a	n/a	n/a	n/a	n/a	n/a	n/a	n/a	n/a	n/a	n/a	n/a
2330.022	n/a	WORD	1165011	wordpools/wasnorm_wordpool_less_exclusions.txt	LTP293	ltpFR	11	7	1	CHEST	295	n/a	0	n/a	0	0	0	1	0.412841796875	0.57763671875	upper	../fonts/amplitud.ttf
2333.034	n/a	START	1166517	n/a	LTP293	ltpFR	11	n/a	n/a	n/a	n/a	n/a	n/a	n/a	n/a	n/a	n/a	n/a	n/a	n/a	n/a	n/a
2333.888	n/a	PROB	1166944	n/a	LTP293	ltpFR	11	n/a	n/a	n/a	n/a	n/a	n/a	20	8	5	7	n/a	n/a	n/a	n/a	n/a
2335.978	n/a	PROB	1167989	n/a	LTP293	ltpFR	11	n/a	n/a	n/a	n/a	n/a	n/a	15	4	5	6	n/a	n/a	n/a	n/a	n/a
2337.396	n/a	PROB	1168698	n/a	LTP293	ltpFR	11	n/a	n/a	n/a	n/a	n/a	n/a	16	4	7	5	n/a	n/a	n/a	n/a	n/a
2339.258	n/a	PROB	1169629	n/a	LTP293	ltpFR	11	n/a	n/a	n/a	n/a	n/a	n/a	13	1	8	4	n/a	n/a	n/a	n/a	n/a
2340.446	n/a	STOP	1170223	n/a	LTP293	ltpFR	11	n/a	n/a	n/a	n/a	n/a	n/a	n/a	n/a	n/a	n/a	n/a	n/a	n/a	n/a	n/a
2342.13	n/a	WORD	1171065	wordpools/wasnorm_wordpool_less_exclusions.txt	LTP293	ltpFR	11	7	1	VELVET	1555	n/a	0	n/a	0	0	0	1	0.412841796875	0.57763671875	upper	../fonts/amplitud.ttf
2345.148	n/a	START	1172574	n/a	LTP293	ltpFR	11	n/a	n/a	n/a	n/a	n/a	n/a	n/a	n/a	n/a	n/a	n/a	n/a	n/a	n/a	n/a
2346.018	n/a	PROB	1173009	n/a	LTP293	ltpFR	11	n/a	n/a	n/a	n/a	n/a	n/a	16	8	4	4	n/a	n/a	n/a	n/a	n/a
2347.25	n/a	PROB	1173625	n/a	LTP293	ltpFR	11	n/a	n/a	n/a	n/a	n/a	n/a	15	2	9	4	n/a	n/a	n/a	n/a	n/a
2348.704	n/a	PROB	1174352	n/a	LTP293	ltpFR	11	n/a	n/a	n/a	n/a	n/a	n/a	11	8	2	1	n/a	n/a	n/a	n/a	n/a
2350.98	n/a	PROB	1175490	n/a	LTP293	ltpFR	11	n/a	n/a	n/a	n/a	n/a	n/a	14	6	3	5	n/a	n/a	n/a	n/a	n/a
2353.088	n/a	STOP	1176544	n/a	LTP293	ltpFR	11	n/a	n/a	n/a	n/a	n/a	n/a	n/a	n/a	n/a	n/a	n/a	n/a	n/a	n/a	n/a
2354.298	n/a	WORD	1177149	wordpools/wasnorm_wordpool_less_exclusions.txt	LTP293	ltpFR	11	7	1	COW	393	n/a	1	n/a	0	0	0	1	0.412841796875	0.57763671875	upper	../fonts/amplitud.ttf
2357.31	n/a	START	1178655	n/a	LTP293	ltpFR	11	n/a	n/a	n/a	n/a	n/a	n/a	n/a	n/a	n/a	n/a	n/a	n/a	n/a	n/a	n/a
2358.342	n/a	PROB	1179171	n/a	LTP293	ltpFR	11	n/a	n/a	n/a	n/a	n/a	n/a	23	8	9	6	n/a	n/a	n/a	n/a	n/a
2360.02	n/a	PROB	1180010	n/a	LTP293	ltpFR	11	n/a	n/a	n/a	n/a	n/a	n/a	7	3	1	3	n/a	n/a	n/a	n/a	n/a
2362.04	n/a	PROB	1181020	n/a	LTP293	ltpFR	11	n/a	n/a	n/a	n/a	n/a	n/a	14	5	8	1	n/a	n/a	n/a	n/a	n/a
2365.312	n/a	STOP	1182656	n/a	LTP293	ltpFR	11	n/a	n/a	n/a	n/a	n/a	n/a	n/a	n/a	n/a	n/a	n/a	n/a	n/a	n/a	n/a
2366.294	n/a	WORD	1183147	wordpools/wasnorm_wordpool_less_exclusions.txt	LTP293	ltpFR	11	7	1	CHICKEN	297	n/a	1	n/a	0	0	0	1	0.412841796875	0.57763671875	upper	../fonts/amplitud.ttf
2369.306	n/a	START	1184653	n/a	LTP293	ltpFR	11	n/a	n/a	n/a	n/a	n/a	n/a	n/a	n/a	n/a	n/a	n/a	n/a	n/a	n/a	n/a
2370.288	n/a	PROB	1185144	n/a	LTP293	ltpFR	11	n/a	n/a	n/a	n/a	n/a	n/a	13	2	6	5	n/a	n/a	n/a	n/a	n/a
2371.744	n/a	PROB	1185872	n/a	LTP293	ltpFR	11	n/a	n/a	n/a	n/a	n/a	n/a	13	2	8	3	n/a	n/a	n/a	n/a	n/a
2373.968	n/a	PROB	1186984	n/a	LTP293	ltpFR	11	n/a	n/a	n/a	n/a	n/a	n/a	5	2	1	2	n/a	n/a	n/a	n/a	n/a
2375.29	n/a	PROB	1187645	n/a	LTP293	ltpFR	11	n/a	n/a	n/a	n/a	n/a	n/a	12	2	2	8	n/a	n/a	n/a	n/a	n/a
2377.184	n/a	STOP	1188592	n/a	LTP293	ltpFR	11	n/a	n/a	n/a	n/a	n/a	n/a	n/a	n/a	n/a	n/a	n/a	n/a	n/a	n/a	n/a
2378.356	n/a	WORD	1189178	wordpools/wasnorm_wordpool_less_exclusions.txt	LTP293	ltpFR	11	7	1	TRIANGLE	1504	n/a	0	n/a	0	0	0	1	0.412841796875	0.57763671875	upper	../fonts/amplitud.ttf
2381.37	n/a	START	1190685	n/a	LTP293	ltpFR	11	n/a	n/a	n/a	n/a	n/a	n/a	n/a	n/a	n/a	n/a	n/a	n/a	n/a	n/a	n/a
2382.238	n/a	PROB	1191119	n/a	LTP293	ltpFR	11	n/a	n/a	n/a	n/a	n/a	n/a	13	2	9	2	n/a	n/a	n/a	n/a	n/a
2383.79	n/a	PROB	1191895	n/a	LTP293	ltpFR	11	n/a	n/a	n/a	n/a	n/a	n/a	14	9	2	3	n/a	n/a	n/a	n/a	n/a
2386.22	n/a	PROB	1193110	n/a	LTP293	ltpFR	11	n/a	n/a	n/a	n/a	n/a	n/a	15	6	6	3	n/a	n/a	n/a	n/a	n/a
2388.002	n/a	STOP	1194001	n/a	LTP293	ltpFR	11	n/a	n/a	n/a	n/a	n/a	n/a	n/a	n/a	n/a	n/a	n/a	n/a	n/a	n/a	n/a
2390.286	n/a	WORD	1195143	wordpools/wasnorm_wordpool_less_exclusions.txt	LTP293	ltpFR	11	7	1	CAMEL	223	n/a	1	n/a	0	0	0	1	0.412841796875	0.57763671875	upper	../fonts/amplitud.ttf
2393.298	n/a	START	1196649	n/a	LTP293	ltpFR	11	n/a	n/a	n/a	n/a	n/a	n/a	n/a	n/a	n/a	n/a	n/a	n/a	n/a	n/a	n/a
2394.302	n/a	PROB	1197151	n/a	LTP293	ltpFR	11	n/a	n/a	n/a	n/a	n/a	n/a	21	7	9	5	n/a	n/a	n/a	n/a	n/a
2396.058	n/a	PROB	1198029	n/a	LTP293	ltpFR	11	n/a	n/a	n/a	n/a	n/a	n/a	18	3	9	6	n/a	n/a	n/a	n/a	n/a
2398.25	n/a	PROB	1199125	n/a	LTP293	ltpFR	11	n/a	n/a	n/a	n/a	n/a	n/a	16	8	3	5	n/a	n/a	n/a	n/a	n/a
2399.884	n/a	STOP	1199942	n/a	LTP293	ltpFR	11	n/a	n/a	n/a	n/a	n/a	n/a	n/a	n/a	n/a	n/a	n/a	n/a	n/a	n/a	n/a
2402.4	n/a	WORD	1201200	wordpools/wasnorm_wordpool_less_exclusions.txt	LTP293	ltpFR	11	7	1	RIVER	1194	n/a	0	n/a	0	0	0	1	0.412841796875	0.57763671875	upper	../fonts/amplitud.ttf
2405.412	n/a	START	1202706	n/a	LTP293	ltpFR	11	n/a	n/a	n/a	n/a	n/a	n/a	n/a	n/a	n/a	n/a	n/a	n/a	n/a	n/a	n/a
2406.608	n/a	PROB	1203304	n/a	LTP293	ltpFR	11	n/a	n/a	n/a	n/a	n/a	n/a	12	1	8	3	n/a	n/a	n/a	n/a	n/a
2407.836	n/a	PROB	1203918	n/a	LTP293	ltpFR	11	n/a	n/a	n/a	n/a	n/a	n/a	15	6	6	3	n/a	n/a	n/a	n/a	n/a
2409.074	n/a	PROB	1204537	n/a	LTP293	ltpFR	11	n/a	n/a	n/a	n/a	n/a	n/a	6	3	1	2	n/a	n/a	n/a	n/a	n/a
2410.646	n/a	PROB	1205323	n/a	LTP293	ltpFR	11	n/a	n/a	n/a	n/a	n/a	n/a	15	7	5	3	n/a	n/a	n/a	n/a	n/a
2412.738	n/a	STOP	1206369	n/a	LTP293	ltpFR	11	n/a	n/a	n/a	n/a	n/a	n/a	n/a	n/a	n/a	n/a	n/a	n/a	n/a	n/a	n/a
2414.378	n/a	WORD	1207189	wordpools/wasnorm_wordpool_less_exclusions.txt	LTP293	ltpFR	11	7	1	LAGOON	795	n/a	0	n/a	0	0	0	1	0.412841796875	0.57763671875	upper	../fonts/amplitud.ttf
2417.39	n/a	START	1208695	n/a	LTP293	ltpFR	11	n/a	n/a	n/a	n/a	n/a	n/a	n/a	n/a	n/a	n/a	n/a	n/a	n/a	n/a	n/a
2418.476	n/a	PROB	1209238	n/a	LTP293	ltpFR	11	n/a	n/a	n/a	n/a	n/a	n/a	11	3	4	4	n/a	n/a	n/a	n/a	n/a
2420.034	n/a	PROB	1210017	n/a	LTP293	ltpFR	11	n/a	n/a	n/a	n/a	n/a	n/a	11	1	6	4	n/a	n/a	n/a	n/a	n/a
2421.522	n/a	PROB	1210761	n/a	LTP293	ltpFR	11	n/a	n/a	n/a	n/a	n/a	n/a	12	1	7	4	n/a	n/a	n/a	n/a	n/a
2423.804	n/a	STOP	1211902	n/a	LTP293	ltpFR	11	n/a	n/a	n/a	n/a	n/a	n/a	n/a	n/a	n/a	n/a	n/a	n/a	n/a	n/a	n/a
2427.212	n/a	REC_START	1213606	n/a	LTP293	ltpFR	11	7	n/a	n/a	n/a	n/a	n/a	n/a	0	0	0	n/a	n/a	n/a	n/a	n/a
2428.536	n/a	REC_WORD	1214268	wordpools/wasnorm_wordpool_less_exclusions.txt	LTP293	ltpFR	11	7	1	RIVER	1194	n/a	0	n/a	0	0	0	n/a	n/a	n/a	n/a	n/a
2429.408	n/a	REC_WORD	1214704	wordpools/wasnorm_wordpool_less_exclusions.txt	LTP293	ltpFR	11	7	1	LAGOON	795	n/a	0	n/a	0	0	0	n/a	n/a	n/a	n/a	n/a
2430.888	n/a	REC_WORD	1215444	wordpools/wasnorm_wordpool_less_exclusions.txt	LTP293	ltpFR	11	7	1	VET	1560	n/a	1	n/a	0	0	0	n/a	n/a	n/a	n/a	n/a
2431.996	n/a	REC_WORD	1215998	wordpools/wasnorm_wordpool_less_exclusions.txt	LTP293	ltpFR	11	7	1	ROOSTER	1209	n/a	1	n/a	0	0	0	n/a	n/a	n/a	n/a	n/a
2432.896	n/a	REC_WORD	1216448	wordpools/wasnorm_wordpool_less_exclusions.txt	LTP293	ltpFR	11	7	1	SEAL	1262	n/a	1	n/a	0	0	0	n/a	n/a	n/a	n/a	n/a
2434.334	n/a	REC_WORD	1217167	wordpools/wasnorm_wordpool_less_exclusions.txt	LTP293	ltpFR	11	7	1	CHICKEN	297	n/a	1	n/a	0	0	0	n/a	n/a	n/a	n/a	n/a
2436.276	n/a	REC_WORD	1218138	wordpools/wasnorm_wordpool_less_exclusions.txt	LTP293	ltpFR	11	7	1	TUSK	1523	n/a	0	n/a	0	0	0	n/a	n/a	n/a	n/a	n/a
2437.66	n/a	REC_WORD	1218830	wordpools/wasnorm_wordpool_less_exclusions.txt	LTP293	ltpFR	11	7	1	ANT	25	n/a	1	n/a	0	0	0	n/a	n/a	n/a	n/a	n/a
2536.278	n/a	START	1268139	n/a	LTP293	ltpFR	11	n/a	n/a	n/a	n/a	n/a	n/a	n/a	n/a	n/a	n/a	n/a	n/a	n/a	n/a	n/a
2537.794	n/a	PROB	1268897	n/a	LTP293	ltpFR	11	n/a	n/a	n/a	n/a	n/a	n/a	18	7	4	7	n/a	n/a	n/a	n/a	n/a
2539.668	n/a	PROB	1269834	n/a	LTP293	ltpFR	11	n/a	n/a	n/a	n/a	n/a	n/a	18	3	6	9	n/a	n/a	n/a	n/a	n/a
2540.794	n/a	PROB	1270397	n/a	LTP293	ltpFR	11	n/a	n/a	n/a	n/a	n/a	n/a	20	5	9	6	n/a	n/a	n/a	n/a	n/a
2544.278	n/a	STOP	1272139	n/a	LTP293	ltpFR	11	n/a	n/a	n/a	n/a	n/a	n/a	n/a	n/a	n/a	n/a	n/a	n/a	n/a	n/a	n/a
2545.378	n/a	WORD	1272689	wordpools/wasnorm_wordpool_less_exclusions.txt	LTP293	ltpFR	11	8	1	PERSONNEL	1053	n/a	0	n/a	0	0	0	1	0.412841796875	0.57763671875	upper	../fonts/amplitud.ttf
2548.39	n/a	START	1274195	n/a	LTP293	ltpFR	11	n/a	n/a	n/a	n/a	n/a	n/a	n/a	n/a	n/a	n/a	n/a	n/a	n/a	n/a	n/a
2549.256	n/a	PROB	1274628	n/a	LTP293	ltpFR	11	n/a	n/a	n/a	n/a	n/a	n/a	19	8	4	7	n/a	n/a	n/a	n/a	n/a
2551.152	n/a	PROB	1275576	n/a	LTP293	ltpFR	11	n/a	n/a	n/a	n/a	n/a	n/a	23	6	8	9	n/a	n/a	n/a	n/a	n/a
2552.516	n/a	PROB	1276258	n/a	LTP293	ltpFR	11	n/a	n/a	n/a	n/a	n/a	n/a	25	6	9	9	n/a	n/a	n/a	n/a	n/a
2554.708	n/a	PROB	1277354	n/a	LTP293	ltpFR	11	n/a	n/a	n/a	n/a	n/a	n/a	20	5	9	6	n/a	n/a	n/a	n/a	n/a
2556.05	n/a	STOP	1278025	n/a	LTP293	ltpFR	11	n/a	n/a	n/a	n/a	n/a	n/a	n/a	n/a	n/a	n/a	n/a	n/a	n/a	n/a	n/a
2557.518	n/a	WORD	1278759	wordpools/wasnorm_wordpool_less_exclusions.txt	LTP293	ltpFR	11	8	1	DEER	444	n/a	1	n/a	0	0	0	1	0.412841796875	0.57763671875	upper	../fonts/amplitud.ttf
2560.536	n/a	START	1280268	n/a	LTP293	ltpFR	11	n/a	n/a	n/a	n/a	n/a	n/a	n/a	n/a	n/a	n/a	n/a	n/a	n/a	n/a	n/a
2561.49	n/a	PROB	1280745	n/a	LTP293	ltpFR	11	n/a	n/a	n/a	n/a	n/a	n/a	18	6	4	8	n/a	n/a	n/a	n/a	n/a
2563.164	n/a	PROB	1281582	n/a	LTP293	ltpFR	11	n/a	n/a	n/a	n/a	n/a	n/a	8	5	1	2	n/a	n/a	n/a	n/a	n/a
2564.82	n/a	PROB	1282410	n/a	LTP293	ltpFR	11	n/a	n/a	n/a	n/a	n/a	n/a	16	3	5	8	n/a	n/a	n/a	n/a	n/a
2566.052	n/a	PROB	1283026	n/a	LTP293	ltpFR	11	n/a	n/a	n/a	n/a	n/a	n/a	18	2	7	9	n/a	n/a	n/a	n/a	n/a
2567.308	n/a	STOP	1283654	n/a	LTP293	ltpFR	11	n/a	n/a	n/a	n/a	n/a	n/a	n/a	n/a	n/a	n/a	n/a	n/a	n/a	n/a	n/a
2569.432	n/a	WORD	1284716	wordpools/wasnorm_wordpool_less_exclusions.txt	LTP293	ltpFR	11	8	0	BLANKET	135	n/a	1	n/a	0	0	0	0	0.5869140625	0.422607421875	lower	../fonts/zerothre.ttf
2572.45	n/a	START	1286225	n/a	LTP293	ltpFR	11	n/a	n/a	n/a	n/a	n/a	n/a	n/a	n/a	n/a	n/a	n/a	n/a	n/a	n/a	n/a
2573.62	n/a	PROB	1286810	n/a	LTP293	ltpFR	11	n/a	n/a	n/a	n/a	n/a	n/a	19	4	9	6	n/a	n/a	n/a	n/a	n/a
2575.176	n/a	PROB	1287588	n/a	LTP293	ltpFR	11	n/a	n/a	n/a	n/a	n/a	n/a	11	2	7	2	n/a	n/a	n/a	n/a	n/a
2576.894	n/a	PROB	1288447	n/a	LTP293	ltpFR	11	n/a	n/a	n/a	n/a	n/a	n/a	13	9	1	3	n/a	n/a	n/a	n/a	n/a
2578.086	n/a	PROB	1289043	n/a	LTP293	ltpFR	11	n/a	n/a	n/a	n/a	n/a	n/a	17	6	6	5	n/a	n/a	n/a	n/a	n/a
2579.514	n/a	STOP	1289757	n/a	LTP293	ltpFR	11	n/a	n/a	n/a	n/a	n/a	n/a	n/a	n/a	n/a	n/a	n/a	n/a	n/a	n/a	n/a
2581.544	n/a	WORD	1290772	wordpools/wasnorm_wordpool_less_exclusions.txt	LTP293	ltpFR	11	8	0	FROST	609	n/a	1	n/a	0	0	0	0	0.5869140625	0.422607421875	lower	../fonts/zerothre.ttf
2584.56	n/a	START	1292280	n/a	LTP293	ltpFR	11	n/a	n/a	n/a	n/a	n/a	n/a	n/a	n/a	n/a	n/a	n/a	n/a	n/a	n/a	n/a
2585.766	n/a	PROB	1292883	n/a	LTP293	ltpFR	11	n/a	n/a	n/a	n/a	n/a	n/a	12	2	3	7	n/a	n/a	n/a	n/a	n/a
2586.938	n/a	PROB	1293469	n/a	LTP293	ltpFR	11	n/a	n/a	n/a	n/a	n/a	n/a	19	2	9	8	n/a	n/a	n/a	n/a	n/a
2589.062	n/a	PROB	1294531	n/a	LTP293	ltpFR	11	n/a	n/a	n/a	n/a	n/a	n/a	13	6	5	2	n/a	n/a	n/a	n/a	n/a
2591.902	n/a	STOP	1295951	n/a	LTP293	ltpFR	11	n/a	n/a	n/a	n/a	n/a	n/a	n/a	n/a	n/a	n/a	n/a	n/a	n/a	n/a	n/a
2593.724	n/a	WORD	1296862	wordpools/wasnorm_wordpool_less_exclusions.txt	LTP293	ltpFR	11	8	0	PASSENGER	1020	n/a	1	n/a	0	0	0	0	0.5869140625	0.422607421875	lower	../fonts/zerothre.ttf
2596.742	n/a	START	1298371	n/a	LTP293	ltpFR	11	n/a	n/a	n/a	n/a	n/a	n/a	n/a	n/a	n/a	n/a	n/a	n/a	n/a	n/a	n/a
2597.744	n/a	PROB	1298872	n/a	LTP293	ltpFR	11	n/a	n/a	n/a	n/a	n/a	n/a	9	4	4	1	n/a	n/a	n/a	n/a	n/a
2599.334	n/a	PROB	1299667	n/a	LTP293	ltpFR	11	n/a	n/a	n/a	n/a	n/a	n/a	17	4	8	5	n/a	n/a	n/a	n/a	n/a
2601.542	n/a	PROB	1300771	n/a	LTP293	ltpFR	11	n/a	n/a	n/a	n/a	n/a	n/a	9	2	6	1	n/a	n/a	n/a	n/a	n/a
2603.926	n/a	STOP	1301963	n/a	LTP293	ltpFR	11	n/a	n/a	n/a	n/a	n/a	n/a	n/a	n/a	n/a	n/a	n/a	n/a	n/a	n/a	n/a
2605.81	n/a	WORD	1302905	wordpools/wasnorm_wordpool_less_exclusions.txt	LTP293	ltpFR	11	8	0	EMPLOYER	532	n/a	1	n/a	0	0	0	0	0.5869140625	0.422607421875	lower	../fonts/zerothre.ttf
2608.822	n/a	START	1304411	n/a	LTP293	ltpFR	11	n/a	n/a	n/a	n/a	n/a	n/a	n/a	n/a	n/a	n/a	n/a	n/a	n/a	n/a	n/a
2609.776	n/a	PROB	1304888	n/a	LTP293	ltpFR	11	n/a	n/a	n/a	n/a	n/a	n/a	18	6	3	9	n/a	n/a	n/a	n/a	n/a
2610.962	n/a	PROB	1305481	n/a	LTP293	ltpFR	11	n/a	n/a	n/a	n/a	n/a	n/a	13	3	3	7	n/a	n/a	n/a	n/a	n/a
2612.512	n/a	PROB	1306256	n/a	LTP293	ltpFR	11	n/a	n/a	n/a	n/a	n/a	n/a	24	7	9	8	n/a	n/a	n/a	n/a	n/a
2615.846	n/a	STOP	1307923	n/a	LTP293	ltpFR	11	n/a	n/a	n/a	n/a	n/a	n/a	n/a	n/a	n/a	n/a	n/a	n/a	n/a	n/a	n/a
2617.738	n/a	WORD	1308869	wordpools/wasnorm_wordpool_less_exclusions.txt	LTP293	ltpFR	11	8	1	PORK	1108	n/a	0	n/a	0	0	0	1	0.412841796875	0.57763671875	upper	../fonts/amplitud.ttf
2620.75	n/a	START	1310375	n/a	LTP293	ltpFR	11	n/a	n/a	n/a	n/a	n/a	n/a	n/a	n/a	n/a	n/a	n/a	n/a	n/a	n/a	n/a
2621.754	n/a	PROB	1310877	n/a	LTP293	ltpFR	11	n/a	n/a	n/a	n/a	n/a	n/a	13	3	2	8	n/a	n/a	n/a	n/a	n/a
2623.086	n/a	PROB	1311543	n/a	LTP293	ltpFR	11	n/a	n/a	n/a	n/a	n/a	n/a	23	6	8	9	n/a	n/a	n/a	n/a	n/a
2624.548	n/a	PROB	1312274	n/a	LTP293	ltpFR	11	n/a	n/a	n/a	n/a	n/a	n/a	7	1	4	2	n/a	n/a	n/a	n/a	n/a
2626.116	n/a	PROB	1313058	n/a	LTP293	ltpFR	11	n/a	n/a	n/a	n/a	n/a	n/a	14	5	1	8	n/a	n/a	n/a	n/a	n/a
2627.472	n/a	STOP	1313736	n/a	LTP293	ltpFR	11	n/a	n/a	n/a	n/a	n/a	n/a	n/a	n/a	n/a	n/a	n/a	n/a	n/a	n/a	n/a
2629.7	n/a	WORD	1314850	wordpools/wasnorm_wordpool_less_exclusions.txt	LTP293	ltpFR	11	8	1	WART	1590	n/a	0	n/a	0	0	0	1	0.412841796875	0.57763671875	upper	../fonts/amplitud.ttf
2632.712	n/a	START	1316356	n/a	LTP293	ltpFR	11	n/a	n/a	n/a	n/a	n/a	n/a	n/a	n/a	n/a	n/a	n/a	n/a	n/a	n/a	n/a
2633.834	n/a	PROB	1316917	n/a	LTP293	ltpFR	11	n/a	n/a	n/a	n/a	n/a	n/a	14	4	5	5	n/a	n/a	n/a	n/a	n/a
2635.516	n/a	PROB	1317758	n/a	LTP293	ltpFR	11	n/a	n/a	n/a	n/a	n/a	n/a	17	9	2	6	n/a	n/a	n/a	n/a	n/a
2637.48	n/a	PROB	1318740	n/a	LTP293	ltpFR	11	n/a	n/a	n/a	n/a	n/a	n/a	16	6	8	2	n/a	n/a	n/a	n/a	n/a
2639.344	n/a	STOP	1319672	n/a	LTP293	ltpFR	11	n/a	n/a	n/a	n/a	n/a	n/a	n/a	n/a	n/a	n/a	n/a	n/a	n/a	n/a	n/a
2641.578	n/a	WORD	1320789	wordpools/wasnorm_wordpool_less_exclusions.txt	LTP293	ltpFR	11	8	1	LIBRARY	816	n/a	0	n/a	0	0	0	1	0.412841796875	0.57763671875	upper	../fonts/amplitud.ttf
2644.592	n/a	START	1322296	n/a	LTP293	ltpFR	11	n/a	n/a	n/a	n/a	n/a	n/a	n/a	n/a	n/a	n/a	n/a	n/a	n/a	n/a	n/a
2645.644	n/a	PROB	1322822	n/a	LTP293	ltpFR	11	n/a	n/a	n/a	n/a	n/a	n/a	16	6	9	1	n/a	n/a	n/a	n/a	n/a
2647.046	n/a	PROB	1323523	n/a	LTP293	ltpFR	11	n/a	n/a	n/a	n/a	n/a	n/a	19	6	5	8	n/a	n/a	n/a	n/a	n/a
2649.326	n/a	PROB	1324663	n/a	LTP293	ltpFR	11	n/a	n/a	n/a	n/a	n/a	n/a	18	4	8	6	n/a	n/a	n/a	n/a	n/a
2650.642	n/a	PROB	1325321	n/a	LTP293	ltpFR	11	n/a	n/a	n/a	n/a	n/a	n/a	19	6	9	4	n/a	n/a	n/a	n/a	n/a
2652.006	n/a	STOP	1326003	n/a	LTP293	ltpFR	11	n/a	n/a	n/a	n/a	n/a	n/a	n/a	n/a	n/a	n/a	n/a	n/a	n/a	n/a	n/a
2653.592	n/a	WORD	1326796	wordpools/wasnorm_wordpool_less_exclusions.txt	LTP293	ltpFR	11	8	0	WORKER	1621	n/a	1	n/a	0	0	0	0	0.5869140625	0.422607421875	lower	../fonts/zerothre.ttf
2656.604	n/a	START	1328302	n/a	LTP293	ltpFR	11	n/a	n/a	n/a	n/a	n/a	n/a	n/a	n/a	n/a	n/a	n/a	n/a	n/a	n/a	n/a
2657.758	n/a	PROB	1328879	n/a	LTP293	ltpFR	11	n/a	n/a	n/a	n/a	n/a	n/a	12	4	5	3	n/a	n/a	n/a	n/a	n/a
2660.484	n/a	PROB	1330242	n/a	LTP293	ltpFR	11	n/a	n/a	n/a	n/a	n/a	n/a	12	4	2	6	n/a	n/a	n/a	n/a	n/a
2661.738	n/a	PROB	1330869	n/a	LTP293	ltpFR	11	n/a	n/a	n/a	n/a	n/a	n/a	14	3	6	5	n/a	n/a	n/a	n/a	n/a
2663.826	n/a	STOP	1331913	n/a	LTP293	ltpFR	11	n/a	n/a	n/a	n/a	n/a	n/a	n/a	n/a	n/a	n/a	n/a	n/a	n/a	n/a	n/a
2665.504	n/a	WORD	1332752	wordpools/wasnorm_wordpool_less_exclusions.txt	LTP293	ltpFR	11	8	0	CRYSTAL	418	n/a	0	n/a	0	0	0	0	0.5869140625	0.422607421875	lower	../fonts/zerothre.ttf
2668.516	n/a	START	1334258	n/a	LTP293	ltpFR	11	n/a	n/a	n/a	n/a	n/a	n/a	n/a	n/a	n/a	n/a	n/a	n/a	n/a	n/a	n/a
2669.602	n/a	PROB	1334801	n/a	LTP293	ltpFR	11	n/a	n/a	n/a	n/a	n/a	n/a	15	7	4	4	n/a	n/a	n/a	n/a	n/a
2671.004	n/a	PROB	1335502	n/a	LTP293	ltpFR	11	n/a	n/a	n/a	n/a	n/a	n/a	21	5	7	9	n/a	n/a	n/a	n/a	n/a
2672.414	n/a	PROB	1336207	n/a	LTP293	ltpFR	11	n/a	n/a	n/a	n/a	n/a	n/a	15	3	6	6	n/a	n/a	n/a	n/a	n/a
2674.17	n/a	PROB	1337085	n/a	LTP293	ltpFR	11	n/a	n/a	n/a	n/a	n/a	n/a	7	2	4	1	n/a	n/a	n/a	n/a	n/a
2675.442	n/a	STOP	1337721	n/a	LTP293	ltpFR	11	n/a	n/a	n/a	n/a	n/a	n/a	n/a	n/a	n/a	n/a	n/a	n/a	n/a	n/a	n/a
2677.694	n/a	WORD	1338847	wordpools/wasnorm_wordpool_less_exclusions.txt	LTP293	ltpFR	11	8	0	SAPPHIRE	1234	n/a	1	n/a	0	0	0	0	0.5869140625	0.422607421875	lower	../fonts/zerothre.ttf
2680.712	n/a	START	1340356	n/a	LTP293	ltpFR	11	n/a	n/a	n/a	n/a	n/a	n/a	n/a	n/a	n/a	n/a	n/a	n/a	n/a	n/a	n/a
2681.532	n/a	PROB	1340766	n/a	LTP293	ltpFR	11	n/a	n/a	n/a	n/a	n/a	n/a	21	8	6	7	n/a	n/a	n/a	n/a	n/a
2684.36	n/a	PROB	1342180	n/a	LTP293	ltpFR	11	n/a	n/a	n/a	n/a	n/a	n/a	17	6	8	3	n/a	n/a	n/a	n/a	n/a
2686.228	n/a	PROB	1343114	n/a	LTP293	ltpFR	11	n/a	n/a	n/a	n/a	n/a	n/a	19	7	7	5	n/a	n/a	n/a	n/a	n/a
2687.656	n/a	STOP	1343828	n/a	LTP293	ltpFR	11	n/a	n/a	n/a	n/a	n/a	n/a	n/a	n/a	n/a	n/a	n/a	n/a	n/a	n/a	n/a
2689.596	n/a	WORD	1344798	wordpools/wasnorm_wordpool_less_exclusions.txt	LTP293	ltpFR	11	8	0	FROG	608	n/a	0	n/a	0	0	0	0	0.5869140625	0.422607421875	lower	../fonts/zerothre.ttf
2692.608	n/a	START	1346304	n/a	LTP293	ltpFR	11	n/a	n/a	n/a	n/a	n/a	n/a	n/a	n/a	n/a	n/a	n/a	n/a	n/a	n/a	n/a
2693.444	n/a	PROB	1346722	n/a	LTP293	ltpFR	11	n/a	n/a	n/a	n/a	n/a	n/a	15	3	8	4	n/a	n/a	n/a	n/a	n/a
2694.816	n/a	PROB	1347408	n/a	LTP293	ltpFR	11	n/a	n/a	n/a	n/a	n/a	n/a	17	8	6	3	n/a	n/a	n/a	n/a	n/a
2697.092	n/a	PROB	1348546	n/a	LTP293	ltpFR	11	n/a	n/a	n/a	n/a	n/a	n/a	11	2	2	7	n/a	n/a	n/a	n/a	n/a
2698.892	n/a	PROB	1349446	n/a	LTP293	ltpFR	11	n/a	n/a	n/a	n/a	n/a	n/a	18	7	6	5	n/a	n/a	n/a	n/a	n/a
2700.546	n/a	STOP	1350273	n/a	LTP293	ltpFR	11	n/a	n/a	n/a	n/a	n/a	n/a	n/a	n/a	n/a	n/a	n/a	n/a	n/a	n/a	n/a
2701.508	n/a	WORD	1350754	wordpools/wasnorm_wordpool_less_exclusions.txt	LTP293	ltpFR	11	8	1	SNAIL	1332	n/a	1	n/a	0	0	0	1	0.412841796875	0.57763671875	upper	../fonts/amplitud.ttf
2704.52	n/a	START	1352260	n/a	LTP293	ltpFR	11	n/a	n/a	n/a	n/a	n/a	n/a	n/a	n/a	n/a	n/a	n/a	n/a	n/a	n/a	n/a
2705.658	n/a	PROB	1352829	n/a	LTP293	ltpFR	11	n/a	n/a	n/a	n/a	n/a	n/a	25	8	9	8	n/a	n/a	n/a	n/a	n/a
2707.614	n/a	PROB	1353807	n/a	LTP293	ltpFR	11	n/a	n/a	n/a	n/a	n/a	n/a	18	1	8	9	n/a	n/a	n/a	n/a	n/a
2708.82	n/a	PROB	1354410	n/a	LTP293	ltpFR	11	n/a	n/a	n/a	n/a	n/a	n/a	16	2	7	7	n/a	n/a	n/a	n/a	n/a
2712.52	n/a	STOP	1356260	n/a	LTP293	ltpFR	11	n/a	n/a	n/a	n/a	n/a	n/a	n/a	n/a	n/a	n/a	n/a	n/a	n/a	n/a	n/a
2713.504	n/a	WORD	1356752	wordpools/wasnorm_wordpool_less_exclusions.txt	LTP293	ltpFR	11	8	1	SLUG	1329	n/a	1	n/a	0	0	0	1	0.412841796875	0.57763671875	upper	../fonts/amplitud.ttf
2716.516	n/a	START	1358258	n/a	LTP293	ltpFR	11	n/a	n/a	n/a	n/a	n/a	n/a	n/a	n/a	n/a	n/a	n/a	n/a	n/a	n/a	n/a
2717.614	n/a	PROB	1358807	n/a	LTP293	ltpFR	11	n/a	n/a	n/a	n/a	n/a	n/a	20	5	6	9	n/a	n/a	n/a	n/a	n/a
2719.126	n/a	PROB	1359563	n/a	LTP293	ltpFR	11	n/a	n/a	n/a	n/a	n/a	n/a	16	7	7	2	n/a	n/a	n/a	n/a	n/a
2720.816	n/a	PROB	1360408	n/a	LTP293	ltpFR	11	n/a	n/a	n/a	n/a	n/a	n/a	19	9	5	5	n/a	n/a	n/a	n/a	n/a
2722.07	n/a	PROB	1361035	n/a	LTP293	ltpFR	11	n/a	n/a	n/a	n/a	n/a	n/a	19	7	4	8	n/a	n/a	n/a	n/a	n/a
2724.212	n/a	STOP	1362106	n/a	LTP293	ltpFR	11	n/a	n/a	n/a	n/a	n/a	n/a	n/a	n/a	n/a	n/a	n/a	n/a	n/a	n/a	n/a
2725.484	n/a	WORD	1362742	wordpools/wasnorm_wordpool_less_exclusions.txt	LTP293	ltpFR	11	8	1	STICKER	1382	n/a	0	n/a	0	0	0	1	0.412841796875	0.57763671875	upper	../fonts/amplitud.ttf
2728.494	n/a	START	1364247	n/a	LTP293	ltpFR	11	n/a	n/a	n/a	n/a	n/a	n/a	n/a	n/a	n/a	n/a	n/a	n/a	n/a	n/a	n/a
2729.36	n/a	PROB	1364680	n/a	LTP293	ltpFR	11	n/a	n/a	n/a	n/a	n/a	n/a	15	7	2	6	n/a	n/a	n/a	n/a	n/a
2731.474	n/a	PROB	1365737	n/a	LTP293	ltpFR	11	n/a	n/a	n/a	n/a	n/a	n/a	15	7	5	3	n/a	n/a	n/a	n/a	n/a
2733.28	n/a	PROB	1366640	n/a	LTP293	ltpFR	11	n/a	n/a	n/a	n/a	n/a	n/a	12	6	3	3	n/a	n/a	n/a	n/a	n/a
2736.494	n/a	STOP	1368247	n/a	LTP293	ltpFR	11	n/a	n/a	n/a	n/a	n/a	n/a	n/a	n/a	n/a	n/a	n/a	n/a	n/a	n/a	n/a
2738.384	n/a	REC_START	1369192	n/a	LTP293	ltpFR	11	8	n/a	n/a	n/a	n/a	n/a	n/a	0	0	0	n/a	n/a	n/a	n/a	n/a
2739.29	n/a	REC_WORD	1369645	wordpools/wasnorm_wordpool_less_exclusions.txt	LTP293	ltpFR	11	8	1	STICKER	1382	n/a	0	n/a	0	0	0	n/a	n/a	n/a	n/a	n/a
2740.152	n/a	REC_WORD	1370076	wordpools/wasnorm_wordpool_less_exclusions.txt	LTP293	ltpFR	11	8	0	FROG	608	n/a	0	n/a	0	0	0	n/a	n/a	n/a	n/a	n/a
2741.506	n/a	REC_WORD	1370753	wordpools/wasnorm_wordpool_less_exclusions.txt	LTP293	ltpFR	11	8	1	PORK	1108	n/a	0	n/a	0	0	0	n/a	n/a	n/a	n/a	n/a
2743.94	n/a	REC_WORD	1371970	wordpools/wasnorm_wordpool_less_exclusions.txt	LTP293	ltpFR	11	8	0	PASSENGER	1020	n/a	1	n/a	0	0	0	n/a	n/a	n/a	n/a	n/a
2745.04	n/a	REC_WORD	1372520	wordpools/wasnorm_wordpool_less_exclusions.txt	LTP293	ltpFR	11	8	1	PERSONNEL	1053	n/a	0	n/a	0	0	0	n/a	n/a	n/a	n/a	n/a
2764.062	n/a	REC_WORD	1382031	wordpools/wasnorm_wordpool_less_exclusions.txt	LTP293	ltpFR	11	8	0	FROST	609	n/a	1	n/a	0	0	0	n/a	n/a	n/a	n/a	n/a
2769.694	n/a	REC_WORD	1384847	wordpools/wasnorm_wordpool_less_exclusions.txt	LTP293	ltpFR	11	8	1	DEER	444	n/a	1	n/a	0	0	0	n/a	n/a	n/a	n/a	n/a
2774.234	n/a	REC_WORD	1387117	wordpools/wasnorm_wordpool_less_exclusions.txt	LTP293	ltpFR	11	8	0	EMPLOYER	532	n/a	1	n/a	0	0	0	n/a	n/a	n/a	n/a	n/a
2777.29	n/a	REC_WORD	1388645	wordpools/wasnorm_wordpool_less_exclusions.txt	LTP293	ltpFR	11	8	0	WORKER	1621	n/a	1	n/a	0	0	0	n/a	n/a	n/a	n/a	n/a
2848.27	n/a	WORD	1424135	wordpools/wasnorm_wordpool_less_exclusions.txt	LTP293	ltpFR	11	9	0	TURTLE	1522	n/a	1	n/a	0	0	0	0	0.5869140625	0.422607421875	lower	../fonts/zerothre.ttf
2852.318	n/a	WORD	1426159	wordpools/wasnorm_wordpool_less_exclusions.txt	LTP293	ltpFR	11	9	0	STREET	1393	n/a	1	n/a	0	0	0	0	0.5869140625	0.422607421875	lower	../fonts/zerothre.ttf
2856.35	n/a	WORD	1428175	wordpools/wasnorm_wordpool_less_exclusions.txt	LTP293	ltpFR	11	9	1	RUM	1217	n/a	0	n/a	0	0	0	1	0.412841796875	0.57763671875	upper	../fonts/amplitud.ttf
2860.516	n/a	WORD	1430258	wordpools/wasnorm_wordpool_less_exclusions.txt	LTP293	ltpFR	11	9	1	TERMITE	1451	n/a	1	n/a	0	0	0	1	0.412841796875	0.57763671875	upper	../fonts/amplitud.ttf
2864.398	n/a	WORD	1432199	wordpools/wasnorm_wordpool_less_exclusions.txt	LTP293	ltpFR	11	9	1	RAKE	1164	n/a	1	n/a	0	0	0	1	0.412841796875	0.57763671875	upper	../fonts/amplitud.ttf
2868.496	n/a	WORD	1434248	wordpools/wasnorm_wordpool_less_exclusions.txt	LTP293	ltpFR	11	9	1	RABBIT	1152	n/a	1	n/a	0	0	0	1	0.412841796875	0.57763671875	upper	../fonts/amplitud.ttf
2872.696	n/a	WORD	1436348	wordpools/wasnorm_wordpool_less_exclusions.txt	LTP293	ltpFR	11	9	1	FATHER	554	n/a	1	n/a	0	0	0	1	0.412841796875	0.57763671875	upper	../fonts/amplitud.ttf
2876.908	n/a	WORD	1438454	wordpools/wasnorm_wordpool_less_exclusions.txt	LTP293	ltpFR	11	9	1	BUCKLE	185	n/a	0	n/a	0	0	0	1	0.412841796875	0.57763671875	upper	../fonts/amplitud.ttf
2880.754	n/a	WORD	1440377	wordpools/wasnorm_wordpool_less_exclusions.txt	LTP293	ltpFR	11	9	0	LOOP	844	n/a	1	n/a	0	0	0	0	0.5869140625	0.422607421875	lower	../fonts/zerothre.ttf
2884.86	n/a	WORD	1442430	wordpools/wasnorm_wordpool_less_exclusions.txt	LTP293	ltpFR	11	9	0	AUTHOR	61	n/a	1	n/a	0	0	0	0	0.5869140625	0.422607421875	lower	../fonts/zerothre.ttf
2888.842	n/a	WORD	1444421	wordpools/wasnorm_wordpool_less_exclusions.txt	LTP293	ltpFR	11	9	0	LITERATURE	831	n/a	1	n/a	0	0	0	0	0.5869140625	0.422607421875	lower	../fonts/zerothre.ttf
2892.99	n/a	WORD	1446495	wordpools/wasnorm_wordpool_less_exclusions.txt	LTP293	ltpFR	11	9	0	PATROL	1027	n/a	1	n/a	0	0	0	0	0.5869140625	0.422607421875	lower	../fonts/zerothre.ttf
2896.866	n/a	WORD	1448433	wordpools/wasnorm_wordpool_less_exclusions.txt	LTP293	ltpFR	11	9	1	BRAKE	166	n/a	0	n/a	0	0	0	1	0.412841796875	0.57763671875	upper	../fonts/amplitud.ttf
2900.752	n/a	WORD	1450376	wordpools/wasnorm_wordpool_less_exclusions.txt	LTP293	ltpFR	11	9	1	DOLPHIN	483	n/a	1	n/a	0	0	0	1	0.412841796875	0.57763671875	upper	../fonts/amplitud.ttf
2904.902	n/a	WORD	1452451	wordpools/wasnorm_wordpool_less_exclusions.txt	LTP293	ltpFR	11	9	0	PARENT	1013	n/a	1	n/a	0	0	0	0	0.5869140625	0.422607421875	lower	../fonts/zerothre.ttf
2908.744	n/a	WORD	1454372	wordpools/wasnorm_wordpool_less_exclusions.txt	LTP293	ltpFR	11	9	0	SAW	1239	n/a	1	n/a	0	0	0	0	0.5869140625	0.422607421875	lower	../fonts/zerothre.ttf
2914.518	n/a	REC_START	1457259	n/a	LTP293	ltpFR	11	9	n/a	n/a	n/a	n/a	n/a	n/a	0	0	0	n/a	n/a	n/a	n/a	n/a
2915.288	n/a	REC_WORD	1457644	wordpools/wasnorm_wordpool_less_exclusions.txt	LTP293	ltpFR	11	9	0	PARENT	1013	n/a	1	n/a	0	0	0	n/a	n/a	n/a	n/a	n/a
2916.0	n/a	REC_WORD	1458000	wordpools/wasnorm_wordpool_less_exclusions.txt	LTP293	ltpFR	11	9	0	SAW	1239	n/a	1	n/a	0	0	0	n/a	n/a	n/a	n/a	n/a
2917.298	n/a	REC_WORD	1458649	wordpools/wasnorm_wordpool_less_exclusions.txt	LTP293	ltpFR	11	9	1	RABBIT	1152	n/a	1	n/a	0	0	0	n/a	n/a	n/a	n/a	n/a
2918.176	n/a	REC_WORD	1459088	wordpools/wasnorm_wordpool_less_exclusions.txt	LTP293	ltpFR	11	9	0	TURTLE	1522	n/a	1	n/a	0	0	0	n/a	n/a	n/a	n/a	n/a
2919.388	n/a	REC_WORD	1459694	wordpools/wasnorm_wordpool_less_exclusions.txt	LTP293	ltpFR	11	9	1	DOLPHIN	483	n/a	1	n/a	0	0	0	n/a	n/a	n/a	n/a	n/a
2921.846	n/a	REC_WORD	1460923	wordpools/wasnorm_wordpool_less_exclusions.txt	LTP293	ltpFR	11	9	1	BRAKE	166	n/a	0	n/a	0	0	0	n/a	n/a	n/a	n/a	n/a
2923.858	n/a	REC_WORD	1461929	wordpools/wasnorm_wordpool_less_exclusions.txt	LTP293	ltpFR	11	9	0	LOOP	844	n/a	1	n/a	0	0	0	n/a	n/a	n/a	n/a	n/a
2928.308	n/a	REC_WORD	1464154	wordpools/wasnorm_wordpool_less_exclusions.txt	LTP293	ltpFR	11	9	1	RUM	1217	n/a	0	n/a	0	0	0	n/a	n/a	n/a	n/a	n/a
2932.046	n/a	REC_WORD	1466023	wordpools/wasnorm_wordpool_less_exclusions.txt	LTP293	ltpFR	11	9	1	FATHER	554	n/a	1	n/a	0	0	0	n/a	n/a	n/a	n/a	n/a
2939.912	n/a	REC_WORD	1469956	wordpools/wasnorm_wordpool_less_exclusions.txt	LTP293	ltpFR	11	9	0	SAW	1239	n/a	1	n/a	0	0	0	n/a	n/a	n/a	n/a	n/a
2948.25	n/a	REC_WORD	1474125	wordpools/wasnorm_wordpool_less_exclusions.txt	LTP293	ltpFR	11	9	0	STREET	1393	n/a	1	n/a	0	0	0	n/a	n/a	n/a	n/a	n/a
3016.396	n/a	WORD	1508198	wordpools/wasnorm_wordpool_less_exclusions.txt	LTP293	ltpFR	11	10	1	MOLECULE	905	n/a	0	n/a	0	0	0	1	0.412841796875	0.57763671875	upper	../fonts/amplitud.ttf
3020.462	n/a	WORD	1510231	wordpools/wasnorm_wordpool_less_exclusions.txt	LTP293	ltpFR	11	10	1	CHEMIST	292	n/a	1	n/a	0	0	0	1	0.412841796875	0.57763671875	upper	../fonts/amplitud.ttf
3024.488	n/a	WORD	1512244	wordpools/wasnorm_wordpool_less_exclusions.txt	LTP293	ltpFR	11	10	1	TAXI	1438	n/a	1	n/a	0	0	0	1	0.412841796875	0.57763671875	upper	../fonts/amplitud.ttf
3028.558	n/a	WORD	1514279	wordpools/wasnorm_wordpool_less_exclusions.txt	LTP293	ltpFR	11	10	1	GAZELLE	628	n/a	1	n/a	0	0	0	1	0.412841796875	0.57763671875	upper	../fonts/amplitud.ttf
3032.584	n/a	WORD	1516292	wordpools/wasnorm_wordpool_less_exclusions.txt	LTP293	ltpFR	11	10	1	RATTLE	1170	n/a	0	n/a	0	0	0	1	0.412841796875	0.57763671875	upper	../fonts/amplitud.ttf
3036.456	n/a	WORD	1518228	wordpools/wasnorm_wordpool_less_exclusions.txt	LTP293	ltpFR	11	10	1	MEDAL	885	n/a	0	n/a	0	0	0	1	0.412841796875	0.57763671875	upper	../fonts/amplitud.ttf
3040.554	n/a	WORD	1520277	wordpools/wasnorm_wordpool_less_exclusions.txt	LTP293	ltpFR	11	10	1	RACCOON	1153	n/a	1	n/a	0	0	0	1	0.412841796875	0.57763671875	upper	../fonts/amplitud.ttf
3044.586	n/a	WORD	1522293	wordpools/wasnorm_wordpool_less_exclusions.txt	LTP293	ltpFR	11	10	1	MACARONI	851	n/a	0	n/a	0	0	0	1	0.412841796875	0.57763671875	upper	../fonts/amplitud.ttf
3048.434	n/a	WORD	1524217	wordpools/wasnorm_wordpool_less_exclusions.txt	LTP293	ltpFR	11	10	1	JEWEL	757	n/a	0	n/a	0	0	0	1	0.412841796875	0.57763671875	upper	../fonts/amplitud.ttf
3052.36	n/a	WORD	1526180	wordpools/wasnorm_wordpool_less_exclusions.txt	LTP293	ltpFR	11	10	1	DEPARTMENT	449	n/a	0	n/a	0	0	0	1	0.412841796875	0.57763671875	upper	../fonts/amplitud.ttf
3056.33	n/a	WORD	1528165	wordpools/wasnorm_wordpool_less_exclusions.txt	LTP293	ltpFR	11	10	1	MARKET	871	n/a	1	n/a	0	0	0	1	0.412841796875	0.57763671875	upper	../fonts/amplitud.ttf
3060.546	n/a	WORD	1530273	wordpools/wasnorm_wordpool_less_exclusions.txt	LTP293	ltpFR	11	10	1	PATRIOT	1026	n/a	1	n/a	0	0	0	1	0.412841796875	0.57763671875	upper	../fonts/amplitud.ttf
3064.606	n/a	WORD	1532303	wordpools/wasnorm_wordpool_less_exclusions.txt	LTP293	ltpFR	11	10	1	FISH	571	n/a	1	n/a	0	0	0	1	0.412841796875	0.57763671875	upper	../fonts/amplitud.ttf
3068.456	n/a	WORD	1534228	wordpools/wasnorm_wordpool_less_exclusions.txt	LTP293	ltpFR	11	10	1	CAB	209	n/a	0	n/a	0	0	0	1	0.412841796875	0.57763671875	upper	../fonts/amplitud.ttf
3072.592	n/a	WORD	1536296	wordpools/wasnorm_wordpool_less_exclusions.txt	LTP293	ltpFR	11	10	1	ERASER	538	n/a	0	n/a	0	0	0	1	0.412841796875	0.57763671875	upper	../fonts/amplitud.ttf
3076.524	n/a	WORD	1538262	wordpools/wasnorm_wordpool_less_exclusions.txt	LTP293	ltpFR	11	10	1	DUST	508	n/a	0	n/a	0	0	0	1	0.412841796875	0.57763671875	upper	../fonts/amplitud.ttf
3079.536	n/a	START	1539768	n/a	LTP293	ltpFR	11	n/a	n/a	n/a	n/a	n/a	n/a	n/a	n/a	n/a	n/a	n/a	n/a	n/a	n/a	n/a
3080.524	n/a	PROB	1540262	n/a	LTP293	ltpFR	11	n/a	n/a	n/a	n/a	n/a	n/a	24	8	6	8	n/a	n/a	n/a	n/a	n/a
3082.664	n/a	PROB	1541332	n/a	LTP293	ltpFR	11	n/a	n/a	n/a	n/a	n/a	n/a	9	1	4	4	n/a	n/a	n/a	n/a	n/a
3083.848	n/a	PROB	1541924	n/a	LTP293	ltpFR	11	n/a	n/a	n/a	n/a	n/a	n/a	12	1	5	6	n/a	n/a	n/a	n/a	n/a
3084.968	n/a	PROB	1542484	n/a	LTP293	ltpFR	11	n/a	n/a	n/a	n/a	n/a	n/a	18	6	6	6	n/a	n/a	n/a	n/a	n/a
3086.196	n/a	PROB	1543098	n/a	LTP293	ltpFR	11	n/a	n/a	n/a	n/a	n/a	n/a	8	3	1	4	n/a	n/a	n/a	n/a	n/a
3087.384	n/a	PROB	1543692	n/a	LTP293	ltpFR	11	n/a	n/a	n/a	n/a	n/a	n/a	13	5	4	4	n/a	n/a	n/a	n/a	n/a
3088.838	n/a	PROB	1544419	n/a	LTP293	ltpFR	11	n/a	n/a	n/a	n/a	n/a	n/a	18	8	1	9	n/a	n/a	n/a	n/a	n/a
3090.222	n/a	PROB	1545111	n/a	LTP293	ltpFR	11	n/a	n/a	n/a	n/a	n/a	n/a	17	6	7	4	n/a	n/a	n/a	n/a	n/a
3092.314	n/a	PROB	1546157	n/a	LTP293	ltpFR	11	n/a	n/a	n/a	n/a	n/a	n/a	16	2	6	8	n/a	n/a	n/a	n/a	n/a
3093.384	n/a	PROB	1546692	n/a	LTP293	ltpFR	11	n/a	n/a	n/a	n/a	n/a	n/a	7	4	2	1	n/a	n/a	n/a	n/a	n/a
3094.784	n/a	STOP	1547392	n/a	LTP293	ltpFR	11	n/a	n/a	n/a	n/a	n/a	n/a	n/a	n/a	n/a	n/a	n/a	n/a	n/a	n/a	n/a
3097.4	n/a	REC_START	1548700	n/a	LTP293	ltpFR	11	10	n/a	n/a	n/a	n/a	n/a	n/a	0	0	0	n/a	n/a	n/a	n/a	n/a
3098.008	n/a	REC_WORD	1549004	wordpools/wasnorm_wordpool_less_exclusions.txt	LTP293	ltpFR	11	10	1	MOLECULE	905	n/a	0	n/a	0	0	0	n/a	n/a	n/a	n/a	n/a
3098.95	n/a	REC_WORD	1549475	wordpools/wasnorm_wordpool_less_exclusions.txt	LTP293	ltpFR	11	10	1	CHEMIST	292	n/a	1	n/a	0	0	0	n/a	n/a	n/a	n/a	n/a
3100.764	n/a	REC_WORD	1550382	wordpools/wasnorm_wordpool_less_exclusions.txt	LTP293	ltpFR	11	10	1	TAXI	1438	n/a	1	n/a	0	0	0	n/a	n/a	n/a	n/a	n/a
3101.898	n/a	REC_WORD	1550949	wordpools/wasnorm_wordpool_less_exclusions.txt	LTP293	ltpFR	11	10	1	CAB	209	n/a	0	n/a	0	0	0	n/a	n/a	n/a	n/a	n/a
3103.898	n/a	REC_WORD	1551949	wordpools/wasnorm_wordpool_less_exclusions.txt	LTP293	ltpFR	11	10	1	ERASER	538	n/a	0	n/a	0	0	0	n/a	n/a	n/a	n/a	n/a
3105.364	n/a	REC_WORD	1552682	wordpools/wasnorm_wordpool_less_exclusions.txt	LTP293	ltpFR	11	10	1	FISH	571	n/a	1	n/a	0	0	0	n/a	n/a	n/a	n/a	n/a
3107.13	n/a	REC_WORD	1553565	wordpools/wasnorm_wordpool_less_exclusions.txt	LTP293	ltpFR	11	10	1	GAZELLE	628	n/a	1	n/a	0	0	0	n/a	n/a	n/a	n/a	n/a
3109.522	n/a	REC_WORD	1554761	wordpools/wasnorm_wordpool_less_exclusions.txt	LTP293	ltpFR	11	10	1	DEPARTMENT	449	n/a	0	n/a	0	0	0	n/a	n/a	n/a	n/a	n/a
3116.868	n/a	REC_WORD	1558434	wordpools/wasnorm_wordpool_less_exclusions.txt	LTP293	ltpFR	11	10	1	MARKET	871	n/a	1	n/a	0	0	0	n/a	n/a	n/a	n/a	n/a
3199.244	n/a	WORD	1599622	wordpools/wasnorm_wordpool_less_exclusions.txt	LTP293	ltpFR	11	11	1	ACORN	3	n/a	1	n/a	0	0	0	1	0.412841796875	0.57763671875	upper	../fonts/amplitud.ttf
3203.422	n/a	WORD	1601711	wordpools/wasnorm_wordpool_less_exclusions.txt	LTP293	ltpFR	11	11	1	MARGARINE	868	n/a	0	n/a	0	0	0	1	0.412841796875	0.57763671875	upper	../fonts/amplitud.ttf
3207.574	n/a	WORD	1603787	wordpools/wasnorm_wordpool_less_exclusions.txt	LTP293	ltpFR	11	11	0	SUIT	1402	n/a	1	n/a	0	0	0	0	0.5869140625	0.422607421875	lower	../fonts/zerothre.ttf
3211.474	n/a	WORD	1605737	wordpools/wasnorm_wordpool_less_exclusions.txt	LTP293	ltpFR	11	11	0	GIFT	635	n/a	1	n/a	0	0	0	0	0.5869140625	0.422607421875	lower	../fonts/zerothre.ttf
3215.422	n/a	WORD	1607711	wordpools/wasnorm_wordpool_less_exclusions.txt	LTP293	ltpFR	11	11	0	SUPPER	1411	n/a	1	n/a	0	0	0	0	0.5869140625	0.422607421875	lower	../fonts/zerothre.ttf
3219.27	n/a	WORD	1609635	wordpools/wasnorm_wordpool_less_exclusions.txt	LTP293	ltpFR	11	11	0	OATMEAL	967	n/a	0	n/a	0	0	0	0	0.5869140625	0.422607421875	lower	../fonts/zerothre.ttf
3223.498	n/a	WORD	1611749	wordpools/wasnorm_wordpool_less_exclusions.txt	LTP293	ltpFR	11	11	1	VAULT	1550	n/a	0	n/a	0	0	0	1	0.412841796875	0.57763671875	upper	../fonts/amplitud.ttf
3227.384	n/a	WORD	1613692	wordpools/wasnorm_wordpool_less_exclusions.txt	LTP293	ltpFR	11	11	1	PICTURE	1061	n/a	0	n/a	0	0	0	1	0.412841796875	0.57763671875	upper	../fonts/amplitud.ttf
3231.284	n/a	WORD	1615642	wordpools/wasnorm_wordpool_less_exclusions.txt	LTP293	ltpFR	11	11	1	ARCHITECT	36	n/a	1	n/a	0	0	0	1	0.412841796875	0.57763671875	upper	../fonts/amplitud.ttf
3235.176	n/a	WORD	1617588	wordpools/wasnorm_wordpool_less_exclusions.txt	LTP293	ltpFR	11	11	1	SECRETARY	1265	n/a	1	n/a	0	0	0	1	0.412841796875	0.57763671875	upper	../fonts/amplitud.ttf
3239.33	n/a	WORD	1619665	wordpools/wasnorm_wordpool_less_exclusions.txt	LTP293	ltpFR	11	11	1	WALRUS	1585	n/a	1	n/a	0	0	0	1	0.412841796875	0.57763671875	upper	../fonts/amplitud.ttf
3243.162	n/a	WORD	1621581	wordpools/wasnorm_wordpool_less_exclusions.txt	LTP293	ltpFR	11	11	1	NIGHTGOWN	953	n/a	0	n/a	0	0	0	1	0.412841796875	0.57763671875	upper	../fonts/amplitud.ttf
3247.022	n/a	WORD	1623511	wordpools/wasnorm_wordpool_less_exclusions.txt	LTP293	ltpFR	11	11	0	WALLET	1583	n/a	0	n/a	0	0	0	0	0.5869140625	0.422607421875	lower	../fonts/zerothre.ttf
3251.11	n/a	WORD	1625555	wordpools/wasnorm_wordpool_less_exclusions.txt	LTP293	ltpFR	11	11	0	ROOST	1208	n/a	1	n/a	0	0	0	0	0.5869140625	0.422607421875	lower	../fonts/zerothre.ttf
3255.27	n/a	WORD	1627635	wordpools/wasnorm_wordpool_less_exclusions.txt	LTP293	ltpFR	11	11	0	HEN	703	n/a	1	n/a	0	0	0	0	0.5869140625	0.422607421875	lower	../fonts/zerothre.ttf
3259.352	n/a	WORD	1629676	wordpools/wasnorm_wordpool_less_exclusions.txt	LTP293	ltpFR	11	11	0	ARTIST	43	n/a	1	n/a	0	0	0	0	0.5869140625	0.422607421875	lower	../fonts/zerothre.ttf
3262.368	n/a	START	1631184	n/a	LTP293	ltpFR	11	n/a	n/a	n/a	n/a	n/a	n/a	n/a	n/a	n/a	n/a	n/a	n/a	n/a	n/a	n/a
3263.506	n/a	PROB	1631753	n/a	LTP293	ltpFR	11	n/a	n/a	n/a	n/a	n/a	n/a	8	3	2	3	n/a	n/a	n/a	n/a	n/a
3265.414	n/a	PROB	1632707	n/a	LTP293	ltpFR	11	n/a	n/a	n/a	n/a	n/a	n/a	20	3	9	8	n/a	n/a	n/a	n/a	n/a
3267.088	n/a	PROB	1633544	n/a	LTP293	ltpFR	11	n/a	n/a	n/a	n/a	n/a	n/a	4	1	2	1	n/a	n/a	n/a	n/a	n/a
3268.454	n/a	PROB	1634227	n/a	LTP293	ltpFR	11	n/a	n/a	n/a	n/a	n/a	n/a	22	8	7	6	n/a	n/a	n/a	n/a	n/a
3270.218	n/a	STOP	1635109	n/a	LTP293	ltpFR	11	n/a	n/a	n/a	n/a	n/a	n/a	n/a	n/a	n/a	n/a	n/a	n/a	n/a	n/a	n/a
3272.24	n/a	REC_START	1636120	n/a	LTP293	ltpFR	11	11	n/a	n/a	n/a	n/a	n/a	n/a	0	0	0	n/a	n/a	n/a	n/a	n/a
3273.82	n/a	REC_WORD	1636910	wordpools/wasnorm_wordpool_less_exclusions.txt	LTP293	ltpFR	11	11	0	ARTIST	43	n/a	1	n/a	0	0	0	n/a	n/a	n/a	n/a	n/a
3275.554	n/a	REC_WORD	1637777	wordpools/wasnorm_wordpool_less_exclusions.txt	LTP293	ltpFR	11	11	n/a	GUARD	667	n/a	n/a	n/a	0	0	0	n/a	n/a	n/a	n/a	n/a
3276.948	n/a	REC_WORD	1638474	wordpools/wasnorm_wordpool_less_exclusions.txt	LTP293	ltpFR	11	11	0	GIFT	635	n/a	1	n/a	0	0	0	n/a	n/a	n/a	n/a	n/a
3283.116	n/a	REC_WORD	1641558	wordpools/wasnorm_wordpool_less_exclusions.txt	LTP293	ltpFR	11	11	0	SUIT	1402	n/a	1	n/a	0	0	0	n/a	n/a	n/a	n/a	n/a
3296.07	n/a	REC_WORD	1648035	wordpools/wasnorm_wordpool_less_exclusions.txt	LTP293	ltpFR	11	11	0	SUPPER	1411	n/a	1	n/a	0	0	0	n/a	n/a	n/a	n/a	n/a
3326.57	n/a	REC_WORD	1663285	wordpools/wasnorm_wordpool_less_exclusions.txt	LTP293	ltpFR	11	11	1	ARCHITECT	36	n/a	1	n/a	0	0	0	n/a	n/a	n/a	n/a	n/a
3349.92	n/a	START	1674960	n/a	LTP293	ltpFR	11	n/a	n/a	n/a	n/a	n/a	n/a	n/a	n/a	n/a	n/a	n/a	n/a	n/a	n/a	n/a
3351.438	n/a	PROB	1675719	n/a	LTP293	ltpFR	11	n/a	n/a	n/a	n/a	n/a	n/a	23	5	9	9	n/a	n/a	n/a	n/a	n/a
3354.114	n/a	PROB	1677057	n/a	LTP293	ltpFR	11	n/a	n/a	n/a	n/a	n/a	n/a	18	4	6	8	n/a	n/a	n/a	n/a	n/a
3355.436	n/a	PROB	1677718	n/a	LTP293	ltpFR	11	n/a	n/a	n/a	n/a	n/a	n/a	14	8	4	2	n/a	n/a	n/a	n/a	n/a
3356.862	n/a	PROB	1678431	n/a	LTP293	ltpFR	11	n/a	n/a	n/a	n/a	n/a	n/a	19	9	4	6	n/a	n/a	n/a	n/a	n/a
3358.77	n/a	PROB	1679385	n/a	LTP293	ltpFR	11	n/a	n/a	n/a	n/a	n/a	n/a	23	5	9	9	n/a	n/a	n/a	n/a	n/a
3360.222	n/a	PROB	1680111	n/a	LTP293	ltpFR	11	n/a	n/a	n/a	n/a	n/a	n/a	17	9	7	1	n/a	n/a	n/a	n/a	n/a
3361.95	n/a	PROB	1680975	n/a	LTP293	ltpFR	11	n/a	n/a	n/a	n/a	n/a	n/a	14	5	6	3	n/a	n/a	n/a	n/a	n/a
3363.616	n/a	PROB	1681808	n/a	LTP293	ltpFR	11	n/a	n/a	n/a	n/a	n/a	n/a	18	7	6	5	n/a	n/a	n/a	n/a	n/a
3365.638	n/a	STOP	1682819	n/a	LTP293	ltpFR	11	n/a	n/a	n/a	n/a	n/a	n/a	n/a	n/a	n/a	n/a	n/a	n/a	n/a	n/a	n/a
3366.744	n/a	WORD	1683372	wordpools/wasnorm_wordpool_less_exclusions.txt	LTP293	ltpFR	11	12	1	LIST	830	n/a	0	n/a	0	0	0	1	0.412841796875	0.57763671875	upper	../fonts/amplitud.ttf
