mstime	trial_type	stim_file	subject	experiment	session	trial	task	item_name	item_num	recog_conf	resp	color_b	color_g	color_r	case	font
0	SESS_START	n/a	LTP212	ltpFR	1	n/a	n/a	n/a	n/a	n/a	n/a	n/a	n/a	n/a	n/a	n/a
116451	WORD	wordpools/wasnorm_wordpool_less_exclusions.txt	LTP212	ltpFR	1	1	1	CATCHER	258	n/a	1	0	0.5869140625	0.422607421875	lower	../fonts/amplitud.ttf
120363	WORD	wordpools/wasnorm_wordpool_less_exclusions.txt	LTP212	ltpFR	1	1	1	BLOUSE	139	n/a	0	0	0.5869140625	0.422607421875	lower	../fonts/amplitud.ttf
124191	WORD	wordpools/wasnorm_wordpool_less_exclusions.txt	LTP212	ltpFR	1	1	0	ZIPPER	1636	n/a	0	1	0.412841796875	0.57763671875	upper	../fonts/zerothre.ttf
128268	WORD	wordpools/wasnorm_wordpool_less_exclusions.txt	LTP212	ltpFR	1	1	0	CHARCOAL	281	n/a	0	1	0.412841796875	0.57763671875	upper	../fonts/zerothre.ttf
132362	WORD	wordpools/wasnorm_wordpool_less_exclusions.txt	LTP212	ltpFR	1	1	0	RAFT	1159	n/a	1	1	0.412841796875	0.57763671875	upper	../fonts/zerothre.ttf
136289	WORD	wordpools/wasnorm_wordpool_less_exclusions.txt	LTP212	ltpFR	1	1	0	ORCHID	982	n/a	0	1	0.412841796875	0.57763671875	upper	../fonts/zerothre.ttf
140433	WORD	wordpools/wasnorm_wordpool_less_exclusions.txt	LTP212	ltpFR	1	1	0	PISTON	1076	n/a	0	1	0.412841796875	0.57763671875	upper	../fonts/zerothre.ttf
144394	WORD	wordpools/wasnorm_wordpool_less_exclusions.txt	LTP212	ltpFR	1	1	1	PORT	1110	n/a	0	0	0.5869140625	0.422607421875	lower	../fonts/amplitud.ttf
148271	WORD	wordpools/wasnorm_wordpool_less_exclusions.txt	LTP212	ltpFR	1	1	1	PADDLE	1000	n/a	0	0	0.5869140625	0.422607421875	lower	../fonts/amplitud.ttf
152165	WORD	wordpools/wasnorm_wordpool_less_exclusions.txt	LTP212	ltpFR	1	1	1	RAM	1165	n/a	1	0	0.5869140625	0.422607421875	lower	../fonts/amplitud.ttf
156043	WORD	wordpools/wasnorm_wordpool_less_exclusions.txt	LTP212	ltpFR	1	1	1	MARINE	869	n/a	1	0	0.5869140625	0.422607421875	lower	../fonts/amplitud.ttf
160270	WORD	wordpools/wasnorm_wordpool_less_exclusions.txt	LTP212	ltpFR	1	1	1	PLUMBER	1091	n/a	1	0	0.5869140625	0.422607421875	lower	../fonts/amplitud.ttf
164364	WORD	wordpools/wasnorm_wordpool_less_exclusions.txt	LTP212	ltpFR	1	1	1	HALL	677	n/a	0	0	0.5869140625	0.422607421875	lower	../fonts/amplitud.ttf
168523	WORD	wordpools/wasnorm_wordpool_less_exclusions.txt	LTP212	ltpFR	1	1	0	TAPE	1433	n/a	0	1	0.412841796875	0.57763671875	upper	../fonts/zerothre.ttf
172617	WORD	wordpools/wasnorm_wordpool_less_exclusions.txt	LTP212	ltpFR	1	1	0	VEAL	1551	n/a	0	1	0.412841796875	0.57763671875	upper	../fonts/zerothre.ttf
176678	WORD	wordpools/wasnorm_wordpool_less_exclusions.txt	LTP212	ltpFR	1	1	0	WOLF	1619	n/a	0	1	0.412841796875	0.57763671875	upper	../fonts/zerothre.ttf
182471	REC_START	n/a	LTP212	ltpFR	1	1	n/a	n/a	n/a	n/a	n/a	n/a	n/a	n/a	n/a	n/a
183783	REC_WORD	wordpools/wasnorm_wordpool_less_exclusions.txt	LTP212	ltpFR	1	1	0	WOLF	1619	n/a	0	n/a	n/a	n/a	n/a	n/a
185050	REC_WORD	wordpools/wasnorm_wordpool_less_exclusions.txt	LTP212	ltpFR	1	1	0	PISTON	1076	n/a	0	n/a	n/a	n/a	n/a	n/a
186427	REC_WORD	wordpools/wasnorm_wordpool_less_exclusions.txt	LTP212	ltpFR	1	1	1	PLUMBER	1091	n/a	1	n/a	n/a	n/a	n/a	n/a
188058	REC_WORD	wordpools/wasnorm_wordpool_less_exclusions.txt	LTP212	ltpFR	1	1	1	CATCHER	258	n/a	1	n/a	n/a	n/a	n/a	n/a
191091	REC_WORD	wordpools/wasnorm_wordpool_less_exclusions.txt	LTP212	ltpFR	1	1	1	PADDLE	1000	n/a	0	n/a	n/a	n/a	n/a	n/a
213109	REC_WORD	wordpools/wasnorm_wordpool_less_exclusions.txt	LTP212	ltpFR	1	1	0	VEAL	1551	n/a	0	n/a	n/a	n/a	n/a	n/a
268791	WORD	wordpools/wasnorm_wordpool_less_exclusions.txt	LTP212	ltpFR	1	2	0	ORCHESTRA	981	n/a	1	1	0.412841796875	0.57763671875	upper	../fonts/zerothre.ttf
272735	WORD	wordpools/wasnorm_wordpool_less_exclusions.txt	LTP212	ltpFR	1	2	0	PRAIRIE	1118	n/a	1	1	0.412841796875	0.57763671875	upper	../fonts/zerothre.ttf
276679	WORD	wordpools/wasnorm_wordpool_less_exclusions.txt	LTP212	ltpFR	1	2	0	SHELL	1281	n/a	0	1	0.412841796875	0.57763671875	upper	../fonts/zerothre.ttf
280623	WORD	wordpools/wasnorm_wordpool_less_exclusions.txt	LTP212	ltpFR	1	2	0	SEA	1259	n/a	1	1	0.412841796875	0.57763671875	upper	../fonts/zerothre.ttf
284633	WORD	wordpools/wasnorm_wordpool_less_exclusions.txt	LTP212	ltpFR	1	2	1	CAT	257	n/a	1	0	0.5869140625	0.422607421875	lower	../fonts/amplitud.ttf
288745	WORD	wordpools/wasnorm_wordpool_less_exclusions.txt	LTP212	ltpFR	1	2	1	HARP	689	n/a	0	0	0.5869140625	0.422607421875	lower	../fonts/amplitud.ttf
292805	WORD	wordpools/wasnorm_wordpool_less_exclusions.txt	LTP212	ltpFR	1	2	1	ASTEROID	50	n/a	0	0	0.5869140625	0.422607421875	lower	../fonts/amplitud.ttf
297016	WORD	wordpools/wasnorm_wordpool_less_exclusions.txt	LTP212	ltpFR	1	2	1	ACTRESS	6	n/a	1	0	0.5869140625	0.422607421875	lower	../fonts/amplitud.ttf
300893	WORD	wordpools/wasnorm_wordpool_less_exclusions.txt	LTP212	ltpFR	1	2	1	WOMAN	1620	n/a	1	0	0.5869140625	0.422607421875	lower	../fonts/amplitud.ttf
304887	WORD	wordpools/wasnorm_wordpool_less_exclusions.txt	LTP212	ltpFR	1	2	0	MISTER	901	n/a	1	1	0.412841796875	0.57763671875	upper	../fonts/zerothre.ttf
308981	WORD	wordpools/wasnorm_wordpool_less_exclusions.txt	LTP212	ltpFR	1	2	0	STONE	1385	n/a	0	1	0.412841796875	0.57763671875	upper	../fonts/zerothre.ttf
313058	WORD	wordpools/wasnorm_wordpool_less_exclusions.txt	LTP212	ltpFR	1	2	0	TERRITORY	1452	n/a	1	1	0.412841796875	0.57763671875	upper	../fonts/zerothre.ttf
317269	WORD	wordpools/wasnorm_wordpool_less_exclusions.txt	LTP212	ltpFR	1	2	0	HEAD	695	n/a	1	1	0.412841796875	0.57763671875	upper	../fonts/zerothre.ttf
321346	WORD	wordpools/wasnorm_wordpool_less_exclusions.txt	LTP212	ltpFR	1	2	1	HEART	697	n/a	1	0	0.5869140625	0.422607421875	lower	../fonts/amplitud.ttf
325472	WORD	wordpools/wasnorm_wordpool_less_exclusions.txt	LTP212	ltpFR	1	2	1	MAGAZINE	853	n/a	0	0	0.5869140625	0.422607421875	lower	../fonts/amplitud.ttf
329516	WORD	wordpools/wasnorm_wordpool_less_exclusions.txt	LTP212	ltpFR	1	2	1	SCRIBBLE	1256	n/a	0	0	0.5869140625	0.422607421875	lower	../fonts/amplitud.ttf
335475	REC_START	n/a	LTP212	ltpFR	1	2	n/a	n/a	n/a	n/a	n/a	n/a	n/a	n/a	n/a	n/a
336263	REC_WORD	wordpools/wasnorm_wordpool_less_exclusions.txt	LTP212	ltpFR	1	2	1	HEART	697	n/a	1	n/a	n/a	n/a	n/a	n/a
337291	REC_WORD	wordpools/wasnorm_wordpool_less_exclusions.txt	LTP212	ltpFR	1	2	1	MAGAZINE	853	n/a	0	n/a	n/a	n/a	n/a	n/a
338638	REC_WORD	wordpools/wasnorm_wordpool_less_exclusions.txt	LTP212	ltpFR	1	2	1	SCRIBBLE	1256	n/a	0	n/a	n/a	n/a	n/a	n/a
340489	REC_WORD	wordpools/wasnorm_wordpool_less_exclusions.txt	LTP212	ltpFR	1	2	0	MISTER	901	n/a	1	n/a	n/a	n/a	n/a	n/a
342354	REC_WORD	wordpools/wasnorm_wordpool_less_exclusions.txt	LTP212	ltpFR	1	2	1	WOMAN	1620	n/a	1	n/a	n/a	n/a	n/a	n/a
344175	REC_WORD	wordpools/wasnorm_wordpool_less_exclusions.txt	LTP212	ltpFR	1	2	0	STONE	1385	n/a	0	n/a	n/a	n/a	n/a	n/a
346500	REC_WORD	wordpools/wasnorm_wordpool_less_exclusions.txt	LTP212	ltpFR	1	2	0	SHELL	1281	n/a	0	n/a	n/a	n/a	n/a	n/a
348595	REC_WORD	wordpools/wasnorm_wordpool_less_exclusions.txt	LTP212	ltpFR	1	2	0	SEA	1259	n/a	1	n/a	n/a	n/a	n/a	n/a
390889	REC_WORD	wordpools/wasnorm_wordpool_less_exclusions.txt	LTP212	ltpFR	1	2	1	SCRIBBLE	1256	n/a	0	n/a	n/a	n/a	n/a	n/a
398048	REC_WORD	wordpools/wasnorm_wordpool_less_exclusions.txt	LTP212	ltpFR	1	2	0	TERRITORY	1452	n/a	1	n/a	n/a	n/a	n/a	n/a
422345	WORD	wordpools/wasnorm_wordpool_less_exclusions.txt	LTP212	ltpFR	1	3	0	CHEERLEADER	288	n/a	1	1	0.412841796875	0.57763671875	upper	../fonts/zerothre.ttf
426289	WORD	wordpools/wasnorm_wordpool_less_exclusions.txt	LTP212	ltpFR	1	3	0	GOBLIN	645	n/a	1	1	0.412841796875	0.57763671875	upper	../fonts/zerothre.ttf
430466	WORD	wordpools/wasnorm_wordpool_less_exclusions.txt	LTP212	ltpFR	1	3	0	FLASHLIGHT	575	n/a	0	1	0.412841796875	0.57763671875	upper	../fonts/zerothre.ttf
434493	WORD	wordpools/wasnorm_wordpool_less_exclusions.txt	LTP212	ltpFR	1	3	0	RUM	1217	n/a	0	1	0.412841796875	0.57763671875	upper	../fonts/zerothre.ttf
438653	WORD	wordpools/wasnorm_wordpool_less_exclusions.txt	LTP212	ltpFR	1	3	0	TUSK	1523	n/a	0	1	0.412841796875	0.57763671875	upper	../fonts/zerothre.ttf
442748	WORD	wordpools/wasnorm_wordpool_less_exclusions.txt	LTP212	ltpFR	1	3	0	BUFFALO	186	n/a	1	1	0.412841796875	0.57763671875	upper	../fonts/zerothre.ttf
446809	WORD	wordpools/wasnorm_wordpool_less_exclusions.txt	LTP212	ltpFR	1	3	0	JOURNAL	760	n/a	0	1	0.412841796875	0.57763671875	upper	../fonts/zerothre.ttf
450786	WORD	wordpools/wasnorm_wordpool_less_exclusions.txt	LTP212	ltpFR	1	3	0	BINDER	127	n/a	0	1	0.412841796875	0.57763671875	upper	../fonts/zerothre.ttf
454780	WORD	wordpools/wasnorm_wordpool_less_exclusions.txt	LTP212	ltpFR	1	3	0	FORT	595	n/a	1	1	0.412841796875	0.57763671875	upper	../fonts/zerothre.ttf
458690	WORD	wordpools/wasnorm_wordpool_less_exclusions.txt	LTP212	ltpFR	1	3	0	VETERAN	1561	n/a	1	1	0.412841796875	0.57763671875	upper	../fonts/zerothre.ttf
462835	WORD	wordpools/wasnorm_wordpool_less_exclusions.txt	LTP212	ltpFR	1	3	0	SPIDER	1351	n/a	0	1	0.412841796875	0.57763671875	upper	../fonts/zerothre.ttf
466729	WORD	wordpools/wasnorm_wordpool_less_exclusions.txt	LTP212	ltpFR	1	3	0	PUB	1135	n/a	1	1	0.412841796875	0.57763671875	upper	../fonts/zerothre.ttf
470589	WORD	wordpools/wasnorm_wordpool_less_exclusions.txt	LTP212	ltpFR	1	3	0	ZEBRA	1635	n/a	1	1	0.412841796875	0.57763671875	upper	../fonts/zerothre.ttf
474566	WORD	wordpools/wasnorm_wordpool_less_exclusions.txt	LTP212	ltpFR	1	3	0	NECK	939	n/a	0	1	0.412841796875	0.57763671875	upper	../fonts/zerothre.ttf
478428	WORD	wordpools/wasnorm_wordpool_less_exclusions.txt	LTP212	ltpFR	1	3	0	WRIST	1626	n/a	0	1	0.412841796875	0.57763671875	upper	../fonts/zerothre.ttf
482604	WORD	wordpools/wasnorm_wordpool_less_exclusions.txt	LTP212	ltpFR	1	3	0	BEAVER	109	n/a	1	1	0.412841796875	0.57763671875	upper	../fonts/zerothre.ttf
488463	REC_START	n/a	LTP212	ltpFR	1	3	n/a	n/a	n/a	n/a	n/a	n/a	n/a	n/a	n/a	n/a
489213	REC_WORD	wordpools/wasnorm_wordpool_less_exclusions.txt	LTP212	ltpFR	1	3	0	NECK	939	n/a	0	n/a	n/a	n/a	n/a	n/a
490478	REC_WORD	wordpools/wasnorm_wordpool_less_exclusions.txt	LTP212	ltpFR	1	3	0	WRIST	1626	n/a	0	n/a	n/a	n/a	n/a	n/a
491946	REC_WORD	wordpools/wasnorm_wordpool_less_exclusions.txt	LTP212	ltpFR	1	3	0	BEAVER	109	n/a	1	n/a	n/a	n/a	n/a	n/a
496684	REC_WORD	wordpools/wasnorm_wordpool_less_exclusions.txt	LTP212	ltpFR	1	3	0	TUSK	1523	n/a	0	n/a	n/a	n/a	n/a	n/a
505270	REC_WORD	wordpools/wasnorm_wordpool_less_exclusions.txt	LTP212	ltpFR	1	3	0	CHEERLEADER	288	n/a	1	n/a	n/a	n/a	n/a	n/a
511272	REC_WORD	wordpools/wasnorm_wordpool_less_exclusions.txt	LTP212	ltpFR	1	3	0	VETERAN	1561	n/a	1	n/a	n/a	n/a	n/a	n/a
538923	REC_WORD	wordpools/wasnorm_wordpool_less_exclusions.txt	LTP212	ltpFR	1	3	0	BEAVER	109	n/a	1	n/a	n/a	n/a	n/a	n/a
572503	WORD	wordpools/wasnorm_wordpool_less_exclusions.txt	LTP212	ltpFR	1	4	1	BREAST	171	n/a	1	0	0.5869140625	0.422607421875	lower	../fonts/amplitud.ttf
576398	WORD	wordpools/wasnorm_wordpool_less_exclusions.txt	LTP212	ltpFR	1	4	1	BUILDING	191	n/a	0	0	0.5869140625	0.422607421875	lower	../fonts/amplitud.ttf
580541	WORD	wordpools/wasnorm_wordpool_less_exclusions.txt	LTP212	ltpFR	1	4	1	CITY	314	n/a	0	0	0.5869140625	0.422607421875	lower	../fonts/amplitud.ttf
584469	WORD	wordpools/wasnorm_wordpool_less_exclusions.txt	LTP212	ltpFR	1	4	1	CROOK	412	n/a	1	0	0.5869140625	0.422607421875	lower	../fonts/amplitud.ttf
588347	WORD	wordpools/wasnorm_wordpool_less_exclusions.txt	LTP212	ltpFR	1	4	0	THREAD	1460	n/a	0	1	0.412841796875	0.57763671875	upper	../fonts/zerothre.ttf
592192	WORD	wordpools/wasnorm_wordpool_less_exclusions.txt	LTP212	ltpFR	1	4	0	THIMBLE	1458	n/a	0	1	0.412841796875	0.57763671875	upper	../fonts/zerothre.ttf
596119	WORD	wordpools/wasnorm_wordpool_less_exclusions.txt	LTP212	ltpFR	1	4	0	DIAMOND	458	n/a	0	1	0.412841796875	0.57763671875	upper	../fonts/zerothre.ttf
600146	WORD	wordpools/wasnorm_wordpool_less_exclusions.txt	LTP212	ltpFR	1	4	0	WHALE	1601	n/a	1	1	0.412841796875	0.57763671875	upper	../fonts/zerothre.ttf
604057	WORD	wordpools/wasnorm_wordpool_less_exclusions.txt	LTP212	ltpFR	1	4	0	CHICKEN	297	n/a	1	1	0.412841796875	0.57763671875	upper	../fonts/zerothre.ttf
608035	WORD	wordpools/wasnorm_wordpool_less_exclusions.txt	LTP212	ltpFR	1	4	0	VITAMIN	1574	n/a	0	1	0.412841796875	0.57763671875	upper	../fonts/zerothre.ttf
611862	WORD	wordpools/wasnorm_wordpool_less_exclusions.txt	LTP212	ltpFR	1	4	1	CHEMIST	292	n/a	1	0	0.5869140625	0.422607421875	lower	../fonts/amplitud.ttf
615722	WORD	wordpools/wasnorm_wordpool_less_exclusions.txt	LTP212	ltpFR	1	4	1	TOURIST	1488	n/a	1	0	0.5869140625	0.422607421875	lower	../fonts/amplitud.ttf
619716	WORD	wordpools/wasnorm_wordpool_less_exclusions.txt	LTP212	ltpFR	1	4	0	SUITCASE	1403	n/a	1	1	0.412841796875	0.57763671875	upper	../fonts/zerothre.ttf
623744	WORD	wordpools/wasnorm_wordpool_less_exclusions.txt	LTP212	ltpFR	1	4	0	SUSPECT	1415	n/a	1	1	0.412841796875	0.57763671875	upper	../fonts/zerothre.ttf
627822	WORD	wordpools/wasnorm_wordpool_less_exclusions.txt	LTP212	ltpFR	1	4	1	FOUNTAIN	597	n/a	0	0	0.5869140625	0.422607421875	lower	../fonts/amplitud.ttf
631832	WORD	wordpools/wasnorm_wordpool_less_exclusions.txt	LTP212	ltpFR	1	4	1	TAR	1435	n/a	0	0	0.5869140625	0.422607421875	lower	../fonts/amplitud.ttf
637741	REC_START	n/a	LTP212	ltpFR	1	4	n/a	n/a	n/a	n/a	n/a	n/a	n/a	n/a	n/a	n/a
638734	REC_WORD	wordpools/wasnorm_wordpool_less_exclusions.txt	LTP212	ltpFR	1	4	1	FOUNTAIN	597	n/a	0	n/a	n/a	n/a	n/a	n/a
640355	REC_WORD	wordpools/wasnorm_wordpool_less_exclusions.txt	LTP212	ltpFR	1	4	1	TAR	1435	n/a	0	n/a	n/a	n/a	n/a	n/a
645443	REC_WORD	wordpools/wasnorm_wordpool_less_exclusions.txt	LTP212	ltpFR	1	4	0	CHICKEN	297	n/a	1	n/a	n/a	n/a	n/a	n/a
650272	REC_WORD	wordpools/wasnorm_wordpool_less_exclusions.txt	LTP212	ltpFR	1	4	1	CHEMIST	292	n/a	1	n/a	n/a	n/a	n/a	n/a
652677	REC_WORD	wordpools/wasnorm_wordpool_less_exclusions.txt	LTP212	ltpFR	1	4	1	TOURIST	1488	n/a	1	n/a	n/a	n/a	n/a	n/a
654602	REC_WORD	wordpools/wasnorm_wordpool_less_exclusions.txt	LTP212	ltpFR	1	4	1	CROOK	412	n/a	1	n/a	n/a	n/a	n/a	n/a
684684	REC_WORD	wordpools/wasnorm_wordpool_less_exclusions.txt	LTP212	ltpFR	1	4	1	BREAST	171	n/a	1	n/a	n/a	n/a	n/a	n/a
708733	REC_WORD	wordpools/wasnorm_wordpool_less_exclusions.txt	LTP212	ltpFR	1	4	1	FOUNTAIN	597	n/a	0	n/a	n/a	n/a	n/a	n/a
732481	WORD	wordpools/wasnorm_wordpool_less_exclusions.txt	LTP212	ltpFR	1	5	-1	DIAGRAM	456	n/a	-1	1	1.0	1.0	upper	../fonts/Verdana.ttf
736691	WORD	wordpools/wasnorm_wordpool_less_exclusions.txt	LTP212	ltpFR	1	5	-1	MUSEUM	933	n/a	-1	1	1.0	1.0	upper	../fonts/Verdana.ttf
740536	WORD	wordpools/wasnorm_wordpool_less_exclusions.txt	LTP212	ltpFR	1	5	-1	HERB	704	n/a	-1	1	1.0	1.0	upper	../fonts/Verdana.ttf
744713	WORD	wordpools/wasnorm_wordpool_less_exclusions.txt	LTP212	ltpFR	1	5	-1	BRIEFCASE	175	n/a	-1	1	1.0	1.0	upper	../fonts/Verdana.ttf
748907	WORD	wordpools/wasnorm_wordpool_less_exclusions.txt	LTP212	ltpFR	1	5	-1	PICNIC	1060	n/a	-1	1	1.0	1.0	upper	../fonts/Verdana.ttf
752835	WORD	wordpools/wasnorm_wordpool_less_exclusions.txt	LTP212	ltpFR	1	5	-1	MICROWAVE	892	n/a	-1	1	1.0	1.0	upper	../fonts/Verdana.ttf
757029	WORD	wordpools/wasnorm_wordpool_less_exclusions.txt	LTP212	ltpFR	1	5	-1	NOTEBOOK	959	n/a	-1	1	1.0	1.0	upper	../fonts/Verdana.ttf
760973	WORD	wordpools/wasnorm_wordpool_less_exclusions.txt	LTP212	ltpFR	1	5	-1	HAMBURGER	679	n/a	-1	1	1.0	1.0	upper	../fonts/Verdana.ttf
765133	WORD	wordpools/wasnorm_wordpool_less_exclusions.txt	LTP212	ltpFR	1	5	-1	OPERA	978	n/a	-1	1	1.0	1.0	upper	../fonts/Verdana.ttf
769177	WORD	wordpools/wasnorm_wordpool_less_exclusions.txt	LTP212	ltpFR	1	5	-1	GANG	619	n/a	-1	1	1.0	1.0	upper	../fonts/Verdana.ttf
773155	WORD	wordpools/wasnorm_wordpool_less_exclusions.txt	LTP212	ltpFR	1	5	-1	SOCIETY	1338	n/a	-1	1	1.0	1.0	upper	../fonts/Verdana.ttf
776999	WORD	wordpools/wasnorm_wordpool_less_exclusions.txt	LTP212	ltpFR	1	5	-1	STEW	1380	n/a	-1	1	1.0	1.0	upper	../fonts/Verdana.ttf
780860	WORD	wordpools/wasnorm_wordpool_less_exclusions.txt	LTP212	ltpFR	1	5	-1	SIGN	1305	n/a	-1	1	1.0	1.0	upper	../fonts/Verdana.ttf
784737	WORD	wordpools/wasnorm_wordpool_less_exclusions.txt	LTP212	ltpFR	1	5	-1	OREGANO	983	n/a	-1	1	1.0	1.0	upper	../fonts/Verdana.ttf
788765	WORD	wordpools/wasnorm_wordpool_less_exclusions.txt	LTP212	ltpFR	1	5	-1	GARAGE	621	n/a	-1	1	1.0	1.0	upper	../fonts/Verdana.ttf
792975	WORD	wordpools/wasnorm_wordpool_less_exclusions.txt	LTP212	ltpFR	1	5	-1	FIREMAN	569	n/a	-1	1	1.0	1.0	upper	../fonts/Verdana.ttf
798666	REC_START	n/a	LTP212	ltpFR	1	5	n/a	n/a	n/a	n/a	n/a	n/a	n/a	n/a	n/a	n/a
799344	REC_WORD	wordpools/wasnorm_wordpool_less_exclusions.txt	LTP212	ltpFR	1	5	-1	GANG	619	n/a	-1	n/a	n/a	n/a	n/a	n/a
799955	REC_WORD	wordpools/wasnorm_wordpool_less_exclusions.txt	LTP212	ltpFR	1	5	-1	SOCIETY	1338	n/a	-1	n/a	n/a	n/a	n/a	n/a
801210	REC_WORD	wordpools/wasnorm_wordpool_less_exclusions.txt	LTP212	ltpFR	1	5	-1	STEW	1380	n/a	-1	n/a	n/a	n/a	n/a	n/a
802667	REC_WORD	wordpools/wasnorm_wordpool_less_exclusions.txt	LTP212	ltpFR	1	5	-1	OREGANO	983	n/a	-1	n/a	n/a	n/a	n/a	n/a
804108	REC_WORD	wordpools/wasnorm_wordpool_less_exclusions.txt	LTP212	ltpFR	1	5	-1	FIREMAN	569	n/a	-1	n/a	n/a	n/a	n/a	n/a
809880	REC_WORD	wordpools/wasnorm_wordpool_less_exclusions.txt	LTP212	ltpFR	1	5	-1	MUSEUM	933	n/a	-1	n/a	n/a	n/a	n/a	n/a
818825	REC_WORD	wordpools/wasnorm_wordpool_less_exclusions.txt	LTP212	ltpFR	1	5	-1	MICROWAVE	892	n/a	-1	n/a	n/a	n/a	n/a	n/a
822797	REC_WORD	wordpools/wasnorm_wordpool_less_exclusions.txt	LTP212	ltpFR	1	5	-1	PICNIC	1060	n/a	-1	n/a	n/a	n/a	n/a	n/a
888898	WORD	wordpools/wasnorm_wordpool_less_exclusions.txt	LTP212	ltpFR	1	6	-1	DUCK	504	n/a	-1	1	1.0	1.0	upper	../fonts/Verdana.ttf
892859	WORD	wordpools/wasnorm_wordpool_less_exclusions.txt	LTP212	ltpFR	1	6	-1	FENCE	560	n/a	-1	1	1.0	1.0	upper	../fonts/Verdana.ttf
897003	WORD	wordpools/wasnorm_wordpool_less_exclusions.txt	LTP212	ltpFR	1	6	-1	SWIMMER	1420	n/a	-1	1	1.0	1.0	upper	../fonts/Verdana.ttf
900897	WORD	wordpools/wasnorm_wordpool_less_exclusions.txt	LTP212	ltpFR	1	6	-1	BUCKET	184	n/a	-1	1	1.0	1.0	upper	../fonts/Verdana.ttf
904724	WORD	wordpools/wasnorm_wordpool_less_exclusions.txt	LTP212	ltpFR	1	6	-1	GLACIER	638	n/a	-1	1	1.0	1.0	upper	../fonts/Verdana.ttf
908701	WORD	wordpools/wasnorm_wordpool_less_exclusions.txt	LTP212	ltpFR	1	6	-1	DAM	436	n/a	-1	1	1.0	1.0	upper	../fonts/Verdana.ttf
912645	WORD	wordpools/wasnorm_wordpool_less_exclusions.txt	LTP212	ltpFR	1	6	-1	HAIL	676	n/a	-1	1	1.0	1.0	upper	../fonts/Verdana.ttf
916639	WORD	wordpools/wasnorm_wordpool_less_exclusions.txt	LTP212	ltpFR	1	6	-1	RECIPE	1175	n/a	-1	1	1.0	1.0	upper	../fonts/Verdana.ttf
920483	WORD	wordpools/wasnorm_wordpool_less_exclusions.txt	LTP212	ltpFR	1	6	-1	ICING	732	n/a	-1	1	1.0	1.0	upper	../fonts/Verdana.ttf
924644	WORD	wordpools/wasnorm_wordpool_less_exclusions.txt	LTP212	ltpFR	1	6	-1	RESORT	1186	n/a	-1	1	1.0	1.0	upper	../fonts/Verdana.ttf
928805	WORD	wordpools/wasnorm_wordpool_less_exclusions.txt	LTP212	ltpFR	1	6	-1	LASH	802	n/a	-1	1	1.0	1.0	upper	../fonts/Verdana.ttf
932949	WORD	wordpools/wasnorm_wordpool_less_exclusions.txt	LTP212	ltpFR	1	6	-1	FROG	608	n/a	-1	1	1.0	1.0	upper	../fonts/Verdana.ttf
936777	WORD	wordpools/wasnorm_wordpool_less_exclusions.txt	LTP212	ltpFR	1	6	-1	SUITE	1404	n/a	-1	1	1.0	1.0	upper	../fonts/Verdana.ttf
940703	WORD	wordpools/wasnorm_wordpool_less_exclusions.txt	LTP212	ltpFR	1	6	-1	COLESLAW	344	n/a	-1	1	1.0	1.0	upper	../fonts/Verdana.ttf
944881	WORD	wordpools/wasnorm_wordpool_less_exclusions.txt	LTP212	ltpFR	1	6	-1	REFRIGERATOR	1179	n/a	-1	1	1.0	1.0	upper	../fonts/Verdana.ttf
948792	WORD	wordpools/wasnorm_wordpool_less_exclusions.txt	LTP212	ltpFR	1	6	-1	SPRINKLE	1359	n/a	-1	1	1.0	1.0	upper	../fonts/Verdana.ttf
954917	REC_START	n/a	LTP212	ltpFR	1	6	n/a	n/a	n/a	n/a	n/a	n/a	n/a	n/a	n/a	n/a
955905	REC_WORD	wordpools/wasnorm_wordpool_less_exclusions.txt	LTP212	ltpFR	1	6	-1	ICING	732	n/a	-1	n/a	n/a	n/a	n/a	n/a
956690	REC_WORD	wordpools/wasnorm_wordpool_less_exclusions.txt	LTP212	ltpFR	1	6	-1	RESORT	1186	n/a	-1	n/a	n/a	n/a	n/a	n/a
957631	REC_WORD	wordpools/wasnorm_wordpool_less_exclusions.txt	LTP212	ltpFR	1	6	-1	SUITE	1404	n/a	-1	n/a	n/a	n/a	n/a	n/a
958973	REC_WORD	wordpools/wasnorm_wordpool_less_exclusions.txt	LTP212	ltpFR	1	6	-1	LASH	802	n/a	-1	n/a	n/a	n/a	n/a	n/a
959891	REC_WORD	wordpools/wasnorm_wordpool_less_exclusions.txt	LTP212	ltpFR	1	6	-1	FROG	608	n/a	-1	n/a	n/a	n/a	n/a	n/a
961660	REC_WORD	wordpools/wasnorm_wordpool_less_exclusions.txt	LTP212	ltpFR	1	6	-1	REFRIGERATOR	1179	n/a	-1	n/a	n/a	n/a	n/a	n/a
963303	REC_WORD	wordpools/wasnorm_wordpool_less_exclusions.txt	LTP212	ltpFR	1	6	-1	SPRINKLE	1359	n/a	-1	n/a	n/a	n/a	n/a	n/a
967069	REC_WORD	wordpools/wasnorm_wordpool_less_exclusions.txt	LTP212	ltpFR	1	6	-1	GLACIER	638	n/a	-1	n/a	n/a	n/a	n/a	n/a
969578	REC_WORD	wordpools/wasnorm_wordpool_less_exclusions.txt	LTP212	ltpFR	1	6	-1	DAM	436	n/a	-1	n/a	n/a	n/a	n/a	n/a
1050757	WORD	wordpools/wasnorm_wordpool_less_exclusions.txt	LTP212	ltpFR	1	7	0	HEADBAND	696	n/a	0	1	0.412841796875	0.57763671875	upper	../fonts/zerothre.ttf
1054884	WORD	wordpools/wasnorm_wordpool_less_exclusions.txt	LTP212	ltpFR	1	7	0	FACE	547	n/a	0	1	0.412841796875	0.57763671875	upper	../fonts/zerothre.ttf
1059028	WORD	wordpools/wasnorm_wordpool_less_exclusions.txt	LTP212	ltpFR	1	7	0	FLY	586	n/a	0	1	0.412841796875	0.57763671875	upper	../fonts/zerothre.ttf
1063071	WORD	wordpools/wasnorm_wordpool_less_exclusions.txt	LTP212	ltpFR	1	7	0	MOSQUITO	917	n/a	0	1	0.412841796875	0.57763671875	upper	../fonts/zerothre.ttf
1067032	WORD	wordpools/wasnorm_wordpool_less_exclusions.txt	LTP212	ltpFR	1	7	0	STREET	1393	n/a	1	1	0.412841796875	0.57763671875	upper	../fonts/zerothre.ttf
1070926	WORD	wordpools/wasnorm_wordpool_less_exclusions.txt	LTP212	ltpFR	1	7	0	SNACK	1331	n/a	0	1	0.412841796875	0.57763671875	upper	../fonts/zerothre.ttf
1074887	WORD	wordpools/wasnorm_wordpool_less_exclusions.txt	LTP212	ltpFR	1	7	0	TREAD	1499	n/a	0	1	0.412841796875	0.57763671875	upper	../fonts/zerothre.ttf
1078765	WORD	wordpools/wasnorm_wordpool_less_exclusions.txt	LTP212	ltpFR	1	7	0	SPAGHETTI	1346	n/a	0	1	0.412841796875	0.57763671875	upper	../fonts/zerothre.ttf
1082975	WORD	wordpools/wasnorm_wordpool_less_exclusions.txt	LTP212	ltpFR	1	7	0	PRINCE	1124	n/a	1	1	0.412841796875	0.57763671875	upper	../fonts/zerothre.ttf
1087152	WORD	wordpools/wasnorm_wordpool_less_exclusions.txt	LTP212	ltpFR	1	7	0	MUG	930	n/a	0	1	0.412841796875	0.57763671875	upper	../fonts/zerothre.ttf
1091329	WORD	wordpools/wasnorm_wordpool_less_exclusions.txt	LTP212	ltpFR	1	7	0	CROSS	413	n/a	0	1	0.412841796875	0.57763671875	upper	../fonts/zerothre.ttf
1095240	WORD	wordpools/wasnorm_wordpool_less_exclusions.txt	LTP212	ltpFR	1	7	0	PEOPLE	1046	n/a	1	1	0.412841796875	0.57763671875	upper	../fonts/zerothre.ttf
1099317	WORD	wordpools/wasnorm_wordpool_less_exclusions.txt	LTP212	ltpFR	1	7	0	AUDIENCE	59	n/a	1	1	0.412841796875	0.57763671875	upper	../fonts/zerothre.ttf
1103345	WORD	wordpools/wasnorm_wordpool_less_exclusions.txt	LTP212	ltpFR	1	7	0	SANDWICH	1232	n/a	0	1	0.412841796875	0.57763671875	upper	../fonts/zerothre.ttf
1107272	WORD	wordpools/wasnorm_wordpool_less_exclusions.txt	LTP212	ltpFR	1	7	0	SUBMARINE	1398	n/a	1	1	0.412841796875	0.57763671875	upper	../fonts/zerothre.ttf
1111399	WORD	wordpools/wasnorm_wordpool_less_exclusions.txt	LTP212	ltpFR	1	7	0	NERVE	944	n/a	0	1	0.412841796875	0.57763671875	upper	../fonts/zerothre.ttf
1117374	REC_START	n/a	LTP212	ltpFR	1	7	n/a	n/a	n/a	n/a	n/a	n/a	n/a	n/a	n/a	n/a
1118435	REC_WORD	wordpools/wasnorm_wordpool_less_exclusions.txt	LTP212	ltpFR	1	7	0	NERVE	944	n/a	0	n/a	n/a	n/a	n/a	n/a
1120162	REC_WORD	wordpools/wasnorm_wordpool_less_exclusions.txt	LTP212	ltpFR	1	7	0	PEOPLE	1046	n/a	1	n/a	n/a	n/a	n/a	n/a
1122293	REC_WORD	wordpools/wasnorm_wordpool_less_exclusions.txt	LTP212	ltpFR	1	7	0	STREET	1393	n/a	1	n/a	n/a	n/a	n/a	n/a
1124498	REC_WORD	wordpools/wasnorm_wordpool_less_exclusions.txt	LTP212	ltpFR	1	7	0	PRINCE	1124	n/a	1	n/a	n/a	n/a	n/a	n/a
1128738	REC_WORD	wordpools/wasnorm_wordpool_less_exclusions.txt	LTP212	ltpFR	1	7	0	FLY	586	n/a	0	n/a	n/a	n/a	n/a	n/a
1130469	REC_WORD	wordpools/wasnorm_wordpool_less_exclusions.txt	LTP212	ltpFR	1	7	0	MOSQUITO	917	n/a	0	n/a	n/a	n/a	n/a	n/a
1177098	REC_WORD	wordpools/wasnorm_wordpool_less_exclusions.txt	LTP212	ltpFR	1	7	0	TREAD	1499	n/a	0	n/a	n/a	n/a	n/a	n/a
1215244	WORD	wordpools/wasnorm_wordpool_less_exclusions.txt	LTP212	ltpFR	1	8	1	INSTRUCTOR	741	n/a	1	0	0.5869140625	0.422607421875	lower	../fonts/amplitud.ttf
1219454	WORD	wordpools/wasnorm_wordpool_less_exclusions.txt	LTP212	ltpFR	1	8	1	ERASER	538	n/a	0	0	0.5869140625	0.422607421875	lower	../fonts/amplitud.ttf
1223332	WORD	wordpools/wasnorm_wordpool_less_exclusions.txt	LTP212	ltpFR	1	8	1	FREEWAY	603	n/a	0	0	0.5869140625	0.422607421875	lower	../fonts/amplitud.ttf
1227243	WORD	wordpools/wasnorm_wordpool_less_exclusions.txt	LTP212	ltpFR	1	8	1	CAMEL	223	n/a	1	0	0.5869140625	0.422607421875	lower	../fonts/amplitud.ttf
1231104	WORD	wordpools/wasnorm_wordpool_less_exclusions.txt	LTP212	ltpFR	1	8	1	LINEN	825	n/a	0	0	0.5869140625	0.422607421875	lower	../fonts/amplitud.ttf
1235231	WORD	wordpools/wasnorm_wordpool_less_exclusions.txt	LTP212	ltpFR	1	8	1	YACHT	1629	n/a	0	0	0.5869140625	0.422607421875	lower	../fonts/amplitud.ttf
1239425	WORD	wordpools/wasnorm_wordpool_less_exclusions.txt	LTP212	ltpFR	1	8	1	CREW	406	n/a	1	0	0.5869140625	0.422607421875	lower	../fonts/amplitud.ttf
1243617	WORD	wordpools/wasnorm_wordpool_less_exclusions.txt	LTP212	ltpFR	1	8	1	RADIO	1157	n/a	0	0	0.5869140625	0.422607421875	lower	../fonts/amplitud.ttf
1247478	WORD	wordpools/wasnorm_wordpool_less_exclusions.txt	LTP212	ltpFR	1	8	1	CELLO	268	n/a	0	0	0.5869140625	0.422607421875	lower	../fonts/amplitud.ttf
1251407	WORD	wordpools/wasnorm_wordpool_less_exclusions.txt	LTP212	ltpFR	1	8	1	WINDSHIELD	1612	n/a	0	0	0.5869140625	0.422607421875	lower	../fonts/amplitud.ttf
1255417	WORD	wordpools/wasnorm_wordpool_less_exclusions.txt	LTP212	ltpFR	1	8	1	INVENTOR	743	n/a	1	0	0.5869140625	0.422607421875	lower	../fonts/amplitud.ttf
1259544	WORD	wordpools/wasnorm_wordpool_less_exclusions.txt	LTP212	ltpFR	1	8	1	MALL	860	n/a	0	0	0.5869140625	0.422607421875	lower	../fonts/amplitud.ttf
1263405	WORD	wordpools/wasnorm_wordpool_less_exclusions.txt	LTP212	ltpFR	1	8	1	PEAR	1033	n/a	1	0	0.5869140625	0.422607421875	lower	../fonts/amplitud.ttf
1267433	WORD	wordpools/wasnorm_wordpool_less_exclusions.txt	LTP212	ltpFR	1	8	1	BIOLOGIST	128	n/a	1	0	0.5869140625	0.422607421875	lower	../fonts/amplitud.ttf
1271626	WORD	wordpools/wasnorm_wordpool_less_exclusions.txt	LTP212	ltpFR	1	8	1	ROBE	1198	n/a	0	0	0.5869140625	0.422607421875	lower	../fonts/amplitud.ttf
1275553	WORD	wordpools/wasnorm_wordpool_less_exclusions.txt	LTP212	ltpFR	1	8	1	HEDGE	699	n/a	1	0	0.5869140625	0.422607421875	lower	../fonts/amplitud.ttf
1281296	REC_START	n/a	LTP212	ltpFR	1	8	n/a	n/a	n/a	n/a	n/a	n/a	n/a	n/a	n/a	n/a
1282274	REC_WORD	wordpools/wasnorm_wordpool_less_exclusions.txt	LTP212	ltpFR	1	8	1	PEAR	1033	n/a	1	n/a	n/a	n/a	n/a	n/a
1283082	REC_WORD	wordpools/wasnorm_wordpool_less_exclusions.txt	LTP212	ltpFR	1	8	1	BIOLOGIST	128	n/a	1	n/a	n/a	n/a	n/a	n/a
1285174	REC_WORD	wordpools/wasnorm_wordpool_less_exclusions.txt	LTP212	ltpFR	1	8	1	HEDGE	699	n/a	1	n/a	n/a	n/a	n/a	n/a
1287053	REC_WORD	wordpools/wasnorm_wordpool_less_exclusions.txt	LTP212	ltpFR	1	8	1	YACHT	1629	n/a	0	n/a	n/a	n/a	n/a	n/a
1293199	REC_WORD	wordpools/wasnorm_wordpool_less_exclusions.txt	LTP212	ltpFR	1	8	1	LINEN	825	n/a	0	n/a	n/a	n/a	n/a	n/a
1348807	REC_WORD	wordpools/wasnorm_wordpool_less_exclusions.txt	LTP212	ltpFR	1	8	1	INSTRUCTOR	741	n/a	1	n/a	n/a	n/a	n/a	n/a
1379865	WORD	wordpools/wasnorm_wordpool_less_exclusions.txt	LTP212	ltpFR	1	9	0	SHEEP	1278	n/a	1	1	0.412841796875	0.57763671875	upper	../fonts/zerothre.ttf
1383691	WORD	wordpools/wasnorm_wordpool_less_exclusions.txt	LTP212	ltpFR	1	9	0	PICKLE	1059	n/a	0	1	0.412841796875	0.57763671875	upper	../fonts/zerothre.ttf
1387836	WORD	wordpools/wasnorm_wordpool_less_exclusions.txt	LTP212	ltpFR	1	9	1	BROOK	177	n/a	0	0	0.5869140625	0.422607421875	lower	../fonts/amplitud.ttf
1392047	WORD	wordpools/wasnorm_wordpool_less_exclusions.txt	LTP212	ltpFR	1	9	1	DIVER	476	n/a	1	0	0.5869140625	0.422607421875	lower	../fonts/amplitud.ttf
1396141	WORD	wordpools/wasnorm_wordpool_less_exclusions.txt	LTP212	ltpFR	1	9	1	CHIMPANZEE	302	n/a	1	0	0.5869140625	0.422607421875	lower	../fonts/amplitud.ttf
1400334	WORD	wordpools/wasnorm_wordpool_less_exclusions.txt	LTP212	ltpFR	1	9	0	RAISIN	1163	n/a	0	1	0.412841796875	0.57763671875	upper	../fonts/zerothre.ttf
1404460	WORD	wordpools/wasnorm_wordpool_less_exclusions.txt	LTP212	ltpFR	1	9	0	OBOE	969	n/a	1	1	0.412841796875	0.57763671875	upper	../fonts/zerothre.ttf
1408471	WORD	wordpools/wasnorm_wordpool_less_exclusions.txt	LTP212	ltpFR	1	9	0	ENGINEER	536	n/a	1	1	0.412841796875	0.57763671875	upper	../fonts/zerothre.ttf
1412383	WORD	wordpools/wasnorm_wordpool_less_exclusions.txt	LTP212	ltpFR	1	9	0	ELECTRICIAN	521	n/a	1	1	0.412841796875	0.57763671875	upper	../fonts/zerothre.ttf
1416394	WORD	wordpools/wasnorm_wordpool_less_exclusions.txt	LTP212	ltpFR	1	9	1	BIBLE	124	n/a	0	0	0.5869140625	0.422607421875	lower	../fonts/amplitud.ttf
1420603	WORD	wordpools/wasnorm_wordpool_less_exclusions.txt	LTP212	ltpFR	1	9	1	MUSTARD	935	n/a	1	0	0.5869140625	0.422607421875	lower	../fonts/amplitud.ttf
1424432	WORD	wordpools/wasnorm_wordpool_less_exclusions.txt	LTP212	ltpFR	1	9	1	GROCERIES	663	n/a	0	0	0.5869140625	0.422607421875	lower	../fonts/amplitud.ttf
1428608	WORD	wordpools/wasnorm_wordpool_less_exclusions.txt	LTP212	ltpFR	1	9	1	ARCHITECT	36	n/a	1	0	0.5869140625	0.422607421875	lower	../fonts/amplitud.ttf
1432552	WORD	wordpools/wasnorm_wordpool_less_exclusions.txt	LTP212	ltpFR	1	9	1	TOWER	1490	n/a	0	0	0.5869140625	0.422607421875	lower	../fonts/amplitud.ttf
1436679	WORD	wordpools/wasnorm_wordpool_less_exclusions.txt	LTP212	ltpFR	1	9	0	DISC	473	n/a	0	1	0.412841796875	0.57763671875	upper	../fonts/zerothre.ttf
1440840	WORD	wordpools/wasnorm_wordpool_less_exclusions.txt	LTP212	ltpFR	1	9	0	SHEPHERD	1283	n/a	1	1	0.412841796875	0.57763671875	upper	../fonts/zerothre.ttf
1446849	REC_START	n/a	LTP212	ltpFR	1	9	n/a	n/a	n/a	n/a	n/a	n/a	n/a	n/a	n/a	n/a
1448231	REC_WORD	wordpools/wasnorm_wordpool_less_exclusions.txt	LTP212	ltpFR	1	9	0	SHEPHERD	1283	n/a	1	n/a	n/a	n/a	n/a	n/a
1449568	REC_WORD	wordpools/wasnorm_wordpool_less_exclusions.txt	LTP212	ltpFR	1	9	0	DISC	473	n/a	0	n/a	n/a	n/a	n/a	n/a
1450999	REC_WORD	wordpools/wasnorm_wordpool_less_exclusions.txt	LTP212	ltpFR	1	9	1	MUSTARD	935	n/a	1	n/a	n/a	n/a	n/a	n/a
1456242	REC_WORD	wordpools/wasnorm_wordpool_less_exclusions.txt	LTP212	ltpFR	1	9	0	ENGINEER	536	n/a	1	n/a	n/a	n/a	n/a	n/a
1457784	REC_WORD	wordpools/wasnorm_wordpool_less_exclusions.txt	LTP212	ltpFR	1	9	0	ELECTRICIAN	521	n/a	1	n/a	n/a	n/a	n/a	n/a
1462555	REC_WORD	wordpools/wasnorm_wordpool_less_exclusions.txt	LTP212	ltpFR	1	9	0	RAISIN	1163	n/a	0	n/a	n/a	n/a	n/a	n/a
1537462	WORD	wordpools/wasnorm_wordpool_less_exclusions.txt	LTP212	ltpFR	1	10	1	GYMNAST	675	n/a	1	0	0.5869140625	0.422607421875	lower	../fonts/amplitud.ttf
1541589	WORD	wordpools/wasnorm_wordpool_less_exclusions.txt	LTP212	ltpFR	1	10	1	REGISTER	1180	n/a	0	0	0.5869140625	0.422607421875	lower	../fonts/amplitud.ttf
1545683	WORD	wordpools/wasnorm_wordpool_less_exclusions.txt	LTP212	ltpFR	1	10	1	RECEIPT	1173	n/a	0	0	0.5869140625	0.422607421875	lower	../fonts/amplitud.ttf
1549778	WORD	wordpools/wasnorm_wordpool_less_exclusions.txt	LTP212	ltpFR	1	10	1	BULLY	196	n/a	1	0	0.5869140625	0.422607421875	lower	../fonts/amplitud.ttf
1553671	WORD	wordpools/wasnorm_wordpool_less_exclusions.txt	LTP212	ltpFR	1	10	1	BOY	161	n/a	1	0	0.5869140625	0.422607421875	lower	../fonts/amplitud.ttf
1557682	WORD	wordpools/wasnorm_wordpool_less_exclusions.txt	LTP212	ltpFR	1	10	1	DUMP	505	n/a	0	0	0.5869140625	0.422607421875	lower	../fonts/amplitud.ttf
1561692	WORD	wordpools/wasnorm_wordpool_less_exclusions.txt	LTP212	ltpFR	1	10	1	TRASH	1497	n/a	0	0	0.5869140625	0.422607421875	lower	../fonts/amplitud.ttf
1565686	WORD	wordpools/wasnorm_wordpool_less_exclusions.txt	LTP212	ltpFR	1	10	1	APARTMENT	30	n/a	0	0	0.5869140625	0.422607421875	lower	../fonts/amplitud.ttf
1569831	WORD	wordpools/wasnorm_wordpool_less_exclusions.txt	LTP212	ltpFR	1	10	1	ACROBAT	4	n/a	1	0	0.5869140625	0.422607421875	lower	../fonts/amplitud.ttf
1573742	WORD	wordpools/wasnorm_wordpool_less_exclusions.txt	LTP212	ltpFR	1	10	1	MOVIE	927	n/a	0	0	0.5869140625	0.422607421875	lower	../fonts/amplitud.ttf
1577685	WORD	wordpools/wasnorm_wordpool_less_exclusions.txt	LTP212	ltpFR	1	10	1	ACTOR	5	n/a	1	0	0.5869140625	0.422607421875	lower	../fonts/amplitud.ttf
1581797	WORD	wordpools/wasnorm_wordpool_less_exclusions.txt	LTP212	ltpFR	1	10	1	HIGHWAY	707	n/a	0	0	0.5869140625	0.422607421875	lower	../fonts/amplitud.ttf
1585706	WORD	wordpools/wasnorm_wordpool_less_exclusions.txt	LTP212	ltpFR	1	10	1	JAW	751	n/a	1	0	0.5869140625	0.422607421875	lower	../fonts/amplitud.ttf
1589534	WORD	wordpools/wasnorm_wordpool_less_exclusions.txt	LTP212	ltpFR	1	10	1	YARN	1631	n/a	0	0	0.5869140625	0.422607421875	lower	../fonts/amplitud.ttf
1593745	WORD	wordpools/wasnorm_wordpool_less_exclusions.txt	LTP212	ltpFR	1	10	1	SPARROW	1347	n/a	1	0	0.5869140625	0.422607421875	lower	../fonts/amplitud.ttf
1597856	WORD	wordpools/wasnorm_wordpool_less_exclusions.txt	LTP212	ltpFR	1	10	1	CAR	241	n/a	0	0	0.5869140625	0.422607421875	lower	../fonts/amplitud.ttf
1603731	REC_START	n/a	LTP212	ltpFR	1	10	n/a	n/a	n/a	n/a	n/a	n/a	n/a	n/a	n/a	n/a
1604898	REC_WORD	wordpools/wasnorm_wordpool_less_exclusions.txt	LTP212	ltpFR	1	10	1	SPARROW	1347	n/a	1	n/a	n/a	n/a	n/a	n/a
1606794	REC_WORD	wordpools/wasnorm_wordpool_less_exclusions.txt	LTP212	ltpFR	1	10	1	CAR	241	n/a	0	n/a	n/a	n/a	n/a	n/a
1609423	REC_WORD	wordpools/wasnorm_wordpool_less_exclusions.txt	LTP212	ltpFR	1	10	1	GYMNAST	675	n/a	1	n/a	n/a	n/a	n/a	n/a
1610980	REC_WORD	wordpools/wasnorm_wordpool_less_exclusions.txt	LTP212	ltpFR	1	10	1	BULLY	196	n/a	1	n/a	n/a	n/a	n/a	n/a
1613504	REC_WORD	wordpools/wasnorm_wordpool_less_exclusions.txt	LTP212	ltpFR	1	10	1	BOY	161	n/a	1	n/a	n/a	n/a	n/a	n/a
1617978	REC_WORD	wordpools/wasnorm_wordpool_less_exclusions.txt	LTP212	ltpFR	1	10	1	JAW	751	n/a	1	n/a	n/a	n/a	n/a	n/a
1635258	REC_WORD	wordpools/wasnorm_wordpool_less_exclusions.txt	LTP212	ltpFR	1	10	1	ARCHITECT	36	n/a	1	n/a	n/a	n/a	n/a	n/a
1699804	WORD	wordpools/wasnorm_wordpool_less_exclusions.txt	LTP212	ltpFR	1	11	0	GRASS	655	n/a	0	1	0.412841796875	0.57763671875	upper	../fonts/zerothre.ttf
1703748	WORD	wordpools/wasnorm_wordpool_less_exclusions.txt	LTP212	ltpFR	1	11	0	SEAL	1262	n/a	1	1	0.412841796875	0.57763671875	upper	../fonts/zerothre.ttf
1707775	WORD	wordpools/wasnorm_wordpool_less_exclusions.txt	LTP212	ltpFR	1	11	0	STREAM	1392	n/a	1	1	0.412841796875	0.57763671875	upper	../fonts/zerothre.ttf
1711902	WORD	wordpools/wasnorm_wordpool_less_exclusions.txt	LTP212	ltpFR	1	11	0	WELL	1600	n/a	1	1	0.412841796875	0.57763671875	upper	../fonts/zerothre.ttf
1715946	WORD	wordpools/wasnorm_wordpool_less_exclusions.txt	LTP212	ltpFR	1	11	1	SOAP	1337	n/a	0	0	0.5869140625	0.422607421875	lower	../fonts/amplitud.ttf
1719924	WORD	wordpools/wasnorm_wordpool_less_exclusions.txt	LTP212	ltpFR	1	11	1	ATHLETE	52	n/a	1	0	0.5869140625	0.422607421875	lower	../fonts/amplitud.ttf
1723901	WORD	wordpools/wasnorm_wordpool_less_exclusions.txt	LTP212	ltpFR	1	11	1	CHEST	295	n/a	0	0	0.5869140625	0.422607421875	lower	../fonts/amplitud.ttf
1727745	WORD	wordpools/wasnorm_wordpool_less_exclusions.txt	LTP212	ltpFR	1	11	0	PUBLISHER	1137	n/a	1	1	0.412841796875	0.57763671875	upper	../fonts/zerothre.ttf
1731588	WORD	wordpools/wasnorm_wordpool_less_exclusions.txt	LTP212	ltpFR	1	11	0	TIE	1466	n/a	0	1	0.412841796875	0.57763671875	upper	../fonts/zerothre.ttf
1735466	WORD	wordpools/wasnorm_wordpool_less_exclusions.txt	LTP212	ltpFR	1	11	0	CARNIVAL	245	n/a	1	1	0.412841796875	0.57763671875	upper	../fonts/zerothre.ttf
1739378	WORD	wordpools/wasnorm_wordpool_less_exclusions.txt	LTP212	ltpFR	1	11	0	FOREHEAD	592	n/a	0	1	0.412841796875	0.57763671875	upper	../fonts/zerothre.ttf
1743355	WORD	wordpools/wasnorm_wordpool_less_exclusions.txt	LTP212	ltpFR	1	11	1	GLUE	643	n/a	0	0	0.5869140625	0.422607421875	lower	../fonts/amplitud.ttf
1747299	WORD	wordpools/wasnorm_wordpool_less_exclusions.txt	LTP212	ltpFR	1	11	1	POTATO	1115	n/a	1	0	0.5869140625	0.422607421875	lower	../fonts/amplitud.ttf
1751227	WORD	wordpools/wasnorm_wordpool_less_exclusions.txt	LTP212	ltpFR	1	11	1	ALMANAC	17	n/a	0	0	0.5869140625	0.422607421875	lower	../fonts/amplitud.ttf
1755104	WORD	wordpools/wasnorm_wordpool_less_exclusions.txt	LTP212	ltpFR	1	11	1	BEVERAGE	123	n/a	0	0	0.5869140625	0.422607421875	lower	../fonts/amplitud.ttf
1759298	WORD	wordpools/wasnorm_wordpool_less_exclusions.txt	LTP212	ltpFR	1	11	1	BARTENDER	92	n/a	1	0	0.5869140625	0.422607421875	lower	../fonts/amplitud.ttf
1765090	REC_START	n/a	LTP212	ltpFR	1	11	n/a	n/a	n/a	n/a	n/a	n/a	n/a	n/a	n/a	n/a
1767629	REC_WORD	wordpools/wasnorm_wordpool_less_exclusions.txt	LTP212	ltpFR	1	11	1	BARTENDER	92	n/a	1	n/a	n/a	n/a	n/a	n/a
1769505	REC_WORD	wordpools/wasnorm_wordpool_less_exclusions.txt	LTP212	ltpFR	1	11	0	FOREHEAD	592	n/a	0	n/a	n/a	n/a	n/a	n/a
1777631	REC_WORD	wordpools/wasnorm_wordpool_less_exclusions.txt	LTP212	ltpFR	1	11	0	SEAL	1262	n/a	1	n/a	n/a	n/a	n/a	n/a
1872046	WORD	wordpools/wasnorm_wordpool_less_exclusions.txt	LTP212	ltpFR	1	12	1	COB	334	n/a	0	0	0.5869140625	0.422607421875	lower	../fonts/amplitud.ttf
1876007	WORD	wordpools/wasnorm_wordpool_less_exclusions.txt	LTP212	ltpFR	1	12	1	SMOG	1330	n/a	0	0	0.5869140625	0.422607421875	lower	../fonts/amplitud.ttf
1880001	WORD	wordpools/wasnorm_wordpool_less_exclusions.txt	LTP212	ltpFR	1	12	1	SHOULDER	1294	n/a	1	0	0.5869140625	0.422607421875	lower	../fonts/amplitud.ttf
1883912	WORD	wordpools/wasnorm_wordpool_less_exclusions.txt	LTP212	ltpFR	1	12	1	COLLEGE	346	n/a	0	0	0.5869140625	0.422607421875	lower	../fonts/amplitud.ttf
1887873	WORD	wordpools/wasnorm_wordpool_less_exclusions.txt	LTP212	ltpFR	1	12	1	STUDENT	1395	n/a	1	0	0.5869140625	0.422607421875	lower	../fonts/amplitud.ttf
1891950	WORD	wordpools/wasnorm_wordpool_less_exclusions.txt	LTP212	ltpFR	1	12	1	LIP	828	n/a	1	0	0.5869140625	0.422607421875	lower	../fonts/amplitud.ttf
1895977	WORD	wordpools/wasnorm_wordpool_less_exclusions.txt	LTP212	ltpFR	1	12	1	HANDKERCHIEF	686	n/a	0	0	0.5869140625	0.422607421875	lower	../fonts/amplitud.ttf
1899821	WORD	wordpools/wasnorm_wordpool_less_exclusions.txt	LTP212	ltpFR	1	12	1	BOSS	152	n/a	1	0	0.5869140625	0.422607421875	lower	../fonts/amplitud.ttf
1903932	WORD	wordpools/wasnorm_wordpool_less_exclusions.txt	LTP212	ltpFR	1	12	1	EMPLOYER	532	n/a	1	0	0.5869140625	0.422607421875	lower	../fonts/amplitud.ttf
1907943	WORD	wordpools/wasnorm_wordpool_less_exclusions.txt	LTP212	ltpFR	1	12	1	COOKIE	374	n/a	0	0	0.5869140625	0.422607421875	lower	../fonts/amplitud.ttf
1912136	WORD	wordpools/wasnorm_wordpool_less_exclusions.txt	LTP212	ltpFR	1	12	1	BASKET	95	n/a	0	0	0.5869140625	0.422607421875	lower	../fonts/amplitud.ttf
1916164	WORD	wordpools/wasnorm_wordpool_less_exclusions.txt	LTP212	ltpFR	1	12	1	ARM	38	n/a	1	0	0.5869140625	0.422607421875	lower	../fonts/amplitud.ttf
1919991	WORD	wordpools/wasnorm_wordpool_less_exclusions.txt	LTP212	ltpFR	1	12	1	CHAUFFEUR	283	n/a	1	0	0.5869140625	0.422607421875	lower	../fonts/amplitud.ttf
1924185	WORD	wordpools/wasnorm_wordpool_less_exclusions.txt	LTP212	ltpFR	1	12	1	WHISTLE	1606	n/a	0	0	0.5869140625	0.422607421875	lower	../fonts/amplitud.ttf
1928129	WORD	wordpools/wasnorm_wordpool_less_exclusions.txt	LTP212	ltpFR	1	12	1	MEADOW	881	n/a	0	0	0.5869140625	0.422607421875	lower	../fonts/amplitud.ttf
1932107	WORD	wordpools/wasnorm_wordpool_less_exclusions.txt	LTP212	ltpFR	1	12	1	SALESMAN	1225	n/a	1	0	0.5869140625	0.422607421875	lower	../fonts/amplitud.ttf
1937845	REC_START	n/a	LTP212	ltpFR	1	12	n/a	n/a	n/a	n/a	n/a	n/a	n/a	n/a	n/a	n/a
1938535	REC_WORD	wordpools/wasnorm_wordpool_less_exclusions.txt	LTP212	ltpFR	1	12	1	CHAUFFEUR	283	n/a	1	n/a	n/a	n/a	n/a	n/a
1939336	REC_WORD	wordpools/wasnorm_wordpool_less_exclusions.txt	LTP212	ltpFR	1	12	1	CHAUFFEUR	283	n/a	1	n/a	n/a	n/a	n/a	n/a
1941167	REC_WORD_VV	wordpools/wasnorm_wordpool_less_exclusions.txt	LTP212	ltpFR	1	12	n/a	<>	-1	n/a	n/a	n/a	n/a	n/a	n/a	n/a
1941566	REC_WORD	wordpools/wasnorm_wordpool_less_exclusions.txt	LTP212	ltpFR	1	12	1	MEADOW	881	n/a	0	n/a	n/a	n/a	n/a	n/a
1943063	REC_WORD	wordpools/wasnorm_wordpool_less_exclusions.txt	LTP212	ltpFR	1	12	1	SALESMAN	1225	n/a	1	n/a	n/a	n/a	n/a	n/a
1947638	REC_WORD	wordpools/wasnorm_wordpool_less_exclusions.txt	LTP212	ltpFR	1	12	1	ARM	38	n/a	1	n/a	n/a	n/a	n/a	n/a
1949204	REC_WORD	wordpools/wasnorm_wordpool_less_exclusions.txt	LTP212	ltpFR	1	12	1	SHOULDER	1294	n/a	1	n/a	n/a	n/a	n/a	n/a
1977523	REC_WORD	wordpools/wasnorm_wordpool_less_exclusions.txt	LTP212	ltpFR	1	12	1	HANDKERCHIEF	686	n/a	0	n/a	n/a	n/a	n/a	n/a
1999591	REC_WORD	wordpools/wasnorm_wordpool_less_exclusions.txt	LTP212	ltpFR	1	12	1	EMPLOYER	532	n/a	1	n/a	n/a	n/a	n/a	n/a
2013418	REST_REWET	n/a	LTP212	ltpFR	1	12	n/a	n/a	n/a	n/a	n/a	n/a	n/a	n/a	n/a	n/a
2225951	WORD	wordpools/wasnorm_wordpool_less_exclusions.txt	LTP212	ltpFR	1	13	-1	DRUM	502	n/a	-1	1	1.0	1.0	upper	../fonts/Verdana.ttf
2230012	WORD	wordpools/wasnorm_wordpool_less_exclusions.txt	LTP212	ltpFR	1	13	-1	DINNER	468	n/a	-1	1	1.0	1.0	upper	../fonts/Verdana.ttf
2234155	WORD	wordpools/wasnorm_wordpool_less_exclusions.txt	LTP212	ltpFR	1	13	-1	TELEPHONE	1445	n/a	-1	1	1.0	1.0	upper	../fonts/Verdana.ttf
2238049	WORD	wordpools/wasnorm_wordpool_less_exclusions.txt	LTP212	ltpFR	1	13	-1	BOOTH	151	n/a	-1	1	1.0	1.0	upper	../fonts/Verdana.ttf
2242110	WORD	wordpools/wasnorm_wordpool_less_exclusions.txt	LTP212	ltpFR	1	13	-1	BARREL	91	n/a	-1	1	1.0	1.0	upper	../fonts/Verdana.ttf
2246187	WORD	wordpools/wasnorm_wordpool_less_exclusions.txt	LTP212	ltpFR	1	13	-1	STRING	1394	n/a	-1	1	1.0	1.0	upper	../fonts/Verdana.ttf
2250248	WORD	wordpools/wasnorm_wordpool_less_exclusions.txt	LTP212	ltpFR	1	13	-1	DONOR	485	n/a	-1	1	1.0	1.0	upper	../fonts/Verdana.ttf
2254259	WORD	wordpools/wasnorm_wordpool_less_exclusions.txt	LTP212	ltpFR	1	13	-1	LIBRARY	816	n/a	-1	1	1.0	1.0	upper	../fonts/Verdana.ttf
2258319	WORD	wordpools/wasnorm_wordpool_less_exclusions.txt	LTP212	ltpFR	1	13	-1	KEYBOARD	774	n/a	-1	1	1.0	1.0	upper	../fonts/Verdana.ttf
2262462	WORD	wordpools/wasnorm_wordpool_less_exclusions.txt	LTP212	ltpFR	1	13	-1	LUNCH	849	n/a	-1	1	1.0	1.0	upper	../fonts/Verdana.ttf
2266623	WORD	wordpools/wasnorm_wordpool_less_exclusions.txt	LTP212	ltpFR	1	13	-1	BUSH	202	n/a	-1	1	1.0	1.0	upper	../fonts/Verdana.ttf
2270450	WORD	wordpools/wasnorm_wordpool_less_exclusions.txt	LTP212	ltpFR	1	13	-1	MAPLE	866	n/a	-1	1	1.0	1.0	upper	../fonts/Verdana.ttf
2274627	WORD	wordpools/wasnorm_wordpool_less_exclusions.txt	LTP212	ltpFR	1	13	-1	POET	1095	n/a	-1	1	1.0	1.0	upper	../fonts/Verdana.ttf
2278688	WORD	wordpools/wasnorm_wordpool_less_exclusions.txt	LTP212	ltpFR	1	13	-1	OLIVE	975	n/a	-1	1	1.0	1.0	upper	../fonts/Verdana.ttf
2282615	WORD	wordpools/wasnorm_wordpool_less_exclusions.txt	LTP212	ltpFR	1	13	-1	GRILL	661	n/a	-1	1	1.0	1.0	upper	../fonts/Verdana.ttf
2286576	WORD	wordpools/wasnorm_wordpool_less_exclusions.txt	LTP212	ltpFR	1	13	-1	ROOM	1206	n/a	-1	1	1.0	1.0	upper	../fonts/Verdana.ttf
2292319	REC_START	n/a	LTP212	ltpFR	1	13	n/a	n/a	n/a	n/a	n/a	n/a	n/a	n/a	n/a	n/a
2293297	REC_WORD	wordpools/wasnorm_wordpool_less_exclusions.txt	LTP212	ltpFR	1	13	-1	KEYBOARD	774	n/a	-1	n/a	n/a	n/a	n/a	n/a
2293918	REC_WORD	wordpools/wasnorm_wordpool_less_exclusions.txt	LTP212	ltpFR	1	13	-1	LUNCH	849	n/a	-1	n/a	n/a	n/a	n/a	n/a
2294763	REC_WORD	wordpools/wasnorm_wordpool_less_exclusions.txt	LTP212	ltpFR	1	13	-1	POET	1095	n/a	-1	n/a	n/a	n/a	n/a	n/a
2295851	REC_WORD	wordpools/wasnorm_wordpool_less_exclusions.txt	LTP212	ltpFR	1	13	-1	ROOM	1206	n/a	-1	n/a	n/a	n/a	n/a	n/a
2297292	REC_WORD	wordpools/wasnorm_wordpool_less_exclusions.txt	LTP212	ltpFR	1	13	-1	MAPLE	866	n/a	-1	n/a	n/a	n/a	n/a	n/a
2379838	WORD	wordpools/wasnorm_wordpool_less_exclusions.txt	LTP212	ltpFR	1	14	1	FAUCET	555	n/a	0	0	0.5869140625	0.422607421875	lower	../fonts/amplitud.ttf
2383749	WORD	wordpools/wasnorm_wordpool_less_exclusions.txt	LTP212	ltpFR	1	14	1	BOOK	149	n/a	0	0	0.5869140625	0.422607421875	lower	../fonts/amplitud.ttf
2387776	WORD	wordpools/wasnorm_wordpool_less_exclusions.txt	LTP212	ltpFR	1	14	1	BUTTERFLY	206	n/a	1	0	0.5869140625	0.422607421875	lower	../fonts/amplitud.ttf
2391770	WORD	wordpools/wasnorm_wordpool_less_exclusions.txt	LTP212	ltpFR	1	14	1	MIRROR	899	n/a	0	0	0.5869140625	0.422607421875	lower	../fonts/amplitud.ttf
2395713	WORD	wordpools/wasnorm_wordpool_less_exclusions.txt	LTP212	ltpFR	1	14	1	SALMON	1227	n/a	1	0	0.5869140625	0.422607421875	lower	../fonts/amplitud.ttf
2399591	WORD	wordpools/wasnorm_wordpool_less_exclusions.txt	LTP212	ltpFR	1	14	0	CREATURE	403	n/a	1	1	0.412841796875	0.57763671875	upper	../fonts/zerothre.ttf
2403785	WORD	wordpools/wasnorm_wordpool_less_exclusions.txt	LTP212	ltpFR	1	14	0	VALVE	1546	n/a	0	1	0.412841796875	0.57763671875	upper	../fonts/zerothre.ttf
2407796	WORD	wordpools/wasnorm_wordpool_less_exclusions.txt	LTP212	ltpFR	1	14	0	SURVEY	1414	n/a	0	1	0.412841796875	0.57763671875	upper	../fonts/zerothre.ttf
2411790	WORD	wordpools/wasnorm_wordpool_less_exclusions.txt	LTP212	ltpFR	1	14	1	TUBE	1516	n/a	0	0	0.5869140625	0.422607421875	lower	../fonts/amplitud.ttf
2415834	WORD	wordpools/wasnorm_wordpool_less_exclusions.txt	LTP212	ltpFR	1	14	1	MONGOOSE	909	n/a	1	0	0.5869140625	0.422607421875	lower	../fonts/amplitud.ttf
2419677	WORD	wordpools/wasnorm_wordpool_less_exclusions.txt	LTP212	ltpFR	1	14	1	EYELASH	546	n/a	1	0	0.5869140625	0.422607421875	lower	../fonts/amplitud.ttf
2423872	WORD	wordpools/wasnorm_wordpool_less_exclusions.txt	LTP212	ltpFR	1	14	0	SPY	1360	n/a	1	1	0.412841796875	0.57763671875	upper	../fonts/zerothre.ttf
2427916	WORD	wordpools/wasnorm_wordpool_less_exclusions.txt	LTP212	ltpFR	1	14	0	ELM	527	n/a	1	1	0.412841796875	0.57763671875	upper	../fonts/zerothre.ttf
2431860	WORD	wordpools/wasnorm_wordpool_less_exclusions.txt	LTP212	ltpFR	1	14	0	TWIG	1527	n/a	0	1	0.412841796875	0.57763671875	upper	../fonts/zerothre.ttf
2435987	WORD	wordpools/wasnorm_wordpool_less_exclusions.txt	LTP212	ltpFR	1	14	0	RAIL	1161	n/a	1	1	0.412841796875	0.57763671875	upper	../fonts/zerothre.ttf
2440181	WORD	wordpools/wasnorm_wordpool_less_exclusions.txt	LTP212	ltpFR	1	14	0	BARRACUDA	90	n/a	1	1	0.412841796875	0.57763671875	upper	../fonts/zerothre.ttf
2445940	REC_START	n/a	LTP212	ltpFR	1	14	n/a	n/a	n/a	n/a	n/a	n/a	n/a	n/a	n/a	n/a
2447152	REC_WORD	wordpools/wasnorm_wordpool_less_exclusions.txt	LTP212	ltpFR	1	14	0	TWIG	1527	n/a	0	n/a	n/a	n/a	n/a	n/a
2448080	REC_WORD	wordpools/wasnorm_wordpool_less_exclusions.txt	LTP212	ltpFR	1	14	0	RAIL	1161	n/a	1	n/a	n/a	n/a	n/a	n/a
2449262	REC_WORD	wordpools/wasnorm_wordpool_less_exclusions.txt	LTP212	ltpFR	1	14	0	BARRACUDA	90	n/a	1	n/a	n/a	n/a	n/a	n/a
2451078	REC_WORD	wordpools/wasnorm_wordpool_less_exclusions.txt	LTP212	ltpFR	1	14	0	ELM	527	n/a	1	n/a	n/a	n/a	n/a	n/a
2467371	REC_WORD	wordpools/wasnorm_wordpool_less_exclusions.txt	LTP212	ltpFR	1	14	1	EYELASH	546	n/a	1	n/a	n/a	n/a	n/a	n/a
2483410	REC_WORD	wordpools/wasnorm_wordpool_less_exclusions.txt	LTP212	ltpFR	1	14	0	SURVEY	1414	n/a	0	n/a	n/a	n/a	n/a	n/a
2529563	WORD	wordpools/wasnorm_wordpool_less_exclusions.txt	LTP212	ltpFR	1	15	0	TUXEDO	1525	n/a	1	1	0.412841796875	0.57763671875	upper	../fonts/zerothre.ttf
2533690	WORD	wordpools/wasnorm_wordpool_less_exclusions.txt	LTP212	ltpFR	1	15	0	ARTIST	43	n/a	1	1	0.412841796875	0.57763671875	upper	../fonts/zerothre.ttf
2537618	WORD	wordpools/wasnorm_wordpool_less_exclusions.txt	LTP212	ltpFR	1	15	0	PONY	1102	n/a	1	1	0.412841796875	0.57763671875	upper	../fonts/zerothre.ttf
2541545	WORD	wordpools/wasnorm_wordpool_less_exclusions.txt	LTP212	ltpFR	1	15	0	COWBOY	395	n/a	1	1	0.412841796875	0.57763671875	upper	../fonts/zerothre.ttf
2545390	WORD	wordpools/wasnorm_wordpool_less_exclusions.txt	LTP212	ltpFR	1	15	0	BOARD	143	n/a	1	1	0.412841796875	0.57763671875	upper	../fonts/zerothre.ttf
2549235	WORD	wordpools/wasnorm_wordpool_less_exclusions.txt	LTP212	ltpFR	1	15	0	DART	440	n/a	0	1	0.412841796875	0.57763671875	upper	../fonts/zerothre.ttf
2553245	WORD	wordpools/wasnorm_wordpool_less_exclusions.txt	LTP212	ltpFR	1	15	0	PAINTING	1005	n/a	1	1	0.412841796875	0.57763671875	upper	../fonts/zerothre.ttf
2557090	WORD	wordpools/wasnorm_wordpool_less_exclusions.txt	LTP212	ltpFR	1	15	0	COTTAGE	384	n/a	1	1	0.412841796875	0.57763671875	upper	../fonts/zerothre.ttf
2561217	WORD	wordpools/wasnorm_wordpool_less_exclusions.txt	LTP212	ltpFR	1	15	0	GOLD	647	n/a	0	1	0.412841796875	0.57763671875	upper	../fonts/zerothre.ttf
2565144	WORD	wordpools/wasnorm_wordpool_less_exclusions.txt	LTP212	ltpFR	1	15	0	SAW	1239	n/a	1	1	0.412841796875	0.57763671875	upper	../fonts/zerothre.ttf
2569138	WORD	wordpools/wasnorm_wordpool_less_exclusions.txt	LTP212	ltpFR	1	15	0	PALACE	1006	n/a	1	1	0.412841796875	0.57763671875	upper	../fonts/zerothre.ttf
2573232	WORD	wordpools/wasnorm_wordpool_less_exclusions.txt	LTP212	ltpFR	1	15	0	LAGOON	795	n/a	1	1	0.412841796875	0.57763671875	upper	../fonts/zerothre.ttf
2577293	WORD	wordpools/wasnorm_wordpool_less_exclusions.txt	LTP212	ltpFR	1	15	0	CUPBOARD	425	n/a	1	1	0.412841796875	0.57763671875	upper	../fonts/zerothre.ttf
2581254	WORD	wordpools/wasnorm_wordpool_less_exclusions.txt	LTP212	ltpFR	1	15	0	SALAD	1224	n/a	0	1	0.412841796875	0.57763671875	upper	../fonts/zerothre.ttf
2585214	WORD	wordpools/wasnorm_wordpool_less_exclusions.txt	LTP212	ltpFR	1	15	0	ATTIRE	57	n/a	1	1	0.412841796875	0.57763671875	upper	../fonts/zerothre.ttf
2589225	WORD	wordpools/wasnorm_wordpool_less_exclusions.txt	LTP212	ltpFR	1	15	0	CAN	225	n/a	0	1	0.412841796875	0.57763671875	upper	../fonts/zerothre.ttf
2595000	REC_START	n/a	LTP212	ltpFR	1	15	n/a	n/a	n/a	n/a	n/a	n/a	n/a	n/a	n/a	n/a
2596262	REC_WORD	wordpools/wasnorm_wordpool_less_exclusions.txt	LTP212	ltpFR	1	15	0	CAN	225	n/a	0	n/a	n/a	n/a	n/a	n/a
2597299	REC_WORD	wordpools/wasnorm_wordpool_less_exclusions.txt	LTP212	ltpFR	1	15	0	SALAD	1224	n/a	0	n/a	n/a	n/a	n/a	n/a
2598971	REC_WORD	wordpools/wasnorm_wordpool_less_exclusions.txt	LTP212	ltpFR	1	15	0	ATTIRE	57	n/a	1	n/a	n/a	n/a	n/a	n/a
2600348	REC_WORD	wordpools/wasnorm_wordpool_less_exclusions.txt	LTP212	ltpFR	1	15	0	TUXEDO	1525	n/a	1	n/a	n/a	n/a	n/a	n/a
2602253	REC_WORD	wordpools/wasnorm_wordpool_less_exclusions.txt	LTP212	ltpFR	1	15	0	LAGOON	795	n/a	1	n/a	n/a	n/a	n/a	n/a
2617164	REC_WORD	wordpools/wasnorm_wordpool_less_exclusions.txt	LTP212	ltpFR	1	15	0	CUPBOARD	425	n/a	1	n/a	n/a	n/a	n/a	n/a
2657852	REC_WORD	wordpools/wasnorm_wordpool_less_exclusions.txt	LTP212	ltpFR	1	15	0	DART	440	n/a	0	n/a	n/a	n/a	n/a	n/a
2681138	WORD	wordpools/wasnorm_wordpool_less_exclusions.txt	LTP212	ltpFR	1	16	-1	ONION	977	n/a	-1	1	1.0	1.0	upper	../fonts/Verdana.ttf
2685065	WORD	wordpools/wasnorm_wordpool_less_exclusions.txt	LTP212	ltpFR	1	16	-1	BUTTER	205	n/a	-1	1	1.0	1.0	upper	../fonts/Verdana.ttf
2689275	WORD	wordpools/wasnorm_wordpool_less_exclusions.txt	LTP212	ltpFR	1	16	-1	BOULEVARD	156	n/a	-1	1	1.0	1.0	upper	../fonts/Verdana.ttf
2693270	WORD	wordpools/wasnorm_wordpool_less_exclusions.txt	LTP212	ltpFR	1	16	-1	HIKER	708	n/a	-1	1	1.0	1.0	upper	../fonts/Verdana.ttf
2697462	WORD	wordpools/wasnorm_wordpool_less_exclusions.txt	LTP212	ltpFR	1	16	-1	LOFT	840	n/a	-1	1	1.0	1.0	upper	../fonts/Verdana.ttf
2701374	WORD	wordpools/wasnorm_wordpool_less_exclusions.txt	LTP212	ltpFR	1	16	-1	HANGER	687	n/a	-1	1	1.0	1.0	upper	../fonts/Verdana.ttf
2705401	WORD	wordpools/wasnorm_wordpool_less_exclusions.txt	LTP212	ltpFR	1	16	-1	MAN	862	n/a	-1	1	1.0	1.0	upper	../fonts/Verdana.ttf
2709444	WORD	wordpools/wasnorm_wordpool_less_exclusions.txt	LTP212	ltpFR	1	16	-1	RACCOON	1153	n/a	-1	1	1.0	1.0	upper	../fonts/Verdana.ttf
2713605	WORD	wordpools/wasnorm_wordpool_less_exclusions.txt	LTP212	ltpFR	1	16	-1	PENNY	1045	n/a	-1	1	1.0	1.0	upper	../fonts/Verdana.ttf
2717715	WORD	wordpools/wasnorm_wordpool_less_exclusions.txt	LTP212	ltpFR	1	16	-1	QUARTER	1148	n/a	-1	1	1.0	1.0	upper	../fonts/Verdana.ttf
2721927	WORD	wordpools/wasnorm_wordpool_less_exclusions.txt	LTP212	ltpFR	1	16	-1	CASH	252	n/a	-1	1	1.0	1.0	upper	../fonts/Verdana.ttf
2725954	WORD	wordpools/wasnorm_wordpool_less_exclusions.txt	LTP212	ltpFR	1	16	-1	PRINCESS	1125	n/a	-1	1	1.0	1.0	upper	../fonts/Verdana.ttf
2729931	WORD	wordpools/wasnorm_wordpool_less_exclusions.txt	LTP212	ltpFR	1	16	-1	THRONE	1461	n/a	-1	1	1.0	1.0	upper	../fonts/Verdana.ttf
2733826	WORD	wordpools/wasnorm_wordpool_less_exclusions.txt	LTP212	ltpFR	1	16	-1	CLOTHES	327	n/a	-1	1	1.0	1.0	upper	../fonts/Verdana.ttf
2738053	WORD	wordpools/wasnorm_wordpool_less_exclusions.txt	LTP212	ltpFR	1	16	-1	COLOGNE	347	n/a	-1	1	1.0	1.0	upper	../fonts/Verdana.ttf
2742246	WORD	wordpools/wasnorm_wordpool_less_exclusions.txt	LTP212	ltpFR	1	16	-1	CARRIAGE	248	n/a	-1	1	1.0	1.0	upper	../fonts/Verdana.ttf
2747872	REC_START	n/a	LTP212	ltpFR	1	16	n/a	n/a	n/a	n/a	n/a	n/a	n/a	n/a	n/a	n/a
2748381	REC_WORD	wordpools/wasnorm_wordpool_less_exclusions.txt	LTP212	ltpFR	1	16	-1	PRINCESS	1125	n/a	-1	n/a	n/a	n/a	n/a	n/a
2749468	REC_WORD	wordpools/wasnorm_wordpool_less_exclusions.txt	LTP212	ltpFR	1	16	-1	THRONE	1461	n/a	-1	n/a	n/a	n/a	n/a	n/a
2751439	REC_WORD	wordpools/wasnorm_wordpool_less_exclusions.txt	LTP212	ltpFR	1	16	-1	COLOGNE	347	n/a	-1	n/a	n/a	n/a	n/a	n/a
2753155	REC_WORD	wordpools/wasnorm_wordpool_less_exclusions.txt	LTP212	ltpFR	1	16	-1	CARRIAGE	248	n/a	-1	n/a	n/a	n/a	n/a	n/a
2755839	REC_WORD	wordpools/wasnorm_wordpool_less_exclusions.txt	LTP212	ltpFR	1	16	-1	PENNY	1045	n/a	-1	n/a	n/a	n/a	n/a	n/a
2757315	REC_WORD	wordpools/wasnorm_wordpool_less_exclusions.txt	LTP212	ltpFR	1	16	-1	QUARTER	1148	n/a	-1	n/a	n/a	n/a	n/a	n/a
2759196	REC_WORD	wordpools/wasnorm_wordpool_less_exclusions.txt	LTP212	ltpFR	1	16	-1	CASH	252	n/a	-1	n/a	n/a	n/a	n/a	n/a
2760902	REC_WORD	wordpools/wasnorm_wordpool_less_exclusions.txt	LTP212	ltpFR	1	16	-1	ONION	977	n/a	-1	n/a	n/a	n/a	n/a	n/a
2762514	REC_WORD	wordpools/wasnorm_wordpool_less_exclusions.txt	LTP212	ltpFR	1	16	-1	BUTTER	205	n/a	-1	n/a	n/a	n/a	n/a	n/a
2766799	REC_WORD	wordpools/wasnorm_wordpool_less_exclusions.txt	LTP212	ltpFR	1	16	-1	BOULEVARD	156	n/a	-1	n/a	n/a	n/a	n/a	n/a
2768783	REC_WORD	wordpools/wasnorm_wordpool_less_exclusions.txt	LTP212	ltpFR	1	16	-1	RACCOON	1153	n/a	-1	n/a	n/a	n/a	n/a	n/a
2893470	REC_START	n/a	LTP212	ltpFR	1	1	n/a	n/a	n/a	n/a	n/a	n/a	n/a	n/a	n/a	n/a
2893503	RECOG_TARGET	n/a	LTP212	ltpFR	1	1	0	HEADBAND	696	3	0	n/a	n/a	n/a	n/a	n/a
2895869	RECOG_RESP	n/a	LTP212	ltpFR	1	1	0	HEADBAND	696	n/a	0	n/a	n/a	n/a	n/a	n/a
2898693	RECOG_CONF	n/a	LTP212	ltpFR	1	1	0	HEADBAND	696	3	0	n/a	n/a	n/a	n/a	n/a
2901009	RECOG_LURE	n/a	LTP212	ltpFR	1	1	n/a	DESSERT	453	2	n/a	n/a	n/a	n/a	n/a	n/a
2902365	RECOG_RESP	n/a	LTP212	ltpFR	1	1	n/a	DESSERT	453	n/a	n/a	n/a	n/a	n/a	n/a	n/a
2904081	RECOG_CONF	n/a	LTP212	ltpFR	1	1	n/a	DESSERT	453	2	n/a	n/a	n/a	n/a	n/a	n/a
2906052	RECOG_TARGET	n/a	LTP212	ltpFR	1	1	1	MAGAZINE	853	3	0	n/a	n/a	n/a	n/a	n/a
2907089	RECOG_RESP	n/a	LTP212	ltpFR	1	1	1	MAGAZINE	853	n/a	0	n/a	n/a	n/a	n/a	n/a
2908590	RECOG_CONF	n/a	LTP212	ltpFR	1	1	1	MAGAZINE	853	3	0	n/a	n/a	n/a	n/a	n/a
2910395	RECOG_TARGET	n/a	LTP212	ltpFR	1	1	0	SUBMARINE	1398	4	1	n/a	n/a	n/a	n/a	n/a
2911484	RECOG_RESP	n/a	LTP212	ltpFR	1	1	0	SUBMARINE	1398	n/a	1	n/a	n/a	n/a	n/a	n/a
2912931	RECOG_CONF	n/a	LTP212	ltpFR	1	1	0	SUBMARINE	1398	4	1	n/a	n/a	n/a	n/a	n/a
2915072	RECOG_TARGET	n/a	LTP212	ltpFR	1	1	-1	HIKER	708	1	-1	n/a	n/a	n/a	n/a	n/a
2916223	RECOG_RESP	n/a	LTP212	ltpFR	1	1	-1	HIKER	708	n/a	-1	n/a	n/a	n/a	n/a	n/a
2917600	RECOG_CONF	n/a	LTP212	ltpFR	1	1	-1	HIKER	708	1	-1	n/a	n/a	n/a	n/a	n/a
2919447	RECOG_LURE	n/a	LTP212	ltpFR	1	1	n/a	VIRUS	1572	2	n/a	n/a	n/a	n/a	n/a	n/a
2920838	RECOG_RESP	n/a	LTP212	ltpFR	1	1	n/a	VIRUS	1572	n/a	n/a	n/a	n/a	n/a	n/a	n/a
2922190	RECOG_CONF	n/a	LTP212	ltpFR	1	1	n/a	VIRUS	1572	2	n/a	n/a	n/a	n/a	n/a	n/a
2924158	RECOG_TARGET	n/a	LTP212	ltpFR	1	1	0	SUITCASE	1403	3	1	n/a	n/a	n/a	n/a	n/a
2925592	RECOG_RESP	n/a	LTP212	ltpFR	1	1	0	SUITCASE	1403	n/a	1	n/a	n/a	n/a	n/a	n/a
2926989	RECOG_CONF	n/a	LTP212	ltpFR	1	1	0	SUITCASE	1403	3	1	n/a	n/a	n/a	n/a	n/a
2929034	RECOG_TARGET	n/a	LTP212	ltpFR	1	1	1	SMOG	1330	1	0	n/a	n/a	n/a	n/a	n/a
2930171	RECOG_RESP	n/a	LTP212	ltpFR	1	1	1	SMOG	1330	n/a	0	n/a	n/a	n/a	n/a	n/a
2931538	RECOG_CONF	n/a	LTP212	ltpFR	1	1	1	SMOG	1330	1	0	n/a	n/a	n/a	n/a	n/a
2933526	RECOG_LURE	n/a	LTP212	ltpFR	1	1	n/a	BEEF	113	1	n/a	n/a	n/a	n/a	n/a	n/a
2934946	RECOG_RESP	n/a	LTP212	ltpFR	1	1	n/a	BEEF	113	n/a	n/a	n/a	n/a	n/a	n/a	n/a
2936417	RECOG_CONF	n/a	LTP212	ltpFR	1	1	n/a	BEEF	113	1	n/a	n/a	n/a	n/a	n/a	n/a
2938403	RECOG_TARGET	n/a	LTP212	ltpFR	1	1	-1	CASH	252	5	-1	n/a	n/a	n/a	n/a	n/a
2940004	RECOG_RESP	n/a	LTP212	ltpFR	1	1	-1	CASH	252	n/a	-1	n/a	n/a	n/a	n/a	n/a
2941336	RECOG_CONF	n/a	LTP212	ltpFR	1	1	-1	CASH	252	5	-1	n/a	n/a	n/a	n/a	n/a
2943263	RECOG_TARGET	n/a	LTP212	ltpFR	1	1	1	SOAP	1337	1	0	n/a	n/a	n/a	n/a	n/a
2944703	RECOG_RESP	n/a	LTP212	ltpFR	1	1	1	SOAP	1337	n/a	0	n/a	n/a	n/a	n/a	n/a
2945946	RECOG_CONF	n/a	LTP212	ltpFR	1	1	1	SOAP	1337	1	0	n/a	n/a	n/a	n/a	n/a
2947939	RECOG_TARGET	n/a	LTP212	ltpFR	1	1	0	LAGOON	795	5	1	n/a	n/a	n/a	n/a	n/a
2948784	RECOG_RESP	n/a	LTP212	ltpFR	1	1	0	LAGOON	795	n/a	1	n/a	n/a	n/a	n/a	n/a
2949976	RECOG_CONF	n/a	LTP212	ltpFR	1	1	0	LAGOON	795	5	1	n/a	n/a	n/a	n/a	n/a
2951867	RECOG_TARGET	n/a	LTP212	ltpFR	1	1	1	PLUMBER	1091	4	1	n/a	n/a	n/a	n/a	n/a
2952780	RECOG_RESP	n/a	LTP212	ltpFR	1	1	1	PLUMBER	1091	n/a	1	n/a	n/a	n/a	n/a	n/a
2953967	RECOG_CONF	n/a	LTP212	ltpFR	1	1	1	PLUMBER	1091	4	1	n/a	n/a	n/a	n/a	n/a
2955777	RECOG_LURE	n/a	LTP212	ltpFR	1	1	n/a	REFEREE	1178	3	n/a	n/a	n/a	n/a	n/a	n/a
2957554	RECOG_RESP	n/a	LTP212	ltpFR	1	1	n/a	REFEREE	1178	n/a	n/a	n/a	n/a	n/a	n/a	n/a
2958856	RECOG_CONF	n/a	LTP212	ltpFR	1	1	n/a	REFEREE	1178	3	n/a	n/a	n/a	n/a	n/a	n/a
2960787	RECOG_TARGET	n/a	LTP212	ltpFR	1	1	-1	TELEPHONE	1445	1	-1	n/a	n/a	n/a	n/a	n/a
2962029	RECOG_RESP	n/a	LTP212	ltpFR	1	1	-1	TELEPHONE	1445	n/a	-1	n/a	n/a	n/a	n/a	n/a
2963336	RECOG_CONF	n/a	LTP212	ltpFR	1	1	-1	TELEPHONE	1445	1	-1	n/a	n/a	n/a	n/a	n/a
2965230	RECOG_TARGET	n/a	LTP212	ltpFR	1	1	-1	MUSEUM	933	5	-1	n/a	n/a	n/a	n/a	n/a
2966269	RECOG_RESP	n/a	LTP212	ltpFR	1	1	-1	MUSEUM	933	n/a	-1	n/a	n/a	n/a	n/a	n/a
2967626	RECOG_CONF	n/a	LTP212	ltpFR	1	1	-1	MUSEUM	933	5	-1	n/a	n/a	n/a	n/a	n/a
2969556	RECOG_TARGET	n/a	LTP212	ltpFR	1	1	-1	FIREMAN	569	2	-1	n/a	n/a	n/a	n/a	n/a
2970590	RECOG_RESP	n/a	LTP212	ltpFR	1	1	-1	FIREMAN	569	n/a	-1	n/a	n/a	n/a	n/a	n/a
2972096	RECOG_CONF	n/a	LTP212	ltpFR	1	1	-1	FIREMAN	569	2	-1	n/a	n/a	n/a	n/a	n/a
2973900	RECOG_LURE	n/a	LTP212	ltpFR	1	1	n/a	GATE	625	1	n/a	n/a	n/a	n/a	n/a	n/a
2975349	RECOG_RESP	n/a	LTP212	ltpFR	1	1	n/a	GATE	625	n/a	n/a	n/a	n/a	n/a	n/a	n/a
2976636	RECOG_CONF	n/a	LTP212	ltpFR	1	1	n/a	GATE	625	1	n/a	n/a	n/a	n/a	n/a	n/a
2978509	RECOG_TARGET	n/a	LTP212	ltpFR	1	1	0	MISTER	901	3	1	n/a	n/a	n/a	n/a	n/a
2980108	RECOG_RESP	n/a	LTP212	ltpFR	1	1	0	MISTER	901	n/a	1	n/a	n/a	n/a	n/a	n/a
2981315	RECOG_CONF	n/a	LTP212	ltpFR	1	1	0	MISTER	901	3	1	n/a	n/a	n/a	n/a	n/a
2983087	RECOG_TARGET	n/a	LTP212	ltpFR	1	1	-1	CLOTHES	327	1	-1	n/a	n/a	n/a	n/a	n/a
2984742	RECOG_RESP	n/a	LTP212	ltpFR	1	1	-1	CLOTHES	327	n/a	-1	n/a	n/a	n/a	n/a	n/a
2985925	RECOG_CONF	n/a	LTP212	ltpFR	1	1	-1	CLOTHES	327	1	-1	n/a	n/a	n/a	n/a	n/a
3003739	REC_START	n/a	LTP212	ltpFR	1	2	n/a	n/a	n/a	n/a	n/a	n/a	n/a	n/a	n/a	n/a
3003772	RECOG_TARGET	n/a	LTP212	ltpFR	1	2	0	WRIST	1626	2	0	n/a	n/a	n/a	n/a	n/a
3005305	RECOG_RESP	n/a	LTP212	ltpFR	1	2	0	WRIST	1626	n/a	0	n/a	n/a	n/a	n/a	n/a
3006547	RECOG_CONF	n/a	LTP212	ltpFR	1	2	0	WRIST	1626	2	0	n/a	n/a	n/a	n/a	n/a
3008282	RECOG_LURE	n/a	LTP212	ltpFR	1	2	n/a	DRINK	498	1	n/a	n/a	n/a	n/a	n/a	n/a
3009670	RECOG_RESP	n/a	LTP212	ltpFR	1	2	n/a	DRINK	498	n/a	n/a	n/a	n/a	n/a	n/a	n/a
3011656	RECOG_CONF	n/a	LTP212	ltpFR	1	2	n/a	DRINK	498	1	n/a	n/a	n/a	n/a	n/a	n/a
3013707	RECOG_TARGET	n/a	LTP212	ltpFR	1	2	0	SPIDER	1351	2	0	n/a	n/a	n/a	n/a	n/a
3014729	RECOG_RESP	n/a	LTP212	ltpFR	1	2	0	SPIDER	1351	n/a	0	n/a	n/a	n/a	n/a	n/a
3016046	RECOG_CONF	n/a	LTP212	ltpFR	1	2	0	SPIDER	1351	2	0	n/a	n/a	n/a	n/a	n/a
3017851	RECOG_LURE	n/a	LTP212	ltpFR	1	2	n/a	BOYFRIEND	162	3	n/a	n/a	n/a	n/a	n/a	n/a
3019393	RECOG_RESP	n/a	LTP212	ltpFR	1	2	n/a	BOYFRIEND	162	n/a	n/a	n/a	n/a	n/a	n/a	n/a
3020635	RECOG_CONF	n/a	LTP212	ltpFR	1	2	n/a	BOYFRIEND	162	3	n/a	n/a	n/a	n/a	n/a	n/a
3022543	RECOG_TARGET	n/a	LTP212	ltpFR	1	2	0	THIMBLE	1458	4	0	n/a	n/a	n/a	n/a	n/a
3023654	RECOG_RESP	n/a	LTP212	ltpFR	1	2	0	THIMBLE	1458	n/a	0	n/a	n/a	n/a	n/a	n/a
3024696	RECOG_CONF	n/a	LTP212	ltpFR	1	2	0	THIMBLE	1458	4	0	n/a	n/a	n/a	n/a	n/a
3026637	RECOG_TARGET	n/a	LTP212	ltpFR	1	2	-1	DRUM	502	3	-1	n/a	n/a	n/a	n/a	n/a
3027684	RECOG_RESP	n/a	LTP212	ltpFR	1	2	-1	DRUM	502	n/a	-1	n/a	n/a	n/a	n/a	n/a
3028807	RECOG_CONF	n/a	LTP212	ltpFR	1	2	-1	DRUM	502	3	-1	n/a	n/a	n/a	n/a	n/a
3030631	RECOG_LURE	n/a	LTP212	ltpFR	1	2	n/a	MUMMY	932	5	n/a	n/a	n/a	n/a	n/a	n/a
3032044	RECOG_RESP	n/a	LTP212	ltpFR	1	2	n/a	MUMMY	932	n/a	n/a	n/a	n/a	n/a	n/a	n/a
3033796	RECOG_CONF	n/a	LTP212	ltpFR	1	2	n/a	MUMMY	932	5	n/a	n/a	n/a	n/a	n/a	n/a
3035624	RECOG_LURE	n/a	LTP212	ltpFR	1	2	n/a	INN	739	1	n/a	n/a	n/a	n/a	n/a	n/a
3038245	RECOG_RESP	n/a	LTP212	ltpFR	1	2	n/a	INN	739	n/a	n/a	n/a	n/a	n/a	n/a	n/a
3039792	RECOG_CONF	n/a	LTP212	ltpFR	1	2	n/a	INN	739	1	n/a	n/a	n/a	n/a	n/a	n/a
3041832	RECOG_LURE	n/a	LTP212	ltpFR	1	2	n/a	BANANA	77	1	n/a	n/a	n/a	n/a	n/a	n/a
3043658	RECOG_RESP	n/a	LTP212	ltpFR	1	2	n/a	BANANA	77	n/a	n/a	n/a	n/a	n/a	n/a	n/a
3045020	RECOG_CONF	n/a	LTP212	ltpFR	1	2	n/a	BANANA	77	1	n/a	n/a	n/a	n/a	n/a	n/a
3046975	RECOG_LURE	n/a	LTP212	ltpFR	1	2	n/a	SWORD	1423	1	n/a	n/a	n/a	n/a	n/a	n/a
3049395	RECOG_RESP	n/a	LTP212	ltpFR	1	2	n/a	SWORD	1423	n/a	n/a	n/a	n/a	n/a	n/a	n/a
3050657	RECOG_CONF	n/a	LTP212	ltpFR	1	2	n/a	SWORD	1423	1	n/a	n/a	n/a	n/a	n/a	n/a
3052665	RECOG_TARGET	n/a	LTP212	ltpFR	1	2	0	TWIG	1527	3	0	n/a	n/a	n/a	n/a	n/a
3054094	RECOG_RESP	n/a	LTP212	ltpFR	1	2	0	TWIG	1527	n/a	0	n/a	n/a	n/a	n/a	n/a
3055357	RECOG_CONF	n/a	LTP212	ltpFR	1	2	0	TWIG	1527	3	0	n/a	n/a	n/a	n/a	n/a
3057076	RECOG_TARGET	n/a	LTP212	ltpFR	1	2	0	TUSK	1523	5	0	n/a	n/a	n/a	n/a	n/a
3058310	RECOG_RESP	n/a	LTP212	ltpFR	1	2	0	TUSK	1523	n/a	0	n/a	n/a	n/a	n/a	n/a
3059407	RECOG_CONF	n/a	LTP212	ltpFR	1	2	0	TUSK	1523	5	0	n/a	n/a	n/a	n/a	n/a
3061287	RECOG_LURE	n/a	LTP212	ltpFR	1	2	n/a	SAILOR	1223	2	n/a	n/a	n/a	n/a	n/a	n/a
3062231	RECOG_RESP	n/a	LTP212	ltpFR	1	2	n/a	SAILOR	1223	n/a	n/a	n/a	n/a	n/a	n/a	n/a
3063837	RECOG_CONF	n/a	LTP212	ltpFR	1	2	n/a	SAILOR	1223	2	n/a	n/a	n/a	n/a	n/a	n/a
3065679	RECOG_LURE	n/a	LTP212	ltpFR	1	2	n/a	STABLE	1363	1	n/a	n/a	n/a	n/a	n/a	n/a
3067639	RECOG_RESP	n/a	LTP212	ltpFR	1	2	n/a	STABLE	1363	n/a	n/a	n/a	n/a	n/a	n/a	n/a
3068976	RECOG_CONF	n/a	LTP212	ltpFR	1	2	n/a	STABLE	1363	1	n/a	n/a	n/a	n/a	n/a	n/a
3070905	RECOG_TARGET	n/a	LTP212	ltpFR	1	2	1	EYELASH	546	4	1	n/a	n/a	n/a	n/a	n/a
3071954	RECOG_RESP	n/a	LTP212	ltpFR	1	2	1	EYELASH	546	n/a	1	n/a	n/a	n/a	n/a	n/a
3073216	RECOG_CONF	n/a	LTP212	ltpFR	1	2	1	EYELASH	546	4	1	n/a	n/a	n/a	n/a	n/a
3075232	RECOG_TARGET	n/a	LTP212	ltpFR	1	2	1	BIOLOGIST	128	3	1	n/a	n/a	n/a	n/a	n/a
3076329	RECOG_RESP	n/a	LTP212	ltpFR	1	2	1	BIOLOGIST	128	n/a	1	n/a	n/a	n/a	n/a	n/a
3077666	RECOG_CONF	n/a	LTP212	ltpFR	1	2	1	BIOLOGIST	128	3	1	n/a	n/a	n/a	n/a	n/a
3079525	RECOG_TARGET	n/a	LTP212	ltpFR	1	2	1	TRASH	1497	3	0	n/a	n/a	n/a	n/a	n/a
3082250	RECOG_RESP	n/a	LTP212	ltpFR	1	2	1	TRASH	1497	n/a	0	n/a	n/a	n/a	n/a	n/a
3083632	RECOG_CONF	n/a	LTP212	ltpFR	1	2	1	TRASH	1497	3	0	n/a	n/a	n/a	n/a	n/a
3085599	RECOG_TARGET	n/a	LTP212	ltpFR	1	2	0	NERVE	944	4	0	n/a	n/a	n/a	n/a	n/a
3086605	RECOG_RESP	n/a	LTP212	ltpFR	1	2	0	NERVE	944	n/a	0	n/a	n/a	n/a	n/a	n/a
3087783	RECOG_CONF	n/a	LTP212	ltpFR	1	2	0	NERVE	944	4	0	n/a	n/a	n/a	n/a	n/a
3089660	RECOG_TARGET	n/a	LTP212	ltpFR	1	2	-1	BUSH	202	1	-1	n/a	n/a	n/a	n/a	n/a
3091265	RECOG_RESP	n/a	LTP212	ltpFR	1	2	-1	BUSH	202	n/a	-1	n/a	n/a	n/a	n/a	n/a
3092372	RECOG_CONF	n/a	LTP212	ltpFR	1	2	-1	BUSH	202	1	-1	n/a	n/a	n/a	n/a	n/a
3094270	RECOG_LURE	n/a	LTP212	ltpFR	1	2	n/a	POCKETBOOK	1094	3	n/a	n/a	n/a	n/a	n/a	n/a
3095645	RECOG_RESP	n/a	LTP212	ltpFR	1	2	n/a	POCKETBOOK	1094	n/a	n/a	n/a	n/a	n/a	n/a	n/a
3096842	RECOG_CONF	n/a	LTP212	ltpFR	1	2	n/a	POCKETBOOK	1094	3	n/a	n/a	n/a	n/a	n/a	n/a
3109383	REC_START	n/a	LTP212	ltpFR	1	3	n/a	n/a	n/a	n/a	n/a	n/a	n/a	n/a	n/a	n/a
3109415	RECOG_TARGET	n/a	LTP212	ltpFR	1	3	1	BREAST	171	5	1	n/a	n/a	n/a	n/a	n/a
3110386	RECOG_RESP	n/a	LTP212	ltpFR	1	3	1	BREAST	171	n/a	1	n/a	n/a	n/a	n/a	n/a
3111413	RECOG_CONF	n/a	LTP212	ltpFR	1	3	1	BREAST	171	5	1	n/a	n/a	n/a	n/a	n/a
3113458	RECOG_LURE	n/a	LTP212	ltpFR	1	3	n/a	APE	31	1	n/a	n/a	n/a	n/a	n/a	n/a
3115035	RECOG_RESP	n/a	LTP212	ltpFR	1	3	n/a	APE	31	n/a	n/a	n/a	n/a	n/a	n/a	n/a
3116212	RECOG_CONF	n/a	LTP212	ltpFR	1	3	n/a	APE	31	1	n/a	n/a	n/a	n/a	n/a	n/a
3118068	RECOG_TARGET	n/a	LTP212	ltpFR	1	3	0	BINDER	127	4	0	n/a	n/a	n/a	n/a	n/a
3119121	RECOG_RESP	n/a	LTP212	ltpFR	1	3	0	BINDER	127	n/a	0	n/a	n/a	n/a	n/a	n/a
3120203	RECOG_CONF	n/a	LTP212	ltpFR	1	3	0	BINDER	127	4	0	n/a	n/a	n/a	n/a	n/a
3121979	RECOG_LURE	n/a	LTP212	ltpFR	1	3	n/a	LIGHTER	819	2	n/a	n/a	n/a	n/a	n/a	n/a
3123132	RECOG_RESP	n/a	LTP212	ltpFR	1	3	n/a	LIGHTER	819	n/a	n/a	n/a	n/a	n/a	n/a	n/a
3124204	RECOG_CONF	n/a	LTP212	ltpFR	1	3	n/a	LIGHTER	819	2	n/a	n/a	n/a	n/a	n/a	n/a
3126023	RECOG_LURE	n/a	LTP212	ltpFR	1	3	n/a	LAPEL	800	3	n/a	n/a	n/a	n/a	n/a	n/a
3127377	RECOG_RESP	n/a	LTP212	ltpFR	1	3	n/a	LAPEL	800	n/a	n/a	n/a	n/a	n/a	n/a	n/a
3128375	RECOG_CONF	n/a	LTP212	ltpFR	1	3	n/a	LAPEL	800	3	n/a	n/a	n/a	n/a	n/a	n/a
3130267	RECOG_TARGET	n/a	LTP212	ltpFR	1	3	1	ARCHITECT	36	2	1	n/a	n/a	n/a	n/a	n/a
3131642	RECOG_RESP	n/a	LTP212	ltpFR	1	3	1	ARCHITECT	36	n/a	1	n/a	n/a	n/a	n/a	n/a
3132924	RECOG_CONF	n/a	LTP212	ltpFR	1	3	1	ARCHITECT	36	2	1	n/a	n/a	n/a	n/a	n/a
3134727	RECOG_LURE	n/a	LTP212	ltpFR	1	3	n/a	POLE	1097	2	n/a	n/a	n/a	n/a	n/a	n/a
3136551	RECOG_RESP	n/a	LTP212	ltpFR	1	3	n/a	POLE	1097	n/a	n/a	n/a	n/a	n/a	n/a	n/a
3138182	RECOG_CONF	n/a	LTP212	ltpFR	1	3	n/a	POLE	1097	2	n/a	n/a	n/a	n/a	n/a	n/a
3140019	RECOG_TARGET	n/a	LTP212	ltpFR	1	3	1	APARTMENT	30	3	0	n/a	n/a	n/a	n/a	n/a
3140951	RECOG_RESP	n/a	LTP212	ltpFR	1	3	1	APARTMENT	30	n/a	0	n/a	n/a	n/a	n/a	n/a
3142183	RECOG_CONF	n/a	LTP212	ltpFR	1	3	1	APARTMENT	30	3	0	n/a	n/a	n/a	n/a	n/a
3144096	RECOG_TARGET	n/a	LTP212	ltpFR	1	3	0	TIE	1466	2	0	n/a	n/a	n/a	n/a	n/a
3145875	RECOG_RESP	n/a	LTP212	ltpFR	1	3	0	TIE	1466	n/a	0	n/a	n/a	n/a	n/a	n/a
3147491	RECOG_CONF	n/a	LTP212	ltpFR	1	3	0	TIE	1466	2	0	n/a	n/a	n/a	n/a	n/a
3149388	RECOG_TARGET	n/a	LTP212	ltpFR	1	3	1	HALL	677	2	0	n/a	n/a	n/a	n/a	n/a
3152934	RECOG_RESP	n/a	LTP212	ltpFR	1	3	1	HALL	677	n/a	0	n/a	n/a	n/a	n/a	n/a
3154126	RECOG_CONF	n/a	LTP212	ltpFR	1	3	1	HALL	677	2	0	n/a	n/a	n/a	n/a	n/a
3155995	RECOG_TARGET	n/a	LTP212	ltpFR	1	3	-1	KEYBOARD	774	1	-1	n/a	n/a	n/a	n/a	n/a
3157848	RECOG_RESP	n/a	LTP212	ltpFR	1	3	-1	KEYBOARD	774	n/a	-1	n/a	n/a	n/a	n/a	n/a
3158965	RECOG_CONF	n/a	LTP212	ltpFR	1	3	-1	KEYBOARD	774	1	-1	n/a	n/a	n/a	n/a	n/a
3160755	RECOG_LURE	n/a	LTP212	ltpFR	1	3	n/a	POISON	1096	1	n/a	n/a	n/a	n/a	n/a	n/a
3162028	RECOG_RESP	n/a	LTP212	ltpFR	1	3	n/a	POISON	1096	n/a	n/a	n/a	n/a	n/a	n/a	n/a
3163265	RECOG_CONF	n/a	LTP212	ltpFR	1	3	n/a	POISON	1096	1	n/a	n/a	n/a	n/a	n/a	n/a
3165231	RECOG_TARGET	n/a	LTP212	ltpFR	1	3	0	RAIL	1161	4	1	n/a	n/a	n/a	n/a	n/a
3166174	RECOG_RESP	n/a	LTP212	ltpFR	1	3	0	RAIL	1161	n/a	1	n/a	n/a	n/a	n/a	n/a
3167216	RECOG_CONF	n/a	LTP212	ltpFR	1	3	0	RAIL	1161	4	1	n/a	n/a	n/a	n/a	n/a
3169125	RECOG_LURE	n/a	LTP212	ltpFR	1	3	n/a	GIFT	635	1	n/a	n/a	n/a	n/a	n/a	n/a
3171951	RECOG_RESP	n/a	LTP212	ltpFR	1	3	n/a	GIFT	635	n/a	n/a	n/a	n/a	n/a	n/a	n/a
3173053	RECOG_CONF	n/a	LTP212	ltpFR	1	3	n/a	GIFT	635	1	n/a	n/a	n/a	n/a	n/a	n/a
3175066	RECOG_TARGET	n/a	LTP212	ltpFR	1	3	-1	ICING	732	3	-1	n/a	n/a	n/a	n/a	n/a
3176176	RECOG_RESP	n/a	LTP212	ltpFR	1	3	-1	ICING	732	n/a	-1	n/a	n/a	n/a	n/a	n/a
3177254	RECOG_CONF	n/a	LTP212	ltpFR	1	3	-1	ICING	732	3	-1	n/a	n/a	n/a	n/a	n/a
3179344	RECOG_TARGET	n/a	LTP212	ltpFR	1	3	1	BUILDING	191	3	0	n/a	n/a	n/a	n/a	n/a
3180701	RECOG_RESP	n/a	LTP212	ltpFR	1	3	1	BUILDING	191	n/a	0	n/a	n/a	n/a	n/a	n/a
3181863	RECOG_CONF	n/a	LTP212	ltpFR	1	3	1	BUILDING	191	3	0	n/a	n/a	n/a	n/a	n/a
3183719	RECOG_TARGET	n/a	LTP212	ltpFR	1	3	-1	MICROWAVE	892	3	-1	n/a	n/a	n/a	n/a	n/a
3184866	RECOG_RESP	n/a	LTP212	ltpFR	1	3	-1	MICROWAVE	892	n/a	-1	n/a	n/a	n/a	n/a	n/a
3186044	RECOG_CONF	n/a	LTP212	ltpFR	1	3	-1	MICROWAVE	892	3	-1	n/a	n/a	n/a	n/a	n/a
3187914	RECOG_LURE	n/a	LTP212	ltpFR	1	3	n/a	TURNIP	1521	2	n/a	n/a	n/a	n/a	n/a	n/a
3189017	RECOG_RESP	n/a	LTP212	ltpFR	1	3	n/a	TURNIP	1521	n/a	n/a	n/a	n/a	n/a	n/a	n/a
3190164	RECOG_CONF	n/a	LTP212	ltpFR	1	3	n/a	TURNIP	1521	2	n/a	n/a	n/a	n/a	n/a	n/a
3191991	RECOG_LURE	n/a	LTP212	ltpFR	1	3	n/a	SCREWDRIVER	1255	2	n/a	n/a	n/a	n/a	n/a	n/a
3193462	RECOG_RESP	n/a	LTP212	ltpFR	1	3	n/a	SCREWDRIVER	1255	n/a	n/a	n/a	n/a	n/a	n/a	n/a
3194584	RECOG_CONF	n/a	LTP212	ltpFR	1	3	n/a	SCREWDRIVER	1255	2	n/a	n/a	n/a	n/a	n/a	n/a
3196467	RECOG_LURE	n/a	LTP212	ltpFR	1	3	n/a	PIMPLE	1071	4	n/a	n/a	n/a	n/a	n/a	n/a
3197632	RECOG_RESP	n/a	LTP212	ltpFR	1	3	n/a	PIMPLE	1071	n/a	n/a	n/a	n/a	n/a	n/a	n/a
3198705	RECOG_CONF	n/a	LTP212	ltpFR	1	3	n/a	PIMPLE	1071	4	n/a	n/a	n/a	n/a	n/a	n/a
3204487	REC_START	n/a	LTP212	ltpFR	1	4	n/a	n/a	n/a	n/a	n/a	n/a	n/a	n/a	n/a	n/a
3204522	RECOG_TARGET	n/a	LTP212	ltpFR	1	4	1	SALESMAN	1225	1	1	n/a	n/a	n/a	n/a	n/a
3206607	RECOG_RESP	n/a	LTP212	ltpFR	1	4	1	SALESMAN	1225	n/a	1	n/a	n/a	n/a	n/a	n/a
3207714	RECOG_CONF	n/a	LTP212	ltpFR	1	4	1	SALESMAN	1225	1	1	n/a	n/a	n/a	n/a	n/a
3209664	RECOG_TARGET	n/a	LTP212	ltpFR	1	4	1	MALL	860	3	0	n/a	n/a	n/a	n/a	n/a
3210937	RECOG_RESP	n/a	LTP212	ltpFR	1	4	1	MALL	860	n/a	0	n/a	n/a	n/a	n/a	n/a
3212085	RECOG_CONF	n/a	LTP212	ltpFR	1	4	1	MALL	860	3	0	n/a	n/a	n/a	n/a	n/a
3213992	RECOG_TARGET	n/a	LTP212	ltpFR	1	4	1	CITY	314	2	0	n/a	n/a	n/a	n/a	n/a
3214838	RECOG_RESP	n/a	LTP212	ltpFR	1	4	1	CITY	314	n/a	0	n/a	n/a	n/a	n/a	n/a
3216036	RECOG_CONF	n/a	LTP212	ltpFR	1	4	1	CITY	314	2	0	n/a	n/a	n/a	n/a	n/a
3217919	RECOG_LURE	n/a	LTP212	ltpFR	1	4	n/a	TOMBSTONE	1478	4	n/a	n/a	n/a	n/a	n/a	n/a
3219124	RECOG_RESP	n/a	LTP212	ltpFR	1	4	n/a	TOMBSTONE	1478	n/a	n/a	n/a	n/a	n/a	n/a	n/a
3220236	RECOG_CONF	n/a	LTP212	ltpFR	1	4	n/a	TOMBSTONE	1478	4	n/a	n/a	n/a	n/a	n/a	n/a
3222063	RECOG_TARGET	n/a	LTP212	ltpFR	1	4	1	WHISTLE	1606	1	0	n/a	n/a	n/a	n/a	n/a
3223159	RECOG_RESP	n/a	LTP212	ltpFR	1	4	1	WHISTLE	1606	n/a	0	n/a	n/a	n/a	n/a	n/a
3224247	RECOG_CONF	n/a	LTP212	ltpFR	1	4	1	WHISTLE	1606	1	0	n/a	n/a	n/a	n/a	n/a
3226074	RECOG_TARGET	n/a	LTP212	ltpFR	1	4	1	HEART	697	1	1	n/a	n/a	n/a	n/a	n/a
3228198	RECOG_RESP	n/a	LTP212	ltpFR	1	4	1	HEART	697	n/a	1	n/a	n/a	n/a	n/a	n/a
3229325	RECOG_CONF	n/a	LTP212	ltpFR	1	4	1	HEART	697	1	1	n/a	n/a	n/a	n/a	n/a
3231299	RECOG_TARGET	n/a	LTP212	ltpFR	1	4	0	OBOE	969	5	1	n/a	n/a	n/a	n/a	n/a
3232368	RECOG_RESP	n/a	LTP212	ltpFR	1	4	0	OBOE	969	n/a	1	n/a	n/a	n/a	n/a	n/a
3233496	RECOG_CONF	n/a	LTP212	ltpFR	1	4	0	OBOE	969	5	1	n/a	n/a	n/a	n/a	n/a
3235492	RECOG_TARGET	n/a	LTP212	ltpFR	1	4	0	SANDWICH	1232	2	0	n/a	n/a	n/a	n/a	n/a
3236709	RECOG_RESP	n/a	LTP212	ltpFR	1	4	0	SANDWICH	1232	n/a	0	n/a	n/a	n/a	n/a	n/a
3238056	RECOG_CONF	n/a	LTP212	ltpFR	1	4	0	SANDWICH	1232	2	0	n/a	n/a	n/a	n/a	n/a
3240020	RECOG_LURE	n/a	LTP212	ltpFR	1	4	n/a	SHED	1277	2	n/a	n/a	n/a	n/a	n/a	n/a
3241059	RECOG_RESP	n/a	LTP212	ltpFR	1	4	n/a	SHED	1277	n/a	n/a	n/a	n/a	n/a	n/a	n/a
3242266	RECOG_CONF	n/a	LTP212	ltpFR	1	4	n/a	SHED	1277	2	n/a	n/a	n/a	n/a	n/a	n/a
3244014	RECOG_TARGET	n/a	LTP212	ltpFR	1	4	1	SCRIBBLE	1256	4	0	n/a	n/a	n/a	n/a	n/a
3245100	RECOG_RESP	n/a	LTP212	ltpFR	1	4	1	SCRIBBLE	1256	n/a	0	n/a	n/a	n/a	n/a	n/a
3246327	RECOG_CONF	n/a	LTP212	ltpFR	1	4	1	SCRIBBLE	1256	4	0	n/a	n/a	n/a	n/a	n/a
3248091	RECOG_TARGET	n/a	LTP212	ltpFR	1	4	1	DIVER	476	1	1	n/a	n/a	n/a	n/a	n/a
3249310	RECOG_RESP	n/a	LTP212	ltpFR	1	4	1	DIVER	476	n/a	1	n/a	n/a	n/a	n/a	n/a
3250427	RECOG_CONF	n/a	LTP212	ltpFR	1	4	1	DIVER	476	1	1	n/a	n/a	n/a	n/a	n/a
3252418	RECOG_LURE	n/a	LTP212	ltpFR	1	4	n/a	COUCH	386	1	n/a	n/a	n/a	n/a	n/a	n/a
3255112	RECOG_RESP	n/a	LTP212	ltpFR	1	4	n/a	COUCH	386	n/a	n/a	n/a	n/a	n/a	n/a	n/a
3257122	RECOG_CONF	n/a	LTP212	ltpFR	1	4	n/a	COUCH	386	1	n/a	n/a	n/a	n/a	n/a	n/a
3259191	RECOG_LURE	n/a	LTP212	ltpFR	1	4	n/a	PLIERS	1089	1	n/a	n/a	n/a	n/a	n/a	n/a
3261542	RECOG_RESP	n/a	LTP212	ltpFR	1	4	n/a	PLIERS	1089	n/a	n/a	n/a	n/a	n/a	n/a	n/a
3263168	RECOG_CONF	n/a	LTP212	ltpFR	1	4	n/a	PLIERS	1089	1	n/a	n/a	n/a	n/a	n/a	n/a
3265065	RECOG_LURE	n/a	LTP212	ltpFR	1	4	n/a	UMPIRE	1535	4	n/a	n/a	n/a	n/a	n/a	n/a
3266436	RECOG_RESP	n/a	LTP212	ltpFR	1	4	n/a	UMPIRE	1535	n/a	n/a	n/a	n/a	n/a	n/a	n/a
3267758	RECOG_CONF	n/a	LTP212	ltpFR	1	4	n/a	UMPIRE	1535	4	n/a	n/a	n/a	n/a	n/a	n/a
3269842	RECOG_TARGET	n/a	LTP212	ltpFR	1	4	1	ACTRESS	6	1	1	n/a	n/a	n/a	n/a	n/a
3271958	RECOG_RESP	n/a	LTP212	ltpFR	1	4	1	ACTRESS	6	n/a	1	n/a	n/a	n/a	n/a	n/a
3273295	RECOG_CONF	n/a	LTP212	ltpFR	1	4	1	ACTRESS	6	1	1	n/a	n/a	n/a	n/a	n/a
3275150	RECOG_TARGET	n/a	LTP212	ltpFR	1	4	1	ACROBAT	4	1	1	n/a	n/a	n/a	n/a	n/a
3277461	RECOG_RESP	n/a	LTP212	ltpFR	1	4	1	ACROBAT	4	n/a	1	n/a	n/a	n/a	n/a	n/a
3278793	RECOG_CONF	n/a	LTP212	ltpFR	1	4	1	ACROBAT	4	1	1	n/a	n/a	n/a	n/a	n/a
3280842	RECOG_LURE	n/a	LTP212	ltpFR	1	4	n/a	TAIL	1430	1	n/a	n/a	n/a	n/a	n/a	n/a
3283672	RECOG_RESP	n/a	LTP212	ltpFR	1	4	n/a	TAIL	1430	n/a	n/a	n/a	n/a	n/a	n/a	n/a
3285009	RECOG_CONF	n/a	LTP212	ltpFR	1	4	n/a	TAIL	1430	1	n/a	n/a	n/a	n/a	n/a	n/a
3286983	RECOG_LURE	n/a	LTP212	ltpFR	1	4	n/a	FLESH	579	1	n/a	n/a	n/a	n/a	n/a	n/a
3288431	RECOG_RESP	n/a	LTP212	ltpFR	1	4	n/a	FLESH	579	n/a	n/a	n/a	n/a	n/a	n/a	n/a
3289568	RECOG_CONF	n/a	LTP212	ltpFR	1	4	n/a	FLESH	579	1	n/a	n/a	n/a	n/a	n/a	n/a
3291310	RECOG_LURE	n/a	LTP212	ltpFR	1	4	n/a	AWARD	63	2	n/a	n/a	n/a	n/a	n/a	n/a
3292402	RECOG_RESP	n/a	LTP212	ltpFR	1	4	n/a	AWARD	63	n/a	n/a	n/a	n/a	n/a	n/a	n/a
3293569	RECOG_CONF	n/a	LTP212	ltpFR	1	4	n/a	AWARD	63	2	n/a	n/a	n/a	n/a	n/a	n/a
3295370	RECOG_TARGET	n/a	LTP212	ltpFR	1	4	1	MUSTARD	935	4	1	n/a	n/a	n/a	n/a	n/a
3296493	RECOG_RESP	n/a	LTP212	ltpFR	1	4	1	MUSTARD	935	n/a	1	n/a	n/a	n/a	n/a	n/a
3297580	RECOG_CONF	n/a	LTP212	ltpFR	1	4	1	MUSTARD	935	4	1	n/a	n/a	n/a	n/a	n/a
3307186	REC_START	n/a	LTP212	ltpFR	1	5	n/a	n/a	n/a	n/a	n/a	n/a	n/a	n/a	n/a	n/a
3307219	RECOG_LURE	n/a	LTP212	ltpFR	1	5	n/a	JUPITER	765	5	n/a	n/a	n/a	n/a	n/a	n/a
3308243	RECOG_RESP	n/a	LTP212	ltpFR	1	5	n/a	JUPITER	765	n/a	n/a	n/a	n/a	n/a	n/a	n/a
3309396	RECOG_CONF	n/a	LTP212	ltpFR	1	5	n/a	JUPITER	765	5	n/a	n/a	n/a	n/a	n/a	n/a
3311280	RECOG_LURE	n/a	LTP212	ltpFR	1	5	n/a	GUN	673	2	n/a	n/a	n/a	n/a	n/a	n/a
3312294	RECOG_RESP	n/a	LTP212	ltpFR	1	5	n/a	GUN	673	n/a	n/a	n/a	n/a	n/a	n/a	n/a
3313496	RECOG_CONF	n/a	LTP212	ltpFR	1	5	n/a	GUN	673	2	n/a	n/a	n/a	n/a	n/a	n/a
3315357	RECOG_TARGET	n/a	LTP212	ltpFR	1	5	-1	COLESLAW	344	3	-1	n/a	n/a	n/a	n/a	n/a
3316445	RECOG_RESP	n/a	LTP212	ltpFR	1	5	-1	COLESLAW	344	n/a	-1	n/a	n/a	n/a	n/a	n/a
3317547	RECOG_CONF	n/a	LTP212	ltpFR	1	5	-1	COLESLAW	344	3	-1	n/a	n/a	n/a	n/a	n/a
3319434	RECOG_TARGET	n/a	LTP212	ltpFR	1	5	1	COLLEGE	346	2	0	n/a	n/a	n/a	n/a	n/a
3321004	RECOG_RESP	n/a	LTP212	ltpFR	1	5	1	COLLEGE	346	n/a	0	n/a	n/a	n/a	n/a	n/a
3322426	RECOG_CONF	n/a	LTP212	ltpFR	1	5	1	COLLEGE	346	2	0	n/a	n/a	n/a	n/a	n/a
3324277	RECOG_TARGET	n/a	LTP212	ltpFR	1	5	0	PUBLISHER	1137	1	1	n/a	n/a	n/a	n/a	n/a
3325938	RECOG_RESP	n/a	LTP212	ltpFR	1	5	0	PUBLISHER	1137	n/a	1	n/a	n/a	n/a	n/a	n/a
3327505	RECOG_CONF	n/a	LTP212	ltpFR	1	5	0	PUBLISHER	1137	1	1	n/a	n/a	n/a	n/a	n/a
3329386	RECOG_TARGET	n/a	LTP212	ltpFR	1	5	0	SHEEP	1278	1	1	n/a	n/a	n/a	n/a	n/a
3331880	RECOG_RESP	n/a	LTP212	ltpFR	1	5	0	SHEEP	1278	n/a	1	n/a	n/a	n/a	n/a	n/a
3333222	RECOG_CONF	n/a	LTP212	ltpFR	1	5	0	SHEEP	1278	1	1	n/a	n/a	n/a	n/a	n/a
3335227	RECOG_LURE	n/a	LTP212	ltpFR	1	5	n/a	CONDUCTOR	362	1	n/a	n/a	n/a	n/a	n/a	n/a
3336794	RECOG_RESP	n/a	LTP212	ltpFR	1	5	n/a	CONDUCTOR	362	n/a	n/a	n/a	n/a	n/a	n/a	n/a
3337951	RECOG_CONF	n/a	LTP212	ltpFR	1	5	n/a	CONDUCTOR	362	1	n/a	n/a	n/a	n/a	n/a	n/a
3339937	RECOG_TARGET	n/a	LTP212	ltpFR	1	5	0	CHARCOAL	281	3	0	n/a	n/a	n/a	n/a	n/a
3340939	RECOG_RESP	n/a	LTP212	ltpFR	1	5	0	CHARCOAL	281	n/a	0	n/a	n/a	n/a	n/a	n/a
3342251	RECOG_CONF	n/a	LTP212	ltpFR	1	5	0	CHARCOAL	281	3	0	n/a	n/a	n/a	n/a	n/a
3343914	RECOG_LURE	n/a	LTP212	ltpFR	1	5	n/a	PENCIL	1042	2	n/a	n/a	n/a	n/a	n/a	n/a
3345020	RECOG_RESP	n/a	LTP212	ltpFR	1	5	n/a	PENCIL	1042	n/a	n/a	n/a	n/a	n/a	n/a	n/a
3346472	RECOG_CONF	n/a	LTP212	ltpFR	1	5	n/a	PENCIL	1042	2	n/a	n/a	n/a	n/a	n/a	n/a
3348208	RECOG_TARGET	n/a	LTP212	ltpFR	1	5	0	SPAGHETTI	1346	4	0	n/a	n/a	n/a	n/a	n/a
3349220	RECOG_RESP	n/a	LTP212	ltpFR	1	5	0	SPAGHETTI	1346	n/a	0	n/a	n/a	n/a	n/a	n/a
3350293	RECOG_CONF	n/a	LTP212	ltpFR	1	5	0	SPAGHETTI	1346	4	0	n/a	n/a	n/a	n/a	n/a
3352285	RECOG_TARGET	n/a	LTP212	ltpFR	1	5	0	CUPBOARD	425	5	1	n/a	n/a	n/a	n/a	n/a
3353655	RECOG_RESP	n/a	LTP212	ltpFR	1	5	0	CUPBOARD	425	n/a	1	n/a	n/a	n/a	n/a	n/a
3354852	RECOG_CONF	n/a	LTP212	ltpFR	1	5	0	CUPBOARD	425	5	1	n/a	n/a	n/a	n/a	n/a
3356845	RECOG_LURE	n/a	LTP212	ltpFR	1	5	n/a	ROSE	1212	2	n/a	n/a	n/a	n/a	n/a	n/a
3358110	RECOG_RESP	n/a	LTP212	ltpFR	1	5	n/a	ROSE	1212	n/a	n/a	n/a	n/a	n/a	n/a	n/a
3359502	RECOG_CONF	n/a	LTP212	ltpFR	1	5	n/a	ROSE	1212	2	n/a	n/a	n/a	n/a	n/a	n/a
3361454	RECOG_LURE	n/a	LTP212	ltpFR	1	5	n/a	BELLY	119	1	n/a	n/a	n/a	n/a	n/a	n/a
3363273	RECOG_RESP	n/a	LTP212	ltpFR	1	5	n/a	BELLY	119	n/a	n/a	n/a	n/a	n/a	n/a	n/a
3364491	RECOG_CONF	n/a	LTP212	ltpFR	1	5	n/a	BELLY	119	1	n/a	n/a	n/a	n/a	n/a	n/a
3366314	RECOG_LURE	n/a	LTP212	ltpFR	1	5	n/a	PEN	1041	1	n/a	n/a	n/a	n/a	n/a	n/a
3367519	RECOG_RESP	n/a	LTP212	ltpFR	1	5	n/a	PEN	1041	n/a	n/a	n/a	n/a	n/a	n/a	n/a
3368791	RECOG_CONF	n/a	LTP212	ltpFR	1	5	n/a	PEN	1041	1	n/a	n/a	n/a	n/a	n/a	n/a
3370707	RECOG_TARGET	n/a	LTP212	ltpFR	1	5	0	SALAD	1224	5	0	n/a	n/a	n/a	n/a	n/a
3371490	RECOG_RESP	n/a	LTP212	ltpFR	1	5	0	SALAD	1224	n/a	0	n/a	n/a	n/a	n/a	n/a
3372792	RECOG_CONF	n/a	LTP212	ltpFR	1	5	0	SALAD	1224	5	0	n/a	n/a	n/a	n/a	n/a
3374534	RECOG_TARGET	n/a	LTP212	ltpFR	1	5	0	GOLD	647	2	0	n/a	n/a	n/a	n/a	n/a
3379052	RECOG_RESP	n/a	LTP212	ltpFR	1	5	0	GOLD	647	n/a	0	n/a	n/a	n/a	n/a	n/a
3381572	RECOG_CONF	n/a	LTP212	ltpFR	1	5	0	GOLD	647	2	0	n/a	n/a	n/a	n/a	n/a
3383389	RECOG_LURE	n/a	LTP212	ltpFR	1	5	n/a	PADDING	999	3	n/a	n/a	n/a	n/a	n/a	n/a
3384430	RECOG_RESP	n/a	LTP212	ltpFR	1	5	n/a	PADDING	999	n/a	n/a	n/a	n/a	n/a	n/a	n/a
3386171	RECOG_CONF	n/a	LTP212	ltpFR	1	5	n/a	PADDING	999	3	n/a	n/a	n/a	n/a	n/a	n/a
3388082	RECOG_LURE	n/a	LTP212	ltpFR	1	5	n/a	COLT	349	2	n/a	n/a	n/a	n/a	n/a	n/a
3389309	RECOG_RESP	n/a	LTP212	ltpFR	1	5	n/a	COLT	349	n/a	n/a	n/a	n/a	n/a	n/a	n/a
3390821	RECOG_CONF	n/a	LTP212	ltpFR	1	5	n/a	COLT	349	2	n/a	n/a	n/a	n/a	n/a	n/a
3392690	RECOG_LURE	n/a	LTP212	ltpFR	1	5	n/a	WRENCH	1625	2	n/a	n/a	n/a	n/a	n/a	n/a
3394203	RECOG_RESP	n/a	LTP212	ltpFR	1	5	n/a	WRENCH	1625	n/a	n/a	n/a	n/a	n/a	n/a	n/a
3395370	RECOG_CONF	n/a	LTP212	ltpFR	1	5	n/a	WRENCH	1625	2	n/a	n/a	n/a	n/a	n/a	n/a
3397251	RECOG_LURE	n/a	LTP212	ltpFR	1	5	n/a	RANCH	1166	1	n/a	n/a	n/a	n/a	n/a	n/a
3398927	RECOG_RESP	n/a	LTP212	ltpFR	1	5	n/a	RANCH	1166	n/a	n/a	n/a	n/a	n/a	n/a	n/a
3400040	RECOG_CONF	n/a	LTP212	ltpFR	1	5	n/a	RANCH	1166	1	n/a	n/a	n/a	n/a	n/a	n/a
3405708	REC_START	n/a	LTP212	ltpFR	1	6	n/a	n/a	n/a	n/a	n/a	n/a	n/a	n/a	n/a	n/a
3405739	RECOG_TARGET	n/a	LTP212	ltpFR	1	6	1	ATHLETE	52	1	1	n/a	n/a	n/a	n/a	n/a
3407299	RECOG_RESP	n/a	LTP212	ltpFR	1	6	1	ATHLETE	52	n/a	1	n/a	n/a	n/a	n/a	n/a
3408506	RECOG_CONF	n/a	LTP212	ltpFR	1	6	1	ATHLETE	52	1	1	n/a	n/a	n/a	n/a	n/a
3410398	RECOG_TARGET	n/a	LTP212	ltpFR	1	6	1	CAR	241	1	0	n/a	n/a	n/a	n/a	n/a
3411609	RECOG_RESP	n/a	LTP212	ltpFR	1	6	1	CAR	241	n/a	0	n/a	n/a	n/a	n/a	n/a
3412777	RECOG_CONF	n/a	LTP212	ltpFR	1	6	1	CAR	241	1	0	n/a	n/a	n/a	n/a	n/a
3414742	RECOG_TARGET	n/a	LTP212	ltpFR	1	6	-1	PRINCESS	1125	5	-1	n/a	n/a	n/a	n/a	n/a
3415680	RECOG_RESP	n/a	LTP212	ltpFR	1	6	-1	PRINCESS	1125	n/a	-1	n/a	n/a	n/a	n/a	n/a
3417077	RECOG_CONF	n/a	LTP212	ltpFR	1	6	-1	PRINCESS	1125	5	-1	n/a	n/a	n/a	n/a	n/a
3419002	RECOG_TARGET	n/a	LTP212	ltpFR	1	6	1	INVENTOR	743	2	1	n/a	n/a	n/a	n/a	n/a
3420459	RECOG_RESP	n/a	LTP212	ltpFR	1	6	1	INVENTOR	743	n/a	1	n/a	n/a	n/a	n/a	n/a
3421786	RECOG_CONF	n/a	LTP212	ltpFR	1	6	1	INVENTOR	743	2	1	n/a	n/a	n/a	n/a	n/a
3423661	RECOG_LURE	n/a	LTP212	ltpFR	1	6	n/a	TOOTHBRUSH	1482	3	n/a	n/a	n/a	n/a	n/a	n/a
3424809	RECOG_RESP	n/a	LTP212	ltpFR	1	6	n/a	TOOTHBRUSH	1482	n/a	n/a	n/a	n/a	n/a	n/a	n/a
3425987	RECOG_CONF	n/a	LTP212	ltpFR	1	6	n/a	TOOTHBRUSH	1482	3	n/a	n/a	n/a	n/a	n/a	n/a
3428105	RECOG_LURE	n/a	LTP212	ltpFR	1	6	n/a	JURY	766	2	n/a	n/a	n/a	n/a	n/a	n/a
3429239	RECOG_RESP	n/a	LTP212	ltpFR	1	6	n/a	JURY	766	n/a	n/a	n/a	n/a	n/a	n/a	n/a
3430616	RECOG_CONF	n/a	LTP212	ltpFR	1	6	n/a	JURY	766	2	n/a	n/a	n/a	n/a	n/a	n/a
3432514	RECOG_LURE	n/a	LTP212	ltpFR	1	6	n/a	FURNITURE	616	1	n/a	n/a	n/a	n/a	n/a	n/a
3435196	RECOG_RESP	n/a	LTP212	ltpFR	1	6	n/a	FURNITURE	616	n/a	n/a	n/a	n/a	n/a	n/a	n/a
3436393	RECOG_CONF	n/a	LTP212	ltpFR	1	6	n/a	FURNITURE	616	1	n/a	n/a	n/a	n/a	n/a	n/a
3438439	RECOG_TARGET	n/a	LTP212	ltpFR	1	6	0	CHEERLEADER	288	2	1	n/a	n/a	n/a	n/a	n/a
3441347	RECOG_RESP	n/a	LTP212	ltpFR	1	6	0	CHEERLEADER	288	n/a	1	n/a	n/a	n/a	n/a	n/a
3442729	RECOG_CONF	n/a	LTP212	ltpFR	1	6	0	CHEERLEADER	288	2	1	n/a	n/a	n/a	n/a	n/a
3444797	RECOG_TARGET	n/a	LTP212	ltpFR	1	6	0	BARRACUDA	90	5	1	n/a	n/a	n/a	n/a	n/a
3445717	RECOG_RESP	n/a	LTP212	ltpFR	1	6	0	BARRACUDA	90	n/a	1	n/a	n/a	n/a	n/a	n/a
3446829	RECOG_CONF	n/a	LTP212	ltpFR	1	6	0	BARRACUDA	90	5	1	n/a	n/a	n/a	n/a	n/a
3448741	RECOG_TARGET	n/a	LTP212	ltpFR	1	6	1	LIP	828	1	1	n/a	n/a	n/a	n/a	n/a
3451000	RECOG_RESP	n/a	LTP212	ltpFR	1	6	1	LIP	828	n/a	1	n/a	n/a	n/a	n/a	n/a
3452716	RECOG_CONF	n/a	LTP212	ltpFR	1	6	1	LIP	828	1	1	n/a	n/a	n/a	n/a	n/a
3454799	RECOG_TARGET	n/a	LTP212	ltpFR	1	6	0	GRASS	655	4	0	n/a	n/a	n/a	n/a	n/a
3456328	RECOG_RESP	n/a	LTP212	ltpFR	1	6	0	GRASS	655	n/a	0	n/a	n/a	n/a	n/a	n/a
3457535	RECOG_CONF	n/a	LTP212	ltpFR	1	6	0	GRASS	655	4	0	n/a	n/a	n/a	n/a	n/a
3459590	RECOG_LURE	n/a	LTP212	ltpFR	1	6	n/a	CASTLE	256	1	n/a	n/a	n/a	n/a	n/a	n/a
3460408	RECOG_RESP	n/a	LTP212	ltpFR	1	6	n/a	CASTLE	256	n/a	n/a	n/a	n/a	n/a	n/a	n/a
3461656	RECOG_CONF	n/a	LTP212	ltpFR	1	6	n/a	CASTLE	256	1	n/a	n/a	n/a	n/a	n/a	n/a
3463551	RECOG_TARGET	n/a	LTP212	ltpFR	1	6	0	JOURNAL	760	1	0	n/a	n/a	n/a	n/a	n/a
3466220	RECOG_RESP	n/a	LTP212	ltpFR	1	6	0	JOURNAL	760	n/a	0	n/a	n/a	n/a	n/a	n/a
3467383	RECOG_CONF	n/a	LTP212	ltpFR	1	6	0	JOURNAL	760	1	0	n/a	n/a	n/a	n/a	n/a
3469294	RECOG_LURE	n/a	LTP212	ltpFR	1	6	n/a	STATUE	1374	1	n/a	n/a	n/a	n/a	n/a	n/a
3470855	RECOG_RESP	n/a	LTP212	ltpFR	1	6	n/a	STATUE	1374	n/a	n/a	n/a	n/a	n/a	n/a	n/a
3472102	RECOG_CONF	n/a	LTP212	ltpFR	1	6	n/a	STATUE	1374	1	n/a	n/a	n/a	n/a	n/a	n/a
3473987	RECOG_TARGET	n/a	LTP212	ltpFR	1	6	1	ARM	38	3	1	n/a	n/a	n/a	n/a	n/a
3474856	RECOG_RESP	n/a	LTP212	ltpFR	1	6	1	ARM	38	n/a	1	n/a	n/a	n/a	n/a	n/a
3476143	RECOG_CONF	n/a	LTP212	ltpFR	1	6	1	ARM	38	3	1	n/a	n/a	n/a	n/a	n/a
3478031	RECOG_TARGET	n/a	LTP212	ltpFR	1	6	0	PRINCE	1124	1	1	n/a	n/a	n/a	n/a	n/a
3479330	RECOG_RESP	n/a	LTP212	ltpFR	1	6	0	PRINCE	1124	n/a	1	n/a	n/a	n/a	n/a	n/a
3480513	RECOG_CONF	n/a	LTP212	ltpFR	1	6	0	PRINCE	1124	1	1	n/a	n/a	n/a	n/a	n/a
3482506	RECOG_TARGET	n/a	LTP212	ltpFR	1	6	-1	ONION	977	5	-1	n/a	n/a	n/a	n/a	n/a
3483591	RECOG_RESP	n/a	LTP212	ltpFR	1	6	-1	ONION	977	n/a	-1	n/a	n/a	n/a	n/a	n/a
3484743	RECOG_CONF	n/a	LTP212	ltpFR	1	6	-1	ONION	977	5	-1	n/a	n/a	n/a	n/a	n/a
3486667	RECOG_TARGET	n/a	LTP212	ltpFR	1	6	-1	SIGN	1305	1	-1	n/a	n/a	n/a	n/a	n/a
3488260	RECOG_RESP	n/a	LTP212	ltpFR	1	6	-1	SIGN	1305	n/a	-1	n/a	n/a	n/a	n/a	n/a
3489462	RECOG_CONF	n/a	LTP212	ltpFR	1	6	-1	SIGN	1305	1	-1	n/a	n/a	n/a	n/a	n/a
3491394	RECOG_LURE	n/a	LTP212	ltpFR	1	6	n/a	LOAF	835	1	n/a	n/a	n/a	n/a	n/a	n/a
3492580	RECOG_RESP	n/a	LTP212	ltpFR	1	6	n/a	LOAF	835	n/a	n/a	n/a	n/a	n/a	n/a	n/a
3493773	RECOG_CONF	n/a	LTP212	ltpFR	1	6	n/a	LOAF	835	1	n/a	n/a	n/a	n/a	n/a	n/a
3495738	RECOG_TARGET	n/a	LTP212	ltpFR	1	6	0	CREATURE	403	3	1	n/a	n/a	n/a	n/a	n/a
3496696	RECOG_RESP	n/a	LTP212	ltpFR	1	6	0	CREATURE	403	n/a	1	n/a	n/a	n/a	n/a	n/a
3497863	RECOG_CONF	n/a	LTP212	ltpFR	1	6	0	CREATURE	403	3	1	n/a	n/a	n/a	n/a	n/a
3507847	REC_START	n/a	LTP212	ltpFR	1	7	n/a	n/a	n/a	n/a	n/a	n/a	n/a	n/a	n/a	n/a
3507886	RECOG_TARGET	n/a	LTP212	ltpFR	1	7	-1	MAN	862	1	-1	n/a	n/a	n/a	n/a	n/a
3509323	RECOG_RESP	n/a	LTP212	ltpFR	1	7	-1	MAN	862	n/a	-1	n/a	n/a	n/a	n/a	n/a
3510496	RECOG_CONF	n/a	LTP212	ltpFR	1	7	-1	MAN	862	1	-1	n/a	n/a	n/a	n/a	n/a
3512429	RECOG_LURE	n/a	LTP212	ltpFR	1	7	n/a	HOSTAGE	722	4	n/a	n/a	n/a	n/a	n/a	n/a
3513444	RECOG_RESP	n/a	LTP212	ltpFR	1	7	n/a	HOSTAGE	722	n/a	n/a	n/a	n/a	n/a	n/a	n/a
3514696	RECOG_CONF	n/a	LTP212	ltpFR	1	7	n/a	HOSTAGE	722	4	n/a	n/a	n/a	n/a	n/a	n/a
3516522	RECOG_TARGET	n/a	LTP212	ltpFR	1	7	0	RAFT	1159	2	1	n/a	n/a	n/a	n/a	n/a
3517640	RECOG_RESP	n/a	LTP212	ltpFR	1	7	0	RAFT	1159	n/a	1	n/a	n/a	n/a	n/a	n/a
3518917	RECOG_CONF	n/a	LTP212	ltpFR	1	7	0	RAFT	1159	2	1	n/a	n/a	n/a	n/a	n/a
3520750	RECOG_LURE	n/a	LTP212	ltpFR	1	7	n/a	EAGLE	512	2	n/a	n/a	n/a	n/a	n/a	n/a
3522329	RECOG_RESP	n/a	LTP212	ltpFR	1	7	n/a	EAGLE	512	n/a	n/a	n/a	n/a	n/a	n/a	n/a
3523596	RECOG_CONF	n/a	LTP212	ltpFR	1	7	n/a	EAGLE	512	2	n/a	n/a	n/a	n/a	n/a	n/a
3525509	RECOG_TARGET	n/a	LTP212	ltpFR	1	7	-1	SOCIETY	1338	2	-1	n/a	n/a	n/a	n/a	n/a
3526824	RECOG_RESP	n/a	LTP212	ltpFR	1	7	-1	SOCIETY	1338	n/a	-1	n/a	n/a	n/a	n/a	n/a
3528226	RECOG_CONF	n/a	LTP212	ltpFR	1	7	-1	SOCIETY	1338	2	-1	n/a	n/a	n/a	n/a	n/a
3530153	RECOG_LURE	n/a	LTP212	ltpFR	1	7	n/a	SIDEWALK	1303	1	n/a	n/a	n/a	n/a	n/a	n/a
3531713	RECOG_RESP	n/a	LTP212	ltpFR	1	7	n/a	SIDEWALK	1303	n/a	n/a	n/a	n/a	n/a	n/a	n/a
3533144	RECOG_CONF	n/a	LTP212	ltpFR	1	7	n/a	SIDEWALK	1303	1	n/a	n/a	n/a	n/a	n/a	n/a
3535129	RECOG_LURE	n/a	LTP212	ltpFR	1	7	n/a	ARMY	39	1	n/a	n/a	n/a	n/a	n/a	n/a
3537290	RECOG_RESP	n/a	LTP212	ltpFR	1	7	n/a	ARMY	39	n/a	n/a	n/a	n/a	n/a	n/a	n/a
3538752	RECOG_CONF	n/a	LTP212	ltpFR	1	7	n/a	ARMY	39	1	n/a	n/a	n/a	n/a	n/a	n/a
3540686	RECOG_LURE	n/a	LTP212	ltpFR	1	7	n/a	MAID	856	1	n/a	n/a	n/a	n/a	n/a	n/a
3542563	RECOG_RESP	n/a	LTP212	ltpFR	1	7	n/a	MAID	856	n/a	n/a	n/a	n/a	n/a	n/a	n/a
3543800	RECOG_CONF	n/a	LTP212	ltpFR	1	7	n/a	MAID	856	1	n/a	n/a	n/a	n/a	n/a	n/a
3545879	RECOG_TARGET	n/a	LTP212	ltpFR	1	7	1	CATCHER	258	1	1	n/a	n/a	n/a	n/a	n/a
3547636	RECOG_RESP	n/a	LTP212	ltpFR	1	7	1	CATCHER	258	n/a	1	n/a	n/a	n/a	n/a	n/a
3548918	RECOG_CONF	n/a	LTP212	ltpFR	1	7	1	CATCHER	258	1	1	n/a	n/a	n/a	n/a	n/a
3550972	RECOG_TARGET	n/a	LTP212	ltpFR	1	7	0	ZIPPER	1636	3	0	n/a	n/a	n/a	n/a	n/a
3553064	RECOG_RESP	n/a	LTP212	ltpFR	1	7	0	ZIPPER	1636	n/a	0	n/a	n/a	n/a	n/a	n/a
3554496	RECOG_CONF	n/a	LTP212	ltpFR	1	7	0	ZIPPER	1636	3	0	n/a	n/a	n/a	n/a	n/a
3556496	RECOG_TARGET	n/a	LTP212	ltpFR	1	7	-1	BARREL	91	1	-1	n/a	n/a	n/a	n/a	n/a
3557444	RECOG_RESP	n/a	LTP212	ltpFR	1	7	-1	BARREL	91	n/a	-1	n/a	n/a	n/a	n/a	n/a
3558786	RECOG_CONF	n/a	LTP212	ltpFR	1	7	-1	BARREL	91	1	-1	n/a	n/a	n/a	n/a	n/a
3560656	RECOG_LURE	n/a	LTP212	ltpFR	1	7	n/a	SYRINGE	1424	4	n/a	n/a	n/a	n/a	n/a	n/a
3561789	RECOG_RESP	n/a	LTP212	ltpFR	1	7	n/a	SYRINGE	1424	n/a	n/a	n/a	n/a	n/a	n/a	n/a
3563076	RECOG_CONF	n/a	LTP212	ltpFR	1	7	n/a	SYRINGE	1424	4	n/a	n/a	n/a	n/a	n/a	n/a
3564934	RECOG_TARGET	n/a	LTP212	ltpFR	1	7	0	WHALE	1601	3	1	n/a	n/a	n/a	n/a	n/a
3567167	RECOG_RESP	n/a	LTP212	ltpFR	1	7	0	WHALE	1601	n/a	1	n/a	n/a	n/a	n/a	n/a
3568344	RECOG_CONF	n/a	LTP212	ltpFR	1	7	0	WHALE	1601	3	1	n/a	n/a	n/a	n/a	n/a
3570309	RECOG_LURE	n/a	LTP212	ltpFR	1	7	n/a	BLENDER	136	1	n/a	n/a	n/a	n/a	n/a	n/a
3571462	RECOG_RESP	n/a	LTP212	ltpFR	1	7	n/a	BLENDER	136	n/a	n/a	n/a	n/a	n/a	n/a	n/a
3572784	RECOG_CONF	n/a	LTP212	ltpFR	1	7	n/a	BLENDER	136	1	n/a	n/a	n/a	n/a	n/a	n/a
3574619	RECOG_TARGET	n/a	LTP212	ltpFR	1	7	0	ARTIST	43	2	1	n/a	n/a	n/a	n/a	n/a
3575483	RECOG_RESP	n/a	LTP212	ltpFR	1	7	0	ARTIST	43	n/a	1	n/a	n/a	n/a	n/a	n/a
3576705	RECOG_CONF	n/a	LTP212	ltpFR	1	7	0	ARTIST	43	2	1	n/a	n/a	n/a	n/a	n/a
3578596	RECOG_TARGET	n/a	LTP212	ltpFR	1	7	0	ZEBRA	1635	1	1	n/a	n/a	n/a	n/a	n/a
3580487	RECOG_RESP	n/a	LTP212	ltpFR	1	7	0	ZEBRA	1635	n/a	1	n/a	n/a	n/a	n/a	n/a
3581794	RECOG_CONF	n/a	LTP212	ltpFR	1	7	0	ZEBRA	1635	1	1	n/a	n/a	n/a	n/a	n/a
3583722	RECOG_LURE	n/a	LTP212	ltpFR	1	7	n/a	VACUUM	1543	2	n/a	n/a	n/a	n/a	n/a	n/a
3584837	RECOG_RESP	n/a	LTP212	ltpFR	1	7	n/a	VACUUM	1543	n/a	n/a	n/a	n/a	n/a	n/a	n/a
3585964	RECOG_CONF	n/a	LTP212	ltpFR	1	7	n/a	VACUUM	1543	2	n/a	n/a	n/a	n/a	n/a	n/a
3587800	RECOG_TARGET	n/a	LTP212	ltpFR	1	7	0	WOLF	1619	1	0	n/a	n/a	n/a	n/a	n/a
3588878	RECOG_RESP	n/a	LTP212	ltpFR	1	7	0	WOLF	1619	n/a	0	n/a	n/a	n/a	n/a	n/a
3590105	RECOG_CONF	n/a	LTP212	ltpFR	1	7	0	WOLF	1619	1	0	n/a	n/a	n/a	n/a	n/a
3591994	RECOG_LURE	n/a	LTP212	ltpFR	1	7	n/a	NEWSSTAND	949	1	n/a	n/a	n/a	n/a	n/a	n/a
3595842	RECOG_RESP	n/a	LTP212	ltpFR	1	7	n/a	NEWSSTAND	949	n/a	n/a	n/a	n/a	n/a	n/a	n/a
3597019	RECOG_CONF	n/a	LTP212	ltpFR	1	7	n/a	NEWSSTAND	949	1	n/a	n/a	n/a	n/a	n/a	n/a
3598950	RECOG_LURE	n/a	LTP212	ltpFR	1	7	n/a	JACKET	747	1	n/a	n/a	n/a	n/a	n/a	n/a
3600840	RECOG_RESP	n/a	LTP212	ltpFR	1	7	n/a	JACKET	747	n/a	n/a	n/a	n/a	n/a	n/a	n/a
3602636	RECOG_CONF	n/a	LTP212	ltpFR	1	7	n/a	JACKET	747	1	n/a	n/a	n/a	n/a	n/a	n/a
3624665	REC_START	n/a	LTP212	ltpFR	1	8	n/a	n/a	n/a	n/a	n/a	n/a	n/a	n/a	n/a	n/a
3624694	RECOG_LURE	n/a	LTP212	ltpFR	1	8	n/a	RING	1193	1	n/a	n/a	n/a	n/a	n/a	n/a
3625757	RECOG_RESP	n/a	LTP212	ltpFR	1	8	n/a	RING	1193	n/a	n/a	n/a	n/a	n/a	n/a	n/a
3626815	RECOG_CONF	n/a	LTP212	ltpFR	1	8	n/a	RING	1193	1	n/a	n/a	n/a	n/a	n/a	n/a
3628571	RECOG_TARGET	n/a	LTP212	ltpFR	1	8	-1	SPRINKLE	1359	4	-1	n/a	n/a	n/a	n/a	n/a
3629693	RECOG_RESP	n/a	LTP212	ltpFR	1	8	-1	SPRINKLE	1359	n/a	-1	n/a	n/a	n/a	n/a	n/a
3630756	RECOG_CONF	n/a	LTP212	ltpFR	1	8	-1	SPRINKLE	1359	4	-1	n/a	n/a	n/a	n/a	n/a
3632582	RECOG_LURE	n/a	LTP212	ltpFR	1	8	n/a	LILY	821	3	n/a	n/a	n/a	n/a	n/a	n/a
3633629	RECOG_RESP	n/a	LTP212	ltpFR	1	8	n/a	LILY	821	n/a	n/a	n/a	n/a	n/a	n/a	n/a
3634687	RECOG_CONF	n/a	LTP212	ltpFR	1	8	n/a	LILY	821	3	n/a	n/a	n/a	n/a	n/a	n/a
3636394	RECOG_LURE	n/a	LTP212	ltpFR	1	8	n/a	ARTICLE	42	1	n/a	n/a	n/a	n/a	n/a	n/a
3639840	RECOG_RESP	n/a	LTP212	ltpFR	1	8	n/a	ARTICLE	42	n/a	n/a	n/a	n/a	n/a	n/a	n/a
3641003	RECOG_CONF	n/a	LTP212	ltpFR	1	8	n/a	ARTICLE	42	1	n/a	n/a	n/a	n/a	n/a	n/a
3642884	RECOG_TARGET	n/a	LTP212	ltpFR	1	8	1	CAMEL	223	5	1	n/a	n/a	n/a	n/a	n/a
3643776	RECOG_RESP	n/a	LTP212	ltpFR	1	8	1	CAMEL	223	n/a	1	n/a	n/a	n/a	n/a	n/a
3644884	RECOG_CONF	n/a	LTP212	ltpFR	1	8	1	CAMEL	223	5	1	n/a	n/a	n/a	n/a	n/a
3646745	RECOG_LURE	n/a	LTP212	ltpFR	1	8	n/a	SHORTCAKE	1292	2	n/a	n/a	n/a	n/a	n/a	n/a
3648022	RECOG_RESP	n/a	LTP212	ltpFR	1	8	n/a	SHORTCAKE	1292	n/a	n/a	n/a	n/a	n/a	n/a	n/a
3649184	RECOG_CONF	n/a	LTP212	ltpFR	1	8	n/a	SHORTCAKE	1292	2	n/a	n/a	n/a	n/a	n/a	n/a
3651105	RECOG_LURE	n/a	LTP212	ltpFR	1	8	n/a	MILITARY	894	2	n/a	n/a	n/a	n/a	n/a	n/a
3652816	RECOG_RESP	n/a	LTP212	ltpFR	1	8	n/a	MILITARY	894	n/a	n/a	n/a	n/a	n/a	n/a	n/a
3653963	RECOG_CONF	n/a	LTP212	ltpFR	1	8	n/a	MILITARY	894	2	n/a	n/a	n/a	n/a	n/a	n/a
3655664	RECOG_TARGET	n/a	LTP212	ltpFR	1	8	0	RUM	1217	1	0	n/a	n/a	n/a	n/a	n/a
3656966	RECOG_RESP	n/a	LTP212	ltpFR	1	8	0	RUM	1217	n/a	0	n/a	n/a	n/a	n/a	n/a
3658283	RECOG_CONF	n/a	LTP212	ltpFR	1	8	0	RUM	1217	1	0	n/a	n/a	n/a	n/a	n/a
3660258	RECOG_LURE	n/a	LTP212	ltpFR	1	8	n/a	PLAZA	1088	1	n/a	n/a	n/a	n/a	n/a	n/a
3661247	RECOG_RESP	n/a	LTP212	ltpFR	1	8	n/a	PLAZA	1088	n/a	n/a	n/a	n/a	n/a	n/a	n/a
3662913	RECOG_CONF	n/a	LTP212	ltpFR	1	8	n/a	PLAZA	1088	1	n/a	n/a	n/a	n/a	n/a	n/a
3664768	RECOG_LURE	n/a	LTP212	ltpFR	1	8	n/a	HERO	706	1	n/a	n/a	n/a	n/a	n/a	n/a
3667398	RECOG_RESP	n/a	LTP212	ltpFR	1	8	n/a	HERO	706	n/a	n/a	n/a	n/a	n/a	n/a	n/a
3668889	RECOG_CONF	n/a	LTP212	ltpFR	1	8	n/a	HERO	706	1	n/a	n/a	n/a	n/a	n/a	n/a
3671059	RECOG_LURE	n/a	LTP212	ltpFR	1	8	n/a	WASHER	1592	1	n/a	n/a	n/a	n/a	n/a	n/a
3672641	RECOG_RESP	n/a	LTP212	ltpFR	1	8	n/a	WASHER	1592	n/a	n/a	n/a	n/a	n/a	n/a	n/a
3673958	RECOG_CONF	n/a	LTP212	ltpFR	1	8	n/a	WASHER	1592	1	n/a	n/a	n/a	n/a	n/a	n/a
3676002	RECOG_TARGET	n/a	LTP212	ltpFR	1	8	-1	BOOTH	151	1	-1	n/a	n/a	n/a	n/a	n/a
3677400	RECOG_RESP	n/a	LTP212	ltpFR	1	8	-1	BOOTH	151	n/a	-1	n/a	n/a	n/a	n/a	n/a
3678547	RECOG_CONF	n/a	LTP212	ltpFR	1	8	-1	BOOTH	151	1	-1	n/a	n/a	n/a	n/a	n/a
3680494	RECOG_TARGET	n/a	LTP212	ltpFR	1	8	0	PONY	1102	5	1	n/a	n/a	n/a	n/a	n/a
3681401	RECOG_RESP	n/a	LTP212	ltpFR	1	8	0	PONY	1102	n/a	1	n/a	n/a	n/a	n/a	n/a
3682738	RECOG_CONF	n/a	LTP212	ltpFR	1	8	0	PONY	1102	5	1	n/a	n/a	n/a	n/a	n/a
3684654	RECOG_LURE	n/a	LTP212	ltpFR	1	8	n/a	CHEMICAL	291	2	n/a	n/a	n/a	n/a	n/a	n/a
3685691	RECOG_RESP	n/a	LTP212	ltpFR	1	8	n/a	CHEMICAL	291	n/a	n/a	n/a	n/a	n/a	n/a	n/a
3687038	RECOG_CONF	n/a	LTP212	ltpFR	1	8	n/a	CHEMICAL	291	2	n/a	n/a	n/a	n/a	n/a	n/a
3688999	RECOG_TARGET	n/a	LTP212	ltpFR	1	8	0	CAN	225	4	0	n/a	n/a	n/a	n/a	n/a
3689971	RECOG_RESP	n/a	LTP212	ltpFR	1	8	0	CAN	225	n/a	0	n/a	n/a	n/a	n/a	n/a
3691328	RECOG_CONF	n/a	LTP212	ltpFR	1	8	0	CAN	225	4	0	n/a	n/a	n/a	n/a	n/a
3693276	RECOG_TARGET	n/a	LTP212	ltpFR	1	8	-1	NOTEBOOK	959	1	-1	n/a	n/a	n/a	n/a	n/a
3694830	RECOG_RESP	n/a	LTP212	ltpFR	1	8	-1	NOTEBOOK	959	n/a	-1	n/a	n/a	n/a	n/a	n/a
3696048	RECOG_CONF	n/a	LTP212	ltpFR	1	8	-1	NOTEBOOK	959	1	-1	n/a	n/a	n/a	n/a	n/a
3697969	RECOG_TARGET	n/a	LTP212	ltpFR	1	8	0	FORT	595	3	1	n/a	n/a	n/a	n/a	n/a
3699116	RECOG_RESP	n/a	LTP212	ltpFR	1	8	0	FORT	595	n/a	1	n/a	n/a	n/a	n/a	n/a
3700248	RECOG_CONF	n/a	LTP212	ltpFR	1	8	0	FORT	595	3	1	n/a	n/a	n/a	n/a	n/a
3702046	RECOG_TARGET	n/a	LTP212	ltpFR	1	8	1	HEDGE	699	2	1	n/a	n/a	n/a	n/a	n/a
3703356	RECOG_RESP	n/a	LTP212	ltpFR	1	8	1	HEDGE	699	n/a	1	n/a	n/a	n/a	n/a	n/a
3705825	RECOG_CONF	n/a	LTP212	ltpFR	1	8	1	HEDGE	699	2	1	n/a	n/a	n/a	n/a	n/a
3707553	RECOG_LURE	n/a	LTP212	ltpFR	1	8	n/a	SANDPAPER	1231	2	n/a	n/a	n/a	n/a	n/a	n/a
3708759	RECOG_RESP	n/a	LTP212	ltpFR	1	8	n/a	SANDPAPER	1231	n/a	n/a	n/a	n/a	n/a	n/a	n/a
3709986	RECOG_CONF	n/a	LTP212	ltpFR	1	8	n/a	SANDPAPER	1231	2	n/a	n/a	n/a	n/a	n/a	n/a
3711915	RECOG_TARGET	n/a	LTP212	ltpFR	1	8	1	GYMNAST	675	1	1	n/a	n/a	n/a	n/a	n/a
3713343	RECOG_RESP	n/a	LTP212	ltpFR	1	8	1	GYMNAST	675	n/a	1	n/a	n/a	n/a	n/a	n/a
3714506	RECOG_CONF	n/a	LTP212	ltpFR	1	8	1	GYMNAST	675	1	1	n/a	n/a	n/a	n/a	n/a
3738348	REC_START	n/a	LTP212	ltpFR	1	9	n/a	n/a	n/a	n/a	n/a	n/a	n/a	n/a	n/a	n/a
3738375	RECOG_LURE	n/a	LTP212	ltpFR	1	9	n/a	MONEY	908	1	n/a	n/a	n/a	n/a	n/a	n/a
3739695	RECOG_RESP	n/a	LTP212	ltpFR	1	9	n/a	MONEY	908	n/a	n/a	n/a	n/a	n/a	n/a	n/a
3740987	RECOG_CONF	n/a	LTP212	ltpFR	1	9	n/a	MONEY	908	1	n/a	n/a	n/a	n/a	n/a	n/a
3742868	RECOG_TARGET	n/a	LTP212	ltpFR	1	9	1	BASKET	95	1	0	n/a	n/a	n/a	n/a	n/a
3744434	RECOG_RESP	n/a	LTP212	ltpFR	1	9	1	BASKET	95	n/a	0	n/a	n/a	n/a	n/a	n/a
3745527	RECOG_CONF	n/a	LTP212	ltpFR	1	9	1	BASKET	95	1	0	n/a	n/a	n/a	n/a	n/a
3747577	RECOG_LURE	n/a	LTP212	ltpFR	1	9	n/a	GHETTO	633	5	n/a	n/a	n/a	n/a	n/a	n/a
3748639	RECOG_RESP	n/a	LTP212	ltpFR	1	9	n/a	GHETTO	633	n/a	n/a	n/a	n/a	n/a	n/a	n/a
3749817	RECOG_CONF	n/a	LTP212	ltpFR	1	9	n/a	GHETTO	633	5	n/a	n/a	n/a	n/a	n/a	n/a
3751788	RECOG_TARGET	n/a	LTP212	ltpFR	1	9	-1	GRILL	661	1	-1	n/a	n/a	n/a	n/a	n/a
3753967	RECOG_RESP	n/a	LTP212	ltpFR	1	9	-1	GRILL	661	n/a	-1	n/a	n/a	n/a	n/a	n/a
3755155	RECOG_CONF	n/a	LTP212	ltpFR	1	9	-1	GRILL	661	1	-1	n/a	n/a	n/a	n/a	n/a
3757130	RECOG_LURE	n/a	LTP212	ltpFR	1	9	n/a	AUTHOR	61	1	n/a	n/a	n/a	n/a	n/a	n/a
3758517	RECOG_RESP	n/a	LTP212	ltpFR	1	9	n/a	AUTHOR	61	n/a	n/a	n/a	n/a	n/a	n/a	n/a
3759644	RECOG_CONF	n/a	LTP212	ltpFR	1	9	n/a	AUTHOR	61	1	n/a	n/a	n/a	n/a	n/a	n/a
3761623	RECOG_LURE	n/a	LTP212	ltpFR	1	9	n/a	CONVICT	371	2	n/a	n/a	n/a	n/a	n/a	n/a
3762902	RECOG_RESP	n/a	LTP212	ltpFR	1	9	n/a	CONVICT	371	n/a	n/a	n/a	n/a	n/a	n/a	n/a
3764044	RECOG_CONF	n/a	LTP212	ltpFR	1	9	n/a	CONVICT	371	2	n/a	n/a	n/a	n/a	n/a	n/a
3765934	RECOG_TARGET	n/a	LTP212	ltpFR	1	9	0	CHICKEN	297	3	1	n/a	n/a	n/a	n/a	n/a
3767347	RECOG_RESP	n/a	LTP212	ltpFR	1	9	0	CHICKEN	297	n/a	1	n/a	n/a	n/a	n/a	n/a
3768434	RECOG_CONF	n/a	LTP212	ltpFR	1	9	0	CHICKEN	297	3	1	n/a	n/a	n/a	n/a	n/a
3770261	RECOG_TARGET	n/a	LTP212	ltpFR	1	9	0	SUSPECT	1415	1	1	n/a	n/a	n/a	n/a	n/a
3771762	RECOG_RESP	n/a	LTP212	ltpFR	1	9	0	SUSPECT	1415	n/a	1	n/a	n/a	n/a	n/a	n/a
3772854	RECOG_CONF	n/a	LTP212	ltpFR	1	9	0	SUSPECT	1415	1	1	n/a	n/a	n/a	n/a	n/a
3774703	RECOG_TARGET	n/a	LTP212	ltpFR	1	9	1	SPARROW	1347	4	1	n/a	n/a	n/a	n/a	n/a
3775728	RECOG_RESP	n/a	LTP212	ltpFR	1	9	1	SPARROW	1347	n/a	1	n/a	n/a	n/a	n/a	n/a
3776785	RECOG_CONF	n/a	LTP212	ltpFR	1	9	1	SPARROW	1347	4	1	n/a	n/a	n/a	n/a	n/a
3778547	RECOG_LURE	n/a	LTP212	ltpFR	1	9	n/a	BLACKBOARD	133	4	n/a	n/a	n/a	n/a	n/a	n/a
3779584	RECOG_RESP	n/a	LTP212	ltpFR	1	9	n/a	BLACKBOARD	133	n/a	n/a	n/a	n/a	n/a	n/a	n/a
3780667	RECOG_CONF	n/a	LTP212	ltpFR	1	9	n/a	BLACKBOARD	133	4	n/a	n/a	n/a	n/a	n/a	n/a
3782508	RECOG_LURE	n/a	LTP212	ltpFR	1	9	n/a	PIGMENT	1066	2	n/a	n/a	n/a	n/a	n/a	n/a
3785097	RECOG_RESP	n/a	LTP212	ltpFR	1	9	n/a	PIGMENT	1066	n/a	n/a	n/a	n/a	n/a	n/a	n/a
3786384	RECOG_CONF	n/a	LTP212	ltpFR	1	9	n/a	PIGMENT	1066	2	n/a	n/a	n/a	n/a	n/a	n/a
3788483	RECOG_TARGET	n/a	LTP212	ltpFR	1	9	-1	FENCE	560	1	-1	n/a	n/a	n/a	n/a	n/a
3789651	RECOG_RESP	n/a	LTP212	ltpFR	1	9	-1	FENCE	560	n/a	-1	n/a	n/a	n/a	n/a	n/a
3790923	RECOG_CONF	n/a	LTP212	ltpFR	1	9	-1	FENCE	560	1	-1	n/a	n/a	n/a	n/a	n/a
3792894	RECOG_TARGET	n/a	LTP212	ltpFR	1	9	1	INSTRUCTOR	741	2	1	n/a	n/a	n/a	n/a	n/a
3794600	RECOG_RESP	n/a	LTP212	ltpFR	1	9	1	INSTRUCTOR	741	n/a	1	n/a	n/a	n/a	n/a	n/a
3795822	RECOG_CONF	n/a	LTP212	ltpFR	1	9	1	INSTRUCTOR	741	2	1	n/a	n/a	n/a	n/a	n/a
3797685	RECOG_TARGET	n/a	LTP212	ltpFR	1	9	0	VETERAN	1561	5	1	n/a	n/a	n/a	n/a	n/a
3798566	RECOG_RESP	n/a	LTP212	ltpFR	1	9	0	VETERAN	1561	n/a	1	n/a	n/a	n/a	n/a	n/a
3799644	RECOG_CONF	n/a	LTP212	ltpFR	1	9	0	VETERAN	1561	5	1	n/a	n/a	n/a	n/a	n/a
3801596	RECOG_LURE	n/a	LTP212	ltpFR	1	9	n/a	POSSUM	1112	3	n/a	n/a	n/a	n/a	n/a	n/a
3802771	RECOG_RESP	n/a	LTP212	ltpFR	1	9	n/a	POSSUM	1112	n/a	n/a	n/a	n/a	n/a	n/a	n/a
3803884	RECOG_CONF	n/a	LTP212	ltpFR	1	9	n/a	POSSUM	1112	3	n/a	n/a	n/a	n/a	n/a	n/a
3805858	RECOG_TARGET	n/a	LTP212	ltpFR	1	9	-1	OREGANO	983	3	-1	n/a	n/a	n/a	n/a	n/a
3806917	RECOG_RESP	n/a	LTP212	ltpFR	1	9	-1	OREGANO	983	n/a	-1	n/a	n/a	n/a	n/a	n/a
3808034	RECOG_CONF	n/a	LTP212	ltpFR	1	9	-1	OREGANO	983	3	-1	n/a	n/a	n/a	n/a	n/a
3809935	RECOG_TARGET	n/a	LTP212	ltpFR	1	9	0	SAW	1239	1	1	n/a	n/a	n/a	n/a	n/a
3811362	RECOG_RESP	n/a	LTP212	ltpFR	1	9	0	SAW	1239	n/a	1	n/a	n/a	n/a	n/a	n/a
3812504	RECOG_CONF	n/a	LTP212	ltpFR	1	9	0	SAW	1239	1	1	n/a	n/a	n/a	n/a	n/a
3814560	RECOG_TARGET	n/a	LTP212	ltpFR	1	9	-1	STEW	1380	1	-1	n/a	n/a	n/a	n/a	n/a
3815567	RECOG_RESP	n/a	LTP212	ltpFR	1	9	-1	STEW	1380	n/a	-1	n/a	n/a	n/a	n/a	n/a
3816745	RECOG_CONF	n/a	LTP212	ltpFR	1	9	-1	STEW	1380	1	-1	n/a	n/a	n/a	n/a	n/a
3818638	RECOG_LURE	n/a	LTP212	ltpFR	1	9	n/a	GAVEL	627	3	n/a	n/a	n/a	n/a	n/a	n/a
3819733	RECOG_RESP	n/a	LTP212	ltpFR	1	9	n/a	GAVEL	627	n/a	n/a	n/a	n/a	n/a	n/a	n/a
3821634	RECOG_CONF	n/a	LTP212	ltpFR	1	9	n/a	GAVEL	627	3	n/a	n/a	n/a	n/a	n/a	n/a
3823381	RECOG_TARGET	n/a	LTP212	ltpFR	1	9	1	BIBLE	124	2	0	n/a	n/a	n/a	n/a	n/a
3824881	RECOG_RESP	n/a	LTP212	ltpFR	1	9	1	BIBLE	124	n/a	0	n/a	n/a	n/a	n/a	n/a
3826213	RECOG_CONF	n/a	LTP212	ltpFR	1	9	1	BIBLE	124	2	0	n/a	n/a	n/a	n/a	n/a
3833128	REC_START	n/a	LTP212	ltpFR	1	10	n/a	n/a	n/a	n/a	n/a	n/a	n/a	n/a	n/a	n/a
3833167	RECOG_TARGET	n/a	LTP212	ltpFR	1	10	-1	ROOM	1206	1	-1	n/a	n/a	n/a	n/a	n/a
3834450	RECOG_RESP	n/a	LTP212	ltpFR	1	10	-1	ROOM	1206	n/a	-1	n/a	n/a	n/a	n/a	n/a
3835587	RECOG_CONF	n/a	LTP212	ltpFR	1	10	-1	ROOM	1206	1	-1	n/a	n/a	n/a	n/a	n/a
3837427	RECOG_TARGET	n/a	LTP212	ltpFR	1	10	0	WELL	1600	1	1	n/a	n/a	n/a	n/a	n/a
3838615	RECOG_RESP	n/a	LTP212	ltpFR	1	10	0	WELL	1600	n/a	1	n/a	n/a	n/a	n/a	n/a
3839798	RECOG_CONF	n/a	LTP212	ltpFR	1	10	0	WELL	1600	1	1	n/a	n/a	n/a	n/a	n/a
3841620	RECOG_TARGET	n/a	LTP212	ltpFR	1	10	0	ATTIRE	57	4	1	n/a	n/a	n/a	n/a	n/a
3842541	RECOG_RESP	n/a	LTP212	ltpFR	1	10	0	ATTIRE	57	n/a	1	n/a	n/a	n/a	n/a	n/a
3843579	RECOG_CONF	n/a	LTP212	ltpFR	1	10	0	ATTIRE	57	4	1	n/a	n/a	n/a	n/a	n/a
3845531	RECOG_TARGET	n/a	LTP212	ltpFR	1	10	0	THREAD	1460	1	0	n/a	n/a	n/a	n/a	n/a
3846852	RECOG_RESP	n/a	LTP212	ltpFR	1	10	0	THREAD	1460	n/a	0	n/a	n/a	n/a	n/a	n/a
3847959	RECOG_CONF	n/a	LTP212	ltpFR	1	10	0	THREAD	1460	1	0	n/a	n/a	n/a	n/a	n/a
3849875	RECOG_TARGET	n/a	LTP212	ltpFR	1	10	0	SPY	1360	4	1	n/a	n/a	n/a	n/a	n/a
3850643	RECOG_RESP	n/a	LTP212	ltpFR	1	10	0	SPY	1360	n/a	1	n/a	n/a	n/a	n/a	n/a
3851661	RECOG_CONF	n/a	LTP212	ltpFR	1	10	0	SPY	1360	4	1	n/a	n/a	n/a	n/a	n/a
3853602	RECOG_LURE	n/a	LTP212	ltpFR	1	10	n/a	TOILET	1475	2	n/a	n/a	n/a	n/a	n/a	n/a
3854589	RECOG_RESP	n/a	LTP212	ltpFR	1	10	n/a	TOILET	1475	n/a	n/a	n/a	n/a	n/a	n/a	n/a
3855811	RECOG_CONF	n/a	LTP212	ltpFR	1	10	n/a	TOILET	1475	2	n/a	n/a	n/a	n/a	n/a	n/a
3857563	RECOG_TARGET	n/a	LTP212	ltpFR	1	10	1	TOWER	1490	1	0	n/a	n/a	n/a	n/a	n/a
3859114	RECOG_RESP	n/a	LTP212	ltpFR	1	10	1	TOWER	1490	n/a	0	n/a	n/a	n/a	n/a	n/a
3860241	RECOG_CONF	n/a	LTP212	ltpFR	1	10	1	TOWER	1490	1	0	n/a	n/a	n/a	n/a	n/a
3862273	RECOG_TARGET	n/a	LTP212	ltpFR	1	10	1	BROOK	177	2	0	n/a	n/a	n/a	n/a	n/a
3863329	RECOG_RESP	n/a	LTP212	ltpFR	1	10	1	BROOK	177	n/a	0	n/a	n/a	n/a	n/a	n/a
3864591	RECOG_CONF	n/a	LTP212	ltpFR	1	10	1	BROOK	177	2	0	n/a	n/a	n/a	n/a	n/a
