onset	duration	trial_type	sample	stim_file	subject	experiment	session	trial	task	item_name	item_num	recog_resp	recog_conf	resp	color_r	color_g	color_b	case	font
233.588	n/a	SESS_START	116794	n/a	LTP233	ltpFR	16	n/a	n/a	n/a	n/a	1	1	n/a	n/a	n/a	n/a	n/a	n/a
257.73	n/a	WORD	128865	wordpools/wasnorm_wordpool_less_exclusions.txt	LTP233	ltpFR	16	1	1	STOVE	1388	0	n/a	1	0.422607421875	0.5869140625	0	upper	zerothre.ttf
261.724	n/a	WORD	130862	wordpools/wasnorm_wordpool_less_exclusions.txt	LTP233	ltpFR	16	1	1	POT	1114	n/a	n/a	0	0.422607421875	0.5869140625	0	upper	zerothre.ttf
265.878	n/a	WORD	132939	wordpools/wasnorm_wordpool_less_exclusions.txt	LTP233	ltpFR	16	1	1	GROUND	666	n/a	n/a	0	0.422607421875	0.5869140625	0	upper	zerothre.ttf
269.926	n/a	WORD	134963	wordpools/wasnorm_wordpool_less_exclusions.txt	LTP233	ltpFR	16	1	1	NEST	945	n/a	n/a	0	0.422607421875	0.5869140625	0	upper	zerothre.ttf
274.038	n/a	WORD	137019	wordpools/wasnorm_wordpool_less_exclusions.txt	LTP233	ltpFR	16	1	0	CROCODILE	411	n/a	n/a	1	0.57763671875	0.412841796875	1	lower	amplitud.ttf
277.958	n/a	WORD	138979	wordpools/wasnorm_wordpool_less_exclusions.txt	LTP233	ltpFR	16	1	0	LEADER	807	n/a	n/a	1	0.57763671875	0.412841796875	1	lower	amplitud.ttf
281.974	n/a	WORD	140987	wordpools/wasnorm_wordpool_less_exclusions.txt	LTP233	ltpFR	16	1	0	POTTERY	1116	n/a	n/a	0	0.57763671875	0.412841796875	1	lower	amplitud.ttf
285.872	n/a	WORD	142936	wordpools/wasnorm_wordpool_less_exclusions.txt	LTP233	ltpFR	16	1	1	LEG	809	n/a	n/a	0	0.422607421875	0.5869140625	0	upper	zerothre.ttf
289.786	n/a	WORD	144893	wordpools/wasnorm_wordpool_less_exclusions.txt	LTP233	ltpFR	16	1	1	SNAKE	1333	n/a	n/a	0	0.422607421875	0.5869140625	0	upper	zerothre.ttf
293.914	n/a	WORD	146957	wordpools/wasnorm_wordpool_less_exclusions.txt	LTP233	ltpFR	16	1	1	MAP	865	n/a	n/a	0	0.422607421875	0.5869140625	0	upper	zerothre.ttf
297.782	n/a	WORD	148891	wordpools/wasnorm_wordpool_less_exclusions.txt	LTP233	ltpFR	16	1	1	PENGUIN	1044	n/a	n/a	1	0.422607421875	0.5869140625	0	upper	zerothre.ttf
301.846	n/a	WORD	150923	wordpools/wasnorm_wordpool_less_exclusions.txt	LTP233	ltpFR	16	1	0	SPOON	1357	n/a	n/a	0	0.57763671875	0.412841796875	1	lower	amplitud.ttf
305.932	n/a	WORD	152966	wordpools/wasnorm_wordpool_less_exclusions.txt	LTP233	ltpFR	16	1	0	BANQUET	86	n/a	n/a	0	0.57763671875	0.412841796875	1	lower	amplitud.ttf
310.014	n/a	WORD	155007	wordpools/wasnorm_wordpool_less_exclusions.txt	LTP233	ltpFR	16	1	0	COOKBOOK	373	n/a	n/a	0	0.57763671875	0.412841796875	1	lower	amplitud.ttf
313.98	n/a	WORD	156990	wordpools/wasnorm_wordpool_less_exclusions.txt	LTP233	ltpFR	16	1	0	DINER	467	n/a	n/a	0	0.57763671875	0.412841796875	1	lower	amplitud.ttf
318.14	n/a	WORD	159070	wordpools/wasnorm_wordpool_less_exclusions.txt	LTP233	ltpFR	16	1	0	CASHIER	254	n/a	n/a	0	0.57763671875	0.412841796875	1	lower	amplitud.ttf
324.114	n/a	REC_START	162057	n/a	LTP233	ltpFR	16	1	n/a	n/a	n/a	n/a	n/a	n/a	n/a	n/a	n/a	n/a	n/a
325.58	n/a	REC_WORD	162790	wordpools/wasnorm_wordpool_less_exclusions.txt	LTP233	ltpFR	16	1	0	CASHIER	254	n/a	n/a	0	n/a	n/a	n/a	n/a	n/a
326.168	n/a	REC_WORD	163084	wordpools/wasnorm_wordpool_less_exclusions.txt	LTP233	ltpFR	16	1	0	SPOON	1357	n/a	n/a	0	n/a	n/a	n/a	n/a	n/a
327.262	n/a	REC_WORD	163631	wordpools/wasnorm_wordpool_less_exclusions.txt	LTP233	ltpFR	16	1	0	COOKBOOK	373	n/a	n/a	0	n/a	n/a	n/a	n/a	n/a
328.08	n/a	REC_WORD	164040	wordpools/wasnorm_wordpool_less_exclusions.txt	LTP233	ltpFR	16	1	0	DINER	467	n/a	n/a	0	n/a	n/a	n/a	n/a	n/a
330.07	n/a	REC_WORD	165035	wordpools/wasnorm_wordpool_less_exclusions.txt	LTP233	ltpFR	16	1	0	CROCODILE	411	n/a	n/a	1	n/a	n/a	n/a	n/a	n/a
331.402	n/a	REC_WORD	165701	wordpools/wasnorm_wordpool_less_exclusions.txt	LTP233	ltpFR	16	1	1	LEG	809	n/a	n/a	0	n/a	n/a	n/a	n/a	n/a
332.8	n/a	REC_WORD	166400	wordpools/wasnorm_wordpool_less_exclusions.txt	LTP233	ltpFR	16	1	0	POTTERY	1116	n/a	n/a	0	n/a	n/a	n/a	n/a	n/a
337.22	n/a	REC_WORD	168610	wordpools/wasnorm_wordpool_less_exclusions.txt	LTP233	ltpFR	16	1	1	SNAKE	1333	n/a	n/a	0	n/a	n/a	n/a	n/a	n/a
340.324	n/a	REC_WORD	170162	wordpools/wasnorm_wordpool_less_exclusions.txt	LTP233	ltpFR	16	1	1	NEST	945	n/a	n/a	0	n/a	n/a	n/a	n/a	n/a
342.374	n/a	REC_WORD	171187	wordpools/wasnorm_wordpool_less_exclusions.txt	LTP233	ltpFR	16	1	1	GROUND	666	n/a	n/a	0	n/a	n/a	n/a	n/a	n/a
344.204	n/a	REC_WORD	172102	wordpools/wasnorm_wordpool_less_exclusions.txt	LTP233	ltpFR	16	1	1	POT	1114	n/a	n/a	0	n/a	n/a	n/a	n/a	n/a
345.162	n/a	REC_WORD	172581	wordpools/wasnorm_wordpool_less_exclusions.txt	LTP233	ltpFR	16	1	1	STOVE	1388	n/a	n/a	1	n/a	n/a	n/a	n/a	n/a
350.096	n/a	REC_WORD	175048	wordpools/wasnorm_wordpool_less_exclusions.txt	LTP233	ltpFR	16	1	1	PENGUIN	1044	n/a	n/a	1	n/a	n/a	n/a	n/a	n/a
409.092	n/a	WORD	204546	wordpools/wasnorm_wordpool_less_exclusions.txt	LTP233	ltpFR	16	2	0	TIDE	1465	n/a	n/a	1	0.57763671875	0.412841796875	1	lower	amplitud.ttf
413.19	n/a	WORD	206595	wordpools/wasnorm_wordpool_less_exclusions.txt	LTP233	ltpFR	16	2	0	ALBUM	14	n/a	n/a	0	0.57763671875	0.412841796875	1	lower	amplitud.ttf
417.252	n/a	WORD	208626	wordpools/wasnorm_wordpool_less_exclusions.txt	LTP233	ltpFR	16	2	0	FILM	565	n/a	n/a	1	0.57763671875	0.412841796875	1	lower	amplitud.ttf
421.122	n/a	WORD	210561	wordpools/wasnorm_wordpool_less_exclusions.txt	LTP233	ltpFR	16	2	0	GOLD	647	n/a	n/a	0	0.57763671875	0.412841796875	1	lower	amplitud.ttf
424.952	n/a	WORD	212476	wordpools/wasnorm_wordpool_less_exclusions.txt	LTP233	ltpFR	16	2	0	CHAIN	273	n/a	n/a	0	0.57763671875	0.412841796875	1	lower	amplitud.ttf
428.9	n/a	WORD	214450	wordpools/wasnorm_wordpool_less_exclusions.txt	LTP233	ltpFR	16	2	1	HAWK	692	n/a	n/a	1	0.422607421875	0.5869140625	0	upper	zerothre.ttf
432.746	n/a	WORD	216373	wordpools/wasnorm_wordpool_less_exclusions.txt	LTP233	ltpFR	16	2	1	PARROT	1015	n/a	n/a	1	0.422607421875	0.5869140625	0	upper	zerothre.ttf
436.932	n/a	WORD	218466	wordpools/wasnorm_wordpool_less_exclusions.txt	LTP233	ltpFR	16	2	1	UNDERWEAR	1537	n/a	n/a	0	0.422607421875	0.5869140625	0	upper	zerothre.ttf
441.044	n/a	WORD	220522	wordpools/wasnorm_wordpool_less_exclusions.txt	LTP233	ltpFR	16	2	1	ANTELOPE	27	n/a	n/a	1	0.422607421875	0.5869140625	0	upper	zerothre.ttf
444.908	n/a	WORD	222454	wordpools/wasnorm_wordpool_less_exclusions.txt	LTP233	ltpFR	16	2	1	BOOTH	151	n/a	n/a	0	0.422607421875	0.5869140625	0	upper	zerothre.ttf
448.79	n/a	WORD	224395	wordpools/wasnorm_wordpool_less_exclusions.txt	LTP233	ltpFR	16	2	1	METEOR	889	n/a	n/a	1	0.422607421875	0.5869140625	0	upper	zerothre.ttf
452.978	n/a	WORD	226489	wordpools/wasnorm_wordpool_less_exclusions.txt	LTP233	ltpFR	16	2	0	TREAD	1499	n/a	n/a	0	0.57763671875	0.412841796875	1	lower	amplitud.ttf
456.892	n/a	WORD	228446	wordpools/wasnorm_wordpool_less_exclusions.txt	LTP233	ltpFR	16	2	0	PICNIC	1060	n/a	n/a	0	0.57763671875	0.412841796875	1	lower	amplitud.ttf
461.09	n/a	WORD	230545	wordpools/wasnorm_wordpool_less_exclusions.txt	LTP233	ltpFR	16	2	0	BROOK	177	n/a	n/a	0	0.57763671875	0.412841796875	1	lower	amplitud.ttf
465.002	n/a	WORD	232501	wordpools/wasnorm_wordpool_less_exclusions.txt	LTP233	ltpFR	16	2	1	CHEST	295	n/a	n/a	0	0.422607421875	0.5869140625	0	upper	zerothre.ttf
469.084	n/a	WORD	234542	wordpools/wasnorm_wordpool_less_exclusions.txt	LTP233	ltpFR	16	2	1	CHICKEN	297	n/a	n/a	1	0.422607421875	0.5869140625	0	upper	zerothre.ttf
475.062	n/a	REC_START	237531	n/a	LTP233	ltpFR	16	2	n/a	n/a	n/a	n/a	n/a	n/a	n/a	n/a	n/a	n/a	n/a
475.69	n/a	REC_WORD	237845	wordpools/wasnorm_wordpool_less_exclusions.txt	LTP233	ltpFR	16	2	1	CHICKEN	297	n/a	n/a	1	n/a	n/a	n/a	n/a	n/a
477.132	n/a	REC_WORD	238566	wordpools/wasnorm_wordpool_less_exclusions.txt	LTP233	ltpFR	16	2	1	CHEST	295	n/a	n/a	0	n/a	n/a	n/a	n/a	n/a
478.802	n/a	REC_WORD	239401	wordpools/wasnorm_wordpool_less_exclusions.txt	LTP233	ltpFR	16	2	1	BOOTH	151	n/a	n/a	0	n/a	n/a	n/a	n/a	n/a
480.2	n/a	REC_WORD	240100	wordpools/wasnorm_wordpool_less_exclusions.txt	LTP233	ltpFR	16	2	0	PICNIC	1060	n/a	n/a	0	n/a	n/a	n/a	n/a	n/a
481.502	n/a	REC_WORD	240751	wordpools/wasnorm_wordpool_less_exclusions.txt	LTP233	ltpFR	16	2	1	METEOR	889	n/a	n/a	1	n/a	n/a	n/a	n/a	n/a
482.828	n/a	REC_WORD	241414	wordpools/wasnorm_wordpool_less_exclusions.txt	LTP233	ltpFR	16	2	1	UNDERWEAR	1537	n/a	n/a	0	n/a	n/a	n/a	n/a	n/a
484.18	n/a	REC_WORD	242090	wordpools/wasnorm_wordpool_less_exclusions.txt	LTP233	ltpFR	16	2	1	ANTELOPE	27	n/a	n/a	1	n/a	n/a	n/a	n/a	n/a
486.45	n/a	REC_WORD	243225	wordpools/wasnorm_wordpool_less_exclusions.txt	LTP233	ltpFR	16	2	1	CHICKEN	297	n/a	n/a	1	n/a	n/a	n/a	n/a	n/a
487.642	n/a	REC_WORD	243821	wordpools/wasnorm_wordpool_less_exclusions.txt	LTP233	ltpFR	16	2	1	CHEST	295	n/a	n/a	0	n/a	n/a	n/a	n/a	n/a
491.624	n/a	REC_WORD	245812	wordpools/wasnorm_wordpool_less_exclusions.txt	LTP233	ltpFR	16	2	1	PARROT	1015	n/a	n/a	1	n/a	n/a	n/a	n/a	n/a
503.308	n/a	REC_WORD	251654	wordpools/wasnorm_wordpool_less_exclusions.txt	LTP233	ltpFR	16	2	0	FILM	565	n/a	n/a	1	n/a	n/a	n/a	n/a	n/a
506.062	n/a	REC_WORD	253031	wordpools/wasnorm_wordpool_less_exclusions.txt	LTP233	ltpFR	16	2	0	GOLD	647	n/a	n/a	0	n/a	n/a	n/a	n/a	n/a
507.21	n/a	REC_WORD	253605	wordpools/wasnorm_wordpool_less_exclusions.txt	LTP233	ltpFR	16	2	0	CHAIN	273	n/a	n/a	0	n/a	n/a	n/a	n/a	n/a
509.326	n/a	REC_WORD	254663	wordpools/wasnorm_wordpool_less_exclusions.txt	LTP233	ltpFR	16	2	0	ALBUM	14	n/a	n/a	0	n/a	n/a	n/a	n/a	n/a
510.708	n/a	REC_WORD	255354	wordpools/wasnorm_wordpool_less_exclusions.txt	LTP233	ltpFR	16	2	0	TIDE	1465	n/a	n/a	1	n/a	n/a	n/a	n/a	n/a
560.704	n/a	WORD	280352	wordpools/wasnorm_wordpool_less_exclusions.txt	LTP233	ltpFR	16	3	0	DOLPHIN	483	n/a	n/a	1	0.57763671875	0.412841796875	1	lower	amplitud.ttf
564.838	n/a	WORD	282419	wordpools/wasnorm_wordpool_less_exclusions.txt	LTP233	ltpFR	16	3	0	IRON	744	n/a	n/a	1	0.57763671875	0.412841796875	1	lower	amplitud.ttf
568.92	n/a	WORD	284460	wordpools/wasnorm_wordpool_less_exclusions.txt	LTP233	ltpFR	16	3	0	COOK	372	n/a	n/a	1	0.57763671875	0.412841796875	1	lower	amplitud.ttf
572.818	n/a	WORD	286409	wordpools/wasnorm_wordpool_less_exclusions.txt	LTP233	ltpFR	16	3	0	MONGOOSE	909	n/a	n/a	1	0.57763671875	0.412841796875	1	lower	amplitud.ttf
576.8	n/a	WORD	288400	wordpools/wasnorm_wordpool_less_exclusions.txt	LTP233	ltpFR	16	3	1	SERPENT	1270	n/a	n/a	1	0.422607421875	0.5869140625	0	upper	zerothre.ttf
580.714	n/a	WORD	290357	wordpools/wasnorm_wordpool_less_exclusions.txt	LTP233	ltpFR	16	3	1	CAB	209	n/a	n/a	0	0.422607421875	0.5869140625	0	upper	zerothre.ttf
584.596	n/a	WORD	292298	wordpools/wasnorm_wordpool_less_exclusions.txt	LTP233	ltpFR	16	3	1	WAGON	1578	n/a	n/a	0	0.422607421875	0.5869140625	0	upper	zerothre.ttf
588.612	n/a	WORD	294306	wordpools/wasnorm_wordpool_less_exclusions.txt	LTP233	ltpFR	16	3	0	FLANNEL	574	n/a	n/a	1	0.57763671875	0.412841796875	1	lower	amplitud.ttf
592.66	n/a	WORD	296330	wordpools/wasnorm_wordpool_less_exclusions.txt	LTP233	ltpFR	16	3	0	TOWN	1491	n/a	n/a	1	0.57763671875	0.412841796875	1	lower	amplitud.ttf
596.676	n/a	WORD	298338	wordpools/wasnorm_wordpool_less_exclusions.txt	LTP233	ltpFR	16	3	0	CHIMPANZEE	302	n/a	n/a	1	0.57763671875	0.412841796875	1	lower	amplitud.ttf
600.786	n/a	WORD	300393	wordpools/wasnorm_wordpool_less_exclusions.txt	LTP233	ltpFR	16	3	0	ELBOW	520	n/a	n/a	0	0.57763671875	0.412841796875	1	lower	amplitud.ttf
604.64	n/a	WORD	302320	wordpools/wasnorm_wordpool_less_exclusions.txt	LTP233	ltpFR	16	3	1	ITEM	746	n/a	n/a	0	0.422607421875	0.5869140625	0	upper	zerothre.ttf
608.52	n/a	WORD	304260	wordpools/wasnorm_wordpool_less_exclusions.txt	LTP233	ltpFR	16	3	1	LIST	830	n/a	n/a	0	0.422607421875	0.5869140625	0	upper	zerothre.ttf
612.418	n/a	WORD	306209	wordpools/wasnorm_wordpool_less_exclusions.txt	LTP233	ltpFR	16	3	1	GAZELLE	628	n/a	n/a	0	0.422607421875	0.5869140625	0	upper	zerothre.ttf
616.602	n/a	WORD	308301	wordpools/wasnorm_wordpool_less_exclusions.txt	LTP233	ltpFR	16	3	1	APPENDAGE	32	n/a	n/a	0	0.422607421875	0.5869140625	0	upper	zerothre.ttf
620.634	n/a	WORD	310317	wordpools/wasnorm_wordpool_less_exclusions.txt	LTP233	ltpFR	16	3	1	SLACKS	1323	n/a	n/a	0	0.422607421875	0.5869140625	0	upper	zerothre.ttf
626.386	n/a	REC_START	313193	n/a	LTP233	ltpFR	16	3	n/a	n/a	n/a	n/a	n/a	n/a	n/a	n/a	n/a	n/a	n/a
627.06	n/a	REC_WORD	313530	wordpools/wasnorm_wordpool_less_exclusions.txt	LTP233	ltpFR	16	3	1	SLACKS	1323	n/a	n/a	0	n/a	n/a	n/a	n/a	n/a
628.642	n/a	REC_WORD	314321	wordpools/wasnorm_wordpool_less_exclusions.txt	LTP233	ltpFR	16	3	1	GAZELLE	628	n/a	n/a	0	n/a	n/a	n/a	n/a	n/a
629.854	n/a	REC_WORD	314927	wordpools/wasnorm_wordpool_less_exclusions.txt	LTP233	ltpFR	16	3	0	CHIMPANZEE	302	n/a	n/a	1	n/a	n/a	n/a	n/a	n/a
630.854	n/a	REC_WORD_VV	315427	wordpools/wasnorm_wordpool_less_exclusions.txt	LTP233	ltpFR	16	3	n/a	<>	-1	n/a	n/a	n/a	n/a	n/a	n/a	n/a	n/a
633.396	n/a	REC_WORD_VV	316698	wordpools/wasnorm_wordpool_less_exclusions.txt	LTP233	ltpFR	16	3	n/a	<>	-1	n/a	n/a	n/a	n/a	n/a	n/a	n/a	n/a
638.37	n/a	REC_WORD	319185	wordpools/wasnorm_wordpool_less_exclusions.txt	LTP233	ltpFR	16	3	0	ELBOW	520	n/a	n/a	0	n/a	n/a	n/a	n/a	n/a
639.656	n/a	REC_WORD	319828	wordpools/wasnorm_wordpool_less_exclusions.txt	LTP233	ltpFR	16	3	1	ITEM	746	n/a	n/a	0	n/a	n/a	n/a	n/a	n/a
644.296	n/a	REC_WORD	322148	wordpools/wasnorm_wordpool_less_exclusions.txt	LTP233	ltpFR	16	3	0	MONGOOSE	909	n/a	n/a	1	n/a	n/a	n/a	n/a	n/a
645.714	n/a	REC_WORD	322857	wordpools/wasnorm_wordpool_less_exclusions.txt	LTP233	ltpFR	16	3	1	SERPENT	1270	n/a	n/a	1	n/a	n/a	n/a	n/a	n/a
649.146	n/a	REC_WORD	324573	wordpools/wasnorm_wordpool_less_exclusions.txt	LTP233	ltpFR	16	3	0	IRON	744	n/a	n/a	1	n/a	n/a	n/a	n/a	n/a
650.488	n/a	REC_WORD	325244	wordpools/wasnorm_wordpool_less_exclusions.txt	LTP233	ltpFR	16	3	0	COOK	372	n/a	n/a	1	n/a	n/a	n/a	n/a	n/a
659.394	n/a	REC_WORD	329697	wordpools/wasnorm_wordpool_less_exclusions.txt	LTP233	ltpFR	16	3	0	DOLPHIN	483	n/a	n/a	1	n/a	n/a	n/a	n/a	n/a
706.244	n/a	WORD	353122	wordpools/wasnorm_wordpool_less_exclusions.txt	LTP233	ltpFR	16	4	-1	CLOTHES	327	n/a	n/a	-1	1.0	1.0	1	upper	Verdana.ttf
710.444	n/a	WORD	355222	wordpools/wasnorm_wordpool_less_exclusions.txt	LTP233	ltpFR	16	4	-1	STEAM	1375	n/a	n/a	-1	1.0	1.0	1	upper	Verdana.ttf
714.454	n/a	WORD	357227	wordpools/wasnorm_wordpool_less_exclusions.txt	LTP233	ltpFR	16	4	-1	BUCKET	184	n/a	n/a	-1	1.0	1.0	1	upper	Verdana.ttf
718.676	n/a	WORD	359338	wordpools/wasnorm_wordpool_less_exclusions.txt	LTP233	ltpFR	16	4	-1	MUFFIN	929	n/a	n/a	-1	1.0	1.0	1	upper	Verdana.ttf
722.708	n/a	WORD	361354	wordpools/wasnorm_wordpool_less_exclusions.txt	LTP233	ltpFR	16	4	-1	COOKIE	374	n/a	n/a	-1	1.0	1.0	1	upper	Verdana.ttf
726.538	n/a	WORD	363269	wordpools/wasnorm_wordpool_less_exclusions.txt	LTP233	ltpFR	16	4	-1	HANDKERCHIEF	686	n/a	n/a	-1	1.0	1.0	1	upper	Verdana.ttf
730.402	n/a	WORD	365201	wordpools/wasnorm_wordpool_less_exclusions.txt	LTP233	ltpFR	16	4	-1	DOORBELL	487	n/a	n/a	-1	1.0	1.0	1	upper	Verdana.ttf
734.416	n/a	WORD	367208	wordpools/wasnorm_wordpool_less_exclusions.txt	LTP233	ltpFR	16	4	-1	GEM	629	n/a	n/a	-1	1.0	1.0	1	upper	Verdana.ttf
738.548	n/a	WORD	369274	wordpools/wasnorm_wordpool_less_exclusions.txt	LTP233	ltpFR	16	4	-1	DECK	443	n/a	n/a	-1	1.0	1.0	1	upper	Verdana.ttf
742.566	n/a	WORD	371283	wordpools/wasnorm_wordpool_less_exclusions.txt	LTP233	ltpFR	16	4	-1	GOWN	652	n/a	n/a	-1	1.0	1.0	1	upper	Verdana.ttf
746.728	n/a	WORD	373364	wordpools/wasnorm_wordpool_less_exclusions.txt	LTP233	ltpFR	16	4	-1	BANKER	84	n/a	n/a	-1	1.0	1.0	1	upper	Verdana.ttf
750.948	n/a	WORD	375474	wordpools/wasnorm_wordpool_less_exclusions.txt	LTP233	ltpFR	16	4	-1	DAM	436	n/a	n/a	-1	1.0	1.0	1	upper	Verdana.ttf
754.894	n/a	WORD	377447	wordpools/wasnorm_wordpool_less_exclusions.txt	LTP233	ltpFR	16	4	-1	ARTICLE	42	n/a	n/a	-1	1.0	1.0	1	upper	Verdana.ttf
758.946	n/a	WORD	379473	wordpools/wasnorm_wordpool_less_exclusions.txt	LTP233	ltpFR	16	4	-1	DIME	466	n/a	n/a	-1	1.0	1.0	1	upper	Verdana.ttf
763.094	n/a	WORD	381547	wordpools/wasnorm_wordpool_less_exclusions.txt	LTP233	ltpFR	16	4	-1	PIRATE	1074	n/a	n/a	-1	1.0	1.0	1	upper	Verdana.ttf
767.31	n/a	WORD	383655	wordpools/wasnorm_wordpool_less_exclusions.txt	LTP233	ltpFR	16	4	-1	PREACHER	1119	n/a	n/a	-1	1.0	1.0	1	upper	Verdana.ttf
772.968	n/a	REC_START	386484	n/a	LTP233	ltpFR	16	4	n/a	n/a	n/a	n/a	n/a	n/a	n/a	n/a	n/a	n/a	n/a
778.42	n/a	REC_WORD	389210	wordpools/wasnorm_wordpool_less_exclusions.txt	LTP233	ltpFR	16	4	-1	PIRATE	1074	n/a	n/a	-1	n/a	n/a	n/a	n/a	n/a
779.742	n/a	REC_WORD_VV	389871	wordpools/wasnorm_wordpool_less_exclusions.txt	LTP233	ltpFR	16	4	n/a	<>	-1	n/a	n/a	n/a	n/a	n/a	n/a	n/a	n/a
780.176	n/a	REC_WORD	390088	wordpools/wasnorm_wordpool_less_exclusions.txt	LTP233	ltpFR	16	4	-1	PREACHER	1119	n/a	n/a	-1	n/a	n/a	n/a	n/a	n/a
782.016	n/a	REC_WORD	391008	wordpools/wasnorm_wordpool_less_exclusions.txt	LTP233	ltpFR	16	4	-1	ARTICLE	42	n/a	n/a	-1	n/a	n/a	n/a	n/a	n/a
783.478	n/a	REC_WORD	391739	wordpools/wasnorm_wordpool_less_exclusions.txt	LTP233	ltpFR	16	4	-1	DAM	436	n/a	n/a	-1	n/a	n/a	n/a	n/a	n/a
784.76	n/a	REC_WORD	392380	wordpools/wasnorm_wordpool_less_exclusions.txt	LTP233	ltpFR	16	4	-1	DIME	466	n/a	n/a	-1	n/a	n/a	n/a	n/a	n/a
785.938	n/a	REC_WORD	392969	wordpools/wasnorm_wordpool_less_exclusions.txt	LTP233	ltpFR	16	4	-1	BANKER	84	n/a	n/a	-1	n/a	n/a	n/a	n/a	n/a
787.2	n/a	REC_WORD	393600	wordpools/wasnorm_wordpool_less_exclusions.txt	LTP233	ltpFR	16	4	-1	GOWN	652	n/a	n/a	-1	n/a	n/a	n/a	n/a	n/a
788.382	n/a	REC_WORD	394191	wordpools/wasnorm_wordpool_less_exclusions.txt	LTP233	ltpFR	16	4	-1	DOORBELL	487	n/a	n/a	-1	n/a	n/a	n/a	n/a	n/a
789.5	n/a	REC_WORD	394750	wordpools/wasnorm_wordpool_less_exclusions.txt	LTP233	ltpFR	16	4	-1	GEM	629	n/a	n/a	-1	n/a	n/a	n/a	n/a	n/a
790.886	n/a	REC_WORD	395443	wordpools/wasnorm_wordpool_less_exclusions.txt	LTP233	ltpFR	16	4	-1	HANDKERCHIEF	686	n/a	n/a	-1	n/a	n/a	n/a	n/a	n/a
792.22	n/a	REC_WORD	396110	wordpools/wasnorm_wordpool_less_exclusions.txt	LTP233	ltpFR	16	4	-1	COOKIE	374	n/a	n/a	-1	n/a	n/a	n/a	n/a	n/a
793.128	n/a	REC_WORD	396564	wordpools/wasnorm_wordpool_less_exclusions.txt	LTP233	ltpFR	16	4	-1	MUFFIN	929	n/a	n/a	-1	n/a	n/a	n/a	n/a	n/a
794.14	n/a	REC_WORD	397070	wordpools/wasnorm_wordpool_less_exclusions.txt	LTP233	ltpFR	16	4	n/a	STEAMER	-1	n/a	n/a	n/a	n/a	n/a	n/a	n/a	n/a
799.244	n/a	REC_WORD	399622	wordpools/wasnorm_wordpool_less_exclusions.txt	LTP233	ltpFR	16	4	-1	BUCKET	184	n/a	n/a	-1	n/a	n/a	n/a	n/a	n/a
800.306	n/a	REC_WORD	400153	wordpools/wasnorm_wordpool_less_exclusions.txt	LTP233	ltpFR	16	4	-1	CLOTHES	327	n/a	n/a	-1	n/a	n/a	n/a	n/a	n/a
851.834	n/a	WORD	425917	wordpools/wasnorm_wordpool_less_exclusions.txt	LTP233	ltpFR	16	5	-1	CARNIVAL	245	n/a	n/a	-1	1.0	1.0	1	upper	Verdana.ttf
855.678	n/a	WORD	427839	wordpools/wasnorm_wordpool_less_exclusions.txt	LTP233	ltpFR	16	5	-1	CUPBOARD	425	n/a	n/a	-1	1.0	1.0	1	upper	Verdana.ttf
859.714	n/a	WORD	429857	wordpools/wasnorm_wordpool_less_exclusions.txt	LTP233	ltpFR	16	5	-1	MUG	930	n/a	n/a	-1	1.0	1.0	1	upper	Verdana.ttf
863.662	n/a	WORD	431831	wordpools/wasnorm_wordpool_less_exclusions.txt	LTP233	ltpFR	16	5	-1	BAY	102	n/a	n/a	-1	1.0	1.0	1	upper	Verdana.ttf
867.628	n/a	WORD	433814	wordpools/wasnorm_wordpool_less_exclusions.txt	LTP233	ltpFR	16	5	-1	STEW	1380	n/a	n/a	-1	1.0	1.0	1	upper	Verdana.ttf
871.46	n/a	WORD	435730	wordpools/wasnorm_wordpool_less_exclusions.txt	LTP233	ltpFR	16	5	-1	POOL	1103	n/a	n/a	-1	1.0	1.0	1	upper	Verdana.ttf
875.474	n/a	WORD	437737	wordpools/wasnorm_wordpool_less_exclusions.txt	LTP233	ltpFR	16	5	-1	WATER	1594	n/a	n/a	-1	1.0	1.0	1	upper	Verdana.ttf
879.336	n/a	WORD	439668	wordpools/wasnorm_wordpool_less_exclusions.txt	LTP233	ltpFR	16	5	-1	FREEWAY	603	n/a	n/a	-1	1.0	1.0	1	upper	Verdana.ttf
883.338	n/a	WORD	441669	wordpools/wasnorm_wordpool_less_exclusions.txt	LTP233	ltpFR	16	5	-1	COLESLAW	344	n/a	n/a	-1	1.0	1.0	1	upper	Verdana.ttf
887.202	n/a	WORD	443601	wordpools/wasnorm_wordpool_less_exclusions.txt	LTP233	ltpFR	16	5	-1	LIMB	822	n/a	n/a	-1	1.0	1.0	1	upper	Verdana.ttf
891.218	n/a	WORD	445609	wordpools/wasnorm_wordpool_less_exclusions.txt	LTP233	ltpFR	16	5	-1	STREAM	1392	n/a	n/a	-1	1.0	1.0	1	upper	Verdana.ttf
895.418	n/a	WORD	447709	wordpools/wasnorm_wordpool_less_exclusions.txt	LTP233	ltpFR	16	5	-1	PIKE	1067	n/a	n/a	-1	1.0	1.0	1	upper	Verdana.ttf
899.348	n/a	WORD	449674	wordpools/wasnorm_wordpool_less_exclusions.txt	LTP233	ltpFR	16	5	-1	VOLLEYBALL	1576	n/a	n/a	-1	1.0	1.0	1	upper	Verdana.ttf
903.564	n/a	WORD	451782	wordpools/wasnorm_wordpool_less_exclusions.txt	LTP233	ltpFR	16	5	-1	BOUILLON	154	n/a	n/a	-1	1.0	1.0	1	upper	Verdana.ttf
907.396	n/a	WORD	453698	wordpools/wasnorm_wordpool_less_exclusions.txt	LTP233	ltpFR	16	5	-1	GREASE	660	n/a	n/a	-1	1.0	1.0	1	upper	Verdana.ttf
911.492	n/a	WORD	455746	wordpools/wasnorm_wordpool_less_exclusions.txt	LTP233	ltpFR	16	5	-1	LOLLIPOP	842	n/a	n/a	-1	1.0	1.0	1	upper	Verdana.ttf
917.368	n/a	REC_START	458684	n/a	LTP233	ltpFR	16	5	n/a	n/a	n/a	n/a	n/a	n/a	n/a	n/a	n/a	n/a	n/a
918.332	n/a	REC_WORD	459166	wordpools/wasnorm_wordpool_less_exclusions.txt	LTP233	ltpFR	16	5	-1	BOUILLON	154	n/a	n/a	-1	n/a	n/a	n/a	n/a	n/a
919.478	n/a	REC_WORD	459739	wordpools/wasnorm_wordpool_less_exclusions.txt	LTP233	ltpFR	16	5	-1	GREASE	660	n/a	n/a	-1	n/a	n/a	n/a	n/a	n/a
922.392	n/a	REC_WORD	461196	wordpools/wasnorm_wordpool_less_exclusions.txt	LTP233	ltpFR	16	5	-1	VOLLEYBALL	1576	n/a	n/a	-1	n/a	n/a	n/a	n/a	n/a
924.848	n/a	REC_WORD	462424	wordpools/wasnorm_wordpool_less_exclusions.txt	LTP233	ltpFR	16	5	-1	STREAM	1392	n/a	n/a	-1	n/a	n/a	n/a	n/a	n/a
926.872	n/a	REC_WORD	463436	wordpools/wasnorm_wordpool_less_exclusions.txt	LTP233	ltpFR	16	5	-1	PIKE	1067	n/a	n/a	-1	n/a	n/a	n/a	n/a	n/a
928.804	n/a	REC_WORD	464402	wordpools/wasnorm_wordpool_less_exclusions.txt	LTP233	ltpFR	16	5	-1	FREEWAY	603	n/a	n/a	-1	n/a	n/a	n/a	n/a	n/a
930.126	n/a	REC_WORD	465063	wordpools/wasnorm_wordpool_less_exclusions.txt	LTP233	ltpFR	16	5	-1	POOL	1103	n/a	n/a	-1	n/a	n/a	n/a	n/a	n/a
931.388	n/a	REC_WORD	465694	wordpools/wasnorm_wordpool_less_exclusions.txt	LTP233	ltpFR	16	5	-1	BAY	102	n/a	n/a	-1	n/a	n/a	n/a	n/a	n/a
932.654	n/a	REC_WORD	466327	wordpools/wasnorm_wordpool_less_exclusions.txt	LTP233	ltpFR	16	5	-1	CUPBOARD	425	n/a	n/a	-1	n/a	n/a	n/a	n/a	n/a
934.076	n/a	REC_WORD	467038	wordpools/wasnorm_wordpool_less_exclusions.txt	LTP233	ltpFR	16	5	-1	STEW	1380	n/a	n/a	-1	n/a	n/a	n/a	n/a	n/a
935.278	n/a	REC_WORD	467639	wordpools/wasnorm_wordpool_less_exclusions.txt	LTP233	ltpFR	16	5	-1	MUG	930	n/a	n/a	-1	n/a	n/a	n/a	n/a	n/a
938.376	n/a	REC_WORD	469188	wordpools/wasnorm_wordpool_less_exclusions.txt	LTP233	ltpFR	16	5	-1	COLESLAW	344	n/a	n/a	-1	n/a	n/a	n/a	n/a	n/a
939.982	n/a	REC_WORD	469991	wordpools/wasnorm_wordpool_less_exclusions.txt	LTP233	ltpFR	16	5	-1	CARNIVAL	245	n/a	n/a	-1	n/a	n/a	n/a	n/a	n/a
1002.71	n/a	WORD	501355	wordpools/wasnorm_wordpool_less_exclusions.txt	LTP233	ltpFR	16	6	0	HANGER	687	n/a	n/a	0	0.57763671875	0.412841796875	1	lower	amplitud.ttf
1006.894	n/a	WORD	503447	wordpools/wasnorm_wordpool_less_exclusions.txt	LTP233	ltpFR	16	6	0	TOWEL	1489	n/a	n/a	1	0.57763671875	0.412841796875	1	lower	amplitud.ttf
1010.758	n/a	WORD	505379	wordpools/wasnorm_wordpool_less_exclusions.txt	LTP233	ltpFR	16	6	0	PISTON	1076	n/a	n/a	1	0.57763671875	0.412841796875	1	lower	amplitud.ttf
1014.79	n/a	WORD	507395	wordpools/wasnorm_wordpool_less_exclusions.txt	LTP233	ltpFR	16	6	0	HOOK	715	n/a	n/a	0	0.57763671875	0.412841796875	1	lower	amplitud.ttf
1018.84	n/a	WORD	509420	wordpools/wasnorm_wordpool_less_exclusions.txt	LTP233	ltpFR	16	6	0	OX	994	n/a	n/a	1	0.57763671875	0.412841796875	1	lower	amplitud.ttf
1022.788	n/a	WORD	511394	wordpools/wasnorm_wordpool_less_exclusions.txt	LTP233	ltpFR	16	6	0	STALLION	1369	n/a	n/a	1	0.57763671875	0.412841796875	1	lower	amplitud.ttf
1026.848	n/a	WORD	513424	wordpools/wasnorm_wordpool_less_exclusions.txt	LTP233	ltpFR	16	6	0	PECAN	1036	n/a	n/a	0	0.57763671875	0.412841796875	1	lower	amplitud.ttf
1030.848	n/a	WORD	515424	wordpools/wasnorm_wordpool_less_exclusions.txt	LTP233	ltpFR	16	6	0	DEPUTY	450	n/a	n/a	0	0.57763671875	0.412841796875	1	lower	amplitud.ttf
1034.682	n/a	WORD	517341	wordpools/wasnorm_wordpool_less_exclusions.txt	LTP233	ltpFR	16	6	0	ENGINE	535	n/a	n/a	1	0.57763671875	0.412841796875	1	lower	amplitud.ttf
1038.698	n/a	WORD	519349	wordpools/wasnorm_wordpool_less_exclusions.txt	LTP233	ltpFR	16	6	0	WAREHOUSE	1588	n/a	n/a	1	0.57763671875	0.412841796875	1	lower	amplitud.ttf
1042.73	n/a	WORD	521365	wordpools/wasnorm_wordpool_less_exclusions.txt	LTP233	ltpFR	16	6	0	CONTAINER	366	n/a	n/a	0	0.57763671875	0.412841796875	1	lower	amplitud.ttf
1046.574	n/a	WORD	523287	wordpools/wasnorm_wordpool_less_exclusions.txt	LTP233	ltpFR	16	6	0	SLOPE	1328	n/a	n/a	n/a	0.57763671875	0.412841796875	1	lower	amplitud.ttf
1049.622	n/a	SLOW_MSG	524811	n/a	LTP233	ltpFR	16	6	n/a	n/a	n/a	n/a	n/a	n/a	n/a	n/a	n/a	n/a	n/a
1052.282	n/a	WORD	526141	wordpools/wasnorm_wordpool_less_exclusions.txt	LTP233	ltpFR	16	6	0	COSTUME	383	n/a	n/a	0	0.57763671875	0.412841796875	1	lower	amplitud.ttf
1056.462	n/a	WORD	528231	wordpools/wasnorm_wordpool_less_exclusions.txt	LTP233	ltpFR	16	6	0	MOAT	903	n/a	n/a	1	0.57763671875	0.412841796875	1	lower	amplitud.ttf
1060.532	n/a	WORD	530266	wordpools/wasnorm_wordpool_less_exclusions.txt	LTP233	ltpFR	16	6	0	ZUCCHINI	1638	n/a	n/a	0	0.57763671875	0.412841796875	1	lower	amplitud.ttf
1064.58	n/a	WORD	532290	wordpools/wasnorm_wordpool_less_exclusions.txt	LTP233	ltpFR	16	6	0	CAULIFLOWER	262	n/a	n/a	0	0.57763671875	0.412841796875	1	lower	amplitud.ttf
1070.336	n/a	REC_START	535168	n/a	LTP233	ltpFR	16	6	n/a	n/a	n/a	n/a	n/a	n/a	n/a	n/a	n/a	n/a	n/a
1071.01	n/a	REC_WORD	535505	wordpools/wasnorm_wordpool_less_exclusions.txt	LTP233	ltpFR	16	6	0	ZUCCHINI	1638	n/a	n/a	0	n/a	n/a	n/a	n/a	n/a
1072.372	n/a	REC_WORD	536186	wordpools/wasnorm_wordpool_less_exclusions.txt	LTP233	ltpFR	16	6	0	CAULIFLOWER	262	n/a	n/a	0	n/a	n/a	n/a	n/a	n/a
1074.134	n/a	REC_WORD	537067	wordpools/wasnorm_wordpool_less_exclusions.txt	LTP233	ltpFR	16	6	0	WAREHOUSE	1588	n/a	n/a	1	n/a	n/a	n/a	n/a	n/a
1076.812	n/a	REC_WORD	538406	wordpools/wasnorm_wordpool_less_exclusions.txt	LTP233	ltpFR	16	6	0	COSTUME	383	n/a	n/a	0	n/a	n/a	n/a	n/a	n/a
1081.368	n/a	REC_WORD	540684	wordpools/wasnorm_wordpool_less_exclusions.txt	LTP233	ltpFR	16	6	n/a	COB	334	n/a	n/a	n/a	n/a	n/a	n/a	n/a	n/a
1083.736	n/a	REC_WORD	541868	wordpools/wasnorm_wordpool_less_exclusions.txt	LTP233	ltpFR	16	6	0	ENGINE	535	n/a	n/a	1	n/a	n/a	n/a	n/a	n/a
1085.068	n/a	REC_WORD	542534	wordpools/wasnorm_wordpool_less_exclusions.txt	LTP233	ltpFR	16	6	0	SLOPE	1328	n/a	n/a	n/a	n/a	n/a	n/a	n/a	n/a
1086.54	n/a	REC_WORD	543270	wordpools/wasnorm_wordpool_less_exclusions.txt	LTP233	ltpFR	16	6	0	CONTAINER	366	n/a	n/a	0	n/a	n/a	n/a	n/a	n/a
1091.754	n/a	REC_WORD	545877	wordpools/wasnorm_wordpool_less_exclusions.txt	LTP233	ltpFR	16	6	n/a	MOOSE	915	n/a	n/a	n/a	n/a	n/a	n/a	n/a	n/a
1094.364	n/a	REC_WORD	547182	wordpools/wasnorm_wordpool_less_exclusions.txt	LTP233	ltpFR	16	6	0	HOOK	715	n/a	n/a	0	n/a	n/a	n/a	n/a	n/a
1095.746	n/a	REC_WORD	547873	wordpools/wasnorm_wordpool_less_exclusions.txt	LTP233	ltpFR	16	6	0	HANGER	687	n/a	n/a	0	n/a	n/a	n/a	n/a	n/a
1097.486	n/a	REC_WORD	548743	wordpools/wasnorm_wordpool_less_exclusions.txt	LTP233	ltpFR	16	6	0	TOWEL	1489	n/a	n/a	1	n/a	n/a	n/a	n/a	n/a
1101.338	n/a	REC_WORD	550669	wordpools/wasnorm_wordpool_less_exclusions.txt	LTP233	ltpFR	16	6	0	STALLION	1369	n/a	n/a	1	n/a	n/a	n/a	n/a	n/a
1127.01	n/a	REC_WORD	563505	wordpools/wasnorm_wordpool_less_exclusions.txt	LTP233	ltpFR	16	6	0	ZUCCHINI	1638	n/a	n/a	0	n/a	n/a	n/a	n/a	n/a
1128.01	n/a	REC_WORD_VV	564005	wordpools/wasnorm_wordpool_less_exclusions.txt	LTP233	ltpFR	16	6	n/a	<>	-1	n/a	n/a	n/a	n/a	n/a	n/a	n/a	n/a
1129.59	n/a	REC_WORD	564795	wordpools/wasnorm_wordpool_less_exclusions.txt	LTP233	ltpFR	16	6	0	CAULIFLOWER	262	n/a	n/a	0	n/a	n/a	n/a	n/a	n/a
1130.59	n/a	REC_WORD_VV	565295	wordpools/wasnorm_wordpool_less_exclusions.txt	LTP233	ltpFR	16	6	n/a	<>	-1	n/a	n/a	n/a	n/a	n/a	n/a	n/a	n/a
1149.37	n/a	WORD	574685	wordpools/wasnorm_wordpool_less_exclusions.txt	LTP233	ltpFR	16	7	-1	SHOWER	1296	n/a	n/a	-1	1.0	1.0	1	upper	Verdana.ttf
1153.42	n/a	WORD	576710	wordpools/wasnorm_wordpool_less_exclusions.txt	LTP233	ltpFR	16	7	-1	BIKE	125	n/a	n/a	-1	1.0	1.0	1	upper	Verdana.ttf
1157.486	n/a	WORD	578743	wordpools/wasnorm_wordpool_less_exclusions.txt	LTP233	ltpFR	16	7	-1	GUM	672	n/a	n/a	-1	1.0	1.0	1	upper	Verdana.ttf
1161.334	n/a	WORD	580667	wordpools/wasnorm_wordpool_less_exclusions.txt	LTP233	ltpFR	16	7	-1	RACK	1154	n/a	n/a	-1	1.0	1.0	1	upper	Verdana.ttf
1165.382	n/a	WORD	582691	wordpools/wasnorm_wordpool_less_exclusions.txt	LTP233	ltpFR	16	7	-1	CHARCOAL	281	n/a	n/a	-1	1.0	1.0	1	upper	Verdana.ttf
1169.464	n/a	WORD	584732	wordpools/wasnorm_wordpool_less_exclusions.txt	LTP233	ltpFR	16	7	-1	SPINE	1353	n/a	n/a	-1	1.0	1.0	1	upper	Verdana.ttf
1173.48	n/a	WORD	586740	wordpools/wasnorm_wordpool_less_exclusions.txt	LTP233	ltpFR	16	7	-1	CATTLE	261	n/a	n/a	-1	1.0	1.0	1	upper	Verdana.ttf
1177.628	n/a	WORD	588814	wordpools/wasnorm_wordpool_less_exclusions.txt	LTP233	ltpFR	16	7	-1	VEAL	1551	n/a	n/a	-1	1.0	1.0	1	upper	Verdana.ttf
1181.644	n/a	WORD	590822	wordpools/wasnorm_wordpool_less_exclusions.txt	LTP233	ltpFR	16	7	-1	RADISH	1158	n/a	n/a	-1	1.0	1.0	1	upper	Verdana.ttf
1185.592	n/a	WORD	592796	wordpools/wasnorm_wordpool_less_exclusions.txt	LTP233	ltpFR	16	7	-1	HAY	693	n/a	n/a	-1	1.0	1.0	1	upper	Verdana.ttf
1189.504	n/a	WORD	594752	wordpools/wasnorm_wordpool_less_exclusions.txt	LTP233	ltpFR	16	7	-1	TURKEY	1520	n/a	n/a	-1	1.0	1.0	1	upper	Verdana.ttf
1193.472	n/a	WORD	596736	wordpools/wasnorm_wordpool_less_exclusions.txt	LTP233	ltpFR	16	7	-1	HEN	703	n/a	n/a	-1	1.0	1.0	1	upper	Verdana.ttf
1197.638	n/a	WORD	598819	wordpools/wasnorm_wordpool_less_exclusions.txt	LTP233	ltpFR	16	7	-1	COAL	332	n/a	n/a	-1	1.0	1.0	1	upper	Verdana.ttf
1201.72	n/a	WORD	600860	wordpools/wasnorm_wordpool_less_exclusions.txt	LTP233	ltpFR	16	7	-1	MOB	904	n/a	n/a	-1	1.0	1.0	1	upper	Verdana.ttf
1205.852	n/a	WORD	602926	wordpools/wasnorm_wordpool_less_exclusions.txt	LTP233	ltpFR	16	7	-1	SEA	1259	n/a	n/a	-1	1.0	1.0	1	upper	Verdana.ttf
1210.02	n/a	WORD	605010	wordpools/wasnorm_wordpool_less_exclusions.txt	LTP233	ltpFR	16	7	-1	MOTORCYCLE	923	n/a	n/a	-1	1.0	1.0	1	upper	Verdana.ttf
1215.926	n/a	REC_START	607963	n/a	LTP233	ltpFR	16	7	n/a	n/a	n/a	n/a	n/a	n/a	n/a	n/a	n/a	n/a	n/a
1217.138	n/a	REC_WORD	608569	wordpools/wasnorm_wordpool_less_exclusions.txt	LTP233	ltpFR	16	7	-1	MOTORCYCLE	923	n/a	n/a	-1	n/a	n/a	n/a	n/a	n/a
1218.454	n/a	REC_WORD	609227	wordpools/wasnorm_wordpool_less_exclusions.txt	LTP233	ltpFR	16	7	-1	MOB	904	n/a	n/a	-1	n/a	n/a	n/a	n/a	n/a
1219.398	n/a	REC_WORD	609699	wordpools/wasnorm_wordpool_less_exclusions.txt	LTP233	ltpFR	16	7	-1	SEA	1259	n/a	n/a	-1	n/a	n/a	n/a	n/a	n/a
1220.614	n/a	REC_WORD	610307	wordpools/wasnorm_wordpool_less_exclusions.txt	LTP233	ltpFR	16	7	-1	HEN	703	n/a	n/a	-1	n/a	n/a	n/a	n/a	n/a
1221.762	n/a	REC_WORD	610881	wordpools/wasnorm_wordpool_less_exclusions.txt	LTP233	ltpFR	16	7	-1	TURKEY	1520	n/a	n/a	-1	n/a	n/a	n/a	n/a	n/a
1222.894	n/a	REC_WORD	611447	wordpools/wasnorm_wordpool_less_exclusions.txt	LTP233	ltpFR	16	7	-1	COAL	332	n/a	n/a	-1	n/a	n/a	n/a	n/a	n/a
1224.756	n/a	REC_WORD	612378	wordpools/wasnorm_wordpool_less_exclusions.txt	LTP233	ltpFR	16	7	-1	CATTLE	261	n/a	n/a	-1	n/a	n/a	n/a	n/a	n/a
1225.834	n/a	REC_WORD	612917	wordpools/wasnorm_wordpool_less_exclusions.txt	LTP233	ltpFR	16	7	-1	VEAL	1551	n/a	n/a	-1	n/a	n/a	n/a	n/a	n/a
1227.042	n/a	REC_WORD	613521	wordpools/wasnorm_wordpool_less_exclusions.txt	LTP233	ltpFR	16	7	-1	CHARCOAL	281	n/a	n/a	-1	n/a	n/a	n/a	n/a	n/a
1230.498	n/a	REC_WORD	615249	wordpools/wasnorm_wordpool_less_exclusions.txt	LTP233	ltpFR	16	7	-1	RACK	1154	n/a	n/a	-1	n/a	n/a	n/a	n/a	n/a
1231.834	n/a	REC_WORD	615917	wordpools/wasnorm_wordpool_less_exclusions.txt	LTP233	ltpFR	16	7	-1	SPINE	1353	n/a	n/a	-1	n/a	n/a	n/a	n/a	n/a
1234.374	n/a	REC_WORD	617187	wordpools/wasnorm_wordpool_less_exclusions.txt	LTP233	ltpFR	16	7	-1	GUM	672	n/a	n/a	-1	n/a	n/a	n/a	n/a	n/a
1237.162	n/a	REC_WORD	618581	wordpools/wasnorm_wordpool_less_exclusions.txt	LTP233	ltpFR	16	7	-1	SHOWER	1296	n/a	n/a	-1	n/a	n/a	n/a	n/a	n/a
1239.582	n/a	REC_WORD	619791	wordpools/wasnorm_wordpool_less_exclusions.txt	LTP233	ltpFR	16	7	-1	SEA	1259	n/a	n/a	-1	n/a	n/a	n/a	n/a	n/a
1243.224	n/a	REC_WORD	621612	wordpools/wasnorm_wordpool_less_exclusions.txt	LTP233	ltpFR	16	7	-1	MOTORCYCLE	923	n/a	n/a	-1	n/a	n/a	n/a	n/a	n/a
1245.086	n/a	REC_WORD	622543	wordpools/wasnorm_wordpool_less_exclusions.txt	LTP233	ltpFR	16	7	-1	MOB	904	n/a	n/a	-1	n/a	n/a	n/a	n/a	n/a
1246.652	n/a	REC_WORD	623326	wordpools/wasnorm_wordpool_less_exclusions.txt	LTP233	ltpFR	16	7	-1	BIKE	125	n/a	n/a	-1	n/a	n/a	n/a	n/a	n/a
1294.76	n/a	WORD	647380	wordpools/wasnorm_wordpool_less_exclusions.txt	LTP233	ltpFR	16	8	-1	BOULDER	155	n/a	n/a	-1	1.0	1.0	1	upper	Verdana.ttf
1298.824	n/a	WORD	649412	wordpools/wasnorm_wordpool_less_exclusions.txt	LTP233	ltpFR	16	8	-1	MARBLE	867	n/a	n/a	-1	1.0	1.0	1	upper	Verdana.ttf
1302.988	n/a	WORD	651494	wordpools/wasnorm_wordpool_less_exclusions.txt	LTP233	ltpFR	16	8	-1	TUTU	1524	n/a	n/a	-1	1.0	1.0	1	upper	Verdana.ttf
1306.94	n/a	WORD	653470	wordpools/wasnorm_wordpool_less_exclusions.txt	LTP233	ltpFR	16	8	-1	DUST	508	n/a	n/a	-1	1.0	1.0	1	upper	Verdana.ttf
1310.868	n/a	WORD	655434	wordpools/wasnorm_wordpool_less_exclusions.txt	LTP233	ltpFR	16	8	-1	PARCEL	1012	n/a	n/a	-1	1.0	1.0	1	upper	Verdana.ttf
1314.752	n/a	WORD	657376	wordpools/wasnorm_wordpool_less_exclusions.txt	LTP233	ltpFR	16	8	-1	GIFT	635	n/a	n/a	-1	1.0	1.0	1	upper	Verdana.ttf
1318.884	n/a	WORD	659442	wordpools/wasnorm_wordpool_less_exclusions.txt	LTP233	ltpFR	16	8	-1	WHEEL	1603	n/a	n/a	-1	1.0	1.0	1	upper	Verdana.ttf
1322.952	n/a	WORD	661476	wordpools/wasnorm_wordpool_less_exclusions.txt	LTP233	ltpFR	16	8	-1	FATHER	554	n/a	n/a	-1	1.0	1.0	1	upper	Verdana.ttf
1326.984	n/a	WORD	663492	wordpools/wasnorm_wordpool_less_exclusions.txt	LTP233	ltpFR	16	8	-1	BEAN	105	n/a	n/a	-1	1.0	1.0	1	upper	Verdana.ttf
1331.066	n/a	WORD	665533	wordpools/wasnorm_wordpool_less_exclusions.txt	LTP233	ltpFR	16	8	-1	SIRLOIN	1311	n/a	n/a	-1	1.0	1.0	1	upper	Verdana.ttf
1335.264	n/a	WORD	667632	wordpools/wasnorm_wordpool_less_exclusions.txt	LTP233	ltpFR	16	8	-1	GLOBE	641	n/a	n/a	-1	1.0	1.0	1	upper	Verdana.ttf
1339.18	n/a	WORD	669590	wordpools/wasnorm_wordpool_less_exclusions.txt	LTP233	ltpFR	16	8	-1	SUPERMARKET	1409	n/a	n/a	-1	1.0	1.0	1	upper	Verdana.ttf
1343.224	n/a	WORD	671612	wordpools/wasnorm_wordpool_less_exclusions.txt	LTP233	ltpFR	16	8	-1	KANGAROO	768	n/a	n/a	-1	1.0	1.0	1	upper	Verdana.ttf
1347.122	n/a	WORD	673561	wordpools/wasnorm_wordpool_less_exclusions.txt	LTP233	ltpFR	16	8	-1	BRIEFCASE	175	n/a	n/a	-1	1.0	1.0	1	upper	Verdana.ttf
1350.97	n/a	WORD	675485	wordpools/wasnorm_wordpool_less_exclusions.txt	LTP233	ltpFR	16	8	-1	INFANT	737	n/a	n/a	-1	1.0	1.0	1	upper	Verdana.ttf
1355.04	n/a	WORD	677520	wordpools/wasnorm_wordpool_less_exclusions.txt	LTP233	ltpFR	16	8	-1	MOTHER	921	n/a	n/a	-1	1.0	1.0	1	upper	Verdana.ttf
1361.066	n/a	REC_START	680533	n/a	LTP233	ltpFR	16	8	n/a	n/a	n/a	n/a	n/a	n/a	n/a	n/a	n/a	n/a	n/a
1361.924	n/a	REC_WORD	680962	wordpools/wasnorm_wordpool_less_exclusions.txt	LTP233	ltpFR	16	8	-1	BRIEFCASE	175	n/a	n/a	-1	n/a	n/a	n/a	n/a	n/a
1363.514	n/a	REC_WORD	681757	wordpools/wasnorm_wordpool_less_exclusions.txt	LTP233	ltpFR	16	8	-1	INFANT	737	n/a	n/a	-1	n/a	n/a	n/a	n/a	n/a
1364.682	n/a	REC_WORD	682341	wordpools/wasnorm_wordpool_less_exclusions.txt	LTP233	ltpFR	16	8	-1	KANGAROO	768	n/a	n/a	-1	n/a	n/a	n/a	n/a	n/a
1366.308	n/a	REC_WORD	683154	wordpools/wasnorm_wordpool_less_exclusions.txt	LTP233	ltpFR	16	8	-1	SUPERMARKET	1409	n/a	n/a	-1	n/a	n/a	n/a	n/a	n/a
1367.93	n/a	REC_WORD	683965	wordpools/wasnorm_wordpool_less_exclusions.txt	LTP233	ltpFR	16	8	-1	SIRLOIN	1311	n/a	n/a	-1	n/a	n/a	n/a	n/a	n/a
1369.934	n/a	REC_WORD	684967	wordpools/wasnorm_wordpool_less_exclusions.txt	LTP233	ltpFR	16	8	-1	FATHER	554	n/a	n/a	-1	n/a	n/a	n/a	n/a	n/a
1372.604	n/a	REC_WORD	686302	wordpools/wasnorm_wordpool_less_exclusions.txt	LTP233	ltpFR	16	8	-1	GLOBE	641	n/a	n/a	-1	n/a	n/a	n/a	n/a	n/a
1374.978	n/a	REC_WORD	687489	wordpools/wasnorm_wordpool_less_exclusions.txt	LTP233	ltpFR	16	8	-1	PARCEL	1012	n/a	n/a	-1	n/a	n/a	n/a	n/a	n/a
1376.306	n/a	REC_WORD	688153	wordpools/wasnorm_wordpool_less_exclusions.txt	LTP233	ltpFR	16	8	-1	GIFT	635	n/a	n/a	-1	n/a	n/a	n/a	n/a	n/a
1377.524	n/a	REC_WORD	688762	wordpools/wasnorm_wordpool_less_exclusions.txt	LTP233	ltpFR	16	8	-1	DUST	508	n/a	n/a	-1	n/a	n/a	n/a	n/a	n/a
1378.716	n/a	REC_WORD	689358	wordpools/wasnorm_wordpool_less_exclusions.txt	LTP233	ltpFR	16	8	-1	TUTU	1524	n/a	n/a	-1	n/a	n/a	n/a	n/a	n/a
1380.832	n/a	REC_WORD	690416	wordpools/wasnorm_wordpool_less_exclusions.txt	LTP233	ltpFR	16	8	-1	BOULDER	155	n/a	n/a	-1	n/a	n/a	n/a	n/a	n/a
1381.988	n/a	REC_WORD	690994	wordpools/wasnorm_wordpool_less_exclusions.txt	LTP233	ltpFR	16	8	-1	MARBLE	867	n/a	n/a	-1	n/a	n/a	n/a	n/a	n/a
1393.548	n/a	REC_WORD	696774	wordpools/wasnorm_wordpool_less_exclusions.txt	LTP233	ltpFR	16	8	-1	MOTHER	921	n/a	n/a	-1	n/a	n/a	n/a	n/a	n/a
1394.546	n/a	REC_WORD	697273	wordpools/wasnorm_wordpool_less_exclusions.txt	LTP233	ltpFR	16	8	-1	FATHER	554	n/a	n/a	-1	n/a	n/a	n/a	n/a	n/a
1474.03	n/a	WORD	737015	wordpools/wasnorm_wordpool_less_exclusions.txt	LTP233	ltpFR	16	9	1	ZEBRA	1635	n/a	n/a	1	0.422607421875	0.5869140625	0	upper	zerothre.ttf
1477.91	n/a	WORD	738955	wordpools/wasnorm_wordpool_less_exclusions.txt	LTP233	ltpFR	16	9	1	DIRECTOR	471	n/a	n/a	1	0.422607421875	0.5869140625	0	upper	zerothre.ttf
1481.904	n/a	WORD	740952	wordpools/wasnorm_wordpool_less_exclusions.txt	LTP233	ltpFR	16	9	1	CONCERT	360	n/a	n/a	0	0.422607421875	0.5869140625	0	upper	zerothre.ttf
1486.074	n/a	WORD	743037	wordpools/wasnorm_wordpool_less_exclusions.txt	LTP233	ltpFR	16	9	1	RAISIN	1163	n/a	n/a	0	0.422607421875	0.5869140625	0	upper	zerothre.ttf
1490.124	n/a	WORD	745062	wordpools/wasnorm_wordpool_less_exclusions.txt	LTP233	ltpFR	16	9	1	CRUMB	416	n/a	n/a	0	0.422607421875	0.5869140625	0	upper	zerothre.ttf
1494.072	n/a	WORD	747036	wordpools/wasnorm_wordpool_less_exclusions.txt	LTP233	ltpFR	16	9	1	BOOT	150	n/a	n/a	0	0.422607421875	0.5869140625	0	upper	zerothre.ttf
1498.254	n/a	WORD	749127	wordpools/wasnorm_wordpool_less_exclusions.txt	LTP233	ltpFR	16	9	1	FRUIT	610	n/a	n/a	0	0.422607421875	0.5869140625	0	upper	zerothre.ttf
1502.486	n/a	WORD	751243	wordpools/wasnorm_wordpool_less_exclusions.txt	LTP233	ltpFR	16	9	1	PEAR	1033	n/a	n/a	0	0.422607421875	0.5869140625	0	upper	zerothre.ttf
1506.352	n/a	WORD	753176	wordpools/wasnorm_wordpool_less_exclusions.txt	LTP233	ltpFR	16	9	1	RADIO	1157	n/a	n/a	0	0.422607421875	0.5869140625	0	upper	zerothre.ttf
1510.35	n/a	WORD	755175	wordpools/wasnorm_wordpool_less_exclusions.txt	LTP233	ltpFR	16	9	1	FRAGRANCE	599	n/a	n/a	0	0.422607421875	0.5869140625	0	upper	zerothre.ttf
1514.466	n/a	WORD	757233	wordpools/wasnorm_wordpool_less_exclusions.txt	LTP233	ltpFR	16	9	1	VINEGAR	1569	n/a	n/a	0	0.422607421875	0.5869140625	0	upper	zerothre.ttf
1518.548	n/a	WORD	759274	wordpools/wasnorm_wordpool_less_exclusions.txt	LTP233	ltpFR	16	9	1	MONARCH	906	n/a	n/a	1	0.422607421875	0.5869140625	0	upper	zerothre.ttf
1522.464	n/a	WORD	761232	wordpools/wasnorm_wordpool_less_exclusions.txt	LTP233	ltpFR	16	9	1	SPY	1360	n/a	n/a	1	0.422607421875	0.5869140625	0	upper	zerothre.ttf
1526.412	n/a	WORD	763206	wordpools/wasnorm_wordpool_less_exclusions.txt	LTP233	ltpFR	16	9	1	GRADUATE	653	n/a	n/a	1	0.422607421875	0.5869140625	0	upper	zerothre.ttf
1530.562	n/a	WORD	765281	wordpools/wasnorm_wordpool_less_exclusions.txt	LTP233	ltpFR	16	9	1	RACCOON	1153	n/a	n/a	1	0.422607421875	0.5869140625	0	upper	zerothre.ttf
1534.426	n/a	WORD	767213	wordpools/wasnorm_wordpool_less_exclusions.txt	LTP233	ltpFR	16	9	1	FLUTE	585	n/a	n/a	0	0.422607421875	0.5869140625	0	upper	zerothre.ttf
1540.35	n/a	REC_START	770175	n/a	LTP233	ltpFR	16	9	n/a	n/a	n/a	n/a	n/a	n/a	n/a	n/a	n/a	n/a	n/a
1541.372	n/a	REC_WORD	770686	wordpools/wasnorm_wordpool_less_exclusions.txt	LTP233	ltpFR	16	9	1	RACCOON	1153	n/a	n/a	1	n/a	n/a	n/a	n/a	n/a
1542.478	n/a	REC_WORD	771239	wordpools/wasnorm_wordpool_less_exclusions.txt	LTP233	ltpFR	16	9	1	FLUTE	585	n/a	n/a	0	n/a	n/a	n/a	n/a	n/a
1545.782	n/a	REC_WORD	772891	wordpools/wasnorm_wordpool_less_exclusions.txt	LTP233	ltpFR	16	9	1	FRUIT	610	n/a	n/a	0	n/a	n/a	n/a	n/a	n/a
1547.454	n/a	REC_WORD	773727	wordpools/wasnorm_wordpool_less_exclusions.txt	LTP233	ltpFR	16	9	1	PEAR	1033	n/a	n/a	0	n/a	n/a	n/a	n/a	n/a
1549.0	n/a	REC_WORD	774500	wordpools/wasnorm_wordpool_less_exclusions.txt	LTP233	ltpFR	16	9	1	RAISIN	1163	n/a	n/a	0	n/a	n/a	n/a	n/a	n/a
1550.488	n/a	REC_WORD	775244	wordpools/wasnorm_wordpool_less_exclusions.txt	LTP233	ltpFR	16	9	1	CRUMB	416	n/a	n/a	0	n/a	n/a	n/a	n/a	n/a
1552.362	n/a	REC_WORD	776181	wordpools/wasnorm_wordpool_less_exclusions.txt	LTP233	ltpFR	16	9	1	MONARCH	906	n/a	n/a	1	n/a	n/a	n/a	n/a	n/a
1556.424	n/a	REC_WORD	778212	wordpools/wasnorm_wordpool_less_exclusions.txt	LTP233	ltpFR	16	9	1	DIRECTOR	471	n/a	n/a	1	n/a	n/a	n/a	n/a	n/a
1564.34	n/a	REC_WORD	782170	wordpools/wasnorm_wordpool_less_exclusions.txt	LTP233	ltpFR	16	9	1	CONCERT	360	n/a	n/a	0	n/a	n/a	n/a	n/a	n/a
1566.142	n/a	REC_WORD	783071	wordpools/wasnorm_wordpool_less_exclusions.txt	LTP233	ltpFR	16	9	1	RADIO	1157	n/a	n/a	0	n/a	n/a	n/a	n/a	n/a
1567.784	n/a	REC_WORD	783892	wordpools/wasnorm_wordpool_less_exclusions.txt	LTP233	ltpFR	16	9	1	FRAGRANCE	599	n/a	n/a	0	n/a	n/a	n/a	n/a	n/a
1569.714	n/a	REC_WORD	784857	wordpools/wasnorm_wordpool_less_exclusions.txt	LTP233	ltpFR	16	9	1	VINEGAR	1569	n/a	n/a	0	n/a	n/a	n/a	n/a	n/a
1618.898	n/a	WORD	809449	wordpools/wasnorm_wordpool_less_exclusions.txt	LTP233	ltpFR	16	10	0	COLUMN	350	n/a	n/a	1	0.57763671875	0.412841796875	1	lower	amplitud.ttf
1622.898	n/a	WORD	811449	wordpools/wasnorm_wordpool_less_exclusions.txt	LTP233	ltpFR	16	10	0	CAFE	216	n/a	n/a	1	0.57763671875	0.412841796875	1	lower	amplitud.ttf
1626.742	n/a	WORD	813371	wordpools/wasnorm_wordpool_less_exclusions.txt	LTP233	ltpFR	16	10	0	FUR	615	n/a	n/a	1	0.57763671875	0.412841796875	1	lower	amplitud.ttf
1630.858	n/a	WORD	815429	wordpools/wasnorm_wordpool_less_exclusions.txt	LTP233	ltpFR	16	10	0	PAGE	1001	n/a	n/a	0	0.57763671875	0.412841796875	1	lower	amplitud.ttf
1634.994	n/a	WORD	817497	wordpools/wasnorm_wordpool_less_exclusions.txt	LTP233	ltpFR	16	10	0	PUBLICATION	1136	n/a	n/a	0	0.57763671875	0.412841796875	1	lower	amplitud.ttf
1639.108	n/a	WORD	819554	wordpools/wasnorm_wordpool_less_exclusions.txt	LTP233	ltpFR	16	10	0	JOURNAL	760	n/a	n/a	0	0.57763671875	0.412841796875	1	lower	amplitud.ttf
1643.158	n/a	WORD	821579	wordpools/wasnorm_wordpool_less_exclusions.txt	LTP233	ltpFR	16	10	0	CRYSTAL	418	n/a	n/a	0	0.57763671875	0.412841796875	1	lower	amplitud.ttf
1647.04	n/a	WORD	823520	wordpools/wasnorm_wordpool_less_exclusions.txt	LTP233	ltpFR	16	10	0	COTTON	385	n/a	n/a	0	0.57763671875	0.412841796875	1	lower	amplitud.ttf
1651.072	n/a	WORD	825536	wordpools/wasnorm_wordpool_less_exclusions.txt	LTP233	ltpFR	16	10	0	MEAT	883	n/a	n/a	0	0.57763671875	0.412841796875	1	lower	amplitud.ttf
1655.204	n/a	WORD	827602	wordpools/wasnorm_wordpool_less_exclusions.txt	LTP233	ltpFR	16	10	0	SAPPHIRE	1234	n/a	n/a	0	0.57763671875	0.412841796875	1	lower	amplitud.ttf
1659.186	n/a	WORD	829593	wordpools/wasnorm_wordpool_less_exclusions.txt	LTP233	ltpFR	16	10	0	VEST	1559	n/a	n/a	0	0.57763671875	0.412841796875	1	lower	amplitud.ttf
1663.252	n/a	WORD	831626	wordpools/wasnorm_wordpool_less_exclusions.txt	LTP233	ltpFR	16	10	0	HIKER	708	n/a	n/a	1	0.57763671875	0.412841796875	1	lower	amplitud.ttf
1667.132	n/a	WORD	833566	wordpools/wasnorm_wordpool_less_exclusions.txt	LTP233	ltpFR	16	10	0	FENCE	560	n/a	n/a	0	0.57763671875	0.412841796875	1	lower	amplitud.ttf
1671.098	n/a	WORD	835549	wordpools/wasnorm_wordpool_less_exclusions.txt	LTP233	ltpFR	16	10	0	LOCK	838	n/a	n/a	0	0.57763671875	0.412841796875	1	lower	amplitud.ttf
1674.946	n/a	WORD	837473	wordpools/wasnorm_wordpool_less_exclusions.txt	LTP233	ltpFR	16	10	0	DIAMOND	458	n/a	n/a	0	0.57763671875	0.412841796875	1	lower	amplitud.ttf
1679.024	n/a	WORD	839512	wordpools/wasnorm_wordpool_less_exclusions.txt	LTP233	ltpFR	16	10	0	RUNNER	1218	n/a	n/a	1	0.57763671875	0.412841796875	1	lower	amplitud.ttf
1685.102	n/a	REC_START	842551	n/a	LTP233	ltpFR	16	10	n/a	n/a	n/a	n/a	n/a	n/a	n/a	n/a	n/a	n/a	n/a
1685.89	n/a	REC_WORD	842945	wordpools/wasnorm_wordpool_less_exclusions.txt	LTP233	ltpFR	16	10	0	DIAMOND	458	n/a	n/a	0	n/a	n/a	n/a	n/a	n/a
1686.924	n/a	REC_WORD	843462	wordpools/wasnorm_wordpool_less_exclusions.txt	LTP233	ltpFR	16	10	0	FENCE	560	n/a	n/a	0	n/a	n/a	n/a	n/a	n/a
1687.93	n/a	REC_WORD	843965	wordpools/wasnorm_wordpool_less_exclusions.txt	LTP233	ltpFR	16	10	0	RUNNER	1218	n/a	n/a	1	n/a	n/a	n/a	n/a	n/a
1689.646	n/a	REC_WORD	844823	wordpools/wasnorm_wordpool_less_exclusions.txt	LTP233	ltpFR	16	10	0	LOCK	838	n/a	n/a	0	n/a	n/a	n/a	n/a	n/a
1692.086	n/a	REC_WORD	846043	wordpools/wasnorm_wordpool_less_exclusions.txt	LTP233	ltpFR	16	10	0	HIKER	708	n/a	n/a	1	n/a	n/a	n/a	n/a	n/a
1693.408	n/a	REC_WORD	846704	wordpools/wasnorm_wordpool_less_exclusions.txt	LTP233	ltpFR	16	10	0	MEAT	883	n/a	n/a	0	n/a	n/a	n/a	n/a	n/a
1694.53	n/a	REC_WORD	847265	wordpools/wasnorm_wordpool_less_exclusions.txt	LTP233	ltpFR	16	10	0	COTTON	385	n/a	n/a	0	n/a	n/a	n/a	n/a	n/a
1695.762	n/a	REC_WORD	847881	wordpools/wasnorm_wordpool_less_exclusions.txt	LTP233	ltpFR	16	10	0	SAPPHIRE	1234	n/a	n/a	0	n/a	n/a	n/a	n/a	n/a
1698.608	n/a	REC_WORD	849304	wordpools/wasnorm_wordpool_less_exclusions.txt	LTP233	ltpFR	16	10	0	CRYSTAL	418	n/a	n/a	0	n/a	n/a	n/a	n/a	n/a
1701.106	n/a	REC_WORD	850553	wordpools/wasnorm_wordpool_less_exclusions.txt	LTP233	ltpFR	16	10	0	PUBLICATION	1136	n/a	n/a	0	n/a	n/a	n/a	n/a	n/a
1702.714	n/a	REC_WORD	851357	wordpools/wasnorm_wordpool_less_exclusions.txt	LTP233	ltpFR	16	10	0	JOURNAL	760	n/a	n/a	0	n/a	n/a	n/a	n/a	n/a
1704.066	n/a	REC_WORD	852033	wordpools/wasnorm_wordpool_less_exclusions.txt	LTP233	ltpFR	16	10	0	PAGE	1001	n/a	n/a	0	n/a	n/a	n/a	n/a	n/a
1706.76	n/a	REC_WORD	853380	wordpools/wasnorm_wordpool_less_exclusions.txt	LTP233	ltpFR	16	10	n/a	PAPER	1011	n/a	n/a	n/a	n/a	n/a	n/a	n/a	n/a
1716.918	n/a	REC_WORD	858459	wordpools/wasnorm_wordpool_less_exclusions.txt	LTP233	ltpFR	16	10	0	CAFE	216	n/a	n/a	1	n/a	n/a	n/a	n/a	n/a
1718.12	n/a	REC_WORD	859060	wordpools/wasnorm_wordpool_less_exclusions.txt	LTP233	ltpFR	16	10	0	COLUMN	350	n/a	n/a	1	n/a	n/a	n/a	n/a	n/a
1719.182	n/a	REC_WORD	859591	wordpools/wasnorm_wordpool_less_exclusions.txt	LTP233	ltpFR	16	10	0	FUR	615	n/a	n/a	1	n/a	n/a	n/a	n/a	n/a
1764.924	n/a	WORD	882462	wordpools/wasnorm_wordpool_less_exclusions.txt	LTP233	ltpFR	16	11	0	PLANT	1083	n/a	n/a	0	0.57763671875	0.412841796875	1	lower	amplitud.ttf
1768.788	n/a	WORD	884394	wordpools/wasnorm_wordpool_less_exclusions.txt	LTP233	ltpFR	16	11	0	FAIRY	549	n/a	n/a	0	0.57763671875	0.412841796875	1	lower	amplitud.ttf
1772.7	n/a	WORD	886350	wordpools/wasnorm_wordpool_less_exclusions.txt	LTP233	ltpFR	16	11	1	STEWARDESS	1381	n/a	n/a	1	0.422607421875	0.5869140625	0	upper	zerothre.ttf
1776.584	n/a	WORD	888292	wordpools/wasnorm_wordpool_less_exclusions.txt	LTP233	ltpFR	16	11	1	CUB	419	n/a	n/a	1	0.422607421875	0.5869140625	0	upper	zerothre.ttf
1780.714	n/a	WORD	890357	wordpools/wasnorm_wordpool_less_exclusions.txt	LTP233	ltpFR	16	11	1	SCARECROW	1245	n/a	n/a	1	0.422607421875	0.5869140625	0	upper	zerothre.ttf
1784.816	n/a	WORD	892408	wordpools/wasnorm_wordpool_less_exclusions.txt	LTP233	ltpFR	16	11	1	BARLEY	88	n/a	n/a	1	0.422607421875	0.5869140625	0	upper	zerothre.ttf
1789.032	n/a	WORD	894516	wordpools/wasnorm_wordpool_less_exclusions.txt	LTP233	ltpFR	16	11	1	TABLE	1426	n/a	n/a	0	0.422607421875	0.5869140625	0	upper	zerothre.ttf
1793.03	n/a	WORD	896515	wordpools/wasnorm_wordpool_less_exclusions.txt	LTP233	ltpFR	16	11	1	DESK	452	n/a	n/a	0	0.422607421875	0.5869140625	0	upper	zerothre.ttf
1797.06	n/a	WORD	898530	wordpools/wasnorm_wordpool_less_exclusions.txt	LTP233	ltpFR	16	11	0	TUXEDO	1525	n/a	n/a	1	0.57763671875	0.412841796875	1	lower	amplitud.ttf
1801.212	n/a	WORD	900606	wordpools/wasnorm_wordpool_less_exclusions.txt	LTP233	ltpFR	16	11	0	LOOP	844	n/a	n/a	1	0.57763671875	0.412841796875	1	lower	amplitud.ttf
1805.044	n/a	WORD	902522	wordpools/wasnorm_wordpool_less_exclusions.txt	LTP233	ltpFR	16	11	0	DRUM	502	n/a	n/a	1	0.57763671875	0.412841796875	1	lower	amplitud.ttf
1808.97	n/a	WORD	904485	wordpools/wasnorm_wordpool_less_exclusions.txt	LTP233	ltpFR	16	11	1	BALL	73	n/a	n/a	0	0.422607421875	0.5869140625	0	upper	zerothre.ttf
1812.802	n/a	WORD	906401	wordpools/wasnorm_wordpool_less_exclusions.txt	LTP233	ltpFR	16	11	1	ANIMAL	23	n/a	n/a	1	0.422607421875	0.5869140625	0	upper	zerothre.ttf
1817.022	n/a	WORD	908511	wordpools/wasnorm_wordpool_less_exclusions.txt	LTP233	ltpFR	16	11	0	FIDDLE	561	n/a	n/a	0	0.57763671875	0.412841796875	1	lower	amplitud.ttf
1821.038	n/a	WORD	910519	wordpools/wasnorm_wordpool_less_exclusions.txt	LTP233	ltpFR	16	11	0	BOWL	158	n/a	n/a	0	0.57763671875	0.412841796875	1	lower	amplitud.ttf
1825.12	n/a	WORD	912560	wordpools/wasnorm_wordpool_less_exclusions.txt	LTP233	ltpFR	16	11	0	EWE	542	n/a	n/a	1	0.57763671875	0.412841796875	1	lower	amplitud.ttf
1830.926	n/a	REC_START	915463	n/a	LTP233	ltpFR	16	11	n/a	n/a	n/a	n/a	n/a	n/a	n/a	n/a	n/a	n/a	n/a
1832.008	n/a	REC_WORD	916004	wordpools/wasnorm_wordpool_less_exclusions.txt	LTP233	ltpFR	16	11	0	FIDDLE	561	n/a	n/a	0	n/a	n/a	n/a	n/a	n/a
1832.992	n/a	REC_WORD	916496	wordpools/wasnorm_wordpool_less_exclusions.txt	LTP233	ltpFR	16	11	0	BOWL	158	n/a	n/a	0	n/a	n/a	n/a	n/a	n/a
1834.034	n/a	REC_WORD	917017	wordpools/wasnorm_wordpool_less_exclusions.txt	LTP233	ltpFR	16	11	0	EWE	542	n/a	n/a	1	n/a	n/a	n/a	n/a	n/a
1835.262	n/a	REC_WORD	917631	wordpools/wasnorm_wordpool_less_exclusions.txt	LTP233	ltpFR	16	11	1	ANIMAL	23	n/a	n/a	1	n/a	n/a	n/a	n/a	n/a
1836.438	n/a	REC_WORD	918219	wordpools/wasnorm_wordpool_less_exclusions.txt	LTP233	ltpFR	16	11	1	DESK	452	n/a	n/a	0	n/a	n/a	n/a	n/a	n/a
1841.866	n/a	REC_WORD	920933	wordpools/wasnorm_wordpool_less_exclusions.txt	LTP233	ltpFR	16	11	0	FAIRY	549	n/a	n/a	0	n/a	n/a	n/a	n/a	n/a
1842.914	n/a	REC_WORD	921457	wordpools/wasnorm_wordpool_less_exclusions.txt	LTP233	ltpFR	16	11	0	PLANT	1083	n/a	n/a	0	n/a	n/a	n/a	n/a	n/a
1844.046	n/a	REC_WORD	922023	wordpools/wasnorm_wordpool_less_exclusions.txt	LTP233	ltpFR	16	11	1	CUB	419	n/a	n/a	1	n/a	n/a	n/a	n/a	n/a
1844.87	n/a	REC_WORD	922435	wordpools/wasnorm_wordpool_less_exclusions.txt	LTP233	ltpFR	16	11	1	STEWARDESS	1381	n/a	n/a	1	n/a	n/a	n/a	n/a	n/a
1933.032	n/a	WORD	966516	wordpools/wasnorm_wordpool_less_exclusions.txt	LTP233	ltpFR	16	12	0	CORN	381	n/a	n/a	0	0.57763671875	0.412841796875	1	lower	amplitud.ttf
1937.048	n/a	WORD	968524	wordpools/wasnorm_wordpool_less_exclusions.txt	LTP233	ltpFR	16	12	0	CELERY	266	n/a	n/a	0	0.57763671875	0.412841796875	1	lower	amplitud.ttf
1941.108	n/a	WORD	970554	wordpools/wasnorm_wordpool_less_exclusions.txt	LTP233	ltpFR	16	12	0	NIECE	952	n/a	n/a	1	0.57763671875	0.412841796875	1	lower	amplitud.ttf
1945.28	n/a	WORD	972640	wordpools/wasnorm_wordpool_less_exclusions.txt	LTP233	ltpFR	16	12	0	MALL	860	n/a	n/a	1	0.57763671875	0.412841796875	1	lower	amplitud.ttf
1949.278	n/a	WORD	974639	wordpools/wasnorm_wordpool_less_exclusions.txt	LTP233	ltpFR	16	12	0	TIMBER	1469	n/a	n/a	0	0.57763671875	0.412841796875	1	lower	amplitud.ttf
1953.31	n/a	WORD	976655	wordpools/wasnorm_wordpool_less_exclusions.txt	LTP233	ltpFR	16	12	0	GARDEN	623	n/a	n/a	1	0.57763671875	0.412841796875	1	lower	amplitud.ttf
1957.442	n/a	WORD	978721	wordpools/wasnorm_wordpool_less_exclusions.txt	LTP233	ltpFR	16	12	0	CAR	241	n/a	n/a	1	0.57763671875	0.412841796875	1	lower	amplitud.ttf
1961.274	n/a	WORD	980637	wordpools/wasnorm_wordpool_less_exclusions.txt	LTP233	ltpFR	16	12	0	ROBE	1198	n/a	n/a	1	0.57763671875	0.412841796875	1	lower	amplitud.ttf
1965.29	n/a	WORD	982645	wordpools/wasnorm_wordpool_less_exclusions.txt	LTP233	ltpFR	16	12	0	TOMATO	1476	n/a	n/a	0	0.57763671875	0.412841796875	1	lower	amplitud.ttf
1969.438	n/a	WORD	984719	wordpools/wasnorm_wordpool_less_exclusions.txt	LTP233	ltpFR	16	12	0	CHURCH	307	n/a	n/a	1	0.57763671875	0.412841796875	1	lower	amplitud.ttf
1973.35	n/a	WORD	986675	wordpools/wasnorm_wordpool_less_exclusions.txt	LTP233	ltpFR	16	12	0	GODDESS	646	n/a	n/a	1	0.57763671875	0.412841796875	1	lower	amplitud.ttf
1977.25	n/a	WORD	988625	wordpools/wasnorm_wordpool_less_exclusions.txt	LTP233	ltpFR	16	12	0	THORN	1459	n/a	n/a	1	0.57763671875	0.412841796875	1	lower	amplitud.ttf
1981.084	n/a	WORD	990542	wordpools/wasnorm_wordpool_less_exclusions.txt	LTP233	ltpFR	16	12	0	WARDROBE	1587	n/a	n/a	1	0.57763671875	0.412841796875	1	lower	amplitud.ttf
1984.948	n/a	WORD	992474	wordpools/wasnorm_wordpool_less_exclusions.txt	LTP233	ltpFR	16	12	0	OFFICE	972	n/a	n/a	0	0.57763671875	0.412841796875	1	lower	amplitud.ttf
1989.094	n/a	WORD	994547	wordpools/wasnorm_wordpool_less_exclusions.txt	LTP233	ltpFR	16	12	0	SECRETARY	1265	n/a	n/a	1	0.57763671875	0.412841796875	1	lower	amplitud.ttf
1993.162	n/a	WORD	996581	wordpools/wasnorm_wordpool_less_exclusions.txt	LTP233	ltpFR	16	12	0	EMERALD	528	n/a	n/a	0	0.57763671875	0.412841796875	1	lower	amplitud.ttf
1999.12	n/a	REC_START	999560	n/a	LTP233	ltpFR	16	12	n/a	n/a	n/a	n/a	n/a	n/a	n/a	n/a	n/a	n/a	n/a
2001.204	n/a	REC_WORD	1000602	wordpools/wasnorm_wordpool_less_exclusions.txt	LTP233	ltpFR	16	12	0	EMERALD	528	n/a	n/a	0	n/a	n/a	n/a	n/a	n/a
2002.636	n/a	REC_WORD	1001318	wordpools/wasnorm_wordpool_less_exclusions.txt	LTP233	ltpFR	16	12	0	OFFICE	972	n/a	n/a	0	n/a	n/a	n/a	n/a	n/a
2003.754	n/a	REC_WORD	1001877	wordpools/wasnorm_wordpool_less_exclusions.txt	LTP233	ltpFR	16	12	0	SECRETARY	1265	n/a	n/a	1	n/a	n/a	n/a	n/a	n/a
2005.504	n/a	REC_WORD	1002752	wordpools/wasnorm_wordpool_less_exclusions.txt	LTP233	ltpFR	16	12	n/a	OUTFIT	988	n/a	n/a	n/a	n/a	n/a	n/a	n/a	n/a
2007.556	n/a	REC_WORD	1003778	wordpools/wasnorm_wordpool_less_exclusions.txt	LTP233	ltpFR	16	12	0	WARDROBE	1587	n/a	n/a	1	n/a	n/a	n/a	n/a	n/a
2008.912	n/a	REC_WORD	1004456	wordpools/wasnorm_wordpool_less_exclusions.txt	LTP233	ltpFR	16	12	0	GODDESS	646	n/a	n/a	1	n/a	n/a	n/a	n/a	n/a
2012.648	n/a	REC_WORD	1006324	wordpools/wasnorm_wordpool_less_exclusions.txt	LTP233	ltpFR	16	12	0	CHURCH	307	n/a	n/a	1	n/a	n/a	n/a	n/a	n/a
2015.606	n/a	REC_WORD	1007803	wordpools/wasnorm_wordpool_less_exclusions.txt	LTP233	ltpFR	16	12	0	THORN	1459	n/a	n/a	1	n/a	n/a	n/a	n/a	n/a
2018.028	n/a	REC_WORD	1009014	wordpools/wasnorm_wordpool_less_exclusions.txt	LTP233	ltpFR	16	12	0	ROBE	1198	n/a	n/a	1	n/a	n/a	n/a	n/a	n/a
2020.776	n/a	REC_WORD	1010388	wordpools/wasnorm_wordpool_less_exclusions.txt	LTP233	ltpFR	16	12	0	CAR	241	n/a	n/a	1	n/a	n/a	n/a	n/a	n/a
2023.356	n/a	REC_WORD	1011678	wordpools/wasnorm_wordpool_less_exclusions.txt	LTP233	ltpFR	16	12	0	MALL	860	n/a	n/a	1	n/a	n/a	n/a	n/a	n/a
2031.456	n/a	REC_WORD	1015728	wordpools/wasnorm_wordpool_less_exclusions.txt	LTP233	ltpFR	16	12	0	TOMATO	1476	n/a	n/a	0	n/a	n/a	n/a	n/a	n/a
2033.528	n/a	REC_WORD	1016764	wordpools/wasnorm_wordpool_less_exclusions.txt	LTP233	ltpFR	16	12	0	CORN	381	n/a	n/a	0	n/a	n/a	n/a	n/a	n/a
2038.032	n/a	REC_WORD	1019016	wordpools/wasnorm_wordpool_less_exclusions.txt	LTP233	ltpFR	16	12	0	TIMBER	1469	n/a	n/a	0	n/a	n/a	n/a	n/a	n/a
2040.882	n/a	REC_WORD	1020441	wordpools/wasnorm_wordpool_less_exclusions.txt	LTP233	ltpFR	16	12	0	GARDEN	623	n/a	n/a	1	n/a	n/a	n/a	n/a	n/a
2074.774	n/a	REST_REWET	1037387	n/a	LTP233	ltpFR	16	12	n/a	n/a	n/a	n/a	n/a	n/a	n/a	n/a	n/a	n/a	n/a
2374.418	n/a	WORD	1187209	wordpools/wasnorm_wordpool_less_exclusions.txt	LTP233	ltpFR	16	13	1	SERVER	1272	n/a	n/a	1	0.422607421875	0.5869140625	0	upper	zerothre.ttf
2378.43	n/a	WORD	1189215	wordpools/wasnorm_wordpool_less_exclusions.txt	LTP233	ltpFR	16	13	1	COLLAR	345	n/a	n/a	1	0.422607421875	0.5869140625	0	upper	zerothre.ttf
2382.534	n/a	WORD	1191267	wordpools/wasnorm_wordpool_less_exclusions.txt	LTP233	ltpFR	16	13	1	MICROWAVE	892	n/a	n/a	0	0.422607421875	0.5869140625	0	upper	zerothre.ttf
2386.466	n/a	WORD	1193233	wordpools/wasnorm_wordpool_less_exclusions.txt	LTP233	ltpFR	16	13	1	ELEPHANT	523	n/a	n/a	1	0.422607421875	0.5869140625	0	upper	zerothre.ttf
2390.43	n/a	WORD	1195215	wordpools/wasnorm_wordpool_less_exclusions.txt	LTP233	ltpFR	16	13	1	COW	393	n/a	n/a	1	0.422607421875	0.5869140625	0	upper	zerothre.ttf
2394.562	n/a	WORD	1197281	wordpools/wasnorm_wordpool_less_exclusions.txt	LTP233	ltpFR	16	13	1	SNACK	1331	n/a	n/a	0	0.422607421875	0.5869140625	0	upper	zerothre.ttf
2398.508	n/a	WORD	1199254	wordpools/wasnorm_wordpool_less_exclusions.txt	LTP233	ltpFR	16	13	1	BANANA	77	n/a	n/a	1	0.422607421875	0.5869140625	0	upper	zerothre.ttf
2402.476	n/a	WORD	1201238	wordpools/wasnorm_wordpool_less_exclusions.txt	LTP233	ltpFR	16	13	1	STRAWBERRY	1391	n/a	n/a	1	0.422607421875	0.5869140625	0	upper	zerothre.ttf
2406.692	n/a	WORD	1203346	wordpools/wasnorm_wordpool_less_exclusions.txt	LTP233	ltpFR	16	13	1	PIG	1064	n/a	n/a	0	0.422607421875	0.5869140625	0	upper	zerothre.ttf
2410.72	n/a	WORD	1205360	wordpools/wasnorm_wordpool_less_exclusions.txt	LTP233	ltpFR	16	13	1	WHISTLE	1606	n/a	n/a	0	0.422607421875	0.5869140625	0	upper	zerothre.ttf
2414.804	n/a	WORD	1207402	wordpools/wasnorm_wordpool_less_exclusions.txt	LTP233	ltpFR	16	13	1	VELVET	1555	n/a	n/a	1	0.422607421875	0.5869140625	0	upper	zerothre.ttf
2418.89	n/a	WORD	1209445	wordpools/wasnorm_wordpool_less_exclusions.txt	LTP233	ltpFR	16	13	1	POTATO	1115	n/a	n/a	0	0.422607421875	0.5869140625	0	upper	zerothre.ttf
2422.804	n/a	WORD	1211402	wordpools/wasnorm_wordpool_less_exclusions.txt	LTP233	ltpFR	16	13	1	SADDLE	1221	n/a	n/a	0	0.422607421875	0.5869140625	0	upper	zerothre.ttf
2427.016	n/a	WORD	1213508	wordpools/wasnorm_wordpool_less_exclusions.txt	LTP233	ltpFR	16	13	1	MONUMENT	913	n/a	n/a	0	0.422607421875	0.5869140625	0	upper	zerothre.ttf
2430.868	n/a	WORD	1215434	wordpools/wasnorm_wordpool_less_exclusions.txt	LTP233	ltpFR	16	13	1	SCULPTURE	1258	n/a	n/a	0	0.422607421875	0.5869140625	0	upper	zerothre.ttf
2434.984	n/a	WORD	1217492	wordpools/wasnorm_wordpool_less_exclusions.txt	LTP233	ltpFR	16	13	1	COLT	349	n/a	n/a	1	0.422607421875	0.5869140625	0	upper	zerothre.ttf
2440.774	n/a	REC_START	1220387	n/a	LTP233	ltpFR	16	13	n/a	n/a	n/a	n/a	n/a	n/a	n/a	n/a	n/a	n/a	n/a
2441.048	n/a	REC_WORD	1220524	wordpools/wasnorm_wordpool_less_exclusions.txt	LTP233	ltpFR	16	13	1	SCULPTURE	1258	n/a	n/a	0	n/a	n/a	n/a	n/a	n/a
2442.464	n/a	REC_WORD	1221232	wordpools/wasnorm_wordpool_less_exclusions.txt	LTP233	ltpFR	16	13	1	COLT	349	n/a	n/a	1	n/a	n/a	n/a	n/a	n/a
2443.478	n/a	REC_WORD	1221739	wordpools/wasnorm_wordpool_less_exclusions.txt	LTP233	ltpFR	16	13	1	MONUMENT	913	n/a	n/a	0	n/a	n/a	n/a	n/a	n/a
2444.55	n/a	REC_WORD	1222275	wordpools/wasnorm_wordpool_less_exclusions.txt	LTP233	ltpFR	16	13	1	MICROWAVE	892	n/a	n/a	0	n/a	n/a	n/a	n/a	n/a
2446.37	n/a	REC_WORD	1223185	wordpools/wasnorm_wordpool_less_exclusions.txt	LTP233	ltpFR	16	13	1	SNACK	1331	n/a	n/a	0	n/a	n/a	n/a	n/a	n/a
2448.526	n/a	REC_WORD	1224263	wordpools/wasnorm_wordpool_less_exclusions.txt	LTP233	ltpFR	16	13	1	COW	393	n/a	n/a	1	n/a	n/a	n/a	n/a	n/a
2451.174	n/a	REC_WORD	1225587	wordpools/wasnorm_wordpool_less_exclusions.txt	LTP233	ltpFR	16	13	1	STRAWBERRY	1391	n/a	n/a	1	n/a	n/a	n/a	n/a	n/a
2452.802	n/a	REC_WORD	1226401	wordpools/wasnorm_wordpool_less_exclusions.txt	LTP233	ltpFR	16	13	1	PIG	1064	n/a	n/a	0	n/a	n/a	n/a	n/a	n/a
2455.49	n/a	REC_WORD	1227745	wordpools/wasnorm_wordpool_less_exclusions.txt	LTP233	ltpFR	16	13	1	COLLAR	345	n/a	n/a	1	n/a	n/a	n/a	n/a	n/a
2465.622	n/a	REC_WORD	1232811	wordpools/wasnorm_wordpool_less_exclusions.txt	LTP233	ltpFR	16	13	1	POTATO	1115	n/a	n/a	0	n/a	n/a	n/a	n/a	n/a
2542.912	n/a	WORD	1271456	wordpools/wasnorm_wordpool_less_exclusions.txt	LTP233	ltpFR	16	14	1	WAITER	1580	n/a	n/a	1	0.422607421875	0.5869140625	0	upper	zerothre.ttf
2546.896	n/a	WORD	1273448	wordpools/wasnorm_wordpool_less_exclusions.txt	LTP233	ltpFR	16	14	1	ICE	730	n/a	n/a	0	0.422607421875	0.5869140625	0	upper	zerothre.ttf
2550.96	n/a	WORD	1275480	wordpools/wasnorm_wordpool_less_exclusions.txt	LTP233	ltpFR	16	14	1	CHEEK	287	n/a	n/a	0	0.422607421875	0.5869140625	0	upper	zerothre.ttf
2554.908	n/a	WORD	1277454	wordpools/wasnorm_wordpool_less_exclusions.txt	LTP233	ltpFR	16	14	1	JOINT	758	n/a	n/a	0	0.422607421875	0.5869140625	0	upper	zerothre.ttf
2559.042	n/a	WORD	1279521	wordpools/wasnorm_wordpool_less_exclusions.txt	LTP233	ltpFR	16	14	1	CONSOLE	364	n/a	n/a	0	0.422607421875	0.5869140625	0	upper	zerothre.ttf
2562.872	n/a	WORD	1281436	wordpools/wasnorm_wordpool_less_exclusions.txt	LTP233	ltpFR	16	14	1	TRUCK	1512	n/a	n/a	0	0.422607421875	0.5869140625	0	upper	zerothre.ttf
2566.938	n/a	WORD	1283469	wordpools/wasnorm_wordpool_less_exclusions.txt	LTP233	ltpFR	16	14	1	PICTURE	1061	n/a	n/a	0	0.422607421875	0.5869140625	0	upper	zerothre.ttf
2570.936	n/a	WORD	1285468	wordpools/wasnorm_wordpool_less_exclusions.txt	LTP233	ltpFR	16	14	1	BAG	69	n/a	n/a	0	0.422607421875	0.5869140625	0	upper	zerothre.ttf
2575.036	n/a	WORD	1287518	wordpools/wasnorm_wordpool_less_exclusions.txt	LTP233	ltpFR	16	14	1	COCOON	339	n/a	n/a	0	0.422607421875	0.5869140625	0	upper	zerothre.ttf
2578.916	n/a	WORD	1289458	wordpools/wasnorm_wordpool_less_exclusions.txt	LTP233	ltpFR	16	14	1	RECORD	1176	n/a	n/a	0	0.422607421875	0.5869140625	0	upper	zerothre.ttf
2583.084	n/a	WORD	1291542	wordpools/wasnorm_wordpool_less_exclusions.txt	LTP233	ltpFR	16	14	1	HOSTESS	723	n/a	n/a	1	0.422607421875	0.5869140625	0	upper	zerothre.ttf
2586.978	n/a	WORD	1293489	wordpools/wasnorm_wordpool_less_exclusions.txt	LTP233	ltpFR	16	14	1	CHILD	299	n/a	n/a	1	0.422607421875	0.5869140625	0	upper	zerothre.ttf
2591.064	n/a	WORD	1295532	wordpools/wasnorm_wordpool_less_exclusions.txt	LTP233	ltpFR	16	14	1	DRAWER	493	n/a	n/a	0	0.422607421875	0.5869140625	0	upper	zerothre.ttf
2595.058	n/a	WORD	1297529	wordpools/wasnorm_wordpool_less_exclusions.txt	LTP233	ltpFR	16	14	1	WORKER	1621	n/a	n/a	1	0.422607421875	0.5869140625	0	upper	zerothre.ttf
2599.194	n/a	WORD	1299597	wordpools/wasnorm_wordpool_less_exclusions.txt	LTP233	ltpFR	16	14	1	BOSS	152	n/a	n/a	1	0.422607421875	0.5869140625	0	upper	zerothre.ttf
2603.178	n/a	WORD	1301589	wordpools/wasnorm_wordpool_less_exclusions.txt	LTP233	ltpFR	16	14	1	CHIP	303	n/a	n/a	0	0.422607421875	0.5869140625	0	upper	zerothre.ttf
2609.218	n/a	REC_START	1304609	n/a	LTP233	ltpFR	16	14	n/a	n/a	n/a	n/a	n/a	n/a	n/a	n/a	n/a	n/a	n/a
2609.95	n/a	REC_WORD	1304975	wordpools/wasnorm_wordpool_less_exclusions.txt	LTP233	ltpFR	16	14	n/a	TRIP	-1	n/a	n/a	n/a	n/a	n/a	n/a	n/a	n/a
2613.228	n/a	REC_WORD	1306614	wordpools/wasnorm_wordpool_less_exclusions.txt	LTP233	ltpFR	16	14	1	TRUCK	1512	n/a	n/a	0	n/a	n/a	n/a	n/a	n/a
2614.4	n/a	REC_WORD	1307200	wordpools/wasnorm_wordpool_less_exclusions.txt	LTP233	ltpFR	16	14	1	CONSOLE	364	n/a	n/a	0	n/a	n/a	n/a	n/a	n/a
2620.292	n/a	REC_WORD	1310146	wordpools/wasnorm_wordpool_less_exclusions.txt	LTP233	ltpFR	16	14	1	CHIP	303	n/a	n/a	0	n/a	n/a	n/a	n/a	n/a
2630.864	n/a	REC_WORD	1315432	wordpools/wasnorm_wordpool_less_exclusions.txt	LTP233	ltpFR	16	14	1	CHILD	299	n/a	n/a	1	n/a	n/a	n/a	n/a	n/a
2631.782	n/a	REC_WORD	1315891	wordpools/wasnorm_wordpool_less_exclusions.txt	LTP233	ltpFR	16	14	1	BOSS	152	n/a	n/a	1	n/a	n/a	n/a	n/a	n/a
2632.58	n/a	REC_WORD	1316290	wordpools/wasnorm_wordpool_less_exclusions.txt	LTP233	ltpFR	16	14	1	WORKER	1621	n/a	n/a	1	n/a	n/a	n/a	n/a	n/a
2633.474	n/a	REC_WORD	1316737	wordpools/wasnorm_wordpool_less_exclusions.txt	LTP233	ltpFR	16	14	1	DRAWER	493	n/a	n/a	0	n/a	n/a	n/a	n/a	n/a
2636.356	n/a	REC_WORD	1318178	wordpools/wasnorm_wordpool_less_exclusions.txt	LTP233	ltpFR	16	14	n/a	WAITRESS	1581	n/a	n/a	n/a	n/a	n/a	n/a	n/a	n/a
2637.184	n/a	REC_WORD	1318592	wordpools/wasnorm_wordpool_less_exclusions.txt	LTP233	ltpFR	16	14	1	SERVER	1272	n/a	n/a	1	n/a	n/a	n/a	n/a	n/a
2642.364	n/a	REC_WORD	1321182	wordpools/wasnorm_wordpool_less_exclusions.txt	LTP233	ltpFR	16	14	1	WAITER	1580	n/a	n/a	1	n/a	n/a	n/a	n/a	n/a
2645.058	n/a	REC_WORD	1322529	wordpools/wasnorm_wordpool_less_exclusions.txt	LTP233	ltpFR	16	14	1	CHEEK	287	n/a	n/a	0	n/a	n/a	n/a	n/a	n/a
2646.4	n/a	REC_WORD	1323200	wordpools/wasnorm_wordpool_less_exclusions.txt	LTP233	ltpFR	16	14	1	ICE	730	n/a	n/a	0	n/a	n/a	n/a	n/a	n/a
2648.446	n/a	REC_WORD	1324223	wordpools/wasnorm_wordpool_less_exclusions.txt	LTP233	ltpFR	16	14	1	JOINT	758	n/a	n/a	0	n/a	n/a	n/a	n/a	n/a
2694.558	n/a	WORD	1347279	wordpools/wasnorm_wordpool_less_exclusions.txt	LTP233	ltpFR	16	15	1	CLAMP	316	n/a	n/a	0	0.422607421875	0.5869140625	0	upper	zerothre.ttf
2698.408	n/a	WORD	1349204	wordpools/wasnorm_wordpool_less_exclusions.txt	LTP233	ltpFR	16	15	1	PLUM	1090	n/a	n/a	0	0.422607421875	0.5869140625	0	upper	zerothre.ttf
2702.536	n/a	WORD	1351268	wordpools/wasnorm_wordpool_less_exclusions.txt	LTP233	ltpFR	16	15	1	JAW	751	n/a	n/a	0	0.422607421875	0.5869140625	0	upper	zerothre.ttf
2706.554	n/a	WORD	1353277	wordpools/wasnorm_wordpool_less_exclusions.txt	LTP233	ltpFR	16	15	1	PASSENGER	1020	n/a	n/a	1	0.422607421875	0.5869140625	0	upper	zerothre.ttf
2710.55	n/a	WORD	1355275	wordpools/wasnorm_wordpool_less_exclusions.txt	LTP233	ltpFR	16	15	1	CURTAIN	427	n/a	n/a	1	0.422607421875	0.5869140625	0	upper	zerothre.ttf
2714.648	n/a	WORD	1357324	wordpools/wasnorm_wordpool_less_exclusions.txt	LTP233	ltpFR	16	15	1	LOBSTER	837	n/a	n/a	1	0.422607421875	0.5869140625	0	upper	zerothre.ttf
2718.786	n/a	WORD	1359393	wordpools/wasnorm_wordpool_less_exclusions.txt	LTP233	ltpFR	16	15	0	SQUID	1361	n/a	n/a	1	0.57763671875	0.412841796875	1	lower	amplitud.ttf
2722.8	n/a	WORD	1361400	wordpools/wasnorm_wordpool_less_exclusions.txt	LTP233	ltpFR	16	15	0	CLOUD	328	n/a	n/a	0	0.57763671875	0.412841796875	1	lower	amplitud.ttf
2726.798	n/a	WORD	1363399	wordpools/wasnorm_wordpool_less_exclusions.txt	LTP233	ltpFR	16	15	0	SUN	1406	n/a	n/a	1	0.57763671875	0.412841796875	1	lower	amplitud.ttf
2730.81	n/a	WORD	1365405	wordpools/wasnorm_wordpool_less_exclusions.txt	LTP233	ltpFR	16	15	0	CARDINAL	244	n/a	n/a	1	0.57763671875	0.412841796875	1	lower	amplitud.ttf
2735.03	n/a	WORD	1367515	wordpools/wasnorm_wordpool_less_exclusions.txt	LTP233	ltpFR	16	15	1	PEACH	1031	n/a	n/a	1	0.422607421875	0.5869140625	0	upper	zerothre.ttf
2739.18	n/a	WORD	1369590	wordpools/wasnorm_wordpool_less_exclusions.txt	LTP233	ltpFR	16	15	1	PILOT	1070	n/a	n/a	1	0.422607421875	0.5869140625	0	upper	zerothre.ttf
2743.308	n/a	WORD	1371654	wordpools/wasnorm_wordpool_less_exclusions.txt	LTP233	ltpFR	16	15	0	STICKER	1382	n/a	n/a	0	0.57763671875	0.412841796875	1	lower	amplitud.ttf
2747.276	n/a	WORD	1373638	wordpools/wasnorm_wordpool_less_exclusions.txt	LTP233	ltpFR	16	15	0	CAGE	218	n/a	n/a	0	0.57763671875	0.412841796875	1	lower	amplitud.ttf
2751.226	n/a	WORD	1375613	wordpools/wasnorm_wordpool_less_exclusions.txt	LTP233	ltpFR	16	15	0	RIVER	1194	n/a	n/a	1	0.57763671875	0.412841796875	1	lower	amplitud.ttf
2755.058	n/a	WORD	1377529	wordpools/wasnorm_wordpool_less_exclusions.txt	LTP233	ltpFR	16	15	0	CANOE	233	n/a	n/a	1	0.57763671875	0.412841796875	1	lower	amplitud.ttf
2760.896	n/a	REC_START	1380448	n/a	LTP233	ltpFR	16	15	n/a	n/a	n/a	n/a	n/a	n/a	n/a	n/a	n/a	n/a	n/a
2761.26	n/a	REC_WORD	1380630	wordpools/wasnorm_wordpool_less_exclusions.txt	LTP233	ltpFR	16	15	0	RIVER	1194	n/a	n/a	1	n/a	n/a	n/a	n/a	n/a
2762.044	n/a	REC_WORD	1381022	wordpools/wasnorm_wordpool_less_exclusions.txt	LTP233	ltpFR	16	15	0	CANOE	233	n/a	n/a	1	n/a	n/a	n/a	n/a	n/a
2762.972	n/a	REC_WORD	1381486	wordpools/wasnorm_wordpool_less_exclusions.txt	LTP233	ltpFR	16	15	0	SUN	1406	n/a	n/a	1	n/a	n/a	n/a	n/a	n/a
2764.838	n/a	REC_WORD	1382419	wordpools/wasnorm_wordpool_less_exclusions.txt	LTP233	ltpFR	16	15	n/a	CLAM	315	n/a	n/a	n/a	n/a	n/a	n/a	n/a	n/a
2765.964	n/a	REC_WORD	1382982	wordpools/wasnorm_wordpool_less_exclusions.txt	LTP233	ltpFR	16	15	0	SQUID	1361	n/a	n/a	1	n/a	n/a	n/a	n/a	n/a
2768.04	n/a	REC_WORD	1384020	wordpools/wasnorm_wordpool_less_exclusions.txt	LTP233	ltpFR	16	15	1	LOBSTER	837	n/a	n/a	1	n/a	n/a	n/a	n/a	n/a
2769.406	n/a	REC_WORD	1384703	wordpools/wasnorm_wordpool_less_exclusions.txt	LTP233	ltpFR	16	15	1	JAW	751	n/a	n/a	0	n/a	n/a	n/a	n/a	n/a
2770.514	n/a	REC_WORD	1385257	wordpools/wasnorm_wordpool_less_exclusions.txt	LTP233	ltpFR	16	15	1	PEACH	1031	n/a	n/a	1	n/a	n/a	n/a	n/a	n/a
2773.952	n/a	REC_WORD	1386976	wordpools/wasnorm_wordpool_less_exclusions.txt	LTP233	ltpFR	16	15	1	PILOT	1070	n/a	n/a	1	n/a	n/a	n/a	n/a	n/a
2774.956	n/a	REC_WORD	1387478	wordpools/wasnorm_wordpool_less_exclusions.txt	LTP233	ltpFR	16	15	0	CARDINAL	244	n/a	n/a	1	n/a	n/a	n/a	n/a	n/a
2776.288	n/a	REC_WORD	1388144	wordpools/wasnorm_wordpool_less_exclusions.txt	LTP233	ltpFR	16	15	0	CAGE	218	n/a	n/a	0	n/a	n/a	n/a	n/a	n/a
2852.596	n/a	WORD	1426298	wordpools/wasnorm_wordpool_less_exclusions.txt	LTP233	ltpFR	16	16	1	MILK	895	n/a	n/a	0	0.422607421875	0.5869140625	0	upper	zerothre.ttf
2856.692	n/a	WORD	1428346	wordpools/wasnorm_wordpool_less_exclusions.txt	LTP233	ltpFR	16	16	1	WRITER	1627	n/a	n/a	1	0.422607421875	0.5869140625	0	upper	zerothre.ttf
2860.728	n/a	WORD	1430364	wordpools/wasnorm_wordpool_less_exclusions.txt	LTP233	ltpFR	16	16	1	PAW	1029	n/a	n/a	1	0.422607421875	0.5869140625	0	upper	zerothre.ttf
2864.638	n/a	WORD	1432319	wordpools/wasnorm_wordpool_less_exclusions.txt	LTP233	ltpFR	16	16	0	BULB	192	n/a	n/a	0	0.57763671875	0.412841796875	1	lower	amplitud.ttf
2868.804	n/a	WORD	1434402	wordpools/wasnorm_wordpool_less_exclusions.txt	LTP233	ltpFR	16	16	0	WICK	1607	n/a	n/a	0	0.57763671875	0.412841796875	1	lower	amplitud.ttf
2872.674	n/a	WORD	1436337	wordpools/wasnorm_wordpool_less_exclusions.txt	LTP233	ltpFR	16	16	0	SHED	1277	n/a	n/a	0	0.57763671875	0.412841796875	1	lower	amplitud.ttf
2876.872	n/a	WORD	1438436	wordpools/wasnorm_wordpool_less_exclusions.txt	LTP233	ltpFR	16	16	1	SKYSCRAPER	1322	n/a	n/a	0	0.422607421875	0.5869140625	0	upper	zerothre.ttf
2880.804	n/a	WORD	1440402	wordpools/wasnorm_wordpool_less_exclusions.txt	LTP233	ltpFR	16	16	1	FOOT	590	n/a	n/a	0	0.422607421875	0.5869140625	0	upper	zerothre.ttf
2885.02	n/a	WORD	1442510	wordpools/wasnorm_wordpool_less_exclusions.txt	LTP233	ltpFR	16	16	1	HERD	705	n/a	n/a	1	0.422607421875	0.5869140625	0	upper	zerothre.ttf
2889.036	n/a	WORD	1444518	wordpools/wasnorm_wordpool_less_exclusions.txt	LTP233	ltpFR	16	16	0	ARCHITECT	36	n/a	n/a	1	0.57763671875	0.412841796875	1	lower	amplitud.ttf
2892.984	n/a	WORD	1446492	wordpools/wasnorm_wordpool_less_exclusions.txt	LTP233	ltpFR	16	16	0	CRAB	397	n/a	n/a	0	0.57763671875	0.412841796875	1	lower	amplitud.ttf
2897.166	n/a	WORD	1448583	wordpools/wasnorm_wordpool_less_exclusions.txt	LTP233	ltpFR	16	16	0	TOENAIL	1474	n/a	n/a	0	0.57763671875	0.412841796875	1	lower	amplitud.ttf
2901.298	n/a	WORD	1450649	wordpools/wasnorm_wordpool_less_exclusions.txt	LTP233	ltpFR	16	16	0	ARTERY	41	n/a	n/a	0	0.57763671875	0.412841796875	1	lower	amplitud.ttf
2905.198	n/a	WORD	1452599	wordpools/wasnorm_wordpool_less_exclusions.txt	LTP233	ltpFR	16	16	0	LIVER	833	n/a	n/a	0	0.57763671875	0.412841796875	1	lower	amplitud.ttf
2909.162	n/a	WORD	1454581	wordpools/wasnorm_wordpool_less_exclusions.txt	LTP233	ltpFR	16	16	1	RICE	1190	n/a	n/a	1	0.422607421875	0.5869140625	0	upper	zerothre.ttf
2913.212	n/a	WORD	1456606	wordpools/wasnorm_wordpool_less_exclusions.txt	LTP233	ltpFR	16	16	1	HEEL	700	n/a	n/a	0	0.422607421875	0.5869140625	0	upper	zerothre.ttf
2918.884	n/a	REC_START	1459442	n/a	LTP233	ltpFR	16	16	n/a	n/a	n/a	n/a	n/a	n/a	n/a	n/a	n/a	n/a	n/a
2919.328	n/a	REC_WORD	1459664	wordpools/wasnorm_wordpool_less_exclusions.txt	LTP233	ltpFR	16	16	1	RICE	1190	n/a	n/a	1	n/a	n/a	n/a	n/a	n/a
2920.086	n/a	REC_WORD	1460043	wordpools/wasnorm_wordpool_less_exclusions.txt	LTP233	ltpFR	16	16	1	HEEL	700	n/a	n/a	0	n/a	n/a	n/a	n/a	n/a
2921.288	n/a	REC_WORD	1460644	wordpools/wasnorm_wordpool_less_exclusions.txt	LTP233	ltpFR	16	16	0	CRAB	397	n/a	n/a	0	n/a	n/a	n/a	n/a	n/a
2922.59	n/a	REC_WORD	1461295	wordpools/wasnorm_wordpool_less_exclusions.txt	LTP233	ltpFR	16	16	n/a	TOE	1473	n/a	n/a	n/a	n/a	n/a	n/a	n/a	n/a
2923.498	n/a	REC_WORD	1461749	wordpools/wasnorm_wordpool_less_exclusions.txt	LTP233	ltpFR	16	16	n/a	NAIL	936	n/a	n/a	n/a	n/a	n/a	n/a	n/a	n/a
2924.866	n/a	REC_WORD	1462433	wordpools/wasnorm_wordpool_less_exclusions.txt	LTP233	ltpFR	16	16	1	FOOT	590	n/a	n/a	0	n/a	n/a	n/a	n/a	n/a
2926.402	n/a	REC_WORD	1463201	wordpools/wasnorm_wordpool_less_exclusions.txt	LTP233	ltpFR	16	16	n/a	BUILDING	191	n/a	n/a	n/a	n/a	n/a	n/a	n/a	n/a
2927.71	n/a	REC_WORD	1463855	wordpools/wasnorm_wordpool_less_exclusions.txt	LTP233	ltpFR	16	16	0	ARCHITECT	36	n/a	n/a	1	n/a	n/a	n/a	n/a	n/a
2929.53	n/a	REC_WORD	1464765	wordpools/wasnorm_wordpool_less_exclusions.txt	LTP233	ltpFR	16	16	1	WRITER	1627	n/a	n/a	1	n/a	n/a	n/a	n/a	n/a
2930.572	n/a	REC_WORD	1465286	wordpools/wasnorm_wordpool_less_exclusions.txt	LTP233	ltpFR	16	16	1	PAW	1029	n/a	n/a	1	n/a	n/a	n/a	n/a	n/a
2931.5	n/a	REC_WORD	1465750	wordpools/wasnorm_wordpool_less_exclusions.txt	LTP233	ltpFR	16	16	1	MILK	895	n/a	n/a	0	n/a	n/a	n/a	n/a	n/a
2934.18	n/a	REC_WORD	1467090	wordpools/wasnorm_wordpool_less_exclusions.txt	LTP233	ltpFR	16	16	1	RICE	1190	n/a	n/a	1	n/a	n/a	n/a	n/a	n/a
2954.0	n/a	REC_WORD	1477000	wordpools/wasnorm_wordpool_less_exclusions.txt	LTP233	ltpFR	16	16	0	WICK	1607	n/a	n/a	0	n/a	n/a	n/a	n/a	n/a
3017.176	n/a	REC_START	1508588	n/a	LTP233	ltpFR	16	1	n/a	n/a	n/a	n/a	n/a	n/a	n/a	n/a	n/a	n/a	n/a
3017.238	n/a	RECOG_TARGET	1508619	n/a	LTP233	ltpFR	16	1	1	CONCERT	360	1	5	0	n/a	n/a	n/a	n/a	n/a
3019.278	n/a	RECOG_RESP	1509639	n/a	LTP233	ltpFR	16	1	1	CONCERT	360	1	n/a	0	n/a	n/a	n/a	n/a	n/a
3020.256	n/a	RECOG_CONF	1510128	n/a	LTP233	ltpFR	16	1	1	CONCERT	360	n/a	5	0	n/a	n/a	n/a	n/a	n/a
3022.028	n/a	RECOG_TARGET	1511014	n/a	LTP233	ltpFR	16	1	1	APPENDAGE	32	1	5	0	n/a	n/a	n/a	n/a	n/a
3023.012	n/a	RECOG_RESP	1511506	n/a	LTP233	ltpFR	16	1	1	APPENDAGE	32	1	n/a	0	n/a	n/a	n/a	n/a	n/a
3023.836	n/a	RECOG_CONF	1511918	n/a	LTP233	ltpFR	16	1	1	APPENDAGE	32	n/a	5	0	n/a	n/a	n/a	n/a	n/a
3025.574	n/a	RECOG_TARGET	1512787	n/a	LTP233	ltpFR	16	1	0	COOKBOOK	373	1	5	0	n/a	n/a	n/a	n/a	n/a
3026.188	n/a	RECOG_RESP	1513094	n/a	LTP233	ltpFR	16	1	0	COOKBOOK	373	1	n/a	0	n/a	n/a	n/a	n/a	n/a
3026.956	n/a	RECOG_CONF	1513478	n/a	LTP233	ltpFR	16	1	0	COOKBOOK	373	n/a	5	0	n/a	n/a	n/a	n/a	n/a
3028.802	n/a	RECOG_LURE	1514401	n/a	LTP233	ltpFR	16	1	n/a	SLEIGH	1325	0	5	n/a	n/a	n/a	n/a	n/a	n/a
3029.638	n/a	RECOG_RESP	1514819	n/a	LTP233	ltpFR	16	1	n/a	SLEIGH	1325	0	n/a	n/a	n/a	n/a	n/a	n/a	n/a
3030.43	n/a	RECOG_CONF	1515215	n/a	LTP233	ltpFR	16	1	n/a	SLEIGH	1325	n/a	5	n/a	n/a	n/a	n/a	n/a	n/a
3032.434	n/a	RECOG_TARGET	1516217	n/a	LTP233	ltpFR	16	1	0	COSTUME	383	1	1	0	n/a	n/a	n/a	n/a	n/a
3033.76	n/a	RECOG_RESP	1516880	n/a	LTP233	ltpFR	16	1	0	COSTUME	383	1	n/a	0	n/a	n/a	n/a	n/a	n/a
3034.624	n/a	RECOG_CONF	1517312	n/a	LTP233	ltpFR	16	1	0	COSTUME	383	n/a	1	0	n/a	n/a	n/a	n/a	n/a
3036.462	n/a	RECOG_TARGET	1518231	n/a	LTP233	ltpFR	16	1	0	OFFICE	972	1	4	0	n/a	n/a	n/a	n/a	n/a
3037.406	n/a	RECOG_RESP	1518703	n/a	LTP233	ltpFR	16	1	0	OFFICE	972	1	n/a	0	n/a	n/a	n/a	n/a	n/a
3038.374	n/a	RECOG_CONF	1519187	n/a	LTP233	ltpFR	16	1	0	OFFICE	972	n/a	4	0	n/a	n/a	n/a	n/a	n/a
3040.196	n/a	RECOG_TARGET	1520098	n/a	LTP233	ltpFR	16	1	0	CHIMPANZEE	302	1	4	1	n/a	n/a	n/a	n/a	n/a
3041.018	n/a	RECOG_RESP	1520509	n/a	LTP233	ltpFR	16	1	0	CHIMPANZEE	302	1	n/a	1	n/a	n/a	n/a	n/a	n/a
3041.798	n/a	RECOG_CONF	1520899	n/a	LTP233	ltpFR	16	1	0	CHIMPANZEE	302	n/a	4	1	n/a	n/a	n/a	n/a	n/a
3043.492	n/a	RECOG_TARGET	1521746	n/a	LTP233	ltpFR	16	1	1	WAGON	1578	0	3	0	n/a	n/a	n/a	n/a	n/a
3044.6	n/a	RECOG_RESP	1522300	n/a	LTP233	ltpFR	16	1	1	WAGON	1578	0	n/a	0	n/a	n/a	n/a	n/a	n/a
3045.628	n/a	RECOG_CONF	1522814	n/a	LTP233	ltpFR	16	1	1	WAGON	1578	n/a	3	0	n/a	n/a	n/a	n/a	n/a
3047.286	n/a	RECOG_LURE	1523643	n/a	LTP233	ltpFR	16	1	n/a	GROOM	665	0	4	n/a	n/a	n/a	n/a	n/a	n/a
3048.25	n/a	RECOG_RESP	1524125	n/a	LTP233	ltpFR	16	1	n/a	GROOM	665	0	n/a	n/a	n/a	n/a	n/a	n/a	n/a
3049.01	n/a	RECOG_CONF	1524505	n/a	LTP233	ltpFR	16	1	n/a	GROOM	665	n/a	4	n/a	n/a	n/a	n/a	n/a	n/a
3050.77	n/a	RECOG_TARGET	1525385	n/a	LTP233	ltpFR	16	1	1	FOOT	590	1	5	0	n/a	n/a	n/a	n/a	n/a
3051.434	n/a	RECOG_RESP	1525717	n/a	LTP233	ltpFR	16	1	1	FOOT	590	1	n/a	0	n/a	n/a	n/a	n/a	n/a
3052.03	n/a	RECOG_CONF	1526015	n/a	LTP233	ltpFR	16	1	1	FOOT	590	n/a	5	0	n/a	n/a	n/a	n/a	n/a
3053.782	n/a	RECOG_TARGET	1526891	n/a	LTP233	ltpFR	16	1	0	CHAIN	273	1	5	0	n/a	n/a	n/a	n/a	n/a
3054.66	n/a	RECOG_RESP	1527330	n/a	LTP233	ltpFR	16	1	0	CHAIN	273	1	n/a	0	n/a	n/a	n/a	n/a	n/a
3055.29	n/a	RECOG_CONF	1527645	n/a	LTP233	ltpFR	16	1	0	CHAIN	273	n/a	5	0	n/a	n/a	n/a	n/a	n/a
3057.196	n/a	RECOG_TARGET	1528598	n/a	LTP233	ltpFR	16	1	0	SHED	1277	1	1	0	n/a	n/a	n/a	n/a	n/a
3057.696	n/a	RECOG_RESP	1528848	n/a	LTP233	ltpFR	16	1	0	SHED	1277	1	n/a	0	n/a	n/a	n/a	n/a	n/a
3058.61	n/a	RECOG_CONF	1529305	n/a	LTP233	ltpFR	16	1	0	SHED	1277	n/a	1	0	n/a	n/a	n/a	n/a	n/a
3060.256	n/a	RECOG_TARGET	1530128	n/a	LTP233	ltpFR	16	1	-1	RACK	1154	1	5	-1	n/a	n/a	n/a	n/a	n/a
3060.828	n/a	RECOG_RESP	1530414	n/a	LTP233	ltpFR	16	1	-1	RACK	1154	1	n/a	-1	n/a	n/a	n/a	n/a	n/a
3061.384	n/a	RECOG_CONF	1530692	n/a	LTP233	ltpFR	16	1	-1	RACK	1154	n/a	5	-1	n/a	n/a	n/a	n/a	n/a
3063.284	n/a	RECOG_TARGET	1531642	n/a	LTP233	ltpFR	16	1	0	CAULIFLOWER	262	1	5	0	n/a	n/a	n/a	n/a	n/a
3063.83	n/a	RECOG_RESP	1531915	n/a	LTP233	ltpFR	16	1	0	CAULIFLOWER	262	1	n/a	0	n/a	n/a	n/a	n/a	n/a
3064.424	n/a	RECOG_CONF	1532212	n/a	LTP233	ltpFR	16	1	0	CAULIFLOWER	262	n/a	5	0	n/a	n/a	n/a	n/a	n/a
3066.028	n/a	RECOG_TARGET	1533014	n/a	LTP233	ltpFR	16	1	0	COOK	372	1	5	1	n/a	n/a	n/a	n/a	n/a
3066.508	n/a	RECOG_RESP	1533254	n/a	LTP233	ltpFR	16	1	0	COOK	372	1	n/a	1	n/a	n/a	n/a	n/a	n/a
3067.134	n/a	RECOG_CONF	1533567	n/a	LTP233	ltpFR	16	1	0	COOK	372	n/a	5	1	n/a	n/a	n/a	n/a	n/a
3068.788	n/a	RECOG_TARGET	1534394	n/a	LTP233	ltpFR	16	1	0	CHURCH	307	1	5	1	n/a	n/a	n/a	n/a	n/a
3069.268	n/a	RECOG_RESP	1534634	n/a	LTP233	ltpFR	16	1	0	CHURCH	307	1	n/a	1	n/a	n/a	n/a	n/a	n/a
3069.824	n/a	RECOG_CONF	1534912	n/a	LTP233	ltpFR	16	1	0	CHURCH	307	n/a	5	1	n/a	n/a	n/a	n/a	n/a
3071.582	n/a	RECOG_TARGET	1535791	n/a	LTP233	ltpFR	16	1	1	BANANA	77	1	5	1	n/a	n/a	n/a	n/a	n/a
3072.078	n/a	RECOG_RESP	1536039	n/a	LTP233	ltpFR	16	1	1	BANANA	77	1	n/a	1	n/a	n/a	n/a	n/a	n/a
3072.598	n/a	RECOG_CONF	1536299	n/a	LTP233	ltpFR	16	1	1	BANANA	77	n/a	5	1	n/a	n/a	n/a	n/a	n/a
3074.41	n/a	RECOG_TARGET	1537205	n/a	LTP233	ltpFR	16	1	-1	FREEWAY	603	1	5	-1	n/a	n/a	n/a	n/a	n/a
3074.968	n/a	RECOG_RESP	1537484	n/a	LTP233	ltpFR	16	1	-1	FREEWAY	603	1	n/a	-1	n/a	n/a	n/a	n/a	n/a
3075.488	n/a	RECOG_CONF	1537744	n/a	LTP233	ltpFR	16	1	-1	FREEWAY	603	n/a	5	-1	n/a	n/a	n/a	n/a	n/a
3077.268	n/a	RECOG_LURE	1538634	n/a	LTP233	ltpFR	16	1	n/a	DOCUMENT	479	0	2	n/a	n/a	n/a	n/a	n/a	n/a
3080.354	n/a	RECOG_RESP	1540177	n/a	LTP233	ltpFR	16	1	n/a	DOCUMENT	479	0	n/a	n/a	n/a	n/a	n/a	n/a	n/a
3081.174	n/a	RECOG_CONF	1540587	n/a	LTP233	ltpFR	16	1	n/a	DOCUMENT	479	n/a	2	n/a	n/a	n/a	n/a	n/a	n/a
3083.01	n/a	RECOG_TARGET	1541505	n/a	LTP233	ltpFR	16	1	0	MALL	860	1	5	1	n/a	n/a	n/a	n/a	n/a
3083.71	n/a	RECOG_RESP	1541855	n/a	LTP233	ltpFR	16	1	0	MALL	860	1	n/a	1	n/a	n/a	n/a	n/a	n/a
3084.296	n/a	RECOG_CONF	1542148	n/a	LTP233	ltpFR	16	1	0	MALL	860	n/a	5	1	n/a	n/a	n/a	n/a	n/a
3087.694	n/a	REC_START	1543847	n/a	LTP233	ltpFR	16	2	n/a	n/a	n/a	n/a	n/a	n/a	n/a	n/a	n/a	n/a	n/a
3087.744	n/a	RECOG_TARGET	1543872	n/a	LTP233	ltpFR	16	2	1	RAISIN	1163	1	5	0	n/a	n/a	n/a	n/a	n/a
3088.36	n/a	RECOG_RESP	1544180	n/a	LTP233	ltpFR	16	2	1	RAISIN	1163	1	n/a	0	n/a	n/a	n/a	n/a	n/a
3088.912	n/a	RECOG_CONF	1544456	n/a	LTP233	ltpFR	16	2	1	RAISIN	1163	n/a	5	0	n/a	n/a	n/a	n/a	n/a
3090.718	n/a	RECOG_TARGET	1545359	n/a	LTP233	ltpFR	16	2	1	STEWARDESS	1381	1	5	1	n/a	n/a	n/a	n/a	n/a
3091.246	n/a	RECOG_RESP	1545623	n/a	LTP233	ltpFR	16	2	1	STEWARDESS	1381	1	n/a	1	n/a	n/a	n/a	n/a	n/a
3091.866	n/a	RECOG_CONF	1545933	n/a	LTP233	ltpFR	16	2	1	STEWARDESS	1381	n/a	5	1	n/a	n/a	n/a	n/a	n/a
3093.568	n/a	RECOG_TARGET	1546784	n/a	LTP233	ltpFR	16	2	1	TABLE	1426	1	5	0	n/a	n/a	n/a	n/a	n/a
3094.156	n/a	RECOG_RESP	1547078	n/a	LTP233	ltpFR	16	2	1	TABLE	1426	1	n/a	0	n/a	n/a	n/a	n/a	n/a
3094.692	n/a	RECOG_CONF	1547346	n/a	LTP233	ltpFR	16	2	1	TABLE	1426	n/a	5	0	n/a	n/a	n/a	n/a	n/a
3096.512	n/a	RECOG_TARGET	1548256	n/a	LTP233	ltpFR	16	2	0	CAGE	218	1	5	0	n/a	n/a	n/a	n/a	n/a
3096.974	n/a	RECOG_RESP	1548487	n/a	LTP233	ltpFR	16	2	0	CAGE	218	1	n/a	0	n/a	n/a	n/a	n/a	n/a
3097.458	n/a	RECOG_CONF	1548729	n/a	LTP233	ltpFR	16	2	0	CAGE	218	n/a	5	0	n/a	n/a	n/a	n/a	n/a
3099.322	n/a	RECOG_TARGET	1549661	n/a	LTP233	ltpFR	16	2	0	IRON	744	1	5	1	n/a	n/a	n/a	n/a	n/a
3099.814	n/a	RECOG_RESP	1549907	n/a	LTP233	ltpFR	16	2	0	IRON	744	1	n/a	1	n/a	n/a	n/a	n/a	n/a
3100.546	n/a	RECOG_CONF	1550273	n/a	LTP233	ltpFR	16	2	0	IRON	744	n/a	5	1	n/a	n/a	n/a	n/a	n/a
3102.318	n/a	RECOG_TARGET	1551159	n/a	LTP233	ltpFR	16	2	0	BROOK	177	1	5	0	n/a	n/a	n/a	n/a	n/a
3103.014	n/a	RECOG_RESP	1551507	n/a	LTP233	ltpFR	16	2	0	BROOK	177	1	n/a	0	n/a	n/a	n/a	n/a	n/a
3103.652	n/a	RECOG_CONF	1551826	n/a	LTP233	ltpFR	16	2	0	BROOK	177	n/a	5	0	n/a	n/a	n/a	n/a	n/a
3105.492	n/a	RECOG_LURE	1552746	n/a	LTP233	ltpFR	16	2	n/a	SOLDIER	1344	0	4	n/a	n/a	n/a	n/a	n/a	n/a
3106.374	n/a	RECOG_RESP	1553187	n/a	LTP233	ltpFR	16	2	n/a	SOLDIER	1344	0	n/a	n/a	n/a	n/a	n/a	n/a	n/a
3107.058	n/a	RECOG_CONF	1553529	n/a	LTP233	ltpFR	16	2	n/a	SOLDIER	1344	n/a	4	n/a	n/a	n/a	n/a	n/a	n/a
3108.858	n/a	RECOG_TARGET	1554429	n/a	LTP233	ltpFR	16	2	0	JOURNAL	760	1	5	0	n/a	n/a	n/a	n/a	n/a
3109.64	n/a	RECOG_RESP	1554820	n/a	LTP233	ltpFR	16	2	0	JOURNAL	760	1	n/a	0	n/a	n/a	n/a	n/a	n/a
3110.258	n/a	RECOG_CONF	1555129	n/a	LTP233	ltpFR	16	2	0	JOURNAL	760	n/a	5	0	n/a	n/a	n/a	n/a	n/a
3112.004	n/a	RECOG_TARGET	1556002	n/a	LTP233	ltpFR	16	2	1	FRAGRANCE	599	1	5	0	n/a	n/a	n/a	n/a	n/a
3112.674	n/a	RECOG_RESP	1556337	n/a	LTP233	ltpFR	16	2	1	FRAGRANCE	599	1	n/a	0	n/a	n/a	n/a	n/a	n/a
3113.186	n/a	RECOG_CONF	1556593	n/a	LTP233	ltpFR	16	2	1	FRAGRANCE	599	n/a	5	0	n/a	n/a	n/a	n/a	n/a
3115.0	n/a	RECOG_TARGET	1557500	n/a	LTP233	ltpFR	16	2	1	MAP	865	1	5	0	n/a	n/a	n/a	n/a	n/a
3115.818	n/a	RECOG_RESP	1557909	n/a	LTP233	ltpFR	16	2	1	MAP	865	1	n/a	0	n/a	n/a	n/a	n/a	n/a
3116.372	n/a	RECOG_CONF	1558186	n/a	LTP233	ltpFR	16	2	1	MAP	865	n/a	5	0	n/a	n/a	n/a	n/a	n/a
3118.058	n/a	RECOG_LURE	1559029	n/a	LTP233	ltpFR	16	2	n/a	SWITCH	1422	0	3	n/a	n/a	n/a	n/a	n/a	n/a
3118.812	n/a	RECOG_RESP	1559406	n/a	LTP233	ltpFR	16	2	n/a	SWITCH	1422	0	n/a	n/a	n/a	n/a	n/a	n/a	n/a
3119.486	n/a	RECOG_CONF	1559743	n/a	LTP233	ltpFR	16	2	n/a	SWITCH	1422	n/a	3	n/a	n/a	n/a	n/a	n/a	n/a
3121.106	n/a	RECOG_LURE	1560553	n/a	LTP233	ltpFR	16	2	n/a	ENGINEER	536	1	2	n/a	n/a	n/a	n/a	n/a	n/a
3121.798	n/a	RECOG_RESP	1560899	n/a	LTP233	ltpFR	16	2	n/a	ENGINEER	536	1	n/a	n/a	n/a	n/a	n/a	n/a	n/a
3122.526	n/a	RECOG_CONF	1561263	n/a	LTP233	ltpFR	16	2	n/a	ENGINEER	536	n/a	2	n/a	n/a	n/a	n/a	n/a	n/a
3124.23	n/a	RECOG_TARGET	1562115	n/a	LTP233	ltpFR	16	2	-1	COLESLAW	344	1	5	-1	n/a	n/a	n/a	n/a	n/a
3124.842	n/a	RECOG_RESP	1562421	n/a	LTP233	ltpFR	16	2	-1	COLESLAW	344	1	n/a	-1	n/a	n/a	n/a	n/a	n/a
3125.38	n/a	RECOG_CONF	1562690	n/a	LTP233	ltpFR	16	2	-1	COLESLAW	344	n/a	5	-1	n/a	n/a	n/a	n/a	n/a
3127.246	n/a	RECOG_TARGET	1563623	n/a	LTP233	ltpFR	16	2	1	VELVET	1555	1	5	1	n/a	n/a	n/a	n/a	n/a
3127.754	n/a	RECOG_RESP	1563877	n/a	LTP233	ltpFR	16	2	1	VELVET	1555	1	n/a	1	n/a	n/a	n/a	n/a	n/a
3128.264	n/a	RECOG_CONF	1564132	n/a	LTP233	ltpFR	16	2	1	VELVET	1555	n/a	5	1	n/a	n/a	n/a	n/a	n/a
3130.006	n/a	RECOG_LURE	1565003	n/a	LTP233	ltpFR	16	2	n/a	SHIP	1286	0	3	n/a	n/a	n/a	n/a	n/a	n/a
3130.392	n/a	RECOG_RESP_VV	1565196	n/a	LTP233	ltpFR	16	2	n/a	SHIP	1286	1	n/a	n/a	n/a	n/a	n/a	n/a	n/a
3131.446	n/a	RECOG_RESP	1565723	n/a	LTP233	ltpFR	16	2	n/a	SHIP	1286	0	n/a	n/a	n/a	n/a	n/a	n/a	n/a
3132.524	n/a	RECOG_CONF	1566262	n/a	LTP233	ltpFR	16	2	n/a	SHIP	1286	n/a	3	n/a	n/a	n/a	n/a	n/a	n/a
3134.458	n/a	RECOG_LURE	1567229	n/a	LTP233	ltpFR	16	2	n/a	SHEPHERD	1283	0	2	n/a	n/a	n/a	n/a	n/a	n/a
3135.404	n/a	RECOG_RESP	1567702	n/a	LTP233	ltpFR	16	2	n/a	SHEPHERD	1283	0	n/a	n/a	n/a	n/a	n/a	n/a	n/a
3136.054	n/a	RECOG_CONF	1568027	n/a	LTP233	ltpFR	16	2	n/a	SHEPHERD	1283	n/a	2	n/a	n/a	n/a	n/a	n/a	n/a
3137.8	n/a	RECOG_LURE	1568900	n/a	LTP233	ltpFR	16	2	n/a	YOUTH	1634	0	3	n/a	n/a	n/a	n/a	n/a	n/a
3138.486	n/a	RECOG_RESP	1569243	n/a	LTP233	ltpFR	16	2	n/a	YOUTH	1634	0	n/a	n/a	n/a	n/a	n/a	n/a	n/a
3139.246	n/a	RECOG_CONF	1569623	n/a	LTP233	ltpFR	16	2	n/a	YOUTH	1634	n/a	3	n/a	n/a	n/a	n/a	n/a	n/a
3140.994	n/a	RECOG_LURE	1570497	n/a	LTP233	ltpFR	16	2	n/a	PUDDING	1139	0	5	n/a	n/a	n/a	n/a	n/a	n/a
3141.636	n/a	RECOG_RESP	1570818	n/a	LTP233	ltpFR	16	2	n/a	PUDDING	1139	0	n/a	n/a	n/a	n/a	n/a	n/a	n/a
3142.214	n/a	RECOG_CONF	1571107	n/a	LTP233	ltpFR	16	2	n/a	PUDDING	1139	n/a	5	n/a	n/a	n/a	n/a	n/a	n/a
3143.994	n/a	RECOG_TARGET	1571997	n/a	LTP233	ltpFR	16	2	-1	MOTORCYCLE	923	1	5	-1	n/a	n/a	n/a	n/a	n/a
3144.608	n/a	RECOG_RESP_VV	1572304	n/a	LTP233	ltpFR	16	2	-1	MOTORCYCLE	923	0	n/a	-1	n/a	n/a	n/a	n/a	n/a
3145.68	n/a	RECOG_RESP	1572840	n/a	LTP233	ltpFR	16	2	-1	MOTORCYCLE	923	1	n/a	-1	n/a	n/a	n/a	n/a	n/a
3146.518	n/a	RECOG_CONF	1573259	n/a	LTP233	ltpFR	16	2	-1	MOTORCYCLE	923	n/a	5	-1	n/a	n/a	n/a	n/a	n/a
3148.376	n/a	RECOG_LURE	1574188	n/a	LTP233	ltpFR	16	2	n/a	ESCALATOR	539	0	2	n/a	n/a	n/a	n/a	n/a	n/a
3151.1	n/a	RECOG_RESP	1575550	n/a	LTP233	ltpFR	16	2	n/a	ESCALATOR	539	0	n/a	n/a	n/a	n/a	n/a	n/a	n/a
3152.016	n/a	RECOG_CONF	1576008	n/a	LTP233	ltpFR	16	2	n/a	ESCALATOR	539	n/a	2	n/a	n/a	n/a	n/a	n/a	n/a
3155.334	n/a	REC_START	1577667	n/a	LTP233	ltpFR	16	3	n/a	n/a	n/a	n/a	n/a	n/a	n/a	n/a	n/a	n/a	n/a
3155.386	n/a	RECOG_TARGET	1577693	n/a	LTP233	ltpFR	16	3	-1	PIKE	1067	1	5	-1	n/a	n/a	n/a	n/a	n/a
3155.938	n/a	RECOG_RESP	1577969	n/a	LTP233	ltpFR	16	3	-1	PIKE	1067	1	n/a	-1	n/a	n/a	n/a	n/a	n/a
3156.436	n/a	RECOG_CONF	1578218	n/a	LTP233	ltpFR	16	3	-1	PIKE	1067	n/a	5	-1	n/a	n/a	n/a	n/a	n/a
3158.198	n/a	RECOG_TARGET	1579099	n/a	LTP233	ltpFR	16	3	0	EWE	542	1	5	1	n/a	n/a	n/a	n/a	n/a
3158.748	n/a	RECOG_RESP	1579374	n/a	LTP233	ltpFR	16	3	0	EWE	542	1	n/a	1	n/a	n/a	n/a	n/a	n/a
3159.282	n/a	RECOG_CONF	1579641	n/a	LTP233	ltpFR	16	3	0	EWE	542	n/a	5	1	n/a	n/a	n/a	n/a	n/a
3161.024	n/a	RECOG_LURE	1580512	n/a	LTP233	ltpFR	16	3	n/a	TUB	1514	1	5	n/a	n/a	n/a	n/a	n/a	n/a
3161.552	n/a	RECOG_RESP	1580776	n/a	LTP233	ltpFR	16	3	n/a	TUB	1514	1	n/a	n/a	n/a	n/a	n/a	n/a	n/a
3162.182	n/a	RECOG_CONF	1581091	n/a	LTP233	ltpFR	16	3	n/a	TUB	1514	n/a	5	n/a	n/a	n/a	n/a	n/a	n/a
3163.948	n/a	RECOG_LURE	1581974	n/a	LTP233	ltpFR	16	3	n/a	GYMNAST	675	0	5	n/a	n/a	n/a	n/a	n/a	n/a
3164.676	n/a	RECOG_RESP	1582338	n/a	LTP233	ltpFR	16	3	n/a	GYMNAST	675	0	n/a	n/a	n/a	n/a	n/a	n/a	n/a
3165.296	n/a	RECOG_CONF	1582648	n/a	LTP233	ltpFR	16	3	n/a	GYMNAST	675	n/a	5	n/a	n/a	n/a	n/a	n/a	n/a
3167.048	n/a	RECOG_TARGET	1583524	n/a	LTP233	ltpFR	16	3	-1	WATER	1594	1	5	-1	n/a	n/a	n/a	n/a	n/a
3167.84	n/a	RECOG_RESP	1583920	n/a	LTP233	ltpFR	16	3	-1	WATER	1594	1	n/a	-1	n/a	n/a	n/a	n/a	n/a
3168.422	n/a	RECOG_CONF	1584211	n/a	LTP233	ltpFR	16	3	-1	WATER	1594	n/a	5	-1	n/a	n/a	n/a	n/a	n/a
3170.294	n/a	RECOG_LURE	1585147	n/a	LTP233	ltpFR	16	3	n/a	BEET	115	1	3	n/a	n/a	n/a	n/a	n/a	n/a
3171.826	n/a	RECOG_RESP	1585913	n/a	LTP233	ltpFR	16	3	n/a	BEET	115	1	n/a	n/a	n/a	n/a	n/a	n/a	n/a
3172.744	n/a	RECOG_CONF	1586372	n/a	LTP233	ltpFR	16	3	n/a	BEET	115	n/a	3	n/a	n/a	n/a	n/a	n/a	n/a
3174.41	n/a	RECOG_TARGET	1587205	n/a	LTP233	ltpFR	16	3	0	POTTERY	1116	0	2	0	n/a	n/a	n/a	n/a	n/a
3176.128	n/a	RECOG_RESP	1588064	n/a	LTP233	ltpFR	16	3	0	POTTERY	1116	0	n/a	0	n/a	n/a	n/a	n/a	n/a
3176.84	n/a	RECOG_CONF	1588420	n/a	LTP233	ltpFR	16	3	0	POTTERY	1116	n/a	2	0	n/a	n/a	n/a	n/a	n/a
3178.492	n/a	RECOG_TARGET	1589246	n/a	LTP233	ltpFR	16	3	-1	BOULDER	155	1	5	-1	n/a	n/a	n/a	n/a	n/a
3179.628	n/a	RECOG_RESP	1589814	n/a	LTP233	ltpFR	16	3	-1	BOULDER	155	1	n/a	-1	n/a	n/a	n/a	n/a	n/a
3180.046	n/a	RECOG_CONF	1590023	n/a	LTP233	ltpFR	16	3	-1	BOULDER	155	n/a	5	-1	n/a	n/a	n/a	n/a	n/a
3181.788	n/a	RECOG_LURE	1590894	n/a	LTP233	ltpFR	16	3	n/a	GLASSES	640	0	5	n/a	n/a	n/a	n/a	n/a	n/a
3182.674	n/a	RECOG_RESP	1591337	n/a	LTP233	ltpFR	16	3	n/a	GLASSES	640	0	n/a	n/a	n/a	n/a	n/a	n/a	n/a
3183.182	n/a	RECOG_CONF	1591591	n/a	LTP233	ltpFR	16	3	n/a	GLASSES	640	n/a	5	n/a	n/a	n/a	n/a	n/a	n/a
3184.878	n/a	RECOG_TARGET	1592439	n/a	LTP233	ltpFR	16	3	0	PUBLICATION	1136	1	3	0	n/a	n/a	n/a	n/a	n/a
3186.022	n/a	RECOG_RESP	1593011	n/a	LTP233	ltpFR	16	3	0	PUBLICATION	1136	1	n/a	0	n/a	n/a	n/a	n/a	n/a
3186.572	n/a	RECOG_CONF	1593286	n/a	LTP233	ltpFR	16	3	0	PUBLICATION	1136	n/a	3	0	n/a	n/a	n/a	n/a	n/a
3188.164	n/a	RECOG_TARGET	1594082	n/a	LTP233	ltpFR	16	3	1	HEEL	700	1	5	0	n/a	n/a	n/a	n/a	n/a
3188.69	n/a	RECOG_RESP	1594345	n/a	LTP233	ltpFR	16	3	1	HEEL	700	1	n/a	0	n/a	n/a	n/a	n/a	n/a
3189.098	n/a	RECOG_CONF	1594549	n/a	LTP233	ltpFR	16	3	1	HEEL	700	n/a	5	0	n/a	n/a	n/a	n/a	n/a
3190.872	n/a	RECOG_TARGET	1595436	n/a	LTP233	ltpFR	16	3	0	FILM	565	1	5	1	n/a	n/a	n/a	n/a	n/a
3191.478	n/a	RECOG_RESP	1595739	n/a	LTP233	ltpFR	16	3	0	FILM	565	1	n/a	1	n/a	n/a	n/a	n/a	n/a
3191.91	n/a	RECOG_CONF	1595955	n/a	LTP233	ltpFR	16	3	0	FILM	565	n/a	5	1	n/a	n/a	n/a	n/a	n/a
3193.5	n/a	RECOG_TARGET	1596750	n/a	LTP233	ltpFR	16	3	0	TIMBER	1469	1	5	0	n/a	n/a	n/a	n/a	n/a
3194.026	n/a	RECOG_RESP	1597013	n/a	LTP233	ltpFR	16	3	0	TIMBER	1469	1	n/a	0	n/a	n/a	n/a	n/a	n/a
3194.474	n/a	RECOG_CONF	1597237	n/a	LTP233	ltpFR	16	3	0	TIMBER	1469	n/a	5	0	n/a	n/a	n/a	n/a	n/a
3196.276	n/a	RECOG_TARGET	1598138	n/a	LTP233	ltpFR	16	3	-1	MUG	930	1	5	-1	n/a	n/a	n/a	n/a	n/a
3196.73	n/a	RECOG_RESP	1598365	n/a	LTP233	ltpFR	16	3	-1	MUG	930	1	n/a	-1	n/a	n/a	n/a	n/a	n/a
3197.15	n/a	RECOG_CONF	1598575	n/a	LTP233	ltpFR	16	3	-1	MUG	930	n/a	5	-1	n/a	n/a	n/a	n/a	n/a
3198.82	n/a	RECOG_TARGET	1599410	n/a	LTP233	ltpFR	16	3	1	CHICKEN	297	1	5	1	n/a	n/a	n/a	n/a	n/a
3199.366	n/a	RECOG_RESP	1599683	n/a	LTP233	ltpFR	16	3	1	CHICKEN	297	1	n/a	1	n/a	n/a	n/a	n/a	n/a
3199.9	n/a	RECOG_CONF	1599950	n/a	LTP233	ltpFR	16	3	1	CHICKEN	297	n/a	5	1	n/a	n/a	n/a	n/a	n/a
3201.58	n/a	RECOG_TARGET	1600790	n/a	LTP233	ltpFR	16	3	0	CLOUD	328	1	5	0	n/a	n/a	n/a	n/a	n/a
3202.098	n/a	RECOG_RESP	1601049	n/a	LTP233	ltpFR	16	3	0	CLOUD	328	1	n/a	0	n/a	n/a	n/a	n/a	n/a
3202.602	n/a	RECOG_CONF	1601301	n/a	LTP233	ltpFR	16	3	0	CLOUD	328	n/a	5	0	n/a	n/a	n/a	n/a	n/a
3204.408	n/a	RECOG_TARGET	1602204	n/a	LTP233	ltpFR	16	3	-1	DUST	508	1	5	-1	n/a	n/a	n/a	n/a	n/a
3204.99	n/a	RECOG_RESP	1602495	n/a	LTP233	ltpFR	16	3	-1	DUST	508	1	n/a	-1	n/a	n/a	n/a	n/a	n/a
3205.464	n/a	RECOG_CONF	1602732	n/a	LTP233	ltpFR	16	3	-1	DUST	508	n/a	5	-1	n/a	n/a	n/a	n/a	n/a
3207.268	n/a	RECOG_TARGET	1603634	n/a	LTP233	ltpFR	16	3	1	RACCOON	1153	0	3	1	n/a	n/a	n/a	n/a	n/a
3208.078	n/a	RECOG_RESP	1604039	n/a	LTP233	ltpFR	16	3	1	RACCOON	1153	0	n/a	1	n/a	n/a	n/a	n/a	n/a
3208.682	n/a	RECOG_CONF	1604341	n/a	LTP233	ltpFR	16	3	1	RACCOON	1153	n/a	3	1	n/a	n/a	n/a	n/a	n/a
3210.192	n/a	RECOG_TARGET	1605096	n/a	LTP233	ltpFR	16	3	-1	SEA	1259	1	5	-1	n/a	n/a	n/a	n/a	n/a
3210.798	n/a	RECOG_RESP	1605399	n/a	LTP233	ltpFR	16	3	-1	SEA	1259	1	n/a	-1	n/a	n/a	n/a	n/a	n/a
3211.206	n/a	RECOG_CONF	1605603	n/a	LTP233	ltpFR	16	3	-1	SEA	1259	n/a	5	-1	n/a	n/a	n/a	n/a	n/a
3212.956	n/a	RECOG_TARGET	1606478	n/a	LTP233	ltpFR	16	3	0	DEPUTY	450	1	1	0	n/a	n/a	n/a	n/a	n/a
3213.9	n/a	RECOG_RESP_VV	1606950	n/a	LTP233	ltpFR	16	3	0	DEPUTY	450	1	n/a	0	n/a	n/a	n/a	n/a	n/a
3214.862	n/a	RECOG_RESP	1607431	n/a	LTP233	ltpFR	16	3	0	DEPUTY	450	1	n/a	0	n/a	n/a	n/a	n/a	n/a
3215.474	n/a	RECOG_CONF	1607737	n/a	LTP233	ltpFR	16	3	0	DEPUTY	450	n/a	1	0	n/a	n/a	n/a	n/a	n/a
3218.594	n/a	REC_START	1609297	n/a	LTP233	ltpFR	16	4	n/a	n/a	n/a	n/a	n/a	n/a	n/a	n/a	n/a	n/a	n/a
3218.646	n/a	RECOG_LURE	1609323	n/a	LTP233	ltpFR	16	4	n/a	BANDANNA	80	0	5	n/a	n/a	n/a	n/a	n/a	n/a
3219.182	n/a	RECOG_RESP_VV	1609591	n/a	LTP233	ltpFR	16	4	n/a	BANDANNA	80	1	n/a	n/a	n/a	n/a	n/a	n/a	n/a
3220.612	n/a	RECOG_RESP	1610306	n/a	LTP233	ltpFR	16	4	n/a	BANDANNA	80	0	n/a	n/a	n/a	n/a	n/a	n/a	n/a
3221.214	n/a	RECOG_CONF	1610607	n/a	LTP233	ltpFR	16	4	n/a	BANDANNA	80	n/a	5	n/a	n/a	n/a	n/a	n/a	n/a
3223.028	n/a	RECOG_LURE	1611514	n/a	LTP233	ltpFR	16	4	n/a	PEANUT	1032	0	5	n/a	n/a	n/a	n/a	n/a	n/a
3223.974	n/a	RECOG_RESP	1611987	n/a	LTP233	ltpFR	16	4	n/a	PEANUT	1032	0	n/a	n/a	n/a	n/a	n/a	n/a	n/a
3224.408	n/a	RECOG_CONF	1612204	n/a	LTP233	ltpFR	16	4	n/a	PEANUT	1032	n/a	5	n/a	n/a	n/a	n/a	n/a	n/a
3226.104	n/a	RECOG_TARGET	1613052	n/a	LTP233	ltpFR	16	4	0	DIAMOND	458	1	5	0	n/a	n/a	n/a	n/a	n/a
3226.762	n/a	RECOG_RESP	1613381	n/a	LTP233	ltpFR	16	4	0	DIAMOND	458	1	n/a	0	n/a	n/a	n/a	n/a	n/a
3227.2	n/a	RECOG_CONF	1613600	n/a	LTP233	ltpFR	16	4	0	DIAMOND	458	n/a	5	0	n/a	n/a	n/a	n/a	n/a
3228.868	n/a	RECOG_TARGET	1614434	n/a	LTP233	ltpFR	16	4	0	ARTERY	41	1	5	0	n/a	n/a	n/a	n/a	n/a
3229.462	n/a	RECOG_RESP	1614731	n/a	LTP233	ltpFR	16	4	0	ARTERY	41	1	n/a	0	n/a	n/a	n/a	n/a	n/a
3229.954	n/a	RECOG_CONF	1614977	n/a	LTP233	ltpFR	16	4	0	ARTERY	41	n/a	5	0	n/a	n/a	n/a	n/a	n/a
3231.678	n/a	RECOG_LURE	1615839	n/a	LTP233	ltpFR	16	4	n/a	MOTOR	922	0	3	n/a	n/a	n/a	n/a	n/a	n/a
3232.586	n/a	RECOG_RESP	1616293	n/a	LTP233	ltpFR	16	4	n/a	MOTOR	922	0	n/a	n/a	n/a	n/a	n/a	n/a	n/a
3233.296	n/a	RECOG_CONF	1616648	n/a	LTP233	ltpFR	16	4	n/a	MOTOR	922	n/a	3	n/a	n/a	n/a	n/a	n/a	n/a
3234.958	n/a	RECOG_LURE	1617479	n/a	LTP233	ltpFR	16	4	n/a	PRISONER	1128	0	2	n/a	n/a	n/a	n/a	n/a	n/a
3235.696	n/a	RECOG_RESP	1617848	n/a	LTP233	ltpFR	16	4	n/a	PRISONER	1128	0	n/a	n/a	n/a	n/a	n/a	n/a	n/a
3236.324	n/a	RECOG_CONF	1618162	n/a	LTP233	ltpFR	16	4	n/a	PRISONER	1128	n/a	2	n/a	n/a	n/a	n/a	n/a	n/a
3238.036	n/a	RECOG_LURE	1619018	n/a	LTP233	ltpFR	16	4	n/a	NET	946	0	5	n/a	n/a	n/a	n/a	n/a	n/a
3238.822	n/a	RECOG_RESP	1619411	n/a	LTP233	ltpFR	16	4	n/a	NET	946	0	n/a	n/a	n/a	n/a	n/a	n/a	n/a
3239.304	n/a	RECOG_CONF	1619652	n/a	LTP233	ltpFR	16	4	n/a	NET	946	n/a	5	n/a	n/a	n/a	n/a	n/a	n/a
3241.064	n/a	RECOG_TARGET	1620532	n/a	LTP233	ltpFR	16	4	1	ICE	730	1	5	0	n/a	n/a	n/a	n/a	n/a
3241.588	n/a	RECOG_RESP	1620794	n/a	LTP233	ltpFR	16	4	1	ICE	730	1	n/a	0	n/a	n/a	n/a	n/a	n/a
3241.974	n/a	RECOG_CONF	1620987	n/a	LTP233	ltpFR	16	4	1	ICE	730	n/a	5	0	n/a	n/a	n/a	n/a	n/a
3243.758	n/a	RECOG_TARGET	1621879	n/a	LTP233	ltpFR	16	4	1	ITEM	746	1	5	0	n/a	n/a	n/a	n/a	n/a
3244.188	n/a	RECOG_RESP	1622094	n/a	LTP233	ltpFR	16	4	1	ITEM	746	1	n/a	0	n/a	n/a	n/a	n/a	n/a
3244.642	n/a	RECOG_CONF	1622321	n/a	LTP233	ltpFR	16	4	1	ITEM	746	n/a	5	0	n/a	n/a	n/a	n/a	n/a
3246.498	n/a	RECOG_LURE	1623249	n/a	LTP233	ltpFR	16	4	n/a	COLONEL	348	0	5	n/a	n/a	n/a	n/a	n/a	n/a
3247.304	n/a	RECOG_RESP	1623652	n/a	LTP233	ltpFR	16	4	n/a	COLONEL	348	0	n/a	n/a	n/a	n/a	n/a	n/a	n/a
3247.764	n/a	RECOG_CONF	1623882	n/a	LTP233	ltpFR	16	4	n/a	COLONEL	348	n/a	5	n/a	n/a	n/a	n/a	n/a	n/a
3249.496	n/a	RECOG_TARGET	1624748	n/a	LTP233	ltpFR	16	4	0	CRYSTAL	418	1	5	0	n/a	n/a	n/a	n/a	n/a
3249.996	n/a	RECOG_RESP_VV	1624998	n/a	LTP233	ltpFR	16	4	0	CRYSTAL	418	0	n/a	0	n/a	n/a	n/a	n/a	n/a
3250.32	n/a	RECOG_RESP	1625160	n/a	LTP233	ltpFR	16	4	0	CRYSTAL	418	1	n/a	0	n/a	n/a	n/a	n/a	n/a
3250.808	n/a	RECOG_CONF	1625404	n/a	LTP233	ltpFR	16	4	0	CRYSTAL	418	n/a	5	0	n/a	n/a	n/a	n/a	n/a
3252.558	n/a	RECOG_LURE	1626279	n/a	LTP233	ltpFR	16	4	n/a	FRANCE	601	0	5	n/a	n/a	n/a	n/a	n/a	n/a
3253.432	n/a	RECOG_RESP	1626716	n/a	LTP233	ltpFR	16	4	n/a	FRANCE	601	0	n/a	n/a	n/a	n/a	n/a	n/a	n/a
3253.828	n/a	RECOG_CONF	1626914	n/a	LTP233	ltpFR	16	4	n/a	FRANCE	601	n/a	5	n/a	n/a	n/a	n/a	n/a	n/a
3255.62	n/a	RECOG_LURE	1627810	n/a	LTP233	ltpFR	16	4	n/a	DOOR	486	1	5	n/a	n/a	n/a	n/a	n/a	n/a
3256.18	n/a	RECOG_RESP	1628090	n/a	LTP233	ltpFR	16	4	n/a	DOOR	486	1	n/a	n/a	n/a	n/a	n/a	n/a	n/a
3256.638	n/a	RECOG_CONF	1628319	n/a	LTP233	ltpFR	16	4	n/a	DOOR	486	n/a	5	n/a	n/a	n/a	n/a	n/a	n/a
3258.494	n/a	RECOG_TARGET	1629247	n/a	LTP233	ltpFR	16	4	-1	COOKIE	374	1	5	-1	n/a	n/a	n/a	n/a	n/a
3258.994	n/a	RECOG_RESP	1629497	n/a	LTP233	ltpFR	16	4	-1	COOKIE	374	1	n/a	-1	n/a	n/a	n/a	n/a	n/a
3259.472	n/a	RECOG_CONF	1629736	n/a	LTP233	ltpFR	16	4	-1	COOKIE	374	n/a	5	-1	n/a	n/a	n/a	n/a	n/a
3261.254	n/a	RECOG_TARGET	1630627	n/a	LTP233	ltpFR	16	4	1	CHEST	295	1	5	0	n/a	n/a	n/a	n/a	n/a
3261.734	n/a	RECOG_RESP	1630867	n/a	LTP233	ltpFR	16	4	1	CHEST	295	1	n/a	0	n/a	n/a	n/a	n/a	n/a
3262.15	n/a	RECOG_CONF	1631075	n/a	LTP233	ltpFR	16	4	1	CHEST	295	n/a	5	0	n/a	n/a	n/a	n/a	n/a
3263.852	n/a	RECOG_TARGET	1631926	n/a	LTP233	ltpFR	16	4	0	FAIRY	549	1	5	0	n/a	n/a	n/a	n/a	n/a
3264.362	n/a	RECOG_RESP	1632181	n/a	LTP233	ltpFR	16	4	0	FAIRY	549	1	n/a	0	n/a	n/a	n/a	n/a	n/a
3264.742	n/a	RECOG_CONF	1632371	n/a	LTP233	ltpFR	16	4	0	FAIRY	549	n/a	5	0	n/a	n/a	n/a	n/a	n/a
3266.378	n/a	RECOG_LURE	1633189	n/a	LTP233	ltpFR	16	4	n/a	COLOGNE	347	0	5	n/a	n/a	n/a	n/a	n/a	n/a
3267.084	n/a	RECOG_RESP	1633542	n/a	LTP233	ltpFR	16	4	n/a	COLOGNE	347	0	n/a	n/a	n/a	n/a	n/a	n/a	n/a
3267.476	n/a	RECOG_CONF	1633738	n/a	LTP233	ltpFR	16	4	n/a	COLOGNE	347	n/a	5	n/a	n/a	n/a	n/a	n/a	n/a
3269.322	n/a	RECOG_TARGET	1634661	n/a	LTP233	ltpFR	16	4	-1	SIRLOIN	1311	1	5	-1	n/a	n/a	n/a	n/a	n/a
3270.0	n/a	RECOG_RESP	1635000	n/a	LTP233	ltpFR	16	4	-1	SIRLOIN	1311	1	n/a	-1	n/a	n/a	n/a	n/a	n/a
3270.384	n/a	RECOG_CONF	1635192	n/a	LTP233	ltpFR	16	4	-1	SIRLOIN	1311	n/a	5	-1	n/a	n/a	n/a	n/a	n/a
3272.25	n/a	RECOG_TARGET	1636125	n/a	LTP233	ltpFR	16	4	0	DRUM	502	1	5	1	n/a	n/a	n/a	n/a	n/a
3272.734	n/a	RECOG_RESP	1636367	n/a	LTP233	ltpFR	16	4	0	DRUM	502	1	n/a	1	n/a	n/a	n/a	n/a	n/a
3273.174	n/a	RECOG_CONF	1636587	n/a	LTP233	ltpFR	16	4	0	DRUM	502	n/a	5	1	n/a	n/a	n/a	n/a	n/a
3275.024	n/a	RECOG_LURE	1637512	n/a	LTP233	ltpFR	16	4	n/a	CITRUS	313	0	1	n/a	n/a	n/a	n/a	n/a	n/a
3275.536	n/a	RECOG_RESP_VV	1637768	n/a	LTP233	ltpFR	16	4	n/a	CITRUS	313	1	n/a	n/a	n/a	n/a	n/a	n/a	n/a
3276.602	n/a	RECOG_RESP	1638301	n/a	LTP233	ltpFR	16	4	n/a	CITRUS	313	0	n/a	n/a	n/a	n/a	n/a	n/a	n/a
3277.268	n/a	RECOG_CONF	1638634	n/a	LTP233	ltpFR	16	4	n/a	CITRUS	313	n/a	1	n/a	n/a	n/a	n/a	n/a	n/a
3280.602	n/a	REC_START	1640301	n/a	LTP233	ltpFR	16	5	n/a	n/a	n/a	n/a	n/a	n/a	n/a	n/a	n/a	n/a	n/a
3280.648	n/a	RECOG_TARGET	1640324	n/a	LTP233	ltpFR	16	5	1	ANIMAL	23	1	5	1	n/a	n/a	n/a	n/a	n/a
3281.266	n/a	RECOG_RESP	1640633	n/a	LTP233	ltpFR	16	5	1	ANIMAL	23	1	n/a	1	n/a	n/a	n/a	n/a	n/a
3281.722	n/a	RECOG_CONF	1640861	n/a	LTP233	ltpFR	16	5	1	ANIMAL	23	n/a	5	1	n/a	n/a	n/a	n/a	n/a
3283.326	n/a	RECOG_TARGET	1641663	n/a	LTP233	ltpFR	16	5	1	WRITER	1627	1	5	1	n/a	n/a	n/a	n/a	n/a
3283.88	n/a	RECOG_RESP	1641940	n/a	LTP233	ltpFR	16	5	1	WRITER	1627	1	n/a	1	n/a	n/a	n/a	n/a	n/a
3284.306	n/a	RECOG_CONF	1642153	n/a	LTP233	ltpFR	16	5	1	WRITER	1627	n/a	5	1	n/a	n/a	n/a	n/a	n/a
3285.986	n/a	RECOG_LURE	1642993	n/a	LTP233	ltpFR	16	5	n/a	ALMOND	18	0	1	n/a	n/a	n/a	n/a	n/a	n/a
3286.376	n/a	RECOG_RESP_VV	1643188	n/a	LTP233	ltpFR	16	5	n/a	ALMOND	18	1	n/a	n/a	n/a	n/a	n/a	n/a	n/a
3286.962	n/a	RECOG_RESP	1643481	n/a	LTP233	ltpFR	16	5	n/a	ALMOND	18	0	n/a	n/a	n/a	n/a	n/a	n/a	n/a
3287.726	n/a	RECOG_CONF	1643863	n/a	LTP233	ltpFR	16	5	n/a	ALMOND	18	n/a	1	n/a	n/a	n/a	n/a	n/a	n/a
3289.348	n/a	RECOG_TARGET	1644674	n/a	LTP233	ltpFR	16	5	1	PASSENGER	1020	1	3	1	n/a	n/a	n/a	n/a	n/a
3290.034	n/a	RECOG_RESP	1645017	n/a	LTP233	ltpFR	16	5	1	PASSENGER	1020	1	n/a	1	n/a	n/a	n/a	n/a	n/a
3290.58	n/a	RECOG_CONF	1645290	n/a	LTP233	ltpFR	16	5	1	PASSENGER	1020	n/a	3	1	n/a	n/a	n/a	n/a	n/a
3292.126	n/a	RECOG_TARGET	1646063	n/a	LTP233	ltpFR	16	5	0	PAGE	1001	1	1	0	n/a	n/a	n/a	n/a	n/a
3292.766	n/a	RECOG_RESP	1646383	n/a	LTP233	ltpFR	16	5	0	PAGE	1001	1	n/a	0	n/a	n/a	n/a	n/a	n/a
3293.32	n/a	RECOG_CONF	1646660	n/a	LTP233	ltpFR	16	5	0	PAGE	1001	n/a	1	0	n/a	n/a	n/a	n/a	n/a
3295.02	n/a	RECOG_TARGET	1647510	n/a	LTP233	ltpFR	16	5	1	STOVE	1388	1	1	1	n/a	n/a	n/a	n/a	n/a
3295.866	n/a	RECOG_RESP	1647933	n/a	LTP233	ltpFR	16	5	1	STOVE	1388	1	n/a	1	n/a	n/a	n/a	n/a	n/a
3296.436	n/a	RECOG_CONF	1648218	n/a	LTP233	ltpFR	16	5	1	STOVE	1388	n/a	1	1	n/a	n/a	n/a	n/a	n/a
3298.082	n/a	RECOG_TARGET	1649041	n/a	LTP233	ltpFR	16	5	1	FLUTE	585	1	5	0	n/a	n/a	n/a	n/a	n/a
3298.668	n/a	RECOG_RESP	1649334	n/a	LTP233	ltpFR	16	5	1	FLUTE	585	1	n/a	0	n/a	n/a	n/a	n/a	n/a
3299.086	n/a	RECOG_CONF	1649543	n/a	LTP233	ltpFR	16	5	1	FLUTE	585	n/a	5	0	n/a	n/a	n/a	n/a	n/a
3300.926	n/a	RECOG_TARGET	1650463	n/a	LTP233	ltpFR	16	5	1	DRAWER	493	1	5	0	n/a	n/a	n/a	n/a	n/a
3301.5	n/a	RECOG_RESP	1650750	n/a	LTP233	ltpFR	16	5	1	DRAWER	493	1	n/a	0	n/a	n/a	n/a	n/a	n/a
3301.908	n/a	RECOG_CONF	1650954	n/a	LTP233	ltpFR	16	5	1	DRAWER	493	n/a	5	0	n/a	n/a	n/a	n/a	n/a
3303.486	n/a	RECOG_LURE	1651743	n/a	LTP233	ltpFR	16	5	n/a	GLACIER	638	0	3	n/a	n/a	n/a	n/a	n/a	n/a
3304.228	n/a	RECOG_RESP	1652114	n/a	LTP233	ltpFR	16	5	n/a	GLACIER	638	0	n/a	n/a	n/a	n/a	n/a	n/a	n/a
3304.788	n/a	RECOG_CONF	1652394	n/a	LTP233	ltpFR	16	5	n/a	GLACIER	638	n/a	3	n/a	n/a	n/a	n/a	n/a	n/a
3306.56	n/a	RECOG_TARGET	1653280	n/a	LTP233	ltpFR	16	5	0	VEST	1559	1	5	0	n/a	n/a	n/a	n/a	n/a
3307.066	n/a	RECOG_RESP	1653533	n/a	LTP233	ltpFR	16	5	0	VEST	1559	1	n/a	0	n/a	n/a	n/a	n/a	n/a
3307.552	n/a	RECOG_CONF	1653776	n/a	LTP233	ltpFR	16	5	0	VEST	1559	n/a	5	0	n/a	n/a	n/a	n/a	n/a
3309.308	n/a	RECOG_TARGET	1654654	n/a	LTP233	ltpFR	16	5	-1	CARNIVAL	245	1	1	-1	n/a	n/a	n/a	n/a	n/a
3310.772	n/a	RECOG_RESP	1655386	n/a	LTP233	ltpFR	16	5	-1	CARNIVAL	245	1	n/a	-1	n/a	n/a	n/a	n/a	n/a
3311.488	n/a	RECOG_CONF	1655744	n/a	LTP233	ltpFR	16	5	-1	CARNIVAL	245	n/a	1	-1	n/a	n/a	n/a	n/a	n/a
