mstime	trial_type	stim_file	subject	experiment	session	trial	item_name	item_num	list	answer	test_x	test_y	test_z
0	SESS_START	n/a	LTP269	ltpFR2	14	n/a	n/a	n/a	n/a	n/a	0	0	0
17351	START	n/a	LTP269	ltpFR2	14	n/a	n/a	n/a	-1	n/a	n/a	n/a	n/a
17365	PROB	n/a	LTP269	ltpFR2	14	n/a	n/a	n/a	-1	11	1	7	3
18583	PROB	n/a	LTP269	ltpFR2	14	n/a	n/a	n/a	-1	13	4	1	8
19984	PROB	n/a	LTP269	ltpFR2	14	n/a	n/a	n/a	-1	13	2	7	4
21536	PROB	n/a	LTP269	ltpFR2	14	n/a	n/a	n/a	-1	20	8	3	9
23304	PROB	n/a	LTP269	ltpFR2	14	n/a	n/a	n/a	-1	15	3	6	6
24605	PROB	n/a	LTP269	ltpFR2	14	n/a	n/a	n/a	-1	15	1	8	6
25689	PROB	n/a	LTP269	ltpFR2	14	n/a	n/a	n/a	-1	19	3	7	9
26990	PROB	n/a	LTP269	ltpFR2	14	n/a	n/a	n/a	-1	16	7	1	8
28402	STOP	n/a	LTP269	ltpFR2	14	n/a	n/a	n/a	-1	n/a	n/a	n/a	n/a
68677	WORD	wordpools/wasnorm_wordpool_576.txt	LTP269	ltpFR2	14	1	GARLIC	624	n/a	n/a	0	0	0
71230	WORD	wordpools/wasnorm_wordpool_576.txt	LTP269	ltpFR2	14	1	ROD	1203	n/a	n/a	0	0	0
73998	WORD	wordpools/wasnorm_wordpool_576.txt	LTP269	ltpFR2	14	1	RELISH	1183	n/a	n/a	0	0	0
76750	WORD	wordpools/wasnorm_wordpool_576.txt	LTP269	ltpFR2	14	1	TRUCK	1512	n/a	n/a	0	0	0
79436	WORD	wordpools/wasnorm_wordpool_576.txt	LTP269	ltpFR2	14	1	STICKER	1382	n/a	n/a	0	0	0
82072	WORD	wordpools/wasnorm_wordpool_576.txt	LTP269	ltpFR2	14	1	BEEF	113	n/a	n/a	0	0	0
84657	WORD	wordpools/wasnorm_wordpool_576.txt	LTP269	ltpFR2	14	1	COUNTY	389	n/a	n/a	0	0	0
87443	WORD	wordpools/wasnorm_wordpool_576.txt	LTP269	ltpFR2	14	1	EMPIRE	530	n/a	n/a	0	0	0
90162	WORD	wordpools/wasnorm_wordpool_576.txt	LTP269	ltpFR2	14	1	TILE	1468	n/a	n/a	0	0	0
92781	WORD	wordpools/wasnorm_wordpool_576.txt	LTP269	ltpFR2	14	1	ACTRESS	6	n/a	n/a	0	0	0
95500	WORD	wordpools/wasnorm_wordpool_576.txt	LTP269	ltpFR2	14	1	JUGGLER	763	n/a	n/a	0	0	0
98019	WORD	wordpools/wasnorm_wordpool_576.txt	LTP269	ltpFR2	14	1	WINDOW	1611	n/a	n/a	0	0	0
100454	WORD	wordpools/wasnorm_wordpool_576.txt	LTP269	ltpFR2	14	1	WASP	1593	n/a	n/a	0	0	0
103208	WORD	wordpools/wasnorm_wordpool_576.txt	LTP269	ltpFR2	14	1	CHAPEL	280	n/a	n/a	0	0	0
105809	WORD	wordpools/wasnorm_wordpool_576.txt	LTP269	ltpFR2	14	1	POPCORN	1104	n/a	n/a	0	0	0
108545	WORD	wordpools/wasnorm_wordpool_576.txt	LTP269	ltpFR2	14	1	BLUEPRINT	142	n/a	n/a	0	0	0
110997	WORD	wordpools/wasnorm_wordpool_576.txt	LTP269	ltpFR2	14	1	SPIDER	1351	n/a	n/a	0	0	0
113632	WORD	wordpools/wasnorm_wordpool_576.txt	LTP269	ltpFR2	14	1	PICTURE	1061	n/a	n/a	0	0	0
116269	WORD	wordpools/wasnorm_wordpool_576.txt	LTP269	ltpFR2	14	1	PORTRAIT	1111	n/a	n/a	0	0	0
119054	WORD	wordpools/wasnorm_wordpool_576.txt	LTP269	ltpFR2	14	1	BUTCHER	203	n/a	n/a	0	0	0
121656	WORD	wordpools/wasnorm_wordpool_576.txt	LTP269	ltpFR2	14	1	GRAVE	658	n/a	n/a	0	0	0
124226	WORD	wordpools/wasnorm_wordpool_576.txt	LTP269	ltpFR2	14	1	SEAGULL	1261	n/a	n/a	0	0	0
126911	WORD	wordpools/wasnorm_wordpool_576.txt	LTP269	ltpFR2	14	1	HANDBAG	684	n/a	n/a	0	0	0
129363	WORD	wordpools/wasnorm_wordpool_576.txt	LTP269	ltpFR2	14	1	KNAPSACK	783	n/a	n/a	0	0	0
130981	START	n/a	LTP269	ltpFR2	14	n/a	n/a	n/a	1	n/a	n/a	n/a	n/a
132018	DISTRACTOR	n/a	LTP269	ltpFR2	14	1	n/a	n/a	n/a	n/a	0	0	0
132032	PROB	n/a	LTP269	ltpFR2	14	n/a	n/a	n/a	1	11	6	4	1
133217	PROB	n/a	LTP269	ltpFR2	14	n/a	n/a	n/a	1	22	6	7	9
135151	PROB	n/a	LTP269	ltpFR2	14	n/a	n/a	n/a	1	13	5	3	3
137003	PROB	n/a	LTP269	ltpFR2	14	n/a	n/a	n/a	1	14	4	8	2
140173	PROB	n/a	LTP269	ltpFR2	14	n/a	n/a	n/a	1	12	2	8	2
141157	PROB	n/a	LTP269	ltpFR2	14	n/a	n/a	n/a	1	15	6	1	8
142225	PROB	n/a	LTP269	ltpFR2	14	n/a	n/a	n/a	1	15	5	7	3
143659	PROB	n/a	LTP269	ltpFR2	14	n/a	n/a	n/a	1	19	8	6	5
145427	PROB	n/a	LTP269	ltpFR2	14	n/a	n/a	n/a	1	17	9	2	6
149464	PROB	n/a	LTP269	ltpFR2	14	n/a	n/a	n/a	1	6	2	2	2
150715	PROB	n/a	LTP269	ltpFR2	14	n/a	n/a	n/a	1	16	2	7	7
152133	PROB	n/a	LTP269	ltpFR2	14	n/a	n/a	n/a	1	11	9	1	1
154981	STOP	n/a	LTP269	ltpFR2	14	n/a	n/a	n/a	1	n/a	n/a	n/a	n/a
156921	REC_START	n/a	LTP269	ltpFR2	14	1	n/a	n/a	n/a	n/a	0	0	0
160163	REC_WORD	wordpools/wasnorm_wordpool_576.txt	LTP269	ltpFR2	14	1	GARLIC	624	n/a	n/a	0	0	0
160767	REC_WORD	wordpools/wasnorm_wordpool_576.txt	LTP269	ltpFR2	14	1	ROD	1203	n/a	n/a	0	0	0
161624	REC_WORD	wordpools/wasnorm_wordpool_576.txt	LTP269	ltpFR2	14	1	RELISH	1183	n/a	n/a	0	0	0
163257	REC_WORD	wordpools/wasnorm_wordpool_576.txt	LTP269	ltpFR2	14	1	COUNTY	389	n/a	n/a	0	0	0
163795	REC_WORD	wordpools/wasnorm_wordpool_576.txt	LTP269	ltpFR2	14	1	TRUCK	1512	n/a	n/a	0	0	0
164709	REC_WORD	wordpools/wasnorm_wordpool_576.txt	LTP269	ltpFR2	14	1	STICKER	1382	n/a	n/a	0	0	0
165446	REC_WORD	wordpools/wasnorm_wordpool_576.txt	LTP269	ltpFR2	14	1	KNAPSACK	783	n/a	n/a	0	0	0
166712	REC_WORD	wordpools/wasnorm_wordpool_576.txt	LTP269	ltpFR2	14	1	HANDBAG	684	n/a	n/a	0	0	0
167982	REC_WORD	wordpools/wasnorm_wordpool_576.txt	LTP269	ltpFR2	14	1	BEEF	113	n/a	n/a	0	0	0
170026	REC_WORD	wordpools/wasnorm_wordpool_576.txt	LTP269	ltpFR2	14	1	CHAPEL	280	n/a	n/a	0	0	0
170961	REC_WORD	wordpools/wasnorm_wordpool_576.txt	LTP269	ltpFR2	14	1	BUTCHER	203	n/a	n/a	0	0	0
176781	REC_WORD	wordpools/wasnorm_wordpool_576.txt	LTP269	ltpFR2	14	1	BLUEPRINT	142	n/a	n/a	0	0	0
177433	REC_WORD	wordpools/wasnorm_wordpool_576.txt	LTP269	ltpFR2	14	1	SPIDER	1351	n/a	n/a	0	0	0
178276	REC_WORD	wordpools/wasnorm_wordpool_576.txt	LTP269	ltpFR2	14	1	PICTURE	1061	n/a	n/a	0	0	0
247433	DISTRACTOR	n/a	LTP269	ltpFR2	14	2	n/a	n/a	n/a	n/a	0	0	0
247433	START	n/a	LTP269	ltpFR2	14	n/a	n/a	n/a	2	n/a	n/a	n/a	n/a
247449	PROB	n/a	LTP269	ltpFR2	14	n/a	n/a	n/a	2	16	7	7	2
248917	PROB	n/a	LTP269	ltpFR2	14	n/a	n/a	n/a	2	16	3	4	9
250752	PROB	n/a	LTP269	ltpFR2	14	n/a	n/a	n/a	2	5	1	1	3
252137	PROB	n/a	LTP269	ltpFR2	14	n/a	n/a	n/a	2	19	5	8	6
254322	PROB	n/a	LTP269	ltpFR2	14	n/a	n/a	n/a	2	13	2	6	5
255790	PROB	n/a	LTP269	ltpFR2	14	n/a	n/a	n/a	2	16	1	8	7
257541	PROB	n/a	LTP269	ltpFR2	14	n/a	n/a	n/a	2	20	7	4	9
259760	PROB	n/a	LTP269	ltpFR2	14	n/a	n/a	n/a	2	14	4	9	1
261078	PROB	n/a	LTP269	ltpFR2	14	n/a	n/a	n/a	2	19	4	7	8
262562	PROB	n/a	LTP269	ltpFR2	14	n/a	n/a	n/a	2	16	4	7	5
264397	PROB	n/a	LTP269	ltpFR2	14	n/a	n/a	n/a	2	16	7	8	1
265682	PROB	n/a	LTP269	ltpFR2	14	n/a	n/a	n/a	2	13	4	2	7
267917	PROB	n/a	LTP269	ltpFR2	14	n/a	n/a	n/a	2	8	2	4	2
269402	PROB	n/a	LTP269	ltpFR2	14	n/a	n/a	n/a	2	11	3	5	3
271075	STOP	n/a	LTP269	ltpFR2	14	n/a	n/a	n/a	2	n/a	n/a	n/a	n/a
272554	WORD	wordpools/wasnorm_wordpool_576.txt	LTP269	ltpFR2	14	2	ANKLE	24	n/a	n/a	0	0	0
275090	WORD	wordpools/wasnorm_wordpool_576.txt	LTP269	ltpFR2	14	2	GAZELLE	628	n/a	n/a	0	0	0
277542	WORD	wordpools/wasnorm_wordpool_576.txt	LTP269	ltpFR2	14	2	ROBIN	1199	n/a	n/a	0	0	0
280295	WORD	wordpools/wasnorm_wordpool_576.txt	LTP269	ltpFR2	14	2	CHEST	295	n/a	n/a	0	0	0
282847	WORD	wordpools/wasnorm_wordpool_576.txt	LTP269	ltpFR2	14	2	PLUTO	1092	n/a	n/a	0	0	0
285482	WORD	wordpools/wasnorm_wordpool_576.txt	LTP269	ltpFR2	14	2	CORAL	378	n/a	n/a	0	0	0
288302	WORD	wordpools/wasnorm_wordpool_576.txt	LTP269	ltpFR2	14	2	HIGHWAY	707	n/a	n/a	0	0	0
291087	WORD	wordpools/wasnorm_wordpool_576.txt	LTP269	ltpFR2	14	2	PATROL	1027	n/a	n/a	0	0	0
293740	WORD	wordpools/wasnorm_wordpool_576.txt	LTP269	ltpFR2	14	2	MILK	895	n/a	n/a	0	0	0
296542	WORD	wordpools/wasnorm_wordpool_576.txt	LTP269	ltpFR2	14	2	GALLON	618	n/a	n/a	0	0	0
299028	WORD	wordpools/wasnorm_wordpool_576.txt	LTP269	ltpFR2	14	2	GRAVEL	659	n/a	n/a	0	0	0
301546	WORD	wordpools/wasnorm_wordpool_576.txt	LTP269	ltpFR2	14	2	BATHTUB	100	n/a	n/a	0	0	0
304015	WORD	wordpools/wasnorm_wordpool_576.txt	LTP269	ltpFR2	14	2	PEPPER	1047	n/a	n/a	0	0	0
306734	WORD	wordpools/wasnorm_wordpool_576.txt	LTP269	ltpFR2	14	2	OUTFIT	988	n/a	n/a	0	0	0
309271	WORD	wordpools/wasnorm_wordpool_576.txt	LTP269	ltpFR2	14	2	PUDDLE	1140	n/a	n/a	0	0	0
312022	WORD	wordpools/wasnorm_wordpool_576.txt	LTP269	ltpFR2	14	2	EYELASH	546	n/a	n/a	0	0	0
314624	WORD	wordpools/wasnorm_wordpool_576.txt	LTP269	ltpFR2	14	2	CRICKET	408	n/a	n/a	0	0	0
317127	WORD	wordpools/wasnorm_wordpool_576.txt	LTP269	ltpFR2	14	2	DANDRUFF	439	n/a	n/a	0	0	0
319829	WORD	wordpools/wasnorm_wordpool_576.txt	LTP269	ltpFR2	14	2	PANTHER	1009	n/a	n/a	0	0	0
322414	WORD	wordpools/wasnorm_wordpool_576.txt	LTP269	ltpFR2	14	2	PRIMATE	1123	n/a	n/a	0	0	0
324867	WORD	wordpools/wasnorm_wordpool_576.txt	LTP269	ltpFR2	14	2	FOOT	590	n/a	n/a	0	0	0
327319	WORD	wordpools/wasnorm_wordpool_576.txt	LTP269	ltpFR2	14	2	LIZARD	834	n/a	n/a	0	0	0
330038	WORD	wordpools/wasnorm_wordpool_576.txt	LTP269	ltpFR2	14	2	HEADBAND	696	n/a	n/a	0	0	0
332623	WORD	wordpools/wasnorm_wordpool_576.txt	LTP269	ltpFR2	14	2	FOREHEAD	592	n/a	n/a	0	0	0
334243	START	n/a	LTP269	ltpFR2	14	n/a	n/a	n/a	3	n/a	n/a	n/a	n/a
335171	DISTRACTOR	n/a	LTP269	ltpFR2	14	2	n/a	n/a	n/a	n/a	0	0	0
335193	PROB	n/a	LTP269	ltpFR2	14	n/a	n/a	n/a	3	12	1	4	7
336527	PROB	n/a	LTP269	ltpFR2	14	n/a	n/a	n/a	3	8	2	2	4
337628	PROB	n/a	LTP269	ltpFR2	14	n/a	n/a	n/a	3	11	1	9	1
339214	PROB	n/a	LTP269	ltpFR2	14	n/a	n/a	n/a	3	10	3	7	2
340747	PROB	n/a	LTP269	ltpFR2	14	n/a	n/a	n/a	3	16	3	6	7
343033	PROB	n/a	LTP269	ltpFR2	14	n/a	n/a	n/a	3	16	8	3	5
344350	PROB	n/a	LTP269	ltpFR2	14	n/a	n/a	n/a	3	16	8	3	5
345118	PROB	n/a	LTP269	ltpFR2	14	n/a	n/a	n/a	3	23	8	7	8
347320	PROB	n/a	LTP269	ltpFR2	14	n/a	n/a	n/a	3	12	4	6	2
348571	PROB	n/a	LTP269	ltpFR2	14	n/a	n/a	n/a	3	21	6	6	9
350223	PROB	n/a	LTP269	ltpFR2	14	n/a	n/a	n/a	3	20	5	6	9
352225	PROB	n/a	LTP269	ltpFR2	14	n/a	n/a	n/a	3	13	8	1	4
353358	PROB	n/a	LTP269	ltpFR2	14	n/a	n/a	n/a	3	20	7	8	5
354838	PROB	n/a	LTP269	ltpFR2	14	n/a	n/a	n/a	3	17	6	3	8
356783	STOP	n/a	LTP269	ltpFR2	14	n/a	n/a	n/a	3	n/a	n/a	n/a	n/a
360041	REC_START	n/a	LTP269	ltpFR2	14	2	n/a	n/a	n/a	n/a	0	0	0
363856	REC_WORD	wordpools/wasnorm_wordpool_576.txt	LTP269	ltpFR2	14	2	PLUTO	1092	n/a	n/a	0	0	0
367702	REC_WORD	wordpools/wasnorm_wordpool_576.txt	LTP269	ltpFR2	14	2	CHEST	295	n/a	n/a	0	0	0
370069	REC_WORD	wordpools/wasnorm_wordpool_576.txt	LTP269	ltpFR2	14	2	FOREHEAD	592	n/a	n/a	0	0	0
371637	REC_WORD	wordpools/wasnorm_wordpool_576.txt	LTP269	ltpFR2	14	2	HEADBAND	696	n/a	n/a	0	0	0
373362	REC_WORD	wordpools/wasnorm_wordpool_576.txt	LTP269	ltpFR2	14	2	HIGHWAY	707	n/a	n/a	0	0	0
374147	REC_WORD	wordpools/wasnorm_wordpool_576.txt	LTP269	ltpFR2	14	2	PATROL	1027	n/a	n/a	0	0	0
378139	REC_WORD	wordpools/wasnorm_wordpool_576.txt	LTP269	ltpFR2	14	2	GRAVEL	659	n/a	n/a	0	0	0
379684	REC_WORD	wordpools/wasnorm_wordpool_576.txt	LTP269	ltpFR2	14	2	GALLON	618	n/a	n/a	0	0	0
380350	REC_WORD	wordpools/wasnorm_wordpool_576.txt	LTP269	ltpFR2	14	2	MILK	895	n/a	n/a	0	0	0
383611	REC_WORD	wordpools/wasnorm_wordpool_576.txt	LTP269	ltpFR2	14	2	CORAL	378	n/a	n/a	0	0	0
450498	WORD	wordpools/wasnorm_wordpool_576.txt	LTP269	ltpFR2	14	3	GHETTO	633	n/a	n/a	0	0	0
452982	WORD	wordpools/wasnorm_wordpool_576.txt	LTP269	ltpFR2	14	3	LIPSTICK	829	n/a	n/a	0	0	0
455600	WORD	wordpools/wasnorm_wordpool_576.txt	LTP269	ltpFR2	14	3	CLIMBER	323	n/a	n/a	0	0	0
458086	WORD	wordpools/wasnorm_wordpool_576.txt	LTP269	ltpFR2	14	3	CROWN	415	n/a	n/a	0	0	0
460571	WORD	wordpools/wasnorm_wordpool_576.txt	LTP269	ltpFR2	14	3	BLENDER	136	n/a	n/a	0	0	0
463356	WORD	wordpools/wasnorm_wordpool_576.txt	LTP269	ltpFR2	14	3	MUMMY	932	n/a	n/a	0	0	0
465926	WORD	wordpools/wasnorm_wordpool_576.txt	LTP269	ltpFR2	14	3	DAUGHTER	442	n/a	n/a	0	0	0
468362	WORD	wordpools/wasnorm_wordpool_576.txt	LTP269	ltpFR2	14	3	CASKET	255	n/a	n/a	0	0	0
471047	WORD	wordpools/wasnorm_wordpool_576.txt	LTP269	ltpFR2	14	3	SUMMIT	1405	n/a	n/a	0	0	0
473566	WORD	wordpools/wasnorm_wordpool_576.txt	LTP269	ltpFR2	14	3	AIRPORT	13	n/a	n/a	0	0	0
476335	WORD	wordpools/wasnorm_wordpool_576.txt	LTP269	ltpFR2	14	3	GREASE	660	n/a	n/a	0	0	0
479088	WORD	wordpools/wasnorm_wordpool_576.txt	LTP269	ltpFR2	14	3	SCARECROW	1245	n/a	n/a	0	0	0
481856	WORD	wordpools/wasnorm_wordpool_576.txt	LTP269	ltpFR2	14	3	NEUTRON	947	n/a	n/a	0	0	0
484374	WORD	wordpools/wasnorm_wordpool_576.txt	LTP269	ltpFR2	14	3	BANJO	82	n/a	n/a	0	0	0
486894	WORD	wordpools/wasnorm_wordpool_576.txt	LTP269	ltpFR2	14	3	OUTDOORS	987	n/a	n/a	0	0	0
489329	WORD	wordpools/wasnorm_wordpool_576.txt	LTP269	ltpFR2	14	3	PASTRY	1022	n/a	n/a	0	0	0
491915	WORD	wordpools/wasnorm_wordpool_576.txt	LTP269	ltpFR2	14	3	ICING	732	n/a	n/a	0	0	0
494567	WORD	wordpools/wasnorm_wordpool_576.txt	LTP269	ltpFR2	14	3	TOMBSTONE	1478	n/a	n/a	0	0	0
497352	WORD	wordpools/wasnorm_wordpool_576.txt	LTP269	ltpFR2	14	3	MASK	876	n/a	n/a	0	0	0
499789	WORD	wordpools/wasnorm_wordpool_576.txt	LTP269	ltpFR2	14	3	APRON	35	n/a	n/a	0	0	0
502274	WORD	wordpools/wasnorm_wordpool_576.txt	LTP269	ltpFR2	14	3	PREACHER	1119	n/a	n/a	0	0	0
504775	WORD	wordpools/wasnorm_wordpool_576.txt	LTP269	ltpFR2	14	3	FRAME	600	n/a	n/a	0	0	0
507312	WORD	wordpools/wasnorm_wordpool_576.txt	LTP269	ltpFR2	14	3	RECORD	1176	n/a	n/a	0	0	0
509995	WORD	wordpools/wasnorm_wordpool_576.txt	LTP269	ltpFR2	14	3	TERMITE	1451	n/a	n/a	0	0	0
511600	START	n/a	LTP269	ltpFR2	14	n/a	n/a	n/a	4	n/a	n/a	n/a	n/a
512417	DISTRACTOR	n/a	LTP269	ltpFR2	14	3	n/a	n/a	n/a	n/a	0	0	0
512430	PROB	n/a	LTP269	ltpFR2	14	n/a	n/a	n/a	4	12	5	2	5
513747	PROB	n/a	LTP269	ltpFR2	14	n/a	n/a	n/a	4	11	1	7	3
514883	PROB	n/a	LTP269	ltpFR2	14	n/a	n/a	n/a	4	9	1	3	5
516100	PROB	n/a	LTP269	ltpFR2	14	n/a	n/a	n/a	4	8	3	1	4
517316	PROB	n/a	LTP269	ltpFR2	14	n/a	n/a	n/a	4	13	5	1	7
518551	PROB	n/a	LTP269	ltpFR2	14	n/a	n/a	n/a	4	22	9	5	8
520086	PROB	n/a	LTP269	ltpFR2	14	n/a	n/a	n/a	4	16	9	1	6
521821	PROB	n/a	LTP269	ltpFR2	14	n/a	n/a	n/a	4	20	8	6	7
523538	PROB	n/a	LTP269	ltpFR2	14	n/a	n/a	n/a	4	16	8	2	6
525556	PROB	n/a	LTP269	ltpFR2	14	n/a	n/a	n/a	4	12	5	2	5
526641	PROB	n/a	LTP269	ltpFR2	14	n/a	n/a	n/a	4	15	9	2	4
528809	PROB	n/a	LTP269	ltpFR2	14	n/a	n/a	n/a	4	15	2	9	4
530045	PROB	n/a	LTP269	ltpFR2	14	n/a	n/a	n/a	4	18	9	1	8
531344	PROB	n/a	LTP269	ltpFR2	14	n/a	n/a	n/a	4	19	8	2	9
532629	PROB	n/a	LTP269	ltpFR2	14	n/a	n/a	n/a	4	21	8	7	6
534478	STOP	n/a	LTP269	ltpFR2	14	n/a	n/a	n/a	4	n/a	n/a	n/a	n/a
537367	REC_START	n/a	LTP269	ltpFR2	14	3	n/a	n/a	n/a	n/a	0	0	0
538580	REC_WORD	wordpools/wasnorm_wordpool_576.txt	LTP269	ltpFR2	14	3	GHETTO	633	n/a	n/a	0	0	0
539051	REC_WORD	wordpools/wasnorm_wordpool_576.txt	LTP269	ltpFR2	14	3	LIPSTICK	829	n/a	n/a	0	0	0
540070	REC_WORD	wordpools/wasnorm_wordpool_576.txt	LTP269	ltpFR2	14	3	CROWN	415	n/a	n/a	0	0	0
540686	REC_WORD	wordpools/wasnorm_wordpool_576.txt	LTP269	ltpFR2	14	3	CLIMBER	323	n/a	n/a	0	0	0
541213	REC_WORD	wordpools/wasnorm_wordpool_576.txt	LTP269	ltpFR2	14	3	AIRPORT	13	n/a	n/a	0	0	0
542041	REC_WORD	wordpools/wasnorm_wordpool_576.txt	LTP269	ltpFR2	14	3	SUMMIT	1405	n/a	n/a	0	0	0
543719	REC_WORD	wordpools/wasnorm_wordpool_576.txt	LTP269	ltpFR2	14	3	GREASE	660	n/a	n/a	0	0	0
544108	REC_WORD	wordpools/wasnorm_wordpool_576.txt	LTP269	ltpFR2	14	3	APRON	35	n/a	n/a	0	0	0
546085	REC_WORD	wordpools/wasnorm_wordpool_576.txt	LTP269	ltpFR2	14	3	BANJO	82	n/a	n/a	0	0	0
549035	REC_WORD	wordpools/wasnorm_wordpool_576.txt	LTP269	ltpFR2	14	3	DAUGHTER	442	n/a	n/a	0	0	0
549593	REC_WORD	wordpools/wasnorm_wordpool_576.txt	LTP269	ltpFR2	14	3	CASKET	255	n/a	n/a	0	0	0
550180	REC_WORD	wordpools/wasnorm_wordpool_576.txt	LTP269	ltpFR2	14	3	FRAME	600	n/a	n/a	0	0	0
551253	REC_WORD	wordpools/wasnorm_wordpool_576.txt	LTP269	ltpFR2	14	3	PREACHER	1119	n/a	n/a	0	0	0
552612	REC_WORD	wordpools/wasnorm_wordpool_576.txt	LTP269	ltpFR2	14	3	TOMBSTONE	1478	n/a	n/a	0	0	0
553197	REC_WORD	wordpools/wasnorm_wordpool_576.txt	LTP269	ltpFR2	14	3	MUMMY	932	n/a	n/a	0	0	0
553761	REC_WORD	wordpools/wasnorm_wordpool_576.txt	LTP269	ltpFR2	14	3	BLENDER	136	n/a	n/a	0	0	0
627805	WORD	wordpools/wasnorm_wordpool_576.txt	LTP269	ltpFR2	14	4	OINTMENT	974	n/a	n/a	0	0	0
630486	WORD	wordpools/wasnorm_wordpool_576.txt	LTP269	ltpFR2	14	4	QUARTER	1148	n/a	n/a	0	0	0
632994	WORD	wordpools/wasnorm_wordpool_576.txt	LTP269	ltpFR2	14	4	MEAT	883	n/a	n/a	0	0	0
635674	WORD	wordpools/wasnorm_wordpool_576.txt	LTP269	ltpFR2	14	4	TURKEY	1520	n/a	n/a	0	0	0
638099	WORD	wordpools/wasnorm_wordpool_576.txt	LTP269	ltpFR2	14	4	PRINCE	1124	n/a	n/a	0	0	0
640695	WORD	wordpools/wasnorm_wordpool_576.txt	LTP269	ltpFR2	14	4	SCALLOP	1242	n/a	n/a	0	0	0
643486	WORD	wordpools/wasnorm_wordpool_576.txt	LTP269	ltpFR2	14	4	LAVA	804	n/a	n/a	0	0	0
646087	WORD	wordpools/wasnorm_wordpool_576.txt	LTP269	ltpFR2	14	4	COLLEGE	346	n/a	n/a	0	0	0
648736	WORD	wordpools/wasnorm_wordpool_576.txt	LTP269	ltpFR2	14	4	DANCER	437	n/a	n/a	0	0	0
651388	WORD	wordpools/wasnorm_wordpool_576.txt	LTP269	ltpFR2	14	4	CRUTCH	417	n/a	n/a	0	0	0
653906	WORD	wordpools/wasnorm_wordpool_576.txt	LTP269	ltpFR2	14	4	SCOTCH	1251	n/a	n/a	0	0	0
656608	WORD	wordpools/wasnorm_wordpool_576.txt	LTP269	ltpFR2	14	4	FRIAR	605	n/a	n/a	0	0	0
659249	WORD	wordpools/wasnorm_wordpool_576.txt	LTP269	ltpFR2	14	4	DRUG	501	n/a	n/a	0	0	0
661897	WORD	wordpools/wasnorm_wordpool_576.txt	LTP269	ltpFR2	14	4	HERO	706	n/a	n/a	0	0	0
664382	WORD	wordpools/wasnorm_wordpool_576.txt	LTP269	ltpFR2	14	4	TWIG	1527	n/a	n/a	0	0	0
667039	WORD	wordpools/wasnorm_wordpool_576.txt	LTP269	ltpFR2	14	4	ARM	38	n/a	n/a	0	0	0
669787	WORD	wordpools/wasnorm_wordpool_576.txt	LTP269	ltpFR2	14	4	SHIRT	1287	n/a	n/a	0	0	0
672257	WORD	wordpools/wasnorm_wordpool_576.txt	LTP269	ltpFR2	14	4	PLAID	1080	n/a	n/a	0	0	0
674808	WORD	wordpools/wasnorm_wordpool_576.txt	LTP269	ltpFR2	14	4	REPORT	1184	n/a	n/a	0	0	0
677363	WORD	wordpools/wasnorm_wordpool_576.txt	LTP269	ltpFR2	14	4	BALLOON	75	n/a	n/a	0	0	0
680062	WORD	wordpools/wasnorm_wordpool_576.txt	LTP269	ltpFR2	14	4	COIN	343	n/a	n/a	0	0	0
682664	WORD	wordpools/wasnorm_wordpool_576.txt	LTP269	ltpFR2	14	4	CHAUFFEUR	283	n/a	n/a	0	0	0
685468	WORD	wordpools/wasnorm_wordpool_576.txt	LTP269	ltpFR2	14	4	HOOK	715	n/a	n/a	0	0	0
688286	WORD	wordpools/wasnorm_wordpool_576.txt	LTP269	ltpFR2	14	4	TREAT	1501	n/a	n/a	0	0	0
689891	START	n/a	LTP269	ltpFR2	14	n/a	n/a	n/a	5	n/a	n/a	n/a	n/a
690839	DISTRACTOR	n/a	LTP269	ltpFR2	14	4	n/a	n/a	n/a	n/a	0	0	0
690855	PROB	n/a	LTP269	ltpFR2	14	n/a	n/a	n/a	5	12	2	2	8
692189	PROB	n/a	LTP269	ltpFR2	14	n/a	n/a	n/a	5	12	1	5	6
693407	PROB	n/a	LTP269	ltpFR2	14	n/a	n/a	n/a	5	7	1	4	2
695378	PROB	n/a	LTP269	ltpFR2	14	n/a	n/a	n/a	5	4	2	1	1
696676	PROB	n/a	LTP269	ltpFR2	14	n/a	n/a	n/a	5	19	5	9	5
698195	PROB	n/a	LTP269	ltpFR2	14	n/a	n/a	n/a	5	17	4	5	8
699695	PROB	n/a	LTP269	ltpFR2	14	n/a	n/a	n/a	5	10	1	6	3
700914	PROB	n/a	LTP269	ltpFR2	14	n/a	n/a	n/a	5	8	1	4	3
702234	PROB	n/a	LTP269	ltpFR2	14	n/a	n/a	n/a	5	11	1	8	2
703384	PROB	n/a	LTP269	ltpFR2	14	n/a	n/a	n/a	5	19	9	3	7
704519	PROB	n/a	LTP269	ltpFR2	14	n/a	n/a	n/a	5	19	8	8	3
706485	PROB	n/a	LTP269	ltpFR2	14	n/a	n/a	n/a	5	18	5	6	7
708605	PROB	n/a	LTP269	ltpFR2	14	n/a	n/a	n/a	5	11	6	2	3
713890	STOP	n/a	LTP269	ltpFR2	14	n/a	n/a	n/a	5	n/a	n/a	n/a	n/a
715712	REC_START	n/a	LTP269	ltpFR2	14	4	n/a	n/a	n/a	n/a	0	0	0
718998	REC_WORD	wordpools/wasnorm_wordpool_576.txt	LTP269	ltpFR2	14	4	OINTMENT	974	n/a	n/a	0	0	0
720192	REC_WORD	wordpools/wasnorm_wordpool_576.txt	LTP269	ltpFR2	14	4	QUARTER	1148	n/a	n/a	0	0	0
721215	REC_WORD	wordpools/wasnorm_wordpool_576.txt	LTP269	ltpFR2	14	4	MEAT	883	n/a	n/a	0	0	0
721685	REC_WORD	wordpools/wasnorm_wordpool_576.txt	LTP269	ltpFR2	14	4	TURKEY	1520	n/a	n/a	0	0	0
722293	REC_WORD	wordpools/wasnorm_wordpool_576.txt	LTP269	ltpFR2	14	4	PRINCE	1124	n/a	n/a	0	0	0
723406	REC_WORD	wordpools/wasnorm_wordpool_576.txt	LTP269	ltpFR2	14	4	SCALLOP	1242	n/a	n/a	0	0	0
727026	REC_WORD	wordpools/wasnorm_wordpool_576.txt	LTP269	ltpFR2	14	4	COLLEGE	346	n/a	n/a	0	0	0
727968	REC_WORD	wordpools/wasnorm_wordpool_576.txt	LTP269	ltpFR2	14	4	TWIG	1527	n/a	n/a	0	0	0
728507	REC_WORD	wordpools/wasnorm_wordpool_576.txt	LTP269	ltpFR2	14	4	DANCER	437	n/a	n/a	0	0	0
728985	REC_WORD	wordpools/wasnorm_wordpool_576.txt	LTP269	ltpFR2	14	4	HERO	706	n/a	n/a	0	0	0
731528	REC_WORD_VV	wordpools/wasnorm_wordpool_576.txt	LTP269	ltpFR2	14	4	<>	-1	n/a	n/a	0	0	0
732528	REC_WORD_VV	wordpools/wasnorm_wordpool_576.txt	LTP269	ltpFR2	14	4	<>	-1	n/a	n/a	0	0	0
732772	REC_WORD	wordpools/wasnorm_wordpool_576.txt	LTP269	ltpFR2	14	4	ARM	38	n/a	n/a	0	0	0
734797	REC_WORD	wordpools/wasnorm_wordpool_576.txt	LTP269	ltpFR2	14	4	DRUG	501	n/a	n/a	0	0	0
737059	REC_WORD	wordpools/wasnorm_wordpool_576.txt	LTP269	ltpFR2	14	4	SCOTCH	1251	n/a	n/a	0	0	0
806134	DISTRACTOR	n/a	LTP269	ltpFR2	14	5	n/a	n/a	n/a	n/a	0	0	0
806134	START	n/a	LTP269	ltpFR2	14	n/a	n/a	n/a	6	n/a	n/a	n/a	n/a
806149	PROB	n/a	LTP269	ltpFR2	14	n/a	n/a	n/a	6	9	2	2	5
807635	PROB	n/a	LTP269	ltpFR2	14	n/a	n/a	n/a	6	19	7	3	9
808734	PROB	n/a	LTP269	ltpFR2	14	n/a	n/a	n/a	6	23	9	7	7
810152	PROB	n/a	LTP269	ltpFR2	14	n/a	n/a	n/a	6	20	9	4	7
811855	PROB	n/a	LTP269	ltpFR2	14	n/a	n/a	n/a	6	22	9	5	8
813671	PROB	n/a	LTP269	ltpFR2	14	n/a	n/a	n/a	6	23	6	9	8
816540	PROB	n/a	LTP269	ltpFR2	14	n/a	n/a	n/a	6	16	3	7	6
817876	PROB	n/a	LTP269	ltpFR2	14	n/a	n/a	n/a	6	14	6	3	5
820143	PROB	n/a	LTP269	ltpFR2	14	n/a	n/a	n/a	6	22	9	4	9
822245	PROB	n/a	LTP269	ltpFR2	14	n/a	n/a	n/a	6	11	5	1	5
823513	PROB	n/a	LTP269	ltpFR2	14	n/a	n/a	n/a	6	10	3	2	5
825514	PROB	n/a	LTP269	ltpFR2	14	n/a	n/a	n/a	6	26	9	9	8
827917	PROB	n/a	LTP269	ltpFR2	14	n/a	n/a	n/a	6	14	3	7	4
829235	STOP	n/a	LTP269	ltpFR2	14	n/a	n/a	n/a	6	n/a	n/a	n/a	n/a
831254	WORD	wordpools/wasnorm_wordpool_576.txt	LTP269	ltpFR2	14	5	BASEMENT	94	n/a	n/a	0	0	0
833756	WORD	wordpools/wasnorm_wordpool_576.txt	LTP269	ltpFR2	14	5	SUITCASE	1403	n/a	n/a	0	0	0
836566	WORD	wordpools/wasnorm_wordpool_576.txt	LTP269	ltpFR2	14	5	CANYON	235	n/a	n/a	0	0	0
839068	WORD	wordpools/wasnorm_wordpool_576.txt	LTP269	ltpFR2	14	5	HEART	697	n/a	n/a	0	0	0
841855	WORD	wordpools/wasnorm_wordpool_576.txt	LTP269	ltpFR2	14	5	STAKE	1368	n/a	n/a	0	0	0
844356	WORD	wordpools/wasnorm_wordpool_576.txt	LTP269	ltpFR2	14	5	POWDER	1117	n/a	n/a	0	0	0
846933	WORD	wordpools/wasnorm_wordpool_576.txt	LTP269	ltpFR2	14	5	DRESS	495	n/a	n/a	0	0	0
849695	WORD	wordpools/wasnorm_wordpool_576.txt	LTP269	ltpFR2	14	5	NURSE	963	n/a	n/a	0	0	0
852463	WORD	wordpools/wasnorm_wordpool_576.txt	LTP269	ltpFR2	14	5	BELLY	119	n/a	n/a	0	0	0
855156	WORD	wordpools/wasnorm_wordpool_576.txt	LTP269	ltpFR2	14	5	SLOPE	1328	n/a	n/a	0	0	0
857935	WORD	wordpools/wasnorm_wordpool_576.txt	LTP269	ltpFR2	14	5	FOOTBALL	591	n/a	n/a	0	0	0
860476	WORD	wordpools/wasnorm_wordpool_576.txt	LTP269	ltpFR2	14	5	DONOR	485	n/a	n/a	0	0	0
863005	WORD	wordpools/wasnorm_wordpool_576.txt	LTP269	ltpFR2	14	5	ATLAS	53	n/a	n/a	0	0	0
865675	WORD	wordpools/wasnorm_wordpool_576.txt	LTP269	ltpFR2	14	5	SCRIBBLE	1256	n/a	n/a	0	0	0
868211	WORD	wordpools/wasnorm_wordpool_576.txt	LTP269	ltpFR2	14	5	ATOM	55	n/a	n/a	0	0	0
870762	WORD	wordpools/wasnorm_wordpool_576.txt	LTP269	ltpFR2	14	5	SHELTER	1282	n/a	n/a	0	0	0
873522	WORD	wordpools/wasnorm_wordpool_576.txt	LTP269	ltpFR2	14	5	BODY	145	n/a	n/a	0	0	0
876067	WORD	wordpools/wasnorm_wordpool_576.txt	LTP269	ltpFR2	14	5	SNACK	1331	n/a	n/a	0	0	0
878692	WORD	wordpools/wasnorm_wordpool_576.txt	LTP269	ltpFR2	14	5	MARKET	871	n/a	n/a	0	0	0
881355	WORD	wordpools/wasnorm_wordpool_576.txt	LTP269	ltpFR2	14	5	PLAZA	1088	n/a	n/a	0	0	0
883840	WORD	wordpools/wasnorm_wordpool_576.txt	LTP269	ltpFR2	14	5	TEMPLE	1448	n/a	n/a	0	0	0
886625	WORD	wordpools/wasnorm_wordpool_576.txt	LTP269	ltpFR2	14	5	SPHINX	1349	n/a	n/a	0	0	0
889312	WORD	wordpools/wasnorm_wordpool_576.txt	LTP269	ltpFR2	14	5	TOURIST	1488	n/a	n/a	0	0	0
891880	WORD	wordpools/wasnorm_wordpool_576.txt	LTP269	ltpFR2	14	5	HEDGE	699	n/a	n/a	0	0	0
893488	START	n/a	LTP269	ltpFR2	14	n/a	n/a	n/a	7	n/a	n/a	n/a	n/a
894621	DISTRACTOR	n/a	LTP269	ltpFR2	14	5	n/a	n/a	n/a	n/a	0	0	0
894633	PROB	n/a	LTP269	ltpFR2	14	n/a	n/a	n/a	7	10	5	1	4
895971	PROB	n/a	LTP269	ltpFR2	14	n/a	n/a	n/a	7	21	9	6	6
897939	PROB	n/a	LTP269	ltpFR2	14	n/a	n/a	n/a	7	21	9	3	9
899691	PROB	n/a	LTP269	ltpFR2	14	n/a	n/a	n/a	7	2	8	5	9
902876	PROB	n/a	LTP269	ltpFR2	14	n/a	n/a	n/a	7	16	2	8	6
904445	PROB	n/a	LTP269	ltpFR2	14	n/a	n/a	n/a	7	12	4	2	6
905829	PROB	n/a	LTP269	ltpFR2	14	n/a	n/a	n/a	7	13	2	3	8
907177	PROB	n/a	LTP269	ltpFR2	14	n/a	n/a	n/a	7	17	7	7	3
908645	PROB	n/a	LTP269	ltpFR2	14	n/a	n/a	n/a	7	9	2	3	4
911181	PROB	n/a	LTP269	ltpFR2	14	n/a	n/a	n/a	7	13	7	5	1
912534	PROB	n/a	LTP269	ltpFR2	14	n/a	n/a	n/a	7	10	7	1	2
913882	PROB	n/a	LTP269	ltpFR2	14	n/a	n/a	n/a	7	16	5	8	3
915334	PROB	n/a	LTP269	ltpFR2	14	n/a	n/a	n/a	7	16	7	2	7
916509	STOP	n/a	LTP269	ltpFR2	14	n/a	n/a	n/a	7	n/a	n/a	n/a	n/a
919274	REC_START	n/a	LTP269	ltpFR2	14	5	n/a	n/a	n/a	n/a	0	0	0
925120	REC_WORD	wordpools/wasnorm_wordpool_576.txt	LTP269	ltpFR2	14	5	SCRIBBLE	1256	n/a	n/a	0	0	0
927077	REC_WORD	wordpools/wasnorm_wordpool_576.txt	LTP269	ltpFR2	14	5	CANYON	235	n/a	n/a	0	0	0
927829	REC_WORD	wordpools/wasnorm_wordpool_576.txt	LTP269	ltpFR2	14	5	SLOPE	1328	n/a	n/a	0	0	0
929932	REC_WORD	wordpools/wasnorm_wordpool_576.txt	LTP269	ltpFR2	14	5	STAKE	1368	n/a	n/a	0	0	0
931021	REC_WORD	wordpools/wasnorm_wordpool_576.txt	LTP269	ltpFR2	14	5	BASEMENT	94	n/a	n/a	0	0	0
931558	REC_WORD	wordpools/wasnorm_wordpool_576.txt	LTP269	ltpFR2	14	5	SUITCASE	1403	n/a	n/a	0	0	0
933966	REC_WORD	wordpools/wasnorm_wordpool_576.txt	LTP269	ltpFR2	14	5	HEART	697	n/a	n/a	0	0	0
934912	REC_WORD	wordpools/wasnorm_wordpool_576.txt	LTP269	ltpFR2	14	5	POWDER	1117	n/a	n/a	0	0	0
935734	REC_WORD	wordpools/wasnorm_wordpool_576.txt	LTP269	ltpFR2	14	5	DRESS	495	n/a	n/a	0	0	0
936833	REC_WORD	wordpools/wasnorm_wordpool_576.txt	LTP269	ltpFR2	14	5	NURSE	963	n/a	n/a	0	0	0
938867	REC_WORD	wordpools/wasnorm_wordpool_576.txt	LTP269	ltpFR2	14	5	BELLY	119	n/a	n/a	0	0	0
939622	REC_WORD	wordpools/wasnorm_wordpool_576.txt	LTP269	ltpFR2	14	5	DONOR	485	n/a	n/a	0	0	0
939967	REC_WORD	wordpools/wasnorm_wordpool_576.txt	LTP269	ltpFR2	14	5	FOOTBALL	591	n/a	n/a	0	0	0
940528	REC_WORD	wordpools/wasnorm_wordpool_576.txt	LTP269	ltpFR2	14	5	ATLAS	53	n/a	n/a	0	0	0
1009714	DISTRACTOR	n/a	LTP269	ltpFR2	14	6	n/a	n/a	n/a	n/a	0	0	0
1009714	START	n/a	LTP269	ltpFR2	14	n/a	n/a	n/a	8	n/a	n/a	n/a	n/a
1009728	PROB	n/a	LTP269	ltpFR2	14	n/a	n/a	n/a	8	17	8	4	5
1012698	PROB	n/a	LTP269	ltpFR2	14	n/a	n/a	n/a	8	10	6	2	2
1014065	PROB	n/a	LTP269	ltpFR2	14	n/a	n/a	n/a	8	15	2	4	9
1016100	PROB	n/a	LTP269	ltpFR2	14	n/a	n/a	n/a	8	12	1	4	7
1018586	PROB	n/a	LTP269	ltpFR2	14	n/a	n/a	n/a	8	19	5	9	5
1020004	PROB	n/a	LTP269	ltpFR2	14	n/a	n/a	n/a	8	14	4	4	6
1021855	PROB	n/a	LTP269	ltpFR2	14	n/a	n/a	n/a	8	18	9	7	2
1023340	PROB	n/a	LTP269	ltpFR2	14	n/a	n/a	n/a	8	14	2	5	7
1024707	PROB	n/a	LTP269	ltpFR2	14	n/a	n/a	n/a	8	15	3	4	8
1026527	PROB	n/a	LTP269	ltpFR2	14	n/a	n/a	n/a	8	16	5	9	2
1028594	PROB	n/a	LTP269	ltpFR2	14	n/a	n/a	n/a	8	22	5	8	9
1030895	PROB	n/a	LTP269	ltpFR2	14	n/a	n/a	n/a	8	9	4	2	3
1033650	STOP	n/a	LTP269	ltpFR2	14	n/a	n/a	n/a	8	n/a	n/a	n/a	n/a
1034749	WORD	wordpools/wasnorm_wordpool_576.txt	LTP269	ltpFR2	14	6	MOTEL	919	n/a	n/a	0	0	0
1037236	WORD	wordpools/wasnorm_wordpool_576.txt	LTP269	ltpFR2	14	6	HAND	683	n/a	n/a	0	0	0
1039905	WORD	wordpools/wasnorm_wordpool_576.txt	LTP269	ltpFR2	14	6	WRIST	1626	n/a	n/a	0	0	0
1042372	WORD	wordpools/wasnorm_wordpool_576.txt	LTP269	ltpFR2	14	6	ASIA	46	n/a	n/a	0	0	0
1045013	WORD	wordpools/wasnorm_wordpool_576.txt	LTP269	ltpFR2	14	6	BROOK	177	n/a	n/a	0	0	0
1047466	WORD	wordpools/wasnorm_wordpool_576.txt	LTP269	ltpFR2	14	6	HUMAN	726	n/a	n/a	0	0	0
1050095	WORD	wordpools/wasnorm_wordpool_576.txt	LTP269	ltpFR2	14	6	WHISKERS	1605	n/a	n/a	0	0	0
1052620	WORD	wordpools/wasnorm_wordpool_576.txt	LTP269	ltpFR2	14	6	HIKER	708	n/a	n/a	0	0	0
1055389	WORD	wordpools/wasnorm_wordpool_576.txt	LTP269	ltpFR2	14	6	LONDON	843	n/a	n/a	0	0	0
1057952	WORD	wordpools/wasnorm_wordpool_576.txt	LTP269	ltpFR2	14	6	SUPPER	1411	n/a	n/a	0	0	0
1060728	WORD	wordpools/wasnorm_wordpool_576.txt	LTP269	ltpFR2	14	6	LUMBER	848	n/a	n/a	0	0	0
1063256	WORD	wordpools/wasnorm_wordpool_576.txt	LTP269	ltpFR2	14	6	PERCH	1048	n/a	n/a	0	0	0
1065825	WORD	wordpools/wasnorm_wordpool_576.txt	LTP269	ltpFR2	14	6	COD	340	n/a	n/a	0	0	0
1068409	WORD	wordpools/wasnorm_wordpool_576.txt	LTP269	ltpFR2	14	6	RAFT	1159	n/a	n/a	0	0	0
1071120	WORD	wordpools/wasnorm_wordpool_576.txt	LTP269	ltpFR2	14	6	TORTOISE	1486	n/a	n/a	0	0	0
1073739	WORD	wordpools/wasnorm_wordpool_576.txt	LTP269	ltpFR2	14	6	CAFE	216	n/a	n/a	0	0	0
1076157	WORD	wordpools/wasnorm_wordpool_576.txt	LTP269	ltpFR2	14	6	RADISH	1158	n/a	n/a	0	0	0
1078693	WORD	wordpools/wasnorm_wordpool_576.txt	LTP269	ltpFR2	14	6	WASHER	1592	n/a	n/a	0	0	0
1081388	WORD	wordpools/wasnorm_wordpool_576.txt	LTP269	ltpFR2	14	6	SURVEY	1414	n/a	n/a	0	0	0
1083915	WORD	wordpools/wasnorm_wordpool_576.txt	LTP269	ltpFR2	14	6	KETCHUP	771	n/a	n/a	0	0	0
1086601	WORD	wordpools/wasnorm_wordpool_576.txt	LTP269	ltpFR2	14	6	RAZOR	1171	n/a	n/a	0	0	0
1089153	WORD	wordpools/wasnorm_wordpool_576.txt	LTP269	ltpFR2	14	6	PEBBLE	1035	n/a	n/a	0	0	0
1091804	WORD	wordpools/wasnorm_wordpool_576.txt	LTP269	ltpFR2	14	6	STONE	1385	n/a	n/a	0	0	0
1094241	WORD	wordpools/wasnorm_wordpool_576.txt	LTP269	ltpFR2	14	6	FLIPPER	580	n/a	n/a	0	0	0
1095849	START	n/a	LTP269	ltpFR2	14	n/a	n/a	n/a	9	n/a	n/a	n/a	n/a
1096779	DISTRACTOR	n/a	LTP269	ltpFR2	14	6	n/a	n/a	n/a	n/a	0	0	0
1096782	PROB	n/a	LTP269	ltpFR2	14	n/a	n/a	n/a	9	16	3	9	4
1098550	PROB	n/a	LTP269	ltpFR2	14	n/a	n/a	n/a	9	24	8	7	9
1100484	PROB	n/a	LTP269	ltpFR2	14	n/a	n/a	n/a	9	14	2	5	7
1102337	PROB	n/a	LTP269	ltpFR2	14	n/a	n/a	n/a	9	9	2	6	1
1104304	PROB	n/a	LTP269	ltpFR2	14	n/a	n/a	n/a	9	21	6	7	8
1105973	PROB	n/a	LTP269	ltpFR2	14	n/a	n/a	n/a	9	18	5	6	7
1107390	PROB	n/a	LTP269	ltpFR2	14	n/a	n/a	n/a	9	14	3	4	7
1108908	PROB	n/a	LTP269	ltpFR2	14	n/a	n/a	n/a	9	16	3	4	9
1111060	PROB	n/a	LTP269	ltpFR2	14	n/a	n/a	n/a	9	20	6	7	7
1112628	PROB	n/a	LTP269	ltpFR2	14	n/a	n/a	n/a	9	12	4	6	2
1114112	PROB	n/a	LTP269	ltpFR2	14	n/a	n/a	n/a	9	18	7	3	8
1115430	PROB	n/a	LTP269	ltpFR2	14	n/a	n/a	n/a	9	17	8	5	4
1117233	PROB	n/a	LTP269	ltpFR2	14	n/a	n/a	n/a	9	19	9	3	7
1118629	STOP	n/a	LTP269	ltpFR2	14	n/a	n/a	n/a	9	n/a	n/a	n/a	n/a
1121669	REC_START	n/a	LTP269	ltpFR2	14	6	n/a	n/a	n/a	n/a	0	0	0
1126124	REC_WORD	wordpools/wasnorm_wordpool_576.txt	LTP269	ltpFR2	14	6	MOTEL	919	n/a	n/a	0	0	0
1126545	REC_WORD	wordpools/wasnorm_wordpool_576.txt	LTP269	ltpFR2	14	6	ASIA	46	n/a	n/a	0	0	0
1126973	REC_WORD	wordpools/wasnorm_wordpool_576.txt	LTP269	ltpFR2	14	6	HAND	683	n/a	n/a	0	0	0
1127655	REC_WORD	wordpools/wasnorm_wordpool_576.txt	LTP269	ltpFR2	14	6	WRIST	1626	n/a	n/a	0	0	0
1128683	REC_WORD_VV	wordpools/wasnorm_wordpool_576.txt	LTP269	ltpFR2	14	6	<>	-1	n/a	n/a	0	0	0
1133787	REC_WORD	wordpools/wasnorm_wordpool_576.txt	LTP269	ltpFR2	14	6	BROOK	177	n/a	n/a	0	0	0
1134118	REC_WORD	wordpools/wasnorm_wordpool_576.txt	LTP269	ltpFR2	14	6	HUMAN	726	n/a	n/a	0	0	0
1137233	REC_WORD	wordpools/wasnorm_wordpool_576.txt	LTP269	ltpFR2	14	6	HIKER	708	n/a	n/a	0	0	0
1137681	REC_WORD	wordpools/wasnorm_wordpool_576.txt	LTP269	ltpFR2	14	6	LONDON	843	n/a	n/a	0	0	0
1138099	REC_WORD	wordpools/wasnorm_wordpool_576.txt	LTP269	ltpFR2	14	6	WHISKERS	1605	n/a	n/a	0	0	0
1140886	REC_WORD_VV	wordpools/wasnorm_wordpool_576.txt	LTP269	ltpFR2	14	6	<>	-1	n/a	n/a	0	0	0
1145833	REC_WORD	wordpools/wasnorm_wordpool_576.txt	LTP269	ltpFR2	14	6	SUPPER	1411	n/a	n/a	0	0	0
1149025	REC_WORD	wordpools/wasnorm_wordpool_576.txt	LTP269	ltpFR2	14	6	LUMBER	848	n/a	n/a	0	0	0
1149456	REC_WORD	wordpools/wasnorm_wordpool_576.txt	LTP269	ltpFR2	14	6	PERCH	1048	n/a	n/a	0	0	0
1149937	REC_WORD	wordpools/wasnorm_wordpool_576.txt	LTP269	ltpFR2	14	6	COD	340	n/a	n/a	0	0	0
1152309	REC_WORD	wordpools/wasnorm_wordpool_576.txt	LTP269	ltpFR2	14	6	TORTOISE	1486	n/a	n/a	0	0	0
1155367	REC_WORD	wordpools/wasnorm_wordpool_576.txt	LTP269	ltpFR2	14	6	CAFE	216	n/a	n/a	0	0	0
1156603	REC_WORD	wordpools/wasnorm_wordpool_576.txt	LTP269	ltpFR2	14	6	RADISH	1158	n/a	n/a	0	0	0
1161833	REC_WORD	wordpools/wasnorm_wordpool_576.txt	LTP269	ltpFR2	14	6	WASHER	1592	n/a	n/a	0	0	0
1164278	REC_WORD	wordpools/wasnorm_wordpool_576.txt	LTP269	ltpFR2	14	6	FLIPPER	580	n/a	n/a	0	0	0
1167693	REC_WORD	wordpools/wasnorm_wordpool_576.txt	LTP269	ltpFR2	14	6	RAZOR	1171	n/a	n/a	0	0	0
1168196	REC_WORD	wordpools/wasnorm_wordpool_576.txt	LTP269	ltpFR2	14	6	KETCHUP	771	n/a	n/a	0	0	0
1177460	REC_WORD_VV	wordpools/wasnorm_wordpool_576.txt	LTP269	ltpFR2	14	6	<>	-1	n/a	n/a	0	0	0
1177875	REC_WORD	wordpools/wasnorm_wordpool_576.txt	LTP269	ltpFR2	14	6	PEBBLE	1035	n/a	n/a	0	0	0
1178783	REC_WORD	wordpools/wasnorm_wordpool_576.txt	LTP269	ltpFR2	14	6	STONE	1385	n/a	n/a	0	0	0
1183758	REC_WORD	wordpools/wasnorm_wordpool_576.txt	LTP269	ltpFR2	14	6	SURVEY	1414	n/a	n/a	0	0	0
1212126	DISTRACTOR	n/a	LTP269	ltpFR2	14	7	n/a	n/a	n/a	n/a	0	0	0
1212126	START	n/a	LTP269	ltpFR2	14	n/a	n/a	n/a	10	n/a	n/a	n/a	n/a
1212141	PROB	n/a	LTP269	ltpFR2	14	n/a	n/a	n/a	10	14	1	4	9
1215811	PROB	n/a	LTP269	ltpFR2	14	n/a	n/a	n/a	10	17	8	1	8
1217763	PROB	n/a	LTP269	ltpFR2	14	n/a	n/a	n/a	10	19	8	6	5
1219198	PROB	n/a	LTP269	ltpFR2	14	n/a	n/a	n/a	10	14	6	7	1
1220515	PROB	n/a	LTP269	ltpFR2	14	n/a	n/a	n/a	10	10	2	7	1
1221982	PROB	n/a	LTP269	ltpFR2	14	n/a	n/a	n/a	10	14	9	2	3
1223650	PROB	n/a	LTP269	ltpFR2	14	n/a	n/a	n/a	10	18	5	9	4
1225188	PROB	n/a	LTP269	ltpFR2	14	n/a	n/a	n/a	10	11	3	2	6
1227720	PROB	n/a	LTP269	ltpFR2	14	n/a	n/a	n/a	10	15	2	9	4
1231006	PROB	n/a	LTP269	ltpFR2	14	n/a	n/a	n/a	10	12	3	6	3
1236126	STOP	n/a	LTP269	ltpFR2	14	n/a	n/a	n/a	10	n/a	n/a	n/a	n/a
1236961	WORD	wordpools/wasnorm_wordpool_576.txt	LTP269	ltpFR2	14	7	FLAG	573	n/a	n/a	0	0	0
1239414	WORD	wordpools/wasnorm_wordpool_576.txt	LTP269	ltpFR2	14	7	COCKTAIL	338	n/a	n/a	0	0	0
1242185	WORD	wordpools/wasnorm_wordpool_576.txt	LTP269	ltpFR2	14	7	GARBAGE	622	n/a	n/a	0	0	0
1244702	WORD	wordpools/wasnorm_wordpool_576.txt	LTP269	ltpFR2	14	7	CATCHER	258	n/a	n/a	0	0	0
1247237	WORD	wordpools/wasnorm_wordpool_576.txt	LTP269	ltpFR2	14	7	HONEY	713	n/a	n/a	0	0	0
1249973	WORD	wordpools/wasnorm_wordpool_576.txt	LTP269	ltpFR2	14	7	PISTON	1076	n/a	n/a	0	0	0
1252661	WORD	wordpools/wasnorm_wordpool_576.txt	LTP269	ltpFR2	14	7	BRIEFCASE	175	n/a	n/a	0	0	0
1255295	WORD	wordpools/wasnorm_wordpool_576.txt	LTP269	ltpFR2	14	7	LUGGAGE	847	n/a	n/a	0	0	0
1257779	WORD	wordpools/wasnorm_wordpool_576.txt	LTP269	ltpFR2	14	7	TART	1436	n/a	n/a	0	0	0
1260315	WORD	wordpools/wasnorm_wordpool_576.txt	LTP269	ltpFR2	14	7	HOOD	714	n/a	n/a	0	0	0
1262766	WORD	wordpools/wasnorm_wordpool_576.txt	LTP269	ltpFR2	14	7	PERFUME	1049	n/a	n/a	0	0	0
1265301	WORD	wordpools/wasnorm_wordpool_576.txt	LTP269	ltpFR2	14	7	SILK	1307	n/a	n/a	0	0	0
1268054	WORD	wordpools/wasnorm_wordpool_576.txt	LTP269	ltpFR2	14	7	PICNIC	1060	n/a	n/a	0	0	0
1270506	WORD	wordpools/wasnorm_wordpool_576.txt	LTP269	ltpFR2	14	7	COOKBOOK	373	n/a	n/a	0	0	0
1273074	WORD	wordpools/wasnorm_wordpool_576.txt	LTP269	ltpFR2	14	7	SWORD	1423	n/a	n/a	0	0	0
1275860	WORD	wordpools/wasnorm_wordpool_576.txt	LTP269	ltpFR2	14	7	JAPAN	749	n/a	n/a	0	0	0
1278652	WORD	wordpools/wasnorm_wordpool_576.txt	LTP269	ltpFR2	14	7	SPARROW	1347	n/a	n/a	0	0	0
1281421	WORD	wordpools/wasnorm_wordpool_576.txt	LTP269	ltpFR2	14	7	CANDY	230	n/a	n/a	0	0	0
1284039	WORD	wordpools/wasnorm_wordpool_576.txt	LTP269	ltpFR2	14	7	WITNESS	1618	n/a	n/a	0	0	0
1286618	WORD	wordpools/wasnorm_wordpool_576.txt	LTP269	ltpFR2	14	7	POLICE	1098	n/a	n/a	0	0	0
1289387	WORD	wordpools/wasnorm_wordpool_576.txt	LTP269	ltpFR2	14	7	CONVICT	371	n/a	n/a	0	0	0
1292198	WORD	wordpools/wasnorm_wordpool_576.txt	LTP269	ltpFR2	14	7	WAITER	1580	n/a	n/a	0	0	0
1294641	WORD	wordpools/wasnorm_wordpool_576.txt	LTP269	ltpFR2	14	7	CRAB	397	n/a	n/a	0	0	0
1297150	WORD	wordpools/wasnorm_wordpool_576.txt	LTP269	ltpFR2	14	7	BABY	64	n/a	n/a	0	0	0
1298762	START	n/a	LTP269	ltpFR2	14	n/a	n/a	n/a	11	n/a	n/a	n/a	n/a
1299882	DISTRACTOR	n/a	LTP269	ltpFR2	14	7	n/a	n/a	n/a	n/a	0	0	0
1299885	PROB	n/a	LTP269	ltpFR2	14	n/a	n/a	n/a	11	22	8	7	7
1304531	PROB	n/a	LTP269	ltpFR2	14	n/a	n/a	n/a	11	20	9	9	2
1307168	PROB	n/a	LTP269	ltpFR2	14	n/a	n/a	n/a	11	17	5	3	7
1308637	PROB	n/a	LTP269	ltpFR2	14	n/a	n/a	n/a	11	19	6	7	6
1312139	PROB	n/a	LTP269	ltpFR2	14	n/a	n/a	n/a	11	22	7	6	9
1313573	PROB	n/a	LTP269	ltpFR2	14	n/a	n/a	n/a	11	16	5	3	8
1315575	PROB	n/a	LTP269	ltpFR2	14	n/a	n/a	n/a	11	9	5	1	3
1317942	PROB	n/a	LTP269	ltpFR2	14	n/a	n/a	n/a	11	14	7	5	2
1319227	PROB	n/a	LTP269	ltpFR2	14	n/a	n/a	n/a	11	20	8	4	8
1320796	PROB	n/a	LTP269	ltpFR2	14	n/a	n/a	n/a	11	12	3	6	3
1322325	STOP	n/a	LTP269	ltpFR2	14	n/a	n/a	n/a	11	n/a	n/a	n/a	n/a
1324683	REC_START	n/a	LTP269	ltpFR2	14	7	n/a	n/a	n/a	n/a	0	0	0
1328586	REC_WORD_VV	wordpools/wasnorm_wordpool_576.txt	LTP269	ltpFR2	14	7	<>	-1	n/a	n/a	0	0	0
1335062	REC_WORD	wordpools/wasnorm_wordpool_576.txt	LTP269	ltpFR2	14	7	FLAG	573	n/a	n/a	0	0	0
1335961	REC_WORD	wordpools/wasnorm_wordpool_576.txt	LTP269	ltpFR2	14	7	COCKTAIL	338	n/a	n/a	0	0	0
1337186	REC_WORD	wordpools/wasnorm_wordpool_576.txt	LTP269	ltpFR2	14	7	GARBAGE	622	n/a	n/a	0	0	0
1339506	REC_WORD	wordpools/wasnorm_wordpool_576.txt	LTP269	ltpFR2	14	7	CATCHER	258	n/a	n/a	0	0	0
1341677	REC_WORD	wordpools/wasnorm_wordpool_576.txt	LTP269	ltpFR2	14	7	HONEY	713	n/a	n/a	0	0	0
1342271	REC_WORD	wordpools/wasnorm_wordpool_576.txt	LTP269	ltpFR2	14	7	PISTON	1076	n/a	n/a	0	0	0
1345135	REC_WORD	wordpools/wasnorm_wordpool_576.txt	LTP269	ltpFR2	14	7	BRIEFCASE	175	n/a	n/a	0	0	0
1345672	REC_WORD	wordpools/wasnorm_wordpool_576.txt	LTP269	ltpFR2	14	7	LUGGAGE	847	n/a	n/a	0	0	0
1348093	REC_WORD	wordpools/wasnorm_wordpool_576.txt	LTP269	ltpFR2	14	7	CANDY	230	n/a	n/a	0	0	0
1348572	REC_WORD	wordpools/wasnorm_wordpool_576.txt	LTP269	ltpFR2	14	7	WITNESS	1618	n/a	n/a	0	0	0
1349028	REC_WORD	wordpools/wasnorm_wordpool_576.txt	LTP269	ltpFR2	14	7	POLICE	1098	n/a	n/a	0	0	0
1352211	REC_WORD	wordpools/wasnorm_wordpool_576.txt	LTP269	ltpFR2	14	7	LACE	792	n/a	n/a	0	0	0
1353563	REC_WORD	wordpools/wasnorm_wordpool_576.txt	LTP269	ltpFR2	14	7	PERFUME	1049	n/a	n/a	0	0	0
1358234	REC_WORD	wordpools/wasnorm_wordpool_576.txt	LTP269	ltpFR2	14	7	SWORD	1423	n/a	n/a	0	0	0
1359419	REC_WORD	wordpools/wasnorm_wordpool_576.txt	LTP269	ltpFR2	14	7	JAPAN	749	n/a	n/a	0	0	0
1361975	REC_WORD	wordpools/wasnorm_wordpool_576.txt	LTP269	ltpFR2	14	7	CONVICT	371	n/a	n/a	0	0	0
1363227	REC_WORD	wordpools/wasnorm_wordpool_576.txt	LTP269	ltpFR2	14	7	WAITER	1580	n/a	n/a	0	0	0
1365655	REC_WORD	wordpools/wasnorm_wordpool_576.txt	LTP269	ltpFR2	14	7	BABY	64	n/a	n/a	0	0	0
1366140	REC_WORD	wordpools/wasnorm_wordpool_576.txt	LTP269	ltpFR2	14	7	CRAB	397	n/a	n/a	0	0	0
1415137	WORD	wordpools/wasnorm_wordpool_576.txt	LTP269	ltpFR2	14	8	IDOL	733	n/a	n/a	0	0	0
1417908	WORD	wordpools/wasnorm_wordpool_576.txt	LTP269	ltpFR2	14	8	ELBOW	520	n/a	n/a	0	0	0
1420676	WORD	wordpools/wasnorm_wordpool_576.txt	LTP269	ltpFR2	14	8	BINDER	127	n/a	n/a	0	0	0
1423310	WORD	wordpools/wasnorm_wordpool_576.txt	LTP269	ltpFR2	14	8	GIRL	637	n/a	n/a	0	0	0
1425879	WORD	wordpools/wasnorm_wordpool_576.txt	LTP269	ltpFR2	14	8	COMPASS	358	n/a	n/a	0	0	0
1428515	WORD	wordpools/wasnorm_wordpool_576.txt	LTP269	ltpFR2	14	8	CHURCH	307	n/a	n/a	0	0	0
1431033	WORD	wordpools/wasnorm_wordpool_576.txt	LTP269	ltpFR2	14	8	LODGE	839	n/a	n/a	0	0	0
1433686	WORD	wordpools/wasnorm_wordpool_576.txt	LTP269	ltpFR2	14	8	DRESSER	496	n/a	n/a	0	0	0
1436422	WORD	wordpools/wasnorm_wordpool_576.txt	LTP269	ltpFR2	14	8	EUROPE	541	n/a	n/a	0	0	0
1439074	WORD	wordpools/wasnorm_wordpool_576.txt	LTP269	ltpFR2	14	8	FRANCE	601	n/a	n/a	0	0	0
1441777	WORD	wordpools/wasnorm_wordpool_576.txt	LTP269	ltpFR2	14	8	CASHEW	253	n/a	n/a	0	0	0
1444328	WORD	wordpools/wasnorm_wordpool_576.txt	LTP269	ltpFR2	14	8	LETTUCE	814	n/a	n/a	0	0	0
1447031	WORD	wordpools/wasnorm_wordpool_576.txt	LTP269	ltpFR2	14	8	THIEF	1456	n/a	n/a	0	0	0
1449800	WORD	wordpools/wasnorm_wordpool_576.txt	LTP269	ltpFR2	14	8	SHOULDER	1294	n/a	n/a	0	0	0
1452469	WORD	wordpools/wasnorm_wordpool_576.txt	LTP269	ltpFR2	14	8	VIKING	1565	n/a	n/a	0	0	0
1454921	WORD	wordpools/wasnorm_wordpool_576.txt	LTP269	ltpFR2	14	8	KNIFE	785	n/a	n/a	0	0	0
1457388	WORD	wordpools/wasnorm_wordpool_576.txt	LTP269	ltpFR2	14	8	TABLE	1426	n/a	n/a	0	0	0
1460058	WORD	wordpools/wasnorm_wordpool_576.txt	LTP269	ltpFR2	14	8	PADDING	999	n/a	n/a	0	0	0
1462828	WORD	wordpools/wasnorm_wordpool_576.txt	LTP269	ltpFR2	14	8	OZONE	996	n/a	n/a	0	0	0
1465445	WORD	wordpools/wasnorm_wordpool_576.txt	LTP269	ltpFR2	14	8	VICTIM	1562	n/a	n/a	0	0	0
1468098	WORD	wordpools/wasnorm_wordpool_576.txt	LTP269	ltpFR2	14	8	STAPLE	1371	n/a	n/a	0	0	0
1470834	WORD	wordpools/wasnorm_wordpool_576.txt	LTP269	ltpFR2	14	8	BRACES	164	n/a	n/a	0	0	0
1473286	WORD	wordpools/wasnorm_wordpool_576.txt	LTP269	ltpFR2	14	8	BRICK	172	n/a	n/a	0	0	0
1475721	WORD	wordpools/wasnorm_wordpool_576.txt	LTP269	ltpFR2	14	8	SIDEWALK	1303	n/a	n/a	0	0	0
1477339	START	n/a	LTP269	ltpFR2	14	n/a	n/a	n/a	12	n/a	n/a	n/a	n/a
1478450	DISTRACTOR	n/a	LTP269	ltpFR2	14	8	n/a	n/a	n/a	n/a	0	0	0
1478456	PROB	n/a	LTP269	ltpFR2	14	n/a	n/a	n/a	12	14	7	3	4
1479889	PROB	n/a	LTP269	ltpFR2	14	n/a	n/a	n/a	12	14	2	5	7
1481774	PROB	n/a	LTP269	ltpFR2	14	n/a	n/a	n/a	12	15	6	3	6
1483811	PROB	n/a	LTP269	ltpFR2	14	n/a	n/a	n/a	12	18	7	7	4
1485227	PROB	n/a	LTP269	ltpFR2	14	n/a	n/a	n/a	12	12	9	1	2
1486328	PROB	n/a	LTP269	ltpFR2	14	n/a	n/a	n/a	12	12	4	4	4
1487380	PROB	n/a	LTP269	ltpFR2	14	n/a	n/a	n/a	12	12	8	2	2
1488814	PROB	n/a	LTP269	ltpFR2	14	n/a	n/a	n/a	12	18	9	4	5
1490280	PROB	n/a	LTP269	ltpFR2	14	n/a	n/a	n/a	12	15	7	6	2
1492000	PROB	n/a	LTP269	ltpFR2	14	n/a	n/a	n/a	12	20	5	9	6
1495236	PROB	n/a	LTP269	ltpFR2	14	n/a	n/a	n/a	12	15	6	1	8
1496435	PROB	n/a	LTP269	ltpFR2	14	n/a	n/a	n/a	12	14	6	5	3
1501339	STOP	n/a	LTP269	ltpFR2	14	n/a	n/a	n/a	12	n/a	n/a	n/a	n/a
1503142	REC_START	n/a	LTP269	ltpFR2	14	8	n/a	n/a	n/a	n/a	0	0	0
1504612	REC_WORD_VV	wordpools/wasnorm_wordpool_576.txt	LTP269	ltpFR2	14	8	<>	-1	n/a	n/a	0	0	0
1505128	REC_WORD	wordpools/wasnorm_wordpool_576.txt	LTP269	ltpFR2	14	8	IDOL	733	n/a	n/a	0	0	0
1505463	REC_WORD	wordpools/wasnorm_wordpool_576.txt	LTP269	ltpFR2	14	8	ELBOW	520	n/a	n/a	0	0	0
1506626	REC_WORD	wordpools/wasnorm_wordpool_576.txt	LTP269	ltpFR2	14	8	BINDER	127	n/a	n/a	0	0	0
1508365	REC_WORD	wordpools/wasnorm_wordpool_576.txt	LTP269	ltpFR2	14	8	TABLE	1426	n/a	n/a	0	0	0
1509568	REC_WORD	wordpools/wasnorm_wordpool_576.txt	LTP269	ltpFR2	14	8	GIRL	637	n/a	n/a	0	0	0
1511151	REC_WORD	wordpools/wasnorm_wordpool_576.txt	LTP269	ltpFR2	14	8	BRACES	164	n/a	n/a	0	0	0
1512775	REC_WORD	wordpools/wasnorm_wordpool_576.txt	LTP269	ltpFR2	14	8	BRICK	172	n/a	n/a	0	0	0
1513050	REC_WORD	wordpools/wasnorm_wordpool_576.txt	LTP269	ltpFR2	14	8	SIDEWALK	1303	n/a	n/a	0	0	0
1515097	REC_WORD	wordpools/wasnorm_wordpool_576.txt	LTP269	ltpFR2	14	8	FRANCE	601	n/a	n/a	0	0	0
1515624	REC_WORD	wordpools/wasnorm_wordpool_576.txt	LTP269	ltpFR2	14	8	EUROPE	541	n/a	n/a	0	0	0
1516946	REC_WORD_VV	wordpools/wasnorm_wordpool_576.txt	LTP269	ltpFR2	14	8	<>	-1	n/a	n/a	0	0	0
1517536	REC_WORD	wordpools/wasnorm_wordpool_576.txt	LTP269	ltpFR2	14	8	PADDING	999	n/a	n/a	0	0	0
1523057	REC_WORD	wordpools/wasnorm_wordpool_576.txt	LTP269	ltpFR2	14	8	CASHEW	253	n/a	n/a	0	0	0
1524193	REC_WORD	wordpools/wasnorm_wordpool_576.txt	LTP269	ltpFR2	14	8	LETTUCE	814	n/a	n/a	0	0	0
1525468	REC_WORD	wordpools/wasnorm_wordpool_576.txt	LTP269	ltpFR2	14	8	THIEF	1456	n/a	n/a	0	0	0
1531208	REC_WORD	wordpools/wasnorm_wordpool_576.txt	LTP269	ltpFR2	14	8	COMPASS	358	n/a	n/a	0	0	0
1531702	REC_WORD	wordpools/wasnorm_wordpool_576.txt	LTP269	ltpFR2	14	8	CHURCH	307	n/a	n/a	0	0	0
1533213	REC_WORD	wordpools/wasnorm_wordpool_576.txt	LTP269	ltpFR2	14	8	LODGE	839	n/a	n/a	0	0	0
1534005	REC_WORD	wordpools/wasnorm_wordpool_576.txt	LTP269	ltpFR2	14	8	DRESSER	496	n/a	n/a	0	0	0
1544031	REC_WORD	wordpools/wasnorm_wordpool_576.txt	LTP269	ltpFR2	14	8	KNIFE	785	n/a	n/a	0	0	0
1579680	REST_REWET	n/a	LTP269	ltpFR2	14	8	n/a	n/a	n/a	n/a	0	0	0
1796710	WORD	wordpools/wasnorm_wordpool_576.txt	LTP269	ltpFR2	14	9	POCKET	1093	n/a	n/a	0	0	0
1799239	WORD	wordpools/wasnorm_wordpool_576.txt	LTP269	ltpFR2	14	9	LACE	792	n/a	n/a	0	0	0
1802025	WORD	wordpools/wasnorm_wordpool_576.txt	LTP269	ltpFR2	14	9	OX	994	n/a	n/a	0	0	0
1804642	WORD	wordpools/wasnorm_wordpool_576.txt	LTP269	ltpFR2	14	9	SHOVEL	1295	n/a	n/a	0	0	0
1807078	WORD	wordpools/wasnorm_wordpool_576.txt	LTP269	ltpFR2	14	9	CHIPMUNK	304	n/a	n/a	0	0	0
1809848	WORD	wordpools/wasnorm_wordpool_576.txt	LTP269	ltpFR2	14	9	HOSTESS	723	n/a	n/a	0	0	0
1812499	WORD	wordpools/wasnorm_wordpool_576.txt	LTP269	ltpFR2	14	9	COSTUME	383	n/a	n/a	0	0	0
1814992	WORD	wordpools/wasnorm_wordpool_576.txt	LTP269	ltpFR2	14	9	TROUT	1511	n/a	n/a	0	0	0
1817571	WORD	wordpools/wasnorm_wordpool_576.txt	LTP269	ltpFR2	14	9	PENGUIN	1044	n/a	n/a	0	0	0
1820389	WORD	wordpools/wasnorm_wordpool_576.txt	LTP269	ltpFR2	14	9	MAMMAL	861	n/a	n/a	0	0	0
1823184	WORD	wordpools/wasnorm_wordpool_576.txt	LTP269	ltpFR2	14	9	DOLPHIN	483	n/a	n/a	0	0	0
1825969	WORD	wordpools/wasnorm_wordpool_576.txt	LTP269	ltpFR2	14	9	VELVET	1555	n/a	n/a	0	0	0
1828547	WORD	wordpools/wasnorm_wordpool_576.txt	LTP269	ltpFR2	14	9	TRENCH	1503	n/a	n/a	0	0	0
1830999	WORD	wordpools/wasnorm_wordpool_576.txt	LTP269	ltpFR2	14	9	CEILING	265	n/a	n/a	0	0	0
1833451	WORD	wordpools/wasnorm_wordpool_576.txt	LTP269	ltpFR2	14	9	COTTAGE	384	n/a	n/a	0	0	0
1835919	WORD	wordpools/wasnorm_wordpool_576.txt	LTP269	ltpFR2	14	9	SHORTS	1293	n/a	n/a	0	0	0
1838362	WORD	wordpools/wasnorm_wordpool_576.txt	LTP269	ltpFR2	14	9	FRAGRANCE	599	n/a	n/a	0	0	0
1840941	WORD	wordpools/wasnorm_wordpool_576.txt	LTP269	ltpFR2	14	9	NIGHTGOWN	953	n/a	n/a	0	0	0
1843715	WORD	wordpools/wasnorm_wordpool_576.txt	LTP269	ltpFR2	14	9	STOVE	1388	n/a	n/a	0	0	0
1846384	WORD	wordpools/wasnorm_wordpool_576.txt	LTP269	ltpFR2	14	9	BISON	131	n/a	n/a	0	0	0
1848820	WORD	wordpools/wasnorm_wordpool_576.txt	LTP269	ltpFR2	14	9	GYMNAST	675	n/a	n/a	0	0	0
1851484	WORD	wordpools/wasnorm_wordpool_576.txt	LTP269	ltpFR2	14	9	LADDER	793	n/a	n/a	0	0	0
1853924	WORD	wordpools/wasnorm_wordpool_576.txt	LTP269	ltpFR2	14	9	CHILD	299	n/a	n/a	0	0	0
1856475	WORD	wordpools/wasnorm_wordpool_576.txt	LTP269	ltpFR2	14	9	CABBAGE	210	n/a	n/a	0	0	0
1858091	START	n/a	LTP269	ltpFR2	14	n/a	n/a	n/a	13	n/a	n/a	n/a	n/a
1859018	DISTRACTOR	n/a	LTP269	ltpFR2	14	9	n/a	n/a	n/a	n/a	0	0	0
1859024	PROB	n/a	LTP269	ltpFR2	14	n/a	n/a	n/a	13	4	2	1	1
1860380	PROB	n/a	LTP269	ltpFR2	14	n/a	n/a	n/a	13	15	5	2	8
1861513	PROB	n/a	LTP269	ltpFR2	14	n/a	n/a	n/a	13	18	7	8	3
1863115	PROB	n/a	LTP269	ltpFR2	14	n/a	n/a	n/a	13	12	5	4	3
1866718	PROB	n/a	LTP269	ltpFR2	14	n/a	n/a	n/a	13	21	9	3	9
1868285	PROB	n/a	LTP269	ltpFR2	14	n/a	n/a	n/a	13	16	7	2	7
1870338	PROB	n/a	LTP269	ltpFR2	14	n/a	n/a	n/a	13	16	4	8	4
1872089	PROB	n/a	LTP269	ltpFR2	14	n/a	n/a	n/a	13	12	8	2	2
1873424	PROB	n/a	LTP269	ltpFR2	14	n/a	n/a	n/a	13	15	1	5	9
1876459	PROB	n/a	LTP269	ltpFR2	14	n/a	n/a	n/a	13	13	9	1	3
1877855	PROB	n/a	LTP269	ltpFR2	14	n/a	n/a	n/a	13	24	9	8	7
1880062	PROB	n/a	LTP269	ltpFR2	14	n/a	n/a	n/a	13	8	1	6	1
1881284	STOP	n/a	LTP269	ltpFR2	14	n/a	n/a	n/a	13	n/a	n/a	n/a	n/a
1883979	REC_START	n/a	LTP269	ltpFR2	14	9	n/a	n/a	n/a	n/a	0	0	0
1884888	REC_WORD	wordpools/wasnorm_wordpool_576.txt	LTP269	ltpFR2	14	9	HOSTESS	723	n/a	n/a	0	0	0
1887202	REC_WORD	wordpools/wasnorm_wordpool_576.txt	LTP269	ltpFR2	14	9	CHIPMUNK	304	n/a	n/a	0	0	0
1889242	REC_WORD	wordpools/wasnorm_wordpool_576.txt	LTP269	ltpFR2	14	9	SHOVEL	1295	n/a	n/a	0	0	0
1889898	REC_WORD	wordpools/wasnorm_wordpool_576.txt	LTP269	ltpFR2	14	9	OX	994	n/a	n/a	0	0	0
1890403	REC_WORD	wordpools/wasnorm_wordpool_576.txt	LTP269	ltpFR2	14	9	LACE	792	n/a	n/a	0	0	0
1891044	REC_WORD	wordpools/wasnorm_wordpool_576.txt	LTP269	ltpFR2	14	9	VELVET	1555	n/a	n/a	0	0	0
1891973	REC_WORD	wordpools/wasnorm_wordpool_576.txt	LTP269	ltpFR2	14	9	POCKET	1093	n/a	n/a	0	0	0
1893362	REC_WORD	wordpools/wasnorm_wordpool_576.txt	LTP269	ltpFR2	14	9	TRENCH	1503	n/a	n/a	0	0	0
1898687	REC_WORD	wordpools/wasnorm_wordpool_576.txt	LTP269	ltpFR2	14	9	DOLPHIN	483	n/a	n/a	0	0	0
1900031	REC_WORD	wordpools/wasnorm_wordpool_576.txt	LTP269	ltpFR2	14	9	MAMMAL	861	n/a	n/a	0	0	0
1900668	REC_WORD_VV	wordpools/wasnorm_wordpool_576.txt	LTP269	ltpFR2	14	9	<>	-1	n/a	n/a	0	0	0
1901574	REC_WORD_VV	wordpools/wasnorm_wordpool_576.txt	LTP269	ltpFR2	14	9	<>	-1	n/a	n/a	0	0	0
1902289	REC_WORD	wordpools/wasnorm_wordpool_576.txt	LTP269	ltpFR2	14	9	PENGUIN	1044	n/a	n/a	0	0	0
1909500	REC_WORD	wordpools/wasnorm_wordpool_576.txt	LTP269	ltpFR2	14	9	TROUT	1511	n/a	n/a	0	0	0
1974420	WORD	wordpools/wasnorm_wordpool_576.txt	LTP269	ltpFR2	14	10	CAPTIVE	240	n/a	n/a	0	0	0
1977124	WORD	wordpools/wasnorm_wordpool_576.txt	LTP269	ltpFR2	14	10	MEDAL	885	n/a	n/a	0	0	0
1979762	WORD	wordpools/wasnorm_wordpool_576.txt	LTP269	ltpFR2	14	10	AWARD	63	n/a	n/a	0	0	0
1982377	WORD	wordpools/wasnorm_wordpool_576.txt	LTP269	ltpFR2	14	10	BARREL	91	n/a	n/a	0	0	0
1985151	WORD	wordpools/wasnorm_wordpool_576.txt	LTP269	ltpFR2	14	10	CHAMPAGNE	278	n/a	n/a	0	0	0
1987937	WORD	wordpools/wasnorm_wordpool_576.txt	LTP269	ltpFR2	14	10	FILM	565	n/a	n/a	0	0	0
1990735	WORD	wordpools/wasnorm_wordpool_576.txt	LTP269	ltpFR2	14	10	WOMAN	1620	n/a	n/a	0	0	0
1993204	WORD	wordpools/wasnorm_wordpool_576.txt	LTP269	ltpFR2	14	10	FLASK	576	n/a	n/a	0	0	0
1995938	WORD	wordpools/wasnorm_wordpool_576.txt	LTP269	ltpFR2	14	10	CROSS	413	n/a	n/a	0	0	0
1998673	WORD	wordpools/wasnorm_wordpool_576.txt	LTP269	ltpFR2	14	10	SKIRT	1319	n/a	n/a	0	0	0
2001126	WORD	wordpools/wasnorm_wordpool_576.txt	LTP269	ltpFR2	14	10	ANTLER	29	n/a	n/a	0	0	0
2003543	WORD	wordpools/wasnorm_wordpool_576.txt	LTP269	ltpFR2	14	10	SCULPTURE	1258	n/a	n/a	0	0	0
2006264	WORD	wordpools/wasnorm_wordpool_576.txt	LTP269	ltpFR2	14	10	CRITIC	410	n/a	n/a	0	0	0
2008748	WORD	wordpools/wasnorm_wordpool_576.txt	LTP269	ltpFR2	14	10	WIDOW	1608	n/a	n/a	0	0	0
2011501	WORD	wordpools/wasnorm_wordpool_576.txt	LTP269	ltpFR2	14	10	SPOOL	1356	n/a	n/a	0	0	0
2014203	WORD	wordpools/wasnorm_wordpool_576.txt	LTP269	ltpFR2	14	10	PORK	1108	n/a	n/a	0	0	0
2016620	WORD	wordpools/wasnorm_wordpool_576.txt	LTP269	ltpFR2	14	10	SNAIL	1332	n/a	n/a	0	0	0
2019146	WORD	wordpools/wasnorm_wordpool_576.txt	LTP269	ltpFR2	14	10	FINGER	567	n/a	n/a	0	0	0
2021859	WORD	wordpools/wasnorm_wordpool_576.txt	LTP269	ltpFR2	14	10	KITCHEN	778	n/a	n/a	0	0	0
2024578	WORD	wordpools/wasnorm_wordpool_576.txt	LTP269	ltpFR2	14	10	SERVER	1272	n/a	n/a	0	0	0
2027164	WORD	wordpools/wasnorm_wordpool_576.txt	LTP269	ltpFR2	14	10	DRINK	498	n/a	n/a	0	0	0
2029748	WORD	wordpools/wasnorm_wordpool_576.txt	LTP269	ltpFR2	14	10	BLADE	134	n/a	n/a	0	0	0
2032366	WORD	wordpools/wasnorm_wordpool_576.txt	LTP269	ltpFR2	14	10	DRAGON	492	n/a	n/a	0	0	0
2034802	WORD	wordpools/wasnorm_wordpool_576.txt	LTP269	ltpFR2	14	10	SLIDE	1326	n/a	n/a	0	0	0
2036412	START	n/a	LTP269	ltpFR2	14	n/a	n/a	n/a	14	n/a	n/a	n/a	n/a
2037370	DISTRACTOR	n/a	LTP269	ltpFR2	14	10	n/a	n/a	n/a	n/a	0	0	0
2037378	PROB	n/a	LTP269	ltpFR2	14	n/a	n/a	n/a	14	12	7	4	1
2038522	PROB	n/a	LTP269	ltpFR2	14	n/a	n/a	n/a	14	13	2	7	4
2039872	PROB	n/a	LTP269	ltpFR2	14	n/a	n/a	n/a	14	17	6	9	2
2041908	PROB	n/a	LTP269	ltpFR2	14	n/a	n/a	n/a	14	17	4	6	7
2043909	PROB	n/a	LTP269	ltpFR2	14	n/a	n/a	n/a	14	6	2	1	3
2046543	PROB	n/a	LTP269	ltpFR2	14	n/a	n/a	n/a	14	22	9	6	7
2048695	PROB	n/a	LTP269	ltpFR2	14	n/a	n/a	n/a	14	15	4	5	6
2050581	PROB	n/a	LTP269	ltpFR2	14	n/a	n/a	n/a	14	15	3	9	3
2052115	PROB	n/a	LTP269	ltpFR2	14	n/a	n/a	n/a	14	16	6	4	6
2053516	PROB	n/a	LTP269	ltpFR2	14	n/a	n/a	n/a	14	18	6	9	3
2055001	PROB	n/a	LTP269	ltpFR2	14	n/a	n/a	n/a	14	12	2	9	1
2056151	PROB	n/a	LTP269	ltpFR2	14	n/a	n/a	n/a	14	19	7	6	6
2058570	PROB	n/a	LTP269	ltpFR2	14	n/a	n/a	n/a	14	8	2	4	2
2060315	STOP	n/a	LTP269	ltpFR2	14	n/a	n/a	n/a	14	n/a	n/a	n/a	n/a
2062158	REC_START	n/a	LTP269	ltpFR2	14	10	n/a	n/a	n/a	n/a	0	0	0
2064435	REC_WORD	wordpools/wasnorm_wordpool_576.txt	LTP269	ltpFR2	14	10	CAPTIVE	240	n/a	n/a	0	0	0
2068378	REC_WORD	wordpools/wasnorm_wordpool_576.txt	LTP269	ltpFR2	14	10	MEDAL	885	n/a	n/a	0	0	0
2068727	REC_WORD	wordpools/wasnorm_wordpool_576.txt	LTP269	ltpFR2	14	10	AWARD	63	n/a	n/a	0	0	0
2070978	REC_WORD_VV	wordpools/wasnorm_wordpool_576.txt	LTP269	ltpFR2	14	10	<>	-1	n/a	n/a	0	0	0
2074465	REC_WORD	wordpools/wasnorm_wordpool_576.txt	LTP269	ltpFR2	14	10	WOMAN	1620	n/a	n/a	0	0	0
2077155	REC_WORD	wordpools/wasnorm_wordpool_576.txt	LTP269	ltpFR2	14	10	SKIRT	1319	n/a	n/a	0	0	0
2077625	REC_WORD	wordpools/wasnorm_wordpool_576.txt	LTP269	ltpFR2	14	10	SNAIL	1332	n/a	n/a	0	0	0
2081744	REC_WORD	wordpools/wasnorm_wordpool_576.txt	LTP269	ltpFR2	14	10	FLASK	576	n/a	n/a	0	0	0
2082496	REC_WORD	wordpools/wasnorm_wordpool_576.txt	LTP269	ltpFR2	14	10	CHAMPAGNE	278	n/a	n/a	0	0	0
2083902	REC_WORD	wordpools/wasnorm_wordpool_576.txt	LTP269	ltpFR2	14	10	ANTLER	29	n/a	n/a	0	0	0
2127074	REC_WORD	wordpools/wasnorm_wordpool_576.txt	LTP269	ltpFR2	14	10	DRAGON	492	n/a	n/a	0	0	0
2128418	REC_WORD	wordpools/wasnorm_wordpool_576.txt	LTP269	ltpFR2	14	10	SLIDE	1326	n/a	n/a	0	0	0
2131154	REC_WORD	wordpools/wasnorm_wordpool_576.txt	LTP269	ltpFR2	14	10	BLADE	134	n/a	n/a	0	0	0
2133656	REC_WORD	wordpools/wasnorm_wordpool_576.txt	LTP269	ltpFR2	14	10	KITCHEN	778	n/a	n/a	0	0	0
2134257	REC_WORD	wordpools/wasnorm_wordpool_576.txt	LTP269	ltpFR2	14	10	SERVER	1272	n/a	n/a	0	0	0
2152629	WORD	wordpools/wasnorm_wordpool_576.txt	LTP269	ltpFR2	14	11	CELLAR	267	n/a	n/a	0	0	0
2155131	WORD	wordpools/wasnorm_wordpool_576.txt	LTP269	ltpFR2	14	11	LOFT	840	n/a	n/a	0	0	0
2157900	WORD	wordpools/wasnorm_wordpool_576.txt	LTP269	ltpFR2	14	11	NOVEL	960	n/a	n/a	0	0	0
2160386	WORD	wordpools/wasnorm_wordpool_576.txt	LTP269	ltpFR2	14	11	SEAL	1262	n/a	n/a	0	0	0
2162972	WORD	wordpools/wasnorm_wordpool_576.txt	LTP269	ltpFR2	14	11	GUARD	667	n/a	n/a	0	0	0
2165791	WORD	wordpools/wasnorm_wordpool_576.txt	LTP269	ltpFR2	14	11	UNCLE	1536	n/a	n/a	0	0	0
2168593	WORD	wordpools/wasnorm_wordpool_576.txt	LTP269	ltpFR2	14	11	PLATE	1086	n/a	n/a	0	0	0
2171062	WORD	wordpools/wasnorm_wordpool_576.txt	LTP269	ltpFR2	14	11	DINER	467	n/a	n/a	0	0	0
2173514	WORD	wordpools/wasnorm_wordpool_576.txt	LTP269	ltpFR2	14	11	JOURNAL	760	n/a	n/a	0	0	0
2175982	WORD	wordpools/wasnorm_wordpool_576.txt	LTP269	ltpFR2	14	11	PASSAGE	1019	n/a	n/a	0	0	0
2178701	WORD	wordpools/wasnorm_wordpool_576.txt	LTP269	ltpFR2	14	11	OMELET	976	n/a	n/a	0	0	0
2181220	WORD	wordpools/wasnorm_wordpool_576.txt	LTP269	ltpFR2	14	11	GRAPE	654	n/a	n/a	0	0	0
2183755	WORD	wordpools/wasnorm_wordpool_576.txt	LTP269	ltpFR2	14	11	SWIMMER	1420	n/a	n/a	0	0	0
2186560	WORD	wordpools/wasnorm_wordpool_576.txt	LTP269	ltpFR2	14	11	CRAYON	401	n/a	n/a	0	0	0
2189044	WORD	wordpools/wasnorm_wordpool_576.txt	LTP269	ltpFR2	14	11	FLESH	579	n/a	n/a	0	0	0
2191595	WORD	wordpools/wasnorm_wordpool_576.txt	LTP269	ltpFR2	14	11	SERVANT	1271	n/a	n/a	0	0	0
2194165	WORD	wordpools/wasnorm_wordpool_576.txt	LTP269	ltpFR2	14	11	POSSUM	1112	n/a	n/a	0	0	0
2196933	WORD	wordpools/wasnorm_wordpool_576.txt	LTP269	ltpFR2	14	11	LAMP	798	n/a	n/a	0	0	0
2199719	WORD	wordpools/wasnorm_wordpool_576.txt	LTP269	ltpFR2	14	11	PEACH	1031	n/a	n/a	0	0	0
2202404	WORD	wordpools/wasnorm_wordpool_576.txt	LTP269	ltpFR2	14	11	SUSPECT	1415	n/a	n/a	0	0	0
2205224	WORD	wordpools/wasnorm_wordpool_576.txt	LTP269	ltpFR2	14	11	BLACKBOARD	133	n/a	n/a	0	0	0
2207658	WORD	wordpools/wasnorm_wordpool_576.txt	LTP269	ltpFR2	14	11	BACKBONE	66	n/a	n/a	0	0	0
2210478	WORD	wordpools/wasnorm_wordpool_576.txt	LTP269	ltpFR2	14	11	FIREPLACE	570	n/a	n/a	0	0	0
2212995	WORD	wordpools/wasnorm_wordpool_576.txt	LTP269	ltpFR2	14	11	CARROT	249	n/a	n/a	0	0	0
2214602	START	n/a	LTP269	ltpFR2	14	n/a	n/a	n/a	15	n/a	n/a	n/a	n/a
2215548	DISTRACTOR	n/a	LTP269	ltpFR2	14	11	n/a	n/a	n/a	n/a	0	0	0
2215564	PROB	n/a	LTP269	ltpFR2	14	n/a	n/a	n/a	15	15	2	7	6
2216930	PROB	n/a	LTP269	ltpFR2	14	n/a	n/a	n/a	15	25	9	7	9
2221636	PROB	n/a	LTP269	ltpFR2	14	n/a	n/a	n/a	15	11	7	1	3
2223487	PROB	n/a	LTP269	ltpFR2	14	n/a	n/a	n/a	15	5	2	1	2
2225504	PROB	n/a	LTP269	ltpFR2	14	n/a	n/a	n/a	15	18	9	7	2
2227224	PROB	n/a	LTP269	ltpFR2	14	n/a	n/a	n/a	15	13	8	4	1
2228540	PROB	n/a	LTP269	ltpFR2	14	n/a	n/a	n/a	15	15	5	7	3
2229758	PROB	n/a	LTP269	ltpFR2	14	n/a	n/a	n/a	15	11	6	4	1
2230877	PROB	n/a	LTP269	ltpFR2	14	n/a	n/a	n/a	15	12	4	7	1
2231859	PROB	n/a	LTP269	ltpFR2	14	n/a	n/a	n/a	15	18	6	6	6
2233045	PROB	n/a	LTP269	ltpFR2	14	n/a	n/a	n/a	15	19	2	8	9
2234145	PROB	n/a	LTP269	ltpFR2	14	n/a	n/a	n/a	15	17	8	4	5
2235929	PROB	n/a	LTP269	ltpFR2	14	n/a	n/a	n/a	15	12	3	3	6
2237154	STOP	n/a	LTP269	ltpFR2	14	n/a	n/a	n/a	15	n/a	n/a	n/a	n/a
2240384	REC_START	n/a	LTP269	ltpFR2	14	11	n/a	n/a	n/a	n/a	0	0	0
2242144	REC_WORD	wordpools/wasnorm_wordpool_576.txt	LTP269	ltpFR2	14	11	CELLAR	267	n/a	n/a	0	0	0
2244015	REC_WORD	wordpools/wasnorm_wordpool_576.txt	LTP269	ltpFR2	14	11	LOFT	840	n/a	n/a	0	0	0
2248291	REC_WORD_VV	wordpools/wasnorm_wordpool_576.txt	LTP269	ltpFR2	14	11	<>	-1	n/a	n/a	0	0	0
2250303	REC_WORD	wordpools/wasnorm_wordpool_576.txt	LTP269	ltpFR2	14	11	NOVEL	960	n/a	n/a	0	0	0
2254272	REC_WORD	wordpools/wasnorm_wordpool_576.txt	LTP269	ltpFR2	14	11	UNCLE	1536	n/a	n/a	0	0	0
2254766	REC_WORD	wordpools/wasnorm_wordpool_576.txt	LTP269	ltpFR2	14	11	GUARD	667	n/a	n/a	0	0	0
2255109	REC_WORD	wordpools/wasnorm_wordpool_576.txt	LTP269	ltpFR2	14	11	SEAL	1262	n/a	n/a	0	0	0
2258925	REC_WORD	wordpools/wasnorm_wordpool_576.txt	LTP269	ltpFR2	14	11	PASSAGE	1019	n/a	n/a	0	0	0
2259569	REC_WORD	wordpools/wasnorm_wordpool_576.txt	LTP269	ltpFR2	14	11	JOURNAL	760	n/a	n/a	0	0	0
2262532	REC_WORD	wordpools/wasnorm_wordpool_576.txt	LTP269	ltpFR2	14	11	PLATE	1086	n/a	n/a	0	0	0
2263290	REC_WORD	wordpools/wasnorm_wordpool_576.txt	LTP269	ltpFR2	14	11	DINER	467	n/a	n/a	0	0	0
2264330	REC_WORD	wordpools/wasnorm_wordpool_576.txt	LTP269	ltpFR2	14	11	OMELET	976	n/a	n/a	0	0	0
2265232	REC_WORD	wordpools/wasnorm_wordpool_576.txt	LTP269	ltpFR2	14	11	GRAPE	654	n/a	n/a	0	0	0
2267259	REC_WORD	wordpools/wasnorm_wordpool_576.txt	LTP269	ltpFR2	14	11	SWIMMER	1420	n/a	n/a	0	0	0
2270386	REC_WORD	wordpools/wasnorm_wordpool_576.txt	LTP269	ltpFR2	14	11	PEACH	1031	n/a	n/a	0	0	0
2270844	REC_WORD	wordpools/wasnorm_wordpool_576.txt	LTP269	ltpFR2	14	11	LAMP	798	n/a	n/a	0	0	0
2271338	REC_WORD	wordpools/wasnorm_wordpool_576.txt	LTP269	ltpFR2	14	11	POSSUM	1112	n/a	n/a	0	0	0
2272370	REC_WORD	wordpools/wasnorm_wordpool_576.txt	LTP269	ltpFR2	14	11	SERVER	1272	n/a	n/a	0	0	0
2278129	REC_WORD	wordpools/wasnorm_wordpool_576.txt	LTP269	ltpFR2	14	11	SUSPECT	1415	n/a	n/a	0	0	0
2281096	REC_WORD	wordpools/wasnorm_wordpool_576.txt	LTP269	ltpFR2	14	11	BLACKBOARD	133	n/a	n/a	0	0	0
2281731	REC_WORD	wordpools/wasnorm_wordpool_576.txt	LTP269	ltpFR2	14	11	BACKBONE	66	n/a	n/a	0	0	0
2297331	REC_WORD	wordpools/wasnorm_wordpool_576.txt	LTP269	ltpFR2	14	11	CARROT	249	n/a	n/a	0	0	0
2330802	DISTRACTOR	n/a	LTP269	ltpFR2	14	12	n/a	n/a	n/a	n/a	0	0	0
2330802	START	n/a	LTP269	ltpFR2	14	n/a	n/a	n/a	16	n/a	n/a	n/a	n/a
2330817	PROB	n/a	LTP269	ltpFR2	14	n/a	n/a	n/a	16	11	3	4	4
2332808	PROB	n/a	LTP269	ltpFR2	14	n/a	n/a	n/a	16	10	4	3	3
2334525	PROB	n/a	LTP269	ltpFR2	14	n/a	n/a	n/a	16	18	6	5	7
2336110	PROB	n/a	LTP269	ltpFR2	14	n/a	n/a	n/a	16	16	1	6	9
2337378	PROB	n/a	LTP269	ltpFR2	14	n/a	n/a	n/a	16	13	6	1	6
2338595	PROB	n/a	LTP269	ltpFR2	14	n/a	n/a	n/a	16	7	2	1	4
2339897	PROB	n/a	LTP269	ltpFR2	14	n/a	n/a	n/a	16	16	5	3	8
2341281	PROB	n/a	LTP269	ltpFR2	14	n/a	n/a	n/a	16	14	5	4	5
2343067	PROB	n/a	LTP269	ltpFR2	14	n/a	n/a	n/a	16	13	1	5	7
2344201	PROB	n/a	LTP269	ltpFR2	14	n/a	n/a	n/a	16	17	8	5	4
2345819	PROB	n/a	LTP269	ltpFR2	14	n/a	n/a	n/a	16	13	1	4	8
2347120	PROB	n/a	LTP269	ltpFR2	14	n/a	n/a	n/a	16	12	9	1	2
2348437	PROB	n/a	LTP269	ltpFR2	14	n/a	n/a	n/a	16	14	8	3	3
2350333	PROB	n/a	LTP269	ltpFR2	14	n/a	n/a	n/a	16	15	4	9	2
2352124	PROB	n/a	LTP269	ltpFR2	14	n/a	n/a	n/a	16	16	3	4	9
2353759	STOP	n/a	LTP269	ltpFR2	14	n/a	n/a	n/a	16	n/a	n/a	n/a	n/a
2355623	WORD	wordpools/wasnorm_wordpool_576.txt	LTP269	ltpFR2	14	12	WORKER	1621	n/a	n/a	0	0	0
2358042	WORD	wordpools/wasnorm_wordpool_576.txt	LTP269	ltpFR2	14	12	CLAM	315	n/a	n/a	0	0	0
2360643	WORD	wordpools/wasnorm_wordpool_576.txt	LTP269	ltpFR2	14	12	PIMPLE	1071	n/a	n/a	0	0	0
2363181	WORD	wordpools/wasnorm_wordpool_576.txt	LTP269	ltpFR2	14	12	NOMAD	955	n/a	n/a	0	0	0
2365849	WORD	wordpools/wasnorm_wordpool_576.txt	LTP269	ltpFR2	14	12	ROCKET	1202	n/a	n/a	0	0	0
2368569	WORD	wordpools/wasnorm_wordpool_576.txt	LTP269	ltpFR2	14	12	SEAFOOD	1260	n/a	n/a	0	0	0
2371237	WORD	wordpools/wasnorm_wordpool_576.txt	LTP269	ltpFR2	14	12	OUTLAW	989	n/a	n/a	0	0	0
2374057	WORD	wordpools/wasnorm_wordpool_576.txt	LTP269	ltpFR2	14	12	AIRPLANE	12	n/a	n/a	0	0	0
2376492	WORD	wordpools/wasnorm_wordpool_576.txt	LTP269	ltpFR2	14	12	CAMEL	223	n/a	n/a	0	0	0
2379310	WORD	wordpools/wasnorm_wordpool_576.txt	LTP269	ltpFR2	14	12	JELLY	755	n/a	n/a	0	0	0
2381997	WORD	wordpools/wasnorm_wordpool_576.txt	LTP269	ltpFR2	14	12	BUREAU	199	n/a	n/a	0	0	0
2384565	WORD	wordpools/wasnorm_wordpool_576.txt	LTP269	ltpFR2	14	12	SUNRISE	1407	n/a	n/a	0	0	0
2387185	WORD	wordpools/wasnorm_wordpool_576.txt	LTP269	ltpFR2	14	12	DASHBOARD	441	n/a	n/a	0	0	0
2389670	WORD	wordpools/wasnorm_wordpool_576.txt	LTP269	ltpFR2	14	12	WAGON	1578	n/a	n/a	0	0	0
2392138	WORD	wordpools/wasnorm_wordpool_576.txt	LTP269	ltpFR2	14	12	JURY	766	n/a	n/a	0	0	0
2394841	WORD	wordpools/wasnorm_wordpool_576.txt	LTP269	ltpFR2	14	12	LIGHTNING	820	n/a	n/a	0	0	0
2397309	WORD	wordpools/wasnorm_wordpool_576.txt	LTP269	ltpFR2	14	12	STATUE	1374	n/a	n/a	0	0	0
2400078	WORD	wordpools/wasnorm_wordpool_576.txt	LTP269	ltpFR2	14	12	KIDNEY	776	n/a	n/a	0	0	0
2402664	WORD	wordpools/wasnorm_wordpool_576.txt	LTP269	ltpFR2	14	12	INMATE	738	n/a	n/a	0	0	0
2405167	WORD	wordpools/wasnorm_wordpool_576.txt	LTP269	ltpFR2	14	12	LEG	809	n/a	n/a	0	0	0
2407835	WORD	wordpools/wasnorm_wordpool_576.txt	LTP269	ltpFR2	14	12	VALLEY	1545	n/a	n/a	0	0	0
2410488	WORD	wordpools/wasnorm_wordpool_576.txt	LTP269	ltpFR2	14	12	STALLION	1369	n/a	n/a	0	0	0
2413275	WORD	wordpools/wasnorm_wordpool_576.txt	LTP269	ltpFR2	14	12	BADGE	68	n/a	n/a	0	0	0
2415791	WORD	wordpools/wasnorm_wordpool_576.txt	LTP269	ltpFR2	14	12	SHERIFF	1284	n/a	n/a	0	0	0
2417410	START	n/a	LTP269	ltpFR2	14	n/a	n/a	n/a	17	n/a	n/a	n/a	n/a
2418450	DISTRACTOR	n/a	LTP269	ltpFR2	14	12	n/a	n/a	n/a	n/a	0	0	0
2418460	PROB	n/a	LTP269	ltpFR2	14	n/a	n/a	n/a	17	11	1	2	8
2419743	PROB	n/a	LTP269	ltpFR2	14	n/a	n/a	n/a	17	16	8	1	7
2421128	PROB	n/a	LTP269	ltpFR2	14	n/a	n/a	n/a	17	16	2	8	6
2422564	PROB	n/a	LTP269	ltpFR2	14	n/a	n/a	n/a	17	14	5	1	8
2424147	PROB	n/a	LTP269	ltpFR2	14	n/a	n/a	n/a	17	20	8	8	4
2425699	PROB	n/a	LTP269	ltpFR2	14	n/a	n/a	n/a	17	11	5	2	4
2428484	PROB	n/a	LTP269	ltpFR2	14	n/a	n/a	n/a	17	13	3	7	3
2429918	PROB	n/a	LTP269	ltpFR2	14	n/a	n/a	n/a	17	13	3	2	8
2431870	PROB	n/a	LTP269	ltpFR2	14	n/a	n/a	n/a	17	14	5	7	2
2433955	PROB	n/a	LTP269	ltpFR2	14	n/a	n/a	n/a	17	11	6	3	2
2435925	PROB	n/a	LTP269	ltpFR2	14	n/a	n/a	n/a	17	11	5	3	3
2438277	PROB	n/a	LTP269	ltpFR2	14	n/a	n/a	n/a	17	22	5	9	8
2440706	STOP	n/a	LTP269	ltpFR2	14	n/a	n/a	n/a	17	n/a	n/a	n/a	n/a
2443281	REC_START	n/a	LTP269	ltpFR2	14	12	n/a	n/a	n/a	n/a	0	0	0
2445370	REC_WORD_VV	wordpools/wasnorm_wordpool_576.txt	LTP269	ltpFR2	14	12	<>	-1	n/a	n/a	0	0	0
2446370	REC_WORD_VV	wordpools/wasnorm_wordpool_576.txt	LTP269	ltpFR2	14	12	<>	-1	n/a	n/a	0	0	0
2451095	REC_WORD	wordpools/wasnorm_wordpool_576.txt	LTP269	ltpFR2	14	12	WORKER	1621	n/a	n/a	0	0	0
2451559	REC_WORD	wordpools/wasnorm_wordpool_576.txt	LTP269	ltpFR2	14	12	CLAM	315	n/a	n/a	0	0	0
2452162	REC_WORD	wordpools/wasnorm_wordpool_576.txt	LTP269	ltpFR2	14	12	PIMPLE	1071	n/a	n/a	0	0	0
2452731	REC_WORD	wordpools/wasnorm_wordpool_576.txt	LTP269	ltpFR2	14	12	ROCKET	1202	n/a	n/a	0	0	0
2456111	REC_WORD	wordpools/wasnorm_wordpool_576.txt	LTP269	ltpFR2	14	12	NOMAD	955	n/a	n/a	0	0	0
2470629	REC_WORD	wordpools/wasnorm_wordpool_576.txt	LTP269	ltpFR2	14	12	INMATE	738	n/a	n/a	0	0	0
2473641	REC_WORD	wordpools/wasnorm_wordpool_576.txt	LTP269	ltpFR2	14	12	LEG	809	n/a	n/a	0	0	0
2476091	REC_WORD_VV	wordpools/wasnorm_wordpool_576.txt	LTP269	ltpFR2	14	12	<>	-1	n/a	n/a	0	0	0
2477091	REC_WORD_VV	wordpools/wasnorm_wordpool_576.txt	LTP269	ltpFR2	14	12	<>	-1	n/a	n/a	0	0	0
2481593	REC_WORD	wordpools/wasnorm_wordpool_576.txt	LTP269	ltpFR2	14	12	STALLION	1369	n/a	n/a	0	0	0
2482388	REC_WORD	wordpools/wasnorm_wordpool_576.txt	LTP269	ltpFR2	14	12	VALLEY	1545	n/a	n/a	0	0	0
2483106	REC_WORD	wordpools/wasnorm_wordpool_576.txt	LTP269	ltpFR2	14	12	BADGE	68	n/a	n/a	0	0	0
2485639	REC_WORD	wordpools/wasnorm_wordpool_576.txt	LTP269	ltpFR2	14	12	SHERIFF	1284	n/a	n/a	0	0	0
2533703	DISTRACTOR	n/a	LTP269	ltpFR2	14	13	n/a	n/a	n/a	n/a	0	0	0
2533703	START	n/a	LTP269	ltpFR2	14	n/a	n/a	n/a	18	n/a	n/a	n/a	n/a
2533718	PROB	n/a	LTP269	ltpFR2	14	n/a	n/a	n/a	18	11	5	1	5
2535136	PROB	n/a	LTP269	ltpFR2	14	n/a	n/a	n/a	18	20	9	7	4
2536805	PROB	n/a	LTP269	ltpFR2	14	n/a	n/a	n/a	18	21	7	7	7
2537921	PROB	n/a	LTP269	ltpFR2	14	n/a	n/a	n/a	18	9	6	2	1
2539073	PROB	n/a	LTP269	ltpFR2	14	n/a	n/a	n/a	18	12	3	3	6
2540491	PROB	n/a	LTP269	ltpFR2	14	n/a	n/a	n/a	18	14	5	2	7
2542276	PROB	n/a	LTP269	ltpFR2	14	n/a	n/a	n/a	18	21	7	8	6
2544228	PROB	n/a	LTP269	ltpFR2	14	n/a	n/a	n/a	18	11	2	3	6
2546128	PROB	n/a	LTP269	ltpFR2	14	n/a	n/a	n/a	18	17	6	8	3
2547915	PROB	n/a	LTP269	ltpFR2	14	n/a	n/a	n/a	18	9	2	2	5
2549266	PROB	n/a	LTP269	ltpFR2	14	n/a	n/a	n/a	18	15	5	6	4
2550581	PROB	n/a	LTP269	ltpFR2	14	n/a	n/a	n/a	18	12	1	5	6
2551933	PROB	n/a	LTP269	ltpFR2	14	n/a	n/a	n/a	18	19	8	2	9
2553084	PROB	n/a	LTP269	ltpFR2	14	n/a	n/a	n/a	18	13	2	4	7
2555054	PROB	n/a	LTP269	ltpFR2	14	n/a	n/a	n/a	18	18	5	7	6
2556511	STOP	n/a	LTP269	ltpFR2	14	n/a	n/a	n/a	18	n/a	n/a	n/a	n/a
2558750	WORD	wordpools/wasnorm_wordpool_576.txt	LTP269	ltpFR2	14	13	PROTON	1132	n/a	n/a	0	0	0
2561424	WORD	wordpools/wasnorm_wordpool_576.txt	LTP269	ltpFR2	14	13	FRUIT	610	n/a	n/a	0	0	0
2563844	WORD	wordpools/wasnorm_wordpool_576.txt	LTP269	ltpFR2	14	13	MONSTER	912	n/a	n/a	0	0	0
2566328	WORD	wordpools/wasnorm_wordpool_576.txt	LTP269	ltpFR2	14	13	SIBLING	1301	n/a	n/a	0	0	0
2569009	WORD	wordpools/wasnorm_wordpool_576.txt	LTP269	ltpFR2	14	13	SISTER	1312	n/a	n/a	0	0	0
2571528	WORD	wordpools/wasnorm_wordpool_576.txt	LTP269	ltpFR2	14	13	COMET	353	n/a	n/a	0	0	0
2574280	WORD	wordpools/wasnorm_wordpool_576.txt	LTP269	ltpFR2	14	13	PLASTER	1085	n/a	n/a	0	0	0
2576899	WORD	wordpools/wasnorm_wordpool_576.txt	LTP269	ltpFR2	14	13	BEAVER	109	n/a	n/a	0	0	0
2579484	WORD	wordpools/wasnorm_wordpool_576.txt	LTP269	ltpFR2	14	13	LADY	794	n/a	n/a	0	0	0
2582120	WORD	wordpools/wasnorm_wordpool_576.txt	LTP269	ltpFR2	14	13	BOUQUET	157	n/a	n/a	0	0	0
2584840	WORD	wordpools/wasnorm_wordpool_576.txt	LTP269	ltpFR2	14	13	CHEMIST	292	n/a	n/a	0	0	0
2587296	WORD	wordpools/wasnorm_wordpool_576.txt	LTP269	ltpFR2	14	13	CYCLONE	431	n/a	n/a	0	0	0
2589726	WORD	wordpools/wasnorm_wordpool_576.txt	LTP269	ltpFR2	14	13	RUG	1215	n/a	n/a	0	0	0
2592413	WORD	wordpools/wasnorm_wordpool_576.txt	LTP269	ltpFR2	14	13	BEAST	108	n/a	n/a	0	0	0
2595032	WORD	wordpools/wasnorm_wordpool_576.txt	LTP269	ltpFR2	14	13	ISLAND	745	n/a	n/a	0	0	0
2597466	WORD	wordpools/wasnorm_wordpool_576.txt	LTP269	ltpFR2	14	13	PEANUT	1032	n/a	n/a	0	0	0
2600036	WORD	wordpools/wasnorm_wordpool_576.txt	LTP269	ltpFR2	14	13	MISSILE	900	n/a	n/a	0	0	0
2602575	WORD	wordpools/wasnorm_wordpool_576.txt	LTP269	ltpFR2	14	13	CRIB	407	n/a	n/a	0	0	0
2605259	WORD	wordpools/wasnorm_wordpool_576.txt	LTP269	ltpFR2	14	13	CARRIAGE	248	n/a	n/a	0	0	0
2607726	WORD	wordpools/wasnorm_wordpool_576.txt	LTP269	ltpFR2	14	13	TRANSPLANT	1496	n/a	n/a	0	0	0
2610144	WORD	wordpools/wasnorm_wordpool_576.txt	LTP269	ltpFR2	14	13	TAXI	1438	n/a	n/a	0	0	0
2612765	WORD	wordpools/wasnorm_wordpool_576.txt	LTP269	ltpFR2	14	13	TRACTOR	1493	n/a	n/a	0	0	0
2615217	WORD	wordpools/wasnorm_wordpool_576.txt	LTP269	ltpFR2	14	13	MOP	916	n/a	n/a	0	0	0
2617935	WORD	wordpools/wasnorm_wordpool_576.txt	LTP269	ltpFR2	14	13	GOBLIN	645	n/a	n/a	0	0	0
2619554	START	n/a	LTP269	ltpFR2	14	n/a	n/a	n/a	19	n/a	n/a	n/a	n/a
2620454	DISTRACTOR	n/a	LTP269	ltpFR2	14	13	n/a	n/a	n/a	n/a	0	0	0
2620470	PROB	n/a	LTP269	ltpFR2	14	n/a	n/a	n/a	19	16	2	5	9
2623692	PROB	n/a	LTP269	ltpFR2	14	n/a	n/a	n/a	19	8	1	5	2
2625277	PROB	n/a	LTP269	ltpFR2	14	n/a	n/a	n/a	19	10	2	7	1
2626575	PROB	n/a	LTP269	ltpFR2	14	n/a	n/a	n/a	19	17	6	2	9
2628846	PROB	n/a	LTP269	ltpFR2	14	n/a	n/a	n/a	19	11	6	4	1
2630078	PROB	n/a	LTP269	ltpFR2	14	n/a	n/a	n/a	19	21	3	9	9
2631665	PROB	n/a	LTP269	ltpFR2	14	n/a	n/a	n/a	19	9	1	5	3
2633133	PROB	n/a	LTP269	ltpFR2	14	n/a	n/a	n/a	19	15	3	5	7
2634549	PROB	n/a	LTP269	ltpFR2	14	n/a	n/a	n/a	19	26	8	9	9
2636968	PROB	n/a	LTP269	ltpFR2	14	n/a	n/a	n/a	19	12	2	1	9
2638119	PROB	n/a	LTP269	ltpFR2	14	n/a	n/a	n/a	19	17	6	4	7
2639505	PROB	n/a	LTP269	ltpFR2	14	n/a	n/a	n/a	19	12	1	8	3
2640755	PROB	n/a	LTP269	ltpFR2	14	n/a	n/a	n/a	19	17	5	8	4
2642794	STOP	n/a	LTP269	ltpFR2	14	n/a	n/a	n/a	19	n/a	n/a	n/a	n/a
2645477	REC_START	n/a	LTP269	ltpFR2	14	13	n/a	n/a	n/a	n/a	0	0	0
2649657	REC_WORD	wordpools/wasnorm_wordpool_576.txt	LTP269	ltpFR2	14	13	MONSTER	912	n/a	n/a	0	0	0
2652936	REC_WORD	wordpools/wasnorm_wordpool_576.txt	LTP269	ltpFR2	14	13	SIBLING	1301	n/a	n/a	0	0	0
2653967	REC_WORD	wordpools/wasnorm_wordpool_576.txt	LTP269	ltpFR2	14	13	SISTER	1312	n/a	n/a	0	0	0
2656148	REC_WORD	wordpools/wasnorm_wordpool_576.txt	LTP269	ltpFR2	14	13	PLASTER	1085	n/a	n/a	0	0	0
2658424	REC_WORD	wordpools/wasnorm_wordpool_576.txt	LTP269	ltpFR2	14	13	BEAVER	109	n/a	n/a	0	0	0
2662037	REC_WORD	wordpools/wasnorm_wordpool_576.txt	LTP269	ltpFR2	14	13	CARRIAGE	248	n/a	n/a	0	0	0
2662786	REC_WORD	wordpools/wasnorm_wordpool_576.txt	LTP269	ltpFR2	14	13	RUG	1215	n/a	n/a	0	0	0
2663589	REC_WORD	wordpools/wasnorm_wordpool_576.txt	LTP269	ltpFR2	14	13	TAXI	1438	n/a	n/a	0	0	0
2667322	REC_WORD	wordpools/wasnorm_wordpool_576.txt	LTP269	ltpFR2	14	13	BEAST	108	n/a	n/a	0	0	0
2669493	REC_WORD	wordpools/wasnorm_wordpool_576.txt	LTP269	ltpFR2	14	13	CYCLONE	431	n/a	n/a	0	0	0
2673126	REC_WORD	wordpools/wasnorm_wordpool_576.txt	LTP269	ltpFR2	14	13	CHEMIST	292	n/a	n/a	0	0	0
2674296	REC_WORD	wordpools/wasnorm_wordpool_576.txt	LTP269	ltpFR2	14	13	BOUQUET	157	n/a	n/a	0	0	0
2680537	REC_WORD	wordpools/wasnorm_wordpool_576.txt	LTP269	ltpFR2	14	13	MISSILE	900	n/a	n/a	0	0	0
2735914	WORD	wordpools/wasnorm_wordpool_576.txt	LTP269	ltpFR2	14	14	FIREMAN	569	n/a	n/a	0	0	0
2738333	WORD	wordpools/wasnorm_wordpool_576.txt	LTP269	ltpFR2	14	14	COURSE	390	n/a	n/a	0	0	0
2740985	WORD	wordpools/wasnorm_wordpool_576.txt	LTP269	ltpFR2	14	14	TRIBE	1505	n/a	n/a	0	0	0
2743511	WORD	wordpools/wasnorm_wordpool_576.txt	LTP269	ltpFR2	14	14	MACHINE	852	n/a	n/a	0	0	0
2746297	WORD	wordpools/wasnorm_wordpool_576.txt	LTP269	ltpFR2	14	14	BANQUET	86	n/a	n/a	0	0	0
2749059	WORD	wordpools/wasnorm_wordpool_576.txt	LTP269	ltpFR2	14	14	VENUS	1557	n/a	n/a	0	0	0
2751768	WORD	wordpools/wasnorm_wordpool_576.txt	LTP269	ltpFR2	14	14	MARS	873	n/a	n/a	0	0	0
2754530	WORD	wordpools/wasnorm_wordpool_576.txt	LTP269	ltpFR2	14	14	CREVICE	405	n/a	n/a	0	0	0
2757349	WORD	wordpools/wasnorm_wordpool_576.txt	LTP269	ltpFR2	14	14	SHELF	1280	n/a	n/a	0	0	0
2760092	WORD	wordpools/wasnorm_wordpool_576.txt	LTP269	ltpFR2	14	14	NOTEBOOK	959	n/a	n/a	0	0	0
2762695	WORD	wordpools/wasnorm_wordpool_576.txt	LTP269	ltpFR2	14	14	TUNNEL	1519	n/a	n/a	0	0	0
2765205	WORD	wordpools/wasnorm_wordpool_576.txt	LTP269	ltpFR2	14	14	SUBWAY	1400	n/a	n/a	0	0	0
2767691	WORD	wordpools/wasnorm_wordpool_576.txt	LTP269	ltpFR2	14	14	PUPIL	1143	n/a	n/a	0	0	0
2770359	WORD	wordpools/wasnorm_wordpool_576.txt	LTP269	ltpFR2	14	14	SCISSORS	1250	n/a	n/a	0	0	0
2773020	WORD	wordpools/wasnorm_wordpool_576.txt	LTP269	ltpFR2	14	14	GARDEN	623	n/a	n/a	0	0	0
2775774	WORD	wordpools/wasnorm_wordpool_576.txt	LTP269	ltpFR2	14	14	TURNIP	1521	n/a	n/a	0	0	0
2778500	WORD	wordpools/wasnorm_wordpool_576.txt	LTP269	ltpFR2	14	14	CRATER	400	n/a	n/a	0	0	0
2781068	WORD	wordpools/wasnorm_wordpool_576.txt	LTP269	ltpFR2	14	14	LAPEL	800	n/a	n/a	0	0	0
2783763	WORD	wordpools/wasnorm_wordpool_576.txt	LTP269	ltpFR2	14	14	EXPERT	543	n/a	n/a	0	0	0
2786299	WORD	wordpools/wasnorm_wordpool_576.txt	LTP269	ltpFR2	14	14	SHARK	1275	n/a	n/a	0	0	0
2789025	WORD	wordpools/wasnorm_wordpool_576.txt	LTP269	ltpFR2	14	14	BUBBLE	183	n/a	n/a	0	0	0
2791676	WORD	wordpools/wasnorm_wordpool_576.txt	LTP269	ltpFR2	14	14	ROBOT	1200	n/a	n/a	0	0	0
2794306	WORD	wordpools/wasnorm_wordpool_576.txt	LTP269	ltpFR2	14	14	SKILLET	1317	n/a	n/a	0	0	0
2796774	WORD	wordpools/wasnorm_wordpool_576.txt	LTP269	ltpFR2	14	14	PACKAGE	997	n/a	n/a	0	0	0
2798382	START	n/a	LTP269	ltpFR2	14	n/a	n/a	n/a	20	n/a	n/a	n/a	n/a
2799445	DISTRACTOR	n/a	LTP269	ltpFR2	14	14	n/a	n/a	n/a	n/a	0	0	0
2799450	PROB	n/a	LTP269	ltpFR2	14	n/a	n/a	n/a	20	12	6	3	3
2800866	PROB	n/a	LTP269	ltpFR2	14	n/a	n/a	n/a	20	24	9	6	9
2803034	PROB	n/a	LTP269	ltpFR2	14	n/a	n/a	n/a	20	15	2	8	5
2804703	PROB	n/a	LTP269	ltpFR2	14	n/a	n/a	n/a	20	12	7	5	2
2805988	PROB	n/a	LTP269	ltpFR2	14	n/a	n/a	n/a	20	7	1	4	2
2808155	PROB	n/a	LTP269	ltpFR2	14	n/a	n/a	n/a	20	22	9	5	9
2811674	PROB	n/a	LTP269	ltpFR2	14	n/a	n/a	n/a	20	9	2	2	5
2814910	PROB	n/a	LTP269	ltpFR2	14	n/a	n/a	n/a	20	18	7	5	6
2816247	PROB	n/a	LTP269	ltpFR2	14	n/a	n/a	n/a	20	13	5	3	5
2818948	PROB	n/a	LTP269	ltpFR2	14	n/a	n/a	n/a	20	14	6	5	3
2822381	STOP	n/a	LTP269	ltpFR2	14	n/a	n/a	n/a	20	n/a	n/a	n/a	n/a
2824136	REC_START	n/a	LTP269	ltpFR2	14	14	n/a	n/a	n/a	n/a	0	0	0
2824972	REC_WORD	wordpools/wasnorm_wordpool_576.txt	LTP269	ltpFR2	14	14	FIREMAN	569	n/a	n/a	0	0	0
2829088	REC_WORD	wordpools/wasnorm_wordpool_576.txt	LTP269	ltpFR2	14	14	BANQUET	86	n/a	n/a	0	0	0
2829681	REC_WORD	wordpools/wasnorm_wordpool_576.txt	LTP269	ltpFR2	14	14	MACHINE	852	n/a	n/a	0	0	0
2830680	REC_WORD	wordpools/wasnorm_wordpool_576.txt	LTP269	ltpFR2	14	14	COURSE	390	n/a	n/a	0	0	0
2831284	REC_WORD	wordpools/wasnorm_wordpool_576.txt	LTP269	ltpFR2	14	14	TRIBE	1505	n/a	n/a	0	0	0
2833316	REC_WORD	wordpools/wasnorm_wordpool_576.txt	LTP269	ltpFR2	14	14	CREVICE	405	n/a	n/a	0	0	0
2839375	REC_WORD	wordpools/wasnorm_wordpool_576.txt	LTP269	ltpFR2	14	14	PACKAGE	997	n/a	n/a	0	0	0
2914592	DISTRACTOR	n/a	LTP269	ltpFR2	14	15	n/a	n/a	n/a	n/a	0	0	0
2914592	START	n/a	LTP269	ltpFR2	14	n/a	n/a	n/a	21	n/a	n/a	n/a	n/a
2914608	PROB	n/a	LTP269	ltpFR2	14	n/a	n/a	n/a	21	8	3	1	4
2915975	PROB	n/a	LTP269	ltpFR2	14	n/a	n/a	n/a	21	15	6	7	2
2917644	PROB	n/a	LTP269	ltpFR2	14	n/a	n/a	n/a	21	20	3	8	9
2919661	PROB	n/a	LTP269	ltpFR2	14	n/a	n/a	n/a	21	11	1	9	1
2920779	PROB	n/a	LTP269	ltpFR2	14	n/a	n/a	n/a	21	18	5	4	9
2922198	PROB	n/a	LTP269	ltpFR2	14	n/a	n/a	n/a	21	9	1	1	7
2923215	PROB	n/a	LTP269	ltpFR2	14	n/a	n/a	n/a	21	5	2	1	2
2924581	PROB	n/a	LTP269	ltpFR2	14	n/a	n/a	n/a	21	22	9	5	8
2926467	PROB	n/a	LTP269	ltpFR2	14	n/a	n/a	n/a	21	15	9	2	4
2928819	PROB	n/a	LTP269	ltpFR2	14	n/a	n/a	n/a	21	22	6	8	8
2931656	PROB	n/a	LTP269	ltpFR2	14	n/a	n/a	n/a	21	10	6	3	1
2933273	PROB	n/a	LTP269	ltpFR2	14	n/a	n/a	n/a	21	16	6	2	8
2934873	PROB	n/a	LTP269	ltpFR2	14	n/a	n/a	n/a	21	26	8	9	9
2936941	PROB	n/a	LTP269	ltpFR2	14	n/a	n/a	n/a	21	12	9	2	1
2938110	STOP	n/a	LTP269	ltpFR2	14	n/a	n/a	n/a	21	n/a	n/a	n/a	n/a
2939678	WORD	wordpools/wasnorm_wordpool_576.txt	LTP269	ltpFR2	14	15	HARP	689	n/a	n/a	0	0	0
2942368	WORD	wordpools/wasnorm_wordpool_576.txt	LTP269	ltpFR2	14	15	MAPLE	866	n/a	n/a	0	0	0
2945117	WORD	wordpools/wasnorm_wordpool_576.txt	LTP269	ltpFR2	14	15	FLUTE	585	n/a	n/a	0	0	0
2947535	WORD	wordpools/wasnorm_wordpool_576.txt	LTP269	ltpFR2	14	15	COUNTRY	388	n/a	n/a	0	0	0
2950337	WORD	wordpools/wasnorm_wordpool_576.txt	LTP269	ltpFR2	14	15	GLOBE	641	n/a	n/a	0	0	0
2952839	WORD	wordpools/wasnorm_wordpool_576.txt	LTP269	ltpFR2	14	15	CLAMP	316	n/a	n/a	0	0	0
2955441	WORD	wordpools/wasnorm_wordpool_576.txt	LTP269	ltpFR2	14	15	RIFLE	1192	n/a	n/a	0	0	0
2958131	WORD	wordpools/wasnorm_wordpool_576.txt	LTP269	ltpFR2	14	15	GANGSTER	620	n/a	n/a	0	0	0
2960696	WORD	wordpools/wasnorm_wordpool_576.txt	LTP269	ltpFR2	14	15	CURTAIN	427	n/a	n/a	0	0	0
2963166	WORD	wordpools/wasnorm_wordpool_576.txt	LTP269	ltpFR2	14	15	PADDLE	1000	n/a	n/a	0	0	0
2965800	WORD	wordpools/wasnorm_wordpool_576.txt	LTP269	ltpFR2	14	15	AUTHOR	61	n/a	n/a	0	0	0
2968452	WORD	wordpools/wasnorm_wordpool_576.txt	LTP269	ltpFR2	14	15	SOFTBALL	1343	n/a	n/a	0	0	0
2971105	WORD	wordpools/wasnorm_wordpool_576.txt	LTP269	ltpFR2	14	15	FOREST	593	n/a	n/a	0	0	0
2973562	WORD	wordpools/wasnorm_wordpool_576.txt	LTP269	ltpFR2	14	15	YACHT	1629	n/a	n/a	0	0	0
2976042	WORD	wordpools/wasnorm_wordpool_576.txt	LTP269	ltpFR2	14	15	BIKE	125	n/a	n/a	0	0	0
2978660	WORD	wordpools/wasnorm_wordpool_576.txt	LTP269	ltpFR2	14	15	RACKET	1155	n/a	n/a	0	0	0
2981180	WORD	wordpools/wasnorm_wordpool_576.txt	LTP269	ltpFR2	14	15	MAILMAN	858	n/a	n/a	0	0	0
2983703	WORD	wordpools/wasnorm_wordpool_576.txt	LTP269	ltpFR2	14	15	BRANCH	168	n/a	n/a	0	0	0
2986216	WORD	wordpools/wasnorm_wordpool_576.txt	LTP269	ltpFR2	14	15	GRIZZLY	662	n/a	n/a	0	0	0
2988985	WORD	wordpools/wasnorm_wordpool_576.txt	LTP269	ltpFR2	14	15	LUNCH	849	n/a	n/a	0	0	0
2991728	WORD	wordpools/wasnorm_wordpool_576.txt	LTP269	ltpFR2	14	15	BUCKET	184	n/a	n/a	0	0	0
2994414	WORD	wordpools/wasnorm_wordpool_576.txt	LTP269	ltpFR2	14	15	FRIEND	606	n/a	n/a	0	0	0
2996941	WORD	wordpools/wasnorm_wordpool_576.txt	LTP269	ltpFR2	14	15	BRAKE	166	n/a	n/a	0	0	0
2999417	WORD	wordpools/wasnorm_wordpool_576.txt	LTP269	ltpFR2	14	15	BLOCKADE	137	n/a	n/a	0	0	0
3001029	START	n/a	LTP269	ltpFR2	14	n/a	n/a	n/a	22	n/a	n/a	n/a	n/a
3001912	DISTRACTOR	n/a	LTP269	ltpFR2	14	15	n/a	n/a	n/a	n/a	0	0	0
3001920	PROB	n/a	LTP269	ltpFR2	14	n/a	n/a	n/a	22	11	1	8	2
3003896	PROB	n/a	LTP269	ltpFR2	14	n/a	n/a	n/a	22	17	6	6	5
3005465	PROB	n/a	LTP269	ltpFR2	14	n/a	n/a	n/a	22	22	9	9	4
3007166	PROB	n/a	LTP269	ltpFR2	14	n/a	n/a	n/a	22	13	2	6	5
3008683	PROB	n/a	LTP269	ltpFR2	14	n/a	n/a	n/a	22	19	8	7	4
3010835	PROB	n/a	LTP269	ltpFR2	14	n/a	n/a	n/a	22	15	7	1	7
3011968	PROB	n/a	LTP269	ltpFR2	14	n/a	n/a	n/a	22	6	1	3	2
3013120	PROB	n/a	LTP269	ltpFR2	14	n/a	n/a	n/a	22	22	9	7	6
3014520	PROB	n/a	LTP269	ltpFR2	14	n/a	n/a	n/a	22	17	2	8	7
3015873	PROB	n/a	LTP269	ltpFR2	14	n/a	n/a	n/a	22	14	7	2	5
3018540	PROB	n/a	LTP269	ltpFR2	14	n/a	n/a	n/a	22	12	2	3	7
3020442	PROB	n/a	LTP269	ltpFR2	14	n/a	n/a	n/a	22	17	5	6	6
3022244	PROB	n/a	LTP269	ltpFR2	14	n/a	n/a	n/a	22	14	4	9	1
3024594	STOP	n/a	LTP269	ltpFR2	14	n/a	n/a	n/a	22	n/a	n/a	n/a	n/a
3026931	REC_START	n/a	LTP269	ltpFR2	14	15	n/a	n/a	n/a	n/a	0	0	0
3026934	REC_WORD	wordpools/wasnorm_wordpool_576.txt	LTP269	ltpFR2	14	15	BUCKET	184	n/a	n/a	0	0	0
3029425	REC_WORD	wordpools/wasnorm_wordpool_576.txt	LTP269	ltpFR2	14	15	BUCKET	184	n/a	n/a	0	0	0
3029926	REC_WORD	wordpools/wasnorm_wordpool_576.txt	LTP269	ltpFR2	14	15	GRIZZLY	662	n/a	n/a	0	0	0
3030690	REC_WORD	wordpools/wasnorm_wordpool_576.txt	LTP269	ltpFR2	14	15	BRANCH	168	n/a	n/a	0	0	0
3031800	REC_WORD	wordpools/wasnorm_wordpool_576.txt	LTP269	ltpFR2	14	15	MAILMAN	858	n/a	n/a	0	0	0
3033852	REC_WORD_VV	wordpools/wasnorm_wordpool_576.txt	LTP269	ltpFR2	14	15	<>	-1	n/a	n/a	0	0	0
3034852	REC_WORD_VV	wordpools/wasnorm_wordpool_576.txt	LTP269	ltpFR2	14	15	<>	-1	n/a	n/a	0	0	0
3035849	REC_WORD	wordpools/wasnorm_wordpool_576.txt	LTP269	ltpFR2	14	15	RIFLE	1192	n/a	n/a	0	0	0
3036515	REC_WORD	wordpools/wasnorm_wordpool_576.txt	LTP269	ltpFR2	14	15	GANGSTER	620	n/a	n/a	0	0	0
3038207	REC_WORD	wordpools/wasnorm_wordpool_576.txt	LTP269	ltpFR2	14	15	PADDLE	1000	n/a	n/a	0	0	0
3041610	REC_WORD	wordpools/wasnorm_wordpool_576.txt	LTP269	ltpFR2	14	15	CURTAIN	427	n/a	n/a	0	0	0
3045359	REC_WORD	wordpools/wasnorm_wordpool_576.txt	LTP269	ltpFR2	14	15	COUNTRY	388	n/a	n/a	0	0	0
3117387	DISTRACTOR	n/a	LTP269	ltpFR2	14	16	n/a	n/a	n/a	n/a	0	0	0
3117387	START	n/a	LTP269	ltpFR2	14	n/a	n/a	n/a	23	n/a	n/a	n/a	n/a
3117405	PROB	n/a	LTP269	ltpFR2	14	n/a	n/a	n/a	23	21	8	7	6
3119106	PROB	n/a	LTP269	ltpFR2	14	n/a	n/a	n/a	23	7	2	1	4
3120890	PROB	n/a	LTP269	ltpFR2	14	n/a	n/a	n/a	23	18	4	9	5
3122624	PROB	n/a	LTP269	ltpFR2	14	n/a	n/a	n/a	23	6	1	2	3
3123642	PROB	n/a	LTP269	ltpFR2	14	n/a	n/a	n/a	23	13	3	9	1
3124827	PROB	n/a	LTP269	ltpFR2	14	n/a	n/a	n/a	23	14	2	6	6
3126027	PROB	n/a	LTP269	ltpFR2	14	n/a	n/a	n/a	23	14	3	7	4
3128213	PROB	n/a	LTP269	ltpFR2	14	n/a	n/a	n/a	23	16	4	5	7
3130232	PROB	n/a	LTP269	ltpFR2	14	n/a	n/a	n/a	23	14	8	1	5
3131632	PROB	n/a	LTP269	ltpFR2	14	n/a	n/a	n/a	23	23	5	9	9
3133167	PROB	n/a	LTP269	ltpFR2	14	n/a	n/a	n/a	23	9	3	5	1
3134383	PROB	n/a	LTP269	ltpFR2	14	n/a	n/a	n/a	23	20	9	3	8
3136202	PROB	n/a	LTP269	ltpFR2	14	n/a	n/a	n/a	23	22	7	6	9
3139172	PROB	n/a	LTP269	ltpFR2	14	n/a	n/a	n/a	23	10	2	5	3
3140710	STOP	n/a	LTP269	ltpFR2	14	n/a	n/a	n/a	23	n/a	n/a	n/a	n/a
3142508	WORD	wordpools/wasnorm_wordpool_576.txt	LTP269	ltpFR2	14	16	DENTIST	447	n/a	n/a	0	0	0
3145160	WORD	wordpools/wasnorm_wordpool_576.txt	LTP269	ltpFR2	14	16	COFFEE	341	n/a	n/a	0	0	0
3147679	WORD	wordpools/wasnorm_wordpool_576.txt	LTP269	ltpFR2	14	16	CUPBOARD	425	n/a	n/a	0	0	0
3150347	WORD	wordpools/wasnorm_wordpool_576.txt	LTP269	ltpFR2	14	16	TUBA	1515	n/a	n/a	0	0	0
3152966	WORD	wordpools/wasnorm_wordpool_576.txt	LTP269	ltpFR2	14	16	MARSH	874	n/a	n/a	0	0	0
3155419	WORD	wordpools/wasnorm_wordpool_576.txt	LTP269	ltpFR2	14	16	POISON	1096	n/a	n/a	0	0	0
3157853	WORD	wordpools/wasnorm_wordpool_576.txt	LTP269	ltpFR2	14	16	COBRA	336	n/a	n/a	0	0	0
3160574	WORD	wordpools/wasnorm_wordpool_576.txt	LTP269	ltpFR2	14	16	SHRUB	1299	n/a	n/a	0	0	0
3163341	WORD	wordpools/wasnorm_wordpool_576.txt	LTP269	ltpFR2	14	16	ULCER	1533	n/a	n/a	0	0	0
3165877	WORD	wordpools/wasnorm_wordpool_576.txt	LTP269	ltpFR2	14	16	COUCH	386	n/a	n/a	0	0	0
3168463	WORD	wordpools/wasnorm_wordpool_576.txt	LTP269	ltpFR2	14	16	DORM	488	n/a	n/a	0	0	0
3170930	WORD	wordpools/wasnorm_wordpool_576.txt	LTP269	ltpFR2	14	16	CONCERT	360	n/a	n/a	0	0	0
3173467	WORD	wordpools/wasnorm_wordpool_576.txt	LTP269	ltpFR2	14	16	VIRUS	1572	n/a	n/a	0	0	0
3176101	WORD	wordpools/wasnorm_wordpool_576.txt	LTP269	ltpFR2	14	16	THRONE	1461	n/a	n/a	0	0	0
3178570	WORD	wordpools/wasnorm_wordpool_576.txt	LTP269	ltpFR2	14	16	DIME	466	n/a	n/a	0	0	0
3181224	WORD	wordpools/wasnorm_wordpool_576.txt	LTP269	ltpFR2	14	16	PATIENT	1024	n/a	n/a	0	0	0
3183678	WORD	wordpools/wasnorm_wordpool_576.txt	LTP269	ltpFR2	14	16	SWAMP	1416	n/a	n/a	0	0	0
3186147	WORD	wordpools/wasnorm_wordpool_576.txt	LTP269	ltpFR2	14	16	DAISY	435	n/a	n/a	0	0	0
3188679	WORD	wordpools/wasnorm_wordpool_576.txt	LTP269	ltpFR2	14	16	RIVER	1194	n/a	n/a	0	0	0
3191463	WORD	wordpools/wasnorm_wordpool_576.txt	LTP269	ltpFR2	14	16	PARSLEY	1016	n/a	n/a	0	0	0
3194083	WORD	wordpools/wasnorm_wordpool_576.txt	LTP269	ltpFR2	14	16	FARMER	553	n/a	n/a	0	0	0
3196502	WORD	wordpools/wasnorm_wordpool_576.txt	LTP269	ltpFR2	14	16	TOASTER	1472	n/a	n/a	0	0	0
3199153	WORD	wordpools/wasnorm_wordpool_576.txt	LTP269	ltpFR2	14	16	WORLD	1622	n/a	n/a	0	0	0
3201961	WORD	wordpools/wasnorm_wordpool_576.txt	LTP269	ltpFR2	14	16	ROBBER	1197	n/a	n/a	0	0	0
3203575	START	n/a	LTP269	ltpFR2	14	n/a	n/a	n/a	24	n/a	n/a	n/a	n/a
3204773	DISTRACTOR	n/a	LTP269	ltpFR2	14	16	n/a	n/a	n/a	n/a	0	0	0
3204780	PROB	n/a	LTP269	ltpFR2	14	n/a	n/a	n/a	24	7	3	2	2
3208459	PROB	n/a	LTP269	ltpFR2	14	n/a	n/a	n/a	24	9	1	5	3
3210197	PROB	n/a	LTP269	ltpFR2	14	n/a	n/a	n/a	24	17	5	9	3
3211946	PROB	n/a	LTP269	ltpFR2	14	n/a	n/a	n/a	24	19	7	3	9
3213049	PROB	n/a	LTP269	ltpFR2	14	n/a	n/a	n/a	24	16	7	4	5
3214750	PROB	n/a	LTP269	ltpFR2	14	n/a	n/a	n/a	24	17	6	2	9
3218485	PROB	n/a	LTP269	ltpFR2	14	n/a	n/a	n/a	24	20	6	8	6
3219836	PROB	n/a	LTP269	ltpFR2	14	n/a	n/a	n/a	24	9	6	2	1
3220870	PROB	n/a	LTP269	ltpFR2	14	n/a	n/a	n/a	24	11	8	2	1
3222271	PROB	n/a	LTP269	ltpFR2	14	n/a	n/a	n/a	24	23	7	7	9
3225325	PROB	n/a	LTP269	ltpFR2	14	n/a	n/a	n/a	24	7	1	3	3
3226714	STOP	n/a	LTP269	ltpFR2	14	n/a	n/a	n/a	24	n/a	n/a	n/a	n/a
3229461	REC_START	n/a	LTP269	ltpFR2	14	16	n/a	n/a	n/a	n/a	0	0	0
3237539	REC_WORD_VV	wordpools/wasnorm_wordpool_576.txt	LTP269	ltpFR2	14	16	<>	-1	n/a	n/a	0	0	0
3238539	REC_WORD_VV	wordpools/wasnorm_wordpool_576.txt	LTP269	ltpFR2	14	16	<>	-1	n/a	n/a	0	0	0
3238877	REC_WORD	wordpools/wasnorm_wordpool_576.txt	LTP269	ltpFR2	14	16	DENTIST	447	n/a	n/a	0	0	0
3239421	REC_WORD	wordpools/wasnorm_wordpool_576.txt	LTP269	ltpFR2	14	16	COFFEE	341	n/a	n/a	0	0	0
3241365	REC_WORD_VV	wordpools/wasnorm_wordpool_576.txt	LTP269	ltpFR2	14	16	<>	-1	n/a	n/a	0	0	0
3241662	REC_WORD	wordpools/wasnorm_wordpool_576.txt	LTP269	ltpFR2	14	16	CUPBOARD	425	n/a	n/a	0	0	0
3242352	REC_WORD	wordpools/wasnorm_wordpool_576.txt	LTP269	ltpFR2	14	16	TUBA	1515	n/a	n/a	0	0	0
3243789	REC_WORD	wordpools/wasnorm_wordpool_576.txt	LTP269	ltpFR2	14	16	POISON	1096	n/a	n/a	0	0	0
3244240	REC_WORD	wordpools/wasnorm_wordpool_576.txt	LTP269	ltpFR2	14	16	MARSH	874	n/a	n/a	0	0	0
3245645	REC_WORD	wordpools/wasnorm_wordpool_576.txt	LTP269	ltpFR2	14	16	COBRA	336	n/a	n/a	0	0	0
3247607	REC_WORD	wordpools/wasnorm_wordpool_576.txt	LTP269	ltpFR2	14	16	BUSHES	-1	n/a	n/a	0	0	0
3252195	REC_WORD	wordpools/wasnorm_wordpool_576.txt	LTP269	ltpFR2	14	16	ULCER	1533	n/a	n/a	0	0	0
3252799	REC_WORD	wordpools/wasnorm_wordpool_576.txt	LTP269	ltpFR2	14	16	COUCH	386	n/a	n/a	0	0	0
3253425	REC_WORD	wordpools/wasnorm_wordpool_576.txt	LTP269	ltpFR2	14	16	DORM	488	n/a	n/a	0	0	0
3256811	REC_WORD	wordpools/wasnorm_wordpool_576.txt	LTP269	ltpFR2	14	16	SWAMP	1416	n/a	n/a	0	0	0
3257680	REC_WORD	wordpools/wasnorm_wordpool_576.txt	LTP269	ltpFR2	14	16	DAISY	435	n/a	n/a	0	0	0
3258194	REC_WORD	wordpools/wasnorm_wordpool_576.txt	LTP269	ltpFR2	14	16	RIVER	1194	n/a	n/a	0	0	0
3259588	REC_WORD	wordpools/wasnorm_wordpool_576.txt	LTP269	ltpFR2	14	16	PARSLEY	1016	n/a	n/a	0	0	0
3260931	REC_WORD	wordpools/wasnorm_wordpool_576.txt	LTP269	ltpFR2	14	16	FARMER	553	n/a	n/a	0	0	0
3262829	REC_WORD	wordpools/wasnorm_wordpool_576.txt	LTP269	ltpFR2	14	16	TOASTER	1472	n/a	n/a	0	0	0
3264778	REC_WORD	wordpools/wasnorm_wordpool_576.txt	LTP269	ltpFR2	14	16	ROBBER	1197	n/a	n/a	0	0	0
3305989	REST_REWET	n/a	LTP269	ltpFR2	14	16	n/a	n/a	n/a	n/a	0	0	0
3505583	DISTRACTOR	n/a	LTP269	ltpFR2	14	17	n/a	n/a	n/a	n/a	0	0	0
3505583	START	n/a	LTP269	ltpFR2	14	n/a	n/a	n/a	25	n/a	n/a	n/a	n/a
3505598	PROB	n/a	LTP269	ltpFR2	14	n/a	n/a	n/a	25	18	8	2	8
3506932	PROB	n/a	LTP269	ltpFR2	14	n/a	n/a	n/a	25	4	6	2	9
3508869	PROB	n/a	LTP269	ltpFR2	14	n/a	n/a	n/a	25	9	2	6	1
3510453	PROB	n/a	LTP269	ltpFR2	14	n/a	n/a	n/a	25	18	7	5	6
3511769	PROB	n/a	LTP269	ltpFR2	14	n/a	n/a	n/a	25	17	1	9	7
3513756	PROB	n/a	LTP269	ltpFR2	14	n/a	n/a	n/a	25	10	1	1	8
3515057	PROB	n/a	LTP269	ltpFR2	14	n/a	n/a	n/a	25	9	6	1	2
3516225	PROB	n/a	LTP269	ltpFR2	14	n/a	n/a	n/a	25	1	4	1	5
3517376	PROB	n/a	LTP269	ltpFR2	14	n/a	n/a	n/a	25	15	9	3	3
3519843	PROB	n/a	LTP269	ltpFR2	14	n/a	n/a	n/a	25	5	3	1	1
3521512	PROB	n/a	LTP269	ltpFR2	14	n/a	n/a	n/a	25	15	4	4	7
3522913	PROB	n/a	LTP269	ltpFR2	14	n/a	n/a	n/a	25	20	7	9	4
3525565	PROB	n/a	LTP269	ltpFR2	14	n/a	n/a	n/a	25	12	6	5	1
3526984	PROB	n/a	LTP269	ltpFR2	14	n/a	n/a	n/a	25	18	6	6	6
3528094	STOP	n/a	LTP269	ltpFR2	14	n/a	n/a	n/a	25	n/a	n/a	n/a	n/a
3530514	WORD	wordpools/wasnorm_wordpool_576.txt	LTP269	ltpFR2	14	17	BUNNY	198	n/a	n/a	0	0	0
3533055	WORD	wordpools/wasnorm_wordpool_576.txt	LTP269	ltpFR2	14	17	SALAD	1224	n/a	n/a	0	0	0
3535535	WORD	wordpools/wasnorm_wordpool_576.txt	LTP269	ltpFR2	14	17	IGLOO	734	n/a	n/a	0	0	0
3538103	WORD	wordpools/wasnorm_wordpool_576.txt	LTP269	ltpFR2	14	17	CABIN	211	n/a	n/a	0	0	0
3540877	WORD	wordpools/wasnorm_wordpool_576.txt	LTP269	ltpFR2	14	17	PERMIT	1051	n/a	n/a	0	0	0
3543674	WORD	wordpools/wasnorm_wordpool_576.txt	LTP269	ltpFR2	14	17	SNAKE	1333	n/a	n/a	0	0	0
3546111	WORD	wordpools/wasnorm_wordpool_576.txt	LTP269	ltpFR2	14	17	MUFFIN	929	n/a	n/a	0	0	0
3548595	WORD	wordpools/wasnorm_wordpool_576.txt	LTP269	ltpFR2	14	17	WARDROBE	1587	n/a	n/a	0	0	0
3551233	WORD	wordpools/wasnorm_wordpool_576.txt	LTP269	ltpFR2	14	17	HAMPER	682	n/a	n/a	0	0	0
3553718	WORD	wordpools/wasnorm_wordpool_576.txt	LTP269	ltpFR2	14	17	UMPIRE	1535	n/a	n/a	0	0	0
3556302	WORD	wordpools/wasnorm_wordpool_576.txt	LTP269	ltpFR2	14	17	GLOVE	642	n/a	n/a	0	0	0
3558989	WORD	wordpools/wasnorm_wordpool_576.txt	LTP269	ltpFR2	14	17	COWBOY	395	n/a	n/a	0	0	0
3561740	WORD	wordpools/wasnorm_wordpool_576.txt	LTP269	ltpFR2	14	17	PUPPY	1144	n/a	n/a	0	0	0
3564263	WORD	wordpools/wasnorm_wordpool_576.txt	LTP269	ltpFR2	14	17	SUNSET	1408	n/a	n/a	0	0	0
3567012	WORD	wordpools/wasnorm_wordpool_576.txt	LTP269	ltpFR2	14	17	LASER	801	n/a	n/a	0	0	0
3569816	WORD	wordpools/wasnorm_wordpool_576.txt	LTP269	ltpFR2	14	17	SWITCH	1422	n/a	n/a	0	0	0
3572271	WORD	wordpools/wasnorm_wordpool_576.txt	LTP269	ltpFR2	14	17	BURGLAR	200	n/a	n/a	0	0	0
3574702	WORD	wordpools/wasnorm_wordpool_576.txt	LTP269	ltpFR2	14	17	LEOPARD	812	n/a	n/a	0	0	0
3577172	WORD	wordpools/wasnorm_wordpool_576.txt	LTP269	ltpFR2	14	17	KEEPER	769	n/a	n/a	0	0	0
3579790	WORD	wordpools/wasnorm_wordpool_576.txt	LTP269	ltpFR2	14	17	SLIME	1327	n/a	n/a	0	0	0
3582259	WORD	wordpools/wasnorm_wordpool_576.txt	LTP269	ltpFR2	14	17	MATCH	878	n/a	n/a	0	0	0
3584811	WORD	wordpools/wasnorm_wordpool_576.txt	LTP269	ltpFR2	14	17	YOLK	1633	n/a	n/a	0	0	0
3587514	WORD	wordpools/wasnorm_wordpool_576.txt	LTP269	ltpFR2	14	17	FREEZER	604	n/a	n/a	0	0	0
3590332	WORD	wordpools/wasnorm_wordpool_576.txt	LTP269	ltpFR2	14	17	POET	1095	n/a	n/a	0	0	0
3591952	START	n/a	LTP269	ltpFR2	14	n/a	n/a	n/a	26	n/a	n/a	n/a	n/a
3592938	DISTRACTOR	n/a	LTP269	ltpFR2	14	17	n/a	n/a	n/a	n/a	0	0	0
3592951	PROB	n/a	LTP269	ltpFR2	14	n/a	n/a	n/a	26	12	1	5	6
3594205	PROB	n/a	LTP269	ltpFR2	14	n/a	n/a	n/a	26	16	9	2	5
3598139	PROB	n/a	LTP269	ltpFR2	14	n/a	n/a	n/a	26	13	5	5	3
3599690	PROB	n/a	LTP269	ltpFR2	14	n/a	n/a	n/a	26	18	6	3	9
3601659	PROB	n/a	LTP269	ltpFR2	14	n/a	n/a	n/a	26	15	8	6	1
3602893	PROB	n/a	LTP269	ltpFR2	14	n/a	n/a	n/a	26	13	4	4	5
3605545	PROB	n/a	LTP269	ltpFR2	14	n/a	n/a	n/a	26	17	6	4	7
3607496	PROB	n/a	LTP269	ltpFR2	14	n/a	n/a	n/a	26	13	4	2	7
3610383	PROB	n/a	LTP269	ltpFR2	14	n/a	n/a	n/a	26	18	6	4	8
3611583	PROB	n/a	LTP269	ltpFR2	14	n/a	n/a	n/a	26	13	3	6	4
3613236	PROB	n/a	LTP269	ltpFR2	14	n/a	n/a	n/a	26	21	6	9	6
3615545	STOP	n/a	LTP269	ltpFR2	14	n/a	n/a	n/a	26	n/a	n/a	n/a	n/a
3617724	REC_START	n/a	LTP269	ltpFR2	14	17	n/a	n/a	n/a	n/a	0	0	0
3619198	REC_WORD	wordpools/wasnorm_wordpool_576.txt	LTP269	ltpFR2	14	17	BUNNY	198	n/a	n/a	0	0	0
3621456	REC_WORD	wordpools/wasnorm_wordpool_576.txt	LTP269	ltpFR2	14	17	GLOVE	642	n/a	n/a	0	0	0
3621925	REC_WORD	wordpools/wasnorm_wordpool_576.txt	LTP269	ltpFR2	14	17	COWBOY	395	n/a	n/a	0	0	0
3623929	REC_WORD	wordpools/wasnorm_wordpool_576.txt	LTP269	ltpFR2	14	17	PUPPY	1144	n/a	n/a	0	0	0
3624758	REC_WORD	wordpools/wasnorm_wordpool_576.txt	LTP269	ltpFR2	14	17	SUNSET	1408	n/a	n/a	0	0	0
3627846	REC_WORD	wordpools/wasnorm_wordpool_576.txt	LTP269	ltpFR2	14	17	WARDROBE	1587	n/a	n/a	0	0	0
3628754	REC_WORD	wordpools/wasnorm_wordpool_576.txt	LTP269	ltpFR2	14	17	HAMPER	682	n/a	n/a	0	0	0
3629757	REC_WORD	wordpools/wasnorm_wordpool_576.txt	LTP269	ltpFR2	14	17	UMPIRE	1535	n/a	n/a	0	0	0
3632360	REC_WORD_VV	wordpools/wasnorm_wordpool_576.txt	LTP269	ltpFR2	14	17	<>	-1	n/a	n/a	0	0	0
3633245	REC_WORD	wordpools/wasnorm_wordpool_576.txt	LTP269	ltpFR2	14	17	SNAKE	1333	n/a	n/a	0	0	0
3633714	REC_WORD	wordpools/wasnorm_wordpool_576.txt	LTP269	ltpFR2	14	17	MUFFIN	929	n/a	n/a	0	0	0
3639970	REC_WORD	wordpools/wasnorm_wordpool_576.txt	LTP269	ltpFR2	14	17	SALAD	1224	n/a	n/a	0	0	0
3642209	REC_WORD	wordpools/wasnorm_wordpool_576.txt	LTP269	ltpFR2	14	17	SWITCH	1422	n/a	n/a	0	0	0
3642890	REC_WORD	wordpools/wasnorm_wordpool_576.txt	LTP269	ltpFR2	14	17	BURGLAR	200	n/a	n/a	0	0	0
3647844	REC_WORD	wordpools/wasnorm_wordpool_576.txt	LTP269	ltpFR2	14	17	LEOPARD	812	n/a	n/a	0	0	0
3651177	REC_WORD	wordpools/wasnorm_wordpool_576.txt	LTP269	ltpFR2	14	17	SLIME	1327	n/a	n/a	0	0	0
3660253	REC_WORD	wordpools/wasnorm_wordpool_576.txt	LTP269	ltpFR2	14	17	YOKE	1632	n/a	n/a	0	0	0
3708160	WORD	wordpools/wasnorm_wordpool_576.txt	LTP269	ltpFR2	14	18	PISTOL	1075	n/a	n/a	0	0	0
3710881	WORD	wordpools/wasnorm_wordpool_576.txt	LTP269	ltpFR2	14	18	STOMACH	1384	n/a	n/a	0	0	0
3713449	WORD	wordpools/wasnorm_wordpool_576.txt	LTP269	ltpFR2	14	18	AGENT	10	n/a	n/a	0	0	0
3716052	WORD	wordpools/wasnorm_wordpool_576.txt	LTP269	ltpFR2	14	18	MATTRESS	879	n/a	n/a	0	0	0
3718503	WORD	wordpools/wasnorm_wordpool_576.txt	LTP269	ltpFR2	14	18	LILY	821	n/a	n/a	0	0	0
3721106	WORD	wordpools/wasnorm_wordpool_576.txt	LTP269	ltpFR2	14	18	BULLET	194	n/a	n/a	0	0	0
3723624	WORD	wordpools/wasnorm_wordpool_576.txt	LTP269	ltpFR2	14	18	MILDEW	893	n/a	n/a	0	0	0
3726084	WORD	wordpools/wasnorm_wordpool_576.txt	LTP269	ltpFR2	14	18	FUNGUS	614	n/a	n/a	0	0	0
3728813	WORD	wordpools/wasnorm_wordpool_576.txt	LTP269	ltpFR2	14	18	SALMON	1227	n/a	n/a	0	0	0
3731397	WORD	wordpools/wasnorm_wordpool_576.txt	LTP269	ltpFR2	14	18	SAUSAGE	1238	n/a	n/a	0	0	0
3733949	WORD	wordpools/wasnorm_wordpool_576.txt	LTP269	ltpFR2	14	18	SANDWICH	1232	n/a	n/a	0	0	0
3736460	WORD	wordpools/wasnorm_wordpool_576.txt	LTP269	ltpFR2	14	18	STAR	1373	n/a	n/a	0	0	0
3738879	WORD	wordpools/wasnorm_wordpool_576.txt	LTP269	ltpFR2	14	18	GRILL	661	n/a	n/a	0	0	0
3741606	WORD	wordpools/wasnorm_wordpool_576.txt	LTP269	ltpFR2	14	18	PEDAL	1037	n/a	n/a	0	0	0
3744259	WORD	wordpools/wasnorm_wordpool_576.txt	LTP269	ltpFR2	14	18	FLOWER	584	n/a	n/a	0	0	0
3746860	WORD	wordpools/wasnorm_wordpool_576.txt	LTP269	ltpFR2	14	18	PARTNER	1017	n/a	n/a	0	0	0
3749656	WORD	wordpools/wasnorm_wordpool_576.txt	LTP269	ltpFR2	14	18	SLUG	1329	n/a	n/a	0	0	0
3752281	WORD	wordpools/wasnorm_wordpool_576.txt	LTP269	ltpFR2	14	18	CLOTHES	327	n/a	n/a	0	0	0
3754916	WORD	wordpools/wasnorm_wordpool_576.txt	LTP269	ltpFR2	14	18	SPACE	1345	n/a	n/a	0	0	0
3757663	WORD	wordpools/wasnorm_wordpool_576.txt	LTP269	ltpFR2	14	18	TWEEZERS	1526	n/a	n/a	0	0	0
3760431	WORD	wordpools/wasnorm_wordpool_576.txt	LTP269	ltpFR2	14	18	PILOT	1070	n/a	n/a	0	0	0
3763016	WORD	wordpools/wasnorm_wordpool_576.txt	LTP269	ltpFR2	14	18	SODA	1341	n/a	n/a	0	0	0
3765552	WORD	wordpools/wasnorm_wordpool_576.txt	LTP269	ltpFR2	14	18	BOARD	143	n/a	n/a	0	0	0
3768110	WORD	wordpools/wasnorm_wordpool_576.txt	LTP269	ltpFR2	14	18	BANKER	84	n/a	n/a	0	0	0
3769724	START	n/a	LTP269	ltpFR2	14	n/a	n/a	n/a	27	n/a	n/a	n/a	n/a
3770745	DISTRACTOR	n/a	LTP269	ltpFR2	14	18	n/a	n/a	n/a	n/a	0	0	0
3770756	PROB	n/a	LTP269	ltpFR2	14	n/a	n/a	n/a	27	14	4	7	3
3772129	PROB	n/a	LTP269	ltpFR2	14	n/a	n/a	n/a	27	14	7	1	6
3773415	PROB	n/a	LTP269	ltpFR2	14	n/a	n/a	n/a	27	11	4	3	4
3776733	PROB	n/a	LTP269	ltpFR2	14	n/a	n/a	n/a	27	17	6	2	9
3778767	PROB	n/a	LTP269	ltpFR2	14	n/a	n/a	n/a	27	10	2	1	7
3780220	PROB	n/a	LTP269	ltpFR2	14	n/a	n/a	n/a	27	18	6	7	5
3781520	PROB	n/a	LTP269	ltpFR2	14	n/a	n/a	n/a	27	14	5	2	7
3783888	PROB	n/a	LTP269	ltpFR2	14	n/a	n/a	n/a	27	17	5	4	8
3787108	PROB	n/a	LTP269	ltpFR2	14	n/a	n/a	n/a	27	9	1	5	3
3788277	PROB	n/a	LTP269	ltpFR2	14	n/a	n/a	n/a	27	17	7	6	4
3789493	PROB	n/a	LTP269	ltpFR2	14	n/a	n/a	n/a	27	11	4	1	6
3791161	PROB	n/a	LTP269	ltpFR2	14	n/a	n/a	n/a	27	12	2	3	7
3793724	STOP	n/a	LTP269	ltpFR2	14	n/a	n/a	n/a	27	n/a	n/a	n/a	n/a
3795634	REC_START	n/a	LTP269	ltpFR2	14	18	n/a	n/a	n/a	n/a	0	0	0
3801955	REC_WORD	wordpools/wasnorm_wordpool_576.txt	LTP269	ltpFR2	14	18	PISTOL	1075	n/a	n/a	0	0	0
3803663	REC_WORD	wordpools/wasnorm_wordpool_576.txt	LTP269	ltpFR2	14	18	BELLY	119	n/a	n/a	0	0	0
3806060	REC_WORD	wordpools/wasnorm_wordpool_576.txt	LTP269	ltpFR2	14	18	MATTRESS	879	n/a	n/a	0	0	0
3806528	REC_WORD	wordpools/wasnorm_wordpool_576.txt	LTP269	ltpFR2	14	18	MILDEW	893	n/a	n/a	0	0	0
3806962	REC_WORD	wordpools/wasnorm_wordpool_576.txt	LTP269	ltpFR2	14	18	FUNGUS	614	n/a	n/a	0	0	0
3807911	REC_WORD	wordpools/wasnorm_wordpool_576.txt	LTP269	ltpFR2	14	18	PEDAL	1037	n/a	n/a	0	0	0
3809252	REC_WORD	wordpools/wasnorm_wordpool_576.txt	LTP269	ltpFR2	14	18	FLOWER	584	n/a	n/a	0	0	0
3810577	REC_WORD	wordpools/wasnorm_wordpool_576.txt	LTP269	ltpFR2	14	18	LILY	821	n/a	n/a	0	0	0
3812546	REC_WORD	wordpools/wasnorm_wordpool_576.txt	LTP269	ltpFR2	14	18	BULLET	194	n/a	n/a	0	0	0
3817008	REC_WORD	wordpools/wasnorm_wordpool_576.txt	LTP269	ltpFR2	14	18	STAR	1373	n/a	n/a	0	0	0
3818528	REC_WORD	wordpools/wasnorm_wordpool_576.txt	LTP269	ltpFR2	14	18	SAUSAGE	1238	n/a	n/a	0	0	0
3822308	REC_WORD	wordpools/wasnorm_wordpool_576.txt	LTP269	ltpFR2	14	18	PARTNER	1017	n/a	n/a	0	0	0
3826595	REC_WORD_VV	wordpools/wasnorm_wordpool_576.txt	LTP269	ltpFR2	14	18	<>	-1	n/a	n/a	0	0	0
3828655	REC_WORD	wordpools/wasnorm_wordpool_576.txt	LTP269	ltpFR2	14	18	SLUG	1329	n/a	n/a	0	0	0
3831838	REC_WORD	wordpools/wasnorm_wordpool_576.txt	LTP269	ltpFR2	14	18	SODA	1341	n/a	n/a	0	0	0
3832517	REC_WORD	wordpools/wasnorm_wordpool_576.txt	LTP269	ltpFR2	14	18	BOARD	143	n/a	n/a	0	0	0
3839199	REC_WORD	wordpools/wasnorm_wordpool_576.txt	LTP269	ltpFR2	14	18	BANKER	84	n/a	n/a	0	0	0
3886088	DISTRACTOR	n/a	LTP269	ltpFR2	14	19	n/a	n/a	n/a	n/a	0	0	0
3886088	START	n/a	LTP269	ltpFR2	14	n/a	n/a	n/a	28	n/a	n/a	n/a	n/a
3886103	PROB	n/a	LTP269	ltpFR2	14	n/a	n/a	n/a	28	14	5	8	1
3887689	PROB	n/a	LTP269	ltpFR2	14	n/a	n/a	n/a	28	15	4	7	4
3889856	PROB	n/a	LTP269	ltpFR2	14	n/a	n/a	n/a	28	12	5	2	5
3891292	PROB	n/a	LTP269	ltpFR2	14	n/a	n/a	n/a	28	9	5	2	2
3893276	PROB	n/a	LTP269	ltpFR2	14	n/a	n/a	n/a	28	9	2	6	1
3894661	PROB	n/a	LTP269	ltpFR2	14	n/a	n/a	n/a	28	12	2	4	6
3895878	PROB	n/a	LTP269	ltpFR2	14	n/a	n/a	n/a	28	13	3	8	2
3897429	PROB	n/a	LTP269	ltpFR2	14	n/a	n/a	n/a	28	23	5	9	9
3900282	PROB	n/a	LTP269	ltpFR2	14	n/a	n/a	n/a	28	16	8	3	5
3902284	PROB	n/a	LTP269	ltpFR2	14	n/a	n/a	n/a	28	18	7	5	6
3904252	PROB	n/a	LTP269	ltpFR2	14	n/a	n/a	n/a	28	15	4	7	4
3906254	PROB	n/a	LTP269	ltpFR2	14	n/a	n/a	n/a	28	13	8	2	3
3910087	STOP	n/a	LTP269	ltpFR2	14	n/a	n/a	n/a	28	n/a	n/a	n/a	n/a
3910957	WORD	wordpools/wasnorm_wordpool_576.txt	LTP269	ltpFR2	14	19	ARMY	39	n/a	n/a	0	0	0
3913631	WORD	wordpools/wasnorm_wordpool_576.txt	LTP269	ltpFR2	14	19	JUDGE	761	n/a	n/a	0	0	0
3916267	WORD	wordpools/wasnorm_wordpool_576.txt	LTP269	ltpFR2	14	19	PIZZA	1079	n/a	n/a	0	0	0
3919081	WORD	wordpools/wasnorm_wordpool_576.txt	LTP269	ltpFR2	14	19	MAILBOX	857	n/a	n/a	0	0	0
3921655	WORD	wordpools/wasnorm_wordpool_576.txt	LTP269	ltpFR2	14	19	STAMP	1370	n/a	n/a	0	0	0
3924469	WORD	wordpools/wasnorm_wordpool_576.txt	LTP269	ltpFR2	14	19	WAITRESS	1581	n/a	n/a	0	0	0
3927288	WORD	wordpools/wasnorm_wordpool_576.txt	LTP269	ltpFR2	14	19	BEAKER	104	n/a	n/a	0	0	0
3929890	WORD	wordpools/wasnorm_wordpool_576.txt	LTP269	ltpFR2	14	19	MARKER	870	n/a	n/a	0	0	0
3932481	WORD	wordpools/wasnorm_wordpool_576.txt	LTP269	ltpFR2	14	19	PIGMENT	1066	n/a	n/a	0	0	0
3935179	WORD	wordpools/wasnorm_wordpool_576.txt	LTP269	ltpFR2	14	19	COLONEL	348	n/a	n/a	0	0	0
3937948	WORD	wordpools/wasnorm_wordpool_576.txt	LTP269	ltpFR2	14	19	COOK	372	n/a	n/a	0	0	0
3940499	WORD	wordpools/wasnorm_wordpool_576.txt	LTP269	ltpFR2	14	19	LION	827	n/a	n/a	0	0	0
3942917	WORD	wordpools/wasnorm_wordpool_576.txt	LTP269	ltpFR2	14	19	DOUGHNUT	490	n/a	n/a	0	0	0
3945693	WORD	wordpools/wasnorm_wordpool_576.txt	LTP269	ltpFR2	14	19	FLEET	578	n/a	n/a	0	0	0
3948205	WORD	wordpools/wasnorm_wordpool_576.txt	LTP269	ltpFR2	14	19	WHISTLE	1606	n/a	n/a	0	0	0
3950857	WORD	wordpools/wasnorm_wordpool_576.txt	LTP269	ltpFR2	14	19	SKETCH	1315	n/a	n/a	0	0	0
3953659	WORD	wordpools/wasnorm_wordpool_576.txt	LTP269	ltpFR2	14	19	TABLET	1427	n/a	n/a	0	0	0
3956077	WORD	wordpools/wasnorm_wordpool_576.txt	LTP269	ltpFR2	14	19	PUDDING	1139	n/a	n/a	0	0	0
3958864	WORD	wordpools/wasnorm_wordpool_576.txt	LTP269	ltpFR2	14	19	GROUND	666	n/a	n/a	0	0	0
3961489	WORD	wordpools/wasnorm_wordpool_576.txt	LTP269	ltpFR2	14	19	JUNGLE	764	n/a	n/a	0	0	0
3964168	WORD	wordpools/wasnorm_wordpool_576.txt	LTP269	ltpFR2	14	19	ACTOR	5	n/a	n/a	0	0	0
3966895	WORD	wordpools/wasnorm_wordpool_576.txt	LTP269	ltpFR2	14	19	DONKEY	484	n/a	n/a	0	0	0
3969588	WORD	wordpools/wasnorm_wordpool_576.txt	LTP269	ltpFR2	14	19	CITRUS	313	n/a	n/a	0	0	0
3972065	WORD	wordpools/wasnorm_wordpool_576.txt	LTP269	ltpFR2	14	19	GUITAR	670	n/a	n/a	0	0	0
3973677	START	n/a	LTP269	ltpFR2	14	n/a	n/a	n/a	29	n/a	n/a	n/a	n/a
3974668	DISTRACTOR	n/a	LTP269	ltpFR2	14	19	n/a	n/a	n/a	n/a	0	0	0
3974676	PROB	n/a	LTP269	ltpFR2	14	n/a	n/a	n/a	29	21	6	9	6
3976811	PROB	n/a	LTP269	ltpFR2	14	n/a	n/a	n/a	29	19	9	1	9
3978611	PROB	n/a	LTP269	ltpFR2	14	n/a	n/a	n/a	29	19	8	7	4
3980230	PROB	n/a	LTP269	ltpFR2	14	n/a	n/a	n/a	29	14	5	3	6
3982481	PROB	n/a	LTP269	ltpFR2	14	n/a	n/a	n/a	29	13	4	4	5
3984617	PROB	n/a	LTP269	ltpFR2	14	n/a	n/a	n/a	29	17	7	2	8
3986951	PROB	n/a	LTP269	ltpFR2	14	n/a	n/a	n/a	29	17	8	3	6
3988803	PROB	n/a	LTP269	ltpFR2	14	n/a	n/a	n/a	29	14	5	4	5
3990571	PROB	n/a	LTP269	ltpFR2	14	n/a	n/a	n/a	29	14	5	2	7
3993074	PROB	n/a	LTP269	ltpFR2	14	n/a	n/a	n/a	29	12	5	4	3
3995275	PROB	n/a	LTP269	ltpFR2	14	n/a	n/a	n/a	29	11	1	6	4
3996737	STOP	n/a	LTP269	ltpFR2	14	n/a	n/a	n/a	29	n/a	n/a	n/a	n/a
3999528	REC_START	n/a	LTP269	ltpFR2	14	19	n/a	n/a	n/a	n/a	0	0	0
4001205	REC_WORD_VV	wordpools/wasnorm_wordpool_576.txt	LTP269	ltpFR2	14	19	<>	-1	n/a	n/a	0	0	0
4001951	REC_WORD	wordpools/wasnorm_wordpool_576.txt	LTP269	ltpFR2	14	19	ARMY	39	n/a	n/a	0	0	0
4002416	REC_WORD	wordpools/wasnorm_wordpool_576.txt	LTP269	ltpFR2	14	19	JUDGE	761	n/a	n/a	0	0	0
4003921	REC_WORD	wordpools/wasnorm_wordpool_576.txt	LTP269	ltpFR2	14	19	PIGMENT	1066	n/a	n/a	0	0	0
4004422	REC_WORD	wordpools/wasnorm_wordpool_576.txt	LTP269	ltpFR2	14	19	MARKER	870	n/a	n/a	0	0	0
4005215	REC_WORD	wordpools/wasnorm_wordpool_576.txt	LTP269	ltpFR2	14	19	SKETCH	1315	n/a	n/a	0	0	0
4005861	REC_WORD	wordpools/wasnorm_wordpool_576.txt	LTP269	ltpFR2	14	19	TABLET	1427	n/a	n/a	0	0	0
4006824	REC_WORD	wordpools/wasnorm_wordpool_576.txt	LTP269	ltpFR2	14	19	CITRUS	313	n/a	n/a	0	0	0
4007498	REC_WORD	wordpools/wasnorm_wordpool_576.txt	LTP269	ltpFR2	14	19	DONKEY	484	n/a	n/a	0	0	0
4008334	REC_WORD	wordpools/wasnorm_wordpool_576.txt	LTP269	ltpFR2	14	19	ACTOR	5	n/a	n/a	0	0	0
4010941	REC_WORD	wordpools/wasnorm_wordpool_576.txt	LTP269	ltpFR2	14	19	PUDDING	1139	n/a	n/a	0	0	0
4011627	REC_WORD	wordpools/wasnorm_wordpool_576.txt	LTP269	ltpFR2	14	19	PIZZA	1079	n/a	n/a	0	0	0
4012136	REC_WORD	wordpools/wasnorm_wordpool_576.txt	LTP269	ltpFR2	14	19	COOK	372	n/a	n/a	0	0	0
