onset	duration	trial_type	sample	stim_file	subject	experiment	session	trial	task	item_name	item_num	recog_conf	resp	color_b	color_g	color_r	case	font
279.15	n/a	SESS_START	139575	n/a	LTP113	ltpFR	0	n/a	n/a	n/a	n/a	1	n/a	n/a	n/a	n/a	n/a	n/a
402.034	n/a	WORD	201017	wordpools/wasnorm_wordpool.txt	LTP113	ltpFR	0	1	-1	ATMOSPHERE	54	n/a	-1	1	1.0	1.0	upper	../fonts/Verdana.ttf
405.954	n/a	WORD	202977	wordpools/wasnorm_wordpool.txt	LTP113	ltpFR	0	1	-1	JURY	766	n/a	-1	1	1.0	1.0	upper	../fonts/Verdana.ttf
410.1	n/a	WORD	205050	wordpools/wasnorm_wordpool.txt	LTP113	ltpFR	0	1	-1	SUSPECT	1415	n/a	-1	1	1.0	1.0	upper	../fonts/Verdana.ttf
413.978	n/a	WORD	206989	wordpools/wasnorm_wordpool.txt	LTP113	ltpFR	0	1	-1	COFFIN	342	n/a	-1	1	1.0	1.0	upper	../fonts/Verdana.ttf
418.082	n/a	WORD	209041	wordpools/wasnorm_wordpool.txt	LTP113	ltpFR	0	1	-1	WOUND	1624	n/a	-1	1	1.0	1.0	upper	../fonts/Verdana.ttf
422.26	n/a	WORD	211130	wordpools/wasnorm_wordpool.txt	LTP113	ltpFR	0	1	-1	CORN	381	n/a	-1	1	1.0	1.0	upper	../fonts/Verdana.ttf
426.122	n/a	WORD	213061	wordpools/wasnorm_wordpool.txt	LTP113	ltpFR	0	1	-1	TRAITOR	1495	n/a	-1	1	1.0	1.0	upper	../fonts/Verdana.ttf
430.142	n/a	WORD	215071	wordpools/wasnorm_wordpool.txt	LTP113	ltpFR	0	1	-1	TROMBONE	1508	n/a	-1	1	1.0	1.0	upper	../fonts/Verdana.ttf
434.296	n/a	WORD	217148	wordpools/wasnorm_wordpool.txt	LTP113	ltpFR	0	1	-1	VIOLIN	1571	n/a	-1	1	1.0	1.0	upper	../fonts/Verdana.ttf
438.316	n/a	WORD	219158	wordpools/wasnorm_wordpool.txt	LTP113	ltpFR	0	1	-1	MOTH	920	n/a	-1	1	1.0	1.0	upper	../fonts/Verdana.ttf
442.288	n/a	WORD	221144	wordpools/wasnorm_wordpool.txt	LTP113	ltpFR	0	1	-1	GRASSHOPPER	656	n/a	-1	1	1.0	1.0	upper	../fonts/Verdana.ttf
446.366	n/a	WORD	223183	wordpools/wasnorm_wordpool.txt	LTP113	ltpFR	0	1	-1	BALLOON	75	n/a	-1	1	1.0	1.0	upper	../fonts/Verdana.ttf
450.228	n/a	WORD	225114	wordpools/wasnorm_wordpool.txt	LTP113	ltpFR	0	1	-1	SHEARS	1276	n/a	-1	1	1.0	1.0	upper	../fonts/Verdana.ttf
454.406	n/a	WORD	227203	wordpools/wasnorm_wordpool.txt	LTP113	ltpFR	0	1	-1	HAMMER	680	n/a	-1	1	1.0	1.0	upper	../fonts/Verdana.ttf
458.31	n/a	WORD	229155	wordpools/wasnorm_wordpool.txt	LTP113	ltpFR	0	1	-1	NOTEBOOK	959	n/a	-1	1	1.0	1.0	upper	../fonts/Verdana.ttf
462.464	n/a	WORD	231232	wordpools/wasnorm_wordpool.txt	LTP113	ltpFR	0	1	-1	ATLAS	53	n/a	-1	1	1.0	1.0	upper	../fonts/Verdana.ttf
468.35	n/a	REC_START	234175	n/a	LTP113	ltpFR	0	1	n/a	n/a	n/a	n/a	n/a	n/a	n/a	n/a	n/a	n/a
468.952	n/a	REC_WORD	234476	wordpools/wasnorm_wordpool.txt	LTP113	ltpFR	0	1	-1	ATLAS	53	n/a	-1	n/a	n/a	n/a	n/a	n/a
469.626	n/a	REC_WORD	234813	wordpools/wasnorm_wordpool.txt	LTP113	ltpFR	0	1	-1	SHEARS	1276	n/a	-1	n/a	n/a	n/a	n/a	n/a
470.43	n/a	REC_WORD	235215	wordpools/wasnorm_wordpool.txt	LTP113	ltpFR	0	1	-1	TROMBONE	1508	n/a	-1	n/a	n/a	n/a	n/a	n/a
472.54	n/a	REC_WORD	236270	wordpools/wasnorm_wordpool.txt	LTP113	ltpFR	0	1	-1	COFFIN	342	n/a	-1	n/a	n/a	n/a	n/a	n/a
473.268	n/a	REC_WORD	236634	wordpools/wasnorm_wordpool.txt	LTP113	ltpFR	0	1	-1	JURY	766	n/a	-1	n/a	n/a	n/a	n/a	n/a
474.176	n/a	REC_WORD	237088	wordpools/wasnorm_wordpool.txt	LTP113	ltpFR	0	1	-1	WOUND	1624	n/a	-1	n/a	n/a	n/a	n/a	n/a
476.96	n/a	REC_WORD	238480	wordpools/wasnorm_wordpool.txt	LTP113	ltpFR	0	1	-1	CORN	381	n/a	-1	n/a	n/a	n/a	n/a	n/a
498.232	n/a	REC_WORD	249116	wordpools/wasnorm_wordpool.txt	LTP113	ltpFR	0	1	-1	MOTH	920	n/a	-1	n/a	n/a	n/a	n/a	n/a
498.81	n/a	REC_WORD	249405	wordpools/wasnorm_wordpool.txt	LTP113	ltpFR	0	1	-1	GRASSHOPPER	656	n/a	-1	n/a	n/a	n/a	n/a	n/a
518.236	n/a	REC_WORD	259118	wordpools/wasnorm_wordpool.txt	LTP113	ltpFR	0	1	-1	ATLAS	53	n/a	-1	n/a	n/a	n/a	n/a	n/a
551.97	n/a	WORD	275985	wordpools/wasnorm_wordpool.txt	LTP113	ltpFR	0	2	-1	WAVE	1596	n/a	-1	1	1.0	1.0	upper	../fonts/Verdana.ttf
556.124	n/a	WORD	278062	wordpools/wasnorm_wordpool.txt	LTP113	ltpFR	0	2	-1	BUCKET	184	n/a	-1	1	1.0	1.0	upper	../fonts/Verdana.ttf
560.026	n/a	WORD	280013	wordpools/wasnorm_wordpool.txt	LTP113	ltpFR	0	2	-1	CUFF	423	n/a	-1	1	1.0	1.0	upper	../fonts/Verdana.ttf
563.956	n/a	WORD	281978	wordpools/wasnorm_wordpool.txt	LTP113	ltpFR	0	2	-1	LOVER	846	n/a	-1	1	1.0	1.0	upper	../fonts/Verdana.ttf
567.876	n/a	WORD	283938	wordpools/wasnorm_wordpool.txt	LTP113	ltpFR	0	2	-1	CYLINDER	432	n/a	-1	1	1.0	1.0	upper	../fonts/Verdana.ttf
571.922	n/a	WORD	285961	wordpools/wasnorm_wordpool.txt	LTP113	ltpFR	0	2	-1	STRING	1394	n/a	-1	1	1.0	1.0	upper	../fonts/Verdana.ttf
576.1	n/a	WORD	288050	wordpools/wasnorm_wordpool.txt	LTP113	ltpFR	0	2	-1	SOCK	1339	n/a	-1	1	1.0	1.0	upper	../fonts/Verdana.ttf
579.954	n/a	WORD	289977	wordpools/wasnorm_wordpool.txt	LTP113	ltpFR	0	2	-1	ANKLE	24	n/a	-1	1	1.0	1.0	upper	../fonts/Verdana.ttf
584.108	n/a	WORD	292054	wordpools/wasnorm_wordpool.txt	LTP113	ltpFR	0	2	-1	TOE	1473	n/a	-1	1	1.0	1.0	upper	../fonts/Verdana.ttf
587.952	n/a	WORD	293976	wordpools/wasnorm_wordpool.txt	LTP113	ltpFR	0	2	-1	PATRIOT	1026	n/a	-1	1	1.0	1.0	upper	../fonts/Verdana.ttf
592.048	n/a	WORD	296024	wordpools/wasnorm_wordpool.txt	LTP113	ltpFR	0	2	-1	SIDING	1304	n/a	-1	1	1.0	1.0	upper	../fonts/Verdana.ttf
595.902	n/a	WORD	297951	wordpools/wasnorm_wordpool.txt	LTP113	ltpFR	0	2	-1	CLOVE	329	n/a	-1	1	1.0	1.0	upper	../fonts/Verdana.ttf
599.806	n/a	WORD	299903	wordpools/wasnorm_wordpool.txt	LTP113	ltpFR	0	2	-1	VISITOR	1573	n/a	-1	1	1.0	1.0	upper	../fonts/Verdana.ttf
603.842	n/a	WORD	301921	wordpools/wasnorm_wordpool.txt	LTP113	ltpFR	0	2	-1	CURTAIN	427	n/a	-1	1	1.0	1.0	upper	../fonts/Verdana.ttf
607.988	n/a	WORD	303994	wordpools/wasnorm_wordpool.txt	LTP113	ltpFR	0	2	-1	PREDATOR	1120	n/a	-1	1	1.0	1.0	upper	../fonts/Verdana.ttf
611.868	n/a	WORD	305934	wordpools/wasnorm_wordpool.txt	LTP113	ltpFR	0	2	-1	SALT	1229	n/a	-1	1	1.0	1.0	upper	../fonts/Verdana.ttf
617.602	n/a	REC_START	308801	n/a	LTP113	ltpFR	0	2	n/a	n/a	n/a	n/a	n/a	n/a	n/a	n/a	n/a	n/a
618.24	n/a	REC_WORD	309120	wordpools/wasnorm_wordpool.txt	LTP113	ltpFR	0	2	-1	SALT	1229	n/a	-1	n/a	n/a	n/a	n/a	n/a
619.158	n/a	REC_WORD	309579	wordpools/wasnorm_wordpool.txt	LTP113	ltpFR	0	2	-1	PATRIOT	1026	n/a	-1	n/a	n/a	n/a	n/a	n/a
620.784	n/a	REC_WORD	310392	wordpools/wasnorm_wordpool.txt	LTP113	ltpFR	0	2	-1	CUFF	423	n/a	-1	n/a	n/a	n/a	n/a	n/a
622.7	n/a	REC_WORD	311350	wordpools/wasnorm_wordpool.txt	LTP113	ltpFR	0	2	-1	CUFF	423	n/a	-1	n/a	n/a	n/a	n/a	n/a
624.81	n/a	REC_WORD	312405	wordpools/wasnorm_wordpool.txt	LTP113	ltpFR	0	2	n/a	LEVER	815	n/a	n/a	n/a	n/a	n/a	n/a	n/a
626.726	n/a	REC_WORD	313363	wordpools/wasnorm_wordpool.txt	LTP113	ltpFR	0	2	-1	WAVE	1596	n/a	-1	n/a	n/a	n/a	n/a	n/a
628.208	n/a	REC_WORD	314104	wordpools/wasnorm_wordpool.txt	LTP113	ltpFR	0	2	-1	WAVE	1596	n/a	-1	n/a	n/a	n/a	n/a	n/a
641.084	n/a	REC_WORD	320542	wordpools/wasnorm_wordpool.txt	LTP113	ltpFR	0	2	-1	CURTAIN	427	n/a	-1	n/a	n/a	n/a	n/a	n/a
641.862	n/a	REC_WORD	320931	wordpools/wasnorm_wordpool.txt	LTP113	ltpFR	0	2	-1	STRING	1394	n/a	-1	n/a	n/a	n/a	n/a	n/a
650.924	n/a	REC_WORD	325462	wordpools/wasnorm_wordpool.txt	LTP113	ltpFR	0	2	-1	SIDING	1304	n/a	-1	n/a	n/a	n/a	n/a	n/a
701.656	n/a	WORD	350828	wordpools/wasnorm_wordpool.txt	LTP113	ltpFR	0	3	-1	SWAMP	1416	n/a	-1	1	1.0	1.0	upper	../fonts/Verdana.ttf
705.658	n/a	WORD	352829	wordpools/wasnorm_wordpool.txt	LTP113	ltpFR	0	3	-1	COMPANION	357	n/a	-1	1	1.0	1.0	upper	../fonts/Verdana.ttf
709.864	n/a	WORD	354932	wordpools/wasnorm_wordpool.txt	LTP113	ltpFR	0	3	-1	STADIUM	1364	n/a	-1	1	1.0	1.0	upper	../fonts/Verdana.ttf
713.716	n/a	WORD	356858	wordpools/wasnorm_wordpool.txt	LTP113	ltpFR	0	3	-1	SLOPE	1328	n/a	-1	1	1.0	1.0	upper	../fonts/Verdana.ttf
717.728	n/a	WORD	358864	wordpools/wasnorm_wordpool.txt	LTP113	ltpFR	0	3	-1	DOVE	491	n/a	-1	1	1.0	1.0	upper	../fonts/Verdana.ttf
721.916	n/a	WORD	360958	wordpools/wasnorm_wordpool.txt	LTP113	ltpFR	0	3	-1	VINEGAR	1569	n/a	-1	1	1.0	1.0	upper	../fonts/Verdana.ttf
725.778	n/a	WORD	362889	wordpools/wasnorm_wordpool.txt	LTP113	ltpFR	0	3	-1	CANDY	230	n/a	-1	1	1.0	1.0	upper	../fonts/Verdana.ttf
729.866	n/a	WORD	364933	wordpools/wasnorm_wordpool.txt	LTP113	ltpFR	0	3	-1	WATER	1594	n/a	-1	1	1.0	1.0	upper	../fonts/Verdana.ttf
733.844	n/a	WORD	366922	wordpools/wasnorm_wordpool.txt	LTP113	ltpFR	0	3	-1	CANAL	226	n/a	-1	1	1.0	1.0	upper	../fonts/Verdana.ttf
737.814	n/a	WORD	368907	wordpools/wasnorm_wordpool.txt	LTP113	ltpFR	0	3	-1	SCREWDRIVER	1255	n/a	-1	1	1.0	1.0	upper	../fonts/Verdana.ttf
741.984	n/a	WORD	370992	wordpools/wasnorm_wordpool.txt	LTP113	ltpFR	0	3	-1	SICKLE	1302	n/a	-1	1	1.0	1.0	upper	../fonts/Verdana.ttf
745.838	n/a	WORD	372919	wordpools/wasnorm_wordpool.txt	LTP113	ltpFR	0	3	-1	TAG	1429	n/a	-1	1	1.0	1.0	upper	../fonts/Verdana.ttf
749.766	n/a	WORD	374883	wordpools/wasnorm_wordpool.txt	LTP113	ltpFR	0	3	-1	STRANGER	1389	n/a	-1	1	1.0	1.0	upper	../fonts/Verdana.ttf
753.82	n/a	WORD	376910	wordpools/wasnorm_wordpool.txt	LTP113	ltpFR	0	3	-1	TOWEL	1489	n/a	-1	1	1.0	1.0	upper	../fonts/Verdana.ttf
757.716	n/a	WORD	378858	wordpools/wasnorm_wordpool.txt	LTP113	ltpFR	0	3	-1	CENT	270	n/a	-1	1	1.0	1.0	upper	../fonts/Verdana.ttf
761.578	n/a	WORD	380789	wordpools/wasnorm_wordpool.txt	LTP113	ltpFR	0	3	-1	CATCHER	258	n/a	-1	1	1.0	1.0	upper	../fonts/Verdana.ttf
767.464	n/a	REC_START	383732	n/a	LTP113	ltpFR	0	3	n/a	n/a	n/a	n/a	n/a	n/a	n/a	n/a	n/a	n/a
768.546	n/a	REC_WORD	384273	wordpools/wasnorm_wordpool.txt	LTP113	ltpFR	0	3	-1	CATCHER	258	n/a	-1	n/a	n/a	n/a	n/a	n/a
769.574	n/a	REC_WORD	384787	wordpools/wasnorm_wordpool.txt	LTP113	ltpFR	0	3	-1	SICKLE	1302	n/a	-1	n/a	n/a	n/a	n/a	n/a
770.856	n/a	REC_WORD	385428	wordpools/wasnorm_wordpool.txt	LTP113	ltpFR	0	3	-1	SCREWDRIVER	1255	n/a	-1	n/a	n/a	n/a	n/a	n/a
773.216	n/a	REC_WORD	386608	wordpools/wasnorm_wordpool.txt	LTP113	ltpFR	0	3	-1	CENT	270	n/a	-1	n/a	n/a	n/a	n/a	n/a
777.272	n/a	REC_WORD	388636	wordpools/wasnorm_wordpool.txt	LTP113	ltpFR	0	3	-1	VINEGAR	1569	n/a	-1	n/a	n/a	n/a	n/a	n/a
778.27	n/a	REC_WORD	389135	wordpools/wasnorm_wordpool.txt	LTP113	ltpFR	0	3	-1	WATER	1594	n/a	-1	n/a	n/a	n/a	n/a	n/a
779.122	n/a	REC_WORD	389561	wordpools/wasnorm_wordpool.txt	LTP113	ltpFR	0	3	-1	CANDY	230	n/a	-1	n/a	n/a	n/a	n/a	n/a
848.61	n/a	WORD	424305	wordpools/wasnorm_wordpool.txt	LTP113	ltpFR	0	4	-1	WAGON	1578	n/a	-1	1	1.0	1.0	upper	../fonts/Verdana.ttf
852.566	n/a	WORD	426283	wordpools/wasnorm_wordpool.txt	LTP113	ltpFR	0	4	-1	SCHOOL	1248	n/a	-1	1	1.0	1.0	upper	../fonts/Verdana.ttf
856.686	n/a	WORD	428343	wordpools/wasnorm_wordpool.txt	LTP113	ltpFR	0	4	-1	SKI	1316	n/a	-1	1	1.0	1.0	upper	../fonts/Verdana.ttf
860.574	n/a	WORD	430287	wordpools/wasnorm_wordpool.txt	LTP113	ltpFR	0	4	-1	BACON	67	n/a	-1	1	1.0	1.0	upper	../fonts/Verdana.ttf
864.46	n/a	WORD	432230	wordpools/wasnorm_wordpool.txt	LTP113	ltpFR	0	4	-1	OATS	968	n/a	-1	1	1.0	1.0	upper	../fonts/Verdana.ttf
868.606	n/a	WORD	434303	wordpools/wasnorm_wordpool.txt	LTP113	ltpFR	0	4	-1	MOUNTAIN	924	n/a	-1	1	1.0	1.0	upper	../fonts/Verdana.ttf
872.51	n/a	WORD	436255	wordpools/wasnorm_wordpool.txt	LTP113	ltpFR	0	4	-1	OMELET	976	n/a	-1	1	1.0	1.0	upper	../fonts/Verdana.ttf
876.654	n/a	WORD	438327	wordpools/wasnorm_wordpool.txt	LTP113	ltpFR	0	4	-1	MUG	930	n/a	-1	1	1.0	1.0	upper	../fonts/Verdana.ttf
880.834	n/a	WORD	440417	wordpools/wasnorm_wordpool.txt	LTP113	ltpFR	0	4	-1	VINE	1568	n/a	-1	1	1.0	1.0	upper	../fonts/Verdana.ttf
884.77	n/a	WORD	442385	wordpools/wasnorm_wordpool.txt	LTP113	ltpFR	0	4	-1	PLUM	1090	n/a	-1	1	1.0	1.0	upper	../fonts/Verdana.ttf
888.832	n/a	WORD	444416	wordpools/wasnorm_wordpool.txt	LTP113	ltpFR	0	4	-1	DESK	452	n/a	-1	1	1.0	1.0	upper	../fonts/Verdana.ttf
892.786	n/a	WORD	446393	wordpools/wasnorm_wordpool.txt	LTP113	ltpFR	0	4	-1	LAUNDRY	803	n/a	-1	1	1.0	1.0	upper	../fonts/Verdana.ttf
896.99	n/a	WORD	448495	wordpools/wasnorm_wordpool.txt	LTP113	ltpFR	0	4	-1	BAIT	70	n/a	-1	1	1.0	1.0	upper	../fonts/Verdana.ttf
900.968	n/a	WORD	450484	wordpools/wasnorm_wordpool.txt	LTP113	ltpFR	0	4	-1	SEAFOOD	1260	n/a	-1	1	1.0	1.0	upper	../fonts/Verdana.ttf
905.072	n/a	WORD	452536	wordpools/wasnorm_wordpool.txt	LTP113	ltpFR	0	4	-1	GUARD	667	n/a	-1	1	1.0	1.0	upper	../fonts/Verdana.ttf
909.134	n/a	WORD	454567	wordpools/wasnorm_wordpool.txt	LTP113	ltpFR	0	4	-1	STAR	1373	n/a	-1	1	1.0	1.0	upper	../fonts/Verdana.ttf
915.078	n/a	REC_START	457539	n/a	LTP113	ltpFR	0	4	n/a	n/a	n/a	n/a	n/a	n/a	n/a	n/a	n/a	n/a
915.73	n/a	REC_WORD	457865	wordpools/wasnorm_wordpool.txt	LTP113	ltpFR	0	4	-1	STAR	1373	n/a	-1	n/a	n/a	n/a	n/a	n/a
916.684	n/a	REC_WORD	458342	wordpools/wasnorm_wordpool.txt	LTP113	ltpFR	0	4	-1	DESK	452	n/a	-1	n/a	n/a	n/a	n/a	n/a
917.388	n/a	REC_WORD	458694	wordpools/wasnorm_wordpool.txt	LTP113	ltpFR	0	4	-1	SKI	1316	n/a	-1	n/a	n/a	n/a	n/a	n/a
918.196	n/a	REC_WORD	459098	wordpools/wasnorm_wordpool.txt	LTP113	ltpFR	0	4	-1	SCHOOL	1248	n/a	-1	n/a	n/a	n/a	n/a	n/a
919.522	n/a	REC_WORD	459761	wordpools/wasnorm_wordpool.txt	LTP113	ltpFR	0	4	-1	WAGON	1578	n/a	-1	n/a	n/a	n/a	n/a	n/a
920.784	n/a	REC_WORD	460392	wordpools/wasnorm_wordpool.txt	LTP113	ltpFR	0	4	-1	BACON	67	n/a	-1	n/a	n/a	n/a	n/a	n/a
921.652	n/a	REC_WORD	460826	wordpools/wasnorm_wordpool.txt	LTP113	ltpFR	0	4	-1	OMELET	976	n/a	-1	n/a	n/a	n/a	n/a	n/a
922.92	n/a	REC_WORD	461460	wordpools/wasnorm_wordpool.txt	LTP113	ltpFR	0	4	-1	PLUM	1090	n/a	-1	n/a	n/a	n/a	n/a	n/a
923.992	n/a	REC_WORD	461996	wordpools/wasnorm_wordpool.txt	LTP113	ltpFR	0	4	-1	MUG	930	n/a	-1	n/a	n/a	n/a	n/a	n/a
947.784	n/a	REC_WORD	473892	wordpools/wasnorm_wordpool.txt	LTP113	ltpFR	0	4	-1	BAIT	70	n/a	-1	n/a	n/a	n/a	n/a	n/a
1465.836	n/a	WORD	732918	wordpools/wasnorm_wordpool.txt	LTP113	ltpFR	0	5	1	DRESS	495	n/a	3	1	0.412841796875	0.57763671875	upper	../fonts/zerothre.ttf
1468.216	n/a	KEY_MSG	734108	n/a	LTP113	ltpFR	0	5	n/a	n/a	n/a	n/a	n/a	n/a	n/a	n/a	n/a	n/a
1470.746	n/a	WORD	735373	wordpools/wasnorm_wordpool.txt	LTP113	ltpFR	0	5	1	TUXEDO	1525	n/a	1	1	0.412841796875	0.57763671875	upper	../fonts/zerothre.ttf
1474.608	n/a	WORD	737304	wordpools/wasnorm_wordpool.txt	LTP113	ltpFR	0	5	1	PUMPKIN	1142	n/a	1	1	0.412841796875	0.57763671875	upper	../fonts/zerothre.ttf
1478.778	n/a	WORD	739389	wordpools/wasnorm_wordpool.txt	LTP113	ltpFR	0	5	1	RACCOON	1153	n/a	1	1	0.412841796875	0.57763671875	upper	../fonts/zerothre.ttf
1482.958	n/a	WORD	741479	wordpools/wasnorm_wordpool.txt	LTP113	ltpFR	0	5	1	VITAMIN	1574	n/a	0	1	0.412841796875	0.57763671875	upper	../fonts/zerothre.ttf
1487.086	n/a	WORD	743543	wordpools/wasnorm_wordpool.txt	LTP113	ltpFR	0	5	1	DRUG	501	n/a	0	1	0.412841796875	0.57763671875	upper	../fonts/zerothre.ttf
1491.264	n/a	WORD	745632	wordpools/wasnorm_wordpool.txt	LTP113	ltpFR	0	5	1	FUNGUS	614	n/a	1	1	0.412841796875	0.57763671875	upper	../fonts/zerothre.ttf
1495.11	n/a	WORD	747555	wordpools/wasnorm_wordpool.txt	LTP113	ltpFR	0	5	1	CUSTARD	429	n/a	0	1	0.412841796875	0.57763671875	upper	../fonts/zerothre.ttf
1499.256	n/a	WORD	749628	wordpools/wasnorm_wordpool.txt	LTP113	ltpFR	0	5	1	DINNER	468	n/a	0	1	0.412841796875	0.57763671875	upper	../fonts/zerothre.ttf
1503.142	n/a	WORD	751571	wordpools/wasnorm_wordpool.txt	LTP113	ltpFR	0	5	1	BUFFALO	186	n/a	1	1	0.412841796875	0.57763671875	upper	../fonts/zerothre.ttf
1507.154	n/a	WORD	753577	wordpools/wasnorm_wordpool.txt	LTP113	ltpFR	0	5	1	GANGSTER	620	n/a	1	1	0.412841796875	0.57763671875	upper	../fonts/zerothre.ttf
1511.034	n/a	WORD	755517	wordpools/wasnorm_wordpool.txt	LTP113	ltpFR	0	5	1	YARN	1631	n/a	0	1	0.412841796875	0.57763671875	upper	../fonts/zerothre.ttf
1515.02	n/a	WORD	757510	wordpools/wasnorm_wordpool.txt	LTP113	ltpFR	0	5	1	ANTEATER	26	n/a	1	1	0.412841796875	0.57763671875	upper	../fonts/zerothre.ttf
1519.018	n/a	WORD	759509	wordpools/wasnorm_wordpool.txt	LTP113	ltpFR	0	5	1	SHEPHERD	1283	n/a	1	1	0.412841796875	0.57763671875	upper	../fonts/zerothre.ttf
1523.196	n/a	WORD	761598	wordpools/wasnorm_wordpool.txt	LTP113	ltpFR	0	5	1	HOSPITAL	721	n/a	0	1	0.412841796875	0.57763671875	upper	../fonts/zerothre.ttf
1527.042	n/a	WORD	763521	wordpools/wasnorm_wordpool.txt	LTP113	ltpFR	0	5	1	GLOBE	641	n/a	0	1	0.412841796875	0.57763671875	upper	../fonts/zerothre.ttf
1533.084	n/a	REC_START	766542	n/a	LTP113	ltpFR	0	5	n/a	n/a	n/a	n/a	n/a	n/a	n/a	n/a	n/a	n/a
1533.662	n/a	REC_WORD	766831	wordpools/wasnorm_wordpool.txt	LTP113	ltpFR	0	5	1	GLOBE	641	n/a	0	n/a	n/a	n/a	n/a	n/a
1534.47	n/a	REC_WORD	767235	wordpools/wasnorm_wordpool.txt	LTP113	ltpFR	0	5	1	HOSPITAL	721	n/a	0	n/a	n/a	n/a	n/a	n/a
1536.172	n/a	REC_WORD	768086	wordpools/wasnorm_wordpool.txt	LTP113	ltpFR	0	5	1	ANTEATER	26	n/a	1	n/a	n/a	n/a	n/a	n/a
1537.52	n/a	REC_WORD	768760	wordpools/wasnorm_wordpool.txt	LTP113	ltpFR	0	5	1	YARN	1631	n/a	0	n/a	n/a	n/a	n/a	n/a
1538.912	n/a	REC_WORD	769456	wordpools/wasnorm_wordpool.txt	LTP113	ltpFR	0	5	1	DRESS	495	n/a	3	n/a	n/a	n/a	n/a	n/a
1552.126	n/a	REC_WORD	776063	wordpools/wasnorm_wordpool.txt	LTP113	ltpFR	0	5	1	SHEPHERD	1283	n/a	1	n/a	n/a	n/a	n/a	n/a
1563.42	n/a	REC_WORD	781710	wordpools/wasnorm_wordpool.txt	LTP113	ltpFR	0	5	1	CUSTARD	429	n/a	0	n/a	n/a	n/a	n/a	n/a
1623.988	n/a	WORD	811994	wordpools/wasnorm_wordpool.txt	LTP113	ltpFR	0	6	1	ROOMMATE	1207	n/a	1	1	0.412841796875	0.57763671875	upper	../fonts/zerothre.ttf
1628.05	n/a	WORD	814025	wordpools/wasnorm_wordpool.txt	LTP113	ltpFR	0	6	1	LABEL	790	n/a	0	1	0.412841796875	0.57763671875	upper	../fonts/zerothre.ttf
1632.228	n/a	WORD	816114	wordpools/wasnorm_wordpool.txt	LTP113	ltpFR	0	6	1	PENGUIN	1044	n/a	1	1	0.412841796875	0.57763671875	upper	../fonts/zerothre.ttf
1636.256	n/a	WORD	818128	wordpools/wasnorm_wordpool.txt	LTP113	ltpFR	0	6	1	PELICAN	1039	n/a	1	1	0.412841796875	0.57763671875	upper	../fonts/zerothre.ttf
1640.21	n/a	WORD	820105	wordpools/wasnorm_wordpool.txt	LTP113	ltpFR	0	6	1	ESSAY	540	n/a	0	1	0.412841796875	0.57763671875	upper	../fonts/zerothre.ttf
1644.156	n/a	WORD	822078	wordpools/wasnorm_wordpool.txt	LTP113	ltpFR	0	6	1	DRIVER	499	n/a	1	1	0.412841796875	0.57763671875	upper	../fonts/zerothre.ttf
1648.134	n/a	WORD	824067	wordpools/wasnorm_wordpool.txt	LTP113	ltpFR	0	6	1	POLYESTER	1100	n/a	0	1	0.412841796875	0.57763671875	upper	../fonts/zerothre.ttf
1652.13	n/a	WORD	826065	wordpools/wasnorm_wordpool.txt	LTP113	ltpFR	0	6	1	SKIN	1318	n/a	1	1	0.412841796875	0.57763671875	upper	../fonts/zerothre.ttf
1656.058	n/a	WORD	828029	wordpools/wasnorm_wordpool.txt	LTP113	ltpFR	0	6	1	FLEET	578	n/a	0	1	0.412841796875	0.57763671875	upper	../fonts/zerothre.ttf
1660.038	n/a	WORD	830019	wordpools/wasnorm_wordpool.txt	LTP113	ltpFR	0	6	1	SOCKET	1340	n/a	0	1	0.412841796875	0.57763671875	upper	../fonts/zerothre.ttf
1663.924	n/a	WORD	831962	wordpools/wasnorm_wordpool.txt	LTP113	ltpFR	0	6	1	PARTNER	1017	n/a	1	1	0.412841796875	0.57763671875	upper	../fonts/zerothre.ttf
1667.836	n/a	WORD	833918	wordpools/wasnorm_wordpool.txt	LTP113	ltpFR	0	6	1	TANK	1432	n/a	0	1	0.412841796875	0.57763671875	upper	../fonts/zerothre.ttf
1671.932	n/a	WORD	835966	wordpools/wasnorm_wordpool.txt	LTP113	ltpFR	0	6	1	PORTRAIT	1111	n/a	0	1	0.412841796875	0.57763671875	upper	../fonts/zerothre.ttf
1675.92	n/a	WORD	837960	wordpools/wasnorm_wordpool.txt	LTP113	ltpFR	0	6	1	BOMB	147	n/a	0	1	0.412841796875	0.57763671875	upper	../fonts/zerothre.ttf
1679.872	n/a	WORD	839936	wordpools/wasnorm_wordpool.txt	LTP113	ltpFR	0	6	1	BARRACUDA	90	n/a	1	1	0.412841796875	0.57763671875	upper	../fonts/zerothre.ttf
1683.902	n/a	WORD	841951	wordpools/wasnorm_wordpool.txt	LTP113	ltpFR	0	6	1	OCTOPUS	971	n/a	1	1	0.412841796875	0.57763671875	upper	../fonts/zerothre.ttf
1689.754	n/a	REC_START	844877	n/a	LTP113	ltpFR	0	6	n/a	n/a	n/a	n/a	n/a	n/a	n/a	n/a	n/a	n/a
1690.676	n/a	REC_WORD	845338	wordpools/wasnorm_wordpool.txt	LTP113	ltpFR	0	6	1	TANK	1432	n/a	0	n/a	n/a	n/a	n/a	n/a
1691.524	n/a	REC_WORD	845762	wordpools/wasnorm_wordpool.txt	LTP113	ltpFR	0	6	1	FLEET	578	n/a	0	n/a	n/a	n/a	n/a	n/a
1693.206	n/a	REC_WORD	846603	wordpools/wasnorm_wordpool.txt	LTP113	ltpFR	0	6	1	BARRACUDA	90	n/a	1	n/a	n/a	n/a	n/a	n/a
1694.248	n/a	REC_WORD	847124	wordpools/wasnorm_wordpool.txt	LTP113	ltpFR	0	6	1	OCTOPUS	971	n/a	1	n/a	n/a	n/a	n/a	n/a
1695.6	n/a	REC_WORD	847800	wordpools/wasnorm_wordpool.txt	LTP113	ltpFR	0	6	1	PENGUIN	1044	n/a	1	n/a	n/a	n/a	n/a	n/a
1696.752	n/a	REC_WORD	848376	wordpools/wasnorm_wordpool.txt	LTP113	ltpFR	0	6	1	PELICAN	1039	n/a	1	n/a	n/a	n/a	n/a	n/a
1697.86	n/a	REC_WORD	848930	wordpools/wasnorm_wordpool.txt	LTP113	ltpFR	0	6	1	PARTNER	1017	n/a	1	n/a	n/a	n/a	n/a	n/a
1700.054	n/a	REC_WORD	850027	wordpools/wasnorm_wordpool.txt	LTP113	ltpFR	0	6	1	POLYESTER	1100	n/a	0	n/a	n/a	n/a	n/a	n/a
1711.638	n/a	REC_WORD	855819	wordpools/wasnorm_wordpool.txt	LTP113	ltpFR	0	6	1	PUMPKIN	1142	n/a	1	n/a	n/a	n/a	n/a	n/a
1787.1	n/a	WORD	893550	wordpools/wasnorm_wordpool.txt	LTP113	ltpFR	0	7	1	BOULDER	155	n/a	0	1	0.412841796875	0.57763671875	upper	../fonts/zerothre.ttf
1791.17	n/a	WORD	895585	wordpools/wasnorm_wordpool.txt	LTP113	ltpFR	0	7	1	PARIS	1014	n/a	0	1	0.412841796875	0.57763671875	upper	../fonts/zerothre.ttf
1795.282	n/a	WORD	897641	wordpools/wasnorm_wordpool.txt	LTP113	ltpFR	0	7	1	BLUEBERRY	140	n/a	1	1	0.412841796875	0.57763671875	upper	../fonts/zerothre.ttf
1799.328	n/a	WORD	899664	wordpools/wasnorm_wordpool.txt	LTP113	ltpFR	0	7	1	ORANGE	980	n/a	1	1	0.412841796875	0.57763671875	upper	../fonts/zerothre.ttf
1803.456	n/a	WORD	901728	wordpools/wasnorm_wordpool.txt	LTP113	ltpFR	0	7	1	CHEMICAL	291	n/a	0	1	0.412841796875	0.57763671875	upper	../fonts/zerothre.ttf
1807.51	n/a	WORD	903755	wordpools/wasnorm_wordpool.txt	LTP113	ltpFR	0	7	1	CLOCK	325	n/a	0	1	0.412841796875	0.57763671875	upper	../fonts/zerothre.ttf
1811.654	n/a	WORD	905827	wordpools/wasnorm_wordpool.txt	LTP113	ltpFR	0	7	1	FLEA	577	n/a	1	1	0.412841796875	0.57763671875	upper	../fonts/zerothre.ttf
1815.632	n/a	WORD	907816	wordpools/wasnorm_wordpool.txt	LTP113	ltpFR	0	7	1	SERVER	1272	n/a	1	1	0.412841796875	0.57763671875	upper	../fonts/zerothre.ttf
1819.562	n/a	WORD	909781	wordpools/wasnorm_wordpool.txt	LTP113	ltpFR	0	7	1	WAITRESS	1581	n/a	1	1	0.412841796875	0.57763671875	upper	../fonts/zerothre.ttf
1823.492	n/a	WORD	911746	wordpools/wasnorm_wordpool.txt	LTP113	ltpFR	0	7	1	NET	946	n/a	0	1	0.412841796875	0.57763671875	upper	../fonts/zerothre.ttf
1827.404	n/a	WORD	913702	wordpools/wasnorm_wordpool.txt	LTP113	ltpFR	0	7	1	PUMP	1141	n/a	0	1	0.412841796875	0.57763671875	upper	../fonts/zerothre.ttf
1831.224	n/a	WORD	915612	wordpools/wasnorm_wordpool.txt	LTP113	ltpFR	0	7	1	VALVE	1546	n/a	0	1	0.412841796875	0.57763671875	upper	../fonts/zerothre.ttf
1835.352	n/a	WORD	917676	wordpools/wasnorm_wordpool.txt	LTP113	ltpFR	0	7	1	SPIDER	1351	n/a	1	1	0.412841796875	0.57763671875	upper	../fonts/zerothre.ttf
1839.456	n/a	WORD	919728	wordpools/wasnorm_wordpool.txt	LTP113	ltpFR	0	7	1	SLIDE	1326	n/a	0	1	0.412841796875	0.57763671875	upper	../fonts/zerothre.ttf
1843.576	n/a	WORD	921788	wordpools/wasnorm_wordpool.txt	LTP113	ltpFR	0	7	1	CAB	209	n/a	0	1	0.412841796875	0.57763671875	upper	../fonts/zerothre.ttf
1847.596	n/a	WORD	923798	wordpools/wasnorm_wordpool.txt	LTP113	ltpFR	0	7	1	TICK	1463	n/a	1	1	0.412841796875	0.57763671875	upper	../fonts/zerothre.ttf
1853.284	n/a	REC_START	926642	n/a	LTP113	ltpFR	0	7	n/a	n/a	n/a	n/a	n/a	n/a	n/a	n/a	n/a	n/a
1853.822	n/a	REC_WORD	926911	wordpools/wasnorm_wordpool.txt	LTP113	ltpFR	0	7	1	SLIDE	1326	n/a	0	n/a	n/a	n/a	n/a	n/a
1855.13	n/a	REC_WORD	927565	wordpools/wasnorm_wordpool.txt	LTP113	ltpFR	0	7	1	NET	946	n/a	0	n/a	n/a	n/a	n/a	n/a
1856.456	n/a	REC_WORD	928228	wordpools/wasnorm_wordpool.txt	LTP113	ltpFR	0	7	1	TICK	1463	n/a	1	n/a	n/a	n/a	n/a	n/a
1857.484	n/a	REC_WORD	928742	wordpools/wasnorm_wordpool.txt	LTP113	ltpFR	0	7	1	FLEA	577	n/a	1	n/a	n/a	n/a	n/a	n/a
1858.916	n/a	REC_WORD	929458	wordpools/wasnorm_wordpool.txt	LTP113	ltpFR	0	7	1	PUMP	1141	n/a	0	n/a	n/a	n/a	n/a	n/a
1860.172	n/a	REC_WORD	930086	wordpools/wasnorm_wordpool.txt	LTP113	ltpFR	0	7	1	VALVE	1546	n/a	0	n/a	n/a	n/a	n/a	n/a
1861.61	n/a	REC_WORD	930805	wordpools/wasnorm_wordpool.txt	LTP113	ltpFR	0	7	1	WAITRESS	1581	n/a	1	n/a	n/a	n/a	n/a	n/a
1862.686	n/a	REC_WORD	931343	wordpools/wasnorm_wordpool.txt	LTP113	ltpFR	0	7	1	SERVER	1272	n/a	1	n/a	n/a	n/a	n/a	n/a
1870.07	n/a	REC_WORD	935035	wordpools/wasnorm_wordpool.txt	LTP113	ltpFR	0	7	1	ORANGE	980	n/a	1	n/a	n/a	n/a	n/a	n/a
1874.704	n/a	REC_WORD	937352	wordpools/wasnorm_wordpool.txt	LTP113	ltpFR	0	7	1	BLUEBERRY	140	n/a	1	n/a	n/a	n/a	n/a	n/a
1882.652	n/a	REC_WORD	941326	wordpools/wasnorm_wordpool.txt	LTP113	ltpFR	0	7	1	PARIS	1014	n/a	0	n/a	n/a	n/a	n/a	n/a
1897.542	n/a	REC_WORD	948771	wordpools/wasnorm_wordpool.txt	LTP113	ltpFR	0	7	1	SPIDER	1351	n/a	1	n/a	n/a	n/a	n/a	n/a
1917.088	n/a	REC_WORD	958544	wordpools/wasnorm_wordpool.txt	LTP113	ltpFR	0	7	1	SKIN	1318	n/a	1	n/a	n/a	n/a	n/a	n/a
1935.77	n/a	WORD	967885	wordpools/wasnorm_wordpool.txt	LTP113	ltpFR	0	8	1	HOSTESS	723	n/a	1	1	0.412841796875	0.57763671875	upper	../fonts/zerothre.ttf
1939.716	n/a	WORD	969858	wordpools/wasnorm_wordpool.txt	LTP113	ltpFR	0	8	1	BOTTLE	153	n/a	0	1	0.412841796875	0.57763671875	upper	../fonts/zerothre.ttf
1943.67	n/a	WORD	971835	wordpools/wasnorm_wordpool.txt	LTP113	ltpFR	0	8	1	BEER	114	n/a	0	1	0.412841796875	0.57763671875	upper	../fonts/zerothre.ttf
1947.648	n/a	WORD	973824	wordpools/wasnorm_wordpool.txt	LTP113	ltpFR	0	8	1	GRILL	661	n/a	0	1	0.412841796875	0.57763671875	upper	../fonts/zerothre.ttf
1951.512	n/a	WORD	975756	wordpools/wasnorm_wordpool.txt	LTP113	ltpFR	0	8	1	REGISTER	1180	n/a	0	1	0.412841796875	0.57763671875	upper	../fonts/zerothre.ttf
1955.656	n/a	WORD	977828	wordpools/wasnorm_wordpool.txt	LTP113	ltpFR	0	8	1	KITTEN	780	n/a	1	1	0.412841796875	0.57763671875	upper	../fonts/zerothre.ttf
1959.568	n/a	WORD	979784	wordpools/wasnorm_wordpool.txt	LTP113	ltpFR	0	8	1	BAY	102	n/a	0	1	0.412841796875	0.57763671875	upper	../fonts/zerothre.ttf
1963.398	n/a	WORD	981699	wordpools/wasnorm_wordpool.txt	LTP113	ltpFR	0	8	1	COUGAR	387	n/a	1	1	0.412841796875	0.57763671875	upper	../fonts/zerothre.ttf
1967.542	n/a	WORD	983771	wordpools/wasnorm_wordpool.txt	LTP113	ltpFR	0	8	1	CHAUFFEUR	283	n/a	1	1	0.412841796875	0.57763671875	upper	../fonts/zerothre.ttf
1971.678	n/a	WORD	985839	wordpools/wasnorm_wordpool.txt	LTP113	ltpFR	0	8	1	AUDIENCE	59	n/a	1	1	0.412841796875	0.57763671875	upper	../fonts/zerothre.ttf
1975.566	n/a	WORD	987783	wordpools/wasnorm_wordpool.txt	LTP113	ltpFR	0	8	1	DESSERT	453	n/a	0	1	0.412841796875	0.57763671875	upper	../fonts/zerothre.ttf
1979.462	n/a	WORD	989731	wordpools/wasnorm_wordpool.txt	LTP113	ltpFR	0	8	1	HOSE	720	n/a	0	1	0.412841796875	0.57763671875	upper	../fonts/zerothre.ttf
1983.358	n/a	WORD	991679	wordpools/wasnorm_wordpool.txt	LTP113	ltpFR	0	8	1	PAINT	1003	n/a	0	1	0.412841796875	0.57763671875	upper	../fonts/zerothre.ttf
1987.212	n/a	WORD	993606	wordpools/wasnorm_wordpool.txt	LTP113	ltpFR	0	8	1	STAFF	1365	n/a	1	1	0.412841796875	0.57763671875	upper	../fonts/zerothre.ttf
1991.066	n/a	WORD	995533	wordpools/wasnorm_wordpool.txt	LTP113	ltpFR	0	8	1	STREAM	1392	n/a	0	1	0.412841796875	0.57763671875	upper	../fonts/zerothre.ttf
1994.978	n/a	WORD	997489	wordpools/wasnorm_wordpool.txt	LTP113	ltpFR	0	8	1	REEF	1177	n/a	0	1	0.412841796875	0.57763671875	upper	../fonts/zerothre.ttf
2000.872	n/a	REC_START	1000436	n/a	LTP113	ltpFR	0	8	n/a	n/a	n/a	n/a	n/a	n/a	n/a	n/a	n/a	n/a
2001.774	n/a	REC_WORD	1000887	wordpools/wasnorm_wordpool.txt	LTP113	ltpFR	0	8	1	REEF	1177	n/a	0	n/a	n/a	n/a	n/a	n/a
2002.972	n/a	REC_WORD	1001486	wordpools/wasnorm_wordpool.txt	LTP113	ltpFR	0	8	1	STAFF	1365	n/a	1	n/a	n/a	n/a	n/a	n/a
2004.424	n/a	REC_WORD	1002212	wordpools/wasnorm_wordpool.txt	LTP113	ltpFR	0	8	1	COUGAR	387	n/a	1	n/a	n/a	n/a	n/a	n/a
2005.66	n/a	REC_WORD	1002830	wordpools/wasnorm_wordpool.txt	LTP113	ltpFR	0	8	1	REGISTER	1180	n/a	0	n/a	n/a	n/a	n/a	n/a
2007.442	n/a	REC_WORD	1003721	wordpools/wasnorm_wordpool.txt	LTP113	ltpFR	0	8	1	HOSTESS	723	n/a	1	n/a	n/a	n/a	n/a	n/a
2016.682	n/a	REC_WORD	1008341	wordpools/wasnorm_wordpool.txt	LTP113	ltpFR	0	8	1	BEER	114	n/a	0	n/a	n/a	n/a	n/a	n/a
2019.1	n/a	REC_WORD	1009550	wordpools/wasnorm_wordpool.txt	LTP113	ltpFR	0	8	1	BOTTLE	153	n/a	0	n/a	n/a	n/a	n/a	n/a
2031.578	n/a	REC_WORD	1015789	wordpools/wasnorm_wordpool.txt	LTP113	ltpFR	0	8	1	REEF	1177	n/a	0	n/a	n/a	n/a	n/a	n/a
2043.102	n/a	REC_WORD	1021551	wordpools/wasnorm_wordpool.txt	LTP113	ltpFR	0	8	1	AUDIENCE	59	n/a	1	n/a	n/a	n/a	n/a	n/a
2084.558	n/a	WORD	1042279	wordpools/wasnorm_wordpool.txt	LTP113	ltpFR	0	9	0	BUTTERFLY	206	n/a	0	0	0.5869140625	0.422607421875	lower	../fonts/amplitud.ttf
2088.396	n/a	WORD	1044198	wordpools/wasnorm_wordpool.txt	LTP113	ltpFR	0	9	0	ITEM	746	n/a	1	0	0.5869140625	0.422607421875	lower	../fonts/amplitud.ttf
2092.324	n/a	WORD	1046162	wordpools/wasnorm_wordpool.txt	LTP113	ltpFR	0	9	0	MEADOW	881	n/a	1	0	0.5869140625	0.422607421875	lower	../fonts/amplitud.ttf
2096.202	n/a	WORD	1048101	wordpools/wasnorm_wordpool.txt	LTP113	ltpFR	0	9	0	CACTUS	215	n/a	0	0	0.5869140625	0.422607421875	lower	../fonts/amplitud.ttf
2100.15	n/a	WORD	1050075	wordpools/wasnorm_wordpool.txt	LTP113	ltpFR	0	9	0	KEEPER	769	n/a	1	0	0.5869140625	0.422607421875	lower	../fonts/amplitud.ttf
2104.104	n/a	WORD	1052052	wordpools/wasnorm_wordpool.txt	LTP113	ltpFR	0	9	0	HERB	704	n/a	0	0	0.5869140625	0.422607421875	lower	../fonts/amplitud.ttf
2108.224	n/a	WORD	1054112	wordpools/wasnorm_wordpool.txt	LTP113	ltpFR	0	9	0	SAGE	1222	n/a	0	0	0.5869140625	0.422607421875	lower	../fonts/amplitud.ttf
2112.152	n/a	WORD	1056076	wordpools/wasnorm_wordpool.txt	LTP113	ltpFR	0	9	0	MOTHER	921	n/a	1	0	0.5869140625	0.422607421875	lower	../fonts/amplitud.ttf
2116.148	n/a	WORD	1058074	wordpools/wasnorm_wordpool.txt	LTP113	ltpFR	0	9	0	SPOON	1357	n/a	0	0	0.5869140625	0.422607421875	lower	../fonts/amplitud.ttf
2119.992	n/a	WORD	1059996	wordpools/wasnorm_wordpool.txt	LTP113	ltpFR	0	9	0	CATERPILLAR	259	n/a	0	0	0.5869140625	0.422607421875	lower	../fonts/amplitud.ttf
2123.954	n/a	WORD	1061977	wordpools/wasnorm_wordpool.txt	LTP113	ltpFR	0	9	0	HANDKERCHIEF	686	n/a	0	0	0.5869140625	0.422607421875	lower	../fonts/amplitud.ttf
2128.15	n/a	WORD	1064075	wordpools/wasnorm_wordpool.txt	LTP113	ltpFR	0	9	0	TABLET	1427	n/a	0	0	0.5869140625	0.422607421875	lower	../fonts/amplitud.ttf
2132.028	n/a	WORD	1066014	wordpools/wasnorm_wordpool.txt	LTP113	ltpFR	0	9	0	KETTLE	772	n/a	0	0	0.5869140625	0.422607421875	lower	../fonts/amplitud.ttf
2136.032	n/a	WORD	1068016	wordpools/wasnorm_wordpool.txt	LTP113	ltpFR	0	9	0	TORTOISE	1486	n/a	1	0	0.5869140625	0.422607421875	lower	../fonts/amplitud.ttf
2139.986	n/a	WORD	1069993	wordpools/wasnorm_wordpool.txt	LTP113	ltpFR	0	9	0	JUGGLER	763	n/a	1	0	0.5869140625	0.422607421875	lower	../fonts/amplitud.ttf
2143.906	n/a	WORD	1071953	wordpools/wasnorm_wordpool.txt	LTP113	ltpFR	0	9	0	POSTAGE	1113	n/a	0	0	0.5869140625	0.422607421875	lower	../fonts/amplitud.ttf
2149.616	n/a	REC_START	1074808	n/a	LTP113	ltpFR	0	9	n/a	n/a	n/a	n/a	n/a	n/a	n/a	n/a	n/a	n/a
2150.284	n/a	REC_WORD	1075142	wordpools/wasnorm_wordpool.txt	LTP113	ltpFR	0	9	0	POSTAGE	1113	n/a	0	n/a	n/a	n/a	n/a	n/a
2151.646	n/a	REC_WORD	1075823	wordpools/wasnorm_wordpool.txt	LTP113	ltpFR	0	9	0	MOTHER	921	n/a	1	n/a	n/a	n/a	n/a	n/a
2152.73	n/a	REC_WORD	1076365	wordpools/wasnorm_wordpool.txt	LTP113	ltpFR	0	9	0	JUGGLER	763	n/a	1	n/a	n/a	n/a	n/a	n/a
2155.188	n/a	REC_WORD	1077594	wordpools/wasnorm_wordpool.txt	LTP113	ltpFR	0	9	0	MEADOW	881	n/a	1	n/a	n/a	n/a	n/a	n/a
2156.45	n/a	REC_WORD	1078225	wordpools/wasnorm_wordpool.txt	LTP113	ltpFR	0	9	0	BUTTERFLY	206	n/a	0	n/a	n/a	n/a	n/a	n/a
2157.692	n/a	REC_WORD	1078846	wordpools/wasnorm_wordpool.txt	LTP113	ltpFR	0	9	0	CATERPILLAR	259	n/a	0	n/a	n/a	n/a	n/a	n/a
2164.622	n/a	REC_WORD	1082311	wordpools/wasnorm_wordpool.txt	LTP113	ltpFR	0	9	0	ITEM	746	n/a	1	n/a	n/a	n/a	n/a	n/a
2175.204	n/a	REC_WORD	1087602	wordpools/wasnorm_wordpool.txt	LTP113	ltpFR	0	9	0	TORTOISE	1486	n/a	1	n/a	n/a	n/a	n/a	n/a
2183.828	n/a	REC_WORD	1091914	wordpools/wasnorm_wordpool.txt	LTP113	ltpFR	0	9	0	KEEPER	769	n/a	1	n/a	n/a	n/a	n/a	n/a
2206.148	n/a	REC_WORD	1103074	wordpools/wasnorm_wordpool.txt	LTP113	ltpFR	0	9	0	HANDKERCHIEF	686	n/a	0	n/a	n/a	n/a	n/a	n/a
2230.614	n/a	WORD	1115307	wordpools/wasnorm_wordpool.txt	LTP113	ltpFR	0	10	0	SALOON	1228	n/a	1	0	0.5869140625	0.422607421875	lower	../fonts/amplitud.ttf
2234.51	n/a	WORD	1117255	wordpools/wasnorm_wordpool.txt	LTP113	ltpFR	0	10	0	SHIRT	1287	n/a	0	0	0.5869140625	0.422607421875	lower	../fonts/amplitud.ttf
2238.482	n/a	WORD	1119241	wordpools/wasnorm_wordpool.txt	LTP113	ltpFR	0	10	0	TRAY	1498	n/a	1	0	0.5869140625	0.422607421875	lower	../fonts/amplitud.ttf
2242.376	n/a	WORD	1121188	wordpools/wasnorm_wordpool.txt	LTP113	ltpFR	0	10	0	PLAZA	1088	n/a	1	0	0.5869140625	0.422607421875	lower	../fonts/amplitud.ttf
2246.222	n/a	WORD	1123111	wordpools/wasnorm_wordpool.txt	LTP113	ltpFR	0	10	0	DEPARTMENT	449	n/a	1	0	0.5869140625	0.422607421875	lower	../fonts/amplitud.ttf
2250.076	n/a	WORD	1125038	wordpools/wasnorm_wordpool.txt	LTP113	ltpFR	0	10	0	SISTER	1312	n/a	1	0	0.5869140625	0.422607421875	lower	../fonts/amplitud.ttf
2254.254	n/a	WORD	1127127	wordpools/wasnorm_wordpool.txt	LTP113	ltpFR	0	10	0	SLEEVE	1324	n/a	1	0	0.5869140625	0.422607421875	lower	../fonts/amplitud.ttf
2258.316	n/a	WORD	1129158	wordpools/wasnorm_wordpool.txt	LTP113	ltpFR	0	10	0	CHIP	303	n/a	0	0	0.5869140625	0.422607421875	lower	../fonts/amplitud.ttf
2262.446	n/a	WORD	1131223	wordpools/wasnorm_wordpool.txt	LTP113	ltpFR	0	10	0	BRANDY	169	n/a	0	0	0.5869140625	0.422607421875	lower	../fonts/amplitud.ttf
2266.416	n/a	WORD	1133208	wordpools/wasnorm_wordpool.txt	LTP113	ltpFR	0	10	0	OWNER	993	n/a	1	0	0.5869140625	0.422607421875	lower	../fonts/amplitud.ttf
2270.436	n/a	WORD	1135218	wordpools/wasnorm_wordpool.txt	LTP113	ltpFR	0	10	0	HUT	729	n/a	1	0	0.5869140625	0.422607421875	lower	../fonts/amplitud.ttf
2274.548	n/a	WORD	1137274	wordpools/wasnorm_wordpool.txt	LTP113	ltpFR	0	10	0	SWATTER	1418	n/a	1	0	0.5869140625	0.422607421875	lower	../fonts/amplitud.ttf
2278.552	n/a	WORD	1139276	wordpools/wasnorm_wordpool.txt	LTP113	ltpFR	0	10	0	CARPET	247	n/a	1	0	0.5869140625	0.422607421875	lower	../fonts/amplitud.ttf
2282.414	n/a	WORD	1141207	wordpools/wasnorm_wordpool.txt	LTP113	ltpFR	0	10	0	NUCLEUS	961	n/a	0	0	0.5869140625	0.422607421875	lower	../fonts/amplitud.ttf
2286.51	n/a	WORD	1143255	wordpools/wasnorm_wordpool.txt	LTP113	ltpFR	0	10	0	DONKEY	484	n/a	1	0	0.5869140625	0.422607421875	lower	../fonts/amplitud.ttf
2290.556	n/a	WORD	1145278	wordpools/wasnorm_wordpool.txt	LTP113	ltpFR	0	10	0	PONY	1102	n/a	1	0	0.5869140625	0.422607421875	lower	../fonts/amplitud.ttf
2296.324	n/a	REC_START	1148162	n/a	LTP113	ltpFR	0	10	n/a	n/a	n/a	n/a	n/a	n/a	n/a	n/a	n/a	n/a
2297.126	n/a	REC_WORD	1148563	wordpools/wasnorm_wordpool.txt	LTP113	ltpFR	0	10	0	PONY	1102	n/a	1	n/a	n/a	n/a	n/a	n/a
2298.318	n/a	REC_WORD	1149159	wordpools/wasnorm_wordpool.txt	LTP113	ltpFR	0	10	0	DONKEY	484	n/a	1	n/a	n/a	n/a	n/a	n/a
2299.58	n/a	REC_WORD	1149790	wordpools/wasnorm_wordpool.txt	LTP113	ltpFR	0	10	0	NUCLEUS	961	n/a	0	n/a	n/a	n/a	n/a	n/a
2300.962	n/a	REC_WORD	1150481	wordpools/wasnorm_wordpool.txt	LTP113	ltpFR	0	10	0	SWATTER	1418	n/a	1	n/a	n/a	n/a	n/a	n/a
2304.56	n/a	REC_WORD	1152280	wordpools/wasnorm_wordpool.txt	LTP113	ltpFR	0	10	0	BRANDY	169	n/a	0	n/a	n/a	n/a	n/a	n/a
2311.344	n/a	REC_WORD	1155672	wordpools/wasnorm_wordpool.txt	LTP113	ltpFR	0	10	0	PLAZA	1088	n/a	1	n/a	n/a	n/a	n/a	n/a
2312.386	n/a	REC_WORD	1156193	wordpools/wasnorm_wordpool.txt	LTP113	ltpFR	0	10	0	DEPARTMENT	449	n/a	1	n/a	n/a	n/a	n/a	n/a
2315.62	n/a	REC_WORD	1157810	wordpools/wasnorm_wordpool.txt	LTP113	ltpFR	0	10	0	HUT	729	n/a	1	n/a	n/a	n/a	n/a	n/a
2322.164	n/a	REC_WORD	1161082	wordpools/wasnorm_wordpool.txt	LTP113	ltpFR	0	10	0	SLEEVE	1324	n/a	1	n/a	n/a	n/a	n/a	n/a
2323.222	n/a	REC_WORD	1161611	wordpools/wasnorm_wordpool.txt	LTP113	ltpFR	0	10	0	SHIRT	1287	n/a	0	n/a	n/a	n/a	n/a	n/a
2357.79	n/a	REC_WORD	1178895	wordpools/wasnorm_wordpool.txt	LTP113	ltpFR	0	10	n/a	SALON	-1	n/a	n/a	n/a	n/a	n/a	n/a	n/a
2368.15	n/a	REC_WORD	1184075	wordpools/wasnorm_wordpool.txt	LTP113	ltpFR	0	10	0	SPOON	1357	n/a	0	n/a	n/a	n/a	n/a	n/a
2378.054	n/a	WORD	1189027	wordpools/wasnorm_wordpool.txt	LTP113	ltpFR	0	11	0	PEARL	1034	n/a	n/a	0	0.5869140625	0.422607421875	lower	../fonts/amplitud.ttf
2381.076	n/a	SLOW_MSG	1190538	n/a	LTP113	ltpFR	0	11	n/a	n/a	n/a	n/a	n/a	n/a	n/a	n/a	n/a	n/a
2383.54	n/a	WORD	1191770	wordpools/wasnorm_wordpool.txt	LTP113	ltpFR	0	11	0	CALENDAR	221	n/a	0	0	0.5869140625	0.422607421875	lower	../fonts/amplitud.ttf
2387.634	n/a	WORD	1193817	wordpools/wasnorm_wordpool.txt	LTP113	ltpFR	0	11	0	BIKE	125	n/a	1	0	0.5869140625	0.422607421875	lower	../fonts/amplitud.ttf
2391.612	n/a	WORD	1195806	wordpools/wasnorm_wordpool.txt	LTP113	ltpFR	0	11	0	FROG	608	n/a	0	0	0.5869140625	0.422607421875	lower	../fonts/amplitud.ttf
2395.8	n/a	WORD	1197900	wordpools/wasnorm_wordpool.txt	LTP113	ltpFR	0	11	0	PASTA	1021	n/a	0	0	0.5869140625	0.422607421875	lower	../fonts/amplitud.ttf
2400.004	n/a	WORD	1200002	wordpools/wasnorm_wordpool.txt	LTP113	ltpFR	0	11	0	SPONGE	1355	n/a	0	0	0.5869140625	0.422607421875	lower	../fonts/amplitud.ttf
2403.866	n/a	WORD	1201933	wordpools/wasnorm_wordpool.txt	LTP113	ltpFR	0	11	0	TYPEWRITER	1531	n/a	1	0	0.5869140625	0.422607421875	lower	../fonts/amplitud.ttf
2407.768	n/a	WORD	1203884	wordpools/wasnorm_wordpool.txt	LTP113	ltpFR	0	11	0	KLEENEX	782	n/a	0	0	0.5869140625	0.422607421875	lower	../fonts/amplitud.ttf
2411.798	n/a	WORD	1205899	wordpools/wasnorm_wordpool.txt	LTP113	ltpFR	0	11	0	LIZARD	834	n/a	0	0	0.5869140625	0.422607421875	lower	../fonts/amplitud.ttf
2415.894	n/a	WORD	1207947	wordpools/wasnorm_wordpool.txt	LTP113	ltpFR	0	11	0	NECKLACE	940	n/a	0	0	0.5869140625	0.422607421875	lower	../fonts/amplitud.ttf
2419.806	n/a	WORD	1209903	wordpools/wasnorm_wordpool.txt	LTP113	ltpFR	0	11	0	BRACELET	163	n/a	0	0	0.5869140625	0.422607421875	lower	../fonts/amplitud.ttf
2423.618	n/a	WORD	1211809	wordpools/wasnorm_wordpool.txt	LTP113	ltpFR	0	11	0	WATERFALL	1595	n/a	1	0	0.5869140625	0.422607421875	lower	../fonts/amplitud.ttf
2427.646	n/a	WORD	1213823	wordpools/wasnorm_wordpool.txt	LTP113	ltpFR	0	11	0	OATMEAL	967	n/a	0	0	0.5869140625	0.422607421875	lower	../fonts/amplitud.ttf
2431.536	n/a	WORD	1215768	wordpools/wasnorm_wordpool.txt	LTP113	ltpFR	0	11	0	LEOPARD	812	n/a	1	0	0.5869140625	0.422607421875	lower	../fonts/amplitud.ttf
2435.414	n/a	WORD	1217707	wordpools/wasnorm_wordpool.txt	LTP113	ltpFR	0	11	0	ZOO	1637	n/a	1	0	0.5869140625	0.422607421875	lower	../fonts/amplitud.ttf
2439.468	n/a	WORD	1219734	wordpools/wasnorm_wordpool.txt	LTP113	ltpFR	0	11	0	RAISIN	1163	n/a	0	0	0.5869140625	0.422607421875	lower	../fonts/amplitud.ttf
2445.112	n/a	REC_START	1222556	n/a	LTP113	ltpFR	0	11	n/a	n/a	n/a	n/a	n/a	n/a	n/a	n/a	n/a	n/a
2446.02	n/a	REC_WORD	1223010	wordpools/wasnorm_wordpool.txt	LTP113	ltpFR	0	11	0	RAISIN	1163	n/a	0	n/a	n/a	n/a	n/a	n/a
2447.132	n/a	REC_WORD	1223566	wordpools/wasnorm_wordpool.txt	LTP113	ltpFR	0	11	0	OATMEAL	967	n/a	0	n/a	n/a	n/a	n/a	n/a
2448.248	n/a	REC_WORD	1224124	wordpools/wasnorm_wordpool.txt	LTP113	ltpFR	0	11	0	ZOO	1637	n/a	1	n/a	n/a	n/a	n/a	n/a
2449.386	n/a	REC_WORD	1224693	wordpools/wasnorm_wordpool.txt	LTP113	ltpFR	0	11	0	LEOPARD	812	n/a	1	n/a	n/a	n/a	n/a	n/a
2450.604	n/a	REC_WORD	1225302	wordpools/wasnorm_wordpool.txt	LTP113	ltpFR	0	11	0	PEARL	1034	n/a	n/a	n/a	n/a	n/a	n/a	n/a
2451.532	n/a	REC_WORD	1225766	wordpools/wasnorm_wordpool.txt	LTP113	ltpFR	0	11	0	NECKLACE	940	n/a	0	n/a	n/a	n/a	n/a	n/a
2452.7	n/a	REC_WORD	1226350	wordpools/wasnorm_wordpool.txt	LTP113	ltpFR	0	11	0	BRACELET	163	n/a	0	n/a	n/a	n/a	n/a	n/a
2456.83	n/a	REC_WORD	1228415	wordpools/wasnorm_wordpool.txt	LTP113	ltpFR	0	11	0	FROG	608	n/a	0	n/a	n/a	n/a	n/a	n/a
2461.006	n/a	REC_WORD	1230503	wordpools/wasnorm_wordpool.txt	LTP113	ltpFR	0	11	0	BIKE	125	n/a	1	n/a	n/a	n/a	n/a	n/a
2467.182	n/a	REC_WORD	1233591	wordpools/wasnorm_wordpool.txt	LTP113	ltpFR	0	11	0	RAISIN	1163	n/a	0	n/a	n/a	n/a	n/a	n/a
2470.14	n/a	REC_WORD	1235070	wordpools/wasnorm_wordpool.txt	LTP113	ltpFR	0	11	0	CALENDAR	221	n/a	0	n/a	n/a	n/a	n/a	n/a
2481.802	n/a	REC_WORD	1240901	wordpools/wasnorm_wordpool.txt	LTP113	ltpFR	0	11	0	LIZARD	834	n/a	0	n/a	n/a	n/a	n/a	n/a
2487.44	n/a	REC_WORD	1243720	wordpools/wasnorm_wordpool.txt	LTP113	ltpFR	0	11	0	PASTA	1021	n/a	0	n/a	n/a	n/a	n/a	n/a
2495.412	n/a	REC_WORD	1247706	wordpools/wasnorm_wordpool.txt	LTP113	ltpFR	0	11	0	KLEENEX	782	n/a	0	n/a	n/a	n/a	n/a	n/a
2525.586	n/a	WORD	1262793	wordpools/wasnorm_wordpool.txt	LTP113	ltpFR	0	12	0	DIME	466	n/a	0	0	0.5869140625	0.422607421875	lower	../fonts/amplitud.ttf
2529.598	n/a	WORD	1264799	wordpools/wasnorm_wordpool.txt	LTP113	ltpFR	0	12	0	RECEIPT	1173	n/a	0	0	0.5869140625	0.422607421875	lower	../fonts/amplitud.ttf
2533.75	n/a	WORD	1266875	wordpools/wasnorm_wordpool.txt	LTP113	ltpFR	0	12	0	DOCTOR	478	n/a	1	0	0.5869140625	0.422607421875	lower	../fonts/amplitud.ttf
2537.912	n/a	WORD	1268956	wordpools/wasnorm_wordpool.txt	LTP113	ltpFR	0	12	0	OINTMENT	974	n/a	0	0	0.5869140625	0.422607421875	lower	../fonts/amplitud.ttf
2541.842	n/a	WORD	1270921	wordpools/wasnorm_wordpool.txt	LTP113	ltpFR	0	12	0	COUSIN	392	n/a	1	0	0.5869140625	0.422607421875	lower	../fonts/amplitud.ttf
2546.044	n/a	WORD	1273022	wordpools/wasnorm_wordpool.txt	LTP113	ltpFR	0	12	0	NIECE	952	n/a	1	0	0.5869140625	0.422607421875	lower	../fonts/amplitud.ttf
2550.016	n/a	WORD	1275008	wordpools/wasnorm_wordpool.txt	LTP113	ltpFR	0	12	0	VACUUM	1543	n/a	1	0	0.5869140625	0.422607421875	lower	../fonts/amplitud.ttf
2554.194	n/a	WORD	1277097	wordpools/wasnorm_wordpool.txt	LTP113	ltpFR	0	12	0	WHEEL	1603	n/a	1	0	0.5869140625	0.422607421875	lower	../fonts/amplitud.ttf
2558.064	n/a	WORD	1279032	wordpools/wasnorm_wordpool.txt	LTP113	ltpFR	0	12	0	MINER	896	n/a	1	0	0.5869140625	0.422607421875	lower	../fonts/amplitud.ttf
2561.91	n/a	WORD	1280955	wordpools/wasnorm_wordpool.txt	LTP113	ltpFR	0	12	0	SHOWER	1296	n/a	1	0	0.5869140625	0.422607421875	lower	../fonts/amplitud.ttf
2566.088	n/a	WORD	1283044	wordpools/wasnorm_wordpool.txt	LTP113	ltpFR	0	12	0	SHRUB	1299	n/a	1	0	0.5869140625	0.422607421875	lower	../fonts/amplitud.ttf
2570.1	n/a	WORD	1285050	wordpools/wasnorm_wordpool.txt	LTP113	ltpFR	0	12	0	RADISH	1158	n/a	0	0	0.5869140625	0.422607421875	lower	../fonts/amplitud.ttf
2574.02	n/a	WORD	1287010	wordpools/wasnorm_wordpool.txt	LTP113	ltpFR	0	12	0	HELMET	702	n/a	1	0	0.5869140625	0.422607421875	lower	../fonts/amplitud.ttf
2578.2	n/a	WORD	1289100	wordpools/wasnorm_wordpool.txt	LTP113	ltpFR	0	12	0	MALL	860	n/a	1	0	0.5869140625	0.422607421875	lower	../fonts/amplitud.ttf
2582.36	n/a	WORD	1291180	wordpools/wasnorm_wordpool.txt	LTP113	ltpFR	0	12	0	GEM	629	n/a	0	0	0.5869140625	0.422607421875	lower	../fonts/amplitud.ttf
2586.498	n/a	WORD	1293249	wordpools/wasnorm_wordpool.txt	LTP113	ltpFR	0	12	0	FIG	563	n/a	0	0	0.5869140625	0.422607421875	lower	../fonts/amplitud.ttf
2592.108	n/a	REC_START	1296054	n/a	LTP113	ltpFR	0	12	n/a	n/a	n/a	n/a	n/a	n/a	n/a	n/a	n/a	n/a
2592.882	n/a	REC_WORD	1296441	wordpools/wasnorm_wordpool.txt	LTP113	ltpFR	0	12	0	FIG	563	n/a	0	n/a	n/a	n/a	n/a	n/a
2594.024	n/a	REC_WORD	1297012	wordpools/wasnorm_wordpool.txt	LTP113	ltpFR	0	12	0	GEM	629	n/a	0	n/a	n/a	n/a	n/a	n/a
2595.292	n/a	REC_WORD	1297646	wordpools/wasnorm_wordpool.txt	LTP113	ltpFR	0	12	0	OINTMENT	974	n/a	0	n/a	n/a	n/a	n/a	n/a
2597.556	n/a	REC_WORD	1298778	wordpools/wasnorm_wordpool.txt	LTP113	ltpFR	0	12	0	RADISH	1158	n/a	0	n/a	n/a	n/a	n/a	n/a
2599.702	n/a	REC_WORD	1299851	wordpools/wasnorm_wordpool.txt	LTP113	ltpFR	0	12	0	DOCTOR	478	n/a	1	n/a	n/a	n/a	n/a	n/a
2600.704	n/a	REC_WORD	1300352	wordpools/wasnorm_wordpool.txt	LTP113	ltpFR	0	12	0	MINER	896	n/a	1	n/a	n/a	n/a	n/a	n/a
2602.41	n/a	REC_WORD	1301205	wordpools/wasnorm_wordpool.txt	LTP113	ltpFR	0	12	0	NIECE	952	n/a	1	n/a	n/a	n/a	n/a	n/a
2603.434	n/a	REC_WORD	1301717	wordpools/wasnorm_wordpool.txt	LTP113	ltpFR	0	12	0	COUSIN	392	n/a	1	n/a	n/a	n/a	n/a	n/a
2605.324	n/a	REC_WORD	1302662	wordpools/wasnorm_wordpool.txt	LTP113	ltpFR	0	12	0	MALL	860	n/a	1	n/a	n/a	n/a	n/a	n/a
2606.302	n/a	REC_WORD	1303151	wordpools/wasnorm_wordpool.txt	LTP113	ltpFR	0	12	0	SHOWER	1296	n/a	1	n/a	n/a	n/a	n/a	n/a
2645.908	n/a	REC_WORD	1322954	wordpools/wasnorm_wordpool.txt	LTP113	ltpFR	0	12	0	WHEEL	1603	n/a	1	n/a	n/a	n/a	n/a	n/a
2667.704	n/a	REST_REWET	1333852	n/a	LTP113	ltpFR	0	12	n/a	n/a	n/a	n/a	n/a	n/a	n/a	n/a	n/a	n/a
3205.546	n/a	WORD	1602773	wordpools/wasnorm_wordpool.txt	LTP113	ltpFR	0	13	1	WAIST	1579	n/a	1	1	0.412841796875	0.57763671875	upper	../fonts/zerothre.ttf
3209.64	n/a	WORD	1604820	wordpools/wasnorm_wordpool.txt	LTP113	ltpFR	0	13	1	SHOE	1288	n/a	0	1	0.412841796875	0.57763671875	upper	../fonts/zerothre.ttf
3213.626	n/a	WORD	1606813	wordpools/wasnorm_wordpool.txt	LTP113	ltpFR	0	13	1	TROUT	1511	n/a	1	1	0.412841796875	0.57763671875	upper	../fonts/zerothre.ttf
3217.822	n/a	WORD	1608911	wordpools/wasnorm_wordpool.txt	LTP113	ltpFR	0	13	1	BEDROOM	111	n/a	0	1	0.412841796875	0.57763671875	upper	../fonts/zerothre.ttf
3221.658	n/a	WORD	1610829	wordpools/wasnorm_wordpool.txt	LTP113	ltpFR	0	13	1	DICTATOR	462	n/a	1	1	0.412841796875	0.57763671875	upper	../fonts/zerothre.ttf
3225.68	n/a	WORD	1612840	wordpools/wasnorm_wordpool.txt	LTP113	ltpFR	0	13	0	MAN	862	n/a	1	0	0.5869140625	0.422607421875	lower	../fonts/amplitud.ttf
3229.708	n/a	WORD	1614854	wordpools/wasnorm_wordpool.txt	LTP113	ltpFR	0	13	0	DIVER	476	n/a	1	0	0.5869140625	0.422607421875	lower	../fonts/amplitud.ttf
3233.67	n/a	WORD	1616835	wordpools/wasnorm_wordpool.txt	LTP113	ltpFR	0	13	0	RULER	1216	n/a	0	0	0.5869140625	0.422607421875	lower	../fonts/amplitud.ttf
3237.716	n/a	WORD	1618858	wordpools/wasnorm_wordpool.txt	LTP113	ltpFR	0	13	0	THIMBLE	1458	n/a	0	0	0.5869140625	0.422607421875	lower	../fonts/amplitud.ttf
3241.728	n/a	WORD	1620864	wordpools/wasnorm_wordpool.txt	LTP113	ltpFR	0	13	1	SAUCER	1237	n/a	0	1	0.412841796875	0.57763671875	upper	../fonts/zerothre.ttf
3245.614	n/a	WORD	1622807	wordpools/wasnorm_wordpool.txt	LTP113	ltpFR	0	13	1	OFFICE	972	n/a	0	1	0.412841796875	0.57763671875	upper	../fonts/zerothre.ttf
3249.668	n/a	WORD	1624834	wordpools/wasnorm_wordpool.txt	LTP113	ltpFR	0	13	1	BRIEFCASE	175	n/a	0	1	0.412841796875	0.57763671875	upper	../fonts/zerothre.ttf
3253.556	n/a	WORD	1626778	wordpools/wasnorm_wordpool.txt	LTP113	ltpFR	0	13	0	HEN	703	n/a	0	0	0.5869140625	0.422607421875	lower	../fonts/amplitud.ttf
3257.684	n/a	WORD	1628842	wordpools/wasnorm_wordpool.txt	LTP113	ltpFR	0	13	0	FELLOW	558	n/a	1	0	0.5869140625	0.422607421875	lower	../fonts/amplitud.ttf
3261.864	n/a	WORD	1630932	wordpools/wasnorm_wordpool.txt	LTP113	ltpFR	0	13	0	COOK	372	n/a	1	0	0.5869140625	0.422607421875	lower	../fonts/amplitud.ttf
3265.852	n/a	WORD	1632926	wordpools/wasnorm_wordpool.txt	LTP113	ltpFR	0	13	0	APRON	35	n/a	1	0	0.5869140625	0.422607421875	lower	../fonts/amplitud.ttf
3271.694	n/a	REC_START	1635847	n/a	LTP113	ltpFR	0	13	n/a	n/a	n/a	n/a	n/a	n/a	n/a	n/a	n/a	n/a
3272.566	n/a	REC_WORD	1636283	wordpools/wasnorm_wordpool.txt	LTP113	ltpFR	0	13	0	APRON	35	n/a	1	n/a	n/a	n/a	n/a	n/a
3273.414	n/a	REC_WORD	1636707	wordpools/wasnorm_wordpool.txt	LTP113	ltpFR	0	13	0	COOK	372	n/a	1	n/a	n/a	n/a	n/a	n/a
3274.408	n/a	REC_WORD	1637204	wordpools/wasnorm_wordpool.txt	LTP113	ltpFR	0	13	0	DIVER	476	n/a	1	n/a	n/a	n/a	n/a	n/a
3275.45	n/a	REC_WORD	1637725	wordpools/wasnorm_wordpool.txt	LTP113	ltpFR	0	13	0	FELLOW	558	n/a	1	n/a	n/a	n/a	n/a	n/a
3276.776	n/a	REC_WORD	1638388	wordpools/wasnorm_wordpool.txt	LTP113	ltpFR	0	13	0	RULER	1216	n/a	0	n/a	n/a	n/a	n/a	n/a
3285.168	n/a	REC_WORD	1642584	wordpools/wasnorm_wordpool.txt	LTP113	ltpFR	0	13	1	TROUT	1511	n/a	1	n/a	n/a	n/a	n/a	n/a
3286.32	n/a	REC_WORD	1643160	wordpools/wasnorm_wordpool.txt	LTP113	ltpFR	0	13	1	SAUCER	1237	n/a	0	n/a	n/a	n/a	n/a	n/a
3287.582	n/a	REC_WORD	1643791	wordpools/wasnorm_wordpool.txt	LTP113	ltpFR	0	13	1	BRIEFCASE	175	n/a	0	n/a	n/a	n/a	n/a	n/a
3289.078	n/a	REC_WORD	1644539	wordpools/wasnorm_wordpool.txt	LTP113	ltpFR	0	13	1	OFFICE	972	n/a	0	n/a	n/a	n/a	n/a	n/a
3297.844	n/a	REC_WORD	1648922	wordpools/wasnorm_wordpool.txt	LTP113	ltpFR	0	13	0	HEN	703	n/a	0	n/a	n/a	n/a	n/a	n/a
3299.042	n/a	REC_WORD	1649521	wordpools/wasnorm_wordpool.txt	LTP113	ltpFR	0	13	0	THIMBLE	1458	n/a	0	n/a	n/a	n/a	n/a	n/a
3357.562	n/a	WORD	1678781	wordpools/wasnorm_wordpool.txt	LTP113	ltpFR	0	14	0	BUNNY	198	n/a	0	0	0.5869140625	0.422607421875	lower	../fonts/amplitud.ttf
3361.408	n/a	WORD	1680704	wordpools/wasnorm_wordpool.txt	LTP113	ltpFR	0	14	0	VAN	1548	n/a	1	0	0.5869140625	0.422607421875	lower	../fonts/amplitud.ttf
3365.47	n/a	WORD	1682735	wordpools/wasnorm_wordpool.txt	LTP113	ltpFR	0	14	1	CHICKEN	297	n/a	1	1	0.412841796875	0.57763671875	upper	../fonts/zerothre.ttf
3369.656	n/a	WORD	1684828	wordpools/wasnorm_wordpool.txt	LTP113	ltpFR	0	14	1	WRITER	1627	n/a	1	1	0.412841796875	0.57763671875	upper	../fonts/zerothre.ttf
3373.718	n/a	WORD	1686859	wordpools/wasnorm_wordpool.txt	LTP113	ltpFR	0	14	1	QUAIL	1147	n/a	1	1	0.412841796875	0.57763671875	upper	../fonts/zerothre.ttf
3377.696	n/a	WORD	1688848	wordpools/wasnorm_wordpool.txt	LTP113	ltpFR	0	14	1	RIB	1188	n/a	0	1	0.412841796875	0.57763671875	upper	../fonts/zerothre.ttf
3381.708	n/a	WORD	1690854	wordpools/wasnorm_wordpool.txt	LTP113	ltpFR	0	14	1	GROCERIES	663	n/a	0	1	0.412841796875	0.57763671875	upper	../fonts/zerothre.ttf
3385.872	n/a	WORD	1692936	wordpools/wasnorm_wordpool.txt	LTP113	ltpFR	0	14	1	BANKER	84	n/a	1	1	0.412841796875	0.57763671875	upper	../fonts/zerothre.ttf
3389.766	n/a	WORD	1694883	wordpools/wasnorm_wordpool.txt	LTP113	ltpFR	0	14	0	WALLET	1583	n/a	0	0	0.5869140625	0.422607421875	lower	../fonts/amplitud.ttf
3393.744	n/a	WORD	1696872	wordpools/wasnorm_wordpool.txt	LTP113	ltpFR	0	14	0	CHIPMUNK	304	n/a	0	0	0.5869140625	0.422607421875	lower	../fonts/amplitud.ttf
3397.664	n/a	WORD	1698832	wordpools/wasnorm_wordpool.txt	LTP113	ltpFR	0	14	0	BATTERY	101	n/a	0	0	0.5869140625	0.422607421875	lower	../fonts/amplitud.ttf
3401.812	n/a	WORD	1700906	wordpools/wasnorm_wordpool.txt	LTP113	ltpFR	0	14	0	EXPLOSION	544	n/a	1	0	0.5869140625	0.422607421875	lower	../fonts/amplitud.ttf
3405.63	n/a	WORD	1702815	wordpools/wasnorm_wordpool.txt	LTP113	ltpFR	0	14	0	EGG	518	n/a	0	0	0.5869140625	0.422607421875	lower	../fonts/amplitud.ttf
3409.726	n/a	WORD	1704863	wordpools/wasnorm_wordpool.txt	LTP113	ltpFR	0	14	0	PERSON	1052	n/a	1	0	0.5869140625	0.422607421875	lower	../fonts/amplitud.ttf
3413.814	n/a	WORD	1706907	wordpools/wasnorm_wordpool.txt	LTP113	ltpFR	0	14	1	FLESH	579	n/a	1	1	0.412841796875	0.57763671875	upper	../fonts/zerothre.ttf
3417.7	n/a	WORD	1708850	wordpools/wasnorm_wordpool.txt	LTP113	ltpFR	0	14	1	MONGOOSE	909	n/a	1	1	0.412841796875	0.57763671875	upper	../fonts/zerothre.ttf
3423.312	n/a	REC_START	1711656	n/a	LTP113	ltpFR	0	14	n/a	n/a	n/a	n/a	n/a	n/a	n/a	n/a	n/a	n/a
3424.006	n/a	REC_WORD	1712003	wordpools/wasnorm_wordpool.txt	LTP113	ltpFR	0	14	1	MONGOOSE	909	n/a	1	n/a	n/a	n/a	n/a	n/a
3425.112	n/a	REC_WORD	1712556	wordpools/wasnorm_wordpool.txt	LTP113	ltpFR	0	14	1	FLESH	579	n/a	1	n/a	n/a	n/a	n/a	n/a
3426.444	n/a	REC_WORD	1713222	wordpools/wasnorm_wordpool.txt	LTP113	ltpFR	0	14	0	EXPLOSION	544	n/a	1	n/a	n/a	n/a	n/a	n/a
3428.366	n/a	REC_WORD	1714183	wordpools/wasnorm_wordpool.txt	LTP113	ltpFR	0	14	0	BUNNY	198	n/a	0	n/a	n/a	n/a	n/a	n/a
3429.578	n/a	REC_WORD	1714789	wordpools/wasnorm_wordpool.txt	LTP113	ltpFR	0	14	0	CHIPMUNK	304	n/a	0	n/a	n/a	n/a	n/a	n/a
3432.182	n/a	REC_WORD	1716091	wordpools/wasnorm_wordpool.txt	LTP113	ltpFR	0	14	0	BATTERY	101	n/a	0	n/a	n/a	n/a	n/a	n/a
3435.754	n/a	REC_WORD	1717877	wordpools/wasnorm_wordpool.txt	LTP113	ltpFR	0	14	0	EGG	518	n/a	0	n/a	n/a	n/a	n/a	n/a
3477.06	n/a	REC_WORD	1738530	wordpools/wasnorm_wordpool.txt	LTP113	ltpFR	0	14	1	RIB	1188	n/a	0	n/a	n/a	n/a	n/a	n/a
3503.152	n/a	WORD	1751576	wordpools/wasnorm_wordpool.txt	LTP113	ltpFR	0	15	1	TURKEY	1520	n/a	1	1	0.412841796875	0.57763671875	upper	../fonts/zerothre.ttf
3507.14	n/a	WORD	1753570	wordpools/wasnorm_wordpool.txt	LTP113	ltpFR	0	15	1	TELEVISION	1447	n/a	0	1	0.412841796875	0.57763671875	upper	../fonts/zerothre.ttf
3511.21	n/a	WORD	1755605	wordpools/wasnorm_wordpool.txt	LTP113	ltpFR	0	15	0	BUSH	202	n/a	1	0	0.5869140625	0.422607421875	lower	../fonts/amplitud.ttf
3515.282	n/a	WORD	1757641	wordpools/wasnorm_wordpool.txt	LTP113	ltpFR	0	15	0	ATTIC	56	n/a	1	0	0.5869140625	0.422607421875	lower	../fonts/amplitud.ttf
3519.452	n/a	WORD	1759726	wordpools/wasnorm_wordpool.txt	LTP113	ltpFR	0	15	0	WEB	1598	n/a	0	0	0.5869140625	0.422607421875	lower	../fonts/amplitud.ttf
3523.506	n/a	WORD	1761753	wordpools/wasnorm_wordpool.txt	LTP113	ltpFR	0	15	0	EAGLE	512	n/a	1	0	0.5869140625	0.422607421875	lower	../fonts/amplitud.ttf
3527.358	n/a	WORD	1763679	wordpools/wasnorm_wordpool.txt	LTP113	ltpFR	0	15	1	LUMBER	848	n/a	0	1	0.412841796875	0.57763671875	upper	../fonts/zerothre.ttf
3531.488	n/a	WORD	1765744	wordpools/wasnorm_wordpool.txt	LTP113	ltpFR	0	15	1	DOUGHNUT	490	n/a	0	1	0.412841796875	0.57763671875	upper	../fonts/zerothre.ttf
3535.682	n/a	WORD	1767841	wordpools/wasnorm_wordpool.txt	LTP113	ltpFR	0	15	1	SHOVEL	1295	n/a	0	1	0.412841796875	0.57763671875	upper	../fonts/zerothre.ttf
3539.636	n/a	WORD	1769818	wordpools/wasnorm_wordpool.txt	LTP113	ltpFR	0	15	1	COOKBOOK	373	n/a	0	1	0.412841796875	0.57763671875	upper	../fonts/zerothre.ttf
3543.566	n/a	WORD	1771783	wordpools/wasnorm_wordpool.txt	LTP113	ltpFR	0	15	0	AIRPORT	13	n/a	1	0	0.5869140625	0.422607421875	lower	../fonts/amplitud.ttf
3547.51	n/a	WORD	1773755	wordpools/wasnorm_wordpool.txt	LTP113	ltpFR	0	15	0	GOAT	644	n/a	1	0	0.5869140625	0.422607421875	lower	../fonts/amplitud.ttf
3551.556	n/a	WORD	1775778	wordpools/wasnorm_wordpool.txt	LTP113	ltpFR	0	15	0	COYOTE	396	n/a	1	0	0.5869140625	0.422607421875	lower	../fonts/amplitud.ttf
3555.692	n/a	WORD	1777846	wordpools/wasnorm_wordpool.txt	LTP113	ltpFR	0	15	0	DOG	480	n/a	1	0	0.5869140625	0.422607421875	lower	../fonts/amplitud.ttf
3559.728	n/a	WORD	1779864	wordpools/wasnorm_wordpool.txt	LTP113	ltpFR	0	15	1	SEAGULL	1261	n/a	1	1	0.412841796875	0.57763671875	upper	../fonts/zerothre.ttf
3563.924	n/a	WORD	1781962	wordpools/wasnorm_wordpool.txt	LTP113	ltpFR	0	15	1	CHARCOAL	281	n/a	0	1	0.412841796875	0.57763671875	upper	../fonts/zerothre.ttf
3569.642	n/a	REC_START	1784821	n/a	LTP113	ltpFR	0	15	n/a	n/a	n/a	n/a	n/a	n/a	n/a	n/a	n/a	n/a
3570.212	n/a	REC_WORD	1785106	wordpools/wasnorm_wordpool.txt	LTP113	ltpFR	0	15	1	CHARCOAL	281	n/a	0	n/a	n/a	n/a	n/a	n/a
3571.352	n/a	REC_WORD	1785676	wordpools/wasnorm_wordpool.txt	LTP113	ltpFR	0	15	1	SEAGULL	1261	n/a	1	n/a	n/a	n/a	n/a	n/a
3572.854	n/a	REC_WORD	1786427	wordpools/wasnorm_wordpool.txt	LTP113	ltpFR	0	15	1	LUMBER	848	n/a	0	n/a	n/a	n/a	n/a	n/a
3574.62	n/a	REC_WORD	1787310	wordpools/wasnorm_wordpool.txt	LTP113	ltpFR	0	15	0	GOAT	644	n/a	1	n/a	n/a	n/a	n/a	n/a
3575.908	n/a	REC_WORD	1787954	wordpools/wasnorm_wordpool.txt	LTP113	ltpFR	0	15	0	COYOTE	396	n/a	1	n/a	n/a	n/a	n/a	n/a
3577.304	n/a	REC_WORD	1788652	wordpools/wasnorm_wordpool.txt	LTP113	ltpFR	0	15	0	DOG	480	n/a	1	n/a	n/a	n/a	n/a	n/a
3585.816	n/a	REC_WORD	1792908	wordpools/wasnorm_wordpool.txt	LTP113	ltpFR	0	15	0	AIRPORT	13	n/a	1	n/a	n/a	n/a	n/a	n/a
3649.418	n/a	WORD	1824709	wordpools/wasnorm_wordpool.txt	LTP113	ltpFR	0	16	0	DINOSAUR	469	n/a	1	0	0.5869140625	0.422607421875	lower	../fonts/amplitud.ttf
3653.238	n/a	WORD	1826619	wordpools/wasnorm_wordpool.txt	LTP113	ltpFR	0	16	0	SUPPER	1411	n/a	0	0	0.5869140625	0.422607421875	lower	../fonts/amplitud.ttf
3657.084	n/a	WORD	1828542	wordpools/wasnorm_wordpool.txt	LTP113	ltpFR	0	16	1	JEEP	753	n/a	0	1	0.412841796875	0.57763671875	upper	../fonts/zerothre.ttf
3660.896	n/a	WORD	1830448	wordpools/wasnorm_wordpool.txt	LTP113	ltpFR	0	16	1	PASSENGER	1020	n/a	1	1	0.412841796875	0.57763671875	upper	../fonts/zerothre.ttf
3664.942	n/a	WORD	1832471	wordpools/wasnorm_wordpool.txt	LTP113	ltpFR	0	16	1	HAMBURGER	679	n/a	0	1	0.412841796875	0.57763671875	upper	../fonts/zerothre.ttf
3668.828	n/a	WORD	1834414	wordpools/wasnorm_wordpool.txt	LTP113	ltpFR	0	16	1	BAKER	71	n/a	1	1	0.412841796875	0.57763671875	upper	../fonts/zerothre.ttf
3672.724	n/a	WORD	1836362	wordpools/wasnorm_wordpool.txt	LTP113	ltpFR	0	16	0	PAD	998	n/a	0	0	0.5869140625	0.422607421875	lower	../fonts/amplitud.ttf
3676.838	n/a	WORD	1838419	wordpools/wasnorm_wordpool.txt	LTP113	ltpFR	0	16	0	WAITER	1580	n/a	1	0	0.5869140625	0.422607421875	lower	../fonts/amplitud.ttf
3680.732	n/a	WORD	1840366	wordpools/wasnorm_wordpool.txt	LTP113	ltpFR	0	16	0	PACKAGE	997	n/a	1	0	0.5869140625	0.422607421875	lower	../fonts/amplitud.ttf
3684.794	n/a	WORD	1842397	wordpools/wasnorm_wordpool.txt	LTP113	ltpFR	0	16	1	CUSHION	428	n/a	0	1	0.412841796875	0.57763671875	upper	../fonts/zerothre.ttf
3688.974	n/a	WORD	1844487	wordpools/wasnorm_wordpool.txt	LTP113	ltpFR	0	16	1	CHICK	296	n/a	1	1	0.412841796875	0.57763671875	upper	../fonts/zerothre.ttf
3693.076	n/a	WORD	1846538	wordpools/wasnorm_wordpool.txt	LTP113	ltpFR	0	16	1	BARK	87	n/a	0	1	0.412841796875	0.57763671875	upper	../fonts/zerothre.ttf
3697.03	n/a	WORD	1848515	wordpools/wasnorm_wordpool.txt	LTP113	ltpFR	0	16	1	FOSSIL	596	n/a	0	1	0.412841796875	0.57763671875	upper	../fonts/zerothre.ttf
3700.96	n/a	WORD	1850480	wordpools/wasnorm_wordpool.txt	LTP113	ltpFR	0	16	0	GUEST	669	n/a	1	0	0.5869140625	0.422607421875	lower	../fonts/amplitud.ttf
3704.838	n/a	WORD	1852419	wordpools/wasnorm_wordpool.txt	LTP113	ltpFR	0	16	0	CANARY	227	n/a	1	0	0.5869140625	0.422607421875	lower	../fonts/amplitud.ttf
3708.826	n/a	WORD	1854413	wordpools/wasnorm_wordpool.txt	LTP113	ltpFR	0	16	0	CROW	414	n/a	1	0	0.5869140625	0.422607421875	lower	../fonts/amplitud.ttf
3714.594	n/a	REC_START	1857297	n/a	LTP113	ltpFR	0	16	n/a	n/a	n/a	n/a	n/a	n/a	n/a	n/a	n/a	n/a
3715.144	n/a	REC_WORD	1857572	wordpools/wasnorm_wordpool.txt	LTP113	ltpFR	0	16	0	CROW	414	n/a	1	n/a	n/a	n/a	n/a	n/a
3715.942	n/a	REC_WORD	1857971	wordpools/wasnorm_wordpool.txt	LTP113	ltpFR	0	16	0	CANARY	227	n/a	1	n/a	n/a	n/a	n/a	n/a
3717.382	n/a	REC_WORD	1858691	wordpools/wasnorm_wordpool.txt	LTP113	ltpFR	0	16	1	BARK	87	n/a	0	n/a	n/a	n/a	n/a	n/a
3718.31	n/a	REC_WORD	1859155	wordpools/wasnorm_wordpool.txt	LTP113	ltpFR	0	16	1	FOSSIL	596	n/a	0	n/a	n/a	n/a	n/a	n/a
3719.832	n/a	REC_WORD	1859916	wordpools/wasnorm_wordpool.txt	LTP113	ltpFR	0	16	0	WAITER	1580	n/a	1	n/a	n/a	n/a	n/a	n/a
3722.022	n/a	REC_WORD	1861011	wordpools/wasnorm_wordpool.txt	LTP113	ltpFR	0	16	1	JEEP	753	n/a	0	n/a	n/a	n/a	n/a	n/a
3723.03	n/a	REC_WORD	1861515	wordpools/wasnorm_wordpool.txt	LTP113	ltpFR	0	16	1	PASSENGER	1020	n/a	1	n/a	n/a	n/a	n/a	n/a
3724.486	n/a	REC_WORD	1862243	wordpools/wasnorm_wordpool.txt	LTP113	ltpFR	0	16	1	CUSHION	428	n/a	0	n/a	n/a	n/a	n/a	n/a
3735.252	n/a	REC_WORD	1867626	wordpools/wasnorm_wordpool.txt	LTP113	ltpFR	0	16	0	CROW	414	n/a	1	n/a	n/a	n/a	n/a	n/a
3756.49	n/a	REC_WORD	1878245	wordpools/wasnorm_wordpool.txt	LTP113	ltpFR	0	16	0	SUPPER	1411	n/a	0	n/a	n/a	n/a	n/a	n/a
3835.98	n/a	REC_START	1917990	n/a	LTP113	ltpFR	0	n/a	n/a	n/a	n/a	n/a	n/a	n/a	n/a	n/a	n/a	n/a
3836.358	n/a	FFR_REC_WORD_VV	1918179	wordpools/wasnorm_wordpool.txt	LTP113	ltpFR	0	n/a	n/a	<>	-1	n/a	n/a	n/a	n/a	n/a	n/a	n/a
3836.928	n/a	FFR_REC_WORD	1918464	wordpools/wasnorm_wordpool.txt	LTP113	ltpFR	0	n/a	0	FROG	608	n/a	0	n/a	n/a	n/a	n/a	n/a
3838.324	n/a	FFR_REC_WORD	1919162	wordpools/wasnorm_wordpool.txt	LTP113	ltpFR	0	n/a	0	LIZARD	834	n/a	0	n/a	n/a	n/a	n/a	n/a
3839.504	n/a	FFR_REC_WORD	1919752	wordpools/wasnorm_wordpool.txt	LTP113	ltpFR	0	n/a	1	SPIDER	1351	n/a	1	n/a	n/a	n/a	n/a	n/a
3841.108	n/a	FFR_REC_WORD	1920554	wordpools/wasnorm_wordpool.txt	LTP113	ltpFR	0	n/a	0	GOAT	644	n/a	1	n/a	n/a	n/a	n/a	n/a
3842.106	n/a	FFR_REC_WORD	1921053	wordpools/wasnorm_wordpool.txt	LTP113	ltpFR	0	n/a	0	GOAT	644	n/a	1	n/a	n/a	n/a	n/a	n/a
3842.99	n/a	FFR_REC_WORD	1921495	wordpools/wasnorm_wordpool.txt	LTP113	ltpFR	0	n/a	0	COYOTE	396	n/a	1	n/a	n/a	n/a	n/a	n/a
3844.122	n/a	FFR_REC_WORD	1922061	wordpools/wasnorm_wordpool.txt	LTP113	ltpFR	0	n/a	0	CANARY	227	n/a	1	n/a	n/a	n/a	n/a	n/a
3845.304	n/a	FFR_REC_WORD	1922652	wordpools/wasnorm_wordpool.txt	LTP113	ltpFR	0	n/a	0	CROW	414	n/a	1	n/a	n/a	n/a	n/a	n/a
3849.086	n/a	FFR_REC_WORD	1924543	wordpools/wasnorm_wordpool.txt	LTP113	ltpFR	0	n/a	0	CHIPMUNK	304	n/a	0	n/a	n/a	n/a	n/a	n/a
3852.358	n/a	FFR_REC_WORD	1926179	wordpools/wasnorm_wordpool.txt	LTP113	ltpFR	0	n/a	0	EGG	518	n/a	0	n/a	n/a	n/a	n/a	n/a
3853.106	n/a	FFR_REC_WORD	1926553	wordpools/wasnorm_wordpool.txt	LTP113	ltpFR	0	n/a	0	HEN	703	n/a	0	n/a	n/a	n/a	n/a	n/a
3855.106	n/a	FFR_REC_WORD	1927553	wordpools/wasnorm_wordpool.txt	LTP113	ltpFR	0	n/a	0	THIMBLE	1458	n/a	0	n/a	n/a	n/a	n/a	n/a
3856.07	n/a	FFR_REC_WORD	1928035	wordpools/wasnorm_wordpool.txt	LTP113	ltpFR	0	n/a	0	DOCTOR	478	n/a	1	n/a	n/a	n/a	n/a	n/a
3857.038	n/a	FFR_REC_WORD	1928519	wordpools/wasnorm_wordpool.txt	LTP113	ltpFR	0	n/a	0	PERSON	1052	n/a	1	n/a	n/a	n/a	n/a	n/a
3858.164	n/a	FFR_REC_WORD	1929082	wordpools/wasnorm_wordpool.txt	LTP113	ltpFR	0	n/a	1	WAITRESS	1581	n/a	1	n/a	n/a	n/a	n/a	n/a
3859.576	n/a	FFR_REC_WORD	1929788	wordpools/wasnorm_wordpool.txt	LTP113	ltpFR	0	n/a	1	SERVER	1272	n/a	1	n/a	n/a	n/a	n/a	n/a
3861.876	n/a	FFR_REC_WORD	1930938	wordpools/wasnorm_wordpool.txt	LTP113	ltpFR	0	n/a	1	JEEP	753	n/a	0	n/a	n/a	n/a	n/a	n/a
3862.69	n/a	FFR_REC_WORD	1931345	wordpools/wasnorm_wordpool.txt	LTP113	ltpFR	0	n/a	1	PASSENGER	1020	n/a	1	n/a	n/a	n/a	n/a	n/a
3863.618	n/a	FFR_REC_WORD	1931809	wordpools/wasnorm_wordpool.txt	LTP113	ltpFR	0	n/a	1	CUSHION	428	n/a	0	n/a	n/a	n/a	n/a	n/a
3867.384	n/a	FFR_REC_WORD	1933692	wordpools/wasnorm_wordpool.txt	LTP113	ltpFR	0	n/a	0	EXPLOSION	544	n/a	1	n/a	n/a	n/a	n/a	n/a
3868.716	n/a	FFR_REC_WORD	1934358	wordpools/wasnorm_wordpool.txt	LTP113	ltpFR	0	n/a	0	MALL	860	n/a	1	n/a	n/a	n/a	n/a	n/a
3869.654	n/a	FFR_REC_WORD	1934827	wordpools/wasnorm_wordpool.txt	LTP113	ltpFR	0	n/a	0	DEPARTMENT	449	n/a	1	n/a	n/a	n/a	n/a	n/a
3873.934	n/a	FFR_REC_WORD	1936967	wordpools/wasnorm_wordpool.txt	LTP113	ltpFR	0	n/a	0	AIRPORT	13	n/a	1	n/a	n/a	n/a	n/a	n/a
3888.346	n/a	FFR_REC_WORD	1944173	wordpools/wasnorm_wordpool.txt	LTP113	ltpFR	0	n/a	1	MONGOOSE	909	n/a	1	n/a	n/a	n/a	n/a	n/a
3891.734	n/a	FFR_REC_WORD	1945867	wordpools/wasnorm_wordpool.txt	LTP113	ltpFR	0	n/a	n/a	SALON	-1	n/a	n/a	n/a	n/a	n/a	n/a	n/a
3894.208	n/a	FFR_REC_WORD	1947104	wordpools/wasnorm_wordpool.txt	LTP113	ltpFR	0	n/a	0	SPOON	1357	n/a	0	n/a	n/a	n/a	n/a	n/a
3901.082	n/a	FFR_REC_WORD	1950541	wordpools/wasnorm_wordpool.txt	LTP113	ltpFR	0	n/a	0	KLEENEX	782	n/a	0	n/a	n/a	n/a	n/a	n/a
3906.64	n/a	FFR_REC_WORD	1953320	wordpools/wasnorm_wordpool.txt	LTP113	ltpFR	0	n/a	0	WALLET	1583	n/a	0	n/a	n/a	n/a	n/a	n/a
3909.248	n/a	FFR_REC_WORD	1954624	wordpools/wasnorm_wordpool.txt	LTP113	ltpFR	0	n/a	0	PAD	998	n/a	0	n/a	n/a	n/a	n/a	n/a
3912.902	n/a	FFR_REC_WORD	1956451	wordpools/wasnorm_wordpool.txt	LTP113	ltpFR	0	n/a	0	SUPPER	1411	n/a	0	n/a	n/a	n/a	n/a	n/a
3916.188	n/a	FFR_REC_WORD	1958094	wordpools/wasnorm_wordpool.txt	LTP113	ltpFR	0	n/a	1	FLESH	579	n/a	1	n/a	n/a	n/a	n/a	n/a
3919.89	n/a	FFR_REC_WORD	1959945	wordpools/wasnorm_wordpool.txt	LTP113	ltpFR	0	n/a	1	RIB	1188	n/a	0	n/a	n/a	n/a	n/a	n/a
3924.356	n/a	FFR_REC_WORD	1962178	wordpools/wasnorm_wordpool.txt	LTP113	ltpFR	0	n/a	1	AUDIENCE	59	n/a	1	n/a	n/a	n/a	n/a	n/a
3927.658	n/a	FFR_REC_WORD	1963829	wordpools/wasnorm_wordpool.txt	LTP113	ltpFR	0	n/a	1	STAFF	1365	n/a	1	n/a	n/a	n/a	n/a	n/a
3932.926	n/a	FFR_REC_WORD	1966463	wordpools/wasnorm_wordpool.txt	LTP113	ltpFR	0	n/a	1	BRIEFCASE	175	n/a	0	n/a	n/a	n/a	n/a	n/a
3935.15	n/a	FFR_REC_WORD	1967575	wordpools/wasnorm_wordpool.txt	LTP113	ltpFR	0	n/a	1	OFFICE	972	n/a	0	n/a	n/a	n/a	n/a	n/a
3941.696	n/a	FFR_REC_WORD	1970848	wordpools/wasnorm_wordpool.txt	LTP113	ltpFR	0	n/a	1	PARTNER	1017	n/a	1	n/a	n/a	n/a	n/a	n/a
3951.37	n/a	FFR_REC_WORD	1975685	wordpools/wasnorm_wordpool.txt	LTP113	ltpFR	0	n/a	1	PUMPKIN	1142	n/a	1	n/a	n/a	n/a	n/a	n/a
3952.616	n/a	FFR_REC_WORD	1976308	wordpools/wasnorm_wordpool.txt	LTP113	ltpFR	0	n/a	1	REEF	1177	n/a	0	n/a	n/a	n/a	n/a	n/a
3954.83	n/a	FFR_REC_WORD	1977415	wordpools/wasnorm_wordpool.txt	LTP113	ltpFR	0	n/a	1	FOSSIL	596	n/a	0	n/a	n/a	n/a	n/a	n/a
3965.328	n/a	FFR_REC_WORD	1982664	wordpools/wasnorm_wordpool.txt	LTP113	ltpFR	0	n/a	-1	HAMMER	680	n/a	-1	n/a	n/a	n/a	n/a	n/a
3968.784	n/a	FFR_REC_WORD	1984392	wordpools/wasnorm_wordpool.txt	LTP113	ltpFR	0	n/a	-1	CUFF	423	n/a	-1	n/a	n/a	n/a	n/a	n/a
3973.084	n/a	FFR_REC_WORD	1986542	wordpools/wasnorm_wordpool.txt	LTP113	ltpFR	0	n/a	-1	COFFIN	342	n/a	-1	n/a	n/a	n/a	n/a	n/a
3974.228	n/a	FFR_REC_WORD	1987114	wordpools/wasnorm_wordpool.txt	LTP113	ltpFR	0	n/a	-1	WOUND	1624	n/a	-1	n/a	n/a	n/a	n/a	n/a
3975.47	n/a	FFR_REC_WORD	1987735	wordpools/wasnorm_wordpool.txt	LTP113	ltpFR	0	n/a	-1	JURY	766	n/a	-1	n/a	n/a	n/a	n/a	n/a
3979.584	n/a	FFR_REC_WORD	1989792	wordpools/wasnorm_wordpool.txt	LTP113	ltpFR	0	n/a	-1	WAVE	1596	n/a	-1	n/a	n/a	n/a	n/a	n/a
3992.934	n/a	FFR_REC_WORD	1996467	wordpools/wasnorm_wordpool.txt	LTP113	ltpFR	0	n/a	1	FUNGUS	614	n/a	1	n/a	n/a	n/a	n/a	n/a
3998.626	n/a	FFR_REC_WORD	1999313	wordpools/wasnorm_wordpool.txt	LTP113	ltpFR	0	n/a	0	NUCLEUS	961	n/a	0	n/a	n/a	n/a	n/a	n/a
4012.72	n/a	FFR_REC_WORD	2006360	wordpools/wasnorm_wordpool.txt	LTP113	ltpFR	0	n/a	0	BUNNY	198	n/a	0	n/a	n/a	n/a	n/a	n/a
4018.084	n/a	FFR_REC_WORD	2009042	wordpools/wasnorm_wordpool.txt	LTP113	ltpFR	0	n/a	0	FIG	563	n/a	0	n/a	n/a	n/a	n/a	n/a
4020.148	n/a	FFR_REC_WORD	2010074	wordpools/wasnorm_wordpool.txt	LTP113	ltpFR	0	n/a	-1	PLUM	1090	n/a	-1	n/a	n/a	n/a	n/a	n/a
4021.56	n/a	FFR_REC_WORD	2010780	wordpools/wasnorm_wordpool.txt	LTP113	ltpFR	0	n/a	1	ORANGE	980	n/a	1	n/a	n/a	n/a	n/a	n/a
4023.252	n/a	FFR_REC_WORD	2011626	wordpools/wasnorm_wordpool.txt	LTP113	ltpFR	0	n/a	-1	OMELET	976	n/a	-1	n/a	n/a	n/a	n/a	n/a
4028.276	n/a	FFR_REC_WORD	2014138	wordpools/wasnorm_wordpool.txt	LTP113	ltpFR	0	n/a	-1	MUG	930	n/a	-1	n/a	n/a	n/a	n/a	n/a
4037.03	n/a	FFR_REC_WORD	2018515	wordpools/wasnorm_wordpool.txt	LTP113	ltpFR	0	n/a	-1	WAGON	1578	n/a	-1	n/a	n/a	n/a	n/a	n/a
4038.542	n/a	FFR_REC_WORD	2019271	wordpools/wasnorm_wordpool.txt	LTP113	ltpFR	0	n/a	-1	SCHOOL	1248	n/a	-1	n/a	n/a	n/a	n/a	n/a
4040.548	n/a	FFR_REC_WORD	2020274	wordpools/wasnorm_wordpool.txt	LTP113	ltpFR	0	n/a	n/a	SHIP	1286	n/a	n/a	n/a	n/a	n/a	n/a	n/a
4045.196	n/a	FFR_REC_WORD	2022598	wordpools/wasnorm_wordpool.txt	LTP113	ltpFR	0	n/a	1	CUSTARD	429	n/a	0	n/a	n/a	n/a	n/a	n/a
4047.466	n/a	FFR_REC_WORD	2023733	wordpools/wasnorm_wordpool.txt	LTP113	ltpFR	0	n/a	1	CUSHION	428	n/a	0	n/a	n/a	n/a	n/a	n/a
4095.504	n/a	FFR_REC_WORD	2047752	wordpools/wasnorm_wordpool.txt	LTP113	ltpFR	0	n/a	0	FROG	608	n/a	0	n/a	n/a	n/a	n/a	n/a
4096.412	n/a	FFR_REC_WORD	2048206	wordpools/wasnorm_wordpool.txt	LTP113	ltpFR	0	n/a	0	LIZARD	834	n/a	0	n/a	n/a	n/a	n/a	n/a
4102.158	n/a	FFR_REC_WORD	2051079	wordpools/wasnorm_wordpool.txt	LTP113	ltpFR	0	n/a	0	COUSIN	392	n/a	1	n/a	n/a	n/a	n/a	n/a
4103.142	n/a	FFR_REC_WORD	2051571	wordpools/wasnorm_wordpool.txt	LTP113	ltpFR	0	n/a	0	NIECE	952	n/a	1	n/a	n/a	n/a	n/a	n/a
4104.178	n/a	FFR_REC_WORD	2052089	wordpools/wasnorm_wordpool.txt	LTP113	ltpFR	0	n/a	0	SISTER	1312	n/a	1	n/a	n/a	n/a	n/a	n/a
4107.102	n/a	FFR_REC_WORD	2053551	wordpools/wasnorm_wordpool.txt	LTP113	ltpFR	0	n/a	0	MOTHER	921	n/a	1	n/a	n/a	n/a	n/a	n/a
4123.654	n/a	FFR_REC_WORD	2061827	wordpools/wasnorm_wordpool.txt	LTP113	ltpFR	0	n/a	0	DONKEY	484	n/a	1	n/a	n/a	n/a	n/a	n/a
4126.088	n/a	FFR_REC_WORD	2063044	wordpools/wasnorm_wordpool.txt	LTP113	ltpFR	0	n/a	0	PONY	1102	n/a	1	n/a	n/a	n/a	n/a	n/a
4351.154	n/a	REC_START	2175577	n/a	LTP113	ltpFR	0	1	n/a	n/a	n/a	n/a	n/a	n/a	n/a	n/a	n/a	n/a
4351.188	n/a	RECOG_TARGET	2175594	n/a	LTP113	ltpFR	0	1	1	DICTATOR	462	3	1	n/a	n/a	n/a	n/a	n/a
4352.372	n/a	RECOG_RESP	2176186	n/a	LTP113	ltpFR	0	1	1	DICTATOR	462	n/a	1	n/a	n/a	n/a	n/a	n/a
4354.85	n/a	RECOG_CONF	2177425	n/a	LTP113	ltpFR	0	1	1	DICTATOR	462	3	1	n/a	n/a	n/a	n/a	n/a
4357.346	n/a	RECOG_TARGET	2178673	n/a	LTP113	ltpFR	0	1	0	GUEST	669	3	1	n/a	n/a	n/a	n/a	n/a
4358.762	n/a	RECOG_RESP	2179381	n/a	LTP113	ltpFR	0	1	0	GUEST	669	n/a	1	n/a	n/a	n/a	n/a	n/a
4361.676	n/a	RECOG_CONF	2180838	n/a	LTP113	ltpFR	0	1	0	GUEST	669	3	1	n/a	n/a	n/a	n/a	n/a
4363.998	n/a	RECOG_TARGET	2181999	n/a	LTP113	ltpFR	0	1	1	BOMB	147	4	0	n/a	n/a	n/a	n/a	n/a
4365.576	n/a	RECOG_RESP	2182788	n/a	LTP113	ltpFR	0	1	1	BOMB	147	n/a	0	n/a	n/a	n/a	n/a	n/a
4367.842	n/a	RECOG_CONF	2183921	n/a	LTP113	ltpFR	0	1	1	BOMB	147	4	0	n/a	n/a	n/a	n/a	n/a
4370.166	n/a	RECOG_TARGET	2185083	n/a	LTP113	ltpFR	0	1	1	BAY	102	5	0	n/a	n/a	n/a	n/a	n/a
4371.628	n/a	RECOG_RESP	2185814	n/a	LTP113	ltpFR	0	1	1	BAY	102	n/a	0	n/a	n/a	n/a	n/a	n/a
4373.788	n/a	RECOG_CONF	2186894	n/a	LTP113	ltpFR	0	1	1	BAY	102	5	0	n/a	n/a	n/a	n/a	n/a
4375.866	n/a	RECOG_TARGET	2187933	n/a	LTP113	ltpFR	0	1	0	BATTERY	101	5	0	n/a	n/a	n/a	n/a	n/a
4376.956	n/a	RECOG_RESP	2188478	n/a	LTP113	ltpFR	0	1	0	BATTERY	101	n/a	0	n/a	n/a	n/a	n/a	n/a
4378.796	n/a	RECOG_CONF	2189398	n/a	LTP113	ltpFR	0	1	0	BATTERY	101	5	0	n/a	n/a	n/a	n/a	n/a
4380.744	n/a	RECOG_LURE	2190372	n/a	LTP113	ltpFR	0	1	n/a	BRUNETTE	181	5	n/a	n/a	n/a	n/a	n/a	n/a
4381.8	n/a	RECOG_RESP	2190900	n/a	LTP113	ltpFR	0	1	n/a	BRUNETTE	181	n/a	n/a	n/a	n/a	n/a	n/a	n/a
4383.726	n/a	RECOG_CONF	2191863	n/a	LTP113	ltpFR	0	1	n/a	BRUNETTE	181	5	n/a	n/a	n/a	n/a	n/a	n/a
4385.364	n/a	RECOG_TARGET	2192682	n/a	LTP113	ltpFR	0	1	0	HELMET	702	5	1	n/a	n/a	n/a	n/a	n/a
4386.41	n/a	RECOG_RESP	2193205	n/a	LTP113	ltpFR	0	1	0	HELMET	702	n/a	1	n/a	n/a	n/a	n/a	n/a
4388.334	n/a	RECOG_CONF	2194167	n/a	LTP113	ltpFR	0	1	0	HELMET	702	5	1	n/a	n/a	n/a	n/a	n/a
4389.992	n/a	RECOG_TARGET	2194996	n/a	LTP113	ltpFR	0	1	1	BLUEBERRY	140	5	1	n/a	n/a	n/a	n/a	n/a
4390.84	n/a	RECOG_RESP	2195420	n/a	LTP113	ltpFR	0	1	1	BLUEBERRY	140	n/a	1	n/a	n/a	n/a	n/a	n/a
4392.426	n/a	RECOG_CONF	2196213	n/a	LTP113	ltpFR	0	1	1	BLUEBERRY	140	5	1	n/a	n/a	n/a	n/a	n/a
4394.162	n/a	RECOG_LURE	2197081	n/a	LTP113	ltpFR	0	1	n/a	FLIPPER	580	4	n/a	n/a	n/a	n/a	n/a	n/a
4395.08	n/a	RECOG_RESP	2197540	n/a	LTP113	ltpFR	0	1	n/a	FLIPPER	580	n/a	n/a	n/a	n/a	n/a	n/a	n/a
4397.114	n/a	RECOG_CONF	2198557	n/a	LTP113	ltpFR	0	1	n/a	FLIPPER	580	4	n/a	n/a	n/a	n/a	n/a	n/a
4398.574	n/a	RECOG_TARGET	2199287	n/a	LTP113	ltpFR	0	1	1	PAINT	1003	5	0	n/a	n/a	n/a	n/a	n/a
4399.67	n/a	RECOG_RESP	2199835	n/a	LTP113	ltpFR	0	1	1	PAINT	1003	n/a	0	n/a	n/a	n/a	n/a	n/a
4401.494	n/a	RECOG_CONF	2200747	n/a	LTP113	ltpFR	0	1	1	PAINT	1003	5	0	n/a	n/a	n/a	n/a	n/a
4403.102	n/a	RECOG_TARGET	2201551	n/a	LTP113	ltpFR	0	1	-1	PLUM	1090	5	-1	n/a	n/a	n/a	n/a	n/a
4403.92	n/a	RECOG_RESP	2201960	n/a	LTP113	ltpFR	0	1	-1	PLUM	1090	n/a	-1	n/a	n/a	n/a	n/a	n/a
4405.666	n/a	RECOG_CONF	2202833	n/a	LTP113	ltpFR	0	1	-1	PLUM	1090	5	-1	n/a	n/a	n/a	n/a	n/a
4407.222	n/a	RECOG_TARGET	2203611	n/a	LTP113	ltpFR	0	1	-1	SIDING	1304	5	-1	n/a	n/a	n/a	n/a	n/a
4408.006	n/a	RECOG_RESP	2204003	n/a	LTP113	ltpFR	0	1	-1	SIDING	1304	n/a	-1	n/a	n/a	n/a	n/a	n/a
4409.506	n/a	RECOG_CONF	2204753	n/a	LTP113	ltpFR	0	1	-1	SIDING	1304	5	-1	n/a	n/a	n/a	n/a	n/a
4411.276	n/a	RECOG_TARGET	2205638	n/a	LTP113	ltpFR	0	1	0	SWATTER	1418	4	1	n/a	n/a	n/a	n/a	n/a
4412.12	n/a	RECOG_RESP	2206060	n/a	LTP113	ltpFR	0	1	0	SWATTER	1418	n/a	1	n/a	n/a	n/a	n/a	n/a
4414.186	n/a	RECOG_CONF	2207093	n/a	LTP113	ltpFR	0	1	0	SWATTER	1418	4	1	n/a	n/a	n/a	n/a	n/a
4415.746	n/a	RECOG_LURE	2207873	n/a	LTP113	ltpFR	0	1	n/a	GYM	674	2	n/a	n/a	n/a	n/a	n/a	n/a
4417.46	n/a	RECOG_RESP	2208730	n/a	LTP113	ltpFR	0	1	n/a	GYM	674	n/a	n/a	n/a	n/a	n/a	n/a	n/a
4419.894	n/a	RECOG_CONF	2209947	n/a	LTP113	ltpFR	0	1	n/a	GYM	674	2	n/a	n/a	n/a	n/a	n/a	n/a
4421.506	n/a	RECOG_TARGET	2210753	n/a	LTP113	ltpFR	0	1	-1	VIOLIN	1571	1	-1	n/a	n/a	n/a	n/a	n/a
4423.022	n/a	RECOG_RESP	2211511	n/a	LTP113	ltpFR	0	1	-1	VIOLIN	1571	n/a	-1	n/a	n/a	n/a	n/a	n/a
4425.272	n/a	RECOG_CONF	2212636	n/a	LTP113	ltpFR	0	1	-1	VIOLIN	1571	1	-1	n/a	n/a	n/a	n/a	n/a
4427.066	n/a	RECOG_TARGET	2213533	n/a	LTP113	ltpFR	0	1	0	WAITER	1580	5	1	n/a	n/a	n/a	n/a	n/a
4428.544	n/a	RECOG_RESP	2214272	n/a	LTP113	ltpFR	0	1	0	WAITER	1580	n/a	1	n/a	n/a	n/a	n/a	n/a
4430.26	n/a	RECOG_CONF	2215130	n/a	LTP113	ltpFR	0	1	0	WAITER	1580	5	1	n/a	n/a	n/a	n/a	n/a
4432.028	n/a	RECOG_LURE	2216014	n/a	LTP113	ltpFR	0	1	n/a	ELM	527	5	n/a	n/a	n/a	n/a	n/a	n/a
4433.184	n/a	RECOG_RESP	2216592	n/a	LTP113	ltpFR	0	1	n/a	ELM	527	n/a	n/a	n/a	n/a	n/a	n/a	n/a
4435.08	n/a	RECOG_CONF	2217540	n/a	LTP113	ltpFR	0	1	n/a	ELM	527	5	n/a	n/a	n/a	n/a	n/a	n/a
4436.788	n/a	RECOG_LURE	2218394	n/a	LTP113	ltpFR	0	1	n/a	LAMP	798	3	n/a	n/a	n/a	n/a	n/a	n/a
4437.784	n/a	RECOG_RESP	2218892	n/a	LTP113	ltpFR	0	1	n/a	LAMP	798	n/a	n/a	n/a	n/a	n/a	n/a	n/a
4440.148	n/a	RECOG_CONF	2220074	n/a	LTP113	ltpFR	0	1	n/a	LAMP	798	3	n/a	n/a	n/a	n/a	n/a	n/a
4441.648	n/a	RECOG_TARGET	2220824	n/a	LTP113	ltpFR	0	1	-1	MOTH	920	4	-1	n/a	n/a	n/a	n/a	n/a
4442.886	n/a	RECOG_RESP	2221443	n/a	LTP113	ltpFR	0	1	-1	MOTH	920	n/a	-1	n/a	n/a	n/a	n/a	n/a
4444.848	n/a	RECOG_CONF	2222424	n/a	LTP113	ltpFR	0	1	-1	MOTH	920	4	-1	n/a	n/a	n/a	n/a	n/a
4446.502	n/a	RECOG_TARGET	2223251	n/a	LTP113	ltpFR	0	1	1	VALVE	1546	5	0	n/a	n/a	n/a	n/a	n/a
4447.85	n/a	RECOG_RESP	2223925	n/a	LTP113	ltpFR	0	1	1	VALVE	1546	n/a	0	n/a	n/a	n/a	n/a	n/a
4449.586	n/a	RECOG_CONF	2224793	n/a	LTP113	ltpFR	0	1	1	VALVE	1546	5	0	n/a	n/a	n/a	n/a	n/a
4461.1	n/a	REC_START	2230550	n/a	LTP113	ltpFR	0	2	n/a	n/a	n/a	n/a	n/a	n/a	n/a	n/a	n/a	n/a
4461.128	n/a	RECOG_TARGET	2230564	n/a	LTP113	ltpFR	0	2	0	LEOPARD	812	5	1	n/a	n/a	n/a	n/a	n/a
4462.156	n/a	RECOG_RESP	2231078	n/a	LTP113	ltpFR	0	2	0	LEOPARD	812	n/a	1	n/a	n/a	n/a	n/a	n/a
4463.998	n/a	RECOG_CONF	2231999	n/a	LTP113	ltpFR	0	2	0	LEOPARD	812	5	1	n/a	n/a	n/a	n/a	n/a
4465.654	n/a	RECOG_TARGET	2232827	n/a	LTP113	ltpFR	0	2	0	TORTOISE	1486	5	1	n/a	n/a	n/a	n/a	n/a
4466.482	n/a	RECOG_RESP	2233241	n/a	LTP113	ltpFR	0	2	0	TORTOISE	1486	n/a	1	n/a	n/a	n/a	n/a	n/a
4468.348	n/a	RECOG_CONF	2234174	n/a	LTP113	ltpFR	0	2	0	TORTOISE	1486	5	1	n/a	n/a	n/a	n/a	n/a
4469.95	n/a	RECOG_TARGET	2234975	n/a	LTP113	ltpFR	0	2	0	MALL	860	5	1	n/a	n/a	n/a	n/a	n/a
4470.768	n/a	RECOG_RESP	2235384	n/a	LTP113	ltpFR	0	2	0	MALL	860	n/a	1	n/a	n/a	n/a	n/a	n/a
4472.408	n/a	RECOG_CONF	2236204	n/a	LTP113	ltpFR	0	2	0	MALL	860	5	1	n/a	n/a	n/a	n/a	n/a
4474.27	n/a	RECOG_LURE	2237135	n/a	LTP113	ltpFR	0	2	n/a	CHAMBER	277	4	n/a	n/a	n/a	n/a	n/a	n/a
4475.252	n/a	RECOG_RESP	2237626	n/a	LTP113	ltpFR	0	2	n/a	CHAMBER	277	n/a	n/a	n/a	n/a	n/a	n/a	n/a
4477.038	n/a	RECOG_CONF	2238519	n/a	LTP113	ltpFR	0	2	n/a	CHAMBER	277	4	n/a	n/a	n/a	n/a	n/a	n/a
4478.616	n/a	RECOG_TARGET	2239308	n/a	LTP113	ltpFR	0	2	-1	STRANGER	1389	3	-1	n/a	n/a	n/a	n/a	n/a
4479.996	n/a	RECOG_RESP	2239998	n/a	LTP113	ltpFR	0	2	-1	STRANGER	1389	n/a	-1	n/a	n/a	n/a	n/a	n/a
4481.668	n/a	RECOG_CONF	2240834	n/a	LTP113	ltpFR	0	2	-1	STRANGER	1389	3	-1	n/a	n/a	n/a	n/a	n/a
4483.26	n/a	RECOG_TARGET	2241630	n/a	LTP113	ltpFR	0	2	0	MAN	862	1	1	n/a	n/a	n/a	n/a	n/a
4484.68	n/a	RECOG_RESP	2242340	n/a	LTP113	ltpFR	0	2	0	MAN	862	n/a	1	n/a	n/a	n/a	n/a	n/a
4486.526	n/a	RECOG_CONF	2243263	n/a	LTP113	ltpFR	0	2	0	MAN	862	1	1	n/a	n/a	n/a	n/a	n/a
4488.18	n/a	RECOG_TARGET	2244090	n/a	LTP113	ltpFR	0	2	0	KEEPER	769	5	1	n/a	n/a	n/a	n/a	n/a
4489.4	n/a	RECOG_RESP	2244700	n/a	LTP113	ltpFR	0	2	0	KEEPER	769	n/a	1	n/a	n/a	n/a	n/a	n/a
4491.076	n/a	RECOG_CONF	2245538	n/a	LTP113	ltpFR	0	2	0	KEEPER	769	5	1	n/a	n/a	n/a	n/a	n/a
4492.824	n/a	RECOG_TARGET	2246412	n/a	LTP113	ltpFR	0	2	1	ANTEATER	26	1	1	n/a	n/a	n/a	n/a	n/a
4494.818	n/a	RECOG_RESP	2247409	n/a	LTP113	ltpFR	0	2	1	ANTEATER	26	n/a	1	n/a	n/a	n/a	n/a	n/a
4496.424	n/a	RECOG_CONF	2248212	n/a	LTP113	ltpFR	0	2	1	ANTEATER	26	1	1	n/a	n/a	n/a	n/a	n/a
4497.944	n/a	RECOG_TARGET	2248972	n/a	LTP113	ltpFR	0	2	-1	ATMOSPHERE	54	1	-1	n/a	n/a	n/a	n/a	n/a
4500.232	n/a	RECOG_RESP	2250116	n/a	LTP113	ltpFR	0	2	-1	ATMOSPHERE	54	n/a	-1	n/a	n/a	n/a	n/a	n/a
4501.952	n/a	RECOG_CONF	2250976	n/a	LTP113	ltpFR	0	2	-1	ATMOSPHERE	54	1	-1	n/a	n/a	n/a	n/a	n/a
4503.546	n/a	RECOG_TARGET	2251773	n/a	LTP113	ltpFR	0	2	0	ITEM	746	5	1	n/a	n/a	n/a	n/a	n/a
4504.666	n/a	RECOG_RESP	2252333	n/a	LTP113	ltpFR	0	2	0	ITEM	746	n/a	1	n/a	n/a	n/a	n/a	n/a
4506.452	n/a	RECOG_CONF	2253226	n/a	LTP113	ltpFR	0	2	0	ITEM	746	5	1	n/a	n/a	n/a	n/a	n/a
4508.066	n/a	RECOG_TARGET	2254033	n/a	LTP113	ltpFR	0	2	1	LUMBER	848	5	0	n/a	n/a	n/a	n/a	n/a
4509.006	n/a	RECOG_RESP	2254503	n/a	LTP113	ltpFR	0	2	1	LUMBER	848	n/a	0	n/a	n/a	n/a	n/a	n/a
4510.742	n/a	RECOG_CONF	2255371	n/a	LTP113	ltpFR	0	2	1	LUMBER	848	5	0	n/a	n/a	n/a	n/a	n/a
4512.31	n/a	RECOG_LURE	2256155	n/a	LTP113	ltpFR	0	2	n/a	OAR	966	3	n/a	n/a	n/a	n/a	n/a	n/a
4513.516	n/a	RECOG_RESP	2256758	n/a	LTP113	ltpFR	0	2	n/a	OAR	966	n/a	n/a	n/a	n/a	n/a	n/a	n/a
4515.102	n/a	RECOG_CONF	2257551	n/a	LTP113	ltpFR	0	2	n/a	OAR	966	3	n/a	n/a	n/a	n/a	n/a	n/a
4516.68	n/a	RECOG_TARGET	2258340	n/a	LTP113	ltpFR	0	2	1	PELICAN	1039	5	1	n/a	n/a	n/a	n/a	n/a
4517.642	n/a	RECOG_RESP	2258821	n/a	LTP113	ltpFR	0	2	1	PELICAN	1039	n/a	1	n/a	n/a	n/a	n/a	n/a
4519.322	n/a	RECOG_CONF	2259661	n/a	LTP113	ltpFR	0	2	1	PELICAN	1039	5	1	n/a	n/a	n/a	n/a	n/a
4521.0	n/a	RECOG_LURE	2260500	n/a	LTP113	ltpFR	0	2	n/a	KNIFE	785	4	n/a	n/a	n/a	n/a	n/a	n/a
4522.026	n/a	RECOG_RESP	2261013	n/a	LTP113	ltpFR	0	2	n/a	KNIFE	785	n/a	n/a	n/a	n/a	n/a	n/a	n/a
4523.474	n/a	RECOG_CONF	2261737	n/a	LTP113	ltpFR	0	2	n/a	KNIFE	785	4	n/a	n/a	n/a	n/a	n/a	n/a
4525.104	n/a	RECOG_TARGET	2262552	n/a	LTP113	ltpFR	0	2	0	DOG	480	5	1	n/a	n/a	n/a	n/a	n/a
4525.914	n/a	RECOG_RESP	2262957	n/a	LTP113	ltpFR	0	2	0	DOG	480	n/a	1	n/a	n/a	n/a	n/a	n/a
4527.484	n/a	RECOG_CONF	2263742	n/a	LTP113	ltpFR	0	2	0	DOG	480	5	1	n/a	n/a	n/a	n/a	n/a
4529.108	n/a	RECOG_TARGET	2264554	n/a	LTP113	ltpFR	0	2	1	GRILL	661	2	0	n/a	n/a	n/a	n/a	n/a
4531.5	n/a	RECOG_RESP	2265750	n/a	LTP113	ltpFR	0	2	1	GRILL	661	n/a	0	n/a	n/a	n/a	n/a	n/a
4533.034	n/a	RECOG_CONF	2266517	n/a	LTP113	ltpFR	0	2	1	GRILL	661	2	0	n/a	n/a	n/a	n/a	n/a
4534.576	n/a	RECOG_LURE	2267288	n/a	LTP113	ltpFR	0	2	n/a	ROUGE	1213	4	n/a	n/a	n/a	n/a	n/a	n/a
4535.546	n/a	RECOG_RESP	2267773	n/a	LTP113	ltpFR	0	2	n/a	ROUGE	1213	n/a	n/a	n/a	n/a	n/a	n/a	n/a
4537.202	n/a	RECOG_CONF	2268601	n/a	LTP113	ltpFR	0	2	n/a	ROUGE	1213	4	n/a	n/a	n/a	n/a	n/a	n/a
4538.872	n/a	RECOG_TARGET	2269436	n/a	LTP113	ltpFR	0	2	0	ATTIC	56	5	1	n/a	n/a	n/a	n/a	n/a
4540.146	n/a	RECOG_RESP	2270073	n/a	LTP113	ltpFR	0	2	0	ATTIC	56	n/a	1	n/a	n/a	n/a	n/a	n/a
4541.752	n/a	RECOG_CONF	2270876	n/a	LTP113	ltpFR	0	2	0	ATTIC	56	5	1	n/a	n/a	n/a	n/a	n/a
4543.082	n/a	RECOG_TARGET	2271541	n/a	LTP113	ltpFR	0	2	1	PASSENGER	1020	5	1	n/a	n/a	n/a	n/a	n/a
4544.032	n/a	RECOG_RESP	2272016	n/a	LTP113	ltpFR	0	2	1	PASSENGER	1020	n/a	1	n/a	n/a	n/a	n/a	n/a
4545.942	n/a	RECOG_CONF	2272971	n/a	LTP113	ltpFR	0	2	1	PASSENGER	1020	5	1	n/a	n/a	n/a	n/a	n/a
4547.634	n/a	RECOG_TARGET	2273817	n/a	LTP113	ltpFR	0	2	1	OCTOPUS	971	5	1	n/a	n/a	n/a	n/a	n/a
4548.416	n/a	RECOG_RESP	2274208	n/a	LTP113	ltpFR	0	2	1	OCTOPUS	971	n/a	1	n/a	n/a	n/a	n/a	n/a
4550.222	n/a	RECOG_CONF	2275111	n/a	LTP113	ltpFR	0	2	1	OCTOPUS	971	5	1	n/a	n/a	n/a	n/a	n/a
4557.964	n/a	REC_START	2278982	n/a	LTP113	ltpFR	0	3	n/a	n/a	n/a	n/a	n/a	n/a	n/a	n/a	n/a	n/a
4557.99	n/a	RECOG_TARGET	2278995	n/a	LTP113	ltpFR	0	3	0	CARPET	247	2	1	n/a	n/a	n/a	n/a	n/a
4559.48	n/a	RECOG_RESP	2279740	n/a	LTP113	ltpFR	0	3	0	CARPET	247	n/a	1	n/a	n/a	n/a	n/a	n/a
4561.57	n/a	RECOG_CONF	2280785	n/a	LTP113	ltpFR	0	3	0	CARPET	247	2	1	n/a	n/a	n/a	n/a	n/a
4563.102	n/a	RECOG_TARGET	2281551	n/a	LTP113	ltpFR	0	3	0	CANARY	227	5	1	n/a	n/a	n/a	n/a	n/a
4564.014	n/a	RECOG_RESP	2282007	n/a	LTP113	ltpFR	0	3	0	CANARY	227	n/a	1	n/a	n/a	n/a	n/a	n/a
4565.83	n/a	RECOG_CONF	2282915	n/a	LTP113	ltpFR	0	3	0	CANARY	227	5	1	n/a	n/a	n/a	n/a	n/a
4567.354	n/a	RECOG_TARGET	2283677	n/a	LTP113	ltpFR	0	3	1	DESSERT	453	5	0	n/a	n/a	n/a	n/a	n/a
4568.644	n/a	RECOG_RESP	2284322	n/a	LTP113	ltpFR	0	3	1	DESSERT	453	n/a	0	n/a	n/a	n/a	n/a	n/a
4570.38	n/a	RECOG_CONF	2285190	n/a	LTP113	ltpFR	0	3	1	DESSERT	453	5	0	n/a	n/a	n/a	n/a	n/a
4571.908	n/a	RECOG_TARGET	2285954	n/a	LTP113	ltpFR	0	3	1	FOSSIL	596	5	0	n/a	n/a	n/a	n/a	n/a
4572.664	n/a	RECOG_RESP	2286332	n/a	LTP113	ltpFR	0	3	1	FOSSIL	596	n/a	0	n/a	n/a	n/a	n/a	n/a
4574.362	n/a	RECOG_CONF	2287181	n/a	LTP113	ltpFR	0	3	1	FOSSIL	596	5	0	n/a	n/a	n/a	n/a	n/a
4575.854	n/a	RECOG_TARGET	2287927	n/a	LTP113	ltpFR	0	3	1	CUSHION	428	5	0	n/a	n/a	n/a	n/a	n/a
4576.61	n/a	RECOG_RESP	2288305	n/a	LTP113	ltpFR	0	3	1	CUSHION	428	n/a	0	n/a	n/a	n/a	n/a	n/a
4578.232	n/a	RECOG_CONF	2289116	n/a	LTP113	ltpFR	0	3	1	CUSHION	428	5	0	n/a	n/a	n/a	n/a	n/a
4579.814	n/a	RECOG_TARGET	2289907	n/a	LTP113	ltpFR	0	3	-1	SUSPECT	1415	2	-1	n/a	n/a	n/a	n/a	n/a
4580.842	n/a	RECOG_RESP	2290421	n/a	LTP113	ltpFR	0	3	-1	SUSPECT	1415	n/a	-1	n/a	n/a	n/a	n/a	n/a
4582.802	n/a	RECOG_CONF	2291401	n/a	LTP113	ltpFR	0	3	-1	SUSPECT	1415	2	-1	n/a	n/a	n/a	n/a	n/a
4584.244	n/a	RECOG_TARGET	2292122	n/a	LTP113	ltpFR	0	3	1	GANGSTER	620	5	1	n/a	n/a	n/a	n/a	n/a
4585.082	n/a	RECOG_RESP	2292541	n/a	LTP113	ltpFR	0	3	1	GANGSTER	620	n/a	1	n/a	n/a	n/a	n/a	n/a
4586.634	n/a	RECOG_CONF	2293317	n/a	LTP113	ltpFR	0	3	1	GANGSTER	620	5	1	n/a	n/a	n/a	n/a	n/a
4588.248	n/a	RECOG_TARGET	2294124	n/a	LTP113	ltpFR	0	3	1	ESSAY	540	2	0	n/a	n/a	n/a	n/a	n/a
4589.742	n/a	RECOG_RESP	2294871	n/a	LTP113	ltpFR	0	3	1	ESSAY	540	n/a	0	n/a	n/a	n/a	n/a	n/a
4591.524	n/a	RECOG_CONF	2295762	n/a	LTP113	ltpFR	0	3	1	ESSAY	540	2	0	n/a	n/a	n/a	n/a	n/a
4593.0	n/a	RECOG_TARGET	2296500	n/a	LTP113	ltpFR	0	3	0	BRANDY	169	5	0	n/a	n/a	n/a	n/a	n/a
4593.704	n/a	RECOG_RESP	2296852	n/a	LTP113	ltpFR	0	3	0	BRANDY	169	n/a	0	n/a	n/a	n/a	n/a	n/a
4595.184	n/a	RECOG_CONF	2297592	n/a	LTP113	ltpFR	0	3	0	BRANDY	169	5	0	n/a	n/a	n/a	n/a	n/a
4596.678	n/a	RECOG_TARGET	2298339	n/a	LTP113	ltpFR	0	3	1	VITAMIN	1574	5	0	n/a	n/a	n/a	n/a	n/a
4597.584	n/a	RECOG_RESP	2298792	n/a	LTP113	ltpFR	0	3	1	VITAMIN	1574	n/a	0	n/a	n/a	n/a	n/a	n/a
4599.186	n/a	RECOG_CONF	2299593	n/a	LTP113	ltpFR	0	3	1	VITAMIN	1574	5	0	n/a	n/a	n/a	n/a	n/a
4600.85	n/a	RECOG_TARGET	2300425	n/a	LTP113	ltpFR	0	3	1	BAKER	71	3	1	n/a	n/a	n/a	n/a	n/a
4602.164	n/a	RECOG_RESP	2301082	n/a	LTP113	ltpFR	0	3	1	BAKER	71	n/a	1	n/a	n/a	n/a	n/a	n/a
4603.676	n/a	RECOG_CONF	2301838	n/a	LTP113	ltpFR	0	3	1	BAKER	71	3	1	n/a	n/a	n/a	n/a	n/a
4605.212	n/a	RECOG_TARGET	2302606	n/a	LTP113	ltpFR	0	3	0	DOCTOR	478	5	1	n/a	n/a	n/a	n/a	n/a
4605.926	n/a	RECOG_RESP	2302963	n/a	LTP113	ltpFR	0	3	0	DOCTOR	478	n/a	1	n/a	n/a	n/a	n/a	n/a
4607.446	n/a	RECOG_CONF	2303723	n/a	LTP113	ltpFR	0	3	0	DOCTOR	478	5	1	n/a	n/a	n/a	n/a	n/a
4609.048	n/a	RECOG_TARGET	2304524	n/a	LTP113	ltpFR	0	3	0	HERB	704	3	0	n/a	n/a	n/a	n/a	n/a
4610.19	n/a	RECOG_RESP	2305095	n/a	LTP113	ltpFR	0	3	0	HERB	704	n/a	0	n/a	n/a	n/a	n/a	n/a
4611.618	n/a	RECOG_CONF	2305809	n/a	LTP113	ltpFR	0	3	0	HERB	704	3	0	n/a	n/a	n/a	n/a	n/a
4613.378	n/a	RECOG_TARGET	2306689	n/a	LTP113	ltpFR	0	3	1	WAIST	1579	3	1	n/a	n/a	n/a	n/a	n/a
4614.166	n/a	RECOG_RESP	2307083	n/a	LTP113	ltpFR	0	3	1	WAIST	1579	n/a	1	n/a	n/a	n/a	n/a	n/a
4615.648	n/a	RECOG_CONF	2307824	n/a	LTP113	ltpFR	0	3	1	WAIST	1579	3	1	n/a	n/a	n/a	n/a	n/a
4617.164	n/a	RECOG_TARGET	2308582	n/a	LTP113	ltpFR	0	3	1	DRESS	495	2	3	n/a	n/a	n/a	n/a	n/a
4618.536	n/a	RECOG_RESP	2309268	n/a	LTP113	ltpFR	0	3	1	DRESS	495	n/a	3	n/a	n/a	n/a	n/a	n/a
4620.218	n/a	RECOG_CONF	2310109	n/a	LTP113	ltpFR	0	3	1	DRESS	495	2	3	n/a	n/a	n/a	n/a	n/a
4621.826	n/a	RECOG_TARGET	2310913	n/a	LTP113	ltpFR	0	3	1	ORANGE	980	5	1	n/a	n/a	n/a	n/a	n/a
4622.822	n/a	RECOG_RESP	2311411	n/a	LTP113	ltpFR	0	3	1	ORANGE	980	n/a	1	n/a	n/a	n/a	n/a	n/a
4624.638	n/a	RECOG_CONF	2312319	n/a	LTP113	ltpFR	0	3	1	ORANGE	980	5	1	n/a	n/a	n/a	n/a	n/a
4626.062	n/a	RECOG_TARGET	2313031	n/a	LTP113	ltpFR	0	3	-1	WAVE	1596	5	-1	n/a	n/a	n/a	n/a	n/a
4627.302	n/a	RECOG_RESP	2313651	n/a	LTP113	ltpFR	0	3	-1	WAVE	1596	n/a	-1	n/a	n/a	n/a	n/a	n/a
4629.208	n/a	RECOG_CONF	2314604	n/a	LTP113	ltpFR	0	3	-1	WAVE	1596	5	-1	n/a	n/a	n/a	n/a	n/a
4630.84	n/a	RECOG_TARGET	2315420	n/a	LTP113	ltpFR	0	3	-1	VINE	1568	4	-1	n/a	n/a	n/a	n/a	n/a
4632.12	n/a	RECOG_RESP	2316060	n/a	LTP113	ltpFR	0	3	-1	VINE	1568	n/a	-1	n/a	n/a	n/a	n/a	n/a
4633.956	n/a	RECOG_CONF	2316978	n/a	LTP113	ltpFR	0	3	-1	VINE	1568	4	-1	n/a	n/a	n/a	n/a	n/a
4635.992	n/a	RECOG_LURE	2317996	n/a	LTP113	ltpFR	0	3	n/a	ASSISTANT	48	2	n/a	n/a	n/a	n/a	n/a	n/a
4638.008	n/a	RECOG_RESP	2319004	n/a	LTP113	ltpFR	0	3	n/a	ASSISTANT	48	n/a	n/a	n/a	n/a	n/a	n/a	n/a
4639.694	n/a	RECOG_CONF	2319847	n/a	LTP113	ltpFR	0	3	n/a	ASSISTANT	48	2	n/a	n/a	n/a	n/a	n/a	n/a
4641.344	n/a	RECOG_TARGET	2320672	n/a	LTP113	ltpFR	0	3	1	PARTNER	1017	5	1	n/a	n/a	n/a	n/a	n/a
4642.104	n/a	RECOG_RESP	2321052	n/a	LTP113	ltpFR	0	3	1	PARTNER	1017	n/a	1	n/a	n/a	n/a	n/a	n/a
4643.664	n/a	RECOG_CONF	2321832	n/a	LTP113	ltpFR	0	3	1	PARTNER	1017	5	1	n/a	n/a	n/a	n/a	n/a
4671.066	n/a	REC_START	2335533	n/a	LTP113	ltpFR	0	4	n/a	n/a	n/a	n/a	n/a	n/a	n/a	n/a	n/a	n/a
4671.094	n/a	RECOG_TARGET	2335547	n/a	LTP113	ltpFR	0	4	-1	LAUNDRY	803	2	-1	n/a	n/a	n/a	n/a	n/a
4672.118	n/a	RECOG_RESP	2336059	n/a	LTP113	ltpFR	0	4	-1	LAUNDRY	803	n/a	-1	n/a	n/a	n/a	n/a	n/a
4673.894	n/a	RECOG_CONF	2336947	n/a	LTP113	ltpFR	0	4	-1	LAUNDRY	803	2	-1	n/a	n/a	n/a	n/a	n/a
4675.614	n/a	RECOG_TARGET	2337807	n/a	LTP113	ltpFR	0	4	0	PONY	1102	5	1	n/a	n/a	n/a	n/a	n/a
4676.3	n/a	RECOG_RESP	2338150	n/a	LTP113	ltpFR	0	4	0	PONY	1102	n/a	1	n/a	n/a	n/a	n/a	n/a
4677.726	n/a	RECOG_CONF	2338863	n/a	LTP113	ltpFR	0	4	0	PONY	1102	5	1	n/a	n/a	n/a	n/a	n/a
4679.468	n/a	RECOG_TARGET	2339734	n/a	LTP113	ltpFR	0	4	-1	PREDATOR	1120	2	-1	n/a	n/a	n/a	n/a	n/a
4680.984	n/a	RECOG_RESP	2340492	n/a	LTP113	ltpFR	0	4	-1	PREDATOR	1120	n/a	-1	n/a	n/a	n/a	n/a	n/a
4683.124	n/a	RECOG_CONF	2341562	n/a	LTP113	ltpFR	0	4	-1	PREDATOR	1120	2	-1	n/a	n/a	n/a	n/a	n/a
4684.762	n/a	RECOG_TARGET	2342381	n/a	LTP113	ltpFR	0	4	0	HEN	703	5	0	n/a	n/a	n/a	n/a	n/a
4685.504	n/a	RECOG_RESP	2342752	n/a	LTP113	ltpFR	0	4	0	HEN	703	n/a	0	n/a	n/a	n/a	n/a	n/a
4687.294	n/a	RECOG_CONF	2343647	n/a	LTP113	ltpFR	0	4	0	HEN	703	5	0	n/a	n/a	n/a	n/a	n/a
4689.008	n/a	RECOG_LURE	2344504	n/a	LTP113	ltpFR	0	4	n/a	DAD	433	2	n/a	n/a	n/a	n/a	n/a	n/a
4689.978	n/a	RECOG_RESP	2344989	n/a	LTP113	ltpFR	0	4	n/a	DAD	433	n/a	n/a	n/a	n/a	n/a	n/a	n/a
4691.436	n/a	RECOG_CONF	2345718	n/a	LTP113	ltpFR	0	4	n/a	DAD	433	2	n/a	n/a	n/a	n/a	n/a	n/a
4693.052	n/a	RECOG_TARGET	2346526	n/a	LTP113	ltpFR	0	4	0	WHEEL	1603	5	1	n/a	n/a	n/a	n/a	n/a
4694.852	n/a	RECOG_RESP	2347426	n/a	LTP113	ltpFR	0	4	0	WHEEL	1603	n/a	1	n/a	n/a	n/a	n/a	n/a
4696.444	n/a	RECOG_CONF	2348222	n/a	LTP113	ltpFR	0	4	0	WHEEL	1603	5	1	n/a	n/a	n/a	n/a	n/a
4697.988	n/a	RECOG_TARGET	2348994	n/a	LTP113	ltpFR	0	4	0	CROW	414	5	1	n/a	n/a	n/a	n/a	n/a
4698.658	n/a	RECOG_RESP	2349329	n/a	LTP113	ltpFR	0	4	0	CROW	414	n/a	1	n/a	n/a	n/a	n/a	n/a
4700.226	n/a	RECOG_CONF	2350113	n/a	LTP113	ltpFR	0	4	0	CROW	414	5	1	n/a	n/a	n/a	n/a	n/a
4701.984	n/a	RECOG_TARGET	2350992	n/a	LTP113	ltpFR	0	4	1	SHOE	1288	1	0	n/a	n/a	n/a	n/a	n/a
4702.938	n/a	RECOG_RESP	2351469	n/a	LTP113	ltpFR	0	4	1	SHOE	1288	n/a	0	n/a	n/a	n/a	n/a	n/a
4704.306	n/a	RECOG_CONF	2352153	n/a	LTP113	ltpFR	0	4	1	SHOE	1288	1	0	n/a	n/a	n/a	n/a	n/a
4705.92	n/a	RECOG_TARGET	2352960	n/a	LTP113	ltpFR	0	4	-1	CORN	381	5	-1	n/a	n/a	n/a	n/a	n/a
4706.874	n/a	RECOG_RESP	2353437	n/a	LTP113	ltpFR	0	4	-1	CORN	381	n/a	-1	n/a	n/a	n/a	n/a	n/a
4708.486	n/a	RECOG_CONF	2354243	n/a	LTP113	ltpFR	0	4	-1	CORN	381	5	-1	n/a	n/a	n/a	n/a	n/a
4710.066	n/a	RECOG_TARGET	2355033	n/a	LTP113	ltpFR	0	4	-1	TAG	1429	1	-1	n/a	n/a	n/a	n/a	n/a
4712.258	n/a	RECOG_RESP	2356129	n/a	LTP113	ltpFR	0	4	-1	TAG	1429	n/a	-1	n/a	n/a	n/a	n/a	n/a
4713.884	n/a	RECOG_CONF	2356942	n/a	LTP113	ltpFR	0	4	-1	TAG	1429	1	-1	n/a	n/a	n/a	n/a	n/a
4715.36	n/a	RECOG_TARGET	2357680	n/a	LTP113	ltpFR	0	4	-1	CUFF	423	5	-1	n/a	n/a	n/a	n/a	n/a
4716.198	n/a	RECOG_RESP	2358099	n/a	LTP113	ltpFR	0	4	-1	CUFF	423	n/a	-1	n/a	n/a	n/a	n/a	n/a
4717.466	n/a	RECOG_CONF	2358733	n/a	LTP113	ltpFR	0	4	-1	CUFF	423	5	-1	n/a	n/a	n/a	n/a	n/a
4718.94	n/a	RECOG_TARGET	2359470	n/a	LTP113	ltpFR	0	4	0	FROG	608	5	0	n/a	n/a	n/a	n/a	n/a
4719.77	n/a	RECOG_RESP	2359885	n/a	LTP113	ltpFR	0	4	0	FROG	608	n/a	0	n/a	n/a	n/a	n/a	n/a
4721.278	n/a	RECOG_CONF	2360639	n/a	LTP113	ltpFR	0	4	0	FROG	608	5	0	n/a	n/a	n/a	n/a	n/a
4722.816	n/a	RECOG_TARGET	2361408	n/a	LTP113	ltpFR	0	4	1	BUFFALO	186	5	1	n/a	n/a	n/a	n/a	n/a
4723.796	n/a	RECOG_RESP	2361898	n/a	LTP113	ltpFR	0	4	1	BUFFALO	186	n/a	1	n/a	n/a	n/a	n/a	n/a
4725.328	n/a	RECOG_CONF	2362664	n/a	LTP113	ltpFR	0	4	1	BUFFALO	186	5	1	n/a	n/a	n/a	n/a	n/a
4726.864	n/a	RECOG_TARGET	2363432	n/a	LTP113	ltpFR	0	4	-1	SEAFOOD	1260	1	-1	n/a	n/a	n/a	n/a	n/a
4727.982	n/a	RECOG_RESP	2363991	n/a	LTP113	ltpFR	0	4	-1	SEAFOOD	1260	n/a	-1	n/a	n/a	n/a	n/a	n/a
4729.24	n/a	RECOG_CONF	2364620	n/a	LTP113	ltpFR	0	4	-1	SEAFOOD	1260	1	-1	n/a	n/a	n/a	n/a	n/a
4730.866	n/a	RECOG_TARGET	2365433	n/a	LTP113	ltpFR	0	4	0	TRAY	1498	5	1	n/a	n/a	n/a	n/a	n/a
4731.604	n/a	RECOG_RESP	2365802	n/a	LTP113	ltpFR	0	4	0	TRAY	1498	n/a	1	n/a	n/a	n/a	n/a	n/a
4732.85	n/a	RECOG_CONF	2366425	n/a	LTP113	ltpFR	0	4	0	TRAY	1498	5	1	n/a	n/a	n/a	n/a	n/a
4734.422	n/a	RECOG_TARGET	2367211	n/a	LTP113	ltpFR	0	4	0	NIECE	952	5	1	n/a	n/a	n/a	n/a	n/a
4735.336	n/a	RECOG_RESP	2367668	n/a	LTP113	ltpFR	0	4	0	NIECE	952	n/a	1	n/a	n/a	n/a	n/a	n/a
4736.742	n/a	RECOG_CONF	2368371	n/a	LTP113	ltpFR	0	4	0	NIECE	952	5	1	n/a	n/a	n/a	n/a	n/a
4738.316	n/a	RECOG_TARGET	2369158	n/a	LTP113	ltpFR	0	4	1	FLEET	578	5	0	n/a	n/a	n/a	n/a	n/a
4739.162	n/a	RECOG_RESP	2369581	n/a	LTP113	ltpFR	0	4	1	FLEET	578	n/a	0	n/a	n/a	n/a	n/a	n/a
4740.414	n/a	RECOG_CONF	2370207	n/a	LTP113	ltpFR	0	4	1	FLEET	578	5	0	n/a	n/a	n/a	n/a	n/a
4742.104	n/a	RECOG_TARGET	2371052	n/a	LTP113	ltpFR	0	4	1	SHOVEL	1295	1	0	n/a	n/a	n/a	n/a	n/a
4743.192	n/a	RECOG_RESP	2371596	n/a	LTP113	ltpFR	0	4	1	SHOVEL	1295	n/a	0	n/a	n/a	n/a	n/a	n/a
4744.498	n/a	RECOG_CONF	2372249	n/a	LTP113	ltpFR	0	4	1	SHOVEL	1295	1	0	n/a	n/a	n/a	n/a	n/a
4745.908	n/a	RECOG_LURE	2372954	n/a	LTP113	ltpFR	0	4	n/a	RABBIT	1152	3	n/a	n/a	n/a	n/a	n/a	n/a
4747.324	n/a	RECOG_RESP	2373662	n/a	LTP113	ltpFR	0	4	n/a	RABBIT	1152	n/a	n/a	n/a	n/a	n/a	n/a	n/a
4748.876	n/a	RECOG_CONF	2374438	n/a	LTP113	ltpFR	0	4	n/a	RABBIT	1152	3	n/a	n/a	n/a	n/a	n/a	n/a
4750.362	n/a	RECOG_TARGET	2375181	n/a	LTP113	ltpFR	0	4	0	SALOON	1228	5	1	n/a	n/a	n/a	n/a	n/a
4751.256	n/a	RECOG_RESP	2375628	n/a	LTP113	ltpFR	0	4	0	SALOON	1228	n/a	1	n/a	n/a	n/a	n/a	n/a
4752.696	n/a	RECOG_CONF	2376348	n/a	LTP113	ltpFR	0	4	0	SALOON	1228	5	1	n/a	n/a	n/a	n/a	n/a
4759.866	n/a	REC_START	2379933	n/a	LTP113	ltpFR	0	5	n/a	n/a	n/a	n/a	n/a	n/a	n/a	n/a	n/a	n/a
4759.892	n/a	RECOG_LURE	2379946	n/a	LTP113	ltpFR	0	5	n/a	FAN	551	1	n/a	n/a	n/a	n/a	n/a	n/a
4761.032	n/a	RECOG_RESP	2380516	n/a	LTP113	ltpFR	0	5	n/a	FAN	551	n/a	n/a	n/a	n/a	n/a	n/a	n/a
4762.264	n/a	RECOG_CONF	2381132	n/a	LTP113	ltpFR	0	5	n/a	FAN	551	1	n/a	n/a	n/a	n/a	n/a	n/a
4763.872	n/a	RECOG_TARGET	2381936	n/a	LTP113	ltpFR	0	5	-1	MOUNTAIN	924	2	-1	n/a	n/a	n/a	n/a	n/a
4764.954	n/a	RECOG_RESP	2382477	n/a	LTP113	ltpFR	0	5	-1	MOUNTAIN	924	n/a	-1	n/a	n/a	n/a	n/a	n/a
4766.306	n/a	RECOG_CONF	2383153	n/a	LTP113	ltpFR	0	5	-1	MOUNTAIN	924	2	-1	n/a	n/a	n/a	n/a	n/a
4767.716	n/a	RECOG_TARGET	2383858	n/a	LTP113	ltpFR	0	5	0	BUNNY	198	5	0	n/a	n/a	n/a	n/a	n/a
4768.376	n/a	RECOG_RESP	2384188	n/a	LTP113	ltpFR	0	5	0	BUNNY	198	n/a	0	n/a	n/a	n/a	n/a	n/a
4769.598	n/a	RECOG_CONF	2384799	n/a	LTP113	ltpFR	0	5	0	BUNNY	198	5	0	n/a	n/a	n/a	n/a	n/a
4771.046	n/a	RECOG_TARGET	2385523	n/a	LTP113	ltpFR	0	5	-1	TOWEL	1489	1	-1	n/a	n/a	n/a	n/a	n/a
4772.182	n/a	RECOG_RESP	2386091	n/a	LTP113	ltpFR	0	5	-1	TOWEL	1489	n/a	-1	n/a	n/a	n/a	n/a	n/a
4773.51	n/a	RECOG_CONF	2386755	n/a	LTP113	ltpFR	0	5	-1	TOWEL	1489	1	-1	n/a	n/a	n/a	n/a	n/a
4775.008	n/a	RECOG_TARGET	2387504	n/a	LTP113	ltpFR	0	5	1	REGISTER	1180	5	0	n/a	n/a	n/a	n/a	n/a
4775.714	n/a	RECOG_RESP	2387857	n/a	LTP113	ltpFR	0	5	1	REGISTER	1180	n/a	0	n/a	n/a	n/a	n/a	n/a
4777.152	n/a	RECOG_CONF	2388576	n/a	LTP113	ltpFR	0	5	1	REGISTER	1180	5	0	n/a	n/a	n/a	n/a	n/a
4778.702	n/a	RECOG_TARGET	2389351	n/a	LTP113	ltpFR	0	5	0	SPONGE	1355	5	0	n/a	n/a	n/a	n/a	n/a
4779.62	n/a	RECOG_RESP	2389810	n/a	LTP113	ltpFR	0	5	0	SPONGE	1355	n/a	0	n/a	n/a	n/a	n/a	n/a
4781.032	n/a	RECOG_CONF	2390516	n/a	LTP113	ltpFR	0	5	0	SPONGE	1355	5	0	n/a	n/a	n/a	n/a	n/a
4782.466	n/a	RECOG_TARGET	2391233	n/a	LTP113	ltpFR	0	5	-1	BUCKET	184	2	-1	n/a	n/a	n/a	n/a	n/a
4783.446	n/a	RECOG_RESP	2391723	n/a	LTP113	ltpFR	0	5	-1	BUCKET	184	n/a	-1	n/a	n/a	n/a	n/a	n/a
4784.674	n/a	RECOG_CONF	2392337	n/a	LTP113	ltpFR	0	5	-1	BUCKET	184	2	-1	n/a	n/a	n/a	n/a	n/a
4786.412	n/a	RECOG_TARGET	2393206	n/a	LTP113	ltpFR	0	5	0	COUSIN	392	5	1	n/a	n/a	n/a	n/a	n/a
4787.078	n/a	RECOG_RESP	2393539	n/a	LTP113	ltpFR	0	5	0	COUSIN	392	n/a	1	n/a	n/a	n/a	n/a	n/a
4788.694	n/a	RECOG_CONF	2394347	n/a	LTP113	ltpFR	0	5	0	COUSIN	392	5	1	n/a	n/a	n/a	n/a	n/a
4790.34	n/a	RECOG_LURE	2395170	n/a	LTP113	ltpFR	0	5	n/a	POTATO	1115	1	n/a	n/a	n/a	n/a	n/a	n/a
4791.404	n/a	RECOG_RESP	2395702	n/a	LTP113	ltpFR	0	5	n/a	POTATO	1115	n/a	n/a	n/a	n/a	n/a	n/a	n/a
4792.646	n/a	RECOG_CONF	2396323	n/a	LTP113	ltpFR	0	5	n/a	POTATO	1115	1	n/a	n/a	n/a	n/a	n/a	n/a
4794.21	n/a	RECOG_TARGET	2397105	n/a	LTP113	ltpFR	0	5	0	CALENDAR	221	5	0	n/a	n/a	n/a	n/a	n/a
4794.99	n/a	RECOG_RESP	2397495	n/a	LTP113	ltpFR	0	5	0	CALENDAR	221	n/a	0	n/a	n/a	n/a	n/a	n/a
4796.338	n/a	RECOG_CONF	2398169	n/a	LTP113	ltpFR	0	5	0	CALENDAR	221	5	0	n/a	n/a	n/a	n/a	n/a
4797.982	n/a	RECOG_TARGET	2398991	n/a	LTP113	ltpFR	0	5	1	SKIN	1318	5	1	n/a	n/a	n/a	n/a	n/a
4798.726	n/a	RECOG_RESP	2399363	n/a	LTP113	ltpFR	0	5	1	SKIN	1318	n/a	1	n/a	n/a	n/a	n/a	n/a
4800.138	n/a	RECOG_CONF	2400069	n/a	LTP113	ltpFR	0	5	1	SKIN	1318	5	1	n/a	n/a	n/a	n/a	n/a
4801.81	n/a	RECOG_TARGET	2400905	n/a	LTP113	ltpFR	0	5	1	CHEMICAL	291	5	0	n/a	n/a	n/a	n/a	n/a
4802.528	n/a	RECOG_RESP	2401264	n/a	LTP113	ltpFR	0	5	1	CHEMICAL	291	n/a	0	n/a	n/a	n/a	n/a	n/a
4803.87	n/a	RECOG_CONF	2401935	n/a	LTP113	ltpFR	0	5	1	CHEMICAL	291	5	0	n/a	n/a	n/a	n/a	n/a
4805.49	n/a	RECOG_LURE	2402745	n/a	LTP113	ltpFR	0	5	n/a	GLASSES	640	2	n/a	n/a	n/a	n/a	n/a	n/a
4806.324	n/a	RECOG_RESP	2403162	n/a	LTP113	ltpFR	0	5	n/a	GLASSES	640	n/a	n/a	n/a	n/a	n/a	n/a	n/a
4807.752	n/a	RECOG_CONF	2403876	n/a	LTP113	ltpFR	0	5	n/a	GLASSES	640	2	n/a	n/a	n/a	n/a	n/a	n/a
4809.194	n/a	RECOG_TARGET	2404597	n/a	LTP113	ltpFR	0	5	0	VAN	1548	4	1	n/a	n/a	n/a	n/a	n/a
4810.406	n/a	RECOG_RESP	2405203	n/a	LTP113	ltpFR	0	5	0	VAN	1548	n/a	1	n/a	n/a	n/a	n/a	n/a
4811.922	n/a	RECOG_CONF	2405961	n/a	LTP113	ltpFR	0	5	0	VAN	1548	4	1	n/a	n/a	n/a	n/a	n/a
4813.396	n/a	RECOG_LURE	2406698	n/a	LTP113	ltpFR	0	5	n/a	EYELASH	546	1	n/a	n/a	n/a	n/a	n/a	n/a
4814.442	n/a	RECOG_RESP	2407221	n/a	LTP113	ltpFR	0	5	n/a	EYELASH	546	n/a	n/a	n/a	n/a	n/a	n/a	n/a
4816.392	n/a	RECOG_CONF	2408196	n/a	LTP113	ltpFR	0	5	n/a	EYELASH	546	1	n/a	n/a	n/a	n/a	n/a	n/a
4818.074	n/a	RECOG_TARGET	2409037	n/a	LTP113	ltpFR	0	5	1	PORTRAIT	1111	5	0	n/a	n/a	n/a	n/a	n/a
4818.772	n/a	RECOG_RESP	2409386	n/a	LTP113	ltpFR	0	5	1	PORTRAIT	1111	n/a	0	n/a	n/a	n/a	n/a	n/a
4820.322	n/a	RECOG_CONF	2410161	n/a	LTP113	ltpFR	0	5	1	PORTRAIT	1111	5	0	n/a	n/a	n/a	n/a	n/a
4822.078	n/a	RECOG_LURE	2411039	n/a	LTP113	ltpFR	0	5	n/a	ANTLER	29	2	n/a	n/a	n/a	n/a	n/a	n/a
4823.256	n/a	RECOG_RESP_VV	2411628	n/a	LTP113	ltpFR	0	5	n/a	ANTLER	29	1	n/a	n/a	n/a	n/a	n/a	n/a
4824.19	n/a	RECOG_RESP	2412095	n/a	LTP113	ltpFR	0	5	n/a	ANTLER	29	n/a	n/a	n/a	n/a	n/a	n/a	n/a
4826.09	n/a	RECOG_CONF	2413045	n/a	LTP113	ltpFR	0	5	n/a	ANTLER	29	2	n/a	n/a	n/a	n/a	n/a	n/a
4827.896	n/a	RECOG_TARGET	2413948	n/a	LTP113	ltpFR	0	5	0	RAISIN	1163	5	0	n/a	n/a	n/a	n/a	n/a
4828.784	n/a	RECOG_RESP	2414392	n/a	LTP113	ltpFR	0	5	0	RAISIN	1163	n/a	0	n/a	n/a	n/a	n/a	n/a
4830.242	n/a	RECOG_CONF	2415121	n/a	LTP113	ltpFR	0	5	0	RAISIN	1163	5	0	n/a	n/a	n/a	n/a	n/a
4831.792	n/a	RECOG_TARGET	2415896	n/a	LTP113	ltpFR	0	5	1	CHICK	296	5	1	n/a	n/a	n/a	n/a	n/a
4832.522	n/a	RECOG_RESP	2416261	n/a	LTP113	ltpFR	0	5	1	CHICK	296	n/a	1	n/a	n/a	n/a	n/a	n/a
4833.952	n/a	RECOG_CONF	2416976	n/a	LTP113	ltpFR	0	5	1	CHICK	296	5	1	n/a	n/a	n/a	n/a	n/a
4835.654	n/a	RECOG_TARGET	2417827	n/a	LTP113	ltpFR	0	5	1	DRUG	501	2	0	n/a	n/a	n/a	n/a	n/a
4836.576	n/a	RECOG_RESP	2418288	n/a	LTP113	ltpFR	0	5	1	DRUG	501	n/a	0	n/a	n/a	n/a	n/a	n/a
4837.954	n/a	RECOG_CONF	2418977	n/a	LTP113	ltpFR	0	5	1	DRUG	501	2	0	n/a	n/a	n/a	n/a	n/a
4848.502	n/a	REC_START	2424251	n/a	LTP113	ltpFR	0	6	n/a	n/a	n/a	n/a	n/a	n/a	n/a	n/a	n/a	n/a
4848.532	n/a	RECOG_TARGET	2424266	n/a	LTP113	ltpFR	0	6	1	DRIVER	499	3	1	n/a	n/a	n/a	n/a	n/a
4849.314	n/a	RECOG_RESP	2424657	n/a	LTP113	ltpFR	0	6	1	DRIVER	499	n/a	1	n/a	n/a	n/a	n/a	n/a
4851.36	n/a	RECOG_CONF	2425680	n/a	LTP113	ltpFR	0	6	1	DRIVER	499	3	1	n/a	n/a	n/a	n/a	n/a
4852.918	n/a	RECOG_TARGET	2426459	n/a	LTP113	ltpFR	0	6	-1	WATER	1594	1	-1	n/a	n/a	n/a	n/a	n/a
4854.548	n/a	RECOG_RESP	2427274	n/a	LTP113	ltpFR	0	6	-1	WATER	1594	n/a	-1	n/a	n/a	n/a	n/a	n/a
4856.04	n/a	RECOG_CONF	2428020	n/a	LTP113	ltpFR	0	6	-1	WATER	1594	1	-1	n/a	n/a	n/a	n/a	n/a
4857.53	n/a	RECOG_TARGET	2428765	n/a	LTP113	ltpFR	0	6	1	HAMBURGER	679	2	0	n/a	n/a	n/a	n/a	n/a
4858.424	n/a	RECOG_RESP	2429212	n/a	LTP113	ltpFR	0	6	1	HAMBURGER	679	n/a	0	n/a	n/a	n/a	n/a	n/a
4860.04	n/a	RECOG_CONF	2430020	n/a	LTP113	ltpFR	0	6	1	HAMBURGER	679	2	0	n/a	n/a	n/a	n/a	n/a
4861.45	n/a	RECOG_LURE	2430725	n/a	LTP113	ltpFR	0	6	n/a	MATCH	878	3	n/a	n/a	n/a	n/a	n/a	n/a
4862.33	n/a	RECOG_RESP	2431165	n/a	LTP113	ltpFR	0	6	n/a	MATCH	878	n/a	n/a	n/a	n/a	n/a	n/a	n/a
4863.822	n/a	RECOG_CONF	2431911	n/a	LTP113	ltpFR	0	6	n/a	MATCH	878	3	n/a	n/a	n/a	n/a	n/a	n/a
4865.404	n/a	RECOG_LURE	2432702	n/a	LTP113	ltpFR	0	6	n/a	CREVICE	405	3	n/a	n/a	n/a	n/a	n/a	n/a
4866.52	n/a	RECOG_RESP	2433260	n/a	LTP113	ltpFR	0	6	n/a	CREVICE	405	n/a	n/a	n/a	n/a	n/a	n/a	n/a
4867.832	n/a	RECOG_CONF	2433916	n/a	LTP113	ltpFR	0	6	n/a	CREVICE	405	3	n/a	n/a	n/a	n/a	n/a	n/a
4869.4	n/a	RECOG_TARGET	2434700	n/a	LTP113	ltpFR	0	6	-1	SCHOOL	1248	5	-1	n/a	n/a	n/a	n/a	n/a
4870.152	n/a	RECOG_RESP	2435076	n/a	LTP113	ltpFR	0	6	-1	SCHOOL	1248	n/a	-1	n/a	n/a	n/a	n/a	n/a
4871.614	n/a	RECOG_CONF	2435807	n/a	LTP113	ltpFR	0	6	-1	SCHOOL	1248	5	-1	n/a	n/a	n/a	n/a	n/a
4873.178	n/a	RECOG_TARGET	2436589	n/a	LTP113	ltpFR	0	6	1	POLYESTER	1100	5	0	n/a	n/a	n/a	n/a	n/a
4874.188	n/a	RECOG_RESP	2437094	n/a	LTP113	ltpFR	0	6	1	POLYESTER	1100	n/a	0	n/a	n/a	n/a	n/a	n/a
4875.664	n/a	RECOG_CONF	2437832	n/a	LTP113	ltpFR	0	6	1	POLYESTER	1100	5	0	n/a	n/a	n/a	n/a	n/a
4877.224	n/a	RECOG_TARGET	2438612	n/a	LTP113	ltpFR	0	6	-1	CLOVE	329	2	-1	n/a	n/a	n/a	n/a	n/a
4878.424	n/a	RECOG_RESP	2439212	n/a	LTP113	ltpFR	0	6	-1	CLOVE	329	n/a	-1	n/a	n/a	n/a	n/a	n/a
4879.884	n/a	RECOG_CONF	2439942	n/a	LTP113	ltpFR	0	6	-1	CLOVE	329	2	-1	n/a	n/a	n/a	n/a	n/a
4881.468	n/a	RECOG_TARGET	2440734	n/a	LTP113	ltpFR	0	6	0	MINER	896	5	1	n/a	n/a	n/a	n/a	n/a
4882.334	n/a	RECOG_RESP	2441167	n/a	LTP113	ltpFR	0	6	0	MINER	896	n/a	1	n/a	n/a	n/a	n/a	n/a
4883.756	n/a	RECOG_CONF	2441878	n/a	LTP113	ltpFR	0	6	0	MINER	896	5	1	n/a	n/a	n/a	n/a	n/a
4885.298	n/a	RECOG_TARGET	2442649	n/a	LTP113	ltpFR	0	6	1	TANK	1432	3	0	n/a	n/a	n/a	n/a	n/a
4886.87	n/a	RECOG_RESP	2443435	n/a	LTP113	ltpFR	0	6	1	TANK	1432	n/a	0	n/a	n/a	n/a	n/a	n/a
4888.266	n/a	RECOG_CONF	2444133	n/a	LTP113	ltpFR	0	6	1	TANK	1432	3	0	n/a	n/a	n/a	n/a	n/a
4889.816	n/a	RECOG_LURE	2444908	n/a	LTP113	ltpFR	0	6	n/a	VAGRANT	1544	5	n/a	n/a	n/a	n/a	n/a	n/a
4890.984	n/a	RECOG_RESP	2445492	n/a	LTP113	ltpFR	0	6	n/a	VAGRANT	1544	n/a	n/a	n/a	n/a	n/a	n/a	n/a
4892.306	n/a	RECOG_RESP_VV	2446153	n/a	LTP113	ltpFR	0	6	n/a	VAGRANT	1544	1	n/a	n/a	n/a	n/a	n/a	n/a
4894.342	n/a	RECOG_CONF	2447171	n/a	LTP113	ltpFR	0	6	n/a	VAGRANT	1544	5	n/a	n/a	n/a	n/a	n/a	n/a
4896.168	n/a	RECOG_TARGET	2448084	n/a	LTP113	ltpFR	0	6	-1	SLOPE	1328	2	-1	n/a	n/a	n/a	n/a	n/a
4897.73	n/a	RECOG_RESP	2448865	n/a	LTP113	ltpFR	0	6	-1	SLOPE	1328	n/a	-1	n/a	n/a	n/a	n/a	n/a
4899.26	n/a	RECOG_CONF	2449630	n/a	LTP113	ltpFR	0	6	-1	SLOPE	1328	2	-1	n/a	n/a	n/a	n/a	n/a
4900.938	n/a	RECOG_TARGET	2450469	n/a	LTP113	ltpFR	0	6	1	WAITRESS	1581	4	1	n/a	n/a	n/a	n/a	n/a
4901.606	n/a	RECOG_RESP	2450803	n/a	LTP113	ltpFR	0	6	1	WAITRESS	1581	n/a	1	n/a	n/a	n/a	n/a	n/a
4903.122	n/a	RECOG_CONF	2451561	n/a	LTP113	ltpFR	0	6	1	WAITRESS	1581	4	1	n/a	n/a	n/a	n/a	n/a
4904.616	n/a	RECOG_TARGET	2452308	n/a	LTP113	ltpFR	0	6	-1	BAIT	70	5	-1	n/a	n/a	n/a	n/a	n/a
4905.516	n/a	RECOG_RESP	2452758	n/a	LTP113	ltpFR	0	6	-1	BAIT	70	n/a	-1	n/a	n/a	n/a	n/a	n/a
4906.714	n/a	RECOG_CONF	2453357	n/a	LTP113	ltpFR	0	6	-1	BAIT	70	5	-1	n/a	n/a	n/a	n/a	n/a
4908.438	n/a	RECOG_TARGET	2454219	n/a	LTP113	ltpFR	0	6	1	SAUCER	1237	5	0	n/a	n/a	n/a	n/a	n/a
4909.288	n/a	RECOG_RESP	2454644	n/a	LTP113	ltpFR	0	6	1	SAUCER	1237	n/a	0	n/a	n/a	n/a	n/a	n/a
4910.724	n/a	RECOG_CONF	2455362	n/a	LTP113	ltpFR	0	6	1	SAUCER	1237	5	0	n/a	n/a	n/a	n/a	n/a
4912.226	n/a	RECOG_TARGET	2456113	n/a	LTP113	ltpFR	0	6	1	HOSPITAL	721	5	0	n/a	n/a	n/a	n/a	n/a
4912.876	n/a	RECOG_RESP	2456438	n/a	LTP113	ltpFR	0	6	1	HOSPITAL	721	n/a	0	n/a	n/a	n/a	n/a	n/a
4914.268	n/a	RECOG_CONF	2457134	n/a	LTP113	ltpFR	0	6	1	HOSPITAL	721	5	0	n/a	n/a	n/a	n/a	n/a
4915.854	n/a	RECOG_TARGET	2457927	n/a	LTP113	ltpFR	0	6	1	QUAIL	1147	1	1	n/a	n/a	n/a	n/a	n/a
4917.122	n/a	RECOG_RESP	2458561	n/a	LTP113	ltpFR	0	6	1	QUAIL	1147	n/a	1	n/a	n/a	n/a	n/a	n/a
4919.476	n/a	RECOG_CONF	2459738	n/a	LTP113	ltpFR	0	6	1	QUAIL	1147	1	1	n/a	n/a	n/a	n/a	n/a
4920.85	n/a	RECOG_TARGET	2460425	n/a	LTP113	ltpFR	0	6	1	RIB	1188	5	0	n/a	n/a	n/a	n/a	n/a
4921.672	n/a	RECOG_RESP	2460836	n/a	LTP113	ltpFR	0	6	1	RIB	1188	n/a	0	n/a	n/a	n/a	n/a	n/a
4923.008	n/a	RECOG_CONF	2461504	n/a	LTP113	ltpFR	0	6	1	RIB	1188	5	0	n/a	n/a	n/a	n/a	n/a
4924.536	n/a	RECOG_LURE	2462268	n/a	LTP113	ltpFR	0	6	n/a	MAT	877	1	n/a	n/a	n/a	n/a	n/a	n/a
4925.746	n/a	RECOG_RESP	2462873	n/a	LTP113	ltpFR	0	6	n/a	MAT	877	n/a	n/a	n/a	n/a	n/a	n/a	n/a
