mstime	trial_type	stim_file	subject	experiment	session	trial	task	item_name	item_num	recog_resp	recog_conf	resp	color_r	color_g	color_b	case	font
0	SESS_START	n/a	LTP140	ltpFR	19	n/a	n/a	n/a	n/a	1	3	n/a	n/a	n/a	n/a	n/a	n/a
49801	WORD	wordpools/wasnorm_wordpool.txt	LTP140	ltpFR	19	1	1	CUPBOARD	425	1	n/a	0	0.57763671875	0.412841796875	1	upper	zerothre.ttf
53766	WORD	wordpools/wasnorm_wordpool.txt	LTP140	ltpFR	19	1	1	PIGEON	1065	n/a	n/a	1	0.57763671875	0.412841796875	1	upper	zerothre.ttf
57732	WORD	wordpools/wasnorm_wordpool.txt	LTP140	ltpFR	19	1	1	TUTU	1524	n/a	n/a	0	0.57763671875	0.412841796875	1	upper	zerothre.ttf
61706	WORD	wordpools/wasnorm_wordpool.txt	LTP140	ltpFR	19	1	0	CAKE	219	n/a	n/a	0	0.422607421875	0.5869140625	0	lower	amplitud.ttf
65854	WORD	wordpools/wasnorm_wordpool.txt	LTP140	ltpFR	19	1	0	ROBIN	1199	n/a	n/a	0	0.422607421875	0.5869140625	0	lower	amplitud.ttf
69703	WORD	wordpools/wasnorm_wordpool.txt	LTP140	ltpFR	19	1	0	PATROL	1027	n/a	n/a	1	0.422607421875	0.5869140625	0	lower	amplitud.ttf
73901	WORD	wordpools/wasnorm_wordpool.txt	LTP140	ltpFR	19	1	0	VIOLA	1570	n/a	n/a	1	0.422607421875	0.5869140625	0	lower	amplitud.ttf
77734	WORD	wordpools/wasnorm_wordpool.txt	LTP140	ltpFR	19	1	1	CLARINET	317	n/a	n/a	0	0.57763671875	0.412841796875	1	upper	zerothre.ttf
81898	WORD	wordpools/wasnorm_wordpool.txt	LTP140	ltpFR	19	1	1	GOAT	644	n/a	n/a	1	0.57763671875	0.412841796875	1	upper	zerothre.ttf
85946	WORD	wordpools/wasnorm_wordpool.txt	LTP140	ltpFR	19	1	1	CHEESE	289	n/a	n/a	0	0.57763671875	0.412841796875	1	upper	zerothre.ttf
89778	WORD	wordpools/wasnorm_wordpool.txt	LTP140	ltpFR	19	1	0	AGENT	10	n/a	n/a	1	0.422607421875	0.5869140625	0	lower	amplitud.ttf
93769	WORD	wordpools/wasnorm_wordpool.txt	LTP140	ltpFR	19	1	0	KIWI	781	n/a	n/a	0	0.422607421875	0.5869140625	0	lower	amplitud.ttf
97917	WORD	wordpools/wasnorm_wordpool.txt	LTP140	ltpFR	19	1	0	SEAGULL	1261	n/a	n/a	1	0.422607421875	0.5869140625	0	lower	amplitud.ttf
102049	WORD	wordpools/wasnorm_wordpool.txt	LTP140	ltpFR	19	1	0	BLOUSE	139	n/a	n/a	1	0.422607421875	0.5869140625	0	lower	amplitud.ttf
105906	WORD	wordpools/wasnorm_wordpool.txt	LTP140	ltpFR	19	1	1	SWEATER	1419	n/a	n/a	0	0.57763671875	0.412841796875	1	upper	zerothre.ttf
110038	WORD	wordpools/wasnorm_wordpool.txt	LTP140	ltpFR	19	1	1	FLEA	577	n/a	n/a	1	0.57763671875	0.412841796875	1	upper	zerothre.ttf
115770	REC_START	n/a	LTP140	ltpFR	19	1	n/a	n/a	n/a	n/a	n/a	n/a	n/a	n/a	n/a	n/a	n/a
116548	REC_WORD	wordpools/wasnorm_wordpool.txt	LTP140	ltpFR	19	1	1	FLEA	577	n/a	n/a	1	n/a	n/a	n/a	n/a	n/a
117630	REC_WORD	wordpools/wasnorm_wordpool.txt	LTP140	ltpFR	19	1	1	SWEATER	1419	n/a	n/a	0	n/a	n/a	n/a	n/a	n/a
118923	REC_WORD	wordpools/wasnorm_wordpool.txt	LTP140	ltpFR	19	1	0	BLOUSE	139	n/a	n/a	1	n/a	n/a	n/a	n/a	n/a
119780	REC_WORD	wordpools/wasnorm_wordpool.txt	LTP140	ltpFR	19	1	0	SEAGULL	1261	n/a	n/a	1	n/a	n/a	n/a	n/a	n/a
120958	REC_WORD	wordpools/wasnorm_wordpool.txt	LTP140	ltpFR	19	1	0	KIWI	781	n/a	n/a	0	n/a	n/a	n/a	n/a	n/a
122255	REC_WORD	wordpools/wasnorm_wordpool.txt	LTP140	ltpFR	19	1	0	AGENT	10	n/a	n/a	1	n/a	n/a	n/a	n/a	n/a
125662	REC_WORD	wordpools/wasnorm_wordpool.txt	LTP140	ltpFR	19	1	n/a	SEA	1259	n/a	n/a	n/a	n/a	n/a	n/a	n/a	n/a
128107	REC_WORD	wordpools/wasnorm_wordpool.txt	LTP140	ltpFR	19	1	1	CUPBOARD	425	n/a	n/a	0	n/a	n/a	n/a	n/a	n/a
128960	REC_WORD	wordpools/wasnorm_wordpool.txt	LTP140	ltpFR	19	1	1	PIGEON	1065	n/a	n/a	1	n/a	n/a	n/a	n/a	n/a
132287	REC_WORD	wordpools/wasnorm_wordpool.txt	LTP140	ltpFR	19	1	0	CAKE	219	n/a	n/a	0	n/a	n/a	n/a	n/a	n/a
133105	REC_WORD	wordpools/wasnorm_wordpool.txt	LTP140	ltpFR	19	1	1	TUTU	1524	n/a	n/a	0	n/a	n/a	n/a	n/a	n/a
134392	REC_WORD	wordpools/wasnorm_wordpool.txt	LTP140	ltpFR	19	1	n/a	DRESS	495	n/a	n/a	n/a	n/a	n/a	n/a	n/a	n/a
137031	REC_WORD	wordpools/wasnorm_wordpool.txt	LTP140	ltpFR	19	1	0	ROBIN	1199	n/a	n/a	0	n/a	n/a	n/a	n/a	n/a
139032	REC_WORD	wordpools/wasnorm_wordpool.txt	LTP140	ltpFR	19	1	1	GOAT	644	n/a	n/a	1	n/a	n/a	n/a	n/a	n/a
144749	REC_WORD	wordpools/wasnorm_wordpool.txt	LTP140	ltpFR	19	1	1	CHEESE	289	n/a	n/a	0	n/a	n/a	n/a	n/a	n/a
159934	REC_WORD	wordpools/wasnorm_wordpool.txt	LTP140	ltpFR	19	1	n/a	HOLE	-1	n/a	n/a	n/a	n/a	n/a	n/a	n/a	n/a
167158	REC_WORD	wordpools/wasnorm_wordpool.txt	LTP140	ltpFR	19	1	1	TUTU	1524	n/a	n/a	0	n/a	n/a	n/a	n/a	n/a
190056	REC_WORD	wordpools/wasnorm_wordpool.txt	LTP140	ltpFR	19	1	0	AGENT	10	n/a	n/a	1	n/a	n/a	n/a	n/a	n/a
193668	WORD	wordpools/wasnorm_wordpool.txt	LTP140	ltpFR	19	2	0	WIRE	1616	n/a	n/a	0	0.422607421875	0.5869140625	0	lower	amplitud.ttf
197757	WORD	wordpools/wasnorm_wordpool.txt	LTP140	ltpFR	19	2	0	DOVE	491	n/a	n/a	0	0.422607421875	0.5869140625	0	lower	amplitud.ttf
201580	WORD	wordpools/wasnorm_wordpool.txt	LTP140	ltpFR	19	2	0	GULL	671	n/a	n/a	1	0.422607421875	0.5869140625	0	lower	amplitud.ttf
205487	WORD	wordpools/wasnorm_wordpool.txt	LTP140	ltpFR	19	2	1	SISTER	1312	n/a	n/a	1	0.57763671875	0.412841796875	1	upper	zerothre.ttf
209544	WORD	wordpools/wasnorm_wordpool.txt	LTP140	ltpFR	19	2	1	BILL	126	n/a	n/a	0	0.57763671875	0.412841796875	1	upper	zerothre.ttf
213551	WORD	wordpools/wasnorm_wordpool.txt	LTP140	ltpFR	19	2	1	GOO	648	n/a	n/a	0	0.57763671875	0.412841796875	1	upper	zerothre.ttf
217717	WORD	wordpools/wasnorm_wordpool.txt	LTP140	ltpFR	19	2	1	WHALE	1601	n/a	n/a	1	0.57763671875	0.412841796875	1	upper	zerothre.ttf
221691	WORD	wordpools/wasnorm_wordpool.txt	LTP140	ltpFR	19	2	1	NEPHEW	942	n/a	n/a	1	0.57763671875	0.412841796875	1	upper	zerothre.ttf
225797	WORD	wordpools/wasnorm_wordpool.txt	LTP140	ltpFR	19	2	1	KID	775	n/a	n/a	1	0.57763671875	0.412841796875	1	upper	zerothre.ttf
229671	WORD	wordpools/wasnorm_wordpool.txt	LTP140	ltpFR	19	2	0	PORCH	1106	n/a	n/a	1	0.422607421875	0.5869140625	0	lower	amplitud.ttf
233695	WORD	wordpools/wasnorm_wordpool.txt	LTP140	ltpFR	19	2	0	BALCONY	72	n/a	n/a	1	0.422607421875	0.5869140625	0	lower	amplitud.ttf
237568	WORD	wordpools/wasnorm_wordpool.txt	LTP140	ltpFR	19	2	0	RING	1193	n/a	n/a	0	0.422607421875	0.5869140625	0	lower	amplitud.ttf
241758	WORD	wordpools/wasnorm_wordpool.txt	LTP140	ltpFR	19	2	1	DOUGHNUT	490	n/a	n/a	0	0.57763671875	0.412841796875	1	upper	zerothre.ttf
245915	WORD	wordpools/wasnorm_wordpool.txt	LTP140	ltpFR	19	2	1	BAIT	70	n/a	n/a	1	0.57763671875	0.412841796875	1	upper	zerothre.ttf
250021	WORD	wordpools/wasnorm_wordpool.txt	LTP140	ltpFR	19	2	0	DUNE	506	n/a	n/a	1	0.422607421875	0.5869140625	0	lower	amplitud.ttf
254153	WORD	wordpools/wasnorm_wordpool.txt	LTP140	ltpFR	19	2	0	TORTOISE	1486	n/a	n/a	0	0.422607421875	0.5869140625	0	lower	amplitud.ttf
260035	REC_START	n/a	LTP140	ltpFR	19	2	n/a	n/a	n/a	n/a	n/a	n/a	n/a	n/a	n/a	n/a	n/a
260613	REC_WORD	wordpools/wasnorm_wordpool.txt	LTP140	ltpFR	19	2	0	TORTOISE	1486	n/a	n/a	0	n/a	n/a	n/a	n/a	n/a
261631	REC_WORD	wordpools/wasnorm_wordpool.txt	LTP140	ltpFR	19	2	0	DUNE	506	n/a	n/a	1	n/a	n/a	n/a	n/a	n/a
262619	REC_WORD	wordpools/wasnorm_wordpool.txt	LTP140	ltpFR	19	2	1	BAIT	70	n/a	n/a	1	n/a	n/a	n/a	n/a	n/a
263552	REC_WORD	wordpools/wasnorm_wordpool.txt	LTP140	ltpFR	19	2	1	DOUGHNUT	490	n/a	n/a	0	n/a	n/a	n/a	n/a	n/a
264569	REC_WORD	wordpools/wasnorm_wordpool.txt	LTP140	ltpFR	19	2	0	RING	1193	n/a	n/a	0	n/a	n/a	n/a	n/a	n/a
265971	REC_WORD	wordpools/wasnorm_wordpool.txt	LTP140	ltpFR	19	2	0	PORCH	1106	n/a	n/a	1	n/a	n/a	n/a	n/a	n/a
267208	REC_WORD	wordpools/wasnorm_wordpool.txt	LTP140	ltpFR	19	2	0	BALCONY	72	n/a	n/a	1	n/a	n/a	n/a	n/a	n/a
268356	REC_WORD	wordpools/wasnorm_wordpool.txt	LTP140	ltpFR	19	2	1	WHALE	1601	n/a	n/a	1	n/a	n/a	n/a	n/a	n/a
269758	REC_WORD	wordpools/wasnorm_wordpool.txt	LTP140	ltpFR	19	2	1	NEPHEW	942	n/a	n/a	1	n/a	n/a	n/a	n/a	n/a
271519	REC_WORD	wordpools/wasnorm_wordpool.txt	LTP140	ltpFR	19	2	1	GOO	648	n/a	n/a	0	n/a	n/a	n/a	n/a	n/a
273569	REC_WORD	wordpools/wasnorm_wordpool.txt	LTP140	ltpFR	19	2	1	BILL	126	n/a	n/a	0	n/a	n/a	n/a	n/a	n/a
276901	REC_WORD	wordpools/wasnorm_wordpool.txt	LTP140	ltpFR	19	2	1	SISTER	1312	n/a	n/a	1	n/a	n/a	n/a	n/a	n/a
278403	REC_WORD	wordpools/wasnorm_wordpool.txt	LTP140	ltpFR	19	2	n/a	FRIEND	606	n/a	n/a	n/a	n/a	n/a	n/a	n/a	n/a
279875	REC_WORD	wordpools/wasnorm_wordpool.txt	LTP140	ltpFR	19	2	0	DOVE	491	n/a	n/a	0	n/a	n/a	n/a	n/a	n/a
281052	REC_WORD	wordpools/wasnorm_wordpool.txt	LTP140	ltpFR	19	2	0	WIRE	1616	n/a	n/a	0	n/a	n/a	n/a	n/a	n/a
284045	REC_WORD	wordpools/wasnorm_wordpool.txt	LTP140	ltpFR	19	2	n/a	LINE	-1	n/a	n/a	n/a	n/a	n/a	n/a	n/a	n/a
293010	REC_WORD	wordpools/wasnorm_wordpool.txt	LTP140	ltpFR	19	2	0	GULL	671	n/a	n/a	1	n/a	n/a	n/a	n/a	n/a
298148	REC_WORD	wordpools/wasnorm_wordpool.txt	LTP140	ltpFR	19	2	n/a	SAND	1230	n/a	n/a	n/a	n/a	n/a	n/a	n/a	n/a
307213	REC_WORD	wordpools/wasnorm_wordpool.txt	LTP140	ltpFR	19	2	1	KID	775	n/a	n/a	1	n/a	n/a	n/a	n/a	n/a
309263	REC_WORD	wordpools/wasnorm_wordpool.txt	LTP140	ltpFR	19	2	1	NEPHEW	942	n/a	n/a	1	n/a	n/a	n/a	n/a	n/a
328464	REC_WORD	wordpools/wasnorm_wordpool.txt	LTP140	ltpFR	19	2	0	TORTOISE	1486	n/a	n/a	0	n/a	n/a	n/a	n/a	n/a
339956	WORD	wordpools/wasnorm_wordpool.txt	LTP140	ltpFR	19	3	1	ARMY	39	n/a	n/a	0	0.57763671875	0.412841796875	1	upper	zerothre.ttf
344130	WORD	wordpools/wasnorm_wordpool.txt	LTP140	ltpFR	19	3	1	CLOTHES	327	n/a	n/a	0	0.57763671875	0.412841796875	1	upper	zerothre.ttf
347962	WORD	wordpools/wasnorm_wordpool.txt	LTP140	ltpFR	19	3	1	LINT	826	n/a	n/a	0	0.57763671875	0.412841796875	1	upper	zerothre.ttf
351860	WORD	wordpools/wasnorm_wordpool.txt	LTP140	ltpFR	19	3	1	TROUT	1511	n/a	n/a	1	0.57763671875	0.412841796875	1	upper	zerothre.ttf
356050	WORD	wordpools/wasnorm_wordpool.txt	LTP140	ltpFR	19	3	1	PIKE	1067	n/a	n/a	1	0.57763671875	0.412841796875	1	upper	zerothre.ttf
360257	WORD	wordpools/wasnorm_wordpool.txt	LTP140	ltpFR	19	3	1	BOARD	143	n/a	n/a	0	0.57763671875	0.412841796875	1	upper	zerothre.ttf
364123	WORD	wordpools/wasnorm_wordpool.txt	LTP140	ltpFR	19	3	1	BAND	78	n/a	n/a	0	0.57763671875	0.412841796875	1	upper	zerothre.ttf
368005	WORD	wordpools/wasnorm_wordpool.txt	LTP140	ltpFR	19	3	1	BRAIN	165	n/a	n/a	1	0.57763671875	0.412841796875	1	upper	zerothre.ttf
371987	WORD	wordpools/wasnorm_wordpool.txt	LTP140	ltpFR	19	3	1	DIRECTOR	471	n/a	n/a	1	0.57763671875	0.412841796875	1	upper	zerothre.ttf
376177	WORD	wordpools/wasnorm_wordpool.txt	LTP140	ltpFR	19	3	1	CROCODILE	411	n/a	n/a	1	0.57763671875	0.412841796875	1	upper	zerothre.ttf
380000	WORD	wordpools/wasnorm_wordpool.txt	LTP140	ltpFR	19	3	1	HELMET	702	n/a	n/a	0	0.57763671875	0.412841796875	1	upper	zerothre.ttf
384107	WORD	wordpools/wasnorm_wordpool.txt	LTP140	ltpFR	19	3	1	VOLLEYBALL	1576	n/a	n/a	0	0.57763671875	0.412841796875	1	upper	zerothre.ttf
388264	WORD	wordpools/wasnorm_wordpool.txt	LTP140	ltpFR	19	3	1	ORGAN	984	n/a	n/a	1	0.57763671875	0.412841796875	1	upper	zerothre.ttf
392329	WORD	wordpools/wasnorm_wordpool.txt	LTP140	ltpFR	19	3	1	REPTILE	1185	n/a	n/a	1	0.57763671875	0.412841796875	1	upper	zerothre.ttf
396145	WORD	wordpools/wasnorm_wordpool.txt	LTP140	ltpFR	19	3	1	SOLDIER	1344	n/a	n/a	1	0.57763671875	0.412841796875	1	upper	zerothre.ttf
400102	WORD	wordpools/wasnorm_wordpool.txt	LTP140	ltpFR	19	3	1	FAUCET	555	n/a	n/a	0	0.57763671875	0.412841796875	1	upper	zerothre.ttf
405842	REC_START	n/a	LTP140	ltpFR	19	3	n/a	n/a	n/a	n/a	n/a	n/a	n/a	n/a	n/a	n/a	n/a
406854	REC_WORD	wordpools/wasnorm_wordpool.txt	LTP140	ltpFR	19	3	1	FAUCET	555	n/a	n/a	0	n/a	n/a	n/a	n/a	n/a
408002	REC_WORD	wordpools/wasnorm_wordpool.txt	LTP140	ltpFR	19	3	1	SOLDIER	1344	n/a	n/a	1	n/a	n/a	n/a	n/a	n/a
409154	REC_WORD	wordpools/wasnorm_wordpool.txt	LTP140	ltpFR	19	3	1	REPTILE	1185	n/a	n/a	1	n/a	n/a	n/a	n/a	n/a
410227	REC_WORD	wordpools/wasnorm_wordpool.txt	LTP140	ltpFR	19	3	1	VOLLEYBALL	1576	n/a	n/a	0	n/a	n/a	n/a	n/a	n/a
411234	REC_WORD	wordpools/wasnorm_wordpool.txt	LTP140	ltpFR	19	3	1	HELMET	702	n/a	n/a	0	n/a	n/a	n/a	n/a	n/a
412327	REC_WORD	wordpools/wasnorm_wordpool.txt	LTP140	ltpFR	19	3	1	BRAIN	165	n/a	n/a	1	n/a	n/a	n/a	n/a	n/a
416877	REC_WORD	wordpools/wasnorm_wordpool.txt	LTP140	ltpFR	19	3	1	CROCODILE	411	n/a	n/a	1	n/a	n/a	n/a	n/a	n/a
419161	REC_WORD	wordpools/wasnorm_wordpool.txt	LTP140	ltpFR	19	3	1	ARMY	39	n/a	n/a	0	n/a	n/a	n/a	n/a	n/a
420683	REC_WORD	wordpools/wasnorm_wordpool.txt	LTP140	ltpFR	19	3	1	LINT	826	n/a	n/a	0	n/a	n/a	n/a	n/a	n/a
421786	REC_WORD	wordpools/wasnorm_wordpool.txt	LTP140	ltpFR	19	3	1	TROUT	1511	n/a	n/a	1	n/a	n/a	n/a	n/a	n/a
422803	REC_WORD	wordpools/wasnorm_wordpool.txt	LTP140	ltpFR	19	3	1	PIKE	1067	n/a	n/a	1	n/a	n/a	n/a	n/a	n/a
423996	REC_WORD	wordpools/wasnorm_wordpool.txt	LTP140	ltpFR	19	3	1	BAND	78	n/a	n/a	0	n/a	n/a	n/a	n/a	n/a
425103	REC_WORD	wordpools/wasnorm_wordpool.txt	LTP140	ltpFR	19	3	n/a	CUT	-1	n/a	n/a	n/a	n/a	n/a	n/a	n/a	n/a
435155	REC_WORD	wordpools/wasnorm_wordpool.txt	LTP140	ltpFR	19	3	1	CLOTHES	327	n/a	n/a	0	n/a	n/a	n/a	n/a	n/a
450665	REC_WORD	wordpools/wasnorm_wordpool.txt	LTP140	ltpFR	19	3	n/a	CUT	-1	n/a	n/a	n/a	n/a	n/a	n/a	n/a	n/a
455654	REC_WORD	wordpools/wasnorm_wordpool.txt	LTP140	ltpFR	19	3	1	DIRECTOR	471	n/a	n/a	1	n/a	n/a	n/a	n/a	n/a
468310	REC_WORD	wordpools/wasnorm_wordpool.txt	LTP140	ltpFR	19	3	1	VOLLEYBALL	1576	n/a	n/a	0	n/a	n/a	n/a	n/a	n/a
483389	WORD	wordpools/wasnorm_wordpool.txt	LTP140	ltpFR	19	4	0	TAXI	1438	n/a	n/a	2	0.422607421875	0.5869140625	0	lower	amplitud.ttf
484288	KEY_MSG	n/a	LTP140	ltpFR	19	4	n/a	n/a	n/a	n/a	n/a	n/a	n/a	n/a	n/a	n/a	n/a
487254	WORD	wordpools/wasnorm_wordpool.txt	LTP140	ltpFR	19	4	0	CAB	209	n/a	n/a	1	0.422607421875	0.5869140625	0	lower	amplitud.ttf
491111	WORD	wordpools/wasnorm_wordpool.txt	LTP140	ltpFR	19	4	0	RACK	1154	n/a	n/a	1	0.422607421875	0.5869140625	0	lower	amplitud.ttf
495160	WORD	wordpools/wasnorm_wordpool.txt	LTP140	ltpFR	19	4	1	PALM	1007	n/a	n/a	1	0.57763671875	0.412841796875	1	upper	zerothre.ttf
499041	WORD	wordpools/wasnorm_wordpool.txt	LTP140	ltpFR	19	4	1	LIMB	822	n/a	n/a	0	0.57763671875	0.412841796875	1	upper	zerothre.ttf
503148	WORD	wordpools/wasnorm_wordpool.txt	LTP140	ltpFR	19	4	1	SINK	1309	n/a	n/a	0	0.57763671875	0.412841796875	1	upper	zerothre.ttf
507164	WORD	wordpools/wasnorm_wordpool.txt	LTP140	ltpFR	19	4	1	ROBE	1198	n/a	n/a	0	0.57763671875	0.412841796875	1	upper	zerothre.ttf
510979	WORD	wordpools/wasnorm_wordpool.txt	LTP140	ltpFR	19	4	0	SPIDER	1351	n/a	n/a	0	0.422607421875	0.5869140625	0	lower	amplitud.ttf
515036	WORD	wordpools/wasnorm_wordpool.txt	LTP140	ltpFR	19	4	0	PARROT	1015	n/a	n/a	1	0.422607421875	0.5869140625	0	lower	amplitud.ttf
519093	WORD	wordpools/wasnorm_wordpool.txt	LTP140	ltpFR	19	4	0	HAMPER	682	n/a	n/a	1	0.422607421875	0.5869140625	0	lower	amplitud.ttf
522950	WORD	wordpools/wasnorm_wordpool.txt	LTP140	ltpFR	19	4	0	FINGERNAIL	568	n/a	n/a	0	0.422607421875	0.5869140625	0	lower	amplitud.ttf
527156	WORD	wordpools/wasnorm_wordpool.txt	LTP140	ltpFR	19	4	0	BRUNETTE	181	n/a	n/a	1	0.422607421875	0.5869140625	0	lower	amplitud.ttf
531172	WORD	wordpools/wasnorm_wordpool.txt	LTP140	ltpFR	19	4	1	HOOK	715	n/a	n/a	0	0.57763671875	0.412841796875	1	upper	zerothre.ttf
535004	WORD	wordpools/wasnorm_wordpool.txt	LTP140	ltpFR	19	4	1	VIOLIN	1571	n/a	n/a	0	0.57763671875	0.412841796875	1	upper	zerothre.ttf
539160	WORD	wordpools/wasnorm_wordpool.txt	LTP140	ltpFR	19	4	1	BIRD	129	n/a	n/a	1	0.57763671875	0.412841796875	1	upper	zerothre.ttf
543209	WORD	wordpools/wasnorm_wordpool.txt	LTP140	ltpFR	19	4	1	LAKE	796	n/a	n/a	0	0.57763671875	0.412841796875	1	upper	zerothre.ttf
549183	REC_START	n/a	LTP140	ltpFR	19	4	n/a	n/a	n/a	n/a	n/a	n/a	n/a	n/a	n/a	n/a	n/a
550006	REC_WORD	wordpools/wasnorm_wordpool.txt	LTP140	ltpFR	19	4	1	LAKE	796	n/a	n/a	0	n/a	n/a	n/a	n/a	n/a
551034	REC_WORD	wordpools/wasnorm_wordpool.txt	LTP140	ltpFR	19	4	1	BIRD	129	n/a	n/a	1	n/a	n/a	n/a	n/a	n/a
552151	REC_WORD	wordpools/wasnorm_wordpool.txt	LTP140	ltpFR	19	4	1	HOOK	715	n/a	n/a	0	n/a	n/a	n/a	n/a	n/a
553238	REC_WORD	wordpools/wasnorm_wordpool.txt	LTP140	ltpFR	19	4	1	VIOLIN	1571	n/a	n/a	0	n/a	n/a	n/a	n/a	n/a
554560	REC_WORD	wordpools/wasnorm_wordpool.txt	LTP140	ltpFR	19	4	0	FINGERNAIL	568	n/a	n/a	0	n/a	n/a	n/a	n/a	n/a
556097	REC_WORD	wordpools/wasnorm_wordpool.txt	LTP140	ltpFR	19	4	0	BRUNETTE	181	n/a	n/a	1	n/a	n/a	n/a	n/a	n/a
557838	REC_WORD	wordpools/wasnorm_wordpool.txt	LTP140	ltpFR	19	4	1	BIRD	129	n/a	n/a	1	n/a	n/a	n/a	n/a	n/a
560213	REC_WORD	wordpools/wasnorm_wordpool.txt	LTP140	ltpFR	19	4	0	PARROT	1015	n/a	n/a	1	n/a	n/a	n/a	n/a	n/a
560945	REC_WORD	wordpools/wasnorm_wordpool.txt	LTP140	ltpFR	19	4	0	SPIDER	1351	n/a	n/a	0	n/a	n/a	n/a	n/a	n/a
562702	REC_WORD	wordpools/wasnorm_wordpool.txt	LTP140	ltpFR	19	4	0	TAXI	1438	n/a	n/a	2	n/a	n/a	n/a	n/a	n/a
563745	REC_WORD	wordpools/wasnorm_wordpool.txt	LTP140	ltpFR	19	4	0	CAB	209	n/a	n/a	1	n/a	n/a	n/a	n/a	n/a
565007	REC_WORD	wordpools/wasnorm_wordpool.txt	LTP140	ltpFR	19	4	1	ROBE	1198	n/a	n/a	0	n/a	n/a	n/a	n/a	n/a
573463	REC_WORD	wordpools/wasnorm_wordpool.txt	LTP140	ltpFR	19	4	n/a	FINGER	567	n/a	n/a	n/a	n/a	n/a	n/a	n/a	n/a
585116	REC_WORD	wordpools/wasnorm_wordpool.txt	LTP140	ltpFR	19	4	1	LAKE	796	n/a	n/a	0	n/a	n/a	n/a	n/a	n/a
592594	REC_WORD	wordpools/wasnorm_wordpool.txt	LTP140	ltpFR	19	4	n/a	CAR	241	n/a	n/a	n/a	n/a	n/a	n/a	n/a	n/a
626971	WORD	wordpools/wasnorm_wordpool.txt	LTP140	ltpFR	19	5	-1	AUTOMOBILE	62	n/a	n/a	-1	1.0	1.0	1	upper	Verdana.ttf
631103	WORD	wordpools/wasnorm_wordpool.txt	LTP140	ltpFR	19	5	-1	LIMOUSINE	824	n/a	n/a	-1	1.0	1.0	1	upper	Verdana.ttf
635051	WORD	wordpools/wasnorm_wordpool.txt	LTP140	ltpFR	19	5	-1	DINOSAUR	469	n/a	n/a	-1	1.0	1.0	1	upper	Verdana.ttf
638917	WORD	wordpools/wasnorm_wordpool.txt	LTP140	ltpFR	19	5	-1	SUMMIT	1405	n/a	n/a	-1	1.0	1.0	1	upper	Verdana.ttf
642840	WORD	wordpools/wasnorm_wordpool.txt	LTP140	ltpFR	19	5	-1	BEE	112	n/a	n/a	-1	1.0	1.0	1	upper	Verdana.ttf
646989	WORD	wordpools/wasnorm_wordpool.txt	LTP140	ltpFR	19	5	-1	ZOO	1637	n/a	n/a	-1	1.0	1.0	1	upper	Verdana.ttf
651046	WORD	wordpools/wasnorm_wordpool.txt	LTP140	ltpFR	19	5	-1	NOTE	958	n/a	n/a	-1	1.0	1.0	1	upper	Verdana.ttf
655161	WORD	wordpools/wasnorm_wordpool.txt	LTP140	ltpFR	19	5	-1	SUNRISE	1407	n/a	n/a	-1	1.0	1.0	1	upper	Verdana.ttf
659118	WORD	wordpools/wasnorm_wordpool.txt	LTP140	ltpFR	19	5	-1	PATH	1023	n/a	n/a	-1	1.0	1.0	1	upper	Verdana.ttf
663283	WORD	wordpools/wasnorm_wordpool.txt	LTP140	ltpFR	19	5	-1	TAR	1435	n/a	n/a	-1	1.0	1.0	1	upper	Verdana.ttf
667290	WORD	wordpools/wasnorm_wordpool.txt	LTP140	ltpFR	19	5	-1	CONSUMER	365	n/a	n/a	-1	1.0	1.0	1	upper	Verdana.ttf
671114	WORD	wordpools/wasnorm_wordpool.txt	LTP140	ltpFR	19	5	-1	FLESH	579	n/a	n/a	-1	1.0	1.0	1	upper	Verdana.ttf
675312	WORD	wordpools/wasnorm_wordpool.txt	LTP140	ltpFR	19	5	-1	BUTCHER	203	n/a	n/a	-1	1.0	1.0	1	upper	Verdana.ttf
679244	WORD	wordpools/wasnorm_wordpool.txt	LTP140	ltpFR	19	5	-1	SCULPTURE	1258	n/a	n/a	-1	1.0	1.0	1	upper	Verdana.ttf
683151	WORD	wordpools/wasnorm_wordpool.txt	LTP140	ltpFR	19	5	-1	CELLO	268	n/a	n/a	-1	1.0	1.0	1	upper	Verdana.ttf
687283	WORD	wordpools/wasnorm_wordpool.txt	LTP140	ltpFR	19	5	-1	HORIZON	717	n/a	n/a	-1	1.0	1.0	1	upper	Verdana.ttf
693048	REC_START	n/a	LTP140	ltpFR	19	5	n/a	n/a	n/a	n/a	n/a	n/a	n/a	n/a	n/a	n/a	n/a
693986	REC_WORD	wordpools/wasnorm_wordpool.txt	LTP140	ltpFR	19	5	-1	HORIZON	717	n/a	n/a	-1	n/a	n/a	n/a	n/a	n/a
695163	REC_WORD	wordpools/wasnorm_wordpool.txt	LTP140	ltpFR	19	5	-1	CELLO	268	n/a	n/a	-1	n/a	n/a	n/a	n/a	n/a
695856	REC_WORD	wordpools/wasnorm_wordpool.txt	LTP140	ltpFR	19	5	-1	SCULPTURE	1258	n/a	n/a	-1	n/a	n/a	n/a	n/a	n/a
697058	REC_WORD	wordpools/wasnorm_wordpool.txt	LTP140	ltpFR	19	5	-1	BUTCHER	203	n/a	n/a	-1	n/a	n/a	n/a	n/a	n/a
697822	REC_WORD	wordpools/wasnorm_wordpool.txt	LTP140	ltpFR	19	5	-1	BEE	112	n/a	n/a	-1	n/a	n/a	n/a	n/a	n/a
698236	REC_WORD	wordpools/wasnorm_wordpool.txt	LTP140	ltpFR	19	5	n/a	MEAT	883	n/a	n/a	n/a	n/a	n/a	n/a	n/a	n/a
701383	REC_WORD	wordpools/wasnorm_wordpool.txt	LTP140	ltpFR	19	5	-1	FLESH	579	n/a	n/a	-1	n/a	n/a	n/a	n/a	n/a
702526	REC_WORD	wordpools/wasnorm_wordpool.txt	LTP140	ltpFR	19	5	-1	CONSUMER	365	n/a	n/a	-1	n/a	n/a	n/a	n/a	n/a
703753	REC_WORD	wordpools/wasnorm_wordpool.txt	LTP140	ltpFR	19	5	-1	TAR	1435	n/a	n/a	-1	n/a	n/a	n/a	n/a	n/a
705075	REC_WORD	wordpools/wasnorm_wordpool.txt	LTP140	ltpFR	19	5	-1	PATH	1023	n/a	n/a	-1	n/a	n/a	n/a	n/a	n/a
706956	REC_WORD	wordpools/wasnorm_wordpool.txt	LTP140	ltpFR	19	5	-1	HORIZON	717	n/a	n/a	-1	n/a	n/a	n/a	n/a	n/a
708812	REC_WORD	wordpools/wasnorm_wordpool.txt	LTP140	ltpFR	19	5	-1	NOTE	958	n/a	n/a	-1	n/a	n/a	n/a	n/a	n/a
710164	REC_WORD	wordpools/wasnorm_wordpool.txt	LTP140	ltpFR	19	5	-1	BEE	112	n/a	n/a	-1	n/a	n/a	n/a	n/a	n/a
711022	REC_WORD	wordpools/wasnorm_wordpool.txt	LTP140	ltpFR	19	5	-1	ZOO	1637	n/a	n/a	-1	n/a	n/a	n/a	n/a	n/a
712892	REC_WORD	wordpools/wasnorm_wordpool.txt	LTP140	ltpFR	19	5	-1	SUMMIT	1405	n/a	n/a	-1	n/a	n/a	n/a	n/a	n/a
714793	REC_WORD	wordpools/wasnorm_wordpool.txt	LTP140	ltpFR	19	5	n/a	MOUNTAIN	924	n/a	n/a	n/a	n/a	n/a	n/a	n/a	n/a
716539	REC_WORD	wordpools/wasnorm_wordpool.txt	LTP140	ltpFR	19	5	-1	DINOSAUR	469	n/a	n/a	-1	n/a	n/a	n/a	n/a	n/a
717986	REC_WORD	wordpools/wasnorm_wordpool.txt	LTP140	ltpFR	19	5	-1	LIMOUSINE	824	n/a	n/a	-1	n/a	n/a	n/a	n/a	n/a
718944	REC_WORD	wordpools/wasnorm_wordpool.txt	LTP140	ltpFR	19	5	-1	AUTOMOBILE	62	n/a	n/a	-1	n/a	n/a	n/a	n/a	n/a
720046	REC_WORD	wordpools/wasnorm_wordpool.txt	LTP140	ltpFR	19	5	n/a	CAR	241	n/a	n/a	n/a	n/a	n/a	n/a	n/a	n/a
723444	REC_WORD	wordpools/wasnorm_wordpool.txt	LTP140	ltpFR	19	5	n/a	SUNSET	1408	n/a	n/a	n/a	n/a	n/a	n/a	n/a	n/a
776951	WORD	wordpools/wasnorm_wordpool.txt	LTP140	ltpFR	19	6	1	CONTRACTOR	369	n/a	n/a	1	0.57763671875	0.412841796875	1	upper	zerothre.ttf
780933	WORD	wordpools/wasnorm_wordpool.txt	LTP140	ltpFR	19	6	1	PLASTER	1085	n/a	n/a	0	0.57763671875	0.412841796875	1	upper	zerothre.ttf
784940	WORD	wordpools/wasnorm_wordpool.txt	LTP140	ltpFR	19	6	1	MAPLE	866	n/a	n/a	1	0.57763671875	0.412841796875	1	upper	zerothre.ttf
789022	WORD	wordpools/wasnorm_wordpool.txt	LTP140	ltpFR	19	6	1	LOBSTER	837	n/a	n/a	1	0.57763671875	0.412841796875	1	upper	zerothre.ttf
793045	WORD	wordpools/wasnorm_wordpool.txt	LTP140	ltpFR	19	6	1	FATHER	554	n/a	n/a	1	0.57763671875	0.412841796875	1	upper	zerothre.ttf
797161	WORD	wordpools/wasnorm_wordpool.txt	LTP140	ltpFR	19	6	0	DAD	433	n/a	n/a	1	0.422607421875	0.5869140625	0	lower	amplitud.ttf
801059	WORD	wordpools/wasnorm_wordpool.txt	LTP140	ltpFR	19	6	0	SHAMPOO	1274	n/a	n/a	0	0.422607421875	0.5869140625	0	lower	amplitud.ttf
804874	WORD	wordpools/wasnorm_wordpool.txt	LTP140	ltpFR	19	6	0	BASEMENT	94	n/a	n/a	1	0.422607421875	0.5869140625	0	lower	amplitud.ttf
808898	WORD	wordpools/wasnorm_wordpool.txt	LTP140	ltpFR	19	6	1	ONION	977	n/a	n/a	1	0.57763671875	0.412841796875	1	upper	zerothre.ttf
812772	WORD	wordpools/wasnorm_wordpool.txt	LTP140	ltpFR	19	6	1	MEAL	882	n/a	n/a	0	0.57763671875	0.412841796875	1	upper	zerothre.ttf
816770	WORD	wordpools/wasnorm_wordpool.txt	LTP140	ltpFR	19	6	1	GARLIC	624	n/a	n/a	1	0.57763671875	0.412841796875	1	upper	zerothre.ttf
820969	WORD	wordpools/wasnorm_wordpool.txt	LTP140	ltpFR	19	6	0	SAGE	1222	n/a	n/a	0	0.422607421875	0.5869140625	0	lower	amplitud.ttf
824817	WORD	wordpools/wasnorm_wordpool.txt	LTP140	ltpFR	19	6	0	FAIRY	549	n/a	n/a	0	0.422607421875	0.5869140625	0	lower	amplitud.ttf
828966	WORD	wordpools/wasnorm_wordpool.txt	LTP140	ltpFR	19	6	0	HOUND	724	n/a	n/a	1	0.422607421875	0.5869140625	0	lower	amplitud.ttf
833031	WORD	wordpools/wasnorm_wordpool.txt	LTP140	ltpFR	19	6	0	FOREST	593	n/a	n/a	1	0.422607421875	0.5869140625	0	lower	amplitud.ttf
836930	WORD	wordpools/wasnorm_wordpool.txt	LTP140	ltpFR	19	6	0	DINNER	468	n/a	n/a	1	0.422607421875	0.5869140625	0	lower	amplitud.ttf
842713	REC_START	n/a	LTP140	ltpFR	19	6	n/a	n/a	n/a	n/a	n/a	n/a	n/a	n/a	n/a	n/a	n/a
843326	REC_WORD	wordpools/wasnorm_wordpool.txt	LTP140	ltpFR	19	6	0	DINNER	468	n/a	n/a	1	n/a	n/a	n/a	n/a	n/a
843905	REC_WORD	wordpools/wasnorm_wordpool.txt	LTP140	ltpFR	19	6	0	FOREST	593	n/a	n/a	1	n/a	n/a	n/a	n/a	n/a
845073	REC_WORD	wordpools/wasnorm_wordpool.txt	LTP140	ltpFR	19	6	0	HOUND	724	n/a	n/a	1	n/a	n/a	n/a	n/a	n/a
846315	REC_WORD	wordpools/wasnorm_wordpool.txt	LTP140	ltpFR	19	6	n/a	DOG	480	n/a	n/a	n/a	n/a	n/a	n/a	n/a	n/a
849208	REC_WORD	wordpools/wasnorm_wordpool.txt	LTP140	ltpFR	19	6	0	FAIRY	549	n/a	n/a	0	n/a	n/a	n/a	n/a	n/a
851009	REC_WORD	wordpools/wasnorm_wordpool.txt	LTP140	ltpFR	19	6	1	ONION	977	n/a	n/a	1	n/a	n/a	n/a	n/a	n/a
852111	REC_WORD	wordpools/wasnorm_wordpool.txt	LTP140	ltpFR	19	6	1	GARLIC	624	n/a	n/a	1	n/a	n/a	n/a	n/a	n/a
853812	REC_WORD	wordpools/wasnorm_wordpool.txt	LTP140	ltpFR	19	6	0	SAGE	1222	n/a	n/a	0	n/a	n/a	n/a	n/a	n/a
855613	REC_WORD	wordpools/wasnorm_wordpool.txt	LTP140	ltpFR	19	6	1	FATHER	554	n/a	n/a	1	n/a	n/a	n/a	n/a	n/a
856721	REC_WORD	wordpools/wasnorm_wordpool.txt	LTP140	ltpFR	19	6	0	DAD	433	n/a	n/a	1	n/a	n/a	n/a	n/a	n/a
858297	REC_WORD	wordpools/wasnorm_wordpool.txt	LTP140	ltpFR	19	6	1	CONTRACTOR	369	n/a	n/a	1	n/a	n/a	n/a	n/a	n/a
859330	REC_WORD	wordpools/wasnorm_wordpool.txt	LTP140	ltpFR	19	6	1	PLASTER	1085	n/a	n/a	0	n/a	n/a	n/a	n/a	n/a
860413	REC_WORD	wordpools/wasnorm_wordpool.txt	LTP140	ltpFR	19	6	1	MAPLE	866	n/a	n/a	1	n/a	n/a	n/a	n/a	n/a
872765	REC_WORD	wordpools/wasnorm_wordpool.txt	LTP140	ltpFR	19	6	n/a	TREE	1502	n/a	n/a	n/a	n/a	n/a	n/a	n/a	n/a
916036	REC_WORD	wordpools/wasnorm_wordpool.txt	LTP140	ltpFR	19	6	0	BASEMENT	94	n/a	n/a	1	n/a	n/a	n/a	n/a	n/a
920300	WORD	wordpools/wasnorm_wordpool.txt	LTP140	ltpFR	19	7	-1	DECK	443	n/a	n/a	-1	1.0	1.0	1	upper	Verdana.ttf
924374	WORD	wordpools/wasnorm_wordpool.txt	LTP140	ltpFR	19	7	-1	PASTA	1021	n/a	n/a	-1	1.0	1.0	1	upper	Verdana.ttf
928506	WORD	wordpools/wasnorm_wordpool.txt	LTP140	ltpFR	19	7	-1	OREGANO	983	n/a	n/a	-1	1.0	1.0	1	upper	Verdana.ttf
932338	WORD	wordpools/wasnorm_wordpool.txt	LTP140	ltpFR	19	7	-1	DENIM	446	n/a	n/a	-1	1.0	1.0	1	upper	Verdana.ttf
936336	WORD	wordpools/wasnorm_wordpool.txt	LTP140	ltpFR	19	7	-1	ASTRONAUT	51	n/a	n/a	-1	1.0	1.0	1	upper	Verdana.ttf
940468	WORD	wordpools/wasnorm_wordpool.txt	LTP140	ltpFR	19	7	-1	OTTER	986	n/a	n/a	-1	1.0	1.0	1	upper	Verdana.ttf
944333	WORD	wordpools/wasnorm_wordpool.txt	LTP140	ltpFR	19	7	-1	MOSS	918	n/a	n/a	-1	1.0	1.0	1	upper	Verdana.ttf
948540	WORD	wordpools/wasnorm_wordpool.txt	LTP140	ltpFR	19	7	-1	FIG	563	n/a	n/a	-1	1.0	1.0	1	upper	Verdana.ttf
952397	WORD	wordpools/wasnorm_wordpool.txt	LTP140	ltpFR	19	7	-1	PURSE	1145	n/a	n/a	-1	1.0	1.0	1	upper	Verdana.ttf
956587	WORD	wordpools/wasnorm_wordpool.txt	LTP140	ltpFR	19	7	-1	TOTE	1487	n/a	n/a	-1	1.0	1.0	1	upper	Verdana.ttf
960569	WORD	wordpools/wasnorm_wordpool.txt	LTP140	ltpFR	19	7	-1	MUSEUM	933	n/a	n/a	-1	1.0	1.0	1	upper	Verdana.ttf
964418	WORD	wordpools/wasnorm_wordpool.txt	LTP140	ltpFR	19	7	-1	ASSOCIATE	49	n/a	n/a	-1	1.0	1.0	1	upper	Verdana.ttf
968325	WORD	wordpools/wasnorm_wordpool.txt	LTP140	ltpFR	19	7	-1	HAMMER	680	n/a	n/a	-1	1.0	1.0	1	upper	Verdana.ttf
972432	WORD	wordpools/wasnorm_wordpool.txt	LTP140	ltpFR	19	7	-1	TAIL	1430	n/a	n/a	-1	1.0	1.0	1	upper	Verdana.ttf
976389	WORD	wordpools/wasnorm_wordpool.txt	LTP140	ltpFR	19	7	-1	ANCHOR	21	n/a	n/a	-1	1.0	1.0	1	upper	Verdana.ttf
980262	WORD	wordpools/wasnorm_wordpool.txt	LTP140	ltpFR	19	7	-1	SLEEVE	1324	n/a	n/a	-1	1.0	1.0	1	upper	Verdana.ttf
986019	REC_START	n/a	LTP140	ltpFR	19	7	n/a	n/a	n/a	n/a	n/a	n/a	n/a	n/a	n/a	n/a	n/a
986747	REC_WORD	wordpools/wasnorm_wordpool.txt	LTP140	ltpFR	19	7	-1	SLEEVE	1324	n/a	n/a	-1	n/a	n/a	n/a	n/a	n/a
987745	REC_WORD	wordpools/wasnorm_wordpool.txt	LTP140	ltpFR	19	7	-1	ANCHOR	21	n/a	n/a	-1	n/a	n/a	n/a	n/a	n/a
989147	REC_WORD	wordpools/wasnorm_wordpool.txt	LTP140	ltpFR	19	7	-1	TAIL	1430	n/a	n/a	-1	n/a	n/a	n/a	n/a	n/a
990763	REC_WORD	wordpools/wasnorm_wordpool.txt	LTP140	ltpFR	19	7	n/a	BOAT	144	n/a	n/a	n/a	n/a	n/a	n/a	n/a	n/a
992664	REC_WORD	wordpools/wasnorm_wordpool.txt	LTP140	ltpFR	19	7	-1	HAMMER	680	n/a	n/a	-1	n/a	n/a	n/a	n/a	n/a
993871	REC_WORD	wordpools/wasnorm_wordpool.txt	LTP140	ltpFR	19	7	-1	ASSOCIATE	49	n/a	n/a	-1	n/a	n/a	n/a	n/a	n/a
995427	REC_WORD	wordpools/wasnorm_wordpool.txt	LTP140	ltpFR	19	7	-1	OTTER	986	n/a	n/a	-1	n/a	n/a	n/a	n/a	n/a
996864	REC_WORD	wordpools/wasnorm_wordpool.txt	LTP140	ltpFR	19	7	-1	MOSS	918	n/a	n/a	-1	n/a	n/a	n/a	n/a	n/a
1000491	REC_WORD	wordpools/wasnorm_wordpool.txt	LTP140	ltpFR	19	7	0	BALCONY	72	n/a	n/a	1	n/a	n/a	n/a	n/a	n/a
1002367	REC_WORD	wordpools/wasnorm_wordpool.txt	LTP140	ltpFR	19	7	-1	ASTRONAUT	51	n/a	n/a	-1	n/a	n/a	n/a	n/a	n/a
1004627	REC_WORD	wordpools/wasnorm_wordpool.txt	LTP140	ltpFR	19	7	-1	DENIM	446	n/a	n/a	-1	n/a	n/a	n/a	n/a	n/a
1008139	REC_WORD	wordpools/wasnorm_wordpool.txt	LTP140	ltpFR	19	7	-1	PASTA	1021	n/a	n/a	-1	n/a	n/a	n/a	n/a	n/a
1009061	REC_WORD	wordpools/wasnorm_wordpool.txt	LTP140	ltpFR	19	7	-1	OREGANO	983	n/a	n/a	-1	n/a	n/a	n/a	n/a	n/a
1010061	REC_WORD_VV	wordpools/wasnorm_wordpool.txt	LTP140	ltpFR	19	7	n/a	<>	-1	n/a	n/a	n/a	n/a	n/a	n/a	n/a	n/a
1011351	REC_WORD	wordpools/wasnorm_wordpool.txt	LTP140	ltpFR	19	7	1	GARLIC	624	n/a	n/a	1	n/a	n/a	n/a	n/a	n/a
1019079	REC_WORD	wordpools/wasnorm_wordpool.txt	LTP140	ltpFR	19	7	n/a	SUIT	1402	n/a	n/a	n/a	n/a	n/a	n/a	n/a	n/a
1044047	REC_WORD	wordpools/wasnorm_wordpool.txt	LTP140	ltpFR	19	7	-1	OTTER	986	n/a	n/a	-1	n/a	n/a	n/a	n/a	n/a
1063824	WORD	wordpools/wasnorm_wordpool.txt	LTP140	ltpFR	19	8	0	LUNCH	849	n/a	n/a	1	0.422607421875	0.5869140625	0	lower	amplitud.ttf
1067956	WORD	wordpools/wasnorm_wordpool.txt	LTP140	ltpFR	19	8	0	QUILT	1151	n/a	n/a	1	0.422607421875	0.5869140625	0	lower	amplitud.ttf
1072013	WORD	wordpools/wasnorm_wordpool.txt	LTP140	ltpFR	19	8	0	ESSAY	540	n/a	n/a	0	0.422607421875	0.5869140625	0	lower	amplitud.ttf
1075828	WORD	wordpools/wasnorm_wordpool.txt	LTP140	ltpFR	19	8	0	CAP	236	n/a	n/a	0	0.422607421875	0.5869140625	0	lower	amplitud.ttf
1079977	WORD	wordpools/wasnorm_wordpool.txt	LTP140	ltpFR	19	8	0	BASEBALL	93	n/a	n/a	0	0.422607421875	0.5869140625	0	lower	amplitud.ttf
1083934	WORD	wordpools/wasnorm_wordpool.txt	LTP140	ltpFR	19	8	0	DEPARTMENT	449	n/a	n/a	1	0.422607421875	0.5869140625	0	lower	amplitud.ttf
1088091	WORD	wordpools/wasnorm_wordpool.txt	LTP140	ltpFR	19	8	0	PAWN	1030	n/a	n/a	0	0.422607421875	0.5869140625	0	lower	amplitud.ttf
1092039	WORD	wordpools/wasnorm_wordpool.txt	LTP140	ltpFR	19	8	0	MOUSE	925	n/a	n/a	0	0.422607421875	0.5869140625	0	lower	amplitud.ttf
1096171	WORD	wordpools/wasnorm_wordpool.txt	LTP140	ltpFR	19	8	0	SHOVEL	1295	n/a	n/a	1	0.422607421875	0.5869140625	0	lower	amplitud.ttf
1100095	WORD	wordpools/wasnorm_wordpool.txt	LTP140	ltpFR	19	8	0	LIST	830	n/a	n/a	0	0.422607421875	0.5869140625	0	lower	amplitud.ttf
1104160	WORD	wordpools/wasnorm_wordpool.txt	LTP140	ltpFR	19	8	0	NEUTRON	947	n/a	n/a	0	0.422607421875	0.5869140625	0	lower	amplitud.ttf
1108067	WORD	wordpools/wasnorm_wordpool.txt	LTP140	ltpFR	19	8	0	HOE	711	n/a	n/a	1	0.422607421875	0.5869140625	0	lower	amplitud.ttf
1112032	WORD	wordpools/wasnorm_wordpool.txt	LTP140	ltpFR	19	8	0	MOTEL	919	n/a	n/a	1	0.422607421875	0.5869140625	0	lower	amplitud.ttf
1115864	WORD	wordpools/wasnorm_wordpool.txt	LTP140	ltpFR	19	8	0	MECHANIC	884	n/a	n/a	1	0.422607421875	0.5869140625	0	lower	amplitud.ttf
1119697	WORD	wordpools/wasnorm_wordpool.txt	LTP140	ltpFR	19	8	0	HOOD	714	n/a	n/a	1	0.422607421875	0.5869140625	0	lower	amplitud.ttf
1123603	WORD	wordpools/wasnorm_wordpool.txt	LTP140	ltpFR	19	8	0	CABIN	211	n/a	n/a	1	0.422607421875	0.5869140625	0	lower	amplitud.ttf
1129610	REC_START	n/a	LTP140	ltpFR	19	8	n/a	n/a	n/a	n/a	n/a	n/a	n/a	n/a	n/a	n/a	n/a
1130089	REC_WORD	wordpools/wasnorm_wordpool.txt	LTP140	ltpFR	19	8	0	CABIN	211	n/a	n/a	1	n/a	n/a	n/a	n/a	n/a
1131077	REC_WORD	wordpools/wasnorm_wordpool.txt	LTP140	ltpFR	19	8	0	HOOD	714	n/a	n/a	1	n/a	n/a	n/a	n/a	n/a
1133022	REC_WORD	wordpools/wasnorm_wordpool.txt	LTP140	ltpFR	19	8	0	FOREST	593	n/a	n/a	1	n/a	n/a	n/a	n/a	n/a
1133990	REC_WORD	wordpools/wasnorm_wordpool.txt	LTP140	ltpFR	19	8	0	MOTEL	919	n/a	n/a	1	n/a	n/a	n/a	n/a	n/a
1135297	REC_WORD	wordpools/wasnorm_wordpool.txt	LTP140	ltpFR	19	8	0	HOE	711	n/a	n/a	1	n/a	n/a	n/a	n/a	n/a
1136125	REC_WORD	wordpools/wasnorm_wordpool.txt	LTP140	ltpFR	19	8	0	SHOVEL	1295	n/a	n/a	1	n/a	n/a	n/a	n/a	n/a
1139747	REC_WORD	wordpools/wasnorm_wordpool.txt	LTP140	ltpFR	19	8	0	MOUSE	925	n/a	n/a	0	n/a	n/a	n/a	n/a	n/a
1141313	REC_WORD	wordpools/wasnorm_wordpool.txt	LTP140	ltpFR	19	8	0	PAWN	1030	n/a	n/a	0	n/a	n/a	n/a	n/a	n/a
1173759	REC_WORD	wordpools/wasnorm_wordpool.txt	LTP140	ltpFR	19	8	n/a	CHESS	294	n/a	n/a	n/a	n/a	n/a	n/a	n/a	n/a
1222551	WORD	wordpools/wasnorm_wordpool.txt	LTP140	ltpFR	19	9	1	GOLD	647	n/a	n/a	0	0.57763671875	0.412841796875	1	upper	zerothre.ttf
1226375	WORD	wordpools/wasnorm_wordpool.txt	LTP140	ltpFR	19	9	1	NECKLACE	940	n/a	n/a	0	0.57763671875	0.412841796875	1	upper	zerothre.ttf
1230315	WORD	wordpools/wasnorm_wordpool.txt	LTP140	ltpFR	19	9	1	BLADE	134	n/a	n/a	0	0.57763671875	0.412841796875	1	upper	zerothre.ttf
1234247	WORD	wordpools/wasnorm_wordpool.txt	LTP140	ltpFR	19	9	1	PORCUPINE	1107	n/a	n/a	1	0.57763671875	0.412841796875	1	upper	zerothre.ttf
1238254	WORD	wordpools/wasnorm_wordpool.txt	LTP140	ltpFR	19	9	1	TANK	1432	n/a	n/a	0	0.57763671875	0.412841796875	1	upper	zerothre.ttf
1242261	WORD	wordpools/wasnorm_wordpool.txt	LTP140	ltpFR	19	9	1	BARRACUDA	90	n/a	n/a	1	0.57763671875	0.412841796875	1	upper	zerothre.ttf
1246126	WORD	wordpools/wasnorm_wordpool.txt	LTP140	ltpFR	19	9	1	SPONGE	1355	n/a	n/a	0	0.57763671875	0.412841796875	1	upper	zerothre.ttf
1250041	WORD	wordpools/wasnorm_wordpool.txt	LTP140	ltpFR	19	9	1	HAMBURGER	679	n/a	n/a	0	0.57763671875	0.412841796875	1	upper	zerothre.ttf
1254015	WORD	wordpools/wasnorm_wordpool.txt	LTP140	ltpFR	19	9	1	HOSPITAL	721	n/a	n/a	0	0.57763671875	0.412841796875	1	upper	zerothre.ttf
1258039	WORD	wordpools/wasnorm_wordpool.txt	LTP140	ltpFR	19	9	1	RELATIVE	1182	n/a	n/a	1	0.57763671875	0.412841796875	1	upper	zerothre.ttf
1262029	WORD	wordpools/wasnorm_wordpool.txt	LTP140	ltpFR	19	9	1	WAIST	1579	n/a	n/a	1	0.57763671875	0.412841796875	1	upper	zerothre.ttf
1265986	WORD	wordpools/wasnorm_wordpool.txt	LTP140	ltpFR	19	9	1	SKATE	1313	n/a	n/a	0	0.57763671875	0.412841796875	1	upper	zerothre.ttf
1270009	WORD	wordpools/wasnorm_wordpool.txt	LTP140	ltpFR	19	9	1	DOCTOR	478	n/a	n/a	1	0.57763671875	0.412841796875	1	upper	zerothre.ttf
1274199	WORD	wordpools/wasnorm_wordpool.txt	LTP140	ltpFR	19	9	1	FAMILY	550	n/a	n/a	1	0.57763671875	0.412841796875	1	upper	zerothre.ttf
1278115	WORD	wordpools/wasnorm_wordpool.txt	LTP140	ltpFR	19	9	1	SNOB	1335	n/a	n/a	1	0.57763671875	0.412841796875	1	upper	zerothre.ttf
1282097	WORD	wordpools/wasnorm_wordpool.txt	LTP140	ltpFR	19	9	1	DICE	461	n/a	n/a	0	0.57763671875	0.412841796875	1	upper	zerothre.ttf
1287787	REC_START	n/a	LTP140	ltpFR	19	9	n/a	n/a	n/a	n/a	n/a	n/a	n/a	n/a	n/a	n/a	n/a
1288261	REC_WORD	wordpools/wasnorm_wordpool.txt	LTP140	ltpFR	19	9	1	DICE	461	n/a	n/a	0	n/a	n/a	n/a	n/a	n/a
1289023	REC_WORD	wordpools/wasnorm_wordpool.txt	LTP140	ltpFR	19	9	1	SNOB	1335	n/a	n/a	1	n/a	n/a	n/a	n/a	n/a
1290461	REC_WORD	wordpools/wasnorm_wordpool.txt	LTP140	ltpFR	19	9	1	FAMILY	550	n/a	n/a	1	n/a	n/a	n/a	n/a	n/a
1291461	REC_WORD_VV	wordpools/wasnorm_wordpool.txt	LTP140	ltpFR	19	9	n/a	<>	-1	n/a	n/a	n/a	n/a	n/a	n/a	n/a	n/a
1292112	REC_WORD	wordpools/wasnorm_wordpool.txt	LTP140	ltpFR	19	9	1	DOCTOR	478	n/a	n/a	1	n/a	n/a	n/a	n/a	n/a
1293629	REC_WORD	wordpools/wasnorm_wordpool.txt	LTP140	ltpFR	19	9	1	WAIST	1579	n/a	n/a	1	n/a	n/a	n/a	n/a	n/a
1294731	REC_WORD	wordpools/wasnorm_wordpool.txt	LTP140	ltpFR	19	9	1	SKATE	1313	n/a	n/a	0	n/a	n/a	n/a	n/a	n/a
1296232	REC_WORD	wordpools/wasnorm_wordpool.txt	LTP140	ltpFR	19	9	n/a	RAY	-1	n/a	n/a	n/a	n/a	n/a	n/a	n/a	n/a
1301536	REC_WORD	wordpools/wasnorm_wordpool.txt	LTP140	ltpFR	19	9	1	GOLD	647	n/a	n/a	0	n/a	n/a	n/a	n/a	n/a
1303716	REC_WORD	wordpools/wasnorm_wordpool.txt	LTP140	ltpFR	19	9	1	BLADE	134	n/a	n/a	0	n/a	n/a	n/a	n/a	n/a
1309068	REC_WORD	wordpools/wasnorm_wordpool.txt	LTP140	ltpFR	19	9	1	TANK	1432	n/a	n/a	0	n/a	n/a	n/a	n/a	n/a
1309941	REC_WORD	wordpools/wasnorm_wordpool.txt	LTP140	ltpFR	19	9	1	BARRACUDA	90	n/a	n/a	1	n/a	n/a	n/a	n/a	n/a
1314147	REC_WORD	wordpools/wasnorm_wordpool.txt	LTP140	ltpFR	19	9	1	PORCUPINE	1107	n/a	n/a	1	n/a	n/a	n/a	n/a	n/a
1316502	REC_WORD	wordpools/wasnorm_wordpool.txt	LTP140	ltpFR	19	9	n/a	HEDGEHOG	-1	n/a	n/a	n/a	n/a	n/a	n/a	n/a	n/a
1319215	REC_WORD	wordpools/wasnorm_wordpool.txt	LTP140	ltpFR	19	9	n/a	DESERT	-1	n/a	n/a	n/a	n/a	n/a	n/a	n/a	n/a
1348893	REC_WORD	wordpools/wasnorm_wordpool.txt	LTP140	ltpFR	19	9	1	HOSPITAL	721	n/a	n/a	0	n/a	n/a	n/a	n/a	n/a
1365800	WORD	wordpools/wasnorm_wordpool.txt	LTP140	ltpFR	19	10	-1	HANDBAG	684	n/a	n/a	-1	1.0	1.0	1	upper	Verdana.ttf
1369757	WORD	wordpools/wasnorm_wordpool.txt	LTP140	ltpFR	19	10	-1	KANGAROO	768	n/a	n/a	-1	1.0	1.0	1	upper	Verdana.ttf
1373698	WORD	wordpools/wasnorm_wordpool.txt	LTP140	ltpFR	19	10	-1	SHIRT	1287	n/a	n/a	-1	1.0	1.0	1	upper	Verdana.ttf
1377829	WORD	wordpools/wasnorm_wordpool.txt	LTP140	ltpFR	19	10	-1	FIELD	562	n/a	n/a	-1	1.0	1.0	1	upper	Verdana.ttf
1381861	WORD	wordpools/wasnorm_wordpool.txt	LTP140	ltpFR	19	10	-1	PEBBLE	1035	n/a	n/a	-1	1.0	1.0	1	upper	Verdana.ttf
1386010	WORD	wordpools/wasnorm_wordpool.txt	LTP140	ltpFR	19	10	-1	THESAURUS	1454	n/a	n/a	-1	1.0	1.0	1	upper	Verdana.ttf
1390217	WORD	wordpools/wasnorm_wordpool.txt	LTP140	ltpFR	19	10	-1	TROUSERS	1510	n/a	n/a	-1	1.0	1.0	1	upper	Verdana.ttf
1394107	WORD	wordpools/wasnorm_wordpool.txt	LTP140	ltpFR	19	10	-1	CORN	381	n/a	n/a	-1	1.0	1.0	1	upper	Verdana.ttf
1398064	WORD	wordpools/wasnorm_wordpool.txt	LTP140	ltpFR	19	10	-1	CROWN	415	n/a	n/a	-1	1.0	1.0	1	upper	Verdana.ttf
1402212	WORD	wordpools/wasnorm_wordpool.txt	LTP140	ltpFR	19	10	-1	FLASK	576	n/a	n/a	-1	1.0	1.0	1	upper	Verdana.ttf
1406294	WORD	wordpools/wasnorm_wordpool.txt	LTP140	ltpFR	19	10	-1	BOMB	147	n/a	n/a	-1	1.0	1.0	1	upper	Verdana.ttf
1410443	WORD	wordpools/wasnorm_wordpool.txt	LTP140	ltpFR	19	10	-1	DYNAMITE	511	n/a	n/a	-1	1.0	1.0	1	upper	Verdana.ttf
1414333	WORD	wordpools/wasnorm_wordpool.txt	LTP140	ltpFR	19	10	-1	LAGOON	795	n/a	n/a	-1	1.0	1.0	1	upper	Verdana.ttf
1418407	WORD	wordpools/wasnorm_wordpool.txt	LTP140	ltpFR	19	10	-1	JUVENILE	767	n/a	n/a	-1	1.0	1.0	1	upper	Verdana.ttf
1422547	WORD	wordpools/wasnorm_wordpool.txt	LTP140	ltpFR	19	10	-1	CONVICT	371	n/a	n/a	-1	1.0	1.0	1	upper	Verdana.ttf
1426545	WORD	wordpools/wasnorm_wordpool.txt	LTP140	ltpFR	19	10	-1	POPCORN	1104	n/a	n/a	-1	1.0	1.0	1	upper	Verdana.ttf
1432444	REC_START	n/a	LTP140	ltpFR	19	10	n/a	n/a	n/a	n/a	n/a	n/a	n/a	n/a	n/a	n/a	n/a
1432898	REC_WORD	wordpools/wasnorm_wordpool.txt	LTP140	ltpFR	19	10	-1	POPCORN	1104	n/a	n/a	-1	n/a	n/a	n/a	n/a	n/a
1433821	REC_WORD	wordpools/wasnorm_wordpool.txt	LTP140	ltpFR	19	10	-1	CONVICT	371	n/a	n/a	-1	n/a	n/a	n/a	n/a	n/a
1434774	REC_WORD	wordpools/wasnorm_wordpool.txt	LTP140	ltpFR	19	10	n/a	JAIL	-1	n/a	n/a	n/a	n/a	n/a	n/a	n/a	n/a
1435572	REC_WORD	wordpools/wasnorm_wordpool.txt	LTP140	ltpFR	19	10	n/a	MOVIE	927	n/a	n/a	n/a	n/a	n/a	n/a	n/a	n/a
1437881	REC_WORD	wordpools/wasnorm_wordpool.txt	LTP140	ltpFR	19	10	-1	JUVENILE	767	n/a	n/a	-1	n/a	n/a	n/a	n/a	n/a
1439149	REC_WORD	wordpools/wasnorm_wordpool.txt	LTP140	ltpFR	19	10	-1	DYNAMITE	511	n/a	n/a	-1	n/a	n/a	n/a	n/a	n/a
1440061	REC_WORD	wordpools/wasnorm_wordpool.txt	LTP140	ltpFR	19	10	-1	LAGOON	795	n/a	n/a	-1	n/a	n/a	n/a	n/a	n/a
1441309	REC_WORD	wordpools/wasnorm_wordpool.txt	LTP140	ltpFR	19	10	-1	BOMB	147	n/a	n/a	-1	n/a	n/a	n/a	n/a	n/a
1444721	REC_WORD	wordpools/wasnorm_wordpool.txt	LTP140	ltpFR	19	10	-1	KANGAROO	768	n/a	n/a	-1	n/a	n/a	n/a	n/a	n/a
1446132	REC_WORD	wordpools/wasnorm_wordpool.txt	LTP140	ltpFR	19	10	-1	FIELD	562	n/a	n/a	-1	n/a	n/a	n/a	n/a	n/a
1448028	REC_WORD	wordpools/wasnorm_wordpool.txt	LTP140	ltpFR	19	10	-1	SHIRT	1287	n/a	n/a	-1	n/a	n/a	n/a	n/a	n/a
1449310	REC_WORD	wordpools/wasnorm_wordpool.txt	LTP140	ltpFR	19	10	-1	PEBBLE	1035	n/a	n/a	-1	n/a	n/a	n/a	n/a	n/a
1450832	REC_WORD	wordpools/wasnorm_wordpool.txt	LTP140	ltpFR	19	10	n/a	ROCK	1201	n/a	n/a	n/a	n/a	n/a	n/a	n/a	n/a
1457791	REC_WORD	wordpools/wasnorm_wordpool.txt	LTP140	ltpFR	19	10	-1	HANDBAG	684	n/a	n/a	-1	n/a	n/a	n/a	n/a	n/a
1459168	REC_WORD	wordpools/wasnorm_wordpool.txt	LTP140	ltpFR	19	10	-1	PURSE	1145	n/a	n/a	-1	n/a	n/a	n/a	n/a	n/a
1466511	REC_WORD	wordpools/wasnorm_wordpool.txt	LTP140	ltpFR	19	10	-1	SHIRT	1287	n/a	n/a	-1	n/a	n/a	n/a	n/a	n/a
1471011	REC_WORD	wordpools/wasnorm_wordpool.txt	LTP140	ltpFR	19	10	-1	TROUSERS	1510	n/a	n/a	-1	n/a	n/a	n/a	n/a	n/a
1517706	WORD	wordpools/wasnorm_wordpool.txt	LTP140	ltpFR	19	11	0	SACK	1220	n/a	n/a	1	0.422607421875	0.5869140625	0	lower	amplitud.ttf
1521862	WORD	wordpools/wasnorm_wordpool.txt	LTP140	ltpFR	19	11	0	CAFETERIA	217	n/a	n/a	1	0.422607421875	0.5869140625	0	lower	amplitud.ttf
1525927	WORD	wordpools/wasnorm_wordpool.txt	LTP140	ltpFR	19	11	0	TURKEY	1520	n/a	n/a	1	0.422607421875	0.5869140625	0	lower	amplitud.ttf
1530000	WORD	wordpools/wasnorm_wordpool.txt	LTP140	ltpFR	19	11	0	DETERGENT	455	n/a	n/a	0	0.422607421875	0.5869140625	0	lower	amplitud.ttf
1534065	WORD	wordpools/wasnorm_wordpool.txt	LTP140	ltpFR	19	11	0	PUBLICATION	1136	n/a	n/a	0	0.422607421875	0.5869140625	0	lower	amplitud.ttf
1538022	WORD	wordpools/wasnorm_wordpool.txt	LTP140	ltpFR	19	11	0	TOWER	1490	n/a	n/a	1	0.422607421875	0.5869140625	0	lower	amplitud.ttf
1542029	WORD	wordpools/wasnorm_wordpool.txt	LTP140	ltpFR	19	11	0	SOAP	1337	n/a	n/a	0	0.422607421875	0.5869140625	0	lower	amplitud.ttf
1545936	WORD	wordpools/wasnorm_wordpool.txt	LTP140	ltpFR	19	11	0	APPENDAGE	32	n/a	n/a	1	0.422607421875	0.5869140625	0	lower	amplitud.ttf
1549877	WORD	wordpools/wasnorm_wordpool.txt	LTP140	ltpFR	19	11	0	DUST	508	n/a	n/a	0	0.422607421875	0.5869140625	0	lower	amplitud.ttf
1553792	WORD	wordpools/wasnorm_wordpool.txt	LTP140	ltpFR	19	11	0	BRAKE	166	n/a	n/a	1	0.422607421875	0.5869140625	0	lower	amplitud.ttf
1557832	WORD	wordpools/wasnorm_wordpool.txt	LTP140	ltpFR	19	11	0	NOVEL	960	n/a	n/a	0	0.422607421875	0.5869140625	0	lower	amplitud.ttf
1561806	WORD	wordpools/wasnorm_wordpool.txt	LTP140	ltpFR	19	11	0	BUILDER	190	n/a	n/a	1	0.422607421875	0.5869140625	0	lower	amplitud.ttf
1565912	WORD	wordpools/wasnorm_wordpool.txt	LTP140	ltpFR	19	11	0	HANDKERCHIEF	686	n/a	n/a	0	0.422607421875	0.5869140625	0	lower	amplitud.ttf
1570094	WORD	wordpools/wasnorm_wordpool.txt	LTP140	ltpFR	19	11	0	GERM	632	n/a	n/a	0	0.422607421875	0.5869140625	0	lower	amplitud.ttf
1573985	WORD	wordpools/wasnorm_wordpool.txt	LTP140	ltpFR	19	11	0	COLESLAW	344	n/a	n/a	0	0.422607421875	0.5869140625	0	lower	amplitud.ttf
1578141	WORD	wordpools/wasnorm_wordpool.txt	LTP140	ltpFR	19	11	0	RIB	1188	n/a	n/a	0	0.422607421875	0.5869140625	0	lower	amplitud.ttf
1584082	REC_START	n/a	LTP140	ltpFR	19	11	n/a	n/a	n/a	n/a	n/a	n/a	n/a	n/a	n/a	n/a	n/a
1584940	REC_WORD	wordpools/wasnorm_wordpool.txt	LTP140	ltpFR	19	11	0	RIB	1188	n/a	n/a	0	n/a	n/a	n/a	n/a	n/a
1585937	REC_WORD	wordpools/wasnorm_wordpool.txt	LTP140	ltpFR	19	11	0	COLESLAW	344	n/a	n/a	0	n/a	n/a	n/a	n/a	n/a
1587120	REC_WORD	wordpools/wasnorm_wordpool.txt	LTP140	ltpFR	19	11	n/a	BARBECUE	-1	n/a	n/a	n/a	n/a	n/a	n/a	n/a	n/a
1589943	REC_WORD	wordpools/wasnorm_wordpool.txt	LTP140	ltpFR	19	11	0	GERM	632	n/a	n/a	0	n/a	n/a	n/a	n/a	n/a
1590866	REC_WORD	wordpools/wasnorm_wordpool.txt	LTP140	ltpFR	19	11	0	HANDKERCHIEF	686	n/a	n/a	0	n/a	n/a	n/a	n/a	n/a
1603338	REC_WORD	wordpools/wasnorm_wordpool.txt	LTP140	ltpFR	19	11	0	SACK	1220	n/a	n/a	1	n/a	n/a	n/a	n/a	n/a
1605219	REC_WORD	wordpools/wasnorm_wordpool.txt	LTP140	ltpFR	19	11	0	CAFETERIA	217	n/a	n/a	1	n/a	n/a	n/a	n/a	n/a
1606366	REC_WORD	wordpools/wasnorm_wordpool.txt	LTP140	ltpFR	19	11	0	TURKEY	1520	n/a	n/a	1	n/a	n/a	n/a	n/a	n/a
1608017	REC_WORD	wordpools/wasnorm_wordpool.txt	LTP140	ltpFR	19	11	n/a	CHICKEN	297	n/a	n/a	n/a	n/a	n/a	n/a	n/a	n/a
1608900	REC_WORD	wordpools/wasnorm_wordpool.txt	LTP140	ltpFR	19	11	0	DETERGENT	455	n/a	n/a	0	n/a	n/a	n/a	n/a	n/a
1610083	REC_WORD	wordpools/wasnorm_wordpool.txt	LTP140	ltpFR	19	11	n/a	BENCH	121	n/a	n/a	n/a	n/a	n/a	n/a	n/a	n/a
1611619	REC_WORD	wordpools/wasnorm_wordpool.txt	LTP140	ltpFR	19	11	0	SOAP	1337	n/a	n/a	0	n/a	n/a	n/a	n/a	n/a
1621322	REC_WORD	wordpools/wasnorm_wordpool.txt	LTP140	ltpFR	19	11	n/a	WATER	1594	n/a	n/a	n/a	n/a	n/a	n/a	n/a	n/a
1661862	WORD	wordpools/wasnorm_wordpool.txt	LTP140	ltpFR	19	12	0	ATTIRE	57	n/a	n/a	1	0.422607421875	0.5869140625	0	lower	amplitud.ttf
1665844	WORD	wordpools/wasnorm_wordpool.txt	LTP140	ltpFR	19	12	0	RECORD	1176	n/a	n/a	1	0.422607421875	0.5869140625	0	lower	amplitud.ttf
1669776	WORD	wordpools/wasnorm_wordpool.txt	LTP140	ltpFR	19	12	1	ULCER	1533	n/a	n/a	0	0.57763671875	0.412841796875	1	upper	zerothre.ttf
1673891	WORD	wordpools/wasnorm_wordpool.txt	LTP140	ltpFR	19	12	1	STOMACH	1384	n/a	n/a	1	0.57763671875	0.412841796875	1	upper	zerothre.ttf
1677831	WORD	wordpools/wasnorm_wordpool.txt	LTP140	ltpFR	19	12	1	COACH	331	n/a	n/a	0	0.57763671875	0.412841796875	1	upper	zerothre.ttf
1681996	WORD	wordpools/wasnorm_wordpool.txt	LTP140	ltpFR	19	12	1	COUNTRY	388	n/a	n/a	0	0.57763671875	0.412841796875	1	upper	zerothre.ttf
1686153	WORD	wordpools/wasnorm_wordpool.txt	LTP140	ltpFR	19	12	0	TERRITORY	1452	n/a	n/a	1	0.422607421875	0.5869140625	0	lower	amplitud.ttf
1690252	WORD	wordpools/wasnorm_wordpool.txt	LTP140	ltpFR	19	12	0	AFRICA	9	n/a	n/a	1	0.422607421875	0.5869140625	0	lower	amplitud.ttf
1694184	WORD	wordpools/wasnorm_wordpool.txt	LTP140	ltpFR	19	12	1	FLOWER	584	n/a	n/a	1	0.57763671875	0.412841796875	1	upper	zerothre.ttf
1698174	WORD	wordpools/wasnorm_wordpool.txt	LTP140	ltpFR	19	12	1	SCENERY	1247	n/a	n/a	0	0.57763671875	0.412841796875	1	upper	zerothre.ttf
1702381	WORD	wordpools/wasnorm_wordpool.txt	LTP140	ltpFR	19	12	1	TELEPHONE	1445	n/a	n/a	0	0.57763671875	0.412841796875	1	upper	zerothre.ttf
1706496	WORD	wordpools/wasnorm_wordpool.txt	LTP140	ltpFR	19	12	1	BOOTH	151	n/a	n/a	0	0.57763671875	0.412841796875	1	upper	zerothre.ttf
1710586	WORD	wordpools/wasnorm_wordpool.txt	LTP140	ltpFR	19	12	0	CHIEF	298	n/a	n/a	1	0.422607421875	0.5869140625	0	lower	amplitud.ttf
1714785	WORD	wordpools/wasnorm_wordpool.txt	LTP140	ltpFR	19	12	0	WORM	1623	n/a	n/a	0	0.422607421875	0.5869140625	0	lower	amplitud.ttf
1718966	WORD	wordpools/wasnorm_wordpool.txt	LTP140	ltpFR	19	12	0	BASKETBALL	96	n/a	n/a	1	0.422607421875	0.5869140625	0	lower	amplitud.ttf
1722932	WORD	wordpools/wasnorm_wordpool.txt	LTP140	ltpFR	19	12	0	UNIFORM	1539	n/a	n/a	1	0.422607421875	0.5869140625	0	lower	amplitud.ttf
1728657	REC_START	n/a	LTP140	ltpFR	19	12	n/a	n/a	n/a	n/a	n/a	n/a	n/a	n/a	n/a	n/a	n/a
1729240	REC_WORD	wordpools/wasnorm_wordpool.txt	LTP140	ltpFR	19	12	0	UNIFORM	1539	n/a	n/a	1	n/a	n/a	n/a	n/a	n/a
1730283	REC_WORD	wordpools/wasnorm_wordpool.txt	LTP140	ltpFR	19	12	0	BASKETBALL	96	n/a	n/a	1	n/a	n/a	n/a	n/a	n/a
1731276	REC_WORD	wordpools/wasnorm_wordpool.txt	LTP140	ltpFR	19	12	0	CHIEF	298	n/a	n/a	1	n/a	n/a	n/a	n/a	n/a
1732353	REC_WORD	wordpools/wasnorm_wordpool.txt	LTP140	ltpFR	19	12	n/a	VILLAGE	1566	n/a	n/a	n/a	n/a	n/a	n/a	n/a	n/a
1733531	REC_WORD	wordpools/wasnorm_wordpool.txt	LTP140	ltpFR	19	12	0	AFRICA	9	n/a	n/a	1	n/a	n/a	n/a	n/a	n/a
1734523	REC_WORD	wordpools/wasnorm_wordpool.txt	LTP140	ltpFR	19	12	0	TERRITORY	1452	n/a	n/a	1	n/a	n/a	n/a	n/a	n/a
1736679	REC_WORD	wordpools/wasnorm_wordpool.txt	LTP140	ltpFR	19	12	1	COUNTRY	388	n/a	n/a	0	n/a	n/a	n/a	n/a	n/a
1744860	REC_WORD	wordpools/wasnorm_wordpool.txt	LTP140	ltpFR	19	12	0	UNIFORM	1539	n/a	n/a	1	n/a	n/a	n/a	n/a	n/a
1763657	REC_WORD	wordpools/wasnorm_wordpool.txt	LTP140	ltpFR	19	12	n/a	DOCUMENT	479	n/a	n/a	n/a	n/a	n/a	n/a	n/a	n/a
1766201	REC_WORD	wordpools/wasnorm_wordpool.txt	LTP140	ltpFR	19	12	0	RECORD	1176	n/a	n/a	1	n/a	n/a	n/a	n/a	n/a
1768666	REC_WORD	wordpools/wasnorm_wordpool.txt	LTP140	ltpFR	19	12	0	ATTIRE	57	n/a	n/a	1	n/a	n/a	n/a	n/a	n/a
1776388	REC_WORD	wordpools/wasnorm_wordpool.txt	LTP140	ltpFR	19	12	1	STOMACH	1384	n/a	n/a	1	n/a	n/a	n/a	n/a	n/a
1788516	REC_WORD	wordpools/wasnorm_wordpool.txt	LTP140	ltpFR	19	12	n/a	GROUND	666	n/a	n/a	n/a	n/a	n/a	n/a	n/a	n/a
1804244	REST_REWET	n/a	LTP140	ltpFR	19	12	n/a	n/a	n/a	n/a	n/a	n/a	n/a	n/a	n/a	n/a	n/a
2177420	WORD	wordpools/wasnorm_wordpool.txt	LTP140	ltpFR	19	13	-1	CEILING	265	n/a	n/a	-1	1.0	1.0	1	upper	Verdana.ttf
2181410	WORD	wordpools/wasnorm_wordpool.txt	LTP140	ltpFR	19	13	-1	GROUND	666	n/a	n/a	-1	1.0	1.0	1	upper	Verdana.ttf
2185451	WORD	wordpools/wasnorm_wordpool.txt	LTP140	ltpFR	19	13	-1	VENUS	1557	n/a	n/a	-1	1.0	1.0	1	upper	Verdana.ttf
2189433	WORD	wordpools/wasnorm_wordpool.txt	LTP140	ltpFR	19	13	-1	SQUIRREL	1362	n/a	n/a	-1	1.0	1.0	1	upper	Verdana.ttf
2193564	WORD	wordpools/wasnorm_wordpool.txt	LTP140	ltpFR	19	13	-1	KING	777	n/a	n/a	-1	1.0	1.0	1	upper	Verdana.ttf
2197722	WORD	wordpools/wasnorm_wordpool.txt	LTP140	ltpFR	19	13	-1	DESSERT	453	n/a	n/a	-1	1.0	1.0	1	upper	Verdana.ttf
2201570	WORD	wordpools/wasnorm_wordpool.txt	LTP140	ltpFR	19	13	-1	GLACIER	638	n/a	n/a	-1	1.0	1.0	1	upper	Verdana.ttf
2205435	WORD	wordpools/wasnorm_wordpool.txt	LTP140	ltpFR	19	13	-1	PEDAL	1037	n/a	n/a	-1	1.0	1.0	1	upper	Verdana.ttf
2209326	WORD	wordpools/wasnorm_wordpool.txt	LTP140	ltpFR	19	13	-1	PECAN	1036	n/a	n/a	-1	1.0	1.0	1	upper	Verdana.ttf
2213416	WORD	wordpools/wasnorm_wordpool.txt	LTP140	ltpFR	19	13	-1	CHIP	303	n/a	n/a	-1	1.0	1.0	1	upper	Verdana.ttf
2217506	WORD	wordpools/wasnorm_wordpool.txt	LTP140	ltpFR	19	13	-1	OVEN	991	n/a	n/a	-1	1.0	1.0	1	upper	Verdana.ttf
2221480	WORD	wordpools/wasnorm_wordpool.txt	LTP140	ltpFR	19	13	-1	RECIPE	1175	n/a	n/a	-1	1.0	1.0	1	upper	Verdana.ttf
2225470	WORD	wordpools/wasnorm_wordpool.txt	LTP140	ltpFR	19	13	-1	DAISY	435	n/a	n/a	-1	1.0	1.0	1	upper	Verdana.ttf
2229393	WORD	wordpools/wasnorm_wordpool.txt	LTP140	ltpFR	19	13	-1	MOP	916	n/a	n/a	-1	1.0	1.0	1	upper	Verdana.ttf
2233517	WORD	wordpools/wasnorm_wordpool.txt	LTP140	ltpFR	19	13	-1	DILL	465	n/a	n/a	-1	1.0	1.0	1	upper	Verdana.ttf
2237357	WORD	wordpools/wasnorm_wordpool.txt	LTP140	ltpFR	19	13	-1	SALAD	1224	n/a	n/a	-1	1.0	1.0	1	upper	Verdana.ttf
2243264	REC_START	n/a	LTP140	ltpFR	19	13	n/a	n/a	n/a	n/a	n/a	n/a	n/a	n/a	n/a	n/a	n/a
2243663	REC_WORD	wordpools/wasnorm_wordpool.txt	LTP140	ltpFR	19	13	-1	SALAD	1224	n/a	n/a	-1	n/a	n/a	n/a	n/a	n/a
2244725	REC_WORD	wordpools/wasnorm_wordpool.txt	LTP140	ltpFR	19	13	-1	DILL	465	n/a	n/a	-1	n/a	n/a	n/a	n/a	n/a
2245843	REC_WORD	wordpools/wasnorm_wordpool.txt	LTP140	ltpFR	19	13	-1	MOP	916	n/a	n/a	-1	n/a	n/a	n/a	n/a	n/a
2246930	REC_WORD	wordpools/wasnorm_wordpool.txt	LTP140	ltpFR	19	13	-1	DAISY	435	n/a	n/a	-1	n/a	n/a	n/a	n/a	n/a
2247828	REC_WORD	wordpools/wasnorm_wordpool.txt	LTP140	ltpFR	19	13	-1	RECIPE	1175	n/a	n/a	-1	n/a	n/a	n/a	n/a	n/a
2248981	REC_WORD	wordpools/wasnorm_wordpool.txt	LTP140	ltpFR	19	13	-1	OVEN	991	n/a	n/a	-1	n/a	n/a	n/a	n/a	n/a
2250013	REC_WORD	wordpools/wasnorm_wordpool.txt	LTP140	ltpFR	19	13	-1	CHIP	303	n/a	n/a	-1	n/a	n/a	n/a	n/a	n/a
2251609	REC_WORD	wordpools/wasnorm_wordpool.txt	LTP140	ltpFR	19	13	-1	PECAN	1036	n/a	n/a	-1	n/a	n/a	n/a	n/a	n/a
2252832	REC_WORD	wordpools/wasnorm_wordpool.txt	LTP140	ltpFR	19	13	n/a	NUT	965	n/a	n/a	n/a	n/a	n/a	n/a	n/a	n/a
2255666	REC_WORD	wordpools/wasnorm_wordpool.txt	LTP140	ltpFR	19	13	n/a	PIE	1062	n/a	n/a	n/a	n/a	n/a	n/a	n/a	n/a
2258005	REC_WORD	wordpools/wasnorm_wordpool.txt	LTP140	ltpFR	19	13	-1	GLACIER	638	n/a	n/a	-1	n/a	n/a	n/a	n/a	n/a
2259118	REC_WORD	wordpools/wasnorm_wordpool.txt	LTP140	ltpFR	19	13	-1	DESSERT	453	n/a	n/a	-1	n/a	n/a	n/a	n/a	n/a
2261078	REC_WORD	wordpools/wasnorm_wordpool.txt	LTP140	ltpFR	19	13	-1	KING	777	n/a	n/a	-1	n/a	n/a	n/a	n/a	n/a
2262969	REC_WORD	wordpools/wasnorm_wordpool.txt	LTP140	ltpFR	19	13	-1	SQUIRREL	1362	n/a	n/a	-1	n/a	n/a	n/a	n/a	n/a
2264500	REC_WORD	wordpools/wasnorm_wordpool.txt	LTP140	ltpFR	19	13	-1	VENUS	1557	n/a	n/a	-1	n/a	n/a	n/a	n/a	n/a
2266401	REC_WORD	wordpools/wasnorm_wordpool.txt	LTP140	ltpFR	19	13	-1	GROUND	666	n/a	n/a	-1	n/a	n/a	n/a	n/a	n/a
2267353	REC_WORD	wordpools/wasnorm_wordpool.txt	LTP140	ltpFR	19	13	-1	CEILING	265	n/a	n/a	-1	n/a	n/a	n/a	n/a	n/a
2269340	REC_WORD	wordpools/wasnorm_wordpool.txt	LTP140	ltpFR	19	13	0	BASEMENT	94	n/a	n/a	1	n/a	n/a	n/a	n/a	n/a
2273166	REC_WORD	wordpools/wasnorm_wordpool.txt	LTP140	ltpFR	19	13	-1	DILL	465	n/a	n/a	-1	n/a	n/a	n/a	n/a	n/a
2276503	REC_WORD	wordpools/wasnorm_wordpool.txt	LTP140	ltpFR	19	13	-1	SALAD	1224	n/a	n/a	-1	n/a	n/a	n/a	n/a	n/a
2284819	REC_WORD	wordpools/wasnorm_wordpool.txt	LTP140	ltpFR	19	13	-1	MOP	916	n/a	n/a	-1	n/a	n/a	n/a	n/a	n/a
2309443	REC_WORD	wordpools/wasnorm_wordpool.txt	LTP140	ltpFR	19	13	-1	CROWN	415	n/a	n/a	-1	n/a	n/a	n/a	n/a	n/a
2327209	WORD	wordpools/wasnorm_wordpool.txt	LTP140	ltpFR	19	14	1	SHRIMP	1297	n/a	n/a	1	0.57763671875	0.412841796875	1	upper	zerothre.ttf
2331224	WORD	wordpools/wasnorm_wordpool.txt	LTP140	ltpFR	19	14	1	VOLUNTEER	1577	n/a	n/a	1	0.57763671875	0.412841796875	1	upper	zerothre.ttf
2335131	WORD	wordpools/wasnorm_wordpool.txt	LTP140	ltpFR	19	14	1	MACHINE	852	n/a	n/a	0	0.57763671875	0.412841796875	1	upper	zerothre.ttf
2339129	WORD	wordpools/wasnorm_wordpool.txt	LTP140	ltpFR	19	14	1	ASPIRIN	47	n/a	n/a	0	0.57763671875	0.412841796875	1	upper	zerothre.ttf
2343136	WORD	wordpools/wasnorm_wordpool.txt	LTP140	ltpFR	19	14	1	SEA	1259	n/a	n/a	0	0.57763671875	0.412841796875	1	upper	zerothre.ttf
2347035	WORD	wordpools/wasnorm_wordpool.txt	LTP140	ltpFR	19	14	1	CARAVAN	242	n/a	n/a	0	0.57763671875	0.412841796875	1	upper	zerothre.ttf
2351067	WORD	wordpools/wasnorm_wordpool.txt	LTP140	ltpFR	19	14	1	COD	340	n/a	n/a	1	0.57763671875	0.412841796875	1	upper	zerothre.ttf
2355240	WORD	wordpools/wasnorm_wordpool.txt	LTP140	ltpFR	19	14	1	MARINE	869	n/a	n/a	0	0.57763671875	0.412841796875	1	upper	zerothre.ttf
2359381	WORD	wordpools/wasnorm_wordpool.txt	LTP140	ltpFR	19	14	1	CORPORATION	382	n/a	n/a	0	0.57763671875	0.412841796875	1	upper	zerothre.ttf
2363579	WORD	wordpools/wasnorm_wordpool.txt	LTP140	ltpFR	19	14	1	PRESIDENT	1121	n/a	n/a	1	0.57763671875	0.412841796875	1	upper	zerothre.ttf
2367494	WORD	wordpools/wasnorm_wordpool.txt	LTP140	ltpFR	19	14	1	DORM	488	n/a	n/a	0	0.57763671875	0.412841796875	1	upper	zerothre.ttf
2371443	WORD	wordpools/wasnorm_wordpool.txt	LTP140	ltpFR	19	14	1	HALL	677	n/a	n/a	0	0.57763671875	0.412841796875	1	upper	zerothre.ttf
2375358	WORD	wordpools/wasnorm_wordpool.txt	LTP140	ltpFR	19	14	1	PIANO	1057	n/a	n/a	0	0.57763671875	0.412841796875	1	upper	zerothre.ttf
2379299	WORD	wordpools/wasnorm_wordpool.txt	LTP140	ltpFR	19	14	1	CONCERT	360	n/a	n/a	0	0.57763671875	0.412841796875	1	upper	zerothre.ttf
2383497	WORD	wordpools/wasnorm_wordpool.txt	LTP140	ltpFR	19	14	1	STADIUM	1364	n/a	n/a	0	0.57763671875	0.412841796875	1	upper	zerothre.ttf
2387604	WORD	wordpools/wasnorm_wordpool.txt	LTP140	ltpFR	19	14	1	BALL	73	n/a	n/a	0	0.57763671875	0.412841796875	1	upper	zerothre.ttf
2393645	REC_START	n/a	LTP140	ltpFR	19	14	n/a	n/a	n/a	n/a	n/a	n/a	n/a	n/a	n/a	n/a	n/a
2394438	REC_WORD	wordpools/wasnorm_wordpool.txt	LTP140	ltpFR	19	14	1	BALL	73	n/a	n/a	0	n/a	n/a	n/a	n/a	n/a
2395066	REC_WORD	wordpools/wasnorm_wordpool.txt	LTP140	ltpFR	19	14	1	STADIUM	1364	n/a	n/a	0	n/a	n/a	n/a	n/a	n/a
2396458	REC_WORD	wordpools/wasnorm_wordpool.txt	LTP140	ltpFR	19	14	1	CONCERT	360	n/a	n/a	0	n/a	n/a	n/a	n/a	n/a
2397526	REC_WORD	wordpools/wasnorm_wordpool.txt	LTP140	ltpFR	19	14	1	PIANO	1057	n/a	n/a	0	n/a	n/a	n/a	n/a	n/a
2399102	REC_WORD	wordpools/wasnorm_wordpool.txt	LTP140	ltpFR	19	14	1	HALL	677	n/a	n/a	0	n/a	n/a	n/a	n/a	n/a
2400389	REC_WORD	wordpools/wasnorm_wordpool.txt	LTP140	ltpFR	19	14	1	DORM	488	n/a	n/a	0	n/a	n/a	n/a	n/a	n/a
2402215	REC_WORD	wordpools/wasnorm_wordpool.txt	LTP140	ltpFR	19	14	1	PRESIDENT	1121	n/a	n/a	1	n/a	n/a	n/a	n/a	n/a
2403215	REC_WORD_VV	wordpools/wasnorm_wordpool.txt	LTP140	ltpFR	19	14	n/a	<>	-1	n/a	n/a	n/a	n/a	n/a	n/a	n/a	n/a
2404455	REC_WORD	wordpools/wasnorm_wordpool.txt	LTP140	ltpFR	19	14	1	CORPORATION	382	n/a	n/a	0	n/a	n/a	n/a	n/a	n/a
2405872	REC_WORD	wordpools/wasnorm_wordpool.txt	LTP140	ltpFR	19	14	n/a	COMPANY	-1	n/a	n/a	n/a	n/a	n/a	n/a	n/a	n/a
2407404	REC_WORD	wordpools/wasnorm_wordpool.txt	LTP140	ltpFR	19	14	1	COD	340	n/a	n/a	1	n/a	n/a	n/a	n/a	n/a
2408545	REC_WORD	wordpools/wasnorm_wordpool.txt	LTP140	ltpFR	19	14	n/a	FISH	571	n/a	n/a	n/a	n/a	n/a	n/a	n/a	n/a
2411429	REC_WORD	wordpools/wasnorm_wordpool.txt	LTP140	ltpFR	19	14	1	MACHINE	852	n/a	n/a	0	n/a	n/a	n/a	n/a	n/a
2412741	REC_WORD	wordpools/wasnorm_wordpool.txt	LTP140	ltpFR	19	14	1	ASPIRIN	47	n/a	n/a	0	n/a	n/a	n/a	n/a	n/a
2414093	REC_WORD	wordpools/wasnorm_wordpool.txt	LTP140	ltpFR	19	14	1	MARINE	869	n/a	n/a	0	n/a	n/a	n/a	n/a	n/a
2419082	REC_WORD	wordpools/wasnorm_wordpool.txt	LTP140	ltpFR	19	14	1	SEA	1259	n/a	n/a	0	n/a	n/a	n/a	n/a	n/a
2420249	REC_WORD	wordpools/wasnorm_wordpool.txt	LTP140	ltpFR	19	14	1	SHRIMP	1297	n/a	n/a	1	n/a	n/a	n/a	n/a	n/a
2421666	REC_WORD	wordpools/wasnorm_wordpool.txt	LTP140	ltpFR	19	14	1	VOLUNTEER	1577	n/a	n/a	1	n/a	n/a	n/a	n/a	n/a
2422666	REC_WORD_VV	wordpools/wasnorm_wordpool.txt	LTP140	ltpFR	19	14	n/a	<>	-1	n/a	n/a	n/a	n/a	n/a	n/a	n/a	n/a
2423437	REC_WORD	wordpools/wasnorm_wordpool.txt	LTP140	ltpFR	19	14	1	MACHINE	852	n/a	n/a	0	n/a	n/a	n/a	n/a	n/a
2425353	REC_WORD	wordpools/wasnorm_wordpool.txt	LTP140	ltpFR	19	14	n/a	ENGINE	535	n/a	n/a	n/a	n/a	n/a	n/a	n/a	n/a
2428451	REC_WORD	wordpools/wasnorm_wordpool.txt	LTP140	ltpFR	19	14	n/a	WATER	1594	n/a	n/a	n/a	n/a	n/a	n/a	n/a	n/a
2434357	REC_WORD	wordpools/wasnorm_wordpool.txt	LTP140	ltpFR	19	14	1	DORM	488	n/a	n/a	0	n/a	n/a	n/a	n/a	n/a
2471332	WORD	wordpools/wasnorm_wordpool.txt	LTP140	ltpFR	19	15	1	STOVE	1388	n/a	n/a	0	0.57763671875	0.412841796875	1	upper	zerothre.ttf
2475531	WORD	wordpools/wasnorm_wordpool.txt	LTP140	ltpFR	19	15	1	LIBRARY	816	n/a	n/a	0	0.57763671875	0.412841796875	1	upper	zerothre.ttf
2479739	WORD	wordpools/wasnorm_wordpool.txt	LTP140	ltpFR	19	15	0	OCTOPUS	971	n/a	n/a	1	0.422607421875	0.5869140625	0	lower	amplitud.ttf
2483770	WORD	wordpools/wasnorm_wordpool.txt	LTP140	ltpFR	19	15	0	CLAM	315	n/a	n/a	0	0.422607421875	0.5869140625	0	lower	amplitud.ttf
2487926	WORD	wordpools/wasnorm_wordpool.txt	LTP140	ltpFR	19	15	0	HEDGE	699	n/a	n/a	1	0.422607421875	0.5869140625	0	lower	amplitud.ttf
2491933	WORD	wordpools/wasnorm_wordpool.txt	LTP140	ltpFR	19	15	1	FACE	547	n/a	n/a	1	0.57763671875	0.412841796875	1	upper	zerothre.ttf
2496065	WORD	wordpools/wasnorm_wordpool.txt	LTP140	ltpFR	19	15	1	EYELASH	546	n/a	n/a	0	0.57763671875	0.412841796875	1	upper	zerothre.ttf
2500039	WORD	wordpools/wasnorm_wordpool.txt	LTP140	ltpFR	19	15	0	THUMB	1462	n/a	n/a	0	0.422607421875	0.5869140625	0	lower	amplitud.ttf
2504187	WORD	wordpools/wasnorm_wordpool.txt	LTP140	ltpFR	19	15	0	PANTHER	1009	n/a	n/a	1	0.422607421875	0.5869140625	0	lower	amplitud.ttf
2508319	WORD	wordpools/wasnorm_wordpool.txt	LTP140	ltpFR	19	15	0	KITCHEN	778	n/a	n/a	1	0.422607421875	0.5869140625	0	lower	amplitud.ttf
2512235	WORD	wordpools/wasnorm_wordpool.txt	LTP140	ltpFR	19	15	0	PIN	1072	n/a	n/a	0	0.422607421875	0.5869140625	0	lower	amplitud.ttf
2516216	WORD	wordpools/wasnorm_wordpool.txt	LTP140	ltpFR	19	15	0	THERMOMETER	1453	n/a	n/a	0	0.422607421875	0.5869140625	0	lower	amplitud.ttf
2520315	WORD	wordpools/wasnorm_wordpool.txt	LTP140	ltpFR	19	15	1	EWE	542	n/a	n/a	1	0.57763671875	0.412841796875	1	upper	zerothre.ttf
2524297	WORD	wordpools/wasnorm_wordpool.txt	LTP140	ltpFR	19	15	1	ORCHESTRA	981	n/a	n/a	0	0.57763671875	0.412841796875	1	upper	zerothre.ttf
2528362	WORD	wordpools/wasnorm_wordpool.txt	LTP140	ltpFR	19	15	1	SAXOPHONE	1240	n/a	n/a	0	0.57763671875	0.412841796875	1	upper	zerothre.ttf
2532361	WORD	wordpools/wasnorm_wordpool.txt	LTP140	ltpFR	19	15	1	STUMP	1396	n/a	n/a	0	0.57763671875	0.412841796875	1	upper	zerothre.ttf
2538101	REC_START	n/a	LTP140	ltpFR	19	15	n/a	n/a	n/a	n/a	n/a	n/a	n/a	n/a	n/a	n/a	n/a
2538614	REC_WORD	wordpools/wasnorm_wordpool.txt	LTP140	ltpFR	19	15	1	STUMP	1396	n/a	n/a	0	n/a	n/a	n/a	n/a	n/a
2539439	REC_WORD	wordpools/wasnorm_wordpool.txt	LTP140	ltpFR	19	15	1	SAXOPHONE	1240	n/a	n/a	0	n/a	n/a	n/a	n/a	n/a
2540740	REC_WORD	wordpools/wasnorm_wordpool.txt	LTP140	ltpFR	19	15	1	ORCHESTRA	981	n/a	n/a	0	n/a	n/a	n/a	n/a	n/a
2542471	REC_WORD	wordpools/wasnorm_wordpool.txt	LTP140	ltpFR	19	15	1	EWE	542	n/a	n/a	1	n/a	n/a	n/a	n/a	n/a
2543653	REC_WORD	wordpools/wasnorm_wordpool.txt	LTP140	ltpFR	19	15	0	PIN	1072	n/a	n/a	0	n/a	n/a	n/a	n/a	n/a
2546152	REC_WORD	wordpools/wasnorm_wordpool.txt	LTP140	ltpFR	19	15	1	FACE	547	n/a	n/a	1	n/a	n/a	n/a	n/a	n/a
2547275	REC_WORD	wordpools/wasnorm_wordpool.txt	LTP140	ltpFR	19	15	0	KITCHEN	778	n/a	n/a	1	n/a	n/a	n/a	n/a	n/a
2549211	REC_WORD	wordpools/wasnorm_wordpool.txt	LTP140	ltpFR	19	15	0	PANTHER	1009	n/a	n/a	1	n/a	n/a	n/a	n/a	n/a
2551056	REC_WORD	wordpools/wasnorm_wordpool.txt	LTP140	ltpFR	19	15	1	EYELASH	546	n/a	n/a	0	n/a	n/a	n/a	n/a	n/a
2552056	REC_WORD_VV	wordpools/wasnorm_wordpool.txt	LTP140	ltpFR	19	15	n/a	<>	-1	n/a	n/a	n/a	n/a	n/a	n/a	n/a	n/a
2552688	REC_WORD	wordpools/wasnorm_wordpool.txt	LTP140	ltpFR	19	15	0	OCTOPUS	971	n/a	n/a	1	n/a	n/a	n/a	n/a	n/a
2554234	REC_WORD	wordpools/wasnorm_wordpool.txt	LTP140	ltpFR	19	15	1	STUMP	1396	n/a	n/a	0	n/a	n/a	n/a	n/a	n/a
2555606	REC_WORD	wordpools/wasnorm_wordpool.txt	LTP140	ltpFR	19	15	1	LIBRARY	816	n/a	n/a	0	n/a	n/a	n/a	n/a	n/a
2557507	REC_WORD	wordpools/wasnorm_wordpool.txt	LTP140	ltpFR	19	15	0	CLAM	315	n/a	n/a	0	n/a	n/a	n/a	n/a	n/a
2569365	REC_WORD	wordpools/wasnorm_wordpool.txt	LTP140	ltpFR	19	15	n/a	GRILL	661	n/a	n/a	n/a	n/a	n/a	n/a	n/a	n/a
2575456	REC_WORD	wordpools/wasnorm_wordpool.txt	LTP140	ltpFR	19	15	-1	OVEN	991	n/a	n/a	-1	n/a	n/a	n/a	n/a	n/a
2577935	REC_WORD	wordpools/wasnorm_wordpool.txt	LTP140	ltpFR	19	15	1	STOVE	1388	n/a	n/a	0	n/a	n/a	n/a	n/a	n/a
2582620	REC_WORD	wordpools/wasnorm_wordpool.txt	LTP140	ltpFR	19	15	n/a	BOOK	149	n/a	n/a	n/a	n/a	n/a	n/a	n/a	n/a
2587683	REC_WORD	wordpools/wasnorm_wordpool.txt	LTP140	ltpFR	19	15	n/a	FINGER	567	n/a	n/a	n/a	n/a	n/a	n/a	n/a	n/a
2615973	WORD	wordpools/wasnorm_wordpool.txt	LTP140	ltpFR	19	16	0	EMERALD	528	n/a	n/a	0	0.422607421875	0.5869140625	0	lower	amplitud.ttf
2620105	WORD	wordpools/wasnorm_wordpool.txt	LTP140	ltpFR	19	16	0	VEHICLE	1553	n/a	n/a	1	0.422607421875	0.5869140625	0	lower	amplitud.ttf
2624103	WORD	wordpools/wasnorm_wordpool.txt	LTP140	ltpFR	19	16	0	VALVE	1546	n/a	n/a	0	0.422607421875	0.5869140625	0	lower	amplitud.ttf
2628252	WORD	wordpools/wasnorm_wordpool.txt	LTP140	ltpFR	19	16	0	FEATHER	557	n/a	n/a	0	0.422607421875	0.5869140625	0	lower	amplitud.ttf
2632375	WORD	wordpools/wasnorm_wordpool.txt	LTP140	ltpFR	19	16	0	RICE	1190	n/a	n/a	0	0.422607421875	0.5869140625	0	lower	amplitud.ttf
2636374	WORD	wordpools/wasnorm_wordpool.txt	LTP140	ltpFR	19	16	0	RAG	1160	n/a	n/a	0	0.422607421875	0.5869140625	0	lower	amplitud.ttf
2640556	WORD	wordpools/wasnorm_wordpool.txt	LTP140	ltpFR	19	16	0	PLUMBER	1091	n/a	n/a	1	0.422607421875	0.5869140625	0	lower	amplitud.ttf
2644496	WORD	wordpools/wasnorm_wordpool.txt	LTP140	ltpFR	19	16	0	CRUTCH	417	n/a	n/a	1	0.422607421875	0.5869140625	0	lower	amplitud.ttf
2648461	WORD	wordpools/wasnorm_wordpool.txt	LTP140	ltpFR	19	16	0	BRAN	167	n/a	n/a	0	0.422607421875	0.5869140625	0	lower	amplitud.ttf
2652560	WORD	wordpools/wasnorm_wordpool.txt	LTP140	ltpFR	19	16	0	BRUSH	182	n/a	n/a	1	0.422607421875	0.5869140625	0	lower	amplitud.ttf
2656550	WORD	wordpools/wasnorm_wordpool.txt	LTP140	ltpFR	19	16	0	GHETTO	633	n/a	n/a	1	0.422607421875	0.5869140625	0	lower	amplitud.ttf
2660440	WORD	wordpools/wasnorm_wordpool.txt	LTP140	ltpFR	19	16	0	BARLEY	88	n/a	n/a	0	0.422607421875	0.5869140625	0	lower	amplitud.ttf
2664447	WORD	wordpools/wasnorm_wordpool.txt	LTP140	ltpFR	19	16	0	SCARECROW	1245	n/a	n/a	1	0.422607421875	0.5869140625	0	lower	amplitud.ttf
2668329	WORD	wordpools/wasnorm_wordpool.txt	LTP140	ltpFR	19	16	0	LASH	802	n/a	n/a	0	0.422607421875	0.5869140625	0	lower	amplitud.ttf
2672519	WORD	wordpools/wasnorm_wordpool.txt	LTP140	ltpFR	19	16	0	SAUSAGE	1238	n/a	n/a	1	0.422607421875	0.5869140625	0	lower	amplitud.ttf
2676669	WORD	wordpools/wasnorm_wordpool.txt	LTP140	ltpFR	19	16	0	GEM	629	n/a	n/a	0	0.422607421875	0.5869140625	0	lower	amplitud.ttf
2682308	REC_START	n/a	LTP140	ltpFR	19	16	n/a	n/a	n/a	n/a	n/a	n/a	n/a	n/a	n/a	n/a	n/a
2682702	REC_WORD	wordpools/wasnorm_wordpool.txt	LTP140	ltpFR	19	16	0	GEM	629	n/a	n/a	0	n/a	n/a	n/a	n/a	n/a
2683465	REC_WORD	wordpools/wasnorm_wordpool.txt	LTP140	ltpFR	19	16	0	SAUSAGE	1238	n/a	n/a	1	n/a	n/a	n/a	n/a	n/a
2684602	REC_WORD	wordpools/wasnorm_wordpool.txt	LTP140	ltpFR	19	16	0	LASH	802	n/a	n/a	0	n/a	n/a	n/a	n/a	n/a
2686428	REC_WORD	wordpools/wasnorm_wordpool.txt	LTP140	ltpFR	19	16	0	SCARECROW	1245	n/a	n/a	1	n/a	n/a	n/a	n/a	n/a
2687770	REC_WORD	wordpools/wasnorm_wordpool.txt	LTP140	ltpFR	19	16	0	BARLEY	88	n/a	n/a	0	n/a	n/a	n/a	n/a	n/a
2689212	REC_WORD	wordpools/wasnorm_wordpool.txt	LTP140	ltpFR	19	16	0	BRAN	167	n/a	n/a	0	n/a	n/a	n/a	n/a	n/a
2691731	REC_WORD	wordpools/wasnorm_wordpool.txt	LTP140	ltpFR	19	16	0	VALVE	1546	n/a	n/a	0	n/a	n/a	n/a	n/a	n/a
2693228	REC_WORD	wordpools/wasnorm_wordpool.txt	LTP140	ltpFR	19	16	0	RAG	1160	n/a	n/a	0	n/a	n/a	n/a	n/a	n/a
2695303	REC_WORD	wordpools/wasnorm_wordpool.txt	LTP140	ltpFR	19	16	n/a	CARROT	249	n/a	n/a	n/a	n/a	n/a	n/a	n/a	n/a
2696660	REC_WORD	wordpools/wasnorm_wordpool.txt	LTP140	ltpFR	19	16	0	EMERALD	528	n/a	n/a	0	n/a	n/a	n/a	n/a	n/a
2698027	REC_WORD	wordpools/wasnorm_wordpool.txt	LTP140	ltpFR	19	16	0	FEATHER	557	n/a	n/a	0	n/a	n/a	n/a	n/a	n/a
2699194	REC_WORD	wordpools/wasnorm_wordpool.txt	LTP140	ltpFR	19	16	0	RICE	1190	n/a	n/a	0	n/a	n/a	n/a	n/a	n/a
2703185	REC_WORD	wordpools/wasnorm_wordpool.txt	LTP140	ltpFR	19	16	0	VEHICLE	1553	n/a	n/a	1	n/a	n/a	n/a	n/a	n/a
2705655	REC_WORD	wordpools/wasnorm_wordpool.txt	LTP140	ltpFR	19	16	0	TAXI	1438	n/a	n/a	2	n/a	n/a	n/a	n/a	n/a
2712499	REC_WORD	wordpools/wasnorm_wordpool.txt	LTP140	ltpFR	19	16	0	PLUMBER	1091	n/a	n/a	1	n/a	n/a	n/a	n/a	n/a
2720945	REC_WORD	wordpools/wasnorm_wordpool.txt	LTP140	ltpFR	19	16	n/a	WHEAT	1602	n/a	n/a	n/a	n/a	n/a	n/a	n/a	n/a
2774951	REC_START	n/a	LTP140	ltpFR	19	1	n/a	n/a	n/a	n/a	n/a	n/a	n/a	n/a	n/a	n/a	n/a
2774983	RECOG_LURE	n/a	LTP140	ltpFR	19	1	n/a	FIDDLE	561	0	4	n/a	n/a	n/a	n/a	n/a	n/a
2776921	RECOG_RESP	n/a	LTP140	ltpFR	19	1	n/a	FIDDLE	561	0	n/a	n/a	n/a	n/a	n/a	n/a	n/a
2777939	RECOG_CONF	n/a	LTP140	ltpFR	19	1	n/a	FIDDLE	561	n/a	4	n/a	n/a	n/a	n/a	n/a	n/a
2779281	RECOG_TARGET	n/a	LTP140	ltpFR	19	1	-1	PECAN	1036	1	4	-1	n/a	n/a	n/a	n/a	n/a
2780139	RECOG_RESP	n/a	LTP140	ltpFR	19	1	-1	PECAN	1036	1	n/a	-1	n/a	n/a	n/a	n/a	n/a
2780803	RECOG_CONF	n/a	LTP140	ltpFR	19	1	-1	PECAN	1036	n/a	4	-1	n/a	n/a	n/a	n/a	n/a
2782189	RECOG_LURE	n/a	LTP140	ltpFR	19	1	n/a	BENCH	121	1	2	n/a	n/a	n/a	n/a	n/a	n/a
2782943	RECOG_RESP	n/a	LTP140	ltpFR	19	1	n/a	BENCH	121	1	n/a	n/a	n/a	n/a	n/a	n/a	n/a
2783566	RECOG_CONF	n/a	LTP140	ltpFR	19	1	n/a	BENCH	121	n/a	2	n/a	n/a	n/a	n/a	n/a	n/a
2784896	RECOG_LURE	n/a	LTP140	ltpFR	19	1	n/a	COIN	343	0	4	n/a	n/a	n/a	n/a	n/a	n/a
2785701	RECOG_RESP	n/a	LTP140	ltpFR	19	1	n/a	COIN	343	0	n/a	n/a	n/a	n/a	n/a	n/a	n/a
2786170	RECOG_CONF	n/a	LTP140	ltpFR	19	1	n/a	COIN	343	n/a	4	n/a	n/a	n/a	n/a	n/a	n/a
2787503	RECOG_LURE	n/a	LTP140	ltpFR	19	1	n/a	TURTLE	1522	1	2	n/a	n/a	n/a	n/a	n/a	n/a
2788335	RECOG_RESP	n/a	LTP140	ltpFR	19	1	n/a	TURTLE	1522	1	n/a	n/a	n/a	n/a	n/a	n/a	n/a
2789004	RECOG_CONF	n/a	LTP140	ltpFR	19	1	n/a	TURTLE	1522	n/a	2	n/a	n/a	n/a	n/a	n/a	n/a
2790452	RECOG_LURE	n/a	LTP140	ltpFR	19	1	n/a	BANDANNA	80	0	3	n/a	n/a	n/a	n/a	n/a	n/a
2791224	RECOG_RESP	n/a	LTP140	ltpFR	19	1	n/a	BANDANNA	80	0	n/a	n/a	n/a	n/a	n/a	n/a	n/a
2791808	RECOG_CONF	n/a	LTP140	ltpFR	19	1	n/a	BANDANNA	80	n/a	3	n/a	n/a	n/a	n/a	n/a	n/a
2793193	RECOG_TARGET	n/a	LTP140	ltpFR	19	1	0	HOOD	714	1	5	1	n/a	n/a	n/a	n/a	n/a
2793833	RECOG_RESP	n/a	LTP140	ltpFR	19	1	0	HOOD	714	1	n/a	1	n/a	n/a	n/a	n/a	n/a
2794372	RECOG_CONF	n/a	LTP140	ltpFR	19	1	0	HOOD	714	n/a	5	1	n/a	n/a	n/a	n/a	n/a
2795759	RECOG_TARGET	n/a	LTP140	ltpFR	19	1	0	BRUNETTE	181	1	5	1	n/a	n/a	n/a	n/a	n/a
2796437	RECOG_RESP	n/a	LTP140	ltpFR	19	1	0	BRUNETTE	181	1	n/a	1	n/a	n/a	n/a	n/a	n/a
2796996	RECOG_CONF	n/a	LTP140	ltpFR	19	1	0	BRUNETTE	181	n/a	5	1	n/a	n/a	n/a	n/a	n/a
2798366	RECOG_LURE	n/a	LTP140	ltpFR	19	1	n/a	TELESCOPE	1446	0	4	n/a	n/a	n/a	n/a	n/a	n/a
2798961	RECOG_RESP	n/a	LTP140	ltpFR	19	1	n/a	TELESCOPE	1446	0	n/a	n/a	n/a	n/a	n/a	n/a	n/a
2799480	RECOG_CONF	n/a	LTP140	ltpFR	19	1	n/a	TELESCOPE	1446	n/a	4	n/a	n/a	n/a	n/a	n/a	n/a
2800782	RECOG_TARGET	n/a	LTP140	ltpFR	19	1	-1	CONSUMER	365	1	4	-1	n/a	n/a	n/a	n/a	n/a
2801411	RECOG_RESP	n/a	LTP140	ltpFR	19	1	-1	CONSUMER	365	1	n/a	-1	n/a	n/a	n/a	n/a	n/a
2801954	RECOG_CONF	n/a	LTP140	ltpFR	19	1	-1	CONSUMER	365	n/a	4	-1	n/a	n/a	n/a	n/a	n/a
2803198	RECOG_TARGET	n/a	LTP140	ltpFR	19	1	1	BILL	126	0	2	0	n/a	n/a	n/a	n/a	n/a
2803910	RECOG_RESP	n/a	LTP140	ltpFR	19	1	1	BILL	126	0	n/a	0	n/a	n/a	n/a	n/a	n/a
2804449	RECOG_CONF	n/a	LTP140	ltpFR	19	1	1	BILL	126	n/a	2	0	n/a	n/a	n/a	n/a	n/a
2805764	RECOG_TARGET	n/a	LTP140	ltpFR	19	1	1	FLEA	577	0	3	1	n/a	n/a	n/a	n/a	n/a
2806883	RECOG_RESP	n/a	LTP140	ltpFR	19	1	1	FLEA	577	0	n/a	1	n/a	n/a	n/a	n/a	n/a
2807482	RECOG_CONF	n/a	LTP140	ltpFR	19	1	1	FLEA	577	n/a	3	1	n/a	n/a	n/a	n/a	n/a
2808771	RECOG_TARGET	n/a	LTP140	ltpFR	19	1	1	PIANO	1057	1	4	0	n/a	n/a	n/a	n/a	n/a
2809452	RECOG_RESP	n/a	LTP140	ltpFR	19	1	1	PIANO	1057	1	n/a	0	n/a	n/a	n/a	n/a	n/a
2810006	RECOG_CONF	n/a	LTP140	ltpFR	19	1	1	PIANO	1057	n/a	4	0	n/a	n/a	n/a	n/a	n/a
2811253	RECOG_TARGET	n/a	LTP140	ltpFR	19	1	0	LUNCH	849	1	2	1	n/a	n/a	n/a	n/a	n/a
2812096	RECOG_RESP_VV	n/a	LTP140	ltpFR	19	1	0	LUNCH	849	0	n/a	1	n/a	n/a	n/a	n/a	n/a
2812376	RECOG_RESP	n/a	LTP140	ltpFR	19	1	0	LUNCH	849	1	n/a	1	n/a	n/a	n/a	n/a	n/a
2812920	RECOG_CONF	n/a	LTP140	ltpFR	19	1	0	LUNCH	849	n/a	2	1	n/a	n/a	n/a	n/a	n/a
2814219	RECOG_LURE	n/a	LTP140	ltpFR	19	1	n/a	ANCESTOR	20	0	4	n/a	n/a	n/a	n/a	n/a	n/a
2814920	RECOG_RESP	n/a	LTP140	ltpFR	19	1	n/a	ANCESTOR	20	0	n/a	n/a	n/a	n/a	n/a	n/a	n/a
2815444	RECOG_CONF	n/a	LTP140	ltpFR	19	1	n/a	ANCESTOR	20	n/a	4	n/a	n/a	n/a	n/a	n/a	n/a
2816644	RECOG_LURE	n/a	LTP140	ltpFR	19	1	n/a	DOLL	481	0	4	n/a	n/a	n/a	n/a	n/a	n/a
2817394	RECOG_RESP	n/a	LTP140	ltpFR	19	1	n/a	DOLL	481	0	n/a	n/a	n/a	n/a	n/a	n/a	n/a
2818207	RECOG_CONF	n/a	LTP140	ltpFR	19	1	n/a	DOLL	481	n/a	4	n/a	n/a	n/a	n/a	n/a	n/a
2819150	RECOG_TARGET	n/a	LTP140	ltpFR	19	1	1	ARMY	39	1	4	0	n/a	n/a	n/a	n/a	n/a
2819814	RECOG_RESP	n/a	LTP140	ltpFR	19	1	1	ARMY	39	1	n/a	0	n/a	n/a	n/a	n/a	n/a
2820193	RECOG_CONF	n/a	LTP140	ltpFR	19	1	1	ARMY	39	n/a	4	0	n/a	n/a	n/a	n/a	n/a
2821541	RECOG_TARGET	n/a	LTP140	ltpFR	19	1	0	KIWI	781	1	5	0	n/a	n/a	n/a	n/a	n/a
2822178	RECOG_RESP	n/a	LTP140	ltpFR	19	1	0	KIWI	781	1	n/a	0	n/a	n/a	n/a	n/a	n/a
2822687	RECOG_CONF	n/a	LTP140	ltpFR	19	1	0	KIWI	781	n/a	5	0	n/a	n/a	n/a	n/a	n/a
2823940	RECOG_TARGET	n/a	LTP140	ltpFR	19	1	-1	VENUS	1557	1	5	-1	n/a	n/a	n/a	n/a	n/a
2824558	RECOG_RESP	n/a	LTP140	ltpFR	19	1	-1	VENUS	1557	1	n/a	-1	n/a	n/a	n/a	n/a	n/a
2825052	RECOG_CONF	n/a	LTP140	ltpFR	19	1	-1	VENUS	1557	n/a	5	-1	n/a	n/a	n/a	n/a	n/a
2826373	RECOG_TARGET	n/a	LTP140	ltpFR	19	1	0	NEUTRON	947	1	5	0	n/a	n/a	n/a	n/a	n/a
2826958	RECOG_RESP	n/a	LTP140	ltpFR	19	1	0	NEUTRON	947	1	n/a	0	n/a	n/a	n/a	n/a	n/a
2827486	RECOG_CONF	n/a	LTP140	ltpFR	19	1	0	NEUTRON	947	n/a	5	0	n/a	n/a	n/a	n/a	n/a
2830253	REC_START	n/a	LTP140	ltpFR	19	2	n/a	n/a	n/a	n/a	n/a	n/a	n/a	n/a	n/a	n/a	n/a
2830288	RECOG_TARGET	n/a	LTP140	ltpFR	19	2	0	MOTEL	919	1	4	1	n/a	n/a	n/a	n/a	n/a
2830966	RECOG_RESP	n/a	LTP140	ltpFR	19	2	0	MOTEL	919	1	n/a	1	n/a	n/a	n/a	n/a	n/a
2831505	RECOG_CONF	n/a	LTP140	ltpFR	19	2	0	MOTEL	919	n/a	4	1	n/a	n/a	n/a	n/a	n/a
2832779	RECOG_TARGET	n/a	LTP140	ltpFR	19	2	0	PUBLICATION	1136	1	3	0	n/a	n/a	n/a	n/a	n/a
2833451	RECOG_RESP	n/a	LTP140	ltpFR	19	2	0	PUBLICATION	1136	1	n/a	0	n/a	n/a	n/a	n/a	n/a
2834059	RECOG_CONF	n/a	LTP140	ltpFR	19	2	0	PUBLICATION	1136	n/a	3	0	n/a	n/a	n/a	n/a	n/a
2835328	RECOG_TARGET	n/a	LTP140	ltpFR	19	2	0	SAUSAGE	1238	1	5	1	n/a	n/a	n/a	n/a	n/a
2835880	RECOG_RESP	n/a	LTP140	ltpFR	19	2	0	SAUSAGE	1238	1	n/a	1	n/a	n/a	n/a	n/a	n/a
2836374	RECOG_CONF	n/a	LTP140	ltpFR	19	2	0	SAUSAGE	1238	n/a	5	1	n/a	n/a	n/a	n/a	n/a
2837703	RECOG_LURE	n/a	LTP140	ltpFR	19	2	n/a	RESORT	1186	0	4	n/a	n/a	n/a	n/a	n/a	n/a
2838319	RECOG_RESP	n/a	LTP140	ltpFR	19	2	n/a	RESORT	1186	0	n/a	n/a	n/a	n/a	n/a	n/a	n/a
2838868	RECOG_CONF	n/a	LTP140	ltpFR	19	2	n/a	RESORT	1186	n/a	4	n/a	n/a	n/a	n/a	n/a	n/a
2840085	RECOG_LURE	n/a	LTP140	ltpFR	19	2	n/a	CABBAGE	210	0	4	n/a	n/a	n/a	n/a	n/a	n/a
2840654	RECOG_RESP	n/a	LTP140	ltpFR	19	2	n/a	CABBAGE	210	0	n/a	n/a	n/a	n/a	n/a	n/a	n/a
2841193	RECOG_CONF	n/a	LTP140	ltpFR	19	2	n/a	CABBAGE	210	n/a	4	n/a	n/a	n/a	n/a	n/a	n/a
2842401	RECOG_LURE	n/a	LTP140	ltpFR	19	2	n/a	LAMP	798	0	4	n/a	n/a	n/a	n/a	n/a	n/a
2842994	RECOG_RESP	n/a	LTP140	ltpFR	19	2	n/a	LAMP	798	0	n/a	n/a	n/a	n/a	n/a	n/a	n/a
2843478	RECOG_CONF	n/a	LTP140	ltpFR	19	2	n/a	LAMP	798	n/a	4	n/a	n/a	n/a	n/a	n/a	n/a
2844717	RECOG_TARGET	n/a	LTP140	ltpFR	19	2	-1	DAISY	435	1	5	-1	n/a	n/a	n/a	n/a	n/a
2845329	RECOG_RESP	n/a	LTP140	ltpFR	19	2	-1	DAISY	435	1	n/a	-1	n/a	n/a	n/a	n/a	n/a
2845832	RECOG_CONF	n/a	LTP140	ltpFR	19	2	-1	DAISY	435	n/a	5	-1	n/a	n/a	n/a	n/a	n/a
2847132	RECOG_TARGET	n/a	LTP140	ltpFR	19	2	1	HOOK	715	1	5	0	n/a	n/a	n/a	n/a	n/a
2847708	RECOG_RESP	n/a	LTP140	ltpFR	19	2	1	HOOK	715	1	n/a	0	n/a	n/a	n/a	n/a	n/a
2848197	RECOG_CONF	n/a	LTP140	ltpFR	19	2	1	HOOK	715	n/a	5	0	n/a	n/a	n/a	n/a	n/a
2849515	RECOG_TARGET	n/a	LTP140	ltpFR	19	2	-1	CONVICT	371	1	4	-1	n/a	n/a	n/a	n/a	n/a
2850257	RECOG_RESP	n/a	LTP140	ltpFR	19	2	-1	CONVICT	371	1	n/a	-1	n/a	n/a	n/a	n/a	n/a
2850761	RECOG_CONF	n/a	LTP140	ltpFR	19	2	-1	CONVICT	371	n/a	4	-1	n/a	n/a	n/a	n/a	n/a
2852072	RECOG_TARGET	n/a	LTP140	ltpFR	19	2	1	TELEPHONE	1445	0	4	0	n/a	n/a	n/a	n/a	n/a
2852727	RECOG_RESP	n/a	LTP140	ltpFR	19	2	1	TELEPHONE	1445	0	n/a	0	n/a	n/a	n/a	n/a	n/a
2853256	RECOG_CONF	n/a	LTP140	ltpFR	19	2	1	TELEPHONE	1445	n/a	4	0	n/a	n/a	n/a	n/a	n/a
2854405	RECOG_LURE	n/a	LTP140	ltpFR	19	2	n/a	SURVEY	1414	0	3	n/a	n/a	n/a	n/a	n/a	n/a
2855196	RECOG_RESP	n/a	LTP140	ltpFR	19	2	n/a	SURVEY	1414	0	n/a	n/a	n/a	n/a	n/a	n/a	n/a
2855670	RECOG_CONF	n/a	LTP140	ltpFR	19	2	n/a	SURVEY	1414	n/a	3	n/a	n/a	n/a	n/a	n/a	n/a
2856929	RECOG_TARGET	n/a	LTP140	ltpFR	19	2	1	SKATE	1313	1	3	0	n/a	n/a	n/a	n/a	n/a
2857820	RECOG_RESP	n/a	LTP140	ltpFR	19	2	1	SKATE	1313	1	n/a	0	n/a	n/a	n/a	n/a	n/a
2858354	RECOG_CONF	n/a	LTP140	ltpFR	19	2	1	SKATE	1313	n/a	3	0	n/a	n/a	n/a	n/a	n/a
2859603	RECOG_LURE	n/a	LTP140	ltpFR	19	2	n/a	BRUISE	180	0	3	n/a	n/a	n/a	n/a	n/a	n/a
2860265	RECOG_RESP	n/a	LTP140	ltpFR	19	2	n/a	BRUISE	180	0	n/a	n/a	n/a	n/a	n/a	n/a	n/a
2860749	RECOG_CONF	n/a	LTP140	ltpFR	19	2	n/a	BRUISE	180	n/a	3	n/a	n/a	n/a	n/a	n/a	n/a
2862102	RECOG_LURE	n/a	LTP140	ltpFR	19	2	n/a	MOB	904	0	4	n/a	n/a	n/a	n/a	n/a	n/a
2862754	RECOG_RESP	n/a	LTP140	ltpFR	19	2	n/a	MOB	904	0	n/a	n/a	n/a	n/a	n/a	n/a	n/a
2863283	RECOG_CONF	n/a	LTP140	ltpFR	19	2	n/a	MOB	904	n/a	4	n/a	n/a	n/a	n/a	n/a	n/a
2864543	RECOG_TARGET	n/a	LTP140	ltpFR	19	2	1	VIOLIN	1571	1	4	0	n/a	n/a	n/a	n/a	n/a
2865183	RECOG_RESP	n/a	LTP140	ltpFR	19	2	1	VIOLIN	1571	1	n/a	0	n/a	n/a	n/a	n/a	n/a
2865687	RECOG_CONF	n/a	LTP140	ltpFR	19	2	1	VIOLIN	1571	n/a	4	0	n/a	n/a	n/a	n/a	n/a
2866950	RECOG_TARGET	n/a	LTP140	ltpFR	19	2	0	PARROT	1015	1	5	1	n/a	n/a	n/a	n/a	n/a
2867563	RECOG_RESP	n/a	LTP140	ltpFR	19	2	0	PARROT	1015	1	n/a	1	n/a	n/a	n/a	n/a	n/a
2868069	RECOG_CONF	n/a	LTP140	ltpFR	19	2	0	PARROT	1015	n/a	5	1	n/a	n/a	n/a	n/a	n/a
2869391	RECOG_TARGET	n/a	LTP140	ltpFR	19	2	-1	TROUSERS	1510	1	4	-1	n/a	n/a	n/a	n/a	n/a
2869987	RECOG_RESP	n/a	LTP140	ltpFR	19	2	-1	TROUSERS	1510	1	n/a	-1	n/a	n/a	n/a	n/a	n/a
2870506	RECOG_CONF	n/a	LTP140	ltpFR	19	2	-1	TROUSERS	1510	n/a	4	-1	n/a	n/a	n/a	n/a	n/a
2871832	RECOG_TARGET	n/a	LTP140	ltpFR	19	2	-1	FLASK	576	1	4	-1	n/a	n/a	n/a	n/a	n/a
2872442	RECOG_RESP	n/a	LTP140	ltpFR	19	2	-1	FLASK	576	1	n/a	-1	n/a	n/a	n/a	n/a	n/a
2873001	RECOG_CONF	n/a	LTP140	ltpFR	19	2	-1	FLASK	576	n/a	4	-1	n/a	n/a	n/a	n/a	n/a
2874156	RECOG_TARGET	n/a	LTP140	ltpFR	19	2	0	CHIEF	298	0	2	1	n/a	n/a	n/a	n/a	n/a
2874916	RECOG_RESP	n/a	LTP140	ltpFR	19	2	0	CHIEF	298	0	n/a	1	n/a	n/a	n/a	n/a	n/a
2875485	RECOG_CONF	n/a	LTP140	ltpFR	19	2	0	CHIEF	298	n/a	2	1	n/a	n/a	n/a	n/a	n/a
2876763	RECOG_TARGET	n/a	LTP140	ltpFR	19	2	1	LIBRARY	816	1	5	0	n/a	n/a	n/a	n/a	n/a
2877426	RECOG_RESP	n/a	LTP140	ltpFR	19	2	1	LIBRARY	816	1	n/a	0	n/a	n/a	n/a	n/a	n/a
2877969	RECOG_CONF	n/a	LTP140	ltpFR	19	2	1	LIBRARY	816	n/a	5	0	n/a	n/a	n/a	n/a	n/a
2881841	REC_START	n/a	LTP140	ltpFR	19	3	n/a	n/a	n/a	n/a	n/a	n/a	n/a	n/a	n/a	n/a	n/a
2881878	RECOG_TARGET	n/a	LTP140	ltpFR	19	3	-1	PASTA	1021	1	5	-1	n/a	n/a	n/a	n/a	n/a
2882819	RECOG_RESP	n/a	LTP140	ltpFR	19	3	-1	PASTA	1021	1	n/a	-1	n/a	n/a	n/a	n/a	n/a
2883322	RECOG_CONF	n/a	LTP140	ltpFR	19	3	-1	PASTA	1021	n/a	5	-1	n/a	n/a	n/a	n/a	n/a
2884594	RECOG_TARGET	n/a	LTP140	ltpFR	19	3	0	HANDKERCHIEF	686	1	5	0	n/a	n/a	n/a	n/a	n/a
2885223	RECOG_RESP	n/a	LTP140	ltpFR	19	3	0	HANDKERCHIEF	686	1	n/a	0	n/a	n/a	n/a	n/a	n/a
2885691	RECOG_CONF	n/a	LTP140	ltpFR	19	3	0	HANDKERCHIEF	686	n/a	5	0	n/a	n/a	n/a	n/a	n/a
2886935	RECOG_TARGET	n/a	LTP140	ltpFR	19	3	-1	FLESH	579	1	4	-1	n/a	n/a	n/a	n/a	n/a
2887623	RECOG_RESP	n/a	LTP140	ltpFR	19	3	-1	FLESH	579	1	n/a	-1	n/a	n/a	n/a	n/a	n/a
2888112	RECOG_CONF	n/a	LTP140	ltpFR	19	3	-1	FLESH	579	n/a	4	-1	n/a	n/a	n/a	n/a	n/a
2889442	RECOG_LURE	n/a	LTP140	ltpFR	19	3	n/a	COLLEGE	346	0	2	n/a	n/a	n/a	n/a	n/a	n/a
2890077	RECOG_RESP	n/a	LTP140	ltpFR	19	3	n/a	COLLEGE	346	0	n/a	n/a	n/a	n/a	n/a	n/a	n/a
2890576	RECOG_CONF	n/a	LTP140	ltpFR	19	3	n/a	COLLEGE	346	n/a	2	n/a	n/a	n/a	n/a	n/a	n/a
2891900	RECOG_LURE	n/a	LTP140	ltpFR	19	3	n/a	POISON	1096	0	2	n/a	n/a	n/a	n/a	n/a	n/a
2892576	RECOG_RESP	n/a	LTP140	ltpFR	19	3	n/a	POISON	1096	0	n/a	n/a	n/a	n/a	n/a	n/a	n/a
2893080	RECOG_CONF	n/a	LTP140	ltpFR	19	3	n/a	POISON	1096	n/a	2	n/a	n/a	n/a	n/a	n/a	n/a
2894415	RECOG_TARGET	n/a	LTP140	ltpFR	19	3	1	BOARD	143	1	4	0	n/a	n/a	n/a	n/a	n/a
2895106	RECOG_RESP_VV	n/a	LTP140	ltpFR	19	3	1	BOARD	143	0	n/a	0	n/a	n/a	n/a	n/a	n/a
2895644	RECOG_RESP	n/a	LTP140	ltpFR	19	3	1	BOARD	143	1	n/a	0	n/a	n/a	n/a	n/a	n/a
2896223	RECOG_CONF	n/a	LTP140	ltpFR	19	3	1	BOARD	143	n/a	4	0	n/a	n/a	n/a	n/a	n/a
2897573	RECOG_TARGET	n/a	LTP140	ltpFR	19	3	0	THUMB	1462	0	2	0	n/a	n/a	n/a	n/a	n/a
2898358	RECOG_RESP	n/a	LTP140	ltpFR	19	3	0	THUMB	1462	0	n/a	0	n/a	n/a	n/a	n/a	n/a
2898827	RECOG_CONF	n/a	LTP140	ltpFR	19	3	0	THUMB	1462	n/a	2	0	n/a	n/a	n/a	n/a	n/a
2900122	RECOG_LURE	n/a	LTP140	ltpFR	19	3	n/a	FUNERAL	613	0	4	n/a	n/a	n/a	n/a	n/a	n/a
2900813	RECOG_RESP	n/a	LTP140	ltpFR	19	3	n/a	FUNERAL	613	0	n/a	n/a	n/a	n/a	n/a	n/a	n/a
2901262	RECOG_CONF	n/a	LTP140	ltpFR	19	3	n/a	FUNERAL	613	n/a	4	n/a	n/a	n/a	n/a	n/a	n/a
2902529	RECOG_LURE	n/a	LTP140	ltpFR	19	3	n/a	CELLAR	267	0	3	n/a	n/a	n/a	n/a	n/a	n/a
2903347	RECOG_RESP	n/a	LTP140	ltpFR	19	3	n/a	CELLAR	267	0	n/a	n/a	n/a	n/a	n/a	n/a	n/a
2903846	RECOG_CONF	n/a	LTP140	ltpFR	19	3	n/a	CELLAR	267	n/a	3	n/a	n/a	n/a	n/a	n/a	n/a
2905162	RECOG_TARGET	n/a	LTP140	ltpFR	19	3	0	HOE	711	1	4	1	n/a	n/a	n/a	n/a	n/a
2906046	RECOG_RESP	n/a	LTP140	ltpFR	19	3	0	HOE	711	1	n/a	1	n/a	n/a	n/a	n/a	n/a
2906807	RECOG_CONF	n/a	LTP140	ltpFR	19	3	0	HOE	711	n/a	4	1	n/a	n/a	n/a	n/a	n/a
2907752	RECOG_TARGET	n/a	LTP140	ltpFR	19	3	0	CAB	209	1	4	1	n/a	n/a	n/a	n/a	n/a
2908375	RECOG_RESP	n/a	LTP140	ltpFR	19	3	0	CAB	209	1	n/a	1	n/a	n/a	n/a	n/a	n/a
2908715	RECOG_CONF	n/a	LTP140	ltpFR	19	3	0	CAB	209	n/a	4	1	n/a	n/a	n/a	n/a	n/a
2910160	RECOG_TARGET	n/a	LTP140	ltpFR	19	3	-1	JUVENILE	767	1	5	-1	n/a	n/a	n/a	n/a	n/a
2910795	RECOG_RESP	n/a	LTP140	ltpFR	19	3	-1	JUVENILE	767	1	n/a	-1	n/a	n/a	n/a	n/a	n/a
2911279	RECOG_CONF	n/a	LTP140	ltpFR	19	3	-1	JUVENILE	767	n/a	5	-1	n/a	n/a	n/a	n/a	n/a
2912609	RECOG_TARGET	n/a	LTP140	ltpFR	19	3	1	SHRIMP	1297	1	5	1	n/a	n/a	n/a	n/a	n/a
2913190	RECOG_RESP	n/a	LTP140	ltpFR	19	3	1	SHRIMP	1297	1	n/a	1	n/a	n/a	n/a	n/a	n/a
2913683	RECOG_CONF	n/a	LTP140	ltpFR	19	3	1	SHRIMP	1297	n/a	5	1	n/a	n/a	n/a	n/a	n/a
2914958	RECOG_TARGET	n/a	LTP140	ltpFR	19	3	-1	PEDAL	1037	1	5	-1	n/a	n/a	n/a	n/a	n/a
2915634	RECOG_RESP	n/a	LTP140	ltpFR	19	3	-1	PEDAL	1037	1	n/a	-1	n/a	n/a	n/a	n/a	n/a
2916138	RECOG_CONF	n/a	LTP140	ltpFR	19	3	-1	PEDAL	1037	n/a	5	-1	n/a	n/a	n/a	n/a	n/a
2917424	RECOG_TARGET	n/a	LTP140	ltpFR	19	3	-1	ZOO	1637	1	4	-1	n/a	n/a	n/a	n/a	n/a
2918053	RECOG_RESP	n/a	LTP140	ltpFR	19	3	-1	ZOO	1637	1	n/a	-1	n/a	n/a	n/a	n/a	n/a
2918602	RECOG_CONF	n/a	LTP140	ltpFR	19	3	-1	ZOO	1637	n/a	4	-1	n/a	n/a	n/a	n/a	n/a
2919840	RECOG_TARGET	n/a	LTP140	ltpFR	19	3	1	CARAVAN	242	1	4	0	n/a	n/a	n/a	n/a	n/a
2920613	RECOG_RESP	n/a	LTP140	ltpFR	19	3	1	CARAVAN	242	1	n/a	0	n/a	n/a	n/a	n/a	n/a
2921166	RECOG_CONF	n/a	LTP140	ltpFR	19	3	1	CARAVAN	242	n/a	4	0	n/a	n/a	n/a	n/a	n/a
2922347	RECOG_TARGET	n/a	LTP140	ltpFR	19	3	-1	GROUND	666	1	4	-1	n/a	n/a	n/a	n/a	n/a
2922952	RECOG_RESP	n/a	LTP140	ltpFR	19	3	-1	GROUND	666	1	n/a	-1	n/a	n/a	n/a	n/a	n/a
2923556	RECOG_CONF	n/a	LTP140	ltpFR	19	3	-1	GROUND	666	n/a	4	-1	n/a	n/a	n/a	n/a	n/a
2924630	RECOG_LURE	n/a	LTP140	ltpFR	19	3	n/a	MUMMY	932	0	4	n/a	n/a	n/a	n/a	n/a	n/a
2925322	RECOG_RESP	n/a	LTP140	ltpFR	19	3	n/a	MUMMY	932	0	n/a	n/a	n/a	n/a	n/a	n/a	n/a
2925796	RECOG_CONF	n/a	LTP140	ltpFR	19	3	n/a	MUMMY	932	n/a	4	n/a	n/a	n/a	n/a	n/a	n/a
2927062	RECOG_TARGET	n/a	LTP140	ltpFR	19	3	0	RIB	1188	1	5	0	n/a	n/a	n/a	n/a	n/a
2927707	RECOG_RESP	n/a	LTP140	ltpFR	19	3	0	RIB	1188	1	n/a	0	n/a	n/a	n/a	n/a	n/a
2928220	RECOG_CONF	n/a	LTP140	ltpFR	19	3	0	RIB	1188	n/a	5	0	n/a	n/a	n/a	n/a	n/a
2929461	RECOG_TARGET	n/a	LTP140	ltpFR	19	3	0	VALVE	1546	1	5	0	n/a	n/a	n/a	n/a	n/a
2930031	RECOG_RESP	n/a	LTP140	ltpFR	19	3	0	VALVE	1546	1	n/a	0	n/a	n/a	n/a	n/a	n/a
2930485	RECOG_CONF	n/a	LTP140	ltpFR	19	3	0	VALVE	1546	n/a	5	0	n/a	n/a	n/a	n/a	n/a
2933439	REC_START	n/a	LTP140	ltpFR	19	4	n/a	n/a	n/a	n/a	n/a	n/a	n/a	n/a	n/a	n/a	n/a
2933476	RECOG_TARGET	n/a	LTP140	ltpFR	19	4	0	FOREST	593	1	3	1	n/a	n/a	n/a	n/a	n/a
2934292	RECOG_RESP	n/a	LTP140	ltpFR	19	4	0	FOREST	593	1	n/a	1	n/a	n/a	n/a	n/a	n/a
2934811	RECOG_CONF	n/a	LTP140	ltpFR	19	4	0	FOREST	593	n/a	3	1	n/a	n/a	n/a	n/a	n/a
2936167	RECOG_TARGET	n/a	LTP140	ltpFR	19	4	1	VOLLEYBALL	1576	1	4	0	n/a	n/a	n/a	n/a	n/a
2936846	RECOG_RESP	n/a	LTP140	ltpFR	19	4	1	VOLLEYBALL	1576	1	n/a	0	n/a	n/a	n/a	n/a	n/a
2937315	RECOG_CONF	n/a	LTP140	ltpFR	19	4	1	VOLLEYBALL	1576	n/a	4	0	n/a	n/a	n/a	n/a	n/a
2938541	RECOG_TARGET	n/a	LTP140	ltpFR	19	4	0	SHAMPOO	1274	1	4	0	n/a	n/a	n/a	n/a	n/a
2939216	RECOG_RESP	n/a	LTP140	ltpFR	19	4	0	SHAMPOO	1274	1	n/a	0	n/a	n/a	n/a	n/a	n/a
2939580	RECOG_CONF	n/a	LTP140	ltpFR	19	4	0	SHAMPOO	1274	n/a	4	0	n/a	n/a	n/a	n/a	n/a
2940907	RECOG_LURE	n/a	LTP140	ltpFR	19	4	n/a	PISTON	1076	0	4	n/a	n/a	n/a	n/a	n/a	n/a
2941595	RECOG_RESP	n/a	LTP140	ltpFR	19	4	n/a	PISTON	1076	0	n/a	n/a	n/a	n/a	n/a	n/a	n/a
2942176	RECOG_CONF	n/a	LTP140	ltpFR	19	4	n/a	PISTON	1076	n/a	4	n/a	n/a	n/a	n/a	n/a	n/a
2943256	RECOG_LURE	n/a	LTP140	ltpFR	19	4	n/a	STRING	1394	0	5	n/a	n/a	n/a	n/a	n/a	n/a
2943915	RECOG_RESP	n/a	LTP140	ltpFR	19	4	n/a	STRING	1394	0	n/a	n/a	n/a	n/a	n/a	n/a	n/a
2944359	RECOG_CONF	n/a	LTP140	ltpFR	19	4	n/a	STRING	1394	n/a	5	n/a	n/a	n/a	n/a	n/a	n/a
2945673	RECOG_TARGET	n/a	LTP140	ltpFR	19	4	-1	OTTER	986	1	4	-1	n/a	n/a	n/a	n/a	n/a
2946255	RECOG_RESP	n/a	LTP140	ltpFR	19	4	-1	OTTER	986	1	n/a	-1	n/a	n/a	n/a	n/a	n/a
2946864	RECOG_CONF	n/a	LTP140	ltpFR	19	4	-1	OTTER	986	n/a	4	-1	n/a	n/a	n/a	n/a	n/a
2948046	RECOG_TARGET	n/a	LTP140	ltpFR	19	4	0	BRUSH	182	1	3	1	n/a	n/a	n/a	n/a	n/a
2948659	RECOG_RESP	n/a	LTP140	ltpFR	19	4	0	BRUSH	182	1	n/a	1	n/a	n/a	n/a	n/a	n/a
2949158	RECOG_CONF	n/a	LTP140	ltpFR	19	4	0	BRUSH	182	n/a	3	1	n/a	n/a	n/a	n/a	n/a
2950471	RECOG_TARGET	n/a	LTP140	ltpFR	19	4	1	GOLD	647	1	4	0	n/a	n/a	n/a	n/a	n/a
2951054	RECOG_RESP	n/a	LTP140	ltpFR	19	4	1	GOLD	647	1	n/a	0	n/a	n/a	n/a	n/a	n/a
2951543	RECOG_CONF	n/a	LTP140	ltpFR	19	4	1	GOLD	647	n/a	4	0	n/a	n/a	n/a	n/a	n/a
2952820	RECOG_TARGET	n/a	LTP140	ltpFR	19	4	1	SISTER	1312	1	2	1	n/a	n/a	n/a	n/a	n/a
2953653	RECOG_RESP	n/a	LTP140	ltpFR	19	4	1	SISTER	1312	1	n/a	1	n/a	n/a	n/a	n/a	n/a
2954137	RECOG_CONF	n/a	LTP140	ltpFR	19	4	1	SISTER	1312	n/a	2	1	n/a	n/a	n/a	n/a	n/a
2955385	RECOG_TARGET	n/a	LTP140	ltpFR	19	4	-1	DILL	465	1	5	-1	n/a	n/a	n/a	n/a	n/a
2956037	RECOG_RESP	n/a	LTP140	ltpFR	19	4	-1	DILL	465	1	n/a	-1	n/a	n/a	n/a	n/a	n/a
2956481	RECOG_CONF	n/a	LTP140	ltpFR	19	4	-1	DILL	465	n/a	5	-1	n/a	n/a	n/a	n/a	n/a
2957727	RECOG_LURE	n/a	LTP140	ltpFR	19	4	n/a	PUPPY	1144	0	5	n/a	n/a	n/a	n/a	n/a	n/a
2958382	RECOG_RESP	n/a	LTP140	ltpFR	19	4	n/a	PUPPY	1144	0	n/a	n/a	n/a	n/a	n/a	n/a	n/a
2958816	RECOG_CONF	n/a	LTP140	ltpFR	19	4	n/a	PUPPY	1144	n/a	5	n/a	n/a	n/a	n/a	n/a	n/a
2960009	RECOG_TARGET	n/a	LTP140	ltpFR	19	4	1	CONCERT	360	1	4	0	n/a	n/a	n/a	n/a	n/a
2960682	RECOG_RESP	n/a	LTP140	ltpFR	19	4	1	CONCERT	360	1	n/a	0	n/a	n/a	n/a	n/a	n/a
2961284	RECOG_CONF	n/a	LTP140	ltpFR	19	4	1	CONCERT	360	n/a	4	0	n/a	n/a	n/a	n/a	n/a
2962366	RECOG_LURE	n/a	LTP140	ltpFR	19	4	n/a	CINNAMON	310	0	4	n/a	n/a	n/a	n/a	n/a	n/a
2962997	RECOG_RESP	n/a	LTP140	ltpFR	19	4	n/a	CINNAMON	310	0	n/a	n/a	n/a	n/a	n/a	n/a	n/a
2963476	RECOG_CONF	n/a	LTP140	ltpFR	19	4	n/a	CINNAMON	310	n/a	4	n/a	n/a	n/a	n/a	n/a	n/a
2964716	RECOG_TARGET	n/a	LTP140	ltpFR	19	4	1	SOLDIER	1344	1	4	1	n/a	n/a	n/a	n/a	n/a
2965336	RECOG_RESP	n/a	LTP140	ltpFR	19	4	1	SOLDIER	1344	1	n/a	1	n/a	n/a	n/a	n/a	n/a
2965820	RECOG_CONF	n/a	LTP140	ltpFR	19	4	1	SOLDIER	1344	n/a	4	1	n/a	n/a	n/a	n/a	n/a
2967040	RECOG_TARGET	n/a	LTP140	ltpFR	19	4	1	BIRD	129	1	2	1	n/a	n/a	n/a	n/a	n/a
2967626	RECOG_RESP	n/a	LTP140	ltpFR	19	4	1	BIRD	129	1	n/a	1	n/a	n/a	n/a	n/a	n/a
2968115	RECOG_CONF	n/a	LTP140	ltpFR	19	4	1	BIRD	129	n/a	2	1	n/a	n/a	n/a	n/a	n/a
2969389	RECOG_LURE	n/a	LTP140	ltpFR	19	4	n/a	BEAST	108	0	2	n/a	n/a	n/a	n/a	n/a	n/a
2970036	RECOG_RESP	n/a	LTP140	ltpFR	19	4	n/a	BEAST	108	0	n/a	n/a	n/a	n/a	n/a	n/a	n/a
2970480	RECOG_CONF	n/a	LTP140	ltpFR	19	4	n/a	BEAST	108	n/a	2	n/a	n/a	n/a	n/a	n/a	n/a
2971746	RECOG_TARGET	n/a	LTP140	ltpFR	19	4	-1	SALAD	1224	1	5	-1	n/a	n/a	n/a	n/a	n/a
2972286	RECOG_RESP	n/a	LTP140	ltpFR	19	4	-1	SALAD	1224	1	n/a	-1	n/a	n/a	n/a	n/a	n/a
2972779	RECOG_CONF	n/a	LTP140	ltpFR	19	4	-1	SALAD	1224	n/a	5	-1	n/a	n/a	n/a	n/a	n/a
2973945	RECOG_TARGET	n/a	LTP140	ltpFR	19	4	-1	ASTRONAUT	51	1	5	-1	n/a	n/a	n/a	n/a	n/a
2974550	RECOG_RESP	n/a	LTP140	ltpFR	19	4	-1	ASTRONAUT	51	1	n/a	-1	n/a	n/a	n/a	n/a	n/a
2975029	RECOG_CONF	n/a	LTP140	ltpFR	19	4	-1	ASTRONAUT	51	n/a	5	-1	n/a	n/a	n/a	n/a	n/a
2976253	RECOG_TARGET	n/a	LTP140	ltpFR	19	4	-1	TAR	1435	1	4	-1	n/a	n/a	n/a	n/a	n/a
2977115	RECOG_RESP	n/a	LTP140	ltpFR	19	4	-1	TAR	1435	1	n/a	-1	n/a	n/a	n/a	n/a	n/a
2977613	RECOG_CONF	n/a	LTP140	ltpFR	19	4	-1	TAR	1435	n/a	4	-1	n/a	n/a	n/a	n/a	n/a
2978885	RECOG_TARGET	n/a	LTP140	ltpFR	19	4	1	STUMP	1396	1	4	0	n/a	n/a	n/a	n/a	n/a
2979479	RECOG_RESP	n/a	LTP140	ltpFR	19	4	1	STUMP	1396	1	n/a	0	n/a	n/a	n/a	n/a	n/a
2979968	RECOG_CONF	n/a	LTP140	ltpFR	19	4	1	STUMP	1396	n/a	4	0	n/a	n/a	n/a	n/a	n/a
2982655	REC_START	n/a	LTP140	ltpFR	19	5	n/a	n/a	n/a	n/a	n/a	n/a	n/a	n/a	n/a	n/a	n/a
2982685	RECOG_TARGET	n/a	LTP140	ltpFR	19	5	-1	FIG	563	1	4	-1	n/a	n/a	n/a	n/a	n/a
2983268	RECOG_RESP	n/a	LTP140	ltpFR	19	5	-1	FIG	563	1	n/a	-1	n/a	n/a	n/a	n/a	n/a
2983878	RECOG_CONF	n/a	LTP140	ltpFR	19	5	-1	FIG	563	n/a	4	-1	n/a	n/a	n/a	n/a	n/a
2984908	RECOG_TARGET	n/a	LTP140	ltpFR	19	5	1	SAXOPHONE	1240	1	4	0	n/a	n/a	n/a	n/a	n/a
2985488	RECOG_RESP	n/a	LTP140	ltpFR	19	5	1	SAXOPHONE	1240	1	n/a	0	n/a	n/a	n/a	n/a	n/a
2985962	RECOG_CONF	n/a	LTP140	ltpFR	19	5	1	SAXOPHONE	1240	n/a	4	0	n/a	n/a	n/a	n/a	n/a
2987224	RECOG_TARGET	n/a	LTP140	ltpFR	19	5	-1	HORIZON	717	1	4	-1	n/a	n/a	n/a	n/a	n/a
2987943	RECOG_RESP	n/a	LTP140	ltpFR	19	5	-1	HORIZON	717	1	n/a	-1	n/a	n/a	n/a	n/a	n/a
2988427	RECOG_CONF	n/a	LTP140	ltpFR	19	5	-1	HORIZON	717	n/a	4	-1	n/a	n/a	n/a	n/a	n/a
2989658	RECOG_TARGET	n/a	LTP140	ltpFR	19	5	0	TAXI	1438	1	5	2	n/a	n/a	n/a	n/a	n/a
2990188	RECOG_RESP	n/a	LTP140	ltpFR	19	5	0	TAXI	1438	1	n/a	2	n/a	n/a	n/a	n/a	n/a
2990652	RECOG_CONF	n/a	LTP140	ltpFR	19	5	0	TAXI	1438	n/a	5	2	n/a	n/a	n/a	n/a	n/a
2991872	RECOG_TARGET	n/a	LTP140	ltpFR	19	5	1	VOLUNTEER	1577	1	5	1	n/a	n/a	n/a	n/a	n/a
2992457	RECOG_RESP	n/a	LTP140	ltpFR	19	5	1	VOLUNTEER	1577	1	n/a	1	n/a	n/a	n/a	n/a	n/a
2992907	RECOG_CONF	n/a	LTP140	ltpFR	19	5	1	VOLUNTEER	1577	n/a	5	1	n/a	n/a	n/a	n/a	n/a
2994105	RECOG_TARGET	n/a	LTP140	ltpFR	19	5	0	DUNE	506	1	5	1	n/a	n/a	n/a	n/a	n/a
2994682	RECOG_RESP	n/a	LTP140	ltpFR	19	5	0	DUNE	506	1	n/a	1	n/a	n/a	n/a	n/a	n/a
2995145	RECOG_CONF	n/a	LTP140	ltpFR	19	5	0	DUNE	506	n/a	5	1	n/a	n/a	n/a	n/a	n/a
2996363	RECOG_TARGET	n/a	LTP140	ltpFR	19	5	0	BRAKE	166	1	2	1	n/a	n/a	n/a	n/a	n/a
2997162	RECOG_RESP	n/a	LTP140	ltpFR	19	5	0	BRAKE	166	1	n/a	1	n/a	n/a	n/a	n/a	n/a
2997666	RECOG_CONF	n/a	LTP140	ltpFR	19	5	0	BRAKE	166	n/a	2	1	n/a	n/a	n/a	n/a	n/a
2998970	RECOG_LURE	n/a	LTP140	ltpFR	19	5	n/a	PUBLISHER	1137	1	1	n/a	n/a	n/a	n/a	n/a	n/a
2999596	RECOG_RESP	n/a	LTP140	ltpFR	19	5	n/a	PUBLISHER	1137	1	n/a	n/a	n/a	n/a	n/a	n/a	n/a
3000130	RECOG_CONF	n/a	LTP140	ltpFR	19	5	n/a	PUBLISHER	1137	n/a	1	n/a	n/a	n/a	n/a	n/a	n/a
3001386	RECOG_LURE	n/a	LTP140	ltpFR	19	5	n/a	SUBURB	1399	0	2	n/a	n/a	n/a	n/a	n/a	n/a
3002106	RECOG_RESP	n/a	LTP140	ltpFR	19	5	n/a	SUBURB	1399	0	n/a	n/a	n/a	n/a	n/a	n/a	n/a
3002555	RECOG_CONF	n/a	LTP140	ltpFR	19	5	n/a	SUBURB	1399	n/a	2	n/a	n/a	n/a	n/a	n/a	n/a
3003818	RECOG_TARGET	n/a	LTP140	ltpFR	19	5	-1	DYNAMITE	511	1	5	-1	n/a	n/a	n/a	n/a	n/a
3004565	RECOG_RESP	n/a	LTP140	ltpFR	19	5	-1	DYNAMITE	511	1	n/a	-1	n/a	n/a	n/a	n/a	n/a
3004999	RECOG_CONF	n/a	LTP140	ltpFR	19	5	-1	DYNAMITE	511	n/a	5	-1	n/a	n/a	n/a	n/a	n/a
3006217	RECOG_TARGET	n/a	LTP140	ltpFR	19	5	0	ROBIN	1199	1	4	0	n/a	n/a	n/a	n/a	n/a
3006770	RECOG_RESP	n/a	LTP140	ltpFR	19	5	0	ROBIN	1199	1	n/a	0	n/a	n/a	n/a	n/a	n/a
3007234	RECOG_CONF	n/a	LTP140	ltpFR	19	5	0	ROBIN	1199	n/a	4	0	n/a	n/a	n/a	n/a	n/a
3008417	RECOG_LURE	n/a	LTP140	ltpFR	19	5	n/a	BUTTER	205	0	2	n/a	n/a	n/a	n/a	n/a	n/a
3009030	RECOG_RESP	n/a	LTP140	ltpFR	19	5	n/a	BUTTER	205	0	n/a	n/a	n/a	n/a	n/a	n/a	n/a
3009519	RECOG_CONF	n/a	LTP140	ltpFR	19	5	n/a	BUTTER	205	n/a	2	n/a	n/a	n/a	n/a	n/a	n/a
3010816	RECOG_TARGET	n/a	LTP140	ltpFR	19	5	1	ORGAN	984	1	4	1	n/a	n/a	n/a	n/a	n/a
3011394	RECOG_RESP	n/a	LTP140	ltpFR	19	5	1	ORGAN	984	1	n/a	1	n/a	n/a	n/a	n/a	n/a
3011893	RECOG_CONF	n/a	LTP140	ltpFR	19	5	1	ORGAN	984	n/a	4	1	n/a	n/a	n/a	n/a	n/a
3013090	RECOG_TARGET	n/a	LTP140	ltpFR	19	5	1	COACH	331	1	1	0	n/a	n/a	n/a	n/a	n/a
3013689	RECOG_RESP	n/a	LTP140	ltpFR	19	5	1	COACH	331	1	n/a	0	n/a	n/a	n/a	n/a	n/a
3014138	RECOG_CONF	n/a	LTP140	ltpFR	19	5	1	COACH	331	n/a	1	0	n/a	n/a	n/a	n/a	n/a
3015389	RECOG_TARGET	n/a	LTP140	ltpFR	19	5	1	WAIST	1579	1	4	1	n/a	n/a	n/a	n/a	n/a
3015959	RECOG_RESP	n/a	LTP140	ltpFR	19	5	1	WAIST	1579	1	n/a	1	n/a	n/a	n/a	n/a	n/a
3016423	RECOG_CONF	n/a	LTP140	ltpFR	19	5	1	WAIST	1579	n/a	4	1	n/a	n/a	n/a	n/a	n/a
3017648	RECOG_TARGET	n/a	LTP140	ltpFR	19	5	1	SWEATER	1419	1	4	0	n/a	n/a	n/a	n/a	n/a
3018234	RECOG_RESP	n/a	LTP140	ltpFR	19	5	1	SWEATER	1419	1	n/a	0	n/a	n/a	n/a	n/a	n/a
3018688	RECOG_CONF	n/a	LTP140	ltpFR	19	5	1	SWEATER	1419	n/a	4	0	n/a	n/a	n/a	n/a	n/a
3019921	RECOG_TARGET	n/a	LTP140	ltpFR	19	5	1	DIRECTOR	471	1	2	1	n/a	n/a	n/a	n/a	n/a
3020504	RECOG_RESP	n/a	LTP140	ltpFR	19	5	1	DIRECTOR	471	1	n/a	1	n/a	n/a	n/a	n/a	n/a
3020953	RECOG_CONF	n/a	LTP140	ltpFR	19	5	1	DIRECTOR	471	n/a	2	1	n/a	n/a	n/a	n/a	n/a
3022187	RECOG_TARGET	n/a	LTP140	ltpFR	19	5	-1	RECIPE	1175	1	5	-1	n/a	n/a	n/a	n/a	n/a
3022833	RECOG_RESP	n/a	LTP140	ltpFR	19	5	-1	RECIPE	1175	1	n/a	-1	n/a	n/a	n/a	n/a	n/a
3023258	RECOG_CONF	n/a	LTP140	ltpFR	19	5	-1	RECIPE	1175	n/a	5	-1	n/a	n/a	n/a	n/a	n/a
3024528	RECOG_TARGET	n/a	LTP140	ltpFR	19	5	-1	ASSOCIATE	49	0	2	-1	n/a	n/a	n/a	n/a	n/a
3025413	RECOG_RESP	n/a	LTP140	ltpFR	19	5	-1	ASSOCIATE	49	0	n/a	-1	n/a	n/a	n/a	n/a	n/a
3025921	RECOG_CONF	n/a	LTP140	ltpFR	19	5	-1	ASSOCIATE	49	n/a	2	-1	n/a	n/a	n/a	n/a	n/a
3027227	RECOG_TARGET	n/a	LTP140	ltpFR	19	5	0	SCARECROW	1245	1	5	1	n/a	n/a	n/a	n/a	n/a
3027917	RECOG_RESP	n/a	LTP140	ltpFR	19	5	0	SCARECROW	1245	1	n/a	1	n/a	n/a	n/a	n/a	n/a
3028326	RECOG_CONF	n/a	LTP140	ltpFR	19	5	0	SCARECROW	1245	n/a	5	1	n/a	n/a	n/a	n/a	n/a
3031242	REC_START	n/a	LTP140	ltpFR	19	6	n/a	n/a	n/a	n/a	n/a	n/a	n/a	n/a	n/a	n/a	n/a
3031275	RECOG_TARGET	n/a	LTP140	ltpFR	19	6	-1	LIMOUSINE	824	1	5	-1	n/a	n/a	n/a	n/a	n/a
3031925	RECOG_RESP	n/a	LTP140	ltpFR	19	6	-1	LIMOUSINE	824	1	n/a	-1	n/a	n/a	n/a	n/a	n/a
3032374	RECOG_CONF	n/a	LTP140	ltpFR	19	6	-1	LIMOUSINE	824	n/a	5	-1	n/a	n/a	n/a	n/a	n/a
3033624	RECOG_TARGET	n/a	LTP140	ltpFR	19	6	0	DUST	508	1	2	0	n/a	n/a	n/a	n/a	n/a
3034509	RECOG_RESP	n/a	LTP140	ltpFR	19	6	0	DUST	508	1	n/a	0	n/a	n/a	n/a	n/a	n/a
3035098	RECOG_CONF	n/a	LTP140	ltpFR	19	6	0	DUST	508	n/a	2	0	n/a	n/a	n/a	n/a	n/a
3036373	RECOG_TARGET	n/a	LTP140	ltpFR	19	6	1	PLASTER	1085	1	5	0	n/a	n/a	n/a	n/a	n/a
3036974	RECOG_RESP	n/a	LTP140	ltpFR	19	6	1	PLASTER	1085	1	n/a	0	n/a	n/a	n/a	n/a	n/a
3037403	RECOG_CONF	n/a	LTP140	ltpFR	19	6	1	PLASTER	1085	n/a	5	0	n/a	n/a	n/a	n/a	n/a
3038639	RECOG_LURE	n/a	LTP140	ltpFR	19	6	n/a	HATCHET	691	0	2	n/a	n/a	n/a	n/a	n/a	n/a
3039259	RECOG_RESP	n/a	LTP140	ltpFR	19	6	n/a	HATCHET	691	0	n/a	n/a	n/a	n/a	n/a	n/a	n/a
3039708	RECOG_CONF	n/a	LTP140	ltpFR	19	6	n/a	HATCHET	691	n/a	2	n/a	n/a	n/a	n/a	n/a	n/a
3040955	RECOG_LURE	n/a	LTP140	ltpFR	19	6	n/a	SUGAR	1401	0	3	n/a	n/a	n/a	n/a	n/a	n/a
3041593	RECOG_RESP	n/a	LTP140	ltpFR	19	6	n/a	SUGAR	1401	0	n/a	n/a	n/a	n/a	n/a	n/a	n/a
3042052	RECOG_CONF	n/a	LTP140	ltpFR	19	6	n/a	SUGAR	1401	n/a	3	n/a	n/a	n/a	n/a	n/a	n/a
3043271	RECOG_TARGET	n/a	LTP140	ltpFR	19	6	-1	DESSERT	453	1	4	-1	n/a	n/a	n/a	n/a	n/a
3043983	RECOG_RESP	n/a	LTP140	ltpFR	19	6	-1	DESSERT	453	1	n/a	-1	n/a	n/a	n/a	n/a	n/a
3044477	RECOG_CONF	n/a	LTP140	ltpFR	19	6	-1	DESSERT	453	n/a	4	-1	n/a	n/a	n/a	n/a	n/a
3045704	RECOG_TARGET	n/a	LTP140	ltpFR	19	6	-1	TOTE	1487	1	5	-1	n/a	n/a	n/a	n/a	n/a
3046278	RECOG_RESP	n/a	LTP140	ltpFR	19	6	-1	TOTE	1487	1	n/a	-1	n/a	n/a	n/a	n/a	n/a
3046712	RECOG_CONF	n/a	LTP140	ltpFR	19	6	-1	TOTE	1487	n/a	5	-1	n/a	n/a	n/a	n/a	n/a
3047944	RECOG_TARGET	n/a	LTP140	ltpFR	19	6	-1	PURSE	1145	1	2	-1	n/a	n/a	n/a	n/a	n/a
3048433	RECOG_RESP	n/a	LTP140	ltpFR	19	6	-1	PURSE	1145	1	n/a	-1	n/a	n/a	n/a	n/a	n/a
3048957	RECOG_CONF	n/a	LTP140	ltpFR	19	6	-1	PURSE	1145	n/a	2	-1	n/a	n/a	n/a	n/a	n/a
3050193	RECOG_TARGET	n/a	LTP140	ltpFR	19	6	1	HOSPITAL	721	1	4	0	n/a	n/a	n/a	n/a	n/a
3050782	RECOG_RESP	n/a	LTP140	ltpFR	19	6	1	HOSPITAL	721	1	n/a	0	n/a	n/a	n/a	n/a	n/a
3051281	RECOG_CONF	n/a	LTP140	ltpFR	19	6	1	HOSPITAL	721	n/a	4	0	n/a	n/a	n/a	n/a	n/a
3052426	RECOG_TARGET	n/a	LTP140	ltpFR	19	6	1	MARINE	869	1	4	0	n/a	n/a	n/a	n/a	n/a
3052972	RECOG_RESP	n/a	LTP140	ltpFR	19	6	1	MARINE	869	1	n/a	0	n/a	n/a	n/a	n/a	n/a
3053476	RECOG_CONF	n/a	LTP140	ltpFR	19	6	1	MARINE	869	n/a	4	0	n/a	n/a	n/a	n/a	n/a
3054668	RECOG_LURE	n/a	LTP140	ltpFR	19	6	n/a	BASSINET	97	0	4	n/a	n/a	n/a	n/a	n/a	n/a
3055332	RECOG_RESP	n/a	LTP140	ltpFR	19	6	n/a	BASSINET	97	0	n/a	n/a	n/a	n/a	n/a	n/a	n/a
3055866	RECOG_CONF	n/a	LTP140	ltpFR	19	6	n/a	BASSINET	97	n/a	4	n/a	n/a	n/a	n/a	n/a	n/a
3057033	RECOG_LURE	n/a	LTP140	ltpFR	19	6	n/a	CANDLE	229	0	3	n/a	n/a	n/a	n/a	n/a	n/a
3057677	RECOG_RESP	n/a	LTP140	ltpFR	19	6	n/a	CANDLE	229	0	n/a	n/a	n/a	n/a	n/a	n/a	n/a
3058136	RECOG_CONF	n/a	LTP140	ltpFR	19	6	n/a	CANDLE	229	n/a	3	n/a	n/a	n/a	n/a	n/a	n/a
3059365	RECOG_LURE	n/a	LTP140	ltpFR	19	6	n/a	GLUE	643	0	4	n/a	n/a	n/a	n/a	n/a	n/a
3060006	RECOG_RESP	n/a	LTP140	ltpFR	19	6	n/a	GLUE	643	0	n/a	n/a	n/a	n/a	n/a	n/a	n/a
3060556	RECOG_CONF	n/a	LTP140	ltpFR	19	6	n/a	GLUE	643	n/a	4	n/a	n/a	n/a	n/a	n/a	n/a
3061699	RECOG_LURE	n/a	LTP140	ltpFR	19	6	n/a	BACON	67	0	4	n/a	n/a	n/a	n/a	n/a	n/a
3062326	RECOG_RESP	n/a	LTP140	ltpFR	19	6	n/a	BACON	67	0	n/a	n/a	n/a	n/a	n/a	n/a	n/a
3062860	RECOG_CONF	n/a	LTP140	ltpFR	19	6	n/a	BACON	67	n/a	4	n/a	n/a	n/a	n/a	n/a	n/a
3064088	RECOG_TARGET	n/a	LTP140	ltpFR	19	6	1	RELATIVE	1182	0	2	1	n/a	n/a	n/a	n/a	n/a
3065180	RECOG_RESP	n/a	LTP140	ltpFR	19	6	1	RELATIVE	1182	0	n/a	1	n/a	n/a	n/a	n/a	n/a
3065718	RECOG_CONF	n/a	LTP140	ltpFR	19	6	1	RELATIVE	1182	n/a	2	1	n/a	n/a	n/a	n/a	n/a
3067004	RECOG_TARGET	n/a	LTP140	ltpFR	19	6	1	KID	775	1	5	1	n/a	n/a	n/a	n/a	n/a
3067709	RECOG_RESP	n/a	LTP140	ltpFR	19	6	1	KID	775	1	n/a	1	n/a	n/a	n/a	n/a	n/a
3068173	RECOG_CONF	n/a	LTP140	ltpFR	19	6	1	KID	775	n/a	5	1	n/a	n/a	n/a	n/a	n/a
3069403	RECOG_TARGET	n/a	LTP140	ltpFR	19	6	1	STADIUM	1364	1	4	0	n/a	n/a	n/a	n/a	n/a
3069994	RECOG_RESP	n/a	LTP140	ltpFR	19	6	1	STADIUM	1364	1	n/a	0	n/a	n/a	n/a	n/a	n/a
3070528	RECOG_CONF	n/a	LTP140	ltpFR	19	6	1	STADIUM	1364	n/a	4	0	n/a	n/a	n/a	n/a	n/a
3071761	RECOG_TARGET	n/a	LTP140	ltpFR	19	6	-1	PEBBLE	1035	1	4	-1	n/a	n/a	n/a	n/a	n/a
3072363	RECOG_RESP	n/a	LTP140	ltpFR	19	6	-1	PEBBLE	1035	1	n/a	-1	n/a	n/a	n/a	n/a	n/a
3072862	RECOG_CONF	n/a	LTP140	ltpFR	19	6	-1	PEBBLE	1035	n/a	4	-1	n/a	n/a	n/a	n/a	n/a
3074093	RECOG_TARGET	n/a	LTP140	ltpFR	19	6	0	CAKE	219	1	2	0	n/a	n/a	n/a	n/a	n/a
3074728	RECOG_RESP	n/a	LTP140	ltpFR	19	6	0	CAKE	219	1	n/a	0	n/a	n/a	n/a	n/a	n/a
3075217	RECOG_CONF	n/a	LTP140	ltpFR	19	6	0	CAKE	219	n/a	2	0	n/a	n/a	n/a	n/a	n/a
3076559	RECOG_LURE	n/a	LTP140	ltpFR	19	6	n/a	KETTLE	772	1	1	n/a	n/a	n/a	n/a	n/a	n/a
3077038	RECOG_RESP	n/a	LTP140	ltpFR	19	6	n/a	KETTLE	772	1	n/a	n/a	n/a	n/a	n/a	n/a	n/a
3077532	RECOG_CONF	n/a	LTP140	ltpFR	19	6	n/a	KETTLE	772	n/a	1	n/a	n/a	n/a	n/a	n/a	n/a
3080278	REC_START	n/a	LTP140	ltpFR	19	7	n/a	n/a	n/a	n/a	n/a	n/a	n/a	n/a	n/a	n/a	n/a
3080308	RECOG_TARGET	n/a	LTP140	ltpFR	19	7	1	PIKE	1067	1	5	1	n/a	n/a	n/a	n/a	n/a
3080961	RECOG_RESP	n/a	LTP140	ltpFR	19	7	1	PIKE	1067	1	n/a	1	n/a	n/a	n/a	n/a	n/a
3081430	RECOG_CONF	n/a	LTP140	ltpFR	19	7	1	PIKE	1067	n/a	5	1	n/a	n/a	n/a	n/a	n/a
3082741	RECOG_LURE	n/a	LTP140	ltpFR	19	7	n/a	GENTLEMAN	631	1	4	n/a	n/a	n/a	n/a	n/a	n/a
3083396	RECOG_RESP	n/a	LTP140	ltpFR	19	7	n/a	GENTLEMAN	631	1	n/a	n/a	n/a	n/a	n/a	n/a	n/a
3083835	RECOG_CONF	n/a	LTP140	ltpFR	19	7	n/a	GENTLEMAN	631	n/a	4	n/a	n/a	n/a	n/a	n/a	n/a
3085081	RECOG_TARGET	n/a	LTP140	ltpFR	19	7	-1	AUTOMOBILE	62	1	5	-1	n/a	n/a	n/a	n/a	n/a
3085725	RECOG_RESP	n/a	LTP140	ltpFR	19	7	-1	AUTOMOBILE	62	1	n/a	-1	n/a	n/a	n/a	n/a	n/a
3086219	RECOG_CONF	n/a	LTP140	ltpFR	19	7	-1	AUTOMOBILE	62	n/a	5	-1	n/a	n/a	n/a	n/a	n/a
3087397	RECOG_TARGET	n/a	LTP140	ltpFR	19	7	1	NECKLACE	940	0	2	0	n/a	n/a	n/a	n/a	n/a
3088050	RECOG_RESP	n/a	LTP140	ltpFR	19	7	1	NECKLACE	940	0	n/a	0	n/a	n/a	n/a	n/a	n/a
3088574	RECOG_CONF	n/a	LTP140	ltpFR	19	7	1	NECKLACE	940	n/a	2	0	n/a	n/a	n/a	n/a	n/a
3089829	RECOG_TARGET	n/a	LTP140	ltpFR	19	7	1	SEA	1259	1	4	0	n/a	n/a	n/a	n/a	n/a
3090460	RECOG_RESP	n/a	LTP140	ltpFR	19	7	1	SEA	1259	1	n/a	0	n/a	n/a	n/a	n/a	n/a
3090949	RECOG_CONF	n/a	LTP140	ltpFR	19	7	1	SEA	1259	n/a	4	0	n/a	n/a	n/a	n/a	n/a
3092187	RECOG_TARGET	n/a	LTP140	ltpFR	19	7	1	GOAT	644	1	5	1	n/a	n/a	n/a	n/a	n/a
3092739	RECOG_RESP	n/a	LTP140	ltpFR	19	7	1	GOAT	644	1	n/a	1	n/a	n/a	n/a	n/a	n/a
3093193	RECOG_CONF	n/a	LTP140	ltpFR	19	7	1	GOAT	644	n/a	5	1	n/a	n/a	n/a	n/a	n/a
3094503	RECOG_TARGET	n/a	LTP140	ltpFR	19	7	0	TURKEY	1520	1	5	1	n/a	n/a	n/a	n/a	n/a
3095004	RECOG_RESP	n/a	LTP140	ltpFR	19	7	0	TURKEY	1520	1	n/a	1	n/a	n/a	n/a	n/a	n/a
3095488	RECOG_CONF	n/a	LTP140	ltpFR	19	7	0	TURKEY	1520	n/a	5	1	n/a	n/a	n/a	n/a	n/a
3096686	RECOG_LURE	n/a	LTP140	ltpFR	19	7	n/a	BAKER	71	0	5	n/a	n/a	n/a	n/a	n/a	n/a
3097349	RECOG_RESP	n/a	LTP140	ltpFR	19	7	n/a	BAKER	71	0	n/a	n/a	n/a	n/a	n/a	n/a	n/a
3097803	RECOG_CONF	n/a	LTP140	ltpFR	19	7	n/a	BAKER	71	n/a	5	n/a	n/a	n/a	n/a	n/a	n/a
3099076	RECOG_LURE	n/a	LTP140	ltpFR	19	7	n/a	BOXER	160	0	5	n/a	n/a	n/a	n/a	n/a	n/a
3099664	RECOG_RESP	n/a	LTP140	ltpFR	19	7	n/a	BOXER	160	0	n/a	n/a	n/a	n/a	n/a	n/a	n/a
3100118	RECOG_CONF	n/a	LTP140	ltpFR	19	7	n/a	BOXER	160	n/a	5	n/a	n/a	n/a	n/a	n/a	n/a
3101359	RECOG_LURE	n/a	LTP140	ltpFR	19	7	n/a	SCISSORS	1250	0	5	n/a	n/a	n/a	n/a	n/a	n/a
3101973	RECOG_RESP	n/a	LTP140	ltpFR	19	7	n/a	SCISSORS	1250	0	n/a	n/a	n/a	n/a	n/a	n/a	n/a
3102442	RECOG_CONF	n/a	LTP140	ltpFR	19	7	n/a	SCISSORS	1250	n/a	5	n/a	n/a	n/a	n/a	n/a	n/a
3103684	RECOG_TARGET	n/a	LTP140	ltpFR	19	7	1	BOOTH	151	1	4	0	n/a	n/a	n/a	n/a	n/a
3104268	RECOG_RESP	n/a	LTP140	ltpFR	19	7	1	BOOTH	151	1	n/a	0	n/a	n/a	n/a	n/a	n/a
3104777	RECOG_CONF	n/a	LTP140	ltpFR	19	7	1	BOOTH	151	n/a	4	0	n/a	n/a	n/a	n/a	n/a
3105990	RECOG_TARGET	n/a	LTP140	ltpFR	19	7	1	SNOB	1335	1	4	1	n/a	n/a	n/a	n/a	n/a
3106573	RECOG_RESP	n/a	LTP140	ltpFR	19	7	1	SNOB	1335	1	n/a	1	n/a	n/a	n/a	n/a	n/a
3107042	RECOG_CONF	n/a	LTP140	ltpFR	19	7	1	SNOB	1335	n/a	4	1	n/a	n/a	n/a	n/a	n/a
3108248	RECOG_TARGET	n/a	LTP140	ltpFR	19	7	1	PALM	1007	1	4	1	n/a	n/a	n/a	n/a	n/a
3108793	RECOG_RESP	n/a	LTP140	ltpFR	19	7	1	PALM	1007	1	n/a	1	n/a	n/a	n/a	n/a	n/a
3109277	RECOG_CONF	n/a	LTP140	ltpFR	19	7	1	PALM	1007	n/a	4	1	n/a	n/a	n/a	n/a	n/a
3110514	RECOG_LURE	n/a	LTP140	ltpFR	19	7	n/a	MICROWAVE	892	1	2	n/a	n/a	n/a	n/a	n/a	n/a
3111068	RECOG_RESP	n/a	LTP140	ltpFR	19	7	n/a	MICROWAVE	892	1	n/a	n/a	n/a	n/a	n/a	n/a	n/a
3111552	RECOG_CONF	n/a	LTP140	ltpFR	19	7	n/a	MICROWAVE	892	n/a	2	n/a	n/a	n/a	n/a	n/a	n/a
3112863	RECOG_TARGET	n/a	LTP140	ltpFR	19	7	0	PATROL	1027	0	2	1	n/a	n/a	n/a	n/a	n/a
3113617	RECOG_RESP	n/a	LTP140	ltpFR	19	7	0	PATROL	1027	0	n/a	1	n/a	n/a	n/a	n/a	n/a
3114066	RECOG_CONF	n/a	LTP140	ltpFR	19	7	0	PATROL	1027	n/a	2	1	n/a	n/a	n/a	n/a	n/a
3115370	RECOG_LURE	n/a	LTP140	ltpFR	19	7	n/a	UTENSIL	1542	0	3	n/a	n/a	n/a	n/a	n/a	n/a
3116076	RECOG_RESP	n/a	LTP140	ltpFR	19	7	n/a	UTENSIL	1542	0	n/a	n/a	n/a	n/a	n/a	n/a	n/a
3116560	RECOG_CONF	n/a	LTP140	ltpFR	19	7	n/a	UTENSIL	1542	n/a	3	n/a	n/a	n/a	n/a	n/a	n/a
3117794	RECOG_TARGET	n/a	LTP140	ltpFR	19	7	0	PIN	1072	1	5	0	n/a	n/a	n/a	n/a	n/a
3118436	RECOG_RESP	n/a	LTP140	ltpFR	19	7	0	PIN	1072	1	n/a	0	n/a	n/a	n/a	n/a	n/a
