onset	duration	trial_type	sample	stim_file	subject	experiment	session	trial	item_name	item_num	list	answer	test_x	test_y	test_z
206.796	n/a	SESS_START	103398	n/a	LTP301	ltpFR2	15	n/a	n/a	n/a	n/a	n/a	0	0	0
257.768	n/a	START	128884	n/a	LTP301	ltpFR2	15	n/a	n/a	n/a	-1	n/a	n/a	n/a	n/a
257.788	n/a	PROB	128894	n/a	LTP301	ltpFR2	15	n/a	n/a	n/a	-1	14	7	5	2
260.548	n/a	PROB	130274	n/a	LTP301	ltpFR2	15	n/a	n/a	n/a	-1	10	3	4	3
263.386	n/a	PROB	131693	n/a	LTP301	ltpFR2	15	n/a	n/a	n/a	-1	18	7	7	4
265.236	n/a	PROB	132618	n/a	LTP301	ltpFR2	15	n/a	n/a	n/a	-1	14	7	3	4
269.768	n/a	STOP	134884	n/a	LTP301	ltpFR2	15	n/a	n/a	n/a	-1	n/a	n/a	n/a	n/a
289.522	n/a	WORD	144761	wordpools/wasnorm_wordpool_576.txt	LTP301	ltpFR2	15	1	PEDAL	1037	n/a	n/a	0	0	0
292.002	n/a	WORD	146001	wordpools/wasnorm_wordpool_576.txt	LTP301	ltpFR2	15	1	KITCHEN	778	n/a	n/a	0	0	0
294.742	n/a	WORD	147371	wordpools/wasnorm_wordpool_576.txt	LTP301	ltpFR2	15	1	COOKBOOK	373	n/a	n/a	0	0	0
297.458	n/a	WORD	148729	wordpools/wasnorm_wordpool_576.txt	LTP301	ltpFR2	15	1	LADY	794	n/a	n/a	0	0	0
299.992	n/a	WORD	149996	wordpools/wasnorm_wordpool_576.txt	LTP301	ltpFR2	15	1	COFFEE	341	n/a	n/a	0	0	0
302.494	n/a	WORD	151247	wordpools/wasnorm_wordpool_576.txt	LTP301	ltpFR2	15	1	PLATE	1086	n/a	n/a	0	0	0
304.998	n/a	WORD	152499	wordpools/wasnorm_wordpool_576.txt	LTP301	ltpFR2	15	1	CAFE	216	n/a	n/a	0	0	0
307.432	n/a	WORD	153716	wordpools/wasnorm_wordpool_576.txt	LTP301	ltpFR2	15	1	PUDDLE	1140	n/a	n/a	0	0	0
309.85	n/a	WORD	154925	wordpools/wasnorm_wordpool_576.txt	LTP301	ltpFR2	15	1	DRESSER	496	n/a	n/a	0	0	0
312.508	n/a	WORD	156254	wordpools/wasnorm_wordpool_576.txt	LTP301	ltpFR2	15	1	SEAGULL	1261	n/a	n/a	0	0	0
315.322	n/a	WORD	157661	wordpools/wasnorm_wordpool_576.txt	LTP301	ltpFR2	15	1	AIRPLANE	12	n/a	n/a	0	0	0
318.008	n/a	WORD	159004	wordpools/wasnorm_wordpool_576.txt	LTP301	ltpFR2	15	1	ROBOT	1200	n/a	n/a	0	0	0
320.61	n/a	WORD	160305	wordpools/wasnorm_wordpool_576.txt	LTP301	ltpFR2	15	1	STAPLE	1371	n/a	n/a	0	0	0
323.046	n/a	WORD	161523	wordpools/wasnorm_wordpool_576.txt	LTP301	ltpFR2	15	1	TUBA	1515	n/a	n/a	0	0	0
325.514	n/a	WORD	162757	wordpools/wasnorm_wordpool_576.txt	LTP301	ltpFR2	15	1	VAGRANT	1544	n/a	n/a	0	0	0
327.934	n/a	WORD	163967	wordpools/wasnorm_wordpool_576.txt	LTP301	ltpFR2	15	1	GLOBE	641	n/a	n/a	0	0	0
330.656	n/a	WORD	165328	wordpools/wasnorm_wordpool_576.txt	LTP301	ltpFR2	15	1	SALAD	1224	n/a	n/a	0	0	0
333.172	n/a	WORD	166586	wordpools/wasnorm_wordpool_576.txt	LTP301	ltpFR2	15	1	ZEBRA	1635	n/a	n/a	0	0	0
335.706	n/a	WORD	167853	wordpools/wasnorm_wordpool_576.txt	LTP301	ltpFR2	15	1	CREATURE	403	n/a	n/a	0	0	0
338.278	n/a	WORD	169139	wordpools/wasnorm_wordpool_576.txt	LTP301	ltpFR2	15	1	CHEST	295	n/a	n/a	0	0	0
340.71	n/a	WORD	170355	wordpools/wasnorm_wordpool_576.txt	LTP301	ltpFR2	15	1	QUARTER	1148	n/a	n/a	0	0	0
343.18	n/a	WORD	171590	wordpools/wasnorm_wordpool_576.txt	LTP301	ltpFR2	15	1	SNACK	1331	n/a	n/a	0	0	0
345.666	n/a	WORD	172833	wordpools/wasnorm_wordpool_576.txt	LTP301	ltpFR2	15	1	BANQUET	86	n/a	n/a	0	0	0
348.168	n/a	WORD	174084	wordpools/wasnorm_wordpool_576.txt	LTP301	ltpFR2	15	1	TOURIST	1488	n/a	n/a	0	0	0
349.786	n/a	START	174893	n/a	LTP301	ltpFR2	15	n/a	n/a	n/a	1	n/a	n/a	n/a	n/a
350.606	n/a	DISTRACTOR	175303	n/a	LTP301	ltpFR2	15	1	n/a	n/a	n/a	n/a	0	0	0
350.62	n/a	PROB	175310	n/a	LTP301	ltpFR2	15	n/a	n/a	n/a	1	13	4	8	1
353.974	n/a	PROB	176987	n/a	LTP301	ltpFR2	15	n/a	n/a	n/a	1	13	5	4	4
357.274	n/a	PROB	178637	n/a	LTP301	ltpFR2	15	n/a	n/a	n/a	1	12	1	7	4
359.178	n/a	PROB	179589	n/a	LTP301	ltpFR2	15	n/a	n/a	n/a	1	11	3	4	4
361.08	n/a	PROB	180540	n/a	LTP301	ltpFR2	15	n/a	n/a	n/a	1	19	8	8	3
363.146	n/a	PROB	181573	n/a	LTP301	ltpFR2	15	n/a	n/a	n/a	1	25	8	8	9
366.85	n/a	PROB	183425	n/a	LTP301	ltpFR2	15	n/a	n/a	n/a	1	12	3	3	5
369.402	n/a	PROB	184701	n/a	LTP301	ltpFR2	15	n/a	n/a	n/a	1	17	5	7	5
371.302	n/a	PROB	185651	n/a	LTP301	ltpFR2	15	n/a	n/a	n/a	1	10	8	1	1
372.57	n/a	STOP	186285	n/a	LTP301	ltpFR2	15	n/a	n/a	n/a	1	n/a	n/a	n/a	n/a
375.674	n/a	REC_START	187837	n/a	LTP301	ltpFR2	15	1	n/a	n/a	n/a	n/a	0	0	0
379.696	n/a	REC_WORD	189848	wordpools/wasnorm_wordpool_576.txt	LTP301	ltpFR2	15	1	PEDAL	1037	n/a	n/a	0	0	0
380.706	n/a	REC_WORD	190353	wordpools/wasnorm_wordpool_576.txt	LTP301	ltpFR2	15	1	KITCHEN	778	n/a	n/a	0	0	0
382.11	n/a	REC_WORD	191055	wordpools/wasnorm_wordpool_576.txt	LTP301	ltpFR2	15	1	COOKBOOK	373	n/a	n/a	0	0	0
384.13	n/a	REC_WORD	192065	wordpools/wasnorm_wordpool_576.txt	LTP301	ltpFR2	15	1	COFFEE	341	n/a	n/a	0	0	0
385.218	n/a	REC_WORD	192609	wordpools/wasnorm_wordpool_576.txt	LTP301	ltpFR2	15	1	PLATE	1086	n/a	n/a	0	0	0
386.784	n/a	REC_WORD	193392	wordpools/wasnorm_wordpool_576.txt	LTP301	ltpFR2	15	1	CAFE	216	n/a	n/a	0	0	0
388.63	n/a	REC_WORD	194315	wordpools/wasnorm_wordpool_576.txt	LTP301	ltpFR2	15	1	PUDDLE	1140	n/a	n/a	0	0	0
390.508	n/a	REC_WORD	195254	wordpools/wasnorm_wordpool_576.txt	LTP301	ltpFR2	15	1	LADY	794	n/a	n/a	0	0	0
399.16	n/a	REC_WORD	199580	wordpools/wasnorm_wordpool_576.txt	LTP301	ltpFR2	15	1	BANQUET	86	n/a	n/a	0	0	0
407.574	n/a	REC_WORD	203787	wordpools/wasnorm_wordpool_576.txt	LTP301	ltpFR2	15	1	ZEBRA	1635	n/a	n/a	0	0	0
408.584	n/a	REC_WORD	204292	wordpools/wasnorm_wordpool_576.txt	LTP301	ltpFR2	15	1	CREATURE	403	n/a	n/a	0	0	0
466.112	n/a	WORD	233056	wordpools/wasnorm_wordpool_576.txt	LTP301	ltpFR2	15	2	FOREHEAD	592	n/a	n/a	0	0	0
468.63	n/a	WORD	234315	wordpools/wasnorm_wordpool_576.txt	LTP301	ltpFR2	15	2	CHEMIST	292	n/a	n/a	0	0	0
471.166	n/a	WORD	235583	wordpools/wasnorm_wordpool_576.txt	LTP301	ltpFR2	15	2	FLOWER	584	n/a	n/a	0	0	0
473.836	n/a	WORD	236918	wordpools/wasnorm_wordpool_576.txt	LTP301	ltpFR2	15	2	SCRIBBLE	1256	n/a	n/a	0	0	0
476.312	n/a	WORD	238156	wordpools/wasnorm_wordpool_576.txt	LTP301	ltpFR2	15	2	BUNNY	198	n/a	n/a	0	0	0
478.922	n/a	WORD	239461	wordpools/wasnorm_wordpool_576.txt	LTP301	ltpFR2	15	2	WAGON	1578	n/a	n/a	0	0	0
481.582	n/a	WORD	240791	wordpools/wasnorm_wordpool_576.txt	LTP301	ltpFR2	15	2	BISON	131	n/a	n/a	0	0	0
484.378	n/a	WORD	242189	wordpools/wasnorm_wordpool_576.txt	LTP301	ltpFR2	15	2	OX	994	n/a	n/a	0	0	0
487.062	n/a	WORD	243531	wordpools/wasnorm_wordpool_576.txt	LTP301	ltpFR2	15	2	CRITIC	410	n/a	n/a	0	0	0
489.498	n/a	WORD	244749	wordpools/wasnorm_wordpool_576.txt	LTP301	ltpFR2	15	2	PLUTO	1092	n/a	n/a	0	0	0
491.966	n/a	WORD	245983	wordpools/wasnorm_wordpool_576.txt	LTP301	ltpFR2	15	2	FLASK	576	n/a	n/a	0	0	0
494.684	n/a	WORD	247342	wordpools/wasnorm_wordpool_576.txt	LTP301	ltpFR2	15	2	SKETCH	1315	n/a	n/a	0	0	0
497.17	n/a	WORD	248585	wordpools/wasnorm_wordpool_576.txt	LTP301	ltpFR2	15	2	HORSE	719	n/a	n/a	0	0	0
499.596	n/a	WORD	249798	wordpools/wasnorm_wordpool_576.txt	LTP301	ltpFR2	15	2	ATLAS	53	n/a	n/a	0	0	0
502.35	n/a	WORD	251175	wordpools/wasnorm_wordpool_576.txt	LTP301	ltpFR2	15	2	VELVET	1555	n/a	n/a	0	0	0
504.81	n/a	WORD	252405	wordpools/wasnorm_wordpool_576.txt	LTP301	ltpFR2	15	2	FLESH	579	n/a	n/a	0	0	0
507.354	n/a	WORD	253677	wordpools/wasnorm_wordpool_576.txt	LTP301	ltpFR2	15	2	YARN	1631	n/a	n/a	0	0	0
509.982	n/a	WORD	254991	wordpools/wasnorm_wordpool_576.txt	LTP301	ltpFR2	15	2	LAPEL	800	n/a	n/a	0	0	0
512.692	n/a	WORD	256346	wordpools/wasnorm_wordpool_576.txt	LTP301	ltpFR2	15	2	POSSUM	1112	n/a	n/a	0	0	0
515.328	n/a	WORD	257664	wordpools/wasnorm_wordpool_576.txt	LTP301	ltpFR2	15	2	LAKE	796	n/a	n/a	0	0	0
517.948	n/a	WORD	258974	wordpools/wasnorm_wordpool_576.txt	LTP301	ltpFR2	15	2	CHAUFFEUR	283	n/a	n/a	0	0	0
520.366	n/a	WORD	260183	wordpools/wasnorm_wordpool_576.txt	LTP301	ltpFR2	15	2	RATTLE	1170	n/a	n/a	0	0	0
522.884	n/a	WORD	261442	wordpools/wasnorm_wordpool_576.txt	LTP301	ltpFR2	15	2	CARRIAGE	248	n/a	n/a	0	0	0
525.32	n/a	WORD	262660	wordpools/wasnorm_wordpool_576.txt	LTP301	ltpFR2	15	2	PUPPY	1144	n/a	n/a	0	0	0
526.928	n/a	START	263464	n/a	LTP301	ltpFR2	15	n/a	n/a	n/a	2	n/a	n/a	n/a	n/a
527.834	n/a	DISTRACTOR	263917	n/a	LTP301	ltpFR2	15	2	n/a	n/a	n/a	n/a	0	0	0
527.838	n/a	PROB	263919	n/a	LTP301	ltpFR2	15	n/a	n/a	n/a	2	22	9	6	7
530.746	n/a	PROB	265373	n/a	LTP301	ltpFR2	15	n/a	n/a	n/a	2	17	8	6	3
533.264	n/a	PROB	266632	n/a	LTP301	ltpFR2	15	n/a	n/a	n/a	2	15	9	2	4
535.3	n/a	PROB	267650	n/a	LTP301	ltpFR2	15	n/a	n/a	n/a	2	14	5	3	6
538.018	n/a	PROB	269009	n/a	LTP301	ltpFR2	15	n/a	n/a	n/a	2	18	1	8	9
539.836	n/a	PROB	269918	n/a	LTP301	ltpFR2	15	n/a	n/a	n/a	2	12	8	3	1
542.456	n/a	PROB	271228	n/a	LTP301	ltpFR2	15	n/a	n/a	n/a	2	22	7	5	9
546.242	n/a	PROB	273121	n/a	LTP301	ltpFR2	15	n/a	n/a	n/a	2	26	9	8	9
550.216	n/a	STOP	275108	n/a	LTP301	ltpFR2	15	n/a	n/a	n/a	2	n/a	n/a	n/a	n/a
552.764	n/a	REC_START	276382	n/a	LTP301	ltpFR2	15	2	n/a	n/a	n/a	n/a	0	0	0
555.192	n/a	REC_WORD	277596	wordpools/wasnorm_wordpool_576.txt	LTP301	ltpFR2	15	2	CARRIAGE	248	n/a	n/a	0	0	0
556.122	n/a	REC_WORD	278061	wordpools/wasnorm_wordpool_576.txt	LTP301	ltpFR2	15	2	HORSE	719	n/a	n/a	0	0	0
557.418	n/a	REC_WORD	278709	wordpools/wasnorm_wordpool_576.txt	LTP301	ltpFR2	15	2	OX	994	n/a	n/a	0	0	0
563.102	n/a	REC_WORD	281551	wordpools/wasnorm_wordpool_576.txt	LTP301	ltpFR2	15	2	CHEMIST	292	n/a	n/a	0	0	0
564.874	n/a	REC_WORD	282437	wordpools/wasnorm_wordpool_576.txt	LTP301	ltpFR2	15	2	SCRIBBLE	1256	n/a	n/a	0	0	0
565.924	n/a	REC_WORD	282962	wordpools/wasnorm_wordpool_576.txt	LTP301	ltpFR2	15	2	SKETCH	1315	n/a	n/a	0	0	0
569.686	n/a	REC_WORD	284843	wordpools/wasnorm_wordpool_576.txt	LTP301	ltpFR2	15	2	LAKE	796	n/a	n/a	0	0	0
595.41	n/a	REC_WORD	297705	wordpools/wasnorm_wordpool_576.txt	LTP301	ltpFR2	15	2	BISON	131	n/a	n/a	0	0	0
643.22	n/a	WORD	321610	wordpools/wasnorm_wordpool_576.txt	LTP301	ltpFR2	15	3	REBEL	1172	n/a	n/a	0	0	0
645.938	n/a	WORD	322969	wordpools/wasnorm_wordpool_576.txt	LTP301	ltpFR2	15	3	PANTHER	1009	n/a	n/a	0	0	0
648.508	n/a	WORD	324254	wordpools/wasnorm_wordpool_576.txt	LTP301	ltpFR2	15	3	HAND	683	n/a	n/a	0	0	0
650.928	n/a	WORD	325464	wordpools/wasnorm_wordpool_576.txt	LTP301	ltpFR2	15	3	SKILLET	1317	n/a	n/a	0	0	0
653.494	n/a	WORD	326747	wordpools/wasnorm_wordpool_576.txt	LTP301	ltpFR2	15	3	CRUTCH	417	n/a	n/a	0	0	0
655.916	n/a	WORD	327958	wordpools/wasnorm_wordpool_576.txt	LTP301	ltpFR2	15	3	ELBOW	520	n/a	n/a	0	0	0
658.664	n/a	WORD	329332	wordpools/wasnorm_wordpool_576.txt	LTP301	ltpFR2	15	3	ISLAND	745	n/a	n/a	0	0	0
661.468	n/a	WORD	330734	wordpools/wasnorm_wordpool_576.txt	LTP301	ltpFR2	15	3	GARBAGE	622	n/a	n/a	0	0	0
664.036	n/a	WORD	332018	wordpools/wasnorm_wordpool_576.txt	LTP301	ltpFR2	15	3	LADDER	793	n/a	n/a	0	0	0
666.454	n/a	WORD	333227	wordpools/wasnorm_wordpool_576.txt	LTP301	ltpFR2	15	3	DRINK	498	n/a	n/a	0	0	0
668.922	n/a	WORD	334461	wordpools/wasnorm_wordpool_576.txt	LTP301	ltpFR2	15	3	HIKER	708	n/a	n/a	0	0	0
671.508	n/a	WORD	335754	wordpools/wasnorm_wordpool_576.txt	LTP301	ltpFR2	15	3	ANTLER	29	n/a	n/a	0	0	0
674.266	n/a	WORD	337133	wordpools/wasnorm_wordpool_576.txt	LTP301	ltpFR2	15	3	BEAVER	109	n/a	n/a	0	0	0
676.696	n/a	WORD	338348	wordpools/wasnorm_wordpool_576.txt	LTP301	ltpFR2	15	3	PECAN	1036	n/a	n/a	0	0	0
679.466	n/a	WORD	339733	wordpools/wasnorm_wordpool_576.txt	LTP301	ltpFR2	15	3	TABLE	1426	n/a	n/a	0	0	0
681.884	n/a	WORD	340942	wordpools/wasnorm_wordpool_576.txt	LTP301	ltpFR2	15	3	COUCH	386	n/a	n/a	0	0	0
684.542	n/a	WORD	342271	wordpools/wasnorm_wordpool_576.txt	LTP301	ltpFR2	15	3	COOK	372	n/a	n/a	0	0	0
687.126	n/a	WORD	343563	wordpools/wasnorm_wordpool_576.txt	LTP301	ltpFR2	15	3	PEANUT	1032	n/a	n/a	0	0	0
689.894	n/a	WORD	344947	wordpools/wasnorm_wordpool_576.txt	LTP301	ltpFR2	15	3	MARKET	871	n/a	n/a	0	0	0
692.508	n/a	WORD	346254	wordpools/wasnorm_wordpool_576.txt	LTP301	ltpFR2	15	3	CORAL	378	n/a	n/a	0	0	0
695.132	n/a	WORD	347566	wordpools/wasnorm_wordpool_576.txt	LTP301	ltpFR2	15	3	EXPERT	543	n/a	n/a	0	0	0
697.718	n/a	WORD	348859	wordpools/wasnorm_wordpool_576.txt	LTP301	ltpFR2	15	3	SHELTER	1282	n/a	n/a	0	0	0
700.138	n/a	WORD	350069	wordpools/wasnorm_wordpool_576.txt	LTP301	ltpFR2	15	3	TURTLE	1522	n/a	n/a	0	0	0
702.75	n/a	WORD	351375	wordpools/wasnorm_wordpool_576.txt	LTP301	ltpFR2	15	3	BABY	64	n/a	n/a	0	0	0
704.358	n/a	START	352179	n/a	LTP301	ltpFR2	15	n/a	n/a	n/a	3	n/a	n/a	n/a	n/a
705.24	n/a	DISTRACTOR	352620	n/a	LTP301	ltpFR2	15	3	n/a	n/a	n/a	n/a	0	0	0
705.252	n/a	PROB	352626	n/a	LTP301	ltpFR2	15	n/a	n/a	n/a	3	13	4	3	6
707.62	n/a	PROB	353810	n/a	LTP301	ltpFR2	15	n/a	n/a	n/a	3	8	1	2	5
709.504	n/a	PROB	354752	n/a	LTP301	ltpFR2	15	n/a	n/a	n/a	3	12	9	1	2
711.008	n/a	PROB	355504	n/a	LTP301	ltpFR2	15	n/a	n/a	n/a	3	13	5	1	7
713.674	n/a	PROB	356837	n/a	LTP301	ltpFR2	15	n/a	n/a	n/a	3	5	9	8	6
720.732	n/a	PROB	360366	n/a	LTP301	ltpFR2	15	n/a	n/a	n/a	3	16	6	6	4
723.614	n/a	PROB	361807	n/a	LTP301	ltpFR2	15	n/a	n/a	n/a	3	9	1	7	1
725.75	n/a	PROB	362875	n/a	LTP301	ltpFR2	15	n/a	n/a	n/a	3	18	9	1	8
727.958	n/a	STOP	363979	n/a	LTP301	ltpFR2	15	n/a	n/a	n/a	3	n/a	n/a	n/a	n/a
730.154	n/a	REC_START	365077	n/a	LTP301	ltpFR2	15	3	n/a	n/a	n/a	n/a	0	0	0
735.556	n/a	REC_WORD	367778	wordpools/wasnorm_wordpool_576.txt	LTP301	ltpFR2	15	3	SKILLET	1317	n/a	n/a	0	0	0
737.184	n/a	REC_WORD	368592	wordpools/wasnorm_wordpool_576.txt	LTP301	ltpFR2	15	3	COOK	372	n/a	n/a	0	0	0
739.724	n/a	REC_WORD	369862	wordpools/wasnorm_wordpool_576.txt	LTP301	ltpFR2	15	3	KITCHEN	778	n/a	n/a	0	0	0
745.206	n/a	REC_WORD	372603	wordpools/wasnorm_wordpool_576.txt	LTP301	ltpFR2	15	3	TABLE	1426	n/a	n/a	0	0	0
798.986	n/a	REC_WORD	399493	wordpools/wasnorm_wordpool_576.txt	LTP301	ltpFR2	15	3	CARRIAGE	248	n/a	n/a	0	0	0
800.818	n/a	REC_WORD	400409	wordpools/wasnorm_wordpool_576.txt	LTP301	ltpFR2	15	3	CART	250	n/a	n/a	0	0	0
820.574	n/a	DISTRACTOR	410287	n/a	LTP301	ltpFR2	15	4	n/a	n/a	n/a	n/a	0	0	0
820.576	n/a	START	410288	n/a	LTP301	ltpFR2	15	n/a	n/a	n/a	4	n/a	n/a	n/a	n/a
820.59	n/a	PROB	410295	n/a	LTP301	ltpFR2	15	n/a	n/a	n/a	4	9	3	4	2
824.13	n/a	PROB	412065	n/a	LTP301	ltpFR2	15	n/a	n/a	n/a	4	11	4	1	6
826.294	n/a	PROB	413147	n/a	LTP301	ltpFR2	15	n/a	n/a	n/a	4	13	4	3	6
828.798	n/a	PROB	414399	n/a	LTP301	ltpFR2	15	n/a	n/a	n/a	4	11	2	2	7
831.75	n/a	PROB	415875	n/a	LTP301	ltpFR2	15	n/a	n/a	n/a	4	19	8	6	5
833.918	n/a	PROB	416959	n/a	LTP301	ltpFR2	15	n/a	n/a	n/a	4	10	5	2	3
835.906	n/a	PROB	417953	n/a	LTP301	ltpFR2	15	n/a	n/a	n/a	4	14	2	7	5
838.556	n/a	PROB	419278	n/a	LTP301	ltpFR2	15	n/a	n/a	n/a	4	17	7	4	6
840.458	n/a	PROB	420229	n/a	LTP301	ltpFR2	15	n/a	n/a	n/a	4	13	2	7	4
843.154	n/a	STOP	421577	n/a	LTP301	ltpFR2	15	n/a	n/a	n/a	4	n/a	n/a	n/a	n/a
845.764	n/a	WORD	422882	wordpools/wasnorm_wordpool_576.txt	LTP301	ltpFR2	15	4	PIMPLE	1071	n/a	n/a	0	0	0
848.498	n/a	WORD	424249	wordpools/wasnorm_wordpool_576.txt	LTP301	ltpFR2	15	4	FRECKLE	602	n/a	n/a	0	0	0
850.966	n/a	WORD	425483	wordpools/wasnorm_wordpool_576.txt	LTP301	ltpFR2	15	4	MEAT	883	n/a	n/a	0	0	0
853.62	n/a	WORD	426810	wordpools/wasnorm_wordpool_576.txt	LTP301	ltpFR2	15	4	PEPPER	1047	n/a	n/a	0	0	0
856.104	n/a	WORD	428052	wordpools/wasnorm_wordpool_576.txt	LTP301	ltpFR2	15	4	MUSTARD	935	n/a	n/a	0	0	0
858.806	n/a	WORD	429403	wordpools/wasnorm_wordpool_576.txt	LTP301	ltpFR2	15	4	PIZZA	1079	n/a	n/a	0	0	0
861.442	n/a	WORD	430721	wordpools/wasnorm_wordpool_576.txt	LTP301	ltpFR2	15	4	RECORD	1176	n/a	n/a	0	0	0
864.244	n/a	WORD	432122	wordpools/wasnorm_wordpool_576.txt	LTP301	ltpFR2	15	4	POET	1095	n/a	n/a	0	0	0
866.93	n/a	WORD	433465	wordpools/wasnorm_wordpool_576.txt	LTP301	ltpFR2	15	4	GREASE	660	n/a	n/a	0	0	0
869.416	n/a	WORD	434708	wordpools/wasnorm_wordpool_576.txt	LTP301	ltpFR2	15	4	UNCLE	1536	n/a	n/a	0	0	0
871.9	n/a	WORD	435950	wordpools/wasnorm_wordpool_576.txt	LTP301	ltpFR2	15	4	COUSIN	392	n/a	n/a	0	0	0
874.62	n/a	WORD	437310	wordpools/wasnorm_wordpool_576.txt	LTP301	ltpFR2	15	4	SODA	1341	n/a	n/a	0	0	0
877.272	n/a	WORD	438636	wordpools/wasnorm_wordpool_576.txt	LTP301	ltpFR2	15	4	WITNESS	1618	n/a	n/a	0	0	0
879.706	n/a	WORD	439853	wordpools/wasnorm_wordpool_576.txt	LTP301	ltpFR2	15	4	THRONE	1461	n/a	n/a	0	0	0
882.176	n/a	WORD	441088	wordpools/wasnorm_wordpool_576.txt	LTP301	ltpFR2	15	4	UMPIRE	1535	n/a	n/a	0	0	0
884.946	n/a	WORD	442473	wordpools/wasnorm_wordpool_576.txt	LTP301	ltpFR2	15	4	ICING	732	n/a	n/a	0	0	0
887.432	n/a	WORD	443716	wordpools/wasnorm_wordpool_576.txt	LTP301	ltpFR2	15	4	BARLEY	88	n/a	n/a	0	0	0
889.948	n/a	WORD	444974	wordpools/wasnorm_wordpool_576.txt	LTP301	ltpFR2	15	4	SLUG	1329	n/a	n/a	0	0	0
892.62	n/a	WORD	446310	wordpools/wasnorm_wordpool_576.txt	LTP301	ltpFR2	15	4	DAUGHTER	442	n/a	n/a	0	0	0
895.152	n/a	WORD	447576	wordpools/wasnorm_wordpool_576.txt	LTP301	ltpFR2	15	4	SNAKE	1333	n/a	n/a	0	0	0
897.604	n/a	WORD	448802	wordpools/wasnorm_wordpool_576.txt	LTP301	ltpFR2	15	4	LIGHTNING	820	n/a	n/a	0	0	0
900.34	n/a	WORD	450170	wordpools/wasnorm_wordpool_576.txt	LTP301	ltpFR2	15	4	PROTON	1132	n/a	n/a	0	0	0
903.01	n/a	WORD	451505	wordpools/wasnorm_wordpool_576.txt	LTP301	ltpFR2	15	4	TYPIST	1532	n/a	n/a	0	0	0
905.66	n/a	WORD	452830	wordpools/wasnorm_wordpool_576.txt	LTP301	ltpFR2	15	4	PALACE	1006	n/a	n/a	0	0	0
907.266	n/a	START	453633	n/a	LTP301	ltpFR2	15	n/a	n/a	n/a	5	n/a	n/a	n/a	n/a
908.396	n/a	DISTRACTOR	454198	n/a	LTP301	ltpFR2	15	4	n/a	n/a	n/a	n/a	0	0	0
908.4	n/a	PROB	454200	n/a	LTP301	ltpFR2	15	n/a	n/a	n/a	5	20	8	6	8
911.964	n/a	PROB	455982	n/a	LTP301	ltpFR2	15	n/a	n/a	n/a	5	16	8	3	5
914.818	n/a	PROB	457409	n/a	LTP301	ltpFR2	15	n/a	n/a	n/a	5	19	7	7	5
917.22	n/a	PROB	458610	n/a	LTP301	ltpFR2	15	n/a	n/a	n/a	5	5	3	1	1
919.672	n/a	PROB	459836	n/a	LTP301	ltpFR2	15	n/a	n/a	n/a	5	19	3	5	9
925.01	n/a	PROB	462505	n/a	LTP301	ltpFR2	15	n/a	n/a	n/a	5	13	2	9	2
927.476	n/a	PROB	463738	n/a	LTP301	ltpFR2	15	n/a	n/a	n/a	5	10	2	4	4
931.266	n/a	STOP	465633	n/a	LTP301	ltpFR2	15	n/a	n/a	n/a	5	n/a	n/a	n/a	n/a
933.016	n/a	REC_START	466508	n/a	LTP301	ltpFR2	15	4	n/a	n/a	n/a	n/a	0	0	0
934.566	n/a	REC_WORD	467283	wordpools/wasnorm_wordpool_576.txt	LTP301	ltpFR2	15	4	PALACE	1006	n/a	n/a	0	0	0
935.932	n/a	REC_WORD	467966	wordpools/wasnorm_wordpool_576.txt	LTP301	ltpFR2	15	4	PROTON	1132	n/a	n/a	0	0	0
943.656	n/a	REC_WORD	471828	wordpools/wasnorm_wordpool_576.txt	LTP301	ltpFR2	15	4	BARLEY	88	n/a	n/a	0	0	0
1023.432	n/a	DISTRACTOR	511716	n/a	LTP301	ltpFR2	15	5	n/a	n/a	n/a	n/a	0	0	0
1023.432	n/a	START	511716	n/a	LTP301	ltpFR2	15	n/a	n/a	n/a	6	n/a	n/a	n/a	n/a
1023.448	n/a	PROB	511724	n/a	LTP301	ltpFR2	15	n/a	n/a	n/a	6	24	9	9	6
1025.606	n/a	PROB	512803	n/a	LTP301	ltpFR2	15	n/a	n/a	n/a	6	10	3	5	2
1029.39	n/a	PROB	514695	n/a	LTP301	ltpFR2	15	n/a	n/a	n/a	6	14	8	2	4
1031.728	n/a	PROB	515864	n/a	LTP301	ltpFR2	15	n/a	n/a	n/a	6	16	2	6	8
1033.712	n/a	PROB	516856	n/a	LTP301	ltpFR2	15	n/a	n/a	n/a	6	5	2	2	1
1035.38	n/a	PROB	517690	n/a	LTP301	ltpFR2	15	n/a	n/a	n/a	6	19	2	8	9
1038.4	n/a	PROB	519200	n/a	LTP301	ltpFR2	15	n/a	n/a	n/a	6	9	5	1	3
1040.314	n/a	PROB	520157	n/a	LTP301	ltpFR2	15	n/a	n/a	n/a	6	16	4	8	4
1042.72	n/a	PROB	521360	n/a	LTP301	ltpFR2	15	n/a	n/a	n/a	6	13	8	4	1
1046.464	n/a	STOP	523232	n/a	LTP301	ltpFR2	15	n/a	n/a	n/a	6	n/a	n/a	n/a	n/a
1048.254	n/a	WORD	524127	wordpools/wasnorm_wordpool_576.txt	LTP301	ltpFR2	15	5	SCALLOP	1242	n/a	n/a	0	0	0
1050.958	n/a	WORD	525479	wordpools/wasnorm_wordpool_576.txt	LTP301	ltpFR2	15	5	INMATE	738	n/a	n/a	0	0	0
1053.658	n/a	WORD	526829	wordpools/wasnorm_wordpool_576.txt	LTP301	ltpFR2	15	5	OUTLAW	989	n/a	n/a	0	0	0
1056.462	n/a	WORD	528231	wordpools/wasnorm_wordpool_576.txt	LTP301	ltpFR2	15	5	JURY	766	n/a	n/a	0	0	0
1059.18	n/a	WORD	529590	wordpools/wasnorm_wordpool_576.txt	LTP301	ltpFR2	15	5	PIGMENT	1066	n/a	n/a	0	0	0
1061.732	n/a	WORD	530866	wordpools/wasnorm_wordpool_576.txt	LTP301	ltpFR2	15	5	LAMP	798	n/a	n/a	0	0	0
1064.434	n/a	WORD	532217	wordpools/wasnorm_wordpool_576.txt	LTP301	ltpFR2	15	5	FLASHLIGHT	575	n/a	n/a	0	0	0
1067.07	n/a	WORD	533535	wordpools/wasnorm_wordpool_576.txt	LTP301	ltpFR2	15	5	PIANO	1057	n/a	n/a	0	0	0
1069.722	n/a	WORD	534861	wordpools/wasnorm_wordpool_576.txt	LTP301	ltpFR2	15	5	WRIST	1626	n/a	n/a	0	0	0
1072.192	n/a	WORD	536096	wordpools/wasnorm_wordpool_576.txt	LTP301	ltpFR2	15	5	HAWK	692	n/a	n/a	0	0	0
1074.96	n/a	WORD	537480	wordpools/wasnorm_wordpool_576.txt	LTP301	ltpFR2	15	5	TROMBONE	1508	n/a	n/a	0	0	0
1077.746	n/a	WORD	538873	wordpools/wasnorm_wordpool_576.txt	LTP301	ltpFR2	15	5	PARENT	1013	n/a	n/a	0	0	0
1080.548	n/a	WORD	540274	wordpools/wasnorm_wordpool_576.txt	LTP301	ltpFR2	15	5	STAKE	1368	n/a	n/a	0	0	0
1083.15	n/a	WORD	541575	wordpools/wasnorm_wordpool_576.txt	LTP301	ltpFR2	15	5	ARM	38	n/a	n/a	0	0	0
1085.802	n/a	WORD	542901	wordpools/wasnorm_wordpool_576.txt	LTP301	ltpFR2	15	5	GLOVE	642	n/a	n/a	0	0	0
1088.588	n/a	WORD	544294	wordpools/wasnorm_wordpool_576.txt	LTP301	ltpFR2	15	5	PARROT	1015	n/a	n/a	0	0	0
1091.09	n/a	WORD	545545	wordpools/wasnorm_wordpool_576.txt	LTP301	ltpFR2	15	5	GUITAR	670	n/a	n/a	0	0	0
1093.66	n/a	WORD	546830	wordpools/wasnorm_wordpool_576.txt	LTP301	ltpFR2	15	5	MOP	916	n/a	n/a	0	0	0
1096.478	n/a	WORD	548239	wordpools/wasnorm_wordpool_576.txt	LTP301	ltpFR2	15	5	OUTFIT	988	n/a	n/a	0	0	0
1099.23	n/a	WORD	549615	wordpools/wasnorm_wordpool_576.txt	LTP301	ltpFR2	15	5	SALMON	1227	n/a	n/a	0	0	0
1101.8	n/a	WORD	550900	wordpools/wasnorm_wordpool_576.txt	LTP301	ltpFR2	15	5	SIBLING	1301	n/a	n/a	0	0	0
1104.586	n/a	WORD	552293	wordpools/wasnorm_wordpool_576.txt	LTP301	ltpFR2	15	5	CELLAR	267	n/a	n/a	0	0	0
1107.054	n/a	WORD	553527	wordpools/wasnorm_wordpool_576.txt	LTP301	ltpFR2	15	5	RECEIPT	1173	n/a	n/a	0	0	0
1109.806	n/a	WORD	554903	wordpools/wasnorm_wordpool_576.txt	LTP301	ltpFR2	15	5	PLAZA	1088	n/a	n/a	0	0	0
1111.408	n/a	START	555704	n/a	LTP301	ltpFR2	15	n/a	n/a	n/a	7	n/a	n/a	n/a	n/a
1112.56	n/a	DISTRACTOR	556280	n/a	LTP301	ltpFR2	15	5	n/a	n/a	n/a	n/a	0	0	0
1112.576	n/a	PROB	556288	n/a	LTP301	ltpFR2	15	n/a	n/a	n/a	7	13	5	1	6
1116.144	n/a	PROB	558072	n/a	LTP301	ltpFR2	15	n/a	n/a	n/a	7	23	9	9	5
1118.312	n/a	PROB	559156	n/a	LTP301	ltpFR2	15	n/a	n/a	n/a	7	12	1	8	3
1120.514	n/a	PROB	560257	n/a	LTP301	ltpFR2	15	n/a	n/a	n/a	7	12	6	3	3
1122.382	n/a	PROB	561191	n/a	LTP301	ltpFR2	15	n/a	n/a	n/a	7	15	2	7	6
1125.218	n/a	PROB	562609	n/a	LTP301	ltpFR2	15	n/a	n/a	n/a	7	13	1	4	8
1127.184	n/a	PROB	563592	n/a	LTP301	ltpFR2	15	n/a	n/a	n/a	7	17	9	3	5
1129.722	n/a	PROB	564861	n/a	LTP301	ltpFR2	15	n/a	n/a	n/a	7	14	6	1	7
1131.99	n/a	PROB	565995	n/a	LTP301	ltpFR2	15	n/a	n/a	n/a	7	12	1	9	2
1135.41	n/a	STOP	567705	n/a	LTP301	ltpFR2	15	n/a	n/a	n/a	7	n/a	n/a	n/a	n/a
1137.328	n/a	REC_START	568664	n/a	LTP301	ltpFR2	15	5	n/a	n/a	n/a	n/a	0	0	0
1138.434	n/a	REC_WORD	569217	wordpools/wasnorm_wordpool_576.txt	LTP301	ltpFR2	15	5	CELLAR	267	n/a	n/a	0	0	0
1139.344	n/a	REC_WORD	569672	wordpools/wasnorm_wordpool_576.txt	LTP301	ltpFR2	15	5	RECEIPT	1173	n/a	n/a	0	0	0
1145.202	n/a	REC_WORD	572601	wordpools/wasnorm_wordpool_576.txt	LTP301	ltpFR2	15	5	GLOVE	642	n/a	n/a	0	0	0
1148.196	n/a	REC_WORD	574098	wordpools/wasnorm_wordpool_576.txt	LTP301	ltpFR2	15	5	PLAZA	1088	n/a	n/a	0	0	0
1189.5	n/a	REC_WORD	594750	wordpools/wasnorm_wordpool_576.txt	LTP301	ltpFR2	15	5	INMATE	738	n/a	n/a	0	0	0
1192.088	n/a	REC_WORD	596044	wordpools/wasnorm_wordpool_576.txt	LTP301	ltpFR2	15	5	OUTLAW	989	n/a	n/a	0	0	0
1196.83	n/a	REC_WORD	598415	wordpools/wasnorm_wordpool_576.txt	LTP301	ltpFR2	15	5	JURY	766	n/a	n/a	0	0	0
1227.766	n/a	DISTRACTOR	613883	n/a	LTP301	ltpFR2	15	6	n/a	n/a	n/a	n/a	0	0	0
1227.766	n/a	START	613883	n/a	LTP301	ltpFR2	15	n/a	n/a	n/a	8	n/a	n/a	n/a	n/a
1227.782	n/a	PROB	613891	n/a	LTP301	ltpFR2	15	n/a	n/a	n/a	8	11	2	1	8
1230.202	n/a	PROB	615101	n/a	LTP301	ltpFR2	15	n/a	n/a	n/a	8	10	6	1	3
1233.638	n/a	PROB	616819	n/a	LTP301	ltpFR2	15	n/a	n/a	n/a	8	18	7	9	2
1236.356	n/a	PROB	618178	n/a	LTP301	ltpFR2	15	n/a	n/a	n/a	8	20	9	4	7
1238.592	n/a	PROB	619296	n/a	LTP301	ltpFR2	15	n/a	n/a	n/a	8	13	3	6	4
1240.276	n/a	PROB	620138	n/a	LTP301	ltpFR2	15	n/a	n/a	n/a	8	17	9	4	4
1244.528	n/a	PROB	622264	n/a	LTP301	ltpFR2	15	n/a	n/a	n/a	8	4	1	2	1
1246.346	n/a	PROB	623173	n/a	LTP301	ltpFR2	15	n/a	n/a	n/a	8	19	3	8	8
1248.466	n/a	PROB	624233	n/a	LTP301	ltpFR2	15	n/a	n/a	n/a	8	15	9	1	5
1251.102	n/a	STOP	625551	n/a	LTP301	ltpFR2	15	n/a	n/a	n/a	8	n/a	n/a	n/a	n/a
1252.77	n/a	WORD	626385	wordpools/wasnorm_wordpool_576.txt	LTP301	ltpFR2	15	6	CHAMPAGNE	278	n/a	n/a	0	0	0
1255.432	n/a	WORD	627716	wordpools/wasnorm_wordpool_576.txt	LTP301	ltpFR2	15	6	LACE	792	n/a	n/a	0	0	0
1258.174	n/a	WORD	629087	wordpools/wasnorm_wordpool_576.txt	LTP301	ltpFR2	15	6	BRACES	164	n/a	n/a	0	0	0
1260.92	n/a	WORD	630460	wordpools/wasnorm_wordpool_576.txt	LTP301	ltpFR2	15	6	JAPAN	749	n/a	n/a	0	0	0
1263.338	n/a	WORD	631669	wordpools/wasnorm_wordpool_576.txt	LTP301	ltpFR2	15	6	FARMER	553	n/a	n/a	0	0	0
1265.86	n/a	WORD	632930	wordpools/wasnorm_wordpool_576.txt	LTP301	ltpFR2	15	6	BREAST	171	n/a	n/a	0	0	0
1268.544	n/a	WORD	634272	wordpools/wasnorm_wordpool_576.txt	LTP301	ltpFR2	15	6	MUFFIN	929	n/a	n/a	0	0	0
1271.03	n/a	WORD	635515	wordpools/wasnorm_wordpool_576.txt	LTP301	ltpFR2	15	6	GARLIC	624	n/a	n/a	0	0	0
1273.536	n/a	WORD	636768	wordpools/wasnorm_wordpool_576.txt	LTP301	ltpFR2	15	6	DRESS	495	n/a	n/a	0	0	0
1275.966	n/a	WORD	637983	wordpools/wasnorm_wordpool_576.txt	LTP301	ltpFR2	15	6	HEART	697	n/a	n/a	0	0	0
1278.436	n/a	WORD	639218	wordpools/wasnorm_wordpool_576.txt	LTP301	ltpFR2	15	6	SUMMIT	1405	n/a	n/a	0	0	0
1281.092	n/a	WORD	640546	wordpools/wasnorm_wordpool_576.txt	LTP301	ltpFR2	15	6	CASHIER	254	n/a	n/a	0	0	0
1283.89	n/a	WORD	641945	wordpools/wasnorm_wordpool_576.txt	LTP301	ltpFR2	15	6	TREAT	1501	n/a	n/a	0	0	0
1286.608	n/a	WORD	643304	wordpools/wasnorm_wordpool_576.txt	LTP301	ltpFR2	15	6	KNAPSACK	783	n/a	n/a	0	0	0
1289.044	n/a	WORD	644522	wordpools/wasnorm_wordpool_576.txt	LTP301	ltpFR2	15	6	DASHBOARD	441	n/a	n/a	0	0	0
1291.746	n/a	WORD	645873	wordpools/wasnorm_wordpool_576.txt	LTP301	ltpFR2	15	6	STICKER	1382	n/a	n/a	0	0	0
1294.5	n/a	WORD	647250	wordpools/wasnorm_wordpool_576.txt	LTP301	ltpFR2	15	6	SMOG	1330	n/a	n/a	0	0	0
1297.118	n/a	WORD	648559	wordpools/wasnorm_wordpool_576.txt	LTP301	ltpFR2	15	6	BALLOON	75	n/a	n/a	0	0	0
1299.804	n/a	WORD	649902	wordpools/wasnorm_wordpool_576.txt	LTP301	ltpFR2	15	6	DRIVER	499	n/a	n/a	0	0	0
1302.524	n/a	WORD	651262	wordpools/wasnorm_wordpool_576.txt	LTP301	ltpFR2	15	6	TRUCK	1512	n/a	n/a	0	0	0
1305.194	n/a	WORD	652597	wordpools/wasnorm_wordpool_576.txt	LTP301	ltpFR2	15	6	MILK	895	n/a	n/a	0	0	0
1307.712	n/a	WORD	653856	wordpools/wasnorm_wordpool_576.txt	LTP301	ltpFR2	15	6	PASTA	1021	n/a	n/a	0	0	0
1310.38	n/a	WORD	655190	wordpools/wasnorm_wordpool_576.txt	LTP301	ltpFR2	15	6	TART	1436	n/a	n/a	0	0	0
1313.082	n/a	WORD	656541	wordpools/wasnorm_wordpool_576.txt	LTP301	ltpFR2	15	6	SUPPER	1411	n/a	n/a	0	0	0
1314.686	n/a	START	657343	n/a	LTP301	ltpFR2	15	n/a	n/a	n/a	9	n/a	n/a	n/a	n/a
1315.6	n/a	DISTRACTOR	657800	n/a	LTP301	ltpFR2	15	6	n/a	n/a	n/a	n/a	0	0	0
1315.618	n/a	PROB	657809	n/a	LTP301	ltpFR2	15	n/a	n/a	n/a	9	23	8	4	9
1321.49	n/a	PROB	660745	n/a	LTP301	ltpFR2	15	n/a	n/a	n/a	9	20	8	7	5
1328.48	n/a	PROB	664240	n/a	LTP301	ltpFR2	15	n/a	n/a	n/a	9	10	1	8	1
1329.998	n/a	PROB	664999	n/a	LTP301	ltpFR2	15	n/a	n/a	n/a	9	16	6	2	8
1331.798	n/a	PROB	665899	n/a	LTP301	ltpFR2	15	n/a	n/a	n/a	9	21	4	8	9
1335.018	n/a	PROB	667509	n/a	LTP301	ltpFR2	15	n/a	n/a	n/a	9	11	1	6	4
1338.686	n/a	STOP	669343	n/a	LTP301	ltpFR2	15	n/a	n/a	n/a	9	n/a	n/a	n/a	n/a
1340.556	n/a	REC_START	670278	n/a	LTP301	ltpFR2	15	6	n/a	n/a	n/a	n/a	0	0	0
1343.724	n/a	REC_WORD	671862	wordpools/wasnorm_wordpool_576.txt	LTP301	ltpFR2	15	6	DINNER	468	n/a	n/a	0	0	0
1344.954	n/a	REC_WORD	672477	wordpools/wasnorm_wordpool_576.txt	LTP301	ltpFR2	15	6	TART	1436	n/a	n/a	0	0	0
1347.184	n/a	REC_WORD	673592	wordpools/wasnorm_wordpool_576.txt	LTP301	ltpFR2	15	6	DRESS	495	n/a	n/a	0	0	0
1430.978	n/a	DISTRACTOR	715489	n/a	LTP301	ltpFR2	15	7	n/a	n/a	n/a	n/a	0	0	0
1430.978	n/a	START	715489	n/a	LTP301	ltpFR2	15	n/a	n/a	n/a	10	n/a	n/a	n/a	n/a
1430.994	n/a	PROB	715497	n/a	LTP301	ltpFR2	15	n/a	n/a	n/a	10	11	5	5	1
1432.796	n/a	PROB	716398	n/a	LTP301	ltpFR2	15	n/a	n/a	n/a	10	15	3	9	3
1434.88	n/a	PROB	717440	n/a	LTP301	ltpFR2	15	n/a	n/a	n/a	10	13	8	1	4
1437.682	n/a	PROB	718841	n/a	LTP301	ltpFR2	15	n/a	n/a	n/a	10	1	9	3	1
1439.634	n/a	PROB	719817	n/a	LTP301	ltpFR2	15	n/a	n/a	n/a	10	10	2	5	3
1443.12	n/a	PROB	721560	n/a	LTP301	ltpFR2	15	n/a	n/a	n/a	10	17	3	7	7
1445.654	n/a	PROB	722827	n/a	LTP301	ltpFR2	15	n/a	n/a	n/a	10	19	4	9	5
1447.89	n/a	PROB	723945	n/a	LTP301	ltpFR2	15	n/a	n/a	n/a	10	4	2	1	1
1449.208	n/a	PROB	724604	n/a	LTP301	ltpFR2	15	n/a	n/a	n/a	10	10	1	6	3
1450.758	n/a	PROB	725379	n/a	LTP301	ltpFR2	15	n/a	n/a	n/a	10	18	9	8	1
1454.978	n/a	STOP	727489	n/a	LTP301	ltpFR2	15	n/a	n/a	n/a	10	n/a	n/a	n/a	n/a
1456.072	n/a	WORD	728036	wordpools/wasnorm_wordpool_576.txt	LTP301	ltpFR2	15	7	MONEY	908	n/a	n/a	0	0	0
1458.716	n/a	WORD	729358	wordpools/wasnorm_wordpool_576.txt	LTP301	ltpFR2	15	7	HAMPER	682	n/a	n/a	0	0	0
1461.368	n/a	WORD	730684	wordpools/wasnorm_wordpool_576.txt	LTP301	ltpFR2	15	7	GARDEN	623	n/a	n/a	0	0	0
1463.854	n/a	WORD	731927	wordpools/wasnorm_wordpool_576.txt	LTP301	ltpFR2	15	7	PILOT	1070	n/a	n/a	0	0	0
1466.532	n/a	WORD	733266	wordpools/wasnorm_wordpool_576.txt	LTP301	ltpFR2	15	7	CEILING	265	n/a	n/a	0	0	0
1469.34	n/a	WORD	734670	wordpools/wasnorm_wordpool_576.txt	LTP301	ltpFR2	15	7	PIGEON	1065	n/a	n/a	0	0	0
1472.036	n/a	WORD	736018	wordpools/wasnorm_wordpool_576.txt	LTP301	ltpFR2	15	7	ROOSTER	1209	n/a	n/a	0	0	0
1474.572	n/a	WORD	737286	wordpools/wasnorm_wordpool_576.txt	LTP301	ltpFR2	15	7	BEAST	108	n/a	n/a	0	0	0
1477.264	n/a	WORD	738632	wordpools/wasnorm_wordpool_576.txt	LTP301	ltpFR2	15	7	BANKER	84	n/a	n/a	0	0	0
1479.944	n/a	WORD	739972	wordpools/wasnorm_wordpool_576.txt	LTP301	ltpFR2	15	7	TRACTOR	1493	n/a	n/a	0	0	0
1482.412	n/a	WORD	741206	wordpools/wasnorm_wordpool_576.txt	LTP301	ltpFR2	15	7	ULCER	1533	n/a	n/a	0	0	0
1485.08	n/a	WORD	742540	wordpools/wasnorm_wordpool_576.txt	LTP301	ltpFR2	15	7	STOMACH	1384	n/a	n/a	0	0	0
1487.722	n/a	WORD	743861	wordpools/wasnorm_wordpool_576.txt	LTP301	ltpFR2	15	7	FOX	598	n/a	n/a	0	0	0
1490.184	n/a	WORD	745092	wordpools/wasnorm_wordpool_576.txt	LTP301	ltpFR2	15	7	MESSAGE	888	n/a	n/a	0	0	0
1492.804	n/a	WORD	746402	wordpools/wasnorm_wordpool_576.txt	LTP301	ltpFR2	15	7	HEADBAND	696	n/a	n/a	0	0	0
1495.406	n/a	WORD	747703	wordpools/wasnorm_wordpool_576.txt	LTP301	ltpFR2	15	7	WORLD	1622	n/a	n/a	0	0	0
1498.092	n/a	WORD	749046	wordpools/wasnorm_wordpool_576.txt	LTP301	ltpFR2	15	7	JUNGLE	764	n/a	n/a	0	0	0
1500.894	n/a	WORD	750447	wordpools/wasnorm_wordpool_576.txt	LTP301	ltpFR2	15	7	ROCKET	1202	n/a	n/a	0	0	0
1503.368	n/a	WORD	751684	wordpools/wasnorm_wordpool_576.txt	LTP301	ltpFR2	15	7	HEDGE	699	n/a	n/a	0	0	0
1505.798	n/a	WORD	752899	wordpools/wasnorm_wordpool_576.txt	LTP301	ltpFR2	15	7	SHRUB	1299	n/a	n/a	0	0	0
1508.6	n/a	WORD	754300	wordpools/wasnorm_wordpool_576.txt	LTP301	ltpFR2	15	7	STALLION	1369	n/a	n/a	0	0	0
1511.304	n/a	WORD	755652	wordpools/wasnorm_wordpool_576.txt	LTP301	ltpFR2	15	7	WARDROBE	1587	n/a	n/a	0	0	0
1514.006	n/a	WORD	757003	wordpools/wasnorm_wordpool_576.txt	LTP301	ltpFR2	15	7	CHIPMUNK	304	n/a	n/a	0	0	0
1516.474	n/a	WORD	758237	wordpools/wasnorm_wordpool_576.txt	LTP301	ltpFR2	15	7	PLAID	1080	n/a	n/a	0	0	0
1518.08	n/a	START	759040	n/a	LTP301	ltpFR2	15	n/a	n/a	n/a	11	n/a	n/a	n/a	n/a
1518.964	n/a	DISTRACTOR	759482	n/a	LTP301	ltpFR2	15	7	n/a	n/a	n/a	n/a	0	0	0
1518.976	n/a	PROB	759488	n/a	LTP301	ltpFR2	15	n/a	n/a	n/a	11	9	3	1	5
1521.5	n/a	PROB	760750	n/a	LTP301	ltpFR2	15	n/a	n/a	n/a	11	15	4	9	2
1523.646	n/a	PROB	761823	n/a	LTP301	ltpFR2	15	n/a	n/a	n/a	11	1	2	5	7
1526.67	n/a	PROB	763335	n/a	LTP301	ltpFR2	15	n/a	n/a	n/a	11	9	2	5	2
1531.02	n/a	PROB	765510	n/a	LTP301	ltpFR2	15	n/a	n/a	n/a	11	9	6	1	2
1534.158	n/a	PROB	767079	n/a	LTP301	ltpFR2	15	n/a	n/a	n/a	11	8	1	1	6
1535.79	n/a	PROB	767895	n/a	LTP301	ltpFR2	15	n/a	n/a	n/a	11	21	9	8	4
1541.502	n/a	STOP	770751	n/a	LTP301	ltpFR2	15	n/a	n/a	n/a	11	n/a	n/a	n/a	n/a
1543.966	n/a	REC_START	771983	n/a	LTP301	ltpFR2	15	7	n/a	n/a	n/a	n/a	0	0	0
1544.658	n/a	REC_WORD	772329	wordpools/wasnorm_wordpool_576.txt	LTP301	ltpFR2	15	7	BANKER	84	n/a	n/a	0	0	0
1545.888	n/a	REC_WORD	772944	wordpools/wasnorm_wordpool_576.txt	LTP301	ltpFR2	15	7	MONEY	908	n/a	n/a	0	0	0
1549.09	n/a	REC_WORD	774545	wordpools/wasnorm_wordpool_576.txt	LTP301	ltpFR2	15	7	WARDROBE	1587	n/a	n/a	0	0	0
1552.104	n/a	REC_WORD	776052	wordpools/wasnorm_wordpool_576.txt	LTP301	ltpFR2	15	7	HAMPER	682	n/a	n/a	0	0	0
1558.674	n/a	REC_WORD	779337	wordpools/wasnorm_wordpool_576.txt	LTP301	ltpFR2	15	7	PLAID	1080	n/a	n/a	0	0	0
1634.406	n/a	WORD	817203	wordpools/wasnorm_wordpool_576.txt	LTP301	ltpFR2	15	8	HATCHET	691	n/a	n/a	0	0	0
1637.124	n/a	WORD	818562	wordpools/wasnorm_wordpool_576.txt	LTP301	ltpFR2	15	8	GIRL	637	n/a	n/a	0	0	0
1639.76	n/a	WORD	819880	wordpools/wasnorm_wordpool_576.txt	LTP301	ltpFR2	15	8	ROD	1203	n/a	n/a	0	0	0
1642.428	n/a	WORD	821214	wordpools/wasnorm_wordpool_576.txt	LTP301	ltpFR2	15	8	HOUND	724	n/a	n/a	0	0	0
1644.998	n/a	WORD	822499	wordpools/wasnorm_wordpool_576.txt	LTP301	ltpFR2	15	8	ACTRESS	6	n/a	n/a	0	0	0
1647.454	n/a	WORD	823727	wordpools/wasnorm_wordpool_576.txt	LTP301	ltpFR2	15	8	SCISSORS	1250	n/a	n/a	0	0	0
1650.15	n/a	WORD	825075	wordpools/wasnorm_wordpool_576.txt	LTP301	ltpFR2	15	8	CANDY	230	n/a	n/a	0	0	0
1652.658	n/a	WORD	826329	wordpools/wasnorm_wordpool_576.txt	LTP301	ltpFR2	15	8	RIFLE	1192	n/a	n/a	0	0	0
1655.276	n/a	WORD	827638	wordpools/wasnorm_wordpool_576.txt	LTP301	ltpFR2	15	8	PISTOL	1075	n/a	n/a	0	0	0
1657.912	n/a	WORD	828956	wordpools/wasnorm_wordpool_576.txt	LTP301	ltpFR2	15	8	ACTOR	5	n/a	n/a	0	0	0
1660.608	n/a	WORD	830304	wordpools/wasnorm_wordpool_576.txt	LTP301	ltpFR2	15	8	SUSPECT	1415	n/a	n/a	0	0	0
1663.084	n/a	WORD	831542	wordpools/wasnorm_wordpool_576.txt	LTP301	ltpFR2	15	8	LODGE	839	n/a	n/a	0	0	0
1665.536	n/a	WORD	832768	wordpools/wasnorm_wordpool_576.txt	LTP301	ltpFR2	15	8	FILM	565	n/a	n/a	0	0	0
1667.972	n/a	WORD	833986	wordpools/wasnorm_wordpool_576.txt	LTP301	ltpFR2	15	8	PORTRAIT	1111	n/a	n/a	0	0	0
1670.734	n/a	WORD	835367	wordpools/wasnorm_wordpool_576.txt	LTP301	ltpFR2	15	8	LAVA	804	n/a	n/a	0	0	0
1673.302	n/a	WORD	836651	wordpools/wasnorm_wordpool_576.txt	LTP301	ltpFR2	15	8	MUMMY	932	n/a	n/a	0	0	0
1676.088	n/a	WORD	838044	wordpools/wasnorm_wordpool_576.txt	LTP301	ltpFR2	15	8	STREAM	1392	n/a	n/a	0	0	0
1678.648	n/a	WORD	839324	wordpools/wasnorm_wordpool_576.txt	LTP301	ltpFR2	15	8	KEEPER	769	n/a	n/a	0	0	0
1681.392	n/a	WORD	840696	wordpools/wasnorm_wordpool_576.txt	LTP301	ltpFR2	15	8	MAILBOX	857	n/a	n/a	0	0	0
1683.952	n/a	WORD	841976	wordpools/wasnorm_wordpool_576.txt	LTP301	ltpFR2	15	8	PACKAGE	997	n/a	n/a	0	0	0
1686.428	n/a	WORD	843214	wordpools/wasnorm_wordpool_576.txt	LTP301	ltpFR2	15	8	TUNNEL	1519	n/a	n/a	0	0	0
1689.08	n/a	WORD	844540	wordpools/wasnorm_wordpool_576.txt	LTP301	ltpFR2	15	8	SHELF	1280	n/a	n/a	0	0	0
1691.592	n/a	WORD	845796	wordpools/wasnorm_wordpool_576.txt	LTP301	ltpFR2	15	8	COTTAGE	384	n/a	n/a	0	0	0
1694.304	n/a	WORD	847152	wordpools/wasnorm_wordpool_576.txt	LTP301	ltpFR2	15	8	SAUSAGE	1238	n/a	n/a	0	0	0
1695.914	n/a	START	847957	n/a	LTP301	ltpFR2	15	n/a	n/a	n/a	12	n/a	n/a	n/a	n/a
1697.054	n/a	DISTRACTOR	848527	n/a	LTP301	ltpFR2	15	8	n/a	n/a	n/a	n/a	0	0	0
1697.064	n/a	PROB	848532	n/a	LTP301	ltpFR2	15	n/a	n/a	n/a	12	15	2	7	6
1699.806	n/a	PROB	849903	n/a	LTP301	ltpFR2	15	n/a	n/a	n/a	12	13	3	7	4
1703.476	n/a	PROB	851738	n/a	LTP301	ltpFR2	15	n/a	n/a	n/a	12	12	6	4	2
1706.246	n/a	PROB	853123	n/a	LTP301	ltpFR2	15	n/a	n/a	n/a	12	16	5	4	7
1708.698	n/a	PROB	854349	n/a	LTP301	ltpFR2	15	n/a	n/a	n/a	12	18	1	8	9
1710.95	n/a	PROB	855475	n/a	LTP301	ltpFR2	15	n/a	n/a	n/a	12	14	3	9	2
1714.318	n/a	PROB	857159	n/a	LTP301	ltpFR2	15	n/a	n/a	n/a	12	14	3	8	3
1719.914	n/a	STOP	859957	n/a	LTP301	ltpFR2	15	n/a	n/a	n/a	12	n/a	n/a	n/a	n/a
1721.676	n/a	REC_START	860838	n/a	LTP301	ltpFR2	15	8	n/a	n/a	n/a	n/a	0	0	0
1724.35	n/a	REC_WORD	862175	wordpools/wasnorm_wordpool_576.txt	LTP301	ltpFR2	15	8	MAILBOX	857	n/a	n/a	0	0	0
1725.764	n/a	REC_WORD	862882	wordpools/wasnorm_wordpool_576.txt	LTP301	ltpFR2	15	8	PACKAGE	997	n/a	n/a	0	0	0
1730.764	n/a	REC_WORD	865382	wordpools/wasnorm_wordpool_576.txt	LTP301	ltpFR2	15	8	CANDY	230	n/a	n/a	0	0	0
1746.292	n/a	REC_WORD	873146	wordpools/wasnorm_wordpool_576.txt	LTP301	ltpFR2	15	8	ROD	1203	n/a	n/a	0	0	0
1798.218	n/a	REST_REWET	899109	n/a	LTP301	ltpFR2	15	8	n/a	n/a	n/a	n/a	0	0	0
2056.84	n/a	WORD	1028420	wordpools/wasnorm_wordpool_576.txt	LTP301	ltpFR2	15	9	PICNIC	1060	n/a	n/a	0	0	0
2059.61	n/a	WORD	1029805	wordpools/wasnorm_wordpool_576.txt	LTP301	ltpFR2	15	9	MEDAL	885	n/a	n/a	0	0	0
2062.262	n/a	WORD	1031131	wordpools/wasnorm_wordpool_576.txt	LTP301	ltpFR2	15	9	BANK	83	n/a	n/a	0	0	0
2064.946	n/a	WORD	1032473	wordpools/wasnorm_wordpool_576.txt	LTP301	ltpFR2	15	9	DIME	466	n/a	n/a	0	0	0
2067.482	n/a	WORD	1033741	wordpools/wasnorm_wordpool_576.txt	LTP301	ltpFR2	15	9	BLENDER	136	n/a	n/a	0	0	0
2069.918	n/a	WORD	1034959	wordpools/wasnorm_wordpool_576.txt	LTP301	ltpFR2	15	9	AWARD	63	n/a	n/a	0	0	0
2072.518	n/a	WORD	1036259	wordpools/wasnorm_wordpool_576.txt	LTP301	ltpFR2	15	9	PARSLEY	1016	n/a	n/a	0	0	0
2074.988	n/a	WORD	1037494	wordpools/wasnorm_wordpool_576.txt	LTP301	ltpFR2	15	9	QUEEN	1149	n/a	n/a	0	0	0
2077.79	n/a	WORD	1038895	wordpools/wasnorm_wordpool_576.txt	LTP301	ltpFR2	15	9	LONDON	843	n/a	n/a	0	0	0
2080.242	n/a	WORD	1040121	wordpools/wasnorm_wordpool_576.txt	LTP301	ltpFR2	15	9	INFANT	737	n/a	n/a	0	0	0
2082.71	n/a	WORD	1041355	wordpools/wasnorm_wordpool_576.txt	LTP301	ltpFR2	15	9	KETCHUP	771	n/a	n/a	0	0	0
2085.496	n/a	WORD	1042748	wordpools/wasnorm_wordpool_576.txt	LTP301	ltpFR2	15	9	CLAM	315	n/a	n/a	0	0	0
2087.948	n/a	WORD	1043974	wordpools/wasnorm_wordpool_576.txt	LTP301	ltpFR2	15	9	FUNGUS	614	n/a	n/a	0	0	0
2090.7	n/a	WORD	1045350	wordpools/wasnorm_wordpool_576.txt	LTP301	ltpFR2	15	9	RADISH	1158	n/a	n/a	0	0	0
2093.37	n/a	WORD	1046685	wordpools/wasnorm_wordpool_576.txt	LTP301	ltpFR2	15	9	BLOUSE	139	n/a	n/a	0	0	0
2095.972	n/a	WORD	1047986	wordpools/wasnorm_wordpool_576.txt	LTP301	ltpFR2	15	9	WHISKERS	1605	n/a	n/a	0	0	0
2098.74	n/a	WORD	1049370	wordpools/wasnorm_wordpool_576.txt	LTP301	ltpFR2	15	9	SALT	1229	n/a	n/a	0	0	0
2101.412	n/a	WORD	1050706	wordpools/wasnorm_wordpool_576.txt	LTP301	ltpFR2	15	9	ICEBERG	731	n/a	n/a	0	0	0
2103.996	n/a	WORD	1051998	wordpools/wasnorm_wordpool_576.txt	LTP301	ltpFR2	15	9	TOASTER	1472	n/a	n/a	0	0	0
2106.73	n/a	WORD	1053365	wordpools/wasnorm_wordpool_576.txt	LTP301	ltpFR2	15	9	THIEF	1456	n/a	n/a	0	0	0
2109.402	n/a	WORD	1054701	wordpools/wasnorm_wordpool_576.txt	LTP301	ltpFR2	15	9	ONION	977	n/a	n/a	0	0	0
2112.07	n/a	WORD	1056035	wordpools/wasnorm_wordpool_576.txt	LTP301	ltpFR2	15	9	TRANSPLANT	1496	n/a	n/a	0	0	0
2114.77	n/a	WORD	1057385	wordpools/wasnorm_wordpool_576.txt	LTP301	ltpFR2	15	9	STOVE	1388	n/a	n/a	0	0	0
2117.422	n/a	WORD	1058711	wordpools/wasnorm_wordpool_576.txt	LTP301	ltpFR2	15	9	SISTER	1312	n/a	n/a	0	0	0
2119.028	n/a	START	1059514	n/a	LTP301	ltpFR2	15	n/a	n/a	n/a	13	n/a	n/a	n/a	n/a
2119.854	n/a	DISTRACTOR	1059927	n/a	LTP301	ltpFR2	15	9	n/a	n/a	n/a	n/a	0	0	0
2119.862	n/a	PROB	1059931	n/a	LTP301	ltpFR2	15	n/a	n/a	n/a	13	10	3	2	5
2121.956	n/a	PROB	1060978	n/a	LTP301	ltpFR2	15	n/a	n/a	n/a	13	9	4	3	2
2124.228	n/a	PROB	1062114	n/a	LTP301	ltpFR2	15	n/a	n/a	n/a	13	20	3	8	9
2128.564	n/a	PROB	1064282	n/a	LTP301	ltpFR2	15	n/a	n/a	n/a	13	17	6	7	4
2132.45	n/a	PROB	1066225	n/a	LTP301	ltpFR2	15	n/a	n/a	n/a	13	16	5	8	3
2135.168	n/a	PROB	1067584	n/a	LTP301	ltpFR2	15	n/a	n/a	n/a	13	17	5	7	5
2137.152	n/a	PROB	1068576	n/a	LTP301	ltpFR2	15	n/a	n/a	n/a	13	13	6	1	6
2139.322	n/a	PROB	1069661	n/a	LTP301	ltpFR2	15	n/a	n/a	n/a	13	16	2	5	9
2142.872	n/a	STOP	1071436	n/a	LTP301	ltpFR2	15	n/a	n/a	n/a	13	n/a	n/a	n/a	n/a
2144.876	n/a	REC_START	1072438	n/a	LTP301	ltpFR2	15	9	n/a	n/a	n/a	n/a	0	0	0
2145.81	n/a	REC_WORD	1072905	wordpools/wasnorm_wordpool_576.txt	LTP301	ltpFR2	15	9	TRANSPLANT	1496	n/a	n/a	0	0	0
2146.934	n/a	REC_WORD	1073467	wordpools/wasnorm_wordpool_576.txt	LTP301	ltpFR2	15	9	FATHER	554	n/a	n/a	0	0	0
2148.042	n/a	REC_WORD	1074021	wordpools/wasnorm_wordpool_576.txt	LTP301	ltpFR2	15	9	QUEEN	1149	n/a	n/a	0	0	0
2149.63	n/a	REC_WORD	1074815	wordpools/wasnorm_wordpool_576.txt	LTP301	ltpFR2	15	9	ENGLAND	-1	n/a	n/a	0	0	0
2162.688	n/a	REC_WORD	1081344	wordpools/wasnorm_wordpool_576.txt	LTP301	ltpFR2	15	9	INFANT	737	n/a	n/a	0	0	0
2207.338	n/a	REC_WORD	1103669	wordpools/wasnorm_wordpool_576.txt	LTP301	ltpFR2	15	9	PARSLEY	1016	n/a	n/a	0	0	0
2302.968	n/a	DISTRACTOR	1151484	n/a	LTP301	ltpFR2	15	10	n/a	n/a	n/a	n/a	0	0	0
2302.968	n/a	START	1151484	n/a	LTP301	ltpFR2	15	n/a	n/a	n/a	14	n/a	n/a	n/a	n/a
2302.986	n/a	PROB	1151493	n/a	LTP301	ltpFR2	15	n/a	n/a	n/a	14	16	7	6	3
2307.12	n/a	PROB	1153560	n/a	LTP301	ltpFR2	15	n/a	n/a	n/a	14	8	2	2	4
2309.14	n/a	PROB	1154570	n/a	LTP301	ltpFR2	15	n/a	n/a	n/a	14	13	3	9	1
2310.692	n/a	PROB	1155346	n/a	LTP301	ltpFR2	15	n/a	n/a	n/a	14	15	2	4	9
2313.326	n/a	PROB	1156663	n/a	LTP301	ltpFR2	15	n/a	n/a	n/a	14	17	8	4	5
2316.662	n/a	PROB	1158331	n/a	LTP301	ltpFR2	15	n/a	n/a	n/a	14	10	1	3	6
2318.43	n/a	PROB	1159215	n/a	LTP301	ltpFR2	15	n/a	n/a	n/a	14	16	6	6	2
2321.016	n/a	PROB	1160508	n/a	LTP301	ltpFR2	15	n/a	n/a	n/a	14	17	5	3	9
2323.92	n/a	PROB	1161960	n/a	LTP301	ltpFR2	15	n/a	n/a	n/a	14	8	4	1	3
2326.97	n/a	STOP	1163485	n/a	LTP301	ltpFR2	15	n/a	n/a	n/a	14	n/a	n/a	n/a	n/a
2327.79	n/a	WORD	1163895	wordpools/wasnorm_wordpool_576.txt	LTP301	ltpFR2	15	10	PATIENT	1024	n/a	n/a	0	0	0
2330.61	n/a	WORD	1165305	wordpools/wasnorm_wordpool_576.txt	LTP301	ltpFR2	15	10	BARREL	91	n/a	n/a	0	0	0
2333.426	n/a	WORD	1166713	wordpools/wasnorm_wordpool_576.txt	LTP301	ltpFR2	15	10	HERO	706	n/a	n/a	0	0	0
2336.194	n/a	WORD	1168097	wordpools/wasnorm_wordpool_576.txt	LTP301	ltpFR2	15	10	LEG	809	n/a	n/a	0	0	0
2338.646	n/a	WORD	1169323	wordpools/wasnorm_wordpool_576.txt	LTP301	ltpFR2	15	10	MARROW	872	n/a	n/a	0	0	0
2341.116	n/a	WORD	1170558	wordpools/wasnorm_wordpool_576.txt	LTP301	ltpFR2	15	10	CAPTIVE	240	n/a	n/a	0	0	0
2343.884	n/a	WORD	1171942	wordpools/wasnorm_wordpool_576.txt	LTP301	ltpFR2	15	10	VALVE	1546	n/a	n/a	0	0	0
2346.336	n/a	WORD	1173168	wordpools/wasnorm_wordpool_576.txt	LTP301	ltpFR2	15	10	OUTDOORS	987	n/a	n/a	0	0	0
2349.156	n/a	WORD	1174578	wordpools/wasnorm_wordpool_576.txt	LTP301	ltpFR2	15	10	ANKLE	24	n/a	n/a	0	0	0
2351.744	n/a	WORD	1175872	wordpools/wasnorm_wordpool_576.txt	LTP301	ltpFR2	15	10	IDOL	733	n/a	n/a	0	0	0
2354.426	n/a	WORD	1177213	wordpools/wasnorm_wordpool_576.txt	LTP301	ltpFR2	15	10	RAZOR	1171	n/a	n/a	0	0	0
2356.966	n/a	WORD	1178483	wordpools/wasnorm_wordpool_576.txt	LTP301	ltpFR2	15	10	DUST	508	n/a	n/a	0	0	0
2359.518	n/a	WORD	1179759	wordpools/wasnorm_wordpool_576.txt	LTP301	ltpFR2	15	10	CIGAR	308	n/a	n/a	0	0	0
2362.088	n/a	WORD	1181044	wordpools/wasnorm_wordpool_576.txt	LTP301	ltpFR2	15	10	WAITRESS	1581	n/a	n/a	0	0	0
2364.834	n/a	WORD	1182417	wordpools/wasnorm_wordpool_576.txt	LTP301	ltpFR2	15	10	HOSTESS	723	n/a	n/a	0	0	0
2367.62	n/a	WORD	1183810	wordpools/wasnorm_wordpool_576.txt	LTP301	ltpFR2	15	10	SERVANT	1271	n/a	n/a	0	0	0
2370.088	n/a	WORD	1185044	wordpools/wasnorm_wordpool_576.txt	LTP301	ltpFR2	15	10	AUTHOR	61	n/a	n/a	0	0	0
2372.778	n/a	WORD	1186389	wordpools/wasnorm_wordpool_576.txt	LTP301	ltpFR2	15	10	JUDGE	761	n/a	n/a	0	0	0
2375.398	n/a	WORD	1187699	wordpools/wasnorm_wordpool_576.txt	LTP301	ltpFR2	15	10	TAXI	1438	n/a	n/a	0	0	0
2378.062	n/a	WORD	1189031	wordpools/wasnorm_wordpool_576.txt	LTP301	ltpFR2	15	10	SIDEWALK	1303	n/a	n/a	0	0	0
2380.864	n/a	WORD	1190432	wordpools/wasnorm_wordpool_576.txt	LTP301	ltpFR2	15	10	GRAVEL	659	n/a	n/a	0	0	0
2383.414	n/a	WORD	1191707	wordpools/wasnorm_wordpool_576.txt	LTP301	ltpFR2	15	10	NIGHTGOWN	953	n/a	n/a	0	0	0
2386.134	n/a	WORD	1193067	wordpools/wasnorm_wordpool_576.txt	LTP301	ltpFR2	15	10	MATTRESS	879	n/a	n/a	0	0	0
2388.904	n/a	WORD	1194452	wordpools/wasnorm_wordpool_576.txt	LTP301	ltpFR2	15	10	BLADE	134	n/a	n/a	0	0	0
2390.512	n/a	START	1195256	n/a	LTP301	ltpFR2	15	n/a	n/a	n/a	15	n/a	n/a	n/a	n/a
2391.422	n/a	DISTRACTOR	1195711	n/a	LTP301	ltpFR2	15	10	n/a	n/a	n/a	n/a	0	0	0
2391.428	n/a	PROB	1195714	n/a	LTP301	ltpFR2	15	n/a	n/a	n/a	15	13	5	7	1
2395.09	n/a	PROB	1197545	n/a	LTP301	ltpFR2	15	n/a	n/a	n/a	15	13	3	5	5
2396.942	n/a	PROB	1198471	n/a	LTP301	ltpFR2	15	n/a	n/a	n/a	15	22	8	6	9
2399.912	n/a	PROB	1199956	n/a	LTP301	ltpFR2	15	n/a	n/a	n/a	15	10	1	6	3
2401.962	n/a	PROB	1200981	n/a	LTP301	ltpFR2	15	n/a	n/a	n/a	15	18	2	7	9
2405.532	n/a	PROB	1202766	n/a	LTP301	ltpFR2	15	n/a	n/a	n/a	15	20	9	8	3
2408.352	n/a	PROB	1204176	n/a	LTP301	ltpFR2	15	n/a	n/a	n/a	15	12	8	2	2
2411.004	n/a	PROB	1205502	n/a	LTP301	ltpFR2	15	n/a	n/a	n/a	15	10	2	2	6
2413.256	n/a	STOP	1206628	n/a	LTP301	ltpFR2	15	n/a	n/a	n/a	15	n/a	n/a	n/a	n/a
2416.292	n/a	REC_START	1208146	n/a	LTP301	ltpFR2	15	10	n/a	n/a	n/a	n/a	0	0	0
2418.072	n/a	REC_WORD	1209036	wordpools/wasnorm_wordpool_576.txt	LTP301	ltpFR2	15	10	WAITRESS	1581	n/a	n/a	0	0	0
2419.012	n/a	REC_WORD	1209506	wordpools/wasnorm_wordpool_576.txt	LTP301	ltpFR2	15	10	HOSTESS	723	n/a	n/a	0	0	0
2420.95	n/a	REC_WORD	1210475	wordpools/wasnorm_wordpool_576.txt	LTP301	ltpFR2	15	10	BLADE	134	n/a	n/a	0	0	0
2421.934	n/a	REC_WORD	1210967	wordpools/wasnorm_wordpool_576.txt	LTP301	ltpFR2	15	10	RAZOR	1171	n/a	n/a	0	0	0
2423.042	n/a	REC_WORD	1211521	wordpools/wasnorm_wordpool_576.txt	LTP301	ltpFR2	15	10	MATTRESS	879	n/a	n/a	0	0	0
2486.032	n/a	REC_WORD	1243016	wordpools/wasnorm_wordpool_576.txt	LTP301	ltpFR2	15	10	IDOL	733	n/a	n/a	0	0	0
2506.73	n/a	WORD	1253365	wordpools/wasnorm_wordpool_576.txt	LTP301	ltpFR2	15	11	PLASTER	1085	n/a	n/a	0	0	0
2509.532	n/a	WORD	1254766	wordpools/wasnorm_wordpool_576.txt	LTP301	ltpFR2	15	11	WOMAN	1620	n/a	n/a	0	0	0
2512.2	n/a	WORD	1256100	wordpools/wasnorm_wordpool_576.txt	LTP301	ltpFR2	15	11	CASKET	255	n/a	n/a	0	0	0
2514.752	n/a	WORD	1257376	wordpools/wasnorm_wordpool_576.txt	LTP301	ltpFR2	15	11	GRAVE	658	n/a	n/a	0	0	0
2517.472	n/a	WORD	1258736	wordpools/wasnorm_wordpool_576.txt	LTP301	ltpFR2	15	11	JELLO	754	n/a	n/a	0	0	0
2520.206	n/a	WORD	1260103	wordpools/wasnorm_wordpool_576.txt	LTP301	ltpFR2	15	11	WRENCH	1625	n/a	n/a	0	0	0
2522.742	n/a	WORD	1261371	wordpools/wasnorm_wordpool_576.txt	LTP301	ltpFR2	15	11	JOURNAL	760	n/a	n/a	0	0	0
2525.362	n/a	WORD	1262681	wordpools/wasnorm_wordpool_576.txt	LTP301	ltpFR2	15	11	BEEF	113	n/a	n/a	0	0	0
2528.13	n/a	WORD	1264065	wordpools/wasnorm_wordpool_576.txt	LTP301	ltpFR2	15	11	TROUT	1511	n/a	n/a	0	0	0
2530.632	n/a	WORD	1265316	wordpools/wasnorm_wordpool_576.txt	LTP301	ltpFR2	15	11	TILE	1468	n/a	n/a	0	0	0
2533.284	n/a	WORD	1266642	wordpools/wasnorm_wordpool_576.txt	LTP301	ltpFR2	15	11	BLOCKADE	137	n/a	n/a	0	0	0
2536.086	n/a	WORD	1268043	wordpools/wasnorm_wordpool_576.txt	LTP301	ltpFR2	15	11	TWEEZERS	1526	n/a	n/a	0	0	0
2538.588	n/a	WORD	1269294	wordpools/wasnorm_wordpool_576.txt	LTP301	ltpFR2	15	11	OYSTER	995	n/a	n/a	0	0	0
2541.14	n/a	WORD	1270570	wordpools/wasnorm_wordpool_576.txt	LTP301	ltpFR2	15	11	COCOON	339	n/a	n/a	0	0	0
2543.742	n/a	WORD	1271871	wordpools/wasnorm_wordpool_576.txt	LTP301	ltpFR2	15	11	DANCER	437	n/a	n/a	0	0	0
2546.294	n/a	WORD	1273147	wordpools/wasnorm_wordpool_576.txt	LTP301	ltpFR2	15	11	LUGGAGE	847	n/a	n/a	0	0	0
2548.996	n/a	WORD	1274498	wordpools/wasnorm_wordpool_576.txt	LTP301	ltpFR2	15	11	RAFT	1159	n/a	n/a	0	0	0
2551.484	n/a	WORD	1275742	wordpools/wasnorm_wordpool_576.txt	LTP301	ltpFR2	15	11	KLEENEX	782	n/a	n/a	0	0	0
2553.984	n/a	WORD	1276992	wordpools/wasnorm_wordpool_576.txt	LTP301	ltpFR2	15	11	EAGLE	512	n/a	n/a	0	0	0
2556.454	n/a	WORD	1278227	wordpools/wasnorm_wordpool_576.txt	LTP301	ltpFR2	15	11	POWDER	1117	n/a	n/a	0	0	0
2559.006	n/a	WORD	1279503	wordpools/wasnorm_wordpool_576.txt	LTP301	ltpFR2	15	11	COWBOY	395	n/a	n/a	0	0	0
2561.824	n/a	WORD	1280912	wordpools/wasnorm_wordpool_576.txt	LTP301	ltpFR2	15	11	TRIBE	1505	n/a	n/a	0	0	0
2564.494	n/a	WORD	1282247	wordpools/wasnorm_wordpool_576.txt	LTP301	ltpFR2	15	11	RUG	1215	n/a	n/a	0	0	0
2567.26	n/a	WORD	1283630	wordpools/wasnorm_wordpool_576.txt	LTP301	ltpFR2	15	11	NOVEL	960	n/a	n/a	0	0	0
2568.866	n/a	START	1284433	n/a	LTP301	ltpFR2	15	n/a	n/a	n/a	16	n/a	n/a	n/a	n/a
2569.838	n/a	DISTRACTOR	1284919	n/a	LTP301	ltpFR2	15	11	n/a	n/a	n/a	n/a	0	0	0
2569.846	n/a	PROB	1284923	n/a	LTP301	ltpFR2	15	n/a	n/a	n/a	16	16	7	4	5
2572.448	n/a	PROB	1286224	n/a	LTP301	ltpFR2	15	n/a	n/a	n/a	16	17	8	2	7
2574.532	n/a	PROB	1287266	n/a	LTP301	ltpFR2	15	n/a	n/a	n/a	16	15	6	3	6
2577.236	n/a	PROB	1288618	n/a	LTP301	ltpFR2	15	n/a	n/a	n/a	16	12	3	2	7
2579.17	n/a	PROB	1289585	n/a	LTP301	ltpFR2	15	n/a	n/a	n/a	16	18	6	4	8
2582.374	n/a	PROB	1291187	n/a	LTP301	ltpFR2	15	n/a	n/a	n/a	16	19	9	4	6
2585.276	n/a	PROB	1292638	n/a	LTP301	ltpFR2	15	n/a	n/a	n/a	16	12	4	1	7
2587.026	n/a	PROB	1293513	n/a	LTP301	ltpFR2	15	n/a	n/a	n/a	16	13	1	3	9
2589.23	n/a	PROB	1294615	n/a	LTP301	ltpFR2	15	n/a	n/a	n/a	16	19	4	7	8
2591.43	n/a	STOP	1295715	n/a	LTP301	ltpFR2	15	n/a	n/a	n/a	16	n/a	n/a	n/a	n/a
2594.8	n/a	REC_START	1297400	n/a	LTP301	ltpFR2	15	11	n/a	n/a	n/a	n/a	0	0	0
2599.438	n/a	REC_WORD	1299719	wordpools/wasnorm_wordpool_576.txt	LTP301	ltpFR2	15	11	RUG	1215	n/a	n/a	0	0	0
2601.02	n/a	REC_WORD	1300510	wordpools/wasnorm_wordpool_576.txt	LTP301	ltpFR2	15	11	GRAIN	-1	n/a	n/a	0	0	0
2611.986	n/a	REC_WORD	1305993	wordpools/wasnorm_wordpool_576.txt	LTP301	ltpFR2	15	11	PLASTER	1085	n/a	n/a	0	0	0
2685.24	n/a	WORD	1342620	wordpools/wasnorm_wordpool_576.txt	LTP301	ltpFR2	15	12	GIFT	635	n/a	n/a	0	0	0
2687.968	n/a	WORD	1343984	wordpools/wasnorm_wordpool_576.txt	LTP301	ltpFR2	15	12	FLEET	578	n/a	n/a	0	0	0
2690.654	n/a	WORD	1345327	wordpools/wasnorm_wordpool_576.txt	LTP301	ltpFR2	15	12	LILY	821	n/a	n/a	0	0	0
2693.104	n/a	WORD	1346552	wordpools/wasnorm_wordpool_576.txt	LTP301	ltpFR2	15	12	PISTON	1076	n/a	n/a	0	0	0
2695.574	n/a	WORD	1347787	wordpools/wasnorm_wordpool_576.txt	LTP301	ltpFR2	15	12	FIDDLE	561	n/a	n/a	0	0	0
2698.276	n/a	WORD	1349138	wordpools/wasnorm_wordpool_576.txt	LTP301	ltpFR2	15	12	TWISTER	1530	n/a	n/a	0	0	0
2701.062	n/a	WORD	1350531	wordpools/wasnorm_wordpool_576.txt	LTP301	ltpFR2	15	12	MARINE	869	n/a	n/a	0	0	0
2703.514	n/a	WORD	1351757	wordpools/wasnorm_wordpool_576.txt	LTP301	ltpFR2	15	12	PRINCESS	1125	n/a	n/a	0	0	0
2706.038	n/a	WORD	1353019	wordpools/wasnorm_wordpool_576.txt	LTP301	ltpFR2	15	12	CROWN	415	n/a	n/a	0	0	0
2708.5	n/a	WORD	1354250	wordpools/wasnorm_wordpool_576.txt	LTP301	ltpFR2	15	12	YACHT	1629	n/a	n/a	0	0	0
2711.188	n/a	WORD	1355594	wordpools/wasnorm_wordpool_576.txt	LTP301	ltpFR2	15	12	MACHINE	852	n/a	n/a	0	0	0
2713.622	n/a	WORD	1356811	wordpools/wasnorm_wordpool_576.txt	LTP301	ltpFR2	15	12	CONTRACT	368	n/a	n/a	0	0	0
2716.276	n/a	WORD	1358138	wordpools/wasnorm_wordpool_576.txt	LTP301	ltpFR2	15	12	SCULPTURE	1258	n/a	n/a	0	0	0
2719.012	n/a	WORD	1359506	wordpools/wasnorm_wordpool_576.txt	LTP301	ltpFR2	15	12	DRAWING	494	n/a	n/a	0	0	0
2721.498	n/a	WORD	1360749	wordpools/wasnorm_wordpool_576.txt	LTP301	ltpFR2	15	12	BLUEPRINT	142	n/a	n/a	0	0	0
2724.132	n/a	WORD	1362066	wordpools/wasnorm_wordpool_576.txt	LTP301	ltpFR2	15	12	VICTIM	1562	n/a	n/a	0	0	0
2726.852	n/a	WORD	1363426	wordpools/wasnorm_wordpool_576.txt	LTP301	ltpFR2	15	12	MASK	876	n/a	n/a	0	0	0
2729.304	n/a	WORD	1364652	wordpools/wasnorm_wordpool_576.txt	LTP301	ltpFR2	15	12	FOOT	590	n/a	n/a	0	0	0
2731.804	n/a	WORD	1365902	wordpools/wasnorm_wordpool_576.txt	LTP301	ltpFR2	15	12	MOTEL	919	n/a	n/a	0	0	0
2734.408	n/a	WORD	1367204	wordpools/wasnorm_wordpool_576.txt	LTP301	ltpFR2	15	12	SPIDER	1351	n/a	n/a	0	0	0
2736.86	n/a	WORD	1368430	wordpools/wasnorm_wordpool_576.txt	LTP301	ltpFR2	15	12	TUTU	1524	n/a	n/a	0	0	0
2739.512	n/a	WORD	1369756	wordpools/wasnorm_wordpool_576.txt	LTP301	ltpFR2	15	12	XEROX	1628	n/a	n/a	0	0	0
2741.946	n/a	WORD	1370973	wordpools/wasnorm_wordpool_576.txt	LTP301	ltpFR2	15	12	WASHER	1592	n/a	n/a	0	0	0
2744.418	n/a	WORD	1372209	wordpools/wasnorm_wordpool_576.txt	LTP301	ltpFR2	15	12	COLONEL	348	n/a	n/a	0	0	0
2746.034	n/a	START	1373017	n/a	LTP301	ltpFR2	15	n/a	n/a	n/a	17	n/a	n/a	n/a	n/a
2747.232	n/a	DISTRACTOR	1373616	n/a	LTP301	ltpFR2	15	12	n/a	n/a	n/a	n/a	0	0	0
2747.234	n/a	PROB	1373617	n/a	LTP301	ltpFR2	15	n/a	n/a	n/a	17	24	9	7	6
2750.688	n/a	PROB	1375344	n/a	LTP301	ltpFR2	15	n/a	n/a	n/a	17	20	9	2	9
2755.776	n/a	PROB	1377888	n/a	LTP301	ltpFR2	15	n/a	n/a	n/a	17	11	1	4	6
2757.294	n/a	PROB	1378647	n/a	LTP301	ltpFR2	15	n/a	n/a	n/a	17	17	8	4	5
2759.664	n/a	PROB	1379832	n/a	LTP301	ltpFR2	15	n/a	n/a	n/a	17	25	9	8	8
2763.516	n/a	PROB	1381758	n/a	LTP301	ltpFR2	15	n/a	n/a	n/a	17	13	1	3	9
2770.02	n/a	STOP	1385010	n/a	LTP301	ltpFR2	15	n/a	n/a	n/a	17	n/a	n/a	n/a	n/a
2771.89	n/a	REC_START	1385945	n/a	LTP301	ltpFR2	15	12	n/a	n/a	n/a	n/a	0	0	0
2773.49	n/a	REC_WORD	1386745	wordpools/wasnorm_wordpool_576.txt	LTP301	ltpFR2	15	12	XEROX	1628	n/a	n/a	0	0	0
2774.816	n/a	REC_WORD	1387408	wordpools/wasnorm_wordpool_576.txt	LTP301	ltpFR2	15	12	MOTEL	919	n/a	n/a	0	0	0
3085.924	n/a	DISTRACTOR	1542962	n/a	LTP301	ltpFR2	15	13	n/a	n/a	n/a	n/a	0	0	0
3085.924	n/a	START	1542962	n/a	LTP301	ltpFR2	15	n/a	n/a	n/a	18	n/a	n/a	n/a	n/a
3085.938	n/a	PROB	1542969	n/a	LTP301	ltpFR2	15	n/a	n/a	n/a	18	20	2	9	9
3087.508	n/a	PROB	1543754	n/a	LTP301	ltpFR2	15	n/a	n/a	n/a	18	15	5	1	9
3089.624	n/a	PROB	1544812	n/a	LTP301	ltpFR2	15	n/a	n/a	n/a	18	17	9	6	2
3093.546	n/a	PROB	1546773	n/a	LTP301	ltpFR2	15	n/a	n/a	n/a	18	22	9	8	5
3097.23	n/a	PROB	1548615	n/a	LTP301	ltpFR2	15	n/a	n/a	n/a	18	9	2	6	1
3099.884	n/a	PROB	1549942	n/a	LTP301	ltpFR2	15	n/a	n/a	n/a	18	18	5	7	6
3103.82	n/a	PROB	1551910	n/a	LTP301	ltpFR2	15	n/a	n/a	n/a	18	12	5	2	5
3105.422	n/a	PROB	1552711	n/a	LTP301	ltpFR2	15	n/a	n/a	n/a	18	19	8	4	7
3108.374	n/a	STOP	1554187	n/a	LTP301	ltpFR2	15	n/a	n/a	n/a	18	n/a	n/a	n/a	n/a
3111.082	n/a	WORD	1555541	wordpools/wasnorm_wordpool_576.txt	LTP301	ltpFR2	15	13	FRAGRANCE	599	n/a	n/a	0	0	0
3113.736	n/a	WORD	1556868	wordpools/wasnorm_wordpool_576.txt	LTP301	ltpFR2	15	13	BUGGY	188	n/a	n/a	0	0	0
3116.23	n/a	WORD	1558115	wordpools/wasnorm_wordpool_576.txt	LTP301	ltpFR2	15	13	FOOTBALL	591	n/a	n/a	0	0	0
3118.872	n/a	WORD	1559436	wordpools/wasnorm_wordpool_576.txt	LTP301	ltpFR2	15	13	ZIPPER	1636	n/a	n/a	0	0	0
3121.442	n/a	WORD	1560721	wordpools/wasnorm_wordpool_576.txt	LTP301	ltpFR2	15	13	SKIRT	1319	n/a	n/a	0	0	0
3123.936	n/a	WORD	1561968	wordpools/wasnorm_wordpool_576.txt	LTP301	ltpFR2	15	13	PERMIT	1051	n/a	n/a	0	0	0
3126.472	n/a	WORD	1563236	wordpools/wasnorm_wordpool_576.txt	LTP301	ltpFR2	15	13	SHORTS	1293	n/a	n/a	0	0	0
3129.114	n/a	WORD	1564557	wordpools/wasnorm_wordpool_576.txt	LTP301	ltpFR2	15	13	CREVICE	405	n/a	n/a	0	0	0
3131.726	n/a	WORD	1565863	wordpools/wasnorm_wordpool_576.txt	LTP301	ltpFR2	15	13	CUSTARD	429	n/a	n/a	0	0	0
3134.436	n/a	WORD	1567218	wordpools/wasnorm_wordpool_576.txt	LTP301	ltpFR2	15	13	DUSTPAN	509	n/a	n/a	0	0	0
3137.196	n/a	WORD	1568598	wordpools/wasnorm_wordpool_576.txt	LTP301	ltpFR2	15	13	ARMY	39	n/a	n/a	0	0	0
3139.664	n/a	WORD	1569832	wordpools/wasnorm_wordpool_576.txt	LTP301	ltpFR2	15	13	SPARROW	1347	n/a	n/a	0	0	0
3142.116	n/a	WORD	1571058	wordpools/wasnorm_wordpool_576.txt	LTP301	ltpFR2	15	13	ROBIN	1199	n/a	n/a	0	0	0
3144.928	n/a	WORD	1572464	wordpools/wasnorm_wordpool_576.txt	LTP301	ltpFR2	15	13	COMET	353	n/a	n/a	0	0	0
3147.63	n/a	WORD	1573815	wordpools/wasnorm_wordpool_576.txt	LTP301	ltpFR2	15	13	CLAMP	316	n/a	n/a	0	0	0
3150.358	n/a	WORD	1575179	wordpools/wasnorm_wordpool_576.txt	LTP301	ltpFR2	15	13	SADDLE	1221	n/a	n/a	0	0	0
3152.802	n/a	WORD	1576401	wordpools/wasnorm_wordpool_576.txt	LTP301	ltpFR2	15	13	PAPER	1011	n/a	n/a	0	0	0
3155.42	n/a	WORD	1577710	wordpools/wasnorm_wordpool_576.txt	LTP301	ltpFR2	15	13	LABEL	790	n/a	n/a	0	0	0
3158.214	n/a	WORD	1579107	wordpools/wasnorm_wordpool_576.txt	LTP301	ltpFR2	15	13	PERFUME	1049	n/a	n/a	0	0	0
3160.842	n/a	WORD	1580421	wordpools/wasnorm_wordpool_576.txt	LTP301	ltpFR2	15	13	CATCHER	258	n/a	n/a	0	0	0
3163.652	n/a	WORD	1581826	wordpools/wasnorm_wordpool_576.txt	LTP301	ltpFR2	15	13	POSTAGE	1113	n/a	n/a	0	0	0
3166.13	n/a	WORD	1583065	wordpools/wasnorm_wordpool_576.txt	LTP301	ltpFR2	15	13	HOOD	714	n/a	n/a	0	0	0
3168.898	n/a	WORD	1584449	wordpools/wasnorm_wordpool_576.txt	LTP301	ltpFR2	15	13	GYMNAST	675	n/a	n/a	0	0	0
3171.534	n/a	WORD	1585767	wordpools/wasnorm_wordpool_576.txt	LTP301	ltpFR2	15	13	STAMP	1370	n/a	n/a	0	0	0
3173.142	n/a	START	1586571	n/a	LTP301	ltpFR2	15	n/a	n/a	n/a	19	n/a	n/a	n/a	n/a
3174.248	n/a	DISTRACTOR	1587124	n/a	LTP301	ltpFR2	15	13	n/a	n/a	n/a	n/a	0	0	0
3174.254	n/a	PROB	1587127	n/a	LTP301	ltpFR2	15	n/a	n/a	n/a	19	17	7	1	9
3176.994	n/a	PROB	1588497	n/a	LTP301	ltpFR2	15	n/a	n/a	n/a	19	6	1	4	1
3179.13	n/a	PROB	1589565	n/a	LTP301	ltpFR2	15	n/a	n/a	n/a	19	15	4	4	7
3182.448	n/a	PROB	1591224	n/a	LTP301	ltpFR2	15	n/a	n/a	n/a	19	17	5	9	3
3185.134	n/a	PROB	1592567	n/a	LTP301	ltpFR2	15	n/a	n/a	n/a	19	20	8	5	7
3188.404	n/a	PROB	1594202	n/a	LTP301	ltpFR2	15	n/a	n/a	n/a	19	25	7	8	8
3190.722	n/a	PROB	1595361	n/a	LTP301	ltpFR2	15	n/a	n/a	n/a	19	14	7	2	5
3192.84	n/a	PROB	1596420	n/a	LTP301	ltpFR2	15	n/a	n/a	n/a	19	17	1	7	9
3197.144	n/a	STOP	1598572	n/a	LTP301	ltpFR2	15	n/a	n/a	n/a	19	n/a	n/a	n/a	n/a
3199.082	n/a	REC_START	1599541	n/a	LTP301	ltpFR2	15	13	n/a	n/a	n/a	n/a	0	0	0
3206.552	n/a	REC_WORD	1603276	wordpools/wasnorm_wordpool_576.txt	LTP301	ltpFR2	15	13	CREVICE	405	n/a	n/a	0	0	0
3227.822	n/a	REC_WORD	1613911	wordpools/wasnorm_wordpool_576.txt	LTP301	ltpFR2	15	13	FOOTBALL	591	n/a	n/a	0	0	0
3249.156	n/a	REC_WORD	1624578	wordpools/wasnorm_wordpool_576.txt	LTP301	ltpFR2	15	13	FRAGRANCE	599	n/a	n/a	0	0	0
3289.518	n/a	DISTRACTOR	1644759	n/a	LTP301	ltpFR2	15	14	n/a	n/a	n/a	n/a	0	0	0
3289.518	n/a	START	1644759	n/a	LTP301	ltpFR2	15	n/a	n/a	n/a	20	n/a	n/a	n/a	n/a
3289.534	n/a	PROB	1644767	n/a	LTP301	ltpFR2	15	n/a	n/a	n/a	20	16	2	6	8
3292.32	n/a	PROB	1646160	n/a	LTP301	ltpFR2	15	n/a	n/a	n/a	20	13	2	8	3
3295.288	n/a	PROB	1647644	n/a	LTP301	ltpFR2	15	n/a	n/a	n/a	20	9	2	5	2
3297.24	n/a	PROB	1648620	n/a	LTP301	ltpFR2	15	n/a	n/a	n/a	20	16	6	6	4
3299.208	n/a	PROB	1649604	n/a	LTP301	ltpFR2	15	n/a	n/a	n/a	20	22	8	6	8
3303.094	n/a	PROB	1651547	n/a	LTP301	ltpFR2	15	n/a	n/a	n/a	20	16	3	4	9
3306.196	n/a	PROB	1653098	n/a	LTP301	ltpFR2	15	n/a	n/a	n/a	20	9	1	2	6
3309.2	n/a	PROB	1654600	n/a	LTP301	ltpFR2	15	n/a	n/a	n/a	20	12	6	3	3
3313.52	n/a	STOP	1656760	n/a	LTP301	ltpFR2	15	n/a	n/a	n/a	20	n/a	n/a	n/a	n/a
3314.47	n/a	WORD	1657235	wordpools/wasnorm_wordpool_576.txt	LTP301	ltpFR2	15	14	BUTCHER	203	n/a	n/a	0	0	0
3317.24	n/a	WORD	1658620	wordpools/wasnorm_wordpool_576.txt	LTP301	ltpFR2	15	14	CLIMBER	323	n/a	n/a	0	0	0
3319.826	n/a	WORD	1659913	wordpools/wasnorm_wordpool_576.txt	LTP301	ltpFR2	15	14	BROOK	177	n/a	n/a	0	0	0
3322.394	n/a	WORD	1661197	wordpools/wasnorm_wordpool_576.txt	LTP301	ltpFR2	15	14	REPORT	1184	n/a	n/a	0	0	0
3324.832	n/a	WORD	1662416	wordpools/wasnorm_wordpool_576.txt	LTP301	ltpFR2	15	14	HIGHWAY	707	n/a	n/a	0	0	0
3327.464	n/a	WORD	1663732	wordpools/wasnorm_wordpool_576.txt	LTP301	ltpFR2	15	14	EYELASH	546	n/a	n/a	0	0	0
3330.084	n/a	WORD	1665042	wordpools/wasnorm_wordpool_576.txt	LTP301	ltpFR2	15	14	LIPSTICK	829	n/a	n/a	0	0	0
3332.786	n/a	WORD	1666393	wordpools/wasnorm_wordpool_576.txt	LTP301	ltpFR2	15	14	CLOCK	325	n/a	n/a	0	0	0
3335.274	n/a	WORD	1667637	wordpools/wasnorm_wordpool_576.txt	LTP301	ltpFR2	15	14	CHAPEL	280	n/a	n/a	0	0	0
3337.722	n/a	WORD	1668861	wordpools/wasnorm_wordpool_576.txt	LTP301	ltpFR2	15	14	TEMPLE	1448	n/a	n/a	0	0	0
3340.508	n/a	WORD	1670254	wordpools/wasnorm_wordpool_576.txt	LTP301	ltpFR2	15	14	CLOTHES	327	n/a	n/a	0	0	0
3342.948	n/a	WORD	1671474	wordpools/wasnorm_wordpool_576.txt	LTP301	ltpFR2	15	14	COURSE	390	n/a	n/a	0	0	0
3345.412	n/a	WORD	1672706	wordpools/wasnorm_wordpool_576.txt	LTP301	ltpFR2	15	14	PUPIL	1143	n/a	n/a	0	0	0
3347.902	n/a	WORD	1673951	wordpools/wasnorm_wordpool_576.txt	LTP301	ltpFR2	15	14	DONKEY	484	n/a	n/a	0	0	0
3350.466	n/a	WORD	1675233	wordpools/wasnorm_wordpool_576.txt	LTP301	ltpFR2	15	14	SUBWAY	1400	n/a	n/a	0	0	0
3353.202	n/a	WORD	1676601	wordpools/wasnorm_wordpool_576.txt	LTP301	ltpFR2	15	14	CONVICT	371	n/a	n/a	0	0	0
3355.654	n/a	WORD	1677827	wordpools/wasnorm_wordpool_576.txt	LTP301	ltpFR2	15	14	HORNET	718	n/a	n/a	0	0	0
3358.278	n/a	WORD	1679139	wordpools/wasnorm_wordpool_576.txt	LTP301	ltpFR2	15	14	MARSH	874	n/a	n/a	0	0	0
3360.748	n/a	WORD	1680374	wordpools/wasnorm_wordpool_576.txt	LTP301	ltpFR2	15	14	TERMITE	1451	n/a	n/a	0	0	0
3363.208	n/a	WORD	1681604	wordpools/wasnorm_wordpool_576.txt	LTP301	ltpFR2	15	14	SWORD	1423	n/a	n/a	0	0	0
3365.81	n/a	WORD	1682905	wordpools/wasnorm_wordpool_576.txt	LTP301	ltpFR2	15	14	ORANGE	980	n/a	n/a	0	0	0
3368.246	n/a	WORD	1684123	wordpools/wasnorm_wordpool_576.txt	LTP301	ltpFR2	15	14	WIDOW	1608	n/a	n/a	0	0	0
3370.966	n/a	WORD	1685483	wordpools/wasnorm_wordpool_576.txt	LTP301	ltpFR2	15	14	SLOPE	1328	n/a	n/a	0	0	0
3373.59	n/a	WORD	1686795	wordpools/wasnorm_wordpool_576.txt	LTP301	ltpFR2	15	14	DAISY	435	n/a	n/a	0	0	0
3375.202	n/a	START	1687601	n/a	LTP301	ltpFR2	15	n/a	n/a	n/a	21	n/a	n/a	n/a	n/a
3376.34	n/a	DISTRACTOR	1688170	n/a	LTP301	ltpFR2	15	14	n/a	n/a	n/a	n/a	0	0	0
3376.344	n/a	PROB	1688172	n/a	LTP301	ltpFR2	15	n/a	n/a	n/a	21	18	3	9	6
3381.158	n/a	PROB	1690579	n/a	LTP301	ltpFR2	15	n/a	n/a	n/a	21	12	2	7	3
3383.458	n/a	PROB	1691729	n/a	LTP301	ltpFR2	15	n/a	n/a	n/a	21	17	3	8	6
3386.026	n/a	PROB	1693013	n/a	LTP301	ltpFR2	15	n/a	n/a	n/a	21	6	2	3	1
3389.178	n/a	PROB	1694589	n/a	LTP301	ltpFR2	15	n/a	n/a	n/a	21	19	8	5	6
3391.38	n/a	PROB	1695690	n/a	LTP301	ltpFR2	15	n/a	n/a	n/a	21	17	5	4	8
3393.866	n/a	PROB	1696933	n/a	LTP301	ltpFR2	15	n/a	n/a	n/a	21	17	8	1	8
3395.668	n/a	PROB	1697834	n/a	LTP301	ltpFR2	15	n/a	n/a	n/a	21	9	1	1	7
3399.202	n/a	STOP	1699601	n/a	LTP301	ltpFR2	15	n/a	n/a	n/a	21	n/a	n/a	n/a	n/a
3401.104	n/a	REC_START	1700552	n/a	LTP301	ltpFR2	15	14	n/a	n/a	n/a	n/a	0	0	0
3409.83	n/a	REC_WORD	1704915	wordpools/wasnorm_wordpool_576.txt	LTP301	ltpFR2	15	14	BUTCHER	203	n/a	n/a	0	0	0
3411.258	n/a	REC_WORD	1705629	wordpools/wasnorm_wordpool_576.txt	LTP301	ltpFR2	15	14	HATCHET	691	n/a	n/a	0	0	0
3439.564	n/a	REC_WORD	1719782	wordpools/wasnorm_wordpool_576.txt	LTP301	ltpFR2	15	14	CONVICT	371	n/a	n/a	0	0	0
3462.36	n/a	REC_WORD	1731180	wordpools/wasnorm_wordpool_576.txt	LTP301	ltpFR2	15	14	ROBIN	1199	n/a	n/a	0	0	0
3463.762	n/a	REC_WORD	1731881	wordpools/wasnorm_wordpool_576.txt	LTP301	ltpFR2	15	14	SPARROW	1347	n/a	n/a	0	0	0
3491.56	n/a	WORD	1745780	wordpools/wasnorm_wordpool_576.txt	LTP301	ltpFR2	15	15	COIN	343	n/a	n/a	0	0	0
3494.362	n/a	WORD	1747181	wordpools/wasnorm_wordpool_576.txt	LTP301	ltpFR2	15	15	CLOUD	328	n/a	n/a	0	0	0
3497.082	n/a	WORD	1748541	wordpools/wasnorm_wordpool_576.txt	LTP301	ltpFR2	15	15	STONE	1385	n/a	n/a	0	0	0
3499.682	n/a	WORD	1749841	wordpools/wasnorm_wordpool_576.txt	LTP301	ltpFR2	15	15	SPOUSE	1358	n/a	n/a	0	0	0
3502.218	n/a	WORD	1751109	wordpools/wasnorm_wordpool_576.txt	LTP301	ltpFR2	15	15	FRUIT	610	n/a	n/a	0	0	0
3505.02	n/a	WORD	1752510	wordpools/wasnorm_wordpool_576.txt	LTP301	ltpFR2	15	15	FLIPPER	580	n/a	n/a	0	0	0
3507.474	n/a	WORD	1753737	wordpools/wasnorm_wordpool_576.txt	LTP301	ltpFR2	15	15	TEACHER	1440	n/a	n/a	0	0	0
3510.208	n/a	WORD	1755104	wordpools/wasnorm_wordpool_576.txt	LTP301	ltpFR2	15	15	BRAKE	166	n/a	n/a	0	0	0
3512.812	n/a	WORD	1756406	wordpools/wasnorm_wordpool_576.txt	LTP301	ltpFR2	15	15	PADDING	999	n/a	n/a	0	0	0
3515.296	n/a	WORD	1757648	wordpools/wasnorm_wordpool_576.txt	LTP301	ltpFR2	15	15	SHOULDER	1294	n/a	n/a	0	0	0
3517.732	n/a	WORD	1758866	wordpools/wasnorm_wordpool_576.txt	LTP301	ltpFR2	15	15	GOBLIN	645	n/a	n/a	0	0	0
3520.484	n/a	WORD	1760242	wordpools/wasnorm_wordpool_576.txt	LTP301	ltpFR2	15	15	SPHINX	1349	n/a	n/a	0	0	0
3523.186	n/a	WORD	1761593	wordpools/wasnorm_wordpool_576.txt	LTP301	ltpFR2	15	15	COMPASS	358	n/a	n/a	0	0	0
3525.806	n/a	WORD	1762903	wordpools/wasnorm_wordpool_576.txt	LTP301	ltpFR2	15	15	WIFE	1609	n/a	n/a	0	0	0
3528.306	n/a	WORD	1764153	wordpools/wasnorm_wordpool_576.txt	LTP301	ltpFR2	15	15	TRENCH	1503	n/a	n/a	0	0	0
3530.808	n/a	WORD	1765404	wordpools/wasnorm_wordpool_576.txt	LTP301	ltpFR2	15	15	DOUGHNUT	490	n/a	n/a	0	0	0
3533.494	n/a	WORD	1766747	wordpools/wasnorm_wordpool_576.txt	LTP301	ltpFR2	15	15	PLIERS	1089	n/a	n/a	0	0	0
3535.98	n/a	WORD	1767990	wordpools/wasnorm_wordpool_576.txt	LTP301	ltpFR2	15	15	EMPIRE	530	n/a	n/a	0	0	0
3538.482	n/a	WORD	1769241	wordpools/wasnorm_wordpool_576.txt	LTP301	ltpFR2	15	15	MOTOR	922	n/a	n/a	0	0	0
3540.9	n/a	WORD	1770450	wordpools/wasnorm_wordpool_576.txt	LTP301	ltpFR2	15	15	CRAB	397	n/a	n/a	0	0	0
3543.636	n/a	WORD	1771818	wordpools/wasnorm_wordpool_576.txt	LTP301	ltpFR2	15	15	WASP	1593	n/a	n/a	0	0	0
3546.424	n/a	WORD	1773212	wordpools/wasnorm_wordpool_576.txt	LTP301	ltpFR2	15	15	HONEY	713	n/a	n/a	0	0	0
3549.21	n/a	WORD	1774605	wordpools/wasnorm_wordpool_576.txt	LTP301	ltpFR2	15	15	FRANCE	601	n/a	n/a	0	0	0
3551.862	n/a	WORD	1775931	wordpools/wasnorm_wordpool_576.txt	LTP301	ltpFR2	15	15	BOARD	143	n/a	n/a	0	0	0
3553.478	n/a	START	1776739	n/a	LTP301	ltpFR2	15	n/a	n/a	n/a	22	n/a	n/a	n/a	n/a
3554.454	n/a	DISTRACTOR	1777227	n/a	LTP301	ltpFR2	15	15	n/a	n/a	n/a	n/a	0	0	0
3554.46	n/a	PROB	1777230	n/a	LTP301	ltpFR2	15	n/a	n/a	n/a	22	20	7	9	3
3557.846	n/a	PROB	1778923	n/a	LTP301	ltpFR2	15	n/a	n/a	n/a	22	10	6	3	1
3561.582	n/a	PROB	1780791	n/a	LTP301	ltpFR2	15	n/a	n/a	n/a	22	14	8	3	3
3567.336	n/a	PROB	1783668	n/a	LTP301	ltpFR2	15	n/a	n/a	n/a	22	20	7	7	6
3570.54	n/a	PROB	1785270	n/a	LTP301	ltpFR2	15	n/a	n/a	n/a	22	16	8	2	6
3577.478	n/a	STOP	1788739	n/a	LTP301	ltpFR2	15	n/a	n/a	n/a	22	n/a	n/a	n/a	n/a
3579.332	n/a	REC_START	1789666	n/a	LTP301	ltpFR2	15	15	n/a	n/a	n/a	n/a	0	0	0
3582.78	n/a	REC_WORD	1791390	wordpools/wasnorm_wordpool_576.txt	LTP301	ltpFR2	15	15	CASTLE	256	n/a	n/a	0	0	0
3583.724	n/a	REC_WORD	1791862	wordpools/wasnorm_wordpool_576.txt	LTP301	ltpFR2	15	15	STONE	1385	n/a	n/a	0	0	0
3590.684	n/a	REC_WORD	1795342	wordpools/wasnorm_wordpool_576.txt	LTP301	ltpFR2	15	15	GARAGE	621	n/a	n/a	0	0	0
3599.534	n/a	REC_WORD	1799767	wordpools/wasnorm_wordpool_576.txt	LTP301	ltpFR2	15	15	PLIERS	1089	n/a	n/a	0	0	0
3606.548	n/a	REC_WORD	1803274	wordpools/wasnorm_wordpool_576.txt	LTP301	ltpFR2	15	15	SCISSORS	1250	n/a	n/a	0	0	0
3669.746	n/a	DISTRACTOR	1834873	n/a	LTP301	ltpFR2	15	16	n/a	n/a	n/a	n/a	0	0	0
3669.748	n/a	START	1834874	n/a	LTP301	ltpFR2	15	n/a	n/a	n/a	23	n/a	n/a	n/a	n/a
3669.762	n/a	PROB	1834881	n/a	LTP301	ltpFR2	15	n/a	n/a	n/a	23	17	6	8	3
3673.122	n/a	PROB	1836561	n/a	LTP301	ltpFR2	15	n/a	n/a	n/a	23	20	7	6	7
3675.406	n/a	PROB	1837703	n/a	LTP301	ltpFR2	15	n/a	n/a	n/a	23	22	8	7	7
3677.758	n/a	PROB	1838879	n/a	LTP301	ltpFR2	15	n/a	n/a	n/a	23	13	5	4	4
3680.078	n/a	PROB	1840039	n/a	LTP301	ltpFR2	15	n/a	n/a	n/a	23	10	2	7	1
3681.81	n/a	PROB	1840905	n/a	LTP301	ltpFR2	15	n/a	n/a	n/a	23	12	9	2	1
3683.83	n/a	PROB	1841915	n/a	LTP301	ltpFR2	15	n/a	n/a	n/a	23	13	5	2	6
3686.382	n/a	PROB	1843191	n/a	LTP301	ltpFR2	15	n/a	n/a	n/a	23	14	4	8	2
3687.868	n/a	PROB	1843934	n/a	LTP301	ltpFR2	15	n/a	n/a	n/a	23	13	6	5	2
3690.77	n/a	PROB	1845385	n/a	LTP301	ltpFR2	15	n/a	n/a	n/a	23	17	7	9	1
3692.368	n/a	STOP	1846184	n/a	LTP301	ltpFR2	15	n/a	n/a	n/a	23	n/a	n/a	n/a	n/a
3694.668	n/a	WORD	1847334	wordpools/wasnorm_wordpool_576.txt	LTP301	ltpFR2	15	16	COBRA	336	n/a	n/a	0	0	0
3697.288	n/a	WORD	1848644	wordpools/wasnorm_wordpool_576.txt	LTP301	ltpFR2	15	16	ROBBER	1197	n/a	n/a	0	0	0
3699.708	n/a	WORD	1849854	wordpools/wasnorm_wordpool_576.txt	LTP301	ltpFR2	15	16	LETTUCE	814	n/a	n/a	0	0	0
3702.476	n/a	WORD	1851238	wordpools/wasnorm_wordpool_576.txt	LTP301	ltpFR2	15	16	CASHEW	253	n/a	n/a	0	0	0
3705.112	n/a	WORD	1852556	wordpools/wasnorm_wordpool_576.txt	LTP301	ltpFR2	15	16	POPCORN	1104	n/a	n/a	0	0	0
3707.78	n/a	WORD	1853890	wordpools/wasnorm_wordpool_576.txt	LTP301	ltpFR2	15	16	APPLE	33	n/a	n/a	0	0	0
3710.314	n/a	WORD	1855157	wordpools/wasnorm_wordpool_576.txt	LTP301	ltpFR2	15	16	CURTAIN	427	n/a	n/a	0	0	0
3712.818	n/a	WORD	1856409	wordpools/wasnorm_wordpool_576.txt	LTP301	ltpFR2	15	16	GLASS	639	n/a	n/a	0	0	0
3715.554	n/a	WORD	1857777	wordpools/wasnorm_wordpool_576.txt	LTP301	ltpFR2	15	16	NECKLACE	940	n/a	n/a	0	0	0
3717.99	n/a	WORD	1858995	wordpools/wasnorm_wordpool_576.txt	LTP301	ltpFR2	15	16	PASTRY	1022	n/a	n/a	0	0	0
3720.74	n/a	WORD	1860370	wordpools/wasnorm_wordpool_576.txt	LTP301	ltpFR2	15	16	GAZELLE	628	n/a	n/a	0	0	0
3723.326	n/a	WORD	1861663	wordpools/wasnorm_wordpool_576.txt	LTP301	ltpFR2	15	16	BELLY	119	n/a	n/a	0	0	0
3726.062	n/a	WORD	1863031	wordpools/wasnorm_wordpool_576.txt	LTP301	ltpFR2	15	16	COD	340	n/a	n/a	0	0	0
3728.814	n/a	WORD	1864407	wordpools/wasnorm_wordpool_576.txt	LTP301	ltpFR2	15	16	BURGLAR	200	n/a	n/a	0	0	0
3731.25	n/a	WORD	1865625	wordpools/wasnorm_wordpool_576.txt	LTP301	ltpFR2	15	16	HUMAN	726	n/a	n/a	0	0	0
3733.802	n/a	WORD	1866901	wordpools/wasnorm_wordpool_576.txt	LTP301	ltpFR2	15	16	EUROPE	541	n/a	n/a	0	0	0
3736.336	n/a	WORD	1868168	wordpools/wasnorm_wordpool_576.txt	LTP301	ltpFR2	15	16	ASIA	46	n/a	n/a	0	0	0
3739.124	n/a	WORD	1869562	wordpools/wasnorm_wordpool_576.txt	LTP301	ltpFR2	15	16	BIKE	125	n/a	n/a	0	0	0
3741.776	n/a	WORD	1870888	wordpools/wasnorm_wordpool_576.txt	LTP301	ltpFR2	15	16	BRANCH	168	n/a	n/a	0	0	0
3744.462	n/a	WORD	1872231	wordpools/wasnorm_wordpool_576.txt	LTP301	ltpFR2	15	16	DENIM	446	n/a	n/a	0	0	0
3747.196	n/a	WORD	1873598	wordpools/wasnorm_wordpool_576.txt	LTP301	ltpFR2	15	16	SCOTCH	1251	n/a	n/a	0	0	0
3749.95	n/a	WORD	1874975	wordpools/wasnorm_wordpool_576.txt	LTP301	ltpFR2	15	16	WINDOW	1611	n/a	n/a	0	0	0
3752.668	n/a	WORD	1876334	wordpools/wasnorm_wordpool_576.txt	LTP301	ltpFR2	15	16	AGENT	10	n/a	n/a	0	0	0
3755.488	n/a	WORD	1877744	wordpools/wasnorm_wordpool_576.txt	LTP301	ltpFR2	15	16	CARROT	249	n/a	n/a	0	0	0
3757.104	n/a	START	1878552	n/a	LTP301	ltpFR2	15	n/a	n/a	n/a	24	n/a	n/a	n/a	n/a
3758.168	n/a	DISTRACTOR	1879084	n/a	LTP301	ltpFR2	15	16	n/a	n/a	n/a	n/a	0	0	0
3758.172	n/a	PROB	1879086	n/a	LTP301	ltpFR2	15	n/a	n/a	n/a	24	15	4	2	9
3761.29	n/a	PROB	1880645	n/a	LTP301	ltpFR2	15	n/a	n/a	n/a	24	4	1	1	2
3762.774	n/a	PROB	1881387	n/a	LTP301	ltpFR2	15	n/a	n/a	n/a	24	22	6	7	9
3766.66	n/a	PROB	1883330	n/a	LTP301	ltpFR2	15	n/a	n/a	n/a	24	18	2	7	9
3769.314	n/a	PROB	1884657	n/a	LTP301	ltpFR2	15	n/a	n/a	n/a	24	20	9	7	4
3771.6	n/a	PROB	1885800	n/a	LTP301	ltpFR2	15	n/a	n/a	n/a	24	15	5	8	2
3773.234	n/a	PROB	1886617	n/a	LTP301	ltpFR2	15	n/a	n/a	n/a	24	1	7	2	2
3775.552	n/a	PROB	1887776	n/a	LTP301	ltpFR2	15	n/a	n/a	n/a	24	13	8	1	4
3778.438	n/a	PROB	1889219	n/a	LTP301	ltpFR2	15	n/a	n/a	n/a	24	8	6	1	1
3779.986	n/a	STOP	1889993	n/a	LTP301	ltpFR2	15	n/a	n/a	n/a	24	n/a	n/a	n/a	n/a
3782.96	n/a	REC_START	1891480	n/a	LTP301	ltpFR2	15	16	n/a	n/a	n/a	n/a	0	0	0
3800.836	n/a	REC_WORD	1900418	wordpools/wasnorm_wordpool_576.txt	LTP301	ltpFR2	15	16	POPCORN	1104	n/a	n/a	0	0	0
3854.744	n/a	REC_WORD	1927372	wordpools/wasnorm_wordpool_576.txt	LTP301	ltpFR2	15	16	COIN	343	n/a	n/a	0	0	0
3859.486	n/a	REST_REWET	1929743	n/a	LTP301	ltpFR2	15	16	n/a	n/a	n/a	n/a	0	0	0
4020.162	n/a	WORD	2010081	wordpools/wasnorm_wordpool_576.txt	LTP301	ltpFR2	15	17	BINDER	127	n/a	n/a	0	0	0
4022.948	n/a	WORD	2011474	wordpools/wasnorm_wordpool_576.txt	LTP301	ltpFR2	15	17	NOTEBOOK	959	n/a	n/a	0	0	0
4025.418	n/a	WORD	2012709	wordpools/wasnorm_wordpool_576.txt	LTP301	ltpFR2	15	17	PREACHER	1119	n/a	n/a	0	0	0
4027.836	n/a	WORD	2013918	wordpools/wasnorm_wordpool_576.txt	LTP301	ltpFR2	15	17	FRIAR	605	n/a	n/a	0	0	0
4030.472	n/a	WORD	2015236	wordpools/wasnorm_wordpool_576.txt	LTP301	ltpFR2	15	17	BOUQUET	157	n/a	n/a	0	0	0
4032.99	n/a	WORD	2016495	wordpools/wasnorm_wordpool_576.txt	LTP301	ltpFR2	15	17	MISSILE	900	n/a	n/a	0	0	0
4035.71	n/a	WORD	2017855	wordpools/wasnorm_wordpool_576.txt	LTP301	ltpFR2	15	17	SCARF	1246	n/a	n/a	0	0	0
4038.344	n/a	WORD	2019172	wordpools/wasnorm_wordpool_576.txt	LTP301	ltpFR2	15	17	PENGUIN	1044	n/a	n/a	0	0	0
4040.946	n/a	WORD	2020473	wordpools/wasnorm_wordpool_576.txt	LTP301	ltpFR2	15	17	GALLON	618	n/a	n/a	0	0	0
4043.366	n/a	WORD	2021683	wordpools/wasnorm_wordpool_576.txt	LTP301	ltpFR2	15	17	DORM	488	n/a	n/a	0	0	0
4046.138	n/a	WORD	2023069	wordpools/wasnorm_wordpool_576.txt	LTP301	ltpFR2	15	17	PICTURE	1061	n/a	n/a	0	0	0
4048.652	n/a	WORD	2024326	wordpools/wasnorm_wordpool_576.txt	LTP301	ltpFR2	15	17	SANDWICH	1232	n/a	n/a	0	0	0
4051.442	n/a	WORD	2025721	wordpools/wasnorm_wordpool_576.txt	LTP301	ltpFR2	15	17	HELMET	702	n/a	n/a	0	0	0
4054.09	n/a	WORD	2027045	wordpools/wasnorm_wordpool_576.txt	LTP301	ltpFR2	15	17	LOFT	840	n/a	n/a	0	0	0
4056.608	n/a	WORD	2028304	wordpools/wasnorm_wordpool_576.txt	LTP301	ltpFR2	15	17	BACON	67	n/a	n/a	0	0	0
4059.228	n/a	WORD	2029614	wordpools/wasnorm_wordpool_576.txt	LTP301	ltpFR2	15	17	FRAME	600	n/a	n/a	0	0	0
4061.914	n/a	WORD	2030957	wordpools/wasnorm_wordpool_576.txt	LTP301	ltpFR2	15	17	OMELET	976	n/a	n/a	0	0	0
4064.37	n/a	WORD	2032185	wordpools/wasnorm_wordpool_576.txt	LTP301	ltpFR2	15	17	YOLK	1633	n/a	n/a	0	0	0
4067.184	n/a	WORD	2033592	wordpools/wasnorm_wordpool_576.txt	LTP301	ltpFR2	15	17	ORCHID	982	n/a	n/a	0	0	0
4069.82	n/a	WORD	2034910	wordpools/wasnorm_wordpool_576.txt	LTP301	ltpFR2	15	17	BROTHER	179	n/a	n/a	0	0	0
4072.338	n/a	WORD	2036169	wordpools/wasnorm_wordpool_576.txt	LTP301	ltpFR2	15	17	MISTER	901	n/a	n/a	0	0	0
4074.896	n/a	WORD	2037448	wordpools/wasnorm_wordpool_576.txt	LTP301	ltpFR2	15	17	NOMAD	955	n/a	n/a	0	0	0
4077.41	n/a	WORD	2038705	wordpools/wasnorm_wordpool_576.txt	LTP301	ltpFR2	15	17	SHIRT	1287	n/a	n/a	0	0	0
4080.178	n/a	WORD	2040089	wordpools/wasnorm_wordpool_576.txt	LTP301	ltpFR2	15	17	TABLET	1427	n/a	n/a	0	0	0
4081.786	n/a	START	2040893	n/a	LTP301	ltpFR2	15	n/a	n/a	n/a	25	n/a	n/a	n/a	n/a
4082.92	n/a	DISTRACTOR	2041460	n/a	LTP301	ltpFR2	15	17	n/a	n/a	n/a	n/a	0	0	0
4082.93	n/a	PROB	2041465	n/a	LTP301	ltpFR2	15	n/a	n/a	n/a	25	15	6	4	5
4085.58	n/a	PROB	2042790	n/a	LTP301	ltpFR2	15	n/a	n/a	n/a	25	24	9	9	6
4088.634	n/a	PROB	2044317	n/a	LTP301	ltpFR2	15	n/a	n/a	n/a	25	19	6	8	5
4091.068	n/a	PROB	2045534	n/a	LTP301	ltpFR2	15	n/a	n/a	n/a	25	19	5	8	6
4094.804	n/a	PROB	2047402	n/a	LTP301	ltpFR2	15	n/a	n/a	n/a	25	11	5	2	4
4097.176	n/a	PROB	2048588	n/a	LTP301	ltpFR2	15	n/a	n/a	n/a	25	22	9	4	9
4099.474	n/a	PROB	2049737	n/a	LTP301	ltpFR2	15	n/a	n/a	n/a	25	12	2	7	3
4101.444	n/a	PROB	2050722	n/a	LTP301	ltpFR2	15	n/a	n/a	n/a	25	13	5	3	5
4103.262	n/a	PROB	2051631	n/a	LTP301	ltpFR2	15	n/a	n/a	n/a	25	11	2	1	8
4105.548	n/a	STOP	2052774	n/a	LTP301	ltpFR2	15	n/a	n/a	n/a	25	n/a	n/a	n/a	n/a
4107.634	n/a	REC_START	2053817	n/a	LTP301	ltpFR2	15	17	n/a	n/a	n/a	n/a	0	0	0
4109.496	n/a	REC_WORD	2054748	wordpools/wasnorm_wordpool_576.txt	LTP301	ltpFR2	15	17	ORCHID	982	n/a	n/a	0	0	0
4110.454	n/a	REC_WORD	2055227	wordpools/wasnorm_wordpool_576.txt	LTP301	ltpFR2	15	17	TABLET	1427	n/a	n/a	0	0	0
4125.126	n/a	REC_WORD	2062563	wordpools/wasnorm_wordpool_576.txt	LTP301	ltpFR2	15	17	FRIAR	605	n/a	n/a	0	0	0
4144.158	n/a	REC_WORD	2072079	wordpools/wasnorm_wordpool_576.txt	LTP301	ltpFR2	15	17	BOUQUET	157	n/a	n/a	0	0	0
4198.07	n/a	WORD	2099035	wordpools/wasnorm_wordpool_576.txt	LTP301	ltpFR2	15	18	DIVER	476	n/a	n/a	0	0	0
4200.772	n/a	WORD	2100386	wordpools/wasnorm_wordpool_576.txt	LTP301	ltpFR2	15	18	COSTUME	383	n/a	n/a	0	0	0
4203.274	n/a	WORD	2101637	wordpools/wasnorm_wordpool_576.txt	LTP301	ltpFR2	15	18	SUITCASE	1403	n/a	n/a	0	0	0
4206.092	n/a	WORD	2103046	wordpools/wasnorm_wordpool_576.txt	LTP301	ltpFR2	15	18	BUREAU	199	n/a	n/a	0	0	0
4208.878	n/a	WORD	2104439	wordpools/wasnorm_wordpool_576.txt	LTP301	ltpFR2	15	18	MAILMAN	858	n/a	n/a	0	0	0
4211.414	n/a	WORD	2105707	wordpools/wasnorm_wordpool_576.txt	LTP301	ltpFR2	15	18	SEAL	1262	n/a	n/a	0	0	0
4214.032	n/a	WORD	2107016	wordpools/wasnorm_wordpool_576.txt	LTP301	ltpFR2	15	18	SURVEY	1414	n/a	n/a	0	0	0
4216.652	n/a	WORD	2108326	wordpools/wasnorm_wordpool_576.txt	LTP301	ltpFR2	15	18	APRON	35	n/a	n/a	0	0	0
4219.22	n/a	WORD	2109610	wordpools/wasnorm_wordpool_576.txt	LTP301	ltpFR2	15	18	STATUE	1374	n/a	n/a	0	0	0
4221.69	n/a	WORD	2110845	wordpools/wasnorm_wordpool_576.txt	LTP301	ltpFR2	15	18	NEUTRON	947	n/a	n/a	0	0	0
4224.19	n/a	WORD	2112095	wordpools/wasnorm_wordpool_576.txt	LTP301	ltpFR2	15	18	VENUS	1557	n/a	n/a	0	0	0
4226.676	n/a	WORD	2113338	wordpools/wasnorm_wordpool_576.txt	LTP301	ltpFR2	15	18	PARTNER	1017	n/a	n/a	0	0	0
4229.328	n/a	WORD	2114664	wordpools/wasnorm_wordpool_576.txt	LTP301	ltpFR2	15	18	MONSTER	912	n/a	n/a	0	0	0
4232.132	n/a	WORD	2116066	wordpools/wasnorm_wordpool_576.txt	LTP301	ltpFR2	15	18	MAMMAL	861	n/a	n/a	0	0	0
4234.768	n/a	WORD	2117384	wordpools/wasnorm_wordpool_576.txt	LTP301	ltpFR2	15	18	STUDENT	1395	n/a	n/a	0	0	0
4237.42	n/a	WORD	2118710	wordpools/wasnorm_wordpool_576.txt	LTP301	ltpFR2	15	18	SOFTBALL	1343	n/a	n/a	0	0	0
4240.122	n/a	WORD	2120061	wordpools/wasnorm_wordpool_576.txt	LTP301	ltpFR2	15	18	BOX	159	n/a	n/a	0	0	0
4242.774	n/a	WORD	2121387	wordpools/wasnorm_wordpool_576.txt	LTP301	ltpFR2	15	18	OFFICE	972	n/a	n/a	0	0	0
4245.208	n/a	WORD	2122604	wordpools/wasnorm_wordpool_576.txt	LTP301	ltpFR2	15	18	BOYFRIEND	162	n/a	n/a	0	0	0
4247.71	n/a	WORD	2123855	wordpools/wasnorm_wordpool_576.txt	LTP301	ltpFR2	15	18	FLUTE	585	n/a	n/a	0	0	0
4250.412	n/a	WORD	2125206	wordpools/wasnorm_wordpool_576.txt	LTP301	ltpFR2	15	18	WORKER	1621	n/a	n/a	0	0	0
4252.832	n/a	WORD	2126416	wordpools/wasnorm_wordpool_576.txt	LTP301	ltpFR2	15	18	SPOON	1357	n/a	n/a	0	0	0
4255.634	n/a	WORD	2127817	wordpools/wasnorm_wordpool_576.txt	LTP301	ltpFR2	15	18	KNIFE	785	n/a	n/a	0	0	0
4258.336	n/a	WORD	2129168	wordpools/wasnorm_wordpool_576.txt	LTP301	ltpFR2	15	18	CONCERT	360	n/a	n/a	0	0	0
4259.938	n/a	START	2129969	n/a	LTP301	ltpFR2	15	n/a	n/a	n/a	26	n/a	n/a	n/a	n/a
4261.01	n/a	DISTRACTOR	2130505	n/a	LTP301	ltpFR2	15	18	n/a	n/a	n/a	n/a	0	0	0
4261.02	n/a	PROB	2130510	n/a	LTP301	ltpFR2	15	n/a	n/a	n/a	26	11	5	1	5
4263.688	n/a	PROB	2131844	n/a	LTP301	ltpFR2	15	n/a	n/a	n/a	26	12	2	6	4
4265.508	n/a	PROB	2132754	n/a	LTP301	ltpFR2	15	n/a	n/a	n/a	26	15	9	4	2
4268.326	n/a	PROB	2134163	n/a	LTP301	ltpFR2	15	n/a	n/a	n/a	26	7	5	1	1
4269.762	n/a	PROB	2134881	n/a	LTP301	ltpFR2	15	n/a	n/a	n/a	26	22	4	9	9
4271.646	n/a	PROB	2135823	n/a	LTP301	ltpFR2	15	n/a	n/a	n/a	26	11	7	1	3
4274.432	n/a	PROB	2137216	n/a	LTP301	ltpFR2	15	n/a	n/a	n/a	26	18	7	9	2
4276.216	n/a	PROB	2138108	n/a	LTP301	ltpFR2	15	n/a	n/a	n/a	26	14	4	6	4
4278.034	n/a	PROB	2139017	n/a	LTP301	ltpFR2	15	n/a	n/a	n/a	26	18	8	4	6
4280.77	n/a	PROB	2140385	n/a	LTP301	ltpFR2	15	n/a	n/a	n/a	26	8	5	2	1
4283.162	n/a	STOP	2141581	n/a	LTP301	ltpFR2	15	n/a	n/a	n/a	26	n/a	n/a	n/a	n/a
4285.69	n/a	REC_START	2142845	n/a	LTP301	ltpFR2	15	18	n/a	n/a	n/a	n/a	0	0	0
4288.522	n/a	REC_WORD	2144261	wordpools/wasnorm_wordpool_576.txt	LTP301	ltpFR2	15	18	CONCERT	360	n/a	n/a	0	0	0
4304.354	n/a	REC_WORD	2152177	wordpools/wasnorm_wordpool_576.txt	LTP301	ltpFR2	15	18	PENGUIN	1044	n/a	n/a	0	0	0
4514.388	n/a	DISTRACTOR	2257194	n/a	LTP301	ltpFR2	15	19	n/a	n/a	n/a	n/a	0	0	0
4514.388	n/a	START	2257194	n/a	LTP301	ltpFR2	15	n/a	n/a	n/a	27	n/a	n/a	n/a	n/a
4514.404	n/a	PROB	2257202	n/a	LTP301	ltpFR2	15	n/a	n/a	n/a	27	18	7	7	4
4516.656	n/a	PROB	2258328	n/a	LTP301	ltpFR2	15	n/a	n/a	n/a	27	15	2	4	9
4518.758	n/a	PROB	2259379	n/a	LTP301	ltpFR2	15	n/a	n/a	n/a	27	9	1	5	3
4520.876	n/a	PROB	2260438	n/a	LTP301	ltpFR2	15	n/a	n/a	n/a	27	18	2	8	8
4523.228	n/a	PROB	2261614	n/a	LTP301	ltpFR2	15	n/a	n/a	n/a	27	8	3	3	2
4526.08	n/a	PROB	2263040	n/a	LTP301	ltpFR2	15	n/a	n/a	n/a	27	19	9	9	1
4527.648	n/a	PROB	2263824	n/a	LTP301	ltpFR2	15	n/a	n/a	n/a	27	18	3	8	7
4530.65	n/a	PROB	2265325	n/a	LTP301	ltpFR2	15	n/a	n/a	n/a	27	16	1	8	7
4532.368	n/a	PROB	2266184	n/a	LTP301	ltpFR2	15	n/a	n/a	n/a	27	9	2	6	1
4534.354	n/a	PROB	2267177	n/a	LTP301	ltpFR2	15	n/a	n/a	n/a	27	13	5	6	2
4538.39	n/a	STOP	2269195	n/a	LTP301	ltpFR2	15	n/a	n/a	n/a	27	n/a	n/a	n/a	n/a
4539.46	n/a	WORD	2269730	wordpools/wasnorm_wordpool_576.txt	LTP301	ltpFR2	15	19	CRIB	407	n/a	n/a	0	0	0
4542.044	n/a	WORD	2271022	wordpools/wasnorm_wordpool_576.txt	LTP301	ltpFR2	15	19	SCALPEL	1243	n/a	n/a	0	0	0
4544.6	n/a	WORD	2272300	wordpools/wasnorm_wordpool_576.txt	LTP301	ltpFR2	15	19	SWIMMER	1420	n/a	n/a	0	0	0
4547.42	n/a	WORD	2273710	wordpools/wasnorm_wordpool_576.txt	LTP301	ltpFR2	15	19	SCARECROW	1245	n/a	n/a	0	0	0
4549.982	n/a	WORD	2274991	wordpools/wasnorm_wordpool_576.txt	LTP301	ltpFR2	15	19	FINGER	567	n/a	n/a	0	0	0
4552.758	n/a	WORD	2276379	wordpools/wasnorm_wordpool_576.txt	LTP301	ltpFR2	15	19	FLAG	573	n/a	n/a	0	0	0
4555.422	n/a	WORD	2277711	wordpools/wasnorm_wordpool_576.txt	LTP301	ltpFR2	15	19	LEOPARD	812	n/a	n/a	0	0	0
4558.022	n/a	WORD	2279011	wordpools/wasnorm_wordpool_576.txt	LTP301	ltpFR2	15	19	RUST	1219	n/a	n/a	0	0	0
4560.446	n/a	WORD	2280223	wordpools/wasnorm_wordpool_576.txt	LTP301	ltpFR2	15	19	LASER	801	n/a	n/a	0	0	0
4563.094	n/a	WORD	2281547	wordpools/wasnorm_wordpool_576.txt	LTP301	ltpFR2	15	19	CRAYON	401	n/a	n/a	0	0	0
4565.68	n/a	WORD	2282840	wordpools/wasnorm_wordpool_576.txt	LTP301	ltpFR2	15	19	EGYPT	519	n/a	n/a	0	0	0
4568.448	n/a	WORD	2284224	wordpools/wasnorm_wordpool_576.txt	LTP301	ltpFR2	15	19	LION	827	n/a	n/a	0	0	0
4571.234	n/a	WORD	2285617	wordpools/wasnorm_wordpool_576.txt	LTP301	ltpFR2	15	19	OINTMENT	974	n/a	n/a	0	0	0
4573.82	n/a	WORD	2286910	wordpools/wasnorm_wordpool_576.txt	LTP301	ltpFR2	15	19	COUNTY	389	n/a	n/a	0	0	0
4576.288	n/a	WORD	2288144	wordpools/wasnorm_wordpool_576.txt	LTP301	ltpFR2	15	19	COUNTRY	388	n/a	n/a	0	0	0
4578.872	n/a	WORD	2289436	wordpools/wasnorm_wordpool_576.txt	LTP301	ltpFR2	15	19	TORTOISE	1486	n/a	n/a	0	0	0
4581.432	n/a	WORD	2290716	wordpools/wasnorm_wordpool_576.txt	LTP301	ltpFR2	15	19	SEAFOOD	1260	n/a	n/a	0	0	0
4584.202	n/a	WORD	2292101	wordpools/wasnorm_wordpool_576.txt	LTP301	ltpFR2	15	19	BLACKBOARD	133	n/a	n/a	0	0	0
4586.862	n/a	WORD	2293431	wordpools/wasnorm_wordpool_576.txt	LTP301	ltpFR2	15	19	SWITCH	1422	n/a	n/a	0	0	0
4589.298	n/a	WORD	2294649	wordpools/wasnorm_wordpool_576.txt	LTP301	ltpFR2	15	19	CAMEL	223	n/a	n/a	0	0	0
4591.824	n/a	WORD	2295912	wordpools/wasnorm_wordpool_576.txt	LTP301	ltpFR2	15	19	MARKER	870	n/a	n/a	0	0	0
4594.26	n/a	WORD	2297130	wordpools/wasnorm_wordpool_576.txt	LTP301	ltpFR2	15	19	CANYON	235	n/a	n/a	0	0	0
4596.922	n/a	WORD	2298461	wordpools/wasnorm_wordpool_576.txt	LTP301	ltpFR2	15	19	CANAL	226	n/a	n/a	0	0	0
4599.34	n/a	WORD	2299670	wordpools/wasnorm_wordpool_576.txt	LTP301	ltpFR2	15	19	LAGOON	795	n/a	n/a	0	0	0
4600.95	n/a	START	2300475	n/a	LTP301	ltpFR2	15	n/a	n/a	n/a	28	n/a	n/a	n/a	n/a
4601.896	n/a	DISTRACTOR	2300948	n/a	LTP301	ltpFR2	15	19	n/a	n/a	n/a	n/a	0	0	0
4601.902	n/a	PROB	2300951	n/a	LTP301	ltpFR2	15	n/a	n/a	n/a	28	12	1	9	2
4603.692	n/a	PROB	2301846	n/a	LTP301	ltpFR2	15	n/a	n/a	n/a	28	21	5	8	9
4608.864	n/a	PROB	2304432	n/a	LTP301	ltpFR2	15	n/a	n/a	n/a	28	17	5	7	5
4610.73	n/a	PROB	2305365	n/a	LTP301	ltpFR2	15	n/a	n/a	n/a	28	20	2	8	8
4616.668	n/a	PROB	2308334	n/a	LTP301	ltpFR2	15	n/a	n/a	n/a	28	22	7	6	9
4620.806	n/a	PROB	2310403	n/a	LTP301	ltpFR2	15	n/a	n/a	n/a	28	15	5	7	3
4624.95	n/a	STOP	2312475	n/a	LTP301	ltpFR2	15	n/a	n/a	n/a	28	n/a	n/a	n/a	n/a
4626.794	n/a	REC_START	2313397	n/a	LTP301	ltpFR2	15	19	n/a	n/a	n/a	n/a	0	0	0
4628.286	n/a	REC_WORD	2314143	wordpools/wasnorm_wordpool_576.txt	LTP301	ltpFR2	15	19	SCALPEL	1243	n/a	n/a	0	0	0
4629.642	n/a	REC_WORD	2314821	wordpools/wasnorm_wordpool_576.txt	LTP301	ltpFR2	15	19	CRIB	407	n/a	n/a	0	0	0
4634.258	n/a	REC_WORD	2317129	wordpools/wasnorm_wordpool_576.txt	LTP301	ltpFR2	15	19	SURGEON	1413	n/a	n/a	0	0	0
4656.98	n/a	REC_WORD	2328490	wordpools/wasnorm_wordpool_576.txt	LTP301	ltpFR2	15	19	DOCTOR	478	n/a	n/a	0	0	0
4667.49	n/a	REC_WORD	2333745	wordpools/wasnorm_wordpool_576.txt	LTP301	ltpFR2	15	19	LASER	801	n/a	n/a	0	0	0
4717.266	n/a	WORD	2358633	wordpools/wasnorm_wordpool_576.txt	LTP301	ltpFR2	15	20	RIVER	1194	n/a	n/a	0	0	0
4719.984	n/a	WORD	2359992	wordpools/wasnorm_wordpool_576.txt	LTP301	ltpFR2	15	20	BASEMENT	94	n/a	n/a	0	0	0
4722.786	n/a	WORD	2361393	wordpools/wasnorm_wordpool_576.txt	LTP301	ltpFR2	15	20	JELLY	755	n/a	n/a	0	0	0
4725.222	n/a	WORD	2362611	wordpools/wasnorm_wordpool_576.txt	LTP301	ltpFR2	15	20	CRICKET	408	n/a	n/a	0	0	0
4727.908	n/a	WORD	2363954	wordpools/wasnorm_wordpool_576.txt	LTP301	ltpFR2	15	20	BRICK	172	n/a	n/a	0	0	0
4730.444	n/a	WORD	2365222	wordpools/wasnorm_wordpool_576.txt	LTP301	ltpFR2	15	20	VALLEY	1545	n/a	n/a	0	0	0
4733.196	n/a	WORD	2366598	wordpools/wasnorm_wordpool_576.txt	LTP301	ltpFR2	15	20	DANDRUFF	439	n/a	n/a	0	0	0
4735.832	n/a	WORD	2367916	wordpools/wasnorm_wordpool_576.txt	LTP301	ltpFR2	15	20	BATHTUB	100	n/a	n/a	0	0	0
4738.432	n/a	WORD	2369216	wordpools/wasnorm_wordpool_576.txt	LTP301	ltpFR2	15	20	SHOVEL	1295	n/a	n/a	0	0	0
4740.902	n/a	WORD	2370451	wordpools/wasnorm_wordpool_576.txt	LTP301	ltpFR2	15	20	PADDLE	1000	n/a	n/a	0	0	0
4743.37	n/a	WORD	2371685	wordpools/wasnorm_wordpool_576.txt	LTP301	ltpFR2	15	20	DOLPHIN	483	n/a	n/a	0	0	0
4746.038	n/a	WORD	2373019	wordpools/wasnorm_wordpool_576.txt	LTP301	ltpFR2	15	20	NURSE	963	n/a	n/a	0	0	0
4748.49	n/a	WORD	2374245	wordpools/wasnorm_wordpool_576.txt	LTP301	ltpFR2	15	20	CATTLE	261	n/a	n/a	0	0	0
4751.058	n/a	WORD	2375529	wordpools/wasnorm_wordpool_576.txt	LTP301	ltpFR2	15	20	CABBAGE	210	n/a	n/a	0	0	0
4753.662	n/a	WORD	2376831	wordpools/wasnorm_wordpool_576.txt	LTP301	ltpFR2	15	20	MILDEW	893	n/a	n/a	0	0	0
4756.446	n/a	WORD	2378223	wordpools/wasnorm_wordpool_576.txt	LTP301	ltpFR2	15	20	FOREST	593	n/a	n/a	0	0	0
4758.998	n/a	WORD	2379499	wordpools/wasnorm_wordpool_576.txt	LTP301	ltpFR2	15	20	PEBBLE	1035	n/a	n/a	0	0	0
4761.652	n/a	WORD	2380826	wordpools/wasnorm_wordpool_576.txt	LTP301	ltpFR2	15	20	MATCH	878	n/a	n/a	0	0	0
4764.42	n/a	WORD	2382210	wordpools/wasnorm_wordpool_576.txt	LTP301	ltpFR2	15	20	FIREMAN	569	n/a	n/a	0	0	0
4767.056	n/a	WORD	2383528	wordpools/wasnorm_wordpool_576.txt	LTP301	ltpFR2	15	20	OZONE	996	n/a	n/a	0	0	0
4769.746	n/a	WORD	2384873	wordpools/wasnorm_wordpool_576.txt	LTP301	ltpFR2	15	20	VIKING	1565	n/a	n/a	0	0	0
4772.31	n/a	WORD	2386155	wordpools/wasnorm_wordpool_576.txt	LTP301	ltpFR2	15	20	DRUG	501	n/a	n/a	0	0	0
4775.012	n/a	WORD	2387506	wordpools/wasnorm_wordpool_576.txt	LTP301	ltpFR2	15	20	POISON	1096	n/a	n/a	0	0	0
4777.68	n/a	WORD	2388840	wordpools/wasnorm_wordpool_576.txt	LTP301	ltpFR2	15	20	GRAPE	654	n/a	n/a	0	0	0
4779.286	n/a	START	2389643	n/a	LTP301	ltpFR2	15	n/a	n/a	n/a	29	n/a	n/a	n/a	n/a
4780.144	n/a	DISTRACTOR	2390072	n/a	LTP301	ltpFR2	15	20	n/a	n/a	n/a	n/a	0	0	0
4780.15	n/a	PROB	2390075	n/a	LTP301	ltpFR2	15	n/a	n/a	n/a	29	17	7	3	7
4784.968	n/a	PROB	2392484	n/a	LTP301	ltpFR2	15	n/a	n/a	n/a	29	20	4	7	9
4790.056	n/a	PROB	2395028	n/a	LTP301	ltpFR2	15	n/a	n/a	n/a	29	18	6	9	3
4793.476	n/a	PROB	2396738	n/a	LTP301	ltpFR2	15	n/a	n/a	n/a	29	20	9	7	4
4796.344	n/a	PROB	2398172	n/a	LTP301	ltpFR2	15	n/a	n/a	n/a	29	14	3	9	2
4798.614	n/a	PROB	2399307	n/a	LTP301	ltpFR2	15	n/a	n/a	n/a	29	14	3	5	6
4801.364	n/a	PROB	2400682	n/a	LTP301	ltpFR2	15	n/a	n/a	n/a	29	17	5	7	5
4802.93	n/a	STOP	2401465	n/a	LTP301	ltpFR2	15	n/a	n/a	n/a	29	n/a	n/a	n/a	n/a
4805.17	n/a	REC_START	2402585	n/a	LTP301	ltpFR2	15	20	n/a	n/a	n/a	n/a	0	0	0
4806.138	n/a	REC_WORD	2403069	wordpools/wasnorm_wordpool_576.txt	LTP301	ltpFR2	15	20	POISON	1096	n/a	n/a	0	0	0
4873.518	n/a	REC_WORD	2436759	wordpools/wasnorm_wordpool_576.txt	LTP301	ltpFR2	15	20	FINGER	567	n/a	n/a	0	0	0
4895.604	n/a	DISTRACTOR	2447802	n/a	LTP301	ltpFR2	15	21	n/a	n/a	n/a	n/a	0	0	0
4895.604	n/a	START	2447802	n/a	LTP301	ltpFR2	15	n/a	n/a	n/a	30	n/a	n/a	n/a	n/a
4895.62	n/a	PROB	2447810	n/a	LTP301	ltpFR2	15	n/a	n/a	n/a	30	18	1	9	8
4899.092	n/a	PROB	2449546	n/a	LTP301	ltpFR2	15	n/a	n/a	n/a	30	16	1	6	9
4901.892	n/a	PROB	2450946	n/a	LTP301	ltpFR2	15	n/a	n/a	n/a	30	13	8	1	4
4904.382	n/a	PROB	2452191	n/a	LTP301	ltpFR2	15	n/a	n/a	n/a	30	24	6	9	9
4906.182	n/a	PROB	2453091	n/a	LTP301	ltpFR2	15	n/a	n/a	n/a	30	19	7	3	9
4907.88	n/a	PROB	2453940	n/a	LTP301	ltpFR2	15	n/a	n/a	n/a	30	9	2	4	3
4909.898	n/a	PROB	2454949	n/a	LTP301	ltpFR2	15	n/a	n/a	n/a	30	13	7	2	4
4915.052	n/a	PROB	2457526	n/a	LTP301	ltpFR2	15	n/a	n/a	n/a	30	10	3	1	6
4919.604	n/a	STOP	2459802	n/a	LTP301	ltpFR2	15	n/a	n/a	n/a	30	n/a	n/a	n/a	n/a
4920.776	n/a	WORD	2460388	wordpools/wasnorm_wordpool_576.txt	LTP301	ltpFR2	15	21	JEANS	752	n/a	n/a	0	0	0
4923.344	n/a	WORD	2461672	wordpools/wasnorm_wordpool_576.txt	LTP301	ltpFR2	15	21	LIVER	833	n/a	n/a	0	0	0
4925.964	n/a	WORD	2462982	wordpools/wasnorm_wordpool_576.txt	LTP301	ltpFR2	15	21	DENTIST	447	n/a	n/a	0	0	0
4928.582	n/a	WORD	2464291	wordpools/wasnorm_wordpool_576.txt	LTP301	ltpFR2	15	21	SHARK	1275	n/a	n/a	0	0	0
4931.152	n/a	WORD	2465576	wordpools/wasnorm_wordpool_576.txt	LTP301	ltpFR2	15	21	MARS	873	n/a	n/a	0	0	0
4933.604	n/a	WORD	2466802	wordpools/wasnorm_wordpool_576.txt	LTP301	ltpFR2	15	21	BULLET	194	n/a	n/a	0	0	0
4936.122	n/a	WORD	2468061	wordpools/wasnorm_wordpool_576.txt	LTP301	ltpFR2	15	21	SNAIL	1332	n/a	n/a	0	0	0
4938.942	n/a	WORD	2469471	wordpools/wasnorm_wordpool_576.txt	LTP301	ltpFR2	15	21	SPOOL	1356	n/a	n/a	0	0	0
4941.376	n/a	WORD	2470688	wordpools/wasnorm_wordpool_576.txt	LTP301	ltpFR2	15	21	VIRUS	1572	n/a	n/a	0	0	0
4943.812	n/a	WORD	2471906	wordpools/wasnorm_wordpool_576.txt	LTP301	ltpFR2	15	21	SPONGE	1355	n/a	n/a	0	0	0
4946.246	n/a	WORD	2473123	wordpools/wasnorm_wordpool_576.txt	LTP301	ltpFR2	15	21	SHORTCAKE	1292	n/a	n/a	0	0	0
4949.016	n/a	WORD	2474508	wordpools/wasnorm_wordpool_576.txt	LTP301	ltpFR2	15	21	CITRUS	313	n/a	n/a	0	0	0
4951.452	n/a	WORD	2475726	wordpools/wasnorm_wordpool_576.txt	LTP301	ltpFR2	15	21	PATROL	1027	n/a	n/a	0	0	0
4953.988	n/a	WORD	2476994	wordpools/wasnorm_wordpool_576.txt	LTP301	ltpFR2	15	21	POLICE	1098	n/a	n/a	0	0	0
4956.422	n/a	WORD	2478211	wordpools/wasnorm_wordpool_576.txt	LTP301	ltpFR2	15	21	FREEZER	604	n/a	n/a	0	0	0
4958.992	n/a	WORD	2479496	wordpools/wasnorm_wordpool_576.txt	LTP301	ltpFR2	15	21	RELISH	1183	n/a	n/a	0	0	0
4961.81	n/a	WORD	2480905	wordpools/wasnorm_wordpool_576.txt	LTP301	ltpFR2	15	21	PERCH	1048	n/a	n/a	0	0	0
4964.446	n/a	WORD	2482223	wordpools/wasnorm_wordpool_576.txt	LTP301	ltpFR2	15	21	SPACE	1345	n/a	n/a	0	0	0
4967.114	n/a	WORD	2483557	wordpools/wasnorm_wordpool_576.txt	LTP301	ltpFR2	15	21	GUARD	667	n/a	n/a	0	0	0
4969.866	n/a	WORD	2484933	wordpools/wasnorm_wordpool_576.txt	LTP301	ltpFR2	15	21	FEMALE	559	n/a	n/a	0	0	0
4972.652	n/a	WORD	2486326	wordpools/wasnorm_wordpool_576.txt	LTP301	ltpFR2	15	21	THREAD	1460	n/a	n/a	0	0	0
4975.138	n/a	WORD	2487569	wordpools/wasnorm_wordpool_576.txt	LTP301	ltpFR2	15	21	GRILL	661	n/a	n/a	0	0	0
4977.672	n/a	WORD	2488836	wordpools/wasnorm_wordpool_576.txt	LTP301	ltpFR2	15	21	SWAMP	1416	n/a	n/a	0	0	0
4980.424	n/a	WORD	2490212	wordpools/wasnorm_wordpool_576.txt	LTP301	ltpFR2	15	21	QUAIL	1147	n/a	n/a	0	0	0
4982.028	n/a	START	2491014	n/a	LTP301	ltpFR2	15	n/a	n/a	n/a	31	n/a	n/a	n/a	n/a
4982.928	n/a	DISTRACTOR	2491464	n/a	LTP301	ltpFR2	15	21	n/a	n/a	n/a	n/a	0	0	0
4982.944	n/a	PROB	2491472	n/a	LTP301	ltpFR2	15	n/a	n/a	n/a	31	10	2	3	5
4985.496	n/a	PROB	2492748	n/a	LTP301	ltpFR2	15	n/a	n/a	n/a	31	10	2	2	6
4988.564	n/a	PROB	2494282	n/a	LTP301	ltpFR2	15	n/a	n/a	n/a	31	21	9	9	3
4991.066	n/a	PROB	2495533	n/a	LTP301	ltpFR2	15	n/a	n/a	n/a	31	18	6	3	9
4994.17	n/a	PROB	2497085	n/a	LTP301	ltpFR2	15	n/a	n/a	n/a	31	8	1	6	1
4995.52	n/a	PROB	2497760	n/a	LTP301	ltpFR2	15	n/a	n/a	n/a	31	11	4	6	1
4997.47	n/a	PROB	2498735	n/a	LTP301	ltpFR2	15	n/a	n/a	n/a	31	15	4	4	7
5000.44	n/a	PROB	2500220	n/a	LTP301	ltpFR2	15	n/a	n/a	n/a	31	15	7	6	2
5003.708	n/a	PROB	2501854	n/a	LTP301	ltpFR2	15	n/a	n/a	n/a	31	14	7	1	6
5005.68	n/a	STOP	2502840	n/a	LTP301	ltpFR2	15	n/a	n/a	n/a	31	n/a	n/a	n/a	n/a
5007.98	n/a	REC_START	2503990	n/a	LTP301	ltpFR2	15	21	n/a	n/a	n/a	n/a	0	0	0
5008.65	n/a	REC_WORD	2504325	wordpools/wasnorm_wordpool_576.txt	LTP301	ltpFR2	15	21	QUAIL	1147	n/a	n/a	0	0	0
5009.708	n/a	REC_WORD	2504854	wordpools/wasnorm_wordpool_576.txt	LTP301	ltpFR2	15	21	SPACE	1345	n/a	n/a	0	0	0
5011.46	n/a	REC_WORD	2505730	wordpools/wasnorm_wordpool_576.txt	LTP301	ltpFR2	15	21	THREAD	1460	n/a	n/a	0	0	0
5012.662	n/a	REC_WORD	2506331	wordpools/wasnorm_wordpool_576.txt	LTP301	ltpFR2	15	21	SPOOL	1356	n/a	n/a	0	0	0
5074.768	n/a	REC_WORD	2537384	wordpools/wasnorm_wordpool_576.txt	LTP301	ltpFR2	15	21	PAIL	1002	n/a	n/a	0	0	0
5098.402	n/a	DISTRACTOR	2549201	n/a	LTP301	ltpFR2	15	22	n/a	n/a	n/a	n/a	0	0	0
5098.402	n/a	START	2549201	n/a	LTP301	ltpFR2	15	n/a	n/a	n/a	32	n/a	n/a	n/a	n/a
5098.418	n/a	PROB	2549209	n/a	LTP301	ltpFR2	15	n/a	n/a	n/a	32	17	5	6	6
5101.17	n/a	PROB	2550585	n/a	LTP301	ltpFR2	15	n/a	n/a	n/a	32	15	3	6	6
5102.938	n/a	PROB	2551469	n/a	LTP301	ltpFR2	15	n/a	n/a	n/a	32	14	9	2	3
5104.924	n/a	PROB	2552462	n/a	LTP301	ltpFR2	15	n/a	n/a	n/a	32	18	9	7	2
5107.076	n/a	PROB	2553538	n/a	LTP301	ltpFR2	15	n/a	n/a	n/a	32	21	7	4	8
5109.41	n/a	PROB	2554705	n/a	LTP301	ltpFR2	15	n/a	n/a	n/a	32	12	9	1	2
5111.978	n/a	PROB	2555989	n/a	LTP301	ltpFR2	15	n/a	n/a	n/a	32	15	8	3	4
5114.282	n/a	PROB	2557141	n/a	LTP301	ltpFR2	15	n/a	n/a	n/a	32	10	5	2	3
5115.58	n/a	PROB	2557790	n/a	LTP301	ltpFR2	15	n/a	n/a	n/a	32	17	6	3	8
5118.416	n/a	PROB	2559208	n/a	LTP301	ltpFR2	15	n/a	n/a	n/a	32	16	4	7	5
5122.402	n/a	STOP	2561201	n/a	LTP301	ltpFR2	15	n/a	n/a	n/a	32	n/a	n/a	n/a	n/a
5123.584	n/a	WORD	2561792	wordpools/wasnorm_wordpool_576.txt	LTP301	ltpFR2	15	22	PRIMATE	1123	n/a	n/a	0	0	0
5126.074	n/a	WORD	2563037	wordpools/wasnorm_wordpool_576.txt	LTP301	ltpFR2	15	22	BUG	187	n/a	n/a	0	0	0
5128.854	n/a	WORD	2564427	wordpools/wasnorm_wordpool_576.txt	LTP301	ltpFR2	15	22	WAITER	1580	n/a	n/a	0	0	0
5131.412	n/a	WORD	2565706	wordpools/wasnorm_wordpool_576.txt	LTP301	ltpFR2	15	22	PAIL	1002	n/a	n/a	0	0	0
5134.176	n/a	WORD	2567088	wordpools/wasnorm_wordpool_576.txt	LTP301	ltpFR2	15	22	BUBBLE	183	n/a	n/a	0	0	0
5136.944	n/a	WORD	2568472	wordpools/wasnorm_wordpool_576.txt	LTP301	ltpFR2	15	22	PRINCE	1124	n/a	n/a	0	0	0
5139.498	n/a	WORD	2569749	wordpools/wasnorm_wordpool_576.txt	LTP301	ltpFR2	15	22	BACKBONE	66	n/a	n/a	0	0	0
5142.1	n/a	WORD	2571050	wordpools/wasnorm_wordpool_576.txt	LTP301	ltpFR2	15	22	LIZARD	834	n/a	n/a	0	0	0
5144.668	n/a	WORD	2572334	wordpools/wasnorm_wordpool_576.txt	LTP301	ltpFR2	15	22	PEACH	1031	n/a	n/a	0	0	0
5147.32	n/a	WORD	2573660	wordpools/wasnorm_wordpool_576.txt	LTP301	ltpFR2	15	22	WHISTLE	1606	n/a	n/a	0	0	0
5150.056	n/a	WORD	2575028	wordpools/wasnorm_wordpool_576.txt	LTP301	ltpFR2	15	22	GANGSTER	620	n/a	n/a	0	0	0
5152.574	n/a	WORD	2576287	wordpools/wasnorm_wordpool_576.txt	LTP301	ltpFR2	15	22	SILK	1307	n/a	n/a	0	0	0
5155.294	n/a	WORD	2577647	wordpools/wasnorm_wordpool_576.txt	LTP301	ltpFR2	15	22	BANJO	82	n/a	n/a	0	0	0
5158.066	n/a	WORD	2579033	wordpools/wasnorm_wordpool_576.txt	LTP301	ltpFR2	15	22	NAPKIN	937	n/a	n/a	0	0	0
5160.5	n/a	WORD	2580250	wordpools/wasnorm_wordpool_576.txt	LTP301	ltpFR2	15	22	BADGE	68	n/a	n/a	0	0	0
5163.302	n/a	WORD	2581651	wordpools/wasnorm_wordpool_576.txt	LTP301	ltpFR2	15	22	SHERIFF	1284	n/a	n/a	0	0	0
5166.07	n/a	WORD	2583035	wordpools/wasnorm_wordpool_576.txt	LTP301	ltpFR2	15	22	CUPBOARD	425	n/a	n/a	0	0	0
5168.506	n/a	WORD	2584253	wordpools/wasnorm_wordpool_576.txt	LTP301	ltpFR2	15	22	CABIN	211	n/a	n/a	0	0	0
5171.292	n/a	WORD	2585646	wordpools/wasnorm_wordpool_576.txt	LTP301	ltpFR2	15	22	GAVEL	627	n/a	n/a	0	0	0
5173.778	n/a	WORD	2586889	wordpools/wasnorm_wordpool_576.txt	LTP301	ltpFR2	15	22	TWIG	1527	n/a	n/a	0	0	0
5176.562	n/a	WORD	2588281	wordpools/wasnorm_wordpool_576.txt	LTP301	ltpFR2	15	22	LUMBER	848	n/a	n/a	0	0	0
5179.232	n/a	WORD	2589616	wordpools/wasnorm_wordpool_576.txt	LTP301	ltpFR2	15	22	IGLOO	734	n/a	n/a	0	0	0
5181.8	n/a	WORD	2590900	wordpools/wasnorm_wordpool_576.txt	LTP301	ltpFR2	15	22	POCKET	1093	n/a	n/a	0	0	0
5184.268	n/a	WORD	2592134	wordpools/wasnorm_wordpool_576.txt	LTP301	ltpFR2	15	22	SERVER	1272	n/a	n/a	0	0	0
5185.87	n/a	START	2592935	n/a	LTP301	ltpFR2	15	n/a	n/a	n/a	33	n/a	n/a	n/a	n/a
5186.744	n/a	DISTRACTOR	2593372	n/a	LTP301	ltpFR2	15	22	n/a	n/a	n/a	n/a	0	0	0
5186.754	n/a	PROB	2593377	n/a	LTP301	ltpFR2	15	n/a	n/a	n/a	33	14	7	1	6
5189.506	n/a	PROB	2594753	n/a	LTP301	ltpFR2	15	n/a	n/a	n/a	33	14	8	3	3
5192.91	n/a	PROB	2596455	n/a	LTP301	ltpFR2	15	n/a	n/a	n/a	33	11	1	4	6
5194.462	n/a	PROB	2597231	n/a	LTP301	ltpFR2	15	n/a	n/a	n/a	33	18	9	5	4
5196.678	n/a	PROB	2598339	n/a	LTP301	ltpFR2	15	n/a	n/a	n/a	33	16	2	9	5
5199.982	n/a	PROB	2599991	n/a	LTP301	ltpFR2	15	n/a	n/a	n/a	33	15	6	5	4
5204.284	n/a	PROB	2602142	n/a	LTP301	ltpFR2	15	n/a	n/a	n/a	33	17	8	7	2
5209.872	n/a	STOP	2604936	n/a	LTP301	ltpFR2	15	n/a	n/a	n/a	33	n/a	n/a	n/a	n/a
5211.792	n/a	REC_START	2605896	n/a	LTP301	ltpFR2	15	22	n/a	n/a	n/a	n/a	0	0	0
5215.42	n/a	REC_WORD	2607710	wordpools/wasnorm_wordpool_576.txt	LTP301	ltpFR2	15	22	PAIL	1002	n/a	n/a	0	0	0
5216.528	n/a	REC_WORD	2608264	wordpools/wasnorm_wordpool_576.txt	LTP301	ltpFR2	15	22	CABIN	211	n/a	n/a	0	0	0
5218.004	n/a	REC_WORD	2609002	wordpools/wasnorm_wordpool_576.txt	LTP301	ltpFR2	15	22	BACKBONE	66	n/a	n/a	0	0	0
5220.458	n/a	REC_WORD	2610229	wordpools/wasnorm_wordpool_576.txt	LTP301	ltpFR2	15	22	PRINCE	1124	n/a	n/a	0	0	0
5225.124	n/a	REC_WORD	2612562	wordpools/wasnorm_wordpool_576.txt	LTP301	ltpFR2	15	22	LIZARD	834	n/a	n/a	0	0	0
5302.22	n/a	DISTRACTOR	2651110	n/a	LTP301	ltpFR2	15	23	n/a	n/a	n/a	n/a	0	0	0
5302.22	n/a	START	2651110	n/a	LTP301	ltpFR2	15	n/a	n/a	n/a	34	n/a	n/a	n/a	n/a
5302.236	n/a	PROB	2651118	n/a	LTP301	ltpFR2	15	n/a	n/a	n/a	34	8	1	1	6
5303.964	n/a	PROB	2651982	n/a	LTP301	ltpFR2	15	n/a	n/a	n/a	34	12	3	2	7
5306.298	n/a	PROB	2653149	n/a	LTP301	ltpFR2	15	n/a	n/a	n/a	34	11	5	1	5
5307.816	n/a	PROB	2653908	n/a	LTP301	ltpFR2	15	n/a	n/a	n/a	34	15	4	4	7
5311.302	n/a	PROB	2655651	n/a	LTP301	ltpFR2	15	n/a	n/a	n/a	34	13	6	6	1
5313.438	n/a	PROB	2656719	n/a	LTP301	ltpFR2	15	n/a	n/a	n/a	34	17	6	4	7
5315.472	n/a	PROB	2657736	n/a	LTP301	ltpFR2	15	n/a	n/a	n/a	34	14	8	5	1
5317.942	n/a	PROB	2658971	n/a	LTP301	ltpFR2	15	n/a	n/a	n/a	34	12	7	4	1
5326.222	n/a	STOP	2663111	n/a	LTP301	ltpFR2	15	n/a	n/a	n/a	34	n/a	n/a	n/a	n/a
5327.034	n/a	WORD	2663517	wordpools/wasnorm_wordpool_576.txt	LTP301	ltpFR2	15	23	ITEM	746	n/a	n/a	0	0	0
5329.694	n/a	WORD	2664847	wordpools/wasnorm_wordpool_576.txt	LTP301	ltpFR2	15	23	AIRPORT	13	n/a	n/a	0	0	0
5332.354	n/a	WORD	2666177	wordpools/wasnorm_wordpool_576.txt	LTP301	ltpFR2	15	23	TURNIP	1521	n/a	n/a	0	0	0
5334.922	n/a	WORD	2667461	wordpools/wasnorm_wordpool_576.txt	LTP301	ltpFR2	15	23	COLLEGE	346	n/a	n/a	0	0	0
5337.7	n/a	WORD	2668850	wordpools/wasnorm_wordpool_576.txt	LTP301	ltpFR2	15	23	ATOM	55	n/a	n/a	0	0	0
5340.12	n/a	WORD	2670060	wordpools/wasnorm_wordpool_576.txt	LTP301	ltpFR2	15	23	FRIEND	606	n/a	n/a	0	0	0
5342.622	n/a	WORD	2671311	wordpools/wasnorm_wordpool_576.txt	LTP301	ltpFR2	15	23	LOVER	846	n/a	n/a	0	0	0
5345.174	n/a	WORD	2672587	wordpools/wasnorm_wordpool_576.txt	LTP301	ltpFR2	15	23	DONOR	485	n/a	n/a	0	0	0
5347.96	n/a	WORD	2673980	wordpools/wasnorm_wordpool_576.txt	LTP301	ltpFR2	15	23	BEAKER	104	n/a	n/a	0	0	0
5350.634	n/a	WORD	2675317	wordpools/wasnorm_wordpool_576.txt	LTP301	ltpFR2	15	23	DRILL	497	n/a	n/a	0	0	0
5353.198	n/a	WORD	2676599	wordpools/wasnorm_wordpool_576.txt	LTP301	ltpFR2	15	23	PLAYGROUND	1087	n/a	n/a	0	0	0
5355.69	n/a	WORD	2677845	wordpools/wasnorm_wordpool_576.txt	LTP301	ltpFR2	15	23	CHILD	299	n/a	n/a	0	0	0
5358.136	n/a	WORD	2679068	wordpools/wasnorm_wordpool_576.txt	LTP301	ltpFR2	15	23	DINER	467	n/a	n/a	0	0	0
5360.822	n/a	WORD	2680411	wordpools/wasnorm_wordpool_576.txt	LTP301	ltpFR2	15	23	SLIME	1327	n/a	n/a	0	0	0
5363.59	n/a	WORD	2681795	wordpools/wasnorm_wordpool_576.txt	LTP301	ltpFR2	15	23	GROUND	666	n/a	n/a	0	0	0
5366.014	n/a	WORD	2683007	wordpools/wasnorm_wordpool_576.txt	LTP301	ltpFR2	15	23	CYCLONE	431	n/a	n/a	0	0	0
5368.716	n/a	WORD	2684358	wordpools/wasnorm_wordpool_576.txt	LTP301	ltpFR2	15	23	LUNCH	849	n/a	n/a	0	0	0
5371.214	n/a	WORD	2685607	wordpools/wasnorm_wordpool_576.txt	LTP301	ltpFR2	15	23	HOOK	715	n/a	n/a	0	0	0
5373.664	n/a	WORD	2686832	wordpools/wasnorm_wordpool_576.txt	LTP301	ltpFR2	15	23	FIREPLACE	570	n/a	n/a	0	0	0
5376.218	n/a	WORD	2688109	wordpools/wasnorm_wordpool_576.txt	LTP301	ltpFR2	15	23	LEADER	807	n/a	n/a	0	0	0
5378.82	n/a	WORD	2689410	wordpools/wasnorm_wordpool_576.txt	LTP301	ltpFR2	15	23	PASSAGE	1019	n/a	n/a	0	0	0
5381.622	n/a	WORD	2690811	wordpools/wasnorm_wordpool_576.txt	LTP301	ltpFR2	15	23	HUSBAND	728	n/a	n/a	0	0	0
5384.274	n/a	WORD	2692137	wordpools/wasnorm_wordpool_576.txt	LTP301	ltpFR2	15	23	KIDNEY	776	n/a	n/a	0	0	0
5386.844	n/a	WORD	2693422	wordpools/wasnorm_wordpool_576.txt	LTP301	ltpFR2	15	23	BODY	145	n/a	n/a	0	0	0
5388.45	n/a	START	2694225	n/a	LTP301	ltpFR2	15	n/a	n/a	n/a	35	n/a	n/a	n/a	n/a
5389.294	n/a	DISTRACTOR	2694647	n/a	LTP301	ltpFR2	15	23	n/a	n/a	n/a	n/a	0	0	0
5389.3	n/a	PROB	2694650	n/a	LTP301	ltpFR2	15	n/a	n/a	n/a	35	24	8	9	7
5394.134	n/a	PROB	2697067	n/a	LTP301	ltpFR2	15	n/a	n/a	n/a	35	19	7	6	8
5397.502	n/a	PROB	2698751	n/a	LTP301	ltpFR2	15	n/a	n/a	n/a	35	15	7	6	2
5401.374	n/a	PROB	2700687	n/a	LTP301	ltpFR2	15	n/a	n/a	n/a	35	13	9	2	2
5403.256	n/a	PROB	2701628	n/a	LTP301	ltpFR2	15	n/a	n/a	n/a	35	14	4	9	1
5405.608	n/a	PROB	2702804	n/a	LTP301	ltpFR2	15	n/a	n/a	n/a	35	13	3	5	5
5406.994	n/a	PROB	2703497	n/a	LTP301	ltpFR2	15	n/a	n/a	n/a	35	9	3	2	4
5409.012	n/a	PROB	2704506	n/a	LTP301	ltpFR2	15	n/a	n/a	n/a	35	14	6	7	1
5412.45	n/a	STOP	2706225	n/a	LTP301	ltpFR2	15	n/a	n/a	n/a	35	n/a	n/a	n/a	n/a
5414.366	n/a	REC_START	2707183	n/a	LTP301	ltpFR2	15	23	n/a	n/a	n/a	n/a	0	0	0
5415.416	n/a	REC_WORD	2707708	wordpools/wasnorm_wordpool_576.txt	LTP301	ltpFR2	15	23	HUSBAND	728	n/a	n/a	0	0	0
5416.614	n/a	REC_WORD	2708307	wordpools/wasnorm_wordpool_576.txt	LTP301	ltpFR2	15	23	KIDNEY	776	n/a	n/a	0	0	0
