onset	duration	trial_type	sample	stim_file	subject	experiment	session	trial	item_name	item_num	list	answer	test_x	test_y	test_z
221.35498046875	n/a	SESS_START	453335	n/a	LTP365	ltpFR2	14	n/a	n/a	n/a	n/a	n/a	0	0	0
235.95556640625	n/a	START	483237	n/a	LTP365	ltpFR2	14	n/a	n/a	n/a	-1	n/a	n/a	n/a	n/a
235.9697265625	n/a	PROB	483266	n/a	LTP365	ltpFR2	14	n/a	n/a	n/a	-1	7	3	2	3
237.724609375	n/a	PROB	486860	n/a	LTP365	ltpFR2	14	n/a	n/a	n/a	-1	10	4	5	1
239.396484375	n/a	PROB	490284	n/a	LTP365	ltpFR2	14	n/a	n/a	n/a	-1	17	8	8	1
241.92138671875	n/a	PROB	495455	n/a	LTP365	ltpFR2	14	n/a	n/a	n/a	-1	21	7	5	9
244.84765625	n/a	PROB	501448	n/a	LTP365	ltpFR2	14	n/a	n/a	n/a	-1	14	3	3	8
246.45361328125	n/a	PROB	504737	n/a	LTP365	ltpFR2	14	n/a	n/a	n/a	-1	20	6	6	8
247.6865234375	n/a	STOP	507262	n/a	LTP365	ltpFR2	14	n/a	n/a	n/a	-1	n/a	n/a	n/a	n/a
276.90087890625	n/a	DISTRACTOR	567093	n/a	LTP365	ltpFR2	14	1	n/a	n/a	n/a	n/a	0	0	0
276.90185546875	n/a	START	567095	n/a	LTP365	ltpFR2	14	n/a	n/a	n/a	1	n/a	n/a	n/a	n/a
276.91748046875	n/a	PROB	567127	n/a	LTP365	ltpFR2	14	n/a	n/a	n/a	1	8	2	3	3
278.6396484375	n/a	PROB	570654	n/a	LTP365	ltpFR2	14	n/a	n/a	n/a	1	15	4	9	2
280.04345703125	n/a	PROB	573529	n/a	LTP365	ltpFR2	14	n/a	n/a	n/a	1	17	5	7	5
281.5654296875	n/a	PROB	576646	n/a	LTP365	ltpFR2	14	n/a	n/a	n/a	1	20	4	9	7
283.28759765625	n/a	PROB	580173	n/a	LTP365	ltpFR2	14	n/a	n/a	n/a	1	21	8	7	7
285.86328125	n/a	PROB	585448	n/a	LTP365	ltpFR2	14	n/a	n/a	n/a	1	15	5	4	6
287.38427734375	n/a	PROB	588563	n/a	LTP365	ltpFR2	14	n/a	n/a	n/a	1	4	1	1	2
288.42138671875	n/a	PROB	590687	n/a	LTP365	ltpFR2	14	n/a	n/a	n/a	1	18	8	9	1
289.50830078125	n/a	PROB	592913	n/a	LTP365	ltpFR2	14	n/a	n/a	n/a	1	16	5	3	8
291.21240234375	n/a	PROB	596403	n/a	LTP365	ltpFR2	14	n/a	n/a	n/a	1	16	1	8	7
292.68505859375	n/a	PROB	599419	n/a	LTP365	ltpFR2	14	n/a	n/a	n/a	1	17	9	4	4
294.2392578125	n/a	PROB	602602	n/a	LTP365	ltpFR2	14	n/a	n/a	n/a	1	14	4	2	8
295.59423828125	n/a	PROB	605377	n/a	LTP365	ltpFR2	14	n/a	n/a	n/a	1	24	8	8	8
297.1982421875	n/a	PROB	608662	n/a	LTP365	ltpFR2	14	n/a	n/a	n/a	1	14	5	8	1
298.75390625	n/a	PROB	611848	n/a	LTP365	ltpFR2	14	n/a	n/a	n/a	1	13	4	7	1
300.2861328125	n/a	STOP	614986	n/a	LTP365	ltpFR2	14	n/a	n/a	n/a	1	n/a	n/a	n/a	n/a
301.81396484375	n/a	WORD	618115	wordpools/wasnorm_wordpool_576.txt	LTP365	ltpFR2	14	1	BRANCH	168	n/a	n/a	0	0	0
304.52294921875	n/a	WORD	623663	wordpools/wasnorm_wordpool_576.txt	LTP365	ltpFR2	14	1	RABBIT	1152	n/a	n/a	0	0	0
306.97998046875	n/a	WORD	628695	wordpools/wasnorm_wordpool_576.txt	LTP365	ltpFR2	14	1	MOTEL	919	n/a	n/a	0	0	0
309.5888671875	n/a	WORD	634038	wordpools/wasnorm_wordpool_576.txt	LTP365	ltpFR2	14	1	CABIN	211	n/a	n/a	0	0	0
312.1298828125	n/a	WORD	639242	wordpools/wasnorm_wordpool_576.txt	LTP365	ltpFR2	14	1	SLUG	1329	n/a	n/a	0	0	0
314.65576171875	n/a	WORD	644415	wordpools/wasnorm_wordpool_576.txt	LTP365	ltpFR2	14	1	QUAIL	1147	n/a	n/a	0	0	0
317.29638671875	n/a	WORD	649823	wordpools/wasnorm_wordpool_576.txt	LTP365	ltpFR2	14	1	GRAVE	658	n/a	n/a	0	0	0
319.78857421875	n/a	WORD	654927	wordpools/wasnorm_wordpool_576.txt	LTP365	ltpFR2	14	1	MARINE	869	n/a	n/a	0	0	0
322.3623046875	n/a	WORD	660198	wordpools/wasnorm_wordpool_576.txt	LTP365	ltpFR2	14	1	LAKE	796	n/a	n/a	0	0	0
324.83837890625	n/a	WORD	665269	wordpools/wasnorm_wordpool_576.txt	LTP365	ltpFR2	14	1	SPOOL	1356	n/a	n/a	0	0	0
327.328125	n/a	WORD	670368	wordpools/wasnorm_wordpool_576.txt	LTP365	ltpFR2	14	1	THREAD	1460	n/a	n/a	0	0	0
330.00439453125	n/a	WORD	675849	wordpools/wasnorm_wordpool_576.txt	LTP365	ltpFR2	14	1	CLAM	315	n/a	n/a	0	0	0
332.79736328125	n/a	WORD	681569	wordpools/wasnorm_wordpool_576.txt	LTP365	ltpFR2	14	1	SILK	1307	n/a	n/a	0	0	0
335.35400390625	n/a	WORD	686805	wordpools/wasnorm_wordpool_576.txt	LTP365	ltpFR2	14	1	GRAPE	654	n/a	n/a	0	0	0
338.09716796875	n/a	WORD	692423	wordpools/wasnorm_wordpool_576.txt	LTP365	ltpFR2	14	1	PICTURE	1061	n/a	n/a	0	0	0
340.80615234375	n/a	WORD	697971	wordpools/wasnorm_wordpool_576.txt	LTP365	ltpFR2	14	1	WASHER	1592	n/a	n/a	0	0	0
343.56494140625	n/a	WORD	703621	wordpools/wasnorm_wordpool_576.txt	LTP365	ltpFR2	14	1	DIME	466	n/a	n/a	0	0	0
346.03857421875	n/a	WORD	708687	wordpools/wasnorm_wordpool_576.txt	LTP365	ltpFR2	14	1	SISTER	1312	n/a	n/a	0	0	0
348.681640625	n/a	WORD	714100	wordpools/wasnorm_wordpool_576.txt	LTP365	ltpFR2	14	1	TRACTOR	1493	n/a	n/a	0	0	0
351.35546875	n/a	WORD	719576	wordpools/wasnorm_wordpool_576.txt	LTP365	ltpFR2	14	1	STOVE	1388	n/a	n/a	0	0	0
354.16455078125	n/a	WORD	725329	wordpools/wasnorm_wordpool_576.txt	LTP365	ltpFR2	14	1	TURTLE	1522	n/a	n/a	0	0	0
356.82470703125	n/a	WORD	730777	wordpools/wasnorm_wordpool_576.txt	LTP365	ltpFR2	14	1	TWIG	1527	n/a	n/a	0	0	0
359.599609375	n/a	WORD	736460	wordpools/wasnorm_wordpool_576.txt	LTP365	ltpFR2	14	1	VELVET	1555	n/a	n/a	0	0	0
362.04052734375	n/a	WORD	741459	wordpools/wasnorm_wordpool_576.txt	LTP365	ltpFR2	14	1	FLESH	579	n/a	n/a	0	0	0
363.646484375	n/a	START	744748	n/a	LTP365	ltpFR2	14	n/a	n/a	n/a	2	n/a	n/a	n/a	n/a
364.7734375	n/a	DISTRACTOR	747056	n/a	LTP365	ltpFR2	14	1	n/a	n/a	n/a	n/a	0	0	0
364.783203125	n/a	PROB	747076	n/a	LTP365	ltpFR2	14	n/a	n/a	n/a	2	12	5	1	6
366.27001953125	n/a	PROB	750121	n/a	LTP365	ltpFR2	14	n/a	n/a	n/a	2	22	6	9	7
368.662109375	n/a	PROB	755020	n/a	LTP365	ltpFR2	14	n/a	n/a	n/a	2	22	9	9	4
370.869140625	n/a	PROB	759540	n/a	LTP365	ltpFR2	14	n/a	n/a	n/a	2	23	5	9	9
372.97509765625	n/a	PROB	763853	n/a	LTP365	ltpFR2	14	n/a	n/a	n/a	2	13	1	7	5
375.451171875	n/a	PROB	768924	n/a	LTP365	ltpFR2	14	n/a	n/a	n/a	2	20	9	9	2
376.705078125	n/a	PROB	771492	n/a	LTP365	ltpFR2	14	n/a	n/a	n/a	2	15	6	1	8
378.376953125	n/a	PROB	774916	n/a	LTP365	ltpFR2	14	n/a	n/a	n/a	2	17	9	1	7
379.64794921875	n/a	PROB	777519	n/a	LTP365	ltpFR2	14	n/a	n/a	n/a	2	19	8	2	9
380.93505859375	n/a	PROB	780155	n/a	LTP365	ltpFR2	14	n/a	n/a	n/a	2	8	3	4	1
382.556640625	n/a	PROB	783476	n/a	LTP365	ltpFR2	14	n/a	n/a	n/a	2	13	8	1	4
384.69677734375	n/a	PROB	787859	n/a	LTP365	ltpFR2	14	n/a	n/a	n/a	2	16	4	5	7
386.58251953125	n/a	STOP	791721	n/a	LTP365	ltpFR2	14	n/a	n/a	n/a	2	n/a	n/a	n/a	n/a
389.396484375	n/a	REC_START	797484	n/a	LTP365	ltpFR2	14	1	n/a	n/a	n/a	n/a	0	0	0
390.70556640625	n/a	REC_WORD	800165	wordpools/wasnorm_wordpool_576.txt	LTP365	ltpFR2	14	1	STOVE	1388	n/a	n/a	0	0	0
391.74658203125	n/a	REC_WORD	802297	wordpools/wasnorm_wordpool_576.txt	LTP365	ltpFR2	14	1	CABIN	211	n/a	n/a	0	0	0
392.65673828125	n/a	REC_WORD	804161	wordpools/wasnorm_wordpool_576.txt	LTP365	ltpFR2	14	1	BRANCH	168	n/a	n/a	0	0	0
393.50830078125	n/a	REC_WORD	805905	wordpools/wasnorm_wordpool_576.txt	LTP365	ltpFR2	14	1	TWIG	1527	n/a	n/a	0	0	0
394.46630859375	n/a	REC_WORD	807867	wordpools/wasnorm_wordpool_576.txt	LTP365	ltpFR2	14	1	TURTLE	1522	n/a	n/a	0	0	0
395.20263671875	n/a	REC_WORD	809375	wordpools/wasnorm_wordpool_576.txt	LTP365	ltpFR2	14	1	SLUG	1329	n/a	n/a	0	0	0
396.2275390625	n/a	REC_WORD	811474	wordpools/wasnorm_wordpool_576.txt	LTP365	ltpFR2	14	1	FLESH	579	n/a	n/a	0	0	0
397.41357421875	n/a	REC_WORD	813903	wordpools/wasnorm_wordpool_576.txt	LTP365	ltpFR2	14	1	GRAVE	658	n/a	n/a	0	0	0
399.54150390625	n/a	REC_WORD	818261	wordpools/wasnorm_wordpool_576.txt	LTP365	ltpFR2	14	1	WASHER	1592	n/a	n/a	0	0	0
400.58544921875	n/a	REC_WORD	820399	wordpools/wasnorm_wordpool_576.txt	LTP365	ltpFR2	14	1	DIME	466	n/a	n/a	0	0	0
401.4853515625	n/a	REC_WORD	822242	wordpools/wasnorm_wordpool_576.txt	LTP365	ltpFR2	14	1	RABBIT	1152	n/a	n/a	0	0	0
403.7373046875	n/a	REC_WORD	826854	wordpools/wasnorm_wordpool_576.txt	LTP365	ltpFR2	14	1	THREAD	1460	n/a	n/a	0	0	0
404.54833984375	n/a	REC_WORD	828515	wordpools/wasnorm_wordpool_576.txt	LTP365	ltpFR2	14	1	SILK	1307	n/a	n/a	0	0	0
405.14208984375	n/a	REC_WORD	829731	wordpools/wasnorm_wordpool_576.txt	LTP365	ltpFR2	14	1	VELVET	1555	n/a	n/a	0	0	0
405.96533203125	n/a	REC_WORD	831417	wordpools/wasnorm_wordpool_576.txt	LTP365	ltpFR2	14	1	SPOOL	1356	n/a	n/a	0	0	0
416.95263671875	n/a	REC_WORD	853919	wordpools/wasnorm_wordpool_576.txt	LTP365	ltpFR2	14	1	MOTEL	919	n/a	n/a	0	0	0
418.54296875	n/a	REC_WORD	857176	wordpools/wasnorm_wordpool_576.txt	LTP365	ltpFR2	14	1	MARINE	869	n/a	n/a	0	0	0
422.3076171875	n/a	REC_WORD	864886	wordpools/wasnorm_wordpool_576.txt	LTP365	ltpFR2	14	1	LAKE	796	n/a	n/a	0	0	0
427.83251953125	n/a	REC_WORD	876201	wordpools/wasnorm_wordpool_576.txt	LTP365	ltpFR2	14	1	CLAM	315	n/a	n/a	0	0	0
479.85302734375	n/a	DISTRACTOR	982739	n/a	LTP365	ltpFR2	14	2	n/a	n/a	n/a	n/a	0	0	0
479.85302734375	n/a	START	982739	n/a	LTP365	ltpFR2	14	n/a	n/a	n/a	3	n/a	n/a	n/a	n/a
479.869140625	n/a	PROB	982772	n/a	LTP365	ltpFR2	14	n/a	n/a	n/a	3	16	5	8	3
481.3740234375	n/a	PROB	985854	n/a	LTP365	ltpFR2	14	n/a	n/a	n/a	3	21	6	7	8
483.22900390625	n/a	PROB	989653	n/a	LTP365	ltpFR2	14	n/a	n/a	n/a	3	20	4	7	9
484.63525390625	n/a	PROB	992533	n/a	LTP365	ltpFR2	14	n/a	n/a	n/a	3	12	1	8	3
486.3740234375	n/a	PROB	996094	n/a	LTP365	ltpFR2	14	n/a	n/a	n/a	3	9	1	3	5
488.24609375	n/a	PROB	999928	n/a	LTP365	ltpFR2	14	n/a	n/a	n/a	3	14	6	3	5
490.82080078125	n/a	PROB	1005201	n/a	LTP365	ltpFR2	14	n/a	n/a	n/a	3	24	9	8	7
493.0439453125	n/a	PROB	1009754	n/a	LTP365	ltpFR2	14	n/a	n/a	n/a	3	13	5	5	3
494.31494140625	n/a	PROB	1012357	n/a	LTP365	ltpFR2	14	n/a	n/a	n/a	3	8	4	3	1
495.70361328125	n/a	PROB	1015201	n/a	LTP365	ltpFR2	14	n/a	n/a	n/a	3	10	1	6	3
497.04052734375	n/a	PROB	1017939	n/a	LTP365	ltpFR2	14	n/a	n/a	n/a	3	19	9	9	1
498.29443359375	n/a	PROB	1020507	n/a	LTP365	ltpFR2	14	n/a	n/a	n/a	3	12	8	2	2
499.44873046875	n/a	PROB	1022871	n/a	LTP365	ltpFR2	14	n/a	n/a	n/a	3	15	4	5	6
500.90380859375	n/a	PROB	1025851	n/a	LTP365	ltpFR2	14	n/a	n/a	n/a	3	15	1	8	6
502.20654296875	n/a	PROB	1028519	n/a	LTP365	ltpFR2	14	n/a	n/a	n/a	3	14	3	8	3
503.6552734375	n/a	STOP	1031486	n/a	LTP365	ltpFR2	14	n/a	n/a	n/a	3	n/a	n/a	n/a	n/a
505.06640625	n/a	WORD	1034376	wordpools/wasnorm_wordpool_576.txt	LTP365	ltpFR2	14	2	BEEF	113	n/a	n/a	0	0	0
507.87646484375	n/a	WORD	1040131	wordpools/wasnorm_wordpool_576.txt	LTP365	ltpFR2	14	2	LIVER	833	n/a	n/a	0	0	0
510.4013671875	n/a	WORD	1045302	wordpools/wasnorm_wordpool_576.txt	LTP365	ltpFR2	14	2	WITNESS	1618	n/a	n/a	0	0	0
512.95947265625	n/a	WORD	1050541	wordpools/wasnorm_wordpool_576.txt	LTP365	ltpFR2	14	2	PANTHER	1009	n/a	n/a	0	0	0
515.5341796875	n/a	WORD	1055814	wordpools/wasnorm_wordpool_576.txt	LTP365	ltpFR2	14	2	DAUGHTER	442	n/a	n/a	0	0	0
518.2919921875	n/a	WORD	1061462	wordpools/wasnorm_wordpool_576.txt	LTP365	ltpFR2	14	2	MESSAGE	888	n/a	n/a	0	0	0
521.05126953125	n/a	WORD	1067113	wordpools/wasnorm_wordpool_576.txt	LTP365	ltpFR2	14	2	SUPPER	1411	n/a	n/a	0	0	0
523.86083984375	n/a	WORD	1072867	wordpools/wasnorm_wordpool_576.txt	LTP365	ltpFR2	14	2	GAZELLE	628	n/a	n/a	0	0	0
526.453125	n/a	WORD	1078176	wordpools/wasnorm_wordpool_576.txt	LTP365	ltpFR2	14	2	SEAFOOD	1260	n/a	n/a	0	0	0
529.24365234375	n/a	WORD	1083891	wordpools/wasnorm_wordpool_576.txt	LTP365	ltpFR2	14	2	JELLO	754	n/a	n/a	0	0	0
531.8525390625	n/a	WORD	1089234	wordpools/wasnorm_wordpool_576.txt	LTP365	ltpFR2	14	2	PASTRY	1022	n/a	n/a	0	0	0
534.5615234375	n/a	WORD	1094782	wordpools/wasnorm_wordpool_576.txt	LTP365	ltpFR2	14	2	STUDENT	1395	n/a	n/a	0	0	0
537.353515625	n/a	WORD	1100500	wordpools/wasnorm_wordpool_576.txt	LTP365	ltpFR2	14	2	MARROW	872	n/a	n/a	0	0	0
540.07861328125	n/a	WORD	1106081	wordpools/wasnorm_wordpool_576.txt	LTP365	ltpFR2	14	2	SNAIL	1332	n/a	n/a	0	0	0
542.83837890625	n/a	WORD	1111733	wordpools/wasnorm_wordpool_576.txt	LTP365	ltpFR2	14	2	COIN	343	n/a	n/a	0	0	0
545.43017578125	n/a	WORD	1117041	wordpools/wasnorm_wordpool_576.txt	LTP365	ltpFR2	14	2	SEAL	1262	n/a	n/a	0	0	0
547.97021484375	n/a	WORD	1122243	wordpools/wasnorm_wordpool_576.txt	LTP365	ltpFR2	14	2	STALLION	1369	n/a	n/a	0	0	0
550.68017578125	n/a	WORD	1127793	wordpools/wasnorm_wordpool_576.txt	LTP365	ltpFR2	14	2	SHOVEL	1295	n/a	n/a	0	0	0
553.43896484375	n/a	WORD	1133443	wordpools/wasnorm_wordpool_576.txt	LTP365	ltpFR2	14	2	SWAMP	1416	n/a	n/a	0	0	0
555.9638671875	n/a	WORD	1138614	wordpools/wasnorm_wordpool_576.txt	LTP365	ltpFR2	14	2	PUPPY	1144	n/a	n/a	0	0	0
558.740234375	n/a	WORD	1144300	wordpools/wasnorm_wordpool_576.txt	LTP365	ltpFR2	14	2	HOUND	724	n/a	n/a	0	0	0
561.26318359375	n/a	WORD	1149467	wordpools/wasnorm_wordpool_576.txt	LTP365	ltpFR2	14	2	DOLPHIN	483	n/a	n/a	0	0	0
564.07177734375	n/a	WORD	1155219	wordpools/wasnorm_wordpool_576.txt	LTP365	ltpFR2	14	2	TEACHER	1440	n/a	n/a	0	0	0
566.6318359375	n/a	WORD	1160462	wordpools/wasnorm_wordpool_576.txt	LTP365	ltpFR2	14	2	CLOCK	325	n/a	n/a	0	0	0
568.23583984375	n/a	START	1163747	n/a	LTP365	ltpFR2	14	n/a	n/a	n/a	4	n/a	n/a	n/a	n/a
569.3125	n/a	DISTRACTOR	1165952	n/a	LTP365	ltpFR2	14	2	n/a	n/a	n/a	n/a	0	0	0
569.32275390625	n/a	PROB	1165973	n/a	LTP365	ltpFR2	14	n/a	n/a	n/a	4	12	1	3	8
570.6279296875	n/a	PROB	1168646	n/a	LTP365	ltpFR2	14	n/a	n/a	n/a	4	9	3	4	2
572.36669921875	n/a	PROB	1172207	n/a	LTP365	ltpFR2	14	n/a	n/a	n/a	4	23	8	7	8
575.9775390625	n/a	PROB	1179602	n/a	LTP365	ltpFR2	14	n/a	n/a	n/a	4	6	1	1	4
577.38232421875	n/a	PROB	1182479	n/a	LTP365	ltpFR2	14	n/a	n/a	n/a	4	17	9	3	5
580.0234375	n/a	PROB	1187888	n/a	LTP365	ltpFR2	14	n/a	n/a	n/a	4	12	1	6	5
582.3984375	n/a	PROB	1192752	n/a	LTP365	ltpFR2	14	n/a	n/a	n/a	4	13	3	7	3
583.75341796875	n/a	PROB	1195527	n/a	LTP365	ltpFR2	14	n/a	n/a	n/a	4	22	9	4	9
585.32421875	n/a	PROB	1198744	n/a	LTP365	ltpFR2	14	n/a	n/a	n/a	4	9	4	2	3
587.29736328125	n/a	PROB	1202785	n/a	LTP365	ltpFR2	14	n/a	n/a	n/a	4	11	2	3	6
589.0361328125	n/a	PROB	1206346	n/a	LTP365	ltpFR2	14	n/a	n/a	n/a	4	21	3	9	9
591.01416015625	n/a	STOP	1210397	n/a	LTP365	ltpFR2	14	n/a	n/a	n/a	4	n/a	n/a	n/a	n/a
594.05224609375	n/a	REC_START	1216619	n/a	LTP365	ltpFR2	14	2	n/a	n/a	n/a	n/a	0	0	0
596.17724609375	n/a	REC_WORD	1220971	wordpools/wasnorm_wordpool_576.txt	LTP365	ltpFR2	14	2	SNAIL	1332	n/a	n/a	0	0	0
596.828125	n/a	REC_WORD	1222304	wordpools/wasnorm_wordpool_576.txt	LTP365	ltpFR2	14	2	STUDENT	1395	n/a	n/a	0	0	0
597.94091796875	n/a	REC_WORD	1224583	wordpools/wasnorm_wordpool_576.txt	LTP365	ltpFR2	14	2	TEACHER	1440	n/a	n/a	0	0	0
598.7958984375	n/a	REC_WORD	1226334	wordpools/wasnorm_wordpool_576.txt	LTP365	ltpFR2	14	2	COIN	343	n/a	n/a	0	0	0
599.58203125	n/a	REC_WORD	1227944	wordpools/wasnorm_wordpool_576.txt	LTP365	ltpFR2	14	2	CLOCK	325	n/a	n/a	0	0	0
602.556640625	n/a	REC_WORD	1234036	wordpools/wasnorm_wordpool_576.txt	LTP365	ltpFR2	14	2	HOUND	724	n/a	n/a	0	0	0
603.5986328125	n/a	REC_WORD	1236170	wordpools/wasnorm_wordpool_576.txt	LTP365	ltpFR2	14	2	PUPPY	1144	n/a	n/a	0	0	0
606.27490234375	n/a	REC_WORD	1241651	wordpools/wasnorm_wordpool_576.txt	LTP365	ltpFR2	14	2	SHOVEL	1295	n/a	n/a	0	0	0
608.96044921875	n/a	REC_WORD	1247151	wordpools/wasnorm_wordpool_576.txt	LTP365	ltpFR2	14	2	SUPPER	1411	n/a	n/a	0	0	0
622.25927734375	n/a	REC_WORD	1274387	wordpools/wasnorm_wordpool_576.txt	LTP365	ltpFR2	14	2	MESSAGE	888	n/a	n/a	0	0	0
623.25146484375	n/a	REC_WORD	1276419	wordpools/wasnorm_wordpool_576.txt	LTP365	ltpFR2	14	2	SEAL	1262	n/a	n/a	0	0	0
638.4580078125	n/a	REC_WORD	1307562	wordpools/wasnorm_wordpool_576.txt	LTP365	ltpFR2	14	2	MONEY	908	n/a	n/a	0	0	0
684.5107421875	n/a	WORD	1401878	wordpools/wasnorm_wordpool_576.txt	LTP365	ltpFR2	14	3	LASER	801	n/a	n/a	0	0	0
687.2177734375	n/a	WORD	1407422	wordpools/wasnorm_wordpool_576.txt	LTP365	ltpFR2	14	3	BULLET	194	n/a	n/a	0	0	0
689.62646484375	n/a	WORD	1412355	wordpools/wasnorm_wordpool_576.txt	LTP365	ltpFR2	14	3	CHEMIST	292	n/a	n/a	0	0	0
692.05029296875	n/a	WORD	1417319	wordpools/wasnorm_wordpool_576.txt	LTP365	ltpFR2	14	3	UNCLE	1536	n/a	n/a	0	0	0
694.50927734375	n/a	WORD	1422355	wordpools/wasnorm_wordpool_576.txt	LTP365	ltpFR2	14	3	CANYON	235	n/a	n/a	0	0	0
697.01611328125	n/a	WORD	1427489	wordpools/wasnorm_wordpool_576.txt	LTP365	ltpFR2	14	3	SURVEY	1414	n/a	n/a	0	0	0
699.625	n/a	WORD	1432832	wordpools/wasnorm_wordpool_576.txt	LTP365	ltpFR2	14	3	HEART	697	n/a	n/a	0	0	0
702.14892578125	n/a	WORD	1438001	wordpools/wasnorm_wordpool_576.txt	LTP365	ltpFR2	14	3	KIDNEY	776	n/a	n/a	0	0	0
704.85888671875	n/a	WORD	1443551	wordpools/wasnorm_wordpool_576.txt	LTP365	ltpFR2	14	3	PATIENT	1024	n/a	n/a	0	0	0
707.466796875	n/a	WORD	1448892	wordpools/wasnorm_wordpool_576.txt	LTP365	ltpFR2	14	3	FLOWER	584	n/a	n/a	0	0	0
710.19189453125	n/a	WORD	1454473	wordpools/wasnorm_wordpool_576.txt	LTP365	ltpFR2	14	3	SHOULDER	1294	n/a	n/a	0	0	0
712.76806640625	n/a	WORD	1459749	wordpools/wasnorm_wordpool_576.txt	LTP365	ltpFR2	14	3	SHIRT	1287	n/a	n/a	0	0	0
715.44287109375	n/a	WORD	1465227	wordpools/wasnorm_wordpool_576.txt	LTP365	ltpFR2	14	3	ACTOR	5	n/a	n/a	0	0	0
718.1337890625	n/a	WORD	1470738	wordpools/wasnorm_wordpool_576.txt	LTP365	ltpFR2	14	3	PAPER	1011	n/a	n/a	0	0	0
720.60986328125	n/a	WORD	1475809	wordpools/wasnorm_wordpool_576.txt	LTP365	ltpFR2	14	3	CRATER	400	n/a	n/a	0	0	0
723.2333984375	n/a	WORD	1481182	wordpools/wasnorm_wordpool_576.txt	LTP365	ltpFR2	14	3	ACTRESS	6	n/a	n/a	0	0	0
726.025390625	n/a	WORD	1486900	wordpools/wasnorm_wordpool_576.txt	LTP365	ltpFR2	14	3	CITRUS	313	n/a	n/a	0	0	0
728.55126953125	n/a	WORD	1492073	wordpools/wasnorm_wordpool_576.txt	LTP365	ltpFR2	14	3	SHELTER	1282	n/a	n/a	0	0	0
731.1083984375	n/a	WORD	1497310	wordpools/wasnorm_wordpool_576.txt	LTP365	ltpFR2	14	3	COTTAGE	384	n/a	n/a	0	0	0
733.7353515625	n/a	WORD	1502690	wordpools/wasnorm_wordpool_576.txt	LTP365	ltpFR2	14	3	YOLK	1633	n/a	n/a	0	0	0
736.25830078125	n/a	WORD	1507857	wordpools/wasnorm_wordpool_576.txt	LTP365	ltpFR2	14	3	ROBOT	1200	n/a	n/a	0	0	0
739.05126953125	n/a	WORD	1513577	wordpools/wasnorm_wordpool_576.txt	LTP365	ltpFR2	14	3	CREVICE	405	n/a	n/a	0	0	0
741.72705078125	n/a	WORD	1519057	wordpools/wasnorm_wordpool_576.txt	LTP365	ltpFR2	14	3	BURGLAR	200	n/a	n/a	0	0	0
744.23388671875	n/a	WORD	1524191	wordpools/wasnorm_wordpool_576.txt	LTP365	ltpFR2	14	3	BIKE	125	n/a	n/a	0	0	0
745.8408203125	n/a	START	1527482	n/a	LTP365	ltpFR2	14	n/a	n/a	n/a	5	n/a	n/a	n/a	n/a
746.89306640625	n/a	DISTRACTOR	1529637	n/a	LTP365	ltpFR2	14	3	n/a	n/a	n/a	n/a	0	0	0
746.89404296875	n/a	PROB	1529639	n/a	LTP365	ltpFR2	14	n/a	n/a	n/a	5	15	8	1	6
748.7998046875	n/a	PROB	1533542	n/a	LTP365	ltpFR2	14	n/a	n/a	n/a	5	8	3	4	1
750.5556640625	n/a	PROB	1537138	n/a	LTP365	ltpFR2	14	n/a	n/a	n/a	5	21	7	9	5
754.31689453125	n/a	PROB	1544841	n/a	LTP365	ltpFR2	14	n/a	n/a	n/a	5	14	3	5	6
756.0888671875	n/a	PROB	1548470	n/a	LTP365	ltpFR2	14	n/a	n/a	n/a	5	14	2	9	3
757.845703125	n/a	PROB	1552068	n/a	LTP365	ltpFR2	14	n/a	n/a	n/a	5	7	1	5	1
759.1484375	n/a	PROB	1554736	n/a	LTP365	ltpFR2	14	n/a	n/a	n/a	5	12	3	5	4
760.50439453125	n/a	PROB	1557513	n/a	LTP365	ltpFR2	14	n/a	n/a	n/a	5	11	3	7	1
761.8916015625	n/a	PROB	1560354	n/a	LTP365	ltpFR2	14	n/a	n/a	n/a	5	11	1	8	2
763.5302734375	n/a	PROB	1563710	n/a	LTP365	ltpFR2	14	n/a	n/a	n/a	5	22	7	8	7
767.30859375	n/a	PROB	1571448	n/a	LTP365	ltpFR2	14	n/a	n/a	n/a	5	18	7	6	5
769.03955078125	n/a	STOP	1574993	n/a	LTP365	ltpFR2	14	n/a	n/a	n/a	5	n/a	n/a	n/a	n/a
771.72412109375	n/a	REC_START	1580491	n/a	LTP365	ltpFR2	14	3	n/a	n/a	n/a	n/a	0	0	0
772.51904296875	n/a	REC_WORD	1582119	wordpools/wasnorm_wordpool_576.txt	LTP365	ltpFR2	14	3	BURGLAR	200	n/a	n/a	0	0	0
773.3291015625	n/a	REC_WORD	1583778	wordpools/wasnorm_wordpool_576.txt	LTP365	ltpFR2	14	3	BIKE	125	n/a	n/a	0	0	0
778.53515625	n/a	REC_WORD	1594440	wordpools/wasnorm_wordpool_576.txt	LTP365	ltpFR2	14	3	COTTAGE	384	n/a	n/a	0	0	0
786.5830078125	n/a	REC_WORD	1610922	wordpools/wasnorm_wordpool_576.txt	LTP365	ltpFR2	14	3	LASER	801	n/a	n/a	0	0	0
787.59375	n/a	REC_WORD	1612992	wordpools/wasnorm_wordpool_576.txt	LTP365	ltpFR2	14	3	BULLET	194	n/a	n/a	0	0	0
788.15576171875	n/a	REC_WORD	1614143	wordpools/wasnorm_wordpool_576.txt	LTP365	ltpFR2	14	3	SHIRT	1287	n/a	n/a	0	0	0
790.31591796875	n/a	REC_WORD	1618567	wordpools/wasnorm_wordpool_576.txt	LTP365	ltpFR2	14	3	PAPER	1011	n/a	n/a	0	0	0
795.11572265625	n/a	REC_WORD	1628397	wordpools/wasnorm_wordpool_576.txt	LTP365	ltpFR2	14	3	CHEMIST	292	n/a	n/a	0	0	0
798.59765625	n/a	REC_WORD	1635528	wordpools/wasnorm_wordpool_576.txt	LTP365	ltpFR2	14	3	ROBOT	1200	n/a	n/a	0	0	0
801.42529296875	n/a	REC_WORD	1641319	wordpools/wasnorm_wordpool_576.txt	LTP365	ltpFR2	14	3	CREVICE	405	n/a	n/a	0	0	0
802.2685546875	n/a	REC_WORD	1643046	wordpools/wasnorm_wordpool_576.txt	LTP365	ltpFR2	14	3	CRATER	400	n/a	n/a	0	0	0
803.79931640625	n/a	REC_WORD	1646181	wordpools/wasnorm_wordpool_576.txt	LTP365	ltpFR2	14	3	CANYON	235	n/a	n/a	0	0	0
813.55322265625	n/a	REC_WORD	1666157	wordpools/wasnorm_wordpool_576.txt	LTP365	ltpFR2	14	3	HEART	697	n/a	n/a	0	0	0
815.25830078125	n/a	REC_WORD	1669649	wordpools/wasnorm_wordpool_576.txt	LTP365	ltpFR2	14	3	SHOULDER	1294	n/a	n/a	0	0	0
830.9794921875	n/a	REC_WORD	1701846	wordpools/wasnorm_wordpool_576.txt	LTP365	ltpFR2	14	3	ACTOR	5	n/a	n/a	0	0	0
831.73046875	n/a	REC_WORD	1703384	wordpools/wasnorm_wordpool_576.txt	LTP365	ltpFR2	14	3	ACTRESS	6	n/a	n/a	0	0	0
862.1796875	n/a	WORD	1765744	wordpools/wasnorm_wordpool_576.txt	LTP365	ltpFR2	14	4	CHAMPAGNE	278	n/a	n/a	0	0	0
864.6044921875	n/a	WORD	1770710	wordpools/wasnorm_wordpool_576.txt	LTP365	ltpFR2	14	4	SCOTCH	1251	n/a	n/a	0	0	0
867.41455078125	n/a	WORD	1776465	wordpools/wasnorm_wordpool_576.txt	LTP365	ltpFR2	14	4	MARKER	870	n/a	n/a	0	0	0
869.92236328125	n/a	WORD	1781601	wordpools/wasnorm_wordpool_576.txt	LTP365	ltpFR2	14	4	ASIA	46	n/a	n/a	0	0	0
872.59765625	n/a	WORD	1787080	wordpools/wasnorm_wordpool_576.txt	LTP365	ltpFR2	14	4	FOREHEAD	592	n/a	n/a	0	0	0
875.322265625	n/a	WORD	1792660	wordpools/wasnorm_wordpool_576.txt	LTP365	ltpFR2	14	4	ORANGE	980	n/a	n/a	0	0	0
877.84716796875	n/a	WORD	1797831	wordpools/wasnorm_wordpool_576.txt	LTP365	ltpFR2	14	4	FRANCE	601	n/a	n/a	0	0	0
880.65625	n/a	WORD	1803584	wordpools/wasnorm_wordpool_576.txt	LTP365	ltpFR2	14	4	LONDON	843	n/a	n/a	0	0	0
883.23046875	n/a	WORD	1808856	wordpools/wasnorm_wordpool_576.txt	LTP365	ltpFR2	14	4	CLIMBER	323	n/a	n/a	0	0	0
885.65625	n/a	WORD	1813824	wordpools/wasnorm_wordpool_576.txt	LTP365	ltpFR2	14	4	PIGMENT	1066	n/a	n/a	0	0	0
888.365234375	n/a	WORD	1819372	wordpools/wasnorm_wordpool_576.txt	LTP365	ltpFR2	14	4	DRESSER	496	n/a	n/a	0	0	0
890.8232421875	n/a	WORD	1824406	wordpools/wasnorm_wordpool_576.txt	LTP365	ltpFR2	14	4	SCALLOP	1242	n/a	n/a	0	0	0
893.36376953125	n/a	WORD	1829609	wordpools/wasnorm_wordpool_576.txt	LTP365	ltpFR2	14	4	GARBAGE	622	n/a	n/a	0	0	0
896.171875	n/a	WORD	1835360	wordpools/wasnorm_wordpool_576.txt	LTP365	ltpFR2	14	4	DRAGON	492	n/a	n/a	0	0	0
898.78173828125	n/a	WORD	1840705	wordpools/wasnorm_wordpool_576.txt	LTP365	ltpFR2	14	4	MISSILE	900	n/a	n/a	0	0	0
901.23876953125	n/a	WORD	1845737	wordpools/wasnorm_wordpool_576.txt	LTP365	ltpFR2	14	4	TRENCH	1503	n/a	n/a	0	0	0
903.814453125	n/a	WORD	1851012	wordpools/wasnorm_wordpool_576.txt	LTP365	ltpFR2	14	4	VIRUS	1572	n/a	n/a	0	0	0
906.5908203125	n/a	WORD	1856698	wordpools/wasnorm_wordpool_576.txt	LTP365	ltpFR2	14	4	MAILBOX	857	n/a	n/a	0	0	0
909.04638671875	n/a	WORD	1861727	wordpools/wasnorm_wordpool_576.txt	LTP365	ltpFR2	14	4	SLOPE	1328	n/a	n/a	0	0	0
911.65625	n/a	WORD	1867072	wordpools/wasnorm_wordpool_576.txt	LTP365	ltpFR2	14	4	WOMAN	1620	n/a	n/a	0	0	0
914.18017578125	n/a	WORD	1872241	wordpools/wasnorm_wordpool_576.txt	LTP365	ltpFR2	14	4	WHISKERS	1605	n/a	n/a	0	0	0
916.97216796875	n/a	WORD	1877959	wordpools/wasnorm_wordpool_576.txt	LTP365	ltpFR2	14	4	TWEEZERS	1526	n/a	n/a	0	0	0
919.53125	n/a	WORD	1883200	wordpools/wasnorm_wordpool_576.txt	LTP365	ltpFR2	14	4	BALLOON	75	n/a	n/a	0	0	0
922.34033203125	n/a	WORD	1888953	wordpools/wasnorm_wordpool_576.txt	LTP365	ltpFR2	14	4	SMOG	1330	n/a	n/a	0	0	0
923.9462890625	n/a	START	1892242	n/a	LTP365	ltpFR2	14	n/a	n/a	n/a	6	n/a	n/a	n/a	n/a
925.10595703125	n/a	DISTRACTOR	1894617	n/a	LTP365	ltpFR2	14	4	n/a	n/a	n/a	n/a	0	0	0
925.115234375	n/a	PROB	1894636	n/a	LTP365	ltpFR2	14	n/a	n/a	n/a	6	14	5	2	7
926.8720703125	n/a	PROB	1898234	n/a	LTP365	ltpFR2	14	n/a	n/a	n/a	6	11	2	5	4
929.294921875	n/a	PROB	1903196	n/a	LTP365	ltpFR2	14	n/a	n/a	n/a	6	17	2	9	6
931.2021484375	n/a	PROB	1907102	n/a	LTP365	ltpFR2	14	n/a	n/a	n/a	6	18	8	5	5
934.4970703125	n/a	PROB	1913850	n/a	LTP365	ltpFR2	14	n/a	n/a	n/a	6	13	4	6	3
936.05078125	n/a	PROB	1917032	n/a	LTP365	ltpFR2	14	n/a	n/a	n/a	6	15	3	4	8
938.0068359375	n/a	PROB	1921038	n/a	LTP365	ltpFR2	14	n/a	n/a	n/a	6	12	6	1	5
939.3447265625	n/a	PROB	1923778	n/a	LTP365	ltpFR2	14	n/a	n/a	n/a	6	16	2	5	9
941.099609375	n/a	PROB	1927372	n/a	LTP365	ltpFR2	14	n/a	n/a	n/a	6	16	9	4	3
942.95556640625	n/a	PROB	1931173	n/a	LTP365	ltpFR2	14	n/a	n/a	n/a	6	12	3	5	4
944.52880859375	n/a	PROB	1934395	n/a	LTP365	ltpFR2	14	n/a	n/a	n/a	6	11	5	3	3
946.29931640625	n/a	PROB	1938021	n/a	LTP365	ltpFR2	14	n/a	n/a	n/a	6	18	9	8	1
947.6484375	n/a	STOP	1940784	n/a	LTP365	ltpFR2	14	n/a	n/a	n/a	6	n/a	n/a	n/a	n/a
949.896484375	n/a	REC_START	1945388	n/a	LTP365	ltpFR2	14	4	n/a	n/a	n/a	n/a	0	0	0
952.42431640625	n/a	REC_WORD	1950565	wordpools/wasnorm_wordpool_576.txt	LTP365	ltpFR2	14	4	MARKER	870	n/a	n/a	0	0	0
954.79248046875	n/a	REC_WORD	1955415	wordpools/wasnorm_wordpool_576.txt	LTP365	ltpFR2	14	4	FOREHEAD	592	n/a	n/a	0	0	0
956.697265625	n/a	REC_WORD	1959316	wordpools/wasnorm_wordpool_576.txt	LTP365	ltpFR2	14	4	CHAMPAGNE	278	n/a	n/a	0	0	0
958.72021484375	n/a	REC_WORD	1963459	wordpools/wasnorm_wordpool_576.txt	LTP365	ltpFR2	14	4	SCOTCH	1251	n/a	n/a	0	0	0
1000.9990234375	n/a	REC_WORD	2050046	wordpools/wasnorm_wordpool_576.txt	LTP365	ltpFR2	14	4	PUPIL	1143	n/a	n/a	0	0	0
1009.8505859375	n/a	REC_WORD	2068174	wordpools/wasnorm_wordpool_576.txt	LTP365	ltpFR2	14	4	OYSTER	995	n/a	n/a	0	0	0
1040.35302734375	n/a	WORD	2130643	wordpools/wasnorm_wordpool_576.txt	LTP365	ltpFR2	14	5	WASP	1593	n/a	n/a	0	0	0
1042.84375	n/a	WORD	2135744	wordpools/wasnorm_wordpool_576.txt	LTP365	ltpFR2	14	5	OZONE	996	n/a	n/a	0	0	0
1045.5029296875	n/a	WORD	2141190	wordpools/wasnorm_wordpool_576.txt	LTP365	ltpFR2	14	5	ANKLE	24	n/a	n/a	0	0	0
1047.94384765625	n/a	WORD	2146189	wordpools/wasnorm_wordpool_576.txt	LTP365	ltpFR2	14	5	BARLEY	88	n/a	n/a	0	0	0
1050.48583984375	n/a	WORD	2151395	wordpools/wasnorm_wordpool_576.txt	LTP365	ltpFR2	14	5	BRICK	172	n/a	n/a	0	0	0
1053.2265625	n/a	WORD	2157008	wordpools/wasnorm_wordpool_576.txt	LTP365	ltpFR2	14	5	PORTRAIT	1111	n/a	n/a	0	0	0
1055.7353515625	n/a	WORD	2162146	wordpools/wasnorm_wordpool_576.txt	LTP365	ltpFR2	14	5	MUFFIN	929	n/a	n/a	0	0	0
1058.25927734375	n/a	WORD	2167315	wordpools/wasnorm_wordpool_576.txt	LTP365	ltpFR2	14	5	GARLIC	624	n/a	n/a	0	0	0
1061.0185546875	n/a	WORD	2172966	wordpools/wasnorm_wordpool_576.txt	LTP365	ltpFR2	14	5	FINGER	567	n/a	n/a	0	0	0
1063.6611328125	n/a	WORD	2178378	wordpools/wasnorm_wordpool_576.txt	LTP365	ltpFR2	14	5	FRIEND	606	n/a	n/a	0	0	0
1066.18505859375	n/a	WORD	2183547	wordpools/wasnorm_wordpool_576.txt	LTP365	ltpFR2	14	5	DRAWING	494	n/a	n/a	0	0	0
1068.67724609375	n/a	WORD	2188651	wordpools/wasnorm_wordpool_576.txt	LTP365	ltpFR2	14	5	MILDEW	893	n/a	n/a	0	0	0
1071.369140625	n/a	WORD	2194164	wordpools/wasnorm_wordpool_576.txt	LTP365	ltpFR2	14	5	PERMIT	1051	n/a	n/a	0	0	0
1073.876953125	n/a	WORD	2199300	wordpools/wasnorm_wordpool_576.txt	LTP365	ltpFR2	14	5	CRUTCH	417	n/a	n/a	0	0	0
1076.63623046875	n/a	WORD	2204951	wordpools/wasnorm_wordpool_576.txt	LTP365	ltpFR2	14	5	LEG	809	n/a	n/a	0	0	0
1079.10986328125	n/a	WORD	2210017	wordpools/wasnorm_wordpool_576.txt	LTP365	ltpFR2	14	5	TROUT	1511	n/a	n/a	0	0	0
1081.70263671875	n/a	WORD	2215327	wordpools/wasnorm_wordpool_576.txt	LTP365	ltpFR2	14	5	DIVER	476	n/a	n/a	0	0	0
1084.427734375	n/a	WORD	2220908	wordpools/wasnorm_wordpool_576.txt	LTP365	ltpFR2	14	5	SPACE	1345	n/a	n/a	0	0	0
1087.185546875	n/a	WORD	2226556	wordpools/wasnorm_wordpool_576.txt	LTP365	ltpFR2	14	5	UMPIRE	1535	n/a	n/a	0	0	0
1089.76171875	n/a	WORD	2231832	wordpools/wasnorm_wordpool_576.txt	LTP365	ltpFR2	14	5	COCOON	339	n/a	n/a	0	0	0
1092.2353515625	n/a	WORD	2236898	wordpools/wasnorm_wordpool_576.txt	LTP365	ltpFR2	14	5	JELLY	755	n/a	n/a	0	0	0
1094.7275390625	n/a	WORD	2242002	wordpools/wasnorm_wordpool_576.txt	LTP365	ltpFR2	14	5	SPOUSE	1358	n/a	n/a	0	0	0
1097.30126953125	n/a	WORD	2247273	wordpools/wasnorm_wordpool_576.txt	LTP365	ltpFR2	14	5	NEUTRON	947	n/a	n/a	0	0	0
1099.79443359375	n/a	WORD	2252379	wordpools/wasnorm_wordpool_576.txt	LTP365	ltpFR2	14	5	PLASTER	1085	n/a	n/a	0	0	0
1101.3994140625	n/a	START	2255666	n/a	LTP365	ltpFR2	14	n/a	n/a	n/a	7	n/a	n/a	n/a	n/a
1102.2314453125	n/a	DISTRACTOR	2257370	n/a	LTP365	ltpFR2	14	5	n/a	n/a	n/a	n/a	0	0	0
1102.234375	n/a	PROB	2257376	n/a	LTP365	ltpFR2	14	n/a	n/a	n/a	7	16	4	9	3
1104.42529296875	n/a	PROB	2261863	n/a	LTP365	ltpFR2	14	n/a	n/a	n/a	7	10	6	3	1
1105.72900390625	n/a	PROB	2264533	n/a	LTP365	ltpFR2	14	n/a	n/a	n/a	7	12	1	4	8
1107.30029296875	n/a	PROB	2267751	n/a	LTP365	ltpFR2	14	n/a	n/a	n/a	7	16	5	2	9
1109.25732421875	n/a	PROB	2271759	n/a	LTP365	ltpFR2	14	n/a	n/a	n/a	7	24	5	9	8
1113.82177734375	n/a	PROB	2281107	n/a	LTP365	ltpFR2	14	n/a	n/a	n/a	7	14	2	9	3
1116.14599609375	n/a	PROB	2285867	n/a	LTP365	ltpFR2	14	n/a	n/a	n/a	7	13	7	5	1
1118.1689453125	n/a	PROB	2290010	n/a	LTP365	ltpFR2	14	n/a	n/a	n/a	7	15	1	8	6
1119.7080078125	n/a	PROB	2293162	n/a	LTP365	ltpFR2	14	n/a	n/a	n/a	7	19	2	8	9
1121.41357421875	n/a	PROB	2296655	n/a	LTP365	ltpFR2	14	n/a	n/a	n/a	7	8	1	4	3
1122.73486328125	n/a	PROB	2299361	n/a	LTP365	ltpFR2	14	n/a	n/a	n/a	7	19	9	6	4
1124.1357421875	n/a	STOP	2302230	n/a	LTP365	ltpFR2	14	n/a	n/a	n/a	7	n/a	n/a	n/a	n/a
1127.24853515625	n/a	REC_START	2308605	n/a	LTP365	ltpFR2	14	5	n/a	n/a	n/a	n/a	0	0	0
1127.78369140625	n/a	REC_WORD	2309701	wordpools/wasnorm_wordpool_576.txt	LTP365	ltpFR2	14	5	PLASTER	1085	n/a	n/a	0	0	0
1128.7275390625	n/a	REC_WORD	2311634	wordpools/wasnorm_wordpool_576.txt	LTP365	ltpFR2	14	5	BRICK	172	n/a	n/a	0	0	0
1130.8974609375	n/a	REC_WORD	2316078	wordpools/wasnorm_wordpool_576.txt	LTP365	ltpFR2	14	5	MILDEW	893	n/a	n/a	0	0	0
1132.9443359375	n/a	REC_WORD	2320270	wordpools/wasnorm_wordpool_576.txt	LTP365	ltpFR2	14	5	DIVER	476	n/a	n/a	0	0	0
1133.88037109375	n/a	REC_WORD	2322187	wordpools/wasnorm_wordpool_576.txt	LTP365	ltpFR2	14	5	WASP	1593	n/a	n/a	0	0	0
1138.396484375	n/a	REC_WORD	2331436	wordpools/wasnorm_wordpool_576.txt	LTP365	ltpFR2	14	5	PROTON	1132	n/a	n/a	0	0	0
1141.16845703125	n/a	REC_WORD	2337113	wordpools/wasnorm_wordpool_576.txt	LTP365	ltpFR2	14	5	FINGER	567	n/a	n/a	0	0	0
1154.548828125	n/a	REC_WORD	2364516	wordpools/wasnorm_wordpool_576.txt	LTP365	ltpFR2	14	5	PORTRAIT	1111	n/a	n/a	0	0	0
1161.97265625	n/a	REC_WORD	2379720	wordpools/wasnorm_wordpool_576.txt	LTP365	ltpFR2	14	5	ANKLE	24	n/a	n/a	0	0	0
1195.06982421875	n/a	REC_WORD	2447503	wordpools/wasnorm_wordpool_576.txt	LTP365	ltpFR2	14	5	WASP	1593	n/a	n/a	0	0	0
1217.7060546875	n/a	WORD	2493862	wordpools/wasnorm_wordpool_576.txt	LTP365	ltpFR2	14	6	LIPSTICK	829	n/a	n/a	0	0	0
1220.212890625	n/a	WORD	2498996	wordpools/wasnorm_wordpool_576.txt	LTP365	ltpFR2	14	6	CATCHER	258	n/a	n/a	0	0	0
1222.72216796875	n/a	WORD	2504135	wordpools/wasnorm_wordpool_576.txt	LTP365	ltpFR2	14	6	ITEM	746	n/a	n/a	0	0	0
1225.498046875	n/a	WORD	2509820	wordpools/wasnorm_wordpool_576.txt	LTP365	ltpFR2	14	6	SANDWICH	1232	n/a	n/a	0	0	0
1228.27197265625	n/a	WORD	2515501	wordpools/wasnorm_wordpool_576.txt	LTP365	ltpFR2	14	6	AGENT	10	n/a	n/a	0	0	0
1230.73095703125	n/a	WORD	2520537	wordpools/wasnorm_wordpool_576.txt	LTP365	ltpFR2	14	6	HELMET	702	n/a	n/a	0	0	0
1233.37255859375	n/a	WORD	2525947	wordpools/wasnorm_wordpool_576.txt	LTP365	ltpFR2	14	6	AWARD	63	n/a	n/a	0	0	0
1235.99658203125	n/a	WORD	2531321	wordpools/wasnorm_wordpool_576.txt	LTP365	ltpFR2	14	6	FOX	598	n/a	n/a	0	0	0
1238.439453125	n/a	WORD	2536324	wordpools/wasnorm_wordpool_576.txt	LTP365	ltpFR2	14	6	RELISH	1183	n/a	n/a	0	0	0
1240.94677734375	n/a	WORD	2541459	wordpools/wasnorm_wordpool_576.txt	LTP365	ltpFR2	14	6	GIRL	637	n/a	n/a	0	0	0
1243.58935546875	n/a	WORD	2546871	wordpools/wasnorm_wordpool_576.txt	LTP365	ltpFR2	14	6	BACKBONE	66	n/a	n/a	0	0	0
1246.04638671875	n/a	WORD	2551903	wordpools/wasnorm_wordpool_576.txt	LTP365	ltpFR2	14	6	HERO	706	n/a	n/a	0	0	0
1248.50537109375	n/a	WORD	2556939	wordpools/wasnorm_wordpool_576.txt	LTP365	ltpFR2	14	6	WRIST	1626	n/a	n/a	0	0	0
1251.0283203125	n/a	WORD	2562106	wordpools/wasnorm_wordpool_576.txt	LTP365	ltpFR2	14	6	BROTHER	179	n/a	n/a	0	0	0
1253.68798828125	n/a	WORD	2567553	wordpools/wasnorm_wordpool_576.txt	LTP365	ltpFR2	14	6	GRILL	661	n/a	n/a	0	0	0
1256.4970703125	n/a	WORD	2573306	wordpools/wasnorm_wordpool_576.txt	LTP365	ltpFR2	14	6	DINER	467	n/a	n/a	0	0	0
1258.98828125	n/a	WORD	2578408	wordpools/wasnorm_wordpool_576.txt	LTP365	ltpFR2	14	6	WORKER	1621	n/a	n/a	0	0	0
1261.73095703125	n/a	WORD	2584025	wordpools/wasnorm_wordpool_576.txt	LTP365	ltpFR2	14	6	TROMBONE	1508	n/a	n/a	0	0	0
1264.18798828125	n/a	WORD	2589057	wordpools/wasnorm_wordpool_576.txt	LTP365	ltpFR2	14	6	WHISTLE	1606	n/a	n/a	0	0	0
1266.7470703125	n/a	WORD	2594298	wordpools/wasnorm_wordpool_576.txt	LTP365	ltpFR2	14	6	PIGEON	1065	n/a	n/a	0	0	0
1269.18701171875	n/a	WORD	2599295	wordpools/wasnorm_wordpool_576.txt	LTP365	ltpFR2	14	6	CASHIER	254	n/a	n/a	0	0	0
1271.6796875	n/a	WORD	2604400	wordpools/wasnorm_wordpool_576.txt	LTP365	ltpFR2	14	6	STREAM	1392	n/a	n/a	0	0	0
1274.25341796875	n/a	WORD	2609671	wordpools/wasnorm_wordpool_576.txt	LTP365	ltpFR2	14	6	BUCKET	184	n/a	n/a	0	0	0
1277.0625	n/a	WORD	2615424	wordpools/wasnorm_wordpool_576.txt	LTP365	ltpFR2	14	6	SIBLING	1301	n/a	n/a	0	0	0
1278.66845703125	n/a	START	2618713	n/a	LTP365	ltpFR2	14	n/a	n/a	n/a	8	n/a	n/a	n/a	n/a
1279.53271484375	n/a	DISTRACTOR	2620483	n/a	LTP365	ltpFR2	14	6	n/a	n/a	n/a	n/a	0	0	0
1279.53759765625	n/a	PROB	2620493	n/a	LTP365	ltpFR2	14	n/a	n/a	n/a	8	19	8	9	2
1283.08154296875	n/a	PROB	2627751	n/a	LTP365	ltpFR2	14	n/a	n/a	n/a	8	16	1	6	9
1285.40625	n/a	PROB	2632512	n/a	LTP365	ltpFR2	14	n/a	n/a	n/a	8	11	5	2	6
1288.43310546875	n/a	PROB	2638711	n/a	LTP365	ltpFR2	14	n/a	n/a	n/a	8	12	2	3	7
1289.67041015625	n/a	PROB	2641245	n/a	LTP365	ltpFR2	14	n/a	n/a	n/a	8	25	9	7	9
1292.244140625	n/a	PROB	2646516	n/a	LTP365	ltpFR2	14	n/a	n/a	n/a	8	17	8	1	8
1294.033203125	n/a	PROB	2650180	n/a	LTP365	ltpFR2	14	n/a	n/a	n/a	8	14	2	6	6
1295.60595703125	n/a	PROB	2653401	n/a	LTP365	ltpFR2	14	n/a	n/a	n/a	8	17	7	7	3
1297.4951171875	n/a	PROB	2657270	n/a	LTP365	ltpFR2	14	n/a	n/a	n/a	8	10	4	2	4
1299.25	n/a	PROB	2660864	n/a	LTP365	ltpFR2	14	n/a	n/a	n/a	8	12	3	2	7
1301.1357421875	n/a	STOP	2664726	n/a	LTP365	ltpFR2	14	n/a	n/a	n/a	8	n/a	n/a	n/a	n/a
1304.46875	n/a	REC_START	2671552	n/a	LTP365	ltpFR2	14	6	n/a	n/a	n/a	n/a	0	0	0
1337.19091796875	n/a	REC_WORD	2738567	wordpools/wasnorm_wordpool_576.txt	LTP365	ltpFR2	14	6	BUCKET	184	n/a	n/a	0	0	0
1338.8046875	n/a	REC_WORD	2741872	wordpools/wasnorm_wordpool_576.txt	LTP365	ltpFR2	14	6	PAIL	1002	n/a	n/a	0	0	0
1358.26025390625	n/a	REC_WORD	2781717	wordpools/wasnorm_wordpool_576.txt	LTP365	ltpFR2	14	6	BROTHER	179	n/a	n/a	0	0	0
1360.00732421875	n/a	REC_WORD	2785295	wordpools/wasnorm_wordpool_576.txt	LTP365	ltpFR2	14	6	SIBLING	1301	n/a	n/a	0	0	0
1362.6484375	n/a	REC_WORD	2790704	wordpools/wasnorm_wordpool_576.txt	LTP365	ltpFR2	14	6	SISTER	1312	n/a	n/a	0	0	0
1371.27001953125	n/a	REC_WORD	2808361	wordpools/wasnorm_wordpool_576.txt	LTP365	ltpFR2	14	6	BLADE	134	n/a	n/a	0	0	0
1394.92529296875	n/a	WORD	2856807	wordpools/wasnorm_wordpool_576.txt	LTP365	ltpFR2	14	7	KEEPER	769	n/a	n/a	0	0	0
1397.58349609375	n/a	WORD	2862251	wordpools/wasnorm_wordpool_576.txt	LTP365	ltpFR2	14	7	STAMP	1370	n/a	n/a	0	0	0
1400.0244140625	n/a	WORD	2867250	wordpools/wasnorm_wordpool_576.txt	LTP365	ltpFR2	14	7	VALLEY	1545	n/a	n/a	0	0	0
1402.4990234375	n/a	WORD	2872318	wordpools/wasnorm_wordpool_576.txt	LTP365	ltpFR2	14	7	COCKTAIL	338	n/a	n/a	0	0	0
1405.30712890625	n/a	WORD	2878069	wordpools/wasnorm_wordpool_576.txt	LTP365	ltpFR2	14	7	PLAID	1080	n/a	n/a	0	0	0
1407.94921875	n/a	WORD	2883480	wordpools/wasnorm_wordpool_576.txt	LTP365	ltpFR2	14	7	RUG	1215	n/a	n/a	0	0	0
1410.57470703125	n/a	WORD	2888857	wordpools/wasnorm_wordpool_576.txt	LTP365	ltpFR2	14	7	FREEZER	604	n/a	n/a	0	0	0
1413.11572265625	n/a	WORD	2894061	wordpools/wasnorm_wordpool_576.txt	LTP365	ltpFR2	14	7	KLEENEX	782	n/a	n/a	0	0	0
1415.8759765625	n/a	WORD	2899714	wordpools/wasnorm_wordpool_576.txt	LTP365	ltpFR2	14	7	FLASK	576	n/a	n/a	0	0	0
1418.6845703125	n/a	WORD	2905466	wordpools/wasnorm_wordpool_576.txt	LTP365	ltpFR2	14	7	BEAKER	104	n/a	n/a	0	0	0
1421.19189453125	n/a	WORD	2910601	wordpools/wasnorm_wordpool_576.txt	LTP365	ltpFR2	14	7	BATHTUB	100	n/a	n/a	0	0	0
1423.70068359375	n/a	WORD	2915739	wordpools/wasnorm_wordpool_576.txt	LTP365	ltpFR2	14	7	MISTER	901	n/a	n/a	0	0	0
1426.24169921875	n/a	WORD	2920943	wordpools/wasnorm_wordpool_576.txt	LTP365	ltpFR2	14	7	VIKING	1565	n/a	n/a	0	0	0
1429.05029296875	n/a	WORD	2926695	wordpools/wasnorm_wordpool_576.txt	LTP365	ltpFR2	14	7	CARROT	249	n/a	n/a	0	0	0
1431.62646484375	n/a	WORD	2931971	wordpools/wasnorm_wordpool_576.txt	LTP365	ltpFR2	14	7	FRECKLE	602	n/a	n/a	0	0	0
1434.13330078125	n/a	WORD	2937105	wordpools/wasnorm_wordpool_576.txt	LTP365	ltpFR2	14	7	LEADER	807	n/a	n/a	0	0	0
1436.59228515625	n/a	WORD	2942141	wordpools/wasnorm_wordpool_576.txt	LTP365	ltpFR2	14	7	LADY	794	n/a	n/a	0	0	0
1439.1162109375	n/a	WORD	2947310	wordpools/wasnorm_wordpool_576.txt	LTP365	ltpFR2	14	7	HOOD	714	n/a	n/a	0	0	0
1441.92626953125	n/a	WORD	2953065	wordpools/wasnorm_wordpool_576.txt	LTP365	ltpFR2	14	7	WAGON	1578	n/a	n/a	0	0	0
1444.48388671875	n/a	WORD	2958303	wordpools/wasnorm_wordpool_576.txt	LTP365	ltpFR2	14	7	TORTOISE	1486	n/a	n/a	0	0	0
1447.091796875	n/a	WORD	2963644	wordpools/wasnorm_wordpool_576.txt	LTP365	ltpFR2	14	7	PIZZA	1079	n/a	n/a	0	0	0
1449.8017578125	n/a	WORD	2969194	wordpools/wasnorm_wordpool_576.txt	LTP365	ltpFR2	14	7	SODA	1341	n/a	n/a	0	0	0
1452.5595703125	n/a	WORD	2974842	wordpools/wasnorm_wordpool_576.txt	LTP365	ltpFR2	14	7	BUBBLE	183	n/a	n/a	0	0	0
1455.134765625	n/a	WORD	2980116	wordpools/wasnorm_wordpool_576.txt	LTP365	ltpFR2	14	7	SIDEWALK	1303	n/a	n/a	0	0	0
1456.74072265625	n/a	START	2983405	n/a	LTP365	ltpFR2	14	n/a	n/a	n/a	9	n/a	n/a	n/a	n/a
1457.61572265625	n/a	DISTRACTOR	2985197	n/a	LTP365	ltpFR2	14	7	n/a	n/a	n/a	n/a	0	0	0
1457.62646484375	n/a	PROB	2985219	n/a	LTP365	ltpFR2	14	n/a	n/a	n/a	9	10	1	3	6
1459.263671875	n/a	PROB	2988572	n/a	LTP365	ltpFR2	14	n/a	n/a	n/a	9	22	8	8	6
1460.92041015625	n/a	PROB	2991965	n/a	LTP365	ltpFR2	14	n/a	n/a	n/a	9	21	4	9	8
1463.6962890625	n/a	PROB	2997650	n/a	LTP365	ltpFR2	14	n/a	n/a	n/a	9	15	7	2	6
1466.03564453125	n/a	PROB	3002441	n/a	LTP365	ltpFR2	14	n/a	n/a	n/a	9	17	9	2	6
1468.17626953125	n/a	PROB	3006825	n/a	LTP365	ltpFR2	14	n/a	n/a	n/a	9	12	7	2	3
1469.54833984375	n/a	PROB	3009635	n/a	LTP365	ltpFR2	14	n/a	n/a	n/a	9	9	2	3	4
1471.47119140625	n/a	PROB	3013573	n/a	LTP365	ltpFR2	14	n/a	n/a	n/a	9	20	7	5	8
1473.1083984375	n/a	PROB	3016926	n/a	LTP365	ltpFR2	14	n/a	n/a	n/a	9	26	9	9	8
1475.71826171875	n/a	PROB	3022271	n/a	LTP365	ltpFR2	14	n/a	n/a	n/a	9	20	9	9	2
1477.10498046875	n/a	PROB	3025111	n/a	LTP365	ltpFR2	14	n/a	n/a	n/a	9	16	1	6	9
1479.42529296875	n/a	STOP	3029863	n/a	LTP365	ltpFR2	14	n/a	n/a	n/a	9	n/a	n/a	n/a	n/a
1482.64111328125	n/a	REC_START	3036449	n/a	LTP365	ltpFR2	14	7	n/a	n/a	n/a	n/a	0	0	0
1483.97412109375	n/a	REC_WORD	3039179	wordpools/wasnorm_wordpool_576.txt	LTP365	ltpFR2	14	7	COCKTAIL	338	n/a	n/a	0	0	0
1484.7841796875	n/a	REC_WORD	3040838	wordpools/wasnorm_wordpool_576.txt	LTP365	ltpFR2	14	7	SODA	1341	n/a	n/a	0	0	0
1485.787109375	n/a	REC_WORD	3042892	wordpools/wasnorm_wordpool_576.txt	LTP365	ltpFR2	14	7	FLASK	576	n/a	n/a	0	0	0
1488.56787109375	n/a	REC_WORD	3048587	wordpools/wasnorm_wordpool_576.txt	LTP365	ltpFR2	14	7	BUBBLE	183	n/a	n/a	0	0	0
1491.64697265625	n/a	REC_WORD	3054893	wordpools/wasnorm_wordpool_576.txt	LTP365	ltpFR2	14	7	RUG	1215	n/a	n/a	0	0	0
1492.69287109375	n/a	REC_WORD	3057035	wordpools/wasnorm_wordpool_576.txt	LTP365	ltpFR2	14	7	KLEENEX	782	n/a	n/a	0	0	0
1495.9716796875	n/a	REC_WORD	3063750	wordpools/wasnorm_wordpool_576.txt	LTP365	ltpFR2	14	7	VALLEY	1545	n/a	n/a	0	0	0
1497.66357421875	n/a	REC_WORD	3067215	wordpools/wasnorm_wordpool_576.txt	LTP365	ltpFR2	14	7	BEAKER	104	n/a	n/a	0	0	0
1500.6533203125	n/a	REC_WORD	3073338	wordpools/wasnorm_wordpool_576.txt	LTP365	ltpFR2	14	7	LEADER	807	n/a	n/a	0	0	0
1501.92138671875	n/a	REC_WORD	3075935	wordpools/wasnorm_wordpool_576.txt	LTP365	ltpFR2	14	7	LADY	794	n/a	n/a	0	0	0
1507.55615234375	n/a	REC_WORD	3087475	wordpools/wasnorm_wordpool_576.txt	LTP365	ltpFR2	14	7	PIZZA	1079	n/a	n/a	0	0	0
1509.63818359375	n/a	REC_WORD	3091739	wordpools/wasnorm_wordpool_576.txt	LTP365	ltpFR2	14	7	PLAID	1080	n/a	n/a	0	0	0
1526.92578125	n/a	REC_WORD	3127144	wordpools/wasnorm_wordpool_576.txt	LTP365	ltpFR2	14	7	FREEZER	604	n/a	n/a	0	0	0
1529.5869140625	n/a	REC_WORD	3132594	wordpools/wasnorm_wordpool_576.txt	LTP365	ltpFR2	14	7	BATHTUB	100	n/a	n/a	0	0	0
1573.0966796875	n/a	WORD	3221702	wordpools/wasnorm_wordpool_576.txt	LTP365	ltpFR2	14	8	BUNNY	198	n/a	n/a	0	0	0
1575.70556640625	n/a	WORD	3227045	wordpools/wasnorm_wordpool_576.txt	LTP365	ltpFR2	14	8	DUSTPAN	509	n/a	n/a	0	0	0
1578.3134765625	n/a	WORD	3232386	wordpools/wasnorm_wordpool_576.txt	LTP365	ltpFR2	14	8	KITCHEN	778	n/a	n/a	0	0	0
1580.95556640625	n/a	WORD	3237797	wordpools/wasnorm_wordpool_576.txt	LTP365	ltpFR2	14	8	PICNIC	1060	n/a	n/a	0	0	0
1583.54736328125	n/a	WORD	3243105	wordpools/wasnorm_wordpool_576.txt	LTP365	ltpFR2	14	8	CLAMP	316	n/a	n/a	0	0	0
1586.17236328125	n/a	WORD	3248481	wordpools/wasnorm_wordpool_576.txt	LTP365	ltpFR2	14	8	BABY	64	n/a	n/a	0	0	0
1588.98095703125	n/a	WORD	3254233	wordpools/wasnorm_wordpool_576.txt	LTP365	ltpFR2	14	8	TAXI	1438	n/a	n/a	0	0	0
1591.791015625	n/a	WORD	3259988	wordpools/wasnorm_wordpool_576.txt	LTP365	ltpFR2	14	8	DASHBOARD	441	n/a	n/a	0	0	0
1594.51611328125	n/a	WORD	3265569	wordpools/wasnorm_wordpool_576.txt	LTP365	ltpFR2	14	8	BOUQUET	157	n/a	n/a	0	0	0
1597.15673828125	n/a	WORD	3270977	wordpools/wasnorm_wordpool_576.txt	LTP365	ltpFR2	14	8	TOASTER	1472	n/a	n/a	0	0	0
1599.666015625	n/a	WORD	3276116	wordpools/wasnorm_wordpool_576.txt	LTP365	ltpFR2	14	8	SKETCH	1315	n/a	n/a	0	0	0
1602.32373046875	n/a	WORD	3281559	wordpools/wasnorm_wordpool_576.txt	LTP365	ltpFR2	14	8	WAITRESS	1581	n/a	n/a	0	0	0
1605.099609375	n/a	WORD	3287244	wordpools/wasnorm_wordpool_576.txt	LTP365	ltpFR2	14	8	SALT	1229	n/a	n/a	0	0	0
1607.7255859375	n/a	WORD	3292622	wordpools/wasnorm_wordpool_576.txt	LTP365	ltpFR2	14	8	REPORT	1184	n/a	n/a	0	0	0
1610.1484375	n/a	WORD	3297584	wordpools/wasnorm_wordpool_576.txt	LTP365	ltpFR2	14	8	MAILMAN	858	n/a	n/a	0	0	0
1612.62451171875	n/a	WORD	3302655	wordpools/wasnorm_wordpool_576.txt	LTP365	ltpFR2	14	8	OFFICE	972	n/a	n/a	0	0	0
1615.064453125	n/a	WORD	3307652	wordpools/wasnorm_wordpool_576.txt	LTP365	ltpFR2	14	8	POCKET	1093	n/a	n/a	0	0	0
1617.5732421875	n/a	WORD	3312790	wordpools/wasnorm_wordpool_576.txt	LTP365	ltpFR2	14	8	BARREL	91	n/a	n/a	0	0	0
1620.01318359375	n/a	WORD	3317787	wordpools/wasnorm_wordpool_576.txt	LTP365	ltpFR2	14	8	CELLAR	267	n/a	n/a	0	0	0
1622.47216796875	n/a	WORD	3322823	wordpools/wasnorm_wordpool_576.txt	LTP365	ltpFR2	14	8	BASEMENT	94	n/a	n/a	0	0	0
1624.89697265625	n/a	WORD	3327789	wordpools/wasnorm_wordpool_576.txt	LTP365	ltpFR2	14	8	BOYFRIEND	162	n/a	n/a	0	0	0
1627.52197265625	n/a	WORD	3333165	wordpools/wasnorm_wordpool_576.txt	LTP365	ltpFR2	14	8	MOP	916	n/a	n/a	0	0	0
1630.0791015625	n/a	WORD	3338402	wordpools/wasnorm_wordpool_576.txt	LTP365	ltpFR2	14	8	IDOL	733	n/a	n/a	0	0	0
1632.55517578125	n/a	WORD	3343473	wordpools/wasnorm_wordpool_576.txt	LTP365	ltpFR2	14	8	RATTLE	1170	n/a	n/a	0	0	0
1634.15966796875	n/a	START	3346759	n/a	LTP365	ltpFR2	14	n/a	n/a	n/a	10	n/a	n/a	n/a	n/a
1634.9599609375	n/a	DISTRACTOR	3348398	n/a	LTP365	ltpFR2	14	8	n/a	n/a	n/a	n/a	0	0	0
1634.9619140625	n/a	PROB	3348402	n/a	LTP365	ltpFR2	14	n/a	n/a	n/a	10	18	9	6	3
1637.7548828125	n/a	PROB	3354122	n/a	LTP365	ltpFR2	14	n/a	n/a	n/a	10	10	1	5	3
1639.05859375	n/a	PROB	3356792	n/a	LTP365	ltpFR2	14	n/a	n/a	n/a	10	12	2	5	5
1640.396484375	n/a	PROB	3359532	n/a	LTP365	ltpFR2	14	n/a	n/a	n/a	10	15	3	7	5
1641.6337890625	n/a	PROB	3362066	n/a	LTP365	ltpFR2	14	n/a	n/a	n/a	10	13	7	1	4
1643.45654296875	n/a	PROB	3365799	n/a	LTP365	ltpFR2	14	n/a	n/a	n/a	10	10	4	1	5
1644.9775390625	n/a	PROB	3368914	n/a	LTP365	ltpFR2	14	n/a	n/a	n/a	10	15	6	1	8
1646.4833984375	n/a	PROB	3371998	n/a	LTP365	ltpFR2	14	n/a	n/a	n/a	10	7	1	5	1
1647.62060546875	n/a	PROB	3374327	n/a	LTP365	ltpFR2	14	n/a	n/a	n/a	10	16	6	4	6
1648.9404296875	n/a	PROB	3377030	n/a	LTP365	ltpFR2	14	n/a	n/a	n/a	10	12	5	4	3
1651.013671875	n/a	PROB	3381276	n/a	LTP365	ltpFR2	14	n/a	n/a	n/a	10	14	3	5	6
1652.8203125	n/a	PROB	3384976	n/a	LTP365	ltpFR2	14	n/a	n/a	n/a	10	14	4	4	6
1654.37548828125	n/a	PROB	3388161	n/a	LTP365	ltpFR2	14	n/a	n/a	n/a	10	10	1	2	7
1655.6123046875	n/a	PROB	3390694	n/a	LTP365	ltpFR2	14	n/a	n/a	n/a	10	16	7	6	3
1657.05615234375	n/a	STOP	3393651	n/a	LTP365	ltpFR2	14	n/a	n/a	n/a	10	n/a	n/a	n/a	n/a
1660.02734375	n/a	REC_START	3399736	n/a	LTP365	ltpFR2	14	8	n/a	n/a	n/a	n/a	0	0	0
1661.41015625	n/a	REC_WORD	3402568	wordpools/wasnorm_wordpool_576.txt	LTP365	ltpFR2	14	8	MOP	916	n/a	n/a	0	0	0
1662.38232421875	n/a	REC_WORD	3404559	wordpools/wasnorm_wordpool_576.txt	LTP365	ltpFR2	14	8	DUSTPAN	509	n/a	n/a	0	0	0
1663.80908203125	n/a	REC_WORD	3407481	wordpools/wasnorm_wordpool_576.txt	LTP365	ltpFR2	14	8	BUNNY	198	n/a	n/a	0	0	0
1664.705078125	n/a	REC_WORD	3409316	wordpools/wasnorm_wordpool_576.txt	LTP365	ltpFR2	14	8	KITCHEN	778	n/a	n/a	0	0	0
1674.8876953125	n/a	REC_WORD	3430170	wordpools/wasnorm_wordpool_576.txt	LTP365	ltpFR2	14	8	BOYFRIEND	162	n/a	n/a	0	0	0
1690.40625	n/a	REC_WORD	3461952	wordpools/wasnorm_wordpool_576.txt	LTP365	ltpFR2	14	8	PICNIC	1060	n/a	n/a	0	0	0
1692.228515625	n/a	REC_WORD	3465684	wordpools/wasnorm_wordpool_576.txt	LTP365	ltpFR2	14	8	CLAMP	316	n/a	n/a	0	0	0
1736.5390625	n/a	REST_REWET	3556432	n/a	LTP365	ltpFR2	14	8	n/a	n/a	n/a	n/a	0	0	0
1898.4755859375	n/a	DISTRACTOR	3888078	n/a	LTP365	ltpFR2	14	9	n/a	n/a	n/a	n/a	0	0	0
1898.4755859375	n/a	START	3888078	n/a	LTP365	ltpFR2	14	n/a	n/a	n/a	11	n/a	n/a	n/a	n/a
1898.49267578125	n/a	PROB	3888113	n/a	LTP365	ltpFR2	14	n/a	n/a	n/a	11	9	4	2	3
1902.638671875	n/a	PROB	3896604	n/a	LTP365	ltpFR2	14	n/a	n/a	n/a	11	18	9	2	7
1904.32763671875	n/a	PROB	3900063	n/a	LTP365	ltpFR2	14	n/a	n/a	n/a	11	15	4	6	5
1905.4814453125	n/a	PROB	3902426	n/a	LTP365	ltpFR2	14	n/a	n/a	n/a	11	121	8	7	6
1907.08544921875	n/a	PROB	3905711	n/a	LTP365	ltpFR2	14	n/a	n/a	n/a	11	5	1	1	3
1908.4072265625	n/a	PROB	3908418	n/a	LTP365	ltpFR2	14	n/a	n/a	n/a	11	13	2	9	2
1910.09521484375	n/a	PROB	3911875	n/a	LTP365	ltpFR2	14	n/a	n/a	n/a	11	16	2	7	7
1912.38720703125	n/a	PROB	3916569	n/a	LTP365	ltpFR2	14	n/a	n/a	n/a	11	16	4	3	9
1914.14111328125	n/a	PROB	3920161	n/a	LTP365	ltpFR2	14	n/a	n/a	n/a	11	7	1	2	4
1916.248046875	n/a	PROB	3924476	n/a	LTP365	ltpFR2	14	n/a	n/a	n/a	11	15	1	6	8
1917.92138671875	n/a	PROB	3927903	n/a	LTP365	ltpFR2	14	n/a	n/a	n/a	11	19	5	6	8
1922.47412109375	n/a	STOP	3937227	n/a	LTP365	ltpFR2	14	n/a	n/a	n/a	11	n/a	n/a	n/a	n/a
1923.3720703125	n/a	WORD	3939066	wordpools/wasnorm_wordpool_576.txt	LTP365	ltpFR2	14	9	APRON	35	n/a	n/a	0	0	0
1925.8798828125	n/a	WORD	3944202	wordpools/wasnorm_wordpool_576.txt	LTP365	ltpFR2	14	9	POPCORN	1104	n/a	n/a	0	0	0
1928.65576171875	n/a	WORD	3949887	wordpools/wasnorm_wordpool_576.txt	LTP365	ltpFR2	14	9	LUNCH	849	n/a	n/a	0	0	0
1931.431640625	n/a	WORD	3955572	wordpools/wasnorm_wordpool_576.txt	LTP365	ltpFR2	14	9	CHIPMUNK	304	n/a	n/a	0	0	0
1934.18994140625	n/a	WORD	3961221	wordpools/wasnorm_wordpool_576.txt	LTP365	ltpFR2	14	9	PORK	1108	n/a	n/a	0	0	0
1936.83251953125	n/a	WORD	3966633	wordpools/wasnorm_wordpool_576.txt	LTP365	ltpFR2	14	9	DENTIST	447	n/a	n/a	0	0	0
1939.54052734375	n/a	WORD	3972179	wordpools/wasnorm_wordpool_576.txt	LTP365	ltpFR2	14	9	PEACH	1031	n/a	n/a	0	0	0
1942.0146484375	n/a	WORD	3977246	wordpools/wasnorm_wordpool_576.txt	LTP365	ltpFR2	14	9	FRUIT	610	n/a	n/a	0	0	0
1944.50634765625	n/a	WORD	3982349	wordpools/wasnorm_wordpool_576.txt	LTP365	ltpFR2	14	9	SPOON	1357	n/a	n/a	0	0	0
1947.13134765625	n/a	WORD	3987725	wordpools/wasnorm_wordpool_576.txt	LTP365	ltpFR2	14	9	SWORD	1423	n/a	n/a	0	0	0
1949.79052734375	n/a	WORD	3993171	wordpools/wasnorm_wordpool_576.txt	LTP365	ltpFR2	14	9	JUGGLER	763	n/a	n/a	0	0	0
1952.29736328125	n/a	WORD	3998305	wordpools/wasnorm_wordpool_576.txt	LTP365	ltpFR2	14	9	HIKER	708	n/a	n/a	0	0	0
1955.0732421875	n/a	WORD	4003990	wordpools/wasnorm_wordpool_576.txt	LTP365	ltpFR2	14	9	ORCHID	982	n/a	n/a	0	0	0
1957.69921875	n/a	WORD	4009368	wordpools/wasnorm_wordpool_576.txt	LTP365	ltpFR2	14	9	ANTLER	29	n/a	n/a	0	0	0
1960.44091796875	n/a	WORD	4014983	wordpools/wasnorm_wordpool_576.txt	LTP365	ltpFR2	14	9	BUGGY	188	n/a	n/a	0	0	0
1963.01513671875	n/a	WORD	4020255	wordpools/wasnorm_wordpool_576.txt	LTP365	ltpFR2	14	9	DRILL	497	n/a	n/a	0	0	0
1965.77490234375	n/a	WORD	4025907	wordpools/wasnorm_wordpool_576.txt	LTP365	ltpFR2	14	9	HOSTESS	723	n/a	n/a	0	0	0
1968.23193359375	n/a	WORD	4030939	wordpools/wasnorm_wordpool_576.txt	LTP365	ltpFR2	14	9	FRAME	600	n/a	n/a	0	0	0
1970.90869140625	n/a	WORD	4036421	wordpools/wasnorm_wordpool_576.txt	LTP365	ltpFR2	14	9	ICING	732	n/a	n/a	0	0	0
1973.466796875	n/a	WORD	4041660	wordpools/wasnorm_wordpool_576.txt	LTP365	ltpFR2	14	9	TABLET	1427	n/a	n/a	0	0	0
1975.9736328125	n/a	WORD	4046794	wordpools/wasnorm_wordpool_576.txt	LTP365	ltpFR2	14	9	NAPKIN	937	n/a	n/a	0	0	0
1978.78369140625	n/a	WORD	4052549	wordpools/wasnorm_wordpool_576.txt	LTP365	ltpFR2	14	9	COUCH	386	n/a	n/a	0	0	0
1981.40869140625	n/a	WORD	4057925	wordpools/wasnorm_wordpool_576.txt	LTP365	ltpFR2	14	9	CARRIAGE	248	n/a	n/a	0	0	0
1984.16650390625	n/a	WORD	4063573	wordpools/wasnorm_wordpool_576.txt	LTP365	ltpFR2	14	9	ATOM	55	n/a	n/a	0	0	0
1985.7734375	n/a	START	4066864	n/a	LTP365	ltpFR2	14	n/a	n/a	n/a	12	n/a	n/a	n/a	n/a
1986.7802734375	n/a	DISTRACTOR	4068926	n/a	LTP365	ltpFR2	14	9	n/a	n/a	n/a	n/a	0	0	0
1986.79248046875	n/a	PROB	4068951	n/a	LTP365	ltpFR2	14	n/a	n/a	n/a	12	16	2	8	6
1988.4482421875	n/a	PROB	4072342	n/a	LTP365	ltpFR2	14	n/a	n/a	n/a	12	11	1	4	6
1989.75244140625	n/a	PROB	4075013	n/a	LTP365	ltpFR2	14	n/a	n/a	n/a	12	11	5	3	3
1991.5244140625	n/a	PROB	4078642	n/a	LTP365	ltpFR2	14	n/a	n/a	n/a	12	24	8	8	8
1992.79541015625	n/a	PROB	4081245	n/a	LTP365	ltpFR2	14	n/a	n/a	n/a	12	20	6	5	9
1994.5341796875	n/a	PROB	4084806	n/a	LTP365	ltpFR2	14	n/a	n/a	n/a	12	13	3	9	1
1995.72119140625	n/a	PROB	4087237	n/a	LTP365	ltpFR2	14	n/a	n/a	n/a	12	15	6	3	6
1997.208984375	n/a	PROB	4090284	n/a	LTP365	ltpFR2	14	n/a	n/a	n/a	12	14	1	4	9
1998.294921875	n/a	PROB	4092508	n/a	LTP365	ltpFR2	14	n/a	n/a	n/a	12	19	4	8	7
1999.6669921875	n/a	PROB	4095318	n/a	LTP365	ltpFR2	14	n/a	n/a	n/a	12	12	8	3	1
2000.85498046875	n/a	PROB	4097751	n/a	LTP365	ltpFR2	14	n/a	n/a	n/a	12	13	4	3	6
2002.60986328125	n/a	PROB	4101345	n/a	LTP365	ltpFR2	14	n/a	n/a	n/a	12	9	5	1	3
2003.86376953125	n/a	PROB	4103913	n/a	LTP365	ltpFR2	14	n/a	n/a	n/a	12	12	2	6	4
2005.68701171875	n/a	PROB	4107647	n/a	LTP365	ltpFR2	14	n/a	n/a	n/a	12	14	7	1	5
2009.77294921875	n/a	STOP	4116015	n/a	LTP365	ltpFR2	14	n/a	n/a	n/a	12	n/a	n/a	n/a	n/a
2011.58984375	n/a	REC_START	4119736	n/a	LTP365	ltpFR2	14	9	n/a	n/a	n/a	n/a	0	0	0
2013.3115234375	n/a	REC_WORD	4123262	wordpools/wasnorm_wordpool_576.txt	LTP365	ltpFR2	14	9	CARRIAGE	248	n/a	n/a	0	0	0
2014.5595703125	n/a	REC_WORD	4125818	wordpools/wasnorm_wordpool_576.txt	LTP365	ltpFR2	14	9	BUGGY	188	n/a	n/a	0	0	0
2015.46435546875	n/a	REC_WORD	4127671	wordpools/wasnorm_wordpool_576.txt	LTP365	ltpFR2	14	9	COUCH	386	n/a	n/a	0	0	0
2016.2197265625	n/a	REC_WORD	4129218	wordpools/wasnorm_wordpool_576.txt	LTP365	ltpFR2	14	9	NAPKIN	937	n/a	n/a	0	0	0
2017.04443359375	n/a	REC_WORD	4130907	wordpools/wasnorm_wordpool_576.txt	LTP365	ltpFR2	14	9	SPOON	1357	n/a	n/a	0	0	0
2018.142578125	n/a	REC_WORD	4133156	wordpools/wasnorm_wordpool_576.txt	LTP365	ltpFR2	14	9	LUNCH	849	n/a	n/a	0	0	0
2019.03857421875	n/a	REC_WORD	4134991	wordpools/wasnorm_wordpool_576.txt	LTP365	ltpFR2	14	9	PORK	1108	n/a	n/a	0	0	0
2025.32421875	n/a	REC_WORD	4147864	wordpools/wasnorm_wordpool_576.txt	LTP365	ltpFR2	14	9	ICING	732	n/a	n/a	0	0	0
2029.88720703125	n/a	REC_WORD	4157209	wordpools/wasnorm_wordpool_576.txt	LTP365	ltpFR2	14	9	HIKER	708	n/a	n/a	0	0	0
2032.3759765625	n/a	REC_WORD	4162306	wordpools/wasnorm_wordpool_576.txt	LTP365	ltpFR2	14	9	DENTIST	447	n/a	n/a	0	0	0
2034.5712890625	n/a	REC_WORD	4166802	wordpools/wasnorm_wordpool_576.txt	LTP365	ltpFR2	14	9	FRAME	600	n/a	n/a	0	0	0
2040.61279296875	n/a	REC_WORD	4179175	wordpools/wasnorm_wordpool_576.txt	LTP365	ltpFR2	14	9	POPCORN	1104	n/a	n/a	0	0	0
2041.60986328125	n/a	REC_WORD	4181217	wordpools/wasnorm_wordpool_576.txt	LTP365	ltpFR2	14	9	APRON	35	n/a	n/a	0	0	0
2055.13134765625	n/a	REC_WORD	4208909	wordpools/wasnorm_wordpool_576.txt	LTP365	ltpFR2	14	9	PEACH	1031	n/a	n/a	0	0	0
2055.71044921875	n/a	REC_WORD	4210095	wordpools/wasnorm_wordpool_576.txt	LTP365	ltpFR2	14	9	FRUIT	610	n/a	n/a	0	0	0
2082.70263671875	n/a	REC_WORD	4265375	wordpools/wasnorm_wordpool_576.txt	LTP365	ltpFR2	14	9	CHIPMUNK	304	n/a	n/a	0	0	0
2102.04541015625	n/a	WORD	4304989	wordpools/wasnorm_wordpool_576.txt	LTP365	ltpFR2	14	10	SUITCASE	1403	n/a	n/a	0	0	0
2104.55419921875	n/a	WORD	4310127	wordpools/wasnorm_wordpool_576.txt	LTP365	ltpFR2	14	10	SAUSAGE	1238	n/a	n/a	0	0	0
2107.279296875	n/a	WORD	4315708	wordpools/wasnorm_wordpool_576.txt	LTP365	ltpFR2	14	10	PERCH	1048	n/a	n/a	0	0	0
2109.80419921875	n/a	WORD	4320879	wordpools/wasnorm_wordpool_576.txt	LTP365	ltpFR2	14	10	GIFT	635	n/a	n/a	0	0	0
2112.56298828125	n/a	WORD	4326529	wordpools/wasnorm_wordpool_576.txt	LTP365	ltpFR2	14	10	BOX	159	n/a	n/a	0	0	0
2115.2880859375	n/a	WORD	4332110	wordpools/wasnorm_wordpool_576.txt	LTP365	ltpFR2	14	10	FARMER	553	n/a	n/a	0	0	0
2117.9296875	n/a	WORD	4337520	wordpools/wasnorm_wordpool_576.txt	LTP365	ltpFR2	14	10	RAZOR	1171	n/a	n/a	0	0	0
2120.421875	n/a	WORD	4342624	wordpools/wasnorm_wordpool_576.txt	LTP365	ltpFR2	14	10	FIREPLACE	570	n/a	n/a	0	0	0
2122.94580078125	n/a	WORD	4347793	wordpools/wasnorm_wordpool_576.txt	LTP365	ltpFR2	14	10	JAPAN	749	n/a	n/a	0	0	0
2125.57177734375	n/a	WORD	4353171	wordpools/wasnorm_wordpool_576.txt	LTP365	ltpFR2	14	10	MEAT	883	n/a	n/a	0	0	0
2128.2294921875	n/a	WORD	4358614	wordpools/wasnorm_wordpool_576.txt	LTP365	ltpFR2	14	10	BANKER	84	n/a	n/a	0	0	0
2130.67138671875	n/a	WORD	4363615	wordpools/wasnorm_wordpool_576.txt	LTP365	ltpFR2	14	10	ARM	38	n/a	n/a	0	0	0
2133.12841796875	n/a	WORD	4368647	wordpools/wasnorm_wordpool_576.txt	LTP365	ltpFR2	14	10	LUGGAGE	847	n/a	n/a	0	0	0
2135.92138671875	n/a	WORD	4374367	wordpools/wasnorm_wordpool_576.txt	LTP365	ltpFR2	14	10	SALMON	1227	n/a	n/a	0	0	0
2138.68017578125	n/a	WORD	4380017	wordpools/wasnorm_wordpool_576.txt	LTP365	ltpFR2	14	10	BROOK	177	n/a	n/a	0	0	0
2141.10400390625	n/a	WORD	4384981	wordpools/wasnorm_wordpool_576.txt	LTP365	ltpFR2	14	10	LAVA	804	n/a	n/a	0	0	0
2143.51318359375	n/a	WORD	4389915	wordpools/wasnorm_wordpool_576.txt	LTP365	ltpFR2	14	10	FUNGUS	614	n/a	n/a	0	0	0
2146.10302734375	n/a	WORD	4395219	wordpools/wasnorm_wordpool_576.txt	LTP365	ltpFR2	14	10	MUSTARD	935	n/a	n/a	0	0	0
2148.830078125	n/a	WORD	4400804	wordpools/wasnorm_wordpool_576.txt	LTP365	ltpFR2	14	10	CAPTIVE	240	n/a	n/a	0	0	0
2151.48779296875	n/a	WORD	4406247	wordpools/wasnorm_wordpool_576.txt	LTP365	ltpFR2	14	10	CHILD	299	n/a	n/a	0	0	0
2154.24560546875	n/a	WORD	4411895	wordpools/wasnorm_wordpool_576.txt	LTP365	ltpFR2	14	10	STAPLE	1371	n/a	n/a	0	0	0
2156.9375	n/a	WORD	4417408	wordpools/wasnorm_wordpool_576.txt	LTP365	ltpFR2	14	10	STAKE	1368	n/a	n/a	0	0	0
2159.380859375	n/a	WORD	4422412	wordpools/wasnorm_wordpool_576.txt	LTP365	ltpFR2	14	10	BLADE	134	n/a	n/a	0	0	0
2162.12158203125	n/a	WORD	4428025	wordpools/wasnorm_wordpool_576.txt	LTP365	ltpFR2	14	10	KNIFE	785	n/a	n/a	0	0	0
2163.7275390625	n/a	START	4431314	n/a	LTP365	ltpFR2	14	n/a	n/a	n/a	13	n/a	n/a	n/a	n/a
2164.685546875	n/a	DISTRACTOR	4433276	n/a	LTP365	ltpFR2	14	10	n/a	n/a	n/a	n/a	0	0	0
2164.69775390625	n/a	PROB	4433301	n/a	LTP365	ltpFR2	14	n/a	n/a	n/a	13	12	6	4	2
2166.21826171875	n/a	PROB	4436415	n/a	LTP365	ltpFR2	14	n/a	n/a	n/a	13	5	2	1	2
2167.37255859375	n/a	PROB	4438779	n/a	LTP365	ltpFR2	14	n/a	n/a	n/a	13	18	9	3	6
2169.3115234375	n/a	PROB	4442750	n/a	LTP365	ltpFR2	14	n/a	n/a	n/a	13	13	2	5	6
2172.38818359375	n/a	PROB	4449051	n/a	LTP365	ltpFR2	14	n/a	n/a	n/a	13	9	2	5	2
2173.693359375	n/a	PROB	4451724	n/a	LTP365	ltpFR2	14	n/a	n/a	n/a	13	20	9	5	6
2175.1630859375	n/a	PROB	4454734	n/a	LTP365	ltpFR2	14	n/a	n/a	n/a	13	7	2	3	2
2176.71923828125	n/a	PROB	4457921	n/a	LTP365	ltpFR2	14	n/a	n/a	n/a	13	15	6	8	1
2178.55810546875	n/a	PROB	4461687	n/a	LTP365	ltpFR2	14	n/a	n/a	n/a	13	13	4	5	4
2182.05224609375	n/a	PROB	4468843	n/a	LTP365	ltpFR2	14	n/a	n/a	n/a	13	8	3	2	3
2183.85888671875	n/a	PROB	4472543	n/a	LTP365	ltpFR2	14	n/a	n/a	n/a	13	11	1	1	9
2185.02783203125	n/a	PROB	4474937	n/a	LTP365	ltpFR2	14	n/a	n/a	n/a	13	11	6	4	1
2186.09814453125	n/a	PROB	4477129	n/a	LTP365	ltpFR2	14	n/a	n/a	n/a	13	11	1	4	6
2187.08203125	n/a	STOP	4479144	n/a	LTP365	ltpFR2	14	n/a	n/a	n/a	13	n/a	n/a	n/a	n/a
2189.5107421875	n/a	REC_START	4484118	n/a	LTP365	ltpFR2	14	10	n/a	n/a	n/a	n/a	0	0	0
2190.130859375	n/a	REC_WORD	4485388	wordpools/wasnorm_wordpool_576.txt	LTP365	ltpFR2	14	10	STAPLE	1371	n/a	n/a	0	0	0
2191.1318359375	n/a	REC_WORD	4487438	wordpools/wasnorm_wordpool_576.txt	LTP365	ltpFR2	14	10	CHILD	299	n/a	n/a	0	0	0
2191.6845703125	n/a	REC_WORD	4488570	wordpools/wasnorm_wordpool_576.txt	LTP365	ltpFR2	14	10	JAPAN	749	n/a	n/a	0	0	0
2193.03173828125	n/a	REC_WORD	4491329	wordpools/wasnorm_wordpool_576.txt	LTP365	ltpFR2	14	10	LAVA	804	n/a	n/a	0	0	0
2193.52783203125	n/a	REC_WORD	4492345	wordpools/wasnorm_wordpool_576.txt	LTP365	ltpFR2	14	10	BROOK	177	n/a	n/a	0	0	0
2193.9306640625	n/a	REC_WORD	4493170	wordpools/wasnorm_wordpool_576.txt	LTP365	ltpFR2	14	10	SALMON	1227	n/a	n/a	0	0	0
2195.57958984375	n/a	REC_WORD	4496547	wordpools/wasnorm_wordpool_576.txt	LTP365	ltpFR2	14	10	MEAT	883	n/a	n/a	0	0	0
2195.76171875	n/a	REC_WORD	4496920	wordpools/wasnorm_wordpool_576.txt	LTP365	ltpFR2	14	10	SAUSAGE	1238	n/a	n/a	0	0	0
2196.66259765625	n/a	REC_WORD	4498765	wordpools/wasnorm_wordpool_576.txt	LTP365	ltpFR2	14	10	JAPAN	749	n/a	n/a	0	0	0
2199.37353515625	n/a	REC_WORD	4504317	wordpools/wasnorm_wordpool_576.txt	LTP365	ltpFR2	14	10	BOX	159	n/a	n/a	0	0	0
2200.00341796875	n/a	REC_WORD	4505607	wordpools/wasnorm_wordpool_576.txt	LTP365	ltpFR2	14	10	SUITCASE	1403	n/a	n/a	0	0	0
2201.09375	n/a	REC_WORD	4507840	wordpools/wasnorm_wordpool_576.txt	LTP365	ltpFR2	14	10	LUGGAGE	847	n/a	n/a	0	0	0
2202.40673828125	n/a	REC_WORD	4510529	wordpools/wasnorm_wordpool_576.txt	LTP365	ltpFR2	14	10	GIFT	635	n/a	n/a	0	0	0
2229.9609375	n/a	REC_WORD	4566960	wordpools/wasnorm_wordpool_576.txt	LTP365	ltpFR2	14	10	PERCH	1048	n/a	n/a	0	0	0
2231.53662109375	n/a	REC_WORD	4570187	wordpools/wasnorm_wordpool_576.txt	LTP365	ltpFR2	14	10	BANKER	84	n/a	n/a	0	0	0
2279.96630859375	n/a	WORD	4669371	wordpools/wasnorm_wordpool_576.txt	LTP365	ltpFR2	14	11	FLIPPER	580	n/a	n/a	0	0	0
2282.6591796875	n/a	WORD	4674886	wordpools/wasnorm_wordpool_576.txt	LTP365	ltpFR2	14	11	CRAB	397	n/a	n/a	0	0	0
2285.38525390625	n/a	WORD	4680469	wordpools/wasnorm_wordpool_576.txt	LTP365	ltpFR2	14	11	TURNIP	1521	n/a	n/a	0	0	0
2287.84326171875	n/a	WORD	4685503	wordpools/wasnorm_wordpool_576.txt	LTP365	ltpFR2	14	11	GARDEN	623	n/a	n/a	0	0	0
2290.46826171875	n/a	WORD	4690879	wordpools/wasnorm_wordpool_576.txt	LTP365	ltpFR2	14	11	COUNTY	389	n/a	n/a	0	0	0
2293.0078125	n/a	WORD	4696080	wordpools/wasnorm_wordpool_576.txt	LTP365	ltpFR2	14	11	TOURIST	1488	n/a	n/a	0	0	0
2295.68505859375	n/a	WORD	4701563	wordpools/wasnorm_wordpool_576.txt	LTP365	ltpFR2	14	11	RIFLE	1192	n/a	n/a	0	0	0
2298.30908203125	n/a	WORD	4706937	wordpools/wasnorm_wordpool_576.txt	LTP365	ltpFR2	14	11	BINDER	127	n/a	n/a	0	0	0
2300.85205078125	n/a	WORD	4712145	wordpools/wasnorm_wordpool_576.txt	LTP365	ltpFR2	14	11	DORM	488	n/a	n/a	0	0	0
2303.66064453125	n/a	WORD	4717897	wordpools/wasnorm_wordpool_576.txt	LTP365	ltpFR2	14	11	CYCLONE	431	n/a	n/a	0	0	0
2306.18359375	n/a	WORD	4723064	wordpools/wasnorm_wordpool_576.txt	LTP365	ltpFR2	14	11	SCALPEL	1243	n/a	n/a	0	0	0
2308.6767578125	n/a	WORD	4728170	wordpools/wasnorm_wordpool_576.txt	LTP365	ltpFR2	14	11	PACKAGE	997	n/a	n/a	0	0	0
2311.3857421875	n/a	WORD	4733718	wordpools/wasnorm_wordpool_576.txt	LTP365	ltpFR2	14	11	CROWN	415	n/a	n/a	0	0	0
2314.15966796875	n/a	WORD	4739399	wordpools/wasnorm_wordpool_576.txt	LTP365	ltpFR2	14	11	PRINCESS	1125	n/a	n/a	0	0	0
2316.90234375	n/a	WORD	4745016	wordpools/wasnorm_wordpool_576.txt	LTP365	ltpFR2	14	11	SCRIBBLE	1256	n/a	n/a	0	0	0
2319.42724609375	n/a	WORD	4750187	wordpools/wasnorm_wordpool_576.txt	LTP365	ltpFR2	14	11	CLOUD	328	n/a	n/a	0	0	0
2321.93505859375	n/a	WORD	4755323	wordpools/wasnorm_wordpool_576.txt	LTP365	ltpFR2	14	11	SHARK	1275	n/a	n/a	0	0	0
2324.51025390625	n/a	WORD	4760597	wordpools/wasnorm_wordpool_576.txt	LTP365	ltpFR2	14	11	HOOK	715	n/a	n/a	0	0	0
2327.05126953125	n/a	WORD	4765801	wordpools/wasnorm_wordpool_576.txt	LTP365	ltpFR2	14	11	SLIME	1327	n/a	n/a	0	0	0
2329.4931640625	n/a	WORD	4770802	wordpools/wasnorm_wordpool_576.txt	LTP365	ltpFR2	14	11	RAFT	1159	n/a	n/a	0	0	0
2332.1337890625	n/a	WORD	4776210	wordpools/wasnorm_wordpool_576.txt	LTP365	ltpFR2	14	11	SUNSET	1408	n/a	n/a	0	0	0
2334.81103515625	n/a	WORD	4781693	wordpools/wasnorm_wordpool_576.txt	LTP365	ltpFR2	14	11	SUSPECT	1415	n/a	n/a	0	0	0
2337.2509765625	n/a	WORD	4786690	wordpools/wasnorm_wordpool_576.txt	LTP365	ltpFR2	14	11	PADDLE	1000	n/a	n/a	0	0	0
2340.0595703125	n/a	WORD	4792442	wordpools/wasnorm_wordpool_576.txt	LTP365	ltpFR2	14	11	FOOT	590	n/a	n/a	0	0	0
2341.66552734375	n/a	START	4795731	n/a	LTP365	ltpFR2	14	n/a	n/a	n/a	14	n/a	n/a	n/a	n/a
2342.765625	n/a	DISTRACTOR	4797984	n/a	LTP365	ltpFR2	14	11	n/a	n/a	n/a	n/a	0	0	0
2342.76953125	n/a	PROB	4797992	n/a	LTP365	ltpFR2	14	n/a	n/a	n/a	14	18	2	7	9
2344.65869140625	n/a	PROB	4801861	n/a	LTP365	ltpFR2	14	n/a	n/a	n/a	14	12	6	4	3
2345.79541015625	n/a	PROB	4804189	n/a	LTP365	ltpFR2	14	n/a	n/a	n/a	14	19	9	9	1
2347.28271484375	n/a	PROB	4807235	n/a	LTP365	ltpFR2	14	n/a	n/a	n/a	14	17	9	7	1
2349.20556640625	n/a	PROB	4811173	n/a	LTP365	ltpFR2	14	n/a	n/a	n/a	14	22	5	8	9
2351.16259765625	n/a	PROB	4815181	n/a	LTP365	ltpFR2	14	n/a	n/a	n/a	14	18	9	8	1
2353.30224609375	n/a	PROB	4819563	n/a	LTP365	ltpFR2	14	n/a	n/a	n/a	14	19	5	7	7
2354.82421875	n/a	PROB	4822680	n/a	LTP365	ltpFR2	14	n/a	n/a	n/a	14	10	1	4	5
2356.0615234375	n/a	PROB	4825214	n/a	LTP365	ltpFR2	14	n/a	n/a	n/a	14	12	8	3	1
2357.4501953125	n/a	PROB	4828058	n/a	LTP365	ltpFR2	14	n/a	n/a	n/a	14	11	2	8	1
2358.58642578125	n/a	PROB	4830385	n/a	LTP365	ltpFR2	14	n/a	n/a	n/a	14	17	7	6	4
2361.1611328125	n/a	PROB	4835658	n/a	LTP365	ltpFR2	14	n/a	n/a	n/a	14	17	6	4	7
2362.56640625	n/a	PROB	4838536	n/a	LTP365	ltpFR2	14	n/a	n/a	n/a	14	18	3	6	9
2364.38720703125	n/a	STOP	4842265	n/a	LTP365	ltpFR2	14	n/a	n/a	n/a	14	n/a	n/a	n/a	n/a
2367.43212890625	n/a	REC_START	4848501	n/a	LTP365	ltpFR2	14	11	n/a	n/a	n/a	n/a	0	0	0
2368.76708984375	n/a	REC_WORD	4851235	wordpools/wasnorm_wordpool_576.txt	LTP365	ltpFR2	14	11	FLIPPER	580	n/a	n/a	0	0	0
2370.7109375	n/a	REC_WORD	4855216	wordpools/wasnorm_wordpool_576.txt	LTP365	ltpFR2	14	11	FOOT	590	n/a	n/a	0	0	0
2373.5869140625	n/a	REC_WORD	4861106	wordpools/wasnorm_wordpool_576.txt	LTP365	ltpFR2	14	11	PACKAGE	997	n/a	n/a	0	0	0
2374.71484375	n/a	REC_WORD	4863416	wordpools/wasnorm_wordpool_576.txt	LTP365	ltpFR2	14	11	TOURIST	1488	n/a	n/a	0	0	0
2375.57763671875	n/a	REC_WORD	4865183	wordpools/wasnorm_wordpool_576.txt	LTP365	ltpFR2	14	11	RAFT	1159	n/a	n/a	0	0	0
2377.2548828125	n/a	REC_WORD	4868618	wordpools/wasnorm_wordpool_576.txt	LTP365	ltpFR2	14	11	PADDLE	1000	n/a	n/a	0	0	0
2379.57568359375	n/a	REC_WORD	4873371	wordpools/wasnorm_wordpool_576.txt	LTP365	ltpFR2	14	11	SUNSET	1408	n/a	n/a	0	0	0
2384.8515625	n/a	REC_WORD	4884176	wordpools/wasnorm_wordpool_576.txt	LTP365	ltpFR2	14	11	GARDEN	623	n/a	n/a	0	0	0
2385.6015625	n/a	REC_WORD	4885712	wordpools/wasnorm_wordpool_576.txt	LTP365	ltpFR2	14	11	RAFT	1159	n/a	n/a	0	0	0
2388.6435546875	n/a	REC_WORD	4891942	wordpools/wasnorm_wordpool_576.txt	LTP365	ltpFR2	14	11	CRAB	397	n/a	n/a	0	0	0
2392.3271484375	n/a	REC_WORD	4899486	wordpools/wasnorm_wordpool_576.txt	LTP365	ltpFR2	14	11	HOOK	715	n/a	n/a	0	0	0
2404.125	n/a	REC_WORD	4923648	wordpools/wasnorm_wordpool_576.txt	LTP365	ltpFR2	14	11	SHARK	1275	n/a	n/a	0	0	0
2409.0927734375	n/a	REC_WORD	4933822	wordpools/wasnorm_wordpool_576.txt	LTP365	ltpFR2	14	11	CROWN	415	n/a	n/a	0	0	0
2410.0810546875	n/a	REC_WORD	4935846	wordpools/wasnorm_wordpool_576.txt	LTP365	ltpFR2	14	11	PRINCESS	1125	n/a	n/a	0	0	0
2413.31982421875	n/a	REC_WORD	4942479	wordpools/wasnorm_wordpool_576.txt	LTP365	ltpFR2	14	11	DORM	488	n/a	n/a	0	0	0
2418.06982421875	n/a	REC_WORD	4952207	wordpools/wasnorm_wordpool_576.txt	LTP365	ltpFR2	14	11	SCALPEL	1243	n/a	n/a	0	0	0
2424.818359375	n/a	REC_WORD	4966028	wordpools/wasnorm_wordpool_576.txt	LTP365	ltpFR2	14	11	RIFLE	1192	n/a	n/a	0	0	0
2431.50244140625	n/a	REC_WORD	4979717	wordpools/wasnorm_wordpool_576.txt	LTP365	ltpFR2	14	11	BINDER	127	n/a	n/a	0	0	0
2457.8896484375	n/a	DISTRACTOR	5033758	n/a	LTP365	ltpFR2	14	12	n/a	n/a	n/a	n/a	0	0	0
2457.8896484375	n/a	START	5033758	n/a	LTP365	ltpFR2	14	n/a	n/a	n/a	15	n/a	n/a	n/a	n/a
2457.90576171875	n/a	PROB	5033791	n/a	LTP365	ltpFR2	14	n/a	n/a	n/a	15	17	9	6	2
2459.5615234375	n/a	PROB	5037182	n/a	LTP365	ltpFR2	14	n/a	n/a	n/a	15	14	8	2	4
2460.79833984375	n/a	PROB	5039715	n/a	LTP365	ltpFR2	14	n/a	n/a	n/a	15	11	1	1	9
2461.9013671875	n/a	PROB	5041974	n/a	LTP365	ltpFR2	14	n/a	n/a	n/a	15	15	1	5	9
2463.1552734375	n/a	PROB	5044542	n/a	LTP365	ltpFR2	14	n/a	n/a	n/a	15	12	1	6	5
2464.7275390625	n/a	PROB	5047762	n/a	LTP365	ltpFR2	14	n/a	n/a	n/a	15	11	1	2	8
2465.8642578125	n/a	PROB	5050090	n/a	LTP365	ltpFR2	14	n/a	n/a	n/a	15	21	4	9	8
2468.0205078125	n/a	PROB	5054506	n/a	LTP365	ltpFR2	14	n/a	n/a	n/a	15	14	2	6	6
2469.30908203125	n/a	PROB	5057145	n/a	LTP365	ltpFR2	14	n/a	n/a	n/a	15	14	3	5	6
2471.9501953125	n/a	PROB	5062554	n/a	LTP365	ltpFR2	14	n/a	n/a	n/a	15	21	8	7	6
2473.5732421875	n/a	PROB	5065878	n/a	LTP365	ltpFR2	14	n/a	n/a	n/a	15	20	8	6	6
2475.4951171875	n/a	PROB	5069814	n/a	LTP365	ltpFR2	14	n/a	n/a	n/a	15	20	7	9	4
2477.43505859375	n/a	PROB	5073787	n/a	LTP365	ltpFR2	14	n/a	n/a	n/a	15	11	5	1	5
2478.68896484375	n/a	PROB	5076355	n/a	LTP365	ltpFR2	14	n/a	n/a	n/a	15	10	2	6	2
2481.88916015625	n/a	STOP	5082909	n/a	LTP365	ltpFR2	14	n/a	n/a	n/a	15	n/a	n/a	n/a	n/a
2483.01904296875	n/a	WORD	5085223	wordpools/wasnorm_wordpool_576.txt	LTP365	ltpFR2	14	12	DONOR	485	n/a	n/a	0	0	0
2485.544921875	n/a	WORD	5090396	wordpools/wasnorm_wordpool_576.txt	LTP365	ltpFR2	14	12	CHEST	295	n/a	n/a	0	0	0
2488.302734375	n/a	WORD	5096044	wordpools/wasnorm_wordpool_576.txt	LTP365	ltpFR2	14	12	MARS	873	n/a	n/a	0	0	0
2490.87890625	n/a	WORD	5101320	wordpools/wasnorm_wordpool_576.txt	LTP365	ltpFR2	14	12	ROCKET	1202	n/a	n/a	0	0	0
2493.67041015625	n/a	WORD	5107037	wordpools/wasnorm_wordpool_576.txt	LTP365	ltpFR2	14	12	TRIBE	1505	n/a	n/a	0	0	0
2496.396484375	n/a	WORD	5112620	wordpools/wasnorm_wordpool_576.txt	LTP365	ltpFR2	14	12	COWBOY	395	n/a	n/a	0	0	0
2499.08740234375	n/a	WORD	5118131	wordpools/wasnorm_wordpool_576.txt	LTP365	ltpFR2	14	12	INMATE	738	n/a	n/a	0	0	0
2501.7802734375	n/a	WORD	5123646	wordpools/wasnorm_wordpool_576.txt	LTP365	ltpFR2	14	12	LABEL	790	n/a	n/a	0	0	0
2504.4384765625	n/a	WORD	5129090	wordpools/wasnorm_wordpool_576.txt	LTP365	ltpFR2	14	12	HAND	683	n/a	n/a	0	0	0
2507.06201171875	n/a	WORD	5134463	wordpools/wasnorm_wordpool_576.txt	LTP365	ltpFR2	14	12	PUDDLE	1140	n/a	n/a	0	0	0
2509.6552734375	n/a	WORD	5139774	wordpools/wasnorm_wordpool_576.txt	LTP365	ltpFR2	14	12	RIVER	1194	n/a	n/a	0	0	0
2512.26318359375	n/a	WORD	5145115	wordpools/wasnorm_wordpool_576.txt	LTP365	ltpFR2	14	12	PARENT	1013	n/a	n/a	0	0	0
2514.7548828125	n/a	WORD	5150218	wordpools/wasnorm_wordpool_576.txt	LTP365	ltpFR2	14	12	DAISY	435	n/a	n/a	0	0	0
2517.2119140625	n/a	WORD	5155250	wordpools/wasnorm_wordpool_576.txt	LTP365	ltpFR2	14	12	COFFEE	341	n/a	n/a	0	0	0
2519.77099609375	n/a	WORD	5160491	wordpools/wasnorm_wordpool_576.txt	LTP365	ltpFR2	14	12	INFANT	737	n/a	n/a	0	0	0
2522.31298828125	n/a	WORD	5165697	wordpools/wasnorm_wordpool_576.txt	LTP365	ltpFR2	14	12	WIDOW	1608	n/a	n/a	0	0	0
2525.0869140625	n/a	WORD	5171378	wordpools/wasnorm_wordpool_576.txt	LTP365	ltpFR2	14	12	CUPBOARD	425	n/a	n/a	0	0	0
2527.763671875	n/a	WORD	5176860	wordpools/wasnorm_wordpool_576.txt	LTP365	ltpFR2	14	12	BRANDY	169	n/a	n/a	0	0	0
2530.20361328125	n/a	WORD	5181857	wordpools/wasnorm_wordpool_576.txt	LTP365	ltpFR2	14	12	JOURNAL	760	n/a	n/a	0	0	0
2532.96240234375	n/a	WORD	5187507	wordpools/wasnorm_wordpool_576.txt	LTP365	ltpFR2	14	12	GLOVE	642	n/a	n/a	0	0	0
2535.638671875	n/a	WORD	5192988	wordpools/wasnorm_wordpool_576.txt	LTP365	ltpFR2	14	12	MATTRESS	879	n/a	n/a	0	0	0
2538.41455078125	n/a	WORD	5198673	wordpools/wasnorm_wordpool_576.txt	LTP365	ltpFR2	14	12	CASKET	255	n/a	n/a	0	0	0
2541.021484375	n/a	WORD	5204012	wordpools/wasnorm_wordpool_576.txt	LTP365	ltpFR2	14	12	PALACE	1006	n/a	n/a	0	0	0
2543.53125	n/a	WORD	5209152	wordpools/wasnorm_wordpool_576.txt	LTP365	ltpFR2	14	12	QUEEN	1149	n/a	n/a	0	0	0
2545.13525390625	n/a	START	5212437	n/a	LTP365	ltpFR2	14	n/a	n/a	n/a	16	n/a	n/a	n/a	n/a
2545.93603515625	n/a	DISTRACTOR	5214077	n/a	LTP365	ltpFR2	14	12	n/a	n/a	n/a	n/a	0	0	0
2545.93701171875	n/a	PROB	5214079	n/a	LTP365	ltpFR2	14	n/a	n/a	n/a	16	10	3	1	6
2547.6103515625	n/a	PROB	5217506	n/a	LTP365	ltpFR2	14	n/a	n/a	n/a	16	16	6	7	3
2548.89794921875	n/a	PROB	5220143	n/a	LTP365	ltpFR2	14	n/a	n/a	n/a	16	21	6	8	7
2551.13818359375	n/a	PROB	5224731	n/a	LTP365	ltpFR2	14	n/a	n/a	n/a	16	17	4	4	9
2553.84716796875	n/a	PROB	5230279	n/a	LTP365	ltpFR2	14	n/a	n/a	n/a	16	12	4	3	5
2556.85693359375	n/a	PROB	5236443	n/a	LTP365	ltpFR2	14	n/a	n/a	n/a	16	14	4	9	1
2558.0927734375	n/a	PROB	5238974	n/a	LTP365	ltpFR2	14	n/a	n/a	n/a	16	18	8	4	6
2560.45166015625	n/a	PROB	5243805	n/a	LTP365	ltpFR2	14	n/a	n/a	n/a	16	9	1	2	6
2561.65576171875	n/a	PROB	5246271	n/a	LTP365	ltpFR2	14	n/a	n/a	n/a	16	14	4	4	6
2562.8427734375	n/a	PROB	5248702	n/a	LTP365	ltpFR2	14	n/a	n/a	n/a	16	11	2	7	2
2564.212890625	n/a	PROB	5251508	n/a	LTP365	ltpFR2	14	n/a	n/a	n/a	16	16	3	7	6
2565.61865234375	n/a	PROB	5254387	n/a	LTP365	ltpFR2	14	n/a	n/a	n/a	16	16	5	6	5
2569.134765625	n/a	STOP	5261588	n/a	LTP365	ltpFR2	14	n/a	n/a	n/a	16	n/a	n/a	n/a	n/a
2570.8857421875	n/a	REC_START	5265174	n/a	LTP365	ltpFR2	14	12	n/a	n/a	n/a	n/a	0	0	0
2573.86865234375	n/a	REC_WORD	5271283	wordpools/wasnorm_wordpool_576.txt	LTP365	ltpFR2	14	12	DAISY	435	n/a	n/a	0	0	0
2574.55419921875	n/a	REC_WORD	5272687	wordpools/wasnorm_wordpool_576.txt	LTP365	ltpFR2	14	12	PARENT	1013	n/a	n/a	0	0	0
2575.2412109375	n/a	REC_WORD	5274094	wordpools/wasnorm_wordpool_576.txt	LTP365	ltpFR2	14	12	MARS	873	n/a	n/a	0	0	0
2576.12255859375	n/a	REC_WORD	5275899	wordpools/wasnorm_wordpool_576.txt	LTP365	ltpFR2	14	12	ROCKET	1202	n/a	n/a	0	0	0
2576.91259765625	n/a	REC_WORD	5277517	wordpools/wasnorm_wordpool_576.txt	LTP365	ltpFR2	14	12	DONOR	485	n/a	n/a	0	0	0
2579.21826171875	n/a	REC_WORD	5282239	wordpools/wasnorm_wordpool_576.txt	LTP365	ltpFR2	14	12	TRIBE	1505	n/a	n/a	0	0	0
2581.67626953125	n/a	REC_WORD	5287273	wordpools/wasnorm_wordpool_576.txt	LTP365	ltpFR2	14	12	QUEEN	1149	n/a	n/a	0	0	0
2585.04638671875	n/a	REC_WORD	5294175	wordpools/wasnorm_wordpool_576.txt	LTP365	ltpFR2	14	12	CROWN	415	n/a	n/a	0	0	0
2590.7177734375	n/a	REC_WORD	5305790	wordpools/wasnorm_wordpool_576.txt	LTP365	ltpFR2	14	12	COWBOY	395	n/a	n/a	0	0	0
2661.34228515625	n/a	WORD	5450429	wordpools/wasnorm_wordpool_576.txt	LTP365	ltpFR2	14	13	CROSS	413	n/a	n/a	0	0	0
2663.93310546875	n/a	WORD	5455735	wordpools/wasnorm_wordpool_576.txt	LTP365	ltpFR2	14	13	CHAPEL	280	n/a	n/a	0	0	0
2666.5927734375	n/a	WORD	5461182	wordpools/wasnorm_wordpool_576.txt	LTP365	ltpFR2	14	13	TEMPLE	1448	n/a	n/a	0	0	0
2669.25	n/a	WORD	5466624	wordpools/wasnorm_wordpool_576.txt	LTP365	ltpFR2	14	13	KNAPSACK	783	n/a	n/a	0	0	0
2671.8095703125	n/a	WORD	5471866	wordpools/wasnorm_wordpool_576.txt	LTP365	ltpFR2	14	13	PASSAGE	1019	n/a	n/a	0	0	0
2674.2998046875	n/a	WORD	5476966	wordpools/wasnorm_wordpool_576.txt	LTP365	ltpFR2	14	13	WINDOW	1611	n/a	n/a	0	0	0
2676.79150390625	n/a	WORD	5482069	wordpools/wasnorm_wordpool_576.txt	LTP365	ltpFR2	14	13	OUTLAW	989	n/a	n/a	0	0	0
2679.400390625	n/a	WORD	5487412	wordpools/wasnorm_wordpool_576.txt	LTP365	ltpFR2	14	13	FLUTE	585	n/a	n/a	0	0	0
2681.84375	n/a	WORD	5492416	wordpools/wasnorm_wordpool_576.txt	LTP365	ltpFR2	14	13	POISON	1096	n/a	n/a	0	0	0
2684.33251953125	n/a	WORD	5497513	wordpools/wasnorm_wordpool_576.txt	LTP365	ltpFR2	14	13	LIZARD	834	n/a	n/a	0	0	0
2687.09033203125	n/a	WORD	5503161	wordpools/wasnorm_wordpool_576.txt	LTP365	ltpFR2	14	13	PLAYGROUND	1087	n/a	n/a	0	0	0
2689.8173828125	n/a	WORD	5508746	wordpools/wasnorm_wordpool_576.txt	LTP365	ltpFR2	14	13	HANDBAG	684	n/a	n/a	0	0	0
2692.59326171875	n/a	WORD	5514431	wordpools/wasnorm_wordpool_576.txt	LTP365	ltpFR2	14	13	SPHINX	1349	n/a	n/a	0	0	0
2695.2333984375	n/a	WORD	5519838	wordpools/wasnorm_wordpool_576.txt	LTP365	ltpFR2	14	13	PREACHER	1119	n/a	n/a	0	0	0
2697.92626953125	n/a	WORD	5525353	wordpools/wasnorm_wordpool_576.txt	LTP365	ltpFR2	14	13	DANCER	437	n/a	n/a	0	0	0
2700.63525390625	n/a	WORD	5530901	wordpools/wasnorm_wordpool_576.txt	LTP365	ltpFR2	14	13	COMET	353	n/a	n/a	0	0	0
2703.2431640625	n/a	WORD	5536242	wordpools/wasnorm_wordpool_576.txt	LTP365	ltpFR2	14	13	QUARTER	1148	n/a	n/a	0	0	0
2705.95166015625	n/a	WORD	5541789	wordpools/wasnorm_wordpool_576.txt	LTP365	ltpFR2	14	13	ZEBRA	1635	n/a	n/a	0	0	0
2708.59375	n/a	WORD	5547200	wordpools/wasnorm_wordpool_576.txt	LTP365	ltpFR2	14	13	CABBAGE	210	n/a	n/a	0	0	0
2711.03466796875	n/a	WORD	5552199	wordpools/wasnorm_wordpool_576.txt	LTP365	ltpFR2	14	13	CIGAR	308	n/a	n/a	0	0	0
2713.66064453125	n/a	WORD	5557577	wordpools/wasnorm_wordpool_576.txt	LTP365	ltpFR2	14	13	XEROX	1628	n/a	n/a	0	0	0
2716.41943359375	n/a	WORD	5563227	wordpools/wasnorm_wordpool_576.txt	LTP365	ltpFR2	14	13	BLUEPRINT	142	n/a	n/a	0	0	0
2719.21044921875	n/a	WORD	5568943	wordpools/wasnorm_wordpool_576.txt	LTP365	ltpFR2	14	13	HATCHET	691	n/a	n/a	0	0	0
2722.01953125	n/a	WORD	5574696	wordpools/wasnorm_wordpool_576.txt	LTP365	ltpFR2	14	13	RECORD	1176	n/a	n/a	0	0	0
2723.62646484375	n/a	START	5577987	n/a	LTP365	ltpFR2	14	n/a	n/a	n/a	17	n/a	n/a	n/a	n/a
2724.8203125	n/a	DISTRACTOR	5580432	n/a	LTP365	ltpFR2	14	13	n/a	n/a	n/a	n/a	0	0	0
2724.82958984375	n/a	PROB	5580451	n/a	LTP365	ltpFR2	14	n/a	n/a	n/a	17	21	6	7	8
2727.72216796875	n/a	PROB	5586375	n/a	LTP365	ltpFR2	14	n/a	n/a	n/a	17	18	9	5	4
2729.76220703125	n/a	PROB	5590553	n/a	LTP365	ltpFR2	14	n/a	n/a	n/a	17	15	4	8	3
2731.5341796875	n/a	PROB	5594182	n/a	LTP365	ltpFR2	14	n/a	n/a	n/a	17	22	5	8	9
2734.92822265625	n/a	PROB	5601133	n/a	LTP365	ltpFR2	14	n/a	n/a	n/a	17	18	6	7	5
2736.73388671875	n/a	PROB	5604831	n/a	LTP365	ltpFR2	14	n/a	n/a	n/a	17	14	7	4	3
2738.923828125	n/a	PROB	5609316	n/a	LTP365	ltpFR2	14	n/a	n/a	n/a	17	14	7	2	5
2740.44677734375	n/a	PROB	5612435	n/a	LTP365	ltpFR2	14	n/a	n/a	n/a	17	18	9	6	3
2741.9169921875	n/a	PROB	5615446	n/a	LTP365	ltpFR2	14	n/a	n/a	n/a	17	22	6	9	7
2745.6796875	n/a	PROB	5623152	n/a	LTP365	ltpFR2	14	n/a	n/a	n/a	17	6	2	2	2
2746.978515625	n/a	STOP	5625812	n/a	LTP365	ltpFR2	14	n/a	n/a	n/a	17	n/a	n/a	n/a	n/a
2749.54248046875	n/a	REC_START	5631063	n/a	LTP365	ltpFR2	14	13	n/a	n/a	n/a	n/a	0	0	0
2750.79443359375	n/a	REC_WORD	5633627	wordpools/wasnorm_wordpool_576.txt	LTP365	ltpFR2	14	13	HATCHET	691	n/a	n/a	0	0	0
2751.7236328125	n/a	REC_WORD	5635530	wordpools/wasnorm_wordpool_576.txt	LTP365	ltpFR2	14	13	XEROX	1628	n/a	n/a	0	0	0
2753.54833984375	n/a	REC_WORD	5639267	wordpools/wasnorm_wordpool_576.txt	LTP365	ltpFR2	14	13	WINDOW	1611	n/a	n/a	0	0	0
2754.55859375	n/a	REC_WORD	5641336	wordpools/wasnorm_wordpool_576.txt	LTP365	ltpFR2	14	13	KNAPSACK	783	n/a	n/a	0	0	0
2755.650390625	n/a	REC_WORD	5643572	wordpools/wasnorm_wordpool_576.txt	LTP365	ltpFR2	14	13	PREACHER	1119	n/a	n/a	0	0	0
2756.45654296875	n/a	REC_WORD	5645223	wordpools/wasnorm_wordpool_576.txt	LTP365	ltpFR2	14	13	CHAPEL	280	n/a	n/a	0	0	0
2757.3173828125	n/a	REC_WORD	5646986	wordpools/wasnorm_wordpool_576.txt	LTP365	ltpFR2	14	13	TEMPLE	1448	n/a	n/a	0	0	0
2758.060546875	n/a	REC_WORD	5648508	wordpools/wasnorm_wordpool_576.txt	LTP365	ltpFR2	14	13	CROSS	413	n/a	n/a	0	0	0
2760.6923828125	n/a	REC_WORD	5653898	wordpools/wasnorm_wordpool_576.txt	LTP365	ltpFR2	14	13	OUTLAW	989	n/a	n/a	0	0	0
2761.79150390625	n/a	REC_WORD	5656149	wordpools/wasnorm_wordpool_576.txt	LTP365	ltpFR2	14	13	DANCER	437	n/a	n/a	0	0	0
2767.78515625	n/a	REC_WORD	5668424	wordpools/wasnorm_wordpool_576.txt	LTP365	ltpFR2	14	13	PASSAGE	1019	n/a	n/a	0	0	0
2772.64306640625	n/a	REC_WORD	5678373	wordpools/wasnorm_wordpool_576.txt	LTP365	ltpFR2	14	13	POISON	1096	n/a	n/a	0	0	0
2807.375	n/a	REC_WORD	5749504	wordpools/wasnorm_wordpool_576.txt	LTP365	ltpFR2	14	13	PLAYGROUND	1087	n/a	n/a	0	0	0
2839.982421875	n/a	DISTRACTOR	5816284	n/a	LTP365	ltpFR2	14	14	n/a	n/a	n/a	n/a	0	0	0
2839.982421875	n/a	START	5816284	n/a	LTP365	ltpFR2	14	n/a	n/a	n/a	18	n/a	n/a	n/a	n/a
2839.998046875	n/a	PROB	5816316	n/a	LTP365	ltpFR2	14	n/a	n/a	n/a	18	13	2	7	4
2842.7080078125	n/a	PROB	5821866	n/a	LTP365	ltpFR2	14	n/a	n/a	n/a	18	15	9	2	4
2845.4169921875	n/a	PROB	5827414	n/a	LTP365	ltpFR2	14	n/a	n/a	n/a	18	14	1	8	5
2846.8212890625	n/a	PROB	5830290	n/a	LTP365	ltpFR2	14	n/a	n/a	n/a	18	9	2	1	6
2848.39306640625	n/a	PROB	5833509	n/a	LTP365	ltpFR2	14	n/a	n/a	n/a	18	14	6	7	1
2849.84814453125	n/a	PROB	5836489	n/a	LTP365	ltpFR2	14	n/a	n/a	n/a	18	18	1	9	8
2851.201171875	n/a	PROB	5839260	n/a	LTP365	ltpFR2	14	n/a	n/a	n/a	18	12	5	1	6
2852.43994140625	n/a	PROB	5841797	n/a	LTP365	ltpFR2	14	n/a	n/a	n/a	18	15	7	7	1
2853.56005859375	n/a	PROB	5844091	n/a	LTP365	ltpFR2	14	n/a	n/a	n/a	18	9	4	3	2
2856.0166015625	n/a	PROB	5849122	n/a	LTP365	ltpFR2	14	n/a	n/a	n/a	18	16	8	1	7
2857.40576171875	n/a	PROB	5851967	n/a	LTP365	ltpFR2	14	n/a	n/a	n/a	18	17	7	4	6
2858.8935546875	n/a	PROB	5855014	n/a	LTP365	ltpFR2	14	n/a	n/a	n/a	18	13	9	2	2
2860.33154296875	n/a	PROB	5857959	n/a	LTP365	ltpFR2	14	n/a	n/a	n/a	18	20	8	7	5
2862.06982421875	n/a	PROB	5861519	n/a	LTP365	ltpFR2	14	n/a	n/a	n/a	18	18	3	7	7
2863.75537109375	n/a	STOP	5864971	n/a	LTP365	ltpFR2	14	n/a	n/a	n/a	18	n/a	n/a	n/a	n/a
2865.0283203125	n/a	WORD	5867578	wordpools/wasnorm_wordpool_576.txt	LTP365	ltpFR2	14	14	HORSE	719	n/a	n/a	0	0	0
2867.67138671875	n/a	WORD	5872991	wordpools/wasnorm_wordpool_576.txt	LTP365	ltpFR2	14	14	PRINCE	1124	n/a	n/a	0	0	0
2870.48046875	n/a	WORD	5878744	wordpools/wasnorm_wordpool_576.txt	LTP365	ltpFR2	14	14	FIREMAN	569	n/a	n/a	0	0	0
2873.17138671875	n/a	WORD	5884255	wordpools/wasnorm_wordpool_576.txt	LTP365	ltpFR2	14	14	MATCH	878	n/a	n/a	0	0	0
2875.9814453125	n/a	WORD	5890010	wordpools/wasnorm_wordpool_576.txt	LTP365	ltpFR2	14	14	CHAUFFEUR	283	n/a	n/a	0	0	0
2878.607421875	n/a	WORD	5895388	wordpools/wasnorm_wordpool_576.txt	LTP365	ltpFR2	14	14	EAGLE	512	n/a	n/a	0	0	0
2881.26416015625	n/a	WORD	5900829	wordpools/wasnorm_wordpool_576.txt	LTP365	ltpFR2	14	14	GUITAR	670	n/a	n/a	0	0	0
2883.8740234375	n/a	WORD	5906174	wordpools/wasnorm_wordpool_576.txt	LTP365	ltpFR2	14	14	PAIL	1002	n/a	n/a	0	0	0
2886.3818359375	n/a	WORD	5911310	wordpools/wasnorm_wordpool_576.txt	LTP365	ltpFR2	14	14	PEDAL	1037	n/a	n/a	0	0	0
2889.18994140625	n/a	WORD	5917061	wordpools/wasnorm_wordpool_576.txt	LTP365	ltpFR2	14	14	BELLY	119	n/a	n/a	0	0	0
2891.849609375	n/a	WORD	5922508	wordpools/wasnorm_wordpool_576.txt	LTP365	ltpFR2	14	14	ULCER	1533	n/a	n/a	0	0	0
2894.60791015625	n/a	WORD	5928157	wordpools/wasnorm_wordpool_576.txt	LTP365	ltpFR2	14	14	DRESS	495	n/a	n/a	0	0	0
2897.30078125	n/a	WORD	5933672	wordpools/wasnorm_wordpool_576.txt	LTP365	ltpFR2	14	14	EGYPT	519	n/a	n/a	0	0	0
2899.7587890625	n/a	WORD	5938706	wordpools/wasnorm_wordpool_576.txt	LTP365	ltpFR2	14	14	PRIMATE	1123	n/a	n/a	0	0	0
2902.29931640625	n/a	WORD	5943909	wordpools/wasnorm_wordpool_576.txt	LTP365	ltpFR2	14	14	IGLOO	734	n/a	n/a	0	0	0
2904.75732421875	n/a	WORD	5948943	wordpools/wasnorm_wordpool_576.txt	LTP365	ltpFR2	14	14	BUG	187	n/a	n/a	0	0	0
2907.44921875	n/a	WORD	5954456	wordpools/wasnorm_wordpool_576.txt	LTP365	ltpFR2	14	14	PASTA	1021	n/a	n/a	0	0	0
2910.1572265625	n/a	WORD	5960002	wordpools/wasnorm_wordpool_576.txt	LTP365	ltpFR2	14	14	WARDROBE	1587	n/a	n/a	0	0	0
2912.59912109375	n/a	WORD	5965003	wordpools/wasnorm_wordpool_576.txt	LTP365	ltpFR2	14	14	STOMACH	1384	n/a	n/a	0	0	0
2915.0732421875	n/a	WORD	5970070	wordpools/wasnorm_wordpool_576.txt	LTP365	ltpFR2	14	14	JUNGLE	764	n/a	n/a	0	0	0
2917.498046875	n/a	WORD	5975036	wordpools/wasnorm_wordpool_576.txt	LTP365	ltpFR2	14	14	PEANUT	1032	n/a	n/a	0	0	0
2919.93896484375	n/a	WORD	5980035	wordpools/wasnorm_wordpool_576.txt	LTP365	ltpFR2	14	14	SOFTBALL	1343	n/a	n/a	0	0	0
2922.59814453125	n/a	WORD	5985481	wordpools/wasnorm_wordpool_576.txt	LTP365	ltpFR2	14	14	CRICKET	408	n/a	n/a	0	0	0
2925.2060546875	n/a	WORD	5990822	wordpools/wasnorm_wordpool_576.txt	LTP365	ltpFR2	14	14	DENIM	446	n/a	n/a	0	0	0
2926.81201171875	n/a	START	5994111	n/a	LTP365	ltpFR2	14	n/a	n/a	n/a	19	n/a	n/a	n/a	n/a
2927.9638671875	n/a	DISTRACTOR	5996470	n/a	LTP365	ltpFR2	14	14	n/a	n/a	n/a	n/a	0	0	0
2927.98095703125	n/a	PROB	5996505	n/a	LTP365	ltpFR2	14	n/a	n/a	n/a	19	17	6	4	7
2929.65380859375	n/a	PROB	5999931	n/a	LTP365	ltpFR2	14	n/a	n/a	n/a	19	11	3	6	2
2931.0576171875	n/a	PROB	6002806	n/a	LTP365	ltpFR2	14	n/a	n/a	n/a	19	19	6	9	4
2932.78076171875	n/a	PROB	6006335	n/a	LTP365	ltpFR2	14	n/a	n/a	n/a	19	16	6	8	2
2934.134765625	n/a	PROB	6009108	n/a	LTP365	ltpFR2	14	n/a	n/a	n/a	19	15	1	7	7
2935.271484375	n/a	PROB	6011436	n/a	LTP365	ltpFR2	14	n/a	n/a	n/a	19	19	5	5	9
2936.45947265625	n/a	PROB	6013869	n/a	LTP365	ltpFR2	14	n/a	n/a	n/a	19	18	8	5	5
2937.646484375	n/a	PROB	6016300	n/a	LTP365	ltpFR2	14	n/a	n/a	n/a	19	17	1	9	7
2938.91650390625	n/a	PROB	6018901	n/a	LTP365	ltpFR2	14	n/a	n/a	n/a	19	17	7	3	7
2940.5224609375	n/a	PROB	6022190	n/a	LTP365	ltpFR2	14	n/a	n/a	n/a	19	14	5	5	4
2941.6923828125	n/a	PROB	6024586	n/a	LTP365	ltpFR2	14	n/a	n/a	n/a	19	11	2	2	7
2943.3984375	n/a	PROB	6028080	n/a	LTP365	ltpFR2	14	n/a	n/a	n/a	19	14	4	7	3
2944.86962890625	n/a	PROB	6031093	n/a	LTP365	ltpFR2	14	n/a	n/a	n/a	19	11	4	1	6
2946.54150390625	n/a	PROB	6034517	n/a	LTP365	ltpFR2	14	n/a	n/a	n/a	19	16	5	2	9
2948.5810546875	n/a	PROB	6038694	n/a	LTP365	ltpFR2	14	n/a	n/a	n/a	19	8	1	3	4
2949.87646484375	n/a	STOP	6041347	n/a	LTP365	ltpFR2	14	n/a	n/a	n/a	19	n/a	n/a	n/a	n/a
2952.578125	n/a	REC_START	6046880	n/a	LTP365	ltpFR2	14	14	n/a	n/a	n/a	n/a	0	0	0
2953.76611328125	n/a	REC_WORD	6049313	wordpools/wasnorm_wordpool_576.txt	LTP365	ltpFR2	14	14	HORSE	719	n/a	n/a	0	0	0
2955.81689453125	n/a	REC_WORD	6053513	wordpools/wasnorm_wordpool_576.txt	LTP365	ltpFR2	14	14	PRIMATE	1123	n/a	n/a	0	0	0
2960.39111328125	n/a	REC_WORD	6062881	wordpools/wasnorm_wordpool_576.txt	LTP365	ltpFR2	14	14	FIREMAN	569	n/a	n/a	0	0	0
2963.501953125	n/a	REC_WORD	6069252	wordpools/wasnorm_wordpool_576.txt	LTP365	ltpFR2	14	14	MATCH	878	n/a	n/a	0	0	0
2968.20556640625	n/a	REC_WORD	6078885	wordpools/wasnorm_wordpool_576.txt	LTP365	ltpFR2	14	14	WRIST	1626	n/a	n/a	0	0	0
2974.58837890625	n/a	REC_WORD	6091957	wordpools/wasnorm_wordpool_576.txt	LTP365	ltpFR2	14	14	BUCKET	184	n/a	n/a	0	0	0
2975.39453125	n/a	REC_WORD	6093608	wordpools/wasnorm_wordpool_576.txt	LTP365	ltpFR2	14	14	GUITAR	670	n/a	n/a	0	0	0
2977.8515625	n/a	REC_WORD	6098640	wordpools/wasnorm_wordpool_576.txt	LTP365	ltpFR2	14	14	PAIL	1002	n/a	n/a	0	0	0
3043.0166015625	n/a	DISTRACTOR	6232098	n/a	LTP365	ltpFR2	14	15	n/a	n/a	n/a	n/a	0	0	0
3043.017578125	n/a	START	6232100	n/a	LTP365	ltpFR2	14	n/a	n/a	n/a	20	n/a	n/a	n/a	n/a
3043.03369140625	n/a	PROB	6232133	n/a	LTP365	ltpFR2	14	n/a	n/a	n/a	20	19	9	6	4
3044.37255859375	n/a	PROB	6234875	n/a	LTP365	ltpFR2	14	n/a	n/a	n/a	20	19	8	3	8
3046.177734375	n/a	PROB	6238572	n/a	LTP365	ltpFR2	14	n/a	n/a	n/a	20	13	5	1	7
3048.58642578125	n/a	PROB	6243505	n/a	LTP365	ltpFR2	14	n/a	n/a	n/a	20	10	7	1	2
3050.00634765625	n/a	PROB	6246413	n/a	LTP365	ltpFR2	14	n/a	n/a	n/a	20	17	5	4	8
3051.779296875	n/a	PROB	6250044	n/a	LTP365	ltpFR2	14	n/a	n/a	n/a	20	14	2	4	8
3053.2333984375	n/a	PROB	6253022	n/a	LTP365	ltpFR2	14	n/a	n/a	n/a	20	16	6	9	1
3054.404296875	n/a	PROB	6255420	n/a	LTP365	ltpFR2	14	n/a	n/a	n/a	20	15	9	2	4
3055.8935546875	n/a	PROB	6258470	n/a	LTP365	ltpFR2	14	n/a	n/a	n/a	20	10	2	5	3
3057.3974609375	n/a	PROB	6261550	n/a	LTP365	ltpFR2	14	n/a	n/a	n/a	20	18	5	8	5
3058.83544921875	n/a	PROB	6264495	n/a	LTP365	ltpFR2	14	n/a	n/a	n/a	20	14	5	4	5
3060.4912109375	n/a	PROB	6267886	n/a	LTP365	ltpFR2	14	n/a	n/a	n/a	20	18	3	7	8
3063.71826171875	n/a	PROB	6274495	n/a	LTP365	ltpFR2	14	n/a	n/a	n/a	20	7	2	2	3
3065.7080078125	n/a	STOP	6278570	n/a	LTP365	ltpFR2	14	n/a	n/a	n/a	20	n/a	n/a	n/a	n/a
3068.18115234375	n/a	WORD	6283635	wordpools/wasnorm_wordpool_576.txt	LTP365	ltpFR2	14	15	PENGUIN	1044	n/a	n/a	0	0	0
3070.9072265625	n/a	WORD	6289218	wordpools/wasnorm_wordpool_576.txt	LTP365	ltpFR2	14	15	CORAL	378	n/a	n/a	0	0	0
3073.5	n/a	WORD	6294528	wordpools/wasnorm_wordpool_576.txt	LTP365	ltpFR2	14	15	FIDDLE	561	n/a	n/a	0	0	0
3076.173828125	n/a	WORD	6300004	wordpools/wasnorm_wordpool_576.txt	LTP365	ltpFR2	14	15	ROOSTER	1209	n/a	n/a	0	0	0
3078.6328125	n/a	WORD	6305040	wordpools/wasnorm_wordpool_576.txt	LTP365	ltpFR2	14	15	JEANS	752	n/a	n/a	0	0	0
3081.18994140625	n/a	WORD	6310277	wordpools/wasnorm_wordpool_576.txt	LTP365	ltpFR2	14	15	ZIPPER	1636	n/a	n/a	0	0	0
3083.8984375	n/a	WORD	6315824	wordpools/wasnorm_wordpool_576.txt	LTP365	ltpFR2	14	15	TABLE	1426	n/a	n/a	0	0	0
3086.6416015625	n/a	WORD	6321442	wordpools/wasnorm_wordpool_576.txt	LTP365	ltpFR2	14	15	PIMPLE	1071	n/a	n/a	0	0	0
3089.45068359375	n/a	WORD	6327195	wordpools/wasnorm_wordpool_576.txt	LTP365	ltpFR2	14	15	HAWK	692	n/a	n/a	0	0	0
3092.0244140625	n/a	WORD	6332466	wordpools/wasnorm_wordpool_576.txt	LTP365	ltpFR2	14	15	RADISH	1158	n/a	n/a	0	0	0
3094.58447265625	n/a	WORD	6337709	wordpools/wasnorm_wordpool_576.txt	LTP365	ltpFR2	14	15	COUNTRY	388	n/a	n/a	0	0	0
3097.158203125	n/a	WORD	6342980	wordpools/wasnorm_wordpool_576.txt	LTP365	ltpFR2	14	15	GANGSTER	620	n/a	n/a	0	0	0
3099.5830078125	n/a	WORD	6347946	wordpools/wasnorm_wordpool_576.txt	LTP365	ltpFR2	14	15	SCARF	1246	n/a	n/a	0	0	0
3102.1240234375	n/a	WORD	6353150	wordpools/wasnorm_wordpool_576.txt	LTP365	ltpFR2	14	15	NOVEL	960	n/a	n/a	0	0	0
3104.89892578125	n/a	WORD	6358833	wordpools/wasnorm_wordpool_576.txt	LTP365	ltpFR2	14	15	COUSIN	392	n/a	n/a	0	0	0
3107.55908203125	n/a	WORD	6364281	wordpools/wasnorm_wordpool_576.txt	LTP365	ltpFR2	14	15	MASK	876	n/a	n/a	0	0	0
3110.048828125	n/a	WORD	6369380	wordpools/wasnorm_wordpool_576.txt	LTP365	ltpFR2	14	15	SUNRISE	1407	n/a	n/a	0	0	0
3112.8427734375	n/a	WORD	6375102	wordpools/wasnorm_wordpool_576.txt	LTP365	ltpFR2	14	15	ISLAND	745	n/a	n/a	0	0	0
3115.5009765625	n/a	WORD	6380546	wordpools/wasnorm_wordpool_576.txt	LTP365	ltpFR2	14	15	DRINK	498	n/a	n/a	0	0	0
3118.15869140625	n/a	WORD	6385989	wordpools/wasnorm_wordpool_576.txt	LTP365	ltpFR2	14	15	TYPIST	1532	n/a	n/a	0	0	0
3120.6845703125	n/a	WORD	6391162	wordpools/wasnorm_wordpool_576.txt	LTP365	ltpFR2	14	15	RUST	1219	n/a	n/a	0	0	0
3123.45947265625	n/a	WORD	6396845	wordpools/wasnorm_wordpool_576.txt	LTP365	ltpFR2	14	15	PISTON	1076	n/a	n/a	0	0	0
3125.96728515625	n/a	WORD	6401981	wordpools/wasnorm_wordpool_576.txt	LTP365	ltpFR2	14	15	HEDGE	699	n/a	n/a	0	0	0
3128.42529296875	n/a	WORD	6407015	wordpools/wasnorm_wordpool_576.txt	LTP365	ltpFR2	14	15	ICEBERG	731	n/a	n/a	0	0	0
3130.0302734375	n/a	START	6410302	n/a	LTP365	ltpFR2	14	n/a	n/a	n/a	21	n/a	n/a	n/a	n/a
3131.1572265625	n/a	DISTRACTOR	6412610	n/a	LTP365	ltpFR2	14	15	n/a	n/a	n/a	n/a	0	0	0
3131.16748046875	n/a	PROB	6412631	n/a	LTP365	ltpFR2	14	n/a	n/a	n/a	21	16	3	4	9
3133.240234375	n/a	PROB	6416876	n/a	LTP365	ltpFR2	14	n/a	n/a	n/a	21	18	5	9	4
3135.0791015625	n/a	PROB	6420642	n/a	LTP365	ltpFR2	14	n/a	n/a	n/a	21	17	4	6	7
3136.333984375	n/a	PROB	6423212	n/a	LTP365	ltpFR2	14	n/a	n/a	n/a	21	10	1	3	6
3138.60791015625	n/a	PROB	6427869	n/a	LTP365	ltpFR2	14	n/a	n/a	n/a	21	8	4	2	2
3140.044921875	n/a	PROB	6430812	n/a	LTP365	ltpFR2	14	n/a	n/a	n/a	21	21	7	9	5
3143.6748046875	n/a	PROB	6438246	n/a	LTP365	ltpFR2	14	n/a	n/a	n/a	21	18	5	7	6
3145.64794921875	n/a	PROB	6442287	n/a	LTP365	ltpFR2	14	n/a	n/a	n/a	21	13	2	2	9
3147.3701171875	n/a	PROB	6445814	n/a	LTP365	ltpFR2	14	n/a	n/a	n/a	21	10	6	1	3
3148.90673828125	n/a	PROB	6448961	n/a	LTP365	ltpFR2	14	n/a	n/a	n/a	21	23	7	7	9
3150.7978515625	n/a	PROB	6452834	n/a	LTP365	ltpFR2	14	n/a	n/a	n/a	21	11	2	5	4
3152.84375	n/a	STOP	6457024	n/a	LTP365	ltpFR2	14	n/a	n/a	n/a	21	n/a	n/a	n/a	n/a
3155.8818359375	n/a	REC_START	6463246	n/a	LTP365	ltpFR2	14	15	n/a	n/a	n/a	n/a	0	0	0
3182.39697265625	n/a	REC_WORD	6517549	wordpools/wasnorm_wordpool_576.txt	LTP365	ltpFR2	14	15	HAWK	692	n/a	n/a	0	0	0
3182.828125	n/a	REC_WORD	6518432	wordpools/wasnorm_wordpool_576.txt	LTP365	ltpFR2	14	15	FIDDLE	561	n/a	n/a	0	0	0
3183.60107421875	n/a	REC_WORD	6520015	wordpools/wasnorm_wordpool_576.txt	LTP365	ltpFR2	14	15	CONCERT	360	n/a	n/a	0	0	0
3185.61083984375	n/a	REC_WORD	6524131	wordpools/wasnorm_wordpool_576.txt	LTP365	ltpFR2	14	15	TABLE	1426	n/a	n/a	0	0	0
3186.59765625	n/a	REC_WORD	6526152	wordpools/wasnorm_wordpool_576.txt	LTP365	ltpFR2	14	15	DRINK	498	n/a	n/a	0	0	0
3190.23291015625	n/a	REC_WORD	6533597	wordpools/wasnorm_wordpool_576.txt	LTP365	ltpFR2	14	15	ISLAND	745	n/a	n/a	0	0	0
3193.302734375	n/a	REC_WORD	6539884	wordpools/wasnorm_wordpool_576.txt	LTP365	ltpFR2	14	15	SCARF	1246	n/a	n/a	0	0	0
3195.48876953125	n/a	REC_WORD	6544361	wordpools/wasnorm_wordpool_576.txt	LTP365	ltpFR2	14	15	GANGSTER	620	n/a	n/a	0	0	0
3200.28271484375	n/a	REC_WORD	6554179	wordpools/wasnorm_wordpool_576.txt	LTP365	ltpFR2	14	15	COUSIN	392	n/a	n/a	0	0	0
3201.24951171875	n/a	REC_WORD	6556159	wordpools/wasnorm_wordpool_576.txt	LTP365	ltpFR2	14	15	TYPIST	1532	n/a	n/a	0	0	0
3212.2861328125	n/a	REC_WORD	6578762	wordpools/wasnorm_wordpool_576.txt	LTP365	ltpFR2	14	15	ROOSTER	1209	n/a	n/a	0	0	0
3246.33837890625	n/a	DISTRACTOR	6648501	n/a	LTP365	ltpFR2	14	16	n/a	n/a	n/a	n/a	0	0	0
3246.33837890625	n/a	START	6648501	n/a	LTP365	ltpFR2	14	n/a	n/a	n/a	22	n/a	n/a	n/a	n/a
3246.35400390625	n/a	PROB	6648533	n/a	LTP365	ltpFR2	14	n/a	n/a	n/a	22	21	7	7	7
3247.75927734375	n/a	PROB	6651411	n/a	LTP365	ltpFR2	14	n/a	n/a	n/a	22	10	2	3	5
3249.14599609375	n/a	PROB	6654251	n/a	LTP365	ltpFR2	14	n/a	n/a	n/a	22	12	8	3	1
3250.55126953125	n/a	PROB	6657129	n/a	LTP365	ltpFR2	14	n/a	n/a	n/a	22	16	6	9	1
3254.01220703125	n/a	PROB	6664217	n/a	LTP365	ltpFR2	14	n/a	n/a	n/a	22	11	2	7	2
3255.26611328125	n/a	PROB	6666785	n/a	LTP365	ltpFR2	14	n/a	n/a	n/a	22	8	2	5	1
3256.837890625	n/a	PROB	6670004	n/a	LTP365	ltpFR2	14	n/a	n/a	n/a	22	10	3	1	6
3257.94091796875	n/a	PROB	6672263	n/a	LTP365	ltpFR2	14	n/a	n/a	n/a	22	9	4	4	1
3260.51708984375	n/a	PROB	6677539	n/a	LTP365	ltpFR2	14	n/a	n/a	n/a	22	10	2	2	6
3261.6708984375	n/a	PROB	6679902	n/a	LTP365	ltpFR2	14	n/a	n/a	n/a	22	21	8	5	8
3263.626953125	n/a	PROB	6683908	n/a	LTP365	ltpFR2	14	n/a	n/a	n/a	22	19	6	7	6
3267.79052734375	n/a	PROB	6692435	n/a	LTP365	ltpFR2	14	n/a	n/a	n/a	22	16	3	4	9
3269.0595703125	n/a	STOP	6695034	n/a	LTP365	ltpFR2	14	n/a	n/a	n/a	22	n/a	n/a	n/a	n/a
3271.384765625	n/a	WORD	6699796	wordpools/wasnorm_wordpool_576.txt	LTP365	ltpFR2	14	16	LADDER	793	n/a	n/a	0	0	0
3273.859375	n/a	WORD	6704864	wordpools/wasnorm_wordpool_576.txt	LTP365	ltpFR2	14	16	BANQUET	86	n/a	n/a	0	0	0
3276.61865234375	n/a	WORD	6710515	wordpools/wasnorm_wordpool_576.txt	LTP365	ltpFR2	14	16	SERVER	1272	n/a	n/a	0	0	0
3279.17529296875	n/a	WORD	6715751	wordpools/wasnorm_wordpool_576.txt	LTP365	ltpFR2	14	16	AIRPORT	13	n/a	n/a	0	0	0
3281.68408203125	n/a	WORD	6720889	wordpools/wasnorm_wordpool_576.txt	LTP365	ltpFR2	14	16	MARKET	871	n/a	n/a	0	0	0
3284.25927734375	n/a	WORD	6726163	wordpools/wasnorm_wordpool_576.txt	LTP365	ltpFR2	14	16	PLAZA	1088	n/a	n/a	0	0	0
3286.701171875	n/a	WORD	6731164	wordpools/wasnorm_wordpool_576.txt	LTP365	ltpFR2	14	16	AUTHOR	61	n/a	n/a	0	0	0
3289.29296875	n/a	WORD	6736472	wordpools/wasnorm_wordpool_576.txt	LTP365	ltpFR2	14	16	TWISTER	1530	n/a	n/a	0	0	0
3291.80078125	n/a	WORD	6741608	wordpools/wasnorm_wordpool_576.txt	LTP365	ltpFR2	14	16	STONE	1385	n/a	n/a	0	0	0
3294.42578125	n/a	WORD	6746984	wordpools/wasnorm_wordpool_576.txt	LTP365	ltpFR2	14	16	NOTEBOOK	959	n/a	n/a	0	0	0
3296.94970703125	n/a	WORD	6752153	wordpools/wasnorm_wordpool_576.txt	LTP365	ltpFR2	14	16	SHERIFF	1284	n/a	n/a	0	0	0
3299.7099609375	n/a	WORD	6757806	wordpools/wasnorm_wordpool_576.txt	LTP365	ltpFR2	14	16	CREATURE	403	n/a	n/a	0	0	0
3302.16552734375	n/a	WORD	6762835	wordpools/wasnorm_wordpool_576.txt	LTP365	ltpFR2	14	16	GOBLIN	645	n/a	n/a	0	0	0
3304.8427734375	n/a	WORD	6768318	wordpools/wasnorm_wordpool_576.txt	LTP365	ltpFR2	14	16	ARMY	39	n/a	n/a	0	0	0
3307.265625	n/a	WORD	6773280	wordpools/wasnorm_wordpool_576.txt	LTP365	ltpFR2	14	16	SPARROW	1347	n/a	n/a	0	0	0
3310.0244140625	n/a	WORD	6778930	wordpools/wasnorm_wordpool_576.txt	LTP365	ltpFR2	14	16	COOKBOOK	373	n/a	n/a	0	0	0
3312.533203125	n/a	WORD	6784068	wordpools/wasnorm_wordpool_576.txt	LTP365	ltpFR2	14	16	THIEF	1456	n/a	n/a	0	0	0
3315.275390625	n/a	WORD	6789684	wordpools/wasnorm_wordpool_576.txt	LTP365	ltpFR2	14	16	SERVANT	1271	n/a	n/a	0	0	0
3318.0673828125	n/a	WORD	6795402	wordpools/wasnorm_wordpool_576.txt	LTP365	ltpFR2	14	16	STATUE	1374	n/a	n/a	0	0	0
3320.6103515625	n/a	WORD	6800610	wordpools/wasnorm_wordpool_576.txt	LTP365	ltpFR2	14	16	LAMP	798	n/a	n/a	0	0	0
3323.3681640625	n/a	WORD	6806258	wordpools/wasnorm_wordpool_576.txt	LTP365	ltpFR2	14	16	SADDLE	1221	n/a	n/a	0	0	0
3326.1259765625	n/a	WORD	6811906	wordpools/wasnorm_wordpool_576.txt	LTP365	ltpFR2	14	16	APPLE	33	n/a	n/a	0	0	0
3328.5849609375	n/a	WORD	6816942	wordpools/wasnorm_wordpool_576.txt	LTP365	ltpFR2	14	16	POET	1095	n/a	n/a	0	0	0
3331.22607421875	n/a	WORD	6822351	wordpools/wasnorm_wordpool_576.txt	LTP365	ltpFR2	14	16	PILOT	1070	n/a	n/a	0	0	0
3332.8330078125	n/a	START	6825642	n/a	LTP365	ltpFR2	14	n/a	n/a	n/a	23	n/a	n/a	n/a	n/a
3333.8046875	n/a	DISTRACTOR	6827632	n/a	LTP365	ltpFR2	14	16	n/a	n/a	n/a	n/a	0	0	0
3333.81884765625	n/a	PROB	6827661	n/a	LTP365	ltpFR2	14	n/a	n/a	n/a	23	10	1	7	2
3335.3408203125	n/a	PROB	6830778	n/a	LTP365	ltpFR2	14	n/a	n/a	n/a	23	13	2	2	9
3336.76171875	n/a	PROB	6833688	n/a	LTP365	ltpFR2	14	n/a	n/a	n/a	23	18	4	8	6
3340.62353515625	n/a	PROB	6841597	n/a	LTP365	ltpFR2	14	n/a	n/a	n/a	23	15	1	9	5
3341.7275390625	n/a	PROB	6843858	n/a	LTP365	ltpFR2	14	n/a	n/a	n/a	23	10	1	7	2
3343.181640625	n/a	PROB	6846836	n/a	LTP365	ltpFR2	14	n/a	n/a	n/a	23	9	1	3	5
3345.82470703125	n/a	PROB	6852249	n/a	LTP365	ltpFR2	14	n/a	n/a	n/a	23	17	4	8	5
3347.9462890625	n/a	PROB	6856594	n/a	LTP365	ltpFR2	14	n/a	n/a	n/a	23	13	4	6	3
3349.41943359375	n/a	PROB	6859611	n/a	LTP365	ltpFR2	14	n/a	n/a	n/a	23	19	8	8	3
3350.9736328125	n/a	PROB	6862794	n/a	LTP365	ltpFR2	14	n/a	n/a	n/a	23	14	3	5	6
3352.66357421875	n/a	PROB	6866255	n/a	LTP365	ltpFR2	14	n/a	n/a	n/a	23	24	9	7	8
3356.05126953125	n/a	STOP	6873193	n/a	LTP365	ltpFR2	14	n/a	n/a	n/a	23	n/a	n/a	n/a	n/a
3358.76611328125	n/a	REC_START	6878753	n/a	LTP365	ltpFR2	14	16	n/a	n/a	n/a	n/a	0	0	0
3359.2763671875	n/a	REC_WORD	6879798	wordpools/wasnorm_wordpool_576.txt	LTP365	ltpFR2	14	16	POET	1095	n/a	n/a	0	0	0
3359.97314453125	n/a	REC_WORD	6881225	wordpools/wasnorm_wordpool_576.txt	LTP365	ltpFR2	14	16	AUTHOR	61	n/a	n/a	0	0	0
3360.67724609375	n/a	REC_WORD	6882667	wordpools/wasnorm_wordpool_576.txt	LTP365	ltpFR2	14	16	PLAZA	1088	n/a	n/a	0	0	0
3361.43994140625	n/a	REC_WORD	6884229	wordpools/wasnorm_wordpool_576.txt	LTP365	ltpFR2	14	16	MARKET	871	n/a	n/a	0	0	0
3362.2880859375	n/a	REC_WORD	6885966	wordpools/wasnorm_wordpool_576.txt	LTP365	ltpFR2	14	16	APPLE	33	n/a	n/a	0	0	0
3363.14892578125	n/a	REC_WORD	6887729	wordpools/wasnorm_wordpool_576.txt	LTP365	ltpFR2	14	16	NOTEBOOK	959	n/a	n/a	0	0	0
3363.88623046875	n/a	REC_WORD	6889239	wordpools/wasnorm_wordpool_576.txt	LTP365	ltpFR2	14	16	SHERIFF	1284	n/a	n/a	0	0	0
3367.68603515625	n/a	REC_WORD	6897021	wordpools/wasnorm_wordpool_576.txt	LTP365	ltpFR2	14	16	STONE	1385	n/a	n/a	0	0	0
3376.56591796875	n/a	REC_WORD	6915207	wordpools/wasnorm_wordpool_576.txt	LTP365	ltpFR2	14	16	AIRPORT	13	n/a	n/a	0	0	0
3381.009765625	n/a	REC_WORD	6924308	wordpools/wasnorm_wordpool_576.txt	LTP365	ltpFR2	14	16	LADDER	793	n/a	n/a	0	0	0
3381.90966796875	n/a	REC_WORD	6926151	wordpools/wasnorm_wordpool_576.txt	LTP365	ltpFR2	14	16	BANQUET	86	n/a	n/a	0	0	0
3389.17333984375	n/a	REC_WORD	6941027	wordpools/wasnorm_wordpool_576.txt	LTP365	ltpFR2	14	16	THIEF	1456	n/a	n/a	0	0	0
3390.017578125	n/a	REC_WORD	6942756	wordpools/wasnorm_wordpool_576.txt	LTP365	ltpFR2	14	16	STATUE	1374	n/a	n/a	0	0	0
3390.9462890625	n/a	REC_WORD	6944658	wordpools/wasnorm_wordpool_576.txt	LTP365	ltpFR2	14	16	LAMP	798	n/a	n/a	0	0	0
3402.26611328125	n/a	REC_WORD	6967841	wordpools/wasnorm_wordpool_576.txt	LTP365	ltpFR2	14	16	GOBLIN	645	n/a	n/a	0	0	0
3403.18994140625	n/a	REC_WORD	6969733	wordpools/wasnorm_wordpool_576.txt	LTP365	ltpFR2	14	16	CREATURE	403	n/a	n/a	0	0	0
3435.294921875	n/a	REST_REWET	7035484	n/a	LTP365	ltpFR2	14	16	n/a	n/a	n/a	n/a	0	0	0
3518.4287109375	n/a	WORD	7205742	wordpools/wasnorm_wordpool_576.txt	LTP365	ltpFR2	14	17	PISTOL	1075	n/a	n/a	0	0	0
3521.10302734375	n/a	WORD	7211219	wordpools/wasnorm_wordpool_576.txt	LTP365	ltpFR2	14	17	GREASE	660	n/a	n/a	0	0	0
3523.74560546875	n/a	WORD	7216631	wordpools/wasnorm_wordpool_576.txt	LTP365	ltpFR2	14	17	WIFE	1609	n/a	n/a	0	0	0
3526.185546875	n/a	WORD	7221628	wordpools/wasnorm_wordpool_576.txt	LTP365	ltpFR2	14	17	FRIAR	605	n/a	n/a	0	0	0
3528.927734375	n/a	WORD	7227244	wordpools/wasnorm_wordpool_576.txt	LTP365	ltpFR2	14	17	VALVE	1546	n/a	n/a	0	0	0
3531.6875	n/a	WORD	7232896	wordpools/wasnorm_wordpool_576.txt	LTP365	ltpFR2	14	17	LILY	821	n/a	n/a	0	0	0
3534.24462890625	n/a	WORD	7238133	wordpools/wasnorm_wordpool_576.txt	LTP365	ltpFR2	14	17	PERFUME	1049	n/a	n/a	0	0	0
3536.83740234375	n/a	WORD	7243443	wordpools/wasnorm_wordpool_576.txt	LTP365	ltpFR2	14	17	OINTMENT	974	n/a	n/a	0	0	0
3539.4794921875	n/a	WORD	7248854	wordpools/wasnorm_wordpool_576.txt	LTP365	ltpFR2	14	17	ROBIN	1199	n/a	n/a	0	0	0
3542.05322265625	n/a	WORD	7254125	wordpools/wasnorm_wordpool_576.txt	LTP365	ltpFR2	14	17	HEADBAND	696	n/a	n/a	0	0	0
3544.54638671875	n/a	WORD	7259231	wordpools/wasnorm_wordpool_576.txt	LTP365	ltpFR2	14	17	ROD	1203	n/a	n/a	0	0	0
3547.337890625	n/a	WORD	7264948	wordpools/wasnorm_wordpool_576.txt	LTP365	ltpFR2	14	17	GYMNAST	675	n/a	n/a	0	0	0
3549.92919921875	n/a	WORD	7270255	wordpools/wasnorm_wordpool_576.txt	LTP365	ltpFR2	14	17	PATROL	1027	n/a	n/a	0	0	0
3552.55517578125	n/a	WORD	7275633	wordpools/wasnorm_wordpool_576.txt	LTP365	ltpFR2	14	17	POLICE	1098	n/a	n/a	0	0	0
3555.26171875	n/a	WORD	7281176	wordpools/wasnorm_wordpool_576.txt	LTP365	ltpFR2	14	17	CHURCH	307	n/a	n/a	0	0	0
3557.93798828125	n/a	WORD	7286657	wordpools/wasnorm_wordpool_576.txt	LTP365	ltpFR2	14	17	ROBBER	1197	n/a	n/a	0	0	0
3560.64794921875	n/a	WORD	7292207	wordpools/wasnorm_wordpool_576.txt	LTP365	ltpFR2	14	17	CANDY	230	n/a	n/a	0	0	0
3563.2548828125	n/a	WORD	7297546	wordpools/wasnorm_wordpool_576.txt	LTP365	ltpFR2	14	17	STICKER	1382	n/a	n/a	0	0	0
3565.69677734375	n/a	WORD	7302547	wordpools/wasnorm_wordpool_576.txt	LTP365	ltpFR2	14	17	SPONGE	1355	n/a	n/a	0	0	0
3568.12060546875	n/a	WORD	7307511	wordpools/wasnorm_wordpool_576.txt	LTP365	ltpFR2	14	17	MARSH	874	n/a	n/a	0	0	0
3570.6123046875	n/a	WORD	7312614	wordpools/wasnorm_wordpool_576.txt	LTP365	ltpFR2	14	17	LIGHTNING	820	n/a	n/a	0	0	0
3573.2705078125	n/a	WORD	7318058	wordpools/wasnorm_wordpool_576.txt	LTP365	ltpFR2	14	17	BACON	67	n/a	n/a	0	0	0
3576.01220703125	n/a	WORD	7323673	wordpools/wasnorm_wordpool_576.txt	LTP365	ltpFR2	14	17	DRUG	501	n/a	n/a	0	0	0
3578.6884765625	n/a	WORD	7329154	wordpools/wasnorm_wordpool_576.txt	LTP365	ltpFR2	14	17	DANDRUFF	439	n/a	n/a	0	0	0
3580.29443359375	n/a	START	7332443	n/a	LTP365	ltpFR2	14	n/a	n/a	n/a	24	n/a	n/a	n/a	n/a
3581.4921875	n/a	DISTRACTOR	7334896	n/a	LTP365	ltpFR2	14	17	n/a	n/a	n/a	n/a	0	0	0
3581.4970703125	n/a	PROB	7334906	n/a	LTP365	ltpFR2	14	n/a	n/a	n/a	24	21	4	9	8
3585.0908203125	n/a	PROB	7342266	n/a	LTP365	ltpFR2	14	n/a	n/a	n/a	24	10	2	7	1
3586.748046875	n/a	PROB	7345660	n/a	LTP365	ltpFR2	14	n/a	n/a	n/a	24	11	1	7	3
3587.89990234375	n/a	PROB	7348019	n/a	LTP365	ltpFR2	14	n/a	n/a	n/a	24	10	2	7	1
3589.47314453125	n/a	PROB	7351241	n/a	LTP365	ltpFR2	14	n/a	n/a	n/a	24	15	9	3	3
3591.07666015625	n/a	PROB	7354525	n/a	LTP365	ltpFR2	14	n/a	n/a	n/a	24	24	9	9	6
3592.85107421875	n/a	PROB	7358159	n/a	LTP365	ltpFR2	14	n/a	n/a	n/a	24	15	2	8	5
3594.58984375	n/a	PROB	7361720	n/a	LTP365	ltpFR2	14	n/a	n/a	n/a	24	9	5	3	1
3596.02685546875	n/a	PROB	7364663	n/a	LTP365	ltpFR2	14	n/a	n/a	n/a	24	17	1	7	9
3597.49853515625	n/a	PROB	7367677	n/a	LTP365	ltpFR2	14	n/a	n/a	n/a	24	14	3	5	6
3599.20361328125	n/a	PROB	7371169	n/a	LTP365	ltpFR2	14	n/a	n/a	n/a	24	11	2	2	7
3600.40869140625	n/a	PROB	7373637	n/a	LTP365	ltpFR2	14	n/a	n/a	n/a	24	7	2	1	4
