onset	duration	trial_type	sample	stim_file	subject	experiment	session	trial	task	item_name	item_num	recog_conf	resp	answer	test_x	test_y	test_z	color_b	color_g	color_r	case	font
242.668	n/a	SESS_START	121334	n/a	LTP125	ltpFR	12	n/a	n/a	n/a	n/a	5	n/a	n/a	0	0	0	n/a	n/a	n/a	n/a	n/a
272.664	n/a	START	136332	n/a	LTP125	ltpFR	12	n/a	n/a	n/a	n/a	n/a	n/a	n/a	n/a	n/a	n/a	n/a	n/a	n/a	n/a	n/a
272.69	n/a	PROB	136345	n/a	LTP125	ltpFR	12	n/a	n/a	n/a	n/a	n/a	n/a	21	9	6	6	n/a	n/a	n/a	n/a	n/a
274.47	n/a	PROB	137235	n/a	LTP125	ltpFR	12	n/a	n/a	n/a	n/a	n/a	n/a	21	3	9	9	n/a	n/a	n/a	n/a	n/a
276.078	n/a	PROB	138039	n/a	LTP125	ltpFR	12	n/a	n/a	n/a	n/a	n/a	n/a	15	5	5	5	n/a	n/a	n/a	n/a	n/a
277.384	n/a	PROB	138692	n/a	LTP125	ltpFR	12	n/a	n/a	n/a	n/a	n/a	n/a	13	7	2	4	n/a	n/a	n/a	n/a	n/a
280.048	n/a	PROB	140024	n/a	LTP125	ltpFR	12	n/a	n/a	n/a	n/a	n/a	n/a	16	6	1	9	n/a	n/a	n/a	n/a	n/a
281.312	n/a	PROB	140656	n/a	LTP125	ltpFR	12	n/a	n/a	n/a	n/a	n/a	n/a	20	9	8	3	n/a	n/a	n/a	n/a	n/a
283.054	n/a	PROB	141527	n/a	LTP125	ltpFR	12	n/a	n/a	n/a	n/a	n/a	n/a	20	9	3	8	n/a	n/a	n/a	n/a	n/a
284.61	n/a	PROB	142305	n/a	LTP125	ltpFR	12	n/a	n/a	n/a	n/a	n/a	n/a	22	6	9	7	n/a	n/a	n/a	n/a	n/a
286.448	n/a	PROB	143224	n/a	LTP125	ltpFR	12	n/a	n/a	n/a	n/a	n/a	n/a	15	8	3	4	n/a	n/a	n/a	n/a	n/a
287.73	n/a	PROB	143865	n/a	LTP125	ltpFR	12	n/a	n/a	n/a	n/a	n/a	n/a	15	2	7	6	n/a	n/a	n/a	n/a	n/a
288.946	n/a	PROB	144473	n/a	LTP125	ltpFR	12	n/a	n/a	n/a	n/a	n/a	n/a	12	3	3	6	n/a	n/a	n/a	n/a	n/a
290.228	n/a	PROB	145114	n/a	LTP125	ltpFR	12	n/a	n/a	n/a	n/a	n/a	n/a	7	2	3	3	n/a	n/a	n/a	n/a	n/a
291.612	n/a	STOP	145806	n/a	LTP125	ltpFR	12	n/a	n/a	n/a	n/a	n/a	n/a	n/a	n/a	n/a	n/a	n/a	n/a	n/a	n/a	n/a
311.238	n/a	START	155619	n/a	LTP125	ltpFR	12	n/a	n/a	n/a	n/a	n/a	n/a	n/a	n/a	n/a	n/a	n/a	n/a	n/a	n/a	n/a
312.744	n/a	PROB	156372	n/a	LTP125	ltpFR	12	n/a	n/a	n/a	n/a	n/a	n/a	15	5	7	3	n/a	n/a	n/a	n/a	n/a
314.7	n/a	PROB	157350	n/a	LTP125	ltpFR	12	n/a	n/a	n/a	n/a	n/a	n/a	8	6	1	1	n/a	n/a	n/a	n/a	n/a
315.898	n/a	PROB	157949	n/a	LTP125	ltpFR	12	n/a	n/a	n/a	n/a	n/a	n/a	18	8	7	3	n/a	n/a	n/a	n/a	n/a
316.914	n/a	PROB	158457	n/a	LTP125	ltpFR	12	n/a	n/a	n/a	n/a	n/a	n/a	14	8	5	1	n/a	n/a	n/a	n/a	n/a
318.26	n/a	STOP	159130	n/a	LTP125	ltpFR	12	n/a	n/a	n/a	n/a	n/a	n/a	n/a	n/a	n/a	n/a	n/a	n/a	n/a	n/a	n/a
320.31	n/a	WORD	160155	wordpools/wasnorm_wordpool.txt	LTP125	ltpFR	12	1	0	NEPHEW	942	n/a	1	n/a	0	0	0	0	0.5869140625	0.422607421875	lower	../fonts/amplitud.ttf
323.314	n/a	START	161657	n/a	LTP125	ltpFR	12	n/a	n/a	n/a	n/a	n/a	n/a	n/a	n/a	n/a	n/a	n/a	n/a	n/a	n/a	n/a
324.214	n/a	PROB	162107	n/a	LTP125	ltpFR	12	n/a	n/a	n/a	n/a	n/a	n/a	17	9	1	7	n/a	n/a	n/a	n/a	n/a
325.486	n/a	PROB	162743	n/a	LTP125	ltpFR	12	n/a	n/a	n/a	n/a	n/a	n/a	13	6	2	3	n/a	n/a	n/a	n/a	n/a
326.736	n/a	PROB	163368	n/a	LTP125	ltpFR	12	n/a	n/a	n/a	n/a	n/a	n/a	15	7	5	3	n/a	n/a	n/a	n/a	n/a
328.06	n/a	PROB	164030	n/a	LTP125	ltpFR	12	n/a	n/a	n/a	n/a	n/a	n/a	14	4	1	9	n/a	n/a	n/a	n/a	n/a
329.042	n/a	PROB	164521	n/a	LTP125	ltpFR	12	n/a	n/a	n/a	n/a	n/a	n/a	19	4	5	9	n/a	n/a	n/a	n/a	n/a
330.364	n/a	STOP	165182	n/a	LTP125	ltpFR	12	n/a	n/a	n/a	n/a	n/a	n/a	n/a	n/a	n/a	n/a	n/a	n/a	n/a	n/a	n/a
332.354	n/a	WORD	166177	wordpools/wasnorm_wordpool.txt	LTP125	ltpFR	12	1	0	ROOSTER	1209	n/a	1	n/a	0	0	0	0	0.5869140625	0.422607421875	lower	../fonts/amplitud.ttf
335.36	n/a	START	167680	n/a	LTP125	ltpFR	12	n/a	n/a	n/a	n/a	n/a	n/a	n/a	n/a	n/a	n/a	n/a	n/a	n/a	n/a	n/a
336.376	n/a	PROB	168188	n/a	LTP125	ltpFR	12	n/a	n/a	n/a	n/a	n/a	n/a	15	8	6	1	n/a	n/a	n/a	n/a	n/a
337.566	n/a	PROB	168783	n/a	LTP125	ltpFR	12	n/a	n/a	n/a	n/a	n/a	n/a	7	2	4	1	n/a	n/a	n/a	n/a	n/a
338.924	n/a	PROB	169462	n/a	LTP125	ltpFR	12	n/a	n/a	n/a	n/a	n/a	n/a	16	3	8	5	n/a	n/a	n/a	n/a	n/a
340.22	n/a	PROB	170110	n/a	LTP125	ltpFR	12	n/a	n/a	n/a	n/a	n/a	n/a	18	9	3	6	n/a	n/a	n/a	n/a	n/a
341.536	n/a	PROB	170768	n/a	LTP125	ltpFR	12	n/a	n/a	n/a	n/a	n/a	n/a	16	7	6	3	n/a	n/a	n/a	n/a	n/a
342.934	n/a	STOP	171467	n/a	LTP125	ltpFR	12	n/a	n/a	n/a	n/a	n/a	n/a	n/a	n/a	n/a	n/a	n/a	n/a	n/a	n/a	n/a
344.532	n/a	WORD	172266	wordpools/wasnorm_wordpool.txt	LTP125	ltpFR	12	1	0	YOLK	1633	n/a	0	n/a	0	0	0	0	0.5869140625	0.422607421875	lower	../fonts/amplitud.ttf
347.538	n/a	START	173769	n/a	LTP125	ltpFR	12	n/a	n/a	n/a	n/a	n/a	n/a	n/a	n/a	n/a	n/a	n/a	n/a	n/a	n/a	n/a
348.42	n/a	PROB	174210	n/a	LTP125	ltpFR	12	n/a	n/a	n/a	n/a	n/a	n/a	13	5	3	5	n/a	n/a	n/a	n/a	n/a
349.976	n/a	PROB	174988	n/a	LTP125	ltpFR	12	n/a	n/a	n/a	n/a	n/a	n/a	19	6	9	4	n/a	n/a	n/a	n/a	n/a
351.782	n/a	PROB	175891	n/a	LTP125	ltpFR	12	n/a	n/a	n/a	n/a	n/a	n/a	16	1	8	7	n/a	n/a	n/a	n/a	n/a
353.048	n/a	PROB	176524	n/a	LTP125	ltpFR	12	n/a	n/a	n/a	n/a	n/a	n/a	13	5	1	7	n/a	n/a	n/a	n/a	n/a
354.244	n/a	STOP	177122	n/a	LTP125	ltpFR	12	n/a	n/a	n/a	n/a	n/a	n/a	n/a	n/a	n/a	n/a	n/a	n/a	n/a	n/a	n/a
356.66	n/a	WORD	178330	wordpools/wasnorm_wordpool.txt	LTP125	ltpFR	12	1	0	TOWER	1490	n/a	1	n/a	0	0	0	0	0.5869140625	0.422607421875	lower	../fonts/amplitud.ttf
359.666	n/a	START	179833	n/a	LTP125	ltpFR	12	n/a	n/a	n/a	n/a	n/a	n/a	n/a	n/a	n/a	n/a	n/a	n/a	n/a	n/a	n/a
360.806	n/a	PROB	180403	n/a	LTP125	ltpFR	12	n/a	n/a	n/a	n/a	n/a	n/a	11	4	3	4	n/a	n/a	n/a	n/a	n/a
362.304	n/a	PROB	181152	n/a	LTP125	ltpFR	12	n/a	n/a	n/a	n/a	n/a	n/a	10	2	7	1	n/a	n/a	n/a	n/a	n/a
363.828	n/a	PROB	181914	n/a	LTP125	ltpFR	12	n/a	n/a	n/a	n/a	n/a	n/a	14	8	5	1	n/a	n/a	n/a	n/a	n/a
365.35	n/a	PROB	182675	n/a	LTP125	ltpFR	12	n/a	n/a	n/a	n/a	n/a	n/a	11	5	5	1	n/a	n/a	n/a	n/a	n/a
366.34	n/a	STOP	183170	n/a	LTP125	ltpFR	12	n/a	n/a	n/a	n/a	n/a	n/a	n/a	n/a	n/a	n/a	n/a	n/a	n/a	n/a	n/a
368.78	n/a	WORD	184390	wordpools/wasnorm_wordpool.txt	LTP125	ltpFR	12	1	0	CARPENTER	246	n/a	1	n/a	0	0	0	0	0.5869140625	0.422607421875	lower	../fonts/amplitud.ttf
371.784	n/a	START	185892	n/a	LTP125	ltpFR	12	n/a	n/a	n/a	n/a	n/a	n/a	n/a	n/a	n/a	n/a	n/a	n/a	n/a	n/a	n/a
372.916	n/a	PROB	186458	n/a	LTP125	ltpFR	12	n/a	n/a	n/a	n/a	n/a	n/a	20	9	7	4	n/a	n/a	n/a	n/a	n/a
374.664	n/a	PROB	187332	n/a	LTP125	ltpFR	12	n/a	n/a	n/a	n/a	n/a	n/a	7	5	1	1	n/a	n/a	n/a	n/a	n/a
375.754	n/a	PROB	187877	n/a	LTP125	ltpFR	12	n/a	n/a	n/a	n/a	n/a	n/a	14	3	9	2	n/a	n/a	n/a	n/a	n/a
377.146	n/a	PROB	188573	n/a	LTP125	ltpFR	12	n/a	n/a	n/a	n/a	n/a	n/a	11	6	2	3	n/a	n/a	n/a	n/a	n/a
378.372	n/a	STOP	189186	n/a	LTP125	ltpFR	12	n/a	n/a	n/a	n/a	n/a	n/a	n/a	n/a	n/a	n/a	n/a	n/a	n/a	n/a	n/a
380.706	n/a	WORD	190353	wordpools/wasnorm_wordpool.txt	LTP125	ltpFR	12	1	0	ACORN	3	n/a	0	n/a	0	0	0	0	0.5869140625	0.422607421875	lower	../fonts/amplitud.ttf
383.712	n/a	START	191856	n/a	LTP125	ltpFR	12	n/a	n/a	n/a	n/a	n/a	n/a	n/a	n/a	n/a	n/a	n/a	n/a	n/a	n/a	n/a
384.752	n/a	PROB	192376	n/a	LTP125	ltpFR	12	n/a	n/a	n/a	n/a	n/a	n/a	12	4	4	4	n/a	n/a	n/a	n/a	n/a
386.192	n/a	PROB	193096	n/a	LTP125	ltpFR	12	n/a	n/a	n/a	n/a	n/a	n/a	21	5	9	7	n/a	n/a	n/a	n/a	n/a
387.616	n/a	PROB	193808	n/a	LTP125	ltpFR	12	n/a	n/a	n/a	n/a	n/a	n/a	12	4	2	6	n/a	n/a	n/a	n/a	n/a
389.504	n/a	PROB	194752	n/a	LTP125	ltpFR	12	n/a	n/a	n/a	n/a	n/a	n/a	13	6	2	7	n/a	n/a	n/a	n/a	n/a
390.95	n/a	STOP	195475	n/a	LTP125	ltpFR	12	n/a	n/a	n/a	n/a	n/a	n/a	n/a	n/a	n/a	n/a	n/a	n/a	n/a	n/a	n/a
392.594	n/a	WORD	196297	wordpools/wasnorm_wordpool.txt	LTP125	ltpFR	12	1	0	TOOL	1480	n/a	0	n/a	0	0	0	0	0.5869140625	0.422607421875	lower	../fonts/amplitud.ttf
395.598	n/a	START	197799	n/a	LTP125	ltpFR	12	n/a	n/a	n/a	n/a	n/a	n/a	n/a	n/a	n/a	n/a	n/a	n/a	n/a	n/a	n/a
396.68	n/a	PROB	198340	n/a	LTP125	ltpFR	12	n/a	n/a	n/a	n/a	n/a	n/a	14	2	5	7	n/a	n/a	n/a	n/a	n/a
397.872	n/a	PROB	198936	n/a	LTP125	ltpFR	12	n/a	n/a	n/a	n/a	n/a	n/a	22	7	9	6	n/a	n/a	n/a	n/a	n/a
400.16	n/a	PROB	200080	n/a	LTP125	ltpFR	12	n/a	n/a	n/a	n/a	n/a	n/a	12	8	2	2	n/a	n/a	n/a	n/a	n/a
403.598	n/a	STOP	201799	n/a	LTP125	ltpFR	12	n/a	n/a	n/a	n/a	n/a	n/a	n/a	n/a	n/a	n/a	n/a	n/a	n/a	n/a	n/a
404.62	n/a	WORD	202310	wordpools/wasnorm_wordpool.txt	LTP125	ltpFR	12	1	0	WAVE	1596	n/a	1	n/a	0	0	0	0	0.5869140625	0.422607421875	lower	../fonts/amplitud.ttf
407.626	n/a	START	203813	n/a	LTP125	ltpFR	12	n/a	n/a	n/a	n/a	n/a	n/a	n/a	n/a	n/a	n/a	n/a	n/a	n/a	n/a	n/a
408.75	n/a	PROB	204375	n/a	LTP125	ltpFR	12	n/a	n/a	n/a	n/a	n/a	n/a	8	1	3	4	n/a	n/a	n/a	n/a	n/a
409.892	n/a	PROB	204946	n/a	LTP125	ltpFR	12	n/a	n/a	n/a	n/a	n/a	n/a	17	8	3	6	n/a	n/a	n/a	n/a	n/a
412.23	n/a	PROB	206115	n/a	LTP125	ltpFR	12	n/a	n/a	n/a	n/a	n/a	n/a	16	5	4	9	n/a	n/a	n/a	n/a	n/a
414.174	n/a	STOP	207087	n/a	LTP125	ltpFR	12	n/a	n/a	n/a	n/a	n/a	n/a	n/a	n/a	n/a	n/a	n/a	n/a	n/a	n/a	n/a
416.458	n/a	WORD	208229	wordpools/wasnorm_wordpool.txt	LTP125	ltpFR	12	1	0	PLIERS	1089	n/a	0	n/a	0	0	0	0	0.5869140625	0.422607421875	lower	../fonts/amplitud.ttf
419.464	n/a	START	209732	n/a	LTP125	ltpFR	12	n/a	n/a	n/a	n/a	n/a	n/a	n/a	n/a	n/a	n/a	n/a	n/a	n/a	n/a	n/a
420.362	n/a	PROB	210181	n/a	LTP125	ltpFR	12	n/a	n/a	n/a	n/a	n/a	n/a	16	6	4	6	n/a	n/a	n/a	n/a	n/a
421.71	n/a	PROB	210855	n/a	LTP125	ltpFR	12	n/a	n/a	n/a	n/a	n/a	n/a	19	8	2	9	n/a	n/a	n/a	n/a	n/a
423.484	n/a	PROB	211742	n/a	LTP125	ltpFR	12	n/a	n/a	n/a	n/a	n/a	n/a	22	9	7	7	n/a	n/a	n/a	n/a	n/a
425.298	n/a	PROB	212649	n/a	LTP125	ltpFR	12	n/a	n/a	n/a	n/a	n/a	n/a	16	4	8	4	n/a	n/a	n/a	n/a	n/a
427.006	n/a	STOP	213503	n/a	LTP125	ltpFR	12	n/a	n/a	n/a	n/a	n/a	n/a	n/a	n/a	n/a	n/a	n/a	n/a	n/a	n/a	n/a
428.336	n/a	WORD	214168	wordpools/wasnorm_wordpool.txt	LTP125	ltpFR	12	1	0	SIGNATURE	1306	n/a	0	n/a	0	0	0	0	0.5869140625	0.422607421875	lower	../fonts/amplitud.ttf
431.342	n/a	START	215671	n/a	LTP125	ltpFR	12	n/a	n/a	n/a	n/a	n/a	n/a	n/a	n/a	n/a	n/a	n/a	n/a	n/a	n/a	n/a
432.44	n/a	PROB	216220	n/a	LTP125	ltpFR	12	n/a	n/a	n/a	n/a	n/a	n/a	14	1	4	9	n/a	n/a	n/a	n/a	n/a
433.496	n/a	PROB	216748	n/a	LTP125	ltpFR	12	n/a	n/a	n/a	n/a	n/a	n/a	9	3	5	1	n/a	n/a	n/a	n/a	n/a
435.054	n/a	PROB	217527	n/a	LTP125	ltpFR	12	n/a	n/a	n/a	n/a	n/a	n/a	22	7	7	8	n/a	n/a	n/a	n/a	n/a
436.886	n/a	PROB	218443	n/a	LTP125	ltpFR	12	n/a	n/a	n/a	n/a	n/a	n/a	21	8	8	5	n/a	n/a	n/a	n/a	n/a
438.126	n/a	STOP	219063	n/a	LTP125	ltpFR	12	n/a	n/a	n/a	n/a	n/a	n/a	n/a	n/a	n/a	n/a	n/a	n/a	n/a	n/a	n/a
440.272	n/a	WORD	220136	wordpools/wasnorm_wordpool.txt	LTP125	ltpFR	12	1	0	AUNT	60	n/a	1	n/a	0	0	0	0	0.5869140625	0.422607421875	lower	../fonts/amplitud.ttf
443.278	n/a	START	221639	n/a	LTP125	ltpFR	12	n/a	n/a	n/a	n/a	n/a	n/a	n/a	n/a	n/a	n/a	n/a	n/a	n/a	n/a	n/a
444.11	n/a	PROB	222055	n/a	LTP125	ltpFR	12	n/a	n/a	n/a	n/a	n/a	n/a	20	8	5	7	n/a	n/a	n/a	n/a	n/a
445.332	n/a	PROB	222666	n/a	LTP125	ltpFR	12	n/a	n/a	n/a	n/a	n/a	n/a	16	2	6	8	n/a	n/a	n/a	n/a	n/a
446.674	n/a	PROB	223337	n/a	LTP125	ltpFR	12	n/a	n/a	n/a	n/a	n/a	n/a	11	2	5	4	n/a	n/a	n/a	n/a	n/a
447.806	n/a	PROB	223903	n/a	LTP125	ltpFR	12	n/a	n/a	n/a	n/a	n/a	n/a	10	4	5	1	n/a	n/a	n/a	n/a	n/a
448.988	n/a	PROB	224494	n/a	LTP125	ltpFR	12	n/a	n/a	n/a	n/a	n/a	n/a	13	3	1	9	n/a	n/a	n/a	n/a	n/a
450.022	n/a	STOP	225011	n/a	LTP125	ltpFR	12	n/a	n/a	n/a	n/a	n/a	n/a	n/a	n/a	n/a	n/a	n/a	n/a	n/a	n/a	n/a
452.234	n/a	WORD	226117	wordpools/wasnorm_wordpool.txt	LTP125	ltpFR	12	1	0	PLUMBER	1091	n/a	1	n/a	0	0	0	0	0.5869140625	0.422607421875	lower	../fonts/amplitud.ttf
455.238	n/a	START	227619	n/a	LTP125	ltpFR	12	n/a	n/a	n/a	n/a	n/a	n/a	n/a	n/a	n/a	n/a	n/a	n/a	n/a	n/a	n/a
456.054	n/a	PROB	228027	n/a	LTP125	ltpFR	12	n/a	n/a	n/a	n/a	n/a	n/a	6	2	3	2	n/a	n/a	n/a	n/a	n/a
457.154	n/a	PROB	228577	n/a	LTP125	ltpFR	12	n/a	n/a	n/a	n/a	n/a	n/a	15	4	9	3	n/a	n/a	n/a	n/a	n/a
458.918	n/a	PROB	229459	n/a	LTP125	ltpFR	12	n/a	n/a	n/a	n/a	n/a	n/a	20	8	6	6	n/a	n/a	n/a	n/a	n/a
460.95	n/a	PROB	230475	n/a	LTP125	ltpFR	12	n/a	n/a	n/a	n/a	n/a	n/a	11	4	3	4	n/a	n/a	n/a	n/a	n/a
462.526	n/a	STOP	231263	n/a	LTP125	ltpFR	12	n/a	n/a	n/a	n/a	n/a	n/a	n/a	n/a	n/a	n/a	n/a	n/a	n/a	n/a	n/a
464.378	n/a	WORD	232189	wordpools/wasnorm_wordpool.txt	LTP125	ltpFR	12	1	0	PIER	1063	n/a	1	n/a	0	0	0	0	0.5869140625	0.422607421875	lower	../fonts/amplitud.ttf
467.382	n/a	START	233691	n/a	LTP125	ltpFR	12	n/a	n/a	n/a	n/a	n/a	n/a	n/a	n/a	n/a	n/a	n/a	n/a	n/a	n/a	n/a
468.432	n/a	PROB	234216	n/a	LTP125	ltpFR	12	n/a	n/a	n/a	n/a	n/a	n/a	13	1	8	4	n/a	n/a	n/a	n/a	n/a
470.106	n/a	PROB	235053	n/a	LTP125	ltpFR	12	n/a	n/a	n/a	n/a	n/a	n/a	15	9	2	4	n/a	n/a	n/a	n/a	n/a
471.72	n/a	PROB	235860	n/a	LTP125	ltpFR	12	n/a	n/a	n/a	n/a	n/a	n/a	16	9	2	5	n/a	n/a	n/a	n/a	n/a
475.382	n/a	STOP	237691	n/a	LTP125	ltpFR	12	n/a	n/a	n/a	n/a	n/a	n/a	n/a	n/a	n/a	n/a	n/a	n/a	n/a	n/a	n/a
476.388	n/a	WORD	238194	wordpools/wasnorm_wordpool.txt	LTP125	ltpFR	12	1	0	ORCHID	982	n/a	0	n/a	0	0	0	0	0.5869140625	0.422607421875	lower	../fonts/amplitud.ttf
479.394	n/a	START	239697	n/a	LTP125	ltpFR	12	n/a	n/a	n/a	n/a	n/a	n/a	n/a	n/a	n/a	n/a	n/a	n/a	n/a	n/a	n/a
480.426	n/a	PROB	240213	n/a	LTP125	ltpFR	12	n/a	n/a	n/a	n/a	n/a	n/a	14	9	4	2	n/a	n/a	n/a	n/a	n/a
482.966	n/a	PROB	241483	n/a	LTP125	ltpFR	12	n/a	n/a	n/a	n/a	n/a	n/a	7	1	3	3	n/a	n/a	n/a	n/a	n/a
484.198	n/a	PROB	242099	n/a	LTP125	ltpFR	12	n/a	n/a	n/a	n/a	n/a	n/a	14	2	4	8	n/a	n/a	n/a	n/a	n/a
485.72	n/a	PROB	242860	n/a	LTP125	ltpFR	12	n/a	n/a	n/a	n/a	n/a	n/a	9	2	1	6	n/a	n/a	n/a	n/a	n/a
487.294	n/a	STOP	243647	n/a	LTP125	ltpFR	12	n/a	n/a	n/a	n/a	n/a	n/a	n/a	n/a	n/a	n/a	n/a	n/a	n/a	n/a	n/a
488.6	n/a	WORD	244300	wordpools/wasnorm_wordpool.txt	LTP125	ltpFR	12	1	0	SEED	1266	n/a	0	n/a	0	0	0	0	0.5869140625	0.422607421875	lower	../fonts/amplitud.ttf
491.606	n/a	START	245803	n/a	LTP125	ltpFR	12	n/a	n/a	n/a	n/a	n/a	n/a	n/a	n/a	n/a	n/a	n/a	n/a	n/a	n/a	n/a
492.72	n/a	PROB	246360	n/a	LTP125	ltpFR	12	n/a	n/a	n/a	n/a	n/a	n/a	16	5	4	7	n/a	n/a	n/a	n/a	n/a
494.97	n/a	PROB	247485	n/a	LTP125	ltpFR	12	n/a	n/a	n/a	n/a	n/a	n/a	15	5	9	1	n/a	n/a	n/a	n/a	n/a
495.926	n/a	PROB	247963	n/a	LTP125	ltpFR	12	n/a	n/a	n/a	n/a	n/a	n/a	16	5	6	5	n/a	n/a	n/a	n/a	n/a
499.606	n/a	STOP	249803	n/a	LTP125	ltpFR	12	n/a	n/a	n/a	n/a	n/a	n/a	n/a	n/a	n/a	n/a	n/a	n/a	n/a	n/a	n/a
500.57	n/a	WORD	250285	wordpools/wasnorm_wordpool.txt	LTP125	ltpFR	12	1	0	FIGHTER	564	n/a	1	n/a	0	0	0	0	0.5869140625	0.422607421875	lower	../fonts/amplitud.ttf
503.574	n/a	START	251787	n/a	LTP125	ltpFR	12	n/a	n/a	n/a	n/a	n/a	n/a	n/a	n/a	n/a	n/a	n/a	n/a	n/a	n/a	n/a
504.524	n/a	PROB	252262	n/a	LTP125	ltpFR	12	n/a	n/a	n/a	n/a	n/a	n/a	12	1	4	7	n/a	n/a	n/a	n/a	n/a
506.14	n/a	PROB	253070	n/a	LTP125	ltpFR	12	n/a	n/a	n/a	n/a	n/a	n/a	19	5	9	5	n/a	n/a	n/a	n/a	n/a
507.628	n/a	PROB	253814	n/a	LTP125	ltpFR	12	n/a	n/a	n/a	n/a	n/a	n/a	10	6	2	2	n/a	n/a	n/a	n/a	n/a
509.02	n/a	PROB	254510	n/a	LTP125	ltpFR	12	n/a	n/a	n/a	n/a	n/a	n/a	15	4	7	4	n/a	n/a	n/a	n/a	n/a
510.638	n/a	STOP	255319	n/a	LTP125	ltpFR	12	n/a	n/a	n/a	n/a	n/a	n/a	n/a	n/a	n/a	n/a	n/a	n/a	n/a	n/a	n/a
513.48	n/a	REC_START	256740	n/a	LTP125	ltpFR	12	1	n/a	n/a	n/a	n/a	n/a	n/a	0	0	0	n/a	n/a	n/a	n/a	n/a
515.676	n/a	REC_WORD	257838	wordpools/wasnorm_wordpool.txt	LTP125	ltpFR	12	1	0	PIER	1063	n/a	1	n/a	0	0	0	n/a	n/a	n/a	n/a	n/a
516.504	n/a	REC_WORD	258252	wordpools/wasnorm_wordpool.txt	LTP125	ltpFR	12	1	0	PLIERS	1089	n/a	0	n/a	0	0	0	n/a	n/a	n/a	n/a	n/a
517.42	n/a	REC_WORD	258710	wordpools/wasnorm_wordpool.txt	LTP125	ltpFR	12	1	0	SEED	1266	n/a	0	n/a	0	0	0	n/a	n/a	n/a	n/a	n/a
518.588	n/a	REC_WORD	259294	wordpools/wasnorm_wordpool.txt	LTP125	ltpFR	12	1	0	ORCHID	982	n/a	0	n/a	0	0	0	n/a	n/a	n/a	n/a	n/a
519.622	n/a	REC_WORD	259811	wordpools/wasnorm_wordpool.txt	LTP125	ltpFR	12	1	0	TOWER	1490	n/a	1	n/a	0	0	0	n/a	n/a	n/a	n/a	n/a
520.774	n/a	REC_WORD	260387	wordpools/wasnorm_wordpool.txt	LTP125	ltpFR	12	1	0	AUNT	60	n/a	1	n/a	0	0	0	n/a	n/a	n/a	n/a	n/a
521.762	n/a	REC_WORD	260881	wordpools/wasnorm_wordpool.txt	LTP125	ltpFR	12	1	0	NEPHEW	942	n/a	1	n/a	0	0	0	n/a	n/a	n/a	n/a	n/a
523.008	n/a	REC_WORD	261504	wordpools/wasnorm_wordpool.txt	LTP125	ltpFR	12	1	0	ORCHID	982	n/a	0	n/a	0	0	0	n/a	n/a	n/a	n/a	n/a
525.462	n/a	REC_WORD	262731	wordpools/wasnorm_wordpool.txt	LTP125	ltpFR	12	1	0	ROOSTER	1209	n/a	1	n/a	0	0	0	n/a	n/a	n/a	n/a	n/a
526.526	n/a	REC_WORD	263263	wordpools/wasnorm_wordpool.txt	LTP125	ltpFR	12	1	0	YOLK	1633	n/a	0	n/a	0	0	0	n/a	n/a	n/a	n/a	n/a
529.688	n/a	REC_WORD	264844	wordpools/wasnorm_wordpool.txt	LTP125	ltpFR	12	1	0	PLUMBER	1091	n/a	1	n/a	0	0	0	n/a	n/a	n/a	n/a	n/a
538.752	n/a	REC_WORD	269376	wordpools/wasnorm_wordpool.txt	LTP125	ltpFR	12	1	0	WAVE	1596	n/a	1	n/a	0	0	0	n/a	n/a	n/a	n/a	n/a
594.13	n/a	WORD	297065	wordpools/wasnorm_wordpool.txt	LTP125	ltpFR	12	2	0	BASEMENT	94	n/a	1	n/a	0	0	0	0	0.5869140625	0.422607421875	lower	../fonts/amplitud.ttf
598.118	n/a	WORD	299059	wordpools/wasnorm_wordpool.txt	LTP125	ltpFR	12	2	0	DRAGON	492	n/a	1	n/a	0	0	0	0	0.5869140625	0.422607421875	lower	../fonts/amplitud.ttf
602.046	n/a	WORD	301023	wordpools/wasnorm_wordpool.txt	LTP125	ltpFR	12	2	0	LUMBER	848	n/a	1	n/a	0	0	0	0	0.5869140625	0.422607421875	lower	../fonts/amplitud.ttf
606.1	n/a	WORD	303050	wordpools/wasnorm_wordpool.txt	LTP125	ltpFR	12	2	0	PLAID	1080	n/a	0	n/a	0	0	0	0	0.5869140625	0.422607421875	lower	../fonts/amplitud.ttf
609.962	n/a	WORD	304981	wordpools/wasnorm_wordpool.txt	LTP125	ltpFR	12	2	1	SLACKS	1323	n/a	0	n/a	0	0	0	1	0.412841796875	0.57763671875	upper	../fonts/zerothre.ttf
613.874	n/a	WORD	306937	wordpools/wasnorm_wordpool.txt	LTP125	ltpFR	12	2	1	DAUGHTER	442	n/a	1	n/a	0	0	0	1	0.412841796875	0.57763671875	upper	../fonts/zerothre.ttf
617.944	n/a	WORD	308972	wordpools/wasnorm_wordpool.txt	LTP125	ltpFR	12	2	1	WAX	1597	n/a	0	n/a	0	0	0	1	0.412841796875	0.57763671875	upper	../fonts/zerothre.ttf
621.864	n/a	WORD	310932	wordpools/wasnorm_wordpool.txt	LTP125	ltpFR	12	2	0	BLUEPRINT	142	n/a	0	n/a	0	0	0	0	0.5869140625	0.422607421875	lower	../fonts/amplitud.ttf
625.894	n/a	WORD	312947	wordpools/wasnorm_wordpool.txt	LTP125	ltpFR	12	2	0	WHEEL	1603	n/a	0	n/a	0	0	0	0	0.5869140625	0.422607421875	lower	../fonts/amplitud.ttf
629.722	n/a	WORD	314861	wordpools/wasnorm_wordpool.txt	LTP125	ltpFR	12	2	0	FATHER	554	n/a	1	n/a	0	0	0	0	0.5869140625	0.422607421875	lower	../fonts/amplitud.ttf
633.6	n/a	WORD	316800	wordpools/wasnorm_wordpool.txt	LTP125	ltpFR	12	2	0	GLOVE	642	n/a	0	n/a	0	0	0	0	0.5869140625	0.422607421875	lower	../fonts/amplitud.ttf
637.804	n/a	WORD	318902	wordpools/wasnorm_wordpool.txt	LTP125	ltpFR	12	2	1	BIRD	129	n/a	1	n/a	0	0	0	1	0.412841796875	0.57763671875	upper	../fonts/zerothre.ttf
641.784	n/a	WORD	320892	wordpools/wasnorm_wordpool.txt	LTP125	ltpFR	12	2	1	PARROT	1015	n/a	1	n/a	0	0	0	1	0.412841796875	0.57763671875	upper	../fonts/zerothre.ttf
645.762	n/a	WORD	322881	wordpools/wasnorm_wordpool.txt	LTP125	ltpFR	12	2	1	DUCK	504	n/a	1	n/a	0	0	0	1	0.412841796875	0.57763671875	upper	../fonts/zerothre.ttf
649.858	n/a	WORD	324929	wordpools/wasnorm_wordpool.txt	LTP125	ltpFR	12	2	1	OINTMENT	974	n/a	0	n/a	0	0	0	1	0.412841796875	0.57763671875	upper	../fonts/zerothre.ttf
653.744	n/a	WORD	326872	wordpools/wasnorm_wordpool.txt	LTP125	ltpFR	12	2	1	HOOD	714	n/a	0	n/a	0	0	0	1	0.412841796875	0.57763671875	upper	../fonts/zerothre.ttf
656.75	n/a	START	328375	n/a	LTP125	ltpFR	12	n/a	n/a	n/a	n/a	n/a	n/a	n/a	n/a	n/a	n/a	n/a	n/a	n/a	n/a	n/a
657.606	n/a	PROB	328803	n/a	LTP125	ltpFR	12	n/a	n/a	n/a	n/a	n/a	n/a	18	2	8	8	n/a	n/a	n/a	n/a	n/a
659.072	n/a	PROB	329536	n/a	LTP125	ltpFR	12	n/a	n/a	n/a	n/a	n/a	n/a	16	8	1	7	n/a	n/a	n/a	n/a	n/a
660.386	n/a	PROB	330193	n/a	LTP125	ltpFR	12	n/a	n/a	n/a	n/a	n/a	n/a	17	6	5	4	n/a	n/a	n/a	n/a	n/a
662.118	n/a	PROB	331059	n/a	LTP125	ltpFR	12	n/a	n/a	n/a	n/a	n/a	n/a	14	5	7	2	n/a	n/a	n/a	n/a	n/a
663.592	n/a	STOP	331796	n/a	LTP125	ltpFR	12	n/a	n/a	n/a	n/a	n/a	n/a	n/a	n/a	n/a	n/a	n/a	n/a	n/a	n/a	n/a
666.514	n/a	REC_START	333257	n/a	LTP125	ltpFR	12	2	n/a	n/a	n/a	n/a	n/a	n/a	0	0	0	n/a	n/a	n/a	n/a	n/a
667.502	n/a	REC_WORD	333751	wordpools/wasnorm_wordpool.txt	LTP125	ltpFR	12	2	1	BIRD	129	n/a	1	n/a	0	0	0	n/a	n/a	n/a	n/a	n/a
668.21	n/a	REC_WORD	334105	wordpools/wasnorm_wordpool.txt	LTP125	ltpFR	12	2	1	PARROT	1015	n/a	1	n/a	0	0	0	n/a	n/a	n/a	n/a	n/a
669.172	n/a	REC_WORD	334586	wordpools/wasnorm_wordpool.txt	LTP125	ltpFR	12	2	1	DUCK	504	n/a	1	n/a	0	0	0	n/a	n/a	n/a	n/a	n/a
670.19	n/a	REC_WORD	335095	wordpools/wasnorm_wordpool.txt	LTP125	ltpFR	12	2	1	OINTMENT	974	n/a	0	n/a	0	0	0	n/a	n/a	n/a	n/a	n/a
671.556	n/a	REC_WORD	335778	wordpools/wasnorm_wordpool.txt	LTP125	ltpFR	12	2	0	BASEMENT	94	n/a	1	n/a	0	0	0	n/a	n/a	n/a	n/a	n/a
672.914	n/a	REC_WORD	336457	wordpools/wasnorm_wordpool.txt	LTP125	ltpFR	12	2	0	BASEMENT	94	n/a	1	n/a	0	0	0	n/a	n/a	n/a	n/a	n/a
673.802	n/a	REC_WORD	336901	wordpools/wasnorm_wordpool.txt	LTP125	ltpFR	12	2	0	DRAGON	492	n/a	1	n/a	0	0	0	n/a	n/a	n/a	n/a	n/a
682.842	n/a	REC_WORD	341421	wordpools/wasnorm_wordpool.txt	LTP125	ltpFR	12	2	1	DAUGHTER	442	n/a	1	n/a	0	0	0	n/a	n/a	n/a	n/a	n/a
683.56	n/a	REC_WORD	341780	wordpools/wasnorm_wordpool.txt	LTP125	ltpFR	12	2	0	FATHER	554	n/a	1	n/a	0	0	0	n/a	n/a	n/a	n/a	n/a
684.292	n/a	REC_WORD	342146	wordpools/wasnorm_wordpool.txt	LTP125	ltpFR	12	2	0	PLAID	1080	n/a	0	n/a	0	0	0	n/a	n/a	n/a	n/a	n/a
685.176	n/a	REC_WORD	342588	wordpools/wasnorm_wordpool.txt	LTP125	ltpFR	12	2	1	SLACKS	1323	n/a	0	n/a	0	0	0	n/a	n/a	n/a	n/a	n/a
744.448	n/a	START	372224	n/a	LTP125	ltpFR	12	n/a	n/a	n/a	n/a	n/a	n/a	n/a	n/a	n/a	n/a	n/a	n/a	n/a	n/a	n/a
745.956	n/a	PROB	372978	n/a	LTP125	ltpFR	12	n/a	n/a	n/a	n/a	n/a	n/a	21	8	5	8	n/a	n/a	n/a	n/a	n/a
747.562	n/a	PROB	373781	n/a	LTP125	ltpFR	12	n/a	n/a	n/a	n/a	n/a	n/a	15	3	4	8	n/a	n/a	n/a	n/a	n/a
749.002	n/a	PROB	374501	n/a	LTP125	ltpFR	12	n/a	n/a	n/a	n/a	n/a	n/a	18	9	4	5	n/a	n/a	n/a	n/a	n/a
750.914	n/a	STOP	375457	n/a	LTP125	ltpFR	12	n/a	n/a	n/a	n/a	n/a	n/a	n/a	n/a	n/a	n/a	n/a	n/a	n/a	n/a	n/a
753.572	n/a	WORD	376786	wordpools/wasnorm_wordpool.txt	LTP125	ltpFR	12	3	1	BEETLE	116	n/a	1	n/a	0	0	0	1	0.412841796875	0.57763671875	upper	../fonts/zerothre.ttf
756.576	n/a	START	378288	n/a	LTP125	ltpFR	12	n/a	n/a	n/a	n/a	n/a	n/a	n/a	n/a	n/a	n/a	n/a	n/a	n/a	n/a	n/a
757.65	n/a	PROB	378825	n/a	LTP125	ltpFR	12	n/a	n/a	n/a	n/a	n/a	n/a	12	2	6	4	n/a	n/a	n/a	n/a	n/a
758.974	n/a	PROB	379487	n/a	LTP125	ltpFR	12	n/a	n/a	n/a	n/a	n/a	n/a	16	9	6	1	n/a	n/a	n/a	n/a	n/a
760.612	n/a	PROB	380306	n/a	LTP125	ltpFR	12	n/a	n/a	n/a	n/a	n/a	n/a	13	5	2	6	n/a	n/a	n/a	n/a	n/a
762.178	n/a	PROB	381089	n/a	LTP125	ltpFR	12	n/a	n/a	n/a	n/a	n/a	n/a	18	5	6	7	n/a	n/a	n/a	n/a	n/a
763.538	n/a	STOP	381769	n/a	LTP125	ltpFR	12	n/a	n/a	n/a	n/a	n/a	n/a	n/a	n/a	n/a	n/a	n/a	n/a	n/a	n/a	n/a
765.516	n/a	WORD	382758	wordpools/wasnorm_wordpool.txt	LTP125	ltpFR	12	3	1	WALRUS	1585	n/a	1	n/a	0	0	0	1	0.412841796875	0.57763671875	upper	../fonts/zerothre.ttf
768.52	n/a	START	384260	n/a	LTP125	ltpFR	12	n/a	n/a	n/a	n/a	n/a	n/a	n/a	n/a	n/a	n/a	n/a	n/a	n/a	n/a	n/a
769.436	n/a	PROB	384718	n/a	LTP125	ltpFR	12	n/a	n/a	n/a	n/a	n/a	n/a	13	4	8	1	n/a	n/a	n/a	n/a	n/a
770.852	n/a	PROB	385426	n/a	LTP125	ltpFR	12	n/a	n/a	n/a	n/a	n/a	n/a	16	1	8	7	n/a	n/a	n/a	n/a	n/a
772.2	n/a	PROB	386100	n/a	LTP125	ltpFR	12	n/a	n/a	n/a	n/a	n/a	n/a	10	3	2	5	n/a	n/a	n/a	n/a	n/a
774.1	n/a	PROB	387050	n/a	LTP125	ltpFR	12	n/a	n/a	n/a	n/a	n/a	n/a	21	6	8	7	n/a	n/a	n/a	n/a	n/a
775.458	n/a	STOP	387729	n/a	LTP125	ltpFR	12	n/a	n/a	n/a	n/a	n/a	n/a	n/a	n/a	n/a	n/a	n/a	n/a	n/a	n/a	n/a
777.586	n/a	WORD	388793	wordpools/wasnorm_wordpool.txt	LTP125	ltpFR	12	3	1	JUNGLE	764	n/a	0	n/a	0	0	0	1	0.412841796875	0.57763671875	upper	../fonts/zerothre.ttf
780.592	n/a	START	390296	n/a	LTP125	ltpFR	12	n/a	n/a	n/a	n/a	n/a	n/a	n/a	n/a	n/a	n/a	n/a	n/a	n/a	n/a	n/a
781.54	n/a	PROB	390770	n/a	LTP125	ltpFR	12	n/a	n/a	n/a	n/a	n/a	n/a	11	5	2	4	n/a	n/a	n/a	n/a	n/a
783.212	n/a	PROB	391606	n/a	LTP125	ltpFR	12	n/a	n/a	n/a	n/a	n/a	n/a	16	1	6	9	n/a	n/a	n/a	n/a	n/a
784.544	n/a	PROB	392272	n/a	LTP125	ltpFR	12	n/a	n/a	n/a	n/a	n/a	n/a	19	5	5	9	n/a	n/a	n/a	n/a	n/a
788.592	n/a	STOP	394296	n/a	LTP125	ltpFR	12	n/a	n/a	n/a	n/a	n/a	n/a	n/a	n/a	n/a	n/a	n/a	n/a	n/a	n/a	n/a
789.772	n/a	WORD	394886	wordpools/wasnorm_wordpool.txt	LTP125	ltpFR	12	3	1	HEDGE	699	n/a	0	n/a	0	0	0	1	0.412841796875	0.57763671875	upper	../fonts/zerothre.ttf
792.778	n/a	START	396389	n/a	LTP125	ltpFR	12	n/a	n/a	n/a	n/a	n/a	n/a	n/a	n/a	n/a	n/a	n/a	n/a	n/a	n/a	n/a
793.942	n/a	PROB	396971	n/a	LTP125	ltpFR	12	n/a	n/a	n/a	n/a	n/a	n/a	19	4	8	7	n/a	n/a	n/a	n/a	n/a
795.69	n/a	PROB	397845	n/a	LTP125	ltpFR	12	n/a	n/a	n/a	n/a	n/a	n/a	4	1	2	1	n/a	n/a	n/a	n/a	n/a
796.764	n/a	PROB	398382	n/a	LTP125	ltpFR	12	n/a	n/a	n/a	n/a	n/a	n/a	21	9	6	6	n/a	n/a	n/a	n/a	n/a
799.038	n/a	PROB	399519	n/a	LTP125	ltpFR	12	n/a	n/a	n/a	n/a	n/a	n/a	13	1	3	9	n/a	n/a	n/a	n/a	n/a
800.202	n/a	STOP	400101	n/a	LTP125	ltpFR	12	n/a	n/a	n/a	n/a	n/a	n/a	n/a	n/a	n/a	n/a	n/a	n/a	n/a	n/a	n/a
801.85	n/a	WORD	400925	wordpools/wasnorm_wordpool.txt	LTP125	ltpFR	12	3	1	MOUSE	925	n/a	1	n/a	0	0	0	1	0.412841796875	0.57763671875	upper	../fonts/zerothre.ttf
804.856	n/a	START	402428	n/a	LTP125	ltpFR	12	n/a	n/a	n/a	n/a	n/a	n/a	n/a	n/a	n/a	n/a	n/a	n/a	n/a	n/a	n/a
805.704	n/a	PROB	402852	n/a	LTP125	ltpFR	12	n/a	n/a	n/a	n/a	n/a	n/a	15	3	9	3	n/a	n/a	n/a	n/a	n/a
807.318	n/a	PROB	403659	n/a	LTP125	ltpFR	12	n/a	n/a	n/a	n/a	n/a	n/a	25	9	8	9	n/a	n/a	n/a	n/a	n/a
809.858	n/a	PROB	404929	n/a	LTP125	ltpFR	12	n/a	n/a	n/a	n/a	n/a	n/a	23	5	9	9	n/a	n/a	n/a	n/a	n/a
812.49	n/a	STOP	406245	n/a	LTP125	ltpFR	12	n/a	n/a	n/a	n/a	n/a	n/a	n/a	n/a	n/a	n/a	n/a	n/a	n/a	n/a	n/a
813.694	n/a	WORD	406847	wordpools/wasnorm_wordpool.txt	LTP125	ltpFR	12	3	1	LITTER	832	n/a	0	n/a	0	0	0	1	0.412841796875	0.57763671875	upper	../fonts/zerothre.ttf
816.7	n/a	START	408350	n/a	LTP125	ltpFR	12	n/a	n/a	n/a	n/a	n/a	n/a	n/a	n/a	n/a	n/a	n/a	n/a	n/a	n/a	n/a
817.522	n/a	PROB	408761	n/a	LTP125	ltpFR	12	n/a	n/a	n/a	n/a	n/a	n/a	17	7	5	5	n/a	n/a	n/a	n/a	n/a
819.504	n/a	PROB	409752	n/a	LTP125	ltpFR	12	n/a	n/a	n/a	n/a	n/a	n/a	16	4	5	7	n/a	n/a	n/a	n/a	n/a
821.302	n/a	PROB	410651	n/a	LTP125	ltpFR	12	n/a	n/a	n/a	n/a	n/a	n/a	18	6	7	5	n/a	n/a	n/a	n/a	n/a
822.576	n/a	PROB	411288	n/a	LTP125	ltpFR	12	n/a	n/a	n/a	n/a	n/a	n/a	19	9	5	5	n/a	n/a	n/a	n/a	n/a
823.594	n/a	STOP	411797	n/a	LTP125	ltpFR	12	n/a	n/a	n/a	n/a	n/a	n/a	n/a	n/a	n/a	n/a	n/a	n/a	n/a	n/a	n/a
825.664	n/a	WORD	412832	wordpools/wasnorm_wordpool.txt	LTP125	ltpFR	12	3	1	CLERK	321	n/a	1	n/a	0	0	0	1	0.412841796875	0.57763671875	upper	../fonts/zerothre.ttf
828.668	n/a	START	414334	n/a	LTP125	ltpFR	12	n/a	n/a	n/a	n/a	n/a	n/a	n/a	n/a	n/a	n/a	n/a	n/a	n/a	n/a	n/a
829.642	n/a	PROB	414821	n/a	LTP125	ltpFR	12	n/a	n/a	n/a	n/a	n/a	n/a	16	5	4	7	n/a	n/a	n/a	n/a	n/a
831.208	n/a	PROB	415604	n/a	LTP125	ltpFR	12	n/a	n/a	n/a	n/a	n/a	n/a	5	3	1	1	n/a	n/a	n/a	n/a	n/a
832.106	n/a	PROB	416053	n/a	LTP125	ltpFR	12	n/a	n/a	n/a	n/a	n/a	n/a	21	7	7	7	n/a	n/a	n/a	n/a	n/a
833.88	n/a	PROB	416940	n/a	LTP125	ltpFR	12	n/a	n/a	n/a	n/a	n/a	n/a	8	1	3	4	n/a	n/a	n/a	n/a	n/a
835.482	n/a	STOP	417741	n/a	LTP125	ltpFR	12	n/a	n/a	n/a	n/a	n/a	n/a	n/a	n/a	n/a	n/a	n/a	n/a	n/a	n/a	n/a
837.566	n/a	WORD	418783	wordpools/wasnorm_wordpool.txt	LTP125	ltpFR	12	3	1	ARTICLE	42	n/a	0	n/a	0	0	0	1	0.412841796875	0.57763671875	upper	../fonts/zerothre.ttf
840.572	n/a	START	420286	n/a	LTP125	ltpFR	12	n/a	n/a	n/a	n/a	n/a	n/a	n/a	n/a	n/a	n/a	n/a	n/a	n/a	n/a	n/a
841.586	n/a	PROB	420793	n/a	LTP125	ltpFR	12	n/a	n/a	n/a	n/a	n/a	n/a	20	9	6	5	n/a	n/a	n/a	n/a	n/a
842.986	n/a	PROB	421493	n/a	LTP125	ltpFR	12	n/a	n/a	n/a	n/a	n/a	n/a	16	2	7	7	n/a	n/a	n/a	n/a	n/a
844.3	n/a	PROB	422150	n/a	LTP125	ltpFR	12	n/a	n/a	n/a	n/a	n/a	n/a	16	5	8	3	n/a	n/a	n/a	n/a	n/a
845.6	n/a	PROB	422800	n/a	LTP125	ltpFR	12	n/a	n/a	n/a	n/a	n/a	n/a	17	8	8	1	n/a	n/a	n/a	n/a	n/a
846.882	n/a	PROB	423441	n/a	LTP125	ltpFR	12	n/a	n/a	n/a	n/a	n/a	n/a	23	6	9	8	n/a	n/a	n/a	n/a	n/a
848.412	n/a	STOP	424206	n/a	LTP125	ltpFR	12	n/a	n/a	n/a	n/a	n/a	n/a	n/a	n/a	n/a	n/a	n/a	n/a	n/a	n/a	n/a
849.454	n/a	WORD	424727	wordpools/wasnorm_wordpool.txt	LTP125	ltpFR	12	3	1	EDITOR	516	n/a	1	n/a	0	0	0	1	0.412841796875	0.57763671875	upper	../fonts/zerothre.ttf
852.458	n/a	START	426229	n/a	LTP125	ltpFR	12	n/a	n/a	n/a	n/a	n/a	n/a	n/a	n/a	n/a	n/a	n/a	n/a	n/a	n/a	n/a
853.474	n/a	PROB	426737	n/a	LTP125	ltpFR	12	n/a	n/a	n/a	n/a	n/a	n/a	5	1	3	1	n/a	n/a	n/a	n/a	n/a
854.348	n/a	PROB	427174	n/a	LTP125	ltpFR	12	n/a	n/a	n/a	n/a	n/a	n/a	9	4	2	3	n/a	n/a	n/a	n/a	n/a
856.378	n/a	PROB	428189	n/a	LTP125	ltpFR	12	n/a	n/a	n/a	n/a	n/a	n/a	24	9	8	9	n/a	n/a	n/a	n/a	n/a
859.348	n/a	STOP	429674	n/a	LTP125	ltpFR	12	n/a	n/a	n/a	n/a	n/a	n/a	n/a	n/a	n/a	n/a	n/a	n/a	n/a	n/a	n/a
861.598	n/a	WORD	430799	wordpools/wasnorm_wordpool.txt	LTP125	ltpFR	12	3	1	STATUE	1374	n/a	0	n/a	0	0	0	1	0.412841796875	0.57763671875	upper	../fonts/zerothre.ttf
864.604	n/a	START	432302	n/a	LTP125	ltpFR	12	n/a	n/a	n/a	n/a	n/a	n/a	n/a	n/a	n/a	n/a	n/a	n/a	n/a	n/a	n/a
865.518	n/a	PROB	432759	n/a	LTP125	ltpFR	12	n/a	n/a	n/a	n/a	n/a	n/a	23	9	7	9	n/a	n/a	n/a	n/a	n/a
867.392	n/a	PROB	433696	n/a	LTP125	ltpFR	12	n/a	n/a	n/a	n/a	n/a	n/a	11	7	1	3	n/a	n/a	n/a	n/a	n/a
868.672	n/a	PROB	434336	n/a	LTP125	ltpFR	12	n/a	n/a	n/a	n/a	n/a	n/a	11	3	7	1	n/a	n/a	n/a	n/a	n/a
870.03	n/a	PROB	435015	n/a	LTP125	ltpFR	12	n/a	n/a	n/a	n/a	n/a	n/a	20	9	3	8	n/a	n/a	n/a	n/a	n/a
871.804	n/a	STOP	435902	n/a	LTP125	ltpFR	12	n/a	n/a	n/a	n/a	n/a	n/a	n/a	n/a	n/a	n/a	n/a	n/a	n/a	n/a	n/a
873.658	n/a	WORD	436829	wordpools/wasnorm_wordpool.txt	LTP125	ltpFR	12	3	1	POSSUM	1112	n/a	1	n/a	0	0	0	1	0.412841796875	0.57763671875	upper	../fonts/zerothre.ttf
876.664	n/a	START	438332	n/a	LTP125	ltpFR	12	n/a	n/a	n/a	n/a	n/a	n/a	n/a	n/a	n/a	n/a	n/a	n/a	n/a	n/a	n/a
877.746	n/a	PROB	438873	n/a	LTP125	ltpFR	12	n/a	n/a	n/a	n/a	n/a	n/a	18	2	7	9	n/a	n/a	n/a	n/a	n/a
879.294	n/a	PROB	439647	n/a	LTP125	ltpFR	12	n/a	n/a	n/a	n/a	n/a	n/a	14	1	7	6	n/a	n/a	n/a	n/a	n/a
881.06	n/a	PROB	440530	n/a	LTP125	ltpFR	12	n/a	n/a	n/a	n/a	n/a	n/a	9	3	1	5	n/a	n/a	n/a	n/a	n/a
882.424	n/a	PROB	441212	n/a	LTP125	ltpFR	12	n/a	n/a	n/a	n/a	n/a	n/a	9	1	6	2	n/a	n/a	n/a	n/a	n/a
884.164	n/a	STOP	442082	n/a	LTP125	ltpFR	12	n/a	n/a	n/a	n/a	n/a	n/a	n/a	n/a	n/a	n/a	n/a	n/a	n/a	n/a	n/a
885.644	n/a	WORD	442822	wordpools/wasnorm_wordpool.txt	LTP125	ltpFR	12	3	1	MARKET	871	n/a	0	n/a	0	0	0	1	0.412841796875	0.57763671875	upper	../fonts/zerothre.ttf
888.65	n/a	START	444325	n/a	LTP125	ltpFR	12	n/a	n/a	n/a	n/a	n/a	n/a	n/a	n/a	n/a	n/a	n/a	n/a	n/a	n/a	n/a
889.782	n/a	PROB	444891	n/a	LTP125	ltpFR	12	n/a	n/a	n/a	n/a	n/a	n/a	10	4	5	1	n/a	n/a	n/a	n/a	n/a
890.89	n/a	PROB	445445	n/a	LTP125	ltpFR	12	n/a	n/a	n/a	n/a	n/a	n/a	16	2	7	7	n/a	n/a	n/a	n/a	n/a
892.27	n/a	PROB	446135	n/a	LTP125	ltpFR	12	n/a	n/a	n/a	n/a	n/a	n/a	13	6	3	4	n/a	n/a	n/a	n/a	n/a
894.652	n/a	PROB	447326	n/a	LTP125	ltpFR	12	n/a	n/a	n/a	n/a	n/a	n/a	16	1	9	6	n/a	n/a	n/a	n/a	n/a
895.628	n/a	STOP	447814	n/a	LTP125	ltpFR	12	n/a	n/a	n/a	n/a	n/a	n/a	n/a	n/a	n/a	n/a	n/a	n/a	n/a	n/a	n/a
897.522	n/a	WORD	448761	wordpools/wasnorm_wordpool.txt	LTP125	ltpFR	12	3	1	ROOT	1210	n/a	0	n/a	0	0	0	1	0.412841796875	0.57763671875	upper	../fonts/zerothre.ttf
900.528	n/a	START	450264	n/a	LTP125	ltpFR	12	n/a	n/a	n/a	n/a	n/a	n/a	n/a	n/a	n/a	n/a	n/a	n/a	n/a	n/a	n/a
901.668	n/a	PROB	450834	n/a	LTP125	ltpFR	12	n/a	n/a	n/a	n/a	n/a	n/a	20	9	6	5	n/a	n/a	n/a	n/a	n/a
903.184	n/a	PROB	451592	n/a	LTP125	ltpFR	12	n/a	n/a	n/a	n/a	n/a	n/a	18	7	4	7	n/a	n/a	n/a	n/a	n/a
904.49	n/a	PROB	452245	n/a	LTP125	ltpFR	12	n/a	n/a	n/a	n/a	n/a	n/a	12	8	3	1	n/a	n/a	n/a	n/a	n/a
905.98	n/a	PROB	452990	n/a	LTP125	ltpFR	12	n/a	n/a	n/a	n/a	n/a	n/a	15	8	3	5	n/a	n/a	n/a	n/a	n/a
907.612	n/a	STOP	453806	n/a	LTP125	ltpFR	12	n/a	n/a	n/a	n/a	n/a	n/a	n/a	n/a	n/a	n/a	n/a	n/a	n/a	n/a	n/a
909.368	n/a	WORD	454684	wordpools/wasnorm_wordpool.txt	LTP125	ltpFR	12	3	1	CYLINDER	432	n/a	0	n/a	0	0	0	1	0.412841796875	0.57763671875	upper	../fonts/zerothre.ttf
912.372	n/a	START	456186	n/a	LTP125	ltpFR	12	n/a	n/a	n/a	n/a	n/a	n/a	n/a	n/a	n/a	n/a	n/a	n/a	n/a	n/a	n/a
913.262	n/a	PROB	456631	n/a	LTP125	ltpFR	12	n/a	n/a	n/a	n/a	n/a	n/a	20	6	9	5	n/a	n/a	n/a	n/a	n/a
915.426	n/a	PROB	457713	n/a	LTP125	ltpFR	12	n/a	n/a	n/a	n/a	n/a	n/a	9	1	3	4	n/a	n/a	n/a	n/a	n/a
916.968	n/a	PROB	458484	n/a	LTP125	ltpFR	12	n/a	n/a	n/a	n/a	n/a	n/a	16	3	4	9	n/a	n/a	n/a	n/a	n/a
918.87	n/a	STOP	459435	n/a	LTP125	ltpFR	12	n/a	n/a	n/a	n/a	n/a	n/a	n/a	n/a	n/a	n/a	n/a	n/a	n/a	n/a	n/a
921.422	n/a	WORD	460711	wordpools/wasnorm_wordpool.txt	LTP125	ltpFR	12	3	1	OVAL	990	n/a	0	n/a	0	0	0	1	0.412841796875	0.57763671875	upper	../fonts/zerothre.ttf
924.426	n/a	START	462213	n/a	LTP125	ltpFR	12	n/a	n/a	n/a	n/a	n/a	n/a	n/a	n/a	n/a	n/a	n/a	n/a	n/a	n/a	n/a
925.624	n/a	PROB	462812	n/a	LTP125	ltpFR	12	n/a	n/a	n/a	n/a	n/a	n/a	10	4	1	5	n/a	n/a	n/a	n/a	n/a
926.756	n/a	PROB	463378	n/a	LTP125	ltpFR	12	n/a	n/a	n/a	n/a	n/a	n/a	25	7	9	9	n/a	n/a	n/a	n/a	n/a
929.838	n/a	PROB	464919	n/a	LTP125	ltpFR	12	n/a	n/a	n/a	n/a	n/a	n/a	8	1	4	2	n/a	n/a	n/a	n/a	n/a
931.428	n/a	STOP	465714	n/a	LTP125	ltpFR	12	n/a	n/a	n/a	n/a	n/a	n/a	n/a	n/a	n/a	n/a	n/a	n/a	n/a	n/a	n/a
933.316	n/a	WORD	466658	wordpools/wasnorm_wordpool.txt	LTP125	ltpFR	12	3	1	EMPLOYEE	531	n/a	1	n/a	0	0	0	1	0.412841796875	0.57763671875	upper	../fonts/zerothre.ttf
936.32	n/a	START	468160	n/a	LTP125	ltpFR	12	n/a	n/a	n/a	n/a	n/a	n/a	n/a	n/a	n/a	n/a	n/a	n/a	n/a	n/a	n/a
937.228	n/a	PROB	468614	n/a	LTP125	ltpFR	12	n/a	n/a	n/a	n/a	n/a	n/a	24	8	9	9	n/a	n/a	n/a	n/a	n/a
939.9	n/a	PROB	469950	n/a	LTP125	ltpFR	12	n/a	n/a	n/a	n/a	n/a	n/a	17	8	6	3	n/a	n/a	n/a	n/a	n/a
941.53	n/a	PROB	470765	n/a	LTP125	ltpFR	12	n/a	n/a	n/a	n/a	n/a	n/a	15	6	5	4	n/a	n/a	n/a	n/a	n/a
942.894	n/a	STOP	471447	n/a	LTP125	ltpFR	12	n/a	n/a	n/a	n/a	n/a	n/a	n/a	n/a	n/a	n/a	n/a	n/a	n/a	n/a	n/a
946.06	n/a	REC_START	473030	n/a	LTP125	ltpFR	12	3	n/a	n/a	n/a	n/a	n/a	n/a	0	0	0	n/a	n/a	n/a	n/a	n/a
948.266	n/a	REC_WORD	474133	wordpools/wasnorm_wordpool.txt	LTP125	ltpFR	12	3	1	OVAL	990	n/a	0	n/a	0	0	0	n/a	n/a	n/a	n/a	n/a
949.338	n/a	REC_WORD	474669	wordpools/wasnorm_wordpool.txt	LTP125	ltpFR	12	3	1	EDITOR	516	n/a	1	n/a	0	0	0	n/a	n/a	n/a	n/a	n/a
950.29	n/a	REC_WORD	475145	wordpools/wasnorm_wordpool.txt	LTP125	ltpFR	12	3	1	ARTICLE	42	n/a	0	n/a	0	0	0	n/a	n/a	n/a	n/a	n/a
951.458	n/a	REC_WORD	475729	wordpools/wasnorm_wordpool.txt	LTP125	ltpFR	12	3	1	STATUE	1374	n/a	0	n/a	0	0	0	n/a	n/a	n/a	n/a	n/a
952.744	n/a	REC_WORD	476372	wordpools/wasnorm_wordpool.txt	LTP125	ltpFR	12	3	1	MARKET	871	n/a	0	n/a	0	0	0	n/a	n/a	n/a	n/a	n/a
954.65	n/a	REC_WORD	477325	wordpools/wasnorm_wordpool.txt	LTP125	ltpFR	12	3	1	WALRUS	1585	n/a	1	n/a	0	0	0	n/a	n/a	n/a	n/a	n/a
955.782	n/a	REC_WORD	477891	wordpools/wasnorm_wordpool.txt	LTP125	ltpFR	12	3	1	BEETLE	116	n/a	1	n/a	0	0	0	n/a	n/a	n/a	n/a	n/a
956.582	n/a	REC_WORD	478291	wordpools/wasnorm_wordpool.txt	LTP125	ltpFR	12	3	1	MOUSE	925	n/a	1	n/a	0	0	0	n/a	n/a	n/a	n/a	n/a
957.704	n/a	REC_WORD	478852	wordpools/wasnorm_wordpool.txt	LTP125	ltpFR	12	3	1	JUNGLE	764	n/a	0	n/a	0	0	0	n/a	n/a	n/a	n/a	n/a
958.812	n/a	REC_WORD	479406	wordpools/wasnorm_wordpool.txt	LTP125	ltpFR	12	3	1	HEDGE	699	n/a	0	n/a	0	0	0	n/a	n/a	n/a	n/a	n/a
960.048	n/a	REC_WORD	480024	wordpools/wasnorm_wordpool.txt	LTP125	ltpFR	12	3	1	LITTER	832	n/a	0	n/a	0	0	0	n/a	n/a	n/a	n/a	n/a
1028.016	n/a	START	514008	n/a	LTP125	ltpFR	12	n/a	n/a	n/a	n/a	n/a	n/a	n/a	n/a	n/a	n/a	n/a	n/a	n/a	n/a	n/a
1029.522	n/a	PROB	514761	n/a	LTP125	ltpFR	12	n/a	n/a	n/a	n/a	n/a	n/a	14	4	1	9	n/a	n/a	n/a	n/a	n/a
1031.478	n/a	PROB	515739	n/a	LTP125	ltpFR	12	n/a	n/a	n/a	n/a	n/a	n/a	24	8	8	8	n/a	n/a	n/a	n/a	n/a
1032.818	n/a	PROB	516409	n/a	LTP125	ltpFR	12	n/a	n/a	n/a	n/a	n/a	n/a	12	3	7	2	n/a	n/a	n/a	n/a	n/a
1034.034	n/a	PROB	517017	n/a	LTP125	ltpFR	12	n/a	n/a	n/a	n/a	n/a	n/a	7	3	3	1	n/a	n/a	n/a	n/a	n/a
1035.182	n/a	PROB	517591	n/a	LTP125	ltpFR	12	n/a	n/a	n/a	n/a	n/a	n/a	20	9	2	9	n/a	n/a	n/a	n/a	n/a
1036.564	n/a	PROB	518282	n/a	LTP125	ltpFR	12	n/a	n/a	n/a	n/a	n/a	n/a	12	3	6	3	n/a	n/a	n/a	n/a	n/a
1037.846	n/a	PROB	518923	n/a	LTP125	ltpFR	12	n/a	n/a	n/a	n/a	n/a	n/a	16	3	5	8	n/a	n/a	n/a	n/a	n/a
1040.65	n/a	PROB	520325	n/a	LTP125	ltpFR	12	n/a	n/a	n/a	n/a	n/a	n/a	18	2	9	7	n/a	n/a	n/a	n/a	n/a
1043.31	n/a	STOP	521655	n/a	LTP125	ltpFR	12	n/a	n/a	n/a	n/a	n/a	n/a	n/a	n/a	n/a	n/a	n/a	n/a	n/a	n/a	n/a
1045.046	n/a	WORD	522523	wordpools/wasnorm_wordpool.txt	LTP125	ltpFR	12	4	1	PENNY	1045	n/a	0	n/a	0	0	0	1	0.412841796875	0.57763671875	upper	../fonts/zerothre.ttf
1048.052	n/a	START	524026	n/a	LTP125	ltpFR	12	n/a	n/a	n/a	n/a	n/a	n/a	n/a	n/a	n/a	n/a	n/a	n/a	n/a	n/a	n/a
1048.884	n/a	PROB	524442	n/a	LTP125	ltpFR	12	n/a	n/a	n/a	n/a	n/a	n/a	19	9	5	5	n/a	n/a	n/a	n/a	n/a
1050.04	n/a	PROB	525020	n/a	LTP125	ltpFR	12	n/a	n/a	n/a	n/a	n/a	n/a	17	5	6	6	n/a	n/a	n/a	n/a	n/a
1051.612	n/a	PROB	525806	n/a	LTP125	ltpFR	12	n/a	n/a	n/a	n/a	n/a	n/a	11	1	1	9	n/a	n/a	n/a	n/a	n/a
1052.728	n/a	PROB	526364	n/a	LTP125	ltpFR	12	n/a	n/a	n/a	n/a	n/a	n/a	16	5	2	9	n/a	n/a	n/a	n/a	n/a
1054.476	n/a	PROB	527238	n/a	LTP125	ltpFR	12	n/a	n/a	n/a	n/a	n/a	n/a	18	4	9	5	n/a	n/a	n/a	n/a	n/a
1056.324	n/a	PROB	528162	n/a	LTP125	ltpFR	12	n/a	n/a	n/a	n/a	n/a	n/a	17	7	2	5	n/a	n/a	n/a	n/a	n/a
1057.898	n/a	PROB	528949	n/a	LTP125	ltpFR	12	n/a	n/a	n/a	n/a	n/a	n/a	17	9	5	3	n/a	n/a	n/a	n/a	n/a
1059.888	n/a	PROB	529944	n/a	LTP125	ltpFR	12	n/a	n/a	n/a	n/a	n/a	n/a	15	6	2	7	n/a	n/a	n/a	n/a	n/a
1061.742	n/a	PROB	530871	n/a	LTP125	ltpFR	12	n/a	n/a	n/a	n/a	n/a	n/a	15	4	8	3	n/a	n/a	n/a	n/a	n/a
1063.038	n/a	STOP	531519	n/a	LTP125	ltpFR	12	n/a	n/a	n/a	n/a	n/a	n/a	n/a	n/a	n/a	n/a	n/a	n/a	n/a	n/a	n/a
1065.222	n/a	WORD	532611	wordpools/wasnorm_wordpool.txt	LTP125	ltpFR	12	4	1	GUEST	669	n/a	1	n/a	0	0	0	1	0.412841796875	0.57763671875	upper	../fonts/zerothre.ttf
1068.228	n/a	START	534114	n/a	LTP125	ltpFR	12	n/a	n/a	n/a	n/a	n/a	n/a	n/a	n/a	n/a	n/a	n/a	n/a	n/a	n/a	n/a
1069.178	n/a	PROB	534589	n/a	LTP125	ltpFR	12	n/a	n/a	n/a	n/a	n/a	n/a	17	6	4	7	n/a	n/a	n/a	n/a	n/a
1070.616	n/a	PROB	535308	n/a	LTP125	ltpFR	12	n/a	n/a	n/a	n/a	n/a	n/a	20	9	6	5	n/a	n/a	n/a	n/a	n/a
1072.032	n/a	PROB	536016	n/a	LTP125	ltpFR	12	n/a	n/a	n/a	n/a	n/a	n/a	14	7	4	3	n/a	n/a	n/a	n/a	n/a
1073.914	n/a	PROB	536957	n/a	LTP125	ltpFR	12	n/a	n/a	n/a	n/a	n/a	n/a	15	7	4	4	n/a	n/a	n/a	n/a	n/a
1075.12	n/a	PROB	537560	n/a	LTP125	ltpFR	12	n/a	n/a	n/a	n/a	n/a	n/a	19	9	7	3	n/a	n/a	n/a	n/a	n/a
1076.444	n/a	PROB	538222	n/a	LTP125	ltpFR	12	n/a	n/a	n/a	n/a	n/a	n/a	11	2	8	1	n/a	n/a	n/a	n/a	n/a
1077.708	n/a	PROB	538854	n/a	LTP125	ltpFR	12	n/a	n/a	n/a	n/a	n/a	n/a	14	6	4	4	n/a	n/a	n/a	n/a	n/a
1079.282	n/a	PROB	539641	n/a	LTP125	ltpFR	12	n/a	n/a	n/a	n/a	n/a	n/a	19	2	9	8	n/a	n/a	n/a	n/a	n/a
1080.938	n/a	PROB	540469	n/a	LTP125	ltpFR	12	n/a	n/a	n/a	n/a	n/a	n/a	13	1	4	8	n/a	n/a	n/a	n/a	n/a
1083.104	n/a	STOP	541552	n/a	LTP125	ltpFR	12	n/a	n/a	n/a	n/a	n/a	n/a	n/a	n/a	n/a	n/a	n/a	n/a	n/a	n/a	n/a
1085.282	n/a	WORD	542641	wordpools/wasnorm_wordpool.txt	LTP125	ltpFR	12	4	1	FELLOW	558	n/a	1	n/a	0	0	0	1	0.412841796875	0.57763671875	upper	../fonts/zerothre.ttf
1088.288	n/a	START	544144	n/a	LTP125	ltpFR	12	n/a	n/a	n/a	n/a	n/a	n/a	n/a	n/a	n/a	n/a	n/a	n/a	n/a	n/a	n/a
1089.112	n/a	PROB	544556	n/a	LTP125	ltpFR	12	n/a	n/a	n/a	n/a	n/a	n/a	10	2	7	1	n/a	n/a	n/a	n/a	n/a
1090.344	n/a	PROB	545172	n/a	LTP125	ltpFR	12	n/a	n/a	n/a	n/a	n/a	n/a	25	9	8	8	n/a	n/a	n/a	n/a	n/a
1093.324	n/a	PROB	546662	n/a	LTP125	ltpFR	12	n/a	n/a	n/a	n/a	n/a	n/a	9	4	2	3	n/a	n/a	n/a	n/a	n/a
1095.304	n/a	PROB	547652	n/a	LTP125	ltpFR	12	n/a	n/a	n/a	n/a	n/a	n/a	9	2	5	2	n/a	n/a	n/a	n/a	n/a
1096.586	n/a	PROB	548293	n/a	LTP125	ltpFR	12	n/a	n/a	n/a	n/a	n/a	n/a	15	9	3	3	n/a	n/a	n/a	n/a	n/a
1098.976	n/a	PROB	549488	n/a	LTP125	ltpFR	12	n/a	n/a	n/a	n/a	n/a	n/a	10	5	2	3	n/a	n/a	n/a	n/a	n/a
1100.482	n/a	PROB	550241	n/a	LTP125	ltpFR	12	n/a	n/a	n/a	n/a	n/a	n/a	11	9	1	1	n/a	n/a	n/a	n/a	n/a
1101.472	n/a	PROB	550736	n/a	LTP125	ltpFR	12	n/a	n/a	n/a	n/a	n/a	n/a	14	3	8	3	n/a	n/a	n/a	n/a	n/a
1102.952	n/a	STOP	551476	n/a	LTP125	ltpFR	12	n/a	n/a	n/a	n/a	n/a	n/a	n/a	n/a	n/a	n/a	n/a	n/a	n/a	n/a	n/a
1105.376	n/a	WORD	552688	wordpools/wasnorm_wordpool.txt	LTP125	ltpFR	12	4	1	CONTAINER	366	n/a	0	n/a	0	0	0	1	0.412841796875	0.57763671875	upper	../fonts/zerothre.ttf
1108.382	n/a	START	554191	n/a	LTP125	ltpFR	12	n/a	n/a	n/a	n/a	n/a	n/a	n/a	n/a	n/a	n/a	n/a	n/a	n/a	n/a	n/a
1109.28	n/a	PROB	554640	n/a	LTP125	ltpFR	12	n/a	n/a	n/a	n/a	n/a	n/a	13	2	4	7	n/a	n/a	n/a	n/a	n/a
1111.92	n/a	PROB	555960	n/a	LTP125	ltpFR	12	n/a	n/a	n/a	n/a	n/a	n/a	19	8	8	3	n/a	n/a	n/a	n/a	n/a
1113.276	n/a	PROB	556638	n/a	LTP125	ltpFR	12	n/a	n/a	n/a	n/a	n/a	n/a	22	8	7	9	n/a	n/a	n/a	n/a	n/a
1115.54	n/a	PROB	557770	n/a	LTP125	ltpFR	12	n/a	n/a	n/a	n/a	n/a	n/a	20	8	3	9	n/a	n/a	n/a	n/a	n/a
1117.62	n/a	PROB	558810	n/a	LTP125	ltpFR	12	n/a	n/a	n/a	n/a	n/a	n/a	16	7	7	2	n/a	n/a	n/a	n/a	n/a
1118.936	n/a	PROB	559468	n/a	LTP125	ltpFR	12	n/a	n/a	n/a	n/a	n/a	n/a	14	1	8	5	n/a	n/a	n/a	n/a	n/a
1120.26	n/a	PROB	560130	n/a	LTP125	ltpFR	12	n/a	n/a	n/a	n/a	n/a	n/a	22	6	9	9	n/a	n/a	n/a	n/a	n/a
1121.774	n/a	PROB	560887	n/a	LTP125	ltpFR	12	n/a	n/a	n/a	n/a	n/a	n/a	12	3	6	3	n/a	n/a	n/a	n/a	n/a
1123.414	n/a	STOP	561707	n/a	LTP125	ltpFR	12	n/a	n/a	n/a	n/a	n/a	n/a	n/a	n/a	n/a	n/a	n/a	n/a	n/a	n/a	n/a
1125.336	n/a	WORD	562668	wordpools/wasnorm_wordpool.txt	LTP125	ltpFR	12	4	1	BUN	197	n/a	0	n/a	0	0	0	1	0.412841796875	0.57763671875	upper	../fonts/zerothre.ttf
1128.342	n/a	START	564171	n/a	LTP125	ltpFR	12	n/a	n/a	n/a	n/a	n/a	n/a	n/a	n/a	n/a	n/a	n/a	n/a	n/a	n/a	n/a
1129.298	n/a	PROB	564649	n/a	LTP125	ltpFR	12	n/a	n/a	n/a	n/a	n/a	n/a	16	6	1	9	n/a	n/a	n/a	n/a	n/a
1130.538	n/a	PROB	565269	n/a	LTP125	ltpFR	12	n/a	n/a	n/a	n/a	n/a	n/a	19	8	6	5	n/a	n/a	n/a	n/a	n/a
1132.444	n/a	PROB	566222	n/a	LTP125	ltpFR	12	n/a	n/a	n/a	n/a	n/a	n/a	11	5	5	1	n/a	n/a	n/a	n/a	n/a
1133.418	n/a	PROB	566709	n/a	LTP125	ltpFR	12	n/a	n/a	n/a	n/a	n/a	n/a	15	3	3	9	n/a	n/a	n/a	n/a	n/a
1135.208	n/a	PROB	567604	n/a	LTP125	ltpFR	12	n/a	n/a	n/a	n/a	n/a	n/a	26	7	9	8	n/a	n/a	n/a	n/a	n/a
1139.738	n/a	PROB	569869	n/a	LTP125	ltpFR	12	n/a	n/a	n/a	n/a	n/a	n/a	18	4	7	7	n/a	n/a	n/a	n/a	n/a
1141.878	n/a	PROB	570939	n/a	LTP125	ltpFR	12	n/a	n/a	n/a	n/a	n/a	n/a	20	4	9	7	n/a	n/a	n/a	n/a	n/a
1143.568	n/a	STOP	571784	n/a	LTP125	ltpFR	12	n/a	n/a	n/a	n/a	n/a	n/a	n/a	n/a	n/a	n/a	n/a	n/a	n/a	n/a	n/a
1145.348	n/a	WORD	572674	wordpools/wasnorm_wordpool.txt	LTP125	ltpFR	12	4	1	SHOWER	1296	n/a	0	n/a	0	0	0	1	0.412841796875	0.57763671875	upper	../fonts/zerothre.ttf
1148.352	n/a	START	574176	n/a	LTP125	ltpFR	12	n/a	n/a	n/a	n/a	n/a	n/a	n/a	n/a	n/a	n/a	n/a	n/a	n/a	n/a	n/a
1149.194	n/a	PROB	574597	n/a	LTP125	ltpFR	12	n/a	n/a	n/a	n/a	n/a	n/a	21	9	4	8	n/a	n/a	n/a	n/a	n/a
1151.582	n/a	PROB	575791	n/a	LTP125	ltpFR	12	n/a	n/a	n/a	n/a	n/a	n/a	14	7	1	6	n/a	n/a	n/a	n/a	n/a
1153.122	n/a	PROB	576561	n/a	LTP125	ltpFR	12	n/a	n/a	n/a	n/a	n/a	n/a	21	8	9	4	n/a	n/a	n/a	n/a	n/a
1155.578	n/a	PROB	577789	n/a	LTP125	ltpFR	12	n/a	n/a	n/a	n/a	n/a	n/a	17	1	7	9	n/a	n/a	n/a	n/a	n/a
1157.534	n/a	PROB	578767	n/a	LTP125	ltpFR	12	n/a	n/a	n/a	n/a	n/a	n/a	16	6	4	6	n/a	n/a	n/a	n/a	n/a
1159.29	n/a	PROB	579645	n/a	LTP125	ltpFR	12	n/a	n/a	n/a	n/a	n/a	n/a	8	2	2	4	n/a	n/a	n/a	n/a	n/a
1160.564	n/a	PROB	580282	n/a	LTP125	ltpFR	12	n/a	n/a	n/a	n/a	n/a	n/a	6	2	1	3	n/a	n/a	n/a	n/a	n/a
1161.854	n/a	PROB	580927	n/a	LTP125	ltpFR	12	n/a	n/a	n/a	n/a	n/a	n/a	23	6	8	9	n/a	n/a	n/a	n/a	n/a
1163.416	n/a	STOP	581708	n/a	LTP125	ltpFR	12	n/a	n/a	n/a	n/a	n/a	n/a	n/a	n/a	n/a	n/a	n/a	n/a	n/a	n/a	n/a
1165.258	n/a	WORD	582629	wordpools/wasnorm_wordpool.txt	LTP125	ltpFR	12	4	1	OCEAN	970	n/a	0	n/a	0	0	0	1	0.412841796875	0.57763671875	upper	../fonts/zerothre.ttf
1168.264	n/a	START	584132	n/a	LTP125	ltpFR	12	n/a	n/a	n/a	n/a	n/a	n/a	n/a	n/a	n/a	n/a	n/a	n/a	n/a	n/a	n/a
1169.428	n/a	PROB	584714	n/a	LTP125	ltpFR	12	n/a	n/a	n/a	n/a	n/a	n/a	14	1	9	4	n/a	n/a	n/a	n/a	n/a
1170.51	n/a	PROB	585255	n/a	LTP125	ltpFR	12	n/a	n/a	n/a	n/a	n/a	n/a	11	4	4	3	n/a	n/a	n/a	n/a	n/a
1172.55	n/a	PROB	586275	n/a	LTP125	ltpFR	12	n/a	n/a	n/a	n/a	n/a	n/a	11	1	3	7	n/a	n/a	n/a	n/a	n/a
1173.924	n/a	PROB	586962	n/a	LTP125	ltpFR	12	n/a	n/a	n/a	n/a	n/a	n/a	10	4	1	5	n/a	n/a	n/a	n/a	n/a
1175.122	n/a	PROB	587561	n/a	LTP125	ltpFR	12	n/a	n/a	n/a	n/a	n/a	n/a	20	5	7	8	n/a	n/a	n/a	n/a	n/a
1176.57	n/a	PROB	588285	n/a	LTP125	ltpFR	12	n/a	n/a	n/a	n/a	n/a	n/a	18	7	7	4	n/a	n/a	n/a	n/a	n/a
1177.836	n/a	PROB	588918	n/a	LTP125	ltpFR	12	n/a	n/a	n/a	n/a	n/a	n/a	11	5	3	3	n/a	n/a	n/a	n/a	n/a
1179.342	n/a	PROB	589671	n/a	LTP125	ltpFR	12	n/a	n/a	n/a	n/a	n/a	n/a	17	7	9	1	n/a	n/a	n/a	n/a	n/a
1180.548	n/a	PROB	590274	n/a	LTP125	ltpFR	12	n/a	n/a	n/a	n/a	n/a	n/a	17	5	9	3	n/a	n/a	n/a	n/a	n/a
1183.392	n/a	STOP	591696	n/a	LTP125	ltpFR	12	n/a	n/a	n/a	n/a	n/a	n/a	n/a	n/a	n/a	n/a	n/a	n/a	n/a	n/a	n/a
1185.136	n/a	WORD	592568	wordpools/wasnorm_wordpool.txt	LTP125	ltpFR	12	4	1	WARRIOR	1589	n/a	1	n/a	0	0	0	1	0.412841796875	0.57763671875	upper	../fonts/zerothre.ttf
1188.142	n/a	START	594071	n/a	LTP125	ltpFR	12	n/a	n/a	n/a	n/a	n/a	n/a	n/a	n/a	n/a	n/a	n/a	n/a	n/a	n/a	n/a
1189.056	n/a	PROB	594528	n/a	LTP125	ltpFR	12	n/a	n/a	n/a	n/a	n/a	n/a	16	2	7	7	n/a	n/a	n/a	n/a	n/a
1190.296	n/a	PROB	595148	n/a	LTP125	ltpFR	12	n/a	n/a	n/a	n/a	n/a	n/a	22	8	7	7	n/a	n/a	n/a	n/a	n/a
1191.81	n/a	PROB	595905	n/a	LTP125	ltpFR	12	n/a	n/a	n/a	n/a	n/a	n/a	6	1	3	2	n/a	n/a	n/a	n/a	n/a
1193.476	n/a	PROB	596738	n/a	LTP125	ltpFR	12	n/a	n/a	n/a	n/a	n/a	n/a	14	1	7	6	n/a	n/a	n/a	n/a	n/a
1194.782	n/a	PROB	597391	n/a	LTP125	ltpFR	12	n/a	n/a	n/a	n/a	n/a	n/a	13	2	4	7	n/a	n/a	n/a	n/a	n/a
1196.264	n/a	PROB	598132	n/a	LTP125	ltpFR	12	n/a	n/a	n/a	n/a	n/a	n/a	15	5	9	1	n/a	n/a	n/a	n/a	n/a
1197.296	n/a	PROB	598648	n/a	LTP125	ltpFR	12	n/a	n/a	n/a	n/a	n/a	n/a	14	3	4	7	n/a	n/a	n/a	n/a	n/a
1199.194	n/a	PROB	599597	n/a	LTP125	ltpFR	12	n/a	n/a	n/a	n/a	n/a	n/a	16	5	3	8	n/a	n/a	n/a	n/a	n/a
1200.808	n/a	PROB	600404	n/a	LTP125	ltpFR	12	n/a	n/a	n/a	n/a	n/a	n/a	20	9	4	7	n/a	n/a	n/a	n/a	n/a
1202.768	n/a	STOP	601384	n/a	LTP125	ltpFR	12	n/a	n/a	n/a	n/a	n/a	n/a	n/a	n/a	n/a	n/a	n/a	n/a	n/a	n/a	n/a
1205.154	n/a	WORD	602577	wordpools/wasnorm_wordpool.txt	LTP125	ltpFR	12	4	1	VETERAN	1561	n/a	1	n/a	0	0	0	1	0.412841796875	0.57763671875	upper	../fonts/zerothre.ttf
1208.16	n/a	START	604080	n/a	LTP125	ltpFR	12	n/a	n/a	n/a	n/a	n/a	n/a	n/a	n/a	n/a	n/a	n/a	n/a	n/a	n/a	n/a
1209.116	n/a	PROB	604558	n/a	LTP125	ltpFR	12	n/a	n/a	n/a	n/a	n/a	n/a	9	2	5	2	n/a	n/a	n/a	n/a	n/a
1210.522	n/a	PROB	605261	n/a	LTP125	ltpFR	12	n/a	n/a	n/a	n/a	n/a	n/a	14	4	4	6	n/a	n/a	n/a	n/a	n/a
1211.638	n/a	PROB	605819	n/a	LTP125	ltpFR	12	n/a	n/a	n/a	n/a	n/a	n/a	16	8	5	3	n/a	n/a	n/a	n/a	n/a
1213.76	n/a	PROB	606880	n/a	LTP125	ltpFR	12	n/a	n/a	n/a	n/a	n/a	n/a	21	8	4	9	n/a	n/a	n/a	n/a	n/a
1216.574	n/a	PROB	608287	n/a	LTP125	ltpFR	12	n/a	n/a	n/a	n/a	n/a	n/a	12	4	2	7	n/a	n/a	n/a	n/a	n/a
1218.84	n/a	PROB	609420	n/a	LTP125	ltpFR	12	n/a	n/a	n/a	n/a	n/a	n/a	11	5	2	4	n/a	n/a	n/a	n/a	n/a
1220.962	n/a	PROB	610481	n/a	LTP125	ltpFR	12	n/a	n/a	n/a	n/a	n/a	n/a	9	2	4	3	n/a	n/a	n/a	n/a	n/a
1222.64	n/a	STOP	611320	n/a	LTP125	ltpFR	12	n/a	n/a	n/a	n/a	n/a	n/a	n/a	n/a	n/a	n/a	n/a	n/a	n/a	n/a	n/a
1225.024	n/a	WORD	612512	wordpools/wasnorm_wordpool.txt	LTP125	ltpFR	12	4	1	LIGHTNING	820	n/a	0	n/a	0	0	0	1	0.412841796875	0.57763671875	upper	../fonts/zerothre.ttf
1228.03	n/a	START	614015	n/a	LTP125	ltpFR	12	n/a	n/a	n/a	n/a	n/a	n/a	n/a	n/a	n/a	n/a	n/a	n/a	n/a	n/a	n/a
1229.16	n/a	PROB	614580	n/a	LTP125	ltpFR	12	n/a	n/a	n/a	n/a	n/a	n/a	16	2	5	9	n/a	n/a	n/a	n/a	n/a
1232.082	n/a	PROB	616041	n/a	LTP125	ltpFR	12	n/a	n/a	n/a	n/a	n/a	n/a	11	4	3	4	n/a	n/a	n/a	n/a	n/a
1233.77	n/a	PROB	616885	n/a	LTP125	ltpFR	12	n/a	n/a	n/a	n/a	n/a	n/a	14	2	8	3	n/a	n/a	n/a	n/a	n/a
1235.71	n/a	PROB	617855	n/a	LTP125	ltpFR	12	n/a	n/a	n/a	n/a	n/a	n/a	15	1	9	5	n/a	n/a	n/a	n/a	n/a
1236.76	n/a	PROB	618380	n/a	LTP125	ltpFR	12	n/a	n/a	n/a	n/a	n/a	n/a	15	4	2	9	n/a	n/a	n/a	n/a	n/a
1238.05	n/a	PROB	619025	n/a	LTP125	ltpFR	12	n/a	n/a	n/a	n/a	n/a	n/a	19	1	9	9	n/a	n/a	n/a	n/a	n/a
1239.606	n/a	PROB	619803	n/a	LTP125	ltpFR	12	n/a	n/a	n/a	n/a	n/a	n/a	19	3	7	9	n/a	n/a	n/a	n/a	n/a
1241.346	n/a	PROB	620673	n/a	LTP125	ltpFR	12	n/a	n/a	n/a	n/a	n/a	n/a	13	2	2	9	n/a	n/a	n/a	n/a	n/a
1243.186	n/a	STOP	621593	n/a	LTP125	ltpFR	12	n/a	n/a	n/a	n/a	n/a	n/a	n/a	n/a	n/a	n/a	n/a	n/a	n/a	n/a	n/a
1245.118	n/a	WORD	622559	wordpools/wasnorm_wordpool.txt	LTP125	ltpFR	12	4	1	WINE	1613	n/a	0	n/a	0	0	0	1	0.412841796875	0.57763671875	upper	../fonts/zerothre.ttf
1248.122	n/a	START	624061	n/a	LTP125	ltpFR	12	n/a	n/a	n/a	n/a	n/a	n/a	n/a	n/a	n/a	n/a	n/a	n/a	n/a	n/a	n/a
1249.302	n/a	PROB	624651	n/a	LTP125	ltpFR	12	n/a	n/a	n/a	n/a	n/a	n/a	8	1	6	1	n/a	n/a	n/a	n/a	n/a
1250.444	n/a	PROB	625222	n/a	LTP125	ltpFR	12	n/a	n/a	n/a	n/a	n/a	n/a	19	8	5	6	n/a	n/a	n/a	n/a	n/a
1251.808	n/a	PROB	625904	n/a	LTP125	ltpFR	12	n/a	n/a	n/a	n/a	n/a	n/a	13	1	5	7	n/a	n/a	n/a	n/a	n/a
1253.606	n/a	PROB	626803	n/a	LTP125	ltpFR	12	n/a	n/a	n/a	n/a	n/a	n/a	10	2	4	4	n/a	n/a	n/a	n/a	n/a
1254.772	n/a	PROB	627386	n/a	LTP125	ltpFR	12	n/a	n/a	n/a	n/a	n/a	n/a	9	4	1	3	n/a	n/a	n/a	n/a	n/a
1256.486	n/a	PROB	628243	n/a	LTP125	ltpFR	12	n/a	n/a	n/a	n/a	n/a	n/a	9	7	1	2	n/a	n/a	n/a	n/a	n/a
1257.718	n/a	PROB	628859	n/a	LTP125	ltpFR	12	n/a	n/a	n/a	n/a	n/a	n/a	13	1	2	9	n/a	n/a	n/a	n/a	n/a
1259.524	n/a	PROB	629762	n/a	LTP125	ltpFR	12	n/a	n/a	n/a	n/a	n/a	n/a	15	5	4	6	n/a	n/a	n/a	n/a	n/a
1261.116	n/a	PROB	630558	n/a	LTP125	ltpFR	12	n/a	n/a	n/a	n/a	n/a	n/a	15	1	6	8	n/a	n/a	n/a	n/a	n/a
1262.222	n/a	PROB	631111	n/a	LTP125	ltpFR	12	n/a	n/a	n/a	n/a	n/a	n/a	21	5	9	7	n/a	n/a	n/a	n/a	n/a
1263.728	n/a	STOP	631864	n/a	LTP125	ltpFR	12	n/a	n/a	n/a	n/a	n/a	n/a	n/a	n/a	n/a	n/a	n/a	n/a	n/a	n/a	n/a
1265.326	n/a	WORD	632663	wordpools/wasnorm_wordpool.txt	LTP125	ltpFR	12	4	1	VIKING	1565	n/a	1	n/a	0	0	0	1	0.412841796875	0.57763671875	upper	../fonts/zerothre.ttf
1268.332	n/a	START	634166	n/a	LTP125	ltpFR	12	n/a	n/a	n/a	n/a	n/a	n/a	n/a	n/a	n/a	n/a	n/a	n/a	n/a	n/a	n/a
1269.264	n/a	PROB	634632	n/a	LTP125	ltpFR	12	n/a	n/a	n/a	n/a	n/a	n/a	13	3	3	7	n/a	n/a	n/a	n/a	n/a
1270.544	n/a	PROB	635272	n/a	LTP125	ltpFR	12	n/a	n/a	n/a	n/a	n/a	n/a	20	6	6	8	n/a	n/a	n/a	n/a	n/a
1272.028	n/a	PROB	636014	n/a	LTP125	ltpFR	12	n/a	n/a	n/a	n/a	n/a	n/a	17	4	6	7	n/a	n/a	n/a	n/a	n/a
1273.692	n/a	PROB	636846	n/a	LTP125	ltpFR	12	n/a	n/a	n/a	n/a	n/a	n/a	14	6	6	2	n/a	n/a	n/a	n/a	n/a
1275.924	n/a	PROB	637962	n/a	LTP125	ltpFR	12	n/a	n/a	n/a	n/a	n/a	n/a	13	4	2	7	n/a	n/a	n/a	n/a	n/a
1279.86	n/a	PROB	639930	n/a	LTP125	ltpFR	12	n/a	n/a	n/a	n/a	n/a	n/a	8	5	2	1	n/a	n/a	n/a	n/a	n/a
1282.24	n/a	PROB	641120	n/a	LTP125	ltpFR	12	n/a	n/a	n/a	n/a	n/a	n/a	15	3	3	9	n/a	n/a	n/a	n/a	n/a
1283.858	n/a	STOP	641929	n/a	LTP125	ltpFR	12	n/a	n/a	n/a	n/a	n/a	n/a	n/a	n/a	n/a	n/a	n/a	n/a	n/a	n/a	n/a
1285.37	n/a	WORD	642685	wordpools/wasnorm_wordpool.txt	LTP125	ltpFR	12	4	1	GHOST	634	n/a	0	n/a	0	0	0	1	0.412841796875	0.57763671875	upper	../fonts/zerothre.ttf
1288.376	n/a	START	644188	n/a	LTP125	ltpFR	12	n/a	n/a	n/a	n/a	n/a	n/a	n/a	n/a	n/a	n/a	n/a	n/a	n/a	n/a	n/a
1289.25	n/a	PROB	644625	n/a	LTP125	ltpFR	12	n/a	n/a	n/a	n/a	n/a	n/a	1	7	7	3	n/a	n/a	n/a	n/a	n/a
1290.448	n/a	PROB	645224	n/a	LTP125	ltpFR	12	n/a	n/a	n/a	n/a	n/a	n/a	11	5	4	2	n/a	n/a	n/a	n/a	n/a
1292.304	n/a	PROB	646152	n/a	LTP125	ltpFR	12	n/a	n/a	n/a	n/a	n/a	n/a	16	4	8	4	n/a	n/a	n/a	n/a	n/a
1294.276	n/a	PROB	647138	n/a	LTP125	ltpFR	12	n/a	n/a	n/a	n/a	n/a	n/a	21	7	5	9	n/a	n/a	n/a	n/a	n/a
1296.316	n/a	PROB	648158	n/a	LTP125	ltpFR	12	n/a	n/a	n/a	n/a	n/a	n/a	12	3	6	3	n/a	n/a	n/a	n/a	n/a
1297.932	n/a	PROB	648966	n/a	LTP125	ltpFR	12	n/a	n/a	n/a	n/a	n/a	n/a	14	9	4	1	n/a	n/a	n/a	n/a	n/a
1299.662	n/a	PROB	649831	n/a	LTP125	ltpFR	12	n/a	n/a	n/a	n/a	n/a	n/a	7	3	1	3	n/a	n/a	n/a	n/a	n/a
1301.51	n/a	PROB	650755	n/a	LTP125	ltpFR	12	n/a	n/a	n/a	n/a	n/a	n/a	14	2	6	6	n/a	n/a	n/a	n/a	n/a
1302.7	n/a	PROB	651350	n/a	LTP125	ltpFR	12	n/a	n/a	n/a	n/a	n/a	n/a	20	9	2	9	n/a	n/a	n/a	n/a	n/a
1304.082	n/a	STOP	652041	n/a	LTP125	ltpFR	12	n/a	n/a	n/a	n/a	n/a	n/a	n/a	n/a	n/a	n/a	n/a	n/a	n/a	n/a	n/a
1305.348	n/a	WORD	652674	wordpools/wasnorm_wordpool.txt	LTP125	ltpFR	12	4	1	BAKER	71	n/a	1	n/a	0	0	0	1	0.412841796875	0.57763671875	upper	../fonts/zerothre.ttf
1308.352	n/a	START	654176	n/a	LTP125	ltpFR	12	n/a	n/a	n/a	n/a	n/a	n/a	n/a	n/a	n/a	n/a	n/a	n/a	n/a	n/a	n/a
1309.35	n/a	PROB	654675	n/a	LTP125	ltpFR	12	n/a	n/a	n/a	n/a	n/a	n/a	8	5	1	2	n/a	n/a	n/a	n/a	n/a
1311.142	n/a	PROB	655571	n/a	LTP125	ltpFR	12	n/a	n/a	n/a	n/a	n/a	n/a	14	1	5	8	n/a	n/a	n/a	n/a	n/a
1312.648	n/a	PROB	656324	n/a	LTP125	ltpFR	12	n/a	n/a	n/a	n/a	n/a	n/a	15	5	7	3	n/a	n/a	n/a	n/a	n/a
1313.712	n/a	PROB	656856	n/a	LTP125	ltpFR	12	n/a	n/a	n/a	n/a	n/a	n/a	13	1	4	8	n/a	n/a	n/a	n/a	n/a
1315.02	n/a	PROB	657510	n/a	LTP125	ltpFR	12	n/a	n/a	n/a	n/a	n/a	n/a	22	9	8	5	n/a	n/a	n/a	n/a	n/a
1316.56	n/a	PROB	658280	n/a	LTP125	ltpFR	12	n/a	n/a	n/a	n/a	n/a	n/a	16	1	7	8	n/a	n/a	n/a	n/a	n/a
1318.092	n/a	PROB	659046	n/a	LTP125	ltpFR	12	n/a	n/a	n/a	n/a	n/a	n/a	20	7	7	6	n/a	n/a	n/a	n/a	n/a
1319.398	n/a	PROB	659699	n/a	LTP125	ltpFR	12	n/a	n/a	n/a	n/a	n/a	n/a	19	3	8	8	n/a	n/a	n/a	n/a	n/a
1321.164	n/a	PROB	660582	n/a	LTP125	ltpFR	12	n/a	n/a	n/a	n/a	n/a	n/a	21	9	4	9	n/a	n/a	n/a	n/a	n/a
1322.858	n/a	STOP	661429	n/a	LTP125	ltpFR	12	n/a	n/a	n/a	n/a	n/a	n/a	n/a	n/a	n/a	n/a	n/a	n/a	n/a	n/a	n/a
1325.232	n/a	WORD	662616	wordpools/wasnorm_wordpool.txt	LTP125	ltpFR	12	4	1	BILL	126	n/a	0	n/a	0	0	0	1	0.412841796875	0.57763671875	upper	../fonts/zerothre.ttf
1328.238	n/a	START	664119	n/a	LTP125	ltpFR	12	n/a	n/a	n/a	n/a	n/a	n/a	n/a	n/a	n/a	n/a	n/a	n/a	n/a	n/a	n/a
1329.378	n/a	PROB	664689	n/a	LTP125	ltpFR	12	n/a	n/a	n/a	n/a	n/a	n/a	16	7	7	2	n/a	n/a	n/a	n/a	n/a
1330.676	n/a	PROB	665338	n/a	LTP125	ltpFR	12	n/a	n/a	n/a	n/a	n/a	n/a	8	1	4	3	n/a	n/a	n/a	n/a	n/a
1331.734	n/a	PROB	665867	n/a	LTP125	ltpFR	12	n/a	n/a	n/a	n/a	n/a	n/a	21	7	7	9	n/a	n/a	n/a	n/a	n/a
1333.116	n/a	PROB	666558	n/a	LTP125	ltpFR	12	n/a	n/a	n/a	n/a	n/a	n/a	10	1	6	3	n/a	n/a	n/a	n/a	n/a
1334.888	n/a	PROB	667444	n/a	LTP125	ltpFR	12	n/a	n/a	n/a	n/a	n/a	n/a	14	3	7	4	n/a	n/a	n/a	n/a	n/a
1336.236	n/a	PROB	668118	n/a	LTP125	ltpFR	12	n/a	n/a	n/a	n/a	n/a	n/a	11	3	5	3	n/a	n/a	n/a	n/a	n/a
1337.802	n/a	PROB	668901	n/a	LTP125	ltpFR	12	n/a	n/a	n/a	n/a	n/a	n/a	16	4	6	6	n/a	n/a	n/a	n/a	n/a
1340.822	n/a	PROB	670411	n/a	LTP125	ltpFR	12	n/a	n/a	n/a	n/a	n/a	n/a	17	8	8	1	n/a	n/a	n/a	n/a	n/a
1342.23	n/a	PROB	671115	n/a	LTP125	ltpFR	12	n/a	n/a	n/a	n/a	n/a	n/a	13	6	2	5	n/a	n/a	n/a	n/a	n/a
1343.578	n/a	STOP	671789	n/a	LTP125	ltpFR	12	n/a	n/a	n/a	n/a	n/a	n/a	n/a	n/a	n/a	n/a	n/a	n/a	n/a	n/a	n/a
1345.276	n/a	WORD	672638	wordpools/wasnorm_wordpool.txt	LTP125	ltpFR	12	4	1	CLOSET	326	n/a	0	n/a	0	0	0	1	0.412841796875	0.57763671875	upper	../fonts/zerothre.ttf
1348.28	n/a	START	674140	n/a	LTP125	ltpFR	12	n/a	n/a	n/a	n/a	n/a	n/a	n/a	n/a	n/a	n/a	n/a	n/a	n/a	n/a	n/a
1349.322	n/a	PROB	674661	n/a	LTP125	ltpFR	12	n/a	n/a	n/a	n/a	n/a	n/a	14	3	3	8	n/a	n/a	n/a	n/a	n/a
1350.454	n/a	PROB	675227	n/a	LTP125	ltpFR	12	n/a	n/a	n/a	n/a	n/a	n/a	18	1	9	8	n/a	n/a	n/a	n/a	n/a
1351.56	n/a	PROB	675780	n/a	LTP125	ltpFR	12	n/a	n/a	n/a	n/a	n/a	n/a	7	1	1	5	n/a	n/a	n/a	n/a	n/a
1352.642	n/a	PROB	676321	n/a	LTP125	ltpFR	12	n/a	n/a	n/a	n/a	n/a	n/a	18	5	4	9	n/a	n/a	n/a	n/a	n/a
1354.606	n/a	PROB	677303	n/a	LTP125	ltpFR	12	n/a	n/a	n/a	n/a	n/a	n/a	11	3	5	3	n/a	n/a	n/a	n/a	n/a
1356.008	n/a	PROB	678004	n/a	LTP125	ltpFR	12	n/a	n/a	n/a	n/a	n/a	n/a	10	6	2	2	n/a	n/a	n/a	n/a	n/a
1357.322	n/a	PROB	678661	n/a	LTP125	ltpFR	12	n/a	n/a	n/a	n/a	n/a	n/a	10	5	4	1	n/a	n/a	n/a	n/a	n/a
1358.386	n/a	PROB	679193	n/a	LTP125	ltpFR	12	n/a	n/a	n/a	n/a	n/a	n/a	7	3	1	3	n/a	n/a	n/a	n/a	n/a
1360.12	n/a	PROB	680060	n/a	LTP125	ltpFR	12	n/a	n/a	n/a	n/a	n/a	n/a	8	2	6	1	n/a	n/a	n/a	n/a	n/a
1361.542	n/a	PROB	680771	n/a	LTP125	ltpFR	12	n/a	n/a	n/a	n/a	n/a	n/a	22	7	6	9	n/a	n/a	n/a	n/a	n/a
1363.948	n/a	STOP	681974	n/a	LTP125	ltpFR	12	n/a	n/a	n/a	n/a	n/a	n/a	n/a	n/a	n/a	n/a	n/a	n/a	n/a	n/a	n/a
1366.194	n/a	REC_START	683097	n/a	LTP125	ltpFR	12	4	n/a	n/a	n/a	n/a	n/a	n/a	0	0	0	n/a	n/a	n/a	n/a	n/a
1368.864	n/a	REC_WORD	684432	wordpools/wasnorm_wordpool.txt	LTP125	ltpFR	12	4	1	VIKING	1565	n/a	1	n/a	0	0	0	n/a	n/a	n/a	n/a	n/a
1369.676	n/a	REC_WORD	684838	wordpools/wasnorm_wordpool.txt	LTP125	ltpFR	12	4	1	WARRIOR	1589	n/a	1	n/a	0	0	0	n/a	n/a	n/a	n/a	n/a
1370.654	n/a	REC_WORD	685327	wordpools/wasnorm_wordpool.txt	LTP125	ltpFR	12	4	1	PENNY	1045	n/a	0	n/a	0	0	0	n/a	n/a	n/a	n/a	n/a
1371.916	n/a	REC_WORD	685958	wordpools/wasnorm_wordpool.txt	LTP125	ltpFR	12	4	1	FELLOW	558	n/a	1	n/a	0	0	0	n/a	n/a	n/a	n/a	n/a
1373.104	n/a	REC_WORD	686552	wordpools/wasnorm_wordpool.txt	LTP125	ltpFR	12	4	1	GUEST	669	n/a	1	n/a	0	0	0	n/a	n/a	n/a	n/a	n/a
1374.46	n/a	REC_WORD	687230	wordpools/wasnorm_wordpool.txt	LTP125	ltpFR	12	4	1	CONTAINER	366	n/a	0	n/a	0	0	0	n/a	n/a	n/a	n/a	n/a
1375.578	n/a	REC_WORD	687789	wordpools/wasnorm_wordpool.txt	LTP125	ltpFR	12	4	1	BUN	197	n/a	0	n/a	0	0	0	n/a	n/a	n/a	n/a	n/a
1376.236	n/a	REC_WORD	688118	wordpools/wasnorm_wordpool.txt	LTP125	ltpFR	12	4	1	SHOWER	1296	n/a	0	n/a	0	0	0	n/a	n/a	n/a	n/a	n/a
1377.26	n/a	REC_WORD	688630	wordpools/wasnorm_wordpool.txt	LTP125	ltpFR	12	4	0	WAVE	1596	n/a	1	n/a	0	0	0	n/a	n/a	n/a	n/a	n/a
1390.02	n/a	REC_WORD	695010	wordpools/wasnorm_wordpool.txt	LTP125	ltpFR	12	4	1	BAKER	71	n/a	1	n/a	0	0	0	n/a	n/a	n/a	n/a	n/a
1420.94	n/a	REC_WORD	710470	wordpools/wasnorm_wordpool.txt	LTP125	ltpFR	12	4	1	GHOST	634	n/a	0	n/a	0	0	0	n/a	n/a	n/a	n/a	n/a
1446.112	n/a	WORD	723056	wordpools/wasnorm_wordpool.txt	LTP125	ltpFR	12	5	0	GIRL	637	n/a	1	n/a	0	0	0	0	0.5869140625	0.422607421875	lower	../fonts/amplitud.ttf
1450.19	n/a	WORD	725095	wordpools/wasnorm_wordpool.txt	LTP125	ltpFR	12	5	0	BARREL	91	n/a	1	n/a	0	0	0	0	0.5869140625	0.422607421875	lower	../fonts/amplitud.ttf
1454.368	n/a	WORD	727184	wordpools/wasnorm_wordpool.txt	LTP125	ltpFR	12	5	0	FOE	587	n/a	1	n/a	0	0	0	0	0.5869140625	0.422607421875	lower	../fonts/amplitud.ttf
1458.322	n/a	WORD	729161	wordpools/wasnorm_wordpool.txt	LTP125	ltpFR	12	5	1	SOCKET	1340	n/a	0	n/a	0	0	0	1	0.412841796875	0.57763671875	upper	../fonts/zerothre.ttf
1462.16	n/a	WORD	731080	wordpools/wasnorm_wordpool.txt	LTP125	ltpFR	12	5	1	BANK	83	n/a	0	n/a	0	0	0	1	0.412841796875	0.57763671875	upper	../fonts/zerothre.ttf
1466.064	n/a	WORD	733032	wordpools/wasnorm_wordpool.txt	LTP125	ltpFR	12	5	0	DOG	480	n/a	1	n/a	0	0	0	0	0.5869140625	0.422607421875	lower	../fonts/amplitud.ttf
1470.232	n/a	WORD	735116	wordpools/wasnorm_wordpool.txt	LTP125	ltpFR	12	5	0	SHEPHERD	1283	n/a	1	n/a	0	0	0	0	0.5869140625	0.422607421875	lower	../fonts/amplitud.ttf
1474.336	n/a	WORD	737168	wordpools/wasnorm_wordpool.txt	LTP125	ltpFR	12	5	1	MUG	930	n/a	0	n/a	0	0	0	1	0.412841796875	0.57763671875	upper	../fonts/zerothre.ttf
1478.158	n/a	WORD	739079	wordpools/wasnorm_wordpool.txt	LTP125	ltpFR	12	5	1	TOE	1473	n/a	0	n/a	0	0	0	1	0.412841796875	0.57763671875	upper	../fonts/zerothre.ttf
1482.112	n/a	WORD	741056	wordpools/wasnorm_wordpool.txt	LTP125	ltpFR	12	5	1	DOLLAR	482	n/a	0	n/a	0	0	0	1	0.412841796875	0.57763671875	upper	../fonts/zerothre.ttf
1485.958	n/a	WORD	742979	wordpools/wasnorm_wordpool.txt	LTP125	ltpFR	12	5	1	POSTAGE	1113	n/a	0	n/a	0	0	0	1	0.412841796875	0.57763671875	upper	../fonts/zerothre.ttf
1489.928	n/a	WORD	744964	wordpools/wasnorm_wordpool.txt	LTP125	ltpFR	12	5	1	MAILMAN	858	n/a	1	n/a	0	0	0	1	0.412841796875	0.57763671875	upper	../fonts/zerothre.ttf
1493.914	n/a	WORD	746957	wordpools/wasnorm_wordpool.txt	LTP125	ltpFR	12	5	1	SHEARS	1276	n/a	0	n/a	0	0	0	1	0.412841796875	0.57763671875	upper	../fonts/zerothre.ttf
1498.052	n/a	WORD	749026	wordpools/wasnorm_wordpool.txt	LTP125	ltpFR	12	5	0	OATMEAL	967	n/a	0	n/a	0	0	0	0	0.5869140625	0.422607421875	lower	../fonts/amplitud.ttf
1501.956	n/a	WORD	750978	wordpools/wasnorm_wordpool.txt	LTP125	ltpFR	12	5	0	CORN	381	n/a	0	n/a	0	0	0	0	0.5869140625	0.422607421875	lower	../fonts/amplitud.ttf
1505.802	n/a	WORD	752901	wordpools/wasnorm_wordpool.txt	LTP125	ltpFR	12	5	0	ASSOCIATE	49	n/a	1	n/a	0	0	0	0	0.5869140625	0.422607421875	lower	../fonts/amplitud.ttf
1511.678	n/a	REC_START	755839	n/a	LTP125	ltpFR	12	5	n/a	n/a	n/a	n/a	n/a	n/a	0	0	0	n/a	n/a	n/a	n/a	n/a
1512.612	n/a	REC_WORD	756306	wordpools/wasnorm_wordpool.txt	LTP125	ltpFR	12	5	0	OATMEAL	967	n/a	0	n/a	0	0	0	n/a	n/a	n/a	n/a	n/a
1513.364	n/a	REC_WORD	756682	wordpools/wasnorm_wordpool.txt	LTP125	ltpFR	12	5	0	CORN	381	n/a	0	n/a	0	0	0	n/a	n/a	n/a	n/a	n/a
1514.032	n/a	REC_WORD	757016	wordpools/wasnorm_wordpool.txt	LTP125	ltpFR	12	5	0	ASSOCIATE	49	n/a	1	n/a	0	0	0	n/a	n/a	n/a	n/a	n/a
1515.176	n/a	REC_WORD	757588	wordpools/wasnorm_wordpool.txt	LTP125	ltpFR	12	5	1	MAILMAN	858	n/a	1	n/a	0	0	0	n/a	n/a	n/a	n/a	n/a
1516.182	n/a	REC_WORD	758091	wordpools/wasnorm_wordpool.txt	LTP125	ltpFR	12	5	1	POSTAGE	1113	n/a	0	n/a	0	0	0	n/a	n/a	n/a	n/a	n/a
1517.21	n/a	REC_WORD	758605	wordpools/wasnorm_wordpool.txt	LTP125	ltpFR	12	5	1	DOLLAR	482	n/a	0	n/a	0	0	0	n/a	n/a	n/a	n/a	n/a
1521.81	n/a	REC_WORD	760905	wordpools/wasnorm_wordpool.txt	LTP125	ltpFR	12	5	0	BARREL	91	n/a	1	n/a	0	0	0	n/a	n/a	n/a	n/a	n/a
1522.444	n/a	REC_WORD	761222	wordpools/wasnorm_wordpool.txt	LTP125	ltpFR	12	5	0	FOE	587	n/a	1	n/a	0	0	0	n/a	n/a	n/a	n/a	n/a
1523.456	n/a	REC_WORD	761728	wordpools/wasnorm_wordpool.txt	LTP125	ltpFR	12	5	0	GIRL	637	n/a	1	n/a	0	0	0	n/a	n/a	n/a	n/a	n/a
1524.23	n/a	REC_WORD	762115	wordpools/wasnorm_wordpool.txt	LTP125	ltpFR	12	5	1	SOCKET	1340	n/a	0	n/a	0	0	0	n/a	n/a	n/a	n/a	n/a
1525.302	n/a	REC_WORD	762651	wordpools/wasnorm_wordpool.txt	LTP125	ltpFR	12	5	1	BANK	83	n/a	0	n/a	0	0	0	n/a	n/a	n/a	n/a	n/a
1528.74	n/a	REC_WORD	764370	wordpools/wasnorm_wordpool.txt	LTP125	ltpFR	12	5	1	MUG	930	n/a	0	n/a	0	0	0	n/a	n/a	n/a	n/a	n/a
1547.71	n/a	REC_WORD	773855	wordpools/wasnorm_wordpool.txt	LTP125	ltpFR	12	5	0	ASSOCIATE	49	n/a	1	n/a	0	0	0	n/a	n/a	n/a	n/a	n/a
1556.132	n/a	REC_WORD	778066	wordpools/wasnorm_wordpool.txt	LTP125	ltpFR	12	5	1	TOE	1473	n/a	0	n/a	0	0	0	n/a	n/a	n/a	n/a	n/a
1590.122	n/a	WORD	795061	wordpools/wasnorm_wordpool.txt	LTP125	ltpFR	12	6	1	AUTHOR	61	n/a	1	n/a	0	0	0	1	0.412841796875	0.57763671875	upper	../fonts/zerothre.ttf
1594.282	n/a	WORD	797141	wordpools/wasnorm_wordpool.txt	LTP125	ltpFR	12	6	1	DESK	452	n/a	0	n/a	0	0	0	1	0.412841796875	0.57763671875	upper	../fonts/zerothre.ttf
1598.244	n/a	WORD	799122	wordpools/wasnorm_wordpool.txt	LTP125	ltpFR	12	6	0	PERSONNEL	1053	n/a	1	n/a	0	0	0	0	0.5869140625	0.422607421875	lower	../fonts/amplitud.ttf
1602.232	n/a	WORD	801116	wordpools/wasnorm_wordpool.txt	LTP125	ltpFR	12	6	0	PATIO	1025	n/a	1	n/a	0	0	0	0	0.5869140625	0.422607421875	lower	../fonts/amplitud.ttf
1606.136	n/a	WORD	803068	wordpools/wasnorm_wordpool.txt	LTP125	ltpFR	12	6	0	BRAKE	166	n/a	0	n/a	0	0	0	0	0.5869140625	0.422607421875	lower	../fonts/amplitud.ttf
1610.108	n/a	WORD	805054	wordpools/wasnorm_wordpool.txt	LTP125	ltpFR	12	6	0	KNUCKLE	789	n/a	0	n/a	0	0	0	0	0.5869140625	0.422607421875	lower	../fonts/amplitud.ttf
1614.102	n/a	WORD	807051	wordpools/wasnorm_wordpool.txt	LTP125	ltpFR	12	6	1	MARINE	869	n/a	0	n/a	0	0	0	1	0.412841796875	0.57763671875	upper	../fonts/zerothre.ttf
1618.048	n/a	WORD	809024	wordpools/wasnorm_wordpool.txt	LTP125	ltpFR	12	6	1	BENCH	121	n/a	0	n/a	0	0	0	1	0.412841796875	0.57763671875	upper	../fonts/zerothre.ttf
1622.076	n/a	WORD	811038	wordpools/wasnorm_wordpool.txt	LTP125	ltpFR	12	6	1	LUNCH	849	n/a	0	n/a	0	0	0	1	0.412841796875	0.57763671875	upper	../fonts/zerothre.ttf
1625.988	n/a	WORD	812994	wordpools/wasnorm_wordpool.txt	LTP125	ltpFR	12	6	1	FEAST	556	n/a	0	n/a	0	0	0	1	0.412841796875	0.57763671875	upper	../fonts/zerothre.ttf
1630.058	n/a	WORD	815029	wordpools/wasnorm_wordpool.txt	LTP125	ltpFR	12	6	1	PASSENGER	1020	n/a	1	n/a	0	0	0	1	0.412841796875	0.57763671875	upper	../fonts/zerothre.ttf
1634.228	n/a	WORD	817114	wordpools/wasnorm_wordpool.txt	LTP125	ltpFR	12	6	1	YACHT	1629	n/a	0	n/a	0	0	0	1	0.412841796875	0.57763671875	upper	../fonts/zerothre.ttf
1638.158	n/a	WORD	819079	wordpools/wasnorm_wordpool.txt	LTP125	ltpFR	12	6	0	HEART	697	n/a	0	n/a	0	0	0	0	0.5869140625	0.422607421875	lower	../fonts/amplitud.ttf
1642.17	n/a	WORD	821085	wordpools/wasnorm_wordpool.txt	LTP125	ltpFR	12	6	0	LIVER	833	n/a	0	n/a	0	0	0	0	0.5869140625	0.422607421875	lower	../fonts/amplitud.ttf
1645.998	n/a	WORD	822999	wordpools/wasnorm_wordpool.txt	LTP125	ltpFR	12	6	0	PILL	1068	n/a	0	n/a	0	0	0	0	0.5869140625	0.422607421875	lower	../fonts/amplitud.ttf
1649.82	n/a	WORD	824910	wordpools/wasnorm_wordpool.txt	LTP125	ltpFR	12	6	0	CLAW	319	n/a	0	n/a	0	0	0	0	0.5869140625	0.422607421875	lower	../fonts/amplitud.ttf
1652.824	n/a	START	826412	n/a	LTP125	ltpFR	12	n/a	n/a	n/a	n/a	n/a	n/a	n/a	n/a	n/a	n/a	n/a	n/a	n/a	n/a	n/a
1653.814	n/a	PROB	826907	n/a	LTP125	ltpFR	12	n/a	n/a	n/a	n/a	n/a	n/a	13	7	1	5	n/a	n/a	n/a	n/a	n/a
1655.43	n/a	PROB	827715	n/a	LTP125	ltpFR	12	n/a	n/a	n/a	n/a	n/a	n/a	14	5	1	8	n/a	n/a	n/a	n/a	n/a
1656.878	n/a	PROB	828439	n/a	LTP125	ltpFR	12	n/a	n/a	n/a	n/a	n/a	n/a	21	7	7	7	n/a	n/a	n/a	n/a	n/a
1658.31	n/a	PROB	829155	n/a	LTP125	ltpFR	12	n/a	n/a	n/a	n/a	n/a	n/a	11	5	1	5	n/a	n/a	n/a	n/a	n/a
1659.43	n/a	STOP	829715	n/a	LTP125	ltpFR	12	n/a	n/a	n/a	n/a	n/a	n/a	n/a	n/a	n/a	n/a	n/a	n/a	n/a	n/a	n/a
1662.654	n/a	REC_START	831327	n/a	LTP125	ltpFR	12	6	n/a	n/a	n/a	n/a	n/a	n/a	0	0	0	n/a	n/a	n/a	n/a	n/a
1663.592	n/a	REC_WORD	831796	wordpools/wasnorm_wordpool.txt	LTP125	ltpFR	12	6	0	CLAW	319	n/a	0	n/a	0	0	0	n/a	n/a	n/a	n/a	n/a
1664.6	n/a	REC_WORD	832300	wordpools/wasnorm_wordpool.txt	LTP125	ltpFR	12	6	0	PILL	1068	n/a	0	n/a	0	0	0	n/a	n/a	n/a	n/a	n/a
1667.968	n/a	REC_WORD	833984	wordpools/wasnorm_wordpool.txt	LTP125	ltpFR	12	6	0	LIVER	833	n/a	0	n/a	0	0	0	n/a	n/a	n/a	n/a	n/a
1668.626	n/a	REC_WORD	834313	wordpools/wasnorm_wordpool.txt	LTP125	ltpFR	12	6	0	HEART	697	n/a	0	n/a	0	0	0	n/a	n/a	n/a	n/a	n/a
1670.786	n/a	REC_WORD	835393	wordpools/wasnorm_wordpool.txt	LTP125	ltpFR	12	6	1	LUNCH	849	n/a	0	n/a	0	0	0	n/a	n/a	n/a	n/a	n/a
1671.818	n/a	REC_WORD	835909	wordpools/wasnorm_wordpool.txt	LTP125	ltpFR	12	6	1	BENCH	121	n/a	0	n/a	0	0	0	n/a	n/a	n/a	n/a	n/a
1672.622	n/a	REC_WORD	836311	wordpools/wasnorm_wordpool.txt	LTP125	ltpFR	12	6	1	FEAST	556	n/a	0	n/a	0	0	0	n/a	n/a	n/a	n/a	n/a
1675.246	n/a	REC_WORD	837623	wordpools/wasnorm_wordpool.txt	LTP125	ltpFR	12	6	0	PATIO	1025	n/a	1	n/a	0	0	0	n/a	n/a	n/a	n/a	n/a
1675.954	n/a	REC_WORD	837977	wordpools/wasnorm_wordpool.txt	LTP125	ltpFR	12	6	0	PERSONNEL	1053	n/a	1	n/a	0	0	0	n/a	n/a	n/a	n/a	n/a
1677.142	n/a	REC_WORD	838571	wordpools/wasnorm_wordpool.txt	LTP125	ltpFR	12	6	1	AUTHOR	61	n/a	1	n/a	0	0	0	n/a	n/a	n/a	n/a	n/a
1678.13	n/a	REC_WORD	839065	wordpools/wasnorm_wordpool.txt	LTP125	ltpFR	12	6	1	DESK	452	n/a	0	n/a	0	0	0	n/a	n/a	n/a	n/a	n/a
1713.588	n/a	REC_WORD	856794	wordpools/wasnorm_wordpool.txt	LTP125	ltpFR	12	6	1	PASSENGER	1020	n/a	1	n/a	0	0	0	n/a	n/a	n/a	n/a	n/a
1714.79	n/a	REC_WORD	857395	wordpools/wasnorm_wordpool.txt	LTP125	ltpFR	12	6	1	YACHT	1629	n/a	0	n/a	0	0	0	n/a	n/a	n/a	n/a	n/a
1741.148	n/a	WORD	870574	wordpools/wasnorm_wordpool.txt	LTP125	ltpFR	12	7	0	UNICORN	1538	n/a	1	n/a	0	0	0	0	0.5869140625	0.422607421875	lower	../fonts/amplitud.ttf
1745.17	n/a	WORD	872585	wordpools/wasnorm_wordpool.txt	LTP125	ltpFR	12	7	0	CAT	257	n/a	0	n/a	0	0	0	0	0.5869140625	0.422607421875	lower	../fonts/amplitud.ttf
1749.23	n/a	WORD	874615	wordpools/wasnorm_wordpool.txt	LTP125	ltpFR	12	7	0	ANTELOPE	27	n/a	1	n/a	0	0	0	0	0.5869140625	0.422607421875	lower	../fonts/amplitud.ttf
1753.25	n/a	WORD	876625	wordpools/wasnorm_wordpool.txt	LTP125	ltpFR	12	7	0	BISON	131	n/a	1	n/a	0	0	0	0	0.5869140625	0.422607421875	lower	../fonts/amplitud.ttf
1757.088	n/a	WORD	878544	wordpools/wasnorm_wordpool.txt	LTP125	ltpFR	12	7	1	ARM	38	n/a	0	n/a	0	0	0	1	0.412841796875	0.57763671875	upper	../fonts/zerothre.ttf
1761.134	n/a	WORD	880567	wordpools/wasnorm_wordpool.txt	LTP125	ltpFR	12	7	1	KIDNEY	776	n/a	0	n/a	0	0	0	1	0.412841796875	0.57763671875	upper	../fonts/zerothre.ttf
1765.18	n/a	WORD	882590	wordpools/wasnorm_wordpool.txt	LTP125	ltpFR	12	7	1	CRIMINAL	409	n/a	1	n/a	0	0	0	1	0.412841796875	0.57763671875	upper	../fonts/zerothre.ttf
1769.366	n/a	WORD	884683	wordpools/wasnorm_wordpool.txt	LTP125	ltpFR	12	7	1	SICKLE	1302	n/a	0	n/a	0	0	0	1	0.412841796875	0.57763671875	upper	../fonts/zerothre.ttf
1773.41	n/a	WORD	886705	wordpools/wasnorm_wordpool.txt	LTP125	ltpFR	12	7	0	OX	994	n/a	1	n/a	0	0	0	0	0.5869140625	0.422607421875	lower	../fonts/amplitud.ttf
1777.598	n/a	WORD	888799	wordpools/wasnorm_wordpool.txt	LTP125	ltpFR	12	7	0	RACK	1154	n/a	0	n/a	0	0	0	0	0.5869140625	0.422607421875	lower	../fonts/amplitud.ttf
1781.442	n/a	WORD	890721	wordpools/wasnorm_wordpool.txt	LTP125	ltpFR	12	7	0	MOTORCYCLE	923	n/a	1	n/a	0	0	0	0	0.5869140625	0.422607421875	lower	../fonts/amplitud.ttf
1785.28	n/a	WORD	892640	wordpools/wasnorm_wordpool.txt	LTP125	ltpFR	12	7	0	PAD	998	n/a	0	n/a	0	0	0	0	0.5869140625	0.422607421875	lower	../fonts/amplitud.ttf
1789.384	n/a	WORD	894692	wordpools/wasnorm_wordpool.txt	LTP125	ltpFR	12	7	1	SPHINX	1349	n/a	0	n/a	0	0	0	1	0.412841796875	0.57763671875	upper	../fonts/zerothre.ttf
1793.222	n/a	WORD	896611	wordpools/wasnorm_wordpool.txt	LTP125	ltpFR	12	7	1	MUMMY	932	n/a	0	n/a	0	0	0	1	0.412841796875	0.57763671875	upper	../fonts/zerothre.ttf
1797.184	n/a	WORD	898592	wordpools/wasnorm_wordpool.txt	LTP125	ltpFR	12	7	1	ANKLE	24	n/a	0	n/a	0	0	0	1	0.412841796875	0.57763671875	upper	../fonts/zerothre.ttf
1801.18	n/a	WORD	900590	wordpools/wasnorm_wordpool.txt	LTP125	ltpFR	12	7	1	PUPPY	1144	n/a	1	n/a	0	0	0	1	0.412841796875	0.57763671875	upper	../fonts/zerothre.ttf
1804.186	n/a	START	902093	n/a	LTP125	ltpFR	12	n/a	n/a	n/a	n/a	n/a	n/a	n/a	n/a	n/a	n/a	n/a	n/a	n/a	n/a	n/a
1805.266	n/a	PROB	902633	n/a	LTP125	ltpFR	12	n/a	n/a	n/a	n/a	n/a	n/a	14	5	3	6	n/a	n/a	n/a	n/a	n/a
1807.156	n/a	PROB	903578	n/a	LTP125	ltpFR	12	n/a	n/a	n/a	n/a	n/a	n/a	12	3	8	1	n/a	n/a	n/a	n/a	n/a
1809.244	n/a	PROB	904622	n/a	LTP125	ltpFR	12	n/a	n/a	n/a	n/a	n/a	n/a	12	2	9	1	n/a	n/a	n/a	n/a	n/a
1810.484	n/a	PROB	905242	n/a	LTP125	ltpFR	12	n/a	n/a	n/a	n/a	n/a	n/a	14	7	4	3	n/a	n/a	n/a	n/a	n/a
1813.64	n/a	PROB	906820	n/a	LTP125	ltpFR	12	n/a	n/a	n/a	n/a	n/a	n/a	21	6	8	7	n/a	n/a	n/a	n/a	n/a
1815.064	n/a	PROB	907532	n/a	LTP125	ltpFR	12	n/a	n/a	n/a	n/a	n/a	n/a	16	8	2	6	n/a	n/a	n/a	n/a	n/a
1816.87	n/a	PROB	908435	n/a	LTP125	ltpFR	12	n/a	n/a	n/a	n/a	n/a	n/a	14	5	1	8	n/a	n/a	n/a	n/a	n/a
1818.45	n/a	PROB	909225	n/a	LTP125	ltpFR	12	n/a	n/a	n/a	n/a	n/a	n/a	19	9	9	1	n/a	n/a	n/a	n/a	n/a
1819.85	n/a	STOP	909925	n/a	LTP125	ltpFR	12	n/a	n/a	n/a	n/a	n/a	n/a	n/a	n/a	n/a	n/a	n/a	n/a	n/a	n/a	n/a
1821.956	n/a	REC_START	910978	n/a	LTP125	ltpFR	12	7	n/a	n/a	n/a	n/a	n/a	n/a	0	0	0	n/a	n/a	n/a	n/a	n/a
1822.688	n/a	REC_WORD	911344	wordpools/wasnorm_wordpool.txt	LTP125	ltpFR	12	7	1	SPHINX	1349	n/a	0	n/a	0	0	0	n/a	n/a	n/a	n/a	n/a
1823.836	n/a	REC_WORD	911918	wordpools/wasnorm_wordpool.txt	LTP125	ltpFR	12	7	1	MUMMY	932	n/a	0	n/a	0	0	0	n/a	n/a	n/a	n/a	n/a
1825.398	n/a	REC_WORD	912699	wordpools/wasnorm_wordpool.txt	LTP125	ltpFR	12	7	1	PUPPY	1144	n/a	1	n/a	0	0	0	n/a	n/a	n/a	n/a	n/a
1826.896	n/a	REC_WORD	913448	wordpools/wasnorm_wordpool.txt	LTP125	ltpFR	12	7	0	CAT	257	n/a	0	n/a	0	0	0	n/a	n/a	n/a	n/a	n/a
1827.798	n/a	REC_WORD	913899	wordpools/wasnorm_wordpool.txt	LTP125	ltpFR	12	7	0	OX	994	n/a	1	n/a	0	0	0	n/a	n/a	n/a	n/a	n/a
1828.662	n/a	REC_WORD	914331	wordpools/wasnorm_wordpool.txt	LTP125	ltpFR	12	7	0	BISON	131	n/a	1	n/a	0	0	0	n/a	n/a	n/a	n/a	n/a
1829.568	n/a	REC_WORD	914784	wordpools/wasnorm_wordpool.txt	LTP125	ltpFR	12	7	0	ANTELOPE	27	n/a	1	n/a	0	0	0	n/a	n/a	n/a	n/a	n/a
1830.426	n/a	REC_WORD	915213	wordpools/wasnorm_wordpool.txt	LTP125	ltpFR	12	7	0	UNICORN	1538	n/a	1	n/a	0	0	0	n/a	n/a	n/a	n/a	n/a
1831.854	n/a	REC_WORD	915927	wordpools/wasnorm_wordpool.txt	LTP125	ltpFR	12	7	1	ARM	38	n/a	0	n/a	0	0	0	n/a	n/a	n/a	n/a	n/a
1833.79	n/a	REC_WORD	916895	wordpools/wasnorm_wordpool.txt	LTP125	ltpFR	12	7	1	CRIMINAL	409	n/a	1	n/a	0	0	0	n/a	n/a	n/a	n/a	n/a
1840.154	n/a	REC_WORD	920077	wordpools/wasnorm_wordpool.txt	LTP125	ltpFR	12	7	0	PAD	998	n/a	0	n/a	0	0	0	n/a	n/a	n/a	n/a	n/a
1840.938	n/a	REC_WORD	920469	wordpools/wasnorm_wordpool.txt	LTP125	ltpFR	12	7	0	RACK	1154	n/a	0	n/a	0	0	0	n/a	n/a	n/a	n/a	n/a
1841.732	n/a	REC_WORD	920866	wordpools/wasnorm_wordpool.txt	LTP125	ltpFR	12	7	0	MOTORCYCLE	923	n/a	1	n/a	0	0	0	n/a	n/a	n/a	n/a	n/a
1856.168	n/a	REC_WORD	928084	wordpools/wasnorm_wordpool.txt	LTP125	ltpFR	12	7	1	KIDNEY	776	n/a	0	n/a	0	0	0	n/a	n/a	n/a	n/a	n/a
1901.696	n/a	WORD	950848	wordpools/wasnorm_wordpool.txt	LTP125	ltpFR	12	8	1	PROFESSOR	1131	n/a	1	n/a	0	0	0	1	0.412841796875	0.57763671875	upper	../fonts/zerothre.ttf
1905.842	n/a	WORD	952921	wordpools/wasnorm_wordpool.txt	LTP125	ltpFR	12	8	1	CELERY	266	n/a	0	n/a	0	0	0	1	0.412841796875	0.57763671875	upper	../fonts/zerothre.ttf
1909.67	n/a	WORD	954835	wordpools/wasnorm_wordpool.txt	LTP125	ltpFR	12	8	1	SCALE	1241	n/a	0	n/a	0	0	0	1	0.412841796875	0.57763671875	upper	../fonts/zerothre.ttf
1913.516	n/a	WORD	956758	wordpools/wasnorm_wordpool.txt	LTP125	ltpFR	12	8	1	SKELETON	1314	n/a	0	n/a	0	0	0	1	0.412841796875	0.57763671875	upper	../fonts/zerothre.ttf
1917.512	n/a	WORD	958756	wordpools/wasnorm_wordpool.txt	LTP125	ltpFR	12	8	1	RECIPE	1175	n/a	0	n/a	0	0	0	1	0.412841796875	0.57763671875	upper	../fonts/zerothre.ttf
1921.398	n/a	WORD	960699	wordpools/wasnorm_wordpool.txt	LTP125	ltpFR	12	8	1	TRAY	1498	n/a	0	n/a	0	0	0	1	0.412841796875	0.57763671875	upper	../fonts/zerothre.ttf
1925.428	n/a	WORD	962714	wordpools/wasnorm_wordpool.txt	LTP125	ltpFR	12	8	1	ZUCCHINI	1638	n/a	0	n/a	0	0	0	1	0.412841796875	0.57763671875	upper	../fonts/zerothre.ttf
1929.34	n/a	WORD	964670	wordpools/wasnorm_wordpool.txt	LTP125	ltpFR	12	8	1	REFRIGERATOR	1179	n/a	0	n/a	0	0	0	1	0.412841796875	0.57763671875	upper	../fonts/zerothre.ttf
1933.394	n/a	WORD	966697	wordpools/wasnorm_wordpool.txt	LTP125	ltpFR	12	8	1	SCARECROW	1245	n/a	0	n/a	0	0	0	1	0.412841796875	0.57763671875	upper	../fonts/zerothre.ttf
1937.48	n/a	WORD	968740	wordpools/wasnorm_wordpool.txt	LTP125	ltpFR	12	8	1	PUPIL	1143	n/a	0	n/a	0	0	0	1	0.412841796875	0.57763671875	upper	../fonts/zerothre.ttf
1941.294	n/a	WORD	970647	wordpools/wasnorm_wordpool.txt	LTP125	ltpFR	12	8	1	ICE	730	n/a	0	n/a	0	0	0	1	0.412841796875	0.57763671875	upper	../fonts/zerothre.ttf
1945.33	n/a	WORD	972665	wordpools/wasnorm_wordpool.txt	LTP125	ltpFR	12	8	1	SERVANT	1271	n/a	1	n/a	0	0	0	1	0.412841796875	0.57763671875	upper	../fonts/zerothre.ttf
1949.194	n/a	WORD	974597	wordpools/wasnorm_wordpool.txt	LTP125	ltpFR	12	8	1	MOAT	903	n/a	0	n/a	0	0	0	1	0.412841796875	0.57763671875	upper	../fonts/zerothre.ttf
1953.388	n/a	WORD	976694	wordpools/wasnorm_wordpool.txt	LTP125	ltpFR	12	8	1	LONDON	843	n/a	0	n/a	0	0	0	1	0.412841796875	0.57763671875	upper	../fonts/zerothre.ttf
1957.234	n/a	WORD	978617	wordpools/wasnorm_wordpool.txt	LTP125	ltpFR	12	8	1	SERVER	1272	n/a	1	n/a	0	0	0	1	0.412841796875	0.57763671875	upper	../fonts/zerothre.ttf
1961.18	n/a	WORD	980590	wordpools/wasnorm_wordpool.txt	LTP125	ltpFR	12	8	1	BUTLER	204	n/a	1	n/a	0	0	0	1	0.412841796875	0.57763671875	upper	../fonts/zerothre.ttf
1964.184	n/a	START	982092	n/a	LTP125	ltpFR	12	n/a	n/a	n/a	n/a	n/a	n/a	n/a	n/a	n/a	n/a	n/a	n/a	n/a	n/a	n/a
1965.208	n/a	PROB	982604	n/a	LTP125	ltpFR	12	n/a	n/a	n/a	n/a	n/a	n/a	16	5	4	7	n/a	n/a	n/a	n/a	n/a
1968.42	n/a	PROB	984210	n/a	LTP125	ltpFR	12	n/a	n/a	n/a	n/a	n/a	n/a	10	1	6	3	n/a	n/a	n/a	n/a	n/a
1969.61	n/a	PROB	984805	n/a	LTP125	ltpFR	12	n/a	n/a	n/a	n/a	n/a	n/a	11	1	8	2	n/a	n/a	n/a	n/a	n/a
1970.682	n/a	STOP	985341	n/a	LTP125	ltpFR	12	n/a	n/a	n/a	n/a	n/a	n/a	n/a	n/a	n/a	n/a	n/a	n/a	n/a	n/a	n/a
1974.108	n/a	REC_START	987054	n/a	LTP125	ltpFR	12	8	n/a	n/a	n/a	n/a	n/a	n/a	0	0	0	n/a	n/a	n/a	n/a	n/a
1974.74	n/a	REC_WORD	987370	wordpools/wasnorm_wordpool.txt	LTP125	ltpFR	12	8	1	PROFESSOR	1131	n/a	1	n/a	0	0	0	n/a	n/a	n/a	n/a	n/a
1975.714	n/a	REC_WORD	987857	wordpools/wasnorm_wordpool.txt	LTP125	ltpFR	12	8	1	SERVANT	1271	n/a	1	n/a	0	0	0	n/a	n/a	n/a	n/a	n/a
1976.682	n/a	REC_WORD	988341	wordpools/wasnorm_wordpool.txt	LTP125	ltpFR	12	8	1	SERVER	1272	n/a	1	n/a	0	0	0	n/a	n/a	n/a	n/a	n/a
1977.974	n/a	REC_WORD	988987	wordpools/wasnorm_wordpool.txt	LTP125	ltpFR	12	8	1	BUTLER	204	n/a	1	n/a	0	0	0	n/a	n/a	n/a	n/a	n/a
1979.026	n/a	REC_WORD	989513	wordpools/wasnorm_wordpool.txt	LTP125	ltpFR	12	8	1	CELERY	266	n/a	0	n/a	0	0	0	n/a	n/a	n/a	n/a	n/a
1980.014	n/a	REC_WORD	990007	wordpools/wasnorm_wordpool.txt	LTP125	ltpFR	12	8	1	ZUCCHINI	1638	n/a	0	n/a	0	0	0	n/a	n/a	n/a	n/a	n/a
1981.24	n/a	REC_WORD	990620	wordpools/wasnorm_wordpool.txt	LTP125	ltpFR	12	8	1	SCALE	1241	n/a	0	n/a	0	0	0	n/a	n/a	n/a	n/a	n/a
1982.358	n/a	REC_WORD	991179	wordpools/wasnorm_wordpool.txt	LTP125	ltpFR	12	8	1	REFRIGERATOR	1179	n/a	0	n/a	0	0	0	n/a	n/a	n/a	n/a	n/a
1987.382	n/a	REC_WORD	993691	wordpools/wasnorm_wordpool.txt	LTP125	ltpFR	12	8	1	TRAY	1498	n/a	0	n/a	0	0	0	n/a	n/a	n/a	n/a	n/a
1988.53	n/a	REC_WORD	994265	wordpools/wasnorm_wordpool.txt	LTP125	ltpFR	12	8	1	ICE	730	n/a	0	n/a	0	0	0	n/a	n/a	n/a	n/a	n/a
1997.898	n/a	REC_WORD	998949	wordpools/wasnorm_wordpool.txt	LTP125	ltpFR	12	8	1	PUPIL	1143	n/a	0	n/a	0	0	0	n/a	n/a	n/a	n/a	n/a
2017.794	n/a	REC_WORD	1008897	wordpools/wasnorm_wordpool.txt	LTP125	ltpFR	12	8	1	RECIPE	1175	n/a	0	n/a	0	0	0	n/a	n/a	n/a	n/a	n/a
2053.864	n/a	WORD	1026932	wordpools/wasnorm_wordpool.txt	LTP125	ltpFR	12	9	1	FIREMAN	569	n/a	1	n/a	0	0	0	1	0.412841796875	0.57763671875	upper	../fonts/zerothre.ttf
2057.844	n/a	WORD	1028922	wordpools/wasnorm_wordpool.txt	LTP125	ltpFR	12	9	1	TENT	1449	n/a	0	n/a	0	0	0	1	0.412841796875	0.57763671875	upper	../fonts/zerothre.ttf
2061.796	n/a	WORD	1030898	wordpools/wasnorm_wordpool.txt	LTP125	ltpFR	12	9	1	CHALK	276	n/a	0	n/a	0	0	0	1	0.412841796875	0.57763671875	upper	../fonts/zerothre.ttf
2065.826	n/a	WORD	1032913	wordpools/wasnorm_wordpool.txt	LTP125	ltpFR	12	9	1	BOARD	143	n/a	0	n/a	0	0	0	1	0.412841796875	0.57763671875	upper	../fonts/zerothre.ttf
2069.796	n/a	WORD	1034898	wordpools/wasnorm_wordpool.txt	LTP125	ltpFR	12	9	0	DINOSAUR	469	n/a	1	n/a	0	0	0	0	0.5869140625	0.422607421875	lower	../fonts/amplitud.ttf
2073.934	n/a	WORD	1036967	wordpools/wasnorm_wordpool.txt	LTP125	ltpFR	12	9	0	PIANO	1057	n/a	1	n/a	0	0	0	0	0.5869140625	0.422607421875	lower	../fonts/amplitud.ttf
2078.036	n/a	WORD	1039018	wordpools/wasnorm_wordpool.txt	LTP125	ltpFR	12	9	1	MAMMAL	861	n/a	1	n/a	0	0	0	1	0.412841796875	0.57763671875	upper	../fonts/zerothre.ttf
2082.032	n/a	WORD	1041016	wordpools/wasnorm_wordpool.txt	LTP125	ltpFR	12	9	1	TAPE	1433	n/a	0	n/a	0	0	0	1	0.412841796875	0.57763671875	upper	../fonts/zerothre.ttf
2086.228	n/a	WORD	1043114	wordpools/wasnorm_wordpool.txt	LTP125	ltpFR	12	9	0	RADISH	1158	n/a	0	n/a	0	0	0	0	0.5869140625	0.422607421875	lower	../fonts/amplitud.ttf
2090.04	n/a	WORD	1045020	wordpools/wasnorm_wordpool.txt	LTP125	ltpFR	12	9	0	SPINACH	1352	n/a	0	n/a	0	0	0	0	0.5869140625	0.422607421875	lower	../fonts/amplitud.ttf
2093.978	n/a	WORD	1046989	wordpools/wasnorm_wordpool.txt	LTP125	ltpFR	12	9	0	CHAIN	273	n/a	1	n/a	0	0	0	0	0.5869140625	0.422607421875	lower	../fonts/amplitud.ttf
2097.982	n/a	WORD	1048991	wordpools/wasnorm_wordpool.txt	LTP125	ltpFR	12	9	0	PAINTER	1004	n/a	1	n/a	0	0	0	0	0.5869140625	0.422607421875	lower	../fonts/amplitud.ttf
2101.86	n/a	WORD	1050930	wordpools/wasnorm_wordpool.txt	LTP125	ltpFR	12	9	0	FIDDLE	561	n/a	1	n/a	0	0	0	0	0.5869140625	0.422607421875	lower	../fonts/amplitud.ttf
2106.056	n/a	WORD	1053028	wordpools/wasnorm_wordpool.txt	LTP125	ltpFR	12	9	0	ANCESTOR	20	n/a	1	n/a	0	0	0	0	0.5869140625	0.422607421875	lower	../fonts/amplitud.ttf
2110.158	n/a	WORD	1055079	wordpools/wasnorm_wordpool.txt	LTP125	ltpFR	12	9	1	FOX	598	n/a	1	n/a	0	0	0	1	0.412841796875	0.57763671875	upper	../fonts/zerothre.ttf
2113.996	n/a	WORD	1056998	wordpools/wasnorm_wordpool.txt	LTP125	ltpFR	12	9	1	ROOF	1205	n/a	0	n/a	0	0	0	1	0.412841796875	0.57763671875	upper	../fonts/zerothre.ttf
2119.974	n/a	REC_START	1059987	n/a	LTP125	ltpFR	12	9	n/a	n/a	n/a	n/a	n/a	n/a	0	0	0	n/a	n/a	n/a	n/a	n/a
2120.99	n/a	REC_WORD	1060495	wordpools/wasnorm_wordpool.txt	LTP125	ltpFR	12	9	1	FIREMAN	569	n/a	1	n/a	0	0	0	n/a	n/a	n/a	n/a	n/a
2122.558	n/a	REC_WORD	1061279	wordpools/wasnorm_wordpool.txt	LTP125	ltpFR	12	9	1	TENT	1449	n/a	0	n/a	0	0	0	n/a	n/a	n/a	n/a	n/a
2124.098	n/a	REC_WORD	1062049	wordpools/wasnorm_wordpool.txt	LTP125	ltpFR	12	9	0	CHAIN	273	n/a	1	n/a	0	0	0	n/a	n/a	n/a	n/a	n/a
2126.912	n/a	REC_WORD	1063456	wordpools/wasnorm_wordpool.txt	LTP125	ltpFR	12	9	0	RADISH	1158	n/a	0	n/a	0	0	0	n/a	n/a	n/a	n/a	n/a
2127.75	n/a	REC_WORD	1063875	wordpools/wasnorm_wordpool.txt	LTP125	ltpFR	12	9	0	SPINACH	1352	n/a	0	n/a	0	0	0	n/a	n/a	n/a	n/a	n/a
2129.108	n/a	REC_WORD	1064554	wordpools/wasnorm_wordpool.txt	LTP125	ltpFR	12	9	0	DINOSAUR	469	n/a	1	n/a	0	0	0	n/a	n/a	n/a	n/a	n/a
2130.57	n/a	REC_WORD	1065285	wordpools/wasnorm_wordpool.txt	LTP125	ltpFR	12	9	1	MAMMAL	861	n/a	1	n/a	0	0	0	n/a	n/a	n/a	n/a	n/a
2131.772	n/a	REC_WORD	1065886	wordpools/wasnorm_wordpool.txt	LTP125	ltpFR	12	9	0	ANCESTOR	20	n/a	1	n/a	0	0	0	n/a	n/a	n/a	n/a	n/a
2133.204	n/a	REC_WORD	1066602	wordpools/wasnorm_wordpool.txt	LTP125	ltpFR	12	9	1	TAPE	1433	n/a	0	n/a	0	0	0	n/a	n/a	n/a	n/a	n/a
2198.532	n/a	WORD	1099266	wordpools/wasnorm_wordpool.txt	LTP125	ltpFR	12	10	1	INN	739	n/a	0	n/a	0	0	0	1	0.412841796875	0.57763671875	upper	../fonts/zerothre.ttf
2202.544	n/a	WORD	1101272	wordpools/wasnorm_wordpool.txt	LTP125	ltpFR	12	10	1	TEA	1439	n/a	0	n/a	0	0	0	1	0.412841796875	0.57763671875	upper	../fonts/zerothre.ttf
2206.622	n/a	WORD	1103311	wordpools/wasnorm_wordpool.txt	LTP125	ltpFR	12	10	0	CREAM	402	n/a	0	n/a	0	0	0	0	0.5869140625	0.422607421875	lower	../fonts/amplitud.ttf
2210.692	n/a	WORD	1105346	wordpools/wasnorm_wordpool.txt	LTP125	ltpFR	12	10	0	WATER	1594	n/a	0	n/a	0	0	0	0	0.5869140625	0.422607421875	lower	../fonts/amplitud.ttf
2214.654	n/a	WORD	1107327	wordpools/wasnorm_wordpool.txt	LTP125	ltpFR	12	10	1	KEY	773	n/a	0	n/a	0	0	0	1	0.412841796875	0.57763671875	upper	../fonts/zerothre.ttf
2218.592	n/a	WORD	1109296	wordpools/wasnorm_wordpool.txt	LTP125	ltpFR	12	10	1	DOCTOR	478	n/a	1	n/a	0	0	0	1	0.412841796875	0.57763671875	upper	../fonts/zerothre.ttf
2222.628	n/a	WORD	1111314	wordpools/wasnorm_wordpool.txt	LTP125	ltpFR	12	10	0	PANTHER	1009	n/a	1	n/a	0	0	0	0	0.5869140625	0.422607421875	lower	../fonts/amplitud.ttf
2226.832	n/a	WORD	1113416	wordpools/wasnorm_wordpool.txt	LTP125	ltpFR	12	10	0	CROOK	412	n/a	1	n/a	0	0	0	0	0.5869140625	0.422607421875	lower	../fonts/amplitud.ttf
2230.92	n/a	WORD	1115460	wordpools/wasnorm_wordpool.txt	LTP125	ltpFR	12	10	0	LOCK	838	n/a	0	n/a	0	0	0	0	0.5869140625	0.422607421875	lower	../fonts/amplitud.ttf
2235.066	n/a	WORD	1117533	wordpools/wasnorm_wordpool.txt	LTP125	ltpFR	12	10	0	WASHCLOTH	1591	n/a	0	n/a	0	0	0	0	0.5869140625	0.422607421875	lower	../fonts/amplitud.ttf
2239.078	n/a	WORD	1119539	wordpools/wasnorm_wordpool.txt	LTP125	ltpFR	12	10	0	BOUILLON	154	n/a	0	n/a	0	0	0	0	0.5869140625	0.422607421875	lower	../fonts/amplitud.ttf
2242.956	n/a	WORD	1121478	wordpools/wasnorm_wordpool.txt	LTP125	ltpFR	12	10	0	DINNER	468	n/a	0	n/a	0	0	0	0	0.5869140625	0.422607421875	lower	../fonts/amplitud.ttf
2246.826	n/a	WORD	1123413	wordpools/wasnorm_wordpool.txt	LTP125	ltpFR	12	10	1	TEENAGER	1444	n/a	1	n/a	0	0	0	1	0.412841796875	0.57763671875	upper	../fonts/zerothre.ttf
2250.914	n/a	WORD	1125457	wordpools/wasnorm_wordpool.txt	LTP125	ltpFR	12	10	1	ADOLESCENT	7	n/a	1	n/a	0	0	0	1	0.412841796875	0.57763671875	upper	../fonts/zerothre.ttf
2255.042	n/a	WORD	1127521	wordpools/wasnorm_wordpool.txt	LTP125	ltpFR	12	10	1	LINT	826	n/a	0	n/a	0	0	0	1	0.412841796875	0.57763671875	upper	../fonts/zerothre.ttf
2259.188	n/a	WORD	1129594	wordpools/wasnorm_wordpool.txt	LTP125	ltpFR	12	10	1	SURF	1412	n/a	0	n/a	0	0	0	1	0.412841796875	0.57763671875	upper	../fonts/zerothre.ttf
2262.194	n/a	START	1131097	n/a	LTP125	ltpFR	12	n/a	n/a	n/a	n/a	n/a	n/a	n/a	n/a	n/a	n/a	n/a	n/a	n/a	n/a	n/a
2263.066	n/a	PROB	1131533	n/a	LTP125	ltpFR	12	n/a	n/a	n/a	n/a	n/a	n/a	11	2	5	4	n/a	n/a	n/a	n/a	n/a
2265.114	n/a	PROB	1132557	n/a	LTP125	ltpFR	12	n/a	n/a	n/a	n/a	n/a	n/a	11	6	2	3	n/a	n/a	n/a	n/a	n/a
2266.828	n/a	PROB	1133414	n/a	LTP125	ltpFR	12	n/a	n/a	n/a	n/a	n/a	n/a	16	6	6	4	n/a	n/a	n/a	n/a	n/a
2268.218	n/a	PROB	1134109	n/a	LTP125	ltpFR	12	n/a	n/a	n/a	n/a	n/a	n/a	14	4	8	2	n/a	n/a	n/a	n/a	n/a
2269.334	n/a	PROB	1134667	n/a	LTP125	ltpFR	12	n/a	n/a	n/a	n/a	n/a	n/a	13	3	5	5	n/a	n/a	n/a	n/a	n/a
2270.508	n/a	PROB	1135254	n/a	LTP125	ltpFR	12	n/a	n/a	n/a	n/a	n/a	n/a	17	7	7	3	n/a	n/a	n/a	n/a	n/a
2272.082	n/a	PROB	1136041	n/a	LTP125	ltpFR	12	n/a	n/a	n/a	n/a	n/a	n/a	16	8	5	3	n/a	n/a	n/a	n/a	n/a
2273.546	n/a	PROB	1136773	n/a	LTP125	ltpFR	12	n/a	n/a	n/a	n/a	n/a	n/a	18	8	3	7	n/a	n/a	n/a	n/a	n/a
2274.71	n/a	PROB	1137355	n/a	LTP125	ltpFR	12	n/a	n/a	n/a	n/a	n/a	n/a	11	5	5	1	n/a	n/a	n/a	n/a	n/a
2275.802	n/a	PROB	1137901	n/a	LTP125	ltpFR	12	n/a	n/a	n/a	n/a	n/a	n/a	13	1	3	9	n/a	n/a	n/a	n/a	n/a
2277.128	n/a	STOP	1138564	n/a	LTP125	ltpFR	12	n/a	n/a	n/a	n/a	n/a	n/a	n/a	n/a	n/a	n/a	n/a	n/a	n/a	n/a	n/a
2280.072	n/a	REC_START	1140036	n/a	LTP125	ltpFR	12	10	n/a	n/a	n/a	n/a	n/a	n/a	0	0	0	n/a	n/a	n/a	n/a	n/a
2281.724	n/a	REC_WORD	1140862	wordpools/wasnorm_wordpool.txt	LTP125	ltpFR	12	10	1	INN	739	n/a	0	n/a	0	0	0	n/a	n/a	n/a	n/a	n/a
2282.556	n/a	REC_WORD	1141278	wordpools/wasnorm_wordpool.txt	LTP125	ltpFR	12	10	1	TEA	1439	n/a	0	n/a	0	0	0	n/a	n/a	n/a	n/a	n/a
2283.544	n/a	REC_WORD	1141772	wordpools/wasnorm_wordpool.txt	LTP125	ltpFR	12	10	0	CREAM	402	n/a	0	n/a	0	0	0	n/a	n/a	n/a	n/a	n/a
2284.772	n/a	REC_WORD	1142386	wordpools/wasnorm_wordpool.txt	LTP125	ltpFR	12	10	0	WATER	1594	n/a	0	n/a	0	0	0	n/a	n/a	n/a	n/a	n/a
2285.85	n/a	REC_WORD	1142925	wordpools/wasnorm_wordpool.txt	LTP125	ltpFR	12	10	1	TEENAGER	1444	n/a	1	n/a	0	0	0	n/a	n/a	n/a	n/a	n/a
2287.062	n/a	REC_WORD	1143531	wordpools/wasnorm_wordpool.txt	LTP125	ltpFR	12	10	1	ADOLESCENT	7	n/a	1	n/a	0	0	0	n/a	n/a	n/a	n/a	n/a
2288.504	n/a	REC_WORD	1144252	wordpools/wasnorm_wordpool.txt	LTP125	ltpFR	12	10	1	DOCTOR	478	n/a	1	n/a	0	0	0	n/a	n/a	n/a	n/a	n/a
2289.62	n/a	REC_WORD	1144810	wordpools/wasnorm_wordpool.txt	LTP125	ltpFR	12	10	1	KEY	773	n/a	0	n/a	0	0	0	n/a	n/a	n/a	n/a	n/a
2290.888	n/a	REC_WORD	1145444	wordpools/wasnorm_wordpool.txt	LTP125	ltpFR	12	10	0	BOUILLON	154	n/a	0	n/a	0	0	0	n/a	n/a	n/a	n/a	n/a
2292.034	n/a	REC_WORD	1146017	wordpools/wasnorm_wordpool.txt	LTP125	ltpFR	12	10	0	LOCK	838	n/a	0	n/a	0	0	0	n/a	n/a	n/a	n/a	n/a
2295.656	n/a	REC_WORD	1147828	wordpools/wasnorm_wordpool.txt	LTP125	ltpFR	12	10	0	WASHCLOTH	1591	n/a	0	n/a	0	0	0	n/a	n/a	n/a	n/a	n/a
2307.276	n/a	REC_WORD	1153638	wordpools/wasnorm_wordpool.txt	LTP125	ltpFR	12	10	0	PANTHER	1009	n/a	1	n/a	0	0	0	n/a	n/a	n/a	n/a	n/a
2355.676	n/a	REST_REWET	1177838	n/a	LTP125	ltpFR	12	10	n/a	n/a	n/a	n/a	n/a	n/a	0	0	0	n/a	n/a	n/a	n/a	n/a
2587.768	n/a	START	1293884	n/a	LTP125	ltpFR	12	n/a	n/a	n/a	n/a	n/a	n/a	n/a	n/a	n/a	n/a	n/a	n/a	n/a	n/a	n/a
2589.274	n/a	PROB	1294637	n/a	LTP125	ltpFR	12	n/a	n/a	n/a	n/a	n/a	n/a	6	2	3	1	n/a	n/a	n/a	n/a	n/a
2590.466	n/a	PROB	1295233	n/a	LTP125	ltpFR	12	n/a	n/a	n/a	n/a	n/a	n/a	4	2	1	1	n/a	n/a	n/a	n/a	n/a
2592.604	n/a	PROB	1296302	n/a	LTP125	ltpFR	12	n/a	n/a	n/a	n/a	n/a	n/a	22	9	9	4	n/a	n/a	n/a	n/a	n/a
2594.036	n/a	PROB	1297018	n/a	LTP125	ltpFR	12	n/a	n/a	n/a	n/a	n/a	n/a	13	2	7	2	n/a	n/a	n/a	n/a	n/a
2596.16	n/a	PROB	1298080	n/a	LTP125	ltpFR	12	n/a	n/a	n/a	n/a	n/a	n/a	6	2	2	2	n/a	n/a	n/a	n/a	n/a
2597.216	n/a	PROB	1298608	n/a	LTP125	ltpFR	12	n/a	n/a	n/a	n/a	n/a	n/a	12	3	8	1	n/a	n/a	n/a	n/a	n/a
2598.648	n/a	PROB	1299324	n/a	LTP125	ltpFR	12	n/a	n/a	n/a	n/a	n/a	n/a	17	7	2	8	n/a	n/a	n/a	n/a	n/a
2600.88	n/a	PROB	1300440	n/a	LTP125	ltpFR	12	n/a	n/a	n/a	n/a	n/a	n/a	6	4	1	1	n/a	n/a	n/a	n/a	n/a
2601.812	n/a	PROB	1300906	n/a	LTP125	ltpFR	12	n/a	n/a	n/a	n/a	n/a	n/a	12	3	2	7	n/a	n/a	n/a	n/a	n/a
2603.044	n/a	STOP	1301522	n/a	LTP125	ltpFR	12	n/a	n/a	n/a	n/a	n/a	n/a	n/a	n/a	n/a	n/a	n/a	n/a	n/a	n/a	n/a
2604.8	n/a	WORD	1302400	wordpools/wasnorm_wordpool.txt	LTP125	ltpFR	12	11	0	EAR	513	n/a	0	n/a	0	0	0	0	0.5869140625	0.422607421875	lower	../fonts/amplitud.ttf
2607.804	n/a	START	1303902	n/a	LTP125	ltpFR	12	n/a	n/a	n/a	n/a	n/a	n/a	n/a	n/a	n/a	n/a	n/a	n/a	n/a	n/a	n/a
2609.004	n/a	PROB	1304502	n/a	LTP125	ltpFR	12	n/a	n/a	n/a	n/a	n/a	n/a	23	8	9	6	n/a	n/a	n/a	n/a	n/a
2611.002	n/a	PROB	1305501	n/a	LTP125	ltpFR	12	n/a	n/a	n/a	n/a	n/a	n/a	17	7	6	4	n/a	n/a	n/a	n/a	n/a
2612.316	n/a	PROB	1306158	n/a	LTP125	ltpFR	12	n/a	n/a	n/a	n/a	n/a	n/a	11	3	3	4	n/a	n/a	n/a	n/a	n/a
2614.164	n/a	PROB	1307082	n/a	LTP125	ltpFR	12	n/a	n/a	n/a	n/a	n/a	n/a	10	2	4	4	n/a	n/a	n/a	n/a	n/a
2618.276	n/a	PROB	1309138	n/a	LTP125	ltpFR	12	n/a	n/a	n/a	n/a	n/a	n/a	24	9	9	6	n/a	n/a	n/a	n/a	n/a
2620.116	n/a	PROB	1310058	n/a	LTP125	ltpFR	12	n/a	n/a	n/a	n/a	n/a	n/a	14	2	6	6	n/a	n/a	n/a	n/a	n/a
2621.396	n/a	PROB	1310698	n/a	LTP125	ltpFR	12	n/a	n/a	n/a	n/a	n/a	n/a	13	9	2	2	n/a	n/a	n/a	n/a	n/a
2622.676	n/a	STOP	1311338	n/a	LTP125	ltpFR	12	n/a	n/a	n/a	n/a	n/a	n/a	n/a	n/a	n/a	n/a	n/a	n/a	n/a	n/a	n/a
2624.652	n/a	WORD	1312326	wordpools/wasnorm_wordpool.txt	LTP125	ltpFR	12	11	0	NOOSE	956	n/a	0	n/a	0	0	0	0	0.5869140625	0.422607421875	lower	../fonts/amplitud.ttf
2627.656	n/a	START	1313828	n/a	LTP125	ltpFR	12	n/a	n/a	n/a	n/a	n/a	n/a	n/a	n/a	n/a	n/a	n/a	n/a	n/a	n/a	n/a
2628.53	n/a	PROB	1314265	n/a	LTP125	ltpFR	12	n/a	n/a	n/a	n/a	n/a	n/a	16	4	6	6	n/a	n/a	n/a	n/a	n/a
2629.728	n/a	PROB	1314864	n/a	LTP125	ltpFR	12	n/a	n/a	n/a	n/a	n/a	n/a	13	8	1	4	n/a	n/a	n/a	n/a	n/a
2631.784	n/a	PROB	1315892	n/a	LTP125	ltpFR	12	n/a	n/a	n/a	n/a	n/a	n/a	8	3	1	4	n/a	n/a	n/a	n/a	n/a
2633.716	n/a	PROB	1316858	n/a	LTP125	ltpFR	12	n/a	n/a	n/a	n/a	n/a	n/a	8	3	2	3	n/a	n/a	n/a	n/a	n/a
2635.58	n/a	PROB	1317790	n/a	LTP125	ltpFR	12	n/a	n/a	n/a	n/a	n/a	n/a	23	8	8	9	n/a	n/a	n/a	n/a	n/a
2638.31	n/a	PROB	1319155	n/a	LTP125	ltpFR	12	n/a	n/a	n/a	n/a	n/a	n/a	17	7	4	6	n/a	n/a	n/a	n/a	n/a
2640.574	n/a	PROB	1320287	n/a	LTP125	ltpFR	12	n/a	n/a	n/a	n/a	n/a	n/a	15	7	7	1	n/a	n/a	n/a	n/a	n/a
2641.64	n/a	PROB	1320820	n/a	LTP125	ltpFR	12	n/a	n/a	n/a	n/a	n/a	n/a	16	4	9	3	n/a	n/a	n/a	n/a	n/a
2643.236	n/a	STOP	1321618	n/a	LTP125	ltpFR	12	n/a	n/a	n/a	n/a	n/a	n/a	n/a	n/a	n/a	n/a	n/a	n/a	n/a	n/a	n/a
2644.844	n/a	WORD	1322422	wordpools/wasnorm_wordpool.txt	LTP125	ltpFR	12	11	0	OMELET	976	n/a	0	n/a	0	0	0	0	0.5869140625	0.422607421875	lower	../fonts/amplitud.ttf
2647.85	n/a	START	1323925	n/a	LTP125	ltpFR	12	n/a	n/a	n/a	n/a	n/a	n/a	n/a	n/a	n/a	n/a	n/a	n/a	n/a	n/a	n/a
2648.656	n/a	PROB	1324328	n/a	LTP125	ltpFR	12	n/a	n/a	n/a	n/a	n/a	n/a	14	4	5	5	n/a	n/a	n/a	n/a	n/a
2649.648	n/a	PROB	1324824	n/a	LTP125	ltpFR	12	n/a	n/a	n/a	n/a	n/a	n/a	15	5	5	5	n/a	n/a	n/a	n/a	n/a
2650.504	n/a	PROB	1325252	n/a	LTP125	ltpFR	12	n/a	n/a	n/a	n/a	n/a	n/a	12	2	8	2	n/a	n/a	n/a	n/a	n/a
2651.586	n/a	PROB	1325793	n/a	LTP125	ltpFR	12	n/a	n/a	n/a	n/a	n/a	n/a	7	1	5	1	n/a	n/a	n/a	n/a	n/a
2652.668	n/a	PROB	1326334	n/a	LTP125	ltpFR	12	n/a	n/a	n/a	n/a	n/a	n/a	14	9	2	3	n/a	n/a	n/a	n/a	n/a
2654.144	n/a	PROB	1327072	n/a	LTP125	ltpFR	12	n/a	n/a	n/a	n/a	n/a	n/a	16	5	6	5	n/a	n/a	n/a	n/a	n/a
2655.516	n/a	PROB	1327758	n/a	LTP125	ltpFR	12	n/a	n/a	n/a	n/a	n/a	n/a	14	2	7	5	n/a	n/a	n/a	n/a	n/a
2656.814	n/a	PROB	1328407	n/a	LTP125	ltpFR	12	n/a	n/a	n/a	n/a	n/a	n/a	12	1	9	2	n/a	n/a	n/a	n/a	n/a
2657.88	n/a	PROB	1328940	n/a	LTP125	ltpFR	12	n/a	n/a	n/a	n/a	n/a	n/a	7	4	2	1	n/a	n/a	n/a	n/a	n/a
2660.368	n/a	PROB	1330184	n/a	LTP125	ltpFR	12	n/a	n/a	n/a	n/a	n/a	n/a	23	8	7	8	n/a	n/a	n/a	n/a	n/a
2661.9	n/a	PROB	1330950	n/a	LTP125	ltpFR	12	n/a	n/a	n/a	n/a	n/a	n/a	13	8	2	3	n/a	n/a	n/a	n/a	n/a
2663.508	n/a	STOP	1331754	n/a	LTP125	ltpFR	12	n/a	n/a	n/a	n/a	n/a	n/a	n/a	n/a	n/a	n/a	n/a	n/a	n/a	n/a	n/a
2664.688	n/a	WORD	1332344	wordpools/wasnorm_wordpool.txt	LTP125	ltpFR	12	11	0	BROTHER	179	n/a	1	n/a	0	0	0	0	0.5869140625	0.422607421875	lower	../fonts/amplitud.ttf
2667.694	n/a	START	1333847	n/a	LTP125	ltpFR	12	n/a	n/a	n/a	n/a	n/a	n/a	n/a	n/a	n/a	n/a	n/a	n/a	n/a	n/a	n/a
2668.768	n/a	PROB	1334384	n/a	LTP125	ltpFR	12	n/a	n/a	n/a	n/a	n/a	n/a	16	3	6	7	n/a	n/a	n/a	n/a	n/a
2669.984	n/a	PROB	1334992	n/a	LTP125	ltpFR	12	n/a	n/a	n/a	n/a	n/a	n/a	17	4	4	9	n/a	n/a	n/a	n/a	n/a
2672.032	n/a	PROB	1336016	n/a	LTP125	ltpFR	12	n/a	n/a	n/a	n/a	n/a	n/a	21	5	8	6	n/a	n/a	n/a	n/a	n/a
2673.488	n/a	PROB	1336744	n/a	LTP125	ltpFR	12	n/a	n/a	n/a	n/a	n/a	n/a	13	3	4	6	n/a	n/a	n/a	n/a	n/a
2674.878	n/a	PROB	1337439	n/a	LTP125	ltpFR	12	n/a	n/a	n/a	n/a	n/a	n/a	18	1	9	8	n/a	n/a	n/a	n/a	n/a
2675.952	n/a	PROB	1337976	n/a	LTP125	ltpFR	12	n/a	n/a	n/a	n/a	n/a	n/a	10	8	1	1	n/a	n/a	n/a	n/a	n/a
2677.216	n/a	PROB	1338608	n/a	LTP125	ltpFR	12	n/a	n/a	n/a	n/a	n/a	n/a	15	7	5	3	n/a	n/a	n/a	n/a	n/a
2678.332	n/a	PROB	1339166	n/a	LTP125	ltpFR	12	n/a	n/a	n/a	n/a	n/a	n/a	18	3	8	7	n/a	n/a	n/a	n/a	n/a
2679.572	n/a	PROB	1339786	n/a	LTP125	ltpFR	12	n/a	n/a	n/a	n/a	n/a	n/a	11	8	2	1	n/a	n/a	n/a	n/a	n/a
2680.812	n/a	PROB	1340406	n/a	LTP125	ltpFR	12	n/a	n/a	n/a	n/a	n/a	n/a	10	2	7	1	n/a	n/a	n/a	n/a	n/a
2682.036	n/a	PROB	1341018	n/a	LTP125	ltpFR	12	n/a	n/a	n/a	n/a	n/a	n/a	13	5	3	5	n/a	n/a	n/a	n/a	n/a
2683.3	n/a	STOP	1341650	n/a	LTP125	ltpFR	12	n/a	n/a	n/a	n/a	n/a	n/a	n/a	n/a	n/a	n/a	n/a	n/a	n/a	n/a	n/a
2684.832	n/a	WORD	1342416	wordpools/wasnorm_wordpool.txt	LTP125	ltpFR	12	11	0	BRANDY	169	n/a	0	n/a	0	0	0	0	0.5869140625	0.422607421875	lower	../fonts/amplitud.ttf
2687.838	n/a	START	1343919	n/a	LTP125	ltpFR	12	n/a	n/a	n/a	n/a	n/a	n/a	n/a	n/a	n/a	n/a	n/a	n/a	n/a	n/a	n/a
2688.704	n/a	PROB	1344352	n/a	LTP125	ltpFR	12	n/a	n/a	n/a	n/a	n/a	n/a	11	6	4	1	n/a	n/a	n/a	n/a	n/a
2689.652	n/a	PROB	1344826	n/a	LTP125	ltpFR	12	n/a	n/a	n/a	n/a	n/a	n/a	13	1	4	8	n/a	n/a	n/a	n/a	n/a
2690.826	n/a	PROB	1345413	n/a	LTP125	ltpFR	12	n/a	n/a	n/a	n/a	n/a	n/a	19	5	6	8	n/a	n/a	n/a	n/a	n/a
2692.134	n/a	PROB	1346067	n/a	LTP125	ltpFR	12	n/a	n/a	n/a	n/a	n/a	n/a	12	5	2	5	n/a	n/a	n/a	n/a	n/a
2693.19	n/a	PROB	1346595	n/a	LTP125	ltpFR	12	n/a	n/a	n/a	n/a	n/a	n/a	5	2	2	1	n/a	n/a	n/a	n/a	n/a
2694.438	n/a	PROB	1347219	n/a	LTP125	ltpFR	12	n/a	n/a	n/a	n/a	n/a	n/a	20	4	8	8	n/a	n/a	n/a	n/a	n/a
2695.754	n/a	PROB	1347877	n/a	LTP125	ltpFR	12	n/a	n/a	n/a	n/a	n/a	n/a	20	6	6	8	n/a	n/a	n/a	n/a	n/a
2697.684	n/a	PROB	1348842	n/a	LTP125	ltpFR	12	n/a	n/a	n/a	n/a	n/a	n/a	15	6	8	1	n/a	n/a	n/a	n/a	n/a
2699.508	n/a	PROB	1349754	n/a	LTP125	ltpFR	12	n/a	n/a	n/a	n/a	n/a	n/a	16	4	8	4	n/a	n/a	n/a	n/a	n/a
2700.882	n/a	PROB	1350441	n/a	LTP125	ltpFR	12	n/a	n/a	n/a	n/a	n/a	n/a	12	1	9	2	n/a	n/a	n/a	n/a	n/a
2703.838	n/a	STOP	1351919	n/a	LTP125	ltpFR	12	n/a	n/a	n/a	n/a	n/a	n/a	n/a	n/a	n/a	n/a	n/a	n/a	n/a	n/a	n/a
2704.81	n/a	WORD	1352405	wordpools/wasnorm_wordpool.txt	LTP125	ltpFR	12	11	0	ICING	732	n/a	0	n/a	0	0	0	0	0.5869140625	0.422607421875	lower	../fonts/amplitud.ttf
2707.814	n/a	START	1353907	n/a	LTP125	ltpFR	12	n/a	n/a	n/a	n/a	n/a	n/a	n/a	n/a	n/a	n/a	n/a	n/a	n/a	n/a	n/a
2708.846	n/a	PROB	1354423	n/a	LTP125	ltpFR	12	n/a	n/a	n/a	n/a	n/a	n/a	10	5	2	3	n/a	n/a	n/a	n/a	n/a
2710.602	n/a	PROB	1355301	n/a	LTP125	ltpFR	12	n/a	n/a	n/a	n/a	n/a	n/a	14	1	8	3	n/a	n/a	n/a	n/a	n/a
2712.7	n/a	PROB	1356350	n/a	LTP125	ltpFR	12	n/a	n/a	n/a	n/a	n/a	n/a	14	3	8	3	n/a	n/a	n/a	n/a	n/a
2714.142	n/a	PROB	1357071	n/a	LTP125	ltpFR	12	n/a	n/a	n/a	n/a	n/a	n/a	16	8	3	5	n/a	n/a	n/a	n/a	n/a
2716.18	n/a	PROB	1358090	n/a	LTP125	ltpFR	12	n/a	n/a	n/a	n/a	n/a	n/a	6	1	1	4	n/a	n/a	n/a	n/a	n/a
2717.244	n/a	PROB	1358622	n/a	LTP125	ltpFR	12	n/a	n/a	n/a	n/a	n/a	n/a	23	7	9	6	n/a	n/a	n/a	n/a	n/a
2719.292	n/a	PROB	1359646	n/a	LTP125	ltpFR	12	n/a	n/a	n/a	n/a	n/a	n/a	13	1	9	3	n/a	n/a	n/a	n/a	n/a
2720.392	n/a	PROB	1360196	n/a	LTP125	ltpFR	12	n/a	n/a	n/a	n/a	n/a	n/a	11	2	7	2	n/a	n/a	n/a	n/a	n/a
2723.814	n/a	STOP	1361907	n/a	LTP125	ltpFR	12	n/a	n/a	n/a	n/a	n/a	n/a	n/a	n/a	n/a	n/a	n/a	n/a	n/a	n/a	n/a
2724.854	n/a	WORD	1362427	wordpools/wasnorm_wordpool.txt	LTP125	ltpFR	12	11	0	BLENDER	136	n/a	1	n/a	0	0	0	0	0.5869140625	0.422607421875	lower	../fonts/amplitud.ttf
2727.86	n/a	START	1363930	n/a	LTP125	ltpFR	12	n/a	n/a	n/a	n/a	n/a	n/a	n/a	n/a	n/a	n/a	n/a	n/a	n/a	n/a	n/a
2728.814	n/a	PROB	1364407	n/a	LTP125	ltpFR	12	n/a	n/a	n/a	n/a	n/a	n/a	19	4	7	8	n/a	n/a	n/a	n/a	n/a
2730.554	n/a	PROB	1365277	n/a	LTP125	ltpFR	12	n/a	n/a	n/a	n/a	n/a	n/a	15	4	8	3	n/a	n/a	n/a	n/a	n/a
2731.812	n/a	PROB	1365906	n/a	LTP125	ltpFR	12	n/a	n/a	n/a	n/a	n/a	n/a	19	4	9	6	n/a	n/a	n/a	n/a	n/a
2733.21	n/a	PROB	1366605	n/a	LTP125	ltpFR	12	n/a	n/a	n/a	n/a	n/a	n/a	17	4	5	8	n/a	n/a	n/a	n/a	n/a
2734.624	n/a	PROB	1367312	n/a	LTP125	ltpFR	12	n/a	n/a	n/a	n/a	n/a	n/a	17	4	9	4	n/a	n/a	n/a	n/a	n/a
2736.59	n/a	PROB	1368295	n/a	LTP125	ltpFR	12	n/a	n/a	n/a	n/a	n/a	n/a	18	1	9	8	n/a	n/a	n/a	n/a	n/a
2737.68	n/a	PROB	1368840	n/a	LTP125	ltpFR	12	n/a	n/a	n/a	n/a	n/a	n/a	6	2	1	3	n/a	n/a	n/a	n/a	n/a
2738.862	n/a	PROB	1369431	n/a	LTP125	ltpFR	12	n/a	n/a	n/a	n/a	n/a	n/a	16	3	5	8	n/a	n/a	n/a	n/a	n/a
2740.418	n/a	PROB	1370209	n/a	LTP125	ltpFR	12	n/a	n/a	n/a	n/a	n/a	n/a	16	7	6	3	n/a	n/a	n/a	n/a	n/a
2743.86	n/a	STOP	1371930	n/a	LTP125	ltpFR	12	n/a	n/a	n/a	n/a	n/a	n/a	n/a	n/a	n/a	n/a	n/a	n/a	n/a	n/a	n/a
2744.982	n/a	WORD	1372491	wordpools/wasnorm_wordpool.txt	LTP125	ltpFR	12	11	0	KETTLE	772	n/a	1	n/a	0	0	0	0	0.5869140625	0.422607421875	lower	../fonts/amplitud.ttf
2747.986	n/a	START	1373993	n/a	LTP125	ltpFR	12	n/a	n/a	n/a	n/a	n/a	n/a	n/a	n/a	n/a	n/a	n/a	n/a	n/a	n/a	n/a
2749.168	n/a	PROB	1374584	n/a	LTP125	ltpFR	12	n/a	n/a	n/a	n/a	n/a	n/a	10	1	8	1	n/a	n/a	n/a	n/a	n/a
2750.308	n/a	PROB	1375154	n/a	LTP125	ltpFR	12	n/a	n/a	n/a	n/a	n/a	n/a	18	7	2	9	n/a	n/a	n/a	n/a	n/a
2752.048	n/a	PROB	1376024	n/a	LTP125	ltpFR	12	n/a	n/a	n/a	n/a	n/a	n/a	17	7	7	3	n/a	n/a	n/a	n/a	n/a
2753.33	n/a	PROB	1376665	n/a	LTP125	ltpFR	12	n/a	n/a	n/a	n/a	n/a	n/a	17	6	6	5	n/a	n/a	n/a	n/a	n/a
2754.878	n/a	PROB	1377439	n/a	LTP125	ltpFR	12	n/a	n/a	n/a	n/a	n/a	n/a	14	3	7	4	n/a	n/a	n/a	n/a	n/a
2756.45	n/a	PROB	1378225	n/a	LTP125	ltpFR	12	n/a	n/a	n/a	n/a	n/a	n/a	8	4	1	3	n/a	n/a	n/a	n/a	n/a
2757.658	n/a	PROB	1378829	n/a	LTP125	ltpFR	12	n/a	n/a	n/a	n/a	n/a	n/a	21	9	5	7	n/a	n/a	n/a	n/a	n/a
2759.322	n/a	PROB	1379661	n/a	LTP125	ltpFR	12	n/a	n/a	n/a	n/a	n/a	n/a	6	1	1	4	n/a	n/a	n/a	n/a	n/a
2760.238	n/a	PROB	1380119	n/a	LTP125	ltpFR	12	n/a	n/a	n/a	n/a	n/a	n/a	18	3	8	7	n/a	n/a	n/a	n/a	n/a
2761.552	n/a	PROB	1380776	n/a	LTP125	ltpFR	12	n/a	n/a	n/a	n/a	n/a	n/a	13	3	3	7	n/a	n/a	n/a	n/a	n/a
2762.638	n/a	STOP	1381319	n/a	LTP125	ltpFR	12	n/a	n/a	n/a	n/a	n/a	n/a	n/a	n/a	n/a	n/a	n/a	n/a	n/a	n/a	n/a
2765.124	n/a	WORD	1382562	wordpools/wasnorm_wordpool.txt	LTP125	ltpFR	12	11	0	OVEN	991	n/a	1	n/a	0	0	0	0	0.5869140625	0.422607421875	lower	../fonts/amplitud.ttf
2768.13	n/a	START	1384065	n/a	LTP125	ltpFR	12	n/a	n/a	n/a	n/a	n/a	n/a	n/a	n/a	n/a	n/a	n/a	n/a	n/a	n/a	n/a
2768.986	n/a	PROB	1384493	n/a	LTP125	ltpFR	12	n/a	n/a	n/a	n/a	n/a	n/a	11	1	2	8	n/a	n/a	n/a	n/a	n/a
2770.102	n/a	PROB	1385051	n/a	LTP125	ltpFR	12	n/a	n/a	n/a	n/a	n/a	n/a	14	5	3	6	n/a	n/a	n/a	n/a	n/a
2771.658	n/a	PROB	1385829	n/a	LTP125	ltpFR	12	n/a	n/a	n/a	n/a	n/a	n/a	17	8	2	7	n/a	n/a	n/a	n/a	n/a
2773.772	n/a	PROB	1386886	n/a	LTP125	ltpFR	12	n/a	n/a	n/a	n/a	n/a	n/a	11	2	8	1	n/a	n/a	n/a	n/a	n/a
2775.104	n/a	PROB	1387552	n/a	LTP125	ltpFR	12	n/a	n/a	n/a	n/a	n/a	n/a	10	4	5	1	n/a	n/a	n/a	n/a	n/a
2776.278	n/a	PROB	1388139	n/a	LTP125	ltpFR	12	n/a	n/a	n/a	n/a	n/a	n/a	16	5	7	4	n/a	n/a	n/a	n/a	n/a
2777.826	n/a	PROB	1388913	n/a	LTP125	ltpFR	12	n/a	n/a	n/a	n/a	n/a	n/a	17	7	2	9	n/a	n/a	n/a	n/a	n/a
2779.916	n/a	PROB	1389958	n/a	LTP125	ltpFR	12	n/a	n/a	n/a	n/a	n/a	n/a	13	6	5	2	n/a	n/a	n/a	n/a	n/a
2781.182	n/a	PROB	1390591	n/a	LTP125	ltpFR	12	n/a	n/a	n/a	n/a	n/a	n/a	5	2	2	1	n/a	n/a	n/a	n/a	n/a
2782.188	n/a	PROB	1391094	n/a	LTP125	ltpFR	12	n/a	n/a	n/a	n/a	n/a	n/a	17	6	2	9	n/a	n/a	n/a	n/a	n/a
2783.726	n/a	STOP	1391863	n/a	LTP125	ltpFR	12	n/a	n/a	n/a	n/a	n/a	n/a	n/a	n/a	n/a	n/a	n/a	n/a	n/a	n/a	n/a
2785.144	n/a	WORD	1392572	wordpools/wasnorm_wordpool.txt	LTP125	ltpFR	12	11	0	ACROBAT	4	n/a	1	n/a	0	0	0	0	0.5869140625	0.422607421875	lower	../fonts/amplitud.ttf
2788.148	n/a	START	1394074	n/a	LTP125	ltpFR	12	n/a	n/a	n/a	n/a	n/a	n/a	n/a	n/a	n/a	n/a	n/a	n/a	n/a	n/a	n/a
2789.212	n/a	PROB	1394606	n/a	LTP125	ltpFR	12	n/a	n/a	n/a	n/a	n/a	n/a	12	8	1	3	n/a	n/a	n/a	n/a	n/a
2792.468	n/a	PROB	1396234	n/a	LTP125	ltpFR	12	n/a	n/a	n/a	n/a	n/a	n/a	24	8	9	9	n/a	n/a	n/a	n/a	n/a
2794.916	n/a	PROB	1397458	n/a	LTP125	ltpFR	12	n/a	n/a	n/a	n/a	n/a	n/a	10	1	3	6	n/a	n/a	n/a	n/a	n/a
2796.038	n/a	PROB	1398019	n/a	LTP125	ltpFR	12	n/a	n/a	n/a	n/a	n/a	n/a	9	2	5	2	n/a	n/a	n/a	n/a	n/a
2797.536	n/a	PROB	1398768	n/a	LTP125	ltpFR	12	n/a	n/a	n/a	n/a	n/a	n/a	7	2	2	3	n/a	n/a	n/a	n/a	n/a
2798.918	n/a	PROB	1399459	n/a	LTP125	ltpFR	12	n/a	n/a	n/a	n/a	n/a	n/a	14	4	8	3	n/a	n/a	n/a	n/a	n/a
2800.176	n/a	PROB	1400088	n/a	LTP125	ltpFR	12	n/a	n/a	n/a	n/a	n/a	n/a	14	5	1	8	n/a	n/a	n/a	n/a	n/a
2801.756	n/a	PROB	1400878	n/a	LTP125	ltpFR	12	n/a	n/a	n/a	n/a	n/a	n/a	19	5	5	9	n/a	n/a	n/a	n/a	n/a
2803.222	n/a	STOP	1401611	n/a	LTP125	ltpFR	12	n/a	n/a	n/a	n/a	n/a	n/a	n/a	n/a	n/a	n/a	n/a	n/a	n/a	n/a	n/a
2805.046	n/a	WORD	1402523	wordpools/wasnorm_wordpool.txt	LTP125	ltpFR	12	11	0	CLOWN	330	n/a	1	n/a	0	0	0	0	0.5869140625	0.422607421875	lower	../fonts/amplitud.ttf
2808.05	n/a	START	1404025	n/a	LTP125	ltpFR	12	n/a	n/a	n/a	n/a	n/a	n/a	n/a	n/a	n/a	n/a	n/a	n/a	n/a	n/a	n/a
2809.116	n/a	PROB	1404558	n/a	LTP125	ltpFR	12	n/a	n/a	n/a	n/a	n/a	n/a	11	1	2	8	n/a	n/a	n/a	n/a	n/a
2810.072	n/a	PROB	1405036	n/a	LTP125	ltpFR	12	n/a	n/a	n/a	n/a	n/a	n/a	6	2	2	2	n/a	n/a	n/a	n/a	n/a
2810.964	n/a	PROB	1405482	n/a	LTP125	ltpFR	12	n/a	n/a	n/a	n/a	n/a	n/a	12	2	7	3	n/a	n/a	n/a	n/a	n/a
2812.178	n/a	PROB	1406089	n/a	LTP125	ltpFR	12	n/a	n/a	n/a	n/a	n/a	n/a	13	6	2	5	n/a	n/a	n/a	n/a	n/a
2814.068	n/a	PROB	1407034	n/a	LTP125	ltpFR	12	n/a	n/a	n/a	n/a	n/a	n/a	13	3	9	1	n/a	n/a	n/a	n/a	n/a
2815.142	n/a	PROB	1407571	n/a	LTP125	ltpFR	12	n/a	n/a	n/a	n/a	n/a	n/a	21	9	7	7	n/a	n/a	n/a	n/a	n/a
2816.516	n/a	PROB	1408258	n/a	LTP125	ltpFR	12	n/a	n/a	n/a	n/a	n/a	n/a	20	6	6	7	n/a	n/a	n/a	n/a	n/a
2817.982	n/a	PROB	1408991	n/a	LTP125	ltpFR	12	n/a	n/a	n/a	n/a	n/a	n/a	14	5	6	3	n/a	n/a	n/a	n/a	n/a
2819.578	n/a	PROB	1409789	n/a	LTP125	ltpFR	12	n/a	n/a	n/a	n/a	n/a	n/a	14	5	7	2	n/a	n/a	n/a	n/a	n/a
2823.35	n/a	STOP	1411675	n/a	LTP125	ltpFR	12	n/a	n/a	n/a	n/a	n/a	n/a	n/a	n/a	n/a	n/a	n/a	n/a	n/a	n/a	n/a
