onset	duration	trial_type	sample	stim_file	subject	experiment	session	trial	item_name	item_num	list	answer	test_x	test_y	test_z
200.4345703125	n/a	SESS_START	410490	n/a	LTP334	ltpFR2	10	n/a	n/a	n/a	n/a	n/a	0	0	0
212.998046875	n/a	START	436220	n/a	LTP334	ltpFR2	10	n/a	n/a	n/a	-1	n/a	n/a	n/a	n/a
213.01220703125	n/a	PROB	436249	n/a	LTP334	ltpFR2	10	n/a	n/a	n/a	-1	14	7	2	5
215.2099609375	n/a	PROB	440750	n/a	LTP334	ltpFR2	10	n/a	n/a	n/a	-1	10	2	7	1
217.5927734375	n/a	PROB	445630	n/a	LTP334	ltpFR2	10	n/a	n/a	n/a	-1	16	3	4	9
219.60888671875	n/a	PROB	449759	n/a	LTP334	ltpFR2	10	n/a	n/a	n/a	-1	16	4	8	4
221.74072265625	n/a	PROB	454125	n/a	LTP334	ltpFR2	10	n/a	n/a	n/a	-1	13	2	7	4
223.69677734375	n/a	STOP	458131	n/a	LTP334	ltpFR2	10	n/a	n/a	n/a	-1	n/a	n/a	n/a	n/a
253.708984375	n/a	DISTRACTOR	519596	n/a	LTP334	ltpFR2	10	1	n/a	n/a	n/a	n/a	0	0	0
253.708984375	n/a	START	519596	n/a	LTP334	ltpFR2	10	n/a	n/a	n/a	1	n/a	n/a	n/a	n/a
253.72607421875	n/a	PROB	519631	n/a	LTP334	ltpFR2	10	n/a	n/a	n/a	1	7	3	1	3
255.091796875	n/a	PROB	522428	n/a	LTP334	ltpFR2	10	n/a	n/a	n/a	1	14	9	1	4
256.65673828125	n/a	PROB	525633	n/a	LTP334	ltpFR2	10	n/a	n/a	n/a	1	15	5	5	5
257.72412109375	n/a	PROB	527819	n/a	LTP334	ltpFR2	10	n/a	n/a	n/a	1	15	6	8	1
259.10595703125	n/a	PROB	530649	n/a	LTP334	ltpFR2	10	n/a	n/a	n/a	1	16	6	8	2
260.638671875	n/a	PROB	533788	n/a	LTP334	ltpFR2	10	n/a	n/a	n/a	1	19	4	7	8
262.37158203125	n/a	PROB	537337	n/a	LTP334	ltpFR2	10	n/a	n/a	n/a	1	14	9	3	1
263.720703125	n/a	PROB	540100	n/a	LTP334	ltpFR2	10	n/a	n/a	n/a	1	23	8	6	9
265.63671875	n/a	PROB	544024	n/a	LTP334	ltpFR2	10	n/a	n/a	n/a	1	11	1	6	4
266.90283203125	n/a	PROB	546617	n/a	LTP334	ltpFR2	10	n/a	n/a	n/a	1	20	9	9	2
268.28564453125	n/a	PROB	549449	n/a	LTP334	ltpFR2	10	n/a	n/a	n/a	1	5	2	1	2
269.41748046875	n/a	PROB	551767	n/a	LTP334	ltpFR2	10	n/a	n/a	n/a	1	22	9	6	7
271.83349609375	n/a	PROB	556715	n/a	LTP334	ltpFR2	10	n/a	n/a	n/a	1	6	4	1	1
273.19970703125	n/a	PROB	559513	n/a	LTP334	ltpFR2	10	n/a	n/a	n/a	1	17	4	9	4
275.41552734375	n/a	PROB	564051	n/a	LTP334	ltpFR2	10	n/a	n/a	n/a	1	22	8	8	6
277.17333984375	n/a	STOP	567651	n/a	LTP334	ltpFR2	10	n/a	n/a	n/a	1	n/a	n/a	n/a	n/a
278.83056640625	n/a	WORD	571045	wordpools/wasnorm_wordpool_576.txt	LTP334	ltpFR2	10	1	ORCHID	982	n/a	n/a	0	0	0
281.6455078125	n/a	WORD	576810	wordpools/wasnorm_wordpool_576.txt	LTP334	ltpFR2	10	1	GREASE	660	n/a	n/a	0	0	0
284.111328125	n/a	WORD	581860	wordpools/wasnorm_wordpool_576.txt	LTP334	ltpFR2	10	1	DRESS	495	n/a	n/a	0	0	0
286.67626953125	n/a	WORD	587113	wordpools/wasnorm_wordpool_576.txt	LTP334	ltpFR2	10	1	CANYON	235	n/a	n/a	0	0	0
289.10791015625	n/a	WORD	592093	wordpools/wasnorm_wordpool_576.txt	LTP334	ltpFR2	10	1	MILK	895	n/a	n/a	0	0	0
291.541015625	n/a	WORD	597076	wordpools/wasnorm_wordpool_576.txt	LTP334	ltpFR2	10	1	MARKER	870	n/a	n/a	0	0	0
294.2900390625	n/a	WORD	602706	wordpools/wasnorm_wordpool_576.txt	LTP334	ltpFR2	10	1	PAPER	1011	n/a	n/a	0	0	0
296.73779296875	n/a	WORD	607719	wordpools/wasnorm_wordpool_576.txt	LTP334	ltpFR2	10	1	CREATURE	403	n/a	n/a	0	0	0
299.40380859375	n/a	WORD	613179	wordpools/wasnorm_wordpool_576.txt	LTP334	ltpFR2	10	1	BUG	187	n/a	n/a	0	0	0
302.03564453125	n/a	WORD	618569	wordpools/wasnorm_wordpool_576.txt	LTP334	ltpFR2	10	1	HAWK	692	n/a	n/a	0	0	0
304.81787109375	n/a	WORD	624267	wordpools/wasnorm_wordpool_576.txt	LTP334	ltpFR2	10	1	SLOPE	1328	n/a	n/a	0	0	0
307.28369140625	n/a	WORD	629317	wordpools/wasnorm_wordpool_576.txt	LTP334	ltpFR2	10	1	GOBLIN	645	n/a	n/a	0	0	0
309.71533203125	n/a	WORD	634297	wordpools/wasnorm_wordpool_576.txt	LTP334	ltpFR2	10	1	LUMBER	848	n/a	n/a	0	0	0
312.38037109375	n/a	WORD	639755	wordpools/wasnorm_wordpool_576.txt	LTP334	ltpFR2	10	1	OX	994	n/a	n/a	0	0	0
315.1123046875	n/a	WORD	645350	wordpools/wasnorm_wordpool_576.txt	LTP334	ltpFR2	10	1	DRILL	497	n/a	n/a	0	0	0
317.79443359375	n/a	WORD	650843	wordpools/wasnorm_wordpool_576.txt	LTP334	ltpFR2	10	1	ANTLER	29	n/a	n/a	0	0	0
320.3603515625	n/a	WORD	656098	wordpools/wasnorm_wordpool_576.txt	LTP334	ltpFR2	10	1	MAILBOX	857	n/a	n/a	0	0	0
322.92626953125	n/a	WORD	661353	wordpools/wasnorm_wordpool_576.txt	LTP334	ltpFR2	10	1	CLOUD	328	n/a	n/a	0	0	0
325.6240234375	n/a	WORD	666878	wordpools/wasnorm_wordpool_576.txt	LTP334	ltpFR2	10	1	RIVER	1194	n/a	n/a	0	0	0
328.2548828125	n/a	WORD	672266	wordpools/wasnorm_wordpool_576.txt	LTP334	ltpFR2	10	1	SPONGE	1355	n/a	n/a	0	0	0
331.0390625	n/a	WORD	677968	wordpools/wasnorm_wordpool_576.txt	LTP334	ltpFR2	10	1	RUG	1215	n/a	n/a	0	0	0
333.63671875	n/a	WORD	683288	wordpools/wasnorm_wordpool_576.txt	LTP334	ltpFR2	10	1	COTTAGE	384	n/a	n/a	0	0	0
336.06982421875	n/a	WORD	688271	wordpools/wasnorm_wordpool_576.txt	LTP334	ltpFR2	10	1	BRICK	172	n/a	n/a	0	0	0
338.751953125	n/a	WORD	693764	wordpools/wasnorm_wordpool_576.txt	LTP334	ltpFR2	10	1	STOMACH	1384	n/a	n/a	0	0	0
340.36767578125	n/a	START	697073	n/a	LTP334	ltpFR2	10	n/a	n/a	n/a	2	n/a	n/a	n/a	n/a
341.171875	n/a	DISTRACTOR	698720	n/a	LTP334	ltpFR2	10	1	n/a	n/a	n/a	n/a	0	0	0
341.18359375	n/a	PROB	698744	n/a	LTP334	ltpFR2	10	n/a	n/a	n/a	2	17	7	3	7
342.9326171875	n/a	PROB	702326	n/a	LTP334	ltpFR2	10	n/a	n/a	n/a	2	15	4	5	6
344.9814453125	n/a	PROB	706522	n/a	LTP334	ltpFR2	10	n/a	n/a	n/a	2	22	9	9	4
346.38134765625	n/a	PROB	709389	n/a	LTP334	ltpFR2	10	n/a	n/a	n/a	2	15	1	5	9
347.86376953125	n/a	PROB	712425	n/a	LTP334	ltpFR2	10	n/a	n/a	n/a	2	18	5	7	6
349.8125	n/a	PROB	716416	n/a	LTP334	ltpFR2	10	n/a	n/a	n/a	2	15	1	5	9
351.4453125	n/a	PROB	719760	n/a	LTP334	ltpFR2	10	n/a	n/a	n/a	2	13	4	3	6
353.14453125	n/a	PROB	723240	n/a	LTP334	ltpFR2	10	n/a	n/a	n/a	2	10	3	6	1
354.39453125	n/a	PROB	725800	n/a	LTP334	ltpFR2	10	n/a	n/a	n/a	2	11	3	6	2
356.45947265625	n/a	PROB	730029	n/a	LTP334	ltpFR2	10	n/a	n/a	n/a	2	15	3	8	4
357.87548828125	n/a	PROB	732929	n/a	LTP334	ltpFR2	10	n/a	n/a	n/a	2	19	4	9	6
359.5751953125	n/a	PROB	736410	n/a	LTP334	ltpFR2	10	n/a	n/a	n/a	2	22	6	7	8
361.27294921875	n/a	PROB	739887	n/a	LTP334	ltpFR2	10	n/a	n/a	n/a	2	12	2	2	8
362.740234375	n/a	PROB	742892	n/a	LTP334	ltpFR2	10	n/a	n/a	n/a	2	12	5	1	6
364.0009765625	n/a	STOP	745474	n/a	LTP334	ltpFR2	10	n/a	n/a	n/a	2	n/a	n/a	n/a	n/a
366.1220703125	n/a	REC_START	749818	n/a	LTP334	ltpFR2	10	1	n/a	n/a	n/a	n/a	0	0	0
366.72021484375	n/a	REC_WORD	751043	wordpools/wasnorm_wordpool_576.txt	LTP334	ltpFR2	10	1	STOMACH	1384	n/a	n/a	0	0	0
367.80712890625	n/a	REC_WORD	753269	wordpools/wasnorm_wordpool_576.txt	LTP334	ltpFR2	10	1	ORCHID	982	n/a	n/a	0	0	0
368.60302734375	n/a	REC_WORD	754899	wordpools/wasnorm_wordpool_576.txt	LTP334	ltpFR2	10	1	GREASE	660	n/a	n/a	0	0	0
370.96484375	n/a	REC_WORD	759736	wordpools/wasnorm_wordpool_576.txt	LTP334	ltpFR2	10	1	DRILL	497	n/a	n/a	0	0	0
371.65283203125	n/a	REC_WORD	761145	wordpools/wasnorm_wordpool_576.txt	LTP334	ltpFR2	10	1	MAILBOX	857	n/a	n/a	0	0	0
372.90478515625	n/a	REC_WORD	763709	wordpools/wasnorm_wordpool_576.txt	LTP334	ltpFR2	10	1	ANTLER	29	n/a	n/a	0	0	0
373.595703125	n/a	REC_WORD	765124	wordpools/wasnorm_wordpool_576.txt	LTP334	ltpFR2	10	1	OX	994	n/a	n/a	0	0	0
375.10595703125	n/a	REC_WORD	768217	wordpools/wasnorm_wordpool_576.txt	LTP334	ltpFR2	10	1	LUMBER	848	n/a	n/a	0	0	0
375.849609375	n/a	REC_WORD	769740	wordpools/wasnorm_wordpool_576.txt	LTP334	ltpFR2	10	1	COTTAGE	384	n/a	n/a	0	0	0
376.7255859375	n/a	REC_WORD	771534	wordpools/wasnorm_wordpool_576.txt	LTP334	ltpFR2	10	1	BRICK	172	n/a	n/a	0	0	0
378.44677734375	n/a	REC_WORD	775059	wordpools/wasnorm_wordpool_576.txt	LTP334	ltpFR2	10	1	MILK	895	n/a	n/a	0	0	0
379.380859375	n/a	REC_WORD	776972	wordpools/wasnorm_wordpool_576.txt	LTP334	ltpFR2	10	1	MARKER	870	n/a	n/a	0	0	0
380.3046875	n/a	REC_WORD	778864	wordpools/wasnorm_wordpool_576.txt	LTP334	ltpFR2	10	1	GOBLIN	645	n/a	n/a	0	0	0
380.9765625	n/a	REC_WORD	780240	wordpools/wasnorm_wordpool_576.txt	LTP334	ltpFR2	10	1	SPONGE	1355	n/a	n/a	0	0	0
381.9375	n/a	REC_WORD	782208	wordpools/wasnorm_wordpool_576.txt	LTP334	ltpFR2	10	1	RUG	1215	n/a	n/a	0	0	0
382.78369140625	n/a	REC_WORD	783941	wordpools/wasnorm_wordpool_576.txt	LTP334	ltpFR2	10	1	BUG	187	n/a	n/a	0	0	0
383.42236328125	n/a	REC_WORD	785249	wordpools/wasnorm_wordpool_576.txt	LTP334	ltpFR2	10	1	CREATURE	403	n/a	n/a	0	0	0
390.38525390625	n/a	REC_WORD	799509	wordpools/wasnorm_wordpool_576.txt	LTP334	ltpFR2	10	1	CANYON	235	n/a	n/a	0	0	0
391.04052734375	n/a	REC_WORD	800851	wordpools/wasnorm_wordpool_576.txt	LTP334	ltpFR2	10	1	HAWK	692	n/a	n/a	0	0	0
395.3681640625	n/a	REC_WORD	809714	wordpools/wasnorm_wordpool_576.txt	LTP334	ltpFR2	10	1	DRILL	497	n/a	n/a	0	0	0
397.92041015625	n/a	REC_WORD	814941	wordpools/wasnorm_wordpool_576.txt	LTP334	ltpFR2	10	1	DRESS	495	n/a	n/a	0	0	0
423.517578125	n/a	REC_WORD	867364	wordpools/wasnorm_wordpool_576.txt	LTP334	ltpFR2	10	1	CLOUD	328	n/a	n/a	0	0	0
425.4345703125	n/a	REC_WORD	871290	wordpools/wasnorm_wordpool_576.txt	LTP334	ltpFR2	10	1	SLOPE	1328	n/a	n/a	0	0	0
456.54443359375	n/a	DISTRACTOR	935003	n/a	LTP334	ltpFR2	10	2	n/a	n/a	n/a	n/a	0	0	0
456.5458984375	n/a	START	935006	n/a	LTP334	ltpFR2	10	n/a	n/a	n/a	3	n/a	n/a	n/a	n/a
456.5615234375	n/a	PROB	935038	n/a	LTP334	ltpFR2	10	n/a	n/a	n/a	3	12	9	2	1
457.79443359375	n/a	PROB	937563	n/a	LTP334	ltpFR2	10	n/a	n/a	n/a	3	18	7	8	3
459.3603515625	n/a	PROB	940770	n/a	LTP334	ltpFR2	10	n/a	n/a	n/a	3	23	9	9	5
460.82666015625	n/a	PROB	943773	n/a	LTP334	ltpFR2	10	n/a	n/a	n/a	3	14	1	5	8
462.40869140625	n/a	PROB	947013	n/a	LTP334	ltpFR2	10	n/a	n/a	n/a	3	12	3	4	5
463.87451171875	n/a	PROB	950015	n/a	LTP334	ltpFR2	10	n/a	n/a	n/a	3	19	6	4	9
465.17431640625	n/a	PROB	952677	n/a	LTP334	ltpFR2	10	n/a	n/a	n/a	3	12	1	5	6
466.42333984375	n/a	PROB	955235	n/a	LTP334	ltpFR2	10	n/a	n/a	n/a	3	17	8	6	3
468.17236328125	n/a	PROB	958817	n/a	LTP334	ltpFR2	10	n/a	n/a	n/a	3	23	9	7	7
469.5224609375	n/a	PROB	961582	n/a	LTP334	ltpFR2	10	n/a	n/a	n/a	3	20	8	7	5
471.521484375	n/a	PROB	965676	n/a	LTP334	ltpFR2	10	n/a	n/a	n/a	3	114	5	1	8
473.2021484375	n/a	PROB	969118	n/a	LTP334	ltpFR2	10	n/a	n/a	n/a	3	14	5	7	2
475.2353515625	n/a	PROB	973282	n/a	LTP334	ltpFR2	10	n/a	n/a	n/a	3	10	6	3	1
476.369140625	n/a	PROB	975604	n/a	LTP334	ltpFR2	10	n/a	n/a	n/a	3	24	7	8	9
477.85107421875	n/a	PROB	978639	n/a	LTP334	ltpFR2	10	n/a	n/a	n/a	3	14	7	6	1
479.5458984375	n/a	STOP	982110	n/a	LTP334	ltpFR2	10	n/a	n/a	n/a	3	n/a	n/a	n/a	n/a
481.73291015625	n/a	WORD	986589	wordpools/wasnorm_wordpool_576.txt	LTP334	ltpFR2	10	2	BEAKER	104	n/a	n/a	0	0	0
484.19677734375	n/a	WORD	991635	wordpools/wasnorm_wordpool_576.txt	LTP334	ltpFR2	10	2	GALLON	618	n/a	n/a	0	0	0
486.8466796875	n/a	WORD	997062	wordpools/wasnorm_wordpool_576.txt	LTP334	ltpFR2	10	2	AIRPORT	13	n/a	n/a	0	0	0
489.49560546875	n/a	WORD	1002487	wordpools/wasnorm_wordpool_576.txt	LTP334	ltpFR2	10	2	MARKET	871	n/a	n/a	0	0	0
492.01171875	n/a	WORD	1007640	wordpools/wasnorm_wordpool_576.txt	LTP334	ltpFR2	10	2	DORM	488	n/a	n/a	0	0	0
494.8095703125	n/a	WORD	1013370	wordpools/wasnorm_wordpool_576.txt	LTP334	ltpFR2	10	2	TART	1436	n/a	n/a	0	0	0
497.341796875	n/a	WORD	1018556	wordpools/wasnorm_wordpool_576.txt	LTP334	ltpFR2	10	2	SNACK	1331	n/a	n/a	0	0	0
500.07470703125	n/a	WORD	1024153	wordpools/wasnorm_wordpool_576.txt	LTP334	ltpFR2	10	2	EMPIRE	530	n/a	n/a	0	0	0
502.7724609375	n/a	WORD	1029678	wordpools/wasnorm_wordpool_576.txt	LTP334	ltpFR2	10	2	PLAYGROUND	1087	n/a	n/a	0	0	0
505.521484375	n/a	WORD	1035308	wordpools/wasnorm_wordpool_576.txt	LTP334	ltpFR2	10	2	SWORD	1423	n/a	n/a	0	0	0
508.3203125	n/a	WORD	1041040	wordpools/wasnorm_wordpool_576.txt	LTP334	ltpFR2	10	2	REPORT	1184	n/a	n/a	0	0	0
510.8193359375	n/a	WORD	1046158	wordpools/wasnorm_wordpool_576.txt	LTP334	ltpFR2	10	2	TREAT	1501	n/a	n/a	0	0	0
513.5341796875	n/a	WORD	1051718	wordpools/wasnorm_wordpool_576.txt	LTP334	ltpFR2	10	2	ACTRESS	6	n/a	n/a	0	0	0
516.13330078125	n/a	WORD	1057041	wordpools/wasnorm_wordpool_576.txt	LTP334	ltpFR2	10	2	POPCORN	1104	n/a	n/a	0	0	0
518.56494140625	n/a	WORD	1062021	wordpools/wasnorm_wordpool_576.txt	LTP334	ltpFR2	10	2	TILE	1468	n/a	n/a	0	0	0
521.01416015625	n/a	WORD	1067037	wordpools/wasnorm_wordpool_576.txt	LTP334	ltpFR2	10	2	CEILING	265	n/a	n/a	0	0	0
523.845703125	n/a	WORD	1072836	wordpools/wasnorm_wordpool_576.txt	LTP334	ltpFR2	10	2	SADDLE	1221	n/a	n/a	0	0	0
526.3779296875	n/a	WORD	1078022	wordpools/wasnorm_wordpool_576.txt	LTP334	ltpFR2	10	2	MOTEL	919	n/a	n/a	0	0	0
529.126953125	n/a	WORD	1083652	wordpools/wasnorm_wordpool_576.txt	LTP334	ltpFR2	10	2	PERMIT	1051	n/a	n/a	0	0	0
531.90869140625	n/a	WORD	1089349	wordpools/wasnorm_wordpool_576.txt	LTP334	ltpFR2	10	2	POLICE	1098	n/a	n/a	0	0	0
534.607421875	n/a	WORD	1094876	wordpools/wasnorm_wordpool_576.txt	LTP334	ltpFR2	10	2	PICNIC	1060	n/a	n/a	0	0	0
537.3896484375	n/a	WORD	1100574	wordpools/wasnorm_wordpool_576.txt	LTP334	ltpFR2	10	2	VAGRANT	1544	n/a	n/a	0	0	0
540.12158203125	n/a	WORD	1106169	wordpools/wasnorm_wordpool_576.txt	LTP334	ltpFR2	10	2	COUNTY	389	n/a	n/a	0	0	0
542.62060546875	n/a	WORD	1111287	wordpools/wasnorm_wordpool_576.txt	LTP334	ltpFR2	10	2	FLASK	576	n/a	n/a	0	0	0
544.2353515625	n/a	START	1114594	n/a	LTP334	ltpFR2	10	n/a	n/a	n/a	4	n/a	n/a	n/a	n/a
545.04443359375	n/a	DISTRACTOR	1116251	n/a	LTP334	ltpFR2	10	2	n/a	n/a	n/a	n/a	0	0	0
545.05224609375	n/a	PROB	1116267	n/a	LTP334	ltpFR2	10	n/a	n/a	n/a	4	22	9	5	8
547.46826171875	n/a	PROB	1121215	n/a	LTP334	ltpFR2	10	n/a	n/a	n/a	4	13	4	8	1
548.900390625	n/a	PROB	1124148	n/a	LTP334	ltpFR2	10	n/a	n/a	n/a	4	20	5	9	6
550.4501953125	n/a	PROB	1127322	n/a	LTP334	ltpFR2	10	n/a	n/a	n/a	4	24	7	9	8
552.43212890625	n/a	PROB	1131381	n/a	LTP334	ltpFR2	10	n/a	n/a	n/a	4	6	3	1	2
553.748046875	n/a	PROB	1134076	n/a	LTP334	ltpFR2	10	n/a	n/a	n/a	4	14	3	9	2
555.48095703125	n/a	PROB	1137625	n/a	LTP334	ltpFR2	10	n/a	n/a	n/a	4	16	3	8	5
556.8798828125	n/a	PROB	1140490	n/a	LTP334	ltpFR2	10	n/a	n/a	n/a	4	24	9	8	7
558.49609375	n/a	PROB	1143800	n/a	LTP334	ltpFR2	10	n/a	n/a	n/a	4	11	6	4	1
559.5458984375	n/a	PROB	1145950	n/a	LTP334	ltpFR2	10	n/a	n/a	n/a	4	13	3	3	7
561.19384765625	n/a	PROB	1149325	n/a	LTP334	ltpFR2	10	n/a	n/a	n/a	4	11	5	4	2
562.86083984375	n/a	PROB	1152739	n/a	LTP334	ltpFR2	10	n/a	n/a	n/a	4	20	9	4	7
564.376953125	n/a	PROB	1155844	n/a	LTP334	ltpFR2	10	n/a	n/a	n/a	4	22	5	9	8
566.30859375	n/a	PROB	1159800	n/a	LTP334	ltpFR2	10	n/a	n/a	n/a	4	12	3	3	6
567.45849609375	n/a	STOP	1162155	n/a	LTP334	ltpFR2	10	n/a	n/a	n/a	4	n/a	n/a	n/a	n/a
570.12451171875	n/a	REC_START	1167615	n/a	LTP334	ltpFR2	10	2	n/a	n/a	n/a	n/a	0	0	0
571.11083984375	n/a	REC_WORD	1169635	wordpools/wasnorm_wordpool_576.txt	LTP334	ltpFR2	10	2	FLASK	576	n/a	n/a	0	0	0
571.9404296875	n/a	REC_WORD	1171334	wordpools/wasnorm_wordpool_576.txt	LTP334	ltpFR2	10	2	CEILING	265	n/a	n/a	0	0	0
572.89453125	n/a	REC_WORD	1173288	wordpools/wasnorm_wordpool_576.txt	LTP334	ltpFR2	10	2	TILE	1468	n/a	n/a	0	0	0
575.767578125	n/a	REC_WORD	1179172	wordpools/wasnorm_wordpool_576.txt	LTP334	ltpFR2	10	2	POLICE	1098	n/a	n/a	0	0	0
576.611328125	n/a	REC_WORD	1180900	wordpools/wasnorm_wordpool_576.txt	LTP334	ltpFR2	10	2	PERMIT	1051	n/a	n/a	0	0	0
577.38134765625	n/a	REC_WORD	1182477	wordpools/wasnorm_wordpool_576.txt	LTP334	ltpFR2	10	2	PICNIC	1060	n/a	n/a	0	0	0
580.59326171875	n/a	REC_WORD	1189055	wordpools/wasnorm_wordpool_576.txt	LTP334	ltpFR2	10	2	SNACK	1331	n/a	n/a	0	0	0
581.67041015625	n/a	REC_WORD	1191261	wordpools/wasnorm_wordpool_576.txt	LTP334	ltpFR2	10	2	TREAT	1501	n/a	n/a	0	0	0
582.50830078125	n/a	REC_WORD	1192977	wordpools/wasnorm_wordpool_576.txt	LTP334	ltpFR2	10	2	TART	1436	n/a	n/a	0	0	0
583.3544921875	n/a	REC_WORD	1194710	wordpools/wasnorm_wordpool_576.txt	LTP334	ltpFR2	10	2	MARKET	871	n/a	n/a	0	0	0
595.77099609375	n/a	REC_WORD	1220139	wordpools/wasnorm_wordpool_576.txt	LTP334	ltpFR2	10	2	REPORT	1184	n/a	n/a	0	0	0
596.5947265625	n/a	REC_WORD	1221826	wordpools/wasnorm_wordpool_576.txt	LTP334	ltpFR2	10	2	AIRPORT	13	n/a	n/a	0	0	0
597.419921875	n/a	REC_WORD	1223516	wordpools/wasnorm_wordpool_576.txt	LTP334	ltpFR2	10	2	DORM	488	n/a	n/a	0	0	0
613.552734375	n/a	REC_WORD	1256556	wordpools/wasnorm_wordpool_576.txt	LTP334	ltpFR2	10	2	COUNTY	389	n/a	n/a	0	0	0
660.54736328125	n/a	DISTRACTOR	1352801	n/a	LTP334	ltpFR2	10	3	n/a	n/a	n/a	n/a	0	0	0
660.54736328125	n/a	START	1352801	n/a	LTP334	ltpFR2	10	n/a	n/a	n/a	5	n/a	n/a	n/a	n/a
660.5634765625	n/a	PROB	1352834	n/a	LTP334	ltpFR2	10	n/a	n/a	n/a	5	14	2	5	7
662.279296875	n/a	PROB	1356348	n/a	LTP334	ltpFR2	10	n/a	n/a	n/a	5	17	2	8	7
663.87939453125	n/a	PROB	1359625	n/a	LTP334	ltpFR2	10	n/a	n/a	n/a	5	14	2	7	5
665.39501953125	n/a	PROB	1362729	n/a	LTP334	ltpFR2	10	n/a	n/a	n/a	5	20	9	4	7
666.626953125	n/a	PROB	1365252	n/a	LTP334	ltpFR2	10	n/a	n/a	n/a	5	19	7	7	5
668.126953125	n/a	PROB	1368324	n/a	LTP334	ltpFR2	10	n/a	n/a	n/a	5	13	2	2	9
670.80908203125	n/a	PROB	1373817	n/a	LTP334	ltpFR2	10	n/a	n/a	n/a	5	11	6	3	2
672.14111328125	n/a	PROB	1376545	n/a	LTP334	ltpFR2	10	n/a	n/a	n/a	5	14	6	4	4
673.30810546875	n/a	PROB	1378935	n/a	LTP334	ltpFR2	10	n/a	n/a	n/a	5	16	2	9	5
674.7900390625	n/a	PROB	1381970	n/a	LTP334	ltpFR2	10	n/a	n/a	n/a	5	14	6	1	7
676.5400390625	n/a	PROB	1385554	n/a	LTP334	ltpFR2	10	n/a	n/a	n/a	5	17	3	5	9
678.10595703125	n/a	PROB	1388761	n/a	LTP334	ltpFR2	10	n/a	n/a	n/a	5	19	5	9	5
679.52197265625	n/a	PROB	1391661	n/a	LTP334	ltpFR2	10	n/a	n/a	n/a	5	6	1	4	1
680.587890625	n/a	PROB	1393844	n/a	LTP334	ltpFR2	10	n/a	n/a	n/a	5	22	8	6	8
682.56982421875	n/a	PROB	1397903	n/a	LTP334	ltpFR2	10	n/a	n/a	n/a	5	22	6	8	7
684.4423828125	n/a	STOP	1401738	n/a	LTP334	ltpFR2	10	n/a	n/a	n/a	5	n/a	n/a	n/a	n/a
685.5185546875	n/a	WORD	1403942	wordpools/wasnorm_wordpool_576.txt	LTP334	ltpFR2	10	3	SHRUB	1299	n/a	n/a	0	0	0
688.2666015625	n/a	WORD	1409570	wordpools/wasnorm_wordpool_576.txt	LTP334	ltpFR2	10	3	HAND	683	n/a	n/a	0	0	0
690.9326171875	n/a	WORD	1415030	wordpools/wasnorm_wordpool_576.txt	LTP334	ltpFR2	10	3	HIKER	708	n/a	n/a	0	0	0
693.63134765625	n/a	WORD	1420557	wordpools/wasnorm_wordpool_576.txt	LTP334	ltpFR2	10	3	ICEBERG	731	n/a	n/a	0	0	0
696.36328125	n/a	WORD	1426152	wordpools/wasnorm_wordpool_576.txt	LTP334	ltpFR2	10	3	SISTER	1312	n/a	n/a	0	0	0
699.06201171875	n/a	WORD	1431679	wordpools/wasnorm_wordpool_576.txt	LTP334	ltpFR2	10	3	COSTUME	383	n/a	n/a	0	0	0
701.77734375	n/a	WORD	1437240	wordpools/wasnorm_wordpool_576.txt	LTP334	ltpFR2	10	3	OZONE	996	n/a	n/a	0	0	0
704.29296875	n/a	WORD	1442392	wordpools/wasnorm_wordpool_576.txt	LTP334	ltpFR2	10	3	SUBWAY	1400	n/a	n/a	0	0	0
706.7919921875	n/a	WORD	1447510	wordpools/wasnorm_wordpool_576.txt	LTP334	ltpFR2	10	3	LEG	809	n/a	n/a	0	0	0
709.27392578125	n/a	WORD	1452593	wordpools/wasnorm_wordpool_576.txt	LTP334	ltpFR2	10	3	HUSBAND	728	n/a	n/a	0	0	0
711.755859375	n/a	WORD	1457676	wordpools/wasnorm_wordpool_576.txt	LTP334	ltpFR2	10	3	PIZZA	1079	n/a	n/a	0	0	0
714.52099609375	n/a	WORD	1463339	wordpools/wasnorm_wordpool_576.txt	LTP334	ltpFR2	10	3	SKILLET	1317	n/a	n/a	0	0	0
717.169921875	n/a	WORD	1468764	wordpools/wasnorm_wordpool_576.txt	LTP334	ltpFR2	10	3	BOARD	143	n/a	n/a	0	0	0
719.65185546875	n/a	WORD	1473847	wordpools/wasnorm_wordpool_576.txt	LTP334	ltpFR2	10	3	DENIM	446	n/a	n/a	0	0	0
722.3837890625	n/a	WORD	1479442	wordpools/wasnorm_wordpool_576.txt	LTP334	ltpFR2	10	3	SHORTS	1293	n/a	n/a	0	0	0
725.16650390625	n/a	WORD	1485141	wordpools/wasnorm_wordpool_576.txt	LTP334	ltpFR2	10	3	BLACKBOARD	133	n/a	n/a	0	0	0
727.78125	n/a	WORD	1490496	wordpools/wasnorm_wordpool_576.txt	LTP334	ltpFR2	10	3	RAFT	1159	n/a	n/a	0	0	0
730.447265625	n/a	WORD	1495956	wordpools/wasnorm_wordpool_576.txt	LTP334	ltpFR2	10	3	FOOT	590	n/a	n/a	0	0	0
733.228515625	n/a	WORD	1501652	wordpools/wasnorm_wordpool_576.txt	LTP334	ltpFR2	10	3	BALLOON	75	n/a	n/a	0	0	0
735.6611328125	n/a	WORD	1506634	wordpools/wasnorm_wordpool_576.txt	LTP334	ltpFR2	10	3	WHISKERS	1605	n/a	n/a	0	0	0
738.208984375	n/a	WORD	1511852	wordpools/wasnorm_wordpool_576.txt	LTP334	ltpFR2	10	3	HEADBAND	696	n/a	n/a	0	0	0
740.92529296875	n/a	WORD	1517415	wordpools/wasnorm_wordpool_576.txt	LTP334	ltpFR2	10	3	VALLEY	1545	n/a	n/a	0	0	0
743.740234375	n/a	WORD	1523180	wordpools/wasnorm_wordpool_576.txt	LTP334	ltpFR2	10	3	LODGE	839	n/a	n/a	0	0	0
746.35595703125	n/a	WORD	1528537	wordpools/wasnorm_wordpool_576.txt	LTP334	ltpFR2	10	3	CHAPEL	280	n/a	n/a	0	0	0
747.97216796875	n/a	START	1531847	n/a	LTP334	ltpFR2	10	n/a	n/a	n/a	6	n/a	n/a	n/a	n/a
749.119140625	n/a	DISTRACTOR	1534196	n/a	LTP334	ltpFR2	10	3	n/a	n/a	n/a	n/a	0	0	0
749.12109375	n/a	PROB	1534200	n/a	LTP334	ltpFR2	10	n/a	n/a	n/a	6	14	9	3	2
750.88671875	n/a	PROB	1537816	n/a	LTP334	ltpFR2	10	n/a	n/a	n/a	6	14	7	5	2
752.31982421875	n/a	PROB	1540751	n/a	LTP334	ltpFR2	10	n/a	n/a	n/a	6	13	2	9	2
754.8017578125	n/a	PROB	1545834	n/a	LTP334	ltpFR2	10	n/a	n/a	n/a	6	20	5	7	8
756.31787109375	n/a	PROB	1548939	n/a	LTP334	ltpFR2	10	n/a	n/a	n/a	6	17	3	9	5
757.93359375	n/a	PROB	1552248	n/a	LTP334	ltpFR2	10	n/a	n/a	n/a	6	17	2	8	7
759.28271484375	n/a	PROB	1555011	n/a	LTP334	ltpFR2	10	n/a	n/a	n/a	6	22	4	9	8
760.99853515625	n/a	PROB	1558525	n/a	LTP334	ltpFR2	10	n/a	n/a	n/a	6	17	5	6	6
762.88134765625	n/a	PROB	1562381	n/a	LTP334	ltpFR2	10	n/a	n/a	n/a	6	22	4	9	9
764.54736328125	n/a	PROB	1565793	n/a	LTP334	ltpFR2	10	n/a	n/a	n/a	6	17	5	9	3
766.779296875	n/a	PROB	1570364	n/a	LTP334	ltpFR2	10	n/a	n/a	n/a	6	17	3	7	7
768.74560546875	n/a	PROB	1574391	n/a	LTP334	ltpFR2	10	n/a	n/a	n/a	6	16	2	8	6
770.12744140625	n/a	PROB	1577221	n/a	LTP334	ltpFR2	10	n/a	n/a	n/a	6	20	9	5	6
771.8271484375	n/a	STOP	1580702	n/a	LTP334	ltpFR2	10	n/a	n/a	n/a	6	n/a	n/a	n/a	n/a
773.80908203125	n/a	REC_START	1584761	n/a	LTP334	ltpFR2	10	3	n/a	n/a	n/a	n/a	0	0	0
774.83740234375	n/a	REC_WORD	1586867	wordpools/wasnorm_wordpool_576.txt	LTP334	ltpFR2	10	3	SHRUB	1299	n/a	n/a	0	0	0
775.53125	n/a	REC_WORD	1588288	wordpools/wasnorm_wordpool_576.txt	LTP334	ltpFR2	10	3	HAND	683	n/a	n/a	0	0	0
776.38916015625	n/a	REC_WORD	1590045	wordpools/wasnorm_wordpool_576.txt	LTP334	ltpFR2	10	3	FOOT	590	n/a	n/a	0	0	0
777.123046875	n/a	REC_WORD	1591548	wordpools/wasnorm_wordpool_576.txt	LTP334	ltpFR2	10	3	LEG	809	n/a	n/a	0	0	0
777.88330078125	n/a	REC_WORD	1593105	wordpools/wasnorm_wordpool_576.txt	LTP334	ltpFR2	10	3	ICEBERG	731	n/a	n/a	0	0	0
778.67431640625	n/a	REC_WORD	1594725	wordpools/wasnorm_wordpool_576.txt	LTP334	ltpFR2	10	3	VALLEY	1545	n/a	n/a	0	0	0
779.486328125	n/a	REC_WORD	1596388	wordpools/wasnorm_wordpool_576.txt	LTP334	ltpFR2	10	3	RAFT	1159	n/a	n/a	0	0	0
780.39892578125	n/a	REC_WORD	1598257	wordpools/wasnorm_wordpool_576.txt	LTP334	ltpFR2	10	3	BOARD	143	n/a	n/a	0	0	0
781.03125	n/a	REC_WORD	1599552	wordpools/wasnorm_wordpool_576.txt	LTP334	ltpFR2	10	3	BLACKBOARD	133	n/a	n/a	0	0	0
781.85498046875	n/a	REC_WORD	1601239	wordpools/wasnorm_wordpool_576.txt	LTP334	ltpFR2	10	3	SKILLET	1317	n/a	n/a	0	0	0
782.77978515625	n/a	REC_WORD	1603133	wordpools/wasnorm_wordpool_576.txt	LTP334	ltpFR2	10	3	PIZZA	1079	n/a	n/a	0	0	0
784.40673828125	n/a	REC_WORD	1606465	wordpools/wasnorm_wordpool_576.txt	LTP334	ltpFR2	10	3	DENIM	446	n/a	n/a	0	0	0
784.93212890625	n/a	REC_WORD	1607541	wordpools/wasnorm_wordpool_576.txt	LTP334	ltpFR2	10	3	SHORTS	1293	n/a	n/a	0	0	0
786.61279296875	n/a	REC_WORD	1610983	wordpools/wasnorm_wordpool_576.txt	LTP334	ltpFR2	10	3	SISTER	1312	n/a	n/a	0	0	0
787.3818359375	n/a	REC_WORD	1612558	wordpools/wasnorm_wordpool_576.txt	LTP334	ltpFR2	10	3	HUSBAND	728	n/a	n/a	0	0	0
794.24658203125	n/a	REC_WORD	1626617	wordpools/wasnorm_wordpool_576.txt	LTP334	ltpFR2	10	3	CHAPEL	280	n/a	n/a	0	0	0
803.970703125	n/a	REC_WORD	1646532	wordpools/wasnorm_wordpool_576.txt	LTP334	ltpFR2	10	3	WHISKERS	1605	n/a	n/a	0	0	0
819.97607421875	n/a	REC_WORD	1679311	wordpools/wasnorm_wordpool_576.txt	LTP334	ltpFR2	10	3	LODGE	839	n/a	n/a	0	0	0
864.2490234375	n/a	DISTRACTOR	1769982	n/a	LTP334	ltpFR2	10	4	n/a	n/a	n/a	n/a	0	0	0
864.2490234375	n/a	START	1769982	n/a	LTP334	ltpFR2	10	n/a	n/a	n/a	7	n/a	n/a	n/a	n/a
864.265625	n/a	PROB	1770016	n/a	LTP334	ltpFR2	10	n/a	n/a	n/a	7	13	5	5	3
865.73193359375	n/a	PROB	1773019	n/a	LTP334	ltpFR2	10	n/a	n/a	n/a	7	14	1	7	6
867.28076171875	n/a	PROB	1776191	n/a	LTP334	ltpFR2	10	n/a	n/a	n/a	7	20	5	7	8
869.1806640625	n/a	PROB	1780082	n/a	LTP334	ltpFR2	10	n/a	n/a	n/a	7	8	6	1	1
870.228515625	n/a	PROB	1782228	n/a	LTP334	ltpFR2	10	n/a	n/a	n/a	7	18	7	9	2
871.87890625	n/a	PROB	1785608	n/a	LTP334	ltpFR2	10	n/a	n/a	n/a	7	12	5	5	2
872.978515625	n/a	PROB	1787860	n/a	LTP334	ltpFR2	10	n/a	n/a	n/a	7	13	4	4	5
874.57763671875	n/a	PROB	1791135	n/a	LTP334	ltpFR2	10	n/a	n/a	n/a	7	15	4	8	3
876.6767578125	n/a	PROB	1795434	n/a	LTP334	ltpFR2	10	n/a	n/a	n/a	7	19	9	2	8
880.05859375	n/a	PROB	1802360	n/a	LTP334	ltpFR2	10	n/a	n/a	n/a	7	11	5	4	2
881.4072265625	n/a	PROB	1805122	n/a	LTP334	ltpFR2	10	n/a	n/a	n/a	7	7	2	1	4
883.09033203125	n/a	PROB	1808569	n/a	LTP334	ltpFR2	10	n/a	n/a	n/a	7	12	1	4	7
885.05615234375	n/a	PROB	1812595	n/a	LTP334	ltpFR2	10	n/a	n/a	n/a	7	11	6	2	3
888.248046875	n/a	STOP	1819132	n/a	LTP334	ltpFR2	10	n/a	n/a	n/a	7	n/a	n/a	n/a	n/a
889.404296875	n/a	WORD	1821500	wordpools/wasnorm_wordpool_576.txt	LTP334	ltpFR2	10	4	OINTMENT	974	n/a	n/a	0	0	0
892.2353515625	n/a	WORD	1827298	wordpools/wasnorm_wordpool_576.txt	LTP334	ltpFR2	10	4	SCOTCH	1251	n/a	n/a	0	0	0
894.8349609375	n/a	WORD	1832622	wordpools/wasnorm_wordpool_576.txt	LTP334	ltpFR2	10	4	PIGMENT	1066	n/a	n/a	0	0	0
897.533203125	n/a	WORD	1838148	wordpools/wasnorm_wordpool_576.txt	LTP334	ltpFR2	10	4	SCRIBBLE	1256	n/a	n/a	0	0	0
900.11474609375	n/a	WORD	1843435	wordpools/wasnorm_wordpool_576.txt	LTP334	ltpFR2	10	4	MAILMAN	858	n/a	n/a	0	0	0
902.880859375	n/a	WORD	1849100	wordpools/wasnorm_wordpool_576.txt	LTP334	ltpFR2	10	4	DRUG	501	n/a	n/a	0	0	0
905.4296875	n/a	WORD	1854320	wordpools/wasnorm_wordpool_576.txt	LTP334	ltpFR2	10	4	HELMET	702	n/a	n/a	0	0	0
907.86181640625	n/a	WORD	1859301	wordpools/wasnorm_wordpool_576.txt	LTP334	ltpFR2	10	4	FILM	565	n/a	n/a	0	0	0
910.37744140625	n/a	WORD	1864453	wordpools/wasnorm_wordpool_576.txt	LTP334	ltpFR2	10	4	BUBBLE	183	n/a	n/a	0	0	0
912.9755859375	n/a	WORD	1869774	wordpools/wasnorm_wordpool_576.txt	LTP334	ltpFR2	10	4	FOOTBALL	591	n/a	n/a	0	0	0
915.70849609375	n/a	WORD	1875371	wordpools/wasnorm_wordpool_576.txt	LTP334	ltpFR2	10	4	SERVANT	1271	n/a	n/a	0	0	0
918.42333984375	n/a	WORD	1880931	wordpools/wasnorm_wordpool_576.txt	LTP334	ltpFR2	10	4	LAKE	796	n/a	n/a	0	0	0
921.22119140625	n/a	WORD	1886661	wordpools/wasnorm_wordpool_576.txt	LTP334	ltpFR2	10	4	BEAVER	109	n/a	n/a	0	0	0
923.75439453125	n/a	WORD	1891849	wordpools/wasnorm_wordpool_576.txt	LTP334	ltpFR2	10	4	LEOPARD	812	n/a	n/a	0	0	0
926.55322265625	n/a	WORD	1897581	wordpools/wasnorm_wordpool_576.txt	LTP334	ltpFR2	10	4	TORTOISE	1486	n/a	n/a	0	0	0
929.03515625	n/a	WORD	1902664	wordpools/wasnorm_wordpool_576.txt	LTP334	ltpFR2	10	4	SNAIL	1332	n/a	n/a	0	0	0
931.71728515625	n/a	WORD	1908157	wordpools/wasnorm_wordpool_576.txt	LTP334	ltpFR2	10	4	PARROT	1015	n/a	n/a	0	0	0
934.3818359375	n/a	WORD	1913614	wordpools/wasnorm_wordpool_576.txt	LTP334	ltpFR2	10	4	JEANS	752	n/a	n/a	0	0	0
936.96484375	n/a	WORD	1918904	wordpools/wasnorm_wordpool_576.txt	LTP334	ltpFR2	10	4	PARTNER	1017	n/a	n/a	0	0	0
939.4970703125	n/a	WORD	1924090	wordpools/wasnorm_wordpool_576.txt	LTP334	ltpFR2	10	4	GARBAGE	622	n/a	n/a	0	0	0
942.22802734375	n/a	WORD	1929683	wordpools/wasnorm_wordpool_576.txt	LTP334	ltpFR2	10	4	TRANSPLANT	1496	n/a	n/a	0	0	0
945.0107421875	n/a	WORD	1935382	wordpools/wasnorm_wordpool_576.txt	LTP334	ltpFR2	10	4	ROBIN	1199	n/a	n/a	0	0	0
947.67578125	n/a	WORD	1940840	wordpools/wasnorm_wordpool_576.txt	LTP334	ltpFR2	10	4	ROCKET	1202	n/a	n/a	0	0	0
950.3916015625	n/a	WORD	1946402	wordpools/wasnorm_wordpool_576.txt	LTP334	ltpFR2	10	4	GLOBE	641	n/a	n/a	0	0	0
952.00830078125	n/a	START	1949713	n/a	LTP334	ltpFR2	10	n/a	n/a	n/a	8	n/a	n/a	n/a	n/a
952.8623046875	n/a	DISTRACTOR	1951462	n/a	LTP334	ltpFR2	10	4	n/a	n/a	n/a	n/a	0	0	0
952.87353515625	n/a	PROB	1951485	n/a	LTP334	ltpFR2	10	n/a	n/a	n/a	8	10	6	2	2
954.15625	n/a	PROB	1954112	n/a	LTP334	ltpFR2	10	n/a	n/a	n/a	8	25	9	9	7
955.822265625	n/a	PROB	1957524	n/a	LTP334	ltpFR2	10	n/a	n/a	n/a	8	19	4	8	7
958.654296875	n/a	PROB	1963324	n/a	LTP334	ltpFR2	10	n/a	n/a	n/a	8	6	2	3	1
960.30322265625	n/a	PROB	1966701	n/a	LTP334	ltpFR2	10	n/a	n/a	n/a	8	24	9	8	7
965.0673828125	n/a	PROB	1976458	n/a	LTP334	ltpFR2	10	n/a	n/a	n/a	8	12	2	6	4
966.55029296875	n/a	PROB	1979495	n/a	LTP334	ltpFR2	10	n/a	n/a	n/a	8	19	9	8	2
967.96630859375	n/a	PROB	1982395	n/a	LTP334	ltpFR2	10	n/a	n/a	n/a	8	10	3	3	4
969.71484375	n/a	PROB	1985976	n/a	LTP334	ltpFR2	10	n/a	n/a	n/a	8	100	2	1	7
971.630859375	n/a	PROB	1989900	n/a	LTP334	ltpFR2	10	n/a	n/a	n/a	8	19	9	2	8
975.2109375	n/a	STOP	1997232	n/a	LTP334	ltpFR2	10	n/a	n/a	n/a	8	n/a	n/a	n/a	n/a
977.7626953125	n/a	REC_START	2002458	n/a	LTP334	ltpFR2	10	4	n/a	n/a	n/a	n/a	0	0	0
978.39697265625	n/a	REC_WORD	2003757	wordpools/wasnorm_wordpool_576.txt	LTP334	ltpFR2	10	4	ROBIN	1199	n/a	n/a	0	0	0
979.03369140625	n/a	REC_WORD	2005061	wordpools/wasnorm_wordpool_576.txt	LTP334	ltpFR2	10	4	ROCKET	1202	n/a	n/a	0	0	0
979.87890625	n/a	REC_WORD	2006792	wordpools/wasnorm_wordpool_576.txt	LTP334	ltpFR2	10	4	GLOBE	641	n/a	n/a	0	0	0
980.638671875	n/a	REC_WORD	2008348	wordpools/wasnorm_wordpool_576.txt	LTP334	ltpFR2	10	4	TRANSPLANT	1496	n/a	n/a	0	0	0
983.28564453125	n/a	REC_WORD	2013769	wordpools/wasnorm_wordpool_576.txt	LTP334	ltpFR2	10	4	LEOPARD	812	n/a	n/a	0	0	0
984.064453125	n/a	REC_WORD	2015364	wordpools/wasnorm_wordpool_576.txt	LTP334	ltpFR2	10	4	PARROT	1015	n/a	n/a	0	0	0
984.78955078125	n/a	REC_WORD_VV	2016849	wordpools/wasnorm_wordpool_576.txt	LTP334	ltpFR2	10	4	<>	-1	n/a	n/a	0	0	0
985.43359375	n/a	REC_WORD	2018168	wordpools/wasnorm_wordpool_576.txt	LTP334	ltpFR2	10	4	TORTOISE	1486	n/a	n/a	0	0	0
986.79150390625	n/a	REC_WORD	2020949	wordpools/wasnorm_wordpool_576.txt	LTP334	ltpFR2	10	4	SNAIL	1332	n/a	n/a	0	0	0
987.6865234375	n/a	REC_WORD	2022782	wordpools/wasnorm_wordpool_576.txt	LTP334	ltpFR2	10	4	LAKE	796	n/a	n/a	0	0	0
989.42578125	n/a	REC_WORD	2026344	wordpools/wasnorm_wordpool_576.txt	LTP334	ltpFR2	10	4	BEAVER	109	n/a	n/a	0	0	0
991.65625	n/a	REC_WORD	2030912	wordpools/wasnorm_wordpool_576.txt	LTP334	ltpFR2	10	4	OINTMENT	974	n/a	n/a	0	0	0
992.50439453125	n/a	REC_WORD	2032649	wordpools/wasnorm_wordpool_576.txt	LTP334	ltpFR2	10	4	BUBBLE	183	n/a	n/a	0	0	0
1000.89208984375	n/a	REC_WORD	2049827	wordpools/wasnorm_wordpool_576.txt	LTP334	ltpFR2	10	4	MAILMAN	858	n/a	n/a	0	0	0
1001.70703125	n/a	REC_WORD	2051496	wordpools/wasnorm_wordpool_576.txt	LTP334	ltpFR2	10	4	HELMET	702	n/a	n/a	0	0	0
1002.63330078125	n/a	REC_WORD	2053393	wordpools/wasnorm_wordpool_576.txt	LTP334	ltpFR2	10	4	FILM	565	n/a	n/a	0	0	0
1029.46142578125	n/a	REC_WORD	2108337	wordpools/wasnorm_wordpool_576.txt	LTP334	ltpFR2	10	4	PARTNER	1017	n/a	n/a	0	0	0
1030.12158203125	n/a	REC_WORD	2109689	wordpools/wasnorm_wordpool_576.txt	LTP334	ltpFR2	10	4	JEANS	752	n/a	n/a	0	0	0
1048.7158203125	n/a	REC_WORD	2147770	wordpools/wasnorm_wordpool_576.txt	LTP334	ltpFR2	10	4	DRUG	501	n/a	n/a	0	0	0
1068.18359375	n/a	DISTRACTOR	2187640	n/a	LTP334	ltpFR2	10	5	n/a	n/a	n/a	n/a	0	0	0
1068.18359375	n/a	START	2187640	n/a	LTP334	ltpFR2	10	n/a	n/a	n/a	9	n/a	n/a	n/a	n/a
1068.20068359375	n/a	PROB	2187675	n/a	LTP334	ltpFR2	10	n/a	n/a	n/a	9	16	3	4	9
1070.30029296875	n/a	PROB	2191975	n/a	LTP334	ltpFR2	10	n/a	n/a	n/a	9	13	7	3	3
1071.74951171875	n/a	PROB	2194943	n/a	LTP334	ltpFR2	10	n/a	n/a	n/a	9	13	5	3	5
1073.04931640625	n/a	PROB	2197605	n/a	LTP334	ltpFR2	10	n/a	n/a	n/a	9	21	8	8	5
1074.38134765625	n/a	PROB	2200333	n/a	LTP334	ltpFR2	10	n/a	n/a	n/a	9	15	8	1	6
1075.78125	n/a	PROB	2203200	n/a	LTP334	ltpFR2	10	n/a	n/a	n/a	9	22	7	7	8
1077.447265625	n/a	PROB	2206612	n/a	LTP334	ltpFR2	10	n/a	n/a	n/a	9	23	9	5	9
1079.3291015625	n/a	PROB	2210466	n/a	LTP334	ltpFR2	10	n/a	n/a	n/a	9	24	9	6	9
1082.244140625	n/a	PROB	2216436	n/a	LTP334	ltpFR2	10	n/a	n/a	n/a	9	5	1	3	1
1083.22705078125	n/a	PROB	2218449	n/a	LTP334	ltpFR2	10	n/a	n/a	n/a	9	6	4	1	1
1084.35986328125	n/a	PROB	2220769	n/a	LTP334	ltpFR2	10	n/a	n/a	n/a	9	23	7	7	9
1086.3759765625	n/a	PROB	2224898	n/a	LTP334	ltpFR2	10	n/a	n/a	n/a	9	8	4	3	1
1087.77490234375	n/a	PROB	2227763	n/a	LTP334	ltpFR2	10	n/a	n/a	n/a	9	16	9	1	6
1089.94091796875	n/a	PROB	2232199	n/a	LTP334	ltpFR2	10	n/a	n/a	n/a	9	10	3	6	1
1091.373046875	n/a	STOP	2235132	n/a	LTP334	ltpFR2	10	n/a	n/a	n/a	9	n/a	n/a	n/a	n/a
1093.2900390625	n/a	WORD	2239058	wordpools/wasnorm_wordpool_576.txt	LTP334	ltpFR2	10	5	DAUGHTER	442	n/a	n/a	0	0	0
1095.95458984375	n/a	WORD	2244515	wordpools/wasnorm_wordpool_576.txt	LTP334	ltpFR2	10	5	HOUND	724	n/a	n/a	0	0	0
1098.5537109375	n/a	WORD	2249838	wordpools/wasnorm_wordpool_576.txt	LTP334	ltpFR2	10	5	POSSUM	1112	n/a	n/a	0	0	0
1101.1845703125	n/a	WORD	2255226	wordpools/wasnorm_wordpool_576.txt	LTP334	ltpFR2	10	5	BUREAU	199	n/a	n/a	0	0	0
1103.66748046875	n/a	WORD	2260311	wordpools/wasnorm_wordpool_576.txt	LTP334	ltpFR2	10	5	LACE	792	n/a	n/a	0	0	0
1106.3994140625	n/a	WORD	2265906	wordpools/wasnorm_wordpool_576.txt	LTP334	ltpFR2	10	5	BACKBONE	66	n/a	n/a	0	0	0
1108.96533203125	n/a	WORD	2271161	wordpools/wasnorm_wordpool_576.txt	LTP334	ltpFR2	10	5	BROTHER	179	n/a	n/a	0	0	0
1111.68017578125	n/a	WORD	2276721	wordpools/wasnorm_wordpool_576.txt	LTP334	ltpFR2	10	5	UNCLE	1536	n/a	n/a	0	0	0
1114.17822265625	n/a	WORD	2281837	wordpools/wasnorm_wordpool_576.txt	LTP334	ltpFR2	10	5	GARDEN	623	n/a	n/a	0	0	0
1116.81103515625	n/a	WORD	2287229	wordpools/wasnorm_wordpool_576.txt	LTP334	ltpFR2	10	5	STAR	1373	n/a	n/a	0	0	0
1119.44287109375	n/a	WORD	2292619	wordpools/wasnorm_wordpool_576.txt	LTP334	ltpFR2	10	5	CIGAR	308	n/a	n/a	0	0	0
1121.9921875	n/a	WORD	2297840	wordpools/wasnorm_wordpool_576.txt	LTP334	ltpFR2	10	5	BRIEFCASE	175	n/a	n/a	0	0	0
1124.77392578125	n/a	WORD	2303537	wordpools/wasnorm_wordpool_576.txt	LTP334	ltpFR2	10	5	SODA	1341	n/a	n/a	0	0	0
1127.35595703125	n/a	WORD	2308825	wordpools/wasnorm_wordpool_576.txt	LTP334	ltpFR2	10	5	MATTRESS	879	n/a	n/a	0	0	0
1130.10498046875	n/a	WORD	2314455	wordpools/wasnorm_wordpool_576.txt	LTP334	ltpFR2	10	5	TROMBONE	1508	n/a	n/a	0	0	0
1132.853515625	n/a	WORD	2320084	wordpools/wasnorm_wordpool_576.txt	LTP334	ltpFR2	10	5	DRESSER	496	n/a	n/a	0	0	0
1135.31884765625	n/a	WORD	2325133	wordpools/wasnorm_wordpool_576.txt	LTP334	ltpFR2	10	5	BACON	67	n/a	n/a	0	0	0
1137.98486328125	n/a	WORD	2330593	wordpools/wasnorm_wordpool_576.txt	LTP334	ltpFR2	10	5	OMELET	976	n/a	n/a	0	0	0
1140.50048828125	n/a	WORD	2335745	wordpools/wasnorm_wordpool_576.txt	LTP334	ltpFR2	10	5	SURVEY	1414	n/a	n/a	0	0	0
1143.29833984375	n/a	WORD	2341475	wordpools/wasnorm_wordpool_576.txt	LTP334	ltpFR2	10	5	OFFICE	972	n/a	n/a	0	0	0
1145.84716796875	n/a	WORD	2346695	wordpools/wasnorm_wordpool_576.txt	LTP334	ltpFR2	10	5	PIMPLE	1071	n/a	n/a	0	0	0
1148.4794921875	n/a	WORD	2352086	wordpools/wasnorm_wordpool_576.txt	LTP334	ltpFR2	10	5	COOKBOOK	373	n/a	n/a	0	0	0
1151.09521484375	n/a	WORD	2357443	wordpools/wasnorm_wordpool_576.txt	LTP334	ltpFR2	10	5	TURKEY	1520	n/a	n/a	0	0	0
1153.84326171875	n/a	WORD	2363071	wordpools/wasnorm_wordpool_576.txt	LTP334	ltpFR2	10	5	PUPIL	1143	n/a	n/a	0	0	0
1155.4599609375	n/a	START	2366382	n/a	LTP334	ltpFR2	10	n/a	n/a	n/a	10	n/a	n/a	n/a	n/a
1156.5439453125	n/a	DISTRACTOR	2368602	n/a	LTP334	ltpFR2	10	5	n/a	n/a	n/a	n/a	0	0	0
1156.55908203125	n/a	PROB	2368633	n/a	LTP334	ltpFR2	10	n/a	n/a	n/a	10	23	6	8	9
1158.7412109375	n/a	PROB	2373102	n/a	LTP334	ltpFR2	10	n/a	n/a	n/a	10	9	3	1	5
1160.30712890625	n/a	PROB	2376309	n/a	LTP334	ltpFR2	10	n/a	n/a	n/a	10	25	9	7	9
1161.90576171875	n/a	PROB	2379583	n/a	LTP334	ltpFR2	10	n/a	n/a	n/a	10	25	9	9	7
1163.421875	n/a	PROB	2382688	n/a	LTP334	ltpFR2	10	n/a	n/a	n/a	10	6	1	3	2
1164.98779296875	n/a	PROB	2385895	n/a	LTP334	ltpFR2	10	n/a	n/a	n/a	10	10	6	2	2
1166.2041015625	n/a	PROB	2388386	n/a	LTP334	ltpFR2	10	n/a	n/a	n/a	10	15	3	9	3
1168.06982421875	n/a	PROB	2392207	n/a	LTP334	ltpFR2	10	n/a	n/a	n/a	10	19	8	9	2
1169.81884765625	n/a	PROB	2395789	n/a	LTP334	ltpFR2	10	n/a	n/a	n/a	10	18	5	4	9
1171.751953125	n/a	PROB	2399748	n/a	LTP334	ltpFR2	10	n/a	n/a	n/a	10	15	4	3	8
1174.31787109375	n/a	PROB	2405003	n/a	LTP334	ltpFR2	10	n/a	n/a	n/a	10	11	3	7	1
1175.41650390625	n/a	PROB	2407253	n/a	LTP334	ltpFR2	10	n/a	n/a	n/a	10	22	9	6	7
1177.19775390625	n/a	PROB	2410901	n/a	LTP334	ltpFR2	10	n/a	n/a	n/a	10	18	6	7	5
1178.70849609375	n/a	STOP	2413995	n/a	LTP334	ltpFR2	10	n/a	n/a	n/a	10	n/a	n/a	n/a	n/a
1181.34765625	n/a	REC_START	2419400	n/a	LTP334	ltpFR2	10	5	n/a	n/a	n/a	n/a	0	0	0
1182.25537109375	n/a	REC_WORD	2421259	wordpools/wasnorm_wordpool_576.txt	LTP334	ltpFR2	10	5	PUPIL	1143	n/a	n/a	0	0	0
1183.04638671875	n/a	REC_WORD	2422879	wordpools/wasnorm_wordpool_576.txt	LTP334	ltpFR2	10	5	COOKBOOK	373	n/a	n/a	0	0	0
1183.83154296875	n/a	REC_WORD	2424487	wordpools/wasnorm_wordpool_576.txt	LTP334	ltpFR2	10	5	TURKEY	1520	n/a	n/a	0	0	0
1184.5625	n/a	REC_WORD	2425984	wordpools/wasnorm_wordpool_576.txt	LTP334	ltpFR2	10	5	OMELET	976	n/a	n/a	0	0	0
1185.33740234375	n/a	REC_WORD	2427571	wordpools/wasnorm_wordpool_576.txt	LTP334	ltpFR2	10	5	BACON	67	n/a	n/a	0	0	0
1186.58935546875	n/a	REC_WORD	2430135	wordpools/wasnorm_wordpool_576.txt	LTP334	ltpFR2	10	5	BACKBONE	66	n/a	n/a	0	0	0
1187.490234375	n/a	REC_WORD	2431980	wordpools/wasnorm_wordpool_576.txt	LTP334	ltpFR2	10	5	TROMBONE	1508	n/a	n/a	0	0	0
1188.8681640625	n/a	REC_WORD	2434802	wordpools/wasnorm_wordpool_576.txt	LTP334	ltpFR2	10	5	MATTRESS	879	n/a	n/a	0	0	0
1194.0693359375	n/a	REC_WORD	2445454	wordpools/wasnorm_wordpool_576.txt	LTP334	ltpFR2	10	5	UNCLE	1536	n/a	n/a	0	0	0
1194.8662109375	n/a	REC_WORD	2447086	wordpools/wasnorm_wordpool_576.txt	LTP334	ltpFR2	10	5	BROTHER	179	n/a	n/a	0	0	0
1196.94482421875	n/a	REC_WORD	2451343	wordpools/wasnorm_wordpool_576.txt	LTP334	ltpFR2	10	5	BUREAU	199	n/a	n/a	0	0	0
1197.76025390625	n/a	REC_WORD	2453013	wordpools/wasnorm_wordpool_576.txt	LTP334	ltpFR2	10	5	DRESSER	496	n/a	n/a	0	0	0
1198.68310546875	n/a	REC_WORD	2454903	wordpools/wasnorm_wordpool_576.txt	LTP334	ltpFR2	10	5	PIMPLE	1071	n/a	n/a	0	0	0
1205.24169921875	n/a	REC_WORD	2468335	wordpools/wasnorm_wordpool_576.txt	LTP334	ltpFR2	10	5	STAR	1373	n/a	n/a	0	0	0
1206.06884765625	n/a	REC_WORD	2470029	wordpools/wasnorm_wordpool_576.txt	LTP334	ltpFR2	10	5	SODA	1341	n/a	n/a	0	0	0
1217.0234375	n/a	REC_WORD	2492464	wordpools/wasnorm_wordpool_576.txt	LTP334	ltpFR2	10	5	SURVEY	1414	n/a	n/a	0	0	0
1271.80419921875	n/a	WORD	2604655	wordpools/wasnorm_wordpool_576.txt	LTP334	ltpFR2	10	6	POISON	1096	n/a	n/a	0	0	0
1274.35205078125	n/a	WORD	2609873	wordpools/wasnorm_wordpool_576.txt	LTP334	ltpFR2	10	6	MONSTER	912	n/a	n/a	0	0	0
1277.1337890625	n/a	WORD	2615570	wordpools/wasnorm_wordpool_576.txt	LTP334	ltpFR2	10	6	SLIDE	1326	n/a	n/a	0	0	0
1279.60009765625	n/a	WORD	2620621	wordpools/wasnorm_wordpool_576.txt	LTP334	ltpFR2	10	6	JELLY	755	n/a	n/a	0	0	0
1282.1806640625	n/a	WORD	2625906	wordpools/wasnorm_wordpool_576.txt	LTP334	ltpFR2	10	6	TRACTOR	1493	n/a	n/a	0	0	0
1284.84765625	n/a	WORD	2631368	wordpools/wasnorm_wordpool_576.txt	LTP334	ltpFR2	10	6	NOMAD	955	n/a	n/a	0	0	0
1287.41259765625	n/a	WORD	2636621	wordpools/wasnorm_wordpool_576.txt	LTP334	ltpFR2	10	6	GRAVE	658	n/a	n/a	0	0	0
1290.21044921875	n/a	WORD	2642351	wordpools/wasnorm_wordpool_576.txt	LTP334	ltpFR2	10	6	PACKAGE	997	n/a	n/a	0	0	0
1292.71044921875	n/a	WORD	2647471	wordpools/wasnorm_wordpool_576.txt	LTP334	ltpFR2	10	6	GIFT	635	n/a	n/a	0	0	0
1295.29248046875	n/a	WORD	2652759	wordpools/wasnorm_wordpool_576.txt	LTP334	ltpFR2	10	6	WHISTLE	1606	n/a	n/a	0	0	0
1298.107421875	n/a	WORD	2658524	wordpools/wasnorm_wordpool_576.txt	LTP334	ltpFR2	10	6	NEUTRON	947	n/a	n/a	0	0	0
1300.55615234375	n/a	WORD	2663539	wordpools/wasnorm_wordpool_576.txt	LTP334	ltpFR2	10	6	PORK	1108	n/a	n/a	0	0	0
1303.08837890625	n/a	WORD	2668725	wordpools/wasnorm_wordpool_576.txt	LTP334	ltpFR2	10	6	SAUSAGE	1238	n/a	n/a	0	0	0
1305.55419921875	n/a	WORD	2673775	wordpools/wasnorm_wordpool_576.txt	LTP334	ltpFR2	10	6	REBEL	1172	n/a	n/a	0	0	0
1308.3359375	n/a	WORD	2679472	wordpools/wasnorm_wordpool_576.txt	LTP334	ltpFR2	10	6	CHIPMUNK	304	n/a	n/a	0	0	0
1311.1181640625	n/a	WORD	2685170	wordpools/wasnorm_wordpool_576.txt	LTP334	ltpFR2	10	6	WARDROBE	1587	n/a	n/a	0	0	0
1313.60009765625	n/a	WORD	2690253	wordpools/wasnorm_wordpool_576.txt	LTP334	ltpFR2	10	6	OUTFIT	988	n/a	n/a	0	0	0
1316.166015625	n/a	WORD	2695508	wordpools/wasnorm_wordpool_576.txt	LTP334	ltpFR2	10	6	WINDOW	1611	n/a	n/a	0	0	0
1318.59765625	n/a	WORD	2700488	wordpools/wasnorm_wordpool_576.txt	LTP334	ltpFR2	10	6	CELLAR	267	n/a	n/a	0	0	0
1321.22900390625	n/a	WORD	2705877	wordpools/wasnorm_wordpool_576.txt	LTP334	ltpFR2	10	6	FARMER	553	n/a	n/a	0	0	0
1323.91162109375	n/a	WORD	2711371	wordpools/wasnorm_wordpool_576.txt	LTP334	ltpFR2	10	6	BANKER	84	n/a	n/a	0	0	0
1326.44482421875	n/a	WORD	2716559	wordpools/wasnorm_wordpool_576.txt	LTP334	ltpFR2	10	6	COMET	353	n/a	n/a	0	0	0
1329.17578125	n/a	WORD	2722152	wordpools/wasnorm_wordpool_576.txt	LTP334	ltpFR2	10	6	GHETTO	633	n/a	n/a	0	0	0
1331.62451171875	n/a	WORD	2727167	wordpools/wasnorm_wordpool_576.txt	LTP334	ltpFR2	10	6	BOX	159	n/a	n/a	0	0	0
1333.240234375	n/a	START	2730476	n/a	LTP334	ltpFR2	10	n/a	n/a	n/a	11	n/a	n/a	n/a	n/a
1334.3583984375	n/a	DISTRACTOR	2732766	n/a	LTP334	ltpFR2	10	6	n/a	n/a	n/a	n/a	0	0	0
1334.37353515625	n/a	PROB	2732797	n/a	LTP334	ltpFR2	10	n/a	n/a	n/a	11	19	3	8	8
1336.92236328125	n/a	PROB	2738017	n/a	LTP334	ltpFR2	10	n/a	n/a	n/a	11	11	2	4	5
1338.705078125	n/a	PROB	2741668	n/a	LTP334	ltpFR2	10	n/a	n/a	n/a	11	19	9	9	1
1340.12109375	n/a	PROB	2744568	n/a	LTP334	ltpFR2	10	n/a	n/a	n/a	11	12	6	5	1
1341.287109375	n/a	PROB	2746956	n/a	LTP334	ltpFR2	10	n/a	n/a	n/a	11	16	4	8	4
1342.9033203125	n/a	PROB	2750266	n/a	LTP334	ltpFR2	10	n/a	n/a	n/a	11	15	4	9	2
1344.78515625	n/a	PROB	2754120	n/a	LTP334	ltpFR2	10	n/a	n/a	n/a	11	15	7	7	1
1346.15087890625	n/a	PROB	2756917	n/a	LTP334	ltpFR2	10	n/a	n/a	n/a	11	15	6	6	3
1347.55126953125	n/a	PROB	2759785	n/a	LTP334	ltpFR2	10	n/a	n/a	n/a	11	17	8	1	8
1349.14990234375	n/a	PROB	2763059	n/a	LTP334	ltpFR2	10	n/a	n/a	n/a	11	17	2	6	9
1350.89892578125	n/a	PROB	2766641	n/a	LTP334	ltpFR2	10	n/a	n/a	n/a	11	19	5	8	6
1354.3466796875	n/a	PROB	2773702	n/a	LTP334	ltpFR2	10	n/a	n/a	n/a	11	15	2	9	4
1355.9736328125	n/a	STOP	2777034	n/a	LTP334	ltpFR2	10	n/a	n/a	n/a	11	n/a	n/a	n/a	n/a
1359.01171875	n/a	REC_START	2783256	n/a	LTP334	ltpFR2	10	6	n/a	n/a	n/a	n/a	0	0	0
1359.595703125	n/a	REC_WORD	2784452	wordpools/wasnorm_wordpool_576.txt	LTP334	ltpFR2	10	6	FARMER	553	n/a	n/a	0	0	0
1360.3466796875	n/a	REC_WORD	2785990	wordpools/wasnorm_wordpool_576.txt	LTP334	ltpFR2	10	6	WINDOW	1611	n/a	n/a	0	0	0
1361.0615234375	n/a	REC_WORD	2787454	wordpools/wasnorm_wordpool_576.txt	LTP334	ltpFR2	10	6	CELLAR	267	n/a	n/a	0	0	0
1361.98193359375	n/a	REC_WORD	2789339	wordpools/wasnorm_wordpool_576.txt	LTP334	ltpFR2	10	6	NEUTRON	947	n/a	n/a	0	0	0
1362.9326171875	n/a	REC_WORD	2791286	wordpools/wasnorm_wordpool_576.txt	LTP334	ltpFR2	10	6	GRAVE	658	n/a	n/a	0	0	0
1363.880859375	n/a	REC_WORD	2793228	wordpools/wasnorm_wordpool_576.txt	LTP334	ltpFR2	10	6	WHISTLE	1606	n/a	n/a	0	0	0
1365.7568359375	n/a	REC_WORD	2797070	wordpools/wasnorm_wordpool_576.txt	LTP334	ltpFR2	10	6	NOMAD	955	n/a	n/a	0	0	0
1366.8876953125	n/a	REC_WORD	2799386	wordpools/wasnorm_wordpool_576.txt	LTP334	ltpFR2	10	6	PACKAGE	997	n/a	n/a	0	0	0
1367.732421875	n/a	REC_WORD	2801116	wordpools/wasnorm_wordpool_576.txt	LTP334	ltpFR2	10	6	BOX	159	n/a	n/a	0	0	0
1368.58447265625	n/a	REC_WORD	2802861	wordpools/wasnorm_wordpool_576.txt	LTP334	ltpFR2	10	6	GIFT	635	n/a	n/a	0	0	0
1374.28857421875	n/a	REC_WORD	2814543	wordpools/wasnorm_wordpool_576.txt	LTP334	ltpFR2	10	6	WARDROBE	1587	n/a	n/a	0	0	0
1375.3125	n/a	REC_WORD	2816640	wordpools/wasnorm_wordpool_576.txt	LTP334	ltpFR2	10	6	OUTFIT	988	n/a	n/a	0	0	0
1379.84912109375	n/a	REC_WORD	2825931	wordpools/wasnorm_wordpool_576.txt	LTP334	ltpFR2	10	6	PORK	1108	n/a	n/a	0	0	0
1380.412109375	n/a	REC_WORD	2827084	wordpools/wasnorm_wordpool_576.txt	LTP334	ltpFR2	10	6	SAUSAGE	1238	n/a	n/a	0	0	0
1385.77197265625	n/a	REC_WORD	2838061	wordpools/wasnorm_wordpool_576.txt	LTP334	ltpFR2	10	6	SLIDE	1326	n/a	n/a	0	0	0
1386.71923828125	n/a	REC_WORD	2840001	wordpools/wasnorm_wordpool_576.txt	LTP334	ltpFR2	10	6	JELLY	755	n/a	n/a	0	0	0
1389.044921875	n/a	REC_WORD	2844764	wordpools/wasnorm_wordpool_576.txt	LTP334	ltpFR2	10	6	MONSTER	912	n/a	n/a	0	0	0
1389.8837890625	n/a	REC_WORD	2846482	wordpools/wasnorm_wordpool_576.txt	LTP334	ltpFR2	10	6	POISON	1096	n/a	n/a	0	0	0
1399.68359375	n/a	REC_WORD	2866552	wordpools/wasnorm_wordpool_576.txt	LTP334	ltpFR2	10	6	NOMAD	955	n/a	n/a	0	0	0
1449.46826171875	n/a	DISTRACTOR	2968511	n/a	LTP334	ltpFR2	10	7	n/a	n/a	n/a	n/a	0	0	0
1449.46826171875	n/a	START	2968511	n/a	LTP334	ltpFR2	10	n/a	n/a	n/a	12	n/a	n/a	n/a	n/a
1449.4853515625	n/a	PROB	2968546	n/a	LTP334	ltpFR2	10	n/a	n/a	n/a	12	21	4	9	8
1451.0673828125	n/a	PROB	2971786	n/a	LTP334	ltpFR2	10	n/a	n/a	n/a	12	18	7	3	8
1452.35009765625	n/a	PROB	2974413	n/a	LTP334	ltpFR2	10	n/a	n/a	n/a	12	13	1	5	7
1454.31640625	n/a	PROB	2978440	n/a	LTP334	ltpFR2	10	n/a	n/a	n/a	12	19	8	4	7
1455.7822265625	n/a	PROB	2981442	n/a	LTP334	ltpFR2	10	n/a	n/a	n/a	12	20	9	4	7
1457.3310546875	n/a	PROB	2984614	n/a	LTP334	ltpFR2	10	n/a	n/a	n/a	12	16	1	6	9
1459.04736328125	n/a	PROB	2988129	n/a	LTP334	ltpFR2	10	n/a	n/a	n/a	12	12	2	3	7
1460.6962890625	n/a	PROB	2991506	n/a	LTP334	ltpFR2	10	n/a	n/a	n/a	12	19	9	9	1
1462.06201171875	n/a	PROB	2994303	n/a	LTP334	ltpFR2	10	n/a	n/a	n/a	12	16	1	7	8
1463.4951171875	n/a	PROB	2997238	n/a	LTP334	ltpFR2	10	n/a	n/a	n/a	12	10	4	3	3
1465.09375	n/a	PROB	3000512	n/a	LTP334	ltpFR2	10	n/a	n/a	n/a	12	23	9	6	8
1467.126953125	n/a	PROB	3004676	n/a	LTP334	ltpFR2	10	n/a	n/a	n/a	12	12	8	2	2
1468.2080078125	n/a	PROB	3006890	n/a	LTP334	ltpFR2	10	n/a	n/a	n/a	12	19	6	5	8
1469.65869140625	n/a	PROB	3009861	n/a	LTP334	ltpFR2	10	n/a	n/a	n/a	12	20	8	7	5
1473.4677734375	n/a	STOP	3017662	n/a	LTP334	ltpFR2	10	n/a	n/a	n/a	12	n/a	n/a	n/a	n/a
1474.3896484375	n/a	WORD	3019550	wordpools/wasnorm_wordpool_576.txt	LTP334	ltpFR2	10	7	BRANDY	169	n/a	n/a	0	0	0
1477.021484375	n/a	WORD	3024940	wordpools/wasnorm_wordpool_576.txt	LTP334	ltpFR2	10	7	SALT	1229	n/a	n/a	0	0	0
1479.62060546875	n/a	WORD	3030263	wordpools/wasnorm_wordpool_576.txt	LTP334	ltpFR2	10	7	PEPPER	1047	n/a	n/a	0	0	0
1482.234375	n/a	WORD	3035616	wordpools/wasnorm_wordpool_576.txt	LTP334	ltpFR2	10	7	SHOULDER	1294	n/a	n/a	0	0	0
1484.70166015625	n/a	WORD	3040669	wordpools/wasnorm_wordpool_576.txt	LTP334	ltpFR2	10	7	SCARF	1246	n/a	n/a	0	0	0
1487.3505859375	n/a	WORD	3046094	wordpools/wasnorm_wordpool_576.txt	LTP334	ltpFR2	10	7	CLAM	315	n/a	n/a	0	0	0
1489.7822265625	n/a	WORD	3051074	wordpools/wasnorm_wordpool_576.txt	LTP334	ltpFR2	10	7	SHOVEL	1295	n/a	n/a	0	0	0
1492.29736328125	n/a	WORD	3056225	wordpools/wasnorm_wordpool_576.txt	LTP334	ltpFR2	10	7	RABBIT	1152	n/a	n/a	0	0	0
1495.080078125	n/a	WORD	3061924	wordpools/wasnorm_wordpool_576.txt	LTP334	ltpFR2	10	7	CLIMBER	323	n/a	n/a	0	0	0
1497.67822265625	n/a	WORD	3067245	wordpools/wasnorm_wordpool_576.txt	LTP334	ltpFR2	10	7	BRAKE	166	n/a	n/a	0	0	0
1500.3271484375	n/a	WORD	3072670	wordpools/wasnorm_wordpool_576.txt	LTP334	ltpFR2	10	7	LETTUCE	814	n/a	n/a	0	0	0
1502.79296875	n/a	WORD	3077720	wordpools/wasnorm_wordpool_576.txt	LTP334	ltpFR2	10	7	VENUS	1557	n/a	n/a	0	0	0
1505.40771484375	n/a	WORD	3083075	wordpools/wasnorm_wordpool_576.txt	LTP334	ltpFR2	10	7	SLIME	1327	n/a	n/a	0	0	0
1508.22265625	n/a	WORD	3088840	wordpools/wasnorm_wordpool_576.txt	LTP334	ltpFR2	10	7	CAFE	216	n/a	n/a	0	0	0
1510.77197265625	n/a	WORD	3094061	wordpools/wasnorm_wordpool_576.txt	LTP334	ltpFR2	10	7	XEROX	1628	n/a	n/a	0	0	0
1513.3046875	n/a	WORD	3099248	wordpools/wasnorm_wordpool_576.txt	LTP334	ltpFR2	10	7	MACHINE	852	n/a	n/a	0	0	0
1515.91943359375	n/a	WORD	3104603	wordpools/wasnorm_wordpool_576.txt	LTP334	ltpFR2	10	7	THIEF	1456	n/a	n/a	0	0	0
1518.70166015625	n/a	WORD	3110301	wordpools/wasnorm_wordpool_576.txt	LTP334	ltpFR2	10	7	FRAGRANCE	599	n/a	n/a	0	0	0
1521.150390625	n/a	WORD	3115316	wordpools/wasnorm_wordpool_576.txt	LTP334	ltpFR2	10	7	BANQUET	86	n/a	n/a	0	0	0
1523.69921875	n/a	WORD	3120536	wordpools/wasnorm_wordpool_576.txt	LTP334	ltpFR2	10	7	STOVE	1388	n/a	n/a	0	0	0
1526.24853515625	n/a	WORD	3125757	wordpools/wasnorm_wordpool_576.txt	LTP334	ltpFR2	10	7	MOTOR	922	n/a	n/a	0	0	0
1528.7802734375	n/a	WORD	3130942	wordpools/wasnorm_wordpool_576.txt	LTP334	ltpFR2	10	7	SIBLING	1301	n/a	n/a	0	0	0
1531.34521484375	n/a	WORD	3136195	wordpools/wasnorm_wordpool_576.txt	LTP334	ltpFR2	10	7	BLENDER	136	n/a	n/a	0	0	0
1534.0283203125	n/a	WORD	3141690	wordpools/wasnorm_wordpool_576.txt	LTP334	ltpFR2	10	7	SHARK	1275	n/a	n/a	0	0	0
1535.64404296875	n/a	START	3144999	n/a	LTP334	ltpFR2	10	n/a	n/a	n/a	13	n/a	n/a	n/a	n/a
1536.6572265625	n/a	DISTRACTOR	3147074	n/a	LTP334	ltpFR2	10	7	n/a	n/a	n/a	n/a	0	0	0
1536.66015625	n/a	PROB	3147080	n/a	LTP334	ltpFR2	10	n/a	n/a	n/a	13	11	2	1	8
1538.076171875	n/a	PROB	3149980	n/a	LTP334	ltpFR2	10	n/a	n/a	n/a	13	15	1	6	8
1539.7578125	n/a	PROB	3153424	n/a	LTP334	ltpFR2	10	n/a	n/a	n/a	13	15	8	3	4
1542.45703125	n/a	PROB	3158952	n/a	LTP334	ltpFR2	10	n/a	n/a	n/a	13	14	9	4	1
1544.5888671875	n/a	PROB	3163318	n/a	LTP334	ltpFR2	10	n/a	n/a	n/a	13	14	8	2	4
1545.7216796875	n/a	PROB	3165638	n/a	LTP334	ltpFR2	10	n/a	n/a	n/a	13	5	1	2	1
1547.1376953125	n/a	PROB	3168538	n/a	LTP334	ltpFR2	10	n/a	n/a	n/a	13	14	4	3	7
1549.0205078125	n/a	PROB	3172394	n/a	LTP334	ltpFR2	10	n/a	n/a	n/a	13	19	9	9	1
1550.36962890625	n/a	PROB	3175157	n/a	LTP334	ltpFR2	10	n/a	n/a	n/a	13	15	4	8	3
1552.08544921875	n/a	PROB	3178671	n/a	LTP334	ltpFR2	10	n/a	n/a	n/a	13	114	7	5	2
1554.33447265625	n/a	PROB	3183277	n/a	LTP334	ltpFR2	10	n/a	n/a	n/a	13	13	2	4	7
1556.1005859375	n/a	PROB	3186894	n/a	LTP334	ltpFR2	10	n/a	n/a	n/a	13	23	9	7	7
1559.6435546875	n/a	STOP	3194150	n/a	LTP334	ltpFR2	10	n/a	n/a	n/a	13	n/a	n/a	n/a	n/a
1561.46435546875	n/a	REC_START	3197879	n/a	LTP334	ltpFR2	10	7	n/a	n/a	n/a	n/a	0	0	0
1562.26953125	n/a	REC_WORD	3199528	wordpools/wasnorm_wordpool_576.txt	LTP334	ltpFR2	10	7	BLENDER	136	n/a	n/a	0	0	0
1562.87744140625	n/a	REC_WORD	3200773	wordpools/wasnorm_wordpool_576.txt	LTP334	ltpFR2	10	7	STOVE	1388	n/a	n/a	0	0	0
1564.025390625	n/a	REC_WORD	3203124	wordpools/wasnorm_wordpool_576.txt	LTP334	ltpFR2	10	7	BANQUET	86	n/a	n/a	0	0	0
1564.74853515625	n/a	REC_WORD	3204605	wordpools/wasnorm_wordpool_576.txt	LTP334	ltpFR2	10	7	FRAGRANCE	599	n/a	n/a	0	0	0
1565.92236328125	n/a	REC_WORD	3207009	wordpools/wasnorm_wordpool_576.txt	LTP334	ltpFR2	10	7	THIEF	1456	n/a	n/a	0	0	0
1566.43017578125	n/a	REC_WORD	3208049	wordpools/wasnorm_wordpool_576.txt	LTP334	ltpFR2	10	7	CAFE	216	n/a	n/a	0	0	0
1567.40625	n/a	REC_WORD	3210048	wordpools/wasnorm_wordpool_576.txt	LTP334	ltpFR2	10	7	XEROX	1628	n/a	n/a	0	0	0
1568.21728515625	n/a	REC_WORD	3211709	wordpools/wasnorm_wordpool_576.txt	LTP334	ltpFR2	10	7	MACHINE	852	n/a	n/a	0	0	0
1569.0244140625	n/a	REC_WORD	3213362	wordpools/wasnorm_wordpool_576.txt	LTP334	ltpFR2	10	7	MOTOR	922	n/a	n/a	0	0	0
1573.59716796875	n/a	REC_WORD	3222727	wordpools/wasnorm_wordpool_576.txt	LTP334	ltpFR2	10	7	SIBLING	1301	n/a	n/a	0	0	0
1576.9541015625	n/a	REC_WORD	3229602	wordpools/wasnorm_wordpool_576.txt	LTP334	ltpFR2	10	7	SALT	1229	n/a	n/a	0	0	0
1577.75390625	n/a	REC_WORD	3231240	wordpools/wasnorm_wordpool_576.txt	LTP334	ltpFR2	10	7	PEPPER	1047	n/a	n/a	0	0	0
1578.466796875	n/a	REC_WORD	3232700	wordpools/wasnorm_wordpool_576.txt	LTP334	ltpFR2	10	7	BRANDY	169	n/a	n/a	0	0	0
1588.546875	n/a	REC_WORD	3253344	wordpools/wasnorm_wordpool_576.txt	LTP334	ltpFR2	10	7	CLAM	315	n/a	n/a	0	0	0
1590.12841796875	n/a	REC_WORD	3256583	wordpools/wasnorm_wordpool_576.txt	LTP334	ltpFR2	10	7	LETTUCE	814	n/a	n/a	0	0	0
1592.595703125	n/a	REC_WORD	3261636	wordpools/wasnorm_wordpool_576.txt	LTP334	ltpFR2	10	7	SHARK	1275	n/a	n/a	0	0	0
1603.5751953125	n/a	REC_WORD	3284122	wordpools/wasnorm_wordpool_576.txt	LTP334	ltpFR2	10	7	SLIME	1327	n/a	n/a	0	0	0
1604.45947265625	n/a	REC_WORD	3285933	wordpools/wasnorm_wordpool_576.txt	LTP334	ltpFR2	10	7	VENUS	1557	n/a	n/a	0	0	0
1651.9208984375	n/a	WORD	3383134	wordpools/wasnorm_wordpool_576.txt	LTP334	ltpFR2	10	8	CABBAGE	210	n/a	n/a	0	0	0
1654.419921875	n/a	WORD	3388252	wordpools/wasnorm_wordpool_576.txt	LTP334	ltpFR2	10	8	CUSTARD	429	n/a	n/a	0	0	0
1656.95166015625	n/a	WORD	3393437	wordpools/wasnorm_wordpool_576.txt	LTP334	ltpFR2	10	8	RELISH	1183	n/a	n/a	0	0	0
1659.40087890625	n/a	WORD	3398453	wordpools/wasnorm_wordpool_576.txt	LTP334	ltpFR2	10	8	SMOG	1330	n/a	n/a	0	0	0
1662.0498046875	n/a	WORD	3403878	wordpools/wasnorm_wordpool_576.txt	LTP334	ltpFR2	10	8	SERVER	1272	n/a	n/a	0	0	0
1664.681640625	n/a	WORD	3409268	wordpools/wasnorm_wordpool_576.txt	LTP334	ltpFR2	10	8	BULLET	194	n/a	n/a	0	0	0
1667.41357421875	n/a	WORD	3414863	wordpools/wasnorm_wordpool_576.txt	LTP334	ltpFR2	10	8	CHILD	299	n/a	n/a	0	0	0
1670.1943359375	n/a	WORD	3420558	wordpools/wasnorm_wordpool_576.txt	LTP334	ltpFR2	10	8	FOREHEAD	592	n/a	n/a	0	0	0
1672.92724609375	n/a	WORD	3426155	wordpools/wasnorm_wordpool_576.txt	LTP334	ltpFR2	10	8	QUARTER	1148	n/a	n/a	0	0	0
1675.6435546875	n/a	WORD	3431718	wordpools/wasnorm_wordpool_576.txt	LTP334	ltpFR2	10	8	GROUND	666	n/a	n/a	0	0	0
1678.09130859375	n/a	WORD	3436731	wordpools/wasnorm_wordpool_576.txt	LTP334	ltpFR2	10	8	LIZARD	834	n/a	n/a	0	0	0
1680.7900390625	n/a	WORD	3442258	wordpools/wasnorm_wordpool_576.txt	LTP334	ltpFR2	10	8	WOMAN	1620	n/a	n/a	0	0	0
1683.43896484375	n/a	WORD	3447683	wordpools/wasnorm_wordpool_576.txt	LTP334	ltpFR2	10	8	LADY	794	n/a	n/a	0	0	0
1686.25390625	n/a	WORD	3453448	wordpools/wasnorm_wordpool_576.txt	LTP334	ltpFR2	10	8	SALAD	1224	n/a	n/a	0	0	0
1689.037109375	n/a	WORD	3459148	wordpools/wasnorm_wordpool_576.txt	LTP334	ltpFR2	10	8	PUDDLE	1140	n/a	n/a	0	0	0
1691.81787109375	n/a	WORD	3464843	wordpools/wasnorm_wordpool_576.txt	LTP334	ltpFR2	10	8	WASP	1593	n/a	n/a	0	0	0
1694.583984375	n/a	WORD	3470508	wordpools/wasnorm_wordpool_576.txt	LTP334	ltpFR2	10	8	SCARECROW	1245	n/a	n/a	0	0	0
1697.36572265625	n/a	WORD	3476205	wordpools/wasnorm_wordpool_576.txt	LTP334	ltpFR2	10	8	BARLEY	88	n/a	n/a	0	0	0
1699.94775390625	n/a	WORD	3481493	wordpools/wasnorm_wordpool_576.txt	LTP334	ltpFR2	10	8	GRIZZLY	662	n/a	n/a	0	0	0
1702.6298828125	n/a	WORD	3486986	wordpools/wasnorm_wordpool_576.txt	LTP334	ltpFR2	10	8	WITNESS	1618	n/a	n/a	0	0	0
1705.29541015625	n/a	WORD	3492445	wordpools/wasnorm_wordpool_576.txt	LTP334	ltpFR2	10	8	LAMP	798	n/a	n/a	0	0	0
1707.99462890625	n/a	WORD	3497973	wordpools/wasnorm_wordpool_576.txt	LTP334	ltpFR2	10	8	FUNGUS	614	n/a	n/a	0	0	0
1710.609375	n/a	WORD	3503328	wordpools/wasnorm_wordpool_576.txt	LTP334	ltpFR2	10	8	BODY	145	n/a	n/a	0	0	0
1713.12548828125	n/a	WORD	3508481	wordpools/wasnorm_wordpool_576.txt	LTP334	ltpFR2	10	8	RADISH	1158	n/a	n/a	0	0	0
1714.7412109375	n/a	START	3511790	n/a	LTP334	ltpFR2	10	n/a	n/a	n/a	14	n/a	n/a	n/a	n/a
1715.84228515625	n/a	DISTRACTOR	3514045	n/a	LTP334	ltpFR2	10	8	n/a	n/a	n/a	n/a	0	0	0
1715.857421875	n/a	PROB	3514076	n/a	LTP334	ltpFR2	10	n/a	n/a	n/a	14	23	8	9	6
1718.1884765625	n/a	PROB	3518850	n/a	LTP334	ltpFR2	10	n/a	n/a	n/a	14	6	2	1	3
1720.80419921875	n/a	PROB	3524207	n/a	LTP334	ltpFR2	10	n/a	n/a	n/a	14	16	8	7	1
1722.35400390625	n/a	PROB	3527381	n/a	LTP334	ltpFR2	10	n/a	n/a	n/a	14	15	5	3	7
1724.0693359375	n/a	PROB	3530894	n/a	LTP334	ltpFR2	10	n/a	n/a	n/a	14	18	5	9	4
1725.93505859375	n/a	PROB	3534715	n/a	LTP334	ltpFR2	10	n/a	n/a	n/a	14	13	8	4	1
1727.28515625	n/a	PROB	3537480	n/a	LTP334	ltpFR2	10	n/a	n/a	n/a	14	9	2	3	4
1729.166015625	n/a	PROB	3541332	n/a	LTP334	ltpFR2	10	n/a	n/a	n/a	14	18	3	6	9
1731.03271484375	n/a	PROB	3545155	n/a	LTP334	ltpFR2	10	n/a	n/a	n/a	14	13	5	7	1
1732.48193359375	n/a	PROB	3548123	n/a	LTP334	ltpFR2	10	n/a	n/a	n/a	14	10	2	2	6
1733.7978515625	n/a	PROB	3550818	n/a	LTP334	ltpFR2	10	n/a	n/a	n/a	14	10	6	2	2
1735.16357421875	n/a	PROB	3553615	n/a	LTP334	ltpFR2	10	n/a	n/a	n/a	14	9	6	2	1
1736.4638671875	n/a	PROB	3556278	n/a	LTP334	ltpFR2	10	n/a	n/a	n/a	14	18	9	4	5
1738.6396484375	n/a	STOP	3560734	n/a	LTP334	ltpFR2	10	n/a	n/a	n/a	14	n/a	n/a	n/a	n/a
1740.5458984375	n/a	REC_START	3564638	n/a	LTP334	ltpFR2	10	8	n/a	n/a	n/a	n/a	0	0	0
1740.94189453125	n/a	REC_WORD	3565449	wordpools/wasnorm_wordpool_576.txt	LTP334	ltpFR2	10	8	RADISH	1158	n/a	n/a	0	0	0
1741.7265625	n/a	REC_WORD	3567056	wordpools/wasnorm_wordpool_576.txt	LTP334	ltpFR2	10	8	SALAD	1224	n/a	n/a	0	0	0
1743.00439453125	n/a	REC_WORD	3569673	wordpools/wasnorm_wordpool_576.txt	LTP334	ltpFR2	10	8	CABBAGE	210	n/a	n/a	0	0	0
1745.41748046875	n/a	REC_WORD	3574615	wordpools/wasnorm_wordpool_576.txt	LTP334	ltpFR2	10	8	LETTUCE	814	n/a	n/a	0	0	0
1747.3515625	n/a	REC_WORD_VV	3578576	wordpools/wasnorm_wordpool_576.txt	LTP334	ltpFR2	10	8	<>	-1	n/a	n/a	0	0	0
1748.6015625	n/a	REC_WORD	3581136	wordpools/wasnorm_wordpool_576.txt	LTP334	ltpFR2	10	8	RELISH	1183	n/a	n/a	0	0	0
1751.19921875	n/a	REC_WORD	3586456	wordpools/wasnorm_wordpool_576.txt	LTP334	ltpFR2	10	8	CUSTARD	429	n/a	n/a	0	0	0
1752.2333984375	n/a	REC_WORD	3588574	wordpools/wasnorm_wordpool_576.txt	LTP334	ltpFR2	10	8	LADY	794	n/a	n/a	0	0	0
1752.98828125	n/a	REC_WORD	3590120	wordpools/wasnorm_wordpool_576.txt	LTP334	ltpFR2	10	8	WOMAN	1620	n/a	n/a	0	0	0
1753.8251953125	n/a	REC_WORD	3591834	wordpools/wasnorm_wordpool_576.txt	LTP334	ltpFR2	10	8	SCARECROW	1245	n/a	n/a	0	0	0
1755.85205078125	n/a	REC_WORD	3595985	wordpools/wasnorm_wordpool_576.txt	LTP334	ltpFR2	10	8	WASP	1593	n/a	n/a	0	0	0
1759.6162109375	n/a	REC_WORD	3603694	wordpools/wasnorm_wordpool_576.txt	LTP334	ltpFR2	10	8	BABY	64	n/a	n/a	0	0	0
1760.43115234375	n/a	REC_WORD	3605363	wordpools/wasnorm_wordpool_576.txt	LTP334	ltpFR2	10	8	BULLET	194	n/a	n/a	0	0	0
1763.0302734375	n/a	REC_WORD	3610686	wordpools/wasnorm_wordpool_576.txt	LTP334	ltpFR2	10	8	FOREHEAD	592	n/a	n/a	0	0	0
1817.091796875	n/a	REST_REWET	3721404	n/a	LTP334	ltpFR2	10	8	n/a	n/a	n/a	n/a	0	0	0
1942.29833984375	n/a	WORD	3977827	wordpools/wasnorm_wordpool_576.txt	LTP334	ltpFR2	10	9	ACTOR	5	n/a	n/a	0	0	0
1945.080078125	n/a	WORD	3983524	wordpools/wasnorm_wordpool_576.txt	LTP334	ltpFR2	10	9	COOK	372	n/a	n/a	0	0	0
1947.7451171875	n/a	WORD	3988982	wordpools/wasnorm_wordpool_576.txt	LTP334	ltpFR2	10	9	TYPIST	1532	n/a	n/a	0	0	0
1950.34423828125	n/a	WORD	3994305	wordpools/wasnorm_wordpool_576.txt	LTP334	ltpFR2	10	9	PRINCESS	1125	n/a	n/a	0	0	0
1952.97607421875	n/a	WORD	3999695	wordpools/wasnorm_wordpool_576.txt	LTP334	ltpFR2	10	9	KITCHEN	778	n/a	n/a	0	0	0
1955.458984375	n/a	WORD	4004780	wordpools/wasnorm_wordpool_576.txt	LTP334	ltpFR2	10	9	COFFEE	341	n/a	n/a	0	0	0
1958.27392578125	n/a	WORD	4010545	wordpools/wasnorm_wordpool_576.txt	LTP334	ltpFR2	10	9	SPOOL	1356	n/a	n/a	0	0	0
1960.873046875	n/a	WORD	4015868	wordpools/wasnorm_wordpool_576.txt	LTP334	ltpFR2	10	9	CROSS	413	n/a	n/a	0	0	0
1963.60498046875	n/a	WORD	4021463	wordpools/wasnorm_wordpool_576.txt	LTP334	ltpFR2	10	9	PREACHER	1119	n/a	n/a	0	0	0
1966.20263671875	n/a	WORD	4026783	wordpools/wasnorm_wordpool_576.txt	LTP334	ltpFR2	10	9	CONVICT	371	n/a	n/a	0	0	0
1968.66845703125	n/a	WORD	4031833	wordpools/wasnorm_wordpool_576.txt	LTP334	ltpFR2	10	9	HOSTESS	723	n/a	n/a	0	0	0
1971.3505859375	n/a	WORD	4037326	wordpools/wasnorm_wordpool_576.txt	LTP334	ltpFR2	10	9	WAITRESS	1581	n/a	n/a	0	0	0
1973.9326171875	n/a	WORD	4042614	wordpools/wasnorm_wordpool_576.txt	LTP334	ltpFR2	10	9	PANTHER	1009	n/a	n/a	0	0	0
1976.54833984375	n/a	WORD	4047971	wordpools/wasnorm_wordpool_576.txt	LTP334	ltpFR2	10	9	PAIL	1002	n/a	n/a	0	0	0
1979.21240234375	n/a	WORD	4053427	wordpools/wasnorm_wordpool_576.txt	LTP334	ltpFR2	10	9	COURSE	390	n/a	n/a	0	0	0
1981.8623046875	n/a	WORD	4058854	wordpools/wasnorm_wordpool_576.txt	LTP334	ltpFR2	10	9	FEMALE	559	n/a	n/a	0	0	0
1984.611328125	n/a	WORD	4064484	wordpools/wasnorm_wordpool_576.txt	LTP334	ltpFR2	10	9	SILK	1307	n/a	n/a	0	0	0
1987.22509765625	n/a	WORD	4069837	wordpools/wasnorm_wordpool_576.txt	LTP334	ltpFR2	10	9	CRUTCH	417	n/a	n/a	0	0	0
1989.80908203125	n/a	WORD	4075129	wordpools/wasnorm_wordpool_576.txt	LTP334	ltpFR2	10	9	LOVER	846	n/a	n/a	0	0	0
1992.3740234375	n/a	WORD	4080382	wordpools/wasnorm_wordpool_576.txt	LTP334	ltpFR2	10	9	DRINK	498	n/a	n/a	0	0	0
1994.93994140625	n/a	WORD	4085637	wordpools/wasnorm_wordpool_576.txt	LTP334	ltpFR2	10	9	NIGHTGOWN	953	n/a	n/a	0	0	0
1997.455078125	n/a	WORD	4090788	wordpools/wasnorm_wordpool_576.txt	LTP334	ltpFR2	10	9	DUSTPAN	509	n/a	n/a	0	0	0
2000.10400390625	n/a	WORD	4096213	wordpools/wasnorm_wordpool_576.txt	LTP334	ltpFR2	10	9	LIVER	833	n/a	n/a	0	0	0
2002.935546875	n/a	WORD	4102012	wordpools/wasnorm_wordpool_576.txt	LTP334	ltpFR2	10	9	CUPBOARD	425	n/a	n/a	0	0	0
2004.5517578125	n/a	START	4105322	n/a	LTP334	ltpFR2	10	n/a	n/a	n/a	15	n/a	n/a	n/a	n/a
2005.482421875	n/a	DISTRACTOR	4107228	n/a	LTP334	ltpFR2	10	9	n/a	n/a	n/a	n/a	0	0	0
2005.48486328125	n/a	PROB	4107233	n/a	LTP334	ltpFR2	10	n/a	n/a	n/a	15	11	1	9	1
2006.7333984375	n/a	PROB	4109790	n/a	LTP334	ltpFR2	10	n/a	n/a	n/a	15	20	8	7	5
2008.849609375	n/a	PROB	4114124	n/a	LTP334	ltpFR2	10	n/a	n/a	n/a	15	19	8	4	7
2010.41552734375	n/a	PROB	4117331	n/a	LTP334	ltpFR2	10	n/a	n/a	n/a	15	18	8	9	1
2011.7646484375	n/a	PROB	4120094	n/a	LTP334	ltpFR2	10	n/a	n/a	n/a	15	6	4	1	1
2012.88037109375	n/a	PROB	4122379	n/a	LTP334	ltpFR2	10	n/a	n/a	n/a	15	19	7	7	5
2014.3134765625	n/a	PROB	4125314	n/a	LTP334	ltpFR2	10	n/a	n/a	n/a	15	20	7	5	8
2016.37939453125	n/a	PROB	4129545	n/a	LTP334	ltpFR2	10	n/a	n/a	n/a	15	10	1	1	8
2017.51220703125	n/a	PROB	4131865	n/a	LTP334	ltpFR2	10	n/a	n/a	n/a	15	16	3	7	6
2019.3115234375	n/a	PROB	4135550	n/a	LTP334	ltpFR2	10	n/a	n/a	n/a	15	14	1	6	7
2020.89306640625	n/a	PROB	4138789	n/a	LTP334	ltpFR2	10	n/a	n/a	n/a	15	17	6	6	5
2022.42626953125	n/a	PROB	4141929	n/a	LTP334	ltpFR2	10	n/a	n/a	n/a	15	21	3	9	9
2023.7919921875	n/a	PROB	4144726	n/a	LTP334	ltpFR2	10	n/a	n/a	n/a	15	24	8	8	8
2025.0751953125	n/a	PROB	4147354	n/a	LTP334	ltpFR2	10	n/a	n/a	n/a	15	11	2	5	4
2028.5361328125	n/a	STOP	4154442	n/a	LTP334	ltpFR2	10	n/a	n/a	n/a	15	n/a	n/a	n/a	n/a
2030.373046875	n/a	REC_START	4158204	n/a	LTP334	ltpFR2	10	9	n/a	n/a	n/a	n/a	0	0	0
2031.05322265625	n/a	REC_WORD	4159597	wordpools/wasnorm_wordpool_576.txt	LTP334	ltpFR2	10	9	PAIL	1002	n/a	n/a	0	0	0
2031.5859375	n/a	REC_WORD	4160688	wordpools/wasnorm_wordpool_576.txt	LTP334	ltpFR2	10	9	FEMALE	559	n/a	n/a	0	0	0
2032.32373046875	n/a	REC_WORD	4162199	wordpools/wasnorm_wordpool_576.txt	LTP334	ltpFR2	10	9	SILK	1307	n/a	n/a	0	0	0
2033.49169921875	n/a	REC_WORD	4164591	wordpools/wasnorm_wordpool_576.txt	LTP334	ltpFR2	10	9	DRINK	498	n/a	n/a	0	0	0
2034.2451171875	n/a	REC_WORD	4166134	wordpools/wasnorm_wordpool_576.txt	LTP334	ltpFR2	10	9	CRUTCH	417	n/a	n/a	0	0	0
2036.6396484375	n/a	REC_WORD	4171038	wordpools/wasnorm_wordpool_576.txt	LTP334	ltpFR2	10	9	SPOOL	1356	n/a	n/a	0	0	0
2038.6728515625	n/a	REC_WORD	4175202	wordpools/wasnorm_wordpool_576.txt	LTP334	ltpFR2	10	9	KITCHEN	778	n/a	n/a	0	0	0
2044.27978515625	n/a	REC_WORD	4186685	wordpools/wasnorm_wordpool_576.txt	LTP334	ltpFR2	10	9	COOK	372	n/a	n/a	0	0	0
2047.0673828125	n/a	REC_WORD	4192394	wordpools/wasnorm_wordpool_576.txt	LTP334	ltpFR2	10	9	WAITRESS	1581	n/a	n/a	0	0	0
2047.69775390625	n/a	REC_WORD	4193685	wordpools/wasnorm_wordpool_576.txt	LTP334	ltpFR2	10	9	HOSTESS	723	n/a	n/a	0	0	0
2048.59765625	n/a	REC_WORD	4195528	wordpools/wasnorm_wordpool_576.txt	LTP334	ltpFR2	10	9	PREACHER	1119	n/a	n/a	0	0	0
2049.22265625	n/a	REC_WORD	4196808	wordpools/wasnorm_wordpool_576.txt	LTP334	ltpFR2	10	9	CROSS	413	n/a	n/a	0	0	0
2049.8515625	n/a	REC_WORD	4198096	wordpools/wasnorm_wordpool_576.txt	LTP334	ltpFR2	10	9	CONVICT	371	n/a	n/a	0	0	0
2054.63427734375	n/a	REC_WORD	4207891	wordpools/wasnorm_wordpool_576.txt	LTP334	ltpFR2	10	9	TYPIST	1532	n/a	n/a	0	0	0
2056.80419921875	n/a	REC_WORD	4212335	wordpools/wasnorm_wordpool_576.txt	LTP334	ltpFR2	10	9	ACTOR	5	n/a	n/a	0	0	0
2058.64208984375	n/a	REC_WORD_VV	4216099	wordpools/wasnorm_wordpool_576.txt	LTP334	ltpFR2	10	9	<>	-1	n/a	n/a	0	0	0
2058.779296875	n/a	REC_WORD	4216380	wordpools/wasnorm_wordpool_576.txt	LTP334	ltpFR2	10	9	ACTRESS	6	n/a	n/a	0	0	0
2066.2509765625	n/a	REC_WORD	4231682	wordpools/wasnorm_wordpool_576.txt	LTP334	ltpFR2	10	9	CUPBOARD	425	n/a	n/a	0	0	0
2067.0498046875	n/a	REC_WORD	4233318	wordpools/wasnorm_wordpool_576.txt	LTP334	ltpFR2	10	9	NIGHTGOWN	953	n/a	n/a	0	0	0
2092.447265625	n/a	REC_WORD	4285332	wordpools/wasnorm_wordpool_576.txt	LTP334	ltpFR2	10	9	PRINCESS	1125	n/a	n/a	0	0	0
2120.82861328125	n/a	WORD	4343457	wordpools/wasnorm_wordpool_576.txt	LTP334	ltpFR2	10	10	BLOCKADE	137	n/a	n/a	0	0	0
2123.611328125	n/a	WORD	4349156	wordpools/wasnorm_wordpool_576.txt	LTP334	ltpFR2	10	10	CHURCH	307	n/a	n/a	0	0	0
2126.29345703125	n/a	WORD	4354649	wordpools/wasnorm_wordpool_576.txt	LTP334	ltpFR2	10	10	FRIAR	605	n/a	n/a	0	0	0
2128.95849609375	n/a	WORD	4360107	wordpools/wasnorm_wordpool_576.txt	LTP334	ltpFR2	10	10	JUDGE	761	n/a	n/a	0	0	0
2131.64013671875	n/a	WORD	4365599	wordpools/wasnorm_wordpool_576.txt	LTP334	ltpFR2	10	10	CANDY	230	n/a	n/a	0	0	0
2134.17138671875	n/a	WORD	4370783	wordpools/wasnorm_wordpool_576.txt	LTP334	ltpFR2	10	10	GYMNAST	675	n/a	n/a	0	0	0
2136.80517578125	n/a	WORD	4376177	wordpools/wasnorm_wordpool_576.txt	LTP334	ltpFR2	10	10	NECKLACE	940	n/a	n/a	0	0	0
2139.3203125	n/a	WORD	4381328	wordpools/wasnorm_wordpool_576.txt	LTP334	ltpFR2	10	10	ROBBER	1197	n/a	n/a	0	0	0
2141.85205078125	n/a	WORD	4386513	wordpools/wasnorm_wordpool_576.txt	LTP334	ltpFR2	10	10	LAGOON	795	n/a	n/a	0	0	0
2144.6181640625	n/a	WORD	4392178	wordpools/wasnorm_wordpool_576.txt	LTP334	ltpFR2	10	10	JURY	766	n/a	n/a	0	0	0
2147.0498046875	n/a	WORD	4397158	wordpools/wasnorm_wordpool_576.txt	LTP334	ltpFR2	10	10	MARINE	869	n/a	n/a	0	0	0
2149.61474609375	n/a	WORD	4402411	wordpools/wasnorm_wordpool_576.txt	LTP334	ltpFR2	10	10	ATOM	55	n/a	n/a	0	0	0
2152.296875	n/a	WORD	4407904	wordpools/wasnorm_wordpool_576.txt	LTP334	ltpFR2	10	10	SHELTER	1282	n/a	n/a	0	0	0
2154.86279296875	n/a	WORD	4413159	wordpools/wasnorm_wordpool_576.txt	LTP334	ltpFR2	10	10	YACHT	1629	n/a	n/a	0	0	0
2157.51171875	n/a	WORD	4418584	wordpools/wasnorm_wordpool_576.txt	LTP334	ltpFR2	10	10	LAVA	804	n/a	n/a	0	0	0
2160.0263671875	n/a	WORD	4423734	wordpools/wasnorm_wordpool_576.txt	LTP334	ltpFR2	10	10	OUTLAW	989	n/a	n/a	0	0	0
2162.6083984375	n/a	WORD	4429022	wordpools/wasnorm_wordpool_576.txt	LTP334	ltpFR2	10	10	ELBOW	520	n/a	n/a	0	0	0
2165.357421875	n/a	WORD	4434652	wordpools/wasnorm_wordpool_576.txt	LTP334	ltpFR2	10	10	FLAG	573	n/a	n/a	0	0	0
2168.03955078125	n/a	WORD	4440145	wordpools/wasnorm_wordpool_576.txt	LTP334	ltpFR2	10	10	STAPLE	1371	n/a	n/a	0	0	0
2170.7880859375	n/a	WORD	4445774	wordpools/wasnorm_wordpool_576.txt	LTP334	ltpFR2	10	10	BATHTUB	100	n/a	n/a	0	0	0
2173.21923828125	n/a	WORD	4450753	wordpools/wasnorm_wordpool_576.txt	LTP334	ltpFR2	10	10	PEBBLE	1035	n/a	n/a	0	0	0
2175.96923828125	n/a	WORD	4456385	wordpools/wasnorm_wordpool_576.txt	LTP334	ltpFR2	10	10	POET	1095	n/a	n/a	0	0	0
2178.76806640625	n/a	WORD	4462117	wordpools/wasnorm_wordpool_576.txt	LTP334	ltpFR2	10	10	AUTHOR	61	n/a	n/a	0	0	0
2181.533203125	n/a	WORD	4467780	wordpools/wasnorm_wordpool_576.txt	LTP334	ltpFR2	10	10	ONION	977	n/a	n/a	0	0	0
2183.14892578125	n/a	START	4471089	n/a	LTP334	ltpFR2	10	n/a	n/a	n/a	16	n/a	n/a	n/a	n/a
2184.3388671875	n/a	DISTRACTOR	4473526	n/a	LTP334	ltpFR2	10	10	n/a	n/a	n/a	n/a	0	0	0
2184.34814453125	n/a	PROB	4473545	n/a	LTP334	ltpFR2	10	n/a	n/a	n/a	16	18	6	8	4
2186.248046875	n/a	PROB	4477436	n/a	LTP334	ltpFR2	10	n/a	n/a	n/a	16	14	6	1	7
2189.3798828125	n/a	PROB	4483850	n/a	LTP334	ltpFR2	10	n/a	n/a	n/a	16	14	2	4	8
2191.095703125	n/a	PROB	4487364	n/a	LTP334	ltpFR2	10	n/a	n/a	n/a	16	8	3	2	3
2192.8447265625	n/a	PROB	4490946	n/a	LTP334	ltpFR2	10	n/a	n/a	n/a	16	14	7	6	1
2194.34375	n/a	PROB	4494016	n/a	LTP334	ltpFR2	10	n/a	n/a	n/a	16	10	2	7	1
2195.69287109375	n/a	PROB	4496779	n/a	LTP334	ltpFR2	10	n/a	n/a	n/a	16	14	4	5	5
2196.9423828125	n/a	PROB	4499338	n/a	LTP334	ltpFR2	10	n/a	n/a	n/a	16	12	1	9	2
2198.5244140625	n/a	PROB	4502578	n/a	LTP334	ltpFR2	10	n/a	n/a	n/a	16	21	8	5	8
2200.49072265625	n/a	PROB	4506605	n/a	LTP334	ltpFR2	10	n/a	n/a	n/a	16	11	6	2	3
2202.25634765625	n/a	PROB	4510221	n/a	LTP334	ltpFR2	10	n/a	n/a	n/a	16	16	5	6	5
2207.1484375	n/a	STOP	4520240	n/a	LTP334	ltpFR2	10	n/a	n/a	n/a	16	n/a	n/a	n/a	n/a
2209.0205078125	n/a	REC_START	4524074	n/a	LTP334	ltpFR2	10	10	n/a	n/a	n/a	n/a	0	0	0
2209.59619140625	n/a	REC_WORD	4525253	wordpools/wasnorm_wordpool_576.txt	LTP334	ltpFR2	10	10	BLOCKADE	137	n/a	n/a	0	0	0
2210.4482421875	n/a	REC_WORD	4526998	wordpools/wasnorm_wordpool_576.txt	LTP334	ltpFR2	10	10	CHURCH	307	n/a	n/a	0	0	0
2211.158203125	n/a	REC_WORD	4528452	wordpools/wasnorm_wordpool_576.txt	LTP334	ltpFR2	10	10	FRIAR	605	n/a	n/a	0	0	0
2215.296875	n/a	REC_WORD	4536928	wordpools/wasnorm_wordpool_576.txt	LTP334	ltpFR2	10	10	TRIAL	-1	n/a	n/a	0	0	0
2216.22705078125	n/a	REC_WORD	4538833	wordpools/wasnorm_wordpool_576.txt	LTP334	ltpFR2	10	10	JUDGE	761	n/a	n/a	0	0	0
2217.0302734375	n/a	REC_WORD	4540478	wordpools/wasnorm_wordpool_576.txt	LTP334	ltpFR2	10	10	JURY	766	n/a	n/a	0	0	0
2219.97119140625	n/a	REC_WORD	4546501	wordpools/wasnorm_wordpool_576.txt	LTP334	ltpFR2	10	10	ROBBER	1197	n/a	n/a	0	0	0
2221.72216796875	n/a	REC_WORD	4550087	wordpools/wasnorm_wordpool_576.txt	LTP334	ltpFR2	10	10	OUTLAW	989	n/a	n/a	0	0	0
2223.43603515625	n/a	REC_WORD	4553597	wordpools/wasnorm_wordpool_576.txt	LTP334	ltpFR2	10	10	NECKLACE	940	n/a	n/a	0	0	0
2225.48876953125	n/a	REC_WORD	4557801	wordpools/wasnorm_wordpool_576.txt	LTP334	ltpFR2	10	10	STAPLE	1371	n/a	n/a	0	0	0
2226.548828125	n/a	REC_WORD	4559972	wordpools/wasnorm_wordpool_576.txt	LTP334	ltpFR2	10	10	BATHTUB	100	n/a	n/a	0	0	0
2229.4599609375	n/a	REC_WORD	4565934	wordpools/wasnorm_wordpool_576.txt	LTP334	ltpFR2	10	10	CANDY	230	n/a	n/a	0	0	0
2230.18994140625	n/a	REC_WORD	4567429	wordpools/wasnorm_wordpool_576.txt	LTP334	ltpFR2	10	10	GYMNAST	675	n/a	n/a	0	0	0
2239.41064453125	n/a	REC_WORD	4586313	wordpools/wasnorm_wordpool_576.txt	LTP334	ltpFR2	10	10	AUTHOR	61	n/a	n/a	0	0	0
2239.99951171875	n/a	REC_WORD	4587519	wordpools/wasnorm_wordpool_576.txt	LTP334	ltpFR2	10	10	POET	1095	n/a	n/a	0	0	0
2243.8974609375	n/a	REC_WORD	4595502	wordpools/wasnorm_wordpool_576.txt	LTP334	ltpFR2	10	10	LAGOON	795	n/a	n/a	0	0	0
2250.10595703125	n/a	REC_WORD	4608217	wordpools/wasnorm_wordpool_576.txt	LTP334	ltpFR2	10	10	ONION	977	n/a	n/a	0	0	0
2299.47705078125	n/a	WORD	4709329	wordpools/wasnorm_wordpool_576.txt	LTP334	ltpFR2	10	11	GARLIC	624	n/a	n/a	0	0	0
2302.0419921875	n/a	WORD	4714582	wordpools/wasnorm_wordpool_576.txt	LTP334	ltpFR2	10	11	SOFTBALL	1343	n/a	n/a	0	0	0
2304.54052734375	n/a	WORD	4719699	wordpools/wasnorm_wordpool_576.txt	LTP334	ltpFR2	10	11	DANCER	437	n/a	n/a	0	0	0
2307.28955078125	n/a	WORD	4725329	wordpools/wasnorm_wordpool_576.txt	LTP334	ltpFR2	10	11	KIDNEY	776	n/a	n/a	0	0	0
2309.82177734375	n/a	WORD	4730515	wordpools/wasnorm_wordpool_576.txt	LTP334	ltpFR2	10	11	PECAN	1036	n/a	n/a	0	0	0
2312.5703125	n/a	WORD	4736144	wordpools/wasnorm_wordpool_576.txt	LTP334	ltpFR2	10	11	PATROL	1027	n/a	n/a	0	0	0
2315.28564453125	n/a	WORD	4741705	wordpools/wasnorm_wordpool_576.txt	LTP334	ltpFR2	10	11	IDOL	733	n/a	n/a	0	0	0
2317.7841796875	n/a	WORD	4746822	wordpools/wasnorm_wordpool_576.txt	LTP334	ltpFR2	10	11	BEEF	113	n/a	n/a	0	0	0
2320.56640625	n/a	WORD	4752520	wordpools/wasnorm_wordpool_576.txt	LTP334	ltpFR2	10	11	CARROT	249	n/a	n/a	0	0	0
2323.3310546875	n/a	WORD	4758182	wordpools/wasnorm_wordpool_576.txt	LTP334	ltpFR2	10	11	BIKE	125	n/a	n/a	0	0	0
2326.0302734375	n/a	WORD	4763710	wordpools/wasnorm_wordpool_576.txt	LTP334	ltpFR2	10	11	COD	340	n/a	n/a	0	0	0
2328.8291015625	n/a	WORD	4769442	wordpools/wasnorm_wordpool_576.txt	LTP334	ltpFR2	10	11	SEAL	1262	n/a	n/a	0	0	0
2331.578125	n/a	WORD	4775072	wordpools/wasnorm_wordpool_576.txt	LTP334	ltpFR2	10	11	YOLK	1633	n/a	n/a	0	0	0
2334.19189453125	n/a	WORD	4780425	wordpools/wasnorm_wordpool_576.txt	LTP334	ltpFR2	10	11	STONE	1385	n/a	n/a	0	0	0
2336.90869140625	n/a	WORD	4785989	wordpools/wasnorm_wordpool_576.txt	LTP334	ltpFR2	10	11	PIANO	1057	n/a	n/a	0	0	0
2339.52392578125	n/a	WORD	4791345	wordpools/wasnorm_wordpool_576.txt	LTP334	ltpFR2	10	11	LIPSTICK	829	n/a	n/a	0	0	0
2341.97265625	n/a	WORD	4796360	wordpools/wasnorm_wordpool_576.txt	LTP334	ltpFR2	10	11	WAGON	1578	n/a	n/a	0	0	0
2344.5048828125	n/a	WORD	4801546	wordpools/wasnorm_wordpool_576.txt	LTP334	ltpFR2	10	11	CANAL	226	n/a	n/a	0	0	0
2347.08642578125	n/a	WORD	4806833	wordpools/wasnorm_wordpool_576.txt	LTP334	ltpFR2	10	11	JOURNAL	760	n/a	n/a	0	0	0
2349.65234375	n/a	WORD	4812088	wordpools/wasnorm_wordpool_576.txt	LTP334	ltpFR2	10	11	BUNNY	198	n/a	n/a	0	0	0
2352.1015625	n/a	WORD	4817104	wordpools/wasnorm_wordpool_576.txt	LTP334	ltpFR2	10	11	HORSE	719	n/a	n/a	0	0	0
2354.83349609375	n/a	WORD	4822699	wordpools/wasnorm_wordpool_576.txt	LTP334	ltpFR2	10	11	ZEBRA	1635	n/a	n/a	0	0	0
2357.615234375	n/a	WORD	4828396	wordpools/wasnorm_wordpool_576.txt	LTP334	ltpFR2	10	11	ICING	732	n/a	n/a	0	0	0
2360.38037109375	n/a	WORD	4834059	wordpools/wasnorm_wordpool_576.txt	LTP334	ltpFR2	10	11	SHORTCAKE	1292	n/a	n/a	0	0	0
2361.99609375	n/a	START	4837368	n/a	LTP334	ltpFR2	10	n/a	n/a	n/a	17	n/a	n/a	n/a	n/a
2363.0654296875	n/a	DISTRACTOR	4839558	n/a	LTP334	ltpFR2	10	11	n/a	n/a	n/a	n/a	0	0	0
2363.0791015625	n/a	PROB	4839586	n/a	LTP334	ltpFR2	10	n/a	n/a	n/a	17	4	1	2	1
2364.34521484375	n/a	PROB	4842179	n/a	LTP334	ltpFR2	10	n/a	n/a	n/a	17	18	9	3	6
2365.9609375	n/a	PROB	4845488	n/a	LTP334	ltpFR2	10	n/a	n/a	n/a	17	16	8	4	4
2367.4599609375	n/a	PROB	4848558	n/a	LTP334	ltpFR2	10	n/a	n/a	n/a	17	18	4	8	6
2369.1748046875	n/a	PROB	4852070	n/a	LTP334	ltpFR2	10	n/a	n/a	n/a	17	16	8	1	7
2370.576171875	n/a	PROB	4854940	n/a	LTP334	ltpFR2	10	n/a	n/a	n/a	17	20	7	6	7
2372.2421875	n/a	PROB	4858352	n/a	LTP334	ltpFR2	10	n/a	n/a	n/a	17	21	5	7	9
2375.1240234375	n/a	PROB	4864254	n/a	LTP334	ltpFR2	10	n/a	n/a	n/a	17	7	2	3	2
2376.9560546875	n/a	PROB	4868006	n/a	LTP334	ltpFR2	10	n/a	n/a	n/a	17	15	4	4	7
2379.07177734375	n/a	PROB	4872339	n/a	LTP334	ltpFR2	10	n/a	n/a	n/a	17	18	4	5	9
2381.0869140625	n/a	PROB	4876466	n/a	LTP334	ltpFR2	10	n/a	n/a	n/a	17	19	3	9	7
2382.63671875	n/a	PROB	4879640	n/a	LTP334	ltpFR2	10	n/a	n/a	n/a	17	18	9	6	3
2384.06982421875	n/a	PROB	4882575	n/a	LTP334	ltpFR2	10	n/a	n/a	n/a	17	14	7	2	5
2385.57763671875	n/a	STOP	4885663	n/a	LTP334	ltpFR2	10	n/a	n/a	n/a	17	n/a	n/a	n/a	n/a
2387.75146484375	n/a	REC_START	4890115	n/a	LTP334	ltpFR2	10	11	n/a	n/a	n/a	n/a	0	0	0
2388.7353515625	n/a	REC_WORD	4892130	wordpools/wasnorm_wordpool_576.txt	LTP334	ltpFR2	10	11	SHORTCAKE	1292	n/a	n/a	0	0	0
2389.92236328125	n/a	REC_WORD	4894561	wordpools/wasnorm_wordpool_576.txt	LTP334	ltpFR2	10	11	ICING	732	n/a	n/a	0	0	0
2394.6552734375	n/a	REC_WORD	4904254	wordpools/wasnorm_wordpool_576.txt	LTP334	ltpFR2	10	11	GARLIC	624	n/a	n/a	0	0	0
2413.44189453125	n/a	REC_WORD	4942729	wordpools/wasnorm_wordpool_576.txt	LTP334	ltpFR2	10	11	YOLK	1633	n/a	n/a	0	0	0
2414.5068359375	n/a	REC_WORD	4944910	wordpools/wasnorm_wordpool_576.txt	LTP334	ltpFR2	10	11	BEEF	113	n/a	n/a	0	0	0
2431.5693359375	n/a	REC_WORD	4979854	wordpools/wasnorm_wordpool_576.txt	LTP334	ltpFR2	10	11	CANAL	226	n/a	n/a	0	0	0
2440.21923828125	n/a	REC_WORD	4997569	wordpools/wasnorm_wordpool_576.txt	LTP334	ltpFR2	10	11	PATROL	1027	n/a	n/a	0	0	0
2445.34326171875	n/a	REC_WORD	5008063	wordpools/wasnorm_wordpool_576.txt	LTP334	ltpFR2	10	11	BIKER	-1	n/a	n/a	0	0	0
2445.8408203125	n/a	REC_WORD	5009082	wordpools/wasnorm_wordpool_576.txt	LTP334	ltpFR2	10	11	WAGON	1578	n/a	n/a	0	0	0
2448.552734375	n/a	REC_WORD	5014636	wordpools/wasnorm_wordpool_576.txt	LTP334	ltpFR2	10	11	LIPSTICK	829	n/a	n/a	0	0	0
2478.2060546875	n/a	WORD	5075366	wordpools/wasnorm_wordpool_576.txt	LTP334	ltpFR2	10	12	BASEMENT	94	n/a	n/a	0	0	0
2480.8388671875	n/a	WORD	5080758	wordpools/wasnorm_wordpool_576.txt	LTP334	ltpFR2	10	12	SEAGULL	1261	n/a	n/a	0	0	0
2483.32080078125	n/a	WORD	5085841	wordpools/wasnorm_wordpool_576.txt	LTP334	ltpFR2	10	12	MISSILE	900	n/a	n/a	0	0	0
2486.13671875	n/a	WORD	5091608	wordpools/wasnorm_wordpool_576.txt	LTP334	ltpFR2	10	12	APRON	35	n/a	n/a	0	0	0
2488.9189453125	n/a	WORD	5097306	wordpools/wasnorm_wordpool_576.txt	LTP334	ltpFR2	10	12	CONCERT	360	n/a	n/a	0	0	0
2491.583984375	n/a	WORD	5102764	wordpools/wasnorm_wordpool_576.txt	LTP334	ltpFR2	10	12	SNAKE	1333	n/a	n/a	0	0	0
2494.2998046875	n/a	WORD	5108326	wordpools/wasnorm_wordpool_576.txt	LTP334	ltpFR2	10	12	ASIA	46	n/a	n/a	0	0	0
2496.8974609375	n/a	WORD	5113646	wordpools/wasnorm_wordpool_576.txt	LTP334	ltpFR2	10	12	RECORD	1176	n/a	n/a	0	0	0
2499.6806640625	n/a	WORD	5119346	wordpools/wasnorm_wordpool_576.txt	LTP334	ltpFR2	10	12	SIDEWALK	1303	n/a	n/a	0	0	0
2502.3623046875	n/a	WORD	5124838	wordpools/wasnorm_wordpool_576.txt	LTP334	ltpFR2	10	12	DENTIST	447	n/a	n/a	0	0	0
2504.9775390625	n/a	WORD	5130194	wordpools/wasnorm_wordpool_576.txt	LTP334	ltpFR2	10	12	NOTEBOOK	959	n/a	n/a	0	0	0
2507.4765625	n/a	WORD	5135312	wordpools/wasnorm_wordpool_576.txt	LTP334	ltpFR2	10	12	WRENCH	1625	n/a	n/a	0	0	0
2510.20751953125	n/a	WORD	5140905	wordpools/wasnorm_wordpool_576.txt	LTP334	ltpFR2	10	12	SUSPECT	1415	n/a	n/a	0	0	0
2512.7744140625	n/a	WORD	5146162	wordpools/wasnorm_wordpool_576.txt	LTP334	ltpFR2	10	12	ITEM	746	n/a	n/a	0	0	0
2515.55615234375	n/a	WORD	5151859	wordpools/wasnorm_wordpool_576.txt	LTP334	ltpFR2	10	12	POSTAGE	1113	n/a	n/a	0	0	0
2518.35400390625	n/a	WORD	5157589	wordpools/wasnorm_wordpool_576.txt	LTP334	ltpFR2	10	12	STICKER	1382	n/a	n/a	0	0	0
2520.85302734375	n/a	WORD	5162707	wordpools/wasnorm_wordpool_576.txt	LTP334	ltpFR2	10	12	RECEIPT	1173	n/a	n/a	0	0	0
2523.3359375	n/a	WORD	5167792	wordpools/wasnorm_wordpool_576.txt	LTP334	ltpFR2	10	12	MARROW	872	n/a	n/a	0	0	0
2526.0009765625	n/a	WORD	5173250	wordpools/wasnorm_wordpool_576.txt	LTP334	ltpFR2	10	12	VICTIM	1562	n/a	n/a	0	0	0
2528.69970703125	n/a	WORD	5178777	wordpools/wasnorm_wordpool_576.txt	LTP334	ltpFR2	10	12	EGYPT	519	n/a	n/a	0	0	0
2531.28173828125	n/a	WORD	5184065	wordpools/wasnorm_wordpool_576.txt	LTP334	ltpFR2	10	12	TEMPLE	1448	n/a	n/a	0	0	0
2533.74658203125	n/a	WORD	5189113	wordpools/wasnorm_wordpool_576.txt	LTP334	ltpFR2	10	12	AWARD	63	n/a	n/a	0	0	0
2536.19482421875	n/a	WORD	5194127	wordpools/wasnorm_wordpool_576.txt	LTP334	ltpFR2	10	12	MEDAL	885	n/a	n/a	0	0	0
2538.6943359375	n/a	WORD	5199246	wordpools/wasnorm_wordpool_576.txt	LTP334	ltpFR2	10	12	CHAMPAGNE	278	n/a	n/a	0	0	0
2540.310546875	n/a	START	5202556	n/a	LTP334	ltpFR2	10	n/a	n/a	n/a	18	n/a	n/a	n/a	n/a
2541.15966796875	n/a	DISTRACTOR	5204295	n/a	LTP334	ltpFR2	10	12	n/a	n/a	n/a	n/a	0	0	0
2541.17529296875	n/a	PROB	5204327	n/a	LTP334	ltpFR2	10	n/a	n/a	n/a	18	9	3	2	4
2543.00927734375	n/a	PROB	5208083	n/a	LTP334	ltpFR2	10	n/a	n/a	n/a	18	22	4	9	8
2545.2412109375	n/a	PROB	5212654	n/a	LTP334	ltpFR2	10	n/a	n/a	n/a	18	14	9	3	2
2546.92431640625	n/a	PROB	5216101	n/a	LTP334	ltpFR2	10	n/a	n/a	n/a	18	12	9	2	1
2548.6064453125	n/a	PROB	5219546	n/a	LTP334	ltpFR2	10	n/a	n/a	n/a	18	8	1	6	1
2550.00634765625	n/a	PROB	5222413	n/a	LTP334	ltpFR2	10	n/a	n/a	n/a	18	7	2	4	1
2551.98828125	n/a	PROB	5226472	n/a	LTP334	ltpFR2	10	n/a	n/a	n/a	18	16	8	4	4
2553.37109375	n/a	PROB	5229304	n/a	LTP334	ltpFR2	10	n/a	n/a	n/a	18	16	7	5	4
2555.38720703125	n/a	PROB	5233433	n/a	LTP334	ltpFR2	10	n/a	n/a	n/a	18	13	6	2	5
2557.2861328125	n/a	PROB	5237322	n/a	LTP334	ltpFR2	10	n/a	n/a	n/a	18	18	9	1	8
2559.10205078125	n/a	PROB	5241041	n/a	LTP334	ltpFR2	10	n/a	n/a	n/a	18	16	6	5	5
2560.6181640625	n/a	PROB	5244146	n/a	LTP334	ltpFR2	10	n/a	n/a	n/a	18	1	3	6	7
2562.14892578125	n/a	PROB	5247281	n/a	LTP334	ltpFR2	10	n/a	n/a	n/a	18	6	8	9	7
2562.93798828125	n/a	STOP	5248897	n/a	LTP334	ltpFR2	10	n/a	n/a	n/a	18	n/a	n/a	n/a	n/a
2566.11474609375	n/a	REC_START	5255403	n/a	LTP334	ltpFR2	10	12	n/a	n/a	n/a	n/a	0	0	0
2566.57275390625	n/a	REC_WORD	5256341	wordpools/wasnorm_wordpool_576.txt	LTP334	ltpFR2	10	12	MISSILE	900	n/a	n/a	0	0	0
2568.87158203125	n/a	REC_WORD	5261049	wordpools/wasnorm_wordpool_576.txt	LTP334	ltpFR2	10	12	NOTEBOOK	959	n/a	n/a	0	0	0
2570.95263671875	n/a	REC_WORD	5265311	wordpools/wasnorm_wordpool_576.txt	LTP334	ltpFR2	10	12	DENTIST	447	n/a	n/a	0	0	0
2574.798828125	n/a	REC_WORD	5273188	wordpools/wasnorm_wordpool_576.txt	LTP334	ltpFR2	10	12	APRON	35	n/a	n/a	0	0	0
2582.09423828125	n/a	REC_WORD	5288129	wordpools/wasnorm_wordpool_576.txt	LTP334	ltpFR2	10	12	ARTIST	43	n/a	n/a	0	0	0
2583.076171875	n/a	REC_WORD	5290140	wordpools/wasnorm_wordpool_576.txt	LTP334	ltpFR2	10	12	SUSPECT	1415	n/a	n/a	0	0	0
2584.23828125	n/a	REC_WORD	5292520	wordpools/wasnorm_wordpool_576.txt	LTP334	ltpFR2	10	12	VICTIM	1562	n/a	n/a	0	0	0
2591.54931640625	n/a	REC_WORD	5307493	wordpools/wasnorm_wordpool_576.txt	LTP334	ltpFR2	10	12	TEMPLE	1448	n/a	n/a	0	0	0
2592.22607421875	n/a	REC_WORD	5308879	wordpools/wasnorm_wordpool_576.txt	LTP334	ltpFR2	10	12	EGYPT	519	n/a	n/a	0	0	0
2593.85986328125	n/a	REC_WORD	5312225	wordpools/wasnorm_wordpool_576.txt	LTP334	ltpFR2	10	12	ASIA	46	n/a	n/a	0	0	0
2617.2392578125	n/a	REC_WORD	5360106	wordpools/wasnorm_wordpool_576.txt	LTP334	ltpFR2	10	12	SNAKE	1333	n/a	n/a	0	0	0
2619.25732421875	n/a	REC_WORD	5364239	wordpools/wasnorm_wordpool_576.txt	LTP334	ltpFR2	10	12	RECORD	1176	n/a	n/a	0	0	0
2619.8232421875	n/a	REC_WORD	5365398	wordpools/wasnorm_wordpool_576.txt	LTP334	ltpFR2	10	12	AWARD	63	n/a	n/a	0	0	0
2620.3076171875	n/a	REC_WORD	5366390	wordpools/wasnorm_wordpool_576.txt	LTP334	ltpFR2	10	12	MEDAL	885	n/a	n/a	0	0	0
2656.5712890625	n/a	WORD	5440658	wordpools/wasnorm_wordpool_576.txt	LTP334	ltpFR2	10	13	BINDER	127	n/a	n/a	0	0	0
2659.05322265625	n/a	WORD	5445741	wordpools/wasnorm_wordpool_576.txt	LTP334	ltpFR2	10	13	PEANUT	1032	n/a	n/a	0	0	0
2661.7021484375	n/a	WORD	5451166	wordpools/wasnorm_wordpool_576.txt	LTP334	ltpFR2	10	13	ORANGE	980	n/a	n/a	0	0	0
2664.25146484375	n/a	WORD	5456387	wordpools/wasnorm_wordpool_576.txt	LTP334	ltpFR2	10	13	GRAPE	654	n/a	n/a	0	0	0
2666.88330078125	n/a	WORD	5461777	wordpools/wasnorm_wordpool_576.txt	LTP334	ltpFR2	10	13	EYELASH	546	n/a	n/a	0	0	0
2669.44921875	n/a	WORD	5467032	wordpools/wasnorm_wordpool_576.txt	LTP334	ltpFR2	10	13	KNAPSACK	783	n/a	n/a	0	0	0
2671.93115234375	n/a	WORD	5472115	wordpools/wasnorm_wordpool_576.txt	LTP334	ltpFR2	10	13	SPHINX	1349	n/a	n/a	0	0	0
2674.59619140625	n/a	WORD	5477573	wordpools/wasnorm_wordpool_576.txt	LTP334	ltpFR2	10	13	TRENCH	1503	n/a	n/a	0	0	0
2677.044921875	n/a	WORD	5482588	wordpools/wasnorm_wordpool_576.txt	LTP334	ltpFR2	10	13	PATIENT	1024	n/a	n/a	0	0	0
2679.72705078125	n/a	WORD	5488081	wordpools/wasnorm_wordpool_576.txt	LTP334	ltpFR2	10	13	NURSE	963	n/a	n/a	0	0	0
2682.2255859375	n/a	WORD	5493198	wordpools/wasnorm_wordpool_576.txt	LTP334	ltpFR2	10	13	LAPEL	800	n/a	n/a	0	0	0
2684.6748046875	n/a	WORD	5498214	wordpools/wasnorm_wordpool_576.txt	LTP334	ltpFR2	10	13	HONEY	713	n/a	n/a	0	0	0
2687.40673828125	n/a	WORD	5503809	wordpools/wasnorm_wordpool_576.txt	LTP334	ltpFR2	10	13	COMPASS	358	n/a	n/a	0	0	0
2690.2216796875	n/a	WORD	5509574	wordpools/wasnorm_wordpool_576.txt	LTP334	ltpFR2	10	13	SHERIFF	1284	n/a	n/a	0	0	0
2692.8203125	n/a	WORD	5514896	wordpools/wasnorm_wordpool_576.txt	LTP334	ltpFR2	10	13	POCKET	1093	n/a	n/a	0	0	0
2695.26953125	n/a	WORD	5519912	wordpools/wasnorm_wordpool_576.txt	LTP334	ltpFR2	10	13	KNIFE	785	n/a	n/a	0	0	0
2697.701171875	n/a	WORD	5524892	wordpools/wasnorm_wordpool_576.txt	LTP334	ltpFR2	10	13	HANDBAG	684	n/a	n/a	0	0	0
2700.1494140625	n/a	WORD	5529906	wordpools/wasnorm_wordpool_576.txt	LTP334	ltpFR2	10	13	DOLPHIN	483	n/a	n/a	0	0	0
2702.93212890625	n/a	WORD	5535605	wordpools/wasnorm_wordpool_576.txt	LTP334	ltpFR2	10	13	DIVER	476	n/a	n/a	0	0	0
2705.38134765625	n/a	WORD	5540621	wordpools/wasnorm_wordpool_576.txt	LTP334	ltpFR2	10	13	BADGE	68	n/a	n/a	0	0	0
2708.1298828125	n/a	WORD	5546250	wordpools/wasnorm_wordpool_576.txt	LTP334	ltpFR2	10	13	BREAST	171	n/a	n/a	0	0	0
2710.72900390625	n/a	WORD	5551573	wordpools/wasnorm_wordpool_576.txt	LTP334	ltpFR2	10	13	SKIRT	1319	n/a	n/a	0	0	0
2713.34375	n/a	WORD	5556928	wordpools/wasnorm_wordpool_576.txt	LTP334	ltpFR2	10	13	TURTLE	1522	n/a	n/a	0	0	0
2715.94287109375	n/a	WORD	5562251	wordpools/wasnorm_wordpool_576.txt	LTP334	ltpFR2	10	13	LION	827	n/a	n/a	0	0	0
2717.55859375	n/a	START	5565560	n/a	LTP334	ltpFR2	10	n/a	n/a	n/a	19	n/a	n/a	n/a	n/a
2718.70556640625	n/a	DISTRACTOR	5567909	n/a	LTP334	ltpFR2	10	13	n/a	n/a	n/a	n/a	0	0	0
2718.7080078125	n/a	PROB	5567914	n/a	LTP334	ltpFR2	10	n/a	n/a	n/a	19	16	6	9	1
2720.29052734375	n/a	PROB	5571155	n/a	LTP334	ltpFR2	10	n/a	n/a	n/a	19	13	2	6	5
2722.0068359375	n/a	PROB	5574670	n/a	LTP334	ltpFR2	10	n/a	n/a	n/a	19	19	7	5	7
2723.505859375	n/a	PROB	5577740	n/a	LTP334	ltpFR2	10	n/a	n/a	n/a	19	11	9	1	1
2724.8388671875	n/a	PROB	5580470	n/a	LTP334	ltpFR2	10	n/a	n/a	n/a	19	8	2	4	2
2729.25341796875	n/a	PROB	5589511	n/a	LTP334	ltpFR2	10	n/a	n/a	n/a	19	19	1	9	9
2730.66943359375	n/a	PROB	5592411	n/a	LTP334	ltpFR2	10	n/a	n/a	n/a	19	15	5	8	2
2732.30126953125	n/a	PROB	5595753	n/a	LTP334	ltpFR2	10	n/a	n/a	n/a	19	5	3	1	1
2733.30126953125	n/a	PROB	5597801	n/a	LTP334	ltpFR2	10	n/a	n/a	n/a	19	12	4	1	7
2734.9833984375	n/a	PROB	5601246	n/a	LTP334	ltpFR2	10	n/a	n/a	n/a	19	16	2	8	6
2736.31640625	n/a	PROB	5603976	n/a	LTP334	ltpFR2	10	n/a	n/a	n/a	19	14	4	8	2
2737.83251953125	n/a	PROB	5607081	n/a	LTP334	ltpFR2	10	n/a	n/a	n/a	19	15	3	9	3
2741.55810546875	n/a	STOP	5614711	n/a	LTP334	ltpFR2	10	n/a	n/a	n/a	19	n/a	n/a	n/a	n/a
2743.39697265625	n/a	REC_START	5618477	n/a	LTP334	ltpFR2	10	13	n/a	n/a	n/a	n/a	0	0	0
2743.93408203125	n/a	REC_WORD	5619577	wordpools/wasnorm_wordpool_576.txt	LTP334	ltpFR2	10	13	BINDER	127	n/a	n/a	0	0	0
2744.6171875	n/a	REC_WORD	5620976	wordpools/wasnorm_wordpool_576.txt	LTP334	ltpFR2	10	13	KNAPSACK	783	n/a	n/a	0	0	0
2745.740234375	n/a	REC_WORD	5623276	wordpools/wasnorm_wordpool_576.txt	LTP334	ltpFR2	10	13	POCKET	1093	n/a	n/a	0	0	0
2746.48193359375	n/a	REC_WORD	5624795	wordpools/wasnorm_wordpool_576.txt	LTP334	ltpFR2	10	13	KNIFE	785	n/a	n/a	0	0	0
2747.4541015625	n/a	REC_WORD	5626786	wordpools/wasnorm_wordpool_576.txt	LTP334	ltpFR2	10	13	COMPASS	358	n/a	n/a	0	0	0
2748.2490234375	n/a	REC_WORD	5628414	wordpools/wasnorm_wordpool_576.txt	LTP334	ltpFR2	10	13	SHERIFF	1284	n/a	n/a	0	0	0
2749.23291015625	n/a	REC_WORD	5630429	wordpools/wasnorm_wordpool_576.txt	LTP334	ltpFR2	10	13	BADGE	68	n/a	n/a	0	0	0
2750.0439453125	n/a	REC_WORD	5632090	wordpools/wasnorm_wordpool_576.txt	LTP334	ltpFR2	10	13	TRENCH	1503	n/a	n/a	0	0	0
2751.2919921875	n/a	REC_WORD	5634646	wordpools/wasnorm_wordpool_576.txt	LTP334	ltpFR2	10	13	PATIENT	1024	n/a	n/a	0	0	0
2752.2529296875	n/a	REC_WORD	5636614	wordpools/wasnorm_wordpool_576.txt	LTP334	ltpFR2	10	13	NURSE	963	n/a	n/a	0	0	0
2753.32568359375	n/a	REC_WORD	5638811	wordpools/wasnorm_wordpool_576.txt	LTP334	ltpFR2	10	13	HONEY	713	n/a	n/a	0	0	0
2753.98681640625	n/a	REC_WORD	5640165	wordpools/wasnorm_wordpool_576.txt	LTP334	ltpFR2	10	13	LAPEL	800	n/a	n/a	0	0	0
2763.65478515625	n/a	REC_WORD	5659965	wordpools/wasnorm_wordpool_576.txt	LTP334	ltpFR2	10	13	SPHINX	1349	n/a	n/a	0	0	0
2775.50732421875	n/a	REC_WORD	5684239	wordpools/wasnorm_wordpool_576.txt	LTP334	ltpFR2	10	13	HANDBAG	684	n/a	n/a	0	0	0
2784.7841796875	n/a	REC_WORD	5703238	wordpools/wasnorm_wordpool_576.txt	LTP334	ltpFR2	10	13	DOLPHIN	483	n/a	n/a	0	0	0
2785.583984375	n/a	REC_WORD	5704876	wordpools/wasnorm_wordpool_576.txt	LTP334	ltpFR2	10	13	DIVER	476	n/a	n/a	0	0	0
2786.71875	n/a	REC_WORD	5707200	wordpools/wasnorm_wordpool_576.txt	LTP334	ltpFR2	10	13	SHERIFF	1284	n/a	n/a	0	0	0
2787.4150390625	n/a	REC_WORD	5708626	wordpools/wasnorm_wordpool_576.txt	LTP334	ltpFR2	10	13	BADGE	68	n/a	n/a	0	0	0
2814.09619140625	n/a	REC_WORD	5763269	wordpools/wasnorm_wordpool_576.txt	LTP334	ltpFR2	10	13	TURTLE	1522	n/a	n/a	0	0	0
2816.662109375	n/a	REC_WORD	5768524	wordpools/wasnorm_wordpool_576.txt	LTP334	ltpFR2	10	13	LION	827	n/a	n/a	0	0	0
2833.8369140625	n/a	WORD	5803698	wordpools/wasnorm_wordpool_576.txt	LTP334	ltpFR2	10	14	ISLAND	745	n/a	n/a	0	0	0
2836.6015625	n/a	WORD	5809360	wordpools/wasnorm_wordpool_576.txt	LTP334	ltpFR2	10	14	WASHER	1592	n/a	n/a	0	0	0
2839.216796875	n/a	WORD	5814716	wordpools/wasnorm_wordpool_576.txt	LTP334	ltpFR2	10	14	MOP	916	n/a	n/a	0	0	0
2841.8486328125	n/a	WORD	5820106	wordpools/wasnorm_wordpool_576.txt	LTP334	ltpFR2	10	14	BISON	131	n/a	n/a	0	0	0
2844.5146484375	n/a	WORD	5825566	wordpools/wasnorm_wordpool_576.txt	LTP334	ltpFR2	10	14	COBRA	336	n/a	n/a	0	0	0
2847.3134765625	n/a	WORD	5831298	wordpools/wasnorm_wordpool_576.txt	LTP334	ltpFR2	10	14	CASKET	255	n/a	n/a	0	0	0
2850.0615234375	n/a	WORD	5836926	wordpools/wasnorm_wordpool_576.txt	LTP334	ltpFR2	10	14	GIRL	637	n/a	n/a	0	0	0
2852.81005859375	n/a	WORD	5842555	wordpools/wasnorm_wordpool_576.txt	LTP334	ltpFR2	10	14	BELLY	119	n/a	n/a	0	0	0
2855.4091796875	n/a	WORD	5847878	wordpools/wasnorm_wordpool_576.txt	LTP334	ltpFR2	10	14	STAMP	1370	n/a	n/a	0	0	0
2858.20703125	n/a	WORD	5853608	wordpools/wasnorm_wordpool_576.txt	LTP334	ltpFR2	10	14	HIGHWAY	707	n/a	n/a	0	0	0
2860.83984375	n/a	WORD	5859000	wordpools/wasnorm_wordpool_576.txt	LTP334	ltpFR2	10	14	DOUGHNUT	490	n/a	n/a	0	0	0
2863.47216796875	n/a	WORD	5864391	wordpools/wasnorm_wordpool_576.txt	LTP334	ltpFR2	10	14	BROOK	177	n/a	n/a	0	0	0
2866.18603515625	n/a	WORD	5869949	wordpools/wasnorm_wordpool_576.txt	LTP334	ltpFR2	10	14	ARM	38	n/a	n/a	0	0	0
2868.86962890625	n/a	WORD	5875445	wordpools/wasnorm_wordpool_576.txt	LTP334	ltpFR2	10	14	TOMBSTONE	1478	n/a	n/a	0	0	0
2871.41796875	n/a	WORD	5880664	wordpools/wasnorm_wordpool_576.txt	LTP334	ltpFR2	10	14	WIDOW	1608	n/a	n/a	0	0	0
2873.8837890625	n/a	WORD	5885714	wordpools/wasnorm_wordpool_576.txt	LTP334	ltpFR2	10	14	DONKEY	484	n/a	n/a	0	0	0
2876.515625	n/a	WORD	5891104	wordpools/wasnorm_wordpool_576.txt	LTP334	ltpFR2	10	14	MAMMAL	861	n/a	n/a	0	0	0
2879.146484375	n/a	WORD	5896492	wordpools/wasnorm_wordpool_576.txt	LTP334	ltpFR2	10	14	GAVEL	627	n/a	n/a	0	0	0
2881.79638671875	n/a	WORD	5901919	wordpools/wasnorm_wordpool_576.txt	LTP334	ltpFR2	10	14	PERCH	1048	n/a	n/a	0	0	0
2884.49560546875	n/a	WORD	5907447	wordpools/wasnorm_wordpool_576.txt	LTP334	ltpFR2	10	14	QUAIL	1147	n/a	n/a	0	0	0
2887.09423828125	n/a	WORD	5912769	wordpools/wasnorm_wordpool_576.txt	LTP334	ltpFR2	10	14	BUCKET	184	n/a	n/a	0	0	0
2889.72607421875	n/a	WORD	5918159	wordpools/wasnorm_wordpool_576.txt	LTP334	ltpFR2	10	14	GRAVEL	659	n/a	n/a	0	0	0
2892.1904296875	n/a	WORD	5923206	wordpools/wasnorm_wordpool_576.txt	LTP334	ltpFR2	10	14	HARP	689	n/a	n/a	0	0	0
2894.84033203125	n/a	WORD	5928633	wordpools/wasnorm_wordpool_576.txt	LTP334	ltpFR2	10	14	CRICKET	408	n/a	n/a	0	0	0
2896.4560546875	n/a	START	5931942	n/a	LTP334	ltpFR2	10	n/a	n/a	n/a	20	n/a	n/a	n/a	n/a
2897.48583984375	n/a	DISTRACTOR	5934051	n/a	LTP334	ltpFR2	10	14	n/a	n/a	n/a	n/a	0	0	0
2897.4892578125	n/a	PROB	5934058	n/a	LTP334	ltpFR2	10	n/a	n/a	n/a	20	16	1	6	9
2899.62109375	n/a	PROB	5938424	n/a	LTP334	ltpFR2	10	n/a	n/a	n/a	20	9	2	3	4
2901.419921875	n/a	PROB	5942108	n/a	LTP334	ltpFR2	10	n/a	n/a	n/a	20	7	1	5	1
2902.60302734375	n/a	PROB	5944531	n/a	LTP334	ltpFR2	10	n/a	n/a	n/a	20	13	8	3	3
2903.85302734375	n/a	PROB	5947091	n/a	LTP334	ltpFR2	10	n/a	n/a	n/a	20	20	5	9	6
2905.8349609375	n/a	PROB	5951150	n/a	LTP334	ltpFR2	10	n/a	n/a	n/a	20	18	8	7	3
2907.30078125	n/a	PROB	5954152	n/a	LTP334	ltpFR2	10	n/a	n/a	n/a	20	22	7	7	8
2908.833984375	n/a	PROB	5957292	n/a	LTP334	ltpFR2	10	n/a	n/a	n/a	20	8	2	4	2
2910.0166015625	n/a	PROB	5959714	n/a	LTP334	ltpFR2	10	n/a	n/a	n/a	20	11	1	8	2
2911.4326171875	n/a	PROB	5962614	n/a	LTP334	ltpFR2	10	n/a	n/a	n/a	20	16	9	3	4
2913.24755859375	n/a	PROB	5966331	n/a	LTP334	ltpFR2	10	n/a	n/a	n/a	20	20	8	5	7
2914.94775390625	n/a	PROB	5969813	n/a	LTP334	ltpFR2	10	n/a	n/a	n/a	20	20	9	3	8
2916.79638671875	n/a	PROB	5973599	n/a	LTP334	ltpFR2	10	n/a	n/a	n/a	20	16	3	9	4
2919.03564453125	n/a	STOP	5978185	n/a	LTP334	ltpFR2	10	n/a	n/a	n/a	20	n/a	n/a	n/a	n/a
2922.310546875	n/a	REC_START	5984892	n/a	LTP334	ltpFR2	10	14	n/a	n/a	n/a	n/a	0	0	0
2927.3173828125	n/a	REC_WORD	5995146	wordpools/wasnorm_wordpool_576.txt	LTP334	ltpFR2	10	14	GAVEL	627	n/a	n/a	0	0	0
2927.9912109375	n/a	REC_WORD	5996526	wordpools/wasnorm_wordpool_576.txt	LTP334	ltpFR2	10	14	GRAVEL	659	n/a	n/a	0	0	0
2931.84326171875	n/a	REC_WORD	6004415	wordpools/wasnorm_wordpool_576.txt	LTP334	ltpFR2	10	14	ISLAND	745	n/a	n/a	0	0	0
2932.583984375	n/a	REC_WORD	6005932	wordpools/wasnorm_wordpool_576.txt	LTP334	ltpFR2	10	14	BISON	131	n/a	n/a	0	0	0
2933.43505859375	n/a	REC_WORD	6007675	wordpools/wasnorm_wordpool_576.txt	LTP334	ltpFR2	10	14	BROOK	177	n/a	n/a	0	0	0
2934.12109375	n/a	REC_WORD	6009080	wordpools/wasnorm_wordpool_576.txt	LTP334	ltpFR2	10	14	STAMP	1370	n/a	n/a	0	0	0
2938.07421875	n/a	REC_WORD	6017176	wordpools/wasnorm_wordpool_576.txt	LTP334	ltpFR2	10	14	DONKEY	484	n/a	n/a	0	0	0
2938.6279296875	n/a	REC_WORD	6018310	wordpools/wasnorm_wordpool_576.txt	LTP334	ltpFR2	10	14	MAMMAL	861	n/a	n/a	0	0	0
2940.14306640625	n/a	REC_WORD	6021413	wordpools/wasnorm_wordpool_576.txt	LTP334	ltpFR2	10	14	WIDOW	1608	n/a	n/a	0	0	0
2940.82470703125	n/a	REC_WORD	6022809	wordpools/wasnorm_wordpool_576.txt	LTP334	ltpFR2	10	14	TOMBSTONE	1478	n/a	n/a	0	0	0
2941.82568359375	n/a	REC_WORD	6024859	wordpools/wasnorm_wordpool_576.txt	LTP334	ltpFR2	10	14	GIRL	637	n/a	n/a	0	0	0
2942.48486328125	n/a	REC_WORD	6026209	wordpools/wasnorm_wordpool_576.txt	LTP334	ltpFR2	10	14	BELLY	119	n/a	n/a	0	0	0
3012.76708984375	n/a	WORD	6170147	wordpools/wasnorm_wordpool_576.txt	LTP334	ltpFR2	10	15	AGENT	10	n/a	n/a	0	0	0
3015.39892578125	n/a	WORD	6175537	wordpools/wasnorm_wordpool_576.txt	LTP334	ltpFR2	10	15	TUTU	1524	n/a	n/a	0	0	0
3018.0478515625	n/a	WORD	6180962	wordpools/wasnorm_wordpool_576.txt	LTP334	ltpFR2	10	15	RUST	1219	n/a	n/a	0	0	0
3020.47998046875	n/a	WORD	6185943	wordpools/wasnorm_wordpool_576.txt	LTP334	ltpFR2	10	15	FRUIT	610	n/a	n/a	0	0	0
3023.2119140625	n/a	WORD	6191538	wordpools/wasnorm_wordpool_576.txt	LTP334	ltpFR2	10	15	LUNCH	849	n/a	n/a	0	0	0
3025.84375	n/a	WORD	6196928	wordpools/wasnorm_wordpool_576.txt	LTP334	ltpFR2	10	15	MUSTARD	935	n/a	n/a	0	0	0
3028.642578125	n/a	WORD	6202660	wordpools/wasnorm_wordpool_576.txt	LTP334	ltpFR2	10	15	FLASHLIGHT	575	n/a	n/a	0	0	0
3031.24169921875	n/a	WORD	6207983	wordpools/wasnorm_wordpool_576.txt	LTP334	ltpFR2	10	15	CLOTHES	327	n/a	n/a	0	0	0
3033.90625	n/a	WORD	6213440	wordpools/wasnorm_wordpool_576.txt	LTP334	ltpFR2	10	15	HAMPER	682	n/a	n/a	0	0	0
3036.6884765625	n/a	WORD	6219138	wordpools/wasnorm_wordpool_576.txt	LTP334	ltpFR2	10	15	EXPERT	543	n/a	n/a	0	0	0
3039.13623046875	n/a	WORD	6224151	wordpools/wasnorm_wordpool_576.txt	LTP334	ltpFR2	10	15	PEACH	1031	n/a	n/a	0	0	0
3041.63623046875	n/a	WORD	6229271	wordpools/wasnorm_wordpool_576.txt	LTP334	ltpFR2	10	15	STUDENT	1395	n/a	n/a	0	0	0
3044.451171875	n/a	WORD	6235036	wordpools/wasnorm_wordpool_576.txt	LTP334	ltpFR2	10	15	TOURIST	1488	n/a	n/a	0	0	0
3047.21728515625	n/a	WORD	6240701	wordpools/wasnorm_wordpool_576.txt	LTP334	ltpFR2	10	15	PLAZA	1088	n/a	n/a	0	0	0
3049.73193359375	n/a	WORD	6245851	wordpools/wasnorm_wordpool_576.txt	LTP334	ltpFR2	10	15	PARENT	1013	n/a	n/a	0	0	0
3052.18017578125	n/a	WORD	6250865	wordpools/wasnorm_wordpool_576.txt	LTP334	ltpFR2	10	15	MASK	876	n/a	n/a	0	0	0
3054.9130859375	n/a	WORD	6256462	wordpools/wasnorm_wordpool_576.txt	LTP334	ltpFR2	10	15	SUITCASE	1403	n/a	n/a	0	0	0
3057.62890625	n/a	WORD	6262024	wordpools/wasnorm_wordpool_576.txt	LTP334	ltpFR2	10	15	DAISY	435	n/a	n/a	0	0	0
3060.142578125	n/a	WORD	6267172	wordpools/wasnorm_wordpool_576.txt	LTP334	ltpFR2	10	15	DRAGON	492	n/a	n/a	0	0	0
3062.87548828125	n/a	WORD	6272769	wordpools/wasnorm_wordpool_576.txt	LTP334	ltpFR2	10	15	MATCH	878	n/a	n/a	0	0	0
3065.5576171875	n/a	WORD	6278262	wordpools/wasnorm_wordpool_576.txt	LTP334	ltpFR2	10	15	MEAT	883	n/a	n/a	0	0	0
3068.0234375	n/a	WORD	6283312	wordpools/wasnorm_wordpool_576.txt	LTP334	ltpFR2	10	15	SCALLOP	1242	n/a	n/a	0	0	0
3070.6396484375	n/a	WORD	6288670	wordpools/wasnorm_wordpool_576.txt	LTP334	ltpFR2	10	15	ROD	1203	n/a	n/a	0	0	0
3073.404296875	n/a	WORD	6294332	wordpools/wasnorm_wordpool_576.txt	LTP334	ltpFR2	10	15	TEACHER	1440	n/a	n/a	0	0	0
3075.0205078125	n/a	START	6297642	n/a	LTP334	ltpFR2	10	n/a	n/a	n/a	21	n/a	n/a	n/a	n/a
3075.87646484375	n/a	DISTRACTOR	6299395	n/a	LTP334	ltpFR2	10	15	n/a	n/a	n/a	n/a	0	0	0
3075.88623046875	n/a	PROB	6299415	n/a	LTP334	ltpFR2	10	n/a	n/a	n/a	21	88	5	1	2
3077.869140625	n/a	PROB	6303476	n/a	LTP334	ltpFR2	10	n/a	n/a	n/a	21	9	1	2	6
3079.58544921875	n/a	PROB	6306991	n/a	LTP334	ltpFR2	10	n/a	n/a	n/a	21	15	6	2	7
3081.484375	n/a	PROB	6310880	n/a	LTP334	ltpFR2	10	n/a	n/a	n/a	21	16	8	6	2
3083.533203125	n/a	PROB	6315076	n/a	LTP334	ltpFR2	10	n/a	n/a	n/a	21	21	4	9	8
3085.46484375	n/a	PROB	6319032	n/a	LTP334	ltpFR2	10	n/a	n/a	n/a	21	15	4	5	6
3087.0810546875	n/a	PROB	6322342	n/a	LTP334	ltpFR2	10	n/a	n/a	n/a	21	7	1	3	3
3088.39697265625	n/a	PROB	6325037	n/a	LTP334	ltpFR2	10	n/a	n/a	n/a	21	19	7	4	8
3090.01318359375	n/a	PROB	6328347	n/a	LTP334	ltpFR2	10	n/a	n/a	n/a	21	21	6	9	6
3092.11181640625	n/a	PROB	6332645	n/a	LTP334	ltpFR2	10	n/a	n/a	n/a	21	11	8	1	2
3093.86083984375	n/a	PROB	6336227	n/a	LTP334	ltpFR2	10	n/a	n/a	n/a	21	11	1	9	1
3095.17578125	n/a	PROB	6338920	n/a	LTP334	ltpFR2	10	n/a	n/a	n/a	21	20	9	6	5
3097.009765625	n/a	PROB	6342676	n/a	LTP334	ltpFR2	10	n/a	n/a	n/a	21	20	4	9	7
3098.892578125	n/a	STOP	6346532	n/a	LTP334	ltpFR2	10	n/a	n/a	n/a	21	n/a	n/a	n/a	n/a
3100.87451171875	n/a	REC_START	6350591	n/a	LTP334	ltpFR2	10	15	n/a	n/a	n/a	n/a	0	0	0
3101.53271484375	n/a	REC_WORD	6351939	wordpools/wasnorm_wordpool_576.txt	LTP334	ltpFR2	10	15	SCALLOP	1242	n/a	n/a	0	0	0
3102.517578125	n/a	REC_WORD	6353956	wordpools/wasnorm_wordpool_576.txt	LTP334	ltpFR2	10	15	TEACHER	1440	n/a	n/a	0	0	0
3103.37158203125	n/a	REC_WORD	6355705	wordpools/wasnorm_wordpool_576.txt	LTP334	ltpFR2	10	15	MEAT	883	n/a	n/a	0	0	0
3105.27978515625	n/a	REC_WORD	6359613	wordpools/wasnorm_wordpool_576.txt	LTP334	ltpFR2	10	15	DAISY	435	n/a	n/a	0	0	0
3191.314453125	n/a	DISTRACTOR	6535812	n/a	LTP334	ltpFR2	10	16	n/a	n/a	n/a	n/a	0	0	0
3191.314453125	n/a	START	6535812	n/a	LTP334	ltpFR2	10	n/a	n/a	n/a	22	n/a	n/a	n/a	n/a
3191.3310546875	n/a	PROB	6535846	n/a	LTP334	ltpFR2	10	n/a	n/a	n/a	22	14	9	1	4
3193.04736328125	n/a	PROB	6539361	n/a	LTP334	ltpFR2	10	n/a	n/a	n/a	22	9	5	1	3
3194.6630859375	n/a	PROB	6542670	n/a	LTP334	ltpFR2	10	n/a	n/a	n/a	22	15	6	4	5
3195.8291015625	n/a	PROB	6545058	n/a	LTP334	ltpFR2	10	n/a	n/a	n/a	22	16	8	4	4
3197.6953125	n/a	PROB	6548880	n/a	LTP334	ltpFR2	10	n/a	n/a	n/a	22	10	1	4	5
3199.17626953125	n/a	PROB	6551913	n/a	LTP334	ltpFR2	10	n/a	n/a	n/a	22	15	7	6	2
3200.72607421875	n/a	PROB	6555087	n/a	LTP334	ltpFR2	10	n/a	n/a	n/a	22	10	2	2	6
3201.9091796875	n/a	PROB	6557510	n/a	LTP334	ltpFR2	10	n/a	n/a	n/a	22	16	6	5	5
3203.2587890625	n/a	PROB	6560274	n/a	LTP334	ltpFR2	10	n/a	n/a	n/a	22	18	4	6	8
3205.39111328125	n/a	PROB	6564641	n/a	LTP334	ltpFR2	10	n/a	n/a	n/a	22	13	5	6	2
3206.90673828125	n/a	PROB	6567745	n/a	LTP334	ltpFR2	10	n/a	n/a	n/a	22	10	2	3	5
3208.5400390625	n/a	PROB	6571090	n/a	LTP334	ltpFR2	10	n/a	n/a	n/a	22	14	4	5	5
3209.9716796875	n/a	PROB	6574022	n/a	LTP334	ltpFR2	10	n/a	n/a	n/a	22	19	9	5	5
3211.28759765625	n/a	PROB	6576717	n/a	LTP334	ltpFR2	10	n/a	n/a	n/a	22	17	5	8	4
3215.3134765625	n/a	STOP	6584962	n/a	LTP334	ltpFR2	10	n/a	n/a	n/a	22	n/a	n/a	n/a	n/a
3216.25244140625	n/a	WORD	6586885	wordpools/wasnorm_wordpool_576.txt	LTP334	ltpFR2	10	16	SALMON	1227	n/a	n/a	0	0	0
3218.884765625	n/a	WORD	6592276	wordpools/wasnorm_wordpool_576.txt	LTP334	ltpFR2	10	16	DIME	466	n/a	n/a	0	0	0
3221.56640625	n/a	WORD	6597768	wordpools/wasnorm_wordpool_576.txt	LTP334	ltpFR2	10	16	UMPIRE	1535	n/a	n/a	0	0	0
3224.365234375	n/a	WORD	6603500	wordpools/wasnorm_wordpool_576.txt	LTP334	ltpFR2	10	16	BOUQUET	157	n/a	n/a	0	0	0
3227.162109375	n/a	WORD	6609228	wordpools/wasnorm_wordpool_576.txt	LTP334	ltpFR2	10	16	RATTLE	1170	n/a	n/a	0	0	0
3229.646484375	n/a	WORD	6614316	wordpools/wasnorm_wordpool_576.txt	LTP334	ltpFR2	10	16	CHEMIST	292	n/a	n/a	0	0	0
3232.193359375	n/a	WORD	6619532	wordpools/wasnorm_wordpool_576.txt	LTP334	ltpFR2	10	16	NAPKIN	937	n/a	n/a	0	0	0
3234.693359375	n/a	WORD	6624652	wordpools/wasnorm_wordpool_576.txt	LTP334	ltpFR2	10	16	TABLET	1427	n/a	n/a	0	0	0
3237.50927734375	n/a	WORD	6630419	wordpools/wasnorm_wordpool_576.txt	LTP334	ltpFR2	10	16	FREEZER	604	n/a	n/a	0	0	0
3239.94091796875	n/a	WORD	6635399	wordpools/wasnorm_wordpool_576.txt	LTP334	ltpFR2	10	16	GLOVE	642	n/a	n/a	0	0	0
3242.373046875	n/a	WORD	6640380	wordpools/wasnorm_wordpool_576.txt	LTP334	ltpFR2	10	16	HOOD	714	n/a	n/a	0	0	0
3245.02197265625	n/a	WORD	6645805	wordpools/wasnorm_wordpool_576.txt	LTP334	ltpFR2	10	16	SUPPER	1411	n/a	n/a	0	0	0
3247.470703125	n/a	WORD	6650820	wordpools/wasnorm_wordpool_576.txt	LTP334	ltpFR2	10	16	WAITER	1580	n/a	n/a	0	0	0
3250.15185546875	n/a	WORD	6656311	wordpools/wasnorm_wordpool_576.txt	LTP334	ltpFR2	10	16	PROTON	1132	n/a	n/a	0	0	0
3252.61767578125	n/a	WORD	6661361	wordpools/wasnorm_wordpool_576.txt	LTP334	ltpFR2	10	16	PLAID	1080	n/a	n/a	0	0	0
3255.11669921875	n/a	WORD	6666479	wordpools/wasnorm_wordpool_576.txt	LTP334	ltpFR2	10	16	PIGEON	1065	n/a	n/a	0	0	0
3257.61572265625	n/a	WORD	6671597	wordpools/wasnorm_wordpool_576.txt	LTP334	ltpFR2	10	16	DRIVER	499	n/a	n/a	0	0	0
3260.146484375	n/a	WORD	6676780	wordpools/wasnorm_wordpool_576.txt	LTP334	ltpFR2	10	16	TROUT	1511	n/a	n/a	0	0	0
