mstime	trial_type	stim_file	subject	experiment	session	trial	task	item_name	item_num	recog_conf	resp	answer	test_x	test_y	test_z	color_b	color_g	color_r	case	font
0	SESS_START	n/a	LTP285	ltpFR	11	n/a	n/a	n/a	n/a	n/a	n/a	n/a	0	0	0	n/a	n/a	n/a	n/a	n/a
46091	START	n/a	LTP285	ltpFR	11	n/a	n/a	n/a	n/a	n/a	n/a	n/a	n/a	n/a	n/a	n/a	n/a	n/a	n/a	n/a
46140	PROB	n/a	LTP285	ltpFR	11	n/a	n/a	n/a	n/a	n/a	n/a	24	8	9	9	n/a	n/a	n/a	n/a	n/a
48633	PROB	n/a	LTP285	ltpFR	11	n/a	n/a	n/a	n/a	n/a	n/a	14	1	9	4	n/a	n/a	n/a	n/a	n/a
49755	PROB	n/a	LTP285	ltpFR	11	n/a	n/a	n/a	n/a	n/a	n/a	8	1	2	5	n/a	n/a	n/a	n/a	n/a
51243	PROB	n/a	LTP285	ltpFR	11	n/a	n/a	n/a	n/a	n/a	n/a	18	6	8	3	n/a	n/a	n/a	n/a	n/a
53317	PROB	n/a	LTP285	ltpFR	11	n/a	n/a	n/a	n/a	n/a	n/a	21	7	8	5	n/a	n/a	n/a	n/a	n/a
55693	PROB	n/a	LTP285	ltpFR	11	n/a	n/a	n/a	n/a	n/a	n/a	11	8	1	2	n/a	n/a	n/a	n/a	n/a
56982	PROB	n/a	LTP285	ltpFR	11	n/a	n/a	n/a	n/a	n/a	n/a	18	7	6	5	n/a	n/a	n/a	n/a	n/a
59691	PROB	n/a	LTP285	ltpFR	11	n/a	n/a	n/a	n/a	n/a	n/a	16	5	2	9	n/a	n/a	n/a	n/a	n/a
62100	PROB	n/a	LTP285	ltpFR	11	n/a	n/a	n/a	n/a	n/a	n/a	18	7	5	6	n/a	n/a	n/a	n/a	n/a
65469	STOP	n/a	LTP285	ltpFR	11	n/a	n/a	n/a	n/a	n/a	n/a	n/a	n/a	n/a	n/a	n/a	n/a	n/a	n/a	n/a
127230	START	n/a	LTP285	ltpFR	11	n/a	n/a	n/a	n/a	n/a	n/a	n/a	n/a	n/a	n/a	n/a	n/a	n/a	n/a	n/a
128736	PROB	n/a	LTP285	ltpFR	11	n/a	n/a	n/a	n/a	n/a	n/a	14	1	9	4	n/a	n/a	n/a	n/a	n/a
129890	PROB	n/a	LTP285	ltpFR	11	n/a	n/a	n/a	n/a	n/a	n/a	11	1	4	6	n/a	n/a	n/a	n/a	n/a
130994	PROB	n/a	LTP285	ltpFR	11	n/a	n/a	n/a	n/a	n/a	n/a	19	8	3	7	n/a	n/a	n/a	n/a	n/a
132852	PROB	n/a	LTP285	ltpFR	11	n/a	n/a	n/a	n/a	n/a	n/a	7	4	2	1	n/a	n/a	n/a	n/a	n/a
134093	STOP	n/a	LTP285	ltpFR	11	n/a	n/a	n/a	n/a	n/a	n/a	n/a	n/a	n/a	n/a	n/a	n/a	n/a	n/a	n/a
136261	WORD	wordpools/wasnorm_wordpool_less_exclusions.txt	LTP285	ltpFR	11	1	0	VINE	1568	n/a	0	n/a	0	0	0	1	0.412841796875	0.57763671875	upper	../fonts/zerothre.ttf
139275	START	n/a	LTP285	ltpFR	11	n/a	n/a	n/a	n/a	n/a	n/a	n/a	n/a	n/a	n/a	n/a	n/a	n/a	n/a	n/a
140228	PROB	n/a	LTP285	ltpFR	11	n/a	n/a	n/a	n/a	n/a	n/a	11	1	9	1	n/a	n/a	n/a	n/a	n/a
141733	PROB	n/a	LTP285	ltpFR	11	n/a	n/a	n/a	n/a	n/a	n/a	19	7	7	5	n/a	n/a	n/a	n/a	n/a
143390	PROB	n/a	LTP285	ltpFR	11	n/a	n/a	n/a	n/a	n/a	n/a	7	2	3	2	n/a	n/a	n/a	n/a	n/a
144561	PROB	n/a	LTP285	ltpFR	11	n/a	n/a	n/a	n/a	n/a	n/a	17	5	5	7	n/a	n/a	n/a	n/a	n/a
145665	PROB	n/a	LTP285	ltpFR	11	n/a	n/a	n/a	n/a	n/a	n/a	14	9	4	1	n/a	n/a	n/a	n/a	n/a
146806	STOP	n/a	LTP285	ltpFR	11	n/a	n/a	n/a	n/a	n/a	n/a	n/a	n/a	n/a	n/a	n/a	n/a	n/a	n/a	n/a
148275	WORD	wordpools/wasnorm_wordpool_less_exclusions.txt	LTP285	ltpFR	11	1	0	PEARL	1034	n/a	0	n/a	0	0	0	1	0.412841796875	0.57763671875	upper	../fonts/zerothre.ttf
151287	START	n/a	LTP285	ltpFR	11	n/a	n/a	n/a	n/a	n/a	n/a	n/a	n/a	n/a	n/a	n/a	n/a	n/a	n/a	n/a
152272	PROB	n/a	LTP285	ltpFR	11	n/a	n/a	n/a	n/a	n/a	n/a	14	5	5	4	n/a	n/a	n/a	n/a	n/a
153328	PROB	n/a	LTP285	ltpFR	11	n/a	n/a	n/a	n/a	n/a	n/a	13	3	8	2	n/a	n/a	n/a	n/a	n/a
154698	PROB	n/a	LTP285	ltpFR	11	n/a	n/a	n/a	n/a	n/a	n/a	11	1	1	9	n/a	n/a	n/a	n/a	n/a
155703	PROB	n/a	LTP285	ltpFR	11	n/a	n/a	n/a	n/a	n/a	n/a	8	2	4	2	n/a	n/a	n/a	n/a	n/a
157157	PROB	n/a	LTP285	ltpFR	11	n/a	n/a	n/a	n/a	n/a	n/a	1	1	4	6	n/a	n/a	n/a	n/a	n/a
158341	STOP	n/a	LTP285	ltpFR	11	n/a	n/a	n/a	n/a	n/a	n/a	n/a	n/a	n/a	n/a	n/a	n/a	n/a	n/a	n/a
160254	WORD	wordpools/wasnorm_wordpool_less_exclusions.txt	LTP285	ltpFR	11	1	0	CLOUD	328	n/a	1	n/a	0	0	0	1	0.412841796875	0.57763671875	upper	../fonts/zerothre.ttf
163266	START	n/a	LTP285	ltpFR	11	n/a	n/a	n/a	n/a	n/a	n/a	n/a	n/a	n/a	n/a	n/a	n/a	n/a	n/a	n/a
164202	PROB	n/a	LTP285	ltpFR	11	n/a	n/a	n/a	n/a	n/a	n/a	20	6	6	8	n/a	n/a	n/a	n/a	n/a
166710	PROB	n/a	LTP285	ltpFR	11	n/a	n/a	n/a	n/a	n/a	n/a	9	1	6	3	n/a	n/a	n/a	n/a	n/a
168182	PROB	n/a	LTP285	ltpFR	11	n/a	n/a	n/a	n/a	n/a	n/a	12	6	5	1	n/a	n/a	n/a	n/a	n/a
169886	STOP	n/a	LTP285	ltpFR	11	n/a	n/a	n/a	n/a	n/a	n/a	n/a	n/a	n/a	n/a	n/a	n/a	n/a	n/a	n/a
172232	WORD	wordpools/wasnorm_wordpool_less_exclusions.txt	LTP285	ltpFR	11	1	0	HAIL	676	n/a	0	n/a	0	0	0	1	0.412841796875	0.57763671875	upper	../fonts/zerothre.ttf
175245	START	n/a	LTP285	ltpFR	11	n/a	n/a	n/a	n/a	n/a	n/a	n/a	n/a	n/a	n/a	n/a	n/a	n/a	n/a	n/a
176398	PROB	n/a	LTP285	ltpFR	11	n/a	n/a	n/a	n/a	n/a	n/a	11	6	1	4	n/a	n/a	n/a	n/a	n/a
177634	PROB	n/a	LTP285	ltpFR	11	n/a	n/a	n/a	n/a	n/a	n/a	16	7	3	6	n/a	n/a	n/a	n/a	n/a
178791	PROB	n/a	LTP285	ltpFR	11	n/a	n/a	n/a	n/a	n/a	n/a	9	6	3	1	n/a	n/a	n/a	n/a	n/a
180127	PROB	n/a	LTP285	ltpFR	11	n/a	n/a	n/a	n/a	n/a	n/a	13	1	6	6	n/a	n/a	n/a	n/a	n/a
181467	PROB	n/a	LTP285	ltpFR	11	n/a	n/a	n/a	n/a	n/a	n/a	15	8	4	3	n/a	n/a	n/a	n/a	n/a
182742	STOP	n/a	LTP285	ltpFR	11	n/a	n/a	n/a	n/a	n/a	n/a	n/a	n/a	n/a	n/a	n/a	n/a	n/a	n/a	n/a
184278	WORD	wordpools/wasnorm_wordpool_less_exclusions.txt	LTP285	ltpFR	11	1	0	EMERALD	528	n/a	0	n/a	0	0	0	1	0.412841796875	0.57763671875	upper	../fonts/zerothre.ttf
187290	START	n/a	LTP285	ltpFR	11	n/a	n/a	n/a	n/a	n/a	n/a	n/a	n/a	n/a	n/a	n/a	n/a	n/a	n/a	n/a
188494	PROB	n/a	LTP285	ltpFR	11	n/a	n/a	n/a	n/a	n/a	n/a	19	6	7	6	n/a	n/a	n/a	n/a	n/a
190031	PROB	n/a	LTP285	ltpFR	11	n/a	n/a	n/a	n/a	n/a	n/a	14	6	1	7	n/a	n/a	n/a	n/a	n/a
191874	PROB	n/a	LTP285	ltpFR	11	n/a	n/a	n/a	n/a	n/a	n/a	11	7	3	1	n/a	n/a	n/a	n/a	n/a
193026	PROB	n/a	LTP285	ltpFR	11	n/a	n/a	n/a	n/a	n/a	n/a	15	1	5	9	n/a	n/a	n/a	n/a	n/a
194485	STOP	n/a	LTP285	ltpFR	11	n/a	n/a	n/a	n/a	n/a	n/a	n/a	n/a	n/a	n/a	n/a	n/a	n/a	n/a	n/a
196373	WORD	wordpools/wasnorm_wordpool_less_exclusions.txt	LTP285	ltpFR	11	1	0	PICKLE	1059	n/a	0	n/a	0	0	0	1	0.412841796875	0.57763671875	upper	../fonts/zerothre.ttf
199385	START	n/a	LTP285	ltpFR	11	n/a	n/a	n/a	n/a	n/a	n/a	n/a	n/a	n/a	n/a	n/a	n/a	n/a	n/a	n/a
200505	PROB	n/a	LTP285	ltpFR	11	n/a	n/a	n/a	n/a	n/a	n/a	19	8	6	7	n/a	n/a	n/a	n/a	n/a
202045	PROB	n/a	LTP285	ltpFR	11	n/a	n/a	n/a	n/a	n/a	n/a	16	8	7	1	n/a	n/a	n/a	n/a	n/a
203667	PROB	n/a	LTP285	ltpFR	11	n/a	n/a	n/a	n/a	n/a	n/a	14	2	9	5	n/a	n/a	n/a	n/a	n/a
205656	PROB	n/a	LTP285	ltpFR	11	n/a	n/a	n/a	n/a	n/a	n/a	10	1	7	2	n/a	n/a	n/a	n/a	n/a
206918	STOP	n/a	LTP285	ltpFR	11	n/a	n/a	n/a	n/a	n/a	n/a	n/a	n/a	n/a	n/a	n/a	n/a	n/a	n/a	n/a
208302	WORD	wordpools/wasnorm_wordpool_less_exclusions.txt	LTP285	ltpFR	11	1	0	ATTIRE	57	n/a	1	n/a	0	0	0	1	0.412841796875	0.57763671875	upper	../fonts/zerothre.ttf
211314	START	n/a	LTP285	ltpFR	11	n/a	n/a	n/a	n/a	n/a	n/a	n/a	n/a	n/a	n/a	n/a	n/a	n/a	n/a	n/a
212149	PROB	n/a	LTP285	ltpFR	11	n/a	n/a	n/a	n/a	n/a	n/a	12	8	2	2	n/a	n/a	n/a	n/a	n/a
213151	PROB	n/a	LTP285	ltpFR	11	n/a	n/a	n/a	n/a	n/a	n/a	15	7	2	6	n/a	n/a	n/a	n/a	n/a
215027	PROB	n/a	LTP285	ltpFR	11	n/a	n/a	n/a	n/a	n/a	n/a	21	9	9	3	n/a	n/a	n/a	n/a	n/a
216566	PROB	n/a	LTP285	ltpFR	11	n/a	n/a	n/a	n/a	n/a	n/a	12	1	7	4	n/a	n/a	n/a	n/a	n/a
217870	STOP	n/a	LTP285	ltpFR	11	n/a	n/a	n/a	n/a	n/a	n/a	n/a	n/a	n/a	n/a	n/a	n/a	n/a	n/a	n/a
220447	WORD	wordpools/wasnorm_wordpool_less_exclusions.txt	LTP285	ltpFR	11	1	0	SUIT	1402	n/a	1	n/a	0	0	0	1	0.412841796875	0.57763671875	upper	../fonts/zerothre.ttf
223459	START	n/a	LTP285	ltpFR	11	n/a	n/a	n/a	n/a	n/a	n/a	n/a	n/a	n/a	n/a	n/a	n/a	n/a	n/a	n/a
224446	PROB	n/a	LTP285	ltpFR	11	n/a	n/a	n/a	n/a	n/a	n/a	17	3	8	6	n/a	n/a	n/a	n/a	n/a
226085	PROB	n/a	LTP285	ltpFR	11	n/a	n/a	n/a	n/a	n/a	n/a	11	3	7	1	n/a	n/a	n/a	n/a	n/a
227273	PROB	n/a	LTP285	ltpFR	11	n/a	n/a	n/a	n/a	n/a	n/a	9	6	1	2	n/a	n/a	n/a	n/a	n/a
229111	PROB	n/a	LTP285	ltpFR	11	n/a	n/a	n/a	n/a	n/a	n/a	15	6	8	1	n/a	n/a	n/a	n/a	n/a
231197	STOP	n/a	LTP285	ltpFR	11	n/a	n/a	n/a	n/a	n/a	n/a	n/a	n/a	n/a	n/a	n/a	n/a	n/a	n/a	n/a
232576	WORD	wordpools/wasnorm_wordpool_less_exclusions.txt	LTP285	ltpFR	11	1	0	ICEBERG	731	n/a	1	n/a	0	0	0	1	0.412841796875	0.57763671875	upper	../fonts/zerothre.ttf
235589	START	n/a	LTP285	ltpFR	11	n/a	n/a	n/a	n/a	n/a	n/a	n/a	n/a	n/a	n/a	n/a	n/a	n/a	n/a	n/a
236424	PROB	n/a	LTP285	ltpFR	11	n/a	n/a	n/a	n/a	n/a	n/a	11	1	3	7	n/a	n/a	n/a	n/a	n/a
237679	PROB	n/a	LTP285	ltpFR	11	n/a	n/a	n/a	n/a	n/a	n/a	24	8	8	7	n/a	n/a	n/a	n/a	n/a
240421	PROB	n/a	LTP285	ltpFR	11	n/a	n/a	n/a	n/a	n/a	n/a	8	2	4	2	n/a	n/a	n/a	n/a	n/a
242133	STOP	n/a	LTP285	ltpFR	11	n/a	n/a	n/a	n/a	n/a	n/a	n/a	n/a	n/a	n/a	n/a	n/a	n/a	n/a	n/a
244773	WORD	wordpools/wasnorm_wordpool_less_exclusions.txt	LTP285	ltpFR	11	1	0	FRANCE	601	n/a	1	n/a	0	0	0	1	0.412841796875	0.57763671875	upper	../fonts/zerothre.ttf
247785	START	n/a	LTP285	ltpFR	11	n/a	n/a	n/a	n/a	n/a	n/a	n/a	n/a	n/a	n/a	n/a	n/a	n/a	n/a	n/a
248603	PROB	n/a	LTP285	ltpFR	11	n/a	n/a	n/a	n/a	n/a	n/a	16	9	4	3	n/a	n/a	n/a	n/a	n/a
250642	PROB	n/a	LTP285	ltpFR	11	n/a	n/a	n/a	n/a	n/a	n/a	8	1	4	4	n/a	n/a	n/a	n/a	n/a
251917	PROB	n/a	LTP285	ltpFR	11	n/a	n/a	n/a	n/a	n/a	n/a	23	5	7	8	n/a	n/a	n/a	n/a	n/a
254445	STOP	n/a	LTP285	ltpFR	11	n/a	n/a	n/a	n/a	n/a	n/a	n/a	n/a	n/a	n/a	n/a	n/a	n/a	n/a	n/a
256919	WORD	wordpools/wasnorm_wordpool_less_exclusions.txt	LTP285	ltpFR	11	1	0	BOYFRIEND	162	n/a	1	n/a	0	0	0	1	0.412841796875	0.57763671875	upper	../fonts/zerothre.ttf
259931	START	n/a	LTP285	ltpFR	11	n/a	n/a	n/a	n/a	n/a	n/a	n/a	n/a	n/a	n/a	n/a	n/a	n/a	n/a	n/a
260800	PROB	n/a	LTP285	ltpFR	11	n/a	n/a	n/a	n/a	n/a	n/a	17	9	2	6	n/a	n/a	n/a	n/a	n/a
262621	PROB	n/a	LTP285	ltpFR	11	n/a	n/a	n/a	n/a	n/a	n/a	13	1	6	6	n/a	n/a	n/a	n/a	n/a
263912	PROB	n/a	LTP285	ltpFR	11	n/a	n/a	n/a	n/a	n/a	n/a	21	4	9	9	n/a	n/a	n/a	n/a	n/a
266069	PROB	n/a	LTP285	ltpFR	11	n/a	n/a	n/a	n/a	n/a	n/a	18	8	8	2	n/a	n/a	n/a	n/a	n/a
267301	STOP	n/a	LTP285	ltpFR	11	n/a	n/a	n/a	n/a	n/a	n/a	n/a	n/a	n/a	n/a	n/a	n/a	n/a	n/a	n/a
268831	WORD	wordpools/wasnorm_wordpool_less_exclusions.txt	LTP285	ltpFR	11	1	0	SCENERY	1247	n/a	1	n/a	0	0	0	1	0.412841796875	0.57763671875	upper	../fonts/zerothre.ttf
271843	START	n/a	LTP285	ltpFR	11	n/a	n/a	n/a	n/a	n/a	n/a	n/a	n/a	n/a	n/a	n/a	n/a	n/a	n/a	n/a
272929	PROB	n/a	LTP285	ltpFR	11	n/a	n/a	n/a	n/a	n/a	n/a	11	8	1	2	n/a	n/a	n/a	n/a	n/a
274133	PROB	n/a	LTP285	ltpFR	11	n/a	n/a	n/a	n/a	n/a	n/a	18	3	8	7	n/a	n/a	n/a	n/a	n/a
275536	PROB	n/a	LTP285	ltpFR	11	n/a	n/a	n/a	n/a	n/a	n/a	16	6	9	1	n/a	n/a	n/a	n/a	n/a
276744	PROB	n/a	LTP285	ltpFR	11	n/a	n/a	n/a	n/a	n/a	n/a	16	6	7	3	n/a	n/a	n/a	n/a	n/a
278048	PROB	n/a	LTP285	ltpFR	11	n/a	n/a	n/a	n/a	n/a	n/a	13	7	5	1	n/a	n/a	n/a	n/a	n/a
279525	STOP	n/a	LTP285	ltpFR	11	n/a	n/a	n/a	n/a	n/a	n/a	n/a	n/a	n/a	n/a	n/a	n/a	n/a	n/a	n/a
280859	WORD	wordpools/wasnorm_wordpool_less_exclusions.txt	LTP285	ltpFR	11	1	0	WORM	1623	n/a	0	n/a	0	0	0	1	0.412841796875	0.57763671875	upper	../fonts/zerothre.ttf
283871	START	n/a	LTP285	ltpFR	11	n/a	n/a	n/a	n/a	n/a	n/a	n/a	n/a	n/a	n/a	n/a	n/a	n/a	n/a	n/a
284706	PROB	n/a	LTP285	ltpFR	11	n/a	n/a	n/a	n/a	n/a	n/a	8	1	4	3	n/a	n/a	n/a	n/a	n/a
287132	PROB	n/a	LTP285	ltpFR	11	n/a	n/a	n/a	n/a	n/a	n/a	16	2	9	5	n/a	n/a	n/a	n/a	n/a
288821	PROB	n/a	LTP285	ltpFR	11	n/a	n/a	n/a	n/a	n/a	n/a	19	4	7	8	n/a	n/a	n/a	n/a	n/a
290397	STOP	n/a	LTP285	ltpFR	11	n/a	n/a	n/a	n/a	n/a	n/a	n/a	n/a	n/a	n/a	n/a	n/a	n/a	n/a	n/a
292754	WORD	wordpools/wasnorm_wordpool_less_exclusions.txt	LTP285	ltpFR	11	1	0	DIARY	460	n/a	0	n/a	0	0	0	1	0.412841796875	0.57763671875	upper	../fonts/zerothre.ttf
295766	START	n/a	LTP285	ltpFR	11	n/a	n/a	n/a	n/a	n/a	n/a	n/a	n/a	n/a	n/a	n/a	n/a	n/a	n/a	n/a
296668	PROB	n/a	LTP285	ltpFR	11	n/a	n/a	n/a	n/a	n/a	n/a	19	9	2	8	n/a	n/a	n/a	n/a	n/a
299192	PROB	n/a	LTP285	ltpFR	11	n/a	n/a	n/a	n/a	n/a	n/a	9	2	2	5	n/a	n/a	n/a	n/a	n/a
300532	PROB	n/a	LTP285	ltpFR	11	n/a	n/a	n/a	n/a	n/a	n/a	18	8	7	4	n/a	n/a	n/a	n/a	n/a
302822	STOP	n/a	LTP285	ltpFR	11	n/a	n/a	n/a	n/a	n/a	n/a	n/a	n/a	n/a	n/a	n/a	n/a	n/a	n/a	n/a
304631	WORD	wordpools/wasnorm_wordpool_less_exclusions.txt	LTP285	ltpFR	11	1	0	GRAPE	654	n/a	0	n/a	0	0	0	1	0.412841796875	0.57763671875	upper	../fonts/zerothre.ttf
307643	START	n/a	LTP285	ltpFR	11	n/a	n/a	n/a	n/a	n/a	n/a	n/a	n/a	n/a	n/a	n/a	n/a	n/a	n/a	n/a
308462	PROB	n/a	LTP285	ltpFR	11	n/a	n/a	n/a	n/a	n/a	n/a	15	5	1	9	n/a	n/a	n/a	n/a	n/a
309617	PROB	n/a	LTP285	ltpFR	11	n/a	n/a	n/a	n/a	n/a	n/a	17	4	7	6	n/a	n/a	n/a	n/a	n/a
311139	PROB	n/a	LTP285	ltpFR	11	n/a	n/a	n/a	n/a	n/a	n/a	22	8	7	7	n/a	n/a	n/a	n/a	n/a
313212	PROB	n/a	LTP285	ltpFR	11	n/a	n/a	n/a	n/a	n/a	n/a	14	2	6	6	n/a	n/a	n/a	n/a	n/a
315253	STOP	n/a	LTP285	ltpFR	11	n/a	n/a	n/a	n/a	n/a	n/a	n/a	n/a	n/a	n/a	n/a	n/a	n/a	n/a	n/a
316862	WORD	wordpools/wasnorm_wordpool_less_exclusions.txt	LTP285	ltpFR	11	1	0	STRING	1394	n/a	0	n/a	0	0	0	1	0.412841796875	0.57763671875	upper	../fonts/zerothre.ttf
319873	START	n/a	LTP285	ltpFR	11	n/a	n/a	n/a	n/a	n/a	n/a	n/a	n/a	n/a	n/a	n/a	n/a	n/a	n/a	n/a
320927	PROB	n/a	LTP285	ltpFR	11	n/a	n/a	n/a	n/a	n/a	n/a	16	2	7	7	n/a	n/a	n/a	n/a	n/a
323467	PROB	n/a	LTP285	ltpFR	11	n/a	n/a	n/a	n/a	n/a	n/a	10	1	1	8	n/a	n/a	n/a	n/a	n/a
324775	PROB	n/a	LTP285	ltpFR	11	n/a	n/a	n/a	n/a	n/a	n/a	12	3	7	2	n/a	n/a	n/a	n/a	n/a
325944	PROB	n/a	LTP285	ltpFR	11	n/a	n/a	n/a	n/a	n/a	n/a	13	1	9	3	n/a	n/a	n/a	n/a	n/a
326926	STOP	n/a	LTP285	ltpFR	11	n/a	n/a	n/a	n/a	n/a	n/a	n/a	n/a	n/a	n/a	n/a	n/a	n/a	n/a	n/a
329677	REC_START	n/a	LTP285	ltpFR	11	1	n/a	n/a	n/a	n/a	n/a	n/a	0	0	0	n/a	n/a	n/a	n/a	n/a
330671	REC_WORD	wordpools/wasnorm_wordpool_less_exclusions.txt	LTP285	ltpFR	11	1	0	BOYFRIEND	162	n/a	1	n/a	0	0	0	n/a	n/a	n/a	n/a	n/a
331536	REC_WORD	wordpools/wasnorm_wordpool_less_exclusions.txt	LTP285	ltpFR	11	1	0	ATTIRE	57	n/a	1	n/a	0	0	0	n/a	n/a	n/a	n/a	n/a
333046	REC_WORD	wordpools/wasnorm_wordpool_less_exclusions.txt	LTP285	ltpFR	11	1	0	CLOUD	328	n/a	1	n/a	0	0	0	n/a	n/a	n/a	n/a	n/a
334561	REC_WORD	wordpools/wasnorm_wordpool_less_exclusions.txt	LTP285	ltpFR	11	1	0	ICEBERG	731	n/a	1	n/a	0	0	0	n/a	n/a	n/a	n/a	n/a
336304	REC_WORD	wordpools/wasnorm_wordpool_less_exclusions.txt	LTP285	ltpFR	11	1	0	FRANCE	601	n/a	1	n/a	0	0	0	n/a	n/a	n/a	n/a	n/a
337917	REC_WORD	wordpools/wasnorm_wordpool_less_exclusions.txt	LTP285	ltpFR	11	1	0	WORM	1623	n/a	0	n/a	0	0	0	n/a	n/a	n/a	n/a	n/a
339359	REC_WORD	wordpools/wasnorm_wordpool_less_exclusions.txt	LTP285	ltpFR	11	1	0	GRAPE	654	n/a	0	n/a	0	0	0	n/a	n/a	n/a	n/a	n/a
340761	REC_WORD	wordpools/wasnorm_wordpool_less_exclusions.txt	LTP285	ltpFR	11	1	0	PICKLE	1059	n/a	0	n/a	0	0	0	n/a	n/a	n/a	n/a	n/a
342318	REC_WORD	wordpools/wasnorm_wordpool_less_exclusions.txt	LTP285	ltpFR	11	1	0	PEARL	1034	n/a	0	n/a	0	0	0	n/a	n/a	n/a	n/a	n/a
344202	REC_WORD	wordpools/wasnorm_wordpool_less_exclusions.txt	LTP285	ltpFR	11	1	0	EMERALD	528	n/a	0	n/a	0	0	0	n/a	n/a	n/a	n/a	n/a
346028	REC_WORD	wordpools/wasnorm_wordpool_less_exclusions.txt	LTP285	ltpFR	11	1	0	STRING	1394	n/a	0	n/a	0	0	0	n/a	n/a	n/a	n/a	n/a
351382	REC_WORD	wordpools/wasnorm_wordpool_less_exclusions.txt	LTP285	ltpFR	11	1	0	SCENERY	1247	n/a	1	n/a	0	0	0	n/a	n/a	n/a	n/a	n/a
371484	REC_WORD	wordpools/wasnorm_wordpool_less_exclusions.txt	LTP285	ltpFR	11	1	0	DIARY	460	n/a	0	n/a	0	0	0	n/a	n/a	n/a	n/a	n/a
417373	WORD	wordpools/wasnorm_wordpool_less_exclusions.txt	LTP285	ltpFR	11	2	0	COP	376	n/a	1	n/a	0	0	0	1	0.412841796875	0.57763671875	upper	../fonts/zerothre.ttf
421522	WORD	wordpools/wasnorm_wordpool_less_exclusions.txt	LTP285	ltpFR	11	2	0	POSSUM	1112	n/a	0	n/a	0	0	0	1	0.412841796875	0.57763671875	upper	../fonts/zerothre.ttf
425451	WORD	wordpools/wasnorm_wordpool_less_exclusions.txt	LTP285	ltpFR	11	2	0	PARROT	1015	n/a	0	n/a	0	0	0	1	0.412841796875	0.57763671875	upper	../fonts/zerothre.ttf
429418	WORD	wordpools/wasnorm_wordpool_less_exclusions.txt	LTP285	ltpFR	11	2	0	PERCH	1048	n/a	0	n/a	0	0	0	1	0.412841796875	0.57763671875	upper	../fonts/zerothre.ttf
433500	WORD	wordpools/wasnorm_wordpool_less_exclusions.txt	LTP285	ltpFR	11	2	0	CHICK	296	n/a	0	n/a	0	0	0	1	0.412841796875	0.57763671875	upper	../fonts/zerothre.ttf
437497	WORD	wordpools/wasnorm_wordpool_less_exclusions.txt	LTP285	ltpFR	11	2	1	HOSE	720	n/a	0	n/a	0	0	0	0	0.5869140625	0.422607421875	lower	../fonts/amplitud.ttf
441313	WORD	wordpools/wasnorm_wordpool_less_exclusions.txt	LTP285	ltpFR	11	2	1	FIREPLACE	570	n/a	0	n/a	0	0	0	0	0.5869140625	0.422607421875	lower	../fonts/amplitud.ttf
445412	WORD	wordpools/wasnorm_wordpool_less_exclusions.txt	LTP285	ltpFR	11	2	1	BOUILLON	154	n/a	0	n/a	0	0	0	0	0.5869140625	0.422607421875	lower	../fonts/amplitud.ttf
449561	WORD	wordpools/wasnorm_wordpool_less_exclusions.txt	LTP285	ltpFR	11	2	1	SKIN	1318	n/a	1	n/a	0	0	0	0	0.5869140625	0.422607421875	lower	../fonts/amplitud.ttf
453744	WORD	wordpools/wasnorm_wordpool_less_exclusions.txt	LTP285	ltpFR	11	2	1	FRAGRANCE	599	n/a	0	n/a	0	0	0	0	0.5869140625	0.422607421875	lower	../fonts/amplitud.ttf
457743	WORD	wordpools/wasnorm_wordpool_less_exclusions.txt	LTP285	ltpFR	11	2	0	MONASTERY	907	n/a	1	n/a	0	0	0	1	0.412841796875	0.57763671875	upper	../fonts/zerothre.ttf
461688	WORD	wordpools/wasnorm_wordpool_less_exclusions.txt	LTP285	ltpFR	11	2	0	POLITICIAN	1099	n/a	1	n/a	0	0	0	1	0.412841796875	0.57763671875	upper	../fonts/zerothre.ttf
465571	WORD	wordpools/wasnorm_wordpool_less_exclusions.txt	LTP285	ltpFR	11	2	0	CAGE	218	n/a	1	n/a	0	0	0	1	0.412841796875	0.57763671875	upper	../fonts/zerothre.ttf
469553	WORD	wordpools/wasnorm_wordpool_less_exclusions.txt	LTP285	ltpFR	11	2	1	FRIAR	605	n/a	1	n/a	0	0	0	0	0.5869140625	0.422607421875	lower	../fonts/amplitud.ttf
473535	WORD	wordpools/wasnorm_wordpool_less_exclusions.txt	LTP285	ltpFR	11	2	1	JOURNAL	760	n/a	0	n/a	0	0	0	0	0.5869140625	0.422607421875	lower	../fonts/amplitud.ttf
477583	WORD	wordpools/wasnorm_wordpool_less_exclusions.txt	LTP285	ltpFR	11	2	1	REPORT	1184	n/a	0	n/a	0	0	0	0	0.5869140625	0.422607421875	lower	../fonts/amplitud.ttf
480595	START	n/a	LTP285	ltpFR	11	n/a	n/a	n/a	n/a	n/a	n/a	n/a	n/a	n/a	n/a	n/a	n/a	n/a	n/a	n/a
481733	PROB	n/a	LTP285	ltpFR	11	n/a	n/a	n/a	n/a	n/a	n/a	10	1	7	2	n/a	n/a	n/a	n/a	n/a
483537	PROB	n/a	LTP285	ltpFR	11	n/a	n/a	n/a	n/a	n/a	n/a	15	6	4	5	n/a	n/a	n/a	n/a	n/a
484693	PROB	n/a	LTP285	ltpFR	11	n/a	n/a	n/a	n/a	n/a	n/a	20	9	3	8	n/a	n/a	n/a	n/a	n/a
487462	STOP	n/a	LTP285	ltpFR	11	n/a	n/a	n/a	n/a	n/a	n/a	n/a	n/a	n/a	n/a	n/a	n/a	n/a	n/a	n/a
490416	REC_START	n/a	LTP285	ltpFR	11	2	n/a	n/a	n/a	n/a	n/a	n/a	0	0	0	n/a	n/a	n/a	n/a	n/a
491233	REC_WORD	wordpools/wasnorm_wordpool_less_exclusions.txt	LTP285	ltpFR	11	2	1	FRIAR	605	n/a	1	n/a	0	0	0	n/a	n/a	n/a	n/a	n/a
492634	REC_WORD	wordpools/wasnorm_wordpool_less_exclusions.txt	LTP285	ltpFR	11	2	0	MONASTERY	907	n/a	1	n/a	0	0	0	n/a	n/a	n/a	n/a	n/a
494286	REC_WORD	wordpools/wasnorm_wordpool_less_exclusions.txt	LTP285	ltpFR	11	2	1	JOURNAL	760	n/a	0	n/a	0	0	0	n/a	n/a	n/a	n/a	n/a
495673	REC_WORD	wordpools/wasnorm_wordpool_less_exclusions.txt	LTP285	ltpFR	11	2	1	REPORT	1184	n/a	0	n/a	0	0	0	n/a	n/a	n/a	n/a	n/a
497808	REC_WORD	wordpools/wasnorm_wordpool_less_exclusions.txt	LTP285	ltpFR	11	2	1	HOSE	720	n/a	0	n/a	0	0	0	n/a	n/a	n/a	n/a	n/a
502482	REC_WORD	wordpools/wasnorm_wordpool_less_exclusions.txt	LTP285	ltpFR	11	2	0	CHICK	296	n/a	0	n/a	0	0	0	n/a	n/a	n/a	n/a	n/a
504166	REC_WORD	wordpools/wasnorm_wordpool_less_exclusions.txt	LTP285	ltpFR	11	2	n/a	PELICAN	1039	n/a	n/a	n/a	0	0	0	n/a	n/a	n/a	n/a	n/a
505814	REC_WORD	wordpools/wasnorm_wordpool_less_exclusions.txt	LTP285	ltpFR	11	2	0	PARROT	1015	n/a	0	n/a	0	0	0	n/a	n/a	n/a	n/a	n/a
507658	REC_WORD	wordpools/wasnorm_wordpool_less_exclusions.txt	LTP285	ltpFR	11	2	0	PERCH	1048	n/a	0	n/a	0	0	0	n/a	n/a	n/a	n/a	n/a
509219	REC_WORD	wordpools/wasnorm_wordpool_less_exclusions.txt	LTP285	ltpFR	11	2	0	CAGE	218	n/a	1	n/a	0	0	0	n/a	n/a	n/a	n/a	n/a
517722	REC_WORD	wordpools/wasnorm_wordpool_less_exclusions.txt	LTP285	ltpFR	11	2	1	BOUILLON	154	n/a	0	n/a	0	0	0	n/a	n/a	n/a	n/a	n/a
519480	REC_WORD	wordpools/wasnorm_wordpool_less_exclusions.txt	LTP285	ltpFR	11	2	1	SKIN	1318	n/a	1	n/a	0	0	0	n/a	n/a	n/a	n/a	n/a
521646	REC_WORD	wordpools/wasnorm_wordpool_less_exclusions.txt	LTP285	ltpFR	11	2	1	FIREPLACE	570	n/a	0	n/a	0	0	0	n/a	n/a	n/a	n/a	n/a
524226	REC_WORD	wordpools/wasnorm_wordpool_less_exclusions.txt	LTP285	ltpFR	11	2	1	HOSE	720	n/a	0	n/a	0	0	0	n/a	n/a	n/a	n/a	n/a
545400	REC_WORD	wordpools/wasnorm_wordpool_less_exclusions.txt	LTP285	ltpFR	11	2	0	POSSUM	1112	n/a	0	n/a	0	0	0	n/a	n/a	n/a	n/a	n/a
573730	WORD	wordpools/wasnorm_wordpool_less_exclusions.txt	LTP285	ltpFR	11	3	1	CEILING	265	n/a	0	n/a	0	0	0	0	0.5869140625	0.422607421875	lower	../fonts/amplitud.ttf
577692	WORD	wordpools/wasnorm_wordpool_less_exclusions.txt	LTP285	ltpFR	11	3	1	POTTERY	1116	n/a	0	n/a	0	0	0	0	0.5869140625	0.422607421875	lower	../fonts/amplitud.ttf
581777	WORD	wordpools/wasnorm_wordpool_less_exclusions.txt	LTP285	ltpFR	11	3	1	MICROWAVE	892	n/a	0	n/a	0	0	0	0	0.5869140625	0.422607421875	lower	../fonts/amplitud.ttf
585993	WORD	wordpools/wasnorm_wordpool_less_exclusions.txt	LTP285	ltpFR	11	3	1	COOKBOOK	373	n/a	0	n/a	0	0	0	0	0.5869140625	0.422607421875	lower	../fonts/amplitud.ttf
590141	WORD	wordpools/wasnorm_wordpool_less_exclusions.txt	LTP285	ltpFR	11	3	1	GENTLEMAN	631	n/a	1	n/a	0	0	0	0	0.5869140625	0.422607421875	lower	../fonts/amplitud.ttf
594072	WORD	wordpools/wasnorm_wordpool_less_exclusions.txt	LTP285	ltpFR	11	3	1	TECHNICIAN	1443	n/a	1	n/a	0	0	0	0	0.5869140625	0.422607421875	lower	../fonts/amplitud.ttf
598121	WORD	wordpools/wasnorm_wordpool_less_exclusions.txt	LTP285	ltpFR	11	3	1	STEM	1376	n/a	1	n/a	0	0	0	0	0.5869140625	0.422607421875	lower	../fonts/amplitud.ttf
602303	WORD	wordpools/wasnorm_wordpool_less_exclusions.txt	LTP285	ltpFR	11	3	1	SUBMARINE	1398	n/a	0	n/a	0	0	0	0	0.5869140625	0.422607421875	lower	../fonts/amplitud.ttf
606486	WORD	wordpools/wasnorm_wordpool_less_exclusions.txt	LTP285	ltpFR	11	3	1	BOAT	144	n/a	0	n/a	0	0	0	0	0.5869140625	0.422607421875	lower	../fonts/amplitud.ttf
610484	WORD	wordpools/wasnorm_wordpool_less_exclusions.txt	LTP285	ltpFR	11	3	1	BUREAU	199	n/a	0	n/a	0	0	0	0	0.5869140625	0.422607421875	lower	../fonts/amplitud.ttf
614566	WORD	wordpools/wasnorm_wordpool_less_exclusions.txt	LTP285	ltpFR	11	3	1	MECHANIC	884	n/a	1	n/a	0	0	0	0	0.5869140625	0.422607421875	lower	../fonts/amplitud.ttf
618579	WORD	wordpools/wasnorm_wordpool_less_exclusions.txt	LTP285	ltpFR	11	3	1	MAN	862	n/a	1	n/a	0	0	0	0	0.5869140625	0.422607421875	lower	../fonts/amplitud.ttf
622513	WORD	wordpools/wasnorm_wordpool_less_exclusions.txt	LTP285	ltpFR	11	3	1	SHEPHERD	1283	n/a	1	n/a	0	0	0	0	0.5869140625	0.422607421875	lower	../fonts/amplitud.ttf
626712	WORD	wordpools/wasnorm_wordpool_less_exclusions.txt	LTP285	ltpFR	11	3	1	TREAT	1501	n/a	0	n/a	0	0	0	0	0.5869140625	0.422607421875	lower	../fonts/amplitud.ttf
630795	WORD	wordpools/wasnorm_wordpool_less_exclusions.txt	LTP285	ltpFR	11	3	1	UNDERWEAR	1537	n/a	0	n/a	0	0	0	0	0.5869140625	0.422607421875	lower	../fonts/amplitud.ttf
634944	WORD	wordpools/wasnorm_wordpool_less_exclusions.txt	LTP285	ltpFR	11	3	1	GRASS	655	n/a	1	n/a	0	0	0	0	0.5869140625	0.422607421875	lower	../fonts/amplitud.ttf
637956	START	n/a	LTP285	ltpFR	11	n/a	n/a	n/a	n/a	n/a	n/a	n/a	n/a	n/a	n/a	n/a	n/a	n/a	n/a	n/a
638775	PROB	n/a	LTP285	ltpFR	11	n/a	n/a	n/a	n/a	n/a	n/a	16	6	3	8	n/a	n/a	n/a	n/a	n/a
641198	PROB	n/a	LTP285	ltpFR	11	n/a	n/a	n/a	n/a	n/a	n/a	15	1	8	6	n/a	n/a	n/a	n/a	n/a
643473	PROB	n/a	LTP285	ltpFR	11	n/a	n/a	n/a	n/a	n/a	n/a	13	1	5	7	n/a	n/a	n/a	n/a	n/a
645413	STOP	n/a	LTP285	ltpFR	11	n/a	n/a	n/a	n/a	n/a	n/a	n/a	n/a	n/a	n/a	n/a	n/a	n/a	n/a	n/a
647893	REC_START	n/a	LTP285	ltpFR	11	3	n/a	n/a	n/a	n/a	n/a	n/a	0	0	0	n/a	n/a	n/a	n/a	n/a
648950	REC_WORD	wordpools/wasnorm_wordpool_less_exclusions.txt	LTP285	ltpFR	11	3	1	UNDERWEAR	1537	n/a	0	n/a	0	0	0	n/a	n/a	n/a	n/a	n/a
650266	REC_WORD	wordpools/wasnorm_wordpool_less_exclusions.txt	LTP285	ltpFR	11	3	1	MAN	862	n/a	1	n/a	0	0	0	n/a	n/a	n/a	n/a	n/a
651995	REC_WORD	wordpools/wasnorm_wordpool_less_exclusions.txt	LTP285	ltpFR	11	3	0	POLITICIAN	1099	n/a	1	n/a	0	0	0	n/a	n/a	n/a	n/a	n/a
653632	REC_WORD	wordpools/wasnorm_wordpool_less_exclusions.txt	LTP285	ltpFR	11	3	1	MECHANIC	884	n/a	1	n/a	0	0	0	n/a	n/a	n/a	n/a	n/a
655729	REC_WORD	wordpools/wasnorm_wordpool_less_exclusions.txt	LTP285	ltpFR	11	3	1	BUREAU	199	n/a	0	n/a	0	0	0	n/a	n/a	n/a	n/a	n/a
658255	REC_WORD	wordpools/wasnorm_wordpool_less_exclusions.txt	LTP285	ltpFR	11	3	1	BOAT	144	n/a	0	n/a	0	0	0	n/a	n/a	n/a	n/a	n/a
659343	REC_WORD	wordpools/wasnorm_wordpool_less_exclusions.txt	LTP285	ltpFR	11	3	1	SUBMARINE	1398	n/a	0	n/a	0	0	0	n/a	n/a	n/a	n/a	n/a
662885	REC_WORD	wordpools/wasnorm_wordpool_less_exclusions.txt	LTP285	ltpFR	11	3	1	STEM	1376	n/a	1	n/a	0	0	0	n/a	n/a	n/a	n/a	n/a
664397	REC_WORD	wordpools/wasnorm_wordpool_less_exclusions.txt	LTP285	ltpFR	11	3	1	GRASS	655	n/a	1	n/a	0	0	0	n/a	n/a	n/a	n/a	n/a
671656	REC_WORD	wordpools/wasnorm_wordpool_less_exclusions.txt	LTP285	ltpFR	11	3	1	GENTLEMAN	631	n/a	1	n/a	0	0	0	n/a	n/a	n/a	n/a	n/a
685133	REC_WORD	wordpools/wasnorm_wordpool_less_exclusions.txt	LTP285	ltpFR	11	3	1	SHEPHERD	1283	n/a	1	n/a	0	0	0	n/a	n/a	n/a	n/a	n/a
730537	WORD	wordpools/wasnorm_wordpool_less_exclusions.txt	LTP285	ltpFR	11	4	0	BERRY	122	n/a	0	n/a	0	0	0	1	0.412841796875	0.57763671875	upper	../fonts/zerothre.ttf
734652	WORD	wordpools/wasnorm_wordpool_less_exclusions.txt	LTP285	ltpFR	11	4	0	PRIEST	1122	n/a	1	n/a	0	0	0	1	0.412841796875	0.57763671875	upper	../fonts/zerothre.ttf
738634	WORD	wordpools/wasnorm_wordpool_less_exclusions.txt	LTP285	ltpFR	11	4	0	CAB	209	n/a	1	n/a	0	0	0	1	0.412841796875	0.57763671875	upper	../fonts/zerothre.ttf
742666	WORD	wordpools/wasnorm_wordpool_less_exclusions.txt	LTP285	ltpFR	11	4	0	SAGE	1222	n/a	0	n/a	0	0	0	1	0.412841796875	0.57763671875	upper	../fonts/zerothre.ttf
746749	WORD	wordpools/wasnorm_wordpool_less_exclusions.txt	LTP285	ltpFR	11	4	0	CLOVE	329	n/a	0	n/a	0	0	0	1	0.412841796875	0.57763671875	upper	../fonts/zerothre.ttf
750713	WORD	wordpools/wasnorm_wordpool_less_exclusions.txt	LTP285	ltpFR	11	4	0	PRUNE	1134	n/a	0	n/a	0	0	0	1	0.412841796875	0.57763671875	upper	../fonts/zerothre.ttf
754594	WORD	wordpools/wasnorm_wordpool_less_exclusions.txt	LTP285	ltpFR	11	4	0	PUDDING	1139	n/a	0	n/a	0	0	0	1	0.412841796875	0.57763671875	upper	../fonts/zerothre.ttf
758727	WORD	wordpools/wasnorm_wordpool_less_exclusions.txt	LTP285	ltpFR	11	4	0	FUDGE	611	n/a	0	n/a	0	0	0	1	0.412841796875	0.57763671875	upper	../fonts/zerothre.ttf
762624	WORD	wordpools/wasnorm_wordpool_less_exclusions.txt	LTP285	ltpFR	11	4	0	COOK	372	n/a	1	n/a	0	0	0	1	0.412841796875	0.57763671875	upper	../fonts/zerothre.ttf
766706	WORD	wordpools/wasnorm_wordpool_less_exclusions.txt	LTP285	ltpFR	11	4	0	BEVERAGE	123	n/a	0	n/a	0	0	0	1	0.412841796875	0.57763671875	upper	../fonts/zerothre.ttf
770856	WORD	wordpools/wasnorm_wordpool_less_exclusions.txt	LTP285	ltpFR	11	4	0	TICKET	1464	n/a	0	n/a	0	0	0	1	0.412841796875	0.57763671875	upper	../fonts/zerothre.ttf
774721	WORD	wordpools/wasnorm_wordpool_less_exclusions.txt	LTP285	ltpFR	11	4	0	BAKER	71	n/a	1	n/a	0	0	0	1	0.412841796875	0.57763671875	upper	../fonts/zerothre.ttf
778753	WORD	wordpools/wasnorm_wordpool_less_exclusions.txt	LTP285	ltpFR	11	4	0	DOVE	491	n/a	0	n/a	0	0	0	1	0.412841796875	0.57763671875	upper	../fonts/zerothre.ttf
782717	WORD	wordpools/wasnorm_wordpool_less_exclusions.txt	LTP285	ltpFR	11	4	0	KITE	779	n/a	0	n/a	0	0	0	1	0.412841796875	0.57763671875	upper	../fonts/zerothre.ttf
786615	WORD	wordpools/wasnorm_wordpool_less_exclusions.txt	LTP285	ltpFR	11	4	0	REBEL	1172	n/a	1	n/a	0	0	0	1	0.412841796875	0.57763671875	upper	../fonts/zerothre.ttf
790748	WORD	wordpools/wasnorm_wordpool_less_exclusions.txt	LTP285	ltpFR	11	4	0	ROSE	1212	n/a	0	n/a	0	0	0	1	0.412841796875	0.57763671875	upper	../fonts/zerothre.ttf
793760	START	n/a	LTP285	ltpFR	11	n/a	n/a	n/a	n/a	n/a	n/a	n/a	n/a	n/a	n/a	n/a	n/a	n/a	n/a	n/a
794845	PROB	n/a	LTP285	ltpFR	11	n/a	n/a	n/a	n/a	n/a	n/a	20	8	7	5	n/a	n/a	n/a	n/a	n/a
797388	PROB	n/a	LTP285	ltpFR	11	n/a	n/a	n/a	n/a	n/a	n/a	19	5	6	8	n/a	n/a	n/a	n/a	n/a
799782	PROB	n/a	LTP285	ltpFR	11	n/a	n/a	n/a	n/a	n/a	n/a	12	3	2	7	n/a	n/a	n/a	n/a	n/a
801337	PROB	n/a	LTP285	ltpFR	11	n/a	n/a	n/a	n/a	n/a	n/a	24	8	8	8	n/a	n/a	n/a	n/a	n/a
803158	PROB	n/a	LTP285	ltpFR	11	n/a	n/a	n/a	n/a	n/a	n/a	18	8	2	8	n/a	n/a	n/a	n/a	n/a
804246	PROB	n/a	LTP285	ltpFR	11	n/a	n/a	n/a	n/a	n/a	n/a	14	5	5	4	n/a	n/a	n/a	n/a	n/a
805419	PROB	n/a	LTP285	ltpFR	11	n/a	n/a	n/a	n/a	n/a	n/a	19	8	7	4	n/a	n/a	n/a	n/a	n/a
807075	PROB	n/a	LTP285	ltpFR	11	n/a	n/a	n/a	n/a	n/a	n/a	16	6	1	9	n/a	n/a	n/a	n/a	n/a
809214	STOP	n/a	LTP285	ltpFR	11	n/a	n/a	n/a	n/a	n/a	n/a	n/a	n/a	n/a	n/a	n/a	n/a	n/a	n/a	n/a
811693	REC_START	n/a	LTP285	ltpFR	11	4	n/a	n/a	n/a	n/a	n/a	n/a	0	0	0	n/a	n/a	n/a	n/a	n/a
812363	REC_WORD	wordpools/wasnorm_wordpool_less_exclusions.txt	LTP285	ltpFR	11	4	0	REBEL	1172	n/a	1	n/a	0	0	0	n/a	n/a	n/a	n/a	n/a
813472	REC_WORD	wordpools/wasnorm_wordpool_less_exclusions.txt	LTP285	ltpFR	11	4	0	COOK	372	n/a	1	n/a	0	0	0	n/a	n/a	n/a	n/a	n/a
814851	REC_WORD	wordpools/wasnorm_wordpool_less_exclusions.txt	LTP285	ltpFR	11	4	0	BAKER	71	n/a	1	n/a	0	0	0	n/a	n/a	n/a	n/a	n/a
818406	REC_WORD	wordpools/wasnorm_wordpool_less_exclusions.txt	LTP285	ltpFR	11	4	0	BERRY	122	n/a	0	n/a	0	0	0	n/a	n/a	n/a	n/a	n/a
820372	REC_WORD	wordpools/wasnorm_wordpool_less_exclusions.txt	LTP285	ltpFR	11	4	0	PRUNE	1134	n/a	0	n/a	0	0	0	n/a	n/a	n/a	n/a	n/a
822264	REC_WORD	wordpools/wasnorm_wordpool_less_exclusions.txt	LTP285	ltpFR	11	4	0	FUDGE	611	n/a	0	n/a	0	0	0	n/a	n/a	n/a	n/a	n/a
824946	REC_WORD	wordpools/wasnorm_wordpool_less_exclusions.txt	LTP285	ltpFR	11	4	0	CLOVE	329	n/a	0	n/a	0	0	0	n/a	n/a	n/a	n/a	n/a
826309	REC_WORD	wordpools/wasnorm_wordpool_less_exclusions.txt	LTP285	ltpFR	11	4	0	SAGE	1222	n/a	0	n/a	0	0	0	n/a	n/a	n/a	n/a	n/a
830019	REC_WORD	wordpools/wasnorm_wordpool_less_exclusions.txt	LTP285	ltpFR	11	4	0	KITE	779	n/a	0	n/a	0	0	0	n/a	n/a	n/a	n/a	n/a
832799	REC_WORD	wordpools/wasnorm_wordpool_less_exclusions.txt	LTP285	ltpFR	11	4	0	PRIEST	1122	n/a	1	n/a	0	0	0	n/a	n/a	n/a	n/a	n/a
834327	REC_WORD	wordpools/wasnorm_wordpool_less_exclusions.txt	LTP285	ltpFR	11	4	0	CAB	209	n/a	1	n/a	0	0	0	n/a	n/a	n/a	n/a	n/a
853209	REC_WORD	wordpools/wasnorm_wordpool_less_exclusions.txt	LTP285	ltpFR	11	4	0	DOVE	491	n/a	0	n/a	0	0	0	n/a	n/a	n/a	n/a	n/a
865992	REC_WORD	wordpools/wasnorm_wordpool_less_exclusions.txt	LTP285	ltpFR	11	4	0	REBEL	1172	n/a	1	n/a	0	0	0	n/a	n/a	n/a	n/a	n/a
893903	WORD	wordpools/wasnorm_wordpool_less_exclusions.txt	LTP285	ltpFR	11	5	0	PAPER	1011	n/a	0	n/a	0	0	0	1	0.412841796875	0.57763671875	upper	../fonts/zerothre.ttf
897868	WORD	wordpools/wasnorm_wordpool_less_exclusions.txt	LTP285	ltpFR	11	5	0	ALMANAC	17	n/a	0	n/a	0	0	0	1	0.412841796875	0.57763671875	upper	../fonts/zerothre.ttf
902000	WORD	wordpools/wasnorm_wordpool_less_exclusions.txt	LTP285	ltpFR	11	5	0	STAPLE	1371	n/a	0	n/a	0	0	0	1	0.412841796875	0.57763671875	upper	../fonts/zerothre.ttf
906048	WORD	wordpools/wasnorm_wordpool_less_exclusions.txt	LTP285	ltpFR	11	5	0	NAPKIN	937	n/a	0	n/a	0	0	0	1	0.412841796875	0.57763671875	upper	../fonts/zerothre.ttf
909930	WORD	wordpools/wasnorm_wordpool_less_exclusions.txt	LTP285	ltpFR	11	5	0	SATURN	1236	n/a	1	n/a	0	0	0	1	0.412841796875	0.57763671875	upper	../fonts/zerothre.ttf
913945	WORD	wordpools/wasnorm_wordpool_less_exclusions.txt	LTP285	ltpFR	11	5	0	ROCKET	1202	n/a	1	n/a	0	0	0	1	0.412841796875	0.57763671875	upper	../fonts/zerothre.ttf
918060	WORD	wordpools/wasnorm_wordpool_less_exclusions.txt	LTP285	ltpFR	11	5	0	PIE	1062	n/a	0	n/a	0	0	0	1	0.412841796875	0.57763671875	upper	../fonts/zerothre.ttf
921976	WORD	wordpools/wasnorm_wordpool_less_exclusions.txt	LTP285	ltpFR	11	5	0	BUS	201	n/a	1	n/a	0	0	0	1	0.412841796875	0.57763671875	upper	../fonts/zerothre.ttf
925957	WORD	wordpools/wasnorm_wordpool_less_exclusions.txt	LTP285	ltpFR	11	5	0	ASTEROID	50	n/a	1	n/a	0	0	0	1	0.412841796875	0.57763671875	upper	../fonts/zerothre.ttf
930023	WORD	wordpools/wasnorm_wordpool_less_exclusions.txt	LTP285	ltpFR	11	5	0	INSECT	740	n/a	0	n/a	0	0	0	1	0.412841796875	0.57763671875	upper	../fonts/zerothre.ttf
934085	WORD	wordpools/wasnorm_wordpool_less_exclusions.txt	LTP285	ltpFR	11	5	0	BUTTERFLY	206	n/a	0	n/a	0	0	0	1	0.412841796875	0.57763671875	upper	../fonts/zerothre.ttf
938019	WORD	wordpools/wasnorm_wordpool_less_exclusions.txt	LTP285	ltpFR	11	5	0	BINDER	127	n/a	0	n/a	0	0	0	1	0.412841796875	0.57763671875	upper	../fonts/zerothre.ttf
941901	WORD	wordpools/wasnorm_wordpool_less_exclusions.txt	LTP285	ltpFR	11	5	0	ANCHOR	21	n/a	1	n/a	0	0	0	1	0.412841796875	0.57763671875	upper	../fonts/zerothre.ttf
945916	WORD	wordpools/wasnorm_wordpool_less_exclusions.txt	LTP285	ltpFR	11	5	0	FIDDLE	561	n/a	1	n/a	0	0	0	1	0.412841796875	0.57763671875	upper	../fonts/zerothre.ttf
950097	WORD	wordpools/wasnorm_wordpool_less_exclusions.txt	LTP285	ltpFR	11	5	0	THESAURUS	1454	n/a	0	n/a	0	0	0	1	0.412841796875	0.57763671875	upper	../fonts/zerothre.ttf
954163	WORD	wordpools/wasnorm_wordpool_less_exclusions.txt	LTP285	ltpFR	11	5	0	NEPTUNE	943	n/a	1	n/a	0	0	0	1	0.412841796875	0.57763671875	upper	../fonts/zerothre.ttf
960003	REC_START	n/a	LTP285	ltpFR	11	5	n/a	n/a	n/a	n/a	n/a	n/a	0	0	0	n/a	n/a	n/a	n/a	n/a
960890	REC_WORD	wordpools/wasnorm_wordpool_less_exclusions.txt	LTP285	ltpFR	11	5	0	NEPTUNE	943	n/a	1	n/a	0	0	0	n/a	n/a	n/a	n/a	n/a
962057	REC_WORD	wordpools/wasnorm_wordpool_less_exclusions.txt	LTP285	ltpFR	11	5	0	SATURN	1236	n/a	1	n/a	0	0	0	n/a	n/a	n/a	n/a	n/a
963611	REC_WORD	wordpools/wasnorm_wordpool_less_exclusions.txt	LTP285	ltpFR	11	5	0	ASTEROID	50	n/a	1	n/a	0	0	0	n/a	n/a	n/a	n/a	n/a
965374	REC_WORD	wordpools/wasnorm_wordpool_less_exclusions.txt	LTP285	ltpFR	11	5	0	ALMANAC	17	n/a	0	n/a	0	0	0	n/a	n/a	n/a	n/a	n/a
966792	REC_WORD	wordpools/wasnorm_wordpool_less_exclusions.txt	LTP285	ltpFR	11	5	0	THESAURUS	1454	n/a	0	n/a	0	0	0	n/a	n/a	n/a	n/a	n/a
976456	REC_WORD	wordpools/wasnorm_wordpool_less_exclusions.txt	LTP285	ltpFR	11	5	0	BUS	201	n/a	1	n/a	0	0	0	n/a	n/a	n/a	n/a	n/a
981329	REC_WORD	wordpools/wasnorm_wordpool_less_exclusions.txt	LTP285	ltpFR	11	5	0	FIDDLE	561	n/a	1	n/a	0	0	0	n/a	n/a	n/a	n/a	n/a
987218	REC_WORD	wordpools/wasnorm_wordpool_less_exclusions.txt	LTP285	ltpFR	11	5	0	NAPKIN	937	n/a	0	n/a	0	0	0	n/a	n/a	n/a	n/a	n/a
1021399	REC_WORD	wordpools/wasnorm_wordpool_less_exclusions.txt	LTP285	ltpFR	11	5	0	INSECT	740	n/a	0	n/a	0	0	0	n/a	n/a	n/a	n/a	n/a
1022761	REC_WORD	wordpools/wasnorm_wordpool_less_exclusions.txt	LTP285	ltpFR	11	5	0	BUTTERFLY	206	n/a	0	n/a	0	0	0	n/a	n/a	n/a	n/a	n/a
1041492	START	n/a	LTP285	ltpFR	11	n/a	n/a	n/a	n/a	n/a	n/a	n/a	n/a	n/a	n/a	n/a	n/a	n/a	n/a	n/a
1042998	PROB	n/a	LTP285	ltpFR	11	n/a	n/a	n/a	n/a	n/a	n/a	6	3	2	1	n/a	n/a	n/a	n/a	n/a
1044937	PROB	n/a	LTP285	ltpFR	11	n/a	n/a	n/a	n/a	n/a	n/a	23	9	9	4	n/a	n/a	n/a	n/a	n/a
1048031	PROB	n/a	LTP285	ltpFR	11	n/a	n/a	n/a	n/a	n/a	n/a	21	7	5	9	n/a	n/a	n/a	n/a	n/a
1050557	PROB	n/a	LTP285	ltpFR	11	n/a	n/a	n/a	n/a	n/a	n/a	21	9	7	5	n/a	n/a	n/a	n/a	n/a
1052533	PROB	n/a	LTP285	ltpFR	11	n/a	n/a	n/a	n/a	n/a	n/a	15	1	8	6	n/a	n/a	n/a	n/a	n/a
1054340	PROB	n/a	LTP285	ltpFR	11	n/a	n/a	n/a	n/a	n/a	n/a	17	7	3	7	n/a	n/a	n/a	n/a	n/a
1055509	PROB	n/a	LTP285	ltpFR	11	n/a	n/a	n/a	n/a	n/a	n/a	1	7	1	4	n/a	n/a	n/a	n/a	n/a
1056838	STOP	n/a	LTP285	ltpFR	11	n/a	n/a	n/a	n/a	n/a	n/a	n/a	n/a	n/a	n/a	n/a	n/a	n/a	n/a	n/a
1058539	WORD	wordpools/wasnorm_wordpool_less_exclusions.txt	LTP285	ltpFR	11	6	1	BALL	73	n/a	0	n/a	0	0	0	0	0.5869140625	0.422607421875	lower	../fonts/amplitud.ttf
1061552	START	n/a	LTP285	ltpFR	11	n/a	n/a	n/a	n/a	n/a	n/a	n/a	n/a	n/a	n/a	n/a	n/a	n/a	n/a	n/a
1062638	PROB	n/a	LTP285	ltpFR	11	n/a	n/a	n/a	n/a	n/a	n/a	24	8	8	8	n/a	n/a	n/a	n/a	n/a
1063992	PROB	n/a	LTP285	ltpFR	11	n/a	n/a	n/a	n/a	n/a	n/a	20	6	9	5	n/a	n/a	n/a	n/a	n/a
1067237	PROB	n/a	LTP285	ltpFR	11	n/a	n/a	n/a	n/a	n/a	n/a	18	6	8	5	n/a	n/a	n/a	n/a	n/a
1070300	PROB	n/a	LTP285	ltpFR	11	n/a	n/a	n/a	n/a	n/a	n/a	19	9	3	7	n/a	n/a	n/a	n/a	n/a
1071655	PROB	n/a	LTP285	ltpFR	11	n/a	n/a	n/a	n/a	n/a	n/a	12	3	4	5	n/a	n/a	n/a	n/a	n/a
1073278	PROB	n/a	LTP285	ltpFR	11	n/a	n/a	n/a	n/a	n/a	n/a	12	1	7	4	n/a	n/a	n/a	n/a	n/a
1074550	PROB	n/a	LTP285	ltpFR	11	n/a	n/a	n/a	n/a	n/a	n/a	17	4	9	4	n/a	n/a	n/a	n/a	n/a
1076222	STOP	n/a	LTP285	ltpFR	11	n/a	n/a	n/a	n/a	n/a	n/a	n/a	n/a	n/a	n/a	n/a	n/a	n/a	n/a	n/a
1078515	WORD	wordpools/wasnorm_wordpool_less_exclusions.txt	LTP285	ltpFR	11	6	1	MONSTER	912	n/a	1	n/a	0	0	0	0	0.5869140625	0.422607421875	lower	../fonts/amplitud.ttf
1081527	START	n/a	LTP285	ltpFR	11	n/a	n/a	n/a	n/a	n/a	n/a	n/a	n/a	n/a	n/a	n/a	n/a	n/a	n/a	n/a
1082430	PROB	n/a	LTP285	ltpFR	11	n/a	n/a	n/a	n/a	n/a	n/a	15	2	8	5	n/a	n/a	n/a	n/a	n/a
1083532	PROB	n/a	LTP285	ltpFR	11	n/a	n/a	n/a	n/a	n/a	n/a	16	7	4	5	n/a	n/a	n/a	n/a	n/a
1085005	PROB	n/a	LTP285	ltpFR	11	n/a	n/a	n/a	n/a	n/a	n/a	9	2	2	5	n/a	n/a	n/a	n/a	n/a
1086361	PROB	n/a	LTP285	ltpFR	11	n/a	n/a	n/a	n/a	n/a	n/a	14	3	7	4	n/a	n/a	n/a	n/a	n/a
1087580	PROB	n/a	LTP285	ltpFR	11	n/a	n/a	n/a	n/a	n/a	n/a	121	6	3	2	n/a	n/a	n/a	n/a	n/a
1089389	PROB	n/a	LTP285	ltpFR	11	n/a	n/a	n/a	n/a	n/a	n/a	8	6	1	1	n/a	n/a	n/a	n/a	n/a
1090709	PROB	n/a	LTP285	ltpFR	11	n/a	n/a	n/a	n/a	n/a	n/a	9	4	2	1	n/a	n/a	n/a	n/a	n/a
1092317	PROB	n/a	LTP285	ltpFR	11	n/a	n/a	n/a	n/a	n/a	n/a	15	6	5	4	n/a	n/a	n/a	n/a	n/a
1093957	PROB	n/a	LTP285	ltpFR	11	n/a	n/a	n/a	n/a	n/a	n/a	14	3	3	8	n/a	n/a	n/a	n/a	n/a
1095309	PROB	n/a	LTP285	ltpFR	11	n/a	n/a	n/a	n/a	n/a	n/a	15	8	1	6	n/a	n/a	n/a	n/a	n/a
1097086	STOP	n/a	LTP285	ltpFR	11	n/a	n/a	n/a	n/a	n/a	n/a	n/a	n/a	n/a	n/a	n/a	n/a	n/a	n/a	n/a
1098574	WORD	wordpools/wasnorm_wordpool_less_exclusions.txt	LTP285	ltpFR	11	6	1	LIBRARY	816	n/a	0	n/a	0	0	0	0	0.5869140625	0.422607421875	lower	../fonts/amplitud.ttf
1101586	START	n/a	LTP285	ltpFR	11	n/a	n/a	n/a	n/a	n/a	n/a	n/a	n/a	n/a	n/a	n/a	n/a	n/a	n/a	n/a
1102537	PROB	n/a	LTP285	ltpFR	11	n/a	n/a	n/a	n/a	n/a	n/a	15	8	2	5	n/a	n/a	n/a	n/a	n/a
1103693	PROB	n/a	LTP285	ltpFR	11	n/a	n/a	n/a	n/a	n/a	n/a	24	9	7	8	n/a	n/a	n/a	n/a	n/a
1106403	PROB	n/a	LTP285	ltpFR	11	n/a	n/a	n/a	n/a	n/a	n/a	13	3	7	3	n/a	n/a	n/a	n/a	n/a
1107489	PROB	n/a	LTP285	ltpFR	11	n/a	n/a	n/a	n/a	n/a	n/a	13	3	9	1	n/a	n/a	n/a	n/a	n/a
1108930	PROB	n/a	LTP285	ltpFR	11	n/a	n/a	n/a	n/a	n/a	n/a	6	3	1	2	n/a	n/a	n/a	n/a	n/a
1110134	PROB	n/a	LTP285	ltpFR	11	n/a	n/a	n/a	n/a	n/a	n/a	16	9	6	1	n/a	n/a	n/a	n/a	n/a
1111623	PROB	n/a	LTP285	ltpFR	11	n/a	n/a	n/a	n/a	n/a	n/a	15	6	7	2	n/a	n/a	n/a	n/a	n/a
1113797	PROB	n/a	LTP285	ltpFR	11	n/a	n/a	n/a	n/a	n/a	n/a	20	4	7	9	n/a	n/a	n/a	n/a	n/a
1115790	PROB	n/a	LTP285	ltpFR	11	n/a	n/a	n/a	n/a	n/a	n/a	12	6	5	1	n/a	n/a	n/a	n/a	n/a
1117029	STOP	n/a	LTP285	ltpFR	11	n/a	n/a	n/a	n/a	n/a	n/a	n/a	n/a	n/a	n/a	n/a	n/a	n/a	n/a	n/a
1118432	WORD	wordpools/wasnorm_wordpool_less_exclusions.txt	LTP285	ltpFR	11	6	1	JEEP	753	n/a	0	n/a	0	0	0	0	0.5869140625	0.422607421875	lower	../fonts/amplitud.ttf
1121444	START	n/a	LTP285	ltpFR	11	n/a	n/a	n/a	n/a	n/a	n/a	n/a	n/a	n/a	n/a	n/a	n/a	n/a	n/a	n/a
1122631	PROB	n/a	LTP285	ltpFR	11	n/a	n/a	n/a	n/a	n/a	n/a	22	8	6	8	n/a	n/a	n/a	n/a	n/a
1125760	PROB	n/a	LTP285	ltpFR	11	n/a	n/a	n/a	n/a	n/a	n/a	16	9	3	4	n/a	n/a	n/a	n/a	n/a
1129006	PROB	n/a	LTP285	ltpFR	11	n/a	n/a	n/a	n/a	n/a	n/a	17	4	8	5	n/a	n/a	n/a	n/a	n/a
1130997	PROB	n/a	LTP285	ltpFR	11	n/a	n/a	n/a	n/a	n/a	n/a	16	2	8	6	n/a	n/a	n/a	n/a	n/a
1132215	PROB	n/a	LTP285	ltpFR	11	n/a	n/a	n/a	n/a	n/a	n/a	9	1	7	1	n/a	n/a	n/a	n/a	n/a
1133405	PROB	n/a	LTP285	ltpFR	11	n/a	n/a	n/a	n/a	n/a	n/a	14	7	5	2	n/a	n/a	n/a	n/a	n/a
1136693	STOP	n/a	LTP285	ltpFR	11	n/a	n/a	n/a	n/a	n/a	n/a	n/a	n/a	n/a	n/a	n/a	n/a	n/a	n/a	n/a
1138407	WORD	wordpools/wasnorm_wordpool_less_exclusions.txt	LTP285	ltpFR	11	6	0	LIEUTENANT	818	n/a	1	n/a	0	0	0	1	0.412841796875	0.57763671875	upper	../fonts/zerothre.ttf
1141419	START	n/a	LTP285	ltpFR	11	n/a	n/a	n/a	n/a	n/a	n/a	n/a	n/a	n/a	n/a	n/a	n/a	n/a	n/a	n/a
1142422	PROB	n/a	LTP285	ltpFR	11	n/a	n/a	n/a	n/a	n/a	n/a	16	7	4	5	n/a	n/a	n/a	n/a	n/a
1143692	PROB	n/a	LTP285	ltpFR	11	n/a	n/a	n/a	n/a	n/a	n/a	14	3	5	6	n/a	n/a	n/a	n/a	n/a
1146320	PROB	n/a	LTP285	ltpFR	11	n/a	n/a	n/a	n/a	n/a	n/a	12	4	6	2	n/a	n/a	n/a	n/a	n/a
1148545	PROB	n/a	LTP285	ltpFR	11	n/a	n/a	n/a	n/a	n/a	n/a	21	6	7	8	n/a	n/a	n/a	n/a	n/a
1151272	PROB	n/a	LTP285	ltpFR	11	n/a	n/a	n/a	n/a	n/a	n/a	25	8	9	8	n/a	n/a	n/a	n/a	n/a
1154033	PROB	n/a	LTP285	ltpFR	11	n/a	n/a	n/a	n/a	n/a	n/a	15	4	9	2	n/a	n/a	n/a	n/a	n/a
1156445	STOP	n/a	LTP285	ltpFR	11	n/a	n/a	n/a	n/a	n/a	n/a	n/a	n/a	n/a	n/a	n/a	n/a	n/a	n/a	n/a
1158449	WORD	wordpools/wasnorm_wordpool_less_exclusions.txt	LTP285	ltpFR	11	6	0	WITCH	1617	n/a	1	n/a	0	0	0	1	0.412841796875	0.57763671875	upper	../fonts/zerothre.ttf
1161461	START	n/a	LTP285	ltpFR	11	n/a	n/a	n/a	n/a	n/a	n/a	n/a	n/a	n/a	n/a	n/a	n/a	n/a	n/a	n/a
1162531	PROB	n/a	LTP285	ltpFR	11	n/a	n/a	n/a	n/a	n/a	n/a	1	8	4	7	n/a	n/a	n/a	n/a	n/a
1164269	PROB	n/a	LTP285	ltpFR	11	n/a	n/a	n/a	n/a	n/a	n/a	15	6	8	1	n/a	n/a	n/a	n/a	n/a
1166310	PROB	n/a	LTP285	ltpFR	11	n/a	n/a	n/a	n/a	n/a	n/a	16	6	8	2	n/a	n/a	n/a	n/a	n/a
1167852	PROB	n/a	LTP285	ltpFR	11	n/a	n/a	n/a	n/a	n/a	n/a	15	6	7	2	n/a	n/a	n/a	n/a	n/a
1170074	PROB	n/a	LTP285	ltpFR	11	n/a	n/a	n/a	n/a	n/a	n/a	10	4	3	3	n/a	n/a	n/a	n/a	n/a
1172366	PROB	n/a	LTP285	ltpFR	11	n/a	n/a	n/a	n/a	n/a	n/a	15	8	4	3	n/a	n/a	n/a	n/a	n/a
1173775	PROB	n/a	LTP285	ltpFR	11	n/a	n/a	n/a	n/a	n/a	n/a	12	1	5	6	n/a	n/a	n/a	n/a	n/a
1175095	PROB	n/a	LTP285	ltpFR	11	n/a	n/a	n/a	n/a	n/a	n/a	16	5	4	6	n/a	n/a	n/a	n/a	n/a
1176253	STOP	n/a	LTP285	ltpFR	11	n/a	n/a	n/a	n/a	n/a	n/a	n/a	n/a	n/a	n/a	n/a	n/a	n/a	n/a	n/a
1178508	WORD	wordpools/wasnorm_wordpool_less_exclusions.txt	LTP285	ltpFR	11	6	1	BARK	87	n/a	0	n/a	0	0	0	0	0.5869140625	0.422607421875	lower	../fonts/amplitud.ttf
1181520	START	n/a	LTP285	ltpFR	11	n/a	n/a	n/a	n/a	n/a	n/a	n/a	n/a	n/a	n/a	n/a	n/a	n/a	n/a	n/a
1182507	PROB	n/a	LTP285	ltpFR	11	n/a	n/a	n/a	n/a	n/a	n/a	16	5	7	4	n/a	n/a	n/a	n/a	n/a
1184646	PROB	n/a	LTP285	ltpFR	11	n/a	n/a	n/a	n/a	n/a	n/a	16	7	4	5	n/a	n/a	n/a	n/a	n/a
1186051	PROB	n/a	LTP285	ltpFR	11	n/a	n/a	n/a	n/a	n/a	n/a	15	9	3	5	n/a	n/a	n/a	n/a	n/a
1188059	PROB	n/a	LTP285	ltpFR	11	n/a	n/a	n/a	n/a	n/a	n/a	19	9	8	2	n/a	n/a	n/a	n/a	n/a
1189768	PROB	n/a	LTP285	ltpFR	11	n/a	n/a	n/a	n/a	n/a	n/a	15	5	1	9	n/a	n/a	n/a	n/a	n/a
1191106	PROB	n/a	LTP285	ltpFR	11	n/a	n/a	n/a	n/a	n/a	n/a	15	5	1	9	n/a	n/a	n/a	n/a	n/a
1192174	PROB	n/a	LTP285	ltpFR	11	n/a	n/a	n/a	n/a	n/a	n/a	13	4	5	4	n/a	n/a	n/a	n/a	n/a
1195071	PROB	n/a	LTP285	ltpFR	11	n/a	n/a	n/a	n/a	n/a	n/a	4	2	1	1	n/a	n/a	n/a	n/a	n/a
1196014	STOP	n/a	LTP285	ltpFR	11	n/a	n/a	n/a	n/a	n/a	n/a	n/a	n/a	n/a	n/a	n/a	n/a	n/a	n/a	n/a
1198735	WORD	wordpools/wasnorm_wordpool_less_exclusions.txt	LTP285	ltpFR	11	6	1	THERMOMETER	1453	n/a	0	n/a	0	0	0	0	0.5869140625	0.422607421875	lower	../fonts/amplitud.ttf
1201748	START	n/a	LTP285	ltpFR	11	n/a	n/a	n/a	n/a	n/a	n/a	n/a	n/a	n/a	n/a	n/a	n/a	n/a	n/a	n/a
1202918	PROB	n/a	LTP285	ltpFR	11	n/a	n/a	n/a	n/a	n/a	n/a	23	6	9	8	n/a	n/a	n/a	n/a	n/a
1205309	PROB	n/a	LTP285	ltpFR	11	n/a	n/a	n/a	n/a	n/a	n/a	14	2	6	6	n/a	n/a	n/a	n/a	n/a
1207568	PROB	n/a	LTP285	ltpFR	11	n/a	n/a	n/a	n/a	n/a	n/a	24	9	6	9	n/a	n/a	n/a	n/a	n/a
1209961	PROB	n/a	LTP285	ltpFR	11	n/a	n/a	n/a	n/a	n/a	n/a	23	7	5	6	n/a	n/a	n/a	n/a	n/a
1212922	PROB	n/a	LTP285	ltpFR	11	n/a	n/a	n/a	n/a	n/a	n/a	17	6	2	9	n/a	n/a	n/a	n/a	n/a
1214878	PROB	n/a	LTP285	ltpFR	11	n/a	n/a	n/a	n/a	n/a	n/a	20	5	8	7	n/a	n/a	n/a	n/a	n/a
1217333	STOP	n/a	LTP285	ltpFR	11	n/a	n/a	n/a	n/a	n/a	n/a	n/a	n/a	n/a	n/a	n/a	n/a	n/a	n/a	n/a
1218845	WORD	wordpools/wasnorm_wordpool_less_exclusions.txt	LTP285	ltpFR	11	6	1	CANAL	226	n/a	0	n/a	0	0	0	0	0.5869140625	0.422607421875	lower	../fonts/amplitud.ttf
1221857	START	n/a	LTP285	ltpFR	11	n/a	n/a	n/a	n/a	n/a	n/a	n/a	n/a	n/a	n/a	n/a	n/a	n/a	n/a	n/a
1222793	PROB	n/a	LTP285	ltpFR	11	n/a	n/a	n/a	n/a	n/a	n/a	6	2	2	2	n/a	n/a	n/a	n/a	n/a
1223830	PROB	n/a	LTP285	ltpFR	11	n/a	n/a	n/a	n/a	n/a	n/a	12	1	6	5	n/a	n/a	n/a	n/a	n/a
1225218	PROB	n/a	LTP285	ltpFR	11	n/a	n/a	n/a	n/a	n/a	n/a	8	5	1	2	n/a	n/a	n/a	n/a	n/a
1227325	PROB	n/a	LTP285	ltpFR	11	n/a	n/a	n/a	n/a	n/a	n/a	11	5	5	1	n/a	n/a	n/a	n/a	n/a
1228361	PROB	n/a	LTP285	ltpFR	11	n/a	n/a	n/a	n/a	n/a	n/a	11	3	2	6	n/a	n/a	n/a	n/a	n/a
1229736	PROB	n/a	LTP285	ltpFR	11	n/a	n/a	n/a	n/a	n/a	n/a	17	7	3	7	n/a	n/a	n/a	n/a	n/a
1231024	PROB	n/a	LTP285	ltpFR	11	n/a	n/a	n/a	n/a	n/a	n/a	16	8	4	4	n/a	n/a	n/a	n/a	n/a
1233950	PROB	n/a	LTP285	ltpFR	11	n/a	n/a	n/a	n/a	n/a	n/a	23	9	5	9	n/a	n/a	n/a	n/a	n/a
1236389	STOP	n/a	LTP285	ltpFR	11	n/a	n/a	n/a	n/a	n/a	n/a	n/a	n/a	n/a	n/a	n/a	n/a	n/a	n/a	n/a
1238987	WORD	wordpools/wasnorm_wordpool_less_exclusions.txt	LTP285	ltpFR	11	6	1	SPRINKLE	1359	n/a	0	n/a	0	0	0	0	0.5869140625	0.422607421875	lower	../fonts/amplitud.ttf
1241999	START	n/a	LTP285	ltpFR	11	n/a	n/a	n/a	n/a	n/a	n/a	n/a	n/a	n/a	n/a	n/a	n/a	n/a	n/a	n/a
1243150	PROB	n/a	LTP285	ltpFR	11	n/a	n/a	n/a	n/a	n/a	n/a	18	8	7	3	n/a	n/a	n/a	n/a	n/a
1244457	PROB	n/a	LTP285	ltpFR	11	n/a	n/a	n/a	n/a	n/a	n/a	23	9	6	7	n/a	n/a	n/a	n/a	n/a
1246364	PROB	n/a	LTP285	ltpFR	11	n/a	n/a	n/a	n/a	n/a	n/a	12	1	8	3	n/a	n/a	n/a	n/a	n/a
1248054	PROB	n/a	LTP285	ltpFR	11	n/a	n/a	n/a	n/a	n/a	n/a	18	4	6	8	n/a	n/a	n/a	n/a	n/a
1249175	PROB	n/a	LTP285	ltpFR	11	n/a	n/a	n/a	n/a	n/a	n/a	19	6	4	9	n/a	n/a	n/a	n/a	n/a
1251030	PROB	n/a	LTP285	ltpFR	11	n/a	n/a	n/a	n/a	n/a	n/a	9	3	4	2	n/a	n/a	n/a	n/a	n/a
1252585	PROB	n/a	LTP285	ltpFR	11	n/a	n/a	n/a	n/a	n/a	n/a	22	6	8	8	n/a	n/a	n/a	n/a	n/a
1254076	PROB	n/a	LTP285	ltpFR	11	n/a	n/a	n/a	n/a	n/a	n/a	19	9	5	5	n/a	n/a	n/a	n/a	n/a
1255413	PROB	n/a	LTP285	ltpFR	11	n/a	n/a	n/a	n/a	n/a	n/a	3	7	8	1	n/a	n/a	n/a	n/a	n/a
1257037	STOP	n/a	LTP285	ltpFR	11	n/a	n/a	n/a	n/a	n/a	n/a	n/a	n/a	n/a	n/a	n/a	n/a	n/a	n/a	n/a
1258829	WORD	wordpools/wasnorm_wordpool_less_exclusions.txt	LTP285	ltpFR	11	6	0	UMPIRE	1535	n/a	1	n/a	0	0	0	1	0.412841796875	0.57763671875	upper	../fonts/zerothre.ttf
1261841	START	n/a	LTP285	ltpFR	11	n/a	n/a	n/a	n/a	n/a	n/a	n/a	n/a	n/a	n/a	n/a	n/a	n/a	n/a	n/a
1262894	PROB	n/a	LTP285	ltpFR	11	n/a	n/a	n/a	n/a	n/a	n/a	23	9	8	7	n/a	n/a	n/a	n/a	n/a
1265855	PROB	n/a	LTP285	ltpFR	11	n/a	n/a	n/a	n/a	n/a	n/a	13	2	8	3	n/a	n/a	n/a	n/a	n/a
1267075	PROB	n/a	LTP285	ltpFR	11	n/a	n/a	n/a	n/a	n/a	n/a	8	3	2	3	n/a	n/a	n/a	n/a	n/a
1269284	PROB	n/a	LTP285	ltpFR	11	n/a	n/a	n/a	n/a	n/a	n/a	17	2	6	9	n/a	n/a	n/a	n/a	n/a
1270857	PROB	n/a	LTP285	ltpFR	11	n/a	n/a	n/a	n/a	n/a	n/a	15	1	8	6	n/a	n/a	n/a	n/a	n/a
1272379	PROB	n/a	LTP285	ltpFR	11	n/a	n/a	n/a	n/a	n/a	n/a	8	1	4	3	n/a	n/a	n/a	n/a	n/a
1274739	PROB	n/a	LTP285	ltpFR	11	n/a	n/a	n/a	n/a	n/a	n/a	14	4	6	4	n/a	n/a	n/a	n/a	n/a
1275809	PROB	n/a	LTP285	ltpFR	11	n/a	n/a	n/a	n/a	n/a	n/a	13	7	5	1	n/a	n/a	n/a	n/a	n/a
1277293	STOP	n/a	LTP285	ltpFR	11	n/a	n/a	n/a	n/a	n/a	n/a	n/a	n/a	n/a	n/a	n/a	n/a	n/a	n/a	n/a
1278837	WORD	wordpools/wasnorm_wordpool_less_exclusions.txt	LTP285	ltpFR	11	6	0	BLOSSOM	138	n/a	0	n/a	0	0	0	1	0.412841796875	0.57763671875	upper	../fonts/zerothre.ttf
1281849	START	n/a	LTP285	ltpFR	11	n/a	n/a	n/a	n/a	n/a	n/a	n/a	n/a	n/a	n/a	n/a	n/a	n/a	n/a	n/a
1282903	PROB	n/a	LTP285	ltpFR	11	n/a	n/a	n/a	n/a	n/a	n/a	1	7	2	8	n/a	n/a	n/a	n/a	n/a
1284456	PROB	n/a	LTP285	ltpFR	11	n/a	n/a	n/a	n/a	n/a	n/a	17	8	7	2	n/a	n/a	n/a	n/a	n/a
1287065	PROB	n/a	LTP285	ltpFR	11	n/a	n/a	n/a	n/a	n/a	n/a	19	6	8	5	n/a	n/a	n/a	n/a	n/a
1289711	PROB	n/a	LTP285	ltpFR	11	n/a	n/a	n/a	n/a	n/a	n/a	19	7	8	4	n/a	n/a	n/a	n/a	n/a
1292454	PROB	n/a	LTP285	ltpFR	11	n/a	n/a	n/a	n/a	n/a	n/a	6	2	3	1	n/a	n/a	n/a	n/a	n/a
1293692	PROB	n/a	LTP285	ltpFR	11	n/a	n/a	n/a	n/a	n/a	n/a	14	7	1	6	n/a	n/a	n/a	n/a	n/a
1295549	PROB	n/a	LTP285	ltpFR	11	n/a	n/a	n/a	n/a	n/a	n/a	11	2	5	4	n/a	n/a	n/a	n/a	n/a
1297134	STOP	n/a	LTP285	ltpFR	11	n/a	n/a	n/a	n/a	n/a	n/a	n/a	n/a	n/a	n/a	n/a	n/a	n/a	n/a	n/a
1298997	WORD	wordpools/wasnorm_wordpool_less_exclusions.txt	LTP285	ltpFR	11	6	0	DAISY	435	n/a	0	n/a	0	0	0	1	0.412841796875	0.57763671875	upper	../fonts/zerothre.ttf
1302009	START	n/a	LTP285	ltpFR	11	n/a	n/a	n/a	n/a	n/a	n/a	n/a	n/a	n/a	n/a	n/a	n/a	n/a	n/a	n/a
1303061	PROB	n/a	LTP285	ltpFR	11	n/a	n/a	n/a	n/a	n/a	n/a	15	6	5	4	n/a	n/a	n/a	n/a	n/a
1304550	PROB	n/a	LTP285	ltpFR	11	n/a	n/a	n/a	n/a	n/a	n/a	23	8	8	7	n/a	n/a	n/a	n/a	n/a
1306189	PROB	n/a	LTP285	ltpFR	11	n/a	n/a	n/a	n/a	n/a	n/a	21	9	8	4	n/a	n/a	n/a	n/a	n/a
1308046	PROB	n/a	LTP285	ltpFR	11	n/a	n/a	n/a	n/a	n/a	n/a	14	6	1	7	n/a	n/a	n/a	n/a	n/a
1309737	PROB	n/a	LTP285	ltpFR	11	n/a	n/a	n/a	n/a	n/a	n/a	3	6	2	5	n/a	n/a	n/a	n/a	n/a
1313281	PROB	n/a	LTP285	ltpFR	11	n/a	n/a	n/a	n/a	n/a	n/a	10	3	3	4	n/a	n/a	n/a	n/a	n/a
1314856	PROB	n/a	LTP285	ltpFR	11	n/a	n/a	n/a	n/a	n/a	n/a	6	1	4	1	n/a	n/a	n/a	n/a	n/a
1318009	STOP	n/a	LTP285	ltpFR	11	n/a	n/a	n/a	n/a	n/a	n/a	n/a	n/a	n/a	n/a	n/a	n/a	n/a	n/a	n/a
1319105	WORD	wordpools/wasnorm_wordpool_less_exclusions.txt	LTP285	ltpFR	11	6	0	PUPPY	1144	n/a	1	n/a	0	0	0	1	0.412841796875	0.57763671875	upper	../fonts/zerothre.ttf
1322117	START	n/a	LTP285	ltpFR	11	n/a	n/a	n/a	n/a	n/a	n/a	n/a	n/a	n/a	n/a	n/a	n/a	n/a	n/a	n/a
1323118	PROB	n/a	LTP285	ltpFR	11	n/a	n/a	n/a	n/a	n/a	n/a	18	7	5	6	n/a	n/a	n/a	n/a	n/a
1325560	PROB	n/a	LTP285	ltpFR	11	n/a	n/a	n/a	n/a	n/a	n/a	16	6	7	3	n/a	n/a	n/a	n/a	n/a
1327118	PROB	n/a	LTP285	ltpFR	11	n/a	n/a	n/a	n/a	n/a	n/a	9	1	7	2	n/a	n/a	n/a	n/a	n/a
1328774	PROB	n/a	LTP285	ltpFR	11	n/a	n/a	n/a	n/a	n/a	n/a	13	3	6	5	n/a	n/a	n/a	n/a	n/a
1331001	PROB	n/a	LTP285	ltpFR	11	n/a	n/a	n/a	n/a	n/a	n/a	12	2	1	9	n/a	n/a	n/a	n/a	n/a
1332639	PROB	n/a	LTP285	ltpFR	11	n/a	n/a	n/a	n/a	n/a	n/a	11	9	2	2	n/a	n/a	n/a	n/a	n/a
1334746	PROB	n/a	LTP285	ltpFR	11	n/a	n/a	n/a	n/a	n/a	n/a	15	5	7	3	n/a	n/a	n/a	n/a	n/a
1336100	PROB	n/a	LTP285	ltpFR	11	n/a	n/a	n/a	n/a	n/a	n/a	19	9	8	2	n/a	n/a	n/a	n/a	n/a
1337637	STOP	n/a	LTP285	ltpFR	11	n/a	n/a	n/a	n/a	n/a	n/a	n/a	n/a	n/a	n/a	n/a	n/a	n/a	n/a	n/a
1339314	WORD	wordpools/wasnorm_wordpool_less_exclusions.txt	LTP285	ltpFR	11	6	0	VISITOR	1573	n/a	1	n/a	0	0	0	1	0.412841796875	0.57763671875	upper	../fonts/zerothre.ttf
1342326	START	n/a	LTP285	ltpFR	11	n/a	n/a	n/a	n/a	n/a	n/a	n/a	n/a	n/a	n/a	n/a	n/a	n/a	n/a	n/a
1343480	PROB	n/a	LTP285	ltpFR	11	n/a	n/a	n/a	n/a	n/a	n/a	16	2	9	5	n/a	n/a	n/a	n/a	n/a
1345302	PROB	n/a	LTP285	ltpFR	11	n/a	n/a	n/a	n/a	n/a	n/a	14	2	5	7	n/a	n/a	n/a	n/a	n/a
1347462	PROB	n/a	LTP285	ltpFR	11	n/a	n/a	n/a	n/a	n/a	n/a	10	1	8	1	n/a	n/a	n/a	n/a	n/a
1348581	PROB	n/a	LTP285	ltpFR	11	n/a	n/a	n/a	n/a	n/a	n/a	15	8	2	5	n/a	n/a	n/a	n/a	n/a
1349687	PROB	n/a	LTP285	ltpFR	11	n/a	n/a	n/a	n/a	n/a	n/a	4	1	1	2	n/a	n/a	n/a	n/a	n/a
1350758	PROB	n/a	LTP285	ltpFR	11	n/a	n/a	n/a	n/a	n/a	n/a	9	1	4	4	n/a	n/a	n/a	n/a	n/a
1352280	PROB	n/a	LTP285	ltpFR	11	n/a	n/a	n/a	n/a	n/a	n/a	11	4	6	1	n/a	n/a	n/a	n/a	n/a
1353265	PROB	n/a	LTP285	ltpFR	11	n/a	n/a	n/a	n/a	n/a	n/a	15	1	9	5	n/a	n/a	n/a	n/a	n/a
1354252	PROB	n/a	LTP285	ltpFR	11	n/a	n/a	n/a	n/a	n/a	n/a	8	1	3	4	n/a	n/a	n/a	n/a	n/a
1355744	PROB	n/a	LTP285	ltpFR	11	n/a	n/a	n/a	n/a	n/a	n/a	9	2	2	5	n/a	n/a	n/a	n/a	n/a
1356934	STOP	n/a	LTP285	ltpFR	11	n/a	n/a	n/a	n/a	n/a	n/a	n/a	n/a	n/a	n/a	n/a	n/a	n/a	n/a	n/a
1359223	WORD	wordpools/wasnorm_wordpool_less_exclusions.txt	LTP285	ltpFR	11	6	0	HELMET	702	n/a	1	n/a	0	0	0	1	0.412841796875	0.57763671875	upper	../fonts/zerothre.ttf
1362234	START	n/a	LTP285	ltpFR	11	n/a	n/a	n/a	n/a	n/a	n/a	n/a	n/a	n/a	n/a	n/a	n/a	n/a	n/a	n/a
1363355	PROB	n/a	LTP285	ltpFR	11	n/a	n/a	n/a	n/a	n/a	n/a	11	7	2	2	n/a	n/a	n/a	n/a	n/a
1365010	PROB	n/a	LTP285	ltpFR	11	n/a	n/a	n/a	n/a	n/a	n/a	14	4	3	7	n/a	n/a	n/a	n/a	n/a
1366649	PROB	n/a	LTP285	ltpFR	11	n/a	n/a	n/a	n/a	n/a	n/a	18	6	4	8	n/a	n/a	n/a	n/a	n/a
1367990	PROB	n/a	LTP285	ltpFR	11	n/a	n/a	n/a	n/a	n/a	n/a	14	6	7	1	n/a	n/a	n/a	n/a	n/a
1370130	PROB	n/a	LTP285	ltpFR	11	n/a	n/a	n/a	n/a	n/a	n/a	22	6	9	7	n/a	n/a	n/a	n/a	n/a
1372372	PROB	n/a	LTP285	ltpFR	11	n/a	n/a	n/a	n/a	n/a	n/a	16	8	6	2	n/a	n/a	n/a	n/a	n/a
1373560	PROB	n/a	LTP285	ltpFR	11	n/a	n/a	n/a	n/a	n/a	n/a	12	1	6	5	n/a	n/a	n/a	n/a	n/a
1378221	STOP	n/a	LTP285	ltpFR	11	n/a	n/a	n/a	n/a	n/a	n/a	n/a	n/a	n/a	n/a	n/a	n/a	n/a	n/a	n/a
1380085	REC_START	n/a	LTP285	ltpFR	11	6	n/a	n/a	n/a	n/a	n/a	n/a	0	0	0	n/a	n/a	n/a	n/a	n/a
1381177	REC_WORD	wordpools/wasnorm_wordpool_less_exclusions.txt	LTP285	ltpFR	11	6	0	BLOSSOM	138	n/a	0	n/a	0	0	0	n/a	n/a	n/a	n/a	n/a
1384581	REC_WORD	wordpools/wasnorm_wordpool_less_exclusions.txt	LTP285	ltpFR	11	6	0	DAISY	435	n/a	0	n/a	0	0	0	n/a	n/a	n/a	n/a	n/a
1386501	REC_WORD	wordpools/wasnorm_wordpool_less_exclusions.txt	LTP285	ltpFR	11	6	0	UMPIRE	1535	n/a	1	n/a	0	0	0	n/a	n/a	n/a	n/a	n/a
1388389	REC_WORD	wordpools/wasnorm_wordpool_less_exclusions.txt	LTP285	ltpFR	11	6	0	HELMET	702	n/a	1	n/a	0	0	0	n/a	n/a	n/a	n/a	n/a
1390010	REC_WORD	wordpools/wasnorm_wordpool_less_exclusions.txt	LTP285	ltpFR	11	6	0	LIEUTENANT	818	n/a	1	n/a	0	0	0	n/a	n/a	n/a	n/a	n/a
1425158	REC_WORD	wordpools/wasnorm_wordpool_less_exclusions.txt	LTP285	ltpFR	11	6	0	PUPPY	1144	n/a	1	n/a	0	0	0	n/a	n/a	n/a	n/a	n/a
1446698	REC_WORD	wordpools/wasnorm_wordpool_less_exclusions.txt	LTP285	ltpFR	11	6	1	BARK	87	n/a	0	n/a	0	0	0	n/a	n/a	n/a	n/a	n/a
1455754	REST_REWET	n/a	LTP285	ltpFR	11	6	n/a	n/a	n/a	n/a	n/a	n/a	0	0	0	n/a	n/a	n/a	n/a	n/a
1819793	START	n/a	LTP285	ltpFR	11	n/a	n/a	n/a	n/a	n/a	n/a	n/a	n/a	n/a	n/a	n/a	n/a	n/a	n/a	n/a
1821297	PROB	n/a	LTP285	ltpFR	11	n/a	n/a	n/a	n/a	n/a	n/a	14	3	5	6	n/a	n/a	n/a	n/a	n/a
1823688	PROB	n/a	LTP285	ltpFR	11	n/a	n/a	n/a	n/a	n/a	n/a	12	2	8	2	n/a	n/a	n/a	n/a	n/a
1825062	PROB	n/a	LTP285	ltpFR	11	n/a	n/a	n/a	n/a	n/a	n/a	15	3	9	3	n/a	n/a	n/a	n/a	n/a
1826694	STOP	n/a	LTP285	ltpFR	11	n/a	n/a	n/a	n/a	n/a	n/a	n/a	n/a	n/a	n/a	n/a	n/a	n/a	n/a	n/a
1828827	WORD	wordpools/wasnorm_wordpool_less_exclusions.txt	LTP285	ltpFR	11	7	1	ROOST	1208	n/a	0	n/a	0	0	0	0	0.5869140625	0.422607421875	lower	../fonts/amplitud.ttf
1831839	START	n/a	LTP285	ltpFR	11	n/a	n/a	n/a	n/a	n/a	n/a	n/a	n/a	n/a	n/a	n/a	n/a	n/a	n/a	n/a
1832825	PROB	n/a	LTP285	ltpFR	11	n/a	n/a	n/a	n/a	n/a	n/a	14	4	5	8	n/a	n/a	n/a	n/a	n/a
1834664	PROB	n/a	LTP285	ltpFR	11	n/a	n/a	n/a	n/a	n/a	n/a	24	9	8	9	n/a	n/a	n/a	n/a	n/a
1838815	STOP	n/a	LTP285	ltpFR	11	n/a	n/a	n/a	n/a	n/a	n/a	n/a	n/a	n/a	n/a	n/a	n/a	n/a	n/a	n/a
1841053	WORD	wordpools/wasnorm_wordpool_less_exclusions.txt	LTP285	ltpFR	11	7	1	ROOSTER	1209	n/a	1	n/a	0	0	0	0	0.5869140625	0.422607421875	lower	../fonts/amplitud.ttf
1844067	START	n/a	LTP285	ltpFR	11	n/a	n/a	n/a	n/a	n/a	n/a	n/a	n/a	n/a	n/a	n/a	n/a	n/a	n/a	n/a
1845005	PROB	n/a	LTP285	ltpFR	11	n/a	n/a	n/a	n/a	n/a	n/a	17	3	8	5	n/a	n/a	n/a	n/a	n/a
1847210	PROB	n/a	LTP285	ltpFR	11	n/a	n/a	n/a	n/a	n/a	n/a	14	4	6	4	n/a	n/a	n/a	n/a	n/a
1848752	PROB	n/a	LTP285	ltpFR	11	n/a	n/a	n/a	n/a	n/a	n/a	18	8	5	5	n/a	n/a	n/a	n/a	n/a
1852067	STOP	n/a	LTP285	ltpFR	11	n/a	n/a	n/a	n/a	n/a	n/a	n/a	n/a	n/a	n/a	n/a	n/a	n/a	n/a	n/a
1853034	WORD	wordpools/wasnorm_wordpool_less_exclusions.txt	LTP285	ltpFR	11	7	1	BRACELET	163	n/a	0	n/a	0	0	0	0	0.5869140625	0.422607421875	lower	../fonts/amplitud.ttf
1856046	START	n/a	LTP285	ltpFR	11	n/a	n/a	n/a	n/a	n/a	n/a	n/a	n/a	n/a	n/a	n/a	n/a	n/a	n/a	n/a
1857250	PROB	n/a	LTP285	ltpFR	11	n/a	n/a	n/a	n/a	n/a	n/a	16	5	3	8	n/a	n/a	n/a	n/a	n/a
1858538	PROB	n/a	LTP285	ltpFR	11	n/a	n/a	n/a	n/a	n/a	n/a	11	3	2	6	n/a	n/a	n/a	n/a	n/a
1860259	PROB	n/a	LTP285	ltpFR	11	n/a	n/a	n/a	n/a	n/a	n/a	14	4	4	6	n/a	n/a	n/a	n/a	n/a
1861315	PROB	n/a	LTP285	ltpFR	11	n/a	n/a	n/a	n/a	n/a	n/a	19	6	7	6	n/a	n/a	n/a	n/a	n/a
1862862	STOP	n/a	LTP285	ltpFR	11	n/a	n/a	n/a	n/a	n/a	n/a	n/a	n/a	n/a	n/a	n/a	n/a	n/a	n/a	n/a
1864996	WORD	wordpools/wasnorm_wordpool_less_exclusions.txt	LTP285	ltpFR	11	7	1	TEACHER	1440	n/a	1	n/a	0	0	0	0	0.5869140625	0.422607421875	lower	../fonts/amplitud.ttf
1868009	START	n/a	LTP285	ltpFR	11	n/a	n/a	n/a	n/a	n/a	n/a	n/a	n/a	n/a	n/a	n/a	n/a	n/a	n/a	n/a
1868894	PROB	n/a	LTP285	ltpFR	11	n/a	n/a	n/a	n/a	n/a	n/a	13	4	1	8	n/a	n/a	n/a	n/a	n/a
1870917	PROB	n/a	LTP285	ltpFR	11	n/a	n/a	n/a	n/a	n/a	n/a	16	6	7	3	n/a	n/a	n/a	n/a	n/a
1872290	PROB	n/a	LTP285	ltpFR	11	n/a	n/a	n/a	n/a	n/a	n/a	24	9	9	6	n/a	n/a	n/a	n/a	n/a
1875165	STOP	n/a	LTP285	ltpFR	11	n/a	n/a	n/a	n/a	n/a	n/a	n/a	n/a	n/a	n/a	n/a	n/a	n/a	n/a	n/a
1876992	WORD	wordpools/wasnorm_wordpool_less_exclusions.txt	LTP285	ltpFR	11	7	0	LAWYER	806	n/a	1	n/a	0	0	0	1	0.412841796875	0.57763671875	upper	../fonts/zerothre.ttf
1880004	START	n/a	LTP285	ltpFR	11	n/a	n/a	n/a	n/a	n/a	n/a	n/a	n/a	n/a	n/a	n/a	n/a	n/a	n/a	n/a
1880923	PROB	n/a	LTP285	ltpFR	11	n/a	n/a	n/a	n/a	n/a	n/a	15	5	6	4	n/a	n/a	n/a	n/a	n/a
1882192	PROB	n/a	LTP285	ltpFR	11	n/a	n/a	n/a	n/a	n/a	n/a	4	1	2	1	n/a	n/a	n/a	n/a	n/a
1883432	PROB	n/a	LTP285	ltpFR	11	n/a	n/a	n/a	n/a	n/a	n/a	13	7	4	2	n/a	n/a	n/a	n/a	n/a
1885054	PROB	n/a	LTP285	ltpFR	11	n/a	n/a	n/a	n/a	n/a	n/a	17	2	9	6	n/a	n/a	n/a	n/a	n/a
1886678	STOP	n/a	LTP285	ltpFR	11	n/a	n/a	n/a	n/a	n/a	n/a	n/a	n/a	n/a	n/a	n/a	n/a	n/a	n/a	n/a
1889086	WORD	wordpools/wasnorm_wordpool_less_exclusions.txt	LTP285	ltpFR	11	7	0	WIRE	1616	n/a	0	n/a	0	0	0	1	0.412841796875	0.57763671875	upper	../fonts/zerothre.ttf
1892098	START	n/a	LTP285	ltpFR	11	n/a	n/a	n/a	n/a	n/a	n/a	n/a	n/a	n/a	n/a	n/a	n/a	n/a	n/a	n/a
1893285	PROB	n/a	LTP285	ltpFR	11	n/a	n/a	n/a	n/a	n/a	n/a	10	1	7	2	n/a	n/a	n/a	n/a	n/a
1895930	PROB	n/a	LTP285	ltpFR	11	n/a	n/a	n/a	n/a	n/a	n/a	10	3	6	1	n/a	n/a	n/a	n/a	n/a
1898815	STOP	n/a	LTP285	ltpFR	11	n/a	n/a	n/a	n/a	n/a	n/a	n/a	n/a	n/a	n/a	n/a	n/a	n/a	n/a	n/a
1901048	WORD	wordpools/wasnorm_wordpool_less_exclusions.txt	LTP285	ltpFR	11	7	0	SOCKET	1340	n/a	0	n/a	0	0	0	1	0.412841796875	0.57763671875	upper	../fonts/zerothre.ttf
1904060	START	n/a	LTP285	ltpFR	11	n/a	n/a	n/a	n/a	n/a	n/a	n/a	n/a	n/a	n/a	n/a	n/a	n/a	n/a	n/a
1904930	PROB	n/a	LTP285	ltpFR	11	n/a	n/a	n/a	n/a	n/a	n/a	25	8	8	9	n/a	n/a	n/a	n/a	n/a
1908390	PROB	n/a	LTP285	ltpFR	11	n/a	n/a	n/a	n/a	n/a	n/a	10	1	3	6	n/a	n/a	n/a	n/a	n/a
1912046	STOP	n/a	LTP285	ltpFR	11	n/a	n/a	n/a	n/a	n/a	n/a	n/a	n/a	n/a	n/a	n/a	n/a	n/a	n/a	n/a
1913177	WORD	wordpools/wasnorm_wordpool_less_exclusions.txt	LTP285	ltpFR	11	7	0	ARTIST	43	n/a	1	n/a	0	0	0	1	0.412841796875	0.57763671875	upper	../fonts/zerothre.ttf
1916189	START	n/a	LTP285	ltpFR	11	n/a	n/a	n/a	n/a	n/a	n/a	n/a	n/a	n/a	n/a	n/a	n/a	n/a	n/a	n/a
1917242	PROB	n/a	LTP285	ltpFR	11	n/a	n/a	n/a	n/a	n/a	n/a	16	9	6	1	n/a	n/a	n/a	n/a	n/a
1919049	PROB	n/a	LTP285	ltpFR	11	n/a	n/a	n/a	n/a	n/a	n/a	11	4	1	6	n/a	n/a	n/a	n/a	n/a
1920486	PROB	n/a	LTP285	ltpFR	11	n/a	n/a	n/a	n/a	n/a	n/a	17	5	4	8	n/a	n/a	n/a	n/a	n/a
1922393	PROB	n/a	LTP285	ltpFR	11	n/a	n/a	n/a	n/a	n/a	n/a	13	1	3	9	n/a	n/a	n/a	n/a	n/a
1924126	STOP	n/a	LTP285	ltpFR	11	n/a	n/a	n/a	n/a	n/a	n/a	n/a	n/a	n/a	n/a	n/a	n/a	n/a	n/a	n/a
1925122	WORD	wordpools/wasnorm_wordpool_less_exclusions.txt	LTP285	ltpFR	11	7	1	GRADUATE	653	n/a	1	n/a	0	0	0	0	0.5869140625	0.422607421875	lower	../fonts/amplitud.ttf
1928134	START	n/a	LTP285	ltpFR	11	n/a	n/a	n/a	n/a	n/a	n/a	n/a	n/a	n/a	n/a	n/a	n/a	n/a	n/a	n/a
1929238	PROB	n/a	LTP285	ltpFR	11	n/a	n/a	n/a	n/a	n/a	n/a	20	9	5	6	n/a	n/a	n/a	n/a	n/a
1931243	PROB	n/a	LTP285	ltpFR	11	n/a	n/a	n/a	n/a	n/a	n/a	12	4	4	3	n/a	n/a	n/a	n/a	n/a
1932667	PROB	n/a	LTP285	ltpFR	11	n/a	n/a	n/a	n/a	n/a	n/a	11	1	8	2	n/a	n/a	n/a	n/a	n/a
1934405	PROB	n/a	LTP285	ltpFR	11	n/a	n/a	n/a	n/a	n/a	n/a	15	5	3	7	n/a	n/a	n/a	n/a	n/a
1935653	STOP	n/a	LTP285	ltpFR	11	n/a	n/a	n/a	n/a	n/a	n/a	n/a	n/a	n/a	n/a	n/a	n/a	n/a	n/a	n/a
1937218	WORD	wordpools/wasnorm_wordpool_less_exclusions.txt	LTP285	ltpFR	11	7	1	SKETCH	1315	n/a	0	n/a	0	0	0	0	0.5869140625	0.422607421875	lower	../fonts/amplitud.ttf
1940230	START	n/a	LTP285	ltpFR	11	n/a	n/a	n/a	n/a	n/a	n/a	n/a	n/a	n/a	n/a	n/a	n/a	n/a	n/a	n/a
1941233	PROB	n/a	LTP285	ltpFR	11	n/a	n/a	n/a	n/a	n/a	n/a	12	3	3	6	n/a	n/a	n/a	n/a	n/a
1943205	PROB	n/a	LTP285	ltpFR	11	n/a	n/a	n/a	n/a	n/a	n/a	21	9	6	3	n/a	n/a	n/a	n/a	n/a
1945432	PROB	n/a	LTP285	ltpFR	11	n/a	n/a	n/a	n/a	n/a	n/a	18	7	6	5	n/a	n/a	n/a	n/a	n/a
1946982	STOP	n/a	LTP285	ltpFR	11	n/a	n/a	n/a	n/a	n/a	n/a	n/a	n/a	n/a	n/a	n/a	n/a	n/a	n/a	n/a
1949213	WORD	wordpools/wasnorm_wordpool_less_exclusions.txt	LTP285	ltpFR	11	7	1	OATMEAL	967	n/a	0	n/a	0	0	0	0	0.5869140625	0.422607421875	lower	../fonts/amplitud.ttf
1952225	START	n/a	LTP285	ltpFR	11	n/a	n/a	n/a	n/a	n/a	n/a	n/a	n/a	n/a	n/a	n/a	n/a	n/a	n/a	n/a
1953193	PROB	n/a	LTP285	ltpFR	11	n/a	n/a	n/a	n/a	n/a	n/a	17	9	1	7	n/a	n/a	n/a	n/a	n/a
1954397	PROB	n/a	LTP285	ltpFR	11	n/a	n/a	n/a	n/a	n/a	n/a	15	3	9	3	n/a	n/a	n/a	n/a	n/a
1956440	PROB	n/a	LTP285	ltpFR	11	n/a	n/a	n/a	n/a	n/a	n/a	18	7	6	5	n/a	n/a	n/a	n/a	n/a
1960225	STOP	n/a	LTP285	ltpFR	11	n/a	n/a	n/a	n/a	n/a	n/a	n/a	n/a	n/a	n/a	n/a	n/a	n/a	n/a	n/a
1961292	WORD	wordpools/wasnorm_wordpool_less_exclusions.txt	LTP285	ltpFR	11	7	1	MAILBOX	857	n/a	0	n/a	0	0	0	0	0.5869140625	0.422607421875	lower	../fonts/amplitud.ttf
1964304	START	n/a	LTP285	ltpFR	11	n/a	n/a	n/a	n/a	n/a	n/a	n/a	n/a	n/a	n/a	n/a	n/a	n/a	n/a	n/a
1965240	PROB	n/a	LTP285	ltpFR	11	n/a	n/a	n/a	n/a	n/a	n/a	6	2	1	3	n/a	n/a	n/a	n/a	n/a
1966830	PROB	n/a	LTP285	ltpFR	11	n/a	n/a	n/a	n/a	n/a	n/a	15	4	7	4	n/a	n/a	n/a	n/a	n/a
1968669	PROB	n/a	LTP285	ltpFR	11	n/a	n/a	n/a	n/a	n/a	n/a	18	6	3	9	n/a	n/a	n/a	n/a	n/a
1970627	PROB	n/a	LTP285	ltpFR	11	n/a	n/a	n/a	n/a	n/a	n/a	10	8	1	1	n/a	n/a	n/a	n/a	n/a
1971751	STOP	n/a	LTP285	ltpFR	11	n/a	n/a	n/a	n/a	n/a	n/a	n/a	n/a	n/a	n/a	n/a	n/a	n/a	n/a	n/a
1973170	WORD	wordpools/wasnorm_wordpool_less_exclusions.txt	LTP285	ltpFR	11	7	0	PASTRY	1022	n/a	0	n/a	0	0	0	1	0.412841796875	0.57763671875	upper	../fonts/zerothre.ttf
1976182	START	n/a	LTP285	ltpFR	11	n/a	n/a	n/a	n/a	n/a	n/a	n/a	n/a	n/a	n/a	n/a	n/a	n/a	n/a	n/a
1977118	PROB	n/a	LTP285	ltpFR	11	n/a	n/a	n/a	n/a	n/a	n/a	22	6	7	9	n/a	n/a	n/a	n/a	n/a
1979477	PROB	n/a	LTP285	ltpFR	11	n/a	n/a	n/a	n/a	n/a	n/a	12	5	3	4	n/a	n/a	n/a	n/a	n/a
1982002	PROB	n/a	LTP285	ltpFR	11	n/a	n/a	n/a	n/a	n/a	n/a	10	6	1	3	n/a	n/a	n/a	n/a	n/a
1983125	STOP	n/a	LTP285	ltpFR	11	n/a	n/a	n/a	n/a	n/a	n/a	n/a	n/a	n/a	n/a	n/a	n/a	n/a	n/a	n/a
1985232	WORD	wordpools/wasnorm_wordpool_less_exclusions.txt	LTP285	ltpFR	11	7	0	GRILL	661	n/a	0	n/a	0	0	0	1	0.412841796875	0.57763671875	upper	../fonts/zerothre.ttf
1988244	START	n/a	LTP285	ltpFR	11	n/a	n/a	n/a	n/a	n/a	n/a	n/a	n/a	n/a	n/a	n/a	n/a	n/a	n/a	n/a
1989145	PROB	n/a	LTP285	ltpFR	11	n/a	n/a	n/a	n/a	n/a	n/a	19	8	2	9	n/a	n/a	n/a	n/a	n/a
1990650	PROB	n/a	LTP285	ltpFR	11	n/a	n/a	n/a	n/a	n/a	n/a	22	7	8	7	n/a	n/a	n/a	n/a	n/a
1992626	PROB	n/a	LTP285	ltpFR	11	n/a	n/a	n/a	n/a	n/a	n/a	15	4	5	6	n/a	n/a	n/a	n/a	n/a
1993815	PROB	n/a	LTP285	ltpFR	11	n/a	n/a	n/a	n/a	n/a	n/a	16	8	1	7	n/a	n/a	n/a	n/a	n/a
1995406	STOP	n/a	LTP285	ltpFR	11	n/a	n/a	n/a	n/a	n/a	n/a	n/a	n/a	n/a	n/a	n/a	n/a	n/a	n/a	n/a
1997210	WORD	wordpools/wasnorm_wordpool_less_exclusions.txt	LTP285	ltpFR	11	7	0	PARCEL	1012	n/a	0	n/a	0	0	0	1	0.412841796875	0.57763671875	upper	../fonts/zerothre.ttf
2000223	START	n/a	LTP285	ltpFR	11	n/a	n/a	n/a	n/a	n/a	n/a	n/a	n/a	n/a	n/a	n/a	n/a	n/a	n/a	n/a
2001326	PROB	n/a	LTP285	ltpFR	11	n/a	n/a	n/a	n/a	n/a	n/a	19	8	4	7	n/a	n/a	n/a	n/a	n/a
2002983	PROB	n/a	LTP285	ltpFR	11	n/a	n/a	n/a	n/a	n/a	n/a	8	4	1	3	n/a	n/a	n/a	n/a	n/a
2005423	PROB	n/a	LTP285	ltpFR	11	n/a	n/a	n/a	n/a	n/a	n/a	14	6	1	7	n/a	n/a	n/a	n/a	n/a
2007093	STOP	n/a	LTP285	ltpFR	11	n/a	n/a	n/a	n/a	n/a	n/a	n/a	n/a	n/a	n/a	n/a	n/a	n/a	n/a	n/a
2009339	WORD	wordpools/wasnorm_wordpool_less_exclusions.txt	LTP285	ltpFR	11	7	0	WALLET	1583	n/a	0	n/a	0	0	0	1	0.412841796875	0.57763671875	upper	../fonts/zerothre.ttf
2012351	START	n/a	LTP285	ltpFR	11	n/a	n/a	n/a	n/a	n/a	n/a	n/a	n/a	n/a	n/a	n/a	n/a	n/a	n/a	n/a
2013421	PROB	n/a	LTP285	ltpFR	11	n/a	n/a	n/a	n/a	n/a	n/a	19	6	7	6	n/a	n/a	n/a	n/a	n/a
2015143	PROB	n/a	LTP285	ltpFR	11	n/a	n/a	n/a	n/a	n/a	n/a	16	8	5	3	n/a	n/a	n/a	n/a	n/a
2016750	PROB	n/a	LTP285	ltpFR	11	n/a	n/a	n/a	n/a	n/a	n/a	12	3	5	4	n/a	n/a	n/a	n/a	n/a
2019133	STOP	n/a	LTP285	ltpFR	11	n/a	n/a	n/a	n/a	n/a	n/a	n/a	n/a	n/a	n/a	n/a	n/a	n/a	n/a	n/a
2022122	REC_START	n/a	LTP285	ltpFR	11	7	n/a	n/a	n/a	n/a	n/a	n/a	0	0	0	n/a	n/a	n/a	n/a	n/a
2023575	REC_WORD	wordpools/wasnorm_wordpool_less_exclusions.txt	LTP285	ltpFR	11	7	0	SOCKET	1340	n/a	0	n/a	0	0	0	n/a	n/a	n/a	n/a	n/a
2025175	REC_WORD	wordpools/wasnorm_wordpool_less_exclusions.txt	LTP285	ltpFR	11	7	1	ROOST	1208	n/a	0	n/a	0	0	0	n/a	n/a	n/a	n/a	n/a
2026416	REC_WORD	wordpools/wasnorm_wordpool_less_exclusions.txt	LTP285	ltpFR	11	7	1	ROOSTER	1209	n/a	1	n/a	0	0	0	n/a	n/a	n/a	n/a	n/a
2033832	REC_WORD	wordpools/wasnorm_wordpool_less_exclusions.txt	LTP285	ltpFR	11	7	0	WIRE	1616	n/a	0	n/a	0	0	0	n/a	n/a	n/a	n/a	n/a
2039408	REC_WORD	wordpools/wasnorm_wordpool_less_exclusions.txt	LTP285	ltpFR	11	7	0	UMPIRE	1535	n/a	1	n/a	0	0	0	n/a	n/a	n/a	n/a	n/a
2046111	REC_WORD	wordpools/wasnorm_wordpool_less_exclusions.txt	LTP285	ltpFR	11	7	0	LAWYER	806	n/a	1	n/a	0	0	0	n/a	n/a	n/a	n/a	n/a
2095279	REC_WORD	wordpools/wasnorm_wordpool_less_exclusions.txt	LTP285	ltpFR	11	7	n/a	POCKET	1093	n/a	n/a	n/a	0	0	0	n/a	n/a	n/a	n/a	n/a
2113633	WORD	wordpools/wasnorm_wordpool_less_exclusions.txt	LTP285	ltpFR	11	8	0	WELL	1600	n/a	1	n/a	0	0	0	1	0.412841796875	0.57763671875	upper	../fonts/zerothre.ttf
2117464	WORD	wordpools/wasnorm_wordpool_less_exclusions.txt	LTP285	ltpFR	11	8	0	PAWN	1030	n/a	0	n/a	0	0	0	1	0.412841796875	0.57763671875	upper	../fonts/zerothre.ttf
2121629	WORD	wordpools/wasnorm_wordpool_less_exclusions.txt	LTP285	ltpFR	11	8	0	CLERK	321	n/a	1	n/a	0	0	0	1	0.412841796875	0.57763671875	upper	../fonts/zerothre.ttf
2125746	WORD	wordpools/wasnorm_wordpool_less_exclusions.txt	LTP285	ltpFR	11	8	0	VETERAN	1561	n/a	1	n/a	0	0	0	1	0.412841796875	0.57763671875	upper	../fonts/zerothre.ttf
2129794	WORD	wordpools/wasnorm_wordpool_less_exclusions.txt	LTP285	ltpFR	11	8	0	CYCLONE	431	n/a	1	n/a	0	0	0	1	0.412841796875	0.57763671875	upper	../fonts/zerothre.ttf
2133927	WORD	wordpools/wasnorm_wordpool_less_exclusions.txt	LTP285	ltpFR	11	8	1	ANIMAL	23	n/a	1	n/a	0	0	0	0	0.5869140625	0.422607421875	lower	../fonts/amplitud.ttf
2137908	WORD	wordpools/wasnorm_wordpool_less_exclusions.txt	LTP285	ltpFR	11	8	1	MOOSE	915	n/a	1	n/a	0	0	0	0	0.5869140625	0.422607421875	lower	../fonts/amplitud.ttf
2141737	WORD	wordpools/wasnorm_wordpool_less_exclusions.txt	LTP285	ltpFR	11	8	1	FOUNTAIN	597	n/a	0	n/a	0	0	0	0	0.5869140625	0.422607421875	lower	../fonts/amplitud.ttf
2145603	WORD	wordpools/wasnorm_wordpool_less_exclusions.txt	LTP285	ltpFR	11	8	1	SECRETARY	1265	n/a	1	n/a	0	0	0	0	0.5869140625	0.422607421875	lower	../fonts/amplitud.ttf
2149685	WORD	wordpools/wasnorm_wordpool_less_exclusions.txt	LTP285	ltpFR	11	8	0	MAJOR	859	n/a	1	n/a	0	0	0	1	0.412841796875	0.57763671875	upper	../fonts/zerothre.ttf
2153751	WORD	wordpools/wasnorm_wordpool_less_exclusions.txt	LTP285	ltpFR	11	8	0	SHIRT	1287	n/a	0	n/a	0	0	0	1	0.412841796875	0.57763671875	upper	../fonts/zerothre.ttf
2157715	WORD	wordpools/wasnorm_wordpool_less_exclusions.txt	LTP285	ltpFR	11	8	0	SKIRT	1319	n/a	0	n/a	0	0	0	1	0.412841796875	0.57763671875	upper	../fonts/zerothre.ttf
2161697	WORD	wordpools/wasnorm_wordpool_less_exclusions.txt	LTP285	ltpFR	11	8	1	SHORTCAKE	1292	n/a	0	n/a	0	0	0	0	0.5869140625	0.422607421875	lower	../fonts/amplitud.ttf
2165830	WORD	wordpools/wasnorm_wordpool_less_exclusions.txt	LTP285	ltpFR	11	8	1	BEAKER	104	n/a	1	n/a	0	0	0	0	0.5869140625	0.422607421875	lower	../fonts/amplitud.ttf
2169694	WORD	wordpools/wasnorm_wordpool_less_exclusions.txt	LTP285	ltpFR	11	8	1	JEWEL	757	n/a	0	n/a	0	0	0	0	0.5869140625	0.422607421875	lower	../fonts/amplitud.ttf
2173693	WORD	wordpools/wasnorm_wordpool_less_exclusions.txt	LTP285	ltpFR	11	8	1	CROWN	415	n/a	0	n/a	0	0	0	0	0.5869140625	0.422607421875	lower	../fonts/amplitud.ttf
2176704	START	n/a	LTP285	ltpFR	11	n/a	n/a	n/a	n/a	n/a	n/a	n/a	n/a	n/a	n/a	n/a	n/a	n/a	n/a	n/a
2177842	PROB	n/a	LTP285	ltpFR	11	n/a	n/a	n/a	n/a	n/a	n/a	20	8	8	4	n/a	n/a	n/a	n/a	n/a
2180785	PROB	n/a	LTP285	ltpFR	11	n/a	n/a	n/a	n/a	n/a	n/a	19	5	8	6	n/a	n/a	n/a	n/a	n/a
2183630	PROB	n/a	LTP285	ltpFR	11	n/a	n/a	n/a	n/a	n/a	n/a	20	4	9	7	n/a	n/a	n/a	n/a	n/a
2186522	PROB	n/a	LTP285	ltpFR	11	n/a	n/a	n/a	n/a	n/a	n/a	24	9	6	9	n/a	n/a	n/a	n/a	n/a
2188580	PROB	n/a	LTP285	ltpFR	11	n/a	n/a	n/a	n/a	n/a	n/a	15	3	6	7	n/a	n/a	n/a	n/a	n/a
2190336	PROB	n/a	LTP285	ltpFR	11	n/a	n/a	n/a	n/a	n/a	n/a	12	2	7	3	n/a	n/a	n/a	n/a	n/a
2192158	STOP	n/a	LTP285	ltpFR	11	n/a	n/a	n/a	n/a	n/a	n/a	n/a	n/a	n/a	n/a	n/a	n/a	n/a	n/a	n/a
2194605	REC_START	n/a	LTP285	ltpFR	11	8	n/a	n/a	n/a	n/a	n/a	n/a	0	0	0	n/a	n/a	n/a	n/a	n/a
2195480	REC_WORD	wordpools/wasnorm_wordpool_less_exclusions.txt	LTP285	ltpFR	11	8	1	BEAKER	104	n/a	1	n/a	0	0	0	n/a	n/a	n/a	n/a	n/a
2196584	REC_WORD	wordpools/wasnorm_wordpool_less_exclusions.txt	LTP285	ltpFR	11	8	1	JEWEL	757	n/a	0	n/a	0	0	0	n/a	n/a	n/a	n/a	n/a
2197907	REC_WORD	wordpools/wasnorm_wordpool_less_exclusions.txt	LTP285	ltpFR	11	8	1	CROWN	415	n/a	0	n/a	0	0	0	n/a	n/a	n/a	n/a	n/a
2201749	REC_WORD	wordpools/wasnorm_wordpool_less_exclusions.txt	LTP285	ltpFR	11	8	1	ANIMAL	23	n/a	1	n/a	0	0	0	n/a	n/a	n/a	n/a	n/a
2202997	REC_WORD	wordpools/wasnorm_wordpool_less_exclusions.txt	LTP285	ltpFR	11	8	1	MOOSE	915	n/a	1	n/a	0	0	0	n/a	n/a	n/a	n/a	n/a
2204543	REC_WORD	wordpools/wasnorm_wordpool_less_exclusions.txt	LTP285	ltpFR	11	8	0	PAWN	1030	n/a	0	n/a	0	0	0	n/a	n/a	n/a	n/a	n/a
2206052	REC_WORD	wordpools/wasnorm_wordpool_less_exclusions.txt	LTP285	ltpFR	11	8	1	SHORTCAKE	1292	n/a	0	n/a	0	0	0	n/a	n/a	n/a	n/a	n/a
2208267	REC_WORD	wordpools/wasnorm_wordpool_less_exclusions.txt	LTP285	ltpFR	11	8	0	MAJOR	859	n/a	1	n/a	0	0	0	n/a	n/a	n/a	n/a	n/a
2209840	REC_WORD	wordpools/wasnorm_wordpool_less_exclusions.txt	LTP285	ltpFR	11	8	0	SHIRT	1287	n/a	0	n/a	0	0	0	n/a	n/a	n/a	n/a	n/a
2211371	REC_WORD	wordpools/wasnorm_wordpool_less_exclusions.txt	LTP285	ltpFR	11	8	0	SKIRT	1319	n/a	0	n/a	0	0	0	n/a	n/a	n/a	n/a	n/a
2214102	REC_WORD	wordpools/wasnorm_wordpool_less_exclusions.txt	LTP285	ltpFR	11	8	0	CYCLONE	431	n/a	1	n/a	0	0	0	n/a	n/a	n/a	n/a	n/a
2266321	REC_WORD	wordpools/wasnorm_wordpool_less_exclusions.txt	LTP285	ltpFR	11	8	1	SECRETARY	1265	n/a	1	n/a	0	0	0	n/a	n/a	n/a	n/a	n/a
2277719	START	n/a	LTP285	ltpFR	11	n/a	n/a	n/a	n/a	n/a	n/a	n/a	n/a	n/a	n/a	n/a	n/a	n/a	n/a	n/a
2279223	PROB	n/a	LTP285	ltpFR	11	n/a	n/a	n/a	n/a	n/a	n/a	26	5	2	9	n/a	n/a	n/a	n/a	n/a
2282018	PROB	n/a	LTP285	ltpFR	11	n/a	n/a	n/a	n/a	n/a	n/a	15	1	5	9	n/a	n/a	n/a	n/a	n/a
2283170	PROB	n/a	LTP285	ltpFR	11	n/a	n/a	n/a	n/a	n/a	n/a	22	8	9	5	n/a	n/a	n/a	n/a	n/a
2285421	STOP	n/a	LTP285	ltpFR	11	n/a	n/a	n/a	n/a	n/a	n/a	n/a	n/a	n/a	n/a	n/a	n/a	n/a	n/a	n/a
2286886	WORD	wordpools/wasnorm_wordpool_less_exclusions.txt	LTP285	ltpFR	11	9	1	SALESMAN	1225	n/a	1	n/a	0	0	0	0	0.5869140625	0.422607421875	lower	../fonts/amplitud.ttf
2289899	START	n/a	LTP285	ltpFR	11	n/a	n/a	n/a	n/a	n/a	n/a	n/a	n/a	n/a	n/a	n/a	n/a	n/a	n/a	n/a
2290902	PROB	n/a	LTP285	ltpFR	11	n/a	n/a	n/a	n/a	n/a	n/a	29	9	8	3	n/a	n/a	n/a	n/a	n/a
2297899	STOP	n/a	LTP285	ltpFR	11	n/a	n/a	n/a	n/a	n/a	n/a	n/a	n/a	n/a	n/a	n/a	n/a	n/a	n/a	n/a
2299098	WORD	wordpools/wasnorm_wordpool_less_exclusions.txt	LTP285	ltpFR	11	9	1	STRAWBERRY	1391	n/a	1	n/a	0	0	0	0	0.5869140625	0.422607421875	lower	../fonts/amplitud.ttf
2302110	START	n/a	LTP285	ltpFR	11	n/a	n/a	n/a	n/a	n/a	n/a	n/a	n/a	n/a	n/a	n/a	n/a	n/a	n/a	n/a
2302980	PROB	n/a	LTP285	ltpFR	11	n/a	n/a	n/a	n/a	n/a	n/a	17	7	3	7	n/a	n/a	n/a	n/a	n/a
2304737	PROB	n/a	LTP285	ltpFR	11	n/a	n/a	n/a	n/a	n/a	n/a	11	2	6	3	n/a	n/a	n/a	n/a	n/a
2306660	PROB	n/a	LTP285	ltpFR	11	n/a	n/a	n/a	n/a	n/a	n/a	12	7	1	5	n/a	n/a	n/a	n/a	n/a
2308799	STOP	n/a	LTP285	ltpFR	11	n/a	n/a	n/a	n/a	n/a	n/a	n/a	n/a	n/a	n/a	n/a	n/a	n/a	n/a	n/a
2311194	WORD	wordpools/wasnorm_wordpool_less_exclusions.txt	LTP285	ltpFR	11	9	1	VOLLEYBALL	1576	n/a	0	n/a	0	0	0	0	0.5869140625	0.422607421875	lower	../fonts/amplitud.ttf
2314206	START	n/a	LTP285	ltpFR	11	n/a	n/a	n/a	n/a	n/a	n/a	n/a	n/a	n/a	n/a	n/a	n/a	n/a	n/a	n/a
2315309	PROB	n/a	LTP285	ltpFR	11	n/a	n/a	n/a	n/a	n/a	n/a	23	8	8	7	n/a	n/a	n/a	n/a	n/a
2317382	PROB	n/a	LTP285	ltpFR	11	n/a	n/a	n/a	n/a	n/a	n/a	15	3	4	9	n/a	n/a	n/a	n/a	n/a
2319525	PROB	n/a	LTP285	ltpFR	11	n/a	n/a	n/a	n/a	n/a	n/a	12	5	4	3	n/a	n/a	n/a	n/a	n/a
2321046	STOP	n/a	LTP285	ltpFR	11	n/a	n/a	n/a	n/a	n/a	n/a	n/a	n/a	n/a	n/a	n/a	n/a	n/a	n/a	n/a
2323122	WORD	wordpools/wasnorm_wordpool_less_exclusions.txt	LTP285	ltpFR	11	9	1	BEAR	106	n/a	1	n/a	0	0	0	0	0.5869140625	0.422607421875	lower	../fonts/amplitud.ttf
2326134	START	n/a	LTP285	ltpFR	11	n/a	n/a	n/a	n/a	n/a	n/a	n/a	n/a	n/a	n/a	n/a	n/a	n/a	n/a	n/a
2327271	PROB	n/a	LTP285	ltpFR	11	n/a	n/a	n/a	n/a	n/a	n/a	17	4	5	8	n/a	n/a	n/a	n/a	n/a
2329594	PROB	n/a	LTP285	ltpFR	11	n/a	n/a	n/a	n/a	n/a	n/a	23	7	9	7	n/a	n/a	n/a	n/a	n/a
2331973	PROB	n/a	LTP285	ltpFR	11	n/a	n/a	n/a	n/a	n/a	n/a	13	9	1	3	n/a	n/a	n/a	n/a	n/a
2333006	STOP	n/a	LTP285	ltpFR	11	n/a	n/a	n/a	n/a	n/a	n/a	n/a	n/a	n/a	n/a	n/a	n/a	n/a	n/a	n/a
2335268	WORD	wordpools/wasnorm_wordpool_less_exclusions.txt	LTP285	ltpFR	11	9	0	AGENT	10	n/a	1	n/a	0	0	0	1	0.412841796875	0.57763671875	upper	../fonts/zerothre.ttf
2338280	START	n/a	LTP285	ltpFR	11	n/a	n/a	n/a	n/a	n/a	n/a	n/a	n/a	n/a	n/a	n/a	n/a	n/a	n/a	n/a
2339467	PROB	n/a	LTP285	ltpFR	11	n/a	n/a	n/a	n/a	n/a	n/a	19	3	7	9	n/a	n/a	n/a	n/a	n/a
2340873	PROB	n/a	LTP285	ltpFR	11	n/a	n/a	n/a	n/a	n/a	n/a	20	6	5	9	n/a	n/a	n/a	n/a	n/a
2342845	PROB	n/a	LTP285	ltpFR	11	n/a	n/a	n/a	n/a	n/a	n/a	16	2	7	7	n/a	n/a	n/a	n/a	n/a
2344618	PROB	n/a	LTP285	ltpFR	11	n/a	n/a	n/a	n/a	n/a	n/a	17	8	1	8	n/a	n/a	n/a	n/a	n/a
2346015	STOP	n/a	LTP285	ltpFR	11	n/a	n/a	n/a	n/a	n/a	n/a	n/a	n/a	n/a	n/a	n/a	n/a	n/a	n/a	n/a
2347263	WORD	wordpools/wasnorm_wordpool_less_exclusions.txt	LTP285	ltpFR	11	9	0	OFFICER	973	n/a	1	n/a	0	0	0	1	0.412841796875	0.57763671875	upper	../fonts/zerothre.ttf
2350275	START	n/a	LTP285	ltpFR	11	n/a	n/a	n/a	n/a	n/a	n/a	n/a	n/a	n/a	n/a	n/a	n/a	n/a	n/a	n/a
2351094	PROB	n/a	LTP285	ltpFR	11	n/a	n/a	n/a	n/a	n/a	n/a	15	7	3	5	n/a	n/a	n/a	n/a	n/a
2352182	PROB	n/a	LTP285	ltpFR	11	n/a	n/a	n/a	n/a	n/a	n/a	14	7	4	3	n/a	n/a	n/a	n/a	n/a
2354154	PROB	n/a	LTP285	ltpFR	11	n/a	n/a	n/a	n/a	n/a	n/a	14	6	5	3	n/a	n/a	n/a	n/a	n/a
2358275	STOP	n/a	LTP285	ltpFR	11	n/a	n/a	n/a	n/a	n/a	n/a	n/a	n/a	n/a	n/a	n/a	n/a	n/a	n/a	n/a
2359292	WORD	wordpools/wasnorm_wordpool_less_exclusions.txt	LTP285	ltpFR	11	9	0	APPLE	33	n/a	0	n/a	0	0	0	1	0.412841796875	0.57763671875	upper	../fonts/zerothre.ttf
2362304	START	n/a	LTP285	ltpFR	11	n/a	n/a	n/a	n/a	n/a	n/a	n/a	n/a	n/a	n/a	n/a	n/a	n/a	n/a	n/a
2363340	PROB	n/a	LTP285	ltpFR	11	n/a	n/a	n/a	n/a	n/a	n/a	13	1	7	5	n/a	n/a	n/a	n/a	n/a
2365080	PROB	n/a	LTP285	ltpFR	11	n/a	n/a	n/a	n/a	n/a	n/a	21	5	9	7	n/a	n/a	n/a	n/a	n/a
2367220	PROB	n/a	LTP285	ltpFR	11	n/a	n/a	n/a	n/a	n/a	n/a	19	9	9	1	n/a	n/a	n/a	n/a	n/a
2370302	STOP	n/a	LTP285	ltpFR	11	n/a	n/a	n/a	n/a	n/a	n/a	n/a	n/a	n/a	n/a	n/a	n/a	n/a	n/a	n/a
2371555	WORD	wordpools/wasnorm_wordpool_less_exclusions.txt	LTP285	ltpFR	11	9	1	FRUIT	610	n/a	1	n/a	0	0	0	0	0.5869140625	0.422607421875	lower	../fonts/amplitud.ttf
2374567	START	n/a	LTP285	ltpFR	11	n/a	n/a	n/a	n/a	n/a	n/a	n/a	n/a	n/a	n/a	n/a	n/a	n/a	n/a	n/a
2375603	PROB	n/a	LTP285	ltpFR	11	n/a	n/a	n/a	n/a	n/a	n/a	12	9	1	2	n/a	n/a	n/a	n/a	n/a
2376859	PROB	n/a	LTP285	ltpFR	11	n/a	n/a	n/a	n/a	n/a	n/a	9	7	1	1	n/a	n/a	n/a	n/a	n/a
2378179	PROB	n/a	LTP285	ltpFR	11	n/a	n/a	n/a	n/a	n/a	n/a	19	7	5	7	n/a	n/a	n/a	n/a	n/a
2380168	PROB	n/a	LTP285	ltpFR	11	n/a	n/a	n/a	n/a	n/a	n/a	15	3	4	8	n/a	n/a	n/a	n/a	n/a
2381911	STOP	n/a	LTP285	ltpFR	11	n/a	n/a	n/a	n/a	n/a	n/a	n/a	n/a	n/a	n/a	n/a	n/a	n/a	n/a	n/a
2383533	WORD	wordpools/wasnorm_wordpool_less_exclusions.txt	LTP285	ltpFR	11	9	1	PEOPLE	1046	n/a	1	n/a	0	0	0	0	0.5869140625	0.422607421875	lower	../fonts/amplitud.ttf
2386545	START	n/a	LTP285	ltpFR	11	n/a	n/a	n/a	n/a	n/a	n/a	n/a	n/a	n/a	n/a	n/a	n/a	n/a	n/a	n/a
2387513	PROB	n/a	LTP285	ltpFR	11	n/a	n/a	n/a	n/a	n/a	n/a	21	6	6	9	n/a	n/a	n/a	n/a	n/a
2390323	PROB	n/a	LTP285	ltpFR	11	n/a	n/a	n/a	n/a	n/a	n/a	17	8	6	3	n/a	n/a	n/a	n/a	n/a
2394545	STOP	n/a	LTP285	ltpFR	11	n/a	n/a	n/a	n/a	n/a	n/a	n/a	n/a	n/a	n/a	n/a	n/a	n/a	n/a	n/a
2395495	WORD	wordpools/wasnorm_wordpool_less_exclusions.txt	LTP285	ltpFR	11	9	0	FRIEND	606	n/a	1	n/a	0	0	0	1	0.412841796875	0.57763671875	upper	../fonts/zerothre.ttf
2398507	START	n/a	LTP285	ltpFR	11	n/a	n/a	n/a	n/a	n/a	n/a	n/a	n/a	n/a	n/a	n/a	n/a	n/a	n/a	n/a
2399393	PROB	n/a	LTP285	ltpFR	11	n/a	n/a	n/a	n/a	n/a	n/a	18	9	3	6	n/a	n/a	n/a	n/a	n/a
2401534	PROB	n/a	LTP285	ltpFR	11	n/a	n/a	n/a	n/a	n/a	n/a	12	3	5	3	n/a	n/a	n/a	n/a	n/a
2403005	PROB	n/a	LTP285	ltpFR	11	n/a	n/a	n/a	n/a	n/a	n/a	16	3	9	4	n/a	n/a	n/a	n/a	n/a
2405317	STOP	n/a	LTP285	ltpFR	11	n/a	n/a	n/a	n/a	n/a	n/a	n/a	n/a	n/a	n/a	n/a	n/a	n/a	n/a	n/a
2407339	WORD	wordpools/wasnorm_wordpool_less_exclusions.txt	LTP285	ltpFR	11	9	0	LOLLIPOP	842	n/a	0	n/a	0	0	0	1	0.412841796875	0.57763671875	upper	../fonts/zerothre.ttf
2410352	START	n/a	LTP285	ltpFR	11	n/a	n/a	n/a	n/a	n/a	n/a	n/a	n/a	n/a	n/a	n/a	n/a	n/a	n/a	n/a
2411486	PROB	n/a	LTP285	ltpFR	11	n/a	n/a	n/a	n/a	n/a	n/a	9	2	1	6	n/a	n/a	n/a	n/a	n/a
2412826	PROB	n/a	LTP285	ltpFR	11	n/a	n/a	n/a	n/a	n/a	n/a	19	8	9	2	n/a	n/a	n/a	n/a	n/a
2414785	PROB	n/a	LTP285	ltpFR	11	n/a	n/a	n/a	n/a	n/a	n/a	15	8	2	5	n/a	n/a	n/a	n/a	n/a
2416374	PROB	n/a	LTP285	ltpFR	11	n/a	n/a	n/a	n/a	n/a	n/a	17	4	7	6	n/a	n/a	n/a	n/a	n/a
2417903	STOP	n/a	LTP285	ltpFR	11	n/a	n/a	n/a	n/a	n/a	n/a	n/a	n/a	n/a	n/a	n/a	n/a	n/a	n/a	n/a
2419284	WORD	wordpools/wasnorm_wordpool_less_exclusions.txt	LTP285	ltpFR	11	9	0	SHELTER	1282	n/a	1	n/a	0	0	0	1	0.412841796875	0.57763671875	upper	../fonts/zerothre.ttf
2422296	START	n/a	LTP285	ltpFR	11	n/a	n/a	n/a	n/a	n/a	n/a	n/a	n/a	n/a	n/a	n/a	n/a	n/a	n/a	n/a
2423383	PROB	n/a	LTP285	ltpFR	11	n/a	n/a	n/a	n/a	n/a	n/a	4	1	1	2	n/a	n/a	n/a	n/a	n/a
2424404	PROB	n/a	LTP285	ltpFR	11	n/a	n/a	n/a	n/a	n/a	n/a	21	6	9	3	n/a	n/a	n/a	n/a	n/a
2426378	PROB	n/a	LTP285	ltpFR	11	n/a	n/a	n/a	n/a	n/a	n/a	18	3	8	6	n/a	n/a	n/a	n/a	n/a
2428218	PROB	n/a	LTP285	ltpFR	11	n/a	n/a	n/a	n/a	n/a	n/a	14	4	6	4	n/a	n/a	n/a	n/a	n/a
2430038	STOP	n/a	LTP285	ltpFR	11	n/a	n/a	n/a	n/a	n/a	n/a	n/a	n/a	n/a	n/a	n/a	n/a	n/a	n/a	n/a
2431464	WORD	wordpools/wasnorm_wordpool_less_exclusions.txt	LTP285	ltpFR	11	9	0	BUYER	208	n/a	1	n/a	0	0	0	1	0.412841796875	0.57763671875	upper	../fonts/zerothre.ttf
2434476	START	n/a	LTP285	ltpFR	11	n/a	n/a	n/a	n/a	n/a	n/a	n/a	n/a	n/a	n/a	n/a	n/a	n/a	n/a	n/a
2435562	PROB	n/a	LTP285	ltpFR	11	n/a	n/a	n/a	n/a	n/a	n/a	18	8	5	5	n/a	n/a	n/a	n/a	n/a
2436833	PROB	n/a	LTP285	ltpFR	11	n/a	n/a	n/a	n/a	n/a	n/a	13	6	9	1	n/a	n/a	n/a	n/a	n/a
2438340	PROB	n/a	LTP285	ltpFR	11	n/a	n/a	n/a	n/a	n/a	n/a	12	4	5	4	n/a	n/a	n/a	n/a	n/a
2440648	PROB	n/a	LTP285	ltpFR	11	n/a	n/a	n/a	n/a	n/a	n/a	13	5	1	7	n/a	n/a	n/a	n/a	n/a
2442262	STOP	n/a	LTP285	ltpFR	11	n/a	n/a	n/a	n/a	n/a	n/a	n/a	n/a	n/a	n/a	n/a	n/a	n/a	n/a	n/a
2443474	WORD	wordpools/wasnorm_wordpool_less_exclusions.txt	LTP285	ltpFR	11	9	0	TONGUE	1479	n/a	0	n/a	0	0	0	1	0.412841796875	0.57763671875	upper	../fonts/zerothre.ttf
2446488	START	n/a	LTP285	ltpFR	11	n/a	n/a	n/a	n/a	n/a	n/a	n/a	n/a	n/a	n/a	n/a	n/a	n/a	n/a	n/a
2447608	PROB	n/a	LTP285	ltpFR	11	n/a	n/a	n/a	n/a	n/a	n/a	18	8	1	9	n/a	n/a	n/a	n/a	n/a
2449114	PROB	n/a	LTP285	ltpFR	11	n/a	n/a	n/a	n/a	n/a	n/a	13	1	8	4	n/a	n/a	n/a	n/a	n/a
2450686	PROB	n/a	LTP285	ltpFR	11	n/a	n/a	n/a	n/a	n/a	n/a	19	7	3	9	n/a	n/a	n/a	n/a	n/a
2452007	PROB	n/a	LTP285	ltpFR	11	n/a	n/a	n/a	n/a	n/a	n/a	9	4	3	2	n/a	n/a	n/a	n/a	n/a
2453919	STOP	n/a	LTP285	ltpFR	11	n/a	n/a	n/a	n/a	n/a	n/a	n/a	n/a	n/a	n/a	n/a	n/a	n/a	n/a	n/a
2455521	WORD	wordpools/wasnorm_wordpool_less_exclusions.txt	LTP285	ltpFR	11	9	1	FARM	552	n/a	0	n/a	0	0	0	0	0.5869140625	0.422607421875	lower	../fonts/amplitud.ttf
2458533	START	n/a	LTP285	ltpFR	11	n/a	n/a	n/a	n/a	n/a	n/a	n/a	n/a	n/a	n/a	n/a	n/a	n/a	n/a	n/a
2459503	PROB	n/a	LTP285	ltpFR	11	n/a	n/a	n/a	n/a	n/a	n/a	16	3	9	3	n/a	n/a	n/a	n/a	n/a
2460857	PROB	n/a	LTP285	ltpFR	11	n/a	n/a	n/a	n/a	n/a	n/a	8	1	2	5	n/a	n/a	n/a	n/a	n/a
2462161	PROB	n/a	LTP285	ltpFR	11	n/a	n/a	n/a	n/a	n/a	n/a	17	6	7	4	n/a	n/a	n/a	n/a	n/a
2463535	PROB	n/a	LTP285	ltpFR	11	n/a	n/a	n/a	n/a	n/a	n/a	11	8	2	1	n/a	n/a	n/a	n/a	n/a
2464704	PROB	n/a	LTP285	ltpFR	11	n/a	n/a	n/a	n/a	n/a	n/a	15	1	7	7	n/a	n/a	n/a	n/a	n/a
2465759	STOP	n/a	LTP285	ltpFR	11	n/a	n/a	n/a	n/a	n/a	n/a	n/a	n/a	n/a	n/a	n/a	n/a	n/a	n/a	n/a
2467416	WORD	wordpools/wasnorm_wordpool_less_exclusions.txt	LTP285	ltpFR	11	9	1	HUT	729	n/a	0	n/a	0	0	0	0	0.5869140625	0.422607421875	lower	../fonts/amplitud.ttf
2470428	START	n/a	LTP285	ltpFR	11	n/a	n/a	n/a	n/a	n/a	n/a	n/a	n/a	n/a	n/a	n/a	n/a	n/a	n/a	n/a
2471431	PROB	n/a	LTP285	ltpFR	11	n/a	n/a	n/a	n/a	n/a	n/a	9	1	5	3	n/a	n/a	n/a	n/a	n/a
2472971	PROB	n/a	LTP285	ltpFR	11	n/a	n/a	n/a	n/a	n/a	n/a	154	9	3	3	n/a	n/a	n/a	n/a	n/a
2474643	PROB	n/a	LTP285	ltpFR	11	n/a	n/a	n/a	n/a	n/a	n/a	16	2	9	5	n/a	n/a	n/a	n/a	n/a
2476266	PROB	n/a	LTP285	ltpFR	11	n/a	n/a	n/a	n/a	n/a	n/a	17	6	2	9	n/a	n/a	n/a	n/a	n/a
2477871	STOP	n/a	LTP285	ltpFR	11	n/a	n/a	n/a	n/a	n/a	n/a	n/a	n/a	n/a	n/a	n/a	n/a	n/a	n/a	n/a
2480181	REC_START	n/a	LTP285	ltpFR	11	9	n/a	n/a	n/a	n/a	n/a	n/a	0	0	0	n/a	n/a	n/a	n/a	n/a
2481042	REC_WORD	wordpools/wasnorm_wordpool_less_exclusions.txt	LTP285	ltpFR	11	9	1	HUT	729	n/a	0	n/a	0	0	0	n/a	n/a	n/a	n/a	n/a
2482148	REC_WORD	wordpools/wasnorm_wordpool_less_exclusions.txt	LTP285	ltpFR	11	9	1	FARM	552	n/a	0	n/a	0	0	0	n/a	n/a	n/a	n/a	n/a
2483681	REC_WORD	wordpools/wasnorm_wordpool_less_exclusions.txt	LTP285	ltpFR	11	9	0	LOLLIPOP	842	n/a	0	n/a	0	0	0	n/a	n/a	n/a	n/a	n/a
2485541	REC_WORD	wordpools/wasnorm_wordpool_less_exclusions.txt	LTP285	ltpFR	11	9	0	AGENT	10	n/a	1	n/a	0	0	0	n/a	n/a	n/a	n/a	n/a
2487090	REC_WORD	wordpools/wasnorm_wordpool_less_exclusions.txt	LTP285	ltpFR	11	9	0	BUYER	208	n/a	1	n/a	0	0	0	n/a	n/a	n/a	n/a	n/a
2514253	REC_WORD	wordpools/wasnorm_wordpool_less_exclusions.txt	LTP285	ltpFR	11	9	1	SALESMAN	1225	n/a	1	n/a	0	0	0	n/a	n/a	n/a	n/a	n/a
2534046	REC_WORD	wordpools/wasnorm_wordpool_less_exclusions.txt	LTP285	ltpFR	11	9	0	SHELTER	1282	n/a	1	n/a	0	0	0	n/a	n/a	n/a	n/a	n/a
2563931	WORD	wordpools/wasnorm_wordpool_less_exclusions.txt	LTP285	ltpFR	11	10	0	MINER	896	n/a	1	n/a	0	0	0	1	0.412841796875	0.57763671875	upper	../fonts/zerothre.ttf
2568079	WORD	wordpools/wasnorm_wordpool_less_exclusions.txt	LTP285	ltpFR	11	10	0	LIMB	822	n/a	1	n/a	0	0	0	1	0.412841796875	0.57763671875	upper	../fonts/zerothre.ttf
2572228	WORD	wordpools/wasnorm_wordpool_less_exclusions.txt	LTP285	ltpFR	11	10	0	BONE	148	n/a	0	n/a	0	0	0	1	0.412841796875	0.57763671875	upper	../fonts/zerothre.ttf
2576159	WORD	wordpools/wasnorm_wordpool_less_exclusions.txt	LTP285	ltpFR	11	10	1	RELISH	1183	n/a	0	n/a	0	0	0	0	0.5869140625	0.422607421875	lower	../fonts/amplitud.ttf
2580074	WORD	wordpools/wasnorm_wordpool_less_exclusions.txt	LTP285	ltpFR	11	10	1	MUSTARD	935	n/a	0	n/a	0	0	0	0	0.5869140625	0.422607421875	lower	../fonts/amplitud.ttf
2584223	WORD	wordpools/wasnorm_wordpool_less_exclusions.txt	LTP285	ltpFR	11	10	1	DUNGEON	507	n/a	0	n/a	0	0	0	0	0.5869140625	0.422607421875	lower	../fonts/amplitud.ttf
2588255	WORD	wordpools/wasnorm_wordpool_less_exclusions.txt	LTP285	ltpFR	11	10	1	GROOM	665	n/a	1	n/a	0	0	0	0	0.5869140625	0.422607421875	lower	../fonts/amplitud.ttf
2592353	WORD	wordpools/wasnorm_wordpool_less_exclusions.txt	LTP285	ltpFR	11	10	1	THRONE	1461	n/a	0	n/a	0	0	0	0	0.5869140625	0.422607421875	lower	../fonts/amplitud.ttf
2596452	WORD	wordpools/wasnorm_wordpool_less_exclusions.txt	LTP285	ltpFR	11	10	1	CORAL	378	n/a	1	n/a	0	0	0	0	0.5869140625	0.422607421875	lower	../fonts/amplitud.ttf
2600415	WORD	wordpools/wasnorm_wordpool_less_exclusions.txt	LTP285	ltpFR	11	10	0	FISH	571	n/a	0	n/a	0	0	0	1	0.412841796875	0.57763671875	upper	../fonts/zerothre.ttf
2604499	WORD	wordpools/wasnorm_wordpool_less_exclusions.txt	LTP285	ltpFR	11	10	0	SALT	1229	n/a	0	n/a	0	0	0	1	0.412841796875	0.57763671875	upper	../fonts/zerothre.ttf
2608529	WORD	wordpools/wasnorm_wordpool_less_exclusions.txt	LTP285	ltpFR	11	10	0	SCULPTURE	1258	n/a	1	n/a	0	0	0	1	0.412841796875	0.57763671875	upper	../fonts/zerothre.ttf
2612496	WORD	wordpools/wasnorm_wordpool_less_exclusions.txt	LTP285	ltpFR	11	10	1	FLIPPER	580	n/a	0	n/a	0	0	0	0	0.5869140625	0.422607421875	lower	../fonts/amplitud.ttf
2616444	WORD	wordpools/wasnorm_wordpool_less_exclusions.txt	LTP285	ltpFR	11	10	1	OREGANO	983	n/a	0	n/a	0	0	0	0	0.5869140625	0.422607421875	lower	../fonts/amplitud.ttf
2620560	WORD	wordpools/wasnorm_wordpool_less_exclusions.txt	LTP285	ltpFR	11	10	0	PENNY	1045	n/a	0	n/a	0	0	0	1	0.412841796875	0.57763671875	upper	../fonts/zerothre.ttf
2624658	WORD	wordpools/wasnorm_wordpool_less_exclusions.txt	LTP285	ltpFR	11	10	0	BARRACUDA	90	n/a	1	n/a	0	0	0	1	0.412841796875	0.57763671875	upper	../fonts/zerothre.ttf
2630565	REC_START	n/a	LTP285	ltpFR	11	10	n/a	n/a	n/a	n/a	n/a	n/a	0	0	0	n/a	n/a	n/a	n/a	n/a
2631358	REC_WORD	wordpools/wasnorm_wordpool_less_exclusions.txt	LTP285	ltpFR	11	10	0	PENNY	1045	n/a	0	n/a	0	0	0	n/a	n/a	n/a	n/a	n/a
2632560	REC_WORD	wordpools/wasnorm_wordpool_less_exclusions.txt	LTP285	ltpFR	11	10	0	BARRACUDA	90	n/a	1	n/a	0	0	0	n/a	n/a	n/a	n/a	n/a
2634135	REC_WORD	wordpools/wasnorm_wordpool_less_exclusions.txt	LTP285	ltpFR	11	10	1	OREGANO	983	n/a	0	n/a	0	0	0	n/a	n/a	n/a	n/a	n/a
2635665	REC_WORD	wordpools/wasnorm_wordpool_less_exclusions.txt	LTP285	ltpFR	11	10	1	MUSTARD	935	n/a	0	n/a	0	0	0	n/a	n/a	n/a	n/a	n/a
2637054	REC_WORD	wordpools/wasnorm_wordpool_less_exclusions.txt	LTP285	ltpFR	11	10	n/a	KETCHUP	771	n/a	n/a	n/a	0	0	0	n/a	n/a	n/a	n/a	n/a
2638624	REC_WORD	wordpools/wasnorm_wordpool_less_exclusions.txt	LTP285	ltpFR	11	10	1	GROOM	665	n/a	1	n/a	0	0	0	n/a	n/a	n/a	n/a	n/a
2652660	REC_WORD	wordpools/wasnorm_wordpool_less_exclusions.txt	LTP285	ltpFR	11	10	1	THRONE	1461	n/a	0	n/a	0	0	0	n/a	n/a	n/a	n/a	n/a
2687493	REC_WORD	wordpools/wasnorm_wordpool_less_exclusions.txt	LTP285	ltpFR	11	10	n/a	MINOR	-1	n/a	n/a	n/a	0	0	0	n/a	n/a	n/a	n/a	n/a
2713142	WORD	wordpools/wasnorm_wordpool_less_exclusions.txt	LTP285	ltpFR	11	11	1	DICTATOR	462	n/a	1	n/a	0	0	0	0	0.5869140625	0.422607421875	lower	../fonts/amplitud.ttf
2717140	WORD	wordpools/wasnorm_wordpool_less_exclusions.txt	LTP285	ltpFR	11	11	1	SHACK	1273	n/a	0	n/a	0	0	0	0	0.5869140625	0.422607421875	lower	../fonts/amplitud.ttf
2721055	WORD	wordpools/wasnorm_wordpool_less_exclusions.txt	LTP285	ltpFR	11	11	1	RACCOON	1153	n/a	1	n/a	0	0	0	0	0.5869140625	0.422607421875	lower	../fonts/amplitud.ttf
2724921	WORD	wordpools/wasnorm_wordpool_less_exclusions.txt	LTP285	ltpFR	11	11	1	PANTHER	1009	n/a	1	n/a	0	0	0	0	0.5869140625	0.422607421875	lower	../fonts/amplitud.ttf
2728953	WORD	wordpools/wasnorm_wordpool_less_exclusions.txt	LTP285	ltpFR	11	11	1	BEETLE	116	n/a	1	n/a	0	0	0	0	0.5869140625	0.422607421875	lower	../fonts/amplitud.ttf
2733167	WORD	wordpools/wasnorm_wordpool_less_exclusions.txt	LTP285	ltpFR	11	11	1	VEAL	1551	n/a	0	n/a	0	0	0	0	0.5869140625	0.422607421875	lower	../fonts/amplitud.ttf
2737183	WORD	wordpools/wasnorm_wordpool_less_exclusions.txt	LTP285	ltpFR	11	11	1	MASCARA	875	n/a	0	n/a	0	0	0	0	0.5869140625	0.422607421875	lower	../fonts/amplitud.ttf
2741030	WORD	wordpools/wasnorm_wordpool_less_exclusions.txt	LTP285	ltpFR	11	11	1	LIPSTICK	829	n/a	0	n/a	0	0	0	0	0.5869140625	0.422607421875	lower	../fonts/amplitud.ttf
2744896	WORD	wordpools/wasnorm_wordpool_less_exclusions.txt	LTP285	ltpFR	11	11	1	COMMANDER	354	n/a	1	n/a	0	0	0	0	0.5869140625	0.422607421875	lower	../fonts/amplitud.ttf
2748842	WORD	wordpools/wasnorm_wordpool_less_exclusions.txt	LTP285	ltpFR	11	11	1	WINGS	1614	n/a	0	n/a	0	0	0	0	0.5869140625	0.422607421875	lower	../fonts/amplitud.ttf
2752910	WORD	wordpools/wasnorm_wordpool_less_exclusions.txt	LTP285	ltpFR	11	11	1	CROOK	412	n/a	0	n/a	0	0	0	0	0.5869140625	0.422607421875	lower	../fonts/amplitud.ttf
2756891	WORD	wordpools/wasnorm_wordpool_less_exclusions.txt	LTP285	ltpFR	11	11	1	MEAT	883	n/a	0	n/a	0	0	0	0	0.5869140625	0.422607421875	lower	../fonts/amplitud.ttf
2761039	WORD	wordpools/wasnorm_wordpool_less_exclusions.txt	LTP285	ltpFR	11	11	1	TYPIST	1532	n/a	1	n/a	0	0	0	0	0.5869140625	0.422607421875	lower	../fonts/amplitud.ttf
2765054	WORD	wordpools/wasnorm_wordpool_less_exclusions.txt	LTP285	ltpFR	11	11	1	TYPEWRITER	1531	n/a	0	n/a	0	0	0	0	0.5869140625	0.422607421875	lower	../fonts/amplitud.ttf
2768970	WORD	wordpools/wasnorm_wordpool_less_exclusions.txt	LTP285	ltpFR	11	11	1	WHIP	1604	n/a	0	n/a	0	0	0	0	0.5869140625	0.422607421875	lower	../fonts/amplitud.ttf
2773068	WORD	wordpools/wasnorm_wordpool_less_exclusions.txt	LTP285	ltpFR	11	11	1	PAW	1029	n/a	1	n/a	0	0	0	0	0.5869140625	0.422607421875	lower	../fonts/amplitud.ttf
2776079	START	n/a	LTP285	ltpFR	11	n/a	n/a	n/a	n/a	n/a	n/a	n/a	n/a	n/a	n/a	n/a	n/a	n/a	n/a	n/a
2776933	PROB	n/a	LTP285	ltpFR	11	n/a	n/a	n/a	n/a	n/a	n/a	11	1	4	6	n/a	n/a	n/a	n/a	n/a
2778319	PROB	n/a	LTP285	ltpFR	11	n/a	n/a	n/a	n/a	n/a	n/a	15	6	7	2	n/a	n/a	n/a	n/a	n/a
2780343	PROB	n/a	LTP285	ltpFR	11	n/a	n/a	n/a	n/a	n/a	n/a	16	9	6	3	n/a	n/a	n/a	n/a	n/a
2782434	PROB	n/a	LTP285	ltpFR	11	n/a	n/a	n/a	n/a	n/a	n/a	6	2	1	2	n/a	n/a	n/a	n/a	n/a
2783879	STOP	n/a	LTP285	ltpFR	11	n/a	n/a	n/a	n/a	n/a	n/a	n/a	n/a	n/a	n/a	n/a	n/a	n/a	n/a	n/a
2785868	REC_START	n/a	LTP285	ltpFR	11	11	n/a	n/a	n/a	n/a	n/a	n/a	0	0	0	n/a	n/a	n/a	n/a	n/a
2786721	REC_WORD	wordpools/wasnorm_wordpool_less_exclusions.txt	LTP285	ltpFR	11	11	1	WHIP	1604	n/a	0	n/a	0	0	0	n/a	n/a	n/a	n/a	n/a
2787756	REC_WORD	wordpools/wasnorm_wordpool_less_exclusions.txt	LTP285	ltpFR	11	11	1	PAW	1029	n/a	1	n/a	0	0	0	n/a	n/a	n/a	n/a	n/a
2788899	REC_WORD	wordpools/wasnorm_wordpool_less_exclusions.txt	LTP285	ltpFR	11	11	1	COMMANDER	354	n/a	1	n/a	0	0	0	n/a	n/a	n/a	n/a	n/a
2790515	REC_WORD	wordpools/wasnorm_wordpool_less_exclusions.txt	LTP285	ltpFR	11	11	1	TYPIST	1532	n/a	1	n/a	0	0	0	n/a	n/a	n/a	n/a	n/a
2791930	REC_WORD	wordpools/wasnorm_wordpool_less_exclusions.txt	LTP285	ltpFR	11	11	1	TYPEWRITER	1531	n/a	0	n/a	0	0	0	n/a	n/a	n/a	n/a	n/a
2793866	REC_WORD	wordpools/wasnorm_wordpool_less_exclusions.txt	LTP285	ltpFR	11	11	1	BEETLE	116	n/a	1	n/a	0	0	0	n/a	n/a	n/a	n/a	n/a
2795356	REC_WORD	wordpools/wasnorm_wordpool_less_exclusions.txt	LTP285	ltpFR	11	11	1	PANTHER	1009	n/a	1	n/a	0	0	0	n/a	n/a	n/a	n/a	n/a
2812215	REC_WORD	wordpools/wasnorm_wordpool_less_exclusions.txt	LTP285	ltpFR	11	11	1	MEAT	883	n/a	0	n/a	0	0	0	n/a	n/a	n/a	n/a	n/a
2813409	REC_WORD	wordpools/wasnorm_wordpool_less_exclusions.txt	LTP285	ltpFR	11	11	1	VEAL	1551	n/a	0	n/a	0	0	0	n/a	n/a	n/a	n/a	n/a
2831206	REC_WORD	wordpools/wasnorm_wordpool_less_exclusions.txt	LTP285	ltpFR	11	11	1	CROOK	412	n/a	0	n/a	0	0	0	n/a	n/a	n/a	n/a	n/a
2837389	REC_WORD	wordpools/wasnorm_wordpool_less_exclusions.txt	LTP285	ltpFR	11	11	1	SHACK	1273	n/a	0	n/a	0	0	0	n/a	n/a	n/a	n/a	n/a
2865903	START	n/a	LTP285	ltpFR	11	n/a	n/a	n/a	n/a	n/a	n/a	n/a	n/a	n/a	n/a	n/a	n/a	n/a	n/a	n/a
2867407	PROB	n/a	LTP285	ltpFR	11	n/a	n/a	n/a	n/a	n/a	n/a	19	6	5	8	n/a	n/a	n/a	n/a	n/a
2871087	PROB	n/a	LTP285	ltpFR	11	n/a	n/a	n/a	n/a	n/a	n/a	16	4	7	5	n/a	n/a	n/a	n/a	n/a
2873530	PROB	n/a	LTP285	ltpFR	11	n/a	n/a	n/a	n/a	n/a	n/a	9	4	4	1	n/a	n/a	n/a	n/a	n/a
2874836	PROB	n/a	LTP285	ltpFR	11	n/a	n/a	n/a	n/a	n/a	n/a	13	4	7	2	n/a	n/a	n/a	n/a	n/a
2876776	PROB	n/a	LTP285	ltpFR	11	n/a	n/a	n/a	n/a	n/a	n/a	7	3	1	3	n/a	n/a	n/a	n/a	n/a
2878128	PROB	n/a	LTP285	ltpFR	11	n/a	n/a	n/a	n/a	n/a	n/a	13	9	3	1	n/a	n/a	n/a	n/a	n/a
2881903	STOP	n/a	LTP285	ltpFR	11	n/a	n/a	n/a	n/a	n/a	n/a	n/a	n/a	n/a	n/a	n/a	n/a	n/a	n/a	n/a
2883082	WORD	wordpools/wasnorm_wordpool_less_exclusions.txt	LTP285	ltpFR	11	12	1	PORPOISE	1109	n/a	1	n/a	0	0	0	0	0.5869140625	0.422607421875	lower	../fonts/amplitud.ttf
2886094	START	n/a	LTP285	ltpFR	11	n/a	n/a	n/a	n/a	n/a	n/a	n/a	n/a	n/a	n/a	n/a	n/a	n/a	n/a	n/a
2887265	PROB	n/a	LTP285	ltpFR	11	n/a	n/a	n/a	n/a	n/a	n/a	21	5	9	7	n/a	n/a	n/a	n/a	n/a
2889070	PROB	n/a	LTP285	ltpFR	11	n/a	n/a	n/a	n/a	n/a	n/a	4	1	2	1	n/a	n/a	n/a	n/a	n/a
2890861	PROB	n/a	LTP285	ltpFR	11	n/a	n/a	n/a	n/a	n/a	n/a	17	9	2	6	n/a	n/a	n/a	n/a	n/a
2892635	PROB	n/a	LTP285	ltpFR	11	n/a	n/a	n/a	n/a	n/a	n/a	16	6	5	5	n/a	n/a	n/a	n/a	n/a
2893757	PROB	n/a	LTP285	ltpFR	11	n/a	n/a	n/a	n/a	n/a	n/a	19	7	5	7	n/a	n/a	n/a	n/a	n/a
2895762	PROB	n/a	LTP285	ltpFR	11	n/a	n/a	n/a	n/a	n/a	n/a	14	9	2	3	n/a	n/a	n/a	n/a	n/a
2897652	PROB	n/a	LTP285	ltpFR	11	n/a	n/a	n/a	n/a	n/a	n/a	11	1	4	6	n/a	n/a	n/a	n/a	n/a
2898809	PROB	n/a	LTP285	ltpFR	11	n/a	n/a	n/a	n/a	n/a	n/a	20	9	9	2	n/a	n/a	n/a	n/a	n/a
2900702	STOP	n/a	LTP285	ltpFR	11	n/a	n/a	n/a	n/a	n/a	n/a	n/a	n/a	n/a	n/a	n/a	n/a	n/a	n/a	n/a
2903089	WORD	wordpools/wasnorm_wordpool_less_exclusions.txt	LTP285	ltpFR	11	12	1	BEAVER	109	n/a	1	n/a	0	0	0	0	0.5869140625	0.422607421875	lower	../fonts/amplitud.ttf
2906103	START	n/a	LTP285	ltpFR	11	n/a	n/a	n/a	n/a	n/a	n/a	n/a	n/a	n/a	n/a	n/a	n/a	n/a	n/a	n/a
2907039	PROB	n/a	LTP285	ltpFR	11	n/a	n/a	n/a	n/a	n/a	n/a	17	7	6	4	n/a	n/a	n/a	n/a	n/a
2909614	PROB	n/a	LTP285	ltpFR	11	n/a	n/a	n/a	n/a	n/a	n/a	13	5	1	7	n/a	n/a	n/a	n/a	n/a
2911940	PROB	n/a	LTP285	ltpFR	11	n/a	n/a	n/a	n/a	n/a	n/a	21	7	6	9	n/a	n/a	n/a	n/a	n/a
2914784	PROB	n/a	LTP285	ltpFR	11	n/a	n/a	n/a	n/a	n/a	n/a	18	6	9	4	n/a	n/a	n/a	n/a	n/a
2916222	PROB	n/a	LTP285	ltpFR	11	n/a	n/a	n/a	n/a	n/a	n/a	17	6	4	7	n/a	n/a	n/a	n/a	n/a
2917594	PROB	n/a	LTP285	ltpFR	11	n/a	n/a	n/a	n/a	n/a	n/a	17	2	7	8	n/a	n/a	n/a	n/a	n/a
2919503	PROB	n/a	LTP285	ltpFR	11	n/a	n/a	n/a	n/a	n/a	n/a	18	9	8	1	n/a	n/a	n/a	n/a	n/a
2921767	STOP	n/a	LTP285	ltpFR	11	n/a	n/a	n/a	n/a	n/a	n/a	n/a	n/a	n/a	n/a	n/a	n/a	n/a	n/a	n/a
2923301	WORD	wordpools/wasnorm_wordpool_less_exclusions.txt	LTP285	ltpFR	11	12	1	LEAF	808	n/a	0	n/a	0	0	0	0	0.5869140625	0.422607421875	lower	../fonts/amplitud.ttf
2926313	START	n/a	LTP285	ltpFR	11	n/a	n/a	n/a	n/a	n/a	n/a	n/a	n/a	n/a	n/a	n/a	n/a	n/a	n/a	n/a
2927249	PROB	n/a	LTP285	ltpFR	11	n/a	n/a	n/a	n/a	n/a	n/a	18	3	6	9	n/a	n/a	n/a	n/a	n/a
2930043	PROB	n/a	LTP285	ltpFR	11	n/a	n/a	n/a	n/a	n/a	n/a	13	1	7	5	n/a	n/a	n/a	n/a	n/a
2931680	PROB	n/a	LTP285	ltpFR	11	n/a	n/a	n/a	n/a	n/a	n/a	8	1	2	5	n/a	n/a	n/a	n/a	n/a
2933255	PROB	n/a	LTP285	ltpFR	11	n/a	n/a	n/a	n/a	n/a	n/a	10	4	4	2	n/a	n/a	n/a	n/a	n/a
2934895	PROB	n/a	LTP285	ltpFR	11	n/a	n/a	n/a	n/a	n/a	n/a	13	4	1	8	n/a	n/a	n/a	n/a	n/a
2936869	PROB	n/a	LTP285	ltpFR	11	n/a	n/a	n/a	n/a	n/a	n/a	6	2	1	3	n/a	n/a	n/a	n/a	n/a
2939026	PROB	n/a	LTP285	ltpFR	11	n/a	n/a	n/a	n/a	n/a	n/a	18	5	8	5	n/a	n/a	n/a	n/a	n/a
2940463	PROB	n/a	LTP285	ltpFR	11	n/a	n/a	n/a	n/a	n/a	n/a	5	2	1	2	n/a	n/a	n/a	n/a	n/a
2941478	STOP	n/a	LTP285	ltpFR	11	n/a	n/a	n/a	n/a	n/a	n/a	n/a	n/a	n/a	n/a	n/a	n/a	n/a	n/a	n/a
2943175	WORD	wordpools/wasnorm_wordpool_less_exclusions.txt	LTP285	ltpFR	11	12	1	BUSH	202	n/a	0	n/a	0	0	0	0	0.5869140625	0.422607421875	lower	../fonts/amplitud.ttf
2946188	START	n/a	LTP285	ltpFR	11	n/a	n/a	n/a	n/a	n/a	n/a	n/a	n/a	n/a	n/a	n/a	n/a	n/a	n/a	n/a
2947389	PROB	n/a	LTP285	ltpFR	11	n/a	n/a	n/a	n/a	n/a	n/a	17	6	2	9	n/a	n/a	n/a	n/a	n/a
2949098	PROB	n/a	LTP285	ltpFR	11	n/a	n/a	n/a	n/a	n/a	n/a	14	1	4	9	n/a	n/a	n/a	n/a	n/a
2951742	PROB	n/a	LTP285	ltpFR	11	n/a	n/a	n/a	n/a	n/a	n/a	16	9	1	6	n/a	n/a	n/a	n/a	n/a
2952963	PROB	n/a	LTP285	ltpFR	11	n/a	n/a	n/a	n/a	n/a	n/a	23	5	8	8	n/a	n/a	n/a	n/a	n/a
2957461	PROB	n/a	LTP285	ltpFR	11	n/a	n/a	n/a	n/a	n/a	n/a	12	1	3	8	n/a	n/a	n/a	n/a	n/a
2958752	PROB	n/a	LTP285	ltpFR	11	n/a	n/a	n/a	n/a	n/a	n/a	13	3	9	1	n/a	n/a	n/a	n/a	n/a
2962182	STOP	n/a	LTP285	ltpFR	11	n/a	n/a	n/a	n/a	n/a	n/a	n/a	n/a	n/a	n/a	n/a	n/a	n/a	n/a	n/a
2963067	WORD	wordpools/wasnorm_wordpool_less_exclusions.txt	LTP285	ltpFR	11	12	1	WAITER	1580	n/a	1	n/a	0	0	0	0	0.5869140625	0.422607421875	lower	../fonts/amplitud.ttf
2966079	START	n/a	LTP285	ltpFR	11	n/a	n/a	n/a	n/a	n/a	n/a	n/a	n/a	n/a	n/a	n/a	n/a	n/a	n/a	n/a
2966966	PROB	n/a	LTP285	ltpFR	11	n/a	n/a	n/a	n/a	n/a	n/a	18	9	1	8	n/a	n/a	n/a	n/a	n/a
2968134	PROB	n/a	LTP285	ltpFR	11	n/a	n/a	n/a	n/a	n/a	n/a	19	6	6	7	n/a	n/a	n/a	n/a	n/a
2969976	PROB	n/a	LTP285	ltpFR	11	n/a	n/a	n/a	n/a	n/a	n/a	15	5	6	4	n/a	n/a	n/a	n/a	n/a
2971648	PROB	n/a	LTP285	ltpFR	11	n/a	n/a	n/a	n/a	n/a	n/a	21	9	6	6	n/a	n/a	n/a	n/a	n/a
2974026	PROB	n/a	LTP285	ltpFR	11	n/a	n/a	n/a	n/a	n/a	n/a	24	8	7	9	n/a	n/a	n/a	n/a	n/a
2976835	PROB	n/a	LTP285	ltpFR	11	n/a	n/a	n/a	n/a	n/a	n/a	7	3	2	2	n/a	n/a	n/a	n/a	n/a
2978759	PROB	n/a	LTP285	ltpFR	11	n/a	n/a	n/a	n/a	n/a	n/a	14	6	5	3	n/a	n/a	n/a	n/a	n/a
2981414	STOP	n/a	LTP285	ltpFR	11	n/a	n/a	n/a	n/a	n/a	n/a	n/a	n/a	n/a	n/a	n/a	n/a	n/a	n/a	n/a
2982926	WORD	wordpools/wasnorm_wordpool_less_exclusions.txt	LTP285	ltpFR	11	12	1	BANQUET	86	n/a	0	n/a	0	0	0	0	0.5869140625	0.422607421875	lower	../fonts/amplitud.ttf
2985938	START	n/a	LTP285	ltpFR	11	n/a	n/a	n/a	n/a	n/a	n/a	n/a	n/a	n/a	n/a	n/a	n/a	n/a	n/a	n/a
2987025	PROB	n/a	LTP285	ltpFR	11	n/a	n/a	n/a	n/a	n/a	n/a	12	6	2	3	n/a	n/a	n/a	n/a	n/a
2988578	PROB	n/a	LTP285	ltpFR	11	n/a	n/a	n/a	n/a	n/a	n/a	12	7	3	2	n/a	n/a	n/a	n/a	n/a
2989719	PROB	n/a	LTP285	ltpFR	11	n/a	n/a	n/a	n/a	n/a	n/a	18	4	9	5	n/a	n/a	n/a	n/a	n/a
2992394	PROB	n/a	LTP285	ltpFR	11	n/a	n/a	n/a	n/a	n/a	n/a	1	9	1	1	n/a	n/a	n/a	n/a	n/a
2995640	PROB	n/a	LTP285	ltpFR	11	n/a	n/a	n/a	n/a	n/a	n/a	12	9	1	2	n/a	n/a	n/a	n/a	n/a
2997413	PROB	n/a	LTP285	ltpFR	11	n/a	n/a	n/a	n/a	n/a	n/a	15	7	5	6	n/a	n/a	n/a	n/a	n/a
2999705	PROB	n/a	LTP285	ltpFR	11	n/a	n/a	n/a	n/a	n/a	n/a	4	1	1	2	n/a	n/a	n/a	n/a	n/a
3000678	STOP	n/a	LTP285	ltpFR	11	n/a	n/a	n/a	n/a	n/a	n/a	n/a	n/a	n/a	n/a	n/a	n/a	n/a	n/a	n/a
3002818	WORD	wordpools/wasnorm_wordpool_less_exclusions.txt	LTP285	ltpFR	11	12	1	MILK	895	n/a	0	n/a	0	0	0	0	0.5869140625	0.422607421875	lower	../fonts/amplitud.ttf
3005830	START	n/a	LTP285	ltpFR	11	n/a	n/a	n/a	n/a	n/a	n/a	n/a	n/a	n/a	n/a	n/a	n/a	n/a	n/a	n/a
3006883	PROB	n/a	LTP285	ltpFR	11	n/a	n/a	n/a	n/a	n/a	n/a	12	5	2	5	n/a	n/a	n/a	n/a	n/a
3008503	PROB	n/a	LTP285	ltpFR	11	n/a	n/a	n/a	n/a	n/a	n/a	7	1	1	5	n/a	n/a	n/a	n/a	n/a
3009624	PROB	n/a	LTP285	ltpFR	11	n/a	n/a	n/a	n/a	n/a	n/a	16	6	5	5	n/a	n/a	n/a	n/a	n/a
3011230	PROB	n/a	LTP285	ltpFR	11	n/a	n/a	n/a	n/a	n/a	n/a	16	1	5	9	n/a	n/a	n/a	n/a	n/a
3012906	PROB	n/a	LTP285	ltpFR	11	n/a	n/a	n/a	n/a	n/a	n/a	13	6	1	6	n/a	n/a	n/a	n/a	n/a
3014878	PROB	n/a	LTP285	ltpFR	11	n/a	n/a	n/a	n/a	n/a	n/a	7	5	1	1	n/a	n/a	n/a	n/a	n/a
3015917	PROB	n/a	LTP285	ltpFR	11	n/a	n/a	n/a	n/a	n/a	n/a	24	9	7	8	n/a	n/a	n/a	n/a	n/a
3019497	PROB	n/a	LTP285	ltpFR	11	n/a	n/a	n/a	n/a	n/a	n/a	12	5	5	2	n/a	n/a	n/a	n/a	n/a
3020438	STOP	n/a	LTP285	ltpFR	11	n/a	n/a	n/a	n/a	n/a	n/a	n/a	n/a	n/a	n/a	n/a	n/a	n/a	n/a	n/a
3022877	WORD	wordpools/wasnorm_wordpool_less_exclusions.txt	LTP285	ltpFR	11	12	1	CARTON	251	n/a	0	n/a	0	0	0	0	0.5869140625	0.422607421875	lower	../fonts/amplitud.ttf
3025889	START	n/a	LTP285	ltpFR	11	n/a	n/a	n/a	n/a	n/a	n/a	n/a	n/a	n/a	n/a	n/a	n/a	n/a	n/a	n/a
3026959	PROB	n/a	LTP285	ltpFR	11	n/a	n/a	n/a	n/a	n/a	n/a	20	8	7	5	n/a	n/a	n/a	n/a	n/a
3030220	PROB	n/a	LTP285	ltpFR	11	n/a	n/a	n/a	n/a	n/a	n/a	22	7	6	9	n/a	n/a	n/a	n/a	n/a
3032596	PROB	n/a	LTP285	ltpFR	11	n/a	n/a	n/a	n/a	n/a	n/a	12	3	3	6	n/a	n/a	n/a	n/a	n/a
3033883	PROB	n/a	LTP285	ltpFR	11	n/a	n/a	n/a	n/a	n/a	n/a	19	2	9	8	n/a	n/a	n/a	n/a	n/a
3036594	PROB	n/a	LTP285	ltpFR	11	n/a	n/a	n/a	n/a	n/a	n/a	4	1	1	2	n/a	n/a	n/a	n/a	n/a
3037596	PROB	n/a	LTP285	ltpFR	11	n/a	n/a	n/a	n/a	n/a	n/a	7	1	1	5	n/a	n/a	n/a	n/a	n/a
3038720	PROB	n/a	LTP285	ltpFR	11	n/a	n/a	n/a	n/a	n/a	n/a	12	1	2	9	n/a	n/a	n/a	n/a	n/a
3040983	STOP	n/a	LTP285	ltpFR	11	n/a	n/a	n/a	n/a	n/a	n/a	n/a	n/a	n/a	n/a	n/a	n/a	n/a	n/a	n/a
3043083	WORD	wordpools/wasnorm_wordpool_less_exclusions.txt	LTP285	ltpFR	11	12	1	TOTE	1487	n/a	0	n/a	0	0	0	0	0.5869140625	0.422607421875	lower	../fonts/amplitud.ttf
3046097	START	n/a	LTP285	ltpFR	11	n/a	n/a	n/a	n/a	n/a	n/a	n/a	n/a	n/a	n/a	n/a	n/a	n/a	n/a	n/a
3047101	PROB	n/a	LTP285	ltpFR	11	n/a	n/a	n/a	n/a	n/a	n/a	1	9	4	2	n/a	n/a	n/a	n/a	n/a
3049541	PROB	n/a	LTP285	ltpFR	11	n/a	n/a	n/a	n/a	n/a	n/a	22	7	8	7	n/a	n/a	n/a	n/a	n/a
3052536	PROB	n/a	LTP285	ltpFR	11	n/a	n/a	n/a	n/a	n/a	n/a	11	4	5	2	n/a	n/a	n/a	n/a	n/a
3054041	PROB	n/a	LTP285	ltpFR	11	n/a	n/a	n/a	n/a	n/a	n/a	14	7	2	5	n/a	n/a	n/a	n/a	n/a
3055834	PROB	n/a	LTP285	ltpFR	11	n/a	n/a	n/a	n/a	n/a	n/a	5	1	3	1	n/a	n/a	n/a	n/a	n/a
3056905	PROB	n/a	LTP285	ltpFR	11	n/a	n/a	n/a	n/a	n/a	n/a	12	3	8	1	n/a	n/a	n/a	n/a	n/a
3062096	STOP	n/a	LTP285	ltpFR	11	n/a	n/a	n/a	n/a	n/a	n/a	n/a	n/a	n/a	n/a	n/a	n/a	n/a	n/a	n/a
3062928	WORD	wordpools/wasnorm_wordpool_less_exclusions.txt	LTP285	ltpFR	11	12	1	DISHWASHER	475	n/a	0	n/a	0	0	0	0	0.5869140625	0.422607421875	lower	../fonts/amplitud.ttf
3065940	START	n/a	LTP285	ltpFR	11	n/a	n/a	n/a	n/a	n/a	n/a	n/a	n/a	n/a	n/a	n/a	n/a	n/a	n/a	n/a
3066926	PROB	n/a	LTP285	ltpFR	11	n/a	n/a	n/a	n/a	n/a	n/a	20	4	9	7	n/a	n/a	n/a	n/a	n/a
3068984	PROB	n/a	LTP285	ltpFR	11	n/a	n/a	n/a	n/a	n/a	n/a	17	1	9	7	n/a	n/a	n/a	n/a	n/a
3070370	PROB	n/a	LTP285	ltpFR	11	n/a	n/a	n/a	n/a	n/a	n/a	13	1	8	4	n/a	n/a	n/a	n/a	n/a
3071693	PROB	n/a	LTP285	ltpFR	11	n/a	n/a	n/a	n/a	n/a	n/a	17	1	7	9	n/a	n/a	n/a	n/a	n/a
3073333	PROB	n/a	LTP285	ltpFR	11	n/a	n/a	n/a	n/a	n/a	n/a	20	7	7	6	n/a	n/a	n/a	n/a	n/a
3074990	PROB	n/a	LTP285	ltpFR	11	n/a	n/a	n/a	n/a	n/a	n/a	16	5	4	7	n/a	n/a	n/a	n/a	n/a
3076461	PROB	n/a	LTP285	ltpFR	11	n/a	n/a	n/a	n/a	n/a	n/a	22	8	5	9	n/a	n/a	n/a	n/a	n/a
3081939	STOP	n/a	LTP285	ltpFR	11	n/a	n/a	n/a	n/a	n/a	n/a	n/a	n/a	n/a	n/a	n/a	n/a	n/a	n/a	n/a
3082836	WORD	wordpools/wasnorm_wordpool_less_exclusions.txt	LTP285	ltpFR	11	12	1	SIDING	1304	n/a	0	n/a	0	0	0	0	0.5869140625	0.422607421875	lower	../fonts/amplitud.ttf
3085848	START	n/a	LTP285	ltpFR	11	n/a	n/a	n/a	n/a	n/a	n/a	n/a	n/a	n/a	n/a	n/a	n/a	n/a	n/a	n/a
3087049	PROB	n/a	LTP285	ltpFR	11	n/a	n/a	n/a	n/a	n/a	n/a	14	2	6	6	n/a	n/a	n/a	n/a	n/a
3089494	PROB	n/a	LTP285	ltpFR	11	n/a	n/a	n/a	n/a	n/a	n/a	13	3	5	5	n/a	n/a	n/a	n/a	n/a
3090848	PROB	n/a	LTP285	ltpFR	11	n/a	n/a	n/a	n/a	n/a	n/a	19	8	3	7	n/a	n/a	n/a	n/a	n/a
3092471	PROB	n/a	LTP285	ltpFR	11	n/a	n/a	n/a	n/a	n/a	n/a	9	4	4	1	n/a	n/a	n/a	n/a	n/a
3093978	PROB	n/a	LTP285	ltpFR	11	n/a	n/a	n/a	n/a	n/a	n/a	14	9	4	1	n/a	n/a	n/a	n/a	n/a
3095265	PROB	n/a	LTP285	ltpFR	11	n/a	n/a	n/a	n/a	n/a	n/a	11	1	4	6	n/a	n/a	n/a	n/a	n/a
3096687	PROB	n/a	LTP285	ltpFR	11	n/a	n/a	n/a	n/a	n/a	n/a	6	3	2	1	n/a	n/a	n/a	n/a	n/a
3097958	PROB	n/a	LTP285	ltpFR	11	n/a	n/a	n/a	n/a	n/a	n/a	7	5	1	2	n/a	n/a	n/a	n/a	n/a
3099680	PROB	n/a	LTP285	ltpFR	11	n/a	n/a	n/a	n/a	n/a	n/a	17	7	9	1	n/a	n/a	n/a	n/a	n/a
3101070	STOP	n/a	LTP285	ltpFR	11	n/a	n/a	n/a	n/a	n/a	n/a	n/a	n/a	n/a	n/a	n/a	n/a	n/a	n/a	n/a
