onset	duration	trial_type	sample	stim_file	subject	experiment	session	trial	task	item_name	item_num	recog_resp	recog_conf	resp	color_r	color_g	color_b	case	font
278.688	n/a	SESS_START	139344	n/a	LTP193	ltpFR	0	n/a	n/a	n/a	n/a	0	n/a	n/a	n/a	n/a	n/a	n/a	n/a
455.85	n/a	WORD	227925	wordpools/wasnorm_wordpool_less_exclusions.txt	LTP193	ltpFR	0	1	-1	GUARD	667	n/a	n/a	-1	1.0	1.0	1	upper	Verdana.ttf
460.066	n/a	WORD	230033	wordpools/wasnorm_wordpool_less_exclusions.txt	LTP193	ltpFR	0	1	-1	WARRIOR	1589	n/a	n/a	-1	1.0	1.0	1	upper	Verdana.ttf
464.248	n/a	WORD	232124	wordpools/wasnorm_wordpool_less_exclusions.txt	LTP193	ltpFR	0	1	-1	KANGAROO	768	n/a	n/a	-1	1.0	1.0	1	upper	Verdana.ttf
468.38	n/a	WORD	234190	wordpools/wasnorm_wordpool_less_exclusions.txt	LTP193	ltpFR	0	1	-1	FACTORY	548	n/a	n/a	-1	1.0	1.0	1	upper	Verdana.ttf
472.546	n/a	WORD	236273	wordpools/wasnorm_wordpool_less_exclusions.txt	LTP193	ltpFR	0	1	-1	APARTMENT	30	n/a	n/a	-1	1.0	1.0	1	upper	Verdana.ttf
476.376	n/a	WORD	238188	wordpools/wasnorm_wordpool_less_exclusions.txt	LTP193	ltpFR	0	1	-1	COLT	349	n/a	n/a	-1	1.0	1.0	1	upper	Verdana.ttf
480.342	n/a	WORD	240171	wordpools/wasnorm_wordpool_less_exclusions.txt	LTP193	ltpFR	0	1	-1	TEAPOT	1442	n/a	n/a	-1	1.0	1.0	1	upper	Verdana.ttf
484.242	n/a	WORD	242121	wordpools/wasnorm_wordpool_less_exclusions.txt	LTP193	ltpFR	0	1	-1	TEA	1439	n/a	n/a	-1	1.0	1.0	1	upper	Verdana.ttf
488.156	n/a	WORD	244078	wordpools/wasnorm_wordpool_less_exclusions.txt	LTP193	ltpFR	0	1	-1	SADDLE	1221	n/a	n/a	-1	1.0	1.0	1	upper	Verdana.ttf
492.138	n/a	WORD	246069	wordpools/wasnorm_wordpool_less_exclusions.txt	LTP193	ltpFR	0	1	-1	COOKIE	374	n/a	n/a	-1	1.0	1.0	1	upper	Verdana.ttf
496.002	n/a	WORD	248001	wordpools/wasnorm_wordpool_less_exclusions.txt	LTP193	ltpFR	0	1	-1	BLUEPRINT	142	n/a	n/a	-1	1.0	1.0	1	upper	Verdana.ttf
500.152	n/a	WORD	250076	wordpools/wasnorm_wordpool_less_exclusions.txt	LTP193	ltpFR	0	1	-1	WASHCLOTH	1591	n/a	n/a	-1	1.0	1.0	1	upper	Verdana.ttf
504.218	n/a	WORD	252109	wordpools/wasnorm_wordpool_less_exclusions.txt	LTP193	ltpFR	0	1	-1	BATHTUB	100	n/a	n/a	-1	1.0	1.0	1	upper	Verdana.ttf
508.432	n/a	WORD	254216	wordpools/wasnorm_wordpool_less_exclusions.txt	LTP193	ltpFR	0	1	-1	CREEK	404	n/a	n/a	-1	1.0	1.0	1	upper	Verdana.ttf
512.598	n/a	WORD	256299	wordpools/wasnorm_wordpool_less_exclusions.txt	LTP193	ltpFR	0	1	-1	ALLIGATOR	16	n/a	n/a	-1	1.0	1.0	1	upper	Verdana.ttf
516.732	n/a	WORD	258366	wordpools/wasnorm_wordpool_less_exclusions.txt	LTP193	ltpFR	0	1	-1	SNORKEL	1336	n/a	n/a	-1	1.0	1.0	1	upper	Verdana.ttf
522.588	n/a	REC_START	261294	n/a	LTP193	ltpFR	0	1	n/a	n/a	n/a	n/a	n/a	n/a	n/a	n/a	n/a	n/a	n/a
523.246	n/a	REC_WORD	261623	wordpools/wasnorm_wordpool_less_exclusions.txt	LTP193	ltpFR	0	1	-1	SNORKEL	1336	n/a	n/a	-1	n/a	n/a	n/a	n/a	n/a
524.522	n/a	REC_WORD	262261	wordpools/wasnorm_wordpool_less_exclusions.txt	LTP193	ltpFR	0	1	-1	ALLIGATOR	16	n/a	n/a	-1	n/a	n/a	n/a	n/a	n/a
526.0	n/a	REC_WORD	263000	wordpools/wasnorm_wordpool_less_exclusions.txt	LTP193	ltpFR	0	1	-1	TEA	1439	n/a	n/a	-1	n/a	n/a	n/a	n/a	n/a
527.526	n/a	REC_WORD	263763	wordpools/wasnorm_wordpool_less_exclusions.txt	LTP193	ltpFR	0	1	-1	TEAPOT	1442	n/a	n/a	-1	n/a	n/a	n/a	n/a	n/a
528.978	n/a	REC_WORD	264489	wordpools/wasnorm_wordpool_less_exclusions.txt	LTP193	ltpFR	0	1	-1	KANGAROO	768	n/a	n/a	-1	n/a	n/a	n/a	n/a	n/a
530.828	n/a	REC_WORD	265414	wordpools/wasnorm_wordpool_less_exclusions.txt	LTP193	ltpFR	0	1	-1	WARRIOR	1589	n/a	n/a	-1	n/a	n/a	n/a	n/a	n/a
532.6	n/a	REC_WORD	266300	wordpools/wasnorm_wordpool_less_exclusions.txt	LTP193	ltpFR	0	1	-1	COLT	349	n/a	n/a	-1	n/a	n/a	n/a	n/a	n/a
534.042	n/a	REC_WORD	267021	wordpools/wasnorm_wordpool_less_exclusions.txt	LTP193	ltpFR	0	1	-1	SADDLE	1221	n/a	n/a	-1	n/a	n/a	n/a	n/a	n/a
536.67	n/a	REC_WORD	268335	wordpools/wasnorm_wordpool_less_exclusions.txt	LTP193	ltpFR	0	1	-1	CREEK	404	n/a	n/a	-1	n/a	n/a	n/a	n/a	n/a
540.886	n/a	REC_WORD_VV	270443	wordpools/wasnorm_wordpool_less_exclusions.txt	LTP193	ltpFR	0	1	n/a	<>	-1	n/a	n/a	n/a	n/a	n/a	n/a	n/a	n/a
541.886	n/a	REC_WORD_VV	270943	wordpools/wasnorm_wordpool_less_exclusions.txt	LTP193	ltpFR	0	1	n/a	<>	-1	n/a	n/a	n/a	n/a	n/a	n/a	n/a	n/a
544.404	n/a	REC_WORD	272202	wordpools/wasnorm_wordpool_less_exclusions.txt	LTP193	ltpFR	0	1	-1	FACTORY	548	n/a	n/a	-1	n/a	n/a	n/a	n/a	n/a
546.474	n/a	REC_WORD	273237	wordpools/wasnorm_wordpool_less_exclusions.txt	LTP193	ltpFR	0	1	-1	BLUEPRINT	142	n/a	n/a	-1	n/a	n/a	n/a	n/a	n/a
554.466	n/a	REC_WORD	277233	wordpools/wasnorm_wordpool_less_exclusions.txt	LTP193	ltpFR	0	1	-1	COOKIE	374	n/a	n/a	-1	n/a	n/a	n/a	n/a	n/a
628.492	n/a	WORD	314246	wordpools/wasnorm_wordpool_less_exclusions.txt	LTP193	ltpFR	0	2	-1	PADDLE	1000	n/a	n/a	-1	1.0	1.0	1	upper	Verdana.ttf
632.374	n/a	WORD	316187	wordpools/wasnorm_wordpool_less_exclusions.txt	LTP193	ltpFR	0	2	-1	KETTLE	772	n/a	n/a	-1	1.0	1.0	1	upper	Verdana.ttf
636.522	n/a	WORD	318261	wordpools/wasnorm_wordpool_less_exclusions.txt	LTP193	ltpFR	0	2	-1	COOKBOOK	373	n/a	n/a	-1	1.0	1.0	1	upper	Verdana.ttf
640.438	n/a	WORD	320219	wordpools/wasnorm_wordpool_less_exclusions.txt	LTP193	ltpFR	0	2	-1	TABLET	1427	n/a	n/a	-1	1.0	1.0	1	upper	Verdana.ttf
644.64	n/a	WORD	322320	wordpools/wasnorm_wordpool_less_exclusions.txt	LTP193	ltpFR	0	2	-1	MESSAGE	888	n/a	n/a	-1	1.0	1.0	1	upper	Verdana.ttf
648.736	n/a	WORD	324368	wordpools/wasnorm_wordpool_less_exclusions.txt	LTP193	ltpFR	0	2	-1	MONKEY	911	n/a	n/a	-1	1.0	1.0	1	upper	Verdana.ttf
652.6	n/a	WORD	326300	wordpools/wasnorm_wordpool_less_exclusions.txt	LTP193	ltpFR	0	2	-1	COWBOY	395	n/a	n/a	-1	1.0	1.0	1	upper	Verdana.ttf
656.532	n/a	WORD	328266	wordpools/wasnorm_wordpool_less_exclusions.txt	LTP193	ltpFR	0	2	-1	LIGHTNING	820	n/a	n/a	-1	1.0	1.0	1	upper	Verdana.ttf
660.364	n/a	WORD	330182	wordpools/wasnorm_wordpool_less_exclusions.txt	LTP193	ltpFR	0	2	-1	HAIL	676	n/a	n/a	-1	1.0	1.0	1	upper	Verdana.ttf
664.396	n/a	WORD	332198	wordpools/wasnorm_wordpool_less_exclusions.txt	LTP193	ltpFR	0	2	-1	VESSEL	1558	n/a	n/a	-1	1.0	1.0	1	upper	Verdana.ttf
668.362	n/a	WORD	334181	wordpools/wasnorm_wordpool_less_exclusions.txt	LTP193	ltpFR	0	2	-1	TAXI	1438	n/a	n/a	-1	1.0	1.0	1	upper	Verdana.ttf
672.41	n/a	WORD	336205	wordpools/wasnorm_wordpool_less_exclusions.txt	LTP193	ltpFR	0	2	-1	HAYSTACK	694	n/a	n/a	-1	1.0	1.0	1	upper	Verdana.ttf
676.392	n/a	WORD	338196	wordpools/wasnorm_wordpool_less_exclusions.txt	LTP193	ltpFR	0	2	-1	CONCERT	360	n/a	n/a	-1	1.0	1.0	1	upper	Verdana.ttf
680.49	n/a	WORD	340245	wordpools/wasnorm_wordpool_less_exclusions.txt	LTP193	ltpFR	0	2	-1	GUITAR	670	n/a	n/a	-1	1.0	1.0	1	upper	Verdana.ttf
684.444	n/a	WORD	342222	wordpools/wasnorm_wordpool_less_exclusions.txt	LTP193	ltpFR	0	2	-1	SHEET	1279	n/a	n/a	-1	1.0	1.0	1	upper	Verdana.ttf
688.42	n/a	WORD	344210	wordpools/wasnorm_wordpool_less_exclusions.txt	LTP193	ltpFR	0	2	-1	TAR	1435	n/a	n/a	-1	1.0	1.0	1	upper	Verdana.ttf
694.178	n/a	REC_START	347089	n/a	LTP193	ltpFR	0	2	n/a	n/a	n/a	n/a	n/a	n/a	n/a	n/a	n/a	n/a	n/a
695.136	n/a	REC_WORD	347568	wordpools/wasnorm_wordpool_less_exclusions.txt	LTP193	ltpFR	0	2	-1	TAR	1435	n/a	n/a	-1	n/a	n/a	n/a	n/a	n/a
696.322	n/a	REC_WORD	348161	wordpools/wasnorm_wordpool_less_exclusions.txt	LTP193	ltpFR	0	2	-1	HAYSTACK	694	n/a	n/a	-1	n/a	n/a	n/a	n/a	n/a
697.76	n/a	REC_WORD	348880	wordpools/wasnorm_wordpool_less_exclusions.txt	LTP193	ltpFR	0	2	-1	MONKEY	911	n/a	n/a	-1	n/a	n/a	n/a	n/a	n/a
699.096	n/a	REC_WORD	349548	wordpools/wasnorm_wordpool_less_exclusions.txt	LTP193	ltpFR	0	2	-1	PADDLE	1000	n/a	n/a	-1	n/a	n/a	n/a	n/a	n/a
700.632	n/a	REC_WORD	350316	wordpools/wasnorm_wordpool_less_exclusions.txt	LTP193	ltpFR	0	2	-1	TABLET	1427	n/a	n/a	-1	n/a	n/a	n/a	n/a	n/a
702.074	n/a	REC_WORD	351037	wordpools/wasnorm_wordpool_less_exclusions.txt	LTP193	ltpFR	0	2	-1	LIGHTNING	820	n/a	n/a	-1	n/a	n/a	n/a	n/a	n/a
703.636	n/a	REC_WORD	351818	wordpools/wasnorm_wordpool_less_exclusions.txt	LTP193	ltpFR	0	2	-1	MESSAGE	888	n/a	n/a	-1	n/a	n/a	n/a	n/a	n/a
709.22	n/a	REC_WORD	354610	wordpools/wasnorm_wordpool_less_exclusions.txt	LTP193	ltpFR	0	2	-1	CONCERT	360	n/a	n/a	-1	n/a	n/a	n/a	n/a	n/a
710.506	n/a	REC_WORD	355253	wordpools/wasnorm_wordpool_less_exclusions.txt	LTP193	ltpFR	0	2	-1	GUITAR	670	n/a	n/a	-1	n/a	n/a	n/a	n/a	n/a
714.292	n/a	REC_WORD	357146	wordpools/wasnorm_wordpool_less_exclusions.txt	LTP193	ltpFR	0	2	-1	KETTLE	772	n/a	n/a	-1	n/a	n/a	n/a	n/a	n/a
715.718	n/a	REC_WORD	357859	wordpools/wasnorm_wordpool_less_exclusions.txt	LTP193	ltpFR	0	2	-1	COOKBOOK	373	n/a	n/a	-1	n/a	n/a	n/a	n/a	n/a
745.128	n/a	REC_WORD	372564	wordpools/wasnorm_wordpool_less_exclusions.txt	LTP193	ltpFR	0	2	-1	TAR	1435	n/a	n/a	-1	n/a	n/a	n/a	n/a	n/a
746.726	n/a	REC_WORD	373363	wordpools/wasnorm_wordpool_less_exclusions.txt	LTP193	ltpFR	0	2	-1	HAYSTACK	694	n/a	n/a	-1	n/a	n/a	n/a	n/a	n/a
782.546	n/a	WORD	391273	wordpools/wasnorm_wordpool_less_exclusions.txt	LTP193	ltpFR	0	3	-1	CLIFF	322	n/a	n/a	-1	1.0	1.0	1	upper	Verdana.ttf
786.428	n/a	WORD	393214	wordpools/wasnorm_wordpool_less_exclusions.txt	LTP193	ltpFR	0	3	-1	RAKE	1164	n/a	n/a	-1	1.0	1.0	1	upper	Verdana.ttf
790.53	n/a	WORD	395265	wordpools/wasnorm_wordpool_less_exclusions.txt	LTP193	ltpFR	0	3	-1	PERISCOPE	1050	n/a	n/a	-1	1.0	1.0	1	upper	Verdana.ttf
794.592	n/a	WORD	397296	wordpools/wasnorm_wordpool_less_exclusions.txt	LTP193	ltpFR	0	3	-1	MICROSCOPE	891	n/a	n/a	-1	1.0	1.0	1	upper	Verdana.ttf
798.726	n/a	WORD	399363	wordpools/wasnorm_wordpool_less_exclusions.txt	LTP193	ltpFR	0	3	-1	JUNGLE	764	n/a	n/a	-1	1.0	1.0	1	upper	Verdana.ttf
802.642	n/a	WORD	401321	wordpools/wasnorm_wordpool_less_exclusions.txt	LTP193	ltpFR	0	3	-1	COLESLAW	344	n/a	n/a	-1	1.0	1.0	1	upper	Verdana.ttf
806.658	n/a	WORD	403329	wordpools/wasnorm_wordpool_less_exclusions.txt	LTP193	ltpFR	0	3	-1	GAVEL	627	n/a	n/a	-1	1.0	1.0	1	upper	Verdana.ttf
810.524	n/a	WORD	405262	wordpools/wasnorm_wordpool_less_exclusions.txt	LTP193	ltpFR	0	3	-1	CABOOSE	214	n/a	n/a	-1	1.0	1.0	1	upper	Verdana.ttf
814.436	n/a	WORD	407218	wordpools/wasnorm_wordpool_less_exclusions.txt	LTP193	ltpFR	0	3	-1	OVEN	991	n/a	n/a	-1	1.0	1.0	1	upper	Verdana.ttf
818.316	n/a	WORD	409158	wordpools/wasnorm_wordpool_less_exclusions.txt	LTP193	ltpFR	0	3	-1	CHICKEN	297	n/a	n/a	-1	1.0	1.0	1	upper	Verdana.ttf
822.3	n/a	WORD	411150	wordpools/wasnorm_wordpool_less_exclusions.txt	LTP193	ltpFR	0	3	-1	VICTOR	1563	n/a	n/a	-1	1.0	1.0	1	upper	Verdana.ttf
826.148	n/a	WORD	413074	wordpools/wasnorm_wordpool_less_exclusions.txt	LTP193	ltpFR	0	3	-1	LUMBER	848	n/a	n/a	-1	1.0	1.0	1	upper	Verdana.ttf
830.312	n/a	WORD	415156	wordpools/wasnorm_wordpool_less_exclusions.txt	LTP193	ltpFR	0	3	-1	TOASTER	1472	n/a	n/a	-1	1.0	1.0	1	upper	Verdana.ttf
834.478	n/a	WORD	417239	wordpools/wasnorm_wordpool_less_exclusions.txt	LTP193	ltpFR	0	3	-1	CHEF	290	n/a	n/a	-1	1.0	1.0	1	upper	Verdana.ttf
838.46	n/a	WORD	419230	wordpools/wasnorm_wordpool_less_exclusions.txt	LTP193	ltpFR	0	3	-1	POTATO	1115	n/a	n/a	-1	1.0	1.0	1	upper	Verdana.ttf
842.494	n/a	WORD	421247	wordpools/wasnorm_wordpool_less_exclusions.txt	LTP193	ltpFR	0	3	-1	SALAD	1224	n/a	n/a	-1	1.0	1.0	1	upper	Verdana.ttf
848.25	n/a	REC_START	424125	n/a	LTP193	ltpFR	0	3	n/a	n/a	n/a	n/a	n/a	n/a	n/a	n/a	n/a	n/a	n/a
849.118	n/a	REC_WORD	424559	wordpools/wasnorm_wordpool_less_exclusions.txt	LTP193	ltpFR	0	3	-1	POTATO	1115	n/a	n/a	-1	n/a	n/a	n/a	n/a	n/a
850.154	n/a	REC_WORD	425077	wordpools/wasnorm_wordpool_less_exclusions.txt	LTP193	ltpFR	0	3	-1	SALAD	1224	n/a	n/a	-1	n/a	n/a	n/a	n/a	n/a
851.482	n/a	REC_WORD	425741	wordpools/wasnorm_wordpool_less_exclusions.txt	LTP193	ltpFR	0	3	-1	OVEN	991	n/a	n/a	-1	n/a	n/a	n/a	n/a	n/a
852.794	n/a	REC_WORD	426397	wordpools/wasnorm_wordpool_less_exclusions.txt	LTP193	ltpFR	0	3	-1	COLESLAW	344	n/a	n/a	-1	n/a	n/a	n/a	n/a	n/a
854.15	n/a	REC_WORD	427075	wordpools/wasnorm_wordpool_less_exclusions.txt	LTP193	ltpFR	0	3	-1	JUNGLE	764	n/a	n/a	-1	n/a	n/a	n/a	n/a	n/a
855.428	n/a	REC_WORD	427714	wordpools/wasnorm_wordpool_less_exclusions.txt	LTP193	ltpFR	0	3	-1	PERISCOPE	1050	n/a	n/a	-1	n/a	n/a	n/a	n/a	n/a
856.97	n/a	REC_WORD	428485	wordpools/wasnorm_wordpool_less_exclusions.txt	LTP193	ltpFR	0	3	n/a	TELESCOPE	1446	n/a	n/a	n/a	n/a	n/a	n/a	n/a	n/a
858.482	n/a	REC_WORD	429241	wordpools/wasnorm_wordpool_less_exclusions.txt	LTP193	ltpFR	0	3	-1	CABOOSE	214	n/a	n/a	-1	n/a	n/a	n/a	n/a	n/a
859.994	n/a	REC_WORD	429997	wordpools/wasnorm_wordpool_less_exclusions.txt	LTP193	ltpFR	0	3	-1	CLIFF	322	n/a	n/a	-1	n/a	n/a	n/a	n/a	n/a
861.536	n/a	REC_WORD	430768	wordpools/wasnorm_wordpool_less_exclusions.txt	LTP193	ltpFR	0	3	-1	RAKE	1164	n/a	n/a	-1	n/a	n/a	n/a	n/a	n/a
862.822	n/a	REC_WORD	431411	wordpools/wasnorm_wordpool_less_exclusions.txt	LTP193	ltpFR	0	3	-1	GAVEL	627	n/a	n/a	-1	n/a	n/a	n/a	n/a	n/a
939.012	n/a	WORD	469506	wordpools/wasnorm_wordpool_less_exclusions.txt	LTP193	ltpFR	0	4	-1	CUP	424	n/a	n/a	-1	1.0	1.0	1	upper	Verdana.ttf
943.114	n/a	WORD	471557	wordpools/wasnorm_wordpool_less_exclusions.txt	LTP193	ltpFR	0	4	-1	DICE	461	n/a	n/a	-1	1.0	1.0	1	upper	Verdana.ttf
947.228	n/a	WORD	473614	wordpools/wasnorm_wordpool_less_exclusions.txt	LTP193	ltpFR	0	4	-1	HERO	706	n/a	n/a	-1	1.0	1.0	1	upper	Verdana.ttf
951.328	n/a	WORD	475664	wordpools/wasnorm_wordpool_less_exclusions.txt	LTP193	ltpFR	0	4	-1	TELEPHONE	1445	n/a	n/a	-1	1.0	1.0	1	upper	Verdana.ttf
955.258	n/a	WORD	477629	wordpools/wasnorm_wordpool_less_exclusions.txt	LTP193	ltpFR	0	4	-1	CAGE	218	n/a	n/a	-1	1.0	1.0	1	upper	Verdana.ttf
959.122	n/a	WORD	479561	wordpools/wasnorm_wordpool_less_exclusions.txt	LTP193	ltpFR	0	4	-1	CONSOLE	364	n/a	n/a	-1	1.0	1.0	1	upper	Verdana.ttf
963.172	n/a	WORD	481586	wordpools/wasnorm_wordpool_less_exclusions.txt	LTP193	ltpFR	0	4	-1	COYOTE	396	n/a	n/a	-1	1.0	1.0	1	upper	Verdana.ttf
967.11	n/a	WORD	483555	wordpools/wasnorm_wordpool_less_exclusions.txt	LTP193	ltpFR	0	4	-1	BOOTH	151	n/a	n/a	-1	1.0	1.0	1	upper	Verdana.ttf
971.256	n/a	WORD	485628	wordpools/wasnorm_wordpool_less_exclusions.txt	LTP193	ltpFR	0	4	-1	FEATHER	557	n/a	n/a	-1	1.0	1.0	1	upper	Verdana.ttf
975.318	n/a	WORD	487659	wordpools/wasnorm_wordpool_less_exclusions.txt	LTP193	ltpFR	0	4	-1	CUE	422	n/a	n/a	-1	1.0	1.0	1	upper	Verdana.ttf
979.316	n/a	WORD	489658	wordpools/wasnorm_wordpool_less_exclusions.txt	LTP193	ltpFR	0	4	-1	CRYSTAL	418	n/a	n/a	-1	1.0	1.0	1	upper	Verdana.ttf
983.198	n/a	WORD	491599	wordpools/wasnorm_wordpool_less_exclusions.txt	LTP193	ltpFR	0	4	-1	WHEAT	1602	n/a	n/a	-1	1.0	1.0	1	upper	Verdana.ttf
987.33	n/a	WORD	493665	wordpools/wasnorm_wordpool_less_exclusions.txt	LTP193	ltpFR	0	4	-1	OATMEAL	967	n/a	n/a	-1	1.0	1.0	1	upper	Verdana.ttf
991.498	n/a	WORD	495749	wordpools/wasnorm_wordpool_less_exclusions.txt	LTP193	ltpFR	0	4	-1	TANGERINE	1431	n/a	n/a	-1	1.0	1.0	1	upper	Verdana.ttf
995.712	n/a	WORD	497856	wordpools/wasnorm_wordpool_less_exclusions.txt	LTP193	ltpFR	0	4	-1	PRUNE	1134	n/a	n/a	-1	1.0	1.0	1	upper	Verdana.ttf
999.846	n/a	WORD	499923	wordpools/wasnorm_wordpool_less_exclusions.txt	LTP193	ltpFR	0	4	-1	CAMEL	223	n/a	n/a	-1	1.0	1.0	1	upper	Verdana.ttf
1005.516	n/a	REC_START	502758	n/a	LTP193	ltpFR	0	4	n/a	n/a	n/a	n/a	n/a	n/a	n/a	n/a	n/a	n/a	n/a
1006.658	n/a	REC_WORD	503329	wordpools/wasnorm_wordpool_less_exclusions.txt	LTP193	ltpFR	0	4	-1	CAMEL	223	n/a	n/a	-1	n/a	n/a	n/a	n/a	n/a
1007.632	n/a	REC_WORD	503816	wordpools/wasnorm_wordpool_less_exclusions.txt	LTP193	ltpFR	0	4	-1	PRUNE	1134	n/a	n/a	-1	n/a	n/a	n/a	n/a	n/a
1009.218	n/a	REC_WORD	504609	wordpools/wasnorm_wordpool_less_exclusions.txt	LTP193	ltpFR	0	4	-1	TANGERINE	1431	n/a	n/a	-1	n/a	n/a	n/a	n/a	n/a
1011.0	n/a	REC_WORD	505500	wordpools/wasnorm_wordpool_less_exclusions.txt	LTP193	ltpFR	0	4	-1	TEA	1439	n/a	n/a	-1	n/a	n/a	n/a	n/a	n/a
1012.376	n/a	REC_WORD	506188	wordpools/wasnorm_wordpool_less_exclusions.txt	LTP193	ltpFR	0	4	-1	COYOTE	396	n/a	n/a	-1	n/a	n/a	n/a	n/a	n/a
1014.502	n/a	REC_WORD	507251	wordpools/wasnorm_wordpool_less_exclusions.txt	LTP193	ltpFR	0	4	n/a	EYE	545	n/a	n/a	n/a	n/a	n/a	n/a	n/a	n/a
1015.246	n/a	REC_WORD	507623	wordpools/wasnorm_wordpool_less_exclusions.txt	LTP193	ltpFR	0	4	-1	TELEPHONE	1445	n/a	n/a	-1	n/a	n/a	n/a	n/a	n/a
1016.756	n/a	REC_WORD	508378	wordpools/wasnorm_wordpool_less_exclusions.txt	LTP193	ltpFR	0	4	-1	CAGE	218	n/a	n/a	-1	n/a	n/a	n/a	n/a	n/a
1019.012	n/a	REC_WORD	509506	wordpools/wasnorm_wordpool_less_exclusions.txt	LTP193	ltpFR	0	4	-1	BOOTH	151	n/a	n/a	-1	n/a	n/a	n/a	n/a	n/a
1020.748	n/a	REC_WORD	510374	wordpools/wasnorm_wordpool_less_exclusions.txt	LTP193	ltpFR	0	4	-1	CONSOLE	364	n/a	n/a	-1	n/a	n/a	n/a	n/a	n/a
1025.412	n/a	REC_WORD	512706	wordpools/wasnorm_wordpool_less_exclusions.txt	LTP193	ltpFR	0	4	n/a	SUPERHERO	-1	n/a	n/a	n/a	n/a	n/a	n/a	n/a	n/a
1027.272	n/a	REC_WORD	513636	wordpools/wasnorm_wordpool_less_exclusions.txt	LTP193	ltpFR	0	4	-1	FEATHER	557	n/a	n/a	-1	n/a	n/a	n/a	n/a	n/a
1034.902	n/a	REC_WORD	517451	wordpools/wasnorm_wordpool_less_exclusions.txt	LTP193	ltpFR	0	4	-1	DICE	461	n/a	n/a	-1	n/a	n/a	n/a	n/a	n/a
1036.118	n/a	REC_WORD	518059	wordpools/wasnorm_wordpool_less_exclusions.txt	LTP193	ltpFR	0	4	-1	CRYSTAL	418	n/a	n/a	-1	n/a	n/a	n/a	n/a	n/a
1058.424	n/a	REC_WORD	529212	wordpools/wasnorm_wordpool_less_exclusions.txt	LTP193	ltpFR	0	4	-1	CAMEL	223	n/a	n/a	-1	n/a	n/a	n/a	n/a	n/a
1386.172	n/a	WORD	693086	wordpools/wasnorm_wordpool_less_exclusions.txt	LTP193	ltpFR	0	5	1	SALESMAN	1225	n/a	n/a	1	0.57763671875	0.412841796875	1	upper	amplitud.ttf
1390.206	n/a	WORD	695103	wordpools/wasnorm_wordpool_less_exclusions.txt	LTP193	ltpFR	0	5	1	CUSTOMER	430	n/a	n/a	1	0.57763671875	0.412841796875	1	upper	amplitud.ttf
1394.286	n/a	WORD	697143	wordpools/wasnorm_wordpool_less_exclusions.txt	LTP193	ltpFR	0	5	1	RIB	1188	n/a	n/a	0	0.57763671875	0.412841796875	1	upper	amplitud.ttf
1398.118	n/a	WORD	699059	wordpools/wasnorm_wordpool_less_exclusions.txt	LTP193	ltpFR	0	5	1	NEPHEW	942	n/a	n/a	1	0.57763671875	0.412841796875	1	upper	amplitud.ttf
1402.134	n/a	WORD	701067	wordpools/wasnorm_wordpool_less_exclusions.txt	LTP193	ltpFR	0	5	1	UNCLE	1536	n/a	n/a	1	0.57763671875	0.412841796875	1	upper	amplitud.ttf
1406.148	n/a	WORD	703074	wordpools/wasnorm_wordpool_less_exclusions.txt	LTP193	ltpFR	0	5	1	SOAP	1337	n/a	n/a	0	0.57763671875	0.412841796875	1	upper	amplitud.ttf
1410.196	n/a	WORD	705098	wordpools/wasnorm_wordpool_less_exclusions.txt	LTP193	ltpFR	0	5	1	HAWK	692	n/a	n/a	1	0.57763671875	0.412841796875	1	upper	amplitud.ttf
1414.378	n/a	WORD	707189	wordpools/wasnorm_wordpool_less_exclusions.txt	LTP193	ltpFR	0	5	1	TURKEY	1520	n/a	n/a	1	0.57763671875	0.412841796875	1	upper	amplitud.ttf
1418.464	n/a	WORD	709232	wordpools/wasnorm_wordpool_less_exclusions.txt	LTP193	ltpFR	0	5	1	STONE	1385	n/a	n/a	0	0.57763671875	0.412841796875	1	upper	amplitud.ttf
1422.358	n/a	WORD	711179	wordpools/wasnorm_wordpool_less_exclusions.txt	LTP193	ltpFR	0	5	1	CHURCH	307	n/a	n/a	0	0.57763671875	0.412841796875	1	upper	amplitud.ttf
1426.424	n/a	WORD	713212	wordpools/wasnorm_wordpool_less_exclusions.txt	LTP193	ltpFR	0	5	1	MARINE	869	n/a	n/a	0	0.57763671875	0.412841796875	1	upper	amplitud.ttf
1430.376	n/a	WORD	715188	wordpools/wasnorm_wordpool_less_exclusions.txt	LTP193	ltpFR	0	5	1	PASTA	1021	n/a	n/a	0	0.57763671875	0.412841796875	1	upper	amplitud.ttf
1434.322	n/a	WORD	717161	wordpools/wasnorm_wordpool_less_exclusions.txt	LTP193	ltpFR	0	5	1	MONASTERY	907	n/a	n/a	0	0.57763671875	0.412841796875	1	upper	amplitud.ttf
1438.304	n/a	WORD	719152	wordpools/wasnorm_wordpool_less_exclusions.txt	LTP193	ltpFR	0	5	1	CORAL	378	n/a	n/a	0	0.57763671875	0.412841796875	1	upper	amplitud.ttf
1442.402	n/a	WORD	721201	wordpools/wasnorm_wordpool_less_exclusions.txt	LTP193	ltpFR	0	5	1	TECHNICIAN	1443	n/a	n/a	1	0.57763671875	0.412841796875	1	upper	amplitud.ttf
1446.586	n/a	WORD	723293	wordpools/wasnorm_wordpool_less_exclusions.txt	LTP193	ltpFR	0	5	1	LIMB	822	n/a	n/a	0	0.57763671875	0.412841796875	1	upper	amplitud.ttf
1452.34	n/a	REC_START	726170	n/a	LTP193	ltpFR	0	5	n/a	n/a	n/a	n/a	n/a	n/a	n/a	n/a	n/a	n/a	n/a
1453.274	n/a	REC_WORD	726637	wordpools/wasnorm_wordpool_less_exclusions.txt	LTP193	ltpFR	0	5	1	LIMB	822	n/a	n/a	0	n/a	n/a	n/a	n/a	n/a
1454.436	n/a	REC_WORD	727218	wordpools/wasnorm_wordpool_less_exclusions.txt	LTP193	ltpFR	0	5	1	TECHNICIAN	1443	n/a	n/a	1	n/a	n/a	n/a	n/a	n/a
1456.066	n/a	REC_WORD	728033	wordpools/wasnorm_wordpool_less_exclusions.txt	LTP193	ltpFR	0	5	1	RIB	1188	n/a	n/a	0	n/a	n/a	n/a	n/a	n/a
1457.134	n/a	REC_WORD	728567	wordpools/wasnorm_wordpool_less_exclusions.txt	LTP193	ltpFR	0	5	1	SOAP	1337	n/a	n/a	0	n/a	n/a	n/a	n/a	n/a
1458.296	n/a	REC_WORD	729148	wordpools/wasnorm_wordpool_less_exclusions.txt	LTP193	ltpFR	0	5	n/a	ROCK	1201	n/a	n/a	n/a	n/a	n/a	n/a	n/a	n/a
1458.92	n/a	REC_WORD_VV	729460	wordpools/wasnorm_wordpool_less_exclusions.txt	LTP193	ltpFR	0	5	n/a	<>	-1	n/a	n/a	n/a	n/a	n/a	n/a	n/a	n/a
1459.36	n/a	REC_WORD	729680	wordpools/wasnorm_wordpool_less_exclusions.txt	LTP193	ltpFR	0	5	1	STONE	1385	n/a	n/a	0	n/a	n/a	n/a	n/a	n/a
1460.688	n/a	REC_WORD	730344	wordpools/wasnorm_wordpool_less_exclusions.txt	LTP193	ltpFR	0	5	1	CHURCH	307	n/a	n/a	0	n/a	n/a	n/a	n/a	n/a
1462.05	n/a	REC_WORD	731025	wordpools/wasnorm_wordpool_less_exclusions.txt	LTP193	ltpFR	0	5	1	HAWK	692	n/a	n/a	1	n/a	n/a	n/a	n/a	n/a
1464.1	n/a	REC_WORD	732050	wordpools/wasnorm_wordpool_less_exclusions.txt	LTP193	ltpFR	0	5	1	CUSTOMER	430	n/a	n/a	1	n/a	n/a	n/a	n/a	n/a
1465.53	n/a	REC_WORD	732765	wordpools/wasnorm_wordpool_less_exclusions.txt	LTP193	ltpFR	0	5	1	SALESMAN	1225	n/a	n/a	1	n/a	n/a	n/a	n/a	n/a
1469.074	n/a	REC_WORD_VV	734537	wordpools/wasnorm_wordpool_less_exclusions.txt	LTP193	ltpFR	0	5	n/a	<>	-1	n/a	n/a	n/a	n/a	n/a	n/a	n/a	n/a
1472.924	n/a	REC_WORD	736462	wordpools/wasnorm_wordpool_less_exclusions.txt	LTP193	ltpFR	0	5	1	CORAL	378	n/a	n/a	0	n/a	n/a	n/a	n/a	n/a
1475.02	n/a	REC_WORD	737510	wordpools/wasnorm_wordpool_less_exclusions.txt	LTP193	ltpFR	0	5	1	LIMB	822	n/a	n/a	0	n/a	n/a	n/a	n/a	n/a
1481.122	n/a	REC_WORD	740561	wordpools/wasnorm_wordpool_less_exclusions.txt	LTP193	ltpFR	0	5	1	MONASTERY	907	n/a	n/a	0	n/a	n/a	n/a	n/a	n/a
1507.214	n/a	REC_WORD	753607	wordpools/wasnorm_wordpool_less_exclusions.txt	LTP193	ltpFR	0	5	1	UNCLE	1536	n/a	n/a	1	n/a	n/a	n/a	n/a	n/a
1508.192	n/a	REC_WORD	754096	wordpools/wasnorm_wordpool_less_exclusions.txt	LTP193	ltpFR	0	5	1	NEPHEW	942	n/a	n/a	1	n/a	n/a	n/a	n/a	n/a
1522.494	n/a	REC_WORD	761247	wordpools/wasnorm_wordpool_less_exclusions.txt	LTP193	ltpFR	0	5	1	TURKEY	1520	n/a	n/a	1	n/a	n/a	n/a	n/a	n/a
1582.522	n/a	WORD	791261	wordpools/wasnorm_wordpool_less_exclusions.txt	LTP193	ltpFR	0	6	1	BUTLER	204	n/a	n/a	1	0.57763671875	0.412841796875	1	upper	amplitud.ttf
1586.586	n/a	WORD	793293	wordpools/wasnorm_wordpool_less_exclusions.txt	LTP193	ltpFR	0	6	1	FOLDER	588	n/a	n/a	1	0.57763671875	0.412841796875	1	upper	amplitud.ttf
1590.434	n/a	WORD	795217	wordpools/wasnorm_wordpool_less_exclusions.txt	LTP193	ltpFR	0	6	1	ZEBRA	1635	n/a	n/a	1	0.57763671875	0.412841796875	1	upper	amplitud.ttf
1594.366	n/a	WORD	797183	wordpools/wasnorm_wordpool_less_exclusions.txt	LTP193	ltpFR	0	6	1	UMPIRE	1535	n/a	n/a	1	0.57763671875	0.412841796875	1	upper	amplitud.ttf
1598.3	n/a	WORD	799150	wordpools/wasnorm_wordpool_less_exclusions.txt	LTP193	ltpFR	0	6	1	KLEENEX	782	n/a	n/a	0	0.57763671875	0.412841796875	1	upper	amplitud.ttf
1602.48	n/a	WORD	801240	wordpools/wasnorm_wordpool_less_exclusions.txt	LTP193	ltpFR	0	6	1	BUS	201	n/a	n/a	0	0.57763671875	0.412841796875	1	upper	amplitud.ttf
1606.48	n/a	WORD	803240	wordpools/wasnorm_wordpool_less_exclusions.txt	LTP193	ltpFR	0	6	1	PILL	1068	n/a	n/a	0	0.57763671875	0.412841796875	1	upper	amplitud.ttf
1610.46	n/a	WORD	805230	wordpools/wasnorm_wordpool_less_exclusions.txt	LTP193	ltpFR	0	6	1	WALRUS	1585	n/a	n/a	1	0.57763671875	0.412841796875	1	upper	amplitud.ttf
1614.41	n/a	WORD	807205	wordpools/wasnorm_wordpool_less_exclusions.txt	LTP193	ltpFR	0	6	1	WOLF	1619	n/a	n/a	1	0.57763671875	0.412841796875	1	upper	amplitud.ttf
1618.492	n/a	WORD	809246	wordpools/wasnorm_wordpool_less_exclusions.txt	LTP193	ltpFR	0	6	1	UNICORN	1538	n/a	n/a	1	0.57763671875	0.412841796875	1	upper	amplitud.ttf
1622.524	n/a	WORD	811262	wordpools/wasnorm_wordpool_less_exclusions.txt	LTP193	ltpFR	0	6	1	SACK	1220	n/a	n/a	0	0.57763671875	0.412841796875	1	upper	amplitud.ttf
1626.606	n/a	WORD	813303	wordpools/wasnorm_wordpool_less_exclusions.txt	LTP193	ltpFR	0	6	1	MONARCH	906	n/a	n/a	0	0.57763671875	0.412841796875	1	upper	amplitud.ttf
1630.556	n/a	WORD	815278	wordpools/wasnorm_wordpool_less_exclusions.txt	LTP193	ltpFR	0	6	1	CHECKERS	285	n/a	n/a	0	0.57763671875	0.412841796875	1	upper	amplitud.ttf
1634.54	n/a	WORD	817270	wordpools/wasnorm_wordpool_less_exclusions.txt	LTP193	ltpFR	0	6	1	WITNESS	1618	n/a	n/a	1	0.57763671875	0.412841796875	1	upper	amplitud.ttf
1638.386	n/a	WORD	819193	wordpools/wasnorm_wordpool_less_exclusions.txt	LTP193	ltpFR	0	6	1	LAWYER	806	n/a	n/a	1	0.57763671875	0.412841796875	1	upper	amplitud.ttf
1642.284	n/a	WORD	821142	wordpools/wasnorm_wordpool_less_exclusions.txt	LTP193	ltpFR	0	6	1	CHESS	294	n/a	n/a	0	0.57763671875	0.412841796875	1	upper	amplitud.ttf
1647.972	n/a	REC_START	823986	n/a	LTP193	ltpFR	0	6	n/a	n/a	n/a	n/a	n/a	n/a	n/a	n/a	n/a	n/a	n/a
1648.796	n/a	REC_WORD	824398	wordpools/wasnorm_wordpool_less_exclusions.txt	LTP193	ltpFR	0	6	1	CHESS	294	n/a	n/a	0	n/a	n/a	n/a	n/a	n/a
1649.874	n/a	REC_WORD	824937	wordpools/wasnorm_wordpool_less_exclusions.txt	LTP193	ltpFR	0	6	1	CHECKERS	285	n/a	n/a	0	n/a	n/a	n/a	n/a	n/a
1651.24	n/a	REC_WORD	825620	wordpools/wasnorm_wordpool_less_exclusions.txt	LTP193	ltpFR	0	6	1	MONARCH	906	n/a	n/a	0	n/a	n/a	n/a	n/a	n/a
1652.682	n/a	REC_WORD	826341	wordpools/wasnorm_wordpool_less_exclusions.txt	LTP193	ltpFR	0	6	1	BUTLER	204	n/a	n/a	1	n/a	n/a	n/a	n/a	n/a
1654.054	n/a	REC_WORD	827027	wordpools/wasnorm_wordpool_less_exclusions.txt	LTP193	ltpFR	0	6	1	WALRUS	1585	n/a	n/a	1	n/a	n/a	n/a	n/a	n/a
1656.864	n/a	REC_WORD	828432	wordpools/wasnorm_wordpool_less_exclusions.txt	LTP193	ltpFR	0	6	1	UMPIRE	1535	n/a	n/a	1	n/a	n/a	n/a	n/a	n/a
1659.044	n/a	REC_WORD	829522	wordpools/wasnorm_wordpool_less_exclusions.txt	LTP193	ltpFR	0	6	1	BUS	201	n/a	n/a	0	n/a	n/a	n/a	n/a	n/a
1661.064	n/a	REC_WORD	830532	wordpools/wasnorm_wordpool_less_exclusions.txt	LTP193	ltpFR	0	6	1	PILL	1068	n/a	n/a	0	n/a	n/a	n/a	n/a	n/a
1666.78	n/a	REC_WORD	833390	wordpools/wasnorm_wordpool_less_exclusions.txt	LTP193	ltpFR	0	6	1	FOLDER	588	n/a	n/a	1	n/a	n/a	n/a	n/a	n/a
1668.792	n/a	REC_WORD	834396	wordpools/wasnorm_wordpool_less_exclusions.txt	LTP193	ltpFR	0	6	1	SACK	1220	n/a	n/a	0	n/a	n/a	n/a	n/a	n/a
1683.124	n/a	REC_WORD	841562	wordpools/wasnorm_wordpool_less_exclusions.txt	LTP193	ltpFR	0	6	1	UNICORN	1538	n/a	n/a	1	n/a	n/a	n/a	n/a	n/a
1717.902	n/a	REC_WORD	858951	wordpools/wasnorm_wordpool_less_exclusions.txt	LTP193	ltpFR	0	6	1	WITNESS	1618	n/a	n/a	1	n/a	n/a	n/a	n/a	n/a
1722.058	n/a	REC_WORD	861029	wordpools/wasnorm_wordpool_less_exclusions.txt	LTP193	ltpFR	0	6	1	LAWYER	806	n/a	n/a	1	n/a	n/a	n/a	n/a	n/a
1738.386	n/a	WORD	869193	wordpools/wasnorm_wordpool_less_exclusions.txt	LTP193	ltpFR	0	7	1	PONY	1102	n/a	n/a	1	0.57763671875	0.412841796875	1	upper	amplitud.ttf
1742.466	n/a	WORD	871233	wordpools/wasnorm_wordpool_less_exclusions.txt	LTP193	ltpFR	0	7	1	SHARK	1275	n/a	n/a	1	0.57763671875	0.412841796875	1	upper	amplitud.ttf
1746.332	n/a	WORD	873166	wordpools/wasnorm_wordpool_less_exclusions.txt	LTP193	ltpFR	0	7	1	VEGETABLE	1552	n/a	n/a	1	0.57763671875	0.412841796875	1	upper	amplitud.ttf
1750.48	n/a	WORD	875240	wordpools/wasnorm_wordpool_less_exclusions.txt	LTP193	ltpFR	0	7	1	GIRL	637	n/a	n/a	1	0.57763671875	0.412841796875	1	upper	amplitud.ttf
1754.344	n/a	WORD	877172	wordpools/wasnorm_wordpool_less_exclusions.txt	LTP193	ltpFR	0	7	1	SHED	1277	n/a	n/a	0	0.57763671875	0.412841796875	1	upper	amplitud.ttf
1758.526	n/a	WORD	879263	wordpools/wasnorm_wordpool_less_exclusions.txt	LTP193	ltpFR	0	7	1	WASHER	1592	n/a	n/a	0	0.57763671875	0.412841796875	1	upper	amplitud.ttf
1762.426	n/a	WORD	881213	wordpools/wasnorm_wordpool_less_exclusions.txt	LTP193	ltpFR	0	7	1	HELMET	702	n/a	n/a	0	0.57763671875	0.412841796875	1	upper	amplitud.ttf
1766.358	n/a	WORD	883179	wordpools/wasnorm_wordpool_less_exclusions.txt	LTP193	ltpFR	0	7	1	CRITIC	410	n/a	n/a	1	0.57763671875	0.412841796875	1	upper	amplitud.ttf
1770.226	n/a	WORD	885113	wordpools/wasnorm_wordpool_less_exclusions.txt	LTP193	ltpFR	0	7	1	ACTRESS	6	n/a	n/a	1	0.57763671875	0.412841796875	1	upper	amplitud.ttf
1774.272	n/a	WORD	887136	wordpools/wasnorm_wordpool_less_exclusions.txt	LTP193	ltpFR	0	7	1	RICE	1190	n/a	n/a	0	0.57763671875	0.412841796875	1	upper	amplitud.ttf
1778.308	n/a	WORD	889154	wordpools/wasnorm_wordpool_less_exclusions.txt	LTP193	ltpFR	0	7	1	DOLPHIN	483	n/a	n/a	1	0.57763671875	0.412841796875	1	upper	amplitud.ttf
1782.272	n/a	WORD	891136	wordpools/wasnorm_wordpool_less_exclusions.txt	LTP193	ltpFR	0	7	1	STABLE	1363	n/a	n/a	0	0.57763671875	0.412841796875	1	upper	amplitud.ttf
1786.334	n/a	WORD	893167	wordpools/wasnorm_wordpool_less_exclusions.txt	LTP193	ltpFR	0	7	1	MARS	873	n/a	n/a	0	0.57763671875	0.412841796875	1	upper	amplitud.ttf
1790.216	n/a	WORD	895108	wordpools/wasnorm_wordpool_less_exclusions.txt	LTP193	ltpFR	0	7	1	EARTH	515	n/a	n/a	0	0.57763671875	0.412841796875	1	upper	amplitud.ttf
1794.414	n/a	WORD	897207	wordpools/wasnorm_wordpool_less_exclusions.txt	LTP193	ltpFR	0	7	1	TOOTHPASTE	1483	n/a	n/a	0	0.57763671875	0.412841796875	1	upper	amplitud.ttf
1798.378	n/a	WORD	899189	wordpools/wasnorm_wordpool_less_exclusions.txt	LTP193	ltpFR	0	7	1	CELERY	266	n/a	n/a	1	0.57763671875	0.412841796875	1	upper	amplitud.ttf
1804.036	n/a	REC_START	902018	n/a	LTP193	ltpFR	0	7	n/a	n/a	n/a	n/a	n/a	n/a	n/a	n/a	n/a	n/a	n/a
1805.104	n/a	REC_WORD	902552	wordpools/wasnorm_wordpool_less_exclusions.txt	LTP193	ltpFR	0	7	1	CELERY	266	n/a	n/a	1	n/a	n/a	n/a	n/a	n/a
1806.172	n/a	REC_WORD	903086	wordpools/wasnorm_wordpool_less_exclusions.txt	LTP193	ltpFR	0	7	1	RICE	1190	n/a	n/a	0	n/a	n/a	n/a	n/a	n/a
1807.404	n/a	REC_WORD	903702	wordpools/wasnorm_wordpool_less_exclusions.txt	LTP193	ltpFR	0	7	1	SHED	1277	n/a	n/a	0	n/a	n/a	n/a	n/a	n/a
1808.756	n/a	REC_WORD	904378	wordpools/wasnorm_wordpool_less_exclusions.txt	LTP193	ltpFR	0	7	1	WASHER	1592	n/a	n/a	0	n/a	n/a	n/a	n/a	n/a
1810.492	n/a	REC_WORD	905246	wordpools/wasnorm_wordpool_less_exclusions.txt	LTP193	ltpFR	0	7	1	SHARK	1275	n/a	n/a	1	n/a	n/a	n/a	n/a	n/a
1811.968	n/a	REC_WORD	905984	wordpools/wasnorm_wordpool_less_exclusions.txt	LTP193	ltpFR	0	7	1	DOLPHIN	483	n/a	n/a	1	n/a	n/a	n/a	n/a	n/a
1813.65	n/a	REC_WORD	906825	wordpools/wasnorm_wordpool_less_exclusions.txt	LTP193	ltpFR	0	7	1	GIRL	637	n/a	n/a	1	n/a	n/a	n/a	n/a	n/a
1815.122	n/a	REC_WORD	907561	wordpools/wasnorm_wordpool_less_exclusions.txt	LTP193	ltpFR	0	7	1	PONY	1102	n/a	n/a	1	n/a	n/a	n/a	n/a	n/a
1816.632	n/a	REC_WORD	908316	wordpools/wasnorm_wordpool_less_exclusions.txt	LTP193	ltpFR	0	7	1	VEGETABLE	1552	n/a	n/a	1	n/a	n/a	n/a	n/a	n/a
1818.764	n/a	REC_WORD	909382	wordpools/wasnorm_wordpool_less_exclusions.txt	LTP193	ltpFR	0	7	1	MARS	873	n/a	n/a	0	n/a	n/a	n/a	n/a	n/a
1820.246	n/a	REC_WORD	910123	wordpools/wasnorm_wordpool_less_exclusions.txt	LTP193	ltpFR	0	7	1	EARTH	515	n/a	n/a	0	n/a	n/a	n/a	n/a	n/a
1823.258	n/a	REC_WORD	911629	wordpools/wasnorm_wordpool_less_exclusions.txt	LTP193	ltpFR	0	7	1	ACTRESS	6	n/a	n/a	1	n/a	n/a	n/a	n/a	n/a
1824.686	n/a	REC_WORD	912343	wordpools/wasnorm_wordpool_less_exclusions.txt	LTP193	ltpFR	0	7	1	CRITIC	410	n/a	n/a	1	n/a	n/a	n/a	n/a	n/a
1851.176	n/a	REC_WORD	925588	wordpools/wasnorm_wordpool_less_exclusions.txt	LTP193	ltpFR	0	7	1	DOLPHIN	483	n/a	n/a	1	n/a	n/a	n/a	n/a	n/a
1895.302	n/a	WORD	947651	wordpools/wasnorm_wordpool_less_exclusions.txt	LTP193	ltpFR	0	8	1	SUSPECT	1415	n/a	n/a	1	0.57763671875	0.412841796875	1	upper	amplitud.ttf
1899.502	n/a	WORD	949751	wordpools/wasnorm_wordpool_less_exclusions.txt	LTP193	ltpFR	0	8	1	SUITE	1404	n/a	n/a	0	0.57763671875	0.412841796875	1	upper	amplitud.ttf
1903.38	n/a	WORD	951690	wordpools/wasnorm_wordpool_less_exclusions.txt	LTP193	ltpFR	0	8	1	CANAL	226	n/a	n/a	0	0.57763671875	0.412841796875	1	upper	amplitud.ttf
1907.462	n/a	WORD	953731	wordpools/wasnorm_wordpool_less_exclusions.txt	LTP193	ltpFR	0	8	1	STALLION	1369	n/a	n/a	1	0.57763671875	0.412841796875	1	upper	amplitud.ttf
1911.578	n/a	WORD	955789	wordpools/wasnorm_wordpool_less_exclusions.txt	LTP193	ltpFR	0	8	1	ELBOW	520	n/a	n/a	0	0.57763671875	0.412841796875	1	upper	amplitud.ttf
1915.528	n/a	WORD	957764	wordpools/wasnorm_wordpool_less_exclusions.txt	LTP193	ltpFR	0	8	1	MOON	914	n/a	n/a	0	0.57763671875	0.412841796875	1	upper	amplitud.ttf
1919.642	n/a	WORD	959821	wordpools/wasnorm_wordpool_less_exclusions.txt	LTP193	ltpFR	0	8	1	CART	250	n/a	n/a	0	0.57763671875	0.412841796875	1	upper	amplitud.ttf
1923.816	n/a	WORD	961908	wordpools/wasnorm_wordpool_less_exclusions.txt	LTP193	ltpFR	0	8	1	PERFUME	1049	n/a	n/a	0	0.57763671875	0.412841796875	1	upper	amplitud.ttf
1927.644	n/a	WORD	963822	wordpools/wasnorm_wordpool_less_exclusions.txt	LTP193	ltpFR	0	8	1	SARDINE	1235	n/a	n/a	1	0.57763671875	0.412841796875	1	upper	amplitud.ttf
1931.522	n/a	WORD	965761	wordpools/wasnorm_wordpool_less_exclusions.txt	LTP193	ltpFR	0	8	1	HOSE	720	n/a	n/a	0	0.57763671875	0.412841796875	1	upper	amplitud.ttf
1935.57	n/a	WORD	967785	wordpools/wasnorm_wordpool_less_exclusions.txt	LTP193	ltpFR	0	8	1	PALM	1007	n/a	n/a	0	0.57763671875	0.412841796875	1	upper	amplitud.ttf
1939.706	n/a	WORD	969853	wordpools/wasnorm_wordpool_less_exclusions.txt	LTP193	ltpFR	0	8	1	THICKET	1455	n/a	n/a	0	0.57763671875	0.412841796875	1	upper	amplitud.ttf
1943.852	n/a	WORD	971926	wordpools/wasnorm_wordpool_less_exclusions.txt	LTP193	ltpFR	0	8	1	ROOT	1210	n/a	n/a	0	0.57763671875	0.412841796875	1	upper	amplitud.ttf
1947.718	n/a	WORD	973859	wordpools/wasnorm_wordpool_less_exclusions.txt	LTP193	ltpFR	0	8	1	BEE	112	n/a	n/a	1	0.57763671875	0.412841796875	1	upper	amplitud.ttf
1951.918	n/a	WORD	975959	wordpools/wasnorm_wordpool_less_exclusions.txt	LTP193	ltpFR	0	8	1	UNIVERSE	1540	n/a	n/a	0	0.57763671875	0.412841796875	1	upper	amplitud.ttf
1955.982	n/a	WORD	977991	wordpools/wasnorm_wordpool_less_exclusions.txt	LTP193	ltpFR	0	8	1	ATLAS	53	n/a	n/a	0	0.57763671875	0.412841796875	1	upper	amplitud.ttf
1961.922	n/a	REC_START	980961	n/a	LTP193	ltpFR	0	8	n/a	n/a	n/a	n/a	n/a	n/a	n/a	n/a	n/a	n/a	n/a
1963.374	n/a	REC_WORD	981687	wordpools/wasnorm_wordpool_less_exclusions.txt	LTP193	ltpFR	0	8	1	ATLAS	53	n/a	n/a	0	n/a	n/a	n/a	n/a	n/a
1964.442	n/a	REC_WORD	982221	wordpools/wasnorm_wordpool_less_exclusions.txt	LTP193	ltpFR	0	8	1	UNIVERSE	1540	n/a	n/a	0	n/a	n/a	n/a	n/a	n/a
1965.818	n/a	REC_WORD	982909	wordpools/wasnorm_wordpool_less_exclusions.txt	LTP193	ltpFR	0	8	1	SUSPECT	1415	n/a	n/a	1	n/a	n/a	n/a	n/a	n/a
1968.278	n/a	REC_WORD_VV	984139	wordpools/wasnorm_wordpool_less_exclusions.txt	LTP193	ltpFR	0	8	n/a	<>	-1	n/a	n/a	n/a	n/a	n/a	n/a	n/a	n/a
1968.568	n/a	REC_WORD	984284	wordpools/wasnorm_wordpool_less_exclusions.txt	LTP193	ltpFR	0	8	1	SUITE	1404	n/a	n/a	0	n/a	n/a	n/a	n/a	n/a
1970.0	n/a	REC_WORD	985000	wordpools/wasnorm_wordpool_less_exclusions.txt	LTP193	ltpFR	0	8	1	HOSE	720	n/a	n/a	0	n/a	n/a	n/a	n/a	n/a
1971.396	n/a	REC_WORD	985698	wordpools/wasnorm_wordpool_less_exclusions.txt	LTP193	ltpFR	0	8	1	PALM	1007	n/a	n/a	0	n/a	n/a	n/a	n/a	n/a
1972.728	n/a	REC_WORD	986364	wordpools/wasnorm_wordpool_less_exclusions.txt	LTP193	ltpFR	0	8	1	THICKET	1455	n/a	n/a	0	n/a	n/a	n/a	n/a	n/a
1974.256	n/a	REC_WORD	987128	wordpools/wasnorm_wordpool_less_exclusions.txt	LTP193	ltpFR	0	8	1	ROOT	1210	n/a	n/a	0	n/a	n/a	n/a	n/a	n/a
1975.602	n/a	REC_WORD	987801	wordpools/wasnorm_wordpool_less_exclusions.txt	LTP193	ltpFR	0	8	1	BEE	112	n/a	n/a	1	n/a	n/a	n/a	n/a	n/a
1976.784	n/a	REC_WORD	988392	wordpools/wasnorm_wordpool_less_exclusions.txt	LTP193	ltpFR	0	8	1	STALLION	1369	n/a	n/a	1	n/a	n/a	n/a	n/a	n/a
1979.652	n/a	REC_WORD_VV	989826	wordpools/wasnorm_wordpool_less_exclusions.txt	LTP193	ltpFR	0	8	n/a	<>	-1	n/a	n/a	n/a	n/a	n/a	n/a	n/a	n/a
1982.756	n/a	REC_WORD	991378	wordpools/wasnorm_wordpool_less_exclusions.txt	LTP193	ltpFR	0	8	1	MOON	914	n/a	n/a	0	n/a	n/a	n/a	n/a	n/a
2007.816	n/a	REC_WORD	1003908	wordpools/wasnorm_wordpool_less_exclusions.txt	LTP193	ltpFR	0	8	1	CANAL	226	n/a	n/a	0	n/a	n/a	n/a	n/a	n/a
2055.83	n/a	WORD	1027915	wordpools/wasnorm_wordpool_less_exclusions.txt	LTP193	ltpFR	0	9	0	ARTIST	43	n/a	n/a	1	0.422607421875	0.5869140625	0	lower	zerothre.ttf
2059.964	n/a	WORD	1029982	wordpools/wasnorm_wordpool_less_exclusions.txt	LTP193	ltpFR	0	9	0	TRAITOR	1495	n/a	n/a	1	0.422607421875	0.5869140625	0	lower	zerothre.ttf
2063.946	n/a	WORD	1031973	wordpools/wasnorm_wordpool_less_exclusions.txt	LTP193	ltpFR	0	9	0	PISTON	1076	n/a	n/a	0	0.422607421875	0.5869140625	0	lower	zerothre.ttf
2068.044	n/a	WORD	1034022	wordpools/wasnorm_wordpool_less_exclusions.txt	LTP193	ltpFR	0	9	0	CAB	209	n/a	n/a	1	0.422607421875	0.5869140625	0	lower	zerothre.ttf
2072.01	n/a	WORD	1036005	wordpools/wasnorm_wordpool_less_exclusions.txt	LTP193	ltpFR	0	9	0	CANDLE	229	n/a	n/a	0	0.422607421875	0.5869140625	0	lower	zerothre.ttf
2075.89	n/a	WORD	1037945	wordpools/wasnorm_wordpool_less_exclusions.txt	LTP193	ltpFR	0	9	0	MUSEUM	933	n/a	n/a	1	0.422607421875	0.5869140625	0	lower	zerothre.ttf
2079.91	n/a	WORD	1039955	wordpools/wasnorm_wordpool_less_exclusions.txt	LTP193	ltpFR	0	9	0	SUBURB	1399	n/a	n/a	1	0.422607421875	0.5869140625	0	lower	zerothre.ttf
2084.106	n/a	WORD	1042053	wordpools/wasnorm_wordpool_less_exclusions.txt	LTP193	ltpFR	0	9	0	INTESTINE	742	n/a	n/a	1	0.422607421875	0.5869140625	0	lower	zerothre.ttf
2088.004	n/a	WORD	1044002	wordpools/wasnorm_wordpool_less_exclusions.txt	LTP193	ltpFR	0	9	0	MARKET	871	n/a	n/a	1	0.422607421875	0.5869140625	0	lower	zerothre.ttf
2092.12	n/a	WORD	1046060	wordpools/wasnorm_wordpool_less_exclusions.txt	LTP193	ltpFR	0	9	0	OTTER	986	n/a	n/a	1	0.422607421875	0.5869140625	0	lower	zerothre.ttf
2096.076	n/a	WORD	1048038	wordpools/wasnorm_wordpool_less_exclusions.txt	LTP193	ltpFR	0	9	0	BUCKET	184	n/a	n/a	1	0.422607421875	0.5869140625	0	lower	zerothre.ttf
2100.088	n/a	WORD	1050044	wordpools/wasnorm_wordpool_less_exclusions.txt	LTP193	ltpFR	0	9	0	HEEL	700	n/a	n/a	0	0.422607421875	0.5869140625	0	lower	zerothre.ttf
2104.266	n/a	WORD	1052133	wordpools/wasnorm_wordpool_less_exclusions.txt	LTP193	ltpFR	0	9	0	WIRE	1616	n/a	n/a	0	0.422607421875	0.5869140625	0	lower	zerothre.ttf
2108.154	n/a	WORD	1054077	wordpools/wasnorm_wordpool_less_exclusions.txt	LTP193	ltpFR	0	9	0	DOUGHNUT	490	n/a	n/a	0	0.422607421875	0.5869140625	0	lower	zerothre.ttf
2112.264	n/a	WORD	1056132	wordpools/wasnorm_wordpool_less_exclusions.txt	LTP193	ltpFR	0	9	0	SCAPEGOAT	1244	n/a	n/a	1	0.422607421875	0.5869140625	0	lower	zerothre.ttf
2116.244	n/a	WORD	1058122	wordpools/wasnorm_wordpool_less_exclusions.txt	LTP193	ltpFR	0	9	0	PORCH	1106	n/a	n/a	1	0.422607421875	0.5869140625	0	lower	zerothre.ttf
2121.868	n/a	REC_START	1060934	n/a	LTP193	ltpFR	0	9	n/a	n/a	n/a	n/a	n/a	n/a	n/a	n/a	n/a	n/a	n/a
2122.964	n/a	REC_WORD	1061482	wordpools/wasnorm_wordpool_less_exclusions.txt	LTP193	ltpFR	0	9	0	PORCH	1106	n/a	n/a	1	n/a	n/a	n/a	n/a	n/a
2123.74	n/a	REC_WORD	1061870	wordpools/wasnorm_wordpool_less_exclusions.txt	LTP193	ltpFR	0	9	0	SCAPEGOAT	1244	n/a	n/a	1	n/a	n/a	n/a	n/a	n/a
2124.74	n/a	REC_WORD_VV	1062370	wordpools/wasnorm_wordpool_less_exclusions.txt	LTP193	ltpFR	0	9	n/a	<>	-1	n/a	n/a	n/a	n/a	n/a	n/a	n/a	n/a
2125.878	n/a	REC_WORD	1062939	wordpools/wasnorm_wordpool_less_exclusions.txt	LTP193	ltpFR	0	9	0	SUBURB	1399	n/a	n/a	1	n/a	n/a	n/a	n/a	n/a
2127.45	n/a	REC_WORD	1063725	wordpools/wasnorm_wordpool_less_exclusions.txt	LTP193	ltpFR	0	9	0	OTTER	986	n/a	n/a	1	n/a	n/a	n/a	n/a	n/a
2128.896	n/a	REC_WORD	1064448	wordpools/wasnorm_wordpool_less_exclusions.txt	LTP193	ltpFR	0	9	0	TRAITOR	1495	n/a	n/a	1	n/a	n/a	n/a	n/a	n/a
2130.562	n/a	REC_WORD	1065281	wordpools/wasnorm_wordpool_less_exclusions.txt	LTP193	ltpFR	0	9	0	ARTIST	43	n/a	n/a	1	n/a	n/a	n/a	n/a	n/a
2132.448	n/a	REC_WORD	1066224	wordpools/wasnorm_wordpool_less_exclusions.txt	LTP193	ltpFR	0	9	0	MUSEUM	933	n/a	n/a	1	n/a	n/a	n/a	n/a	n/a
2134.968	n/a	REC_WORD	1067484	wordpools/wasnorm_wordpool_less_exclusions.txt	LTP193	ltpFR	0	9	0	WIRE	1616	n/a	n/a	0	n/a	n/a	n/a	n/a	n/a
2144.492	n/a	REC_WORD	1072246	wordpools/wasnorm_wordpool_less_exclusions.txt	LTP193	ltpFR	0	9	0	CAB	209	n/a	n/a	1	n/a	n/a	n/a	n/a	n/a
2156.944	n/a	REC_WORD	1078472	wordpools/wasnorm_wordpool_less_exclusions.txt	LTP193	ltpFR	0	9	0	HEEL	700	n/a	n/a	0	n/a	n/a	n/a	n/a	n/a
2167.774	n/a	REC_WORD	1083887	wordpools/wasnorm_wordpool_less_exclusions.txt	LTP193	ltpFR	0	9	0	PISTON	1076	n/a	n/a	0	n/a	n/a	n/a	n/a	n/a
2212.782	n/a	WORD	1106391	wordpools/wasnorm_wordpool_less_exclusions.txt	LTP193	ltpFR	0	10	0	HORSE	719	n/a	n/a	1	0.422607421875	0.5869140625	0	lower	zerothre.ttf
2216.814	n/a	WORD	1108407	wordpools/wasnorm_wordpool_less_exclusions.txt	LTP193	ltpFR	0	10	0	WRENCH	1625	n/a	n/a	0	0.422607421875	0.5869140625	0	lower	zerothre.ttf
2220.828	n/a	WORD	1110414	wordpools/wasnorm_wordpool_less_exclusions.txt	LTP193	ltpFR	0	10	0	FACE	547	n/a	n/a	1	0.422607421875	0.5869140625	0	lower	zerothre.ttf
2224.876	n/a	WORD	1112438	wordpools/wasnorm_wordpool_less_exclusions.txt	LTP193	ltpFR	0	10	0	DRILL	497	n/a	n/a	1	0.422607421875	0.5869140625	0	lower	zerothre.ttf
2228.842	n/a	WORD	1114421	wordpools/wasnorm_wordpool_less_exclusions.txt	LTP193	ltpFR	0	10	0	SNEAKER	1334	n/a	n/a	1	0.422607421875	0.5869140625	0	lower	zerothre.ttf
2232.824	n/a	WORD	1116412	wordpools/wasnorm_wordpool_less_exclusions.txt	LTP193	ltpFR	0	10	0	TIDE	1465	n/a	n/a	1	0.422607421875	0.5869140625	0	lower	zerothre.ttf
2236.94	n/a	WORD	1118470	wordpools/wasnorm_wordpool_less_exclusions.txt	LTP193	ltpFR	0	10	0	FOREHEAD	592	n/a	n/a	0	0.422607421875	0.5869140625	0	lower	zerothre.ttf
2240.838	n/a	WORD	1120419	wordpools/wasnorm_wordpool_less_exclusions.txt	LTP193	ltpFR	0	10	0	FIDDLE	561	n/a	n/a	1	0.422607421875	0.5869140625	0	lower	zerothre.ttf
2244.77	n/a	WORD	1122385	wordpools/wasnorm_wordpool_less_exclusions.txt	LTP193	ltpFR	0	10	0	KEYBOARD	774	n/a	n/a	1	0.422607421875	0.5869140625	0	lower	zerothre.ttf
2248.79	n/a	WORD	1124395	wordpools/wasnorm_wordpool_less_exclusions.txt	LTP193	ltpFR	0	10	0	SHACK	1273	n/a	n/a	1	0.422607421875	0.5869140625	0	lower	zerothre.ttf
2252.934	n/a	WORD	1126467	wordpools/wasnorm_wordpool_less_exclusions.txt	LTP193	ltpFR	0	10	0	DUNE	506	n/a	n/a	1	0.422607421875	0.5869140625	0	lower	zerothre.ttf
2256.882	n/a	WORD	1128441	wordpools/wasnorm_wordpool_less_exclusions.txt	LTP193	ltpFR	0	10	0	TORCH	1484	n/a	n/a	0	0.422607421875	0.5869140625	0	lower	zerothre.ttf
2260.932	n/a	WORD	1130466	wordpools/wasnorm_wordpool_less_exclusions.txt	LTP193	ltpFR	0	10	0	CREAM	402	n/a	n/a	0	0.422607421875	0.5869140625	0	lower	zerothre.ttf
2264.78	n/a	WORD	1132390	wordpools/wasnorm_wordpool_less_exclusions.txt	LTP193	ltpFR	0	10	0	SWEATER	1419	n/a	n/a	0	0.422607421875	0.5869140625	0	lower	zerothre.ttf
2268.944	n/a	WORD	1134472	wordpools/wasnorm_wordpool_less_exclusions.txt	LTP193	ltpFR	0	10	0	STEREO	1378	n/a	n/a	1	0.422607421875	0.5869140625	0	lower	zerothre.ttf
2273.012	n/a	WORD	1136506	wordpools/wasnorm_wordpool_less_exclusions.txt	LTP193	ltpFR	0	10	0	SAXOPHONE	1240	n/a	n/a	1	0.422607421875	0.5869140625	0	lower	zerothre.ttf
2279.052	n/a	REC_START	1139526	n/a	LTP193	ltpFR	0	10	n/a	n/a	n/a	n/a	n/a	n/a	n/a	n/a	n/a	n/a	n/a
2279.624	n/a	REC_WORD	1139812	wordpools/wasnorm_wordpool_less_exclusions.txt	LTP193	ltpFR	0	10	0	STEREO	1378	n/a	n/a	1	n/a	n/a	n/a	n/a	n/a
2281.132	n/a	REC_WORD	1140566	wordpools/wasnorm_wordpool_less_exclusions.txt	LTP193	ltpFR	0	10	0	SAXOPHONE	1240	n/a	n/a	1	n/a	n/a	n/a	n/a	n/a
2283.172	n/a	REC_WORD	1141586	wordpools/wasnorm_wordpool_less_exclusions.txt	LTP193	ltpFR	0	10	0	HORSE	719	n/a	n/a	1	n/a	n/a	n/a	n/a	n/a
2284.694	n/a	REC_WORD	1142347	wordpools/wasnorm_wordpool_less_exclusions.txt	LTP193	ltpFR	0	10	0	FACE	547	n/a	n/a	1	n/a	n/a	n/a	n/a	n/a
2286.56	n/a	REC_WORD	1143280	wordpools/wasnorm_wordpool_less_exclusions.txt	LTP193	ltpFR	0	10	0	DRILL	497	n/a	n/a	1	n/a	n/a	n/a	n/a	n/a
2288.24	n/a	REC_WORD	1144120	wordpools/wasnorm_wordpool_less_exclusions.txt	LTP193	ltpFR	0	10	0	WRENCH	1625	n/a	n/a	0	n/a	n/a	n/a	n/a	n/a
2292.542	n/a	REC_WORD	1146271	wordpools/wasnorm_wordpool_less_exclusions.txt	LTP193	ltpFR	0	10	0	SAXOPHONE	1240	n/a	n/a	1	n/a	n/a	n/a	n/a	n/a
2296.198	n/a	REC_WORD	1148099	wordpools/wasnorm_wordpool_less_exclusions.txt	LTP193	ltpFR	0	10	0	FOREHEAD	592	n/a	n/a	0	n/a	n/a	n/a	n/a	n/a
2316.248	n/a	REC_WORD_VV	1158124	wordpools/wasnorm_wordpool_less_exclusions.txt	LTP193	ltpFR	0	10	n/a	<>	-1	n/a	n/a	n/a	n/a	n/a	n/a	n/a	n/a
2317.786	n/a	REC_WORD_VV	1158893	wordpools/wasnorm_wordpool_less_exclusions.txt	LTP193	ltpFR	0	10	n/a	<>	-1	n/a	n/a	n/a	n/a	n/a	n/a	n/a	n/a
2319.178	n/a	REC_WORD	1159589	wordpools/wasnorm_wordpool_less_exclusions.txt	LTP193	ltpFR	0	10	0	SHACK	1273	n/a	n/a	1	n/a	n/a	n/a	n/a	n/a
2370.466	n/a	WORD	1185233	wordpools/wasnorm_wordpool_less_exclusions.txt	LTP193	ltpFR	0	11	0	DISH	474	n/a	n/a	0	0.422607421875	0.5869140625	0	lower	zerothre.ttf
2374.298	n/a	WORD	1187149	wordpools/wasnorm_wordpool_less_exclusions.txt	LTP193	ltpFR	0	11	0	ELEPHANT	523	n/a	n/a	1	0.422607421875	0.5869140625	0	lower	zerothre.ttf
2378.212	n/a	WORD	1189106	wordpools/wasnorm_wordpool_less_exclusions.txt	LTP193	ltpFR	0	11	0	VINE	1568	n/a	n/a	1	0.422607421875	0.5869140625	0	lower	zerothre.ttf
2382.11	n/a	WORD	1191055	wordpools/wasnorm_wordpool_less_exclusions.txt	LTP193	ltpFR	0	11	0	TAVERN	1437	n/a	n/a	1	0.422607421875	0.5869140625	0	lower	zerothre.ttf
2386.216	n/a	WORD	1193108	wordpools/wasnorm_wordpool_less_exclusions.txt	LTP193	ltpFR	0	11	0	SALMON	1227	n/a	n/a	0	0.422607421875	0.5869140625	0	lower	zerothre.ttf
2390.276	n/a	WORD	1195138	wordpools/wasnorm_wordpool_less_exclusions.txt	LTP193	ltpFR	0	11	0	TUB	1514	n/a	n/a	1	0.422607421875	0.5869140625	0	lower	zerothre.ttf
2394.19	n/a	WORD	1197095	wordpools/wasnorm_wordpool_less_exclusions.txt	LTP193	ltpFR	0	11	0	NOTE	958	n/a	n/a	0	0.422607421875	0.5869140625	0	lower	zerothre.ttf
2398.34	n/a	WORD	1199170	wordpools/wasnorm_wordpool_less_exclusions.txt	LTP193	ltpFR	0	11	0	SEED	1266	n/a	n/a	0	0.422607421875	0.5869140625	0	lower	zerothre.ttf
2402.24	n/a	WORD	1201120	wordpools/wasnorm_wordpool_less_exclusions.txt	LTP193	ltpFR	0	11	0	RUM	1217	n/a	n/a	1	0.422607421875	0.5869140625	0	lower	zerothre.ttf
2406.22	n/a	WORD	1203110	wordpools/wasnorm_wordpool_less_exclusions.txt	LTP193	ltpFR	0	11	0	DASHBOARD	441	n/a	n/a	1	0.422607421875	0.5869140625	0	lower	zerothre.ttf
2410.152	n/a	WORD	1205076	wordpools/wasnorm_wordpool_less_exclusions.txt	LTP193	ltpFR	0	11	0	MOUNTAIN	924	n/a	n/a	1	0.422607421875	0.5869140625	0	lower	zerothre.ttf
2413.984	n/a	WORD	1206992	wordpools/wasnorm_wordpool_less_exclusions.txt	LTP193	ltpFR	0	11	0	HIKER	708	n/a	n/a	1	0.422607421875	0.5869140625	0	lower	zerothre.ttf
2418.104	n/a	WORD	1209052	wordpools/wasnorm_wordpool_less_exclusions.txt	LTP193	ltpFR	0	11	0	TUNA	1518	n/a	n/a	1	0.422607421875	0.5869140625	0	lower	zerothre.ttf
2422.066	n/a	WORD	1211033	wordpools/wasnorm_wordpool_less_exclusions.txt	LTP193	ltpFR	0	11	0	ESSAY	540	n/a	n/a	0	0.422607421875	0.5869140625	0	lower	zerothre.ttf
2426.112	n/a	WORD	1213056	wordpools/wasnorm_wordpool_less_exclusions.txt	LTP193	ltpFR	0	11	0	BUGGY	188	n/a	n/a	1	0.422607421875	0.5869140625	0	lower	zerothre.ttf
2430.078	n/a	WORD	1215039	wordpools/wasnorm_wordpool_less_exclusions.txt	LTP193	ltpFR	0	11	0	VAN	1548	n/a	n/a	1	0.422607421875	0.5869140625	0	lower	zerothre.ttf
2435.85	n/a	REC_START	1217925	n/a	LTP193	ltpFR	0	11	n/a	n/a	n/a	n/a	n/a	n/a	n/a	n/a	n/a	n/a	n/a
2437.058	n/a	REC_WORD	1218529	wordpools/wasnorm_wordpool_less_exclusions.txt	LTP193	ltpFR	0	11	0	VAN	1548	n/a	n/a	1	n/a	n/a	n/a	n/a	n/a
2438.41	n/a	REC_WORD	1219205	wordpools/wasnorm_wordpool_less_exclusions.txt	LTP193	ltpFR	0	11	0	BUGGY	188	n/a	n/a	1	n/a	n/a	n/a	n/a	n/a
2439.778	n/a	REC_WORD	1219889	wordpools/wasnorm_wordpool_less_exclusions.txt	LTP193	ltpFR	0	11	0	ELEPHANT	523	n/a	n/a	1	n/a	n/a	n/a	n/a	n/a
2441.374	n/a	REC_WORD	1220687	wordpools/wasnorm_wordpool_less_exclusions.txt	LTP193	ltpFR	0	11	0	MOUNTAIN	924	n/a	n/a	1	n/a	n/a	n/a	n/a	n/a
2443.18	n/a	REC_WORD	1221590	wordpools/wasnorm_wordpool_less_exclusions.txt	LTP193	ltpFR	0	11	0	RUM	1217	n/a	n/a	1	n/a	n/a	n/a	n/a	n/a
2444.452	n/a	REC_WORD	1222226	wordpools/wasnorm_wordpool_less_exclusions.txt	LTP193	ltpFR	0	11	0	VINE	1568	n/a	n/a	1	n/a	n/a	n/a	n/a	n/a
2446.014	n/a	REC_WORD	1223007	wordpools/wasnorm_wordpool_less_exclusions.txt	LTP193	ltpFR	0	11	0	SEED	1266	n/a	n/a	0	n/a	n/a	n/a	n/a	n/a
2447.918	n/a	REC_WORD_VV	1223959	wordpools/wasnorm_wordpool_less_exclusions.txt	LTP193	ltpFR	0	11	n/a	<>	-1	n/a	n/a	n/a	n/a	n/a	n/a	n/a	n/a
2449.046	n/a	REC_WORD	1224523	wordpools/wasnorm_wordpool_less_exclusions.txt	LTP193	ltpFR	0	11	0	TUNA	1518	n/a	n/a	1	n/a	n/a	n/a	n/a	n/a
2450.164	n/a	REC_WORD	1225082	wordpools/wasnorm_wordpool_less_exclusions.txt	LTP193	ltpFR	0	11	0	SALMON	1227	n/a	n/a	0	n/a	n/a	n/a	n/a	n/a
2452.718	n/a	REC_WORD	1226359	wordpools/wasnorm_wordpool_less_exclusions.txt	LTP193	ltpFR	0	11	0	DISH	474	n/a	n/a	0	n/a	n/a	n/a	n/a	n/a
2533.422	n/a	WORD	1266711	wordpools/wasnorm_wordpool_less_exclusions.txt	LTP193	ltpFR	0	12	0	SHOWER	1296	n/a	n/a	1	0.422607421875	0.5869140625	0	lower	zerothre.ttf
2537.42	n/a	WORD	1268710	wordpools/wasnorm_wordpool_less_exclusions.txt	LTP193	ltpFR	0	12	0	COCKTAIL	338	n/a	n/a	0	0.422607421875	0.5869140625	0	lower	zerothre.ttf
2541.502	n/a	WORD	1270751	wordpools/wasnorm_wordpool_less_exclusions.txt	LTP193	ltpFR	0	12	0	BOTTLE	153	n/a	n/a	0	0.422607421875	0.5869140625	0	lower	zerothre.ttf
2545.634	n/a	WORD	1272817	wordpools/wasnorm_wordpool_less_exclusions.txt	LTP193	ltpFR	0	12	0	MAID	856	n/a	n/a	1	0.422607421875	0.5869140625	0	lower	zerothre.ttf
2549.502	n/a	WORD	1274751	wordpools/wasnorm_wordpool_less_exclusions.txt	LTP193	ltpFR	0	12	0	INCENSE	735	n/a	n/a	0	0.422607421875	0.5869140625	0	lower	zerothre.ttf
2553.582	n/a	WORD	1276791	wordpools/wasnorm_wordpool_less_exclusions.txt	LTP193	ltpFR	0	12	0	SUPERMARKET	1409	n/a	n/a	1	0.422607421875	0.5869140625	0	lower	zerothre.ttf
2557.714	n/a	WORD	1278857	wordpools/wasnorm_wordpool_less_exclusions.txt	LTP193	ltpFR	0	12	0	PERSON	1052	n/a	n/a	1	0.422607421875	0.5869140625	0	lower	zerothre.ttf
2561.764	n/a	WORD	1280882	wordpools/wasnorm_wordpool_less_exclusions.txt	LTP193	ltpFR	0	12	0	SEA	1259	n/a	n/a	1	0.422607421875	0.5869140625	0	lower	zerothre.ttf
2565.678	n/a	WORD	1282839	wordpools/wasnorm_wordpool_less_exclusions.txt	LTP193	ltpFR	0	12	0	BANDANNA	80	n/a	n/a	0	0.422607421875	0.5869140625	0	lower	zerothre.ttf
2569.78	n/a	WORD	1284890	wordpools/wasnorm_wordpool_less_exclusions.txt	LTP193	ltpFR	0	12	0	NET	946	n/a	n/a	1	0.422607421875	0.5869140625	0	lower	zerothre.ttf
2573.692	n/a	WORD	1286846	wordpools/wasnorm_wordpool_less_exclusions.txt	LTP193	ltpFR	0	12	0	FISH	571	n/a	n/a	0	0.422607421875	0.5869140625	0	lower	zerothre.ttf
2577.54	n/a	WORD	1288770	wordpools/wasnorm_wordpool_less_exclusions.txt	LTP193	ltpFR	0	12	0	SCOUT	1252	n/a	n/a	1	0.422607421875	0.5869140625	0	lower	zerothre.ttf
2581.758	n/a	WORD	1290879	wordpools/wasnorm_wordpool_less_exclusions.txt	LTP193	ltpFR	0	12	0	DAUGHTER	442	n/a	n/a	1	0.422607421875	0.5869140625	0	lower	zerothre.ttf
2585.894	n/a	WORD	1292947	wordpools/wasnorm_wordpool_less_exclusions.txt	LTP193	ltpFR	0	12	0	CITIZEN	312	n/a	n/a	1	0.422607421875	0.5869140625	0	lower	zerothre.ttf
2590.056	n/a	WORD	1295028	wordpools/wasnorm_wordpool_less_exclusions.txt	LTP193	ltpFR	0	12	0	CANARY	227	n/a	n/a	0	0.422607421875	0.5869140625	0	lower	zerothre.ttf
2594.156	n/a	WORD	1297078	wordpools/wasnorm_wordpool_less_exclusions.txt	LTP193	ltpFR	0	12	0	PENGUIN	1044	n/a	n/a	1	0.422607421875	0.5869140625	0	lower	zerothre.ttf
2600.028	n/a	REC_START	1300014	n/a	LTP193	ltpFR	0	12	n/a	n/a	n/a	n/a	n/a	n/a	n/a	n/a	n/a	n/a	n/a
2600.966	n/a	REC_WORD	1300483	wordpools/wasnorm_wordpool_less_exclusions.txt	LTP193	ltpFR	0	12	0	CANARY	227	n/a	n/a	0	n/a	n/a	n/a	n/a	n/a
2602.134	n/a	REC_WORD	1301067	wordpools/wasnorm_wordpool_less_exclusions.txt	LTP193	ltpFR	0	12	0	PENGUIN	1044	n/a	n/a	1	n/a	n/a	n/a	n/a	n/a
2603.306	n/a	REC_WORD	1301653	wordpools/wasnorm_wordpool_less_exclusions.txt	LTP193	ltpFR	0	12	0	BOTTLE	153	n/a	n/a	0	n/a	n/a	n/a	n/a	n/a
2604.464	n/a	REC_WORD	1302232	wordpools/wasnorm_wordpool_less_exclusions.txt	LTP193	ltpFR	0	12	0	COCKTAIL	338	n/a	n/a	0	n/a	n/a	n/a	n/a	n/a
2605.586	n/a	REC_WORD	1302793	wordpools/wasnorm_wordpool_less_exclusions.txt	LTP193	ltpFR	0	12	0	SHOWER	1296	n/a	n/a	1	n/a	n/a	n/a	n/a	n/a
2606.802	n/a	REC_WORD	1303401	wordpools/wasnorm_wordpool_less_exclusions.txt	LTP193	ltpFR	0	12	0	SEA	1259	n/a	n/a	1	n/a	n/a	n/a	n/a	n/a
2608.11	n/a	REC_WORD	1304055	wordpools/wasnorm_wordpool_less_exclusions.txt	LTP193	ltpFR	0	12	0	MAID	856	n/a	n/a	1	n/a	n/a	n/a	n/a	n/a
2609.304	n/a	REC_WORD	1304652	wordpools/wasnorm_wordpool_less_exclusions.txt	LTP193	ltpFR	0	12	0	DAUGHTER	442	n/a	n/a	1	n/a	n/a	n/a	n/a	n/a
2610.47	n/a	REC_WORD	1305235	wordpools/wasnorm_wordpool_less_exclusions.txt	LTP193	ltpFR	0	12	0	CITIZEN	312	n/a	n/a	1	n/a	n/a	n/a	n/a	n/a
2644.52	n/a	REC_WORD	1322260	wordpools/wasnorm_wordpool_less_exclusions.txt	LTP193	ltpFR	0	12	0	FISH	571	n/a	n/a	0	n/a	n/a	n/a	n/a	n/a
2646.196	n/a	REC_WORD	1323098	wordpools/wasnorm_wordpool_less_exclusions.txt	LTP193	ltpFR	0	12	0	NET	946	n/a	n/a	1	n/a	n/a	n/a	n/a	n/a
2675.648	n/a	REST_REWET	1337824	n/a	LTP193	ltpFR	0	12	n/a	n/a	n/a	n/a	n/a	n/a	n/a	n/a	n/a	n/a	n/a
3127.962	n/a	WORD	1563981	wordpools/wasnorm_wordpool_less_exclusions.txt	LTP193	ltpFR	0	13	1	TUBE	1516	n/a	n/a	0	0.57763671875	0.412841796875	1	upper	amplitud.ttf
3131.976	n/a	WORD	1565988	wordpools/wasnorm_wordpool_less_exclusions.txt	LTP193	ltpFR	0	13	1	SHORTS	1293	n/a	n/a	0	0.57763671875	0.412841796875	1	upper	amplitud.ttf
3135.842	n/a	WORD	1567921	wordpools/wasnorm_wordpool_less_exclusions.txt	LTP193	ltpFR	0	13	0	DECK	443	n/a	n/a	1	0.422607421875	0.5869140625	0	lower	zerothre.ttf
3139.874	n/a	WORD	1569937	wordpools/wasnorm_wordpool_less_exclusions.txt	LTP193	ltpFR	0	13	0	LION	827	n/a	n/a	1	0.422607421875	0.5869140625	0	lower	zerothre.ttf
3144.01	n/a	WORD	1572005	wordpools/wasnorm_wordpool_less_exclusions.txt	LTP193	ltpFR	0	13	0	TIE	1466	n/a	n/a	0	0.422607421875	0.5869140625	0	lower	zerothre.ttf
3148.206	n/a	WORD	1574103	wordpools/wasnorm_wordpool_less_exclusions.txt	LTP193	ltpFR	0	13	0	BOWL	158	n/a	n/a	0	0.422607421875	0.5869140625	0	lower	zerothre.ttf
3152.27	n/a	WORD	1576135	wordpools/wasnorm_wordpool_less_exclusions.txt	LTP193	ltpFR	0	13	1	SHORTCAKE	1292	n/a	n/a	0	0.57763671875	0.412841796875	1	upper	amplitud.ttf
3156.188	n/a	WORD	1578094	wordpools/wasnorm_wordpool_less_exclusions.txt	LTP193	ltpFR	0	13	1	DIVER	476	n/a	n/a	1	0.57763671875	0.412841796875	1	upper	amplitud.ttf
3160.018	n/a	WORD	1580009	wordpools/wasnorm_wordpool_less_exclusions.txt	LTP193	ltpFR	0	13	1	CAPTAIN	239	n/a	n/a	1	0.57763671875	0.412841796875	1	upper	amplitud.ttf
3163.898	n/a	WORD	1581949	wordpools/wasnorm_wordpool_less_exclusions.txt	LTP193	ltpFR	0	13	1	MACARONI	851	n/a	n/a	0	0.57763671875	0.412841796875	1	upper	amplitud.ttf
3167.832	n/a	WORD	1583916	wordpools/wasnorm_wordpool_less_exclusions.txt	LTP193	ltpFR	0	13	1	DRIVER	499	n/a	n/a	1	0.57763671875	0.412841796875	1	upper	amplitud.ttf
3171.946	n/a	WORD	1585973	wordpools/wasnorm_wordpool_less_exclusions.txt	LTP193	ltpFR	0	13	1	KITCHEN	778	n/a	n/a	0	0.57763671875	0.412841796875	1	upper	amplitud.ttf
3175.896	n/a	WORD	1587948	wordpools/wasnorm_wordpool_less_exclusions.txt	LTP193	ltpFR	0	13	0	CABINET	212	n/a	n/a	1	0.422607421875	0.5869140625	0	lower	zerothre.ttf
3179.742	n/a	WORD	1589871	wordpools/wasnorm_wordpool_less_exclusions.txt	LTP193	ltpFR	0	13	0	DWARF	510	n/a	n/a	1	0.422607421875	0.5869140625	0	lower	zerothre.ttf
3183.674	n/a	WORD	1591837	wordpools/wasnorm_wordpool_less_exclusions.txt	LTP193	ltpFR	0	13	0	LAUNDRY	803	n/a	n/a	1	0.422607421875	0.5869140625	0	lower	zerothre.ttf
3187.674	n/a	WORD	1593837	wordpools/wasnorm_wordpool_less_exclusions.txt	LTP193	ltpFR	0	13	0	CLOTHES	327	n/a	n/a	1	0.422607421875	0.5869140625	0	lower	zerothre.ttf
3193.612	n/a	REC_START	1596806	n/a	LTP193	ltpFR	0	13	n/a	n/a	n/a	n/a	n/a	n/a	n/a	n/a	n/a	n/a	n/a
3195.154	n/a	REC_WORD	1597577	wordpools/wasnorm_wordpool_less_exclusions.txt	LTP193	ltpFR	0	13	0	CLOTHES	327	n/a	n/a	1	n/a	n/a	n/a	n/a	n/a
3196.182	n/a	REC_WORD	1598091	wordpools/wasnorm_wordpool_less_exclusions.txt	LTP193	ltpFR	0	13	0	LAUNDRY	803	n/a	n/a	1	n/a	n/a	n/a	n/a	n/a
3197.384	n/a	REC_WORD	1598692	wordpools/wasnorm_wordpool_less_exclusions.txt	LTP193	ltpFR	0	13	0	DWARF	510	n/a	n/a	1	n/a	n/a	n/a	n/a	n/a
3198.462	n/a	REC_WORD	1599231	wordpools/wasnorm_wordpool_less_exclusions.txt	LTP193	ltpFR	0	13	0	LION	827	n/a	n/a	1	n/a	n/a	n/a	n/a	n/a
3199.678	n/a	REC_WORD	1599839	wordpools/wasnorm_wordpool_less_exclusions.txt	LTP193	ltpFR	0	13	1	CAPTAIN	239	n/a	n/a	1	n/a	n/a	n/a	n/a	n/a
3200.876	n/a	REC_WORD	1600438	wordpools/wasnorm_wordpool_less_exclusions.txt	LTP193	ltpFR	0	13	1	MACARONI	851	n/a	n/a	0	n/a	n/a	n/a	n/a	n/a
3202.258	n/a	REC_WORD	1601129	wordpools/wasnorm_wordpool_less_exclusions.txt	LTP193	ltpFR	0	13	0	BOWL	158	n/a	n/a	0	n/a	n/a	n/a	n/a	n/a
3203.55	n/a	REC_WORD	1601775	wordpools/wasnorm_wordpool_less_exclusions.txt	LTP193	ltpFR	0	13	1	DIVER	476	n/a	n/a	1	n/a	n/a	n/a	n/a	n/a
3204.876	n/a	REC_WORD	1602438	wordpools/wasnorm_wordpool_less_exclusions.txt	LTP193	ltpFR	0	13	1	DRIVER	499	n/a	n/a	1	n/a	n/a	n/a	n/a	n/a
3206.344	n/a	REC_WORD	1603172	wordpools/wasnorm_wordpool_less_exclusions.txt	LTP193	ltpFR	0	13	0	DECK	443	n/a	n/a	1	n/a	n/a	n/a	n/a	n/a
3210.704	n/a	REC_WORD	1605352	wordpools/wasnorm_wordpool_less_exclusions.txt	LTP193	ltpFR	0	13	1	SHORTS	1293	n/a	n/a	0	n/a	n/a	n/a	n/a	n/a
3211.922	n/a	REC_WORD	1605961	wordpools/wasnorm_wordpool_less_exclusions.txt	LTP193	ltpFR	0	13	1	TUBE	1516	n/a	n/a	0	n/a	n/a	n/a	n/a	n/a
3213.418	n/a	REC_WORD	1606709	wordpools/wasnorm_wordpool_less_exclusions.txt	LTP193	ltpFR	0	13	0	TIE	1466	n/a	n/a	0	n/a	n/a	n/a	n/a	n/a
3222.498	n/a	REC_WORD	1611249	wordpools/wasnorm_wordpool_less_exclusions.txt	LTP193	ltpFR	0	13	1	CAPTAIN	239	n/a	n/a	1	n/a	n/a	n/a	n/a	n/a
3238.072	n/a	REC_WORD	1619036	wordpools/wasnorm_wordpool_less_exclusions.txt	LTP193	ltpFR	0	13	1	KITCHEN	778	n/a	n/a	0	n/a	n/a	n/a	n/a	n/a
3238.896	n/a	REC_WORD	1619448	wordpools/wasnorm_wordpool_less_exclusions.txt	LTP193	ltpFR	0	13	0	CABINET	212	n/a	n/a	1	n/a	n/a	n/a	n/a	n/a
3240.786	n/a	REC_WORD	1620393	wordpools/wasnorm_wordpool_less_exclusions.txt	LTP193	ltpFR	0	13	1	MACARONI	851	n/a	n/a	0	n/a	n/a	n/a	n/a	n/a
3283.638	n/a	WORD	1641819	wordpools/wasnorm_wordpool_less_exclusions.txt	LTP193	ltpFR	0	14	1	ENGINE	535	n/a	n/a	0	0.57763671875	0.412841796875	1	upper	amplitud.ttf
3287.47	n/a	WORD	1643735	wordpools/wasnorm_wordpool_less_exclusions.txt	LTP193	ltpFR	0	14	1	PECAN	1036	n/a	n/a	0	0.57763671875	0.412841796875	1	upper	amplitud.ttf
3291.672	n/a	WORD	1645836	wordpools/wasnorm_wordpool_less_exclusions.txt	LTP193	ltpFR	0	14	1	FELLOW	558	n/a	n/a	1	0.57763671875	0.412841796875	1	upper	amplitud.ttf
3295.534	n/a	WORD	1647767	wordpools/wasnorm_wordpool_less_exclusions.txt	LTP193	ltpFR	0	14	1	HANDBAG	684	n/a	n/a	0	0.57763671875	0.412841796875	1	upper	amplitud.ttf
3299.516	n/a	WORD	1649758	wordpools/wasnorm_wordpool_less_exclusions.txt	LTP193	ltpFR	0	14	0	MOAT	903	n/a	n/a	1	0.422607421875	0.5869140625	0	lower	zerothre.ttf
3303.682	n/a	WORD	1651841	wordpools/wasnorm_wordpool_less_exclusions.txt	LTP193	ltpFR	0	14	0	FOUNTAIN	597	n/a	n/a	1	0.422607421875	0.5869140625	0	lower	zerothre.ttf
3307.816	n/a	WORD	1653908	wordpools/wasnorm_wordpool_less_exclusions.txt	LTP193	ltpFR	0	14	1	BUSH	202	n/a	n/a	1	0.57763671875	0.412841796875	1	upper	amplitud.ttf
3311.966	n/a	WORD	1655983	wordpools/wasnorm_wordpool_less_exclusions.txt	LTP193	ltpFR	0	14	1	POCKET	1093	n/a	n/a	0	0.57763671875	0.412841796875	1	upper	amplitud.ttf
3316.098	n/a	WORD	1658049	wordpools/wasnorm_wordpool_less_exclusions.txt	LTP193	ltpFR	0	14	0	SIBLING	1301	n/a	n/a	1	0.422607421875	0.5869140625	0	lower	zerothre.ttf
3319.978	n/a	WORD	1659989	wordpools/wasnorm_wordpool_less_exclusions.txt	LTP193	ltpFR	0	14	0	TRENCH	1503	n/a	n/a	1	0.422607421875	0.5869140625	0	lower	zerothre.ttf
3324.178	n/a	WORD	1662089	wordpools/wasnorm_wordpool_less_exclusions.txt	LTP193	ltpFR	0	14	0	COUGAR	387	n/a	n/a	1	0.422607421875	0.5869140625	0	lower	zerothre.ttf
3328.346	n/a	WORD	1664173	wordpools/wasnorm_wordpool_less_exclusions.txt	LTP193	ltpFR	0	14	0	OX	994	n/a	n/a	1	0.422607421875	0.5869140625	0	lower	zerothre.ttf
3332.176	n/a	WORD	1666088	wordpools/wasnorm_wordpool_less_exclusions.txt	LTP193	ltpFR	0	14	0	COMPANION	357	n/a	n/a	1	0.422607421875	0.5869140625	0	lower	zerothre.ttf
3336.14	n/a	WORD	1668070	wordpools/wasnorm_wordpool_less_exclusions.txt	LTP193	ltpFR	0	14	0	MARGARINE	868	n/a	n/a	0	0.422607421875	0.5869140625	0	lower	zerothre.ttf
3340.106	n/a	WORD	1670053	wordpools/wasnorm_wordpool_less_exclusions.txt	LTP193	ltpFR	0	14	1	TRASH	1497	n/a	n/a	0	0.57763671875	0.412841796875	1	upper	amplitud.ttf
3344.154	n/a	WORD	1672077	wordpools/wasnorm_wordpool_less_exclusions.txt	LTP193	ltpFR	0	14	1	CAN	225	n/a	n/a	0	0.57763671875	0.412841796875	1	upper	amplitud.ttf
3350.094	n/a	REC_START	1675047	n/a	LTP193	ltpFR	0	14	n/a	n/a	n/a	n/a	n/a	n/a	n/a	n/a	n/a	n/a	n/a
3350.892	n/a	REC_WORD	1675446	wordpools/wasnorm_wordpool_less_exclusions.txt	LTP193	ltpFR	0	14	1	CAN	225	n/a	n/a	0	n/a	n/a	n/a	n/a	n/a
3352.004	n/a	REC_WORD	1676002	wordpools/wasnorm_wordpool_less_exclusions.txt	LTP193	ltpFR	0	14	1	TRASH	1497	n/a	n/a	0	n/a	n/a	n/a	n/a	n/a
3353.128	n/a	REC_WORD	1676564	wordpools/wasnorm_wordpool_less_exclusions.txt	LTP193	ltpFR	0	14	0	MOAT	903	n/a	n/a	1	n/a	n/a	n/a	n/a	n/a
3354.224	n/a	REC_WORD	1677112	wordpools/wasnorm_wordpool_less_exclusions.txt	LTP193	ltpFR	0	14	1	ENGINE	535	n/a	n/a	0	n/a	n/a	n/a	n/a	n/a
3355.338	n/a	REC_WORD	1677669	wordpools/wasnorm_wordpool_less_exclusions.txt	LTP193	ltpFR	0	14	1	PECAN	1036	n/a	n/a	0	n/a	n/a	n/a	n/a	n/a
3356.56	n/a	REC_WORD	1678280	wordpools/wasnorm_wordpool_less_exclusions.txt	LTP193	ltpFR	0	14	1	HANDBAG	684	n/a	n/a	0	n/a	n/a	n/a	n/a	n/a
3357.892	n/a	REC_WORD	1678946	wordpools/wasnorm_wordpool_less_exclusions.txt	LTP193	ltpFR	0	14	0	TRENCH	1503	n/a	n/a	1	n/a	n/a	n/a	n/a	n/a
3359.748	n/a	REC_WORD_VV	1679874	wordpools/wasnorm_wordpool_less_exclusions.txt	LTP193	ltpFR	0	14	n/a	<>	-1	n/a	n/a	n/a	n/a	n/a	n/a	n/a	n/a
3361.24	n/a	REC_WORD	1680620	wordpools/wasnorm_wordpool_less_exclusions.txt	LTP193	ltpFR	0	14	1	FELLOW	558	n/a	n/a	1	n/a	n/a	n/a	n/a	n/a
3362.856	n/a	REC_WORD	1681428	wordpools/wasnorm_wordpool_less_exclusions.txt	LTP193	ltpFR	0	14	0	COMPANION	357	n/a	n/a	1	n/a	n/a	n/a	n/a	n/a
3365.39	n/a	REC_WORD	1682695	wordpools/wasnorm_wordpool_less_exclusions.txt	LTP193	ltpFR	0	14	0	FOUNTAIN	597	n/a	n/a	1	n/a	n/a	n/a	n/a	n/a
3367.212	n/a	REC_WORD	1683606	wordpools/wasnorm_wordpool_less_exclusions.txt	LTP193	ltpFR	0	14	1	BUSH	202	n/a	n/a	1	n/a	n/a	n/a	n/a	n/a
3368.212	n/a	REC_WORD_VV	1684106	wordpools/wasnorm_wordpool_less_exclusions.txt	LTP193	ltpFR	0	14	n/a	<>	-1	n/a	n/a	n/a	n/a	n/a	n/a	n/a	n/a
3400.542	n/a	REC_WORD	1700271	wordpools/wasnorm_wordpool_less_exclusions.txt	LTP193	ltpFR	0	14	1	POCKET	1093	n/a	n/a	0	n/a	n/a	n/a	n/a	n/a
3444.204	n/a	WORD	1722102	wordpools/wasnorm_wordpool_less_exclusions.txt	LTP193	ltpFR	0	15	0	DEER	444	n/a	n/a	1	0.422607421875	0.5869140625	0	lower	zerothre.ttf
3448.242	n/a	WORD	1724121	wordpools/wasnorm_wordpool_less_exclusions.txt	LTP193	ltpFR	0	15	0	BUILDING	191	n/a	n/a	1	0.422607421875	0.5869140625	0	lower	zerothre.ttf
3452.434	n/a	WORD	1726217	wordpools/wasnorm_wordpool_less_exclusions.txt	LTP193	ltpFR	0	15	1	TERMINAL	1450	n/a	n/a	0	0.57763671875	0.412841796875	1	upper	amplitud.ttf
3456.284	n/a	WORD	1728142	wordpools/wasnorm_wordpool_less_exclusions.txt	LTP193	ltpFR	0	15	1	SIRLOIN	1311	n/a	n/a	0	0.57763671875	0.412841796875	1	upper	amplitud.ttf
3460.216	n/a	WORD	1730108	wordpools/wasnorm_wordpool_less_exclusions.txt	LTP193	ltpFR	0	15	0	BEEF	113	n/a	n/a	0	0.422607421875	0.5869140625	0	lower	zerothre.ttf
3464.062	n/a	WORD	1732031	wordpools/wasnorm_wordpool_less_exclusions.txt	LTP193	ltpFR	0	15	0	FAN	551	n/a	n/a	1	0.422607421875	0.5869140625	0	lower	zerothre.ttf
3467.894	n/a	WORD	1733947	wordpools/wasnorm_wordpool_less_exclusions.txt	LTP193	ltpFR	0	15	0	GENERAL	630	n/a	n/a	1	0.422607421875	0.5869140625	0	lower	zerothre.ttf
3471.858	n/a	WORD	1735929	wordpools/wasnorm_wordpool_less_exclusions.txt	LTP193	ltpFR	0	15	0	LIEUTENANT	818	n/a	n/a	1	0.422607421875	0.5869140625	0	lower	zerothre.ttf
3475.756	n/a	WORD	1737878	wordpools/wasnorm_wordpool_less_exclusions.txt	LTP193	ltpFR	0	15	0	LAGOON	795	n/a	n/a	1	0.422607421875	0.5869140625	0	lower	zerothre.ttf
3479.722	n/a	WORD	1739861	wordpools/wasnorm_wordpool_less_exclusions.txt	LTP193	ltpFR	0	15	0	CALF	222	n/a	n/a	1	0.422607421875	0.5869140625	0	lower	zerothre.ttf
3483.658	n/a	WORD	1741829	wordpools/wasnorm_wordpool_less_exclusions.txt	LTP193	ltpFR	0	15	1	VALVE	1546	n/a	n/a	0	0.57763671875	0.412841796875	1	upper	amplitud.ttf
3487.652	n/a	WORD	1743826	wordpools/wasnorm_wordpool_less_exclusions.txt	LTP193	ltpFR	0	15	1	DAM	436	n/a	n/a	0	0.57763671875	0.412841796875	1	upper	amplitud.ttf
3491.786	n/a	WORD	1745893	wordpools/wasnorm_wordpool_less_exclusions.txt	LTP193	ltpFR	0	15	1	COTTON	385	n/a	n/a	0	0.57763671875	0.412841796875	1	upper	amplitud.ttf
3495.666	n/a	WORD	1747833	wordpools/wasnorm_wordpool_less_exclusions.txt	LTP193	ltpFR	0	15	1	HANGER	687	n/a	n/a	0	0.57763671875	0.412841796875	1	upper	amplitud.ttf
3499.85	n/a	WORD	1749925	wordpools/wasnorm_wordpool_less_exclusions.txt	LTP193	ltpFR	0	15	1	TOMATO	1476	n/a	n/a	0	0.57763671875	0.412841796875	1	upper	amplitud.ttf
3503.836	n/a	WORD	1751918	wordpools/wasnorm_wordpool_less_exclusions.txt	LTP193	ltpFR	0	15	1	TURNIP	1521	n/a	n/a	0	0.57763671875	0.412841796875	1	upper	amplitud.ttf
3509.804	n/a	REC_START	1754902	n/a	LTP193	ltpFR	0	15	n/a	n/a	n/a	n/a	n/a	n/a	n/a	n/a	n/a	n/a	n/a
3510.628	n/a	REC_WORD	1755314	wordpools/wasnorm_wordpool_less_exclusions.txt	LTP193	ltpFR	0	15	1	TOMATO	1476	n/a	n/a	0	n/a	n/a	n/a	n/a	n/a
3511.686	n/a	REC_WORD	1755843	wordpools/wasnorm_wordpool_less_exclusions.txt	LTP193	ltpFR	0	15	1	TURNIP	1521	n/a	n/a	0	n/a	n/a	n/a	n/a	n/a
3512.944	n/a	REC_WORD	1756472	wordpools/wasnorm_wordpool_less_exclusions.txt	LTP193	ltpFR	0	15	0	GENERAL	630	n/a	n/a	1	n/a	n/a	n/a	n/a	n/a
3513.97	n/a	REC_WORD	1756985	wordpools/wasnorm_wordpool_less_exclusions.txt	LTP193	ltpFR	0	15	0	LIEUTENANT	818	n/a	n/a	1	n/a	n/a	n/a	n/a	n/a
3515.776	n/a	REC_WORD	1757888	wordpools/wasnorm_wordpool_less_exclusions.txt	LTP193	ltpFR	0	15	0	DEER	444	n/a	n/a	1	n/a	n/a	n/a	n/a	n/a
3516.914	n/a	REC_WORD	1758457	wordpools/wasnorm_wordpool_less_exclusions.txt	LTP193	ltpFR	0	15	1	TERMINAL	1450	n/a	n/a	0	n/a	n/a	n/a	n/a	n/a
3518.196	n/a	REC_WORD	1759098	wordpools/wasnorm_wordpool_less_exclusions.txt	LTP193	ltpFR	0	15	0	BUILDING	191	n/a	n/a	1	n/a	n/a	n/a	n/a	n/a
3519.558	n/a	REC_WORD	1759779	wordpools/wasnorm_wordpool_less_exclusions.txt	LTP193	ltpFR	0	15	1	COTTON	385	n/a	n/a	0	n/a	n/a	n/a	n/a	n/a
3521.104	n/a	REC_WORD	1760552	wordpools/wasnorm_wordpool_less_exclusions.txt	LTP193	ltpFR	0	15	1	DAM	436	n/a	n/a	0	n/a	n/a	n/a	n/a	n/a
3522.466	n/a	REC_WORD	1761233	wordpools/wasnorm_wordpool_less_exclusions.txt	LTP193	ltpFR	0	15	1	HANGER	687	n/a	n/a	0	n/a	n/a	n/a	n/a	n/a
3524.862	n/a	REC_WORD	1762431	wordpools/wasnorm_wordpool_less_exclusions.txt	LTP193	ltpFR	0	15	0	BEEF	113	n/a	n/a	0	n/a	n/a	n/a	n/a	n/a
3540.696	n/a	REC_WORD	1770348	wordpools/wasnorm_wordpool_less_exclusions.txt	LTP193	ltpFR	0	15	0	OX	994	n/a	n/a	1	n/a	n/a	n/a	n/a	n/a
3546.812	n/a	REC_WORD	1773406	wordpools/wasnorm_wordpool_less_exclusions.txt	LTP193	ltpFR	0	15	0	CALF	222	n/a	n/a	1	n/a	n/a	n/a	n/a	n/a
3603.778	n/a	WORD	1801889	wordpools/wasnorm_wordpool_less_exclusions.txt	LTP193	ltpFR	0	16	0	STEWARDESS	1381	n/a	n/a	1	0.422607421875	0.5869140625	0	lower	zerothre.ttf
3607.896	n/a	WORD	1803948	wordpools/wasnorm_wordpool_less_exclusions.txt	LTP193	ltpFR	0	16	0	PIKE	1067	n/a	n/a	1	0.422607421875	0.5869140625	0	lower	zerothre.ttf
3611.726	n/a	WORD	1805863	wordpools/wasnorm_wordpool_less_exclusions.txt	LTP193	ltpFR	0	16	0	BENCH	121	n/a	n/a	1	0.422607421875	0.5869140625	0	lower	zerothre.ttf
3615.574	n/a	WORD	1807787	wordpools/wasnorm_wordpool_less_exclusions.txt	LTP193	ltpFR	0	16	1	HAMBURGER	679	n/a	n/a	0	0.57763671875	0.412841796875	1	upper	amplitud.ttf
3619.606	n/a	WORD	1809803	wordpools/wasnorm_wordpool_less_exclusions.txt	LTP193	ltpFR	0	16	1	FRIES	607	n/a	n/a	0	0.57763671875	0.412841796875	1	upper	amplitud.ttf
3623.806	n/a	WORD	1811903	wordpools/wasnorm_wordpool_less_exclusions.txt	LTP193	ltpFR	0	16	1	GYMNAST	675	n/a	n/a	1	0.57763671875	0.412841796875	1	upper	amplitud.ttf
3627.872	n/a	WORD	1813936	wordpools/wasnorm_wordpool_less_exclusions.txt	LTP193	ltpFR	0	16	1	MUSHROOM	934	n/a	n/a	0	0.57763671875	0.412841796875	1	upper	amplitud.ttf
3631.82	n/a	WORD	1815910	wordpools/wasnorm_wordpool_less_exclusions.txt	LTP193	ltpFR	0	16	0	TOENAIL	1474	n/a	n/a	0	0.422607421875	0.5869140625	0	lower	zerothre.ttf
3635.836	n/a	WORD	1817918	wordpools/wasnorm_wordpool_less_exclusions.txt	LTP193	ltpFR	0	16	0	FIN	566	n/a	n/a	1	0.422607421875	0.5869140625	0	lower	zerothre.ttf
3639.984	n/a	WORD	1819992	wordpools/wasnorm_wordpool_less_exclusions.txt	LTP193	ltpFR	0	16	0	RAM	1165	n/a	n/a	1	0.422607421875	0.5869140625	0	lower	zerothre.ttf
3644.134	n/a	WORD	1822067	wordpools/wasnorm_wordpool_less_exclusions.txt	LTP193	ltpFR	0	16	1	MOOSE	915	n/a	n/a	1	0.57763671875	0.412841796875	1	upper	amplitud.ttf
3648.266	n/a	WORD	1824133	wordpools/wasnorm_wordpool_less_exclusions.txt	LTP193	ltpFR	0	16	1	STREET	1393	n/a	n/a	0	0.57763671875	0.412841796875	1	upper	amplitud.ttf
3652.098	n/a	WORD	1826049	wordpools/wasnorm_wordpool_less_exclusions.txt	LTP193	ltpFR	0	16	1	MAP	865	n/a	n/a	0	0.57763671875	0.412841796875	1	upper	amplitud.ttf
3656.08	n/a	WORD	1828040	wordpools/wasnorm_wordpool_less_exclusions.txt	LTP193	ltpFR	0	16	1	CIRCUS	311	n/a	n/a	0	0.57763671875	0.412841796875	1	upper	amplitud.ttf
3660.246	n/a	WORD	1830123	wordpools/wasnorm_wordpool_less_exclusions.txt	LTP193	ltpFR	0	16	0	STREAM	1392	n/a	n/a	1	0.422607421875	0.5869140625	0	lower	zerothre.ttf
3664.128	n/a	WORD	1832064	wordpools/wasnorm_wordpool_less_exclusions.txt	LTP193	ltpFR	0	16	0	PICKLE	1059	n/a	n/a	0	0.422607421875	0.5869140625	0	lower	zerothre.ttf
3670.0	n/a	REC_START	1835000	n/a	LTP193	ltpFR	0	16	n/a	n/a	n/a	n/a	n/a	n/a	n/a	n/a	n/a	n/a	n/a
3670.964	n/a	REC_WORD	1835482	wordpools/wasnorm_wordpool_less_exclusions.txt	LTP193	ltpFR	0	16	0	PICKLE	1059	n/a	n/a	0	n/a	n/a	n/a	n/a	n/a
3671.97	n/a	REC_WORD	1835985	wordpools/wasnorm_wordpool_less_exclusions.txt	LTP193	ltpFR	0	16	1	HAMBURGER	679	n/a	n/a	0	n/a	n/a	n/a	n/a	n/a
3673.128	n/a	REC_WORD	1836564	wordpools/wasnorm_wordpool_less_exclusions.txt	LTP193	ltpFR	0	16	1	FRIES	607	n/a	n/a	0	n/a	n/a	n/a	n/a	n/a
3674.644	n/a	REC_WORD	1837322	wordpools/wasnorm_wordpool_less_exclusions.txt	LTP193	ltpFR	0	16	0	RAM	1165	n/a	n/a	1	n/a	n/a	n/a	n/a	n/a
3675.798	n/a	REC_WORD	1837899	wordpools/wasnorm_wordpool_less_exclusions.txt	LTP193	ltpFR	0	16	0	PIKE	1067	n/a	n/a	1	n/a	n/a	n/a	n/a	n/a
3676.96	n/a	REC_WORD	1838480	wordpools/wasnorm_wordpool_less_exclusions.txt	LTP193	ltpFR	0	16	0	FIN	566	n/a	n/a	1	n/a	n/a	n/a	n/a	n/a
3678.232	n/a	REC_WORD	1839116	wordpools/wasnorm_wordpool_less_exclusions.txt	LTP193	ltpFR	0	16	0	BENCH	121	n/a	n/a	1	n/a	n/a	n/a	n/a	n/a
3681.036	n/a	REC_WORD	1840518	wordpools/wasnorm_wordpool_less_exclusions.txt	LTP193	ltpFR	0	16	1	GYMNAST	675	n/a	n/a	1	n/a	n/a	n/a	n/a	n/a
3681.948	n/a	REC_WORD	1840974	wordpools/wasnorm_wordpool_less_exclusions.txt	LTP193	ltpFR	0	16	0	STEWARDESS	1381	n/a	n/a	1	n/a	n/a	n/a	n/a	n/a
3683.256	n/a	REC_WORD	1841628	wordpools/wasnorm_wordpool_less_exclusions.txt	LTP193	ltpFR	0	16	0	STREAM	1392	n/a	n/a	1	n/a	n/a	n/a	n/a	n/a
3687.71	n/a	REC_WORD	1843855	wordpools/wasnorm_wordpool_less_exclusions.txt	LTP193	ltpFR	0	16	1	STREET	1393	n/a	n/a	0	n/a	n/a	n/a	n/a	n/a
3688.71	n/a	REC_WORD_VV	1844355	wordpools/wasnorm_wordpool_less_exclusions.txt	LTP193	ltpFR	0	16	n/a	<>	-1	n/a	n/a	n/a	n/a	n/a	n/a	n/a	n/a
3705.756	n/a	REC_WORD	1852878	wordpools/wasnorm_wordpool_less_exclusions.txt	LTP193	ltpFR	0	16	0	TOENAIL	1474	n/a	n/a	0	n/a	n/a	n/a	n/a	n/a
3818.234	n/a	REC_START	1909117	n/a	LTP193	ltpFR	0	n/a	n/a	n/a	n/a	n/a	n/a	n/a	n/a	n/a	n/a	n/a	n/a
3820.558	n/a	FFR_REC_WORD_VV	1910279	wordpools/wasnorm_wordpool_less_exclusions.txt	LTP193	ltpFR	0	n/a	n/a	<>	-1	n/a	n/a	n/a	n/a	n/a	n/a	n/a	n/a
3820.858	n/a	FFR_REC_WORD	1910429	wordpools/wasnorm_wordpool_less_exclusions.txt	LTP193	ltpFR	0	n/a	0	LION	827	n/a	n/a	1	n/a	n/a	n/a	n/a	n/a
3822.316	n/a	FFR_REC_WORD	1911158	wordpools/wasnorm_wordpool_less_exclusions.txt	LTP193	ltpFR	0	n/a	0	CLOTHES	327	n/a	n/a	1	n/a	n/a	n/a	n/a	n/a
3825.068	n/a	FFR_REC_WORD	1912534	wordpools/wasnorm_wordpool_less_exclusions.txt	LTP193	ltpFR	0	n/a	0	TIE	1466	n/a	n/a	0	n/a	n/a	n/a	n/a	n/a
3826.626	n/a	FFR_REC_WORD	1913313	wordpools/wasnorm_wordpool_less_exclusions.txt	LTP193	ltpFR	0	n/a	0	LAUNDRY	803	n/a	n/a	1	n/a	n/a	n/a	n/a	n/a
3827.928	n/a	FFR_REC_WORD	1913964	wordpools/wasnorm_wordpool_less_exclusions.txt	LTP193	ltpFR	0	n/a	1	MACARONI	851	n/a	n/a	0	n/a	n/a	n/a	n/a	n/a
3829.428	n/a	FFR_REC_WORD	1914714	wordpools/wasnorm_wordpool_less_exclusions.txt	LTP193	ltpFR	0	n/a	n/a	BALL	73	n/a	n/a	n/a	n/a	n/a	n/a	n/a	n/a
3830.626	n/a	FFR_REC_WORD	1915313	wordpools/wasnorm_wordpool_less_exclusions.txt	LTP193	ltpFR	0	n/a	1	KITCHEN	778	n/a	n/a	0	n/a	n/a	n/a	n/a	n/a
3831.96	n/a	FFR_REC_WORD	1915980	wordpools/wasnorm_wordpool_less_exclusions.txt	LTP193	ltpFR	0	n/a	0	CABINET	212	n/a	n/a	1	n/a	n/a	n/a	n/a	n/a
3833.34	n/a	FFR_REC_WORD	1916670	wordpools/wasnorm_wordpool_less_exclusions.txt	LTP193	ltpFR	0	n/a	1	DIVER	476	n/a	n/a	1	n/a	n/a	n/a	n/a	n/a
3834.534	n/a	FFR_REC_WORD	1917267	wordpools/wasnorm_wordpool_less_exclusions.txt	LTP193	ltpFR	0	n/a	1	DRIVER	499	n/a	n/a	1	n/a	n/a	n/a	n/a	n/a
3836.01	n/a	FFR_REC_WORD	1918005	wordpools/wasnorm_wordpool_less_exclusions.txt	LTP193	ltpFR	0	n/a	1	CAPTAIN	239	n/a	n/a	1	n/a	n/a	n/a	n/a	n/a
3845.628	n/a	FFR_REC_WORD	1922814	wordpools/wasnorm_wordpool_less_exclusions.txt	LTP193	ltpFR	0	n/a	0	STEWARDESS	1381	n/a	n/a	1	n/a	n/a	n/a	n/a	n/a
3849.324	n/a	FFR_REC_WORD	1924662	wordpools/wasnorm_wordpool_less_exclusions.txt	LTP193	ltpFR	0	n/a	1	GYMNAST	675	n/a	n/a	1	n/a	n/a	n/a	n/a	n/a
3850.602	n/a	FFR_REC_WORD	1925301	wordpools/wasnorm_wordpool_less_exclusions.txt	LTP193	ltpFR	0	n/a	0	TOENAIL	1474	n/a	n/a	0	n/a	n/a	n/a	n/a	n/a
3853.176	n/a	FFR_REC_WORD	1926588	wordpools/wasnorm_wordpool_less_exclusions.txt	LTP193	ltpFR	0	n/a	-1	CREEK	404	n/a	n/a	-1	n/a	n/a	n/a	n/a	n/a
3854.648	n/a	FFR_REC_WORD	1927324	wordpools/wasnorm_wordpool_less_exclusions.txt	LTP193	ltpFR	0	n/a	0	BENCH	121	n/a	n/a	1	n/a	n/a	n/a	n/a	n/a
3855.456	n/a	FFR_REC_WORD	1927728	wordpools/wasnorm_wordpool_less_exclusions.txt	LTP193	ltpFR	0	n/a	0	RAM	1165	n/a	n/a	1	n/a	n/a	n/a	n/a	n/a
3856.55	n/a	FFR_REC_WORD	1928275	wordpools/wasnorm_wordpool_less_exclusions.txt	LTP193	ltpFR	0	n/a	1	HAMBURGER	679	n/a	n/a	0	n/a	n/a	n/a	n/a	n/a
3857.506	n/a	FFR_REC_WORD	1928753	wordpools/wasnorm_wordpool_less_exclusions.txt	LTP193	ltpFR	0	n/a	1	FRIES	607	n/a	n/a	0	n/a	n/a	n/a	n/a	n/a
3858.924	n/a	FFR_REC_WORD	1929462	wordpools/wasnorm_wordpool_less_exclusions.txt	LTP193	ltpFR	0	n/a	0	PICKLE	1059	n/a	n/a	0	n/a	n/a	n/a	n/a	n/a
3869.316	n/a	FFR_REC_WORD	1934658	wordpools/wasnorm_wordpool_less_exclusions.txt	LTP193	ltpFR	0	n/a	-1	ALLIGATOR	16	n/a	n/a	-1	n/a	n/a	n/a	n/a	n/a
3870.316	n/a	FFR_REC_WORD_VV	1935158	wordpools/wasnorm_wordpool_less_exclusions.txt	LTP193	ltpFR	0	n/a	n/a	<>	-1	n/a	n/a	n/a	n/a	n/a	n/a	n/a	n/a
3883.718	n/a	FFR_REC_WORD	1941859	wordpools/wasnorm_wordpool_less_exclusions.txt	LTP193	ltpFR	0	n/a	0	FOUNTAIN	597	n/a	n/a	1	n/a	n/a	n/a	n/a	n/a
3884.718	n/a	FFR_REC_WORD_VV	1942359	wordpools/wasnorm_wordpool_less_exclusions.txt	LTP193	ltpFR	0	n/a	n/a	<>	-1	n/a	n/a	n/a	n/a	n/a	n/a	n/a	n/a
3886.946	n/a	FFR_REC_WORD	1943473	wordpools/wasnorm_wordpool_less_exclusions.txt	LTP193	ltpFR	0	n/a	1	ENGINE	535	n/a	n/a	0	n/a	n/a	n/a	n/a	n/a
3889.372	n/a	FFR_REC_WORD	1944686	wordpools/wasnorm_wordpool_less_exclusions.txt	LTP193	ltpFR	0	n/a	0	COMPANION	357	n/a	n/a	1	n/a	n/a	n/a	n/a	n/a
3890.928	n/a	FFR_REC_WORD	1945464	wordpools/wasnorm_wordpool_less_exclusions.txt	LTP193	ltpFR	0	n/a	1	FELLOW	558	n/a	n/a	1	n/a	n/a	n/a	n/a	n/a
3892.204	n/a	FFR_REC_WORD	1946102	wordpools/wasnorm_wordpool_less_exclusions.txt	LTP193	ltpFR	0	n/a	1	PECAN	1036	n/a	n/a	0	n/a	n/a	n/a	n/a	n/a
3893.282	n/a	FFR_REC_WORD	1946641	wordpools/wasnorm_wordpool_less_exclusions.txt	LTP193	ltpFR	0	n/a	1	HANDBAG	684	n/a	n/a	0	n/a	n/a	n/a	n/a	n/a
3894.744	n/a	FFR_REC_WORD	1947372	wordpools/wasnorm_wordpool_less_exclusions.txt	LTP193	ltpFR	0	n/a	1	TRASH	1497	n/a	n/a	0	n/a	n/a	n/a	n/a	n/a
3895.932	n/a	FFR_REC_WORD	1947966	wordpools/wasnorm_wordpool_less_exclusions.txt	LTP193	ltpFR	0	n/a	1	CAN	225	n/a	n/a	0	n/a	n/a	n/a	n/a	n/a
3898.096	n/a	FFR_REC_WORD	1949048	wordpools/wasnorm_wordpool_less_exclusions.txt	LTP193	ltpFR	0	n/a	0	MOAT	903	n/a	n/a	1	n/a	n/a	n/a	n/a	n/a
3899.528	n/a	FFR_REC_WORD	1949764	wordpools/wasnorm_wordpool_less_exclusions.txt	LTP193	ltpFR	0	n/a	0	TRENCH	1503	n/a	n/a	1	n/a	n/a	n/a	n/a	n/a
3902.242	n/a	FFR_REC_WORD	1951121	wordpools/wasnorm_wordpool_less_exclusions.txt	LTP193	ltpFR	0	n/a	1	MONASTERY	907	n/a	n/a	0	n/a	n/a	n/a	n/a	n/a
3905.216	n/a	FFR_REC_WORD	1952608	wordpools/wasnorm_wordpool_less_exclusions.txt	LTP193	ltpFR	0	n/a	1	HAWK	692	n/a	n/a	1	n/a	n/a	n/a	n/a	n/a
3908.454	n/a	FFR_REC_WORD_VV	1954227	wordpools/wasnorm_wordpool_less_exclusions.txt	LTP193	ltpFR	0	n/a	n/a	<>	-1	n/a	n/a	n/a	n/a	n/a	n/a	n/a	n/a
3909.442	n/a	FFR_REC_WORD	1954721	wordpools/wasnorm_wordpool_less_exclusions.txt	LTP193	ltpFR	0	n/a	1	NEPHEW	942	n/a	n/a	1	n/a	n/a	n/a	n/a	n/a
3910.554	n/a	FFR_REC_WORD	1955277	wordpools/wasnorm_wordpool_less_exclusions.txt	LTP193	ltpFR	0	n/a	1	UNCLE	1536	n/a	n/a	1	n/a	n/a	n/a	n/a	n/a
3911.846	n/a	FFR_REC_WORD	1955923	wordpools/wasnorm_wordpool_less_exclusions.txt	LTP193	ltpFR	0	n/a	1	SALESMAN	1225	n/a	n/a	1	n/a	n/a	n/a	n/a	n/a
3913.962	n/a	FFR_REC_WORD	1956981	wordpools/wasnorm_wordpool_less_exclusions.txt	LTP193	ltpFR	0	n/a	1	CUSTOMER	430	n/a	n/a	1	n/a	n/a	n/a	n/a	n/a
3916.46	n/a	FFR_REC_WORD	1958230	wordpools/wasnorm_wordpool_less_exclusions.txt	LTP193	ltpFR	0	n/a	1	RIB	1188	n/a	n/a	0	n/a	n/a	n/a	n/a	n/a
3920.082	n/a	FFR_REC_WORD	1960041	wordpools/wasnorm_wordpool_less_exclusions.txt	LTP193	ltpFR	0	n/a	0	ELEPHANT	523	n/a	n/a	1	n/a	n/a	n/a	n/a	n/a
3922.158	n/a	FFR_REC_WORD	1961079	wordpools/wasnorm_wordpool_less_exclusions.txt	LTP193	ltpFR	0	n/a	0	DISH	474	n/a	n/a	0	n/a	n/a	n/a	n/a	n/a
3924.034	n/a	FFR_REC_WORD	1962017	wordpools/wasnorm_wordpool_less_exclusions.txt	LTP193	ltpFR	0	n/a	0	VINE	1568	n/a	n/a	1	n/a	n/a	n/a	n/a	n/a
3926.858	n/a	FFR_REC_WORD	1963429	wordpools/wasnorm_wordpool_less_exclusions.txt	LTP193	ltpFR	0	n/a	0	SEED	1266	n/a	n/a	0	n/a	n/a	n/a	n/a	n/a
3928.71	n/a	FFR_REC_WORD	1964355	wordpools/wasnorm_wordpool_less_exclusions.txt	LTP193	ltpFR	0	n/a	0	RUM	1217	n/a	n/a	1	n/a	n/a	n/a	n/a	n/a
3952.038	n/a	FFR_REC_WORD	1976019	wordpools/wasnorm_wordpool_less_exclusions.txt	LTP193	ltpFR	0	n/a	1	UNICORN	1538	n/a	n/a	1	n/a	n/a	n/a	n/a	n/a
3958.382	n/a	FFR_REC_WORD	1979191	wordpools/wasnorm_wordpool_less_exclusions.txt	LTP193	ltpFR	0	n/a	1	PALM	1007	n/a	n/a	0	n/a	n/a	n/a	n/a	n/a
3961.366	n/a	FFR_REC_WORD	1980683	wordpools/wasnorm_wordpool_less_exclusions.txt	LTP193	ltpFR	0	n/a	1	SUSPECT	1415	n/a	n/a	1	n/a	n/a	n/a	n/a	n/a
3962.366	n/a	FFR_REC_WORD_VV	1981183	wordpools/wasnorm_wordpool_less_exclusions.txt	LTP193	ltpFR	0	n/a	n/a	<>	-1	n/a	n/a	n/a	n/a	n/a	n/a	n/a	n/a
3963.352	n/a	FFR_REC_WORD	1981676	wordpools/wasnorm_wordpool_less_exclusions.txt	LTP193	ltpFR	0	n/a	1	MOON	914	n/a	n/a	0	n/a	n/a	n/a	n/a	n/a
3965.048	n/a	FFR_REC_WORD	1982524	wordpools/wasnorm_wordpool_less_exclusions.txt	LTP193	ltpFR	0	n/a	1	CANAL	226	n/a	n/a	0	n/a	n/a	n/a	n/a	n/a
3966.496	n/a	FFR_REC_WORD	1983248	wordpools/wasnorm_wordpool_less_exclusions.txt	LTP193	ltpFR	0	n/a	1	SUITE	1404	n/a	n/a	0	n/a	n/a	n/a	n/a	n/a
3972.038	n/a	FFR_REC_WORD	1986019	wordpools/wasnorm_wordpool_less_exclusions.txt	LTP193	ltpFR	0	n/a	1	HOSE	720	n/a	n/a	0	n/a	n/a	n/a	n/a	n/a
3985.488	n/a	FFR_REC_WORD	1992744	wordpools/wasnorm_wordpool_less_exclusions.txt	LTP193	ltpFR	0	n/a	1	STALLION	1369	n/a	n/a	1	n/a	n/a	n/a	n/a	n/a
3987.432	n/a	FFR_REC_WORD	1993716	wordpools/wasnorm_wordpool_less_exclusions.txt	LTP193	ltpFR	0	n/a	1	THICKET	1455	n/a	n/a	0	n/a	n/a	n/a	n/a	n/a
3988.93	n/a	FFR_REC_WORD	1994465	wordpools/wasnorm_wordpool_less_exclusions.txt	LTP193	ltpFR	0	n/a	1	ROOT	1210	n/a	n/a	0	n/a	n/a	n/a	n/a	n/a
3990.426	n/a	FFR_REC_WORD	1995213	wordpools/wasnorm_wordpool_less_exclusions.txt	LTP193	ltpFR	0	n/a	1	BEE	112	n/a	n/a	1	n/a	n/a	n/a	n/a	n/a
4002.68	n/a	FFR_REC_WORD	2001340	wordpools/wasnorm_wordpool_less_exclusions.txt	LTP193	ltpFR	0	n/a	0	WRENCH	1625	n/a	n/a	0	n/a	n/a	n/a	n/a	n/a
4004.606	n/a	FFR_REC_WORD	2002303	wordpools/wasnorm_wordpool_less_exclusions.txt	LTP193	ltpFR	0	n/a	0	HORSE	719	n/a	n/a	1	n/a	n/a	n/a	n/a	n/a
4006.242	n/a	FFR_REC_WORD	2003121	wordpools/wasnorm_wordpool_less_exclusions.txt	LTP193	ltpFR	0	n/a	0	FACE	547	n/a	n/a	1	n/a	n/a	n/a	n/a	n/a
4008.072	n/a	FFR_REC_WORD	2004036	wordpools/wasnorm_wordpool_less_exclusions.txt	LTP193	ltpFR	0	n/a	0	DRILL	497	n/a	n/a	1	n/a	n/a	n/a	n/a	n/a
4009.53	n/a	FFR_REC_WORD	2004765	wordpools/wasnorm_wordpool_less_exclusions.txt	LTP193	ltpFR	0	n/a	0	FOREHEAD	592	n/a	n/a	0	n/a	n/a	n/a	n/a	n/a
4020.242	n/a	FFR_REC_WORD	2010121	wordpools/wasnorm_wordpool_less_exclusions.txt	LTP193	ltpFR	0	n/a	1	BUSH	202	n/a	n/a	1	n/a	n/a	n/a	n/a	n/a
4022.7	n/a	FFR_REC_WORD	2011350	wordpools/wasnorm_wordpool_less_exclusions.txt	LTP193	ltpFR	0	n/a	0	FOUNTAIN	597	n/a	n/a	1	n/a	n/a	n/a	n/a	n/a
4034.2	n/a	FFR_REC_WORD	2017100	wordpools/wasnorm_wordpool_less_exclusions.txt	LTP193	ltpFR	0	n/a	0	SHACK	1273	n/a	n/a	1	n/a	n/a	n/a	n/a	n/a
4035.312	n/a	FFR_REC_WORD	2017656	wordpools/wasnorm_wordpool_less_exclusions.txt	LTP193	ltpFR	0	n/a	1	SHED	1277	n/a	n/a	0	n/a	n/a	n/a	n/a	n/a
4036.44	n/a	FFR_REC_WORD	2018220	wordpools/wasnorm_wordpool_less_exclusions.txt	LTP193	ltpFR	0	n/a	1	SHARK	1275	n/a	n/a	1	n/a	n/a	n/a	n/a	n/a
4037.756	n/a	FFR_REC_WORD	2018878	wordpools/wasnorm_wordpool_less_exclusions.txt	LTP193	ltpFR	0	n/a	1	DOLPHIN	483	n/a	n/a	1	n/a	n/a	n/a	n/a	n/a
4038.65	n/a	FFR_REC_WORD	2019325	wordpools/wasnorm_wordpool_less_exclusions.txt	LTP193	ltpFR	0	n/a	1	VEGETABLE	1552	n/a	n/a	1	n/a	n/a	n/a	n/a	n/a
4039.852	n/a	FFR_REC_WORD	2019926	wordpools/wasnorm_wordpool_less_exclusions.txt	LTP193	ltpFR	0	n/a	1	RICE	1190	n/a	n/a	0	n/a	n/a	n/a	n/a	n/a
4041.24	n/a	FFR_REC_WORD	2020620	wordpools/wasnorm_wordpool_less_exclusions.txt	LTP193	ltpFR	0	n/a	1	CELERY	266	n/a	n/a	1	n/a	n/a	n/a	n/a	n/a
4043.938	n/a	FFR_REC_WORD	2021969	wordpools/wasnorm_wordpool_less_exclusions.txt	LTP193	ltpFR	0	n/a	1	MARS	873	n/a	n/a	0	n/a	n/a	n/a	n/a	n/a
4045.086	n/a	FFR_REC_WORD	2022543	wordpools/wasnorm_wordpool_less_exclusions.txt	LTP193	ltpFR	0	n/a	1	EARTH	515	n/a	n/a	0	n/a	n/a	n/a	n/a	n/a
4047.89	n/a	FFR_REC_WORD	2023945	wordpools/wasnorm_wordpool_less_exclusions.txt	LTP193	ltpFR	0	n/a	n/a	ACTOR	5	n/a	n/a	n/a	n/a	n/a	n/a	n/a	n/a
4048.658	n/a	FFR_REC_WORD	2024329	wordpools/wasnorm_wordpool_less_exclusions.txt	LTP193	ltpFR	0	n/a	1	ACTRESS	6	n/a	n/a	1	n/a	n/a	n/a	n/a	n/a
4053.068	n/a	FFR_REC_WORD	2026534	wordpools/wasnorm_wordpool_less_exclusions.txt	LTP193	ltpFR	0	n/a	1	CRITIC	410	n/a	n/a	1	n/a	n/a	n/a	n/a	n/a
4061.37	n/a	FFR_REC_WORD	2030685	wordpools/wasnorm_wordpool_less_exclusions.txt	LTP193	ltpFR	0	n/a	1	WASHER	1592	n/a	n/a	0	n/a	n/a	n/a	n/a	n/a
4070.674	n/a	FFR_REC_WORD	2035337	wordpools/wasnorm_wordpool_less_exclusions.txt	LTP193	ltpFR	0	n/a	1	PONY	1102	n/a	n/a	1	n/a	n/a	n/a	n/a	n/a
4072.978	n/a	FFR_REC_WORD	2036489	wordpools/wasnorm_wordpool_less_exclusions.txt	LTP193	ltpFR	0	n/a	1	GIRL	637	n/a	n/a	1	n/a	n/a	n/a	n/a	n/a
4075.038	n/a	FFR_REC_WORD	2037519	wordpools/wasnorm_wordpool_less_exclusions.txt	LTP193	ltpFR	0	n/a	1	FOLDER	588	n/a	n/a	1	n/a	n/a	n/a	n/a	n/a
4076.96	n/a	FFR_REC_WORD	2038480	wordpools/wasnorm_wordpool_less_exclusions.txt	LTP193	ltpFR	0	n/a	1	SACK	1220	n/a	n/a	0	n/a	n/a	n/a	n/a	n/a
4079.624	n/a	FFR_REC_WORD	2039812	wordpools/wasnorm_wordpool_less_exclusions.txt	LTP193	ltpFR	0	n/a	1	BUTLER	204	n/a	n/a	1	n/a	n/a	n/a	n/a	n/a
4081.066	n/a	FFR_REC_WORD	2040533	wordpools/wasnorm_wordpool_less_exclusions.txt	LTP193	ltpFR	0	n/a	1	UMPIRE	1535	n/a	n/a	1	n/a	n/a	n/a	n/a	n/a
4082.498	n/a	FFR_REC_WORD	2041249	wordpools/wasnorm_wordpool_less_exclusions.txt	LTP193	ltpFR	0	n/a	1	MONARCH	906	n/a	n/a	0	n/a	n/a	n/a	n/a	n/a
4083.804	n/a	FFR_REC_WORD	2041902	wordpools/wasnorm_wordpool_less_exclusions.txt	LTP193	ltpFR	0	n/a	1	CHESS	294	n/a	n/a	0	n/a	n/a	n/a	n/a	n/a
4085.012	n/a	FFR_REC_WORD	2042506	wordpools/wasnorm_wordpool_less_exclusions.txt	LTP193	ltpFR	0	n/a	1	CHECKERS	285	n/a	n/a	0	n/a	n/a	n/a	n/a	n/a
4470.526	n/a	REC_START	2235263	n/a	LTP193	ltpFR	0	1	n/a	n/a	n/a	n/a	n/a	n/a	n/a	n/a	n/a	n/a	n/a
4470.574	n/a	RECOG_TARGET	2235287	n/a	LTP193	ltpFR	0	1	1	PECAN	1036	1	5	0	n/a	n/a	n/a	n/a	n/a
4471.616	n/a	RECOG_RESP	2235808	n/a	LTP193	ltpFR	0	1	1	PECAN	1036	1	n/a	0	n/a	n/a	n/a	n/a	n/a
4473.91	n/a	RECOG_CONF	2236955	n/a	LTP193	ltpFR	0	1	1	PECAN	1036	n/a	5	0	n/a	n/a	n/a	n/a	n/a
4476.648	n/a	RECOG_TARGET	2238324	n/a	LTP193	ltpFR	0	1	-1	TEA	1439	1	5	-1	n/a	n/a	n/a	n/a	n/a
4478.898	n/a	RECOG_RESP	2239449	n/a	LTP193	ltpFR	0	1	-1	TEA	1439	1	n/a	-1	n/a	n/a	n/a	n/a	n/a
4481.012	n/a	RECOG_CONF	2240506	n/a	LTP193	ltpFR	0	1	-1	TEA	1439	n/a	5	-1	n/a	n/a	n/a	n/a	n/a
4484.746	n/a	RECOG_TARGET	2242373	n/a	LTP193	ltpFR	0	1	1	GIRL	637	1	5	1	n/a	n/a	n/a	n/a	n/a
4485.702	n/a	RECOG_RESP	2242851	n/a	LTP193	ltpFR	0	1	1	GIRL	637	1	n/a	1	n/a	n/a	n/a	n/a	n/a
4487.354	n/a	RECOG_CONF	2243677	n/a	LTP193	ltpFR	0	1	1	GIRL	637	n/a	5	1	n/a	n/a	n/a	n/a	n/a
4489.28	n/a	RECOG_TARGET	2244640	n/a	LTP193	ltpFR	0	1	1	PONY	1102	1	5	1	n/a	n/a	n/a	n/a	n/a
4490.074	n/a	RECOG_RESP	2245037	n/a	LTP193	ltpFR	0	1	1	PONY	1102	1	n/a	1	n/a	n/a	n/a	n/a	n/a
4491.434	n/a	RECOG_CONF	2245717	n/a	LTP193	ltpFR	0	1	1	PONY	1102	n/a	5	1	n/a	n/a	n/a	n/a	n/a
4493.212	n/a	RECOG_TARGET	2246606	n/a	LTP193	ltpFR	0	1	0	NOTE	958	1	4	0	n/a	n/a	n/a	n/a	n/a
4494.458	n/a	RECOG_RESP	2247229	n/a	LTP193	ltpFR	0	1	0	NOTE	958	1	n/a	0	n/a	n/a	n/a	n/a	n/a
4496.084	n/a	RECOG_CONF	2248042	n/a	LTP193	ltpFR	0	1	0	NOTE	958	n/a	4	0	n/a	n/a	n/a	n/a	n/a
4498.048	n/a	RECOG_LURE	2249024	n/a	LTP193	ltpFR	0	1	n/a	PIE	1062	0	3	n/a	n/a	n/a	n/a	n/a	n/a
4499.948	n/a	RECOG_RESP	2249974	n/a	LTP193	ltpFR	0	1	n/a	PIE	1062	0	n/a	n/a	n/a	n/a	n/a	n/a	n/a
4502.482	n/a	RECOG_CONF	2251241	n/a	LTP193	ltpFR	0	1	n/a	PIE	1062	n/a	3	n/a	n/a	n/a	n/a	n/a	n/a
4504.272	n/a	RECOG_TARGET	2252136	n/a	LTP193	ltpFR	0	1	0	RAM	1165	1	5	1	n/a	n/a	n/a	n/a	n/a
4505.14	n/a	RECOG_RESP	2252570	n/a	LTP193	ltpFR	0	1	0	RAM	1165	1	n/a	1	n/a	n/a	n/a	n/a	n/a
4506.472	n/a	RECOG_CONF	2253236	n/a	LTP193	ltpFR	0	1	0	RAM	1165	n/a	5	1	n/a	n/a	n/a	n/a	n/a
4508.502	n/a	RECOG_TARGET	2254251	n/a	LTP193	ltpFR	0	1	0	BENCH	121	1	5	1	n/a	n/a	n/a	n/a	n/a
4509.806	n/a	RECOG_RESP	2254903	n/a	LTP193	ltpFR	0	1	0	BENCH	121	1	n/a	1	n/a	n/a	n/a	n/a	n/a
4510.992	n/a	RECOG_CONF	2255496	n/a	LTP193	ltpFR	0	1	0	BENCH	121	n/a	5	1	n/a	n/a	n/a	n/a	n/a
4512.904	n/a	RECOG_TARGET	2256452	n/a	LTP193	ltpFR	0	1	0	RUM	1217	1	5	1	n/a	n/a	n/a	n/a	n/a
4513.962	n/a	RECOG_RESP	2256981	n/a	LTP193	ltpFR	0	1	0	RUM	1217	1	n/a	1	n/a	n/a	n/a	n/a	n/a
4515.142	n/a	RECOG_CONF	2257571	n/a	LTP193	ltpFR	0	1	0	RUM	1217	n/a	5	1	n/a	n/a	n/a	n/a	n/a
4517.02	n/a	RECOG_TARGET	2258510	n/a	LTP193	ltpFR	0	1	-1	BLUEPRINT	142	1	5	-1	n/a	n/a	n/a	n/a	n/a
4517.986	n/a	RECOG_RESP	2258993	n/a	LTP193	ltpFR	0	1	-1	BLUEPRINT	142	1	n/a	-1	n/a	n/a	n/a	n/a	n/a
4519.242	n/a	RECOG_CONF	2259621	n/a	LTP193	ltpFR	0	1	-1	BLUEPRINT	142	n/a	5	-1	n/a	n/a	n/a	n/a	n/a
4521.036	n/a	RECOG_TARGET	2260518	n/a	LTP193	ltpFR	0	1	0	SAXOPHONE	1240	1	5	1	n/a	n/a	n/a	n/a	n/a
4521.902	n/a	RECOG_RESP	2260951	n/a	LTP193	ltpFR	0	1	0	SAXOPHONE	1240	1	n/a	1	n/a	n/a	n/a	n/a	n/a
4523.064	n/a	RECOG_CONF	2261532	n/a	LTP193	ltpFR	0	1	0	SAXOPHONE	1240	n/a	5	1	n/a	n/a	n/a	n/a	n/a
4524.934	n/a	RECOG_TARGET	2262467	n/a	LTP193	ltpFR	0	1	1	CANAL	226	1	5	0	n/a	n/a	n/a	n/a	n/a
4526.032	n/a	RECOG_RESP	2263016	n/a	LTP193	ltpFR	0	1	1	CANAL	226	1	n/a	0	n/a	n/a	n/a	n/a	n/a
4527.156	n/a	RECOG_CONF	2263578	n/a	LTP193	ltpFR	0	1	1	CANAL	226	n/a	5	0	n/a	n/a	n/a	n/a	n/a
4529.15	n/a	RECOG_TARGET	2264575	n/a	LTP193	ltpFR	0	1	1	DRIVER	499	1	5	1	n/a	n/a	n/a	n/a	n/a
4530.096	n/a	RECOG_RESP	2265048	n/a	LTP193	ltpFR	0	1	1	DRIVER	499	1	n/a	1	n/a	n/a	n/a	n/a	n/a
4531.258	n/a	RECOG_CONF	2265629	n/a	LTP193	ltpFR	0	1	1	DRIVER	499	n/a	5	1	n/a	n/a	n/a	n/a	n/a
4533.116	n/a	RECOG_LURE	2266558	n/a	LTP193	ltpFR	0	1	n/a	FORK	594	0	5	n/a	n/a	n/a	n/a	n/a	n/a
4534.272	n/a	RECOG_RESP	2267136	n/a	LTP193	ltpFR	0	1	n/a	FORK	594	0	n/a	n/a	n/a	n/a	n/a	n/a	n/a
4535.278	n/a	RECOG_CONF	2267639	n/a	LTP193	ltpFR	0	1	n/a	FORK	594	n/a	5	n/a	n/a	n/a	n/a	n/a	n/a
4537.148	n/a	RECOG_TARGET	2268574	n/a	LTP193	ltpFR	0	1	0	PICKLE	1059	1	5	0	n/a	n/a	n/a	n/a	n/a
4538.336	n/a	RECOG_RESP	2269168	n/a	LTP193	ltpFR	0	1	0	PICKLE	1059	1	n/a	0	n/a	n/a	n/a	n/a	n/a
4539.224	n/a	RECOG_CONF	2269612	n/a	LTP193	ltpFR	0	1	0	PICKLE	1059	n/a	5	0	n/a	n/a	n/a	n/a	n/a
4541.078	n/a	RECOG_TARGET	2270539	n/a	LTP193	ltpFR	0	1	0	DOUGHNUT	490	0	3	0	n/a	n/a	n/a	n/a	n/a
4542.598	n/a	RECOG_RESP	2271299	n/a	LTP193	ltpFR	0	1	0	DOUGHNUT	490	0	n/a	0	n/a	n/a	n/a	n/a	n/a
4543.808	n/a	RECOG_CONF	2271904	n/a	LTP193	ltpFR	0	1	0	DOUGHNUT	490	n/a	3	0	n/a	n/a	n/a	n/a	n/a
4545.562	n/a	RECOG_TARGET	2272781	n/a	LTP193	ltpFR	0	1	0	MOUNTAIN	924	1	5	1	n/a	n/a	n/a	n/a	n/a
4546.558	n/a	RECOG_RESP	2273279	n/a	LTP193	ltpFR	0	1	0	MOUNTAIN	924	1	n/a	1	n/a	n/a	n/a	n/a	n/a
4547.61	n/a	RECOG_CONF	2273805	n/a	LTP193	ltpFR	0	1	0	MOUNTAIN	924	n/a	5	1	n/a	n/a	n/a	n/a	n/a
4549.176	n/a	RECOG_TARGET	2274588	n/a	LTP193	ltpFR	0	1	1	FRIES	607	1	5	0	n/a	n/a	n/a	n/a	n/a
4550.148	n/a	RECOG_RESP	2275074	n/a	LTP193	ltpFR	0	1	1	FRIES	607	1	n/a	0	n/a	n/a	n/a	n/a	n/a
4551.208	n/a	RECOG_CONF	2275604	n/a	LTP193	ltpFR	0	1	1	FRIES	607	n/a	5	0	n/a	n/a	n/a	n/a	n/a
4553.024	n/a	RECOG_LURE	2276512	n/a	LTP193	ltpFR	0	1	n/a	FINGER	567	0	3	n/a	n/a	n/a	n/a	n/a	n/a
4554.582	n/a	RECOG_RESP	2277291	n/a	LTP193	ltpFR	0	1	n/a	FINGER	567	0	n/a	n/a	n/a	n/a	n/a	n/a	n/a
4555.74	n/a	RECOG_CONF	2277870	n/a	LTP193	ltpFR	0	1	n/a	FINGER	567	n/a	3	n/a	n/a	n/a	n/a	n/a	n/a
4557.496	n/a	RECOG_TARGET	2278748	n/a	LTP193	ltpFR	0	1	0	LION	827	1	5	1	n/a	n/a	n/a	n/a	n/a
4558.3	n/a	RECOG_RESP	2279150	n/a	LTP193	ltpFR	0	1	0	LION	827	1	n/a	1	n/a	n/a	n/a	n/a	n/a
4559.796	n/a	RECOG_CONF	2279898	n/a	LTP193	ltpFR	0	1	0	LION	827	n/a	5	1	n/a	n/a	n/a	n/a	n/a
4624.472	n/a	REC_START	2312236	n/a	LTP193	ltpFR	0	2	n/a	n/a	n/a	n/a	n/a	n/a	n/a	n/a	n/a	n/a	n/a
4624.514	n/a	RECOG_LURE	2312257	n/a	LTP193	ltpFR	0	2	n/a	PUMPKIN	1142	0	4	n/a	n/a	n/a	n/a	n/a	n/a
4625.822	n/a	RECOG_RESP	2312911	n/a	LTP193	ltpFR	0	2	n/a	PUMPKIN	1142	0	n/a	n/a	n/a	n/a	n/a	n/a	n/a
4628.044	n/a	RECOG_CONF	2314022	n/a	LTP193	ltpFR	0	2	n/a	PUMPKIN	1142	n/a	4	n/a	n/a	n/a	n/a	n/a	n/a
4630.236	n/a	RECOG_TARGET	2315118	n/a	LTP193	ltpFR	0	2	-1	KANGAROO	768	1	5	-1	n/a	n/a	n/a	n/a	n/a
4631.258	n/a	RECOG_RESP	2315629	n/a	LTP193	ltpFR	0	2	-1	KANGAROO	768	1	n/a	-1	n/a	n/a	n/a	n/a	n/a
4632.372	n/a	RECOG_CONF	2316186	n/a	LTP193	ltpFR	0	2	-1	KANGAROO	768	n/a	5	-1	n/a	n/a	n/a	n/a	n/a
4634.1	n/a	RECOG_TARGET	2317050	n/a	LTP193	ltpFR	0	2	0	FIDDLE	561	1	5	1	n/a	n/a	n/a	n/a	n/a
4635.288	n/a	RECOG_RESP	2317644	n/a	LTP193	ltpFR	0	2	0	FIDDLE	561	1	n/a	1	n/a	n/a	n/a	n/a	n/a
4636.484	n/a	RECOG_CONF	2318242	n/a	LTP193	ltpFR	0	2	0	FIDDLE	561	n/a	5	1	n/a	n/a	n/a	n/a	n/a
4638.3	n/a	RECOG_TARGET	2319150	n/a	LTP193	ltpFR	0	2	1	ELBOW	520	1	3	0	n/a	n/a	n/a	n/a	n/a
4640.118	n/a	RECOG_RESP	2320059	n/a	LTP193	ltpFR	0	2	1	ELBOW	520	1	n/a	0	n/a	n/a	n/a	n/a	n/a
4641.498	n/a	RECOG_CONF	2320749	n/a	LTP193	ltpFR	0	2	1	ELBOW	520	n/a	3	0	n/a	n/a	n/a	n/a	n/a
4643.37	n/a	RECOG_TARGET	2321685	n/a	LTP193	ltpFR	0	2	1	HANGER	687	1	5	0	n/a	n/a	n/a	n/a	n/a
4644.626	n/a	RECOG_RESP	2322313	n/a	LTP193	ltpFR	0	2	1	HANGER	687	1	n/a	0	n/a	n/a	n/a	n/a	n/a
4645.63	n/a	RECOG_CONF	2322815	n/a	LTP193	ltpFR	0	2	1	HANGER	687	n/a	5	0	n/a	n/a	n/a	n/a	n/a
4647.336	n/a	RECOG_TARGET	2323668	n/a	LTP193	ltpFR	0	2	0	STEREO	1378	1	5	1	n/a	n/a	n/a	n/a	n/a
4648.71	n/a	RECOG_RESP	2324355	n/a	LTP193	ltpFR	0	2	0	STEREO	1378	1	n/a	1	n/a	n/a	n/a	n/a	n/a
4649.858	n/a	RECOG_CONF	2324929	n/a	LTP193	ltpFR	0	2	0	STEREO	1378	n/a	5	1	n/a	n/a	n/a	n/a	n/a
4651.584	n/a	RECOG_TARGET	2325792	n/a	LTP193	ltpFR	0	2	0	TOENAIL	1474	1	5	0	n/a	n/a	n/a	n/a	n/a
4652.52	n/a	RECOG_RESP	2326260	n/a	LTP193	ltpFR	0	2	0	TOENAIL	1474	1	n/a	0	n/a	n/a	n/a	n/a	n/a
4653.7	n/a	RECOG_CONF	2326850	n/a	LTP193	ltpFR	0	2	0	TOENAIL	1474	n/a	5	0	n/a	n/a	n/a	n/a	n/a
4655.532	n/a	RECOG_TARGET	2327766	n/a	LTP193	ltpFR	0	2	0	PIKE	1067	1	5	1	n/a	n/a	n/a	n/a	n/a
4656.886	n/a	RECOG_RESP	2328443	n/a	LTP193	ltpFR	0	2	0	PIKE	1067	1	n/a	1	n/a	n/a	n/a	n/a	n/a
4657.972	n/a	RECOG_CONF	2328986	n/a	LTP193	ltpFR	0	2	0	PIKE	1067	n/a	5	1	n/a	n/a	n/a	n/a	n/a
4659.85	n/a	RECOG_TARGET	2329925	n/a	LTP193	ltpFR	0	2	1	PALM	1007	1	5	0	n/a	n/a	n/a	n/a	n/a
4660.596	n/a	RECOG_RESP	2330298	n/a	LTP193	ltpFR	0	2	1	PALM	1007	1	n/a	0	n/a	n/a	n/a	n/a	n/a
4661.998	n/a	RECOG_CONF	2330999	n/a	LTP193	ltpFR	0	2	1	PALM	1007	n/a	5	0	n/a	n/a	n/a	n/a	n/a
4663.866	n/a	RECOG_TARGET	2331933	n/a	LTP193	ltpFR	0	2	1	DAM	436	1	5	0	n/a	n/a	n/a	n/a	n/a
4664.94	n/a	RECOG_RESP	2332470	n/a	LTP193	ltpFR	0	2	1	DAM	436	1	n/a	0	n/a	n/a	n/a	n/a	n/a
4666.194	n/a	RECOG_CONF	2333097	n/a	LTP193	ltpFR	0	2	1	DAM	436	n/a	5	0	n/a	n/a	n/a	n/a	n/a
4668.148	n/a	RECOG_TARGET	2334074	n/a	LTP193	ltpFR	0	2	1	DOLPHIN	483	1	5	1	n/a	n/a	n/a	n/a	n/a
4669.156	n/a	RECOG_RESP	2334578	n/a	LTP193	ltpFR	0	2	1	DOLPHIN	483	1	n/a	1	n/a	n/a	n/a	n/a	n/a
4670.416	n/a	RECOG_CONF	2335208	n/a	LTP193	ltpFR	0	2	1	DOLPHIN	483	n/a	5	1	n/a	n/a	n/a	n/a	n/a
4672.514	n/a	RECOG_TARGET	2336257	n/a	LTP193	ltpFR	0	2	-1	OVEN	991	1	3	-1	n/a	n/a	n/a	n/a	n/a
4675.564	n/a	RECOG_RESP	2337782	n/a	LTP193	ltpFR	0	2	-1	OVEN	991	1	n/a	-1	n/a	n/a	n/a	n/a	n/a
4677.21	n/a	RECOG_CONF	2338605	n/a	LTP193	ltpFR	0	2	-1	OVEN	991	n/a	3	-1	n/a	n/a	n/a	n/a	n/a
4679.574	n/a	RECOG_TARGET	2339787	n/a	LTP193	ltpFR	0	2	0	VINE	1568	1	5	1	n/a	n/a	n/a	n/a	n/a
4680.318	n/a	RECOG_RESP	2340159	n/a	LTP193	ltpFR	0	2	0	VINE	1568	1	n/a	1	n/a	n/a	n/a	n/a	n/a
4681.39	n/a	RECOG_CONF	2340695	n/a	LTP193	ltpFR	0	2	0	VINE	1568	n/a	5	1	n/a	n/a	n/a	n/a	n/a
4683.256	n/a	RECOG_TARGET	2341628	n/a	LTP193	ltpFR	0	2	-1	SHEET	1279	1	5	-1	n/a	n/a	n/a	n/a	n/a
4684.158	n/a	RECOG_RESP	2342079	n/a	LTP193	ltpFR	0	2	-1	SHEET	1279	1	n/a	-1	n/a	n/a	n/a	n/a	n/a
4685.286	n/a	RECOG_CONF	2342643	n/a	LTP193	ltpFR	0	2	-1	SHEET	1279	n/a	5	-1	n/a	n/a	n/a	n/a	n/a
4686.938	n/a	RECOG_TARGET	2343469	n/a	LTP193	ltpFR	0	2	0	FISH	571	0	2	0	n/a	n/a	n/a	n/a	n/a
4689.8	n/a	RECOG_RESP	2344900	n/a	LTP193	ltpFR	0	2	0	FISH	571	0	n/a	0	n/a	n/a	n/a	n/a	n/a
4691.766	n/a	RECOG_CONF	2345883	n/a	LTP193	ltpFR	0	2	0	FISH	571	n/a	2	0	n/a	n/a	n/a	n/a	n/a
4693.66	n/a	RECOG_TARGET	2346830	n/a	LTP193	ltpFR	0	2	1	TOOTHPASTE	1483	1	4	0	n/a	n/a	n/a	n/a	n/a
4694.824	n/a	RECOG_RESP	2347412	n/a	LTP193	ltpFR	0	2	1	TOOTHPASTE	1483	1	n/a	0	n/a	n/a	n/a	n/a	n/a
4695.93	n/a	RECOG_CONF	2347965	n/a	LTP193	ltpFR	0	2	1	TOOTHPASTE	1483	n/a	4	0	n/a	n/a	n/a	n/a	n/a
4697.644	n/a	RECOG_TARGET	2348822	n/a	LTP193	ltpFR	0	2	-1	CREEK	404	1	5	-1	n/a	n/a	n/a	n/a	n/a
4698.43	n/a	RECOG_RESP	2349215	n/a	LTP193	ltpFR	0	2	-1	CREEK	404	1	n/a	-1	n/a	n/a	n/a	n/a	n/a
4699.46	n/a	RECOG_CONF	2349730	n/a	LTP193	ltpFR	0	2	-1	CREEK	404	n/a	5	-1	n/a	n/a	n/a	n/a	n/a
4701.308	n/a	RECOG_TARGET	2350654	n/a	LTP193	ltpFR	0	2	1	CIRCUS	311	1	5	0	n/a	n/a	n/a	n/a	n/a
4702.096	n/a	RECOG_RESP	2351048	n/a	LTP193	ltpFR	0	2	1	CIRCUS	311	1	n/a	0	n/a	n/a	n/a	n/a	n/a
4703.242	n/a	RECOG_CONF	2351621	n/a	LTP193	ltpFR	0	2	1	CIRCUS	311	n/a	5	0	n/a	n/a	n/a	n/a	n/a
4705.038	n/a	RECOG_TARGET	2352519	n/a	LTP193	ltpFR	0	2	-1	VESSEL	1558	0	3	-1	n/a	n/a	n/a	n/a	n/a
4706.442	n/a	RECOG_RESP	2353221	n/a	LTP193	ltpFR	0	2	-1	VESSEL	1558	0	n/a	-1	n/a	n/a	n/a	n/a	n/a
4709.696	n/a	RECOG_CONF	2354848	n/a	LTP193	ltpFR	0	2	-1	VESSEL	1558	n/a	3	-1	n/a	n/a	n/a	n/a	n/a
4711.396	n/a	RECOG_TARGET	2355698	n/a	LTP193	ltpFR	0	2	1	LAWYER	806	1	4	1	n/a	n/a	n/a	n/a	n/a
4712.866	n/a	RECOG_RESP	2356433	n/a	LTP193	ltpFR	0	2	1	LAWYER	806	1	n/a	1	n/a	n/a	n/a	n/a	n/a
4714.066	n/a	RECOG_CONF	2357033	n/a	LTP193	ltpFR	0	2	1	LAWYER	806	n/a	4	1	n/a	n/a	n/a	n/a	n/a
4722.242	n/a	REC_START	2361121	n/a	LTP193	ltpFR	0	3	n/a	n/a	n/a	n/a	n/a	n/a	n/a	n/a	n/a	n/a	n/a
4722.288	n/a	RECOG_TARGET	2361144	n/a	LTP193	ltpFR	0	3	1	BEE	112	1	5	1	n/a	n/a	n/a	n/a	n/a
4723.074	n/a	RECOG_RESP	2361537	n/a	LTP193	ltpFR	0	3	1	BEE	112	1	n/a	1	n/a	n/a	n/a	n/a	n/a
4724.136	n/a	RECOG_CONF	2362068	n/a	LTP193	ltpFR	0	3	1	BEE	112	n/a	5	1	n/a	n/a	n/a	n/a	n/a
4726.086	n/a	RECOG_TARGET	2363043	n/a	LTP193	ltpFR	0	3	-1	COLESLAW	344	1	5	-1	n/a	n/a	n/a	n/a	n/a
4726.83	n/a	RECOG_RESP	2363415	n/a	LTP193	ltpFR	0	3	-1	COLESLAW	344	1	n/a	-1	n/a	n/a	n/a	n/a	n/a
4727.75	n/a	RECOG_CONF	2363875	n/a	LTP193	ltpFR	0	3	-1	COLESLAW	344	n/a	5	-1	n/a	n/a	n/a	n/a	n/a
4729.582	n/a	RECOG_TARGET	2364791	n/a	LTP193	ltpFR	0	3	0	OX	994	1	5	1	n/a	n/a	n/a	n/a	n/a
4730.166	n/a	RECOG_RESP	2365083	n/a	LTP193	ltpFR	0	3	0	OX	994	1	n/a	1	n/a	n/a	n/a	n/a	n/a
4731.196	n/a	RECOG_CONF	2365598	n/a	LTP193	ltpFR	0	3	0	OX	994	n/a	5	1	n/a	n/a	n/a	n/a	n/a
4733.028	n/a	RECOG_LURE	2366514	n/a	LTP193	ltpFR	0	3	n/a	TOWN	1491	0	3	n/a	n/a	n/a	n/a	n/a	n/a
4735.506	n/a	RECOG_RESP	2367753	n/a	LTP193	ltpFR	0	3	n/a	TOWN	1491	0	n/a	n/a	n/a	n/a	n/a	n/a	n/a
4736.476	n/a	RECOG_CONF	2368238	n/a	LTP193	ltpFR	0	3	n/a	TOWN	1491	n/a	3	n/a	n/a	n/a	n/a	n/a	n/a
4738.066	n/a	RECOG_TARGET	2369033	n/a	LTP193	ltpFR	0	3	0	NET	946	1	5	1	n/a	n/a	n/a	n/a	n/a
4739.006	n/a	RECOG_RESP	2369503	n/a	LTP193	ltpFR	0	3	0	NET	946	1	n/a	1	n/a	n/a	n/a	n/a	n/a
4740.136	n/a	RECOG_CONF	2370068	n/a	LTP193	ltpFR	0	3	0	NET	946	n/a	5	1	n/a	n/a	n/a	n/a	n/a
4741.812	n/a	RECOG_TARGET	2370906	n/a	LTP193	ltpFR	0	3	1	CAN	225	0	2	0	n/a	n/a	n/a	n/a	n/a
4744.694	n/a	RECOG_RESP	2372347	n/a	LTP193	ltpFR	0	3	1	CAN	225	0	n/a	0	n/a	n/a	n/a	n/a	n/a
4745.94	n/a	RECOG_CONF	2372970	n/a	LTP193	ltpFR	0	3	1	CAN	225	n/a	2	0	n/a	n/a	n/a	n/a	n/a
4747.718	n/a	RECOG_LURE	2373859	n/a	LTP193	ltpFR	0	3	n/a	BALCONY	72	1	4	n/a	n/a	n/a	n/a	n/a	n/a
4749.148	n/a	RECOG_RESP	2374574	n/a	LTP193	ltpFR	0	3	n/a	BALCONY	72	1	n/a	n/a	n/a	n/a	n/a	n/a	n/a
4751.004	n/a	RECOG_CONF	2375502	n/a	LTP193	ltpFR	0	3	n/a	BALCONY	72	n/a	4	n/a	n/a	n/a	n/a	n/a	n/a
4752.67	n/a	RECOG_TARGET	2376335	n/a	LTP193	ltpFR	0	3	-1	TAXI	1438	1	5	-1	n/a	n/a	n/a	n/a	n/a
4753.888	n/a	RECOG_RESP	2376944	n/a	LTP193	ltpFR	0	3	-1	TAXI	1438	1	n/a	-1	n/a	n/a	n/a	n/a	n/a
4754.978	n/a	RECOG_CONF	2377489	n/a	LTP193	ltpFR	0	3	-1	TAXI	1438	n/a	5	-1	n/a	n/a	n/a	n/a	n/a
4756.568	n/a	RECOG_TARGET	2378284	n/a	LTP193	ltpFR	0	3	-1	CONCERT	360	1	5	-1	n/a	n/a	n/a	n/a	n/a
4757.708	n/a	RECOG_RESP	2378854	n/a	LTP193	ltpFR	0	3	-1	CONCERT	360	1	n/a	-1	n/a	n/a	n/a	n/a	n/a
4758.64	n/a	RECOG_CONF	2379320	n/a	LTP193	ltpFR	0	3	-1	CONCERT	360	n/a	5	-1	n/a	n/a	n/a	n/a	n/a
4760.5	n/a	RECOG_TARGET	2380250	n/a	LTP193	ltpFR	0	3	1	MARS	873	1	5	0	n/a	n/a	n/a	n/a	n/a
4761.196	n/a	RECOG_RESP	2380598	n/a	LTP193	ltpFR	0	3	1	MARS	873	1	n/a	0	n/a	n/a	n/a	n/a	n/a
4762.082	n/a	RECOG_CONF	2381041	n/a	LTP193	ltpFR	0	3	1	MARS	873	n/a	5	0	n/a	n/a	n/a	n/a	n/a
4763.662	n/a	RECOG_TARGET	2381831	n/a	LTP193	ltpFR	0	3	-1	KETTLE	772	1	3	-1	n/a	n/a	n/a	n/a	n/a
4765.878	n/a	RECOG_RESP	2382939	n/a	LTP193	ltpFR	0	3	-1	KETTLE	772	1	n/a	-1	n/a	n/a	n/a	n/a	n/a
4766.978	n/a	RECOG_CONF	2383489	n/a	LTP193	ltpFR	0	3	-1	KETTLE	772	n/a	3	-1	n/a	n/a	n/a	n/a	n/a
4768.552	n/a	RECOG_TARGET	2384276	n/a	LTP193	ltpFR	0	3	-1	CABOOSE	214	1	5	-1	n/a	n/a	n/a	n/a	n/a
4769.548	n/a	RECOG_RESP	2384774	n/a	LTP193	ltpFR	0	3	-1	CABOOSE	214	1	n/a	-1	n/a	n/a	n/a	n/a	n/a
4770.482	n/a	RECOG_CONF	2385241	n/a	LTP193	ltpFR	0	3	-1	CABOOSE	214	n/a	5	-1	n/a	n/a	n/a	n/a	n/a
4772.078	n/a	RECOG_TARGET	2386039	n/a	LTP193	ltpFR	0	3	1	ATLAS	53	1	4	0	n/a	n/a	n/a	n/a	n/a
4773.64	n/a	RECOG_RESP	2386820	n/a	LTP193	ltpFR	0	3	1	ATLAS	53	1	n/a	0	n/a	n/a	n/a	n/a	n/a
4774.74	n/a	RECOG_CONF	2387370	n/a	LTP193	ltpFR	0	3	1	ATLAS	53	n/a	4	0	n/a	n/a	n/a	n/a	n/a
4776.362	n/a	RECOG_LURE	2388181	n/a	LTP193	ltpFR	0	3	n/a	RULER	1216	0	3	n/a	n/a	n/a	n/a	n/a	n/a
4777.356	n/a	RECOG_RESP	2388678	n/a	LTP193	ltpFR	0	3	n/a	RULER	1216	0	n/a	n/a	n/a	n/a	n/a	n/a	n/a
4778.684	n/a	RECOG_CONF	2389342	n/a	LTP193	ltpFR	0	3	n/a	RULER	1216	n/a	3	n/a	n/a	n/a	n/a	n/a	n/a
4780.098	n/a	RECOG_LURE	2390049	n/a	LTP193	ltpFR	0	3	n/a	CHIMPANZEE	302	0	4	n/a	n/a	n/a	n/a	n/a	n/a
